Words,ans,Words_ipn,ans_ipn,Words_t1,ans_t1,Words_t2,ans_t2,Practice_01.thisRepN,Practice_01.thisTrialN,Practice_01.thisN,Practice_01.thisIndex,Practice_02.thisRepN,Practice_02.thisTrialN,Practice_02.thisN,Practice_02.thisIndex,Practice_T1.thisRepN,Practice_T1.thisTrialN,Practice_T1.thisN,Practice_T1.thisIndex,Formal_T1.thisRepN,Formal_T1.thisTrialN,Formal_T1.thisN,Formal_T1.thisIndex,Practice_iso_Reverse.thisRepN,Practice_iso_Reverse.thisTrialN,Practice_iso_Reverse.thisN,Practice_iso_Reverse.thisIndex,Practice_ipn_Reverse.thisRepN,Practice_ipn_Reverse.thisTrialN,Practice_ipn_Reverse.thisN,Practice_ipn_Reverse.thisIndex,Formal_t2.thisRepN,Formal_t2.thisTrialN,Formal_t2.thisN,Formal_t2.thisIndex,thisRow.t,notes,Instruction01.started,Instruction_01.started,Instruction1.started,Instruction01.stopped,Instruction1.keys,Instruction1.rt,Instruction1.duration,Instruction02.started,Instruction_02.started,Instruction2.started,Instruction02.stopped,Instruction2.keys,Instruction2.rt,Instruction2.duration,Fix.started,fix.started,Fix.stopped,Practice_iso.started,text.started,key_resp_iso.started,Practice_iso.stopped,key_resp_iso.keys,key_resp_iso.corr,key_resp_iso.rt,key_resp_iso.duration,Feedback_iso_Practice.started,fb.started,Feedback_iso_Practice.stopped,Instruction03.started,Instruction_03.started,key_resp_3.started,Instruction03.stopped,key_resp_3.keys,key_resp_3.rt,key_resp_3.duration,Practic_ipn.started,text_2.started,key_resp_ipn.started,Practic_ipn.stopped,key_resp_ipn.keys,key_resp_ipn.corr,key_resp_ipn.rt,key_resp_ipn.duration,Feedback_ipn_Practice.started,fb_3.started,Feedback_ipn_Practice.stopped,Instruction04.started,Instruction_04.started,key_resp_4.started,Instruction04.stopped,key_resp_4.keys,key_resp_4.rt,key_resp_4.duration,Practice_t1.started,text_3.started,key_resp_t1.started,Practice_t1.stopped,key_resp_t1.keys,key_resp_t1.corr,key_resp_t1.rt,key_resp_t1.duration,Feedback_t1.started,fb_2.started,Feedback_t1.stopped,Instruction05.started,Instruction_05.started,key_resp_5.started,Instruction05.stopped,key_resp_5.keys,key_resp_5.rt,key_resp_5.duration,Instruction06.started,Instruction_06.started,key_resp_6.started,Instruction06.stopped,key_resp_6.keys,key_resp_6.rt,key_resp_6.duration,Practice_iso_reverse.started,text_4.started,key_resp_iso_reverse.started,Practice_iso_reverse.stopped,key_resp_iso_reverse.keys,key_resp_iso_reverse.corr,key_resp_iso_reverse.rt,key_resp_iso_reverse.duration,Feedback_iso_reverse.started,fb_4.started,Feedback_iso_reverse.stopped,Instruction07.started,Instruction_07.started,key_resp_7.started,Instruction07.stopped,key_resp_7.keys,key_resp_7.rt,key_resp_7.duration,Practice_ipn_reverse.started,text_5.started,key_resp_ipn_reverse.started,Practice_ipn_reverse.stopped,key_resp_ipn_reverse.keys,key_resp_ipn_reverse.corr,key_resp_ipn_reverse.rt,key_resp_ipn_reverse.duration,Feedback_ipn_reverse.started,fb_5.started,Feedback_ipn_reverse.stopped,Instruction08.started,Instruction_08.started,key_resp_8.started,Instruction08.stopped,key_resp_8.keys,key_resp_8.rt,key_resp_8.duration,Practice_t2.started,text_6.started,key_resp_t2.started,Practice_t2.stopped,key_resp_t2.keys,key_resp_t2.corr,key_resp_t2.rt,key_resp_t2.duration,Feedback_t2.started,fb_6.started,Feedback_t2.stopped,participant,session,date,expName,psychopyVersion,frameRate,expStart,
,,,,,,,,,,,,,,,,,,,,,,,,,,,,,,,,,,,,,,0.1958696999354288,0.2331347999861464,0.2331347999861464,1.3117564999265596,space,0.9658537999494001,None,,,,,,,,,,,,,,,,,,,,,,,,,,,,,,,,,,,,,,,,,,,,,,,,,,,,,,,,,,,,,,,,,,,,,,,,,,,,,,,,,,,,,,,,,,,,,,,,,,,,,,,,,,,,,,,,,,,,,,,1,001,2024-07-05_15h04.00.146,IAT(test05),2024.1.4,None,2024-07-05 15h04.23.275378 +0800,
,,,,,,,,,,,,,,,,,,,,,,,,,,,,,,,,,,,,,,,,,,,,,1.3118015999207273,1.3718166999751702,1.3718166999751702,1.706857799901627,space,0.3148203999735415,None,,,,,,,,,,,,,,,,,,,,,,,,,,,,,,,,,,,,,,,,,,,,,,,,,,,,,,,,,,,,,,,,,,,,,,,,,,,,,,,,,,,,,,,,,,,,,,,,,,,,,,,,,,,,,,,,1,001,2024-07-05_15h04.00.146,IAT(test05),2024.1.4,None,2024-07-05 15h04.23.275378 +0800,
他的,i,,,,,,,0,0,0,7,,,,,,,,,,,,,,,,,,,,,,,,,1.8072654999559745,,,,,,,,,,,,,,,,1.7480664999457076,1.8072654999559745,2.254330899915658,2.254831999889575,2.3094414999941364,2.3094414999941364,2.514117799932137,e,0,0.1837647999636829,None,2.516148099908605,2.5612121999729425,3.5647400999441743,,,,,,,,,,,,,,,,,,,,,,,,,,,,,,,,,,,,,,,,,,,,,,,,,,,,,,,,,,,,,,,,,,,,,,,,,,,,,,,,,,,,,,,,,,,,,,,,,,1,001,2024-07-05_15h04.00.146,IAT(test05),2024.1.4,None,2024-07-05 15h04.23.275378 +0800,
自己,e,,,,,,,0,1,1,3,,,,,,,,,,,,,,,,,,,,,,,,,3.6112866998882964,,,,,,,,,,,,,,,,3.564999399939552,3.6112866998882964,4.03816629992798,4.0381867999676615,4.089897799887694,4.089897799887694,4.666663499898277,e,1,0.5553626000182703,None,4.667040799977258,4.699623299995437,5.671615100000054,,,,,,,,,,,,,,,,,,,,,,,,,,,,,,,,,,,,,,,,,,,,,,,,,,,,,,,,,,,,,,,,,,,,,,,,,,,,,,,,,,,,,,,,,,,,,,,,,,1,001,2024-07-05_15h04.00.146,IAT(test05),2024.1.4,None,2024-07-05 15h04.23.275378 +0800,
他们,i,,,,,,,0,2,2,6,,,,,,,,,,,,,,,,,,,,,,,,,5.704942399985157,,,,,,,,,,,,,,,,5.671957099926658,5.704942399985157,6.207565199933015,6.20778319996316,6.246441899915226,6.246441899915226,7.096356899943203,i,1,0.8344975000945851,None,7.096622499986552,7.128380899899639,8.142240199958906,,,,,,,,,,,,,,,,,,,,,,,,,,,,,,,,,,,,,,,,,,,,,,,,,,,,,,,,,,,,,,,,,,,,,,,,,,,,,,,,,,,,,,,,,,,,,,,,,,1,001,2024-07-05_15h04.00.146,IAT(test05),2024.1.4,None,2024-07-05 15h04.23.275378 +0800,
我的,e,,,,,,,0,3,3,1,,,,,,,,,,,,,,,,,,,,,,,,,8.189090399886481,,,,,,,,,,,,,,,,8.142886099987663,8.189090399886481,8.626631199964322,8.626645799959078,8.702745299902745,8.702745299902745,9.384710599901155,e,1,0.6777002000017092,None,9.385305999894626,9.44004249991849,10.409646599902771,,,,,,,,,,,,,,,,,,,,,,,,,,,,,,,,,,,,,,,,,,,,,,,,,,,,,,,,,,,,,,,,,,,,,,,,,,,,,,,,,,,,,,,,,,,,,,,,,,1,001,2024-07-05_15h04.00.146,IAT(test05),2024.1.4,None,2024-07-05 15h04.23.275378 +0800,
他人,i,,,,,,,0,4,4,8,,,,,,,,,,,,,,,,,,,,,,,,,10.464047699933872,,,,,,,,,,,,,,,,10.410342199960724,10.464047699933872,10.928422799916007,10.928474199958146,11.002794399973936,11.002794399973936,11.450090799946338,i,1,0.4389172000810504,None,11.450648599886335,11.4961146999849,12.469183899927884,,,,,,,,,,,,,,,,,,,,,,,,,,,,,,,,,,,,,,,,,,,,,,,,,,,,,,,,,,,,,,,,,,,,,,,,,,,,,,,,,,,,,,,,,,,,,,,,,,1,001,2024-07-05_15h04.00.146,IAT(test05),2024.1.4,None,2024-07-05 15h04.23.275378 +0800,
其他,i,,,,,,,0,5,5,9,,,,,,,,,,,,,,,,,,,,,,,,,12.505120799993165,,,,,,,,,,,,,,,,12.469565699924715,12.505120799993165,12.96359569998458,12.96361429989338,13.013208499993198,13.013208499993198,13.62129289994482,i,1,0.6028944998979568,None,13.622345399926417,13.672494399943389,14.635266799945384,,,,,,,,,,,,,,,,,,,,,,,,,,,,,,,,,,,,,,,,,,,,,,,,,,,,,,,,,,,,,,,,,,,,,,,,,,,,,,,,,,,,,,,,,,,,,,,,,,1,001,2024-07-05_15h04.00.146,IAT(test05),2024.1.4,None,2024-07-05 15h04.23.275378 +0800,
我,e,,,,,,,0,6,6,0,,,,,,,,,,,,,,,,,,,,,,,,,14.667707299930044,,,,,,,,,,,,,,,,14.635558299953118,14.667707299930044,15.153193699894473,15.153236799989827,15.196765099884942,15.196765099884942,15.739410699927248,e,1,0.519065500004217,None,15.739740599994548,15.800996099947952,16.756120499921963,,,,,,,,,,,,,,,,,,,,,,,,,,,,,,,,,,,,,,,,,,,,,,,,,,,,,,,,,,,,,,,,,,,,,,,,,,,,,,,,,,,,,,,,,,,,,,,,,,1,001,2024-07-05_15h04.00.146,IAT(test05),2024.1.4,None,2024-07-05 15h04.23.275378 +0800,
俺,e,,,,,,,0,7,7,4,,,,,,,,,,,,,,,,,,,,,,,,,16.795191299985163,,,,,,,,,,,,,,,,16.756687499932013,16.795191299985163,17.273693099967204,17.273713299888186,17.328622599947266,17.328622599947266,18.020914699998684,e,1,0.6655236000660807,None,18.02185959997587,18.061555599910207,19.068667499930598,,,,,,,,,,,,,,,,,,,,,,,,,,,,,,,,,,,,,,,,,,,,,,,,,,,,,,,,,,,,,,,,,,,,,,,,,,,,,,,,,,,,,,,,,,,,,,,,,,1,001,2024-07-05_15h04.00.146,IAT(test05),2024.1.4,None,2024-07-05 15h04.23.275378 +0800,
他,i,,,,,,,0,8,8,5,,,,,,,,,,,,,,,,,,,,,,,,,19.10915469995234,,,,,,,,,,,,,,,,19.068953699897975,19.10915469995234,19.534636599943042,19.53469859994948,19.556553199887276,19.556553199887276,20.10186089994386,i,1,0.5336819000076503,None,20.102427699952386,20.142517399974167,21.105099799926393,,,,,,,,,,,,,,,,,,,,,,,,,,,,,,,,,,,,,,,,,,,,,,,,,,,,,,,,,,,,,,,,,,,,,,,,,,,,,,,,,,,,,,,,,,,,,,,,,,1,001,2024-07-05_15h04.00.146,IAT(test05),2024.1.4,None,2024-07-05 15h04.23.275378 +0800,
我们,e,,,,,,,0,9,9,2,,,,,,,,,,,,,,,,,,,,,,,,,21.15484099998139,,,,,,,,,,,,,,,,21.1056707999669,21.15484099998139,21.60287669999525,21.602897899923846,21.646002699970268,21.646002699970268,22.22030189994257,e,1,0.5553418999770656,None,22.22061019996181,22.258504599914886,23.23746089998167,,,,,,,,,,,,,,,,,,,,,,,,,,,,,,,,,,,,,,,,,,,,,,,,,,,,,,,,,,,,,,,,,,,,,,,,,,,,,,,,,,,,,,,,,,,,,,,,,,1,001,2024-07-05_15h04.00.146,IAT(test05),2024.1.4,None,2024-07-05 15h04.23.275378 +0800,
,,,,,,,,,,,,,,,,,,,,,,,,,,,,,,,,,,,,,,,,,,,,,,,,,,,,,,,,,,,,,,,,,,23.237558999913745,23.27928899996914,23.27928899996914,23.81073639995884,space,0.5150081000756472,None,,,,,,,,,,,,,,,,,,,,,,,,,,,,,,,,,,,,,,,,,,,,,,,,,,,,,,,,,,,,,,,,,,,,,,,,,,,,,,,,,,,,,,,,,,,1,001,2024-07-05_15h04.00.146,IAT(test05),2024.1.4,None,2024-07-05 15h04.23.275378 +0800,
,,暴躁,i,,,,,,,,,0,0,0,34,,,,,,,,,,,,,,,,,,,,,23.87465099990368,,,,,,,,,,,,,,,,23.843740899930708,23.87465099990368,24.348926699953154,,,,,,,,,,,,,,,,,,,24.348946599988267,24.39385189989116,24.39385189989116,25.008455099887215,i,1,0.6030042000347748,None,25.00898469996173,25.06492489995435,26.05246019992046,,,,,,,,,,,,,,,,,,,,,,,,,,,,,,,,,,,,,,,,,,,,,,,,,,,,,,,,,,,,,,,,,,,,,,,,,,,,,,,,1,001,2024-07-05_15h04.00.146,IAT(test05),2024.1.4,None,2024-07-05 15h04.23.275378 +0800,
,,固执,i,,,,,,,,,0,1,1,37,,,,,,,,,,,,,,,,,,,,,26.098086799960583,,,,,,,,,,,,,,,,26.053233899991028,26.098086799960583,26.509035199997015,,,,,,,,,,,,,,,,,,,26.509057299932465,26.55040719988756,26.55040719988756,27.37043119990267,i,1,0.7849563000490889,None,27.3709428999573,27.421599499997683,28.377984599908814,,,,,,,,,,,,,,,,,,,,,,,,,,,,,,,,,,,,,,,,,,,,,,,,,,,,,,,,,,,,,,,,,,,,,,,,,,,,,,,,1,001,2024-07-05_15h04.00.146,IAT(test05),2024.1.4,None,2024-07-05 15h04.23.275378 +0800,
,,细腻,e,,,,,,,,,0,2,2,15,,,,,,,,,,,,,,,,,,,,,28.423141199979,,,,,,,,,,,,,,,,28.37871539988555,28.423141199979,28.909614999894984,,,,,,,,,,,,,,,,,,,28.909668699954636,28.952164999907836,28.952164999907836,29.51417889993172,e,1,0.5319818999851122,None,29.514724199892953,29.556475099991076,30.556328999926336,,,,,,,,,,,,,,,,,,,,,,,,,,,,,,,,,,,,,,,,,,,,,,,,,,,,,,,,,,,,,,,,,,,,,,,,,,,,,,,,1,001,2024-07-05_15h04.00.146,IAT(test05),2024.1.4,None,2024-07-05 15h04.23.275378 +0800,
,,消极,i,,,,,,,,,0,3,3,25,,,,,,,,,,,,,,,,,,,,,30.595691999886185,,,,,,,,,,,,,,,,30.557021499960683,30.595691999886185,31.018215799937025,,,,,,,,,,,,,,,,,,,31.018234599963762,31.063515699934214,31.063515699934214,31.608842099900357,i,1,0.50660640001297,None,31.609300599899143,31.65256989991758,32.61081949993968,,,,,,,,,,,,,,,,,,,,,,,,,,,,,,,,,,,,,,,,,,,,,,,,,,,,,,,,,,,,,,,,,,,,,,,,,,,,,,,,1,001,2024-07-05_15h04.00.146,IAT(test05),2024.1.4,None,2024-07-05 15h04.23.275378 +0800,
,,无私,e,,,,,,,,,0,4,4,12,,,,,,,,,,,,,,,,,,,,,32.6277957999846,,,,,,,,,,,,,,,,32.611919799936004,32.6277957999846,33.17130929999985,,,,,,,,,,,,,,,,,,,33.17134909995366,33.23182379989885,33.23182379989885,33.729814899968915,i,0,0.49084559991024435,None,33.73020209989045,33.77799409988802,34.75543099991046,,,,,,,,,,,,,,,,,,,,,,,,,,,,,,,,,,,,,,,,,,,,,,,,,,,,,,,,,,,,,,,,,,,,,,,,,,,,,,,,1,001,2024-07-05_15h04.00.146,IAT(test05),2024.1.4,None,2024-07-05 15h04.23.275378 +0800,
,,虚伪,i,,,,,,,,,0,5,5,21,,,,,,,,,,,,,,,,,,,,,34.77620319998823,,,,,,,,,,,,,,,,34.75623469997663,34.77620319998823,35.277160199941136,,,,,,,,,,,,,,,,,,,35.277188499923795,35.3403616999276,35.3403616999276,35.86512899992522,e,0,0.5086238000076264,None,35.865840399987064,35.90674599993508,36.8793351999484,,,,,,,,,,,,,,,,,,,,,,,,,,,,,,,,,,,,,,,,,,,,,,,,,,,,,,,,,,,,,,,,,,,,,,,,,,,,,,,,1,001,2024-07-05_15h04.00.146,IAT(test05),2024.1.4,None,2024-07-05 15h04.23.275378 +0800,
,,执拗,i,,,,,,,,,0,6,6,30,,,,,,,,,,,,,,,,,,,,,36.923085199901834,,,,,,,,,,,,,,,,36.87967399996705,36.923085199901834,37.36795709992293,,,,,,,,,,,,,,,,,,,37.367994499974884,37.42213119997177,37.42213119997177,38.14349969988689,i,1,0.6935110000194982,None,38.14429659990128,38.185344499885105,39.14984799991362,,,,,,,,,,,,,,,,,,,,,,,,,,,,,,,,,,,,,,,,,,,,,,,,,,,,,,,,,,,,,,,,,,,,,,,,,,,,,,,,1,001,2024-07-05_15h04.00.146,IAT(test05),2024.1.4,None,2024-07-05 15h04.23.275378 +0800,
,,优秀,e,,,,,,,,,0,7,7,0,,,,,,,,,,,,,,,,,,,,,39.1638624999905,,,,,,,,,,,,,,,,39.15031909989193,39.1638624999905,39.65960469993297,,,,,,,,,,,,,,,,,,,39.659659599885345,39.705256999935955,39.705256999935955,40.253390299971215,e,1,0.5044672000221908,None,40.25404169992544,40.28790139988996,41.255647599929944,,,,,,,,,,,,,,,,,,,,,,,,,,,,,,,,,,,,,,,,,,,,,,,,,,,,,,,,,,,,,,,,,,,,,,,,,,,,,,,,1,001,2024-07-05_15h04.00.146,IAT(test05),2024.1.4,None,2024-07-05 15h04.23.275378 +0800,
,,凶狠,i,,,,,,,,,0,8,8,32,,,,,,,,,,,,,,,,,,,,,41.30314379988704,,,,,,,,,,,,,,,,41.255981399910524,41.30314379988704,41.760936399921775,,,,,,,,,,,,,,,,,,,41.76096249988768,41.80721389991231,41.80721389991231,42.41689709993079,i,1,0.5889470999827608,None,42.4175244999351,42.457661999971606,43.42835699999705,,,,,,,,,,,,,,,,,,,,,,,,,,,,,,,,,,,,,,,,,,,,,,,,,,,,,,,,,,,,,,,,,,,,,,,,,,,,,,,,1,001,2024-07-05_15h04.00.146,IAT(test05),2024.1.4,None,2024-07-05 15h04.23.275378 +0800,
,,冷静,e,,,,,,,,,0,9,9,16,,,,,,,,,,,,,,,,,,,,,43.46756129991263,,,,,,,,,,,,,,,,43.42875409999397,43.46756129991263,43.95624699990731,,,,,,,,,,,,,,,,,,,43.956286199972965,44.0005321999779,44.0005321999779,44.31999099999666,e,1,0.30167529999744147,None,44.32086999993771,44.38672349997796,45.34923889988568,,,,,,,,,,,,,,,,,,,,,,,,,,,,,,,,,,,,,,,,,,,,,,,,,,,,,,,,,,,,,,,,,,,,,,,,,,,,,,,,1,001,2024-07-05_15h04.00.146,IAT(test05),2024.1.4,None,2024-07-05 15h04.23.275378 +0800,
,,自私,i,,,,,,,,,0,10,10,33,,,,,,,,,,,,,,,,,,,,,45.394668599939905,,,,,,,,,,,,,,,,45.3500866999384,45.394668599939905,45.830598999978974,,,,,,,,,,,,,,,,,,,45.83065899997018,45.87310189998243,45.87310189998243,46.335451799910516,i,1,0.41428600007202476,None,46.33579329994973,46.38823359995149,47.34400029992685,,,,,,,,,,,,,,,,,,,,,,,,,,,,,,,,,,,,,,,,,,,,,,,,,,,,,,,,,,,,,,,,,,,,,,,,,,,,,,,,1,001,2024-07-05_15h04.00.146,IAT(test05),2024.1.4,None,2024-07-05 15h04.23.275378 +0800,
,,鲁莽,i,,,,,,,,,0,11,11,28,,,,,,,,,,,,,,,,,,,,,47.37792089988943,,,,,,,,,,,,,,,,47.344300799886696,47.37792089988943,47.87827180000022,,,,,,,,,,,,,,,,,,,47.87829549994785,47.94428989989683,47.94428989989683,48.527457599993795,i,1,0.5619536000303924,None,48.52824159990996,48.56203889998142,49.551511099911295,,,,,,,,,,,,,,,,,,,,,,,,,,,,,,,,,,,,,,,,,,,,,,,,,,,,,,,,,,,,,,,,,,,,,,,,,,,,,,,,1,001,2024-07-05_15h04.00.146,IAT(test05),2024.1.4,None,2024-07-05 15h04.23.275378 +0800,
,,机智,e,,,,,,,,,0,12,12,9,,,,,,,,,,,,,,,,,,,,,49.602638299926184,,,,,,,,,,,,,,,,49.55190529988613,49.602638299926184,50.063464999897406,,,,,,,,,,,,,,,,,,,50.063486099941656,50.1069439999992,50.1069439999992,50.35347649990581,e,1,0.24156939995009452,None,50.353831599932164,50.39000469993334,51.37997719994746,,,,,,,,,,,,,,,,,,,,,,,,,,,,,,,,,,,,,,,,,,,,,,,,,,,,,,,,,,,,,,,,,,,,,,,,,,,,,,,,1,001,2024-07-05_15h04.00.146,IAT(test05),2024.1.4,None,2024-07-05 15h04.23.275378 +0800,
,,聪明,e,,,,,,,,,0,13,13,2,,,,,,,,,,,,,,,,,,,,,51.420289499918,,,,,,,,,,,,,,,,51.380781499901786,51.420289499918,51.91090349992737,,,,,,,,,,,,,,,,,,,51.91094229998998,51.956857599900104,51.956857599900104,52.33738429995719,i,0,0.3507410000311211,None,52.33789419999812,52.38605370000005,53.36625739990268,,,,,,,,,,,,,,,,,,,,,,,,,,,,,,,,,,,,,,,,,,,,,,,,,,,,,,,,,,,,,,,,,,,,,,,,,,,,,,,,1,001,2024-07-05_15h04.00.146,IAT(test05),2024.1.4,None,2024-07-05 15h04.23.275378 +0800,
,,稳重,e,,,,,,,,,0,14,14,11,,,,,,,,,,,,,,,,,,,,,53.38563079992309,,,,,,,,,,,,,,,,53.36710919998586,53.38563079992309,53.854682299890555,,,,,,,,,,,,,,,,,,,53.85490089992527,53.93263069994282,53.93263069994282,54.55553389992565,e,1,0.5960954999318346,None,54.55594609992113,54.61222689994611,55.5694868999999,,,,,,,,,,,,,,,,,,,,,,,,,,,,,,,,,,,,,,,,,,,,,,,,,,,,,,,,,,,,,,,,,,,,,,,,,,,,,,,,1,001,2024-07-05_15h04.00.146,IAT(test05),2024.1.4,None,2024-07-05 15h04.23.275378 +0800,
,,认真,e,,,,,,,,,0,15,15,10,,,,,,,,,,,,,,,,,,,,,55.61702219990548,,,,,,,,,,,,,,,,55.57034579990432,55.61702219990548,56.05945189995691,,,,,,,,,,,,,,,,,,,56.05947399989236,56.102899299934506,56.102899299934506,56.339570999960415,i,0,0.19267060002312064,None,56.340099299908616,56.38643829990178,57.357076399959624,,,,,,,,,,,,,,,,,,,,,,,,,,,,,,,,,,,,,,,,,,,,,,,,,,,,,,,,,,,,,,,,,,,,,,,,,,,,,,,,1,001,2024-07-05_15h04.00.146,IAT(test05),2024.1.4,None,2024-07-05 15h04.23.275378 +0800,
,,崇高,e,,,,,,,,,0,16,16,1,,,,,,,,,,,,,,,,,,,,,57.38822869991418,,,,,,,,,,,,,,,,57.35734959994443,57.38822869991418,57.87270059995353,,,,,,,,,,,,,,,,,,,57.87274549994618,57.91214449994732,57.91214449994732,58.039201699895784,e,1,0.11222849995829165,None,58.039649799931794,58.07350819988642,59.06408499996178,,,,,,,,,,,,,,,,,,,,,,,,,,,,,,,,,,,,,,,,,,,,,,,,,,,,,,,,,,,,,,,,,,,,,,,,,,,,,,,,1,001,2024-07-05_15h04.00.146,IAT(test05),2024.1.4,None,2024-07-05 15h04.23.275378 +0800,
,,下贱,i,,,,,,,,,0,17,17,39,,,,,,,,,,,,,,,,,,,,,59.11111819988582,,,,,,,,,,,,,,,,59.06437449995428,59.11111819988582,59.55693409999367,,,,,,,,,,,,,,,,,,,59.55696049996186,59.593761799973436,59.593761799973436,60.00986789993476,i,1,0.36949660000391304,None,60.010163599974476,60.05713370000012,61.03203379991464,,,,,,,,,,,,,,,,,,,,,,,,,,,,,,,,,,,,,,,,,,,,,,,,,,,,,,,,,,,,,,,,,,,,,,,,,,,,,,,,1,001,2024-07-05_15h04.00.146,IAT(test05),2024.1.4,None,2024-07-05 15h04.23.275378 +0800,
,,自卑,i,,,,,,,,,0,18,18,26,,,,,,,,,,,,,,,,,,,,,61.071235699928366,,,,,,,,,,,,,,,,61.03231129993219,61.071235699928366,61.55631209991407,,,,,,,,,,,,,,,,,,,61.55634259991348,61.6298003999982,61.6298003999982,62.2028990999097,i,1,0.5485452999128029,None,62.203788599930704,62.24977959995158,63.209626099909656,,,,,,,,,,,,,,,,,,,,,,,,,,,,,,,,,,,,,,,,,,,,,,,,,,,,,,,,,,,,,,,,,,,,,,,,,,,,,,,,1,001,2024-07-05_15h04.00.146,IAT(test05),2024.1.4,None,2024-07-05 15h04.23.275378 +0800,
,,轻率,i,,,,,,,,,0,19,19,38,,,,,,,,,,,,,,,,,,,,,63.24800459994003,,,,,,,,,,,,,,,,63.21005269989837,63.24800459994003,63.71316939999815,,,,,,,,,,,,,,,,,,,63.71322129992768,63.75005749997217,63.75005749997217,64.43364989990368,i,1,0.6442925001028925,None,64.43417929997668,64.46929619996808,65.46355949994177,,,,,,,,,,,,,,,,,,,,,,,,,,,,,,,,,,,,,,,,,,,,,,,,,,,,,,,,,,,,,,,,,,,,,,,,,,,,,,,,1,001,2024-07-05_15h04.00.146,IAT(test05),2024.1.4,None,2024-07-05 15h04.23.275378 +0800,
,,诚恳,e,,,,,,,,,0,20,20,19,,,,,,,,,,,,,,,,,,,,,65.50719909998588,,,,,,,,,,,,,,,,65.46388469997328,65.50719909998588,65.97125069994945,,,,,,,,,,,,,,,,,,,65.97128879989032,66.02631669992115,66.02631669992115,66.71382069995161,e,1,0.6409343000268564,None,66.71413749991916,66.75916529993992,67.7406679999549,,,,,,,,,,,,,,,,,,,,,,,,,,,,,,,,,,,,,,,,,,,,,,,,,,,,,,,,,,,,,,,,,,,,,,,,,,,,,,,,1,001,2024-07-05_15h04.00.146,IAT(test05),2024.1.4,None,2024-07-05 15h04.23.275378 +0800,
,,杰出,e,,,,,,,,,0,21,21,3,,,,,,,,,,,,,,,,,,,,,67.78218069998547,,,,,,,,,,,,,,,,67.74100089992862,67.78218069998547,68.22417739999946,,,,,,,,,,,,,,,,,,,68.22419469989836,68.29931229993235,68.29931229993235,69.06732429994736,e,1,0.7208449000027031,None,69.06823069998063,69.11322139995173,70.09622789989226,,,,,,,,,,,,,,,,,,,,,,,,,,,,,,,,,,,,,,,,,,,,,,,,,,,,,,,,,,,,,,,,,,,,,,,,,,,,,,,,1,001,2024-07-05_15h04.00.146,IAT(test05),2024.1.4,None,2024-07-05 15h04.23.275378 +0800,
,,悲观,i,,,,,,,,,0,22,22,24,,,,,,,,,,,,,,,,,,,,,70.13850529992487,,,,,,,,,,,,,,,,70.09706179995555,70.13850529992487,70.58827659999952,,,,,,,,,,,,,,,,,,,70.58830179995857,70.63375299994368,70.63375299994368,71.37405849993229,e,0,0.7035070999991149,None,71.37445599993225,71.41875819989946,72.37954669992905,,,,,,,,,,,,,,,,,,,,,,,,,,,,,,,,,,,,,,,,,,,,,,,,,,,,,,,,,,,,,,,,,,,,,,,,,,,,,,,,1,001,2024-07-05_15h04.00.146,IAT(test05),2024.1.4,None,2024-07-05 15h04.23.275378 +0800,
,,乐观,e,,,,,,,,,0,23,23,4,,,,,,,,,,,,,,,,,,,,,72.42521379992831,,,,,,,,,,,,,,,,72.38022699998692,72.42521379992831,72.89374119997956,,,,,,,,,,,,,,,,,,,72.89380749990232,72.9507609999273,72.9507609999273,73.56968009995762,e,1,0.6121513000689447,None,73.57009909988847,73.60976819996722,74.57580259989481,,,,,,,,,,,,,,,,,,,,,,,,,,,,,,,,,,,,,,,,,,,,,,,,,,,,,,,,,,,,,,,,,,,,,,,,,,,,,,,,1,001,2024-07-05_15h04.00.146,IAT(test05),2024.1.4,None,2024-07-05 15h04.23.275378 +0800,
,,野蛮,i,,,,,,,,,0,24,24,36,,,,,,,,,,,,,,,,,,,,,74.59012209996581,,,,,,,,,,,,,,,,74.57616569998208,74.59012209996581,75.09711559989955,,,,,,,,,,,,,,,,,,,75.09716939995997,75.14879239990842,75.14879239990842,75.73575229989365,i,1,0.5594497000565752,None,75.73645209998358,75.78842219989747,76.78152919991408,,,,,,,,,,,,,,,,,,,,,,,,,,,,,,,,,,,,,,,,,,,,,,,,,,,,,,,,,,,,,,,,,,,,,,,,,,,,,,,,1,001,2024-07-05_15h04.00.146,IAT(test05),2024.1.4,None,2024-07-05 15h04.23.275378 +0800,
,,冒失,i,,,,,,,,,0,25,25,29,,,,,,,,,,,,,,,,,,,,,76.82947779993992,,,,,,,,,,,,,,,,76.78183149988763,76.82947779993992,77.27946409990545,,,,,,,,,,,,,,,,,,,77.27948399994057,77.33146829996258,77.33146829996258,77.98000319988932,i,1,0.6345649000722915,None,77.98031319992151,78.01531889999751,78.98451739992015,,,,,,,,,,,,,,,,,,,,,,,,,,,,,,,,,,,,,,,,,,,,,,,,,,,,,,,,,,,,,,,,,,,,,,,,,,,,,,,,1,001,2024-07-05_15h04.00.146,IAT(test05),2024.1.4,None,2024-07-05 15h04.23.275378 +0800,
,,傲慢,i,,,,,,,,,0,26,26,27,,,,,,,,,,,,,,,,,,,,,79.03087019990198,,,,,,,,,,,,,,,,78.98520239989739,79.03087019990198,79.50798519991804,,,,,,,,,,,,,,,,,,,79.50800339994021,79.54960199992638,79.54960199992638,80.08934299997054,e,0,0.49262809997890145,None,80.08997699990869,80.13519229996018,81.12231779994909,,,,,,,,,,,,,,,,,,,,,,,,,,,,,,,,,,,,,,,,,,,,,,,,,,,,,,,,,,,,,,,,,,,,,,,,,,,,,,,,1,001,2024-07-05_15h04.00.146,IAT(test05),2024.1.4,None,2024-07-05 15h04.23.275378 +0800,
,,诚实,e,,,,,,,,,0,27,27,5,,,,,,,,,,,,,,,,,,,,,81.15741999994498,,,,,,,,,,,,,,,,81.12259839999024,81.15741999994498,81.61946499999613,,,,,,,,,,,,,,,,,,,81.61949629988521,81.68345159990713,81.68345159990713,82.12209339998662,i,0,0.41724470001645386,None,82.1227932999609,82.17865219991654,83.14325819991063,,,,,,,,,,,,,,,,,,,,,,,,,,,,,,,,,,,,,,,,,,,,,,,,,,,,,,,,,,,,,,,,,,,,,,,,,,,,,,,,1,001,2024-07-05_15h04.00.146,IAT(test05),2024.1.4,None,2024-07-05 15h04.23.275378 +0800,
,,公正,e,,,,,,,,,0,28,28,13,,,,,,,,,,,,,,,,,,,,,83.19585989997722,,,,,,,,,,,,,,,,83.14368909993209,83.19585989997722,83.66488559998106,,,,,,,,,,,,,,,,,,,83.66495439992286,83.73364809993654,83.73364809993654,83.97438699996565,e,1,0.21586039999965578,None,83.97548059991095,84.01575229992159,85.00790499988943,,,,,,,,,,,,,,,,,,,,,,,,,,,,,,,,,,,,,,,,,,,,,,,,,,,,,,,,,,,,,,,,,,,,,,,,,,,,,,,,1,001,2024-07-05_15h04.00.146,IAT(test05),2024.1.4,None,2024-07-05 15h04.23.275378 +0800,
,,猖狂,i,,,,,,,,,0,29,29,35,,,,,,,,,,,,,,,,,,,,,85.05282999994233,,,,,,,,,,,,,,,,85.00829379993957,85.05282999994233,85.50958799989894,,,,,,,,,,,,,,,,,,,85.5096069999272,85.55721609992906,85.55721609992906,86.16970189998392,i,1,0.5763694999041036,None,86.17008429998532,86.20878129999619,87.20707399991807,,,,,,,,,,,,,,,,,,,,,,,,,,,,,,,,,,,,,,,,,,,,,,,,,,,,,,,,,,,,,,,,,,,,,,,,,,,,,,,,1,001,2024-07-05_15h04.00.146,IAT(test05),2024.1.4,None,2024-07-05 15h04.23.275378 +0800,
,,活泼,e,,,,,,,,,0,30,30,18,,,,,,,,,,,,,,,,,,,,,87.24711319990456,,,,,,,,,,,,,,,,87.2074443999445,87.24711319990456,87.70879039994907,,,,,,,,,,,,,,,,,,,87.70884629990906,87.78000309993513,87.78000309993513,88.39497669995762,e,1,0.5716650999384001,None,88.39529949997086,88.43895999994129,89.40324629994575,,,,,,,,,,,,,,,,,,,,,,,,,,,,,,,,,,,,,,,,,,,,,,,,,,,,,,,,,,,,,,,,,,,,,,,,,,,,,,,,1,001,2024-07-05_15h04.00.146,IAT(test05),2024.1.4,None,2024-07-05 15h04.23.275378 +0800,
,,朴实,e,,,,,,,,,0,31,31,14,,,,,,,,,,,,,,,,,,,,,89.45566549990326,,,,,,,,,,,,,,,,89.40370969998185,89.45566549990326,89.92537249997258,,,,,,,,,,,,,,,,,,,89.92542439990211,89.97440279996954,89.97440279996954,90.78358849999495,i,0,0.7976002000505105,None,90.78415379999205,90.83120479993522,91.79363609990105,,,,,,,,,,,,,,,,,,,,,,,,,,,,,,,,,,,,,,,,,,,,,,,,,,,,,,,,,,,,,,,,,,,,,,,,,,,,,,,,1,001,2024-07-05_15h04.00.146,IAT(test05),2024.1.4,None,2024-07-05 15h04.23.275378 +0800,
,,散漫,i,,,,,,,,,0,32,32,31,,,,,,,,,,,,,,,,,,,,,91.83337859995663,,,,,,,,,,,,,,,,91.7940325998934,91.83337859995663,92.33699229999911,,,,,,,,,,,,,,,,,,,92.33701059990562,92.38139339990448,92.38139339990448,93.00626759999432,e,0,0.5994801000924781,None,93.00660749990493,93.04956069996115,94.02257519995328,,,,,,,,,,,,,,,,,,,,,,,,,,,,,,,,,,,,,,,,,,,,,,,,,,,,,,,,,,,,,,,,,,,,,,,,,,,,,,,,1,001,2024-07-05_15h04.00.146,IAT(test05),2024.1.4,None,2024-07-05 15h04.23.275378 +0800,
,,愚蠢,i,,,,,,,,,0,33,33,22,,,,,,,,,,,,,,,,,,,,,94.07045559992548,,,,,,,,,,,,,,,,94.02287409990095,94.07045559992548,94.50705799995922,,,,,,,,,,,,,,,,,,,94.5070758999791,94.53983889997471,94.53983889997471,94.87280369992368,i,1,0.2884310999652371,None,94.87366889999248,94.92875179997645,95.91100159997586,,,,,,,,,,,,,,,,,,,,,,,,,,,,,,,,,,,,,,,,,,,,,,,,,,,,,,,,,,,,,,,,,,,,,,,,,,,,,,,,1,001,2024-07-05_15h04.00.146,IAT(test05),2024.1.4,None,2024-07-05 15h04.23.275378 +0800,
,,正直,e,,,,,,,,,0,34,34,6,,,,,,,,,,,,,,,,,,,,,95.96182719990611,,,,,,,,,,,,,,,,95.91170129994862,95.96182719990611,96.40038149990141,,,,,,,,,,,,,,,,,,,96.40041139989626,96.44214599998668,96.44214599998668,96.90618949988857,e,1,0.4135370999574661,None,96.90694649994839,96.95673739991616,97.92349609988742,,,,,,,,,,,,,,,,,,,,,,,,,,,,,,,,,,,,,,,,,,,,,,,,,,,,,,,,,,,,,,,,,,,,,,,,,,,,,,,,1,001,2024-07-05_15h04.00.146,IAT(test05),2024.1.4,None,2024-07-05 15h04.23.275378 +0800,
,,卑鄙,i,,,,,,,,,0,35,35,20,,,,,,,,,,,,,,,,,,,,,97.94040119997226,,,,,,,,,,,,,,,,97.92450259998441,97.94040119997226,98.42043959989678,,,,,,,,,,,,,,,,,,,98.42047349992208,98.49754159990698,98.49754159990698,99.04119849996641,i,1,0.5060893000336364,None,99.041826199973,99.08348959998693,100.0899303999031,,,,,,,,,,,,,,,,,,,,,,,,,,,,,,,,,,,,,,,,,,,,,,,,,,,,,,,,,,,,,,,,,,,,,,,,,,,,,,,,1,001,2024-07-05_15h04.00.146,IAT(test05),2024.1.4,None,2024-07-05 15h04.23.275378 +0800,
,,刻薄,i,,,,,,,,,0,36,36,23,,,,,,,,,,,,,,,,,,,,,100.10473229992203,,,,,,,,,,,,,,,,100.09057039988693,100.10473229992203,100.5866525999736,,,,,,,,,,,,,,,,,,,100.58670969994273,100.65848319989163,100.65848319989163,101.25851109996438,e,0,0.589791499893181,None,101.25887109991163,101.3082785999868,102.30351549992338,,,,,,,,,,,,,,,,,,,,,,,,,,,,,,,,,,,,,,,,,,,,,,,,,,,,,,,,,,,,,,,,,,,,,,,,,,,,,,,,1,001,2024-07-05_15h04.00.146,IAT(test05),2024.1.4,None,2024-07-05 15h04.23.275378 +0800,
,,热情,e,,,,,,,,,0,37,37,17,,,,,,,,,,,,,,,,,,,,,102.33756389992777,,,,,,,,,,,,,,,,102.3038530999329,102.33756389992777,102.77312879997771,,,,,,,,,,,,,,,,,,,102.7731525999261,102.82296379993204,102.82296379993204,103.47325949999504,i,0,0.6124803000129759,None,103.47407829994336,103.53024219989311,104.51649139996152,,,,,,,,,,,,,,,,,,,,,,,,,,,,,,,,,,,,,,,,,,,,,,,,,,,,,,,,,,,,,,,,,,,,,,,,,,,,,,,,1,001,2024-07-05_15h04.00.146,IAT(test05),2024.1.4,None,2024-07-05 15h04.23.275378 +0800,
,,勇敢,e,,,,,,,,,0,38,38,7,,,,,,,,,,,,,,,,,,,,,104.55785749992356,,,,,,,,,,,,,,,,104.5169246000005,104.55785749992356,105.02378369995859,,,,,,,,,,,,,,,,,,,105.02379819995258,105.06443219992798,105.06443219992798,105.11512419988867,i,0,0.041498999926261604,None,105.1157626999775,105.15741189999972,106.12720609991811,,,,,,,,,,,,,,,,,,,,,,,,,,,,,,,,,,,,,,,,,,,,,,,,,,,,,,,,,,,,,,,,,,,,,,,,,,,,,,,,1,001,2024-07-05_15h04.00.146,IAT(test05),2024.1.4,None,2024-07-05 15h04.23.275378 +0800,
,,勤奋,e,,,,,,,,,0,39,39,8,,,,,,,,,,,,,,,,,,,,,106.15908669994678,,,,,,,,,,,,,,,,106.1274795999052,106.15908669994678,106.61633669992443,,,,,,,,,,,,,,,,,,,106.61640539998189,106.66572329995688,106.66572329995688,107.16785289999098,e,1,0.49190159991849214,None,107.16866179998033,107.19773279991932,108.17059389990754,,,,,,,,,,,,,,,,,,,,,,,,,,,,,,,,,,,,,,,,,,,,,,,,,,,,,,,,,,,,,,,,,,,,,,,,,,,,,,,,1,001,2024-07-05_15h04.00.146,IAT(test05),2024.1.4,None,2024-07-05 15h04.23.275378 +0800,
,,,,,,,,,,,,,,,,,,,,,,,,,,,,,,,,,,,,,,,,,,,,,,,,,,,,,,,,,,,,,,,,,,,,,,,,,,,,,,,,,,,,108.17067599995062,108.20656899991445,108.20656899991445,110.51761699991766,space,2.2805683999322355,None,,,,,,,,,,,,,,,,,,,,,,,,,,,,,,,,,,,,,,,,,,,,,,,,,,,,,,,,,,,,,,,,,,,,,,,,,1,001,2024-07-05_15h04.00.146,IAT(test05),2024.1.4,None,2024-07-05 15h04.23.275378 +0800,
,,,,俺,e,,,,,,,,,,,0,0,0,4,,,,,,,,,,,,,,,,,110.59778199996799,,,,,,,,,,,,,,,,110.5484588999534,110.59778199996799,111.02778799994849,,,,,,,,,,,,,,,,,,,,,,,,,,,,,,,,,,,,,111.02783519995864,111.08352919993922,111.08352919993922,111.56482529989444,e,1,0.46659109997563064,None,111.56546519999392,111.61004929989576,112.57567169994581,,,,,,,,,,,,,,,,,,,,,,,,,,,,,,,,,,,,,,,,,,,,,,,,,,,,,,,,,,,,,,1,001,2024-07-05_15h04.00.146,IAT(test05),2024.1.4,None,2024-07-05 15h04.23.275378 +0800,
,,,,朴实,e,,,,,,,,,,,0,1,1,24,,,,,,,,,,,,,,,,,112.59358989994507,,,,,,,,,,,,,,,,112.57621159998234,112.59358989994507,113.10751069989055,,,,,,,,,,,,,,,,,,,,,,,,,,,,,,,,,,,,,113.10756249993574,113.1393504999578,113.1393504999578,113.83433539990801,i,0,0.6696419999934733,None,113.83541749999858,113.87808699999005,114.88270809990354,,,,,,,,,,,,,,,,,,,,,,,,,,,,,,,,,,,,,,,,,,,,,,,,,,,,,,,,,,,,,,1,001,2024-07-05_15h04.00.146,IAT(test05),2024.1.4,None,2024-07-05 15h04.23.275378 +0800,
,,,,执拗,i,,,,,,,,,,,0,2,2,40,,,,,,,,,,,,,,,,,114.92902839998715,,,,,,,,,,,,,,,,114.8831218999112,114.92902839998715,115.34929269994609,,,,,,,,,,,,,,,,,,,,,,,,,,,,,,,,,,,,,115.34934489999432,115.40455799992196,115.40455799992196,115.82131489994936,e,0,0.3816853000316769,None,115.82197889999952,115.86593309999444,116.82879569998477,,,,,,,,,,,,,,,,,,,,,,,,,,,,,,,,,,,,,,,,,,,,,,,,,,,,,,,,,,,,,,1,001,2024-07-05_15h04.00.146,IAT(test05),2024.1.4,None,2024-07-05 15h04.23.275378 +0800,
,,,,散漫,i,,,,,,,,,,,0,3,3,41,,,,,,,,,,,,,,,,,116.84108689997811,,,,,,,,,,,,,,,,116.8291290999623,116.84108689997811,117.3569488999201,,,,,,,,,,,,,,,,,,,,,,,,,,,,,,,,,,,,,117.35696399991866,117.39930919988547,117.39930919988547,118.2167722999584,i,1,0.7691795999417081,None,118.2175028999336,118.26424329995643,119.2328704999527,,,,,,,,,,,,,,,,,,,,,,,,,,,,,,,,,,,,,,,,,,,,,,,,,,,,,,,,,,,,,,1,001,2024-07-05_15h04.00.146,IAT(test05),2024.1.4,None,2024-07-05 15h04.23.275378 +0800,
,,,,认真,e,,,,,,,,,,,0,4,4,20,,,,,,,,,,,,,,,,,119.27271659998223,,,,,,,,,,,,,,,,119.23328039993066,119.27271659998223,119.75332869996782,,,,,,,,,,,,,,,,,,,,,,,,,,,,,,,,,,,,,119.75335919996724,119.79607079993002,119.79607079993002,120.3015591999283,e,1,0.4605925999348983,None,120.30259839992505,120.34759449993726,121.31608249992132,,,,,,,,,,,,,,,,,,,,,,,,,,,,,,,,,,,,,,,,,,,,,,,,,,,,,,,,,,,,,,1,001,2024-07-05_15h04.00.146,IAT(test05),2024.1.4,None,2024-07-05 15h04.23.275378 +0800,
,,,,固执,i,,,,,,,,,,,0,5,5,47,,,,,,,,,,,,,,,,,121.35593389999121,,,,,,,,,,,,,,,,121.31650359998457,121.35593389999121,121.83215369994286,,,,,,,,,,,,,,,,,,,,,,,,,,,,,,,,,,,,,121.83219529991038,121.87522009992972,121.87522009992972,122.68862299993634,i,1,0.7679002999793738,None,122.68925489997491,122.72953129990492,123.71638369990978,,,,,,,,,,,,,,,,,,,,,,,,,,,,,,,,,,,,,,,,,,,,,,,,,,,,,,,,,,,,,,1,001,2024-07-05_15h04.00.146,IAT(test05),2024.1.4,None,2024-07-05 15h04.23.275378 +0800,
,,,,崇高,e,,,,,,,,,,,0,6,6,11,,,,,,,,,,,,,,,,,123.76271219993941,,,,,,,,,,,,,,,,123.7169173998991,123.76271219993941,124.20906509994529,,,,,,,,,,,,,,,,,,,,,,,,,,,,,,,,,,,,,124.20908159995452,124.24903089995496,124.24903089995496,124.89974259992596,e,1,0.6151186999632046,None,124.90038519992959,124.94616299995687,125.90126549999695,,,,,,,,,,,,,,,,,,,,,,,,,,,,,,,,,,,,,,,,,,,,,,,,,,,,,,,,,,,,,,1,001,2024-07-05_15h04.00.146,IAT(test05),2024.1.4,None,2024-07-05 15h04.23.275378 +0800,
,,,,轻率,i,,,,,,,,,,,0,7,7,48,,,,,,,,,,,,,,,,,125.94257229997311,,,,,,,,,,,,,,,,125.90202169993427,125.94257229997311,126.41859139990993,,,,,,,,,,,,,,,,,,,,,,,,,,,,,,,,,,,,,126.41863669990562,126.46293289994355,126.46293289994355,127.40587629994843,i,1,0.909402700024657,None,127.40702779998537,127.45383409992792,128.44233149988577,,,,,,,,,,,,,,,,,,,,,,,,,,,,,,,,,,,,,,,,,,,,,,,,,,,,,,,,,,,,,,1,001,2024-07-05_15h04.00.146,IAT(test05),2024.1.4,None,2024-07-05 15h04.23.275378 +0800,
,,,,消极,i,,,,,,,,,,,0,8,8,35,,,,,,,,,,,,,,,,,128.46437859989237,,,,,,,,,,,,,,,,128.44288779993076,128.46437859989237,128.90875139995478,,,,,,,,,,,,,,,,,,,,,,,,,,,,,,,,,,,,,128.90876899997238,128.94842449994758,128.94842449994758,129.7528645999264,i,1,0.7906400000210851,None,129.75348639988806,129.80120719992556,130.78469889995176,,,,,,,,,,,,,,,,,,,,,,,,,,,,,,,,,,,,,,,,,,,,,,,,,,,,,,,,,,,,,,1,001,2024-07-05_15h04.00.146,IAT(test05),2024.1.4,None,2024-07-05 15h04.23.275378 +0800,
,,,,优秀,e,,,,,,,,,,,0,9,9,10,,,,,,,,,,,,,,,,,130.80024139990564,,,,,,,,,,,,,,,,130.7855372999329,130.80024139990564,131.26900849991944,,,,,,,,,,,,,,,,,,,,,,,,,,,,,,,,,,,,,131.2690339999972,131.3131172999274,131.3131172999274,131.8556210999377,e,1,0.5370441999984905,None,131.8559682999039,131.89207449997775,132.89974679995794,,,,,,,,,,,,,,,,,,,,,,,,,,,,,,,,,,,,,,,,,,,,,,,,,,,,,,,,,,,,,,1,001,2024-07-05_15h04.00.146,IAT(test05),2024.1.4,None,2024-07-05 15h04.23.275378 +0800,
,,,,他,i,,,,,,,,,,,0,10,10,5,,,,,,,,,,,,,,,,,132.94434499996714,,,,,,,,,,,,,,,,132.90042799990624,132.94434499996714,133.38906699989457,,,,,,,,,,,,,,,,,,,,,,,,,,,,,,,,,,,,,133.3891098999884,133.41104579996318,133.41104579996318,134.08965599990916,i,1,0.6368190998909995,None,134.0904506999068,134.1272795998957,135.13668879994657,,,,,,,,,,,,,,,,,,,,,,,,,,,,,,,,,,,,,,,,,,,,,,,,,,,,,,,,,,,,,,1,001,2024-07-05_15h04.00.146,IAT(test05),2024.1.4,None,2024-07-05 15h04.23.275378 +0800,
,,,,杰出,e,,,,,,,,,,,0,11,11,13,,,,,,,,,,,,,,,,,135.18878699990455,,,,,,,,,,,,,,,,135.1370182998944,135.18878699990455,135.60609989997465,,,,,,,,,,,,,,,,,,,,,,,,,,,,,,,,,,,,,135.6061563999392,135.64560920000076,135.64560920000076,136.6588315999834,i,0,0.9707752999383956,None,136.6592193999095,136.70644529990386,137.67698109999765,,,,,,,,,,,,,,,,,,,,,,,,,,,,,,,,,,,,,,,,,,,,,,,,,,,,,,,,,,,,,,1,001,2024-07-05_15h04.00.146,IAT(test05),2024.1.4,None,2024-07-05 15h04.23.275378 +0800,
,,,,稳重,e,,,,,,,,,,,0,12,12,21,,,,,,,,,,,,,,,,,137.71517989994027,,,,,,,,,,,,,,,,137.67722019995563,137.71517989994027,138.20398179988842,,,,,,,,,,,,,,,,,,,,,,,,,,,,,,,,,,,,,138.2040061999578,138.2474527999293,138.2474527999293,138.9741653999081,i,0,0.6716323000146076,None,138.9745386999566,139.03056069999002,139.98764099995606,,,,,,,,,,,,,,,,,,,,,,,,,,,,,,,,,,,,,,,,,,,,,,,,,,,,,,,,,,,,,,1,001,2024-07-05_15h04.00.146,IAT(test05),2024.1.4,None,2024-07-05 15h04.23.275378 +0800,
,,,,活泼,e,,,,,,,,,,,0,13,13,28,,,,,,,,,,,,,,,,,140.03855169995222,,,,,,,,,,,,,,,,139.98802679998334,140.03855169995222,140.4845930999145,,,,,,,,,,,,,,,,,,,,,,,,,,,,,,,,,,,,,140.4846318999771,140.50136519991793,140.50136519991793,141.11927989998367,e,1,0.5787645999807864,None,141.11969269998372,141.17317059997004,142.13585889991373,,,,,,,,,,,,,,,,,,,,,,,,,,,,,,,,,,,,,,,,,,,,,,,,,,,,,,,,,,,,,,1,001,2024-07-05_15h04.00.146,IAT(test05),2024.1.4,None,2024-07-05 15h04.23.275378 +0800,
,,,,傲慢,i,,,,,,,,,,,0,14,14,37,,,,,,,,,,,,,,,,,142.1572928999085,,,,,,,,,,,,,,,,142.13642879994586,142.1572928999085,142.62940959993284,,,,,,,,,,,,,,,,,,,,,,,,,,,,,,,,,,,,,142.62944159994368,142.68682049994823,142.68682049994823,143.29363639990333,i,1,0.580876599997282,None,143.29395119997207,143.34466309996787,144.296357999905,,,,,,,,,,,,,,,,,,,,,,,,,,,,,,,,,,,,,,,,,,,,,,,,,,,,,,,,,,,,,,1,001,2024-07-05_15h04.00.146,IAT(test05),2024.1.4,None,2024-07-05 15h04.23.275378 +0800,
,,,,自卑,i,,,,,,,,,,,0,15,15,36,,,,,,,,,,,,,,,,,144.34280209999997,,,,,,,,,,,,,,,,144.29715369991027,144.34280209999997,144.81829979992472,,,,,,,,,,,,,,,,,,,,,,,,,,,,,,,,,,,,,144.81832819990814,144.86356559989508,144.86356559989508,145.2002508000005,i,1,0.29007710004225373,None,145.20100699993782,145.24426189996302,146.20526419999078,,,,,,,,,,,,,,,,,,,,,,,,,,,,,,,,,,,,,,,,,,,,,,,,,,,,,,,,,,,,,,1,001,2024-07-05_15h04.00.146,IAT(test05),2024.1.4,None,2024-07-05 15h04.23.275378 +0800,
,,,,我,e,,,,,,,,,,,0,16,16,0,,,,,,,,,,,,,,,,,146.25496459996793,,,,,,,,,,,,,,,,146.2058340999065,146.25496459996793,146.73495879990514,,,,,,,,,,,,,,,,,,,,,,,,,,,,,,,,,,,,,146.73500969994348,146.78022219997365,146.78022219997365,147.10149139992427,i,0,0.28382600005716085,None,147.10242759995162,147.1456131999148,148.12851059995592,,,,,,,,,,,,,,,,,,,,,,,,,,,,,,,,,,,,,,,,,,,,,,,,,,,,,,,,,,,,,,1,001,2024-07-05_15h04.00.146,IAT(test05),2024.1.4,None,2024-07-05 15h04.23.275378 +0800,
,,,,我们,e,,,,,,,,,,,0,17,17,2,,,,,,,,,,,,,,,,,148.17506009992212,,,,,,,,,,,,,,,,148.1296748999739,148.17506009992212,148.65405139990617,,,,,,,,,,,,,,,,,,,,,,,,,,,,,,,,,,,,,148.65407689998392,148.7104678999167,148.7104678999167,149.24567219999153,e,1,0.4723439000081271,None,149.24641259992495,149.29257629998028,150.26651879993733,,,,,,,,,,,,,,,,,,,,,,,,,,,,,,,,,,,,,,,,,,,,,,,,,,,,,,,,,,,,,,1,001,2024-07-05_15h04.00.146,IAT(test05),2024.1.4,None,2024-07-05 15h04.23.275378 +0800,
,,,,其他,i,,,,,,,,,,,0,18,18,9,,,,,,,,,,,,,,,,,150.28462399996351,,,,,,,,,,,,,,,,150.26735859992914,150.28462399996351,150.76560439995956,,,,,,,,,,,,,,,,,,,,,,,,,,,,,,,,,,,,,150.76564899994992,150.81216599990148,150.81216599990148,151.30967929994222,i,1,0.4481012000469491,None,151.30999919993337,151.35493619996123,152.3156157999765,,,,,,,,,,,,,,,,,,,,,,,,,,,,,,,,,,,,,,,,,,,,,,,,,,,,,,,,,,,,,,1,001,2024-07-05_15h04.00.146,IAT(test05),2024.1.4,None,2024-07-05 15h04.23.275378 +0800,
,,,,诚恳,e,,,,,,,,,,,0,19,19,29,,,,,,,,,,,,,,,,,152.34406529995613,,,,,,,,,,,,,,,,152.31613259995356,152.34406529995613,152.85788379993755,,,,,,,,,,,,,,,,,,,,,,,,,,,,,,,,,,,,,152.85790089995135,152.90892219997477,152.90892219997477,153.69060319999699,i,0,0.7598909999942407,None,153.69117559993174,153.74199819995556,154.71224929997697,,,,,,,,,,,,,,,,,,,,,,,,,,,,,,,,,,,,,,,,,,,,,,,,,,,,,,,,,,,,,,1,001,2024-07-05_15h04.00.146,IAT(test05),2024.1.4,None,2024-07-05 15h04.23.275378 +0800,
,,,,公正,e,,,,,,,,,,,0,20,20,23,,,,,,,,,,,,,,,,,154.74806969997007,,,,,,,,,,,,,,,,154.7127148999134,154.74806969997007,155.20025759993587,,,,,,,,,,,,,,,,,,,,,,,,,,,,,,,,,,,,,155.20027939998545,155.2500100999605,155.2500100999605,155.68415219988674,e,1,0.42472480004653335,None,155.68459669989534,155.7234701999696,156.7007878998993,,,,,,,,,,,,,,,,,,,,,,,,,,,,,,,,,,,,,,,,,,,,,,,,,,,,,,,,,,,,,,1,001,2024-07-05_15h04.00.146,IAT(test05),2024.1.4,None,2024-07-05 15h04.23.275378 +0800,
,,,,乐观,e,,,,,,,,,,,0,21,21,14,,,,,,,,,,,,,,,,,156.71580859995447,,,,,,,,,,,,,,,,156.70147939992603,156.71580859995447,157.20974209997803,,,,,,,,,,,,,,,,,,,,,,,,,,,,,,,,,,,,,157.20980339997914,157.25718599988613,157.25718599988613,157.86944709997624,i,0,0.5813711000373587,None,157.87017519993242,157.93660409993026,158.8886265999172,,,,,,,,,,,,,,,,,,,,,,,,,,,,,,,,,,,,,,,,,,,,,,,,,,,,,,,,,,,,,,1,001,2024-07-05_15h04.00.146,IAT(test05),2024.1.4,None,2024-07-05 15h04.23.275378 +0800,
,,,,聪明,e,,,,,,,,,,,0,22,22,12,,,,,,,,,,,,,,,,,158.9241773999529,,,,,,,,,,,,,,,,158.8893540999852,158.9241773999529,159.38060029991902,,,,,,,,,,,,,,,,,,,,,,,,,,,,,,,,,,,,,159.38065539998934,159.41617949993815,159.41617949993815,160.00514739996288,i,0,0.5743983000284061,None,160.00552059989423,160.04856999998447,161.01404379995074,,,,,,,,,,,,,,,,,,,,,,,,,,,,,,,,,,,,,,,,,,,,,,,,,,,,,,,,,,,,,,1,001,2024-07-05_15h04.00.146,IAT(test05),2024.1.4,None,2024-07-05 15h04.23.275378 +0800,
,,,,勤奋,e,,,,,,,,,,,0,23,23,18,,,,,,,,,,,,,,,,,161.0660437999759,,,,,,,,,,,,,,,,161.01446089998353,161.0660437999759,161.54499179997947,,,,,,,,,,,,,,,,,,,,,,,,,,,,,,,,,,,,,161.5450413998915,161.58952969999518,161.58952969999518,161.80937319993973,e,1,0.2066006000386551,None,161.80965499999002,161.84149159991648,162.81940659997053,,,,,,,,,,,,,,,,,,,,,,,,,,,,,,,,,,,,,,,,,,,,,,,,,,,,,,,,,,,,,,1,001,2024-07-05_15h04.00.146,IAT(test05),2024.1.4,None,2024-07-05 15h04.23.275378 +0800,
,,,,猖狂,i,,,,,,,,,,,0,24,24,45,,,,,,,,,,,,,,,,,162.85998939990532,,,,,,,,,,,,,,,,162.81974499998614,162.85998939990532,163.36512139998376,,,,,,,,,,,,,,,,,,,,,,,,,,,,,,,,,,,,,163.36517759994604,163.42668589996174,163.42668589996174,163.9358409999404,i,1,0.480075899977237,None,163.93634429993108,164.00144639995415,164.9791825999273,,,,,,,,,,,,,,,,,,,,,,,,,,,,,,,,,,,,,,,,,,,,,,,,,,,,,,,,,,,,,,1,001,2024-07-05_15h04.00.146,IAT(test05),2024.1.4,None,2024-07-05 15h04.23.275378 +0800,
,,,,机智,e,,,,,,,,,,,0,25,25,19,,,,,,,,,,,,,,,,,165.0242449999787,,,,,,,,,,,,,,,,164.9796630999772,165.0242449999787,165.46838999993633,,,,,,,,,,,,,,,,,,,,,,,,,,,,,,,,,,,,,165.46843679994345,165.51774609996937,165.51774609996937,166.0525089999428,i,0,0.5107945000054315,None,166.053254099912,166.10752829990815,167.08720559999347,,,,,,,,,,,,,,,,,,,,,,,,,,,,,,,,,,,,,,,,,,,,,,,,,,,,,,,,,,,,,,1,001,2024-07-05_15h04.00.146,IAT(test05),2024.1.4,None,2024-07-05 15h04.23.275378 +0800,
,,,,鲁莽,i,,,,,,,,,,,0,26,26,38,,,,,,,,,,,,,,,,,167.10852679994423,,,,,,,,,,,,,,,,167.08759159990586,167.10852679994423,167.56709019991104,,,,,,,,,,,,,,,,,,,,,,,,,,,,,,,,,,,,,167.56711339997128,167.6117839999497,167.6117839999497,168.28338779998012,i,1,0.6530057999771088,None,168.28386659990065,168.3376486999914,169.3335866999114,,,,,,,,,,,,,,,,,,,,,,,,,,,,,,,,,,,,,,,,,,,,,,,,,,,,,,,,,,,,,,1,001,2024-07-05_15h04.00.146,IAT(test05),2024.1.4,None,2024-07-05 15h04.23.275378 +0800,
,,,,刻薄,i,,,,,,,,,,,0,27,27,33,,,,,,,,,,,,,,,,,169.3755608999636,,,,,,,,,,,,,,,,169.33438919996843,169.3755608999636,169.80132489989046,,,,,,,,,,,,,,,,,,,,,,,,,,,,,,,,,,,,,169.80134899995755,169.84190669993404,169.84190669993404,170.31857139989734,e,0,0.4333385999780148,None,170.31925149995368,170.36998889991082,171.3352652998874,,,,,,,,,,,,,,,,,,,,,,,,,,,,,,,,,,,,,,,,,,,,,,,,,,,,,,,,,,,,,,1,001,2024-07-05_15h04.00.146,IAT(test05),2024.1.4,None,2024-07-05 15h04.23.275378 +0800,
,,,,他的,i,,,,,,,,,,,0,28,28,7,,,,,,,,,,,,,,,,,171.3757251999341,,,,,,,,,,,,,,,,171.33581429999322,171.3757251999341,171.82458659994882,,,,,,,,,,,,,,,,,,,,,,,,,,,,,,,,,,,,,171.82464439992327,171.8796963999048,171.8796963999048,172.09499769995455,i,1,0.19931830000132322,None,172.09586449991912,172.12788879999425,173.14855739998166,,,,,,,,,,,,,,,,,,,,,,,,,,,,,,,,,,,,,,,,,,,,,,,,,,,,,,,,,,,,,,1,001,2024-07-05_15h04.00.146,IAT(test05),2024.1.4,None,2024-07-05 15h04.23.275378 +0800,
,,,,正直,e,,,,,,,,,,,0,29,29,16,,,,,,,,,,,,,,,,,173.19627570000011,,,,,,,,,,,,,,,,173.14923069998622,173.19627570000011,173.6488762999652,,,,,,,,,,,,,,,,,,,,,,,,,,,,,,,,,,,,,173.64889999991283,173.69729179993737,173.69729179993737,173.90508709999267,i,0,0.20039429992903024,None,173.9055855999468,173.9705382999964,174.92869739991147,,,,,,,,,,,,,,,,,,,,,,,,,,,,,,,,,,,,,,,,,,,,,,,,,,,,,,,,,,,,,,1,001,2024-07-05_15h04.00.146,IAT(test05),2024.1.4,None,2024-07-05 15h04.23.275378 +0800,
,,,,诚实,e,,,,,,,,,,,0,30,30,15,,,,,,,,,,,,,,,,,174.9634928999003,,,,,,,,,,,,,,,,174.92917789996136,174.9634928999003,175.42526539997198,,,,,,,,,,,,,,,,,,,,,,,,,,,,,,,,,,,,,175.42532609996852,175.4623296998907,175.4623296998907,176.89699839998502,i,0,1.424422400072217,None,176.89758279989474,176.94497009995393,177.91586419998202,,,,,,,,,,,,,,,,,,,,,,,,,,,,,,,,,,,,,,,,,,,,,,,,,,,,,,,,,,,,,,1,001,2024-07-05_15h04.00.146,IAT(test05),2024.1.4,None,2024-07-05 15h04.23.275378 +0800,
,,,,下贱,i,,,,,,,,,,,0,31,31,49,,,,,,,,,,,,,,,,,177.96326799993403,,,,,,,,,,,,,,,,177.9168067999417,177.96326799993403,178.42905189993326,,,,,,,,,,,,,,,,,,,,,,,,,,,,,,,,,,,,,178.42908429994714,178.47872069990262,178.47872069990262,179.90996669989545,None,0,,,179.9103988999268,179.94963029993232,180.9106622999534,,,,,,,,,,,,,,,,,,,,,,,,,,,,,,,,,,,,,,,,,,,,,,,,,,,,,,,,,,,,,,1,001,2024-07-05_15h04.00.146,IAT(test05),2024.1.4,None,2024-07-05 15h04.23.275378 +0800,
,,,,悲观,i,,,,,,,,,,,0,32,32,34,,,,,,,,,,,,,,,,,180.9524781999644,,,,,,,,,,,,,,,,180.91111749992706,180.9524781999644,181.4091921999352,,,,,,,,,,,,,,,,,,,,,,,,,,,,,,,,,,,,,181.40927699999884,181.47475959989242,181.47475959989242,182.28724979993422,i,1,0.8012213000329211,None,182.28772109991405,182.35327490000054,183.288818199886,,,,,,,,,,,,,,,,,,,,,,,,,,,,,,,,,,,,,,,,,,,,,,,,,,,,,,,,,,,,,,1,001,2024-07-05_15h04.00.146,IAT(test05),2024.1.4,None,2024-07-05 15h04.23.275378 +0800,
,,,,冒失,i,,,,,,,,,,,0,33,33,39,,,,,,,,,,,,,,,,,183.31395389989484,,,,,,,,,,,,,,,,183.28959770000074,183.31395389989484,183.82426419993863,,,,,,,,,,,,,,,,,,,,,,,,,,,,,,,,,,,,,183.82428899989463,183.86536739999428,183.86536739999428,184.11842099996284,i,1,0.24194490001536906,None,184.11912599997595,184.16544569993857,185.12020639993716,,,,,,,,,,,,,,,,,,,,,,,,,,,,,,,,,,,,,,,,,,,,,,,,,,,,,,,,,,,,,,1,001,2024-07-05_15h04.00.146,IAT(test05),2024.1.4,None,2024-07-05 15h04.23.275378 +0800,
,,,,无私,e,,,,,,,,,,,0,34,34,22,,,,,,,,,,,,,,,,,185.14982749999035,,,,,,,,,,,,,,,,185.12050499999896,185.14982749999035,185.62905949994456,,,,,,,,,,,,,,,,,,,,,,,,,,,,,,,,,,,,,185.62908210000023,185.682777699898,185.682777699898,185.90876799996477,i,0,0.2004074000287801,None,185.9091489999555,185.9683791999705,186.9412990999408,,,,,,,,,,,,,,,,,,,,,,,,,,,,,,,,,,,,,,,,,,,,,,,,,,,,,,,,,,,,,,1,001,2024-07-05_15h04.00.146,IAT(test05),2024.1.4,None,2024-07-05 15h04.23.275378 +0800,
,,,,野蛮,i,,,,,,,,,,,0,35,35,46,,,,,,,,,,,,,,,,,186.99119479989167,,,,,,,,,,,,,,,,186.94182399997953,186.99119479989167,187.42769939999562,,,,,,,,,,,,,,,,,,,,,,,,,,,,,,,,,,,,,187.4277187999105,187.4757055999944,187.4757055999944,187.4826311999932,i,1,1.7274831000249833,None,187.48316659999546,187.5233701999532,188.5236239999067,,,,,,,,,,,,,,,,,,,,,,,,,,,,,,,,,,,,,,,,,,,,,,,,,,,,,,,,,,,,,,1,001,2024-07-05_15h04.00.146,IAT(test05),2024.1.4,None,2024-07-05 15h04.23.275378 +0800,
,,,,冷静,e,,,,,,,,,,,0,36,36,26,,,,,,,,,,,,,,,,,188.56670949992258,,,,,,,,,,,,,,,,188.52418789989315,188.56670949992258,188.99586929997895,,,,,,,,,,,,,,,,,,,,,,,,,,,,,,,,,,,,,188.99589909997303,189.06222439999692,189.06222439999692,189.7103043999523,i,0,0.6328722999896854,None,189.7109446999384,189.7600017999066,190.72567859990522,,,,,,,,,,,,,,,,,,,,,,,,,,,,,,,,,,,,,,,,,,,,,,,,,,,,,,,,,,,,,,1,001,2024-07-05_15h04.00.146,IAT(test05),2024.1.4,None,2024-07-05 15h04.23.275378 +0800,
,,,,凶狠,i,,,,,,,,,,,0,37,37,42,,,,,,,,,,,,,,,,,190.76853989996016,,,,,,,,,,,,,,,,190.72595259989612,190.76853989996016,191.2605373999104,,,,,,,,,,,,,,,,,,,,,,,,,,,,,,,,,,,,,191.26059089996852,191.3138561999658,191.3138561999658,191.69479209999554,i,1,0.3701115999137983,None,191.6957093999954,191.7381637999788,192.72982719994616,,,,,,,,,,,,,,,,,,,,,,,,,,,,,,,,,,,,,,,,,,,,,,,,,,,,,,,,,,,,,,1,001,2024-07-05_15h04.00.146,IAT(test05),2024.1.4,None,2024-07-05 15h04.23.275378 +0800,
,,,,他人,i,,,,,,,,,,,0,38,38,8,,,,,,,,,,,,,,,,,192.7813474999275,,,,,,,,,,,,,,,,192.73009579989593,192.7813474999275,193.20139339996967,,,,,,,,,,,,,,,,,,,,,,,,,,,,,,,,,,,,,193.20144979993347,193.24530629999936,193.24530629999936,194.73602630000096,None,0,,,194.7364876999054,194.79453829990234,195.73325219994877,,,,,,,,,,,,,,,,,,,,,,,,,,,,,,,,,,,,,,,,,,,,,,,,,,,,,,,,,,,,,,1,001,2024-07-05_15h04.00.146,IAT(test05),2024.1.4,None,2024-07-05 15h04.23.275378 +0800,
,,,,虚伪,i,,,,,,,,,,,0,39,39,31,,,,,,,,,,,,,,,,,195.75737709994428,,,,,,,,,,,,,,,,195.733727099956,195.75737709994428,196.196540899924,,,,,,,,,,,,,,,,,,,,,,,,,,,,,,,,,,,,,196.19657629996073,196.25411599990912,196.25411599990912,197.71046589990146,None,0,,,197.71082299994305,197.72965249989647,198.7340253998991,,,,,,,,,,,,,,,,,,,,,,,,,,,,,,,,,,,,,,,,,,,,,,,,,,,,,,,,,,,,,,1,001,2024-07-05_15h04.00.146,IAT(test05),2024.1.4,None,2024-07-05 15h04.23.275378 +0800,
,,,,卑鄙,i,,,,,,,,,,,0,40,40,30,,,,,,,,,,,,,,,,,198.79996429989114,,,,,,,,,,,,,,,,198.73488599993289,198.79996429989114,199.21445059997495,,,,,,,,,,,,,,,,,,,,,,,,,,,,,,,,,,,,,199.2144905999303,199.27070569992065,199.27070569992065,200.74270319996867,None,0,,,200.74312449991703,200.80420579994097,201.7060418999754,,,,,,,,,,,,,,,,,,,,,,,,,,,,,,,,,,,,,,,,,,,,,,,,,,,,,,,,,,,,,,1,001,2024-07-05_15h04.00.146,IAT(test05),2024.1.4,None,2024-07-05 15h04.23.275378 +0800,
,,,,他们,i,,,,,,,,,,,0,41,41,6,,,,,,,,,,,,,,,,,201.75327849993482,,,,,,,,,,,,,,,,201.70698469993658,201.75327849993482,202.28721369989216,,,,,,,,,,,,,,,,,,,,,,,,,,,,,,,,,,,,,202.2872743998887,202.39577659999486,202.39577659999486,203.20779849996325,i,1,0.7891402000095695,None,203.2081770999357,203.25414099998306,204.2408425998874,,,,,,,,,,,,,,,,,,,,,,,,,,,,,,,,,,,,,,,,,,,,,,,,,,,,,,,,,,,,,,1,001,2024-07-05_15h04.00.146,IAT(test05),2024.1.4,None,2024-07-05 15h04.23.275378 +0800,
,,,,愚蠢,i,,,,,,,,,,,0,42,42,32,,,,,,,,,,,,,,,,,204.27437259990256,,,,,,,,,,,,,,,,204.2418032999849,204.27437259990256,204.71956899994984,,,,,,,,,,,,,,,,,,,,,,,,,,,,,,,,,,,,,204.71959189989138,204.7755900999764,204.7755900999764,205.93534099997487,i,1,1.1520360000431538,None,205.9358370999107,205.98300699994434,206.98442219989374,,,,,,,,,,,,,,,,,,,,,,,,,,,,,,,,,,,,,,,,,,,,,,,,,,,,,,,,,,,,,,1,001,2024-07-05_15h04.00.146,IAT(test05),2024.1.4,None,2024-07-05 15h04.23.275378 +0800,
,,,,我的,e,,,,,,,,,,,0,43,43,1,,,,,,,,,,,,,,,,,207.02825889992528,,,,,,,,,,,,,,,,206.98472069995478,207.02825889992528,207.44033339992166,,,,,,,,,,,,,,,,,,,,,,,,,,,,,,,,,,,,,207.44034769991413,207.49275759991724,207.49275759991724,208.34931169997435,i,0,0.8071999999228865,None,208.34962889994495,208.40310779993888,209.35900219995528,,,,,,,,,,,,,,,,,,,,,,,,,,,,,,,,,,,,,,,,,,,,,,,,,,,,,,,,,,,,,,1,001,2024-07-05_15h04.00.146,IAT(test05),2024.1.4,None,2024-07-05 15h04.23.275378 +0800,
,,,,自私,i,,,,,,,,,,,0,44,44,43,,,,,,,,,,,,,,,,,209.39670699997805,,,,,,,,,,,,,,,,209.35940739989746,209.39670699997805,209.87576249998529,,,,,,,,,,,,,,,,,,,,,,,,,,,,,,,,,,,,,209.87577789998613,209.92432479991112,209.92432479991112,210.151461499976,i,1,0.18570620007812977,None,210.1519672999857,210.20097919995897,211.199378099991,,,,,,,,,,,,,,,,,,,,,,,,,,,,,,,,,,,,,,,,,,,,,,,,,,,,,,,,,,,,,,1,001,2024-07-05_15h04.00.146,IAT(test05),2024.1.4,None,2024-07-05 15h04.23.275378 +0800,
,,,,热情,e,,,,,,,,,,,0,45,45,27,,,,,,,,,,,,,,,,,211.2438269999111,,,,,,,,,,,,,,,,211.19966639997438,211.2438269999111,211.677956599975,,,,,,,,,,,,,,,,,,,,,,,,,,,,,,,,,,,,,211.6779808999272,211.739617299987,211.739617299987,212.17217759997584,i,0,0.39537579996977,None,212.17309529997874,212.2225847999798,213.1936195999151,,,,,,,,,,,,,,,,,,,,,,,,,,,,,,,,,,,,,,,,,,,,,,,,,,,,,,,,,,,,,,1,001,2024-07-05_15h04.00.146,IAT(test05),2024.1.4,None,2024-07-05 15h04.23.275378 +0800,
,,,,勇敢,e,,,,,,,,,,,0,46,46,17,,,,,,,,,,,,,,,,,213.23047999991104,,,,,,,,,,,,,,,,213.1941129999468,213.23047999991104,213.72761999990325,,,,,,,,,,,,,,,,,,,,,,,,,,,,,,,,,,,,,213.7276550999377,213.74915819999296,213.74915819999296,213.80005839990918,i,0,0.013942199992015958,None,213.8012158999918,213.84226879989728,214.80714689998422,,,,,,,,,,,,,,,,,,,,,,,,,,,,,,,,,,,,,,,,,,,,,,,,,,,,,,,,,,,,,,1,001,2024-07-05_15h04.00.146,IAT(test05),2024.1.4,None,2024-07-05 15h04.23.275378 +0800,
,,,,自己,e,,,,,,,,,,,0,47,47,3,,,,,,,,,,,,,,,,,214.84521269996185,,,,,,,,,,,,,,,,214.80758439993951,214.84521269996185,215.31175449991133,,,,,,,,,,,,,,,,,,,,,,,,,,,,,,,,,,,,,215.31181219988503,215.35898259992246,215.35898259992246,215.78984069998842,i,0,0.4133888999931514,None,215.79018159990665,215.84468099998776,216.80016129999422,,,,,,,,,,,,,,,,,,,,,,,,,,,,,,,,,,,,,,,,,,,,,,,,,,,,,,,,,,,,,,1,001,2024-07-05_15h04.00.146,IAT(test05),2024.1.4,None,2024-07-05 15h04.23.275378 +0800,
,,,,细腻,e,,,,,,,,,,,0,48,48,25,,,,,,,,,,,,,,,,,216.8479283999186,,,,,,,,,,,,,,,,216.8009894998977,216.8479283999186,217.35205129999667,,,,,,,,,,,,,,,,,,,,,,,,,,,,,,,,,,,,,217.35208099999,217.39760009991005,217.39760009991005,217.64160729991272,i,0,0.2398168999934569,None,217.64226100000087,217.69353679998312,218.6733212999534,,,,,,,,,,,,,,,,,,,,,,,,,,,,,,,,,,,,,,,,,,,,,,,,,,,,,,,,,,,,,,1,001,2024-07-05_15h04.00.146,IAT(test05),2024.1.4,None,2024-07-05 15h04.23.275378 +0800,
,,,,暴躁,i,,,,,,,,,,,0,49,49,44,,,,,,,,,,,,,,,,,218.7141844999278,,,,,,,,,,,,,,,,218.67355319997296,218.7141844999278,219.14569649996702,,,,,,,,,,,,,,,,,,,,,,,,,,,,,,,,,,,,,219.14585419988725,219.2109920999501,219.2109920999501,219.44044649996795,i,1,0.20392259990330786,None,219.44130929990206,219.490189599921,220.4469318999909,,,,,,,,,,,,,,,,,,,,,,,,,,,,,,,,,,,,,,,,,,,,,,,,,,,,,,,,,,,,,,1,001,2024-07-05_15h04.00.146,IAT(test05),2024.1.4,None,2024-07-05 15h04.23.275378 +0800,
,,,,,,,,,,,,,,,,,,,,,,,,,,,,,,,,,,,,,,,,,,,,,,,,,,,,,,,,,,,,,,,,,,,,,,,,,,,,,,,,,,,,,,,,,,,,,,,,,,,,,,220.44705949991476,220.4789616999915,220.4789616999915,225.86150579992682,space,5.347700000042096,None,,,,,,,,,,,,,,,,,,,,,,,,,,,,,,,,,,,,,,,,,,,,,,,,,,,,,,,1,001,2024-07-05_15h04.00.146,IAT(test05),2024.1.4,None,2024-07-05 15h04.23.275378 +0800,
,,,,下贱,i,,,,,,,,,,,,,,,0,0,0,49,,,,,,,,,,,,,225.91270429990254,,,,,,,,,,,,,,,,225.88317479996476,225.91270429990254,226.3908500999678,,,,,,,,,,,,,,,,,,,,,,,,,,,,,,,,,,,,,226.39087109989487,226.43680909997784,226.43680909997784,226.7536482999567,i,1,0.30731149995699525,None,226.75427539995871,226.7957199999364,227.75721779989544,,,,,,,,,,,,,,,,,,,,,,,,,,,,,,,,,,,,,,,,,,,,,,,,,,,,,,,,,,,,,,1,001,2024-07-05_15h04.00.146,IAT(test05),2024.1.4,None,2024-07-05 15h04.23.275378 +0800,
,,,,愚蠢,i,,,,,,,,,,,,,,,0,1,1,32,,,,,,,,,,,,,227.80233189999126,,,,,,,,,,,,,,,,227.7578696999699,227.80233189999126,228.25887009990402,,,,,,,,,,,,,,,,,,,,,,,,,,,,,,,,,,,,,228.25888599990867,228.29698119999375,228.29698119999375,228.7968040999258,i,1,0.4866110000293702,None,228.79741899995133,228.85832549992483,229.8071391999256,,,,,,,,,,,,,,,,,,,,,,,,,,,,,,,,,,,,,,,,,,,,,,,,,,,,,,,,,,,,,,1,001,2024-07-05_15h04.00.146,IAT(test05),2024.1.4,None,2024-07-05 15h04.23.275378 +0800,
,,,,优秀,e,,,,,,,,,,,,,,,0,2,2,10,,,,,,,,,,,,,229.85745319991838,,,,,,,,,,,,,,,,229.807374099968,229.85745319991838,230.33746509999037,,,,,,,,,,,,,,,,,,,,,,,,,,,,,,,,,,,,,230.3375231999671,230.38005699997302,230.38005699997302,230.87050619989168,i,0,0.46340499992948025,None,230.87087289988995,230.93095609999727,231.90427909989376,,,,,,,,,,,,,,,,,,,,,,,,,,,,,,,,,,,,,,,,,,,,,,,,,,,,,,,,,,,,,,1,001,2024-07-05_15h04.00.146,IAT(test05),2024.1.4,None,2024-07-05 15h04.23.275378 +0800,
,,,,勤奋,e,,,,,,,,,,,,,,,0,3,3,18,,,,,,,,,,,,,231.95353199995589,,,,,,,,,,,,,,,,231.9051433999557,231.95353199995589,232.37783109990414,,,,,,,,,,,,,,,,,,,,,,,,,,,,,,,,,,,,,232.37787459988613,232.42128159990534,232.42128159990534,232.83795339998323,i,0,0.3736435000319034,None,232.83840759994928,232.890551499906,233.8655339999823,,,,,,,,,,,,,,,,,,,,,,,,,,,,,,,,,,,,,,,,,,,,,,,,,,,,,,,,,,,,,,1,001,2024-07-05_15h04.00.146,IAT(test05),2024.1.4,None,2024-07-05 15h04.23.275378 +0800,
,,,,诚实,e,,,,,,,,,,,,,,,0,4,4,15,,,,,,,,,,,,,233.9216239999514,,,,,,,,,,,,,,,,233.8658443999011,233.9216239999514,234.3413326999871,,,,,,,,,,,,,,,,,,,,,,,,,,,,,,,,,,,,,234.34135979996063,234.38924629997928,234.38924629997928,234.8530426999787,e,1,0.4575995000777766,None,234.85341369989328,234.8908572999062,235.8570053000003,,,,,,,,,,,,,,,,,,,,,,,,,,,,,,,,,,,,,,,,,,,,,,,,,,,,,,,,,,,,,,1,001,2024-07-05_15h04.00.146,IAT(test05),2024.1.4,None,2024-07-05 15h04.23.275378 +0800,
,,,,热情,e,,,,,,,,,,,,,,,0,5,5,27,,,,,,,,,,,,,235.87594479997642,,,,,,,,,,,,,,,,235.85793059994467,235.87594479997642,236.39787079999223,,,,,,,,,,,,,,,,,,,,,,,,,,,,,,,,,,,,,236.3978943999391,236.4555026999442,236.4555026999442,236.96883569995407,e,1,0.503741699969396,None,236.96924069989473,237.0096566999564,237.97116199997254,,,,,,,,,,,,,,,,,,,,,,,,,,,,,,,,,,,,,,,,,,,,,,,,,,,,,,,,,,,,,,1,001,2024-07-05_15h04.00.146,IAT(test05),2024.1.4,None,2024-07-05 15h04.23.275378 +0800,
,,,,稳重,e,,,,,,,,,,,,,,,0,6,6,21,,,,,,,,,,,,,238.01083069993183,,,,,,,,,,,,,,,,237.97153299988713,238.01083069993183,238.49738149996847,,,,,,,,,,,,,,,,,,,,,,,,,,,,,,,,,,,,,238.4973997999914,238.54610769997817,238.54610769997817,239.06622039992362,i,0,0.5080498000606894,None,239.06674139993265,239.12719469994772,240.07775749999564,,,,,,,,,,,,,,,,,,,,,,,,,,,,,,,,,,,,,,,,,,,,,,,,,,,,,,,,,,,,,,1,001,2024-07-05_15h04.00.146,IAT(test05),2024.1.4,None,2024-07-05 15h04.23.275378 +0800,
,,,,固执,i,,,,,,,,,,,,,,,0,7,7,47,,,,,,,,,,,,,240.1226527999388,,,,,,,,,,,,,,,,240.07817090000026,240.1226527999388,240.5823349999264,,,,,,,,,,,,,,,,,,,,,,,,,,,,,,,,,,,,,240.58235859998967,240.62865789991338,240.62865789991338,240.99844439991284,e,0,0.3495919000124559,None,240.99876419990323,241.0454247999005,242.01348059996963,,,,,,,,,,,,,,,,,,,,,,,,,,,,,,,,,,,,,,,,,,,,,,,,,,,,,,,,,,,,,,1,001,2024-07-05_15h04.00.146,IAT(test05),2024.1.4,None,2024-07-05 15h04.23.275378 +0800,
,,,,勇敢,e,,,,,,,,,,,,,,,0,8,8,17,,,,,,,,,,,,,242.03536669991445,,,,,,,,,,,,,,,,242.01442649995442,242.03536669991445,242.53295789996628,,,,,,,,,,,,,,,,,,,,,,,,,,,,,,,,,,,,,242.53300889988896,242.5943064999301,242.5943064999301,243.2212259999942,i,0,0.6210880000144243,None,243.22175129991956,243.25811869988684,244.2499551998917,,,,,,,,,,,,,,,,,,,,,,,,,,,,,,,,,,,,,,,,,,,,,,,,,,,,,,,,,,,,,,1,001,2024-07-05_15h04.00.146,IAT(test05),2024.1.4,None,2024-07-05 15h04.23.275378 +0800,
,,,,自卑,i,,,,,,,,,,,,,,,0,9,9,36,,,,,,,,,,,,,244.30379089992493,,,,,,,,,,,,,,,,244.25081379991025,244.30379089992493,244.76890629995614,,,,,,,,,,,,,,,,,,,,,,,,,,,,,,,,,,,,,244.76893049990758,244.8168845999753,244.8168845999753,245.11342349997722,e,0,0.2862436000723392,None,245.11403679999057,245.14290959993377,246.14577279996593,,,,,,,,,,,,,,,,,,,,,,,,,,,,,,,,,,,,,,,,,,,,,,,,,,,,,,,,,,,,,,1,001,2024-07-05_15h04.00.146,IAT(test05),2024.1.4,None,2024-07-05 15h04.23.275378 +0800,
,,,,诚恳,e,,,,,,,,,,,,,,,0,10,10,29,,,,,,,,,,,,,246.19348339992575,,,,,,,,,,,,,,,,246.1464025999885,246.19348339992575,246.65572549996432,,,,,,,,,,,,,,,,,,,,,,,,,,,,,,,,,,,,,246.65574269997887,246.6997024999,246.6997024999,247.22253209992778,e,1,0.4940055999904871,None,247.22332749993075,247.25919449992944,248.2391391999554,,,,,,,,,,,,,,,,,,,,,,,,,,,,,,,,,,,,,,,,,,,,,,,,,,,,,,,,,,,,,,1,001,2024-07-05_15h04.00.146,IAT(test05),2024.1.4,None,2024-07-05 15h04.23.275378 +0800,
,,,,悲观,i,,,,,,,,,,,,,,,0,11,11,34,,,,,,,,,,,,,248.28893159993459,,,,,,,,,,,,,,,,248.23955139995087,248.28893159993459,248.73310509999283,,,,,,,,,,,,,,,,,,,,,,,,,,,,,,,,,,,,,248.7331296999473,248.76555089990143,248.76555089990143,249.28401069995016,i,1,0.48292310000397265,None,249.28437499993015,249.32896139996592,250.31136659998447,,,,,,,,,,,,,,,,,,,,,,,,,,,,,,,,,,,,,,,,,,,,,,,,,,,,,,,,,,,,,,1,001,2024-07-05_15h04.00.146,IAT(test05),2024.1.4,None,2024-07-05 15h04.23.275378 +0800,
,,,,凶狠,i,,,,,,,,,,,,,,,0,12,12,42,,,,,,,,,,,,,250.32925389998127,,,,,,,,,,,,,,,,250.31183829996735,250.32925389998127,250.79847759997938,,,,,,,,,,,,,,,,,,,,,,,,,,,,,,,,,,,,,250.79850089992397,250.84280189999845,250.84280189999845,251.37548539997078,i,1,0.4873986999737099,None,251.37602849991526,251.42212249990553,252.3996472998988,,,,,,,,,,,,,,,,,,,,,,,,,,,,,,,,,,,,,,,,,,,,,,,,,,,,,,,,,,,,,,1,001,2024-07-05_15h04.00.146,IAT(test05),2024.1.4,None,2024-07-05 15h04.23.275378 +0800,
,,,,他们,i,,,,,,,,,,,,,,,0,13,13,6,,,,,,,,,,,,,252.44564890000038,,,,,,,,,,,,,,,,252.4005209999159,252.44564890000038,252.9306641999865,,,,,,,,,,,,,,,,,,,,,,,,,,,,,,,,,,,,,252.93068659992423,252.97236159991007,252.97236159991007,253.5876227999106,e,0,0.5741979000158608,None,253.5881562998984,253.6284872998949,254.61356259998865,,,,,,,,,,,,,,,,,,,,,,,,,,,,,,,,,,,,,,,,,,,,,,,,,,,,,,,,,,,,,,1,001,2024-07-05_15h04.00.146,IAT(test05),2024.1.4,None,2024-07-05 15h04.23.275378 +0800,
,,,,猖狂,i,,,,,,,,,,,,,,,0,14,14,45,,,,,,,,,,,,,254.65053619991522,,,,,,,,,,,,,,,,254.61409099993762,254.65053619991522,255.10838749993127,,,,,,,,,,,,,,,,,,,,,,,,,,,,,,,,,,,,,255.1084078999702,255.16043519997038,255.16043519997038,255.7718532999279,i,1,0.5800397000275552,None,255.77263509994373,255.819206199958,256.7975563999498,,,,,,,,,,,,,,,,,,,,,,,,,,,,,,,,,,,,,,,,,,,,,,,,,,,,,,,,,,,,,,1,001,2024-07-05_15h04.00.146,IAT(test05),2024.1.4,None,2024-07-05 15h04.23.275378 +0800,
,,,,我们,e,,,,,,,,,,,,,,,0,15,15,2,,,,,,,,,,,,,256.8387432999443,,,,,,,,,,,,,,,,256.7979670999339,256.8387432999443,257.29391809995286,,,,,,,,,,,,,,,,,,,,,,,,,,,,,,,,,,,,,257.29396159993485,257.34506449999753,257.34506449999753,257.8107100999914,e,1,0.45594979997258633,None,257.81107759999577,257.85728689993266,258.82297829992604,,,,,,,,,,,,,,,,,,,,,,,,,,,,,,,,,,,,,,,,,,,,,,,,,,,,,,,,,,,,,,1,001,2024-07-05_15h04.00.146,IAT(test05),2024.1.4,None,2024-07-05 15h04.23.275378 +0800,
,,,,朴实,e,,,,,,,,,,,,,,,0,16,16,24,,,,,,,,,,,,,258.87557449995074,,,,,,,,,,,,,,,,258.82350479997694,258.87557449995074,259.3618566999212,,,,,,,,,,,,,,,,,,,,,,,,,,,,,,,,,,,,,259.3618778999662,259.4195086999098,259.4195086999098,260.054230599897,i,0,0.585925200022757,None,260.0546814999543,260.0990326999454,261.0894051999785,,,,,,,,,,,,,,,,,,,,,,,,,,,,,,,,,,,,,,,,,,,,,,,,,,,,,,,,,,,,,,1,001,2024-07-05_15h04.00.146,IAT(test05),2024.1.4,None,2024-07-05 15h04.23.275378 +0800,
,,,,机智,e,,,,,,,,,,,,,,,0,17,17,19,,,,,,,,,,,,,261.1346842999337,,,,,,,,,,,,,,,,261.08982090000063,261.1346842999337,261.5974238999188,,,,,,,,,,,,,,,,,,,,,,,,,,,,,,,,,,,,,261.59747499995865,261.63471319992095,261.63471319992095,262.06030459993053,e,1,0.4151215000310913,None,262.0614073999459,262.1244959998876,263.0819608999882,,,,,,,,,,,,,,,,,,,,,,,,,,,,,,,,,,,,,,,,,,,,,,,,,,,,,,,,,,,,,,1,001,2024-07-05_15h04.00.146,IAT(test05),2024.1.4,None,2024-07-05 15h04.23.275378 +0800,
,,,,轻率,i,,,,,,,,,,,,,,,0,18,18,48,,,,,,,,,,,,,263.1261251999531,,,,,,,,,,,,,,,,263.0823590999935,263.1261251999531,263.5907660999801,,,,,,,,,,,,,,,,,,,,,,,,,,,,,,,,,,,,,263.5908164998982,263.6456866998924,263.6456866998924,264.4495917999884,i,1,0.7691714999964461,None,264.44995229993947,264.4895176999271,265.46873049996793,,,,,,,,,,,,,,,,,,,,,,,,,,,,,,,,,,,,,,,,,,,,,,,,,,,,,,,,,,,,,,1,001,2024-07-05_15h04.00.146,IAT(test05),2024.1.4,None,2024-07-05 15h04.23.275378 +0800,
,,,,乐观,e,,,,,,,,,,,,,,,0,19,19,14,,,,,,,,,,,,,265.4817015998997,,,,,,,,,,,,,,,,265.4694091998972,265.4817015998997,265.96907769993413,,,,,,,,,,,,,,,,,,,,,,,,,,,,,,,,,,,,,265.9691088999389,266.0186944999732,266.0186944999732,266.53726839995943,e,1,0.4852096999529749,None,266.53796769992914,266.58298789989203,267.56309209996834,,,,,,,,,,,,,,,,,,,,,,,,,,,,,,,,,,,,,,,,,,,,,,,,,,,,,,,,,,,,,,1,001,2024-07-05_15h04.00.146,IAT(test05),2024.1.4,None,2024-07-05 15h04.23.275378 +0800,
,,,,俺,e,,,,,,,,,,,,,,,0,20,20,4,,,,,,,,,,,,,267.6101655999664,,,,,,,,,,,,,,,,267.5635444999207,267.6101655999664,268.06307989999186,,,,,,,,,,,,,,,,,,,,,,,,,,,,,,,,,,,,,268.0631007999182,268.10632519994397,268.10632519994397,268.6474886999931,i,0,0.5367251000134274,None,268.6480343999574,268.69378559989855,269.656405699905,,,,,,,,,,,,,,,,,,,,,,,,,,,,,,,,,,,,,,,,,,,,,,,,,,,,,,,,,,,,,,1,001,2024-07-05_15h04.00.146,IAT(test05),2024.1.4,None,2024-07-05 15h04.23.275378 +0800,
,,,,卑鄙,i,,,,,,,,,,,,,,,0,21,21,30,,,,,,,,,,,,,269.69580569991376,,,,,,,,,,,,,,,,269.65690029994585,269.69580569991376,270.1745128999464,,,,,,,,,,,,,,,,,,,,,,,,,,,,,,,,,,,,,270.1745320999762,270.2268335999688,270.2268335999688,270.6666530999355,i,1,0.4319245999213308,None,270.6679202999221,270.72843469993677,271.68082679994404,,,,,,,,,,,,,,,,,,,,,,,,,,,,,,,,,,,,,,,,,,,,,,,,,,,,,,,,,,,,,,1,001,2024-07-05_15h04.00.146,IAT(test05),2024.1.4,None,2024-07-05 15h04.23.275378 +0800,
,,,,认真,e,,,,,,,,,,,,,,,0,22,22,20,,,,,,,,,,,,,271.72227469994687,,,,,,,,,,,,,,,,271.68134549993556,271.72227469994687,272.1958855999401,,,,,,,,,,,,,,,,,,,,,,,,,,,,,,,,,,,,,272.19594079989474,272.24434359988663,272.24434359988663,272.899530799943,e,1,0.6306119000073522,None,272.9002203999553,272.94155719992705,273.9228896999266,,,,,,,,,,,,,,,,,,,,,,,,,,,,,,,,,,,,,,,,,,,,,,,,,,,,,,,,,,,,,,1,001,2024-07-05_15h04.00.146,IAT(test05),2024.1.4,None,2024-07-05 15h04.23.275378 +0800,
,,,,他的,i,,,,,,,,,,,,,,,0,23,23,7,,,,,,,,,,,,,273.97195209993515,,,,,,,,,,,,,,,,273.9232559999218,273.97195209993515,274.43308409990277,,,,,,,,,,,,,,,,,,,,,,,,,,,,,,,,,,,,,274.43311679991893,274.487873999984,274.487873999984,275.3084909999743,i,1,0.8102573999203742,None,275.3091695999028,275.3726822999306,276.3555895999307,,,,,,,,,,,,,,,,,,,,,,,,,,,,,,,,,,,,,,,,,,,,,,,,,,,,,,,,,,,,,,1,001,2024-07-05_15h04.00.146,IAT(test05),2024.1.4,None,2024-07-05 15h04.23.275378 +0800,
,,,,虚伪,i,,,,,,,,,,,,,,,0,24,24,31,,,,,,,,,,,,,276.3952305999119,,,,,,,,,,,,,,,,276.35589629993774,276.3952305999119,276.8513999999268,,,,,,,,,,,,,,,,,,,,,,,,,,,,,,,,,,,,,276.85169119993225,276.8938046999974,276.8938046999974,277.56846919993404,i,1,0.667695099953562,None,277.5689166999655,277.6102830999298,278.61749219999183,,,,,,,,,,,,,,,,,,,,,,,,,,,,,,,,,,,,,,,,,,,,,,,,,,,,,,,,,,,,,,1,001,2024-07-05_15h04.00.146,IAT(test05),2024.1.4,None,2024-07-05 15h04.23.275378 +0800,
,,,,执拗,i,,,,,,,,,,,,,,,0,25,25,40,,,,,,,,,,,,,278.66277649998665,,,,,,,,,,,,,,,,278.6181341999909,278.66277649998665,279.109023099998,,,,,,,,,,,,,,,,,,,,,,,,,,,,,,,,,,,,,279.10907269991003,279.16424139996525,279.16424139996525,279.6547673998866,i,1,0.4657018000725657,None,279.65591709990986,279.6967915999703,280.6652279999107,,,,,,,,,,,,,,,,,,,,,,,,,,,,,,,,,,,,,,,,,,,,,,,,,,,,,,,,,,,,,,1,001,2024-07-05_15h04.00.146,IAT(test05),2024.1.4,None,2024-07-05 15h04.23.275378 +0800,
,,,,崇高,e,,,,,,,,,,,,,,,0,26,26,11,,,,,,,,,,,,,280.6802724999143,,,,,,,,,,,,,,,,280.6656892999308,280.6802724999143,281.1978290999541,,,,,,,,,,,,,,,,,,,,,,,,,,,,,,,,,,,,,281.19785719993524,281.233075199998,281.233075199998,281.8444595999317,e,1,0.5817162999883294,None,281.84477649990004,281.8962245999137,282.88124649995007,,,,,,,,,,,,,,,,,,,,,,,,,,,,,,,,,,,,,,,,,,,,,,,,,,,,,,,,,,,,,,1,001,2024-07-05_15h04.00.146,IAT(test05),2024.1.4,None,2024-07-05 15h04.23.275378 +0800,
,,,,其他,i,,,,,,,,,,,,,,,0,27,27,9,,,,,,,,,,,,,282.9142107999651,,,,,,,,,,,,,,,,282.8816395999165,282.9142107999651,283.35551799996756,,,,,,,,,,,,,,,,,,,,,,,,,,,,,,,,,,,,,283.3555370999966,283.40647109993733,283.40647109993733,283.87627559993416,i,1,0.46504090004600585,None,283.8772086999379,283.9228255999042,284.894442299963,,,,,,,,,,,,,,,,,,,,,,,,,,,,,,,,,,,,,,,,,,,,,,,,,,,,,,,,,,,,,,1,001,2024-07-05_15h04.00.146,IAT(test05),2024.1.4,None,2024-07-05 15h04.23.275378 +0800,
,,,,细腻,e,,,,,,,,,,,,,,,0,28,28,25,,,,,,,,,,,,,284.93816369993147,,,,,,,,,,,,,,,,284.8947141999379,284.93816369993147,285.4019573999103,,,,,,,,,,,,,,,,,,,,,,,,,,,,,,,,,,,,,285.4020161998924,285.4549941999139,285.4549941999139,286.08779339992907,e,1,0.6150568999582902,None,286.08854039991274,286.1313617998967,287.1019957999233,,,,,,,,,,,,,,,,,,,,,,,,,,,,,,,,,,,,,,,,,,,,,,,,,,,,,,,,,,,,,,1,001,2024-07-05_15h04.00.146,IAT(test05),2024.1.4,None,2024-07-05 15h04.23.275378 +0800,
,,,,冒失,i,,,,,,,,,,,,,,,0,29,29,39,,,,,,,,,,,,,287.1171703999862,,,,,,,,,,,,,,,,287.10247799998615,287.1171703999862,287.6081270999275,,,,,,,,,,,,,,,,,,,,,,,,,,,,,,,,,,,,,287.6081452999497,287.65817809989676,287.65817809989676,288.0152288998943,i,1,0.34941659995820373,None,288.01587369991466,288.04901889991015,289.05888859997503,,,,,,,,,,,,,,,,,,,,,,,,,,,,,,,,,,,,,,,,,,,,,,,,,,,,,,,,,,,,,,1,001,2024-07-05_15h04.00.146,IAT(test05),2024.1.4,None,2024-07-05 15h04.23.275378 +0800,
,,,,无私,e,,,,,,,,,,,,,,,0,30,30,22,,,,,,,,,,,,,289.10225569992326,,,,,,,,,,,,,,,,289.05959869991057,289.10225569992326,289.54827139992267,,,,,,,,,,,,,,,,,,,,,,,,,,,,,,,,,,,,,289.5483181999298,289.58870599989314,289.58870599989314,290.0757392999949,i,0,0.4637826000107452,None,290.0760625998955,290.1243442998966,291.11120869999286,,,,,,,,,,,,,,,,,,,,,,,,,,,,,,,,,,,,,,,,,,,,,,,,,,,,,,,,,,,,,,1,001,2024-07-05_15h04.00.146,IAT(test05),2024.1.4,None,2024-07-05 15h04.23.275378 +0800,
,,,,正直,e,,,,,,,,,,,,,,,0,31,31,16,,,,,,,,,,,,,291.16598879999947,,,,,,,,,,,,,,,,291.1115132999839,291.16598879999947,291.61382749991026,,,,,,,,,,,,,,,,,,,,,,,,,,,,,,,,,,,,,291.61386379995383,291.65925829997286,291.65925829997286,292.03544819995295,e,1,0.3636961999582127,None,292.0358987998916,292.0869021998951,293.0535650999518,,,,,,,,,,,,,,,,,,,,,,,,,,,,,,,,,,,,,,,,,,,,,,,,,,,,,,,,,,,,,,1,001,2024-07-05_15h04.00.146,IAT(test05),2024.1.4,None,2024-07-05 15h04.23.275378 +0800,
,,,,我的,e,,,,,,,,,,,,,,,0,32,32,1,,,,,,,,,,,,,293.1030099999625,,,,,,,,,,,,,,,,293.05438099999446,293.1030099999625,293.5710045999149,,,,,,,,,,,,,,,,,,,,,,,,,,,,,,,,,,,,,293.57103059999645,293.6138408998959,293.6138408998959,294.18835569999646,i,0,0.5343229999998584,None,294.18892359989695,294.23814609996043,295.2126792999916,,,,,,,,,,,,,,,,,,,,,,,,,,,,,,,,,,,,,,,,,,,,,,,,,,,,,,,,,,,,,,1,001,2024-07-05_15h04.00.146,IAT(test05),2024.1.4,None,2024-07-05 15h04.23.275378 +0800,
,,,,他,i,,,,,,,,,,,,,,,0,33,33,5,,,,,,,,,,,,,295.24666589999106,,,,,,,,,,,,,,,,295.21301569999196,295.24666589999106,295.69410179997794,,,,,,,,,,,,,,,,,,,,,,,,,,,,,,,,,,,,,295.6941378999036,295.7284395999741,295.7284395999741,296.3440629999386,e,0,0.5804799000034109,None,296.34441889997106,296.39711889997125,297.3553874999052,,,,,,,,,,,,,,,,,,,,,,,,,,,,,,,,,,,,,,,,,,,,,,,,,,,,,,,,,,,,,,1,001,2024-07-05_15h04.00.146,IAT(test05),2024.1.4,None,2024-07-05 15h04.23.275378 +0800,
,,,,散漫,i,,,,,,,,,,,,,,,0,34,34,41,,,,,,,,,,,,,297.3927703999216,,,,,,,,,,,,,,,,297.35602559999097,297.3927703999216,297.89437639992684,,,,,,,,,,,,,,,,,,,,,,,,,,,,,,,,,,,,,297.8944243999431,297.93830319994595,297.93830319994595,298.38475409999955,i,1,0.40321050002239645,None,298.38541459990665,298.43088709993754,299.4170057999436,,,,,,,,,,,,,,,,,,,,,,,,,,,,,,,,,,,,,,,,,,,,,,,,,,,,,,,,,,,,,,1,001,2024-07-05_15h04.00.146,IAT(test05),2024.1.4,None,2024-07-05 15h04.23.275378 +0800,
,,,,野蛮,i,,,,,,,,,,,,,,,0,35,35,46,,,,,,,,,,,,,299.4370460999198,,,,,,,,,,,,,,,,299.41748429997824,299.4370460999198,299.89627859997563,,,,,,,,,,,,,,,,,,,,,,,,,,,,,,,,,,,,,299.89630389993545,299.95199649990536,299.95199649990536,300.2684871999081,i,1,0.282287499983795,None,300.26888949994463,300.3086537999334,301.27450509998016,,,,,,,,,,,,,,,,,,,,,,,,,,,,,,,,,,,,,,,,,,,,,,,,,,,,,,,,,,,,,,1,001,2024-07-05_15h04.00.146,IAT(test05),2024.1.4,None,2024-07-05 15h04.23.275378 +0800,
,,,,他人,i,,,,,,,,,,,,,,,0,36,36,8,,,,,,,,,,,,,301.32485709991306,,,,,,,,,,,,,,,,301.27524219988845,301.32485709991306,301.78989539993927,,,,,,,,,,,,,,,,,,,,,,,,,,,,,,,,,,,,,301.7899112999439,301.8322872999124,301.8322872999124,302.10476489993744,i,1,0.2417612000135705,None,302.1052073999308,302.14362239988986,303.1461865999736,,,,,,,,,,,,,,,,,,,,,,,,,,,,,,,,,,,,,,,,,,,,,,,,,,,,,,,,,,,,,,1,001,2024-07-05_15h04.00.146,IAT(test05),2024.1.4,None,2024-07-05 15h04.23.275378 +0800,
,,,,公正,e,,,,,,,,,,,,,,,0,37,37,23,,,,,,,,,,,,,303.2038636999205,,,,,,,,,,,,,,,,303.146889799973,303.2038636999205,303.6308478999417,,,,,,,,,,,,,,,,,,,,,,,,,,,,,,,,,,,,,303.6308921999298,303.6754446999403,303.6754446999403,303.95314629992936,i,0,0.23260729992762208,None,303.95361019996926,304.0029719999293,304.96940979990177,,,,,,,,,,,,,,,,,,,,,,,,,,,,,,,,,,,,,,,,,,,,,,,,,,,,,,,,,,,,,,1,001,2024-07-05_15h04.00.146,IAT(test05),2024.1.4,None,2024-07-05 15h04.23.275378 +0800,
,,,,消极,i,,,,,,,,,,,,,,,0,38,38,35,,,,,,,,,,,,,305.0073839999968,,,,,,,,,,,,,,,,304.9697048999369,305.0073839999968,305.4807892999379,,,,,,,,,,,,,,,,,,,,,,,,,,,,,,,,,,,,,305.48082129994873,305.52614899992477,305.52614899992477,305.7691523999674,i,1,0.23577509995084256,None,305.76954249991104,305.829242699896,306.78458509990014,,,,,,,,,,,,,,,,,,,,,,,,,,,,,,,,,,,,,,,,,,,,,,,,,,,,,,,,,,,,,,1,001,2024-07-05_15h04.00.146,IAT(test05),2024.1.4,None,2024-07-05 15h04.23.275378 +0800,
,,,,自己,e,,,,,,,,,,,,,,,0,39,39,3,,,,,,,,,,,,,306.8427458999213,,,,,,,,,,,,,,,,306.78491839999333,306.8427458999213,307.3129879999906,,,,,,,,,,,,,,,,,,,,,,,,,,,,,,,,,,,,,307.3130243999185,307.35424069990404,307.35424069990404,307.76325799990445,i,0,0.3885221000527963,None,307.76413739996497,307.80889909993857,308.80769299995154,,,,,,,,,,,,,,,,,,,,,,,,,,,,,,,,,,,,,,,,,,,,,,,,,,,,,,,,,,,,,,1,001,2024-07-05_15h04.00.146,IAT(test05),2024.1.4,None,2024-07-05 15h04.23.275378 +0800,
,,,,冷静,e,,,,,,,,,,,,,,,0,40,40,26,,,,,,,,,,,,,308.85576099995524,,,,,,,,,,,,,,,,308.8083248999901,308.85576099995524,309.3125922998879,,,,,,,,,,,,,,,,,,,,,,,,,,,,,,,,,,,,,309.312626299914,309.36585439997725,309.36585439997725,309.3741763998987,i,0,1.8176118000410497,None,309.37486579990946,309.4350114999106,310.3931056999136,,,,,,,,,,,,,,,,,,,,,,,,,,,,,,,,,,,,,,,,,,,,,,,,,,,,,,,,,,,,,,1,001,2024-07-05_15h04.00.146,IAT(test05),2024.1.4,None,2024-07-05 15h04.23.275378 +0800,
,,,,暴躁,i,,,,,,,,,,,,,,,0,41,41,44,,,,,,,,,,,,,310.44182189996354,,,,,,,,,,,,,,,,310.3936810999876,310.44182189996354,310.87955879990477,,,,,,,,,,,,,,,,,,,,,,,,,,,,,,,,,,,,,310.87960669992026,310.9300110999029,310.9300110999029,310.9367858999176,i,1,1.4906759000150487,None,310.9371110999491,310.9781036999775,311.94068739993963,,,,,,,,,,,,,,,,,,,,,,,,,,,,,,,,,,,,,,,,,,,,,,,,,,,,,,,,,,,,,,1,001,2024-07-05_15h04.00.146,IAT(test05),2024.1.4,None,2024-07-05 15h04.23.275378 +0800,
,,,,杰出,e,,,,,,,,,,,,,,,0,42,42,13,,,,,,,,,,,,,311.99077449995093,,,,,,,,,,,,,,,,311.94159529998433,311.99077449995093,312.44632109999657,,,,,,,,,,,,,,,,,,,,,,,,,,,,,,,,,,,,,312.4463476999663,312.4895515999524,312.4895515999524,312.94940049992874,i,0,0.41578879998996854,None,312.94991199998185,313.0016537999036,313.9732305998914,,,,,,,,,,,,,,,,,,,,,,,,,,,,,,,,,,,,,,,,,,,,,,,,,,,,,,,,,,,,,,1,001,2024-07-05_15h04.00.146,IAT(test05),2024.1.4,None,2024-07-05 15h04.23.275378 +0800,
,,,,活泼,e,,,,,,,,,,,,,,,0,43,43,28,,,,,,,,,,,,,314.01936289994046,,,,,,,,,,,,,,,,313.9734788999194,314.01936289994046,314.4980159999104,,,,,,,,,,,,,,,,,,,,,,,,,,,,,,,,,,,,,314.49806539993733,314.54774650000036,314.54774650000036,315.0509201999521,i,0,0.4895660999463871,None,315.05152049998287,315.1059646999929,316.06085749994963,,,,,,,,,,,,,,,,,,,,,,,,,,,,,,,,,,,,,,,,,,,,,,,,,,,,,,,,,,,,,,1,001,2024-07-05_15h04.00.146,IAT(test05),2024.1.4,None,2024-07-05 15h04.23.275378 +0800,
,,,,鲁莽,i,,,,,,,,,,,,,,,0,44,44,38,,,,,,,,,,,,,316.10462359990925,,,,,,,,,,,,,,,,316.0616241999669,316.10462359990925,316.5833910999354,,,,,,,,,,,,,,,,,,,,,,,,,,,,,,,,,,,,,316.5834518999327,316.6394798998954,316.6394798998954,316.93353049992584,i,1,0.2509212999138981,None,316.9339403999038,316.97774939995725,317.9579736999003,,,,,,,,,,,,,,,,,,,,,,,,,,,,,,,,,,,,,,,,,,,,,,,,,,,,,,,,,,,,,,1,001,2024-07-05_15h04.00.146,IAT(test05),2024.1.4,None,2024-07-05 15h04.23.275378 +0800,
,,,,自私,i,,,,,,,,,,,,,,,0,45,45,43,,,,,,,,,,,,,318.0029618999688,,,,,,,,,,,,,,,,317.9586870999774,318.0029618999688,318.4527743998915,,,,,,,,,,,,,,,,,,,,,,,,,,,,,,,,,,,,,318.4528214999009,318.49380729999393,318.49380729999393,318.79299189988524,e,0,0.2898993999697268,None,318.79360019997694,318.83113459998276,319.7941000999417,,,,,,,,,,,,,,,,,,,,,,,,,,,,,,,,,,,,,,,,,,,,,,,,,,,,,,,,,,,,,,1,001,2024-07-05_15h04.00.146,IAT(test05),2024.1.4,None,2024-07-05 15h04.23.275378 +0800,
,,,,聪明,e,,,,,,,,,,,,,,,0,46,46,12,,,,,,,,,,,,,319.84145779989194,,,,,,,,,,,,,,,,319.79470309999306,319.84145779989194,320.3418356999755,,,,,,,,,,,,,,,,,,,,,,,,,,,,,,,,,,,,,320.3418500999687,320.3944295999827,320.3944295999827,320.94540909992065,e,1,0.545818499987945,None,320.9465062998934,320.99754039989784,321.99680969992187,,,,,,,,,,,,,,,,,,,,,,,,,,,,,,,,,,,,,,,,,,,,,,,,,,,,,,,,,,,,,,1,001,2024-07-05_15h04.00.146,IAT(test05),2024.1.4,None,2024-07-05 15h04.23.275378 +0800,
,,,,傲慢,i,,,,,,,,,,,,,,,0,47,47,37,,,,,,,,,,,,,322.0483967999462,,,,,,,,,,,,,,,,321.99739369994495,322.0483967999462,322.46876540000085,,,,,,,,,,,,,,,,,,,,,,,,,,,,,,,,,,,,,322.4688135999022,322.5246092999587,322.5246092999587,323.08364529989194,i,1,0.5460176999913529,None,323.0840784999309,323.12624349992257,324.10563309991267,,,,,,,,,,,,,,,,,,,,,,,,,,,,,,,,,,,,,,,,,,,,,,,,,,,,,,,,,,,,,,1,001,2024-07-05_15h04.00.146,IAT(test05),2024.1.4,None,2024-07-05 15h04.23.275378 +0800,
,,,,我,e,,,,,,,,,,,,,,,0,48,48,0,,,,,,,,,,,,,324.17576349992305,,,,,,,,,,,,,,,,324.10585279995576,324.17576349992305,324.62233209994156,,,,,,,,,,,,,,,,,,,,,,,,,,,,,,,,,,,,,324.6223606999265,324.6776603999315,324.6776603999315,325.2800261999946,e,1,0.5791781999869272,None,325.2807666999288,325.32953639992047,326.2915130999172,,,,,,,,,,,,,,,,,,,,,,,,,,,,,,,,,,,,,,,,,,,,,,,,,,,,,,,,,,,,,,1,001,2024-07-05_15h04.00.146,IAT(test05),2024.1.4,None,2024-07-05 15h04.23.275378 +0800,
,,,,刻薄,i,,,,,,,,,,,,,,,0,49,49,33,,,,,,,,,,,,,326.32707179989666,,,,,,,,,,,,,,,,326.2922113999957,326.32707179989666,326.79999249998946,,,,,,,,,,,,,,,,,,,,,,,,,,,,,,,,,,,,,326.8000145999249,326.8397585999919,326.8397585999919,327.40133609995246,i,1,0.522571700043045,None,327.40201809990685,327.44211319996975,328.42470249999315,,,,,,,,,,,,,,,,,,,,,,,,,,,,,,,,,,,,,,,,,,,,,,,,,,,,,,,,,,,,,,1,001,2024-07-05_15h04.00.146,IAT(test05),2024.1.4,None,2024-07-05 15h04.23.275378 +0800,
,,,,,,,,,,,,,,,,,,,,,,,,,,,,,,,,,,,,,,,,,,,,,,,,,,,,,,,,,,,,,,,,,,,,,,,,,,,,,,,,,,,,,,,,,,,,,,,,,,,,,,,,,,,,,328.42494669998996,328.47342709999066,328.47342709999066,331.46984499995597,space,2.963963199988939,None,,,,,,,,,,,,,,,,,,,,,,,,,,,,,,,,,,,,,,,,,,,,,,,,1,001,2024-07-05_15h04.00.146,IAT(test05),2024.1.4,None,2024-07-05 15h04.23.275378 +0800,
他的,e,,,,,,,,,,,,,,,,,,,,,,,0,0,0,7,,,,,,,,,331.51289179991,,,,,,,,,,,,,,,,331.48761439998634,331.51289179991,331.97944679996,,,,,,,,,,,,,,,,,,,,,,,,,,,,,,,,,,,,,,,,,,,,,,,,,,,,,,,,,,,,,,331.97949159995187,332.0327551999362,332.0327551999362,332.58176669990644,i,0,0.5182549000019208,None,332.58296899998095,332.63314639998134,333.6187685999321,,,,,,,,,,,,,,,,,,,,,,,,,,,,,,,,,,,,,1,001,2024-07-05_15h04.00.146,IAT(test05),2024.1.4,None,2024-07-05 15h04.23.275378 +0800,
他们,e,,,,,,,,,,,,,,,,,,,,,,,0,1,1,6,,,,,,,,,333.66228329995647,,,,,,,,,,,,,,,,333.6192975998856,333.66228329995647,334.08874969999306,,,,,,,,,,,,,,,,,,,,,,,,,,,,,,,,,,,,,,,,,,,,,,,,,,,,,,,,,,,,,,334.0888044999447,334.13313139998354,334.13313139998354,334.9700601999648,e,1,0.8064645000267774,None,334.97056529996917,335.0417620999506,335.9796277999412,,,,,,,,,,,,,,,,,,,,,,,,,,,,,,,,,,,,,1,001,2024-07-05_15h04.00.146,IAT(test05),2024.1.4,None,2024-07-05 15h04.23.275378 +0800,
他人,e,,,,,,,,,,,,,,,,,,,,,,,0,2,2,8,,,,,,,,,336.01705559995025,,,,,,,,,,,,,,,,335.980286099948,336.01705559995025,336.4834897998953,,,,,,,,,,,,,,,,,,,,,,,,,,,,,,,,,,,,,,,,,,,,,,,,,,,,,,,,,,,,,,336.48356039996725,336.53431029990315,336.53431029990315,337.1601942999987,e,1,0.5956069000530988,None,337.16056199988816,337.1977961999364,338.18160009989515,,,,,,,,,,,,,,,,,,,,,,,,,,,,,,,,,,,,,1,001,2024-07-05_15h04.00.146,IAT(test05),2024.1.4,None,2024-07-05 15h04.23.275378 +0800,
我,i,,,,,,,,,,,,,,,,,,,,,,,0,3,3,0,,,,,,,,,338.23786219989415,,,,,,,,,,,,,,,,338.18244019988924,338.23786219989415,338.69344899989665,,,,,,,,,,,,,,,,,,,,,,,,,,,,,,,,,,,,,,,,,,,,,,,,,,,,,,,,,,,,,,338.6935000999365,338.75045649998356,338.75045649998356,339.38217899994925,i,1,0.5963023999938741,None,339.38278259988874,339.42306189995725,340.403246199945,,,,,,,,,,,,,,,,,,,,,,,,,,,,,,,,,,,,,1,001,2024-07-05_15h04.00.146,IAT(test05),2024.1.4,None,2024-07-05 15h04.23.275378 +0800,
其他,e,,,,,,,,,,,,,,,,,,,,,,,0,4,4,9,,,,,,,,,340.4211890998995,,,,,,,,,,,,,,,,340.4036735999398,340.4211890998995,340.9212361999089,,,,,,,,,,,,,,,,,,,,,,,,,,,,,,,,,,,,,,,,,,,,,,,,,,,,,,,,,,,,,,340.9212668999098,340.97336419997737,340.97336419997737,341.93178849993274,i,0,0.9143749000504613,None,341.9322765999241,341.97537609993014,342.97881659993436,,,,,,,,,,,,,,,,,,,,,,,,,,,,,,,,,,,,,1,001,2024-07-05_15h04.00.146,IAT(test05),2024.1.4,None,2024-07-05 15h04.23.275378 +0800,
俺,i,,,,,,,,,,,,,,,,,,,,,,,0,5,5,4,,,,,,,,,343.01681189995725,,,,,,,,,,,,,,,,342.97921449993737,343.01681189995725,343.4570272999117,,,,,,,,,,,,,,,,,,,,,,,,,,,,,,,,,,,,,,,,,,,,,,,,,,,,,,,,,,,,,,343.45705489988904,343.50245019991416,343.50245019991416,344.6395925999386,i,1,1.124550100066699,None,344.639984899899,344.6858130999608,345.65397509990726,,,,,,,,,,,,,,,,,,,,,,,,,,,,,,,,,,,,,1,001,2024-07-05_15h04.00.146,IAT(test05),2024.1.4,None,2024-07-05 15h04.23.275378 +0800,
我们,i,,,,,,,,,,,,,,,,,,,,,,,0,6,6,2,,,,,,,,,345.6696395999752,,,,,,,,,,,,,,,,345.655003999942,345.6696395999752,346.15367609995883,,,,,,,,,,,,,,,,,,,,,,,,,,,,,,,,,,,,,,,,,,,,,,,,,,,,,,,,,,,,,,346.15369339997414,346.1910348999081,346.1910348999081,346.99717739992775,e,0,0.7962694000452757,None,346.99808839999605,347.03983439994045,348.01083449996077,,,,,,,,,,,,,,,,,,,,,,,,,,,,,,,,,,,,,1,001,2024-07-05_15h04.00.146,IAT(test05),2024.1.4,None,2024-07-05 15h04.23.275378 +0800,
我的,i,,,,,,,,,,,,,,,,,,,,,,,0,7,7,1,,,,,,,,,348.0503335999092,,,,,,,,,,,,,,,,348.01150309992954,348.0503335999092,348.50440329988487,,,,,,,,,,,,,,,,,,,,,,,,,,,,,,,,,,,,,,,,,,,,,,,,,,,,,,,,,,,,,,348.50461549998727,348.55099869996775,348.55099869996775,348.9866723999148,i,1,0.3982639000751078,None,348.98708009999245,349.0344058999326,349.998344099964,,,,,,,,,,,,,,,,,,,,,,,,,,,,,,,,,,,,,1,001,2024-07-05_15h04.00.146,IAT(test05),2024.1.4,None,2024-07-05 15h04.23.275378 +0800,
自己,i,,,,,,,,,,,,,,,,,,,,,,,0,8,8,3,,,,,,,,,350.0505464999005,,,,,,,,,,,,,,,,349.99907619995065,350.0505464999005,350.51975259999745,,,,,,,,,,,,,,,,,,,,,,,,,,,,,,,,,,,,,,,,,,,,,,,,,,,,,,,,,,,,,,350.5197798999725,350.56210739992093,350.56210739992093,351.050523999962,i,1,0.47844519990030676,None,351.05101159994956,351.0988367999671,352.0669075999176,,,,,,,,,,,,,,,,,,,,,,,,,,,,,,,,,,,,,1,001,2024-07-05_15h04.00.146,IAT(test05),2024.1.4,None,2024-07-05 15h04.23.275378 +0800,
他,e,,,,,,,,,,,,,,,,,,,,,,,0,9,9,5,,,,,,,,,352.11494389991276,,,,,,,,,,,,,,,,352.06731429998763,352.11494389991276,352.59854279994033,,,,,,,,,,,,,,,,,,,,,,,,,,,,,,,,,,,,,,,,,,,,,,,,,,,,,,,,,,,,,,352.5986013999209,352.6436838998925,352.6436838998925,353.18456929991953,e,1,0.4984329000581056,None,353.1849025998963,353.2369213999482,354.2174849999137,,,,,,,,,,,,,,,,,,,,,,,,,,,,,,,,,,,,,1,001,2024-07-05_15h04.00.146,IAT(test05),2024.1.4,None,2024-07-05 15h04.23.275378 +0800,
,,,,,,,,,,,,,,,,,,,,,,,,,,,,,,,,,,,,,,,,,,,,,,,,,,,,,,,,,,,,,,,,,,,,,,,,,,,,,,,,,,,,,,,,,,,,,,,,,,,,,,,,,,,,,,,,,,,,,,,,,,,,,,,354.21758969989605,354.26702849997673,354.26702849997673,355.5985099999234,space,1.2789010000415146,None,,,,,,,,,,,,,,,,,,,,,,,,,,,,,,1,001,2024-07-05_15h04.00.146,IAT(test05),2024.1.4,None,2024-07-05 15h04.23.275378 +0800,
,,勤奋,i,,,,,,,,,,,,,,,,,,,,,,,,,0,0,0,8,,,,,355.64119969995227,,,,,,,,,,,,,,,,355.6200690999394,355.64119969995227,356.114289799938,,,,,,,,,,,,,,,,,,,,,,,,,,,,,,,,,,,,,,,,,,,,,,,,,,,,,,,,,,,,,,,,,,,,,,,,,,,,,,,,356.11433249991387,356.18760749988724,356.18760749988724,356.9030619999394,e,0,0.6935899000382051,None,356.90386899991427,356.96265839994885,357.93138439999893,,,,,,,,,,,,,,,,,,,1,001,2024-07-05_15h04.00.146,IAT(test05),2024.1.4,None,2024-07-05 15h04.23.275378 +0800,
,,活泼,i,,,,,,,,,,,,,,,,,,,,,,,,,0,1,1,18,,,,,357.9689444999676,,,,,,,,,,,,,,,,357.9320966999512,357.9689444999676,358.40719579998404,,,,,,,,,,,,,,,,,,,,,,,,,,,,,,,,,,,,,,,,,,,,,,,,,,,,,,,,,,,,,,,,,,,,,,,,,,,,,,,,358.40724390000105,358.4857042999938,358.4857042999938,359.07024069991894,i,1,0.5684022000059485,None,359.0705491999397,359.1233396999305,360.0731087999884,,,,,,,,,,,,,,,,,,,1,001,2024-07-05_15h04.00.146,IAT(test05),2024.1.4,None,2024-07-05 15h04.23.275378 +0800,
,,轻率,e,,,,,,,,,,,,,,,,,,,,,,,,,0,2,2,38,,,,,360.1056699999608,,,,,,,,,,,,,,,,360.07354199991096,360.1056699999608,360.6109815998934,,,,,,,,,,,,,,,,,,,,,,,,,,,,,,,,,,,,,,,,,,,,,,,,,,,,,,,,,,,,,,,,,,,,,,,,,,,,,,,,360.61104179988615,360.6859537999844,360.6859537999844,361.43267119990196,e,1,0.691540600033477,None,361.43344149994664,361.48688339989167,362.4593863999471,,,,,,,,,,,,,,,,,,,1,001,2024-07-05_15h04.00.146,IAT(test05),2024.1.4,None,2024-07-05 15h04.23.275378 +0800,
,,崇高,i,,,,,,,,,,,,,,,,,,,,,,,,,0,3,3,1,,,,,362.5066174999811,,,,,,,,,,,,,,,,362.459758699988,362.5066174999811,362.98379379999824,,,,,,,,,,,,,,,,,,,,,,,,,,,,,,,,,,,,,,,,,,,,,,,,,,,,,,,,,,,,,,,,,,,,,,,,,,,,,,,,362.9838108998956,363.05354689992964,363.05354689992964,363.6323837999953,i,1,0.5349283999530599,None,363.63280199992005,363.69144289998803,364.67935559991747,,,,,,,,,,,,,,,,,,,1,001,2024-07-05_15h04.00.146,IAT(test05),2024.1.4,None,2024-07-05 15h04.23.275378 +0800,
,,固执,e,,,,,,,,,,,,,,,,,,,,,,,,,0,4,4,37,,,,,364.6973276999779,,,,,,,,,,,,,,,,364.6801001999993,364.6973276999779,365.13315749994945,,,,,,,,,,,,,,,,,,,,,,,,,,,,,,,,,,,,,,,,,,,,,,,,,,,,,,,,,,,,,,,,,,,,,,,,,,,,,,,,365.133174699964,365.1903850999661,365.1903850999661,365.73693619994447,i,0,0.5154096999904141,None,365.7377288999269,365.7835303999018,366.74823819997255,,,,,,,,,,,,,,,,,,,1,001,2024-07-05_15h04.00.146,IAT(test05),2024.1.4,None,2024-07-05 15h04.23.275378 +0800,
,,正直,i,,,,,,,,,,,,,,,,,,,,,,,,,0,5,5,6,,,,,366.7932176999748,,,,,,,,,,,,,,,,366.7487323998939,366.7932176999748,367.2385782999918,,,,,,,,,,,,,,,,,,,,,,,,,,,,,,,,,,,,,,,,,,,,,,,,,,,,,,,,,,,,,,,,,,,,,,,,,,,,,,,,367.23862549988553,367.28458899992984,367.28458899992984,367.78280869999435,i,1,0.467523799976334,None,367.7836126999464,367.8215079999063,368.7985913999146,,,,,,,,,,,,,,,,,,,1,001,2024-07-05_15h04.00.146,IAT(test05),2024.1.4,None,2024-07-05 15h04.23.275378 +0800,
,,勇敢,i,,,,,,,,,,,,,,,,,,,,,,,,,0,6,6,7,,,,,368.8404123999644,,,,,,,,,,,,,,,,368.79937539994717,368.8404123999644,369.31191589997616,,,,,,,,,,,,,,,,,,,,,,,,,,,,,,,,,,,,,,,,,,,,,,,,,,,,,,,,,,,,,,,,,,,,,,,,,,,,,,,,369.3119579999475,369.3549665999599,369.3549665999599,370.20953089999966,i,1,0.810641499934718,None,370.2100024999818,370.2561932998942,371.2476025999058,,,,,,,,,,,,,,,,,,,1,001,2024-07-05_15h04.00.146,IAT(test05),2024.1.4,None,2024-07-05 15h04.23.275378 +0800,
,,无私,i,,,,,,,,,,,,,,,,,,,,,,,,,0,7,7,12,,,,,371.3048131999094,,,,,,,,,,,,,,,,371.24847439990845,371.3048131999094,371.73072549991775,,,,,,,,,,,,,,,,,,,,,,,,,,,,,,,,,,,,,,,,,,,,,,,,,,,,,,,,,,,,,,,,,,,,,,,,,,,,,,,,371.7307835998945,371.804801799939,371.804801799939,372.75979319994804,i,1,0.9491956999991089,None,372.7604121998884,372.79761999996845,373.7635427999776,,,,,,,,,,,,,,,,,,,1,001,2024-07-05_15h04.00.146,IAT(test05),2024.1.4,None,2024-07-05 15h04.23.275378 +0800,
,,杰出,i,,,,,,,,,,,,,,,,,,,,,,,,,0,8,8,3,,,,,373.7861959999427,,,,,,,,,,,,,,,,373.76412009994965,373.7861959999427,374.28487609990407,,,,,,,,,,,,,,,,,,,,,,,,,,,,,,,,,,,,,,,,,,,,,,,,,,,,,,,,,,,,,,,,,,,,,,,,,,,,,,,,374.28489299991634,374.32797839993145,374.32797839993145,375.00346319994424,e,0,0.6671673000091687,None,375.00379999994766,375.05216429999564,376.01938289997634,,,,,,,,,,,,,,,,,,,1,001,2024-07-05_15h04.00.146,IAT(test05),2024.1.4,None,2024-07-05 15h04.23.275378 +0800,
,,机智,i,,,,,,,,,,,,,,,,,,,,,,,,,0,9,9,9,,,,,376.0569279999472,,,,,,,,,,,,,,,,376.0203917999752,376.0569279999472,376.51894839992747,,,,,,,,,,,,,,,,,,,,,,,,,,,,,,,,,,,,,,,,,,,,,,,,,,,,,,,,,,,,,,,,,,,,,,,,,,,,,,,,376.519001299981,376.57470549992286,376.57470549992286,376.8284977999283,i,1,0.20849440002348274,None,376.8290612999117,376.8816318999743,377.85721940000076,,,,,,,,,,,,,,,,,,,1,001,2024-07-05_15h04.00.146,IAT(test05),2024.1.4,None,2024-07-05 15h04.23.275378 +0800,
,,刻薄,e,,,,,,,,,,,,,,,,,,,,,,,,,0,10,10,23,,,,,377.8737332999008,,,,,,,,,,,,,,,,377.8579992998857,377.8737332999008,378.3603956999723,,,,,,,,,,,,,,,,,,,,,,,,,,,,,,,,,,,,,,,,,,,,,,,,,,,,,,,,,,,,,,,,,,,,,,,,,,,,,,,,378.36042009992525,378.4038016999839,378.4038016999839,378.67928629997186,i,0,0.25590569991618395,None,378.680141299963,378.7304120999761,379.71094899997115,,,,,,,,,,,,,,,,,,,1,001,2024-07-05_15h04.00.146,IAT(test05),2024.1.4,None,2024-07-05 15h04.23.275378 +0800,
,,消极,e,,,,,,,,,,,,,,,,,,,,,,,,,0,11,11,25,,,,,379.7493243999779,,,,,,,,,,,,,,,,379.71127189998515,379.7493243999779,380.2232572999783,,,,,,,,,,,,,,,,,,,,,,,,,,,,,,,,,,,,,,,,,,,,,,,,,,,,,,,,,,,,,,,,,,,,,,,,,,,,,,,,380.2233016999671,380.265994999907,380.265994999907,381.10703649988864,i,0,0.8025282999733463,None,381.107494099997,381.16053149988875,382.1314466999611,,,,,,,,,,,,,,,,,,,1,001,2024-07-05_15h04.00.146,IAT(test05),2024.1.4,None,2024-07-05 15h04.23.275378 +0800,
,,自私,e,,,,,,,,,,,,,,,,,,,,,,,,,0,12,12,33,,,,,382.16965599998366,,,,,,,,,,,,,,,,382.13173479994293,382.16965599998366,382.64422139991075,,,,,,,,,,,,,,,,,,,,,,,,,,,,,,,,,,,,,,,,,,,,,,,,,,,,,,,,,,,,,,,,,,,,,,,,,,,,,,,,382.64424599998165,382.68867469998077,382.68867469998077,383.5978135999758,e,1,0.854302000021562,None,383.59867629990913,383.68802819994744,384.62087629991584,,,,,,,,,,,,,,,,,,,1,001,2024-07-05_15h04.00.146,IAT(test05),2024.1.4,None,2024-07-05 15h04.23.275378 +0800,
,,诚实,i,,,,,,,,,,,,,,,,,,,,,,,,,0,13,13,5,,,,,384.6665539999958,,,,,,,,,,,,,,,,384.6214455999434,384.6665539999958,385.1244866999332,,,,,,,,,,,,,,,,,,,,,,,,,,,,,,,,,,,,,,,,,,,,,,,,,,,,,,,,,,,,,,,,,,,,,,,,,,,,,,,,385.1245070999721,385.1813045999734,385.1813045999734,385.93621349998284,i,1,0.7053812999511138,None,385.9373136999784,385.9866090998985,386.964557099971,,,,,,,,,,,,,,,,,,,1,001,2024-07-05_15h04.00.146,IAT(test05),2024.1.4,None,2024-07-05 15h04.23.275378 +0800,
,,猖狂,e,,,,,,,,,,,,,,,,,,,,,,,,,0,14,14,35,,,,,387.01147279993165,,,,,,,,,,,,,,,,386.96485009999014,387.01147279993165,387.4475144998869,,,,,,,,,,,,,,,,,,,,,,,,,,,,,,,,,,,,,,,,,,,,,,,,,,,,,,,,,,,,,,,,,,,,,,,,,,,,,,,,387.4475499999244,387.4893934999127,387.4893934999127,387.89941279997583,i,0,0.3616457999451086,None,387.89973639999516,387.9592533999821,388.91487779992167,,,,,,,,,,,,,,,,,,,1,001,2024-07-05_15h04.00.146,IAT(test05),2024.1.4,None,2024-07-05 15h04.23.275378 +0800,
,,凶狠,e,,,,,,,,,,,,,,,,,,,,,,,,,0,15,15,32,,,,,388.955015799962,,,,,,,,,,,,,,,,388.91566029994283,388.955015799962,389.4165161999408,,,,,,,,,,,,,,,,,,,,,,,,,,,,,,,,,,,,,,,,,,,,,,,,,,,,,,,,,,,,,,,,,,,,,,,,,,,,,,,,389.4165650999639,389.4685991998995,389.4685991998995,389.8327396999812,i,0,0.3411291999509558,None,389.833141699899,389.8664870999055,390.8442580999108,,,,,,,,,,,,,,,,,,,1,001,2024-07-05_15h04.00.146,IAT(test05),2024.1.4,None,2024-07-05 15h04.23.275378 +0800,
,,稳重,i,,,,,,,,,,,,,,,,,,,,,,,,,0,16,16,11,,,,,390.88744899991434,,,,,,,,,,,,,,,,390.84462749992963,390.88744899991434,391.3662073999876,,,,,,,,,,,,,,,,,,,,,,,,,,,,,,,,,,,,,,,,,,,,,,,,,,,,,,,,,,,,,,,,,,,,,,,,,,,,,,,,391.3662676999811,391.45537419989705,391.45537419989705,392.0072220999282,e,0,0.5147242000093684,None,392.0080333999358,392.0552874999121,393.0630370998988,,,,,,,,,,,,,,,,,,,1,001,2024-07-05_15h04.00.146,IAT(test05),2024.1.4,None,2024-07-05 15h04.23.275378 +0800,
,,傲慢,e,,,,,,,,,,,,,,,,,,,,,,,,,0,17,17,27,,,,,393.11363399995025,,,,,,,,,,,,,,,,393.0637576999143,393.11363399995025,393.5564894999843,,,,,,,,,,,,,,,,,,,,,,,,,,,,,,,,,,,,,,,,,,,,,,,,,,,,,,,,,,,,,,,,,,,,,,,,,,,,,,,,393.55650619999506,393.5942342999624,393.5942342999624,393.96239289990626,i,0,0.359487000037916,None,393.9633376999991,393.9838967999676,394.96880209993105,,,,,,,,,,,,,,,,,,,1,001,2024-07-05_15h04.00.146,IAT(test05),2024.1.4,None,2024-07-05 15h04.23.275378 +0800,
,,卑鄙,e,,,,,,,,,,,,,,,,,,,,,,,,,0,18,18,20,,,,,394.97900579997804,,,,,,,,,,,,,,,,394.9696994998958,394.97900579997804,395.5006713999901,,,,,,,,,,,,,,,,,,,,,,,,,,,,,,,,,,,,,,,,,,,,,,,,,,,,,,,,,,,,,,,,,,,,,,,,,,,,,,,,395.5007064999081,395.57911939988844,395.57911939988844,396.9801925999345,None,0,,,396.9805374999996,397.01277009991463,397.99554589996114,,,,,,,,,,,,,,,,,,,1,001,2024-07-05_15h04.00.146,IAT(test05),2024.1.4,None,2024-07-05 15h04.23.275378 +0800,
,,细腻,i,,,,,,,,,,,,,,,,,,,,,,,,,0,19,19,15,,,,,398.04096369992476,,,,,,,,,,,,,,,,397.9959189998917,398.04096369992476,398.4890873999102,,,,,,,,,,,,,,,,,,,,,,,,,,,,,,,,,,,,,,,,,,,,,,,,,,,,,,,,,,,,,,,,,,,,,,,,,,,,,,,,398.4891060999362,398.56154409993906,398.56154409993906,399.9847953999415,None,0,,,399.9853185999673,400.0273605999537,400.97513569996227,,,,,,,,,,,,,,,,,,,1,001,2024-07-05_15h04.00.146,IAT(test05),2024.1.4,None,2024-07-05 15h04.23.275378 +0800,
,,鲁莽,e,,,,,,,,,,,,,,,,,,,,,,,,,0,20,20,28,,,,,401.03276519989595,,,,,,,,,,,,,,,,400.9754646999063,401.03276519989595,401.4820635999786,,,,,,,,,,,,,,,,,,,,,,,,,,,,,,,,,,,,,,,,,,,,,,,,,,,,,,,,,,,,,,,,,,,,,,,,,,,,,,,,401.4821058999514,401.5265783999348,401.5265783999348,403.0035118999658,None,0,,,403.00387089990545,403.06028049997985,403.96347339998465,,,,,,,,,,,,,,,,,,,1,001,2024-07-05_15h04.00.146,IAT(test05),2024.1.4,None,2024-07-05 15h04.23.275378 +0800,
,,愚蠢,e,,,,,,,,,,,,,,,,,,,,,,,,,0,21,21,22,,,,,404.0032921999227,,,,,,,,,,,,,,,,403.96425059996545,404.0032921999227,404.468526499928,,,,,,,,,,,,,,,,,,,,,,,,,,,,,,,,,,,,,,,,,,,,,,,,,,,,,,,,,,,,,,,,,,,,,,,,,,,,,,,,404.4685510999989,404.52596539992373,404.52596539992373,405.9724980999017,None,0,,,405.9727003999287,406.00984389998484,406.99747549998574,,,,,,,,,,,,,,,,,,,1,001,2024-07-05_15h04.00.146,IAT(test05),2024.1.4,None,2024-07-05 15h04.23.275378 +0800,
,,冷静,i,,,,,,,,,,,,,,,,,,,,,,,,,0,22,22,16,,,,,407.0343055999838,,,,,,,,,,,,,,,,406.99802829988766,407.0343055999838,407.4906847999664,,,,,,,,,,,,,,,,,,,,,,,,,,,,,,,,,,,,,,,,,,,,,,,,,,,,,,,,,,,,,,,,,,,,,,,,,,,,,,,,407.49072719994,407.55548449989874,407.55548449989874,408.9644775999477,None,0,,,408.9649515999481,408.9822994999122,410.0094827999128,,,,,,,,,,,,,,,,,,,1,001,2024-07-05_15h04.00.146,IAT(test05),2024.1.4,None,2024-07-05 15h04.23.275378 +0800,
,,乐观,i,,,,,,,,,,,,,,,,,,,,,,,,,0,23,23,4,,,,,410.0463572998997,,,,,,,,,,,,,,,,410.00977369991597,410.0463572998997,410.4836496999487,,,,,,,,,,,,,,,,,,,,,,,,,,,,,,,,,,,,,,,,,,,,,,,,,,,,,,,,,,,,,,,,,,,,,,,,,,,,,,,,410.4836895999033,410.5296210999368,410.5296210999368,411.9826117999619,None,0,,,411.9832981999498,412.02626519999467,412.96844399999827,,,,,,,,,,,,,,,,,,,1,001,2024-07-05_15h04.00.146,IAT(test05),2024.1.4,None,2024-07-05 15h04.23.275378 +0800,
,,认真,i,,,,,,,,,,,,,,,,,,,,,,,,,0,24,24,10,,,,,412.98164449993055,,,,,,,,,,,,,,,,412.9688479999313,412.98164449993055,413.5044019999914,,,,,,,,,,,,,,,,,,,,,,,,,,,,,,,,,,,,,,,,,,,,,,,,,,,,,,,,,,,,,,,,,,,,,,,,,,,,,,,,413.50442639994435,413.5438040998997,413.5438040998997,415.00719479995314,None,0,,,415.00743669993244,415.0548644999508,416.001620199997,,,,,,,,,,,,,,,,,,,1,001,2024-07-05_15h04.00.146,IAT(test05),2024.1.4,None,2024-07-05 15h04.23.275378 +0800,
,,悲观,e,,,,,,,,,,,,,,,,,,,,,,,,,0,25,25,24,,,,,416.01885269989725,,,,,,,,,,,,,,,,416.0020299999742,416.01885269989725,416.46972089994233,,,,,,,,,,,,,,,,,,,,,,,,,,,,,,,,,,,,,,,,,,,,,,,,,,,,,,,,,,,,,,,,,,,,,,,,,,,,,,,,416.46974909992423,416.521056599915,416.521056599915,418.0005173999816,None,0,,,418.0015347999288,418.0630458999658,419.01653759996407,,,,,,,,,,,,,,,,,,,1,001,2024-07-05_15h04.00.146,IAT(test05),2024.1.4,None,2024-07-05 15h04.23.275378 +0800,
,,诚恳,i,,,,,,,,,,,,,,,,,,,,,,,,,0,26,26,19,,,,,419.0673052999191,,,,,,,,,,,,,,,,419.017338699894,419.0673052999191,419.4674355998868,,,,,,,,,,,,,,,,,,,,,,,,,,,,,,,,,,,,,,,,,,,,,,,,,,,,,,,,,,,,,,,,,,,,,,,,,,,,,,,,419.46747229993343,419.52351519989315,419.52351519989315,420.99059099995065,None,0,,,420.9910459999228,421.0360914999619,421.96986799989827,,,,,,,,,,,,,,,,,,,1,001,2024-07-05_15h04.00.146,IAT(test05),2024.1.4,None,2024-07-05 15h04.23.275378 +0800,
,,冒失,e,,,,,,,,,,,,,,,,,,,,,,,,,0,27,27,29,,,,,422.00634899991564,,,,,,,,,,,,,,,,421.9706696999492,422.00634899991564,422.4944996999111,,,,,,,,,,,,,,,,,,,,,,,,,,,,,,,,,,,,,,,,,,,,,,,,,,,,,,,,,,,,,,,,,,,,,,,,,,,,,,,,422.4945131998975,422.5410843999125,422.5410843999125,423.997462399886,None,0,,,423.9978809999302,424.03743649995886,424.9830973999342,,,,,,,,,,,,,,,,,,,1,001,2024-07-05_15h04.00.146,IAT(test05),2024.1.4,None,2024-07-05 15h04.23.275378 +0800,
,,自卑,e,,,,,,,,,,,,,,,,,,,,,,,,,0,28,28,26,,,,,425.02340159995947,,,,,,,,,,,,,,,,424.9835601999657,425.02340159995947,425.49181789997965,,,,,,,,,,,,,,,,,,,,,,,,,,,,,,,,,,,,,,,,,,,,,,,,,,,,,,,,,,,,,,,,,,,,,,,,,,,,,,,,425.49189159995876,425.5514196999138,425.5514196999138,426.9927344999742,None,0,,,426.99309749994427,427.0401514999103,427.9998985999264,,,,,,,,,,,,,,,,,,,1,001,2024-07-05_15h04.00.146,IAT(test05),2024.1.4,None,2024-07-05 15h04.23.275378 +0800,
,,优秀,i,,,,,,,,,,,,,,,,,,,,,,,,,0,29,29,0,,,,,428.0423961998895,,,,,,,,,,,,,,,,428.00060479994863,428.0423961998895,428.4903657999821,,,,,,,,,,,,,,,,,,,,,,,,,,,,,,,,,,,,,,,,,,,,,,,,,,,,,,,,,,,,,,,,,,,,,,,,,,,,,,,,428.49039329995867,428.57903709996026,428.57903709996026,429.99035039998125,None,0,,,429.9906360999448,430.0367599999299,430.9997044999618,,,,,,,,,,,,,,,,,,,1,001,2024-07-05_15h04.00.146,IAT(test05),2024.1.4,None,2024-07-05 15h04.23.275378 +0800,
,,野蛮,e,,,,,,,,,,,,,,,,,,,,,,,,,0,30,30,36,,,,,431.0387325999327,,,,,,,,,,,,,,,,431.00035739992745,431.0387325999327,431.48636189999525,,,,,,,,,,,,,,,,,,,,,,,,,,,,,,,,,,,,,,,,,,,,,,,,,,,,,,,,,,,,,,,,,,,,,,,,,,,,,,,,431.4863935998874,431.52868949994445,431.52868949994445,432.9990172999678,None,0,,,432.99966009997297,433.0534463999793,433.99033619998954,,,,,,,,,,,,,,,,,,,1,001,2024-07-05_15h04.00.146,IAT(test05),2024.1.4,None,2024-07-05 15h04.23.275378 +0800,
,,聪明,i,,,,,,,,,,,,,,,,,,,,,,,,,0,31,31,2,,,,,434.0446341999341,,,,,,,,,,,,,,,,433.9907732999418,434.0446341999341,434.48973409994505,,,,,,,,,,,,,,,,,,,,,,,,,,,,,,,,,,,,,,,,,,,,,,,,,,,,,,,,,,,,,,,,,,,,,,,,,,,,,,,,434.48974989994895,434.58126939996146,434.58126939996146,436.0003771999618,None,0,,,436.00146239995956,436.0536466999911,436.9845255999826,,,,,,,,,,,,,,,,,,,1,001,2024-07-05_15h04.00.146,IAT(test05),2024.1.4,None,2024-07-05 15h04.23.275378 +0800,
,,执拗,e,,,,,,,,,,,,,,,,,,,,,,,,,0,32,32,30,,,,,437.00196589995176,,,,,,,,,,,,,,,,436.9849840999814,437.00196589995176,437.4824220999144,,,,,,,,,,,,,,,,,,,,,,,,,,,,,,,,,,,,,,,,,,,,,,,,,,,,,,,,,,,,,,,,,,,,,,,,,,,,,,,,437.48245429992676,437.5244519999251,437.5244519999251,438.52483239991125,i,0,0.9932063000742346,None,438.5253408999415,438.57276869995985,439.588467799942,,,,,,,,,,,,,,,,,,,1,001,2024-07-05_15h04.00.146,IAT(test05),2024.1.4,None,2024-07-05 15h04.23.275378 +0800,
,,下贱,e,,,,,,,,,,,,,,,,,,,,,,,,,0,33,33,39,,,,,439.6438819998875,,,,,,,,,,,,,,,,439.58881589991506,439.6438819998875,440.04409639991354,,,,,,,,,,,,,,,,,,,,,,,,,,,,,,,,,,,,,,,,,,,,,,,,,,,,,,,,,,,,,,,,,,,,,,,,,,,,,,,,440.04411939997226,440.09378609992564,440.09378609992564,440.76826599997,e,1,0.6639690999872983,None,440.76869489997625,440.810729199904,441.77680309989955,,,,,,,,,,,,,,,,,,,1,001,2024-07-05_15h04.00.146,IAT(test05),2024.1.4,None,2024-07-05 15h04.23.275378 +0800,
,,散漫,e,,,,,,,,,,,,,,,,,,,,,,,,,0,34,34,31,,,,,441.8115675000008,,,,,,,,,,,,,,,,441.7773700999096,441.8115675000008,442.297803799971,,,,,,,,,,,,,,,,,,,,,,,,,,,,,,,,,,,,,,,,,,,,,,,,,,,,,,,,,,,,,,,,,,,,,,,,,,,,,,,,442.2978329999605,442.34425689990167,442.34425689990167,442.9067542999983,i,0,0.5504982999991626,None,442.9070988999447,442.9398651999654,443.92516429990064,,,,,,,,,,,,,,,,,,,1,001,2024-07-05_15h04.00.146,IAT(test05),2024.1.4,None,2024-07-05 15h04.23.275378 +0800,
,,暴躁,e,,,,,,,,,,,,,,,,,,,,,,,,,0,35,35,34,,,,,443.97552999993786,,,,,,,,,,,,,,,,443.9256575999316,443.97552999993786,444.44262109999545,,,,,,,,,,,,,,,,,,,,,,,,,,,,,,,,,,,,,,,,,,,,,,,,,,,,,,,,,,,,,,,,,,,,,,,,,,,,,,,,444.44267019990366,444.48526429990306,444.48526429990306,445.05259379989,e,1,0.5407838000683114,None,445.0530279999366,445.1093402999686,446.0996959999902,,,,,,,,,,,,,,,,,,,1,001,2024-07-05_15h04.00.146,IAT(test05),2024.1.4,None,2024-07-05 15h04.23.275378 +0800,
,,虚伪,e,,,,,,,,,,,,,,,,,,,,,,,,,0,36,36,21,,,,,446.143407399999,,,,,,,,,,,,,,,,446.10008239990566,446.143407399999,446.6001536999829,,,,,,,,,,,,,,,,,,,,,,,,,,,,,,,,,,,,,,,,,,,,,,,,,,,,,,,,,,,,,,,,,,,,,,,,,,,,,,,,446.60020099999383,446.6449617999606,446.6449617999606,447.0868119999068,i,0,0.4036112999310717,None,447.0876010999782,447.1262508999789,448.10739559994545,,,,,,,,,,,,,,,,,,,1,001,2024-07-05_15h04.00.146,IAT(test05),2024.1.4,None,2024-07-05 15h04.23.275378 +0800,
