Words,ans,Words_ipn,ans_ipn,Words_t1,ans_t1,Words_t2,ans_t2,Practice_01.thisRepN,Practice_01.thisTrialN,Practice_01.thisN,Practice_01.thisIndex,Practice_02.thisRepN,Practice_02.thisTrialN,Practice_02.thisN,Practice_02.thisIndex,Practice_T1.thisRepN,Practice_T1.thisTrialN,Practice_T1.thisN,Practice_T1.thisIndex,Formal_T1.thisRepN,Formal_T1.thisTrialN,Formal_T1.thisN,Formal_T1.thisIndex,Practice_iso_Reverse.thisRepN,Practice_iso_Reverse.thisTrialN,Practice_iso_Reverse.thisN,Practice_iso_Reverse.thisIndex,Practice_t2_Reverse.thisRepN,Practice_t2_Reverse.thisTrialN,Practice_t2_Reverse.thisN,Practice_t2_Reverse.thisIndex,thisRow.t,notes,Instruction01.started,Instruction_01.started,Instruction1.started,Instruction01.stopped,Instruction1.keys,Instruction1.rt,Instruction1.duration,Instruction02.started,Instruction_02.started,Instruction2.started,Instruction02.stopped,Instruction2.keys,Instruction2.rt,Instruction2.duration,Fix.started,fix.started,Fix.stopped,Practice_iso.started,text.started,key_resp_iso.started,Practice_iso.stopped,key_resp_iso.keys,key_resp_iso.corr,key_resp_iso.rt,key_resp_iso.duration,Feedback_iso_Practice.started,fb.started,Feedback_iso_Practice.stopped,fix.stopped,fb.stopped,Instruction03.started,Instruction_03.started,key_resp_3.started,Instruction03.stopped,key_resp_3.keys,key_resp_3.rt,key_resp_3.duration,Practic_ipn.started,text_2.started,key_resp_ipn.started,Practic_ipn.stopped,key_resp_ipn.keys,key_resp_ipn.corr,key_resp_ipn.rt,key_resp_ipn.duration,Feedback_ipn_Practice.started,fb_3.started,fb_3.stopped,Feedback_ipn_Practice.stopped,Instruction04.started,Instruction_04.started,key_resp_4.started,Instruction04.stopped,key_resp_4.keys,key_resp_4.rt,key_resp_4.duration,Practice_t1.started,text_3.started,key_resp_t1.started,Practice_t1.stopped,key_resp_t1.keys,key_resp_t1.corr,key_resp_t1.rt,key_resp_t1.duration,Feedback_t1.started,fb_2.started,Feedback_t1.stopped,fb_2.stopped,text_3.stopped,key_resp_t1.stopped,Instruction05.started,Instruction_05.started,key_resp_5.started,Instruction05.stopped,key_resp_5.keys,key_resp_5.rt,key_resp_5.duration,Instruction06.started,Instruction_06.started,key_resp_6.started,Instruction06.stopped,key_resp_6.keys,key_resp_6.rt,key_resp_6.duration,Practice_iso_reverse.started,text_4.started,key_resp_iso_reverse.started,Practice_iso_reverse.stopped,key_resp_iso_reverse.keys,key_resp_iso_reverse.corr,key_resp_iso_reverse.rt,key_resp_iso_reverse.duration,Feedback_iso_reverse.started,fb_4.started,fb_4.stopped,Feedback_iso_reverse.stopped,Instruction07.started,Instruction_07.started,key_resp_7.started,Instruction07.stopped,key_resp_7.keys,key_resp_7.rt,key_resp_7.duration,Practice_t2_reverse.started,text_5.started,key_resp_t2_reverse.started,Practice_t2_reverse.stopped,key_resp_t2_reverse.keys,key_resp_t2_reverse.corr,key_resp_t2_reverse.rt,key_resp_t2_reverse.duration,Feedback_t2_reverse.started,fb_7.started,fb_7.stopped,Feedback_t2_reverse.stopped,text_5.stopped,key_resp_t2_reverse.stopped,participant,session,date,expName,psychopyVersion,frameRate,expStart,
,,,,,,,,,,,,,,,,,,,,,,,,,,,,,,,,,,0.005236000055447221,0.019551899982616305,0.019551899982616305,2.1559124998748302,space,2.0773398000746965,None,,,,,,,,,,,,,,,,,,,,,,,,,,,,,,,,,,,,,,,,,,,,,,,,,,,,,,,,,,,,,,,,,,,,,,,,,,,,,,,,,,,,,,,,,,,,,,,,,,,,,,,,,,,,,,,1,001,2024-07-08_19h16.40.807,IAT(test06),2024.1.4,None,2024-07-08 19h16.49.269378 +0800,
,,,,,,,,,,,,,,,,,,,,,,,,,,,,,,,,,,,,,,,,,2.155944800004363,2.1596595998853445,2.1596595998853445,3.1696462999098003,space,1.0048960000276566,None,,,,,,,,,,,,,,,,,,,,,,,,,,,,,,,,,,,,,,,,,,,,,,,,,,,,,,,,,,,,,,,,,,,,,,,,,,,,,,,,,,,,,,,,,,,,,,,,,,,,,,,,1,001,2024-07-08_19h16.40.807,IAT(test06),2024.1.4,None,2024-07-08 19h16.49.269378 +0800,
俺,e,,,,,,,0,0,0,4,,,,,,,,,,,,,,,,,,,,,3.1877196000423282,,,,,,,,,,,,,,,,3.181859500007704,3.1877196000423282,3.672081199940294,3.672094800043851,3.68852819991298,3.68852819991298,4.258713499875739,e,1,0.5682745999656618,None,4.259145600022748,4.289088299963623,5.2592783998698,,,,,,,,,,,,,,,,,,,,,,,,,,,,,,,,,,,,,,,,,,,,,,,,,,,,,,,,,,,,,,,,,,,,,,,,,,,,,,,,,,,,,,,,,,1,001,2024-07-08_19h16.40.807,IAT(test06),2024.1.4,None,2024-07-08 19h16.49.269378 +0800,
其他,i,,,,,,,0,1,1,9,,,,,,,,,,,,,,,,,,,,,5.262969400035217,,,,,,,,,,,,,,,,5.2595412998925894,5.262969400035217,5.7542779999785125,5.75430199992843,5.775736500043422,5.775736500043422,6.3244149999227375,i,1,0.5350129001308233,None,6.324698699871078,6.328374299919233,7.322172800078988,5.775736500043422,7.326313199941069,,,,,,,,,,,,,,,,,,,,,,,,,,,,,,,,,,,,,,,,,,,,,,,,,,,,,,,,,,,,,,,,,,,,,,,,,,,,,,,,,,,,,,,,1,001,2024-07-08_19h16.40.807,IAT(test06),2024.1.4,None,2024-07-08 19h16.49.269378 +0800,
我的,e,,,,,,,0,2,2,1,,,,,,,,,,,,,,,,,,,,,7.326313199941069,,,,,,,,,,,,,,,,7.322410200024024,7.326313199941069,7.821550599997863,7.821566700004041,7.84268040000461,7.84268040000461,8.421605299925432,i,0,0.5696660000830889,None,8.421909699914977,8.443091599969193,9.424056800082326,7.84268040000461,,,,,,,,,,,,,,,,,,,,,,,,,,,,,,,,,,,,,,,,,,,,,,,,,,,,,,,,,,,,,,,,,,,,,,,,,,,,,,,,,,,,,,,,,1,001,2024-07-08_19h16.40.807,IAT(test06),2024.1.4,None,2024-07-08 19h16.49.269378 +0800,
他人,i,,,,,,,0,3,3,8,,,,,,,,,,,,,,,,,,,,,9.42607060004957,,,,,,,,,,,,,,,,9.424303899984807,9.42607060004957,9.924220399931073,9.924236699938774,9.943506899988279,9.943506899988279,10.374104799935594,i,1,0.4274933999404311,None,10.374366600066423,10.390761899994686,11.37371820001863,,11.39022669987753,,,,,,,,,,,,,,,,,,,,,,,,,,,,,,,,,,,,,,,,,,,,,,,,,,,,,,,,,,,,,,,,,,,,,,,,,,,,,,,,,,,,,,,,1,001,2024-07-08_19h16.40.807,IAT(test06),2024.1.4,None,2024-07-08 19h16.49.269378 +0800,
我们,e,,,,,,,0,4,4,2,,,,,,,,,,,,,,,,,,,,,11.39022669987753,,,,,,,,,,,,,,,,11.373923500068486,11.39022669987753,11.88715359987691,11.88716879999265,11.906633399892598,11.906633399892598,12.393661400070414,e,1,0.4843477997928858,None,12.393916900036857,12.397210699971765,13.39057829999365,,13.39308589999564,,,,,,,,,,,,,,,,,,,,,,,,,,,,,,,,,,,,,,,,,,,,,,,,,,,,,,,,,,,,,,,,,,,,,,,,,,,,,,,,,,,,,,,,1,001,2024-07-08_19h16.40.807,IAT(test06),2024.1.4,None,2024-07-08 19h16.49.269378 +0800,
我,e,,,,,,,0,5,5,0,,,,,,,,,,,,,,,,,,,,,13.39308589999564,,,,,,,,,,,,,,,,13.390814899932593,13.39308589999564,13.886761700036004,13.886781400069594,13.890430700033903,13.890430700033903,14.369501299923286,e,1,0.47339900000952184,None,14.369755799882114,14.373361499980092,15.357490699971095,13.890430700033903,15.359568800078705,,,,,,,,,,,,,,,,,,,,,,,,,,,,,,,,,,,,,,,,,,,,,,,,,,,,,,,,,,,,,,,,,,,,,,,,,,,,,,,,,,,,,,,,1,001,2024-07-08_19h16.40.807,IAT(test06),2024.1.4,None,2024-07-08 19h16.49.269378 +0800,
自己,e,,,,,,,0,6,6,3,,,,,,,,,,,,,,,,,,,,,15.359568800078705,,,,,,,,,,,,,,,,15.357719500083476,15.359568800078705,15.858286099974066,15.858301499858499,15.879720499971882,15.879720499971882,16.288566200062633,e,1,0.4031598998699337,None,16.288855999941006,16.29394569993019,17.287673499900848,15.879720499971882,17.290757699869573,,,,,,,,,,,,,,,,,,,,,,,,,,,,,,,,,,,,,,,,,,,,,,,,,,,,,,,,,,,,,,,,,,,,,,,,,,,,,,,,,,,,,,,,1,001,2024-07-08_19h16.40.807,IAT(test06),2024.1.4,None,2024-07-08 19h16.49.269378 +0800,
他的,i,,,,,,,0,7,7,7,,,,,,,,,,,,,,,,,,,,,17.290757699869573,,,,,,,,,,,,,,,,17.28792400006205,17.290757699869573,17.77374510001391,17.773758800001815,17.789802900049835,17.789802900049835,18.19236469990574,e,0,0.39611199987120926,None,18.192630500067025,18.19988580001518,19.19083199999295,17.789802900049835,19.193959299940616,,,,,,,,,,,,,,,,,,,,,,,,,,,,,,,,,,,,,,,,,,,,,,,,,,,,,,,,,,,,,,,,,,,,,,,,,,,,,,,,,,,,,,,,1,001,2024-07-08_19h16.40.807,IAT(test06),2024.1.4,None,2024-07-08 19h16.49.269378 +0800,
他,i,,,,,,,0,8,8,5,,,,,,,,,,,,,,,,,,,,,19.193959299940616,,,,,,,,,,,,,,,,19.19110370008275,19.193959299940616,19.687944300007075,19.687958599999547,19.69132629991509,19.69132629991509,20.057137900032103,e,0,0.3491662999149412,None,20.05739099998027,20.061679400037974,21.057535500032827,19.69132629991509,,,,,,,,,,,,,,,,,,,,,,,,,,,,,,,,,,,,,,,,,,,,,,,,,,,,,,,,,,,,,,,,,,,,,,,,,,,,,,,,,,,,,,,,,1,001,2024-07-08_19h16.40.807,IAT(test06),2024.1.4,None,2024-07-08 19h16.49.269378 +0800,
他们,i,,,,,,,0,9,9,6,,,,,,,,,,,,,,,,,,,,,21.060483600012958,,,,,,,,,,,,,,,,21.057770499959588,21.060483600012958,21.555011899909005,21.55502979992889,21.5587561998982,21.5587561998982,22.05787179991603,i,1,0.49506149999797344,None,22.05822389991954,22.064410699997097,23.058063099859282,21.5587561998982,23.062835599994287,,,,,,,,,,,,,,,,,,,,,,,,,,,,,,,,,,,,,,,,,,,,,,,,,,,,,,,,,,,,,,,,,,,,,,,,,,,,,,,,,,,,,,,,1,001,2024-07-08_19h16.40.807,IAT(test06),2024.1.4,None,2024-07-08 19h16.49.269378 +0800,
,,,,,,,,,,,,,,,,,,,,,,,,,,,,,,,,,,,,,,,,,,,,,,,,,,,,,,,,,,,,,,,,23.058124899864197,23.062835599994287,23.062835599994287,23.72445850004442,space,0.6477854000404477,None,,,,,,,,,,,,,,,,,,,,,,,,,,,,,,,,,,,,,,,,,,,,,,,,,,,,,,,,,,,,,,,,,,,,,,,,,,,,,,,,,1,001,2024-07-08_19h16.40.807,IAT(test06),2024.1.4,None,2024-07-08 19h16.49.269378 +0800,
,,凶狠,i,,,,,,,,,0,0,0,32,,,,,,,,,,,,,,,,,23.741694400087,,,,,,,,,,,,,,,,23.736907399958,23.741694400087,24.226738200057298,,,,,,,,,,,,,,,,,,,,,24.22675310005434,24.244037199998274,24.244037199998274,24.672585299937055,e,0,0.42464189999736845,None,24.6731495000422,24.67711509997025,25.663394500035793,25.661317999940366,,,,,,,,,,,,,,,,,,,,,,,,,,,,,,,,,,,,,,,,,,,,,,,,,,,,,,,,,,,,,,,,,,,,,1,001,2024-07-08_19h16.40.807,IAT(test06),2024.1.4,None,2024-07-08 19h16.49.269378 +0800,
,,固执,i,,,,,,,,,0,1,1,37,,,,,,,,,,,,,,,,,25.663394500035793,,,,,,,,,,,,,,,,25.661538699874654,25.663394500035793,26.160581599920988,,,,,,,,,,,,26.182075300021097,,,,,,,,,26.160597400041297,26.182075300021097,26.182075300021097,26.39227529987693,i,1,0.19665509997867048,None,26.392538799904287,26.39738389989361,27.39364969986491,27.39105480001308,,,,,,,,,,,,,,,,,,,,,,,,,,,,,,,,,,,,,,,,,,,,,,,,,,,,,,,,,,,,,,,,,,,,,1,001,2024-07-08_19h16.40.807,IAT(test06),2024.1.4,None,2024-07-08 19h16.49.269378 +0800,
,,勇敢,e,,,,,,,,,0,2,2,7,,,,,,,,,,,,,,,,,27.39364969986491,,,,,,,,,,,,,,,,27.391283700009808,27.39364969986491,27.887065300019458,,,,,,,,,,,,27.90769620006904,,,,,,,,,27.887104199966416,27.90769620006904,27.90769620006904,28.76573109999299,i,0,0.8550539000425488,None,28.766103999922052,28.77094419999048,29.758191199973226,29.755543499952182,,,,,,,,,,,,,,,,,,,,,,,,,,,,,,,,,,,,,,,,,,,,,,,,,,,,,,,,,,,,,,,,,,,,,1,001,2024-07-08_19h16.40.807,IAT(test06),2024.1.4,None,2024-07-08 19h16.49.269378 +0800,
,,执拗,i,,,,,,,,,0,3,3,30,,,,,,,,,,,,,,,,,29.758191199973226,,,,,,,,,,,,,,,,29.755957700079307,29.758191199973226,30.257250499911606,,,,,,,,,,,,30.276528700022027,,,,,,,,,30.257267199922353,30.276528700022027,30.276528700022027,31.03042640001513,i,1,0.7515304998960346,None,31.03067240002565,31.035724699962884,,32.03443209989928,,,,,,,,,,,,,,,,,,,,,,,,,,,,,,,,,,,,,,,,,,,,,,,,,,,,,,,,,,,,,,,,,,,,,1,001,2024-07-08_19h16.40.807,IAT(test06),2024.1.4,None,2024-07-08 19h16.49.269378 +0800,
,,虚伪,i,,,,,,,,,0,4,4,21,,,,,,,,,,,,,,,,,32.03762309998274,,,,,,,,,,,,,,,,32.03479960002005,32.03762309998274,32.52501089987345,,,,,,,,,,,,32.5469732999336,,,,,,,,,32.52502779988572,32.5469732999336,32.5469732999336,33.02181349997409,i,1,0.45928089995868504,None,33.02211349993013,33.025178799871355,34.026673400076106,34.01125260000117,,,,,,,,,,,,,,,,,,,,,,,,,,,,,,,,,,,,,,,,,,,,,,,,,,,,,,,,,,,,,,,,,,,,,1,001,2024-07-08_19h16.40.807,IAT(test06),2024.1.4,None,2024-07-08 19h16.49.269378 +0800,
,,认真,e,,,,,,,,,0,5,5,10,,,,,,,,,,,,,,,,,34.026673400076106,,,,,,,,,,,,,,,,34.011575900018215,34.026673400076106,34.5243027000688,,,,,,,,,,,,,,,,,,,,,34.52431709994562,34.547759799985215,34.547759799985215,34.862023799913004,e,1,0.3127339999191463,None,34.862246999982744,34.865990800084546,35.860127199906856,35.85680290008895,,,,,,,,,,,,,,,,,,,,,,,,,,,,,,,,,,,,,,,,,,,,,,,,,,,,,,,,,,,,,,,,,,,,,1,001,2024-07-08_19h16.40.807,IAT(test06),2024.1.4,None,2024-07-08 19h16.49.269378 +0800,
,,悲观,i,,,,,,,,,0,6,6,24,,,,,,,,,,,,,,,,,35.860127199906856,,,,,,,,,,,,,,,,35.85705489991233,35.860127199906856,36.35507629998028,,,,,,,,,,,,36.3771905999165,,,,,,,,,36.35509640001692,36.3771905999165,36.3771905999165,36.9905292999465,i,1,0.603616900043562,None,36.990960699971765,36.99760770006105,37.99290019995533,37.98935199994594,,,,,,,,,,,,,,,,,,,,,,,,,,,,,,,,,,,,,,,,,,,,,,,,,,,,,,,,,,,,,,,,,,,,,1,001,2024-07-08_19h16.40.807,IAT(test06),2024.1.4,None,2024-07-08 19h16.49.269378 +0800,
,,诚恳,e,,,,,,,,,0,7,7,19,,,,,,,,,,,,,,,,,37.99290019995533,,,,,,,,,,,,,,,,37.98963569989428,37.99290019995533,38.4897670999635,,,,,,,,,,,,38.51543439994566,,,,,,,,,38.48979220003821,38.51543439994566,38.51543439994566,39.25872129993513,e,1,0.7418239000253379,None,39.25899080000818,39.26451470004395,40.25968250003643,40.25722540006973,,,,,,,,,,,,,,,,,,,,,,,,,,,,,,,,,,,,,,,,,,,,,,,,,,,,,,,,,,,,,,,,,,,,,1,001,2024-07-08_19h16.40.807,IAT(test06),2024.1.4,None,2024-07-08 19h16.49.269378 +0800,
,,自私,i,,,,,,,,,0,8,8,33,,,,,,,,,,,,,,,,,40.25968250003643,,,,,,,,,,,,,,,,40.25747670000419,40.25968250003643,40.7540663999971,,,,,,,,,,,,40.77522880001925,,,,,,,,,40.75408590002917,40.77522880001925,40.77522880001925,41.25740460003726,i,1,0.47680579987354577,None,41.25768640008755,41.26308439997956,42.26324749994092,42.248091199900955,,,,,,,,,,,,,,,,,,,,,,,,,,,,,,,,,,,,,,,,,,,,,,,,,,,,,,,,,,,,,,,,,,,,,1,001,2024-07-08_19h16.40.807,IAT(test06),2024.1.4,None,2024-07-08 19h16.49.269378 +0800,
,,冒失,i,,,,,,,,,0,9,9,29,,,,,,,,,,,,,,,,,42.26324749994092,,,,,,,,,,,,,,,,42.24833279987797,42.26324749994092,42.75572369992733,,,,,,,,,,,,42.77595039992593,,,,,,,,,42.75574139994569,42.77595039992593,42.77595039992593,43.12386759999208,i,1,0.3368834999855608,None,43.12418240006082,43.12818340002559,44.128962399903685,44.11332229990512,,,,,,,,,,,,,,,,,,,,,,,,,,,,,,,,,,,,,,,,,,,,,,,,,,,,,,,,,,,,,,,,,,,,,1,001,2024-07-08_19h16.40.807,IAT(test06),2024.1.4,None,2024-07-08 19h16.49.269378 +0800,
,,机智,e,,,,,,,,,0,10,10,9,,,,,,,,,,,,,,,,,44.128962399903685,,,,,,,,,,,,,,,,44.1135181998834,44.128962399903685,44.62013450008817,,,,,,,,,,,,44.64230669988319,,,,,,,,,44.62015439989045,44.64230669988319,44.64230669988319,44.99032579991035,i,0,0.33562720008194447,None,44.99063950008713,44.99753240006976,,45.99070480000228,,,,,,,,,,,,,,,,,,,,,,,,,,,,,,,,,,,,,,,,,,,,,,,,,,,,,,,,,,,,,,,,,,,,,1,001,2024-07-08_19h16.40.807,IAT(test06),2024.1.4,None,2024-07-08 19h16.49.269378 +0800,
,,鲁莽,i,,,,,,,,,0,11,11,28,,,,,,,,,,,,,,,,,45.99337469995953,,,,,,,,,,,,,,,,45.99095300002955,45.99337469995953,46.48779039992951,,,,,,,,,,,,46.51221899990924,,,,,,,,,46.48781429999508,46.51221899990924,46.51221899990924,46.92841699998826,e,0,0.40596280014142394,None,46.92866380000487,46.93658529990353,47.92694059992209,47.92359420005232,,,,,,,,,,,,,,,,,,,,,,,,,,,,,,,,,,,,,,,,,,,,,,,,,,,,,,,,,,,,,,,,,,,,,1,001,2024-07-08_19h16.40.807,IAT(test06),2024.1.4,None,2024-07-08 19h16.49.269378 +0800,
,,愚蠢,i,,,,,,,,,0,12,12,22,,,,,,,,,,,,,,,,,47.92694059992209,,,,,,,,,,,,,,,,47.9238505999092,47.92694059992209,48.42251780000515,,,,,,,,,,,,48.44466349994764,,,,,,,,,48.42253339989111,48.44466349994764,48.44466349994764,49.02402190002613,i,1,0.5765215000137687,None,49.024297799915075,49.03257269994356,50.022167399991304,50.01938680000603,,,,,,,,,,,,,,,,,,,,,,,,,,,,,,,,,,,,,,,,,,,,,,,,,,,,,,,,,,,,,,,,,,,,,1,001,2024-07-08_19h16.40.807,IAT(test06),2024.1.4,None,2024-07-08 19h16.49.269378 +0800,
,,消极,i,,,,,,,,,0,13,13,25,,,,,,,,,,,,,,,,,50.022167399991304,,,,,,,,,,,,,,,,50.0196469000075,50.022167399991304,50.50724649988115,,,,,,,,,,,,50.524103299947456,,,,,,,,,50.507260399870574,50.524103299947456,50.524103299947456,51.02145139989443,i,1,0.49103309982456267,None,51.021735599962994,51.02727110008709,52.024699199944735,52.02205400005914,,,,,,,,,,,,,,,,,,,,,,,,,,,,,,,,,,,,,,,,,,,,,,,,,,,,,,,,,,,,,,,,,,,,,1,001,2024-07-08_19h16.40.807,IAT(test06),2024.1.4,None,2024-07-08 19h16.49.269378 +0800,
,,乐观,e,,,,,,,,,0,14,14,4,,,,,,,,,,,,,,,,,52.024699199944735,,,,,,,,,,,,,,,,52.022448299918324,52.024699199944735,52.522821800084785,,,,,,,,,,,,,,,,,,,,,52.52283679996617,52.54355609999038,52.54355609999038,52.91369339986704,i,0,0.36513559985905886,None,52.91403210000135,52.92941890005022,,53.934790400089696,,,,,,,,,,,,,,,,,,,,,,,,,,,,,,,,,,,,,,,,,,,,,,,,,,,,,,,,,,,,,,,,,,,,,1,001,2024-07-08_19h16.40.807,IAT(test06),2024.1.4,None,2024-07-08 19h16.49.269378 +0800,
,,优秀,e,,,,,,,,,0,15,15,0,,,,,,,,,,,,,,,,,53.937618599971756,,,,,,,,,,,,,,,,53.93505729991011,53.937618599971756,54.42027770006098,,,,,,,,,,,,,,,,,,,,,54.42029460007325,54.44228619989008,54.44228619989008,54.834804699989036,e,1,0.39055969985201955,None,54.83512099995278,54.84193679993041,55.82703929999843,55.82490390003659,,,,,,,,,,,,,,,,,,,,,,,,,,,,,,,,,,,,,,,,,,,,,,,,,,,,,,,,,,,,,,,,,,,,,1,001,2024-07-08_19h16.40.807,IAT(test06),2024.1.4,None,2024-07-08 19h16.49.269378 +0800,
,,傲慢,i,,,,,,,,,0,16,16,27,,,,,,,,,,,,,,,,,55.82703929999843,,,,,,,,,,,,,,,,55.82514309999533,55.82703929999843,56.32385909999721,,,,,,,,,,,,56.34472239995375,,,,,,,,,56.32387869991362,56.34472239995375,56.34472239995375,56.70758019993082,i,1,0.36166789988055825,None,56.70784529997036,56.723625199869275,57.71308559994213,57.70720950001851,,,,,,,,,,,,,,,,,,,,,,,,,,,,,,,,,,,,,,,,,,,,,,,,,,,,,,,,,,,,,,,,,,,,,1,001,2024-07-08_19h16.40.807,IAT(test06),2024.1.4,None,2024-07-08 19h16.49.269378 +0800,
,,卑鄙,i,,,,,,,,,0,17,17,20,,,,,,,,,,,,,,,,,57.71308559994213,,,,,,,,,,,,,,,,57.70741969998926,57.71308559994213,58.19862410007045,,,,,,,,,,,,58.20869069988839,,,,,,,,,58.198644699994475,58.20869069988839,58.20869069988839,58.66960599995218,i,1,0.45883630006574094,None,58.669893600046635,58.673706699861214,59.6597718000412,59.657319699879736,,,,,,,,,,,,,,,,,,,,,,,,,,,,,,,,,,,,,,,,,,,,,,,,,,,,,,,,,,,,,,,,,,,,,1,001,2024-07-08_19h16.40.807,IAT(test06),2024.1.4,None,2024-07-08 19h16.49.269378 +0800,
,,活泼,e,,,,,,,,,0,18,18,18,,,,,,,,,,,,,,,,,59.6597718000412,,,,,,,,,,,,,,,,59.65755179990083,59.6597718000412,60.1548983999528,,,,,,,,,,,,60.1759951999411,,,,,,,,,60.15491480007768,60.1759951999411,60.1759951999411,60.59100109990686,i,0,0.39460489992052317,None,60.591281899949536,60.59580580005422,61.58947360003367,61.58654440008104,,,,,,,,,,,,,,,,,,,,,,,,,,,,,,,,,,,,,,,,,,,,,,,,,,,,,,,,,,,,,,,,,,,,,1,001,2024-07-08_19h16.40.807,IAT(test06),2024.1.4,None,2024-07-08 19h16.49.269378 +0800,
,,聪明,e,,,,,,,,,0,19,19,2,,,,,,,,,,,,,,,,,61.58947360003367,,,,,,,,,,,,,,,,61.58682459988631,61.58947360003367,62.078773400047794,,,,,,,,,,,,62.10429639997892,,,,,,,,,62.07879059994593,62.10429639997892,62.10429639997892,62.744809499941766,i,0,0.6363882999867201,None,62.74511000001803,62.76044539990835,63.75992950005457,63.74359830003232,,,,,,,,,,,,,,,,,,,,,,,,,,,,,,,,,,,,,,,,,,,,,,,,,,,,,,,,,,,,,,,,,,,,,1,001,2024-07-08_19h16.40.807,IAT(test06),2024.1.4,None,2024-07-08 19h16.49.269378 +0800,
,,冷静,e,,,,,,,,,0,20,20,16,,,,,,,,,,,,,,,,,63.75992950005457,,,,,,,,,,,,,,,,63.74382529989816,63.75992950005457,64.25729519990273,,,,,,,,,,,,,,,,,,,,,64.25731029990129,64.27985939988866,64.27985939988866,64.79214839986525,i,0,0.5100801000371575,None,64.7924200000707,64.79575950000435,65.79307639994659,65.79048500000499,,,,,,,,,,,,,,,,,,,,,,,,,,,,,,,,,,,,,,,,,,,,,,,,,,,,,,,,,,,,,,,,,,,,,1,001,2024-07-08_19h16.40.807,IAT(test06),2024.1.4,None,2024-07-08 19h16.49.269378 +0800,
,,暴躁,i,,,,,,,,,0,21,21,34,,,,,,,,,,,,,,,,,65.79307639994659,,,,,,,,,,,,,,,,65.79073369991966,65.79307639994659,66.287914799992,,,,,,,,,,,,66.309429399902,,,,,,,,,66.28793399990536,66.309429399902,66.309429399902,66.88922869996168,i,1,0.5709772000554949,None,66.88950639986433,66.89474799996242,67.89074949990027,67.88803580007516,,,,,,,,,,,,,,,,,,,,,,,,,,,,,,,,,,,,,,,,,,,,,,,,,,,,,,,,,,,,,,,,,,,,,1,001,2024-07-08_19h16.40.807,IAT(test06),2024.1.4,None,2024-07-08 19h16.49.269378 +0800,
,,猖狂,i,,,,,,,,,0,22,22,35,,,,,,,,,,,,,,,,,67.89074949990027,,,,,,,,,,,,,,,,67.88828569999896,67.89074949990027,68.3739201000426,,,,,,,,,,,,68.38990160007961,,,,,,,,,68.3739364000503,68.38990160007961,68.38990160007961,69.02794159995392,i,1,0.6361849000677466,None,69.0282497999724,69.03192749992013,70.0240287000779,70.02136650006287,,,,,,,,,,,,,,,,,,,,,,,,,,,,,,,,,,,,,,,,,,,,,,,,,,,,,,,,,,,,,,,,,,,,,1,001,2024-07-08_19h16.40.807,IAT(test06),2024.1.4,None,2024-07-08 19h16.49.269378 +0800,
,,自卑,i,,,,,,,,,0,23,23,26,,,,,,,,,,,,,,,,,70.0240287000779,,,,,,,,,,,,,,,,70.02173690008931,70.0240287000779,70.50726099987514,,,,,,,,,,,,70.52286399994045,,,,,,,,,70.50727840000764,70.52555959997699,70.52555959997699,70.99823480006307,i,1,0.4710781001485884,None,70.9985901999753,71.00346660008654,71.99437940004282,71.99046560004354,,,,,,,,,,,,,,,,,,,,,,,,,,,,,,,,,,,,,,,,,,,,,,,,,,,,,,,,,,,,,,,,,,,,,1,001,2024-07-08_19h16.40.807,IAT(test06),2024.1.4,None,2024-07-08 19h16.49.269378 +0800,
,,野蛮,i,,,,,,,,,0,24,24,36,,,,,,,,,,,,,,,,,71.99437940004282,,,,,,,,,,,,,,,,71.99072190001607,71.99437940004282,72.49458659999073,,,,,,,,,,,,72.51726099988446,,,,,,,,,72.49464439996518,72.51726099988446,72.51726099988446,73.19459789991379,e,0,0.6754106001462787,None,73.19484849995933,73.20265159988776,74.19361399998888,74.19035639986396,,,,,,,,,,,,,,,,,,,,,,,,,,,,,,,,,,,,,,,,,,,,,,,,,,,,,,,,,,,,,,,,,,,,,1,001,2024-07-08_19h16.40.807,IAT(test06),2024.1.4,None,2024-07-08 19h16.49.269378 +0800,
,,勤奋,e,,,,,,,,,0,25,25,8,,,,,,,,,,,,,,,,,74.19361399998888,,,,,,,,,,,,,,,,74.19061649986543,74.19361399998888,74.67841079994105,,,,,,,,,,,,74.69542120001279,,,,,,,,,74.67842969996855,74.69542120001279,74.69542120001279,75.13176829996519,i,0,0.4318113001063466,None,75.13217439991422,75.13542099995539,76.12714729993604,76.12381489994004,,,,,,,,,,,,,,,,,,,,,,,,,,,,,,,,,,,,,,,,,,,,,,,,,,,,,,,,,,,,,,,,,,,,,1,001,2024-07-08_19h16.40.807,IAT(test06),2024.1.4,None,2024-07-08 19h16.49.269378 +0800,
,,下贱,i,,,,,,,,,0,26,26,39,,,,,,,,,,,,,,,,,76.12714729993604,,,,,,,,,,,,,,,,76.12405440001749,76.12714729993604,76.62137719988823,,,,,,,,,,,,76.64267969992943,,,,,,,,,76.62139629991725,76.64267969992943,76.64267969992943,76.95679489988834,i,1,0.3098607000429183,None,76.95710220001638,76.96147700003348,,77.96114389994182,,,,,,,,,,,,,,,,,,,,,,,,,,,,,,,,,,,,,,,,,,,,,,,,,,,,,,,,,,,,,,,,,,,,,1,001,2024-07-08_19h16.40.807,IAT(test06),2024.1.4,None,2024-07-08 19h16.49.269378 +0800,
,,热情,e,,,,,,,,,0,27,27,17,,,,,,,,,,,,,,,,,77.96419189986773,,,,,,,,,,,,,,,,77.96146379993297,77.96419189986773,78.45734960003756,,,,,,,,,,,,78.47910590004176,,,,,,,,,78.45736310002394,78.47910590004176,78.47910590004176,78.92418559989892,e,1,0.43630389985628426,None,78.92444949992932,78.92868310003541,,79.92547479993664,,,,,,,,,,,,,,,,,,,,,,,,,,,,,,,,,,,,,,,,,,,,,,,,,,,,,,,,,,,,,,,,,,,,,1,001,2024-07-08_19h16.40.807,IAT(test06),2024.1.4,None,2024-07-08 19h16.49.269378 +0800,
,,散漫,i,,,,,,,,,0,28,28,31,,,,,,,,,,,,,,,,,79.92887629987672,,,,,,,,,,,,,,,,79.92572780000046,79.92887629987672,80.4219191998709,,,,,,,,,,,,80.44344300008379,,,,,,,,,80.42193689988926,80.44344300008379,80.44344300008379,80.76535860006697,i,1,0.32004080014303327,None,80.76560500008054,80.7691675000824,81.7571392999962,81.75444779987447,,,,,,,,,,,,,,,,,,,,,,,,,,,,,,,,,,,,,,,,,,,,,,,,,,,,,,,,,,,,,,,,,,,,,1,001,2024-07-08_19h16.40.807,IAT(test06),2024.1.4,None,2024-07-08 19h16.49.269378 +0800,
,,崇高,e,,,,,,,,,0,29,29,1,,,,,,,,,,,,,,,,,81.7571392999962,,,,,,,,,,,,,,,,81.7547051999718,81.7571392999962,82.24053879990242,,,,,,,,,,,,82.2574710000772,,,,,,,,,82.24055099999532,82.25991549994797,82.25991549994797,82.72384570003487,e,1,0.4530272998381406,None,82.72411000006832,82.72715589986183,83.72604830004275,83.72372590005398,,,,,,,,,,,,,,,,,,,,,,,,,,,,,,,,,,,,,,,,,,,,,,,,,,,,,,,,,,,,,,,,,,,,,1,001,2024-07-08_19h16.40.807,IAT(test06),2024.1.4,None,2024-07-08 19h16.49.269378 +0800,
,,刻薄,i,,,,,,,,,0,30,30,23,,,,,,,,,,,,,,,,,83.72604830004275,,,,,,,,,,,,,,,,83.72396990004927,83.72604830004275,84.22140929987654,,,,,,,,,,,,84.2435091000516,,,,,,,,,84.22142399987206,84.2435091000516,84.2435091000516,84.84039580007084,i,1,0.5824472999665886,None,84.84068030002527,84.84417619998567,85.83205040008761,85.82906750007533,,,,,,,,,,,,,,,,,,,,,,,,,,,,,,,,,,,,,,,,,,,,,,,,,,,,,,,,,,,,,,,,,,,,,1,001,2024-07-08_19h16.40.807,IAT(test06),2024.1.4,None,2024-07-08 19h16.49.269378 +0800,
,,朴实,e,,,,,,,,,0,31,31,14,,,,,,,,,,,,,,,,,85.83205040008761,,,,,,,,,,,,,,,,85.82935889996588,85.83205040008761,86.32303029997274,,,,,,,,,,,,86.34436380001716,,,,,,,,,86.32304759998806,86.34436380001716,86.34436380001716,87.10749299987219,e,1,0.7581146999727935,None,87.10773779987358,87.1228716999758,,88.12277289992198,,,,,,,,,,,,,,,,,,,,,,,,,,,,,,,,,,,,,,,,,,,,,,,,,,,,,,,,,,,,,,,,,,,,,1,001,2024-07-08_19h16.40.807,IAT(test06),2024.1.4,None,2024-07-08 19h16.49.269378 +0800,
,,轻率,i,,,,,,,,,0,32,32,38,,,,,,,,,,,,,,,,,88.12643760000356,,,,,,,,,,,,,,,,88.12301099998876,88.12643760000356,88.62215239997022,,,,,,,,,,,,,,,,,,,,,88.62216640007682,88.6427462999709,88.6427462999709,88.96994159999304,i,1,0.3213177998550236,None,88.97020970005542,88.97348739998415,89.96206930000335,89.95952829997987,,,,,,,,,,,,,,,,,,,,,,,,,,,,,,,,,,,,,,,,,,,,,,,,,,,,,,,,,,,,,,,,,,,,,1,001,2024-07-08_19h16.40.807,IAT(test06),2024.1.4,None,2024-07-08 19h16.49.269378 +0800,
,,杰出,e,,,,,,,,,0,33,33,3,,,,,,,,,,,,,,,,,89.96206930000335,,,,,,,,,,,,,,,,89.95973909995519,89.96206930000335,90.4582008998841,,,,,,,,,,,,90.48024689988233,,,,,,,,,90.4582153998781,90.48024689988233,90.48024689988233,91.05739460000768,e,1,0.5567747999448329,None,91.05770989996381,91.06101990002207,92.0607161000371,92.05743849999271,,,,,,,,,,,,,,,,,,,,,,,,,,,,,,,,,,,,,,,,,,,,,,,,,,,,,,,,,,,,,,,,,,,,,1,001,2024-07-08_19h16.40.807,IAT(test06),2024.1.4,None,2024-07-08 19h16.49.269378 +0800,
,,诚实,e,,,,,,,,,0,34,34,5,,,,,,,,,,,,,,,,,92.0607161000371,,,,,,,,,,,,,,,,92.05781319993548,92.0607161000371,92.55575979989953,,,,,,,,,,,,92.5595015999861,,,,,,,,,92.55577809992246,92.5595015999861,92.5595015999861,92.9594765000511,e,1,0.3976422999985516,None,92.95972359995358,92.96511700004339,93.958783299895,93.95627569989301,,,,,,,,,,,,,,,,,,,,,,,,,,,,,,,,,,,,,,,,,,,,,,,,,,,,,,,,,,,,,,,,,,,,,1,001,2024-07-08_19h16.40.807,IAT(test06),2024.1.4,None,2024-07-08 19h16.49.269378 +0800,
,,正直,e,,,,,,,,,0,35,35,6,,,,,,,,,,,,,,,,,93.958783299895,,,,,,,,,,,,,,,,93.9565077999141,93.958783299895,94.45726289995946,,,,,,,,,,,,94.47735649999231,,,,,,,,,94.45727930008434,94.47735649999231,94.47735649999231,94.85757109988481,i,0,0.37439980008639395,None,94.85785740008578,94.86185059999116,95.85982230002992,95.8570391999092,,,,,,,,,,,,,,,,,,,,,,,,,,,,,,,,,,,,,,,,,,,,,,,,,,,,,,,,,,,,,,,,,,,,,1,001,2024-07-08_19h16.40.807,IAT(test06),2024.1.4,None,2024-07-08 19h16.49.269378 +0800,
,,无私,e,,,,,,,,,0,36,36,12,,,,,,,,,,,,,,,,,95.85982230002992,,,,,,,,,,,,,,,,95.85729339998215,95.85982230002992,96.3443431998603,,,,,,,,,,,,96.35252070007846,,,,,,,,,96.34436669992283,96.35252070007846,96.35252070007846,96.6241814000532,e,1,0.2656215999741107,None,96.62445560004562,96.63005969999358,97.62524299998768,97.62245499994606,,,,,,,,,,,,,,,,,,,,,,,,,,,,,,,,,,,,,,,,,,,,,,,,,,,,,,,,,,,,,,,,,,,,,1,001,2024-07-08_19h16.40.807,IAT(test06),2024.1.4,None,2024-07-08 19h16.49.269378 +0800,
,,公正,e,,,,,,,,,0,37,37,13,,,,,,,,,,,,,,,,,97.62524299998768,,,,,,,,,,,,,,,,97.6227241999004,97.62524299998768,98.12427380005829,,,,,,,,,,,,98.1428348000627,,,,,,,,,98.12428879993968,98.1428348000627,98.1428348000627,98.53457650006749,e,1,0.39012720016762614,None,98.53483169991523,98.53989319992252,99.52800319995731,99.52516949991696,,,,,,,,,,,,,,,,,,,,,,,,,,,,,,,,,,,,,,,,,,,,,,,,,,,,,,,,,,,,,,,,,,,,,1,001,2024-07-08_19h16.40.807,IAT(test06),2024.1.4,None,2024-07-08 19h16.49.269378 +0800,
,,稳重,e,,,,,,,,,0,38,38,11,,,,,,,,,,,,,,,,,99.52800319995731,,,,,,,,,,,,,,,,99.5254345999565,99.52800319995731,100.02144380006939,,,,,,,,,,,,100.04169099987485,,,,,,,,,100.02145870006643,100.04169099987485,100.04169099987485,100.42178440000862,i,0,0.37091480009257793,None,100.42204759991728,100.42959719989449,,101.42619540006854,,,,,,,,,,,,,,,,,,,,,,,,,,,,,,,,,,,,,,,,,,,,,,,,,,,,,,,,,,,,,,,,,,,,,1,001,2024-07-08_19h16.40.807,IAT(test06),2024.1.4,None,2024-07-08 19h16.49.269378 +0800,
,,细腻,e,,,,,,,,,0,39,39,15,,,,,,,,,,,,,,,,,101.42907049995847,,,,,,,,,,,,,,,,101.42644679988734,101.42907049995847,101.92298140004277,,,,,,,,,,,,,,,,,,,,,101.92299579991959,101.94634309993125,101.94634309993125,102.37412269995548,e,1,0.42497529997490346,None,102.37436069990508,102.38927399995737,103.37554150004871,103.37285899999551,,,,,,,,,,,,,,,,,,,,,,,,,,,,,,,,,,,,,,,,,,,,,,,,,,,,,,,,,,,,,,,,,,,,,1,001,2024-07-08_19h16.40.807,IAT(test06),2024.1.4,None,2024-07-08 19h16.49.269378 +0800,
,,,,,,,,,,,,,,,,,,,,,,,,,,,,,,,,,,,,,,,,,,,,,,,,,,,,,,,,,,,,,,,,,,,,,,,,,,,,,,,,,,,103.3729184998665,103.37554150004871,103.37554150004871,104.42158319987357,space,1.0422305001411587,None,,,,,,,,,,,,,,,,,,,,,,,,,,,,,,,,,,,,,,,,,,,,,,,,,,,,,,,,,,,,,,1,001,2024-07-08_19h16.40.807,IAT(test06),2024.1.4,None,2024-07-08 19h16.49.269378 +0800,
,,,,我们,e,,,,,,,,,,,0,0,0,62,,,,,,,,,,,,,104.44120880006813,,,,,,,,,,,,,,,,104.43580930004828,104.44120880006813,104.92444149986841,,,,,,,,,,,,,,,,,,,,,,,,,,,,,,,,,,,,,,,,104.92445500008762,104.92811189987697,104.92811189987697,105.33828760008328,e,1,0.4058413999155164,None,105.33873589988798,105.35389330005273,106.35306459991261,,,,,,,,,,,,,,,,,,,,,,,,,,,,,,,,,,,,,,,,,,,,,,,,,,,1,001,2024-07-08_19h16.40.807,IAT(test06),2024.1.4,None,2024-07-08 19h16.49.269378 +0800,
,,,,他们,i,,,,,,,,,,,0,1,1,76,,,,,,,,,,,,,106.35645659989677,,,,,,,,,,,,,,,,106.35333200008608,106.35645659989677,106.84022870007902,,,,,,,,,,,,,,,,,,,,,,,,,,,,,,,,,,,,,,,,106.84024109994061,106.85695350007154,106.85695350007154,107.43199379998259,i,1,0.5731156000401825,None,107.43224340002052,107.43612319999374,108.42133600008674,108.42468270007521,,,,,,,,,,,,,,,,,,,,,,,,,,,,,,,,,,,,,,,,,,,,,,,,,,1,001,2024-07-08_19h16.40.807,IAT(test06),2024.1.4,None,2024-07-08 19h16.49.269378 +0800,
,,,,自己,e,,,,,,,,,,,0,2,2,3,,,,,,,,,,,,,108.42468270007521,,,,,,,,,,,,,,,,108.42162610008381,108.42468270007521,108.92340980004519,,,,,,,,,,,,108.9269226999022,,,,,,,,,,,,,,,,,,,,,,,,,,,,108.92342659994029,108.9269226999022,108.9269226999022,109.47192179993726,e,1,0.5428383001126349,None,109.47217279998586,109.48758030007593,110.47236300003715,110.48807459999807,,,,,,,,,,,,,,,,,,,,,,,,,,,,,,,,,,,,,,,,,,,,,,,,,,1,001,2024-07-08_19h16.40.807,IAT(test06),2024.1.4,None,2024-07-08 19h16.49.269378 +0800,
,,,,自卑,i,,,,,,,,,,,0,3,3,36,,,,,,,,,,,,,110.48807459999807,,,,,,,,,,,,,,,,110.47259770007804,110.48807459999807,110.9735719000455,,,,,,,,,,,,,,,,,,,,,,,,,,,,,,,,,,,,,,,,110.97358340001665,110.98954500001855,110.98954500001855,111.76025520008989,i,1,0.7667874000035226,None,111.76052429992706,111.76298870006576,112.75692479987629,112.75950059993193,,,,,,,,,,,,,,,,,,,,,,,,,,,,,,,,,,,,,,,,,,,,,,,,,,1,001,2024-07-08_19h16.40.807,IAT(test06),2024.1.4,None,2024-07-08 19h16.49.269378 +0800,
,,,,他的,i,,,,,,,,,,,0,4,4,57,,,,,,,,,,,,,112.75950059993193,,,,,,,,,,,,,,,,112.75716420006938,112.75950059993193,113.25829720008187,,,,,,,,,,,,113.26217289990745,,,,,,,,,,,,,,,,,,,,,,,,,,,,113.25831230008043,113.26217289990745,113.26217289990745,113.72881180001423,e,0,0.46470450004562736,None,113.72905800002627,113.73425289988518,114.72488559992053,114.727246100083,,,,,,,,,,,,,,,,,,,,,,,,,,,,,,,,,,,,,,,,,,,,,,,,,,1,001,2024-07-08_19h16.40.807,IAT(test06),2024.1.4,None,2024-07-08 19h16.49.269378 +0800,
,,,,他,i,,,,,,,,,,,0,5,5,65,,,,,,,,,,,,,114.727246100083,,,,,,,,,,,,,,,,114.7251333000604,114.727246100083,115.22169000003487,,,,,,,,,,,,115.22596159996465,,,,,,,,,,,,,,,,,,,,,,,,,,,,115.22171110007912,115.22596159996465,115.22596159996465,115.79072379996069,i,1,0.5617533000186086,None,115.79100339999422,115.79766259994358,116.79065169999376,116.79403980006464,,,,,,,,,,,,,,,,,,,,,,,,,,,,,,,,,,,,,,,,,,,,,,,,,,1,001,2024-07-08_19h16.40.807,IAT(test06),2024.1.4,None,2024-07-08 19h16.49.269378 +0800,
,,,,稳重,e,,,,,,,,,,,0,6,6,21,,,,,,,,,,,,,116.79403980006464,,,,,,,,,,,,,,,,116.79088760004379,116.79403980006464,117.2882528998889,,,,,,,,,,,,117.29231969988905,,,,,,,,,,,,,,,,,,,,,,,,,,,,117.28827390004881,117.29231969988905,117.29231969988905,117.83589229988866,e,1,0.5414831000380218,None,117.83621839992702,117.84205299988389,118.82572810002603,118.82786999992095,,,,,,,,,,,,,,,,,,,,,,,,,,,,,,,,,,,,,,,,,,,,,,,,,,1,001,2024-07-08_19h16.40.807,IAT(test06),2024.1.4,None,2024-07-08 19h16.49.269378 +0800,
,,,,他的,i,,,,,,,,,,,0,7,7,7,,,,,,,,,,,,,118.82786999992095,,,,,,,,,,,,,,,,118.82595789991319,118.82786999992095,119.32376040006056,,,,,,,,,,,,119.32794429990463,,,,,,,,,,,,,,,,,,,,,,,,,,,,119.32378119998612,119.32794429990463,119.32794429990463,119.76120589999482,i,1,0.4303397999610752,None,119.76161319995299,119.76640060008503,120.7570855000522,120.76184020005167,,,,,,,,,,,,,,,,,,,,,,,,,,,,,,,,,,,,,,,,,,,,,,,,,,1,001,2024-07-08_19h16.40.807,IAT(test06),2024.1.4,None,2024-07-08 19h16.49.269378 +0800,
,,,,冒失,i,,,,,,,,,,,0,8,8,39,,,,,,,,,,,,,120.76184020005167,,,,,,,,,,,,,,,,120.75733459996991,120.76184020005167,121.25795149989426,,,,,,,,,,,,121.26150769996457,,,,,,,,,,,,,,,,,,,,,,,,,,,,121.25797019992024,121.26150769996457,121.26150769996457,121.92713529989123,i,1,0.6612490001134574,None,121.92746699997224,121.9430448000785,122.92703190003522,122.92907120008022,,,,,,,,,,,,,,,,,,,,,,,,,,,,,,,,,,,,,,,,,,,,,,,,,,1,001,2024-07-08_19h16.40.807,IAT(test06),2024.1.4,None,2024-07-08 19h16.49.269378 +0800,
,,,,执拗,i,,,,,,,,,,,0,9,9,40,,,,,,,,,,,,,122.92907120008022,,,,,,,,,,,,,,,,122.9272388999816,122.92907120008022,123.42184269987047,,,,,,,,,,,,123.42555669997819,,,,,,,,,,,,,,,,,,,,,,,,,,,,123.42187019996345,123.42555669997819,123.42555669997819,124.02160599990748,i,1,0.5848733000457287,None,124.02189769991674,124.02736579999328,125.02043749997392,125.02300089993514,,,,,,,,,,,,,,,,,,,,,,,,,,,,,,,,,,,,,,,,,,,,,,,,,,1,001,2024-07-08_19h16.40.807,IAT(test06),2024.1.4,None,2024-07-08 19h16.49.269378 +0800,
,,,,乐观,e,,,,,,,,,,,0,10,10,14,,,,,,,,,,,,,125.02300089993514,,,,,,,,,,,,,,,,125.0206949999556,125.02300089993514,125.50739559996873,,,,,,,,,,,,125.52310479991138,,,,,,,,,,,,,,,,,,,,,,,,,,,,125.50740960007533,125.52310479991138,125.52310479991138,126.0723311000038,i,0,0.5467999000102282,None,126.07258739997633,126.0871363999322,127.07120030000806,127.08720539999194,,,,,,,,,,,,,,,,,,,,,,,,,,,,,,,,,,,,,,,,,,,,,,,,,,1,001,2024-07-08_19h16.40.807,IAT(test06),2024.1.4,None,2024-07-08 19h16.49.269378 +0800,
,,,,他,i,,,,,,,,,,,0,11,11,75,,,,,,,,,,,,,127.08720539999194,,,,,,,,,,,,,,,,127.07142649986781,127.08720539999194,127.57362909987569,,,,,,,,,,,,,,,,,,,,,,,,,,,,,,,,,,,,,,,,127.57364129996859,127.59016610006802,127.59016610006802,128.07152600004338,i,1,0.4751789001747966,None,128.07178190001287,128.0870495000854,129.07002780004404,129.0732193000149,,,,,,,,,,,,,,,,,,,,,,,,,,,,,,,,,,,,,,,,,,,,,,,,,,1,001,2024-07-08_19h16.40.807,IAT(test06),2024.1.4,None,2024-07-08 19h16.49.269378 +0800,
,,,,他人,i,,,,,,,,,,,0,12,12,8,,,,,,,,,,,,,129.0732193000149,,,,,,,,,,,,,,,,129.07034049998038,129.0732193000149,129.55946599994786,,,,,,,,,,,,129.563406100031,,,,,,,,,,,,,,,,,,,,,,,,,,,,129.55948509997688,129.563406100031,129.563406100031,130.05847489996813,e,0,0.4865604001097381,None,130.05875369999558,130.06344589986838,131.05734539986588,131.06134960008785,,,,,,,,,,,,,,,,,,,,,,,,,,,,,,,,,,,,,,,,,,,,,,,,,,1,001,2024-07-08_19h16.40.807,IAT(test06),2024.1.4,None,2024-07-08 19h16.49.269378 +0800,
,,,,消极,i,,,,,,,,,,,0,13,13,35,,,,,,,,,,,,,131.06134960008785,,,,,,,,,,,,,,,,131.05775889987126,131.06134960008785,131.55545079987496,,,,,,,,,,,,131.5597288000863,,,,,,,,,,,,,,,,,,,,,,,,,,,,131.55546629987657,131.5597288000863,131.5597288000863,132.0923786999192,i,1,0.5307354000397027,None,132.09273899998516,132.09805979998782,133.08790179993957,133.09112889994867,,,,,,,,,,,,,,,,,,,,,,,,,,,,,,,,,,,,,,,,,,,,,,,,,,1,001,2024-07-08_19h16.40.807,IAT(test06),2024.1.4,None,2024-07-08 19h16.49.269378 +0800,
,,,,愚蠢,i,,,,,,,,,,,0,14,14,32,,,,,,,,,,,,,133.09112889994867,,,,,,,,,,,,,,,,133.0881773000583,133.09112889994867,133.5743493998889,,,,,,,,,,,,133.59128729999065,,,,,,,,,,,,,,,,,,,,,,,,,,,,133.5743644000031,133.5942901999224,133.5942901999224,134.00238289986737,i,1,0.4061050000600517,None,134.00281640002504,134.00664129992947,134.99031569994986,134.9932848000899,,,,,,,,,,,,,,,,,,,,,,,,,,,,,,,,,,,,,,,,,,,,,,,,,,1,001,2024-07-08_19h16.40.807,IAT(test06),2024.1.4,None,2024-07-08 19h16.49.269378 +0800,
,,,,朴实,e,,,,,,,,,,,0,15,15,24,,,,,,,,,,,,,134.9932848000899,,,,,,,,,,,,,,,,134.99065360007808,134.9932848000899,135.48761429986916,,,,,,,,,,,,135.4915316000115,,,,,,,,,,,,,,,,,,,,,,,,,,,,135.4876312999986,135.4915316000115,135.4915316000115,135.92487969994545,i,0,0.4277346001472324,None,135.92516119987704,135.92925220006146,136.9234497998841,136.92643320001662,,,,,,,,,,,,,,,,,,,,,,,,,,,,,,,,,,,,,,,,,,,,,,,,,,1,001,2024-07-08_19h16.40.807,IAT(test06),2024.1.4,None,2024-07-08 19h16.49.269378 +0800,
,,,,优秀,e,,,,,,,,,,,0,16,16,10,,,,,,,,,,,,,136.92643320001662,,,,,,,,,,,,,,,,136.92370989988558,136.92643320001662,137.4218097999692,,,,,,,,,,,,137.4257620999124,,,,,,,,,,,,,,,,,,,,,,,,,,,,137.42182979988866,137.4257620999124,137.4257620999124,137.80618129996583,e,1,0.37813460011966527,None,137.80646639992483,137.82190979993902,138.80594710004516,138.80849760002457,,,,,,,,,,,,,,,,,,,,,,,,,,,,,,,,,,,,,,,,,,,,,,,,,,1,001,2024-07-08_19h16.40.807,IAT(test06),2024.1.4,None,2024-07-08 19h16.49.269378 +0800,
,,,,机智,e,,,,,,,,,,,0,17,17,19,,,,,,,,,,,,,138.80849760002457,,,,,,,,,,,,,,,,138.80624539987184,138.80849760002457,139.2954541000072,,,,,,,,,,,,139.30063539999537,,,,,,,,,,,,,,,,,,,,,,,,,,,,139.29546969989315,139.30063539999537,139.30063539999537,139.95875549991615,e,1,0.6551558999344707,None,139.95906600006856,139.9610719999764,140.95470439991914,140.95719229988754,,,,,,,,,,,,,,,,,,,,,,,,,,,,,,,,,,,,,,,,,,,,,,,,,,1,001,2024-07-08_19h16.40.807,IAT(test06),2024.1.4,None,2024-07-08 19h16.49.269378 +0800,
,,,,他的,i,,,,,,,,,,,0,18,18,67,,,,,,,,,,,,,140.95719229988754,,,,,,,,,,,,,,,,140.95499720005319,140.95719229988754,141.4405129000079,,,,,,,,,,,,141.45666939998046,,,,,,,,,,,,,,,,,,,,,,,,,,,,141.4405272998847,141.46101840003394,141.46101840003394,141.46204890008084,e,0,2.15465629985556,None,141.4623851000797,141.46719029988162,142.4574482999742,142.4598673998844,,,,,,,,,,,,,,,,,,,,,,,,,,,,,,,,,,,,,,,,,,,,,,,,,,1,001,2024-07-08_19h16.40.807,IAT(test06),2024.1.4,None,2024-07-08 19h16.49.269378 +0800,
,,,,其他,i,,,,,,,,,,,0,19,19,69,,,,,,,,,,,,,142.4598673998844,,,,,,,,,,,,,,,,142.45769469998777,142.4598673998844,142.9536599998828,,,,,,,,,,,,142.95770849986002,,,,,,,,,,,,,,,,,,,,,,,,,,,,142.95367760001682,142.95770849986002,142.95770849986002,144.44061639998108,None,0,,,144.44081879989244,144.4618883000221,145.44771469989792,145.45179169997573,144.4593394000549,144.4593394000549,,,,,,,,,,,,,,,,,,,,,,,,,,,,,,,,,,,,,,,,,,,,,,,,1,001,2024-07-08_19h16.40.807,IAT(test06),2024.1.4,None,2024-07-08 19h16.49.269378 +0800,
,,,,诚实,e,,,,,,,,,,,0,20,20,15,,,,,,,,,,,,,145.45179169997573,,,,,,,,,,,,,,,,145.44798499997705,145.45179169997573,145.93697339994833,,,,,,,,,,,,145.94100999995135,,,,,,,,,,,,,,,,,,,,,,,,,,,,145.93699180008844,145.96666090004146,145.96666090004146,147.4562764998991,None,0,,,147.45651519997045,147.4593634000048,148.45568870007992,148.45828379993327,147.4593634000048,147.4593634000048,,,,,,,,,,,,,,,,,,,,,,,,,,,,,,,,,,,,,,,,,,,,,,,,1,001,2024-07-08_19h16.40.807,IAT(test06),2024.1.4,None,2024-07-08 19h16.49.269378 +0800,
,,,,自己,e,,,,,,,,,,,0,21,21,73,,,,,,,,,,,,,148.45828379993327,,,,,,,,,,,,,,,,148.45592450001277,148.45828379993327,148.9433844999876,,,,,,,,,,,,148.94759169989266,,,,,,,,,,,,,,,,,,,,,,,,,,,,148.9434058999177,148.96187449991703,148.96187449991703,150.44669879996218,None,0,,,150.44709550007246,150.4615988000296,151.45600629993714,151.45864450000226,150.4615988000296,150.4615988000296,,,,,,,,,,,,,,,,,,,,,,,,,,,,,,,,,,,,,,,,,,,,,,,,1,001,2024-07-08_19h16.40.807,IAT(test06),2024.1.4,None,2024-07-08 19h16.49.269378 +0800,
,,,,刻薄,i,,,,,,,,,,,0,22,22,33,,,,,,,,,,,,,151.45864450000226,,,,,,,,,,,,,,,,151.45626450004056,151.45864450000226,151.94271870004013,,,,,,,,,,,,151.94564629998058,,,,,,,,,,,,,,,,,,,,,,,,,,,,151.94273360003717,151.95083019998856,151.95083019998856,153.43599610007368,None,0,,,153.43627980002202,153.45994149986655,154.4565367999021,154.46123000001535,153.44021630007774,153.44021630007774,,,,,,,,,,,,,,,,,,,,,,,,,,,,,,,,,,,,,,,,,,,,,,,,1,001,2024-07-08_19h16.40.807,IAT(test06),2024.1.4,None,2024-07-08 19h16.49.269378 +0800,
,,,,凶狠,i,,,,,,,,,,,0,23,23,42,,,,,,,,,,,,,154.46123000001535,,,,,,,,,,,,,,,,154.45685849990696,154.46123000001535,154.9546397998929,,,,,,,,,,,,154.95824329997413,,,,,,,,,,,,,,,,,,,,,,,,,,,,154.9546576999128,154.95824329997413,154.95824329997413,156.45786110009067,None,0,,,156.4581029000692,156.46044890000485,157.4569808000233,157.45954339997843,156.46044890000485,156.46044890000485,,,,,,,,,,,,,,,,,,,,,,,,,,,,,,,,,,,,,,,,,,,,,,,,1,001,2024-07-08_19h16.40.807,IAT(test06),2024.1.4,None,2024-07-08 19h16.49.269378 +0800,
,,,,正直,e,,,,,,,,,,,0,24,24,16,,,,,,,,,,,,,157.45954339997843,,,,,,,,,,,,,,,,157.45725069986656,157.45954339997843,157.95426029991359,,,,,,,,,,,,157.95797619991936,,,,,,,,,,,,,,,,,,,,,,,,,,,,157.95427850005217,157.95797619991936,157.95797619991936,159.45676869992167,None,0,,,159.4570005000569,159.45968930004165,160.4626402000431,,159.45968930004165,159.45968930004165,,,,,,,,,,,,,,,,,,,,,,,,,,,,,,,,,,,,,,,,,,,,,,,,1,001,2024-07-08_19h16.40.807,IAT(test06),2024.1.4,None,2024-07-08 19h16.49.269378 +0800,
,,,,他的,i,,,,,,,,,,,0,25,25,77,,,,,,,,,,,,,160.46684019989334,,,,,,,,,,,,,,,,160.46288189990446,160.46684019989334,160.9611684998963,,,,,,,,,,,,160.96607690001838,,,,,,,,,,,,,,,,,,,,,,,,,,,,160.96118599991314,160.96607690001838,160.96607690001838,162.4565894000698,None,0,,,162.4568391998764,162.46221840009093,163.45652640005574,163.45910450001247,162.46221840009093,162.46221840009093,,,,,,,,,,,,,,,,,,,,,,,,,,,,,,,,,,,,,,,,,,,,,,,,1,001,2024-07-08_19h16.40.807,IAT(test06),2024.1.4,None,2024-07-08 19h16.49.269378 +0800,
,,,,自己,e,,,,,,,,,,,0,26,26,53,,,,,,,,,,,,,163.45910450001247,,,,,,,,,,,,,,,,163.45677829999477,163.45910450001247,163.95457999990322,,,,,,,,,,,,163.95827100006863,,,,,,,,,,,,,,,,,,,,,,,,,,,,163.95459949993528,163.95827100006863,163.95827100006863,165.44121830002405,None,0,,,165.44145389995538,165.4623328000307,166.45708959992044,166.46585649996996,165.44300729990937,165.44300729990937,,,,,,,,,,,,,,,,,,,,,,,,,,,,,,,,,,,,,,,,,,,,,,,,1,001,2024-07-08_19h16.40.807,IAT(test06),2024.1.4,None,2024-07-08 19h16.49.269378 +0800,
,,,,我的,e,,,,,,,,,,,0,27,27,1,,,,,,,,,,,,,166.46585649996996,,,,,,,,,,,,,,,,166.45735280006193,166.46585649996996,166.96294109988958,,,,,,,,,,,,166.96749789989553,,,,,,,,,,,,,,,,,,,,,,,,,,,,166.96295890002511,166.96749789989553,166.96749789989553,168.45714140008204,None,0,,,168.45736079989,168.46010800008662,169.45813610008918,169.46086469991133,168.46010800008662,168.46010800008662,,,,,,,,,,,,,,,,,,,,,,,,,,,,,,,,,,,,,,,,,,,,,,,,1,001,2024-07-08_19h16.40.807,IAT(test06),2024.1.4,None,2024-07-08 19h16.49.269378 +0800,
,,,,活泼,e,,,,,,,,,,,0,28,28,28,,,,,,,,,,,,,169.46086469991133,,,,,,,,,,,,,,,,169.45838119997643,169.46086469991133,169.95441900007427,,,,,,,,,,,,169.95842429995537,,,,,,,,,,,,,,,,,,,,,,,,,,,,169.95443499996327,169.95842429995537,169.95842429995537,171.45655500004068,None,0,,,171.4567662999034,171.46062169992365,172.45718059991486,172.460128699895,171.46062169992365,171.46062169992365,,,,,,,,,,,,,,,,,,,,,,,,,,,,,,,,,,,,,,,,,,,,,,,,1,001,2024-07-08_19h16.40.807,IAT(test06),2024.1.4,None,2024-07-08 19h16.49.269378 +0800,
,,,,俺,e,,,,,,,,,,,0,29,29,4,,,,,,,,,,,,,172.460128699895,,,,,,,,,,,,,,,,172.45743660000153,172.460128699895,172.95513630006462,,,,,,,,,,,,172.9595311000012,,,,,,,,,,,,,,,,,,,,,,,,,,,,172.95515220006928,172.9595311000012,172.9595311000012,174.45661989995278,None,0,,,174.45694079995155,174.46330059994943,175.45631449995562,175.45937180006877,174.46330059994943,174.46330059994943,,,,,,,,,,,,,,,,,,,,,,,,,,,,,,,,,,,,,,,,,,,,,,,,1,001,2024-07-08_19h16.40.807,IAT(test06),2024.1.4,None,2024-07-08 19h16.49.269378 +0800,
,,,,他人,i,,,,,,,,,,,0,30,30,58,,,,,,,,,,,,,175.45937180006877,,,,,,,,,,,,,,,,175.45654470007867,175.45937180006877,175.953724199906,,,,,,,,,,,,175.95734489988536,,,,,,,,,,,,,,,,,,,,,,,,,,,,175.95374160003848,175.95734489988536,175.95734489988536,177.4427956000436,None,0,,,177.44299010001123,177.4630287999753,178.45722340000793,178.4598268000409,177.44644139986485,177.44644139986485,,,,,,,,,,,,,,,,,,,,,,,,,,,,,,,,,,,,,,,,,,,,,,,,1,001,2024-07-08_19h16.40.807,IAT(test06),2024.1.4,None,2024-07-08 19h16.49.269378 +0800,
,,,,其他,i,,,,,,,,,,,0,31,31,59,,,,,,,,,,,,,178.4598268000409,,,,,,,,,,,,,,,,178.45758829987608,178.4598268000409,178.9556692999322,,,,,,,,,,,,178.95951869990677,,,,,,,,,,,,,,,,,,,,,,,,,,,,178.95569109986536,178.95951869990677,178.95951869990677,180.45721190003678,None,0,,,180.45743399998173,180.45988380000927,181.45527329994366,181.45759909995832,180.45988380000927,180.45988380000927,,,,,,,,,,,,,,,,,,,,,,,,,,,,,,,,,,,,,,,,,,,,,,,,1,001,2024-07-08_19h16.40.807,IAT(test06),2024.1.4,None,2024-07-08 19h16.49.269378 +0800,
,,,,认真,e,,,,,,,,,,,0,32,32,20,,,,,,,,,,,,,181.45759909995832,,,,,,,,,,,,,,,,181.4555246999953,181.45759909995832,181.94364820001647,,,,,,,,,,,,181.96133530000225,,,,,,,,,,,,,,,,,,,,,,,,,,,,181.94366410002112,181.96531990007497,181.96531990007497,183.45909560006112,None,0,,,183.45932470005937,183.46193429990672,184.45832219999284,184.4639153999742,183.46193429990672,183.46193429990672,,,,,,,,,,,,,,,,,,,,,,,,,,,,,,,,,,,,,,,,,,,,,,,,1,001,2024-07-08_19h16.40.807,IAT(test06),2024.1.4,None,2024-07-08 19h16.49.269378 +0800,
,,,,自己,e,,,,,,,,,,,0,33,33,63,,,,,,,,,,,,,184.4639153999742,,,,,,,,,,,,,,,,184.45858679991215,184.4639153999742,184.9550071998965,,,,,,,,,,,,184.95874179992825,,,,,,,,,,,,,,,,,,,,,,,,,,,,184.95502809993923,184.95874179992825,184.95874179992825,186.26416300004348,i,0,1.302632600069046,None,186.26461629988626,186.27263460005634,187.25673860008828,187.2604286998976,,,,,,,,,,,,,,,,,,,,,,,,,,,,,,,,,,,,,,,,,,,,,,,,,,1,001,2024-07-08_19h16.40.807,IAT(test06),2024.1.4,None,2024-07-08 19h16.49.269378 +0800,
,,,,公正,e,,,,,,,,,,,0,34,34,23,,,,,,,,,,,,,187.2604286998976,,,,,,,,,,,,,,,,187.25697560003027,187.2604286998976,187.754195000045,,,,,,,,,,,,187.75839039986022,,,,,,,,,,,,,,,,,,,,,,,,,,,,187.75421090004966,187.75839039986022,187.75839039986022,187.99073900002986,e,1,0.2208203999325633,None,187.99112039990723,187.99999419995584,188.9905199999921,188.99321480002254,,,,,,,,,,,,,,,,,,,,,,,,,,,,,,,,,,,,,,,,,,,,,,,,,,1,001,2024-07-08_19h16.40.807,IAT(test06),2024.1.4,None,2024-07-08 19h16.49.269378 +0800,
,,,,我,e,,,,,,,,,,,0,35,35,60,,,,,,,,,,,,,188.99321480002254,,,,,,,,,,,,,,,,188.99084739992395,188.99321480002254,189.4894916000776,,,,,,,,,,,,189.49357519997284,,,,,,,,,,,,,,,,,,,,,,,,,,,,189.4895090998616,189.49357519997284,189.49357519997284,190.98999270005152,None,0,,,190.99040169990622,190.9955883999355,191.99036509986036,191.99286210001446,190.9955883999355,190.9955883999355,,,,,,,,,,,,,,,,,,,,,,,,,,,,,,,,,,,,,,,,,,,,,,,,1,001,2024-07-08_19h16.40.807,IAT(test06),2024.1.4,None,2024-07-08 19h16.49.269378 +0800,
,,,,散漫,i,,,,,,,,,,,0,36,36,41,,,,,,,,,,,,,191.99286210001446,,,,,,,,,,,,,,,,191.9906353999395,191.99286210001446,192.48959979997016,,,,,,,,,,,,192.4932704998646,,,,,,,,,,,,,,,,,,,,,,,,,,,,192.48961759987287,192.4932704998646,192.4932704998646,193.99000340001658,None,0,,,193.9904014999047,193.99302539997734,194.99081379990093,194.99370560003445,193.99302539997734,193.99302539997734,,,,,,,,,,,,,,,,,,,,,,,,,,,,,,,,,,,,,,,,,,,,,,,,1,001,2024-07-08_19h16.40.807,IAT(test06),2024.1.4,None,2024-07-08 19h16.49.269378 +0800,
,,,,虚伪,i,,,,,,,,,,,0,37,37,31,,,,,,,,,,,,,194.99370560003445,,,,,,,,,,,,,,,,194.99105699989013,194.99370560003445,195.49155490007252,,,,,,,,,,,,195.49524599988945,,,,,,,,,,,,,,,,,,,,,,,,,,,,195.49157369998284,195.49524599988945,195.49524599988945,196.99000049987808,None,0,,,196.99021150008775,196.99277439992875,197.98964009992778,197.99263309990056,196.99277439992875,196.99277439992875,,,,,,,,,,,,,,,,,,,,,,,,,,,,,,,,,,,,,,,,,,,,,,,,1,001,2024-07-08_19h16.40.807,IAT(test06),2024.1.4,None,2024-07-08 19h16.49.269378 +0800,
,,,,热情,e,,,,,,,,,,,0,38,38,27,,,,,,,,,,,,,197.99263309990056,,,,,,,,,,,,,,,,197.9898971999064,197.99263309990056,198.4896322998684,,,,,,,,,,,,198.4932736000046,,,,,,,,,,,,,,,,,,,,,,,,,,,,198.48965059989132,198.4932736000046,198.4932736000046,199.12598709994927,i,0,0.6172344000078738,None,199.12629180005752,199.12953869998455,200.12313929991797,200.12585620000027,,,,,,,,,,,,,,,,,,,,,,,,,,,,,,,,,,,,,,,,,,,,,,,,,,1,001,2024-07-08_19h16.40.807,IAT(test06),2024.1.4,None,2024-07-08 19h16.49.269378 +0800,
,,,,我的,e,,,,,,,,,,,0,39,39,51,,,,,,,,,,,,,200.12585620000027,,,,,,,,,,,,,,,,200.1233784998767,200.12585620000027,200.6103751999326,,,,,,,,,,,,200.6260283999145,,,,,,,,,,,,,,,,,,,,,,,,,,,,200.61038949992508,200.6260283999145,200.6260283999145,200.89713489986025,e,1,0.2693032999522984,None,200.89741900004447,200.90312210004777,201.88980240002275,201.89276209985837,,,,,,,,,,,,,,,,,,,,,,,,,,,,,,,,,,,,,,,,,,,,,,,,,,1,001,2024-07-08_19h16.40.807,IAT(test06),2024.1.4,None,2024-07-08 19h16.49.269378 +0800,
,,,,俺,e,,,,,,,,,,,0,40,40,74,,,,,,,,,,,,,201.89276209985837,,,,,,,,,,,,,,,,201.89004019997083,201.89276209985837,202.3906187999528,,,,,,,,,,,,202.39430939988233,,,,,,,,,,,,,,,,,,,,,,,,,,,,202.39063600008376,202.39430939988233,202.39430939988233,202.90366299985908,e,1,0.5067153999116272,None,202.90393789997324,202.91269190004095,203.897323400015,203.9009376000613,,,,,,,,,,,,,,,,,,,,,,,,,,,,,,,,,,,,,,,,,,,,,,,,,,1,001,2024-07-08_19h16.40.807,IAT(test06),2024.1.4,None,2024-07-08 19h16.49.269378 +0800,
,,,,勇敢,e,,,,,,,,,,,0,41,41,17,,,,,,,,,,,,,203.9009376000613,,,,,,,,,,,,,,,,203.8975158999674,203.9009376000613,204.39101259992458,,,,,,,,,,,,204.39526570006274,,,,,,,,,,,,,,,,,,,,,,,,,,,,204.39103369996883,204.39526570006274,204.39526570006274,205.03202400007285,e,1,0.6325815999880433,None,205.03227550000884,205.03622299991548,206.0220788998995,206.0265271998942,,,,,,,,,,,,,,,,,,,,,,,,,,,,,,,,,,,,,,,,,,,,,,,,,,1,001,2024-07-08_19h16.40.807,IAT(test06),2024.1.4,None,2024-07-08 19h16.49.269378 +0800,
,,,,悲观,i,,,,,,,,,,,0,42,42,34,,,,,,,,,,,,,206.0265271998942,,,,,,,,,,,,,,,,206.02235280000605,206.0265271998942,206.52425469993614,,,,,,,,,,,,206.5288029999938,,,,,,,,,,,,,,,,,,,,,,,,,,,,206.52427379996516,206.5288029999938,206.5288029999938,207.23605299997143,i,1,0.7031459000427276,None,207.23635949986055,207.2401727999095,208.22855950007215,208.23288069991395,,,,,,,,,,,,,,,,,,,,,,,,,,,,,,,,,,,,,,,,,,,,,,,,,,1,001,2024-07-08_19h16.40.807,IAT(test06),2024.1.4,None,2024-07-08 19h16.49.269378 +0800,
,,,,轻率,i,,,,,,,,,,,0,43,43,48,,,,,,,,,,,,,208.23288069991395,,,,,,,,,,,,,,,,208.22881700005382,208.23288069991395,208.72453829995357,,,,,,,,,,,,208.73062100005336,,,,,,,,,,,,,,,,,,,,,,,,,,,,208.72455459996127,208.73062100005336,208.73062100005336,209.2877024000045,i,1,0.5413015999365598,None,209.28803399996832,209.2906202999875,210.28775470005348,210.29090710007586,,,,,,,,,,,,,,,,,,,,,,,,,,,,,,,,,,,,,,,,,,,,,,,,,,1,001,2024-07-08_19h16.40.807,IAT(test06),2024.1.4,None,2024-07-08 19h16.49.269378 +0800,
,,,,无私,e,,,,,,,,,,,0,44,44,22,,,,,,,,,,,,,210.29090710007586,,,,,,,,,,,,,,,,210.28801629994996,210.29090710007586,210.77396310004406,,,,,,,,,,,,210.7893775999546,,,,,,,,,,,,,,,,,,,,,,,,,,,,210.77397749992087,210.7893775999546,210.7893775999546,211.16336199990474,e,1,0.3724179998971522,None,211.16376059991308,211.1698475999292,212.1553935999982,212.15789150004275,,,,,,,,,,,,,,,,,,,,,,,,,,,,,,,,,,,,,,,,,,,,,,,,,,1,001,2024-07-08_19h16.40.807,IAT(test06),2024.1.4,None,2024-07-08 19h16.49.269378 +0800,
,,,,他人,i,,,,,,,,,,,0,45,45,68,,,,,,,,,,,,,212.15789150004275,,,,,,,,,,,,,,,,212.15564960008487,212.15789150004275,212.640648300061,,,,,,,,,,,,212.65777279995382,,,,,,,,,,,,,,,,,,,,,,,,,,,,212.64066400006413,212.66064430004917,212.66064430004917,213.19095269986428,i,1,0.51802509999834,None,213.1912475998979,213.19493200001307,214.18960359995253,214.19281590008177,,,,,,,,,,,,,,,,,,,,,,,,,,,,,,,,,,,,,,,,,,,,,,,,,,1,001,2024-07-08_19h16.40.807,IAT(test06),2024.1.4,None,2024-07-08 19h16.49.269378 +0800,
,,,,他们,i,,,,,,,,,,,0,46,46,66,,,,,,,,,,,,,214.19281590008177,,,,,,,,,,,,,,,,214.18984239990823,214.19281590008177,214.68870790000074,,,,,,,,,,,,214.69267020002007,,,,,,,,,,,,,,,,,,,,,,,,,,,,214.68872469989583,214.69267020002007,214.69267020002007,215.06142510008067,i,1,0.36592449992895126,None,215.06172779994085,215.06575359986164,216.05647130007856,216.05954619986005,,,,,,,,,,,,,,,,,,,,,,,,,,,,,,,,,,,,,,,,,,,,,,,,,,1,001,2024-07-08_19h16.40.807,IAT(test06),2024.1.4,None,2024-07-08 19h16.49.269378 +0800,
,,,,他人,i,,,,,,,,,,,0,47,47,78,,,,,,,,,,,,,216.05954619986005,,,,,,,,,,,,,,,,216.05680039990693,216.05954619986005,216.54389970004559,,,,,,,,,,,,216.5598241998814,,,,,,,,,,,,,,,,,,,,,,,,,,,,216.54391580005176,216.56323089986108,216.56323089986108,217.00467819999903,i,1,0.4360736000817269,None,217.0049364999868,217.02065690001473,218.005328200059,218.02116220002063,,,,,,,,,,,,,,,,,,,,,,,,,,,,,,,,,,,,,,,,,,,,,,,,,,1,001,2024-07-08_19h16.40.807,IAT(test06),2024.1.4,None,2024-07-08 19h16.49.269378 +0800,
,,,,杰出,e,,,,,,,,,,,0,48,48,13,,,,,,,,,,,,,218.02116220002063,,,,,,,,,,,,,,,,218.0055907999631,218.02116220002063,218.50771689997055,,,,,,,,,,,,,,,,,,,,,,,,,,,,,,,,,,,,,,,,218.50773090007715,218.52309100003913,218.52309100003913,218.99663660000078,e,1,0.470716199837625,None,218.9969178000465,219.00093739992008,219.99106179992668,219.99358989996836,,,,,,,,,,,,,,,,,,,,,,,,,,,,,,,,,,,,,,,,,,,,,,,,,,1,001,2024-07-08_19h16.40.807,IAT(test06),2024.1.4,None,2024-07-08 19h16.49.269378 +0800,
,,,,俺,e,,,,,,,,,,,0,49,49,54,,,,,,,,,,,,,219.99358989996836,,,,,,,,,,,,,,,,219.99131499999203,219.99358989996836,220.48935839999467,,,,,,,,,,,,220.4926326998975,,,,,,,,,,,,,,,,,,,,,,,,,,,,220.48938490008004,220.4926326998975,220.4926326998975,220.8943984999787,i,0,0.40043439995497465,None,220.8947099999059,220.90025279996917,221.88831089995801,221.89086059993133,,,,,,,,,,,,,,,,,,,,,,,,,,,,,,,,,,,,,,,,,,,,,,,,,,1,001,2024-07-08_19h16.40.807,IAT(test06),2024.1.4,None,2024-07-08 19h16.49.269378 +0800,
,,,,我们,e,,,,,,,,,,,0,50,50,52,,,,,,,,,,,,,221.89086059993133,,,,,,,,,,,,,,,,221.8885953000281,221.89086059993133,222.3739253000822,,,,,,,,,,,,222.38924920000136,,,,,,,,,,,,,,,,,,,,,,,,,,,,222.37393840006553,222.3921026000753,222.3921026000753,222.9741513999179,e,1,0.5777919001411647,None,222.97450829995796,222.98929509986192,223.97389700007625,223.98924800008535,,,,,,,,,,,,,,,,,,,,,,,,,,,,,,,,,,,,,,,,,,,,,,,,,,1,001,2024-07-08_19h16.40.807,IAT(test06),2024.1.4,None,2024-07-08 19h16.49.269378 +0800,
,,,,其他,i,,,,,,,,,,,0,51,51,79,,,,,,,,,,,,,223.98924800008535,,,,,,,,,,,,,,,,223.97410749993287,223.98924800008535,224.47474660002626,,,,,,,,,,,,224.48888610000722,,,,,,,,,,,,,,,,,,,,,,,,,,,,224.4747681999579,224.48888610000722,224.48888610000722,225.03523560008034,e,0,0.5418939001392573,None,225.03550489991903,225.0403660000302,226.02795660006814,226.03111930005252,,,,,,,,,,,,,,,,,,,,,,,,,,,,,,,,,,,,,,,,,,,,,,,,,,1,001,2024-07-08_19h16.40.807,IAT(test06),2024.1.4,None,2024-07-08 19h16.49.269378 +0800,
,,,,聪明,e,,,,,,,,,,,0,52,52,12,,,,,,,,,,,,,226.03111930005252,,,,,,,,,,,,,,,,226.02822529990226,226.03111930005252,226.52543419995345,,,,,,,,,,,,226.52909419988282,,,,,,,,,,,,,,,,,,,,,,,,,,,,226.52544920006767,226.52909419988282,226.52909419988282,227.02173670008779,i,0,0.48712279996834695,None,227.02201379998587,227.02727449988015,228.02160859992728,228.02423350000754,,,,,,,,,,,,,,,,,,,,,,,,,,,,,,,,,,,,,,,,,,,,,,,,,,1,001,2024-07-08_19h16.40.807,IAT(test06),2024.1.4,None,2024-07-08 19h16.49.269378 +0800,
,,,,下贱,i,,,,,,,,,,,0,53,53,49,,,,,,,,,,,,,228.02423350000754,,,,,,,,,,,,,,,,228.0218475998845,228.02423350000754,228.5083631000016,,,,,,,,,,,,228.5257055000402,,,,,,,,,,,,,,,,,,,,,,,,,,,,228.50838289991952,228.5257055000402,228.5257055000402,228.84125599986874,e,0,0.3105299000162631,None,228.84150219988078,228.85632240003906,229.84198660007678,,,,,,,,,,,,,,,,,,,,,,,,,,,,,,,,,,,,,,,,,,,,,,,,,,,1,001,2024-07-08_19h16.40.807,IAT(test06),2024.1.4,None,2024-07-08 19h16.49.269378 +0800,
,,,,我们,e,,,,,,,,,,,0,54,54,72,,,,,,,,,,,,,229.8476340000052,,,,,,,,,,,,,,,,229.8422735000495,229.8476340000052,230.3328001999762,,,,,,,,,,,,230.33776089991443,,,,,,,,,,,,,,,,,,,,,,,,,,,,230.33281689998694,230.33776089991443,230.33776089991443,230.6075766000431,i,0,0.2623499999754131,None,230.6078761999961,230.62209489988163,231.60575819993392,231.6083477998618,,,,,,,,,,,,,,,,,,,,,,,,,,,,,,,,,,,,,,,,,,,,,,,,,,1,001,2024-07-08_19h16.40.807,IAT(test06),2024.1.4,None,2024-07-08 19h16.49.269378 +0800,
,,,,我的,e,,,,,,,,,,,0,55,55,71,,,,,,,,,,,,,231.6083477998618,,,,,,,,,,,,,,,,231.60599770001136,231.6083477998618,232.09122970001772,,,,,,,,,,,,232.0944810998626,,,,,,,,,,,,,,,,,,,,,,,,,,,,232.09124560002238,232.0944810998626,232.0944810998626,232.42398429987952,e,1,0.3264237002003938,None,232.42426369991153,232.42836340004578,233.42279260000214,233.42537439987063,,,,,,,,,,,,,,,,,,,,,,,,,,,,,,,,,,,,,,,,,,,,,,,,,,1,001,2024-07-08_19h16.40.807,IAT(test06),2024.1.4,None,2024-07-08 19h16.49.269378 +0800,
,,,,鲁莽,i,,,,,,,,,,,0,56,56,38,,,,,,,,,,,,,233.42537439987063,,,,,,,,,,,,,,,,233.42305830004625,233.42537439987063,233.92350819986314,,,,,,,,,,,,233.9272195000667,,,,,,,,,,,,,,,,,,,,,,,,,,,,233.9235258998815,233.9272195000667,233.9272195000667,234.1603916999884,i,1,0.22673709993250668,None,234.16067259991542,234.16406009998173,235.15606969990768,235.15889570000581,,,,,,,,,,,,,,,,,,,,,,,,,,,,,,,,,,,,,,,,,,,,,,,,,,1,001,2024-07-08_19h16.40.807,IAT(test06),2024.1.4,None,2024-07-08 19h16.49.269378 +0800,
,,,,我的,e,,,,,,,,,,,0,57,57,61,,,,,,,,,,,,,235.15889570000581,,,,,,,,,,,,,,,,235.15634869993664,235.15889570000581,235.6582501998637,,,,,,,,,,,,235.66222669999115,,,,,,,,,,,,,,,,,,,,,,,,,,,,235.65826509986073,235.66222669999115,235.66222669999115,236.45899359998293,e,1,0.7933594998903573,None,236.4592766999267,236.46261500008404,237.4565137999598,237.45951479999349,,,,,,,,,,,,,,,,,,,,,,,,,,,,,,,,,,,,,,,,,,,,,,,,,,1,001,2024-07-08_19h16.40.807,IAT(test06),2024.1.4,None,2024-07-08 19h16.49.269378 +0800,
,,,,卑鄙,i,,,,,,,,,,,0,58,58,30,,,,,,,,,,,,,237.45951479999349,,,,,,,,,,,,,,,,237.45678410003893,237.45951479999349,237.95489549986087,,,,,,,,,,,,237.95904530002736,,,,,,,,,,,,,,,,,,,,,,,,,,,,237.95492499996908,237.95904530002736,237.95904530002736,239.45779230003245,None,0,,,239.4580321998801,239.46214589988813,240.4569073000457,240.4607476000674,239.46214589988813,239.46214589988813,,,,,,,,,,,,,,,,,,,,,,,,,,,,,,,,,,,,,,,,,,,,,,,,1,001,2024-07-08_19h16.40.807,IAT(test06),2024.1.4,None,2024-07-08 19h16.49.269378 +0800,
,,,,俺,e,,,,,,,,,,,0,59,59,64,,,,,,,,,,,,,240.4607476000674,,,,,,,,,,,,,,,,240.4571799999103,240.4607476000674,240.95397939998657,,,,,,,,,,,,240.9580580999609,,,,,,,,,,,,,,,,,,,,,,,,,,,,240.9540039000567,240.9580580999609,240.9580580999609,242.44235650007613,None,0,,,242.44276540004648,242.44602519995533,243.435175599996,243.44035109994002,242.44602519995533,242.44602519995533,,,,,,,,,,,,,,,,,,,,,,,,,,,,,,,,,,,,,,,,,,,,,,,,1,001,2024-07-08_19h16.40.807,IAT(test06),2024.1.4,None,2024-07-08 19h16.49.269378 +0800,
,,,,他们,i,,,,,,,,,,,0,60,60,6,,,,,,,,,,,,,243.44035109994002,,,,,,,,,,,,,,,,243.43541919998825,243.4598779999651,243.9564652000554,,,,,,,,,,,,243.96030789986253,,,,,,,,,,,,,,,,,,,,,,,,,,,,243.95648499997333,243.96030789986253,243.96030789986253,245.45497690001503,None,0,,,245.455232599983,245.45785899995826,246.44059529993683,246.4563821000047,245.45785899995826,245.45785899995826,,,,,,,,,,,,,,,,,,,,,,,,,,,,,,,,,,,,,,,,,,,,,,,,1,001,2024-07-08_19h16.40.807,IAT(test06),2024.1.4,None,2024-07-08 19h16.49.269378 +0800,
,,,,他,i,,,,,,,,,,,0,61,61,55,,,,,,,,,,,,,246.4563821000047,,,,,,,,,,,,,,,,246.44090729998425,246.46205729991198,246.9559080998879,,,,,,,,,,,,246.9592551998794,,,,,,,,,,,,,,,,,,,,,,,,,,,,246.95592370000668,246.9592551998794,246.9592551998794,247.809119499987,i,1,0.8363775999750942,None,247.80941009987146,247.8140882998705,248.79872429999523,248.80568449990824,,,,,,,,,,,,,,,,,,,,,,,,,,,,,,,,,,,,,,,,,,,,,,,,,,1,001,2024-07-08_19h16.40.807,IAT(test06),2024.1.4,None,2024-07-08 19h16.49.269378 +0800,
,,,,暴躁,i,,,,,,,,,,,0,62,62,44,,,,,,,,,,,,,248.80568449990824,,,,,,,,,,,,,,,,248.79898649989627,248.80568449990824,249.29176549986005,,,,,,,,,,,,249.29516239999793,,,,,,,,,,,,,,,,,,,,,,,,,,,,249.29178439988755,249.2979472000152,249.2979472000152,249.97431709989905,i,1,0.6747834000270814,None,249.97457239986397,249.9897380999755,250.97487129992805,,,,,,,,,,,,,,,,,,,,,,,,,,,,,,,,,,,,,,,,,,,,,,,,,,,1,001,2024-07-08_19h16.40.807,IAT(test06),2024.1.4,None,2024-07-08 19h16.49.269378 +0800,
,,,,其他,i,,,,,,,,,,,0,63,63,9,,,,,,,,,,,,,250.99008830008097,,,,,,,,,,,,,,,,250.97509169997647,250.99008830008097,251.48741249996237,,,,,,,,,,,,,,,,,,,,,,,,,,,,,,,,,,,,,,,,251.4874897999689,251.49157209997065,251.49157209997065,252.05651340004988,i,1,0.5582665000110865,None,252.05678169988096,252.06047919997945,253.04692039988004,253.06393549987115,,,,,,,,,,,,,,,,,,,,,,,,,,,,,,,,,,,,,,,,,,,,,,,,,,1,001,2024-07-08_19h16.40.807,IAT(test06),2024.1.4,None,2024-07-08 19h16.49.269378 +0800,
,,,,傲慢,i,,,,,,,,,,,0,64,64,37,,,,,,,,,,,,,253.06393549987115,,,,,,,,,,,,,,,,253.04715540003963,253.06393549987115,253.55591870006174,,,,,,,,,,,,253.5603739998769,,,,,,,,,,,,,,,,,,,,,,,,,,,,253.55593620007858,253.5603739998769,253.5603739998769,254.35478150006384,e,0,0.7813178000506014,None,254.3551395998802,254.36098310002126,255.35663149994798,,,,,,,,,,,,,,,,,,,,,,,,,,,,,,,,,,,,,,,,,,,,,,,,,,,1,001,2024-07-08_19h16.40.807,IAT(test06),2024.1.4,None,2024-07-08 19h16.49.269378 +0800,
,,,,诚恳,e,,,,,,,,,,,0,65,65,29,,,,,,,,,,,,,255.35937189985998,,,,,,,,,,,,,,,,255.35689239995554,255.35937189985998,255.85639329999685,,,,,,,,,,,,,,,,,,,,,,,,,,,,,,,,,,,,,,,,255.85640909988433,255.86016059992835,255.86016059992835,256.52451699995436,e,1,0.6532797999680042,None,256.52478999993764,256.530525600072,257.524138599867,257.5267685998697,,,,,,,,,,,,,,,,,,,,,,,,,,,,,,,,,,,,,,,,,,,,,,,,,,1,001,2024-07-08_19h16.40.807,IAT(test06),2024.1.4,None,2024-07-08 19h16.49.269378 +0800,
,,,,他,i,,,,,,,,,,,0,66,66,5,,,,,,,,,,,,,257.5267685998697,,,,,,,,,,,,,,,,257.5244028000161,257.5267685998697,258.02401069994085,,,,,,,,,,,,258.0276166999247,,,,,,,,,,,,,,,,,,,,,,,,,,,,258.0240249999333,258.0276166999247,258.0276166999247,258.5738011999056,i,1,0.5404109999071807,None,258.5741135000717,258.57762319990434,259.56321289995685,259.5654176999815,,,,,,,,,,,,,,,,,,,,,,,,,,,,,,,,,,,,,,,,,,,,,,,,,,1,001,2024-07-08_19h16.40.807,IAT(test06),2024.1.4,None,2024-07-08 19h16.49.269378 +0800,
,,,,冷静,e,,,,,,,,,,,0,67,67,26,,,,,,,,,,,,,259.5654176999815,,,,,,,,,,,,,,,,259.5635144999251,259.5654176999815,260.05655870004557,,,,,,,,,,,,260.05992159992456,,,,,,,,,,,,,,,,,,,,,,,,,,,,260.0565748999361,260.0619278999511,260.0619278999511,260.75593549991027,e,1,0.6833689999766648,None,260.756202199962,260.7596197000239,261.75542349996977,261.75795340002514,,,,,,,,,,,,,,,,,,,,,,,,,,,,,,,,,,,,,,,,,,,,,,,,,,1,001,2024-07-08_19h16.40.807,IAT(test06),2024.1.4,None,2024-07-08 19h16.49.269378 +0800,
,,,,他们,i,,,,,,,,,,,0,68,68,56,,,,,,,,,,,,,261.75795340002514,,,,,,,,,,,,,,,,261.7556793000549,261.75795340002514,262.2407013999764,,,,,,,,,,,,262.2567841000855,,,,,,,,,,,,,,,,,,,,,,,,,,,,262.24071420007385,262.2567841000855,262.2567841000855,263.0895143998787,i,1,0.8271553001832217,None,263.08990989997983,263.0935349999927,264.0774991000071,264.0834296999965,,,,,,,,,,,,,,,,,,,,,,,,,,,,,,,,,,,,,,,,,,,,,,,,,,1,001,2024-07-08_19h16.40.807,IAT(test06),2024.1.4,None,2024-07-08 19h16.49.269378 +0800,
,,,,我,e,,,,,,,,,,,0,69,69,0,,,,,,,,,,,,,264.0834296999965,,,,,,,,,,,,,,,,264.07773320004344,264.0834296999965,264.5692650000565,,,,,,,,,,,,264.5735821998678,,,,,,,,,,,,,,,,,,,,,,,,,,,,264.569286899874,264.5897750998847,264.5897750998847,265.05716519989073,e,1,0.458830300020054,None,265.0576078000013,265.0608471999876,266.05676990002394,266.0596775000449,,,,,,,,,,,,,,,,,,,,,,,,,,,,,,,,,,,,,,,,,,,,,,,,,,1,001,2024-07-08_19h16.40.807,IAT(test06),2024.1.4,None,2024-07-08 19h16.49.269378 +0800,
,,,,崇高,e,,,,,,,,,,,0,70,70,11,,,,,,,,,,,,,266.0596775000449,,,,,,,,,,,,,,,,266.0570102999918,266.0596775000449,266.55580609990284,,,,,,,,,,,,266.559891999932,,,,,,,,,,,,,,,,,,,,,,,,,,,,266.55582550005056,266.559891999932,266.559891999932,267.1916704000905,e,1,0.6239587999880314,None,267.19196960004047,267.1948748000432,268.19059789995663,268.1933152999263,,,,,,,,,,,,,,,,,,,,,,,,,,,,,,,,,,,,,,,,,,,,,,,,,,1,001,2024-07-08_19h16.40.807,IAT(test06),2024.1.4,None,2024-07-08 19h16.49.269378 +0800,
,,,,细腻,e,,,,,,,,,,,0,71,71,25,,,,,,,,,,,,,268.1933152999263,,,,,,,,,,,,,,,,268.1908581999596,268.1933152999263,268.6893007999752,,,,,,,,,,,,268.69288729992695,,,,,,,,,,,,,,,,,,,,,,,,,,,,268.68931759987026,268.69288729992695,268.69288729992695,269.26007469999604,i,0,0.5556133000645787,None,269.2603978998959,269.26596660004,270.2568540000357,270.2595003999304,,,,,,,,,,,,,,,,,,,,,,,,,,,,,,,,,,,,,,,,,,,,,,,,,,1,001,2024-07-08_19h16.40.807,IAT(test06),2024.1.4,None,2024-07-08 19h16.49.269378 +0800,
,,,,自私,i,,,,,,,,,,,0,72,72,43,,,,,,,,,,,,,270.2595003999304,,,,,,,,,,,,,,,,270.2571179000661,270.2595003999304,270.7555287000723,,,,,,,,,,,,270.75907699996606,,,,,,,,,,,,,,,,,,,,,,,,,,,,270.7555454999674,270.75907699996606,270.75907699996606,271.1262652000878,e,0,0.3489495001267642,None,271.12654359987937,271.12970410007983,272.1247201000806,272.127228599973,,,,,,,,,,,,,,,,,,,,,,,,,,,,,,,,,,,,,,,,,,,,,,,,,,1,001,2024-07-08_19h16.40.807,IAT(test06),2024.1.4,None,2024-07-08 19h16.49.269378 +0800,
,,,,我,e,,,,,,,,,,,0,73,73,70,,,,,,,,,,,,,272.127228599973,,,,,,,,,,,,,,,,272.1249853998888,272.127228599973,272.6229006999638,,,,,,,,,,,,272.6262421000283,,,,,,,,,,,,,,,,,,,,,,,,,,,,272.6229187999852,272.6262421000283,272.6262421000283,273.17485000006855,i,0,0.5475461001042277,None,273.17512109992094,273.1889977999963,274.17398660001345,274.1894372999668,,,,,,,,,,,,,,,,,,,,,,,,,,,,,,,,,,,,,,,,,,,,,,,,,,1,001,2024-07-08_19h16.40.807,IAT(test06),2024.1.4,None,2024-07-08 19h16.49.269378 +0800,
,,,,勤奋,e,,,,,,,,,,,0,74,74,18,,,,,,,,,,,,,274.1894372999668,,,,,,,,,,,,,,,,274.17419210006483,274.1894372999668,274.67252939986065,,,,,,,,,,,,274.67721650004387,,,,,,,,,,,,,,,,,,,,,,,,,,,,274.67254489986226,274.67721650004387,274.67721650004387,275.2626616000198,e,1,0.5819123000837862,None,275.2629211000167,275.26882039988413,276.25780280004255,276.2602192000486,,,,,,,,,,,,,,,,,,,,,,,,,,,,,,,,,,,,,,,,,,,,,,,,,,1,001,2024-07-08_19h16.40.807,IAT(test06),2024.1.4,None,2024-07-08 19h16.49.269378 +0800,
,,,,我,e,,,,,,,,,,,0,75,75,50,,,,,,,,,,,,,276.2602192000486,,,,,,,,,,,,,,,,276.2580613999162,276.2602192000486,276.75508020003326,,,,,,,,,,,,276.7591339999344,,,,,,,,,,,,,,,,,,,,,,,,,,,,276.75509990006685,276.7591339999344,276.7591339999344,277.42243649996817,i,0,0.6578293000347912,None,277.4227126999758,277.427435599966,278.42235010000877,278.42597280000336,,,,,,,,,,,,,,,,,,,,,,,,,,,,,,,,,,,,,,,,,,,,,,,,,,1,001,2024-07-08_19h16.40.807,IAT(test06),2024.1.4,None,2024-07-08 19h16.49.269378 +0800,
,,,,固执,i,,,,,,,,,,,0,76,76,47,,,,,,,,,,,,,278.42597280000336,,,,,,,,,,,,,,,,278.4225923998747,278.42597280000336,278.92378169996664,,,,,,,,,,,,,,,,,,,,,,,,,,,,,,,,,,,,,,,,278.92380940006115,278.92842009989545,278.92842009989545,279.72782909986563,i,1,0.7967626000754535,None,279.7281649999786,279.7334223999642,280.7238914000336,280.7275540998671,,,,,,,,,,,,,,,,,,,,,,,,,,,,,,,,,,,,,,,,,,,,,,,,,,1,001,2024-07-08_19h16.40.807,IAT(test06),2024.1.4,None,2024-07-08 19h16.49.269378 +0800,
,,,,猖狂,i,,,,,,,,,,,0,77,77,45,,,,,,,,,,,,,280.7275540998671,,,,,,,,,,,,,,,,280.72415830008686,280.7275540998671,281.22267209994607,,,,,,,,,,,,281.22715869988315,,,,,,,,,,,,,,,,,,,,,,,,,,,,281.2226871000603,281.22715869988315,281.22715869988315,282.1391564998776,i,1,0.909916799981147,None,282.13944349996746,282.14327059988864,283.12850719993,283.130786200054,,,,,,,,,,,,,,,,,,,,,,,,,,,,,,,,,,,,,,,,,,,,,,,,,,1,001,2024-07-08_19h16.40.807,IAT(test06),2024.1.4,None,2024-07-08 19h16.49.269378 +0800,
,,,,我们,e,,,,,,,,,,,0,78,78,2,,,,,,,,,,,,,283.130786200054,,,,,,,,,,,,,,,,283.1287414999679,283.130786200054,283.6212086000014,,,,,,,,,,,,283.6249923000578,,,,,,,,,,,,,,,,,,,,,,,,,,,,283.6212269999087,283.6272255999502,283.6272255999502,284.1238472000696,e,1,0.48082160018384457,None,284.12411840003915,284.12675009993836,285.12482859985903,,,,,,,,,,,,,,,,,,,,,,,,,,,,,,,,,,,,,,,,,,,,,,,,,,,1,001,2024-07-08_19h16.40.807,IAT(test06),2024.1.4,None,2024-07-08 19h16.49.269378 +0800,
,,,,野蛮,i,,,,,,,,,,,0,79,79,46,,,,,,,,,,,,,285.1275601000525,,,,,,,,,,,,,,,,285.1250907999929,285.1275601000525,285.61385040008463,,,,,,,,,,,,285.61812809994444,,,,,,,,,,,,,,,,,,,,,,,,,,,,285.61386869987473,285.61812809994444,285.61812809994444,286.20592039986514,e,0,0.5856830000411719,None,286.20618189987727,286.22160420008004,287.20605769986287,287.22098209988326,,,,,,,,,,,,,,,,,,,,,,,,,,,,,,,,,,,,,,,,,,,,,,,,,,1,001,2024-07-08_19h16.40.807,IAT(test06),2024.1.4,None,2024-07-08 19h16.49.269378 +0800,
,,,,,,,,,,,,,,,,,,,,,,,,,,,,,,,,,,,,,,,,,,,,,,,,,,,,,,,,,,,,,,,,,,,,,,,,,,,,,,,,,,,,,,,,,,,,,,,,,,,,,,,,287.2061149000656,287.22098209988326,287.22098209988326,292.2565963000525,space,5.023782700067386,None,,,,,,,,,,,,,,,,,,,,,,,,,,,,,,,,,,,,,,,,,1,001,2024-07-08_19h16.40.807,IAT(test06),2024.1.4,None,2024-07-08 19h16.49.269378 +0800,
,,,,消极,i,,,,,,,,,,,,,,,0,0,0,35,,,,,,,,,292.2736122000497,,,,,,,,,,,,,,,,292.27073489991017,292.2736122000497,292.7572139999829,,,,,,,,,,,,,,,,,,,,,,,,,,,,,,,,,,,,,,,,292.7572289998643,292.7602649999317,292.7602649999317,293.9330466000829,i,1,1.17062190012075,None,293.93344020005316,293.93838499998674,294.92323549999855,294.9262796000112,,,,,,,,,,,,,,,,,,,,,,,,,,,,,,,,,,,,,,,,,,,,,,,,,,1,001,2024-07-08_19h16.40.807,IAT(test06),2024.1.4,None,2024-07-08 19h16.49.269378 +0800,
,,,,我,e,,,,,,,,,,,,,,,0,1,1,70,,,,,,,,,294.9262796000112,,,,,,,,,,,,,,,,294.92365440004505,294.9262796000112,295.42084049992263,,,,,,,,,,,,295.4245164000895,,,,,,,,,,,,,,,,,,,,,,,,,,,,295.4208571999334,295.4245164000895,295.4245164000895,295.7959046999458,e,1,0.3701949000824243,None,295.7961949999444,295.80102839996107,296.7906154000666,296.7933519000653,,,,,,,,,,,,,,,,,,,,,,,,,,,,,,,,,,,,,,,,,,,,,,,,,,1,001,2024-07-08_19h16.40.807,IAT(test06),2024.1.4,None,2024-07-08 19h16.49.269378 +0800,
,,,,傲慢,i,,,,,,,,,,,,,,,0,2,2,37,,,,,,,,,296.7933519000653,,,,,,,,,,,,,,,,296.79085789993405,296.7933519000653,297.28872060007416,,,,,,,,,,,,297.2936773998663,,,,,,,,,,,,,,,,,,,,,,,,,,,,297.2887379999738,297.2936773998663,297.2936773998663,297.7641910999082,i,1,0.46764040016569197,None,297.7645582999103,297.7686665998772,298.7556723000016,298.7580532999709,,,,,,,,,,,,,,,,,,,,,,,,,,,,,,,,,,,,,,,,,,,,,,,,,,1,001,2024-07-08_19h16.40.807,IAT(test06),2024.1.4,None,2024-07-08 19h16.49.269378 +0800,
,,,,热情,e,,,,,,,,,,,,,,,0,3,3,27,,,,,,,,,298.7580532999709,,,,,,,,,,,,,,,,298.75590039999224,298.7580532999709,299.2571237999946,,,,,,,,,,,,299.2609987000469,,,,,,,,,,,,,,,,,,,,,,,,,,,,299.2571394999977,299.2609987000469,299.2609987000469,299.84188860002905,e,1,0.5790126000065356,None,299.84212399995886,299.85646010003984,300.85723010008223,,,,,,,,,,,,,,,,,,,,,,,,,,,,,,,,,,,,,,,,,,,,,,,,,,,1,001,2024-07-08_19h16.40.807,IAT(test06),2024.1.4,None,2024-07-08 19h16.49.269378 +0800,
,,,,轻率,i,,,,,,,,,,,,,,,0,4,4,48,,,,,,,,,300.8611001998652,,,,,,,,,,,,,,,,300.8574828999117,300.8611001998652,301.35410150000826,,,,,,,,,,,,,,,,,,,,,,,,,,,,,,,,,,,,,,,,301.35411860002205,301.35831719986163,301.35831719986163,301.85926749999635,e,0,0.48772870004177094,None,301.85953909996897,301.86425539990887,302.85767709999345,302.86079189996235,,,,,,,,,,,,,,,,,,,,,,,,,,,,,,,,,,,,,,,,,,,,,,,,,,1,001,2024-07-08_19h16.40.807,IAT(test06),2024.1.4,None,2024-07-08 19h16.49.269378 +0800,
,,,,诚实,e,,,,,,,,,,,,,,,0,5,5,15,,,,,,,,,302.86079189996235,,,,,,,,,,,,,,,,302.8580729998648,302.86079189996235,303.3544642999768,,,,,,,,,,,,303.3582484999206,,,,,,,,,,,,,,,,,,,,,,,,,,,,303.3544813999906,303.3582484999206,303.3582484999206,303.6573840000201,i,0,0.28667479986324906,None,303.6576584998984,303.6609113998711,304.6571692000143,304.6596558999736,,,,,,,,,,,,,,,,,,,,,,,,,,,,,,,,,,,,,,,,,,,,,,,,,,1,001,2024-07-08_19h16.40.807,IAT(test06),2024.1.4,None,2024-07-08 19h16.49.269378 +0800,
,,,,鲁莽,i,,,,,,,,,,,,,,,0,6,6,38,,,,,,,,,304.6596558999736,,,,,,,,,,,,,,,,304.6574418998789,304.6596558999736,305.1548061000649,,,,,,,,,,,,305.1584866999183,,,,,,,,,,,,,,,,,,,,,,,,,,,,305.15482449997216,305.1584866999183,305.1584866999183,306.6579418000765,None,0,,,306.658193100011,306.66070559993386,307.6574263998773,307.66003859997727,,,,,,,,,,,,,,,,,,,,,,,,,,,,,,,,,,,,,,,,,,,,,,,,,,1,001,2024-07-08_19h16.40.807,IAT(test06),2024.1.4,None,2024-07-08 19h16.49.269378 +0800,
,,,,他,i,,,,,,,,,,,,,,,0,7,7,65,,,,,,,,,307.66003859997727,,,,,,,,,,,,,,,,307.65773699991405,307.66003859997727,308.1556919000577,,,,,,,,,,,,308.15934320003726,,,,,,,,,,,,,,,,,,,,,,,,,,,,308.15570400003344,308.15934320003726,308.15934320003726,309.65737919998355,None,0,,,309.65760069992393,309.6600096998736,310.6568469000049,310.66013019997627,309.6600096998736,309.6600096998736,,,,,,,,,,,,,,,,,,,,,,,,,,,,,,,,,,,,,,,,,,,,,,,,1,001,2024-07-08_19h16.40.807,IAT(test06),2024.1.4,None,2024-07-08 19h16.49.269378 +0800,
,,,,暴躁,i,,,,,,,,,,,,,,,0,8,8,44,,,,,,,,,310.66013019997627,,,,,,,,,,,,,,,,310.657114099944,310.66013019997627,311.15445249993354,,,,,,,,,,,,311.15864440007135,,,,,,,,,,,,,,,,,,,,,,,,,,,,311.1544772000052,311.15864440007135,311.15864440007135,312.64200929994695,None,0,,,312.64224289986305,312.6576292999089,313.6406600000337,313.6563267998863,312.6576292999089,312.6576292999089,,,,,,,,,,,,,,,,,,,,,,,,,,,,,,,,,,,,,,,,,,,,,,,,1,001,2024-07-08_19h16.40.807,IAT(test06),2024.1.4,None,2024-07-08 19h16.49.269378 +0800,
,,,,俺,e,,,,,,,,,,,,,,,0,9,9,4,,,,,,,,,313.6563267998863,,,,,,,,,,,,,,,,313.6408659000881,313.6563267998863,314.15380569989793,,,,,,,,,,,,314.157566400012,,,,,,,,,,,,,,,,,,,,,,,,,,,,314.1538241999224,314.157566400012,314.157566400012,315.64214490004815,None,0,,,315.6423813998699,315.65767079987563,316.64065640000626,316.65683740004897,315.65767079987563,315.65767079987563,,,,,,,,,,,,,,,,,,,,,,,,,,,,,,,,,,,,,,,,,,,,,,,,1,001,2024-07-08_19h16.40.807,IAT(test06),2024.1.4,None,2024-07-08 19h16.49.269378 +0800,
,,,,其他,i,,,,,,,,,,,,,,,0,10,10,69,,,,,,,,,316.65683740004897,,,,,,,,,,,,,,,,316.64089630008675,316.65683740004897,317.154645799892,,,,,,,,,,,,317.15845220000483,,,,,,,,,,,,,,,,,,,,,,,,,,,,317.1546698999591,317.15845220000483,317.15845220000483,318.6580501999706,None,0,,,318.6582961999811,318.66088310000487,319.64553109998815,319.6571470000781,318.66088310000487,318.66088310000487,,,,,,,,,,,,,,,,,,,,,,,,,,,,,,,,,,,,,,,,,,,,,,,,1,001,2024-07-08_19h16.40.807,IAT(test06),2024.1.4,None,2024-07-08 19h16.49.269378 +0800,
,,,,他的,i,,,,,,,,,,,,,,,0,11,11,77,,,,,,,,,319.6571470000781,,,,,,,,,,,,,,,,319.6458091000095,319.6571470000781,320.1542642998975,,,,,,,,,,,,320.15878820000216,,,,,,,,,,,,,,,,,,,,,,,,,,,,320.1542795000132,320.15878820000216,320.15878820000216,321.6431412000675,None,0,,,321.64335520006716,321.6576107000001,322.6408275999129,322.6568992000539,321.6576107000001,321.6576107000001,,,,,,,,,,,,,,,,,,,,,,,,,,,,,,,,,,,,,,,,,,,,,,,,1,001,2024-07-08_19h16.40.807,IAT(test06),2024.1.4,None,2024-07-08 19h16.49.269378 +0800,
,,,,悲观,i,,,,,,,,,,,,,,,0,12,12,34,,,,,,,,,322.6568992000539,,,,,,,,,,,,,,,,322.641054000007,322.6568992000539,323.15431379992515,,,,,,,,,,,,323.1583098000847,,,,,,,,,,,,,,,,,,,,,,,,,,,,323.1543284000363,323.1583098000847,323.1583098000847,324.6578901000321,None,0,,,324.65811010007747,324.6608144000638,325.6618345999159,,324.6608144000638,324.6608144000638,,,,,,,,,,,,,,,,,,,,,,,,,,,,,,,,,,,,,,,,,,,,,,,,1,001,2024-07-08_19h16.40.807,IAT(test06),2024.1.4,None,2024-07-08 19h16.49.269378 +0800,
,,,,愚蠢,i,,,,,,,,,,,,,,,0,13,13,32,,,,,,,,,325.6648969000671,,,,,,,,,,,,,,,,325.6621135000605,325.6648969000671,326.1542646999005,,,,,,,,,,,,326.1581830000505,,,,,,,,,,,,,,,,,,,,,,,,,,,,326.154283199925,326.1581830000505,326.1581830000505,327.6581137999892,None,0,,,327.65832639997825,327.66074090008624,328.6573171999771,328.6599266999401,327.66074090008624,327.66074090008624,,,,,,,,,,,,,,,,,,,,,,,,,,,,,,,,,,,,,,,,,,,,,,,,1,001,2024-07-08_19h16.40.807,IAT(test06),2024.1.4,None,2024-07-08 19h16.49.269378 +0800,
,,,,自己,e,,,,,,,,,,,,,,,0,14,14,63,,,,,,,,,328.6599266999401,,,,,,,,,,,,,,,,328.65757689997554,328.6599266999401,329.1451701000333,,,,,,,,,,,,329.15961789991707,,,,,,,,,,,,,,,,,,,,,,,,,,,,329.14518440002576,329.15961789991707,329.15961789991707,330.6570263998583,None,0,,,330.6572759000119,330.6596951999236,331.6556980998721,331.65832789987326,330.6596951999236,330.6596951999236,,,,,,,,,,,,,,,,,,,,,,,,,,,,,,,,,,,,,,,,,,,,,,,,1,001,2024-07-08_19h16.40.807,IAT(test06),2024.1.4,None,2024-07-08 19h16.49.269378 +0800,
,,,,执拗,i,,,,,,,,,,,,,,,0,15,15,40,,,,,,,,,331.65832789987326,,,,,,,,,,,,,,,,331.65600359998643,331.65832789987326,332.1551123999525,,,,,,,,,,,,332.1587012000382,,,,,,,,,,,,,,,,,,,,,,,,,,,,332.15513289999217,332.1587012000382,332.1587012000382,333.65813659993,None,0,,,333.6585331999231,333.6617795000784,334.65757189993747,334.6601553999353,333.6617795000784,333.6617795000784,,,,,,,,,,,,,,,,,,,,,,,,,,,,,,,,,,,,,,,,,,,,,,,,1,001,2024-07-08_19h16.40.807,IAT(test06),2024.1.4,None,2024-07-08 19h16.49.269378 +0800,
,,,,他们,i,,,,,,,,,,,,,,,0,16,16,6,,,,,,,,,334.6601553999353,,,,,,,,,,,,,,,,334.65784160001203,334.6601553999353,335.1540614999831,,,,,,,,,,,,335.1583249999676,,,,,,,,,,,,,,,,,,,,,,,,,,,,335.1540848000441,335.1583249999676,335.1583249999676,336.6573409999255,None,0,,,336.65756489988416,336.65994749986567,337.6565600000322,337.65954519994557,336.65994749986567,336.65994749986567,,,,,,,,,,,,,,,,,,,,,,,,,,,,,,,,,,,,,,,,,,,,,,,,1,001,2024-07-08_19h16.40.807,IAT(test06),2024.1.4,None,2024-07-08 19h16.49.269378 +0800,
,,,,认真,e,,,,,,,,,,,,,,,0,17,17,20,,,,,,,,,337.65954519994557,,,,,,,,,,,,,,,,337.65683009987697,337.65954519994557,338.153883599909,,,,,,,,,,,,338.15782599989325,,,,,,,,,,,,,,,,,,,,,,,,,,,,338.1538988999091,338.15782599989325,338.15782599989325,339.6421264000237,None,0,,,339.6423541000113,339.6471327000763,340.63489299989305,340.6571710999124,339.6471327000763,339.6471327000763,,,,,,,,,,,,,,,,,,,,,,,,,,,,,,,,,,,,,,,,,,,,,,,,1,001,2024-07-08_19h16.40.807,IAT(test06),2024.1.4,None,2024-07-08 19h16.49.269378 +0800,
,,,,冒失,i,,,,,,,,,,,,,,,0,18,18,39,,,,,,,,,340.6571710999124,,,,,,,,,,,,,,,,340.63512540003285,340.6612756999675,341.1552227998618,,,,,,,,,,,,341.15899370005354,,,,,,,,,,,,,,,,,,,,,,,,,,,,341.15524400002323,341.15899370005354,341.15899370005354,342.65753259998746,None,0,,,342.657861799933,342.66119730006903,343.65634460002184,343.6601144000888,342.66119730006903,342.66119730006903,,,,,,,,,,,,,,,,,,,,,,,,,,,,,,,,,,,,,,,,,,,,,,,,1,001,2024-07-08_19h16.40.807,IAT(test06),2024.1.4,None,2024-07-08 19h16.49.269378 +0800,
,,,,活泼,e,,,,,,,,,,,,,,,0,19,19,28,,,,,,,,,343.6601144000888,,,,,,,,,,,,,,,,343.6566004999913,343.6601144000888,344.15428930008784,,,,,,,,,,,,344.15860809991136,,,,,,,,,,,,,,,,,,,,,,,,,,,,344.15430529997684,344.15860809991136,344.15860809991136,345.6564726999495,None,0,,,345.65670419996604,345.65938149997965,346.6470983000472,346.6522967000492,345.65938149997965,345.65938149997965,,,,,,,,,,,,,,,,,,,,,,,,,,,,,,,,,,,,,,,,,,,,,,,,1,001,2024-07-08_19h16.40.807,IAT(test06),2024.1.4,None,2024-07-08 19h16.49.269378 +0800,
,,,,他人,i,,,,,,,,,,,,,,,0,20,20,8,,,,,,,,,346.6522967000492,,,,,,,,,,,,,,,,346.64752839994617,346.6522967000492,347.1387058000546,,,,,,,,,,,,347.14191249990836,,,,,,,,,,,,,,,,,,,,,,,,,,,,347.1387237000745,347.1449728999287,347.1449728999287,347.8662542998791,i,1,0.7114903000183403,None,347.8665517999325,347.87433860008605,348.8607047998812,348.86353049986064,,,,,,,,,,,,,,,,,,,,,,,,,,,,,,,,,,,,,,,,,,,,,,,,,,1,001,2024-07-08_19h16.40.807,IAT(test06),2024.1.4,None,2024-07-08 19h16.49.269378 +0800,
,,,,正直,e,,,,,,,,,,,,,,,0,21,21,16,,,,,,,,,348.86353049986064,,,,,,,,,,,,,,,,348.860941800056,348.86353049986064,349.35499459994026,,,,,,,,,,,,349.3589234999381,,,,,,,,,,,,,,,,,,,,,,,,,,,,349.3550116000697,349.3589234999381,349.3589234999381,349.7927496000193,i,0,0.4301852001808584,None,349.7931786000263,349.79839359992184,350.7831083999481,350.78651060000993,,,,,,,,,,,,,,,,,,,,,,,,,,,,,,,,,,,,,,,,,,,,,,,,,,1,001,2024-07-08_19h16.40.807,IAT(test06),2024.1.4,None,2024-07-08 19h16.49.269378 +0800,
,,,,公正,e,,,,,,,,,,,,,,,0,22,22,23,,,,,,,,,350.78651060000993,,,,,,,,,,,,,,,,350.7833432999905,350.78651060000993,351.27217109990306,,,,,,,,,,,,351.2877543999348,,,,,,,,,,,,,,,,,,,,,,,,,,,,351.27218719990924,351.29097620001994,351.29097620001994,351.8614902999252,e,1,0.5685994999948889,None,351.8618330999743,351.86709469999187,352.8586508000735,352.8618481999729,,,,,,,,,,,,,,,,,,,,,,,,,,,,,,,,,,,,,,,,,,,,,,,,,,1,001,2024-07-08_19h16.40.807,IAT(test06),2024.1.4,None,2024-07-08 19h16.49.269378 +0800,
,,,,虚伪,i,,,,,,,,,,,,,,,0,23,23,31,,,,,,,,,352.8618481999729,,,,,,,,,,,,,,,,352.8589053999167,352.8618481999729,353.3559644999914,,,,,,,,,,,,353.35992589988746,,,,,,,,,,,,,,,,,,,,,,,,,,,,353.3559812998865,353.35992589988746,353.35992589988746,353.6416026998777,i,1,0.2805702998302877,None,353.641884499928,353.65787649992853,354.6406725998968,354.6569663998671,,,,,,,,,,,,,,,,,,,,,,,,,,,,,,,,,,,,,,,,,,,,,,,,,,1,001,2024-07-08_19h16.40.807,IAT(test06),2024.1.4,None,2024-07-08 19h16.49.269378 +0800,
,,,,勤奋,e,,,,,,,,,,,,,,,0,24,24,18,,,,,,,,,354.6569663998671,,,,,,,,,,,,,,,,354.6408776000608,354.6569663998671,355.1536924999673,,,,,,,,,,,,,,,,,,,,,,,,,,,,,,,,,,,,,,,,355.15370659995824,355.1577158998698,355.1577158998698,356.64062050008215,None,0,,,356.640812800033,356.65637869993225,357.6407580000814,357.6564633999951,356.65637869993225,356.65637869993225,,,,,,,,,,,,,,,,,,,,,,,,,,,,,,,,,,,,,,,,,,,,,,,,1,001,2024-07-08_19h16.40.807,IAT(test06),2024.1.4,None,2024-07-08 19h16.49.269378 +0800,
,,,,我,e,,,,,,,,,,,,,,,0,25,25,0,,,,,,,,,357.6564633999951,,,,,,,,,,,,,,,,357.6409640000202,357.6564633999951,358.1538165998645,,,,,,,,,,,,,,,,,,,,,,,,,,,,,,,,,,,,,,,,358.1538309000898,358.1580519999843,358.1580519999843,359.6561461999081,None,0,,,359.65639110002667,359.6604792000726,360.6458216998726,,,,,,,,,,,,,,,,,,,,,,,,,,,,,,,,,,,,,,,,,,,,,,,,,,,1,001,2024-07-08_19h16.40.807,IAT(test06),2024.1.4,None,2024-07-08 19h16.49.269378 +0800,
,,,,刻薄,i,,,,,,,,,,,,,,,0,26,26,33,,,,,,,,,360.6487109998707,,,,,,,,,,,,,,,,360.64613160002045,360.6487109998707,361.1320571000688,,,,,,,,,,,,361.13854090007953,,,,,,,,,,,,,,,,,,,,,,,,,,,,361.13207500008866,361.13854090007953,361.13854090007953,362.6225208998658,None,0,,,362.62273239996284,362.62656000000425,363.6226413999684,363.62451269989833,362.6245851998683,362.6245851998683,,,,,,,,,,,,,,,,,,,,,,,,,,,,,,,,,,,,,,,,,,,,,,,,1,001,2024-07-08_19h16.40.807,IAT(test06),2024.1.4,None,2024-07-08 19h16.49.269378 +0800,
,,,,稳重,e,,,,,,,,,,,,,,,0,27,27,21,,,,,,,,,363.62451269989833,,,,,,,,,,,,,,,,363.6228964999318,363.6264569000341,364.12321179988794,,,,,,,,,,,,364.1270576999523,,,,,,,,,,,,,,,,,,,,,,,,,,,,364.12323089991696,364.12981419987045,364.12981419987045,365.6211451999843,None,0,,,365.6215826999396,365.6269038999453,366.62101439991966,366.62346889986657,365.62468790006824,365.62468790006824,,,,,,,,,,,,,,,,,,,,,,,,,,,,,,,,,,,,,,,,,,,,,,,,1,001,2024-07-08_19h16.40.807,IAT(test06),2024.1.4,None,2024-07-08 19h16.49.269378 +0800,
,,,,勇敢,e,,,,,,,,,,,,,,,0,28,28,17,,,,,,,,,366.62346889986657,,,,,,,,,,,,,,,,366.6212641999591,366.62841419992037,367.1242420999333,,,,,,,,,,,,367.12725599994883,,,,,,,,,,,,,,,,,,,,,,,,,,,,367.1242589999456,367.12949110008776,367.12949110008776,368.6215488000307,None,0,,,368.62178519996814,368.62839089985937,369.62189100007527,369.62440399988554,368.6241572999861,368.6241572999861,,,,,,,,,,,,,,,,,,,,,,,,,,,,,,,,,,,,,,,,,,,,,,,,1,001,2024-07-08_19h16.40.807,IAT(test06),2024.1.4,None,2024-07-08 19h16.49.269378 +0800,
,,,,他人,i,,,,,,,,,,,,,,,0,29,29,58,,,,,,,,,369.62440399988554,,,,,,,,,,,,,,,,369.62215749989264,369.6264112999197,370.12569659994915,,,,,,,,,,,,370.1292558000423,,,,,,,,,,,,,,,,,,,,,,,,,,,,370.12571240006946,370.1292558000423,370.1292558000423,371.62160740001127,None,0,,,371.6219228000846,371.6272159998771,372.6223418000154,372.6247503000777,371.6249947999604,371.6249947999604,,,,,,,,,,,,,,,,,,,,,,,,,,,,,,,,,,,,,,,,,,,,,,,,1,001,2024-07-08_19h16.40.807,IAT(test06),2024.1.4,None,2024-07-08 19h16.49.269378 +0800,
,,,,聪明,e,,,,,,,,,,,,,,,0,30,30,12,,,,,,,,,372.6247503000777,,,,,,,,,,,,,,,,372.6226150000002,372.62683549989015,373.1236270000227,,,,,,,,,,,,373.12666759989224,,,,,,,,,,,,,,,,,,,,,,,,,,,,373.1236543999985,373.1292634999845,373.1292634999845,374.6220626998693,None,0,,,374.6223055999726,374.62677989993244,375.6240203999914,375.6259639998898,374.624287399929,374.624287399929,,,,,,,,,,,,,,,,,,,,,,,,,,,,,,,,,,,,,,,,,,,,,,,,1,001,2024-07-08_19h16.40.807,IAT(test06),2024.1.4,None,2024-07-08 19h16.49.269378 +0800,
,,,,他,i,,,,,,,,,,,,,,,0,31,31,75,,,,,,,,,375.6259639998898,,,,,,,,,,,,,,,,375.6242911000736,375.628173999954,376.1243406999856,,,,,,,,,,,,376.1272199000232,,,,,,,,,,,,,,,,,,,,,,,,,,,,376.1243594000116,376.1293772999197,376.1293772999197,377.6149514000863,None,0,,,377.61520679993555,377.63886349997483,378.62488569994457,378.6269996999763,377.617324099876,377.617324099876,,,,,,,,,,,,,,,,,,,,,,,,,,,,,,,,,,,,,,,,,,,,,,,,1,001,2024-07-08_19h16.40.807,IAT(test06),2024.1.4,None,2024-07-08 19h16.49.269378 +0800,
,,,,我,e,,,,,,,,,,,,,,,0,32,32,60,,,,,,,,,378.6269996999763,,,,,,,,,,,,,,,,378.62512219999917,378.6269996999763,379.12373550003394,,,,,,,,,,,,379.1264128999319,,,,,,,,,,,,,,,,,,,,,,,,,,,,379.1237508999184,379.12860669987276,379.12860669987276,380.62154429988004,None,0,,,380.62179120001383,380.62832839996554,381.6218391000293,381.62388009997085,380.62385970004834,380.62385970004834,,,,,,,,,,,,,,,,,,,,,,,,,,,,,,,,,,,,,,,,,,,,,,,,1,001,2024-07-08_19h16.40.807,IAT(test06),2024.1.4,None,2024-07-08 19h16.49.269378 +0800,
,,,,其他,i,,,,,,,,,,,,,,,0,33,33,59,,,,,,,,,381.62388009997085,,,,,,,,,,,,,,,,381.62208319990896,381.62716670008376,382.12417889991775,,,,,,,,,,,,382.1282158999238,,,,,,,,,,,,,,,,,,,,,,,,,,,,382.12419699993916,382.130371700041,382.130371700041,383.62182189989835,None,0,,,383.62206199998036,383.6264988000039,384.62226739991456,384.62410079990514,383.6243477000389,383.6243477000389,,,,,,,,,,,,,,,,,,,,,,,,,,,,,,,,,,,,,,,,,,,,,,,,1,001,2024-07-08_19h16.40.807,IAT(test06),2024.1.4,None,2024-07-08 19h16.49.269378 +0800,
,,,,他们,i,,,,,,,,,,,,,,,0,34,34,56,,,,,,,,,384.62410079990514,,,,,,,,,,,,,,,,384.62251989985816,384.6281695999205,385.12374729989097,,,,,,,,,,,,385.12777370004915,,,,,,,,,,,,,,,,,,,,,,,,,,,,385.1237641000189,385.13031849986874,385.13031849986874,386.6217586998828,None,0,,,386.6220030998811,386.62724999990314,387.62225380004384,387.6242104000412,386.62398439995013,386.62398439995013,,,,,,,,,,,,,,,,,,,,,,,,,,,,,,,,,,,,,,,,,,,,,,,,1,001,2024-07-08_19h16.40.807,IAT(test06),2024.1.4,None,2024-07-08 19h16.49.269378 +0800,
,,,,俺,e,,,,,,,,,,,,,,,0,35,35,54,,,,,,,,,387.6242104000412,,,,,,,,,,,,,,,,387.62249900004826,387.62830009986646,388.12458999990486,,,,,,,,,,,,388.12771259993315,,,,,,,,,,,,,,,,,,,,,,,,,,,,388.1246090999339,388.1302447998896,388.1302447998896,389.62138159992173,None,0,,,389.62161549995653,389.6283402000554,390.6213688000571,390.6237814000342,389.6237007000018,389.6237007000018,,,,,,,,,,,,,,,,,,,,,,,,,,,,,,,,,,,,,,,,,,,,,,,,1,001,2024-07-08_19h16.40.807,IAT(test06),2024.1.4,None,2024-07-08 19h16.49.269378 +0800,
,,,,我,e,,,,,,,,,,,,,,,0,36,36,50,,,,,,,,,390.6237814000342,,,,,,,,,,,,,,,,390.6216184999794,390.62833199999295,391.12366360006854,,,,,,,,,,,,391.1269380999729,,,,,,,,,,,,,,,,,,,,,,,,,,,,391.1236783999484,391.1292208000086,391.1292208000086,392.62177999992855,None,0,,,392.6220368000213,392.6284391998779,393.61991770006716,393.6229872999247,392.62414469989017,392.62414469989017,,,,,,,,,,,,,,,,,,,,,,,,,,,,,,,,,,,,,,,,,,,,,,,,1,001,2024-07-08_19h16.40.807,IAT(test06),2024.1.4,None,2024-07-08 19h16.49.269378 +0800,
,,,,自己,e,,,,,,,,,,,,,,,0,37,37,53,,,,,,,,,393.6229872999247,,,,,,,,,,,,,,,,393.6202054999303,393.62857079994865,394.1245627999306,,,,,,,,,,,,394.1275879999157,,,,,,,,,,,,,,,,,,,,,,,,,,,,394.1245800999459,394.1298573000822,394.1298573000822,395.6227635999676,None,0,,,395.62299189995974,395.62710230005905,396.62187259993516,396.6240232998971,395.62505419994704,395.62505419994704,,,,,,,,,,,,,,,,,,,,,,,,,,,,,,,,,,,,,,,,,,,,,,,,1,001,2024-07-08_19h16.40.807,IAT(test06),2024.1.4,None,2024-07-08 19h16.49.269378 +0800,
,,,,凶狠,i,,,,,,,,,,,,,,,0,38,38,42,,,,,,,,,396.6240232998971,,,,,,,,,,,,,,,,396.6222000999842,396.62839359999634,397.1241244999692,,,,,,,,,,,,397.1271780000534,,,,,,,,,,,,,,,,,,,,,,,,,,,,397.12413990008645,397.129586199997,397.129586199997,398.62249589990824,None,0,,,398.6227200999856,398.6266606000718,399.61048919986933,399.62746239989065,398.6245589000173,398.6245589000173,,,,,,,,,,,,,,,,,,,,,,,,,,,,,,,,,,,,,,,,,,,,,,,,1,001,2024-07-08_19h16.40.807,IAT(test06),2024.1.4,None,2024-07-08 19h16.49.269378 +0800,
,,,,我们,e,,,,,,,,,,,,,,,0,39,39,72,,,,,,,,,399.62746239989065,,,,,,,,,,,,,,,,399.6107294000685,399.6302728999872,400.124363000039,,,,,,,,,,,,400.12725879997015,,,,,,,,,,,,,,,,,,,,,,,,,,,,400.12438310007565,400.1294168999884,400.1294168999884,401.62200720002875,None,0,,,401.6222454998642,401.6271118998993,402.6213632998988,402.624099599896,401.6250533000566,401.6250533000566,,,,,,,,,,,,,,,,,,,,,,,,,,,,,,,,,,,,,,,,,,,,,,,,1,001,2024-07-08_19h16.40.807,IAT(test06),2024.1.4,None,2024-07-08 19h16.49.269378 +0800,
,,,,他的,i,,,,,,,,,,,,,,,0,40,40,57,,,,,,,,,402.624099599896,,,,,,,,,,,,,,,,402.6216044998728,402.6285383000504,403.12337230006233,,,,,,,,,,,,403.1268265999388,,,,,,,,,,,,,,,,,,,,,,,,,,,,403.1233890000731,403.1297257000115,403.1297257000115,403.7623858998995,i,1,0.6290325000882149,None,403.7627099000383,403.7679922999814,404.75180649990216,404.7565975000616,,,,,,,,,,,,,,,,,,,,,,,,,,,,,,,,,,,,,,,,,,,,,,,,,,1,001,2024-07-08_19h16.40.807,IAT(test06),2024.1.4,None,2024-07-08 19h16.49.269378 +0800,
,,,,他人,i,,,,,,,,,,,,,,,0,41,41,68,,,,,,,,,404.7565975000616,,,,,,,,,,,,,,,,404.75216929987073,404.7565975000616,405.2406492999289,,,,,,,,,,,,405.25675179995596,,,,,,,,,,,,,,,,,,,,,,,,,,,,405.2406639000401,405.2603863000404,405.2603863000404,405.7559648999013,i,1,0.47858789982274175,None,405.75622169999406,405.75891069998033,406.74391869991086,406.7587830000557,,,,,,,,,,,,,,,,,,,,,,,,,,,,,,,,,,,,,,,,,,,,,,,,,,1,001,2024-07-08_19h16.40.807,IAT(test06),2024.1.4,None,2024-07-08 19h16.49.269378 +0800,
,,,,我们,e,,,,,,,,,,,,,,,0,42,42,2,,,,,,,,,406.7587830000557,,,,,,,,,,,,,,,,406.74411750002764,406.7587830000557,407.25819059996866,,,,,,,,,,,,,,,,,,,,,,,,,,,,,,,,,,,,,,,,407.25820380006917,407.2632816999685,407.2632816999685,407.62212800001726,i,0,0.3557424999307841,None,407.6227269999217,407.6274595998693,408.62119370000437,408.6239978999365,,,,,,,,,,,,,,,,,,,,,,,,,,,,,,,,,,,,,,,,,,,,,,,,,,1,001,2024-07-08_19h16.40.807,IAT(test06),2024.1.4,None,2024-07-08 19h16.49.269378 +0800,
,,,,野蛮,i,,,,,,,,,,,,,,,0,43,43,46,,,,,,,,,408.6239978999365,,,,,,,,,,,,,,,,408.62151460000314,408.6239978999365,409.1076738999691,,,,,,,,,,,,409.12339109997265,,,,,,,,,,,,,,,,,,,,,,,,,,,,409.1076897000894,409.12339109997265,409.12339109997265,409.5551598998718,e,0,0.4269278000574559,None,409.5554424999282,409.5695100999437,410.55507649993524,410.55788860004395,,,,,,,,,,,,,,,,,,,,,,,,,,,,,,,,,,,,,,,,,,,,,,,,,,1,001,2024-07-08_19h16.40.807,IAT(test06),2024.1.4,None,2024-07-08 19h16.49.269378 +0800,
,,,,我的,e,,,,,,,,,,,,,,,0,44,44,61,,,,,,,,,410.55788860004395,,,,,,,,,,,,,,,,410.5553442998789,410.55788860004395,411.0407537999563,,,,,,,,,,,,411.05624750000425,,,,,,,,,,,,,,,,,,,,,,,,,,,,411.04076809994876,411.05624750000425,411.05624750000425,411.7360089998692,e,1,0.6776058000978082,None,411.7363288998604,411.74108779989183,412.72949499986134,412.7325357000809,,,,,,,,,,,,,,,,,,,,,,,,,,,,,,,,,,,,,,,,,,,,,,,,,,1,001,2024-07-08_19h16.40.807,IAT(test06),2024.1.4,None,2024-07-08 19h16.49.269378 +0800,
,,,,他,i,,,,,,,,,,,,,,,0,45,45,55,,,,,,,,,412.7325357000809,,,,,,,,,,,,,,,,412.7297694000881,412.7325357000809,413.2222249000333,,,,,,,,,,,,413.22634579986334,,,,,,,,,,,,,,,,,,,,,,,,,,,,413.2222504999954,413.22634579986334,413.22634579986334,413.85727380006574,i,1,0.6188544000033289,None,413.85762050002813,413.8610139999073,414.85721349995583,414.8604822999332,,,,,,,,,,,,,,,,,,,,,,,,,,,,,,,,,,,,,,,,,,,,,,,,,,1,001,2024-07-08_19h16.40.807,IAT(test06),2024.1.4,None,2024-07-08 19h16.49.269378 +0800,
,,,,我的,e,,,,,,,,,,,,,,,0,46,46,1,,,,,,,,,414.8604822999332,,,,,,,,,,,,,,,,414.85745360003784,414.8604822999332,415.3562177999411,,,,,,,,,,,,415.36036959988996,,,,,,,,,,,,,,,,,,,,,,,,,,,,415.3562334999442,415.36036959988996,415.36036959988996,415.82878899993375,e,1,0.4663978999014944,None,415.8291479998734,415.83292860002257,416.82224999996834,416.824875399936,,,,,,,,,,,,,,,,,,,,,,,,,,,,,,,,,,,,,,,,,,,,,,,,,,1,001,2024-07-08_19h16.40.807,IAT(test06),2024.1.4,None,2024-07-08 19h16.49.269378 +0800,
,,,,他的,i,,,,,,,,,,,,,,,0,47,47,7,,,,,,,,,416.824875399936,,,,,,,,,,,,,,,,416.8225189000368,416.824875399936,417.3238645999227,,,,,,,,,,,,417.327723500086,,,,,,,,,,,,,,,,,,,,,,,,,,,,417.32388819986954,417.327723500086,417.327723500086,417.6217966999393,i,1,0.2821431001648307,None,417.62211430002935,417.62554519996047,418.62361619994044,,,,,,,,,,,,,,,,,,,,,,,,,,,,,,,,,,,,,,,,,,,,,,,,,,,1,001,2024-07-08_19h16.40.807,IAT(test06),2024.1.4,None,2024-07-08 19h16.49.269378 +0800,
,,,,俺,e,,,,,,,,,,,,,,,0,48,48,74,,,,,,,,,418.6271395999938,,,,,,,,,,,,,,,,418.62388289999217,418.6271395999938,419.11385109997354,,,,,,,,,,,,419.12962169991806,,,,,,,,,,,,,,,,,,,,,,,,,,,,419.1138661999721,419.12962169991806,419.12962169991806,419.6718741999939,e,1,0.5381869000848383,None,419.6721906999592,419.6765785999596,420.6607126998715,420.66373230004683,,,,,,,,,,,,,,,,,,,,,,,,,,,,,,,,,,,,,,,,,,,,,,,,,,1,001,2024-07-08_19h16.40.807,IAT(test06),2024.1.4,None,2024-07-08 19h16.49.269378 +0800,
,,,,他的,i,,,,,,,,,,,,,,,0,49,49,67,,,,,,,,,420.66373230004683,,,,,,,,,,,,,,,,420.6609481999185,420.66373230004683,421.1556263999082,,,,,,,,,,,,421.15924639999866,,,,,,,,,,,,,,,,,,,,,,,,,,,,421.15564549993724,421.15924639999866,421.15924639999866,421.4572417999152,i,1,0.29636759986169636,None,421.45753589994274,421.4605537999887,422.45791050000116,,,,,,,,,,,,,,,,,,,,,,,,,,,,,,,,,,,,,,,,,,,,,,,,,,,1,001,2024-07-08_19h16.40.807,IAT(test06),2024.1.4,None,2024-07-08 19h16.49.269378 +0800,
,,,,杰出,e,,,,,,,,,,,,,,,0,50,50,13,,,,,,,,,422.4606480000075,,,,,,,,,,,,,,,,422.45825470006093,422.4606480000075,422.9553048000671,,,,,,,,,,,,422.9590747000184,,,,,,,,,,,,,,,,,,,,,,,,,,,,422.95532299997285,422.9590747000184,422.9590747000184,423.43191500008106,e,1,0.46726239984855056,None,423.4321858000476,423.4350982999895,424.4210858999286,424.4238946000114,,,,,,,,,,,,,,,,,,,,,,,,,,,,,,,,,,,,,,,,,,,,,,,,,,1,001,2024-07-08_19h16.40.807,IAT(test06),2024.1.4,None,2024-07-08 19h16.49.269378 +0800,
,,,,我的,e,,,,,,,,,,,,,,,0,51,51,51,,,,,,,,,424.4238946000114,,,,,,,,,,,,,,,,424.42136389994994,424.4238946000114,424.90739269996993,,,,,,,,,,,,424.92369289998896,,,,,,,,,,,,,,,,,,,,,,,,,,,,424.90740610007197,424.92749030003324,424.92749030003324,425.1745154000819,i,0,0.24207679997198284,None,425.17477159993723,425.1904714999255,426.17522739991546,,,,,,,,,,,,,,,,,,,,,,,,,,,,,,,,,,,,,,,,,,,,,,,,,,,1,001,2024-07-08_19h16.40.807,IAT(test06),2024.1.4,None,2024-07-08 19h16.49.269378 +0800,
,,,,自己,e,,,,,,,,,,,,,,,0,52,52,73,,,,,,,,,426.1799592000898,,,,,,,,,,,,,,,,426.17545949993655,426.1799592000898,426.66441059997305,,,,,,,,,,,,426.6681935999077,,,,,,,,,,,,,,,,,,,,,,,,,,,,426.66442639986053,426.6681935999077,426.6681935999077,427.10792859992944,e,1,0.43518740008585155,None,427.1081767999567,427.123977500014,428.10737670003437,428.1233494000044,,,,,,,,,,,,,,,,,,,,,,,,,,,,,,,,,,,,,,,,,,,,,,,,,,1,001,2024-07-08_19h16.40.807,IAT(test06),2024.1.4,None,2024-07-08 19h16.49.269378 +0800,
,,,,冷静,e,,,,,,,,,,,,,,,0,53,53,26,,,,,,,,,428.1233494000044,,,,,,,,,,,,,,,,428.10758759989403,428.1233494000044,428.62218409986235,,,,,,,,,,,,,,,,,,,,,,,,,,,,,,,,,,,,,,,,428.6222010999918,428.62714340002276,428.62714340002276,429.1041091000661,i,0,0.4737023999914527,None,429.10434389999136,429.1085288999602,430.0923520999495,430.0944781000726,,,,,,,,,,,,,,,,,,,,,,,,,,,,,,,,,,,,,,,,,,,,,,,,,,1,001,2024-07-08_19h16.40.807,IAT(test06),2024.1.4,None,2024-07-08 19h16.49.269378 +0800,
,,,,崇高,e,,,,,,,,,,,,,,,0,54,54,11,,,,,,,,,430.0944781000726,,,,,,,,,,,,,,,,430.0925843999721,430.0944781000726,430.5914044000674,,,,,,,,,,,,430.5957108999137,,,,,,,,,,,,,,,,,,,,,,,,,,,,430.5914183999412,430.5957108999137,430.5957108999137,431.1084155999124,e,1,0.5097248000092804,None,431.10866719996557,431.1233769999817,432.10739020002075,432.1234011000488,,,,,,,,,,,,,,,,,,,,,,,,,,,,,,,,,,,,,,,,,,,,,,,,,,1,001,2024-07-08_19h16.40.807,IAT(test06),2024.1.4,None,2024-07-08 19h16.49.269378 +0800,
,,,,散漫,i,,,,,,,,,,,,,,,0,55,55,41,,,,,,,,,432.1234011000488,,,,,,,,,,,,,,,,432.1075973000843,432.1234011000488,432.6214018999599,,,,,,,,,,,,,,,,,,,,,,,,,,,,,,,,,,,,,,,,432.62141519994475,432.62627979996614,432.62627979996614,433.1240729999263,i,1,0.49046549992635846,None,433.1243803000543,433.12778219999745,434.1236511000898,434.1264903000556,,,,,,,,,,,,,,,,,,,,,,,,,,,,,,,,,,,,,,,,,,,,,,,,,,1,001,2024-07-08_19h16.40.807,IAT(test06),2024.1.4,None,2024-07-08 19h16.49.269378 +0800,
,,,,其他,i,,,,,,,,,,,,,,,0,56,56,9,,,,,,,,,434.1264903000556,,,,,,,,,,,,,,,,434.12392379995435,434.1264903000556,434.621595100034,,,,,,,,,,,,434.6254628000315,,,,,,,,,,,,,,,,,,,,,,,,,,,,434.6216156000737,434.6254628000315,434.6254628000315,435.2410496000666,i,1,0.612469700165093,None,435.2413069999311,435.2569953999482,436.2407871000469,436.25653239991516,,,,,,,,,,,,,,,,,,,,,,,,,,,,,,,,,,,,,,,,,,,,,,,,,,1,001,2024-07-08_19h16.40.807,IAT(test06),2024.1.4,None,2024-07-08 19h16.49.269378 +0800,
,,,,卑鄙,i,,,,,,,,,,,,,,,0,57,57,30,,,,,,,,,436.25653239991516,,,,,,,,,,,,,,,,436.24098920007236,436.25653239991516,436.754451100016,,,,,,,,,,,,,,,,,,,,,,,,,,,,,,,,,,,,,,,,436.75446680001915,436.7581118000671,436.7581118000671,437.2691071999725,i,1,0.5086534998845309,None,437.2693787999451,437.27367020002566,438.25713320006616,438.2597049998585,,,,,,,,,,,,,,,,,,,,,,,,,,,,,,,,,,,,,,,,,,,,,,,,,,1,001,2024-07-08_19h16.40.807,IAT(test06),2024.1.4,None,2024-07-08 19h16.49.269378 +0800,
,,,,他们,i,,,,,,,,,,,,,,,0,58,58,76,,,,,,,,,438.2597049998585,,,,,,,,,,,,,,,,438.25737640005536,438.2597049998585,438.755088099977,,,,,,,,,,,,438.7587450998835,,,,,,,,,,,,,,,,,,,,,,,,,,,,438.7551009999588,438.7587450998835,438.7587450998835,439.1913548000157,e,0,0.42789920000359416,None,439.19163280003704,439.19572399999015,440.1908320998773,440.1944474000484,,,,,,,,,,,,,,,,,,,,,,,,,,,,,,,,,,,,,,,,,,,,,,,,,,1,001,2024-07-08_19h16.40.807,IAT(test06),2024.1.4,None,2024-07-08 19h16.49.269378 +0800,
,,,,固执,i,,,,,,,,,,,,,,,0,59,59,47,,,,,,,,,440.1944474000484,,,,,,,,,,,,,,,,440.19111609994434,440.1944474000484,440.68898019986227,,,,,,,,,,,,440.6927374000661,,,,,,,,,,,,,,,,,,,,,,,,,,,,440.68899729987606,440.6927374000661,440.6927374000661,441.15528329997323,i,1,0.4550675998907536,None,441.1555802000221,441.1597219000105,442.1562771999743,,,,,,,,,,,,,,,,,,,,,,,,,,,,,,,,,,,,,,,,,,,,,,,,,,,1,001,2024-07-08_19h16.40.807,IAT(test06),2024.1.4,None,2024-07-08 19h16.49.269378 +0800,
