Words,ans,Words_ipn,ans_ipn,Practice_01.thisRepN,Practice_01.thisTrialN,Practice_01.thisN,Practice_01.thisIndex,Practice_02.thisRepN,Practice_02.thisTrialN,Practice_02.thisN,Practice_02.thisIndex,thisRow.t,notes,Instruction01.started,Instruction_01.started,Instruction1.started,Instruction01.stopped,Instruction1.keys,Instruction1.rt,Instruction1.duration,Instruction02.started,Instruction_02.started,Instruction2.started,Instruction02.stopped,Instruction2.keys,Instruction2.rt,Instruction2.duration,Fix.started,fix.started,Fix.stopped,Practice_iso.started,text.started,key_resp.started,Practice_iso.stopped,key_resp.keys,key_resp.corr,key_resp.rt,key_resp.duration,Feedback_iso_Practice.started,fb.started,Feedback_iso_Practice.stopped,fix.stopped,fb.stopped,text.stopped,key_resp.stopped,Instruction03.started,Instruction_03.started,key_resp_3.started,Instruction03.stopped,key_resp_3.keys,key_resp_3.rt,key_resp_3.duration,Practic_ipn.started,text_2.started,key_resp_2.started,Practic_ipn.stopped,key_resp_2.keys,key_resp_2.corr,key_resp_2.rt,key_resp_2.duration,Feedback_ipn_Practice.started,fb_3.started,Feedback_ipn_Practice.stopped,fb_3.stopped,participant,session,date,expName,psychopyVersion,frameRate,expStart,
,,,,,,,,,,,,,,0.02622549992520362,0.03378149995114654,0.03378149995114654,0.5527175000170246,space,0.5075394000159577,None,,,,,,,,,,,,,,,,,,,,,,,,,,,,,,,,,,,,,,,,,,,,,1,001,2024-07-05_13h02.42.579,IAT(test03),2024.1.4,None,2024-07-05 13h02.50.593531 +0800,
,,,,,,,,,,,,,,,,,,,,,0.5527503000339493,0.555812899954617,0.555812899954617,1.506368099944666,space,0.9422576000215486,None,,,,,,,,,,,,,,,,,,,,,,,,,,,,,,,,,,,,,,1,001,2024-07-05_13h02.42.579,IAT(test03),2024.1.4,None,2024-07-05 13h02.50.593531 +0800,
自己,e,,,0,0,0,3,,,,,1.5329506000271067,,,,,,,,,,,,,,,,1.5216279999585822,1.5329506000271067,2.0067961999448016,2.0068159999791533,2.0567261999240145,2.0567261999240145,2.534897399949841,e,1,0.45984299993142486,None,2.535735199926421,2.563106199959293,3.552141899941489,,,,,,,,,,,,,,,,,,,,,,,,1,001,2024-07-05_13h02.42.579,IAT(test03),2024.1.4,None,2024-07-05 13h02.50.593531 +0800,
我的,e,,,0,1,1,1,,,,,3.5550536999944597,,,,,,,,,,,,,,,,3.552424699999392,3.5550536999944597,4.051949099986814,4.051963799982332,4.075514700030908,4.075514700030908,4.535965199931525,i,0,0.4561081000138074,None,4.53626650001388,4.554935300024226,5.538638400030322,,,,,,,,,,,,,,,,,,,,,,,,1,001,2024-07-05_13h02.42.579,IAT(test03),2024.1.4,None,2024-07-05 13h02.50.593531 +0800,
俺,e,,,0,2,2,4,,,,,5.543581899954006,,,,,,,,,,,,,,,,5.539035000023432,5.543581899954006,6.029197899973951,6.029218800016679,6.039363899966702,6.039363899966702,6.466359699959867,e,1,0.42245139996521175,None,6.466663499944843,6.473570500034839,7.458926599938422,6.039363899966702,7.463106999988668,,,,,,,,,,,,,,,,,,,,,,1,001,2024-07-05_13h02.42.579,IAT(test03),2024.1.4,None,2024-07-05 13h02.50.593531 +0800,
其他,i,,,0,3,3,9,,,,,7.463106999988668,,,,,,,,,,,,,,,,7.459300499991514,7.463106999988668,7.946986899944022,7.947020199964754,7.960822399938479,7.960822399938479,8.40426799992565,i,1,0.43429750006180257,None,8.404865499935113,8.411597199970856,9.400640500010923,7.957162900012918,9.405440700007603,,,,,,,,,,,,,,,,,,,,,,1,001,2024-07-05_13h02.42.579,IAT(test03),2024.1.4,None,2024-07-05 13h02.50.593531 +0800,
他们,i,,,0,4,4,6,,,,,9.405440700007603,,,,,,,,,,,,,,,,9.401000599958934,9.405440700007603,9.89894640003331,9.898962199920788,9.921606199932285,9.921606199932285,10.21356529998593,i,1,0.29028670000843704,None,10.214017299935222,10.21779060002882,11.201146099949256,9.921606199932285,11.21518840000499,,,,,,,,,,,,,,,,,,,,,,1,001,2024-07-05_13h02.42.579,IAT(test03),2024.1.4,None,2024-07-05 13h02.50.593531 +0800,
他的,i,,,0,5,5,7,,,,,11.21518840000499,,,,,,,,,,,,,,,,11.201490600011311,11.21518840000499,11.700592799927108,11.700635500019416,11.705842299968936,11.705842299968936,13.20331290003378,None,0,,,13.203545399941504,13.209107200033031,14.198245899984613,11.705842299968936,14.207240500021726,13.209107200033031,13.209107200033031,,,,,,,,,,,,,,,,,,,,1,001,2024-07-05_13h02.42.579,IAT(test03),2024.1.4,None,2024-07-05 13h02.50.593531 +0800,
我,e,,,0,6,6,0,,,,,14.207240500021726,,,,,,,,,,,,,,,,14.198545099934563,14.207240500021726,14.700492099975236,14.700520199956372,14.706071599968709,14.706071599968709,15.240271199960262,i,0,0.5310555000323802,None,15.241049999953248,15.247119699954055,16.230292699998245,14.706071599968709,16.2459402999375,,,,,,,,,,,,,,,,,,,,,,1,001,2024-07-05_13h02.42.579,IAT(test03),2024.1.4,None,2024-07-05 13h02.50.593531 +0800,
他人,i,,,0,7,7,8,,,,,16.2459402999375,,,,,,,,,,,,,,,,16.230595299974084,16.2459402999375,16.73275880003348,16.73278920003213,16.743389099952765,16.743389099952765,16.938855899963528,e,0,0.18718499992974102,None,16.939162499969825,16.943175500025973,17.929575099959038,16.743389099952765,17.93312329996843,,,,,,,,,,,,,,,,,,,,,,1,001,2024-07-05_13h02.42.579,IAT(test03),2024.1.4,None,2024-07-05 13h02.50.593531 +0800,
他,i,,,0,8,8,5,,,,,17.93312329996843,,,,,,,,,,,,,,,,17.929810700006783,17.93312329996843,18.416837799944915,18.416850399924442,18.426510600023903,18.426510600023903,18.98687639995478,i,1,0.5548377999803051,None,18.987484899931587,18.992513999924995,19.97672659996897,18.420538799953647,19.980120499967597,,,,,,,,,,,,,,,,,,,,,,1,001,2024-07-05_13h02.42.579,IAT(test03),2024.1.4,None,2024-07-05 13h02.50.593531 +0800,
我们,e,,,0,9,9,2,,,,,19.980120499967597,,,,,,,,,,,,,,,,19.976968599949032,19.980120499967597,20.46538850001525,20.465402200003155,20.489300400018692,20.489300400018692,20.822238499997184,e,1,0.320390300010331,None,20.8227219999535,20.8269196000183,21.82361950003542,20.46885880001355,,,,,,,,,,,,,,,,,,,,,,,1,001,2024-07-05_13h02.42.579,IAT(test03),2024.1.4,None,2024-07-05 13h02.50.593531 +0800,
,,,,,,,,,,,,,,,,,,,,,,,,,,,,,,,,,,,,,,,,,,,,,,21.823717099963687,21.827224100008607,21.827224100008607,22.424089499982074,space,0.591246199910529,None,,,,,,,,,,,,,1,001,2024-07-05_13h02.42.579,IAT(test03),2024.1.4,None,2024-07-05 13h02.50.593531 +0800,
,,轻率,i,,,,,0,0,0,38,22.43977639998775,,,,,,,,,,,,,,,,22.437307399930432,22.43977639998775,22.92616979999002,,,,,,,,,,,,,,,,,,,,,,,22.9261925999308,22.94021619996056,22.94021619996056,23.5357499999227,i,1,0.591543999966234,None,23.536184299970046,23.557357399957255,24.552480199956335,,1,001,2024-07-05_13h02.42.579,IAT(test03),2024.1.4,None,2024-07-05 13h02.50.593531 +0800,
,,野蛮,i,,,,,0,1,1,36,24.55595099995844,,,,,,,,,,,,,,,,24.552828899933957,24.55595099995844,25.037735700025223,,,,,,,,,,,,,,,,,,,,,,,25.03775479993783,25.049522900022566,25.049522900022566,25.45229179994203,i,1,0.3996039000339806,None,25.452703599934466,25.455032699974254,26.440515600028448,26.444454799988307,1,001,2024-07-05_13h02.42.579,IAT(test03),2024.1.4,None,2024-07-05 13h02.50.593531 +0800,
,,诚实,e,,,,,0,2,2,5,26.444454799988307,,,,,,,,,,,,,,,,26.440837899921462,26.444454799988307,26.929259399999864,,,,,,,,,,,,26.942731200018898,,,,,,,,,,,26.9292782000266,26.947155299945734,26.947155299945734,27.342009100015275,e,1,0.39096069999504834,None,27.342431499972008,27.345663900021464,28.33464319992345,28.336931900004856,1,001,2024-07-05_13h02.42.579,IAT(test03),2024.1.4,None,2024-07-05 13h02.50.593531 +0800,
,,热情,e,,,,,0,3,3,17,28.336931900004856,,,,,,,,,,,,,,,,28.334883000003174,28.336931900004856,28.82611609995365,,,,,,,,,,,,28.855069499928504,,,,,,,,,,,28.82613419997506,28.855069499928504,28.855069499928504,29.396852299920283,e,1,0.5345108999172226,None,29.397305399994366,29.40258240001276,30.385752300033346,30.389175800024532,1,001,2024-07-05_13h02.42.579,IAT(test03),2024.1.4,None,2024-07-05 13h02.50.593531 +0800,
,,冒失,i,,,,,0,4,4,29,30.389175800024532,,,,,,,,,,,,,,,,30.385997000033967,30.389175800024532,30.873615699936636,,,,,,,,,,,,30.89156749995891,,,,,,,,,,,30.87363289995119,30.895555099938065,30.895555099938065,31.360950500005856,i,1,0.45772539998870343,None,31.361243600025773,31.364611299941316,32.35304900002666,32.35806280001998,1,001,2024-07-05_13h02.42.579,IAT(test03),2024.1.4,None,2024-07-05 13h02.50.593531 +0800,
,,,,,,,,,,,,32.35806280001998,,,,,,,,,,,,,,,,32.35356049996335,32.35806280001998,,,,,,,,,,,,,,,,,,,,,,,,,,,,,,,,,,,,,,,,,,,
