"X.Instruction1.keys","Instruction1.rt","Instruction2.keys","Instruction2.rt","key_resp_iso.keys","key_resp_iso.corr","key_resp_iso.rt","Practice_01.thisRepN","Practice_01.thisTrialN","Practice_01.thisN","Practice_01.thisIndex","Practice_01.ran","Words","ans","participant","session","date","expName","psychopyVersion","OS","frameRate","key_resp_3.keys","key_resp_3.rt","key_resp_ipn.keys","key_resp_ipn.corr","key_resp_ipn.rt","Practice_02.thisRepN","Practice_02.thisTrialN","Practice_02.thisN","Practice_02.thisIndex","Practice_02.ran","Words_ipn","ans_ipn","key_resp_4.keys","key_resp_4.rt","key_resp_t1.keys","key_resp_t1.corr","key_resp_t1.rt","Practice_T1.thisRepN","Practice_T1.thisTrialN","Practice_T1.thisN","Practice_T1.thisIndex","Practice_T1.ran","Words_t1","ans_t1","key_resp_5.keys","key_resp_5.rt","Formal_T1.thisRepN","Formal_T1.thisTrialN","Formal_T1.thisN","Formal_T1.thisIndex","Formal_T1.ran","key_resp_6.keys","key_resp_6.rt","key_resp_iso_reverse.keys","key_resp_iso_reverse.corr","key_resp_iso_reverse.rt","Practice_iso_Reverse.thisRepN","Practice_iso_Reverse.thisTrialN","Practice_iso_Reverse.thisN","Practice_iso_Reverse.thisIndex","Practice_iso_Reverse.ran","key_resp_7.keys","key_resp_7.rt","key_resp_t2_Practice.keys","key_resp_t2_Practice.corr","key_resp_t2_Practice.rt","Practice_t2_Reverse.thisRepN","Practice_t2_Reverse.thisTrialN","Practice_t2_Reverse.thisN","Practice_t2_Reverse.thisIndex","Practice_t2_Reverse.ran","Words_t2","ans_t2","key_resp_8.keys","key_resp_8.rt","key_resp_t2.keys","key_resp_t2.corr","key_resp_t2.rt","Formal_t2_reverse.thisRepN","Formal_t2_reverse.thisTrialN","Formal_t2_reverse.thisN","Formal_t2_reverse.thisIndex","Formal_t2_reverse.ran","key_instruct.keys","key_instruct.rt","Subject"
"space",5.166,"space",11.8368,"e",1,0.4936,0,0,0,4,1,"俺","e",1,1,"2024-08-22_15h54.19.252","IAT(Formal)","2021.2.3","Win32",60.24096386,"",NA,"",NA,NA,NA,NA,NA,NA,NA,"","","",NA,"",NA,NA,NA,NA,NA,NA,NA,"","","",NA,NA,NA,NA,NA,NA,"",NA,"",NA,NA,NA,NA,NA,NA,NA,"",NA,"",NA,NA,NA,NA,NA,NA,NA,"","","",NA,"",NA,NA,NA,NA,NA,NA,NA,"",NA,"1"
"",NA,"",NA,"i",1,0.4007,0,1,1,7,1,"他的","i",1,1,"2024-08-22_15h54.19.252","IAT(Formal)","2021.2.3","Win32",60.24096386,"",NA,"",NA,NA,NA,NA,NA,NA,NA,"","","",NA,"",NA,NA,NA,NA,NA,NA,NA,"","","",NA,NA,NA,NA,NA,NA,"",NA,"",NA,NA,NA,NA,NA,NA,NA,"",NA,"",NA,NA,NA,NA,NA,NA,NA,"","","",NA,"",NA,NA,NA,NA,NA,NA,NA,"",NA,"1"
"",NA,"",NA,"i",1,0.4105,0,2,2,9,1,"其他","i",1,1,"2024-08-22_15h54.19.252","IAT(Formal)","2021.2.3","Win32",60.24096386,"",NA,"",NA,NA,NA,NA,NA,NA,NA,"","","",NA,"",NA,NA,NA,NA,NA,NA,NA,"","","",NA,NA,NA,NA,NA,NA,"",NA,"",NA,NA,NA,NA,NA,NA,NA,"",NA,"",NA,NA,NA,NA,NA,NA,NA,"","","",NA,"",NA,NA,NA,NA,NA,NA,NA,"",NA,"1"
"",NA,"",NA,"i",1,0.484,0,3,3,6,1,"他们","i",1,1,"2024-08-22_15h54.19.252","IAT(Formal)","2021.2.3","Win32",60.24096386,"",NA,"",NA,NA,NA,NA,NA,NA,NA,"","","",NA,"",NA,NA,NA,NA,NA,NA,NA,"","","",NA,NA,NA,NA,NA,NA,"",NA,"",NA,NA,NA,NA,NA,NA,NA,"",NA,"",NA,NA,NA,NA,NA,NA,NA,"","","",NA,"",NA,NA,NA,NA,NA,NA,NA,"",NA,"1"
"",NA,"",NA,"i",1,0.4099,0,4,4,5,1,"他","i",1,1,"2024-08-22_15h54.19.252","IAT(Formal)","2021.2.3","Win32",60.24096386,"",NA,"",NA,NA,NA,NA,NA,NA,NA,"","","",NA,"",NA,NA,NA,NA,NA,NA,NA,"","","",NA,NA,NA,NA,NA,NA,"",NA,"",NA,NA,NA,NA,NA,NA,NA,"",NA,"",NA,NA,NA,NA,NA,NA,NA,"","","",NA,"",NA,NA,NA,NA,NA,NA,NA,"",NA,"1"
"",NA,"",NA,"e",1,0.3978,0,5,5,2,1,"我们","e",1,1,"2024-08-22_15h54.19.252","IAT(Formal)","2021.2.3","Win32",60.24096386,"",NA,"",NA,NA,NA,NA,NA,NA,NA,"","","",NA,"",NA,NA,NA,NA,NA,NA,NA,"","","",NA,NA,NA,NA,NA,NA,"",NA,"",NA,NA,NA,NA,NA,NA,NA,"",NA,"",NA,NA,NA,NA,NA,NA,NA,"","","",NA,"",NA,NA,NA,NA,NA,NA,NA,"",NA,"1"
"",NA,"",NA,"i",1,0.4307,0,6,6,8,1,"他人","i",1,1,"2024-08-22_15h54.19.252","IAT(Formal)","2021.2.3","Win32",60.24096386,"",NA,"",NA,NA,NA,NA,NA,NA,NA,"","","",NA,"",NA,NA,NA,NA,NA,NA,NA,"","","",NA,NA,NA,NA,NA,NA,"",NA,"",NA,NA,NA,NA,NA,NA,NA,"",NA,"",NA,NA,NA,NA,NA,NA,NA,"","","",NA,"",NA,NA,NA,NA,NA,NA,NA,"",NA,"1"
"",NA,"",NA,"e",1,0.3862,0,7,7,1,1,"我的","e",1,1,"2024-08-22_15h54.19.252","IAT(Formal)","2021.2.3","Win32",60.24096386,"",NA,"",NA,NA,NA,NA,NA,NA,NA,"","","",NA,"",NA,NA,NA,NA,NA,NA,NA,"","","",NA,NA,NA,NA,NA,NA,"",NA,"",NA,NA,NA,NA,NA,NA,NA,"",NA,"",NA,NA,NA,NA,NA,NA,NA,"","","",NA,"",NA,NA,NA,NA,NA,NA,NA,"",NA,"1"
"",NA,"",NA,"e",1,0.3994,0,8,8,3,1,"自己","e",1,1,"2024-08-22_15h54.19.252","IAT(Formal)","2021.2.3","Win32",60.24096386,"",NA,"",NA,NA,NA,NA,NA,NA,NA,"","","",NA,"",NA,NA,NA,NA,NA,NA,NA,"","","",NA,NA,NA,NA,NA,NA,"",NA,"",NA,NA,NA,NA,NA,NA,NA,"",NA,"",NA,NA,NA,NA,NA,NA,NA,"","","",NA,"",NA,NA,NA,NA,NA,NA,NA,"",NA,"1"
"",NA,"",NA,"e",1,0.3589,0,9,9,0,1,"我","e",1,1,"2024-08-22_15h54.19.252","IAT(Formal)","2021.2.3","Win32",60.24096386,"",NA,"",NA,NA,NA,NA,NA,NA,NA,"","","",NA,"",NA,NA,NA,NA,NA,NA,NA,"","","",NA,NA,NA,NA,NA,NA,"",NA,"",NA,NA,NA,NA,NA,NA,NA,"",NA,"",NA,NA,NA,NA,NA,NA,NA,"","","",NA,"",NA,NA,NA,NA,NA,NA,NA,"",NA,"1"
"",NA,"",NA,"",NA,NA,NA,NA,NA,NA,NA,"","",1,1,"2024-08-22_15h54.19.252","IAT(Formal)","2021.2.3","Win32",60.24096386,"space",6.2141,"e",1,0.4377,0,0,0,10,1,"认真","e","",NA,"",NA,NA,NA,NA,NA,NA,NA,"","","",NA,NA,NA,NA,NA,NA,"",NA,"",NA,NA,NA,NA,NA,NA,NA,"",NA,"",NA,NA,NA,NA,NA,NA,NA,"","","",NA,"",NA,NA,NA,NA,NA,NA,NA,"",NA,"1"
"",NA,"",NA,"",NA,NA,NA,NA,NA,NA,NA,"","",1,1,"2024-08-22_15h54.19.252","IAT(Formal)","2021.2.3","Win32",60.24096386,"",NA,"i",0,0.5214,0,1,1,12,1,"无私","e","",NA,"",NA,NA,NA,NA,NA,NA,NA,"","","",NA,NA,NA,NA,NA,NA,"",NA,"",NA,NA,NA,NA,NA,NA,NA,"",NA,"",NA,NA,NA,NA,NA,NA,NA,"","","",NA,"",NA,NA,NA,NA,NA,NA,NA,"",NA,"1"
"",NA,"",NA,"",NA,NA,NA,NA,NA,NA,NA,"","",1,1,"2024-08-22_15h54.19.252","IAT(Formal)","2021.2.3","Win32",60.24096386,"",NA,"e",0,0.4847,0,2,2,26,1,"自卑","i","",NA,"",NA,NA,NA,NA,NA,NA,NA,"","","",NA,NA,NA,NA,NA,NA,"",NA,"",NA,NA,NA,NA,NA,NA,NA,"",NA,"",NA,NA,NA,NA,NA,NA,NA,"","","",NA,"",NA,NA,NA,NA,NA,NA,NA,"",NA,"1"
"",NA,"",NA,"",NA,NA,NA,NA,NA,NA,NA,"","",1,1,"2024-08-22_15h54.19.252","IAT(Formal)","2021.2.3","Win32",60.24096386,"",NA,"e",1,0.4976,0,3,3,1,1,"崇高","e","",NA,"",NA,NA,NA,NA,NA,NA,NA,"","","",NA,NA,NA,NA,NA,NA,"",NA,"",NA,NA,NA,NA,NA,NA,NA,"",NA,"",NA,NA,NA,NA,NA,NA,NA,"","","",NA,"",NA,NA,NA,NA,NA,NA,NA,"",NA,"1"
"",NA,"",NA,"",NA,NA,NA,NA,NA,NA,NA,"","",1,1,"2024-08-22_15h54.19.252","IAT(Formal)","2021.2.3","Win32",60.24096386,"",NA,"e",1,0.3967,0,4,4,16,1,"冷静","e","",NA,"",NA,NA,NA,NA,NA,NA,NA,"","","",NA,NA,NA,NA,NA,NA,"",NA,"",NA,NA,NA,NA,NA,NA,NA,"",NA,"",NA,NA,NA,NA,NA,NA,NA,"","","",NA,"",NA,NA,NA,NA,NA,NA,NA,"",NA,"1"
"",NA,"",NA,"",NA,NA,NA,NA,NA,NA,NA,"","",1,1,"2024-08-22_15h54.19.252","IAT(Formal)","2021.2.3","Win32",60.24096386,"",NA,"i",1,0.4033,0,5,5,21,1,"虚伪","i","",NA,"",NA,NA,NA,NA,NA,NA,NA,"","","",NA,NA,NA,NA,NA,NA,"",NA,"",NA,NA,NA,NA,NA,NA,NA,"",NA,"",NA,NA,NA,NA,NA,NA,NA,"","","",NA,"",NA,NA,NA,NA,NA,NA,NA,"",NA,"1"
"",NA,"",NA,"",NA,NA,NA,NA,NA,NA,NA,"","",1,1,"2024-08-22_15h54.19.252","IAT(Formal)","2021.2.3","Win32",60.24096386,"",NA,"i",1,0.473,0,6,6,23,1,"刻薄","i","",NA,"",NA,NA,NA,NA,NA,NA,NA,"","","",NA,NA,NA,NA,NA,NA,"",NA,"",NA,NA,NA,NA,NA,NA,NA,"",NA,"",NA,NA,NA,NA,NA,NA,NA,"","","",NA,"",NA,NA,NA,NA,NA,NA,NA,"",NA,"1"
"",NA,"",NA,"",NA,NA,NA,NA,NA,NA,NA,"","",1,1,"2024-08-22_15h54.19.252","IAT(Formal)","2021.2.3","Win32",60.24096386,"",NA,"e",1,0.5149,0,7,7,7,1,"勇敢","e","",NA,"",NA,NA,NA,NA,NA,NA,NA,"","","",NA,NA,NA,NA,NA,NA,"",NA,"",NA,NA,NA,NA,NA,NA,NA,"",NA,"",NA,NA,NA,NA,NA,NA,NA,"","","",NA,"",NA,NA,NA,NA,NA,NA,NA,"",NA,"1"
"",NA,"",NA,"",NA,NA,NA,NA,NA,NA,NA,"","",1,1,"2024-08-22_15h54.19.252","IAT(Formal)","2021.2.3","Win32",60.24096386,"",NA,"e",1,0.3701,0,8,8,0,1,"优秀","e","",NA,"",NA,NA,NA,NA,NA,NA,NA,"","","",NA,NA,NA,NA,NA,NA,"",NA,"",NA,NA,NA,NA,NA,NA,NA,"",NA,"",NA,NA,NA,NA,NA,NA,NA,"","","",NA,"",NA,NA,NA,NA,NA,NA,NA,"",NA,"1"
"",NA,"",NA,"",NA,NA,NA,NA,NA,NA,NA,"","",1,1,"2024-08-22_15h54.19.252","IAT(Formal)","2021.2.3","Win32",60.24096386,"",NA,"e",1,0.352,0,9,9,13,1,"公正","e","",NA,"",NA,NA,NA,NA,NA,NA,NA,"","","",NA,NA,NA,NA,NA,NA,"",NA,"",NA,NA,NA,NA,NA,NA,NA,"",NA,"",NA,NA,NA,NA,NA,NA,NA,"","","",NA,"",NA,NA,NA,NA,NA,NA,NA,"",NA,"1"
"",NA,"",NA,"",NA,NA,NA,NA,NA,NA,NA,"","",1,1,"2024-08-22_15h54.19.252","IAT(Formal)","2021.2.3","Win32",60.24096386,"",NA,"e",0,0.3479,0,10,10,24,1,"悲观","i","",NA,"",NA,NA,NA,NA,NA,NA,NA,"","","",NA,NA,NA,NA,NA,NA,"",NA,"",NA,NA,NA,NA,NA,NA,NA,"",NA,"",NA,NA,NA,NA,NA,NA,NA,"","","",NA,"",NA,NA,NA,NA,NA,NA,NA,"",NA,"1"
"",NA,"",NA,"",NA,NA,NA,NA,NA,NA,NA,"","",1,1,"2024-08-22_15h54.19.252","IAT(Formal)","2021.2.3","Win32",60.24096386,"",NA,"i",1,0.4727,0,11,11,32,1,"凶狠","i","",NA,"",NA,NA,NA,NA,NA,NA,NA,"","","",NA,NA,NA,NA,NA,NA,"",NA,"",NA,NA,NA,NA,NA,NA,NA,"",NA,"",NA,NA,NA,NA,NA,NA,NA,"","","",NA,"",NA,NA,NA,NA,NA,NA,NA,"",NA,"1"
"",NA,"",NA,"",NA,NA,NA,NA,NA,NA,NA,"","",1,1,"2024-08-22_15h54.19.252","IAT(Formal)","2021.2.3","Win32",60.24096386,"",NA,"i",1,0.681,0,12,12,31,1,"散漫","i","",NA,"",NA,NA,NA,NA,NA,NA,NA,"","","",NA,NA,NA,NA,NA,NA,"",NA,"",NA,NA,NA,NA,NA,NA,NA,"",NA,"",NA,NA,NA,NA,NA,NA,NA,"","","",NA,"",NA,NA,NA,NA,NA,NA,NA,"",NA,"1"
"",NA,"",NA,"",NA,NA,NA,NA,NA,NA,NA,"","",1,1,"2024-08-22_15h54.19.252","IAT(Formal)","2021.2.3","Win32",60.24096386,"",NA,"i",1,0.5751,0,13,13,38,1,"轻率","i","",NA,"",NA,NA,NA,NA,NA,NA,NA,"","","",NA,NA,NA,NA,NA,NA,"",NA,"",NA,NA,NA,NA,NA,NA,NA,"",NA,"",NA,NA,NA,NA,NA,NA,NA,"","","",NA,"",NA,NA,NA,NA,NA,NA,NA,"",NA,"1"
"",NA,"",NA,"",NA,NA,NA,NA,NA,NA,NA,"","",1,1,"2024-08-22_15h54.19.252","IAT(Formal)","2021.2.3","Win32",60.24096386,"",NA,"e",1,0.4684,0,14,14,8,1,"勤奋","e","",NA,"",NA,NA,NA,NA,NA,NA,NA,"","","",NA,NA,NA,NA,NA,NA,"",NA,"",NA,NA,NA,NA,NA,NA,NA,"",NA,"",NA,NA,NA,NA,NA,NA,NA,"","","",NA,"",NA,NA,NA,NA,NA,NA,NA,"",NA,"1"
"",NA,"",NA,"",NA,NA,NA,NA,NA,NA,NA,"","",1,1,"2024-08-22_15h54.19.252","IAT(Formal)","2021.2.3","Win32",60.24096386,"",NA,"e",1,0.3851,0,15,15,5,1,"诚实","e","",NA,"",NA,NA,NA,NA,NA,NA,NA,"","","",NA,NA,NA,NA,NA,NA,"",NA,"",NA,NA,NA,NA,NA,NA,NA,"",NA,"",NA,NA,NA,NA,NA,NA,NA,"","","",NA,"",NA,NA,NA,NA,NA,NA,NA,"",NA,"1"
"",NA,"",NA,"",NA,NA,NA,NA,NA,NA,NA,"","",1,1,"2024-08-22_15h54.19.252","IAT(Formal)","2021.2.3","Win32",60.24096386,"",NA,"i",1,0.5351,0,16,16,28,1,"鲁莽","i","",NA,"",NA,NA,NA,NA,NA,NA,NA,"","","",NA,NA,NA,NA,NA,NA,"",NA,"",NA,NA,NA,NA,NA,NA,NA,"",NA,"",NA,NA,NA,NA,NA,NA,NA,"","","",NA,"",NA,NA,NA,NA,NA,NA,NA,"",NA,"1"
"",NA,"",NA,"",NA,NA,NA,NA,NA,NA,NA,"","",1,1,"2024-08-22_15h54.19.252","IAT(Formal)","2021.2.3","Win32",60.24096386,"",NA,"i",1,0.4551,0,17,17,22,1,"愚蠢","i","",NA,"",NA,NA,NA,NA,NA,NA,NA,"","","",NA,NA,NA,NA,NA,NA,"",NA,"",NA,NA,NA,NA,NA,NA,NA,"",NA,"",NA,NA,NA,NA,NA,NA,NA,"","","",NA,"",NA,NA,NA,NA,NA,NA,NA,"",NA,"1"
"",NA,"",NA,"",NA,NA,NA,NA,NA,NA,NA,"","",1,1,"2024-08-22_15h54.19.252","IAT(Formal)","2021.2.3","Win32",60.24096386,"",NA,"e",1,0.5149,0,18,18,17,1,"热情","e","",NA,"",NA,NA,NA,NA,NA,NA,NA,"","","",NA,NA,NA,NA,NA,NA,"",NA,"",NA,NA,NA,NA,NA,NA,NA,"",NA,"",NA,NA,NA,NA,NA,NA,NA,"","","",NA,"",NA,NA,NA,NA,NA,NA,NA,"",NA,"1"
"",NA,"",NA,"",NA,NA,NA,NA,NA,NA,NA,"","",1,1,"2024-08-22_15h54.19.252","IAT(Formal)","2021.2.3","Win32",60.24096386,"",NA,"e",1,0.3981,0,19,19,14,1,"朴实","e","",NA,"",NA,NA,NA,NA,NA,NA,NA,"","","",NA,NA,NA,NA,NA,NA,"",NA,"",NA,NA,NA,NA,NA,NA,NA,"",NA,"",NA,NA,NA,NA,NA,NA,NA,"","","",NA,"",NA,NA,NA,NA,NA,NA,NA,"",NA,"1"
"",NA,"",NA,"",NA,NA,NA,NA,NA,NA,NA,"","",1,1,"2024-08-22_15h54.19.252","IAT(Formal)","2021.2.3","Win32",60.24096386,"",NA,"e",1,0.5345,0,20,20,11,1,"稳重","e","",NA,"",NA,NA,NA,NA,NA,NA,NA,"","","",NA,NA,NA,NA,NA,NA,"",NA,"",NA,NA,NA,NA,NA,NA,NA,"",NA,"",NA,NA,NA,NA,NA,NA,NA,"","","",NA,"",NA,NA,NA,NA,NA,NA,NA,"",NA,"1"
"",NA,"",NA,"",NA,NA,NA,NA,NA,NA,NA,"","",1,1,"2024-08-22_15h54.19.252","IAT(Formal)","2021.2.3","Win32",60.24096386,"",NA,"e",1,0.4485,0,21,21,15,1,"细腻","e","",NA,"",NA,NA,NA,NA,NA,NA,NA,"","","",NA,NA,NA,NA,NA,NA,"",NA,"",NA,NA,NA,NA,NA,NA,NA,"",NA,"",NA,NA,NA,NA,NA,NA,NA,"","","",NA,"",NA,NA,NA,NA,NA,NA,NA,"",NA,"1"
"",NA,"",NA,"",NA,NA,NA,NA,NA,NA,NA,"","",1,1,"2024-08-22_15h54.19.252","IAT(Formal)","2021.2.3","Win32",60.24096386,"",NA,"e",0,0.3331,0,22,22,30,1,"执拗","i","",NA,"",NA,NA,NA,NA,NA,NA,NA,"","","",NA,NA,NA,NA,NA,NA,"",NA,"",NA,NA,NA,NA,NA,NA,NA,"",NA,"",NA,NA,NA,NA,NA,NA,NA,"","","",NA,"",NA,NA,NA,NA,NA,NA,NA,"",NA,"1"
"",NA,"",NA,"",NA,NA,NA,NA,NA,NA,NA,"","",1,1,"2024-08-22_15h54.19.252","IAT(Formal)","2021.2.3","Win32",60.24096386,"",NA,"i",1,0.4834,0,23,23,33,1,"自私","i","",NA,"",NA,NA,NA,NA,NA,NA,NA,"","","",NA,NA,NA,NA,NA,NA,"",NA,"",NA,NA,NA,NA,NA,NA,NA,"",NA,"",NA,NA,NA,NA,NA,NA,NA,"","","",NA,"",NA,NA,NA,NA,NA,NA,NA,"",NA,"1"
"",NA,"",NA,"",NA,NA,NA,NA,NA,NA,NA,"","",1,1,"2024-08-22_15h54.19.252","IAT(Formal)","2021.2.3","Win32",60.24096386,"",NA,"i",1,0.9464,0,24,24,27,1,"傲慢","i","",NA,"",NA,NA,NA,NA,NA,NA,NA,"","","",NA,NA,NA,NA,NA,NA,"",NA,"",NA,NA,NA,NA,NA,NA,NA,"",NA,"",NA,NA,NA,NA,NA,NA,NA,"","","",NA,"",NA,NA,NA,NA,NA,NA,NA,"",NA,"1"
"",NA,"",NA,"",NA,NA,NA,NA,NA,NA,NA,"","",1,1,"2024-08-22_15h54.19.252","IAT(Formal)","2021.2.3","Win32",60.24096386,"",NA,"e",1,0.5292,0,25,25,18,1,"活泼","e","",NA,"",NA,NA,NA,NA,NA,NA,NA,"","","",NA,NA,NA,NA,NA,NA,"",NA,"",NA,NA,NA,NA,NA,NA,NA,"",NA,"",NA,NA,NA,NA,NA,NA,NA,"","","",NA,"",NA,NA,NA,NA,NA,NA,NA,"",NA,"1"
"",NA,"",NA,"",NA,NA,NA,NA,NA,NA,NA,"","",1,1,"2024-08-22_15h54.19.252","IAT(Formal)","2021.2.3","Win32",60.24096386,"",NA,"i",1,0.6772,0,26,26,37,1,"固执","i","",NA,"",NA,NA,NA,NA,NA,NA,NA,"","","",NA,NA,NA,NA,NA,NA,"",NA,"",NA,NA,NA,NA,NA,NA,NA,"",NA,"",NA,NA,NA,NA,NA,NA,NA,"","","",NA,"",NA,NA,NA,NA,NA,NA,NA,"",NA,"1"
"",NA,"",NA,"",NA,NA,NA,NA,NA,NA,NA,"","",1,1,"2024-08-22_15h54.19.252","IAT(Formal)","2021.2.3","Win32",60.24096386,"",NA,"i",1,0.5077,0,27,27,20,1,"卑鄙","i","",NA,"",NA,NA,NA,NA,NA,NA,NA,"","","",NA,NA,NA,NA,NA,NA,"",NA,"",NA,NA,NA,NA,NA,NA,NA,"",NA,"",NA,NA,NA,NA,NA,NA,NA,"","","",NA,"",NA,NA,NA,NA,NA,NA,NA,"",NA,"1"
"",NA,"",NA,"",NA,NA,NA,NA,NA,NA,NA,"","",1,1,"2024-08-22_15h54.19.252","IAT(Formal)","2021.2.3","Win32",60.24096386,"",NA,"i",1,0.5257,0,28,28,29,1,"冒失","i","",NA,"",NA,NA,NA,NA,NA,NA,NA,"","","",NA,NA,NA,NA,NA,NA,"",NA,"",NA,NA,NA,NA,NA,NA,NA,"",NA,"",NA,NA,NA,NA,NA,NA,NA,"","","",NA,"",NA,NA,NA,NA,NA,NA,NA,"",NA,"1"
"",NA,"",NA,"",NA,NA,NA,NA,NA,NA,NA,"","",1,1,"2024-08-22_15h54.19.252","IAT(Formal)","2021.2.3","Win32",60.24096386,"",NA,"i",1,0.4818,0,29,29,39,1,"下贱","i","",NA,"",NA,NA,NA,NA,NA,NA,NA,"","","",NA,NA,NA,NA,NA,NA,"",NA,"",NA,NA,NA,NA,NA,NA,NA,"",NA,"",NA,NA,NA,NA,NA,NA,NA,"","","",NA,"",NA,NA,NA,NA,NA,NA,NA,"",NA,"1"
"",NA,"",NA,"",NA,NA,NA,NA,NA,NA,NA,"","",1,1,"2024-08-22_15h54.19.252","IAT(Formal)","2021.2.3","Win32",60.24096386,"",NA,"e",1,0.564,0,30,30,9,1,"机智","e","",NA,"",NA,NA,NA,NA,NA,NA,NA,"","","",NA,NA,NA,NA,NA,NA,"",NA,"",NA,NA,NA,NA,NA,NA,NA,"",NA,"",NA,NA,NA,NA,NA,NA,NA,"","","",NA,"",NA,NA,NA,NA,NA,NA,NA,"",NA,"1"
"",NA,"",NA,"",NA,NA,NA,NA,NA,NA,NA,"","",1,1,"2024-08-22_15h54.19.252","IAT(Formal)","2021.2.3","Win32",60.24096386,"",NA,"e",1,0.4397,0,31,31,2,1,"聪明","e","",NA,"",NA,NA,NA,NA,NA,NA,NA,"","","",NA,NA,NA,NA,NA,NA,"",NA,"",NA,NA,NA,NA,NA,NA,NA,"",NA,"",NA,NA,NA,NA,NA,NA,NA,"","","",NA,"",NA,NA,NA,NA,NA,NA,NA,"",NA,"1"
"",NA,"",NA,"",NA,NA,NA,NA,NA,NA,NA,"","",1,1,"2024-08-22_15h54.19.252","IAT(Formal)","2021.2.3","Win32",60.24096386,"",NA,"i",1,0.4851,0,32,32,25,1,"消极","i","",NA,"",NA,NA,NA,NA,NA,NA,NA,"","","",NA,NA,NA,NA,NA,NA,"",NA,"",NA,NA,NA,NA,NA,NA,NA,"",NA,"",NA,NA,NA,NA,NA,NA,NA,"","","",NA,"",NA,NA,NA,NA,NA,NA,NA,"",NA,"1"
"",NA,"",NA,"",NA,NA,NA,NA,NA,NA,NA,"","",1,1,"2024-08-22_15h54.19.252","IAT(Formal)","2021.2.3","Win32",60.24096386,"",NA,"e",1,0.4655,0,33,33,19,1,"诚恳","e","",NA,"",NA,NA,NA,NA,NA,NA,NA,"","","",NA,NA,NA,NA,NA,NA,"",NA,"",NA,NA,NA,NA,NA,NA,NA,"",NA,"",NA,NA,NA,NA,NA,NA,NA,"","","",NA,"",NA,NA,NA,NA,NA,NA,NA,"",NA,"1"
"",NA,"",NA,"",NA,NA,NA,NA,NA,NA,NA,"","",1,1,"2024-08-22_15h54.19.252","IAT(Formal)","2021.2.3","Win32",60.24096386,"",NA,"i",1,0.5218,0,34,34,34,1,"暴躁","i","",NA,"",NA,NA,NA,NA,NA,NA,NA,"","","",NA,NA,NA,NA,NA,NA,"",NA,"",NA,NA,NA,NA,NA,NA,NA,"",NA,"",NA,NA,NA,NA,NA,NA,NA,"","","",NA,"",NA,NA,NA,NA,NA,NA,NA,"",NA,"1"
"",NA,"",NA,"",NA,NA,NA,NA,NA,NA,NA,"","",1,1,"2024-08-22_15h54.19.252","IAT(Formal)","2021.2.3","Win32",60.24096386,"",NA,"e",1,0.5252,0,35,35,6,1,"正直","e","",NA,"",NA,NA,NA,NA,NA,NA,NA,"","","",NA,NA,NA,NA,NA,NA,"",NA,"",NA,NA,NA,NA,NA,NA,NA,"",NA,"",NA,NA,NA,NA,NA,NA,NA,"","","",NA,"",NA,NA,NA,NA,NA,NA,NA,"",NA,"1"
"",NA,"",NA,"",NA,NA,NA,NA,NA,NA,NA,"","",1,1,"2024-08-22_15h54.19.252","IAT(Formal)","2021.2.3","Win32",60.24096386,"",NA,"e",1,0.4514,0,36,36,4,1,"乐观","e","",NA,"",NA,NA,NA,NA,NA,NA,NA,"","","",NA,NA,NA,NA,NA,NA,"",NA,"",NA,NA,NA,NA,NA,NA,NA,"",NA,"",NA,NA,NA,NA,NA,NA,NA,"","","",NA,"",NA,NA,NA,NA,NA,NA,NA,"",NA,"1"
"",NA,"",NA,"",NA,NA,NA,NA,NA,NA,NA,"","",1,1,"2024-08-22_15h54.19.252","IAT(Formal)","2021.2.3","Win32",60.24096386,"",NA,"i",1,0.5533,0,37,37,35,1,"猖狂","i","",NA,"",NA,NA,NA,NA,NA,NA,NA,"","","",NA,NA,NA,NA,NA,NA,"",NA,"",NA,NA,NA,NA,NA,NA,NA,"",NA,"",NA,NA,NA,NA,NA,NA,NA,"","","",NA,"",NA,NA,NA,NA,NA,NA,NA,"",NA,"1"
"",NA,"",NA,"",NA,NA,NA,NA,NA,NA,NA,"","",1,1,"2024-08-22_15h54.19.252","IAT(Formal)","2021.2.3","Win32",60.24096386,"",NA,"i",1,0.9487,0,38,38,36,1,"野蛮","i","",NA,"",NA,NA,NA,NA,NA,NA,NA,"","","",NA,NA,NA,NA,NA,NA,"",NA,"",NA,NA,NA,NA,NA,NA,NA,"",NA,"",NA,NA,NA,NA,NA,NA,NA,"","","",NA,"",NA,NA,NA,NA,NA,NA,NA,"",NA,"1"
"",NA,"",NA,"",NA,NA,NA,NA,NA,NA,NA,"","",1,1,"2024-08-22_15h54.19.252","IAT(Formal)","2021.2.3","Win32",60.24096386,"",NA,"e",1,0.85,0,39,39,3,1,"杰出","e","",NA,"",NA,NA,NA,NA,NA,NA,NA,"","","",NA,NA,NA,NA,NA,NA,"",NA,"",NA,NA,NA,NA,NA,NA,NA,"",NA,"",NA,NA,NA,NA,NA,NA,NA,"","","",NA,"",NA,NA,NA,NA,NA,NA,NA,"",NA,"1"
"",NA,"",NA,"",NA,NA,NA,NA,NA,NA,NA,"","",1,1,"2024-08-22_15h54.19.252","IAT(Formal)","2021.2.3","Win32",60.24096386,"",NA,"",NA,NA,NA,NA,NA,NA,NA,"","","space",10.928,"e",1,0.5302,0,0,0,29,1,"诚恳","e","",NA,NA,NA,NA,NA,NA,"",NA,"",NA,NA,NA,NA,NA,NA,NA,"",NA,"",NA,NA,NA,NA,NA,NA,NA,"","","",NA,"",NA,NA,NA,NA,NA,NA,NA,"",NA,"1"
"",NA,"",NA,"",NA,NA,NA,NA,NA,NA,NA,"","",1,1,"2024-08-22_15h54.19.252","IAT(Formal)","2021.2.3","Win32",60.24096386,"",NA,"",NA,NA,NA,NA,NA,NA,NA,"","","",NA,"i",1,0.5563,0,1,1,68,1,"他人","i","",NA,NA,NA,NA,NA,NA,"",NA,"",NA,NA,NA,NA,NA,NA,NA,"",NA,"",NA,NA,NA,NA,NA,NA,NA,"","","",NA,"",NA,NA,NA,NA,NA,NA,NA,"",NA,"1"
"",NA,"",NA,"",NA,NA,NA,NA,NA,NA,NA,"","",1,1,"2024-08-22_15h54.19.252","IAT(Formal)","2021.2.3","Win32",60.24096386,"",NA,"",NA,NA,NA,NA,NA,NA,NA,"","","",NA,"e",1,0.5008,0,2,2,14,1,"乐观","e","",NA,NA,NA,NA,NA,NA,"",NA,"",NA,NA,NA,NA,NA,NA,NA,"",NA,"",NA,NA,NA,NA,NA,NA,NA,"","","",NA,"",NA,NA,NA,NA,NA,NA,NA,"",NA,"1"
"",NA,"",NA,"",NA,NA,NA,NA,NA,NA,NA,"","",1,1,"2024-08-22_15h54.19.252","IAT(Formal)","2021.2.3","Win32",60.24096386,"",NA,"",NA,NA,NA,NA,NA,NA,NA,"","","",NA,"e",1,0.5348,0,3,3,11,1,"崇高","e","",NA,NA,NA,NA,NA,NA,"",NA,"",NA,NA,NA,NA,NA,NA,NA,"",NA,"",NA,NA,NA,NA,NA,NA,NA,"","","",NA,"",NA,NA,NA,NA,NA,NA,NA,"",NA,"1"
"",NA,"",NA,"",NA,NA,NA,NA,NA,NA,NA,"","",1,1,"2024-08-22_15h54.19.252","IAT(Formal)","2021.2.3","Win32",60.24096386,"",NA,"",NA,NA,NA,NA,NA,NA,NA,"","","",NA,"i",1,0.5173,0,4,4,75,1,"他","i","",NA,NA,NA,NA,NA,NA,"",NA,"",NA,NA,NA,NA,NA,NA,NA,"",NA,"",NA,NA,NA,NA,NA,NA,NA,"","","",NA,"",NA,NA,NA,NA,NA,NA,NA,"",NA,"1"
"",NA,"",NA,"",NA,NA,NA,NA,NA,NA,NA,"","",1,1,"2024-08-22_15h54.19.252","IAT(Formal)","2021.2.3","Win32",60.24096386,"",NA,"",NA,NA,NA,NA,NA,NA,NA,"","","",NA,"i",1,0.4421,0,5,5,36,1,"自卑","i","",NA,NA,NA,NA,NA,NA,"",NA,"",NA,NA,NA,NA,NA,NA,NA,"",NA,"",NA,NA,NA,NA,NA,NA,NA,"","","",NA,"",NA,NA,NA,NA,NA,NA,NA,"",NA,"1"
"",NA,"",NA,"",NA,NA,NA,NA,NA,NA,NA,"","",1,1,"2024-08-22_15h54.19.252","IAT(Formal)","2021.2.3","Win32",60.24096386,"",NA,"",NA,NA,NA,NA,NA,NA,NA,"","","",NA,"e",1,0.4691,0,6,6,1,1,"我的","e","",NA,NA,NA,NA,NA,NA,"",NA,"",NA,NA,NA,NA,NA,NA,NA,"",NA,"",NA,NA,NA,NA,NA,NA,NA,"","","",NA,"",NA,NA,NA,NA,NA,NA,NA,"",NA,"1"
"",NA,"",NA,"",NA,NA,NA,NA,NA,NA,NA,"","",1,1,"2024-08-22_15h54.19.252","IAT(Formal)","2021.2.3","Win32",60.24096386,"",NA,"",NA,NA,NA,NA,NA,NA,NA,"","","",NA,"i",1,0.6006,0,7,7,7,1,"他的","i","",NA,NA,NA,NA,NA,NA,"",NA,"",NA,NA,NA,NA,NA,NA,NA,"",NA,"",NA,NA,NA,NA,NA,NA,NA,"","","",NA,"",NA,NA,NA,NA,NA,NA,NA,"",NA,"1"
"",NA,"",NA,"",NA,NA,NA,NA,NA,NA,NA,"","",1,1,"2024-08-22_15h54.19.252","IAT(Formal)","2021.2.3","Win32",60.24096386,"",NA,"",NA,NA,NA,NA,NA,NA,NA,"","","",NA,"i",1,0.5011,0,8,8,9,1,"其他","i","",NA,NA,NA,NA,NA,NA,"",NA,"",NA,NA,NA,NA,NA,NA,NA,"",NA,"",NA,NA,NA,NA,NA,NA,NA,"","","",NA,"",NA,NA,NA,NA,NA,NA,NA,"",NA,"1"
"",NA,"",NA,"",NA,NA,NA,NA,NA,NA,NA,"","",1,1,"2024-08-22_15h54.19.252","IAT(Formal)","2021.2.3","Win32",60.24096386,"",NA,"",NA,NA,NA,NA,NA,NA,NA,"","","",NA,"",0,NA,0,9,9,43,1,"自私","i","",NA,NA,NA,NA,NA,NA,"",NA,"",NA,NA,NA,NA,NA,NA,NA,"",NA,"",NA,NA,NA,NA,NA,NA,NA,"","","",NA,"",NA,NA,NA,NA,NA,NA,NA,"",NA,"1"
"",NA,"",NA,"",NA,NA,NA,NA,NA,NA,NA,"","",1,1,"2024-08-22_15h54.19.252","IAT(Formal)","2021.2.3","Win32",60.24096386,"",NA,"",NA,NA,NA,NA,NA,NA,NA,"","","",NA,"e",1,0.5632,0,10,10,0,1,"我","e","",NA,NA,NA,NA,NA,NA,"",NA,"",NA,NA,NA,NA,NA,NA,NA,"",NA,"",NA,NA,NA,NA,NA,NA,NA,"","","",NA,"",NA,NA,NA,NA,NA,NA,NA,"",NA,"1"
"",NA,"",NA,"",NA,NA,NA,NA,NA,NA,NA,"","",1,1,"2024-08-22_15h54.19.252","IAT(Formal)","2021.2.3","Win32",60.24096386,"",NA,"",NA,NA,NA,NA,NA,NA,NA,"","","",NA,"i",1,0.5498,0,11,11,46,1,"野蛮","i","",NA,NA,NA,NA,NA,NA,"",NA,"",NA,NA,NA,NA,NA,NA,NA,"",NA,"",NA,NA,NA,NA,NA,NA,NA,"","","",NA,"",NA,NA,NA,NA,NA,NA,NA,"",NA,"1"
"",NA,"",NA,"",NA,NA,NA,NA,NA,NA,NA,"","",1,1,"2024-08-22_15h54.19.252","IAT(Formal)","2021.2.3","Win32",60.24096386,"",NA,"",NA,NA,NA,NA,NA,NA,NA,"","","",NA,"e",1,0.6171,0,12,12,25,1,"细腻","e","",NA,NA,NA,NA,NA,NA,"",NA,"",NA,NA,NA,NA,NA,NA,NA,"",NA,"",NA,NA,NA,NA,NA,NA,NA,"","","",NA,"",NA,NA,NA,NA,NA,NA,NA,"",NA,"1"
"",NA,"",NA,"",NA,NA,NA,NA,NA,NA,NA,"","",1,1,"2024-08-22_15h54.19.252","IAT(Formal)","2021.2.3","Win32",60.24096386,"",NA,"",NA,NA,NA,NA,NA,NA,NA,"","","",NA,"i",1,0.7588,0,13,13,37,1,"傲慢","i","",NA,NA,NA,NA,NA,NA,"",NA,"",NA,NA,NA,NA,NA,NA,NA,"",NA,"",NA,NA,NA,NA,NA,NA,NA,"","","",NA,"",NA,NA,NA,NA,NA,NA,NA,"",NA,"1"
"",NA,"",NA,"",NA,NA,NA,NA,NA,NA,NA,"","",1,1,"2024-08-22_15h54.19.252","IAT(Formal)","2021.2.3","Win32",60.24096386,"",NA,"",NA,NA,NA,NA,NA,NA,NA,"","","",NA,"i",1,0.6338,0,14,14,39,1,"冒失","i","",NA,NA,NA,NA,NA,NA,"",NA,"",NA,NA,NA,NA,NA,NA,NA,"",NA,"",NA,NA,NA,NA,NA,NA,NA,"","","",NA,"",NA,NA,NA,NA,NA,NA,NA,"",NA,"1"
"",NA,"",NA,"",NA,NA,NA,NA,NA,NA,NA,"","",1,1,"2024-08-22_15h54.19.252","IAT(Formal)","2021.2.3","Win32",60.24096386,"",NA,"",NA,NA,NA,NA,NA,NA,NA,"","","",NA,"i",1,0.5341,0,15,15,78,1,"他人","i","",NA,NA,NA,NA,NA,NA,"",NA,"",NA,NA,NA,NA,NA,NA,NA,"",NA,"",NA,NA,NA,NA,NA,NA,NA,"","","",NA,"",NA,NA,NA,NA,NA,NA,NA,"",NA,"1"
"",NA,"",NA,"",NA,NA,NA,NA,NA,NA,NA,"","",1,1,"2024-08-22_15h54.19.252","IAT(Formal)","2021.2.3","Win32",60.24096386,"",NA,"",NA,NA,NA,NA,NA,NA,NA,"","","",NA,"i",1,0.5259,0,16,16,69,1,"其他","i","",NA,NA,NA,NA,NA,NA,"",NA,"",NA,NA,NA,NA,NA,NA,NA,"",NA,"",NA,NA,NA,NA,NA,NA,NA,"","","",NA,"",NA,NA,NA,NA,NA,NA,NA,"",NA,"1"
"",NA,"",NA,"",NA,NA,NA,NA,NA,NA,NA,"","",1,1,"2024-08-22_15h54.19.252","IAT(Formal)","2021.2.3","Win32",60.24096386,"",NA,"",NA,NA,NA,NA,NA,NA,NA,"","","",NA,"i",1,0.5002,0,17,17,55,1,"他","i","",NA,NA,NA,NA,NA,NA,"",NA,"",NA,NA,NA,NA,NA,NA,NA,"",NA,"",NA,NA,NA,NA,NA,NA,NA,"","","",NA,"",NA,NA,NA,NA,NA,NA,NA,"",NA,"1"
"",NA,"",NA,"",NA,NA,NA,NA,NA,NA,NA,"","",1,1,"2024-08-22_15h54.19.252","IAT(Formal)","2021.2.3","Win32",60.24096386,"",NA,"",NA,NA,NA,NA,NA,NA,NA,"","","",NA,"i",1,0.4754,0,18,18,76,1,"他们","i","",NA,NA,NA,NA,NA,NA,"",NA,"",NA,NA,NA,NA,NA,NA,NA,"",NA,"",NA,NA,NA,NA,NA,NA,NA,"","","",NA,"",NA,NA,NA,NA,NA,NA,NA,"",NA,"1"
"",NA,"",NA,"",NA,NA,NA,NA,NA,NA,NA,"","",1,1,"2024-08-22_15h54.19.252","IAT(Formal)","2021.2.3","Win32",60.24096386,"",NA,"",NA,NA,NA,NA,NA,NA,NA,"","","",NA,"i",1,0.445,0,19,19,49,1,"下贱","i","",NA,NA,NA,NA,NA,NA,"",NA,"",NA,NA,NA,NA,NA,NA,NA,"",NA,"",NA,NA,NA,NA,NA,NA,NA,"","","",NA,"",NA,NA,NA,NA,NA,NA,NA,"",NA,"1"
"",NA,"",NA,"",NA,NA,NA,NA,NA,NA,NA,"","",1,1,"2024-08-22_15h54.19.252","IAT(Formal)","2021.2.3","Win32",60.24096386,"",NA,"",NA,NA,NA,NA,NA,NA,NA,"","","",NA,"i",1,0.4429,0,20,20,57,1,"他的","i","",NA,NA,NA,NA,NA,NA,"",NA,"",NA,NA,NA,NA,NA,NA,NA,"",NA,"",NA,NA,NA,NA,NA,NA,NA,"","","",NA,"",NA,NA,NA,NA,NA,NA,NA,"",NA,"1"
"",NA,"",NA,"",NA,NA,NA,NA,NA,NA,NA,"","",1,1,"2024-08-22_15h54.19.252","IAT(Formal)","2021.2.3","Win32",60.24096386,"",NA,"",NA,NA,NA,NA,NA,NA,NA,"","","",NA,"e",1,0.5013,0,21,21,13,1,"杰出","e","",NA,NA,NA,NA,NA,NA,"",NA,"",NA,NA,NA,NA,NA,NA,NA,"",NA,"",NA,NA,NA,NA,NA,NA,NA,"","","",NA,"",NA,NA,NA,NA,NA,NA,NA,"",NA,"1"
"",NA,"",NA,"",NA,NA,NA,NA,NA,NA,NA,"","",1,1,"2024-08-22_15h54.19.252","IAT(Formal)","2021.2.3","Win32",60.24096386,"",NA,"",NA,NA,NA,NA,NA,NA,NA,"","","",NA,"i",1,0.528,0,22,22,79,1,"其他","i","",NA,NA,NA,NA,NA,NA,"",NA,"",NA,NA,NA,NA,NA,NA,NA,"",NA,"",NA,NA,NA,NA,NA,NA,NA,"","","",NA,"",NA,NA,NA,NA,NA,NA,NA,"",NA,"1"
"",NA,"",NA,"",NA,NA,NA,NA,NA,NA,NA,"","",1,1,"2024-08-22_15h54.19.252","IAT(Formal)","2021.2.3","Win32",60.24096386,"",NA,"",NA,NA,NA,NA,NA,NA,NA,"","","",NA,"e",1,0.5005,0,23,23,2,1,"我们","e","",NA,NA,NA,NA,NA,NA,"",NA,"",NA,NA,NA,NA,NA,NA,NA,"",NA,"",NA,NA,NA,NA,NA,NA,NA,"","","",NA,"",NA,NA,NA,NA,NA,NA,NA,"",NA,"1"
"",NA,"",NA,"",NA,NA,NA,NA,NA,NA,NA,"","",1,1,"2024-08-22_15h54.19.252","IAT(Formal)","2021.2.3","Win32",60.24096386,"",NA,"",NA,NA,NA,NA,NA,NA,NA,"","","",NA,"i",1,0.5165,0,24,24,38,1,"鲁莽","i","",NA,NA,NA,NA,NA,NA,"",NA,"",NA,NA,NA,NA,NA,NA,NA,"",NA,"",NA,NA,NA,NA,NA,NA,NA,"","","",NA,"",NA,NA,NA,NA,NA,NA,NA,"",NA,"1"
"",NA,"",NA,"",NA,NA,NA,NA,NA,NA,NA,"","",1,1,"2024-08-22_15h54.19.252","IAT(Formal)","2021.2.3","Win32",60.24096386,"",NA,"",NA,NA,NA,NA,NA,NA,NA,"","","",NA,"e",1,0.5443,0,25,25,19,1,"机智","e","",NA,NA,NA,NA,NA,NA,"",NA,"",NA,NA,NA,NA,NA,NA,NA,"",NA,"",NA,NA,NA,NA,NA,NA,NA,"","","",NA,"",NA,NA,NA,NA,NA,NA,NA,"",NA,"1"
"",NA,"",NA,"",NA,NA,NA,NA,NA,NA,NA,"","",1,1,"2024-08-22_15h54.19.252","IAT(Formal)","2021.2.3","Win32",60.24096386,"",NA,"",NA,NA,NA,NA,NA,NA,NA,"","","",NA,"i",1,0.4626,0,26,26,66,1,"他们","i","",NA,NA,NA,NA,NA,NA,"",NA,"",NA,NA,NA,NA,NA,NA,NA,"",NA,"",NA,NA,NA,NA,NA,NA,NA,"","","",NA,"",NA,NA,NA,NA,NA,NA,NA,"",NA,"1"
"",NA,"",NA,"",NA,NA,NA,NA,NA,NA,NA,"","",1,1,"2024-08-22_15h54.19.252","IAT(Formal)","2021.2.3","Win32",60.24096386,"",NA,"",NA,NA,NA,NA,NA,NA,NA,"","","",NA,"i",1,0.5556,0,27,27,67,1,"他的","i","",NA,NA,NA,NA,NA,NA,"",NA,"",NA,NA,NA,NA,NA,NA,NA,"",NA,"",NA,NA,NA,NA,NA,NA,NA,"","","",NA,"",NA,NA,NA,NA,NA,NA,NA,"",NA,"1"
"",NA,"",NA,"",NA,NA,NA,NA,NA,NA,NA,"","",1,1,"2024-08-22_15h54.19.252","IAT(Formal)","2021.2.3","Win32",60.24096386,"",NA,"",NA,NA,NA,NA,NA,NA,NA,"","","",NA,"e",1,0.467,0,28,28,20,1,"认真","e","",NA,NA,NA,NA,NA,NA,"",NA,"",NA,NA,NA,NA,NA,NA,NA,"",NA,"",NA,NA,NA,NA,NA,NA,NA,"","","",NA,"",NA,NA,NA,NA,NA,NA,NA,"",NA,"1"
"",NA,"",NA,"",NA,NA,NA,NA,NA,NA,NA,"","",1,1,"2024-08-22_15h54.19.252","IAT(Formal)","2021.2.3","Win32",60.24096386,"",NA,"",NA,NA,NA,NA,NA,NA,NA,"","","",NA,"e",1,0.5381,0,29,29,27,1,"热情","e","",NA,NA,NA,NA,NA,NA,"",NA,"",NA,NA,NA,NA,NA,NA,NA,"",NA,"",NA,NA,NA,NA,NA,NA,NA,"","","",NA,"",NA,NA,NA,NA,NA,NA,NA,"",NA,"1"
"",NA,"",NA,"",NA,NA,NA,NA,NA,NA,NA,"","",1,1,"2024-08-22_15h54.19.252","IAT(Formal)","2021.2.3","Win32",60.24096386,"",NA,"",NA,NA,NA,NA,NA,NA,NA,"","","",NA,"e",0,0.5927,0,30,30,58,1,"他人","i","",NA,NA,NA,NA,NA,NA,"",NA,"",NA,NA,NA,NA,NA,NA,NA,"",NA,"",NA,NA,NA,NA,NA,NA,NA,"","","",NA,"",NA,NA,NA,NA,NA,NA,NA,"",NA,"1"
"",NA,"",NA,"",NA,NA,NA,NA,NA,NA,NA,"","",1,1,"2024-08-22_15h54.19.252","IAT(Formal)","2021.2.3","Win32",60.24096386,"",NA,"",NA,NA,NA,NA,NA,NA,NA,"","","",NA,"e",1,0.4335,0,31,31,52,1,"我们","e","",NA,NA,NA,NA,NA,NA,"",NA,"",NA,NA,NA,NA,NA,NA,NA,"",NA,"",NA,NA,NA,NA,NA,NA,NA,"","","",NA,"",NA,NA,NA,NA,NA,NA,NA,"",NA,"1"
"",NA,"",NA,"",NA,NA,NA,NA,NA,NA,NA,"","",1,1,"2024-08-22_15h54.19.252","IAT(Formal)","2021.2.3","Win32",60.24096386,"",NA,"",NA,NA,NA,NA,NA,NA,NA,"","","",NA,"e",1,0.3345,0,32,32,71,1,"我的","e","",NA,NA,NA,NA,NA,NA,"",NA,"",NA,NA,NA,NA,NA,NA,NA,"",NA,"",NA,NA,NA,NA,NA,NA,NA,"","","",NA,"",NA,NA,NA,NA,NA,NA,NA,"",NA,"1"
"",NA,"",NA,"",NA,NA,NA,NA,NA,NA,NA,"","",1,1,"2024-08-22_15h54.19.252","IAT(Formal)","2021.2.3","Win32",60.24096386,"",NA,"",NA,NA,NA,NA,NA,NA,NA,"","","",NA,"e",1,0.5004,0,33,33,74,1,"俺","e","",NA,NA,NA,NA,NA,NA,"",NA,"",NA,NA,NA,NA,NA,NA,NA,"",NA,"",NA,NA,NA,NA,NA,NA,NA,"","","",NA,"",NA,NA,NA,NA,NA,NA,NA,"",NA,"1"
"",NA,"",NA,"",NA,NA,NA,NA,NA,NA,NA,"","",1,1,"2024-08-22_15h54.19.252","IAT(Formal)","2021.2.3","Win32",60.24096386,"",NA,"",NA,NA,NA,NA,NA,NA,NA,"","","",NA,"i",1,0.4833,0,34,34,5,1,"他","i","",NA,NA,NA,NA,NA,NA,"",NA,"",NA,NA,NA,NA,NA,NA,NA,"",NA,"",NA,NA,NA,NA,NA,NA,NA,"","","",NA,"",NA,NA,NA,NA,NA,NA,NA,"",NA,"1"
"",NA,"",NA,"",NA,NA,NA,NA,NA,NA,NA,"","",1,1,"2024-08-22_15h54.19.252","IAT(Formal)","2021.2.3","Win32",60.24096386,"",NA,"",NA,NA,NA,NA,NA,NA,NA,"","","",NA,"i",1,0.386,0,35,35,77,1,"他的","i","",NA,NA,NA,NA,NA,NA,"",NA,"",NA,NA,NA,NA,NA,NA,NA,"",NA,"",NA,NA,NA,NA,NA,NA,NA,"","","",NA,"",NA,NA,NA,NA,NA,NA,NA,"",NA,"1"
"",NA,"",NA,"",NA,NA,NA,NA,NA,NA,NA,"","",1,1,"2024-08-22_15h54.19.252","IAT(Formal)","2021.2.3","Win32",60.24096386,"",NA,"",NA,NA,NA,NA,NA,NA,NA,"","","",NA,"e",1,0.4968,0,36,36,70,1,"我","e","",NA,NA,NA,NA,NA,NA,"",NA,"",NA,NA,NA,NA,NA,NA,NA,"",NA,"",NA,NA,NA,NA,NA,NA,NA,"","","",NA,"",NA,NA,NA,NA,NA,NA,NA,"",NA,"1"
"",NA,"",NA,"",NA,NA,NA,NA,NA,NA,NA,"","",1,1,"2024-08-22_15h54.19.252","IAT(Formal)","2021.2.3","Win32",60.24096386,"",NA,"",NA,NA,NA,NA,NA,NA,NA,"","","",NA,"e",1,0.4833,0,37,37,23,1,"公正","e","",NA,NA,NA,NA,NA,NA,"",NA,"",NA,NA,NA,NA,NA,NA,NA,"",NA,"",NA,NA,NA,NA,NA,NA,NA,"","","",NA,"",NA,NA,NA,NA,NA,NA,NA,"",NA,"1"
"",NA,"",NA,"",NA,NA,NA,NA,NA,NA,NA,"","",1,1,"2024-08-22_15h54.19.252","IAT(Formal)","2021.2.3","Win32",60.24096386,"",NA,"",NA,NA,NA,NA,NA,NA,NA,"","","",NA,"i",1,0.4762,0,38,38,35,1,"消极","i","",NA,NA,NA,NA,NA,NA,"",NA,"",NA,NA,NA,NA,NA,NA,NA,"",NA,"",NA,NA,NA,NA,NA,NA,NA,"","","",NA,"",NA,NA,NA,NA,NA,NA,NA,"",NA,"1"
"",NA,"",NA,"",NA,NA,NA,NA,NA,NA,NA,"","",1,1,"2024-08-22_15h54.19.252","IAT(Formal)","2021.2.3","Win32",60.24096386,"",NA,"",NA,NA,NA,NA,NA,NA,NA,"","","",NA,"e",1,0.5281,0,39,39,50,1,"我","e","",NA,NA,NA,NA,NA,NA,"",NA,"",NA,NA,NA,NA,NA,NA,NA,"",NA,"",NA,NA,NA,NA,NA,NA,NA,"","","",NA,"",NA,NA,NA,NA,NA,NA,NA,"",NA,"1"
"",NA,"",NA,"",NA,NA,NA,NA,NA,NA,NA,"","",1,1,"2024-08-22_15h54.19.252","IAT(Formal)","2021.2.3","Win32",60.24096386,"",NA,"",NA,NA,NA,NA,NA,NA,NA,"","","",NA,"i",1,0.8865,0,40,40,40,1,"执拗","i","",NA,NA,NA,NA,NA,NA,"",NA,"",NA,NA,NA,NA,NA,NA,NA,"",NA,"",NA,NA,NA,NA,NA,NA,NA,"","","",NA,"",NA,NA,NA,NA,NA,NA,NA,"",NA,"1"
"",NA,"",NA,"",NA,NA,NA,NA,NA,NA,NA,"","",1,1,"2024-08-22_15h54.19.252","IAT(Formal)","2021.2.3","Win32",60.24096386,"",NA,"",NA,NA,NA,NA,NA,NA,NA,"","","",NA,"e",1,0.4678,0,41,41,28,1,"活泼","e","",NA,NA,NA,NA,NA,NA,"",NA,"",NA,NA,NA,NA,NA,NA,NA,"",NA,"",NA,NA,NA,NA,NA,NA,NA,"","","",NA,"",NA,NA,NA,NA,NA,NA,NA,"",NA,"1"
"",NA,"",NA,"",NA,NA,NA,NA,NA,NA,NA,"","",1,1,"2024-08-22_15h54.19.252","IAT(Formal)","2021.2.3","Win32",60.24096386,"",NA,"",NA,NA,NA,NA,NA,NA,NA,"","","",NA,"i",1,0.4932,0,42,42,32,1,"愚蠢","i","",NA,NA,NA,NA,NA,NA,"",NA,"",NA,NA,NA,NA,NA,NA,NA,"",NA,"",NA,NA,NA,NA,NA,NA,NA,"","","",NA,"",NA,NA,NA,NA,NA,NA,NA,"",NA,"1"
"",NA,"",NA,"",NA,NA,NA,NA,NA,NA,NA,"","",1,1,"2024-08-22_15h54.19.252","IAT(Formal)","2021.2.3","Win32",60.24096386,"",NA,"",NA,NA,NA,NA,NA,NA,NA,"","","",NA,"i",1,0.5275,0,43,43,34,1,"悲观","i","",NA,NA,NA,NA,NA,NA,"",NA,"",NA,NA,NA,NA,NA,NA,NA,"",NA,"",NA,NA,NA,NA,NA,NA,NA,"","","",NA,"",NA,NA,NA,NA,NA,NA,NA,"",NA,"1"
"",NA,"",NA,"",NA,NA,NA,NA,NA,NA,NA,"","",1,1,"2024-08-22_15h54.19.252","IAT(Formal)","2021.2.3","Win32",60.24096386,"",NA,"",NA,NA,NA,NA,NA,NA,NA,"","","",NA,"e",1,0.5519,0,44,44,12,1,"聪明","e","",NA,NA,NA,NA,NA,NA,"",NA,"",NA,NA,NA,NA,NA,NA,NA,"",NA,"",NA,NA,NA,NA,NA,NA,NA,"","","",NA,"",NA,NA,NA,NA,NA,NA,NA,"",NA,"1"
"",NA,"",NA,"",NA,NA,NA,NA,NA,NA,NA,"","",1,1,"2024-08-22_15h54.19.252","IAT(Formal)","2021.2.3","Win32",60.24096386,"",NA,"",NA,NA,NA,NA,NA,NA,NA,"","","",NA,"e",1,0.568,0,45,45,24,1,"朴实","e","",NA,NA,NA,NA,NA,NA,"",NA,"",NA,NA,NA,NA,NA,NA,NA,"",NA,"",NA,NA,NA,NA,NA,NA,NA,"","","",NA,"",NA,NA,NA,NA,NA,NA,NA,"",NA,"1"
"",NA,"",NA,"",NA,NA,NA,NA,NA,NA,NA,"","",1,1,"2024-08-22_15h54.19.252","IAT(Formal)","2021.2.3","Win32",60.24096386,"",NA,"",NA,NA,NA,NA,NA,NA,NA,"","","",NA,"i",1,0.492,0,46,46,65,1,"他","i","",NA,NA,NA,NA,NA,NA,"",NA,"",NA,NA,NA,NA,NA,NA,NA,"",NA,"",NA,NA,NA,NA,NA,NA,NA,"","","",NA,"",NA,NA,NA,NA,NA,NA,NA,"",NA,"1"
"",NA,"",NA,"",NA,NA,NA,NA,NA,NA,NA,"","",1,1,"2024-08-22_15h54.19.252","IAT(Formal)","2021.2.3","Win32",60.24096386,"",NA,"",NA,NA,NA,NA,NA,NA,NA,"","","",NA,"i",1,0.5799,0,47,47,59,1,"其他","i","",NA,NA,NA,NA,NA,NA,"",NA,"",NA,NA,NA,NA,NA,NA,NA,"",NA,"",NA,NA,NA,NA,NA,NA,NA,"","","",NA,"",NA,NA,NA,NA,NA,NA,NA,"",NA,"1"
"",NA,"",NA,"",NA,NA,NA,NA,NA,NA,NA,"","",1,1,"2024-08-22_15h54.19.252","IAT(Formal)","2021.2.3","Win32",60.24096386,"",NA,"",NA,NA,NA,NA,NA,NA,NA,"","","",NA,"e",1,0.5167,0,48,48,3,1,"自己","e","",NA,NA,NA,NA,NA,NA,"",NA,"",NA,NA,NA,NA,NA,NA,NA,"",NA,"",NA,NA,NA,NA,NA,NA,NA,"","","",NA,"",NA,NA,NA,NA,NA,NA,NA,"",NA,"1"
"",NA,"",NA,"",NA,NA,NA,NA,NA,NA,NA,"","",1,1,"2024-08-22_15h54.19.252","IAT(Formal)","2021.2.3","Win32",60.24096386,"",NA,"",NA,NA,NA,NA,NA,NA,NA,"","","",NA,"e",1,0.5728,0,49,49,61,1,"我的","e","",NA,NA,NA,NA,NA,NA,"",NA,"",NA,NA,NA,NA,NA,NA,NA,"",NA,"",NA,NA,NA,NA,NA,NA,NA,"","","",NA,"",NA,NA,NA,NA,NA,NA,NA,"",NA,"1"
"",NA,"",NA,"",NA,NA,NA,NA,NA,NA,NA,"","",1,1,"2024-08-22_15h54.19.252","IAT(Formal)","2021.2.3","Win32",60.24096386,"",NA,"",NA,NA,NA,NA,NA,NA,NA,"","","",NA,"e",1,0.4884,0,50,50,54,1,"俺","e","",NA,NA,NA,NA,NA,NA,"",NA,"",NA,NA,NA,NA,NA,NA,NA,"",NA,"",NA,NA,NA,NA,NA,NA,NA,"","","",NA,"",NA,NA,NA,NA,NA,NA,NA,"",NA,"1"
"",NA,"",NA,"",NA,NA,NA,NA,NA,NA,NA,"","",1,1,"2024-08-22_15h54.19.252","IAT(Formal)","2021.2.3","Win32",60.24096386,"",NA,"",NA,NA,NA,NA,NA,NA,NA,"","","",NA,"i",1,0.5631,0,51,51,33,1,"刻薄","i","",NA,NA,NA,NA,NA,NA,"",NA,"",NA,NA,NA,NA,NA,NA,NA,"",NA,"",NA,NA,NA,NA,NA,NA,NA,"","","",NA,"",NA,NA,NA,NA,NA,NA,NA,"",NA,"1"
"",NA,"",NA,"",NA,NA,NA,NA,NA,NA,NA,"","",1,1,"2024-08-22_15h54.19.252","IAT(Formal)","2021.2.3","Win32",60.24096386,"",NA,"",NA,NA,NA,NA,NA,NA,NA,"","","",NA,"i",1,0.5344,0,52,52,6,1,"他们","i","",NA,NA,NA,NA,NA,NA,"",NA,"",NA,NA,NA,NA,NA,NA,NA,"",NA,"",NA,NA,NA,NA,NA,NA,NA,"","","",NA,"",NA,NA,NA,NA,NA,NA,NA,"",NA,"1"
"",NA,"",NA,"",NA,NA,NA,NA,NA,NA,NA,"","",1,1,"2024-08-22_15h54.19.252","IAT(Formal)","2021.2.3","Win32",60.24096386,"",NA,"",NA,NA,NA,NA,NA,NA,NA,"","","",NA,"e",1,0.464,0,53,53,62,1,"我们","e","",NA,NA,NA,NA,NA,NA,"",NA,"",NA,NA,NA,NA,NA,NA,NA,"",NA,"",NA,NA,NA,NA,NA,NA,NA,"","","",NA,"",NA,NA,NA,NA,NA,NA,NA,"",NA,"1"
"",NA,"",NA,"",NA,NA,NA,NA,NA,NA,NA,"","",1,1,"2024-08-22_15h54.19.252","IAT(Formal)","2021.2.3","Win32",60.24096386,"",NA,"",NA,NA,NA,NA,NA,NA,NA,"","","",NA,"e",1,0.4799,0,54,54,10,1,"优秀","e","",NA,NA,NA,NA,NA,NA,"",NA,"",NA,NA,NA,NA,NA,NA,NA,"",NA,"",NA,NA,NA,NA,NA,NA,NA,"","","",NA,"",NA,NA,NA,NA,NA,NA,NA,"",NA,"1"
"",NA,"",NA,"",NA,NA,NA,NA,NA,NA,NA,"","",1,1,"2024-08-22_15h54.19.252","IAT(Formal)","2021.2.3","Win32",60.24096386,"",NA,"",NA,NA,NA,NA,NA,NA,NA,"","","",NA,"e",1,0.6717,0,55,55,22,1,"无私","e","",NA,NA,NA,NA,NA,NA,"",NA,"",NA,NA,NA,NA,NA,NA,NA,"",NA,"",NA,NA,NA,NA,NA,NA,NA,"","","",NA,"",NA,NA,NA,NA,NA,NA,NA,"",NA,"1"
"",NA,"",NA,"",NA,NA,NA,NA,NA,NA,NA,"","",1,1,"2024-08-22_15h54.19.252","IAT(Formal)","2021.2.3","Win32",60.24096386,"",NA,"",NA,NA,NA,NA,NA,NA,NA,"","","",NA,"e",1,0.3715,0,56,56,51,1,"我的","e","",NA,NA,NA,NA,NA,NA,"",NA,"",NA,NA,NA,NA,NA,NA,NA,"",NA,"",NA,NA,NA,NA,NA,NA,NA,"","","",NA,"",NA,NA,NA,NA,NA,NA,NA,"",NA,"1"
"",NA,"",NA,"",NA,NA,NA,NA,NA,NA,NA,"","",1,1,"2024-08-22_15h54.19.252","IAT(Formal)","2021.2.3","Win32",60.24096386,"",NA,"",NA,NA,NA,NA,NA,NA,NA,"","","",NA,"i",1,0.5067,0,57,57,30,1,"卑鄙","i","",NA,NA,NA,NA,NA,NA,"",NA,"",NA,NA,NA,NA,NA,NA,NA,"",NA,"",NA,NA,NA,NA,NA,NA,NA,"","","",NA,"",NA,NA,NA,NA,NA,NA,NA,"",NA,"1"
"",NA,"",NA,"",NA,NA,NA,NA,NA,NA,NA,"","",1,1,"2024-08-22_15h54.19.252","IAT(Formal)","2021.2.3","Win32",60.24096386,"",NA,"",NA,NA,NA,NA,NA,NA,NA,"","","",NA,"e",1,0.4292,0,58,58,60,1,"我","e","",NA,NA,NA,NA,NA,NA,"",NA,"",NA,NA,NA,NA,NA,NA,NA,"",NA,"",NA,NA,NA,NA,NA,NA,NA,"","","",NA,"",NA,NA,NA,NA,NA,NA,NA,"",NA,"1"
"",NA,"",NA,"",NA,NA,NA,NA,NA,NA,NA,"","",1,1,"2024-08-22_15h54.19.252","IAT(Formal)","2021.2.3","Win32",60.24096386,"",NA,"",NA,NA,NA,NA,NA,NA,NA,"","","",NA,"i",1,1.2175,0,59,59,47,1,"固执","i","",NA,NA,NA,NA,NA,NA,"",NA,"",NA,NA,NA,NA,NA,NA,NA,"",NA,"",NA,NA,NA,NA,NA,NA,NA,"","","",NA,"",NA,NA,NA,NA,NA,NA,NA,"",NA,"1"
"",NA,"",NA,"",NA,NA,NA,NA,NA,NA,NA,"","",1,1,"2024-08-22_15h54.19.252","IAT(Formal)","2021.2.3","Win32",60.24096386,"",NA,"",NA,NA,NA,NA,NA,NA,NA,"","","",NA,"i",1,0.6888,0,60,60,41,1,"散漫","i","",NA,NA,NA,NA,NA,NA,"",NA,"",NA,NA,NA,NA,NA,NA,NA,"",NA,"",NA,NA,NA,NA,NA,NA,NA,"","","",NA,"",NA,NA,NA,NA,NA,NA,NA,"",NA,"1"
"",NA,"",NA,"",NA,NA,NA,NA,NA,NA,NA,"","",1,1,"2024-08-22_15h54.19.252","IAT(Formal)","2021.2.3","Win32",60.24096386,"",NA,"",NA,NA,NA,NA,NA,NA,NA,"","","",NA,"i",1,0.5289,0,61,61,42,1,"凶狠","i","",NA,NA,NA,NA,NA,NA,"",NA,"",NA,NA,NA,NA,NA,NA,NA,"",NA,"",NA,NA,NA,NA,NA,NA,NA,"","","",NA,"",NA,NA,NA,NA,NA,NA,NA,"",NA,"1"
"",NA,"",NA,"",NA,NA,NA,NA,NA,NA,NA,"","",1,1,"2024-08-22_15h54.19.252","IAT(Formal)","2021.2.3","Win32",60.24096386,"",NA,"",NA,NA,NA,NA,NA,NA,NA,"","","",NA,"e",1,0.4889,0,62,62,17,1,"勇敢","e","",NA,NA,NA,NA,NA,NA,"",NA,"",NA,NA,NA,NA,NA,NA,NA,"",NA,"",NA,NA,NA,NA,NA,NA,NA,"","","",NA,"",NA,NA,NA,NA,NA,NA,NA,"",NA,"1"
"",NA,"",NA,"",NA,NA,NA,NA,NA,NA,NA,"","",1,1,"2024-08-22_15h54.19.252","IAT(Formal)","2021.2.3","Win32",60.24096386,"",NA,"",NA,NA,NA,NA,NA,NA,NA,"","","",NA,"e",1,0.396,0,63,63,72,1,"我们","e","",NA,NA,NA,NA,NA,NA,"",NA,"",NA,NA,NA,NA,NA,NA,NA,"",NA,"",NA,NA,NA,NA,NA,NA,NA,"","","",NA,"",NA,NA,NA,NA,NA,NA,NA,"",NA,"1"
"",NA,"",NA,"",NA,NA,NA,NA,NA,NA,NA,"","",1,1,"2024-08-22_15h54.19.252","IAT(Formal)","2021.2.3","Win32",60.24096386,"",NA,"",NA,NA,NA,NA,NA,NA,NA,"","","",NA,"i",1,0.5044,0,64,64,48,1,"轻率","i","",NA,NA,NA,NA,NA,NA,"",NA,"",NA,NA,NA,NA,NA,NA,NA,"",NA,"",NA,NA,NA,NA,NA,NA,NA,"","","",NA,"",NA,NA,NA,NA,NA,NA,NA,"",NA,"1"
"",NA,"",NA,"",NA,NA,NA,NA,NA,NA,NA,"","",1,1,"2024-08-22_15h54.19.252","IAT(Formal)","2021.2.3","Win32",60.24096386,"",NA,"",NA,NA,NA,NA,NA,NA,NA,"","","",NA,"e",1,0.5388,0,65,65,18,1,"勤奋","e","",NA,NA,NA,NA,NA,NA,"",NA,"",NA,NA,NA,NA,NA,NA,NA,"",NA,"",NA,NA,NA,NA,NA,NA,NA,"","","",NA,"",NA,NA,NA,NA,NA,NA,NA,"",NA,"1"
"",NA,"",NA,"",NA,NA,NA,NA,NA,NA,NA,"","",1,1,"2024-08-22_15h54.19.252","IAT(Formal)","2021.2.3","Win32",60.24096386,"",NA,"",NA,NA,NA,NA,NA,NA,NA,"","","",NA,"e",1,0.4104,0,66,66,16,1,"正直","e","",NA,NA,NA,NA,NA,NA,"",NA,"",NA,NA,NA,NA,NA,NA,NA,"",NA,"",NA,NA,NA,NA,NA,NA,NA,"","","",NA,"",NA,NA,NA,NA,NA,NA,NA,"",NA,"1"
"",NA,"",NA,"",NA,NA,NA,NA,NA,NA,NA,"","",1,1,"2024-08-22_15h54.19.252","IAT(Formal)","2021.2.3","Win32",60.24096386,"",NA,"",NA,NA,NA,NA,NA,NA,NA,"","","",NA,"e",1,0.4235,0,67,67,4,1,"俺","e","",NA,NA,NA,NA,NA,NA,"",NA,"",NA,NA,NA,NA,NA,NA,NA,"",NA,"",NA,NA,NA,NA,NA,NA,NA,"","","",NA,"",NA,NA,NA,NA,NA,NA,NA,"",NA,"1"
"",NA,"",NA,"",NA,NA,NA,NA,NA,NA,NA,"","",1,1,"2024-08-22_15h54.19.252","IAT(Formal)","2021.2.3","Win32",60.24096386,"",NA,"",NA,NA,NA,NA,NA,NA,NA,"","","",NA,"e",1,0.3619,0,68,68,63,1,"自己","e","",NA,NA,NA,NA,NA,NA,"",NA,"",NA,NA,NA,NA,NA,NA,NA,"",NA,"",NA,NA,NA,NA,NA,NA,NA,"","","",NA,"",NA,NA,NA,NA,NA,NA,NA,"",NA,"1"
"",NA,"",NA,"",NA,NA,NA,NA,NA,NA,NA,"","",1,1,"2024-08-22_15h54.19.252","IAT(Formal)","2021.2.3","Win32",60.24096386,"",NA,"",NA,NA,NA,NA,NA,NA,NA,"","","",NA,"i",1,0.5828,0,69,69,56,1,"他们","i","",NA,NA,NA,NA,NA,NA,"",NA,"",NA,NA,NA,NA,NA,NA,NA,"",NA,"",NA,NA,NA,NA,NA,NA,NA,"","","",NA,"",NA,NA,NA,NA,NA,NA,NA,"",NA,"1"
"",NA,"",NA,"",NA,NA,NA,NA,NA,NA,NA,"","",1,1,"2024-08-22_15h54.19.252","IAT(Formal)","2021.2.3","Win32",60.24096386,"",NA,"",NA,NA,NA,NA,NA,NA,NA,"","","",NA,"e",1,0.3792,0,70,70,64,1,"俺","e","",NA,NA,NA,NA,NA,NA,"",NA,"",NA,NA,NA,NA,NA,NA,NA,"",NA,"",NA,NA,NA,NA,NA,NA,NA,"","","",NA,"",NA,NA,NA,NA,NA,NA,NA,"",NA,"1"
"",NA,"",NA,"",NA,NA,NA,NA,NA,NA,NA,"","",1,1,"2024-08-22_15h54.19.252","IAT(Formal)","2021.2.3","Win32",60.24096386,"",NA,"",NA,NA,NA,NA,NA,NA,NA,"","","",NA,"i",1,0.6602,0,71,71,45,1,"猖狂","i","",NA,NA,NA,NA,NA,NA,"",NA,"",NA,NA,NA,NA,NA,NA,NA,"",NA,"",NA,NA,NA,NA,NA,NA,NA,"","","",NA,"",NA,NA,NA,NA,NA,NA,NA,"",NA,"1"
"",NA,"",NA,"",NA,NA,NA,NA,NA,NA,NA,"","",1,1,"2024-08-22_15h54.19.252","IAT(Formal)","2021.2.3","Win32",60.24096386,"",NA,"",NA,NA,NA,NA,NA,NA,NA,"","","",NA,"e",1,0.4373,0,72,72,73,1,"自己","e","",NA,NA,NA,NA,NA,NA,"",NA,"",NA,NA,NA,NA,NA,NA,NA,"",NA,"",NA,NA,NA,NA,NA,NA,NA,"","","",NA,"",NA,NA,NA,NA,NA,NA,NA,"",NA,"1"
"",NA,"",NA,"",NA,NA,NA,NA,NA,NA,NA,"","",1,1,"2024-08-22_15h54.19.252","IAT(Formal)","2021.2.3","Win32",60.24096386,"",NA,"",NA,NA,NA,NA,NA,NA,NA,"","","",NA,"e",1,0.6863,0,73,73,26,1,"冷静","e","",NA,NA,NA,NA,NA,NA,"",NA,"",NA,NA,NA,NA,NA,NA,NA,"",NA,"",NA,NA,NA,NA,NA,NA,NA,"","","",NA,"",NA,NA,NA,NA,NA,NA,NA,"",NA,"1"
"",NA,"",NA,"",NA,NA,NA,NA,NA,NA,NA,"","",1,1,"2024-08-22_15h54.19.252","IAT(Formal)","2021.2.3","Win32",60.24096386,"",NA,"",NA,NA,NA,NA,NA,NA,NA,"","","",NA,"e",1,0.4053,0,74,74,15,1,"诚实","e","",NA,NA,NA,NA,NA,NA,"",NA,"",NA,NA,NA,NA,NA,NA,NA,"",NA,"",NA,NA,NA,NA,NA,NA,NA,"","","",NA,"",NA,NA,NA,NA,NA,NA,NA,"",NA,"1"
"",NA,"",NA,"",NA,NA,NA,NA,NA,NA,NA,"","",1,1,"2024-08-22_15h54.19.252","IAT(Formal)","2021.2.3","Win32",60.24096386,"",NA,"",NA,NA,NA,NA,NA,NA,NA,"","","",NA,"e",1,0.4019,0,75,75,21,1,"稳重","e","",NA,NA,NA,NA,NA,NA,"",NA,"",NA,NA,NA,NA,NA,NA,NA,"",NA,"",NA,NA,NA,NA,NA,NA,NA,"","","",NA,"",NA,NA,NA,NA,NA,NA,NA,"",NA,"1"
"",NA,"",NA,"",NA,NA,NA,NA,NA,NA,NA,"","",1,1,"2024-08-22_15h54.19.252","IAT(Formal)","2021.2.3","Win32",60.24096386,"",NA,"",NA,NA,NA,NA,NA,NA,NA,"","","",NA,"e",1,0.3831,0,76,76,53,1,"自己","e","",NA,NA,NA,NA,NA,NA,"",NA,"",NA,NA,NA,NA,NA,NA,NA,"",NA,"",NA,NA,NA,NA,NA,NA,NA,"","","",NA,"",NA,NA,NA,NA,NA,NA,NA,"",NA,"1"
"",NA,"",NA,"",NA,NA,NA,NA,NA,NA,NA,"","",1,1,"2024-08-22_15h54.19.252","IAT(Formal)","2021.2.3","Win32",60.24096386,"",NA,"",NA,NA,NA,NA,NA,NA,NA,"","","",NA,"i",1,0.46,0,77,77,31,1,"虚伪","i","",NA,NA,NA,NA,NA,NA,"",NA,"",NA,NA,NA,NA,NA,NA,NA,"",NA,"",NA,NA,NA,NA,NA,NA,NA,"","","",NA,"",NA,NA,NA,NA,NA,NA,NA,"",NA,"1"
"",NA,"",NA,"",NA,NA,NA,NA,NA,NA,NA,"","",1,1,"2024-08-22_15h54.19.252","IAT(Formal)","2021.2.3","Win32",60.24096386,"",NA,"",NA,NA,NA,NA,NA,NA,NA,"","","",NA,"i",1,0.5002,0,78,78,8,1,"他人","i","",NA,NA,NA,NA,NA,NA,"",NA,"",NA,NA,NA,NA,NA,NA,NA,"",NA,"",NA,NA,NA,NA,NA,NA,NA,"","","",NA,"",NA,NA,NA,NA,NA,NA,NA,"",NA,"1"
"",NA,"",NA,"",NA,NA,NA,NA,NA,NA,NA,"","",1,1,"2024-08-22_15h54.19.252","IAT(Formal)","2021.2.3","Win32",60.24096386,"",NA,"",NA,NA,NA,NA,NA,NA,NA,"","","",NA,"i",1,0.5248,0,79,79,44,1,"暴躁","i","",NA,NA,NA,NA,NA,NA,"",NA,"",NA,NA,NA,NA,NA,NA,NA,"",NA,"",NA,NA,NA,NA,NA,NA,NA,"","","",NA,"",NA,NA,NA,NA,NA,NA,NA,"",NA,"1"
"",NA,"",NA,"",NA,NA,NA,NA,NA,NA,NA,"","",1,1,"2024-08-22_15h54.19.252","IAT(Formal)","2021.2.3","Win32",60.24096386,"",NA,"",NA,NA,NA,NA,NA,NA,NA,"","","",NA,"i",1,0.5957,NA,NA,NA,NA,NA,"他们","i","space",34.8742,0,0,0,76,1,"",NA,"",NA,NA,NA,NA,NA,NA,NA,"",NA,"",NA,NA,NA,NA,NA,NA,NA,"","","",NA,"",NA,NA,NA,NA,NA,NA,NA,"",NA,"1"
"",NA,"",NA,"",NA,NA,NA,NA,NA,NA,NA,"","",1,1,"2024-08-22_15h54.19.252","IAT(Formal)","2021.2.3","Win32",60.24096386,"",NA,"",NA,NA,NA,NA,NA,NA,NA,"","","",NA,"i",1,0.4384,NA,NA,NA,NA,NA,"他们","i","",NA,0,1,1,56,1,"",NA,"",NA,NA,NA,NA,NA,NA,NA,"",NA,"",NA,NA,NA,NA,NA,NA,NA,"","","",NA,"",NA,NA,NA,NA,NA,NA,NA,"",NA,"1"
"",NA,"",NA,"",NA,NA,NA,NA,NA,NA,NA,"","",1,1,"2024-08-22_15h54.19.252","IAT(Formal)","2021.2.3","Win32",60.24096386,"",NA,"",NA,NA,NA,NA,NA,NA,NA,"","","",NA,"i",1,0.6167,NA,NA,NA,NA,NA,"下贱","i","",NA,0,2,2,49,1,"",NA,"",NA,NA,NA,NA,NA,NA,NA,"",NA,"",NA,NA,NA,NA,NA,NA,NA,"","","",NA,"",NA,NA,NA,NA,NA,NA,NA,"",NA,"1"
"",NA,"",NA,"",NA,NA,NA,NA,NA,NA,NA,"","",1,1,"2024-08-22_15h54.19.252","IAT(Formal)","2021.2.3","Win32",60.24096386,"",NA,"",NA,NA,NA,NA,NA,NA,NA,"","","",NA,"e",1,0.411,NA,NA,NA,NA,NA,"自己","e","",NA,0,3,3,63,1,"",NA,"",NA,NA,NA,NA,NA,NA,NA,"",NA,"",NA,NA,NA,NA,NA,NA,NA,"","","",NA,"",NA,NA,NA,NA,NA,NA,NA,"",NA,"1"
"",NA,"",NA,"",NA,NA,NA,NA,NA,NA,NA,"","",1,1,"2024-08-22_15h54.19.252","IAT(Formal)","2021.2.3","Win32",60.24096386,"",NA,"",NA,NA,NA,NA,NA,NA,NA,"","","",NA,"e",1,0.437,NA,NA,NA,NA,NA,"俺","e","",NA,0,4,4,64,1,"",NA,"",NA,NA,NA,NA,NA,NA,NA,"",NA,"",NA,NA,NA,NA,NA,NA,NA,"","","",NA,"",NA,NA,NA,NA,NA,NA,NA,"",NA,"1"
"",NA,"",NA,"",NA,NA,NA,NA,NA,NA,NA,"","",1,1,"2024-08-22_15h54.19.252","IAT(Formal)","2021.2.3","Win32",60.24096386,"",NA,"",NA,NA,NA,NA,NA,NA,NA,"","","",NA,"e",1,0.5063,NA,NA,NA,NA,NA,"诚恳","e","",NA,0,5,5,29,1,"",NA,"",NA,NA,NA,NA,NA,NA,NA,"",NA,"",NA,NA,NA,NA,NA,NA,NA,"","","",NA,"",NA,NA,NA,NA,NA,NA,NA,"",NA,"1"
"",NA,"",NA,"",NA,NA,NA,NA,NA,NA,NA,"","",1,1,"2024-08-22_15h54.19.252","IAT(Formal)","2021.2.3","Win32",60.24096386,"",NA,"",NA,NA,NA,NA,NA,NA,NA,"","","",NA,"i",1,0.5533,NA,NA,NA,NA,NA,"其他","i","",NA,0,6,6,69,1,"",NA,"",NA,NA,NA,NA,NA,NA,NA,"",NA,"",NA,NA,NA,NA,NA,NA,NA,"","","",NA,"",NA,NA,NA,NA,NA,NA,NA,"",NA,"1"
"",NA,"",NA,"",NA,NA,NA,NA,NA,NA,NA,"","",1,1,"2024-08-22_15h54.19.252","IAT(Formal)","2021.2.3","Win32",60.24096386,"",NA,"",NA,NA,NA,NA,NA,NA,NA,"","","",NA,"e",1,0.6755,NA,NA,NA,NA,NA,"聪明","e","",NA,0,7,7,12,1,"",NA,"",NA,NA,NA,NA,NA,NA,NA,"",NA,"",NA,NA,NA,NA,NA,NA,NA,"","","",NA,"",NA,NA,NA,NA,NA,NA,NA,"",NA,"1"
"",NA,"",NA,"",NA,NA,NA,NA,NA,NA,NA,"","",1,1,"2024-08-22_15h54.19.252","IAT(Formal)","2021.2.3","Win32",60.24096386,"",NA,"",NA,NA,NA,NA,NA,NA,NA,"","","",NA,"e",1,0.451,NA,NA,NA,NA,NA,"我","e","",NA,0,8,8,70,1,"",NA,"",NA,NA,NA,NA,NA,NA,NA,"",NA,"",NA,NA,NA,NA,NA,NA,NA,"","","",NA,"",NA,NA,NA,NA,NA,NA,NA,"",NA,"1"
"",NA,"",NA,"",NA,NA,NA,NA,NA,NA,NA,"","",1,1,"2024-08-22_15h54.19.252","IAT(Formal)","2021.2.3","Win32",60.24096386,"",NA,"",NA,NA,NA,NA,NA,NA,NA,"","","",NA,"e",1,0.3841,NA,NA,NA,NA,NA,"我的","e","",NA,0,9,9,51,1,"",NA,"",NA,NA,NA,NA,NA,NA,NA,"",NA,"",NA,NA,NA,NA,NA,NA,NA,"","","",NA,"",NA,NA,NA,NA,NA,NA,NA,"",NA,"1"
"",NA,"",NA,"",NA,NA,NA,NA,NA,NA,NA,"","",1,1,"2024-08-22_15h54.19.252","IAT(Formal)","2021.2.3","Win32",60.24096386,"",NA,"",NA,NA,NA,NA,NA,NA,NA,"","","",NA,"i",1,0.5371,NA,NA,NA,NA,NA,"执拗","i","",NA,0,10,10,40,1,"",NA,"",NA,NA,NA,NA,NA,NA,NA,"",NA,"",NA,NA,NA,NA,NA,NA,NA,"","","",NA,"",NA,NA,NA,NA,NA,NA,NA,"",NA,"1"
"",NA,"",NA,"",NA,NA,NA,NA,NA,NA,NA,"","",1,1,"2024-08-22_15h54.19.252","IAT(Formal)","2021.2.3","Win32",60.24096386,"",NA,"",NA,NA,NA,NA,NA,NA,NA,"","","",NA,"e",1,0.5561,NA,NA,NA,NA,NA,"乐观","e","",NA,0,11,11,14,1,"",NA,"",NA,NA,NA,NA,NA,NA,NA,"",NA,"",NA,NA,NA,NA,NA,NA,NA,"","","",NA,"",NA,NA,NA,NA,NA,NA,NA,"",NA,"1"
"",NA,"",NA,"",NA,NA,NA,NA,NA,NA,NA,"","",1,1,"2024-08-22_15h54.19.252","IAT(Formal)","2021.2.3","Win32",60.24096386,"",NA,"",NA,NA,NA,NA,NA,NA,NA,"","","",NA,"i",1,0.4549,NA,NA,NA,NA,NA,"他们","i","",NA,0,12,12,6,1,"",NA,"",NA,NA,NA,NA,NA,NA,NA,"",NA,"",NA,NA,NA,NA,NA,NA,NA,"","","",NA,"",NA,NA,NA,NA,NA,NA,NA,"",NA,"1"
"",NA,"",NA,"",NA,NA,NA,NA,NA,NA,NA,"","",1,1,"2024-08-22_15h54.19.252","IAT(Formal)","2021.2.3","Win32",60.24096386,"",NA,"",NA,NA,NA,NA,NA,NA,NA,"","","",NA,"i",1,0.4091,NA,NA,NA,NA,NA,"其他","i","",NA,0,13,13,79,1,"",NA,"",NA,NA,NA,NA,NA,NA,NA,"",NA,"",NA,NA,NA,NA,NA,NA,NA,"","","",NA,"",NA,NA,NA,NA,NA,NA,NA,"",NA,"1"
"",NA,"",NA,"",NA,NA,NA,NA,NA,NA,NA,"","",1,1,"2024-08-22_15h54.19.252","IAT(Formal)","2021.2.3","Win32",60.24096386,"",NA,"",NA,NA,NA,NA,NA,NA,NA,"","","",NA,"e",0,0.5265,NA,NA,NA,NA,NA,"他","i","",NA,0,14,14,65,1,"",NA,"",NA,NA,NA,NA,NA,NA,NA,"",NA,"",NA,NA,NA,NA,NA,NA,NA,"","","",NA,"",NA,NA,NA,NA,NA,NA,NA,"",NA,"1"
"",NA,"",NA,"",NA,NA,NA,NA,NA,NA,NA,"","",1,1,"2024-08-22_15h54.19.252","IAT(Formal)","2021.2.3","Win32",60.24096386,"",NA,"",NA,NA,NA,NA,NA,NA,NA,"","","",NA,"i",1,0.4337,NA,NA,NA,NA,NA,"他","i","",NA,0,15,15,75,1,"",NA,"",NA,NA,NA,NA,NA,NA,NA,"",NA,"",NA,NA,NA,NA,NA,NA,NA,"","","",NA,"",NA,NA,NA,NA,NA,NA,NA,"",NA,"1"
"",NA,"",NA,"",NA,NA,NA,NA,NA,NA,NA,"","",1,1,"2024-08-22_15h54.19.252","IAT(Formal)","2021.2.3","Win32",60.24096386,"",NA,"",NA,NA,NA,NA,NA,NA,NA,"","","",NA,"e",1,0.4466,NA,NA,NA,NA,NA,"我们","e","",NA,0,16,16,52,1,"",NA,"",NA,NA,NA,NA,NA,NA,NA,"",NA,"",NA,NA,NA,NA,NA,NA,NA,"","","",NA,"",NA,NA,NA,NA,NA,NA,NA,"",NA,"1"
"",NA,"",NA,"",NA,NA,NA,NA,NA,NA,NA,"","",1,1,"2024-08-22_15h54.19.252","IAT(Formal)","2021.2.3","Win32",60.24096386,"",NA,"",NA,NA,NA,NA,NA,NA,NA,"","","",NA,"i",1,0.5091,NA,NA,NA,NA,NA,"愚蠢","i","",NA,0,17,17,32,1,"",NA,"",NA,NA,NA,NA,NA,NA,NA,"",NA,"",NA,NA,NA,NA,NA,NA,NA,"","","",NA,"",NA,NA,NA,NA,NA,NA,NA,"",NA,"1"
"",NA,"",NA,"",NA,NA,NA,NA,NA,NA,NA,"","",1,1,"2024-08-22_15h54.19.252","IAT(Formal)","2021.2.3","Win32",60.24096386,"",NA,"",NA,NA,NA,NA,NA,NA,NA,"","","",NA,"e",1,0.7232,NA,NA,NA,NA,NA,"我的","e","",NA,0,18,18,1,1,"",NA,"",NA,NA,NA,NA,NA,NA,NA,"",NA,"",NA,NA,NA,NA,NA,NA,NA,"","","",NA,"",NA,NA,NA,NA,NA,NA,NA,"",NA,"1"
"",NA,"",NA,"",NA,NA,NA,NA,NA,NA,NA,"","",1,1,"2024-08-22_15h54.19.252","IAT(Formal)","2021.2.3","Win32",60.24096386,"",NA,"",NA,NA,NA,NA,NA,NA,NA,"","","",NA,"i",1,0.414,NA,NA,NA,NA,NA,"他人","i","",NA,0,19,19,78,1,"",NA,"",NA,NA,NA,NA,NA,NA,NA,"",NA,"",NA,NA,NA,NA,NA,NA,NA,"","","",NA,"",NA,NA,NA,NA,NA,NA,NA,"",NA,"1"
"",NA,"",NA,"",NA,NA,NA,NA,NA,NA,NA,"","",1,1,"2024-08-22_15h54.19.252","IAT(Formal)","2021.2.3","Win32",60.24096386,"",NA,"",NA,NA,NA,NA,NA,NA,NA,"","","",NA,"e",1,0.6187,NA,NA,NA,NA,NA,"机智","e","",NA,0,20,20,19,1,"",NA,"",NA,NA,NA,NA,NA,NA,NA,"",NA,"",NA,NA,NA,NA,NA,NA,NA,"","","",NA,"",NA,NA,NA,NA,NA,NA,NA,"",NA,"1"
"",NA,"",NA,"",NA,NA,NA,NA,NA,NA,NA,"","",1,1,"2024-08-22_15h54.19.252","IAT(Formal)","2021.2.3","Win32",60.24096386,"",NA,"",NA,NA,NA,NA,NA,NA,NA,"","","",NA,"i",1,0.5116,NA,NA,NA,NA,NA,"他的","i","",NA,0,21,21,67,1,"",NA,"",NA,NA,NA,NA,NA,NA,NA,"",NA,"",NA,NA,NA,NA,NA,NA,NA,"","","",NA,"",NA,NA,NA,NA,NA,NA,NA,"",NA,"1"
"",NA,"",NA,"",NA,NA,NA,NA,NA,NA,NA,"","",1,1,"2024-08-22_15h54.19.252","IAT(Formal)","2021.2.3","Win32",60.24096386,"",NA,"",NA,NA,NA,NA,NA,NA,NA,"","","",NA,"i",1,1.1013,NA,NA,NA,NA,NA,"卑鄙","i","",NA,0,22,22,30,1,"",NA,"",NA,NA,NA,NA,NA,NA,NA,"",NA,"",NA,NA,NA,NA,NA,NA,NA,"","","",NA,"",NA,NA,NA,NA,NA,NA,NA,"",NA,"1"
"",NA,"",NA,"",NA,NA,NA,NA,NA,NA,NA,"","",1,1,"2024-08-22_15h54.19.252","IAT(Formal)","2021.2.3","Win32",60.24096386,"",NA,"",NA,NA,NA,NA,NA,NA,NA,"","","",NA,"e",1,0.567,NA,NA,NA,NA,NA,"无私","e","",NA,0,23,23,22,1,"",NA,"",NA,NA,NA,NA,NA,NA,NA,"",NA,"",NA,NA,NA,NA,NA,NA,NA,"","","",NA,"",NA,NA,NA,NA,NA,NA,NA,"",NA,"1"
"",NA,"",NA,"",NA,NA,NA,NA,NA,NA,NA,"","",1,1,"2024-08-22_15h54.19.252","IAT(Formal)","2021.2.3","Win32",60.24096386,"",NA,"",NA,NA,NA,NA,NA,NA,NA,"","","",NA,"e",1,0.5498,NA,NA,NA,NA,NA,"我的","e","",NA,0,24,24,61,1,"",NA,"",NA,NA,NA,NA,NA,NA,NA,"",NA,"",NA,NA,NA,NA,NA,NA,NA,"","","",NA,"",NA,NA,NA,NA,NA,NA,NA,"",NA,"1"
"",NA,"",NA,"",NA,NA,NA,NA,NA,NA,NA,"","",1,1,"2024-08-22_15h54.19.252","IAT(Formal)","2021.2.3","Win32",60.24096386,"",NA,"",NA,NA,NA,NA,NA,NA,NA,"","","",NA,"i",1,0.8212,NA,NA,NA,NA,NA,"散漫","i","",NA,0,25,25,41,1,"",NA,"",NA,NA,NA,NA,NA,NA,NA,"",NA,"",NA,NA,NA,NA,NA,NA,NA,"","","",NA,"",NA,NA,NA,NA,NA,NA,NA,"",NA,"1"
"",NA,"",NA,"",NA,NA,NA,NA,NA,NA,NA,"","",1,1,"2024-08-22_15h54.19.252","IAT(Formal)","2021.2.3","Win32",60.24096386,"",NA,"",NA,NA,NA,NA,NA,NA,NA,"","","",NA,"i",1,1.0378,NA,NA,NA,NA,NA,"暴躁","i","",NA,0,26,26,44,1,"",NA,"",NA,NA,NA,NA,NA,NA,NA,"",NA,"",NA,NA,NA,NA,NA,NA,NA,"","","",NA,"",NA,NA,NA,NA,NA,NA,NA,"",NA,"1"
"",NA,"",NA,"",NA,NA,NA,NA,NA,NA,NA,"","",1,1,"2024-08-22_15h54.19.252","IAT(Formal)","2021.2.3","Win32",60.24096386,"",NA,"",NA,NA,NA,NA,NA,NA,NA,"","","",NA,"i",0,0.5774,NA,NA,NA,NA,NA,"细腻","e","",NA,0,27,27,25,1,"",NA,"",NA,NA,NA,NA,NA,NA,NA,"",NA,"",NA,NA,NA,NA,NA,NA,NA,"","","",NA,"",NA,NA,NA,NA,NA,NA,NA,"",NA,"1"
"",NA,"",NA,"",NA,NA,NA,NA,NA,NA,NA,"","",1,1,"2024-08-22_15h54.19.252","IAT(Formal)","2021.2.3","Win32",60.24096386,"",NA,"",NA,NA,NA,NA,NA,NA,NA,"","","",NA,"e",1,0.517,NA,NA,NA,NA,NA,"我","e","",NA,0,28,28,60,1,"",NA,"",NA,NA,NA,NA,NA,NA,NA,"",NA,"",NA,NA,NA,NA,NA,NA,NA,"","","",NA,"",NA,NA,NA,NA,NA,NA,NA,"",NA,"1"
"",NA,"",NA,"",NA,NA,NA,NA,NA,NA,NA,"","",1,1,"2024-08-22_15h54.19.252","IAT(Formal)","2021.2.3","Win32",60.24096386,"",NA,"",NA,NA,NA,NA,NA,NA,NA,"","","",NA,"e",1,0.9504,NA,NA,NA,NA,NA,"俺","e","",NA,0,29,29,54,1,"",NA,"",NA,NA,NA,NA,NA,NA,NA,"",NA,"",NA,NA,NA,NA,NA,NA,NA,"","","",NA,"",NA,NA,NA,NA,NA,NA,NA,"",NA,"1"
"",NA,"",NA,"",NA,NA,NA,NA,NA,NA,NA,"","",1,1,"2024-08-22_15h54.19.252","IAT(Formal)","2021.2.3","Win32",60.24096386,"",NA,"",NA,NA,NA,NA,NA,NA,NA,"","","",NA,"e",1,0.5673,NA,NA,NA,NA,NA,"勤奋","e","",NA,0,30,30,18,1,"",NA,"",NA,NA,NA,NA,NA,NA,NA,"",NA,"",NA,NA,NA,NA,NA,NA,NA,"","","",NA,"",NA,NA,NA,NA,NA,NA,NA,"",NA,"1"
"",NA,"",NA,"",NA,NA,NA,NA,NA,NA,NA,"","",1,1,"2024-08-22_15h54.19.252","IAT(Formal)","2021.2.3","Win32",60.24096386,"",NA,"",NA,NA,NA,NA,NA,NA,NA,"","","",NA,"e",1,0.4506,NA,NA,NA,NA,NA,"俺","e","",NA,0,31,31,4,1,"",NA,"",NA,NA,NA,NA,NA,NA,NA,"",NA,"",NA,NA,NA,NA,NA,NA,NA,"","","",NA,"",NA,NA,NA,NA,NA,NA,NA,"",NA,"1"
"",NA,"",NA,"",NA,NA,NA,NA,NA,NA,NA,"","",1,1,"2024-08-22_15h54.19.252","IAT(Formal)","2021.2.3","Win32",60.24096386,"",NA,"",NA,NA,NA,NA,NA,NA,NA,"","","",NA,"e",0,0.5875,NA,NA,NA,NA,NA,"鲁莽","i","",NA,0,32,32,38,1,"",NA,"",NA,NA,NA,NA,NA,NA,NA,"",NA,"",NA,NA,NA,NA,NA,NA,NA,"","","",NA,"",NA,NA,NA,NA,NA,NA,NA,"",NA,"1"
"",NA,"",NA,"",NA,NA,NA,NA,NA,NA,NA,"","",1,1,"2024-08-22_15h54.19.252","IAT(Formal)","2021.2.3","Win32",60.24096386,"",NA,"",NA,NA,NA,NA,NA,NA,NA,"","","",NA,"e",1,0.3677,NA,NA,NA,NA,NA,"自己","e","",NA,0,33,33,3,1,"",NA,"",NA,NA,NA,NA,NA,NA,NA,"",NA,"",NA,NA,NA,NA,NA,NA,NA,"","","",NA,"",NA,NA,NA,NA,NA,NA,NA,"",NA,"1"
"",NA,"",NA,"",NA,NA,NA,NA,NA,NA,NA,"","",1,1,"2024-08-22_15h54.19.252","IAT(Formal)","2021.2.3","Win32",60.24096386,"",NA,"",NA,NA,NA,NA,NA,NA,NA,"","","",NA,"e",1,0.5371,NA,NA,NA,NA,NA,"杰出","e","",NA,0,34,34,13,1,"",NA,"",NA,NA,NA,NA,NA,NA,NA,"",NA,"",NA,NA,NA,NA,NA,NA,NA,"","","",NA,"",NA,NA,NA,NA,NA,NA,NA,"",NA,"1"
"",NA,"",NA,"",NA,NA,NA,NA,NA,NA,NA,"","",1,1,"2024-08-22_15h54.19.252","IAT(Formal)","2021.2.3","Win32",60.24096386,"",NA,"",NA,NA,NA,NA,NA,NA,NA,"","","",NA,"i",1,0.5252,NA,NA,NA,NA,NA,"他人","i","",NA,0,35,35,68,1,"",NA,"",NA,NA,NA,NA,NA,NA,NA,"",NA,"",NA,NA,NA,NA,NA,NA,NA,"","","",NA,"",NA,NA,NA,NA,NA,NA,NA,"",NA,"1"
"",NA,"",NA,"",NA,NA,NA,NA,NA,NA,NA,"","",1,1,"2024-08-22_15h54.19.252","IAT(Formal)","2021.2.3","Win32",60.24096386,"",NA,"",NA,NA,NA,NA,NA,NA,NA,"","","",NA,"e",1,0.4853,NA,NA,NA,NA,NA,"俺","e","",NA,0,36,36,74,1,"",NA,"",NA,NA,NA,NA,NA,NA,NA,"",NA,"",NA,NA,NA,NA,NA,NA,NA,"","","",NA,"",NA,NA,NA,NA,NA,NA,NA,"",NA,"1"
"",NA,"",NA,"",NA,NA,NA,NA,NA,NA,NA,"","",1,1,"2024-08-22_15h54.19.252","IAT(Formal)","2021.2.3","Win32",60.24096386,"",NA,"",NA,NA,NA,NA,NA,NA,NA,"","","",NA,"i",1,0.4873,NA,NA,NA,NA,NA,"他","i","",NA,0,37,37,5,1,"",NA,"",NA,NA,NA,NA,NA,NA,NA,"",NA,"",NA,NA,NA,NA,NA,NA,NA,"","","",NA,"",NA,NA,NA,NA,NA,NA,NA,"",NA,"1"
"",NA,"",NA,"",NA,NA,NA,NA,NA,NA,NA,"","",1,1,"2024-08-22_15h54.19.252","IAT(Formal)","2021.2.3","Win32",60.24096386,"",NA,"",NA,NA,NA,NA,NA,NA,NA,"","","",NA,"i",1,0.6231,NA,NA,NA,NA,NA,"悲观","i","",NA,0,38,38,34,1,"",NA,"",NA,NA,NA,NA,NA,NA,NA,"",NA,"",NA,NA,NA,NA,NA,NA,NA,"","","",NA,"",NA,NA,NA,NA,NA,NA,NA,"",NA,"1"
"",NA,"",NA,"",NA,NA,NA,NA,NA,NA,NA,"","",1,1,"2024-08-22_15h54.19.252","IAT(Formal)","2021.2.3","Win32",60.24096386,"",NA,"",NA,NA,NA,NA,NA,NA,NA,"","","",NA,"i",1,0.5342,NA,NA,NA,NA,NA,"消极","i","",NA,0,39,39,35,1,"",NA,"",NA,NA,NA,NA,NA,NA,NA,"",NA,"",NA,NA,NA,NA,NA,NA,NA,"","","",NA,"",NA,NA,NA,NA,NA,NA,NA,"",NA,"1"
"",NA,"",NA,"",NA,NA,NA,NA,NA,NA,NA,"","",1,1,"2024-08-22_15h54.19.252","IAT(Formal)","2021.2.3","Win32",60.24096386,"",NA,"",NA,NA,NA,NA,NA,NA,NA,"","","",NA,"e",1,0.6233,NA,NA,NA,NA,NA,"勇敢","e","",NA,0,40,40,17,1,"",NA,"",NA,NA,NA,NA,NA,NA,NA,"",NA,"",NA,NA,NA,NA,NA,NA,NA,"","","",NA,"",NA,NA,NA,NA,NA,NA,NA,"",NA,"1"
"",NA,"",NA,"",NA,NA,NA,NA,NA,NA,NA,"","",1,1,"2024-08-22_15h54.19.252","IAT(Formal)","2021.2.3","Win32",60.24096386,"",NA,"",NA,NA,NA,NA,NA,NA,NA,"","","",NA,"i",1,1.3936,NA,NA,NA,NA,NA,"自私","i","",NA,0,41,41,43,1,"",NA,"",NA,NA,NA,NA,NA,NA,NA,"",NA,"",NA,NA,NA,NA,NA,NA,NA,"","","",NA,"",NA,NA,NA,NA,NA,NA,NA,"",NA,"1"
"",NA,"",NA,"",NA,NA,NA,NA,NA,NA,NA,"","",1,1,"2024-08-22_15h54.19.252","IAT(Formal)","2021.2.3","Win32",60.24096386,"",NA,"",NA,NA,NA,NA,NA,NA,NA,"","","",NA,"i",1,0.4508,NA,NA,NA,NA,NA,"凶狠","i","",NA,0,42,42,42,1,"",NA,"",NA,NA,NA,NA,NA,NA,NA,"",NA,"",NA,NA,NA,NA,NA,NA,NA,"","","",NA,"",NA,NA,NA,NA,NA,NA,NA,"",NA,"1"
"",NA,"",NA,"",NA,NA,NA,NA,NA,NA,NA,"","",1,1,"2024-08-22_15h54.19.252","IAT(Formal)","2021.2.3","Win32",60.24096386,"",NA,"",NA,NA,NA,NA,NA,NA,NA,"","","",NA,"e",1,0.4277,NA,NA,NA,NA,NA,"我","e","",NA,0,43,43,0,1,"",NA,"",NA,NA,NA,NA,NA,NA,NA,"",NA,"",NA,NA,NA,NA,NA,NA,NA,"","","",NA,"",NA,NA,NA,NA,NA,NA,NA,"",NA,"1"
"",NA,"",NA,"",NA,NA,NA,NA,NA,NA,NA,"","",1,1,"2024-08-22_15h54.19.252","IAT(Formal)","2021.2.3","Win32",60.24096386,"",NA,"",NA,NA,NA,NA,NA,NA,NA,"","","",NA,"e",1,0.3535,NA,NA,NA,NA,NA,"我","e","",NA,0,44,44,50,1,"",NA,"",NA,NA,NA,NA,NA,NA,NA,"",NA,"",NA,NA,NA,NA,NA,NA,NA,"","","",NA,"",NA,NA,NA,NA,NA,NA,NA,"",NA,"1"
"",NA,"",NA,"",NA,NA,NA,NA,NA,NA,NA,"","",1,1,"2024-08-22_15h54.19.252","IAT(Formal)","2021.2.3","Win32",60.24096386,"",NA,"",NA,NA,NA,NA,NA,NA,NA,"","","",NA,"e",1,0.4272,NA,NA,NA,NA,NA,"认真","e","",NA,0,45,45,20,1,"",NA,"",NA,NA,NA,NA,NA,NA,NA,"",NA,"",NA,NA,NA,NA,NA,NA,NA,"","","",NA,"",NA,NA,NA,NA,NA,NA,NA,"",NA,"1"
"",NA,"",NA,"",NA,NA,NA,NA,NA,NA,NA,"","",1,1,"2024-08-22_15h54.19.252","IAT(Formal)","2021.2.3","Win32",60.24096386,"",NA,"",NA,NA,NA,NA,NA,NA,NA,"","","",NA,"i",1,0.4755,NA,NA,NA,NA,NA,"虚伪","i","",NA,0,46,46,31,1,"",NA,"",NA,NA,NA,NA,NA,NA,NA,"",NA,"",NA,NA,NA,NA,NA,NA,NA,"","","",NA,"",NA,NA,NA,NA,NA,NA,NA,"",NA,"1"
"",NA,"",NA,"",NA,NA,NA,NA,NA,NA,NA,"","",1,1,"2024-08-22_15h54.19.252","IAT(Formal)","2021.2.3","Win32",60.24096386,"",NA,"",NA,NA,NA,NA,NA,NA,NA,"","","",NA,"i",1,1.0843,NA,NA,NA,NA,NA,"他的","i","",NA,0,47,47,57,1,"",NA,"",NA,NA,NA,NA,NA,NA,NA,"",NA,"",NA,NA,NA,NA,NA,NA,NA,"","","",NA,"",NA,NA,NA,NA,NA,NA,NA,"",NA,"1"
"",NA,"",NA,"",NA,NA,NA,NA,NA,NA,NA,"","",1,1,"2024-08-22_15h54.19.252","IAT(Formal)","2021.2.3","Win32",60.24096386,"",NA,"",NA,NA,NA,NA,NA,NA,NA,"","","",NA,"i",1,0.3719,NA,NA,NA,NA,NA,"他人","i","",NA,0,48,48,58,1,"",NA,"",NA,NA,NA,NA,NA,NA,NA,"",NA,"",NA,NA,NA,NA,NA,NA,NA,"","","",NA,"",NA,NA,NA,NA,NA,NA,NA,"",NA,"1"
"",NA,"",NA,"",NA,NA,NA,NA,NA,NA,NA,"","",1,1,"2024-08-22_15h54.19.252","IAT(Formal)","2021.2.3","Win32",60.24096386,"",NA,"",NA,NA,NA,NA,NA,NA,NA,"","","",NA,"i",1,0.5879,NA,NA,NA,NA,NA,"轻率","i","",NA,0,49,49,48,1,"",NA,"",NA,NA,NA,NA,NA,NA,NA,"",NA,"",NA,NA,NA,NA,NA,NA,NA,"","","",NA,"",NA,NA,NA,NA,NA,NA,NA,"",NA,"1"
"",NA,"",NA,"",NA,NA,NA,NA,NA,NA,NA,"","",1,1,"2024-08-22_15h54.19.252","IAT(Formal)","2021.2.3","Win32",60.24096386,"",NA,"",NA,NA,NA,NA,NA,NA,NA,"","","",NA,"i",1,0.3564,NA,NA,NA,NA,NA,"刻薄","i","",NA,0,50,50,33,1,"",NA,"",NA,NA,NA,NA,NA,NA,NA,"",NA,"",NA,NA,NA,NA,NA,NA,NA,"","","",NA,"",NA,NA,NA,NA,NA,NA,NA,"",NA,"1"
"",NA,"",NA,"",NA,NA,NA,NA,NA,NA,NA,"","",1,1,"2024-08-22_15h54.19.252","IAT(Formal)","2021.2.3","Win32",60.24096386,"",NA,"",NA,NA,NA,NA,NA,NA,NA,"","","",NA,"e",1,0.4374,NA,NA,NA,NA,NA,"诚实","e","",NA,0,51,51,15,1,"",NA,"",NA,NA,NA,NA,NA,NA,NA,"",NA,"",NA,NA,NA,NA,NA,NA,NA,"","","",NA,"",NA,NA,NA,NA,NA,NA,NA,"",NA,"1"
"",NA,"",NA,"",NA,NA,NA,NA,NA,NA,NA,"","",1,1,"2024-08-22_15h54.19.252","IAT(Formal)","2021.2.3","Win32",60.24096386,"",NA,"",NA,NA,NA,NA,NA,NA,NA,"","","",NA,"e",0,0.4057,NA,NA,NA,NA,NA,"他的","i","",NA,0,52,52,77,1,"",NA,"",NA,NA,NA,NA,NA,NA,NA,"",NA,"",NA,NA,NA,NA,NA,NA,NA,"","","",NA,"",NA,NA,NA,NA,NA,NA,NA,"",NA,"1"
"",NA,"",NA,"",NA,NA,NA,NA,NA,NA,NA,"","",1,1,"2024-08-22_15h54.19.252","IAT(Formal)","2021.2.3","Win32",60.24096386,"",NA,"",NA,NA,NA,NA,NA,NA,NA,"","","",NA,"e",1,0.4569,NA,NA,NA,NA,NA,"我们","e","",NA,0,53,53,2,1,"",NA,"",NA,NA,NA,NA,NA,NA,NA,"",NA,"",NA,NA,NA,NA,NA,NA,NA,"","","",NA,"",NA,NA,NA,NA,NA,NA,NA,"",NA,"1"
"",NA,"",NA,"",NA,NA,NA,NA,NA,NA,NA,"","",1,1,"2024-08-22_15h54.19.252","IAT(Formal)","2021.2.3","Win32",60.24096386,"",NA,"",NA,NA,NA,NA,NA,NA,NA,"","","",NA,"i",1,0.5044,NA,NA,NA,NA,NA,"其他","i","",NA,0,54,54,59,1,"",NA,"",NA,NA,NA,NA,NA,NA,NA,"",NA,"",NA,NA,NA,NA,NA,NA,NA,"","","",NA,"",NA,NA,NA,NA,NA,NA,NA,"",NA,"1"
"",NA,"",NA,"",NA,NA,NA,NA,NA,NA,NA,"","",1,1,"2024-08-22_15h54.19.252","IAT(Formal)","2021.2.3","Win32",60.24096386,"",NA,"",NA,NA,NA,NA,NA,NA,NA,"","","",NA,"e",1,0.5365,NA,NA,NA,NA,NA,"崇高","e","",NA,0,55,55,11,1,"",NA,"",NA,NA,NA,NA,NA,NA,NA,"",NA,"",NA,NA,NA,NA,NA,NA,NA,"","","",NA,"",NA,NA,NA,NA,NA,NA,NA,"",NA,"1"
"",NA,"",NA,"",NA,NA,NA,NA,NA,NA,NA,"","",1,1,"2024-08-22_15h54.19.252","IAT(Formal)","2021.2.3","Win32",60.24096386,"",NA,"",NA,NA,NA,NA,NA,NA,NA,"","","",NA,"e",1,0.3852,NA,NA,NA,NA,NA,"正直","e","",NA,0,56,56,16,1,"",NA,"",NA,NA,NA,NA,NA,NA,NA,"",NA,"",NA,NA,NA,NA,NA,NA,NA,"","","",NA,"",NA,NA,NA,NA,NA,NA,NA,"",NA,"1"
"",NA,"",NA,"",NA,NA,NA,NA,NA,NA,NA,"","",1,1,"2024-08-22_15h54.19.252","IAT(Formal)","2021.2.3","Win32",60.24096386,"",NA,"",NA,NA,NA,NA,NA,NA,NA,"","","",NA,"e",0,0.3578,NA,NA,NA,NA,NA,"固执","i","",NA,0,57,57,47,1,"",NA,"",NA,NA,NA,NA,NA,NA,NA,"",NA,"",NA,NA,NA,NA,NA,NA,NA,"","","",NA,"",NA,NA,NA,NA,NA,NA,NA,"",NA,"1"
"",NA,"",NA,"",NA,NA,NA,NA,NA,NA,NA,"","",1,1,"2024-08-22_15h54.19.252","IAT(Formal)","2021.2.3","Win32",60.24096386,"",NA,"",NA,NA,NA,NA,NA,NA,NA,"","","",NA,"e",1,0.6,NA,NA,NA,NA,NA,"朴实","e","",NA,0,58,58,24,1,"",NA,"",NA,NA,NA,NA,NA,NA,NA,"",NA,"",NA,NA,NA,NA,NA,NA,NA,"","","",NA,"",NA,NA,NA,NA,NA,NA,NA,"",NA,"1"
"",NA,"",NA,"",NA,NA,NA,NA,NA,NA,NA,"","",1,1,"2024-08-22_15h54.19.252","IAT(Formal)","2021.2.3","Win32",60.24096386,"",NA,"",NA,NA,NA,NA,NA,NA,NA,"","","",NA,"e",1,0.4625,NA,NA,NA,NA,NA,"自己","e","",NA,0,59,59,73,1,"",NA,"",NA,NA,NA,NA,NA,NA,NA,"",NA,"",NA,NA,NA,NA,NA,NA,NA,"","","",NA,"",NA,NA,NA,NA,NA,NA,NA,"",NA,"1"
"",NA,"",NA,"",NA,NA,NA,NA,NA,NA,NA,"","",1,1,"2024-08-22_15h54.19.252","IAT(Formal)","2021.2.3","Win32",60.24096386,"",NA,"",NA,NA,NA,NA,NA,NA,NA,"","","",NA,"i",1,0.5005,NA,NA,NA,NA,NA,"自卑","i","",NA,0,60,60,36,1,"",NA,"",NA,NA,NA,NA,NA,NA,NA,"",NA,"",NA,NA,NA,NA,NA,NA,NA,"","","",NA,"",NA,NA,NA,NA,NA,NA,NA,"",NA,"1"
"",NA,"",NA,"",NA,NA,NA,NA,NA,NA,NA,"","",1,1,"2024-08-22_15h54.19.252","IAT(Formal)","2021.2.3","Win32",60.24096386,"",NA,"",NA,NA,NA,NA,NA,NA,NA,"","","",NA,"i",1,1.1553,NA,NA,NA,NA,NA,"傲慢","i","",NA,0,61,61,37,1,"",NA,"",NA,NA,NA,NA,NA,NA,NA,"",NA,"",NA,NA,NA,NA,NA,NA,NA,"","","",NA,"",NA,NA,NA,NA,NA,NA,NA,"",NA,"1"
"",NA,"",NA,"",NA,NA,NA,NA,NA,NA,NA,"","",1,1,"2024-08-22_15h54.19.252","IAT(Formal)","2021.2.3","Win32",60.24096386,"",NA,"",NA,NA,NA,NA,NA,NA,NA,"","","",NA,"e",1,0.5341,NA,NA,NA,NA,NA,"冷静","e","",NA,0,62,62,26,1,"",NA,"",NA,NA,NA,NA,NA,NA,NA,"",NA,"",NA,NA,NA,NA,NA,NA,NA,"","","",NA,"",NA,NA,NA,NA,NA,NA,NA,"",NA,"1"
"",NA,"",NA,"",NA,NA,NA,NA,NA,NA,NA,"","",1,1,"2024-08-22_15h54.19.252","IAT(Formal)","2021.2.3","Win32",60.24096386,"",NA,"",NA,NA,NA,NA,NA,NA,NA,"","","",NA,"i",1,0.4442,NA,NA,NA,NA,NA,"他的","i","",NA,0,63,63,7,1,"",NA,"",NA,NA,NA,NA,NA,NA,NA,"",NA,"",NA,NA,NA,NA,NA,NA,NA,"","","",NA,"",NA,NA,NA,NA,NA,NA,NA,"",NA,"1"
"",NA,"",NA,"",NA,NA,NA,NA,NA,NA,NA,"","",1,1,"2024-08-22_15h54.19.252","IAT(Formal)","2021.2.3","Win32",60.24096386,"",NA,"",NA,NA,NA,NA,NA,NA,NA,"","","",NA,"e",1,0.6039,NA,NA,NA,NA,NA,"优秀","e","",NA,0,64,64,10,1,"",NA,"",NA,NA,NA,NA,NA,NA,NA,"",NA,"",NA,NA,NA,NA,NA,NA,NA,"","","",NA,"",NA,NA,NA,NA,NA,NA,NA,"",NA,"1"
"",NA,"",NA,"",NA,NA,NA,NA,NA,NA,NA,"","",1,1,"2024-08-22_15h54.19.252","IAT(Formal)","2021.2.3","Win32",60.24096386,"",NA,"",NA,NA,NA,NA,NA,NA,NA,"","","",NA,"i",1,0.4519,NA,NA,NA,NA,NA,"他","i","",NA,0,65,65,55,1,"",NA,"",NA,NA,NA,NA,NA,NA,NA,"",NA,"",NA,NA,NA,NA,NA,NA,NA,"","","",NA,"",NA,NA,NA,NA,NA,NA,NA,"",NA,"1"
"",NA,"",NA,"",NA,NA,NA,NA,NA,NA,NA,"","",1,1,"2024-08-22_15h54.19.252","IAT(Formal)","2021.2.3","Win32",60.24096386,"",NA,"",NA,NA,NA,NA,NA,NA,NA,"","","",NA,"e",1,0.4438,NA,NA,NA,NA,NA,"热情","e","",NA,0,66,66,27,1,"",NA,"",NA,NA,NA,NA,NA,NA,NA,"",NA,"",NA,NA,NA,NA,NA,NA,NA,"","","",NA,"",NA,NA,NA,NA,NA,NA,NA,"",NA,"1"
"",NA,"",NA,"",NA,NA,NA,NA,NA,NA,NA,"","",1,1,"2024-08-22_15h54.19.252","IAT(Formal)","2021.2.3","Win32",60.24096386,"",NA,"",NA,NA,NA,NA,NA,NA,NA,"","","",NA,"e",1,0.6224,NA,NA,NA,NA,NA,"我们","e","",NA,0,67,67,62,1,"",NA,"",NA,NA,NA,NA,NA,NA,NA,"",NA,"",NA,NA,NA,NA,NA,NA,NA,"","","",NA,"",NA,NA,NA,NA,NA,NA,NA,"",NA,"1"
"",NA,"",NA,"",NA,NA,NA,NA,NA,NA,NA,"","",1,1,"2024-08-22_15h54.19.252","IAT(Formal)","2021.2.3","Win32",60.24096386,"",NA,"",NA,NA,NA,NA,NA,NA,NA,"","","",NA,"i",1,0.4674,NA,NA,NA,NA,NA,"他们","i","",NA,0,68,68,66,1,"",NA,"",NA,NA,NA,NA,NA,NA,NA,"",NA,"",NA,NA,NA,NA,NA,NA,NA,"","","",NA,"",NA,NA,NA,NA,NA,NA,NA,"",NA,"1"
"",NA,"",NA,"",NA,NA,NA,NA,NA,NA,NA,"","",1,1,"2024-08-22_15h54.19.252","IAT(Formal)","2021.2.3","Win32",60.24096386,"",NA,"",NA,NA,NA,NA,NA,NA,NA,"","","",NA,"i",1,0.5176,NA,NA,NA,NA,NA,"冒失","i","",NA,0,69,69,39,1,"",NA,"",NA,NA,NA,NA,NA,NA,NA,"",NA,"",NA,NA,NA,NA,NA,NA,NA,"","","",NA,"",NA,NA,NA,NA,NA,NA,NA,"",NA,"1"
"",NA,"",NA,"",NA,NA,NA,NA,NA,NA,NA,"","",1,1,"2024-08-22_15h54.19.252","IAT(Formal)","2021.2.3","Win32",60.24096386,"",NA,"",NA,NA,NA,NA,NA,NA,NA,"","","",NA,"i",1,0.535,NA,NA,NA,NA,NA,"他人","i","",NA,0,70,70,8,1,"",NA,"",NA,NA,NA,NA,NA,NA,NA,"",NA,"",NA,NA,NA,NA,NA,NA,NA,"","","",NA,"",NA,NA,NA,NA,NA,NA,NA,"",NA,"1"
"",NA,"",NA,"",NA,NA,NA,NA,NA,NA,NA,"","",1,1,"2024-08-22_15h54.19.252","IAT(Formal)","2021.2.3","Win32",60.24096386,"",NA,"",NA,NA,NA,NA,NA,NA,NA,"","","",NA,"e",1,0.4515,NA,NA,NA,NA,NA,"我的","e","",NA,0,71,71,71,1,"",NA,"",NA,NA,NA,NA,NA,NA,NA,"",NA,"",NA,NA,NA,NA,NA,NA,NA,"","","",NA,"",NA,NA,NA,NA,NA,NA,NA,"",NA,"1"
"",NA,"",NA,"",NA,NA,NA,NA,NA,NA,NA,"","",1,1,"2024-08-22_15h54.19.252","IAT(Formal)","2021.2.3","Win32",60.24096386,"",NA,"",NA,NA,NA,NA,NA,NA,NA,"","","",NA,"e",1,0.4838,NA,NA,NA,NA,NA,"活泼","e","",NA,0,72,72,28,1,"",NA,"",NA,NA,NA,NA,NA,NA,NA,"",NA,"",NA,NA,NA,NA,NA,NA,NA,"","","",NA,"",NA,NA,NA,NA,NA,NA,NA,"",NA,"1"
"",NA,"",NA,"",NA,NA,NA,NA,NA,NA,NA,"","",1,1,"2024-08-22_15h54.19.252","IAT(Formal)","2021.2.3","Win32",60.24096386,"",NA,"",NA,NA,NA,NA,NA,NA,NA,"","","",NA,"i",1,0.4279,NA,NA,NA,NA,NA,"猖狂","i","",NA,0,73,73,45,1,"",NA,"",NA,NA,NA,NA,NA,NA,NA,"",NA,"",NA,NA,NA,NA,NA,NA,NA,"","","",NA,"",NA,NA,NA,NA,NA,NA,NA,"",NA,"1"
"",NA,"",NA,"",NA,NA,NA,NA,NA,NA,NA,"","",1,1,"2024-08-22_15h54.19.252","IAT(Formal)","2021.2.3","Win32",60.24096386,"",NA,"",NA,NA,NA,NA,NA,NA,NA,"","","",NA,"e",1,0.5169,NA,NA,NA,NA,NA,"稳重","e","",NA,0,74,74,21,1,"",NA,"",NA,NA,NA,NA,NA,NA,NA,"",NA,"",NA,NA,NA,NA,NA,NA,NA,"","","",NA,"",NA,NA,NA,NA,NA,NA,NA,"",NA,"1"
"",NA,"",NA,"",NA,NA,NA,NA,NA,NA,NA,"","",1,1,"2024-08-22_15h54.19.252","IAT(Formal)","2021.2.3","Win32",60.24096386,"",NA,"",NA,NA,NA,NA,NA,NA,NA,"","","",NA,"e",1,0.4178,NA,NA,NA,NA,NA,"公正","e","",NA,0,75,75,23,1,"",NA,"",NA,NA,NA,NA,NA,NA,NA,"",NA,"",NA,NA,NA,NA,NA,NA,NA,"","","",NA,"",NA,NA,NA,NA,NA,NA,NA,"",NA,"1"
"",NA,"",NA,"",NA,NA,NA,NA,NA,NA,NA,"","",1,1,"2024-08-22_15h54.19.252","IAT(Formal)","2021.2.3","Win32",60.24096386,"",NA,"",NA,NA,NA,NA,NA,NA,NA,"","","",NA,"e",1,0.4129,NA,NA,NA,NA,NA,"自己","e","",NA,0,76,76,53,1,"",NA,"",NA,NA,NA,NA,NA,NA,NA,"",NA,"",NA,NA,NA,NA,NA,NA,NA,"","","",NA,"",NA,NA,NA,NA,NA,NA,NA,"",NA,"1"
"",NA,"",NA,"",NA,NA,NA,NA,NA,NA,NA,"","",1,1,"2024-08-22_15h54.19.252","IAT(Formal)","2021.2.3","Win32",60.24096386,"",NA,"",NA,NA,NA,NA,NA,NA,NA,"","","",NA,"i",1,0.4539,NA,NA,NA,NA,NA,"野蛮","i","",NA,0,77,77,46,1,"",NA,"",NA,NA,NA,NA,NA,NA,NA,"",NA,"",NA,NA,NA,NA,NA,NA,NA,"","","",NA,"",NA,NA,NA,NA,NA,NA,NA,"",NA,"1"
"",NA,"",NA,"",NA,NA,NA,NA,NA,NA,NA,"","",1,1,"2024-08-22_15h54.19.252","IAT(Formal)","2021.2.3","Win32",60.24096386,"",NA,"",NA,NA,NA,NA,NA,NA,NA,"","","",NA,"i",1,0.5514,NA,NA,NA,NA,NA,"其他","i","",NA,0,78,78,9,1,"",NA,"",NA,NA,NA,NA,NA,NA,NA,"",NA,"",NA,NA,NA,NA,NA,NA,NA,"","","",NA,"",NA,NA,NA,NA,NA,NA,NA,"",NA,"1"
"",NA,"",NA,"",NA,NA,NA,NA,NA,NA,NA,"","",1,1,"2024-08-22_15h54.19.252","IAT(Formal)","2021.2.3","Win32",60.24096386,"",NA,"",NA,NA,NA,NA,NA,NA,NA,"","","",NA,"e",1,0.479,NA,NA,NA,NA,NA,"我们","e","",NA,0,79,79,72,1,"",NA,"",NA,NA,NA,NA,NA,NA,NA,"",NA,"",NA,NA,NA,NA,NA,NA,NA,"","","",NA,"",NA,NA,NA,NA,NA,NA,NA,"",NA,"1"
"",NA,"",NA,"",NA,NA,NA,NA,NA,NA,NA,"","",1,1,"2024-08-22_15h54.19.252","IAT(Formal)","2021.2.3","Win32",60.24096386,"",NA,"",NA,NA,NA,NA,NA,NA,NA,"","","",NA,"e",1,0.5133,NA,NA,NA,NA,NA,"俺","e","",NA,1,0,80,54,1,"",NA,"",NA,NA,NA,NA,NA,NA,NA,"",NA,"",NA,NA,NA,NA,NA,NA,NA,"","","",NA,"",NA,NA,NA,NA,NA,NA,NA,"",NA,"1"
"",NA,"",NA,"",NA,NA,NA,NA,NA,NA,NA,"","",1,1,"2024-08-22_15h54.19.252","IAT(Formal)","2021.2.3","Win32",60.24096386,"",NA,"",NA,NA,NA,NA,NA,NA,NA,"","","",NA,"e",1,0.6365,NA,NA,NA,NA,NA,"崇高","e","",NA,1,1,81,11,1,"",NA,"",NA,NA,NA,NA,NA,NA,NA,"",NA,"",NA,NA,NA,NA,NA,NA,NA,"","","",NA,"",NA,NA,NA,NA,NA,NA,NA,"",NA,"1"
"",NA,"",NA,"",NA,NA,NA,NA,NA,NA,NA,"","",1,1,"2024-08-22_15h54.19.252","IAT(Formal)","2021.2.3","Win32",60.24096386,"",NA,"",NA,NA,NA,NA,NA,NA,NA,"","","",NA,"i",1,0.868,NA,NA,NA,NA,NA,"冒失","i","",NA,1,2,82,39,1,"",NA,"",NA,NA,NA,NA,NA,NA,NA,"",NA,"",NA,NA,NA,NA,NA,NA,NA,"","","",NA,"",NA,NA,NA,NA,NA,NA,NA,"",NA,"1"
"",NA,"",NA,"",NA,NA,NA,NA,NA,NA,NA,"","",1,1,"2024-08-22_15h54.19.252","IAT(Formal)","2021.2.3","Win32",60.24096386,"",NA,"",NA,NA,NA,NA,NA,NA,NA,"","","",NA,"e",1,0.5004,NA,NA,NA,NA,NA,"热情","e","",NA,1,3,83,27,1,"",NA,"",NA,NA,NA,NA,NA,NA,NA,"",NA,"",NA,NA,NA,NA,NA,NA,NA,"","","",NA,"",NA,NA,NA,NA,NA,NA,NA,"",NA,"1"
"",NA,"",NA,"",NA,NA,NA,NA,NA,NA,NA,"","",1,1,"2024-08-22_15h54.19.252","IAT(Formal)","2021.2.3","Win32",60.24096386,"",NA,"",NA,NA,NA,NA,NA,NA,NA,"","","",NA,"i",1,0.5021,NA,NA,NA,NA,NA,"他","i","",NA,1,4,84,5,1,"",NA,"",NA,NA,NA,NA,NA,NA,NA,"",NA,"",NA,NA,NA,NA,NA,NA,NA,"","","",NA,"",NA,NA,NA,NA,NA,NA,NA,"",NA,"1"
"",NA,"",NA,"",NA,NA,NA,NA,NA,NA,NA,"","",1,1,"2024-08-22_15h54.19.252","IAT(Formal)","2021.2.3","Win32",60.24096386,"",NA,"",NA,NA,NA,NA,NA,NA,NA,"","","",NA,"i",1,0.7303,NA,NA,NA,NA,NA,"悲观","i","",NA,1,5,85,34,1,"",NA,"",NA,NA,NA,NA,NA,NA,NA,"",NA,"",NA,NA,NA,NA,NA,NA,NA,"","","",NA,"",NA,NA,NA,NA,NA,NA,NA,"",NA,"1"
"",NA,"",NA,"",NA,NA,NA,NA,NA,NA,NA,"","",1,1,"2024-08-22_15h54.19.252","IAT(Formal)","2021.2.3","Win32",60.24096386,"",NA,"",NA,NA,NA,NA,NA,NA,NA,"","","",NA,"i",1,0.3597,NA,NA,NA,NA,NA,"刻薄","i","",NA,1,6,86,33,1,"",NA,"",NA,NA,NA,NA,NA,NA,NA,"",NA,"",NA,NA,NA,NA,NA,NA,NA,"","","",NA,"",NA,NA,NA,NA,NA,NA,NA,"",NA,"1"
"",NA,"",NA,"",NA,NA,NA,NA,NA,NA,NA,"","",1,1,"2024-08-22_15h54.19.252","IAT(Formal)","2021.2.3","Win32",60.24096386,"",NA,"",NA,NA,NA,NA,NA,NA,NA,"","","",NA,"e",1,0.3624,NA,NA,NA,NA,NA,"我","e","",NA,1,7,87,50,1,"",NA,"",NA,NA,NA,NA,NA,NA,NA,"",NA,"",NA,NA,NA,NA,NA,NA,NA,"","","",NA,"",NA,NA,NA,NA,NA,NA,NA,"",NA,"1"
"",NA,"",NA,"",NA,NA,NA,NA,NA,NA,NA,"","",1,1,"2024-08-22_15h54.19.252","IAT(Formal)","2021.2.3","Win32",60.24096386,"",NA,"",NA,NA,NA,NA,NA,NA,NA,"","","",NA,"i",1,0.4581,NA,NA,NA,NA,NA,"傲慢","i","",NA,1,8,88,37,1,"",NA,"",NA,NA,NA,NA,NA,NA,NA,"",NA,"",NA,NA,NA,NA,NA,NA,NA,"","","",NA,"",NA,NA,NA,NA,NA,NA,NA,"",NA,"1"
"",NA,"",NA,"",NA,NA,NA,NA,NA,NA,NA,"","",1,1,"2024-08-22_15h54.19.252","IAT(Formal)","2021.2.3","Win32",60.24096386,"",NA,"",NA,NA,NA,NA,NA,NA,NA,"","","",NA,"i",1,0.5837,NA,NA,NA,NA,NA,"他们","i","",NA,1,9,89,66,1,"",NA,"",NA,NA,NA,NA,NA,NA,NA,"",NA,"",NA,NA,NA,NA,NA,NA,NA,"","","",NA,"",NA,NA,NA,NA,NA,NA,NA,"",NA,"1"
"",NA,"",NA,"",NA,NA,NA,NA,NA,NA,NA,"","",1,1,"2024-08-22_15h54.19.252","IAT(Formal)","2021.2.3","Win32",60.24096386,"",NA,"",NA,NA,NA,NA,NA,NA,NA,"","","",NA,"i",1,0.8168,NA,NA,NA,NA,NA,"他的","i","",NA,1,10,90,7,1,"",NA,"",NA,NA,NA,NA,NA,NA,NA,"",NA,"",NA,NA,NA,NA,NA,NA,NA,"","","",NA,"",NA,NA,NA,NA,NA,NA,NA,"",NA,"1"
"",NA,"",NA,"",NA,NA,NA,NA,NA,NA,NA,"","",1,1,"2024-08-22_15h54.19.252","IAT(Formal)","2021.2.3","Win32",60.24096386,"",NA,"",NA,NA,NA,NA,NA,NA,NA,"","","",NA,"e",1,0.4162,NA,NA,NA,NA,NA,"我们","e","",NA,1,11,91,62,1,"",NA,"",NA,NA,NA,NA,NA,NA,NA,"",NA,"",NA,NA,NA,NA,NA,NA,NA,"","","",NA,"",NA,NA,NA,NA,NA,NA,NA,"",NA,"1"
"",NA,"",NA,"",NA,NA,NA,NA,NA,NA,NA,"","",1,1,"2024-08-22_15h54.19.252","IAT(Formal)","2021.2.3","Win32",60.24096386,"",NA,"",NA,NA,NA,NA,NA,NA,NA,"","","",NA,"e",1,0.4848,NA,NA,NA,NA,NA,"认真","e","",NA,1,12,92,20,1,"",NA,"",NA,NA,NA,NA,NA,NA,NA,"",NA,"",NA,NA,NA,NA,NA,NA,NA,"","","",NA,"",NA,NA,NA,NA,NA,NA,NA,"",NA,"1"
"",NA,"",NA,"",NA,NA,NA,NA,NA,NA,NA,"","",1,1,"2024-08-22_15h54.19.252","IAT(Formal)","2021.2.3","Win32",60.24096386,"",NA,"",NA,NA,NA,NA,NA,NA,NA,"","","",NA,"i",1,0.3844,NA,NA,NA,NA,NA,"下贱","i","",NA,1,13,93,49,1,"",NA,"",NA,NA,NA,NA,NA,NA,NA,"",NA,"",NA,NA,NA,NA,NA,NA,NA,"","","",NA,"",NA,NA,NA,NA,NA,NA,NA,"",NA,"1"
"",NA,"",NA,"",NA,NA,NA,NA,NA,NA,NA,"","",1,1,"2024-08-22_15h54.19.252","IAT(Formal)","2021.2.3","Win32",60.24096386,"",NA,"",NA,NA,NA,NA,NA,NA,NA,"","","",NA,"i",1,0.3944,NA,NA,NA,NA,NA,"其他","i","",NA,1,14,94,9,1,"",NA,"",NA,NA,NA,NA,NA,NA,NA,"",NA,"",NA,NA,NA,NA,NA,NA,NA,"","","",NA,"",NA,NA,NA,NA,NA,NA,NA,"",NA,"1"
"",NA,"",NA,"",NA,NA,NA,NA,NA,NA,NA,"","",1,1,"2024-08-22_15h54.19.252","IAT(Formal)","2021.2.3","Win32",60.24096386,"",NA,"",NA,NA,NA,NA,NA,NA,NA,"","","",NA,"i",1,0.5238,NA,NA,NA,NA,NA,"卑鄙","i","",NA,1,15,95,30,1,"",NA,"",NA,NA,NA,NA,NA,NA,NA,"",NA,"",NA,NA,NA,NA,NA,NA,NA,"","","",NA,"",NA,NA,NA,NA,NA,NA,NA,"",NA,"1"
"",NA,"",NA,"",NA,NA,NA,NA,NA,NA,NA,"","",1,1,"2024-08-22_15h54.19.252","IAT(Formal)","2021.2.3","Win32",60.24096386,"",NA,"",NA,NA,NA,NA,NA,NA,NA,"","","",NA,"e",1,0.5442,NA,NA,NA,NA,NA,"诚实","e","",NA,1,16,96,15,1,"",NA,"",NA,NA,NA,NA,NA,NA,NA,"",NA,"",NA,NA,NA,NA,NA,NA,NA,"","","",NA,"",NA,NA,NA,NA,NA,NA,NA,"",NA,"1"
"",NA,"",NA,"",NA,NA,NA,NA,NA,NA,NA,"","",1,1,"2024-08-22_15h54.19.252","IAT(Formal)","2021.2.3","Win32",60.24096386,"",NA,"",NA,NA,NA,NA,NA,NA,NA,"","","",NA,"e",1,0.4006,NA,NA,NA,NA,NA,"我的","e","",NA,1,17,97,61,1,"",NA,"",NA,NA,NA,NA,NA,NA,NA,"",NA,"",NA,NA,NA,NA,NA,NA,NA,"","","",NA,"",NA,NA,NA,NA,NA,NA,NA,"",NA,"1"
"",NA,"",NA,"",NA,NA,NA,NA,NA,NA,NA,"","",1,1,"2024-08-22_15h54.19.252","IAT(Formal)","2021.2.3","Win32",60.24096386,"",NA,"",NA,NA,NA,NA,NA,NA,NA,"","","",NA,"e",1,0.505,NA,NA,NA,NA,NA,"聪明","e","",NA,1,18,98,12,1,"",NA,"",NA,NA,NA,NA,NA,NA,NA,"",NA,"",NA,NA,NA,NA,NA,NA,NA,"","","",NA,"",NA,NA,NA,NA,NA,NA,NA,"",NA,"1"
"",NA,"",NA,"",NA,NA,NA,NA,NA,NA,NA,"","",1,1,"2024-08-22_15h54.19.252","IAT(Formal)","2021.2.3","Win32",60.24096386,"",NA,"",NA,NA,NA,NA,NA,NA,NA,"","","",NA,"i",1,0.4336,NA,NA,NA,NA,NA,"暴躁","i","",NA,1,19,99,44,1,"",NA,"",NA,NA,NA,NA,NA,NA,NA,"",NA,"",NA,NA,NA,NA,NA,NA,NA,"","","",NA,"",NA,NA,NA,NA,NA,NA,NA,"",NA,"1"
"",NA,"",NA,"",NA,NA,NA,NA,NA,NA,NA,"","",1,1,"2024-08-22_15h54.19.252","IAT(Formal)","2021.2.3","Win32",60.24096386,"",NA,"",NA,NA,NA,NA,NA,NA,NA,"","","",NA,"e",1,0.4549,NA,NA,NA,NA,NA,"俺","e","",NA,1,20,100,64,1,"",NA,"",NA,NA,NA,NA,NA,NA,NA,"",NA,"",NA,NA,NA,NA,NA,NA,NA,"","","",NA,"",NA,NA,NA,NA,NA,NA,NA,"",NA,"1"
"",NA,"",NA,"",NA,NA,NA,NA,NA,NA,NA,"","",1,1,"2024-08-22_15h54.19.252","IAT(Formal)","2021.2.3","Win32",60.24096386,"",NA,"",NA,NA,NA,NA,NA,NA,NA,"","","",NA,"e",1,0.3331,NA,NA,NA,NA,NA,"我","e","",NA,1,21,101,0,1,"",NA,"",NA,NA,NA,NA,NA,NA,NA,"",NA,"",NA,NA,NA,NA,NA,NA,NA,"","","",NA,"",NA,NA,NA,NA,NA,NA,NA,"",NA,"1"
"",NA,"",NA,"",NA,NA,NA,NA,NA,NA,NA,"","",1,1,"2024-08-22_15h54.19.252","IAT(Formal)","2021.2.3","Win32",60.24096386,"",NA,"",NA,NA,NA,NA,NA,NA,NA,"","","",NA,"e",1,0.4696,NA,NA,NA,NA,NA,"细腻","e","",NA,1,22,102,25,1,"",NA,"",NA,NA,NA,NA,NA,NA,NA,"",NA,"",NA,NA,NA,NA,NA,NA,NA,"","","",NA,"",NA,NA,NA,NA,NA,NA,NA,"",NA,"1"
"",NA,"",NA,"",NA,NA,NA,NA,NA,NA,NA,"","",1,1,"2024-08-22_15h54.19.252","IAT(Formal)","2021.2.3","Win32",60.24096386,"",NA,"",NA,NA,NA,NA,NA,NA,NA,"","","",NA,"e",0,0.3593,NA,NA,NA,NA,NA,"他的","i","",NA,1,23,103,57,1,"",NA,"",NA,NA,NA,NA,NA,NA,NA,"",NA,"",NA,NA,NA,NA,NA,NA,NA,"","","",NA,"",NA,NA,NA,NA,NA,NA,NA,"",NA,"1"
"",NA,"",NA,"",NA,NA,NA,NA,NA,NA,NA,"","",1,1,"2024-08-22_15h54.19.252","IAT(Formal)","2021.2.3","Win32",60.24096386,"",NA,"",NA,NA,NA,NA,NA,NA,NA,"","","",NA,"e",1,0.4786,NA,NA,NA,NA,NA,"自己","e","",NA,1,24,104,63,1,"",NA,"",NA,NA,NA,NA,NA,NA,NA,"",NA,"",NA,NA,NA,NA,NA,NA,NA,"","","",NA,"",NA,NA,NA,NA,NA,NA,NA,"",NA,"1"
"",NA,"",NA,"",NA,NA,NA,NA,NA,NA,NA,"","",1,1,"2024-08-22_15h54.19.252","IAT(Formal)","2021.2.3","Win32",60.24096386,"",NA,"",NA,NA,NA,NA,NA,NA,NA,"","","",NA,"i",1,0.3729,NA,NA,NA,NA,NA,"他人","i","",NA,1,25,105,8,1,"",NA,"",NA,NA,NA,NA,NA,NA,NA,"",NA,"",NA,NA,NA,NA,NA,NA,NA,"","","",NA,"",NA,NA,NA,NA,NA,NA,NA,"",NA,"1"
"",NA,"",NA,"",NA,NA,NA,NA,NA,NA,NA,"","",1,1,"2024-08-22_15h54.19.252","IAT(Formal)","2021.2.3","Win32",60.24096386,"",NA,"",NA,NA,NA,NA,NA,NA,NA,"","","",NA,"e",1,0.4771,NA,NA,NA,NA,NA,"乐观","e","",NA,1,26,106,14,1,"",NA,"",NA,NA,NA,NA,NA,NA,NA,"",NA,"",NA,NA,NA,NA,NA,NA,NA,"","","",NA,"",NA,NA,NA,NA,NA,NA,NA,"",NA,"1"
"",NA,"",NA,"",NA,NA,NA,NA,NA,NA,NA,"","",1,1,"2024-08-22_15h54.19.252","IAT(Formal)","2021.2.3","Win32",60.24096386,"",NA,"",NA,NA,NA,NA,NA,NA,NA,"","","",NA,"e",1,0.3341,NA,NA,NA,NA,NA,"我们","e","",NA,1,27,107,2,1,"",NA,"",NA,NA,NA,NA,NA,NA,NA,"",NA,"",NA,NA,NA,NA,NA,NA,NA,"","","",NA,"",NA,NA,NA,NA,NA,NA,NA,"",NA,"1"
"",NA,"",NA,"",NA,NA,NA,NA,NA,NA,NA,"","",1,1,"2024-08-22_15h54.19.252","IAT(Formal)","2021.2.3","Win32",60.24096386,"",NA,"",NA,NA,NA,NA,NA,NA,NA,"","","",NA,"i",1,0.4857,NA,NA,NA,NA,NA,"野蛮","i","",NA,1,28,108,46,1,"",NA,"",NA,NA,NA,NA,NA,NA,NA,"",NA,"",NA,NA,NA,NA,NA,NA,NA,"","","",NA,"",NA,NA,NA,NA,NA,NA,NA,"",NA,"1"
"",NA,"",NA,"",NA,NA,NA,NA,NA,NA,NA,"","",1,1,"2024-08-22_15h54.19.252","IAT(Formal)","2021.2.3","Win32",60.24096386,"",NA,"",NA,NA,NA,NA,NA,NA,NA,"","","",NA,"e",1,0.3438,NA,NA,NA,NA,NA,"我","e","",NA,1,29,109,70,1,"",NA,"",NA,NA,NA,NA,NA,NA,NA,"",NA,"",NA,NA,NA,NA,NA,NA,NA,"","","",NA,"",NA,NA,NA,NA,NA,NA,NA,"",NA,"1"
"",NA,"",NA,"",NA,NA,NA,NA,NA,NA,NA,"","",1,1,"2024-08-22_15h54.19.252","IAT(Formal)","2021.2.3","Win32",60.24096386,"",NA,"",NA,NA,NA,NA,NA,NA,NA,"","","",NA,"e",0,0.3619,NA,NA,NA,NA,NA,"他的","i","",NA,1,30,110,67,1,"",NA,"",NA,NA,NA,NA,NA,NA,NA,"",NA,"",NA,NA,NA,NA,NA,NA,NA,"","","",NA,"",NA,NA,NA,NA,NA,NA,NA,"",NA,"1"
"",NA,"",NA,"",NA,NA,NA,NA,NA,NA,NA,"","",1,1,"2024-08-22_15h54.19.252","IAT(Formal)","2021.2.3","Win32",60.24096386,"",NA,"",NA,NA,NA,NA,NA,NA,NA,"","","",NA,"e",1,0.5342,NA,NA,NA,NA,NA,"勤奋","e","",NA,1,31,111,18,1,"",NA,"",NA,NA,NA,NA,NA,NA,NA,"",NA,"",NA,NA,NA,NA,NA,NA,NA,"","","",NA,"",NA,NA,NA,NA,NA,NA,NA,"",NA,"1"
"",NA,"",NA,"",NA,NA,NA,NA,NA,NA,NA,"","",1,1,"2024-08-22_15h54.19.252","IAT(Formal)","2021.2.3","Win32",60.24096386,"",NA,"",NA,NA,NA,NA,NA,NA,NA,"","","",NA,"e",1,0.402,NA,NA,NA,NA,NA,"我","e","",NA,1,32,112,60,1,"",NA,"",NA,NA,NA,NA,NA,NA,NA,"",NA,"",NA,NA,NA,NA,NA,NA,NA,"","","",NA,"",NA,NA,NA,NA,NA,NA,NA,"",NA,"1"
"",NA,"",NA,"",NA,NA,NA,NA,NA,NA,NA,"","",1,1,"2024-08-22_15h54.19.252","IAT(Formal)","2021.2.3","Win32",60.24096386,"",NA,"",NA,NA,NA,NA,NA,NA,NA,"","","",NA,"i",1,0.5798,NA,NA,NA,NA,NA,"执拗","i","",NA,1,33,113,40,1,"",NA,"",NA,NA,NA,NA,NA,NA,NA,"",NA,"",NA,NA,NA,NA,NA,NA,NA,"","","",NA,"",NA,NA,NA,NA,NA,NA,NA,"",NA,"1"
"",NA,"",NA,"",NA,NA,NA,NA,NA,NA,NA,"","",1,1,"2024-08-22_15h54.19.252","IAT(Formal)","2021.2.3","Win32",60.24096386,"",NA,"",NA,NA,NA,NA,NA,NA,NA,"","","",NA,"e",1,0.4295,NA,NA,NA,NA,NA,"俺","e","",NA,1,34,114,74,1,"",NA,"",NA,NA,NA,NA,NA,NA,NA,"",NA,"",NA,NA,NA,NA,NA,NA,NA,"","","",NA,"",NA,NA,NA,NA,NA,NA,NA,"",NA,"1"
"",NA,"",NA,"",NA,NA,NA,NA,NA,NA,NA,"","",1,1,"2024-08-22_15h54.19.252","IAT(Formal)","2021.2.3","Win32",60.24096386,"",NA,"",NA,NA,NA,NA,NA,NA,NA,"","","",NA,"i",1,0.5054,NA,NA,NA,NA,NA,"愚蠢","i","",NA,1,35,115,32,1,"",NA,"",NA,NA,NA,NA,NA,NA,NA,"",NA,"",NA,NA,NA,NA,NA,NA,NA,"","","",NA,"",NA,NA,NA,NA,NA,NA,NA,"",NA,"1"
"",NA,"",NA,"",NA,NA,NA,NA,NA,NA,NA,"","",1,1,"2024-08-22_15h54.19.252","IAT(Formal)","2021.2.3","Win32",60.24096386,"",NA,"",NA,NA,NA,NA,NA,NA,NA,"","","",NA,"e",1,0.4566,NA,NA,NA,NA,NA,"诚恳","e","",NA,1,36,116,29,1,"",NA,"",NA,NA,NA,NA,NA,NA,NA,"",NA,"",NA,NA,NA,NA,NA,NA,NA,"","","",NA,"",NA,NA,NA,NA,NA,NA,NA,"",NA,"1"
"",NA,"",NA,"",NA,NA,NA,NA,NA,NA,NA,"","",1,1,"2024-08-22_15h54.19.252","IAT(Formal)","2021.2.3","Win32",60.24096386,"",NA,"",NA,NA,NA,NA,NA,NA,NA,"","","",NA,"i",1,0.4583,NA,NA,NA,NA,NA,"凶狠","i","",NA,1,37,117,42,1,"",NA,"",NA,NA,NA,NA,NA,NA,NA,"",NA,"",NA,NA,NA,NA,NA,NA,NA,"","","",NA,"",NA,NA,NA,NA,NA,NA,NA,"",NA,"1"
"",NA,"",NA,"",NA,NA,NA,NA,NA,NA,NA,"","",1,1,"2024-08-22_15h54.19.252","IAT(Formal)","2021.2.3","Win32",60.24096386,"",NA,"",NA,NA,NA,NA,NA,NA,NA,"","","",NA,"i",1,0.5836,NA,NA,NA,NA,NA,"固执","i","",NA,1,38,118,47,1,"",NA,"",NA,NA,NA,NA,NA,NA,NA,"",NA,"",NA,NA,NA,NA,NA,NA,NA,"","","",NA,"",NA,NA,NA,NA,NA,NA,NA,"",NA,"1"
"",NA,"",NA,"",NA,NA,NA,NA,NA,NA,NA,"","",1,1,"2024-08-22_15h54.19.252","IAT(Formal)","2021.2.3","Win32",60.24096386,"",NA,"",NA,NA,NA,NA,NA,NA,NA,"","","",NA,"e",1,1.217,NA,NA,NA,NA,NA,"我的","e","",NA,1,39,119,51,1,"",NA,"",NA,NA,NA,NA,NA,NA,NA,"",NA,"",NA,NA,NA,NA,NA,NA,NA,"","","",NA,"",NA,NA,NA,NA,NA,NA,NA,"",NA,"1"
"",NA,"",NA,"",NA,NA,NA,NA,NA,NA,NA,"","",1,1,"2024-08-22_15h54.19.252","IAT(Formal)","2021.2.3","Win32",60.24096386,"",NA,"",NA,NA,NA,NA,NA,NA,NA,"","","",NA,"e",1,0.5226,NA,NA,NA,NA,NA,"勇敢","e","",NA,1,40,120,17,1,"",NA,"",NA,NA,NA,NA,NA,NA,NA,"",NA,"",NA,NA,NA,NA,NA,NA,NA,"","","",NA,"",NA,NA,NA,NA,NA,NA,NA,"",NA,"1"
"",NA,"",NA,"",NA,NA,NA,NA,NA,NA,NA,"","",1,1,"2024-08-22_15h54.19.252","IAT(Formal)","2021.2.3","Win32",60.24096386,"",NA,"",NA,NA,NA,NA,NA,NA,NA,"","","",NA,"e",1,0.4571,NA,NA,NA,NA,NA,"自己","e","",NA,1,41,121,3,1,"",NA,"",NA,NA,NA,NA,NA,NA,NA,"",NA,"",NA,NA,NA,NA,NA,NA,NA,"","","",NA,"",NA,NA,NA,NA,NA,NA,NA,"",NA,"1"
"",NA,"",NA,"",NA,NA,NA,NA,NA,NA,NA,"","",1,1,"2024-08-22_15h54.19.252","IAT(Formal)","2021.2.3","Win32",60.24096386,"",NA,"",NA,NA,NA,NA,NA,NA,NA,"","","",NA,"i",1,0.4716,NA,NA,NA,NA,NA,"他","i","",NA,1,42,122,75,1,"",NA,"",NA,NA,NA,NA,NA,NA,NA,"",NA,"",NA,NA,NA,NA,NA,NA,NA,"","","",NA,"",NA,NA,NA,NA,NA,NA,NA,"",NA,"1"
"",NA,"",NA,"",NA,NA,NA,NA,NA,NA,NA,"","",1,1,"2024-08-22_15h54.19.252","IAT(Formal)","2021.2.3","Win32",60.24096386,"",NA,"",NA,NA,NA,NA,NA,NA,NA,"","","",NA,"i",1,0.535,NA,NA,NA,NA,NA,"猖狂","i","",NA,1,43,123,45,1,"",NA,"",NA,NA,NA,NA,NA,NA,NA,"",NA,"",NA,NA,NA,NA,NA,NA,NA,"","","",NA,"",NA,NA,NA,NA,NA,NA,NA,"",NA,"1"
"",NA,"",NA,"",NA,NA,NA,NA,NA,NA,NA,"","",1,1,"2024-08-22_15h54.19.252","IAT(Formal)","2021.2.3","Win32",60.24096386,"",NA,"",NA,NA,NA,NA,NA,NA,NA,"","","",NA,"e",1,0.4781,NA,NA,NA,NA,NA,"朴实","e","",NA,1,44,124,24,1,"",NA,"",NA,NA,NA,NA,NA,NA,NA,"",NA,"",NA,NA,NA,NA,NA,NA,NA,"","","",NA,"",NA,NA,NA,NA,NA,NA,NA,"",NA,"1"
"",NA,"",NA,"",NA,NA,NA,NA,NA,NA,NA,"","",1,1,"2024-08-22_15h54.19.252","IAT(Formal)","2021.2.3","Win32",60.24096386,"",NA,"",NA,NA,NA,NA,NA,NA,NA,"","","",NA,"i",1,0.4939,NA,NA,NA,NA,NA,"他人","i","",NA,1,45,125,68,1,"",NA,"",NA,NA,NA,NA,NA,NA,NA,"",NA,"",NA,NA,NA,NA,NA,NA,NA,"","","",NA,"",NA,NA,NA,NA,NA,NA,NA,"",NA,"1"
"",NA,"",NA,"",NA,NA,NA,NA,NA,NA,NA,"","",1,1,"2024-08-22_15h54.19.252","IAT(Formal)","2021.2.3","Win32",60.24096386,"",NA,"",NA,NA,NA,NA,NA,NA,NA,"","","",NA,"e",1,0.4424,NA,NA,NA,NA,NA,"自己","e","",NA,1,46,126,73,1,"",NA,"",NA,NA,NA,NA,NA,NA,NA,"",NA,"",NA,NA,NA,NA,NA,NA,NA,"","","",NA,"",NA,NA,NA,NA,NA,NA,NA,"",NA,"1"
"",NA,"",NA,"",NA,NA,NA,NA,NA,NA,NA,"","",1,1,"2024-08-22_15h54.19.252","IAT(Formal)","2021.2.3","Win32",60.24096386,"",NA,"",NA,NA,NA,NA,NA,NA,NA,"","","",NA,"e",1,0.4368,NA,NA,NA,NA,NA,"我们","e","",NA,1,47,127,52,1,"",NA,"",NA,NA,NA,NA,NA,NA,NA,"",NA,"",NA,NA,NA,NA,NA,NA,NA,"","","",NA,"",NA,NA,NA,NA,NA,NA,NA,"",NA,"1"
"",NA,"",NA,"",NA,NA,NA,NA,NA,NA,NA,"","",1,1,"2024-08-22_15h54.19.252","IAT(Formal)","2021.2.3","Win32",60.24096386,"",NA,"",NA,NA,NA,NA,NA,NA,NA,"","","",NA,"e",1,0.3839,NA,NA,NA,NA,NA,"公正","e","",NA,1,48,128,23,1,"",NA,"",NA,NA,NA,NA,NA,NA,NA,"",NA,"",NA,NA,NA,NA,NA,NA,NA,"","","",NA,"",NA,NA,NA,NA,NA,NA,NA,"",NA,"1"
"",NA,"",NA,"",NA,NA,NA,NA,NA,NA,NA,"","",1,1,"2024-08-22_15h54.19.252","IAT(Formal)","2021.2.3","Win32",60.24096386,"",NA,"",NA,NA,NA,NA,NA,NA,NA,"","","",NA,"e",0,0.3675,NA,NA,NA,NA,NA,"他们","i","",NA,1,49,129,56,1,"",NA,"",NA,NA,NA,NA,NA,NA,NA,"",NA,"",NA,NA,NA,NA,NA,NA,NA,"","","",NA,"",NA,NA,NA,NA,NA,NA,NA,"",NA,"1"
"",NA,"",NA,"",NA,NA,NA,NA,NA,NA,NA,"","",1,1,"2024-08-22_15h54.19.252","IAT(Formal)","2021.2.3","Win32",60.24096386,"",NA,"",NA,NA,NA,NA,NA,NA,NA,"","","",NA,"e",1,0.4053,NA,NA,NA,NA,NA,"优秀","e","",NA,1,50,130,10,1,"",NA,"",NA,NA,NA,NA,NA,NA,NA,"",NA,"",NA,NA,NA,NA,NA,NA,NA,"","","",NA,"",NA,NA,NA,NA,NA,NA,NA,"",NA,"1"
"",NA,"",NA,"",NA,NA,NA,NA,NA,NA,NA,"","",1,1,"2024-08-22_15h54.19.252","IAT(Formal)","2021.2.3","Win32",60.24096386,"",NA,"",NA,NA,NA,NA,NA,NA,NA,"","","",NA,"e",1,0.4839,NA,NA,NA,NA,NA,"机智","e","",NA,1,51,131,19,1,"",NA,"",NA,NA,NA,NA,NA,NA,NA,"",NA,"",NA,NA,NA,NA,NA,NA,NA,"","","",NA,"",NA,NA,NA,NA,NA,NA,NA,"",NA,"1"
"",NA,"",NA,"",NA,NA,NA,NA,NA,NA,NA,"","",1,1,"2024-08-22_15h54.19.252","IAT(Formal)","2021.2.3","Win32",60.24096386,"",NA,"",NA,NA,NA,NA,NA,NA,NA,"","","",NA,"e",1,0.501,NA,NA,NA,NA,NA,"稳重","e","",NA,1,52,132,21,1,"",NA,"",NA,NA,NA,NA,NA,NA,NA,"",NA,"",NA,NA,NA,NA,NA,NA,NA,"","","",NA,"",NA,NA,NA,NA,NA,NA,NA,"",NA,"1"
"",NA,"",NA,"",NA,NA,NA,NA,NA,NA,NA,"","",1,1,"2024-08-22_15h54.19.252","IAT(Formal)","2021.2.3","Win32",60.24096386,"",NA,"",NA,NA,NA,NA,NA,NA,NA,"","","",NA,"i",1,0.5283,NA,NA,NA,NA,NA,"虚伪","i","",NA,1,53,133,31,1,"",NA,"",NA,NA,NA,NA,NA,NA,NA,"",NA,"",NA,NA,NA,NA,NA,NA,NA,"","","",NA,"",NA,NA,NA,NA,NA,NA,NA,"",NA,"1"
"",NA,"",NA,"",NA,NA,NA,NA,NA,NA,NA,"","",1,1,"2024-08-22_15h54.19.252","IAT(Formal)","2021.2.3","Win32",60.24096386,"",NA,"",NA,NA,NA,NA,NA,NA,NA,"","","",NA,"e",0,0.4028,NA,NA,NA,NA,NA,"他","i","",NA,1,54,134,55,1,"",NA,"",NA,NA,NA,NA,NA,NA,NA,"",NA,"",NA,NA,NA,NA,NA,NA,NA,"","","",NA,"",NA,NA,NA,NA,NA,NA,NA,"",NA,"1"
"",NA,"",NA,"",NA,NA,NA,NA,NA,NA,NA,"","",1,1,"2024-08-22_15h54.19.252","IAT(Formal)","2021.2.3","Win32",60.24096386,"",NA,"",NA,NA,NA,NA,NA,NA,NA,"","","",NA,"i",1,0.517,NA,NA,NA,NA,NA,"他","i","",NA,1,55,135,65,1,"",NA,"",NA,NA,NA,NA,NA,NA,NA,"",NA,"",NA,NA,NA,NA,NA,NA,NA,"","","",NA,"",NA,NA,NA,NA,NA,NA,NA,"",NA,"1"
"",NA,"",NA,"",NA,NA,NA,NA,NA,NA,NA,"","",1,1,"2024-08-22_15h54.19.252","IAT(Formal)","2021.2.3","Win32",60.24096386,"",NA,"",NA,NA,NA,NA,NA,NA,NA,"","","",NA,"e",1,0.4009,NA,NA,NA,NA,NA,"正直","e","",NA,1,56,136,16,1,"",NA,"",NA,NA,NA,NA,NA,NA,NA,"",NA,"",NA,NA,NA,NA,NA,NA,NA,"","","",NA,"",NA,NA,NA,NA,NA,NA,NA,"",NA,"1"
"",NA,"",NA,"",NA,NA,NA,NA,NA,NA,NA,"","",1,1,"2024-08-22_15h54.19.252","IAT(Formal)","2021.2.3","Win32",60.24096386,"",NA,"",NA,NA,NA,NA,NA,NA,NA,"","","",NA,"e",1,0.3579,NA,NA,NA,NA,NA,"自己","e","",NA,1,57,137,53,1,"",NA,"",NA,NA,NA,NA,NA,NA,NA,"",NA,"",NA,NA,NA,NA,NA,NA,NA,"","","",NA,"",NA,NA,NA,NA,NA,NA,NA,"",NA,"1"
"",NA,"",NA,"",NA,NA,NA,NA,NA,NA,NA,"","",1,1,"2024-08-22_15h54.19.252","IAT(Formal)","2021.2.3","Win32",60.24096386,"",NA,"",NA,NA,NA,NA,NA,NA,NA,"","","",NA,"i",1,0.428,NA,NA,NA,NA,NA,"他们","i","",NA,1,58,138,6,1,"",NA,"",NA,NA,NA,NA,NA,NA,NA,"",NA,"",NA,NA,NA,NA,NA,NA,NA,"","","",NA,"",NA,NA,NA,NA,NA,NA,NA,"",NA,"1"
"",NA,"",NA,"",NA,NA,NA,NA,NA,NA,NA,"","",1,1,"2024-08-22_15h54.19.252","IAT(Formal)","2021.2.3","Win32",60.24096386,"",NA,"",NA,NA,NA,NA,NA,NA,NA,"","","",NA,"i",1,0.5541,NA,NA,NA,NA,NA,"轻率","i","",NA,1,59,139,48,1,"",NA,"",NA,NA,NA,NA,NA,NA,NA,"",NA,"",NA,NA,NA,NA,NA,NA,NA,"","","",NA,"",NA,NA,NA,NA,NA,NA,NA,"",NA,"1"
"",NA,"",NA,"",NA,NA,NA,NA,NA,NA,NA,"","",1,1,"2024-08-22_15h54.19.252","IAT(Formal)","2021.2.3","Win32",60.24096386,"",NA,"",NA,NA,NA,NA,NA,NA,NA,"","","",NA,"e",1,0.4765,NA,NA,NA,NA,NA,"我的","e","",NA,1,60,140,1,1,"",NA,"",NA,NA,NA,NA,NA,NA,NA,"",NA,"",NA,NA,NA,NA,NA,NA,NA,"","","",NA,"",NA,NA,NA,NA,NA,NA,NA,"",NA,"1"
"",NA,"",NA,"",NA,NA,NA,NA,NA,NA,NA,"","",1,1,"2024-08-22_15h54.19.252","IAT(Formal)","2021.2.3","Win32",60.24096386,"",NA,"",NA,NA,NA,NA,NA,NA,NA,"","","",NA,"i",1,0.5566,NA,NA,NA,NA,NA,"鲁莽","i","",NA,1,61,141,38,1,"",NA,"",NA,NA,NA,NA,NA,NA,NA,"",NA,"",NA,NA,NA,NA,NA,NA,NA,"","","",NA,"",NA,NA,NA,NA,NA,NA,NA,"",NA,"1"
"",NA,"",NA,"",NA,NA,NA,NA,NA,NA,NA,"","",1,1,"2024-08-22_15h54.19.252","IAT(Formal)","2021.2.3","Win32",60.24096386,"",NA,"",NA,NA,NA,NA,NA,NA,NA,"","","",NA,"e",0,0.6694,NA,NA,NA,NA,NA,"自私","i","",NA,1,62,142,43,1,"",NA,"",NA,NA,NA,NA,NA,NA,NA,"",NA,"",NA,NA,NA,NA,NA,NA,NA,"","","",NA,"",NA,NA,NA,NA,NA,NA,NA,"",NA,"1"
"",NA,"",NA,"",NA,NA,NA,NA,NA,NA,NA,"","",1,1,"2024-08-22_15h54.19.252","IAT(Formal)","2021.2.3","Win32",60.24096386,"",NA,"",NA,NA,NA,NA,NA,NA,NA,"","","",NA,"e",1,0.3945,NA,NA,NA,NA,NA,"我的","e","",NA,1,63,143,71,1,"",NA,"",NA,NA,NA,NA,NA,NA,NA,"",NA,"",NA,NA,NA,NA,NA,NA,NA,"","","",NA,"",NA,NA,NA,NA,NA,NA,NA,"",NA,"1"
"",NA,"",NA,"",NA,NA,NA,NA,NA,NA,NA,"","",1,1,"2024-08-22_15h54.19.252","IAT(Formal)","2021.2.3","Win32",60.24096386,"",NA,"",NA,NA,NA,NA,NA,NA,NA,"","","",NA,"e",1,0.5292,NA,NA,NA,NA,NA,"冷静","e","",NA,1,64,144,26,1,"",NA,"",NA,NA,NA,NA,NA,NA,NA,"",NA,"",NA,NA,NA,NA,NA,NA,NA,"","","",NA,"",NA,NA,NA,NA,NA,NA,NA,"",NA,"1"
"",NA,"",NA,"",NA,NA,NA,NA,NA,NA,NA,"","",1,1,"2024-08-22_15h54.19.252","IAT(Formal)","2021.2.3","Win32",60.24096386,"",NA,"",NA,NA,NA,NA,NA,NA,NA,"","","",NA,"i",1,0.5136,NA,NA,NA,NA,NA,"他人","i","",NA,1,65,145,58,1,"",NA,"",NA,NA,NA,NA,NA,NA,NA,"",NA,"",NA,NA,NA,NA,NA,NA,NA,"","","",NA,"",NA,NA,NA,NA,NA,NA,NA,"",NA,"1"
"",NA,"",NA,"",NA,NA,NA,NA,NA,NA,NA,"","",1,1,"2024-08-22_15h54.19.252","IAT(Formal)","2021.2.3","Win32",60.24096386,"",NA,"",NA,NA,NA,NA,NA,NA,NA,"","","",NA,"i",1,0.4051,NA,NA,NA,NA,NA,"其他","i","",NA,1,66,146,69,1,"",NA,"",NA,NA,NA,NA,NA,NA,NA,"",NA,"",NA,NA,NA,NA,NA,NA,NA,"","","",NA,"",NA,NA,NA,NA,NA,NA,NA,"",NA,"1"
"",NA,"",NA,"",NA,NA,NA,NA,NA,NA,NA,"","",1,1,"2024-08-22_15h54.19.252","IAT(Formal)","2021.2.3","Win32",60.24096386,"",NA,"",NA,NA,NA,NA,NA,NA,NA,"","","",NA,"e",1,0.6083,NA,NA,NA,NA,NA,"杰出","e","",NA,1,67,147,13,1,"",NA,"",NA,NA,NA,NA,NA,NA,NA,"",NA,"",NA,NA,NA,NA,NA,NA,NA,"","","",NA,"",NA,NA,NA,NA,NA,NA,NA,"",NA,"1"
"",NA,"",NA,"",NA,NA,NA,NA,NA,NA,NA,"","",1,1,"2024-08-22_15h54.19.252","IAT(Formal)","2021.2.3","Win32",60.24096386,"",NA,"",NA,NA,NA,NA,NA,NA,NA,"","","",NA,"e",1,1.2496,NA,NA,NA,NA,NA,"无私","e","",NA,1,68,148,22,1,"",NA,"",NA,NA,NA,NA,NA,NA,NA,"",NA,"",NA,NA,NA,NA,NA,NA,NA,"","","",NA,"",NA,NA,NA,NA,NA,NA,NA,"",NA,"1"
"",NA,"",NA,"",NA,NA,NA,NA,NA,NA,NA,"","",1,1,"2024-08-22_15h54.19.252","IAT(Formal)","2021.2.3","Win32",60.24096386,"",NA,"",NA,NA,NA,NA,NA,NA,NA,"","","",NA,"i",1,0.5025,NA,NA,NA,NA,NA,"他的","i","",NA,1,69,149,77,1,"",NA,"",NA,NA,NA,NA,NA,NA,NA,"",NA,"",NA,NA,NA,NA,NA,NA,NA,"","","",NA,"",NA,NA,NA,NA,NA,NA,NA,"",NA,"1"
"",NA,"",NA,"",NA,NA,NA,NA,NA,NA,NA,"","",1,1,"2024-08-22_15h54.19.252","IAT(Formal)","2021.2.3","Win32",60.24096386,"",NA,"",NA,NA,NA,NA,NA,NA,NA,"","","",NA,"e",1,0.5173,NA,NA,NA,NA,NA,"我们","e","",NA,1,70,150,72,1,"",NA,"",NA,NA,NA,NA,NA,NA,NA,"",NA,"",NA,NA,NA,NA,NA,NA,NA,"","","",NA,"",NA,NA,NA,NA,NA,NA,NA,"",NA,"1"
"",NA,"",NA,"",NA,NA,NA,NA,NA,NA,NA,"","",1,1,"2024-08-22_15h54.19.252","IAT(Formal)","2021.2.3","Win32",60.24096386,"",NA,"",NA,NA,NA,NA,NA,NA,NA,"","","",NA,"i",1,0.4498,NA,NA,NA,NA,NA,"其他","i","",NA,1,71,151,79,1,"",NA,"",NA,NA,NA,NA,NA,NA,NA,"",NA,"",NA,NA,NA,NA,NA,NA,NA,"","","",NA,"",NA,NA,NA,NA,NA,NA,NA,"",NA,"1"
"",NA,"",NA,"",NA,NA,NA,NA,NA,NA,NA,"","",1,1,"2024-08-22_15h54.19.252","IAT(Formal)","2021.2.3","Win32",60.24096386,"",NA,"",NA,NA,NA,NA,NA,NA,NA,"","","",NA,"i",1,0.7421,NA,NA,NA,NA,NA,"散漫","i","",NA,1,72,152,41,1,"",NA,"",NA,NA,NA,NA,NA,NA,NA,"",NA,"",NA,NA,NA,NA,NA,NA,NA,"","","",NA,"",NA,NA,NA,NA,NA,NA,NA,"",NA,"1"
"",NA,"",NA,"",NA,NA,NA,NA,NA,NA,NA,"","",1,1,"2024-08-22_15h54.19.252","IAT(Formal)","2021.2.3","Win32",60.24096386,"",NA,"",NA,NA,NA,NA,NA,NA,NA,"","","",NA,"i",1,0.4708,NA,NA,NA,NA,NA,"他人","i","",NA,1,73,153,78,1,"",NA,"",NA,NA,NA,NA,NA,NA,NA,"",NA,"",NA,NA,NA,NA,NA,NA,NA,"","","",NA,"",NA,NA,NA,NA,NA,NA,NA,"",NA,"1"
"",NA,"",NA,"",NA,NA,NA,NA,NA,NA,NA,"","",1,1,"2024-08-22_15h54.19.252","IAT(Formal)","2021.2.3","Win32",60.24096386,"",NA,"",NA,NA,NA,NA,NA,NA,NA,"","","",NA,"i",1,0.4358,NA,NA,NA,NA,NA,"他们","i","",NA,1,74,154,76,1,"",NA,"",NA,NA,NA,NA,NA,NA,NA,"",NA,"",NA,NA,NA,NA,NA,NA,NA,"","","",NA,"",NA,NA,NA,NA,NA,NA,NA,"",NA,"1"
"",NA,"",NA,"",NA,NA,NA,NA,NA,NA,NA,"","",1,1,"2024-08-22_15h54.19.252","IAT(Formal)","2021.2.3","Win32",60.24096386,"",NA,"",NA,NA,NA,NA,NA,NA,NA,"","","",NA,"i",1,0.3735,NA,NA,NA,NA,NA,"其他","i","",NA,1,75,155,59,1,"",NA,"",NA,NA,NA,NA,NA,NA,NA,"",NA,"",NA,NA,NA,NA,NA,NA,NA,"","","",NA,"",NA,NA,NA,NA,NA,NA,NA,"",NA,"1"
"",NA,"",NA,"",NA,NA,NA,NA,NA,NA,NA,"","",1,1,"2024-08-22_15h54.19.252","IAT(Formal)","2021.2.3","Win32",60.24096386,"",NA,"",NA,NA,NA,NA,NA,NA,NA,"","","",NA,"e",1,0.5171,NA,NA,NA,NA,NA,"俺","e","",NA,1,76,156,4,1,"",NA,"",NA,NA,NA,NA,NA,NA,NA,"",NA,"",NA,NA,NA,NA,NA,NA,NA,"","","",NA,"",NA,NA,NA,NA,NA,NA,NA,"",NA,"1"
"",NA,"",NA,"",NA,NA,NA,NA,NA,NA,NA,"","",1,1,"2024-08-22_15h54.19.252","IAT(Formal)","2021.2.3","Win32",60.24096386,"",NA,"",NA,NA,NA,NA,NA,NA,NA,"","","",NA,"e",1,1.175,NA,NA,NA,NA,NA,"活泼","e","",NA,1,77,157,28,1,"",NA,"",NA,NA,NA,NA,NA,NA,NA,"",NA,"",NA,NA,NA,NA,NA,NA,NA,"","","",NA,"",NA,NA,NA,NA,NA,NA,NA,"",NA,"1"
"",NA,"",NA,"",NA,NA,NA,NA,NA,NA,NA,"","",1,1,"2024-08-22_15h54.19.252","IAT(Formal)","2021.2.3","Win32",60.24096386,"",NA,"",NA,NA,NA,NA,NA,NA,NA,"","","",NA,"i",1,0.5101,NA,NA,NA,NA,NA,"消极","i","",NA,1,78,158,35,1,"",NA,"",NA,NA,NA,NA,NA,NA,NA,"",NA,"",NA,NA,NA,NA,NA,NA,NA,"","","",NA,"",NA,NA,NA,NA,NA,NA,NA,"",NA,"1"
"",NA,"",NA,"",NA,NA,NA,NA,NA,NA,NA,"","",1,1,"2024-08-22_15h54.19.252","IAT(Formal)","2021.2.3","Win32",60.24096386,"",NA,"",NA,NA,NA,NA,NA,NA,NA,"","","",NA,"i",1,0.617,NA,NA,NA,NA,NA,"自卑","i","",NA,1,79,159,36,1,"",NA,"",NA,NA,NA,NA,NA,NA,NA,"",NA,"",NA,NA,NA,NA,NA,NA,NA,"","","",NA,"",NA,NA,NA,NA,NA,NA,NA,"",NA,"1"
"",NA,"",NA,"",NA,NA,NA,NA,NA,NA,NA,"俺","i",1,1,"2024-08-22_15h54.19.252","IAT(Formal)","2021.2.3","Win32",60.24096386,"",NA,"",NA,NA,NA,NA,NA,NA,NA,"","","",NA,"",NA,NA,NA,NA,NA,NA,NA,"","","",NA,NA,NA,NA,NA,NA,"space",17.8773,"i",1,0.5821,0,0,0,4,1,"",NA,"",NA,NA,NA,NA,NA,NA,NA,"","","",NA,"",NA,NA,NA,NA,NA,NA,NA,"",NA,"1"
"",NA,"",NA,"",NA,NA,NA,NA,NA,NA,NA,"我的","i",1,1,"2024-08-22_15h54.19.252","IAT(Formal)","2021.2.3","Win32",60.24096386,"",NA,"",NA,NA,NA,NA,NA,NA,NA,"","","",NA,"",NA,NA,NA,NA,NA,NA,NA,"","","",NA,NA,NA,NA,NA,NA,"",NA,"i",1,0.5498,0,1,1,1,1,"",NA,"",NA,NA,NA,NA,NA,NA,NA,"","","",NA,"",NA,NA,NA,NA,NA,NA,NA,"",NA,"1"
"",NA,"",NA,"",NA,NA,NA,NA,NA,NA,NA,"他人","e",1,1,"2024-08-22_15h54.19.252","IAT(Formal)","2021.2.3","Win32",60.24096386,"",NA,"",NA,NA,NA,NA,NA,NA,NA,"","","",NA,"",NA,NA,NA,NA,NA,NA,NA,"","","",NA,NA,NA,NA,NA,NA,"",NA,"e",1,0.4166,0,2,2,8,1,"",NA,"",NA,NA,NA,NA,NA,NA,NA,"","","",NA,"",NA,NA,NA,NA,NA,NA,NA,"",NA,"1"
"",NA,"",NA,"",NA,NA,NA,NA,NA,NA,NA,"他们","e",1,1,"2024-08-22_15h54.19.252","IAT(Formal)","2021.2.3","Win32",60.24096386,"",NA,"",NA,NA,NA,NA,NA,NA,NA,"","","",NA,"",NA,NA,NA,NA,NA,NA,NA,"","","",NA,NA,NA,NA,NA,NA,"",NA,"e",1,0.748,0,3,3,6,1,"",NA,"",NA,NA,NA,NA,NA,NA,NA,"","","",NA,"",NA,NA,NA,NA,NA,NA,NA,"",NA,"1"
"",NA,"",NA,"",NA,NA,NA,NA,NA,NA,NA,"我们","i",1,1,"2024-08-22_15h54.19.252","IAT(Formal)","2021.2.3","Win32",60.24096386,"",NA,"",NA,NA,NA,NA,NA,NA,NA,"","","",NA,"",NA,NA,NA,NA,NA,NA,NA,"","","",NA,NA,NA,NA,NA,NA,"",NA,"i",1,0.4212,0,4,4,2,1,"",NA,"",NA,NA,NA,NA,NA,NA,NA,"","","",NA,"",NA,NA,NA,NA,NA,NA,NA,"",NA,"1"
"",NA,"",NA,"",NA,NA,NA,NA,NA,NA,NA,"他的","e",1,1,"2024-08-22_15h54.19.252","IAT(Formal)","2021.2.3","Win32",60.24096386,"",NA,"",NA,NA,NA,NA,NA,NA,NA,"","","",NA,"",NA,NA,NA,NA,NA,NA,NA,"","","",NA,NA,NA,NA,NA,NA,"",NA,"e",1,0.7253,0,5,5,7,1,"",NA,"",NA,NA,NA,NA,NA,NA,NA,"","","",NA,"",NA,NA,NA,NA,NA,NA,NA,"",NA,"1"
"",NA,"",NA,"",NA,NA,NA,NA,NA,NA,NA,"其他","e",1,1,"2024-08-22_15h54.19.252","IAT(Formal)","2021.2.3","Win32",60.24096386,"",NA,"",NA,NA,NA,NA,NA,NA,NA,"","","",NA,"",NA,NA,NA,NA,NA,NA,NA,"","","",NA,NA,NA,NA,NA,NA,"",NA,"e",1,0.4102,0,6,6,9,1,"",NA,"",NA,NA,NA,NA,NA,NA,NA,"","","",NA,"",NA,NA,NA,NA,NA,NA,NA,"",NA,"1"
"",NA,"",NA,"",NA,NA,NA,NA,NA,NA,NA,"自己","i",1,1,"2024-08-22_15h54.19.252","IAT(Formal)","2021.2.3","Win32",60.24096386,"",NA,"",NA,NA,NA,NA,NA,NA,NA,"","","",NA,"",NA,NA,NA,NA,NA,NA,NA,"","","",NA,NA,NA,NA,NA,NA,"",NA,"i",1,0.4852,0,7,7,3,1,"",NA,"",NA,NA,NA,NA,NA,NA,NA,"","","",NA,"",NA,NA,NA,NA,NA,NA,NA,"",NA,"1"
"",NA,"",NA,"",NA,NA,NA,NA,NA,NA,NA,"他","e",1,1,"2024-08-22_15h54.19.252","IAT(Formal)","2021.2.3","Win32",60.24096386,"",NA,"",NA,NA,NA,NA,NA,NA,NA,"","","",NA,"",NA,NA,NA,NA,NA,NA,NA,"","","",NA,NA,NA,NA,NA,NA,"",NA,"e",1,0.39,0,8,8,5,1,"",NA,"",NA,NA,NA,NA,NA,NA,NA,"","","",NA,"",NA,NA,NA,NA,NA,NA,NA,"",NA,"1"
"",NA,"",NA,"",NA,NA,NA,NA,NA,NA,NA,"我","i",1,1,"2024-08-22_15h54.19.252","IAT(Formal)","2021.2.3","Win32",60.24096386,"",NA,"",NA,NA,NA,NA,NA,NA,NA,"","","",NA,"",NA,NA,NA,NA,NA,NA,NA,"","","",NA,NA,NA,NA,NA,NA,"",NA,"i",1,0.4989,0,9,9,0,1,"",NA,"",NA,NA,NA,NA,NA,NA,NA,"","","",NA,"",NA,NA,NA,NA,NA,NA,NA,"",NA,"1"
"",NA,"",NA,"",NA,NA,NA,NA,NA,NA,NA,"","",1,1,"2024-08-22_15h54.19.252","IAT(Formal)","2021.2.3","Win32",60.24096386,"",NA,"",NA,NA,NA,NA,NA,NA,NA,"","","",NA,"",NA,NA,NA,NA,NA,NA,NA,"","","",NA,NA,NA,NA,NA,NA,"",NA,"",NA,NA,NA,NA,NA,NA,NA,"space",12.9584,"i",1,0.5811,0,0,0,63,1,"自己","i","",NA,"",NA,NA,NA,NA,NA,NA,NA,"",NA,"1"
"",NA,"",NA,"",NA,NA,NA,NA,NA,NA,NA,"","",1,1,"2024-08-22_15h54.19.252","IAT(Formal)","2021.2.3","Win32",60.24096386,"",NA,"",NA,NA,NA,NA,NA,NA,NA,"","","",NA,"",NA,NA,NA,NA,NA,NA,NA,"","","",NA,NA,NA,NA,NA,NA,"",NA,"",NA,NA,NA,NA,NA,NA,NA,"",NA,"e",1,0.6468,0,1,1,77,1,"他的","e","",NA,"",NA,NA,NA,NA,NA,NA,NA,"",NA,"1"
"",NA,"",NA,"",NA,NA,NA,NA,NA,NA,NA,"","",1,1,"2024-08-22_15h54.19.252","IAT(Formal)","2021.2.3","Win32",60.24096386,"",NA,"",NA,NA,NA,NA,NA,NA,NA,"","","",NA,"",NA,NA,NA,NA,NA,NA,NA,"","","",NA,NA,NA,NA,NA,NA,"",NA,"",NA,NA,NA,NA,NA,NA,NA,"",NA,"e",1,0.61,0,2,2,69,1,"其他","e","",NA,"",NA,NA,NA,NA,NA,NA,NA,"",NA,"1"
"",NA,"",NA,"",NA,NA,NA,NA,NA,NA,NA,"","",1,1,"2024-08-22_15h54.19.252","IAT(Formal)","2021.2.3","Win32",60.24096386,"",NA,"",NA,NA,NA,NA,NA,NA,NA,"","","",NA,"",NA,NA,NA,NA,NA,NA,NA,"","","",NA,NA,NA,NA,NA,NA,"",NA,"",NA,NA,NA,NA,NA,NA,NA,"",NA,"i",1,0.5667,0,3,3,37,1,"傲慢","i","",NA,"",NA,NA,NA,NA,NA,NA,NA,"",NA,"1"
"",NA,"",NA,"",NA,NA,NA,NA,NA,NA,NA,"","",1,1,"2024-08-22_15h54.19.252","IAT(Formal)","2021.2.3","Win32",60.24096386,"",NA,"",NA,NA,NA,NA,NA,NA,NA,"","","",NA,"",NA,NA,NA,NA,NA,NA,NA,"","","",NA,NA,NA,NA,NA,NA,"",NA,"",NA,NA,NA,NA,NA,NA,NA,"",NA,"e",1,0.7265,0,4,4,75,1,"他","e","",NA,"",NA,NA,NA,NA,NA,NA,NA,"",NA,"1"
"",NA,"",NA,"",NA,NA,NA,NA,NA,NA,NA,"","",1,1,"2024-08-22_15h54.19.252","IAT(Formal)","2021.2.3","Win32",60.24096386,"",NA,"",NA,NA,NA,NA,NA,NA,NA,"","","",NA,"",NA,NA,NA,NA,NA,NA,NA,"","","",NA,NA,NA,NA,NA,NA,"",NA,"",NA,NA,NA,NA,NA,NA,NA,"",NA,"i",1,0.5339,0,5,5,61,1,"我的","i","",NA,"",NA,NA,NA,NA,NA,NA,NA,"",NA,"1"
