﻿Instruction1.keys,Instruction1.rt,Instruction2.keys,Instruction2.rt,key_resp_iso.keys,key_resp_iso.corr,key_resp_iso.rt,Practice_01.thisRepN,Practice_01.thisTrialN,Practice_01.thisN,Practice_01.thisIndex,Practice_01.ran,Words,ans,participant,session,date,expName,psychopyVersion,OS,frameRate,key_resp_3.keys,key_resp_3.rt,key_resp_ipn.keys,key_resp_ipn.corr,key_resp_ipn.rt,Practice_02.thisRepN,Practice_02.thisTrialN,Practice_02.thisN,Practice_02.thisIndex,Practice_02.ran,Words_ipn,ans_ipn,key_resp_4.keys,key_resp_4.rt,key_resp_t1.keys,key_resp_t1.corr,key_resp_t1.rt,Practice_T1.thisRepN,Practice_T1.thisTrialN,Practice_T1.thisN,Practice_T1.thisIndex,Practice_T1.ran,Words_t1,ans_t1,key_resp_5.keys,key_resp_5.rt,Formal_T1.thisRepN,Formal_T1.thisTrialN,Formal_T1.thisN,Formal_T1.thisIndex,Formal_T1.ran,key_resp_6.keys,key_resp_6.rt,key_resp_iso_reverse.keys,key_resp_iso_reverse.corr,key_resp_iso_reverse.rt,Practice_iso_Reverse.thisRepN,Practice_iso_Reverse.thisTrialN,Practice_iso_Reverse.thisN,Practice_iso_Reverse.thisIndex,Practice_iso_Reverse.ran,key_resp_7.keys,key_resp_7.rt,key_resp_t2_Practice.keys,key_resp_t2_Practice.corr,key_resp_t2_Practice.rt,Practice_t2_Reverse.thisRepN,Practice_t2_Reverse.thisTrialN,Practice_t2_Reverse.thisN,Practice_t2_Reverse.thisIndex,Practice_t2_Reverse.ran,Words_t2,ans_t2,key_resp_8.keys,key_resp_8.rt,key_resp_t2.keys,key_resp_t2.corr,key_resp_t2.rt,Formal_t2_reverse.thisRepN,Formal_t2_reverse.thisTrialN,Formal_t2_reverse.thisN,Formal_t2_reverse.thisIndex,Formal_t2_reverse.ran,key_instruct.keys,key_instruct.rt
space,5.166,space,11.8368,e,1,0.4936,0,0,0,4,1,俺,e,1,001,2024-08-22_15h54.19.252,IAT(Formal),2021.2.3,Win32,60.24096386,,,,,,,,,,,,,,,,,,,,,,,,,,,,,,,,,,,,,,,,,,,,,,,,,,,,,,,,,,,,,,,,,
,,,,i,1,0.4007,0,1,1,7,1,他的,i,1,001,2024-08-22_15h54.19.252,IAT(Formal),2021.2.3,Win32,60.24096386,,,,,,,,,,,,,,,,,,,,,,,,,,,,,,,,,,,,,,,,,,,,,,,,,,,,,,,,,,,,,,,,,
,,,,i,1,0.4105,0,2,2,9,1,其他,i,1,001,2024-08-22_15h54.19.252,IAT(Formal),2021.2.3,Win32,60.24096386,,,,,,,,,,,,,,,,,,,,,,,,,,,,,,,,,,,,,,,,,,,,,,,,,,,,,,,,,,,,,,,,,
,,,,i,1,0.484,0,3,3,6,1,他们,i,1,001,2024-08-22_15h54.19.252,IAT(Formal),2021.2.3,Win32,60.24096386,,,,,,,,,,,,,,,,,,,,,,,,,,,,,,,,,,,,,,,,,,,,,,,,,,,,,,,,,,,,,,,,,
,,,,i,1,0.4099,0,4,4,5,1,他,i,1,001,2024-08-22_15h54.19.252,IAT(Formal),2021.2.3,Win32,60.24096386,,,,,,,,,,,,,,,,,,,,,,,,,,,,,,,,,,,,,,,,,,,,,,,,,,,,,,,,,,,,,,,,,
,,,,e,1,0.3978,0,5,5,2,1,我们,e,1,001,2024-08-22_15h54.19.252,IAT(Formal),2021.2.3,Win32,60.24096386,,,,,,,,,,,,,,,,,,,,,,,,,,,,,,,,,,,,,,,,,,,,,,,,,,,,,,,,,,,,,,,,,
,,,,i,1,0.4307,0,6,6,8,1,他人,i,1,001,2024-08-22_15h54.19.252,IAT(Formal),2021.2.3,Win32,60.24096386,,,,,,,,,,,,,,,,,,,,,,,,,,,,,,,,,,,,,,,,,,,,,,,,,,,,,,,,,,,,,,,,,
,,,,e,1,0.3862,0,7,7,1,1,我的,e,1,001,2024-08-22_15h54.19.252,IAT(Formal),2021.2.3,Win32,60.24096386,,,,,,,,,,,,,,,,,,,,,,,,,,,,,,,,,,,,,,,,,,,,,,,,,,,,,,,,,,,,,,,,,
,,,,e,1,0.3994,0,8,8,3,1,自己,e,1,001,2024-08-22_15h54.19.252,IAT(Formal),2021.2.3,Win32,60.24096386,,,,,,,,,,,,,,,,,,,,,,,,,,,,,,,,,,,,,,,,,,,,,,,,,,,,,,,,,,,,,,,,,
,,,,e,1,0.3589,0,9,9,0,1,我,e,1,001,2024-08-22_15h54.19.252,IAT(Formal),2021.2.3,Win32,60.24096386,,,,,,,,,,,,,,,,,,,,,,,,,,,,,,,,,,,,,,,,,,,,,,,,,,,,,,,,,,,,,,,,,
,,,,,,,,,,,,,,1,001,2024-08-22_15h54.19.252,IAT(Formal),2021.2.3,Win32,60.24096386,space,6.2141,e,1,0.4377,0,0,0,10,1,认真,e,,,,,,,,,,,,,,,,,,,,,,,,,,,,,,,,,,,,,,,,,,,,,,,,,,,,,
,,,,,,,,,,,,,,1,001,2024-08-22_15h54.19.252,IAT(Formal),2021.2.3,Win32,60.24096386,,,i,0,0.5214,0,1,1,12,1,无私,e,,,,,,,,,,,,,,,,,,,,,,,,,,,,,,,,,,,,,,,,,,,,,,,,,,,,,
,,,,,,,,,,,,,,1,001,2024-08-22_15h54.19.252,IAT(Formal),2021.2.3,Win32,60.24096386,,,e,0,0.4847,0,2,2,26,1,自卑,i,,,,,,,,,,,,,,,,,,,,,,,,,,,,,,,,,,,,,,,,,,,,,,,,,,,,,
,,,,,,,,,,,,,,1,001,2024-08-22_15h54.19.252,IAT(Formal),2021.2.3,Win32,60.24096386,,,e,1,0.4976,0,3,3,1,1,崇高,e,,,,,,,,,,,,,,,,,,,,,,,,,,,,,,,,,,,,,,,,,,,,,,,,,,,,,
,,,,,,,,,,,,,,1,001,2024-08-22_15h54.19.252,IAT(Formal),2021.2.3,Win32,60.24096386,,,e,1,0.3967,0,4,4,16,1,冷静,e,,,,,,,,,,,,,,,,,,,,,,,,,,,,,,,,,,,,,,,,,,,,,,,,,,,,,
,,,,,,,,,,,,,,1,001,2024-08-22_15h54.19.252,IAT(Formal),2021.2.3,Win32,60.24096386,,,i,1,0.4033,0,5,5,21,1,虚伪,i,,,,,,,,,,,,,,,,,,,,,,,,,,,,,,,,,,,,,,,,,,,,,,,,,,,,,
,,,,,,,,,,,,,,1,001,2024-08-22_15h54.19.252,IAT(Formal),2021.2.3,Win32,60.24096386,,,i,1,0.473,0,6,6,23,1,刻薄,i,,,,,,,,,,,,,,,,,,,,,,,,,,,,,,,,,,,,,,,,,,,,,,,,,,,,,
,,,,,,,,,,,,,,1,001,2024-08-22_15h54.19.252,IAT(Formal),2021.2.3,Win32,60.24096386,,,e,1,0.5149,0,7,7,7,1,勇敢,e,,,,,,,,,,,,,,,,,,,,,,,,,,,,,,,,,,,,,,,,,,,,,,,,,,,,,
,,,,,,,,,,,,,,1,001,2024-08-22_15h54.19.252,IAT(Formal),2021.2.3,Win32,60.24096386,,,e,1,0.3701,0,8,8,0,1,优秀,e,,,,,,,,,,,,,,,,,,,,,,,,,,,,,,,,,,,,,,,,,,,,,,,,,,,,,
,,,,,,,,,,,,,,1,001,2024-08-22_15h54.19.252,IAT(Formal),2021.2.3,Win32,60.24096386,,,e,1,0.352,0,9,9,13,1,公正,e,,,,,,,,,,,,,,,,,,,,,,,,,,,,,,,,,,,,,,,,,,,,,,,,,,,,,
,,,,,,,,,,,,,,1,001,2024-08-22_15h54.19.252,IAT(Formal),2021.2.3,Win32,60.24096386,,,e,0,0.3479,0,10,10,24,1,悲观,i,,,,,,,,,,,,,,,,,,,,,,,,,,,,,,,,,,,,,,,,,,,,,,,,,,,,,
,,,,,,,,,,,,,,1,001,2024-08-22_15h54.19.252,IAT(Formal),2021.2.3,Win32,60.24096386,,,i,1,0.4727,0,11,11,32,1,凶狠,i,,,,,,,,,,,,,,,,,,,,,,,,,,,,,,,,,,,,,,,,,,,,,,,,,,,,,
,,,,,,,,,,,,,,1,001,2024-08-22_15h54.19.252,IAT(Formal),2021.2.3,Win32,60.24096386,,,i,1,0.681,0,12,12,31,1,散漫,i,,,,,,,,,,,,,,,,,,,,,,,,,,,,,,,,,,,,,,,,,,,,,,,,,,,,,
,,,,,,,,,,,,,,1,001,2024-08-22_15h54.19.252,IAT(Formal),2021.2.3,Win32,60.24096386,,,i,1,0.5751,0,13,13,38,1,轻率,i,,,,,,,,,,,,,,,,,,,,,,,,,,,,,,,,,,,,,,,,,,,,,,,,,,,,,
,,,,,,,,,,,,,,1,001,2024-08-22_15h54.19.252,IAT(Formal),2021.2.3,Win32,60.24096386,,,e,1,0.4684,0,14,14,8,1,勤奋,e,,,,,,,,,,,,,,,,,,,,,,,,,,,,,,,,,,,,,,,,,,,,,,,,,,,,,
,,,,,,,,,,,,,,1,001,2024-08-22_15h54.19.252,IAT(Formal),2021.2.3,Win32,60.24096386,,,e,1,0.3851,0,15,15,5,1,诚实,e,,,,,,,,,,,,,,,,,,,,,,,,,,,,,,,,,,,,,,,,,,,,,,,,,,,,,
,,,,,,,,,,,,,,1,001,2024-08-22_15h54.19.252,IAT(Formal),2021.2.3,Win32,60.24096386,,,i,1,0.5351,0,16,16,28,1,鲁莽,i,,,,,,,,,,,,,,,,,,,,,,,,,,,,,,,,,,,,,,,,,,,,,,,,,,,,,
,,,,,,,,,,,,,,1,001,2024-08-22_15h54.19.252,IAT(Formal),2021.2.3,Win32,60.24096386,,,i,1,0.4551,0,17,17,22,1,愚蠢,i,,,,,,,,,,,,,,,,,,,,,,,,,,,,,,,,,,,,,,,,,,,,,,,,,,,,,
,,,,,,,,,,,,,,1,001,2024-08-22_15h54.19.252,IAT(Formal),2021.2.3,Win32,60.24096386,,,e,1,0.5149,0,18,18,17,1,热情,e,,,,,,,,,,,,,,,,,,,,,,,,,,,,,,,,,,,,,,,,,,,,,,,,,,,,,
,,,,,,,,,,,,,,1,001,2024-08-22_15h54.19.252,IAT(Formal),2021.2.3,Win32,60.24096386,,,e,1,0.3981,0,19,19,14,1,朴实,e,,,,,,,,,,,,,,,,,,,,,,,,,,,,,,,,,,,,,,,,,,,,,,,,,,,,,
,,,,,,,,,,,,,,1,001,2024-08-22_15h54.19.252,IAT(Formal),2021.2.3,Win32,60.24096386,,,e,1,0.5345,0,20,20,11,1,稳重,e,,,,,,,,,,,,,,,,,,,,,,,,,,,,,,,,,,,,,,,,,,,,,,,,,,,,,
,,,,,,,,,,,,,,1,001,2024-08-22_15h54.19.252,IAT(Formal),2021.2.3,Win32,60.24096386,,,e,1,0.4485,0,21,21,15,1,细腻,e,,,,,,,,,,,,,,,,,,,,,,,,,,,,,,,,,,,,,,,,,,,,,,,,,,,,,
,,,,,,,,,,,,,,1,001,2024-08-22_15h54.19.252,IAT(Formal),2021.2.3,Win32,60.24096386,,,e,0,0.3331,0,22,22,30,1,执拗,i,,,,,,,,,,,,,,,,,,,,,,,,,,,,,,,,,,,,,,,,,,,,,,,,,,,,,
,,,,,,,,,,,,,,1,001,2024-08-22_15h54.19.252,IAT(Formal),2021.2.3,Win32,60.24096386,,,i,1,0.4834,0,23,23,33,1,自私,i,,,,,,,,,,,,,,,,,,,,,,,,,,,,,,,,,,,,,,,,,,,,,,,,,,,,,
,,,,,,,,,,,,,,1,001,2024-08-22_15h54.19.252,IAT(Formal),2021.2.3,Win32,60.24096386,,,i,1,0.9464,0,24,24,27,1,傲慢,i,,,,,,,,,,,,,,,,,,,,,,,,,,,,,,,,,,,,,,,,,,,,,,,,,,,,,
,,,,,,,,,,,,,,1,001,2024-08-22_15h54.19.252,IAT(Formal),2021.2.3,Win32,60.24096386,,,e,1,0.5292,0,25,25,18,1,活泼,e,,,,,,,,,,,,,,,,,,,,,,,,,,,,,,,,,,,,,,,,,,,,,,,,,,,,,
,,,,,,,,,,,,,,1,001,2024-08-22_15h54.19.252,IAT(Formal),2021.2.3,Win32,60.24096386,,,i,1,0.6772,0,26,26,37,1,固执,i,,,,,,,,,,,,,,,,,,,,,,,,,,,,,,,,,,,,,,,,,,,,,,,,,,,,,
,,,,,,,,,,,,,,1,001,2024-08-22_15h54.19.252,IAT(Formal),2021.2.3,Win32,60.24096386,,,i,1,0.5077,0,27,27,20,1,卑鄙,i,,,,,,,,,,,,,,,,,,,,,,,,,,,,,,,,,,,,,,,,,,,,,,,,,,,,,
,,,,,,,,,,,,,,1,001,2024-08-22_15h54.19.252,IAT(Formal),2021.2.3,Win32,60.24096386,,,i,1,0.5257,0,28,28,29,1,冒失,i,,,,,,,,,,,,,,,,,,,,,,,,,,,,,,,,,,,,,,,,,,,,,,,,,,,,,
,,,,,,,,,,,,,,1,001,2024-08-22_15h54.19.252,IAT(Formal),2021.2.3,Win32,60.24096386,,,i,1,0.4818,0,29,29,39,1,下贱,i,,,,,,,,,,,,,,,,,,,,,,,,,,,,,,,,,,,,,,,,,,,,,,,,,,,,,
,,,,,,,,,,,,,,1,001,2024-08-22_15h54.19.252,IAT(Formal),2021.2.3,Win32,60.24096386,,,e,1,0.564,0,30,30,9,1,机智,e,,,,,,,,,,,,,,,,,,,,,,,,,,,,,,,,,,,,,,,,,,,,,,,,,,,,,
,,,,,,,,,,,,,,1,001,2024-08-22_15h54.19.252,IAT(Formal),2021.2.3,Win32,60.24096386,,,e,1,0.4397,0,31,31,2,1,聪明,e,,,,,,,,,,,,,,,,,,,,,,,,,,,,,,,,,,,,,,,,,,,,,,,,,,,,,
,,,,,,,,,,,,,,1,001,2024-08-22_15h54.19.252,IAT(Formal),2021.2.3,Win32,60.24096386,,,i,1,0.4851,0,32,32,25,1,消极,i,,,,,,,,,,,,,,,,,,,,,,,,,,,,,,,,,,,,,,,,,,,,,,,,,,,,,
,,,,,,,,,,,,,,1,001,2024-08-22_15h54.19.252,IAT(Formal),2021.2.3,Win32,60.24096386,,,e,1,0.4655,0,33,33,19,1,诚恳,e,,,,,,,,,,,,,,,,,,,,,,,,,,,,,,,,,,,,,,,,,,,,,,,,,,,,,
,,,,,,,,,,,,,,1,001,2024-08-22_15h54.19.252,IAT(Formal),2021.2.3,Win32,60.24096386,,,i,1,0.5218,0,34,34,34,1,暴躁,i,,,,,,,,,,,,,,,,,,,,,,,,,,,,,,,,,,,,,,,,,,,,,,,,,,,,,
,,,,,,,,,,,,,,1,001,2024-08-22_15h54.19.252,IAT(Formal),2021.2.3,Win32,60.24096386,,,e,1,0.5252,0,35,35,6,1,正直,e,,,,,,,,,,,,,,,,,,,,,,,,,,,,,,,,,,,,,,,,,,,,,,,,,,,,,
,,,,,,,,,,,,,,1,001,2024-08-22_15h54.19.252,IAT(Formal),2021.2.3,Win32,60.24096386,,,e,1,0.4514,0,36,36,4,1,乐观,e,,,,,,,,,,,,,,,,,,,,,,,,,,,,,,,,,,,,,,,,,,,,,,,,,,,,,
,,,,,,,,,,,,,,1,001,2024-08-22_15h54.19.252,IAT(Formal),2021.2.3,Win32,60.24096386,,,i,1,0.5533,0,37,37,35,1,猖狂,i,,,,,,,,,,,,,,,,,,,,,,,,,,,,,,,,,,,,,,,,,,,,,,,,,,,,,
,,,,,,,,,,,,,,1,001,2024-08-22_15h54.19.252,IAT(Formal),2021.2.3,Win32,60.24096386,,,i,1,0.9487,0,38,38,36,1,野蛮,i,,,,,,,,,,,,,,,,,,,,,,,,,,,,,,,,,,,,,,,,,,,,,,,,,,,,,
,,,,,,,,,,,,,,1,001,2024-08-22_15h54.19.252,IAT(Formal),2021.2.3,Win32,60.24096386,,,e,1,0.85,0,39,39,3,1,杰出,e,,,,,,,,,,,,,,,,,,,,,,,,,,,,,,,,,,,,,,,,,,,,,,,,,,,,,
,,,,,,,,,,,,,,1,001,2024-08-22_15h54.19.252,IAT(Formal),2021.2.3,Win32,60.24096386,,,,,,,,,,,,,space,10.928,e,1,0.5302,0,0,0,29,1,诚恳,e,,,,,,,,,,,,,,,,,,,,,,,,,,,,,,,,,,,,,,,,,
,,,,,,,,,,,,,,1,001,2024-08-22_15h54.19.252,IAT(Formal),2021.2.3,Win32,60.24096386,,,,,,,,,,,,,,,i,1,0.5563,0,1,1,68,1,他人,i,,,,,,,,,,,,,,,,,,,,,,,,,,,,,,,,,,,,,,,,,
,,,,,,,,,,,,,,1,001,2024-08-22_15h54.19.252,IAT(Formal),2021.2.3,Win32,60.24096386,,,,,,,,,,,,,,,e,1,0.5008,0,2,2,14,1,乐观,e,,,,,,,,,,,,,,,,,,,,,,,,,,,,,,,,,,,,,,,,,
,,,,,,,,,,,,,,1,001,2024-08-22_15h54.19.252,IAT(Formal),2021.2.3,Win32,60.24096386,,,,,,,,,,,,,,,e,1,0.5348,0,3,3,11,1,崇高,e,,,,,,,,,,,,,,,,,,,,,,,,,,,,,,,,,,,,,,,,,
,,,,,,,,,,,,,,1,001,2024-08-22_15h54.19.252,IAT(Formal),2021.2.3,Win32,60.24096386,,,,,,,,,,,,,,,i,1,0.5173,0,4,4,75,1,他,i,,,,,,,,,,,,,,,,,,,,,,,,,,,,,,,,,,,,,,,,,
,,,,,,,,,,,,,,1,001,2024-08-22_15h54.19.252,IAT(Formal),2021.2.3,Win32,60.24096386,,,,,,,,,,,,,,,i,1,0.4421,0,5,5,36,1,自卑,i,,,,,,,,,,,,,,,,,,,,,,,,,,,,,,,,,,,,,,,,,
,,,,,,,,,,,,,,1,001,2024-08-22_15h54.19.252,IAT(Formal),2021.2.3,Win32,60.24096386,,,,,,,,,,,,,,,e,1,0.4691,0,6,6,1,1,我的,e,,,,,,,,,,,,,,,,,,,,,,,,,,,,,,,,,,,,,,,,,
,,,,,,,,,,,,,,1,001,2024-08-22_15h54.19.252,IAT(Formal),2021.2.3,Win32,60.24096386,,,,,,,,,,,,,,,i,1,0.6006,0,7,7,7,1,他的,i,,,,,,,,,,,,,,,,,,,,,,,,,,,,,,,,,,,,,,,,,
,,,,,,,,,,,,,,1,001,2024-08-22_15h54.19.252,IAT(Formal),2021.2.3,Win32,60.24096386,,,,,,,,,,,,,,,i,1,0.5011,0,8,8,9,1,其他,i,,,,,,,,,,,,,,,,,,,,,,,,,,,,,,,,,,,,,,,,,
,,,,,,,,,,,,,,1,001,2024-08-22_15h54.19.252,IAT(Formal),2021.2.3,Win32,60.24096386,,,,,,,,,,,,,,,,0,,0,9,9,43,1,自私,i,,,,,,,,,,,,,,,,,,,,,,,,,,,,,,,,,,,,,,,,,
,,,,,,,,,,,,,,1,001,2024-08-22_15h54.19.252,IAT(Formal),2021.2.3,Win32,60.24096386,,,,,,,,,,,,,,,e,1,0.5632,0,10,10,0,1,我,e,,,,,,,,,,,,,,,,,,,,,,,,,,,,,,,,,,,,,,,,,
,,,,,,,,,,,,,,1,001,2024-08-22_15h54.19.252,IAT(Formal),2021.2.3,Win32,60.24096386,,,,,,,,,,,,,,,i,1,0.5498,0,11,11,46,1,野蛮,i,,,,,,,,,,,,,,,,,,,,,,,,,,,,,,,,,,,,,,,,,
,,,,,,,,,,,,,,1,001,2024-08-22_15h54.19.252,IAT(Formal),2021.2.3,Win32,60.24096386,,,,,,,,,,,,,,,e,1,0.6171,0,12,12,25,1,细腻,e,,,,,,,,,,,,,,,,,,,,,,,,,,,,,,,,,,,,,,,,,
,,,,,,,,,,,,,,1,001,2024-08-22_15h54.19.252,IAT(Formal),2021.2.3,Win32,60.24096386,,,,,,,,,,,,,,,i,1,0.7588,0,13,13,37,1,傲慢,i,,,,,,,,,,,,,,,,,,,,,,,,,,,,,,,,,,,,,,,,,
,,,,,,,,,,,,,,1,001,2024-08-22_15h54.19.252,IAT(Formal),2021.2.3,Win32,60.24096386,,,,,,,,,,,,,,,i,1,0.6338,0,14,14,39,1,冒失,i,,,,,,,,,,,,,,,,,,,,,,,,,,,,,,,,,,,,,,,,,
,,,,,,,,,,,,,,1,001,2024-08-22_15h54.19.252,IAT(Formal),2021.2.3,Win32,60.24096386,,,,,,,,,,,,,,,i,1,0.5341,0,15,15,78,1,他人,i,,,,,,,,,,,,,,,,,,,,,,,,,,,,,,,,,,,,,,,,,
,,,,,,,,,,,,,,1,001,2024-08-22_15h54.19.252,IAT(Formal),2021.2.3,Win32,60.24096386,,,,,,,,,,,,,,,i,1,0.5259,0,16,16,69,1,其他,i,,,,,,,,,,,,,,,,,,,,,,,,,,,,,,,,,,,,,,,,,
,,,,,,,,,,,,,,1,001,2024-08-22_15h54.19.252,IAT(Formal),2021.2.3,Win32,60.24096386,,,,,,,,,,,,,,,i,1,0.5002,0,17,17,55,1,他,i,,,,,,,,,,,,,,,,,,,,,,,,,,,,,,,,,,,,,,,,,
,,,,,,,,,,,,,,1,001,2024-08-22_15h54.19.252,IAT(Formal),2021.2.3,Win32,60.24096386,,,,,,,,,,,,,,,i,1,0.4754,0,18,18,76,1,他们,i,,,,,,,,,,,,,,,,,,,,,,,,,,,,,,,,,,,,,,,,,
,,,,,,,,,,,,,,1,001,2024-08-22_15h54.19.252,IAT(Formal),2021.2.3,Win32,60.24096386,,,,,,,,,,,,,,,i,1,0.445,0,19,19,49,1,下贱,i,,,,,,,,,,,,,,,,,,,,,,,,,,,,,,,,,,,,,,,,,
,,,,,,,,,,,,,,1,001,2024-08-22_15h54.19.252,IAT(Formal),2021.2.3,Win32,60.24096386,,,,,,,,,,,,,,,i,1,0.4429,0,20,20,57,1,他的,i,,,,,,,,,,,,,,,,,,,,,,,,,,,,,,,,,,,,,,,,,
,,,,,,,,,,,,,,1,001,2024-08-22_15h54.19.252,IAT(Formal),2021.2.3,Win32,60.24096386,,,,,,,,,,,,,,,e,1,0.5013,0,21,21,13,1,杰出,e,,,,,,,,,,,,,,,,,,,,,,,,,,,,,,,,,,,,,,,,,
,,,,,,,,,,,,,,1,001,2024-08-22_15h54.19.252,IAT(Formal),2021.2.3,Win32,60.24096386,,,,,,,,,,,,,,,i,1,0.528,0,22,22,79,1,其他,i,,,,,,,,,,,,,,,,,,,,,,,,,,,,,,,,,,,,,,,,,
,,,,,,,,,,,,,,1,001,2024-08-22_15h54.19.252,IAT(Formal),2021.2.3,Win32,60.24096386,,,,,,,,,,,,,,,e,1,0.5005,0,23,23,2,1,我们,e,,,,,,,,,,,,,,,,,,,,,,,,,,,,,,,,,,,,,,,,,
,,,,,,,,,,,,,,1,001,2024-08-22_15h54.19.252,IAT(Formal),2021.2.3,Win32,60.24096386,,,,,,,,,,,,,,,i,1,0.5165,0,24,24,38,1,鲁莽,i,,,,,,,,,,,,,,,,,,,,,,,,,,,,,,,,,,,,,,,,,
,,,,,,,,,,,,,,1,001,2024-08-22_15h54.19.252,IAT(Formal),2021.2.3,Win32,60.24096386,,,,,,,,,,,,,,,e,1,0.5443,0,25,25,19,1,机智,e,,,,,,,,,,,,,,,,,,,,,,,,,,,,,,,,,,,,,,,,,
,,,,,,,,,,,,,,1,001,2024-08-22_15h54.19.252,IAT(Formal),2021.2.3,Win32,60.24096386,,,,,,,,,,,,,,,i,1,0.4626,0,26,26,66,1,他们,i,,,,,,,,,,,,,,,,,,,,,,,,,,,,,,,,,,,,,,,,,
,,,,,,,,,,,,,,1,001,2024-08-22_15h54.19.252,IAT(Formal),2021.2.3,Win32,60.24096386,,,,,,,,,,,,,,,i,1,0.5556,0,27,27,67,1,他的,i,,,,,,,,,,,,,,,,,,,,,,,,,,,,,,,,,,,,,,,,,
,,,,,,,,,,,,,,1,001,2024-08-22_15h54.19.252,IAT(Formal),2021.2.3,Win32,60.24096386,,,,,,,,,,,,,,,e,1,0.467,0,28,28,20,1,认真,e,,,,,,,,,,,,,,,,,,,,,,,,,,,,,,,,,,,,,,,,,
,,,,,,,,,,,,,,1,001,2024-08-22_15h54.19.252,IAT(Formal),2021.2.3,Win32,60.24096386,,,,,,,,,,,,,,,e,1,0.5381,0,29,29,27,1,热情,e,,,,,,,,,,,,,,,,,,,,,,,,,,,,,,,,,,,,,,,,,
,,,,,,,,,,,,,,1,001,2024-08-22_15h54.19.252,IAT(Formal),2021.2.3,Win32,60.24096386,,,,,,,,,,,,,,,e,0,0.5927,0,30,30,58,1,他人,i,,,,,,,,,,,,,,,,,,,,,,,,,,,,,,,,,,,,,,,,,
,,,,,,,,,,,,,,1,001,2024-08-22_15h54.19.252,IAT(Formal),2021.2.3,Win32,60.24096386,,,,,,,,,,,,,,,e,1,0.4335,0,31,31,52,1,我们,e,,,,,,,,,,,,,,,,,,,,,,,,,,,,,,,,,,,,,,,,,
,,,,,,,,,,,,,,1,001,2024-08-22_15h54.19.252,IAT(Formal),2021.2.3,Win32,60.24096386,,,,,,,,,,,,,,,e,1,0.3345,0,32,32,71,1,我的,e,,,,,,,,,,,,,,,,,,,,,,,,,,,,,,,,,,,,,,,,,
,,,,,,,,,,,,,,1,001,2024-08-22_15h54.19.252,IAT(Formal),2021.2.3,Win32,60.24096386,,,,,,,,,,,,,,,e,1,0.5004,0,33,33,74,1,俺,e,,,,,,,,,,,,,,,,,,,,,,,,,,,,,,,,,,,,,,,,,
,,,,,,,,,,,,,,1,001,2024-08-22_15h54.19.252,IAT(Formal),2021.2.3,Win32,60.24096386,,,,,,,,,,,,,,,i,1,0.4833,0,34,34,5,1,他,i,,,,,,,,,,,,,,,,,,,,,,,,,,,,,,,,,,,,,,,,,
,,,,,,,,,,,,,,1,001,2024-08-22_15h54.19.252,IAT(Formal),2021.2.3,Win32,60.24096386,,,,,,,,,,,,,,,i,1,0.386,0,35,35,77,1,他的,i,,,,,,,,,,,,,,,,,,,,,,,,,,,,,,,,,,,,,,,,,
,,,,,,,,,,,,,,1,001,2024-08-22_15h54.19.252,IAT(Formal),2021.2.3,Win32,60.24096386,,,,,,,,,,,,,,,e,1,0.4968,0,36,36,70,1,我,e,,,,,,,,,,,,,,,,,,,,,,,,,,,,,,,,,,,,,,,,,
,,,,,,,,,,,,,,1,001,2024-08-22_15h54.19.252,IAT(Formal),2021.2.3,Win32,60.24096386,,,,,,,,,,,,,,,e,1,0.4833,0,37,37,23,1,公正,e,,,,,,,,,,,,,,,,,,,,,,,,,,,,,,,,,,,,,,,,,
,,,,,,,,,,,,,,1,001,2024-08-22_15h54.19.252,IAT(Formal),2021.2.3,Win32,60.24096386,,,,,,,,,,,,,,,i,1,0.4762,0,38,38,35,1,消极,i,,,,,,,,,,,,,,,,,,,,,,,,,,,,,,,,,,,,,,,,,
,,,,,,,,,,,,,,1,001,2024-08-22_15h54.19.252,IAT(Formal),2021.2.3,Win32,60.24096386,,,,,,,,,,,,,,,e,1,0.5281,0,39,39,50,1,我,e,,,,,,,,,,,,,,,,,,,,,,,,,,,,,,,,,,,,,,,,,
,,,,,,,,,,,,,,1,001,2024-08-22_15h54.19.252,IAT(Formal),2021.2.3,Win32,60.24096386,,,,,,,,,,,,,,,i,1,0.8865,0,40,40,40,1,执拗,i,,,,,,,,,,,,,,,,,,,,,,,,,,,,,,,,,,,,,,,,,
,,,,,,,,,,,,,,1,001,2024-08-22_15h54.19.252,IAT(Formal),2021.2.3,Win32,60.24096386,,,,,,,,,,,,,,,e,1,0.4678,0,41,41,28,1,活泼,e,,,,,,,,,,,,,,,,,,,,,,,,,,,,,,,,,,,,,,,,,
,,,,,,,,,,,,,,1,001,2024-08-22_15h54.19.252,IAT(Formal),2021.2.3,Win32,60.24096386,,,,,,,,,,,,,,,i,1,0.4932,0,42,42,32,1,愚蠢,i,,,,,,,,,,,,,,,,,,,,,,,,,,,,,,,,,,,,,,,,,
,,,,,,,,,,,,,,1,001,2024-08-22_15h54.19.252,IAT(Formal),2021.2.3,Win32,60.24096386,,,,,,,,,,,,,,,i,1,0.5275,0,43,43,34,1,悲观,i,,,,,,,,,,,,,,,,,,,,,,,,,,,,,,,,,,,,,,,,,
,,,,,,,,,,,,,,1,001,2024-08-22_15h54.19.252,IAT(Formal),2021.2.3,Win32,60.24096386,,,,,,,,,,,,,,,e,1,0.5519,0,44,44,12,1,聪明,e,,,,,,,,,,,,,,,,,,,,,,,,,,,,,,,,,,,,,,,,,
,,,,,,,,,,,,,,1,001,2024-08-22_15h54.19.252,IAT(Formal),2021.2.3,Win32,60.24096386,,,,,,,,,,,,,,,e,1,0.568,0,45,45,24,1,朴实,e,,,,,,,,,,,,,,,,,,,,,,,,,,,,,,,,,,,,,,,,,
,,,,,,,,,,,,,,1,001,2024-08-22_15h54.19.252,IAT(Formal),2021.2.3,Win32,60.24096386,,,,,,,,,,,,,,,i,1,0.492,0,46,46,65,1,他,i,,,,,,,,,,,,,,,,,,,,,,,,,,,,,,,,,,,,,,,,,
,,,,,,,,,,,,,,1,001,2024-08-22_15h54.19.252,IAT(Formal),2021.2.3,Win32,60.24096386,,,,,,,,,,,,,,,i,1,0.5799,0,47,47,59,1,其他,i,,,,,,,,,,,,,,,,,,,,,,,,,,,,,,,,,,,,,,,,,
,,,,,,,,,,,,,,1,001,2024-08-22_15h54.19.252,IAT(Formal),2021.2.3,Win32,60.24096386,,,,,,,,,,,,,,,e,1,0.5167,0,48,48,3,1,自己,e,,,,,,,,,,,,,,,,,,,,,,,,,,,,,,,,,,,,,,,,,
,,,,,,,,,,,,,,1,001,2024-08-22_15h54.19.252,IAT(Formal),2021.2.3,Win32,60.24096386,,,,,,,,,,,,,,,e,1,0.5728,0,49,49,61,1,我的,e,,,,,,,,,,,,,,,,,,,,,,,,,,,,,,,,,,,,,,,,,
,,,,,,,,,,,,,,1,001,2024-08-22_15h54.19.252,IAT(Formal),2021.2.3,Win32,60.24096386,,,,,,,,,,,,,,,e,1,0.4884,0,50,50,54,1,俺,e,,,,,,,,,,,,,,,,,,,,,,,,,,,,,,,,,,,,,,,,,
,,,,,,,,,,,,,,1,001,2024-08-22_15h54.19.252,IAT(Formal),2021.2.3,Win32,60.24096386,,,,,,,,,,,,,,,i,1,0.5631,0,51,51,33,1,刻薄,i,,,,,,,,,,,,,,,,,,,,,,,,,,,,,,,,,,,,,,,,,
,,,,,,,,,,,,,,1,001,2024-08-22_15h54.19.252,IAT(Formal),2021.2.3,Win32,60.24096386,,,,,,,,,,,,,,,i,1,0.5344,0,52,52,6,1,他们,i,,,,,,,,,,,,,,,,,,,,,,,,,,,,,,,,,,,,,,,,,
,,,,,,,,,,,,,,1,001,2024-08-22_15h54.19.252,IAT(Formal),2021.2.3,Win32,60.24096386,,,,,,,,,,,,,,,e,1,0.464,0,53,53,62,1,我们,e,,,,,,,,,,,,,,,,,,,,,,,,,,,,,,,,,,,,,,,,,
,,,,,,,,,,,,,,1,001,2024-08-22_15h54.19.252,IAT(Formal),2021.2.3,Win32,60.24096386,,,,,,,,,,,,,,,e,1,0.4799,0,54,54,10,1,优秀,e,,,,,,,,,,,,,,,,,,,,,,,,,,,,,,,,,,,,,,,,,
,,,,,,,,,,,,,,1,001,2024-08-22_15h54.19.252,IAT(Formal),2021.2.3,Win32,60.24096386,,,,,,,,,,,,,,,e,1,0.6717,0,55,55,22,1,无私,e,,,,,,,,,,,,,,,,,,,,,,,,,,,,,,,,,,,,,,,,,
,,,,,,,,,,,,,,1,001,2024-08-22_15h54.19.252,IAT(Formal),2021.2.3,Win32,60.24096386,,,,,,,,,,,,,,,e,1,0.3715,0,56,56,51,1,我的,e,,,,,,,,,,,,,,,,,,,,,,,,,,,,,,,,,,,,,,,,,
,,,,,,,,,,,,,,1,001,2024-08-22_15h54.19.252,IAT(Formal),2021.2.3,Win32,60.24096386,,,,,,,,,,,,,,,i,1,0.5067,0,57,57,30,1,卑鄙,i,,,,,,,,,,,,,,,,,,,,,,,,,,,,,,,,,,,,,,,,,
,,,,,,,,,,,,,,1,001,2024-08-22_15h54.19.252,IAT(Formal),2021.2.3,Win32,60.24096386,,,,,,,,,,,,,,,e,1,0.4292,0,58,58,60,1,我,e,,,,,,,,,,,,,,,,,,,,,,,,,,,,,,,,,,,,,,,,,
,,,,,,,,,,,,,,1,001,2024-08-22_15h54.19.252,IAT(Formal),2021.2.3,Win32,60.24096386,,,,,,,,,,,,,,,i,1,1.2175,0,59,59,47,1,固执,i,,,,,,,,,,,,,,,,,,,,,,,,,,,,,,,,,,,,,,,,,
,,,,,,,,,,,,,,1,001,2024-08-22_15h54.19.252,IAT(Formal),2021.2.3,Win32,60.24096386,,,,,,,,,,,,,,,i,1,0.6888,0,60,60,41,1,散漫,i,,,,,,,,,,,,,,,,,,,,,,,,,,,,,,,,,,,,,,,,,
,,,,,,,,,,,,,,1,001,2024-08-22_15h54.19.252,IAT(Formal),2021.2.3,Win32,60.24096386,,,,,,,,,,,,,,,i,1,0.5289,0,61,61,42,1,凶狠,i,,,,,,,,,,,,,,,,,,,,,,,,,,,,,,,,,,,,,,,,,
,,,,,,,,,,,,,,1,001,2024-08-22_15h54.19.252,IAT(Formal),2021.2.3,Win32,60.24096386,,,,,,,,,,,,,,,e,1,0.4889,0,62,62,17,1,勇敢,e,,,,,,,,,,,,,,,,,,,,,,,,,,,,,,,,,,,,,,,,,
,,,,,,,,,,,,,,1,001,2024-08-22_15h54.19.252,IAT(Formal),2021.2.3,Win32,60.24096386,,,,,,,,,,,,,,,e,1,0.396,0,63,63,72,1,我们,e,,,,,,,,,,,,,,,,,,,,,,,,,,,,,,,,,,,,,,,,,
,,,,,,,,,,,,,,1,001,2024-08-22_15h54.19.252,IAT(Formal),2021.2.3,Win32,60.24096386,,,,,,,,,,,,,,,i,1,0.5044,0,64,64,48,1,轻率,i,,,,,,,,,,,,,,,,,,,,,,,,,,,,,,,,,,,,,,,,,
,,,,,,,,,,,,,,1,001,2024-08-22_15h54.19.252,IAT(Formal),2021.2.3,Win32,60.24096386,,,,,,,,,,,,,,,e,1,0.5388,0,65,65,18,1,勤奋,e,,,,,,,,,,,,,,,,,,,,,,,,,,,,,,,,,,,,,,,,,
,,,,,,,,,,,,,,1,001,2024-08-22_15h54.19.252,IAT(Formal),2021.2.3,Win32,60.24096386,,,,,,,,,,,,,,,e,1,0.4104,0,66,66,16,1,正直,e,,,,,,,,,,,,,,,,,,,,,,,,,,,,,,,,,,,,,,,,,
,,,,,,,,,,,,,,1,001,2024-08-22_15h54.19.252,IAT(Formal),2021.2.3,Win32,60.24096386,,,,,,,,,,,,,,,e,1,0.4235,0,67,67,4,1,俺,e,,,,,,,,,,,,,,,,,,,,,,,,,,,,,,,,,,,,,,,,,
,,,,,,,,,,,,,,1,001,2024-08-22_15h54.19.252,IAT(Formal),2021.2.3,Win32,60.24096386,,,,,,,,,,,,,,,e,1,0.3619,0,68,68,63,1,自己,e,,,,,,,,,,,,,,,,,,,,,,,,,,,,,,,,,,,,,,,,,
,,,,,,,,,,,,,,1,001,2024-08-22_15h54.19.252,IAT(Formal),2021.2.3,Win32,60.24096386,,,,,,,,,,,,,,,i,1,0.5828,0,69,69,56,1,他们,i,,,,,,,,,,,,,,,,,,,,,,,,,,,,,,,,,,,,,,,,,
,,,,,,,,,,,,,,1,001,2024-08-22_15h54.19.252,IAT(Formal),2021.2.3,Win32,60.24096386,,,,,,,,,,,,,,,e,1,0.3792,0,70,70,64,1,俺,e,,,,,,,,,,,,,,,,,,,,,,,,,,,,,,,,,,,,,,,,,
,,,,,,,,,,,,,,1,001,2024-08-22_15h54.19.252,IAT(Formal),2021.2.3,Win32,60.24096386,,,,,,,,,,,,,,,i,1,0.6602,0,71,71,45,1,猖狂,i,,,,,,,,,,,,,,,,,,,,,,,,,,,,,,,,,,,,,,,,,
,,,,,,,,,,,,,,1,001,2024-08-22_15h54.19.252,IAT(Formal),2021.2.3,Win32,60.24096386,,,,,,,,,,,,,,,e,1,0.4373,0,72,72,73,1,自己,e,,,,,,,,,,,,,,,,,,,,,,,,,,,,,,,,,,,,,,,,,
,,,,,,,,,,,,,,1,001,2024-08-22_15h54.19.252,IAT(Formal),2021.2.3,Win32,60.24096386,,,,,,,,,,,,,,,e,1,0.6863,0,73,73,26,1,冷静,e,,,,,,,,,,,,,,,,,,,,,,,,,,,,,,,,,,,,,,,,,
,,,,,,,,,,,,,,1,001,2024-08-22_15h54.19.252,IAT(Formal),2021.2.3,Win32,60.24096386,,,,,,,,,,,,,,,e,1,0.4053,0,74,74,15,1,诚实,e,,,,,,,,,,,,,,,,,,,,,,,,,,,,,,,,,,,,,,,,,
,,,,,,,,,,,,,,1,001,2024-08-22_15h54.19.252,IAT(Formal),2021.2.3,Win32,60.24096386,,,,,,,,,,,,,,,e,1,0.4019,0,75,75,21,1,稳重,e,,,,,,,,,,,,,,,,,,,,,,,,,,,,,,,,,,,,,,,,,
,,,,,,,,,,,,,,1,001,2024-08-22_15h54.19.252,IAT(Formal),2021.2.3,Win32,60.24096386,,,,,,,,,,,,,,,e,1,0.3831,0,76,76,53,1,自己,e,,,,,,,,,,,,,,,,,,,,,,,,,,,,,,,,,,,,,,,,,
,,,,,,,,,,,,,,1,001,2024-08-22_15h54.19.252,IAT(Formal),2021.2.3,Win32,60.24096386,,,,,,,,,,,,,,,i,1,0.46,0,77,77,31,1,虚伪,i,,,,,,,,,,,,,,,,,,,,,,,,,,,,,,,,,,,,,,,,,
,,,,,,,,,,,,,,1,001,2024-08-22_15h54.19.252,IAT(Formal),2021.2.3,Win32,60.24096386,,,,,,,,,,,,,,,i,1,0.5002,0,78,78,8,1,他人,i,,,,,,,,,,,,,,,,,,,,,,,,,,,,,,,,,,,,,,,,,
,,,,,,,,,,,,,,1,001,2024-08-22_15h54.19.252,IAT(Formal),2021.2.3,Win32,60.24096386,,,,,,,,,,,,,,,i,1,0.5248,0,79,79,44,1,暴躁,i,,,,,,,,,,,,,,,,,,,,,,,,,,,,,,,,,,,,,,,,,
,,,,,,,,,,,,,,1,001,2024-08-22_15h54.19.252,IAT(Formal),2021.2.3,Win32,60.24096386,,,,,,,,,,,,,,,i,1,0.5957,,,,,,他们,i,space,34.8742,0,0,0,76,1,,,,,,,,,,,,,,,,,,,,,,,,,,,,,,,,,,
,,,,,,,,,,,,,,1,001,2024-08-22_15h54.19.252,IAT(Formal),2021.2.3,Win32,60.24096386,,,,,,,,,,,,,,,i,1,0.4384,,,,,,他们,i,,,0,1,1,56,1,,,,,,,,,,,,,,,,,,,,,,,,,,,,,,,,,,
,,,,,,,,,,,,,,1,001,2024-08-22_15h54.19.252,IAT(Formal),2021.2.3,Win32,60.24096386,,,,,,,,,,,,,,,i,1,0.6167,,,,,,下贱,i,,,0,2,2,49,1,,,,,,,,,,,,,,,,,,,,,,,,,,,,,,,,,,
,,,,,,,,,,,,,,1,001,2024-08-22_15h54.19.252,IAT(Formal),2021.2.3,Win32,60.24096386,,,,,,,,,,,,,,,e,1,0.411,,,,,,自己,e,,,0,3,3,63,1,,,,,,,,,,,,,,,,,,,,,,,,,,,,,,,,,,
,,,,,,,,,,,,,,1,001,2024-08-22_15h54.19.252,IAT(Formal),2021.2.3,Win32,60.24096386,,,,,,,,,,,,,,,e,1,0.437,,,,,,俺,e,,,0,4,4,64,1,,,,,,,,,,,,,,,,,,,,,,,,,,,,,,,,,,
,,,,,,,,,,,,,,1,001,2024-08-22_15h54.19.252,IAT(Formal),2021.2.3,Win32,60.24096386,,,,,,,,,,,,,,,e,1,0.5063,,,,,,诚恳,e,,,0,5,5,29,1,,,,,,,,,,,,,,,,,,,,,,,,,,,,,,,,,,
,,,,,,,,,,,,,,1,001,2024-08-22_15h54.19.252,IAT(Formal),2021.2.3,Win32,60.24096386,,,,,,,,,,,,,,,i,1,0.5533,,,,,,其他,i,,,0,6,6,69,1,,,,,,,,,,,,,,,,,,,,,,,,,,,,,,,,,,
,,,,,,,,,,,,,,1,001,2024-08-22_15h54.19.252,IAT(Formal),2021.2.3,Win32,60.24096386,,,,,,,,,,,,,,,e,1,0.6755,,,,,,聪明,e,,,0,7,7,12,1,,,,,,,,,,,,,,,,,,,,,,,,,,,,,,,,,,
,,,,,,,,,,,,,,1,001,2024-08-22_15h54.19.252,IAT(Formal),2021.2.3,Win32,60.24096386,,,,,,,,,,,,,,,e,1,0.451,,,,,,我,e,,,0,8,8,70,1,,,,,,,,,,,,,,,,,,,,,,,,,,,,,,,,,,
,,,,,,,,,,,,,,1,001,2024-08-22_15h54.19.252,IAT(Formal),2021.2.3,Win32,60.24096386,,,,,,,,,,,,,,,e,1,0.3841,,,,,,我的,e,,,0,9,9,51,1,,,,,,,,,,,,,,,,,,,,,,,,,,,,,,,,,,
,,,,,,,,,,,,,,1,001,2024-08-22_15h54.19.252,IAT(Formal),2021.2.3,Win32,60.24096386,,,,,,,,,,,,,,,i,1,0.5371,,,,,,执拗,i,,,0,10,10,40,1,,,,,,,,,,,,,,,,,,,,,,,,,,,,,,,,,,
,,,,,,,,,,,,,,1,001,2024-08-22_15h54.19.252,IAT(Formal),2021.2.3,Win32,60.24096386,,,,,,,,,,,,,,,e,1,0.5561,,,,,,乐观,e,,,0,11,11,14,1,,,,,,,,,,,,,,,,,,,,,,,,,,,,,,,,,,
,,,,,,,,,,,,,,1,001,2024-08-22_15h54.19.252,IAT(Formal),2021.2.3,Win32,60.24096386,,,,,,,,,,,,,,,i,1,0.4549,,,,,,他们,i,,,0,12,12,6,1,,,,,,,,,,,,,,,,,,,,,,,,,,,,,,,,,,
,,,,,,,,,,,,,,1,001,2024-08-22_15h54.19.252,IAT(Formal),2021.2.3,Win32,60.24096386,,,,,,,,,,,,,,,i,1,0.4091,,,,,,其他,i,,,0,13,13,79,1,,,,,,,,,,,,,,,,,,,,,,,,,,,,,,,,,,
,,,,,,,,,,,,,,1,001,2024-08-22_15h54.19.252,IAT(Formal),2021.2.3,Win32,60.24096386,,,,,,,,,,,,,,,e,0,0.5265,,,,,,他,i,,,0,14,14,65,1,,,,,,,,,,,,,,,,,,,,,,,,,,,,,,,,,,
,,,,,,,,,,,,,,1,001,2024-08-22_15h54.19.252,IAT(Formal),2021.2.3,Win32,60.24096386,,,,,,,,,,,,,,,i,1,0.4337,,,,,,他,i,,,0,15,15,75,1,,,,,,,,,,,,,,,,,,,,,,,,,,,,,,,,,,
,,,,,,,,,,,,,,1,001,2024-08-22_15h54.19.252,IAT(Formal),2021.2.3,Win32,60.24096386,,,,,,,,,,,,,,,e,1,0.4466,,,,,,我们,e,,,0,16,16,52,1,,,,,,,,,,,,,,,,,,,,,,,,,,,,,,,,,,
,,,,,,,,,,,,,,1,001,2024-08-22_15h54.19.252,IAT(Formal),2021.2.3,Win32,60.24096386,,,,,,,,,,,,,,,i,1,0.5091,,,,,,愚蠢,i,,,0,17,17,32,1,,,,,,,,,,,,,,,,,,,,,,,,,,,,,,,,,,
,,,,,,,,,,,,,,1,001,2024-08-22_15h54.19.252,IAT(Formal),2021.2.3,Win32,60.24096386,,,,,,,,,,,,,,,e,1,0.7232,,,,,,我的,e,,,0,18,18,1,1,,,,,,,,,,,,,,,,,,,,,,,,,,,,,,,,,,
,,,,,,,,,,,,,,1,001,2024-08-22_15h54.19.252,IAT(Formal),2021.2.3,Win32,60.24096386,,,,,,,,,,,,,,,i,1,0.414,,,,,,他人,i,,,0,19,19,78,1,,,,,,,,,,,,,,,,,,,,,,,,,,,,,,,,,,
,,,,,,,,,,,,,,1,001,2024-08-22_15h54.19.252,IAT(Formal),2021.2.3,Win32,60.24096386,,,,,,,,,,,,,,,e,1,0.6187,,,,,,机智,e,,,0,20,20,19,1,,,,,,,,,,,,,,,,,,,,,,,,,,,,,,,,,,
,,,,,,,,,,,,,,1,001,2024-08-22_15h54.19.252,IAT(Formal),2021.2.3,Win32,60.24096386,,,,,,,,,,,,,,,i,1,0.5116,,,,,,他的,i,,,0,21,21,67,1,,,,,,,,,,,,,,,,,,,,,,,,,,,,,,,,,,
,,,,,,,,,,,,,,1,001,2024-08-22_15h54.19.252,IAT(Formal),2021.2.3,Win32,60.24096386,,,,,,,,,,,,,,,i,1,1.1013,,,,,,卑鄙,i,,,0,22,22,30,1,,,,,,,,,,,,,,,,,,,,,,,,,,,,,,,,,,
,,,,,,,,,,,,,,1,001,2024-08-22_15h54.19.252,IAT(Formal),2021.2.3,Win32,60.24096386,,,,,,,,,,,,,,,e,1,0.567,,,,,,无私,e,,,0,23,23,22,1,,,,,,,,,,,,,,,,,,,,,,,,,,,,,,,,,,
,,,,,,,,,,,,,,1,001,2024-08-22_15h54.19.252,IAT(Formal),2021.2.3,Win32,60.24096386,,,,,,,,,,,,,,,e,1,0.5498,,,,,,我的,e,,,0,24,24,61,1,,,,,,,,,,,,,,,,,,,,,,,,,,,,,,,,,,
,,,,,,,,,,,,,,1,001,2024-08-22_15h54.19.252,IAT(Formal),2021.2.3,Win32,60.24096386,,,,,,,,,,,,,,,i,1,0.8212,,,,,,散漫,i,,,0,25,25,41,1,,,,,,,,,,,,,,,,,,,,,,,,,,,,,,,,,,
,,,,,,,,,,,,,,1,001,2024-08-22_15h54.19.252,IAT(Formal),2021.2.3,Win32,60.24096386,,,,,,,,,,,,,,,i,1,1.0378,,,,,,暴躁,i,,,0,26,26,44,1,,,,,,,,,,,,,,,,,,,,,,,,,,,,,,,,,,
,,,,,,,,,,,,,,1,001,2024-08-22_15h54.19.252,IAT(Formal),2021.2.3,Win32,60.24096386,,,,,,,,,,,,,,,i,0,0.5774,,,,,,细腻,e,,,0,27,27,25,1,,,,,,,,,,,,,,,,,,,,,,,,,,,,,,,,,,
,,,,,,,,,,,,,,1,001,2024-08-22_15h54.19.252,IAT(Formal),2021.2.3,Win32,60.24096386,,,,,,,,,,,,,,,e,1,0.517,,,,,,我,e,,,0,28,28,60,1,,,,,,,,,,,,,,,,,,,,,,,,,,,,,,,,,,
,,,,,,,,,,,,,,1,001,2024-08-22_15h54.19.252,IAT(Formal),2021.2.3,Win32,60.24096386,,,,,,,,,,,,,,,e,1,0.9504,,,,,,俺,e,,,0,29,29,54,1,,,,,,,,,,,,,,,,,,,,,,,,,,,,,,,,,,
,,,,,,,,,,,,,,1,001,2024-08-22_15h54.19.252,IAT(Formal),2021.2.3,Win32,60.24096386,,,,,,,,,,,,,,,e,1,0.5673,,,,,,勤奋,e,,,0,30,30,18,1,,,,,,,,,,,,,,,,,,,,,,,,,,,,,,,,,,
,,,,,,,,,,,,,,1,001,2024-08-22_15h54.19.252,IAT(Formal),2021.2.3,Win32,60.24096386,,,,,,,,,,,,,,,e,1,0.4506,,,,,,俺,e,,,0,31,31,4,1,,,,,,,,,,,,,,,,,,,,,,,,,,,,,,,,,,
,,,,,,,,,,,,,,1,001,2024-08-22_15h54.19.252,IAT(Formal),2021.2.3,Win32,60.24096386,,,,,,,,,,,,,,,e,0,0.5875,,,,,,鲁莽,i,,,0,32,32,38,1,,,,,,,,,,,,,,,,,,,,,,,,,,,,,,,,,,
,,,,,,,,,,,,,,1,001,2024-08-22_15h54.19.252,IAT(Formal),2021.2.3,Win32,60.24096386,,,,,,,,,,,,,,,e,1,0.3677,,,,,,自己,e,,,0,33,33,3,1,,,,,,,,,,,,,,,,,,,,,,,,,,,,,,,,,,
,,,,,,,,,,,,,,1,001,2024-08-22_15h54.19.252,IAT(Formal),2021.2.3,Win32,60.24096386,,,,,,,,,,,,,,,e,1,0.5371,,,,,,杰出,e,,,0,34,34,13,1,,,,,,,,,,,,,,,,,,,,,,,,,,,,,,,,,,
,,,,,,,,,,,,,,1,001,2024-08-22_15h54.19.252,IAT(Formal),2021.2.3,Win32,60.24096386,,,,,,,,,,,,,,,i,1,0.5252,,,,,,他人,i,,,0,35,35,68,1,,,,,,,,,,,,,,,,,,,,,,,,,,,,,,,,,,
,,,,,,,,,,,,,,1,001,2024-08-22_15h54.19.252,IAT(Formal),2021.2.3,Win32,60.24096386,,,,,,,,,,,,,,,e,1,0.4853,,,,,,俺,e,,,0,36,36,74,1,,,,,,,,,,,,,,,,,,,,,,,,,,,,,,,,,,
,,,,,,,,,,,,,,1,001,2024-08-22_15h54.19.252,IAT(Formal),2021.2.3,Win32,60.24096386,,,,,,,,,,,,,,,i,1,0.4873,,,,,,他,i,,,0,37,37,5,1,,,,,,,,,,,,,,,,,,,,,,,,,,,,,,,,,,
,,,,,,,,,,,,,,1,001,2024-08-22_15h54.19.252,IAT(Formal),2021.2.3,Win32,60.24096386,,,,,,,,,,,,,,,i,1,0.6231,,,,,,悲观,i,,,0,38,38,34,1,,,,,,,,,,,,,,,,,,,,,,,,,,,,,,,,,,
,,,,,,,,,,,,,,1,001,2024-08-22_15h54.19.252,IAT(Formal),2021.2.3,Win32,60.24096386,,,,,,,,,,,,,,,i,1,0.5342,,,,,,消极,i,,,0,39,39,35,1,,,,,,,,,,,,,,,,,,,,,,,,,,,,,,,,,,
,,,,,,,,,,,,,,1,001,2024-08-22_15h54.19.252,IAT(Formal),2021.2.3,Win32,60.24096386,,,,,,,,,,,,,,,e,1,0.6233,,,,,,勇敢,e,,,0,40,40,17,1,,,,,,,,,,,,,,,,,,,,,,,,,,,,,,,,,,
,,,,,,,,,,,,,,1,001,2024-08-22_15h54.19.252,IAT(Formal),2021.2.3,Win32,60.24096386,,,,,,,,,,,,,,,i,1,1.3936,,,,,,自私,i,,,0,41,41,43,1,,,,,,,,,,,,,,,,,,,,,,,,,,,,,,,,,,
,,,,,,,,,,,,,,1,001,2024-08-22_15h54.19.252,IAT(Formal),2021.2.3,Win32,60.24096386,,,,,,,,,,,,,,,i,1,0.4508,,,,,,凶狠,i,,,0,42,42,42,1,,,,,,,,,,,,,,,,,,,,,,,,,,,,,,,,,,
,,,,,,,,,,,,,,1,001,2024-08-22_15h54.19.252,IAT(Formal),2021.2.3,Win32,60.24096386,,,,,,,,,,,,,,,e,1,0.4277,,,,,,我,e,,,0,43,43,0,1,,,,,,,,,,,,,,,,,,,,,,,,,,,,,,,,,,
,,,,,,,,,,,,,,1,001,2024-08-22_15h54.19.252,IAT(Formal),2021.2.3,Win32,60.24096386,,,,,,,,,,,,,,,e,1,0.3535,,,,,,我,e,,,0,44,44,50,1,,,,,,,,,,,,,,,,,,,,,,,,,,,,,,,,,,
,,,,,,,,,,,,,,1,001,2024-08-22_15h54.19.252,IAT(Formal),2021.2.3,Win32,60.24096386,,,,,,,,,,,,,,,e,1,0.4272,,,,,,认真,e,,,0,45,45,20,1,,,,,,,,,,,,,,,,,,,,,,,,,,,,,,,,,,
,,,,,,,,,,,,,,1,001,2024-08-22_15h54.19.252,IAT(Formal),2021.2.3,Win32,60.24096386,,,,,,,,,,,,,,,i,1,0.4755,,,,,,虚伪,i,,,0,46,46,31,1,,,,,,,,,,,,,,,,,,,,,,,,,,,,,,,,,,
,,,,,,,,,,,,,,1,001,2024-08-22_15h54.19.252,IAT(Formal),2021.2.3,Win32,60.24096386,,,,,,,,,,,,,,,i,1,1.0843,,,,,,他的,i,,,0,47,47,57,1,,,,,,,,,,,,,,,,,,,,,,,,,,,,,,,,,,
,,,,,,,,,,,,,,1,001,2024-08-22_15h54.19.252,IAT(Formal),2021.2.3,Win32,60.24096386,,,,,,,,,,,,,,,i,1,0.3719,,,,,,他人,i,,,0,48,48,58,1,,,,,,,,,,,,,,,,,,,,,,,,,,,,,,,,,,
,,,,,,,,,,,,,,1,001,2024-08-22_15h54.19.252,IAT(Formal),2021.2.3,Win32,60.24096386,,,,,,,,,,,,,,,i,1,0.5879,,,,,,轻率,i,,,0,49,49,48,1,,,,,,,,,,,,,,,,,,,,,,,,,,,,,,,,,,
,,,,,,,,,,,,,,1,001,2024-08-22_15h54.19.252,IAT(Formal),2021.2.3,Win32,60.24096386,,,,,,,,,,,,,,,i,1,0.3564,,,,,,刻薄,i,,,0,50,50,33,1,,,,,,,,,,,,,,,,,,,,,,,,,,,,,,,,,,
,,,,,,,,,,,,,,1,001,2024-08-22_15h54.19.252,IAT(Formal),2021.2.3,Win32,60.24096386,,,,,,,,,,,,,,,e,1,0.4374,,,,,,诚实,e,,,0,51,51,15,1,,,,,,,,,,,,,,,,,,,,,,,,,,,,,,,,,,
,,,,,,,,,,,,,,1,001,2024-08-22_15h54.19.252,IAT(Formal),2021.2.3,Win32,60.24096386,,,,,,,,,,,,,,,e,0,0.4057,,,,,,他的,i,,,0,52,52,77,1,,,,,,,,,,,,,,,,,,,,,,,,,,,,,,,,,,
,,,,,,,,,,,,,,1,001,2024-08-22_15h54.19.252,IAT(Formal),2021.2.3,Win32,60.24096386,,,,,,,,,,,,,,,e,1,0.4569,,,,,,我们,e,,,0,53,53,2,1,,,,,,,,,,,,,,,,,,,,,,,,,,,,,,,,,,
,,,,,,,,,,,,,,1,001,2024-08-22_15h54.19.252,IAT(Formal),2021.2.3,Win32,60.24096386,,,,,,,,,,,,,,,i,1,0.5044,,,,,,其他,i,,,0,54,54,59,1,,,,,,,,,,,,,,,,,,,,,,,,,,,,,,,,,,
,,,,,,,,,,,,,,1,001,2024-08-22_15h54.19.252,IAT(Formal),2021.2.3,Win32,60.24096386,,,,,,,,,,,,,,,e,1,0.5365,,,,,,崇高,e,,,0,55,55,11,1,,,,,,,,,,,,,,,,,,,,,,,,,,,,,,,,,,
,,,,,,,,,,,,,,1,001,2024-08-22_15h54.19.252,IAT(Formal),2021.2.3,Win32,60.24096386,,,,,,,,,,,,,,,e,1,0.3852,,,,,,正直,e,,,0,56,56,16,1,,,,,,,,,,,,,,,,,,,,,,,,,,,,,,,,,,
,,,,,,,,,,,,,,1,001,2024-08-22_15h54.19.252,IAT(Formal),2021.2.3,Win32,60.24096386,,,,,,,,,,,,,,,e,0,0.3578,,,,,,固执,i,,,0,57,57,47,1,,,,,,,,,,,,,,,,,,,,,,,,,,,,,,,,,,
,,,,,,,,,,,,,,1,001,2024-08-22_15h54.19.252,IAT(Formal),2021.2.3,Win32,60.24096386,,,,,,,,,,,,,,,e,1,0.6,,,,,,朴实,e,,,0,58,58,24,1,,,,,,,,,,,,,,,,,,,,,,,,,,,,,,,,,,
,,,,,,,,,,,,,,1,001,2024-08-22_15h54.19.252,IAT(Formal),2021.2.3,Win32,60.24096386,,,,,,,,,,,,,,,e,1,0.4625,,,,,,自己,e,,,0,59,59,73,1,,,,,,,,,,,,,,,,,,,,,,,,,,,,,,,,,,
,,,,,,,,,,,,,,1,001,2024-08-22_15h54.19.252,IAT(Formal),2021.2.3,Win32,60.24096386,,,,,,,,,,,,,,,i,1,0.5005,,,,,,自卑,i,,,0,60,60,36,1,,,,,,,,,,,,,,,,,,,,,,,,,,,,,,,,,,
,,,,,,,,,,,,,,1,001,2024-08-22_15h54.19.252,IAT(Formal),2021.2.3,Win32,60.24096386,,,,,,,,,,,,,,,i,1,1.1553,,,,,,傲慢,i,,,0,61,61,37,1,,,,,,,,,,,,,,,,,,,,,,,,,,,,,,,,,,
,,,,,,,,,,,,,,1,001,2024-08-22_15h54.19.252,IAT(Formal),2021.2.3,Win32,60.24096386,,,,,,,,,,,,,,,e,1,0.5341,,,,,,冷静,e,,,0,62,62,26,1,,,,,,,,,,,,,,,,,,,,,,,,,,,,,,,,,,
,,,,,,,,,,,,,,1,001,2024-08-22_15h54.19.252,IAT(Formal),2021.2.3,Win32,60.24096386,,,,,,,,,,,,,,,i,1,0.4442,,,,,,他的,i,,,0,63,63,7,1,,,,,,,,,,,,,,,,,,,,,,,,,,,,,,,,,,
,,,,,,,,,,,,,,1,001,2024-08-22_15h54.19.252,IAT(Formal),2021.2.3,Win32,60.24096386,,,,,,,,,,,,,,,e,1,0.6039,,,,,,优秀,e,,,0,64,64,10,1,,,,,,,,,,,,,,,,,,,,,,,,,,,,,,,,,,
,,,,,,,,,,,,,,1,001,2024-08-22_15h54.19.252,IAT(Formal),2021.2.3,Win32,60.24096386,,,,,,,,,,,,,,,i,1,0.4519,,,,,,他,i,,,0,65,65,55,1,,,,,,,,,,,,,,,,,,,,,,,,,,,,,,,,,,
,,,,,,,,,,,,,,1,001,2024-08-22_15h54.19.252,IAT(Formal),2021.2.3,Win32,60.24096386,,,,,,,,,,,,,,,e,1,0.4438,,,,,,热情,e,,,0,66,66,27,1,,,,,,,,,,,,,,,,,,,,,,,,,,,,,,,,,,
,,,,,,,,,,,,,,1,001,2024-08-22_15h54.19.252,IAT(Formal),2021.2.3,Win32,60.24096386,,,,,,,,,,,,,,,e,1,0.6224,,,,,,我们,e,,,0,67,67,62,1,,,,,,,,,,,,,,,,,,,,,,,,,,,,,,,,,,
,,,,,,,,,,,,,,1,001,2024-08-22_15h54.19.252,IAT(Formal),2021.2.3,Win32,60.24096386,,,,,,,,,,,,,,,i,1,0.4674,,,,,,他们,i,,,0,68,68,66,1,,,,,,,,,,,,,,,,,,,,,,,,,,,,,,,,,,
,,,,,,,,,,,,,,1,001,2024-08-22_15h54.19.252,IAT(Formal),2021.2.3,Win32,60.24096386,,,,,,,,,,,,,,,i,1,0.5176,,,,,,冒失,i,,,0,69,69,39,1,,,,,,,,,,,,,,,,,,,,,,,,,,,,,,,,,,
,,,,,,,,,,,,,,1,001,2024-08-22_15h54.19.252,IAT(Formal),2021.2.3,Win32,60.24096386,,,,,,,,,,,,,,,i,1,0.535,,,,,,他人,i,,,0,70,70,8,1,,,,,,,,,,,,,,,,,,,,,,,,,,,,,,,,,,
,,,,,,,,,,,,,,1,001,2024-08-22_15h54.19.252,IAT(Formal),2021.2.3,Win32,60.24096386,,,,,,,,,,,,,,,e,1,0.4515,,,,,,我的,e,,,0,71,71,71,1,,,,,,,,,,,,,,,,,,,,,,,,,,,,,,,,,,
,,,,,,,,,,,,,,1,001,2024-08-22_15h54.19.252,IAT(Formal),2021.2.3,Win32,60.24096386,,,,,,,,,,,,,,,e,1,0.4838,,,,,,活泼,e,,,0,72,72,28,1,,,,,,,,,,,,,,,,,,,,,,,,,,,,,,,,,,
,,,,,,,,,,,,,,1,001,2024-08-22_15h54.19.252,IAT(Formal),2021.2.3,Win32,60.24096386,,,,,,,,,,,,,,,i,1,0.4279,,,,,,猖狂,i,,,0,73,73,45,1,,,,,,,,,,,,,,,,,,,,,,,,,,,,,,,,,,
,,,,,,,,,,,,,,1,001,2024-08-22_15h54.19.252,IAT(Formal),2021.2.3,Win32,60.24096386,,,,,,,,,,,,,,,e,1,0.5169,,,,,,稳重,e,,,0,74,74,21,1,,,,,,,,,,,,,,,,,,,,,,,,,,,,,,,,,,
,,,,,,,,,,,,,,1,001,2024-08-22_15h54.19.252,IAT(Formal),2021.2.3,Win32,60.24096386,,,,,,,,,,,,,,,e,1,0.4178,,,,,,公正,e,,,0,75,75,23,1,,,,,,,,,,,,,,,,,,,,,,,,,,,,,,,,,,
,,,,,,,,,,,,,,1,001,2024-08-22_15h54.19.252,IAT(Formal),2021.2.3,Win32,60.24096386,,,,,,,,,,,,,,,e,1,0.4129,,,,,,自己,e,,,0,76,76,53,1,,,,,,,,,,,,,,,,,,,,,,,,,,,,,,,,,,
,,,,,,,,,,,,,,1,001,2024-08-22_15h54.19.252,IAT(Formal),2021.2.3,Win32,60.24096386,,,,,,,,,,,,,,,i,1,0.4539,,,,,,野蛮,i,,,0,77,77,46,1,,,,,,,,,,,,,,,,,,,,,,,,,,,,,,,,,,
,,,,,,,,,,,,,,1,001,2024-08-22_15h54.19.252,IAT(Formal),2021.2.3,Win32,60.24096386,,,,,,,,,,,,,,,i,1,0.5514,,,,,,其他,i,,,0,78,78,9,1,,,,,,,,,,,,,,,,,,,,,,,,,,,,,,,,,,
,,,,,,,,,,,,,,1,001,2024-08-22_15h54.19.252,IAT(Formal),2021.2.3,Win32,60.24096386,,,,,,,,,,,,,,,e,1,0.479,,,,,,我们,e,,,0,79,79,72,1,,,,,,,,,,,,,,,,,,,,,,,,,,,,,,,,,,
,,,,,,,,,,,,,,1,001,2024-08-22_15h54.19.252,IAT(Formal),2021.2.3,Win32,60.24096386,,,,,,,,,,,,,,,e,1,0.5133,,,,,,俺,e,,,1,0,80,54,1,,,,,,,,,,,,,,,,,,,,,,,,,,,,,,,,,,
,,,,,,,,,,,,,,1,001,2024-08-22_15h54.19.252,IAT(Formal),2021.2.3,Win32,60.24096386,,,,,,,,,,,,,,,e,1,0.6365,,,,,,崇高,e,,,1,1,81,11,1,,,,,,,,,,,,,,,,,,,,,,,,,,,,,,,,,,
,,,,,,,,,,,,,,1,001,2024-08-22_15h54.19.252,IAT(Formal),2021.2.3,Win32,60.24096386,,,,,,,,,,,,,,,i,1,0.868,,,,,,冒失,i,,,1,2,82,39,1,,,,,,,,,,,,,,,,,,,,,,,,,,,,,,,,,,
,,,,,,,,,,,,,,1,001,2024-08-22_15h54.19.252,IAT(Formal),2021.2.3,Win32,60.24096386,,,,,,,,,,,,,,,e,1,0.5004,,,,,,热情,e,,,1,3,83,27,1,,,,,,,,,,,,,,,,,,,,,,,,,,,,,,,,,,
,,,,,,,,,,,,,,1,001,2024-08-22_15h54.19.252,IAT(Formal),2021.2.3,Win32,60.24096386,,,,,,,,,,,,,,,i,1,0.5021,,,,,,他,i,,,1,4,84,5,1,,,,,,,,,,,,,,,,,,,,,,,,,,,,,,,,,,
,,,,,,,,,,,,,,1,001,2024-08-22_15h54.19.252,IAT(Formal),2021.2.3,Win32,60.24096386,,,,,,,,,,,,,,,i,1,0.7303,,,,,,悲观,i,,,1,5,85,34,1,,,,,,,,,,,,,,,,,,,,,,,,,,,,,,,,,,
,,,,,,,,,,,,,,1,001,2024-08-22_15h54.19.252,IAT(Formal),2021.2.3,Win32,60.24096386,,,,,,,,,,,,,,,i,1,0.3597,,,,,,刻薄,i,,,1,6,86,33,1,,,,,,,,,,,,,,,,,,,,,,,,,,,,,,,,,,
,,,,,,,,,,,,,,1,001,2024-08-22_15h54.19.252,IAT(Formal),2021.2.3,Win32,60.24096386,,,,,,,,,,,,,,,e,1,0.3624,,,,,,我,e,,,1,7,87,50,1,,,,,,,,,,,,,,,,,,,,,,,,,,,,,,,,,,
,,,,,,,,,,,,,,1,001,2024-08-22_15h54.19.252,IAT(Formal),2021.2.3,Win32,60.24096386,,,,,,,,,,,,,,,i,1,0.4581,,,,,,傲慢,i,,,1,8,88,37,1,,,,,,,,,,,,,,,,,,,,,,,,,,,,,,,,,,
,,,,,,,,,,,,,,1,001,2024-08-22_15h54.19.252,IAT(Formal),2021.2.3,Win32,60.24096386,,,,,,,,,,,,,,,i,1,0.5837,,,,,,他们,i,,,1,9,89,66,1,,,,,,,,,,,,,,,,,,,,,,,,,,,,,,,,,,
,,,,,,,,,,,,,,1,001,2024-08-22_15h54.19.252,IAT(Formal),2021.2.3,Win32,60.24096386,,,,,,,,,,,,,,,i,1,0.8168,,,,,,他的,i,,,1,10,90,7,1,,,,,,,,,,,,,,,,,,,,,,,,,,,,,,,,,,
,,,,,,,,,,,,,,1,001,2024-08-22_15h54.19.252,IAT(Formal),2021.2.3,Win32,60.24096386,,,,,,,,,,,,,,,e,1,0.4162,,,,,,我们,e,,,1,11,91,62,1,,,,,,,,,,,,,,,,,,,,,,,,,,,,,,,,,,
,,,,,,,,,,,,,,1,001,2024-08-22_15h54.19.252,IAT(Formal),2021.2.3,Win32,60.24096386,,,,,,,,,,,,,,,e,1,0.4848,,,,,,认真,e,,,1,12,92,20,1,,,,,,,,,,,,,,,,,,,,,,,,,,,,,,,,,,
,,,,,,,,,,,,,,1,001,2024-08-22_15h54.19.252,IAT(Formal),2021.2.3,Win32,60.24096386,,,,,,,,,,,,,,,i,1,0.3844,,,,,,下贱,i,,,1,13,93,49,1,,,,,,,,,,,,,,,,,,,,,,,,,,,,,,,,,,
,,,,,,,,,,,,,,1,001,2024-08-22_15h54.19.252,IAT(Formal),2021.2.3,Win32,60.24096386,,,,,,,,,,,,,,,i,1,0.3944,,,,,,其他,i,,,1,14,94,9,1,,,,,,,,,,,,,,,,,,,,,,,,,,,,,,,,,,
,,,,,,,,,,,,,,1,001,2024-08-22_15h54.19.252,IAT(Formal),2021.2.3,Win32,60.24096386,,,,,,,,,,,,,,,i,1,0.5238,,,,,,卑鄙,i,,,1,15,95,30,1,,,,,,,,,,,,,,,,,,,,,,,,,,,,,,,,,,
,,,,,,,,,,,,,,1,001,2024-08-22_15h54.19.252,IAT(Formal),2021.2.3,Win32,60.24096386,,,,,,,,,,,,,,,e,1,0.5442,,,,,,诚实,e,,,1,16,96,15,1,,,,,,,,,,,,,,,,,,,,,,,,,,,,,,,,,,
,,,,,,,,,,,,,,1,001,2024-08-22_15h54.19.252,IAT(Formal),2021.2.3,Win32,60.24096386,,,,,,,,,,,,,,,e,1,0.4006,,,,,,我的,e,,,1,17,97,61,1,,,,,,,,,,,,,,,,,,,,,,,,,,,,,,,,,,
,,,,,,,,,,,,,,1,001,2024-08-22_15h54.19.252,IAT(Formal),2021.2.3,Win32,60.24096386,,,,,,,,,,,,,,,e,1,0.505,,,,,,聪明,e,,,1,18,98,12,1,,,,,,,,,,,,,,,,,,,,,,,,,,,,,,,,,,
,,,,,,,,,,,,,,1,001,2024-08-22_15h54.19.252,IAT(Formal),2021.2.3,Win32,60.24096386,,,,,,,,,,,,,,,i,1,0.4336,,,,,,暴躁,i,,,1,19,99,44,1,,,,,,,,,,,,,,,,,,,,,,,,,,,,,,,,,,
,,,,,,,,,,,,,,1,001,2024-08-22_15h54.19.252,IAT(Formal),2021.2.3,Win32,60.24096386,,,,,,,,,,,,,,,e,1,0.4549,,,,,,俺,e,,,1,20,100,64,1,,,,,,,,,,,,,,,,,,,,,,,,,,,,,,,,,,
,,,,,,,,,,,,,,1,001,2024-08-22_15h54.19.252,IAT(Formal),2021.2.3,Win32,60.24096386,,,,,,,,,,,,,,,e,1,0.3331,,,,,,我,e,,,1,21,101,0,1,,,,,,,,,,,,,,,,,,,,,,,,,,,,,,,,,,
,,,,,,,,,,,,,,1,001,2024-08-22_15h54.19.252,IAT(Formal),2021.2.3,Win32,60.24096386,,,,,,,,,,,,,,,e,1,0.4696,,,,,,细腻,e,,,1,22,102,25,1,,,,,,,,,,,,,,,,,,,,,,,,,,,,,,,,,,
,,,,,,,,,,,,,,1,001,2024-08-22_15h54.19.252,IAT(Formal),2021.2.3,Win32,60.24096386,,,,,,,,,,,,,,,e,0,0.3593,,,,,,他的,i,,,1,23,103,57,1,,,,,,,,,,,,,,,,,,,,,,,,,,,,,,,,,,
,,,,,,,,,,,,,,1,001,2024-08-22_15h54.19.252,IAT(Formal),2021.2.3,Win32,60.24096386,,,,,,,,,,,,,,,e,1,0.4786,,,,,,自己,e,,,1,24,104,63,1,,,,,,,,,,,,,,,,,,,,,,,,,,,,,,,,,,
,,,,,,,,,,,,,,1,001,2024-08-22_15h54.19.252,IAT(Formal),2021.2.3,Win32,60.24096386,,,,,,,,,,,,,,,i,1,0.3729,,,,,,他人,i,,,1,25,105,8,1,,,,,,,,,,,,,,,,,,,,,,,,,,,,,,,,,,
,,,,,,,,,,,,,,1,001,2024-08-22_15h54.19.252,IAT(Formal),2021.2.3,Win32,60.24096386,,,,,,,,,,,,,,,e,1,0.4771,,,,,,乐观,e,,,1,26,106,14,1,,,,,,,,,,,,,,,,,,,,,,,,,,,,,,,,,,
,,,,,,,,,,,,,,1,001,2024-08-22_15h54.19.252,IAT(Formal),2021.2.3,Win32,60.24096386,,,,,,,,,,,,,,,e,1,0.3341,,,,,,我们,e,,,1,27,107,2,1,,,,,,,,,,,,,,,,,,,,,,,,,,,,,,,,,,
,,,,,,,,,,,,,,1,001,2024-08-22_15h54.19.252,IAT(Formal),2021.2.3,Win32,60.24096386,,,,,,,,,,,,,,,i,1,0.4857,,,,,,野蛮,i,,,1,28,108,46,1,,,,,,,,,,,,,,,,,,,,,,,,,,,,,,,,,,
,,,,,,,,,,,,,,1,001,2024-08-22_15h54.19.252,IAT(Formal),2021.2.3,Win32,60.24096386,,,,,,,,,,,,,,,e,1,0.3438,,,,,,我,e,,,1,29,109,70,1,,,,,,,,,,,,,,,,,,,,,,,,,,,,,,,,,,
,,,,,,,,,,,,,,1,001,2024-08-22_15h54.19.252,IAT(Formal),2021.2.3,Win32,60.24096386,,,,,,,,,,,,,,,e,0,0.3619,,,,,,他的,i,,,1,30,110,67,1,,,,,,,,,,,,,,,,,,,,,,,,,,,,,,,,,,
,,,,,,,,,,,,,,1,001,2024-08-22_15h54.19.252,IAT(Formal),2021.2.3,Win32,60.24096386,,,,,,,,,,,,,,,e,1,0.5342,,,,,,勤奋,e,,,1,31,111,18,1,,,,,,,,,,,,,,,,,,,,,,,,,,,,,,,,,,
,,,,,,,,,,,,,,1,001,2024-08-22_15h54.19.252,IAT(Formal),2021.2.3,Win32,60.24096386,,,,,,,,,,,,,,,e,1,0.402,,,,,,我,e,,,1,32,112,60,1,,,,,,,,,,,,,,,,,,,,,,,,,,,,,,,,,,
,,,,,,,,,,,,,,1,001,2024-08-22_15h54.19.252,IAT(Formal),2021.2.3,Win32,60.24096386,,,,,,,,,,,,,,,i,1,0.5798,,,,,,执拗,i,,,1,33,113,40,1,,,,,,,,,,,,,,,,,,,,,,,,,,,,,,,,,,
,,,,,,,,,,,,,,1,001,2024-08-22_15h54.19.252,IAT(Formal),2021.2.3,Win32,60.24096386,,,,,,,,,,,,,,,e,1,0.4295,,,,,,俺,e,,,1,34,114,74,1,,,,,,,,,,,,,,,,,,,,,,,,,,,,,,,,,,
,,,,,,,,,,,,,,1,001,2024-08-22_15h54.19.252,IAT(Formal),2021.2.3,Win32,60.24096386,,,,,,,,,,,,,,,i,1,0.5054,,,,,,愚蠢,i,,,1,35,115,32,1,,,,,,,,,,,,,,,,,,,,,,,,,,,,,,,,,,
,,,,,,,,,,,,,,1,001,2024-08-22_15h54.19.252,IAT(Formal),2021.2.3,Win32,60.24096386,,,,,,,,,,,,,,,e,1,0.4566,,,,,,诚恳,e,,,1,36,116,29,1,,,,,,,,,,,,,,,,,,,,,,,,,,,,,,,,,,
,,,,,,,,,,,,,,1,001,2024-08-22_15h54.19.252,IAT(Formal),2021.2.3,Win32,60.24096386,,,,,,,,,,,,,,,i,1,0.4583,,,,,,凶狠,i,,,1,37,117,42,1,,,,,,,,,,,,,,,,,,,,,,,,,,,,,,,,,,
,,,,,,,,,,,,,,1,001,2024-08-22_15h54.19.252,IAT(Formal),2021.2.3,Win32,60.24096386,,,,,,,,,,,,,,,i,1,0.5836,,,,,,固执,i,,,1,38,118,47,1,,,,,,,,,,,,,,,,,,,,,,,,,,,,,,,,,,
,,,,,,,,,,,,,,1,001,2024-08-22_15h54.19.252,IAT(Formal),2021.2.3,Win32,60.24096386,,,,,,,,,,,,,,,e,1,1.217,,,,,,我的,e,,,1,39,119,51,1,,,,,,,,,,,,,,,,,,,,,,,,,,,,,,,,,,
,,,,,,,,,,,,,,1,001,2024-08-22_15h54.19.252,IAT(Formal),2021.2.3,Win32,60.24096386,,,,,,,,,,,,,,,e,1,0.5226,,,,,,勇敢,e,,,1,40,120,17,1,,,,,,,,,,,,,,,,,,,,,,,,,,,,,,,,,,
,,,,,,,,,,,,,,1,001,2024-08-22_15h54.19.252,IAT(Formal),2021.2.3,Win32,60.24096386,,,,,,,,,,,,,,,e,1,0.4571,,,,,,自己,e,,,1,41,121,3,1,,,,,,,,,,,,,,,,,,,,,,,,,,,,,,,,,,
,,,,,,,,,,,,,,1,001,2024-08-22_15h54.19.252,IAT(Formal),2021.2.3,Win32,60.24096386,,,,,,,,,,,,,,,i,1,0.4716,,,,,,他,i,,,1,42,122,75,1,,,,,,,,,,,,,,,,,,,,,,,,,,,,,,,,,,
,,,,,,,,,,,,,,1,001,2024-08-22_15h54.19.252,IAT(Formal),2021.2.3,Win32,60.24096386,,,,,,,,,,,,,,,i,1,0.535,,,,,,猖狂,i,,,1,43,123,45,1,,,,,,,,,,,,,,,,,,,,,,,,,,,,,,,,,,
,,,,,,,,,,,,,,1,001,2024-08-22_15h54.19.252,IAT(Formal),2021.2.3,Win32,60.24096386,,,,,,,,,,,,,,,e,1,0.4781,,,,,,朴实,e,,,1,44,124,24,1,,,,,,,,,,,,,,,,,,,,,,,,,,,,,,,,,,
,,,,,,,,,,,,,,1,001,2024-08-22_15h54.19.252,IAT(Formal),2021.2.3,Win32,60.24096386,,,,,,,,,,,,,,,i,1,0.4939,,,,,,他人,i,,,1,45,125,68,1,,,,,,,,,,,,,,,,,,,,,,,,,,,,,,,,,,
,,,,,,,,,,,,,,1,001,2024-08-22_15h54.19.252,IAT(Formal),2021.2.3,Win32,60.24096386,,,,,,,,,,,,,,,e,1,0.4424,,,,,,自己,e,,,1,46,126,73,1,,,,,,,,,,,,,,,,,,,,,,,,,,,,,,,,,,
,,,,,,,,,,,,,,1,001,2024-08-22_15h54.19.252,IAT(Formal),2021.2.3,Win32,60.24096386,,,,,,,,,,,,,,,e,1,0.4368,,,,,,我们,e,,,1,47,127,52,1,,,,,,,,,,,,,,,,,,,,,,,,,,,,,,,,,,
,,,,,,,,,,,,,,1,001,2024-08-22_15h54.19.252,IAT(Formal),2021.2.3,Win32,60.24096386,,,,,,,,,,,,,,,e,1,0.3839,,,,,,公正,e,,,1,48,128,23,1,,,,,,,,,,,,,,,,,,,,,,,,,,,,,,,,,,
,,,,,,,,,,,,,,1,001,2024-08-22_15h54.19.252,IAT(Formal),2021.2.3,Win32,60.24096386,,,,,,,,,,,,,,,e,0,0.3675,,,,,,他们,i,,,1,49,129,56,1,,,,,,,,,,,,,,,,,,,,,,,,,,,,,,,,,,
,,,,,,,,,,,,,,1,001,2024-08-22_15h54.19.252,IAT(Formal),2021.2.3,Win32,60.24096386,,,,,,,,,,,,,,,e,1,0.4053,,,,,,优秀,e,,,1,50,130,10,1,,,,,,,,,,,,,,,,,,,,,,,,,,,,,,,,,,
,,,,,,,,,,,,,,1,001,2024-08-22_15h54.19.252,IAT(Formal),2021.2.3,Win32,60.24096386,,,,,,,,,,,,,,,e,1,0.4839,,,,,,机智,e,,,1,51,131,19,1,,,,,,,,,,,,,,,,,,,,,,,,,,,,,,,,,,
,,,,,,,,,,,,,,1,001,2024-08-22_15h54.19.252,IAT(Formal),2021.2.3,Win32,60.24096386,,,,,,,,,,,,,,,e,1,0.501,,,,,,稳重,e,,,1,52,132,21,1,,,,,,,,,,,,,,,,,,,,,,,,,,,,,,,,,,
,,,,,,,,,,,,,,1,001,2024-08-22_15h54.19.252,IAT(Formal),2021.2.3,Win32,60.24096386,,,,,,,,,,,,,,,i,1,0.5283,,,,,,虚伪,i,,,1,53,133,31,1,,,,,,,,,,,,,,,,,,,,,,,,,,,,,,,,,,
,,,,,,,,,,,,,,1,001,2024-08-22_15h54.19.252,IAT(Formal),2021.2.3,Win32,60.24096386,,,,,,,,,,,,,,,e,0,0.4028,,,,,,他,i,,,1,54,134,55,1,,,,,,,,,,,,,,,,,,,,,,,,,,,,,,,,,,
,,,,,,,,,,,,,,1,001,2024-08-22_15h54.19.252,IAT(Formal),2021.2.3,Win32,60.24096386,,,,,,,,,,,,,,,i,1,0.517,,,,,,他,i,,,1,55,135,65,1,,,,,,,,,,,,,,,,,,,,,,,,,,,,,,,,,,
,,,,,,,,,,,,,,1,001,2024-08-22_15h54.19.252,IAT(Formal),2021.2.3,Win32,60.24096386,,,,,,,,,,,,,,,e,1,0.4009,,,,,,正直,e,,,1,56,136,16,1,,,,,,,,,,,,,,,,,,,,,,,,,,,,,,,,,,
,,,,,,,,,,,,,,1,001,2024-08-22_15h54.19.252,IAT(Formal),2021.2.3,Win32,60.24096386,,,,,,,,,,,,,,,e,1,0.3579,,,,,,自己,e,,,1,57,137,53,1,,,,,,,,,,,,,,,,,,,,,,,,,,,,,,,,,,
,,,,,,,,,,,,,,1,001,2024-08-22_15h54.19.252,IAT(Formal),2021.2.3,Win32,60.24096386,,,,,,,,,,,,,,,i,1,0.428,,,,,,他们,i,,,1,58,138,6,1,,,,,,,,,,,,,,,,,,,,,,,,,,,,,,,,,,
,,,,,,,,,,,,,,1,001,2024-08-22_15h54.19.252,IAT(Formal),2021.2.3,Win32,60.24096386,,,,,,,,,,,,,,,i,1,0.5541,,,,,,轻率,i,,,1,59,139,48,1,,,,,,,,,,,,,,,,,,,,,,,,,,,,,,,,,,
,,,,,,,,,,,,,,1,001,2024-08-22_15h54.19.252,IAT(Formal),2021.2.3,Win32,60.24096386,,,,,,,,,,,,,,,e,1,0.4765,,,,,,我的,e,,,1,60,140,1,1,,,,,,,,,,,,,,,,,,,,,,,,,,,,,,,,,,
,,,,,,,,,,,,,,1,001,2024-08-22_15h54.19.252,IAT(Formal),2021.2.3,Win32,60.24096386,,,,,,,,,,,,,,,i,1,0.5566,,,,,,鲁莽,i,,,1,61,141,38,1,,,,,,,,,,,,,,,,,,,,,,,,,,,,,,,,,,
,,,,,,,,,,,,,,1,001,2024-08-22_15h54.19.252,IAT(Formal),2021.2.3,Win32,60.24096386,,,,,,,,,,,,,,,e,0,0.6694,,,,,,自私,i,,,1,62,142,43,1,,,,,,,,,,,,,,,,,,,,,,,,,,,,,,,,,,
,,,,,,,,,,,,,,1,001,2024-08-22_15h54.19.252,IAT(Formal),2021.2.3,Win32,60.24096386,,,,,,,,,,,,,,,e,1,0.3945,,,,,,我的,e,,,1,63,143,71,1,,,,,,,,,,,,,,,,,,,,,,,,,,,,,,,,,,
,,,,,,,,,,,,,,1,001,2024-08-22_15h54.19.252,IAT(Formal),2021.2.3,Win32,60.24096386,,,,,,,,,,,,,,,e,1,0.5292,,,,,,冷静,e,,,1,64,144,26,1,,,,,,,,,,,,,,,,,,,,,,,,,,,,,,,,,,
,,,,,,,,,,,,,,1,001,2024-08-22_15h54.19.252,IAT(Formal),2021.2.3,Win32,60.24096386,,,,,,,,,,,,,,,i,1,0.5136,,,,,,他人,i,,,1,65,145,58,1,,,,,,,,,,,,,,,,,,,,,,,,,,,,,,,,,,
,,,,,,,,,,,,,,1,001,2024-08-22_15h54.19.252,IAT(Formal),2021.2.3,Win32,60.24096386,,,,,,,,,,,,,,,i,1,0.4051,,,,,,其他,i,,,1,66,146,69,1,,,,,,,,,,,,,,,,,,,,,,,,,,,,,,,,,,
,,,,,,,,,,,,,,1,001,2024-08-22_15h54.19.252,IAT(Formal),2021.2.3,Win32,60.24096386,,,,,,,,,,,,,,,e,1,0.6083,,,,,,杰出,e,,,1,67,147,13,1,,,,,,,,,,,,,,,,,,,,,,,,,,,,,,,,,,
,,,,,,,,,,,,,,1,001,2024-08-22_15h54.19.252,IAT(Formal),2021.2.3,Win32,60.24096386,,,,,,,,,,,,,,,e,1,1.2496,,,,,,无私,e,,,1,68,148,22,1,,,,,,,,,,,,,,,,,,,,,,,,,,,,,,,,,,
,,,,,,,,,,,,,,1,001,2024-08-22_15h54.19.252,IAT(Formal),2021.2.3,Win32,60.24096386,,,,,,,,,,,,,,,i,1,0.5025,,,,,,他的,i,,,1,69,149,77,1,,,,,,,,,,,,,,,,,,,,,,,,,,,,,,,,,,
,,,,,,,,,,,,,,1,001,2024-08-22_15h54.19.252,IAT(Formal),2021.2.3,Win32,60.24096386,,,,,,,,,,,,,,,e,1,0.5173,,,,,,我们,e,,,1,70,150,72,1,,,,,,,,,,,,,,,,,,,,,,,,,,,,,,,,,,
,,,,,,,,,,,,,,1,001,2024-08-22_15h54.19.252,IAT(Formal),2021.2.3,Win32,60.24096386,,,,,,,,,,,,,,,i,1,0.4498,,,,,,其他,i,,,1,71,151,79,1,,,,,,,,,,,,,,,,,,,,,,,,,,,,,,,,,,
,,,,,,,,,,,,,,1,001,2024-08-22_15h54.19.252,IAT(Formal),2021.2.3,Win32,60.24096386,,,,,,,,,,,,,,,i,1,0.7421,,,,,,散漫,i,,,1,72,152,41,1,,,,,,,,,,,,,,,,,,,,,,,,,,,,,,,,,,
,,,,,,,,,,,,,,1,001,2024-08-22_15h54.19.252,IAT(Formal),2021.2.3,Win32,60.24096386,,,,,,,,,,,,,,,i,1,0.4708,,,,,,他人,i,,,1,73,153,78,1,,,,,,,,,,,,,,,,,,,,,,,,,,,,,,,,,,
,,,,,,,,,,,,,,1,001,2024-08-22_15h54.19.252,IAT(Formal),2021.2.3,Win32,60.24096386,,,,,,,,,,,,,,,i,1,0.4358,,,,,,他们,i,,,1,74,154,76,1,,,,,,,,,,,,,,,,,,,,,,,,,,,,,,,,,,
,,,,,,,,,,,,,,1,001,2024-08-22_15h54.19.252,IAT(Formal),2021.2.3,Win32,60.24096386,,,,,,,,,,,,,,,i,1,0.3735,,,,,,其他,i,,,1,75,155,59,1,,,,,,,,,,,,,,,,,,,,,,,,,,,,,,,,,,
,,,,,,,,,,,,,,1,001,2024-08-22_15h54.19.252,IAT(Formal),2021.2.3,Win32,60.24096386,,,,,,,,,,,,,,,e,1,0.5171,,,,,,俺,e,,,1,76,156,4,1,,,,,,,,,,,,,,,,,,,,,,,,,,,,,,,,,,
,,,,,,,,,,,,,,1,001,2024-08-22_15h54.19.252,IAT(Formal),2021.2.3,Win32,60.24096386,,,,,,,,,,,,,,,e,1,1.175,,,,,,活泼,e,,,1,77,157,28,1,,,,,,,,,,,,,,,,,,,,,,,,,,,,,,,,,,
,,,,,,,,,,,,,,1,001,2024-08-22_15h54.19.252,IAT(Formal),2021.2.3,Win32,60.24096386,,,,,,,,,,,,,,,i,1,0.5101,,,,,,消极,i,,,1,78,158,35,1,,,,,,,,,,,,,,,,,,,,,,,,,,,,,,,,,,
,,,,,,,,,,,,,,1,001,2024-08-22_15h54.19.252,IAT(Formal),2021.2.3,Win32,60.24096386,,,,,,,,,,,,,,,i,1,0.617,,,,,,自卑,i,,,1,79,159,36,1,,,,,,,,,,,,,,,,,,,,,,,,,,,,,,,,,,
,,,,,,,,,,,,俺,i,1,001,2024-08-22_15h54.19.252,IAT(Formal),2021.2.3,Win32,60.24096386,,,,,,,,,,,,,,,,,,,,,,,,,,,,,,,,space,17.8773,i,1,0.5821,0,0,0,4,1,,,,,,,,,,,,,,,,,,,,,,,,
,,,,,,,,,,,,我的,i,1,001,2024-08-22_15h54.19.252,IAT(Formal),2021.2.3,Win32,60.24096386,,,,,,,,,,,,,,,,,,,,,,,,,,,,,,,,,,i,1,0.5498,0,1,1,1,1,,,,,,,,,,,,,,,,,,,,,,,,
,,,,,,,,,,,,他人,e,1,001,2024-08-22_15h54.19.252,IAT(Formal),2021.2.3,Win32,60.24096386,,,,,,,,,,,,,,,,,,,,,,,,,,,,,,,,,,e,1,0.4166,0,2,2,8,1,,,,,,,,,,,,,,,,,,,,,,,,
,,,,,,,,,,,,他们,e,1,001,2024-08-22_15h54.19.252,IAT(Formal),2021.2.3,Win32,60.24096386,,,,,,,,,,,,,,,,,,,,,,,,,,,,,,,,,,e,1,0.748,0,3,3,6,1,,,,,,,,,,,,,,,,,,,,,,,,
,,,,,,,,,,,,我们,i,1,001,2024-08-22_15h54.19.252,IAT(Formal),2021.2.3,Win32,60.24096386,,,,,,,,,,,,,,,,,,,,,,,,,,,,,,,,,,i,1,0.4212,0,4,4,2,1,,,,,,,,,,,,,,,,,,,,,,,,
,,,,,,,,,,,,他的,e,1,001,2024-08-22_15h54.19.252,IAT(Formal),2021.2.3,Win32,60.24096386,,,,,,,,,,,,,,,,,,,,,,,,,,,,,,,,,,e,1,0.7253,0,5,5,7,1,,,,,,,,,,,,,,,,,,,,,,,,
,,,,,,,,,,,,其他,e,1,001,2024-08-22_15h54.19.252,IAT(Formal),2021.2.3,Win32,60.24096386,,,,,,,,,,,,,,,,,,,,,,,,,,,,,,,,,,e,1,0.4102,0,6,6,9,1,,,,,,,,,,,,,,,,,,,,,,,,
,,,,,,,,,,,,自己,i,1,001,2024-08-22_15h54.19.252,IAT(Formal),2021.2.3,Win32,60.24096386,,,,,,,,,,,,,,,,,,,,,,,,,,,,,,,,,,i,1,0.4852,0,7,7,3,1,,,,,,,,,,,,,,,,,,,,,,,,
,,,,,,,,,,,,他,e,1,001,2024-08-22_15h54.19.252,IAT(Formal),2021.2.3,Win32,60.24096386,,,,,,,,,,,,,,,,,,,,,,,,,,,,,,,,,,e,1,0.39,0,8,8,5,1,,,,,,,,,,,,,,,,,,,,,,,,
,,,,,,,,,,,,我,i,1,001,2024-08-22_15h54.19.252,IAT(Formal),2021.2.3,Win32,60.24096386,,,,,,,,,,,,,,,,,,,,,,,,,,,,,,,,,,i,1,0.4989,0,9,9,0,1,,,,,,,,,,,,,,,,,,,,,,,,
,,,,,,,,,,,,,,1,001,2024-08-22_15h54.19.252,IAT(Formal),2021.2.3,Win32,60.24096386,,,,,,,,,,,,,,,,,,,,,,,,,,,,,,,,,,,,,,,,,,space,12.9584,i,1,0.5811,0,0,0,63,1,自己,i,,,,,,,,,,,,
,,,,,,,,,,,,,,1,001,2024-08-22_15h54.19.252,IAT(Formal),2021.2.3,Win32,60.24096386,,,,,,,,,,,,,,,,,,,,,,,,,,,,,,,,,,,,,,,,,,,,e,1,0.6468,0,1,1,77,1,他的,e,,,,,,,,,,,,
,,,,,,,,,,,,,,1,001,2024-08-22_15h54.19.252,IAT(Formal),2021.2.3,Win32,60.24096386,,,,,,,,,,,,,,,,,,,,,,,,,,,,,,,,,,,,,,,,,,,,e,1,0.61,0,2,2,69,1,其他,e,,,,,,,,,,,,
,,,,,,,,,,,,,,1,001,2024-08-22_15h54.19.252,IAT(Formal),2021.2.3,Win32,60.24096386,,,,,,,,,,,,,,,,,,,,,,,,,,,,,,,,,,,,,,,,,,,,i,1,0.5667,0,3,3,37,1,傲慢,i,,,,,,,,,,,,
,,,,,,,,,,,,,,1,001,2024-08-22_15h54.19.252,IAT(Formal),2021.2.3,Win32,60.24096386,,,,,,,,,,,,,,,,,,,,,,,,,,,,,,,,,,,,,,,,,,,,e,1,0.7265,0,4,4,75,1,他,e,,,,,,,,,,,,
,,,,,,,,,,,,,,1,001,2024-08-22_15h54.19.252,IAT(Formal),2021.2.3,Win32,60.24096386,,,,,,,,,,,,,,,,,,,,,,,,,,,,,,,,,,,,,,,,,,,,i,1,0.5339,0,5,5,61,1,我的,i,,,,,,,,,,,,
,,,,,,,,,,,,,,1,001,2024-08-22_15h54.19.252,IAT(Formal),2021.2.3,Win32,60.24096386,,,,,,,,,,,,,,,,,,,,,,,,,,,,,,,,,,,,,,,,,,,,i,1,0.6793,0,6,6,51,1,我的,i,,,,,,,,,,,,
,,,,,,,,,,,,,,1,001,2024-08-22_15h54.19.252,IAT(Formal),2021.2.3,Win32,60.24096386,,,,,,,,,,,,,,,,,,,,,,,,,,,,,,,,,,,,,,,,,,,,i,1,0.459,0,7,7,62,1,我们,i,,,,,,,,,,,,
,,,,,,,,,,,,,,1,001,2024-08-22_15h54.19.252,IAT(Formal),2021.2.3,Win32,60.24096386,,,,,,,,,,,,,,,,,,,,,,,,,,,,,,,,,,,,,,,,,,,,i,1,0.4299,0,8,8,52,1,我们,i,,,,,,,,,,,,
,,,,,,,,,,,,,,1,001,2024-08-22_15h54.19.252,IAT(Formal),2021.2.3,Win32,60.24096386,,,,,,,,,,,,,,,,,,,,,,,,,,,,,,,,,,,,,,,,,,,,i,1,0.5681,0,9,9,74,1,俺,i,,,,,,,,,,,,
,,,,,,,,,,,,,,1,001,2024-08-22_15h54.19.252,IAT(Formal),2021.2.3,Win32,60.24096386,,,,,,,,,,,,,,,,,,,,,,,,,,,,,,,,,,,,,,,,,,,,e,1,0.6428,0,10,10,23,1,公正,e,,,,,,,,,,,,
,,,,,,,,,,,,,,1,001,2024-08-22_15h54.19.252,IAT(Formal),2021.2.3,Win32,60.24096386,,,,,,,,,,,,,,,,,,,,,,,,,,,,,,,,,,,,,,,,,,,,i,0,0.5074,0,11,11,66,1,他们,e,,,,,,,,,,,,
,,,,,,,,,,,,,,1,001,2024-08-22_15h54.19.252,IAT(Formal),2021.2.3,Win32,60.24096386,,,,,,,,,,,,,,,,,,,,,,,,,,,,,,,,,,,,,,,,,,,,i,1,0.6895,0,12,12,0,1,我,i,,,,,,,,,,,,
,,,,,,,,,,,,,,1,001,2024-08-22_15h54.19.252,IAT(Formal),2021.2.3,Win32,60.24096386,,,,,,,,,,,,,,,,,,,,,,,,,,,,,,,,,,,,,,,,,,,,e,0,0.695,0,13,13,38,1,鲁莽,i,,,,,,,,,,,,
,,,,,,,,,,,,,,1,001,2024-08-22_15h54.19.252,IAT(Formal),2021.2.3,Win32,60.24096386,,,,,,,,,,,,,,,,,,,,,,,,,,,,,,,,,,,,,,,,,,,,i,1,0.7095,0,14,14,34,1,悲观,i,,,,,,,,,,,,
,,,,,,,,,,,,,,1,001,2024-08-22_15h54.19.252,IAT(Formal),2021.2.3,Win32,60.24096386,,,,,,,,,,,,,,,,,,,,,,,,,,,,,,,,,,,,,,,,,,,,i,1,0.6069,0,15,15,46,1,野蛮,i,,,,,,,,,,,,
,,,,,,,,,,,,,,1,001,2024-08-22_15h54.19.252,IAT(Formal),2021.2.3,Win32,60.24096386,,,,,,,,,,,,,,,,,,,,,,,,,,,,,,,,,,,,,,,,,,,,e,1,0.7299,0,16,16,76,1,他们,e,,,,,,,,,,,,
,,,,,,,,,,,,,,1,001,2024-08-22_15h54.19.252,IAT(Formal),2021.2.3,Win32,60.24096386,,,,,,,,,,,,,,,,,,,,,,,,,,,,,,,,,,,,,,,,,,,,e,1,0.618,0,17,17,7,1,他的,e,,,,,,,,,,,,
,,,,,,,,,,,,,,1,001,2024-08-22_15h54.19.252,IAT(Formal),2021.2.3,Win32,60.24096386,,,,,,,,,,,,,,,,,,,,,,,,,,,,,,,,,,,,,,,,,,,,e,1,0.486,0,18,18,67,1,他的,e,,,,,,,,,,,,
,,,,,,,,,,,,,,1,001,2024-08-22_15h54.19.252,IAT(Formal),2021.2.3,Win32,60.24096386,,,,,,,,,,,,,,,,,,,,,,,,,,,,,,,,,,,,,,,,,,,,i,1,0.9177,0,19,19,35,1,消极,i,,,,,,,,,,,,
,,,,,,,,,,,,,,1,001,2024-08-22_15h54.19.252,IAT(Formal),2021.2.3,Win32,60.24096386,,,,,,,,,,,,,,,,,,,,,,,,,,,,,,,,,,,,,,,,,,,,e,1,0.6508,0,20,20,19,1,机智,e,,,,,,,,,,,,
,,,,,,,,,,,,,,1,001,2024-08-22_15h54.19.252,IAT(Formal),2021.2.3,Win32,60.24096386,,,,,,,,,,,,,,,,,,,,,,,,,,,,,,,,,,,,,,,,,,,,e,1,0.5374,0,21,21,57,1,他的,e,,,,,,,,,,,,
,,,,,,,,,,,,,,1,001,2024-08-22_15h54.19.252,IAT(Formal),2021.2.3,Win32,60.24096386,,,,,,,,,,,,,,,,,,,,,,,,,,,,,,,,,,,,,,,,,,,,i,1,0.7777,0,22,22,73,1,自己,i,,,,,,,,,,,,
,,,,,,,,,,,,,,1,001,2024-08-22_15h54.19.252,IAT(Formal),2021.2.3,Win32,60.24096386,,,,,,,,,,,,,,,,,,,,,,,,,,,,,,,,,,,,,,,,,,,,i,1,1.3337,0,23,23,43,1,自私,i,,,,,,,,,,,,
,,,,,,,,,,,,,,1,001,2024-08-22_15h54.19.252,IAT(Formal),2021.2.3,Win32,60.24096386,,,,,,,,,,,,,,,,,,,,,,,,,,,,,,,,,,,,,,,,,,,,e,1,0.6276,0,24,24,26,1,冷静,e,,,,,,,,,,,,
,,,,,,,,,,,,,,1,001,2024-08-22_15h54.19.252,IAT(Formal),2021.2.3,Win32,60.24096386,,,,,,,,,,,,,,,,,,,,,,,,,,,,,,,,,,,,,,,,,,,,e,0,0.8163,0,25,25,48,1,轻率,i,,,,,,,,,,,,
,,,,,,,,,,,,,,1,001,2024-08-22_15h54.19.252,IAT(Formal),2021.2.3,Win32,60.24096386,,,,,,,,,,,,,,,,,,,,,,,,,,,,,,,,,,,,,,,,,,,,i,1,0.7588,0,26,26,3,1,自己,i,,,,,,,,,,,,
,,,,,,,,,,,,,,1,001,2024-08-22_15h54.19.252,IAT(Formal),2021.2.3,Win32,60.24096386,,,,,,,,,,,,,,,,,,,,,,,,,,,,,,,,,,,,,,,,,,,,i,1,1.1786,0,27,27,41,1,散漫,i,,,,,,,,,,,,
,,,,,,,,,,,,,,1,001,2024-08-22_15h54.19.252,IAT(Formal),2021.2.3,Win32,60.24096386,,,,,,,,,,,,,,,,,,,,,,,,,,,,,,,,,,,,,,,,,,,,i,1,0.8113,0,28,28,2,1,我们,i,,,,,,,,,,,,
,,,,,,,,,,,,,,1,001,2024-08-22_15h54.19.252,IAT(Formal),2021.2.3,Win32,60.24096386,,,,,,,,,,,,,,,,,,,,,,,,,,,,,,,,,,,,,,,,,,,,i,1,1.0675,0,29,29,45,1,猖狂,i,,,,,,,,,,,,
,,,,,,,,,,,,,,1,001,2024-08-22_15h54.19.252,IAT(Formal),2021.2.3,Win32,60.24096386,,,,,,,,,,,,,,,,,,,,,,,,,,,,,,,,,,,,,,,,,,,,i,1,0.6788,0,30,30,44,1,暴躁,i,,,,,,,,,,,,
,,,,,,,,,,,,,,1,001,2024-08-22_15h54.19.252,IAT(Formal),2021.2.3,Win32,60.24096386,,,,,,,,,,,,,,,,,,,,,,,,,,,,,,,,,,,,,,,,,,,,i,1,0.6052,0,31,31,31,1,虚伪,i,,,,,,,,,,,,
,,,,,,,,,,,,,,1,001,2024-08-22_15h54.19.252,IAT(Formal),2021.2.3,Win32,60.24096386,,,,,,,,,,,,,,,,,,,,,,,,,,,,,,,,,,,,,,,,,,,,e,1,0.8177,0,32,32,17,1,勇敢,e,,,,,,,,,,,,
,,,,,,,,,,,,,,1,001,2024-08-22_15h54.19.252,IAT(Formal),2021.2.3,Win32,60.24096386,,,,,,,,,,,,,,,,,,,,,,,,,,,,,,,,,,,,,,,,,,,,e,1,0.6456,0,33,33,6,1,他们,e,,,,,,,,,,,,
,,,,,,,,,,,,,,1,001,2024-08-22_15h54.19.252,IAT(Formal),2021.2.3,Win32,60.24096386,,,,,,,,,,,,,,,,,,,,,,,,,,,,,,,,,,,,,,,,,,,,e,1,0.9012,0,34,34,15,1,诚实,e,,,,,,,,,,,,
,,,,,,,,,,,,,,1,001,2024-08-22_15h54.19.252,IAT(Formal),2021.2.3,Win32,60.24096386,,,,,,,,,,,,,,,,,,,,,,,,,,,,,,,,,,,,,,,,,,,,i,1,0.7451,0,35,35,70,1,我,i,,,,,,,,,,,,
,,,,,,,,,,,,,,1,001,2024-08-22_15h54.19.252,IAT(Formal),2021.2.3,Win32,60.24096386,,,,,,,,,,,,,,,,,,,,,,,,,,,,,,,,,,,,,,,,,,,,i,1,1.2677,0,36,36,71,1,我的,i,,,,,,,,,,,,
,,,,,,,,,,,,,,1,001,2024-08-22_15h54.19.252,IAT(Formal),2021.2.3,Win32,60.24096386,,,,,,,,,,,,,,,,,,,,,,,,,,,,,,,,,,,,,,,,,,,,i,1,0.6342,0,37,37,50,1,我,i,,,,,,,,,,,,
,,,,,,,,,,,,,,1,001,2024-08-22_15h54.19.252,IAT(Formal),2021.2.3,Win32,60.24096386,,,,,,,,,,,,,,,,,,,,,,,,,,,,,,,,,,,,,,,,,,,,e,1,0.7849,0,38,38,24,1,朴实,e,,,,,,,,,,,,
,,,,,,,,,,,,,,1,001,2024-08-22_15h54.19.252,IAT(Formal),2021.2.3,Win32,60.24096386,,,,,,,,,,,,,,,,,,,,,,,,,,,,,,,,,,,,,,,,,,,,e,1,0.5888,0,39,39,20,1,认真,e,,,,,,,,,,,,
,,,,,,,,,,,,,,1,001,2024-08-22_15h54.19.252,IAT(Formal),2021.2.3,Win32,60.24096386,,,,,,,,,,,,,,,,,,,,,,,,,,,,,,,,,,,,,,,,,,,,e,1,1.1833,0,40,40,8,1,他人,e,,,,,,,,,,,,
,,,,,,,,,,,,,,1,001,2024-08-22_15h54.19.252,IAT(Formal),2021.2.3,Win32,60.24096386,,,,,,,,,,,,,,,,,,,,,,,,,,,,,,,,,,,,,,,,,,,,i,1,1.4447,0,41,41,42,1,凶狠,i,,,,,,,,,,,,
,,,,,,,,,,,,,,1,001,2024-08-22_15h54.19.252,IAT(Formal),2021.2.3,Win32,60.24096386,,,,,,,,,,,,,,,,,,,,,,,,,,,,,,,,,,,,,,,,,,,,i,0,0.8763,0,42,42,65,1,他,e,,,,,,,,,,,,
,,,,,,,,,,,,,,1,001,2024-08-22_15h54.19.252,IAT(Formal),2021.2.3,Win32,60.24096386,,,,,,,,,,,,,,,,,,,,,,,,,,,,,,,,,,,,,,,,,,,,i,1,0.9467,0,43,43,53,1,自己,i,,,,,,,,,,,,
,,,,,,,,,,,,,,1,001,2024-08-22_15h54.19.252,IAT(Formal),2021.2.3,Win32,60.24096386,,,,,,,,,,,,,,,,,,,,,,,,,,,,,,,,,,,,,,,,,,,,e,1,0.6094,0,44,44,18,1,勤奋,e,,,,,,,,,,,,
,,,,,,,,,,,,,,1,001,2024-08-22_15h54.19.252,IAT(Formal),2021.2.3,Win32,60.24096386,,,,,,,,,,,,,,,,,,,,,,,,,,,,,,,,,,,,,,,,,,,,i,1,0.9047,0,45,45,47,1,固执,i,,,,,,,,,,,,
,,,,,,,,,,,,,,1,001,2024-08-22_15h54.19.252,IAT(Formal),2021.2.3,Win32,60.24096386,,,,,,,,,,,,,,,,,,,,,,,,,,,,,,,,,,,,,,,,,,,,,0,,0,46,46,25,1,细腻,e,,,,,,,,,,,,
,,,,,,,,,,,,,,1,001,2024-08-22_15h54.19.252,IAT(Formal),2021.2.3,Win32,60.24096386,,,,,,,,,,,,,,,,,,,,,,,,,,,,,,,,,,,,,,,,,,,,,0,,0,47,47,56,1,他们,e,,,,,,,,,,,,
,,,,,,,,,,,,,,1,001,2024-08-22_15h54.19.252,IAT(Formal),2021.2.3,Win32,60.24096386,,,,,,,,,,,,,,,,,,,,,,,,,,,,,,,,,,,,,,,,,,,,e,1,0.5643,0,48,48,79,1,其他,e,,,,,,,,,,,,
,,,,,,,,,,,,,,1,001,2024-08-22_15h54.19.252,IAT(Formal),2021.2.3,Win32,60.24096386,,,,,,,,,,,,,,,,,,,,,,,,,,,,,,,,,,,,,,,,,,,,i,1,0.6368,0,49,49,72,1,我们,i,,,,,,,,,,,,
,,,,,,,,,,,,,,1,001,2024-08-22_15h54.19.252,IAT(Formal),2021.2.3,Win32,60.24096386,,,,,,,,,,,,,,,,,,,,,,,,,,,,,,,,,,,,,,,,,,,,e,0,0.7666,0,50,50,39,1,冒失,i,,,,,,,,,,,,
,,,,,,,,,,,,,,1,001,2024-08-22_15h54.19.252,IAT(Formal),2021.2.3,Win32,60.24096386,,,,,,,,,,,,,,,,,,,,,,,,,,,,,,,,,,,,,,,,,,,,e,1,1.1338,0,51,51,5,1,他,e,,,,,,,,,,,,
,,,,,,,,,,,,,,1,001,2024-08-22_15h54.19.252,IAT(Formal),2021.2.3,Win32,60.24096386,,,,,,,,,,,,,,,,,,,,,,,,,,,,,,,,,,,,,,,,,,,,e,1,0.4303,0,52,52,55,1,他,e,,,,,,,,,,,,
,,,,,,,,,,,,,,1,001,2024-08-22_15h54.19.252,IAT(Formal),2021.2.3,Win32,60.24096386,,,,,,,,,,,,,,,,,,,,,,,,,,,,,,,,,,,,,,,,,,,,e,1,0.7676,0,53,53,13,1,杰出,e,,,,,,,,,,,,
,,,,,,,,,,,,,,1,001,2024-08-22_15h54.19.252,IAT(Formal),2021.2.3,Win32,60.24096386,,,,,,,,,,,,,,,,,,,,,,,,,,,,,,,,,,,,,,,,,,,,i,0,0.5159,0,54,54,9,1,其他,e,,,,,,,,,,,,
,,,,,,,,,,,,,,1,001,2024-08-22_15h54.19.252,IAT(Formal),2021.2.3,Win32,60.24096386,,,,,,,,,,,,,,,,,,,,,,,,,,,,,,,,,,,,,,,,,,,,e,1,0.5273,0,55,55,29,1,诚恳,e,,,,,,,,,,,,
,,,,,,,,,,,,,,1,001,2024-08-22_15h54.19.252,IAT(Formal),2021.2.3,Win32,60.24096386,,,,,,,,,,,,,,,,,,,,,,,,,,,,,,,,,,,,,,,,,,,,i,1,0.6029,0,56,56,4,1,俺,i,,,,,,,,,,,,
,,,,,,,,,,,,,,1,001,2024-08-22_15h54.19.252,IAT(Formal),2021.2.3,Win32,60.24096386,,,,,,,,,,,,,,,,,,,,,,,,,,,,,,,,,,,,,,,,,,,,i,1,1.0436,0,57,57,30,1,卑鄙,i,,,,,,,,,,,,
,,,,,,,,,,,,,,1,001,2024-08-22_15h54.19.252,IAT(Formal),2021.2.3,Win32,60.24096386,,,,,,,,,,,,,,,,,,,,,,,,,,,,,,,,,,,,,,,,,,,,e,1,0.6839,0,58,58,11,1,崇高,e,,,,,,,,,,,,
,,,,,,,,,,,,,,1,001,2024-08-22_15h54.19.252,IAT(Formal),2021.2.3,Win32,60.24096386,,,,,,,,,,,,,,,,,,,,,,,,,,,,,,,,,,,,,,,,,,,,e,0,0.5668,0,59,59,64,1,俺,i,,,,,,,,,,,,
,,,,,,,,,,,,,,1,001,2024-08-22_15h54.19.252,IAT(Formal),2021.2.3,Win32,60.24096386,,,,,,,,,,,,,,,,,,,,,,,,,,,,,,,,,,,,,,,,,,,,e,1,0.6419,0,60,60,14,1,乐观,e,,,,,,,,,,,,
,,,,,,,,,,,,,,1,001,2024-08-22_15h54.19.252,IAT(Formal),2021.2.3,Win32,60.24096386,,,,,,,,,,,,,,,,,,,,,,,,,,,,,,,,,,,,,,,,,,,,e,1,0.435,0,61,61,12,1,聪明,e,,,,,,,,,,,,
,,,,,,,,,,,,,,1,001,2024-08-22_15h54.19.252,IAT(Formal),2021.2.3,Win32,60.24096386,,,,,,,,,,,,,,,,,,,,,,,,,,,,,,,,,,,,,,,,,,,,e,1,0.5751,0,62,62,58,1,他人,e,,,,,,,,,,,,
,,,,,,,,,,,,,,1,001,2024-08-22_15h54.19.252,IAT(Formal),2021.2.3,Win32,60.24096386,,,,,,,,,,,,,,,,,,,,,,,,,,,,,,,,,,,,,,,,,,,,i,1,0.5618,0,63,63,1,1,我的,i,,,,,,,,,,,,
,,,,,,,,,,,,,,1,001,2024-08-22_15h54.19.252,IAT(Formal),2021.2.3,Win32,60.24096386,,,,,,,,,,,,,,,,,,,,,,,,,,,,,,,,,,,,,,,,,,,,e,1,0.6677,0,64,64,59,1,其他,e,,,,,,,,,,,,
,,,,,,,,,,,,,,1,001,2024-08-22_15h54.19.252,IAT(Formal),2021.2.3,Win32,60.24096386,,,,,,,,,,,,,,,,,,,,,,,,,,,,,,,,,,,,,,,,,,,,e,1,1.1393,0,65,65,68,1,他人,e,,,,,,,,,,,,
,,,,,,,,,,,,,,1,001,2024-08-22_15h54.19.252,IAT(Formal),2021.2.3,Win32,60.24096386,,,,,,,,,,,,,,,,,,,,,,,,,,,,,,,,,,,,,,,,,,,,i,1,0.8165,0,66,66,32,1,愚蠢,i,,,,,,,,,,,,
,,,,,,,,,,,,,,1,001,2024-08-22_15h54.19.252,IAT(Formal),2021.2.3,Win32,60.24096386,,,,,,,,,,,,,,,,,,,,,,,,,,,,,,,,,,,,,,,,,,,,i,1,0.7339,0,67,67,33,1,刻薄,i,,,,,,,,,,,,
,,,,,,,,,,,,,,1,001,2024-08-22_15h54.19.252,IAT(Formal),2021.2.3,Win32,60.24096386,,,,,,,,,,,,,,,,,,,,,,,,,,,,,,,,,,,,,,,,,,,,e,1,0.5772,0,68,68,27,1,热情,e,,,,,,,,,,,,
,,,,,,,,,,,,,,1,001,2024-08-22_15h54.19.252,IAT(Formal),2021.2.3,Win32,60.24096386,,,,,,,,,,,,,,,,,,,,,,,,,,,,,,,,,,,,,,,,,,,,e,1,0.9613,0,69,69,16,1,正直,e,,,,,,,,,,,,
,,,,,,,,,,,,,,1,001,2024-08-22_15h54.19.252,IAT(Formal),2021.2.3,Win32,60.24096386,,,,,,,,,,,,,,,,,,,,,,,,,,,,,,,,,,,,,,,,,,,,i,1,0.7504,0,70,70,36,1,自卑,i,,,,,,,,,,,,
,,,,,,,,,,,,,,1,001,2024-08-22_15h54.19.252,IAT(Formal),2021.2.3,Win32,60.24096386,,,,,,,,,,,,,,,,,,,,,,,,,,,,,,,,,,,,,,,,,,,,e,1,0.7591,0,71,71,28,1,活泼,e,,,,,,,,,,,,
,,,,,,,,,,,,,,1,001,2024-08-22_15h54.19.252,IAT(Formal),2021.2.3,Win32,60.24096386,,,,,,,,,,,,,,,,,,,,,,,,,,,,,,,,,,,,,,,,,,,,e,1,0.6502,0,72,72,21,1,稳重,e,,,,,,,,,,,,
,,,,,,,,,,,,,,1,001,2024-08-22_15h54.19.252,IAT(Formal),2021.2.3,Win32,60.24096386,,,,,,,,,,,,,,,,,,,,,,,,,,,,,,,,,,,,,,,,,,,,i,1,0.6404,0,73,73,60,1,我,i,,,,,,,,,,,,
,,,,,,,,,,,,,,1,001,2024-08-22_15h54.19.252,IAT(Formal),2021.2.3,Win32,60.24096386,,,,,,,,,,,,,,,,,,,,,,,,,,,,,,,,,,,,,,,,,,,,e,1,0.6342,0,74,74,78,1,他人,e,,,,,,,,,,,,
,,,,,,,,,,,,,,1,001,2024-08-22_15h54.19.252,IAT(Formal),2021.2.3,Win32,60.24096386,,,,,,,,,,,,,,,,,,,,,,,,,,,,,,,,,,,,,,,,,,,,e,1,0.7974,0,75,75,10,1,优秀,e,,,,,,,,,,,,
,,,,,,,,,,,,,,1,001,2024-08-22_15h54.19.252,IAT(Formal),2021.2.3,Win32,60.24096386,,,,,,,,,,,,,,,,,,,,,,,,,,,,,,,,,,,,,,,,,,,,e,1,0.6401,0,76,76,22,1,无私,e,,,,,,,,,,,,
,,,,,,,,,,,,,,1,001,2024-08-22_15h54.19.252,IAT(Formal),2021.2.3,Win32,60.24096386,,,,,,,,,,,,,,,,,,,,,,,,,,,,,,,,,,,,,,,,,,,,i,1,0.6193,0,77,77,40,1,执拗,i,,,,,,,,,,,,
,,,,,,,,,,,,,,1,001,2024-08-22_15h54.19.252,IAT(Formal),2021.2.3,Win32,60.24096386,,,,,,,,,,,,,,,,,,,,,,,,,,,,,,,,,,,,,,,,,,,,e,0,1.4168,0,78,78,49,1,下贱,i,,,,,,,,,,,,
,,,,,,,,,,,,,,1,001,2024-08-22_15h54.19.252,IAT(Formal),2021.2.3,Win32,60.24096386,,,,,,,,,,,,,,,,,,,,,,,,,,,,,,,,,,,,,,,,,,,,i,1,0.6579,0,79,79,54,1,俺,i,,,,,,,,,,,,
,,,,,,,,,,,,,,1,001,2024-08-22_15h54.19.252,IAT(Formal),2021.2.3,Win32,60.24096386,,,,,,,,,,,,,,,,,,,,,,,,,,,,,,,,,,,,,,,,,,,,,,,,,,,,认真,e,space,8.0581,e,1,0.5743,0,0,0,20,1,,
,,,,,,,,,,,,,,1,001,2024-08-22_15h54.19.252,IAT(Formal),2021.2.3,Win32,60.24096386,,,,,,,,,,,,,,,,,,,,,,,,,,,,,,,,,,,,,,,,,,,,,,,,,,,,野蛮,i,,,i,1,0.6444,0,1,1,46,1,,
,,,,,,,,,,,,,,1,001,2024-08-22_15h54.19.252,IAT(Formal),2021.2.3,Win32,60.24096386,,,,,,,,,,,,,,,,,,,,,,,,,,,,,,,,,,,,,,,,,,,,,,,,,,,,他人,e,,,e,1,0.6686,0,2,2,68,1,,
,,,,,,,,,,,,,,1,001,2024-08-22_15h54.19.252,IAT(Formal),2021.2.3,Win32,60.24096386,,,,,,,,,,,,,,,,,,,,,,,,,,,,,,,,,,,,,,,,,,,,,,,,,,,,活泼,e,,,e,1,0.5756,0,3,3,28,1,,
,,,,,,,,,,,,,,1,001,2024-08-22_15h54.19.252,IAT(Formal),2021.2.3,Win32,60.24096386,,,,,,,,,,,,,,,,,,,,,,,,,,,,,,,,,,,,,,,,,,,,,,,,,,,,崇高,e,,,e,1,0.7503,0,4,4,11,1,,
,,,,,,,,,,,,,,1,001,2024-08-22_15h54.19.252,IAT(Formal),2021.2.3,Win32,60.24096386,,,,,,,,,,,,,,,,,,,,,,,,,,,,,,,,,,,,,,,,,,,,,,,,,,,,他的,e,,,e,1,0.6339,0,5,5,57,1,,
,,,,,,,,,,,,,,1,001,2024-08-22_15h54.19.252,IAT(Formal),2021.2.3,Win32,60.24096386,,,,,,,,,,,,,,,,,,,,,,,,,,,,,,,,,,,,,,,,,,,,,,,,,,,,刻薄,i,,,i,1,0.8175,0,6,6,33,1,,
,,,,,,,,,,,,,,1,001,2024-08-22_15h54.19.252,IAT(Formal),2021.2.3,Win32,60.24096386,,,,,,,,,,,,,,,,,,,,,,,,,,,,,,,,,,,,,,,,,,,,,,,,,,,,我们,i,,,i,1,0.7342,0,7,7,2,1,,
,,,,,,,,,,,,,,1,001,2024-08-22_15h54.19.252,IAT(Formal),2021.2.3,Win32,60.24096386,,,,,,,,,,,,,,,,,,,,,,,,,,,,,,,,,,,,,,,,,,,,,,,,,,,,自己,i,,,i,1,0.7293,0,8,8,63,1,,
,,,,,,,,,,,,,,1,001,2024-08-22_15h54.19.252,IAT(Formal),2021.2.3,Win32,60.24096386,,,,,,,,,,,,,,,,,,,,,,,,,,,,,,,,,,,,,,,,,,,,,,,,,,,,优秀,e,,,e,1,0.5554,0,9,9,10,1,,
,,,,,,,,,,,,,,1,001,2024-08-22_15h54.19.252,IAT(Formal),2021.2.3,Win32,60.24096386,,,,,,,,,,,,,,,,,,,,,,,,,,,,,,,,,,,,,,,,,,,,,,,,,,,,我的,i,,,i,1,0.5887,0,10,10,1,1,,
,,,,,,,,,,,,,,1,001,2024-08-22_15h54.19.252,IAT(Formal),2021.2.3,Win32,60.24096386,,,,,,,,,,,,,,,,,,,,,,,,,,,,,,,,,,,,,,,,,,,,,,,,,,,,我的,i,,,i,1,0.5338,0,11,11,71,1,,
,,,,,,,,,,,,,,1,001,2024-08-22_15h54.19.252,IAT(Formal),2021.2.3,Win32,60.24096386,,,,,,,,,,,,,,,,,,,,,,,,,,,,,,,,,,,,,,,,,,,,,,,,,,,,我们,i,,,i,1,0.479,0,12,12,52,1,,
,,,,,,,,,,,,,,1,001,2024-08-22_15h54.19.252,IAT(Formal),2021.2.3,Win32,60.24096386,,,,,,,,,,,,,,,,,,,,,,,,,,,,,,,,,,,,,,,,,,,,,,,,,,,,我的,i,,,i,1,0.5183,0,13,13,61,1,,
,,,,,,,,,,,,,,1,001,2024-08-22_15h54.19.252,IAT(Formal),2021.2.3,Win32,60.24096386,,,,,,,,,,,,,,,,,,,,,,,,,,,,,,,,,,,,,,,,,,,,,,,,,,,,卑鄙,i,,,i,1,0.8359,0,14,14,30,1,,
,,,,,,,,,,,,,,1,001,2024-08-22_15h54.19.252,IAT(Formal),2021.2.3,Win32,60.24096386,,,,,,,,,,,,,,,,,,,,,,,,,,,,,,,,,,,,,,,,,,,,,,,,,,,,杰出,e,,,e,1,0.4835,0,15,15,13,1,,
,,,,,,,,,,,,,,1,001,2024-08-22_15h54.19.252,IAT(Formal),2021.2.3,Win32,60.24096386,,,,,,,,,,,,,,,,,,,,,,,,,,,,,,,,,,,,,,,,,,,,,,,,,,,,我,i,,,i,1,0.5674,0,16,16,70,1,,
,,,,,,,,,,,,,,1,001,2024-08-22_15h54.19.252,IAT(Formal),2021.2.3,Win32,60.24096386,,,,,,,,,,,,,,,,,,,,,,,,,,,,,,,,,,,,,,,,,,,,,,,,,,,,鲁莽,i,,,i,1,0.8079,0,17,17,38,1,,
,,,,,,,,,,,,,,1,001,2024-08-22_15h54.19.252,IAT(Formal),2021.2.3,Win32,60.24096386,,,,,,,,,,,,,,,,,,,,,,,,,,,,,,,,,,,,,,,,,,,,,,,,,,,,猖狂,i,,,i,1,0.5904,0,18,18,45,1,,
,,,,,,,,,,,,,,1,001,2024-08-22_15h54.19.252,IAT(Formal),2021.2.3,Win32,60.24096386,,,,,,,,,,,,,,,,,,,,,,,,,,,,,,,,,,,,,,,,,,,,,,,,,,,,公正,e,,,e,1,0.6615,0,19,19,23,1,,
,,,,,,,,,,,,,,1,001,2024-08-22_15h54.19.252,IAT(Formal),2021.2.3,Win32,60.24096386,,,,,,,,,,,,,,,,,,,,,,,,,,,,,,,,,,,,,,,,,,,,,,,,,,,,诚恳,e,,,e,1,0.709,0,20,20,29,1,,
,,,,,,,,,,,,,,1,001,2024-08-22_15h54.19.252,IAT(Formal),2021.2.3,Win32,60.24096386,,,,,,,,,,,,,,,,,,,,,,,,,,,,,,,,,,,,,,,,,,,,,,,,,,,,其他,e,,,i,0,0.6002,0,21,21,59,1,,
,,,,,,,,,,,,,,1,001,2024-08-22_15h54.19.252,IAT(Formal),2021.2.3,Win32,60.24096386,,,,,,,,,,,,,,,,,,,,,,,,,,,,,,,,,,,,,,,,,,,,,,,,,,,,稳重,e,,,e,1,0.566,0,22,22,21,1,,
,,,,,,,,,,,,,,1,001,2024-08-22_15h54.19.252,IAT(Formal),2021.2.3,Win32,60.24096386,,,,,,,,,,,,,,,,,,,,,,,,,,,,,,,,,,,,,,,,,,,,,,,,,,,,俺,i,,,i,1,0.5796,0,23,23,54,1,,
,,,,,,,,,,,,,,1,001,2024-08-22_15h54.19.252,IAT(Formal),2021.2.3,Win32,60.24096386,,,,,,,,,,,,,,,,,,,,,,,,,,,,,,,,,,,,,,,,,,,,,,,,,,,,他,e,,,e,1,0.7613,0,24,24,55,1,,
,,,,,,,,,,,,,,1,001,2024-08-22_15h54.19.252,IAT(Formal),2021.2.3,Win32,60.24096386,,,,,,,,,,,,,,,,,,,,,,,,,,,,,,,,,,,,,,,,,,,,,,,,,,,,其他,e,,,i,0,1.1568,0,25,25,69,1,,
,,,,,,,,,,,,,,1,001,2024-08-22_15h54.19.252,IAT(Formal),2021.2.3,Win32,60.24096386,,,,,,,,,,,,,,,,,,,,,,,,,,,,,,,,,,,,,,,,,,,,,,,,,,,,他的,e,,,e,1,0.4949,0,26,26,7,1,,
,,,,,,,,,,,,,,1,001,2024-08-22_15h54.19.252,IAT(Formal),2021.2.3,Win32,60.24096386,,,,,,,,,,,,,,,,,,,,,,,,,,,,,,,,,,,,,,,,,,,,,,,,,,,,热情,e,,,e,1,0.5379,0,27,27,27,1,,
,,,,,,,,,,,,,,1,001,2024-08-22_15h54.19.252,IAT(Formal),2021.2.3,Win32,60.24096386,,,,,,,,,,,,,,,,,,,,,,,,,,,,,,,,,,,,,,,,,,,,,,,,,,,,自己,i,,,i,1,0.5026,0,28,28,3,1,,
,,,,,,,,,,,,,,1,001,2024-08-22_15h54.19.252,IAT(Formal),2021.2.3,Win32,60.24096386,,,,,,,,,,,,,,,,,,,,,,,,,,,,,,,,,,,,,,,,,,,,,,,,,,,,他们,e,,,e,1,0.8358,0,29,29,56,1,,
,,,,,,,,,,,,,,1,001,2024-08-22_15h54.19.252,IAT(Formal),2021.2.3,Win32,60.24096386,,,,,,,,,,,,,,,,,,,,,,,,,,,,,,,,,,,,,,,,,,,,,,,,,,,,其他,e,,,e,1,1.0838,0,30,30,79,1,,
,,,,,,,,,,,,,,1,001,2024-08-22_15h54.19.252,IAT(Formal),2021.2.3,Win32,60.24096386,,,,,,,,,,,,,,,,,,,,,,,,,,,,,,,,,,,,,,,,,,,,,,,,,,,,暴躁,i,,,i,1,0.6191,0,31,31,44,1,,
,,,,,,,,,,,,,,1,001,2024-08-22_15h54.19.252,IAT(Formal),2021.2.3,Win32,60.24096386,,,,,,,,,,,,,,,,,,,,,,,,,,,,,,,,,,,,,,,,,,,,,,,,,,,,自己,i,,,e,0,1.209,0,32,32,73,1,,
,,,,,,,,,,,,,,1,001,2024-08-22_15h54.19.252,IAT(Formal),2021.2.3,Win32,60.24096386,,,,,,,,,,,,,,,,,,,,,,,,,,,,,,,,,,,,,,,,,,,,,,,,,,,,他们,e,,,e,1,0.5427,0,33,33,76,1,,
,,,,,,,,,,,,,,1,001,2024-08-22_15h54.19.252,IAT(Formal),2021.2.3,Win32,60.24096386,,,,,,,,,,,,,,,,,,,,,,,,,,,,,,,,,,,,,,,,,,,,,,,,,,,,他,e,,,e,1,0.5902,0,34,34,5,1,,
,,,,,,,,,,,,,,1,001,2024-08-22_15h54.19.252,IAT(Formal),2021.2.3,Win32,60.24096386,,,,,,,,,,,,,,,,,,,,,,,,,,,,,,,,,,,,,,,,,,,,,,,,,,,,固执,i,,,i,1,1.1592,0,35,35,47,1,,
,,,,,,,,,,,,,,1,001,2024-08-22_15h54.19.252,IAT(Formal),2021.2.3,Win32,60.24096386,,,,,,,,,,,,,,,,,,,,,,,,,,,,,,,,,,,,,,,,,,,,,,,,,,,,乐观,e,,,e,1,1.2139,0,36,36,14,1,,
,,,,,,,,,,,,,,1,001,2024-08-22_15h54.19.252,IAT(Formal),2021.2.3,Win32,60.24096386,,,,,,,,,,,,,,,,,,,,,,,,,,,,,,,,,,,,,,,,,,,,,,,,,,,,我们,i,,,i,1,0.6675,0,37,37,72,1,,
,,,,,,,,,,,,,,1,001,2024-08-22_15h54.19.252,IAT(Formal),2021.2.3,Win32,60.24096386,,,,,,,,,,,,,,,,,,,,,,,,,,,,,,,,,,,,,,,,,,,,,,,,,,,,正直,e,,,e,1,1.1227,0,38,38,16,1,,
,,,,,,,,,,,,,,1,001,2024-08-22_15h54.19.252,IAT(Formal),2021.2.3,Win32,60.24096386,,,,,,,,,,,,,,,,,,,,,,,,,,,,,,,,,,,,,,,,,,,,,,,,,,,,散漫,i,,,i,1,0.6229,0,39,39,41,1,,
,,,,,,,,,,,,,,1,001,2024-08-22_15h54.19.252,IAT(Formal),2021.2.3,Win32,60.24096386,,,,,,,,,,,,,,,,,,,,,,,,,,,,,,,,,,,,,,,,,,,,,,,,,,,,悲观,i,,,i,1,1.2573,0,40,40,34,1,,
,,,,,,,,,,,,,,1,001,2024-08-22_15h54.19.252,IAT(Formal),2021.2.3,Win32,60.24096386,,,,,,,,,,,,,,,,,,,,,,,,,,,,,,,,,,,,,,,,,,,,,,,,,,,,冷静,e,,,e,1,0.5347,0,41,41,26,1,,
,,,,,,,,,,,,,,1,001,2024-08-22_15h54.19.252,IAT(Formal),2021.2.3,Win32,60.24096386,,,,,,,,,,,,,,,,,,,,,,,,,,,,,,,,,,,,,,,,,,,,,,,,,,,,无私,e,,,e,1,0.6004,0,42,42,22,1,,
,,,,,,,,,,,,,,1,001,2024-08-22_15h54.19.252,IAT(Formal),2021.2.3,Win32,60.24096386,,,,,,,,,,,,,,,,,,,,,,,,,,,,,,,,,,,,,,,,,,,,,,,,,,,,轻率,i,,,e,0,0.522,0,43,43,48,1,,
,,,,,,,,,,,,,,1,001,2024-08-22_15h54.19.252,IAT(Formal),2021.2.3,Win32,60.24096386,,,,,,,,,,,,,,,,,,,,,,,,,,,,,,,,,,,,,,,,,,,,,,,,,,,,傲慢,i,,,i,1,0.7002,0,44,44,37,1,,
,,,,,,,,,,,,,,1,001,2024-08-22_15h54.19.252,IAT(Formal),2021.2.3,Win32,60.24096386,,,,,,,,,,,,,,,,,,,,,,,,,,,,,,,,,,,,,,,,,,,,,,,,,,,,他,e,,,e,1,0.7091,0,45,45,65,1,,
,,,,,,,,,,,,,,1,001,2024-08-22_15h54.19.252,IAT(Formal),2021.2.3,Win32,60.24096386,,,,,,,,,,,,,,,,,,,,,,,,,,,,,,,,,,,,,,,,,,,,,,,,,,,,他,e,,,e,1,0.4836,0,46,46,75,1,,
,,,,,,,,,,,,,,1,001,2024-08-22_15h54.19.252,IAT(Formal),2021.2.3,Win32,60.24096386,,,,,,,,,,,,,,,,,,,,,,,,,,,,,,,,,,,,,,,,,,,,,,,,,,,,我,i,,,i,1,0.4547,0,47,47,0,1,,
,,,,,,,,,,,,,,1,001,2024-08-22_15h54.19.252,IAT(Formal),2021.2.3,Win32,60.24096386,,,,,,,,,,,,,,,,,,,,,,,,,,,,,,,,,,,,,,,,,,,,,,,,,,,,凶狠,i,,,e,0,0.4123,0,48,48,42,1,,
,,,,,,,,,,,,,,1,001,2024-08-22_15h54.19.252,IAT(Formal),2021.2.3,Win32,60.24096386,,,,,,,,,,,,,,,,,,,,,,,,,,,,,,,,,,,,,,,,,,,,,,,,,,,,俺,i,,,i,1,0.7957,0,49,49,74,1,,
,,,,,,,,,,,,,,1,001,2024-08-22_15h54.19.252,IAT(Formal),2021.2.3,Win32,60.24096386,,,,,,,,,,,,,,,,,,,,,,,,,,,,,,,,,,,,,,,,,,,,,,,,,,,,执拗,i,,,i,1,0.5199,0,50,50,40,1,,
,,,,,,,,,,,,,,1,001,2024-08-22_15h54.19.252,IAT(Formal),2021.2.3,Win32,60.24096386,,,,,,,,,,,,,,,,,,,,,,,,,,,,,,,,,,,,,,,,,,,,,,,,,,,,他们,e,,,e,1,0.6672,0,51,51,66,1,,
,,,,,,,,,,,,,,1,001,2024-08-22_15h54.19.252,IAT(Formal),2021.2.3,Win32,60.24096386,,,,,,,,,,,,,,,,,,,,,,,,,,,,,,,,,,,,,,,,,,,,,,,,,,,,他人,e,,,e,1,0.5521,0,52,52,58,1,,
,,,,,,,,,,,,,,1,001,2024-08-22_15h54.19.252,IAT(Formal),2021.2.3,Win32,60.24096386,,,,,,,,,,,,,,,,,,,,,,,,,,,,,,,,,,,,,,,,,,,,,,,,,,,,机智,e,,,e,1,0.6911,0,53,53,19,1,,
,,,,,,,,,,,,,,1,001,2024-08-22_15h54.19.252,IAT(Formal),2021.2.3,Win32,60.24096386,,,,,,,,,,,,,,,,,,,,,,,,,,,,,,,,,,,,,,,,,,,,,,,,,,,,细腻,e,,,e,1,0.7011,0,54,54,25,1,,
,,,,,,,,,,,,,,1,001,2024-08-22_15h54.19.252,IAT(Formal),2021.2.3,Win32,60.24096386,,,,,,,,,,,,,,,,,,,,,,,,,,,,,,,,,,,,,,,,,,,,,,,,,,,,虚伪,i,,,i,1,0.6504,0,55,55,31,1,,
,,,,,,,,,,,,,,1,001,2024-08-22_15h54.19.252,IAT(Formal),2021.2.3,Win32,60.24096386,,,,,,,,,,,,,,,,,,,,,,,,,,,,,,,,,,,,,,,,,,,,,,,,,,,,自私,i,,,i,1,0.6299,0,56,56,43,1,,
,,,,,,,,,,,,,,1,001,2024-08-22_15h54.19.252,IAT(Formal),2021.2.3,Win32,60.24096386,,,,,,,,,,,,,,,,,,,,,,,,,,,,,,,,,,,,,,,,,,,,,,,,,,,,他们,e,,,i,0,0.4909,0,57,57,6,1,,
,,,,,,,,,,,,,,1,001,2024-08-22_15h54.19.252,IAT(Formal),2021.2.3,Win32,60.24096386,,,,,,,,,,,,,,,,,,,,,,,,,,,,,,,,,,,,,,,,,,,,,,,,,,,,他人,e,,,e,1,0.5334,0,58,58,8,1,,
,,,,,,,,,,,,,,1,001,2024-08-22_15h54.19.252,IAT(Formal),2021.2.3,Win32,60.24096386,,,,,,,,,,,,,,,,,,,,,,,,,,,,,,,,,,,,,,,,,,,,,,,,,,,,他的,e,,,e,1,0.3945,0,59,59,67,1,,
,,,,,,,,,,,,,,1,001,2024-08-22_15h54.19.252,IAT(Formal),2021.2.3,Win32,60.24096386,,,,,,,,,,,,,,,,,,,,,,,,,,,,,,,,,,,,,,,,,,,,,,,,,,,,我们,i,,,i,1,0.6185,0,60,60,62,1,,
,,,,,,,,,,,,,,1,001,2024-08-22_15h54.19.252,IAT(Formal),2021.2.3,Win32,60.24096386,,,,,,,,,,,,,,,,,,,,,,,,,,,,,,,,,,,,,,,,,,,,,,,,,,,,俺,i,,,e,0,0.6006,0,61,61,64,1,,
,,,,,,,,,,,,,,1,001,2024-08-22_15h54.19.252,IAT(Formal),2021.2.3,Win32,60.24096386,,,,,,,,,,,,,,,,,,,,,,,,,,,,,,,,,,,,,,,,,,,,,,,,,,,,聪明,e,,,e,1,0.6176,0,62,62,12,1,,
,,,,,,,,,,,,,,1,001,2024-08-22_15h54.19.252,IAT(Formal),2021.2.3,Win32,60.24096386,,,,,,,,,,,,,,,,,,,,,,,,,,,,,,,,,,,,,,,,,,,,,,,,,,,,消极,i,,,i,1,0.7626,0,63,63,35,1,,
,,,,,,,,,,,,,,1,001,2024-08-22_15h54.19.252,IAT(Formal),2021.2.3,Win32,60.24096386,,,,,,,,,,,,,,,,,,,,,,,,,,,,,,,,,,,,,,,,,,,,,,,,,,,,冒失,i,,,i,1,0.6741,0,64,64,39,1,,
,,,,,,,,,,,,,,1,001,2024-08-22_15h54.19.252,IAT(Formal),2021.2.3,Win32,60.24096386,,,,,,,,,,,,,,,,,,,,,,,,,,,,,,,,,,,,,,,,,,,,,,,,,,,,朴实,e,,,e,1,0.687,0,65,65,24,1,,
,,,,,,,,,,,,,,1,001,2024-08-22_15h54.19.252,IAT(Formal),2021.2.3,Win32,60.24096386,,,,,,,,,,,,,,,,,,,,,,,,,,,,,,,,,,,,,,,,,,,,,,,,,,,,勇敢,e,,,e,1,0.5005,0,66,66,17,1,,
,,,,,,,,,,,,,,1,001,2024-08-22_15h54.19.252,IAT(Formal),2021.2.3,Win32,60.24096386,,,,,,,,,,,,,,,,,,,,,,,,,,,,,,,,,,,,,,,,,,,,,,,,,,,,他人,e,,,e,1,0.7011,0,67,67,78,1,,
,,,,,,,,,,,,,,1,001,2024-08-22_15h54.19.252,IAT(Formal),2021.2.3,Win32,60.24096386,,,,,,,,,,,,,,,,,,,,,,,,,,,,,,,,,,,,,,,,,,,,,,,,,,,,勤奋,e,,,e,1,0.4835,0,68,68,18,1,,
,,,,,,,,,,,,,,1,001,2024-08-22_15h54.19.252,IAT(Formal),2021.2.3,Win32,60.24096386,,,,,,,,,,,,,,,,,,,,,,,,,,,,,,,,,,,,,,,,,,,,,,,,,,,,我的,i,,,i,1,0.7426,0,69,69,51,1,,
,,,,,,,,,,,,,,1,001,2024-08-22_15h54.19.252,IAT(Formal),2021.2.3,Win32,60.24096386,,,,,,,,,,,,,,,,,,,,,,,,,,,,,,,,,,,,,,,,,,,,,,,,,,,,他的,e,,,e,1,0.6839,0,70,70,77,1,,
,,,,,,,,,,,,,,1,001,2024-08-22_15h54.19.252,IAT(Formal),2021.2.3,Win32,60.24096386,,,,,,,,,,,,,,,,,,,,,,,,,,,,,,,,,,,,,,,,,,,,,,,,,,,,愚蠢,i,,,i,1,1.0572,0,71,71,32,1,,
,,,,,,,,,,,,,,1,001,2024-08-22_15h54.19.252,IAT(Formal),2021.2.3,Win32,60.24096386,,,,,,,,,,,,,,,,,,,,,,,,,,,,,,,,,,,,,,,,,,,,,,,,,,,,俺,i,,,i,1,1.051,0,72,72,4,1,,
,,,,,,,,,,,,,,1,001,2024-08-22_15h54.19.252,IAT(Formal),2021.2.3,Win32,60.24096386,,,,,,,,,,,,,,,,,,,,,,,,,,,,,,,,,,,,,,,,,,,,,,,,,,,,我,i,,,,0,,0,73,73,50,1,,
,,,,,,,,,,,,,,1,001,2024-08-22_15h54.19.252,IAT(Formal),2021.2.3,Win32,60.24096386,,,,,,,,,,,,,,,,,,,,,,,,,,,,,,,,,,,,,,,,,,,,,,,,,,,,其他,e,,,e,1,0.5551,0,74,74,9,1,,
,,,,,,,,,,,,,,1,001,2024-08-22_15h54.19.252,IAT(Formal),2021.2.3,Win32,60.24096386,,,,,,,,,,,,,,,,,,,,,,,,,,,,,,,,,,,,,,,,,,,,,,,,,,,,诚实,e,,,e,1,0.5164,0,75,75,15,1,,
,,,,,,,,,,,,,,1,001,2024-08-22_15h54.19.252,IAT(Formal),2021.2.3,Win32,60.24096386,,,,,,,,,,,,,,,,,,,,,,,,,,,,,,,,,,,,,,,,,,,,,,,,,,,,自己,i,,,i,1,0.6634,0,76,76,53,1,,
,,,,,,,,,,,,,,1,001,2024-08-22_15h54.19.252,IAT(Formal),2021.2.3,Win32,60.24096386,,,,,,,,,,,,,,,,,,,,,,,,,,,,,,,,,,,,,,,,,,,,,,,,,,,,我,i,,,i,1,0.5413,0,77,77,60,1,,
,,,,,,,,,,,,,,1,001,2024-08-22_15h54.19.252,IAT(Formal),2021.2.3,Win32,60.24096386,,,,,,,,,,,,,,,,,,,,,,,,,,,,,,,,,,,,,,,,,,,,,,,,,,,,下贱,i,,,i,1,0.5558,0,78,78,49,1,,
,,,,,,,,,,,,,,1,001,2024-08-22_15h54.19.252,IAT(Formal),2021.2.3,Win32,60.24096386,,,,,,,,,,,,,,,,,,,,,,,,,,,,,,,,,,,,,,,,,,,,,,,,,,,,自卑,i,,,i,1,0.6669,0,79,79,36,1,,
,,,,,,,,,,,,,,1,001,2024-08-22_15h54.19.252,IAT(Formal),2021.2.3,Win32,60.24096386,,,,,,,,,,,,,,,,,,,,,,,,,,,,,,,,,,,,,,,,,,,,,,,,,,,,他的,e,,,e,1,0.5169,1,0,80,77,1,,
,,,,,,,,,,,,,,1,001,2024-08-22_15h54.19.252,IAT(Formal),2021.2.3,Win32,60.24096386,,,,,,,,,,,,,,,,,,,,,,,,,,,,,,,,,,,,,,,,,,,,,,,,,,,,其他,e,,,e,1,0.5745,1,1,81,79,1,,
,,,,,,,,,,,,,,1,001,2024-08-22_15h54.19.252,IAT(Formal),2021.2.3,Win32,60.24096386,,,,,,,,,,,,,,,,,,,,,,,,,,,,,,,,,,,,,,,,,,,,,,,,,,,,其他,e,,,e,1,0.3941,1,2,82,69,1,,
,,,,,,,,,,,,,,1,001,2024-08-22_15h54.19.252,IAT(Formal),2021.2.3,Win32,60.24096386,,,,,,,,,,,,,,,,,,,,,,,,,,,,,,,,,,,,,,,,,,,,,,,,,,,,我们,i,,,i,1,0.3863,1,3,83,72,1,,
,,,,,,,,,,,,,,1,001,2024-08-22_15h54.19.252,IAT(Formal),2021.2.3,Win32,60.24096386,,,,,,,,,,,,,,,,,,,,,,,,,,,,,,,,,,,,,,,,,,,,,,,,,,,,认真,e,,,e,1,0.4806,1,4,84,20,1,,
,,,,,,,,,,,,,,1,001,2024-08-22_15h54.19.252,IAT(Formal),2021.2.3,Win32,60.24096386,,,,,,,,,,,,,,,,,,,,,,,,,,,,,,,,,,,,,,,,,,,,,,,,,,,,卑鄙,i,,,i,1,0.4763,1,5,85,30,1,,
,,,,,,,,,,,,,,1,001,2024-08-22_15h54.19.252,IAT(Formal),2021.2.3,Win32,60.24096386,,,,,,,,,,,,,,,,,,,,,,,,,,,,,,,,,,,,,,,,,,,,,,,,,,,,他,e,,,e,1,0.6172,1,6,86,5,1,,
,,,,,,,,,,,,,,1,001,2024-08-22_15h54.19.252,IAT(Formal),2021.2.3,Win32,60.24096386,,,,,,,,,,,,,,,,,,,,,,,,,,,,,,,,,,,,,,,,,,,,,,,,,,,,消极,i,,,i,1,0.5387,1,7,87,35,1,,
,,,,,,,,,,,,,,1,001,2024-08-22_15h54.19.252,IAT(Formal),2021.2.3,Win32,60.24096386,,,,,,,,,,,,,,,,,,,,,,,,,,,,,,,,,,,,,,,,,,,,,,,,,,,,野蛮,i,,,i,1,0.5349,1,8,88,46,1,,
,,,,,,,,,,,,,,1,001,2024-08-22_15h54.19.252,IAT(Formal),2021.2.3,Win32,60.24096386,,,,,,,,,,,,,,,,,,,,,,,,,,,,,,,,,,,,,,,,,,,,,,,,,,,,固执,i,,,i,1,0.5361,1,9,89,47,1,,
,,,,,,,,,,,,,,1,001,2024-08-22_15h54.19.252,IAT(Formal),2021.2.3,Win32,60.24096386,,,,,,,,,,,,,,,,,,,,,,,,,,,,,,,,,,,,,,,,,,,,,,,,,,,,稳重,e,,,i,0,0.5669,1,10,90,21,1,,
,,,,,,,,,,,,,,1,001,2024-08-22_15h54.19.252,IAT(Formal),2021.2.3,Win32,60.24096386,,,,,,,,,,,,,,,,,,,,,,,,,,,,,,,,,,,,,,,,,,,,,,,,,,,,他们,e,,,e,1,0.3879,1,11,91,56,1,,
,,,,,,,,,,,,,,1,001,2024-08-22_15h54.19.252,IAT(Formal),2021.2.3,Win32,60.24096386,,,,,,,,,,,,,,,,,,,,,,,,,,,,,,,,,,,,,,,,,,,,,,,,,,,,他们,e,,,e,1,0.3671,1,12,92,6,1,,
,,,,,,,,,,,,,,1,001,2024-08-22_15h54.19.252,IAT(Formal),2021.2.3,Win32,60.24096386,,,,,,,,,,,,,,,,,,,,,,,,,,,,,,,,,,,,,,,,,,,,,,,,,,,,我的,i,,,i,1,0.4923,1,13,93,1,1,,
,,,,,,,,,,,,,,1,001,2024-08-22_15h54.19.252,IAT(Formal),2021.2.3,Win32,60.24096386,,,,,,,,,,,,,,,,,,,,,,,,,,,,,,,,,,,,,,,,,,,,,,,,,,,,正直,e,,,e,1,0.6837,1,14,94,16,1,,
,,,,,,,,,,,,,,1,001,2024-08-22_15h54.19.252,IAT(Formal),2021.2.3,Win32,60.24096386,,,,,,,,,,,,,,,,,,,,,,,,,,,,,,,,,,,,,,,,,,,,,,,,,,,,鲁莽,i,,,i,1,0.5641,1,15,95,38,1,,
,,,,,,,,,,,,,,1,001,2024-08-22_15h54.19.252,IAT(Formal),2021.2.3,Win32,60.24096386,,,,,,,,,,,,,,,,,,,,,,,,,,,,,,,,,,,,,,,,,,,,,,,,,,,,俺,i,,,e,0,0.5718,1,16,96,54,1,,
,,,,,,,,,,,,,,1,001,2024-08-22_15h54.19.252,IAT(Formal),2021.2.3,Win32,60.24096386,,,,,,,,,,,,,,,,,,,,,,,,,,,,,,,,,,,,,,,,,,,,,,,,,,,,自己,i,,,i,1,0.7678,1,17,97,3,1,,
,,,,,,,,,,,,,,1,001,2024-08-22_15h54.19.252,IAT(Formal),2021.2.3,Win32,60.24096386,,,,,,,,,,,,,,,,,,,,,,,,,,,,,,,,,,,,,,,,,,,,,,,,,,,,他人,e,,,i,0,1.0216,1,18,98,58,1,,
,,,,,,,,,,,,,,1,001,2024-08-22_15h54.19.252,IAT(Formal),2021.2.3,Win32,60.24096386,,,,,,,,,,,,,,,,,,,,,,,,,,,,,,,,,,,,,,,,,,,,,,,,,,,,崇高,e,,,e,1,0.6338,1,19,99,11,1,,
,,,,,,,,,,,,,,1,001,2024-08-22_15h54.19.252,IAT(Formal),2021.2.3,Win32,60.24096386,,,,,,,,,,,,,,,,,,,,,,,,,,,,,,,,,,,,,,,,,,,,,,,,,,,,我,i,,,i,1,0.5082,1,20,100,60,1,,
,,,,,,,,,,,,,,1,001,2024-08-22_15h54.19.252,IAT(Formal),2021.2.3,Win32,60.24096386,,,,,,,,,,,,,,,,,,,,,,,,,,,,,,,,,,,,,,,,,,,,,,,,,,,,他,e,,,e,1,0.6505,1,21,101,55,1,,
,,,,,,,,,,,,,,1,001,2024-08-22_15h54.19.252,IAT(Formal),2021.2.3,Win32,60.24096386,,,,,,,,,,,,,,,,,,,,,,,,,,,,,,,,,,,,,,,,,,,,,,,,,,,,其他,e,,,i,0,0.8863,1,22,102,9,1,,
,,,,,,,,,,,,,,1,001,2024-08-22_15h54.19.252,IAT(Formal),2021.2.3,Win32,60.24096386,,,,,,,,,,,,,,,,,,,,,,,,,,,,,,,,,,,,,,,,,,,,,,,,,,,,自私,i,,,i,1,0.8581,1,23,103,43,1,,
,,,,,,,,,,,,,,1,001,2024-08-22_15h54.19.252,IAT(Formal),2021.2.3,Win32,60.24096386,,,,,,,,,,,,,,,,,,,,,,,,,,,,,,,,,,,,,,,,,,,,,,,,,,,,俺,i,,,i,1,0.7339,1,24,104,74,1,,
,,,,,,,,,,,,,,1,001,2024-08-22_15h54.19.252,IAT(Formal),2021.2.3,Win32,60.24096386,,,,,,,,,,,,,,,,,,,,,,,,,,,,,,,,,,,,,,,,,,,,,,,,,,,,诚实,e,,,e,1,0.9685,1,25,105,15,1,,
,,,,,,,,,,,,,,1,001,2024-08-22_15h54.19.252,IAT(Formal),2021.2.3,Win32,60.24096386,,,,,,,,,,,,,,,,,,,,,,,,,,,,,,,,,,,,,,,,,,,,,,,,,,,,散漫,i,,,i,1,1.2077,1,26,106,41,1,,
,,,,,,,,,,,,,,1,001,2024-08-22_15h54.19.252,IAT(Formal),2021.2.3,Win32,60.24096386,,,,,,,,,,,,,,,,,,,,,,,,,,,,,,,,,,,,,,,,,,,,,,,,,,,,俺,i,,,,0,,1,27,107,4,1,,
,,,,,,,,,,,,,,1,001,2024-08-22_15h54.19.252,IAT(Formal),2021.2.3,Win32,60.24096386,,,,,,,,,,,,,,,,,,,,,,,,,,,,,,,,,,,,,,,,,,,,,,,,,,,,猖狂,i,,,i,1,0.5911,1,28,108,45,1,,
,,,,,,,,,,,,,,1,001,2024-08-22_15h54.19.252,IAT(Formal),2021.2.3,Win32,60.24096386,,,,,,,,,,,,,,,,,,,,,,,,,,,,,,,,,,,,,,,,,,,,,,,,,,,,活泼,e,,,e,1,0.5501,1,29,109,28,1,,
,,,,,,,,,,,,,,1,001,2024-08-22_15h54.19.252,IAT(Formal),2021.2.3,Win32,60.24096386,,,,,,,,,,,,,,,,,,,,,,,,,,,,,,,,,,,,,,,,,,,,,,,,,,,,他人,e,,,i,0,0.5843,1,30,110,68,1,,
,,,,,,,,,,,,,,1,001,2024-08-22_15h54.19.252,IAT(Formal),2021.2.3,Win32,60.24096386,,,,,,,,,,,,,,,,,,,,,,,,,,,,,,,,,,,,,,,,,,,,,,,,,,,,自己,i,,,i,1,0.7464,1,31,111,63,1,,
,,,,,,,,,,,,,,1,001,2024-08-22_15h54.19.252,IAT(Formal),2021.2.3,Win32,60.24096386,,,,,,,,,,,,,,,,,,,,,,,,,,,,,,,,,,,,,,,,,,,,,,,,,,,,勤奋,e,,,e,1,0.8247,1,32,112,18,1,,
,,,,,,,,,,,,,,1,001,2024-08-22_15h54.19.252,IAT(Formal),2021.2.3,Win32,60.24096386,,,,,,,,,,,,,,,,,,,,,,,,,,,,,,,,,,,,,,,,,,,,,,,,,,,,公正,e,,,e,1,0.4954,1,33,113,23,1,,
,,,,,,,,,,,,,,1,001,2024-08-22_15h54.19.252,IAT(Formal),2021.2.3,Win32,60.24096386,,,,,,,,,,,,,,,,,,,,,,,,,,,,,,,,,,,,,,,,,,,,,,,,,,,,我,i,,,i,1,0.5271,1,34,114,70,1,,
,,,,,,,,,,,,,,1,001,2024-08-22_15h54.19.252,IAT(Formal),2021.2.3,Win32,60.24096386,,,,,,,,,,,,,,,,,,,,,,,,,,,,,,,,,,,,,,,,,,,,,,,,,,,,俺,i,,,e,0,0.9625,1,35,115,64,1,,
,,,,,,,,,,,,,,1,001,2024-08-22_15h54.19.252,IAT(Formal),2021.2.3,Win32,60.24096386,,,,,,,,,,,,,,,,,,,,,,,,,,,,,,,,,,,,,,,,,,,,,,,,,,,,我的,i,,,i,1,0.5094,1,36,116,51,1,,
,,,,,,,,,,,,,,1,001,2024-08-22_15h54.19.252,IAT(Formal),2021.2.3,Win32,60.24096386,,,,,,,,,,,,,,,,,,,,,,,,,,,,,,,,,,,,,,,,,,,,,,,,,,,,热情,e,,,e,1,0.5664,1,37,117,27,1,,
,,,,,,,,,,,,,,1,001,2024-08-22_15h54.19.252,IAT(Formal),2021.2.3,Win32,60.24096386,,,,,,,,,,,,,,,,,,,,,,,,,,,,,,,,,,,,,,,,,,,,,,,,,,,,勇敢,e,,,e,1,0.4233,1,38,118,17,1,,
,,,,,,,,,,,,,,1,001,2024-08-22_15h54.19.252,IAT(Formal),2021.2.3,Win32,60.24096386,,,,,,,,,,,,,,,,,,,,,,,,,,,,,,,,,,,,,,,,,,,,,,,,,,,,自己,i,,,i,1,0.7016,1,39,119,53,1,,
,,,,,,,,,,,,,,1,001,2024-08-22_15h54.19.252,IAT(Formal),2021.2.3,Win32,60.24096386,,,,,,,,,,,,,,,,,,,,,,,,,,,,,,,,,,,,,,,,,,,,,,,,,,,,我的,i,,,i,1,0.5506,1,40,120,61,1,,
,,,,,,,,,,,,,,1,001,2024-08-22_15h54.19.252,IAT(Formal),2021.2.3,Win32,60.24096386,,,,,,,,,,,,,,,,,,,,,,,,,,,,,,,,,,,,,,,,,,,,,,,,,,,,自卑,i,,,i,1,0.685,1,41,121,36,1,,
,,,,,,,,,,,,,,1,001,2024-08-22_15h54.19.252,IAT(Formal),2021.2.3,Win32,60.24096386,,,,,,,,,,,,,,,,,,,,,,,,,,,,,,,,,,,,,,,,,,,,,,,,,,,,冒失,i,,,i,1,0.4799,1,42,122,39,1,,
,,,,,,,,,,,,,,1,001,2024-08-22_15h54.19.252,IAT(Formal),2021.2.3,Win32,60.24096386,,,,,,,,,,,,,,,,,,,,,,,,,,,,,,,,,,,,,,,,,,,,,,,,,,,,虚伪,i,,,i,1,0.5246,1,43,123,31,1,,
,,,,,,,,,,,,,,1,001,2024-08-22_15h54.19.252,IAT(Formal),2021.2.3,Win32,60.24096386,,,,,,,,,,,,,,,,,,,,,,,,,,,,,,,,,,,,,,,,,,,,,,,,,,,,无私,e,,,e,1,0.8958,1,44,124,22,1,,
,,,,,,,,,,,,,,1,001,2024-08-22_15h54.19.252,IAT(Formal),2021.2.3,Win32,60.24096386,,,,,,,,,,,,,,,,,,,,,,,,,,,,,,,,,,,,,,,,,,,,,,,,,,,,暴躁,i,,,i,1,0.534,1,45,125,44,1,,
,,,,,,,,,,,,,,1,001,2024-08-22_15h54.19.252,IAT(Formal),2021.2.3,Win32,60.24096386,,,,,,,,,,,,,,,,,,,,,,,,,,,,,,,,,,,,,,,,,,,,,,,,,,,,诚恳,e,,,e,1,0.7503,1,46,126,29,1,,
,,,,,,,,,,,,,,1,001,2024-08-22_15h54.19.252,IAT(Formal),2021.2.3,Win32,60.24096386,,,,,,,,,,,,,,,,,,,,,,,,,,,,,,,,,,,,,,,,,,,,,,,,,,,,他人,e,,,e,1,1.027,1,47,127,78,1,,
,,,,,,,,,,,,,,1,001,2024-08-22_15h54.19.252,IAT(Formal),2021.2.3,Win32,60.24096386,,,,,,,,,,,,,,,,,,,,,,,,,,,,,,,,,,,,,,,,,,,,,,,,,,,,自己,i,,,i,1,0.6836,1,48,128,73,1,,
,,,,,,,,,,,,,,1,001,2024-08-22_15h54.19.252,IAT(Formal),2021.2.3,Win32,60.24096386,,,,,,,,,,,,,,,,,,,,,,,,,,,,,,,,,,,,,,,,,,,,,,,,,,,,执拗,i,,,i,1,0.6339,1,49,129,40,1,,
,,,,,,,,,,,,,,1,001,2024-08-22_15h54.19.252,IAT(Formal),2021.2.3,Win32,60.24096386,,,,,,,,,,,,,,,,,,,,,,,,,,,,,,,,,,,,,,,,,,,,,,,,,,,,他们,e,,,i,0,0.7711,1,50,130,66,1,,
,,,,,,,,,,,,,,1,001,2024-08-22_15h54.19.252,IAT(Formal),2021.2.3,Win32,60.24096386,,,,,,,,,,,,,,,,,,,,,,,,,,,,,,,,,,,,,,,,,,,,,,,,,,,,他的,e,,,e,1,0.8227,1,51,131,7,1,,
,,,,,,,,,,,,,,1,001,2024-08-22_15h54.19.252,IAT(Formal),2021.2.3,Win32,60.24096386,,,,,,,,,,,,,,,,,,,,,,,,,,,,,,,,,,,,,,,,,,,,,,,,,,,,我的,i,,,i,1,0.5663,1,52,132,71,1,,
,,,,,,,,,,,,,,1,001,2024-08-22_15h54.19.252,IAT(Formal),2021.2.3,Win32,60.24096386,,,,,,,,,,,,,,,,,,,,,,,,,,,,,,,,,,,,,,,,,,,,,,,,,,,,他,e,,,e,1,1.0506,1,53,133,75,1,,
,,,,,,,,,,,,,,1,001,2024-08-22_15h54.19.252,IAT(Formal),2021.2.3,Win32,60.24096386,,,,,,,,,,,,,,,,,,,,,,,,,,,,,,,,,,,,,,,,,,,,,,,,,,,,乐观,e,,,e,1,0.6834,1,54,134,14,1,,
,,,,,,,,,,,,,,1,001,2024-08-22_15h54.19.252,IAT(Formal),2021.2.3,Win32,60.24096386,,,,,,,,,,,,,,,,,,,,,,,,,,,,,,,,,,,,,,,,,,,,,,,,,,,,他的,e,,,e,1,0.4844,1,55,135,67,1,,
,,,,,,,,,,,,,,1,001,2024-08-22_15h54.19.252,IAT(Formal),2021.2.3,Win32,60.24096386,,,,,,,,,,,,,,,,,,,,,,,,,,,,,,,,,,,,,,,,,,,,,,,,,,,,他,e,,,e,1,0.434,1,56,136,65,1,,
,,,,,,,,,,,,,,1,001,2024-08-22_15h54.19.252,IAT(Formal),2021.2.3,Win32,60.24096386,,,,,,,,,,,,,,,,,,,,,,,,,,,,,,,,,,,,,,,,,,,,,,,,,,,,傲慢,i,,,i,1,0.6165,1,57,137,37,1,,
,,,,,,,,,,,,,,1,001,2024-08-22_15h54.19.252,IAT(Formal),2021.2.3,Win32,60.24096386,,,,,,,,,,,,,,,,,,,,,,,,,,,,,,,,,,,,,,,,,,,,,,,,,,,,我们,i,,,i,1,0.8705,1,58,138,62,1,,
,,,,,,,,,,,,,,1,001,2024-08-22_15h54.19.252,IAT(Formal),2021.2.3,Win32,60.24096386,,,,,,,,,,,,,,,,,,,,,,,,,,,,,,,,,,,,,,,,,,,,,,,,,,,,轻率,i,,,i,1,0.617,1,59,139,48,1,,
,,,,,,,,,,,,,,1,001,2024-08-22_15h54.19.252,IAT(Formal),2021.2.3,Win32,60.24096386,,,,,,,,,,,,,,,,,,,,,,,,,,,,,,,,,,,,,,,,,,,,,,,,,,,,愚蠢,i,,,i,1,0.6457,1,60,140,32,1,,
,,,,,,,,,,,,,,1,001,2024-08-22_15h54.19.252,IAT(Formal),2021.2.3,Win32,60.24096386,,,,,,,,,,,,,,,,,,,,,,,,,,,,,,,,,,,,,,,,,,,,,,,,,,,,我,i,,,i,1,0.6943,1,61,141,50,1,,
,,,,,,,,,,,,,,1,001,2024-08-22_15h54.19.252,IAT(Formal),2021.2.3,Win32,60.24096386,,,,,,,,,,,,,,,,,,,,,,,,,,,,,,,,,,,,,,,,,,,,,,,,,,,,优秀,e,,,i,0,0.667,1,62,142,10,1,,
,,,,,,,,,,,,,,1,001,2024-08-22_15h54.19.252,IAT(Formal),2021.2.3,Win32,60.24096386,,,,,,,,,,,,,,,,,,,,,,,,,,,,,,,,,,,,,,,,,,,,,,,,,,,,机智,e,,,e,1,0.5025,1,63,143,19,1,,
,,,,,,,,,,,,,,1,001,2024-08-22_15h54.19.252,IAT(Formal),2021.2.3,Win32,60.24096386,,,,,,,,,,,,,,,,,,,,,,,,,,,,,,,,,,,,,,,,,,,,,,,,,,,,其他,e,,,e,1,0.5675,1,64,144,59,1,,
,,,,,,,,,,,,,,1,001,2024-08-22_15h54.19.252,IAT(Formal),2021.2.3,Win32,60.24096386,,,,,,,,,,,,,,,,,,,,,,,,,,,,,,,,,,,,,,,,,,,,,,,,,,,,杰出,e,,,e,1,0.5435,1,65,145,13,1,,
,,,,,,,,,,,,,,1,001,2024-08-22_15h54.19.252,IAT(Formal),2021.2.3,Win32,60.24096386,,,,,,,,,,,,,,,,,,,,,,,,,,,,,,,,,,,,,,,,,,,,,,,,,,,,他们,e,,,e,1,0.3783,1,66,146,76,1,,
,,,,,,,,,,,,,,1,001,2024-08-22_15h54.19.252,IAT(Formal),2021.2.3,Win32,60.24096386,,,,,,,,,,,,,,,,,,,,,,,,,,,,,,,,,,,,,,,,,,,,,,,,,,,,他人,e,,,e,1,0.4164,1,67,147,8,1,,
,,,,,,,,,,,,,,1,001,2024-08-22_15h54.19.252,IAT(Formal),2021.2.3,Win32,60.24096386,,,,,,,,,,,,,,,,,,,,,,,,,,,,,,,,,,,,,,,,,,,,,,,,,,,,冷静,e,,,e,1,0.6352,1,68,148,26,1,,
,,,,,,,,,,,,,,1,001,2024-08-22_15h54.19.252,IAT(Formal),2021.2.3,Win32,60.24096386,,,,,,,,,,,,,,,,,,,,,,,,,,,,,,,,,,,,,,,,,,,,,,,,,,,,凶狠,i,,,i,1,0.5138,1,69,149,42,1,,
,,,,,,,,,,,,,,1,001,2024-08-22_15h54.19.252,IAT(Formal),2021.2.3,Win32,60.24096386,,,,,,,,,,,,,,,,,,,,,,,,,,,,,,,,,,,,,,,,,,,,,,,,,,,,朴实,e,,,e,1,0.4403,1,70,150,24,1,,
,,,,,,,,,,,,,,1,001,2024-08-22_15h54.19.252,IAT(Formal),2021.2.3,Win32,60.24096386,,,,,,,,,,,,,,,,,,,,,,,,,,,,,,,,,,,,,,,,,,,,,,,,,,,,我,i,,,i,1,0.5403,1,71,151,0,1,,
,,,,,,,,,,,,,,1,001,2024-08-22_15h54.19.252,IAT(Formal),2021.2.3,Win32,60.24096386,,,,,,,,,,,,,,,,,,,,,,,,,,,,,,,,,,,,,,,,,,,,,,,,,,,,细腻,e,,,e,1,0.9175,1,72,152,25,1,,
,,,,,,,,,,,,,,1,001,2024-08-22_15h54.19.252,IAT(Formal),2021.2.3,Win32,60.24096386,,,,,,,,,,,,,,,,,,,,,,,,,,,,,,,,,,,,,,,,,,,,,,,,,,,,聪明,e,,,e,1,0.4671,1,73,153,12,1,,
,,,,,,,,,,,,,,1,001,2024-08-22_15h54.19.252,IAT(Formal),2021.2.3,Win32,60.24096386,,,,,,,,,,,,,,,,,,,,,,,,,,,,,,,,,,,,,,,,,,,,,,,,,,,,我们,i,,,e,0,0.5235,1,74,154,52,1,,
,,,,,,,,,,,,,,1,001,2024-08-22_15h54.19.252,IAT(Formal),2021.2.3,Win32,60.24096386,,,,,,,,,,,,,,,,,,,,,,,,,,,,,,,,,,,,,,,,,,,,,,,,,,,,下贱,i,,,i,1,0.6692,1,75,155,49,1,,
,,,,,,,,,,,,,,1,001,2024-08-22_15h54.19.252,IAT(Formal),2021.2.3,Win32,60.24096386,,,,,,,,,,,,,,,,,,,,,,,,,,,,,,,,,,,,,,,,,,,,,,,,,,,,刻薄,i,,,i,1,0.4898,1,76,156,33,1,,
,,,,,,,,,,,,,,1,001,2024-08-22_15h54.19.252,IAT(Formal),2021.2.3,Win32,60.24096386,,,,,,,,,,,,,,,,,,,,,,,,,,,,,,,,,,,,,,,,,,,,,,,,,,,,我们,i,,,i,1,1.1224,1,77,157,2,1,,
,,,,,,,,,,,,,,1,001,2024-08-22_15h54.19.252,IAT(Formal),2021.2.3,Win32,60.24096386,,,,,,,,,,,,,,,,,,,,,,,,,,,,,,,,,,,,,,,,,,,,,,,,,,,,悲观,i,,,i,1,0.9044,1,78,158,34,1,,
,,,,,,,,,,,,,,1,001,2024-08-22_15h54.19.252,IAT(Formal),2021.2.3,Win32,60.24096386,,,,,,,,,,,,,,,,,,,,,,,,,,,,,,,,,,,,,,,,,,,,,,,,,,,,他的,e,,,e,1,1.0801,1,79,159,57,1,,
,,,,,,,,,,,,,,1,001,2024-08-22_15h54.19.252,IAT(Formal),2021.2.3,Win32,60.24096386,,,,,,,,,,,,,,,,,,,,,,,,,,,,,,,,,,,,,,,,,,,,,,,,,,,,,,,,,,,,,,,,space,1.1708