"X.Instruction1.keys","Instruction1.rt","Instruction2.keys","Instruction2.rt","key_resp_iso.keys","key_resp_iso.corr","key_resp_iso.rt","Practice_01.thisRepN","Practice_01.thisTrialN","Practice_01.thisN","Practice_01.thisIndex","Practice_01.ran","Words","ans","participant","session","date","expName","psychopyVersion","OS","frameRate","key_resp_3.keys","key_resp_3.rt","key_resp_ipn.keys","key_resp_ipn.corr","key_resp_ipn.rt","Practice_02.thisRepN","Practice_02.thisTrialN","Practice_02.thisN","Practice_02.thisIndex","Practice_02.ran","Words_ipn","ans_ipn","key_resp_4.keys","key_resp_4.rt","key_resp_t1.keys","key_resp_t1.corr","key_resp_t1.rt","Practice_T1.thisRepN","Practice_T1.thisTrialN","Practice_T1.thisN","Practice_T1.thisIndex","Practice_T1.ran","Words_t1","ans_t1","key_resp_5.keys","key_resp_5.rt","Formal_T1.thisRepN","Formal_T1.thisTrialN","Formal_T1.thisN","Formal_T1.thisIndex","Formal_T1.ran","key_resp_6.keys","key_resp_6.rt","key_resp_iso_reverse.keys","key_resp_iso_reverse.corr","key_resp_iso_reverse.rt","Practice_iso_Reverse.thisRepN","Practice_iso_Reverse.thisTrialN","Practice_iso_Reverse.thisN","Practice_iso_Reverse.thisIndex","Practice_iso_Reverse.ran","key_resp_7.keys","key_resp_7.rt","key_resp_t2_Practice.keys","key_resp_t2_Practice.corr","key_resp_t2_Practice.rt","Practice_t2_Reverse.thisRepN","Practice_t2_Reverse.thisTrialN","Practice_t2_Reverse.thisN","Practice_t2_Reverse.thisIndex","Practice_t2_Reverse.ran","Words_t2","ans_t2","key_resp_8.keys","key_resp_8.rt","key_resp_t2.keys","key_resp_t2.corr","key_resp_t2.rt","Formal_t2_reverse.thisRepN","Formal_t2_reverse.thisTrialN","Formal_t2_reverse.thisN","Formal_t2_reverse.thisIndex","Formal_t2_reverse.ran","key_instruct.keys","key_instruct.rt","Subject"
"space",1.8552,"space",7.2094,"i",1,1.1715,0,0,0,7,1,"他的","i",1,1,"2024-08-23_15h33.26.919","IAT(Formal)","2021.2.3","Win32",59.88023952,"",NA,"",NA,NA,NA,NA,NA,NA,NA,"","","",NA,"",NA,NA,NA,NA,NA,NA,NA,"","","",NA,NA,NA,NA,NA,NA,"",NA,"",NA,NA,NA,NA,NA,NA,NA,"",NA,"",NA,NA,NA,NA,NA,NA,NA,"","","",NA,"",NA,NA,NA,NA,NA,NA,NA,"",NA,"10"
"",NA,"",NA,"i",1,0.7179,0,1,1,9,1,"其他","i",1,1,"2024-08-23_15h33.26.919","IAT(Formal)","2021.2.3","Win32",59.88023952,"",NA,"",NA,NA,NA,NA,NA,NA,NA,"","","",NA,"",NA,NA,NA,NA,NA,NA,NA,"","","",NA,NA,NA,NA,NA,NA,"",NA,"",NA,NA,NA,NA,NA,NA,NA,"",NA,"",NA,NA,NA,NA,NA,NA,NA,"","","",NA,"",NA,NA,NA,NA,NA,NA,NA,"",NA,"10"
"",NA,"",NA,"e",1,0.7833,0,2,2,3,1,"自己","e",1,1,"2024-08-23_15h33.26.919","IAT(Formal)","2021.2.3","Win32",59.88023952,"",NA,"",NA,NA,NA,NA,NA,NA,NA,"","","",NA,"",NA,NA,NA,NA,NA,NA,NA,"","","",NA,NA,NA,NA,NA,NA,"",NA,"",NA,NA,NA,NA,NA,NA,NA,"",NA,"",NA,NA,NA,NA,NA,NA,NA,"","","",NA,"",NA,NA,NA,NA,NA,NA,NA,"",NA,"10"
"",NA,"",NA,"e",1,0.7225,0,3,3,2,1,"我们","e",1,1,"2024-08-23_15h33.26.919","IAT(Formal)","2021.2.3","Win32",59.88023952,"",NA,"",NA,NA,NA,NA,NA,NA,NA,"","","",NA,"",NA,NA,NA,NA,NA,NA,NA,"","","",NA,NA,NA,NA,NA,NA,"",NA,"",NA,NA,NA,NA,NA,NA,NA,"",NA,"",NA,NA,NA,NA,NA,NA,NA,"","","",NA,"",NA,NA,NA,NA,NA,NA,NA,"",NA,"10"
"",NA,"",NA,"e",1,0.5052,0,4,4,0,1,"我","e",1,1,"2024-08-23_15h33.26.919","IAT(Formal)","2021.2.3","Win32",59.88023952,"",NA,"",NA,NA,NA,NA,NA,NA,NA,"","","",NA,"",NA,NA,NA,NA,NA,NA,NA,"","","",NA,NA,NA,NA,NA,NA,"",NA,"",NA,NA,NA,NA,NA,NA,NA,"",NA,"",NA,NA,NA,NA,NA,NA,NA,"","","",NA,"",NA,NA,NA,NA,NA,NA,NA,"",NA,"10"
"",NA,"",NA,"e",1,0.7611,0,5,5,1,1,"我的","e",1,1,"2024-08-23_15h33.26.919","IAT(Formal)","2021.2.3","Win32",59.88023952,"",NA,"",NA,NA,NA,NA,NA,NA,NA,"","","",NA,"",NA,NA,NA,NA,NA,NA,NA,"","","",NA,NA,NA,NA,NA,NA,"",NA,"",NA,NA,NA,NA,NA,NA,NA,"",NA,"",NA,NA,NA,NA,NA,NA,NA,"","","",NA,"",NA,NA,NA,NA,NA,NA,NA,"",NA,"10"
"",NA,"",NA,"",0,NA,0,6,6,4,1,"俺","e",1,1,"2024-08-23_15h33.26.919","IAT(Formal)","2021.2.3","Win32",59.88023952,"",NA,"",NA,NA,NA,NA,NA,NA,NA,"","","",NA,"",NA,NA,NA,NA,NA,NA,NA,"","","",NA,NA,NA,NA,NA,NA,"",NA,"",NA,NA,NA,NA,NA,NA,NA,"",NA,"",NA,NA,NA,NA,NA,NA,NA,"","","",NA,"",NA,NA,NA,NA,NA,NA,NA,"",NA,"10"
"",NA,"",NA,"i",1,0.5995,0,7,7,8,1,"他人","i",1,1,"2024-08-23_15h33.26.919","IAT(Formal)","2021.2.3","Win32",59.88023952,"",NA,"",NA,NA,NA,NA,NA,NA,NA,"","","",NA,"",NA,NA,NA,NA,NA,NA,NA,"","","",NA,NA,NA,NA,NA,NA,"",NA,"",NA,NA,NA,NA,NA,NA,NA,"",NA,"",NA,NA,NA,NA,NA,NA,NA,"","","",NA,"",NA,NA,NA,NA,NA,NA,NA,"",NA,"10"
"",NA,"",NA,"i",1,0.8489,0,8,8,5,1,"他","i",1,1,"2024-08-23_15h33.26.919","IAT(Formal)","2021.2.3","Win32",59.88023952,"",NA,"",NA,NA,NA,NA,NA,NA,NA,"","","",NA,"",NA,NA,NA,NA,NA,NA,NA,"","","",NA,NA,NA,NA,NA,NA,"",NA,"",NA,NA,NA,NA,NA,NA,NA,"",NA,"",NA,NA,NA,NA,NA,NA,NA,"","","",NA,"",NA,NA,NA,NA,NA,NA,NA,"",NA,"10"
"",NA,"",NA,"i",1,0.8025,0,9,9,6,1,"他们","i",1,1,"2024-08-23_15h33.26.919","IAT(Formal)","2021.2.3","Win32",59.88023952,"",NA,"",NA,NA,NA,NA,NA,NA,NA,"","","",NA,"",NA,NA,NA,NA,NA,NA,NA,"","","",NA,NA,NA,NA,NA,NA,"",NA,"",NA,NA,NA,NA,NA,NA,NA,"",NA,"",NA,NA,NA,NA,NA,NA,NA,"","","",NA,"",NA,NA,NA,NA,NA,NA,NA,"",NA,"10"
"",NA,"",NA,"",NA,NA,NA,NA,NA,NA,NA,"","",1,1,"2024-08-23_15h33.26.919","IAT(Formal)","2021.2.3","Win32",59.88023952,"space",1.9413,"e",1,0.918,0,0,0,12,1,"无私","e","",NA,"",NA,NA,NA,NA,NA,NA,NA,"","","",NA,NA,NA,NA,NA,NA,"",NA,"",NA,NA,NA,NA,NA,NA,NA,"",NA,"",NA,NA,NA,NA,NA,NA,NA,"","","",NA,"",NA,NA,NA,NA,NA,NA,NA,"",NA,"10"
"",NA,"",NA,"",NA,NA,NA,NA,NA,NA,NA,"","",1,1,"2024-08-23_15h33.26.919","IAT(Formal)","2021.2.3","Win32",59.88023952,"",NA,"i",1,0.8685,0,1,1,29,1,"冒失","i","",NA,"",NA,NA,NA,NA,NA,NA,NA,"","","",NA,NA,NA,NA,NA,NA,"",NA,"",NA,NA,NA,NA,NA,NA,NA,"",NA,"",NA,NA,NA,NA,NA,NA,NA,"","","",NA,"",NA,NA,NA,NA,NA,NA,NA,"",NA,"10"
"",NA,"",NA,"",NA,NA,NA,NA,NA,NA,NA,"","",1,1,"2024-08-23_15h33.26.919","IAT(Formal)","2021.2.3","Win32",59.88023952,"",NA,"e",1,0.6482,0,2,2,13,1,"公正","e","",NA,"",NA,NA,NA,NA,NA,NA,NA,"","","",NA,NA,NA,NA,NA,NA,"",NA,"",NA,NA,NA,NA,NA,NA,NA,"",NA,"",NA,NA,NA,NA,NA,NA,NA,"","","",NA,"",NA,NA,NA,NA,NA,NA,NA,"",NA,"10"
"",NA,"",NA,"",NA,NA,NA,NA,NA,NA,NA,"","",1,1,"2024-08-23_15h33.26.919","IAT(Formal)","2021.2.3","Win32",59.88023952,"",NA,"e",1,1.3751,0,3,3,7,1,"勇敢","e","",NA,"",NA,NA,NA,NA,NA,NA,NA,"","","",NA,NA,NA,NA,NA,NA,"",NA,"",NA,NA,NA,NA,NA,NA,NA,"",NA,"",NA,NA,NA,NA,NA,NA,NA,"","","",NA,"",NA,NA,NA,NA,NA,NA,NA,"",NA,"10"
"",NA,"",NA,"",NA,NA,NA,NA,NA,NA,NA,"","",1,1,"2024-08-23_15h33.26.919","IAT(Formal)","2021.2.3","Win32",59.88023952,"",NA,"e",1,1.0686,0,4,4,14,1,"朴实","e","",NA,"",NA,NA,NA,NA,NA,NA,NA,"","","",NA,NA,NA,NA,NA,NA,"",NA,"",NA,NA,NA,NA,NA,NA,NA,"",NA,"",NA,NA,NA,NA,NA,NA,NA,"","","",NA,"",NA,NA,NA,NA,NA,NA,NA,"",NA,"10"
"",NA,"",NA,"",NA,NA,NA,NA,NA,NA,NA,"","",1,1,"2024-08-23_15h33.26.919","IAT(Formal)","2021.2.3","Win32",59.88023952,"",NA,"i",1,1.0331,0,5,5,38,1,"轻率","i","",NA,"",NA,NA,NA,NA,NA,NA,NA,"","","",NA,NA,NA,NA,NA,NA,"",NA,"",NA,NA,NA,NA,NA,NA,NA,"",NA,"",NA,NA,NA,NA,NA,NA,NA,"","","",NA,"",NA,NA,NA,NA,NA,NA,NA,"",NA,"10"
"",NA,"",NA,"",NA,NA,NA,NA,NA,NA,NA,"","",1,1,"2024-08-23_15h33.26.919","IAT(Formal)","2021.2.3","Win32",59.88023952,"",NA,"e",1,0.9904,0,6,6,4,1,"乐观","e","",NA,"",NA,NA,NA,NA,NA,NA,NA,"","","",NA,NA,NA,NA,NA,NA,"",NA,"",NA,NA,NA,NA,NA,NA,NA,"",NA,"",NA,NA,NA,NA,NA,NA,NA,"","","",NA,"",NA,NA,NA,NA,NA,NA,NA,"",NA,"10"
"",NA,"",NA,"",NA,NA,NA,NA,NA,NA,NA,"","",1,1,"2024-08-23_15h33.26.919","IAT(Formal)","2021.2.3","Win32",59.88023952,"",NA,"e",1,0.9222,0,7,7,3,1,"杰出","e","",NA,"",NA,NA,NA,NA,NA,NA,NA,"","","",NA,NA,NA,NA,NA,NA,"",NA,"",NA,NA,NA,NA,NA,NA,NA,"",NA,"",NA,NA,NA,NA,NA,NA,NA,"","","",NA,"",NA,NA,NA,NA,NA,NA,NA,"",NA,"10"
"",NA,"",NA,"",NA,NA,NA,NA,NA,NA,NA,"","",1,1,"2024-08-23_15h33.26.919","IAT(Formal)","2021.2.3","Win32",59.88023952,"",NA,"",0,NA,0,8,8,18,1,"活泼","e","",NA,"",NA,NA,NA,NA,NA,NA,NA,"","","",NA,NA,NA,NA,NA,NA,"",NA,"",NA,NA,NA,NA,NA,NA,NA,"",NA,"",NA,NA,NA,NA,NA,NA,NA,"","","",NA,"",NA,NA,NA,NA,NA,NA,NA,"",NA,"10"
"",NA,"",NA,"",NA,NA,NA,NA,NA,NA,NA,"","",1,1,"2024-08-23_15h33.26.919","IAT(Formal)","2021.2.3","Win32",59.88023952,"",NA,"e",1,1.2833,0,9,9,16,1,"冷静","e","",NA,"",NA,NA,NA,NA,NA,NA,NA,"","","",NA,NA,NA,NA,NA,NA,"",NA,"",NA,NA,NA,NA,NA,NA,NA,"",NA,"",NA,NA,NA,NA,NA,NA,NA,"","","",NA,"",NA,NA,NA,NA,NA,NA,NA,"",NA,"10"
"",NA,"",NA,"",NA,NA,NA,NA,NA,NA,NA,"","",1,1,"2024-08-23_15h33.26.919","IAT(Formal)","2021.2.3","Win32",59.88023952,"",NA,"i",0,1.474,0,10,10,5,1,"诚实","e","",NA,"",NA,NA,NA,NA,NA,NA,NA,"","","",NA,NA,NA,NA,NA,NA,"",NA,"",NA,NA,NA,NA,NA,NA,NA,"",NA,"",NA,NA,NA,NA,NA,NA,NA,"","","",NA,"",NA,NA,NA,NA,NA,NA,NA,"",NA,"10"
"",NA,"",NA,"",NA,NA,NA,NA,NA,NA,NA,"","",1,1,"2024-08-23_15h33.26.919","IAT(Formal)","2021.2.3","Win32",59.88023952,"",NA,"i",1,0.6333,0,11,11,36,1,"野蛮","i","",NA,"",NA,NA,NA,NA,NA,NA,NA,"","","",NA,NA,NA,NA,NA,NA,"",NA,"",NA,NA,NA,NA,NA,NA,NA,"",NA,"",NA,NA,NA,NA,NA,NA,NA,"","","",NA,"",NA,NA,NA,NA,NA,NA,NA,"",NA,"10"
"",NA,"",NA,"",NA,NA,NA,NA,NA,NA,NA,"","",1,1,"2024-08-23_15h33.26.919","IAT(Formal)","2021.2.3","Win32",59.88023952,"",NA,"i",0,1.2354,0,12,12,2,1,"聪明","e","",NA,"",NA,NA,NA,NA,NA,NA,NA,"","","",NA,NA,NA,NA,NA,NA,"",NA,"",NA,NA,NA,NA,NA,NA,NA,"",NA,"",NA,NA,NA,NA,NA,NA,NA,"","","",NA,"",NA,NA,NA,NA,NA,NA,NA,"",NA,"10"
"",NA,"",NA,"",NA,NA,NA,NA,NA,NA,NA,"","",1,1,"2024-08-23_15h33.26.919","IAT(Formal)","2021.2.3","Win32",59.88023952,"",NA,"",0,NA,0,13,13,33,1,"自私","i","",NA,"",NA,NA,NA,NA,NA,NA,NA,"","","",NA,NA,NA,NA,NA,NA,"",NA,"",NA,NA,NA,NA,NA,NA,NA,"",NA,"",NA,NA,NA,NA,NA,NA,NA,"","","",NA,"",NA,NA,NA,NA,NA,NA,NA,"",NA,"10"
"",NA,"",NA,"",NA,NA,NA,NA,NA,NA,NA,"","",1,1,"2024-08-23_15h33.26.919","IAT(Formal)","2021.2.3","Win32",59.88023952,"",NA,"e",1,0.9899,0,14,14,0,1,"优秀","e","",NA,"",NA,NA,NA,NA,NA,NA,NA,"","","",NA,NA,NA,NA,NA,NA,"",NA,"",NA,NA,NA,NA,NA,NA,NA,"",NA,"",NA,NA,NA,NA,NA,NA,NA,"","","",NA,"",NA,NA,NA,NA,NA,NA,NA,"",NA,"10"
"",NA,"",NA,"",NA,NA,NA,NA,NA,NA,NA,"","",1,1,"2024-08-23_15h33.26.919","IAT(Formal)","2021.2.3","Win32",59.88023952,"",NA,"",0,NA,0,15,15,21,1,"虚伪","i","",NA,"",NA,NA,NA,NA,NA,NA,NA,"","","",NA,NA,NA,NA,NA,NA,"",NA,"",NA,NA,NA,NA,NA,NA,NA,"",NA,"",NA,NA,NA,NA,NA,NA,NA,"","","",NA,"",NA,NA,NA,NA,NA,NA,NA,"",NA,"10"
"",NA,"",NA,"",NA,NA,NA,NA,NA,NA,NA,"","",1,1,"2024-08-23_15h33.26.919","IAT(Formal)","2021.2.3","Win32",59.88023952,"",NA,"e",1,0.9342,0,16,16,10,1,"认真","e","",NA,"",NA,NA,NA,NA,NA,NA,NA,"","","",NA,NA,NA,NA,NA,NA,"",NA,"",NA,NA,NA,NA,NA,NA,NA,"",NA,"",NA,NA,NA,NA,NA,NA,NA,"","","",NA,"",NA,NA,NA,NA,NA,NA,NA,"",NA,"10"
"",NA,"",NA,"",NA,NA,NA,NA,NA,NA,NA,"","",1,1,"2024-08-23_15h33.26.919","IAT(Formal)","2021.2.3","Win32",59.88023952,"",NA,"e",1,1.1355,0,17,17,8,1,"勤奋","e","",NA,"",NA,NA,NA,NA,NA,NA,NA,"","","",NA,NA,NA,NA,NA,NA,"",NA,"",NA,NA,NA,NA,NA,NA,NA,"",NA,"",NA,NA,NA,NA,NA,NA,NA,"","","",NA,"",NA,NA,NA,NA,NA,NA,NA,"",NA,"10"
"",NA,"",NA,"",NA,NA,NA,NA,NA,NA,NA,"","",1,1,"2024-08-23_15h33.26.919","IAT(Formal)","2021.2.3","Win32",59.88023952,"",NA,"e",1,1.0152,0,18,18,19,1,"诚恳","e","",NA,"",NA,NA,NA,NA,NA,NA,NA,"","","",NA,NA,NA,NA,NA,NA,"",NA,"",NA,NA,NA,NA,NA,NA,NA,"",NA,"",NA,NA,NA,NA,NA,NA,NA,"","","",NA,"",NA,NA,NA,NA,NA,NA,NA,"",NA,"10"
"",NA,"",NA,"",NA,NA,NA,NA,NA,NA,NA,"","",1,1,"2024-08-23_15h33.26.919","IAT(Formal)","2021.2.3","Win32",59.88023952,"",NA,"",0,NA,0,19,19,27,1,"傲慢","i","",NA,"",NA,NA,NA,NA,NA,NA,NA,"","","",NA,NA,NA,NA,NA,NA,"",NA,"",NA,NA,NA,NA,NA,NA,NA,"",NA,"",NA,NA,NA,NA,NA,NA,NA,"","","",NA,"",NA,NA,NA,NA,NA,NA,NA,"",NA,"10"
"",NA,"",NA,"",NA,NA,NA,NA,NA,NA,NA,"","",1,1,"2024-08-23_15h33.26.919","IAT(Formal)","2021.2.3","Win32",59.88023952,"",NA,"e",1,0.8409,0,20,20,1,1,"崇高","e","",NA,"",NA,NA,NA,NA,NA,NA,NA,"","","",NA,NA,NA,NA,NA,NA,"",NA,"",NA,NA,NA,NA,NA,NA,NA,"",NA,"",NA,NA,NA,NA,NA,NA,NA,"","","",NA,"",NA,NA,NA,NA,NA,NA,NA,"",NA,"10"
"",NA,"",NA,"",NA,NA,NA,NA,NA,NA,NA,"","",1,1,"2024-08-23_15h33.26.919","IAT(Formal)","2021.2.3","Win32",59.88023952,"",NA,"i",1,0.7809,0,21,21,34,1,"暴躁","i","",NA,"",NA,NA,NA,NA,NA,NA,NA,"","","",NA,NA,NA,NA,NA,NA,"",NA,"",NA,NA,NA,NA,NA,NA,NA,"",NA,"",NA,NA,NA,NA,NA,NA,NA,"","","",NA,"",NA,NA,NA,NA,NA,NA,NA,"",NA,"10"
"",NA,"",NA,"",NA,NA,NA,NA,NA,NA,NA,"","",1,1,"2024-08-23_15h33.26.919","IAT(Formal)","2021.2.3","Win32",59.88023952,"",NA,"i",1,1.0684,0,22,22,30,1,"执拗","i","",NA,"",NA,NA,NA,NA,NA,NA,NA,"","","",NA,NA,NA,NA,NA,NA,"",NA,"",NA,NA,NA,NA,NA,NA,NA,"",NA,"",NA,NA,NA,NA,NA,NA,NA,"","","",NA,"",NA,NA,NA,NA,NA,NA,NA,"",NA,"10"
"",NA,"",NA,"",NA,NA,NA,NA,NA,NA,NA,"","",1,1,"2024-08-23_15h33.26.919","IAT(Formal)","2021.2.3","Win32",59.88023952,"",NA,"i",1,0.7432,0,23,23,35,1,"猖狂","i","",NA,"",NA,NA,NA,NA,NA,NA,NA,"","","",NA,NA,NA,NA,NA,NA,"",NA,"",NA,NA,NA,NA,NA,NA,NA,"",NA,"",NA,NA,NA,NA,NA,NA,NA,"","","",NA,"",NA,NA,NA,NA,NA,NA,NA,"",NA,"10"
"",NA,"",NA,"",NA,NA,NA,NA,NA,NA,NA,"","",1,1,"2024-08-23_15h33.26.919","IAT(Formal)","2021.2.3","Win32",59.88023952,"",NA,"e",1,0.5583,0,24,24,6,1,"正直","e","",NA,"",NA,NA,NA,NA,NA,NA,NA,"","","",NA,NA,NA,NA,NA,NA,"",NA,"",NA,NA,NA,NA,NA,NA,NA,"",NA,"",NA,NA,NA,NA,NA,NA,NA,"","","",NA,"",NA,NA,NA,NA,NA,NA,NA,"",NA,"10"
"",NA,"",NA,"",NA,NA,NA,NA,NA,NA,NA,"","",1,1,"2024-08-23_15h33.26.919","IAT(Formal)","2021.2.3","Win32",59.88023952,"",NA,"i",1,0.7929,0,25,25,31,1,"散漫","i","",NA,"",NA,NA,NA,NA,NA,NA,NA,"","","",NA,NA,NA,NA,NA,NA,"",NA,"",NA,NA,NA,NA,NA,NA,NA,"",NA,"",NA,NA,NA,NA,NA,NA,NA,"","","",NA,"",NA,NA,NA,NA,NA,NA,NA,"",NA,"10"
"",NA,"",NA,"",NA,NA,NA,NA,NA,NA,NA,"","",1,1,"2024-08-23_15h33.26.919","IAT(Formal)","2021.2.3","Win32",59.88023952,"",NA,"e",1,1.1337,0,26,26,15,1,"细腻","e","",NA,"",NA,NA,NA,NA,NA,NA,NA,"","","",NA,NA,NA,NA,NA,NA,"",NA,"",NA,NA,NA,NA,NA,NA,NA,"",NA,"",NA,NA,NA,NA,NA,NA,NA,"","","",NA,"",NA,NA,NA,NA,NA,NA,NA,"",NA,"10"
"",NA,"",NA,"",NA,NA,NA,NA,NA,NA,NA,"","",1,1,"2024-08-23_15h33.26.919","IAT(Formal)","2021.2.3","Win32",59.88023952,"",NA,"i",1,0.7329,0,27,27,32,1,"凶狠","i","",NA,"",NA,NA,NA,NA,NA,NA,NA,"","","",NA,NA,NA,NA,NA,NA,"",NA,"",NA,NA,NA,NA,NA,NA,NA,"",NA,"",NA,NA,NA,NA,NA,NA,NA,"","","",NA,"",NA,NA,NA,NA,NA,NA,NA,"",NA,"10"
"",NA,"",NA,"",NA,NA,NA,NA,NA,NA,NA,"","",1,1,"2024-08-23_15h33.26.919","IAT(Formal)","2021.2.3","Win32",59.88023952,"",NA,"e",1,1.0013,0,28,28,11,1,"稳重","e","",NA,"",NA,NA,NA,NA,NA,NA,NA,"","","",NA,NA,NA,NA,NA,NA,"",NA,"",NA,NA,NA,NA,NA,NA,NA,"",NA,"",NA,NA,NA,NA,NA,NA,NA,"","","",NA,"",NA,NA,NA,NA,NA,NA,NA,"",NA,"10"
"",NA,"",NA,"",NA,NA,NA,NA,NA,NA,NA,"","",1,1,"2024-08-23_15h33.26.919","IAT(Formal)","2021.2.3","Win32",59.88023952,"",NA,"i",1,0.6954,0,29,29,39,1,"下贱","i","",NA,"",NA,NA,NA,NA,NA,NA,NA,"","","",NA,NA,NA,NA,NA,NA,"",NA,"",NA,NA,NA,NA,NA,NA,NA,"",NA,"",NA,NA,NA,NA,NA,NA,NA,"","","",NA,"",NA,NA,NA,NA,NA,NA,NA,"",NA,"10"
"",NA,"",NA,"",NA,NA,NA,NA,NA,NA,NA,"","",1,1,"2024-08-23_15h33.26.919","IAT(Formal)","2021.2.3","Win32",59.88023952,"",NA,"e",1,0.6064,0,30,30,17,1,"热情","e","",NA,"",NA,NA,NA,NA,NA,NA,NA,"","","",NA,NA,NA,NA,NA,NA,"",NA,"",NA,NA,NA,NA,NA,NA,NA,"",NA,"",NA,NA,NA,NA,NA,NA,NA,"","","",NA,"",NA,NA,NA,NA,NA,NA,NA,"",NA,"10"
"",NA,"",NA,"",NA,NA,NA,NA,NA,NA,NA,"","",1,1,"2024-08-23_15h33.26.919","IAT(Formal)","2021.2.3","Win32",59.88023952,"",NA,"i",1,1.2422,0,31,31,20,1,"卑鄙","i","",NA,"",NA,NA,NA,NA,NA,NA,NA,"","","",NA,NA,NA,NA,NA,NA,"",NA,"",NA,NA,NA,NA,NA,NA,NA,"",NA,"",NA,NA,NA,NA,NA,NA,NA,"","","",NA,"",NA,NA,NA,NA,NA,NA,NA,"",NA,"10"
"",NA,"",NA,"",NA,NA,NA,NA,NA,NA,NA,"","",1,1,"2024-08-23_15h33.26.919","IAT(Formal)","2021.2.3","Win32",59.88023952,"",NA,"i",1,0.9065,0,32,32,23,1,"刻薄","i","",NA,"",NA,NA,NA,NA,NA,NA,NA,"","","",NA,NA,NA,NA,NA,NA,"",NA,"",NA,NA,NA,NA,NA,NA,NA,"",NA,"",NA,NA,NA,NA,NA,NA,NA,"","","",NA,"",NA,NA,NA,NA,NA,NA,NA,"",NA,"10"
"",NA,"",NA,"",NA,NA,NA,NA,NA,NA,NA,"","",1,1,"2024-08-23_15h33.26.919","IAT(Formal)","2021.2.3","Win32",59.88023952,"",NA,"i",1,1.1322,0,33,33,26,1,"自卑","i","",NA,"",NA,NA,NA,NA,NA,NA,NA,"","","",NA,NA,NA,NA,NA,NA,"",NA,"",NA,NA,NA,NA,NA,NA,NA,"",NA,"",NA,NA,NA,NA,NA,NA,NA,"","","",NA,"",NA,NA,NA,NA,NA,NA,NA,"",NA,"10"
"",NA,"",NA,"",NA,NA,NA,NA,NA,NA,NA,"","",1,1,"2024-08-23_15h33.26.919","IAT(Formal)","2021.2.3","Win32",59.88023952,"",NA,"i",1,1.4246,0,34,34,22,1,"愚蠢","i","",NA,"",NA,NA,NA,NA,NA,NA,NA,"","","",NA,NA,NA,NA,NA,NA,"",NA,"",NA,NA,NA,NA,NA,NA,NA,"",NA,"",NA,NA,NA,NA,NA,NA,NA,"","","",NA,"",NA,NA,NA,NA,NA,NA,NA,"",NA,"10"
"",NA,"",NA,"",NA,NA,NA,NA,NA,NA,NA,"","",1,1,"2024-08-23_15h33.26.919","IAT(Formal)","2021.2.3","Win32",59.88023952,"",NA,"",0,NA,0,35,35,9,1,"机智","e","",NA,"",NA,NA,NA,NA,NA,NA,NA,"","","",NA,NA,NA,NA,NA,NA,"",NA,"",NA,NA,NA,NA,NA,NA,NA,"",NA,"",NA,NA,NA,NA,NA,NA,NA,"","","",NA,"",NA,NA,NA,NA,NA,NA,NA,"",NA,"10"
"",NA,"",NA,"",NA,NA,NA,NA,NA,NA,NA,"","",1,1,"2024-08-23_15h33.26.919","IAT(Formal)","2021.2.3","Win32",59.88023952,"",NA,"i",1,1.2508,0,36,36,37,1,"固执","i","",NA,"",NA,NA,NA,NA,NA,NA,NA,"","","",NA,NA,NA,NA,NA,NA,"",NA,"",NA,NA,NA,NA,NA,NA,NA,"",NA,"",NA,NA,NA,NA,NA,NA,NA,"","","",NA,"",NA,NA,NA,NA,NA,NA,NA,"",NA,"10"
"",NA,"",NA,"",NA,NA,NA,NA,NA,NA,NA,"","",1,1,"2024-08-23_15h33.26.919","IAT(Formal)","2021.2.3","Win32",59.88023952,"",NA,"i",1,1.4326,0,37,37,24,1,"悲观","i","",NA,"",NA,NA,NA,NA,NA,NA,NA,"","","",NA,NA,NA,NA,NA,NA,"",NA,"",NA,NA,NA,NA,NA,NA,NA,"",NA,"",NA,NA,NA,NA,NA,NA,NA,"","","",NA,"",NA,NA,NA,NA,NA,NA,NA,"",NA,"10"
"",NA,"",NA,"",NA,NA,NA,NA,NA,NA,NA,"","",1,1,"2024-08-23_15h33.26.919","IAT(Formal)","2021.2.3","Win32",59.88023952,"",NA,"",0,NA,0,38,38,28,1,"鲁莽","i","",NA,"",NA,NA,NA,NA,NA,NA,NA,"","","",NA,NA,NA,NA,NA,NA,"",NA,"",NA,NA,NA,NA,NA,NA,NA,"",NA,"",NA,NA,NA,NA,NA,NA,NA,"","","",NA,"",NA,NA,NA,NA,NA,NA,NA,"",NA,"10"
"",NA,"",NA,"",NA,NA,NA,NA,NA,NA,NA,"","",1,1,"2024-08-23_15h33.26.919","IAT(Formal)","2021.2.3","Win32",59.88023952,"",NA,"i",1,1.2364,0,39,39,25,1,"消极","i","",NA,"",NA,NA,NA,NA,NA,NA,NA,"","","",NA,NA,NA,NA,NA,NA,"",NA,"",NA,NA,NA,NA,NA,NA,NA,"",NA,"",NA,NA,NA,NA,NA,NA,NA,"","","",NA,"",NA,NA,NA,NA,NA,NA,NA,"",NA,"10"
"",NA,"",NA,"",NA,NA,NA,NA,NA,NA,NA,"","",1,1,"2024-08-23_15h33.26.919","IAT(Formal)","2021.2.3","Win32",59.88023952,"",NA,"",NA,NA,NA,NA,NA,NA,NA,"","","space",22.5808,"i",1,1.1994,0,0,0,47,1,"固执","i","",NA,NA,NA,NA,NA,NA,"",NA,"",NA,NA,NA,NA,NA,NA,NA,"",NA,"",NA,NA,NA,NA,NA,NA,NA,"","","",NA,"",NA,NA,NA,NA,NA,NA,NA,"",NA,"10"
"",NA,"",NA,"",NA,NA,NA,NA,NA,NA,NA,"","",1,1,"2024-08-23_15h33.26.919","IAT(Formal)","2021.2.3","Win32",59.88023952,"",NA,"",NA,NA,NA,NA,NA,NA,NA,"","","",NA,"i",1,0.6751,0,1,1,65,1,"他","i","",NA,NA,NA,NA,NA,NA,"",NA,"",NA,NA,NA,NA,NA,NA,NA,"",NA,"",NA,NA,NA,NA,NA,NA,NA,"","","",NA,"",NA,NA,NA,NA,NA,NA,NA,"",NA,"10"
"",NA,"",NA,"",NA,NA,NA,NA,NA,NA,NA,"","",1,1,"2024-08-23_15h33.26.919","IAT(Formal)","2021.2.3","Win32",59.88023952,"",NA,"",NA,NA,NA,NA,NA,NA,NA,"","","",NA,"e",1,0.5868,0,2,2,2,1,"我们","e","",NA,NA,NA,NA,NA,NA,"",NA,"",NA,NA,NA,NA,NA,NA,NA,"",NA,"",NA,NA,NA,NA,NA,NA,NA,"","","",NA,"",NA,NA,NA,NA,NA,NA,NA,"",NA,"10"
"",NA,"",NA,"",NA,NA,NA,NA,NA,NA,NA,"","",1,1,"2024-08-23_15h33.26.919","IAT(Formal)","2021.2.3","Win32",59.88023952,"",NA,"",NA,NA,NA,NA,NA,NA,NA,"","","",NA,"e",1,1.0647,0,3,3,63,1,"自己","e","",NA,NA,NA,NA,NA,NA,"",NA,"",NA,NA,NA,NA,NA,NA,NA,"",NA,"",NA,NA,NA,NA,NA,NA,NA,"","","",NA,"",NA,NA,NA,NA,NA,NA,NA,"",NA,"10"
"",NA,"",NA,"",NA,NA,NA,NA,NA,NA,NA,"","",1,1,"2024-08-23_15h33.26.919","IAT(Formal)","2021.2.3","Win32",59.88023952,"",NA,"",NA,NA,NA,NA,NA,NA,NA,"","","",NA,"i",1,0.735,0,4,4,32,1,"愚蠢","i","",NA,NA,NA,NA,NA,NA,"",NA,"",NA,NA,NA,NA,NA,NA,NA,"",NA,"",NA,NA,NA,NA,NA,NA,NA,"","","",NA,"",NA,NA,NA,NA,NA,NA,NA,"",NA,"10"
"",NA,"",NA,"",NA,NA,NA,NA,NA,NA,NA,"","",1,1,"2024-08-23_15h33.26.919","IAT(Formal)","2021.2.3","Win32",59.88023952,"",NA,"",NA,NA,NA,NA,NA,NA,NA,"","","",NA,"e",1,0.7267,0,5,5,51,1,"我的","e","",NA,NA,NA,NA,NA,NA,"",NA,"",NA,NA,NA,NA,NA,NA,NA,"",NA,"",NA,NA,NA,NA,NA,NA,NA,"","","",NA,"",NA,NA,NA,NA,NA,NA,NA,"",NA,"10"
"",NA,"",NA,"",NA,NA,NA,NA,NA,NA,NA,"","",1,1,"2024-08-23_15h33.26.919","IAT(Formal)","2021.2.3","Win32",59.88023952,"",NA,"",NA,NA,NA,NA,NA,NA,NA,"","","",NA,"i",1,1.1332,0,6,6,5,1,"他","i","",NA,NA,NA,NA,NA,NA,"",NA,"",NA,NA,NA,NA,NA,NA,NA,"",NA,"",NA,NA,NA,NA,NA,NA,NA,"","","",NA,"",NA,NA,NA,NA,NA,NA,NA,"",NA,"10"
"",NA,"",NA,"",NA,NA,NA,NA,NA,NA,NA,"","",1,1,"2024-08-23_15h33.26.919","IAT(Formal)","2021.2.3","Win32",59.88023952,"",NA,"",NA,NA,NA,NA,NA,NA,NA,"","","",NA,"",0,NA,0,7,7,26,1,"冷静","e","",NA,NA,NA,NA,NA,NA,"",NA,"",NA,NA,NA,NA,NA,NA,NA,"",NA,"",NA,NA,NA,NA,NA,NA,NA,"","","",NA,"",NA,NA,NA,NA,NA,NA,NA,"",NA,"10"
"",NA,"",NA,"",NA,NA,NA,NA,NA,NA,NA,"","",1,1,"2024-08-23_15h33.26.919","IAT(Formal)","2021.2.3","Win32",59.88023952,"",NA,"",NA,NA,NA,NA,NA,NA,NA,"","","",NA,"i",1,0.8876,0,8,8,78,1,"他人","i","",NA,NA,NA,NA,NA,NA,"",NA,"",NA,NA,NA,NA,NA,NA,NA,"",NA,"",NA,NA,NA,NA,NA,NA,NA,"","","",NA,"",NA,NA,NA,NA,NA,NA,NA,"",NA,"10"
"",NA,"",NA,"",NA,NA,NA,NA,NA,NA,NA,"","",1,1,"2024-08-23_15h33.26.919","IAT(Formal)","2021.2.3","Win32",59.88023952,"",NA,"",NA,NA,NA,NA,NA,NA,NA,"","","",NA,"e",1,1.0992,0,9,9,27,1,"热情","e","",NA,NA,NA,NA,NA,NA,"",NA,"",NA,NA,NA,NA,NA,NA,NA,"",NA,"",NA,NA,NA,NA,NA,NA,NA,"","","",NA,"",NA,NA,NA,NA,NA,NA,NA,"",NA,"10"
"",NA,"",NA,"",NA,NA,NA,NA,NA,NA,NA,"","",1,1,"2024-08-23_15h33.26.919","IAT(Formal)","2021.2.3","Win32",59.88023952,"",NA,"",NA,NA,NA,NA,NA,NA,NA,"","","",NA,"",0,NA,0,10,10,44,1,"暴躁","i","",NA,NA,NA,NA,NA,NA,"",NA,"",NA,NA,NA,NA,NA,NA,NA,"",NA,"",NA,NA,NA,NA,NA,NA,NA,"","","",NA,"",NA,NA,NA,NA,NA,NA,NA,"",NA,"10"
"",NA,"",NA,"",NA,NA,NA,NA,NA,NA,NA,"","",1,1,"2024-08-23_15h33.26.919","IAT(Formal)","2021.2.3","Win32",59.88023952,"",NA,"",NA,NA,NA,NA,NA,NA,NA,"","","",NA,"i",1,0.8438,0,11,11,31,1,"虚伪","i","",NA,NA,NA,NA,NA,NA,"",NA,"",NA,NA,NA,NA,NA,NA,NA,"",NA,"",NA,NA,NA,NA,NA,NA,NA,"","","",NA,"",NA,NA,NA,NA,NA,NA,NA,"",NA,"10"
"",NA,"",NA,"",NA,NA,NA,NA,NA,NA,NA,"","",1,1,"2024-08-23_15h33.26.919","IAT(Formal)","2021.2.3","Win32",59.88023952,"",NA,"",NA,NA,NA,NA,NA,NA,NA,"","","",NA,"i",1,1.2618,0,12,12,30,1,"卑鄙","i","",NA,NA,NA,NA,NA,NA,"",NA,"",NA,NA,NA,NA,NA,NA,NA,"",NA,"",NA,NA,NA,NA,NA,NA,NA,"","","",NA,"",NA,NA,NA,NA,NA,NA,NA,"",NA,"10"
"",NA,"",NA,"",NA,NA,NA,NA,NA,NA,NA,"","",1,1,"2024-08-23_15h33.26.919","IAT(Formal)","2021.2.3","Win32",59.88023952,"",NA,"",NA,NA,NA,NA,NA,NA,NA,"","","",NA,"e",1,0.6543,0,13,13,60,1,"我","e","",NA,NA,NA,NA,NA,NA,"",NA,"",NA,NA,NA,NA,NA,NA,NA,"",NA,"",NA,NA,NA,NA,NA,NA,NA,"","","",NA,"",NA,NA,NA,NA,NA,NA,NA,"",NA,"10"
"",NA,"",NA,"",NA,NA,NA,NA,NA,NA,NA,"","",1,1,"2024-08-23_15h33.26.919","IAT(Formal)","2021.2.3","Win32",59.88023952,"",NA,"",NA,NA,NA,NA,NA,NA,NA,"","","",NA,"e",1,1.0317,0,14,14,21,1,"稳重","e","",NA,NA,NA,NA,NA,NA,"",NA,"",NA,NA,NA,NA,NA,NA,NA,"",NA,"",NA,NA,NA,NA,NA,NA,NA,"","","",NA,"",NA,NA,NA,NA,NA,NA,NA,"",NA,"10"
"",NA,"",NA,"",NA,NA,NA,NA,NA,NA,NA,"","",1,1,"2024-08-23_15h33.26.919","IAT(Formal)","2021.2.3","Win32",59.88023952,"",NA,"",NA,NA,NA,NA,NA,NA,NA,"","","",NA,"i",1,0.9338,0,15,15,39,1,"冒失","i","",NA,NA,NA,NA,NA,NA,"",NA,"",NA,NA,NA,NA,NA,NA,NA,"",NA,"",NA,NA,NA,NA,NA,NA,NA,"","","",NA,"",NA,NA,NA,NA,NA,NA,NA,"",NA,"10"
"",NA,"",NA,"",NA,NA,NA,NA,NA,NA,NA,"","",1,1,"2024-08-23_15h33.26.919","IAT(Formal)","2021.2.3","Win32",59.88023952,"",NA,"",NA,NA,NA,NA,NA,NA,NA,"","","",NA,"e",1,1.4135,0,16,16,54,1,"俺","e","",NA,NA,NA,NA,NA,NA,"",NA,"",NA,NA,NA,NA,NA,NA,NA,"",NA,"",NA,NA,NA,NA,NA,NA,NA,"","","",NA,"",NA,NA,NA,NA,NA,NA,NA,"",NA,"10"
"",NA,"",NA,"",NA,NA,NA,NA,NA,NA,NA,"","",1,1,"2024-08-23_15h33.26.919","IAT(Formal)","2021.2.3","Win32",59.88023952,"",NA,"",NA,NA,NA,NA,NA,NA,NA,"","","",NA,"",0,NA,0,17,17,33,1,"刻薄","i","",NA,NA,NA,NA,NA,NA,"",NA,"",NA,NA,NA,NA,NA,NA,NA,"",NA,"",NA,NA,NA,NA,NA,NA,NA,"","","",NA,"",NA,NA,NA,NA,NA,NA,NA,"",NA,"10"
"",NA,"",NA,"",NA,NA,NA,NA,NA,NA,NA,"","",1,1,"2024-08-23_15h33.26.919","IAT(Formal)","2021.2.3","Win32",59.88023952,"",NA,"",NA,NA,NA,NA,NA,NA,NA,"","","",NA,"",0,NA,0,18,18,48,1,"轻率","i","",NA,NA,NA,NA,NA,NA,"",NA,"",NA,NA,NA,NA,NA,NA,NA,"",NA,"",NA,NA,NA,NA,NA,NA,NA,"","","",NA,"",NA,NA,NA,NA,NA,NA,NA,"",NA,"10"
"",NA,"",NA,"",NA,NA,NA,NA,NA,NA,NA,"","",1,1,"2024-08-23_15h33.26.919","IAT(Formal)","2021.2.3","Win32",59.88023952,"",NA,"",NA,NA,NA,NA,NA,NA,NA,"","","",NA,"",0,NA,0,19,19,34,1,"悲观","i","",NA,NA,NA,NA,NA,NA,"",NA,"",NA,NA,NA,NA,NA,NA,NA,"",NA,"",NA,NA,NA,NA,NA,NA,NA,"","","",NA,"",NA,NA,NA,NA,NA,NA,NA,"",NA,"10"
"",NA,"",NA,"",NA,NA,NA,NA,NA,NA,NA,"","",1,1,"2024-08-23_15h33.26.919","IAT(Formal)","2021.2.3","Win32",59.88023952,"",NA,"",NA,NA,NA,NA,NA,NA,NA,"","","",NA,"i",0,1.2995,0,20,20,25,1,"细腻","e","",NA,NA,NA,NA,NA,NA,"",NA,"",NA,NA,NA,NA,NA,NA,NA,"",NA,"",NA,NA,NA,NA,NA,NA,NA,"","","",NA,"",NA,NA,NA,NA,NA,NA,NA,"",NA,"10"
"",NA,"",NA,"",NA,NA,NA,NA,NA,NA,NA,"","",1,1,"2024-08-23_15h33.26.919","IAT(Formal)","2021.2.3","Win32",59.88023952,"",NA,"",NA,NA,NA,NA,NA,NA,NA,"","","",NA,"e",1,0.8504,0,21,21,61,1,"我的","e","",NA,NA,NA,NA,NA,NA,"",NA,"",NA,NA,NA,NA,NA,NA,NA,"",NA,"",NA,NA,NA,NA,NA,NA,NA,"","","",NA,"",NA,NA,NA,NA,NA,NA,NA,"",NA,"10"
"",NA,"",NA,"",NA,NA,NA,NA,NA,NA,NA,"","",1,1,"2024-08-23_15h33.26.919","IAT(Formal)","2021.2.3","Win32",59.88023952,"",NA,"",NA,NA,NA,NA,NA,NA,NA,"","","",NA,"e",1,0.6913,0,22,22,10,1,"优秀","e","",NA,NA,NA,NA,NA,NA,"",NA,"",NA,NA,NA,NA,NA,NA,NA,"",NA,"",NA,NA,NA,NA,NA,NA,NA,"","","",NA,"",NA,NA,NA,NA,NA,NA,NA,"",NA,"10"
"",NA,"",NA,"",NA,NA,NA,NA,NA,NA,NA,"","",1,1,"2024-08-23_15h33.26.919","IAT(Formal)","2021.2.3","Win32",59.88023952,"",NA,"",NA,NA,NA,NA,NA,NA,NA,"","","",NA,"i",1,0.6678,0,23,23,41,1,"散漫","i","",NA,NA,NA,NA,NA,NA,"",NA,"",NA,NA,NA,NA,NA,NA,NA,"",NA,"",NA,NA,NA,NA,NA,NA,NA,"","","",NA,"",NA,NA,NA,NA,NA,NA,NA,"",NA,"10"
"",NA,"",NA,"",NA,NA,NA,NA,NA,NA,NA,"","",1,1,"2024-08-23_15h33.26.919","IAT(Formal)","2021.2.3","Win32",59.88023952,"",NA,"",NA,NA,NA,NA,NA,NA,NA,"","","",NA,"e",1,0.9985,0,24,24,22,1,"无私","e","",NA,NA,NA,NA,NA,NA,"",NA,"",NA,NA,NA,NA,NA,NA,NA,"",NA,"",NA,NA,NA,NA,NA,NA,NA,"","","",NA,"",NA,NA,NA,NA,NA,NA,NA,"",NA,"10"
"",NA,"",NA,"",NA,NA,NA,NA,NA,NA,NA,"","",1,1,"2024-08-23_15h33.26.919","IAT(Formal)","2021.2.3","Win32",59.88023952,"",NA,"",NA,NA,NA,NA,NA,NA,NA,"","","",NA,"e",1,1.0722,0,25,25,23,1,"公正","e","",NA,NA,NA,NA,NA,NA,"",NA,"",NA,NA,NA,NA,NA,NA,NA,"",NA,"",NA,NA,NA,NA,NA,NA,NA,"","","",NA,"",NA,NA,NA,NA,NA,NA,NA,"",NA,"10"
"",NA,"",NA,"",NA,NA,NA,NA,NA,NA,NA,"","",1,1,"2024-08-23_15h33.26.919","IAT(Formal)","2021.2.3","Win32",59.88023952,"",NA,"",NA,NA,NA,NA,NA,NA,NA,"","","",NA,"i",1,0.616,0,26,26,35,1,"消极","i","",NA,NA,NA,NA,NA,NA,"",NA,"",NA,NA,NA,NA,NA,NA,NA,"",NA,"",NA,NA,NA,NA,NA,NA,NA,"","","",NA,"",NA,NA,NA,NA,NA,NA,NA,"",NA,"10"
"",NA,"",NA,"",NA,NA,NA,NA,NA,NA,NA,"","",1,1,"2024-08-23_15h33.26.919","IAT(Formal)","2021.2.3","Win32",59.88023952,"",NA,"",NA,NA,NA,NA,NA,NA,NA,"","","",NA,"i",1,1.1549,0,27,27,37,1,"傲慢","i","",NA,NA,NA,NA,NA,NA,"",NA,"",NA,NA,NA,NA,NA,NA,NA,"",NA,"",NA,NA,NA,NA,NA,NA,NA,"","","",NA,"",NA,NA,NA,NA,NA,NA,NA,"",NA,"10"
"",NA,"",NA,"",NA,NA,NA,NA,NA,NA,NA,"","",1,1,"2024-08-23_15h33.26.919","IAT(Formal)","2021.2.3","Win32",59.88023952,"",NA,"",NA,NA,NA,NA,NA,NA,NA,"","","",NA,"e",0,0.969,0,28,28,76,1,"他们","i","",NA,NA,NA,NA,NA,NA,"",NA,"",NA,NA,NA,NA,NA,NA,NA,"",NA,"",NA,NA,NA,NA,NA,NA,NA,"","","",NA,"",NA,NA,NA,NA,NA,NA,NA,"",NA,"10"
"",NA,"",NA,"",NA,NA,NA,NA,NA,NA,NA,"","",1,1,"2024-08-23_15h33.26.919","IAT(Formal)","2021.2.3","Win32",59.88023952,"",NA,"",NA,NA,NA,NA,NA,NA,NA,"","","",NA,"i",0,1.0769,0,29,29,74,1,"俺","e","",NA,NA,NA,NA,NA,NA,"",NA,"",NA,NA,NA,NA,NA,NA,NA,"",NA,"",NA,NA,NA,NA,NA,NA,NA,"","","",NA,"",NA,NA,NA,NA,NA,NA,NA,"",NA,"10"
"",NA,"",NA,"",NA,NA,NA,NA,NA,NA,NA,"","",1,1,"2024-08-23_15h33.26.919","IAT(Formal)","2021.2.3","Win32",59.88023952,"",NA,"",NA,NA,NA,NA,NA,NA,NA,"","","",NA,"e",1,1.4381,0,30,30,19,1,"机智","e","",NA,NA,NA,NA,NA,NA,"",NA,"",NA,NA,NA,NA,NA,NA,NA,"",NA,"",NA,NA,NA,NA,NA,NA,NA,"","","",NA,"",NA,NA,NA,NA,NA,NA,NA,"",NA,"10"
"",NA,"",NA,"",NA,NA,NA,NA,NA,NA,NA,"","",1,1,"2024-08-23_15h33.26.919","IAT(Formal)","2021.2.3","Win32",59.88023952,"",NA,"",NA,NA,NA,NA,NA,NA,NA,"","","",NA,"",0,NA,0,31,31,1,1,"我的","e","",NA,NA,NA,NA,NA,NA,"",NA,"",NA,NA,NA,NA,NA,NA,NA,"",NA,"",NA,NA,NA,NA,NA,NA,NA,"","","",NA,"",NA,NA,NA,NA,NA,NA,NA,"",NA,"10"
"",NA,"",NA,"",NA,NA,NA,NA,NA,NA,NA,"","",1,1,"2024-08-23_15h33.26.919","IAT(Formal)","2021.2.3","Win32",59.88023952,"",NA,"",NA,NA,NA,NA,NA,NA,NA,"","","",NA,"e",1,1.0381,0,32,32,12,1,"聪明","e","",NA,NA,NA,NA,NA,NA,"",NA,"",NA,NA,NA,NA,NA,NA,NA,"",NA,"",NA,NA,NA,NA,NA,NA,NA,"","","",NA,"",NA,NA,NA,NA,NA,NA,NA,"",NA,"10"
"",NA,"",NA,"",NA,NA,NA,NA,NA,NA,NA,"","",1,1,"2024-08-23_15h33.26.919","IAT(Formal)","2021.2.3","Win32",59.88023952,"",NA,"",NA,NA,NA,NA,NA,NA,NA,"","","",NA,"i",1,0.9841,0,33,33,8,1,"他人","i","",NA,NA,NA,NA,NA,NA,"",NA,"",NA,NA,NA,NA,NA,NA,NA,"",NA,"",NA,NA,NA,NA,NA,NA,NA,"","","",NA,"",NA,NA,NA,NA,NA,NA,NA,"",NA,"10"
"",NA,"",NA,"",NA,NA,NA,NA,NA,NA,NA,"","",1,1,"2024-08-23_15h33.26.919","IAT(Formal)","2021.2.3","Win32",59.88023952,"",NA,"",NA,NA,NA,NA,NA,NA,NA,"","","",NA,"i",1,0.708,0,34,34,42,1,"凶狠","i","",NA,NA,NA,NA,NA,NA,"",NA,"",NA,NA,NA,NA,NA,NA,NA,"",NA,"",NA,NA,NA,NA,NA,NA,NA,"","","",NA,"",NA,NA,NA,NA,NA,NA,NA,"",NA,"10"
"",NA,"",NA,"",NA,NA,NA,NA,NA,NA,NA,"","",1,1,"2024-08-23_15h33.26.919","IAT(Formal)","2021.2.3","Win32",59.88023952,"",NA,"",NA,NA,NA,NA,NA,NA,NA,"","","",NA,"i",1,0.8581,0,35,35,69,1,"其他","i","",NA,NA,NA,NA,NA,NA,"",NA,"",NA,NA,NA,NA,NA,NA,NA,"",NA,"",NA,NA,NA,NA,NA,NA,NA,"","","",NA,"",NA,NA,NA,NA,NA,NA,NA,"",NA,"10"
"",NA,"",NA,"",NA,NA,NA,NA,NA,NA,NA,"","",1,1,"2024-08-23_15h33.26.919","IAT(Formal)","2021.2.3","Win32",59.88023952,"",NA,"",NA,NA,NA,NA,NA,NA,NA,"","","",NA,"i",1,0.7674,0,36,36,45,1,"猖狂","i","",NA,NA,NA,NA,NA,NA,"",NA,"",NA,NA,NA,NA,NA,NA,NA,"",NA,"",NA,NA,NA,NA,NA,NA,NA,"","","",NA,"",NA,NA,NA,NA,NA,NA,NA,"",NA,"10"
"",NA,"",NA,"",NA,NA,NA,NA,NA,NA,NA,"","",1,1,"2024-08-23_15h33.26.919","IAT(Formal)","2021.2.3","Win32",59.88023952,"",NA,"",NA,NA,NA,NA,NA,NA,NA,"","","",NA,"i",1,0.6251,0,37,37,43,1,"自私","i","",NA,NA,NA,NA,NA,NA,"",NA,"",NA,NA,NA,NA,NA,NA,NA,"",NA,"",NA,NA,NA,NA,NA,NA,NA,"","","",NA,"",NA,NA,NA,NA,NA,NA,NA,"",NA,"10"
"",NA,"",NA,"",NA,NA,NA,NA,NA,NA,NA,"","",1,1,"2024-08-23_15h33.26.919","IAT(Formal)","2021.2.3","Win32",59.88023952,"",NA,"",NA,NA,NA,NA,NA,NA,NA,"","","",NA,"i",1,0.6517,0,38,38,46,1,"野蛮","i","",NA,NA,NA,NA,NA,NA,"",NA,"",NA,NA,NA,NA,NA,NA,NA,"",NA,"",NA,NA,NA,NA,NA,NA,NA,"","","",NA,"",NA,NA,NA,NA,NA,NA,NA,"",NA,"10"
"",NA,"",NA,"",NA,NA,NA,NA,NA,NA,NA,"","",1,1,"2024-08-23_15h33.26.919","IAT(Formal)","2021.2.3","Win32",59.88023952,"",NA,"",NA,NA,NA,NA,NA,NA,NA,"","","",NA,"i",0,0.822,0,39,39,52,1,"我们","e","",NA,NA,NA,NA,NA,NA,"",NA,"",NA,NA,NA,NA,NA,NA,NA,"",NA,"",NA,NA,NA,NA,NA,NA,NA,"","","",NA,"",NA,NA,NA,NA,NA,NA,NA,"",NA,"10"
"",NA,"",NA,"",NA,NA,NA,NA,NA,NA,NA,"","",1,1,"2024-08-23_15h33.26.919","IAT(Formal)","2021.2.3","Win32",59.88023952,"",NA,"",NA,NA,NA,NA,NA,NA,NA,"","","",NA,"i",1,0.9034,0,40,40,6,1,"他们","i","",NA,NA,NA,NA,NA,NA,"",NA,"",NA,NA,NA,NA,NA,NA,NA,"",NA,"",NA,NA,NA,NA,NA,NA,NA,"","","",NA,"",NA,NA,NA,NA,NA,NA,NA,"",NA,"10"
"",NA,"",NA,"",NA,NA,NA,NA,NA,NA,NA,"","",1,1,"2024-08-23_15h33.26.919","IAT(Formal)","2021.2.3","Win32",59.88023952,"",NA,"",NA,NA,NA,NA,NA,NA,NA,"","","",NA,"i",1,0.9191,0,41,41,68,1,"他人","i","",NA,NA,NA,NA,NA,NA,"",NA,"",NA,NA,NA,NA,NA,NA,NA,"",NA,"",NA,NA,NA,NA,NA,NA,NA,"","","",NA,"",NA,NA,NA,NA,NA,NA,NA,"",NA,"10"
"",NA,"",NA,"",NA,NA,NA,NA,NA,NA,NA,"","",1,1,"2024-08-23_15h33.26.919","IAT(Formal)","2021.2.3","Win32",59.88023952,"",NA,"",NA,NA,NA,NA,NA,NA,NA,"","","",NA,"i",1,0.7098,0,42,42,66,1,"他们","i","",NA,NA,NA,NA,NA,NA,"",NA,"",NA,NA,NA,NA,NA,NA,NA,"",NA,"",NA,NA,NA,NA,NA,NA,NA,"","","",NA,"",NA,NA,NA,NA,NA,NA,NA,"",NA,"10"
"",NA,"",NA,"",NA,NA,NA,NA,NA,NA,NA,"","",1,1,"2024-08-23_15h33.26.919","IAT(Formal)","2021.2.3","Win32",59.88023952,"",NA,"",NA,NA,NA,NA,NA,NA,NA,"","","",NA,"",0,NA,0,43,43,14,1,"乐观","e","",NA,NA,NA,NA,NA,NA,"",NA,"",NA,NA,NA,NA,NA,NA,NA,"",NA,"",NA,NA,NA,NA,NA,NA,NA,"","","",NA,"",NA,NA,NA,NA,NA,NA,NA,"",NA,"10"
"",NA,"",NA,"",NA,NA,NA,NA,NA,NA,NA,"","",1,1,"2024-08-23_15h33.26.919","IAT(Formal)","2021.2.3","Win32",59.88023952,"",NA,"",NA,NA,NA,NA,NA,NA,NA,"","","",NA,"e",0,0.6774,0,44,44,58,1,"他人","i","",NA,NA,NA,NA,NA,NA,"",NA,"",NA,NA,NA,NA,NA,NA,NA,"",NA,"",NA,NA,NA,NA,NA,NA,NA,"","","",NA,"",NA,NA,NA,NA,NA,NA,NA,"",NA,"10"
"",NA,"",NA,"",NA,NA,NA,NA,NA,NA,NA,"","",1,1,"2024-08-23_15h33.26.919","IAT(Formal)","2021.2.3","Win32",59.88023952,"",NA,"",NA,NA,NA,NA,NA,NA,NA,"","","",NA,"",0,NA,0,45,45,15,1,"诚实","e","",NA,NA,NA,NA,NA,NA,"",NA,"",NA,NA,NA,NA,NA,NA,NA,"",NA,"",NA,NA,NA,NA,NA,NA,NA,"","","",NA,"",NA,NA,NA,NA,NA,NA,NA,"",NA,"10"
"",NA,"",NA,"",NA,NA,NA,NA,NA,NA,NA,"","",1,1,"2024-08-23_15h33.26.919","IAT(Formal)","2021.2.3","Win32",59.88023952,"",NA,"",NA,NA,NA,NA,NA,NA,NA,"","","",NA,"i",1,1.3178,0,46,46,75,1,"他","i","",NA,NA,NA,NA,NA,NA,"",NA,"",NA,NA,NA,NA,NA,NA,NA,"",NA,"",NA,NA,NA,NA,NA,NA,NA,"","","",NA,"",NA,NA,NA,NA,NA,NA,NA,"",NA,"10"
"",NA,"",NA,"",NA,NA,NA,NA,NA,NA,NA,"","",1,1,"2024-08-23_15h33.26.919","IAT(Formal)","2021.2.3","Win32",59.88023952,"",NA,"",NA,NA,NA,NA,NA,NA,NA,"","","",NA,"i",1,0.6934,0,47,47,67,1,"他的","i","",NA,NA,NA,NA,NA,NA,"",NA,"",NA,NA,NA,NA,NA,NA,NA,"",NA,"",NA,NA,NA,NA,NA,NA,NA,"","","",NA,"",NA,NA,NA,NA,NA,NA,NA,"",NA,"10"
"",NA,"",NA,"",NA,NA,NA,NA,NA,NA,NA,"","",1,1,"2024-08-23_15h33.26.919","IAT(Formal)","2021.2.3","Win32",59.88023952,"",NA,"",NA,NA,NA,NA,NA,NA,NA,"","","",NA,"i",1,0.6704,0,48,48,38,1,"鲁莽","i","",NA,NA,NA,NA,NA,NA,"",NA,"",NA,NA,NA,NA,NA,NA,NA,"",NA,"",NA,NA,NA,NA,NA,NA,NA,"","","",NA,"",NA,NA,NA,NA,NA,NA,NA,"",NA,"10"
"",NA,"",NA,"",NA,NA,NA,NA,NA,NA,NA,"","",1,1,"2024-08-23_15h33.26.919","IAT(Formal)","2021.2.3","Win32",59.88023952,"",NA,"",NA,NA,NA,NA,NA,NA,NA,"","","",NA,"e",1,0.9502,0,49,49,72,1,"我们","e","",NA,NA,NA,NA,NA,NA,"",NA,"",NA,NA,NA,NA,NA,NA,NA,"",NA,"",NA,NA,NA,NA,NA,NA,NA,"","","",NA,"",NA,NA,NA,NA,NA,NA,NA,"",NA,"10"
"",NA,"",NA,"",NA,NA,NA,NA,NA,NA,NA,"","",1,1,"2024-08-23_15h33.26.919","IAT(Formal)","2021.2.3","Win32",59.88023952,"",NA,"",NA,NA,NA,NA,NA,NA,NA,"","","",NA,"e",1,0.8356,0,50,50,50,1,"我","e","",NA,NA,NA,NA,NA,NA,"",NA,"",NA,NA,NA,NA,NA,NA,NA,"",NA,"",NA,NA,NA,NA,NA,NA,NA,"","","",NA,"",NA,NA,NA,NA,NA,NA,NA,"",NA,"10"
"",NA,"",NA,"",NA,NA,NA,NA,NA,NA,NA,"","",1,1,"2024-08-23_15h33.26.919","IAT(Formal)","2021.2.3","Win32",59.88023952,"",NA,"",NA,NA,NA,NA,NA,NA,NA,"","","",NA,"",0,NA,0,51,51,20,1,"认真","e","",NA,NA,NA,NA,NA,NA,"",NA,"",NA,NA,NA,NA,NA,NA,NA,"",NA,"",NA,NA,NA,NA,NA,NA,NA,"","","",NA,"",NA,NA,NA,NA,NA,NA,NA,"",NA,"10"
"",NA,"",NA,"",NA,NA,NA,NA,NA,NA,NA,"","",1,1,"2024-08-23_15h33.26.919","IAT(Formal)","2021.2.3","Win32",59.88023952,"",NA,"",NA,NA,NA,NA,NA,NA,NA,"","","",NA,"i",1,0.7179,0,52,52,36,1,"自卑","i","",NA,NA,NA,NA,NA,NA,"",NA,"",NA,NA,NA,NA,NA,NA,NA,"",NA,"",NA,NA,NA,NA,NA,NA,NA,"","","",NA,"",NA,NA,NA,NA,NA,NA,NA,"",NA,"10"
"",NA,"",NA,"",NA,NA,NA,NA,NA,NA,NA,"","",1,1,"2024-08-23_15h33.26.919","IAT(Formal)","2021.2.3","Win32",59.88023952,"",NA,"",NA,NA,NA,NA,NA,NA,NA,"","","",NA,"",0,NA,0,53,53,70,1,"我","e","",NA,NA,NA,NA,NA,NA,"",NA,"",NA,NA,NA,NA,NA,NA,NA,"",NA,"",NA,NA,NA,NA,NA,NA,NA,"","","",NA,"",NA,NA,NA,NA,NA,NA,NA,"",NA,"10"
"",NA,"",NA,"",NA,NA,NA,NA,NA,NA,NA,"","",1,1,"2024-08-23_15h33.26.919","IAT(Formal)","2021.2.3","Win32",59.88023952,"",NA,"",NA,NA,NA,NA,NA,NA,NA,"","","",NA,"i",1,0.6346,0,54,54,79,1,"其他","i","",NA,NA,NA,NA,NA,NA,"",NA,"",NA,NA,NA,NA,NA,NA,NA,"",NA,"",NA,NA,NA,NA,NA,NA,NA,"","","",NA,"",NA,NA,NA,NA,NA,NA,NA,"",NA,"10"
"",NA,"",NA,"",NA,NA,NA,NA,NA,NA,NA,"","",1,1,"2024-08-23_15h33.26.919","IAT(Formal)","2021.2.3","Win32",59.88023952,"",NA,"",NA,NA,NA,NA,NA,NA,NA,"","","",NA,"",0,NA,0,55,55,4,1,"俺","e","",NA,NA,NA,NA,NA,NA,"",NA,"",NA,NA,NA,NA,NA,NA,NA,"",NA,"",NA,NA,NA,NA,NA,NA,NA,"","","",NA,"",NA,NA,NA,NA,NA,NA,NA,"",NA,"10"
"",NA,"",NA,"",NA,NA,NA,NA,NA,NA,NA,"","",1,1,"2024-08-23_15h33.26.919","IAT(Formal)","2021.2.3","Win32",59.88023952,"",NA,"",NA,NA,NA,NA,NA,NA,NA,"","","",NA,"e",0,0.5897,0,56,56,77,1,"他的","i","",NA,NA,NA,NA,NA,NA,"",NA,"",NA,NA,NA,NA,NA,NA,NA,"",NA,"",NA,NA,NA,NA,NA,NA,NA,"","","",NA,"",NA,NA,NA,NA,NA,NA,NA,"",NA,"10"
"",NA,"",NA,"",NA,NA,NA,NA,NA,NA,NA,"","",1,1,"2024-08-23_15h33.26.919","IAT(Formal)","2021.2.3","Win32",59.88023952,"",NA,"",NA,NA,NA,NA,NA,NA,NA,"","","",NA,"i",1,0.6849,0,57,57,7,1,"他的","i","",NA,NA,NA,NA,NA,NA,"",NA,"",NA,NA,NA,NA,NA,NA,NA,"",NA,"",NA,NA,NA,NA,NA,NA,NA,"","","",NA,"",NA,NA,NA,NA,NA,NA,NA,"",NA,"10"
"",NA,"",NA,"",NA,NA,NA,NA,NA,NA,NA,"","",1,1,"2024-08-23_15h33.26.919","IAT(Formal)","2021.2.3","Win32",59.88023952,"",NA,"",NA,NA,NA,NA,NA,NA,NA,"","","",NA,"e",0,0.9017,0,58,58,57,1,"他的","i","",NA,NA,NA,NA,NA,NA,"",NA,"",NA,NA,NA,NA,NA,NA,NA,"",NA,"",NA,NA,NA,NA,NA,NA,NA,"","","",NA,"",NA,NA,NA,NA,NA,NA,NA,"",NA,"10"
"",NA,"",NA,"",NA,NA,NA,NA,NA,NA,NA,"","",1,1,"2024-08-23_15h33.26.919","IAT(Formal)","2021.2.3","Win32",59.88023952,"",NA,"",NA,NA,NA,NA,NA,NA,NA,"","","",NA,"e",1,0.9324,0,59,59,62,1,"我们","e","",NA,NA,NA,NA,NA,NA,"",NA,"",NA,NA,NA,NA,NA,NA,NA,"",NA,"",NA,NA,NA,NA,NA,NA,NA,"","","",NA,"",NA,NA,NA,NA,NA,NA,NA,"",NA,"10"
"",NA,"",NA,"",NA,NA,NA,NA,NA,NA,NA,"","",1,1,"2024-08-23_15h33.26.919","IAT(Formal)","2021.2.3","Win32",59.88023952,"",NA,"",NA,NA,NA,NA,NA,NA,NA,"","","",NA,"",0,NA,0,60,60,0,1,"我","e","",NA,NA,NA,NA,NA,NA,"",NA,"",NA,NA,NA,NA,NA,NA,NA,"",NA,"",NA,NA,NA,NA,NA,NA,NA,"","","",NA,"",NA,NA,NA,NA,NA,NA,NA,"",NA,"10"
"",NA,"",NA,"",NA,NA,NA,NA,NA,NA,NA,"","",1,1,"2024-08-23_15h33.26.919","IAT(Formal)","2021.2.3","Win32",59.88023952,"",NA,"",NA,NA,NA,NA,NA,NA,NA,"","","",NA,"",0,NA,0,61,61,56,1,"他们","i","",NA,NA,NA,NA,NA,NA,"",NA,"",NA,NA,NA,NA,NA,NA,NA,"",NA,"",NA,NA,NA,NA,NA,NA,NA,"","","",NA,"",NA,NA,NA,NA,NA,NA,NA,"",NA,"10"
"",NA,"",NA,"",NA,NA,NA,NA,NA,NA,NA,"","",1,1,"2024-08-23_15h33.26.919","IAT(Formal)","2021.2.3","Win32",59.88023952,"",NA,"",NA,NA,NA,NA,NA,NA,NA,"","","",NA,"e",1,0.9102,0,62,62,13,1,"杰出","e","",NA,NA,NA,NA,NA,NA,"",NA,"",NA,NA,NA,NA,NA,NA,NA,"",NA,"",NA,NA,NA,NA,NA,NA,NA,"","","",NA,"",NA,NA,NA,NA,NA,NA,NA,"",NA,"10"
"",NA,"",NA,"",NA,NA,NA,NA,NA,NA,NA,"","",1,1,"2024-08-23_15h33.26.919","IAT(Formal)","2021.2.3","Win32",59.88023952,"",NA,"",NA,NA,NA,NA,NA,NA,NA,"","","",NA,"",0,NA,0,63,63,71,1,"我的","e","",NA,NA,NA,NA,NA,NA,"",NA,"",NA,NA,NA,NA,NA,NA,NA,"",NA,"",NA,NA,NA,NA,NA,NA,NA,"","","",NA,"",NA,NA,NA,NA,NA,NA,NA,"",NA,"10"
"",NA,"",NA,"",NA,NA,NA,NA,NA,NA,NA,"","",1,1,"2024-08-23_15h33.26.919","IAT(Formal)","2021.2.3","Win32",59.88023952,"",NA,"",NA,NA,NA,NA,NA,NA,NA,"","","",NA,"i",1,1.4325,0,64,64,59,1,"其他","i","",NA,NA,NA,NA,NA,NA,"",NA,"",NA,NA,NA,NA,NA,NA,NA,"",NA,"",NA,NA,NA,NA,NA,NA,NA,"","","",NA,"",NA,NA,NA,NA,NA,NA,NA,"",NA,"10"
"",NA,"",NA,"",NA,NA,NA,NA,NA,NA,NA,"","",1,1,"2024-08-23_15h33.26.919","IAT(Formal)","2021.2.3","Win32",59.88023952,"",NA,"",NA,NA,NA,NA,NA,NA,NA,"","","",NA,"i",1,1.1516,0,65,65,40,1,"执拗","i","",NA,NA,NA,NA,NA,NA,"",NA,"",NA,NA,NA,NA,NA,NA,NA,"",NA,"",NA,NA,NA,NA,NA,NA,NA,"","","",NA,"",NA,NA,NA,NA,NA,NA,NA,"",NA,"10"
"",NA,"",NA,"",NA,NA,NA,NA,NA,NA,NA,"","",1,1,"2024-08-23_15h33.26.919","IAT(Formal)","2021.2.3","Win32",59.88023952,"",NA,"",NA,NA,NA,NA,NA,NA,NA,"","","",NA,"e",1,1.0008,0,66,66,53,1,"自己","e","",NA,NA,NA,NA,NA,NA,"",NA,"",NA,NA,NA,NA,NA,NA,NA,"",NA,"",NA,NA,NA,NA,NA,NA,NA,"","","",NA,"",NA,NA,NA,NA,NA,NA,NA,"",NA,"10"
"",NA,"",NA,"",NA,NA,NA,NA,NA,NA,NA,"","",1,1,"2024-08-23_15h33.26.919","IAT(Formal)","2021.2.3","Win32",59.88023952,"",NA,"",NA,NA,NA,NA,NA,NA,NA,"","","",NA,"e",1,0.7211,0,67,67,16,1,"正直","e","",NA,NA,NA,NA,NA,NA,"",NA,"",NA,NA,NA,NA,NA,NA,NA,"",NA,"",NA,NA,NA,NA,NA,NA,NA,"","","",NA,"",NA,NA,NA,NA,NA,NA,NA,"",NA,"10"
"",NA,"",NA,"",NA,NA,NA,NA,NA,NA,NA,"","",1,1,"2024-08-23_15h33.26.919","IAT(Formal)","2021.2.3","Win32",59.88023952,"",NA,"",NA,NA,NA,NA,NA,NA,NA,"","","",NA,"e",1,0.9017,0,68,68,64,1,"俺","e","",NA,NA,NA,NA,NA,NA,"",NA,"",NA,NA,NA,NA,NA,NA,NA,"",NA,"",NA,NA,NA,NA,NA,NA,NA,"","","",NA,"",NA,NA,NA,NA,NA,NA,NA,"",NA,"10"
"",NA,"",NA,"",NA,NA,NA,NA,NA,NA,NA,"","",1,1,"2024-08-23_15h33.26.919","IAT(Formal)","2021.2.3","Win32",59.88023952,"",NA,"",NA,NA,NA,NA,NA,NA,NA,"","","",NA,"e",1,0.5998,0,69,69,24,1,"朴实","e","",NA,NA,NA,NA,NA,NA,"",NA,"",NA,NA,NA,NA,NA,NA,NA,"",NA,"",NA,NA,NA,NA,NA,NA,NA,"","","",NA,"",NA,NA,NA,NA,NA,NA,NA,"",NA,"10"
"",NA,"",NA,"",NA,NA,NA,NA,NA,NA,NA,"","",1,1,"2024-08-23_15h33.26.919","IAT(Formal)","2021.2.3","Win32",59.88023952,"",NA,"",NA,NA,NA,NA,NA,NA,NA,"","","",NA,"e",1,0.8342,0,70,70,28,1,"活泼","e","",NA,NA,NA,NA,NA,NA,"",NA,"",NA,NA,NA,NA,NA,NA,NA,"",NA,"",NA,NA,NA,NA,NA,NA,NA,"","","",NA,"",NA,NA,NA,NA,NA,NA,NA,"",NA,"10"
"",NA,"",NA,"",NA,NA,NA,NA,NA,NA,NA,"","",1,1,"2024-08-23_15h33.26.919","IAT(Formal)","2021.2.3","Win32",59.88023952,"",NA,"",NA,NA,NA,NA,NA,NA,NA,"","","",NA,"e",1,0.6162,0,71,71,73,1,"自己","e","",NA,NA,NA,NA,NA,NA,"",NA,"",NA,NA,NA,NA,NA,NA,NA,"",NA,"",NA,NA,NA,NA,NA,NA,NA,"","","",NA,"",NA,NA,NA,NA,NA,NA,NA,"",NA,"10"
"",NA,"",NA,"",NA,NA,NA,NA,NA,NA,NA,"","",1,1,"2024-08-23_15h33.26.919","IAT(Formal)","2021.2.3","Win32",59.88023952,"",NA,"",NA,NA,NA,NA,NA,NA,NA,"","","",NA,"i",0,0.8485,0,72,72,11,1,"崇高","e","",NA,NA,NA,NA,NA,NA,"",NA,"",NA,NA,NA,NA,NA,NA,NA,"",NA,"",NA,NA,NA,NA,NA,NA,NA,"","","",NA,"",NA,NA,NA,NA,NA,NA,NA,"",NA,"10"
"",NA,"",NA,"",NA,NA,NA,NA,NA,NA,NA,"","",1,1,"2024-08-23_15h33.26.919","IAT(Formal)","2021.2.3","Win32",59.88023952,"",NA,"",NA,NA,NA,NA,NA,NA,NA,"","","",NA,"e",1,0.7033,0,73,73,29,1,"诚恳","e","",NA,NA,NA,NA,NA,NA,"",NA,"",NA,NA,NA,NA,NA,NA,NA,"",NA,"",NA,NA,NA,NA,NA,NA,NA,"","","",NA,"",NA,NA,NA,NA,NA,NA,NA,"",NA,"10"
"",NA,"",NA,"",NA,NA,NA,NA,NA,NA,NA,"","",1,1,"2024-08-23_15h33.26.919","IAT(Formal)","2021.2.3","Win32",59.88023952,"",NA,"",NA,NA,NA,NA,NA,NA,NA,"","","",NA,"i",1,1.0985,0,74,74,49,1,"下贱","i","",NA,NA,NA,NA,NA,NA,"",NA,"",NA,NA,NA,NA,NA,NA,NA,"",NA,"",NA,NA,NA,NA,NA,NA,NA,"","","",NA,"",NA,NA,NA,NA,NA,NA,NA,"",NA,"10"
"",NA,"",NA,"",NA,NA,NA,NA,NA,NA,NA,"","",1,1,"2024-08-23_15h33.26.919","IAT(Formal)","2021.2.3","Win32",59.88023952,"",NA,"",NA,NA,NA,NA,NA,NA,NA,"","","",NA,"",0,NA,0,75,75,18,1,"勤奋","e","",NA,NA,NA,NA,NA,NA,"",NA,"",NA,NA,NA,NA,NA,NA,NA,"",NA,"",NA,NA,NA,NA,NA,NA,NA,"","","",NA,"",NA,NA,NA,NA,NA,NA,NA,"",NA,"10"
"",NA,"",NA,"",NA,NA,NA,NA,NA,NA,NA,"","",1,1,"2024-08-23_15h33.26.919","IAT(Formal)","2021.2.3","Win32",59.88023952,"",NA,"",NA,NA,NA,NA,NA,NA,NA,"","","",NA,"e",1,0.5998,0,76,76,17,1,"勇敢","e","",NA,NA,NA,NA,NA,NA,"",NA,"",NA,NA,NA,NA,NA,NA,NA,"",NA,"",NA,NA,NA,NA,NA,NA,NA,"","","",NA,"",NA,NA,NA,NA,NA,NA,NA,"",NA,"10"
"",NA,"",NA,"",NA,NA,NA,NA,NA,NA,NA,"","",1,1,"2024-08-23_15h33.26.919","IAT(Formal)","2021.2.3","Win32",59.88023952,"",NA,"",NA,NA,NA,NA,NA,NA,NA,"","","",NA,"e",0,1.3832,0,77,77,9,1,"其他","i","",NA,NA,NA,NA,NA,NA,"",NA,"",NA,NA,NA,NA,NA,NA,NA,"",NA,"",NA,NA,NA,NA,NA,NA,NA,"","","",NA,"",NA,NA,NA,NA,NA,NA,NA,"",NA,"10"
"",NA,"",NA,"",NA,NA,NA,NA,NA,NA,NA,"","",1,1,"2024-08-23_15h33.26.919","IAT(Formal)","2021.2.3","Win32",59.88023952,"",NA,"",NA,NA,NA,NA,NA,NA,NA,"","","",NA,"e",1,0.7335,0,78,78,3,1,"自己","e","",NA,NA,NA,NA,NA,NA,"",NA,"",NA,NA,NA,NA,NA,NA,NA,"",NA,"",NA,NA,NA,NA,NA,NA,NA,"","","",NA,"",NA,NA,NA,NA,NA,NA,NA,"",NA,"10"
"",NA,"",NA,"",NA,NA,NA,NA,NA,NA,NA,"","",1,1,"2024-08-23_15h33.26.919","IAT(Formal)","2021.2.3","Win32",59.88023952,"",NA,"",NA,NA,NA,NA,NA,NA,NA,"","","",NA,"e",0,0.8196,0,79,79,55,1,"他","i","",NA,NA,NA,NA,NA,NA,"",NA,"",NA,NA,NA,NA,NA,NA,NA,"",NA,"",NA,NA,NA,NA,NA,NA,NA,"","","",NA,"",NA,NA,NA,NA,NA,NA,NA,"",NA,"10"
"",NA,"",NA,"",NA,NA,NA,NA,NA,NA,NA,"","",1,1,"2024-08-23_15h33.26.919","IAT(Formal)","2021.2.3","Win32",59.88023952,"",NA,"",NA,NA,NA,NA,NA,NA,NA,"","","",NA,"e",1,1.3155,NA,NA,NA,NA,NA,"正直","e","space",55.6844,0,0,0,16,1,"",NA,"",NA,NA,NA,NA,NA,NA,NA,"",NA,"",NA,NA,NA,NA,NA,NA,NA,"","","",NA,"",NA,NA,NA,NA,NA,NA,NA,"",NA,"10"
"",NA,"",NA,"",NA,NA,NA,NA,NA,NA,NA,"","",1,1,"2024-08-23_15h33.26.919","IAT(Formal)","2021.2.3","Win32",59.88023952,"",NA,"",NA,NA,NA,NA,NA,NA,NA,"","","",NA,"i",1,0.5595,NA,NA,NA,NA,NA,"其他","i","",NA,0,1,1,79,1,"",NA,"",NA,NA,NA,NA,NA,NA,NA,"",NA,"",NA,NA,NA,NA,NA,NA,NA,"","","",NA,"",NA,NA,NA,NA,NA,NA,NA,"",NA,"10"
"",NA,"",NA,"",NA,NA,NA,NA,NA,NA,NA,"","",1,1,"2024-08-23_15h33.26.919","IAT(Formal)","2021.2.3","Win32",59.88023952,"",NA,"",NA,NA,NA,NA,NA,NA,NA,"","","",NA,"e",1,0.6854,NA,NA,NA,NA,NA,"俺","e","",NA,0,2,2,54,1,"",NA,"",NA,NA,NA,NA,NA,NA,NA,"",NA,"",NA,NA,NA,NA,NA,NA,NA,"","","",NA,"",NA,NA,NA,NA,NA,NA,NA,"",NA,"10"
"",NA,"",NA,"",NA,NA,NA,NA,NA,NA,NA,"","",1,1,"2024-08-23_15h33.26.919","IAT(Formal)","2021.2.3","Win32",59.88023952,"",NA,"",NA,NA,NA,NA,NA,NA,NA,"","","",NA,"e",0,1.0508,NA,NA,NA,NA,NA,"他的","i","",NA,0,3,3,67,1,"",NA,"",NA,NA,NA,NA,NA,NA,NA,"",NA,"",NA,NA,NA,NA,NA,NA,NA,"","","",NA,"",NA,NA,NA,NA,NA,NA,NA,"",NA,"10"
"",NA,"",NA,"",NA,NA,NA,NA,NA,NA,NA,"","",1,1,"2024-08-23_15h33.26.919","IAT(Formal)","2021.2.3","Win32",59.88023952,"",NA,"",NA,NA,NA,NA,NA,NA,NA,"","","",NA,"i",1,1.0069,NA,NA,NA,NA,NA,"他的","i","",NA,0,4,4,57,1,"",NA,"",NA,NA,NA,NA,NA,NA,NA,"",NA,"",NA,NA,NA,NA,NA,NA,NA,"","","",NA,"",NA,NA,NA,NA,NA,NA,NA,"",NA,"10"
"",NA,"",NA,"",NA,NA,NA,NA,NA,NA,NA,"","",1,1,"2024-08-23_15h33.26.919","IAT(Formal)","2021.2.3","Win32",59.88023952,"",NA,"",NA,NA,NA,NA,NA,NA,NA,"","","",NA,"i",1,0.506,NA,NA,NA,NA,NA,"他人","i","",NA,0,5,5,8,1,"",NA,"",NA,NA,NA,NA,NA,NA,NA,"",NA,"",NA,NA,NA,NA,NA,NA,NA,"","","",NA,"",NA,NA,NA,NA,NA,NA,NA,"",NA,"10"
"",NA,"",NA,"",NA,NA,NA,NA,NA,NA,NA,"","",1,1,"2024-08-23_15h33.26.919","IAT(Formal)","2021.2.3","Win32",59.88023952,"",NA,"",NA,NA,NA,NA,NA,NA,NA,"","","",NA,"i",1,0.5706,NA,NA,NA,NA,NA,"自私","i","",NA,0,6,6,43,1,"",NA,"",NA,NA,NA,NA,NA,NA,NA,"",NA,"",NA,NA,NA,NA,NA,NA,NA,"","","",NA,"",NA,NA,NA,NA,NA,NA,NA,"",NA,"10"
"",NA,"",NA,"",NA,NA,NA,NA,NA,NA,NA,"","",1,1,"2024-08-23_15h33.26.919","IAT(Formal)","2021.2.3","Win32",59.88023952,"",NA,"",NA,NA,NA,NA,NA,NA,NA,"","","",NA,"i",1,0.566,NA,NA,NA,NA,NA,"其他","i","",NA,0,7,7,9,1,"",NA,"",NA,NA,NA,NA,NA,NA,NA,"",NA,"",NA,NA,NA,NA,NA,NA,NA,"","","",NA,"",NA,NA,NA,NA,NA,NA,NA,"",NA,"10"
"",NA,"",NA,"",NA,NA,NA,NA,NA,NA,NA,"","",1,1,"2024-08-23_15h33.26.919","IAT(Formal)","2021.2.3","Win32",59.88023952,"",NA,"",NA,NA,NA,NA,NA,NA,NA,"","","",NA,"e",1,0.7863,NA,NA,NA,NA,NA,"俺","e","",NA,0,8,8,74,1,"",NA,"",NA,NA,NA,NA,NA,NA,NA,"",NA,"",NA,NA,NA,NA,NA,NA,NA,"","","",NA,"",NA,NA,NA,NA,NA,NA,NA,"",NA,"10"
"",NA,"",NA,"",NA,NA,NA,NA,NA,NA,NA,"","",1,1,"2024-08-23_15h33.26.919","IAT(Formal)","2021.2.3","Win32",59.88023952,"",NA,"",NA,NA,NA,NA,NA,NA,NA,"","","",NA,"e",0,1.4154,NA,NA,NA,NA,NA,"他人","i","",NA,0,9,9,68,1,"",NA,"",NA,NA,NA,NA,NA,NA,NA,"",NA,"",NA,NA,NA,NA,NA,NA,NA,"","","",NA,"",NA,NA,NA,NA,NA,NA,NA,"",NA,"10"
"",NA,"",NA,"",NA,NA,NA,NA,NA,NA,NA,"","",1,1,"2024-08-23_15h33.26.919","IAT(Formal)","2021.2.3","Win32",59.88023952,"",NA,"",NA,NA,NA,NA,NA,NA,NA,"","","",NA,"e",1,0.9006,NA,NA,NA,NA,NA,"自己","e","",NA,0,10,10,53,1,"",NA,"",NA,NA,NA,NA,NA,NA,NA,"",NA,"",NA,NA,NA,NA,NA,NA,NA,"","","",NA,"",NA,NA,NA,NA,NA,NA,NA,"",NA,"10"
"",NA,"",NA,"",NA,NA,NA,NA,NA,NA,NA,"","",1,1,"2024-08-23_15h33.26.919","IAT(Formal)","2021.2.3","Win32",59.88023952,"",NA,"",NA,NA,NA,NA,NA,NA,NA,"","","",NA,"e",1,0.9506,NA,NA,NA,NA,NA,"乐观","e","",NA,0,11,11,14,1,"",NA,"",NA,NA,NA,NA,NA,NA,NA,"",NA,"",NA,NA,NA,NA,NA,NA,NA,"","","",NA,"",NA,NA,NA,NA,NA,NA,NA,"",NA,"10"
"",NA,"",NA,"",NA,NA,NA,NA,NA,NA,NA,"","",1,1,"2024-08-23_15h33.26.919","IAT(Formal)","2021.2.3","Win32",59.88023952,"",NA,"",NA,NA,NA,NA,NA,NA,NA,"","","",NA,"i",0,1.3739,NA,NA,NA,NA,NA,"俺","e","",NA,0,12,12,4,1,"",NA,"",NA,NA,NA,NA,NA,NA,NA,"",NA,"",NA,NA,NA,NA,NA,NA,NA,"","","",NA,"",NA,NA,NA,NA,NA,NA,NA,"",NA,"10"
"",NA,"",NA,"",NA,NA,NA,NA,NA,NA,NA,"","",1,1,"2024-08-23_15h33.26.919","IAT(Formal)","2021.2.3","Win32",59.88023952,"",NA,"",NA,NA,NA,NA,NA,NA,NA,"","","",NA,"e",1,0.7832,NA,NA,NA,NA,NA,"诚实","e","",NA,0,13,13,15,1,"",NA,"",NA,NA,NA,NA,NA,NA,NA,"",NA,"",NA,NA,NA,NA,NA,NA,NA,"","","",NA,"",NA,NA,NA,NA,NA,NA,NA,"",NA,"10"
"",NA,"",NA,"",NA,NA,NA,NA,NA,NA,NA,"","",1,1,"2024-08-23_15h33.26.919","IAT(Formal)","2021.2.3","Win32",59.88023952,"",NA,"",NA,NA,NA,NA,NA,NA,NA,"","","",NA,"i",1,0.6693,NA,NA,NA,NA,NA,"下贱","i","",NA,0,14,14,49,1,"",NA,"",NA,NA,NA,NA,NA,NA,NA,"",NA,"",NA,NA,NA,NA,NA,NA,NA,"","","",NA,"",NA,NA,NA,NA,NA,NA,NA,"",NA,"10"
"",NA,"",NA,"",NA,NA,NA,NA,NA,NA,NA,"","",1,1,"2024-08-23_15h33.26.919","IAT(Formal)","2021.2.3","Win32",59.88023952,"",NA,"",NA,NA,NA,NA,NA,NA,NA,"","","",NA,"e",1,0.7268,NA,NA,NA,NA,NA,"我的","e","",NA,0,15,15,1,1,"",NA,"",NA,NA,NA,NA,NA,NA,NA,"",NA,"",NA,NA,NA,NA,NA,NA,NA,"","","",NA,"",NA,NA,NA,NA,NA,NA,NA,"",NA,"10"
"",NA,"",NA,"",NA,NA,NA,NA,NA,NA,NA,"","",1,1,"2024-08-23_15h33.26.919","IAT(Formal)","2021.2.3","Win32",59.88023952,"",NA,"",NA,NA,NA,NA,NA,NA,NA,"","","",NA,"e",1,1.2494,NA,NA,NA,NA,NA,"无私","e","",NA,0,16,16,22,1,"",NA,"",NA,NA,NA,NA,NA,NA,NA,"",NA,"",NA,NA,NA,NA,NA,NA,NA,"","","",NA,"",NA,NA,NA,NA,NA,NA,NA,"",NA,"10"
"",NA,"",NA,"",NA,NA,NA,NA,NA,NA,NA,"","",1,1,"2024-08-23_15h33.26.919","IAT(Formal)","2021.2.3","Win32",59.88023952,"",NA,"",NA,NA,NA,NA,NA,NA,NA,"","","",NA,"e",1,0.7832,NA,NA,NA,NA,NA,"自己","e","",NA,0,17,17,63,1,"",NA,"",NA,NA,NA,NA,NA,NA,NA,"",NA,"",NA,NA,NA,NA,NA,NA,NA,"","","",NA,"",NA,NA,NA,NA,NA,NA,NA,"",NA,"10"
"",NA,"",NA,"",NA,NA,NA,NA,NA,NA,NA,"","",1,1,"2024-08-23_15h33.26.919","IAT(Formal)","2021.2.3","Win32",59.88023952,"",NA,"",NA,NA,NA,NA,NA,NA,NA,"","","",NA,"",0,NA,NA,NA,NA,NA,NA,"野蛮","i","",NA,0,18,18,46,1,"",NA,"",NA,NA,NA,NA,NA,NA,NA,"",NA,"",NA,NA,NA,NA,NA,NA,NA,"","","",NA,"",NA,NA,NA,NA,NA,NA,NA,"",NA,"10"
"",NA,"",NA,"",NA,NA,NA,NA,NA,NA,NA,"","",1,1,"2024-08-23_15h33.26.919","IAT(Formal)","2021.2.3","Win32",59.88023952,"",NA,"",NA,NA,NA,NA,NA,NA,NA,"","","",NA,"",0,NA,NA,NA,NA,NA,NA,"猖狂","i","",NA,0,19,19,45,1,"",NA,"",NA,NA,NA,NA,NA,NA,NA,"",NA,"",NA,NA,NA,NA,NA,NA,NA,"","","",NA,"",NA,NA,NA,NA,NA,NA,NA,"",NA,"10"
"",NA,"",NA,"",NA,NA,NA,NA,NA,NA,NA,"","",1,1,"2024-08-23_15h33.26.919","IAT(Formal)","2021.2.3","Win32",59.88023952,"",NA,"",NA,NA,NA,NA,NA,NA,NA,"","","",NA,"e",0,0.8997,NA,NA,NA,NA,NA,"他","i","",NA,0,20,20,75,1,"",NA,"",NA,NA,NA,NA,NA,NA,NA,"",NA,"",NA,NA,NA,NA,NA,NA,NA,"","","",NA,"",NA,NA,NA,NA,NA,NA,NA,"",NA,"10"
"",NA,"",NA,"",NA,NA,NA,NA,NA,NA,NA,"","",1,1,"2024-08-23_15h33.26.919","IAT(Formal)","2021.2.3","Win32",59.88023952,"",NA,"",NA,NA,NA,NA,NA,NA,NA,"","","",NA,"e",1,1.4103,NA,NA,NA,NA,NA,"冷静","e","",NA,0,21,21,26,1,"",NA,"",NA,NA,NA,NA,NA,NA,NA,"",NA,"",NA,NA,NA,NA,NA,NA,NA,"","","",NA,"",NA,NA,NA,NA,NA,NA,NA,"",NA,"10"
"",NA,"",NA,"",NA,NA,NA,NA,NA,NA,NA,"","",1,1,"2024-08-23_15h33.26.919","IAT(Formal)","2021.2.3","Win32",59.88023952,"",NA,"",NA,NA,NA,NA,NA,NA,NA,"","","",NA,"",0,NA,NA,NA,NA,NA,NA,"刻薄","i","",NA,0,22,22,33,1,"",NA,"",NA,NA,NA,NA,NA,NA,NA,"",NA,"",NA,NA,NA,NA,NA,NA,NA,"","","",NA,"",NA,NA,NA,NA,NA,NA,NA,"",NA,"10"
"",NA,"",NA,"",NA,NA,NA,NA,NA,NA,NA,"","",1,1,"2024-08-23_15h33.26.919","IAT(Formal)","2021.2.3","Win32",59.88023952,"",NA,"",NA,NA,NA,NA,NA,NA,NA,"","","",NA,"e",1,0.6322,NA,NA,NA,NA,NA,"我的","e","",NA,0,23,23,61,1,"",NA,"",NA,NA,NA,NA,NA,NA,NA,"",NA,"",NA,NA,NA,NA,NA,NA,NA,"","","",NA,"",NA,NA,NA,NA,NA,NA,NA,"",NA,"10"
"",NA,"",NA,"",NA,NA,NA,NA,NA,NA,NA,"","",1,1,"2024-08-23_15h33.26.919","IAT(Formal)","2021.2.3","Win32",59.88023952,"",NA,"",NA,NA,NA,NA,NA,NA,NA,"","","",NA,"",0,NA,NA,NA,NA,NA,NA,"他们","i","",NA,0,24,24,6,1,"",NA,"",NA,NA,NA,NA,NA,NA,NA,"",NA,"",NA,NA,NA,NA,NA,NA,NA,"","","",NA,"",NA,NA,NA,NA,NA,NA,NA,"",NA,"10"
"",NA,"",NA,"",NA,NA,NA,NA,NA,NA,NA,"","",1,1,"2024-08-23_15h33.26.919","IAT(Formal)","2021.2.3","Win32",59.88023952,"",NA,"",NA,NA,NA,NA,NA,NA,NA,"","","",NA,"e",0,1.1336,NA,NA,NA,NA,NA,"他人","i","",NA,0,25,25,78,1,"",NA,"",NA,NA,NA,NA,NA,NA,NA,"",NA,"",NA,NA,NA,NA,NA,NA,NA,"","","",NA,"",NA,NA,NA,NA,NA,NA,NA,"",NA,"10"
"",NA,"",NA,"",NA,NA,NA,NA,NA,NA,NA,"","",1,1,"2024-08-23_15h33.26.919","IAT(Formal)","2021.2.3","Win32",59.88023952,"",NA,"",NA,NA,NA,NA,NA,NA,NA,"","","",NA,"",0,NA,NA,NA,NA,NA,NA,"崇高","e","",NA,0,26,26,11,1,"",NA,"",NA,NA,NA,NA,NA,NA,NA,"",NA,"",NA,NA,NA,NA,NA,NA,NA,"","","",NA,"",NA,NA,NA,NA,NA,NA,NA,"",NA,"10"
"",NA,"",NA,"",NA,NA,NA,NA,NA,NA,NA,"","",1,1,"2024-08-23_15h33.26.919","IAT(Formal)","2021.2.3","Win32",59.88023952,"",NA,"",NA,NA,NA,NA,NA,NA,NA,"","","",NA,"",0,NA,NA,NA,NA,NA,NA,"轻率","i","",NA,0,27,27,48,1,"",NA,"",NA,NA,NA,NA,NA,NA,NA,"",NA,"",NA,NA,NA,NA,NA,NA,NA,"","","",NA,"",NA,NA,NA,NA,NA,NA,NA,"",NA,"10"
"",NA,"",NA,"",NA,NA,NA,NA,NA,NA,NA,"","",1,1,"2024-08-23_15h33.26.919","IAT(Formal)","2021.2.3","Win32",59.88023952,"",NA,"",NA,NA,NA,NA,NA,NA,NA,"","","",NA,"i",1,0.7016,NA,NA,NA,NA,NA,"散漫","i","",NA,0,28,28,41,1,"",NA,"",NA,NA,NA,NA,NA,NA,NA,"",NA,"",NA,NA,NA,NA,NA,NA,NA,"","","",NA,"",NA,NA,NA,NA,NA,NA,NA,"",NA,"10"
"",NA,"",NA,"",NA,NA,NA,NA,NA,NA,NA,"","",1,1,"2024-08-23_15h33.26.919","IAT(Formal)","2021.2.3","Win32",59.88023952,"",NA,"",NA,NA,NA,NA,NA,NA,NA,"","","",NA,"e",1,1.0613,NA,NA,NA,NA,NA,"聪明","e","",NA,0,29,29,12,1,"",NA,"",NA,NA,NA,NA,NA,NA,NA,"",NA,"",NA,NA,NA,NA,NA,NA,NA,"","","",NA,"",NA,NA,NA,NA,NA,NA,NA,"",NA,"10"
"",NA,"",NA,"",NA,NA,NA,NA,NA,NA,NA,"","",1,1,"2024-08-23_15h33.26.919","IAT(Formal)","2021.2.3","Win32",59.88023952,"",NA,"",NA,NA,NA,NA,NA,NA,NA,"","","",NA,"e",1,0.6393,NA,NA,NA,NA,NA,"活泼","e","",NA,0,30,30,28,1,"",NA,"",NA,NA,NA,NA,NA,NA,NA,"",NA,"",NA,NA,NA,NA,NA,NA,NA,"","","",NA,"",NA,NA,NA,NA,NA,NA,NA,"",NA,"10"
"",NA,"",NA,"",NA,NA,NA,NA,NA,NA,NA,"","",1,1,"2024-08-23_15h33.26.919","IAT(Formal)","2021.2.3","Win32",59.88023952,"",NA,"",NA,NA,NA,NA,NA,NA,NA,"","","",NA,"i",1,0.762,NA,NA,NA,NA,NA,"他们","i","",NA,0,31,31,56,1,"",NA,"",NA,NA,NA,NA,NA,NA,NA,"",NA,"",NA,NA,NA,NA,NA,NA,NA,"","","",NA,"",NA,NA,NA,NA,NA,NA,NA,"",NA,"10"
"",NA,"",NA,"",NA,NA,NA,NA,NA,NA,NA,"","",1,1,"2024-08-23_15h33.26.919","IAT(Formal)","2021.2.3","Win32",59.88023952,"",NA,"",NA,NA,NA,NA,NA,NA,NA,"","","",NA,"i",1,0.6055,NA,NA,NA,NA,NA,"卑鄙","i","",NA,0,32,32,30,1,"",NA,"",NA,NA,NA,NA,NA,NA,NA,"",NA,"",NA,NA,NA,NA,NA,NA,NA,"","","",NA,"",NA,NA,NA,NA,NA,NA,NA,"",NA,"10"
"",NA,"",NA,"",NA,NA,NA,NA,NA,NA,NA,"","",1,1,"2024-08-23_15h33.26.919","IAT(Formal)","2021.2.3","Win32",59.88023952,"",NA,"",NA,NA,NA,NA,NA,NA,NA,"","","",NA,"e",1,0.8257,NA,NA,NA,NA,NA,"优秀","e","",NA,0,33,33,10,1,"",NA,"",NA,NA,NA,NA,NA,NA,NA,"",NA,"",NA,NA,NA,NA,NA,NA,NA,"","","",NA,"",NA,NA,NA,NA,NA,NA,NA,"",NA,"10"
"",NA,"",NA,"",NA,NA,NA,NA,NA,NA,NA,"","",1,1,"2024-08-23_15h33.26.919","IAT(Formal)","2021.2.3","Win32",59.88023952,"",NA,"",NA,NA,NA,NA,NA,NA,NA,"","","",NA,"i",1,0.9557,NA,NA,NA,NA,NA,"他的","i","",NA,0,34,34,7,1,"",NA,"",NA,NA,NA,NA,NA,NA,NA,"",NA,"",NA,NA,NA,NA,NA,NA,NA,"","","",NA,"",NA,NA,NA,NA,NA,NA,NA,"",NA,"10"
"",NA,"",NA,"",NA,NA,NA,NA,NA,NA,NA,"","",1,1,"2024-08-23_15h33.26.919","IAT(Formal)","2021.2.3","Win32",59.88023952,"",NA,"",NA,NA,NA,NA,NA,NA,NA,"","","",NA,"i",1,1.2111,NA,NA,NA,NA,NA,"他的","i","",NA,0,35,35,77,1,"",NA,"",NA,NA,NA,NA,NA,NA,NA,"",NA,"",NA,NA,NA,NA,NA,NA,NA,"","","",NA,"",NA,NA,NA,NA,NA,NA,NA,"",NA,"10"
"",NA,"",NA,"",NA,NA,NA,NA,NA,NA,NA,"","",1,1,"2024-08-23_15h33.26.919","IAT(Formal)","2021.2.3","Win32",59.88023952,"",NA,"",NA,NA,NA,NA,NA,NA,NA,"","","",NA,"",0,NA,NA,NA,NA,NA,NA,"我的","e","",NA,0,36,36,71,1,"",NA,"",NA,NA,NA,NA,NA,NA,NA,"",NA,"",NA,NA,NA,NA,NA,NA,NA,"","","",NA,"",NA,NA,NA,NA,NA,NA,NA,"",NA,"10"
"",NA,"",NA,"",NA,NA,NA,NA,NA,NA,NA,"","",1,1,"2024-08-23_15h33.26.919","IAT(Formal)","2021.2.3","Win32",59.88023952,"",NA,"",NA,NA,NA,NA,NA,NA,NA,"","","",NA,"i",1,0.7892,NA,NA,NA,NA,NA,"悲观","i","",NA,0,37,37,34,1,"",NA,"",NA,NA,NA,NA,NA,NA,NA,"",NA,"",NA,NA,NA,NA,NA,NA,NA,"","","",NA,"",NA,NA,NA,NA,NA,NA,NA,"",NA,"10"
"",NA,"",NA,"",NA,NA,NA,NA,NA,NA,NA,"","",1,1,"2024-08-23_15h33.26.919","IAT(Formal)","2021.2.3","Win32",59.88023952,"",NA,"",NA,NA,NA,NA,NA,NA,NA,"","","",NA,"",0,NA,NA,NA,NA,NA,NA,"我的","e","",NA,0,38,38,51,1,"",NA,"",NA,NA,NA,NA,NA,NA,NA,"",NA,"",NA,NA,NA,NA,NA,NA,NA,"","","",NA,"",NA,NA,NA,NA,NA,NA,NA,"",NA,"10"
"",NA,"",NA,"",NA,NA,NA,NA,NA,NA,NA,"","",1,1,"2024-08-23_15h33.26.919","IAT(Formal)","2021.2.3","Win32",59.88023952,"",NA,"",NA,NA,NA,NA,NA,NA,NA,"","","",NA,"",0,NA,NA,NA,NA,NA,NA,"固执","i","",NA,0,39,39,47,1,"",NA,"",NA,NA,NA,NA,NA,NA,NA,"",NA,"",NA,NA,NA,NA,NA,NA,NA,"","","",NA,"",NA,NA,NA,NA,NA,NA,NA,"",NA,"10"
"",NA,"",NA,"",NA,NA,NA,NA,NA,NA,NA,"","",1,1,"2024-08-23_15h33.26.919","IAT(Formal)","2021.2.3","Win32",59.88023952,"",NA,"",NA,NA,NA,NA,NA,NA,NA,"","","",NA,"i",1,0.7338,NA,NA,NA,NA,NA,"鲁莽","i","",NA,0,40,40,38,1,"",NA,"",NA,NA,NA,NA,NA,NA,NA,"",NA,"",NA,NA,NA,NA,NA,NA,NA,"","","",NA,"",NA,NA,NA,NA,NA,NA,NA,"",NA,"10"
"",NA,"",NA,"",NA,NA,NA,NA,NA,NA,NA,"","",1,1,"2024-08-23_15h33.26.919","IAT(Formal)","2021.2.3","Win32",59.88023952,"",NA,"",NA,NA,NA,NA,NA,NA,NA,"","","",NA,"",0,NA,NA,NA,NA,NA,NA,"他","i","",NA,0,41,41,65,1,"",NA,"",NA,NA,NA,NA,NA,NA,NA,"",NA,"",NA,NA,NA,NA,NA,NA,NA,"","","",NA,"",NA,NA,NA,NA,NA,NA,NA,"",NA,"10"
"",NA,"",NA,"",NA,NA,NA,NA,NA,NA,NA,"","",1,1,"2024-08-23_15h33.26.919","IAT(Formal)","2021.2.3","Win32",59.88023952,"",NA,"",NA,NA,NA,NA,NA,NA,NA,"","","",NA,"i",1,0.4229,NA,NA,NA,NA,NA,"他人","i","",NA,0,42,42,58,1,"",NA,"",NA,NA,NA,NA,NA,NA,NA,"",NA,"",NA,NA,NA,NA,NA,NA,NA,"","","",NA,"",NA,NA,NA,NA,NA,NA,NA,"",NA,"10"
"",NA,"",NA,"",NA,NA,NA,NA,NA,NA,NA,"","",1,1,"2024-08-23_15h33.26.919","IAT(Formal)","2021.2.3","Win32",59.88023952,"",NA,"",NA,NA,NA,NA,NA,NA,NA,"","","",NA,"i",1,0.9858,NA,NA,NA,NA,NA,"凶狠","i","",NA,0,43,43,42,1,"",NA,"",NA,NA,NA,NA,NA,NA,NA,"",NA,"",NA,NA,NA,NA,NA,NA,NA,"","","",NA,"",NA,NA,NA,NA,NA,NA,NA,"",NA,"10"
"",NA,"",NA,"",NA,NA,NA,NA,NA,NA,NA,"","",1,1,"2024-08-23_15h33.26.919","IAT(Formal)","2021.2.3","Win32",59.88023952,"",NA,"",NA,NA,NA,NA,NA,NA,NA,"","","",NA,"i",1,1.4507,NA,NA,NA,NA,NA,"傲慢","i","",NA,0,44,44,37,1,"",NA,"",NA,NA,NA,NA,NA,NA,NA,"",NA,"",NA,NA,NA,NA,NA,NA,NA,"","","",NA,"",NA,NA,NA,NA,NA,NA,NA,"",NA,"10"
"",NA,"",NA,"",NA,NA,NA,NA,NA,NA,NA,"","",1,1,"2024-08-23_15h33.26.919","IAT(Formal)","2021.2.3","Win32",59.88023952,"",NA,"",NA,NA,NA,NA,NA,NA,NA,"","","",NA,"",0,NA,NA,NA,NA,NA,NA,"暴躁","i","",NA,0,45,45,44,1,"",NA,"",NA,NA,NA,NA,NA,NA,NA,"",NA,"",NA,NA,NA,NA,NA,NA,NA,"","","",NA,"",NA,NA,NA,NA,NA,NA,NA,"",NA,"10"
"",NA,"",NA,"",NA,NA,NA,NA,NA,NA,NA,"","",1,1,"2024-08-23_15h33.26.919","IAT(Formal)","2021.2.3","Win32",59.88023952,"",NA,"",NA,NA,NA,NA,NA,NA,NA,"","","",NA,"i",1,0.9336,NA,NA,NA,NA,NA,"冒失","i","",NA,0,46,46,39,1,"",NA,"",NA,NA,NA,NA,NA,NA,NA,"",NA,"",NA,NA,NA,NA,NA,NA,NA,"","","",NA,"",NA,NA,NA,NA,NA,NA,NA,"",NA,"10"
"",NA,"",NA,"",NA,NA,NA,NA,NA,NA,NA,"","",1,1,"2024-08-23_15h33.26.919","IAT(Formal)","2021.2.3","Win32",59.88023952,"",NA,"",NA,NA,NA,NA,NA,NA,NA,"","","",NA,"",0,NA,NA,NA,NA,NA,NA,"自己","e","",NA,0,47,47,3,1,"",NA,"",NA,NA,NA,NA,NA,NA,NA,"",NA,"",NA,NA,NA,NA,NA,NA,NA,"","","",NA,"",NA,NA,NA,NA,NA,NA,NA,"",NA,"10"
"",NA,"",NA,"",NA,NA,NA,NA,NA,NA,NA,"","",1,1,"2024-08-23_15h33.26.919","IAT(Formal)","2021.2.3","Win32",59.88023952,"",NA,"",NA,NA,NA,NA,NA,NA,NA,"","","",NA,"i",1,0.6535,NA,NA,NA,NA,NA,"执拗","i","",NA,0,48,48,40,1,"",NA,"",NA,NA,NA,NA,NA,NA,NA,"",NA,"",NA,NA,NA,NA,NA,NA,NA,"","","",NA,"",NA,NA,NA,NA,NA,NA,NA,"",NA,"10"
"",NA,"",NA,"",NA,NA,NA,NA,NA,NA,NA,"","",1,1,"2024-08-23_15h33.26.919","IAT(Formal)","2021.2.3","Win32",59.88023952,"",NA,"",NA,NA,NA,NA,NA,NA,NA,"","","",NA,"",0,NA,NA,NA,NA,NA,NA,"认真","e","",NA,0,49,49,20,1,"",NA,"",NA,NA,NA,NA,NA,NA,NA,"",NA,"",NA,NA,NA,NA,NA,NA,NA,"","","",NA,"",NA,NA,NA,NA,NA,NA,NA,"",NA,"10"
"",NA,"",NA,"",NA,NA,NA,NA,NA,NA,NA,"","",1,1,"2024-08-23_15h33.26.919","IAT(Formal)","2021.2.3","Win32",59.88023952,"",NA,"",NA,NA,NA,NA,NA,NA,NA,"","","",NA,"",0,NA,NA,NA,NA,NA,NA,"我","e","",NA,0,50,50,50,1,"",NA,"",NA,NA,NA,NA,NA,NA,NA,"",NA,"",NA,NA,NA,NA,NA,NA,NA,"","","",NA,"",NA,NA,NA,NA,NA,NA,NA,"",NA,"10"
"",NA,"",NA,"",NA,NA,NA,NA,NA,NA,NA,"","",1,1,"2024-08-23_15h33.26.919","IAT(Formal)","2021.2.3","Win32",59.88023952,"",NA,"",NA,NA,NA,NA,NA,NA,NA,"","","",NA,"",0,NA,NA,NA,NA,NA,NA,"勇敢","e","",NA,0,51,51,17,1,"",NA,"",NA,NA,NA,NA,NA,NA,NA,"",NA,"",NA,NA,NA,NA,NA,NA,NA,"","","",NA,"",NA,NA,NA,NA,NA,NA,NA,"",NA,"10"
"",NA,"",NA,"",NA,NA,NA,NA,NA,NA,NA,"","",1,1,"2024-08-23_15h33.26.919","IAT(Formal)","2021.2.3","Win32",59.88023952,"",NA,"",NA,NA,NA,NA,NA,NA,NA,"","","",NA,"i",1,0.9425,NA,NA,NA,NA,NA,"他们","i","",NA,0,52,52,66,1,"",NA,"",NA,NA,NA,NA,NA,NA,NA,"",NA,"",NA,NA,NA,NA,NA,NA,NA,"","","",NA,"",NA,NA,NA,NA,NA,NA,NA,"",NA,"10"
"",NA,"",NA,"",NA,NA,NA,NA,NA,NA,NA,"","",1,1,"2024-08-23_15h33.26.919","IAT(Formal)","2021.2.3","Win32",59.88023952,"",NA,"",NA,NA,NA,NA,NA,NA,NA,"","","",NA,"",0,NA,NA,NA,NA,NA,NA,"虚伪","i","",NA,0,53,53,31,1,"",NA,"",NA,NA,NA,NA,NA,NA,NA,"",NA,"",NA,NA,NA,NA,NA,NA,NA,"","","",NA,"",NA,NA,NA,NA,NA,NA,NA,"",NA,"10"
"",NA,"",NA,"",NA,NA,NA,NA,NA,NA,NA,"","",1,1,"2024-08-23_15h33.26.919","IAT(Formal)","2021.2.3","Win32",59.88023952,"",NA,"",NA,NA,NA,NA,NA,NA,NA,"","","",NA,"e",1,0.9507,NA,NA,NA,NA,NA,"我们","e","",NA,0,54,54,2,1,"",NA,"",NA,NA,NA,NA,NA,NA,NA,"",NA,"",NA,NA,NA,NA,NA,NA,NA,"","","",NA,"",NA,NA,NA,NA,NA,NA,NA,"",NA,"10"
"",NA,"",NA,"",NA,NA,NA,NA,NA,NA,NA,"","",1,1,"2024-08-23_15h33.26.919","IAT(Formal)","2021.2.3","Win32",59.88023952,"",NA,"",NA,NA,NA,NA,NA,NA,NA,"","","",NA,"",0,NA,NA,NA,NA,NA,NA,"细腻","e","",NA,0,55,55,25,1,"",NA,"",NA,NA,NA,NA,NA,NA,NA,"",NA,"",NA,NA,NA,NA,NA,NA,NA,"","","",NA,"",NA,NA,NA,NA,NA,NA,NA,"",NA,"10"
"",NA,"",NA,"",NA,NA,NA,NA,NA,NA,NA,"","",1,1,"2024-08-23_15h33.26.919","IAT(Formal)","2021.2.3","Win32",59.88023952,"",NA,"",NA,NA,NA,NA,NA,NA,NA,"","","",NA,"i",1,0.5701,NA,NA,NA,NA,NA,"愚蠢","i","",NA,0,56,56,32,1,"",NA,"",NA,NA,NA,NA,NA,NA,NA,"",NA,"",NA,NA,NA,NA,NA,NA,NA,"","","",NA,"",NA,NA,NA,NA,NA,NA,NA,"",NA,"10"
"",NA,"",NA,"",NA,NA,NA,NA,NA,NA,NA,"","",1,1,"2024-08-23_15h33.26.919","IAT(Formal)","2021.2.3","Win32",59.88023952,"",NA,"",NA,NA,NA,NA,NA,NA,NA,"","","",NA,"i",0,0.9178,NA,NA,NA,NA,NA,"我","e","",NA,0,57,57,60,1,"",NA,"",NA,NA,NA,NA,NA,NA,NA,"",NA,"",NA,NA,NA,NA,NA,NA,NA,"","","",NA,"",NA,NA,NA,NA,NA,NA,NA,"",NA,"10"
"",NA,"",NA,"",NA,NA,NA,NA,NA,NA,NA,"","",1,1,"2024-08-23_15h33.26.919","IAT(Formal)","2021.2.3","Win32",59.88023952,"",NA,"",NA,NA,NA,NA,NA,NA,NA,"","","",NA,"e",0,0.8061,NA,NA,NA,NA,NA,"他们","i","",NA,0,58,58,76,1,"",NA,"",NA,NA,NA,NA,NA,NA,NA,"",NA,"",NA,NA,NA,NA,NA,NA,NA,"","","",NA,"",NA,NA,NA,NA,NA,NA,NA,"",NA,"10"
"",NA,"",NA,"",NA,NA,NA,NA,NA,NA,NA,"","",1,1,"2024-08-23_15h33.26.919","IAT(Formal)","2021.2.3","Win32",59.88023952,"",NA,"",NA,NA,NA,NA,NA,NA,NA,"","","",NA,"e",1,1.0329,NA,NA,NA,NA,NA,"我们","e","",NA,0,59,59,52,1,"",NA,"",NA,NA,NA,NA,NA,NA,NA,"",NA,"",NA,NA,NA,NA,NA,NA,NA,"","","",NA,"",NA,NA,NA,NA,NA,NA,NA,"",NA,"10"
"",NA,"",NA,"",NA,NA,NA,NA,NA,NA,NA,"","",1,1,"2024-08-23_15h33.26.919","IAT(Formal)","2021.2.3","Win32",59.88023952,"",NA,"",NA,NA,NA,NA,NA,NA,NA,"","","",NA,"i",1,0.9822,NA,NA,NA,NA,NA,"自卑","i","",NA,0,60,60,36,1,"",NA,"",NA,NA,NA,NA,NA,NA,NA,"",NA,"",NA,NA,NA,NA,NA,NA,NA,"","","",NA,"",NA,NA,NA,NA,NA,NA,NA,"",NA,"10"
"",NA,"",NA,"",NA,NA,NA,NA,NA,NA,NA,"","",1,1,"2024-08-23_15h33.26.919","IAT(Formal)","2021.2.3","Win32",59.88023952,"",NA,"",NA,NA,NA,NA,NA,NA,NA,"","","",NA,"e",1,0.6694,NA,NA,NA,NA,NA,"自己","e","",NA,0,61,61,73,1,"",NA,"",NA,NA,NA,NA,NA,NA,NA,"",NA,"",NA,NA,NA,NA,NA,NA,NA,"","","",NA,"",NA,NA,NA,NA,NA,NA,NA,"",NA,"10"
"",NA,"",NA,"",NA,NA,NA,NA,NA,NA,NA,"","",1,1,"2024-08-23_15h33.26.919","IAT(Formal)","2021.2.3","Win32",59.88023952,"",NA,"",NA,NA,NA,NA,NA,NA,NA,"","","",NA,"",0,NA,NA,NA,NA,NA,NA,"机智","e","",NA,0,62,62,19,1,"",NA,"",NA,NA,NA,NA,NA,NA,NA,"",NA,"",NA,NA,NA,NA,NA,NA,NA,"","","",NA,"",NA,NA,NA,NA,NA,NA,NA,"",NA,"10"
"",NA,"",NA,"",NA,NA,NA,NA,NA,NA,NA,"","",1,1,"2024-08-23_15h33.26.919","IAT(Formal)","2021.2.3","Win32",59.88023952,"",NA,"",NA,NA,NA,NA,NA,NA,NA,"","","",NA,"i",1,0.8987,NA,NA,NA,NA,NA,"他","i","",NA,0,63,63,55,1,"",NA,"",NA,NA,NA,NA,NA,NA,NA,"",NA,"",NA,NA,NA,NA,NA,NA,NA,"","","",NA,"",NA,NA,NA,NA,NA,NA,NA,"",NA,"10"
"",NA,"",NA,"",NA,NA,NA,NA,NA,NA,NA,"","",1,1,"2024-08-23_15h33.26.919","IAT(Formal)","2021.2.3","Win32",59.88023952,"",NA,"",NA,NA,NA,NA,NA,NA,NA,"","","",NA,"e",1,0.8468,NA,NA,NA,NA,NA,"稳重","e","",NA,0,64,64,21,1,"",NA,"",NA,NA,NA,NA,NA,NA,NA,"",NA,"",NA,NA,NA,NA,NA,NA,NA,"","","",NA,"",NA,NA,NA,NA,NA,NA,NA,"",NA,"10"
"",NA,"",NA,"",NA,NA,NA,NA,NA,NA,NA,"","",1,1,"2024-08-23_15h33.26.919","IAT(Formal)","2021.2.3","Win32",59.88023952,"",NA,"",NA,NA,NA,NA,NA,NA,NA,"","","",NA,"",0,NA,NA,NA,NA,NA,NA,"朴实","e","",NA,0,65,65,24,1,"",NA,"",NA,NA,NA,NA,NA,NA,NA,"",NA,"",NA,NA,NA,NA,NA,NA,NA,"","","",NA,"",NA,NA,NA,NA,NA,NA,NA,"",NA,"10"
"",NA,"",NA,"",NA,NA,NA,NA,NA,NA,NA,"","",1,1,"2024-08-23_15h33.26.919","IAT(Formal)","2021.2.3","Win32",59.88023952,"",NA,"",NA,NA,NA,NA,NA,NA,NA,"","","",NA,"i",1,0.7187,NA,NA,NA,NA,NA,"消极","i","",NA,0,66,66,35,1,"",NA,"",NA,NA,NA,NA,NA,NA,NA,"",NA,"",NA,NA,NA,NA,NA,NA,NA,"","","",NA,"",NA,NA,NA,NA,NA,NA,NA,"",NA,"10"
"",NA,"",NA,"",NA,NA,NA,NA,NA,NA,NA,"","",1,1,"2024-08-23_15h33.26.919","IAT(Formal)","2021.2.3","Win32",59.88023952,"",NA,"",NA,NA,NA,NA,NA,NA,NA,"","","",NA,"i",1,0.815,NA,NA,NA,NA,NA,"其他","i","",NA,0,67,67,69,1,"",NA,"",NA,NA,NA,NA,NA,NA,NA,"",NA,"",NA,NA,NA,NA,NA,NA,NA,"","","",NA,"",NA,NA,NA,NA,NA,NA,NA,"",NA,"10"
"",NA,"",NA,"",NA,NA,NA,NA,NA,NA,NA,"","",1,1,"2024-08-23_15h33.26.919","IAT(Formal)","2021.2.3","Win32",59.88023952,"",NA,"",NA,NA,NA,NA,NA,NA,NA,"","","",NA,"e",1,1.0257,NA,NA,NA,NA,NA,"诚恳","e","",NA,0,68,68,29,1,"",NA,"",NA,NA,NA,NA,NA,NA,NA,"",NA,"",NA,NA,NA,NA,NA,NA,NA,"","","",NA,"",NA,NA,NA,NA,NA,NA,NA,"",NA,"10"
"",NA,"",NA,"",NA,NA,NA,NA,NA,NA,NA,"","",1,1,"2024-08-23_15h33.26.919","IAT(Formal)","2021.2.3","Win32",59.88023952,"",NA,"",NA,NA,NA,NA,NA,NA,NA,"","","",NA,"",0,NA,NA,NA,NA,NA,NA,"我们","e","",NA,0,69,69,62,1,"",NA,"",NA,NA,NA,NA,NA,NA,NA,"",NA,"",NA,NA,NA,NA,NA,NA,NA,"","","",NA,"",NA,NA,NA,NA,NA,NA,NA,"",NA,"10"
"",NA,"",NA,"",NA,NA,NA,NA,NA,NA,NA,"","",1,1,"2024-08-23_15h33.26.919","IAT(Formal)","2021.2.3","Win32",59.88023952,"",NA,"",NA,NA,NA,NA,NA,NA,NA,"","","",NA,"e",1,1.3159,NA,NA,NA,NA,NA,"杰出","e","",NA,0,70,70,13,1,"",NA,"",NA,NA,NA,NA,NA,NA,NA,"",NA,"",NA,NA,NA,NA,NA,NA,NA,"","","",NA,"",NA,NA,NA,NA,NA,NA,NA,"",NA,"10"
"",NA,"",NA,"",NA,NA,NA,NA,NA,NA,NA,"","",1,1,"2024-08-23_15h33.26.919","IAT(Formal)","2021.2.3","Win32",59.88023952,"",NA,"",NA,NA,NA,NA,NA,NA,NA,"","","",NA,"",0,NA,NA,NA,NA,NA,NA,"热情","e","",NA,0,71,71,27,1,"",NA,"",NA,NA,NA,NA,NA,NA,NA,"",NA,"",NA,NA,NA,NA,NA,NA,NA,"","","",NA,"",NA,NA,NA,NA,NA,NA,NA,"",NA,"10"
"",NA,"",NA,"",NA,NA,NA,NA,NA,NA,NA,"","",1,1,"2024-08-23_15h33.26.919","IAT(Formal)","2021.2.3","Win32",59.88023952,"",NA,"",NA,NA,NA,NA,NA,NA,NA,"","","",NA,"e",1,0.6824,NA,NA,NA,NA,NA,"公正","e","",NA,0,72,72,23,1,"",NA,"",NA,NA,NA,NA,NA,NA,NA,"",NA,"",NA,NA,NA,NA,NA,NA,NA,"","","",NA,"",NA,NA,NA,NA,NA,NA,NA,"",NA,"10"
"",NA,"",NA,"",NA,NA,NA,NA,NA,NA,NA,"","",1,1,"2024-08-23_15h33.26.919","IAT(Formal)","2021.2.3","Win32",59.88023952,"",NA,"",NA,NA,NA,NA,NA,NA,NA,"","","",NA,"",0,NA,NA,NA,NA,NA,NA,"我","e","",NA,0,73,73,70,1,"",NA,"",NA,NA,NA,NA,NA,NA,NA,"",NA,"",NA,NA,NA,NA,NA,NA,NA,"","","",NA,"",NA,NA,NA,NA,NA,NA,NA,"",NA,"10"
"",NA,"",NA,"",NA,NA,NA,NA,NA,NA,NA,"","",1,1,"2024-08-23_15h33.26.919","IAT(Formal)","2021.2.3","Win32",59.88023952,"",NA,"",NA,NA,NA,NA,NA,NA,NA,"","","",NA,"",0,NA,NA,NA,NA,NA,NA,"我","e","",NA,0,74,74,0,1,"",NA,"",NA,NA,NA,NA,NA,NA,NA,"",NA,"",NA,NA,NA,NA,NA,NA,NA,"","","",NA,"",NA,NA,NA,NA,NA,NA,NA,"",NA,"10"
"",NA,"",NA,"",NA,NA,NA,NA,NA,NA,NA,"","",1,1,"2024-08-23_15h33.26.919","IAT(Formal)","2021.2.3","Win32",59.88023952,"",NA,"",NA,NA,NA,NA,NA,NA,NA,"","","",NA,"",0,NA,NA,NA,NA,NA,NA,"俺","e","",NA,0,75,75,64,1,"",NA,"",NA,NA,NA,NA,NA,NA,NA,"",NA,"",NA,NA,NA,NA,NA,NA,NA,"","","",NA,"",NA,NA,NA,NA,NA,NA,NA,"",NA,"10"
"",NA,"",NA,"",NA,NA,NA,NA,NA,NA,NA,"","",1,1,"2024-08-23_15h33.26.919","IAT(Formal)","2021.2.3","Win32",59.88023952,"",NA,"",NA,NA,NA,NA,NA,NA,NA,"","","",NA,"e",1,0.9221,NA,NA,NA,NA,NA,"勤奋","e","",NA,0,76,76,18,1,"",NA,"",NA,NA,NA,NA,NA,NA,NA,"",NA,"",NA,NA,NA,NA,NA,NA,NA,"","","",NA,"",NA,NA,NA,NA,NA,NA,NA,"",NA,"10"
"",NA,"",NA,"",NA,NA,NA,NA,NA,NA,NA,"","",1,1,"2024-08-23_15h33.26.919","IAT(Formal)","2021.2.3","Win32",59.88023952,"",NA,"",NA,NA,NA,NA,NA,NA,NA,"","","",NA,"i",1,0.9537,NA,NA,NA,NA,NA,"其他","i","",NA,0,77,77,59,1,"",NA,"",NA,NA,NA,NA,NA,NA,NA,"",NA,"",NA,NA,NA,NA,NA,NA,NA,"","","",NA,"",NA,NA,NA,NA,NA,NA,NA,"",NA,"10"
"",NA,"",NA,"",NA,NA,NA,NA,NA,NA,NA,"","",1,1,"2024-08-23_15h33.26.919","IAT(Formal)","2021.2.3","Win32",59.88023952,"",NA,"",NA,NA,NA,NA,NA,NA,NA,"","","",NA,"e",0,0.9335,NA,NA,NA,NA,NA,"他","i","",NA,0,78,78,5,1,"",NA,"",NA,NA,NA,NA,NA,NA,NA,"",NA,"",NA,NA,NA,NA,NA,NA,NA,"","","",NA,"",NA,NA,NA,NA,NA,NA,NA,"",NA,"10"
"",NA,"",NA,"",NA,NA,NA,NA,NA,NA,NA,"","",1,1,"2024-08-23_15h33.26.919","IAT(Formal)","2021.2.3","Win32",59.88023952,"",NA,"",NA,NA,NA,NA,NA,NA,NA,"","","",NA,"e",1,1.06,NA,NA,NA,NA,NA,"我们","e","",NA,0,79,79,72,1,"",NA,"",NA,NA,NA,NA,NA,NA,NA,"",NA,"",NA,NA,NA,NA,NA,NA,NA,"","","",NA,"",NA,NA,NA,NA,NA,NA,NA,"",NA,"10"
"",NA,"",NA,"",NA,NA,NA,NA,NA,NA,NA,"","",1,1,"2024-08-23_15h33.26.919","IAT(Formal)","2021.2.3","Win32",59.88023952,"",NA,"",NA,NA,NA,NA,NA,NA,NA,"","","",NA,"i",1,0.8356,NA,NA,NA,NA,NA,"他","i","",NA,1,0,80,55,1,"",NA,"",NA,NA,NA,NA,NA,NA,NA,"",NA,"",NA,NA,NA,NA,NA,NA,NA,"","","",NA,"",NA,NA,NA,NA,NA,NA,NA,"",NA,"10"
"",NA,"",NA,"",NA,NA,NA,NA,NA,NA,NA,"","",1,1,"2024-08-23_15h33.26.919","IAT(Formal)","2021.2.3","Win32",59.88023952,"",NA,"",NA,NA,NA,NA,NA,NA,NA,"","","",NA,"i",1,1.1838,NA,NA,NA,NA,NA,"凶狠","i","",NA,1,1,81,42,1,"",NA,"",NA,NA,NA,NA,NA,NA,NA,"",NA,"",NA,NA,NA,NA,NA,NA,NA,"","","",NA,"",NA,NA,NA,NA,NA,NA,NA,"",NA,"10"
"",NA,"",NA,"",NA,NA,NA,NA,NA,NA,NA,"","",1,1,"2024-08-23_15h33.26.919","IAT(Formal)","2021.2.3","Win32",59.88023952,"",NA,"",NA,NA,NA,NA,NA,NA,NA,"","","",NA,"i",1,0.7103,NA,NA,NA,NA,NA,"其他","i","",NA,1,2,82,69,1,"",NA,"",NA,NA,NA,NA,NA,NA,NA,"",NA,"",NA,NA,NA,NA,NA,NA,NA,"","","",NA,"",NA,NA,NA,NA,NA,NA,NA,"",NA,"10"
"",NA,"",NA,"",NA,NA,NA,NA,NA,NA,NA,"","",1,1,"2024-08-23_15h33.26.919","IAT(Formal)","2021.2.3","Win32",59.88023952,"",NA,"",NA,NA,NA,NA,NA,NA,NA,"","","",NA,"i",1,0.845,NA,NA,NA,NA,NA,"冒失","i","",NA,1,3,83,39,1,"",NA,"",NA,NA,NA,NA,NA,NA,NA,"",NA,"",NA,NA,NA,NA,NA,NA,NA,"","","",NA,"",NA,NA,NA,NA,NA,NA,NA,"",NA,"10"
"",NA,"",NA,"",NA,NA,NA,NA,NA,NA,NA,"","",1,1,"2024-08-23_15h33.26.919","IAT(Formal)","2021.2.3","Win32",59.88023952,"",NA,"",NA,NA,NA,NA,NA,NA,NA,"","","",NA,"",0,NA,NA,NA,NA,NA,NA,"机智","e","",NA,1,4,84,19,1,"",NA,"",NA,NA,NA,NA,NA,NA,NA,"",NA,"",NA,NA,NA,NA,NA,NA,NA,"","","",NA,"",NA,NA,NA,NA,NA,NA,NA,"",NA,"10"
"",NA,"",NA,"",NA,NA,NA,NA,NA,NA,NA,"","",1,1,"2024-08-23_15h33.26.919","IAT(Formal)","2021.2.3","Win32",59.88023952,"",NA,"",NA,NA,NA,NA,NA,NA,NA,"","","",NA,"i",0,1.2847,NA,NA,NA,NA,NA,"正直","e","",NA,1,5,85,16,1,"",NA,"",NA,NA,NA,NA,NA,NA,NA,"",NA,"",NA,NA,NA,NA,NA,NA,NA,"","","",NA,"",NA,NA,NA,NA,NA,NA,NA,"",NA,"10"
"",NA,"",NA,"",NA,NA,NA,NA,NA,NA,NA,"","",1,1,"2024-08-23_15h33.26.919","IAT(Formal)","2021.2.3","Win32",59.88023952,"",NA,"",NA,NA,NA,NA,NA,NA,NA,"","","",NA,"",0,NA,NA,NA,NA,NA,NA,"我","e","",NA,1,6,86,60,1,"",NA,"",NA,NA,NA,NA,NA,NA,NA,"",NA,"",NA,NA,NA,NA,NA,NA,NA,"","","",NA,"",NA,NA,NA,NA,NA,NA,NA,"",NA,"10"
"",NA,"",NA,"",NA,NA,NA,NA,NA,NA,NA,"","",1,1,"2024-08-23_15h33.26.919","IAT(Formal)","2021.2.3","Win32",59.88023952,"",NA,"",NA,NA,NA,NA,NA,NA,NA,"","","",NA,"i",1,1.0051,NA,NA,NA,NA,NA,"消极","i","",NA,1,7,87,35,1,"",NA,"",NA,NA,NA,NA,NA,NA,NA,"",NA,"",NA,NA,NA,NA,NA,NA,NA,"","","",NA,"",NA,NA,NA,NA,NA,NA,NA,"",NA,"10"
"",NA,"",NA,"",NA,NA,NA,NA,NA,NA,NA,"","",1,1,"2024-08-23_15h33.26.919","IAT(Formal)","2021.2.3","Win32",59.88023952,"",NA,"",NA,NA,NA,NA,NA,NA,NA,"","","",NA,"",0,NA,NA,NA,NA,NA,NA,"他们","i","",NA,1,8,88,66,1,"",NA,"",NA,NA,NA,NA,NA,NA,NA,"",NA,"",NA,NA,NA,NA,NA,NA,NA,"","","",NA,"",NA,NA,NA,NA,NA,NA,NA,"",NA,"10"
"",NA,"",NA,"",NA,NA,NA,NA,NA,NA,NA,"","",1,1,"2024-08-23_15h33.26.919","IAT(Formal)","2021.2.3","Win32",59.88023952,"",NA,"",NA,NA,NA,NA,NA,NA,NA,"","","",NA,"i",1,1.0417,NA,NA,NA,NA,NA,"猖狂","i","",NA,1,9,89,45,1,"",NA,"",NA,NA,NA,NA,NA,NA,NA,"",NA,"",NA,NA,NA,NA,NA,NA,NA,"","","",NA,"",NA,NA,NA,NA,NA,NA,NA,"",NA,"10"
"",NA,"",NA,"",NA,NA,NA,NA,NA,NA,NA,"","",1,1,"2024-08-23_15h33.26.919","IAT(Formal)","2021.2.3","Win32",59.88023952,"",NA,"",NA,NA,NA,NA,NA,NA,NA,"","","",NA,"",0,NA,NA,NA,NA,NA,NA,"他人","i","",NA,1,10,90,58,1,"",NA,"",NA,NA,NA,NA,NA,NA,NA,"",NA,"",NA,NA,NA,NA,NA,NA,NA,"","","",NA,"",NA,NA,NA,NA,NA,NA,NA,"",NA,"10"
"",NA,"",NA,"",NA,NA,NA,NA,NA,NA,NA,"","",1,1,"2024-08-23_15h33.26.919","IAT(Formal)","2021.2.3","Win32",59.88023952,"",NA,"",NA,NA,NA,NA,NA,NA,NA,"","","",NA,"e",1,0.9323,NA,NA,NA,NA,NA,"俺","e","",NA,1,11,91,64,1,"",NA,"",NA,NA,NA,NA,NA,NA,NA,"",NA,"",NA,NA,NA,NA,NA,NA,NA,"","","",NA,"",NA,NA,NA,NA,NA,NA,NA,"",NA,"10"
"",NA,"",NA,"",NA,NA,NA,NA,NA,NA,NA,"","",1,1,"2024-08-23_15h33.26.919","IAT(Formal)","2021.2.3","Win32",59.88023952,"",NA,"",NA,NA,NA,NA,NA,NA,NA,"","","",NA,"i",0,1.2828,NA,NA,NA,NA,NA,"诚实","e","",NA,1,12,92,15,1,"",NA,"",NA,NA,NA,NA,NA,NA,NA,"",NA,"",NA,NA,NA,NA,NA,NA,NA,"","","",NA,"",NA,NA,NA,NA,NA,NA,NA,"",NA,"10"
"",NA,"",NA,"",NA,NA,NA,NA,NA,NA,NA,"","",1,1,"2024-08-23_15h33.26.919","IAT(Formal)","2021.2.3","Win32",59.88023952,"",NA,"",NA,NA,NA,NA,NA,NA,NA,"","","",NA,"e",1,1.3332,NA,NA,NA,NA,NA,"我的","e","",NA,1,13,93,61,1,"",NA,"",NA,NA,NA,NA,NA,NA,NA,"",NA,"",NA,NA,NA,NA,NA,NA,NA,"","","",NA,"",NA,NA,NA,NA,NA,NA,NA,"",NA,"10"
"",NA,"",NA,"",NA,NA,NA,NA,NA,NA,NA,"","",1,1,"2024-08-23_15h33.26.919","IAT(Formal)","2021.2.3","Win32",59.88023952,"",NA,"",NA,NA,NA,NA,NA,NA,NA,"","","",NA,"",0,NA,NA,NA,NA,NA,NA,"杰出","e","",NA,1,14,94,13,1,"",NA,"",NA,NA,NA,NA,NA,NA,NA,"",NA,"",NA,NA,NA,NA,NA,NA,NA,"","","",NA,"",NA,NA,NA,NA,NA,NA,NA,"",NA,"10"
"",NA,"",NA,"",NA,NA,NA,NA,NA,NA,NA,"","",1,1,"2024-08-23_15h33.26.919","IAT(Formal)","2021.2.3","Win32",59.88023952,"",NA,"",NA,NA,NA,NA,NA,NA,NA,"","","",NA,"e",1,1.1419,NA,NA,NA,NA,NA,"自己","e","",NA,1,15,95,73,1,"",NA,"",NA,NA,NA,NA,NA,NA,NA,"",NA,"",NA,NA,NA,NA,NA,NA,NA,"","","",NA,"",NA,NA,NA,NA,NA,NA,NA,"",NA,"10"
"",NA,"",NA,"",NA,NA,NA,NA,NA,NA,NA,"","",1,1,"2024-08-23_15h33.26.919","IAT(Formal)","2021.2.3","Win32",59.88023952,"",NA,"",NA,NA,NA,NA,NA,NA,NA,"","","",NA,"e",1,0.9879,NA,NA,NA,NA,NA,"我的","e","",NA,1,16,96,1,1,"",NA,"",NA,NA,NA,NA,NA,NA,NA,"",NA,"",NA,NA,NA,NA,NA,NA,NA,"","","",NA,"",NA,NA,NA,NA,NA,NA,NA,"",NA,"10"
"",NA,"",NA,"",NA,NA,NA,NA,NA,NA,NA,"","",1,1,"2024-08-23_15h33.26.919","IAT(Formal)","2021.2.3","Win32",59.88023952,"",NA,"",NA,NA,NA,NA,NA,NA,NA,"","","",NA,"e",1,0.7895,NA,NA,NA,NA,NA,"我们","e","",NA,1,17,97,2,1,"",NA,"",NA,NA,NA,NA,NA,NA,NA,"",NA,"",NA,NA,NA,NA,NA,NA,NA,"","","",NA,"",NA,NA,NA,NA,NA,NA,NA,"",NA,"10"
"",NA,"",NA,"",NA,NA,NA,NA,NA,NA,NA,"","",1,1,"2024-08-23_15h33.26.919","IAT(Formal)","2021.2.3","Win32",59.88023952,"",NA,"",NA,NA,NA,NA,NA,NA,NA,"","","",NA,"e",1,1.0198,NA,NA,NA,NA,NA,"稳重","e","",NA,1,18,98,21,1,"",NA,"",NA,NA,NA,NA,NA,NA,NA,"",NA,"",NA,NA,NA,NA,NA,NA,NA,"","","",NA,"",NA,NA,NA,NA,NA,NA,NA,"",NA,"10"
"",NA,"",NA,"",NA,NA,NA,NA,NA,NA,NA,"","",1,1,"2024-08-23_15h33.26.919","IAT(Formal)","2021.2.3","Win32",59.88023952,"",NA,"",NA,NA,NA,NA,NA,NA,NA,"","","",NA,"i",1,1.4502,NA,NA,NA,NA,NA,"固执","i","",NA,1,19,99,47,1,"",NA,"",NA,NA,NA,NA,NA,NA,NA,"",NA,"",NA,NA,NA,NA,NA,NA,NA,"","","",NA,"",NA,NA,NA,NA,NA,NA,NA,"",NA,"10"
"",NA,"",NA,"",NA,NA,NA,NA,NA,NA,NA,"","",1,1,"2024-08-23_15h33.26.919","IAT(Formal)","2021.2.3","Win32",59.88023952,"",NA,"",NA,NA,NA,NA,NA,NA,NA,"","","",NA,"",0,NA,NA,NA,NA,NA,NA,"我的","e","",NA,1,20,100,51,1,"",NA,"",NA,NA,NA,NA,NA,NA,NA,"",NA,"",NA,NA,NA,NA,NA,NA,NA,"","","",NA,"",NA,NA,NA,NA,NA,NA,NA,"",NA,"10"
"",NA,"",NA,"",NA,NA,NA,NA,NA,NA,NA,"","",1,1,"2024-08-23_15h33.26.919","IAT(Formal)","2021.2.3","Win32",59.88023952,"",NA,"",NA,NA,NA,NA,NA,NA,NA,"","","",NA,"e",1,0.9543,NA,NA,NA,NA,NA,"无私","e","",NA,1,21,101,22,1,"",NA,"",NA,NA,NA,NA,NA,NA,NA,"",NA,"",NA,NA,NA,NA,NA,NA,NA,"","","",NA,"",NA,NA,NA,NA,NA,NA,NA,"",NA,"10"
"",NA,"",NA,"",NA,NA,NA,NA,NA,NA,NA,"","",1,1,"2024-08-23_15h33.26.919","IAT(Formal)","2021.2.3","Win32",59.88023952,"",NA,"",NA,NA,NA,NA,NA,NA,NA,"","","",NA,"e",0,1.3192,NA,NA,NA,NA,NA,"他人","i","",NA,1,22,102,78,1,"",NA,"",NA,NA,NA,NA,NA,NA,NA,"",NA,"",NA,NA,NA,NA,NA,NA,NA,"","","",NA,"",NA,NA,NA,NA,NA,NA,NA,"",NA,"10"
"",NA,"",NA,"",NA,NA,NA,NA,NA,NA,NA,"","",1,1,"2024-08-23_15h33.26.919","IAT(Formal)","2021.2.3","Win32",59.88023952,"",NA,"",NA,NA,NA,NA,NA,NA,NA,"","","",NA,"e",1,0.9498,NA,NA,NA,NA,NA,"我","e","",NA,1,23,103,50,1,"",NA,"",NA,NA,NA,NA,NA,NA,NA,"",NA,"",NA,NA,NA,NA,NA,NA,NA,"","","",NA,"",NA,NA,NA,NA,NA,NA,NA,"",NA,"10"
"",NA,"",NA,"",NA,NA,NA,NA,NA,NA,NA,"","",1,1,"2024-08-23_15h33.26.919","IAT(Formal)","2021.2.3","Win32",59.88023952,"",NA,"",NA,NA,NA,NA,NA,NA,NA,"","","",NA,"e",1,0.7539,NA,NA,NA,NA,NA,"自己","e","",NA,1,24,104,53,1,"",NA,"",NA,NA,NA,NA,NA,NA,NA,"",NA,"",NA,NA,NA,NA,NA,NA,NA,"","","",NA,"",NA,NA,NA,NA,NA,NA,NA,"",NA,"10"
"",NA,"",NA,"",NA,NA,NA,NA,NA,NA,NA,"","",1,1,"2024-08-23_15h33.26.919","IAT(Formal)","2021.2.3","Win32",59.88023952,"",NA,"",NA,NA,NA,NA,NA,NA,NA,"","","",NA,"e",1,0.5993,NA,NA,NA,NA,NA,"公正","e","",NA,1,25,105,23,1,"",NA,"",NA,NA,NA,NA,NA,NA,NA,"",NA,"",NA,NA,NA,NA,NA,NA,NA,"","","",NA,"",NA,NA,NA,NA,NA,NA,NA,"",NA,"10"
"",NA,"",NA,"",NA,NA,NA,NA,NA,NA,NA,"","",1,1,"2024-08-23_15h33.26.919","IAT(Formal)","2021.2.3","Win32",59.88023952,"",NA,"",NA,NA,NA,NA,NA,NA,NA,"","","",NA,"i",1,0.7191,NA,NA,NA,NA,NA,"野蛮","i","",NA,1,26,106,46,1,"",NA,"",NA,NA,NA,NA,NA,NA,NA,"",NA,"",NA,NA,NA,NA,NA,NA,NA,"","","",NA,"",NA,NA,NA,NA,NA,NA,NA,"",NA,"10"
"",NA,"",NA,"",NA,NA,NA,NA,NA,NA,NA,"","",1,1,"2024-08-23_15h33.26.919","IAT(Formal)","2021.2.3","Win32",59.88023952,"",NA,"",NA,NA,NA,NA,NA,NA,NA,"","","",NA,"i",1,0.6836,NA,NA,NA,NA,NA,"鲁莽","i","",NA,1,27,107,38,1,"",NA,"",NA,NA,NA,NA,NA,NA,NA,"",NA,"",NA,NA,NA,NA,NA,NA,NA,"","","",NA,"",NA,NA,NA,NA,NA,NA,NA,"",NA,"10"
"",NA,"",NA,"",NA,NA,NA,NA,NA,NA,NA,"","",1,1,"2024-08-23_15h33.26.919","IAT(Formal)","2021.2.3","Win32",59.88023952,"",NA,"",NA,NA,NA,NA,NA,NA,NA,"","","",NA,"e",0,0.7702,NA,NA,NA,NA,NA,"他","i","",NA,1,28,108,75,1,"",NA,"",NA,NA,NA,NA,NA,NA,NA,"",NA,"",NA,NA,NA,NA,NA,NA,NA,"","","",NA,"",NA,NA,NA,NA,NA,NA,NA,"",NA,"10"
"",NA,"",NA,"",NA,NA,NA,NA,NA,NA,NA,"","",1,1,"2024-08-23_15h33.26.919","IAT(Formal)","2021.2.3","Win32",59.88023952,"",NA,"",NA,NA,NA,NA,NA,NA,NA,"","","",NA,"e",1,0.8062,NA,NA,NA,NA,NA,"乐观","e","",NA,1,29,109,14,1,"",NA,"",NA,NA,NA,NA,NA,NA,NA,"",NA,"",NA,NA,NA,NA,NA,NA,NA,"","","",NA,"",NA,NA,NA,NA,NA,NA,NA,"",NA,"10"
"",NA,"",NA,"",NA,NA,NA,NA,NA,NA,NA,"","",1,1,"2024-08-23_15h33.26.919","IAT(Formal)","2021.2.3","Win32",59.88023952,"",NA,"",NA,NA,NA,NA,NA,NA,NA,"","","",NA,"i",1,0.7494,NA,NA,NA,NA,NA,"他人","i","",NA,1,30,110,68,1,"",NA,"",NA,NA,NA,NA,NA,NA,NA,"",NA,"",NA,NA,NA,NA,NA,NA,NA,"","","",NA,"",NA,NA,NA,NA,NA,NA,NA,"",NA,"10"
"",NA,"",NA,"",NA,NA,NA,NA,NA,NA,NA,"","",1,1,"2024-08-23_15h33.26.919","IAT(Formal)","2021.2.3","Win32",59.88023952,"",NA,"",NA,NA,NA,NA,NA,NA,NA,"","","",NA,"",0,NA,NA,NA,NA,NA,NA,"散漫","i","",NA,1,31,111,41,1,"",NA,"",NA,NA,NA,NA,NA,NA,NA,"",NA,"",NA,NA,NA,NA,NA,NA,NA,"","","",NA,"",NA,NA,NA,NA,NA,NA,NA,"",NA,"10"
"",NA,"",NA,"",NA,NA,NA,NA,NA,NA,NA,"","",1,1,"2024-08-23_15h33.26.919","IAT(Formal)","2021.2.3","Win32",59.88023952,"",NA,"",NA,NA,NA,NA,NA,NA,NA,"","","",NA,"i",1,0.8376,NA,NA,NA,NA,NA,"其他","i","",NA,1,32,112,79,1,"",NA,"",NA,NA,NA,NA,NA,NA,NA,"",NA,"",NA,NA,NA,NA,NA,NA,NA,"","","",NA,"",NA,NA,NA,NA,NA,NA,NA,"",NA,"10"
"",NA,"",NA,"",NA,NA,NA,NA,NA,NA,NA,"","",1,1,"2024-08-23_15h33.26.919","IAT(Formal)","2021.2.3","Win32",59.88023952,"",NA,"",NA,NA,NA,NA,NA,NA,NA,"","","",NA,"e",1,0.8563,NA,NA,NA,NA,NA,"我们","e","",NA,1,33,113,72,1,"",NA,"",NA,NA,NA,NA,NA,NA,NA,"",NA,"",NA,NA,NA,NA,NA,NA,NA,"","","",NA,"",NA,NA,NA,NA,NA,NA,NA,"",NA,"10"
"",NA,"",NA,"",NA,NA,NA,NA,NA,NA,NA,"","",1,1,"2024-08-23_15h33.26.919","IAT(Formal)","2021.2.3","Win32",59.88023952,"",NA,"",NA,NA,NA,NA,NA,NA,NA,"","","",NA,"i",1,0.8732,NA,NA,NA,NA,NA,"卑鄙","i","",NA,1,34,114,30,1,"",NA,"",NA,NA,NA,NA,NA,NA,NA,"",NA,"",NA,NA,NA,NA,NA,NA,NA,"","","",NA,"",NA,NA,NA,NA,NA,NA,NA,"",NA,"10"
"",NA,"",NA,"",NA,NA,NA,NA,NA,NA,NA,"","",1,1,"2024-08-23_15h33.26.919","IAT(Formal)","2021.2.3","Win32",59.88023952,"",NA,"",NA,NA,NA,NA,NA,NA,NA,"","","",NA,"i",1,1.0686,NA,NA,NA,NA,NA,"他们","i","",NA,1,35,115,6,1,"",NA,"",NA,NA,NA,NA,NA,NA,NA,"",NA,"",NA,NA,NA,NA,NA,NA,NA,"","","",NA,"",NA,NA,NA,NA,NA,NA,NA,"",NA,"10"
"",NA,"",NA,"",NA,NA,NA,NA,NA,NA,NA,"","",1,1,"2024-08-23_15h33.26.919","IAT(Formal)","2021.2.3","Win32",59.88023952,"",NA,"",NA,NA,NA,NA,NA,NA,NA,"","","",NA,"e",1,0.8041,NA,NA,NA,NA,NA,"我的","e","",NA,1,36,116,71,1,"",NA,"",NA,NA,NA,NA,NA,NA,NA,"",NA,"",NA,NA,NA,NA,NA,NA,NA,"","","",NA,"",NA,NA,NA,NA,NA,NA,NA,"",NA,"10"
"",NA,"",NA,"",NA,NA,NA,NA,NA,NA,NA,"","",1,1,"2024-08-23_15h33.26.919","IAT(Formal)","2021.2.3","Win32",59.88023952,"",NA,"",NA,NA,NA,NA,NA,NA,NA,"","","",NA,"e",0,0.9664,NA,NA,NA,NA,NA,"他们","i","",NA,1,37,117,76,1,"",NA,"",NA,NA,NA,NA,NA,NA,NA,"",NA,"",NA,NA,NA,NA,NA,NA,NA,"","","",NA,"",NA,NA,NA,NA,NA,NA,NA,"",NA,"10"
"",NA,"",NA,"",NA,NA,NA,NA,NA,NA,NA,"","",1,1,"2024-08-23_15h33.26.919","IAT(Formal)","2021.2.3","Win32",59.88023952,"",NA,"",NA,NA,NA,NA,NA,NA,NA,"","","",NA,"i",0,1.0754,NA,NA,NA,NA,NA,"细腻","e","",NA,1,38,118,25,1,"",NA,"",NA,NA,NA,NA,NA,NA,NA,"",NA,"",NA,NA,NA,NA,NA,NA,NA,"","","",NA,"",NA,NA,NA,NA,NA,NA,NA,"",NA,"10"
"",NA,"",NA,"",NA,NA,NA,NA,NA,NA,NA,"","",1,1,"2024-08-23_15h33.26.919","IAT(Formal)","2021.2.3","Win32",59.88023952,"",NA,"",NA,NA,NA,NA,NA,NA,NA,"","","",NA,"e",1,0.6673,NA,NA,NA,NA,NA,"我们","e","",NA,1,39,119,52,1,"",NA,"",NA,NA,NA,NA,NA,NA,NA,"",NA,"",NA,NA,NA,NA,NA,NA,NA,"","","",NA,"",NA,NA,NA,NA,NA,NA,NA,"",NA,"10"
"",NA,"",NA,"",NA,NA,NA,NA,NA,NA,NA,"","",1,1,"2024-08-23_15h33.26.919","IAT(Formal)","2021.2.3","Win32",59.88023952,"",NA,"",NA,NA,NA,NA,NA,NA,NA,"","","",NA,"e",1,0.5992,NA,NA,NA,NA,NA,"俺","e","",NA,1,40,120,4,1,"",NA,"",NA,NA,NA,NA,NA,NA,NA,"",NA,"",NA,NA,NA,NA,NA,NA,NA,"","","",NA,"",NA,NA,NA,NA,NA,NA,NA,"",NA,"10"
"",NA,"",NA,"",NA,NA,NA,NA,NA,NA,NA,"","",1,1,"2024-08-23_15h33.26.919","IAT(Formal)","2021.2.3","Win32",59.88023952,"",NA,"",NA,NA,NA,NA,NA,NA,NA,"","","",NA,"i",1,1.2016,NA,NA,NA,NA,NA,"他的","i","",NA,1,41,121,57,1,"",NA,"",NA,NA,NA,NA,NA,NA,NA,"",NA,"",NA,NA,NA,NA,NA,NA,NA,"","","",NA,"",NA,NA,NA,NA,NA,NA,NA,"",NA,"10"
"",NA,"",NA,"",NA,NA,NA,NA,NA,NA,NA,"","",1,1,"2024-08-23_15h33.26.919","IAT(Formal)","2021.2.3","Win32",59.88023952,"",NA,"",NA,NA,NA,NA,NA,NA,NA,"","","",NA,"i",1,1.1684,NA,NA,NA,NA,NA,"傲慢","i","",NA,1,42,122,37,1,"",NA,"",NA,NA,NA,NA,NA,NA,NA,"",NA,"",NA,NA,NA,NA,NA,NA,NA,"","","",NA,"",NA,NA,NA,NA,NA,NA,NA,"",NA,"10"
"",NA,"",NA,"",NA,NA,NA,NA,NA,NA,NA,"","",1,1,"2024-08-23_15h33.26.919","IAT(Formal)","2021.2.3","Win32",59.88023952,"",NA,"",NA,NA,NA,NA,NA,NA,NA,"","","",NA,"",0,NA,NA,NA,NA,NA,NA,"俺","e","",NA,1,43,123,54,1,"",NA,"",NA,NA,NA,NA,NA,NA,NA,"",NA,"",NA,NA,NA,NA,NA,NA,NA,"","","",NA,"",NA,NA,NA,NA,NA,NA,NA,"",NA,"10"
"",NA,"",NA,"",NA,NA,NA,NA,NA,NA,NA,"","",1,1,"2024-08-23_15h33.26.919","IAT(Formal)","2021.2.3","Win32",59.88023952,"",NA,"",NA,NA,NA,NA,NA,NA,NA,"","","",NA,"e",1,0.7846,NA,NA,NA,NA,NA,"自己","e","",NA,1,44,124,63,1,"",NA,"",NA,NA,NA,NA,NA,NA,NA,"",NA,"",NA,NA,NA,NA,NA,NA,NA,"","","",NA,"",NA,NA,NA,NA,NA,NA,NA,"",NA,"10"
"",NA,"",NA,"",NA,NA,NA,NA,NA,NA,NA,"","",1,1,"2024-08-23_15h33.26.919","IAT(Formal)","2021.2.3","Win32",59.88023952,"",NA,"",NA,NA,NA,NA,NA,NA,NA,"","","",NA,"e",1,1.3676,NA,NA,NA,NA,NA,"朴实","e","",NA,1,45,125,24,1,"",NA,"",NA,NA,NA,NA,NA,NA,NA,"",NA,"",NA,NA,NA,NA,NA,NA,NA,"","","",NA,"",NA,NA,NA,NA,NA,NA,NA,"",NA,"10"
"",NA,"",NA,"",NA,NA,NA,NA,NA,NA,NA,"","",1,1,"2024-08-23_15h33.26.919","IAT(Formal)","2021.2.3","Win32",59.88023952,"",NA,"",NA,NA,NA,NA,NA,NA,NA,"","","",NA,"e",1,1.1364,NA,NA,NA,NA,NA,"优秀","e","",NA,1,46,126,10,1,"",NA,"",NA,NA,NA,NA,NA,NA,NA,"",NA,"",NA,NA,NA,NA,NA,NA,NA,"","","",NA,"",NA,NA,NA,NA,NA,NA,NA,"",NA,"10"
"",NA,"",NA,"",NA,NA,NA,NA,NA,NA,NA,"","",1,1,"2024-08-23_15h33.26.919","IAT(Formal)","2021.2.3","Win32",59.88023952,"",NA,"",NA,NA,NA,NA,NA,NA,NA,"","","",NA,"i",1,0.648,NA,NA,NA,NA,NA,"他人","i","",NA,1,47,127,8,1,"",NA,"",NA,NA,NA,NA,NA,NA,NA,"",NA,"",NA,NA,NA,NA,NA,NA,NA,"","","",NA,"",NA,NA,NA,NA,NA,NA,NA,"",NA,"10"
"",NA,"",NA,"",NA,NA,NA,NA,NA,NA,NA,"","",1,1,"2024-08-23_15h33.26.919","IAT(Formal)","2021.2.3","Win32",59.88023952,"",NA,"",NA,NA,NA,NA,NA,NA,NA,"","","",NA,"",0,NA,NA,NA,NA,NA,NA,"诚恳","e","",NA,1,48,128,29,1,"",NA,"",NA,NA,NA,NA,NA,NA,NA,"",NA,"",NA,NA,NA,NA,NA,NA,NA,"","","",NA,"",NA,NA,NA,NA,NA,NA,NA,"",NA,"10"
"",NA,"",NA,"",NA,NA,NA,NA,NA,NA,NA,"","",1,1,"2024-08-23_15h33.26.919","IAT(Formal)","2021.2.3","Win32",59.88023952,"",NA,"",NA,NA,NA,NA,NA,NA,NA,"","","",NA,"e",1,0.9053,NA,NA,NA,NA,NA,"我","e","",NA,1,49,129,0,1,"",NA,"",NA,NA,NA,NA,NA,NA,NA,"",NA,"",NA,NA,NA,NA,NA,NA,NA,"","","",NA,"",NA,NA,NA,NA,NA,NA,NA,"",NA,"10"
"",NA,"",NA,"",NA,NA,NA,NA,NA,NA,NA,"","",1,1,"2024-08-23_15h33.26.919","IAT(Formal)","2021.2.3","Win32",59.88023952,"",NA,"",NA,NA,NA,NA,NA,NA,NA,"","","",NA,"e",1,0.7755,NA,NA,NA,NA,NA,"热情","e","",NA,1,50,130,27,1,"",NA,"",NA,NA,NA,NA,NA,NA,NA,"",NA,"",NA,NA,NA,NA,NA,NA,NA,"","","",NA,"",NA,NA,NA,NA,NA,NA,NA,"",NA,"10"
"",NA,"",NA,"",NA,NA,NA,NA,NA,NA,NA,"","",1,1,"2024-08-23_15h33.26.919","IAT(Formal)","2021.2.3","Win32",59.88023952,"",NA,"",NA,NA,NA,NA,NA,NA,NA,"","","",NA,"i",1,0.989,NA,NA,NA,NA,NA,"愚蠢","i","",NA,1,51,131,32,1,"",NA,"",NA,NA,NA,NA,NA,NA,NA,"",NA,"",NA,NA,NA,NA,NA,NA,NA,"","","",NA,"",NA,NA,NA,NA,NA,NA,NA,"",NA,"10"
"",NA,"",NA,"",NA,NA,NA,NA,NA,NA,NA,"","",1,1,"2024-08-23_15h33.26.919","IAT(Formal)","2021.2.3","Win32",59.88023952,"",NA,"",NA,NA,NA,NA,NA,NA,NA,"","","",NA,"e",1,0.8568,NA,NA,NA,NA,NA,"我们","e","",NA,1,52,132,62,1,"",NA,"",NA,NA,NA,NA,NA,NA,NA,"",NA,"",NA,NA,NA,NA,NA,NA,NA,"","","",NA,"",NA,NA,NA,NA,NA,NA,NA,"",NA,"10"
"",NA,"",NA,"",NA,NA,NA,NA,NA,NA,NA,"","",1,1,"2024-08-23_15h33.26.919","IAT(Formal)","2021.2.3","Win32",59.88023952,"",NA,"",NA,NA,NA,NA,NA,NA,NA,"","","",NA,"i",0,1.3371,NA,NA,NA,NA,NA,"崇高","e","",NA,1,53,133,11,1,"",NA,"",NA,NA,NA,NA,NA,NA,NA,"",NA,"",NA,NA,NA,NA,NA,NA,NA,"","","",NA,"",NA,NA,NA,NA,NA,NA,NA,"",NA,"10"
"",NA,"",NA,"",NA,NA,NA,NA,NA,NA,NA,"","",1,1,"2024-08-23_15h33.26.919","IAT(Formal)","2021.2.3","Win32",59.88023952,"",NA,"",NA,NA,NA,NA,NA,NA,NA,"","","",NA,"i",0,0.9672,NA,NA,NA,NA,NA,"勤奋","e","",NA,1,54,134,18,1,"",NA,"",NA,NA,NA,NA,NA,NA,NA,"",NA,"",NA,NA,NA,NA,NA,NA,NA,"","","",NA,"",NA,NA,NA,NA,NA,NA,NA,"",NA,"10"
"",NA,"",NA,"",NA,NA,NA,NA,NA,NA,NA,"","",1,1,"2024-08-23_15h33.26.919","IAT(Formal)","2021.2.3","Win32",59.88023952,"",NA,"",NA,NA,NA,NA,NA,NA,NA,"","","",NA,"i",1,1.2531,NA,NA,NA,NA,NA,"刻薄","i","",NA,1,55,135,33,1,"",NA,"",NA,NA,NA,NA,NA,NA,NA,"",NA,"",NA,NA,NA,NA,NA,NA,NA,"","","",NA,"",NA,NA,NA,NA,NA,NA,NA,"",NA,"10"
"",NA,"",NA,"",NA,NA,NA,NA,NA,NA,NA,"","",1,1,"2024-08-23_15h33.26.919","IAT(Formal)","2021.2.3","Win32",59.88023952,"",NA,"",NA,NA,NA,NA,NA,NA,NA,"","","",NA,"",0,NA,NA,NA,NA,NA,NA,"勇敢","e","",NA,1,56,136,17,1,"",NA,"",NA,NA,NA,NA,NA,NA,NA,"",NA,"",NA,NA,NA,NA,NA,NA,NA,"","","",NA,"",NA,NA,NA,NA,NA,NA,NA,"",NA,"10"
"",NA,"",NA,"",NA,NA,NA,NA,NA,NA,NA,"","",1,1,"2024-08-23_15h33.26.919","IAT(Formal)","2021.2.3","Win32",59.88023952,"",NA,"",NA,NA,NA,NA,NA,NA,NA,"","","",NA,"",0,NA,NA,NA,NA,NA,NA,"暴躁","i","",NA,1,57,137,44,1,"",NA,"",NA,NA,NA,NA,NA,NA,NA,"",NA,"",NA,NA,NA,NA,NA,NA,NA,"","","",NA,"",NA,NA,NA,NA,NA,NA,NA,"",NA,"10"
"",NA,"",NA,"",NA,NA,NA,NA,NA,NA,NA,"","",1,1,"2024-08-23_15h33.26.919","IAT(Formal)","2021.2.3","Win32",59.88023952,"",NA,"",NA,NA,NA,NA,NA,NA,NA,"","","",NA,"i",1,0.6596,NA,NA,NA,NA,NA,"执拗","i","",NA,1,58,138,40,1,"",NA,"",NA,NA,NA,NA,NA,NA,NA,"",NA,"",NA,NA,NA,NA,NA,NA,NA,"","","",NA,"",NA,NA,NA,NA,NA,NA,NA,"",NA,"10"
"",NA,"",NA,"",NA,NA,NA,NA,NA,NA,NA,"","",1,1,"2024-08-23_15h33.26.919","IAT(Formal)","2021.2.3","Win32",59.88023952,"",NA,"",NA,NA,NA,NA,NA,NA,NA,"","","",NA,"e",0,1.0533,NA,NA,NA,NA,NA,"他","i","",NA,1,59,139,65,1,"",NA,"",NA,NA,NA,NA,NA,NA,NA,"",NA,"",NA,NA,NA,NA,NA,NA,NA,"","","",NA,"",NA,NA,NA,NA,NA,NA,NA,"",NA,"10"
"",NA,"",NA,"",NA,NA,NA,NA,NA,NA,NA,"","",1,1,"2024-08-23_15h33.26.919","IAT(Formal)","2021.2.3","Win32",59.88023952,"",NA,"",NA,NA,NA,NA,NA,NA,NA,"","","",NA,"e",0,0.7933,NA,NA,NA,NA,NA,"他","i","",NA,1,60,140,5,1,"",NA,"",NA,NA,NA,NA,NA,NA,NA,"",NA,"",NA,NA,NA,NA,NA,NA,NA,"","","",NA,"",NA,NA,NA,NA,NA,NA,NA,"",NA,"10"
"",NA,"",NA,"",NA,NA,NA,NA,NA,NA,NA,"","",1,1,"2024-08-23_15h33.26.919","IAT(Formal)","2021.2.3","Win32",59.88023952,"",NA,"",NA,NA,NA,NA,NA,NA,NA,"","","",NA,"i",0,1.1366,NA,NA,NA,NA,NA,"我","e","",NA,1,61,141,70,1,"",NA,"",NA,NA,NA,NA,NA,NA,NA,"",NA,"",NA,NA,NA,NA,NA,NA,NA,"","","",NA,"",NA,NA,NA,NA,NA,NA,NA,"",NA,"10"
"",NA,"",NA,"",NA,NA,NA,NA,NA,NA,NA,"","",1,1,"2024-08-23_15h33.26.919","IAT(Formal)","2021.2.3","Win32",59.88023952,"",NA,"",NA,NA,NA,NA,NA,NA,NA,"","","",NA,"i",1,0.8661,NA,NA,NA,NA,NA,"悲观","i","",NA,1,62,142,34,1,"",NA,"",NA,NA,NA,NA,NA,NA,NA,"",NA,"",NA,NA,NA,NA,NA,NA,NA,"","","",NA,"",NA,NA,NA,NA,NA,NA,NA,"",NA,"10"
"",NA,"",NA,"",NA,NA,NA,NA,NA,NA,NA,"","",1,1,"2024-08-23_15h33.26.919","IAT(Formal)","2021.2.3","Win32",59.88023952,"",NA,"",NA,NA,NA,NA,NA,NA,NA,"","","",NA,"i",1,0.9001,NA,NA,NA,NA,NA,"其他","i","",NA,1,63,143,9,1,"",NA,"",NA,NA,NA,NA,NA,NA,NA,"",NA,"",NA,NA,NA,NA,NA,NA,NA,"","","",NA,"",NA,NA,NA,NA,NA,NA,NA,"",NA,"10"
"",NA,"",NA,"",NA,NA,NA,NA,NA,NA,NA,"","",1,1,"2024-08-23_15h33.26.919","IAT(Formal)","2021.2.3","Win32",59.88023952,"",NA,"",NA,NA,NA,NA,NA,NA,NA,"","","",NA,"e",1,1.0411,NA,NA,NA,NA,NA,"自己","e","",NA,1,64,144,3,1,"",NA,"",NA,NA,NA,NA,NA,NA,NA,"",NA,"",NA,NA,NA,NA,NA,NA,NA,"","","",NA,"",NA,NA,NA,NA,NA,NA,NA,"",NA,"10"
"",NA,"",NA,"",NA,NA,NA,NA,NA,NA,NA,"","",1,1,"2024-08-23_15h33.26.919","IAT(Formal)","2021.2.3","Win32",59.88023952,"",NA,"",NA,NA,NA,NA,NA,NA,NA,"","","",NA,"e",1,0.7821,NA,NA,NA,NA,NA,"冷静","e","",NA,1,65,145,26,1,"",NA,"",NA,NA,NA,NA,NA,NA,NA,"",NA,"",NA,NA,NA,NA,NA,NA,NA,"","","",NA,"",NA,NA,NA,NA,NA,NA,NA,"",NA,"10"
"",NA,"",NA,"",NA,NA,NA,NA,NA,NA,NA,"","",1,1,"2024-08-23_15h33.26.919","IAT(Formal)","2021.2.3","Win32",59.88023952,"",NA,"",NA,NA,NA,NA,NA,NA,NA,"","","",NA,"e",0,0.7693,NA,NA,NA,NA,NA,"自私","i","",NA,1,66,146,43,1,"",NA,"",NA,NA,NA,NA,NA,NA,NA,"",NA,"",NA,NA,NA,NA,NA,NA,NA,"","","",NA,"",NA,NA,NA,NA,NA,NA,NA,"",NA,"10"
"",NA,"",NA,"",NA,NA,NA,NA,NA,NA,NA,"","",1,1,"2024-08-23_15h33.26.919","IAT(Formal)","2021.2.3","Win32",59.88023952,"",NA,"",NA,NA,NA,NA,NA,NA,NA,"","","",NA,"i",1,1.4514,NA,NA,NA,NA,NA,"下贱","i","",NA,1,67,147,49,1,"",NA,"",NA,NA,NA,NA,NA,NA,NA,"",NA,"",NA,NA,NA,NA,NA,NA,NA,"","","",NA,"",NA,NA,NA,NA,NA,NA,NA,"",NA,"10"
"",NA,"",NA,"",NA,NA,NA,NA,NA,NA,NA,"","",1,1,"2024-08-23_15h33.26.919","IAT(Formal)","2021.2.3","Win32",59.88023952,"",NA,"",NA,NA,NA,NA,NA,NA,NA,"","","",NA,"i",1,1.1496,NA,NA,NA,NA,NA,"他的","i","",NA,1,68,148,77,1,"",NA,"",NA,NA,NA,NA,NA,NA,NA,"",NA,"",NA,NA,NA,NA,NA,NA,NA,"","","",NA,"",NA,NA,NA,NA,NA,NA,NA,"",NA,"10"
"",NA,"",NA,"",NA,NA,NA,NA,NA,NA,NA,"","",1,1,"2024-08-23_15h33.26.919","IAT(Formal)","2021.2.3","Win32",59.88023952,"",NA,"",NA,NA,NA,NA,NA,NA,NA,"","","",NA,"",0,NA,NA,NA,NA,NA,NA,"虚伪","i","",NA,1,69,149,31,1,"",NA,"",NA,NA,NA,NA,NA,NA,NA,"",NA,"",NA,NA,NA,NA,NA,NA,NA,"","","",NA,"",NA,NA,NA,NA,NA,NA,NA,"",NA,"10"
"",NA,"",NA,"",NA,NA,NA,NA,NA,NA,NA,"","",1,1,"2024-08-23_15h33.26.919","IAT(Formal)","2021.2.3","Win32",59.88023952,"",NA,"",NA,NA,NA,NA,NA,NA,NA,"","","",NA,"i",1,1.1654,NA,NA,NA,NA,NA,"他的","i","",NA,1,70,150,67,1,"",NA,"",NA,NA,NA,NA,NA,NA,NA,"",NA,"",NA,NA,NA,NA,NA,NA,NA,"","","",NA,"",NA,NA,NA,NA,NA,NA,NA,"",NA,"10"
"",NA,"",NA,"",NA,NA,NA,NA,NA,NA,NA,"","",1,1,"2024-08-23_15h33.26.919","IAT(Formal)","2021.2.3","Win32",59.88023952,"",NA,"",NA,NA,NA,NA,NA,NA,NA,"","","",NA,"e",1,1.3775,NA,NA,NA,NA,NA,"聪明","e","",NA,1,71,151,12,1,"",NA,"",NA,NA,NA,NA,NA,NA,NA,"",NA,"",NA,NA,NA,NA,NA,NA,NA,"","","",NA,"",NA,NA,NA,NA,NA,NA,NA,"",NA,"10"
"",NA,"",NA,"",NA,NA,NA,NA,NA,NA,NA,"","",1,1,"2024-08-23_15h33.26.919","IAT(Formal)","2021.2.3","Win32",59.88023952,"",NA,"",NA,NA,NA,NA,NA,NA,NA,"","","",NA,"",0,NA,NA,NA,NA,NA,NA,"自卑","i","",NA,1,72,152,36,1,"",NA,"",NA,NA,NA,NA,NA,NA,NA,"",NA,"",NA,NA,NA,NA,NA,NA,NA,"","","",NA,"",NA,NA,NA,NA,NA,NA,NA,"",NA,"10"
"",NA,"",NA,"",NA,NA,NA,NA,NA,NA,NA,"","",1,1,"2024-08-23_15h33.26.919","IAT(Formal)","2021.2.3","Win32",59.88023952,"",NA,"",NA,NA,NA,NA,NA,NA,NA,"","","",NA,"i",1,0.9671,NA,NA,NA,NA,NA,"轻率","i","",NA,1,73,153,48,1,"",NA,"",NA,NA,NA,NA,NA,NA,NA,"",NA,"",NA,NA,NA,NA,NA,NA,NA,"","","",NA,"",NA,NA,NA,NA,NA,NA,NA,"",NA,"10"
"",NA,"",NA,"",NA,NA,NA,NA,NA,NA,NA,"","",1,1,"2024-08-23_15h33.26.919","IAT(Formal)","2021.2.3","Win32",59.88023952,"",NA,"",NA,NA,NA,NA,NA,NA,NA,"","","",NA,"e",1,0.9779,NA,NA,NA,NA,NA,"俺","e","",NA,1,74,154,74,1,"",NA,"",NA,NA,NA,NA,NA,NA,NA,"",NA,"",NA,NA,NA,NA,NA,NA,NA,"","","",NA,"",NA,NA,NA,NA,NA,NA,NA,"",NA,"10"
"",NA,"",NA,"",NA,NA,NA,NA,NA,NA,NA,"","",1,1,"2024-08-23_15h33.26.919","IAT(Formal)","2021.2.3","Win32",59.88023952,"",NA,"",NA,NA,NA,NA,NA,NA,NA,"","","",NA,"i",1,0.9096,NA,NA,NA,NA,NA,"其他","i","",NA,1,75,155,59,1,"",NA,"",NA,NA,NA,NA,NA,NA,NA,"",NA,"",NA,NA,NA,NA,NA,NA,NA,"","","",NA,"",NA,NA,NA,NA,NA,NA,NA,"",NA,"10"
"",NA,"",NA,"",NA,NA,NA,NA,NA,NA,NA,"","",1,1,"2024-08-23_15h33.26.919","IAT(Formal)","2021.2.3","Win32",59.88023952,"",NA,"",NA,NA,NA,NA,NA,NA,NA,"","","",NA,"e",1,1.2659,NA,NA,NA,NA,NA,"活泼","e","",NA,1,76,156,28,1,"",NA,"",NA,NA,NA,NA,NA,NA,NA,"",NA,"",NA,NA,NA,NA,NA,NA,NA,"","","",NA,"",NA,NA,NA,NA,NA,NA,NA,"",NA,"10"
"",NA,"",NA,"",NA,NA,NA,NA,NA,NA,NA,"","",1,1,"2024-08-23_15h33.26.919","IAT(Formal)","2021.2.3","Win32",59.88023952,"",NA,"",NA,NA,NA,NA,NA,NA,NA,"","","",NA,"i",1,0.6056,NA,NA,NA,NA,NA,"他的","i","",NA,1,77,157,7,1,"",NA,"",NA,NA,NA,NA,NA,NA,NA,"",NA,"",NA,NA,NA,NA,NA,NA,NA,"","","",NA,"",NA,NA,NA,NA,NA,NA,NA,"",NA,"10"
"",NA,"",NA,"",NA,NA,NA,NA,NA,NA,NA,"","",1,1,"2024-08-23_15h33.26.919","IAT(Formal)","2021.2.3","Win32",59.88023952,"",NA,"",NA,NA,NA,NA,NA,NA,NA,"","","",NA,"e",1,0.7165,NA,NA,NA,NA,NA,"认真","e","",NA,1,78,158,20,1,"",NA,"",NA,NA,NA,NA,NA,NA,NA,"",NA,"",NA,NA,NA,NA,NA,NA,NA,"","","",NA,"",NA,NA,NA,NA,NA,NA,NA,"",NA,"10"
"",NA,"",NA,"",NA,NA,NA,NA,NA,NA,NA,"","",1,1,"2024-08-23_15h33.26.919","IAT(Formal)","2021.2.3","Win32",59.88023952,"",NA,"",NA,NA,NA,NA,NA,NA,NA,"","","",NA,"",0,NA,NA,NA,NA,NA,NA,"他们","i","",NA,1,79,159,56,1,"",NA,"",NA,NA,NA,NA,NA,NA,NA,"",NA,"",NA,NA,NA,NA,NA,NA,NA,"","","",NA,"",NA,NA,NA,NA,NA,NA,NA,"",NA,"10"
"",NA,"",NA,"",NA,NA,NA,NA,NA,NA,NA,"他","e",1,1,"2024-08-23_15h33.26.919","IAT(Formal)","2021.2.3","Win32",59.88023952,"",NA,"",NA,NA,NA,NA,NA,NA,NA,"","","",NA,"",NA,NA,NA,NA,NA,NA,NA,"","","",NA,NA,NA,NA,NA,NA,"space",38.4089,"e",1,0.9993,0,0,0,5,1,"",NA,"",NA,NA,NA,NA,NA,NA,NA,"","","",NA,"",NA,NA,NA,NA,NA,NA,NA,"",NA,"10"
"",NA,"",NA,"",NA,NA,NA,NA,NA,NA,NA,"我的","i",1,1,"2024-08-23_15h33.26.919","IAT(Formal)","2021.2.3","Win32",59.88023952,"",NA,"",NA,NA,NA,NA,NA,NA,NA,"","","",NA,"",NA,NA,NA,NA,NA,NA,NA,"","","",NA,NA,NA,NA,NA,NA,"",NA,"i",1,0.8513,0,1,1,1,1,"",NA,"",NA,NA,NA,NA,NA,NA,NA,"","","",NA,"",NA,NA,NA,NA,NA,NA,NA,"",NA,"10"
"",NA,"",NA,"",NA,NA,NA,NA,NA,NA,NA,"他的","e",1,1,"2024-08-23_15h33.26.919","IAT(Formal)","2021.2.3","Win32",59.88023952,"",NA,"",NA,NA,NA,NA,NA,NA,NA,"","","",NA,"",NA,NA,NA,NA,NA,NA,NA,"","","",NA,NA,NA,NA,NA,NA,"",NA,"",0,NA,0,2,2,7,1,"",NA,"",NA,NA,NA,NA,NA,NA,NA,"","","",NA,"",NA,NA,NA,NA,NA,NA,NA,"",NA,"10"
"",NA,"",NA,"",NA,NA,NA,NA,NA,NA,NA,"我","i",1,1,"2024-08-23_15h33.26.919","IAT(Formal)","2021.2.3","Win32",59.88023952,"",NA,"",NA,NA,NA,NA,NA,NA,NA,"","","",NA,"",NA,NA,NA,NA,NA,NA,NA,"","","",NA,NA,NA,NA,NA,NA,"",NA,"e",0,0.6013,0,3,3,0,1,"",NA,"",NA,NA,NA,NA,NA,NA,NA,"","","",NA,"",NA,NA,NA,NA,NA,NA,NA,"",NA,"10"
"",NA,"",NA,"",NA,NA,NA,NA,NA,NA,NA,"我们","i",1,1,"2024-08-23_15h33.26.919","IAT(Formal)","2021.2.3","Win32",59.88023952,"",NA,"",NA,NA,NA,NA,NA,NA,NA,"","","",NA,"",NA,NA,NA,NA,NA,NA,NA,"","","",NA,NA,NA,NA,NA,NA,"",NA,"i",1,0.9344,0,4,4,2,1,"",NA,"",NA,NA,NA,NA,NA,NA,NA,"","","",NA,"",NA,NA,NA,NA,NA,NA,NA,"",NA,"10"
"",NA,"",NA,"",NA,NA,NA,NA,NA,NA,NA,"其他","e",1,1,"2024-08-23_15h33.26.919","IAT(Formal)","2021.2.3","Win32",59.88023952,"",NA,"",NA,NA,NA,NA,NA,NA,NA,"","","",NA,"",NA,NA,NA,NA,NA,NA,NA,"","","",NA,NA,NA,NA,NA,NA,"",NA,"e",1,0.8991,0,5,5,9,1,"",NA,"",NA,NA,NA,NA,NA,NA,NA,"","","",NA,"",NA,NA,NA,NA,NA,NA,NA,"",NA,"10"
"",NA,"",NA,"",NA,NA,NA,NA,NA,NA,NA,"俺","i",1,1,"2024-08-23_15h33.26.919","IAT(Formal)","2021.2.3","Win32",59.88023952,"",NA,"",NA,NA,NA,NA,NA,NA,NA,"","","",NA,"",NA,NA,NA,NA,NA,NA,NA,"","","",NA,NA,NA,NA,NA,NA,"",NA,"i",1,0.9318,0,6,6,4,1,"",NA,"",NA,NA,NA,NA,NA,NA,NA,"","","",NA,"",NA,NA,NA,NA,NA,NA,NA,"",NA,"10"
"",NA,"",NA,"",NA,NA,NA,NA,NA,NA,NA,"自己","i",1,1,"2024-08-23_15h33.26.919","IAT(Formal)","2021.2.3","Win32",59.88023952,"",NA,"",NA,NA,NA,NA,NA,NA,NA,"","","",NA,"",NA,NA,NA,NA,NA,NA,NA,"","","",NA,NA,NA,NA,NA,NA,"",NA,"i",1,0.9759,0,7,7,3,1,"",NA,"",NA,NA,NA,NA,NA,NA,NA,"","","",NA,"",NA,NA,NA,NA,NA,NA,NA,"",NA,"10"
"",NA,"",NA,"",NA,NA,NA,NA,NA,NA,NA,"他们","e",1,1,"2024-08-23_15h33.26.919","IAT(Formal)","2021.2.3","Win32",59.88023952,"",NA,"",NA,NA,NA,NA,NA,NA,NA,"","","",NA,"",NA,NA,NA,NA,NA,NA,NA,"","","",NA,NA,NA,NA,NA,NA,"",NA,"e",1,1.2781,0,8,8,6,1,"",NA,"",NA,NA,NA,NA,NA,NA,NA,"","","",NA,"",NA,NA,NA,NA,NA,NA,NA,"",NA,"10"
"",NA,"",NA,"",NA,NA,NA,NA,NA,NA,NA,"他人","e",1,1,"2024-08-23_15h33.26.919","IAT(Formal)","2021.2.3","Win32",59.88023952,"",NA,"",NA,NA,NA,NA,NA,NA,NA,"","","",NA,"",NA,NA,NA,NA,NA,NA,NA,"","","",NA,NA,NA,NA,NA,NA,"",NA,"",0,NA,0,9,9,8,1,"",NA,"",NA,NA,NA,NA,NA,NA,NA,"","","",NA,"",NA,NA,NA,NA,NA,NA,NA,"",NA,"10"
"",NA,"",NA,"",NA,NA,NA,NA,NA,NA,NA,"","",1,1,"2024-08-23_15h33.26.919","IAT(Formal)","2021.2.3","Win32",59.88023952,"",NA,"",NA,NA,NA,NA,NA,NA,NA,"","","",NA,"",NA,NA,NA,NA,NA,NA,NA,"","","",NA,NA,NA,NA,NA,NA,"",NA,"",NA,NA,NA,NA,NA,NA,NA,"space",4.4002,"i",0,0.9825,0,0,0,29,1,"诚恳","e","",NA,"",NA,NA,NA,NA,NA,NA,NA,"",NA,"10"
"",NA,"",NA,"",NA,NA,NA,NA,NA,NA,NA,"","",1,1,"2024-08-23_15h33.26.919","IAT(Formal)","2021.2.3","Win32",59.88023952,"",NA,"",NA,NA,NA,NA,NA,NA,NA,"","","",NA,"",NA,NA,NA,NA,NA,NA,NA,"","","",NA,NA,NA,NA,NA,NA,"",NA,"",NA,NA,NA,NA,NA,NA,NA,"",NA,"i",1,0.8829,0,1,1,3,1,"自己","i","",NA,"",NA,NA,NA,NA,NA,NA,NA,"",NA,"10"
"",NA,"",NA,"",NA,NA,NA,NA,NA,NA,NA,"","",1,1,"2024-08-23_15h33.26.919","IAT(Formal)","2021.2.3","Win32",59.88023952,"",NA,"",NA,NA,NA,NA,NA,NA,NA,"","","",NA,"",NA,NA,NA,NA,NA,NA,NA,"","","",NA,NA,NA,NA,NA,NA,"",NA,"",NA,NA,NA,NA,NA,NA,NA,"",NA,"e",1,0.9427,0,2,2,66,1,"他们","e","",NA,"",NA,NA,NA,NA,NA,NA,NA,"",NA,"10"
"",NA,"",NA,"",NA,NA,NA,NA,NA,NA,NA,"","",1,1,"2024-08-23_15h33.26.919","IAT(Formal)","2021.2.3","Win32",59.88023952,"",NA,"",NA,NA,NA,NA,NA,NA,NA,"","","",NA,"",NA,NA,NA,NA,NA,NA,NA,"","","",NA,NA,NA,NA,NA,NA,"",NA,"",NA,NA,NA,NA,NA,NA,NA,"",NA,"i",0,0.767,0,3,3,22,1,"无私","e","",NA,"",NA,NA,NA,NA,NA,NA,NA,"",NA,"10"
"",NA,"",NA,"",NA,NA,NA,NA,NA,NA,NA,"","",1,1,"2024-08-23_15h33.26.919","IAT(Formal)","2021.2.3","Win32",59.88023952,"",NA,"",NA,NA,NA,NA,NA,NA,NA,"","","",NA,"",NA,NA,NA,NA,NA,NA,NA,"","","",NA,NA,NA,NA,NA,NA,"",NA,"",NA,NA,NA,NA,NA,NA,NA,"",NA,"e",1,1.1217,0,4,4,28,1,"活泼","e","",NA,"",NA,NA,NA,NA,NA,NA,NA,"",NA,"10"
"",NA,"",NA,"",NA,NA,NA,NA,NA,NA,NA,"","",1,1,"2024-08-23_15h33.26.919","IAT(Formal)","2021.2.3","Win32",59.88023952,"",NA,"",NA,NA,NA,NA,NA,NA,NA,"","","",NA,"",NA,NA,NA,NA,NA,NA,NA,"","","",NA,NA,NA,NA,NA,NA,"",NA,"",NA,NA,NA,NA,NA,NA,NA,"",NA,"i",0,0.6341,0,5,5,57,1,"他的","e","",NA,"",NA,NA,NA,NA,NA,NA,NA,"",NA,"10"
