"X.Instruction1.keys","Instruction1.rt","Instruction2.keys","Instruction2.rt","key_resp_iso.keys","key_resp_iso.corr","key_resp_iso.rt","Practice_01.thisRepN","Practice_01.thisTrialN","Practice_01.thisN","Practice_01.thisIndex","Practice_01.ran","Words","ans","participant","session","date","expName","psychopyVersion","OS","frameRate","key_resp_3.keys","key_resp_3.rt","key_resp_ipn.keys","key_resp_ipn.corr","key_resp_ipn.rt","Practice_02.thisRepN","Practice_02.thisTrialN","Practice_02.thisN","Practice_02.thisIndex","Practice_02.ran","Words_ipn","ans_ipn","key_resp_4.keys","key_resp_4.rt","key_resp_t1.keys","key_resp_t1.corr","Practice_T1.thisRepN","Practice_T1.thisTrialN","Practice_T1.thisN","Practice_T1.thisIndex","Practice_T1.ran","Words_t1","ans_t1","key_resp_t1.rt","key_resp_5.keys","key_resp_5.rt","Formal_T1.thisRepN","Formal_T1.thisTrialN","Formal_T1.thisN","Formal_T1.thisIndex","Formal_T1.ran","key_resp_6.keys","key_resp_6.rt","key_resp_iso_reverse.keys","key_resp_iso_reverse.corr","key_resp_iso_reverse.rt","Practice_iso_Reverse.thisRepN","Practice_iso_Reverse.thisTrialN","Practice_iso_Reverse.thisN","Practice_iso_Reverse.thisIndex","Practice_iso_Reverse.ran","key_resp_7.keys","key_resp_7.rt","key_resp_t2_Practice.keys","key_resp_t2_Practice.corr","key_resp_t2_Practice.rt","Practice_t2_Reverse.thisRepN","Practice_t2_Reverse.thisTrialN","Practice_t2_Reverse.thisN","Practice_t2_Reverse.thisIndex","Practice_t2_Reverse.ran","Words_t2","ans_t2","key_resp_8.keys","key_resp_8.rt","key_resp_t2.keys","key_resp_t2.corr","key_resp_t2.rt","Formal_t2_reverse.thisRepN","Formal_t2_reverse.thisTrialN","Formal_t2_reverse.thisN","Formal_t2_reverse.thisIndex","Formal_t2_reverse.ran","key_instruct.keys","key_instruct.rt","Subject"
"space",8.4309,"space",11.2748,"e",1,0.7287,0,0,0,2,1,"我们","e",1,1,"2024-08-23_17h11.21.115","IAT(Formal)","2021.2.3","Win32",59.88023952,"",NA,"",NA,NA,NA,NA,NA,NA,NA,"","","",NA,"",NA,NA,NA,NA,NA,NA,"","",NA,"",NA,NA,NA,NA,NA,NA,"",NA,"",NA,NA,NA,NA,NA,NA,NA,"",NA,"",NA,NA,NA,NA,NA,NA,NA,"","","",NA,"",NA,NA,NA,NA,NA,NA,NA,"",NA,"11"
"",NA,"",NA,"e",1,0.5666,0,1,1,3,1,"自己","e",1,1,"2024-08-23_17h11.21.115","IAT(Formal)","2021.2.3","Win32",59.88023952,"",NA,"",NA,NA,NA,NA,NA,NA,NA,"","","",NA,"",NA,NA,NA,NA,NA,NA,"","",NA,"",NA,NA,NA,NA,NA,NA,"",NA,"",NA,NA,NA,NA,NA,NA,NA,"",NA,"",NA,NA,NA,NA,NA,NA,NA,"","","",NA,"",NA,NA,NA,NA,NA,NA,NA,"",NA,"11"
"",NA,"",NA,"e",1,0.5931,0,2,2,0,1,"我","e",1,1,"2024-08-23_17h11.21.115","IAT(Formal)","2021.2.3","Win32",59.88023952,"",NA,"",NA,NA,NA,NA,NA,NA,NA,"","","",NA,"",NA,NA,NA,NA,NA,NA,"","",NA,"",NA,NA,NA,NA,NA,NA,"",NA,"",NA,NA,NA,NA,NA,NA,NA,"",NA,"",NA,NA,NA,NA,NA,NA,NA,"","","",NA,"",NA,NA,NA,NA,NA,NA,NA,"",NA,"11"
"",NA,"",NA,"i",1,0.5092,0,3,3,5,1,"他","i",1,1,"2024-08-23_17h11.21.115","IAT(Formal)","2021.2.3","Win32",59.88023952,"",NA,"",NA,NA,NA,NA,NA,NA,NA,"","","",NA,"",NA,NA,NA,NA,NA,NA,"","",NA,"",NA,NA,NA,NA,NA,NA,"",NA,"",NA,NA,NA,NA,NA,NA,NA,"",NA,"",NA,NA,NA,NA,NA,NA,NA,"","","",NA,"",NA,NA,NA,NA,NA,NA,NA,"",NA,"11"
"",NA,"",NA,"e",1,0.964,0,4,4,4,1,"俺","e",1,1,"2024-08-23_17h11.21.115","IAT(Formal)","2021.2.3","Win32",59.88023952,"",NA,"",NA,NA,NA,NA,NA,NA,NA,"","","",NA,"",NA,NA,NA,NA,NA,NA,"","",NA,"",NA,NA,NA,NA,NA,NA,"",NA,"",NA,NA,NA,NA,NA,NA,NA,"",NA,"",NA,NA,NA,NA,NA,NA,NA,"","","",NA,"",NA,NA,NA,NA,NA,NA,NA,"",NA,"11"
"",NA,"",NA,"i",1,0.7206,0,5,5,9,1,"其他","i",1,1,"2024-08-23_17h11.21.115","IAT(Formal)","2021.2.3","Win32",59.88023952,"",NA,"",NA,NA,NA,NA,NA,NA,NA,"","","",NA,"",NA,NA,NA,NA,NA,NA,"","",NA,"",NA,NA,NA,NA,NA,NA,"",NA,"",NA,NA,NA,NA,NA,NA,NA,"",NA,"",NA,NA,NA,NA,NA,NA,NA,"","","",NA,"",NA,NA,NA,NA,NA,NA,NA,"",NA,"11"
"",NA,"",NA,"i",1,0.5368,0,6,6,8,1,"他人","i",1,1,"2024-08-23_17h11.21.115","IAT(Formal)","2021.2.3","Win32",59.88023952,"",NA,"",NA,NA,NA,NA,NA,NA,NA,"","","",NA,"",NA,NA,NA,NA,NA,NA,"","",NA,"",NA,NA,NA,NA,NA,NA,"",NA,"",NA,NA,NA,NA,NA,NA,NA,"",NA,"",NA,NA,NA,NA,NA,NA,NA,"","","",NA,"",NA,NA,NA,NA,NA,NA,NA,"",NA,"11"
"",NA,"",NA,"e",1,0.5911,0,7,7,1,1,"我的","e",1,1,"2024-08-23_17h11.21.115","IAT(Formal)","2021.2.3","Win32",59.88023952,"",NA,"",NA,NA,NA,NA,NA,NA,NA,"","","",NA,"",NA,NA,NA,NA,NA,NA,"","",NA,"",NA,NA,NA,NA,NA,NA,"",NA,"",NA,NA,NA,NA,NA,NA,NA,"",NA,"",NA,NA,NA,NA,NA,NA,NA,"","","",NA,"",NA,NA,NA,NA,NA,NA,NA,"",NA,"11"
"",NA,"",NA,"i",1,0.512,0,8,8,6,1,"他们","i",1,1,"2024-08-23_17h11.21.115","IAT(Formal)","2021.2.3","Win32",59.88023952,"",NA,"",NA,NA,NA,NA,NA,NA,NA,"","","",NA,"",NA,NA,NA,NA,NA,NA,"","",NA,"",NA,NA,NA,NA,NA,NA,"",NA,"",NA,NA,NA,NA,NA,NA,NA,"",NA,"",NA,NA,NA,NA,NA,NA,NA,"","","",NA,"",NA,NA,NA,NA,NA,NA,NA,"",NA,"11"
"",NA,"",NA,"i",1,0.5585,0,9,9,7,1,"他的","i",1,1,"2024-08-23_17h11.21.115","IAT(Formal)","2021.2.3","Win32",59.88023952,"",NA,"",NA,NA,NA,NA,NA,NA,NA,"","","",NA,"",NA,NA,NA,NA,NA,NA,"","",NA,"",NA,NA,NA,NA,NA,NA,"",NA,"",NA,NA,NA,NA,NA,NA,NA,"",NA,"",NA,NA,NA,NA,NA,NA,NA,"","","",NA,"",NA,NA,NA,NA,NA,NA,NA,"",NA,"11"
"",NA,"",NA,"",NA,NA,NA,NA,NA,NA,NA,"","",1,1,"2024-08-23_17h11.21.115","IAT(Formal)","2021.2.3","Win32",59.88023952,"space",3.079,"e",1,1.3992,0,0,0,12,1,"无私","e","",NA,"",NA,NA,NA,NA,NA,NA,"","",NA,"",NA,NA,NA,NA,NA,NA,"",NA,"",NA,NA,NA,NA,NA,NA,NA,"",NA,"",NA,NA,NA,NA,NA,NA,NA,"","","",NA,"",NA,NA,NA,NA,NA,NA,NA,"",NA,"11"
"",NA,"",NA,"",NA,NA,NA,NA,NA,NA,NA,"","",1,1,"2024-08-23_17h11.21.115","IAT(Formal)","2021.2.3","Win32",59.88023952,"",NA,"e",1,0.6436,0,1,1,17,1,"热情","e","",NA,"",NA,NA,NA,NA,NA,NA,"","",NA,"",NA,NA,NA,NA,NA,NA,"",NA,"",NA,NA,NA,NA,NA,NA,NA,"",NA,"",NA,NA,NA,NA,NA,NA,NA,"","","",NA,"",NA,NA,NA,NA,NA,NA,NA,"",NA,"11"
"",NA,"",NA,"",NA,NA,NA,NA,NA,NA,NA,"","",1,1,"2024-08-23_17h11.21.115","IAT(Formal)","2021.2.3","Win32",59.88023952,"",NA,"i",1,0.5448,0,2,2,38,1,"轻率","i","",NA,"",NA,NA,NA,NA,NA,NA,"","",NA,"",NA,NA,NA,NA,NA,NA,"",NA,"",NA,NA,NA,NA,NA,NA,NA,"",NA,"",NA,NA,NA,NA,NA,NA,NA,"","","",NA,"",NA,NA,NA,NA,NA,NA,NA,"",NA,"11"
"",NA,"",NA,"",NA,NA,NA,NA,NA,NA,NA,"","",1,1,"2024-08-23_17h11.21.115","IAT(Formal)","2021.2.3","Win32",59.88023952,"",NA,"e",1,0.8023,0,3,3,2,1,"聪明","e","",NA,"",NA,NA,NA,NA,NA,NA,"","",NA,"",NA,NA,NA,NA,NA,NA,"",NA,"",NA,NA,NA,NA,NA,NA,NA,"",NA,"",NA,NA,NA,NA,NA,NA,NA,"","","",NA,"",NA,NA,NA,NA,NA,NA,NA,"",NA,"11"
"",NA,"",NA,"",NA,NA,NA,NA,NA,NA,NA,"","",1,1,"2024-08-23_17h11.21.115","IAT(Formal)","2021.2.3","Win32",59.88023952,"",NA,"e",1,0.6856,0,4,4,16,1,"冷静","e","",NA,"",NA,NA,NA,NA,NA,NA,"","",NA,"",NA,NA,NA,NA,NA,NA,"",NA,"",NA,NA,NA,NA,NA,NA,NA,"",NA,"",NA,NA,NA,NA,NA,NA,NA,"","","",NA,"",NA,NA,NA,NA,NA,NA,NA,"",NA,"11"
"",NA,"",NA,"",NA,NA,NA,NA,NA,NA,NA,"","",1,1,"2024-08-23_17h11.21.115","IAT(Formal)","2021.2.3","Win32",59.88023952,"",NA,"i",1,0.5682,0,5,5,22,1,"愚蠢","i","",NA,"",NA,NA,NA,NA,NA,NA,"","",NA,"",NA,NA,NA,NA,NA,NA,"",NA,"",NA,NA,NA,NA,NA,NA,NA,"",NA,"",NA,NA,NA,NA,NA,NA,NA,"","","",NA,"",NA,NA,NA,NA,NA,NA,NA,"",NA,"11"
"",NA,"",NA,"",NA,NA,NA,NA,NA,NA,NA,"","",1,1,"2024-08-23_17h11.21.115","IAT(Formal)","2021.2.3","Win32",59.88023952,"",NA,"i",1,0.748,0,6,6,26,1,"自卑","i","",NA,"",NA,NA,NA,NA,NA,NA,"","",NA,"",NA,NA,NA,NA,NA,NA,"",NA,"",NA,NA,NA,NA,NA,NA,NA,"",NA,"",NA,NA,NA,NA,NA,NA,NA,"","","",NA,"",NA,NA,NA,NA,NA,NA,NA,"",NA,"11"
"",NA,"",NA,"",NA,NA,NA,NA,NA,NA,NA,"","",1,1,"2024-08-23_17h11.21.115","IAT(Formal)","2021.2.3","Win32",59.88023952,"",NA,"e",1,0.7928,0,7,7,18,1,"活泼","e","",NA,"",NA,NA,NA,NA,NA,NA,"","",NA,"",NA,NA,NA,NA,NA,NA,"",NA,"",NA,NA,NA,NA,NA,NA,NA,"",NA,"",NA,NA,NA,NA,NA,NA,NA,"","","",NA,"",NA,NA,NA,NA,NA,NA,NA,"",NA,"11"
"",NA,"",NA,"",NA,NA,NA,NA,NA,NA,NA,"","",1,1,"2024-08-23_17h11.21.115","IAT(Formal)","2021.2.3","Win32",59.88023952,"",NA,"e",0,0.8264,0,8,8,27,1,"傲慢","i","",NA,"",NA,NA,NA,NA,NA,NA,"","",NA,"",NA,NA,NA,NA,NA,NA,"",NA,"",NA,NA,NA,NA,NA,NA,NA,"",NA,"",NA,NA,NA,NA,NA,NA,NA,"","","",NA,"",NA,NA,NA,NA,NA,NA,NA,"",NA,"11"
"",NA,"",NA,"",NA,NA,NA,NA,NA,NA,NA,"","",1,1,"2024-08-23_17h11.21.115","IAT(Formal)","2021.2.3","Win32",59.88023952,"",NA,"i",1,0.6523,0,9,9,35,1,"猖狂","i","",NA,"",NA,NA,NA,NA,NA,NA,"","",NA,"",NA,NA,NA,NA,NA,NA,"",NA,"",NA,NA,NA,NA,NA,NA,NA,"",NA,"",NA,NA,NA,NA,NA,NA,NA,"","","",NA,"",NA,NA,NA,NA,NA,NA,NA,"",NA,"11"
"",NA,"",NA,"",NA,NA,NA,NA,NA,NA,NA,"","",1,1,"2024-08-23_17h11.21.115","IAT(Formal)","2021.2.3","Win32",59.88023952,"",NA,"e",1,0.844,0,10,10,3,1,"杰出","e","",NA,"",NA,NA,NA,NA,NA,NA,"","",NA,"",NA,NA,NA,NA,NA,NA,"",NA,"",NA,NA,NA,NA,NA,NA,NA,"",NA,"",NA,NA,NA,NA,NA,NA,NA,"","","",NA,"",NA,NA,NA,NA,NA,NA,NA,"",NA,"11"
"",NA,"",NA,"",NA,NA,NA,NA,NA,NA,NA,"","",1,1,"2024-08-23_17h11.21.115","IAT(Formal)","2021.2.3","Win32",59.88023952,"",NA,"i",1,0.6695,0,11,11,25,1,"消极","i","",NA,"",NA,NA,NA,NA,NA,NA,"","",NA,"",NA,NA,NA,NA,NA,NA,"",NA,"",NA,NA,NA,NA,NA,NA,NA,"",NA,"",NA,NA,NA,NA,NA,NA,NA,"","","",NA,"",NA,NA,NA,NA,NA,NA,NA,"",NA,"11"
"",NA,"",NA,"",NA,NA,NA,NA,NA,NA,NA,"","",1,1,"2024-08-23_17h11.21.115","IAT(Formal)","2021.2.3","Win32",59.88023952,"",NA,"",0,NA,0,12,12,36,1,"野蛮","i","",NA,"",NA,NA,NA,NA,NA,NA,"","",NA,"",NA,NA,NA,NA,NA,NA,"",NA,"",NA,NA,NA,NA,NA,NA,NA,"",NA,"",NA,NA,NA,NA,NA,NA,NA,"","","",NA,"",NA,NA,NA,NA,NA,NA,NA,"",NA,"11"
"",NA,"",NA,"",NA,NA,NA,NA,NA,NA,NA,"","",1,1,"2024-08-23_17h11.21.115","IAT(Formal)","2021.2.3","Win32",59.88023952,"",NA,"e",1,0.5891,0,13,13,15,1,"细腻","e","",NA,"",NA,NA,NA,NA,NA,NA,"","",NA,"",NA,NA,NA,NA,NA,NA,"",NA,"",NA,NA,NA,NA,NA,NA,NA,"",NA,"",NA,NA,NA,NA,NA,NA,NA,"","","",NA,"",NA,NA,NA,NA,NA,NA,NA,"",NA,"11"
"",NA,"",NA,"",NA,NA,NA,NA,NA,NA,NA,"","",1,1,"2024-08-23_17h11.21.115","IAT(Formal)","2021.2.3","Win32",59.88023952,"",NA,"i",1,0.7181,0,14,14,33,1,"自私","i","",NA,"",NA,NA,NA,NA,NA,NA,"","",NA,"",NA,NA,NA,NA,NA,NA,"",NA,"",NA,NA,NA,NA,NA,NA,NA,"",NA,"",NA,NA,NA,NA,NA,NA,NA,"","","",NA,"",NA,NA,NA,NA,NA,NA,NA,"",NA,"11"
"",NA,"",NA,"",NA,NA,NA,NA,NA,NA,NA,"","",1,1,"2024-08-23_17h11.21.115","IAT(Formal)","2021.2.3","Win32",59.88023952,"",NA,"i",1,0.957,0,15,15,20,1,"卑鄙","i","",NA,"",NA,NA,NA,NA,NA,NA,"","",NA,"",NA,NA,NA,NA,NA,NA,"",NA,"",NA,NA,NA,NA,NA,NA,NA,"",NA,"",NA,NA,NA,NA,NA,NA,NA,"","","",NA,"",NA,NA,NA,NA,NA,NA,NA,"",NA,"11"
"",NA,"",NA,"",NA,NA,NA,NA,NA,NA,NA,"","",1,1,"2024-08-23_17h11.21.115","IAT(Formal)","2021.2.3","Win32",59.88023952,"",NA,"i",1,0.5092,0,16,16,32,1,"凶狠","i","",NA,"",NA,NA,NA,NA,NA,NA,"","",NA,"",NA,NA,NA,NA,NA,NA,"",NA,"",NA,NA,NA,NA,NA,NA,NA,"",NA,"",NA,NA,NA,NA,NA,NA,NA,"","","",NA,"",NA,NA,NA,NA,NA,NA,NA,"",NA,"11"
"",NA,"",NA,"",NA,NA,NA,NA,NA,NA,NA,"","",1,1,"2024-08-23_17h11.21.115","IAT(Formal)","2021.2.3","Win32",59.88023952,"",NA,"i",1,0.5703,0,17,17,37,1,"固执","i","",NA,"",NA,NA,NA,NA,NA,NA,"","",NA,"",NA,NA,NA,NA,NA,NA,"",NA,"",NA,NA,NA,NA,NA,NA,NA,"",NA,"",NA,NA,NA,NA,NA,NA,NA,"","","",NA,"",NA,NA,NA,NA,NA,NA,NA,"",NA,"11"
"",NA,"",NA,"",NA,NA,NA,NA,NA,NA,NA,"","",1,1,"2024-08-23_17h11.21.115","IAT(Formal)","2021.2.3","Win32",59.88023952,"",NA,"e",1,0.6302,0,18,18,5,1,"诚实","e","",NA,"",NA,NA,NA,NA,NA,NA,"","",NA,"",NA,NA,NA,NA,NA,NA,"",NA,"",NA,NA,NA,NA,NA,NA,NA,"",NA,"",NA,NA,NA,NA,NA,NA,NA,"","","",NA,"",NA,NA,NA,NA,NA,NA,NA,"",NA,"11"
"",NA,"",NA,"",NA,NA,NA,NA,NA,NA,NA,"","",1,1,"2024-08-23_17h11.21.115","IAT(Formal)","2021.2.3","Win32",59.88023952,"",NA,"e",1,0.6809,0,19,19,14,1,"朴实","e","",NA,"",NA,NA,NA,NA,NA,NA,"","",NA,"",NA,NA,NA,NA,NA,NA,"",NA,"",NA,NA,NA,NA,NA,NA,NA,"",NA,"",NA,NA,NA,NA,NA,NA,NA,"","","",NA,"",NA,NA,NA,NA,NA,NA,NA,"",NA,"11"
"",NA,"",NA,"",NA,NA,NA,NA,NA,NA,NA,"","",1,1,"2024-08-23_17h11.21.115","IAT(Formal)","2021.2.3","Win32",59.88023952,"",NA,"e",1,0.6961,0,20,20,1,1,"崇高","e","",NA,"",NA,NA,NA,NA,NA,NA,"","",NA,"",NA,NA,NA,NA,NA,NA,"",NA,"",NA,NA,NA,NA,NA,NA,NA,"",NA,"",NA,NA,NA,NA,NA,NA,NA,"","","",NA,"",NA,NA,NA,NA,NA,NA,NA,"",NA,"11"
"",NA,"",NA,"",NA,NA,NA,NA,NA,NA,NA,"","",1,1,"2024-08-23_17h11.21.115","IAT(Formal)","2021.2.3","Win32",59.88023952,"",NA,"e",1,0.5299,0,21,21,6,1,"正直","e","",NA,"",NA,NA,NA,NA,NA,NA,"","",NA,"",NA,NA,NA,NA,NA,NA,"",NA,"",NA,NA,NA,NA,NA,NA,NA,"",NA,"",NA,NA,NA,NA,NA,NA,NA,"","","",NA,"",NA,NA,NA,NA,NA,NA,NA,"",NA,"11"
"",NA,"",NA,"",NA,NA,NA,NA,NA,NA,NA,"","",1,1,"2024-08-23_17h11.21.115","IAT(Formal)","2021.2.3","Win32",59.88023952,"",NA,"e",1,0.5715,0,22,22,10,1,"认真","e","",NA,"",NA,NA,NA,NA,NA,NA,"","",NA,"",NA,NA,NA,NA,NA,NA,"",NA,"",NA,NA,NA,NA,NA,NA,NA,"",NA,"",NA,NA,NA,NA,NA,NA,NA,"","","",NA,"",NA,NA,NA,NA,NA,NA,NA,"",NA,"11"
"",NA,"",NA,"",NA,NA,NA,NA,NA,NA,NA,"","",1,1,"2024-08-23_17h11.21.115","IAT(Formal)","2021.2.3","Win32",59.88023952,"",NA,"e",1,0.5517,0,23,23,8,1,"勤奋","e","",NA,"",NA,NA,NA,NA,NA,NA,"","",NA,"",NA,NA,NA,NA,NA,NA,"",NA,"",NA,NA,NA,NA,NA,NA,NA,"",NA,"",NA,NA,NA,NA,NA,NA,NA,"","","",NA,"",NA,NA,NA,NA,NA,NA,NA,"",NA,"11"
"",NA,"",NA,"",NA,NA,NA,NA,NA,NA,NA,"","",1,1,"2024-08-23_17h11.21.115","IAT(Formal)","2021.2.3","Win32",59.88023952,"",NA,"e",1,0.5144,0,24,24,4,1,"乐观","e","",NA,"",NA,NA,NA,NA,NA,NA,"","",NA,"",NA,NA,NA,NA,NA,NA,"",NA,"",NA,NA,NA,NA,NA,NA,NA,"",NA,"",NA,NA,NA,NA,NA,NA,NA,"","","",NA,"",NA,NA,NA,NA,NA,NA,NA,"",NA,"11"
"",NA,"",NA,"",NA,NA,NA,NA,NA,NA,NA,"","",1,1,"2024-08-23_17h11.21.115","IAT(Formal)","2021.2.3","Win32",59.88023952,"",NA,"i",1,0.696,0,25,25,23,1,"刻薄","i","",NA,"",NA,NA,NA,NA,NA,NA,"","",NA,"",NA,NA,NA,NA,NA,NA,"",NA,"",NA,NA,NA,NA,NA,NA,NA,"",NA,"",NA,NA,NA,NA,NA,NA,NA,"","","",NA,"",NA,NA,NA,NA,NA,NA,NA,"",NA,"11"
"",NA,"",NA,"",NA,NA,NA,NA,NA,NA,NA,"","",1,1,"2024-08-23_17h11.21.115","IAT(Formal)","2021.2.3","Win32",59.88023952,"",NA,"i",1,1.2474,0,26,26,24,1,"悲观","i","",NA,"",NA,NA,NA,NA,NA,NA,"","",NA,"",NA,NA,NA,NA,NA,NA,"",NA,"",NA,NA,NA,NA,NA,NA,NA,"",NA,"",NA,NA,NA,NA,NA,NA,NA,"","","",NA,"",NA,NA,NA,NA,NA,NA,NA,"",NA,"11"
"",NA,"",NA,"",NA,NA,NA,NA,NA,NA,NA,"","",1,1,"2024-08-23_17h11.21.115","IAT(Formal)","2021.2.3","Win32",59.88023952,"",NA,"i",1,0.7478,0,27,27,31,1,"散漫","i","",NA,"",NA,NA,NA,NA,NA,NA,"","",NA,"",NA,NA,NA,NA,NA,NA,"",NA,"",NA,NA,NA,NA,NA,NA,NA,"",NA,"",NA,NA,NA,NA,NA,NA,NA,"","","",NA,"",NA,NA,NA,NA,NA,NA,NA,"",NA,"11"
"",NA,"",NA,"",NA,NA,NA,NA,NA,NA,NA,"","",1,1,"2024-08-23_17h11.21.115","IAT(Formal)","2021.2.3","Win32",59.88023952,"",NA,"i",1,0.9663,0,28,28,30,1,"执拗","i","",NA,"",NA,NA,NA,NA,NA,NA,"","",NA,"",NA,NA,NA,NA,NA,NA,"",NA,"",NA,NA,NA,NA,NA,NA,NA,"",NA,"",NA,NA,NA,NA,NA,NA,NA,"","","",NA,"",NA,NA,NA,NA,NA,NA,NA,"",NA,"11"
"",NA,"",NA,"",NA,NA,NA,NA,NA,NA,NA,"","",1,1,"2024-08-23_17h11.21.115","IAT(Formal)","2021.2.3","Win32",59.88023952,"",NA,"i",1,0.6905,0,29,29,39,1,"下贱","i","",NA,"",NA,NA,NA,NA,NA,NA,"","",NA,"",NA,NA,NA,NA,NA,NA,"",NA,"",NA,NA,NA,NA,NA,NA,NA,"",NA,"",NA,NA,NA,NA,NA,NA,NA,"","","",NA,"",NA,NA,NA,NA,NA,NA,NA,"",NA,"11"
"",NA,"",NA,"",NA,NA,NA,NA,NA,NA,NA,"","",1,1,"2024-08-23_17h11.21.115","IAT(Formal)","2021.2.3","Win32",59.88023952,"",NA,"i",1,0.5634,0,30,30,28,1,"鲁莽","i","",NA,"",NA,NA,NA,NA,NA,NA,"","",NA,"",NA,NA,NA,NA,NA,NA,"",NA,"",NA,NA,NA,NA,NA,NA,NA,"",NA,"",NA,NA,NA,NA,NA,NA,NA,"","","",NA,"",NA,NA,NA,NA,NA,NA,NA,"",NA,"11"
"",NA,"",NA,"",NA,NA,NA,NA,NA,NA,NA,"","",1,1,"2024-08-23_17h11.21.115","IAT(Formal)","2021.2.3","Win32",59.88023952,"",NA,"i",1,0.5488,0,31,31,34,1,"暴躁","i","",NA,"",NA,NA,NA,NA,NA,NA,"","",NA,"",NA,NA,NA,NA,NA,NA,"",NA,"",NA,NA,NA,NA,NA,NA,NA,"",NA,"",NA,NA,NA,NA,NA,NA,NA,"","","",NA,"",NA,NA,NA,NA,NA,NA,NA,"",NA,"11"
"",NA,"",NA,"",NA,NA,NA,NA,NA,NA,NA,"","",1,1,"2024-08-23_17h11.21.115","IAT(Formal)","2021.2.3","Win32",59.88023952,"",NA,"e",1,0.6298,0,32,32,9,1,"机智","e","",NA,"",NA,NA,NA,NA,NA,NA,"","",NA,"",NA,NA,NA,NA,NA,NA,"",NA,"",NA,NA,NA,NA,NA,NA,NA,"",NA,"",NA,NA,NA,NA,NA,NA,NA,"","","",NA,"",NA,NA,NA,NA,NA,NA,NA,"",NA,"11"
"",NA,"",NA,"",NA,NA,NA,NA,NA,NA,NA,"","",1,1,"2024-08-23_17h11.21.115","IAT(Formal)","2021.2.3","Win32",59.88023952,"",NA,"e",1,0.7674,0,33,33,0,1,"优秀","e","",NA,"",NA,NA,NA,NA,NA,NA,"","",NA,"",NA,NA,NA,NA,NA,NA,"",NA,"",NA,NA,NA,NA,NA,NA,NA,"",NA,"",NA,NA,NA,NA,NA,NA,NA,"","","",NA,"",NA,NA,NA,NA,NA,NA,NA,"",NA,"11"
"",NA,"",NA,"",NA,NA,NA,NA,NA,NA,NA,"","",1,1,"2024-08-23_17h11.21.115","IAT(Formal)","2021.2.3","Win32",59.88023952,"",NA,"e",1,0.6034,0,34,34,19,1,"诚恳","e","",NA,"",NA,NA,NA,NA,NA,NA,"","",NA,"",NA,NA,NA,NA,NA,NA,"",NA,"",NA,NA,NA,NA,NA,NA,NA,"",NA,"",NA,NA,NA,NA,NA,NA,NA,"","","",NA,"",NA,NA,NA,NA,NA,NA,NA,"",NA,"11"
"",NA,"",NA,"",NA,NA,NA,NA,NA,NA,NA,"","",1,1,"2024-08-23_17h11.21.115","IAT(Formal)","2021.2.3","Win32",59.88023952,"",NA,"i",1,0.6369,0,35,35,29,1,"冒失","i","",NA,"",NA,NA,NA,NA,NA,NA,"","",NA,"",NA,NA,NA,NA,NA,NA,"",NA,"",NA,NA,NA,NA,NA,NA,NA,"",NA,"",NA,NA,NA,NA,NA,NA,NA,"","","",NA,"",NA,NA,NA,NA,NA,NA,NA,"",NA,"11"
"",NA,"",NA,"",NA,NA,NA,NA,NA,NA,NA,"","",1,1,"2024-08-23_17h11.21.115","IAT(Formal)","2021.2.3","Win32",59.88023952,"",NA,"e",1,0.8572,0,36,36,11,1,"稳重","e","",NA,"",NA,NA,NA,NA,NA,NA,"","",NA,"",NA,NA,NA,NA,NA,NA,"",NA,"",NA,NA,NA,NA,NA,NA,NA,"",NA,"",NA,NA,NA,NA,NA,NA,NA,"","","",NA,"",NA,NA,NA,NA,NA,NA,NA,"",NA,"11"
"",NA,"",NA,"",NA,NA,NA,NA,NA,NA,NA,"","",1,1,"2024-08-23_17h11.21.115","IAT(Formal)","2021.2.3","Win32",59.88023952,"",NA,"e",1,0.8959,0,37,37,13,1,"公正","e","",NA,"",NA,NA,NA,NA,NA,NA,"","",NA,"",NA,NA,NA,NA,NA,NA,"",NA,"",NA,NA,NA,NA,NA,NA,NA,"",NA,"",NA,NA,NA,NA,NA,NA,NA,"","","",NA,"",NA,NA,NA,NA,NA,NA,NA,"",NA,"11"
"",NA,"",NA,"",NA,NA,NA,NA,NA,NA,NA,"","",1,1,"2024-08-23_17h11.21.115","IAT(Formal)","2021.2.3","Win32",59.88023952,"",NA,"e",1,0.6094,0,38,38,7,1,"勇敢","e","",NA,"",NA,NA,NA,NA,NA,NA,"","",NA,"",NA,NA,NA,NA,NA,NA,"",NA,"",NA,NA,NA,NA,NA,NA,NA,"",NA,"",NA,NA,NA,NA,NA,NA,NA,"","","",NA,"",NA,NA,NA,NA,NA,NA,NA,"",NA,"11"
"",NA,"",NA,"",NA,NA,NA,NA,NA,NA,NA,"","",1,1,"2024-08-23_17h11.21.115","IAT(Formal)","2021.2.3","Win32",59.88023952,"",NA,"i",1,0.5874,0,39,39,21,1,"虚伪","i","",NA,"",NA,NA,NA,NA,NA,NA,"","",NA,"",NA,NA,NA,NA,NA,NA,"",NA,"",NA,NA,NA,NA,NA,NA,NA,"",NA,"",NA,NA,NA,NA,NA,NA,NA,"","","",NA,"",NA,NA,NA,NA,NA,NA,NA,"",NA,"11"
"",NA,"",NA,"",NA,NA,NA,NA,NA,NA,NA,"","",1,1,"2024-08-23_17h11.21.115","IAT(Formal)","2021.2.3","Win32",59.88023952,"",NA,"",NA,NA,NA,NA,NA,NA,NA,"","","space",11.0105,"",0,0,0,0,47,1,"固执","i",NA,"",NA,NA,NA,NA,NA,NA,"",NA,"",NA,NA,NA,NA,NA,NA,NA,"",NA,"",NA,NA,NA,NA,NA,NA,NA,"","","",NA,"",NA,NA,NA,NA,NA,NA,NA,"",NA,"11"
"",NA,"",NA,"",NA,NA,NA,NA,NA,NA,NA,"","",1,1,"2024-08-23_17h11.21.115","IAT(Formal)","2021.2.3","Win32",59.88023952,"",NA,"",NA,NA,NA,NA,NA,NA,NA,"","","",NA,"i",1,0,1,1,40,1,"执拗","i",0.6927,"",NA,NA,NA,NA,NA,NA,"",NA,"",NA,NA,NA,NA,NA,NA,NA,"",NA,"",NA,NA,NA,NA,NA,NA,NA,"","","",NA,"",NA,NA,NA,NA,NA,NA,NA,"",NA,"11"
"",NA,"",NA,"",NA,NA,NA,NA,NA,NA,NA,"","",1,1,"2024-08-23_17h11.21.115","IAT(Formal)","2021.2.3","Win32",59.88023952,"",NA,"",NA,NA,NA,NA,NA,NA,NA,"","","",NA,"i",1,0,2,2,32,1,"愚蠢","i",1.2129,"",NA,NA,NA,NA,NA,NA,"",NA,"",NA,NA,NA,NA,NA,NA,NA,"",NA,"",NA,NA,NA,NA,NA,NA,NA,"","","",NA,"",NA,NA,NA,NA,NA,NA,NA,"",NA,"11"
"",NA,"",NA,"",NA,NA,NA,NA,NA,NA,NA,"","",1,1,"2024-08-23_17h11.21.115","IAT(Formal)","2021.2.3","Win32",59.88023952,"",NA,"",NA,NA,NA,NA,NA,NA,NA,"","","",NA,"e",1,0,3,3,0,1,"我","e",1.1433,"",NA,NA,NA,NA,NA,NA,"",NA,"",NA,NA,NA,NA,NA,NA,NA,"",NA,"",NA,NA,NA,NA,NA,NA,NA,"","","",NA,"",NA,NA,NA,NA,NA,NA,NA,"",NA,"11"
"",NA,"",NA,"",NA,NA,NA,NA,NA,NA,NA,"","",1,1,"2024-08-23_17h11.21.115","IAT(Formal)","2021.2.3","Win32",59.88023952,"",NA,"",NA,NA,NA,NA,NA,NA,NA,"","","",NA,"i",1,0,4,4,36,1,"自卑","i",0.808,"",NA,NA,NA,NA,NA,NA,"",NA,"",NA,NA,NA,NA,NA,NA,NA,"",NA,"",NA,NA,NA,NA,NA,NA,NA,"","","",NA,"",NA,NA,NA,NA,NA,NA,NA,"",NA,"11"
"",NA,"",NA,"",NA,NA,NA,NA,NA,NA,NA,"","",1,1,"2024-08-23_17h11.21.115","IAT(Formal)","2021.2.3","Win32",59.88023952,"",NA,"",NA,NA,NA,NA,NA,NA,NA,"","","",NA,"i",1,0,5,5,42,1,"凶狠","i",0.7298,"",NA,NA,NA,NA,NA,NA,"",NA,"",NA,NA,NA,NA,NA,NA,NA,"",NA,"",NA,NA,NA,NA,NA,NA,NA,"","","",NA,"",NA,NA,NA,NA,NA,NA,NA,"",NA,"11"
"",NA,"",NA,"",NA,NA,NA,NA,NA,NA,NA,"","",1,1,"2024-08-23_17h11.21.115","IAT(Formal)","2021.2.3","Win32",59.88023952,"",NA,"",NA,NA,NA,NA,NA,NA,NA,"","","",NA,"i",0,0,6,6,13,1,"杰出","e",1.0349,"",NA,NA,NA,NA,NA,NA,"",NA,"",NA,NA,NA,NA,NA,NA,NA,"",NA,"",NA,NA,NA,NA,NA,NA,NA,"","","",NA,"",NA,NA,NA,NA,NA,NA,NA,"",NA,"11"
"",NA,"",NA,"",NA,NA,NA,NA,NA,NA,NA,"","",1,1,"2024-08-23_17h11.21.115","IAT(Formal)","2021.2.3","Win32",59.88023952,"",NA,"",NA,NA,NA,NA,NA,NA,NA,"","","",NA,"i",1,0,7,7,31,1,"虚伪","i",0.7215,"",NA,NA,NA,NA,NA,NA,"",NA,"",NA,NA,NA,NA,NA,NA,NA,"",NA,"",NA,NA,NA,NA,NA,NA,NA,"","","",NA,"",NA,NA,NA,NA,NA,NA,NA,"",NA,"11"
"",NA,"",NA,"",NA,NA,NA,NA,NA,NA,NA,"","",1,1,"2024-08-23_17h11.21.115","IAT(Formal)","2021.2.3","Win32",59.88023952,"",NA,"",NA,NA,NA,NA,NA,NA,NA,"","","",NA,"i",1,0,8,8,49,1,"下贱","i",0.6276,"",NA,NA,NA,NA,NA,NA,"",NA,"",NA,NA,NA,NA,NA,NA,NA,"",NA,"",NA,NA,NA,NA,NA,NA,NA,"","","",NA,"",NA,NA,NA,NA,NA,NA,NA,"",NA,"11"
"",NA,"",NA,"",NA,NA,NA,NA,NA,NA,NA,"","",1,1,"2024-08-23_17h11.21.115","IAT(Formal)","2021.2.3","Win32",59.88023952,"",NA,"",NA,NA,NA,NA,NA,NA,NA,"","","",NA,"e",1,0,9,9,74,1,"俺","e",0.5111,"",NA,NA,NA,NA,NA,NA,"",NA,"",NA,NA,NA,NA,NA,NA,NA,"",NA,"",NA,NA,NA,NA,NA,NA,NA,"","","",NA,"",NA,NA,NA,NA,NA,NA,NA,"",NA,"11"
"",NA,"",NA,"",NA,NA,NA,NA,NA,NA,NA,"","",1,1,"2024-08-23_17h11.21.115","IAT(Formal)","2021.2.3","Win32",59.88023952,"",NA,"",NA,NA,NA,NA,NA,NA,NA,"","","",NA,"e",1,0,10,10,22,1,"无私","e",0.784,"",NA,NA,NA,NA,NA,NA,"",NA,"",NA,NA,NA,NA,NA,NA,NA,"",NA,"",NA,NA,NA,NA,NA,NA,NA,"","","",NA,"",NA,NA,NA,NA,NA,NA,NA,"",NA,"11"
"",NA,"",NA,"",NA,NA,NA,NA,NA,NA,NA,"","",1,1,"2024-08-23_17h11.21.115","IAT(Formal)","2021.2.3","Win32",59.88023952,"",NA,"",NA,NA,NA,NA,NA,NA,NA,"","","",NA,"e",1,0,11,11,71,1,"我的","e",0.4521,"",NA,NA,NA,NA,NA,NA,"",NA,"",NA,NA,NA,NA,NA,NA,NA,"",NA,"",NA,NA,NA,NA,NA,NA,NA,"","","",NA,"",NA,NA,NA,NA,NA,NA,NA,"",NA,"11"
"",NA,"",NA,"",NA,NA,NA,NA,NA,NA,NA,"","",1,1,"2024-08-23_17h11.21.115","IAT(Formal)","2021.2.3","Win32",59.88023952,"",NA,"",NA,NA,NA,NA,NA,NA,NA,"","","",NA,"e",1,0,12,12,23,1,"公正","e",0.5866,"",NA,NA,NA,NA,NA,NA,"",NA,"",NA,NA,NA,NA,NA,NA,NA,"",NA,"",NA,NA,NA,NA,NA,NA,NA,"","","",NA,"",NA,NA,NA,NA,NA,NA,NA,"",NA,"11"
"",NA,"",NA,"",NA,NA,NA,NA,NA,NA,NA,"","",1,1,"2024-08-23_17h11.21.115","IAT(Formal)","2021.2.3","Win32",59.88023952,"",NA,"",NA,NA,NA,NA,NA,NA,NA,"","","",NA,"i",1,0,13,13,67,1,"他的","i",0.5811,"",NA,NA,NA,NA,NA,NA,"",NA,"",NA,NA,NA,NA,NA,NA,NA,"",NA,"",NA,NA,NA,NA,NA,NA,NA,"","","",NA,"",NA,NA,NA,NA,NA,NA,NA,"",NA,"11"
"",NA,"",NA,"",NA,NA,NA,NA,NA,NA,NA,"","",1,1,"2024-08-23_17h11.21.115","IAT(Formal)","2021.2.3","Win32",59.88023952,"",NA,"",NA,NA,NA,NA,NA,NA,NA,"","","",NA,"e",1,0,14,14,70,1,"我","e",0.5932,"",NA,NA,NA,NA,NA,NA,"",NA,"",NA,NA,NA,NA,NA,NA,NA,"",NA,"",NA,NA,NA,NA,NA,NA,NA,"","","",NA,"",NA,NA,NA,NA,NA,NA,NA,"",NA,"11"
"",NA,"",NA,"",NA,NA,NA,NA,NA,NA,NA,"","",1,1,"2024-08-23_17h11.21.115","IAT(Formal)","2021.2.3","Win32",59.88023952,"",NA,"",NA,NA,NA,NA,NA,NA,NA,"","","",NA,"i",1,0,15,15,76,1,"他们","i",0.6744,"",NA,NA,NA,NA,NA,NA,"",NA,"",NA,NA,NA,NA,NA,NA,NA,"",NA,"",NA,NA,NA,NA,NA,NA,NA,"","","",NA,"",NA,NA,NA,NA,NA,NA,NA,"",NA,"11"
"",NA,"",NA,"",NA,NA,NA,NA,NA,NA,NA,"","",1,1,"2024-08-23_17h11.21.115","IAT(Formal)","2021.2.3","Win32",59.88023952,"",NA,"",NA,NA,NA,NA,NA,NA,NA,"","","",NA,"i",1,0,16,16,39,1,"冒失","i",0.8146,"",NA,NA,NA,NA,NA,NA,"",NA,"",NA,NA,NA,NA,NA,NA,NA,"",NA,"",NA,NA,NA,NA,NA,NA,NA,"","","",NA,"",NA,NA,NA,NA,NA,NA,NA,"",NA,"11"
"",NA,"",NA,"",NA,NA,NA,NA,NA,NA,NA,"","",1,1,"2024-08-23_17h11.21.115","IAT(Formal)","2021.2.3","Win32",59.88023952,"",NA,"",NA,NA,NA,NA,NA,NA,NA,"","","",NA,"i",1,0,17,17,58,1,"他人","i",0.554,"",NA,NA,NA,NA,NA,NA,"",NA,"",NA,NA,NA,NA,NA,NA,NA,"",NA,"",NA,NA,NA,NA,NA,NA,NA,"","","",NA,"",NA,NA,NA,NA,NA,NA,NA,"",NA,"11"
"",NA,"",NA,"",NA,NA,NA,NA,NA,NA,NA,"","",1,1,"2024-08-23_17h11.21.115","IAT(Formal)","2021.2.3","Win32",59.88023952,"",NA,"",NA,NA,NA,NA,NA,NA,NA,"","","",NA,"e",1,0,18,18,1,1,"我的","e",0.5737,"",NA,NA,NA,NA,NA,NA,"",NA,"",NA,NA,NA,NA,NA,NA,NA,"",NA,"",NA,NA,NA,NA,NA,NA,NA,"","","",NA,"",NA,NA,NA,NA,NA,NA,NA,"",NA,"11"
"",NA,"",NA,"",NA,NA,NA,NA,NA,NA,NA,"","",1,1,"2024-08-23_17h11.21.115","IAT(Formal)","2021.2.3","Win32",59.88023952,"",NA,"",NA,NA,NA,NA,NA,NA,NA,"","","",NA,"i",1,0,19,19,45,1,"猖狂","i",0.5174,"",NA,NA,NA,NA,NA,NA,"",NA,"",NA,NA,NA,NA,NA,NA,NA,"",NA,"",NA,NA,NA,NA,NA,NA,NA,"","","",NA,"",NA,NA,NA,NA,NA,NA,NA,"",NA,"11"
"",NA,"",NA,"",NA,NA,NA,NA,NA,NA,NA,"","",1,1,"2024-08-23_17h11.21.115","IAT(Formal)","2021.2.3","Win32",59.88023952,"",NA,"",NA,NA,NA,NA,NA,NA,NA,"","","",NA,"i",1,0,20,20,55,1,"他","i",0.8368,"",NA,NA,NA,NA,NA,NA,"",NA,"",NA,NA,NA,NA,NA,NA,NA,"",NA,"",NA,NA,NA,NA,NA,NA,NA,"","","",NA,"",NA,NA,NA,NA,NA,NA,NA,"",NA,"11"
"",NA,"",NA,"",NA,NA,NA,NA,NA,NA,NA,"","",1,1,"2024-08-23_17h11.21.115","IAT(Formal)","2021.2.3","Win32",59.88023952,"",NA,"",NA,NA,NA,NA,NA,NA,NA,"","","",NA,"e",1,0,21,21,2,1,"我们","e",0.8015,"",NA,NA,NA,NA,NA,NA,"",NA,"",NA,NA,NA,NA,NA,NA,NA,"",NA,"",NA,NA,NA,NA,NA,NA,NA,"","","",NA,"",NA,NA,NA,NA,NA,NA,NA,"",NA,"11"
"",NA,"",NA,"",NA,NA,NA,NA,NA,NA,NA,"","",1,1,"2024-08-23_17h11.21.115","IAT(Formal)","2021.2.3","Win32",59.88023952,"",NA,"",NA,NA,NA,NA,NA,NA,NA,"","","",NA,"e",1,0,22,22,3,1,"自己","e",0.5899,"",NA,NA,NA,NA,NA,NA,"",NA,"",NA,NA,NA,NA,NA,NA,NA,"",NA,"",NA,NA,NA,NA,NA,NA,NA,"","","",NA,"",NA,NA,NA,NA,NA,NA,NA,"",NA,"11"
"",NA,"",NA,"",NA,NA,NA,NA,NA,NA,NA,"","",1,1,"2024-08-23_17h11.21.115","IAT(Formal)","2021.2.3","Win32",59.88023952,"",NA,"",NA,NA,NA,NA,NA,NA,NA,"","","",NA,"e",1,0,23,23,24,1,"朴实","e",0.6831,"",NA,NA,NA,NA,NA,NA,"",NA,"",NA,NA,NA,NA,NA,NA,NA,"",NA,"",NA,NA,NA,NA,NA,NA,NA,"","","",NA,"",NA,NA,NA,NA,NA,NA,NA,"",NA,"11"
"",NA,"",NA,"",NA,NA,NA,NA,NA,NA,NA,"","",1,1,"2024-08-23_17h11.21.115","IAT(Formal)","2021.2.3","Win32",59.88023952,"",NA,"",NA,NA,NA,NA,NA,NA,NA,"","","",NA,"i",1,0,24,24,30,1,"卑鄙","i",0.9291,"",NA,NA,NA,NA,NA,NA,"",NA,"",NA,NA,NA,NA,NA,NA,NA,"",NA,"",NA,NA,NA,NA,NA,NA,NA,"","","",NA,"",NA,NA,NA,NA,NA,NA,NA,"",NA,"11"
"",NA,"",NA,"",NA,NA,NA,NA,NA,NA,NA,"","",1,1,"2024-08-23_17h11.21.115","IAT(Formal)","2021.2.3","Win32",59.88023952,"",NA,"",NA,NA,NA,NA,NA,NA,NA,"","","",NA,"",0,0,25,25,4,1,"俺","e",NA,"",NA,NA,NA,NA,NA,NA,"",NA,"",NA,NA,NA,NA,NA,NA,NA,"",NA,"",NA,NA,NA,NA,NA,NA,NA,"","","",NA,"",NA,NA,NA,NA,NA,NA,NA,"",NA,"11"
"",NA,"",NA,"",NA,NA,NA,NA,NA,NA,NA,"","",1,1,"2024-08-23_17h11.21.115","IAT(Formal)","2021.2.3","Win32",59.88023952,"",NA,"",NA,NA,NA,NA,NA,NA,NA,"","","",NA,"i",1,0,26,26,9,1,"其他","i",0.6106,"",NA,NA,NA,NA,NA,NA,"",NA,"",NA,NA,NA,NA,NA,NA,NA,"",NA,"",NA,NA,NA,NA,NA,NA,NA,"","","",NA,"",NA,NA,NA,NA,NA,NA,NA,"",NA,"11"
"",NA,"",NA,"",NA,NA,NA,NA,NA,NA,NA,"","",1,1,"2024-08-23_17h11.21.115","IAT(Formal)","2021.2.3","Win32",59.88023952,"",NA,"",NA,NA,NA,NA,NA,NA,NA,"","","",NA,"i",1,0,27,27,37,1,"傲慢","i",0.9112,"",NA,NA,NA,NA,NA,NA,"",NA,"",NA,NA,NA,NA,NA,NA,NA,"",NA,"",NA,NA,NA,NA,NA,NA,NA,"","","",NA,"",NA,NA,NA,NA,NA,NA,NA,"",NA,"11"
"",NA,"",NA,"",NA,NA,NA,NA,NA,NA,NA,"","",1,1,"2024-08-23_17h11.21.115","IAT(Formal)","2021.2.3","Win32",59.88023952,"",NA,"",NA,NA,NA,NA,NA,NA,NA,"","","",NA,"i",1,0,28,28,78,1,"他人","i",0.769,"",NA,NA,NA,NA,NA,NA,"",NA,"",NA,NA,NA,NA,NA,NA,NA,"",NA,"",NA,NA,NA,NA,NA,NA,NA,"","","",NA,"",NA,NA,NA,NA,NA,NA,NA,"",NA,"11"
"",NA,"",NA,"",NA,NA,NA,NA,NA,NA,NA,"","",1,1,"2024-08-23_17h11.21.115","IAT(Formal)","2021.2.3","Win32",59.88023952,"",NA,"",NA,NA,NA,NA,NA,NA,NA,"","","",NA,"e",1,0,29,29,54,1,"俺","e",0.5768,"",NA,NA,NA,NA,NA,NA,"",NA,"",NA,NA,NA,NA,NA,NA,NA,"",NA,"",NA,NA,NA,NA,NA,NA,NA,"","","",NA,"",NA,NA,NA,NA,NA,NA,NA,"",NA,"11"
"",NA,"",NA,"",NA,NA,NA,NA,NA,NA,NA,"","",1,1,"2024-08-23_17h11.21.115","IAT(Formal)","2021.2.3","Win32",59.88023952,"",NA,"",NA,NA,NA,NA,NA,NA,NA,"","","",NA,"i",1,0,30,30,6,1,"他们","i",0.6853,"",NA,NA,NA,NA,NA,NA,"",NA,"",NA,NA,NA,NA,NA,NA,NA,"",NA,"",NA,NA,NA,NA,NA,NA,NA,"","","",NA,"",NA,NA,NA,NA,NA,NA,NA,"",NA,"11"
"",NA,"",NA,"",NA,NA,NA,NA,NA,NA,NA,"","",1,1,"2024-08-23_17h11.21.115","IAT(Formal)","2021.2.3","Win32",59.88023952,"",NA,"",NA,NA,NA,NA,NA,NA,NA,"","","",NA,"e",0,0,31,31,34,1,"悲观","i",0.7218,"",NA,NA,NA,NA,NA,NA,"",NA,"",NA,NA,NA,NA,NA,NA,NA,"",NA,"",NA,NA,NA,NA,NA,NA,NA,"","","",NA,"",NA,NA,NA,NA,NA,NA,NA,"",NA,"11"
"",NA,"",NA,"",NA,NA,NA,NA,NA,NA,NA,"","",1,1,"2024-08-23_17h11.21.115","IAT(Formal)","2021.2.3","Win32",59.88023952,"",NA,"",NA,NA,NA,NA,NA,NA,NA,"","","",NA,"e",1,0,32,32,29,1,"诚恳","e",0.6672,"",NA,NA,NA,NA,NA,NA,"",NA,"",NA,NA,NA,NA,NA,NA,NA,"",NA,"",NA,NA,NA,NA,NA,NA,NA,"","","",NA,"",NA,NA,NA,NA,NA,NA,NA,"",NA,"11"
"",NA,"",NA,"",NA,NA,NA,NA,NA,NA,NA,"","",1,1,"2024-08-23_17h11.21.115","IAT(Formal)","2021.2.3","Win32",59.88023952,"",NA,"",NA,NA,NA,NA,NA,NA,NA,"","","",NA,"i",1,0,33,33,59,1,"其他","i",0.6148,"",NA,NA,NA,NA,NA,NA,"",NA,"",NA,NA,NA,NA,NA,NA,NA,"",NA,"",NA,NA,NA,NA,NA,NA,NA,"","","",NA,"",NA,NA,NA,NA,NA,NA,NA,"",NA,"11"
"",NA,"",NA,"",NA,NA,NA,NA,NA,NA,NA,"","",1,1,"2024-08-23_17h11.21.115","IAT(Formal)","2021.2.3","Win32",59.88023952,"",NA,"",NA,NA,NA,NA,NA,NA,NA,"","","",NA,"i",1,0,34,34,69,1,"其他","i",0.6504,"",NA,NA,NA,NA,NA,NA,"",NA,"",NA,NA,NA,NA,NA,NA,NA,"",NA,"",NA,NA,NA,NA,NA,NA,NA,"","","",NA,"",NA,NA,NA,NA,NA,NA,NA,"",NA,"11"
"",NA,"",NA,"",NA,NA,NA,NA,NA,NA,NA,"","",1,1,"2024-08-23_17h11.21.115","IAT(Formal)","2021.2.3","Win32",59.88023952,"",NA,"",NA,NA,NA,NA,NA,NA,NA,"","","",NA,"e",1,0,35,35,25,1,"细腻","e",0.7886,"",NA,NA,NA,NA,NA,NA,"",NA,"",NA,NA,NA,NA,NA,NA,NA,"",NA,"",NA,NA,NA,NA,NA,NA,NA,"","","",NA,"",NA,NA,NA,NA,NA,NA,NA,"",NA,"11"
"",NA,"",NA,"",NA,NA,NA,NA,NA,NA,NA,"","",1,1,"2024-08-23_17h11.21.115","IAT(Formal)","2021.2.3","Win32",59.88023952,"",NA,"",NA,NA,NA,NA,NA,NA,NA,"","","",NA,"e",0,0,36,36,43,1,"自私","i",0.9713,"",NA,NA,NA,NA,NA,NA,"",NA,"",NA,NA,NA,NA,NA,NA,NA,"",NA,"",NA,NA,NA,NA,NA,NA,NA,"","","",NA,"",NA,NA,NA,NA,NA,NA,NA,"",NA,"11"
"",NA,"",NA,"",NA,NA,NA,NA,NA,NA,NA,"","",1,1,"2024-08-23_17h11.21.115","IAT(Formal)","2021.2.3","Win32",59.88023952,"",NA,"",NA,NA,NA,NA,NA,NA,NA,"","","",NA,"e",1,0,37,37,21,1,"稳重","e",0.7584,"",NA,NA,NA,NA,NA,NA,"",NA,"",NA,NA,NA,NA,NA,NA,NA,"",NA,"",NA,NA,NA,NA,NA,NA,NA,"","","",NA,"",NA,NA,NA,NA,NA,NA,NA,"",NA,"11"
"",NA,"",NA,"",NA,NA,NA,NA,NA,NA,NA,"","",1,1,"2024-08-23_17h11.21.115","IAT(Formal)","2021.2.3","Win32",59.88023952,"",NA,"",NA,NA,NA,NA,NA,NA,NA,"","","",NA,"i",1,0,38,38,68,1,"他人","i",0.6456,"",NA,NA,NA,NA,NA,NA,"",NA,"",NA,NA,NA,NA,NA,NA,NA,"",NA,"",NA,NA,NA,NA,NA,NA,NA,"","","",NA,"",NA,NA,NA,NA,NA,NA,NA,"",NA,"11"
"",NA,"",NA,"",NA,NA,NA,NA,NA,NA,NA,"","",1,1,"2024-08-23_17h11.21.115","IAT(Formal)","2021.2.3","Win32",59.88023952,"",NA,"",NA,NA,NA,NA,NA,NA,NA,"","","",NA,"e",1,0,39,39,16,1,"正直","e",0.6995,"",NA,NA,NA,NA,NA,NA,"",NA,"",NA,NA,NA,NA,NA,NA,NA,"",NA,"",NA,NA,NA,NA,NA,NA,NA,"","","",NA,"",NA,NA,NA,NA,NA,NA,NA,"",NA,"11"
"",NA,"",NA,"",NA,NA,NA,NA,NA,NA,NA,"","",1,1,"2024-08-23_17h11.21.115","IAT(Formal)","2021.2.3","Win32",59.88023952,"",NA,"",NA,NA,NA,NA,NA,NA,NA,"","","",NA,"e",1,0,40,40,51,1,"我的","e",0.8132,"",NA,NA,NA,NA,NA,NA,"",NA,"",NA,NA,NA,NA,NA,NA,NA,"",NA,"",NA,NA,NA,NA,NA,NA,NA,"","","",NA,"",NA,NA,NA,NA,NA,NA,NA,"",NA,"11"
"",NA,"",NA,"",NA,NA,NA,NA,NA,NA,NA,"","",1,1,"2024-08-23_17h11.21.115","IAT(Formal)","2021.2.3","Win32",59.88023952,"",NA,"",NA,NA,NA,NA,NA,NA,NA,"","","",NA,"i",1,0,41,41,41,1,"散漫","i",0.9946,"",NA,NA,NA,NA,NA,NA,"",NA,"",NA,NA,NA,NA,NA,NA,NA,"",NA,"",NA,NA,NA,NA,NA,NA,NA,"","","",NA,"",NA,NA,NA,NA,NA,NA,NA,"",NA,"11"
"",NA,"",NA,"",NA,NA,NA,NA,NA,NA,NA,"","",1,1,"2024-08-23_17h11.21.115","IAT(Formal)","2021.2.3","Win32",59.88023952,"",NA,"",NA,NA,NA,NA,NA,NA,NA,"","","",NA,"e",1,0,42,42,53,1,"自己","e",0.617,"",NA,NA,NA,NA,NA,NA,"",NA,"",NA,NA,NA,NA,NA,NA,NA,"",NA,"",NA,NA,NA,NA,NA,NA,NA,"","","",NA,"",NA,NA,NA,NA,NA,NA,NA,"",NA,"11"
"",NA,"",NA,"",NA,NA,NA,NA,NA,NA,NA,"","",1,1,"2024-08-23_17h11.21.115","IAT(Formal)","2021.2.3","Win32",59.88023952,"",NA,"",NA,NA,NA,NA,NA,NA,NA,"","","",NA,"i",0,0,43,43,12,1,"聪明","e",0.6419,"",NA,NA,NA,NA,NA,NA,"",NA,"",NA,NA,NA,NA,NA,NA,NA,"",NA,"",NA,NA,NA,NA,NA,NA,NA,"","","",NA,"",NA,NA,NA,NA,NA,NA,NA,"",NA,"11"
"",NA,"",NA,"",NA,NA,NA,NA,NA,NA,NA,"","",1,1,"2024-08-23_17h11.21.115","IAT(Formal)","2021.2.3","Win32",59.88023952,"",NA,"",NA,NA,NA,NA,NA,NA,NA,"","","",NA,"i",1,0,44,44,35,1,"消极","i",0.5979,"",NA,NA,NA,NA,NA,NA,"",NA,"",NA,NA,NA,NA,NA,NA,NA,"",NA,"",NA,NA,NA,NA,NA,NA,NA,"","","",NA,"",NA,NA,NA,NA,NA,NA,NA,"",NA,"11"
"",NA,"",NA,"",NA,NA,NA,NA,NA,NA,NA,"","",1,1,"2024-08-23_17h11.21.115","IAT(Formal)","2021.2.3","Win32",59.88023952,"",NA,"",NA,NA,NA,NA,NA,NA,NA,"","","",NA,"i",1,0,45,45,65,1,"他","i",0.6889,"",NA,NA,NA,NA,NA,NA,"",NA,"",NA,NA,NA,NA,NA,NA,NA,"",NA,"",NA,NA,NA,NA,NA,NA,NA,"","","",NA,"",NA,NA,NA,NA,NA,NA,NA,"",NA,"11"
"",NA,"",NA,"",NA,NA,NA,NA,NA,NA,NA,"","",1,1,"2024-08-23_17h11.21.115","IAT(Formal)","2021.2.3","Win32",59.88023952,"",NA,"",NA,NA,NA,NA,NA,NA,NA,"","","",NA,"e",1,0,46,46,73,1,"自己","e",0.7034,"",NA,NA,NA,NA,NA,NA,"",NA,"",NA,NA,NA,NA,NA,NA,NA,"",NA,"",NA,NA,NA,NA,NA,NA,NA,"","","",NA,"",NA,NA,NA,NA,NA,NA,NA,"",NA,"11"
"",NA,"",NA,"",NA,NA,NA,NA,NA,NA,NA,"","",1,1,"2024-08-23_17h11.21.115","IAT(Formal)","2021.2.3","Win32",59.88023952,"",NA,"",NA,NA,NA,NA,NA,NA,NA,"","","",NA,"i",1,0,47,47,7,1,"他的","i",1.065,"",NA,NA,NA,NA,NA,NA,"",NA,"",NA,NA,NA,NA,NA,NA,NA,"",NA,"",NA,NA,NA,NA,NA,NA,NA,"","","",NA,"",NA,NA,NA,NA,NA,NA,NA,"",NA,"11"
"",NA,"",NA,"",NA,NA,NA,NA,NA,NA,NA,"","",1,1,"2024-08-23_17h11.21.115","IAT(Formal)","2021.2.3","Win32",59.88023952,"",NA,"",NA,NA,NA,NA,NA,NA,NA,"","","",NA,"e",1,0,48,48,50,1,"我","e",0.6684,"",NA,NA,NA,NA,NA,NA,"",NA,"",NA,NA,NA,NA,NA,NA,NA,"",NA,"",NA,NA,NA,NA,NA,NA,NA,"","","",NA,"",NA,NA,NA,NA,NA,NA,NA,"",NA,"11"
"",NA,"",NA,"",NA,NA,NA,NA,NA,NA,NA,"","",1,1,"2024-08-23_17h11.21.115","IAT(Formal)","2021.2.3","Win32",59.88023952,"",NA,"",NA,NA,NA,NA,NA,NA,NA,"","","",NA,"i",1,0,49,49,5,1,"他","i",0.6089,"",NA,NA,NA,NA,NA,NA,"",NA,"",NA,NA,NA,NA,NA,NA,NA,"",NA,"",NA,NA,NA,NA,NA,NA,NA,"","","",NA,"",NA,NA,NA,NA,NA,NA,NA,"",NA,"11"
"",NA,"",NA,"",NA,NA,NA,NA,NA,NA,NA,"","",1,1,"2024-08-23_17h11.21.115","IAT(Formal)","2021.2.3","Win32",59.88023952,"",NA,"",NA,NA,NA,NA,NA,NA,NA,"","","",NA,"e",0,0,50,50,48,1,"轻率","i",0.7759,"",NA,NA,NA,NA,NA,NA,"",NA,"",NA,NA,NA,NA,NA,NA,NA,"",NA,"",NA,NA,NA,NA,NA,NA,NA,"","","",NA,"",NA,NA,NA,NA,NA,NA,NA,"",NA,"11"
"",NA,"",NA,"",NA,NA,NA,NA,NA,NA,NA,"","",1,1,"2024-08-23_17h11.21.115","IAT(Formal)","2021.2.3","Win32",59.88023952,"",NA,"",NA,NA,NA,NA,NA,NA,NA,"","","",NA,"i",1,0,51,51,66,1,"他们","i",0.6985,"",NA,NA,NA,NA,NA,NA,"",NA,"",NA,NA,NA,NA,NA,NA,NA,"",NA,"",NA,NA,NA,NA,NA,NA,NA,"","","",NA,"",NA,NA,NA,NA,NA,NA,NA,"",NA,"11"
"",NA,"",NA,"",NA,NA,NA,NA,NA,NA,NA,"","",1,1,"2024-08-23_17h11.21.115","IAT(Formal)","2021.2.3","Win32",59.88023952,"",NA,"",NA,NA,NA,NA,NA,NA,NA,"","","",NA,"i",1,0,52,52,44,1,"暴躁","i",0.7165,"",NA,NA,NA,NA,NA,NA,"",NA,"",NA,NA,NA,NA,NA,NA,NA,"",NA,"",NA,NA,NA,NA,NA,NA,NA,"","","",NA,"",NA,NA,NA,NA,NA,NA,NA,"",NA,"11"
"",NA,"",NA,"",NA,NA,NA,NA,NA,NA,NA,"","",1,1,"2024-08-23_17h11.21.115","IAT(Formal)","2021.2.3","Win32",59.88023952,"",NA,"",NA,NA,NA,NA,NA,NA,NA,"","","",NA,"i",1,0,53,53,56,1,"他们","i",0.9878,"",NA,NA,NA,NA,NA,NA,"",NA,"",NA,NA,NA,NA,NA,NA,NA,"",NA,"",NA,NA,NA,NA,NA,NA,NA,"","","",NA,"",NA,NA,NA,NA,NA,NA,NA,"",NA,"11"
"",NA,"",NA,"",NA,NA,NA,NA,NA,NA,NA,"","",1,1,"2024-08-23_17h11.21.115","IAT(Formal)","2021.2.3","Win32",59.88023952,"",NA,"",NA,NA,NA,NA,NA,NA,NA,"","","",NA,"e",1,0,54,54,60,1,"我","e",0.6699,"",NA,NA,NA,NA,NA,NA,"",NA,"",NA,NA,NA,NA,NA,NA,NA,"",NA,"",NA,NA,NA,NA,NA,NA,NA,"","","",NA,"",NA,NA,NA,NA,NA,NA,NA,"",NA,"11"
"",NA,"",NA,"",NA,NA,NA,NA,NA,NA,NA,"","",1,1,"2024-08-23_17h11.21.115","IAT(Formal)","2021.2.3","Win32",59.88023952,"",NA,"",NA,NA,NA,NA,NA,NA,NA,"","","",NA,"i",1,0,55,55,33,1,"刻薄","i",0.6225,"",NA,NA,NA,NA,NA,NA,"",NA,"",NA,NA,NA,NA,NA,NA,NA,"",NA,"",NA,NA,NA,NA,NA,NA,NA,"","","",NA,"",NA,NA,NA,NA,NA,NA,NA,"",NA,"11"
"",NA,"",NA,"",NA,NA,NA,NA,NA,NA,NA,"","",1,1,"2024-08-23_17h11.21.115","IAT(Formal)","2021.2.3","Win32",59.88023952,"",NA,"",NA,NA,NA,NA,NA,NA,NA,"","","",NA,"e",1,0,56,56,10,1,"优秀","e",0.6817,"",NA,NA,NA,NA,NA,NA,"",NA,"",NA,NA,NA,NA,NA,NA,NA,"",NA,"",NA,NA,NA,NA,NA,NA,NA,"","","",NA,"",NA,NA,NA,NA,NA,NA,NA,"",NA,"11"
"",NA,"",NA,"",NA,NA,NA,NA,NA,NA,NA,"","",1,1,"2024-08-23_17h11.21.115","IAT(Formal)","2021.2.3","Win32",59.88023952,"",NA,"",NA,NA,NA,NA,NA,NA,NA,"","","",NA,"i",1,0,57,57,8,1,"他人","i",0.7683,"",NA,NA,NA,NA,NA,NA,"",NA,"",NA,NA,NA,NA,NA,NA,NA,"",NA,"",NA,NA,NA,NA,NA,NA,NA,"","","",NA,"",NA,NA,NA,NA,NA,NA,NA,"",NA,"11"
"",NA,"",NA,"",NA,NA,NA,NA,NA,NA,NA,"","",1,1,"2024-08-23_17h11.21.115","IAT(Formal)","2021.2.3","Win32",59.88023952,"",NA,"",NA,NA,NA,NA,NA,NA,NA,"","","",NA,"i",1,0,58,58,38,1,"鲁莽","i",0.7082,"",NA,NA,NA,NA,NA,NA,"",NA,"",NA,NA,NA,NA,NA,NA,NA,"",NA,"",NA,NA,NA,NA,NA,NA,NA,"","","",NA,"",NA,NA,NA,NA,NA,NA,NA,"",NA,"11"
"",NA,"",NA,"",NA,NA,NA,NA,NA,NA,NA,"","",1,1,"2024-08-23_17h11.21.115","IAT(Formal)","2021.2.3","Win32",59.88023952,"",NA,"",NA,NA,NA,NA,NA,NA,NA,"","","",NA,"e",1,0,59,59,28,1,"活泼","e",0.6767,"",NA,NA,NA,NA,NA,NA,"",NA,"",NA,NA,NA,NA,NA,NA,NA,"",NA,"",NA,NA,NA,NA,NA,NA,NA,"","","",NA,"",NA,NA,NA,NA,NA,NA,NA,"",NA,"11"
"",NA,"",NA,"",NA,NA,NA,NA,NA,NA,NA,"","",1,1,"2024-08-23_17h11.21.115","IAT(Formal)","2021.2.3","Win32",59.88023952,"",NA,"",NA,NA,NA,NA,NA,NA,NA,"","","",NA,"e",1,0,60,60,27,1,"热情","e",0.8276,"",NA,NA,NA,NA,NA,NA,"",NA,"",NA,NA,NA,NA,NA,NA,NA,"",NA,"",NA,NA,NA,NA,NA,NA,NA,"","","",NA,"",NA,NA,NA,NA,NA,NA,NA,"",NA,"11"
"",NA,"",NA,"",NA,NA,NA,NA,NA,NA,NA,"","",1,1,"2024-08-23_17h11.21.115","IAT(Formal)","2021.2.3","Win32",59.88023952,"",NA,"",NA,NA,NA,NA,NA,NA,NA,"","","",NA,"e",1,0,61,61,14,1,"乐观","e",0.7069,"",NA,NA,NA,NA,NA,NA,"",NA,"",NA,NA,NA,NA,NA,NA,NA,"",NA,"",NA,NA,NA,NA,NA,NA,NA,"","","",NA,"",NA,NA,NA,NA,NA,NA,NA,"",NA,"11"
"",NA,"",NA,"",NA,NA,NA,NA,NA,NA,NA,"","",1,1,"2024-08-23_17h11.21.115","IAT(Formal)","2021.2.3","Win32",59.88023952,"",NA,"",NA,NA,NA,NA,NA,NA,NA,"","","",NA,"e",1,0,62,62,15,1,"诚实","e",0.8282,"",NA,NA,NA,NA,NA,NA,"",NA,"",NA,NA,NA,NA,NA,NA,NA,"",NA,"",NA,NA,NA,NA,NA,NA,NA,"","","",NA,"",NA,NA,NA,NA,NA,NA,NA,"",NA,"11"
"",NA,"",NA,"",NA,NA,NA,NA,NA,NA,NA,"","",1,1,"2024-08-23_17h11.21.115","IAT(Formal)","2021.2.3","Win32",59.88023952,"",NA,"",NA,NA,NA,NA,NA,NA,NA,"","","",NA,"e",1,0,63,63,17,1,"勇敢","e",0.879,"",NA,NA,NA,NA,NA,NA,"",NA,"",NA,NA,NA,NA,NA,NA,NA,"",NA,"",NA,NA,NA,NA,NA,NA,NA,"","","",NA,"",NA,NA,NA,NA,NA,NA,NA,"",NA,"11"
"",NA,"",NA,"",NA,NA,NA,NA,NA,NA,NA,"","",1,1,"2024-08-23_17h11.21.115","IAT(Formal)","2021.2.3","Win32",59.88023952,"",NA,"",NA,NA,NA,NA,NA,NA,NA,"","","",NA,"i",1,0,64,64,79,1,"其他","i",0.565,"",NA,NA,NA,NA,NA,NA,"",NA,"",NA,NA,NA,NA,NA,NA,NA,"",NA,"",NA,NA,NA,NA,NA,NA,NA,"","","",NA,"",NA,NA,NA,NA,NA,NA,NA,"",NA,"11"
"",NA,"",NA,"",NA,NA,NA,NA,NA,NA,NA,"","",1,1,"2024-08-23_17h11.21.115","IAT(Formal)","2021.2.3","Win32",59.88023952,"",NA,"",NA,NA,NA,NA,NA,NA,NA,"","","",NA,"e",1,0,65,65,11,1,"崇高","e",0.604,"",NA,NA,NA,NA,NA,NA,"",NA,"",NA,NA,NA,NA,NA,NA,NA,"",NA,"",NA,NA,NA,NA,NA,NA,NA,"","","",NA,"",NA,NA,NA,NA,NA,NA,NA,"",NA,"11"
"",NA,"",NA,"",NA,NA,NA,NA,NA,NA,NA,"","",1,1,"2024-08-23_17h11.21.115","IAT(Formal)","2021.2.3","Win32",59.88023952,"",NA,"",NA,NA,NA,NA,NA,NA,NA,"","","",NA,"e",1,0,66,66,52,1,"我们","e",0.6953,"",NA,NA,NA,NA,NA,NA,"",NA,"",NA,NA,NA,NA,NA,NA,NA,"",NA,"",NA,NA,NA,NA,NA,NA,NA,"","","",NA,"",NA,NA,NA,NA,NA,NA,NA,"",NA,"11"
"",NA,"",NA,"",NA,NA,NA,NA,NA,NA,NA,"","",1,1,"2024-08-23_17h11.21.115","IAT(Formal)","2021.2.3","Win32",59.88023952,"",NA,"",NA,NA,NA,NA,NA,NA,NA,"","","",NA,"i",1,0,67,67,77,1,"他的","i",0.5027,"",NA,NA,NA,NA,NA,NA,"",NA,"",NA,NA,NA,NA,NA,NA,NA,"",NA,"",NA,NA,NA,NA,NA,NA,NA,"","","",NA,"",NA,NA,NA,NA,NA,NA,NA,"",NA,"11"
"",NA,"",NA,"",NA,NA,NA,NA,NA,NA,NA,"","",1,1,"2024-08-23_17h11.21.115","IAT(Formal)","2021.2.3","Win32",59.88023952,"",NA,"",NA,NA,NA,NA,NA,NA,NA,"","","",NA,"i",1,0,68,68,57,1,"他的","i",1.0432,"",NA,NA,NA,NA,NA,NA,"",NA,"",NA,NA,NA,NA,NA,NA,NA,"",NA,"",NA,NA,NA,NA,NA,NA,NA,"","","",NA,"",NA,NA,NA,NA,NA,NA,NA,"",NA,"11"
"",NA,"",NA,"",NA,NA,NA,NA,NA,NA,NA,"","",1,1,"2024-08-23_17h11.21.115","IAT(Formal)","2021.2.3","Win32",59.88023952,"",NA,"",NA,NA,NA,NA,NA,NA,NA,"","","",NA,"e",1,0,69,69,18,1,"勤奋","e",0.7857,"",NA,NA,NA,NA,NA,NA,"",NA,"",NA,NA,NA,NA,NA,NA,NA,"",NA,"",NA,NA,NA,NA,NA,NA,NA,"","","",NA,"",NA,NA,NA,NA,NA,NA,NA,"",NA,"11"
"",NA,"",NA,"",NA,NA,NA,NA,NA,NA,NA,"","",1,1,"2024-08-23_17h11.21.115","IAT(Formal)","2021.2.3","Win32",59.88023952,"",NA,"",NA,NA,NA,NA,NA,NA,NA,"","","",NA,"i",0,0,70,70,64,1,"俺","e",1.2223,"",NA,NA,NA,NA,NA,NA,"",NA,"",NA,NA,NA,NA,NA,NA,NA,"",NA,"",NA,NA,NA,NA,NA,NA,NA,"","","",NA,"",NA,NA,NA,NA,NA,NA,NA,"",NA,"11"
"",NA,"",NA,"",NA,NA,NA,NA,NA,NA,NA,"","",1,1,"2024-08-23_17h11.21.115","IAT(Formal)","2021.2.3","Win32",59.88023952,"",NA,"",NA,NA,NA,NA,NA,NA,NA,"","","",NA,"e",1,0,71,71,72,1,"我们","e",0.5841,"",NA,NA,NA,NA,NA,NA,"",NA,"",NA,NA,NA,NA,NA,NA,NA,"",NA,"",NA,NA,NA,NA,NA,NA,NA,"","","",NA,"",NA,NA,NA,NA,NA,NA,NA,"",NA,"11"
"",NA,"",NA,"",NA,NA,NA,NA,NA,NA,NA,"","",1,1,"2024-08-23_17h11.21.115","IAT(Formal)","2021.2.3","Win32",59.88023952,"",NA,"",NA,NA,NA,NA,NA,NA,NA,"","","",NA,"e",0,0,72,72,75,1,"他","i",0.5265,"",NA,NA,NA,NA,NA,NA,"",NA,"",NA,NA,NA,NA,NA,NA,NA,"",NA,"",NA,NA,NA,NA,NA,NA,NA,"","","",NA,"",NA,NA,NA,NA,NA,NA,NA,"",NA,"11"
"",NA,"",NA,"",NA,NA,NA,NA,NA,NA,NA,"","",1,1,"2024-08-23_17h11.21.115","IAT(Formal)","2021.2.3","Win32",59.88023952,"",NA,"",NA,NA,NA,NA,NA,NA,NA,"","","",NA,"e",1,0,73,73,20,1,"认真","e",0.6292,"",NA,NA,NA,NA,NA,NA,"",NA,"",NA,NA,NA,NA,NA,NA,NA,"",NA,"",NA,NA,NA,NA,NA,NA,NA,"","","",NA,"",NA,NA,NA,NA,NA,NA,NA,"",NA,"11"
"",NA,"",NA,"",NA,NA,NA,NA,NA,NA,NA,"","",1,1,"2024-08-23_17h11.21.115","IAT(Formal)","2021.2.3","Win32",59.88023952,"",NA,"",NA,NA,NA,NA,NA,NA,NA,"","","",NA,"i",1,0,74,74,46,1,"野蛮","i",0.922,"",NA,NA,NA,NA,NA,NA,"",NA,"",NA,NA,NA,NA,NA,NA,NA,"",NA,"",NA,NA,NA,NA,NA,NA,NA,"","","",NA,"",NA,NA,NA,NA,NA,NA,NA,"",NA,"11"
"",NA,"",NA,"",NA,NA,NA,NA,NA,NA,NA,"","",1,1,"2024-08-23_17h11.21.115","IAT(Formal)","2021.2.3","Win32",59.88023952,"",NA,"",NA,NA,NA,NA,NA,NA,NA,"","","",NA,"e",1,0,75,75,63,1,"自己","e",0.6454,"",NA,NA,NA,NA,NA,NA,"",NA,"",NA,NA,NA,NA,NA,NA,NA,"",NA,"",NA,NA,NA,NA,NA,NA,NA,"","","",NA,"",NA,NA,NA,NA,NA,NA,NA,"",NA,"11"
"",NA,"",NA,"",NA,NA,NA,NA,NA,NA,NA,"","",1,1,"2024-08-23_17h11.21.115","IAT(Formal)","2021.2.3","Win32",59.88023952,"",NA,"",NA,NA,NA,NA,NA,NA,NA,"","","",NA,"e",1,0,76,76,61,1,"我的","e",0.5598,"",NA,NA,NA,NA,NA,NA,"",NA,"",NA,NA,NA,NA,NA,NA,NA,"",NA,"",NA,NA,NA,NA,NA,NA,NA,"","","",NA,"",NA,NA,NA,NA,NA,NA,NA,"",NA,"11"
"",NA,"",NA,"",NA,NA,NA,NA,NA,NA,NA,"","",1,1,"2024-08-23_17h11.21.115","IAT(Formal)","2021.2.3","Win32",59.88023952,"",NA,"",NA,NA,NA,NA,NA,NA,NA,"","","",NA,"e",1,0,77,77,19,1,"机智","e",0.5455,"",NA,NA,NA,NA,NA,NA,"",NA,"",NA,NA,NA,NA,NA,NA,NA,"",NA,"",NA,NA,NA,NA,NA,NA,NA,"","","",NA,"",NA,NA,NA,NA,NA,NA,NA,"",NA,"11"
"",NA,"",NA,"",NA,NA,NA,NA,NA,NA,NA,"","",1,1,"2024-08-23_17h11.21.115","IAT(Formal)","2021.2.3","Win32",59.88023952,"",NA,"",NA,NA,NA,NA,NA,NA,NA,"","","",NA,"e",1,0,78,78,62,1,"我们","e",0.4884,"",NA,NA,NA,NA,NA,NA,"",NA,"",NA,NA,NA,NA,NA,NA,NA,"",NA,"",NA,NA,NA,NA,NA,NA,NA,"","","",NA,"",NA,NA,NA,NA,NA,NA,NA,"",NA,"11"
"",NA,"",NA,"",NA,NA,NA,NA,NA,NA,NA,"","",1,1,"2024-08-23_17h11.21.115","IAT(Formal)","2021.2.3","Win32",59.88023952,"",NA,"",NA,NA,NA,NA,NA,NA,NA,"","","",NA,"e",1,0,79,79,26,1,"冷静","e",0.5752,"",NA,NA,NA,NA,NA,NA,"",NA,"",NA,NA,NA,NA,NA,NA,NA,"",NA,"",NA,NA,NA,NA,NA,NA,NA,"","","",NA,"",NA,NA,NA,NA,NA,NA,NA,"",NA,"11"
"",NA,"",NA,"",NA,NA,NA,NA,NA,NA,NA,"","",1,1,"2024-08-23_17h11.21.115","IAT(Formal)","2021.2.3","Win32",59.88023952,"",NA,"",NA,NA,NA,NA,NA,NA,NA,"","","",NA,"i",1,NA,NA,NA,NA,NA,"其他","i",0.6854,"space",7.9938,0,0,0,9,1,"",NA,"",NA,NA,NA,NA,NA,NA,NA,"",NA,"",NA,NA,NA,NA,NA,NA,NA,"","","",NA,"",NA,NA,NA,NA,NA,NA,NA,"",NA,"11"
"",NA,"",NA,"",NA,NA,NA,NA,NA,NA,NA,"","",1,1,"2024-08-23_17h11.21.115","IAT(Formal)","2021.2.3","Win32",59.88023952,"",NA,"",NA,NA,NA,NA,NA,NA,NA,"","","",NA,"e",1,NA,NA,NA,NA,NA,"我们","e",0.7403,"",NA,0,1,1,2,1,"",NA,"",NA,NA,NA,NA,NA,NA,NA,"",NA,"",NA,NA,NA,NA,NA,NA,NA,"","","",NA,"",NA,NA,NA,NA,NA,NA,NA,"",NA,"11"
"",NA,"",NA,"",NA,NA,NA,NA,NA,NA,NA,"","",1,1,"2024-08-23_17h11.21.115","IAT(Formal)","2021.2.3","Win32",59.88023952,"",NA,"",NA,NA,NA,NA,NA,NA,NA,"","","",NA,"e",1,NA,NA,NA,NA,NA,"自己","e",0.7202,"",NA,0,2,2,53,1,"",NA,"",NA,NA,NA,NA,NA,NA,NA,"",NA,"",NA,NA,NA,NA,NA,NA,NA,"","","",NA,"",NA,NA,NA,NA,NA,NA,NA,"",NA,"11"
"",NA,"",NA,"",NA,NA,NA,NA,NA,NA,NA,"","",1,1,"2024-08-23_17h11.21.115","IAT(Formal)","2021.2.3","Win32",59.88023952,"",NA,"",NA,NA,NA,NA,NA,NA,NA,"","","",NA,"e",1,NA,NA,NA,NA,NA,"热情","e",0.5941,"",NA,0,3,3,27,1,"",NA,"",NA,NA,NA,NA,NA,NA,NA,"",NA,"",NA,NA,NA,NA,NA,NA,NA,"","","",NA,"",NA,NA,NA,NA,NA,NA,NA,"",NA,"11"
"",NA,"",NA,"",NA,NA,NA,NA,NA,NA,NA,"","",1,1,"2024-08-23_17h11.21.115","IAT(Formal)","2021.2.3","Win32",59.88023952,"",NA,"",NA,NA,NA,NA,NA,NA,NA,"","","",NA,"e",1,NA,NA,NA,NA,NA,"勤奋","e",0.7202,"",NA,0,4,4,18,1,"",NA,"",NA,NA,NA,NA,NA,NA,NA,"",NA,"",NA,NA,NA,NA,NA,NA,NA,"","","",NA,"",NA,NA,NA,NA,NA,NA,NA,"",NA,"11"
"",NA,"",NA,"",NA,NA,NA,NA,NA,NA,NA,"","",1,1,"2024-08-23_17h11.21.115","IAT(Formal)","2021.2.3","Win32",59.88023952,"",NA,"",NA,NA,NA,NA,NA,NA,NA,"","","",NA,"i",1,NA,NA,NA,NA,NA,"执拗","i",0.6793,"",NA,0,5,5,40,1,"",NA,"",NA,NA,NA,NA,NA,NA,NA,"",NA,"",NA,NA,NA,NA,NA,NA,NA,"","","",NA,"",NA,NA,NA,NA,NA,NA,NA,"",NA,"11"
"",NA,"",NA,"",NA,NA,NA,NA,NA,NA,NA,"","",1,1,"2024-08-23_17h11.21.115","IAT(Formal)","2021.2.3","Win32",59.88023952,"",NA,"",NA,NA,NA,NA,NA,NA,NA,"","","",NA,"e",1,NA,NA,NA,NA,NA,"我的","e",0.5525,"",NA,0,6,6,1,1,"",NA,"",NA,NA,NA,NA,NA,NA,NA,"",NA,"",NA,NA,NA,NA,NA,NA,NA,"","","",NA,"",NA,NA,NA,NA,NA,NA,NA,"",NA,"11"
"",NA,"",NA,"",NA,NA,NA,NA,NA,NA,NA,"","",1,1,"2024-08-23_17h11.21.115","IAT(Formal)","2021.2.3","Win32",59.88023952,"",NA,"",NA,NA,NA,NA,NA,NA,NA,"","","",NA,"i",1,NA,NA,NA,NA,NA,"自卑","i",0.9377,"",NA,0,7,7,36,1,"",NA,"",NA,NA,NA,NA,NA,NA,NA,"",NA,"",NA,NA,NA,NA,NA,NA,NA,"","","",NA,"",NA,NA,NA,NA,NA,NA,NA,"",NA,"11"
"",NA,"",NA,"",NA,NA,NA,NA,NA,NA,NA,"","",1,1,"2024-08-23_17h11.21.115","IAT(Formal)","2021.2.3","Win32",59.88023952,"",NA,"",NA,NA,NA,NA,NA,NA,NA,"","","",NA,"e",1,NA,NA,NA,NA,NA,"冷静","e",0.6419,"",NA,0,8,8,26,1,"",NA,"",NA,NA,NA,NA,NA,NA,NA,"",NA,"",NA,NA,NA,NA,NA,NA,NA,"","","",NA,"",NA,NA,NA,NA,NA,NA,NA,"",NA,"11"
"",NA,"",NA,"",NA,NA,NA,NA,NA,NA,NA,"","",1,1,"2024-08-23_17h11.21.115","IAT(Formal)","2021.2.3","Win32",59.88023952,"",NA,"",NA,NA,NA,NA,NA,NA,NA,"","","",NA,"i",1,NA,NA,NA,NA,NA,"他的","i",0.6932,"",NA,0,9,9,7,1,"",NA,"",NA,NA,NA,NA,NA,NA,NA,"",NA,"",NA,NA,NA,NA,NA,NA,NA,"","","",NA,"",NA,NA,NA,NA,NA,NA,NA,"",NA,"11"
"",NA,"",NA,"",NA,NA,NA,NA,NA,NA,NA,"","",1,1,"2024-08-23_17h11.21.115","IAT(Formal)","2021.2.3","Win32",59.88023952,"",NA,"",NA,NA,NA,NA,NA,NA,NA,"","","",NA,"e",1,NA,NA,NA,NA,NA,"我的","e",0.5285,"",NA,0,10,10,61,1,"",NA,"",NA,NA,NA,NA,NA,NA,NA,"",NA,"",NA,NA,NA,NA,NA,NA,NA,"","","",NA,"",NA,NA,NA,NA,NA,NA,NA,"",NA,"11"
"",NA,"",NA,"",NA,NA,NA,NA,NA,NA,NA,"","",1,1,"2024-08-23_17h11.21.115","IAT(Formal)","2021.2.3","Win32",59.88023952,"",NA,"",NA,NA,NA,NA,NA,NA,NA,"","","",NA,"e",1,NA,NA,NA,NA,NA,"我的","e",0.4324,"",NA,0,11,11,71,1,"",NA,"",NA,NA,NA,NA,NA,NA,NA,"",NA,"",NA,NA,NA,NA,NA,NA,NA,"","","",NA,"",NA,NA,NA,NA,NA,NA,NA,"",NA,"11"
"",NA,"",NA,"",NA,NA,NA,NA,NA,NA,NA,"","",1,1,"2024-08-23_17h11.21.115","IAT(Formal)","2021.2.3","Win32",59.88023952,"",NA,"",NA,NA,NA,NA,NA,NA,NA,"","","",NA,"i",1,NA,NA,NA,NA,NA,"其他","i",0.562,"",NA,0,12,12,79,1,"",NA,"",NA,NA,NA,NA,NA,NA,NA,"",NA,"",NA,NA,NA,NA,NA,NA,NA,"","","",NA,"",NA,NA,NA,NA,NA,NA,NA,"",NA,"11"
"",NA,"",NA,"",NA,NA,NA,NA,NA,NA,NA,"","",1,1,"2024-08-23_17h11.21.115","IAT(Formal)","2021.2.3","Win32",59.88023952,"",NA,"",NA,NA,NA,NA,NA,NA,NA,"","","",NA,"e",0,NA,NA,NA,NA,NA,"野蛮","i",0.9675,"",NA,0,13,13,46,1,"",NA,"",NA,NA,NA,NA,NA,NA,NA,"",NA,"",NA,NA,NA,NA,NA,NA,NA,"","","",NA,"",NA,NA,NA,NA,NA,NA,NA,"",NA,"11"
"",NA,"",NA,"",NA,NA,NA,NA,NA,NA,NA,"","",1,1,"2024-08-23_17h11.21.115","IAT(Formal)","2021.2.3","Win32",59.88023952,"",NA,"",NA,NA,NA,NA,NA,NA,NA,"","","",NA,"e",1,NA,NA,NA,NA,NA,"诚恳","e",0.5518,"",NA,0,14,14,29,1,"",NA,"",NA,NA,NA,NA,NA,NA,NA,"",NA,"",NA,NA,NA,NA,NA,NA,NA,"","","",NA,"",NA,NA,NA,NA,NA,NA,NA,"",NA,"11"
"",NA,"",NA,"",NA,NA,NA,NA,NA,NA,NA,"","",1,1,"2024-08-23_17h11.21.115","IAT(Formal)","2021.2.3","Win32",59.88023952,"",NA,"",NA,NA,NA,NA,NA,NA,NA,"","","",NA,"i",1,NA,NA,NA,NA,NA,"他人","i",0.6579,"",NA,0,15,15,8,1,"",NA,"",NA,NA,NA,NA,NA,NA,NA,"",NA,"",NA,NA,NA,NA,NA,NA,NA,"","","",NA,"",NA,NA,NA,NA,NA,NA,NA,"",NA,"11"
"",NA,"",NA,"",NA,NA,NA,NA,NA,NA,NA,"","",1,1,"2024-08-23_17h11.21.115","IAT(Formal)","2021.2.3","Win32",59.88023952,"",NA,"",NA,NA,NA,NA,NA,NA,NA,"","","",NA,"e",1,NA,NA,NA,NA,NA,"我们","e",0.5382,"",NA,0,16,16,52,1,"",NA,"",NA,NA,NA,NA,NA,NA,NA,"",NA,"",NA,NA,NA,NA,NA,NA,NA,"","","",NA,"",NA,NA,NA,NA,NA,NA,NA,"",NA,"11"
"",NA,"",NA,"",NA,NA,NA,NA,NA,NA,NA,"","",1,1,"2024-08-23_17h11.21.115","IAT(Formal)","2021.2.3","Win32",59.88023952,"",NA,"",NA,NA,NA,NA,NA,NA,NA,"","","",NA,"i",1,NA,NA,NA,NA,NA,"轻率","i",0.6783,"",NA,0,17,17,48,1,"",NA,"",NA,NA,NA,NA,NA,NA,NA,"",NA,"",NA,NA,NA,NA,NA,NA,NA,"","","",NA,"",NA,NA,NA,NA,NA,NA,NA,"",NA,"11"
"",NA,"",NA,"",NA,NA,NA,NA,NA,NA,NA,"","",1,1,"2024-08-23_17h11.21.115","IAT(Formal)","2021.2.3","Win32",59.88023952,"",NA,"",NA,NA,NA,NA,NA,NA,NA,"","","",NA,"e",1,NA,NA,NA,NA,NA,"公正","e",0.6673,"",NA,0,18,18,23,1,"",NA,"",NA,NA,NA,NA,NA,NA,NA,"",NA,"",NA,NA,NA,NA,NA,NA,NA,"","","",NA,"",NA,NA,NA,NA,NA,NA,NA,"",NA,"11"
"",NA,"",NA,"",NA,NA,NA,NA,NA,NA,NA,"","",1,1,"2024-08-23_17h11.21.115","IAT(Formal)","2021.2.3","Win32",59.88023952,"",NA,"",NA,NA,NA,NA,NA,NA,NA,"","","",NA,"i",1,NA,NA,NA,NA,NA,"他的","i",0.6032,"",NA,0,19,19,77,1,"",NA,"",NA,NA,NA,NA,NA,NA,NA,"",NA,"",NA,NA,NA,NA,NA,NA,NA,"","","",NA,"",NA,NA,NA,NA,NA,NA,NA,"",NA,"11"
"",NA,"",NA,"",NA,NA,NA,NA,NA,NA,NA,"","",1,1,"2024-08-23_17h11.21.115","IAT(Formal)","2021.2.3","Win32",59.88023952,"",NA,"",NA,NA,NA,NA,NA,NA,NA,"","","",NA,"e",1,NA,NA,NA,NA,NA,"崇高","e",0.6852,"",NA,0,20,20,11,1,"",NA,"",NA,NA,NA,NA,NA,NA,NA,"",NA,"",NA,NA,NA,NA,NA,NA,NA,"","","",NA,"",NA,NA,NA,NA,NA,NA,NA,"",NA,"11"
"",NA,"",NA,"",NA,NA,NA,NA,NA,NA,NA,"","",1,1,"2024-08-23_17h11.21.115","IAT(Formal)","2021.2.3","Win32",59.88023952,"",NA,"",NA,NA,NA,NA,NA,NA,NA,"","","",NA,"i",1,NA,NA,NA,NA,NA,"其他","i",0.6173,"",NA,0,21,21,59,1,"",NA,"",NA,NA,NA,NA,NA,NA,NA,"",NA,"",NA,NA,NA,NA,NA,NA,NA,"","","",NA,"",NA,NA,NA,NA,NA,NA,NA,"",NA,"11"
"",NA,"",NA,"",NA,NA,NA,NA,NA,NA,NA,"","",1,1,"2024-08-23_17h11.21.115","IAT(Formal)","2021.2.3","Win32",59.88023952,"",NA,"",NA,NA,NA,NA,NA,NA,NA,"","","",NA,"i",1,NA,NA,NA,NA,NA,"傲慢","i",0.9175,"",NA,0,22,22,37,1,"",NA,"",NA,NA,NA,NA,NA,NA,NA,"",NA,"",NA,NA,NA,NA,NA,NA,NA,"","","",NA,"",NA,NA,NA,NA,NA,NA,NA,"",NA,"11"
"",NA,"",NA,"",NA,NA,NA,NA,NA,NA,NA,"","",1,1,"2024-08-23_17h11.21.115","IAT(Formal)","2021.2.3","Win32",59.88023952,"",NA,"",NA,NA,NA,NA,NA,NA,NA,"","","",NA,"i",1,NA,NA,NA,NA,NA,"卑鄙","i",0.6671,"",NA,0,23,23,30,1,"",NA,"",NA,NA,NA,NA,NA,NA,NA,"",NA,"",NA,NA,NA,NA,NA,NA,NA,"","","",NA,"",NA,NA,NA,NA,NA,NA,NA,"",NA,"11"
"",NA,"",NA,"",NA,NA,NA,NA,NA,NA,NA,"","",1,1,"2024-08-23_17h11.21.115","IAT(Formal)","2021.2.3","Win32",59.88023952,"",NA,"",NA,NA,NA,NA,NA,NA,NA,"","","",NA,"e",1,NA,NA,NA,NA,NA,"诚实","e",0.6468,"",NA,0,24,24,15,1,"",NA,"",NA,NA,NA,NA,NA,NA,NA,"",NA,"",NA,NA,NA,NA,NA,NA,NA,"","","",NA,"",NA,NA,NA,NA,NA,NA,NA,"",NA,"11"
"",NA,"",NA,"",NA,NA,NA,NA,NA,NA,NA,"","",1,1,"2024-08-23_17h11.21.115","IAT(Formal)","2021.2.3","Win32",59.88023952,"",NA,"",NA,NA,NA,NA,NA,NA,NA,"","","",NA,"i",1,NA,NA,NA,NA,NA,"他的","i",0.8071,"",NA,0,25,25,57,1,"",NA,"",NA,NA,NA,NA,NA,NA,NA,"",NA,"",NA,NA,NA,NA,NA,NA,NA,"","","",NA,"",NA,NA,NA,NA,NA,NA,NA,"",NA,"11"
"",NA,"",NA,"",NA,NA,NA,NA,NA,NA,NA,"","",1,1,"2024-08-23_17h11.21.115","IAT(Formal)","2021.2.3","Win32",59.88023952,"",NA,"",NA,NA,NA,NA,NA,NA,NA,"","","",NA,"e",1,NA,NA,NA,NA,NA,"优秀","e",0.8023,"",NA,0,26,26,10,1,"",NA,"",NA,NA,NA,NA,NA,NA,NA,"",NA,"",NA,NA,NA,NA,NA,NA,NA,"","","",NA,"",NA,NA,NA,NA,NA,NA,NA,"",NA,"11"
"",NA,"",NA,"",NA,NA,NA,NA,NA,NA,NA,"","",1,1,"2024-08-23_17h11.21.115","IAT(Formal)","2021.2.3","Win32",59.88023952,"",NA,"",NA,NA,NA,NA,NA,NA,NA,"","","",NA,"e",1,NA,NA,NA,NA,NA,"细腻","e",0.5839,"",NA,0,27,27,25,1,"",NA,"",NA,NA,NA,NA,NA,NA,NA,"",NA,"",NA,NA,NA,NA,NA,NA,NA,"","","",NA,"",NA,NA,NA,NA,NA,NA,NA,"",NA,"11"
"",NA,"",NA,"",NA,NA,NA,NA,NA,NA,NA,"","",1,1,"2024-08-23_17h11.21.115","IAT(Formal)","2021.2.3","Win32",59.88023952,"",NA,"",NA,NA,NA,NA,NA,NA,NA,"","","",NA,"e",1,NA,NA,NA,NA,NA,"自己","e",0.6253,"",NA,0,28,28,3,1,"",NA,"",NA,NA,NA,NA,NA,NA,NA,"",NA,"",NA,NA,NA,NA,NA,NA,NA,"","","",NA,"",NA,NA,NA,NA,NA,NA,NA,"",NA,"11"
"",NA,"",NA,"",NA,NA,NA,NA,NA,NA,NA,"","",1,1,"2024-08-23_17h11.21.115","IAT(Formal)","2021.2.3","Win32",59.88023952,"",NA,"",NA,NA,NA,NA,NA,NA,NA,"","","",NA,"e",1,NA,NA,NA,NA,NA,"乐观","e",0.666,"",NA,0,29,29,14,1,"",NA,"",NA,NA,NA,NA,NA,NA,NA,"",NA,"",NA,NA,NA,NA,NA,NA,NA,"","","",NA,"",NA,NA,NA,NA,NA,NA,NA,"",NA,"11"
"",NA,"",NA,"",NA,NA,NA,NA,NA,NA,NA,"","",1,1,"2024-08-23_17h11.21.115","IAT(Formal)","2021.2.3","Win32",59.88023952,"",NA,"",NA,NA,NA,NA,NA,NA,NA,"","","",NA,"e",1,NA,NA,NA,NA,NA,"俺","e",0.6035,"",NA,0,30,30,4,1,"",NA,"",NA,NA,NA,NA,NA,NA,NA,"",NA,"",NA,NA,NA,NA,NA,NA,NA,"","","",NA,"",NA,NA,NA,NA,NA,NA,NA,"",NA,"11"
"",NA,"",NA,"",NA,NA,NA,NA,NA,NA,NA,"","",1,1,"2024-08-23_17h11.21.115","IAT(Formal)","2021.2.3","Win32",59.88023952,"",NA,"",NA,NA,NA,NA,NA,NA,NA,"","","",NA,"e",1,NA,NA,NA,NA,NA,"我们","e",0.4406,"",NA,0,31,31,62,1,"",NA,"",NA,NA,NA,NA,NA,NA,NA,"",NA,"",NA,NA,NA,NA,NA,NA,NA,"","","",NA,"",NA,NA,NA,NA,NA,NA,NA,"",NA,"11"
"",NA,"",NA,"",NA,NA,NA,NA,NA,NA,NA,"","",1,1,"2024-08-23_17h11.21.115","IAT(Formal)","2021.2.3","Win32",59.88023952,"",NA,"",NA,NA,NA,NA,NA,NA,NA,"","","",NA,"e",0,NA,NA,NA,NA,NA,"消极","i",0.5173,"",NA,0,32,32,35,1,"",NA,"",NA,NA,NA,NA,NA,NA,NA,"",NA,"",NA,NA,NA,NA,NA,NA,NA,"","","",NA,"",NA,NA,NA,NA,NA,NA,NA,"",NA,"11"
"",NA,"",NA,"",NA,NA,NA,NA,NA,NA,NA,"","",1,1,"2024-08-23_17h11.21.115","IAT(Formal)","2021.2.3","Win32",59.88023952,"",NA,"",NA,NA,NA,NA,NA,NA,NA,"","","",NA,"e",1,NA,NA,NA,NA,NA,"我","e",0.555,"",NA,0,33,33,70,1,"",NA,"",NA,NA,NA,NA,NA,NA,NA,"",NA,"",NA,NA,NA,NA,NA,NA,NA,"","","",NA,"",NA,NA,NA,NA,NA,NA,NA,"",NA,"11"
"",NA,"",NA,"",NA,NA,NA,NA,NA,NA,NA,"","",1,1,"2024-08-23_17h11.21.115","IAT(Formal)","2021.2.3","Win32",59.88023952,"",NA,"",NA,NA,NA,NA,NA,NA,NA,"","","",NA,"e",1,NA,NA,NA,NA,NA,"俺","e",0.5534,"",NA,0,34,34,64,1,"",NA,"",NA,NA,NA,NA,NA,NA,NA,"",NA,"",NA,NA,NA,NA,NA,NA,NA,"","","",NA,"",NA,NA,NA,NA,NA,NA,NA,"",NA,"11"
"",NA,"",NA,"",NA,NA,NA,NA,NA,NA,NA,"","",1,1,"2024-08-23_17h11.21.115","IAT(Formal)","2021.2.3","Win32",59.88023952,"",NA,"",NA,NA,NA,NA,NA,NA,NA,"","","",NA,"i",1,NA,NA,NA,NA,NA,"他","i",0.7336,"",NA,0,35,35,5,1,"",NA,"",NA,NA,NA,NA,NA,NA,NA,"",NA,"",NA,NA,NA,NA,NA,NA,NA,"","","",NA,"",NA,NA,NA,NA,NA,NA,NA,"",NA,"11"
"",NA,"",NA,"",NA,NA,NA,NA,NA,NA,NA,"","",1,1,"2024-08-23_17h11.21.115","IAT(Formal)","2021.2.3","Win32",59.88023952,"",NA,"",NA,NA,NA,NA,NA,NA,NA,"","","",NA,"e",1,NA,NA,NA,NA,NA,"自己","e",0.6212,"",NA,0,36,36,73,1,"",NA,"",NA,NA,NA,NA,NA,NA,NA,"",NA,"",NA,NA,NA,NA,NA,NA,NA,"","","",NA,"",NA,NA,NA,NA,NA,NA,NA,"",NA,"11"
"",NA,"",NA,"",NA,NA,NA,NA,NA,NA,NA,"","",1,1,"2024-08-23_17h11.21.115","IAT(Formal)","2021.2.3","Win32",59.88023952,"",NA,"",NA,NA,NA,NA,NA,NA,NA,"","","",NA,"i",1,NA,NA,NA,NA,NA,"他","i",1.1915,"",NA,0,37,37,75,1,"",NA,"",NA,NA,NA,NA,NA,NA,NA,"",NA,"",NA,NA,NA,NA,NA,NA,NA,"","","",NA,"",NA,NA,NA,NA,NA,NA,NA,"",NA,"11"
"",NA,"",NA,"",NA,NA,NA,NA,NA,NA,NA,"","",1,1,"2024-08-23_17h11.21.115","IAT(Formal)","2021.2.3","Win32",59.88023952,"",NA,"",NA,NA,NA,NA,NA,NA,NA,"","","",NA,"i",1,NA,NA,NA,NA,NA,"暴躁","i",0.5776,"",NA,0,38,38,44,1,"",NA,"",NA,NA,NA,NA,NA,NA,NA,"",NA,"",NA,NA,NA,NA,NA,NA,NA,"","","",NA,"",NA,NA,NA,NA,NA,NA,NA,"",NA,"11"
"",NA,"",NA,"",NA,NA,NA,NA,NA,NA,NA,"","",1,1,"2024-08-23_17h11.21.115","IAT(Formal)","2021.2.3","Win32",59.88023952,"",NA,"",NA,NA,NA,NA,NA,NA,NA,"","","",NA,"i",1,NA,NA,NA,NA,NA,"悲观","i",0.5678,"",NA,0,39,39,34,1,"",NA,"",NA,NA,NA,NA,NA,NA,NA,"",NA,"",NA,NA,NA,NA,NA,NA,NA,"","","",NA,"",NA,NA,NA,NA,NA,NA,NA,"",NA,"11"
"",NA,"",NA,"",NA,NA,NA,NA,NA,NA,NA,"","",1,1,"2024-08-23_17h11.21.115","IAT(Formal)","2021.2.3","Win32",59.88023952,"",NA,"",NA,NA,NA,NA,NA,NA,NA,"","","",NA,"e",1,NA,NA,NA,NA,NA,"认真","e",0.6578,"",NA,0,40,40,20,1,"",NA,"",NA,NA,NA,NA,NA,NA,NA,"",NA,"",NA,NA,NA,NA,NA,NA,NA,"","","",NA,"",NA,NA,NA,NA,NA,NA,NA,"",NA,"11"
"",NA,"",NA,"",NA,NA,NA,NA,NA,NA,NA,"","",1,1,"2024-08-23_17h11.21.115","IAT(Formal)","2021.2.3","Win32",59.88023952,"",NA,"",NA,NA,NA,NA,NA,NA,NA,"","","",NA,"e",1,NA,NA,NA,NA,NA,"朴实","e",0.5532,"",NA,0,41,41,24,1,"",NA,"",NA,NA,NA,NA,NA,NA,NA,"",NA,"",NA,NA,NA,NA,NA,NA,NA,"","","",NA,"",NA,NA,NA,NA,NA,NA,NA,"",NA,"11"
"",NA,"",NA,"",NA,NA,NA,NA,NA,NA,NA,"","",1,1,"2024-08-23_17h11.21.115","IAT(Formal)","2021.2.3","Win32",59.88023952,"",NA,"",NA,NA,NA,NA,NA,NA,NA,"","","",NA,"i",0,NA,NA,NA,NA,NA,"我","e",0.5578,"",NA,0,42,42,50,1,"",NA,"",NA,NA,NA,NA,NA,NA,NA,"",NA,"",NA,NA,NA,NA,NA,NA,NA,"","","",NA,"",NA,NA,NA,NA,NA,NA,NA,"",NA,"11"
"",NA,"",NA,"",NA,NA,NA,NA,NA,NA,NA,"","",1,1,"2024-08-23_17h11.21.115","IAT(Formal)","2021.2.3","Win32",59.88023952,"",NA,"",NA,NA,NA,NA,NA,NA,NA,"","","",NA,"i",1,NA,NA,NA,NA,NA,"鲁莽","i",0.7178,"",NA,0,43,43,38,1,"",NA,"",NA,NA,NA,NA,NA,NA,NA,"",NA,"",NA,NA,NA,NA,NA,NA,NA,"","","",NA,"",NA,NA,NA,NA,NA,NA,NA,"",NA,"11"
"",NA,"",NA,"",NA,NA,NA,NA,NA,NA,NA,"","",1,1,"2024-08-23_17h11.21.115","IAT(Formal)","2021.2.3","Win32",59.88023952,"",NA,"",NA,NA,NA,NA,NA,NA,NA,"","","",NA,"e",1,NA,NA,NA,NA,NA,"稳重","e",0.577,"",NA,0,44,44,21,1,"",NA,"",NA,NA,NA,NA,NA,NA,NA,"",NA,"",NA,NA,NA,NA,NA,NA,NA,"","","",NA,"",NA,NA,NA,NA,NA,NA,NA,"",NA,"11"
"",NA,"",NA,"",NA,NA,NA,NA,NA,NA,NA,"","",1,1,"2024-08-23_17h11.21.115","IAT(Formal)","2021.2.3","Win32",59.88023952,"",NA,"",NA,NA,NA,NA,NA,NA,NA,"","","",NA,"i",1,NA,NA,NA,NA,NA,"他人","i",0.5772,"",NA,0,45,45,58,1,"",NA,"",NA,NA,NA,NA,NA,NA,NA,"",NA,"",NA,NA,NA,NA,NA,NA,NA,"","","",NA,"",NA,NA,NA,NA,NA,NA,NA,"",NA,"11"
"",NA,"",NA,"",NA,NA,NA,NA,NA,NA,NA,"","",1,1,"2024-08-23_17h11.21.115","IAT(Formal)","2021.2.3","Win32",59.88023952,"",NA,"",NA,NA,NA,NA,NA,NA,NA,"","","",NA,"e",1,NA,NA,NA,NA,NA,"我的","e",0.5501,"",NA,0,46,46,51,1,"",NA,"",NA,NA,NA,NA,NA,NA,NA,"",NA,"",NA,NA,NA,NA,NA,NA,NA,"","","",NA,"",NA,NA,NA,NA,NA,NA,NA,"",NA,"11"
"",NA,"",NA,"",NA,NA,NA,NA,NA,NA,NA,"","",1,1,"2024-08-23_17h11.21.115","IAT(Formal)","2021.2.3","Win32",59.88023952,"",NA,"",NA,NA,NA,NA,NA,NA,NA,"","","",NA,"i",1,NA,NA,NA,NA,NA,"虚伪","i",0.6786,"",NA,0,47,47,31,1,"",NA,"",NA,NA,NA,NA,NA,NA,NA,"",NA,"",NA,NA,NA,NA,NA,NA,NA,"","","",NA,"",NA,NA,NA,NA,NA,NA,NA,"",NA,"11"
"",NA,"",NA,"",NA,NA,NA,NA,NA,NA,NA,"","",1,1,"2024-08-23_17h11.21.115","IAT(Formal)","2021.2.3","Win32",59.88023952,"",NA,"",NA,NA,NA,NA,NA,NA,NA,"","","",NA,"i",1,NA,NA,NA,NA,NA,"猖狂","i",0.5903,"",NA,0,48,48,45,1,"",NA,"",NA,NA,NA,NA,NA,NA,NA,"",NA,"",NA,NA,NA,NA,NA,NA,NA,"","","",NA,"",NA,NA,NA,NA,NA,NA,NA,"",NA,"11"
"",NA,"",NA,"",NA,NA,NA,NA,NA,NA,NA,"","",1,1,"2024-08-23_17h11.21.115","IAT(Formal)","2021.2.3","Win32",59.88023952,"",NA,"",NA,NA,NA,NA,NA,NA,NA,"","","",NA,"i",1,NA,NA,NA,NA,NA,"固执","i",0.6723,"",NA,0,49,49,47,1,"",NA,"",NA,NA,NA,NA,NA,NA,NA,"",NA,"",NA,NA,NA,NA,NA,NA,NA,"","","",NA,"",NA,NA,NA,NA,NA,NA,NA,"",NA,"11"
"",NA,"",NA,"",NA,NA,NA,NA,NA,NA,NA,"","",1,1,"2024-08-23_17h11.21.115","IAT(Formal)","2021.2.3","Win32",59.88023952,"",NA,"",NA,NA,NA,NA,NA,NA,NA,"","","",NA,"i",1,NA,NA,NA,NA,NA,"其他","i",0.8874,"",NA,0,50,50,69,1,"",NA,"",NA,NA,NA,NA,NA,NA,NA,"",NA,"",NA,NA,NA,NA,NA,NA,NA,"","","",NA,"",NA,NA,NA,NA,NA,NA,NA,"",NA,"11"
"",NA,"",NA,"",NA,NA,NA,NA,NA,NA,NA,"","",1,1,"2024-08-23_17h11.21.115","IAT(Formal)","2021.2.3","Win32",59.88023952,"",NA,"",NA,NA,NA,NA,NA,NA,NA,"","","",NA,"i",1,NA,NA,NA,NA,NA,"凶狠","i",0.5525,"",NA,0,51,51,42,1,"",NA,"",NA,NA,NA,NA,NA,NA,NA,"",NA,"",NA,NA,NA,NA,NA,NA,NA,"","","",NA,"",NA,NA,NA,NA,NA,NA,NA,"",NA,"11"
"",NA,"",NA,"",NA,NA,NA,NA,NA,NA,NA,"","",1,1,"2024-08-23_17h11.21.115","IAT(Formal)","2021.2.3","Win32",59.88023952,"",NA,"",NA,NA,NA,NA,NA,NA,NA,"","","",NA,"i",1,NA,NA,NA,NA,NA,"愚蠢","i",0.6385,"",NA,0,52,52,32,1,"",NA,"",NA,NA,NA,NA,NA,NA,NA,"",NA,"",NA,NA,NA,NA,NA,NA,NA,"","","",NA,"",NA,NA,NA,NA,NA,NA,NA,"",NA,"11"
"",NA,"",NA,"",NA,NA,NA,NA,NA,NA,NA,"","",1,1,"2024-08-23_17h11.21.115","IAT(Formal)","2021.2.3","Win32",59.88023952,"",NA,"",NA,NA,NA,NA,NA,NA,NA,"","","",NA,"e",1,NA,NA,NA,NA,NA,"我","e",0.584,"",NA,0,53,53,0,1,"",NA,"",NA,NA,NA,NA,NA,NA,NA,"",NA,"",NA,NA,NA,NA,NA,NA,NA,"","","",NA,"",NA,NA,NA,NA,NA,NA,NA,"",NA,"11"
"",NA,"",NA,"",NA,NA,NA,NA,NA,NA,NA,"","",1,1,"2024-08-23_17h11.21.115","IAT(Formal)","2021.2.3","Win32",59.88023952,"",NA,"",NA,NA,NA,NA,NA,NA,NA,"","","",NA,"i",1,NA,NA,NA,NA,NA,"散漫","i",0.5849,"",NA,0,54,54,41,1,"",NA,"",NA,NA,NA,NA,NA,NA,NA,"",NA,"",NA,NA,NA,NA,NA,NA,NA,"","","",NA,"",NA,NA,NA,NA,NA,NA,NA,"",NA,"11"
"",NA,"",NA,"",NA,NA,NA,NA,NA,NA,NA,"","",1,1,"2024-08-23_17h11.21.115","IAT(Formal)","2021.2.3","Win32",59.88023952,"",NA,"",NA,NA,NA,NA,NA,NA,NA,"","","",NA,"i",1,NA,NA,NA,NA,NA,"他们","i",1.0366,"",NA,0,55,55,6,1,"",NA,"",NA,NA,NA,NA,NA,NA,NA,"",NA,"",NA,NA,NA,NA,NA,NA,NA,"","","",NA,"",NA,NA,NA,NA,NA,NA,NA,"",NA,"11"
"",NA,"",NA,"",NA,NA,NA,NA,NA,NA,NA,"","",1,1,"2024-08-23_17h11.21.115","IAT(Formal)","2021.2.3","Win32",59.88023952,"",NA,"",NA,NA,NA,NA,NA,NA,NA,"","","",NA,"i",1,NA,NA,NA,NA,NA,"自私","i",0.9071,"",NA,0,56,56,43,1,"",NA,"",NA,NA,NA,NA,NA,NA,NA,"",NA,"",NA,NA,NA,NA,NA,NA,NA,"","","",NA,"",NA,NA,NA,NA,NA,NA,NA,"",NA,"11"
"",NA,"",NA,"",NA,NA,NA,NA,NA,NA,NA,"","",1,1,"2024-08-23_17h11.21.115","IAT(Formal)","2021.2.3","Win32",59.88023952,"",NA,"",NA,NA,NA,NA,NA,NA,NA,"","","",NA,"i",0,NA,NA,NA,NA,NA,"聪明","e",0.631,"",NA,0,57,57,12,1,"",NA,"",NA,NA,NA,NA,NA,NA,NA,"",NA,"",NA,NA,NA,NA,NA,NA,NA,"","","",NA,"",NA,NA,NA,NA,NA,NA,NA,"",NA,"11"
"",NA,"",NA,"",NA,NA,NA,NA,NA,NA,NA,"","",1,1,"2024-08-23_17h11.21.115","IAT(Formal)","2021.2.3","Win32",59.88023952,"",NA,"",NA,NA,NA,NA,NA,NA,NA,"","","",NA,"e",1,NA,NA,NA,NA,NA,"我","e",0.5761,"",NA,0,58,58,60,1,"",NA,"",NA,NA,NA,NA,NA,NA,NA,"",NA,"",NA,NA,NA,NA,NA,NA,NA,"","","",NA,"",NA,NA,NA,NA,NA,NA,NA,"",NA,"11"
"",NA,"",NA,"",NA,NA,NA,NA,NA,NA,NA,"","",1,1,"2024-08-23_17h11.21.115","IAT(Formal)","2021.2.3","Win32",59.88023952,"",NA,"",NA,NA,NA,NA,NA,NA,NA,"","","",NA,"e",1,NA,NA,NA,NA,NA,"俺","e",0.7294,"",NA,0,59,59,54,1,"",NA,"",NA,NA,NA,NA,NA,NA,NA,"",NA,"",NA,NA,NA,NA,NA,NA,NA,"","","",NA,"",NA,NA,NA,NA,NA,NA,NA,"",NA,"11"
"",NA,"",NA,"",NA,NA,NA,NA,NA,NA,NA,"","",1,1,"2024-08-23_17h11.21.115","IAT(Formal)","2021.2.3","Win32",59.88023952,"",NA,"",NA,NA,NA,NA,NA,NA,NA,"","","",NA,"i",1,NA,NA,NA,NA,NA,"他","i",0.6674,"",NA,0,60,60,55,1,"",NA,"",NA,NA,NA,NA,NA,NA,NA,"",NA,"",NA,NA,NA,NA,NA,NA,NA,"","","",NA,"",NA,NA,NA,NA,NA,NA,NA,"",NA,"11"
"",NA,"",NA,"",NA,NA,NA,NA,NA,NA,NA,"","",1,1,"2024-08-23_17h11.21.115","IAT(Formal)","2021.2.3","Win32",59.88023952,"",NA,"",NA,NA,NA,NA,NA,NA,NA,"","","",NA,"i",1,NA,NA,NA,NA,NA,"他","i",1.0104,"",NA,0,61,61,65,1,"",NA,"",NA,NA,NA,NA,NA,NA,NA,"",NA,"",NA,NA,NA,NA,NA,NA,NA,"","","",NA,"",NA,NA,NA,NA,NA,NA,NA,"",NA,"11"
"",NA,"",NA,"",NA,NA,NA,NA,NA,NA,NA,"","",1,1,"2024-08-23_17h11.21.115","IAT(Formal)","2021.2.3","Win32",59.88023952,"",NA,"",NA,NA,NA,NA,NA,NA,NA,"","","",NA,"i",1,NA,NA,NA,NA,NA,"他人","i",0.7839,"",NA,0,62,62,68,1,"",NA,"",NA,NA,NA,NA,NA,NA,NA,"",NA,"",NA,NA,NA,NA,NA,NA,NA,"","","",NA,"",NA,NA,NA,NA,NA,NA,NA,"",NA,"11"
"",NA,"",NA,"",NA,NA,NA,NA,NA,NA,NA,"","",1,1,"2024-08-23_17h11.21.115","IAT(Formal)","2021.2.3","Win32",59.88023952,"",NA,"",NA,NA,NA,NA,NA,NA,NA,"","","",NA,"i",1,NA,NA,NA,NA,NA,"刻薄","i",0.9183,"",NA,0,63,63,33,1,"",NA,"",NA,NA,NA,NA,NA,NA,NA,"",NA,"",NA,NA,NA,NA,NA,NA,NA,"","","",NA,"",NA,NA,NA,NA,NA,NA,NA,"",NA,"11"
"",NA,"",NA,"",NA,NA,NA,NA,NA,NA,NA,"","",1,1,"2024-08-23_17h11.21.115","IAT(Formal)","2021.2.3","Win32",59.88023952,"",NA,"",NA,NA,NA,NA,NA,NA,NA,"","","",NA,"i",1,NA,NA,NA,NA,NA,"冒失","i",1.184,"",NA,0,64,64,39,1,"",NA,"",NA,NA,NA,NA,NA,NA,NA,"",NA,"",NA,NA,NA,NA,NA,NA,NA,"","","",NA,"",NA,NA,NA,NA,NA,NA,NA,"",NA,"11"
"",NA,"",NA,"",NA,NA,NA,NA,NA,NA,NA,"","",1,1,"2024-08-23_17h11.21.115","IAT(Formal)","2021.2.3","Win32",59.88023952,"",NA,"",NA,NA,NA,NA,NA,NA,NA,"","","",NA,"e",1,NA,NA,NA,NA,NA,"杰出","e",0.7551,"",NA,0,65,65,13,1,"",NA,"",NA,NA,NA,NA,NA,NA,NA,"",NA,"",NA,NA,NA,NA,NA,NA,NA,"","","",NA,"",NA,NA,NA,NA,NA,NA,NA,"",NA,"11"
"",NA,"",NA,"",NA,NA,NA,NA,NA,NA,NA,"","",1,1,"2024-08-23_17h11.21.115","IAT(Formal)","2021.2.3","Win32",59.88023952,"",NA,"",NA,NA,NA,NA,NA,NA,NA,"","","",NA,"e",1,NA,NA,NA,NA,NA,"俺","e",0.7837,"",NA,0,66,66,74,1,"",NA,"",NA,NA,NA,NA,NA,NA,NA,"",NA,"",NA,NA,NA,NA,NA,NA,NA,"","","",NA,"",NA,NA,NA,NA,NA,NA,NA,"",NA,"11"
"",NA,"",NA,"",NA,NA,NA,NA,NA,NA,NA,"","",1,1,"2024-08-23_17h11.21.115","IAT(Formal)","2021.2.3","Win32",59.88023952,"",NA,"",NA,NA,NA,NA,NA,NA,NA,"","","",NA,"i",1,NA,NA,NA,NA,NA,"下贱","i",0.7671,"",NA,0,67,67,49,1,"",NA,"",NA,NA,NA,NA,NA,NA,NA,"",NA,"",NA,NA,NA,NA,NA,NA,NA,"","","",NA,"",NA,NA,NA,NA,NA,NA,NA,"",NA,"11"
"",NA,"",NA,"",NA,NA,NA,NA,NA,NA,NA,"","",1,1,"2024-08-23_17h11.21.115","IAT(Formal)","2021.2.3","Win32",59.88023952,"",NA,"",NA,NA,NA,NA,NA,NA,NA,"","","",NA,"i",1,NA,NA,NA,NA,NA,"他们","i",0.8012,"",NA,0,68,68,76,1,"",NA,"",NA,NA,NA,NA,NA,NA,NA,"",NA,"",NA,NA,NA,NA,NA,NA,NA,"","","",NA,"",NA,NA,NA,NA,NA,NA,NA,"",NA,"11"
"",NA,"",NA,"",NA,NA,NA,NA,NA,NA,NA,"","",1,1,"2024-08-23_17h11.21.115","IAT(Formal)","2021.2.3","Win32",59.88023952,"",NA,"",NA,NA,NA,NA,NA,NA,NA,"","","",NA,"e",1,NA,NA,NA,NA,NA,"勇敢","e",0.5339,"",NA,0,69,69,17,1,"",NA,"",NA,NA,NA,NA,NA,NA,NA,"",NA,"",NA,NA,NA,NA,NA,NA,NA,"","","",NA,"",NA,NA,NA,NA,NA,NA,NA,"",NA,"11"
"",NA,"",NA,"",NA,NA,NA,NA,NA,NA,NA,"","",1,1,"2024-08-23_17h11.21.115","IAT(Formal)","2021.2.3","Win32",59.88023952,"",NA,"",NA,NA,NA,NA,NA,NA,NA,"","","",NA,"e",1,NA,NA,NA,NA,NA,"正直","e",0.533,"",NA,0,70,70,16,1,"",NA,"",NA,NA,NA,NA,NA,NA,NA,"",NA,"",NA,NA,NA,NA,NA,NA,NA,"","","",NA,"",NA,NA,NA,NA,NA,NA,NA,"",NA,"11"
"",NA,"",NA,"",NA,NA,NA,NA,NA,NA,NA,"","",1,1,"2024-08-23_17h11.21.115","IAT(Formal)","2021.2.3","Win32",59.88023952,"",NA,"",NA,NA,NA,NA,NA,NA,NA,"","","",NA,"e",1,NA,NA,NA,NA,NA,"自己","e",0.5559,"",NA,0,71,71,63,1,"",NA,"",NA,NA,NA,NA,NA,NA,NA,"",NA,"",NA,NA,NA,NA,NA,NA,NA,"","","",NA,"",NA,NA,NA,NA,NA,NA,NA,"",NA,"11"
"",NA,"",NA,"",NA,NA,NA,NA,NA,NA,NA,"","",1,1,"2024-08-23_17h11.21.115","IAT(Formal)","2021.2.3","Win32",59.88023952,"",NA,"",NA,NA,NA,NA,NA,NA,NA,"","","",NA,"e",1,NA,NA,NA,NA,NA,"活泼","e",0.5559,"",NA,0,72,72,28,1,"",NA,"",NA,NA,NA,NA,NA,NA,NA,"",NA,"",NA,NA,NA,NA,NA,NA,NA,"","","",NA,"",NA,NA,NA,NA,NA,NA,NA,"",NA,"11"
"",NA,"",NA,"",NA,NA,NA,NA,NA,NA,NA,"","",1,1,"2024-08-23_17h11.21.115","IAT(Formal)","2021.2.3","Win32",59.88023952,"",NA,"",NA,NA,NA,NA,NA,NA,NA,"","","",NA,"i",1,NA,NA,NA,NA,NA,"他们","i",0.6672,"",NA,0,73,73,56,1,"",NA,"",NA,NA,NA,NA,NA,NA,NA,"",NA,"",NA,NA,NA,NA,NA,NA,NA,"","","",NA,"",NA,NA,NA,NA,NA,NA,NA,"",NA,"11"
"",NA,"",NA,"",NA,NA,NA,NA,NA,NA,NA,"","",1,1,"2024-08-23_17h11.21.115","IAT(Formal)","2021.2.3","Win32",59.88023952,"",NA,"",NA,NA,NA,NA,NA,NA,NA,"","","",NA,"i",1,NA,NA,NA,NA,NA,"他们","i",0.7347,"",NA,0,74,74,66,1,"",NA,"",NA,NA,NA,NA,NA,NA,NA,"",NA,"",NA,NA,NA,NA,NA,NA,NA,"","","",NA,"",NA,NA,NA,NA,NA,NA,NA,"",NA,"11"
"",NA,"",NA,"",NA,NA,NA,NA,NA,NA,NA,"","",1,1,"2024-08-23_17h11.21.115","IAT(Formal)","2021.2.3","Win32",59.88023952,"",NA,"",NA,NA,NA,NA,NA,NA,NA,"","","",NA,"e",1,NA,NA,NA,NA,NA,"我们","e",0.9851,"",NA,0,75,75,72,1,"",NA,"",NA,NA,NA,NA,NA,NA,NA,"",NA,"",NA,NA,NA,NA,NA,NA,NA,"","","",NA,"",NA,NA,NA,NA,NA,NA,NA,"",NA,"11"
"",NA,"",NA,"",NA,NA,NA,NA,NA,NA,NA,"","",1,1,"2024-08-23_17h11.21.115","IAT(Formal)","2021.2.3","Win32",59.88023952,"",NA,"",NA,NA,NA,NA,NA,NA,NA,"","","",NA,"e",1,NA,NA,NA,NA,NA,"无私","e",0.6691,"",NA,0,76,76,22,1,"",NA,"",NA,NA,NA,NA,NA,NA,NA,"",NA,"",NA,NA,NA,NA,NA,NA,NA,"","","",NA,"",NA,NA,NA,NA,NA,NA,NA,"",NA,"11"
"",NA,"",NA,"",NA,NA,NA,NA,NA,NA,NA,"","",1,1,"2024-08-23_17h11.21.115","IAT(Formal)","2021.2.3","Win32",59.88023952,"",NA,"",NA,NA,NA,NA,NA,NA,NA,"","","",NA,"e",1,NA,NA,NA,NA,NA,"机智","e",0.7529,"",NA,0,77,77,19,1,"",NA,"",NA,NA,NA,NA,NA,NA,NA,"",NA,"",NA,NA,NA,NA,NA,NA,NA,"","","",NA,"",NA,NA,NA,NA,NA,NA,NA,"",NA,"11"
"",NA,"",NA,"",NA,NA,NA,NA,NA,NA,NA,"","",1,1,"2024-08-23_17h11.21.115","IAT(Formal)","2021.2.3","Win32",59.88023952,"",NA,"",NA,NA,NA,NA,NA,NA,NA,"","","",NA,"i",1,NA,NA,NA,NA,NA,"他人","i",0.5662,"",NA,0,78,78,78,1,"",NA,"",NA,NA,NA,NA,NA,NA,NA,"",NA,"",NA,NA,NA,NA,NA,NA,NA,"","","",NA,"",NA,NA,NA,NA,NA,NA,NA,"",NA,"11"
"",NA,"",NA,"",NA,NA,NA,NA,NA,NA,NA,"","",1,1,"2024-08-23_17h11.21.115","IAT(Formal)","2021.2.3","Win32",59.88023952,"",NA,"",NA,NA,NA,NA,NA,NA,NA,"","","",NA,"i",1,NA,NA,NA,NA,NA,"他的","i",0.6233,"",NA,0,79,79,67,1,"",NA,"",NA,NA,NA,NA,NA,NA,NA,"",NA,"",NA,NA,NA,NA,NA,NA,NA,"","","",NA,"",NA,NA,NA,NA,NA,NA,NA,"",NA,"11"
"",NA,"",NA,"",NA,NA,NA,NA,NA,NA,NA,"","",1,1,"2024-08-23_17h11.21.115","IAT(Formal)","2021.2.3","Win32",59.88023952,"",NA,"",NA,NA,NA,NA,NA,NA,NA,"","","",NA,"i",1,NA,NA,NA,NA,NA,"他","i",0.4532,"",NA,1,0,80,55,1,"",NA,"",NA,NA,NA,NA,NA,NA,NA,"",NA,"",NA,NA,NA,NA,NA,NA,NA,"","","",NA,"",NA,NA,NA,NA,NA,NA,NA,"",NA,"11"
"",NA,"",NA,"",NA,NA,NA,NA,NA,NA,NA,"","",1,1,"2024-08-23_17h11.21.115","IAT(Formal)","2021.2.3","Win32",59.88023952,"",NA,"",NA,NA,NA,NA,NA,NA,NA,"","","",NA,"e",1,NA,NA,NA,NA,NA,"乐观","e",0.6338,"",NA,1,1,81,14,1,"",NA,"",NA,NA,NA,NA,NA,NA,NA,"",NA,"",NA,NA,NA,NA,NA,NA,NA,"","","",NA,"",NA,NA,NA,NA,NA,NA,NA,"",NA,"11"
"",NA,"",NA,"",NA,NA,NA,NA,NA,NA,NA,"","",1,1,"2024-08-23_17h11.21.115","IAT(Formal)","2021.2.3","Win32",59.88023952,"",NA,"",NA,NA,NA,NA,NA,NA,NA,"","","",NA,"i",1,NA,NA,NA,NA,NA,"卑鄙","i",0.6964,"",NA,1,2,82,30,1,"",NA,"",NA,NA,NA,NA,NA,NA,NA,"",NA,"",NA,NA,NA,NA,NA,NA,NA,"","","",NA,"",NA,NA,NA,NA,NA,NA,NA,"",NA,"11"
"",NA,"",NA,"",NA,NA,NA,NA,NA,NA,NA,"","",1,1,"2024-08-23_17h11.21.115","IAT(Formal)","2021.2.3","Win32",59.88023952,"",NA,"",NA,NA,NA,NA,NA,NA,NA,"","","",NA,"i",1,NA,NA,NA,NA,NA,"愚蠢","i",0.5395,"",NA,1,3,83,32,1,"",NA,"",NA,NA,NA,NA,NA,NA,NA,"",NA,"",NA,NA,NA,NA,NA,NA,NA,"","","",NA,"",NA,NA,NA,NA,NA,NA,NA,"",NA,"11"
"",NA,"",NA,"",NA,NA,NA,NA,NA,NA,NA,"","",1,1,"2024-08-23_17h11.21.115","IAT(Formal)","2021.2.3","Win32",59.88023952,"",NA,"",NA,NA,NA,NA,NA,NA,NA,"","","",NA,"i",1,NA,NA,NA,NA,NA,"他的","i",0.9174,"",NA,1,4,84,7,1,"",NA,"",NA,NA,NA,NA,NA,NA,NA,"",NA,"",NA,NA,NA,NA,NA,NA,NA,"","","",NA,"",NA,NA,NA,NA,NA,NA,NA,"",NA,"11"
"",NA,"",NA,"",NA,NA,NA,NA,NA,NA,NA,"","",1,1,"2024-08-23_17h11.21.115","IAT(Formal)","2021.2.3","Win32",59.88023952,"",NA,"",NA,NA,NA,NA,NA,NA,NA,"","","",NA,"i",1,NA,NA,NA,NA,NA,"消极","i",0.5034,"",NA,1,5,85,35,1,"",NA,"",NA,NA,NA,NA,NA,NA,NA,"",NA,"",NA,NA,NA,NA,NA,NA,NA,"","","",NA,"",NA,NA,NA,NA,NA,NA,NA,"",NA,"11"
"",NA,"",NA,"",NA,NA,NA,NA,NA,NA,NA,"","",1,1,"2024-08-23_17h11.21.115","IAT(Formal)","2021.2.3","Win32",59.88023952,"",NA,"",NA,NA,NA,NA,NA,NA,NA,"","","",NA,"i",1,NA,NA,NA,NA,NA,"其他","i",0.5845,"",NA,1,6,86,69,1,"",NA,"",NA,NA,NA,NA,NA,NA,NA,"",NA,"",NA,NA,NA,NA,NA,NA,NA,"","","",NA,"",NA,NA,NA,NA,NA,NA,NA,"",NA,"11"
"",NA,"",NA,"",NA,NA,NA,NA,NA,NA,NA,"","",1,1,"2024-08-23_17h11.21.115","IAT(Formal)","2021.2.3","Win32",59.88023952,"",NA,"",NA,NA,NA,NA,NA,NA,NA,"","","",NA,"e",1,NA,NA,NA,NA,NA,"我们","e",0.5682,"",NA,1,7,87,52,1,"",NA,"",NA,NA,NA,NA,NA,NA,NA,"",NA,"",NA,NA,NA,NA,NA,NA,NA,"","","",NA,"",NA,NA,NA,NA,NA,NA,NA,"",NA,"11"
"",NA,"",NA,"",NA,NA,NA,NA,NA,NA,NA,"","",1,1,"2024-08-23_17h11.21.115","IAT(Formal)","2021.2.3","Win32",59.88023952,"",NA,"",NA,NA,NA,NA,NA,NA,NA,"","","",NA,"e",0,NA,NA,NA,NA,NA,"他们","i",0.5196,"",NA,1,8,88,76,1,"",NA,"",NA,NA,NA,NA,NA,NA,NA,"",NA,"",NA,NA,NA,NA,NA,NA,NA,"","","",NA,"",NA,NA,NA,NA,NA,NA,NA,"",NA,"11"
"",NA,"",NA,"",NA,NA,NA,NA,NA,NA,NA,"","",1,1,"2024-08-23_17h11.21.115","IAT(Formal)","2021.2.3","Win32",59.88023952,"",NA,"",NA,NA,NA,NA,NA,NA,NA,"","","",NA,"e",1,NA,NA,NA,NA,NA,"公正","e",0.7925,"",NA,1,9,89,23,1,"",NA,"",NA,NA,NA,NA,NA,NA,NA,"",NA,"",NA,NA,NA,NA,NA,NA,NA,"","","",NA,"",NA,NA,NA,NA,NA,NA,NA,"",NA,"11"
"",NA,"",NA,"",NA,NA,NA,NA,NA,NA,NA,"","",1,1,"2024-08-23_17h11.21.115","IAT(Formal)","2021.2.3","Win32",59.88023952,"",NA,"",NA,NA,NA,NA,NA,NA,NA,"","","",NA,"i",1,NA,NA,NA,NA,NA,"执拗","i",0.6038,"",NA,1,10,90,40,1,"",NA,"",NA,NA,NA,NA,NA,NA,NA,"",NA,"",NA,NA,NA,NA,NA,NA,NA,"","","",NA,"",NA,NA,NA,NA,NA,NA,NA,"",NA,"11"
"",NA,"",NA,"",NA,NA,NA,NA,NA,NA,NA,"","",1,1,"2024-08-23_17h11.21.115","IAT(Formal)","2021.2.3","Win32",59.88023952,"",NA,"",NA,NA,NA,NA,NA,NA,NA,"","","",NA,"e",1,NA,NA,NA,NA,NA,"我","e",0.5528,"",NA,1,11,91,60,1,"",NA,"",NA,NA,NA,NA,NA,NA,NA,"",NA,"",NA,NA,NA,NA,NA,NA,NA,"","","",NA,"",NA,NA,NA,NA,NA,NA,NA,"",NA,"11"
"",NA,"",NA,"",NA,NA,NA,NA,NA,NA,NA,"","",1,1,"2024-08-23_17h11.21.115","IAT(Formal)","2021.2.3","Win32",59.88023952,"",NA,"",NA,NA,NA,NA,NA,NA,NA,"","","",NA,"e",1,NA,NA,NA,NA,NA,"活泼","e",0.5224,"",NA,1,12,92,28,1,"",NA,"",NA,NA,NA,NA,NA,NA,NA,"",NA,"",NA,NA,NA,NA,NA,NA,NA,"","","",NA,"",NA,NA,NA,NA,NA,NA,NA,"",NA,"11"
"",NA,"",NA,"",NA,NA,NA,NA,NA,NA,NA,"","",1,1,"2024-08-23_17h11.21.115","IAT(Formal)","2021.2.3","Win32",59.88023952,"",NA,"",NA,NA,NA,NA,NA,NA,NA,"","","",NA,"i",1,NA,NA,NA,NA,NA,"他人","i",0.5848,"",NA,1,13,93,78,1,"",NA,"",NA,NA,NA,NA,NA,NA,NA,"",NA,"",NA,NA,NA,NA,NA,NA,NA,"","","",NA,"",NA,NA,NA,NA,NA,NA,NA,"",NA,"11"
"",NA,"",NA,"",NA,NA,NA,NA,NA,NA,NA,"","",1,1,"2024-08-23_17h11.21.115","IAT(Formal)","2021.2.3","Win32",59.88023952,"",NA,"",NA,NA,NA,NA,NA,NA,NA,"","","",NA,"e",1,NA,NA,NA,NA,NA,"我","e",0.5546,"",NA,1,14,94,70,1,"",NA,"",NA,NA,NA,NA,NA,NA,NA,"",NA,"",NA,NA,NA,NA,NA,NA,NA,"","","",NA,"",NA,NA,NA,NA,NA,NA,NA,"",NA,"11"
"",NA,"",NA,"",NA,NA,NA,NA,NA,NA,NA,"","",1,1,"2024-08-23_17h11.21.115","IAT(Formal)","2021.2.3","Win32",59.88023952,"",NA,"",NA,NA,NA,NA,NA,NA,NA,"","","",NA,"i",1,NA,NA,NA,NA,NA,"他们","i",0.7679,"",NA,1,15,95,6,1,"",NA,"",NA,NA,NA,NA,NA,NA,NA,"",NA,"",NA,NA,NA,NA,NA,NA,NA,"","","",NA,"",NA,NA,NA,NA,NA,NA,NA,"",NA,"11"
"",NA,"",NA,"",NA,NA,NA,NA,NA,NA,NA,"","",1,1,"2024-08-23_17h11.21.115","IAT(Formal)","2021.2.3","Win32",59.88023952,"",NA,"",NA,NA,NA,NA,NA,NA,NA,"","","",NA,"e",1,NA,NA,NA,NA,NA,"我的","e",0.5786,"",NA,1,16,96,61,1,"",NA,"",NA,NA,NA,NA,NA,NA,NA,"",NA,"",NA,NA,NA,NA,NA,NA,NA,"","","",NA,"",NA,NA,NA,NA,NA,NA,NA,"",NA,"11"
"",NA,"",NA,"",NA,NA,NA,NA,NA,NA,NA,"","",1,1,"2024-08-23_17h11.21.115","IAT(Formal)","2021.2.3","Win32",59.88023952,"",NA,"",NA,NA,NA,NA,NA,NA,NA,"","","",NA,"i",1,NA,NA,NA,NA,NA,"傲慢","i",1.083,"",NA,1,17,97,37,1,"",NA,"",NA,NA,NA,NA,NA,NA,NA,"",NA,"",NA,NA,NA,NA,NA,NA,NA,"","","",NA,"",NA,NA,NA,NA,NA,NA,NA,"",NA,"11"
"",NA,"",NA,"",NA,NA,NA,NA,NA,NA,NA,"","",1,1,"2024-08-23_17h11.21.115","IAT(Formal)","2021.2.3","Win32",59.88023952,"",NA,"",NA,NA,NA,NA,NA,NA,NA,"","","",NA,"e",1,NA,NA,NA,NA,NA,"勇敢","e",0.6223,"",NA,1,18,98,17,1,"",NA,"",NA,NA,NA,NA,NA,NA,NA,"",NA,"",NA,NA,NA,NA,NA,NA,NA,"","","",NA,"",NA,NA,NA,NA,NA,NA,NA,"",NA,"11"
"",NA,"",NA,"",NA,NA,NA,NA,NA,NA,NA,"","",1,1,"2024-08-23_17h11.21.115","IAT(Formal)","2021.2.3","Win32",59.88023952,"",NA,"",NA,NA,NA,NA,NA,NA,NA,"","","",NA,"e",1,NA,NA,NA,NA,NA,"无私","e",0.6673,"",NA,1,19,99,22,1,"",NA,"",NA,NA,NA,NA,NA,NA,NA,"",NA,"",NA,NA,NA,NA,NA,NA,NA,"","","",NA,"",NA,NA,NA,NA,NA,NA,NA,"",NA,"11"
"",NA,"",NA,"",NA,NA,NA,NA,NA,NA,NA,"","",1,1,"2024-08-23_17h11.21.115","IAT(Formal)","2021.2.3","Win32",59.88023952,"",NA,"",NA,NA,NA,NA,NA,NA,NA,"","","",NA,"e",1,NA,NA,NA,NA,NA,"勤奋","e",0.651,"",NA,1,20,100,18,1,"",NA,"",NA,NA,NA,NA,NA,NA,NA,"",NA,"",NA,NA,NA,NA,NA,NA,NA,"","","",NA,"",NA,NA,NA,NA,NA,NA,NA,"",NA,"11"
"",NA,"",NA,"",NA,NA,NA,NA,NA,NA,NA,"","",1,1,"2024-08-23_17h11.21.115","IAT(Formal)","2021.2.3","Win32",59.88023952,"",NA,"",NA,NA,NA,NA,NA,NA,NA,"","","",NA,"e",1,NA,NA,NA,NA,NA,"自己","e",0.6005,"",NA,1,21,101,73,1,"",NA,"",NA,NA,NA,NA,NA,NA,NA,"",NA,"",NA,NA,NA,NA,NA,NA,NA,"","","",NA,"",NA,NA,NA,NA,NA,NA,NA,"",NA,"11"
"",NA,"",NA,"",NA,NA,NA,NA,NA,NA,NA,"","",1,1,"2024-08-23_17h11.21.115","IAT(Formal)","2021.2.3","Win32",59.88023952,"",NA,"",NA,NA,NA,NA,NA,NA,NA,"","","",NA,"i",1,NA,NA,NA,NA,NA,"野蛮","i",0.6922,"",NA,1,22,102,46,1,"",NA,"",NA,NA,NA,NA,NA,NA,NA,"",NA,"",NA,NA,NA,NA,NA,NA,NA,"","","",NA,"",NA,NA,NA,NA,NA,NA,NA,"",NA,"11"
"",NA,"",NA,"",NA,NA,NA,NA,NA,NA,NA,"","",1,1,"2024-08-23_17h11.21.115","IAT(Formal)","2021.2.3","Win32",59.88023952,"",NA,"",NA,NA,NA,NA,NA,NA,NA,"","","",NA,"e",1,NA,NA,NA,NA,NA,"认真","e",0.6845,"",NA,1,23,103,20,1,"",NA,"",NA,NA,NA,NA,NA,NA,NA,"",NA,"",NA,NA,NA,NA,NA,NA,NA,"","","",NA,"",NA,NA,NA,NA,NA,NA,NA,"",NA,"11"
"",NA,"",NA,"",NA,NA,NA,NA,NA,NA,NA,"","",1,1,"2024-08-23_17h11.21.115","IAT(Formal)","2021.2.3","Win32",59.88023952,"",NA,"",NA,NA,NA,NA,NA,NA,NA,"","","",NA,"e",1,NA,NA,NA,NA,NA,"稳重","e",0.6745,"",NA,1,24,104,21,1,"",NA,"",NA,NA,NA,NA,NA,NA,NA,"",NA,"",NA,NA,NA,NA,NA,NA,NA,"","","",NA,"",NA,NA,NA,NA,NA,NA,NA,"",NA,"11"
"",NA,"",NA,"",NA,NA,NA,NA,NA,NA,NA,"","",1,1,"2024-08-23_17h11.21.115","IAT(Formal)","2021.2.3","Win32",59.88023952,"",NA,"",NA,NA,NA,NA,NA,NA,NA,"","","",NA,"i",1,NA,NA,NA,NA,NA,"冒失","i",0.8179,"",NA,1,25,105,39,1,"",NA,"",NA,NA,NA,NA,NA,NA,NA,"",NA,"",NA,NA,NA,NA,NA,NA,NA,"","","",NA,"",NA,NA,NA,NA,NA,NA,NA,"",NA,"11"
"",NA,"",NA,"",NA,NA,NA,NA,NA,NA,NA,"","",1,1,"2024-08-23_17h11.21.115","IAT(Formal)","2021.2.3","Win32",59.88023952,"",NA,"",NA,NA,NA,NA,NA,NA,NA,"","","",NA,"e",1,NA,NA,NA,NA,NA,"我们","e",0.5843,"",NA,1,26,106,2,1,"",NA,"",NA,NA,NA,NA,NA,NA,NA,"",NA,"",NA,NA,NA,NA,NA,NA,NA,"","","",NA,"",NA,NA,NA,NA,NA,NA,NA,"",NA,"11"
"",NA,"",NA,"",NA,NA,NA,NA,NA,NA,NA,"","",1,1,"2024-08-23_17h11.21.115","IAT(Formal)","2021.2.3","Win32",59.88023952,"",NA,"",NA,NA,NA,NA,NA,NA,NA,"","","",NA,"e",1,NA,NA,NA,NA,NA,"诚恳","e",0.867,"",NA,1,27,107,29,1,"",NA,"",NA,NA,NA,NA,NA,NA,NA,"",NA,"",NA,NA,NA,NA,NA,NA,NA,"","","",NA,"",NA,NA,NA,NA,NA,NA,NA,"",NA,"11"
"",NA,"",NA,"",NA,NA,NA,NA,NA,NA,NA,"","",1,1,"2024-08-23_17h11.21.115","IAT(Formal)","2021.2.3","Win32",59.88023952,"",NA,"",NA,NA,NA,NA,NA,NA,NA,"","","",NA,"e",1,NA,NA,NA,NA,NA,"俺","e",0.6016,"",NA,1,28,108,74,1,"",NA,"",NA,NA,NA,NA,NA,NA,NA,"",NA,"",NA,NA,NA,NA,NA,NA,NA,"","","",NA,"",NA,NA,NA,NA,NA,NA,NA,"",NA,"11"
"",NA,"",NA,"",NA,NA,NA,NA,NA,NA,NA,"","",1,1,"2024-08-23_17h11.21.115","IAT(Formal)","2021.2.3","Win32",59.88023952,"",NA,"",NA,NA,NA,NA,NA,NA,NA,"","","",NA,"i",1,NA,NA,NA,NA,NA,"他人","i",0.901,"",NA,1,29,109,68,1,"",NA,"",NA,NA,NA,NA,NA,NA,NA,"",NA,"",NA,NA,NA,NA,NA,NA,NA,"","","",NA,"",NA,NA,NA,NA,NA,NA,NA,"",NA,"11"
"",NA,"",NA,"",NA,NA,NA,NA,NA,NA,NA,"","",1,1,"2024-08-23_17h11.21.115","IAT(Formal)","2021.2.3","Win32",59.88023952,"",NA,"",NA,NA,NA,NA,NA,NA,NA,"","","",NA,"i",1,NA,NA,NA,NA,NA,"他的","i",1.086,"",NA,1,30,110,77,1,"",NA,"",NA,NA,NA,NA,NA,NA,NA,"",NA,"",NA,NA,NA,NA,NA,NA,NA,"","","",NA,"",NA,NA,NA,NA,NA,NA,NA,"",NA,"11"
"",NA,"",NA,"",NA,NA,NA,NA,NA,NA,NA,"","",1,1,"2024-08-23_17h11.21.115","IAT(Formal)","2021.2.3","Win32",59.88023952,"",NA,"",NA,NA,NA,NA,NA,NA,NA,"","","",NA,"e",1,NA,NA,NA,NA,NA,"崇高","e",0.6049,"",NA,1,31,111,11,1,"",NA,"",NA,NA,NA,NA,NA,NA,NA,"",NA,"",NA,NA,NA,NA,NA,NA,NA,"","","",NA,"",NA,NA,NA,NA,NA,NA,NA,"",NA,"11"
"",NA,"",NA,"",NA,NA,NA,NA,NA,NA,NA,"","",1,1,"2024-08-23_17h11.21.115","IAT(Formal)","2021.2.3","Win32",59.88023952,"",NA,"",NA,NA,NA,NA,NA,NA,NA,"","","",NA,"e",1,NA,NA,NA,NA,NA,"聪明","e",0.8896,"",NA,1,32,112,12,1,"",NA,"",NA,NA,NA,NA,NA,NA,NA,"",NA,"",NA,NA,NA,NA,NA,NA,NA,"","","",NA,"",NA,NA,NA,NA,NA,NA,NA,"",NA,"11"
"",NA,"",NA,"",NA,NA,NA,NA,NA,NA,NA,"","",1,1,"2024-08-23_17h11.21.115","IAT(Formal)","2021.2.3","Win32",59.88023952,"",NA,"",NA,NA,NA,NA,NA,NA,NA,"","","",NA,"i",1,NA,NA,NA,NA,NA,"其他","i",0.6863,"",NA,1,33,113,79,1,"",NA,"",NA,NA,NA,NA,NA,NA,NA,"",NA,"",NA,NA,NA,NA,NA,NA,NA,"","","",NA,"",NA,NA,NA,NA,NA,NA,NA,"",NA,"11"
"",NA,"",NA,"",NA,NA,NA,NA,NA,NA,NA,"","",1,1,"2024-08-23_17h11.21.115","IAT(Formal)","2021.2.3","Win32",59.88023952,"",NA,"",NA,NA,NA,NA,NA,NA,NA,"","","",NA,"e",1,NA,NA,NA,NA,NA,"朴实","e",0.7521,"",NA,1,34,114,24,1,"",NA,"",NA,NA,NA,NA,NA,NA,NA,"",NA,"",NA,NA,NA,NA,NA,NA,NA,"","","",NA,"",NA,NA,NA,NA,NA,NA,NA,"",NA,"11"
"",NA,"",NA,"",NA,NA,NA,NA,NA,NA,NA,"","",1,1,"2024-08-23_17h11.21.115","IAT(Formal)","2021.2.3","Win32",59.88023952,"",NA,"",NA,NA,NA,NA,NA,NA,NA,"","","",NA,"e",1,NA,NA,NA,NA,NA,"冷静","e",0.8005,"",NA,1,35,115,26,1,"",NA,"",NA,NA,NA,NA,NA,NA,NA,"",NA,"",NA,NA,NA,NA,NA,NA,NA,"","","",NA,"",NA,NA,NA,NA,NA,NA,NA,"",NA,"11"
"",NA,"",NA,"",NA,NA,NA,NA,NA,NA,NA,"","",1,1,"2024-08-23_17h11.21.115","IAT(Formal)","2021.2.3","Win32",59.88023952,"",NA,"",NA,NA,NA,NA,NA,NA,NA,"","","",NA,"e",0,NA,NA,NA,NA,NA,"自私","i",0.7017,"",NA,1,36,116,43,1,"",NA,"",NA,NA,NA,NA,NA,NA,NA,"",NA,"",NA,NA,NA,NA,NA,NA,NA,"","","",NA,"",NA,NA,NA,NA,NA,NA,NA,"",NA,"11"
"",NA,"",NA,"",NA,NA,NA,NA,NA,NA,NA,"","",1,1,"2024-08-23_17h11.21.115","IAT(Formal)","2021.2.3","Win32",59.88023952,"",NA,"",NA,NA,NA,NA,NA,NA,NA,"","","",NA,"e",1,NA,NA,NA,NA,NA,"杰出","e",0.7168,"",NA,1,37,117,13,1,"",NA,"",NA,NA,NA,NA,NA,NA,NA,"",NA,"",NA,NA,NA,NA,NA,NA,NA,"","","",NA,"",NA,NA,NA,NA,NA,NA,NA,"",NA,"11"
"",NA,"",NA,"",NA,NA,NA,NA,NA,NA,NA,"","",1,1,"2024-08-23_17h11.21.115","IAT(Formal)","2021.2.3","Win32",59.88023952,"",NA,"",NA,NA,NA,NA,NA,NA,NA,"","","",NA,"e",1,NA,NA,NA,NA,NA,"我","e",0.5168,"",NA,1,38,118,0,1,"",NA,"",NA,NA,NA,NA,NA,NA,NA,"",NA,"",NA,NA,NA,NA,NA,NA,NA,"","","",NA,"",NA,NA,NA,NA,NA,NA,NA,"",NA,"11"
"",NA,"",NA,"",NA,NA,NA,NA,NA,NA,NA,"","",1,1,"2024-08-23_17h11.21.115","IAT(Formal)","2021.2.3","Win32",59.88023952,"",NA,"",NA,NA,NA,NA,NA,NA,NA,"","","",NA,"i",1,NA,NA,NA,NA,NA,"猖狂","i",0.5565,"",NA,1,39,119,45,1,"",NA,"",NA,NA,NA,NA,NA,NA,NA,"",NA,"",NA,NA,NA,NA,NA,NA,NA,"","","",NA,"",NA,NA,NA,NA,NA,NA,NA,"",NA,"11"
"",NA,"",NA,"",NA,NA,NA,NA,NA,NA,NA,"","",1,1,"2024-08-23_17h11.21.115","IAT(Formal)","2021.2.3","Win32",59.88023952,"",NA,"",NA,NA,NA,NA,NA,NA,NA,"","","",NA,"i",1,NA,NA,NA,NA,NA,"其他","i",0.6848,"",NA,1,40,120,9,1,"",NA,"",NA,NA,NA,NA,NA,NA,NA,"",NA,"",NA,NA,NA,NA,NA,NA,NA,"","","",NA,"",NA,NA,NA,NA,NA,NA,NA,"",NA,"11"
"",NA,"",NA,"",NA,NA,NA,NA,NA,NA,NA,"","",1,1,"2024-08-23_17h11.21.115","IAT(Formal)","2021.2.3","Win32",59.88023952,"",NA,"",NA,NA,NA,NA,NA,NA,NA,"","","",NA,"i",1,NA,NA,NA,NA,NA,"悲观","i",1.2033,"",NA,1,41,121,34,1,"",NA,"",NA,NA,NA,NA,NA,NA,NA,"",NA,"",NA,NA,NA,NA,NA,NA,NA,"","","",NA,"",NA,NA,NA,NA,NA,NA,NA,"",NA,"11"
"",NA,"",NA,"",NA,NA,NA,NA,NA,NA,NA,"","",1,1,"2024-08-23_17h11.21.115","IAT(Formal)","2021.2.3","Win32",59.88023952,"",NA,"",NA,NA,NA,NA,NA,NA,NA,"","","",NA,"e",1,NA,NA,NA,NA,NA,"我的","e",0.5502,"",NA,1,42,122,71,1,"",NA,"",NA,NA,NA,NA,NA,NA,NA,"",NA,"",NA,NA,NA,NA,NA,NA,NA,"","","",NA,"",NA,NA,NA,NA,NA,NA,NA,"",NA,"11"
"",NA,"",NA,"",NA,NA,NA,NA,NA,NA,NA,"","",1,1,"2024-08-23_17h11.21.115","IAT(Formal)","2021.2.3","Win32",59.88023952,"",NA,"",NA,NA,NA,NA,NA,NA,NA,"","","",NA,"i",1,NA,NA,NA,NA,NA,"他们","i",1.1674,"",NA,1,43,123,66,1,"",NA,"",NA,NA,NA,NA,NA,NA,NA,"",NA,"",NA,NA,NA,NA,NA,NA,NA,"","","",NA,"",NA,NA,NA,NA,NA,NA,NA,"",NA,"11"
"",NA,"",NA,"",NA,NA,NA,NA,NA,NA,NA,"","",1,1,"2024-08-23_17h11.21.115","IAT(Formal)","2021.2.3","Win32",59.88023952,"",NA,"",NA,NA,NA,NA,NA,NA,NA,"","","",NA,"e",1,NA,NA,NA,NA,NA,"机智","e",0.6296,"",NA,1,44,124,19,1,"",NA,"",NA,NA,NA,NA,NA,NA,NA,"",NA,"",NA,NA,NA,NA,NA,NA,NA,"","","",NA,"",NA,NA,NA,NA,NA,NA,NA,"",NA,"11"
"",NA,"",NA,"",NA,NA,NA,NA,NA,NA,NA,"","",1,1,"2024-08-23_17h11.21.115","IAT(Formal)","2021.2.3","Win32",59.88023952,"",NA,"",NA,NA,NA,NA,NA,NA,NA,"","","",NA,"i",1,NA,NA,NA,NA,NA,"他的","i",0.6845,"",NA,1,45,125,67,1,"",NA,"",NA,NA,NA,NA,NA,NA,NA,"",NA,"",NA,NA,NA,NA,NA,NA,NA,"","","",NA,"",NA,NA,NA,NA,NA,NA,NA,"",NA,"11"
"",NA,"",NA,"",NA,NA,NA,NA,NA,NA,NA,"","",1,1,"2024-08-23_17h11.21.115","IAT(Formal)","2021.2.3","Win32",59.88023952,"",NA,"",NA,NA,NA,NA,NA,NA,NA,"","","",NA,"i",1,NA,NA,NA,NA,NA,"散漫","i",0.5539,"",NA,1,46,126,41,1,"",NA,"",NA,NA,NA,NA,NA,NA,NA,"",NA,"",NA,NA,NA,NA,NA,NA,NA,"","","",NA,"",NA,NA,NA,NA,NA,NA,NA,"",NA,"11"
"",NA,"",NA,"",NA,NA,NA,NA,NA,NA,NA,"","",1,1,"2024-08-23_17h11.21.115","IAT(Formal)","2021.2.3","Win32",59.88023952,"",NA,"",NA,NA,NA,NA,NA,NA,NA,"","","",NA,"i",1,NA,NA,NA,NA,NA,"其他","i",0.617,"",NA,1,47,127,59,1,"",NA,"",NA,NA,NA,NA,NA,NA,NA,"",NA,"",NA,NA,NA,NA,NA,NA,NA,"","","",NA,"",NA,NA,NA,NA,NA,NA,NA,"",NA,"11"
"",NA,"",NA,"",NA,NA,NA,NA,NA,NA,NA,"","",1,1,"2024-08-23_17h11.21.115","IAT(Formal)","2021.2.3","Win32",59.88023952,"",NA,"",NA,NA,NA,NA,NA,NA,NA,"","","",NA,"i",1,NA,NA,NA,NA,NA,"他人","i",0.5289,"",NA,1,48,128,8,1,"",NA,"",NA,NA,NA,NA,NA,NA,NA,"",NA,"",NA,NA,NA,NA,NA,NA,NA,"","","",NA,"",NA,NA,NA,NA,NA,NA,NA,"",NA,"11"
"",NA,"",NA,"",NA,NA,NA,NA,NA,NA,NA,"","",1,1,"2024-08-23_17h11.21.115","IAT(Formal)","2021.2.3","Win32",59.88023952,"",NA,"",NA,NA,NA,NA,NA,NA,NA,"","","",NA,"i",1,NA,NA,NA,NA,NA,"下贱","i",1.1998,"",NA,1,49,129,49,1,"",NA,"",NA,NA,NA,NA,NA,NA,NA,"",NA,"",NA,NA,NA,NA,NA,NA,NA,"","","",NA,"",NA,NA,NA,NA,NA,NA,NA,"",NA,"11"
"",NA,"",NA,"",NA,NA,NA,NA,NA,NA,NA,"","",1,1,"2024-08-23_17h11.21.115","IAT(Formal)","2021.2.3","Win32",59.88023952,"",NA,"",NA,NA,NA,NA,NA,NA,NA,"","","",NA,"e",1,NA,NA,NA,NA,NA,"俺","e",0.9666,"",NA,1,50,130,4,1,"",NA,"",NA,NA,NA,NA,NA,NA,NA,"",NA,"",NA,NA,NA,NA,NA,NA,NA,"","","",NA,"",NA,NA,NA,NA,NA,NA,NA,"",NA,"11"
"",NA,"",NA,"",NA,NA,NA,NA,NA,NA,NA,"","",1,1,"2024-08-23_17h11.21.115","IAT(Formal)","2021.2.3","Win32",59.88023952,"",NA,"",NA,NA,NA,NA,NA,NA,NA,"","","",NA,"i",1,NA,NA,NA,NA,NA,"虚伪","i",0.7242,"",NA,1,51,131,31,1,"",NA,"",NA,NA,NA,NA,NA,NA,NA,"",NA,"",NA,NA,NA,NA,NA,NA,NA,"","","",NA,"",NA,NA,NA,NA,NA,NA,NA,"",NA,"11"
"",NA,"",NA,"",NA,NA,NA,NA,NA,NA,NA,"","",1,1,"2024-08-23_17h11.21.115","IAT(Formal)","2021.2.3","Win32",59.88023952,"",NA,"",NA,NA,NA,NA,NA,NA,NA,"","","",NA,"i",1,NA,NA,NA,NA,NA,"轻率","i",0.6179,"",NA,1,52,132,48,1,"",NA,"",NA,NA,NA,NA,NA,NA,NA,"",NA,"",NA,NA,NA,NA,NA,NA,NA,"","","",NA,"",NA,NA,NA,NA,NA,NA,NA,"",NA,"11"
"",NA,"",NA,"",NA,NA,NA,NA,NA,NA,NA,"","",1,1,"2024-08-23_17h11.21.115","IAT(Formal)","2021.2.3","Win32",59.88023952,"",NA,"",NA,NA,NA,NA,NA,NA,NA,"","","",NA,"e",1,NA,NA,NA,NA,NA,"正直","e",0.5367,"",NA,1,53,133,16,1,"",NA,"",NA,NA,NA,NA,NA,NA,NA,"",NA,"",NA,NA,NA,NA,NA,NA,NA,"","","",NA,"",NA,NA,NA,NA,NA,NA,NA,"",NA,"11"
"",NA,"",NA,"",NA,NA,NA,NA,NA,NA,NA,"","",1,1,"2024-08-23_17h11.21.115","IAT(Formal)","2021.2.3","Win32",59.88023952,"",NA,"",NA,NA,NA,NA,NA,NA,NA,"","","",NA,"i",1,NA,NA,NA,NA,NA,"他们","i",0.7333,"",NA,1,54,134,56,1,"",NA,"",NA,NA,NA,NA,NA,NA,NA,"",NA,"",NA,NA,NA,NA,NA,NA,NA,"","","",NA,"",NA,NA,NA,NA,NA,NA,NA,"",NA,"11"
"",NA,"",NA,"",NA,NA,NA,NA,NA,NA,NA,"","",1,1,"2024-08-23_17h11.21.115","IAT(Formal)","2021.2.3","Win32",59.88023952,"",NA,"",NA,NA,NA,NA,NA,NA,NA,"","","",NA,"i",1,NA,NA,NA,NA,NA,"他的","i",0.6173,"",NA,1,55,135,57,1,"",NA,"",NA,NA,NA,NA,NA,NA,NA,"",NA,"",NA,NA,NA,NA,NA,NA,NA,"","","",NA,"",NA,NA,NA,NA,NA,NA,NA,"",NA,"11"
"",NA,"",NA,"",NA,NA,NA,NA,NA,NA,NA,"","",1,1,"2024-08-23_17h11.21.115","IAT(Formal)","2021.2.3","Win32",59.88023952,"",NA,"",NA,NA,NA,NA,NA,NA,NA,"","","",NA,"e",1,NA,NA,NA,NA,NA,"我的","e",0.6657,"",NA,1,56,136,51,1,"",NA,"",NA,NA,NA,NA,NA,NA,NA,"",NA,"",NA,NA,NA,NA,NA,NA,NA,"","","",NA,"",NA,NA,NA,NA,NA,NA,NA,"",NA,"11"
"",NA,"",NA,"",NA,NA,NA,NA,NA,NA,NA,"","",1,1,"2024-08-23_17h11.21.115","IAT(Formal)","2021.2.3","Win32",59.88023952,"",NA,"",NA,NA,NA,NA,NA,NA,NA,"","","",NA,"e",1,NA,NA,NA,NA,NA,"我们","e",0.67,"",NA,1,57,137,72,1,"",NA,"",NA,NA,NA,NA,NA,NA,NA,"",NA,"",NA,NA,NA,NA,NA,NA,NA,"","","",NA,"",NA,NA,NA,NA,NA,NA,NA,"",NA,"11"
"",NA,"",NA,"",NA,NA,NA,NA,NA,NA,NA,"","",1,1,"2024-08-23_17h11.21.115","IAT(Formal)","2021.2.3","Win32",59.88023952,"",NA,"",NA,NA,NA,NA,NA,NA,NA,"","","",NA,"i",1,NA,NA,NA,NA,NA,"他","i",0.731,"",NA,1,58,138,65,1,"",NA,"",NA,NA,NA,NA,NA,NA,NA,"",NA,"",NA,NA,NA,NA,NA,NA,NA,"","","",NA,"",NA,NA,NA,NA,NA,NA,NA,"",NA,"11"
"",NA,"",NA,"",NA,NA,NA,NA,NA,NA,NA,"","",1,1,"2024-08-23_17h11.21.115","IAT(Formal)","2021.2.3","Win32",59.88023952,"",NA,"",NA,NA,NA,NA,NA,NA,NA,"","","",NA,"i",1,NA,NA,NA,NA,NA,"刻薄","i",0.7003,"",NA,1,59,139,33,1,"",NA,"",NA,NA,NA,NA,NA,NA,NA,"",NA,"",NA,NA,NA,NA,NA,NA,NA,"","","",NA,"",NA,NA,NA,NA,NA,NA,NA,"",NA,"11"
"",NA,"",NA,"",NA,NA,NA,NA,NA,NA,NA,"","",1,1,"2024-08-23_17h11.21.115","IAT(Formal)","2021.2.3","Win32",59.88023952,"",NA,"",NA,NA,NA,NA,NA,NA,NA,"","","",NA,"e",1,NA,NA,NA,NA,NA,"优秀","e",0.633,"",NA,1,60,140,10,1,"",NA,"",NA,NA,NA,NA,NA,NA,NA,"",NA,"",NA,NA,NA,NA,NA,NA,NA,"","","",NA,"",NA,NA,NA,NA,NA,NA,NA,"",NA,"11"
"",NA,"",NA,"",NA,NA,NA,NA,NA,NA,NA,"","",1,1,"2024-08-23_17h11.21.115","IAT(Formal)","2021.2.3","Win32",59.88023952,"",NA,"",NA,NA,NA,NA,NA,NA,NA,"","","",NA,"i",1,NA,NA,NA,NA,NA,"鲁莽","i",0.5714,"",NA,1,61,141,38,1,"",NA,"",NA,NA,NA,NA,NA,NA,NA,"",NA,"",NA,NA,NA,NA,NA,NA,NA,"","","",NA,"",NA,NA,NA,NA,NA,NA,NA,"",NA,"11"
"",NA,"",NA,"",NA,NA,NA,NA,NA,NA,NA,"","",1,1,"2024-08-23_17h11.21.115","IAT(Formal)","2021.2.3","Win32",59.88023952,"",NA,"",NA,NA,NA,NA,NA,NA,NA,"","","",NA,"e",1,NA,NA,NA,NA,NA,"我们","e",0.6575,"",NA,1,62,142,62,1,"",NA,"",NA,NA,NA,NA,NA,NA,NA,"",NA,"",NA,NA,NA,NA,NA,NA,NA,"","","",NA,"",NA,NA,NA,NA,NA,NA,NA,"",NA,"11"
"",NA,"",NA,"",NA,NA,NA,NA,NA,NA,NA,"","",1,1,"2024-08-23_17h11.21.115","IAT(Formal)","2021.2.3","Win32",59.88023952,"",NA,"",NA,NA,NA,NA,NA,NA,NA,"","","",NA,"e",1,NA,NA,NA,NA,NA,"我的","e",0.4765,"",NA,1,63,143,1,1,"",NA,"",NA,NA,NA,NA,NA,NA,NA,"",NA,"",NA,NA,NA,NA,NA,NA,NA,"","","",NA,"",NA,NA,NA,NA,NA,NA,NA,"",NA,"11"
"",NA,"",NA,"",NA,NA,NA,NA,NA,NA,NA,"","",1,1,"2024-08-23_17h11.21.115","IAT(Formal)","2021.2.3","Win32",59.88023952,"",NA,"",NA,NA,NA,NA,NA,NA,NA,"","","",NA,"i",1,NA,NA,NA,NA,NA,"他","i",0.6497,"",NA,1,64,144,75,1,"",NA,"",NA,NA,NA,NA,NA,NA,NA,"",NA,"",NA,NA,NA,NA,NA,NA,NA,"","","",NA,"",NA,NA,NA,NA,NA,NA,NA,"",NA,"11"
"",NA,"",NA,"",NA,NA,NA,NA,NA,NA,NA,"","",1,1,"2024-08-23_17h11.21.115","IAT(Formal)","2021.2.3","Win32",59.88023952,"",NA,"",NA,NA,NA,NA,NA,NA,NA,"","","",NA,"e",1,NA,NA,NA,NA,NA,"我","e",0.5866,"",NA,1,65,145,50,1,"",NA,"",NA,NA,NA,NA,NA,NA,NA,"",NA,"",NA,NA,NA,NA,NA,NA,NA,"","","",NA,"",NA,NA,NA,NA,NA,NA,NA,"",NA,"11"
"",NA,"",NA,"",NA,NA,NA,NA,NA,NA,NA,"","",1,1,"2024-08-23_17h11.21.115","IAT(Formal)","2021.2.3","Win32",59.88023952,"",NA,"",NA,NA,NA,NA,NA,NA,NA,"","","",NA,"i",0,NA,NA,NA,NA,NA,"热情","e",0.5672,"",NA,1,66,146,27,1,"",NA,"",NA,NA,NA,NA,NA,NA,NA,"",NA,"",NA,NA,NA,NA,NA,NA,NA,"","","",NA,"",NA,NA,NA,NA,NA,NA,NA,"",NA,"11"
"",NA,"",NA,"",NA,NA,NA,NA,NA,NA,NA,"","",1,1,"2024-08-23_17h11.21.115","IAT(Formal)","2021.2.3","Win32",59.88023952,"",NA,"",NA,NA,NA,NA,NA,NA,NA,"","","",NA,"e",1,NA,NA,NA,NA,NA,"俺","e",0.5341,"",NA,1,67,147,64,1,"",NA,"",NA,NA,NA,NA,NA,NA,NA,"",NA,"",NA,NA,NA,NA,NA,NA,NA,"","","",NA,"",NA,NA,NA,NA,NA,NA,NA,"",NA,"11"
"",NA,"",NA,"",NA,NA,NA,NA,NA,NA,NA,"","",1,1,"2024-08-23_17h11.21.115","IAT(Formal)","2021.2.3","Win32",59.88023952,"",NA,"",NA,NA,NA,NA,NA,NA,NA,"","","",NA,"e",1,NA,NA,NA,NA,NA,"诚实","e",0.6054,"",NA,1,68,148,15,1,"",NA,"",NA,NA,NA,NA,NA,NA,NA,"",NA,"",NA,NA,NA,NA,NA,NA,NA,"","","",NA,"",NA,NA,NA,NA,NA,NA,NA,"",NA,"11"
"",NA,"",NA,"",NA,NA,NA,NA,NA,NA,NA,"","",1,1,"2024-08-23_17h11.21.115","IAT(Formal)","2021.2.3","Win32",59.88023952,"",NA,"",NA,NA,NA,NA,NA,NA,NA,"","","",NA,"e",1,NA,NA,NA,NA,NA,"细腻","e",0.6322,"",NA,1,69,149,25,1,"",NA,"",NA,NA,NA,NA,NA,NA,NA,"",NA,"",NA,NA,NA,NA,NA,NA,NA,"","","",NA,"",NA,NA,NA,NA,NA,NA,NA,"",NA,"11"
"",NA,"",NA,"",NA,NA,NA,NA,NA,NA,NA,"","",1,1,"2024-08-23_17h11.21.115","IAT(Formal)","2021.2.3","Win32",59.88023952,"",NA,"",NA,NA,NA,NA,NA,NA,NA,"","","",NA,"i",1,NA,NA,NA,NA,NA,"他","i",0.536,"",NA,1,70,150,5,1,"",NA,"",NA,NA,NA,NA,NA,NA,NA,"",NA,"",NA,NA,NA,NA,NA,NA,NA,"","","",NA,"",NA,NA,NA,NA,NA,NA,NA,"",NA,"11"
"",NA,"",NA,"",NA,NA,NA,NA,NA,NA,NA,"","",1,1,"2024-08-23_17h11.21.115","IAT(Formal)","2021.2.3","Win32",59.88023952,"",NA,"",NA,NA,NA,NA,NA,NA,NA,"","","",NA,"e",0,NA,NA,NA,NA,NA,"固执","i",1.0006,"",NA,1,71,151,47,1,"",NA,"",NA,NA,NA,NA,NA,NA,NA,"",NA,"",NA,NA,NA,NA,NA,NA,NA,"","","",NA,"",NA,NA,NA,NA,NA,NA,NA,"",NA,"11"
"",NA,"",NA,"",NA,NA,NA,NA,NA,NA,NA,"","",1,1,"2024-08-23_17h11.21.115","IAT(Formal)","2021.2.3","Win32",59.88023952,"",NA,"",NA,NA,NA,NA,NA,NA,NA,"","","",NA,"e",1,NA,NA,NA,NA,NA,"自己","e",0.4591,"",NA,1,72,152,3,1,"",NA,"",NA,NA,NA,NA,NA,NA,NA,"",NA,"",NA,NA,NA,NA,NA,NA,NA,"","","",NA,"",NA,NA,NA,NA,NA,NA,NA,"",NA,"11"
"",NA,"",NA,"",NA,NA,NA,NA,NA,NA,NA,"","",1,1,"2024-08-23_17h11.21.115","IAT(Formal)","2021.2.3","Win32",59.88023952,"",NA,"",NA,NA,NA,NA,NA,NA,NA,"","","",NA,"i",1,NA,NA,NA,NA,NA,"暴躁","i",0.6913,"",NA,1,73,153,44,1,"",NA,"",NA,NA,NA,NA,NA,NA,NA,"",NA,"",NA,NA,NA,NA,NA,NA,NA,"","","",NA,"",NA,NA,NA,NA,NA,NA,NA,"",NA,"11"
"",NA,"",NA,"",NA,NA,NA,NA,NA,NA,NA,"","",1,1,"2024-08-23_17h11.21.115","IAT(Formal)","2021.2.3","Win32",59.88023952,"",NA,"",NA,NA,NA,NA,NA,NA,NA,"","","",NA,"i",1,NA,NA,NA,NA,NA,"他人","i",0.6506,"",NA,1,74,154,58,1,"",NA,"",NA,NA,NA,NA,NA,NA,NA,"",NA,"",NA,NA,NA,NA,NA,NA,NA,"","","",NA,"",NA,NA,NA,NA,NA,NA,NA,"",NA,"11"
"",NA,"",NA,"",NA,NA,NA,NA,NA,NA,NA,"","",1,1,"2024-08-23_17h11.21.115","IAT(Formal)","2021.2.3","Win32",59.88023952,"",NA,"",NA,NA,NA,NA,NA,NA,NA,"","","",NA,"i",1,NA,NA,NA,NA,NA,"凶狠","i",0.6449,"",NA,1,75,155,42,1,"",NA,"",NA,NA,NA,NA,NA,NA,NA,"",NA,"",NA,NA,NA,NA,NA,NA,NA,"","","",NA,"",NA,NA,NA,NA,NA,NA,NA,"",NA,"11"
"",NA,"",NA,"",NA,NA,NA,NA,NA,NA,NA,"","",1,1,"2024-08-23_17h11.21.115","IAT(Formal)","2021.2.3","Win32",59.88023952,"",NA,"",NA,NA,NA,NA,NA,NA,NA,"","","",NA,"e",1,NA,NA,NA,NA,NA,"俺","e",0.7679,"",NA,1,76,156,54,1,"",NA,"",NA,NA,NA,NA,NA,NA,NA,"",NA,"",NA,NA,NA,NA,NA,NA,NA,"","","",NA,"",NA,NA,NA,NA,NA,NA,NA,"",NA,"11"
"",NA,"",NA,"",NA,NA,NA,NA,NA,NA,NA,"","",1,1,"2024-08-23_17h11.21.115","IAT(Formal)","2021.2.3","Win32",59.88023952,"",NA,"",NA,NA,NA,NA,NA,NA,NA,"","","",NA,"e",1,NA,NA,NA,NA,NA,"自己","e",0.6845,"",NA,1,77,157,63,1,"",NA,"",NA,NA,NA,NA,NA,NA,NA,"",NA,"",NA,NA,NA,NA,NA,NA,NA,"","","",NA,"",NA,NA,NA,NA,NA,NA,NA,"",NA,"11"
"",NA,"",NA,"",NA,NA,NA,NA,NA,NA,NA,"","",1,1,"2024-08-23_17h11.21.115","IAT(Formal)","2021.2.3","Win32",59.88023952,"",NA,"",NA,NA,NA,NA,NA,NA,NA,"","","",NA,"e",1,NA,NA,NA,NA,NA,"自己","e",0.5618,"",NA,1,78,158,53,1,"",NA,"",NA,NA,NA,NA,NA,NA,NA,"",NA,"",NA,NA,NA,NA,NA,NA,NA,"","","",NA,"",NA,NA,NA,NA,NA,NA,NA,"",NA,"11"
"",NA,"",NA,"",NA,NA,NA,NA,NA,NA,NA,"","",1,1,"2024-08-23_17h11.21.115","IAT(Formal)","2021.2.3","Win32",59.88023952,"",NA,"",NA,NA,NA,NA,NA,NA,NA,"","","",NA,"i",1,NA,NA,NA,NA,NA,"自卑","i",0.8252,"",NA,1,79,159,36,1,"",NA,"",NA,NA,NA,NA,NA,NA,NA,"",NA,"",NA,NA,NA,NA,NA,NA,NA,"","","",NA,"",NA,NA,NA,NA,NA,NA,NA,"",NA,"11"
"",NA,"",NA,"",NA,NA,NA,NA,NA,NA,NA,"我","i",1,1,"2024-08-23_17h11.21.115","IAT(Formal)","2021.2.3","Win32",59.88023952,"",NA,"",NA,NA,NA,NA,NA,NA,NA,"","","",NA,"",NA,NA,NA,NA,NA,NA,"","",NA,"",NA,NA,NA,NA,NA,NA,"space",13.75,"i",1,0.8028,0,0,0,0,1,"",NA,"",NA,NA,NA,NA,NA,NA,NA,"","","",NA,"",NA,NA,NA,NA,NA,NA,NA,"",NA,"11"
"",NA,"",NA,"",NA,NA,NA,NA,NA,NA,NA,"他们","e",1,1,"2024-08-23_17h11.21.115","IAT(Formal)","2021.2.3","Win32",59.88023952,"",NA,"",NA,NA,NA,NA,NA,NA,NA,"","","",NA,"",NA,NA,NA,NA,NA,NA,"","",NA,"",NA,NA,NA,NA,NA,NA,"",NA,"e",1,0.5994,0,1,1,6,1,"",NA,"",NA,NA,NA,NA,NA,NA,NA,"","","",NA,"",NA,NA,NA,NA,NA,NA,NA,"",NA,"11"
"",NA,"",NA,"",NA,NA,NA,NA,NA,NA,NA,"自己","i",1,1,"2024-08-23_17h11.21.115","IAT(Formal)","2021.2.3","Win32",59.88023952,"",NA,"",NA,NA,NA,NA,NA,NA,NA,"","","",NA,"",NA,NA,NA,NA,NA,NA,"","",NA,"",NA,NA,NA,NA,NA,NA,"",NA,"i",1,0.8012,0,2,2,3,1,"",NA,"",NA,NA,NA,NA,NA,NA,NA,"","","",NA,"",NA,NA,NA,NA,NA,NA,NA,"",NA,"11"
"",NA,"",NA,"",NA,NA,NA,NA,NA,NA,NA,"他","e",1,1,"2024-08-23_17h11.21.115","IAT(Formal)","2021.2.3","Win32",59.88023952,"",NA,"",NA,NA,NA,NA,NA,NA,NA,"","","",NA,"",NA,NA,NA,NA,NA,NA,"","",NA,"",NA,NA,NA,NA,NA,NA,"",NA,"e",1,0.7618,0,3,3,5,1,"",NA,"",NA,NA,NA,NA,NA,NA,NA,"","","",NA,"",NA,NA,NA,NA,NA,NA,NA,"",NA,"11"
"",NA,"",NA,"",NA,NA,NA,NA,NA,NA,NA,"其他","e",1,1,"2024-08-23_17h11.21.115","IAT(Formal)","2021.2.3","Win32",59.88023952,"",NA,"",NA,NA,NA,NA,NA,NA,NA,"","","",NA,"",NA,NA,NA,NA,NA,NA,"","",NA,"",NA,NA,NA,NA,NA,NA,"",NA,"i",0,1.1045,0,4,4,9,1,"",NA,"",NA,NA,NA,NA,NA,NA,NA,"","","",NA,"",NA,NA,NA,NA,NA,NA,NA,"",NA,"11"
"",NA,"",NA,"",NA,NA,NA,NA,NA,NA,NA,"我们","i",1,1,"2024-08-23_17h11.21.115","IAT(Formal)","2021.2.3","Win32",59.88023952,"",NA,"",NA,NA,NA,NA,NA,NA,NA,"","","",NA,"",NA,NA,NA,NA,NA,NA,"","",NA,"",NA,NA,NA,NA,NA,NA,"",NA,"e",0,1.3932,0,5,5,2,1,"",NA,"",NA,NA,NA,NA,NA,NA,NA,"","","",NA,"",NA,NA,NA,NA,NA,NA,NA,"",NA,"11"
"",NA,"",NA,"",NA,NA,NA,NA,NA,NA,NA,"我的","i",1,1,"2024-08-23_17h11.21.115","IAT(Formal)","2021.2.3","Win32",59.88023952,"",NA,"",NA,NA,NA,NA,NA,NA,NA,"","","",NA,"",NA,NA,NA,NA,NA,NA,"","",NA,"",NA,NA,NA,NA,NA,NA,"",NA,"e",0,1.1534,0,6,6,1,1,"",NA,"",NA,NA,NA,NA,NA,NA,NA,"","","",NA,"",NA,NA,NA,NA,NA,NA,NA,"",NA,"11"
"",NA,"",NA,"",NA,NA,NA,NA,NA,NA,NA,"俺","i",1,1,"2024-08-23_17h11.21.115","IAT(Formal)","2021.2.3","Win32",59.88023952,"",NA,"",NA,NA,NA,NA,NA,NA,NA,"","","",NA,"",NA,NA,NA,NA,NA,NA,"","",NA,"",NA,NA,NA,NA,NA,NA,"",NA,"i",1,0.7416,0,7,7,4,1,"",NA,"",NA,NA,NA,NA,NA,NA,NA,"","","",NA,"",NA,NA,NA,NA,NA,NA,NA,"",NA,"11"
"",NA,"",NA,"",NA,NA,NA,NA,NA,NA,NA,"他人","e",1,1,"2024-08-23_17h11.21.115","IAT(Formal)","2021.2.3","Win32",59.88023952,"",NA,"",NA,NA,NA,NA,NA,NA,NA,"","","",NA,"",NA,NA,NA,NA,NA,NA,"","",NA,"",NA,NA,NA,NA,NA,NA,"",NA,"e",1,0.7676,0,8,8,8,1,"",NA,"",NA,NA,NA,NA,NA,NA,NA,"","","",NA,"",NA,NA,NA,NA,NA,NA,NA,"",NA,"11"
"",NA,"",NA,"",NA,NA,NA,NA,NA,NA,NA,"他的","e",1,1,"2024-08-23_17h11.21.115","IAT(Formal)","2021.2.3","Win32",59.88023952,"",NA,"",NA,NA,NA,NA,NA,NA,NA,"","","",NA,"",NA,NA,NA,NA,NA,NA,"","",NA,"",NA,NA,NA,NA,NA,NA,"",NA,"i",0,0.6652,0,9,9,7,1,"",NA,"",NA,NA,NA,NA,NA,NA,NA,"","","",NA,"",NA,NA,NA,NA,NA,NA,NA,"",NA,"11"
"",NA,"",NA,"",NA,NA,NA,NA,NA,NA,NA,"","",1,1,"2024-08-23_17h11.21.115","IAT(Formal)","2021.2.3","Win32",59.88023952,"",NA,"",NA,NA,NA,NA,NA,NA,NA,"","","",NA,"",NA,NA,NA,NA,NA,NA,"","",NA,"",NA,NA,NA,NA,NA,NA,"",NA,"",NA,NA,NA,NA,NA,NA,NA,"space",8.7768,"e",1,0.9181,0,0,0,5,1,"他","e","",NA,"",NA,NA,NA,NA,NA,NA,NA,"",NA,"11"
"",NA,"",NA,"",NA,NA,NA,NA,NA,NA,NA,"","",1,1,"2024-08-23_17h11.21.115","IAT(Formal)","2021.2.3","Win32",59.88023952,"",NA,"",NA,NA,NA,NA,NA,NA,NA,"","","",NA,"",NA,NA,NA,NA,NA,NA,"","",NA,"",NA,NA,NA,NA,NA,NA,"",NA,"",NA,NA,NA,NA,NA,NA,NA,"",NA,"i",1,0.7715,0,1,1,64,1,"俺","i","",NA,"",NA,NA,NA,NA,NA,NA,NA,"",NA,"11"
"",NA,"",NA,"",NA,NA,NA,NA,NA,NA,NA,"","",1,1,"2024-08-23_17h11.21.115","IAT(Formal)","2021.2.3","Win32",59.88023952,"",NA,"",NA,NA,NA,NA,NA,NA,NA,"","","",NA,"",NA,NA,NA,NA,NA,NA,"","",NA,"",NA,NA,NA,NA,NA,NA,"",NA,"",NA,NA,NA,NA,NA,NA,NA,"",NA,"i",0,1.0185,0,2,2,19,1,"机智","e","",NA,"",NA,NA,NA,NA,NA,NA,NA,"",NA,"11"
"",NA,"",NA,"",NA,NA,NA,NA,NA,NA,NA,"","",1,1,"2024-08-23_17h11.21.115","IAT(Formal)","2021.2.3","Win32",59.88023952,"",NA,"",NA,NA,NA,NA,NA,NA,NA,"","","",NA,"",NA,NA,NA,NA,NA,NA,"","",NA,"",NA,NA,NA,NA,NA,NA,"",NA,"",NA,NA,NA,NA,NA,NA,NA,"",NA,"e",0,1.2725,0,3,3,30,1,"卑鄙","i","",NA,"",NA,NA,NA,NA,NA,NA,NA,"",NA,"11"
"",NA,"",NA,"",NA,NA,NA,NA,NA,NA,NA,"","",1,1,"2024-08-23_17h11.21.115","IAT(Formal)","2021.2.3","Win32",59.88023952,"",NA,"",NA,NA,NA,NA,NA,NA,NA,"","","",NA,"",NA,NA,NA,NA,NA,NA,"","",NA,"",NA,NA,NA,NA,NA,NA,"",NA,"",NA,NA,NA,NA,NA,NA,NA,"",NA,"e",1,1.1849,0,4,4,22,1,"无私","e","",NA,"",NA,NA,NA,NA,NA,NA,NA,"",NA,"11"
