﻿Instruction1.keys,Instruction1.rt,Instruction2.keys,Instruction2.rt,key_resp_iso.keys,key_resp_iso.corr,key_resp_iso.rt,Practice_01.thisRepN,Practice_01.thisTrialN,Practice_01.thisN,Practice_01.thisIndex,Practice_01.ran,Words,ans,participant,session,date,expName,psychopyVersion,OS,frameRate,key_resp_3.keys,key_resp_3.rt,key_resp_ipn.keys,key_resp_ipn.corr,key_resp_ipn.rt,Practice_02.thisRepN,Practice_02.thisTrialN,Practice_02.thisN,Practice_02.thisIndex,Practice_02.ran,Words_ipn,ans_ipn,key_resp_4.keys,key_resp_4.rt,key_resp_t1.keys,key_resp_t1.corr,Practice_T1.thisRepN,Practice_T1.thisTrialN,Practice_T1.thisN,Practice_T1.thisIndex,Practice_T1.ran,Words_t1,ans_t1,key_resp_t1.rt,key_resp_5.keys,key_resp_5.rt,Formal_T1.thisRepN,Formal_T1.thisTrialN,Formal_T1.thisN,Formal_T1.thisIndex,Formal_T1.ran,key_resp_6.keys,key_resp_6.rt,key_resp_iso_reverse.keys,key_resp_iso_reverse.corr,key_resp_iso_reverse.rt,Practice_iso_Reverse.thisRepN,Practice_iso_Reverse.thisTrialN,Practice_iso_Reverse.thisN,Practice_iso_Reverse.thisIndex,Practice_iso_Reverse.ran,key_resp_7.keys,key_resp_7.rt,key_resp_t2_Practice.keys,key_resp_t2_Practice.corr,key_resp_t2_Practice.rt,Practice_t2_Reverse.thisRepN,Practice_t2_Reverse.thisTrialN,Practice_t2_Reverse.thisN,Practice_t2_Reverse.thisIndex,Practice_t2_Reverse.ran,Words_t2,ans_t2,key_resp_8.keys,key_resp_8.rt,key_resp_t2.keys,key_resp_t2.corr,key_resp_t2.rt,Formal_t2_reverse.thisRepN,Formal_t2_reverse.thisTrialN,Formal_t2_reverse.thisN,Formal_t2_reverse.thisIndex,Formal_t2_reverse.ran,key_instruct.keys,key_instruct.rt
space,8.4309,space,11.2748,e,1,0.7287,0,0,0,2,1,我们,e,1,001,2024-08-23_17h11.21.115,IAT(Formal),2021.2.3,Win32,59.88023952,,,,,,,,,,,,,,,,,,,,,,,,,,,,,,,,,,,,,,,,,,,,,,,,,,,,,,,,,,,,,,,,,
,,,,e,1,0.5666,0,1,1,3,1,自己,e,1,001,2024-08-23_17h11.21.115,IAT(Formal),2021.2.3,Win32,59.88023952,,,,,,,,,,,,,,,,,,,,,,,,,,,,,,,,,,,,,,,,,,,,,,,,,,,,,,,,,,,,,,,,,
,,,,e,1,0.5931,0,2,2,0,1,我,e,1,001,2024-08-23_17h11.21.115,IAT(Formal),2021.2.3,Win32,59.88023952,,,,,,,,,,,,,,,,,,,,,,,,,,,,,,,,,,,,,,,,,,,,,,,,,,,,,,,,,,,,,,,,,
,,,,i,1,0.5092,0,3,3,5,1,他,i,1,001,2024-08-23_17h11.21.115,IAT(Formal),2021.2.3,Win32,59.88023952,,,,,,,,,,,,,,,,,,,,,,,,,,,,,,,,,,,,,,,,,,,,,,,,,,,,,,,,,,,,,,,,,
,,,,e,1,0.964,0,4,4,4,1,俺,e,1,001,2024-08-23_17h11.21.115,IAT(Formal),2021.2.3,Win32,59.88023952,,,,,,,,,,,,,,,,,,,,,,,,,,,,,,,,,,,,,,,,,,,,,,,,,,,,,,,,,,,,,,,,,
,,,,i,1,0.7206,0,5,5,9,1,其他,i,1,001,2024-08-23_17h11.21.115,IAT(Formal),2021.2.3,Win32,59.88023952,,,,,,,,,,,,,,,,,,,,,,,,,,,,,,,,,,,,,,,,,,,,,,,,,,,,,,,,,,,,,,,,,
,,,,i,1,0.5368,0,6,6,8,1,他人,i,1,001,2024-08-23_17h11.21.115,IAT(Formal),2021.2.3,Win32,59.88023952,,,,,,,,,,,,,,,,,,,,,,,,,,,,,,,,,,,,,,,,,,,,,,,,,,,,,,,,,,,,,,,,,
,,,,e,1,0.5911,0,7,7,1,1,我的,e,1,001,2024-08-23_17h11.21.115,IAT(Formal),2021.2.3,Win32,59.88023952,,,,,,,,,,,,,,,,,,,,,,,,,,,,,,,,,,,,,,,,,,,,,,,,,,,,,,,,,,,,,,,,,
,,,,i,1,0.512,0,8,8,6,1,他们,i,1,001,2024-08-23_17h11.21.115,IAT(Formal),2021.2.3,Win32,59.88023952,,,,,,,,,,,,,,,,,,,,,,,,,,,,,,,,,,,,,,,,,,,,,,,,,,,,,,,,,,,,,,,,,
,,,,i,1,0.5585,0,9,9,7,1,他的,i,1,001,2024-08-23_17h11.21.115,IAT(Formal),2021.2.3,Win32,59.88023952,,,,,,,,,,,,,,,,,,,,,,,,,,,,,,,,,,,,,,,,,,,,,,,,,,,,,,,,,,,,,,,,,
,,,,,,,,,,,,,,1,001,2024-08-23_17h11.21.115,IAT(Formal),2021.2.3,Win32,59.88023952,space,3.079,e,1,1.3992,0,0,0,12,1,无私,e,,,,,,,,,,,,,,,,,,,,,,,,,,,,,,,,,,,,,,,,,,,,,,,,,,,,,
,,,,,,,,,,,,,,1,001,2024-08-23_17h11.21.115,IAT(Formal),2021.2.3,Win32,59.88023952,,,e,1,0.6436,0,1,1,17,1,热情,e,,,,,,,,,,,,,,,,,,,,,,,,,,,,,,,,,,,,,,,,,,,,,,,,,,,,,
,,,,,,,,,,,,,,1,001,2024-08-23_17h11.21.115,IAT(Formal),2021.2.3,Win32,59.88023952,,,i,1,0.5448,0,2,2,38,1,轻率,i,,,,,,,,,,,,,,,,,,,,,,,,,,,,,,,,,,,,,,,,,,,,,,,,,,,,,
,,,,,,,,,,,,,,1,001,2024-08-23_17h11.21.115,IAT(Formal),2021.2.3,Win32,59.88023952,,,e,1,0.8023,0,3,3,2,1,聪明,e,,,,,,,,,,,,,,,,,,,,,,,,,,,,,,,,,,,,,,,,,,,,,,,,,,,,,
,,,,,,,,,,,,,,1,001,2024-08-23_17h11.21.115,IAT(Formal),2021.2.3,Win32,59.88023952,,,e,1,0.6856,0,4,4,16,1,冷静,e,,,,,,,,,,,,,,,,,,,,,,,,,,,,,,,,,,,,,,,,,,,,,,,,,,,,,
,,,,,,,,,,,,,,1,001,2024-08-23_17h11.21.115,IAT(Formal),2021.2.3,Win32,59.88023952,,,i,1,0.5682,0,5,5,22,1,愚蠢,i,,,,,,,,,,,,,,,,,,,,,,,,,,,,,,,,,,,,,,,,,,,,,,,,,,,,,
,,,,,,,,,,,,,,1,001,2024-08-23_17h11.21.115,IAT(Formal),2021.2.3,Win32,59.88023952,,,i,1,0.748,0,6,6,26,1,自卑,i,,,,,,,,,,,,,,,,,,,,,,,,,,,,,,,,,,,,,,,,,,,,,,,,,,,,,
,,,,,,,,,,,,,,1,001,2024-08-23_17h11.21.115,IAT(Formal),2021.2.3,Win32,59.88023952,,,e,1,0.7928,0,7,7,18,1,活泼,e,,,,,,,,,,,,,,,,,,,,,,,,,,,,,,,,,,,,,,,,,,,,,,,,,,,,,
,,,,,,,,,,,,,,1,001,2024-08-23_17h11.21.115,IAT(Formal),2021.2.3,Win32,59.88023952,,,e,0,0.8264,0,8,8,27,1,傲慢,i,,,,,,,,,,,,,,,,,,,,,,,,,,,,,,,,,,,,,,,,,,,,,,,,,,,,,
,,,,,,,,,,,,,,1,001,2024-08-23_17h11.21.115,IAT(Formal),2021.2.3,Win32,59.88023952,,,i,1,0.6523,0,9,9,35,1,猖狂,i,,,,,,,,,,,,,,,,,,,,,,,,,,,,,,,,,,,,,,,,,,,,,,,,,,,,,
,,,,,,,,,,,,,,1,001,2024-08-23_17h11.21.115,IAT(Formal),2021.2.3,Win32,59.88023952,,,e,1,0.844,0,10,10,3,1,杰出,e,,,,,,,,,,,,,,,,,,,,,,,,,,,,,,,,,,,,,,,,,,,,,,,,,,,,,
,,,,,,,,,,,,,,1,001,2024-08-23_17h11.21.115,IAT(Formal),2021.2.3,Win32,59.88023952,,,i,1,0.6695,0,11,11,25,1,消极,i,,,,,,,,,,,,,,,,,,,,,,,,,,,,,,,,,,,,,,,,,,,,,,,,,,,,,
,,,,,,,,,,,,,,1,001,2024-08-23_17h11.21.115,IAT(Formal),2021.2.3,Win32,59.88023952,,,,0,,0,12,12,36,1,野蛮,i,,,,,,,,,,,,,,,,,,,,,,,,,,,,,,,,,,,,,,,,,,,,,,,,,,,,,
,,,,,,,,,,,,,,1,001,2024-08-23_17h11.21.115,IAT(Formal),2021.2.3,Win32,59.88023952,,,e,1,0.5891,0,13,13,15,1,细腻,e,,,,,,,,,,,,,,,,,,,,,,,,,,,,,,,,,,,,,,,,,,,,,,,,,,,,,
,,,,,,,,,,,,,,1,001,2024-08-23_17h11.21.115,IAT(Formal),2021.2.3,Win32,59.88023952,,,i,1,0.7181,0,14,14,33,1,自私,i,,,,,,,,,,,,,,,,,,,,,,,,,,,,,,,,,,,,,,,,,,,,,,,,,,,,,
,,,,,,,,,,,,,,1,001,2024-08-23_17h11.21.115,IAT(Formal),2021.2.3,Win32,59.88023952,,,i,1,0.957,0,15,15,20,1,卑鄙,i,,,,,,,,,,,,,,,,,,,,,,,,,,,,,,,,,,,,,,,,,,,,,,,,,,,,,
,,,,,,,,,,,,,,1,001,2024-08-23_17h11.21.115,IAT(Formal),2021.2.3,Win32,59.88023952,,,i,1,0.5092,0,16,16,32,1,凶狠,i,,,,,,,,,,,,,,,,,,,,,,,,,,,,,,,,,,,,,,,,,,,,,,,,,,,,,
,,,,,,,,,,,,,,1,001,2024-08-23_17h11.21.115,IAT(Formal),2021.2.3,Win32,59.88023952,,,i,1,0.5703,0,17,17,37,1,固执,i,,,,,,,,,,,,,,,,,,,,,,,,,,,,,,,,,,,,,,,,,,,,,,,,,,,,,
,,,,,,,,,,,,,,1,001,2024-08-23_17h11.21.115,IAT(Formal),2021.2.3,Win32,59.88023952,,,e,1,0.6302,0,18,18,5,1,诚实,e,,,,,,,,,,,,,,,,,,,,,,,,,,,,,,,,,,,,,,,,,,,,,,,,,,,,,
,,,,,,,,,,,,,,1,001,2024-08-23_17h11.21.115,IAT(Formal),2021.2.3,Win32,59.88023952,,,e,1,0.6809,0,19,19,14,1,朴实,e,,,,,,,,,,,,,,,,,,,,,,,,,,,,,,,,,,,,,,,,,,,,,,,,,,,,,
,,,,,,,,,,,,,,1,001,2024-08-23_17h11.21.115,IAT(Formal),2021.2.3,Win32,59.88023952,,,e,1,0.6961,0,20,20,1,1,崇高,e,,,,,,,,,,,,,,,,,,,,,,,,,,,,,,,,,,,,,,,,,,,,,,,,,,,,,
,,,,,,,,,,,,,,1,001,2024-08-23_17h11.21.115,IAT(Formal),2021.2.3,Win32,59.88023952,,,e,1,0.5299,0,21,21,6,1,正直,e,,,,,,,,,,,,,,,,,,,,,,,,,,,,,,,,,,,,,,,,,,,,,,,,,,,,,
,,,,,,,,,,,,,,1,001,2024-08-23_17h11.21.115,IAT(Formal),2021.2.3,Win32,59.88023952,,,e,1,0.5715,0,22,22,10,1,认真,e,,,,,,,,,,,,,,,,,,,,,,,,,,,,,,,,,,,,,,,,,,,,,,,,,,,,,
,,,,,,,,,,,,,,1,001,2024-08-23_17h11.21.115,IAT(Formal),2021.2.3,Win32,59.88023952,,,e,1,0.5517,0,23,23,8,1,勤奋,e,,,,,,,,,,,,,,,,,,,,,,,,,,,,,,,,,,,,,,,,,,,,,,,,,,,,,
,,,,,,,,,,,,,,1,001,2024-08-23_17h11.21.115,IAT(Formal),2021.2.3,Win32,59.88023952,,,e,1,0.5144,0,24,24,4,1,乐观,e,,,,,,,,,,,,,,,,,,,,,,,,,,,,,,,,,,,,,,,,,,,,,,,,,,,,,
,,,,,,,,,,,,,,1,001,2024-08-23_17h11.21.115,IAT(Formal),2021.2.3,Win32,59.88023952,,,i,1,0.696,0,25,25,23,1,刻薄,i,,,,,,,,,,,,,,,,,,,,,,,,,,,,,,,,,,,,,,,,,,,,,,,,,,,,,
,,,,,,,,,,,,,,1,001,2024-08-23_17h11.21.115,IAT(Formal),2021.2.3,Win32,59.88023952,,,i,1,1.2474,0,26,26,24,1,悲观,i,,,,,,,,,,,,,,,,,,,,,,,,,,,,,,,,,,,,,,,,,,,,,,,,,,,,,
,,,,,,,,,,,,,,1,001,2024-08-23_17h11.21.115,IAT(Formal),2021.2.3,Win32,59.88023952,,,i,1,0.7478,0,27,27,31,1,散漫,i,,,,,,,,,,,,,,,,,,,,,,,,,,,,,,,,,,,,,,,,,,,,,,,,,,,,,
,,,,,,,,,,,,,,1,001,2024-08-23_17h11.21.115,IAT(Formal),2021.2.3,Win32,59.88023952,,,i,1,0.9663,0,28,28,30,1,执拗,i,,,,,,,,,,,,,,,,,,,,,,,,,,,,,,,,,,,,,,,,,,,,,,,,,,,,,
,,,,,,,,,,,,,,1,001,2024-08-23_17h11.21.115,IAT(Formal),2021.2.3,Win32,59.88023952,,,i,1,0.6905,0,29,29,39,1,下贱,i,,,,,,,,,,,,,,,,,,,,,,,,,,,,,,,,,,,,,,,,,,,,,,,,,,,,,
,,,,,,,,,,,,,,1,001,2024-08-23_17h11.21.115,IAT(Formal),2021.2.3,Win32,59.88023952,,,i,1,0.5634,0,30,30,28,1,鲁莽,i,,,,,,,,,,,,,,,,,,,,,,,,,,,,,,,,,,,,,,,,,,,,,,,,,,,,,
,,,,,,,,,,,,,,1,001,2024-08-23_17h11.21.115,IAT(Formal),2021.2.3,Win32,59.88023952,,,i,1,0.5488,0,31,31,34,1,暴躁,i,,,,,,,,,,,,,,,,,,,,,,,,,,,,,,,,,,,,,,,,,,,,,,,,,,,,,
,,,,,,,,,,,,,,1,001,2024-08-23_17h11.21.115,IAT(Formal),2021.2.3,Win32,59.88023952,,,e,1,0.6298,0,32,32,9,1,机智,e,,,,,,,,,,,,,,,,,,,,,,,,,,,,,,,,,,,,,,,,,,,,,,,,,,,,,
,,,,,,,,,,,,,,1,001,2024-08-23_17h11.21.115,IAT(Formal),2021.2.3,Win32,59.88023952,,,e,1,0.7674,0,33,33,0,1,优秀,e,,,,,,,,,,,,,,,,,,,,,,,,,,,,,,,,,,,,,,,,,,,,,,,,,,,,,
,,,,,,,,,,,,,,1,001,2024-08-23_17h11.21.115,IAT(Formal),2021.2.3,Win32,59.88023952,,,e,1,0.6034,0,34,34,19,1,诚恳,e,,,,,,,,,,,,,,,,,,,,,,,,,,,,,,,,,,,,,,,,,,,,,,,,,,,,,
,,,,,,,,,,,,,,1,001,2024-08-23_17h11.21.115,IAT(Formal),2021.2.3,Win32,59.88023952,,,i,1,0.6369,0,35,35,29,1,冒失,i,,,,,,,,,,,,,,,,,,,,,,,,,,,,,,,,,,,,,,,,,,,,,,,,,,,,,
,,,,,,,,,,,,,,1,001,2024-08-23_17h11.21.115,IAT(Formal),2021.2.3,Win32,59.88023952,,,e,1,0.8572,0,36,36,11,1,稳重,e,,,,,,,,,,,,,,,,,,,,,,,,,,,,,,,,,,,,,,,,,,,,,,,,,,,,,
,,,,,,,,,,,,,,1,001,2024-08-23_17h11.21.115,IAT(Formal),2021.2.3,Win32,59.88023952,,,e,1,0.8959,0,37,37,13,1,公正,e,,,,,,,,,,,,,,,,,,,,,,,,,,,,,,,,,,,,,,,,,,,,,,,,,,,,,
,,,,,,,,,,,,,,1,001,2024-08-23_17h11.21.115,IAT(Formal),2021.2.3,Win32,59.88023952,,,e,1,0.6094,0,38,38,7,1,勇敢,e,,,,,,,,,,,,,,,,,,,,,,,,,,,,,,,,,,,,,,,,,,,,,,,,,,,,,
,,,,,,,,,,,,,,1,001,2024-08-23_17h11.21.115,IAT(Formal),2021.2.3,Win32,59.88023952,,,i,1,0.5874,0,39,39,21,1,虚伪,i,,,,,,,,,,,,,,,,,,,,,,,,,,,,,,,,,,,,,,,,,,,,,,,,,,,,,
,,,,,,,,,,,,,,1,001,2024-08-23_17h11.21.115,IAT(Formal),2021.2.3,Win32,59.88023952,,,,,,,,,,,,,space,11.0105,,0,0,0,0,47,1,固执,i,,,,,,,,,,,,,,,,,,,,,,,,,,,,,,,,,,,,,,,,,,
,,,,,,,,,,,,,,1,001,2024-08-23_17h11.21.115,IAT(Formal),2021.2.3,Win32,59.88023952,,,,,,,,,,,,,,,i,1,0,1,1,40,1,执拗,i,0.6927,,,,,,,,,,,,,,,,,,,,,,,,,,,,,,,,,,,,,,,,,
,,,,,,,,,,,,,,1,001,2024-08-23_17h11.21.115,IAT(Formal),2021.2.3,Win32,59.88023952,,,,,,,,,,,,,,,i,1,0,2,2,32,1,愚蠢,i,1.2129,,,,,,,,,,,,,,,,,,,,,,,,,,,,,,,,,,,,,,,,,
,,,,,,,,,,,,,,1,001,2024-08-23_17h11.21.115,IAT(Formal),2021.2.3,Win32,59.88023952,,,,,,,,,,,,,,,e,1,0,3,3,0,1,我,e,1.1433,,,,,,,,,,,,,,,,,,,,,,,,,,,,,,,,,,,,,,,,,
,,,,,,,,,,,,,,1,001,2024-08-23_17h11.21.115,IAT(Formal),2021.2.3,Win32,59.88023952,,,,,,,,,,,,,,,i,1,0,4,4,36,1,自卑,i,0.808,,,,,,,,,,,,,,,,,,,,,,,,,,,,,,,,,,,,,,,,,
,,,,,,,,,,,,,,1,001,2024-08-23_17h11.21.115,IAT(Formal),2021.2.3,Win32,59.88023952,,,,,,,,,,,,,,,i,1,0,5,5,42,1,凶狠,i,0.7298,,,,,,,,,,,,,,,,,,,,,,,,,,,,,,,,,,,,,,,,,
,,,,,,,,,,,,,,1,001,2024-08-23_17h11.21.115,IAT(Formal),2021.2.3,Win32,59.88023952,,,,,,,,,,,,,,,i,0,0,6,6,13,1,杰出,e,1.0349,,,,,,,,,,,,,,,,,,,,,,,,,,,,,,,,,,,,,,,,,
,,,,,,,,,,,,,,1,001,2024-08-23_17h11.21.115,IAT(Formal),2021.2.3,Win32,59.88023952,,,,,,,,,,,,,,,i,1,0,7,7,31,1,虚伪,i,0.7215,,,,,,,,,,,,,,,,,,,,,,,,,,,,,,,,,,,,,,,,,
,,,,,,,,,,,,,,1,001,2024-08-23_17h11.21.115,IAT(Formal),2021.2.3,Win32,59.88023952,,,,,,,,,,,,,,,i,1,0,8,8,49,1,下贱,i,0.6276,,,,,,,,,,,,,,,,,,,,,,,,,,,,,,,,,,,,,,,,,
,,,,,,,,,,,,,,1,001,2024-08-23_17h11.21.115,IAT(Formal),2021.2.3,Win32,59.88023952,,,,,,,,,,,,,,,e,1,0,9,9,74,1,俺,e,0.5111,,,,,,,,,,,,,,,,,,,,,,,,,,,,,,,,,,,,,,,,,
,,,,,,,,,,,,,,1,001,2024-08-23_17h11.21.115,IAT(Formal),2021.2.3,Win32,59.88023952,,,,,,,,,,,,,,,e,1,0,10,10,22,1,无私,e,0.784,,,,,,,,,,,,,,,,,,,,,,,,,,,,,,,,,,,,,,,,,
,,,,,,,,,,,,,,1,001,2024-08-23_17h11.21.115,IAT(Formal),2021.2.3,Win32,59.88023952,,,,,,,,,,,,,,,e,1,0,11,11,71,1,我的,e,0.4521,,,,,,,,,,,,,,,,,,,,,,,,,,,,,,,,,,,,,,,,,
,,,,,,,,,,,,,,1,001,2024-08-23_17h11.21.115,IAT(Formal),2021.2.3,Win32,59.88023952,,,,,,,,,,,,,,,e,1,0,12,12,23,1,公正,e,0.5866,,,,,,,,,,,,,,,,,,,,,,,,,,,,,,,,,,,,,,,,,
,,,,,,,,,,,,,,1,001,2024-08-23_17h11.21.115,IAT(Formal),2021.2.3,Win32,59.88023952,,,,,,,,,,,,,,,i,1,0,13,13,67,1,他的,i,0.5811,,,,,,,,,,,,,,,,,,,,,,,,,,,,,,,,,,,,,,,,,
,,,,,,,,,,,,,,1,001,2024-08-23_17h11.21.115,IAT(Formal),2021.2.3,Win32,59.88023952,,,,,,,,,,,,,,,e,1,0,14,14,70,1,我,e,0.5932,,,,,,,,,,,,,,,,,,,,,,,,,,,,,,,,,,,,,,,,,
,,,,,,,,,,,,,,1,001,2024-08-23_17h11.21.115,IAT(Formal),2021.2.3,Win32,59.88023952,,,,,,,,,,,,,,,i,1,0,15,15,76,1,他们,i,0.6744,,,,,,,,,,,,,,,,,,,,,,,,,,,,,,,,,,,,,,,,,
,,,,,,,,,,,,,,1,001,2024-08-23_17h11.21.115,IAT(Formal),2021.2.3,Win32,59.88023952,,,,,,,,,,,,,,,i,1,0,16,16,39,1,冒失,i,0.8146,,,,,,,,,,,,,,,,,,,,,,,,,,,,,,,,,,,,,,,,,
,,,,,,,,,,,,,,1,001,2024-08-23_17h11.21.115,IAT(Formal),2021.2.3,Win32,59.88023952,,,,,,,,,,,,,,,i,1,0,17,17,58,1,他人,i,0.554,,,,,,,,,,,,,,,,,,,,,,,,,,,,,,,,,,,,,,,,,
,,,,,,,,,,,,,,1,001,2024-08-23_17h11.21.115,IAT(Formal),2021.2.3,Win32,59.88023952,,,,,,,,,,,,,,,e,1,0,18,18,1,1,我的,e,0.5737,,,,,,,,,,,,,,,,,,,,,,,,,,,,,,,,,,,,,,,,,
,,,,,,,,,,,,,,1,001,2024-08-23_17h11.21.115,IAT(Formal),2021.2.3,Win32,59.88023952,,,,,,,,,,,,,,,i,1,0,19,19,45,1,猖狂,i,0.5174,,,,,,,,,,,,,,,,,,,,,,,,,,,,,,,,,,,,,,,,,
,,,,,,,,,,,,,,1,001,2024-08-23_17h11.21.115,IAT(Formal),2021.2.3,Win32,59.88023952,,,,,,,,,,,,,,,i,1,0,20,20,55,1,他,i,0.8368,,,,,,,,,,,,,,,,,,,,,,,,,,,,,,,,,,,,,,,,,
,,,,,,,,,,,,,,1,001,2024-08-23_17h11.21.115,IAT(Formal),2021.2.3,Win32,59.88023952,,,,,,,,,,,,,,,e,1,0,21,21,2,1,我们,e,0.8015,,,,,,,,,,,,,,,,,,,,,,,,,,,,,,,,,,,,,,,,,
,,,,,,,,,,,,,,1,001,2024-08-23_17h11.21.115,IAT(Formal),2021.2.3,Win32,59.88023952,,,,,,,,,,,,,,,e,1,0,22,22,3,1,自己,e,0.5899,,,,,,,,,,,,,,,,,,,,,,,,,,,,,,,,,,,,,,,,,
,,,,,,,,,,,,,,1,001,2024-08-23_17h11.21.115,IAT(Formal),2021.2.3,Win32,59.88023952,,,,,,,,,,,,,,,e,1,0,23,23,24,1,朴实,e,0.6831,,,,,,,,,,,,,,,,,,,,,,,,,,,,,,,,,,,,,,,,,
,,,,,,,,,,,,,,1,001,2024-08-23_17h11.21.115,IAT(Formal),2021.2.3,Win32,59.88023952,,,,,,,,,,,,,,,i,1,0,24,24,30,1,卑鄙,i,0.9291,,,,,,,,,,,,,,,,,,,,,,,,,,,,,,,,,,,,,,,,,
,,,,,,,,,,,,,,1,001,2024-08-23_17h11.21.115,IAT(Formal),2021.2.3,Win32,59.88023952,,,,,,,,,,,,,,,,0,0,25,25,4,1,俺,e,,,,,,,,,,,,,,,,,,,,,,,,,,,,,,,,,,,,,,,,,,
,,,,,,,,,,,,,,1,001,2024-08-23_17h11.21.115,IAT(Formal),2021.2.3,Win32,59.88023952,,,,,,,,,,,,,,,i,1,0,26,26,9,1,其他,i,0.6106,,,,,,,,,,,,,,,,,,,,,,,,,,,,,,,,,,,,,,,,,
,,,,,,,,,,,,,,1,001,2024-08-23_17h11.21.115,IAT(Formal),2021.2.3,Win32,59.88023952,,,,,,,,,,,,,,,i,1,0,27,27,37,1,傲慢,i,0.9112,,,,,,,,,,,,,,,,,,,,,,,,,,,,,,,,,,,,,,,,,
,,,,,,,,,,,,,,1,001,2024-08-23_17h11.21.115,IAT(Formal),2021.2.3,Win32,59.88023952,,,,,,,,,,,,,,,i,1,0,28,28,78,1,他人,i,0.769,,,,,,,,,,,,,,,,,,,,,,,,,,,,,,,,,,,,,,,,,
,,,,,,,,,,,,,,1,001,2024-08-23_17h11.21.115,IAT(Formal),2021.2.3,Win32,59.88023952,,,,,,,,,,,,,,,e,1,0,29,29,54,1,俺,e,0.5768,,,,,,,,,,,,,,,,,,,,,,,,,,,,,,,,,,,,,,,,,
,,,,,,,,,,,,,,1,001,2024-08-23_17h11.21.115,IAT(Formal),2021.2.3,Win32,59.88023952,,,,,,,,,,,,,,,i,1,0,30,30,6,1,他们,i,0.6853,,,,,,,,,,,,,,,,,,,,,,,,,,,,,,,,,,,,,,,,,
,,,,,,,,,,,,,,1,001,2024-08-23_17h11.21.115,IAT(Formal),2021.2.3,Win32,59.88023952,,,,,,,,,,,,,,,e,0,0,31,31,34,1,悲观,i,0.7218,,,,,,,,,,,,,,,,,,,,,,,,,,,,,,,,,,,,,,,,,
,,,,,,,,,,,,,,1,001,2024-08-23_17h11.21.115,IAT(Formal),2021.2.3,Win32,59.88023952,,,,,,,,,,,,,,,e,1,0,32,32,29,1,诚恳,e,0.6672,,,,,,,,,,,,,,,,,,,,,,,,,,,,,,,,,,,,,,,,,
,,,,,,,,,,,,,,1,001,2024-08-23_17h11.21.115,IAT(Formal),2021.2.3,Win32,59.88023952,,,,,,,,,,,,,,,i,1,0,33,33,59,1,其他,i,0.6148,,,,,,,,,,,,,,,,,,,,,,,,,,,,,,,,,,,,,,,,,
,,,,,,,,,,,,,,1,001,2024-08-23_17h11.21.115,IAT(Formal),2021.2.3,Win32,59.88023952,,,,,,,,,,,,,,,i,1,0,34,34,69,1,其他,i,0.6504,,,,,,,,,,,,,,,,,,,,,,,,,,,,,,,,,,,,,,,,,
,,,,,,,,,,,,,,1,001,2024-08-23_17h11.21.115,IAT(Formal),2021.2.3,Win32,59.88023952,,,,,,,,,,,,,,,e,1,0,35,35,25,1,细腻,e,0.7886,,,,,,,,,,,,,,,,,,,,,,,,,,,,,,,,,,,,,,,,,
,,,,,,,,,,,,,,1,001,2024-08-23_17h11.21.115,IAT(Formal),2021.2.3,Win32,59.88023952,,,,,,,,,,,,,,,e,0,0,36,36,43,1,自私,i,0.9713,,,,,,,,,,,,,,,,,,,,,,,,,,,,,,,,,,,,,,,,,
,,,,,,,,,,,,,,1,001,2024-08-23_17h11.21.115,IAT(Formal),2021.2.3,Win32,59.88023952,,,,,,,,,,,,,,,e,1,0,37,37,21,1,稳重,e,0.7584,,,,,,,,,,,,,,,,,,,,,,,,,,,,,,,,,,,,,,,,,
,,,,,,,,,,,,,,1,001,2024-08-23_17h11.21.115,IAT(Formal),2021.2.3,Win32,59.88023952,,,,,,,,,,,,,,,i,1,0,38,38,68,1,他人,i,0.6456,,,,,,,,,,,,,,,,,,,,,,,,,,,,,,,,,,,,,,,,,
,,,,,,,,,,,,,,1,001,2024-08-23_17h11.21.115,IAT(Formal),2021.2.3,Win32,59.88023952,,,,,,,,,,,,,,,e,1,0,39,39,16,1,正直,e,0.6995,,,,,,,,,,,,,,,,,,,,,,,,,,,,,,,,,,,,,,,,,
,,,,,,,,,,,,,,1,001,2024-08-23_17h11.21.115,IAT(Formal),2021.2.3,Win32,59.88023952,,,,,,,,,,,,,,,e,1,0,40,40,51,1,我的,e,0.8132,,,,,,,,,,,,,,,,,,,,,,,,,,,,,,,,,,,,,,,,,
,,,,,,,,,,,,,,1,001,2024-08-23_17h11.21.115,IAT(Formal),2021.2.3,Win32,59.88023952,,,,,,,,,,,,,,,i,1,0,41,41,41,1,散漫,i,0.9946,,,,,,,,,,,,,,,,,,,,,,,,,,,,,,,,,,,,,,,,,
,,,,,,,,,,,,,,1,001,2024-08-23_17h11.21.115,IAT(Formal),2021.2.3,Win32,59.88023952,,,,,,,,,,,,,,,e,1,0,42,42,53,1,自己,e,0.617,,,,,,,,,,,,,,,,,,,,,,,,,,,,,,,,,,,,,,,,,
,,,,,,,,,,,,,,1,001,2024-08-23_17h11.21.115,IAT(Formal),2021.2.3,Win32,59.88023952,,,,,,,,,,,,,,,i,0,0,43,43,12,1,聪明,e,0.6419,,,,,,,,,,,,,,,,,,,,,,,,,,,,,,,,,,,,,,,,,
,,,,,,,,,,,,,,1,001,2024-08-23_17h11.21.115,IAT(Formal),2021.2.3,Win32,59.88023952,,,,,,,,,,,,,,,i,1,0,44,44,35,1,消极,i,0.5979,,,,,,,,,,,,,,,,,,,,,,,,,,,,,,,,,,,,,,,,,
,,,,,,,,,,,,,,1,001,2024-08-23_17h11.21.115,IAT(Formal),2021.2.3,Win32,59.88023952,,,,,,,,,,,,,,,i,1,0,45,45,65,1,他,i,0.6889,,,,,,,,,,,,,,,,,,,,,,,,,,,,,,,,,,,,,,,,,
,,,,,,,,,,,,,,1,001,2024-08-23_17h11.21.115,IAT(Formal),2021.2.3,Win32,59.88023952,,,,,,,,,,,,,,,e,1,0,46,46,73,1,自己,e,0.7034,,,,,,,,,,,,,,,,,,,,,,,,,,,,,,,,,,,,,,,,,
,,,,,,,,,,,,,,1,001,2024-08-23_17h11.21.115,IAT(Formal),2021.2.3,Win32,59.88023952,,,,,,,,,,,,,,,i,1,0,47,47,7,1,他的,i,1.065,,,,,,,,,,,,,,,,,,,,,,,,,,,,,,,,,,,,,,,,,
,,,,,,,,,,,,,,1,001,2024-08-23_17h11.21.115,IAT(Formal),2021.2.3,Win32,59.88023952,,,,,,,,,,,,,,,e,1,0,48,48,50,1,我,e,0.6684,,,,,,,,,,,,,,,,,,,,,,,,,,,,,,,,,,,,,,,,,
,,,,,,,,,,,,,,1,001,2024-08-23_17h11.21.115,IAT(Formal),2021.2.3,Win32,59.88023952,,,,,,,,,,,,,,,i,1,0,49,49,5,1,他,i,0.6089,,,,,,,,,,,,,,,,,,,,,,,,,,,,,,,,,,,,,,,,,
,,,,,,,,,,,,,,1,001,2024-08-23_17h11.21.115,IAT(Formal),2021.2.3,Win32,59.88023952,,,,,,,,,,,,,,,e,0,0,50,50,48,1,轻率,i,0.7759,,,,,,,,,,,,,,,,,,,,,,,,,,,,,,,,,,,,,,,,,
,,,,,,,,,,,,,,1,001,2024-08-23_17h11.21.115,IAT(Formal),2021.2.3,Win32,59.88023952,,,,,,,,,,,,,,,i,1,0,51,51,66,1,他们,i,0.6985,,,,,,,,,,,,,,,,,,,,,,,,,,,,,,,,,,,,,,,,,
,,,,,,,,,,,,,,1,001,2024-08-23_17h11.21.115,IAT(Formal),2021.2.3,Win32,59.88023952,,,,,,,,,,,,,,,i,1,0,52,52,44,1,暴躁,i,0.7165,,,,,,,,,,,,,,,,,,,,,,,,,,,,,,,,,,,,,,,,,
,,,,,,,,,,,,,,1,001,2024-08-23_17h11.21.115,IAT(Formal),2021.2.3,Win32,59.88023952,,,,,,,,,,,,,,,i,1,0,53,53,56,1,他们,i,0.9878,,,,,,,,,,,,,,,,,,,,,,,,,,,,,,,,,,,,,,,,,
,,,,,,,,,,,,,,1,001,2024-08-23_17h11.21.115,IAT(Formal),2021.2.3,Win32,59.88023952,,,,,,,,,,,,,,,e,1,0,54,54,60,1,我,e,0.6699,,,,,,,,,,,,,,,,,,,,,,,,,,,,,,,,,,,,,,,,,
,,,,,,,,,,,,,,1,001,2024-08-23_17h11.21.115,IAT(Formal),2021.2.3,Win32,59.88023952,,,,,,,,,,,,,,,i,1,0,55,55,33,1,刻薄,i,0.6225,,,,,,,,,,,,,,,,,,,,,,,,,,,,,,,,,,,,,,,,,
,,,,,,,,,,,,,,1,001,2024-08-23_17h11.21.115,IAT(Formal),2021.2.3,Win32,59.88023952,,,,,,,,,,,,,,,e,1,0,56,56,10,1,优秀,e,0.6817,,,,,,,,,,,,,,,,,,,,,,,,,,,,,,,,,,,,,,,,,
,,,,,,,,,,,,,,1,001,2024-08-23_17h11.21.115,IAT(Formal),2021.2.3,Win32,59.88023952,,,,,,,,,,,,,,,i,1,0,57,57,8,1,他人,i,0.7683,,,,,,,,,,,,,,,,,,,,,,,,,,,,,,,,,,,,,,,,,
,,,,,,,,,,,,,,1,001,2024-08-23_17h11.21.115,IAT(Formal),2021.2.3,Win32,59.88023952,,,,,,,,,,,,,,,i,1,0,58,58,38,1,鲁莽,i,0.7082,,,,,,,,,,,,,,,,,,,,,,,,,,,,,,,,,,,,,,,,,
,,,,,,,,,,,,,,1,001,2024-08-23_17h11.21.115,IAT(Formal),2021.2.3,Win32,59.88023952,,,,,,,,,,,,,,,e,1,0,59,59,28,1,活泼,e,0.6767,,,,,,,,,,,,,,,,,,,,,,,,,,,,,,,,,,,,,,,,,
,,,,,,,,,,,,,,1,001,2024-08-23_17h11.21.115,IAT(Formal),2021.2.3,Win32,59.88023952,,,,,,,,,,,,,,,e,1,0,60,60,27,1,热情,e,0.8276,,,,,,,,,,,,,,,,,,,,,,,,,,,,,,,,,,,,,,,,,
,,,,,,,,,,,,,,1,001,2024-08-23_17h11.21.115,IAT(Formal),2021.2.3,Win32,59.88023952,,,,,,,,,,,,,,,e,1,0,61,61,14,1,乐观,e,0.7069,,,,,,,,,,,,,,,,,,,,,,,,,,,,,,,,,,,,,,,,,
,,,,,,,,,,,,,,1,001,2024-08-23_17h11.21.115,IAT(Formal),2021.2.3,Win32,59.88023952,,,,,,,,,,,,,,,e,1,0,62,62,15,1,诚实,e,0.8282,,,,,,,,,,,,,,,,,,,,,,,,,,,,,,,,,,,,,,,,,
,,,,,,,,,,,,,,1,001,2024-08-23_17h11.21.115,IAT(Formal),2021.2.3,Win32,59.88023952,,,,,,,,,,,,,,,e,1,0,63,63,17,1,勇敢,e,0.879,,,,,,,,,,,,,,,,,,,,,,,,,,,,,,,,,,,,,,,,,
,,,,,,,,,,,,,,1,001,2024-08-23_17h11.21.115,IAT(Formal),2021.2.3,Win32,59.88023952,,,,,,,,,,,,,,,i,1,0,64,64,79,1,其他,i,0.565,,,,,,,,,,,,,,,,,,,,,,,,,,,,,,,,,,,,,,,,,
,,,,,,,,,,,,,,1,001,2024-08-23_17h11.21.115,IAT(Formal),2021.2.3,Win32,59.88023952,,,,,,,,,,,,,,,e,1,0,65,65,11,1,崇高,e,0.604,,,,,,,,,,,,,,,,,,,,,,,,,,,,,,,,,,,,,,,,,
,,,,,,,,,,,,,,1,001,2024-08-23_17h11.21.115,IAT(Formal),2021.2.3,Win32,59.88023952,,,,,,,,,,,,,,,e,1,0,66,66,52,1,我们,e,0.6953,,,,,,,,,,,,,,,,,,,,,,,,,,,,,,,,,,,,,,,,,
,,,,,,,,,,,,,,1,001,2024-08-23_17h11.21.115,IAT(Formal),2021.2.3,Win32,59.88023952,,,,,,,,,,,,,,,i,1,0,67,67,77,1,他的,i,0.5027,,,,,,,,,,,,,,,,,,,,,,,,,,,,,,,,,,,,,,,,,
,,,,,,,,,,,,,,1,001,2024-08-23_17h11.21.115,IAT(Formal),2021.2.3,Win32,59.88023952,,,,,,,,,,,,,,,i,1,0,68,68,57,1,他的,i,1.0432,,,,,,,,,,,,,,,,,,,,,,,,,,,,,,,,,,,,,,,,,
,,,,,,,,,,,,,,1,001,2024-08-23_17h11.21.115,IAT(Formal),2021.2.3,Win32,59.88023952,,,,,,,,,,,,,,,e,1,0,69,69,18,1,勤奋,e,0.7857,,,,,,,,,,,,,,,,,,,,,,,,,,,,,,,,,,,,,,,,,
,,,,,,,,,,,,,,1,001,2024-08-23_17h11.21.115,IAT(Formal),2021.2.3,Win32,59.88023952,,,,,,,,,,,,,,,i,0,0,70,70,64,1,俺,e,1.2223,,,,,,,,,,,,,,,,,,,,,,,,,,,,,,,,,,,,,,,,,
,,,,,,,,,,,,,,1,001,2024-08-23_17h11.21.115,IAT(Formal),2021.2.3,Win32,59.88023952,,,,,,,,,,,,,,,e,1,0,71,71,72,1,我们,e,0.5841,,,,,,,,,,,,,,,,,,,,,,,,,,,,,,,,,,,,,,,,,
,,,,,,,,,,,,,,1,001,2024-08-23_17h11.21.115,IAT(Formal),2021.2.3,Win32,59.88023952,,,,,,,,,,,,,,,e,0,0,72,72,75,1,他,i,0.5265,,,,,,,,,,,,,,,,,,,,,,,,,,,,,,,,,,,,,,,,,
,,,,,,,,,,,,,,1,001,2024-08-23_17h11.21.115,IAT(Formal),2021.2.3,Win32,59.88023952,,,,,,,,,,,,,,,e,1,0,73,73,20,1,认真,e,0.6292,,,,,,,,,,,,,,,,,,,,,,,,,,,,,,,,,,,,,,,,,
,,,,,,,,,,,,,,1,001,2024-08-23_17h11.21.115,IAT(Formal),2021.2.3,Win32,59.88023952,,,,,,,,,,,,,,,i,1,0,74,74,46,1,野蛮,i,0.922,,,,,,,,,,,,,,,,,,,,,,,,,,,,,,,,,,,,,,,,,
,,,,,,,,,,,,,,1,001,2024-08-23_17h11.21.115,IAT(Formal),2021.2.3,Win32,59.88023952,,,,,,,,,,,,,,,e,1,0,75,75,63,1,自己,e,0.6454,,,,,,,,,,,,,,,,,,,,,,,,,,,,,,,,,,,,,,,,,
,,,,,,,,,,,,,,1,001,2024-08-23_17h11.21.115,IAT(Formal),2021.2.3,Win32,59.88023952,,,,,,,,,,,,,,,e,1,0,76,76,61,1,我的,e,0.5598,,,,,,,,,,,,,,,,,,,,,,,,,,,,,,,,,,,,,,,,,
,,,,,,,,,,,,,,1,001,2024-08-23_17h11.21.115,IAT(Formal),2021.2.3,Win32,59.88023952,,,,,,,,,,,,,,,e,1,0,77,77,19,1,机智,e,0.5455,,,,,,,,,,,,,,,,,,,,,,,,,,,,,,,,,,,,,,,,,
,,,,,,,,,,,,,,1,001,2024-08-23_17h11.21.115,IAT(Formal),2021.2.3,Win32,59.88023952,,,,,,,,,,,,,,,e,1,0,78,78,62,1,我们,e,0.4884,,,,,,,,,,,,,,,,,,,,,,,,,,,,,,,,,,,,,,,,,
,,,,,,,,,,,,,,1,001,2024-08-23_17h11.21.115,IAT(Formal),2021.2.3,Win32,59.88023952,,,,,,,,,,,,,,,e,1,0,79,79,26,1,冷静,e,0.5752,,,,,,,,,,,,,,,,,,,,,,,,,,,,,,,,,,,,,,,,,
,,,,,,,,,,,,,,1,001,2024-08-23_17h11.21.115,IAT(Formal),2021.2.3,Win32,59.88023952,,,,,,,,,,,,,,,i,1,,,,,,其他,i,0.6854,space,7.9938,0,0,0,9,1,,,,,,,,,,,,,,,,,,,,,,,,,,,,,,,,,,
,,,,,,,,,,,,,,1,001,2024-08-23_17h11.21.115,IAT(Formal),2021.2.3,Win32,59.88023952,,,,,,,,,,,,,,,e,1,,,,,,我们,e,0.7403,,,0,1,1,2,1,,,,,,,,,,,,,,,,,,,,,,,,,,,,,,,,,,
,,,,,,,,,,,,,,1,001,2024-08-23_17h11.21.115,IAT(Formal),2021.2.3,Win32,59.88023952,,,,,,,,,,,,,,,e,1,,,,,,自己,e,0.7202,,,0,2,2,53,1,,,,,,,,,,,,,,,,,,,,,,,,,,,,,,,,,,
,,,,,,,,,,,,,,1,001,2024-08-23_17h11.21.115,IAT(Formal),2021.2.3,Win32,59.88023952,,,,,,,,,,,,,,,e,1,,,,,,热情,e,0.5941,,,0,3,3,27,1,,,,,,,,,,,,,,,,,,,,,,,,,,,,,,,,,,
,,,,,,,,,,,,,,1,001,2024-08-23_17h11.21.115,IAT(Formal),2021.2.3,Win32,59.88023952,,,,,,,,,,,,,,,e,1,,,,,,勤奋,e,0.7202,,,0,4,4,18,1,,,,,,,,,,,,,,,,,,,,,,,,,,,,,,,,,,
,,,,,,,,,,,,,,1,001,2024-08-23_17h11.21.115,IAT(Formal),2021.2.3,Win32,59.88023952,,,,,,,,,,,,,,,i,1,,,,,,执拗,i,0.6793,,,0,5,5,40,1,,,,,,,,,,,,,,,,,,,,,,,,,,,,,,,,,,
,,,,,,,,,,,,,,1,001,2024-08-23_17h11.21.115,IAT(Formal),2021.2.3,Win32,59.88023952,,,,,,,,,,,,,,,e,1,,,,,,我的,e,0.5525,,,0,6,6,1,1,,,,,,,,,,,,,,,,,,,,,,,,,,,,,,,,,,
,,,,,,,,,,,,,,1,001,2024-08-23_17h11.21.115,IAT(Formal),2021.2.3,Win32,59.88023952,,,,,,,,,,,,,,,i,1,,,,,,自卑,i,0.9377,,,0,7,7,36,1,,,,,,,,,,,,,,,,,,,,,,,,,,,,,,,,,,
,,,,,,,,,,,,,,1,001,2024-08-23_17h11.21.115,IAT(Formal),2021.2.3,Win32,59.88023952,,,,,,,,,,,,,,,e,1,,,,,,冷静,e,0.6419,,,0,8,8,26,1,,,,,,,,,,,,,,,,,,,,,,,,,,,,,,,,,,
,,,,,,,,,,,,,,1,001,2024-08-23_17h11.21.115,IAT(Formal),2021.2.3,Win32,59.88023952,,,,,,,,,,,,,,,i,1,,,,,,他的,i,0.6932,,,0,9,9,7,1,,,,,,,,,,,,,,,,,,,,,,,,,,,,,,,,,,
,,,,,,,,,,,,,,1,001,2024-08-23_17h11.21.115,IAT(Formal),2021.2.3,Win32,59.88023952,,,,,,,,,,,,,,,e,1,,,,,,我的,e,0.5285,,,0,10,10,61,1,,,,,,,,,,,,,,,,,,,,,,,,,,,,,,,,,,
,,,,,,,,,,,,,,1,001,2024-08-23_17h11.21.115,IAT(Formal),2021.2.3,Win32,59.88023952,,,,,,,,,,,,,,,e,1,,,,,,我的,e,0.4324,,,0,11,11,71,1,,,,,,,,,,,,,,,,,,,,,,,,,,,,,,,,,,
,,,,,,,,,,,,,,1,001,2024-08-23_17h11.21.115,IAT(Formal),2021.2.3,Win32,59.88023952,,,,,,,,,,,,,,,i,1,,,,,,其他,i,0.562,,,0,12,12,79,1,,,,,,,,,,,,,,,,,,,,,,,,,,,,,,,,,,
,,,,,,,,,,,,,,1,001,2024-08-23_17h11.21.115,IAT(Formal),2021.2.3,Win32,59.88023952,,,,,,,,,,,,,,,e,0,,,,,,野蛮,i,0.9675,,,0,13,13,46,1,,,,,,,,,,,,,,,,,,,,,,,,,,,,,,,,,,
,,,,,,,,,,,,,,1,001,2024-08-23_17h11.21.115,IAT(Formal),2021.2.3,Win32,59.88023952,,,,,,,,,,,,,,,e,1,,,,,,诚恳,e,0.5518,,,0,14,14,29,1,,,,,,,,,,,,,,,,,,,,,,,,,,,,,,,,,,
,,,,,,,,,,,,,,1,001,2024-08-23_17h11.21.115,IAT(Formal),2021.2.3,Win32,59.88023952,,,,,,,,,,,,,,,i,1,,,,,,他人,i,0.6579,,,0,15,15,8,1,,,,,,,,,,,,,,,,,,,,,,,,,,,,,,,,,,
,,,,,,,,,,,,,,1,001,2024-08-23_17h11.21.115,IAT(Formal),2021.2.3,Win32,59.88023952,,,,,,,,,,,,,,,e,1,,,,,,我们,e,0.5382,,,0,16,16,52,1,,,,,,,,,,,,,,,,,,,,,,,,,,,,,,,,,,
,,,,,,,,,,,,,,1,001,2024-08-23_17h11.21.115,IAT(Formal),2021.2.3,Win32,59.88023952,,,,,,,,,,,,,,,i,1,,,,,,轻率,i,0.6783,,,0,17,17,48,1,,,,,,,,,,,,,,,,,,,,,,,,,,,,,,,,,,
,,,,,,,,,,,,,,1,001,2024-08-23_17h11.21.115,IAT(Formal),2021.2.3,Win32,59.88023952,,,,,,,,,,,,,,,e,1,,,,,,公正,e,0.6673,,,0,18,18,23,1,,,,,,,,,,,,,,,,,,,,,,,,,,,,,,,,,,
,,,,,,,,,,,,,,1,001,2024-08-23_17h11.21.115,IAT(Formal),2021.2.3,Win32,59.88023952,,,,,,,,,,,,,,,i,1,,,,,,他的,i,0.6032,,,0,19,19,77,1,,,,,,,,,,,,,,,,,,,,,,,,,,,,,,,,,,
,,,,,,,,,,,,,,1,001,2024-08-23_17h11.21.115,IAT(Formal),2021.2.3,Win32,59.88023952,,,,,,,,,,,,,,,e,1,,,,,,崇高,e,0.6852,,,0,20,20,11,1,,,,,,,,,,,,,,,,,,,,,,,,,,,,,,,,,,
,,,,,,,,,,,,,,1,001,2024-08-23_17h11.21.115,IAT(Formal),2021.2.3,Win32,59.88023952,,,,,,,,,,,,,,,i,1,,,,,,其他,i,0.6173,,,0,21,21,59,1,,,,,,,,,,,,,,,,,,,,,,,,,,,,,,,,,,
,,,,,,,,,,,,,,1,001,2024-08-23_17h11.21.115,IAT(Formal),2021.2.3,Win32,59.88023952,,,,,,,,,,,,,,,i,1,,,,,,傲慢,i,0.9175,,,0,22,22,37,1,,,,,,,,,,,,,,,,,,,,,,,,,,,,,,,,,,
,,,,,,,,,,,,,,1,001,2024-08-23_17h11.21.115,IAT(Formal),2021.2.3,Win32,59.88023952,,,,,,,,,,,,,,,i,1,,,,,,卑鄙,i,0.6671,,,0,23,23,30,1,,,,,,,,,,,,,,,,,,,,,,,,,,,,,,,,,,
,,,,,,,,,,,,,,1,001,2024-08-23_17h11.21.115,IAT(Formal),2021.2.3,Win32,59.88023952,,,,,,,,,,,,,,,e,1,,,,,,诚实,e,0.6468,,,0,24,24,15,1,,,,,,,,,,,,,,,,,,,,,,,,,,,,,,,,,,
,,,,,,,,,,,,,,1,001,2024-08-23_17h11.21.115,IAT(Formal),2021.2.3,Win32,59.88023952,,,,,,,,,,,,,,,i,1,,,,,,他的,i,0.8071,,,0,25,25,57,1,,,,,,,,,,,,,,,,,,,,,,,,,,,,,,,,,,
,,,,,,,,,,,,,,1,001,2024-08-23_17h11.21.115,IAT(Formal),2021.2.3,Win32,59.88023952,,,,,,,,,,,,,,,e,1,,,,,,优秀,e,0.8023,,,0,26,26,10,1,,,,,,,,,,,,,,,,,,,,,,,,,,,,,,,,,,
,,,,,,,,,,,,,,1,001,2024-08-23_17h11.21.115,IAT(Formal),2021.2.3,Win32,59.88023952,,,,,,,,,,,,,,,e,1,,,,,,细腻,e,0.5839,,,0,27,27,25,1,,,,,,,,,,,,,,,,,,,,,,,,,,,,,,,,,,
,,,,,,,,,,,,,,1,001,2024-08-23_17h11.21.115,IAT(Formal),2021.2.3,Win32,59.88023952,,,,,,,,,,,,,,,e,1,,,,,,自己,e,0.6253,,,0,28,28,3,1,,,,,,,,,,,,,,,,,,,,,,,,,,,,,,,,,,
,,,,,,,,,,,,,,1,001,2024-08-23_17h11.21.115,IAT(Formal),2021.2.3,Win32,59.88023952,,,,,,,,,,,,,,,e,1,,,,,,乐观,e,0.666,,,0,29,29,14,1,,,,,,,,,,,,,,,,,,,,,,,,,,,,,,,,,,
,,,,,,,,,,,,,,1,001,2024-08-23_17h11.21.115,IAT(Formal),2021.2.3,Win32,59.88023952,,,,,,,,,,,,,,,e,1,,,,,,俺,e,0.6035,,,0,30,30,4,1,,,,,,,,,,,,,,,,,,,,,,,,,,,,,,,,,,
,,,,,,,,,,,,,,1,001,2024-08-23_17h11.21.115,IAT(Formal),2021.2.3,Win32,59.88023952,,,,,,,,,,,,,,,e,1,,,,,,我们,e,0.4406,,,0,31,31,62,1,,,,,,,,,,,,,,,,,,,,,,,,,,,,,,,,,,
,,,,,,,,,,,,,,1,001,2024-08-23_17h11.21.115,IAT(Formal),2021.2.3,Win32,59.88023952,,,,,,,,,,,,,,,e,0,,,,,,消极,i,0.5173,,,0,32,32,35,1,,,,,,,,,,,,,,,,,,,,,,,,,,,,,,,,,,
,,,,,,,,,,,,,,1,001,2024-08-23_17h11.21.115,IAT(Formal),2021.2.3,Win32,59.88023952,,,,,,,,,,,,,,,e,1,,,,,,我,e,0.555,,,0,33,33,70,1,,,,,,,,,,,,,,,,,,,,,,,,,,,,,,,,,,
,,,,,,,,,,,,,,1,001,2024-08-23_17h11.21.115,IAT(Formal),2021.2.3,Win32,59.88023952,,,,,,,,,,,,,,,e,1,,,,,,俺,e,0.5534,,,0,34,34,64,1,,,,,,,,,,,,,,,,,,,,,,,,,,,,,,,,,,
,,,,,,,,,,,,,,1,001,2024-08-23_17h11.21.115,IAT(Formal),2021.2.3,Win32,59.88023952,,,,,,,,,,,,,,,i,1,,,,,,他,i,0.7336,,,0,35,35,5,1,,,,,,,,,,,,,,,,,,,,,,,,,,,,,,,,,,
,,,,,,,,,,,,,,1,001,2024-08-23_17h11.21.115,IAT(Formal),2021.2.3,Win32,59.88023952,,,,,,,,,,,,,,,e,1,,,,,,自己,e,0.6212,,,0,36,36,73,1,,,,,,,,,,,,,,,,,,,,,,,,,,,,,,,,,,
,,,,,,,,,,,,,,1,001,2024-08-23_17h11.21.115,IAT(Formal),2021.2.3,Win32,59.88023952,,,,,,,,,,,,,,,i,1,,,,,,他,i,1.1915,,,0,37,37,75,1,,,,,,,,,,,,,,,,,,,,,,,,,,,,,,,,,,
,,,,,,,,,,,,,,1,001,2024-08-23_17h11.21.115,IAT(Formal),2021.2.3,Win32,59.88023952,,,,,,,,,,,,,,,i,1,,,,,,暴躁,i,0.5776,,,0,38,38,44,1,,,,,,,,,,,,,,,,,,,,,,,,,,,,,,,,,,
,,,,,,,,,,,,,,1,001,2024-08-23_17h11.21.115,IAT(Formal),2021.2.3,Win32,59.88023952,,,,,,,,,,,,,,,i,1,,,,,,悲观,i,0.5678,,,0,39,39,34,1,,,,,,,,,,,,,,,,,,,,,,,,,,,,,,,,,,
,,,,,,,,,,,,,,1,001,2024-08-23_17h11.21.115,IAT(Formal),2021.2.3,Win32,59.88023952,,,,,,,,,,,,,,,e,1,,,,,,认真,e,0.6578,,,0,40,40,20,1,,,,,,,,,,,,,,,,,,,,,,,,,,,,,,,,,,
,,,,,,,,,,,,,,1,001,2024-08-23_17h11.21.115,IAT(Formal),2021.2.3,Win32,59.88023952,,,,,,,,,,,,,,,e,1,,,,,,朴实,e,0.5532,,,0,41,41,24,1,,,,,,,,,,,,,,,,,,,,,,,,,,,,,,,,,,
,,,,,,,,,,,,,,1,001,2024-08-23_17h11.21.115,IAT(Formal),2021.2.3,Win32,59.88023952,,,,,,,,,,,,,,,i,0,,,,,,我,e,0.5578,,,0,42,42,50,1,,,,,,,,,,,,,,,,,,,,,,,,,,,,,,,,,,
,,,,,,,,,,,,,,1,001,2024-08-23_17h11.21.115,IAT(Formal),2021.2.3,Win32,59.88023952,,,,,,,,,,,,,,,i,1,,,,,,鲁莽,i,0.7178,,,0,43,43,38,1,,,,,,,,,,,,,,,,,,,,,,,,,,,,,,,,,,
,,,,,,,,,,,,,,1,001,2024-08-23_17h11.21.115,IAT(Formal),2021.2.3,Win32,59.88023952,,,,,,,,,,,,,,,e,1,,,,,,稳重,e,0.577,,,0,44,44,21,1,,,,,,,,,,,,,,,,,,,,,,,,,,,,,,,,,,
,,,,,,,,,,,,,,1,001,2024-08-23_17h11.21.115,IAT(Formal),2021.2.3,Win32,59.88023952,,,,,,,,,,,,,,,i,1,,,,,,他人,i,0.5772,,,0,45,45,58,1,,,,,,,,,,,,,,,,,,,,,,,,,,,,,,,,,,
,,,,,,,,,,,,,,1,001,2024-08-23_17h11.21.115,IAT(Formal),2021.2.3,Win32,59.88023952,,,,,,,,,,,,,,,e,1,,,,,,我的,e,0.5501,,,0,46,46,51,1,,,,,,,,,,,,,,,,,,,,,,,,,,,,,,,,,,
,,,,,,,,,,,,,,1,001,2024-08-23_17h11.21.115,IAT(Formal),2021.2.3,Win32,59.88023952,,,,,,,,,,,,,,,i,1,,,,,,虚伪,i,0.6786,,,0,47,47,31,1,,,,,,,,,,,,,,,,,,,,,,,,,,,,,,,,,,
,,,,,,,,,,,,,,1,001,2024-08-23_17h11.21.115,IAT(Formal),2021.2.3,Win32,59.88023952,,,,,,,,,,,,,,,i,1,,,,,,猖狂,i,0.5903,,,0,48,48,45,1,,,,,,,,,,,,,,,,,,,,,,,,,,,,,,,,,,
,,,,,,,,,,,,,,1,001,2024-08-23_17h11.21.115,IAT(Formal),2021.2.3,Win32,59.88023952,,,,,,,,,,,,,,,i,1,,,,,,固执,i,0.6723,,,0,49,49,47,1,,,,,,,,,,,,,,,,,,,,,,,,,,,,,,,,,,
,,,,,,,,,,,,,,1,001,2024-08-23_17h11.21.115,IAT(Formal),2021.2.3,Win32,59.88023952,,,,,,,,,,,,,,,i,1,,,,,,其他,i,0.8874,,,0,50,50,69,1,,,,,,,,,,,,,,,,,,,,,,,,,,,,,,,,,,
,,,,,,,,,,,,,,1,001,2024-08-23_17h11.21.115,IAT(Formal),2021.2.3,Win32,59.88023952,,,,,,,,,,,,,,,i,1,,,,,,凶狠,i,0.5525,,,0,51,51,42,1,,,,,,,,,,,,,,,,,,,,,,,,,,,,,,,,,,
,,,,,,,,,,,,,,1,001,2024-08-23_17h11.21.115,IAT(Formal),2021.2.3,Win32,59.88023952,,,,,,,,,,,,,,,i,1,,,,,,愚蠢,i,0.6385,,,0,52,52,32,1,,,,,,,,,,,,,,,,,,,,,,,,,,,,,,,,,,
,,,,,,,,,,,,,,1,001,2024-08-23_17h11.21.115,IAT(Formal),2021.2.3,Win32,59.88023952,,,,,,,,,,,,,,,e,1,,,,,,我,e,0.584,,,0,53,53,0,1,,,,,,,,,,,,,,,,,,,,,,,,,,,,,,,,,,
,,,,,,,,,,,,,,1,001,2024-08-23_17h11.21.115,IAT(Formal),2021.2.3,Win32,59.88023952,,,,,,,,,,,,,,,i,1,,,,,,散漫,i,0.5849,,,0,54,54,41,1,,,,,,,,,,,,,,,,,,,,,,,,,,,,,,,,,,
,,,,,,,,,,,,,,1,001,2024-08-23_17h11.21.115,IAT(Formal),2021.2.3,Win32,59.88023952,,,,,,,,,,,,,,,i,1,,,,,,他们,i,1.0366,,,0,55,55,6,1,,,,,,,,,,,,,,,,,,,,,,,,,,,,,,,,,,
,,,,,,,,,,,,,,1,001,2024-08-23_17h11.21.115,IAT(Formal),2021.2.3,Win32,59.88023952,,,,,,,,,,,,,,,i,1,,,,,,自私,i,0.9071,,,0,56,56,43,1,,,,,,,,,,,,,,,,,,,,,,,,,,,,,,,,,,
,,,,,,,,,,,,,,1,001,2024-08-23_17h11.21.115,IAT(Formal),2021.2.3,Win32,59.88023952,,,,,,,,,,,,,,,i,0,,,,,,聪明,e,0.631,,,0,57,57,12,1,,,,,,,,,,,,,,,,,,,,,,,,,,,,,,,,,,
,,,,,,,,,,,,,,1,001,2024-08-23_17h11.21.115,IAT(Formal),2021.2.3,Win32,59.88023952,,,,,,,,,,,,,,,e,1,,,,,,我,e,0.5761,,,0,58,58,60,1,,,,,,,,,,,,,,,,,,,,,,,,,,,,,,,,,,
,,,,,,,,,,,,,,1,001,2024-08-23_17h11.21.115,IAT(Formal),2021.2.3,Win32,59.88023952,,,,,,,,,,,,,,,e,1,,,,,,俺,e,0.7294,,,0,59,59,54,1,,,,,,,,,,,,,,,,,,,,,,,,,,,,,,,,,,
,,,,,,,,,,,,,,1,001,2024-08-23_17h11.21.115,IAT(Formal),2021.2.3,Win32,59.88023952,,,,,,,,,,,,,,,i,1,,,,,,他,i,0.6674,,,0,60,60,55,1,,,,,,,,,,,,,,,,,,,,,,,,,,,,,,,,,,
,,,,,,,,,,,,,,1,001,2024-08-23_17h11.21.115,IAT(Formal),2021.2.3,Win32,59.88023952,,,,,,,,,,,,,,,i,1,,,,,,他,i,1.0104,,,0,61,61,65,1,,,,,,,,,,,,,,,,,,,,,,,,,,,,,,,,,,
,,,,,,,,,,,,,,1,001,2024-08-23_17h11.21.115,IAT(Formal),2021.2.3,Win32,59.88023952,,,,,,,,,,,,,,,i,1,,,,,,他人,i,0.7839,,,0,62,62,68,1,,,,,,,,,,,,,,,,,,,,,,,,,,,,,,,,,,
,,,,,,,,,,,,,,1,001,2024-08-23_17h11.21.115,IAT(Formal),2021.2.3,Win32,59.88023952,,,,,,,,,,,,,,,i,1,,,,,,刻薄,i,0.9183,,,0,63,63,33,1,,,,,,,,,,,,,,,,,,,,,,,,,,,,,,,,,,
,,,,,,,,,,,,,,1,001,2024-08-23_17h11.21.115,IAT(Formal),2021.2.3,Win32,59.88023952,,,,,,,,,,,,,,,i,1,,,,,,冒失,i,1.184,,,0,64,64,39,1,,,,,,,,,,,,,,,,,,,,,,,,,,,,,,,,,,
,,,,,,,,,,,,,,1,001,2024-08-23_17h11.21.115,IAT(Formal),2021.2.3,Win32,59.88023952,,,,,,,,,,,,,,,e,1,,,,,,杰出,e,0.7551,,,0,65,65,13,1,,,,,,,,,,,,,,,,,,,,,,,,,,,,,,,,,,
,,,,,,,,,,,,,,1,001,2024-08-23_17h11.21.115,IAT(Formal),2021.2.3,Win32,59.88023952,,,,,,,,,,,,,,,e,1,,,,,,俺,e,0.7837,,,0,66,66,74,1,,,,,,,,,,,,,,,,,,,,,,,,,,,,,,,,,,
,,,,,,,,,,,,,,1,001,2024-08-23_17h11.21.115,IAT(Formal),2021.2.3,Win32,59.88023952,,,,,,,,,,,,,,,i,1,,,,,,下贱,i,0.7671,,,0,67,67,49,1,,,,,,,,,,,,,,,,,,,,,,,,,,,,,,,,,,
,,,,,,,,,,,,,,1,001,2024-08-23_17h11.21.115,IAT(Formal),2021.2.3,Win32,59.88023952,,,,,,,,,,,,,,,i,1,,,,,,他们,i,0.8012,,,0,68,68,76,1,,,,,,,,,,,,,,,,,,,,,,,,,,,,,,,,,,
,,,,,,,,,,,,,,1,001,2024-08-23_17h11.21.115,IAT(Formal),2021.2.3,Win32,59.88023952,,,,,,,,,,,,,,,e,1,,,,,,勇敢,e,0.5339,,,0,69,69,17,1,,,,,,,,,,,,,,,,,,,,,,,,,,,,,,,,,,
,,,,,,,,,,,,,,1,001,2024-08-23_17h11.21.115,IAT(Formal),2021.2.3,Win32,59.88023952,,,,,,,,,,,,,,,e,1,,,,,,正直,e,0.533,,,0,70,70,16,1,,,,,,,,,,,,,,,,,,,,,,,,,,,,,,,,,,
,,,,,,,,,,,,,,1,001,2024-08-23_17h11.21.115,IAT(Formal),2021.2.3,Win32,59.88023952,,,,,,,,,,,,,,,e,1,,,,,,自己,e,0.5559,,,0,71,71,63,1,,,,,,,,,,,,,,,,,,,,,,,,,,,,,,,,,,
,,,,,,,,,,,,,,1,001,2024-08-23_17h11.21.115,IAT(Formal),2021.2.3,Win32,59.88023952,,,,,,,,,,,,,,,e,1,,,,,,活泼,e,0.5559,,,0,72,72,28,1,,,,,,,,,,,,,,,,,,,,,,,,,,,,,,,,,,
,,,,,,,,,,,,,,1,001,2024-08-23_17h11.21.115,IAT(Formal),2021.2.3,Win32,59.88023952,,,,,,,,,,,,,,,i,1,,,,,,他们,i,0.6672,,,0,73,73,56,1,,,,,,,,,,,,,,,,,,,,,,,,,,,,,,,,,,
,,,,,,,,,,,,,,1,001,2024-08-23_17h11.21.115,IAT(Formal),2021.2.3,Win32,59.88023952,,,,,,,,,,,,,,,i,1,,,,,,他们,i,0.7347,,,0,74,74,66,1,,,,,,,,,,,,,,,,,,,,,,,,,,,,,,,,,,
,,,,,,,,,,,,,,1,001,2024-08-23_17h11.21.115,IAT(Formal),2021.2.3,Win32,59.88023952,,,,,,,,,,,,,,,e,1,,,,,,我们,e,0.9851,,,0,75,75,72,1,,,,,,,,,,,,,,,,,,,,,,,,,,,,,,,,,,
,,,,,,,,,,,,,,1,001,2024-08-23_17h11.21.115,IAT(Formal),2021.2.3,Win32,59.88023952,,,,,,,,,,,,,,,e,1,,,,,,无私,e,0.6691,,,0,76,76,22,1,,,,,,,,,,,,,,,,,,,,,,,,,,,,,,,,,,
,,,,,,,,,,,,,,1,001,2024-08-23_17h11.21.115,IAT(Formal),2021.2.3,Win32,59.88023952,,,,,,,,,,,,,,,e,1,,,,,,机智,e,0.7529,,,0,77,77,19,1,,,,,,,,,,,,,,,,,,,,,,,,,,,,,,,,,,
,,,,,,,,,,,,,,1,001,2024-08-23_17h11.21.115,IAT(Formal),2021.2.3,Win32,59.88023952,,,,,,,,,,,,,,,i,1,,,,,,他人,i,0.5662,,,0,78,78,78,1,,,,,,,,,,,,,,,,,,,,,,,,,,,,,,,,,,
,,,,,,,,,,,,,,1,001,2024-08-23_17h11.21.115,IAT(Formal),2021.2.3,Win32,59.88023952,,,,,,,,,,,,,,,i,1,,,,,,他的,i,0.6233,,,0,79,79,67,1,,,,,,,,,,,,,,,,,,,,,,,,,,,,,,,,,,
,,,,,,,,,,,,,,1,001,2024-08-23_17h11.21.115,IAT(Formal),2021.2.3,Win32,59.88023952,,,,,,,,,,,,,,,i,1,,,,,,他,i,0.4532,,,1,0,80,55,1,,,,,,,,,,,,,,,,,,,,,,,,,,,,,,,,,,
,,,,,,,,,,,,,,1,001,2024-08-23_17h11.21.115,IAT(Formal),2021.2.3,Win32,59.88023952,,,,,,,,,,,,,,,e,1,,,,,,乐观,e,0.6338,,,1,1,81,14,1,,,,,,,,,,,,,,,,,,,,,,,,,,,,,,,,,,
,,,,,,,,,,,,,,1,001,2024-08-23_17h11.21.115,IAT(Formal),2021.2.3,Win32,59.88023952,,,,,,,,,,,,,,,i,1,,,,,,卑鄙,i,0.6964,,,1,2,82,30,1,,,,,,,,,,,,,,,,,,,,,,,,,,,,,,,,,,
,,,,,,,,,,,,,,1,001,2024-08-23_17h11.21.115,IAT(Formal),2021.2.3,Win32,59.88023952,,,,,,,,,,,,,,,i,1,,,,,,愚蠢,i,0.5395,,,1,3,83,32,1,,,,,,,,,,,,,,,,,,,,,,,,,,,,,,,,,,
,,,,,,,,,,,,,,1,001,2024-08-23_17h11.21.115,IAT(Formal),2021.2.3,Win32,59.88023952,,,,,,,,,,,,,,,i,1,,,,,,他的,i,0.9174,,,1,4,84,7,1,,,,,,,,,,,,,,,,,,,,,,,,,,,,,,,,,,
,,,,,,,,,,,,,,1,001,2024-08-23_17h11.21.115,IAT(Formal),2021.2.3,Win32,59.88023952,,,,,,,,,,,,,,,i,1,,,,,,消极,i,0.5034,,,1,5,85,35,1,,,,,,,,,,,,,,,,,,,,,,,,,,,,,,,,,,
,,,,,,,,,,,,,,1,001,2024-08-23_17h11.21.115,IAT(Formal),2021.2.3,Win32,59.88023952,,,,,,,,,,,,,,,i,1,,,,,,其他,i,0.5845,,,1,6,86,69,1,,,,,,,,,,,,,,,,,,,,,,,,,,,,,,,,,,
,,,,,,,,,,,,,,1,001,2024-08-23_17h11.21.115,IAT(Formal),2021.2.3,Win32,59.88023952,,,,,,,,,,,,,,,e,1,,,,,,我们,e,0.5682,,,1,7,87,52,1,,,,,,,,,,,,,,,,,,,,,,,,,,,,,,,,,,
,,,,,,,,,,,,,,1,001,2024-08-23_17h11.21.115,IAT(Formal),2021.2.3,Win32,59.88023952,,,,,,,,,,,,,,,e,0,,,,,,他们,i,0.5196,,,1,8,88,76,1,,,,,,,,,,,,,,,,,,,,,,,,,,,,,,,,,,
,,,,,,,,,,,,,,1,001,2024-08-23_17h11.21.115,IAT(Formal),2021.2.3,Win32,59.88023952,,,,,,,,,,,,,,,e,1,,,,,,公正,e,0.7925,,,1,9,89,23,1,,,,,,,,,,,,,,,,,,,,,,,,,,,,,,,,,,
,,,,,,,,,,,,,,1,001,2024-08-23_17h11.21.115,IAT(Formal),2021.2.3,Win32,59.88023952,,,,,,,,,,,,,,,i,1,,,,,,执拗,i,0.6038,,,1,10,90,40,1,,,,,,,,,,,,,,,,,,,,,,,,,,,,,,,,,,
,,,,,,,,,,,,,,1,001,2024-08-23_17h11.21.115,IAT(Formal),2021.2.3,Win32,59.88023952,,,,,,,,,,,,,,,e,1,,,,,,我,e,0.5528,,,1,11,91,60,1,,,,,,,,,,,,,,,,,,,,,,,,,,,,,,,,,,
,,,,,,,,,,,,,,1,001,2024-08-23_17h11.21.115,IAT(Formal),2021.2.3,Win32,59.88023952,,,,,,,,,,,,,,,e,1,,,,,,活泼,e,0.5224,,,1,12,92,28,1,,,,,,,,,,,,,,,,,,,,,,,,,,,,,,,,,,
,,,,,,,,,,,,,,1,001,2024-08-23_17h11.21.115,IAT(Formal),2021.2.3,Win32,59.88023952,,,,,,,,,,,,,,,i,1,,,,,,他人,i,0.5848,,,1,13,93,78,1,,,,,,,,,,,,,,,,,,,,,,,,,,,,,,,,,,
,,,,,,,,,,,,,,1,001,2024-08-23_17h11.21.115,IAT(Formal),2021.2.3,Win32,59.88023952,,,,,,,,,,,,,,,e,1,,,,,,我,e,0.5546,,,1,14,94,70,1,,,,,,,,,,,,,,,,,,,,,,,,,,,,,,,,,,
,,,,,,,,,,,,,,1,001,2024-08-23_17h11.21.115,IAT(Formal),2021.2.3,Win32,59.88023952,,,,,,,,,,,,,,,i,1,,,,,,他们,i,0.7679,,,1,15,95,6,1,,,,,,,,,,,,,,,,,,,,,,,,,,,,,,,,,,
,,,,,,,,,,,,,,1,001,2024-08-23_17h11.21.115,IAT(Formal),2021.2.3,Win32,59.88023952,,,,,,,,,,,,,,,e,1,,,,,,我的,e,0.5786,,,1,16,96,61,1,,,,,,,,,,,,,,,,,,,,,,,,,,,,,,,,,,
,,,,,,,,,,,,,,1,001,2024-08-23_17h11.21.115,IAT(Formal),2021.2.3,Win32,59.88023952,,,,,,,,,,,,,,,i,1,,,,,,傲慢,i,1.083,,,1,17,97,37,1,,,,,,,,,,,,,,,,,,,,,,,,,,,,,,,,,,
,,,,,,,,,,,,,,1,001,2024-08-23_17h11.21.115,IAT(Formal),2021.2.3,Win32,59.88023952,,,,,,,,,,,,,,,e,1,,,,,,勇敢,e,0.6223,,,1,18,98,17,1,,,,,,,,,,,,,,,,,,,,,,,,,,,,,,,,,,
,,,,,,,,,,,,,,1,001,2024-08-23_17h11.21.115,IAT(Formal),2021.2.3,Win32,59.88023952,,,,,,,,,,,,,,,e,1,,,,,,无私,e,0.6673,,,1,19,99,22,1,,,,,,,,,,,,,,,,,,,,,,,,,,,,,,,,,,
,,,,,,,,,,,,,,1,001,2024-08-23_17h11.21.115,IAT(Formal),2021.2.3,Win32,59.88023952,,,,,,,,,,,,,,,e,1,,,,,,勤奋,e,0.651,,,1,20,100,18,1,,,,,,,,,,,,,,,,,,,,,,,,,,,,,,,,,,
,,,,,,,,,,,,,,1,001,2024-08-23_17h11.21.115,IAT(Formal),2021.2.3,Win32,59.88023952,,,,,,,,,,,,,,,e,1,,,,,,自己,e,0.6005,,,1,21,101,73,1,,,,,,,,,,,,,,,,,,,,,,,,,,,,,,,,,,
,,,,,,,,,,,,,,1,001,2024-08-23_17h11.21.115,IAT(Formal),2021.2.3,Win32,59.88023952,,,,,,,,,,,,,,,i,1,,,,,,野蛮,i,0.6922,,,1,22,102,46,1,,,,,,,,,,,,,,,,,,,,,,,,,,,,,,,,,,
,,,,,,,,,,,,,,1,001,2024-08-23_17h11.21.115,IAT(Formal),2021.2.3,Win32,59.88023952,,,,,,,,,,,,,,,e,1,,,,,,认真,e,0.6845,,,1,23,103,20,1,,,,,,,,,,,,,,,,,,,,,,,,,,,,,,,,,,
,,,,,,,,,,,,,,1,001,2024-08-23_17h11.21.115,IAT(Formal),2021.2.3,Win32,59.88023952,,,,,,,,,,,,,,,e,1,,,,,,稳重,e,0.6745,,,1,24,104,21,1,,,,,,,,,,,,,,,,,,,,,,,,,,,,,,,,,,
,,,,,,,,,,,,,,1,001,2024-08-23_17h11.21.115,IAT(Formal),2021.2.3,Win32,59.88023952,,,,,,,,,,,,,,,i,1,,,,,,冒失,i,0.8179,,,1,25,105,39,1,,,,,,,,,,,,,,,,,,,,,,,,,,,,,,,,,,
,,,,,,,,,,,,,,1,001,2024-08-23_17h11.21.115,IAT(Formal),2021.2.3,Win32,59.88023952,,,,,,,,,,,,,,,e,1,,,,,,我们,e,0.5843,,,1,26,106,2,1,,,,,,,,,,,,,,,,,,,,,,,,,,,,,,,,,,
,,,,,,,,,,,,,,1,001,2024-08-23_17h11.21.115,IAT(Formal),2021.2.3,Win32,59.88023952,,,,,,,,,,,,,,,e,1,,,,,,诚恳,e,0.867,,,1,27,107,29,1,,,,,,,,,,,,,,,,,,,,,,,,,,,,,,,,,,
,,,,,,,,,,,,,,1,001,2024-08-23_17h11.21.115,IAT(Formal),2021.2.3,Win32,59.88023952,,,,,,,,,,,,,,,e,1,,,,,,俺,e,0.6016,,,1,28,108,74,1,,,,,,,,,,,,,,,,,,,,,,,,,,,,,,,,,,
,,,,,,,,,,,,,,1,001,2024-08-23_17h11.21.115,IAT(Formal),2021.2.3,Win32,59.88023952,,,,,,,,,,,,,,,i,1,,,,,,他人,i,0.901,,,1,29,109,68,1,,,,,,,,,,,,,,,,,,,,,,,,,,,,,,,,,,
,,,,,,,,,,,,,,1,001,2024-08-23_17h11.21.115,IAT(Formal),2021.2.3,Win32,59.88023952,,,,,,,,,,,,,,,i,1,,,,,,他的,i,1.086,,,1,30,110,77,1,,,,,,,,,,,,,,,,,,,,,,,,,,,,,,,,,,
,,,,,,,,,,,,,,1,001,2024-08-23_17h11.21.115,IAT(Formal),2021.2.3,Win32,59.88023952,,,,,,,,,,,,,,,e,1,,,,,,崇高,e,0.6049,,,1,31,111,11,1,,,,,,,,,,,,,,,,,,,,,,,,,,,,,,,,,,
,,,,,,,,,,,,,,1,001,2024-08-23_17h11.21.115,IAT(Formal),2021.2.3,Win32,59.88023952,,,,,,,,,,,,,,,e,1,,,,,,聪明,e,0.8896,,,1,32,112,12,1,,,,,,,,,,,,,,,,,,,,,,,,,,,,,,,,,,
,,,,,,,,,,,,,,1,001,2024-08-23_17h11.21.115,IAT(Formal),2021.2.3,Win32,59.88023952,,,,,,,,,,,,,,,i,1,,,,,,其他,i,0.6863,,,1,33,113,79,1,,,,,,,,,,,,,,,,,,,,,,,,,,,,,,,,,,
,,,,,,,,,,,,,,1,001,2024-08-23_17h11.21.115,IAT(Formal),2021.2.3,Win32,59.88023952,,,,,,,,,,,,,,,e,1,,,,,,朴实,e,0.7521,,,1,34,114,24,1,,,,,,,,,,,,,,,,,,,,,,,,,,,,,,,,,,
,,,,,,,,,,,,,,1,001,2024-08-23_17h11.21.115,IAT(Formal),2021.2.3,Win32,59.88023952,,,,,,,,,,,,,,,e,1,,,,,,冷静,e,0.8005,,,1,35,115,26,1,,,,,,,,,,,,,,,,,,,,,,,,,,,,,,,,,,
,,,,,,,,,,,,,,1,001,2024-08-23_17h11.21.115,IAT(Formal),2021.2.3,Win32,59.88023952,,,,,,,,,,,,,,,e,0,,,,,,自私,i,0.7017,,,1,36,116,43,1,,,,,,,,,,,,,,,,,,,,,,,,,,,,,,,,,,
,,,,,,,,,,,,,,1,001,2024-08-23_17h11.21.115,IAT(Formal),2021.2.3,Win32,59.88023952,,,,,,,,,,,,,,,e,1,,,,,,杰出,e,0.7168,,,1,37,117,13,1,,,,,,,,,,,,,,,,,,,,,,,,,,,,,,,,,,
,,,,,,,,,,,,,,1,001,2024-08-23_17h11.21.115,IAT(Formal),2021.2.3,Win32,59.88023952,,,,,,,,,,,,,,,e,1,,,,,,我,e,0.5168,,,1,38,118,0,1,,,,,,,,,,,,,,,,,,,,,,,,,,,,,,,,,,
,,,,,,,,,,,,,,1,001,2024-08-23_17h11.21.115,IAT(Formal),2021.2.3,Win32,59.88023952,,,,,,,,,,,,,,,i,1,,,,,,猖狂,i,0.5565,,,1,39,119,45,1,,,,,,,,,,,,,,,,,,,,,,,,,,,,,,,,,,
,,,,,,,,,,,,,,1,001,2024-08-23_17h11.21.115,IAT(Formal),2021.2.3,Win32,59.88023952,,,,,,,,,,,,,,,i,1,,,,,,其他,i,0.6848,,,1,40,120,9,1,,,,,,,,,,,,,,,,,,,,,,,,,,,,,,,,,,
,,,,,,,,,,,,,,1,001,2024-08-23_17h11.21.115,IAT(Formal),2021.2.3,Win32,59.88023952,,,,,,,,,,,,,,,i,1,,,,,,悲观,i,1.2033,,,1,41,121,34,1,,,,,,,,,,,,,,,,,,,,,,,,,,,,,,,,,,
,,,,,,,,,,,,,,1,001,2024-08-23_17h11.21.115,IAT(Formal),2021.2.3,Win32,59.88023952,,,,,,,,,,,,,,,e,1,,,,,,我的,e,0.5502,,,1,42,122,71,1,,,,,,,,,,,,,,,,,,,,,,,,,,,,,,,,,,
,,,,,,,,,,,,,,1,001,2024-08-23_17h11.21.115,IAT(Formal),2021.2.3,Win32,59.88023952,,,,,,,,,,,,,,,i,1,,,,,,他们,i,1.1674,,,1,43,123,66,1,,,,,,,,,,,,,,,,,,,,,,,,,,,,,,,,,,
,,,,,,,,,,,,,,1,001,2024-08-23_17h11.21.115,IAT(Formal),2021.2.3,Win32,59.88023952,,,,,,,,,,,,,,,e,1,,,,,,机智,e,0.6296,,,1,44,124,19,1,,,,,,,,,,,,,,,,,,,,,,,,,,,,,,,,,,
,,,,,,,,,,,,,,1,001,2024-08-23_17h11.21.115,IAT(Formal),2021.2.3,Win32,59.88023952,,,,,,,,,,,,,,,i,1,,,,,,他的,i,0.6845,,,1,45,125,67,1,,,,,,,,,,,,,,,,,,,,,,,,,,,,,,,,,,
,,,,,,,,,,,,,,1,001,2024-08-23_17h11.21.115,IAT(Formal),2021.2.3,Win32,59.88023952,,,,,,,,,,,,,,,i,1,,,,,,散漫,i,0.5539,,,1,46,126,41,1,,,,,,,,,,,,,,,,,,,,,,,,,,,,,,,,,,
,,,,,,,,,,,,,,1,001,2024-08-23_17h11.21.115,IAT(Formal),2021.2.3,Win32,59.88023952,,,,,,,,,,,,,,,i,1,,,,,,其他,i,0.617,,,1,47,127,59,1,,,,,,,,,,,,,,,,,,,,,,,,,,,,,,,,,,
,,,,,,,,,,,,,,1,001,2024-08-23_17h11.21.115,IAT(Formal),2021.2.3,Win32,59.88023952,,,,,,,,,,,,,,,i,1,,,,,,他人,i,0.5289,,,1,48,128,8,1,,,,,,,,,,,,,,,,,,,,,,,,,,,,,,,,,,
,,,,,,,,,,,,,,1,001,2024-08-23_17h11.21.115,IAT(Formal),2021.2.3,Win32,59.88023952,,,,,,,,,,,,,,,i,1,,,,,,下贱,i,1.1998,,,1,49,129,49,1,,,,,,,,,,,,,,,,,,,,,,,,,,,,,,,,,,
,,,,,,,,,,,,,,1,001,2024-08-23_17h11.21.115,IAT(Formal),2021.2.3,Win32,59.88023952,,,,,,,,,,,,,,,e,1,,,,,,俺,e,0.9666,,,1,50,130,4,1,,,,,,,,,,,,,,,,,,,,,,,,,,,,,,,,,,
,,,,,,,,,,,,,,1,001,2024-08-23_17h11.21.115,IAT(Formal),2021.2.3,Win32,59.88023952,,,,,,,,,,,,,,,i,1,,,,,,虚伪,i,0.7242,,,1,51,131,31,1,,,,,,,,,,,,,,,,,,,,,,,,,,,,,,,,,,
,,,,,,,,,,,,,,1,001,2024-08-23_17h11.21.115,IAT(Formal),2021.2.3,Win32,59.88023952,,,,,,,,,,,,,,,i,1,,,,,,轻率,i,0.6179,,,1,52,132,48,1,,,,,,,,,,,,,,,,,,,,,,,,,,,,,,,,,,
,,,,,,,,,,,,,,1,001,2024-08-23_17h11.21.115,IAT(Formal),2021.2.3,Win32,59.88023952,,,,,,,,,,,,,,,e,1,,,,,,正直,e,0.5367,,,1,53,133,16,1,,,,,,,,,,,,,,,,,,,,,,,,,,,,,,,,,,
,,,,,,,,,,,,,,1,001,2024-08-23_17h11.21.115,IAT(Formal),2021.2.3,Win32,59.88023952,,,,,,,,,,,,,,,i,1,,,,,,他们,i,0.7333,,,1,54,134,56,1,,,,,,,,,,,,,,,,,,,,,,,,,,,,,,,,,,
,,,,,,,,,,,,,,1,001,2024-08-23_17h11.21.115,IAT(Formal),2021.2.3,Win32,59.88023952,,,,,,,,,,,,,,,i,1,,,,,,他的,i,0.6173,,,1,55,135,57,1,,,,,,,,,,,,,,,,,,,,,,,,,,,,,,,,,,
,,,,,,,,,,,,,,1,001,2024-08-23_17h11.21.115,IAT(Formal),2021.2.3,Win32,59.88023952,,,,,,,,,,,,,,,e,1,,,,,,我的,e,0.6657,,,1,56,136,51,1,,,,,,,,,,,,,,,,,,,,,,,,,,,,,,,,,,
,,,,,,,,,,,,,,1,001,2024-08-23_17h11.21.115,IAT(Formal),2021.2.3,Win32,59.88023952,,,,,,,,,,,,,,,e,1,,,,,,我们,e,0.67,,,1,57,137,72,1,,,,,,,,,,,,,,,,,,,,,,,,,,,,,,,,,,
,,,,,,,,,,,,,,1,001,2024-08-23_17h11.21.115,IAT(Formal),2021.2.3,Win32,59.88023952,,,,,,,,,,,,,,,i,1,,,,,,他,i,0.731,,,1,58,138,65,1,,,,,,,,,,,,,,,,,,,,,,,,,,,,,,,,,,
,,,,,,,,,,,,,,1,001,2024-08-23_17h11.21.115,IAT(Formal),2021.2.3,Win32,59.88023952,,,,,,,,,,,,,,,i,1,,,,,,刻薄,i,0.7003,,,1,59,139,33,1,,,,,,,,,,,,,,,,,,,,,,,,,,,,,,,,,,
,,,,,,,,,,,,,,1,001,2024-08-23_17h11.21.115,IAT(Formal),2021.2.3,Win32,59.88023952,,,,,,,,,,,,,,,e,1,,,,,,优秀,e,0.633,,,1,60,140,10,1,,,,,,,,,,,,,,,,,,,,,,,,,,,,,,,,,,
,,,,,,,,,,,,,,1,001,2024-08-23_17h11.21.115,IAT(Formal),2021.2.3,Win32,59.88023952,,,,,,,,,,,,,,,i,1,,,,,,鲁莽,i,0.5714,,,1,61,141,38,1,,,,,,,,,,,,,,,,,,,,,,,,,,,,,,,,,,
,,,,,,,,,,,,,,1,001,2024-08-23_17h11.21.115,IAT(Formal),2021.2.3,Win32,59.88023952,,,,,,,,,,,,,,,e,1,,,,,,我们,e,0.6575,,,1,62,142,62,1,,,,,,,,,,,,,,,,,,,,,,,,,,,,,,,,,,
,,,,,,,,,,,,,,1,001,2024-08-23_17h11.21.115,IAT(Formal),2021.2.3,Win32,59.88023952,,,,,,,,,,,,,,,e,1,,,,,,我的,e,0.4765,,,1,63,143,1,1,,,,,,,,,,,,,,,,,,,,,,,,,,,,,,,,,,
,,,,,,,,,,,,,,1,001,2024-08-23_17h11.21.115,IAT(Formal),2021.2.3,Win32,59.88023952,,,,,,,,,,,,,,,i,1,,,,,,他,i,0.6497,,,1,64,144,75,1,,,,,,,,,,,,,,,,,,,,,,,,,,,,,,,,,,
,,,,,,,,,,,,,,1,001,2024-08-23_17h11.21.115,IAT(Formal),2021.2.3,Win32,59.88023952,,,,,,,,,,,,,,,e,1,,,,,,我,e,0.5866,,,1,65,145,50,1,,,,,,,,,,,,,,,,,,,,,,,,,,,,,,,,,,
,,,,,,,,,,,,,,1,001,2024-08-23_17h11.21.115,IAT(Formal),2021.2.3,Win32,59.88023952,,,,,,,,,,,,,,,i,0,,,,,,热情,e,0.5672,,,1,66,146,27,1,,,,,,,,,,,,,,,,,,,,,,,,,,,,,,,,,,
,,,,,,,,,,,,,,1,001,2024-08-23_17h11.21.115,IAT(Formal),2021.2.3,Win32,59.88023952,,,,,,,,,,,,,,,e,1,,,,,,俺,e,0.5341,,,1,67,147,64,1,,,,,,,,,,,,,,,,,,,,,,,,,,,,,,,,,,
,,,,,,,,,,,,,,1,001,2024-08-23_17h11.21.115,IAT(Formal),2021.2.3,Win32,59.88023952,,,,,,,,,,,,,,,e,1,,,,,,诚实,e,0.6054,,,1,68,148,15,1,,,,,,,,,,,,,,,,,,,,,,,,,,,,,,,,,,
,,,,,,,,,,,,,,1,001,2024-08-23_17h11.21.115,IAT(Formal),2021.2.3,Win32,59.88023952,,,,,,,,,,,,,,,e,1,,,,,,细腻,e,0.6322,,,1,69,149,25,1,,,,,,,,,,,,,,,,,,,,,,,,,,,,,,,,,,
,,,,,,,,,,,,,,1,001,2024-08-23_17h11.21.115,IAT(Formal),2021.2.3,Win32,59.88023952,,,,,,,,,,,,,,,i,1,,,,,,他,i,0.536,,,1,70,150,5,1,,,,,,,,,,,,,,,,,,,,,,,,,,,,,,,,,,
,,,,,,,,,,,,,,1,001,2024-08-23_17h11.21.115,IAT(Formal),2021.2.3,Win32,59.88023952,,,,,,,,,,,,,,,e,0,,,,,,固执,i,1.0006,,,1,71,151,47,1,,,,,,,,,,,,,,,,,,,,,,,,,,,,,,,,,,
,,,,,,,,,,,,,,1,001,2024-08-23_17h11.21.115,IAT(Formal),2021.2.3,Win32,59.88023952,,,,,,,,,,,,,,,e,1,,,,,,自己,e,0.4591,,,1,72,152,3,1,,,,,,,,,,,,,,,,,,,,,,,,,,,,,,,,,,
,,,,,,,,,,,,,,1,001,2024-08-23_17h11.21.115,IAT(Formal),2021.2.3,Win32,59.88023952,,,,,,,,,,,,,,,i,1,,,,,,暴躁,i,0.6913,,,1,73,153,44,1,,,,,,,,,,,,,,,,,,,,,,,,,,,,,,,,,,
,,,,,,,,,,,,,,1,001,2024-08-23_17h11.21.115,IAT(Formal),2021.2.3,Win32,59.88023952,,,,,,,,,,,,,,,i,1,,,,,,他人,i,0.6506,,,1,74,154,58,1,,,,,,,,,,,,,,,,,,,,,,,,,,,,,,,,,,
,,,,,,,,,,,,,,1,001,2024-08-23_17h11.21.115,IAT(Formal),2021.2.3,Win32,59.88023952,,,,,,,,,,,,,,,i,1,,,,,,凶狠,i,0.6449,,,1,75,155,42,1,,,,,,,,,,,,,,,,,,,,,,,,,,,,,,,,,,
,,,,,,,,,,,,,,1,001,2024-08-23_17h11.21.115,IAT(Formal),2021.2.3,Win32,59.88023952,,,,,,,,,,,,,,,e,1,,,,,,俺,e,0.7679,,,1,76,156,54,1,,,,,,,,,,,,,,,,,,,,,,,,,,,,,,,,,,
,,,,,,,,,,,,,,1,001,2024-08-23_17h11.21.115,IAT(Formal),2021.2.3,Win32,59.88023952,,,,,,,,,,,,,,,e,1,,,,,,自己,e,0.6845,,,1,77,157,63,1,,,,,,,,,,,,,,,,,,,,,,,,,,,,,,,,,,
,,,,,,,,,,,,,,1,001,2024-08-23_17h11.21.115,IAT(Formal),2021.2.3,Win32,59.88023952,,,,,,,,,,,,,,,e,1,,,,,,自己,e,0.5618,,,1,78,158,53,1,,,,,,,,,,,,,,,,,,,,,,,,,,,,,,,,,,
,,,,,,,,,,,,,,1,001,2024-08-23_17h11.21.115,IAT(Formal),2021.2.3,Win32,59.88023952,,,,,,,,,,,,,,,i,1,,,,,,自卑,i,0.8252,,,1,79,159,36,1,,,,,,,,,,,,,,,,,,,,,,,,,,,,,,,,,,
,,,,,,,,,,,,我,i,1,001,2024-08-23_17h11.21.115,IAT(Formal),2021.2.3,Win32,59.88023952,,,,,,,,,,,,,,,,,,,,,,,,,,,,,,,,space,13.75,i,1,0.8028,0,0,0,0,1,,,,,,,,,,,,,,,,,,,,,,,,
,,,,,,,,,,,,他们,e,1,001,2024-08-23_17h11.21.115,IAT(Formal),2021.2.3,Win32,59.88023952,,,,,,,,,,,,,,,,,,,,,,,,,,,,,,,,,,e,1,0.5994,0,1,1,6,1,,,,,,,,,,,,,,,,,,,,,,,,
,,,,,,,,,,,,自己,i,1,001,2024-08-23_17h11.21.115,IAT(Formal),2021.2.3,Win32,59.88023952,,,,,,,,,,,,,,,,,,,,,,,,,,,,,,,,,,i,1,0.8012,0,2,2,3,1,,,,,,,,,,,,,,,,,,,,,,,,
,,,,,,,,,,,,他,e,1,001,2024-08-23_17h11.21.115,IAT(Formal),2021.2.3,Win32,59.88023952,,,,,,,,,,,,,,,,,,,,,,,,,,,,,,,,,,e,1,0.7618,0,3,3,5,1,,,,,,,,,,,,,,,,,,,,,,,,
,,,,,,,,,,,,其他,e,1,001,2024-08-23_17h11.21.115,IAT(Formal),2021.2.3,Win32,59.88023952,,,,,,,,,,,,,,,,,,,,,,,,,,,,,,,,,,i,0,1.1045,0,4,4,9,1,,,,,,,,,,,,,,,,,,,,,,,,
,,,,,,,,,,,,我们,i,1,001,2024-08-23_17h11.21.115,IAT(Formal),2021.2.3,Win32,59.88023952,,,,,,,,,,,,,,,,,,,,,,,,,,,,,,,,,,e,0,1.3932,0,5,5,2,1,,,,,,,,,,,,,,,,,,,,,,,,
,,,,,,,,,,,,我的,i,1,001,2024-08-23_17h11.21.115,IAT(Formal),2021.2.3,Win32,59.88023952,,,,,,,,,,,,,,,,,,,,,,,,,,,,,,,,,,e,0,1.1534,0,6,6,1,1,,,,,,,,,,,,,,,,,,,,,,,,
,,,,,,,,,,,,俺,i,1,001,2024-08-23_17h11.21.115,IAT(Formal),2021.2.3,Win32,59.88023952,,,,,,,,,,,,,,,,,,,,,,,,,,,,,,,,,,i,1,0.7416,0,7,7,4,1,,,,,,,,,,,,,,,,,,,,,,,,
,,,,,,,,,,,,他人,e,1,001,2024-08-23_17h11.21.115,IAT(Formal),2021.2.3,Win32,59.88023952,,,,,,,,,,,,,,,,,,,,,,,,,,,,,,,,,,e,1,0.7676,0,8,8,8,1,,,,,,,,,,,,,,,,,,,,,,,,
,,,,,,,,,,,,他的,e,1,001,2024-08-23_17h11.21.115,IAT(Formal),2021.2.3,Win32,59.88023952,,,,,,,,,,,,,,,,,,,,,,,,,,,,,,,,,,i,0,0.6652,0,9,9,7,1,,,,,,,,,,,,,,,,,,,,,,,,
,,,,,,,,,,,,,,1,001,2024-08-23_17h11.21.115,IAT(Formal),2021.2.3,Win32,59.88023952,,,,,,,,,,,,,,,,,,,,,,,,,,,,,,,,,,,,,,,,,,space,8.7768,e,1,0.9181,0,0,0,5,1,他,e,,,,,,,,,,,,
,,,,,,,,,,,,,,1,001,2024-08-23_17h11.21.115,IAT(Formal),2021.2.3,Win32,59.88023952,,,,,,,,,,,,,,,,,,,,,,,,,,,,,,,,,,,,,,,,,,,,i,1,0.7715,0,1,1,64,1,俺,i,,,,,,,,,,,,
,,,,,,,,,,,,,,1,001,2024-08-23_17h11.21.115,IAT(Formal),2021.2.3,Win32,59.88023952,,,,,,,,,,,,,,,,,,,,,,,,,,,,,,,,,,,,,,,,,,,,i,0,1.0185,0,2,2,19,1,机智,e,,,,,,,,,,,,
,,,,,,,,,,,,,,1,001,2024-08-23_17h11.21.115,IAT(Formal),2021.2.3,Win32,59.88023952,,,,,,,,,,,,,,,,,,,,,,,,,,,,,,,,,,,,,,,,,,,,e,0,1.2725,0,3,3,30,1,卑鄙,i,,,,,,,,,,,,
,,,,,,,,,,,,,,1,001,2024-08-23_17h11.21.115,IAT(Formal),2021.2.3,Win32,59.88023952,,,,,,,,,,,,,,,,,,,,,,,,,,,,,,,,,,,,,,,,,,,,e,1,1.1849,0,4,4,22,1,无私,e,,,,,,,,,,,,
,,,,,,,,,,,,,,1,001,2024-08-23_17h11.21.115,IAT(Formal),2021.2.3,Win32,59.88023952,,,,,,,,,,,,,,,,,,,,,,,,,,,,,,,,,,,,,,,,,,,,,0,,0,5,5,13,1,杰出,e,,,,,,,,,,,,
,,,,,,,,,,,,,,1,001,2024-08-23_17h11.21.115,IAT(Formal),2021.2.3,Win32,59.88023952,,,,,,,,,,,,,,,,,,,,,,,,,,,,,,,,,,,,,,,,,,,,e,0,1.4249,0,6,6,52,1,我们,i,,,,,,,,,,,,
,,,,,,,,,,,,,,1,001,2024-08-23_17h11.21.115,IAT(Formal),2021.2.3,Win32,59.88023952,,,,,,,,,,,,,,,,,,,,,,,,,,,,,,,,,,,,,,,,,,,,,0,,0,7,7,32,1,愚蠢,i,,,,,,,,,,,,
,,,,,,,,,,,,,,1,001,2024-08-23_17h11.21.115,IAT(Formal),2021.2.3,Win32,59.88023952,,,,,,,,,,,,,,,,,,,,,,,,,,,,,,,,,,,,,,,,,,,,i,0,1.1341,0,8,8,67,1,他的,e,,,,,,,,,,,,
,,,,,,,,,,,,,,1,001,2024-08-23_17h11.21.115,IAT(Formal),2021.2.3,Win32,59.88023952,,,,,,,,,,,,,,,,,,,,,,,,,,,,,,,,,,,,,,,,,,,,i,1,1.2579,0,9,9,70,1,我,i,,,,,,,,,,,,
,,,,,,,,,,,,,,1,001,2024-08-23_17h11.21.115,IAT(Formal),2021.2.3,Win32,59.88023952,,,,,,,,,,,,,,,,,,,,,,,,,,,,,,,,,,,,,,,,,,,,,0,,0,10,10,40,1,执拗,i,,,,,,,,,,,,
,,,,,,,,,,,,,,1,001,2024-08-23_17h11.21.115,IAT(Formal),2021.2.3,Win32,59.88023952,,,,,,,,,,,,,,,,,,,,,,,,,,,,,,,,,,,,,,,,,,,,i,1,0.5937,0,11,11,62,1,我们,i,,,,,,,,,,,,
,,,,,,,,,,,,,,1,001,2024-08-23_17h11.21.115,IAT(Formal),2021.2.3,Win32,59.88023952,,,,,,,,,,,,,,,,,,,,,,,,,,,,,,,,,,,,,,,,,,,,i,1,0.6151,0,12,12,41,1,散漫,i,,,,,,,,,,,,
,,,,,,,,,,,,,,1,001,2024-08-23_17h11.21.115,IAT(Formal),2021.2.3,Win32,59.88023952,,,,,,,,,,,,,,,,,,,,,,,,,,,,,,,,,,,,,,,,,,,,e,1,0.9407,0,13,13,28,1,活泼,e,,,,,,,,,,,,
,,,,,,,,,,,,,,1,001,2024-08-23_17h11.21.115,IAT(Formal),2021.2.3,Win32,59.88023952,,,,,,,,,,,,,,,,,,,,,,,,,,,,,,,,,,,,,,,,,,,,e,1,0.5176,0,14,14,56,1,他们,e,,,,,,,,,,,,
,,,,,,,,,,,,,,1,001,2024-08-23_17h11.21.115,IAT(Formal),2021.2.3,Win32,59.88023952,,,,,,,,,,,,,,,,,,,,,,,,,,,,,,,,,,,,,,,,,,,,e,1,0.7057,0,15,15,76,1,他们,e,,,,,,,,,,,,
,,,,,,,,,,,,,,1,001,2024-08-23_17h11.21.115,IAT(Formal),2021.2.3,Win32,59.88023952,,,,,,,,,,,,,,,,,,,,,,,,,,,,,,,,,,,,,,,,,,,,i,1,0.5262,0,16,16,1,1,我的,i,,,,,,,,,,,,
,,,,,,,,,,,,,,1,001,2024-08-23_17h11.21.115,IAT(Formal),2021.2.3,Win32,59.88023952,,,,,,,,,,,,,,,,,,,,,,,,,,,,,,,,,,,,,,,,,,,,e,1,0.8031,0,17,17,7,1,他的,e,,,,,,,,,,,,
,,,,,,,,,,,,,,1,001,2024-08-23_17h11.21.115,IAT(Formal),2021.2.3,Win32,59.88023952,,,,,,,,,,,,,,,,,,,,,,,,,,,,,,,,,,,,,,,,,,,,e,1,1.0169,0,18,18,17,1,勇敢,e,,,,,,,,,,,,
,,,,,,,,,,,,,,1,001,2024-08-23_17h11.21.115,IAT(Formal),2021.2.3,Win32,59.88023952,,,,,,,,,,,,,,,,,,,,,,,,,,,,,,,,,,,,,,,,,,,,i,1,0.4499,0,19,19,45,1,猖狂,i,,,,,,,,,,,,
,,,,,,,,,,,,,,1,001,2024-08-23_17h11.21.115,IAT(Formal),2021.2.3,Win32,59.88023952,,,,,,,,,,,,,,,,,,,,,,,,,,,,,,,,,,,,,,,,,,,,i,1,0.8172,0,20,20,42,1,凶狠,i,,,,,,,,,,,,
,,,,,,,,,,,,,,1,001,2024-08-23_17h11.21.115,IAT(Formal),2021.2.3,Win32,59.88023952,,,,,,,,,,,,,,,,,,,,,,,,,,,,,,,,,,,,,,,,,,,,e,1,0.792,0,21,21,24,1,朴实,e,,,,,,,,,,,,
,,,,,,,,,,,,,,1,001,2024-08-23_17h11.21.115,IAT(Formal),2021.2.3,Win32,59.88023952,,,,,,,,,,,,,,,,,,,,,,,,,,,,,,,,,,,,,,,,,,,,e,1,0.6476,0,22,22,12,1,聪明,e,,,,,,,,,,,,
,,,,,,,,,,,,,,1,001,2024-08-23_17h11.21.115,IAT(Formal),2021.2.3,Win32,59.88023952,,,,,,,,,,,,,,,,,,,,,,,,,,,,,,,,,,,,,,,,,,,,i,1,1.0033,0,23,23,72,1,我们,i,,,,,,,,,,,,
,,,,,,,,,,,,,,1,001,2024-08-23_17h11.21.115,IAT(Formal),2021.2.3,Win32,59.88023952,,,,,,,,,,,,,,,,,,,,,,,,,,,,,,,,,,,,,,,,,,,,,0,,0,24,24,20,1,认真,e,,,,,,,,,,,,
,,,,,,,,,,,,,,1,001,2024-08-23_17h11.21.115,IAT(Formal),2021.2.3,Win32,59.88023952,,,,,,,,,,,,,,,,,,,,,,,,,,,,,,,,,,,,,,,,,,,,e,1,0.9284,0,25,25,18,1,勤奋,e,,,,,,,,,,,,
,,,,,,,,,,,,,,1,001,2024-08-23_17h11.21.115,IAT(Formal),2021.2.3,Win32,59.88023952,,,,,,,,,,,,,,,,,,,,,,,,,,,,,,,,,,,,,,,,,,,,i,1,0.631,0,26,26,35,1,消极,i,,,,,,,,,,,,
,,,,,,,,,,,,,,1,001,2024-08-23_17h11.21.115,IAT(Formal),2021.2.3,Win32,59.88023952,,,,,,,,,,,,,,,,,,,,,,,,,,,,,,,,,,,,,,,,,,,,i,1,0.5945,0,27,27,36,1,自卑,i,,,,,,,,,,,,
,,,,,,,,,,,,,,1,001,2024-08-23_17h11.21.115,IAT(Formal),2021.2.3,Win32,59.88023952,,,,,,,,,,,,,,,,,,,,,,,,,,,,,,,,,,,,,,,,,,,,e,0,0.7004,0,28,28,3,1,自己,i,,,,,,,,,,,,
,,,,,,,,,,,,,,1,001,2024-08-23_17h11.21.115,IAT(Formal),2021.2.3,Win32,59.88023952,,,,,,,,,,,,,,,,,,,,,,,,,,,,,,,,,,,,,,,,,,,,i,1,0.6502,0,29,29,73,1,自己,i,,,,,,,,,,,,
,,,,,,,,,,,,,,1,001,2024-08-23_17h11.21.115,IAT(Formal),2021.2.3,Win32,59.88023952,,,,,,,,,,,,,,,,,,,,,,,,,,,,,,,,,,,,,,,,,,,,,0,,0,30,30,39,1,冒失,i,,,,,,,,,,,,
,,,,,,,,,,,,,,1,001,2024-08-23_17h11.21.115,IAT(Formal),2021.2.3,Win32,59.88023952,,,,,,,,,,,,,,,,,,,,,,,,,,,,,,,,,,,,,,,,,,,,i,1,0.9549,0,31,31,49,1,下贱,i,,,,,,,,,,,,
,,,,,,,,,,,,,,1,001,2024-08-23_17h11.21.115,IAT(Formal),2021.2.3,Win32,59.88023952,,,,,,,,,,,,,,,,,,,,,,,,,,,,,,,,,,,,,,,,,,,,e,1,0.7339,0,32,32,16,1,正直,e,,,,,,,,,,,,
,,,,,,,,,,,,,,1,001,2024-08-23_17h11.21.115,IAT(Formal),2021.2.3,Win32,59.88023952,,,,,,,,,,,,,,,,,,,,,,,,,,,,,,,,,,,,,,,,,,,,e,1,0.9067,0,33,33,79,1,其他,e,,,,,,,,,,,,
,,,,,,,,,,,,,,1,001,2024-08-23_17h11.21.115,IAT(Formal),2021.2.3,Win32,59.88023952,,,,,,,,,,,,,,,,,,,,,,,,,,,,,,,,,,,,,,,,,,,,i,1,0.6182,0,34,34,61,1,我的,i,,,,,,,,,,,,
,,,,,,,,,,,,,,1,001,2024-08-23_17h11.21.115,IAT(Formal),2021.2.3,Win32,59.88023952,,,,,,,,,,,,,,,,,,,,,,,,,,,,,,,,,,,,,,,,,,,,i,1,0.8506,0,35,35,4,1,俺,i,,,,,,,,,,,,
,,,,,,,,,,,,,,1,001,2024-08-23_17h11.21.115,IAT(Formal),2021.2.3,Win32,59.88023952,,,,,,,,,,,,,,,,,,,,,,,,,,,,,,,,,,,,,,,,,,,,e,1,0.9586,0,36,36,26,1,冷静,e,,,,,,,,,,,,
,,,,,,,,,,,,,,1,001,2024-08-23_17h11.21.115,IAT(Formal),2021.2.3,Win32,59.88023952,,,,,,,,,,,,,,,,,,,,,,,,,,,,,,,,,,,,,,,,,,,,i,0,0.7018,0,37,37,69,1,其他,e,,,,,,,,,,,,
,,,,,,,,,,,,,,1,001,2024-08-23_17h11.21.115,IAT(Formal),2021.2.3,Win32,59.88023952,,,,,,,,,,,,,,,,,,,,,,,,,,,,,,,,,,,,,,,,,,,,e,1,0.5909,0,38,38,66,1,他们,e,,,,,,,,,,,,
,,,,,,,,,,,,,,1,001,2024-08-23_17h11.21.115,IAT(Formal),2021.2.3,Win32,59.88023952,,,,,,,,,,,,,,,,,,,,,,,,,,,,,,,,,,,,,,,,,,,,e,1,0.5467,0,39,39,65,1,他,e,,,,,,,,,,,,
,,,,,,,,,,,,,,1,001,2024-08-23_17h11.21.115,IAT(Formal),2021.2.3,Win32,59.88023952,,,,,,,,,,,,,,,,,,,,,,,,,,,,,,,,,,,,,,,,,,,,i,1,0.9672,0,40,40,46,1,野蛮,i,,,,,,,,,,,,
,,,,,,,,,,,,,,1,001,2024-08-23_17h11.21.115,IAT(Formal),2021.2.3,Win32,59.88023952,,,,,,,,,,,,,,,,,,,,,,,,,,,,,,,,,,,,,,,,,,,,e,1,0.9,0,41,41,10,1,优秀,e,,,,,,,,,,,,
,,,,,,,,,,,,,,1,001,2024-08-23_17h11.21.115,IAT(Formal),2021.2.3,Win32,59.88023952,,,,,,,,,,,,,,,,,,,,,,,,,,,,,,,,,,,,,,,,,,,,i,1,0.8118,0,42,42,63,1,自己,i,,,,,,,,,,,,
,,,,,,,,,,,,,,1,001,2024-08-23_17h11.21.115,IAT(Formal),2021.2.3,Win32,59.88023952,,,,,,,,,,,,,,,,,,,,,,,,,,,,,,,,,,,,,,,,,,,,i,1,0.7993,0,43,43,71,1,我的,i,,,,,,,,,,,,
,,,,,,,,,,,,,,1,001,2024-08-23_17h11.21.115,IAT(Formal),2021.2.3,Win32,59.88023952,,,,,,,,,,,,,,,,,,,,,,,,,,,,,,,,,,,,,,,,,,,,i,1,0.5615,0,44,44,50,1,我,i,,,,,,,,,,,,
,,,,,,,,,,,,,,1,001,2024-08-23_17h11.21.115,IAT(Formal),2021.2.3,Win32,59.88023952,,,,,,,,,,,,,,,,,,,,,,,,,,,,,,,,,,,,,,,,,,,,e,1,1.168,0,45,45,11,1,崇高,e,,,,,,,,,,,,
,,,,,,,,,,,,,,1,001,2024-08-23_17h11.21.115,IAT(Formal),2021.2.3,Win32,59.88023952,,,,,,,,,,,,,,,,,,,,,,,,,,,,,,,,,,,,,,,,,,,,e,0,0.718,0,46,46,53,1,自己,i,,,,,,,,,,,,
,,,,,,,,,,,,,,1,001,2024-08-23_17h11.21.115,IAT(Formal),2021.2.3,Win32,59.88023952,,,,,,,,,,,,,,,,,,,,,,,,,,,,,,,,,,,,,,,,,,,,i,1,0.5484,0,47,47,51,1,我的,i,,,,,,,,,,,,
,,,,,,,,,,,,,,1,001,2024-08-23_17h11.21.115,IAT(Formal),2021.2.3,Win32,59.88023952,,,,,,,,,,,,,,,,,,,,,,,,,,,,,,,,,,,,,,,,,,,,i,1,0.5266,0,48,48,2,1,我们,i,,,,,,,,,,,,
,,,,,,,,,,,,,,1,001,2024-08-23_17h11.21.115,IAT(Formal),2021.2.3,Win32,59.88023952,,,,,,,,,,,,,,,,,,,,,,,,,,,,,,,,,,,,,,,,,,,,e,1,0.7391,0,49,49,75,1,他,e,,,,,,,,,,,,
,,,,,,,,,,,,,,1,001,2024-08-23_17h11.21.115,IAT(Formal),2021.2.3,Win32,59.88023952,,,,,,,,,,,,,,,,,,,,,,,,,,,,,,,,,,,,,,,,,,,,e,1,0.5687,0,50,50,55,1,他,e,,,,,,,,,,,,
,,,,,,,,,,,,,,1,001,2024-08-23_17h11.21.115,IAT(Formal),2021.2.3,Win32,59.88023952,,,,,,,,,,,,,,,,,,,,,,,,,,,,,,,,,,,,,,,,,,,,e,1,0.886,0,51,51,68,1,他人,e,,,,,,,,,,,,
,,,,,,,,,,,,,,1,001,2024-08-23_17h11.21.115,IAT(Formal),2021.2.3,Win32,59.88023952,,,,,,,,,,,,,,,,,,,,,,,,,,,,,,,,,,,,,,,,,,,,i,1,0.9973,0,52,52,48,1,轻率,i,,,,,,,,,,,,
,,,,,,,,,,,,,,1,001,2024-08-23_17h11.21.115,IAT(Formal),2021.2.3,Win32,59.88023952,,,,,,,,,,,,,,,,,,,,,,,,,,,,,,,,,,,,,,,,,,,,i,1,0.6358,0,53,53,33,1,刻薄,i,,,,,,,,,,,,
,,,,,,,,,,,,,,1,001,2024-08-23_17h11.21.115,IAT(Formal),2021.2.3,Win32,59.88023952,,,,,,,,,,,,,,,,,,,,,,,,,,,,,,,,,,,,,,,,,,,,i,0,0.7516,0,54,54,78,1,他人,e,,,,,,,,,,,,
,,,,,,,,,,,,,,1,001,2024-08-23_17h11.21.115,IAT(Formal),2021.2.3,Win32,59.88023952,,,,,,,,,,,,,,,,,,,,,,,,,,,,,,,,,,,,,,,,,,,,e,1,1.0206,0,55,55,27,1,热情,e,,,,,,,,,,,,
,,,,,,,,,,,,,,1,001,2024-08-23_17h11.21.115,IAT(Formal),2021.2.3,Win32,59.88023952,,,,,,,,,,,,,,,,,,,,,,,,,,,,,,,,,,,,,,,,,,,,i,1,1.2505,0,56,56,47,1,固执,i,,,,,,,,,,,,
,,,,,,,,,,,,,,1,001,2024-08-23_17h11.21.115,IAT(Formal),2021.2.3,Win32,59.88023952,,,,,,,,,,,,,,,,,,,,,,,,,,,,,,,,,,,,,,,,,,,,,0,,0,57,57,60,1,我,i,,,,,,,,,,,,
,,,,,,,,,,,,,,1,001,2024-08-23_17h11.21.115,IAT(Formal),2021.2.3,Win32,59.88023952,,,,,,,,,,,,,,,,,,,,,,,,,,,,,,,,,,,,,,,,,,,,i,1,1.0155,0,58,58,54,1,俺,i,,,,,,,,,,,,
,,,,,,,,,,,,,,1,001,2024-08-23_17h11.21.115,IAT(Formal),2021.2.3,Win32,59.88023952,,,,,,,,,,,,,,,,,,,,,,,,,,,,,,,,,,,,,,,,,,,,i,0,1.0785,0,59,59,29,1,诚恳,e,,,,,,,,,,,,
,,,,,,,,,,,,,,1,001,2024-08-23_17h11.21.115,IAT(Formal),2021.2.3,Win32,59.88023952,,,,,,,,,,,,,,,,,,,,,,,,,,,,,,,,,,,,,,,,,,,,i,1,1.0046,0,60,60,34,1,悲观,i,,,,,,,,,,,,
,,,,,,,,,,,,,,1,001,2024-08-23_17h11.21.115,IAT(Formal),2021.2.3,Win32,59.88023952,,,,,,,,,,,,,,,,,,,,,,,,,,,,,,,,,,,,,,,,,,,,i,1,0.9345,0,61,61,31,1,虚伪,i,,,,,,,,,,,,
,,,,,,,,,,,,,,1,001,2024-08-23_17h11.21.115,IAT(Formal),2021.2.3,Win32,59.88023952,,,,,,,,,,,,,,,,,,,,,,,,,,,,,,,,,,,,,,,,,,,,e,1,0.8523,0,62,62,23,1,公正,e,,,,,,,,,,,,
,,,,,,,,,,,,,,1,001,2024-08-23_17h11.21.115,IAT(Formal),2021.2.3,Win32,59.88023952,,,,,,,,,,,,,,,,,,,,,,,,,,,,,,,,,,,,,,,,,,,,i,0,0.7602,0,63,63,6,1,他们,e,,,,,,,,,,,,
,,,,,,,,,,,,,,1,001,2024-08-23_17h11.21.115,IAT(Formal),2021.2.3,Win32,59.88023952,,,,,,,,,,,,,,,,,,,,,,,,,,,,,,,,,,,,,,,,,,,,i,1,0.7846,0,64,64,74,1,俺,i,,,,,,,,,,,,
,,,,,,,,,,,,,,1,001,2024-08-23_17h11.21.115,IAT(Formal),2021.2.3,Win32,59.88023952,,,,,,,,,,,,,,,,,,,,,,,,,,,,,,,,,,,,,,,,,,,,e,0,0.991,0,65,65,44,1,暴躁,i,,,,,,,,,,,,
,,,,,,,,,,,,,,1,001,2024-08-23_17h11.21.115,IAT(Formal),2021.2.3,Win32,59.88023952,,,,,,,,,,,,,,,,,,,,,,,,,,,,,,,,,,,,,,,,,,,,e,1,1.1015,0,66,66,59,1,其他,e,,,,,,,,,,,,
,,,,,,,,,,,,,,1,001,2024-08-23_17h11.21.115,IAT(Formal),2021.2.3,Win32,59.88023952,,,,,,,,,,,,,,,,,,,,,,,,,,,,,,,,,,,,,,,,,,,,,0,,0,67,67,0,1,我,i,,,,,,,,,,,,
,,,,,,,,,,,,,,1,001,2024-08-23_17h11.21.115,IAT(Formal),2021.2.3,Win32,59.88023952,,,,,,,,,,,,,,,,,,,,,,,,,,,,,,,,,,,,,,,,,,,,i,1,1.3228,0,68,68,37,1,傲慢,i,,,,,,,,,,,,
,,,,,,,,,,,,,,1,001,2024-08-23_17h11.21.115,IAT(Formal),2021.2.3,Win32,59.88023952,,,,,,,,,,,,,,,,,,,,,,,,,,,,,,,,,,,,,,,,,,,,e,1,0.8553,0,69,69,21,1,稳重,e,,,,,,,,,,,,
,,,,,,,,,,,,,,1,001,2024-08-23_17h11.21.115,IAT(Formal),2021.2.3,Win32,59.88023952,,,,,,,,,,,,,,,,,,,,,,,,,,,,,,,,,,,,,,,,,,,,e,1,0.4576,0,70,70,15,1,诚实,e,,,,,,,,,,,,
,,,,,,,,,,,,,,1,001,2024-08-23_17h11.21.115,IAT(Formal),2021.2.3,Win32,59.88023952,,,,,,,,,,,,,,,,,,,,,,,,,,,,,,,,,,,,,,,,,,,,e,1,0.4281,0,71,71,58,1,他人,e,,,,,,,,,,,,
,,,,,,,,,,,,,,1,001,2024-08-23_17h11.21.115,IAT(Formal),2021.2.3,Win32,59.88023952,,,,,,,,,,,,,,,,,,,,,,,,,,,,,,,,,,,,,,,,,,,,e,1,0.4172,0,72,72,57,1,他的,e,,,,,,,,,,,,
,,,,,,,,,,,,,,1,001,2024-08-23_17h11.21.115,IAT(Formal),2021.2.3,Win32,59.88023952,,,,,,,,,,,,,,,,,,,,,,,,,,,,,,,,,,,,,,,,,,,,e,1,0.5166,0,73,73,77,1,他的,e,,,,,,,,,,,,
,,,,,,,,,,,,,,1,001,2024-08-23_17h11.21.115,IAT(Formal),2021.2.3,Win32,59.88023952,,,,,,,,,,,,,,,,,,,,,,,,,,,,,,,,,,,,,,,,,,,,i,1,1.0599,0,74,74,38,1,鲁莽,i,,,,,,,,,,,,
,,,,,,,,,,,,,,1,001,2024-08-23_17h11.21.115,IAT(Formal),2021.2.3,Win32,59.88023952,,,,,,,,,,,,,,,,,,,,,,,,,,,,,,,,,,,,,,,,,,,,e,1,0.8796,0,75,75,8,1,他人,e,,,,,,,,,,,,
,,,,,,,,,,,,,,1,001,2024-08-23_17h11.21.115,IAT(Formal),2021.2.3,Win32,59.88023952,,,,,,,,,,,,,,,,,,,,,,,,,,,,,,,,,,,,,,,,,,,,i,1,1.1493,0,76,76,43,1,自私,i,,,,,,,,,,,,
,,,,,,,,,,,,,,1,001,2024-08-23_17h11.21.115,IAT(Formal),2021.2.3,Win32,59.88023952,,,,,,,,,,,,,,,,,,,,,,,,,,,,,,,,,,,,,,,,,,,,e,1,1.151,0,77,77,9,1,其他,e,,,,,,,,,,,,
,,,,,,,,,,,,,,1,001,2024-08-23_17h11.21.115,IAT(Formal),2021.2.3,Win32,59.88023952,,,,,,,,,,,,,,,,,,,,,,,,,,,,,,,,,,,,,,,,,,,,e,1,1.0242,0,78,78,25,1,细腻,e,,,,,,,,,,,,
,,,,,,,,,,,,,,1,001,2024-08-23_17h11.21.115,IAT(Formal),2021.2.3,Win32,59.88023952,,,,,,,,,,,,,,,,,,,,,,,,,,,,,,,,,,,,,,,,,,,,e,1,0.7646,0,79,79,14,1,乐观,e,,,,,,,,,,,,
,,,,,,,,,,,,,,1,001,2024-08-23_17h11.21.115,IAT(Formal),2021.2.3,Win32,59.88023952,,,,,,,,,,,,,,,,,,,,,,,,,,,,,,,,,,,,,,,,,,,,,,,,,,,,我的,i,space,37.2033,i,1,0.7891,0,0,0,51,1,,
,,,,,,,,,,,,,,1,001,2024-08-23_17h11.21.115,IAT(Formal),2021.2.3,Win32,59.88023952,,,,,,,,,,,,,,,,,,,,,,,,,,,,,,,,,,,,,,,,,,,,,,,,,,,,轻率,i,,,i,1,1.0211,0,1,1,48,1,,
,,,,,,,,,,,,,,1,001,2024-08-23_17h11.21.115,IAT(Formal),2021.2.3,Win32,59.88023952,,,,,,,,,,,,,,,,,,,,,,,,,,,,,,,,,,,,,,,,,,,,,,,,,,,,公正,e,,,e,1,0.6872,0,2,2,23,1,,
,,,,,,,,,,,,,,1,001,2024-08-23_17h11.21.115,IAT(Formal),2021.2.3,Win32,59.88023952,,,,,,,,,,,,,,,,,,,,,,,,,,,,,,,,,,,,,,,,,,,,,,,,,,,,我,i,,,i,1,0.5897,0,3,3,60,1,,
,,,,,,,,,,,,,,1,001,2024-08-23_17h11.21.115,IAT(Formal),2021.2.3,Win32,59.88023952,,,,,,,,,,,,,,,,,,,,,,,,,,,,,,,,,,,,,,,,,,,,,,,,,,,,他的,e,,,e,1,0.6037,0,4,4,7,1,,
,,,,,,,,,,,,,,1,001,2024-08-23_17h11.21.115,IAT(Formal),2021.2.3,Win32,59.88023952,,,,,,,,,,,,,,,,,,,,,,,,,,,,,,,,,,,,,,,,,,,,,,,,,,,,自私,i,,,e,0,1.1987,0,5,5,43,1,,
,,,,,,,,,,,,,,1,001,2024-08-23_17h11.21.115,IAT(Formal),2021.2.3,Win32,59.88023952,,,,,,,,,,,,,,,,,,,,,,,,,,,,,,,,,,,,,,,,,,,,,,,,,,,,聪明,e,,,e,1,0.5466,0,6,6,12,1,,
,,,,,,,,,,,,,,1,001,2024-08-23_17h11.21.115,IAT(Formal),2021.2.3,Win32,59.88023952,,,,,,,,,,,,,,,,,,,,,,,,,,,,,,,,,,,,,,,,,,,,,,,,,,,,冷静,e,,,e,1,0.5789,0,7,7,26,1,,
,,,,,,,,,,,,,,1,001,2024-08-23_17h11.21.115,IAT(Formal),2021.2.3,Win32,59.88023952,,,,,,,,,,,,,,,,,,,,,,,,,,,,,,,,,,,,,,,,,,,,,,,,,,,,我,i,,,e,0,0.5678,0,8,8,0,1,,
,,,,,,,,,,,,,,1,001,2024-08-23_17h11.21.115,IAT(Formal),2021.2.3,Win32,59.88023952,,,,,,,,,,,,,,,,,,,,,,,,,,,,,,,,,,,,,,,,,,,,,,,,,,,,认真,e,,,e,1,1.3785,0,9,9,20,1,,
,,,,,,,,,,,,,,1,001,2024-08-23_17h11.21.115,IAT(Formal),2021.2.3,Win32,59.88023952,,,,,,,,,,,,,,,,,,,,,,,,,,,,,,,,,,,,,,,,,,,,,,,,,,,,鲁莽,i,,,i,1,0.702,0,10,10,38,1,,
,,,,,,,,,,,,,,1,001,2024-08-23_17h11.21.115,IAT(Formal),2021.2.3,Win32,59.88023952,,,,,,,,,,,,,,,,,,,,,,,,,,,,,,,,,,,,,,,,,,,,,,,,,,,,细腻,e,,,e,1,0.7646,0,11,11,25,1,,
,,,,,,,,,,,,,,1,001,2024-08-23_17h11.21.115,IAT(Formal),2021.2.3,Win32,59.88023952,,,,,,,,,,,,,,,,,,,,,,,,,,,,,,,,,,,,,,,,,,,,,,,,,,,,固执,i,,,i,1,0.7052,0,12,12,47,1,,
,,,,,,,,,,,,,,1,001,2024-08-23_17h11.21.115,IAT(Formal),2021.2.3,Win32,59.88023952,,,,,,,,,,,,,,,,,,,,,,,,,,,,,,,,,,,,,,,,,,,,,,,,,,,,下贱,i,,,i,1,0.5845,0,13,13,49,1,,
,,,,,,,,,,,,,,1,001,2024-08-23_17h11.21.115,IAT(Formal),2021.2.3,Win32,59.88023952,,,,,,,,,,,,,,,,,,,,,,,,,,,,,,,,,,,,,,,,,,,,,,,,,,,,机智,e,,,e,1,0.7241,0,14,14,19,1,,
,,,,,,,,,,,,,,1,001,2024-08-23_17h11.21.115,IAT(Formal),2021.2.3,Win32,59.88023952,,,,,,,,,,,,,,,,,,,,,,,,,,,,,,,,,,,,,,,,,,,,,,,,,,,,俺,i,,,i,1,0.8442,0,15,15,54,1,,
,,,,,,,,,,,,,,1,001,2024-08-23_17h11.21.115,IAT(Formal),2021.2.3,Win32,59.88023952,,,,,,,,,,,,,,,,,,,,,,,,,,,,,,,,,,,,,,,,,,,,,,,,,,,,我,i,,,i,1,0.4921,0,16,16,50,1,,
,,,,,,,,,,,,,,1,001,2024-08-23_17h11.21.115,IAT(Formal),2021.2.3,Win32,59.88023952,,,,,,,,,,,,,,,,,,,,,,,,,,,,,,,,,,,,,,,,,,,,,,,,,,,,我,i,,,i,1,0.4003,0,17,17,70,1,,
,,,,,,,,,,,,,,1,001,2024-08-23_17h11.21.115,IAT(Formal),2021.2.3,Win32,59.88023952,,,,,,,,,,,,,,,,,,,,,,,,,,,,,,,,,,,,,,,,,,,,,,,,,,,,他们,e,,,e,1,0.7128,0,18,18,6,1,,
,,,,,,,,,,,,,,1,001,2024-08-23_17h11.21.115,IAT(Formal),2021.2.3,Win32,59.88023952,,,,,,,,,,,,,,,,,,,,,,,,,,,,,,,,,,,,,,,,,,,,,,,,,,,,他们,e,,,e,1,0.5323,0,19,19,66,1,,
,,,,,,,,,,,,,,1,001,2024-08-23_17h11.21.115,IAT(Formal),2021.2.3,Win32,59.88023952,,,,,,,,,,,,,,,,,,,,,,,,,,,,,,,,,,,,,,,,,,,,,,,,,,,,他们,e,,,e,1,0.4735,0,20,20,56,1,,
,,,,,,,,,,,,,,1,001,2024-08-23_17h11.21.115,IAT(Formal),2021.2.3,Win32,59.88023952,,,,,,,,,,,,,,,,,,,,,,,,,,,,,,,,,,,,,,,,,,,,,,,,,,,,他,e,,,e,1,0.796,0,21,21,55,1,,
,,,,,,,,,,,,,,1,001,2024-08-23_17h11.21.115,IAT(Formal),2021.2.3,Win32,59.88023952,,,,,,,,,,,,,,,,,,,,,,,,,,,,,,,,,,,,,,,,,,,,,,,,,,,,刻薄,i,,,i,1,1.0105,0,22,22,33,1,,
,,,,,,,,,,,,,,1,001,2024-08-23_17h11.21.115,IAT(Formal),2021.2.3,Win32,59.88023952,,,,,,,,,,,,,,,,,,,,,,,,,,,,,,,,,,,,,,,,,,,,,,,,,,,,悲观,i,,,i,1,0.6833,0,23,23,34,1,,
,,,,,,,,,,,,,,1,001,2024-08-23_17h11.21.115,IAT(Formal),2021.2.3,Win32,59.88023952,,,,,,,,,,,,,,,,,,,,,,,,,,,,,,,,,,,,,,,,,,,,,,,,,,,,他的,e,,,e,1,1.2055,0,24,24,77,1,,
,,,,,,,,,,,,,,1,001,2024-08-23_17h11.21.115,IAT(Formal),2021.2.3,Win32,59.88023952,,,,,,,,,,,,,,,,,,,,,,,,,,,,,,,,,,,,,,,,,,,,,,,,,,,,乐观,e,,,e,1,0.6548,0,25,25,14,1,,
,,,,,,,,,,,,,,1,001,2024-08-23_17h11.21.115,IAT(Formal),2021.2.3,Win32,59.88023952,,,,,,,,,,,,,,,,,,,,,,,,,,,,,,,,,,,,,,,,,,,,,,,,,,,,他,e,,,e,1,0.5278,0,26,26,75,1,,
,,,,,,,,,,,,,,1,001,2024-08-23_17h11.21.115,IAT(Formal),2021.2.3,Win32,59.88023952,,,,,,,,,,,,,,,,,,,,,,,,,,,,,,,,,,,,,,,,,,,,,,,,,,,,他人,e,,,e,1,0.5647,0,27,27,68,1,,
,,,,,,,,,,,,,,1,001,2024-08-23_17h11.21.115,IAT(Formal),2021.2.3,Win32,59.88023952,,,,,,,,,,,,,,,,,,,,,,,,,,,,,,,,,,,,,,,,,,,,,,,,,,,,凶狠,i,,,i,1,0.5743,0,28,28,42,1,,
,,,,,,,,,,,,,,1,001,2024-08-23_17h11.21.115,IAT(Formal),2021.2.3,Win32,59.88023952,,,,,,,,,,,,,,,,,,,,,,,,,,,,,,,,,,,,,,,,,,,,,,,,,,,,我们,i,,,i,1,0.7958,0,29,29,62,1,,
,,,,,,,,,,,,,,1,001,2024-08-23_17h11.21.115,IAT(Formal),2021.2.3,Win32,59.88023952,,,,,,,,,,,,,,,,,,,,,,,,,,,,,,,,,,,,,,,,,,,,,,,,,,,,消极,i,,,e,0,0.9122,0,30,30,35,1,,
,,,,,,,,,,,,,,1,001,2024-08-23_17h11.21.115,IAT(Formal),2021.2.3,Win32,59.88023952,,,,,,,,,,,,,,,,,,,,,,,,,,,,,,,,,,,,,,,,,,,,,,,,,,,,朴实,e,,,e,1,0.6209,0,31,31,24,1,,
,,,,,,,,,,,,,,1,001,2024-08-23_17h11.21.115,IAT(Formal),2021.2.3,Win32,59.88023952,,,,,,,,,,,,,,,,,,,,,,,,,,,,,,,,,,,,,,,,,,,,,,,,,,,,稳重,e,,,e,1,0.7752,0,32,32,21,1,,
,,,,,,,,,,,,,,1,001,2024-08-23_17h11.21.115,IAT(Formal),2021.2.3,Win32,59.88023952,,,,,,,,,,,,,,,,,,,,,,,,,,,,,,,,,,,,,,,,,,,,,,,,,,,,暴躁,i,,,i,1,0.6973,0,33,33,44,1,,
,,,,,,,,,,,,,,1,001,2024-08-23_17h11.21.115,IAT(Formal),2021.2.3,Win32,59.88023952,,,,,,,,,,,,,,,,,,,,,,,,,,,,,,,,,,,,,,,,,,,,,,,,,,,,自己,i,,,e,0,0.6309,0,34,34,73,1,,
,,,,,,,,,,,,,,1,001,2024-08-23_17h11.21.115,IAT(Formal),2021.2.3,Win32,59.88023952,,,,,,,,,,,,,,,,,,,,,,,,,,,,,,,,,,,,,,,,,,,,,,,,,,,,勇敢,e,,,e,1,0.525,0,35,35,17,1,,
,,,,,,,,,,,,,,1,001,2024-08-23_17h11.21.115,IAT(Formal),2021.2.3,Win32,59.88023952,,,,,,,,,,,,,,,,,,,,,,,,,,,,,,,,,,,,,,,,,,,,,,,,,,,,活泼,e,,,e,1,0.9268,0,36,36,28,1,,
,,,,,,,,,,,,,,1,001,2024-08-23_17h11.21.115,IAT(Formal),2021.2.3,Win32,59.88023952,,,,,,,,,,,,,,,,,,,,,,,,,,,,,,,,,,,,,,,,,,,,,,,,,,,,我们,i,,,e,0,0.569,0,37,37,2,1,,
,,,,,,,,,,,,,,1,001,2024-08-23_17h11.21.115,IAT(Formal),2021.2.3,Win32,59.88023952,,,,,,,,,,,,,,,,,,,,,,,,,,,,,,,,,,,,,,,,,,,,,,,,,,,,猖狂,i,,,i,1,0.9632,0,38,38,45,1,,
,,,,,,,,,,,,,,1,001,2024-08-23_17h11.21.115,IAT(Formal),2021.2.3,Win32,59.88023952,,,,,,,,,,,,,,,,,,,,,,,,,,,,,,,,,,,,,,,,,,,,,,,,,,,,俺,i,,,i,1,0.9152,0,39,39,64,1,,
,,,,,,,,,,,,,,1,001,2024-08-23_17h11.21.115,IAT(Formal),2021.2.3,Win32,59.88023952,,,,,,,,,,,,,,,,,,,,,,,,,,,,,,,,,,,,,,,,,,,,,,,,,,,,散漫,i,,,e,0,0.7457,0,40,40,41,1,,
,,,,,,,,,,,,,,1,001,2024-08-23_17h11.21.115,IAT(Formal),2021.2.3,Win32,59.88023952,,,,,,,,,,,,,,,,,,,,,,,,,,,,,,,,,,,,,,,,,,,,,,,,,,,,我的,i,,,i,1,1.014,0,41,41,1,1,,
,,,,,,,,,,,,,,1,001,2024-08-23_17h11.21.115,IAT(Formal),2021.2.3,Win32,59.88023952,,,,,,,,,,,,,,,,,,,,,,,,,,,,,,,,,,,,,,,,,,,,,,,,,,,,其他,e,,,e,1,0.8299,0,42,42,9,1,,
,,,,,,,,,,,,,,1,001,2024-08-23_17h11.21.115,IAT(Formal),2021.2.3,Win32,59.88023952,,,,,,,,,,,,,,,,,,,,,,,,,,,,,,,,,,,,,,,,,,,,,,,,,,,,杰出,e,,,e,1,0.7388,0,43,43,13,1,,
,,,,,,,,,,,,,,1,001,2024-08-23_17h11.21.115,IAT(Formal),2021.2.3,Win32,59.88023952,,,,,,,,,,,,,,,,,,,,,,,,,,,,,,,,,,,,,,,,,,,,,,,,,,,,他人,e,,,e,1,0.5637,0,44,44,8,1,,
,,,,,,,,,,,,,,1,001,2024-08-23_17h11.21.115,IAT(Formal),2021.2.3,Win32,59.88023952,,,,,,,,,,,,,,,,,,,,,,,,,,,,,,,,,,,,,,,,,,,,,,,,,,,,他,e,,,e,1,0.423,0,45,45,5,1,,
,,,,,,,,,,,,,,1,001,2024-08-23_17h11.21.115,IAT(Formal),2021.2.3,Win32,59.88023952,,,,,,,,,,,,,,,,,,,,,,,,,,,,,,,,,,,,,,,,,,,,,,,,,,,,俺,i,,,i,1,0.8986,0,46,46,4,1,,
,,,,,,,,,,,,,,1,001,2024-08-23_17h11.21.115,IAT(Formal),2021.2.3,Win32,59.88023952,,,,,,,,,,,,,,,,,,,,,,,,,,,,,,,,,,,,,,,,,,,,,,,,,,,,愚蠢,i,,,i,1,0.9042,0,47,47,32,1,,
,,,,,,,,,,,,,,1,001,2024-08-23_17h11.21.115,IAT(Formal),2021.2.3,Win32,59.88023952,,,,,,,,,,,,,,,,,,,,,,,,,,,,,,,,,,,,,,,,,,,,,,,,,,,,俺,i,,,i,1,0.7846,0,48,48,74,1,,
,,,,,,,,,,,,,,1,001,2024-08-23_17h11.21.115,IAT(Formal),2021.2.3,Win32,59.88023952,,,,,,,,,,,,,,,,,,,,,,,,,,,,,,,,,,,,,,,,,,,,,,,,,,,,他,e,,,e,1,0.9852,0,49,49,65,1,,
,,,,,,,,,,,,,,1,001,2024-08-23_17h11.21.115,IAT(Formal),2021.2.3,Win32,59.88023952,,,,,,,,,,,,,,,,,,,,,,,,,,,,,,,,,,,,,,,,,,,,,,,,,,,,其他,e,,,e,1,1.1134,0,50,50,59,1,,
,,,,,,,,,,,,,,1,001,2024-08-23_17h11.21.115,IAT(Formal),2021.2.3,Win32,59.88023952,,,,,,,,,,,,,,,,,,,,,,,,,,,,,,,,,,,,,,,,,,,,,,,,,,,,他们,e,,,e,1,0.7491,0,51,51,76,1,,
,,,,,,,,,,,,,,1,001,2024-08-23_17h11.21.115,IAT(Formal),2021.2.3,Win32,59.88023952,,,,,,,,,,,,,,,,,,,,,,,,,,,,,,,,,,,,,,,,,,,,,,,,,,,,卑鄙,i,,,i,1,0.7761,0,52,52,30,1,,
,,,,,,,,,,,,,,1,001,2024-08-23_17h11.21.115,IAT(Formal),2021.2.3,Win32,59.88023952,,,,,,,,,,,,,,,,,,,,,,,,,,,,,,,,,,,,,,,,,,,,,,,,,,,,崇高,e,,,e,1,0.7526,0,53,53,11,1,,
,,,,,,,,,,,,,,1,001,2024-08-23_17h11.21.115,IAT(Formal),2021.2.3,Win32,59.88023952,,,,,,,,,,,,,,,,,,,,,,,,,,,,,,,,,,,,,,,,,,,,,,,,,,,,他的,e,,,e,1,0.8669,0,54,54,57,1,,
,,,,,,,,,,,,,,1,001,2024-08-23_17h11.21.115,IAT(Formal),2021.2.3,Win32,59.88023952,,,,,,,,,,,,,,,,,,,,,,,,,,,,,,,,,,,,,,,,,,,,,,,,,,,,自己,i,,,i,1,0.633,0,55,55,53,1,,
,,,,,,,,,,,,,,1,001,2024-08-23_17h11.21.115,IAT(Formal),2021.2.3,Win32,59.88023952,,,,,,,,,,,,,,,,,,,,,,,,,,,,,,,,,,,,,,,,,,,,,,,,,,,,我们,i,,,i,1,1.0662,0,56,56,72,1,,
,,,,,,,,,,,,,,1,001,2024-08-23_17h11.21.115,IAT(Formal),2021.2.3,Win32,59.88023952,,,,,,,,,,,,,,,,,,,,,,,,,,,,,,,,,,,,,,,,,,,,,,,,,,,,他人,e,,,e,1,0.7243,0,57,57,58,1,,
,,,,,,,,,,,,,,1,001,2024-08-23_17h11.21.115,IAT(Formal),2021.2.3,Win32,59.88023952,,,,,,,,,,,,,,,,,,,,,,,,,,,,,,,,,,,,,,,,,,,,,,,,,,,,优秀,e,,,e,1,1.1298,0,58,58,10,1,,
,,,,,,,,,,,,,,1,001,2024-08-23_17h11.21.115,IAT(Formal),2021.2.3,Win32,59.88023952,,,,,,,,,,,,,,,,,,,,,,,,,,,,,,,,,,,,,,,,,,,,,,,,,,,,正直,e,,,e,1,0.5825,0,59,59,16,1,,
,,,,,,,,,,,,,,1,001,2024-08-23_17h11.21.115,IAT(Formal),2021.2.3,Win32,59.88023952,,,,,,,,,,,,,,,,,,,,,,,,,,,,,,,,,,,,,,,,,,,,,,,,,,,,其他,e,,,e,1,1.0834,0,60,60,79,1,,
,,,,,,,,,,,,,,1,001,2024-08-23_17h11.21.115,IAT(Formal),2021.2.3,Win32,59.88023952,,,,,,,,,,,,,,,,,,,,,,,,,,,,,,,,,,,,,,,,,,,,,,,,,,,,自己,i,,,i,1,0.5832,0,61,61,3,1,,
,,,,,,,,,,,,,,1,001,2024-08-23_17h11.21.115,IAT(Formal),2021.2.3,Win32,59.88023952,,,,,,,,,,,,,,,,,,,,,,,,,,,,,,,,,,,,,,,,,,,,,,,,,,,,自卑,i,,,i,1,0.9244,0,62,62,36,1,,
,,,,,,,,,,,,,,1,001,2024-08-23_17h11.21.115,IAT(Formal),2021.2.3,Win32,59.88023952,,,,,,,,,,,,,,,,,,,,,,,,,,,,,,,,,,,,,,,,,,,,,,,,,,,,野蛮,i,,,i,1,0.6648,0,63,63,46,1,,
,,,,,,,,,,,,,,1,001,2024-08-23_17h11.21.115,IAT(Formal),2021.2.3,Win32,59.88023952,,,,,,,,,,,,,,,,,,,,,,,,,,,,,,,,,,,,,,,,,,,,,,,,,,,,勤奋,e,,,e,1,1.0186,0,64,64,18,1,,
,,,,,,,,,,,,,,1,001,2024-08-23_17h11.21.115,IAT(Formal),2021.2.3,Win32,59.88023952,,,,,,,,,,,,,,,,,,,,,,,,,,,,,,,,,,,,,,,,,,,,,,,,,,,,诚实,e,,,e,1,1.3407,0,65,65,15,1,,
,,,,,,,,,,,,,,1,001,2024-08-23_17h11.21.115,IAT(Formal),2021.2.3,Win32,59.88023952,,,,,,,,,,,,,,,,,,,,,,,,,,,,,,,,,,,,,,,,,,,,,,,,,,,,他人,e,,,e,1,0.6252,0,66,66,78,1,,
,,,,,,,,,,,,,,1,001,2024-08-23_17h11.21.115,IAT(Formal),2021.2.3,Win32,59.88023952,,,,,,,,,,,,,,,,,,,,,,,,,,,,,,,,,,,,,,,,,,,,,,,,,,,,执拗,i,,,i,1,0.6347,0,67,67,40,1,,
,,,,,,,,,,,,,,1,001,2024-08-23_17h11.21.115,IAT(Formal),2021.2.3,Win32,59.88023952,,,,,,,,,,,,,,,,,,,,,,,,,,,,,,,,,,,,,,,,,,,,,,,,,,,,他的,e,,,e,1,0.5713,0,68,68,67,1,,
,,,,,,,,,,,,,,1,001,2024-08-23_17h11.21.115,IAT(Formal),2021.2.3,Win32,59.88023952,,,,,,,,,,,,,,,,,,,,,,,,,,,,,,,,,,,,,,,,,,,,,,,,,,,,我的,i,,,i,1,0.7093,0,69,69,61,1,,
,,,,,,,,,,,,,,1,001,2024-08-23_17h11.21.115,IAT(Formal),2021.2.3,Win32,59.88023952,,,,,,,,,,,,,,,,,,,,,,,,,,,,,,,,,,,,,,,,,,,,,,,,,,,,我的,i,,,i,1,0.5492,0,70,70,71,1,,
,,,,,,,,,,,,,,1,001,2024-08-23_17h11.21.115,IAT(Formal),2021.2.3,Win32,59.88023952,,,,,,,,,,,,,,,,,,,,,,,,,,,,,,,,,,,,,,,,,,,,,,,,,,,,虚伪,i,,,i,1,0.8473,0,71,71,31,1,,
,,,,,,,,,,,,,,1,001,2024-08-23_17h11.21.115,IAT(Formal),2021.2.3,Win32,59.88023952,,,,,,,,,,,,,,,,,,,,,,,,,,,,,,,,,,,,,,,,,,,,,,,,,,,,无私,e,,,e,1,0.6731,0,72,72,22,1,,
,,,,,,,,,,,,,,1,001,2024-08-23_17h11.21.115,IAT(Formal),2021.2.3,Win32,59.88023952,,,,,,,,,,,,,,,,,,,,,,,,,,,,,,,,,,,,,,,,,,,,,,,,,,,,热情,e,,,e,1,0.5699,0,73,73,27,1,,
,,,,,,,,,,,,,,1,001,2024-08-23_17h11.21.115,IAT(Formal),2021.2.3,Win32,59.88023952,,,,,,,,,,,,,,,,,,,,,,,,,,,,,,,,,,,,,,,,,,,,,,,,,,,,其他,e,,,e,1,0.7278,0,74,74,69,1,,
,,,,,,,,,,,,,,1,001,2024-08-23_17h11.21.115,IAT(Formal),2021.2.3,Win32,59.88023952,,,,,,,,,,,,,,,,,,,,,,,,,,,,,,,,,,,,,,,,,,,,,,,,,,,,我们,i,,,e,0,0.5633,0,75,75,52,1,,
,,,,,,,,,,,,,,1,001,2024-08-23_17h11.21.115,IAT(Formal),2021.2.3,Win32,59.88023952,,,,,,,,,,,,,,,,,,,,,,,,,,,,,,,,,,,,,,,,,,,,,,,,,,,,傲慢,i,,,i,1,0.7574,0,76,76,37,1,,
,,,,,,,,,,,,,,1,001,2024-08-23_17h11.21.115,IAT(Formal),2021.2.3,Win32,59.88023952,,,,,,,,,,,,,,,,,,,,,,,,,,,,,,,,,,,,,,,,,,,,,,,,,,,,自己,i,,,i,1,0.6786,0,77,77,63,1,,
,,,,,,,,,,,,,,1,001,2024-08-23_17h11.21.115,IAT(Formal),2021.2.3,Win32,59.88023952,,,,,,,,,,,,,,,,,,,,,,,,,,,,,,,,,,,,,,,,,,,,,,,,,,,,诚恳,e,,,i,0,1.4408,0,78,78,29,1,,
,,,,,,,,,,,,,,1,001,2024-08-23_17h11.21.115,IAT(Formal),2021.2.3,Win32,59.88023952,,,,,,,,,,,,,,,,,,,,,,,,,,,,,,,,,,,,,,,,,,,,,,,,,,,,冒失,i,,,i,1,1.212,0,79,79,39,1,,
,,,,,,,,,,,,,,1,001,2024-08-23_17h11.21.115,IAT(Formal),2021.2.3,Win32,59.88023952,,,,,,,,,,,,,,,,,,,,,,,,,,,,,,,,,,,,,,,,,,,,,,,,,,,,他们,e,,,e,1,0.9668,1,0,80,6,1,,
,,,,,,,,,,,,,,1,001,2024-08-23_17h11.21.115,IAT(Formal),2021.2.3,Win32,59.88023952,,,,,,,,,,,,,,,,,,,,,,,,,,,,,,,,,,,,,,,,,,,,,,,,,,,,勤奋,e,,,e,1,0.614,1,1,81,18,1,,
,,,,,,,,,,,,,,1,001,2024-08-23_17h11.21.115,IAT(Formal),2021.2.3,Win32,59.88023952,,,,,,,,,,,,,,,,,,,,,,,,,,,,,,,,,,,,,,,,,,,,,,,,,,,,卑鄙,i,,,i,1,0.7962,1,2,82,30,1,,
,,,,,,,,,,,,,,1,001,2024-08-23_17h11.21.115,IAT(Formal),2021.2.3,Win32,59.88023952,,,,,,,,,,,,,,,,,,,,,,,,,,,,,,,,,,,,,,,,,,,,,,,,,,,,他们,e,,,e,1,0.7205,1,3,83,76,1,,
,,,,,,,,,,,,,,1,001,2024-08-23_17h11.21.115,IAT(Formal),2021.2.3,Win32,59.88023952,,,,,,,,,,,,,,,,,,,,,,,,,,,,,,,,,,,,,,,,,,,,,,,,,,,,傲慢,i,,,i,1,0.7205,1,4,84,37,1,,
,,,,,,,,,,,,,,1,001,2024-08-23_17h11.21.115,IAT(Formal),2021.2.3,Win32,59.88023952,,,,,,,,,,,,,,,,,,,,,,,,,,,,,,,,,,,,,,,,,,,,,,,,,,,,我,i,,,i,1,0.766,1,5,85,70,1,,
,,,,,,,,,,,,,,1,001,2024-08-23_17h11.21.115,IAT(Formal),2021.2.3,Win32,59.88023952,,,,,,,,,,,,,,,,,,,,,,,,,,,,,,,,,,,,,,,,,,,,,,,,,,,,下贱,i,,,i,1,0.565,1,6,86,49,1,,
,,,,,,,,,,,,,,1,001,2024-08-23_17h11.21.115,IAT(Formal),2021.2.3,Win32,59.88023952,,,,,,,,,,,,,,,,,,,,,,,,,,,,,,,,,,,,,,,,,,,,,,,,,,,,他,e,,,e,1,0.7656,1,7,87,5,1,,
,,,,,,,,,,,,,,1,001,2024-08-23_17h11.21.115,IAT(Formal),2021.2.3,Win32,59.88023952,,,,,,,,,,,,,,,,,,,,,,,,,,,,,,,,,,,,,,,,,,,,,,,,,,,,自己,i,,,i,1,0.8587,1,8,88,63,1,,
,,,,,,,,,,,,,,1,001,2024-08-23_17h11.21.115,IAT(Formal),2021.2.3,Win32,59.88023952,,,,,,,,,,,,,,,,,,,,,,,,,,,,,,,,,,,,,,,,,,,,,,,,,,,,他,e,,,e,1,0.7785,1,9,89,65,1,,
,,,,,,,,,,,,,,1,001,2024-08-23_17h11.21.115,IAT(Formal),2021.2.3,Win32,59.88023952,,,,,,,,,,,,,,,,,,,,,,,,,,,,,,,,,,,,,,,,,,,,,,,,,,,,乐观,e,,,e,1,0.7769,1,10,90,14,1,,
,,,,,,,,,,,,,,1,001,2024-08-23_17h11.21.115,IAT(Formal),2021.2.3,Win32,59.88023952,,,,,,,,,,,,,,,,,,,,,,,,,,,,,,,,,,,,,,,,,,,,,,,,,,,,他的,e,,,e,1,0.716,1,11,91,7,1,,
,,,,,,,,,,,,,,1,001,2024-08-23_17h11.21.115,IAT(Formal),2021.2.3,Win32,59.88023952,,,,,,,,,,,,,,,,,,,,,,,,,,,,,,,,,,,,,,,,,,,,,,,,,,,,勇敢,e,,,e,1,0.6119,1,12,92,17,1,,
,,,,,,,,,,,,,,1,001,2024-08-23_17h11.21.115,IAT(Formal),2021.2.3,Win32,59.88023952,,,,,,,,,,,,,,,,,,,,,,,,,,,,,,,,,,,,,,,,,,,,,,,,,,,,冒失,i,,,i,1,0.9026,1,13,93,39,1,,
,,,,,,,,,,,,,,1,001,2024-08-23_17h11.21.115,IAT(Formal),2021.2.3,Win32,59.88023952,,,,,,,,,,,,,,,,,,,,,,,,,,,,,,,,,,,,,,,,,,,,,,,,,,,,我的,i,,,e,0,0.7412,1,14,94,71,1,,
,,,,,,,,,,,,,,1,001,2024-08-23_17h11.21.115,IAT(Formal),2021.2.3,Win32,59.88023952,,,,,,,,,,,,,,,,,,,,,,,,,,,,,,,,,,,,,,,,,,,,,,,,,,,,他的,e,,,e,1,0.5539,1,15,95,67,1,,
,,,,,,,,,,,,,,1,001,2024-08-23_17h11.21.115,IAT(Formal),2021.2.3,Win32,59.88023952,,,,,,,,,,,,,,,,,,,,,,,,,,,,,,,,,,,,,,,,,,,,,,,,,,,,朴实,e,,,e,1,0.546,1,16,96,24,1,,
,,,,,,,,,,,,,,1,001,2024-08-23_17h11.21.115,IAT(Formal),2021.2.3,Win32,59.88023952,,,,,,,,,,,,,,,,,,,,,,,,,,,,,,,,,,,,,,,,,,,,,,,,,,,,我们,i,,,i,1,0.8694,1,17,97,62,1,,
,,,,,,,,,,,,,,1,001,2024-08-23_17h11.21.115,IAT(Formal),2021.2.3,Win32,59.88023952,,,,,,,,,,,,,,,,,,,,,,,,,,,,,,,,,,,,,,,,,,,,,,,,,,,,俺,i,,,i,1,0.8156,1,18,98,4,1,,
,,,,,,,,,,,,,,1,001,2024-08-23_17h11.21.115,IAT(Formal),2021.2.3,Win32,59.88023952,,,,,,,,,,,,,,,,,,,,,,,,,,,,,,,,,,,,,,,,,,,,,,,,,,,,我们,i,,,i,1,0.5514,1,19,99,2,1,,
,,,,,,,,,,,,,,1,001,2024-08-23_17h11.21.115,IAT(Formal),2021.2.3,Win32,59.88023952,,,,,,,,,,,,,,,,,,,,,,,,,,,,,,,,,,,,,,,,,,,,,,,,,,,,凶狠,i,,,i,1,0.8653,1,20,100,42,1,,
,,,,,,,,,,,,,,1,001,2024-08-23_17h11.21.115,IAT(Formal),2021.2.3,Win32,59.88023952,,,,,,,,,,,,,,,,,,,,,,,,,,,,,,,,,,,,,,,,,,,,,,,,,,,,我们,i,,,i,1,0.6319,1,21,101,72,1,,
,,,,,,,,,,,,,,1,001,2024-08-23_17h11.21.115,IAT(Formal),2021.2.3,Win32,59.88023952,,,,,,,,,,,,,,,,,,,,,,,,,,,,,,,,,,,,,,,,,,,,,,,,,,,,杰出,e,,,e,1,0.7634,1,22,102,13,1,,
,,,,,,,,,,,,,,1,001,2024-08-23_17h11.21.115,IAT(Formal),2021.2.3,Win32,59.88023952,,,,,,,,,,,,,,,,,,,,,,,,,,,,,,,,,,,,,,,,,,,,,,,,,,,,野蛮,i,,,i,1,0.7291,1,23,103,46,1,,
,,,,,,,,,,,,,,1,001,2024-08-23_17h11.21.115,IAT(Formal),2021.2.3,Win32,59.88023952,,,,,,,,,,,,,,,,,,,,,,,,,,,,,,,,,,,,,,,,,,,,,,,,,,,,无私,e,,,e,1,0.7451,1,24,104,22,1,,
,,,,,,,,,,,,,,1,001,2024-08-23_17h11.21.115,IAT(Formal),2021.2.3,Win32,59.88023952,,,,,,,,,,,,,,,,,,,,,,,,,,,,,,,,,,,,,,,,,,,,,,,,,,,,冷静,e,,,e,1,1.052,1,25,105,26,1,,
,,,,,,,,,,,,,,1,001,2024-08-23_17h11.21.115,IAT(Formal),2021.2.3,Win32,59.88023952,,,,,,,,,,,,,,,,,,,,,,,,,,,,,,,,,,,,,,,,,,,,,,,,,,,,自己,i,,,i,1,0.789,1,26,106,73,1,,
,,,,,,,,,,,,,,1,001,2024-08-23_17h11.21.115,IAT(Formal),2021.2.3,Win32,59.88023952,,,,,,,,,,,,,,,,,,,,,,,,,,,,,,,,,,,,,,,,,,,,,,,,,,,,我的,i,,,i,1,0.7868,1,27,107,1,1,,
,,,,,,,,,,,,,,1,001,2024-08-23_17h11.21.115,IAT(Formal),2021.2.3,Win32,59.88023952,,,,,,,,,,,,,,,,,,,,,,,,,,,,,,,,,,,,,,,,,,,,,,,,,,,,愚蠢,i,,,i,1,0.8422,1,28,108,32,1,,
,,,,,,,,,,,,,,1,001,2024-08-23_17h11.21.115,IAT(Formal),2021.2.3,Win32,59.88023952,,,,,,,,,,,,,,,,,,,,,,,,,,,,,,,,,,,,,,,,,,,,,,,,,,,,我的,i,,,i,1,0.4463,1,29,109,51,1,,
,,,,,,,,,,,,,,1,001,2024-08-23_17h11.21.115,IAT(Formal),2021.2.3,Win32,59.88023952,,,,,,,,,,,,,,,,,,,,,,,,,,,,,,,,,,,,,,,,,,,,,,,,,,,,他人,e,,,e,1,1.0467,1,30,110,68,1,,
,,,,,,,,,,,,,,1,001,2024-08-23_17h11.21.115,IAT(Formal),2021.2.3,Win32,59.88023952,,,,,,,,,,,,,,,,,,,,,,,,,,,,,,,,,,,,,,,,,,,,,,,,,,,,消极,i,,,i,1,0.9038,1,31,111,35,1,,
,,,,,,,,,,,,,,1,001,2024-08-23_17h11.21.115,IAT(Formal),2021.2.3,Win32,59.88023952,,,,,,,,,,,,,,,,,,,,,,,,,,,,,,,,,,,,,,,,,,,,,,,,,,,,自卑,i,,,i,1,0.8556,1,32,112,36,1,,
,,,,,,,,,,,,,,1,001,2024-08-23_17h11.21.115,IAT(Formal),2021.2.3,Win32,59.88023952,,,,,,,,,,,,,,,,,,,,,,,,,,,,,,,,,,,,,,,,,,,,,,,,,,,,热情,e,,,e,1,0.6306,1,33,113,27,1,,
,,,,,,,,,,,,,,1,001,2024-08-23_17h11.21.115,IAT(Formal),2021.2.3,Win32,59.88023952,,,,,,,,,,,,,,,,,,,,,,,,,,,,,,,,,,,,,,,,,,,,,,,,,,,,我,i,,,i,1,1.0036,1,34,114,60,1,,
,,,,,,,,,,,,,,1,001,2024-08-23_17h11.21.115,IAT(Formal),2021.2.3,Win32,59.88023952,,,,,,,,,,,,,,,,,,,,,,,,,,,,,,,,,,,,,,,,,,,,,,,,,,,,猖狂,i,,,i,1,1.0152,1,35,115,45,1,,
,,,,,,,,,,,,,,1,001,2024-08-23_17h11.21.115,IAT(Formal),2021.2.3,Win32,59.88023952,,,,,,,,,,,,,,,,,,,,,,,,,,,,,,,,,,,,,,,,,,,,,,,,,,,,优秀,e,,,e,1,0.6408,1,36,116,10,1,,
,,,,,,,,,,,,,,1,001,2024-08-23_17h11.21.115,IAT(Formal),2021.2.3,Win32,59.88023952,,,,,,,,,,,,,,,,,,,,,,,,,,,,,,,,,,,,,,,,,,,,,,,,,,,,他的,e,,,e,1,0.5334,1,37,117,57,1,,
,,,,,,,,,,,,,,1,001,2024-08-23_17h11.21.115,IAT(Formal),2021.2.3,Win32,59.88023952,,,,,,,,,,,,,,,,,,,,,,,,,,,,,,,,,,,,,,,,,,,,,,,,,,,,机智,e,,,e,1,0.7014,1,38,118,19,1,,
,,,,,,,,,,,,,,1,001,2024-08-23_17h11.21.115,IAT(Formal),2021.2.3,Win32,59.88023952,,,,,,,,,,,,,,,,,,,,,,,,,,,,,,,,,,,,,,,,,,,,,,,,,,,,他,e,,,,0,,1,39,119,55,1,,
,,,,,,,,,,,,,,1,001,2024-08-23_17h11.21.115,IAT(Formal),2021.2.3,Win32,59.88023952,,,,,,,,,,,,,,,,,,,,,,,,,,,,,,,,,,,,,,,,,,,,,,,,,,,,他,e,,,e,1,0.5017,1,40,120,75,1,,
,,,,,,,,,,,,,,1,001,2024-08-23_17h11.21.115,IAT(Formal),2021.2.3,Win32,59.88023952,,,,,,,,,,,,,,,,,,,,,,,,,,,,,,,,,,,,,,,,,,,,,,,,,,,,俺,i,,,i,1,0.6365,1,41,121,74,1,,
,,,,,,,,,,,,,,1,001,2024-08-23_17h11.21.115,IAT(Formal),2021.2.3,Win32,59.88023952,,,,,,,,,,,,,,,,,,,,,,,,,,,,,,,,,,,,,,,,,,,,,,,,,,,,细腻,e,,,e,1,1.3308,1,42,122,25,1,,
,,,,,,,,,,,,,,1,001,2024-08-23_17h11.21.115,IAT(Formal),2021.2.3,Win32,59.88023952,,,,,,,,,,,,,,,,,,,,,,,,,,,,,,,,,,,,,,,,,,,,,,,,,,,,暴躁,i,,,i,1,0.4879,1,43,123,44,1,,
,,,,,,,,,,,,,,1,001,2024-08-23_17h11.21.115,IAT(Formal),2021.2.3,Win32,59.88023952,,,,,,,,,,,,,,,,,,,,,,,,,,,,,,,,,,,,,,,,,,,,,,,,,,,,自私,i,,,i,1,0.9528,1,44,124,43,1,,
,,,,,,,,,,,,,,1,001,2024-08-23_17h11.21.115,IAT(Formal),2021.2.3,Win32,59.88023952,,,,,,,,,,,,,,,,,,,,,,,,,,,,,,,,,,,,,,,,,,,,,,,,,,,,公正,e,,,e,1,0.6197,1,45,125,23,1,,
,,,,,,,,,,,,,,1,001,2024-08-23_17h11.21.115,IAT(Formal),2021.2.3,Win32,59.88023952,,,,,,,,,,,,,,,,,,,,,,,,,,,,,,,,,,,,,,,,,,,,,,,,,,,,他们,e,,,e,1,0.4994,1,46,126,66,1,,
,,,,,,,,,,,,,,1,001,2024-08-23_17h11.21.115,IAT(Formal),2021.2.3,Win32,59.88023952,,,,,,,,,,,,,,,,,,,,,,,,,,,,,,,,,,,,,,,,,,,,,,,,,,,,活泼,e,,,e,1,1.0707,1,47,127,28,1,,
,,,,,,,,,,,,,,1,001,2024-08-23_17h11.21.115,IAT(Formal),2021.2.3,Win32,59.88023952,,,,,,,,,,,,,,,,,,,,,,,,,,,,,,,,,,,,,,,,,,,,,,,,,,,,聪明,e,,,e,1,0.5575,1,48,128,12,1,,
,,,,,,,,,,,,,,1,001,2024-08-23_17h11.21.115,IAT(Formal),2021.2.3,Win32,59.88023952,,,,,,,,,,,,,,,,,,,,,,,,,,,,,,,,,,,,,,,,,,,,,,,,,,,,我,i,,,e,0,0.5688,1,49,129,50,1,,
,,,,,,,,,,,,,,1,001,2024-08-23_17h11.21.115,IAT(Formal),2021.2.3,Win32,59.88023952,,,,,,,,,,,,,,,,,,,,,,,,,,,,,,,,,,,,,,,,,,,,,,,,,,,,我的,i,,,i,1,1.1824,1,50,130,61,1,,
,,,,,,,,,,,,,,1,001,2024-08-23_17h11.21.115,IAT(Formal),2021.2.3,Win32,59.88023952,,,,,,,,,,,,,,,,,,,,,,,,,,,,,,,,,,,,,,,,,,,,,,,,,,,,鲁莽,i,,,e,0,0.8834,1,51,131,38,1,,
,,,,,,,,,,,,,,1,001,2024-08-23_17h11.21.115,IAT(Formal),2021.2.3,Win32,59.88023952,,,,,,,,,,,,,,,,,,,,,,,,,,,,,,,,,,,,,,,,,,,,,,,,,,,,他人,e,,,e,1,0.6917,1,52,132,58,1,,
,,,,,,,,,,,,,,1,001,2024-08-23_17h11.21.115,IAT(Formal),2021.2.3,Win32,59.88023952,,,,,,,,,,,,,,,,,,,,,,,,,,,,,,,,,,,,,,,,,,,,,,,,,,,,其他,e,,,e,1,0.763,1,53,133,59,1,,
,,,,,,,,,,,,,,1,001,2024-08-23_17h11.21.115,IAT(Formal),2021.2.3,Win32,59.88023952,,,,,,,,,,,,,,,,,,,,,,,,,,,,,,,,,,,,,,,,,,,,,,,,,,,,悲观,i,,,i,1,0.9459,1,54,134,34,1,,
,,,,,,,,,,,,,,1,001,2024-08-23_17h11.21.115,IAT(Formal),2021.2.3,Win32,59.88023952,,,,,,,,,,,,,,,,,,,,,,,,,,,,,,,,,,,,,,,,,,,,,,,,,,,,崇高,e,,,e,1,0.6804,1,55,135,11,1,,
,,,,,,,,,,,,,,1,001,2024-08-23_17h11.21.115,IAT(Formal),2021.2.3,Win32,59.88023952,,,,,,,,,,,,,,,,,,,,,,,,,,,,,,,,,,,,,,,,,,,,,,,,,,,,散漫,i,,,i,1,1.024,1,56,136,41,1,,
,,,,,,,,,,,,,,1,001,2024-08-23_17h11.21.115,IAT(Formal),2021.2.3,Win32,59.88023952,,,,,,,,,,,,,,,,,,,,,,,,,,,,,,,,,,,,,,,,,,,,,,,,,,,,轻率,i,,,i,1,0.8721,1,57,137,48,1,,
,,,,,,,,,,,,,,1,001,2024-08-23_17h11.21.115,IAT(Formal),2021.2.3,Win32,59.88023952,,,,,,,,,,,,,,,,,,,,,,,,,,,,,,,,,,,,,,,,,,,,,,,,,,,,固执,i,,,i,1,0.5587,1,58,138,47,1,,
,,,,,,,,,,,,,,1,001,2024-08-23_17h11.21.115,IAT(Formal),2021.2.3,Win32,59.88023952,,,,,,,,,,,,,,,,,,,,,,,,,,,,,,,,,,,,,,,,,,,,,,,,,,,,自己,i,,,e,0,1.0417,1,59,139,53,1,,
,,,,,,,,,,,,,,1,001,2024-08-23_17h11.21.115,IAT(Formal),2021.2.3,Win32,59.88023952,,,,,,,,,,,,,,,,,,,,,,,,,,,,,,,,,,,,,,,,,,,,,,,,,,,,他人,e,,,e,1,0.6772,1,60,140,8,1,,
,,,,,,,,,,,,,,1,001,2024-08-23_17h11.21.115,IAT(Formal),2021.2.3,Win32,59.88023952,,,,,,,,,,,,,,,,,,,,,,,,,,,,,,,,,,,,,,,,,,,,,,,,,,,,认真,e,,,e,1,0.901,1,61,141,20,1,,
,,,,,,,,,,,,,,1,001,2024-08-23_17h11.21.115,IAT(Formal),2021.2.3,Win32,59.88023952,,,,,,,,,,,,,,,,,,,,,,,,,,,,,,,,,,,,,,,,,,,,,,,,,,,,他们,e,,,e,1,0.6969,1,62,142,56,1,,
,,,,,,,,,,,,,,1,001,2024-08-23_17h11.21.115,IAT(Formal),2021.2.3,Win32,59.88023952,,,,,,,,,,,,,,,,,,,,,,,,,,,,,,,,,,,,,,,,,,,,,,,,,,,,稳重,e,,,e,1,0.7202,1,63,143,21,1,,
,,,,,,,,,,,,,,1,001,2024-08-23_17h11.21.115,IAT(Formal),2021.2.3,Win32,59.88023952,,,,,,,,,,,,,,,,,,,,,,,,,,,,,,,,,,,,,,,,,,,,,,,,,,,,刻薄,i,,,i,1,0.8891,1,64,144,33,1,,
,,,,,,,,,,,,,,1,001,2024-08-23_17h11.21.115,IAT(Formal),2021.2.3,Win32,59.88023952,,,,,,,,,,,,,,,,,,,,,,,,,,,,,,,,,,,,,,,,,,,,,,,,,,,,俺,i,,,i,1,0.9419,1,65,145,64,1,,
,,,,,,,,,,,,,,1,001,2024-08-23_17h11.21.115,IAT(Formal),2021.2.3,Win32,59.88023952,,,,,,,,,,,,,,,,,,,,,,,,,,,,,,,,,,,,,,,,,,,,,,,,,,,,我们,i,,,i,1,0.7054,1,66,146,52,1,,
,,,,,,,,,,,,,,1,001,2024-08-23_17h11.21.115,IAT(Formal),2021.2.3,Win32,59.88023952,,,,,,,,,,,,,,,,,,,,,,,,,,,,,,,,,,,,,,,,,,,,,,,,,,,,我,i,,,i,1,0.5565,1,67,147,0,1,,
,,,,,,,,,,,,,,1,001,2024-08-23_17h11.21.115,IAT(Formal),2021.2.3,Win32,59.88023952,,,,,,,,,,,,,,,,,,,,,,,,,,,,,,,,,,,,,,,,,,,,,,,,,,,,诚实,e,,,e,1,1.0655,1,68,148,15,1,,
,,,,,,,,,,,,,,1,001,2024-08-23_17h11.21.115,IAT(Formal),2021.2.3,Win32,59.88023952,,,,,,,,,,,,,,,,,,,,,,,,,,,,,,,,,,,,,,,,,,,,,,,,,,,,他人,e,,,i,0,0.6963,1,69,149,78,1,,
,,,,,,,,,,,,,,1,001,2024-08-23_17h11.21.115,IAT(Formal),2021.2.3,Win32,59.88023952,,,,,,,,,,,,,,,,,,,,,,,,,,,,,,,,,,,,,,,,,,,,,,,,,,,,虚伪,i,,,i,1,0.7711,1,70,150,31,1,,
,,,,,,,,,,,,,,1,001,2024-08-23_17h11.21.115,IAT(Formal),2021.2.3,Win32,59.88023952,,,,,,,,,,,,,,,,,,,,,,,,,,,,,,,,,,,,,,,,,,,,,,,,,,,,正直,e,,,e,1,0.8101,1,71,151,16,1,,
,,,,,,,,,,,,,,1,001,2024-08-23_17h11.21.115,IAT(Formal),2021.2.3,Win32,59.88023952,,,,,,,,,,,,,,,,,,,,,,,,,,,,,,,,,,,,,,,,,,,,,,,,,,,,诚恳,e,,,e,1,0.6129,1,72,152,29,1,,
,,,,,,,,,,,,,,1,001,2024-08-23_17h11.21.115,IAT(Formal),2021.2.3,Win32,59.88023952,,,,,,,,,,,,,,,,,,,,,,,,,,,,,,,,,,,,,,,,,,,,,,,,,,,,其他,e,,,e,1,0.6357,1,73,153,79,1,,
,,,,,,,,,,,,,,1,001,2024-08-23_17h11.21.115,IAT(Formal),2021.2.3,Win32,59.88023952,,,,,,,,,,,,,,,,,,,,,,,,,,,,,,,,,,,,,,,,,,,,,,,,,,,,其他,e,,,e,1,0.6825,1,74,154,69,1,,
,,,,,,,,,,,,,,1,001,2024-08-23_17h11.21.115,IAT(Formal),2021.2.3,Win32,59.88023952,,,,,,,,,,,,,,,,,,,,,,,,,,,,,,,,,,,,,,,,,,,,,,,,,,,,执拗,i,,,i,1,0.6065,1,75,155,40,1,,
,,,,,,,,,,,,,,1,001,2024-08-23_17h11.21.115,IAT(Formal),2021.2.3,Win32,59.88023952,,,,,,,,,,,,,,,,,,,,,,,,,,,,,,,,,,,,,,,,,,,,,,,,,,,,俺,i,,,e,0,0.5908,1,76,156,54,1,,
,,,,,,,,,,,,,,1,001,2024-08-23_17h11.21.115,IAT(Formal),2021.2.3,Win32,59.88023952,,,,,,,,,,,,,,,,,,,,,,,,,,,,,,,,,,,,,,,,,,,,,,,,,,,,其他,e,,,e,1,0.7088,1,77,157,9,1,,
,,,,,,,,,,,,,,1,001,2024-08-23_17h11.21.115,IAT(Formal),2021.2.3,Win32,59.88023952,,,,,,,,,,,,,,,,,,,,,,,,,,,,,,,,,,,,,,,,,,,,,,,,,,,,他的,e,,,e,1,0.5982,1,78,158,77,1,,
,,,,,,,,,,,,,,1,001,2024-08-23_17h11.21.115,IAT(Formal),2021.2.3,Win32,59.88023952,,,,,,,,,,,,,,,,,,,,,,,,,,,,,,,,,,,,,,,,,,,,,,,,,,,,自己,i,,,i,1,0.6657,1,79,159,3,1,,
,,,,,,,,,,,,,,1,001,2024-08-23_17h11.21.115,IAT(Formal),2021.2.3,Win32,59.88023952,,,,,,,,,,,,,,,,,,,,,,,,,,,,,,,,,,,,,,,,,,,,,,,,,,,,,,,,,,,,,,,,space,1.4602