"X.Instruction1.keys","Instruction1.rt","Instruction2.keys","Instruction2.rt","key_resp_iso.keys","key_resp_iso.corr","key_resp_iso.rt","Practice_01.thisRepN","Practice_01.thisTrialN","Practice_01.thisN","Practice_01.thisIndex","Practice_01.ran","Words","ans","participant","session","date","expName","psychopyVersion","OS","frameRate","key_resp_3.keys","key_resp_3.rt","key_resp_ipn.keys","key_resp_ipn.corr","key_resp_ipn.rt","Practice_02.thisRepN","Practice_02.thisTrialN","Practice_02.thisN","Practice_02.thisIndex","Practice_02.ran","Words_ipn","ans_ipn","key_resp_4.keys","key_resp_4.rt","key_resp_t1.keys","key_resp_t1.corr","key_resp_t1.rt","Practice_T1.thisRepN","Practice_T1.thisTrialN","Practice_T1.thisN","Practice_T1.thisIndex","Practice_T1.ran","Words_t1","ans_t1","key_resp_5.keys","key_resp_5.rt","Formal_T1.thisRepN","Formal_T1.thisTrialN","Formal_T1.thisN","Formal_T1.thisIndex","Formal_T1.ran","key_resp_6.keys","key_resp_6.rt","key_resp_iso_reverse.keys","key_resp_iso_reverse.corr","key_resp_iso_reverse.rt","Practice_iso_Reverse.thisRepN","Practice_iso_Reverse.thisTrialN","Practice_iso_Reverse.thisN","Practice_iso_Reverse.thisIndex","Practice_iso_Reverse.ran","key_resp_7.keys","key_resp_7.rt","key_resp_t2_Practice.keys","key_resp_t2_Practice.corr","key_resp_t2_Practice.rt","Practice_t2_Reverse.thisRepN","Practice_t2_Reverse.thisTrialN","Practice_t2_Reverse.thisN","Practice_t2_Reverse.thisIndex","Practice_t2_Reverse.ran","Words_t2","ans_t2","key_resp_8.keys","key_resp_8.rt","key_resp_t2.keys","key_resp_t2.corr","key_resp_t2.rt","Formal_t2_reverse.thisRepN","Formal_t2_reverse.thisTrialN","Formal_t2_reverse.thisN","Formal_t2_reverse.thisIndex","Formal_t2_reverse.ran","key_instruct.keys","key_instruct.rt","Subject"
"space",3.4305,"space",6.1813,"i",1,0.5813,0,0,0,7,1,"他的","i",1,1,"2024-08-23_17h27.05.449","IAT(Formal)","2021.2.3","Win32",178.5714286,"",NA,"",NA,NA,NA,NA,NA,NA,NA,"","","",NA,"",NA,NA,NA,NA,NA,NA,NA,"","","",NA,NA,NA,NA,NA,NA,"",NA,"",NA,NA,NA,NA,NA,NA,NA,"",NA,"",NA,NA,NA,NA,NA,NA,NA,"","","",NA,"",NA,NA,NA,NA,NA,NA,NA,"",NA,"12"
"",NA,"",NA,"i",1,0.4878,0,1,1,6,1,"他们","i",1,1,"2024-08-23_17h27.05.449","IAT(Formal)","2021.2.3","Win32",178.5714286,"",NA,"",NA,NA,NA,NA,NA,NA,NA,"","","",NA,"",NA,NA,NA,NA,NA,NA,NA,"","","",NA,NA,NA,NA,NA,NA,"",NA,"",NA,NA,NA,NA,NA,NA,NA,"",NA,"",NA,NA,NA,NA,NA,NA,NA,"","","",NA,"",NA,NA,NA,NA,NA,NA,NA,"",NA,"12"
"",NA,"",NA,"e",1,0.3633,0,2,2,0,1,"我","e",1,1,"2024-08-23_17h27.05.449","IAT(Formal)","2021.2.3","Win32",178.5714286,"",NA,"",NA,NA,NA,NA,NA,NA,NA,"","","",NA,"",NA,NA,NA,NA,NA,NA,NA,"","","",NA,NA,NA,NA,NA,NA,"",NA,"",NA,NA,NA,NA,NA,NA,NA,"",NA,"",NA,NA,NA,NA,NA,NA,NA,"","","",NA,"",NA,NA,NA,NA,NA,NA,NA,"",NA,"12"
"",NA,"",NA,"e",1,0.4349,0,3,3,3,1,"自己","e",1,1,"2024-08-23_17h27.05.449","IAT(Formal)","2021.2.3","Win32",178.5714286,"",NA,"",NA,NA,NA,NA,NA,NA,NA,"","","",NA,"",NA,NA,NA,NA,NA,NA,NA,"","","",NA,NA,NA,NA,NA,NA,"",NA,"",NA,NA,NA,NA,NA,NA,NA,"",NA,"",NA,NA,NA,NA,NA,NA,NA,"","","",NA,"",NA,NA,NA,NA,NA,NA,NA,"",NA,"12"
"",NA,"",NA,"e",1,0.4714,0,4,4,4,1,"俺","e",1,1,"2024-08-23_17h27.05.449","IAT(Formal)","2021.2.3","Win32",178.5714286,"",NA,"",NA,NA,NA,NA,NA,NA,NA,"","","",NA,"",NA,NA,NA,NA,NA,NA,NA,"","","",NA,NA,NA,NA,NA,NA,"",NA,"",NA,NA,NA,NA,NA,NA,NA,"",NA,"",NA,NA,NA,NA,NA,NA,NA,"","","",NA,"",NA,NA,NA,NA,NA,NA,NA,"",NA,"12"
"",NA,"",NA,"i",1,0.3674,0,5,5,8,1,"他人","i",1,1,"2024-08-23_17h27.05.449","IAT(Formal)","2021.2.3","Win32",178.5714286,"",NA,"",NA,NA,NA,NA,NA,NA,NA,"","","",NA,"",NA,NA,NA,NA,NA,NA,NA,"","","",NA,NA,NA,NA,NA,NA,"",NA,"",NA,NA,NA,NA,NA,NA,NA,"",NA,"",NA,NA,NA,NA,NA,NA,NA,"","","",NA,"",NA,NA,NA,NA,NA,NA,NA,"",NA,"12"
"",NA,"",NA,"e",1,0.6455,0,6,6,1,1,"我的","e",1,1,"2024-08-23_17h27.05.449","IAT(Formal)","2021.2.3","Win32",178.5714286,"",NA,"",NA,NA,NA,NA,NA,NA,NA,"","","",NA,"",NA,NA,NA,NA,NA,NA,NA,"","","",NA,NA,NA,NA,NA,NA,"",NA,"",NA,NA,NA,NA,NA,NA,NA,"",NA,"",NA,NA,NA,NA,NA,NA,NA,"","","",NA,"",NA,NA,NA,NA,NA,NA,NA,"",NA,"12"
"",NA,"",NA,"",0,NA,0,7,7,2,1,"我们","e",1,1,"2024-08-23_17h27.05.449","IAT(Formal)","2021.2.3","Win32",178.5714286,"",NA,"",NA,NA,NA,NA,NA,NA,NA,"","","",NA,"",NA,NA,NA,NA,NA,NA,NA,"","","",NA,NA,NA,NA,NA,NA,"",NA,"",NA,NA,NA,NA,NA,NA,NA,"",NA,"",NA,NA,NA,NA,NA,NA,NA,"","","",NA,"",NA,NA,NA,NA,NA,NA,NA,"",NA,"12"
"",NA,"",NA,"i",1,1.0897,0,8,8,9,1,"其他","i",1,1,"2024-08-23_17h27.05.449","IAT(Formal)","2021.2.3","Win32",178.5714286,"",NA,"",NA,NA,NA,NA,NA,NA,NA,"","","",NA,"",NA,NA,NA,NA,NA,NA,NA,"","","",NA,NA,NA,NA,NA,NA,"",NA,"",NA,NA,NA,NA,NA,NA,NA,"",NA,"",NA,NA,NA,NA,NA,NA,NA,"","","",NA,"",NA,NA,NA,NA,NA,NA,NA,"",NA,"12"
"",NA,"",NA,"i",1,0.4989,0,9,9,5,1,"他","i",1,1,"2024-08-23_17h27.05.449","IAT(Formal)","2021.2.3","Win32",178.5714286,"",NA,"",NA,NA,NA,NA,NA,NA,NA,"","","",NA,"",NA,NA,NA,NA,NA,NA,NA,"","","",NA,NA,NA,NA,NA,NA,"",NA,"",NA,NA,NA,NA,NA,NA,NA,"",NA,"",NA,NA,NA,NA,NA,NA,NA,"","","",NA,"",NA,NA,NA,NA,NA,NA,NA,"",NA,"12"
"",NA,"",NA,"",NA,NA,NA,NA,NA,NA,NA,"","",1,1,"2024-08-23_17h27.05.449","IAT(Formal)","2021.2.3","Win32",178.5714286,"space",346.4887,"i",1,0.6553,0,0,0,33,1,"自私","i","",NA,"",NA,NA,NA,NA,NA,NA,NA,"","","",NA,NA,NA,NA,NA,NA,"",NA,"",NA,NA,NA,NA,NA,NA,NA,"",NA,"",NA,NA,NA,NA,NA,NA,NA,"","","",NA,"",NA,NA,NA,NA,NA,NA,NA,"",NA,"12"
"",NA,"",NA,"",NA,NA,NA,NA,NA,NA,NA,"","",1,1,"2024-08-23_17h27.05.449","IAT(Formal)","2021.2.3","Win32",178.5714286,"",NA,"i",1,0.5629,0,1,1,37,1,"固执","i","",NA,"",NA,NA,NA,NA,NA,NA,NA,"","","",NA,NA,NA,NA,NA,NA,"",NA,"",NA,NA,NA,NA,NA,NA,NA,"",NA,"",NA,NA,NA,NA,NA,NA,NA,"","","",NA,"",NA,NA,NA,NA,NA,NA,NA,"",NA,"12"
"",NA,"",NA,"",NA,NA,NA,NA,NA,NA,NA,"","",1,1,"2024-08-23_17h27.05.449","IAT(Formal)","2021.2.3","Win32",178.5714286,"",NA,"e",1,0.3847,0,2,2,10,1,"认真","e","",NA,"",NA,NA,NA,NA,NA,NA,NA,"","","",NA,NA,NA,NA,NA,NA,"",NA,"",NA,NA,NA,NA,NA,NA,NA,"",NA,"",NA,NA,NA,NA,NA,NA,NA,"","","",NA,"",NA,NA,NA,NA,NA,NA,NA,"",NA,"12"
"",NA,"",NA,"",NA,NA,NA,NA,NA,NA,NA,"","",1,1,"2024-08-23_17h27.05.449","IAT(Formal)","2021.2.3","Win32",178.5714286,"",NA,"i",1,0.5103,0,3,3,26,1,"自卑","i","",NA,"",NA,NA,NA,NA,NA,NA,NA,"","","",NA,NA,NA,NA,NA,NA,"",NA,"",NA,NA,NA,NA,NA,NA,NA,"",NA,"",NA,NA,NA,NA,NA,NA,NA,"","","",NA,"",NA,NA,NA,NA,NA,NA,NA,"",NA,"12"
"",NA,"",NA,"",NA,NA,NA,NA,NA,NA,NA,"","",1,1,"2024-08-23_17h27.05.449","IAT(Formal)","2021.2.3","Win32",178.5714286,"",NA,"e",1,0.4465,0,4,4,6,1,"正直","e","",NA,"",NA,NA,NA,NA,NA,NA,NA,"","","",NA,NA,NA,NA,NA,NA,"",NA,"",NA,NA,NA,NA,NA,NA,NA,"",NA,"",NA,NA,NA,NA,NA,NA,NA,"","","",NA,"",NA,NA,NA,NA,NA,NA,NA,"",NA,"12"
"",NA,"",NA,"",NA,NA,NA,NA,NA,NA,NA,"","",1,1,"2024-08-23_17h27.05.449","IAT(Formal)","2021.2.3","Win32",178.5714286,"",NA,"e",1,0.5374,0,5,5,7,1,"勇敢","e","",NA,"",NA,NA,NA,NA,NA,NA,NA,"","","",NA,NA,NA,NA,NA,NA,"",NA,"",NA,NA,NA,NA,NA,NA,NA,"",NA,"",NA,NA,NA,NA,NA,NA,NA,"","","",NA,"",NA,NA,NA,NA,NA,NA,NA,"",NA,"12"
"",NA,"",NA,"",NA,NA,NA,NA,NA,NA,NA,"","",1,1,"2024-08-23_17h27.05.449","IAT(Formal)","2021.2.3","Win32",178.5714286,"",NA,"i",1,0.4801,0,6,6,21,1,"虚伪","i","",NA,"",NA,NA,NA,NA,NA,NA,NA,"","","",NA,NA,NA,NA,NA,NA,"",NA,"",NA,NA,NA,NA,NA,NA,NA,"",NA,"",NA,NA,NA,NA,NA,NA,NA,"","","",NA,"",NA,NA,NA,NA,NA,NA,NA,"",NA,"12"
"",NA,"",NA,"",NA,NA,NA,NA,NA,NA,NA,"","",1,1,"2024-08-23_17h27.05.449","IAT(Formal)","2021.2.3","Win32",178.5714286,"",NA,"i",0,0.4867,0,7,7,12,1,"无私","e","",NA,"",NA,NA,NA,NA,NA,NA,NA,"","","",NA,NA,NA,NA,NA,NA,"",NA,"",NA,NA,NA,NA,NA,NA,NA,"",NA,"",NA,NA,NA,NA,NA,NA,NA,"","","",NA,"",NA,NA,NA,NA,NA,NA,NA,"",NA,"12"
"",NA,"",NA,"",NA,NA,NA,NA,NA,NA,NA,"","",1,1,"2024-08-23_17h27.05.449","IAT(Formal)","2021.2.3","Win32",178.5714286,"",NA,"i",0,0.4108,0,8,8,15,1,"细腻","e","",NA,"",NA,NA,NA,NA,NA,NA,NA,"","","",NA,NA,NA,NA,NA,NA,"",NA,"",NA,NA,NA,NA,NA,NA,NA,"",NA,"",NA,NA,NA,NA,NA,NA,NA,"","","",NA,"",NA,NA,NA,NA,NA,NA,NA,"",NA,"12"
"",NA,"",NA,"",NA,NA,NA,NA,NA,NA,NA,"","",1,1,"2024-08-23_17h27.05.449","IAT(Formal)","2021.2.3","Win32",178.5714286,"",NA,"e",1,0.473,0,9,9,17,1,"热情","e","",NA,"",NA,NA,NA,NA,NA,NA,NA,"","","",NA,NA,NA,NA,NA,NA,"",NA,"",NA,NA,NA,NA,NA,NA,NA,"",NA,"",NA,NA,NA,NA,NA,NA,NA,"","","",NA,"",NA,NA,NA,NA,NA,NA,NA,"",NA,"12"
"",NA,"",NA,"",NA,NA,NA,NA,NA,NA,NA,"","",1,1,"2024-08-23_17h27.05.449","IAT(Formal)","2021.2.3","Win32",178.5714286,"",NA,"e",1,0.6024,0,10,10,16,1,"冷静","e","",NA,"",NA,NA,NA,NA,NA,NA,NA,"","","",NA,NA,NA,NA,NA,NA,"",NA,"",NA,NA,NA,NA,NA,NA,NA,"",NA,"",NA,NA,NA,NA,NA,NA,NA,"","","",NA,"",NA,NA,NA,NA,NA,NA,NA,"",NA,"12"
"",NA,"",NA,"",NA,NA,NA,NA,NA,NA,NA,"","",1,1,"2024-08-23_17h27.05.449","IAT(Formal)","2021.2.3","Win32",178.5714286,"",NA,"e",1,0.4698,0,11,11,8,1,"勤奋","e","",NA,"",NA,NA,NA,NA,NA,NA,NA,"","","",NA,NA,NA,NA,NA,NA,"",NA,"",NA,NA,NA,NA,NA,NA,NA,"",NA,"",NA,NA,NA,NA,NA,NA,NA,"","","",NA,"",NA,NA,NA,NA,NA,NA,NA,"",NA,"12"
"",NA,"",NA,"",NA,NA,NA,NA,NA,NA,NA,"","",1,1,"2024-08-23_17h27.05.449","IAT(Formal)","2021.2.3","Win32",178.5714286,"",NA,"i",1,0.719,0,12,12,38,1,"轻率","i","",NA,"",NA,NA,NA,NA,NA,NA,NA,"","","",NA,NA,NA,NA,NA,NA,"",NA,"",NA,NA,NA,NA,NA,NA,NA,"",NA,"",NA,NA,NA,NA,NA,NA,NA,"","","",NA,"",NA,NA,NA,NA,NA,NA,NA,"",NA,"12"
"",NA,"",NA,"",NA,NA,NA,NA,NA,NA,NA,"","",1,1,"2024-08-23_17h27.05.449","IAT(Formal)","2021.2.3","Win32",178.5714286,"",NA,"i",1,0.5412,0,13,13,20,1,"卑鄙","i","",NA,"",NA,NA,NA,NA,NA,NA,NA,"","","",NA,NA,NA,NA,NA,NA,"",NA,"",NA,NA,NA,NA,NA,NA,NA,"",NA,"",NA,NA,NA,NA,NA,NA,NA,"","","",NA,"",NA,NA,NA,NA,NA,NA,NA,"",NA,"12"
"",NA,"",NA,"",NA,NA,NA,NA,NA,NA,NA,"","",1,1,"2024-08-23_17h27.05.449","IAT(Formal)","2021.2.3","Win32",178.5714286,"",NA,"e",1,0.4745,0,14,14,14,1,"朴实","e","",NA,"",NA,NA,NA,NA,NA,NA,NA,"","","",NA,NA,NA,NA,NA,NA,"",NA,"",NA,NA,NA,NA,NA,NA,NA,"",NA,"",NA,NA,NA,NA,NA,NA,NA,"","","",NA,"",NA,NA,NA,NA,NA,NA,NA,"",NA,"12"
"",NA,"",NA,"",NA,NA,NA,NA,NA,NA,NA,"","",1,1,"2024-08-23_17h27.05.449","IAT(Formal)","2021.2.3","Win32",178.5714286,"",NA,"i",1,0.7278,0,15,15,36,1,"野蛮","i","",NA,"",NA,NA,NA,NA,NA,NA,NA,"","","",NA,NA,NA,NA,NA,NA,"",NA,"",NA,NA,NA,NA,NA,NA,NA,"",NA,"",NA,NA,NA,NA,NA,NA,NA,"","","",NA,"",NA,NA,NA,NA,NA,NA,NA,"",NA,"12"
"",NA,"",NA,"",NA,NA,NA,NA,NA,NA,NA,"","",1,1,"2024-08-23_17h27.05.449","IAT(Formal)","2021.2.3","Win32",178.5714286,"",NA,"i",1,0.8959,0,16,16,29,1,"冒失","i","",NA,"",NA,NA,NA,NA,NA,NA,NA,"","","",NA,NA,NA,NA,NA,NA,"",NA,"",NA,NA,NA,NA,NA,NA,NA,"",NA,"",NA,NA,NA,NA,NA,NA,NA,"","","",NA,"",NA,NA,NA,NA,NA,NA,NA,"",NA,"12"
"",NA,"",NA,"",NA,NA,NA,NA,NA,NA,NA,"","",1,1,"2024-08-23_17h27.05.449","IAT(Formal)","2021.2.3","Win32",178.5714286,"",NA,"e",1,0.5759,0,17,17,18,1,"活泼","e","",NA,"",NA,NA,NA,NA,NA,NA,NA,"","","",NA,NA,NA,NA,NA,NA,"",NA,"",NA,NA,NA,NA,NA,NA,NA,"",NA,"",NA,NA,NA,NA,NA,NA,NA,"","","",NA,"",NA,NA,NA,NA,NA,NA,NA,"",NA,"12"
"",NA,"",NA,"",NA,NA,NA,NA,NA,NA,NA,"","",1,1,"2024-08-23_17h27.05.449","IAT(Formal)","2021.2.3","Win32",178.5714286,"",NA,"e",1,0.4745,0,18,18,11,1,"稳重","e","",NA,"",NA,NA,NA,NA,NA,NA,NA,"","","",NA,NA,NA,NA,NA,NA,"",NA,"",NA,NA,NA,NA,NA,NA,NA,"",NA,"",NA,NA,NA,NA,NA,NA,NA,"","","",NA,"",NA,NA,NA,NA,NA,NA,NA,"",NA,"12"
"",NA,"",NA,"",NA,NA,NA,NA,NA,NA,NA,"","",1,1,"2024-08-23_17h27.05.449","IAT(Formal)","2021.2.3","Win32",178.5714286,"",NA,"e",1,0.4552,0,19,19,2,1,"聪明","e","",NA,"",NA,NA,NA,NA,NA,NA,NA,"","","",NA,NA,NA,NA,NA,NA,"",NA,"",NA,NA,NA,NA,NA,NA,NA,"",NA,"",NA,NA,NA,NA,NA,NA,NA,"","","",NA,"",NA,NA,NA,NA,NA,NA,NA,"",NA,"12"
"",NA,"",NA,"",NA,NA,NA,NA,NA,NA,NA,"","",1,1,"2024-08-23_17h27.05.449","IAT(Formal)","2021.2.3","Win32",178.5714286,"",NA,"e",1,0.3924,0,20,20,13,1,"公正","e","",NA,"",NA,NA,NA,NA,NA,NA,NA,"","","",NA,NA,NA,NA,NA,NA,"",NA,"",NA,NA,NA,NA,NA,NA,NA,"",NA,"",NA,NA,NA,NA,NA,NA,NA,"","","",NA,"",NA,NA,NA,NA,NA,NA,NA,"",NA,"12"
"",NA,"",NA,"",NA,NA,NA,NA,NA,NA,NA,"","",1,1,"2024-08-23_17h27.05.449","IAT(Formal)","2021.2.3","Win32",178.5714286,"",NA,"i",1,0.5741,0,21,21,32,1,"凶狠","i","",NA,"",NA,NA,NA,NA,NA,NA,NA,"","","",NA,NA,NA,NA,NA,NA,"",NA,"",NA,NA,NA,NA,NA,NA,NA,"",NA,"",NA,NA,NA,NA,NA,NA,NA,"","","",NA,"",NA,NA,NA,NA,NA,NA,NA,"",NA,"12"
"",NA,"",NA,"",NA,NA,NA,NA,NA,NA,NA,"","",1,1,"2024-08-23_17h27.05.449","IAT(Formal)","2021.2.3","Win32",178.5714286,"",NA,"i",1,0.579,0,22,22,28,1,"鲁莽","i","",NA,"",NA,NA,NA,NA,NA,NA,NA,"","","",NA,NA,NA,NA,NA,NA,"",NA,"",NA,NA,NA,NA,NA,NA,NA,"",NA,"",NA,NA,NA,NA,NA,NA,NA,"","","",NA,"",NA,NA,NA,NA,NA,NA,NA,"",NA,"12"
"",NA,"",NA,"",NA,NA,NA,NA,NA,NA,NA,"","",1,1,"2024-08-23_17h27.05.449","IAT(Formal)","2021.2.3","Win32",178.5714286,"",NA,"i",1,0.583,0,23,23,23,1,"刻薄","i","",NA,"",NA,NA,NA,NA,NA,NA,NA,"","","",NA,NA,NA,NA,NA,NA,"",NA,"",NA,NA,NA,NA,NA,NA,NA,"",NA,"",NA,NA,NA,NA,NA,NA,NA,"","","",NA,"",NA,NA,NA,NA,NA,NA,NA,"",NA,"12"
"",NA,"",NA,"",NA,NA,NA,NA,NA,NA,NA,"","",1,1,"2024-08-23_17h27.05.449","IAT(Formal)","2021.2.3","Win32",178.5714286,"",NA,"i",1,0.5548,0,24,24,34,1,"暴躁","i","",NA,"",NA,NA,NA,NA,NA,NA,NA,"","","",NA,NA,NA,NA,NA,NA,"",NA,"",NA,NA,NA,NA,NA,NA,NA,"",NA,"",NA,NA,NA,NA,NA,NA,NA,"","","",NA,"",NA,NA,NA,NA,NA,NA,NA,"",NA,"12"
"",NA,"",NA,"",NA,NA,NA,NA,NA,NA,NA,"","",1,1,"2024-08-23_17h27.05.449","IAT(Formal)","2021.2.3","Win32",178.5714286,"",NA,"i",1,0.5217,0,25,25,24,1,"悲观","i","",NA,"",NA,NA,NA,NA,NA,NA,NA,"","","",NA,NA,NA,NA,NA,NA,"",NA,"",NA,NA,NA,NA,NA,NA,NA,"",NA,"",NA,NA,NA,NA,NA,NA,NA,"","","",NA,"",NA,NA,NA,NA,NA,NA,NA,"",NA,"12"
"",NA,"",NA,"",NA,NA,NA,NA,NA,NA,NA,"","",1,1,"2024-08-23_17h27.05.449","IAT(Formal)","2021.2.3","Win32",178.5714286,"",NA,"e",1,0.5603,0,26,26,3,1,"杰出","e","",NA,"",NA,NA,NA,NA,NA,NA,NA,"","","",NA,NA,NA,NA,NA,NA,"",NA,"",NA,NA,NA,NA,NA,NA,NA,"",NA,"",NA,NA,NA,NA,NA,NA,NA,"","","",NA,"",NA,NA,NA,NA,NA,NA,NA,"",NA,"12"
"",NA,"",NA,"",NA,NA,NA,NA,NA,NA,NA,"","",1,1,"2024-08-23_17h27.05.449","IAT(Formal)","2021.2.3","Win32",178.5714286,"",NA,"i",1,0.6977,0,27,27,31,1,"散漫","i","",NA,"",NA,NA,NA,NA,NA,NA,NA,"","","",NA,NA,NA,NA,NA,NA,"",NA,"",NA,NA,NA,NA,NA,NA,NA,"",NA,"",NA,NA,NA,NA,NA,NA,NA,"","","",NA,"",NA,NA,NA,NA,NA,NA,NA,"",NA,"12"
"",NA,"",NA,"",NA,NA,NA,NA,NA,NA,NA,"","",1,1,"2024-08-23_17h27.05.449","IAT(Formal)","2021.2.3","Win32",178.5714286,"",NA,"e",1,0.7736,0,28,28,1,1,"崇高","e","",NA,"",NA,NA,NA,NA,NA,NA,NA,"","","",NA,NA,NA,NA,NA,NA,"",NA,"",NA,NA,NA,NA,NA,NA,NA,"",NA,"",NA,NA,NA,NA,NA,NA,NA,"","","",NA,"",NA,NA,NA,NA,NA,NA,NA,"",NA,"12"
"",NA,"",NA,"",NA,NA,NA,NA,NA,NA,NA,"","",1,1,"2024-08-23_17h27.05.449","IAT(Formal)","2021.2.3","Win32",178.5714286,"",NA,"e",1,0.502,0,29,29,9,1,"机智","e","",NA,"",NA,NA,NA,NA,NA,NA,NA,"","","",NA,NA,NA,NA,NA,NA,"",NA,"",NA,NA,NA,NA,NA,NA,NA,"",NA,"",NA,NA,NA,NA,NA,NA,NA,"","","",NA,"",NA,NA,NA,NA,NA,NA,NA,"",NA,"12"
"",NA,"",NA,"",NA,NA,NA,NA,NA,NA,NA,"","",1,1,"2024-08-23_17h27.05.449","IAT(Formal)","2021.2.3","Win32",178.5714286,"",NA,"e",1,0.4373,0,30,30,4,1,"乐观","e","",NA,"",NA,NA,NA,NA,NA,NA,NA,"","","",NA,NA,NA,NA,NA,NA,"",NA,"",NA,NA,NA,NA,NA,NA,NA,"",NA,"",NA,NA,NA,NA,NA,NA,NA,"","","",NA,"",NA,NA,NA,NA,NA,NA,NA,"",NA,"12"
"",NA,"",NA,"",NA,NA,NA,NA,NA,NA,NA,"","",1,1,"2024-08-23_17h27.05.449","IAT(Formal)","2021.2.3","Win32",178.5714286,"",NA,"i",1,0.4857,0,31,31,39,1,"下贱","i","",NA,"",NA,NA,NA,NA,NA,NA,NA,"","","",NA,NA,NA,NA,NA,NA,"",NA,"",NA,NA,NA,NA,NA,NA,NA,"",NA,"",NA,NA,NA,NA,NA,NA,NA,"","","",NA,"",NA,NA,NA,NA,NA,NA,NA,"",NA,"12"
"",NA,"",NA,"",NA,NA,NA,NA,NA,NA,NA,"","",1,1,"2024-08-23_17h27.05.449","IAT(Formal)","2021.2.3","Win32",178.5714286,"",NA,"e",1,0.4841,0,32,32,0,1,"优秀","e","",NA,"",NA,NA,NA,NA,NA,NA,NA,"","","",NA,NA,NA,NA,NA,NA,"",NA,"",NA,NA,NA,NA,NA,NA,NA,"",NA,"",NA,NA,NA,NA,NA,NA,NA,"","","",NA,"",NA,NA,NA,NA,NA,NA,NA,"",NA,"12"
"",NA,"",NA,"",NA,NA,NA,NA,NA,NA,NA,"","",1,1,"2024-08-23_17h27.05.449","IAT(Formal)","2021.2.3","Win32",178.5714286,"",NA,"i",1,0.5615,0,33,33,27,1,"傲慢","i","",NA,"",NA,NA,NA,NA,NA,NA,NA,"","","",NA,NA,NA,NA,NA,NA,"",NA,"",NA,NA,NA,NA,NA,NA,NA,"",NA,"",NA,NA,NA,NA,NA,NA,NA,"","","",NA,"",NA,NA,NA,NA,NA,NA,NA,"",NA,"12"
"",NA,"",NA,"",NA,NA,NA,NA,NA,NA,NA,"","",1,1,"2024-08-23_17h27.05.449","IAT(Formal)","2021.2.3","Win32",178.5714286,"",NA,"i",1,0.7106,0,34,34,30,1,"执拗","i","",NA,"",NA,NA,NA,NA,NA,NA,NA,"","","",NA,NA,NA,NA,NA,NA,"",NA,"",NA,NA,NA,NA,NA,NA,NA,"",NA,"",NA,NA,NA,NA,NA,NA,NA,"","","",NA,"",NA,NA,NA,NA,NA,NA,NA,"",NA,"12"
"",NA,"",NA,"",NA,NA,NA,NA,NA,NA,NA,"","",1,1,"2024-08-23_17h27.05.449","IAT(Formal)","2021.2.3","Win32",178.5714286,"",NA,"i",1,0.5267,0,35,35,25,1,"消极","i","",NA,"",NA,NA,NA,NA,NA,NA,NA,"","","",NA,NA,NA,NA,NA,NA,"",NA,"",NA,NA,NA,NA,NA,NA,NA,"",NA,"",NA,NA,NA,NA,NA,NA,NA,"","","",NA,"",NA,NA,NA,NA,NA,NA,NA,"",NA,"12"
"",NA,"",NA,"",NA,NA,NA,NA,NA,NA,NA,"","",1,1,"2024-08-23_17h27.05.449","IAT(Formal)","2021.2.3","Win32",178.5714286,"",NA,"e",1,0.5464,0,36,36,19,1,"诚恳","e","",NA,"",NA,NA,NA,NA,NA,NA,NA,"","","",NA,NA,NA,NA,NA,NA,"",NA,"",NA,NA,NA,NA,NA,NA,NA,"",NA,"",NA,NA,NA,NA,NA,NA,NA,"","","",NA,"",NA,NA,NA,NA,NA,NA,NA,"",NA,"12"
"",NA,"",NA,"",NA,NA,NA,NA,NA,NA,NA,"","",1,1,"2024-08-23_17h27.05.449","IAT(Formal)","2021.2.3","Win32",178.5714286,"",NA,"i",1,0.6428,0,37,37,35,1,"猖狂","i","",NA,"",NA,NA,NA,NA,NA,NA,NA,"","","",NA,NA,NA,NA,NA,NA,"",NA,"",NA,NA,NA,NA,NA,NA,NA,"",NA,"",NA,NA,NA,NA,NA,NA,NA,"","","",NA,"",NA,NA,NA,NA,NA,NA,NA,"",NA,"12"
"",NA,"",NA,"",NA,NA,NA,NA,NA,NA,NA,"","",1,1,"2024-08-23_17h27.05.449","IAT(Formal)","2021.2.3","Win32",178.5714286,"",NA,"i",1,0.4664,0,38,38,22,1,"愚蠢","i","",NA,"",NA,NA,NA,NA,NA,NA,NA,"","","",NA,NA,NA,NA,NA,NA,"",NA,"",NA,NA,NA,NA,NA,NA,NA,"",NA,"",NA,NA,NA,NA,NA,NA,NA,"","","",NA,"",NA,NA,NA,NA,NA,NA,NA,"",NA,"12"
"",NA,"",NA,"",NA,NA,NA,NA,NA,NA,NA,"","",1,1,"2024-08-23_17h27.05.449","IAT(Formal)","2021.2.3","Win32",178.5714286,"",NA,"e",1,0.396,0,39,39,5,1,"诚实","e","",NA,"",NA,NA,NA,NA,NA,NA,NA,"","","",NA,NA,NA,NA,NA,NA,"",NA,"",NA,NA,NA,NA,NA,NA,NA,"",NA,"",NA,NA,NA,NA,NA,NA,NA,"","","",NA,"",NA,NA,NA,NA,NA,NA,NA,"",NA,"12"
"",NA,"",NA,"",NA,NA,NA,NA,NA,NA,NA,"","",1,1,"2024-08-23_17h27.05.449","IAT(Formal)","2021.2.3","Win32",178.5714286,"",NA,"",NA,NA,NA,NA,NA,NA,NA,"","","space",64.1343,"e",1,0.4077,0,0,0,52,1,"我们","e","",NA,NA,NA,NA,NA,NA,"",NA,"",NA,NA,NA,NA,NA,NA,NA,"",NA,"",NA,NA,NA,NA,NA,NA,NA,"","","",NA,"",NA,NA,NA,NA,NA,NA,NA,"",NA,"12"
"",NA,"",NA,"",NA,NA,NA,NA,NA,NA,NA,"","",1,1,"2024-08-23_17h27.05.449","IAT(Formal)","2021.2.3","Win32",178.5714286,"",NA,"",NA,NA,NA,NA,NA,NA,NA,"","","",NA,"e",1,0.6828,0,1,1,26,1,"冷静","e","",NA,NA,NA,NA,NA,NA,"",NA,"",NA,NA,NA,NA,NA,NA,NA,"",NA,"",NA,NA,NA,NA,NA,NA,NA,"","","",NA,"",NA,NA,NA,NA,NA,NA,NA,"",NA,"12"
"",NA,"",NA,"",NA,NA,NA,NA,NA,NA,NA,"","",1,1,"2024-08-23_17h27.05.449","IAT(Formal)","2021.2.3","Win32",178.5714286,"",NA,"",NA,NA,NA,NA,NA,NA,NA,"","","",NA,"e",1,0.4526,0,2,2,17,1,"勇敢","e","",NA,NA,NA,NA,NA,NA,"",NA,"",NA,NA,NA,NA,NA,NA,NA,"",NA,"",NA,NA,NA,NA,NA,NA,NA,"","","",NA,"",NA,NA,NA,NA,NA,NA,NA,"",NA,"12"
"",NA,"",NA,"",NA,NA,NA,NA,NA,NA,NA,"","",1,1,"2024-08-23_17h27.05.449","IAT(Formal)","2021.2.3","Win32",178.5714286,"",NA,"",NA,NA,NA,NA,NA,NA,NA,"","","",NA,"i",1,0.5389,0,3,3,33,1,"刻薄","i","",NA,NA,NA,NA,NA,NA,"",NA,"",NA,NA,NA,NA,NA,NA,NA,"",NA,"",NA,NA,NA,NA,NA,NA,NA,"","","",NA,"",NA,NA,NA,NA,NA,NA,NA,"",NA,"12"
"",NA,"",NA,"",NA,NA,NA,NA,NA,NA,NA,"","",1,1,"2024-08-23_17h27.05.449","IAT(Formal)","2021.2.3","Win32",178.5714286,"",NA,"",NA,NA,NA,NA,NA,NA,NA,"","","",NA,"i",1,0.5049,0,4,4,76,1,"他们","i","",NA,NA,NA,NA,NA,NA,"",NA,"",NA,NA,NA,NA,NA,NA,NA,"",NA,"",NA,NA,NA,NA,NA,NA,NA,"","","",NA,"",NA,NA,NA,NA,NA,NA,NA,"",NA,"12"
"",NA,"",NA,"",NA,NA,NA,NA,NA,NA,NA,"","",1,1,"2024-08-23_17h27.05.449","IAT(Formal)","2021.2.3","Win32",178.5714286,"",NA,"",NA,NA,NA,NA,NA,NA,NA,"","","",NA,"i",1,0.5347,0,5,5,47,1,"固执","i","",NA,NA,NA,NA,NA,NA,"",NA,"",NA,NA,NA,NA,NA,NA,NA,"",NA,"",NA,NA,NA,NA,NA,NA,NA,"","","",NA,"",NA,NA,NA,NA,NA,NA,NA,"",NA,"12"
"",NA,"",NA,"",NA,NA,NA,NA,NA,NA,NA,"","",1,1,"2024-08-23_17h27.05.449","IAT(Formal)","2021.2.3","Win32",178.5714286,"",NA,"",NA,NA,NA,NA,NA,NA,NA,"","","",NA,"e",1,0.4403,0,6,6,54,1,"俺","e","",NA,NA,NA,NA,NA,NA,"",NA,"",NA,NA,NA,NA,NA,NA,NA,"",NA,"",NA,NA,NA,NA,NA,NA,NA,"","","",NA,"",NA,NA,NA,NA,NA,NA,NA,"",NA,"12"
"",NA,"",NA,"",NA,NA,NA,NA,NA,NA,NA,"","",1,1,"2024-08-23_17h27.05.449","IAT(Formal)","2021.2.3","Win32",178.5714286,"",NA,"",NA,NA,NA,NA,NA,NA,NA,"","","",NA,"i",1,0.562,0,7,7,66,1,"他们","i","",NA,NA,NA,NA,NA,NA,"",NA,"",NA,NA,NA,NA,NA,NA,NA,"",NA,"",NA,NA,NA,NA,NA,NA,NA,"","","",NA,"",NA,NA,NA,NA,NA,NA,NA,"",NA,"12"
"",NA,"",NA,"",NA,NA,NA,NA,NA,NA,NA,"","",1,1,"2024-08-23_17h27.05.449","IAT(Formal)","2021.2.3","Win32",178.5714286,"",NA,"",NA,NA,NA,NA,NA,NA,NA,"","","",NA,"i",1,0.5605,0,8,8,79,1,"其他","i","",NA,NA,NA,NA,NA,NA,"",NA,"",NA,NA,NA,NA,NA,NA,NA,"",NA,"",NA,NA,NA,NA,NA,NA,NA,"","","",NA,"",NA,NA,NA,NA,NA,NA,NA,"",NA,"12"
"",NA,"",NA,"",NA,NA,NA,NA,NA,NA,NA,"","",1,1,"2024-08-23_17h27.05.449","IAT(Formal)","2021.2.3","Win32",178.5714286,"",NA,"",NA,NA,NA,NA,NA,NA,NA,"","","",NA,"i",1,0.4897,0,9,9,75,1,"他","i","",NA,NA,NA,NA,NA,NA,"",NA,"",NA,NA,NA,NA,NA,NA,NA,"",NA,"",NA,NA,NA,NA,NA,NA,NA,"","","",NA,"",NA,NA,NA,NA,NA,NA,NA,"",NA,"12"
"",NA,"",NA,"",NA,NA,NA,NA,NA,NA,NA,"","",1,1,"2024-08-23_17h27.05.449","IAT(Formal)","2021.2.3","Win32",178.5714286,"",NA,"",NA,NA,NA,NA,NA,NA,NA,"","","",NA,"i",1,0.5162,0,10,10,31,1,"虚伪","i","",NA,NA,NA,NA,NA,NA,"",NA,"",NA,NA,NA,NA,NA,NA,NA,"",NA,"",NA,NA,NA,NA,NA,NA,NA,"","","",NA,"",NA,NA,NA,NA,NA,NA,NA,"",NA,"12"
"",NA,"",NA,"",NA,NA,NA,NA,NA,NA,NA,"","",1,1,"2024-08-23_17h27.05.449","IAT(Formal)","2021.2.3","Win32",178.5714286,"",NA,"",NA,NA,NA,NA,NA,NA,NA,"","","",NA,"i",1,0.5354,0,11,11,7,1,"他的","i","",NA,NA,NA,NA,NA,NA,"",NA,"",NA,NA,NA,NA,NA,NA,NA,"",NA,"",NA,NA,NA,NA,NA,NA,NA,"","","",NA,"",NA,NA,NA,NA,NA,NA,NA,"",NA,"12"
"",NA,"",NA,"",NA,NA,NA,NA,NA,NA,NA,"","",1,1,"2024-08-23_17h27.05.449","IAT(Formal)","2021.2.3","Win32",178.5714286,"",NA,"",NA,NA,NA,NA,NA,NA,NA,"","","",NA,"e",1,0.4822,0,12,12,64,1,"俺","e","",NA,NA,NA,NA,NA,NA,"",NA,"",NA,NA,NA,NA,NA,NA,NA,"",NA,"",NA,NA,NA,NA,NA,NA,NA,"","","",NA,"",NA,NA,NA,NA,NA,NA,NA,"",NA,"12"
"",NA,"",NA,"",NA,NA,NA,NA,NA,NA,NA,"","",1,1,"2024-08-23_17h27.05.449","IAT(Formal)","2021.2.3","Win32",178.5714286,"",NA,"",NA,NA,NA,NA,NA,NA,NA,"","","",NA,"e",1,0.4224,0,13,13,73,1,"自己","e","",NA,NA,NA,NA,NA,NA,"",NA,"",NA,NA,NA,NA,NA,NA,NA,"",NA,"",NA,NA,NA,NA,NA,NA,NA,"","","",NA,"",NA,NA,NA,NA,NA,NA,NA,"",NA,"12"
"",NA,"",NA,"",NA,NA,NA,NA,NA,NA,NA,"","",1,1,"2024-08-23_17h27.05.449","IAT(Formal)","2021.2.3","Win32",178.5714286,"",NA,"",NA,NA,NA,NA,NA,NA,NA,"","","",NA,"i",1,0.4666,0,14,14,30,1,"卑鄙","i","",NA,NA,NA,NA,NA,NA,"",NA,"",NA,NA,NA,NA,NA,NA,NA,"",NA,"",NA,NA,NA,NA,NA,NA,NA,"","","",NA,"",NA,NA,NA,NA,NA,NA,NA,"",NA,"12"
"",NA,"",NA,"",NA,NA,NA,NA,NA,NA,NA,"","",1,1,"2024-08-23_17h27.05.449","IAT(Formal)","2021.2.3","Win32",178.5714286,"",NA,"",NA,NA,NA,NA,NA,NA,NA,"","","",NA,"e",1,0.6503,0,15,15,28,1,"活泼","e","",NA,NA,NA,NA,NA,NA,"",NA,"",NA,NA,NA,NA,NA,NA,NA,"",NA,"",NA,NA,NA,NA,NA,NA,NA,"","","",NA,"",NA,NA,NA,NA,NA,NA,NA,"",NA,"12"
"",NA,"",NA,"",NA,NA,NA,NA,NA,NA,NA,"","",1,1,"2024-08-23_17h27.05.449","IAT(Formal)","2021.2.3","Win32",178.5714286,"",NA,"",NA,NA,NA,NA,NA,NA,NA,"","","",NA,"e",1,0.3626,0,16,16,61,1,"我的","e","",NA,NA,NA,NA,NA,NA,"",NA,"",NA,NA,NA,NA,NA,NA,NA,"",NA,"",NA,NA,NA,NA,NA,NA,NA,"","","",NA,"",NA,NA,NA,NA,NA,NA,NA,"",NA,"12"
"",NA,"",NA,"",NA,NA,NA,NA,NA,NA,NA,"","",1,1,"2024-08-23_17h27.05.449","IAT(Formal)","2021.2.3","Win32",178.5714286,"",NA,"",NA,NA,NA,NA,NA,NA,NA,"","","",NA,"e",1,0.376,0,17,17,50,1,"我","e","",NA,NA,NA,NA,NA,NA,"",NA,"",NA,NA,NA,NA,NA,NA,NA,"",NA,"",NA,NA,NA,NA,NA,NA,NA,"","","",NA,"",NA,NA,NA,NA,NA,NA,NA,"",NA,"12"
"",NA,"",NA,"",NA,NA,NA,NA,NA,NA,NA,"","",1,1,"2024-08-23_17h27.05.449","IAT(Formal)","2021.2.3","Win32",178.5714286,"",NA,"",NA,NA,NA,NA,NA,NA,NA,"","","",NA,"e",1,0.5104,0,18,18,11,1,"崇高","e","",NA,NA,NA,NA,NA,NA,"",NA,"",NA,NA,NA,NA,NA,NA,NA,"",NA,"",NA,NA,NA,NA,NA,NA,NA,"","","",NA,"",NA,NA,NA,NA,NA,NA,NA,"",NA,"12"
"",NA,"",NA,"",NA,NA,NA,NA,NA,NA,NA,"","",1,1,"2024-08-23_17h27.05.449","IAT(Formal)","2021.2.3","Win32",178.5714286,"",NA,"",NA,NA,NA,NA,NA,NA,NA,"","","",NA,"e",0,0.3349,0,19,19,55,1,"他","i","",NA,NA,NA,NA,NA,NA,"",NA,"",NA,NA,NA,NA,NA,NA,NA,"",NA,"",NA,NA,NA,NA,NA,NA,NA,"","","",NA,"",NA,NA,NA,NA,NA,NA,NA,"",NA,"12"
"",NA,"",NA,"",NA,NA,NA,NA,NA,NA,NA,"","",1,1,"2024-08-23_17h27.05.449","IAT(Formal)","2021.2.3","Win32",178.5714286,"",NA,"",NA,NA,NA,NA,NA,NA,NA,"","","",NA,"i",1,0.5703,0,20,20,46,1,"野蛮","i","",NA,NA,NA,NA,NA,NA,"",NA,"",NA,NA,NA,NA,NA,NA,NA,"",NA,"",NA,NA,NA,NA,NA,NA,NA,"","","",NA,"",NA,NA,NA,NA,NA,NA,NA,"",NA,"12"
"",NA,"",NA,"",NA,NA,NA,NA,NA,NA,NA,"","",1,1,"2024-08-23_17h27.05.449","IAT(Formal)","2021.2.3","Win32",178.5714286,"",NA,"",NA,NA,NA,NA,NA,NA,NA,"","","",NA,"i",1,0.4585,0,21,21,45,1,"猖狂","i","",NA,NA,NA,NA,NA,NA,"",NA,"",NA,NA,NA,NA,NA,NA,NA,"",NA,"",NA,NA,NA,NA,NA,NA,NA,"","","",NA,"",NA,NA,NA,NA,NA,NA,NA,"",NA,"12"
"",NA,"",NA,"",NA,NA,NA,NA,NA,NA,NA,"","",1,1,"2024-08-23_17h27.05.449","IAT(Formal)","2021.2.3","Win32",178.5714286,"",NA,"",NA,NA,NA,NA,NA,NA,NA,"","","",NA,"e",1,0.5264,0,22,22,14,1,"乐观","e","",NA,NA,NA,NA,NA,NA,"",NA,"",NA,NA,NA,NA,NA,NA,NA,"",NA,"",NA,NA,NA,NA,NA,NA,NA,"","","",NA,"",NA,NA,NA,NA,NA,NA,NA,"",NA,"12"
"",NA,"",NA,"",NA,NA,NA,NA,NA,NA,NA,"","",1,1,"2024-08-23_17h27.05.449","IAT(Formal)","2021.2.3","Win32",178.5714286,"",NA,"",NA,NA,NA,NA,NA,NA,NA,"","","",NA,"i",1,0.5594,0,23,23,68,1,"他人","i","",NA,NA,NA,NA,NA,NA,"",NA,"",NA,NA,NA,NA,NA,NA,NA,"",NA,"",NA,NA,NA,NA,NA,NA,NA,"","","",NA,"",NA,NA,NA,NA,NA,NA,NA,"",NA,"12"
"",NA,"",NA,"",NA,NA,NA,NA,NA,NA,NA,"","",1,1,"2024-08-23_17h27.05.449","IAT(Formal)","2021.2.3","Win32",178.5714286,"",NA,"",NA,NA,NA,NA,NA,NA,NA,"","","",NA,"i",1,0.4924,0,24,24,65,1,"他","i","",NA,NA,NA,NA,NA,NA,"",NA,"",NA,NA,NA,NA,NA,NA,NA,"",NA,"",NA,NA,NA,NA,NA,NA,NA,"","","",NA,"",NA,NA,NA,NA,NA,NA,NA,"",NA,"12"
"",NA,"",NA,"",NA,NA,NA,NA,NA,NA,NA,"","",1,1,"2024-08-23_17h27.05.449","IAT(Formal)","2021.2.3","Win32",178.5714286,"",NA,"",NA,NA,NA,NA,NA,NA,NA,"","","",NA,"e",1,0.4545,0,25,25,3,1,"自己","e","",NA,NA,NA,NA,NA,NA,"",NA,"",NA,NA,NA,NA,NA,NA,NA,"",NA,"",NA,NA,NA,NA,NA,NA,NA,"","","",NA,"",NA,NA,NA,NA,NA,NA,NA,"",NA,"12"
"",NA,"",NA,"",NA,NA,NA,NA,NA,NA,NA,"","",1,1,"2024-08-23_17h27.05.449","IAT(Formal)","2021.2.3","Win32",178.5714286,"",NA,"",NA,NA,NA,NA,NA,NA,NA,"","","",NA,"i",1,0.5331,0,26,26,9,1,"其他","i","",NA,NA,NA,NA,NA,NA,"",NA,"",NA,NA,NA,NA,NA,NA,NA,"",NA,"",NA,NA,NA,NA,NA,NA,NA,"","","",NA,"",NA,NA,NA,NA,NA,NA,NA,"",NA,"12"
"",NA,"",NA,"",NA,NA,NA,NA,NA,NA,NA,"","",1,1,"2024-08-23_17h27.05.449","IAT(Formal)","2021.2.3","Win32",178.5714286,"",NA,"",NA,NA,NA,NA,NA,NA,NA,"","","",NA,"i",1,0.5605,0,27,27,49,1,"下贱","i","",NA,NA,NA,NA,NA,NA,"",NA,"",NA,NA,NA,NA,NA,NA,NA,"",NA,"",NA,NA,NA,NA,NA,NA,NA,"","","",NA,"",NA,NA,NA,NA,NA,NA,NA,"",NA,"12"
"",NA,"",NA,"",NA,NA,NA,NA,NA,NA,NA,"","",1,1,"2024-08-23_17h27.05.449","IAT(Formal)","2021.2.3","Win32",178.5714286,"",NA,"",NA,NA,NA,NA,NA,NA,NA,"","","",NA,"e",1,0.5349,0,28,28,4,1,"俺","e","",NA,NA,NA,NA,NA,NA,"",NA,"",NA,NA,NA,NA,NA,NA,NA,"",NA,"",NA,NA,NA,NA,NA,NA,NA,"","","",NA,"",NA,NA,NA,NA,NA,NA,NA,"",NA,"12"
"",NA,"",NA,"",NA,NA,NA,NA,NA,NA,NA,"","",1,1,"2024-08-23_17h27.05.449","IAT(Formal)","2021.2.3","Win32",178.5714286,"",NA,"",NA,NA,NA,NA,NA,NA,NA,"","","",NA,"i",1,0.4658,0,29,29,32,1,"愚蠢","i","",NA,NA,NA,NA,NA,NA,"",NA,"",NA,NA,NA,NA,NA,NA,NA,"",NA,"",NA,NA,NA,NA,NA,NA,NA,"","","",NA,"",NA,NA,NA,NA,NA,NA,NA,"",NA,"12"
"",NA,"",NA,"",NA,NA,NA,NA,NA,NA,NA,"","",1,1,"2024-08-23_17h27.05.449","IAT(Formal)","2021.2.3","Win32",178.5714286,"",NA,"",NA,NA,NA,NA,NA,NA,NA,"","","",NA,"i",1,0.5695,0,30,30,35,1,"消极","i","",NA,NA,NA,NA,NA,NA,"",NA,"",NA,NA,NA,NA,NA,NA,NA,"",NA,"",NA,NA,NA,NA,NA,NA,NA,"","","",NA,"",NA,NA,NA,NA,NA,NA,NA,"",NA,"12"
"",NA,"",NA,"",NA,NA,NA,NA,NA,NA,NA,"","",1,1,"2024-08-23_17h27.05.449","IAT(Formal)","2021.2.3","Win32",178.5714286,"",NA,"",NA,NA,NA,NA,NA,NA,NA,"","","",NA,"e",1,0.5338,0,31,31,18,1,"勤奋","e","",NA,NA,NA,NA,NA,NA,"",NA,"",NA,NA,NA,NA,NA,NA,NA,"",NA,"",NA,NA,NA,NA,NA,NA,NA,"","","",NA,"",NA,NA,NA,NA,NA,NA,NA,"",NA,"12"
"",NA,"",NA,"",NA,NA,NA,NA,NA,NA,NA,"","",1,1,"2024-08-23_17h27.05.449","IAT(Formal)","2021.2.3","Win32",178.5714286,"",NA,"",NA,NA,NA,NA,NA,NA,NA,"","","",NA,"i",1,0.4845,0,32,32,40,1,"执拗","i","",NA,NA,NA,NA,NA,NA,"",NA,"",NA,NA,NA,NA,NA,NA,NA,"",NA,"",NA,NA,NA,NA,NA,NA,NA,"","","",NA,"",NA,NA,NA,NA,NA,NA,NA,"",NA,"12"
"",NA,"",NA,"",NA,NA,NA,NA,NA,NA,NA,"","",1,1,"2024-08-23_17h27.05.449","IAT(Formal)","2021.2.3","Win32",178.5714286,"",NA,"",NA,NA,NA,NA,NA,NA,NA,"","","",NA,"e",1,0.4812,0,33,33,10,1,"优秀","e","",NA,NA,NA,NA,NA,NA,"",NA,"",NA,NA,NA,NA,NA,NA,NA,"",NA,"",NA,NA,NA,NA,NA,NA,NA,"","","",NA,"",NA,NA,NA,NA,NA,NA,NA,"",NA,"12"
"",NA,"",NA,"",NA,NA,NA,NA,NA,NA,NA,"","",1,1,"2024-08-23_17h27.05.449","IAT(Formal)","2021.2.3","Win32",178.5714286,"",NA,"",NA,NA,NA,NA,NA,NA,NA,"","","",NA,"i",1,0.7008,0,34,34,38,1,"鲁莽","i","",NA,NA,NA,NA,NA,NA,"",NA,"",NA,NA,NA,NA,NA,NA,NA,"",NA,"",NA,NA,NA,NA,NA,NA,NA,"","","",NA,"",NA,NA,NA,NA,NA,NA,NA,"",NA,"12"
"",NA,"",NA,"",NA,NA,NA,NA,NA,NA,NA,"","",1,1,"2024-08-23_17h27.05.449","IAT(Formal)","2021.2.3","Win32",178.5714286,"",NA,"",NA,NA,NA,NA,NA,NA,NA,"","","",NA,"i",1,0.6312,0,35,35,44,1,"暴躁","i","",NA,NA,NA,NA,NA,NA,"",NA,"",NA,NA,NA,NA,NA,NA,NA,"",NA,"",NA,NA,NA,NA,NA,NA,NA,"","","",NA,"",NA,NA,NA,NA,NA,NA,NA,"",NA,"12"
"",NA,"",NA,"",NA,NA,NA,NA,NA,NA,NA,"","",1,1,"2024-08-23_17h27.05.449","IAT(Formal)","2021.2.3","Win32",178.5714286,"",NA,"",NA,NA,NA,NA,NA,NA,NA,"","","",NA,"e",1,0.5196,0,36,36,27,1,"热情","e","",NA,NA,NA,NA,NA,NA,"",NA,"",NA,NA,NA,NA,NA,NA,NA,"",NA,"",NA,NA,NA,NA,NA,NA,NA,"","","",NA,"",NA,NA,NA,NA,NA,NA,NA,"",NA,"12"
"",NA,"",NA,"",NA,NA,NA,NA,NA,NA,NA,"","",1,1,"2024-08-23_17h27.05.449","IAT(Formal)","2021.2.3","Win32",178.5714286,"",NA,"",NA,NA,NA,NA,NA,NA,NA,"","","",NA,"i",1,0.6435,0,37,37,42,1,"凶狠","i","",NA,NA,NA,NA,NA,NA,"",NA,"",NA,NA,NA,NA,NA,NA,NA,"",NA,"",NA,NA,NA,NA,NA,NA,NA,"","","",NA,"",NA,NA,NA,NA,NA,NA,NA,"",NA,"12"
"",NA,"",NA,"",NA,NA,NA,NA,NA,NA,NA,"","",1,1,"2024-08-23_17h27.05.449","IAT(Formal)","2021.2.3","Win32",178.5714286,"",NA,"",NA,NA,NA,NA,NA,NA,NA,"","","",NA,"e",1,0.7037,0,38,38,60,1,"我","e","",NA,NA,NA,NA,NA,NA,"",NA,"",NA,NA,NA,NA,NA,NA,NA,"",NA,"",NA,NA,NA,NA,NA,NA,NA,"","","",NA,"",NA,NA,NA,NA,NA,NA,NA,"",NA,"12"
"",NA,"",NA,"",NA,NA,NA,NA,NA,NA,NA,"","",1,1,"2024-08-23_17h27.05.449","IAT(Formal)","2021.2.3","Win32",178.5714286,"",NA,"",NA,NA,NA,NA,NA,NA,NA,"","","",NA,"i",1,0.5904,0,39,39,77,1,"他的","i","",NA,NA,NA,NA,NA,NA,"",NA,"",NA,NA,NA,NA,NA,NA,NA,"",NA,"",NA,NA,NA,NA,NA,NA,NA,"","","",NA,"",NA,NA,NA,NA,NA,NA,NA,"",NA,"12"
"",NA,"",NA,"",NA,NA,NA,NA,NA,NA,NA,"","",1,1,"2024-08-23_17h27.05.449","IAT(Formal)","2021.2.3","Win32",178.5714286,"",NA,"",NA,NA,NA,NA,NA,NA,NA,"","","",NA,"e",1,0.5034,0,40,40,16,1,"正直","e","",NA,NA,NA,NA,NA,NA,"",NA,"",NA,NA,NA,NA,NA,NA,NA,"",NA,"",NA,NA,NA,NA,NA,NA,NA,"","","",NA,"",NA,NA,NA,NA,NA,NA,NA,"",NA,"12"
"",NA,"",NA,"",NA,NA,NA,NA,NA,NA,NA,"","",1,1,"2024-08-23_17h27.05.449","IAT(Formal)","2021.2.3","Win32",178.5714286,"",NA,"",NA,NA,NA,NA,NA,NA,NA,"","","",NA,"e",1,0.7501,0,41,41,53,1,"自己","e","",NA,NA,NA,NA,NA,NA,"",NA,"",NA,NA,NA,NA,NA,NA,NA,"",NA,"",NA,NA,NA,NA,NA,NA,NA,"","","",NA,"",NA,NA,NA,NA,NA,NA,NA,"",NA,"12"
"",NA,"",NA,"",NA,NA,NA,NA,NA,NA,NA,"","",1,1,"2024-08-23_17h27.05.449","IAT(Formal)","2021.2.3","Win32",178.5714286,"",NA,"",NA,NA,NA,NA,NA,NA,NA,"","","",NA,"i",1,0.5594,0,42,42,34,1,"悲观","i","",NA,NA,NA,NA,NA,NA,"",NA,"",NA,NA,NA,NA,NA,NA,NA,"",NA,"",NA,NA,NA,NA,NA,NA,NA,"","","",NA,"",NA,NA,NA,NA,NA,NA,NA,"",NA,"12"
"",NA,"",NA,"",NA,NA,NA,NA,NA,NA,NA,"","",1,1,"2024-08-23_17h27.05.449","IAT(Formal)","2021.2.3","Win32",178.5714286,"",NA,"",NA,NA,NA,NA,NA,NA,NA,"","","",NA,"e",1,0.5096,0,43,43,21,1,"稳重","e","",NA,NA,NA,NA,NA,NA,"",NA,"",NA,NA,NA,NA,NA,NA,NA,"",NA,"",NA,NA,NA,NA,NA,NA,NA,"","","",NA,"",NA,NA,NA,NA,NA,NA,NA,"",NA,"12"
"",NA,"",NA,"",NA,NA,NA,NA,NA,NA,NA,"","",1,1,"2024-08-23_17h27.05.449","IAT(Formal)","2021.2.3","Win32",178.5714286,"",NA,"",NA,NA,NA,NA,NA,NA,NA,"","","",NA,"i",1,0.5936,0,44,44,43,1,"自私","i","",NA,NA,NA,NA,NA,NA,"",NA,"",NA,NA,NA,NA,NA,NA,NA,"",NA,"",NA,NA,NA,NA,NA,NA,NA,"","","",NA,"",NA,NA,NA,NA,NA,NA,NA,"",NA,"12"
"",NA,"",NA,"",NA,NA,NA,NA,NA,NA,NA,"","",1,1,"2024-08-23_17h27.05.449","IAT(Formal)","2021.2.3","Win32",178.5714286,"",NA,"",NA,NA,NA,NA,NA,NA,NA,"","","",NA,"e",1,0.7877,0,45,45,25,1,"细腻","e","",NA,NA,NA,NA,NA,NA,"",NA,"",NA,NA,NA,NA,NA,NA,NA,"",NA,"",NA,NA,NA,NA,NA,NA,NA,"","","",NA,"",NA,NA,NA,NA,NA,NA,NA,"",NA,"12"
"",NA,"",NA,"",NA,NA,NA,NA,NA,NA,NA,"","",1,1,"2024-08-23_17h27.05.449","IAT(Formal)","2021.2.3","Win32",178.5714286,"",NA,"",NA,NA,NA,NA,NA,NA,NA,"","","",NA,"e",1,0.3896,0,46,46,51,1,"我的","e","",NA,NA,NA,NA,NA,NA,"",NA,"",NA,NA,NA,NA,NA,NA,NA,"",NA,"",NA,NA,NA,NA,NA,NA,NA,"","","",NA,"",NA,NA,NA,NA,NA,NA,NA,"",NA,"12"
"",NA,"",NA,"",NA,NA,NA,NA,NA,NA,NA,"","",1,1,"2024-08-23_17h27.05.449","IAT(Formal)","2021.2.3","Win32",178.5714286,"",NA,"",NA,NA,NA,NA,NA,NA,NA,"","","",NA,"i",1,0.5121,0,47,47,57,1,"他的","i","",NA,NA,NA,NA,NA,NA,"",NA,"",NA,NA,NA,NA,NA,NA,NA,"",NA,"",NA,NA,NA,NA,NA,NA,NA,"","","",NA,"",NA,NA,NA,NA,NA,NA,NA,"",NA,"12"
"",NA,"",NA,"",NA,NA,NA,NA,NA,NA,NA,"","",1,1,"2024-08-23_17h27.05.449","IAT(Formal)","2021.2.3","Win32",178.5714286,"",NA,"",NA,NA,NA,NA,NA,NA,NA,"","","",NA,"i",1,0.5504,0,48,48,69,1,"其他","i","",NA,NA,NA,NA,NA,NA,"",NA,"",NA,NA,NA,NA,NA,NA,NA,"",NA,"",NA,NA,NA,NA,NA,NA,NA,"","","",NA,"",NA,NA,NA,NA,NA,NA,NA,"",NA,"12"
"",NA,"",NA,"",NA,NA,NA,NA,NA,NA,NA,"","",1,1,"2024-08-23_17h27.05.449","IAT(Formal)","2021.2.3","Win32",178.5714286,"",NA,"",NA,NA,NA,NA,NA,NA,NA,"","","",NA,"e",1,0.4754,0,49,49,62,1,"我们","e","",NA,NA,NA,NA,NA,NA,"",NA,"",NA,NA,NA,NA,NA,NA,NA,"",NA,"",NA,NA,NA,NA,NA,NA,NA,"","","",NA,"",NA,NA,NA,NA,NA,NA,NA,"",NA,"12"
"",NA,"",NA,"",NA,NA,NA,NA,NA,NA,NA,"","",1,1,"2024-08-23_17h27.05.449","IAT(Formal)","2021.2.3","Win32",178.5714286,"",NA,"",NA,NA,NA,NA,NA,NA,NA,"","","",NA,"i",1,0.5596,0,50,50,56,1,"他们","i","",NA,NA,NA,NA,NA,NA,"",NA,"",NA,NA,NA,NA,NA,NA,NA,"",NA,"",NA,NA,NA,NA,NA,NA,NA,"","","",NA,"",NA,NA,NA,NA,NA,NA,NA,"",NA,"12"
"",NA,"",NA,"",NA,NA,NA,NA,NA,NA,NA,"","",1,1,"2024-08-23_17h27.05.449","IAT(Formal)","2021.2.3","Win32",178.5714286,"",NA,"",NA,NA,NA,NA,NA,NA,NA,"","","",NA,"e",1,0.6989,0,51,51,22,1,"无私","e","",NA,NA,NA,NA,NA,NA,"",NA,"",NA,NA,NA,NA,NA,NA,NA,"",NA,"",NA,NA,NA,NA,NA,NA,NA,"","","",NA,"",NA,NA,NA,NA,NA,NA,NA,"",NA,"12"
"",NA,"",NA,"",NA,NA,NA,NA,NA,NA,NA,"","",1,1,"2024-08-23_17h27.05.449","IAT(Formal)","2021.2.3","Win32",178.5714286,"",NA,"",NA,NA,NA,NA,NA,NA,NA,"","","",NA,"e",1,0.4932,0,52,52,13,1,"杰出","e","",NA,NA,NA,NA,NA,NA,"",NA,"",NA,NA,NA,NA,NA,NA,NA,"",NA,"",NA,NA,NA,NA,NA,NA,NA,"","","",NA,"",NA,NA,NA,NA,NA,NA,NA,"",NA,"12"
"",NA,"",NA,"",NA,NA,NA,NA,NA,NA,NA,"","",1,1,"2024-08-23_17h27.05.449","IAT(Formal)","2021.2.3","Win32",178.5714286,"",NA,"",NA,NA,NA,NA,NA,NA,NA,"","","",NA,"i",1,0.5313,0,53,53,67,1,"他的","i","",NA,NA,NA,NA,NA,NA,"",NA,"",NA,NA,NA,NA,NA,NA,NA,"",NA,"",NA,NA,NA,NA,NA,NA,NA,"","","",NA,"",NA,NA,NA,NA,NA,NA,NA,"",NA,"12"
"",NA,"",NA,"",NA,NA,NA,NA,NA,NA,NA,"","",1,1,"2024-08-23_17h27.05.449","IAT(Formal)","2021.2.3","Win32",178.5714286,"",NA,"",NA,NA,NA,NA,NA,NA,NA,"","","",NA,"i",1,0.517,0,54,54,59,1,"其他","i","",NA,NA,NA,NA,NA,NA,"",NA,"",NA,NA,NA,NA,NA,NA,NA,"",NA,"",NA,NA,NA,NA,NA,NA,NA,"","","",NA,"",NA,NA,NA,NA,NA,NA,NA,"",NA,"12"
"",NA,"",NA,"",NA,NA,NA,NA,NA,NA,NA,"","",1,1,"2024-08-23_17h27.05.449","IAT(Formal)","2021.2.3","Win32",178.5714286,"",NA,"",NA,NA,NA,NA,NA,NA,NA,"","","",NA,"e",1,0.4772,0,55,55,74,1,"俺","e","",NA,NA,NA,NA,NA,NA,"",NA,"",NA,NA,NA,NA,NA,NA,NA,"",NA,"",NA,NA,NA,NA,NA,NA,NA,"","","",NA,"",NA,NA,NA,NA,NA,NA,NA,"",NA,"12"
"",NA,"",NA,"",NA,NA,NA,NA,NA,NA,NA,"","",1,1,"2024-08-23_17h27.05.449","IAT(Formal)","2021.2.3","Win32",178.5714286,"",NA,"",NA,NA,NA,NA,NA,NA,NA,"","","",NA,"i",1,0.6798,0,56,56,78,1,"他人","i","",NA,NA,NA,NA,NA,NA,"",NA,"",NA,NA,NA,NA,NA,NA,NA,"",NA,"",NA,NA,NA,NA,NA,NA,NA,"","","",NA,"",NA,NA,NA,NA,NA,NA,NA,"",NA,"12"
"",NA,"",NA,"",NA,NA,NA,NA,NA,NA,NA,"","",1,1,"2024-08-23_17h27.05.449","IAT(Formal)","2021.2.3","Win32",178.5714286,"",NA,"",NA,NA,NA,NA,NA,NA,NA,"","","",NA,"i",1,0.6065,0,57,57,37,1,"傲慢","i","",NA,NA,NA,NA,NA,NA,"",NA,"",NA,NA,NA,NA,NA,NA,NA,"",NA,"",NA,NA,NA,NA,NA,NA,NA,"","","",NA,"",NA,NA,NA,NA,NA,NA,NA,"",NA,"12"
"",NA,"",NA,"",NA,NA,NA,NA,NA,NA,NA,"","",1,1,"2024-08-23_17h27.05.449","IAT(Formal)","2021.2.3","Win32",178.5714286,"",NA,"",NA,NA,NA,NA,NA,NA,NA,"","","",NA,"i",1,0.581,0,58,58,58,1,"他人","i","",NA,NA,NA,NA,NA,NA,"",NA,"",NA,NA,NA,NA,NA,NA,NA,"",NA,"",NA,NA,NA,NA,NA,NA,NA,"","","",NA,"",NA,NA,NA,NA,NA,NA,NA,"",NA,"12"
"",NA,"",NA,"",NA,NA,NA,NA,NA,NA,NA,"","",1,1,"2024-08-23_17h27.05.449","IAT(Formal)","2021.2.3","Win32",178.5714286,"",NA,"",NA,NA,NA,NA,NA,NA,NA,"","","",NA,"e",1,0.4818,0,59,59,2,1,"我们","e","",NA,NA,NA,NA,NA,NA,"",NA,"",NA,NA,NA,NA,NA,NA,NA,"",NA,"",NA,NA,NA,NA,NA,NA,NA,"","","",NA,"",NA,NA,NA,NA,NA,NA,NA,"",NA,"12"
"",NA,"",NA,"",NA,NA,NA,NA,NA,NA,NA,"","",1,1,"2024-08-23_17h27.05.449","IAT(Formal)","2021.2.3","Win32",178.5714286,"",NA,"",NA,NA,NA,NA,NA,NA,NA,"","","",NA,"e",1,0.4952,0,60,60,0,1,"我","e","",NA,NA,NA,NA,NA,NA,"",NA,"",NA,NA,NA,NA,NA,NA,NA,"",NA,"",NA,NA,NA,NA,NA,NA,NA,"","","",NA,"",NA,NA,NA,NA,NA,NA,NA,"",NA,"12"
"",NA,"",NA,"",NA,NA,NA,NA,NA,NA,NA,"","",1,1,"2024-08-23_17h27.05.449","IAT(Formal)","2021.2.3","Win32",178.5714286,"",NA,"",NA,NA,NA,NA,NA,NA,NA,"","","",NA,"e",1,0.5559,0,61,61,19,1,"机智","e","",NA,NA,NA,NA,NA,NA,"",NA,"",NA,NA,NA,NA,NA,NA,NA,"",NA,"",NA,NA,NA,NA,NA,NA,NA,"","","",NA,"",NA,NA,NA,NA,NA,NA,NA,"",NA,"12"
"",NA,"",NA,"",NA,NA,NA,NA,NA,NA,NA,"","",1,1,"2024-08-23_17h27.05.449","IAT(Formal)","2021.2.3","Win32",178.5714286,"",NA,"",NA,NA,NA,NA,NA,NA,NA,"","","",NA,"e",1,0.5828,0,62,62,29,1,"诚恳","e","",NA,NA,NA,NA,NA,NA,"",NA,"",NA,NA,NA,NA,NA,NA,NA,"",NA,"",NA,NA,NA,NA,NA,NA,NA,"","","",NA,"",NA,NA,NA,NA,NA,NA,NA,"",NA,"12"
"",NA,"",NA,"",NA,NA,NA,NA,NA,NA,NA,"","",1,1,"2024-08-23_17h27.05.449","IAT(Formal)","2021.2.3","Win32",178.5714286,"",NA,"",NA,NA,NA,NA,NA,NA,NA,"","","",NA,"i",1,0.7871,0,63,63,8,1,"他人","i","",NA,NA,NA,NA,NA,NA,"",NA,"",NA,NA,NA,NA,NA,NA,NA,"",NA,"",NA,NA,NA,NA,NA,NA,NA,"","","",NA,"",NA,NA,NA,NA,NA,NA,NA,"",NA,"12"
"",NA,"",NA,"",NA,NA,NA,NA,NA,NA,NA,"","",1,1,"2024-08-23_17h27.05.449","IAT(Formal)","2021.2.3","Win32",178.5714286,"",NA,"",NA,NA,NA,NA,NA,NA,NA,"","","",NA,"e",0,0.4732,0,64,64,5,1,"他","i","",NA,NA,NA,NA,NA,NA,"",NA,"",NA,NA,NA,NA,NA,NA,NA,"",NA,"",NA,NA,NA,NA,NA,NA,NA,"","","",NA,"",NA,NA,NA,NA,NA,NA,NA,"",NA,"12"
"",NA,"",NA,"",NA,NA,NA,NA,NA,NA,NA,"","",1,1,"2024-08-23_17h27.05.449","IAT(Formal)","2021.2.3","Win32",178.5714286,"",NA,"",NA,NA,NA,NA,NA,NA,NA,"","","",NA,"e",1,0.5369,0,65,65,12,1,"聪明","e","",NA,NA,NA,NA,NA,NA,"",NA,"",NA,NA,NA,NA,NA,NA,NA,"",NA,"",NA,NA,NA,NA,NA,NA,NA,"","","",NA,"",NA,NA,NA,NA,NA,NA,NA,"",NA,"12"
"",NA,"",NA,"",NA,NA,NA,NA,NA,NA,NA,"","",1,1,"2024-08-23_17h27.05.449","IAT(Formal)","2021.2.3","Win32",178.5714286,"",NA,"",NA,NA,NA,NA,NA,NA,NA,"","","",NA,"e",1,0.4867,0,66,66,1,1,"我的","e","",NA,NA,NA,NA,NA,NA,"",NA,"",NA,NA,NA,NA,NA,NA,NA,"",NA,"",NA,NA,NA,NA,NA,NA,NA,"","","",NA,"",NA,NA,NA,NA,NA,NA,NA,"",NA,"12"
"",NA,"",NA,"",NA,NA,NA,NA,NA,NA,NA,"","",1,1,"2024-08-23_17h27.05.449","IAT(Formal)","2021.2.3","Win32",178.5714286,"",NA,"",NA,NA,NA,NA,NA,NA,NA,"","","",NA,"i",1,0.5145,0,67,67,41,1,"散漫","i","",NA,NA,NA,NA,NA,NA,"",NA,"",NA,NA,NA,NA,NA,NA,NA,"",NA,"",NA,NA,NA,NA,NA,NA,NA,"","","",NA,"",NA,NA,NA,NA,NA,NA,NA,"",NA,"12"
"",NA,"",NA,"",NA,NA,NA,NA,NA,NA,NA,"","",1,1,"2024-08-23_17h27.05.449","IAT(Formal)","2021.2.3","Win32",178.5714286,"",NA,"",NA,NA,NA,NA,NA,NA,NA,"","","",NA,"e",1,0.508,0,68,68,70,1,"我","e","",NA,NA,NA,NA,NA,NA,"",NA,"",NA,NA,NA,NA,NA,NA,NA,"",NA,"",NA,NA,NA,NA,NA,NA,NA,"","","",NA,"",NA,NA,NA,NA,NA,NA,NA,"",NA,"12"
"",NA,"",NA,"",NA,NA,NA,NA,NA,NA,NA,"","",1,1,"2024-08-23_17h27.05.449","IAT(Formal)","2021.2.3","Win32",178.5714286,"",NA,"",NA,NA,NA,NA,NA,NA,NA,"","","",NA,"i",1,0.6775,0,69,69,6,1,"他们","i","",NA,NA,NA,NA,NA,NA,"",NA,"",NA,NA,NA,NA,NA,NA,NA,"",NA,"",NA,NA,NA,NA,NA,NA,NA,"","","",NA,"",NA,NA,NA,NA,NA,NA,NA,"",NA,"12"
"",NA,"",NA,"",NA,NA,NA,NA,NA,NA,NA,"","",1,1,"2024-08-23_17h27.05.449","IAT(Formal)","2021.2.3","Win32",178.5714286,"",NA,"",NA,NA,NA,NA,NA,NA,NA,"","","",NA,"i",1,0.5873,0,70,70,39,1,"冒失","i","",NA,NA,NA,NA,NA,NA,"",NA,"",NA,NA,NA,NA,NA,NA,NA,"",NA,"",NA,NA,NA,NA,NA,NA,NA,"","","",NA,"",NA,NA,NA,NA,NA,NA,NA,"",NA,"12"
"",NA,"",NA,"",NA,NA,NA,NA,NA,NA,NA,"","",1,1,"2024-08-23_17h27.05.449","IAT(Formal)","2021.2.3","Win32",178.5714286,"",NA,"",NA,NA,NA,NA,NA,NA,NA,"","","",NA,"e",1,0.5778,0,71,71,71,1,"我的","e","",NA,NA,NA,NA,NA,NA,"",NA,"",NA,NA,NA,NA,NA,NA,NA,"",NA,"",NA,NA,NA,NA,NA,NA,NA,"","","",NA,"",NA,NA,NA,NA,NA,NA,NA,"",NA,"12"
"",NA,"",NA,"",NA,NA,NA,NA,NA,NA,NA,"","",1,1,"2024-08-23_17h27.05.449","IAT(Formal)","2021.2.3","Win32",178.5714286,"",NA,"",NA,NA,NA,NA,NA,NA,NA,"","","",NA,"i",1,0.6309,0,72,72,48,1,"轻率","i","",NA,NA,NA,NA,NA,NA,"",NA,"",NA,NA,NA,NA,NA,NA,NA,"",NA,"",NA,NA,NA,NA,NA,NA,NA,"","","",NA,"",NA,NA,NA,NA,NA,NA,NA,"",NA,"12"
"",NA,"",NA,"",NA,NA,NA,NA,NA,NA,NA,"","",1,1,"2024-08-23_17h27.05.449","IAT(Formal)","2021.2.3","Win32",178.5714286,"",NA,"",NA,NA,NA,NA,NA,NA,NA,"","","",NA,"e",1,0.5147,0,73,73,24,1,"朴实","e","",NA,NA,NA,NA,NA,NA,"",NA,"",NA,NA,NA,NA,NA,NA,NA,"",NA,"",NA,NA,NA,NA,NA,NA,NA,"","","",NA,"",NA,NA,NA,NA,NA,NA,NA,"",NA,"12"
"",NA,"",NA,"",NA,NA,NA,NA,NA,NA,NA,"","",1,1,"2024-08-23_17h27.05.449","IAT(Formal)","2021.2.3","Win32",178.5714286,"",NA,"",NA,NA,NA,NA,NA,NA,NA,"","","",NA,"i",1,0.4811,0,74,74,36,1,"自卑","i","",NA,NA,NA,NA,NA,NA,"",NA,"",NA,NA,NA,NA,NA,NA,NA,"",NA,"",NA,NA,NA,NA,NA,NA,NA,"","","",NA,"",NA,NA,NA,NA,NA,NA,NA,"",NA,"12"
"",NA,"",NA,"",NA,NA,NA,NA,NA,NA,NA,"","",1,1,"2024-08-23_17h27.05.449","IAT(Formal)","2021.2.3","Win32",178.5714286,"",NA,"",NA,NA,NA,NA,NA,NA,NA,"","","",NA,"e",1,0.7581,0,75,75,20,1,"认真","e","",NA,NA,NA,NA,NA,NA,"",NA,"",NA,NA,NA,NA,NA,NA,NA,"",NA,"",NA,NA,NA,NA,NA,NA,NA,"","","",NA,"",NA,NA,NA,NA,NA,NA,NA,"",NA,"12"
"",NA,"",NA,"",NA,NA,NA,NA,NA,NA,NA,"","",1,1,"2024-08-23_17h27.05.449","IAT(Formal)","2021.2.3","Win32",178.5714286,"",NA,"",NA,NA,NA,NA,NA,NA,NA,"","","",NA,"i",0,0.561,0,76,76,63,1,"自己","e","",NA,NA,NA,NA,NA,NA,"",NA,"",NA,NA,NA,NA,NA,NA,NA,"",NA,"",NA,NA,NA,NA,NA,NA,NA,"","","",NA,"",NA,NA,NA,NA,NA,NA,NA,"",NA,"12"
"",NA,"",NA,"",NA,NA,NA,NA,NA,NA,NA,"","",1,1,"2024-08-23_17h27.05.449","IAT(Formal)","2021.2.3","Win32",178.5714286,"",NA,"",NA,NA,NA,NA,NA,NA,NA,"","","",NA,"e",1,0.4923,0,77,77,15,1,"诚实","e","",NA,NA,NA,NA,NA,NA,"",NA,"",NA,NA,NA,NA,NA,NA,NA,"",NA,"",NA,NA,NA,NA,NA,NA,NA,"","","",NA,"",NA,NA,NA,NA,NA,NA,NA,"",NA,"12"
"",NA,"",NA,"",NA,NA,NA,NA,NA,NA,NA,"","",1,1,"2024-08-23_17h27.05.449","IAT(Formal)","2021.2.3","Win32",178.5714286,"",NA,"",NA,NA,NA,NA,NA,NA,NA,"","","",NA,"e",1,0.4321,0,78,78,23,1,"公正","e","",NA,NA,NA,NA,NA,NA,"",NA,"",NA,NA,NA,NA,NA,NA,NA,"",NA,"",NA,NA,NA,NA,NA,NA,NA,"","","",NA,"",NA,NA,NA,NA,NA,NA,NA,"",NA,"12"
"",NA,"",NA,"",NA,NA,NA,NA,NA,NA,NA,"","",1,1,"2024-08-23_17h27.05.449","IAT(Formal)","2021.2.3","Win32",178.5714286,"",NA,"",NA,NA,NA,NA,NA,NA,NA,"","","",NA,"e",1,0.4799,0,79,79,72,1,"我们","e","",NA,NA,NA,NA,NA,NA,"",NA,"",NA,NA,NA,NA,NA,NA,NA,"",NA,"",NA,NA,NA,NA,NA,NA,NA,"","","",NA,"",NA,NA,NA,NA,NA,NA,NA,"",NA,"12"
"",NA,"",NA,"",NA,NA,NA,NA,NA,NA,NA,"","",1,1,"2024-08-23_17h27.05.449","IAT(Formal)","2021.2.3","Win32",178.5714286,"",NA,"",NA,NA,NA,NA,NA,NA,NA,"","","",NA,"e",1,0.4407,NA,NA,NA,NA,NA,"机智","e","space",175.2316,0,0,0,19,1,"",NA,"",NA,NA,NA,NA,NA,NA,NA,"",NA,"",NA,NA,NA,NA,NA,NA,NA,"","","",NA,"",NA,NA,NA,NA,NA,NA,NA,"",NA,"12"
"",NA,"",NA,"",NA,NA,NA,NA,NA,NA,NA,"","",1,1,"2024-08-23_17h27.05.449","IAT(Formal)","2021.2.3","Win32",178.5714286,"",NA,"",NA,NA,NA,NA,NA,NA,NA,"","","",NA,"i",1,0.4493,NA,NA,NA,NA,NA,"他人","i","",NA,0,1,1,58,1,"",NA,"",NA,NA,NA,NA,NA,NA,NA,"",NA,"",NA,NA,NA,NA,NA,NA,NA,"","","",NA,"",NA,NA,NA,NA,NA,NA,NA,"",NA,"12"
"",NA,"",NA,"",NA,NA,NA,NA,NA,NA,NA,"","",1,1,"2024-08-23_17h27.05.449","IAT(Formal)","2021.2.3","Win32",178.5714286,"",NA,"",NA,NA,NA,NA,NA,NA,NA,"","","",NA,"e",1,0.4989,NA,NA,NA,NA,NA,"杰出","e","",NA,0,2,2,13,1,"",NA,"",NA,NA,NA,NA,NA,NA,NA,"",NA,"",NA,NA,NA,NA,NA,NA,NA,"","","",NA,"",NA,NA,NA,NA,NA,NA,NA,"",NA,"12"
"",NA,"",NA,"",NA,NA,NA,NA,NA,NA,NA,"","",1,1,"2024-08-23_17h27.05.449","IAT(Formal)","2021.2.3","Win32",178.5714286,"",NA,"",NA,NA,NA,NA,NA,NA,NA,"","","",NA,"i",1,0.5823,NA,NA,NA,NA,NA,"野蛮","i","",NA,0,3,3,46,1,"",NA,"",NA,NA,NA,NA,NA,NA,NA,"",NA,"",NA,NA,NA,NA,NA,NA,NA,"","","",NA,"",NA,NA,NA,NA,NA,NA,NA,"",NA,"12"
"",NA,"",NA,"",NA,NA,NA,NA,NA,NA,NA,"","",1,1,"2024-08-23_17h27.05.449","IAT(Formal)","2021.2.3","Win32",178.5714286,"",NA,"",NA,NA,NA,NA,NA,NA,NA,"","","",NA,"e",1,0.4042,NA,NA,NA,NA,NA,"我的","e","",NA,0,4,4,1,1,"",NA,"",NA,NA,NA,NA,NA,NA,NA,"",NA,"",NA,NA,NA,NA,NA,NA,NA,"","","",NA,"",NA,NA,NA,NA,NA,NA,NA,"",NA,"12"
"",NA,"",NA,"",NA,NA,NA,NA,NA,NA,NA,"","",1,1,"2024-08-23_17h27.05.449","IAT(Formal)","2021.2.3","Win32",178.5714286,"",NA,"",NA,NA,NA,NA,NA,NA,NA,"","","",NA,"e",1,0.4954,NA,NA,NA,NA,NA,"活泼","e","",NA,0,5,5,28,1,"",NA,"",NA,NA,NA,NA,NA,NA,NA,"",NA,"",NA,NA,NA,NA,NA,NA,NA,"","","",NA,"",NA,NA,NA,NA,NA,NA,NA,"",NA,"12"
"",NA,"",NA,"",NA,NA,NA,NA,NA,NA,NA,"","",1,1,"2024-08-23_17h27.05.449","IAT(Formal)","2021.2.3","Win32",178.5714286,"",NA,"",NA,NA,NA,NA,NA,NA,NA,"","","",NA,"i",1,0.4888,NA,NA,NA,NA,NA,"他的","i","",NA,0,6,6,57,1,"",NA,"",NA,NA,NA,NA,NA,NA,NA,"",NA,"",NA,NA,NA,NA,NA,NA,NA,"","","",NA,"",NA,NA,NA,NA,NA,NA,NA,"",NA,"12"
"",NA,"",NA,"",NA,NA,NA,NA,NA,NA,NA,"","",1,1,"2024-08-23_17h27.05.449","IAT(Formal)","2021.2.3","Win32",178.5714286,"",NA,"",NA,NA,NA,NA,NA,NA,NA,"","","",NA,"e",1,0.3928,NA,NA,NA,NA,NA,"优秀","e","",NA,0,7,7,10,1,"",NA,"",NA,NA,NA,NA,NA,NA,NA,"",NA,"",NA,NA,NA,NA,NA,NA,NA,"","","",NA,"",NA,NA,NA,NA,NA,NA,NA,"",NA,"12"
"",NA,"",NA,"",NA,NA,NA,NA,NA,NA,NA,"","",1,1,"2024-08-23_17h27.05.449","IAT(Formal)","2021.2.3","Win32",178.5714286,"",NA,"",NA,NA,NA,NA,NA,NA,NA,"","","",NA,"e",1,0.4364,NA,NA,NA,NA,NA,"俺","e","",NA,0,8,8,74,1,"",NA,"",NA,NA,NA,NA,NA,NA,NA,"",NA,"",NA,NA,NA,NA,NA,NA,NA,"","","",NA,"",NA,NA,NA,NA,NA,NA,NA,"",NA,"12"
"",NA,"",NA,"",NA,NA,NA,NA,NA,NA,NA,"","",1,1,"2024-08-23_17h27.05.449","IAT(Formal)","2021.2.3","Win32",178.5714286,"",NA,"",NA,NA,NA,NA,NA,NA,NA,"","","",NA,"e",1,0.3476,NA,NA,NA,NA,NA,"我们","e","",NA,0,9,9,62,1,"",NA,"",NA,NA,NA,NA,NA,NA,NA,"",NA,"",NA,NA,NA,NA,NA,NA,NA,"","","",NA,"",NA,NA,NA,NA,NA,NA,NA,"",NA,"12"
"",NA,"",NA,"",NA,NA,NA,NA,NA,NA,NA,"","",1,1,"2024-08-23_17h27.05.449","IAT(Formal)","2021.2.3","Win32",178.5714286,"",NA,"",NA,NA,NA,NA,NA,NA,NA,"","","",NA,"e",1,0.4142,NA,NA,NA,NA,NA,"聪明","e","",NA,0,10,10,12,1,"",NA,"",NA,NA,NA,NA,NA,NA,NA,"",NA,"",NA,NA,NA,NA,NA,NA,NA,"","","",NA,"",NA,NA,NA,NA,NA,NA,NA,"",NA,"12"
"",NA,"",NA,"",NA,NA,NA,NA,NA,NA,NA,"","",1,1,"2024-08-23_17h27.05.449","IAT(Formal)","2021.2.3","Win32",178.5714286,"",NA,"",NA,NA,NA,NA,NA,NA,NA,"","","",NA,"e",0,0.4317,NA,NA,NA,NA,NA,"他们","i","",NA,0,11,11,76,1,"",NA,"",NA,NA,NA,NA,NA,NA,NA,"",NA,"",NA,NA,NA,NA,NA,NA,NA,"","","",NA,"",NA,NA,NA,NA,NA,NA,NA,"",NA,"12"
"",NA,"",NA,"",NA,NA,NA,NA,NA,NA,NA,"","",1,1,"2024-08-23_17h27.05.449","IAT(Formal)","2021.2.3","Win32",178.5714286,"",NA,"",NA,NA,NA,NA,NA,NA,NA,"","","",NA,"e",1,0.4473,NA,NA,NA,NA,NA,"公正","e","",NA,0,12,12,23,1,"",NA,"",NA,NA,NA,NA,NA,NA,NA,"",NA,"",NA,NA,NA,NA,NA,NA,NA,"","","",NA,"",NA,NA,NA,NA,NA,NA,NA,"",NA,"12"
"",NA,"",NA,"",NA,NA,NA,NA,NA,NA,NA,"","",1,1,"2024-08-23_17h27.05.449","IAT(Formal)","2021.2.3","Win32",178.5714286,"",NA,"",NA,NA,NA,NA,NA,NA,NA,"","","",NA,"e",1,0.4744,NA,NA,NA,NA,NA,"自己","e","",NA,0,13,13,53,1,"",NA,"",NA,NA,NA,NA,NA,NA,NA,"",NA,"",NA,NA,NA,NA,NA,NA,NA,"","","",NA,"",NA,NA,NA,NA,NA,NA,NA,"",NA,"12"
"",NA,"",NA,"",NA,NA,NA,NA,NA,NA,NA,"","",1,1,"2024-08-23_17h27.05.449","IAT(Formal)","2021.2.3","Win32",178.5714286,"",NA,"",NA,NA,NA,NA,NA,NA,NA,"","","",NA,"i",1,0.4423,NA,NA,NA,NA,NA,"下贱","i","",NA,0,14,14,49,1,"",NA,"",NA,NA,NA,NA,NA,NA,NA,"",NA,"",NA,NA,NA,NA,NA,NA,NA,"","","",NA,"",NA,NA,NA,NA,NA,NA,NA,"",NA,"12"
"",NA,"",NA,"",NA,NA,NA,NA,NA,NA,NA,"","",1,1,"2024-08-23_17h27.05.449","IAT(Formal)","2021.2.3","Win32",178.5714286,"",NA,"",NA,NA,NA,NA,NA,NA,NA,"","","",NA,"e",1,0.4598,NA,NA,NA,NA,NA,"俺","e","",NA,0,15,15,64,1,"",NA,"",NA,NA,NA,NA,NA,NA,NA,"",NA,"",NA,NA,NA,NA,NA,NA,NA,"","","",NA,"",NA,NA,NA,NA,NA,NA,NA,"",NA,"12"
"",NA,"",NA,"",NA,NA,NA,NA,NA,NA,NA,"","",1,1,"2024-08-23_17h27.05.449","IAT(Formal)","2021.2.3","Win32",178.5714286,"",NA,"",NA,NA,NA,NA,NA,NA,NA,"","","",NA,"e",1,0.4153,NA,NA,NA,NA,NA,"崇高","e","",NA,0,16,16,11,1,"",NA,"",NA,NA,NA,NA,NA,NA,NA,"",NA,"",NA,NA,NA,NA,NA,NA,NA,"","","",NA,"",NA,NA,NA,NA,NA,NA,NA,"",NA,"12"
"",NA,"",NA,"",NA,NA,NA,NA,NA,NA,NA,"","",1,1,"2024-08-23_17h27.05.449","IAT(Formal)","2021.2.3","Win32",178.5714286,"",NA,"",NA,NA,NA,NA,NA,NA,NA,"","","",NA,"e",1,0.4257,NA,NA,NA,NA,NA,"勇敢","e","",NA,0,17,17,17,1,"",NA,"",NA,NA,NA,NA,NA,NA,NA,"",NA,"",NA,NA,NA,NA,NA,NA,NA,"","","",NA,"",NA,NA,NA,NA,NA,NA,NA,"",NA,"12"
"",NA,"",NA,"",NA,NA,NA,NA,NA,NA,NA,"","",1,1,"2024-08-23_17h27.05.449","IAT(Formal)","2021.2.3","Win32",178.5714286,"",NA,"",NA,NA,NA,NA,NA,NA,NA,"","","",NA,"e",0,0.3292,NA,NA,NA,NA,NA,"其他","i","",NA,0,18,18,69,1,"",NA,"",NA,NA,NA,NA,NA,NA,NA,"",NA,"",NA,NA,NA,NA,NA,NA,NA,"","","",NA,"",NA,NA,NA,NA,NA,NA,NA,"",NA,"12"
"",NA,"",NA,"",NA,NA,NA,NA,NA,NA,NA,"","",1,1,"2024-08-23_17h27.05.449","IAT(Formal)","2021.2.3","Win32",178.5714286,"",NA,"",NA,NA,NA,NA,NA,NA,NA,"","","",NA,"i",1,0.5425,NA,NA,NA,NA,NA,"冒失","i","",NA,0,19,19,39,1,"",NA,"",NA,NA,NA,NA,NA,NA,NA,"",NA,"",NA,NA,NA,NA,NA,NA,NA,"","","",NA,"",NA,NA,NA,NA,NA,NA,NA,"",NA,"12"
"",NA,"",NA,"",NA,NA,NA,NA,NA,NA,NA,"","",1,1,"2024-08-23_17h27.05.449","IAT(Formal)","2021.2.3","Win32",178.5714286,"",NA,"",NA,NA,NA,NA,NA,NA,NA,"","","",NA,"i",1,0.5886,NA,NA,NA,NA,NA,"他","i","",NA,0,20,20,65,1,"",NA,"",NA,NA,NA,NA,NA,NA,NA,"",NA,"",NA,NA,NA,NA,NA,NA,NA,"","","",NA,"",NA,NA,NA,NA,NA,NA,NA,"",NA,"12"
"",NA,"",NA,"",NA,NA,NA,NA,NA,NA,NA,"","",1,1,"2024-08-23_17h27.05.449","IAT(Formal)","2021.2.3","Win32",178.5714286,"",NA,"",NA,NA,NA,NA,NA,NA,NA,"","","",NA,"i",1,0.6243,NA,NA,NA,NA,NA,"执拗","i","",NA,0,21,21,40,1,"",NA,"",NA,NA,NA,NA,NA,NA,NA,"",NA,"",NA,NA,NA,NA,NA,NA,NA,"","","",NA,"",NA,NA,NA,NA,NA,NA,NA,"",NA,"12"
"",NA,"",NA,"",NA,NA,NA,NA,NA,NA,NA,"","",1,1,"2024-08-23_17h27.05.449","IAT(Formal)","2021.2.3","Win32",178.5714286,"",NA,"",NA,NA,NA,NA,NA,NA,NA,"","","",NA,"i",1,0.5155,NA,NA,NA,NA,NA,"他","i","",NA,0,22,22,75,1,"",NA,"",NA,NA,NA,NA,NA,NA,NA,"",NA,"",NA,NA,NA,NA,NA,NA,NA,"","","",NA,"",NA,NA,NA,NA,NA,NA,NA,"",NA,"12"
"",NA,"",NA,"",NA,NA,NA,NA,NA,NA,NA,"","",1,1,"2024-08-23_17h27.05.449","IAT(Formal)","2021.2.3","Win32",178.5714286,"",NA,"",NA,NA,NA,NA,NA,NA,NA,"","","",NA,"e",1,0.4868,NA,NA,NA,NA,NA,"我的","e","",NA,0,23,23,51,1,"",NA,"",NA,NA,NA,NA,NA,NA,NA,"",NA,"",NA,NA,NA,NA,NA,NA,NA,"","","",NA,"",NA,NA,NA,NA,NA,NA,NA,"",NA,"12"
"",NA,"",NA,"",NA,NA,NA,NA,NA,NA,NA,"","",1,1,"2024-08-23_17h27.05.449","IAT(Formal)","2021.2.3","Win32",178.5714286,"",NA,"",NA,NA,NA,NA,NA,NA,NA,"","","",NA,"i",1,0.4554,NA,NA,NA,NA,NA,"他的","i","",NA,0,24,24,77,1,"",NA,"",NA,NA,NA,NA,NA,NA,NA,"",NA,"",NA,NA,NA,NA,NA,NA,NA,"","","",NA,"",NA,NA,NA,NA,NA,NA,NA,"",NA,"12"
"",NA,"",NA,"",NA,NA,NA,NA,NA,NA,NA,"","",1,1,"2024-08-23_17h27.05.449","IAT(Formal)","2021.2.3","Win32",178.5714286,"",NA,"",NA,NA,NA,NA,NA,NA,NA,"","","",NA,"i",1,0.5372,NA,NA,NA,NA,NA,"固执","i","",NA,0,25,25,47,1,"",NA,"",NA,NA,NA,NA,NA,NA,NA,"",NA,"",NA,NA,NA,NA,NA,NA,NA,"","","",NA,"",NA,NA,NA,NA,NA,NA,NA,"",NA,"12"
"",NA,"",NA,"",NA,NA,NA,NA,NA,NA,NA,"","",1,1,"2024-08-23_17h27.05.449","IAT(Formal)","2021.2.3","Win32",178.5714286,"",NA,"",NA,NA,NA,NA,NA,NA,NA,"","","",NA,"i",0,0.8007,NA,NA,NA,NA,NA,"稳重","e","",NA,0,26,26,21,1,"",NA,"",NA,NA,NA,NA,NA,NA,NA,"",NA,"",NA,NA,NA,NA,NA,NA,NA,"","","",NA,"",NA,NA,NA,NA,NA,NA,NA,"",NA,"12"
"",NA,"",NA,"",NA,NA,NA,NA,NA,NA,NA,"","",1,1,"2024-08-23_17h27.05.449","IAT(Formal)","2021.2.3","Win32",178.5714286,"",NA,"",NA,NA,NA,NA,NA,NA,NA,"","","",NA,"e",1,0.505,NA,NA,NA,NA,NA,"热情","e","",NA,0,27,27,27,1,"",NA,"",NA,NA,NA,NA,NA,NA,NA,"",NA,"",NA,NA,NA,NA,NA,NA,NA,"","","",NA,"",NA,NA,NA,NA,NA,NA,NA,"",NA,"12"
"",NA,"",NA,"",NA,NA,NA,NA,NA,NA,NA,"","",1,1,"2024-08-23_17h27.05.449","IAT(Formal)","2021.2.3","Win32",178.5714286,"",NA,"",NA,NA,NA,NA,NA,NA,NA,"","","",NA,"i",1,0.5408,NA,NA,NA,NA,NA,"消极","i","",NA,0,28,28,35,1,"",NA,"",NA,NA,NA,NA,NA,NA,NA,"",NA,"",NA,NA,NA,NA,NA,NA,NA,"","","",NA,"",NA,NA,NA,NA,NA,NA,NA,"",NA,"12"
"",NA,"",NA,"",NA,NA,NA,NA,NA,NA,NA,"","",1,1,"2024-08-23_17h27.05.449","IAT(Formal)","2021.2.3","Win32",178.5714286,"",NA,"",NA,NA,NA,NA,NA,NA,NA,"","","",NA,"e",1,0.551,NA,NA,NA,NA,NA,"我们","e","",NA,0,29,29,52,1,"",NA,"",NA,NA,NA,NA,NA,NA,NA,"",NA,"",NA,NA,NA,NA,NA,NA,NA,"","","",NA,"",NA,NA,NA,NA,NA,NA,NA,"",NA,"12"
"",NA,"",NA,"",NA,NA,NA,NA,NA,NA,NA,"","",1,1,"2024-08-23_17h27.05.449","IAT(Formal)","2021.2.3","Win32",178.5714286,"",NA,"",NA,NA,NA,NA,NA,NA,NA,"","","",NA,"",0,NA,NA,NA,NA,NA,NA,"诚恳","e","",NA,0,30,30,29,1,"",NA,"",NA,NA,NA,NA,NA,NA,NA,"",NA,"",NA,NA,NA,NA,NA,NA,NA,"","","",NA,"",NA,NA,NA,NA,NA,NA,NA,"",NA,"12"
"",NA,"",NA,"",NA,NA,NA,NA,NA,NA,NA,"","",1,1,"2024-08-23_17h27.05.449","IAT(Formal)","2021.2.3","Win32",178.5714286,"",NA,"",NA,NA,NA,NA,NA,NA,NA,"","","",NA,"",0,NA,NA,NA,NA,NA,NA,"卑鄙","i","",NA,0,31,31,30,1,"",NA,"",NA,NA,NA,NA,NA,NA,NA,"",NA,"",NA,NA,NA,NA,NA,NA,NA,"","","",NA,"",NA,NA,NA,NA,NA,NA,NA,"",NA,"12"
"",NA,"",NA,"",NA,NA,NA,NA,NA,NA,NA,"","",1,1,"2024-08-23_17h27.05.449","IAT(Formal)","2021.2.3","Win32",178.5714286,"",NA,"",NA,NA,NA,NA,NA,NA,NA,"","","",NA,"e",1,0.4935,NA,NA,NA,NA,NA,"我的","e","",NA,0,32,32,61,1,"",NA,"",NA,NA,NA,NA,NA,NA,NA,"",NA,"",NA,NA,NA,NA,NA,NA,NA,"","","",NA,"",NA,NA,NA,NA,NA,NA,NA,"",NA,"12"
"",NA,"",NA,"",NA,NA,NA,NA,NA,NA,NA,"","",1,1,"2024-08-23_17h27.05.449","IAT(Formal)","2021.2.3","Win32",178.5714286,"",NA,"",NA,NA,NA,NA,NA,NA,NA,"","","",NA,"i",1,1.0169,NA,NA,NA,NA,NA,"他的","i","",NA,0,33,33,67,1,"",NA,"",NA,NA,NA,NA,NA,NA,NA,"",NA,"",NA,NA,NA,NA,NA,NA,NA,"","","",NA,"",NA,NA,NA,NA,NA,NA,NA,"",NA,"12"
"",NA,"",NA,"",NA,NA,NA,NA,NA,NA,NA,"","",1,1,"2024-08-23_17h27.05.449","IAT(Formal)","2021.2.3","Win32",178.5714286,"",NA,"",NA,NA,NA,NA,NA,NA,NA,"","","",NA,"i",1,0.7554,NA,NA,NA,NA,NA,"他的","i","",NA,0,34,34,7,1,"",NA,"",NA,NA,NA,NA,NA,NA,NA,"",NA,"",NA,NA,NA,NA,NA,NA,NA,"","","",NA,"",NA,NA,NA,NA,NA,NA,NA,"",NA,"12"
"",NA,"",NA,"",NA,NA,NA,NA,NA,NA,NA,"","",1,1,"2024-08-23_17h27.05.449","IAT(Formal)","2021.2.3","Win32",178.5714286,"",NA,"",NA,NA,NA,NA,NA,NA,NA,"","","",NA,"i",1,0.7205,NA,NA,NA,NA,NA,"凶狠","i","",NA,0,35,35,42,1,"",NA,"",NA,NA,NA,NA,NA,NA,NA,"",NA,"",NA,NA,NA,NA,NA,NA,NA,"","","",NA,"",NA,NA,NA,NA,NA,NA,NA,"",NA,"12"
"",NA,"",NA,"",NA,NA,NA,NA,NA,NA,NA,"","",1,1,"2024-08-23_17h27.05.449","IAT(Formal)","2021.2.3","Win32",178.5714286,"",NA,"",NA,NA,NA,NA,NA,NA,NA,"","","",NA,"i",1,0.8222,NA,NA,NA,NA,NA,"轻率","i","",NA,0,36,36,48,1,"",NA,"",NA,NA,NA,NA,NA,NA,NA,"",NA,"",NA,NA,NA,NA,NA,NA,NA,"","","",NA,"",NA,NA,NA,NA,NA,NA,NA,"",NA,"12"
"",NA,"",NA,"",NA,NA,NA,NA,NA,NA,NA,"","",1,1,"2024-08-23_17h27.05.449","IAT(Formal)","2021.2.3","Win32",178.5714286,"",NA,"",NA,NA,NA,NA,NA,NA,NA,"","","",NA,"i",1,0.5114,NA,NA,NA,NA,NA,"其他","i","",NA,0,37,37,9,1,"",NA,"",NA,NA,NA,NA,NA,NA,NA,"",NA,"",NA,NA,NA,NA,NA,NA,NA,"","","",NA,"",NA,NA,NA,NA,NA,NA,NA,"",NA,"12"
"",NA,"",NA,"",NA,NA,NA,NA,NA,NA,NA,"","",1,1,"2024-08-23_17h27.05.449","IAT(Formal)","2021.2.3","Win32",178.5714286,"",NA,"",NA,NA,NA,NA,NA,NA,NA,"","","",NA,"e",1,0.7276,NA,NA,NA,NA,NA,"诚实","e","",NA,0,38,38,15,1,"",NA,"",NA,NA,NA,NA,NA,NA,NA,"",NA,"",NA,NA,NA,NA,NA,NA,NA,"","","",NA,"",NA,NA,NA,NA,NA,NA,NA,"",NA,"12"
"",NA,"",NA,"",NA,NA,NA,NA,NA,NA,NA,"","",1,1,"2024-08-23_17h27.05.449","IAT(Formal)","2021.2.3","Win32",178.5714286,"",NA,"",NA,NA,NA,NA,NA,NA,NA,"","","",NA,"e",1,1.0395,NA,NA,NA,NA,NA,"我的","e","",NA,0,39,39,71,1,"",NA,"",NA,NA,NA,NA,NA,NA,NA,"",NA,"",NA,NA,NA,NA,NA,NA,NA,"","","",NA,"",NA,NA,NA,NA,NA,NA,NA,"",NA,"12"
"",NA,"",NA,"",NA,NA,NA,NA,NA,NA,NA,"","",1,1,"2024-08-23_17h27.05.449","IAT(Formal)","2021.2.3","Win32",178.5714286,"",NA,"",NA,NA,NA,NA,NA,NA,NA,"","","",NA,"i",1,0.5008,NA,NA,NA,NA,NA,"他们","i","",NA,0,40,40,56,1,"",NA,"",NA,NA,NA,NA,NA,NA,NA,"",NA,"",NA,NA,NA,NA,NA,NA,NA,"","","",NA,"",NA,NA,NA,NA,NA,NA,NA,"",NA,"12"
"",NA,"",NA,"",NA,NA,NA,NA,NA,NA,NA,"","",1,1,"2024-08-23_17h27.05.449","IAT(Formal)","2021.2.3","Win32",178.5714286,"",NA,"",NA,NA,NA,NA,NA,NA,NA,"","","",NA,"i",1,1.0151,NA,NA,NA,NA,NA,"他人","i","",NA,0,41,41,68,1,"",NA,"",NA,NA,NA,NA,NA,NA,NA,"",NA,"",NA,NA,NA,NA,NA,NA,NA,"","","",NA,"",NA,NA,NA,NA,NA,NA,NA,"",NA,"12"
"",NA,"",NA,"",NA,NA,NA,NA,NA,NA,NA,"","",1,1,"2024-08-23_17h27.05.449","IAT(Formal)","2021.2.3","Win32",178.5714286,"",NA,"",NA,NA,NA,NA,NA,NA,NA,"","","",NA,"i",1,0.5326,NA,NA,NA,NA,NA,"他人","i","",NA,0,42,42,8,1,"",NA,"",NA,NA,NA,NA,NA,NA,NA,"",NA,"",NA,NA,NA,NA,NA,NA,NA,"","","",NA,"",NA,NA,NA,NA,NA,NA,NA,"",NA,"12"
"",NA,"",NA,"",NA,NA,NA,NA,NA,NA,NA,"","",1,1,"2024-08-23_17h27.05.449","IAT(Formal)","2021.2.3","Win32",178.5714286,"",NA,"",NA,NA,NA,NA,NA,NA,NA,"","","",NA,"i",1,0.6453,NA,NA,NA,NA,NA,"傲慢","i","",NA,0,43,43,37,1,"",NA,"",NA,NA,NA,NA,NA,NA,NA,"",NA,"",NA,NA,NA,NA,NA,NA,NA,"","","",NA,"",NA,NA,NA,NA,NA,NA,NA,"",NA,"12"
"",NA,"",NA,"",NA,NA,NA,NA,NA,NA,NA,"","",1,1,"2024-08-23_17h27.05.449","IAT(Formal)","2021.2.3","Win32",178.5714286,"",NA,"",NA,NA,NA,NA,NA,NA,NA,"","","",NA,"i",1,0.4412,NA,NA,NA,NA,NA,"他人","i","",NA,0,44,44,78,1,"",NA,"",NA,NA,NA,NA,NA,NA,NA,"",NA,"",NA,NA,NA,NA,NA,NA,NA,"","","",NA,"",NA,NA,NA,NA,NA,NA,NA,"",NA,"12"
"",NA,"",NA,"",NA,NA,NA,NA,NA,NA,NA,"","",1,1,"2024-08-23_17h27.05.449","IAT(Formal)","2021.2.3","Win32",178.5714286,"",NA,"",NA,NA,NA,NA,NA,NA,NA,"","","",NA,"i",1,0.5617,NA,NA,NA,NA,NA,"刻薄","i","",NA,0,45,45,33,1,"",NA,"",NA,NA,NA,NA,NA,NA,NA,"",NA,"",NA,NA,NA,NA,NA,NA,NA,"","","",NA,"",NA,NA,NA,NA,NA,NA,NA,"",NA,"12"
"",NA,"",NA,"",NA,NA,NA,NA,NA,NA,NA,"","",1,1,"2024-08-23_17h27.05.449","IAT(Formal)","2021.2.3","Win32",178.5714286,"",NA,"",NA,NA,NA,NA,NA,NA,NA,"","","",NA,"i",1,0.5351,NA,NA,NA,NA,NA,"猖狂","i","",NA,0,46,46,45,1,"",NA,"",NA,NA,NA,NA,NA,NA,NA,"",NA,"",NA,NA,NA,NA,NA,NA,NA,"","","",NA,"",NA,NA,NA,NA,NA,NA,NA,"",NA,"12"
"",NA,"",NA,"",NA,NA,NA,NA,NA,NA,NA,"","",1,1,"2024-08-23_17h27.05.449","IAT(Formal)","2021.2.3","Win32",178.5714286,"",NA,"",NA,NA,NA,NA,NA,NA,NA,"","","",NA,"i",0,0.4914,NA,NA,NA,NA,NA,"无私","e","",NA,0,47,47,22,1,"",NA,"",NA,NA,NA,NA,NA,NA,NA,"",NA,"",NA,NA,NA,NA,NA,NA,NA,"","","",NA,"",NA,NA,NA,NA,NA,NA,NA,"",NA,"12"
"",NA,"",NA,"",NA,NA,NA,NA,NA,NA,NA,"","",1,1,"2024-08-23_17h27.05.449","IAT(Formal)","2021.2.3","Win32",178.5714286,"",NA,"",NA,NA,NA,NA,NA,NA,NA,"","","",NA,"i",1,0.5614,NA,NA,NA,NA,NA,"鲁莽","i","",NA,0,48,48,38,1,"",NA,"",NA,NA,NA,NA,NA,NA,NA,"",NA,"",NA,NA,NA,NA,NA,NA,NA,"","","",NA,"",NA,NA,NA,NA,NA,NA,NA,"",NA,"12"
"",NA,"",NA,"",NA,NA,NA,NA,NA,NA,NA,"","",1,1,"2024-08-23_17h27.05.449","IAT(Formal)","2021.2.3","Win32",178.5714286,"",NA,"",NA,NA,NA,NA,NA,NA,NA,"","","",NA,"e",1,0.4601,NA,NA,NA,NA,NA,"俺","e","",NA,0,49,49,54,1,"",NA,"",NA,NA,NA,NA,NA,NA,NA,"",NA,"",NA,NA,NA,NA,NA,NA,NA,"","","",NA,"",NA,NA,NA,NA,NA,NA,NA,"",NA,"12"
"",NA,"",NA,"",NA,NA,NA,NA,NA,NA,NA,"","",1,1,"2024-08-23_17h27.05.449","IAT(Formal)","2021.2.3","Win32",178.5714286,"",NA,"",NA,NA,NA,NA,NA,NA,NA,"","","",NA,"i",1,0.4121,NA,NA,NA,NA,NA,"他","i","",NA,0,50,50,5,1,"",NA,"",NA,NA,NA,NA,NA,NA,NA,"",NA,"",NA,NA,NA,NA,NA,NA,NA,"","","",NA,"",NA,NA,NA,NA,NA,NA,NA,"",NA,"12"
"",NA,"",NA,"",NA,NA,NA,NA,NA,NA,NA,"","",1,1,"2024-08-23_17h27.05.449","IAT(Formal)","2021.2.3","Win32",178.5714286,"",NA,"",NA,NA,NA,NA,NA,NA,NA,"","","",NA,"i",1,0.4883,NA,NA,NA,NA,NA,"虚伪","i","",NA,0,51,51,31,1,"",NA,"",NA,NA,NA,NA,NA,NA,NA,"",NA,"",NA,NA,NA,NA,NA,NA,NA,"","","",NA,"",NA,NA,NA,NA,NA,NA,NA,"",NA,"12"
"",NA,"",NA,"",NA,NA,NA,NA,NA,NA,NA,"","",1,1,"2024-08-23_17h27.05.449","IAT(Formal)","2021.2.3","Win32",178.5714286,"",NA,"",NA,NA,NA,NA,NA,NA,NA,"","","",NA,"i",1,0.4382,NA,NA,NA,NA,NA,"自私","i","",NA,0,52,52,43,1,"",NA,"",NA,NA,NA,NA,NA,NA,NA,"",NA,"",NA,NA,NA,NA,NA,NA,NA,"","","",NA,"",NA,NA,NA,NA,NA,NA,NA,"",NA,"12"
"",NA,"",NA,"",NA,NA,NA,NA,NA,NA,NA,"","",1,1,"2024-08-23_17h27.05.449","IAT(Formal)","2021.2.3","Win32",178.5714286,"",NA,"",NA,NA,NA,NA,NA,NA,NA,"","","",NA,"e",1,0.4978,NA,NA,NA,NA,NA,"我","e","",NA,0,53,53,70,1,"",NA,"",NA,NA,NA,NA,NA,NA,NA,"",NA,"",NA,NA,NA,NA,NA,NA,NA,"","","",NA,"",NA,NA,NA,NA,NA,NA,NA,"",NA,"12"
"",NA,"",NA,"",NA,NA,NA,NA,NA,NA,NA,"","",1,1,"2024-08-23_17h27.05.449","IAT(Formal)","2021.2.3","Win32",178.5714286,"",NA,"",NA,NA,NA,NA,NA,NA,NA,"","","",NA,"e",1,0.4303,NA,NA,NA,NA,NA,"我","e","",NA,0,54,54,60,1,"",NA,"",NA,NA,NA,NA,NA,NA,NA,"",NA,"",NA,NA,NA,NA,NA,NA,NA,"","","",NA,"",NA,NA,NA,NA,NA,NA,NA,"",NA,"12"
"",NA,"",NA,"",NA,NA,NA,NA,NA,NA,NA,"","",1,1,"2024-08-23_17h27.05.449","IAT(Formal)","2021.2.3","Win32",178.5714286,"",NA,"",NA,NA,NA,NA,NA,NA,NA,"","","",NA,"i",0,0.4394,NA,NA,NA,NA,NA,"细腻","e","",NA,0,55,55,25,1,"",NA,"",NA,NA,NA,NA,NA,NA,NA,"",NA,"",NA,NA,NA,NA,NA,NA,NA,"","","",NA,"",NA,NA,NA,NA,NA,NA,NA,"",NA,"12"
"",NA,"",NA,"",NA,NA,NA,NA,NA,NA,NA,"","",1,1,"2024-08-23_17h27.05.449","IAT(Formal)","2021.2.3","Win32",178.5714286,"",NA,"",NA,NA,NA,NA,NA,NA,NA,"","","",NA,"e",1,0.4019,NA,NA,NA,NA,NA,"我","e","",NA,0,56,56,50,1,"",NA,"",NA,NA,NA,NA,NA,NA,NA,"",NA,"",NA,NA,NA,NA,NA,NA,NA,"","","",NA,"",NA,NA,NA,NA,NA,NA,NA,"",NA,"12"
"",NA,"",NA,"",NA,NA,NA,NA,NA,NA,NA,"","",1,1,"2024-08-23_17h27.05.449","IAT(Formal)","2021.2.3","Win32",178.5714286,"",NA,"",NA,NA,NA,NA,NA,NA,NA,"","","",NA,"i",1,0.5047,NA,NA,NA,NA,NA,"其他","i","",NA,0,57,57,79,1,"",NA,"",NA,NA,NA,NA,NA,NA,NA,"",NA,"",NA,NA,NA,NA,NA,NA,NA,"","","",NA,"",NA,NA,NA,NA,NA,NA,NA,"",NA,"12"
"",NA,"",NA,"",NA,NA,NA,NA,NA,NA,NA,"","",1,1,"2024-08-23_17h27.05.449","IAT(Formal)","2021.2.3","Win32",178.5714286,"",NA,"",NA,NA,NA,NA,NA,NA,NA,"","","",NA,"i",1,0.5097,NA,NA,NA,NA,NA,"他们","i","",NA,0,58,58,66,1,"",NA,"",NA,NA,NA,NA,NA,NA,NA,"",NA,"",NA,NA,NA,NA,NA,NA,NA,"","","",NA,"",NA,NA,NA,NA,NA,NA,NA,"",NA,"12"
"",NA,"",NA,"",NA,NA,NA,NA,NA,NA,NA,"","",1,1,"2024-08-23_17h27.05.449","IAT(Formal)","2021.2.3","Win32",178.5714286,"",NA,"",NA,NA,NA,NA,NA,NA,NA,"","","",NA,"e",1,0.4375,NA,NA,NA,NA,NA,"认真","e","",NA,0,59,59,20,1,"",NA,"",NA,NA,NA,NA,NA,NA,NA,"",NA,"",NA,NA,NA,NA,NA,NA,NA,"","","",NA,"",NA,NA,NA,NA,NA,NA,NA,"",NA,"12"
"",NA,"",NA,"",NA,NA,NA,NA,NA,NA,NA,"","",1,1,"2024-08-23_17h27.05.449","IAT(Formal)","2021.2.3","Win32",178.5714286,"",NA,"",NA,NA,NA,NA,NA,NA,NA,"","","",NA,"e",1,0.3947,NA,NA,NA,NA,NA,"我们","e","",NA,0,60,60,2,1,"",NA,"",NA,NA,NA,NA,NA,NA,NA,"",NA,"",NA,NA,NA,NA,NA,NA,NA,"","","",NA,"",NA,NA,NA,NA,NA,NA,NA,"",NA,"12"
"",NA,"",NA,"",NA,NA,NA,NA,NA,NA,NA,"","",1,1,"2024-08-23_17h27.05.449","IAT(Formal)","2021.2.3","Win32",178.5714286,"",NA,"",NA,NA,NA,NA,NA,NA,NA,"","","",NA,"e",1,0.4113,NA,NA,NA,NA,NA,"正直","e","",NA,0,61,61,16,1,"",NA,"",NA,NA,NA,NA,NA,NA,NA,"",NA,"",NA,NA,NA,NA,NA,NA,NA,"","","",NA,"",NA,NA,NA,NA,NA,NA,NA,"",NA,"12"
"",NA,"",NA,"",NA,NA,NA,NA,NA,NA,NA,"","",1,1,"2024-08-23_17h27.05.449","IAT(Formal)","2021.2.3","Win32",178.5714286,"",NA,"",NA,NA,NA,NA,NA,NA,NA,"","","",NA,"i",1,0.5365,NA,NA,NA,NA,NA,"悲观","i","",NA,0,62,62,34,1,"",NA,"",NA,NA,NA,NA,NA,NA,NA,"",NA,"",NA,NA,NA,NA,NA,NA,NA,"","","",NA,"",NA,NA,NA,NA,NA,NA,NA,"",NA,"12"
"",NA,"",NA,"",NA,NA,NA,NA,NA,NA,NA,"","",1,1,"2024-08-23_17h27.05.449","IAT(Formal)","2021.2.3","Win32",178.5714286,"",NA,"",NA,NA,NA,NA,NA,NA,NA,"","","",NA,"e",1,0.4643,NA,NA,NA,NA,NA,"我们","e","",NA,0,63,63,72,1,"",NA,"",NA,NA,NA,NA,NA,NA,NA,"",NA,"",NA,NA,NA,NA,NA,NA,NA,"","","",NA,"",NA,NA,NA,NA,NA,NA,NA,"",NA,"12"
"",NA,"",NA,"",NA,NA,NA,NA,NA,NA,NA,"","",1,1,"2024-08-23_17h27.05.449","IAT(Formal)","2021.2.3","Win32",178.5714286,"",NA,"",NA,NA,NA,NA,NA,NA,NA,"","","",NA,"i",1,0.4811,NA,NA,NA,NA,NA,"他","i","",NA,0,64,64,55,1,"",NA,"",NA,NA,NA,NA,NA,NA,NA,"",NA,"",NA,NA,NA,NA,NA,NA,NA,"","","",NA,"",NA,NA,NA,NA,NA,NA,NA,"",NA,"12"
"",NA,"",NA,"",NA,NA,NA,NA,NA,NA,NA,"","",1,1,"2024-08-23_17h27.05.449","IAT(Formal)","2021.2.3","Win32",178.5714286,"",NA,"",NA,NA,NA,NA,NA,NA,NA,"","","",NA,"i",1,0.4737,NA,NA,NA,NA,NA,"其他","i","",NA,0,65,65,59,1,"",NA,"",NA,NA,NA,NA,NA,NA,NA,"",NA,"",NA,NA,NA,NA,NA,NA,NA,"","","",NA,"",NA,NA,NA,NA,NA,NA,NA,"",NA,"12"
"",NA,"",NA,"",NA,NA,NA,NA,NA,NA,NA,"","",1,1,"2024-08-23_17h27.05.449","IAT(Formal)","2021.2.3","Win32",178.5714286,"",NA,"",NA,NA,NA,NA,NA,NA,NA,"","","",NA,"e",1,0.4399,NA,NA,NA,NA,NA,"我","e","",NA,0,66,66,0,1,"",NA,"",NA,NA,NA,NA,NA,NA,NA,"",NA,"",NA,NA,NA,NA,NA,NA,NA,"","","",NA,"",NA,NA,NA,NA,NA,NA,NA,"",NA,"12"
"",NA,"",NA,"",NA,NA,NA,NA,NA,NA,NA,"","",1,1,"2024-08-23_17h27.05.449","IAT(Formal)","2021.2.3","Win32",178.5714286,"",NA,"",NA,NA,NA,NA,NA,NA,NA,"","","",NA,"e",1,0.4782,NA,NA,NA,NA,NA,"俺","e","",NA,0,67,67,4,1,"",NA,"",NA,NA,NA,NA,NA,NA,NA,"",NA,"",NA,NA,NA,NA,NA,NA,NA,"","","",NA,"",NA,NA,NA,NA,NA,NA,NA,"",NA,"12"
"",NA,"",NA,"",NA,NA,NA,NA,NA,NA,NA,"","",1,1,"2024-08-23_17h27.05.449","IAT(Formal)","2021.2.3","Win32",178.5714286,"",NA,"",NA,NA,NA,NA,NA,NA,NA,"","","",NA,"e",1,0.4945,NA,NA,NA,NA,NA,"乐观","e","",NA,0,68,68,14,1,"",NA,"",NA,NA,NA,NA,NA,NA,NA,"",NA,"",NA,NA,NA,NA,NA,NA,NA,"","","",NA,"",NA,NA,NA,NA,NA,NA,NA,"",NA,"12"
"",NA,"",NA,"",NA,NA,NA,NA,NA,NA,NA,"","",1,1,"2024-08-23_17h27.05.449","IAT(Formal)","2021.2.3","Win32",178.5714286,"",NA,"",NA,NA,NA,NA,NA,NA,NA,"","","",NA,"e",1,0.5276,NA,NA,NA,NA,NA,"自己","e","",NA,0,69,69,3,1,"",NA,"",NA,NA,NA,NA,NA,NA,NA,"",NA,"",NA,NA,NA,NA,NA,NA,NA,"","","",NA,"",NA,NA,NA,NA,NA,NA,NA,"",NA,"12"
"",NA,"",NA,"",NA,NA,NA,NA,NA,NA,NA,"","",1,1,"2024-08-23_17h27.05.449","IAT(Formal)","2021.2.3","Win32",178.5714286,"",NA,"",NA,NA,NA,NA,NA,NA,NA,"","","",NA,"i",1,0.4456,NA,NA,NA,NA,NA,"愚蠢","i","",NA,0,70,70,32,1,"",NA,"",NA,NA,NA,NA,NA,NA,NA,"",NA,"",NA,NA,NA,NA,NA,NA,NA,"","","",NA,"",NA,NA,NA,NA,NA,NA,NA,"",NA,"12"
"",NA,"",NA,"",NA,NA,NA,NA,NA,NA,NA,"","",1,1,"2024-08-23_17h27.05.449","IAT(Formal)","2021.2.3","Win32",178.5714286,"",NA,"",NA,NA,NA,NA,NA,NA,NA,"","","",NA,"e",1,0.6168,NA,NA,NA,NA,NA,"自己","e","",NA,0,71,71,73,1,"",NA,"",NA,NA,NA,NA,NA,NA,NA,"",NA,"",NA,NA,NA,NA,NA,NA,NA,"","","",NA,"",NA,NA,NA,NA,NA,NA,NA,"",NA,"12"
"",NA,"",NA,"",NA,NA,NA,NA,NA,NA,NA,"","",1,1,"2024-08-23_17h27.05.449","IAT(Formal)","2021.2.3","Win32",178.5714286,"",NA,"",NA,NA,NA,NA,NA,NA,NA,"","","",NA,"i",0,0.5232,NA,NA,NA,NA,NA,"冷静","e","",NA,0,72,72,26,1,"",NA,"",NA,NA,NA,NA,NA,NA,NA,"",NA,"",NA,NA,NA,NA,NA,NA,NA,"","","",NA,"",NA,NA,NA,NA,NA,NA,NA,"",NA,"12"
"",NA,"",NA,"",NA,NA,NA,NA,NA,NA,NA,"","",1,1,"2024-08-23_17h27.05.449","IAT(Formal)","2021.2.3","Win32",178.5714286,"",NA,"",NA,NA,NA,NA,NA,NA,NA,"","","",NA,"i",1,0.544,NA,NA,NA,NA,NA,"自卑","i","",NA,0,73,73,36,1,"",NA,"",NA,NA,NA,NA,NA,NA,NA,"",NA,"",NA,NA,NA,NA,NA,NA,NA,"","","",NA,"",NA,NA,NA,NA,NA,NA,NA,"",NA,"12"
"",NA,"",NA,"",NA,NA,NA,NA,NA,NA,NA,"","",1,1,"2024-08-23_17h27.05.449","IAT(Formal)","2021.2.3","Win32",178.5714286,"",NA,"",NA,NA,NA,NA,NA,NA,NA,"","","",NA,"i",1,0.5295,NA,NA,NA,NA,NA,"散漫","i","",NA,0,74,74,41,1,"",NA,"",NA,NA,NA,NA,NA,NA,NA,"",NA,"",NA,NA,NA,NA,NA,NA,NA,"","","",NA,"",NA,NA,NA,NA,NA,NA,NA,"",NA,"12"
"",NA,"",NA,"",NA,NA,NA,NA,NA,NA,NA,"","",1,1,"2024-08-23_17h27.05.449","IAT(Formal)","2021.2.3","Win32",178.5714286,"",NA,"",NA,NA,NA,NA,NA,NA,NA,"","","",NA,"e",1,0.5586,NA,NA,NA,NA,NA,"自己","e","",NA,0,75,75,63,1,"",NA,"",NA,NA,NA,NA,NA,NA,NA,"",NA,"",NA,NA,NA,NA,NA,NA,NA,"","","",NA,"",NA,NA,NA,NA,NA,NA,NA,"",NA,"12"
"",NA,"",NA,"",NA,NA,NA,NA,NA,NA,NA,"","",1,1,"2024-08-23_17h27.05.449","IAT(Formal)","2021.2.3","Win32",178.5714286,"",NA,"",NA,NA,NA,NA,NA,NA,NA,"","","",NA,"e",1,0.5808,NA,NA,NA,NA,NA,"勤奋","e","",NA,0,76,76,18,1,"",NA,"",NA,NA,NA,NA,NA,NA,NA,"",NA,"",NA,NA,NA,NA,NA,NA,NA,"","","",NA,"",NA,NA,NA,NA,NA,NA,NA,"",NA,"12"
"",NA,"",NA,"",NA,NA,NA,NA,NA,NA,NA,"","",1,1,"2024-08-23_17h27.05.449","IAT(Formal)","2021.2.3","Win32",178.5714286,"",NA,"",NA,NA,NA,NA,NA,NA,NA,"","","",NA,"e",1,0.5636,NA,NA,NA,NA,NA,"朴实","e","",NA,0,77,77,24,1,"",NA,"",NA,NA,NA,NA,NA,NA,NA,"",NA,"",NA,NA,NA,NA,NA,NA,NA,"","","",NA,"",NA,NA,NA,NA,NA,NA,NA,"",NA,"12"
"",NA,"",NA,"",NA,NA,NA,NA,NA,NA,NA,"","",1,1,"2024-08-23_17h27.05.449","IAT(Formal)","2021.2.3","Win32",178.5714286,"",NA,"",NA,NA,NA,NA,NA,NA,NA,"","","",NA,"i",1,0.6283,NA,NA,NA,NA,NA,"暴躁","i","",NA,0,78,78,44,1,"",NA,"",NA,NA,NA,NA,NA,NA,NA,"",NA,"",NA,NA,NA,NA,NA,NA,NA,"","","",NA,"",NA,NA,NA,NA,NA,NA,NA,"",NA,"12"
"",NA,"",NA,"",NA,NA,NA,NA,NA,NA,NA,"","",1,1,"2024-08-23_17h27.05.449","IAT(Formal)","2021.2.3","Win32",178.5714286,"",NA,"",NA,NA,NA,NA,NA,NA,NA,"","","",NA,"i",1,0.7517,NA,NA,NA,NA,NA,"他们","i","",NA,0,79,79,6,1,"",NA,"",NA,NA,NA,NA,NA,NA,NA,"",NA,"",NA,NA,NA,NA,NA,NA,NA,"","","",NA,"",NA,NA,NA,NA,NA,NA,NA,"",NA,"12"
"",NA,"",NA,"",NA,NA,NA,NA,NA,NA,NA,"","",1,1,"2024-08-23_17h27.05.449","IAT(Formal)","2021.2.3","Win32",178.5714286,"",NA,"",NA,NA,NA,NA,NA,NA,NA,"","","",NA,"e",1,0.4415,NA,NA,NA,NA,NA,"俺","e","",NA,1,0,80,74,1,"",NA,"",NA,NA,NA,NA,NA,NA,NA,"",NA,"",NA,NA,NA,NA,NA,NA,NA,"","","",NA,"",NA,NA,NA,NA,NA,NA,NA,"",NA,"12"
"",NA,"",NA,"",NA,NA,NA,NA,NA,NA,NA,"","",1,1,"2024-08-23_17h27.05.449","IAT(Formal)","2021.2.3","Win32",178.5714286,"",NA,"",NA,NA,NA,NA,NA,NA,NA,"","","",NA,"i",1,0.5154,NA,NA,NA,NA,NA,"他的","i","",NA,1,1,81,57,1,"",NA,"",NA,NA,NA,NA,NA,NA,NA,"",NA,"",NA,NA,NA,NA,NA,NA,NA,"","","",NA,"",NA,NA,NA,NA,NA,NA,NA,"",NA,"12"
"",NA,"",NA,"",NA,NA,NA,NA,NA,NA,NA,"","",1,1,"2024-08-23_17h27.05.449","IAT(Formal)","2021.2.3","Win32",178.5714286,"",NA,"",NA,NA,NA,NA,NA,NA,NA,"","","",NA,"e",1,0.7044,NA,NA,NA,NA,NA,"勤奋","e","",NA,1,2,82,18,1,"",NA,"",NA,NA,NA,NA,NA,NA,NA,"",NA,"",NA,NA,NA,NA,NA,NA,NA,"","","",NA,"",NA,NA,NA,NA,NA,NA,NA,"",NA,"12"
"",NA,"",NA,"",NA,NA,NA,NA,NA,NA,NA,"","",1,1,"2024-08-23_17h27.05.449","IAT(Formal)","2021.2.3","Win32",178.5714286,"",NA,"",NA,NA,NA,NA,NA,NA,NA,"","","",NA,"e",1,0.7479,NA,NA,NA,NA,NA,"机智","e","",NA,1,3,83,19,1,"",NA,"",NA,NA,NA,NA,NA,NA,NA,"",NA,"",NA,NA,NA,NA,NA,NA,NA,"","","",NA,"",NA,NA,NA,NA,NA,NA,NA,"",NA,"12"
"",NA,"",NA,"",NA,NA,NA,NA,NA,NA,NA,"","",1,1,"2024-08-23_17h27.05.449","IAT(Formal)","2021.2.3","Win32",178.5714286,"",NA,"",NA,NA,NA,NA,NA,NA,NA,"","","",NA,"i",1,0.5882,NA,NA,NA,NA,NA,"野蛮","i","",NA,1,4,84,46,1,"",NA,"",NA,NA,NA,NA,NA,NA,NA,"",NA,"",NA,NA,NA,NA,NA,NA,NA,"","","",NA,"",NA,NA,NA,NA,NA,NA,NA,"",NA,"12"
"",NA,"",NA,"",NA,NA,NA,NA,NA,NA,NA,"","",1,1,"2024-08-23_17h27.05.449","IAT(Formal)","2021.2.3","Win32",178.5714286,"",NA,"",NA,NA,NA,NA,NA,NA,NA,"","","",NA,"e",0,0.7738,NA,NA,NA,NA,NA,"消极","i","",NA,1,5,85,35,1,"",NA,"",NA,NA,NA,NA,NA,NA,NA,"",NA,"",NA,NA,NA,NA,NA,NA,NA,"","","",NA,"",NA,NA,NA,NA,NA,NA,NA,"",NA,"12"
"",NA,"",NA,"",NA,NA,NA,NA,NA,NA,NA,"","",1,1,"2024-08-23_17h27.05.449","IAT(Formal)","2021.2.3","Win32",178.5714286,"",NA,"",NA,NA,NA,NA,NA,NA,NA,"","","",NA,"e",1,0.525,NA,NA,NA,NA,NA,"稳重","e","",NA,1,6,86,21,1,"",NA,"",NA,NA,NA,NA,NA,NA,NA,"",NA,"",NA,NA,NA,NA,NA,NA,NA,"","","",NA,"",NA,NA,NA,NA,NA,NA,NA,"",NA,"12"
"",NA,"",NA,"",NA,NA,NA,NA,NA,NA,NA,"","",1,1,"2024-08-23_17h27.05.449","IAT(Formal)","2021.2.3","Win32",178.5714286,"",NA,"",NA,NA,NA,NA,NA,NA,NA,"","","",NA,"i",1,0.4956,NA,NA,NA,NA,NA,"他人","i","",NA,1,7,87,58,1,"",NA,"",NA,NA,NA,NA,NA,NA,NA,"",NA,"",NA,NA,NA,NA,NA,NA,NA,"","","",NA,"",NA,NA,NA,NA,NA,NA,NA,"",NA,"12"
"",NA,"",NA,"",NA,NA,NA,NA,NA,NA,NA,"","",1,1,"2024-08-23_17h27.05.449","IAT(Formal)","2021.2.3","Win32",178.5714286,"",NA,"",NA,NA,NA,NA,NA,NA,NA,"","","",NA,"i",1,0.7767,NA,NA,NA,NA,NA,"凶狠","i","",NA,1,8,88,42,1,"",NA,"",NA,NA,NA,NA,NA,NA,NA,"",NA,"",NA,NA,NA,NA,NA,NA,NA,"","","",NA,"",NA,NA,NA,NA,NA,NA,NA,"",NA,"12"
"",NA,"",NA,"",NA,NA,NA,NA,NA,NA,NA,"","",1,1,"2024-08-23_17h27.05.449","IAT(Formal)","2021.2.3","Win32",178.5714286,"",NA,"",NA,NA,NA,NA,NA,NA,NA,"","","",NA,"e",1,0.5133,NA,NA,NA,NA,NA,"聪明","e","",NA,1,9,89,12,1,"",NA,"",NA,NA,NA,NA,NA,NA,NA,"",NA,"",NA,NA,NA,NA,NA,NA,NA,"","","",NA,"",NA,NA,NA,NA,NA,NA,NA,"",NA,"12"
"",NA,"",NA,"",NA,NA,NA,NA,NA,NA,NA,"","",1,1,"2024-08-23_17h27.05.449","IAT(Formal)","2021.2.3","Win32",178.5714286,"",NA,"",NA,NA,NA,NA,NA,NA,NA,"","","",NA,"i",1,0.5291,NA,NA,NA,NA,NA,"自私","i","",NA,1,10,90,43,1,"",NA,"",NA,NA,NA,NA,NA,NA,NA,"",NA,"",NA,NA,NA,NA,NA,NA,NA,"","","",NA,"",NA,NA,NA,NA,NA,NA,NA,"",NA,"12"
"",NA,"",NA,"",NA,NA,NA,NA,NA,NA,NA,"","",1,1,"2024-08-23_17h27.05.449","IAT(Formal)","2021.2.3","Win32",178.5714286,"",NA,"",NA,NA,NA,NA,NA,NA,NA,"","","",NA,"e",1,0.4861,NA,NA,NA,NA,NA,"细腻","e","",NA,1,11,91,25,1,"",NA,"",NA,NA,NA,NA,NA,NA,NA,"",NA,"",NA,NA,NA,NA,NA,NA,NA,"","","",NA,"",NA,NA,NA,NA,NA,NA,NA,"",NA,"12"
"",NA,"",NA,"",NA,NA,NA,NA,NA,NA,NA,"","",1,1,"2024-08-23_17h27.05.449","IAT(Formal)","2021.2.3","Win32",178.5714286,"",NA,"",NA,NA,NA,NA,NA,NA,NA,"","","",NA,"e",1,0.5826,NA,NA,NA,NA,NA,"活泼","e","",NA,1,12,92,28,1,"",NA,"",NA,NA,NA,NA,NA,NA,NA,"",NA,"",NA,NA,NA,NA,NA,NA,NA,"","","",NA,"",NA,NA,NA,NA,NA,NA,NA,"",NA,"12"
"",NA,"",NA,"",NA,NA,NA,NA,NA,NA,NA,"","",1,1,"2024-08-23_17h27.05.449","IAT(Formal)","2021.2.3","Win32",178.5714286,"",NA,"",NA,NA,NA,NA,NA,NA,NA,"","","",NA,"e",1,0.4773,NA,NA,NA,NA,NA,"我的","e","",NA,1,13,93,51,1,"",NA,"",NA,NA,NA,NA,NA,NA,NA,"",NA,"",NA,NA,NA,NA,NA,NA,NA,"","","",NA,"",NA,NA,NA,NA,NA,NA,NA,"",NA,"12"
"",NA,"",NA,"",NA,NA,NA,NA,NA,NA,NA,"","",1,1,"2024-08-23_17h27.05.449","IAT(Formal)","2021.2.3","Win32",178.5714286,"",NA,"",NA,NA,NA,NA,NA,NA,NA,"","","",NA,"e",1,0.3911,NA,NA,NA,NA,NA,"我","e","",NA,1,14,94,50,1,"",NA,"",NA,NA,NA,NA,NA,NA,NA,"",NA,"",NA,NA,NA,NA,NA,NA,NA,"","","",NA,"",NA,NA,NA,NA,NA,NA,NA,"",NA,"12"
"",NA,"",NA,"",NA,NA,NA,NA,NA,NA,NA,"","",1,1,"2024-08-23_17h27.05.449","IAT(Formal)","2021.2.3","Win32",178.5714286,"",NA,"",NA,NA,NA,NA,NA,NA,NA,"","","",NA,"e",1,0.3814,NA,NA,NA,NA,NA,"我们","e","",NA,1,15,95,72,1,"",NA,"",NA,NA,NA,NA,NA,NA,NA,"",NA,"",NA,NA,NA,NA,NA,NA,NA,"","","",NA,"",NA,NA,NA,NA,NA,NA,NA,"",NA,"12"
"",NA,"",NA,"",NA,NA,NA,NA,NA,NA,NA,"","",1,1,"2024-08-23_17h27.05.449","IAT(Formal)","2021.2.3","Win32",178.5714286,"",NA,"",NA,NA,NA,NA,NA,NA,NA,"","","",NA,"i",1,0.6775,NA,NA,NA,NA,NA,"自卑","i","",NA,1,16,96,36,1,"",NA,"",NA,NA,NA,NA,NA,NA,NA,"",NA,"",NA,NA,NA,NA,NA,NA,NA,"","","",NA,"",NA,NA,NA,NA,NA,NA,NA,"",NA,"12"
"",NA,"",NA,"",NA,NA,NA,NA,NA,NA,NA,"","",1,1,"2024-08-23_17h27.05.449","IAT(Formal)","2021.2.3","Win32",178.5714286,"",NA,"",NA,NA,NA,NA,NA,NA,NA,"","","",NA,"e",1,0.6055,NA,NA,NA,NA,NA,"无私","e","",NA,1,17,97,22,1,"",NA,"",NA,NA,NA,NA,NA,NA,NA,"",NA,"",NA,NA,NA,NA,NA,NA,NA,"","","",NA,"",NA,NA,NA,NA,NA,NA,NA,"",NA,"12"
"",NA,"",NA,"",NA,NA,NA,NA,NA,NA,NA,"","",1,1,"2024-08-23_17h27.05.449","IAT(Formal)","2021.2.3","Win32",178.5714286,"",NA,"",NA,NA,NA,NA,NA,NA,NA,"","","",NA,"i",1,0.5498,NA,NA,NA,NA,NA,"猖狂","i","",NA,1,18,98,45,1,"",NA,"",NA,NA,NA,NA,NA,NA,NA,"",NA,"",NA,NA,NA,NA,NA,NA,NA,"","","",NA,"",NA,NA,NA,NA,NA,NA,NA,"",NA,"12"
"",NA,"",NA,"",NA,NA,NA,NA,NA,NA,NA,"","",1,1,"2024-08-23_17h27.05.449","IAT(Formal)","2021.2.3","Win32",178.5714286,"",NA,"",NA,NA,NA,NA,NA,NA,NA,"","","",NA,"e",1,0.4656,NA,NA,NA,NA,NA,"我的","e","",NA,1,19,99,1,1,"",NA,"",NA,NA,NA,NA,NA,NA,NA,"",NA,"",NA,NA,NA,NA,NA,NA,NA,"","","",NA,"",NA,NA,NA,NA,NA,NA,NA,"",NA,"12"
"",NA,"",NA,"",NA,NA,NA,NA,NA,NA,NA,"","",1,1,"2024-08-23_17h27.05.449","IAT(Formal)","2021.2.3","Win32",178.5714286,"",NA,"",NA,NA,NA,NA,NA,NA,NA,"","","",NA,"i",1,0.5089,NA,NA,NA,NA,NA,"愚蠢","i","",NA,1,20,100,32,1,"",NA,"",NA,NA,NA,NA,NA,NA,NA,"",NA,"",NA,NA,NA,NA,NA,NA,NA,"","","",NA,"",NA,NA,NA,NA,NA,NA,NA,"",NA,"12"
"",NA,"",NA,"",NA,NA,NA,NA,NA,NA,NA,"","",1,1,"2024-08-23_17h27.05.449","IAT(Formal)","2021.2.3","Win32",178.5714286,"",NA,"",NA,NA,NA,NA,NA,NA,NA,"","","",NA,"i",1,0.6378,NA,NA,NA,NA,NA,"他的","i","",NA,1,21,101,7,1,"",NA,"",NA,NA,NA,NA,NA,NA,NA,"",NA,"",NA,NA,NA,NA,NA,NA,NA,"","","",NA,"",NA,NA,NA,NA,NA,NA,NA,"",NA,"12"
"",NA,"",NA,"",NA,NA,NA,NA,NA,NA,NA,"","",1,1,"2024-08-23_17h27.05.449","IAT(Formal)","2021.2.3","Win32",178.5714286,"",NA,"",NA,NA,NA,NA,NA,NA,NA,"","","",NA,"i",1,0.4518,NA,NA,NA,NA,NA,"傲慢","i","",NA,1,22,102,37,1,"",NA,"",NA,NA,NA,NA,NA,NA,NA,"",NA,"",NA,NA,NA,NA,NA,NA,NA,"","","",NA,"",NA,NA,NA,NA,NA,NA,NA,"",NA,"12"
"",NA,"",NA,"",NA,NA,NA,NA,NA,NA,NA,"","",1,1,"2024-08-23_17h27.05.449","IAT(Formal)","2021.2.3","Win32",178.5714286,"",NA,"",NA,NA,NA,NA,NA,NA,NA,"","","",NA,"i",1,0.6315,NA,NA,NA,NA,NA,"轻率","i","",NA,1,23,103,48,1,"",NA,"",NA,NA,NA,NA,NA,NA,NA,"",NA,"",NA,NA,NA,NA,NA,NA,NA,"","","",NA,"",NA,NA,NA,NA,NA,NA,NA,"",NA,"12"
"",NA,"",NA,"",NA,NA,NA,NA,NA,NA,NA,"","",1,1,"2024-08-23_17h27.05.449","IAT(Formal)","2021.2.3","Win32",178.5714286,"",NA,"",NA,NA,NA,NA,NA,NA,NA,"","","",NA,"i",1,0.418,NA,NA,NA,NA,NA,"其他","i","",NA,1,24,104,9,1,"",NA,"",NA,NA,NA,NA,NA,NA,NA,"",NA,"",NA,NA,NA,NA,NA,NA,NA,"","","",NA,"",NA,NA,NA,NA,NA,NA,NA,"",NA,"12"
"",NA,"",NA,"",NA,NA,NA,NA,NA,NA,NA,"","",1,1,"2024-08-23_17h27.05.449","IAT(Formal)","2021.2.3","Win32",178.5714286,"",NA,"",NA,NA,NA,NA,NA,NA,NA,"","","",NA,"e",1,0.5655,NA,NA,NA,NA,NA,"诚实","e","",NA,1,25,105,15,1,"",NA,"",NA,NA,NA,NA,NA,NA,NA,"",NA,"",NA,NA,NA,NA,NA,NA,NA,"","","",NA,"",NA,NA,NA,NA,NA,NA,NA,"",NA,"12"
"",NA,"",NA,"",NA,NA,NA,NA,NA,NA,NA,"","",1,1,"2024-08-23_17h27.05.449","IAT(Formal)","2021.2.3","Win32",178.5714286,"",NA,"",NA,NA,NA,NA,NA,NA,NA,"","","",NA,"e",1,0.4759,NA,NA,NA,NA,NA,"俺","e","",NA,1,26,106,54,1,"",NA,"",NA,NA,NA,NA,NA,NA,NA,"",NA,"",NA,NA,NA,NA,NA,NA,NA,"","","",NA,"",NA,NA,NA,NA,NA,NA,NA,"",NA,"12"
"",NA,"",NA,"",NA,NA,NA,NA,NA,NA,NA,"","",1,1,"2024-08-23_17h27.05.449","IAT(Formal)","2021.2.3","Win32",178.5714286,"",NA,"",NA,NA,NA,NA,NA,NA,NA,"","","",NA,"e",1,0.3972,NA,NA,NA,NA,NA,"我们","e","",NA,1,27,107,52,1,"",NA,"",NA,NA,NA,NA,NA,NA,NA,"",NA,"",NA,NA,NA,NA,NA,NA,NA,"","","",NA,"",NA,NA,NA,NA,NA,NA,NA,"",NA,"12"
"",NA,"",NA,"",NA,NA,NA,NA,NA,NA,NA,"","",1,1,"2024-08-23_17h27.05.449","IAT(Formal)","2021.2.3","Win32",178.5714286,"",NA,"",NA,NA,NA,NA,NA,NA,NA,"","","",NA,"e",1,0.5725,NA,NA,NA,NA,NA,"自己","e","",NA,1,28,108,73,1,"",NA,"",NA,NA,NA,NA,NA,NA,NA,"",NA,"",NA,NA,NA,NA,NA,NA,NA,"","","",NA,"",NA,NA,NA,NA,NA,NA,NA,"",NA,"12"
"",NA,"",NA,"",NA,NA,NA,NA,NA,NA,NA,"","",1,1,"2024-08-23_17h27.05.449","IAT(Formal)","2021.2.3","Win32",178.5714286,"",NA,"",NA,NA,NA,NA,NA,NA,NA,"","","",NA,"i",1,0.4967,NA,NA,NA,NA,NA,"其他","i","",NA,1,29,109,59,1,"",NA,"",NA,NA,NA,NA,NA,NA,NA,"",NA,"",NA,NA,NA,NA,NA,NA,NA,"","","",NA,"",NA,NA,NA,NA,NA,NA,NA,"",NA,"12"
"",NA,"",NA,"",NA,NA,NA,NA,NA,NA,NA,"","",1,1,"2024-08-23_17h27.05.449","IAT(Formal)","2021.2.3","Win32",178.5714286,"",NA,"",NA,NA,NA,NA,NA,NA,NA,"","","",NA,"e",0,0.5297,NA,NA,NA,NA,NA,"他们","i","",NA,1,30,110,56,1,"",NA,"",NA,NA,NA,NA,NA,NA,NA,"",NA,"",NA,NA,NA,NA,NA,NA,NA,"","","",NA,"",NA,NA,NA,NA,NA,NA,NA,"",NA,"12"
"",NA,"",NA,"",NA,NA,NA,NA,NA,NA,NA,"","",1,1,"2024-08-23_17h27.05.449","IAT(Formal)","2021.2.3","Win32",178.5714286,"",NA,"",NA,NA,NA,NA,NA,NA,NA,"","","",NA,"i",1,0.4885,NA,NA,NA,NA,NA,"他人","i","",NA,1,31,111,78,1,"",NA,"",NA,NA,NA,NA,NA,NA,NA,"",NA,"",NA,NA,NA,NA,NA,NA,NA,"","","",NA,"",NA,NA,NA,NA,NA,NA,NA,"",NA,"12"
"",NA,"",NA,"",NA,NA,NA,NA,NA,NA,NA,"","",1,1,"2024-08-23_17h27.05.449","IAT(Formal)","2021.2.3","Win32",178.5714286,"",NA,"",NA,NA,NA,NA,NA,NA,NA,"","","",NA,"e",1,0.5175,NA,NA,NA,NA,NA,"自己","e","",NA,1,32,112,3,1,"",NA,"",NA,NA,NA,NA,NA,NA,NA,"",NA,"",NA,NA,NA,NA,NA,NA,NA,"","","",NA,"",NA,NA,NA,NA,NA,NA,NA,"",NA,"12"
"",NA,"",NA,"",NA,NA,NA,NA,NA,NA,NA,"","",1,1,"2024-08-23_17h27.05.449","IAT(Formal)","2021.2.3","Win32",178.5714286,"",NA,"",NA,NA,NA,NA,NA,NA,NA,"","","",NA,"e",1,0.5111,NA,NA,NA,NA,NA,"朴实","e","",NA,1,33,113,24,1,"",NA,"",NA,NA,NA,NA,NA,NA,NA,"",NA,"",NA,NA,NA,NA,NA,NA,NA,"","","",NA,"",NA,NA,NA,NA,NA,NA,NA,"",NA,"12"
"",NA,"",NA,"",NA,NA,NA,NA,NA,NA,NA,"","",1,1,"2024-08-23_17h27.05.449","IAT(Formal)","2021.2.3","Win32",178.5714286,"",NA,"",NA,NA,NA,NA,NA,NA,NA,"","","",NA,"i",1,0.4597,NA,NA,NA,NA,NA,"他","i","",NA,1,34,114,75,1,"",NA,"",NA,NA,NA,NA,NA,NA,NA,"",NA,"",NA,NA,NA,NA,NA,NA,NA,"","","",NA,"",NA,NA,NA,NA,NA,NA,NA,"",NA,"12"
"",NA,"",NA,"",NA,NA,NA,NA,NA,NA,NA,"","",1,1,"2024-08-23_17h27.05.449","IAT(Formal)","2021.2.3","Win32",178.5714286,"",NA,"",NA,NA,NA,NA,NA,NA,NA,"","","",NA,"i",1,0.4873,NA,NA,NA,NA,NA,"其他","i","",NA,1,35,115,79,1,"",NA,"",NA,NA,NA,NA,NA,NA,NA,"",NA,"",NA,NA,NA,NA,NA,NA,NA,"","","",NA,"",NA,NA,NA,NA,NA,NA,NA,"",NA,"12"
"",NA,"",NA,"",NA,NA,NA,NA,NA,NA,NA,"","",1,1,"2024-08-23_17h27.05.449","IAT(Formal)","2021.2.3","Win32",178.5714286,"",NA,"",NA,NA,NA,NA,NA,NA,NA,"","","",NA,"i",1,0.6063,NA,NA,NA,NA,NA,"他人","i","",NA,1,36,116,68,1,"",NA,"",NA,NA,NA,NA,NA,NA,NA,"",NA,"",NA,NA,NA,NA,NA,NA,NA,"","","",NA,"",NA,NA,NA,NA,NA,NA,NA,"",NA,"12"
"",NA,"",NA,"",NA,NA,NA,NA,NA,NA,NA,"","",1,1,"2024-08-23_17h27.05.449","IAT(Formal)","2021.2.3","Win32",178.5714286,"",NA,"",NA,NA,NA,NA,NA,NA,NA,"","","",NA,"e",1,0.534,NA,NA,NA,NA,NA,"俺","e","",NA,1,37,117,64,1,"",NA,"",NA,NA,NA,NA,NA,NA,NA,"",NA,"",NA,NA,NA,NA,NA,NA,NA,"","","",NA,"",NA,NA,NA,NA,NA,NA,NA,"",NA,"12"
"",NA,"",NA,"",NA,NA,NA,NA,NA,NA,NA,"","",1,1,"2024-08-23_17h27.05.449","IAT(Formal)","2021.2.3","Win32",178.5714286,"",NA,"",NA,NA,NA,NA,NA,NA,NA,"","","",NA,"i",1,0.44,NA,NA,NA,NA,NA,"他","i","",NA,1,38,118,65,1,"",NA,"",NA,NA,NA,NA,NA,NA,NA,"",NA,"",NA,NA,NA,NA,NA,NA,NA,"","","",NA,"",NA,NA,NA,NA,NA,NA,NA,"",NA,"12"
"",NA,"",NA,"",NA,NA,NA,NA,NA,NA,NA,"","",1,1,"2024-08-23_17h27.05.449","IAT(Formal)","2021.2.3","Win32",178.5714286,"",NA,"",NA,NA,NA,NA,NA,NA,NA,"","","",NA,"e",1,0.6087,NA,NA,NA,NA,NA,"崇高","e","",NA,1,39,119,11,1,"",NA,"",NA,NA,NA,NA,NA,NA,NA,"",NA,"",NA,NA,NA,NA,NA,NA,NA,"","","",NA,"",NA,NA,NA,NA,NA,NA,NA,"",NA,"12"
"",NA,"",NA,"",NA,NA,NA,NA,NA,NA,NA,"","",1,1,"2024-08-23_17h27.05.449","IAT(Formal)","2021.2.3","Win32",178.5714286,"",NA,"",NA,NA,NA,NA,NA,NA,NA,"","","",NA,"e",1,0.5448,NA,NA,NA,NA,NA,"我的","e","",NA,1,40,120,71,1,"",NA,"",NA,NA,NA,NA,NA,NA,NA,"",NA,"",NA,NA,NA,NA,NA,NA,NA,"","","",NA,"",NA,NA,NA,NA,NA,NA,NA,"",NA,"12"
"",NA,"",NA,"",NA,NA,NA,NA,NA,NA,NA,"","",1,1,"2024-08-23_17h27.05.449","IAT(Formal)","2021.2.3","Win32",178.5714286,"",NA,"",NA,NA,NA,NA,NA,NA,NA,"","","",NA,"e",1,0.5304,NA,NA,NA,NA,NA,"认真","e","",NA,1,41,121,20,1,"",NA,"",NA,NA,NA,NA,NA,NA,NA,"",NA,"",NA,NA,NA,NA,NA,NA,NA,"","","",NA,"",NA,NA,NA,NA,NA,NA,NA,"",NA,"12"
"",NA,"",NA,"",NA,NA,NA,NA,NA,NA,NA,"","",1,1,"2024-08-23_17h27.05.449","IAT(Formal)","2021.2.3","Win32",178.5714286,"",NA,"",NA,NA,NA,NA,NA,NA,NA,"","","",NA,"i",1,0.4659,NA,NA,NA,NA,NA,"他们","i","",NA,1,42,122,66,1,"",NA,"",NA,NA,NA,NA,NA,NA,NA,"",NA,"",NA,NA,NA,NA,NA,NA,NA,"","","",NA,"",NA,NA,NA,NA,NA,NA,NA,"",NA,"12"
"",NA,"",NA,"",NA,NA,NA,NA,NA,NA,NA,"","",1,1,"2024-08-23_17h27.05.449","IAT(Formal)","2021.2.3","Win32",178.5714286,"",NA,"",NA,NA,NA,NA,NA,NA,NA,"","","",NA,"i",1,0.7404,NA,NA,NA,NA,NA,"执拗","i","",NA,1,43,123,40,1,"",NA,"",NA,NA,NA,NA,NA,NA,NA,"",NA,"",NA,NA,NA,NA,NA,NA,NA,"","","",NA,"",NA,NA,NA,NA,NA,NA,NA,"",NA,"12"
"",NA,"",NA,"",NA,NA,NA,NA,NA,NA,NA,"","",1,1,"2024-08-23_17h27.05.449","IAT(Formal)","2021.2.3","Win32",178.5714286,"",NA,"",NA,NA,NA,NA,NA,NA,NA,"","","",NA,"e",1,0.4474,NA,NA,NA,NA,NA,"热情","e","",NA,1,44,124,27,1,"",NA,"",NA,NA,NA,NA,NA,NA,NA,"",NA,"",NA,NA,NA,NA,NA,NA,NA,"","","",NA,"",NA,NA,NA,NA,NA,NA,NA,"",NA,"12"
"",NA,"",NA,"",NA,NA,NA,NA,NA,NA,NA,"","",1,1,"2024-08-23_17h27.05.449","IAT(Formal)","2021.2.3","Win32",178.5714286,"",NA,"",NA,NA,NA,NA,NA,NA,NA,"","","",NA,"i",1,0.4826,NA,NA,NA,NA,NA,"散漫","i","",NA,1,45,125,41,1,"",NA,"",NA,NA,NA,NA,NA,NA,NA,"",NA,"",NA,NA,NA,NA,NA,NA,NA,"","","",NA,"",NA,NA,NA,NA,NA,NA,NA,"",NA,"12"
"",NA,"",NA,"",NA,NA,NA,NA,NA,NA,NA,"","",1,1,"2024-08-23_17h27.05.449","IAT(Formal)","2021.2.3","Win32",178.5714286,"",NA,"",NA,NA,NA,NA,NA,NA,NA,"","","",NA,"e",1,0.4979,NA,NA,NA,NA,NA,"公正","e","",NA,1,46,126,23,1,"",NA,"",NA,NA,NA,NA,NA,NA,NA,"",NA,"",NA,NA,NA,NA,NA,NA,NA,"","","",NA,"",NA,NA,NA,NA,NA,NA,NA,"",NA,"12"
"",NA,"",NA,"",NA,NA,NA,NA,NA,NA,NA,"","",1,1,"2024-08-23_17h27.05.449","IAT(Formal)","2021.2.3","Win32",178.5714286,"",NA,"",NA,NA,NA,NA,NA,NA,NA,"","","",NA,"e",1,0.3895,NA,NA,NA,NA,NA,"我的","e","",NA,1,47,127,61,1,"",NA,"",NA,NA,NA,NA,NA,NA,NA,"",NA,"",NA,NA,NA,NA,NA,NA,NA,"","","",NA,"",NA,NA,NA,NA,NA,NA,NA,"",NA,"12"
"",NA,"",NA,"",NA,NA,NA,NA,NA,NA,NA,"","",1,1,"2024-08-23_17h27.05.449","IAT(Formal)","2021.2.3","Win32",178.5714286,"",NA,"",NA,NA,NA,NA,NA,NA,NA,"","","",NA,"i",1,0.4891,NA,NA,NA,NA,NA,"暴躁","i","",NA,1,48,128,44,1,"",NA,"",NA,NA,NA,NA,NA,NA,NA,"",NA,"",NA,NA,NA,NA,NA,NA,NA,"","","",NA,"",NA,NA,NA,NA,NA,NA,NA,"",NA,"12"
"",NA,"",NA,"",NA,NA,NA,NA,NA,NA,NA,"","",1,1,"2024-08-23_17h27.05.449","IAT(Formal)","2021.2.3","Win32",178.5714286,"",NA,"",NA,NA,NA,NA,NA,NA,NA,"","","",NA,"e",1,0.6921,NA,NA,NA,NA,NA,"俺","e","",NA,1,49,129,4,1,"",NA,"",NA,NA,NA,NA,NA,NA,NA,"",NA,"",NA,NA,NA,NA,NA,NA,NA,"","","",NA,"",NA,NA,NA,NA,NA,NA,NA,"",NA,"12"
"",NA,"",NA,"",NA,NA,NA,NA,NA,NA,NA,"","",1,1,"2024-08-23_17h27.05.449","IAT(Formal)","2021.2.3","Win32",178.5714286,"",NA,"",NA,NA,NA,NA,NA,NA,NA,"","","",NA,"e",1,0.4378,NA,NA,NA,NA,NA,"杰出","e","",NA,1,50,130,13,1,"",NA,"",NA,NA,NA,NA,NA,NA,NA,"",NA,"",NA,NA,NA,NA,NA,NA,NA,"","","",NA,"",NA,NA,NA,NA,NA,NA,NA,"",NA,"12"
"",NA,"",NA,"",NA,NA,NA,NA,NA,NA,NA,"","",1,1,"2024-08-23_17h27.05.449","IAT(Formal)","2021.2.3","Win32",178.5714286,"",NA,"",NA,NA,NA,NA,NA,NA,NA,"","","",NA,"e",0,0.3904,NA,NA,NA,NA,NA,"他们","i","",NA,1,51,131,6,1,"",NA,"",NA,NA,NA,NA,NA,NA,NA,"",NA,"",NA,NA,NA,NA,NA,NA,NA,"","","",NA,"",NA,NA,NA,NA,NA,NA,NA,"",NA,"12"
"",NA,"",NA,"",NA,NA,NA,NA,NA,NA,NA,"","",1,1,"2024-08-23_17h27.05.449","IAT(Formal)","2021.2.3","Win32",178.5714286,"",NA,"",NA,NA,NA,NA,NA,NA,NA,"","","",NA,"i",1,0.4877,NA,NA,NA,NA,NA,"卑鄙","i","",NA,1,52,132,30,1,"",NA,"",NA,NA,NA,NA,NA,NA,NA,"",NA,"",NA,NA,NA,NA,NA,NA,NA,"","","",NA,"",NA,NA,NA,NA,NA,NA,NA,"",NA,"12"
"",NA,"",NA,"",NA,NA,NA,NA,NA,NA,NA,"","",1,1,"2024-08-23_17h27.05.449","IAT(Formal)","2021.2.3","Win32",178.5714286,"",NA,"",NA,NA,NA,NA,NA,NA,NA,"","","",NA,"e",1,0.4668,NA,NA,NA,NA,NA,"我们","e","",NA,1,53,133,2,1,"",NA,"",NA,NA,NA,NA,NA,NA,NA,"",NA,"",NA,NA,NA,NA,NA,NA,NA,"","","",NA,"",NA,NA,NA,NA,NA,NA,NA,"",NA,"12"
"",NA,"",NA,"",NA,NA,NA,NA,NA,NA,NA,"","",1,1,"2024-08-23_17h27.05.449","IAT(Formal)","2021.2.3","Win32",178.5714286,"",NA,"",NA,NA,NA,NA,NA,NA,NA,"","","",NA,"e",1,0.395,NA,NA,NA,NA,NA,"我","e","",NA,1,54,134,60,1,"",NA,"",NA,NA,NA,NA,NA,NA,NA,"",NA,"",NA,NA,NA,NA,NA,NA,NA,"","","",NA,"",NA,NA,NA,NA,NA,NA,NA,"",NA,"12"
"",NA,"",NA,"",NA,NA,NA,NA,NA,NA,NA,"","",1,1,"2024-08-23_17h27.05.449","IAT(Formal)","2021.2.3","Win32",178.5714286,"",NA,"",NA,NA,NA,NA,NA,NA,NA,"","","",NA,"i",1,0.5824,NA,NA,NA,NA,NA,"固执","i","",NA,1,55,135,47,1,"",NA,"",NA,NA,NA,NA,NA,NA,NA,"",NA,"",NA,NA,NA,NA,NA,NA,NA,"","","",NA,"",NA,NA,NA,NA,NA,NA,NA,"",NA,"12"
"",NA,"",NA,"",NA,NA,NA,NA,NA,NA,NA,"","",1,1,"2024-08-23_17h27.05.449","IAT(Formal)","2021.2.3","Win32",178.5714286,"",NA,"",NA,NA,NA,NA,NA,NA,NA,"","","",NA,"i",1,0.5298,NA,NA,NA,NA,NA,"鲁莽","i","",NA,1,56,136,38,1,"",NA,"",NA,NA,NA,NA,NA,NA,NA,"",NA,"",NA,NA,NA,NA,NA,NA,NA,"","","",NA,"",NA,NA,NA,NA,NA,NA,NA,"",NA,"12"
"",NA,"",NA,"",NA,NA,NA,NA,NA,NA,NA,"","",1,1,"2024-08-23_17h27.05.449","IAT(Formal)","2021.2.3","Win32",178.5714286,"",NA,"",NA,NA,NA,NA,NA,NA,NA,"","","",NA,"e",1,0.5546,NA,NA,NA,NA,NA,"诚恳","e","",NA,1,57,137,29,1,"",NA,"",NA,NA,NA,NA,NA,NA,NA,"",NA,"",NA,NA,NA,NA,NA,NA,NA,"","","",NA,"",NA,NA,NA,NA,NA,NA,NA,"",NA,"12"
"",NA,"",NA,"",NA,NA,NA,NA,NA,NA,NA,"","",1,1,"2024-08-23_17h27.05.449","IAT(Formal)","2021.2.3","Win32",178.5714286,"",NA,"",NA,NA,NA,NA,NA,NA,NA,"","","",NA,"e",1,0.515,NA,NA,NA,NA,NA,"我","e","",NA,1,58,138,70,1,"",NA,"",NA,NA,NA,NA,NA,NA,NA,"",NA,"",NA,NA,NA,NA,NA,NA,NA,"","","",NA,"",NA,NA,NA,NA,NA,NA,NA,"",NA,"12"
"",NA,"",NA,"",NA,NA,NA,NA,NA,NA,NA,"","",1,1,"2024-08-23_17h27.05.449","IAT(Formal)","2021.2.3","Win32",178.5714286,"",NA,"",NA,NA,NA,NA,NA,NA,NA,"","","",NA,"i",1,0.5319,NA,NA,NA,NA,NA,"他的","i","",NA,1,59,139,77,1,"",NA,"",NA,NA,NA,NA,NA,NA,NA,"",NA,"",NA,NA,NA,NA,NA,NA,NA,"","","",NA,"",NA,NA,NA,NA,NA,NA,NA,"",NA,"12"
"",NA,"",NA,"",NA,NA,NA,NA,NA,NA,NA,"","",1,1,"2024-08-23_17h27.05.449","IAT(Formal)","2021.2.3","Win32",178.5714286,"",NA,"",NA,NA,NA,NA,NA,NA,NA,"","","",NA,"e",1,0.5835,NA,NA,NA,NA,NA,"勇敢","e","",NA,1,60,140,17,1,"",NA,"",NA,NA,NA,NA,NA,NA,NA,"",NA,"",NA,NA,NA,NA,NA,NA,NA,"","","",NA,"",NA,NA,NA,NA,NA,NA,NA,"",NA,"12"
"",NA,"",NA,"",NA,NA,NA,NA,NA,NA,NA,"","",1,1,"2024-08-23_17h27.05.449","IAT(Formal)","2021.2.3","Win32",178.5714286,"",NA,"",NA,NA,NA,NA,NA,NA,NA,"","","",NA,"i",1,0.5614,NA,NA,NA,NA,NA,"下贱","i","",NA,1,61,141,49,1,"",NA,"",NA,NA,NA,NA,NA,NA,NA,"",NA,"",NA,NA,NA,NA,NA,NA,NA,"","","",NA,"",NA,NA,NA,NA,NA,NA,NA,"",NA,"12"
"",NA,"",NA,"",NA,NA,NA,NA,NA,NA,NA,"","",1,1,"2024-08-23_17h27.05.449","IAT(Formal)","2021.2.3","Win32",178.5714286,"",NA,"",NA,NA,NA,NA,NA,NA,NA,"","","",NA,"i",1,0.4107,NA,NA,NA,NA,NA,"他人","i","",NA,1,62,142,8,1,"",NA,"",NA,NA,NA,NA,NA,NA,NA,"",NA,"",NA,NA,NA,NA,NA,NA,NA,"","","",NA,"",NA,NA,NA,NA,NA,NA,NA,"",NA,"12"
"",NA,"",NA,"",NA,NA,NA,NA,NA,NA,NA,"","",1,1,"2024-08-23_17h27.05.449","IAT(Formal)","2021.2.3","Win32",178.5714286,"",NA,"",NA,NA,NA,NA,NA,NA,NA,"","","",NA,"i",1,0.4176,NA,NA,NA,NA,NA,"他们","i","",NA,1,63,143,76,1,"",NA,"",NA,NA,NA,NA,NA,NA,NA,"",NA,"",NA,NA,NA,NA,NA,NA,NA,"","","",NA,"",NA,NA,NA,NA,NA,NA,NA,"",NA,"12"
"",NA,"",NA,"",NA,NA,NA,NA,NA,NA,NA,"","",1,1,"2024-08-23_17h27.05.449","IAT(Formal)","2021.2.3","Win32",178.5714286,"",NA,"",NA,NA,NA,NA,NA,NA,NA,"","","",NA,"i",1,0.4523,NA,NA,NA,NA,NA,"其他","i","",NA,1,64,144,69,1,"",NA,"",NA,NA,NA,NA,NA,NA,NA,"",NA,"",NA,NA,NA,NA,NA,NA,NA,"","","",NA,"",NA,NA,NA,NA,NA,NA,NA,"",NA,"12"
"",NA,"",NA,"",NA,NA,NA,NA,NA,NA,NA,"","",1,1,"2024-08-23_17h27.05.449","IAT(Formal)","2021.2.3","Win32",178.5714286,"",NA,"",NA,NA,NA,NA,NA,NA,NA,"","","",NA,"e",1,0.4534,NA,NA,NA,NA,NA,"自己","e","",NA,1,65,145,53,1,"",NA,"",NA,NA,NA,NA,NA,NA,NA,"",NA,"",NA,NA,NA,NA,NA,NA,NA,"","","",NA,"",NA,NA,NA,NA,NA,NA,NA,"",NA,"12"
"",NA,"",NA,"",NA,NA,NA,NA,NA,NA,NA,"","",1,1,"2024-08-23_17h27.05.449","IAT(Formal)","2021.2.3","Win32",178.5714286,"",NA,"",NA,NA,NA,NA,NA,NA,NA,"","","",NA,"e",1,0.5331,NA,NA,NA,NA,NA,"正直","e","",NA,1,66,146,16,1,"",NA,"",NA,NA,NA,NA,NA,NA,NA,"",NA,"",NA,NA,NA,NA,NA,NA,NA,"","","",NA,"",NA,NA,NA,NA,NA,NA,NA,"",NA,"12"
"",NA,"",NA,"",NA,NA,NA,NA,NA,NA,NA,"","",1,1,"2024-08-23_17h27.05.449","IAT(Formal)","2021.2.3","Win32",178.5714286,"",NA,"",NA,NA,NA,NA,NA,NA,NA,"","","",NA,"i",1,0.439,NA,NA,NA,NA,NA,"他","i","",NA,1,67,147,55,1,"",NA,"",NA,NA,NA,NA,NA,NA,NA,"",NA,"",NA,NA,NA,NA,NA,NA,NA,"","","",NA,"",NA,NA,NA,NA,NA,NA,NA,"",NA,"12"
"",NA,"",NA,"",NA,NA,NA,NA,NA,NA,NA,"","",1,1,"2024-08-23_17h27.05.449","IAT(Formal)","2021.2.3","Win32",178.5714286,"",NA,"",NA,NA,NA,NA,NA,NA,NA,"","","",NA,"i",0,0.4156,NA,NA,NA,NA,NA,"冷静","e","",NA,1,68,148,26,1,"",NA,"",NA,NA,NA,NA,NA,NA,NA,"",NA,"",NA,NA,NA,NA,NA,NA,NA,"","","",NA,"",NA,NA,NA,NA,NA,NA,NA,"",NA,"12"
"",NA,"",NA,"",NA,NA,NA,NA,NA,NA,NA,"","",1,1,"2024-08-23_17h27.05.449","IAT(Formal)","2021.2.3","Win32",178.5714286,"",NA,"",NA,NA,NA,NA,NA,NA,NA,"","","",NA,"i",1,0.4723,NA,NA,NA,NA,NA,"他的","i","",NA,1,69,149,67,1,"",NA,"",NA,NA,NA,NA,NA,NA,NA,"",NA,"",NA,NA,NA,NA,NA,NA,NA,"","","",NA,"",NA,NA,NA,NA,NA,NA,NA,"",NA,"12"
"",NA,"",NA,"",NA,NA,NA,NA,NA,NA,NA,"","",1,1,"2024-08-23_17h27.05.449","IAT(Formal)","2021.2.3","Win32",178.5714286,"",NA,"",NA,NA,NA,NA,NA,NA,NA,"","","",NA,"i",1,0.5154,NA,NA,NA,NA,NA,"虚伪","i","",NA,1,70,150,31,1,"",NA,"",NA,NA,NA,NA,NA,NA,NA,"",NA,"",NA,NA,NA,NA,NA,NA,NA,"","","",NA,"",NA,NA,NA,NA,NA,NA,NA,"",NA,"12"
"",NA,"",NA,"",NA,NA,NA,NA,NA,NA,NA,"","",1,1,"2024-08-23_17h27.05.449","IAT(Formal)","2021.2.3","Win32",178.5714286,"",NA,"",NA,NA,NA,NA,NA,NA,NA,"","","",NA,"e",1,0.4493,NA,NA,NA,NA,NA,"优秀","e","",NA,1,71,151,10,1,"",NA,"",NA,NA,NA,NA,NA,NA,NA,"",NA,"",NA,NA,NA,NA,NA,NA,NA,"","","",NA,"",NA,NA,NA,NA,NA,NA,NA,"",NA,"12"
"",NA,"",NA,"",NA,NA,NA,NA,NA,NA,NA,"","",1,1,"2024-08-23_17h27.05.449","IAT(Formal)","2021.2.3","Win32",178.5714286,"",NA,"",NA,NA,NA,NA,NA,NA,NA,"","","",NA,"i",1,0.5828,NA,NA,NA,NA,NA,"刻薄","i","",NA,1,72,152,33,1,"",NA,"",NA,NA,NA,NA,NA,NA,NA,"",NA,"",NA,NA,NA,NA,NA,NA,NA,"","","",NA,"",NA,NA,NA,NA,NA,NA,NA,"",NA,"12"
"",NA,"",NA,"",NA,NA,NA,NA,NA,NA,NA,"","",1,1,"2024-08-23_17h27.05.449","IAT(Formal)","2021.2.3","Win32",178.5714286,"",NA,"",NA,NA,NA,NA,NA,NA,NA,"","","",NA,"i",1,0.5449,NA,NA,NA,NA,NA,"悲观","i","",NA,1,73,153,34,1,"",NA,"",NA,NA,NA,NA,NA,NA,NA,"",NA,"",NA,NA,NA,NA,NA,NA,NA,"","","",NA,"",NA,NA,NA,NA,NA,NA,NA,"",NA,"12"
"",NA,"",NA,"",NA,NA,NA,NA,NA,NA,NA,"","",1,1,"2024-08-23_17h27.05.449","IAT(Formal)","2021.2.3","Win32",178.5714286,"",NA,"",NA,NA,NA,NA,NA,NA,NA,"","","",NA,"e",1,0.4305,NA,NA,NA,NA,NA,"我","e","",NA,1,74,154,0,1,"",NA,"",NA,NA,NA,NA,NA,NA,NA,"",NA,"",NA,NA,NA,NA,NA,NA,NA,"","","",NA,"",NA,NA,NA,NA,NA,NA,NA,"",NA,"12"
"",NA,"",NA,"",NA,NA,NA,NA,NA,NA,NA,"","",1,1,"2024-08-23_17h27.05.449","IAT(Formal)","2021.2.3","Win32",178.5714286,"",NA,"",NA,NA,NA,NA,NA,NA,NA,"","","",NA,"e",1,0.3876,NA,NA,NA,NA,NA,"我们","e","",NA,1,75,155,62,1,"",NA,"",NA,NA,NA,NA,NA,NA,NA,"",NA,"",NA,NA,NA,NA,NA,NA,NA,"","","",NA,"",NA,NA,NA,NA,NA,NA,NA,"",NA,"12"
"",NA,"",NA,"",NA,NA,NA,NA,NA,NA,NA,"","",1,1,"2024-08-23_17h27.05.449","IAT(Formal)","2021.2.3","Win32",178.5714286,"",NA,"",NA,NA,NA,NA,NA,NA,NA,"","","",NA,"e",1,0.4197,NA,NA,NA,NA,NA,"自己","e","",NA,1,76,156,63,1,"",NA,"",NA,NA,NA,NA,NA,NA,NA,"",NA,"",NA,NA,NA,NA,NA,NA,NA,"","","",NA,"",NA,NA,NA,NA,NA,NA,NA,"",NA,"12"
"",NA,"",NA,"",NA,NA,NA,NA,NA,NA,NA,"","",1,1,"2024-08-23_17h27.05.449","IAT(Formal)","2021.2.3","Win32",178.5714286,"",NA,"",NA,NA,NA,NA,NA,NA,NA,"","","",NA,"e",1,0.3923,NA,NA,NA,NA,NA,"乐观","e","",NA,1,77,157,14,1,"",NA,"",NA,NA,NA,NA,NA,NA,NA,"",NA,"",NA,NA,NA,NA,NA,NA,NA,"","","",NA,"",NA,NA,NA,NA,NA,NA,NA,"",NA,"12"
"",NA,"",NA,"",NA,NA,NA,NA,NA,NA,NA,"","",1,1,"2024-08-23_17h27.05.449","IAT(Formal)","2021.2.3","Win32",178.5714286,"",NA,"",NA,NA,NA,NA,NA,NA,NA,"","","",NA,"i",1,0.4329,NA,NA,NA,NA,NA,"冒失","i","",NA,1,78,158,39,1,"",NA,"",NA,NA,NA,NA,NA,NA,NA,"",NA,"",NA,NA,NA,NA,NA,NA,NA,"","","",NA,"",NA,NA,NA,NA,NA,NA,NA,"",NA,"12"
"",NA,"",NA,"",NA,NA,NA,NA,NA,NA,NA,"","",1,1,"2024-08-23_17h27.05.449","IAT(Formal)","2021.2.3","Win32",178.5714286,"",NA,"",NA,NA,NA,NA,NA,NA,NA,"","","",NA,"i",1,0.4363,NA,NA,NA,NA,NA,"他","i","",NA,1,79,159,5,1,"",NA,"",NA,NA,NA,NA,NA,NA,NA,"",NA,"",NA,NA,NA,NA,NA,NA,NA,"","","",NA,"",NA,NA,NA,NA,NA,NA,NA,"",NA,"12"
"",NA,"",NA,"",NA,NA,NA,NA,NA,NA,NA,"我们","i",1,1,"2024-08-23_17h27.05.449","IAT(Formal)","2021.2.3","Win32",178.5714286,"",NA,"",NA,NA,NA,NA,NA,NA,NA,"","","",NA,"",NA,NA,NA,NA,NA,NA,NA,"","","",NA,NA,NA,NA,NA,NA,"space",152.8173,"i",1,0.7382,0,0,0,2,1,"",NA,"",NA,NA,NA,NA,NA,NA,NA,"","","",NA,"",NA,NA,NA,NA,NA,NA,NA,"",NA,"12"
"",NA,"",NA,"",NA,NA,NA,NA,NA,NA,NA,"其他","e",1,1,"2024-08-23_17h27.05.449","IAT(Formal)","2021.2.3","Win32",178.5714286,"",NA,"",NA,NA,NA,NA,NA,NA,NA,"","","",NA,"",NA,NA,NA,NA,NA,NA,NA,"","","",NA,NA,NA,NA,NA,NA,"",NA,"e",1,0.6197,0,1,1,9,1,"",NA,"",NA,NA,NA,NA,NA,NA,NA,"","","",NA,"",NA,NA,NA,NA,NA,NA,NA,"",NA,"12"
"",NA,"",NA,"",NA,NA,NA,NA,NA,NA,NA,"自己","i",1,1,"2024-08-23_17h27.05.449","IAT(Formal)","2021.2.3","Win32",178.5714286,"",NA,"",NA,NA,NA,NA,NA,NA,NA,"","","",NA,"",NA,NA,NA,NA,NA,NA,NA,"","","",NA,NA,NA,NA,NA,NA,"",NA,"i",1,0.6438,0,2,2,3,1,"",NA,"",NA,NA,NA,NA,NA,NA,NA,"","","",NA,"",NA,NA,NA,NA,NA,NA,NA,"",NA,"12"
"",NA,"",NA,"",NA,NA,NA,NA,NA,NA,NA,"我","i",1,1,"2024-08-23_17h27.05.449","IAT(Formal)","2021.2.3","Win32",178.5714286,"",NA,"",NA,NA,NA,NA,NA,NA,NA,"","","",NA,"",NA,NA,NA,NA,NA,NA,NA,"","","",NA,NA,NA,NA,NA,NA,"",NA,"i",1,0.5068,0,3,3,0,1,"",NA,"",NA,NA,NA,NA,NA,NA,NA,"","","",NA,"",NA,NA,NA,NA,NA,NA,NA,"",NA,"12"
"",NA,"",NA,"",NA,NA,NA,NA,NA,NA,NA,"他","e",1,1,"2024-08-23_17h27.05.449","IAT(Formal)","2021.2.3","Win32",178.5714286,"",NA,"",NA,NA,NA,NA,NA,NA,NA,"","","",NA,"",NA,NA,NA,NA,NA,NA,NA,"","","",NA,NA,NA,NA,NA,NA,"",NA,"e",1,0.659,0,4,4,5,1,"",NA,"",NA,NA,NA,NA,NA,NA,NA,"","","",NA,"",NA,NA,NA,NA,NA,NA,NA,"",NA,"12"
"",NA,"",NA,"",NA,NA,NA,NA,NA,NA,NA,"他们","e",1,1,"2024-08-23_17h27.05.449","IAT(Formal)","2021.2.3","Win32",178.5714286,"",NA,"",NA,NA,NA,NA,NA,NA,NA,"","","",NA,"",NA,NA,NA,NA,NA,NA,NA,"","","",NA,NA,NA,NA,NA,NA,"",NA,"e",1,0.871,0,5,5,6,1,"",NA,"",NA,NA,NA,NA,NA,NA,NA,"","","",NA,"",NA,NA,NA,NA,NA,NA,NA,"",NA,"12"
"",NA,"",NA,"",NA,NA,NA,NA,NA,NA,NA,"我的","i",1,1,"2024-08-23_17h27.05.449","IAT(Formal)","2021.2.3","Win32",178.5714286,"",NA,"",NA,NA,NA,NA,NA,NA,NA,"","","",NA,"",NA,NA,NA,NA,NA,NA,NA,"","","",NA,NA,NA,NA,NA,NA,"",NA,"i",1,0.6151,0,6,6,1,1,"",NA,"",NA,NA,NA,NA,NA,NA,NA,"","","",NA,"",NA,NA,NA,NA,NA,NA,NA,"",NA,"12"
"",NA,"",NA,"",NA,NA,NA,NA,NA,NA,NA,"俺","i",1,1,"2024-08-23_17h27.05.449","IAT(Formal)","2021.2.3","Win32",178.5714286,"",NA,"",NA,NA,NA,NA,NA,NA,NA,"","","",NA,"",NA,NA,NA,NA,NA,NA,NA,"","","",NA,NA,NA,NA,NA,NA,"",NA,"i",1,0.5941,0,7,7,4,1,"",NA,"",NA,NA,NA,NA,NA,NA,NA,"","","",NA,"",NA,NA,NA,NA,NA,NA,NA,"",NA,"12"
"",NA,"",NA,"",NA,NA,NA,NA,NA,NA,NA,"他人","e",1,1,"2024-08-23_17h27.05.449","IAT(Formal)","2021.2.3","Win32",178.5714286,"",NA,"",NA,NA,NA,NA,NA,NA,NA,"","","",NA,"",NA,NA,NA,NA,NA,NA,NA,"","","",NA,NA,NA,NA,NA,NA,"",NA,"e",1,0.615,0,8,8,8,1,"",NA,"",NA,NA,NA,NA,NA,NA,NA,"","","",NA,"",NA,NA,NA,NA,NA,NA,NA,"",NA,"12"
"",NA,"",NA,"",NA,NA,NA,NA,NA,NA,NA,"他的","e",1,1,"2024-08-23_17h27.05.449","IAT(Formal)","2021.2.3","Win32",178.5714286,"",NA,"",NA,NA,NA,NA,NA,NA,NA,"","","",NA,"",NA,NA,NA,NA,NA,NA,NA,"","","",NA,NA,NA,NA,NA,NA,"",NA,"e",1,0.6702,0,9,9,7,1,"",NA,"",NA,NA,NA,NA,NA,NA,NA,"","","",NA,"",NA,NA,NA,NA,NA,NA,NA,"",NA,"12"
"",NA,"",NA,"",NA,NA,NA,NA,NA,NA,NA,"","",1,1,"2024-08-23_17h27.05.449","IAT(Formal)","2021.2.3","Win32",178.5714286,"",NA,"",NA,NA,NA,NA,NA,NA,NA,"","","",NA,"",NA,NA,NA,NA,NA,NA,NA,"","","",NA,NA,NA,NA,NA,NA,"",NA,"",NA,NA,NA,NA,NA,NA,NA,"space",406.789,"e",1,0.5738,0,0,0,57,1,"他的","e","",NA,"",NA,NA,NA,NA,NA,NA,NA,"",NA,"12"
"",NA,"",NA,"",NA,NA,NA,NA,NA,NA,NA,"","",1,1,"2024-08-23_17h27.05.449","IAT(Formal)","2021.2.3","Win32",178.5714286,"",NA,"",NA,NA,NA,NA,NA,NA,NA,"","","",NA,"",NA,NA,NA,NA,NA,NA,NA,"","","",NA,NA,NA,NA,NA,NA,"",NA,"",NA,NA,NA,NA,NA,NA,NA,"",NA,"e",1,0.4247,0,1,1,28,1,"活泼","e","",NA,"",NA,NA,NA,NA,NA,NA,NA,"",NA,"12"
"",NA,"",NA,"",NA,NA,NA,NA,NA,NA,NA,"","",1,1,"2024-08-23_17h27.05.449","IAT(Formal)","2021.2.3","Win32",178.5714286,"",NA,"",NA,NA,NA,NA,NA,NA,NA,"","","",NA,"",NA,NA,NA,NA,NA,NA,NA,"","","",NA,NA,NA,NA,NA,NA,"",NA,"",NA,NA,NA,NA,NA,NA,NA,"",NA,"i",0,0.7838,0,2,2,23,1,"公正","e","",NA,"",NA,NA,NA,NA,NA,NA,NA,"",NA,"12"
"",NA,"",NA,"",NA,NA,NA,NA,NA,NA,NA,"","",1,1,"2024-08-23_17h27.05.449","IAT(Formal)","2021.2.3","Win32",178.5714286,"",NA,"",NA,NA,NA,NA,NA,NA,NA,"","","",NA,"",NA,NA,NA,NA,NA,NA,NA,"","","",NA,NA,NA,NA,NA,NA,"",NA,"",NA,NA,NA,NA,NA,NA,NA,"",NA,"i",1,0.5708,0,3,3,70,1,"我","i","",NA,"",NA,NA,NA,NA,NA,NA,NA,"",NA,"12"
"",NA,"",NA,"",NA,NA,NA,NA,NA,NA,NA,"","",1,1,"2024-08-23_17h27.05.449","IAT(Formal)","2021.2.3","Win32",178.5714286,"",NA,"",NA,NA,NA,NA,NA,NA,NA,"","","",NA,"",NA,NA,NA,NA,NA,NA,NA,"","","",NA,NA,NA,NA,NA,NA,"",NA,"",NA,NA,NA,NA,NA,NA,NA,"",NA,"i",1,0.4983,0,4,4,43,1,"自私","i","",NA,"",NA,NA,NA,NA,NA,NA,NA,"",NA,"12"
