﻿Instruction1.keys,Instruction1.rt,Instruction2.keys,Instruction2.rt,key_resp_iso.keys,key_resp_iso.corr,key_resp_iso.rt,Practice_01.thisRepN,Practice_01.thisTrialN,Practice_01.thisN,Practice_01.thisIndex,Practice_01.ran,Words,ans,participant,session,date,expName,psychopyVersion,OS,frameRate,key_resp_3.keys,key_resp_3.rt,key_resp_ipn.keys,key_resp_ipn.corr,key_resp_ipn.rt,Practice_02.thisRepN,Practice_02.thisTrialN,Practice_02.thisN,Practice_02.thisIndex,Practice_02.ran,Words_ipn,ans_ipn,key_resp_4.keys,key_resp_4.rt,key_resp_t1.keys,key_resp_t1.corr,key_resp_t1.rt,Practice_T1.thisRepN,Practice_T1.thisTrialN,Practice_T1.thisN,Practice_T1.thisIndex,Practice_T1.ran,Words_t1,ans_t1,key_resp_5.keys,key_resp_5.rt,Formal_T1.thisRepN,Formal_T1.thisTrialN,Formal_T1.thisN,Formal_T1.thisIndex,Formal_T1.ran,key_resp_6.keys,key_resp_6.rt,key_resp_iso_reverse.keys,key_resp_iso_reverse.corr,key_resp_iso_reverse.rt,Practice_iso_Reverse.thisRepN,Practice_iso_Reverse.thisTrialN,Practice_iso_Reverse.thisN,Practice_iso_Reverse.thisIndex,Practice_iso_Reverse.ran,key_resp_7.keys,key_resp_7.rt,key_resp_t2_Practice.keys,key_resp_t2_Practice.corr,key_resp_t2_Practice.rt,Practice_t2_Reverse.thisRepN,Practice_t2_Reverse.thisTrialN,Practice_t2_Reverse.thisN,Practice_t2_Reverse.thisIndex,Practice_t2_Reverse.ran,Words_t2,ans_t2,key_resp_8.keys,key_resp_8.rt,key_resp_t2.keys,key_resp_t2.corr,key_resp_t2.rt,Formal_t2_reverse.thisRepN,Formal_t2_reverse.thisTrialN,Formal_t2_reverse.thisN,Formal_t2_reverse.thisIndex,Formal_t2_reverse.ran,key_instruct.keys,key_instruct.rt
space,5.2319,space,8.6775,i,1,0.6423,0,0,0,6,1,他们,i,1,001,2024-08-23_18h48.26.537,IAT(Formal),2021.2.3,Win32,59.52380952,,,,,,,,,,,,,,,,,,,,,,,,,,,,,,,,,,,,,,,,,,,,,,,,,,,,,,,,,,,,,,,,,
,,,,i,1,0.5021,0,1,1,8,1,他人,i,1,001,2024-08-23_18h48.26.537,IAT(Formal),2021.2.3,Win32,59.52380952,,,,,,,,,,,,,,,,,,,,,,,,,,,,,,,,,,,,,,,,,,,,,,,,,,,,,,,,,,,,,,,,,
,,,,i,1,0.5707,0,2,2,9,1,其他,i,1,001,2024-08-23_18h48.26.537,IAT(Formal),2021.2.3,Win32,59.52380952,,,,,,,,,,,,,,,,,,,,,,,,,,,,,,,,,,,,,,,,,,,,,,,,,,,,,,,,,,,,,,,,,
,,,,e,1,0.4895,0,3,3,1,1,我的,e,1,001,2024-08-23_18h48.26.537,IAT(Formal),2021.2.3,Win32,59.52380952,,,,,,,,,,,,,,,,,,,,,,,,,,,,,,,,,,,,,,,,,,,,,,,,,,,,,,,,,,,,,,,,,
,,,,e,1,0.518,0,4,4,4,1,俺,e,1,001,2024-08-23_18h48.26.537,IAT(Formal),2021.2.3,Win32,59.52380952,,,,,,,,,,,,,,,,,,,,,,,,,,,,,,,,,,,,,,,,,,,,,,,,,,,,,,,,,,,,,,,,,
,,,,e,1,0.3588,0,5,5,3,1,自己,e,1,001,2024-08-23_18h48.26.537,IAT(Formal),2021.2.3,Win32,59.52380952,,,,,,,,,,,,,,,,,,,,,,,,,,,,,,,,,,,,,,,,,,,,,,,,,,,,,,,,,,,,,,,,,
,,,,e,1,0.4966,0,6,6,0,1,我,e,1,001,2024-08-23_18h48.26.537,IAT(Formal),2021.2.3,Win32,59.52380952,,,,,,,,,,,,,,,,,,,,,,,,,,,,,,,,,,,,,,,,,,,,,,,,,,,,,,,,,,,,,,,,,
,,,,i,1,0.5845,0,7,7,7,1,他的,i,1,001,2024-08-23_18h48.26.537,IAT(Formal),2021.2.3,Win32,59.52380952,,,,,,,,,,,,,,,,,,,,,,,,,,,,,,,,,,,,,,,,,,,,,,,,,,,,,,,,,,,,,,,,,
,,,,i,1,0.4397,0,8,8,5,1,他,i,1,001,2024-08-23_18h48.26.537,IAT(Formal),2021.2.3,Win32,59.52380952,,,,,,,,,,,,,,,,,,,,,,,,,,,,,,,,,,,,,,,,,,,,,,,,,,,,,,,,,,,,,,,,,
,,,,e,1,0.5023,0,9,9,2,1,我们,e,1,001,2024-08-23_18h48.26.537,IAT(Formal),2021.2.3,Win32,59.52380952,,,,,,,,,,,,,,,,,,,,,,,,,,,,,,,,,,,,,,,,,,,,,,,,,,,,,,,,,,,,,,,,,
,,,,,,,,,,,,,,1,001,2024-08-23_18h48.26.537,IAT(Formal),2021.2.3,Win32,59.52380952,space,4.2908,i,1,0.5768,0,0,0,37,1,固执,i,,,,,,,,,,,,,,,,,,,,,,,,,,,,,,,,,,,,,,,,,,,,,,,,,,,,,
,,,,,,,,,,,,,,1,001,2024-08-23_18h48.26.537,IAT(Formal),2021.2.3,Win32,59.52380952,,,e,1,0.4621,0,1,1,8,1,勤奋,e,,,,,,,,,,,,,,,,,,,,,,,,,,,,,,,,,,,,,,,,,,,,,,,,,,,,,
,,,,,,,,,,,,,,1,001,2024-08-23_18h48.26.537,IAT(Formal),2021.2.3,Win32,59.52380952,,,e,1,0.432,0,2,2,19,1,诚恳,e,,,,,,,,,,,,,,,,,,,,,,,,,,,,,,,,,,,,,,,,,,,,,,,,,,,,,
,,,,,,,,,,,,,,1,001,2024-08-23_18h48.26.537,IAT(Formal),2021.2.3,Win32,59.52380952,,,e,1,0.5235,0,3,3,10,1,认真,e,,,,,,,,,,,,,,,,,,,,,,,,,,,,,,,,,,,,,,,,,,,,,,,,,,,,,
,,,,,,,,,,,,,,1,001,2024-08-23_18h48.26.537,IAT(Formal),2021.2.3,Win32,59.52380952,,,i,1,0.7624,0,4,4,23,1,刻薄,i,,,,,,,,,,,,,,,,,,,,,,,,,,,,,,,,,,,,,,,,,,,,,,,,,,,,,
,,,,,,,,,,,,,,1,001,2024-08-23_18h48.26.537,IAT(Formal),2021.2.3,Win32,59.52380952,,,i,1,0.5575,0,5,5,22,1,愚蠢,i,,,,,,,,,,,,,,,,,,,,,,,,,,,,,,,,,,,,,,,,,,,,,,,,,,,,,
,,,,,,,,,,,,,,1,001,2024-08-23_18h48.26.537,IAT(Formal),2021.2.3,Win32,59.52380952,,,e,1,0.6346,0,6,6,11,1,稳重,e,,,,,,,,,,,,,,,,,,,,,,,,,,,,,,,,,,,,,,,,,,,,,,,,,,,,,
,,,,,,,,,,,,,,1,001,2024-08-23_18h48.26.537,IAT(Formal),2021.2.3,Win32,59.52380952,,,e,0,0.5375,0,7,7,27,1,傲慢,i,,,,,,,,,,,,,,,,,,,,,,,,,,,,,,,,,,,,,,,,,,,,,,,,,,,,,
,,,,,,,,,,,,,,1,001,2024-08-23_18h48.26.537,IAT(Formal),2021.2.3,Win32,59.52380952,,,e,1,0.5985,0,8,8,5,1,诚实,e,,,,,,,,,,,,,,,,,,,,,,,,,,,,,,,,,,,,,,,,,,,,,,,,,,,,,
,,,,,,,,,,,,,,1,001,2024-08-23_18h48.26.537,IAT(Formal),2021.2.3,Win32,59.52380952,,,i,1,0.5312,0,9,9,30,1,执拗,i,,,,,,,,,,,,,,,,,,,,,,,,,,,,,,,,,,,,,,,,,,,,,,,,,,,,,
,,,,,,,,,,,,,,1,001,2024-08-23_18h48.26.537,IAT(Formal),2021.2.3,Win32,59.52380952,,,e,1,0.4753,0,10,10,3,1,杰出,e,,,,,,,,,,,,,,,,,,,,,,,,,,,,,,,,,,,,,,,,,,,,,,,,,,,,,
,,,,,,,,,,,,,,1,001,2024-08-23_18h48.26.537,IAT(Formal),2021.2.3,Win32,59.52380952,,,e,1,0.5253,0,11,11,0,1,优秀,e,,,,,,,,,,,,,,,,,,,,,,,,,,,,,,,,,,,,,,,,,,,,,,,,,,,,,
,,,,,,,,,,,,,,1,001,2024-08-23_18h48.26.537,IAT(Formal),2021.2.3,Win32,59.52380952,,,i,1,0.5716,0,12,12,24,1,悲观,i,,,,,,,,,,,,,,,,,,,,,,,,,,,,,,,,,,,,,,,,,,,,,,,,,,,,,
,,,,,,,,,,,,,,1,001,2024-08-23_18h48.26.537,IAT(Formal),2021.2.3,Win32,59.52380952,,,e,1,0.495,0,13,13,13,1,公正,e,,,,,,,,,,,,,,,,,,,,,,,,,,,,,,,,,,,,,,,,,,,,,,,,,,,,,
,,,,,,,,,,,,,,1,001,2024-08-23_18h48.26.537,IAT(Formal),2021.2.3,Win32,59.52380952,,,i,1,0.6311,0,14,14,21,1,虚伪,i,,,,,,,,,,,,,,,,,,,,,,,,,,,,,,,,,,,,,,,,,,,,,,,,,,,,,
,,,,,,,,,,,,,,1,001,2024-08-23_18h48.26.537,IAT(Formal),2021.2.3,Win32,59.52380952,,,e,1,0.4573,0,15,15,1,1,崇高,e,,,,,,,,,,,,,,,,,,,,,,,,,,,,,,,,,,,,,,,,,,,,,,,,,,,,,
,,,,,,,,,,,,,,1,001,2024-08-23_18h48.26.537,IAT(Formal),2021.2.3,Win32,59.52380952,,,i,0,0.4965,0,16,16,12,1,无私,e,,,,,,,,,,,,,,,,,,,,,,,,,,,,,,,,,,,,,,,,,,,,,,,,,,,,,
,,,,,,,,,,,,,,1,001,2024-08-23_18h48.26.537,IAT(Formal),2021.2.3,Win32,59.52380952,,,e,1,0.5095,0,17,17,17,1,热情,e,,,,,,,,,,,,,,,,,,,,,,,,,,,,,,,,,,,,,,,,,,,,,,,,,,,,,
,,,,,,,,,,,,,,1,001,2024-08-23_18h48.26.537,IAT(Formal),2021.2.3,Win32,59.52380952,,,e,1,0.4459,0,18,18,6,1,正直,e,,,,,,,,,,,,,,,,,,,,,,,,,,,,,,,,,,,,,,,,,,,,,,,,,,,,,
,,,,,,,,,,,,,,1,001,2024-08-23_18h48.26.537,IAT(Formal),2021.2.3,Win32,59.52380952,,,i,1,0.7254,0,19,19,20,1,卑鄙,i,,,,,,,,,,,,,,,,,,,,,,,,,,,,,,,,,,,,,,,,,,,,,,,,,,,,,
,,,,,,,,,,,,,,1,001,2024-08-23_18h48.26.537,IAT(Formal),2021.2.3,Win32,59.52380952,,,i,1,0.4864,0,20,20,36,1,野蛮,i,,,,,,,,,,,,,,,,,,,,,,,,,,,,,,,,,,,,,,,,,,,,,,,,,,,,,
,,,,,,,,,,,,,,1,001,2024-08-23_18h48.26.537,IAT(Formal),2021.2.3,Win32,59.52380952,,,e,0,0.5252,0,21,21,31,1,散漫,i,,,,,,,,,,,,,,,,,,,,,,,,,,,,,,,,,,,,,,,,,,,,,,,,,,,,,
,,,,,,,,,,,,,,1,001,2024-08-23_18h48.26.537,IAT(Formal),2021.2.3,Win32,59.52380952,,,e,1,0.5228,0,22,22,4,1,乐观,e,,,,,,,,,,,,,,,,,,,,,,,,,,,,,,,,,,,,,,,,,,,,,,,,,,,,,
,,,,,,,,,,,,,,1,001,2024-08-23_18h48.26.537,IAT(Formal),2021.2.3,Win32,59.52380952,,,i,1,0.5754,0,23,23,25,1,消极,i,,,,,,,,,,,,,,,,,,,,,,,,,,,,,,,,,,,,,,,,,,,,,,,,,,,,,
,,,,,,,,,,,,,,1,001,2024-08-23_18h48.26.537,IAT(Formal),2021.2.3,Win32,59.52380952,,,i,1,0.4705,0,24,24,32,1,凶狠,i,,,,,,,,,,,,,,,,,,,,,,,,,,,,,,,,,,,,,,,,,,,,,,,,,,,,,
,,,,,,,,,,,,,,1,001,2024-08-23_18h48.26.537,IAT(Formal),2021.2.3,Win32,59.52380952,,,e,1,0.5964,0,25,25,16,1,冷静,e,,,,,,,,,,,,,,,,,,,,,,,,,,,,,,,,,,,,,,,,,,,,,,,,,,,,,
,,,,,,,,,,,,,,1,001,2024-08-23_18h48.26.537,IAT(Formal),2021.2.3,Win32,59.52380952,,,e,1,0.4394,0,26,26,7,1,勇敢,e,,,,,,,,,,,,,,,,,,,,,,,,,,,,,,,,,,,,,,,,,,,,,,,,,,,,,
,,,,,,,,,,,,,,1,001,2024-08-23_18h48.26.537,IAT(Formal),2021.2.3,Win32,59.52380952,,,e,0,0.6511,0,27,27,38,1,轻率,i,,,,,,,,,,,,,,,,,,,,,,,,,,,,,,,,,,,,,,,,,,,,,,,,,,,,,
,,,,,,,,,,,,,,1,001,2024-08-23_18h48.26.537,IAT(Formal),2021.2.3,Win32,59.52380952,,,i,1,0.6863,0,28,28,33,1,自私,i,,,,,,,,,,,,,,,,,,,,,,,,,,,,,,,,,,,,,,,,,,,,,,,,,,,,,
,,,,,,,,,,,,,,1,001,2024-08-23_18h48.26.537,IAT(Formal),2021.2.3,Win32,59.52380952,,,e,1,0.6516,0,29,29,15,1,细腻,e,,,,,,,,,,,,,,,,,,,,,,,,,,,,,,,,,,,,,,,,,,,,,,,,,,,,,
,,,,,,,,,,,,,,1,001,2024-08-23_18h48.26.537,IAT(Formal),2021.2.3,Win32,59.52380952,,,i,1,0.568,0,30,30,39,1,下贱,i,,,,,,,,,,,,,,,,,,,,,,,,,,,,,,,,,,,,,,,,,,,,,,,,,,,,,
,,,,,,,,,,,,,,1,001,2024-08-23_18h48.26.537,IAT(Formal),2021.2.3,Win32,59.52380952,,,i,1,0.6255,0,31,31,28,1,鲁莽,i,,,,,,,,,,,,,,,,,,,,,,,,,,,,,,,,,,,,,,,,,,,,,,,,,,,,,
,,,,,,,,,,,,,,1,001,2024-08-23_18h48.26.537,IAT(Formal),2021.2.3,Win32,59.52380952,,,i,1,0.5188,0,32,32,34,1,暴躁,i,,,,,,,,,,,,,,,,,,,,,,,,,,,,,,,,,,,,,,,,,,,,,,,,,,,,,
,,,,,,,,,,,,,,1,001,2024-08-23_18h48.26.537,IAT(Formal),2021.2.3,Win32,59.52380952,,,e,1,0.546,0,33,33,9,1,机智,e,,,,,,,,,,,,,,,,,,,,,,,,,,,,,,,,,,,,,,,,,,,,,,,,,,,,,
,,,,,,,,,,,,,,1,001,2024-08-23_18h48.26.537,IAT(Formal),2021.2.3,Win32,59.52380952,,,i,1,0.6876,0,34,34,29,1,冒失,i,,,,,,,,,,,,,,,,,,,,,,,,,,,,,,,,,,,,,,,,,,,,,,,,,,,,,
,,,,,,,,,,,,,,1,001,2024-08-23_18h48.26.537,IAT(Formal),2021.2.3,Win32,59.52380952,,,i,1,0.5023,0,35,35,35,1,猖狂,i,,,,,,,,,,,,,,,,,,,,,,,,,,,,,,,,,,,,,,,,,,,,,,,,,,,,,
,,,,,,,,,,,,,,1,001,2024-08-23_18h48.26.537,IAT(Formal),2021.2.3,Win32,59.52380952,,,e,1,0.4922,0,36,36,18,1,活泼,e,,,,,,,,,,,,,,,,,,,,,,,,,,,,,,,,,,,,,,,,,,,,,,,,,,,,,
,,,,,,,,,,,,,,1,001,2024-08-23_18h48.26.537,IAT(Formal),2021.2.3,Win32,59.52380952,,,e,1,0.5571,0,37,37,14,1,朴实,e,,,,,,,,,,,,,,,,,,,,,,,,,,,,,,,,,,,,,,,,,,,,,,,,,,,,,
,,,,,,,,,,,,,,1,001,2024-08-23_18h48.26.537,IAT(Formal),2021.2.3,Win32,59.52380952,,,i,1,0.4364,0,38,38,26,1,自卑,i,,,,,,,,,,,,,,,,,,,,,,,,,,,,,,,,,,,,,,,,,,,,,,,,,,,,,
,,,,,,,,,,,,,,1,001,2024-08-23_18h48.26.537,IAT(Formal),2021.2.3,Win32,59.52380952,,,e,1,0.5009,0,39,39,2,1,聪明,e,,,,,,,,,,,,,,,,,,,,,,,,,,,,,,,,,,,,,,,,,,,,,,,,,,,,,
,,,,,,,,,,,,,,1,001,2024-08-23_18h48.26.537,IAT(Formal),2021.2.3,Win32,59.52380952,,,,,,,,,,,,,space,7.8203,e,1,0.4896,0,0,0,4,1,俺,e,,,,,,,,,,,,,,,,,,,,,,,,,,,,,,,,,,,,,,,,,
,,,,,,,,,,,,,,1,001,2024-08-23_18h48.26.537,IAT(Formal),2021.2.3,Win32,59.52380952,,,,,,,,,,,,,,,e,0,0.538,0,1,1,7,1,他的,i,,,,,,,,,,,,,,,,,,,,,,,,,,,,,,,,,,,,,,,,,
,,,,,,,,,,,,,,1,001,2024-08-23_18h48.26.537,IAT(Formal),2021.2.3,Win32,59.52380952,,,,,,,,,,,,,,,i,1,0.5911,0,2,2,76,1,他们,i,,,,,,,,,,,,,,,,,,,,,,,,,,,,,,,,,,,,,,,,,
,,,,,,,,,,,,,,1,001,2024-08-23_18h48.26.537,IAT(Formal),2021.2.3,Win32,59.52380952,,,,,,,,,,,,,,,e,1,0.7313,0,3,3,26,1,冷静,e,,,,,,,,,,,,,,,,,,,,,,,,,,,,,,,,,,,,,,,,,
,,,,,,,,,,,,,,1,001,2024-08-23_18h48.26.537,IAT(Formal),2021.2.3,Win32,59.52380952,,,,,,,,,,,,,,,e,1,0.5325,0,4,4,16,1,正直,e,,,,,,,,,,,,,,,,,,,,,,,,,,,,,,,,,,,,,,,,,
,,,,,,,,,,,,,,1,001,2024-08-23_18h48.26.537,IAT(Formal),2021.2.3,Win32,59.52380952,,,,,,,,,,,,,,,i,1,0.6195,0,5,5,30,1,卑鄙,i,,,,,,,,,,,,,,,,,,,,,,,,,,,,,,,,,,,,,,,,,
,,,,,,,,,,,,,,1,001,2024-08-23_18h48.26.537,IAT(Formal),2021.2.3,Win32,59.52380952,,,,,,,,,,,,,,,e,1,0.5625,0,6,6,3,1,自己,e,,,,,,,,,,,,,,,,,,,,,,,,,,,,,,,,,,,,,,,,,
,,,,,,,,,,,,,,1,001,2024-08-23_18h48.26.537,IAT(Formal),2021.2.3,Win32,59.52380952,,,,,,,,,,,,,,,i,1,0.7864,0,7,7,47,1,固执,i,,,,,,,,,,,,,,,,,,,,,,,,,,,,,,,,,,,,,,,,,
,,,,,,,,,,,,,,1,001,2024-08-23_18h48.26.537,IAT(Formal),2021.2.3,Win32,59.52380952,,,,,,,,,,,,,,,i,1,0.5348,0,8,8,8,1,他人,i,,,,,,,,,,,,,,,,,,,,,,,,,,,,,,,,,,,,,,,,,
,,,,,,,,,,,,,,1,001,2024-08-23_18h48.26.537,IAT(Formal),2021.2.3,Win32,59.52380952,,,,,,,,,,,,,,,e,1,0.5538,0,9,9,60,1,我,e,,,,,,,,,,,,,,,,,,,,,,,,,,,,,,,,,,,,,,,,,
,,,,,,,,,,,,,,1,001,2024-08-23_18h48.26.537,IAT(Formal),2021.2.3,Win32,59.52380952,,,,,,,,,,,,,,,i,1,0.6034,0,10,10,39,1,冒失,i,,,,,,,,,,,,,,,,,,,,,,,,,,,,,,,,,,,,,,,,,
,,,,,,,,,,,,,,1,001,2024-08-23_18h48.26.537,IAT(Formal),2021.2.3,Win32,59.52380952,,,,,,,,,,,,,,,e,1,0.5678,0,11,11,29,1,诚恳,e,,,,,,,,,,,,,,,,,,,,,,,,,,,,,,,,,,,,,,,,,
,,,,,,,,,,,,,,1,001,2024-08-23_18h48.26.537,IAT(Formal),2021.2.3,Win32,59.52380952,,,,,,,,,,,,,,,i,1,0.6729,0,12,12,75,1,他,i,,,,,,,,,,,,,,,,,,,,,,,,,,,,,,,,,,,,,,,,,
,,,,,,,,,,,,,,1,001,2024-08-23_18h48.26.537,IAT(Formal),2021.2.3,Win32,59.52380952,,,,,,,,,,,,,,,e,1,0.6253,0,13,13,14,1,乐观,e,,,,,,,,,,,,,,,,,,,,,,,,,,,,,,,,,,,,,,,,,
,,,,,,,,,,,,,,1,001,2024-08-23_18h48.26.537,IAT(Formal),2021.2.3,Win32,59.52380952,,,,,,,,,,,,,,,e,1,0.4769,0,14,14,64,1,俺,e,,,,,,,,,,,,,,,,,,,,,,,,,,,,,,,,,,,,,,,,,
,,,,,,,,,,,,,,1,001,2024-08-23_18h48.26.537,IAT(Formal),2021.2.3,Win32,59.52380952,,,,,,,,,,,,,,,i,1,0.5525,0,15,15,36,1,自卑,i,,,,,,,,,,,,,,,,,,,,,,,,,,,,,,,,,,,,,,,,,
,,,,,,,,,,,,,,1,001,2024-08-23_18h48.26.537,IAT(Formal),2021.2.3,Win32,59.52380952,,,,,,,,,,,,,,,e,1,0.5379,0,16,16,10,1,优秀,e,,,,,,,,,,,,,,,,,,,,,,,,,,,,,,,,,,,,,,,,,
,,,,,,,,,,,,,,1,001,2024-08-23_18h48.26.537,IAT(Formal),2021.2.3,Win32,59.52380952,,,,,,,,,,,,,,,e,1,0.5439,0,17,17,21,1,稳重,e,,,,,,,,,,,,,,,,,,,,,,,,,,,,,,,,,,,,,,,,,
,,,,,,,,,,,,,,1,001,2024-08-23_18h48.26.537,IAT(Formal),2021.2.3,Win32,59.52380952,,,,,,,,,,,,,,,e,1,0.5686,0,18,18,52,1,我们,e,,,,,,,,,,,,,,,,,,,,,,,,,,,,,,,,,,,,,,,,,
,,,,,,,,,,,,,,1,001,2024-08-23_18h48.26.537,IAT(Formal),2021.2.3,Win32,59.52380952,,,,,,,,,,,,,,,e,1,0.4963,0,19,19,15,1,诚实,e,,,,,,,,,,,,,,,,,,,,,,,,,,,,,,,,,,,,,,,,,
,,,,,,,,,,,,,,1,001,2024-08-23_18h48.26.537,IAT(Formal),2021.2.3,Win32,59.52380952,,,,,,,,,,,,,,,e,1,0.5517,0,20,20,12,1,聪明,e,,,,,,,,,,,,,,,,,,,,,,,,,,,,,,,,,,,,,,,,,
,,,,,,,,,,,,,,1,001,2024-08-23_18h48.26.537,IAT(Formal),2021.2.3,Win32,59.52380952,,,,,,,,,,,,,,,i,1,0.6904,0,21,21,49,1,下贱,i,,,,,,,,,,,,,,,,,,,,,,,,,,,,,,,,,,,,,,,,,
,,,,,,,,,,,,,,1,001,2024-08-23_18h48.26.537,IAT(Formal),2021.2.3,Win32,59.52380952,,,,,,,,,,,,,,,e,1,0.5465,0,22,22,62,1,我们,e,,,,,,,,,,,,,,,,,,,,,,,,,,,,,,,,,,,,,,,,,
,,,,,,,,,,,,,,1,001,2024-08-23_18h48.26.537,IAT(Formal),2021.2.3,Win32,59.52380952,,,,,,,,,,,,,,,i,1,0.4269,0,23,23,67,1,他的,i,,,,,,,,,,,,,,,,,,,,,,,,,,,,,,,,,,,,,,,,,
,,,,,,,,,,,,,,1,001,2024-08-23_18h48.26.537,IAT(Formal),2021.2.3,Win32,59.52380952,,,,,,,,,,,,,,,i,1,0.4044,0,24,24,68,1,他人,i,,,,,,,,,,,,,,,,,,,,,,,,,,,,,,,,,,,,,,,,,
,,,,,,,,,,,,,,1,001,2024-08-23_18h48.26.537,IAT(Formal),2021.2.3,Win32,59.52380952,,,,,,,,,,,,,,,e,1,0.4176,0,25,25,20,1,认真,e,,,,,,,,,,,,,,,,,,,,,,,,,,,,,,,,,,,,,,,,,
,,,,,,,,,,,,,,1,001,2024-08-23_18h48.26.537,IAT(Formal),2021.2.3,Win32,59.52380952,,,,,,,,,,,,,,,i,1,0.7345,0,26,26,34,1,悲观,i,,,,,,,,,,,,,,,,,,,,,,,,,,,,,,,,,,,,,,,,,
,,,,,,,,,,,,,,1,001,2024-08-23_18h48.26.537,IAT(Formal),2021.2.3,Win32,59.52380952,,,,,,,,,,,,,,,e,1,0.6182,0,27,27,72,1,我们,e,,,,,,,,,,,,,,,,,,,,,,,,,,,,,,,,,,,,,,,,,
,,,,,,,,,,,,,,1,001,2024-08-23_18h48.26.537,IAT(Formal),2021.2.3,Win32,59.52380952,,,,,,,,,,,,,,,i,1,0.5837,0,28,28,65,1,他,i,,,,,,,,,,,,,,,,,,,,,,,,,,,,,,,,,,,,,,,,,
,,,,,,,,,,,,,,1,001,2024-08-23_18h48.26.537,IAT(Formal),2021.2.3,Win32,59.52380952,,,,,,,,,,,,,,,i,1,0.4682,0,29,29,35,1,消极,i,,,,,,,,,,,,,,,,,,,,,,,,,,,,,,,,,,,,,,,,,
,,,,,,,,,,,,,,1,001,2024-08-23_18h48.26.537,IAT(Formal),2021.2.3,Win32,59.52380952,,,,,,,,,,,,,,,i,1,0.596,0,30,30,77,1,他的,i,,,,,,,,,,,,,,,,,,,,,,,,,,,,,,,,,,,,,,,,,
,,,,,,,,,,,,,,1,001,2024-08-23_18h48.26.537,IAT(Formal),2021.2.3,Win32,59.52380952,,,,,,,,,,,,,,,e,0,0.5352,0,31,31,33,1,刻薄,i,,,,,,,,,,,,,,,,,,,,,,,,,,,,,,,,,,,,,,,,,
,,,,,,,,,,,,,,1,001,2024-08-23_18h48.26.537,IAT(Formal),2021.2.3,Win32,59.52380952,,,,,,,,,,,,,,,i,1,0.6406,0,32,32,32,1,愚蠢,i,,,,,,,,,,,,,,,,,,,,,,,,,,,,,,,,,,,,,,,,,
,,,,,,,,,,,,,,1,001,2024-08-23_18h48.26.537,IAT(Formal),2021.2.3,Win32,59.52380952,,,,,,,,,,,,,,,i,1,0.5307,0,33,33,9,1,其他,i,,,,,,,,,,,,,,,,,,,,,,,,,,,,,,,,,,,,,,,,,
,,,,,,,,,,,,,,1,001,2024-08-23_18h48.26.537,IAT(Formal),2021.2.3,Win32,59.52380952,,,,,,,,,,,,,,,i,0,0.4278,0,34,34,70,1,我,e,,,,,,,,,,,,,,,,,,,,,,,,,,,,,,,,,,,,,,,,,
,,,,,,,,,,,,,,1,001,2024-08-23_18h48.26.537,IAT(Formal),2021.2.3,Win32,59.52380952,,,,,,,,,,,,,,,e,1,0.6012,0,35,35,23,1,公正,e,,,,,,,,,,,,,,,,,,,,,,,,,,,,,,,,,,,,,,,,,
,,,,,,,,,,,,,,1,001,2024-08-23_18h48.26.537,IAT(Formal),2021.2.3,Win32,59.52380952,,,,,,,,,,,,,,,i,1,0.5908,0,36,36,58,1,他人,i,,,,,,,,,,,,,,,,,,,,,,,,,,,,,,,,,,,,,,,,,
,,,,,,,,,,,,,,1,001,2024-08-23_18h48.26.537,IAT(Formal),2021.2.3,Win32,59.52380952,,,,,,,,,,,,,,,i,1,0.4416,0,37,37,57,1,他的,i,,,,,,,,,,,,,,,,,,,,,,,,,,,,,,,,,,,,,,,,,
,,,,,,,,,,,,,,1,001,2024-08-23_18h48.26.537,IAT(Formal),2021.2.3,Win32,59.52380952,,,,,,,,,,,,,,,e,1,0.618,0,38,38,13,1,杰出,e,,,,,,,,,,,,,,,,,,,,,,,,,,,,,,,,,,,,,,,,,
,,,,,,,,,,,,,,1,001,2024-08-23_18h48.26.537,IAT(Formal),2021.2.3,Win32,59.52380952,,,,,,,,,,,,,,,i,1,0.7372,0,39,39,46,1,野蛮,i,,,,,,,,,,,,,,,,,,,,,,,,,,,,,,,,,,,,,,,,,
,,,,,,,,,,,,,,1,001,2024-08-23_18h48.26.537,IAT(Formal),2021.2.3,Win32,59.52380952,,,,,,,,,,,,,,,i,1,0.4852,0,40,40,43,1,自私,i,,,,,,,,,,,,,,,,,,,,,,,,,,,,,,,,,,,,,,,,,
,,,,,,,,,,,,,,1,001,2024-08-23_18h48.26.537,IAT(Formal),2021.2.3,Win32,59.52380952,,,,,,,,,,,,,,,e,1,0.7116,0,41,41,24,1,朴实,e,,,,,,,,,,,,,,,,,,,,,,,,,,,,,,,,,,,,,,,,,
,,,,,,,,,,,,,,1,001,2024-08-23_18h48.26.537,IAT(Formal),2021.2.3,Win32,59.52380952,,,,,,,,,,,,,,,e,1,0.6729,0,42,42,51,1,我的,e,,,,,,,,,,,,,,,,,,,,,,,,,,,,,,,,,,,,,,,,,
,,,,,,,,,,,,,,1,001,2024-08-23_18h48.26.537,IAT(Formal),2021.2.3,Win32,59.52380952,,,,,,,,,,,,,,,i,1,0.6852,0,43,43,41,1,散漫,i,,,,,,,,,,,,,,,,,,,,,,,,,,,,,,,,,,,,,,,,,
,,,,,,,,,,,,,,1,001,2024-08-23_18h48.26.537,IAT(Formal),2021.2.3,Win32,59.52380952,,,,,,,,,,,,,,,i,0,0.6374,0,44,44,18,1,勤奋,e,,,,,,,,,,,,,,,,,,,,,,,,,,,,,,,,,,,,,,,,,
,,,,,,,,,,,,,,1,001,2024-08-23_18h48.26.537,IAT(Formal),2021.2.3,Win32,59.52380952,,,,,,,,,,,,,,,i,0,0.6039,0,45,45,22,1,无私,e,,,,,,,,,,,,,,,,,,,,,,,,,,,,,,,,,,,,,,,,,
,,,,,,,,,,,,,,1,001,2024-08-23_18h48.26.537,IAT(Formal),2021.2.3,Win32,59.52380952,,,,,,,,,,,,,,,i,1,0.7053,0,46,46,38,1,鲁莽,i,,,,,,,,,,,,,,,,,,,,,,,,,,,,,,,,,,,,,,,,,
,,,,,,,,,,,,,,1,001,2024-08-23_18h48.26.537,IAT(Formal),2021.2.3,Win32,59.52380952,,,,,,,,,,,,,,,i,1,0.5484,0,47,47,66,1,他们,i,,,,,,,,,,,,,,,,,,,,,,,,,,,,,,,,,,,,,,,,,
,,,,,,,,,,,,,,1,001,2024-08-23_18h48.26.537,IAT(Formal),2021.2.3,Win32,59.52380952,,,,,,,,,,,,,,,e,1,0.5512,0,48,48,71,1,我的,e,,,,,,,,,,,,,,,,,,,,,,,,,,,,,,,,,,,,,,,,,
,,,,,,,,,,,,,,1,001,2024-08-23_18h48.26.537,IAT(Formal),2021.2.3,Win32,59.52380952,,,,,,,,,,,,,,,e,1,0.6701,0,49,49,19,1,机智,e,,,,,,,,,,,,,,,,,,,,,,,,,,,,,,,,,,,,,,,,,
,,,,,,,,,,,,,,1,001,2024-08-23_18h48.26.537,IAT(Formal),2021.2.3,Win32,59.52380952,,,,,,,,,,,,,,,e,1,0.9259,0,50,50,11,1,崇高,e,,,,,,,,,,,,,,,,,,,,,,,,,,,,,,,,,,,,,,,,,
,,,,,,,,,,,,,,1,001,2024-08-23_18h48.26.537,IAT(Formal),2021.2.3,Win32,59.52380952,,,,,,,,,,,,,,,i,1,0.5766,0,51,51,55,1,他,i,,,,,,,,,,,,,,,,,,,,,,,,,,,,,,,,,,,,,,,,,
,,,,,,,,,,,,,,1,001,2024-08-23_18h48.26.537,IAT(Formal),2021.2.3,Win32,59.52380952,,,,,,,,,,,,,,,i,1,0.479,0,52,52,69,1,其他,i,,,,,,,,,,,,,,,,,,,,,,,,,,,,,,,,,,,,,,,,,
,,,,,,,,,,,,,,1,001,2024-08-23_18h48.26.537,IAT(Formal),2021.2.3,Win32,59.52380952,,,,,,,,,,,,,,,i,1,0.6797,0,53,53,44,1,暴躁,i,,,,,,,,,,,,,,,,,,,,,,,,,,,,,,,,,,,,,,,,,
,,,,,,,,,,,,,,1,001,2024-08-23_18h48.26.537,IAT(Formal),2021.2.3,Win32,59.52380952,,,,,,,,,,,,,,,i,1,0.8356,0,54,54,59,1,其他,i,,,,,,,,,,,,,,,,,,,,,,,,,,,,,,,,,,,,,,,,,
,,,,,,,,,,,,,,1,001,2024-08-23_18h48.26.537,IAT(Formal),2021.2.3,Win32,59.52380952,,,,,,,,,,,,,,,e,1,0.601,0,55,55,61,1,我的,e,,,,,,,,,,,,,,,,,,,,,,,,,,,,,,,,,,,,,,,,,
,,,,,,,,,,,,,,1,001,2024-08-23_18h48.26.537,IAT(Formal),2021.2.3,Win32,59.52380952,,,,,,,,,,,,,,,e,1,0.5527,0,56,56,0,1,我,e,,,,,,,,,,,,,,,,,,,,,,,,,,,,,,,,,,,,,,,,,
,,,,,,,,,,,,,,1,001,2024-08-23_18h48.26.537,IAT(Formal),2021.2.3,Win32,59.52380952,,,,,,,,,,,,,,,e,1,0.8531,0,57,57,28,1,活泼,e,,,,,,,,,,,,,,,,,,,,,,,,,,,,,,,,,,,,,,,,,
,,,,,,,,,,,,,,1,001,2024-08-23_18h48.26.537,IAT(Formal),2021.2.3,Win32,59.52380952,,,,,,,,,,,,,,,i,1,0.8059,0,58,58,45,1,猖狂,i,,,,,,,,,,,,,,,,,,,,,,,,,,,,,,,,,,,,,,,,,
,,,,,,,,,,,,,,1,001,2024-08-23_18h48.26.537,IAT(Formal),2021.2.3,Win32,59.52380952,,,,,,,,,,,,,,,i,1,0.6638,0,59,59,56,1,他们,i,,,,,,,,,,,,,,,,,,,,,,,,,,,,,,,,,,,,,,,,,
,,,,,,,,,,,,,,1,001,2024-08-23_18h48.26.537,IAT(Formal),2021.2.3,Win32,59.52380952,,,,,,,,,,,,,,,i,1,0.5029,0,60,60,48,1,轻率,i,,,,,,,,,,,,,,,,,,,,,,,,,,,,,,,,,,,,,,,,,
,,,,,,,,,,,,,,1,001,2024-08-23_18h48.26.537,IAT(Formal),2021.2.3,Win32,59.52380952,,,,,,,,,,,,,,,i,1,0.5371,0,61,61,40,1,执拗,i,,,,,,,,,,,,,,,,,,,,,,,,,,,,,,,,,,,,,,,,,
,,,,,,,,,,,,,,1,001,2024-08-23_18h48.26.537,IAT(Formal),2021.2.3,Win32,59.52380952,,,,,,,,,,,,,,,e,1,0.8267,0,62,62,27,1,热情,e,,,,,,,,,,,,,,,,,,,,,,,,,,,,,,,,,,,,,,,,,
,,,,,,,,,,,,,,1,001,2024-08-23_18h48.26.537,IAT(Formal),2021.2.3,Win32,59.52380952,,,,,,,,,,,,,,,i,1,0.669,0,63,63,79,1,其他,i,,,,,,,,,,,,,,,,,,,,,,,,,,,,,,,,,,,,,,,,,
,,,,,,,,,,,,,,1,001,2024-08-23_18h48.26.537,IAT(Formal),2021.2.3,Win32,59.52380952,,,,,,,,,,,,,,,i,1,0.6142,0,64,64,42,1,凶狠,i,,,,,,,,,,,,,,,,,,,,,,,,,,,,,,,,,,,,,,,,,
,,,,,,,,,,,,,,1,001,2024-08-23_18h48.26.537,IAT(Formal),2021.2.3,Win32,59.52380952,,,,,,,,,,,,,,,e,1,0.5879,0,65,65,1,1,我的,e,,,,,,,,,,,,,,,,,,,,,,,,,,,,,,,,,,,,,,,,,
,,,,,,,,,,,,,,1,001,2024-08-23_18h48.26.537,IAT(Formal),2021.2.3,Win32,59.52380952,,,,,,,,,,,,,,,e,1,0.8139,0,66,66,73,1,自己,e,,,,,,,,,,,,,,,,,,,,,,,,,,,,,,,,,,,,,,,,,
,,,,,,,,,,,,,,1,001,2024-08-23_18h48.26.537,IAT(Formal),2021.2.3,Win32,59.52380952,,,,,,,,,,,,,,,e,1,0.5688,0,67,67,74,1,俺,e,,,,,,,,,,,,,,,,,,,,,,,,,,,,,,,,,,,,,,,,,
,,,,,,,,,,,,,,1,001,2024-08-23_18h48.26.537,IAT(Formal),2021.2.3,Win32,59.52380952,,,,,,,,,,,,,,,e,1,0.4512,0,68,68,53,1,自己,e,,,,,,,,,,,,,,,,,,,,,,,,,,,,,,,,,,,,,,,,,
,,,,,,,,,,,,,,1,001,2024-08-23_18h48.26.537,IAT(Formal),2021.2.3,Win32,59.52380952,,,,,,,,,,,,,,,e,1,0.5272,0,69,69,17,1,勇敢,e,,,,,,,,,,,,,,,,,,,,,,,,,,,,,,,,,,,,,,,,,
,,,,,,,,,,,,,,1,001,2024-08-23_18h48.26.537,IAT(Formal),2021.2.3,Win32,59.52380952,,,,,,,,,,,,,,,i,1,0.924,0,70,70,6,1,他们,i,,,,,,,,,,,,,,,,,,,,,,,,,,,,,,,,,,,,,,,,,
,,,,,,,,,,,,,,1,001,2024-08-23_18h48.26.537,IAT(Formal),2021.2.3,Win32,59.52380952,,,,,,,,,,,,,,,e,1,0.6891,0,71,71,50,1,我,e,,,,,,,,,,,,,,,,,,,,,,,,,,,,,,,,,,,,,,,,,
,,,,,,,,,,,,,,1,001,2024-08-23_18h48.26.537,IAT(Formal),2021.2.3,Win32,59.52380952,,,,,,,,,,,,,,,i,1,0.5893,0,72,72,31,1,虚伪,i,,,,,,,,,,,,,,,,,,,,,,,,,,,,,,,,,,,,,,,,,
,,,,,,,,,,,,,,1,001,2024-08-23_18h48.26.537,IAT(Formal),2021.2.3,Win32,59.52380952,,,,,,,,,,,,,,,e,1,0.5695,0,73,73,63,1,自己,e,,,,,,,,,,,,,,,,,,,,,,,,,,,,,,,,,,,,,,,,,
,,,,,,,,,,,,,,1,001,2024-08-23_18h48.26.537,IAT(Formal),2021.2.3,Win32,59.52380952,,,,,,,,,,,,,,,i,1,0.5788,0,74,74,37,1,傲慢,i,,,,,,,,,,,,,,,,,,,,,,,,,,,,,,,,,,,,,,,,,
,,,,,,,,,,,,,,1,001,2024-08-23_18h48.26.537,IAT(Formal),2021.2.3,Win32,59.52380952,,,,,,,,,,,,,,,e,1,0.6695,0,75,75,54,1,俺,e,,,,,,,,,,,,,,,,,,,,,,,,,,,,,,,,,,,,,,,,,
,,,,,,,,,,,,,,1,001,2024-08-23_18h48.26.537,IAT(Formal),2021.2.3,Win32,59.52380952,,,,,,,,,,,,,,,i,1,0.5879,0,76,76,5,1,他,i,,,,,,,,,,,,,,,,,,,,,,,,,,,,,,,,,,,,,,,,,
,,,,,,,,,,,,,,1,001,2024-08-23_18h48.26.537,IAT(Formal),2021.2.3,Win32,59.52380952,,,,,,,,,,,,,,,e,1,0.5677,0,77,77,2,1,我们,e,,,,,,,,,,,,,,,,,,,,,,,,,,,,,,,,,,,,,,,,,
,,,,,,,,,,,,,,1,001,2024-08-23_18h48.26.537,IAT(Formal),2021.2.3,Win32,59.52380952,,,,,,,,,,,,,,,i,0,0.773,0,78,78,25,1,细腻,e,,,,,,,,,,,,,,,,,,,,,,,,,,,,,,,,,,,,,,,,,
,,,,,,,,,,,,,,1,001,2024-08-23_18h48.26.537,IAT(Formal),2021.2.3,Win32,59.52380952,,,,,,,,,,,,,,,i,1,0.4862,0,79,79,78,1,他人,i,,,,,,,,,,,,,,,,,,,,,,,,,,,,,,,,,,,,,,,,,
,,,,,,,,,,,,,,1,001,2024-08-23_18h48.26.537,IAT(Formal),2021.2.3,Win32,59.52380952,,,,,,,,,,,,,,,i,1,0.5829,,,,,,猖狂,i,space,9.024,0,0,0,45,1,,,,,,,,,,,,,,,,,,,,,,,,,,,,,,,,,,
,,,,,,,,,,,,,,1,001,2024-08-23_18h48.26.537,IAT(Formal),2021.2.3,Win32,59.52380952,,,,,,,,,,,,,,,e,1,0.464,,,,,,我的,e,,,0,1,1,51,1,,,,,,,,,,,,,,,,,,,,,,,,,,,,,,,,,,
,,,,,,,,,,,,,,1,001,2024-08-23_18h48.26.537,IAT(Formal),2021.2.3,Win32,59.52380952,,,,,,,,,,,,,,,e,1,0.5146,,,,,,机智,e,,,0,2,2,19,1,,,,,,,,,,,,,,,,,,,,,,,,,,,,,,,,,,
,,,,,,,,,,,,,,1,001,2024-08-23_18h48.26.537,IAT(Formal),2021.2.3,Win32,59.52380952,,,,,,,,,,,,,,,e,1,0.6183,,,,,,冷静,e,,,0,3,3,26,1,,,,,,,,,,,,,,,,,,,,,,,,,,,,,,,,,,
,,,,,,,,,,,,,,1,001,2024-08-23_18h48.26.537,IAT(Formal),2021.2.3,Win32,59.52380952,,,,,,,,,,,,,,,e,1,0.5123,,,,,,自己,e,,,0,4,4,3,1,,,,,,,,,,,,,,,,,,,,,,,,,,,,,,,,,,
,,,,,,,,,,,,,,1,001,2024-08-23_18h48.26.537,IAT(Formal),2021.2.3,Win32,59.52380952,,,,,,,,,,,,,,,e,1,0.4818,,,,,,我,e,,,0,5,5,60,1,,,,,,,,,,,,,,,,,,,,,,,,,,,,,,,,,,
,,,,,,,,,,,,,,1,001,2024-08-23_18h48.26.537,IAT(Formal),2021.2.3,Win32,59.52380952,,,,,,,,,,,,,,,i,1,0.5489,,,,,,野蛮,i,,,0,6,6,46,1,,,,,,,,,,,,,,,,,,,,,,,,,,,,,,,,,,
,,,,,,,,,,,,,,1,001,2024-08-23_18h48.26.537,IAT(Formal),2021.2.3,Win32,59.52380952,,,,,,,,,,,,,,,i,1,0.3971,,,,,,其他,i,,,0,7,7,59,1,,,,,,,,,,,,,,,,,,,,,,,,,,,,,,,,,,
,,,,,,,,,,,,,,1,001,2024-08-23_18h48.26.537,IAT(Formal),2021.2.3,Win32,59.52380952,,,,,,,,,,,,,,,e,1,0.5052,,,,,,我的,e,,,0,8,8,1,1,,,,,,,,,,,,,,,,,,,,,,,,,,,,,,,,,,
,,,,,,,,,,,,,,1,001,2024-08-23_18h48.26.537,IAT(Formal),2021.2.3,Win32,59.52380952,,,,,,,,,,,,,,,e,1,0.5016,,,,,,勇敢,e,,,0,9,9,17,1,,,,,,,,,,,,,,,,,,,,,,,,,,,,,,,,,,
,,,,,,,,,,,,,,1,001,2024-08-23_18h48.26.537,IAT(Formal),2021.2.3,Win32,59.52380952,,,,,,,,,,,,,,,e,1,0.7204,,,,,,正直,e,,,0,10,10,16,1,,,,,,,,,,,,,,,,,,,,,,,,,,,,,,,,,,
,,,,,,,,,,,,,,1,001,2024-08-23_18h48.26.537,IAT(Formal),2021.2.3,Win32,59.52380952,,,,,,,,,,,,,,,i,1,0.6015,,,,,,暴躁,i,,,0,11,11,44,1,,,,,,,,,,,,,,,,,,,,,,,,,,,,,,,,,,
,,,,,,,,,,,,,,1,001,2024-08-23_18h48.26.537,IAT(Formal),2021.2.3,Win32,59.52380952,,,,,,,,,,,,,,,e,1,0.564,,,,,,活泼,e,,,0,12,12,28,1,,,,,,,,,,,,,,,,,,,,,,,,,,,,,,,,,,
,,,,,,,,,,,,,,1,001,2024-08-23_18h48.26.537,IAT(Formal),2021.2.3,Win32,59.52380952,,,,,,,,,,,,,,,i,1,0.7709,,,,,,消极,i,,,0,13,13,35,1,,,,,,,,,,,,,,,,,,,,,,,,,,,,,,,,,,
,,,,,,,,,,,,,,1,001,2024-08-23_18h48.26.537,IAT(Formal),2021.2.3,Win32,59.52380952,,,,,,,,,,,,,,,i,1,0.4873,,,,,,凶狠,i,,,0,14,14,42,1,,,,,,,,,,,,,,,,,,,,,,,,,,,,,,,,,,
,,,,,,,,,,,,,,1,001,2024-08-23_18h48.26.537,IAT(Formal),2021.2.3,Win32,59.52380952,,,,,,,,,,,,,,,i,1,0.5197,,,,,,他们,i,,,0,15,15,66,1,,,,,,,,,,,,,,,,,,,,,,,,,,,,,,,,,,
,,,,,,,,,,,,,,1,001,2024-08-23_18h48.26.537,IAT(Formal),2021.2.3,Win32,59.52380952,,,,,,,,,,,,,,,e,1,0.4353,,,,,,俺,e,,,0,16,16,54,1,,,,,,,,,,,,,,,,,,,,,,,,,,,,,,,,,,
,,,,,,,,,,,,,,1,001,2024-08-23_18h48.26.537,IAT(Formal),2021.2.3,Win32,59.52380952,,,,,,,,,,,,,,,e,1,0.404,,,,,,我的,e,,,0,17,17,61,1,,,,,,,,,,,,,,,,,,,,,,,,,,,,,,,,,,
,,,,,,,,,,,,,,1,001,2024-08-23_18h48.26.537,IAT(Formal),2021.2.3,Win32,59.52380952,,,,,,,,,,,,,,,e,1,0.3805,,,,,,认真,e,,,0,18,18,20,1,,,,,,,,,,,,,,,,,,,,,,,,,,,,,,,,,,
,,,,,,,,,,,,,,1,001,2024-08-23_18h48.26.537,IAT(Formal),2021.2.3,Win32,59.52380952,,,,,,,,,,,,,,,e,1,0.4352,,,,,,自己,e,,,0,19,19,73,1,,,,,,,,,,,,,,,,,,,,,,,,,,,,,,,,,,
,,,,,,,,,,,,,,1,001,2024-08-23_18h48.26.537,IAT(Formal),2021.2.3,Win32,59.52380952,,,,,,,,,,,,,,,i,1,0.5687,,,,,,愚蠢,i,,,0,20,20,32,1,,,,,,,,,,,,,,,,,,,,,,,,,,,,,,,,,,
,,,,,,,,,,,,,,1,001,2024-08-23_18h48.26.537,IAT(Formal),2021.2.3,Win32,59.52380952,,,,,,,,,,,,,,,e,1,0.5879,,,,,,我,e,,,0,21,21,50,1,,,,,,,,,,,,,,,,,,,,,,,,,,,,,,,,,,
,,,,,,,,,,,,,,1,001,2024-08-23_18h48.26.537,IAT(Formal),2021.2.3,Win32,59.52380952,,,,,,,,,,,,,,,e,1,0.475,,,,,,诚实,e,,,0,22,22,15,1,,,,,,,,,,,,,,,,,,,,,,,,,,,,,,,,,,
,,,,,,,,,,,,,,1,001,2024-08-23_18h48.26.537,IAT(Formal),2021.2.3,Win32,59.52380952,,,,,,,,,,,,,,,i,1,0.6359,,,,,,鲁莽,i,,,0,23,23,38,1,,,,,,,,,,,,,,,,,,,,,,,,,,,,,,,,,,
,,,,,,,,,,,,,,1,001,2024-08-23_18h48.26.537,IAT(Formal),2021.2.3,Win32,59.52380952,,,,,,,,,,,,,,,e,0,0.4769,,,,,,刻薄,i,,,0,24,24,33,1,,,,,,,,,,,,,,,,,,,,,,,,,,,,,,,,,,
,,,,,,,,,,,,,,1,001,2024-08-23_18h48.26.537,IAT(Formal),2021.2.3,Win32,59.52380952,,,,,,,,,,,,,,,i,1,0.6277,,,,,,他们,i,,,0,25,25,76,1,,,,,,,,,,,,,,,,,,,,,,,,,,,,,,,,,,
,,,,,,,,,,,,,,1,001,2024-08-23_18h48.26.537,IAT(Formal),2021.2.3,Win32,59.52380952,,,,,,,,,,,,,,,i,1,0.631,,,,,,自卑,i,,,0,26,26,36,1,,,,,,,,,,,,,,,,,,,,,,,,,,,,,,,,,,
,,,,,,,,,,,,,,1,001,2024-08-23_18h48.26.537,IAT(Formal),2021.2.3,Win32,59.52380952,,,,,,,,,,,,,,,i,1,0.5611,,,,,,他,i,,,0,27,27,65,1,,,,,,,,,,,,,,,,,,,,,,,,,,,,,,,,,,
,,,,,,,,,,,,,,1,001,2024-08-23_18h48.26.537,IAT(Formal),2021.2.3,Win32,59.52380952,,,,,,,,,,,,,,,e,1,0.6514,,,,,,诚恳,e,,,0,28,28,29,1,,,,,,,,,,,,,,,,,,,,,,,,,,,,,,,,,,
,,,,,,,,,,,,,,1,001,2024-08-23_18h48.26.537,IAT(Formal),2021.2.3,Win32,59.52380952,,,,,,,,,,,,,,,i,1,0.5904,,,,,,散漫,i,,,0,29,29,41,1,,,,,,,,,,,,,,,,,,,,,,,,,,,,,,,,,,
,,,,,,,,,,,,,,1,001,2024-08-23_18h48.26.537,IAT(Formal),2021.2.3,Win32,59.52380952,,,,,,,,,,,,,,,i,1,0.5048,,,,,,虚伪,i,,,0,30,30,31,1,,,,,,,,,,,,,,,,,,,,,,,,,,,,,,,,,,
,,,,,,,,,,,,,,1,001,2024-08-23_18h48.26.537,IAT(Formal),2021.2.3,Win32,59.52380952,,,,,,,,,,,,,,,i,1,0.5236,,,,,,冒失,i,,,0,31,31,39,1,,,,,,,,,,,,,,,,,,,,,,,,,,,,,,,,,,
,,,,,,,,,,,,,,1,001,2024-08-23_18h48.26.537,IAT(Formal),2021.2.3,Win32,59.52380952,,,,,,,,,,,,,,,i,1,0.5895,,,,,,悲观,i,,,0,32,32,34,1,,,,,,,,,,,,,,,,,,,,,,,,,,,,,,,,,,
,,,,,,,,,,,,,,1,001,2024-08-23_18h48.26.537,IAT(Formal),2021.2.3,Win32,59.52380952,,,,,,,,,,,,,,,i,1,0.5029,,,,,,固执,i,,,0,33,33,47,1,,,,,,,,,,,,,,,,,,,,,,,,,,,,,,,,,,
,,,,,,,,,,,,,,1,001,2024-08-23_18h48.26.537,IAT(Formal),2021.2.3,Win32,59.52380952,,,,,,,,,,,,,,,i,1,0.4942,,,,,,下贱,i,,,0,34,34,49,1,,,,,,,,,,,,,,,,,,,,,,,,,,,,,,,,,,
,,,,,,,,,,,,,,1,001,2024-08-23_18h48.26.537,IAT(Formal),2021.2.3,Win32,59.52380952,,,,,,,,,,,,,,,e,1,0.5416,,,,,,自己,e,,,0,35,35,53,1,,,,,,,,,,,,,,,,,,,,,,,,,,,,,,,,,,
,,,,,,,,,,,,,,1,001,2024-08-23_18h48.26.537,IAT(Formal),2021.2.3,Win32,59.52380952,,,,,,,,,,,,,,,i,1,0.5184,,,,,,卑鄙,i,,,0,36,36,30,1,,,,,,,,,,,,,,,,,,,,,,,,,,,,,,,,,,
,,,,,,,,,,,,,,1,001,2024-08-23_18h48.26.537,IAT(Formal),2021.2.3,Win32,59.52380952,,,,,,,,,,,,,,,i,1,0.563,,,,,,执拗,i,,,0,37,37,40,1,,,,,,,,,,,,,,,,,,,,,,,,,,,,,,,,,,
,,,,,,,,,,,,,,1,001,2024-08-23_18h48.26.537,IAT(Formal),2021.2.3,Win32,59.52380952,,,,,,,,,,,,,,,e,1,0.6591,,,,,,稳重,e,,,0,38,38,21,1,,,,,,,,,,,,,,,,,,,,,,,,,,,,,,,,,,
,,,,,,,,,,,,,,1,001,2024-08-23_18h48.26.537,IAT(Formal),2021.2.3,Win32,59.52380952,,,,,,,,,,,,,,,i,1,0.5878,,,,,,他们,i,,,0,39,39,6,1,,,,,,,,,,,,,,,,,,,,,,,,,,,,,,,,,,
,,,,,,,,,,,,,,1,001,2024-08-23_18h48.26.537,IAT(Formal),2021.2.3,Win32,59.52380952,,,,,,,,,,,,,,,i,0,0.5096,,,,,,无私,e,,,0,40,40,22,1,,,,,,,,,,,,,,,,,,,,,,,,,,,,,,,,,,
,,,,,,,,,,,,,,1,001,2024-08-23_18h48.26.537,IAT(Formal),2021.2.3,Win32,59.52380952,,,,,,,,,,,,,,,i,1,0.7077,,,,,,他,i,,,0,41,41,75,1,,,,,,,,,,,,,,,,,,,,,,,,,,,,,,,,,,
,,,,,,,,,,,,,,1,001,2024-08-23_18h48.26.537,IAT(Formal),2021.2.3,Win32,59.52380952,,,,,,,,,,,,,,,i,1,0.485,,,,,,他们,i,,,0,42,42,56,1,,,,,,,,,,,,,,,,,,,,,,,,,,,,,,,,,,
,,,,,,,,,,,,,,1,001,2024-08-23_18h48.26.537,IAT(Formal),2021.2.3,Win32,59.52380952,,,,,,,,,,,,,,,i,1,0.456,,,,,,他人,i,,,0,43,43,58,1,,,,,,,,,,,,,,,,,,,,,,,,,,,,,,,,,,
,,,,,,,,,,,,,,1,001,2024-08-23_18h48.26.537,IAT(Formal),2021.2.3,Win32,59.52380952,,,,,,,,,,,,,,,i,1,0.5655,,,,,,其他,i,,,0,44,44,9,1,,,,,,,,,,,,,,,,,,,,,,,,,,,,,,,,,,
,,,,,,,,,,,,,,1,001,2024-08-23_18h48.26.537,IAT(Formal),2021.2.3,Win32,59.52380952,,,,,,,,,,,,,,,e,1,0.4384,,,,,,我们,e,,,0,45,45,2,1,,,,,,,,,,,,,,,,,,,,,,,,,,,,,,,,,,
,,,,,,,,,,,,,,1,001,2024-08-23_18h48.26.537,IAT(Formal),2021.2.3,Win32,59.52380952,,,,,,,,,,,,,,,i,1,0.6375,,,,,,他的,i,,,0,46,46,77,1,,,,,,,,,,,,,,,,,,,,,,,,,,,,,,,,,,
,,,,,,,,,,,,,,1,001,2024-08-23_18h48.26.537,IAT(Formal),2021.2.3,Win32,59.52380952,,,,,,,,,,,,,,,i,1,0.4974,,,,,,他人,i,,,0,47,47,78,1,,,,,,,,,,,,,,,,,,,,,,,,,,,,,,,,,,
,,,,,,,,,,,,,,1,001,2024-08-23_18h48.26.537,IAT(Formal),2021.2.3,Win32,59.52380952,,,,,,,,,,,,,,,i,1,0.6067,,,,,,轻率,i,,,0,48,48,48,1,,,,,,,,,,,,,,,,,,,,,,,,,,,,,,,,,,
,,,,,,,,,,,,,,1,001,2024-08-23_18h48.26.537,IAT(Formal),2021.2.3,Win32,59.52380952,,,,,,,,,,,,,,,e,1,0.6632,,,,,,俺,e,,,0,49,49,64,1,,,,,,,,,,,,,,,,,,,,,,,,,,,,,,,,,,
,,,,,,,,,,,,,,1,001,2024-08-23_18h48.26.537,IAT(Formal),2021.2.3,Win32,59.52380952,,,,,,,,,,,,,,,i,1,0.5002,,,,,,他,i,,,0,50,50,55,1,,,,,,,,,,,,,,,,,,,,,,,,,,,,,,,,,,
,,,,,,,,,,,,,,1,001,2024-08-23_18h48.26.537,IAT(Formal),2021.2.3,Win32,59.52380952,,,,,,,,,,,,,,,e,1,0.6087,,,,,,细腻,e,,,0,51,51,25,1,,,,,,,,,,,,,,,,,,,,,,,,,,,,,,,,,,
,,,,,,,,,,,,,,1,001,2024-08-23_18h48.26.537,IAT(Formal),2021.2.3,Win32,59.52380952,,,,,,,,,,,,,,,e,1,0.5344,,,,,,公正,e,,,0,52,52,23,1,,,,,,,,,,,,,,,,,,,,,,,,,,,,,,,,,,
,,,,,,,,,,,,,,1,001,2024-08-23_18h48.26.537,IAT(Formal),2021.2.3,Win32,59.52380952,,,,,,,,,,,,,,,e,1,0.5645,,,,,,我,e,,,0,53,53,70,1,,,,,,,,,,,,,,,,,,,,,,,,,,,,,,,,,,
,,,,,,,,,,,,,,1,001,2024-08-23_18h48.26.537,IAT(Formal),2021.2.3,Win32,59.52380952,,,,,,,,,,,,,,,i,1,0.5643,,,,,,他的,i,,,0,54,54,7,1,,,,,,,,,,,,,,,,,,,,,,,,,,,,,,,,,,
,,,,,,,,,,,,,,1,001,2024-08-23_18h48.26.537,IAT(Formal),2021.2.3,Win32,59.52380952,,,,,,,,,,,,,,,e,1,0.5457,,,,,,杰出,e,,,0,55,55,13,1,,,,,,,,,,,,,,,,,,,,,,,,,,,,,,,,,,
,,,,,,,,,,,,,,1,001,2024-08-23_18h48.26.537,IAT(Formal),2021.2.3,Win32,59.52380952,,,,,,,,,,,,,,,e,1,0.4962,,,,,,我们,e,,,0,56,56,62,1,,,,,,,,,,,,,,,,,,,,,,,,,,,,,,,,,,
,,,,,,,,,,,,,,1,001,2024-08-23_18h48.26.537,IAT(Formal),2021.2.3,Win32,59.52380952,,,,,,,,,,,,,,,e,1,0.5287,,,,,,乐观,e,,,0,57,57,14,1,,,,,,,,,,,,,,,,,,,,,,,,,,,,,,,,,,
,,,,,,,,,,,,,,1,001,2024-08-23_18h48.26.537,IAT(Formal),2021.2.3,Win32,59.52380952,,,,,,,,,,,,,,,e,1,0.5124,,,,,,俺,e,,,0,58,58,4,1,,,,,,,,,,,,,,,,,,,,,,,,,,,,,,,,,,
,,,,,,,,,,,,,,1,001,2024-08-23_18h48.26.537,IAT(Formal),2021.2.3,Win32,59.52380952,,,,,,,,,,,,,,,e,0,0.8102,,,,,,自私,i,,,0,59,59,43,1,,,,,,,,,,,,,,,,,,,,,,,,,,,,,,,,,,
,,,,,,,,,,,,,,1,001,2024-08-23_18h48.26.537,IAT(Formal),2021.2.3,Win32,59.52380952,,,,,,,,,,,,,,,i,1,0.621,,,,,,傲慢,i,,,0,60,60,37,1,,,,,,,,,,,,,,,,,,,,,,,,,,,,,,,,,,
,,,,,,,,,,,,,,1,001,2024-08-23_18h48.26.537,IAT(Formal),2021.2.3,Win32,59.52380952,,,,,,,,,,,,,,,i,1,0.7221,,,,,,他的,i,,,0,61,61,57,1,,,,,,,,,,,,,,,,,,,,,,,,,,,,,,,,,,
,,,,,,,,,,,,,,1,001,2024-08-23_18h48.26.537,IAT(Formal),2021.2.3,Win32,59.52380952,,,,,,,,,,,,,,,e,1,0.5749,,,,,,我,e,,,0,62,62,0,1,,,,,,,,,,,,,,,,,,,,,,,,,,,,,,,,,,
,,,,,,,,,,,,,,1,001,2024-08-23_18h48.26.537,IAT(Formal),2021.2.3,Win32,59.52380952,,,,,,,,,,,,,,,e,1,0.6389,,,,,,自己,e,,,0,63,63,63,1,,,,,,,,,,,,,,,,,,,,,,,,,,,,,,,,,,
,,,,,,,,,,,,,,1,001,2024-08-23_18h48.26.537,IAT(Formal),2021.2.3,Win32,59.52380952,,,,,,,,,,,,,,,e,1,0.7314,,,,,,崇高,e,,,0,64,64,11,1,,,,,,,,,,,,,,,,,,,,,,,,,,,,,,,,,,
,,,,,,,,,,,,,,1,001,2024-08-23_18h48.26.537,IAT(Formal),2021.2.3,Win32,59.52380952,,,,,,,,,,,,,,,e,1,0.4673,,,,,,我们,e,,,0,65,65,52,1,,,,,,,,,,,,,,,,,,,,,,,,,,,,,,,,,,
,,,,,,,,,,,,,,1,001,2024-08-23_18h48.26.537,IAT(Formal),2021.2.3,Win32,59.52380952,,,,,,,,,,,,,,,e,1,0.6367,,,,,,俺,e,,,0,66,66,74,1,,,,,,,,,,,,,,,,,,,,,,,,,,,,,,,,,,
,,,,,,,,,,,,,,1,001,2024-08-23_18h48.26.537,IAT(Formal),2021.2.3,Win32,59.52380952,,,,,,,,,,,,,,,i,1,0.8293,,,,,,他人,i,,,0,67,67,8,1,,,,,,,,,,,,,,,,,,,,,,,,,,,,,,,,,,
,,,,,,,,,,,,,,1,001,2024-08-23_18h48.26.537,IAT(Formal),2021.2.3,Win32,59.52380952,,,,,,,,,,,,,,,e,1,0.6047,,,,,,热情,e,,,0,68,68,27,1,,,,,,,,,,,,,,,,,,,,,,,,,,,,,,,,,,
,,,,,,,,,,,,,,1,001,2024-08-23_18h48.26.537,IAT(Formal),2021.2.3,Win32,59.52380952,,,,,,,,,,,,,,,e,1,0.479,,,,,,我们,e,,,0,69,69,72,1,,,,,,,,,,,,,,,,,,,,,,,,,,,,,,,,,,
,,,,,,,,,,,,,,1,001,2024-08-23_18h48.26.537,IAT(Formal),2021.2.3,Win32,59.52380952,,,,,,,,,,,,,,,i,1,0.5676,,,,,,他的,i,,,0,70,70,67,1,,,,,,,,,,,,,,,,,,,,,,,,,,,,,,,,,,
,,,,,,,,,,,,,,1,001,2024-08-23_18h48.26.537,IAT(Formal),2021.2.3,Win32,59.52380952,,,,,,,,,,,,,,,e,1,0.5431,,,,,,我的,e,,,0,71,71,71,1,,,,,,,,,,,,,,,,,,,,,,,,,,,,,,,,,,
,,,,,,,,,,,,,,1,001,2024-08-23_18h48.26.537,IAT(Formal),2021.2.3,Win32,59.52380952,,,,,,,,,,,,,,,e,1,0.4648,,,,,,聪明,e,,,0,72,72,12,1,,,,,,,,,,,,,,,,,,,,,,,,,,,,,,,,,,
,,,,,,,,,,,,,,1,001,2024-08-23_18h48.26.537,IAT(Formal),2021.2.3,Win32,59.52380952,,,,,,,,,,,,,,,e,1,0.4838,,,,,,朴实,e,,,0,73,73,24,1,,,,,,,,,,,,,,,,,,,,,,,,,,,,,,,,,,
,,,,,,,,,,,,,,1,001,2024-08-23_18h48.26.537,IAT(Formal),2021.2.3,Win32,59.52380952,,,,,,,,,,,,,,,e,1,0.5521,,,,,,勤奋,e,,,0,74,74,18,1,,,,,,,,,,,,,,,,,,,,,,,,,,,,,,,,,,
,,,,,,,,,,,,,,1,001,2024-08-23_18h48.26.537,IAT(Formal),2021.2.3,Win32,59.52380952,,,,,,,,,,,,,,,i,1,0.6382,,,,,,其他,i,,,0,75,75,69,1,,,,,,,,,,,,,,,,,,,,,,,,,,,,,,,,,,
,,,,,,,,,,,,,,1,001,2024-08-23_18h48.26.537,IAT(Formal),2021.2.3,Win32,59.52380952,,,,,,,,,,,,,,,e,1,0.5681,,,,,,优秀,e,,,0,76,76,10,1,,,,,,,,,,,,,,,,,,,,,,,,,,,,,,,,,,
,,,,,,,,,,,,,,1,001,2024-08-23_18h48.26.537,IAT(Formal),2021.2.3,Win32,59.52380952,,,,,,,,,,,,,,,i,1,0.5377,,,,,,他,i,,,0,77,77,5,1,,,,,,,,,,,,,,,,,,,,,,,,,,,,,,,,,,
,,,,,,,,,,,,,,1,001,2024-08-23_18h48.26.537,IAT(Formal),2021.2.3,Win32,59.52380952,,,,,,,,,,,,,,,i,1,0.5188,,,,,,他人,i,,,0,78,78,68,1,,,,,,,,,,,,,,,,,,,,,,,,,,,,,,,,,,
,,,,,,,,,,,,,,1,001,2024-08-23_18h48.26.537,IAT(Formal),2021.2.3,Win32,59.52380952,,,,,,,,,,,,,,,i,1,0.5856,,,,,,其他,i,,,0,79,79,79,1,,,,,,,,,,,,,,,,,,,,,,,,,,,,,,,,,,
,,,,,,,,,,,,,,1,001,2024-08-23_18h48.26.537,IAT(Formal),2021.2.3,Win32,59.52380952,,,,,,,,,,,,,,,i,1,0.6239,,,,,,自私,i,,,1,0,80,43,1,,,,,,,,,,,,,,,,,,,,,,,,,,,,,,,,,,
,,,,,,,,,,,,,,1,001,2024-08-23_18h48.26.537,IAT(Formal),2021.2.3,Win32,59.52380952,,,,,,,,,,,,,,,i,1,0.5529,,,,,,暴躁,i,,,1,1,81,44,1,,,,,,,,,,,,,,,,,,,,,,,,,,,,,,,,,,
,,,,,,,,,,,,,,1,001,2024-08-23_18h48.26.537,IAT(Formal),2021.2.3,Win32,59.52380952,,,,,,,,,,,,,,,i,1,0.4771,,,,,,他们,i,,,1,2,82,76,1,,,,,,,,,,,,,,,,,,,,,,,,,,,,,,,,,,
,,,,,,,,,,,,,,1,001,2024-08-23_18h48.26.537,IAT(Formal),2021.2.3,Win32,59.52380952,,,,,,,,,,,,,,,e,1,0.5263,,,,,,自己,e,,,1,3,83,53,1,,,,,,,,,,,,,,,,,,,,,,,,,,,,,,,,,,
,,,,,,,,,,,,,,1,001,2024-08-23_18h48.26.537,IAT(Formal),2021.2.3,Win32,59.52380952,,,,,,,,,,,,,,,e,1,0.5221,,,,,,优秀,e,,,1,4,84,10,1,,,,,,,,,,,,,,,,,,,,,,,,,,,,,,,,,,
,,,,,,,,,,,,,,1,001,2024-08-23_18h48.26.537,IAT(Formal),2021.2.3,Win32,59.52380952,,,,,,,,,,,,,,,i,1,0.7511,,,,,,他们,i,,,1,5,85,6,1,,,,,,,,,,,,,,,,,,,,,,,,,,,,,,,,,,
,,,,,,,,,,,,,,1,001,2024-08-23_18h48.26.537,IAT(Formal),2021.2.3,Win32,59.52380952,,,,,,,,,,,,,,,i,1,0.4813,,,,,,他的,i,,,1,6,86,57,1,,,,,,,,,,,,,,,,,,,,,,,,,,,,,,,,,,
,,,,,,,,,,,,,,1,001,2024-08-23_18h48.26.537,IAT(Formal),2021.2.3,Win32,59.52380952,,,,,,,,,,,,,,,e,1,0.7612,,,,,,自己,e,,,1,7,87,73,1,,,,,,,,,,,,,,,,,,,,,,,,,,,,,,,,,,
,,,,,,,,,,,,,,1,001,2024-08-23_18h48.26.537,IAT(Formal),2021.2.3,Win32,59.52380952,,,,,,,,,,,,,,,e,1,0.5527,,,,,,我,e,,,1,8,88,50,1,,,,,,,,,,,,,,,,,,,,,,,,,,,,,,,,,,
,,,,,,,,,,,,,,1,001,2024-08-23_18h48.26.537,IAT(Formal),2021.2.3,Win32,59.52380952,,,,,,,,,,,,,,,e,1,0.6435,,,,,,勤奋,e,,,1,9,89,18,1,,,,,,,,,,,,,,,,,,,,,,,,,,,,,,,,,,
,,,,,,,,,,,,,,1,001,2024-08-23_18h48.26.537,IAT(Formal),2021.2.3,Win32,59.52380952,,,,,,,,,,,,,,,i,1,0.5355,,,,,,其他,i,,,1,10,90,59,1,,,,,,,,,,,,,,,,,,,,,,,,,,,,,,,,,,
,,,,,,,,,,,,,,1,001,2024-08-23_18h48.26.537,IAT(Formal),2021.2.3,Win32,59.52380952,,,,,,,,,,,,,,,i,1,0.5701,,,,,,傲慢,i,,,1,11,91,37,1,,,,,,,,,,,,,,,,,,,,,,,,,,,,,,,,,,
,,,,,,,,,,,,,,1,001,2024-08-23_18h48.26.537,IAT(Formal),2021.2.3,Win32,59.52380952,,,,,,,,,,,,,,,i,1,0.5103,,,,,,其他,i,,,1,12,92,9,1,,,,,,,,,,,,,,,,,,,,,,,,,,,,,,,,,,
,,,,,,,,,,,,,,1,001,2024-08-23_18h48.26.537,IAT(Formal),2021.2.3,Win32,59.52380952,,,,,,,,,,,,,,,i,1,0.4679,,,,,,轻率,i,,,1,13,93,48,1,,,,,,,,,,,,,,,,,,,,,,,,,,,,,,,,,,
,,,,,,,,,,,,,,1,001,2024-08-23_18h48.26.537,IAT(Formal),2021.2.3,Win32,59.52380952,,,,,,,,,,,,,,,i,1,0.4282,,,,,,他人,i,,,1,14,94,58,1,,,,,,,,,,,,,,,,,,,,,,,,,,,,,,,,,,
,,,,,,,,,,,,,,1,001,2024-08-23_18h48.26.537,IAT(Formal),2021.2.3,Win32,59.52380952,,,,,,,,,,,,,,,i,0,0.397,,,,,,我们,e,,,1,15,95,72,1,,,,,,,,,,,,,,,,,,,,,,,,,,,,,,,,,,
,,,,,,,,,,,,,,1,001,2024-08-23_18h48.26.537,IAT(Formal),2021.2.3,Win32,59.52380952,,,,,,,,,,,,,,,i,1,0.575,,,,,,他的,i,,,1,16,96,7,1,,,,,,,,,,,,,,,,,,,,,,,,,,,,,,,,,,
,,,,,,,,,,,,,,1,001,2024-08-23_18h48.26.537,IAT(Formal),2021.2.3,Win32,59.52380952,,,,,,,,,,,,,,,i,1,0.494,,,,,,他,i,,,1,17,97,5,1,,,,,,,,,,,,,,,,,,,,,,,,,,,,,,,,,,
,,,,,,,,,,,,,,1,001,2024-08-23_18h48.26.537,IAT(Formal),2021.2.3,Win32,59.52380952,,,,,,,,,,,,,,,i,1,0.4585,,,,,,其他,i,,,1,18,98,79,1,,,,,,,,,,,,,,,,,,,,,,,,,,,,,,,,,,
,,,,,,,,,,,,,,1,001,2024-08-23_18h48.26.537,IAT(Formal),2021.2.3,Win32,59.52380952,,,,,,,,,,,,,,,i,1,0.7925,,,,,,执拗,i,,,1,19,99,40,1,,,,,,,,,,,,,,,,,,,,,,,,,,,,,,,,,,
,,,,,,,,,,,,,,1,001,2024-08-23_18h48.26.537,IAT(Formal),2021.2.3,Win32,59.52380952,,,,,,,,,,,,,,,i,1,0.6263,,,,,,卑鄙,i,,,1,20,100,30,1,,,,,,,,,,,,,,,,,,,,,,,,,,,,,,,,,,
,,,,,,,,,,,,,,1,001,2024-08-23_18h48.26.537,IAT(Formal),2021.2.3,Win32,59.52380952,,,,,,,,,,,,,,,e,1,0.6194,,,,,,机智,e,,,1,21,101,19,1,,,,,,,,,,,,,,,,,,,,,,,,,,,,,,,,,,
,,,,,,,,,,,,,,1,001,2024-08-23_18h48.26.537,IAT(Formal),2021.2.3,Win32,59.52380952,,,,,,,,,,,,,,,i,1,0.554,,,,,,他,i,,,1,22,102,75,1,,,,,,,,,,,,,,,,,,,,,,,,,,,,,,,,,,
,,,,,,,,,,,,,,1,001,2024-08-23_18h48.26.537,IAT(Formal),2021.2.3,Win32,59.52380952,,,,,,,,,,,,,,,i,1,0.5788,,,,,,虚伪,i,,,1,23,103,31,1,,,,,,,,,,,,,,,,,,,,,,,,,,,,,,,,,,
,,,,,,,,,,,,,,1,001,2024-08-23_18h48.26.537,IAT(Formal),2021.2.3,Win32,59.52380952,,,,,,,,,,,,,,,e,1,0.5348,,,,,,我的,e,,,1,24,104,61,1,,,,,,,,,,,,,,,,,,,,,,,,,,,,,,,,,,
,,,,,,,,,,,,,,1,001,2024-08-23_18h48.26.537,IAT(Formal),2021.2.3,Win32,59.52380952,,,,,,,,,,,,,,,e,1,0.4481,,,,,,我的,e,,,1,25,105,1,1,,,,,,,,,,,,,,,,,,,,,,,,,,,,,,,,,,
,,,,,,,,,,,,,,1,001,2024-08-23_18h48.26.537,IAT(Formal),2021.2.3,Win32,59.52380952,,,,,,,,,,,,,,,i,1,0.5118,,,,,,刻薄,i,,,1,26,106,33,1,,,,,,,,,,,,,,,,,,,,,,,,,,,,,,,,,,
,,,,,,,,,,,,,,1,001,2024-08-23_18h48.26.537,IAT(Formal),2021.2.3,Win32,59.52380952,,,,,,,,,,,,,,,e,1,0.5146,,,,,,自己,e,,,1,27,107,3,1,,,,,,,,,,,,,,,,,,,,,,,,,,,,,,,,,,
,,,,,,,,,,,,,,1,001,2024-08-23_18h48.26.537,IAT(Formal),2021.2.3,Win32,59.52380952,,,,,,,,,,,,,,,e,1,0.4673,,,,,,我的,e,,,1,28,108,51,1,,,,,,,,,,,,,,,,,,,,,,,,,,,,,,,,,,
,,,,,,,,,,,,,,1,001,2024-08-23_18h48.26.537,IAT(Formal),2021.2.3,Win32,59.52380952,,,,,,,,,,,,,,,e,1,0.4813,,,,,,我们,e,,,1,29,109,52,1,,,,,,,,,,,,,,,,,,,,,,,,,,,,,,,,,,
,,,,,,,,,,,,,,1,001,2024-08-23_18h48.26.537,IAT(Formal),2021.2.3,Win32,59.52380952,,,,,,,,,,,,,,,i,0,0.8362,,,,,,无私,e,,,1,30,110,22,1,,,,,,,,,,,,,,,,,,,,,,,,,,,,,,,,,,
,,,,,,,,,,,,,,1,001,2024-08-23_18h48.26.537,IAT(Formal),2021.2.3,Win32,59.52380952,,,,,,,,,,,,,,,i,1,0.5346,,,,,,悲观,i,,,1,31,111,34,1,,,,,,,,,,,,,,,,,,,,,,,,,,,,,,,,,,
,,,,,,,,,,,,,,1,001,2024-08-23_18h48.26.537,IAT(Formal),2021.2.3,Win32,59.52380952,,,,,,,,,,,,,,,e,1,0.5305,,,,,,我的,e,,,1,32,112,71,1,,,,,,,,,,,,,,,,,,,,,,,,,,,,,,,,,,
,,,,,,,,,,,,,,1,001,2024-08-23_18h48.26.537,IAT(Formal),2021.2.3,Win32,59.52380952,,,,,,,,,,,,,,,i,1,0.5522,,,,,,下贱,i,,,1,33,113,49,1,,,,,,,,,,,,,,,,,,,,,,,,,,,,,,,,,,
,,,,,,,,,,,,,,1,001,2024-08-23_18h48.26.537,IAT(Formal),2021.2.3,Win32,59.52380952,,,,,,,,,,,,,,,e,1,0.4648,,,,,,我们,e,,,1,34,114,62,1,,,,,,,,,,,,,,,,,,,,,,,,,,,,,,,,,,
,,,,,,,,,,,,,,1,001,2024-08-23_18h48.26.537,IAT(Formal),2021.2.3,Win32,59.52380952,,,,,,,,,,,,,,,e,1,0.4345,,,,,,我,e,,,1,35,115,70,1,,,,,,,,,,,,,,,,,,,,,,,,,,,,,,,,,,
,,,,,,,,,,,,,,1,001,2024-08-23_18h48.26.537,IAT(Formal),2021.2.3,Win32,59.52380952,,,,,,,,,,,,,,,i,1,0.5203,,,,,,鲁莽,i,,,1,36,116,38,1,,,,,,,,,,,,,,,,,,,,,,,,,,,,,,,,,,
,,,,,,,,,,,,,,1,001,2024-08-23_18h48.26.537,IAT(Formal),2021.2.3,Win32,59.52380952,,,,,,,,,,,,,,,i,1,0.4847,,,,,,其他,i,,,1,37,117,69,1,,,,,,,,,,,,,,,,,,,,,,,,,,,,,,,,,,
,,,,,,,,,,,,,,1,001,2024-08-23_18h48.26.537,IAT(Formal),2021.2.3,Win32,59.52380952,,,,,,,,,,,,,,,i,0,0.5102,,,,,,俺,e,,,1,38,118,74,1,,,,,,,,,,,,,,,,,,,,,,,,,,,,,,,,,,
,,,,,,,,,,,,,,1,001,2024-08-23_18h48.26.537,IAT(Formal),2021.2.3,Win32,59.52380952,,,,,,,,,,,,,,,e,1,0.5465,,,,,,崇高,e,,,1,39,119,11,1,,,,,,,,,,,,,,,,,,,,,,,,,,,,,,,,,,
,,,,,,,,,,,,,,1,001,2024-08-23_18h48.26.537,IAT(Formal),2021.2.3,Win32,59.52380952,,,,,,,,,,,,,,,e,1,0.6256,,,,,,诚恳,e,,,1,40,120,29,1,,,,,,,,,,,,,,,,,,,,,,,,,,,,,,,,,,
,,,,,,,,,,,,,,1,001,2024-08-23_18h48.26.537,IAT(Formal),2021.2.3,Win32,59.52380952,,,,,,,,,,,,,,,e,1,0.5757,,,,,,冷静,e,,,1,41,121,26,1,,,,,,,,,,,,,,,,,,,,,,,,,,,,,,,,,,
,,,,,,,,,,,,,,1,001,2024-08-23_18h48.26.537,IAT(Formal),2021.2.3,Win32,59.52380952,,,,,,,,,,,,,,,e,1,0.4678,,,,,,我,e,,,1,42,122,60,1,,,,,,,,,,,,,,,,,,,,,,,,,,,,,,,,,,
,,,,,,,,,,,,,,1,001,2024-08-23_18h48.26.537,IAT(Formal),2021.2.3,Win32,59.52380952,,,,,,,,,,,,,,,e,1,0.5321,,,,,,勇敢,e,,,1,43,123,17,1,,,,,,,,,,,,,,,,,,,,,,,,,,,,,,,,,,
,,,,,,,,,,,,,,1,001,2024-08-23_18h48.26.537,IAT(Formal),2021.2.3,Win32,59.52380952,,,,,,,,,,,,,,,e,1,0.558,,,,,,杰出,e,,,1,44,124,13,1,,,,,,,,,,,,,,,,,,,,,,,,,,,,,,,,,,
,,,,,,,,,,,,,,1,001,2024-08-23_18h48.26.537,IAT(Formal),2021.2.3,Win32,59.52380952,,,,,,,,,,,,,,,i,1,1.0204,,,,,,他的,i,,,1,45,125,77,1,,,,,,,,,,,,,,,,,,,,,,,,,,,,,,,,,,
,,,,,,,,,,,,,,1,001,2024-08-23_18h48.26.537,IAT(Formal),2021.2.3,Win32,59.52380952,,,,,,,,,,,,,,,i,1,0.4072,,,,,,他,i,,,1,46,126,65,1,,,,,,,,,,,,,,,,,,,,,,,,,,,,,,,,,,
,,,,,,,,,,,,,,1,001,2024-08-23_18h48.26.537,IAT(Formal),2021.2.3,Win32,59.52380952,,,,,,,,,,,,,,,e,1,0.502,,,,,,俺,e,,,1,47,127,54,1,,,,,,,,,,,,,,,,,,,,,,,,,,,,,,,,,,
,,,,,,,,,,,,,,1,001,2024-08-23_18h48.26.537,IAT(Formal),2021.2.3,Win32,59.52380952,,,,,,,,,,,,,,,e,1,0.5096,,,,,,乐观,e,,,1,48,128,14,1,,,,,,,,,,,,,,,,,,,,,,,,,,,,,,,,,,
,,,,,,,,,,,,,,1,001,2024-08-23_18h48.26.537,IAT(Formal),2021.2.3,Win32,59.52380952,,,,,,,,,,,,,,,e,1,0.6359,,,,,,我,e,,,1,49,129,0,1,,,,,,,,,,,,,,,,,,,,,,,,,,,,,,,,,,
,,,,,,,,,,,,,,1,001,2024-08-23_18h48.26.537,IAT(Formal),2021.2.3,Win32,59.52380952,,,,,,,,,,,,,,,e,1,0.5794,,,,,,俺,e,,,1,50,130,4,1,,,,,,,,,,,,,,,,,,,,,,,,,,,,,,,,,,
,,,,,,,,,,,,,,1,001,2024-08-23_18h48.26.537,IAT(Formal),2021.2.3,Win32,59.52380952,,,,,,,,,,,,,,,e,1,0.5541,,,,,,公正,e,,,1,51,131,23,1,,,,,,,,,,,,,,,,,,,,,,,,,,,,,,,,,,
,,,,,,,,,,,,,,1,001,2024-08-23_18h48.26.537,IAT(Formal),2021.2.3,Win32,59.52380952,,,,,,,,,,,,,,,e,1,0.532,,,,,,活泼,e,,,1,52,132,28,1,,,,,,,,,,,,,,,,,,,,,,,,,,,,,,,,,,
,,,,,,,,,,,,,,1,001,2024-08-23_18h48.26.537,IAT(Formal),2021.2.3,Win32,59.52380952,,,,,,,,,,,,,,,i,1,0.5472,,,,,,他,i,,,1,53,133,55,1,,,,,,,,,,,,,,,,,,,,,,,,,,,,,,,,,,
,,,,,,,,,,,,,,1,001,2024-08-23_18h48.26.537,IAT(Formal),2021.2.3,Win32,59.52380952,,,,,,,,,,,,,,,e,1,0.5344,,,,,,热情,e,,,1,54,134,27,1,,,,,,,,,,,,,,,,,,,,,,,,,,,,,,,,,,
,,,,,,,,,,,,,,1,001,2024-08-23_18h48.26.537,IAT(Formal),2021.2.3,Win32,59.52380952,,,,,,,,,,,,,,,e,0,0.4128,,,,,,固执,i,,,1,55,135,47,1,,,,,,,,,,,,,,,,,,,,,,,,,,,,,,,,,,
,,,,,,,,,,,,,,1,001,2024-08-23_18h48.26.537,IAT(Formal),2021.2.3,Win32,59.52380952,,,,,,,,,,,,,,,e,1,0.4677,,,,,,稳重,e,,,1,56,136,21,1,,,,,,,,,,,,,,,,,,,,,,,,,,,,,,,,,,
,,,,,,,,,,,,,,1,001,2024-08-23_18h48.26.537,IAT(Formal),2021.2.3,Win32,59.52380952,,,,,,,,,,,,,,,i,1,0.53,,,,,,野蛮,i,,,1,57,137,46,1,,,,,,,,,,,,,,,,,,,,,,,,,,,,,,,,,,
,,,,,,,,,,,,,,1,001,2024-08-23_18h48.26.537,IAT(Formal),2021.2.3,Win32,59.52380952,,,,,,,,,,,,,,,i,1,0.7064,,,,,,他们,i,,,1,58,138,56,1,,,,,,,,,,,,,,,,,,,,,,,,,,,,,,,,,,
,,,,,,,,,,,,,,1,001,2024-08-23_18h48.26.537,IAT(Formal),2021.2.3,Win32,59.52380952,,,,,,,,,,,,,,,i,1,0.526,,,,,,他们,i,,,1,59,139,66,1,,,,,,,,,,,,,,,,,,,,,,,,,,,,,,,,,,
,,,,,,,,,,,,,,1,001,2024-08-23_18h48.26.537,IAT(Formal),2021.2.3,Win32,59.52380952,,,,,,,,,,,,,,,i,1,0.6083,,,,,,自卑,i,,,1,60,140,36,1,,,,,,,,,,,,,,,,,,,,,,,,,,,,,,,,,,
,,,,,,,,,,,,,,1,001,2024-08-23_18h48.26.537,IAT(Formal),2021.2.3,Win32,59.52380952,,,,,,,,,,,,,,,e,1,0.6134,,,,,,我们,e,,,1,61,141,2,1,,,,,,,,,,,,,,,,,,,,,,,,,,,,,,,,,,
,,,,,,,,,,,,,,1,001,2024-08-23_18h48.26.537,IAT(Formal),2021.2.3,Win32,59.52380952,,,,,,,,,,,,,,,i,1,0.5873,,,,,,散漫,i,,,1,62,142,41,1,,,,,,,,,,,,,,,,,,,,,,,,,,,,,,,,,,
,,,,,,,,,,,,,,1,001,2024-08-23_18h48.26.537,IAT(Formal),2021.2.3,Win32,59.52380952,,,,,,,,,,,,,,,e,1,0.5082,,,,,,聪明,e,,,1,63,143,12,1,,,,,,,,,,,,,,,,,,,,,,,,,,,,,,,,,,
,,,,,,,,,,,,,,1,001,2024-08-23_18h48.26.537,IAT(Formal),2021.2.3,Win32,59.52380952,,,,,,,,,,,,,,,i,1,0.6867,,,,,,凶狠,i,,,1,64,144,42,1,,,,,,,,,,,,,,,,,,,,,,,,,,,,,,,,,,
,,,,,,,,,,,,,,1,001,2024-08-23_18h48.26.537,IAT(Formal),2021.2.3,Win32,59.52380952,,,,,,,,,,,,,,,e,1,0.5348,,,,,,正直,e,,,1,65,145,16,1,,,,,,,,,,,,,,,,,,,,,,,,,,,,,,,,,,
,,,,,,,,,,,,,,1,001,2024-08-23_18h48.26.537,IAT(Formal),2021.2.3,Win32,59.52380952,,,,,,,,,,,,,,,i,1,0.6305,,,,,,他的,i,,,1,66,146,67,1,,,,,,,,,,,,,,,,,,,,,,,,,,,,,,,,,,
,,,,,,,,,,,,,,1,001,2024-08-23_18h48.26.537,IAT(Formal),2021.2.3,Win32,59.52380952,,,,,,,,,,,,,,,e,1,0.5629,,,,,,诚实,e,,,1,67,147,15,1,,,,,,,,,,,,,,,,,,,,,,,,,,,,,,,,,,
,,,,,,,,,,,,,,1,001,2024-08-23_18h48.26.537,IAT(Formal),2021.2.3,Win32,59.52380952,,,,,,,,,,,,,,,e,1,0.5608,,,,,,细腻,e,,,1,68,148,25,1,,,,,,,,,,,,,,,,,,,,,,,,,,,,,,,,,,
,,,,,,,,,,,,,,1,001,2024-08-23_18h48.26.537,IAT(Formal),2021.2.3,Win32,59.52380952,,,,,,,,,,,,,,,e,1,0.5195,,,,,,俺,e,,,1,69,149,64,1,,,,,,,,,,,,,,,,,,,,,,,,,,,,,,,,,,
,,,,,,,,,,,,,,1,001,2024-08-23_18h48.26.537,IAT(Formal),2021.2.3,Win32,59.52380952,,,,,,,,,,,,,,,i,1,0.801,,,,,,他人,i,,,1,70,150,8,1,,,,,,,,,,,,,,,,,,,,,,,,,,,,,,,,,,
,,,,,,,,,,,,,,1,001,2024-08-23_18h48.26.537,IAT(Formal),2021.2.3,Win32,59.52380952,,,,,,,,,,,,,,,i,1,0.6759,,,,,,愚蠢,i,,,1,71,151,32,1,,,,,,,,,,,,,,,,,,,,,,,,,,,,,,,,,,
,,,,,,,,,,,,,,1,001,2024-08-23_18h48.26.537,IAT(Formal),2021.2.3,Win32,59.52380952,,,,,,,,,,,,,,,i,1,0.4496,,,,,,消极,i,,,1,72,152,35,1,,,,,,,,,,,,,,,,,,,,,,,,,,,,,,,,,,
,,,,,,,,,,,,,,1,001,2024-08-23_18h48.26.537,IAT(Formal),2021.2.3,Win32,59.52380952,,,,,,,,,,,,,,,i,1,0.5511,,,,,,他人,i,,,1,73,153,68,1,,,,,,,,,,,,,,,,,,,,,,,,,,,,,,,,,,
,,,,,,,,,,,,,,1,001,2024-08-23_18h48.26.537,IAT(Formal),2021.2.3,Win32,59.52380952,,,,,,,,,,,,,,,i,1,0.5015,,,,,,冒失,i,,,1,74,154,39,1,,,,,,,,,,,,,,,,,,,,,,,,,,,,,,,,,,
,,,,,,,,,,,,,,1,001,2024-08-23_18h48.26.537,IAT(Formal),2021.2.3,Win32,59.52380952,,,,,,,,,,,,,,,i,1,0.4784,,,,,,猖狂,i,,,1,75,155,45,1,,,,,,,,,,,,,,,,,,,,,,,,,,,,,,,,,,
,,,,,,,,,,,,,,1,001,2024-08-23_18h48.26.537,IAT(Formal),2021.2.3,Win32,59.52380952,,,,,,,,,,,,,,,e,1,0.568,,,,,,朴实,e,,,1,76,156,24,1,,,,,,,,,,,,,,,,,,,,,,,,,,,,,,,,,,
,,,,,,,,,,,,,,1,001,2024-08-23_18h48.26.537,IAT(Formal),2021.2.3,Win32,59.52380952,,,,,,,,,,,,,,,i,1,0.5055,,,,,,他人,i,,,1,77,157,78,1,,,,,,,,,,,,,,,,,,,,,,,,,,,,,,,,,,
,,,,,,,,,,,,,,1,001,2024-08-23_18h48.26.537,IAT(Formal),2021.2.3,Win32,59.52380952,,,,,,,,,,,,,,,e,1,0.4794,,,,,,认真,e,,,1,78,158,20,1,,,,,,,,,,,,,,,,,,,,,,,,,,,,,,,,,,
,,,,,,,,,,,,,,1,001,2024-08-23_18h48.26.537,IAT(Formal),2021.2.3,Win32,59.52380952,,,,,,,,,,,,,,,e,1,0.4579,,,,,,自己,e,,,1,79,159,63,1,,,,,,,,,,,,,,,,,,,,,,,,,,,,,,,,,,
,,,,,,,,,,,,他们,e,1,001,2024-08-23_18h48.26.537,IAT(Formal),2021.2.3,Win32,59.52380952,,,,,,,,,,,,,,,,,,,,,,,,,,,,,,,,space,7.4869,e,1,0.6281,0,0,0,6,1,,,,,,,,,,,,,,,,,,,,,,,,
,,,,,,,,,,,,我的,i,1,001,2024-08-23_18h48.26.537,IAT(Formal),2021.2.3,Win32,59.52380952,,,,,,,,,,,,,,,,,,,,,,,,,,,,,,,,,,i,1,0.7245,0,1,1,1,1,,,,,,,,,,,,,,,,,,,,,,,,
,,,,,,,,,,,,他人,e,1,001,2024-08-23_18h48.26.537,IAT(Formal),2021.2.3,Win32,59.52380952,,,,,,,,,,,,,,,,,,,,,,,,,,,,,,,,,,e,1,0.4126,0,2,2,8,1,,,,,,,,,,,,,,,,,,,,,,,,
,,,,,,,,,,,,他,e,1,001,2024-08-23_18h48.26.537,IAT(Formal),2021.2.3,Win32,59.52380952,,,,,,,,,,,,,,,,,,,,,,,,,,,,,,,,,,e,1,0.4767,0,3,3,5,1,,,,,,,,,,,,,,,,,,,,,,,,
,,,,,,,,,,,,其他,e,1,001,2024-08-23_18h48.26.537,IAT(Formal),2021.2.3,Win32,59.52380952,,,,,,,,,,,,,,,,,,,,,,,,,,,,,,,,,,e,1,0.5472,0,4,4,9,1,,,,,,,,,,,,,,,,,,,,,,,,
,,,,,,,,,,,,自己,i,1,001,2024-08-23_18h48.26.537,IAT(Formal),2021.2.3,Win32,59.52380952,,,,,,,,,,,,,,,,,,,,,,,,,,,,,,,,,,i,1,0.6156,0,5,5,3,1,,,,,,,,,,,,,,,,,,,,,,,,
,,,,,,,,,,,,我们,i,1,001,2024-08-23_18h48.26.537,IAT(Formal),2021.2.3,Win32,59.52380952,,,,,,,,,,,,,,,,,,,,,,,,,,,,,,,,,,i,1,0.5044,0,6,6,2,1,,,,,,,,,,,,,,,,,,,,,,,,
,,,,,,,,,,,,他的,e,1,001,2024-08-23_18h48.26.537,IAT(Formal),2021.2.3,Win32,59.52380952,,,,,,,,,,,,,,,,,,,,,,,,,,,,,,,,,,e,1,0.6022,0,7,7,7,1,,,,,,,,,,,,,,,,,,,,,,,,
,,,,,,,,,,,,我,i,1,001,2024-08-23_18h48.26.537,IAT(Formal),2021.2.3,Win32,59.52380952,,,,,,,,,,,,,,,,,,,,,,,,,,,,,,,,,,i,1,0.5021,0,8,8,0,1,,,,,,,,,,,,,,,,,,,,,,,,
,,,,,,,,,,,,俺,i,1,001,2024-08-23_18h48.26.537,IAT(Formal),2021.2.3,Win32,59.52380952,,,,,,,,,,,,,,,,,,,,,,,,,,,,,,,,,,e,0,0.452,0,9,9,4,1,,,,,,,,,,,,,,,,,,,,,,,,
,,,,,,,,,,,,,,1,001,2024-08-23_18h48.26.537,IAT(Formal),2021.2.3,Win32,59.52380952,,,,,,,,,,,,,,,,,,,,,,,,,,,,,,,,,,,,,,,,,,space,8.8587,e,1,0.5327,0,0,0,65,1,他,e,,,,,,,,,,,,
,,,,,,,,,,,,,,1,001,2024-08-23_18h48.26.537,IAT(Formal),2021.2.3,Win32,59.52380952,,,,,,,,,,,,,,,,,,,,,,,,,,,,,,,,,,,,,,,,,,,,e,1,0.4625,0,1,1,77,1,他的,e,,,,,,,,,,,,
,,,,,,,,,,,,,,1,001,2024-08-23_18h48.26.537,IAT(Formal),2021.2.3,Win32,59.52380952,,,,,,,,,,,,,,,,,,,,,,,,,,,,,,,,,,,,,,,,,,,,i,1,0.5396,0,2,2,60,1,我,i,,,,,,,,,,,,
,,,,,,,,,,,,,,1,001,2024-08-23_18h48.26.537,IAT(Formal),2021.2.3,Win32,59.52380952,,,,,,,,,,,,,,,,,,,,,,,,,,,,,,,,,,,,,,,,,,,,i,1,0.4819,0,3,3,74,1,俺,i,,,,,,,,,,,,
,,,,,,,,,,,,,,1,001,2024-08-23_18h48.26.537,IAT(Formal),2021.2.3,Win32,59.52380952,,,,,,,,,,,,,,,,,,,,,,,,,,,,,,,,,,,,,,,,,,,,i,1,0.4805,0,4,4,51,1,我的,i,,,,,,,,,,,,
,,,,,,,,,,,,,,1,001,2024-08-23_18h48.26.537,IAT(Formal),2021.2.3,Win32,59.52380952,,,,,,,,,,,,,,,,,,,,,,,,,,,,,,,,,,,,,,,,,,,,i,0,0.5566,0,5,5,9,1,其他,e,,,,,,,,,,,,
,,,,,,,,,,,,,,1,001,2024-08-23_18h48.26.537,IAT(Formal),2021.2.3,Win32,59.52380952,,,,,,,,,,,,,,,,,,,,,,,,,,,,,,,,,,,,,,,,,,,,e,1,0.4701,0,6,6,56,1,他们,e,,,,,,,,,,,,
,,,,,,,,,,,,,,1,001,2024-08-23_18h48.26.537,IAT(Formal),2021.2.3,Win32,59.52380952,,,,,,,,,,,,,,,,,,,,,,,,,,,,,,,,,,,,,,,,,,,,e,1,0.3798,0,7,7,55,1,他,e,,,,,,,,,,,,
,,,,,,,,,,,,,,1,001,2024-08-23_18h48.26.537,IAT(Formal),2021.2.3,Win32,59.52380952,,,,,,,,,,,,,,,,,,,,,,,,,,,,,,,,,,,,,,,,,,,,e,0,0.498,0,8,8,72,1,我们,i,,,,,,,,,,,,
,,,,,,,,,,,,,,1,001,2024-08-23_18h48.26.537,IAT(Formal),2021.2.3,Win32,59.52380952,,,,,,,,,,,,,,,,,,,,,,,,,,,,,,,,,,,,,,,,,,,,e,1,0.5404,0,9,9,11,1,崇高,e,,,,,,,,,,,,
,,,,,,,,,,,,,,1,001,2024-08-23_18h48.26.537,IAT(Formal),2021.2.3,Win32,59.52380952,,,,,,,,,,,,,,,,,,,,,,,,,,,,,,,,,,,,,,,,,,,,i,1,0.6208,0,10,10,4,1,俺,i,,,,,,,,,,,,
,,,,,,,,,,,,,,1,001,2024-08-23_18h48.26.537,IAT(Formal),2021.2.3,Win32,59.52380952,,,,,,,,,,,,,,,,,,,,,,,,,,,,,,,,,,,,,,,,,,,,i,1,0.6207,0,11,11,37,1,傲慢,i,,,,,,,,,,,,
,,,,,,,,,,,,,,1,001,2024-08-23_18h48.26.537,IAT(Formal),2021.2.3,Win32,59.52380952,,,,,,,,,,,,,,,,,,,,,,,,,,,,,,,,,,,,,,,,,,,,i,1,0.58,0,12,12,35,1,消极,i,,,,,,,,,,,,
,,,,,,,,,,,,,,1,001,2024-08-23_18h48.26.537,IAT(Formal),2021.2.3,Win32,59.52380952,,,,,,,,,,,,,,,,,,,,,,,,,,,,,,,,,,,,,,,,,,,,i,1,0.4923,0,13,13,30,1,卑鄙,i,,,,,,,,,,,,
,,,,,,,,,,,,,,1,001,2024-08-23_18h48.26.537,IAT(Formal),2021.2.3,Win32,59.52380952,,,,,,,,,,,,,,,,,,,,,,,,,,,,,,,,,,,,,,,,,,,,e,1,0.7632,0,14,14,7,1,他的,e,,,,,,,,,,,,
,,,,,,,,,,,,,,1,001,2024-08-23_18h48.26.537,IAT(Formal),2021.2.3,Win32,59.52380952,,,,,,,,,,,,,,,,,,,,,,,,,,,,,,,,,,,,,,,,,,,,e,1,0.4726,0,15,15,78,1,他人,e,,,,,,,,,,,,
,,,,,,,,,,,,,,1,001,2024-08-23_18h48.26.537,IAT(Formal),2021.2.3,Win32,59.52380952,,,,,,,,,,,,,,,,,,,,,,,,,,,,,,,,,,,,,,,,,,,,e,1,0.6163,0,16,16,10,1,优秀,e,,,,,,,,,,,,
,,,,,,,,,,,,,,1,001,2024-08-23_18h48.26.537,IAT(Formal),2021.2.3,Win32,59.52380952,,,,,,,,,,,,,,,,,,,,,,,,,,,,,,,,,,,,,,,,,,,,i,1,0.7509,0,17,17,48,1,轻率,i,,,,,,,,,,,,
,,,,,,,,,,,,,,1,001,2024-08-23_18h48.26.537,IAT(Formal),2021.2.3,Win32,59.52380952,,,,,,,,,,,,,,,,,,,,,,,,,,,,,,,,,,,,,,,,,,,,i,1,0.9182,0,18,18,63,1,自己,i,,,,,,,,,,,,
,,,,,,,,,,,,,,1,001,2024-08-23_18h48.26.537,IAT(Formal),2021.2.3,Win32,59.52380952,,,,,,,,,,,,,,,,,,,,,,,,,,,,,,,,,,,,,,,,,,,,e,1,1.0344,0,19,19,29,1,诚恳,e,,,,,,,,,,,,
,,,,,,,,,,,,,,1,001,2024-08-23_18h48.26.537,IAT(Formal),2021.2.3,Win32,59.52380952,,,,,,,,,,,,,,,,,,,,,,,,,,,,,,,,,,,,,,,,,,,,e,1,0.9681,0,20,20,79,1,其他,e,,,,,,,,,,,,
,,,,,,,,,,,,,,1,001,2024-08-23_18h48.26.537,IAT(Formal),2021.2.3,Win32,59.52380952,,,,,,,,,,,,,,,,,,,,,,,,,,,,,,,,,,,,,,,,,,,,i,1,0.6678,0,21,21,70,1,我,i,,,,,,,,,,,,
,,,,,,,,,,,,,,1,001,2024-08-23_18h48.26.537,IAT(Formal),2021.2.3,Win32,59.52380952,,,,,,,,,,,,,,,,,,,,,,,,,,,,,,,,,,,,,,,,,,,,i,1,0.6684,0,22,22,34,1,悲观,i,,,,,,,,,,,,
,,,,,,,,,,,,,,1,001,2024-08-23_18h48.26.537,IAT(Formal),2021.2.3,Win32,59.52380952,,,,,,,,,,,,,,,,,,,,,,,,,,,,,,,,,,,,,,,,,,,,i,1,0.6181,0,23,23,33,1,刻薄,i,,,,,,,,,,,,
,,,,,,,,,,,,,,1,001,2024-08-23_18h48.26.537,IAT(Formal),2021.2.3,Win32,59.52380952,,,,,,,,,,,,,,,,,,,,,,,,,,,,,,,,,,,,,,,,,,,,i,1,0.551,0,24,24,43,1,自私,i,,,,,,,,,,,,
,,,,,,,,,,,,,,1,001,2024-08-23_18h48.26.537,IAT(Formal),2021.2.3,Win32,59.52380952,,,,,,,,,,,,,,,,,,,,,,,,,,,,,,,,,,,,,,,,,,,,e,1,0.7014,0,25,25,75,1,他,e,,,,,,,,,,,,
,,,,,,,,,,,,,,1,001,2024-08-23_18h48.26.537,IAT(Formal),2021.2.3,Win32,59.52380952,,,,,,,,,,,,,,,,,,,,,,,,,,,,,,,,,,,,,,,,,,,,i,1,0.7849,0,26,26,47,1,固执,i,,,,,,,,,,,,
,,,,,,,,,,,,,,1,001,2024-08-23_18h48.26.537,IAT(Formal),2021.2.3,Win32,59.52380952,,,,,,,,,,,,,,,,,,,,,,,,,,,,,,,,,,,,,,,,,,,,e,1,0.8843,0,27,27,6,1,他们,e,,,,,,,,,,,,
,,,,,,,,,,,,,,1,001,2024-08-23_18h48.26.537,IAT(Formal),2021.2.3,Win32,59.52380952,,,,,,,,,,,,,,,,,,,,,,,,,,,,,,,,,,,,,,,,,,,,i,1,0.5683,0,28,28,61,1,我的,i,,,,,,,,,,,,
,,,,,,,,,,,,,,1,001,2024-08-23_18h48.26.537,IAT(Formal),2021.2.3,Win32,59.52380952,,,,,,,,,,,,,,,,,,,,,,,,,,,,,,,,,,,,,,,,,,,,e,1,0.9183,0,29,29,17,1,勇敢,e,,,,,,,,,,,,
,,,,,,,,,,,,,,1,001,2024-08-23_18h48.26.537,IAT(Formal),2021.2.3,Win32,59.52380952,,,,,,,,,,,,,,,,,,,,,,,,,,,,,,,,,,,,,,,,,,,,e,0,0.7054,0,30,30,71,1,我的,i,,,,,,,,,,,,
,,,,,,,,,,,,,,1,001,2024-08-23_18h48.26.537,IAT(Formal),2021.2.3,Win32,59.52380952,,,,,,,,,,,,,,,,,,,,,,,,,,,,,,,,,,,,,,,,,,,,e,1,1.2483,0,31,31,15,1,诚实,e,,,,,,,,,,,,
,,,,,,,,,,,,,,1,001,2024-08-23_18h48.26.537,IAT(Formal),2021.2.3,Win32,59.52380952,,,,,,,,,,,,,,,,,,,,,,,,,,,,,,,,,,,,,,,,,,,,e,1,0.5653,0,32,32,16,1,正直,e,,,,,,,,,,,,
,,,,,,,,,,,,,,1,001,2024-08-23_18h48.26.537,IAT(Formal),2021.2.3,Win32,59.52380952,,,,,,,,,,,,,,,,,,,,,,,,,,,,,,,,,,,,,,,,,,,,i,1,0.6719,0,33,33,31,1,虚伪,i,,,,,,,,,,,,
,,,,,,,,,,,,,,1,001,2024-08-23_18h48.26.537,IAT(Formal),2021.2.3,Win32,59.52380952,,,,,,,,,,,,,,,,,,,,,,,,,,,,,,,,,,,,,,,,,,,,e,1,0.5224,0,34,34,20,1,认真,e,,,,,,,,,,,,
,,,,,,,,,,,,,,1,001,2024-08-23_18h48.26.537,IAT(Formal),2021.2.3,Win32,59.52380952,,,,,,,,,,,,,,,,,,,,,,,,,,,,,,,,,,,,,,,,,,,,i,1,0.7182,0,35,35,1,1,我的,i,,,,,,,,,,,,
,,,,,,,,,,,,,,1,001,2024-08-23_18h48.26.537,IAT(Formal),2021.2.3,Win32,59.52380952,,,,,,,,,,,,,,,,,,,,,,,,,,,,,,,,,,,,,,,,,,,,e,1,0.6509,0,36,36,12,1,聪明,e,,,,,,,,,,,,
,,,,,,,,,,,,,,1,001,2024-08-23_18h48.26.537,IAT(Formal),2021.2.3,Win32,59.52380952,,,,,,,,,,,,,,,,,,,,,,,,,,,,,,,,,,,,,,,,,,,,i,1,0.7372,0,37,37,3,1,自己,i,,,,,,,,,,,,
,,,,,,,,,,,,,,1,001,2024-08-23_18h48.26.537,IAT(Formal),2021.2.3,Win32,59.52380952,,,,,,,,,,,,,,,,,,,,,,,,,,,,,,,,,,,,,,,,,,,,i,1,0.5681,0,38,38,64,1,俺,i,,,,,,,,,,,,
,,,,,,,,,,,,,,1,001,2024-08-23_18h48.26.537,IAT(Formal),2021.2.3,Win32,59.52380952,,,,,,,,,,,,,,,,,,,,,,,,,,,,,,,,,,,,,,,,,,,,i,1,0.4351,0,39,39,73,1,自己,i,,,,,,,,,,,,
,,,,,,,,,,,,,,1,001,2024-08-23_18h48.26.537,IAT(Formal),2021.2.3,Win32,59.52380952,,,,,,,,,,,,,,,,,,,,,,,,,,,,,,,,,,,,,,,,,,,,e,1,0.5892,0,40,40,24,1,朴实,e,,,,,,,,,,,,
,,,,,,,,,,,,,,1,001,2024-08-23_18h48.26.537,IAT(Formal),2021.2.3,Win32,59.52380952,,,,,,,,,,,,,,,,,,,,,,,,,,,,,,,,,,,,,,,,,,,,e,1,0.5438,0,41,41,21,1,稳重,e,,,,,,,,,,,,
,,,,,,,,,,,,,,1,001,2024-08-23_18h48.26.537,IAT(Formal),2021.2.3,Win32,59.52380952,,,,,,,,,,,,,,,,,,,,,,,,,,,,,,,,,,,,,,,,,,,,i,1,0.6931,0,42,42,44,1,暴躁,i,,,,,,,,,,,,
,,,,,,,,,,,,,,1,001,2024-08-23_18h48.26.537,IAT(Formal),2021.2.3,Win32,59.52380952,,,,,,,,,,,,,,,,,,,,,,,,,,,,,,,,,,,,,,,,,,,,e,1,0.56,0,43,43,5,1,他,e,,,,,,,,,,,,
,,,,,,,,,,,,,,1,001,2024-08-23_18h48.26.537,IAT(Formal),2021.2.3,Win32,59.52380952,,,,,,,,,,,,,,,,,,,,,,,,,,,,,,,,,,,,,,,,,,,,e,1,0.4391,0,44,44,58,1,他人,e,,,,,,,,,,,,
,,,,,,,,,,,,,,1,001,2024-08-23_18h48.26.537,IAT(Formal),2021.2.3,Win32,59.52380952,,,,,,,,,,,,,,,,,,,,,,,,,,,,,,,,,,,,,,,,,,,,e,0,0.3845,0,45,45,52,1,我们,i,,,,,,,,,,,,
,,,,,,,,,,,,,,1,001,2024-08-23_18h48.26.537,IAT(Formal),2021.2.3,Win32,59.52380952,,,,,,,,,,,,,,,,,,,,,,,,,,,,,,,,,,,,,,,,,,,,e,1,0.5447,0,46,46,23,1,公正,e,,,,,,,,,,,,
,,,,,,,,,,,,,,1,001,2024-08-23_18h48.26.537,IAT(Formal),2021.2.3,Win32,59.52380952,,,,,,,,,,,,,,,,,,,,,,,,,,,,,,,,,,,,,,,,,,,,e,1,0.5017,0,47,47,13,1,杰出,e,,,,,,,,,,,,
,,,,,,,,,,,,,,1,001,2024-08-23_18h48.26.537,IAT(Formal),2021.2.3,Win32,59.52380952,,,,,,,,,,,,,,,,,,,,,,,,,,,,,,,,,,,,,,,,,,,,i,1,0.7248,0,48,48,41,1,散漫,i,,,,,,,,,,,,
,,,,,,,,,,,,,,1,001,2024-08-23_18h48.26.537,IAT(Formal),2021.2.3,Win32,59.52380952,,,,,,,,,,,,,,,,,,,,,,,,,,,,,,,,,,,,,,,,,,,,i,1,0.457,0,49,49,42,1,凶狠,i,,,,,,,,,,,,
,,,,,,,,,,,,,,1,001,2024-08-23_18h48.26.537,IAT(Formal),2021.2.3,Win32,59.52380952,,,,,,,,,,,,,,,,,,,,,,,,,,,,,,,,,,,,,,,,,,,,i,0,0.5057,0,50,50,19,1,机智,e,,,,,,,,,,,,
,,,,,,,,,,,,,,1,001,2024-08-23_18h48.26.537,IAT(Formal),2021.2.3,Win32,59.52380952,,,,,,,,,,,,,,,,,,,,,,,,,,,,,,,,,,,,,,,,,,,,e,1,0.5467,0,51,51,25,1,细腻,e,,,,,,,,,,,,
,,,,,,,,,,,,,,1,001,2024-08-23_18h48.26.537,IAT(Formal),2021.2.3,Win32,59.52380952,,,,,,,,,,,,,,,,,,,,,,,,,,,,,,,,,,,,,,,,,,,,i,1,0.554,0,52,52,46,1,野蛮,i,,,,,,,,,,,,
,,,,,,,,,,,,,,1,001,2024-08-23_18h48.26.537,IAT(Formal),2021.2.3,Win32,59.52380952,,,,,,,,,,,,,,,,,,,,,,,,,,,,,,,,,,,,,,,,,,,,e,0,0.5105,0,53,53,45,1,猖狂,i,,,,,,,,,,,,
,,,,,,,,,,,,,,1,001,2024-08-23_18h48.26.537,IAT(Formal),2021.2.3,Win32,59.52380952,,,,,,,,,,,,,,,,,,,,,,,,,,,,,,,,,,,,,,,,,,,,i,1,0.7346,0,54,54,32,1,愚蠢,i,,,,,,,,,,,,
,,,,,,,,,,,,,,1,001,2024-08-23_18h48.26.537,IAT(Formal),2021.2.3,Win32,59.52380952,,,,,,,,,,,,,,,,,,,,,,,,,,,,,,,,,,,,,,,,,,,,i,1,0.705,0,55,55,0,1,我,i,,,,,,,,,,,,
,,,,,,,,,,,,,,1,001,2024-08-23_18h48.26.537,IAT(Formal),2021.2.3,Win32,59.52380952,,,,,,,,,,,,,,,,,,,,,,,,,,,,,,,,,,,,,,,,,,,,e,1,0.6178,0,56,56,59,1,其他,e,,,,,,,,,,,,
,,,,,,,,,,,,,,1,001,2024-08-23_18h48.26.537,IAT(Formal),2021.2.3,Win32,59.52380952,,,,,,,,,,,,,,,,,,,,,,,,,,,,,,,,,,,,,,,,,,,,i,0,0.6046,0,57,57,14,1,乐观,e,,,,,,,,,,,,
,,,,,,,,,,,,,,1,001,2024-08-23_18h48.26.537,IAT(Formal),2021.2.3,Win32,59.52380952,,,,,,,,,,,,,,,,,,,,,,,,,,,,,,,,,,,,,,,,,,,,e,1,0.713,0,58,58,18,1,勤奋,e,,,,,,,,,,,,
,,,,,,,,,,,,,,1,001,2024-08-23_18h48.26.537,IAT(Formal),2021.2.3,Win32,59.52380952,,,,,,,,,,,,,,,,,,,,,,,,,,,,,,,,,,,,,,,,,,,,i,1,0.8173,0,59,59,50,1,我,i,,,,,,,,,,,,
,,,,,,,,,,,,,,1,001,2024-08-23_18h48.26.537,IAT(Formal),2021.2.3,Win32,59.52380952,,,,,,,,,,,,,,,,,,,,,,,,,,,,,,,,,,,,,,,,,,,,i,1,0.5587,0,60,60,53,1,自己,i,,,,,,,,,,,,
,,,,,,,,,,,,,,1,001,2024-08-23_18h48.26.537,IAT(Formal),2021.2.3,Win32,59.52380952,,,,,,,,,,,,,,,,,,,,,,,,,,,,,,,,,,,,,,,,,,,,e,1,0.6976,0,61,61,27,1,热情,e,,,,,,,,,,,,
,,,,,,,,,,,,,,1,001,2024-08-23_18h48.26.537,IAT(Formal),2021.2.3,Win32,59.52380952,,,,,,,,,,,,,,,,,,,,,,,,,,,,,,,,,,,,,,,,,,,,e,1,0.7275,0,62,62,66,1,他们,e,,,,,,,,,,,,
,,,,,,,,,,,,,,1,001,2024-08-23_18h48.26.537,IAT(Formal),2021.2.3,Win32,59.52380952,,,,,,,,,,,,,,,,,,,,,,,,,,,,,,,,,,,,,,,,,,,,e,1,0.4894,0,63,63,8,1,他人,e,,,,,,,,,,,,
,,,,,,,,,,,,,,1,001,2024-08-23_18h48.26.537,IAT(Formal),2021.2.3,Win32,59.52380952,,,,,,,,,,,,,,,,,,,,,,,,,,,,,,,,,,,,,,,,,,,,i,1,0.575,0,64,64,2,1,我们,i,,,,,,,,,,,,
,,,,,,,,,,,,,,1,001,2024-08-23_18h48.26.537,IAT(Formal),2021.2.3,Win32,59.52380952,,,,,,,,,,,,,,,,,,,,,,,,,,,,,,,,,,,,,,,,,,,,e,1,0.7182,0,65,65,69,1,其他,e,,,,,,,,,,,,
,,,,,,,,,,,,,,1,001,2024-08-23_18h48.26.537,IAT(Formal),2021.2.3,Win32,59.52380952,,,,,,,,,,,,,,,,,,,,,,,,,,,,,,,,,,,,,,,,,,,,i,1,1.3022,0,66,66,39,1,冒失,i,,,,,,,,,,,,
,,,,,,,,,,,,,,1,001,2024-08-23_18h48.26.537,IAT(Formal),2021.2.3,Win32,59.52380952,,,,,,,,,,,,,,,,,,,,,,,,,,,,,,,,,,,,,,,,,,,,e,1,0.6264,0,67,67,28,1,活泼,e,,,,,,,,,,,,
,,,,,,,,,,,,,,1,001,2024-08-23_18h48.26.537,IAT(Formal),2021.2.3,Win32,59.52380952,,,,,,,,,,,,,,,,,,,,,,,,,,,,,,,,,,,,,,,,,,,,i,1,0.6078,0,68,68,38,1,鲁莽,i,,,,,,,,,,,,
,,,,,,,,,,,,,,1,001,2024-08-23_18h48.26.537,IAT(Formal),2021.2.3,Win32,59.52380952,,,,,,,,,,,,,,,,,,,,,,,,,,,,,,,,,,,,,,,,,,,,i,1,0.51,0,69,69,36,1,自卑,i,,,,,,,,,,,,
,,,,,,,,,,,,,,1,001,2024-08-23_18h48.26.537,IAT(Formal),2021.2.3,Win32,59.52380952,,,,,,,,,,,,,,,,,,,,,,,,,,,,,,,,,,,,,,,,,,,,i,1,0.9732,0,70,70,62,1,我们,i,,,,,,,,,,,,
,,,,,,,,,,,,,,1,001,2024-08-23_18h48.26.537,IAT(Formal),2021.2.3,Win32,59.52380952,,,,,,,,,,,,,,,,,,,,,,,,,,,,,,,,,,,,,,,,,,,,i,1,0.5845,0,71,71,40,1,执拗,i,,,,,,,,,,,,
,,,,,,,,,,,,,,1,001,2024-08-23_18h48.26.537,IAT(Formal),2021.2.3,Win32,59.52380952,,,,,,,,,,,,,,,,,,,,,,,,,,,,,,,,,,,,,,,,,,,,i,1,0.5364,0,72,72,54,1,俺,i,,,,,,,,,,,,
,,,,,,,,,,,,,,1,001,2024-08-23_18h48.26.537,IAT(Formal),2021.2.3,Win32,59.52380952,,,,,,,,,,,,,,,,,,,,,,,,,,,,,,,,,,,,,,,,,,,,i,1,0.6112,0,73,73,49,1,下贱,i,,,,,,,,,,,,
,,,,,,,,,,,,,,1,001,2024-08-23_18h48.26.537,IAT(Formal),2021.2.3,Win32,59.52380952,,,,,,,,,,,,,,,,,,,,,,,,,,,,,,,,,,,,,,,,,,,,i,0,0.4513,0,74,74,57,1,他的,e,,,,,,,,,,,,
,,,,,,,,,,,,,,1,001,2024-08-23_18h48.26.537,IAT(Formal),2021.2.3,Win32,59.52380952,,,,,,,,,,,,,,,,,,,,,,,,,,,,,,,,,,,,,,,,,,,,e,1,0.7847,0,75,75,26,1,冷静,e,,,,,,,,,,,,
,,,,,,,,,,,,,,1,001,2024-08-23_18h48.26.537,IAT(Formal),2021.2.3,Win32,59.52380952,,,,,,,,,,,,,,,,,,,,,,,,,,,,,,,,,,,,,,,,,,,,e,1,0.454,0,76,76,76,1,他们,e,,,,,,,,,,,,
,,,,,,,,,,,,,,1,001,2024-08-23_18h48.26.537,IAT(Formal),2021.2.3,Win32,59.52380952,,,,,,,,,,,,,,,,,,,,,,,,,,,,,,,,,,,,,,,,,,,,e,1,0.4709,0,77,77,68,1,他人,e,,,,,,,,,,,,
,,,,,,,,,,,,,,1,001,2024-08-23_18h48.26.537,IAT(Formal),2021.2.3,Win32,59.52380952,,,,,,,,,,,,,,,,,,,,,,,,,,,,,,,,,,,,,,,,,,,,i,0,0.9516,0,78,78,22,1,无私,e,,,,,,,,,,,,
,,,,,,,,,,,,,,1,001,2024-08-23_18h48.26.537,IAT(Formal),2021.2.3,Win32,59.52380952,,,,,,,,,,,,,,,,,,,,,,,,,,,,,,,,,,,,,,,,,,,,e,1,0.7413,0,79,79,67,1,他的,e,,,,,,,,,,,,
,,,,,,,,,,,,,,1,001,2024-08-23_18h48.26.537,IAT(Formal),2021.2.3,Win32,59.52380952,,,,,,,,,,,,,,,,,,,,,,,,,,,,,,,,,,,,,,,,,,,,,,,,,,,,悲观,i,space,5.0871,i,1,0.7823,0,0,0,34,1,,
,,,,,,,,,,,,,,1,001,2024-08-23_18h48.26.537,IAT(Formal),2021.2.3,Win32,59.52380952,,,,,,,,,,,,,,,,,,,,,,,,,,,,,,,,,,,,,,,,,,,,,,,,,,,,我,i,,,i,1,0.6413,0,1,1,50,1,,
,,,,,,,,,,,,,,1,001,2024-08-23_18h48.26.537,IAT(Formal),2021.2.3,Win32,59.52380952,,,,,,,,,,,,,,,,,,,,,,,,,,,,,,,,,,,,,,,,,,,,,,,,,,,,他人,e,,,e,1,0.555,0,2,2,58,1,,
,,,,,,,,,,,,,,1,001,2024-08-23_18h48.26.537,IAT(Formal),2021.2.3,Win32,59.52380952,,,,,,,,,,,,,,,,,,,,,,,,,,,,,,,,,,,,,,,,,,,,,,,,,,,,他的,e,,,e,1,0.4434,0,3,3,7,1,,
,,,,,,,,,,,,,,1,001,2024-08-23_18h48.26.537,IAT(Formal),2021.2.3,Win32,59.52380952,,,,,,,,,,,,,,,,,,,,,,,,,,,,,,,,,,,,,,,,,,,,,,,,,,,,执拗,i,,,i,1,0.6479,0,4,4,40,1,,
,,,,,,,,,,,,,,1,001,2024-08-23_18h48.26.537,IAT(Formal),2021.2.3,Win32,59.52380952,,,,,,,,,,,,,,,,,,,,,,,,,,,,,,,,,,,,,,,,,,,,,,,,,,,,诚实,e,,,e,1,0.4796,0,5,5,15,1,,
,,,,,,,,,,,,,,1,001,2024-08-23_18h48.26.537,IAT(Formal),2021.2.3,Win32,59.52380952,,,,,,,,,,,,,,,,,,,,,,,,,,,,,,,,,,,,,,,,,,,,,,,,,,,,我们,i,,,e,0,0.4801,0,6,6,62,1,,
,,,,,,,,,,,,,,1,001,2024-08-23_18h48.26.537,IAT(Formal),2021.2.3,Win32,59.52380952,,,,,,,,,,,,,,,,,,,,,,,,,,,,,,,,,,,,,,,,,,,,,,,,,,,,他的,e,,,e,1,0.5347,0,7,7,57,1,,
,,,,,,,,,,,,,,1,001,2024-08-23_18h48.26.537,IAT(Formal),2021.2.3,Win32,59.52380952,,,,,,,,,,,,,,,,,,,,,,,,,,,,,,,,,,,,,,,,,,,,,,,,,,,,固执,i,,,i,1,0.7368,0,8,8,47,1,,
,,,,,,,,,,,,,,1,001,2024-08-23_18h48.26.537,IAT(Formal),2021.2.3,Win32,59.52380952,,,,,,,,,,,,,,,,,,,,,,,,,,,,,,,,,,,,,,,,,,,,,,,,,,,,他,e,,,e,1,0.6034,0,9,9,65,1,,
,,,,,,,,,,,,,,1,001,2024-08-23_18h48.26.537,IAT(Formal),2021.2.3,Win32,59.52380952,,,,,,,,,,,,,,,,,,,,,,,,,,,,,,,,,,,,,,,,,,,,,,,,,,,,俺,i,,,i,1,0.5918,0,10,10,74,1,,
,,,,,,,,,,,,,,1,001,2024-08-23_18h48.26.537,IAT(Formal),2021.2.3,Win32,59.52380952,,,,,,,,,,,,,,,,,,,,,,,,,,,,,,,,,,,,,,,,,,,,,,,,,,,,鲁莽,i,,,i,1,0.7567,0,11,11,38,1,,
,,,,,,,,,,,,,,1,001,2024-08-23_18h48.26.537,IAT(Formal),2021.2.3,Win32,59.52380952,,,,,,,,,,,,,,,,,,,,,,,,,,,,,,,,,,,,,,,,,,,,,,,,,,,,自己,i,,,i,1,0.5288,0,12,12,3,1,,
,,,,,,,,,,,,,,1,001,2024-08-23_18h48.26.537,IAT(Formal),2021.2.3,Win32,59.52380952,,,,,,,,,,,,,,,,,,,,,,,,,,,,,,,,,,,,,,,,,,,,,,,,,,,,凶狠,i,,,i,1,0.7858,0,13,13,42,1,,
,,,,,,,,,,,,,,1,001,2024-08-23_18h48.26.537,IAT(Formal),2021.2.3,Win32,59.52380952,,,,,,,,,,,,,,,,,,,,,,,,,,,,,,,,,,,,,,,,,,,,,,,,,,,,虚伪,i,,,i,1,0.5677,0,14,14,31,1,,
,,,,,,,,,,,,,,1,001,2024-08-23_18h48.26.537,IAT(Formal),2021.2.3,Win32,59.52380952,,,,,,,,,,,,,,,,,,,,,,,,,,,,,,,,,,,,,,,,,,,,,,,,,,,,他,e,,,e,1,0.5886,0,15,15,5,1,,
,,,,,,,,,,,,,,1,001,2024-08-23_18h48.26.537,IAT(Formal),2021.2.3,Win32,59.52380952,,,,,,,,,,,,,,,,,,,,,,,,,,,,,,,,,,,,,,,,,,,,,,,,,,,,冷静,e,,,e,1,0.4979,0,16,16,26,1,,
,,,,,,,,,,,,,,1,001,2024-08-23_18h48.26.537,IAT(Formal),2021.2.3,Win32,59.52380952,,,,,,,,,,,,,,,,,,,,,,,,,,,,,,,,,,,,,,,,,,,,,,,,,,,,细腻,e,,,e,1,0.7337,0,17,17,25,1,,
,,,,,,,,,,,,,,1,001,2024-08-23_18h48.26.537,IAT(Formal),2021.2.3,Win32,59.52380952,,,,,,,,,,,,,,,,,,,,,,,,,,,,,,,,,,,,,,,,,,,,,,,,,,,,自己,i,,,i,1,0.6831,0,18,18,73,1,,
,,,,,,,,,,,,,,1,001,2024-08-23_18h48.26.537,IAT(Formal),2021.2.3,Win32,59.52380952,,,,,,,,,,,,,,,,,,,,,,,,,,,,,,,,,,,,,,,,,,,,,,,,,,,,崇高,e,,,e,1,0.7008,0,19,19,11,1,,
,,,,,,,,,,,,,,1,001,2024-08-23_18h48.26.537,IAT(Formal),2021.2.3,Win32,59.52380952,,,,,,,,,,,,,,,,,,,,,,,,,,,,,,,,,,,,,,,,,,,,,,,,,,,,稳重,e,,,e,1,0.4861,0,20,20,21,1,,
,,,,,,,,,,,,,,1,001,2024-08-23_18h48.26.537,IAT(Formal),2021.2.3,Win32,59.52380952,,,,,,,,,,,,,,,,,,,,,,,,,,,,,,,,,,,,,,,,,,,,,,,,,,,,自卑,i,,,i,1,0.528,0,21,21,36,1,,
,,,,,,,,,,,,,,1,001,2024-08-23_18h48.26.537,IAT(Formal),2021.2.3,Win32,59.52380952,,,,,,,,,,,,,,,,,,,,,,,,,,,,,,,,,,,,,,,,,,,,,,,,,,,,热情,e,,,i,0,0.4685,0,22,22,27,1,,
,,,,,,,,,,,,,,1,001,2024-08-23_18h48.26.537,IAT(Formal),2021.2.3,Win32,59.52380952,,,,,,,,,,,,,,,,,,,,,,,,,,,,,,,,,,,,,,,,,,,,,,,,,,,,他们,e,,,e,1,0.5518,0,23,23,66,1,,
,,,,,,,,,,,,,,1,001,2024-08-23_18h48.26.537,IAT(Formal),2021.2.3,Win32,59.52380952,,,,,,,,,,,,,,,,,,,,,,,,,,,,,,,,,,,,,,,,,,,,,,,,,,,,消极,i,,,e,0,0.6006,0,24,24,35,1,,
,,,,,,,,,,,,,,1,001,2024-08-23_18h48.26.537,IAT(Formal),2021.2.3,Win32,59.52380952,,,,,,,,,,,,,,,,,,,,,,,,,,,,,,,,,,,,,,,,,,,,,,,,,,,,我的,i,,,i,1,0.8682,0,25,25,51,1,,
,,,,,,,,,,,,,,1,001,2024-08-23_18h48.26.537,IAT(Formal),2021.2.3,Win32,59.52380952,,,,,,,,,,,,,,,,,,,,,,,,,,,,,,,,,,,,,,,,,,,,,,,,,,,,他们,e,,,e,1,0.7028,0,26,26,76,1,,
,,,,,,,,,,,,,,1,001,2024-08-23_18h48.26.537,IAT(Formal),2021.2.3,Win32,59.52380952,,,,,,,,,,,,,,,,,,,,,,,,,,,,,,,,,,,,,,,,,,,,,,,,,,,,勤奋,e,,,e,1,0.8515,0,27,27,18,1,,
,,,,,,,,,,,,,,1,001,2024-08-23_18h48.26.537,IAT(Formal),2021.2.3,Win32,59.52380952,,,,,,,,,,,,,,,,,,,,,,,,,,,,,,,,,,,,,,,,,,,,,,,,,,,,乐观,e,,,e,1,0.6178,0,28,28,14,1,,
,,,,,,,,,,,,,,1,001,2024-08-23_18h48.26.537,IAT(Formal),2021.2.3,Win32,59.52380952,,,,,,,,,,,,,,,,,,,,,,,,,,,,,,,,,,,,,,,,,,,,,,,,,,,,诚恳,e,,,e,1,0.5748,0,29,29,29,1,,
,,,,,,,,,,,,,,1,001,2024-08-23_18h48.26.537,IAT(Formal),2021.2.3,Win32,59.52380952,,,,,,,,,,,,,,,,,,,,,,,,,,,,,,,,,,,,,,,,,,,,,,,,,,,,他人,e,,,i,0,0.7122,0,30,30,78,1,,
,,,,,,,,,,,,,,1,001,2024-08-23_18h48.26.537,IAT(Formal),2021.2.3,Win32,59.52380952,,,,,,,,,,,,,,,,,,,,,,,,,,,,,,,,,,,,,,,,,,,,,,,,,,,,公正,e,,,e,1,1.4131,0,31,31,23,1,,
,,,,,,,,,,,,,,1,001,2024-08-23_18h48.26.537,IAT(Formal),2021.2.3,Win32,59.52380952,,,,,,,,,,,,,,,,,,,,,,,,,,,,,,,,,,,,,,,,,,,,,,,,,,,,其他,e,,,e,1,1.0349,0,32,32,9,1,,
,,,,,,,,,,,,,,1,001,2024-08-23_18h48.26.537,IAT(Formal),2021.2.3,Win32,59.52380952,,,,,,,,,,,,,,,,,,,,,,,,,,,,,,,,,,,,,,,,,,,,,,,,,,,,俺,i,,,i,1,0.6439,0,33,33,54,1,,
,,,,,,,,,,,,,,1,001,2024-08-23_18h48.26.537,IAT(Formal),2021.2.3,Win32,59.52380952,,,,,,,,,,,,,,,,,,,,,,,,,,,,,,,,,,,,,,,,,,,,,,,,,,,,冒失,i,,,i,1,0.5793,0,34,34,39,1,,
,,,,,,,,,,,,,,1,001,2024-08-23_18h48.26.537,IAT(Formal),2021.2.3,Win32,59.52380952,,,,,,,,,,,,,,,,,,,,,,,,,,,,,,,,,,,,,,,,,,,,,,,,,,,,他们,e,,,e,1,0.62,0,35,35,56,1,,
,,,,,,,,,,,,,,1,001,2024-08-23_18h48.26.537,IAT(Formal),2021.2.3,Win32,59.52380952,,,,,,,,,,,,,,,,,,,,,,,,,,,,,,,,,,,,,,,,,,,,,,,,,,,,正直,e,,,e,1,0.5944,0,36,36,16,1,,
,,,,,,,,,,,,,,1,001,2024-08-23_18h48.26.537,IAT(Formal),2021.2.3,Win32,59.52380952,,,,,,,,,,,,,,,,,,,,,,,,,,,,,,,,,,,,,,,,,,,,,,,,,,,,无私,e,,,e,1,0.608,0,37,37,22,1,,
,,,,,,,,,,,,,,1,001,2024-08-23_18h48.26.537,IAT(Formal),2021.2.3,Win32,59.52380952,,,,,,,,,,,,,,,,,,,,,,,,,,,,,,,,,,,,,,,,,,,,,,,,,,,,他,e,,,e,1,0.7678,0,38,38,75,1,,
,,,,,,,,,,,,,,1,001,2024-08-23_18h48.26.537,IAT(Formal),2021.2.3,Win32,59.52380952,,,,,,,,,,,,,,,,,,,,,,,,,,,,,,,,,,,,,,,,,,,,,,,,,,,,自己,i,,,i,1,0.6861,0,39,39,53,1,,
,,,,,,,,,,,,,,1,001,2024-08-23_18h48.26.537,IAT(Formal),2021.2.3,Win32,59.52380952,,,,,,,,,,,,,,,,,,,,,,,,,,,,,,,,,,,,,,,,,,,,,,,,,,,,他人,e,,,e,1,0.5053,0,40,40,68,1,,
,,,,,,,,,,,,,,1,001,2024-08-23_18h48.26.537,IAT(Formal),2021.2.3,Win32,59.52380952,,,,,,,,,,,,,,,,,,,,,,,,,,,,,,,,,,,,,,,,,,,,,,,,,,,,其他,e,,,e,1,0.528,0,41,41,69,1,,
,,,,,,,,,,,,,,1,001,2024-08-23_18h48.26.537,IAT(Formal),2021.2.3,Win32,59.52380952,,,,,,,,,,,,,,,,,,,,,,,,,,,,,,,,,,,,,,,,,,,,,,,,,,,,暴躁,i,,,e,0,0.5679,0,42,42,44,1,,
,,,,,,,,,,,,,,1,001,2024-08-23_18h48.26.537,IAT(Formal),2021.2.3,Win32,59.52380952,,,,,,,,,,,,,,,,,,,,,,,,,,,,,,,,,,,,,,,,,,,,,,,,,,,,我,i,,,i,1,0.6104,0,43,43,70,1,,
,,,,,,,,,,,,,,1,001,2024-08-23_18h48.26.537,IAT(Formal),2021.2.3,Win32,59.52380952,,,,,,,,,,,,,,,,,,,,,,,,,,,,,,,,,,,,,,,,,,,,,,,,,,,,他,e,,,e,1,0.7184,0,44,44,55,1,,
,,,,,,,,,,,,,,1,001,2024-08-23_18h48.26.537,IAT(Formal),2021.2.3,Win32,59.52380952,,,,,,,,,,,,,,,,,,,,,,,,,,,,,,,,,,,,,,,,,,,,,,,,,,,,他的,e,,,e,1,0.5052,0,45,45,67,1,,
,,,,,,,,,,,,,,1,001,2024-08-23_18h48.26.537,IAT(Formal),2021.2.3,Win32,59.52380952,,,,,,,,,,,,,,,,,,,,,,,,,,,,,,,,,,,,,,,,,,,,,,,,,,,,愚蠢,i,,,i,1,0.6013,0,46,46,32,1,,
,,,,,,,,,,,,,,1,001,2024-08-23_18h48.26.537,IAT(Formal),2021.2.3,Win32,59.52380952,,,,,,,,,,,,,,,,,,,,,,,,,,,,,,,,,,,,,,,,,,,,,,,,,,,,猖狂,i,,,i,1,0.5132,0,47,47,45,1,,
,,,,,,,,,,,,,,1,001,2024-08-23_18h48.26.537,IAT(Formal),2021.2.3,Win32,59.52380952,,,,,,,,,,,,,,,,,,,,,,,,,,,,,,,,,,,,,,,,,,,,,,,,,,,,我们,i,,,i,1,0.6396,0,48,48,52,1,,
,,,,,,,,,,,,,,1,001,2024-08-23_18h48.26.537,IAT(Formal),2021.2.3,Win32,59.52380952,,,,,,,,,,,,,,,,,,,,,,,,,,,,,,,,,,,,,,,,,,,,,,,,,,,,我,i,,,i,1,0.4516,0,49,49,0,1,,
,,,,,,,,,,,,,,1,001,2024-08-23_18h48.26.537,IAT(Formal),2021.2.3,Win32,59.52380952,,,,,,,,,,,,,,,,,,,,,,,,,,,,,,,,,,,,,,,,,,,,,,,,,,,,野蛮,i,,,i,1,0.5075,0,50,50,46,1,,
,,,,,,,,,,,,,,1,001,2024-08-23_18h48.26.537,IAT(Formal),2021.2.3,Win32,59.52380952,,,,,,,,,,,,,,,,,,,,,,,,,,,,,,,,,,,,,,,,,,,,,,,,,,,,我,i,,,i,1,0.5441,0,51,51,60,1,,
,,,,,,,,,,,,,,1,001,2024-08-23_18h48.26.537,IAT(Formal),2021.2.3,Win32,59.52380952,,,,,,,,,,,,,,,,,,,,,,,,,,,,,,,,,,,,,,,,,,,,,,,,,,,,活泼,e,,,i,0,0.5024,0,52,52,28,1,,
,,,,,,,,,,,,,,1,001,2024-08-23_18h48.26.537,IAT(Formal),2021.2.3,Win32,59.52380952,,,,,,,,,,,,,,,,,,,,,,,,,,,,,,,,,,,,,,,,,,,,,,,,,,,,认真,e,,,e,1,0.7851,0,53,53,20,1,,
,,,,,,,,,,,,,,1,001,2024-08-23_18h48.26.537,IAT(Formal),2021.2.3,Win32,59.52380952,,,,,,,,,,,,,,,,,,,,,,,,,,,,,,,,,,,,,,,,,,,,,,,,,,,,朴实,e,,,e,1,0.6009,0,54,54,24,1,,
,,,,,,,,,,,,,,1,001,2024-08-23_18h48.26.537,IAT(Formal),2021.2.3,Win32,59.52380952,,,,,,,,,,,,,,,,,,,,,,,,,,,,,,,,,,,,,,,,,,,,,,,,,,,,我们,i,,,e,0,0.5178,0,55,55,2,1,,
,,,,,,,,,,,,,,1,001,2024-08-23_18h48.26.537,IAT(Formal),2021.2.3,Win32,59.52380952,,,,,,,,,,,,,,,,,,,,,,,,,,,,,,,,,,,,,,,,,,,,,,,,,,,,其他,e,,,e,1,0.6348,0,56,56,79,1,,
,,,,,,,,,,,,,,1,001,2024-08-23_18h48.26.537,IAT(Formal),2021.2.3,Win32,59.52380952,,,,,,,,,,,,,,,,,,,,,,,,,,,,,,,,,,,,,,,,,,,,,,,,,,,,刻薄,i,,,i,1,0.8014,0,57,57,33,1,,
,,,,,,,,,,,,,,1,001,2024-08-23_18h48.26.537,IAT(Formal),2021.2.3,Win32,59.52380952,,,,,,,,,,,,,,,,,,,,,,,,,,,,,,,,,,,,,,,,,,,,,,,,,,,,散漫,i,,,i,1,0.6183,0,58,58,41,1,,
,,,,,,,,,,,,,,1,001,2024-08-23_18h48.26.537,IAT(Formal),2021.2.3,Win32,59.52380952,,,,,,,,,,,,,,,,,,,,,,,,,,,,,,,,,,,,,,,,,,,,,,,,,,,,他的,e,,,e,1,0.6015,0,59,59,77,1,,
,,,,,,,,,,,,,,1,001,2024-08-23_18h48.26.537,IAT(Formal),2021.2.3,Win32,59.52380952,,,,,,,,,,,,,,,,,,,,,,,,,,,,,,,,,,,,,,,,,,,,,,,,,,,,我们,i,,,i,1,0.6012,0,60,60,72,1,,
,,,,,,,,,,,,,,1,001,2024-08-23_18h48.26.537,IAT(Formal),2021.2.3,Win32,59.52380952,,,,,,,,,,,,,,,,,,,,,,,,,,,,,,,,,,,,,,,,,,,,,,,,,,,,轻率,i,,,i,1,1.2185,0,61,61,48,1,,
,,,,,,,,,,,,,,1,001,2024-08-23_18h48.26.537,IAT(Formal),2021.2.3,Win32,59.52380952,,,,,,,,,,,,,,,,,,,,,,,,,,,,,,,,,,,,,,,,,,,,,,,,,,,,俺,i,,,i,1,0.5346,0,62,62,64,1,,
,,,,,,,,,,,,,,1,001,2024-08-23_18h48.26.537,IAT(Formal),2021.2.3,Win32,59.52380952,,,,,,,,,,,,,,,,,,,,,,,,,,,,,,,,,,,,,,,,,,,,,,,,,,,,我的,i,,,i,1,0.6514,0,63,63,71,1,,
,,,,,,,,,,,,,,1,001,2024-08-23_18h48.26.537,IAT(Formal),2021.2.3,Win32,59.52380952,,,,,,,,,,,,,,,,,,,,,,,,,,,,,,,,,,,,,,,,,,,,,,,,,,,,我的,i,,,i,1,0.6009,0,64,64,61,1,,
,,,,,,,,,,,,,,1,001,2024-08-23_18h48.26.537,IAT(Formal),2021.2.3,Win32,59.52380952,,,,,,,,,,,,,,,,,,,,,,,,,,,,,,,,,,,,,,,,,,,,,,,,,,,,他们,e,,,e,1,0.5685,0,65,65,6,1,,
,,,,,,,,,,,,,,1,001,2024-08-23_18h48.26.537,IAT(Formal),2021.2.3,Win32,59.52380952,,,,,,,,,,,,,,,,,,,,,,,,,,,,,,,,,,,,,,,,,,,,,,,,,,,,杰出,e,,,e,1,0.6515,0,66,66,13,1,,
,,,,,,,,,,,,,,1,001,2024-08-23_18h48.26.537,IAT(Formal),2021.2.3,Win32,59.52380952,,,,,,,,,,,,,,,,,,,,,,,,,,,,,,,,,,,,,,,,,,,,,,,,,,,,机智,e,,,e,1,0.5512,0,67,67,19,1,,
,,,,,,,,,,,,,,1,001,2024-08-23_18h48.26.537,IAT(Formal),2021.2.3,Win32,59.52380952,,,,,,,,,,,,,,,,,,,,,,,,,,,,,,,,,,,,,,,,,,,,,,,,,,,,自己,i,,,i,1,0.7014,0,68,68,63,1,,
,,,,,,,,,,,,,,1,001,2024-08-23_18h48.26.537,IAT(Formal),2021.2.3,Win32,59.52380952,,,,,,,,,,,,,,,,,,,,,,,,,,,,,,,,,,,,,,,,,,,,,,,,,,,,聪明,e,,,i,0,0.4847,0,69,69,12,1,,
,,,,,,,,,,,,,,1,001,2024-08-23_18h48.26.537,IAT(Formal),2021.2.3,Win32,59.52380952,,,,,,,,,,,,,,,,,,,,,,,,,,,,,,,,,,,,,,,,,,,,,,,,,,,,我的,i,,,i,1,0.6012,0,70,70,1,1,,
,,,,,,,,,,,,,,1,001,2024-08-23_18h48.26.537,IAT(Formal),2021.2.3,Win32,59.52380952,,,,,,,,,,,,,,,,,,,,,,,,,,,,,,,,,,,,,,,,,,,,,,,,,,,,卑鄙,i,,,i,1,0.6842,0,71,71,30,1,,
,,,,,,,,,,,,,,1,001,2024-08-23_18h48.26.537,IAT(Formal),2021.2.3,Win32,59.52380952,,,,,,,,,,,,,,,,,,,,,,,,,,,,,,,,,,,,,,,,,,,,,,,,,,,,其他,e,,,e,1,0.6345,0,72,72,59,1,,
,,,,,,,,,,,,,,1,001,2024-08-23_18h48.26.537,IAT(Formal),2021.2.3,Win32,59.52380952,,,,,,,,,,,,,,,,,,,,,,,,,,,,,,,,,,,,,,,,,,,,,,,,,,,,下贱,i,,,i,1,0.7347,0,73,73,49,1,,
,,,,,,,,,,,,,,1,001,2024-08-23_18h48.26.537,IAT(Formal),2021.2.3,Win32,59.52380952,,,,,,,,,,,,,,,,,,,,,,,,,,,,,,,,,,,,,,,,,,,,,,,,,,,,勇敢,e,,,e,1,0.618,0,74,74,17,1,,
,,,,,,,,,,,,,,1,001,2024-08-23_18h48.26.537,IAT(Formal),2021.2.3,Win32,59.52380952,,,,,,,,,,,,,,,,,,,,,,,,,,,,,,,,,,,,,,,,,,,,,,,,,,,,他人,e,,,e,1,0.6181,0,75,75,8,1,,
,,,,,,,,,,,,,,1,001,2024-08-23_18h48.26.537,IAT(Formal),2021.2.3,Win32,59.52380952,,,,,,,,,,,,,,,,,,,,,,,,,,,,,,,,,,,,,,,,,,,,,,,,,,,,俺,i,,,i,1,0.5845,0,76,76,4,1,,
,,,,,,,,,,,,,,1,001,2024-08-23_18h48.26.537,IAT(Formal),2021.2.3,Win32,59.52380952,,,,,,,,,,,,,,,,,,,,,,,,,,,,,,,,,,,,,,,,,,,,,,,,,,,,自私,i,,,i,1,0.7181,0,77,77,43,1,,
,,,,,,,,,,,,,,1,001,2024-08-23_18h48.26.537,IAT(Formal),2021.2.3,Win32,59.52380952,,,,,,,,,,,,,,,,,,,,,,,,,,,,,,,,,,,,,,,,,,,,,,,,,,,,优秀,e,,,e,1,0.6017,0,78,78,10,1,,
,,,,,,,,,,,,,,1,001,2024-08-23_18h48.26.537,IAT(Formal),2021.2.3,Win32,59.52380952,,,,,,,,,,,,,,,,,,,,,,,,,,,,,,,,,,,,,,,,,,,,,,,,,,,,傲慢,i,,,i,1,0.6849,0,79,79,37,1,,
,,,,,,,,,,,,,,1,001,2024-08-23_18h48.26.537,IAT(Formal),2021.2.3,Win32,59.52380952,,,,,,,,,,,,,,,,,,,,,,,,,,,,,,,,,,,,,,,,,,,,,,,,,,,,其他,e,,,e,1,0.7678,1,0,80,69,1,,
,,,,,,,,,,,,,,1,001,2024-08-23_18h48.26.537,IAT(Formal),2021.2.3,Win32,59.52380952,,,,,,,,,,,,,,,,,,,,,,,,,,,,,,,,,,,,,,,,,,,,,,,,,,,,他人,e,,,e,1,0.5343,1,1,81,8,1,,
,,,,,,,,,,,,,,1,001,2024-08-23_18h48.26.537,IAT(Formal),2021.2.3,Win32,59.52380952,,,,,,,,,,,,,,,,,,,,,,,,,,,,,,,,,,,,,,,,,,,,,,,,,,,,冷静,e,,,e,1,0.7181,1,2,82,26,1,,
,,,,,,,,,,,,,,1,001,2024-08-23_18h48.26.537,IAT(Formal),2021.2.3,Win32,59.52380952,,,,,,,,,,,,,,,,,,,,,,,,,,,,,,,,,,,,,,,,,,,,,,,,,,,,俺,i,,,i,1,0.6179,1,3,83,74,1,,
,,,,,,,,,,,,,,1,001,2024-08-23_18h48.26.537,IAT(Formal),2021.2.3,Win32,59.52380952,,,,,,,,,,,,,,,,,,,,,,,,,,,,,,,,,,,,,,,,,,,,,,,,,,,,我的,i,,,i,1,0.4346,1,4,84,71,1,,
,,,,,,,,,,,,,,1,001,2024-08-23_18h48.26.537,IAT(Formal),2021.2.3,Win32,59.52380952,,,,,,,,,,,,,,,,,,,,,,,,,,,,,,,,,,,,,,,,,,,,,,,,,,,,他们,e,,,e,1,0.5843,1,5,85,56,1,,
,,,,,,,,,,,,,,1,001,2024-08-23_18h48.26.537,IAT(Formal),2021.2.3,Win32,59.52380952,,,,,,,,,,,,,,,,,,,,,,,,,,,,,,,,,,,,,,,,,,,,,,,,,,,,我,i,,,i,1,0.4674,1,6,86,0,1,,
,,,,,,,,,,,,,,1,001,2024-08-23_18h48.26.537,IAT(Formal),2021.2.3,Win32,59.52380952,,,,,,,,,,,,,,,,,,,,,,,,,,,,,,,,,,,,,,,,,,,,,,,,,,,,自己,i,,,i,1,0.5511,1,7,87,3,1,,
,,,,,,,,,,,,,,1,001,2024-08-23_18h48.26.537,IAT(Formal),2021.2.3,Win32,59.52380952,,,,,,,,,,,,,,,,,,,,,,,,,,,,,,,,,,,,,,,,,,,,,,,,,,,,崇高,e,,,i,0,0.5344,1,8,88,11,1,,
,,,,,,,,,,,,,,1,001,2024-08-23_18h48.26.537,IAT(Formal),2021.2.3,Win32,59.52380952,,,,,,,,,,,,,,,,,,,,,,,,,,,,,,,,,,,,,,,,,,,,,,,,,,,,杰出,e,,,e,1,0.8351,1,9,89,13,1,,
,,,,,,,,,,,,,,1,001,2024-08-23_18h48.26.537,IAT(Formal),2021.2.3,Win32,59.52380952,,,,,,,,,,,,,,,,,,,,,,,,,,,,,,,,,,,,,,,,,,,,,,,,,,,,鲁莽,i,,,i,1,0.6179,1,10,90,38,1,,
,,,,,,,,,,,,,,1,001,2024-08-23_18h48.26.537,IAT(Formal),2021.2.3,Win32,59.52380952,,,,,,,,,,,,,,,,,,,,,,,,,,,,,,,,,,,,,,,,,,,,,,,,,,,,诚实,e,,,e,1,0.7674,1,11,91,15,1,,
,,,,,,,,,,,,,,1,001,2024-08-23_18h48.26.537,IAT(Formal),2021.2.3,Win32,59.52380952,,,,,,,,,,,,,,,,,,,,,,,,,,,,,,,,,,,,,,,,,,,,,,,,,,,,勇敢,e,,,e,1,0.5343,1,12,92,17,1,,
,,,,,,,,,,,,,,1,001,2024-08-23_18h48.26.537,IAT(Formal),2021.2.3,Win32,59.52380952,,,,,,,,,,,,,,,,,,,,,,,,,,,,,,,,,,,,,,,,,,,,,,,,,,,,野蛮,i,,,i,1,0.6175,1,13,93,46,1,,
,,,,,,,,,,,,,,1,001,2024-08-23_18h48.26.537,IAT(Formal),2021.2.3,Win32,59.52380952,,,,,,,,,,,,,,,,,,,,,,,,,,,,,,,,,,,,,,,,,,,,,,,,,,,,活泼,e,,,e,1,0.6017,1,14,94,28,1,,
,,,,,,,,,,,,,,1,001,2024-08-23_18h48.26.537,IAT(Formal),2021.2.3,Win32,59.52380952,,,,,,,,,,,,,,,,,,,,,,,,,,,,,,,,,,,,,,,,,,,,,,,,,,,,自己,i,,,i,1,0.6343,1,15,95,73,1,,
,,,,,,,,,,,,,,1,001,2024-08-23_18h48.26.537,IAT(Formal),2021.2.3,Win32,59.52380952,,,,,,,,,,,,,,,,,,,,,,,,,,,,,,,,,,,,,,,,,,,,,,,,,,,,热情,e,,,e,1,0.7348,1,16,96,27,1,,
,,,,,,,,,,,,,,1,001,2024-08-23_18h48.26.537,IAT(Formal),2021.2.3,Win32,59.52380952,,,,,,,,,,,,,,,,,,,,,,,,,,,,,,,,,,,,,,,,,,,,,,,,,,,,自卑,i,,,i,1,0.5017,1,17,97,36,1,,
,,,,,,,,,,,,,,1,001,2024-08-23_18h48.26.537,IAT(Formal),2021.2.3,Win32,59.52380952,,,,,,,,,,,,,,,,,,,,,,,,,,,,,,,,,,,,,,,,,,,,,,,,,,,,虚伪,i,,,i,1,0.6012,1,18,98,31,1,,
,,,,,,,,,,,,,,1,001,2024-08-23_18h48.26.537,IAT(Formal),2021.2.3,Win32,59.52380952,,,,,,,,,,,,,,,,,,,,,,,,,,,,,,,,,,,,,,,,,,,,,,,,,,,,我的,i,,,e,0,0.6511,1,19,99,61,1,,
,,,,,,,,,,,,,,1,001,2024-08-23_18h48.26.537,IAT(Formal),2021.2.3,Win32,59.52380952,,,,,,,,,,,,,,,,,,,,,,,,,,,,,,,,,,,,,,,,,,,,,,,,,,,,机智,e,,,e,1,0.7686,1,20,100,19,1,,
,,,,,,,,,,,,,,1,001,2024-08-23_18h48.26.537,IAT(Formal),2021.2.3,Win32,59.52380952,,,,,,,,,,,,,,,,,,,,,,,,,,,,,,,,,,,,,,,,,,,,,,,,,,,,他们,e,,,e,1,0.8016,1,21,101,66,1,,
,,,,,,,,,,,,,,1,001,2024-08-23_18h48.26.537,IAT(Formal),2021.2.3,Win32,59.52380952,,,,,,,,,,,,,,,,,,,,,,,,,,,,,,,,,,,,,,,,,,,,,,,,,,,,固执,i,,,i,1,0.7345,1,22,102,47,1,,
,,,,,,,,,,,,,,1,001,2024-08-23_18h48.26.537,IAT(Formal),2021.2.3,Win32,59.52380952,,,,,,,,,,,,,,,,,,,,,,,,,,,,,,,,,,,,,,,,,,,,,,,,,,,,他的,e,,,i,0,0.5677,1,23,103,57,1,,
,,,,,,,,,,,,,,1,001,2024-08-23_18h48.26.537,IAT(Formal),2021.2.3,Win32,59.52380952,,,,,,,,,,,,,,,,,,,,,,,,,,,,,,,,,,,,,,,,,,,,,,,,,,,,乐观,e,,,e,1,1.0181,1,24,104,14,1,,
,,,,,,,,,,,,,,1,001,2024-08-23_18h48.26.537,IAT(Formal),2021.2.3,Win32,59.52380952,,,,,,,,,,,,,,,,,,,,,,,,,,,,,,,,,,,,,,,,,,,,,,,,,,,,暴躁,i,,,i,1,0.7846,1,25,105,44,1,,
,,,,,,,,,,,,,,1,001,2024-08-23_18h48.26.537,IAT(Formal),2021.2.3,Win32,59.52380952,,,,,,,,,,,,,,,,,,,,,,,,,,,,,,,,,,,,,,,,,,,,,,,,,,,,自私,i,,,i,1,0.6513,1,26,106,43,1,,
,,,,,,,,,,,,,,1,001,2024-08-23_18h48.26.537,IAT(Formal),2021.2.3,Win32,59.52380952,,,,,,,,,,,,,,,,,,,,,,,,,,,,,,,,,,,,,,,,,,,,,,,,,,,,优秀,e,,,e,1,0.6185,1,27,107,10,1,,
,,,,,,,,,,,,,,1,001,2024-08-23_18h48.26.537,IAT(Formal),2021.2.3,Win32,59.52380952,,,,,,,,,,,,,,,,,,,,,,,,,,,,,,,,,,,,,,,,,,,,,,,,,,,,其他,e,,,e,1,0.8182,1,28,108,9,1,,
,,,,,,,,,,,,,,1,001,2024-08-23_18h48.26.537,IAT(Formal),2021.2.3,Win32,59.52380952,,,,,,,,,,,,,,,,,,,,,,,,,,,,,,,,,,,,,,,,,,,,,,,,,,,,无私,e,,,e,1,1.0171,1,29,109,22,1,,
,,,,,,,,,,,,,,1,001,2024-08-23_18h48.26.537,IAT(Formal),2021.2.3,Win32,59.52380952,,,,,,,,,,,,,,,,,,,,,,,,,,,,,,,,,,,,,,,,,,,,,,,,,,,,他的,e,,,e,1,0.7678,1,30,110,77,1,,
,,,,,,,,,,,,,,1,001,2024-08-23_18h48.26.537,IAT(Formal),2021.2.3,Win32,59.52380952,,,,,,,,,,,,,,,,,,,,,,,,,,,,,,,,,,,,,,,,,,,,,,,,,,,,稳重,e,,,e,1,0.7019,1,31,111,21,1,,
,,,,,,,,,,,,,,1,001,2024-08-23_18h48.26.537,IAT(Formal),2021.2.3,Win32,59.52380952,,,,,,,,,,,,,,,,,,,,,,,,,,,,,,,,,,,,,,,,,,,,,,,,,,,,猖狂,i,,,i,1,0.7684,1,32,112,45,1,,
,,,,,,,,,,,,,,1,001,2024-08-23_18h48.26.537,IAT(Formal),2021.2.3,Win32,59.52380952,,,,,,,,,,,,,,,,,,,,,,,,,,,,,,,,,,,,,,,,,,,,,,,,,,,,傲慢,i,,,i,1,0.585,1,33,113,37,1,,
,,,,,,,,,,,,,,1,001,2024-08-23_18h48.26.537,IAT(Formal),2021.2.3,Win32,59.52380952,,,,,,,,,,,,,,,,,,,,,,,,,,,,,,,,,,,,,,,,,,,,,,,,,,,,我,i,,,i,1,0.7345,1,34,114,70,1,,
,,,,,,,,,,,,,,1,001,2024-08-23_18h48.26.537,IAT(Formal),2021.2.3,Win32,59.52380952,,,,,,,,,,,,,,,,,,,,,,,,,,,,,,,,,,,,,,,,,,,,,,,,,,,,他的,e,,,e,1,0.7346,1,35,115,67,1,,
,,,,,,,,,,,,,,1,001,2024-08-23_18h48.26.537,IAT(Formal),2021.2.3,Win32,59.52380952,,,,,,,,,,,,,,,,,,,,,,,,,,,,,,,,,,,,,,,,,,,,,,,,,,,,我们,i,,,i,1,0.5012,1,36,116,2,1,,
,,,,,,,,,,,,,,1,001,2024-08-23_18h48.26.537,IAT(Formal),2021.2.3,Win32,59.52380952,,,,,,,,,,,,,,,,,,,,,,,,,,,,,,,,,,,,,,,,,,,,,,,,,,,,他人,e,,,e,1,0.5681,1,37,117,58,1,,
,,,,,,,,,,,,,,1,001,2024-08-23_18h48.26.537,IAT(Formal),2021.2.3,Win32,59.52380952,,,,,,,,,,,,,,,,,,,,,,,,,,,,,,,,,,,,,,,,,,,,,,,,,,,,我们,i,,,i,1,0.6176,1,38,118,62,1,,
,,,,,,,,,,,,,,1,001,2024-08-23_18h48.26.537,IAT(Formal),2021.2.3,Win32,59.52380952,,,,,,,,,,,,,,,,,,,,,,,,,,,,,,,,,,,,,,,,,,,,,,,,,,,,自己,i,,,i,1,0.6683,1,39,119,53,1,,
,,,,,,,,,,,,,,1,001,2024-08-23_18h48.26.537,IAT(Formal),2021.2.3,Win32,59.52380952,,,,,,,,,,,,,,,,,,,,,,,,,,,,,,,,,,,,,,,,,,,,,,,,,,,,我,i,,,i,1,0.6013,1,40,120,60,1,,
,,,,,,,,,,,,,,1,001,2024-08-23_18h48.26.537,IAT(Formal),2021.2.3,Win32,59.52380952,,,,,,,,,,,,,,,,,,,,,,,,,,,,,,,,,,,,,,,,,,,,,,,,,,,,朴实,e,,,e,1,0.5955,1,41,121,24,1,,
,,,,,,,,,,,,,,1,001,2024-08-23_18h48.26.537,IAT(Formal),2021.2.3,Win32,59.52380952,,,,,,,,,,,,,,,,,,,,,,,,,,,,,,,,,,,,,,,,,,,,,,,,,,,,其他,e,,,e,1,0.4848,1,42,122,79,1,,
,,,,,,,,,,,,,,1,001,2024-08-23_18h48.26.537,IAT(Formal),2021.2.3,Win32,59.52380952,,,,,,,,,,,,,,,,,,,,,,,,,,,,,,,,,,,,,,,,,,,,,,,,,,,,他的,e,,,e,1,0.4915,1,43,123,7,1,,
,,,,,,,,,,,,,,1,001,2024-08-23_18h48.26.537,IAT(Formal),2021.2.3,Win32,59.52380952,,,,,,,,,,,,,,,,,,,,,,,,,,,,,,,,,,,,,,,,,,,,,,,,,,,,凶狠,i,,,i,1,0.6512,1,44,124,42,1,,
,,,,,,,,,,,,,,1,001,2024-08-23_18h48.26.537,IAT(Formal),2021.2.3,Win32,59.52380952,,,,,,,,,,,,,,,,,,,,,,,,,,,,,,,,,,,,,,,,,,,,,,,,,,,,公正,e,,,i,0,0.518,1,45,125,23,1,,
,,,,,,,,,,,,,,1,001,2024-08-23_18h48.26.537,IAT(Formal),2021.2.3,Win32,59.52380952,,,,,,,,,,,,,,,,,,,,,,,,,,,,,,,,,,,,,,,,,,,,,,,,,,,,他人,e,,,e,1,0.6362,1,46,126,68,1,,
,,,,,,,,,,,,,,1,001,2024-08-23_18h48.26.537,IAT(Formal),2021.2.3,Win32,59.52380952,,,,,,,,,,,,,,,,,,,,,,,,,,,,,,,,,,,,,,,,,,,,,,,,,,,,我的,i,,,e,0,0.6399,1,47,127,51,1,,
,,,,,,,,,,,,,,1,001,2024-08-23_18h48.26.537,IAT(Formal),2021.2.3,Win32,59.52380952,,,,,,,,,,,,,,,,,,,,,,,,,,,,,,,,,,,,,,,,,,,,,,,,,,,,细腻,e,,,e,1,0.651,1,48,128,25,1,,
,,,,,,,,,,,,,,1,001,2024-08-23_18h48.26.537,IAT(Formal),2021.2.3,Win32,59.52380952,,,,,,,,,,,,,,,,,,,,,,,,,,,,,,,,,,,,,,,,,,,,,,,,,,,,愚蠢,i,,,i,1,0.6938,1,49,129,32,1,,
,,,,,,,,,,,,,,1,001,2024-08-23_18h48.26.537,IAT(Formal),2021.2.3,Win32,59.52380952,,,,,,,,,,,,,,,,,,,,,,,,,,,,,,,,,,,,,,,,,,,,,,,,,,,,他们,e,,,e,1,0.5849,1,50,130,6,1,,
,,,,,,,,,,,,,,1,001,2024-08-23_18h48.26.537,IAT(Formal),2021.2.3,Win32,59.52380952,,,,,,,,,,,,,,,,,,,,,,,,,,,,,,,,,,,,,,,,,,,,,,,,,,,,下贱,i,,,i,1,0.5547,1,51,131,49,1,,
,,,,,,,,,,,,,,1,001,2024-08-23_18h48.26.537,IAT(Formal),2021.2.3,Win32,59.52380952,,,,,,,,,,,,,,,,,,,,,,,,,,,,,,,,,,,,,,,,,,,,,,,,,,,,轻率,i,,,i,1,0.7348,1,52,132,48,1,,
,,,,,,,,,,,,,,1,001,2024-08-23_18h48.26.537,IAT(Formal),2021.2.3,Win32,59.52380952,,,,,,,,,,,,,,,,,,,,,,,,,,,,,,,,,,,,,,,,,,,,,,,,,,,,我们,i,,,i,1,0.8785,1,53,133,72,1,,
,,,,,,,,,,,,,,1,001,2024-08-23_18h48.26.537,IAT(Formal),2021.2.3,Win32,59.52380952,,,,,,,,,,,,,,,,,,,,,,,,,,,,,,,,,,,,,,,,,,,,,,,,,,,,他,e,,,e,1,0.4878,1,54,134,75,1,,
,,,,,,,,,,,,,,1,001,2024-08-23_18h48.26.537,IAT(Formal),2021.2.3,Win32,59.52380952,,,,,,,,,,,,,,,,,,,,,,,,,,,,,,,,,,,,,,,,,,,,,,,,,,,,卑鄙,i,,,i,1,0.6648,1,55,135,30,1,,
,,,,,,,,,,,,,,1,001,2024-08-23_18h48.26.537,IAT(Formal),2021.2.3,Win32,59.52380952,,,,,,,,,,,,,,,,,,,,,,,,,,,,,,,,,,,,,,,,,,,,,,,,,,,,执拗,i,,,i,1,0.5845,1,56,136,40,1,,
,,,,,,,,,,,,,,1,001,2024-08-23_18h48.26.537,IAT(Formal),2021.2.3,Win32,59.52380952,,,,,,,,,,,,,,,,,,,,,,,,,,,,,,,,,,,,,,,,,,,,,,,,,,,,勤奋,e,,,e,1,0.6209,1,57,137,18,1,,
,,,,,,,,,,,,,,1,001,2024-08-23_18h48.26.537,IAT(Formal),2021.2.3,Win32,59.52380952,,,,,,,,,,,,,,,,,,,,,,,,,,,,,,,,,,,,,,,,,,,,,,,,,,,,认真,e,,,e,1,0.5633,1,58,138,20,1,,
,,,,,,,,,,,,,,1,001,2024-08-23_18h48.26.537,IAT(Formal),2021.2.3,Win32,59.52380952,,,,,,,,,,,,,,,,,,,,,,,,,,,,,,,,,,,,,,,,,,,,,,,,,,,,我们,i,,,e,0,0.6512,1,59,139,52,1,,
,,,,,,,,,,,,,,1,001,2024-08-23_18h48.26.537,IAT(Formal),2021.2.3,Win32,59.52380952,,,,,,,,,,,,,,,,,,,,,,,,,,,,,,,,,,,,,,,,,,,,,,,,,,,,自己,i,,,i,1,0.5226,1,60,140,63,1,,
,,,,,,,,,,,,,,1,001,2024-08-23_18h48.26.537,IAT(Formal),2021.2.3,Win32,59.52380952,,,,,,,,,,,,,,,,,,,,,,,,,,,,,,,,,,,,,,,,,,,,,,,,,,,,散漫,i,,,i,1,0.6084,1,61,141,41,1,,
,,,,,,,,,,,,,,1,001,2024-08-23_18h48.26.537,IAT(Formal),2021.2.3,Win32,59.52380952,,,,,,,,,,,,,,,,,,,,,,,,,,,,,,,,,,,,,,,,,,,,,,,,,,,,俺,i,,,i,1,0.5478,1,62,142,54,1,,
,,,,,,,,,,,,,,1,001,2024-08-23_18h48.26.537,IAT(Formal),2021.2.3,Win32,59.52380952,,,,,,,,,,,,,,,,,,,,,,,,,,,,,,,,,,,,,,,,,,,,,,,,,,,,他,e,,,i,0,0.5348,1,63,143,65,1,,
,,,,,,,,,,,,,,1,001,2024-08-23_18h48.26.537,IAT(Formal),2021.2.3,Win32,59.52380952,,,,,,,,,,,,,,,,,,,,,,,,,,,,,,,,,,,,,,,,,,,,,,,,,,,,俺,i,,,i,1,0.6683,1,64,144,64,1,,
,,,,,,,,,,,,,,1,001,2024-08-23_18h48.26.537,IAT(Formal),2021.2.3,Win32,59.52380952,,,,,,,,,,,,,,,,,,,,,,,,,,,,,,,,,,,,,,,,,,,,,,,,,,,,俺,i,,,i,1,0.4729,1,65,145,4,1,,
,,,,,,,,,,,,,,1,001,2024-08-23_18h48.26.537,IAT(Formal),2021.2.3,Win32,59.52380952,,,,,,,,,,,,,,,,,,,,,,,,,,,,,,,,,,,,,,,,,,,,,,,,,,,,他们,e,,,e,1,0.5379,1,66,146,76,1,,
,,,,,,,,,,,,,,1,001,2024-08-23_18h48.26.537,IAT(Formal),2021.2.3,Win32,59.52380952,,,,,,,,,,,,,,,,,,,,,,,,,,,,,,,,,,,,,,,,,,,,,,,,,,,,他,e,,,e,1,0.4036,1,67,147,55,1,,
,,,,,,,,,,,,,,1,001,2024-08-23_18h48.26.537,IAT(Formal),2021.2.3,Win32,59.52380952,,,,,,,,,,,,,,,,,,,,,,,,,,,,,,,,,,,,,,,,,,,,,,,,,,,,聪明,e,,,e,1,0.6566,1,68,148,12,1,,
,,,,,,,,,,,,,,1,001,2024-08-23_18h48.26.537,IAT(Formal),2021.2.3,Win32,59.52380952,,,,,,,,,,,,,,,,,,,,,,,,,,,,,,,,,,,,,,,,,,,,,,,,,,,,悲观,i,,,i,1,0.8368,1,69,149,34,1,,
,,,,,,,,,,,,,,1,001,2024-08-23_18h48.26.537,IAT(Formal),2021.2.3,Win32,59.52380952,,,,,,,,,,,,,,,,,,,,,,,,,,,,,,,,,,,,,,,,,,,,,,,,,,,,我的,i,,,i,1,0.5767,1,70,150,1,1,,
,,,,,,,,,,,,,,1,001,2024-08-23_18h48.26.537,IAT(Formal),2021.2.3,Win32,59.52380952,,,,,,,,,,,,,,,,,,,,,,,,,,,,,,,,,,,,,,,,,,,,,,,,,,,,刻薄,i,,,i,1,0.5981,1,71,151,33,1,,
,,,,,,,,,,,,,,1,001,2024-08-23_18h48.26.537,IAT(Formal),2021.2.3,Win32,59.52380952,,,,,,,,,,,,,,,,,,,,,,,,,,,,,,,,,,,,,,,,,,,,,,,,,,,,他,e,,,e,1,0.7011,1,72,152,5,1,,
,,,,,,,,,,,,,,1,001,2024-08-23_18h48.26.537,IAT(Formal),2021.2.3,Win32,59.52380952,,,,,,,,,,,,,,,,,,,,,,,,,,,,,,,,,,,,,,,,,,,,,,,,,,,,他人,e,,,e,1,0.5221,1,73,153,78,1,,
,,,,,,,,,,,,,,1,001,2024-08-23_18h48.26.537,IAT(Formal),2021.2.3,Win32,59.52380952,,,,,,,,,,,,,,,,,,,,,,,,,,,,,,,,,,,,,,,,,,,,,,,,,,,,正直,e,,,i,0,0.741,1,74,154,16,1,,
,,,,,,,,,,,,,,1,001,2024-08-23_18h48.26.537,IAT(Formal),2021.2.3,Win32,59.52380952,,,,,,,,,,,,,,,,,,,,,,,,,,,,,,,,,,,,,,,,,,,,,,,,,,,,其他,e,,,e,1,0.768,1,75,155,59,1,,
,,,,,,,,,,,,,,1,001,2024-08-23_18h48.26.537,IAT(Formal),2021.2.3,Win32,59.52380952,,,,,,,,,,,,,,,,,,,,,,,,,,,,,,,,,,,,,,,,,,,,,,,,,,,,我,i,,,i,1,0.6345,1,76,156,50,1,,
,,,,,,,,,,,,,,1,001,2024-08-23_18h48.26.537,IAT(Formal),2021.2.3,Win32,59.52380952,,,,,,,,,,,,,,,,,,,,,,,,,,,,,,,,,,,,,,,,,,,,,,,,,,,,诚恳,e,,,e,1,0.7514,1,77,157,29,1,,
,,,,,,,,,,,,,,1,001,2024-08-23_18h48.26.537,IAT(Formal),2021.2.3,Win32,59.52380952,,,,,,,,,,,,,,,,,,,,,,,,,,,,,,,,,,,,,,,,,,,,,,,,,,,,消极,i,,,i,1,0.5847,1,78,158,35,1,,
,,,,,,,,,,,,,,1,001,2024-08-23_18h48.26.537,IAT(Formal),2021.2.3,Win32,59.52380952,,,,,,,,,,,,,,,,,,,,,,,,,,,,,,,,,,,,,,,,,,,,,,,,,,,,冒失,i,,,i,1,0.6013,1,79,159,39,1,,
,,,,,,,,,,,,,,1,001,2024-08-23_18h48.26.537,IAT(Formal),2021.2.3,Win32,59.52380952,,,,,,,,,,,,,,,,,,,,,,,,,,,,,,,,,,,,,,,,,,,,,,,,,,,,,,,,,,,,,,,,space,1.7258