"X.Instruction1.keys","Instruction1.rt","Instruction2.keys","Instruction2.rt","key_resp_iso.keys","key_resp_iso.corr","key_resp_iso.rt","Practice_01.thisRepN","Practice_01.thisTrialN","Practice_01.thisN","Practice_01.thisIndex","Practice_01.ran","Words","ans","participant","session","date","expName","psychopyVersion","OS","frameRate","key_resp_3.keys","key_resp_3.rt","key_resp_ipn.keys","key_resp_ipn.corr","key_resp_ipn.rt","Practice_02.thisRepN","Practice_02.thisTrialN","Practice_02.thisN","Practice_02.thisIndex","Practice_02.ran","Words_ipn","ans_ipn","key_resp_4.keys","key_resp_4.rt","key_resp_t1.keys","key_resp_t1.corr","key_resp_t1.rt","Practice_T1.thisRepN","Practice_T1.thisTrialN","Practice_T1.thisN","Practice_T1.thisIndex","Practice_T1.ran","Words_t1","ans_t1","key_resp_5.keys","key_resp_5.rt","Formal_T1.thisRepN","Formal_T1.thisTrialN","Formal_T1.thisN","Formal_T1.thisIndex","Formal_T1.ran","key_resp_6.keys","key_resp_6.rt","key_resp_iso_reverse.keys","key_resp_iso_reverse.corr","key_resp_iso_reverse.rt","Practice_iso_Reverse.thisRepN","Practice_iso_Reverse.thisTrialN","Practice_iso_Reverse.thisN","Practice_iso_Reverse.thisIndex","Practice_iso_Reverse.ran","key_resp_7.keys","key_resp_7.rt","key_resp_t2_Practice.keys","key_resp_t2_Practice.corr","key_resp_t2_Practice.rt","Practice_t2_Reverse.thisRepN","Practice_t2_Reverse.thisTrialN","Practice_t2_Reverse.thisN","Practice_t2_Reverse.thisIndex","Practice_t2_Reverse.ran","Words_t2","ans_t2","key_resp_8.keys","key_resp_8.rt","key_resp_t2.keys","key_resp_t2.corr","key_resp_t2.rt","Formal_t2_reverse.thisRepN","Formal_t2_reverse.thisTrialN","Formal_t2_reverse.thisN","Formal_t2_reverse.thisIndex","Formal_t2_reverse.ran","key_instruct.keys","key_instruct.rt","Subject"
"space",5.2319,"space",8.6775,"i",1,0.6423,0,0,0,6,1,"他们","i",1,1,"2024-08-23_18h48.26.537","IAT(Formal)","2021.2.3","Win32",59.52380952,"",NA,"",NA,NA,NA,NA,NA,NA,NA,"","","",NA,"",NA,NA,NA,NA,NA,NA,NA,"","","",NA,NA,NA,NA,NA,NA,"",NA,"",NA,NA,NA,NA,NA,NA,NA,"",NA,"",NA,NA,NA,NA,NA,NA,NA,"","","",NA,"",NA,NA,NA,NA,NA,NA,NA,"",NA,"13"
"",NA,"",NA,"i",1,0.5021,0,1,1,8,1,"他人","i",1,1,"2024-08-23_18h48.26.537","IAT(Formal)","2021.2.3","Win32",59.52380952,"",NA,"",NA,NA,NA,NA,NA,NA,NA,"","","",NA,"",NA,NA,NA,NA,NA,NA,NA,"","","",NA,NA,NA,NA,NA,NA,"",NA,"",NA,NA,NA,NA,NA,NA,NA,"",NA,"",NA,NA,NA,NA,NA,NA,NA,"","","",NA,"",NA,NA,NA,NA,NA,NA,NA,"",NA,"13"
"",NA,"",NA,"i",1,0.5707,0,2,2,9,1,"其他","i",1,1,"2024-08-23_18h48.26.537","IAT(Formal)","2021.2.3","Win32",59.52380952,"",NA,"",NA,NA,NA,NA,NA,NA,NA,"","","",NA,"",NA,NA,NA,NA,NA,NA,NA,"","","",NA,NA,NA,NA,NA,NA,"",NA,"",NA,NA,NA,NA,NA,NA,NA,"",NA,"",NA,NA,NA,NA,NA,NA,NA,"","","",NA,"",NA,NA,NA,NA,NA,NA,NA,"",NA,"13"
"",NA,"",NA,"e",1,0.4895,0,3,3,1,1,"我的","e",1,1,"2024-08-23_18h48.26.537","IAT(Formal)","2021.2.3","Win32",59.52380952,"",NA,"",NA,NA,NA,NA,NA,NA,NA,"","","",NA,"",NA,NA,NA,NA,NA,NA,NA,"","","",NA,NA,NA,NA,NA,NA,"",NA,"",NA,NA,NA,NA,NA,NA,NA,"",NA,"",NA,NA,NA,NA,NA,NA,NA,"","","",NA,"",NA,NA,NA,NA,NA,NA,NA,"",NA,"13"
"",NA,"",NA,"e",1,0.518,0,4,4,4,1,"俺","e",1,1,"2024-08-23_18h48.26.537","IAT(Formal)","2021.2.3","Win32",59.52380952,"",NA,"",NA,NA,NA,NA,NA,NA,NA,"","","",NA,"",NA,NA,NA,NA,NA,NA,NA,"","","",NA,NA,NA,NA,NA,NA,"",NA,"",NA,NA,NA,NA,NA,NA,NA,"",NA,"",NA,NA,NA,NA,NA,NA,NA,"","","",NA,"",NA,NA,NA,NA,NA,NA,NA,"",NA,"13"
"",NA,"",NA,"e",1,0.3588,0,5,5,3,1,"自己","e",1,1,"2024-08-23_18h48.26.537","IAT(Formal)","2021.2.3","Win32",59.52380952,"",NA,"",NA,NA,NA,NA,NA,NA,NA,"","","",NA,"",NA,NA,NA,NA,NA,NA,NA,"","","",NA,NA,NA,NA,NA,NA,"",NA,"",NA,NA,NA,NA,NA,NA,NA,"",NA,"",NA,NA,NA,NA,NA,NA,NA,"","","",NA,"",NA,NA,NA,NA,NA,NA,NA,"",NA,"13"
"",NA,"",NA,"e",1,0.4966,0,6,6,0,1,"我","e",1,1,"2024-08-23_18h48.26.537","IAT(Formal)","2021.2.3","Win32",59.52380952,"",NA,"",NA,NA,NA,NA,NA,NA,NA,"","","",NA,"",NA,NA,NA,NA,NA,NA,NA,"","","",NA,NA,NA,NA,NA,NA,"",NA,"",NA,NA,NA,NA,NA,NA,NA,"",NA,"",NA,NA,NA,NA,NA,NA,NA,"","","",NA,"",NA,NA,NA,NA,NA,NA,NA,"",NA,"13"
"",NA,"",NA,"i",1,0.5845,0,7,7,7,1,"他的","i",1,1,"2024-08-23_18h48.26.537","IAT(Formal)","2021.2.3","Win32",59.52380952,"",NA,"",NA,NA,NA,NA,NA,NA,NA,"","","",NA,"",NA,NA,NA,NA,NA,NA,NA,"","","",NA,NA,NA,NA,NA,NA,"",NA,"",NA,NA,NA,NA,NA,NA,NA,"",NA,"",NA,NA,NA,NA,NA,NA,NA,"","","",NA,"",NA,NA,NA,NA,NA,NA,NA,"",NA,"13"
"",NA,"",NA,"i",1,0.4397,0,8,8,5,1,"他","i",1,1,"2024-08-23_18h48.26.537","IAT(Formal)","2021.2.3","Win32",59.52380952,"",NA,"",NA,NA,NA,NA,NA,NA,NA,"","","",NA,"",NA,NA,NA,NA,NA,NA,NA,"","","",NA,NA,NA,NA,NA,NA,"",NA,"",NA,NA,NA,NA,NA,NA,NA,"",NA,"",NA,NA,NA,NA,NA,NA,NA,"","","",NA,"",NA,NA,NA,NA,NA,NA,NA,"",NA,"13"
"",NA,"",NA,"e",1,0.5023,0,9,9,2,1,"我们","e",1,1,"2024-08-23_18h48.26.537","IAT(Formal)","2021.2.3","Win32",59.52380952,"",NA,"",NA,NA,NA,NA,NA,NA,NA,"","","",NA,"",NA,NA,NA,NA,NA,NA,NA,"","","",NA,NA,NA,NA,NA,NA,"",NA,"",NA,NA,NA,NA,NA,NA,NA,"",NA,"",NA,NA,NA,NA,NA,NA,NA,"","","",NA,"",NA,NA,NA,NA,NA,NA,NA,"",NA,"13"
"",NA,"",NA,"",NA,NA,NA,NA,NA,NA,NA,"","",1,1,"2024-08-23_18h48.26.537","IAT(Formal)","2021.2.3","Win32",59.52380952,"space",4.2908,"i",1,0.5768,0,0,0,37,1,"固执","i","",NA,"",NA,NA,NA,NA,NA,NA,NA,"","","",NA,NA,NA,NA,NA,NA,"",NA,"",NA,NA,NA,NA,NA,NA,NA,"",NA,"",NA,NA,NA,NA,NA,NA,NA,"","","",NA,"",NA,NA,NA,NA,NA,NA,NA,"",NA,"13"
"",NA,"",NA,"",NA,NA,NA,NA,NA,NA,NA,"","",1,1,"2024-08-23_18h48.26.537","IAT(Formal)","2021.2.3","Win32",59.52380952,"",NA,"e",1,0.4621,0,1,1,8,1,"勤奋","e","",NA,"",NA,NA,NA,NA,NA,NA,NA,"","","",NA,NA,NA,NA,NA,NA,"",NA,"",NA,NA,NA,NA,NA,NA,NA,"",NA,"",NA,NA,NA,NA,NA,NA,NA,"","","",NA,"",NA,NA,NA,NA,NA,NA,NA,"",NA,"13"
"",NA,"",NA,"",NA,NA,NA,NA,NA,NA,NA,"","",1,1,"2024-08-23_18h48.26.537","IAT(Formal)","2021.2.3","Win32",59.52380952,"",NA,"e",1,0.432,0,2,2,19,1,"诚恳","e","",NA,"",NA,NA,NA,NA,NA,NA,NA,"","","",NA,NA,NA,NA,NA,NA,"",NA,"",NA,NA,NA,NA,NA,NA,NA,"",NA,"",NA,NA,NA,NA,NA,NA,NA,"","","",NA,"",NA,NA,NA,NA,NA,NA,NA,"",NA,"13"
"",NA,"",NA,"",NA,NA,NA,NA,NA,NA,NA,"","",1,1,"2024-08-23_18h48.26.537","IAT(Formal)","2021.2.3","Win32",59.52380952,"",NA,"e",1,0.5235,0,3,3,10,1,"认真","e","",NA,"",NA,NA,NA,NA,NA,NA,NA,"","","",NA,NA,NA,NA,NA,NA,"",NA,"",NA,NA,NA,NA,NA,NA,NA,"",NA,"",NA,NA,NA,NA,NA,NA,NA,"","","",NA,"",NA,NA,NA,NA,NA,NA,NA,"",NA,"13"
"",NA,"",NA,"",NA,NA,NA,NA,NA,NA,NA,"","",1,1,"2024-08-23_18h48.26.537","IAT(Formal)","2021.2.3","Win32",59.52380952,"",NA,"i",1,0.7624,0,4,4,23,1,"刻薄","i","",NA,"",NA,NA,NA,NA,NA,NA,NA,"","","",NA,NA,NA,NA,NA,NA,"",NA,"",NA,NA,NA,NA,NA,NA,NA,"",NA,"",NA,NA,NA,NA,NA,NA,NA,"","","",NA,"",NA,NA,NA,NA,NA,NA,NA,"",NA,"13"
"",NA,"",NA,"",NA,NA,NA,NA,NA,NA,NA,"","",1,1,"2024-08-23_18h48.26.537","IAT(Formal)","2021.2.3","Win32",59.52380952,"",NA,"i",1,0.5575,0,5,5,22,1,"愚蠢","i","",NA,"",NA,NA,NA,NA,NA,NA,NA,"","","",NA,NA,NA,NA,NA,NA,"",NA,"",NA,NA,NA,NA,NA,NA,NA,"",NA,"",NA,NA,NA,NA,NA,NA,NA,"","","",NA,"",NA,NA,NA,NA,NA,NA,NA,"",NA,"13"
"",NA,"",NA,"",NA,NA,NA,NA,NA,NA,NA,"","",1,1,"2024-08-23_18h48.26.537","IAT(Formal)","2021.2.3","Win32",59.52380952,"",NA,"e",1,0.6346,0,6,6,11,1,"稳重","e","",NA,"",NA,NA,NA,NA,NA,NA,NA,"","","",NA,NA,NA,NA,NA,NA,"",NA,"",NA,NA,NA,NA,NA,NA,NA,"",NA,"",NA,NA,NA,NA,NA,NA,NA,"","","",NA,"",NA,NA,NA,NA,NA,NA,NA,"",NA,"13"
"",NA,"",NA,"",NA,NA,NA,NA,NA,NA,NA,"","",1,1,"2024-08-23_18h48.26.537","IAT(Formal)","2021.2.3","Win32",59.52380952,"",NA,"e",0,0.5375,0,7,7,27,1,"傲慢","i","",NA,"",NA,NA,NA,NA,NA,NA,NA,"","","",NA,NA,NA,NA,NA,NA,"",NA,"",NA,NA,NA,NA,NA,NA,NA,"",NA,"",NA,NA,NA,NA,NA,NA,NA,"","","",NA,"",NA,NA,NA,NA,NA,NA,NA,"",NA,"13"
"",NA,"",NA,"",NA,NA,NA,NA,NA,NA,NA,"","",1,1,"2024-08-23_18h48.26.537","IAT(Formal)","2021.2.3","Win32",59.52380952,"",NA,"e",1,0.5985,0,8,8,5,1,"诚实","e","",NA,"",NA,NA,NA,NA,NA,NA,NA,"","","",NA,NA,NA,NA,NA,NA,"",NA,"",NA,NA,NA,NA,NA,NA,NA,"",NA,"",NA,NA,NA,NA,NA,NA,NA,"","","",NA,"",NA,NA,NA,NA,NA,NA,NA,"",NA,"13"
"",NA,"",NA,"",NA,NA,NA,NA,NA,NA,NA,"","",1,1,"2024-08-23_18h48.26.537","IAT(Formal)","2021.2.3","Win32",59.52380952,"",NA,"i",1,0.5312,0,9,9,30,1,"执拗","i","",NA,"",NA,NA,NA,NA,NA,NA,NA,"","","",NA,NA,NA,NA,NA,NA,"",NA,"",NA,NA,NA,NA,NA,NA,NA,"",NA,"",NA,NA,NA,NA,NA,NA,NA,"","","",NA,"",NA,NA,NA,NA,NA,NA,NA,"",NA,"13"
"",NA,"",NA,"",NA,NA,NA,NA,NA,NA,NA,"","",1,1,"2024-08-23_18h48.26.537","IAT(Formal)","2021.2.3","Win32",59.52380952,"",NA,"e",1,0.4753,0,10,10,3,1,"杰出","e","",NA,"",NA,NA,NA,NA,NA,NA,NA,"","","",NA,NA,NA,NA,NA,NA,"",NA,"",NA,NA,NA,NA,NA,NA,NA,"",NA,"",NA,NA,NA,NA,NA,NA,NA,"","","",NA,"",NA,NA,NA,NA,NA,NA,NA,"",NA,"13"
"",NA,"",NA,"",NA,NA,NA,NA,NA,NA,NA,"","",1,1,"2024-08-23_18h48.26.537","IAT(Formal)","2021.2.3","Win32",59.52380952,"",NA,"e",1,0.5253,0,11,11,0,1,"优秀","e","",NA,"",NA,NA,NA,NA,NA,NA,NA,"","","",NA,NA,NA,NA,NA,NA,"",NA,"",NA,NA,NA,NA,NA,NA,NA,"",NA,"",NA,NA,NA,NA,NA,NA,NA,"","","",NA,"",NA,NA,NA,NA,NA,NA,NA,"",NA,"13"
"",NA,"",NA,"",NA,NA,NA,NA,NA,NA,NA,"","",1,1,"2024-08-23_18h48.26.537","IAT(Formal)","2021.2.3","Win32",59.52380952,"",NA,"i",1,0.5716,0,12,12,24,1,"悲观","i","",NA,"",NA,NA,NA,NA,NA,NA,NA,"","","",NA,NA,NA,NA,NA,NA,"",NA,"",NA,NA,NA,NA,NA,NA,NA,"",NA,"",NA,NA,NA,NA,NA,NA,NA,"","","",NA,"",NA,NA,NA,NA,NA,NA,NA,"",NA,"13"
"",NA,"",NA,"",NA,NA,NA,NA,NA,NA,NA,"","",1,1,"2024-08-23_18h48.26.537","IAT(Formal)","2021.2.3","Win32",59.52380952,"",NA,"e",1,0.495,0,13,13,13,1,"公正","e","",NA,"",NA,NA,NA,NA,NA,NA,NA,"","","",NA,NA,NA,NA,NA,NA,"",NA,"",NA,NA,NA,NA,NA,NA,NA,"",NA,"",NA,NA,NA,NA,NA,NA,NA,"","","",NA,"",NA,NA,NA,NA,NA,NA,NA,"",NA,"13"
"",NA,"",NA,"",NA,NA,NA,NA,NA,NA,NA,"","",1,1,"2024-08-23_18h48.26.537","IAT(Formal)","2021.2.3","Win32",59.52380952,"",NA,"i",1,0.6311,0,14,14,21,1,"虚伪","i","",NA,"",NA,NA,NA,NA,NA,NA,NA,"","","",NA,NA,NA,NA,NA,NA,"",NA,"",NA,NA,NA,NA,NA,NA,NA,"",NA,"",NA,NA,NA,NA,NA,NA,NA,"","","",NA,"",NA,NA,NA,NA,NA,NA,NA,"",NA,"13"
"",NA,"",NA,"",NA,NA,NA,NA,NA,NA,NA,"","",1,1,"2024-08-23_18h48.26.537","IAT(Formal)","2021.2.3","Win32",59.52380952,"",NA,"e",1,0.4573,0,15,15,1,1,"崇高","e","",NA,"",NA,NA,NA,NA,NA,NA,NA,"","","",NA,NA,NA,NA,NA,NA,"",NA,"",NA,NA,NA,NA,NA,NA,NA,"",NA,"",NA,NA,NA,NA,NA,NA,NA,"","","",NA,"",NA,NA,NA,NA,NA,NA,NA,"",NA,"13"
"",NA,"",NA,"",NA,NA,NA,NA,NA,NA,NA,"","",1,1,"2024-08-23_18h48.26.537","IAT(Formal)","2021.2.3","Win32",59.52380952,"",NA,"i",0,0.4965,0,16,16,12,1,"无私","e","",NA,"",NA,NA,NA,NA,NA,NA,NA,"","","",NA,NA,NA,NA,NA,NA,"",NA,"",NA,NA,NA,NA,NA,NA,NA,"",NA,"",NA,NA,NA,NA,NA,NA,NA,"","","",NA,"",NA,NA,NA,NA,NA,NA,NA,"",NA,"13"
"",NA,"",NA,"",NA,NA,NA,NA,NA,NA,NA,"","",1,1,"2024-08-23_18h48.26.537","IAT(Formal)","2021.2.3","Win32",59.52380952,"",NA,"e",1,0.5095,0,17,17,17,1,"热情","e","",NA,"",NA,NA,NA,NA,NA,NA,NA,"","","",NA,NA,NA,NA,NA,NA,"",NA,"",NA,NA,NA,NA,NA,NA,NA,"",NA,"",NA,NA,NA,NA,NA,NA,NA,"","","",NA,"",NA,NA,NA,NA,NA,NA,NA,"",NA,"13"
"",NA,"",NA,"",NA,NA,NA,NA,NA,NA,NA,"","",1,1,"2024-08-23_18h48.26.537","IAT(Formal)","2021.2.3","Win32",59.52380952,"",NA,"e",1,0.4459,0,18,18,6,1,"正直","e","",NA,"",NA,NA,NA,NA,NA,NA,NA,"","","",NA,NA,NA,NA,NA,NA,"",NA,"",NA,NA,NA,NA,NA,NA,NA,"",NA,"",NA,NA,NA,NA,NA,NA,NA,"","","",NA,"",NA,NA,NA,NA,NA,NA,NA,"",NA,"13"
"",NA,"",NA,"",NA,NA,NA,NA,NA,NA,NA,"","",1,1,"2024-08-23_18h48.26.537","IAT(Formal)","2021.2.3","Win32",59.52380952,"",NA,"i",1,0.7254,0,19,19,20,1,"卑鄙","i","",NA,"",NA,NA,NA,NA,NA,NA,NA,"","","",NA,NA,NA,NA,NA,NA,"",NA,"",NA,NA,NA,NA,NA,NA,NA,"",NA,"",NA,NA,NA,NA,NA,NA,NA,"","","",NA,"",NA,NA,NA,NA,NA,NA,NA,"",NA,"13"
"",NA,"",NA,"",NA,NA,NA,NA,NA,NA,NA,"","",1,1,"2024-08-23_18h48.26.537","IAT(Formal)","2021.2.3","Win32",59.52380952,"",NA,"i",1,0.4864,0,20,20,36,1,"野蛮","i","",NA,"",NA,NA,NA,NA,NA,NA,NA,"","","",NA,NA,NA,NA,NA,NA,"",NA,"",NA,NA,NA,NA,NA,NA,NA,"",NA,"",NA,NA,NA,NA,NA,NA,NA,"","","",NA,"",NA,NA,NA,NA,NA,NA,NA,"",NA,"13"
"",NA,"",NA,"",NA,NA,NA,NA,NA,NA,NA,"","",1,1,"2024-08-23_18h48.26.537","IAT(Formal)","2021.2.3","Win32",59.52380952,"",NA,"e",0,0.5252,0,21,21,31,1,"散漫","i","",NA,"",NA,NA,NA,NA,NA,NA,NA,"","","",NA,NA,NA,NA,NA,NA,"",NA,"",NA,NA,NA,NA,NA,NA,NA,"",NA,"",NA,NA,NA,NA,NA,NA,NA,"","","",NA,"",NA,NA,NA,NA,NA,NA,NA,"",NA,"13"
"",NA,"",NA,"",NA,NA,NA,NA,NA,NA,NA,"","",1,1,"2024-08-23_18h48.26.537","IAT(Formal)","2021.2.3","Win32",59.52380952,"",NA,"e",1,0.5228,0,22,22,4,1,"乐观","e","",NA,"",NA,NA,NA,NA,NA,NA,NA,"","","",NA,NA,NA,NA,NA,NA,"",NA,"",NA,NA,NA,NA,NA,NA,NA,"",NA,"",NA,NA,NA,NA,NA,NA,NA,"","","",NA,"",NA,NA,NA,NA,NA,NA,NA,"",NA,"13"
"",NA,"",NA,"",NA,NA,NA,NA,NA,NA,NA,"","",1,1,"2024-08-23_18h48.26.537","IAT(Formal)","2021.2.3","Win32",59.52380952,"",NA,"i",1,0.5754,0,23,23,25,1,"消极","i","",NA,"",NA,NA,NA,NA,NA,NA,NA,"","","",NA,NA,NA,NA,NA,NA,"",NA,"",NA,NA,NA,NA,NA,NA,NA,"",NA,"",NA,NA,NA,NA,NA,NA,NA,"","","",NA,"",NA,NA,NA,NA,NA,NA,NA,"",NA,"13"
"",NA,"",NA,"",NA,NA,NA,NA,NA,NA,NA,"","",1,1,"2024-08-23_18h48.26.537","IAT(Formal)","2021.2.3","Win32",59.52380952,"",NA,"i",1,0.4705,0,24,24,32,1,"凶狠","i","",NA,"",NA,NA,NA,NA,NA,NA,NA,"","","",NA,NA,NA,NA,NA,NA,"",NA,"",NA,NA,NA,NA,NA,NA,NA,"",NA,"",NA,NA,NA,NA,NA,NA,NA,"","","",NA,"",NA,NA,NA,NA,NA,NA,NA,"",NA,"13"
"",NA,"",NA,"",NA,NA,NA,NA,NA,NA,NA,"","",1,1,"2024-08-23_18h48.26.537","IAT(Formal)","2021.2.3","Win32",59.52380952,"",NA,"e",1,0.5964,0,25,25,16,1,"冷静","e","",NA,"",NA,NA,NA,NA,NA,NA,NA,"","","",NA,NA,NA,NA,NA,NA,"",NA,"",NA,NA,NA,NA,NA,NA,NA,"",NA,"",NA,NA,NA,NA,NA,NA,NA,"","","",NA,"",NA,NA,NA,NA,NA,NA,NA,"",NA,"13"
"",NA,"",NA,"",NA,NA,NA,NA,NA,NA,NA,"","",1,1,"2024-08-23_18h48.26.537","IAT(Formal)","2021.2.3","Win32",59.52380952,"",NA,"e",1,0.4394,0,26,26,7,1,"勇敢","e","",NA,"",NA,NA,NA,NA,NA,NA,NA,"","","",NA,NA,NA,NA,NA,NA,"",NA,"",NA,NA,NA,NA,NA,NA,NA,"",NA,"",NA,NA,NA,NA,NA,NA,NA,"","","",NA,"",NA,NA,NA,NA,NA,NA,NA,"",NA,"13"
"",NA,"",NA,"",NA,NA,NA,NA,NA,NA,NA,"","",1,1,"2024-08-23_18h48.26.537","IAT(Formal)","2021.2.3","Win32",59.52380952,"",NA,"e",0,0.6511,0,27,27,38,1,"轻率","i","",NA,"",NA,NA,NA,NA,NA,NA,NA,"","","",NA,NA,NA,NA,NA,NA,"",NA,"",NA,NA,NA,NA,NA,NA,NA,"",NA,"",NA,NA,NA,NA,NA,NA,NA,"","","",NA,"",NA,NA,NA,NA,NA,NA,NA,"",NA,"13"
"",NA,"",NA,"",NA,NA,NA,NA,NA,NA,NA,"","",1,1,"2024-08-23_18h48.26.537","IAT(Formal)","2021.2.3","Win32",59.52380952,"",NA,"i",1,0.6863,0,28,28,33,1,"自私","i","",NA,"",NA,NA,NA,NA,NA,NA,NA,"","","",NA,NA,NA,NA,NA,NA,"",NA,"",NA,NA,NA,NA,NA,NA,NA,"",NA,"",NA,NA,NA,NA,NA,NA,NA,"","","",NA,"",NA,NA,NA,NA,NA,NA,NA,"",NA,"13"
"",NA,"",NA,"",NA,NA,NA,NA,NA,NA,NA,"","",1,1,"2024-08-23_18h48.26.537","IAT(Formal)","2021.2.3","Win32",59.52380952,"",NA,"e",1,0.6516,0,29,29,15,1,"细腻","e","",NA,"",NA,NA,NA,NA,NA,NA,NA,"","","",NA,NA,NA,NA,NA,NA,"",NA,"",NA,NA,NA,NA,NA,NA,NA,"",NA,"",NA,NA,NA,NA,NA,NA,NA,"","","",NA,"",NA,NA,NA,NA,NA,NA,NA,"",NA,"13"
"",NA,"",NA,"",NA,NA,NA,NA,NA,NA,NA,"","",1,1,"2024-08-23_18h48.26.537","IAT(Formal)","2021.2.3","Win32",59.52380952,"",NA,"i",1,0.568,0,30,30,39,1,"下贱","i","",NA,"",NA,NA,NA,NA,NA,NA,NA,"","","",NA,NA,NA,NA,NA,NA,"",NA,"",NA,NA,NA,NA,NA,NA,NA,"",NA,"",NA,NA,NA,NA,NA,NA,NA,"","","",NA,"",NA,NA,NA,NA,NA,NA,NA,"",NA,"13"
"",NA,"",NA,"",NA,NA,NA,NA,NA,NA,NA,"","",1,1,"2024-08-23_18h48.26.537","IAT(Formal)","2021.2.3","Win32",59.52380952,"",NA,"i",1,0.6255,0,31,31,28,1,"鲁莽","i","",NA,"",NA,NA,NA,NA,NA,NA,NA,"","","",NA,NA,NA,NA,NA,NA,"",NA,"",NA,NA,NA,NA,NA,NA,NA,"",NA,"",NA,NA,NA,NA,NA,NA,NA,"","","",NA,"",NA,NA,NA,NA,NA,NA,NA,"",NA,"13"
"",NA,"",NA,"",NA,NA,NA,NA,NA,NA,NA,"","",1,1,"2024-08-23_18h48.26.537","IAT(Formal)","2021.2.3","Win32",59.52380952,"",NA,"i",1,0.5188,0,32,32,34,1,"暴躁","i","",NA,"",NA,NA,NA,NA,NA,NA,NA,"","","",NA,NA,NA,NA,NA,NA,"",NA,"",NA,NA,NA,NA,NA,NA,NA,"",NA,"",NA,NA,NA,NA,NA,NA,NA,"","","",NA,"",NA,NA,NA,NA,NA,NA,NA,"",NA,"13"
"",NA,"",NA,"",NA,NA,NA,NA,NA,NA,NA,"","",1,1,"2024-08-23_18h48.26.537","IAT(Formal)","2021.2.3","Win32",59.52380952,"",NA,"e",1,0.546,0,33,33,9,1,"机智","e","",NA,"",NA,NA,NA,NA,NA,NA,NA,"","","",NA,NA,NA,NA,NA,NA,"",NA,"",NA,NA,NA,NA,NA,NA,NA,"",NA,"",NA,NA,NA,NA,NA,NA,NA,"","","",NA,"",NA,NA,NA,NA,NA,NA,NA,"",NA,"13"
"",NA,"",NA,"",NA,NA,NA,NA,NA,NA,NA,"","",1,1,"2024-08-23_18h48.26.537","IAT(Formal)","2021.2.3","Win32",59.52380952,"",NA,"i",1,0.6876,0,34,34,29,1,"冒失","i","",NA,"",NA,NA,NA,NA,NA,NA,NA,"","","",NA,NA,NA,NA,NA,NA,"",NA,"",NA,NA,NA,NA,NA,NA,NA,"",NA,"",NA,NA,NA,NA,NA,NA,NA,"","","",NA,"",NA,NA,NA,NA,NA,NA,NA,"",NA,"13"
"",NA,"",NA,"",NA,NA,NA,NA,NA,NA,NA,"","",1,1,"2024-08-23_18h48.26.537","IAT(Formal)","2021.2.3","Win32",59.52380952,"",NA,"i",1,0.5023,0,35,35,35,1,"猖狂","i","",NA,"",NA,NA,NA,NA,NA,NA,NA,"","","",NA,NA,NA,NA,NA,NA,"",NA,"",NA,NA,NA,NA,NA,NA,NA,"",NA,"",NA,NA,NA,NA,NA,NA,NA,"","","",NA,"",NA,NA,NA,NA,NA,NA,NA,"",NA,"13"
"",NA,"",NA,"",NA,NA,NA,NA,NA,NA,NA,"","",1,1,"2024-08-23_18h48.26.537","IAT(Formal)","2021.2.3","Win32",59.52380952,"",NA,"e",1,0.4922,0,36,36,18,1,"活泼","e","",NA,"",NA,NA,NA,NA,NA,NA,NA,"","","",NA,NA,NA,NA,NA,NA,"",NA,"",NA,NA,NA,NA,NA,NA,NA,"",NA,"",NA,NA,NA,NA,NA,NA,NA,"","","",NA,"",NA,NA,NA,NA,NA,NA,NA,"",NA,"13"
"",NA,"",NA,"",NA,NA,NA,NA,NA,NA,NA,"","",1,1,"2024-08-23_18h48.26.537","IAT(Formal)","2021.2.3","Win32",59.52380952,"",NA,"e",1,0.5571,0,37,37,14,1,"朴实","e","",NA,"",NA,NA,NA,NA,NA,NA,NA,"","","",NA,NA,NA,NA,NA,NA,"",NA,"",NA,NA,NA,NA,NA,NA,NA,"",NA,"",NA,NA,NA,NA,NA,NA,NA,"","","",NA,"",NA,NA,NA,NA,NA,NA,NA,"",NA,"13"
"",NA,"",NA,"",NA,NA,NA,NA,NA,NA,NA,"","",1,1,"2024-08-23_18h48.26.537","IAT(Formal)","2021.2.3","Win32",59.52380952,"",NA,"i",1,0.4364,0,38,38,26,1,"自卑","i","",NA,"",NA,NA,NA,NA,NA,NA,NA,"","","",NA,NA,NA,NA,NA,NA,"",NA,"",NA,NA,NA,NA,NA,NA,NA,"",NA,"",NA,NA,NA,NA,NA,NA,NA,"","","",NA,"",NA,NA,NA,NA,NA,NA,NA,"",NA,"13"
"",NA,"",NA,"",NA,NA,NA,NA,NA,NA,NA,"","",1,1,"2024-08-23_18h48.26.537","IAT(Formal)","2021.2.3","Win32",59.52380952,"",NA,"e",1,0.5009,0,39,39,2,1,"聪明","e","",NA,"",NA,NA,NA,NA,NA,NA,NA,"","","",NA,NA,NA,NA,NA,NA,"",NA,"",NA,NA,NA,NA,NA,NA,NA,"",NA,"",NA,NA,NA,NA,NA,NA,NA,"","","",NA,"",NA,NA,NA,NA,NA,NA,NA,"",NA,"13"
"",NA,"",NA,"",NA,NA,NA,NA,NA,NA,NA,"","",1,1,"2024-08-23_18h48.26.537","IAT(Formal)","2021.2.3","Win32",59.52380952,"",NA,"",NA,NA,NA,NA,NA,NA,NA,"","","space",7.8203,"e",1,0.4896,0,0,0,4,1,"俺","e","",NA,NA,NA,NA,NA,NA,"",NA,"",NA,NA,NA,NA,NA,NA,NA,"",NA,"",NA,NA,NA,NA,NA,NA,NA,"","","",NA,"",NA,NA,NA,NA,NA,NA,NA,"",NA,"13"
"",NA,"",NA,"",NA,NA,NA,NA,NA,NA,NA,"","",1,1,"2024-08-23_18h48.26.537","IAT(Formal)","2021.2.3","Win32",59.52380952,"",NA,"",NA,NA,NA,NA,NA,NA,NA,"","","",NA,"e",0,0.538,0,1,1,7,1,"他的","i","",NA,NA,NA,NA,NA,NA,"",NA,"",NA,NA,NA,NA,NA,NA,NA,"",NA,"",NA,NA,NA,NA,NA,NA,NA,"","","",NA,"",NA,NA,NA,NA,NA,NA,NA,"",NA,"13"
"",NA,"",NA,"",NA,NA,NA,NA,NA,NA,NA,"","",1,1,"2024-08-23_18h48.26.537","IAT(Formal)","2021.2.3","Win32",59.52380952,"",NA,"",NA,NA,NA,NA,NA,NA,NA,"","","",NA,"i",1,0.5911,0,2,2,76,1,"他们","i","",NA,NA,NA,NA,NA,NA,"",NA,"",NA,NA,NA,NA,NA,NA,NA,"",NA,"",NA,NA,NA,NA,NA,NA,NA,"","","",NA,"",NA,NA,NA,NA,NA,NA,NA,"",NA,"13"
"",NA,"",NA,"",NA,NA,NA,NA,NA,NA,NA,"","",1,1,"2024-08-23_18h48.26.537","IAT(Formal)","2021.2.3","Win32",59.52380952,"",NA,"",NA,NA,NA,NA,NA,NA,NA,"","","",NA,"e",1,0.7313,0,3,3,26,1,"冷静","e","",NA,NA,NA,NA,NA,NA,"",NA,"",NA,NA,NA,NA,NA,NA,NA,"",NA,"",NA,NA,NA,NA,NA,NA,NA,"","","",NA,"",NA,NA,NA,NA,NA,NA,NA,"",NA,"13"
"",NA,"",NA,"",NA,NA,NA,NA,NA,NA,NA,"","",1,1,"2024-08-23_18h48.26.537","IAT(Formal)","2021.2.3","Win32",59.52380952,"",NA,"",NA,NA,NA,NA,NA,NA,NA,"","","",NA,"e",1,0.5325,0,4,4,16,1,"正直","e","",NA,NA,NA,NA,NA,NA,"",NA,"",NA,NA,NA,NA,NA,NA,NA,"",NA,"",NA,NA,NA,NA,NA,NA,NA,"","","",NA,"",NA,NA,NA,NA,NA,NA,NA,"",NA,"13"
"",NA,"",NA,"",NA,NA,NA,NA,NA,NA,NA,"","",1,1,"2024-08-23_18h48.26.537","IAT(Formal)","2021.2.3","Win32",59.52380952,"",NA,"",NA,NA,NA,NA,NA,NA,NA,"","","",NA,"i",1,0.6195,0,5,5,30,1,"卑鄙","i","",NA,NA,NA,NA,NA,NA,"",NA,"",NA,NA,NA,NA,NA,NA,NA,"",NA,"",NA,NA,NA,NA,NA,NA,NA,"","","",NA,"",NA,NA,NA,NA,NA,NA,NA,"",NA,"13"
"",NA,"",NA,"",NA,NA,NA,NA,NA,NA,NA,"","",1,1,"2024-08-23_18h48.26.537","IAT(Formal)","2021.2.3","Win32",59.52380952,"",NA,"",NA,NA,NA,NA,NA,NA,NA,"","","",NA,"e",1,0.5625,0,6,6,3,1,"自己","e","",NA,NA,NA,NA,NA,NA,"",NA,"",NA,NA,NA,NA,NA,NA,NA,"",NA,"",NA,NA,NA,NA,NA,NA,NA,"","","",NA,"",NA,NA,NA,NA,NA,NA,NA,"",NA,"13"
"",NA,"",NA,"",NA,NA,NA,NA,NA,NA,NA,"","",1,1,"2024-08-23_18h48.26.537","IAT(Formal)","2021.2.3","Win32",59.52380952,"",NA,"",NA,NA,NA,NA,NA,NA,NA,"","","",NA,"i",1,0.7864,0,7,7,47,1,"固执","i","",NA,NA,NA,NA,NA,NA,"",NA,"",NA,NA,NA,NA,NA,NA,NA,"",NA,"",NA,NA,NA,NA,NA,NA,NA,"","","",NA,"",NA,NA,NA,NA,NA,NA,NA,"",NA,"13"
"",NA,"",NA,"",NA,NA,NA,NA,NA,NA,NA,"","",1,1,"2024-08-23_18h48.26.537","IAT(Formal)","2021.2.3","Win32",59.52380952,"",NA,"",NA,NA,NA,NA,NA,NA,NA,"","","",NA,"i",1,0.5348,0,8,8,8,1,"他人","i","",NA,NA,NA,NA,NA,NA,"",NA,"",NA,NA,NA,NA,NA,NA,NA,"",NA,"",NA,NA,NA,NA,NA,NA,NA,"","","",NA,"",NA,NA,NA,NA,NA,NA,NA,"",NA,"13"
"",NA,"",NA,"",NA,NA,NA,NA,NA,NA,NA,"","",1,1,"2024-08-23_18h48.26.537","IAT(Formal)","2021.2.3","Win32",59.52380952,"",NA,"",NA,NA,NA,NA,NA,NA,NA,"","","",NA,"e",1,0.5538,0,9,9,60,1,"我","e","",NA,NA,NA,NA,NA,NA,"",NA,"",NA,NA,NA,NA,NA,NA,NA,"",NA,"",NA,NA,NA,NA,NA,NA,NA,"","","",NA,"",NA,NA,NA,NA,NA,NA,NA,"",NA,"13"
"",NA,"",NA,"",NA,NA,NA,NA,NA,NA,NA,"","",1,1,"2024-08-23_18h48.26.537","IAT(Formal)","2021.2.3","Win32",59.52380952,"",NA,"",NA,NA,NA,NA,NA,NA,NA,"","","",NA,"i",1,0.6034,0,10,10,39,1,"冒失","i","",NA,NA,NA,NA,NA,NA,"",NA,"",NA,NA,NA,NA,NA,NA,NA,"",NA,"",NA,NA,NA,NA,NA,NA,NA,"","","",NA,"",NA,NA,NA,NA,NA,NA,NA,"",NA,"13"
"",NA,"",NA,"",NA,NA,NA,NA,NA,NA,NA,"","",1,1,"2024-08-23_18h48.26.537","IAT(Formal)","2021.2.3","Win32",59.52380952,"",NA,"",NA,NA,NA,NA,NA,NA,NA,"","","",NA,"e",1,0.5678,0,11,11,29,1,"诚恳","e","",NA,NA,NA,NA,NA,NA,"",NA,"",NA,NA,NA,NA,NA,NA,NA,"",NA,"",NA,NA,NA,NA,NA,NA,NA,"","","",NA,"",NA,NA,NA,NA,NA,NA,NA,"",NA,"13"
"",NA,"",NA,"",NA,NA,NA,NA,NA,NA,NA,"","",1,1,"2024-08-23_18h48.26.537","IAT(Formal)","2021.2.3","Win32",59.52380952,"",NA,"",NA,NA,NA,NA,NA,NA,NA,"","","",NA,"i",1,0.6729,0,12,12,75,1,"他","i","",NA,NA,NA,NA,NA,NA,"",NA,"",NA,NA,NA,NA,NA,NA,NA,"",NA,"",NA,NA,NA,NA,NA,NA,NA,"","","",NA,"",NA,NA,NA,NA,NA,NA,NA,"",NA,"13"
"",NA,"",NA,"",NA,NA,NA,NA,NA,NA,NA,"","",1,1,"2024-08-23_18h48.26.537","IAT(Formal)","2021.2.3","Win32",59.52380952,"",NA,"",NA,NA,NA,NA,NA,NA,NA,"","","",NA,"e",1,0.6253,0,13,13,14,1,"乐观","e","",NA,NA,NA,NA,NA,NA,"",NA,"",NA,NA,NA,NA,NA,NA,NA,"",NA,"",NA,NA,NA,NA,NA,NA,NA,"","","",NA,"",NA,NA,NA,NA,NA,NA,NA,"",NA,"13"
"",NA,"",NA,"",NA,NA,NA,NA,NA,NA,NA,"","",1,1,"2024-08-23_18h48.26.537","IAT(Formal)","2021.2.3","Win32",59.52380952,"",NA,"",NA,NA,NA,NA,NA,NA,NA,"","","",NA,"e",1,0.4769,0,14,14,64,1,"俺","e","",NA,NA,NA,NA,NA,NA,"",NA,"",NA,NA,NA,NA,NA,NA,NA,"",NA,"",NA,NA,NA,NA,NA,NA,NA,"","","",NA,"",NA,NA,NA,NA,NA,NA,NA,"",NA,"13"
"",NA,"",NA,"",NA,NA,NA,NA,NA,NA,NA,"","",1,1,"2024-08-23_18h48.26.537","IAT(Formal)","2021.2.3","Win32",59.52380952,"",NA,"",NA,NA,NA,NA,NA,NA,NA,"","","",NA,"i",1,0.5525,0,15,15,36,1,"自卑","i","",NA,NA,NA,NA,NA,NA,"",NA,"",NA,NA,NA,NA,NA,NA,NA,"",NA,"",NA,NA,NA,NA,NA,NA,NA,"","","",NA,"",NA,NA,NA,NA,NA,NA,NA,"",NA,"13"
"",NA,"",NA,"",NA,NA,NA,NA,NA,NA,NA,"","",1,1,"2024-08-23_18h48.26.537","IAT(Formal)","2021.2.3","Win32",59.52380952,"",NA,"",NA,NA,NA,NA,NA,NA,NA,"","","",NA,"e",1,0.5379,0,16,16,10,1,"优秀","e","",NA,NA,NA,NA,NA,NA,"",NA,"",NA,NA,NA,NA,NA,NA,NA,"",NA,"",NA,NA,NA,NA,NA,NA,NA,"","","",NA,"",NA,NA,NA,NA,NA,NA,NA,"",NA,"13"
"",NA,"",NA,"",NA,NA,NA,NA,NA,NA,NA,"","",1,1,"2024-08-23_18h48.26.537","IAT(Formal)","2021.2.3","Win32",59.52380952,"",NA,"",NA,NA,NA,NA,NA,NA,NA,"","","",NA,"e",1,0.5439,0,17,17,21,1,"稳重","e","",NA,NA,NA,NA,NA,NA,"",NA,"",NA,NA,NA,NA,NA,NA,NA,"",NA,"",NA,NA,NA,NA,NA,NA,NA,"","","",NA,"",NA,NA,NA,NA,NA,NA,NA,"",NA,"13"
"",NA,"",NA,"",NA,NA,NA,NA,NA,NA,NA,"","",1,1,"2024-08-23_18h48.26.537","IAT(Formal)","2021.2.3","Win32",59.52380952,"",NA,"",NA,NA,NA,NA,NA,NA,NA,"","","",NA,"e",1,0.5686,0,18,18,52,1,"我们","e","",NA,NA,NA,NA,NA,NA,"",NA,"",NA,NA,NA,NA,NA,NA,NA,"",NA,"",NA,NA,NA,NA,NA,NA,NA,"","","",NA,"",NA,NA,NA,NA,NA,NA,NA,"",NA,"13"
"",NA,"",NA,"",NA,NA,NA,NA,NA,NA,NA,"","",1,1,"2024-08-23_18h48.26.537","IAT(Formal)","2021.2.3","Win32",59.52380952,"",NA,"",NA,NA,NA,NA,NA,NA,NA,"","","",NA,"e",1,0.4963,0,19,19,15,1,"诚实","e","",NA,NA,NA,NA,NA,NA,"",NA,"",NA,NA,NA,NA,NA,NA,NA,"",NA,"",NA,NA,NA,NA,NA,NA,NA,"","","",NA,"",NA,NA,NA,NA,NA,NA,NA,"",NA,"13"
"",NA,"",NA,"",NA,NA,NA,NA,NA,NA,NA,"","",1,1,"2024-08-23_18h48.26.537","IAT(Formal)","2021.2.3","Win32",59.52380952,"",NA,"",NA,NA,NA,NA,NA,NA,NA,"","","",NA,"e",1,0.5517,0,20,20,12,1,"聪明","e","",NA,NA,NA,NA,NA,NA,"",NA,"",NA,NA,NA,NA,NA,NA,NA,"",NA,"",NA,NA,NA,NA,NA,NA,NA,"","","",NA,"",NA,NA,NA,NA,NA,NA,NA,"",NA,"13"
"",NA,"",NA,"",NA,NA,NA,NA,NA,NA,NA,"","",1,1,"2024-08-23_18h48.26.537","IAT(Formal)","2021.2.3","Win32",59.52380952,"",NA,"",NA,NA,NA,NA,NA,NA,NA,"","","",NA,"i",1,0.6904,0,21,21,49,1,"下贱","i","",NA,NA,NA,NA,NA,NA,"",NA,"",NA,NA,NA,NA,NA,NA,NA,"",NA,"",NA,NA,NA,NA,NA,NA,NA,"","","",NA,"",NA,NA,NA,NA,NA,NA,NA,"",NA,"13"
"",NA,"",NA,"",NA,NA,NA,NA,NA,NA,NA,"","",1,1,"2024-08-23_18h48.26.537","IAT(Formal)","2021.2.3","Win32",59.52380952,"",NA,"",NA,NA,NA,NA,NA,NA,NA,"","","",NA,"e",1,0.5465,0,22,22,62,1,"我们","e","",NA,NA,NA,NA,NA,NA,"",NA,"",NA,NA,NA,NA,NA,NA,NA,"",NA,"",NA,NA,NA,NA,NA,NA,NA,"","","",NA,"",NA,NA,NA,NA,NA,NA,NA,"",NA,"13"
"",NA,"",NA,"",NA,NA,NA,NA,NA,NA,NA,"","",1,1,"2024-08-23_18h48.26.537","IAT(Formal)","2021.2.3","Win32",59.52380952,"",NA,"",NA,NA,NA,NA,NA,NA,NA,"","","",NA,"i",1,0.4269,0,23,23,67,1,"他的","i","",NA,NA,NA,NA,NA,NA,"",NA,"",NA,NA,NA,NA,NA,NA,NA,"",NA,"",NA,NA,NA,NA,NA,NA,NA,"","","",NA,"",NA,NA,NA,NA,NA,NA,NA,"",NA,"13"
"",NA,"",NA,"",NA,NA,NA,NA,NA,NA,NA,"","",1,1,"2024-08-23_18h48.26.537","IAT(Formal)","2021.2.3","Win32",59.52380952,"",NA,"",NA,NA,NA,NA,NA,NA,NA,"","","",NA,"i",1,0.4044,0,24,24,68,1,"他人","i","",NA,NA,NA,NA,NA,NA,"",NA,"",NA,NA,NA,NA,NA,NA,NA,"",NA,"",NA,NA,NA,NA,NA,NA,NA,"","","",NA,"",NA,NA,NA,NA,NA,NA,NA,"",NA,"13"
"",NA,"",NA,"",NA,NA,NA,NA,NA,NA,NA,"","",1,1,"2024-08-23_18h48.26.537","IAT(Formal)","2021.2.3","Win32",59.52380952,"",NA,"",NA,NA,NA,NA,NA,NA,NA,"","","",NA,"e",1,0.4176,0,25,25,20,1,"认真","e","",NA,NA,NA,NA,NA,NA,"",NA,"",NA,NA,NA,NA,NA,NA,NA,"",NA,"",NA,NA,NA,NA,NA,NA,NA,"","","",NA,"",NA,NA,NA,NA,NA,NA,NA,"",NA,"13"
"",NA,"",NA,"",NA,NA,NA,NA,NA,NA,NA,"","",1,1,"2024-08-23_18h48.26.537","IAT(Formal)","2021.2.3","Win32",59.52380952,"",NA,"",NA,NA,NA,NA,NA,NA,NA,"","","",NA,"i",1,0.7345,0,26,26,34,1,"悲观","i","",NA,NA,NA,NA,NA,NA,"",NA,"",NA,NA,NA,NA,NA,NA,NA,"",NA,"",NA,NA,NA,NA,NA,NA,NA,"","","",NA,"",NA,NA,NA,NA,NA,NA,NA,"",NA,"13"
"",NA,"",NA,"",NA,NA,NA,NA,NA,NA,NA,"","",1,1,"2024-08-23_18h48.26.537","IAT(Formal)","2021.2.3","Win32",59.52380952,"",NA,"",NA,NA,NA,NA,NA,NA,NA,"","","",NA,"e",1,0.6182,0,27,27,72,1,"我们","e","",NA,NA,NA,NA,NA,NA,"",NA,"",NA,NA,NA,NA,NA,NA,NA,"",NA,"",NA,NA,NA,NA,NA,NA,NA,"","","",NA,"",NA,NA,NA,NA,NA,NA,NA,"",NA,"13"
"",NA,"",NA,"",NA,NA,NA,NA,NA,NA,NA,"","",1,1,"2024-08-23_18h48.26.537","IAT(Formal)","2021.2.3","Win32",59.52380952,"",NA,"",NA,NA,NA,NA,NA,NA,NA,"","","",NA,"i",1,0.5837,0,28,28,65,1,"他","i","",NA,NA,NA,NA,NA,NA,"",NA,"",NA,NA,NA,NA,NA,NA,NA,"",NA,"",NA,NA,NA,NA,NA,NA,NA,"","","",NA,"",NA,NA,NA,NA,NA,NA,NA,"",NA,"13"
"",NA,"",NA,"",NA,NA,NA,NA,NA,NA,NA,"","",1,1,"2024-08-23_18h48.26.537","IAT(Formal)","2021.2.3","Win32",59.52380952,"",NA,"",NA,NA,NA,NA,NA,NA,NA,"","","",NA,"i",1,0.4682,0,29,29,35,1,"消极","i","",NA,NA,NA,NA,NA,NA,"",NA,"",NA,NA,NA,NA,NA,NA,NA,"",NA,"",NA,NA,NA,NA,NA,NA,NA,"","","",NA,"",NA,NA,NA,NA,NA,NA,NA,"",NA,"13"
"",NA,"",NA,"",NA,NA,NA,NA,NA,NA,NA,"","",1,1,"2024-08-23_18h48.26.537","IAT(Formal)","2021.2.3","Win32",59.52380952,"",NA,"",NA,NA,NA,NA,NA,NA,NA,"","","",NA,"i",1,0.596,0,30,30,77,1,"他的","i","",NA,NA,NA,NA,NA,NA,"",NA,"",NA,NA,NA,NA,NA,NA,NA,"",NA,"",NA,NA,NA,NA,NA,NA,NA,"","","",NA,"",NA,NA,NA,NA,NA,NA,NA,"",NA,"13"
"",NA,"",NA,"",NA,NA,NA,NA,NA,NA,NA,"","",1,1,"2024-08-23_18h48.26.537","IAT(Formal)","2021.2.3","Win32",59.52380952,"",NA,"",NA,NA,NA,NA,NA,NA,NA,"","","",NA,"e",0,0.5352,0,31,31,33,1,"刻薄","i","",NA,NA,NA,NA,NA,NA,"",NA,"",NA,NA,NA,NA,NA,NA,NA,"",NA,"",NA,NA,NA,NA,NA,NA,NA,"","","",NA,"",NA,NA,NA,NA,NA,NA,NA,"",NA,"13"
"",NA,"",NA,"",NA,NA,NA,NA,NA,NA,NA,"","",1,1,"2024-08-23_18h48.26.537","IAT(Formal)","2021.2.3","Win32",59.52380952,"",NA,"",NA,NA,NA,NA,NA,NA,NA,"","","",NA,"i",1,0.6406,0,32,32,32,1,"愚蠢","i","",NA,NA,NA,NA,NA,NA,"",NA,"",NA,NA,NA,NA,NA,NA,NA,"",NA,"",NA,NA,NA,NA,NA,NA,NA,"","","",NA,"",NA,NA,NA,NA,NA,NA,NA,"",NA,"13"
"",NA,"",NA,"",NA,NA,NA,NA,NA,NA,NA,"","",1,1,"2024-08-23_18h48.26.537","IAT(Formal)","2021.2.3","Win32",59.52380952,"",NA,"",NA,NA,NA,NA,NA,NA,NA,"","","",NA,"i",1,0.5307,0,33,33,9,1,"其他","i","",NA,NA,NA,NA,NA,NA,"",NA,"",NA,NA,NA,NA,NA,NA,NA,"",NA,"",NA,NA,NA,NA,NA,NA,NA,"","","",NA,"",NA,NA,NA,NA,NA,NA,NA,"",NA,"13"
"",NA,"",NA,"",NA,NA,NA,NA,NA,NA,NA,"","",1,1,"2024-08-23_18h48.26.537","IAT(Formal)","2021.2.3","Win32",59.52380952,"",NA,"",NA,NA,NA,NA,NA,NA,NA,"","","",NA,"i",0,0.4278,0,34,34,70,1,"我","e","",NA,NA,NA,NA,NA,NA,"",NA,"",NA,NA,NA,NA,NA,NA,NA,"",NA,"",NA,NA,NA,NA,NA,NA,NA,"","","",NA,"",NA,NA,NA,NA,NA,NA,NA,"",NA,"13"
"",NA,"",NA,"",NA,NA,NA,NA,NA,NA,NA,"","",1,1,"2024-08-23_18h48.26.537","IAT(Formal)","2021.2.3","Win32",59.52380952,"",NA,"",NA,NA,NA,NA,NA,NA,NA,"","","",NA,"e",1,0.6012,0,35,35,23,1,"公正","e","",NA,NA,NA,NA,NA,NA,"",NA,"",NA,NA,NA,NA,NA,NA,NA,"",NA,"",NA,NA,NA,NA,NA,NA,NA,"","","",NA,"",NA,NA,NA,NA,NA,NA,NA,"",NA,"13"
"",NA,"",NA,"",NA,NA,NA,NA,NA,NA,NA,"","",1,1,"2024-08-23_18h48.26.537","IAT(Formal)","2021.2.3","Win32",59.52380952,"",NA,"",NA,NA,NA,NA,NA,NA,NA,"","","",NA,"i",1,0.5908,0,36,36,58,1,"他人","i","",NA,NA,NA,NA,NA,NA,"",NA,"",NA,NA,NA,NA,NA,NA,NA,"",NA,"",NA,NA,NA,NA,NA,NA,NA,"","","",NA,"",NA,NA,NA,NA,NA,NA,NA,"",NA,"13"
"",NA,"",NA,"",NA,NA,NA,NA,NA,NA,NA,"","",1,1,"2024-08-23_18h48.26.537","IAT(Formal)","2021.2.3","Win32",59.52380952,"",NA,"",NA,NA,NA,NA,NA,NA,NA,"","","",NA,"i",1,0.4416,0,37,37,57,1,"他的","i","",NA,NA,NA,NA,NA,NA,"",NA,"",NA,NA,NA,NA,NA,NA,NA,"",NA,"",NA,NA,NA,NA,NA,NA,NA,"","","",NA,"",NA,NA,NA,NA,NA,NA,NA,"",NA,"13"
"",NA,"",NA,"",NA,NA,NA,NA,NA,NA,NA,"","",1,1,"2024-08-23_18h48.26.537","IAT(Formal)","2021.2.3","Win32",59.52380952,"",NA,"",NA,NA,NA,NA,NA,NA,NA,"","","",NA,"e",1,0.618,0,38,38,13,1,"杰出","e","",NA,NA,NA,NA,NA,NA,"",NA,"",NA,NA,NA,NA,NA,NA,NA,"",NA,"",NA,NA,NA,NA,NA,NA,NA,"","","",NA,"",NA,NA,NA,NA,NA,NA,NA,"",NA,"13"
"",NA,"",NA,"",NA,NA,NA,NA,NA,NA,NA,"","",1,1,"2024-08-23_18h48.26.537","IAT(Formal)","2021.2.3","Win32",59.52380952,"",NA,"",NA,NA,NA,NA,NA,NA,NA,"","","",NA,"i",1,0.7372,0,39,39,46,1,"野蛮","i","",NA,NA,NA,NA,NA,NA,"",NA,"",NA,NA,NA,NA,NA,NA,NA,"",NA,"",NA,NA,NA,NA,NA,NA,NA,"","","",NA,"",NA,NA,NA,NA,NA,NA,NA,"",NA,"13"
"",NA,"",NA,"",NA,NA,NA,NA,NA,NA,NA,"","",1,1,"2024-08-23_18h48.26.537","IAT(Formal)","2021.2.3","Win32",59.52380952,"",NA,"",NA,NA,NA,NA,NA,NA,NA,"","","",NA,"i",1,0.4852,0,40,40,43,1,"自私","i","",NA,NA,NA,NA,NA,NA,"",NA,"",NA,NA,NA,NA,NA,NA,NA,"",NA,"",NA,NA,NA,NA,NA,NA,NA,"","","",NA,"",NA,NA,NA,NA,NA,NA,NA,"",NA,"13"
"",NA,"",NA,"",NA,NA,NA,NA,NA,NA,NA,"","",1,1,"2024-08-23_18h48.26.537","IAT(Formal)","2021.2.3","Win32",59.52380952,"",NA,"",NA,NA,NA,NA,NA,NA,NA,"","","",NA,"e",1,0.7116,0,41,41,24,1,"朴实","e","",NA,NA,NA,NA,NA,NA,"",NA,"",NA,NA,NA,NA,NA,NA,NA,"",NA,"",NA,NA,NA,NA,NA,NA,NA,"","","",NA,"",NA,NA,NA,NA,NA,NA,NA,"",NA,"13"
"",NA,"",NA,"",NA,NA,NA,NA,NA,NA,NA,"","",1,1,"2024-08-23_18h48.26.537","IAT(Formal)","2021.2.3","Win32",59.52380952,"",NA,"",NA,NA,NA,NA,NA,NA,NA,"","","",NA,"e",1,0.6729,0,42,42,51,1,"我的","e","",NA,NA,NA,NA,NA,NA,"",NA,"",NA,NA,NA,NA,NA,NA,NA,"",NA,"",NA,NA,NA,NA,NA,NA,NA,"","","",NA,"",NA,NA,NA,NA,NA,NA,NA,"",NA,"13"
"",NA,"",NA,"",NA,NA,NA,NA,NA,NA,NA,"","",1,1,"2024-08-23_18h48.26.537","IAT(Formal)","2021.2.3","Win32",59.52380952,"",NA,"",NA,NA,NA,NA,NA,NA,NA,"","","",NA,"i",1,0.6852,0,43,43,41,1,"散漫","i","",NA,NA,NA,NA,NA,NA,"",NA,"",NA,NA,NA,NA,NA,NA,NA,"",NA,"",NA,NA,NA,NA,NA,NA,NA,"","","",NA,"",NA,NA,NA,NA,NA,NA,NA,"",NA,"13"
"",NA,"",NA,"",NA,NA,NA,NA,NA,NA,NA,"","",1,1,"2024-08-23_18h48.26.537","IAT(Formal)","2021.2.3","Win32",59.52380952,"",NA,"",NA,NA,NA,NA,NA,NA,NA,"","","",NA,"i",0,0.6374,0,44,44,18,1,"勤奋","e","",NA,NA,NA,NA,NA,NA,"",NA,"",NA,NA,NA,NA,NA,NA,NA,"",NA,"",NA,NA,NA,NA,NA,NA,NA,"","","",NA,"",NA,NA,NA,NA,NA,NA,NA,"",NA,"13"
"",NA,"",NA,"",NA,NA,NA,NA,NA,NA,NA,"","",1,1,"2024-08-23_18h48.26.537","IAT(Formal)","2021.2.3","Win32",59.52380952,"",NA,"",NA,NA,NA,NA,NA,NA,NA,"","","",NA,"i",0,0.6039,0,45,45,22,1,"无私","e","",NA,NA,NA,NA,NA,NA,"",NA,"",NA,NA,NA,NA,NA,NA,NA,"",NA,"",NA,NA,NA,NA,NA,NA,NA,"","","",NA,"",NA,NA,NA,NA,NA,NA,NA,"",NA,"13"
"",NA,"",NA,"",NA,NA,NA,NA,NA,NA,NA,"","",1,1,"2024-08-23_18h48.26.537","IAT(Formal)","2021.2.3","Win32",59.52380952,"",NA,"",NA,NA,NA,NA,NA,NA,NA,"","","",NA,"i",1,0.7053,0,46,46,38,1,"鲁莽","i","",NA,NA,NA,NA,NA,NA,"",NA,"",NA,NA,NA,NA,NA,NA,NA,"",NA,"",NA,NA,NA,NA,NA,NA,NA,"","","",NA,"",NA,NA,NA,NA,NA,NA,NA,"",NA,"13"
"",NA,"",NA,"",NA,NA,NA,NA,NA,NA,NA,"","",1,1,"2024-08-23_18h48.26.537","IAT(Formal)","2021.2.3","Win32",59.52380952,"",NA,"",NA,NA,NA,NA,NA,NA,NA,"","","",NA,"i",1,0.5484,0,47,47,66,1,"他们","i","",NA,NA,NA,NA,NA,NA,"",NA,"",NA,NA,NA,NA,NA,NA,NA,"",NA,"",NA,NA,NA,NA,NA,NA,NA,"","","",NA,"",NA,NA,NA,NA,NA,NA,NA,"",NA,"13"
"",NA,"",NA,"",NA,NA,NA,NA,NA,NA,NA,"","",1,1,"2024-08-23_18h48.26.537","IAT(Formal)","2021.2.3","Win32",59.52380952,"",NA,"",NA,NA,NA,NA,NA,NA,NA,"","","",NA,"e",1,0.5512,0,48,48,71,1,"我的","e","",NA,NA,NA,NA,NA,NA,"",NA,"",NA,NA,NA,NA,NA,NA,NA,"",NA,"",NA,NA,NA,NA,NA,NA,NA,"","","",NA,"",NA,NA,NA,NA,NA,NA,NA,"",NA,"13"
"",NA,"",NA,"",NA,NA,NA,NA,NA,NA,NA,"","",1,1,"2024-08-23_18h48.26.537","IAT(Formal)","2021.2.3","Win32",59.52380952,"",NA,"",NA,NA,NA,NA,NA,NA,NA,"","","",NA,"e",1,0.6701,0,49,49,19,1,"机智","e","",NA,NA,NA,NA,NA,NA,"",NA,"",NA,NA,NA,NA,NA,NA,NA,"",NA,"",NA,NA,NA,NA,NA,NA,NA,"","","",NA,"",NA,NA,NA,NA,NA,NA,NA,"",NA,"13"
"",NA,"",NA,"",NA,NA,NA,NA,NA,NA,NA,"","",1,1,"2024-08-23_18h48.26.537","IAT(Formal)","2021.2.3","Win32",59.52380952,"",NA,"",NA,NA,NA,NA,NA,NA,NA,"","","",NA,"e",1,0.9259,0,50,50,11,1,"崇高","e","",NA,NA,NA,NA,NA,NA,"",NA,"",NA,NA,NA,NA,NA,NA,NA,"",NA,"",NA,NA,NA,NA,NA,NA,NA,"","","",NA,"",NA,NA,NA,NA,NA,NA,NA,"",NA,"13"
"",NA,"",NA,"",NA,NA,NA,NA,NA,NA,NA,"","",1,1,"2024-08-23_18h48.26.537","IAT(Formal)","2021.2.3","Win32",59.52380952,"",NA,"",NA,NA,NA,NA,NA,NA,NA,"","","",NA,"i",1,0.5766,0,51,51,55,1,"他","i","",NA,NA,NA,NA,NA,NA,"",NA,"",NA,NA,NA,NA,NA,NA,NA,"",NA,"",NA,NA,NA,NA,NA,NA,NA,"","","",NA,"",NA,NA,NA,NA,NA,NA,NA,"",NA,"13"
"",NA,"",NA,"",NA,NA,NA,NA,NA,NA,NA,"","",1,1,"2024-08-23_18h48.26.537","IAT(Formal)","2021.2.3","Win32",59.52380952,"",NA,"",NA,NA,NA,NA,NA,NA,NA,"","","",NA,"i",1,0.479,0,52,52,69,1,"其他","i","",NA,NA,NA,NA,NA,NA,"",NA,"",NA,NA,NA,NA,NA,NA,NA,"",NA,"",NA,NA,NA,NA,NA,NA,NA,"","","",NA,"",NA,NA,NA,NA,NA,NA,NA,"",NA,"13"
"",NA,"",NA,"",NA,NA,NA,NA,NA,NA,NA,"","",1,1,"2024-08-23_18h48.26.537","IAT(Formal)","2021.2.3","Win32",59.52380952,"",NA,"",NA,NA,NA,NA,NA,NA,NA,"","","",NA,"i",1,0.6797,0,53,53,44,1,"暴躁","i","",NA,NA,NA,NA,NA,NA,"",NA,"",NA,NA,NA,NA,NA,NA,NA,"",NA,"",NA,NA,NA,NA,NA,NA,NA,"","","",NA,"",NA,NA,NA,NA,NA,NA,NA,"",NA,"13"
"",NA,"",NA,"",NA,NA,NA,NA,NA,NA,NA,"","",1,1,"2024-08-23_18h48.26.537","IAT(Formal)","2021.2.3","Win32",59.52380952,"",NA,"",NA,NA,NA,NA,NA,NA,NA,"","","",NA,"i",1,0.8356,0,54,54,59,1,"其他","i","",NA,NA,NA,NA,NA,NA,"",NA,"",NA,NA,NA,NA,NA,NA,NA,"",NA,"",NA,NA,NA,NA,NA,NA,NA,"","","",NA,"",NA,NA,NA,NA,NA,NA,NA,"",NA,"13"
"",NA,"",NA,"",NA,NA,NA,NA,NA,NA,NA,"","",1,1,"2024-08-23_18h48.26.537","IAT(Formal)","2021.2.3","Win32",59.52380952,"",NA,"",NA,NA,NA,NA,NA,NA,NA,"","","",NA,"e",1,0.601,0,55,55,61,1,"我的","e","",NA,NA,NA,NA,NA,NA,"",NA,"",NA,NA,NA,NA,NA,NA,NA,"",NA,"",NA,NA,NA,NA,NA,NA,NA,"","","",NA,"",NA,NA,NA,NA,NA,NA,NA,"",NA,"13"
"",NA,"",NA,"",NA,NA,NA,NA,NA,NA,NA,"","",1,1,"2024-08-23_18h48.26.537","IAT(Formal)","2021.2.3","Win32",59.52380952,"",NA,"",NA,NA,NA,NA,NA,NA,NA,"","","",NA,"e",1,0.5527,0,56,56,0,1,"我","e","",NA,NA,NA,NA,NA,NA,"",NA,"",NA,NA,NA,NA,NA,NA,NA,"",NA,"",NA,NA,NA,NA,NA,NA,NA,"","","",NA,"",NA,NA,NA,NA,NA,NA,NA,"",NA,"13"
"",NA,"",NA,"",NA,NA,NA,NA,NA,NA,NA,"","",1,1,"2024-08-23_18h48.26.537","IAT(Formal)","2021.2.3","Win32",59.52380952,"",NA,"",NA,NA,NA,NA,NA,NA,NA,"","","",NA,"e",1,0.8531,0,57,57,28,1,"活泼","e","",NA,NA,NA,NA,NA,NA,"",NA,"",NA,NA,NA,NA,NA,NA,NA,"",NA,"",NA,NA,NA,NA,NA,NA,NA,"","","",NA,"",NA,NA,NA,NA,NA,NA,NA,"",NA,"13"
"",NA,"",NA,"",NA,NA,NA,NA,NA,NA,NA,"","",1,1,"2024-08-23_18h48.26.537","IAT(Formal)","2021.2.3","Win32",59.52380952,"",NA,"",NA,NA,NA,NA,NA,NA,NA,"","","",NA,"i",1,0.8059,0,58,58,45,1,"猖狂","i","",NA,NA,NA,NA,NA,NA,"",NA,"",NA,NA,NA,NA,NA,NA,NA,"",NA,"",NA,NA,NA,NA,NA,NA,NA,"","","",NA,"",NA,NA,NA,NA,NA,NA,NA,"",NA,"13"
"",NA,"",NA,"",NA,NA,NA,NA,NA,NA,NA,"","",1,1,"2024-08-23_18h48.26.537","IAT(Formal)","2021.2.3","Win32",59.52380952,"",NA,"",NA,NA,NA,NA,NA,NA,NA,"","","",NA,"i",1,0.6638,0,59,59,56,1,"他们","i","",NA,NA,NA,NA,NA,NA,"",NA,"",NA,NA,NA,NA,NA,NA,NA,"",NA,"",NA,NA,NA,NA,NA,NA,NA,"","","",NA,"",NA,NA,NA,NA,NA,NA,NA,"",NA,"13"
"",NA,"",NA,"",NA,NA,NA,NA,NA,NA,NA,"","",1,1,"2024-08-23_18h48.26.537","IAT(Formal)","2021.2.3","Win32",59.52380952,"",NA,"",NA,NA,NA,NA,NA,NA,NA,"","","",NA,"i",1,0.5029,0,60,60,48,1,"轻率","i","",NA,NA,NA,NA,NA,NA,"",NA,"",NA,NA,NA,NA,NA,NA,NA,"",NA,"",NA,NA,NA,NA,NA,NA,NA,"","","",NA,"",NA,NA,NA,NA,NA,NA,NA,"",NA,"13"
"",NA,"",NA,"",NA,NA,NA,NA,NA,NA,NA,"","",1,1,"2024-08-23_18h48.26.537","IAT(Formal)","2021.2.3","Win32",59.52380952,"",NA,"",NA,NA,NA,NA,NA,NA,NA,"","","",NA,"i",1,0.5371,0,61,61,40,1,"执拗","i","",NA,NA,NA,NA,NA,NA,"",NA,"",NA,NA,NA,NA,NA,NA,NA,"",NA,"",NA,NA,NA,NA,NA,NA,NA,"","","",NA,"",NA,NA,NA,NA,NA,NA,NA,"",NA,"13"
"",NA,"",NA,"",NA,NA,NA,NA,NA,NA,NA,"","",1,1,"2024-08-23_18h48.26.537","IAT(Formal)","2021.2.3","Win32",59.52380952,"",NA,"",NA,NA,NA,NA,NA,NA,NA,"","","",NA,"e",1,0.8267,0,62,62,27,1,"热情","e","",NA,NA,NA,NA,NA,NA,"",NA,"",NA,NA,NA,NA,NA,NA,NA,"",NA,"",NA,NA,NA,NA,NA,NA,NA,"","","",NA,"",NA,NA,NA,NA,NA,NA,NA,"",NA,"13"
"",NA,"",NA,"",NA,NA,NA,NA,NA,NA,NA,"","",1,1,"2024-08-23_18h48.26.537","IAT(Formal)","2021.2.3","Win32",59.52380952,"",NA,"",NA,NA,NA,NA,NA,NA,NA,"","","",NA,"i",1,0.669,0,63,63,79,1,"其他","i","",NA,NA,NA,NA,NA,NA,"",NA,"",NA,NA,NA,NA,NA,NA,NA,"",NA,"",NA,NA,NA,NA,NA,NA,NA,"","","",NA,"",NA,NA,NA,NA,NA,NA,NA,"",NA,"13"
"",NA,"",NA,"",NA,NA,NA,NA,NA,NA,NA,"","",1,1,"2024-08-23_18h48.26.537","IAT(Formal)","2021.2.3","Win32",59.52380952,"",NA,"",NA,NA,NA,NA,NA,NA,NA,"","","",NA,"i",1,0.6142,0,64,64,42,1,"凶狠","i","",NA,NA,NA,NA,NA,NA,"",NA,"",NA,NA,NA,NA,NA,NA,NA,"",NA,"",NA,NA,NA,NA,NA,NA,NA,"","","",NA,"",NA,NA,NA,NA,NA,NA,NA,"",NA,"13"
"",NA,"",NA,"",NA,NA,NA,NA,NA,NA,NA,"","",1,1,"2024-08-23_18h48.26.537","IAT(Formal)","2021.2.3","Win32",59.52380952,"",NA,"",NA,NA,NA,NA,NA,NA,NA,"","","",NA,"e",1,0.5879,0,65,65,1,1,"我的","e","",NA,NA,NA,NA,NA,NA,"",NA,"",NA,NA,NA,NA,NA,NA,NA,"",NA,"",NA,NA,NA,NA,NA,NA,NA,"","","",NA,"",NA,NA,NA,NA,NA,NA,NA,"",NA,"13"
"",NA,"",NA,"",NA,NA,NA,NA,NA,NA,NA,"","",1,1,"2024-08-23_18h48.26.537","IAT(Formal)","2021.2.3","Win32",59.52380952,"",NA,"",NA,NA,NA,NA,NA,NA,NA,"","","",NA,"e",1,0.8139,0,66,66,73,1,"自己","e","",NA,NA,NA,NA,NA,NA,"",NA,"",NA,NA,NA,NA,NA,NA,NA,"",NA,"",NA,NA,NA,NA,NA,NA,NA,"","","",NA,"",NA,NA,NA,NA,NA,NA,NA,"",NA,"13"
"",NA,"",NA,"",NA,NA,NA,NA,NA,NA,NA,"","",1,1,"2024-08-23_18h48.26.537","IAT(Formal)","2021.2.3","Win32",59.52380952,"",NA,"",NA,NA,NA,NA,NA,NA,NA,"","","",NA,"e",1,0.5688,0,67,67,74,1,"俺","e","",NA,NA,NA,NA,NA,NA,"",NA,"",NA,NA,NA,NA,NA,NA,NA,"",NA,"",NA,NA,NA,NA,NA,NA,NA,"","","",NA,"",NA,NA,NA,NA,NA,NA,NA,"",NA,"13"
"",NA,"",NA,"",NA,NA,NA,NA,NA,NA,NA,"","",1,1,"2024-08-23_18h48.26.537","IAT(Formal)","2021.2.3","Win32",59.52380952,"",NA,"",NA,NA,NA,NA,NA,NA,NA,"","","",NA,"e",1,0.4512,0,68,68,53,1,"自己","e","",NA,NA,NA,NA,NA,NA,"",NA,"",NA,NA,NA,NA,NA,NA,NA,"",NA,"",NA,NA,NA,NA,NA,NA,NA,"","","",NA,"",NA,NA,NA,NA,NA,NA,NA,"",NA,"13"
"",NA,"",NA,"",NA,NA,NA,NA,NA,NA,NA,"","",1,1,"2024-08-23_18h48.26.537","IAT(Formal)","2021.2.3","Win32",59.52380952,"",NA,"",NA,NA,NA,NA,NA,NA,NA,"","","",NA,"e",1,0.5272,0,69,69,17,1,"勇敢","e","",NA,NA,NA,NA,NA,NA,"",NA,"",NA,NA,NA,NA,NA,NA,NA,"",NA,"",NA,NA,NA,NA,NA,NA,NA,"","","",NA,"",NA,NA,NA,NA,NA,NA,NA,"",NA,"13"
"",NA,"",NA,"",NA,NA,NA,NA,NA,NA,NA,"","",1,1,"2024-08-23_18h48.26.537","IAT(Formal)","2021.2.3","Win32",59.52380952,"",NA,"",NA,NA,NA,NA,NA,NA,NA,"","","",NA,"i",1,0.924,0,70,70,6,1,"他们","i","",NA,NA,NA,NA,NA,NA,"",NA,"",NA,NA,NA,NA,NA,NA,NA,"",NA,"",NA,NA,NA,NA,NA,NA,NA,"","","",NA,"",NA,NA,NA,NA,NA,NA,NA,"",NA,"13"
"",NA,"",NA,"",NA,NA,NA,NA,NA,NA,NA,"","",1,1,"2024-08-23_18h48.26.537","IAT(Formal)","2021.2.3","Win32",59.52380952,"",NA,"",NA,NA,NA,NA,NA,NA,NA,"","","",NA,"e",1,0.6891,0,71,71,50,1,"我","e","",NA,NA,NA,NA,NA,NA,"",NA,"",NA,NA,NA,NA,NA,NA,NA,"",NA,"",NA,NA,NA,NA,NA,NA,NA,"","","",NA,"",NA,NA,NA,NA,NA,NA,NA,"",NA,"13"
"",NA,"",NA,"",NA,NA,NA,NA,NA,NA,NA,"","",1,1,"2024-08-23_18h48.26.537","IAT(Formal)","2021.2.3","Win32",59.52380952,"",NA,"",NA,NA,NA,NA,NA,NA,NA,"","","",NA,"i",1,0.5893,0,72,72,31,1,"虚伪","i","",NA,NA,NA,NA,NA,NA,"",NA,"",NA,NA,NA,NA,NA,NA,NA,"",NA,"",NA,NA,NA,NA,NA,NA,NA,"","","",NA,"",NA,NA,NA,NA,NA,NA,NA,"",NA,"13"
"",NA,"",NA,"",NA,NA,NA,NA,NA,NA,NA,"","",1,1,"2024-08-23_18h48.26.537","IAT(Formal)","2021.2.3","Win32",59.52380952,"",NA,"",NA,NA,NA,NA,NA,NA,NA,"","","",NA,"e",1,0.5695,0,73,73,63,1,"自己","e","",NA,NA,NA,NA,NA,NA,"",NA,"",NA,NA,NA,NA,NA,NA,NA,"",NA,"",NA,NA,NA,NA,NA,NA,NA,"","","",NA,"",NA,NA,NA,NA,NA,NA,NA,"",NA,"13"
"",NA,"",NA,"",NA,NA,NA,NA,NA,NA,NA,"","",1,1,"2024-08-23_18h48.26.537","IAT(Formal)","2021.2.3","Win32",59.52380952,"",NA,"",NA,NA,NA,NA,NA,NA,NA,"","","",NA,"i",1,0.5788,0,74,74,37,1,"傲慢","i","",NA,NA,NA,NA,NA,NA,"",NA,"",NA,NA,NA,NA,NA,NA,NA,"",NA,"",NA,NA,NA,NA,NA,NA,NA,"","","",NA,"",NA,NA,NA,NA,NA,NA,NA,"",NA,"13"
"",NA,"",NA,"",NA,NA,NA,NA,NA,NA,NA,"","",1,1,"2024-08-23_18h48.26.537","IAT(Formal)","2021.2.3","Win32",59.52380952,"",NA,"",NA,NA,NA,NA,NA,NA,NA,"","","",NA,"e",1,0.6695,0,75,75,54,1,"俺","e","",NA,NA,NA,NA,NA,NA,"",NA,"",NA,NA,NA,NA,NA,NA,NA,"",NA,"",NA,NA,NA,NA,NA,NA,NA,"","","",NA,"",NA,NA,NA,NA,NA,NA,NA,"",NA,"13"
"",NA,"",NA,"",NA,NA,NA,NA,NA,NA,NA,"","",1,1,"2024-08-23_18h48.26.537","IAT(Formal)","2021.2.3","Win32",59.52380952,"",NA,"",NA,NA,NA,NA,NA,NA,NA,"","","",NA,"i",1,0.5879,0,76,76,5,1,"他","i","",NA,NA,NA,NA,NA,NA,"",NA,"",NA,NA,NA,NA,NA,NA,NA,"",NA,"",NA,NA,NA,NA,NA,NA,NA,"","","",NA,"",NA,NA,NA,NA,NA,NA,NA,"",NA,"13"
"",NA,"",NA,"",NA,NA,NA,NA,NA,NA,NA,"","",1,1,"2024-08-23_18h48.26.537","IAT(Formal)","2021.2.3","Win32",59.52380952,"",NA,"",NA,NA,NA,NA,NA,NA,NA,"","","",NA,"e",1,0.5677,0,77,77,2,1,"我们","e","",NA,NA,NA,NA,NA,NA,"",NA,"",NA,NA,NA,NA,NA,NA,NA,"",NA,"",NA,NA,NA,NA,NA,NA,NA,"","","",NA,"",NA,NA,NA,NA,NA,NA,NA,"",NA,"13"
"",NA,"",NA,"",NA,NA,NA,NA,NA,NA,NA,"","",1,1,"2024-08-23_18h48.26.537","IAT(Formal)","2021.2.3","Win32",59.52380952,"",NA,"",NA,NA,NA,NA,NA,NA,NA,"","","",NA,"i",0,0.773,0,78,78,25,1,"细腻","e","",NA,NA,NA,NA,NA,NA,"",NA,"",NA,NA,NA,NA,NA,NA,NA,"",NA,"",NA,NA,NA,NA,NA,NA,NA,"","","",NA,"",NA,NA,NA,NA,NA,NA,NA,"",NA,"13"
"",NA,"",NA,"",NA,NA,NA,NA,NA,NA,NA,"","",1,1,"2024-08-23_18h48.26.537","IAT(Formal)","2021.2.3","Win32",59.52380952,"",NA,"",NA,NA,NA,NA,NA,NA,NA,"","","",NA,"i",1,0.4862,0,79,79,78,1,"他人","i","",NA,NA,NA,NA,NA,NA,"",NA,"",NA,NA,NA,NA,NA,NA,NA,"",NA,"",NA,NA,NA,NA,NA,NA,NA,"","","",NA,"",NA,NA,NA,NA,NA,NA,NA,"",NA,"13"
"",NA,"",NA,"",NA,NA,NA,NA,NA,NA,NA,"","",1,1,"2024-08-23_18h48.26.537","IAT(Formal)","2021.2.3","Win32",59.52380952,"",NA,"",NA,NA,NA,NA,NA,NA,NA,"","","",NA,"i",1,0.5829,NA,NA,NA,NA,NA,"猖狂","i","space",9.024,0,0,0,45,1,"",NA,"",NA,NA,NA,NA,NA,NA,NA,"",NA,"",NA,NA,NA,NA,NA,NA,NA,"","","",NA,"",NA,NA,NA,NA,NA,NA,NA,"",NA,"13"
"",NA,"",NA,"",NA,NA,NA,NA,NA,NA,NA,"","",1,1,"2024-08-23_18h48.26.537","IAT(Formal)","2021.2.3","Win32",59.52380952,"",NA,"",NA,NA,NA,NA,NA,NA,NA,"","","",NA,"e",1,0.464,NA,NA,NA,NA,NA,"我的","e","",NA,0,1,1,51,1,"",NA,"",NA,NA,NA,NA,NA,NA,NA,"",NA,"",NA,NA,NA,NA,NA,NA,NA,"","","",NA,"",NA,NA,NA,NA,NA,NA,NA,"",NA,"13"
"",NA,"",NA,"",NA,NA,NA,NA,NA,NA,NA,"","",1,1,"2024-08-23_18h48.26.537","IAT(Formal)","2021.2.3","Win32",59.52380952,"",NA,"",NA,NA,NA,NA,NA,NA,NA,"","","",NA,"e",1,0.5146,NA,NA,NA,NA,NA,"机智","e","",NA,0,2,2,19,1,"",NA,"",NA,NA,NA,NA,NA,NA,NA,"",NA,"",NA,NA,NA,NA,NA,NA,NA,"","","",NA,"",NA,NA,NA,NA,NA,NA,NA,"",NA,"13"
"",NA,"",NA,"",NA,NA,NA,NA,NA,NA,NA,"","",1,1,"2024-08-23_18h48.26.537","IAT(Formal)","2021.2.3","Win32",59.52380952,"",NA,"",NA,NA,NA,NA,NA,NA,NA,"","","",NA,"e",1,0.6183,NA,NA,NA,NA,NA,"冷静","e","",NA,0,3,3,26,1,"",NA,"",NA,NA,NA,NA,NA,NA,NA,"",NA,"",NA,NA,NA,NA,NA,NA,NA,"","","",NA,"",NA,NA,NA,NA,NA,NA,NA,"",NA,"13"
"",NA,"",NA,"",NA,NA,NA,NA,NA,NA,NA,"","",1,1,"2024-08-23_18h48.26.537","IAT(Formal)","2021.2.3","Win32",59.52380952,"",NA,"",NA,NA,NA,NA,NA,NA,NA,"","","",NA,"e",1,0.5123,NA,NA,NA,NA,NA,"自己","e","",NA,0,4,4,3,1,"",NA,"",NA,NA,NA,NA,NA,NA,NA,"",NA,"",NA,NA,NA,NA,NA,NA,NA,"","","",NA,"",NA,NA,NA,NA,NA,NA,NA,"",NA,"13"
"",NA,"",NA,"",NA,NA,NA,NA,NA,NA,NA,"","",1,1,"2024-08-23_18h48.26.537","IAT(Formal)","2021.2.3","Win32",59.52380952,"",NA,"",NA,NA,NA,NA,NA,NA,NA,"","","",NA,"e",1,0.4818,NA,NA,NA,NA,NA,"我","e","",NA,0,5,5,60,1,"",NA,"",NA,NA,NA,NA,NA,NA,NA,"",NA,"",NA,NA,NA,NA,NA,NA,NA,"","","",NA,"",NA,NA,NA,NA,NA,NA,NA,"",NA,"13"
"",NA,"",NA,"",NA,NA,NA,NA,NA,NA,NA,"","",1,1,"2024-08-23_18h48.26.537","IAT(Formal)","2021.2.3","Win32",59.52380952,"",NA,"",NA,NA,NA,NA,NA,NA,NA,"","","",NA,"i",1,0.5489,NA,NA,NA,NA,NA,"野蛮","i","",NA,0,6,6,46,1,"",NA,"",NA,NA,NA,NA,NA,NA,NA,"",NA,"",NA,NA,NA,NA,NA,NA,NA,"","","",NA,"",NA,NA,NA,NA,NA,NA,NA,"",NA,"13"
"",NA,"",NA,"",NA,NA,NA,NA,NA,NA,NA,"","",1,1,"2024-08-23_18h48.26.537","IAT(Formal)","2021.2.3","Win32",59.52380952,"",NA,"",NA,NA,NA,NA,NA,NA,NA,"","","",NA,"i",1,0.3971,NA,NA,NA,NA,NA,"其他","i","",NA,0,7,7,59,1,"",NA,"",NA,NA,NA,NA,NA,NA,NA,"",NA,"",NA,NA,NA,NA,NA,NA,NA,"","","",NA,"",NA,NA,NA,NA,NA,NA,NA,"",NA,"13"
"",NA,"",NA,"",NA,NA,NA,NA,NA,NA,NA,"","",1,1,"2024-08-23_18h48.26.537","IAT(Formal)","2021.2.3","Win32",59.52380952,"",NA,"",NA,NA,NA,NA,NA,NA,NA,"","","",NA,"e",1,0.5052,NA,NA,NA,NA,NA,"我的","e","",NA,0,8,8,1,1,"",NA,"",NA,NA,NA,NA,NA,NA,NA,"",NA,"",NA,NA,NA,NA,NA,NA,NA,"","","",NA,"",NA,NA,NA,NA,NA,NA,NA,"",NA,"13"
"",NA,"",NA,"",NA,NA,NA,NA,NA,NA,NA,"","",1,1,"2024-08-23_18h48.26.537","IAT(Formal)","2021.2.3","Win32",59.52380952,"",NA,"",NA,NA,NA,NA,NA,NA,NA,"","","",NA,"e",1,0.5016,NA,NA,NA,NA,NA,"勇敢","e","",NA,0,9,9,17,1,"",NA,"",NA,NA,NA,NA,NA,NA,NA,"",NA,"",NA,NA,NA,NA,NA,NA,NA,"","","",NA,"",NA,NA,NA,NA,NA,NA,NA,"",NA,"13"
"",NA,"",NA,"",NA,NA,NA,NA,NA,NA,NA,"","",1,1,"2024-08-23_18h48.26.537","IAT(Formal)","2021.2.3","Win32",59.52380952,"",NA,"",NA,NA,NA,NA,NA,NA,NA,"","","",NA,"e",1,0.7204,NA,NA,NA,NA,NA,"正直","e","",NA,0,10,10,16,1,"",NA,"",NA,NA,NA,NA,NA,NA,NA,"",NA,"",NA,NA,NA,NA,NA,NA,NA,"","","",NA,"",NA,NA,NA,NA,NA,NA,NA,"",NA,"13"
"",NA,"",NA,"",NA,NA,NA,NA,NA,NA,NA,"","",1,1,"2024-08-23_18h48.26.537","IAT(Formal)","2021.2.3","Win32",59.52380952,"",NA,"",NA,NA,NA,NA,NA,NA,NA,"","","",NA,"i",1,0.6015,NA,NA,NA,NA,NA,"暴躁","i","",NA,0,11,11,44,1,"",NA,"",NA,NA,NA,NA,NA,NA,NA,"",NA,"",NA,NA,NA,NA,NA,NA,NA,"","","",NA,"",NA,NA,NA,NA,NA,NA,NA,"",NA,"13"
"",NA,"",NA,"",NA,NA,NA,NA,NA,NA,NA,"","",1,1,"2024-08-23_18h48.26.537","IAT(Formal)","2021.2.3","Win32",59.52380952,"",NA,"",NA,NA,NA,NA,NA,NA,NA,"","","",NA,"e",1,0.564,NA,NA,NA,NA,NA,"活泼","e","",NA,0,12,12,28,1,"",NA,"",NA,NA,NA,NA,NA,NA,NA,"",NA,"",NA,NA,NA,NA,NA,NA,NA,"","","",NA,"",NA,NA,NA,NA,NA,NA,NA,"",NA,"13"
"",NA,"",NA,"",NA,NA,NA,NA,NA,NA,NA,"","",1,1,"2024-08-23_18h48.26.537","IAT(Formal)","2021.2.3","Win32",59.52380952,"",NA,"",NA,NA,NA,NA,NA,NA,NA,"","","",NA,"i",1,0.7709,NA,NA,NA,NA,NA,"消极","i","",NA,0,13,13,35,1,"",NA,"",NA,NA,NA,NA,NA,NA,NA,"",NA,"",NA,NA,NA,NA,NA,NA,NA,"","","",NA,"",NA,NA,NA,NA,NA,NA,NA,"",NA,"13"
"",NA,"",NA,"",NA,NA,NA,NA,NA,NA,NA,"","",1,1,"2024-08-23_18h48.26.537","IAT(Formal)","2021.2.3","Win32",59.52380952,"",NA,"",NA,NA,NA,NA,NA,NA,NA,"","","",NA,"i",1,0.4873,NA,NA,NA,NA,NA,"凶狠","i","",NA,0,14,14,42,1,"",NA,"",NA,NA,NA,NA,NA,NA,NA,"",NA,"",NA,NA,NA,NA,NA,NA,NA,"","","",NA,"",NA,NA,NA,NA,NA,NA,NA,"",NA,"13"
"",NA,"",NA,"",NA,NA,NA,NA,NA,NA,NA,"","",1,1,"2024-08-23_18h48.26.537","IAT(Formal)","2021.2.3","Win32",59.52380952,"",NA,"",NA,NA,NA,NA,NA,NA,NA,"","","",NA,"i",1,0.5197,NA,NA,NA,NA,NA,"他们","i","",NA,0,15,15,66,1,"",NA,"",NA,NA,NA,NA,NA,NA,NA,"",NA,"",NA,NA,NA,NA,NA,NA,NA,"","","",NA,"",NA,NA,NA,NA,NA,NA,NA,"",NA,"13"
"",NA,"",NA,"",NA,NA,NA,NA,NA,NA,NA,"","",1,1,"2024-08-23_18h48.26.537","IAT(Formal)","2021.2.3","Win32",59.52380952,"",NA,"",NA,NA,NA,NA,NA,NA,NA,"","","",NA,"e",1,0.4353,NA,NA,NA,NA,NA,"俺","e","",NA,0,16,16,54,1,"",NA,"",NA,NA,NA,NA,NA,NA,NA,"",NA,"",NA,NA,NA,NA,NA,NA,NA,"","","",NA,"",NA,NA,NA,NA,NA,NA,NA,"",NA,"13"
"",NA,"",NA,"",NA,NA,NA,NA,NA,NA,NA,"","",1,1,"2024-08-23_18h48.26.537","IAT(Formal)","2021.2.3","Win32",59.52380952,"",NA,"",NA,NA,NA,NA,NA,NA,NA,"","","",NA,"e",1,0.404,NA,NA,NA,NA,NA,"我的","e","",NA,0,17,17,61,1,"",NA,"",NA,NA,NA,NA,NA,NA,NA,"",NA,"",NA,NA,NA,NA,NA,NA,NA,"","","",NA,"",NA,NA,NA,NA,NA,NA,NA,"",NA,"13"
"",NA,"",NA,"",NA,NA,NA,NA,NA,NA,NA,"","",1,1,"2024-08-23_18h48.26.537","IAT(Formal)","2021.2.3","Win32",59.52380952,"",NA,"",NA,NA,NA,NA,NA,NA,NA,"","","",NA,"e",1,0.3805,NA,NA,NA,NA,NA,"认真","e","",NA,0,18,18,20,1,"",NA,"",NA,NA,NA,NA,NA,NA,NA,"",NA,"",NA,NA,NA,NA,NA,NA,NA,"","","",NA,"",NA,NA,NA,NA,NA,NA,NA,"",NA,"13"
"",NA,"",NA,"",NA,NA,NA,NA,NA,NA,NA,"","",1,1,"2024-08-23_18h48.26.537","IAT(Formal)","2021.2.3","Win32",59.52380952,"",NA,"",NA,NA,NA,NA,NA,NA,NA,"","","",NA,"e",1,0.4352,NA,NA,NA,NA,NA,"自己","e","",NA,0,19,19,73,1,"",NA,"",NA,NA,NA,NA,NA,NA,NA,"",NA,"",NA,NA,NA,NA,NA,NA,NA,"","","",NA,"",NA,NA,NA,NA,NA,NA,NA,"",NA,"13"
"",NA,"",NA,"",NA,NA,NA,NA,NA,NA,NA,"","",1,1,"2024-08-23_18h48.26.537","IAT(Formal)","2021.2.3","Win32",59.52380952,"",NA,"",NA,NA,NA,NA,NA,NA,NA,"","","",NA,"i",1,0.5687,NA,NA,NA,NA,NA,"愚蠢","i","",NA,0,20,20,32,1,"",NA,"",NA,NA,NA,NA,NA,NA,NA,"",NA,"",NA,NA,NA,NA,NA,NA,NA,"","","",NA,"",NA,NA,NA,NA,NA,NA,NA,"",NA,"13"
"",NA,"",NA,"",NA,NA,NA,NA,NA,NA,NA,"","",1,1,"2024-08-23_18h48.26.537","IAT(Formal)","2021.2.3","Win32",59.52380952,"",NA,"",NA,NA,NA,NA,NA,NA,NA,"","","",NA,"e",1,0.5879,NA,NA,NA,NA,NA,"我","e","",NA,0,21,21,50,1,"",NA,"",NA,NA,NA,NA,NA,NA,NA,"",NA,"",NA,NA,NA,NA,NA,NA,NA,"","","",NA,"",NA,NA,NA,NA,NA,NA,NA,"",NA,"13"
"",NA,"",NA,"",NA,NA,NA,NA,NA,NA,NA,"","",1,1,"2024-08-23_18h48.26.537","IAT(Formal)","2021.2.3","Win32",59.52380952,"",NA,"",NA,NA,NA,NA,NA,NA,NA,"","","",NA,"e",1,0.475,NA,NA,NA,NA,NA,"诚实","e","",NA,0,22,22,15,1,"",NA,"",NA,NA,NA,NA,NA,NA,NA,"",NA,"",NA,NA,NA,NA,NA,NA,NA,"","","",NA,"",NA,NA,NA,NA,NA,NA,NA,"",NA,"13"
"",NA,"",NA,"",NA,NA,NA,NA,NA,NA,NA,"","",1,1,"2024-08-23_18h48.26.537","IAT(Formal)","2021.2.3","Win32",59.52380952,"",NA,"",NA,NA,NA,NA,NA,NA,NA,"","","",NA,"i",1,0.6359,NA,NA,NA,NA,NA,"鲁莽","i","",NA,0,23,23,38,1,"",NA,"",NA,NA,NA,NA,NA,NA,NA,"",NA,"",NA,NA,NA,NA,NA,NA,NA,"","","",NA,"",NA,NA,NA,NA,NA,NA,NA,"",NA,"13"
"",NA,"",NA,"",NA,NA,NA,NA,NA,NA,NA,"","",1,1,"2024-08-23_18h48.26.537","IAT(Formal)","2021.2.3","Win32",59.52380952,"",NA,"",NA,NA,NA,NA,NA,NA,NA,"","","",NA,"e",0,0.4769,NA,NA,NA,NA,NA,"刻薄","i","",NA,0,24,24,33,1,"",NA,"",NA,NA,NA,NA,NA,NA,NA,"",NA,"",NA,NA,NA,NA,NA,NA,NA,"","","",NA,"",NA,NA,NA,NA,NA,NA,NA,"",NA,"13"
"",NA,"",NA,"",NA,NA,NA,NA,NA,NA,NA,"","",1,1,"2024-08-23_18h48.26.537","IAT(Formal)","2021.2.3","Win32",59.52380952,"",NA,"",NA,NA,NA,NA,NA,NA,NA,"","","",NA,"i",1,0.6277,NA,NA,NA,NA,NA,"他们","i","",NA,0,25,25,76,1,"",NA,"",NA,NA,NA,NA,NA,NA,NA,"",NA,"",NA,NA,NA,NA,NA,NA,NA,"","","",NA,"",NA,NA,NA,NA,NA,NA,NA,"",NA,"13"
"",NA,"",NA,"",NA,NA,NA,NA,NA,NA,NA,"","",1,1,"2024-08-23_18h48.26.537","IAT(Formal)","2021.2.3","Win32",59.52380952,"",NA,"",NA,NA,NA,NA,NA,NA,NA,"","","",NA,"i",1,0.631,NA,NA,NA,NA,NA,"自卑","i","",NA,0,26,26,36,1,"",NA,"",NA,NA,NA,NA,NA,NA,NA,"",NA,"",NA,NA,NA,NA,NA,NA,NA,"","","",NA,"",NA,NA,NA,NA,NA,NA,NA,"",NA,"13"
"",NA,"",NA,"",NA,NA,NA,NA,NA,NA,NA,"","",1,1,"2024-08-23_18h48.26.537","IAT(Formal)","2021.2.3","Win32",59.52380952,"",NA,"",NA,NA,NA,NA,NA,NA,NA,"","","",NA,"i",1,0.5611,NA,NA,NA,NA,NA,"他","i","",NA,0,27,27,65,1,"",NA,"",NA,NA,NA,NA,NA,NA,NA,"",NA,"",NA,NA,NA,NA,NA,NA,NA,"","","",NA,"",NA,NA,NA,NA,NA,NA,NA,"",NA,"13"
"",NA,"",NA,"",NA,NA,NA,NA,NA,NA,NA,"","",1,1,"2024-08-23_18h48.26.537","IAT(Formal)","2021.2.3","Win32",59.52380952,"",NA,"",NA,NA,NA,NA,NA,NA,NA,"","","",NA,"e",1,0.6514,NA,NA,NA,NA,NA,"诚恳","e","",NA,0,28,28,29,1,"",NA,"",NA,NA,NA,NA,NA,NA,NA,"",NA,"",NA,NA,NA,NA,NA,NA,NA,"","","",NA,"",NA,NA,NA,NA,NA,NA,NA,"",NA,"13"
"",NA,"",NA,"",NA,NA,NA,NA,NA,NA,NA,"","",1,1,"2024-08-23_18h48.26.537","IAT(Formal)","2021.2.3","Win32",59.52380952,"",NA,"",NA,NA,NA,NA,NA,NA,NA,"","","",NA,"i",1,0.5904,NA,NA,NA,NA,NA,"散漫","i","",NA,0,29,29,41,1,"",NA,"",NA,NA,NA,NA,NA,NA,NA,"",NA,"",NA,NA,NA,NA,NA,NA,NA,"","","",NA,"",NA,NA,NA,NA,NA,NA,NA,"",NA,"13"
"",NA,"",NA,"",NA,NA,NA,NA,NA,NA,NA,"","",1,1,"2024-08-23_18h48.26.537","IAT(Formal)","2021.2.3","Win32",59.52380952,"",NA,"",NA,NA,NA,NA,NA,NA,NA,"","","",NA,"i",1,0.5048,NA,NA,NA,NA,NA,"虚伪","i","",NA,0,30,30,31,1,"",NA,"",NA,NA,NA,NA,NA,NA,NA,"",NA,"",NA,NA,NA,NA,NA,NA,NA,"","","",NA,"",NA,NA,NA,NA,NA,NA,NA,"",NA,"13"
"",NA,"",NA,"",NA,NA,NA,NA,NA,NA,NA,"","",1,1,"2024-08-23_18h48.26.537","IAT(Formal)","2021.2.3","Win32",59.52380952,"",NA,"",NA,NA,NA,NA,NA,NA,NA,"","","",NA,"i",1,0.5236,NA,NA,NA,NA,NA,"冒失","i","",NA,0,31,31,39,1,"",NA,"",NA,NA,NA,NA,NA,NA,NA,"",NA,"",NA,NA,NA,NA,NA,NA,NA,"","","",NA,"",NA,NA,NA,NA,NA,NA,NA,"",NA,"13"
"",NA,"",NA,"",NA,NA,NA,NA,NA,NA,NA,"","",1,1,"2024-08-23_18h48.26.537","IAT(Formal)","2021.2.3","Win32",59.52380952,"",NA,"",NA,NA,NA,NA,NA,NA,NA,"","","",NA,"i",1,0.5895,NA,NA,NA,NA,NA,"悲观","i","",NA,0,32,32,34,1,"",NA,"",NA,NA,NA,NA,NA,NA,NA,"",NA,"",NA,NA,NA,NA,NA,NA,NA,"","","",NA,"",NA,NA,NA,NA,NA,NA,NA,"",NA,"13"
"",NA,"",NA,"",NA,NA,NA,NA,NA,NA,NA,"","",1,1,"2024-08-23_18h48.26.537","IAT(Formal)","2021.2.3","Win32",59.52380952,"",NA,"",NA,NA,NA,NA,NA,NA,NA,"","","",NA,"i",1,0.5029,NA,NA,NA,NA,NA,"固执","i","",NA,0,33,33,47,1,"",NA,"",NA,NA,NA,NA,NA,NA,NA,"",NA,"",NA,NA,NA,NA,NA,NA,NA,"","","",NA,"",NA,NA,NA,NA,NA,NA,NA,"",NA,"13"
"",NA,"",NA,"",NA,NA,NA,NA,NA,NA,NA,"","",1,1,"2024-08-23_18h48.26.537","IAT(Formal)","2021.2.3","Win32",59.52380952,"",NA,"",NA,NA,NA,NA,NA,NA,NA,"","","",NA,"i",1,0.4942,NA,NA,NA,NA,NA,"下贱","i","",NA,0,34,34,49,1,"",NA,"",NA,NA,NA,NA,NA,NA,NA,"",NA,"",NA,NA,NA,NA,NA,NA,NA,"","","",NA,"",NA,NA,NA,NA,NA,NA,NA,"",NA,"13"
"",NA,"",NA,"",NA,NA,NA,NA,NA,NA,NA,"","",1,1,"2024-08-23_18h48.26.537","IAT(Formal)","2021.2.3","Win32",59.52380952,"",NA,"",NA,NA,NA,NA,NA,NA,NA,"","","",NA,"e",1,0.5416,NA,NA,NA,NA,NA,"自己","e","",NA,0,35,35,53,1,"",NA,"",NA,NA,NA,NA,NA,NA,NA,"",NA,"",NA,NA,NA,NA,NA,NA,NA,"","","",NA,"",NA,NA,NA,NA,NA,NA,NA,"",NA,"13"
"",NA,"",NA,"",NA,NA,NA,NA,NA,NA,NA,"","",1,1,"2024-08-23_18h48.26.537","IAT(Formal)","2021.2.3","Win32",59.52380952,"",NA,"",NA,NA,NA,NA,NA,NA,NA,"","","",NA,"i",1,0.5184,NA,NA,NA,NA,NA,"卑鄙","i","",NA,0,36,36,30,1,"",NA,"",NA,NA,NA,NA,NA,NA,NA,"",NA,"",NA,NA,NA,NA,NA,NA,NA,"","","",NA,"",NA,NA,NA,NA,NA,NA,NA,"",NA,"13"
"",NA,"",NA,"",NA,NA,NA,NA,NA,NA,NA,"","",1,1,"2024-08-23_18h48.26.537","IAT(Formal)","2021.2.3","Win32",59.52380952,"",NA,"",NA,NA,NA,NA,NA,NA,NA,"","","",NA,"i",1,0.563,NA,NA,NA,NA,NA,"执拗","i","",NA,0,37,37,40,1,"",NA,"",NA,NA,NA,NA,NA,NA,NA,"",NA,"",NA,NA,NA,NA,NA,NA,NA,"","","",NA,"",NA,NA,NA,NA,NA,NA,NA,"",NA,"13"
"",NA,"",NA,"",NA,NA,NA,NA,NA,NA,NA,"","",1,1,"2024-08-23_18h48.26.537","IAT(Formal)","2021.2.3","Win32",59.52380952,"",NA,"",NA,NA,NA,NA,NA,NA,NA,"","","",NA,"e",1,0.6591,NA,NA,NA,NA,NA,"稳重","e","",NA,0,38,38,21,1,"",NA,"",NA,NA,NA,NA,NA,NA,NA,"",NA,"",NA,NA,NA,NA,NA,NA,NA,"","","",NA,"",NA,NA,NA,NA,NA,NA,NA,"",NA,"13"
"",NA,"",NA,"",NA,NA,NA,NA,NA,NA,NA,"","",1,1,"2024-08-23_18h48.26.537","IAT(Formal)","2021.2.3","Win32",59.52380952,"",NA,"",NA,NA,NA,NA,NA,NA,NA,"","","",NA,"i",1,0.5878,NA,NA,NA,NA,NA,"他们","i","",NA,0,39,39,6,1,"",NA,"",NA,NA,NA,NA,NA,NA,NA,"",NA,"",NA,NA,NA,NA,NA,NA,NA,"","","",NA,"",NA,NA,NA,NA,NA,NA,NA,"",NA,"13"
"",NA,"",NA,"",NA,NA,NA,NA,NA,NA,NA,"","",1,1,"2024-08-23_18h48.26.537","IAT(Formal)","2021.2.3","Win32",59.52380952,"",NA,"",NA,NA,NA,NA,NA,NA,NA,"","","",NA,"i",0,0.5096,NA,NA,NA,NA,NA,"无私","e","",NA,0,40,40,22,1,"",NA,"",NA,NA,NA,NA,NA,NA,NA,"",NA,"",NA,NA,NA,NA,NA,NA,NA,"","","",NA,"",NA,NA,NA,NA,NA,NA,NA,"",NA,"13"
"",NA,"",NA,"",NA,NA,NA,NA,NA,NA,NA,"","",1,1,"2024-08-23_18h48.26.537","IAT(Formal)","2021.2.3","Win32",59.52380952,"",NA,"",NA,NA,NA,NA,NA,NA,NA,"","","",NA,"i",1,0.7077,NA,NA,NA,NA,NA,"他","i","",NA,0,41,41,75,1,"",NA,"",NA,NA,NA,NA,NA,NA,NA,"",NA,"",NA,NA,NA,NA,NA,NA,NA,"","","",NA,"",NA,NA,NA,NA,NA,NA,NA,"",NA,"13"
"",NA,"",NA,"",NA,NA,NA,NA,NA,NA,NA,"","",1,1,"2024-08-23_18h48.26.537","IAT(Formal)","2021.2.3","Win32",59.52380952,"",NA,"",NA,NA,NA,NA,NA,NA,NA,"","","",NA,"i",1,0.485,NA,NA,NA,NA,NA,"他们","i","",NA,0,42,42,56,1,"",NA,"",NA,NA,NA,NA,NA,NA,NA,"",NA,"",NA,NA,NA,NA,NA,NA,NA,"","","",NA,"",NA,NA,NA,NA,NA,NA,NA,"",NA,"13"
"",NA,"",NA,"",NA,NA,NA,NA,NA,NA,NA,"","",1,1,"2024-08-23_18h48.26.537","IAT(Formal)","2021.2.3","Win32",59.52380952,"",NA,"",NA,NA,NA,NA,NA,NA,NA,"","","",NA,"i",1,0.456,NA,NA,NA,NA,NA,"他人","i","",NA,0,43,43,58,1,"",NA,"",NA,NA,NA,NA,NA,NA,NA,"",NA,"",NA,NA,NA,NA,NA,NA,NA,"","","",NA,"",NA,NA,NA,NA,NA,NA,NA,"",NA,"13"
"",NA,"",NA,"",NA,NA,NA,NA,NA,NA,NA,"","",1,1,"2024-08-23_18h48.26.537","IAT(Formal)","2021.2.3","Win32",59.52380952,"",NA,"",NA,NA,NA,NA,NA,NA,NA,"","","",NA,"i",1,0.5655,NA,NA,NA,NA,NA,"其他","i","",NA,0,44,44,9,1,"",NA,"",NA,NA,NA,NA,NA,NA,NA,"",NA,"",NA,NA,NA,NA,NA,NA,NA,"","","",NA,"",NA,NA,NA,NA,NA,NA,NA,"",NA,"13"
"",NA,"",NA,"",NA,NA,NA,NA,NA,NA,NA,"","",1,1,"2024-08-23_18h48.26.537","IAT(Formal)","2021.2.3","Win32",59.52380952,"",NA,"",NA,NA,NA,NA,NA,NA,NA,"","","",NA,"e",1,0.4384,NA,NA,NA,NA,NA,"我们","e","",NA,0,45,45,2,1,"",NA,"",NA,NA,NA,NA,NA,NA,NA,"",NA,"",NA,NA,NA,NA,NA,NA,NA,"","","",NA,"",NA,NA,NA,NA,NA,NA,NA,"",NA,"13"
"",NA,"",NA,"",NA,NA,NA,NA,NA,NA,NA,"","",1,1,"2024-08-23_18h48.26.537","IAT(Formal)","2021.2.3","Win32",59.52380952,"",NA,"",NA,NA,NA,NA,NA,NA,NA,"","","",NA,"i",1,0.6375,NA,NA,NA,NA,NA,"他的","i","",NA,0,46,46,77,1,"",NA,"",NA,NA,NA,NA,NA,NA,NA,"",NA,"",NA,NA,NA,NA,NA,NA,NA,"","","",NA,"",NA,NA,NA,NA,NA,NA,NA,"",NA,"13"
"",NA,"",NA,"",NA,NA,NA,NA,NA,NA,NA,"","",1,1,"2024-08-23_18h48.26.537","IAT(Formal)","2021.2.3","Win32",59.52380952,"",NA,"",NA,NA,NA,NA,NA,NA,NA,"","","",NA,"i",1,0.4974,NA,NA,NA,NA,NA,"他人","i","",NA,0,47,47,78,1,"",NA,"",NA,NA,NA,NA,NA,NA,NA,"",NA,"",NA,NA,NA,NA,NA,NA,NA,"","","",NA,"",NA,NA,NA,NA,NA,NA,NA,"",NA,"13"
"",NA,"",NA,"",NA,NA,NA,NA,NA,NA,NA,"","",1,1,"2024-08-23_18h48.26.537","IAT(Formal)","2021.2.3","Win32",59.52380952,"",NA,"",NA,NA,NA,NA,NA,NA,NA,"","","",NA,"i",1,0.6067,NA,NA,NA,NA,NA,"轻率","i","",NA,0,48,48,48,1,"",NA,"",NA,NA,NA,NA,NA,NA,NA,"",NA,"",NA,NA,NA,NA,NA,NA,NA,"","","",NA,"",NA,NA,NA,NA,NA,NA,NA,"",NA,"13"
"",NA,"",NA,"",NA,NA,NA,NA,NA,NA,NA,"","",1,1,"2024-08-23_18h48.26.537","IAT(Formal)","2021.2.3","Win32",59.52380952,"",NA,"",NA,NA,NA,NA,NA,NA,NA,"","","",NA,"e",1,0.6632,NA,NA,NA,NA,NA,"俺","e","",NA,0,49,49,64,1,"",NA,"",NA,NA,NA,NA,NA,NA,NA,"",NA,"",NA,NA,NA,NA,NA,NA,NA,"","","",NA,"",NA,NA,NA,NA,NA,NA,NA,"",NA,"13"
"",NA,"",NA,"",NA,NA,NA,NA,NA,NA,NA,"","",1,1,"2024-08-23_18h48.26.537","IAT(Formal)","2021.2.3","Win32",59.52380952,"",NA,"",NA,NA,NA,NA,NA,NA,NA,"","","",NA,"i",1,0.5002,NA,NA,NA,NA,NA,"他","i","",NA,0,50,50,55,1,"",NA,"",NA,NA,NA,NA,NA,NA,NA,"",NA,"",NA,NA,NA,NA,NA,NA,NA,"","","",NA,"",NA,NA,NA,NA,NA,NA,NA,"",NA,"13"
"",NA,"",NA,"",NA,NA,NA,NA,NA,NA,NA,"","",1,1,"2024-08-23_18h48.26.537","IAT(Formal)","2021.2.3","Win32",59.52380952,"",NA,"",NA,NA,NA,NA,NA,NA,NA,"","","",NA,"e",1,0.6087,NA,NA,NA,NA,NA,"细腻","e","",NA,0,51,51,25,1,"",NA,"",NA,NA,NA,NA,NA,NA,NA,"",NA,"",NA,NA,NA,NA,NA,NA,NA,"","","",NA,"",NA,NA,NA,NA,NA,NA,NA,"",NA,"13"
"",NA,"",NA,"",NA,NA,NA,NA,NA,NA,NA,"","",1,1,"2024-08-23_18h48.26.537","IAT(Formal)","2021.2.3","Win32",59.52380952,"",NA,"",NA,NA,NA,NA,NA,NA,NA,"","","",NA,"e",1,0.5344,NA,NA,NA,NA,NA,"公正","e","",NA,0,52,52,23,1,"",NA,"",NA,NA,NA,NA,NA,NA,NA,"",NA,"",NA,NA,NA,NA,NA,NA,NA,"","","",NA,"",NA,NA,NA,NA,NA,NA,NA,"",NA,"13"
"",NA,"",NA,"",NA,NA,NA,NA,NA,NA,NA,"","",1,1,"2024-08-23_18h48.26.537","IAT(Formal)","2021.2.3","Win32",59.52380952,"",NA,"",NA,NA,NA,NA,NA,NA,NA,"","","",NA,"e",1,0.5645,NA,NA,NA,NA,NA,"我","e","",NA,0,53,53,70,1,"",NA,"",NA,NA,NA,NA,NA,NA,NA,"",NA,"",NA,NA,NA,NA,NA,NA,NA,"","","",NA,"",NA,NA,NA,NA,NA,NA,NA,"",NA,"13"
"",NA,"",NA,"",NA,NA,NA,NA,NA,NA,NA,"","",1,1,"2024-08-23_18h48.26.537","IAT(Formal)","2021.2.3","Win32",59.52380952,"",NA,"",NA,NA,NA,NA,NA,NA,NA,"","","",NA,"i",1,0.5643,NA,NA,NA,NA,NA,"他的","i","",NA,0,54,54,7,1,"",NA,"",NA,NA,NA,NA,NA,NA,NA,"",NA,"",NA,NA,NA,NA,NA,NA,NA,"","","",NA,"",NA,NA,NA,NA,NA,NA,NA,"",NA,"13"
"",NA,"",NA,"",NA,NA,NA,NA,NA,NA,NA,"","",1,1,"2024-08-23_18h48.26.537","IAT(Formal)","2021.2.3","Win32",59.52380952,"",NA,"",NA,NA,NA,NA,NA,NA,NA,"","","",NA,"e",1,0.5457,NA,NA,NA,NA,NA,"杰出","e","",NA,0,55,55,13,1,"",NA,"",NA,NA,NA,NA,NA,NA,NA,"",NA,"",NA,NA,NA,NA,NA,NA,NA,"","","",NA,"",NA,NA,NA,NA,NA,NA,NA,"",NA,"13"
"",NA,"",NA,"",NA,NA,NA,NA,NA,NA,NA,"","",1,1,"2024-08-23_18h48.26.537","IAT(Formal)","2021.2.3","Win32",59.52380952,"",NA,"",NA,NA,NA,NA,NA,NA,NA,"","","",NA,"e",1,0.4962,NA,NA,NA,NA,NA,"我们","e","",NA,0,56,56,62,1,"",NA,"",NA,NA,NA,NA,NA,NA,NA,"",NA,"",NA,NA,NA,NA,NA,NA,NA,"","","",NA,"",NA,NA,NA,NA,NA,NA,NA,"",NA,"13"
"",NA,"",NA,"",NA,NA,NA,NA,NA,NA,NA,"","",1,1,"2024-08-23_18h48.26.537","IAT(Formal)","2021.2.3","Win32",59.52380952,"",NA,"",NA,NA,NA,NA,NA,NA,NA,"","","",NA,"e",1,0.5287,NA,NA,NA,NA,NA,"乐观","e","",NA,0,57,57,14,1,"",NA,"",NA,NA,NA,NA,NA,NA,NA,"",NA,"",NA,NA,NA,NA,NA,NA,NA,"","","",NA,"",NA,NA,NA,NA,NA,NA,NA,"",NA,"13"
"",NA,"",NA,"",NA,NA,NA,NA,NA,NA,NA,"","",1,1,"2024-08-23_18h48.26.537","IAT(Formal)","2021.2.3","Win32",59.52380952,"",NA,"",NA,NA,NA,NA,NA,NA,NA,"","","",NA,"e",1,0.5124,NA,NA,NA,NA,NA,"俺","e","",NA,0,58,58,4,1,"",NA,"",NA,NA,NA,NA,NA,NA,NA,"",NA,"",NA,NA,NA,NA,NA,NA,NA,"","","",NA,"",NA,NA,NA,NA,NA,NA,NA,"",NA,"13"
"",NA,"",NA,"",NA,NA,NA,NA,NA,NA,NA,"","",1,1,"2024-08-23_18h48.26.537","IAT(Formal)","2021.2.3","Win32",59.52380952,"",NA,"",NA,NA,NA,NA,NA,NA,NA,"","","",NA,"e",0,0.8102,NA,NA,NA,NA,NA,"自私","i","",NA,0,59,59,43,1,"",NA,"",NA,NA,NA,NA,NA,NA,NA,"",NA,"",NA,NA,NA,NA,NA,NA,NA,"","","",NA,"",NA,NA,NA,NA,NA,NA,NA,"",NA,"13"
"",NA,"",NA,"",NA,NA,NA,NA,NA,NA,NA,"","",1,1,"2024-08-23_18h48.26.537","IAT(Formal)","2021.2.3","Win32",59.52380952,"",NA,"",NA,NA,NA,NA,NA,NA,NA,"","","",NA,"i",1,0.621,NA,NA,NA,NA,NA,"傲慢","i","",NA,0,60,60,37,1,"",NA,"",NA,NA,NA,NA,NA,NA,NA,"",NA,"",NA,NA,NA,NA,NA,NA,NA,"","","",NA,"",NA,NA,NA,NA,NA,NA,NA,"",NA,"13"
"",NA,"",NA,"",NA,NA,NA,NA,NA,NA,NA,"","",1,1,"2024-08-23_18h48.26.537","IAT(Formal)","2021.2.3","Win32",59.52380952,"",NA,"",NA,NA,NA,NA,NA,NA,NA,"","","",NA,"i",1,0.7221,NA,NA,NA,NA,NA,"他的","i","",NA,0,61,61,57,1,"",NA,"",NA,NA,NA,NA,NA,NA,NA,"",NA,"",NA,NA,NA,NA,NA,NA,NA,"","","",NA,"",NA,NA,NA,NA,NA,NA,NA,"",NA,"13"
"",NA,"",NA,"",NA,NA,NA,NA,NA,NA,NA,"","",1,1,"2024-08-23_18h48.26.537","IAT(Formal)","2021.2.3","Win32",59.52380952,"",NA,"",NA,NA,NA,NA,NA,NA,NA,"","","",NA,"e",1,0.5749,NA,NA,NA,NA,NA,"我","e","",NA,0,62,62,0,1,"",NA,"",NA,NA,NA,NA,NA,NA,NA,"",NA,"",NA,NA,NA,NA,NA,NA,NA,"","","",NA,"",NA,NA,NA,NA,NA,NA,NA,"",NA,"13"
"",NA,"",NA,"",NA,NA,NA,NA,NA,NA,NA,"","",1,1,"2024-08-23_18h48.26.537","IAT(Formal)","2021.2.3","Win32",59.52380952,"",NA,"",NA,NA,NA,NA,NA,NA,NA,"","","",NA,"e",1,0.6389,NA,NA,NA,NA,NA,"自己","e","",NA,0,63,63,63,1,"",NA,"",NA,NA,NA,NA,NA,NA,NA,"",NA,"",NA,NA,NA,NA,NA,NA,NA,"","","",NA,"",NA,NA,NA,NA,NA,NA,NA,"",NA,"13"
"",NA,"",NA,"",NA,NA,NA,NA,NA,NA,NA,"","",1,1,"2024-08-23_18h48.26.537","IAT(Formal)","2021.2.3","Win32",59.52380952,"",NA,"",NA,NA,NA,NA,NA,NA,NA,"","","",NA,"e",1,0.7314,NA,NA,NA,NA,NA,"崇高","e","",NA,0,64,64,11,1,"",NA,"",NA,NA,NA,NA,NA,NA,NA,"",NA,"",NA,NA,NA,NA,NA,NA,NA,"","","",NA,"",NA,NA,NA,NA,NA,NA,NA,"",NA,"13"
"",NA,"",NA,"",NA,NA,NA,NA,NA,NA,NA,"","",1,1,"2024-08-23_18h48.26.537","IAT(Formal)","2021.2.3","Win32",59.52380952,"",NA,"",NA,NA,NA,NA,NA,NA,NA,"","","",NA,"e",1,0.4673,NA,NA,NA,NA,NA,"我们","e","",NA,0,65,65,52,1,"",NA,"",NA,NA,NA,NA,NA,NA,NA,"",NA,"",NA,NA,NA,NA,NA,NA,NA,"","","",NA,"",NA,NA,NA,NA,NA,NA,NA,"",NA,"13"
"",NA,"",NA,"",NA,NA,NA,NA,NA,NA,NA,"","",1,1,"2024-08-23_18h48.26.537","IAT(Formal)","2021.2.3","Win32",59.52380952,"",NA,"",NA,NA,NA,NA,NA,NA,NA,"","","",NA,"e",1,0.6367,NA,NA,NA,NA,NA,"俺","e","",NA,0,66,66,74,1,"",NA,"",NA,NA,NA,NA,NA,NA,NA,"",NA,"",NA,NA,NA,NA,NA,NA,NA,"","","",NA,"",NA,NA,NA,NA,NA,NA,NA,"",NA,"13"
"",NA,"",NA,"",NA,NA,NA,NA,NA,NA,NA,"","",1,1,"2024-08-23_18h48.26.537","IAT(Formal)","2021.2.3","Win32",59.52380952,"",NA,"",NA,NA,NA,NA,NA,NA,NA,"","","",NA,"i",1,0.8293,NA,NA,NA,NA,NA,"他人","i","",NA,0,67,67,8,1,"",NA,"",NA,NA,NA,NA,NA,NA,NA,"",NA,"",NA,NA,NA,NA,NA,NA,NA,"","","",NA,"",NA,NA,NA,NA,NA,NA,NA,"",NA,"13"
"",NA,"",NA,"",NA,NA,NA,NA,NA,NA,NA,"","",1,1,"2024-08-23_18h48.26.537","IAT(Formal)","2021.2.3","Win32",59.52380952,"",NA,"",NA,NA,NA,NA,NA,NA,NA,"","","",NA,"e",1,0.6047,NA,NA,NA,NA,NA,"热情","e","",NA,0,68,68,27,1,"",NA,"",NA,NA,NA,NA,NA,NA,NA,"",NA,"",NA,NA,NA,NA,NA,NA,NA,"","","",NA,"",NA,NA,NA,NA,NA,NA,NA,"",NA,"13"
"",NA,"",NA,"",NA,NA,NA,NA,NA,NA,NA,"","",1,1,"2024-08-23_18h48.26.537","IAT(Formal)","2021.2.3","Win32",59.52380952,"",NA,"",NA,NA,NA,NA,NA,NA,NA,"","","",NA,"e",1,0.479,NA,NA,NA,NA,NA,"我们","e","",NA,0,69,69,72,1,"",NA,"",NA,NA,NA,NA,NA,NA,NA,"",NA,"",NA,NA,NA,NA,NA,NA,NA,"","","",NA,"",NA,NA,NA,NA,NA,NA,NA,"",NA,"13"
"",NA,"",NA,"",NA,NA,NA,NA,NA,NA,NA,"","",1,1,"2024-08-23_18h48.26.537","IAT(Formal)","2021.2.3","Win32",59.52380952,"",NA,"",NA,NA,NA,NA,NA,NA,NA,"","","",NA,"i",1,0.5676,NA,NA,NA,NA,NA,"他的","i","",NA,0,70,70,67,1,"",NA,"",NA,NA,NA,NA,NA,NA,NA,"",NA,"",NA,NA,NA,NA,NA,NA,NA,"","","",NA,"",NA,NA,NA,NA,NA,NA,NA,"",NA,"13"
"",NA,"",NA,"",NA,NA,NA,NA,NA,NA,NA,"","",1,1,"2024-08-23_18h48.26.537","IAT(Formal)","2021.2.3","Win32",59.52380952,"",NA,"",NA,NA,NA,NA,NA,NA,NA,"","","",NA,"e",1,0.5431,NA,NA,NA,NA,NA,"我的","e","",NA,0,71,71,71,1,"",NA,"",NA,NA,NA,NA,NA,NA,NA,"",NA,"",NA,NA,NA,NA,NA,NA,NA,"","","",NA,"",NA,NA,NA,NA,NA,NA,NA,"",NA,"13"
"",NA,"",NA,"",NA,NA,NA,NA,NA,NA,NA,"","",1,1,"2024-08-23_18h48.26.537","IAT(Formal)","2021.2.3","Win32",59.52380952,"",NA,"",NA,NA,NA,NA,NA,NA,NA,"","","",NA,"e",1,0.4648,NA,NA,NA,NA,NA,"聪明","e","",NA,0,72,72,12,1,"",NA,"",NA,NA,NA,NA,NA,NA,NA,"",NA,"",NA,NA,NA,NA,NA,NA,NA,"","","",NA,"",NA,NA,NA,NA,NA,NA,NA,"",NA,"13"
"",NA,"",NA,"",NA,NA,NA,NA,NA,NA,NA,"","",1,1,"2024-08-23_18h48.26.537","IAT(Formal)","2021.2.3","Win32",59.52380952,"",NA,"",NA,NA,NA,NA,NA,NA,NA,"","","",NA,"e",1,0.4838,NA,NA,NA,NA,NA,"朴实","e","",NA,0,73,73,24,1,"",NA,"",NA,NA,NA,NA,NA,NA,NA,"",NA,"",NA,NA,NA,NA,NA,NA,NA,"","","",NA,"",NA,NA,NA,NA,NA,NA,NA,"",NA,"13"
"",NA,"",NA,"",NA,NA,NA,NA,NA,NA,NA,"","",1,1,"2024-08-23_18h48.26.537","IAT(Formal)","2021.2.3","Win32",59.52380952,"",NA,"",NA,NA,NA,NA,NA,NA,NA,"","","",NA,"e",1,0.5521,NA,NA,NA,NA,NA,"勤奋","e","",NA,0,74,74,18,1,"",NA,"",NA,NA,NA,NA,NA,NA,NA,"",NA,"",NA,NA,NA,NA,NA,NA,NA,"","","",NA,"",NA,NA,NA,NA,NA,NA,NA,"",NA,"13"
"",NA,"",NA,"",NA,NA,NA,NA,NA,NA,NA,"","",1,1,"2024-08-23_18h48.26.537","IAT(Formal)","2021.2.3","Win32",59.52380952,"",NA,"",NA,NA,NA,NA,NA,NA,NA,"","","",NA,"i",1,0.6382,NA,NA,NA,NA,NA,"其他","i","",NA,0,75,75,69,1,"",NA,"",NA,NA,NA,NA,NA,NA,NA,"",NA,"",NA,NA,NA,NA,NA,NA,NA,"","","",NA,"",NA,NA,NA,NA,NA,NA,NA,"",NA,"13"
"",NA,"",NA,"",NA,NA,NA,NA,NA,NA,NA,"","",1,1,"2024-08-23_18h48.26.537","IAT(Formal)","2021.2.3","Win32",59.52380952,"",NA,"",NA,NA,NA,NA,NA,NA,NA,"","","",NA,"e",1,0.5681,NA,NA,NA,NA,NA,"优秀","e","",NA,0,76,76,10,1,"",NA,"",NA,NA,NA,NA,NA,NA,NA,"",NA,"",NA,NA,NA,NA,NA,NA,NA,"","","",NA,"",NA,NA,NA,NA,NA,NA,NA,"",NA,"13"
"",NA,"",NA,"",NA,NA,NA,NA,NA,NA,NA,"","",1,1,"2024-08-23_18h48.26.537","IAT(Formal)","2021.2.3","Win32",59.52380952,"",NA,"",NA,NA,NA,NA,NA,NA,NA,"","","",NA,"i",1,0.5377,NA,NA,NA,NA,NA,"他","i","",NA,0,77,77,5,1,"",NA,"",NA,NA,NA,NA,NA,NA,NA,"",NA,"",NA,NA,NA,NA,NA,NA,NA,"","","",NA,"",NA,NA,NA,NA,NA,NA,NA,"",NA,"13"
"",NA,"",NA,"",NA,NA,NA,NA,NA,NA,NA,"","",1,1,"2024-08-23_18h48.26.537","IAT(Formal)","2021.2.3","Win32",59.52380952,"",NA,"",NA,NA,NA,NA,NA,NA,NA,"","","",NA,"i",1,0.5188,NA,NA,NA,NA,NA,"他人","i","",NA,0,78,78,68,1,"",NA,"",NA,NA,NA,NA,NA,NA,NA,"",NA,"",NA,NA,NA,NA,NA,NA,NA,"","","",NA,"",NA,NA,NA,NA,NA,NA,NA,"",NA,"13"
"",NA,"",NA,"",NA,NA,NA,NA,NA,NA,NA,"","",1,1,"2024-08-23_18h48.26.537","IAT(Formal)","2021.2.3","Win32",59.52380952,"",NA,"",NA,NA,NA,NA,NA,NA,NA,"","","",NA,"i",1,0.5856,NA,NA,NA,NA,NA,"其他","i","",NA,0,79,79,79,1,"",NA,"",NA,NA,NA,NA,NA,NA,NA,"",NA,"",NA,NA,NA,NA,NA,NA,NA,"","","",NA,"",NA,NA,NA,NA,NA,NA,NA,"",NA,"13"
"",NA,"",NA,"",NA,NA,NA,NA,NA,NA,NA,"","",1,1,"2024-08-23_18h48.26.537","IAT(Formal)","2021.2.3","Win32",59.52380952,"",NA,"",NA,NA,NA,NA,NA,NA,NA,"","","",NA,"i",1,0.6239,NA,NA,NA,NA,NA,"自私","i","",NA,1,0,80,43,1,"",NA,"",NA,NA,NA,NA,NA,NA,NA,"",NA,"",NA,NA,NA,NA,NA,NA,NA,"","","",NA,"",NA,NA,NA,NA,NA,NA,NA,"",NA,"13"
"",NA,"",NA,"",NA,NA,NA,NA,NA,NA,NA,"","",1,1,"2024-08-23_18h48.26.537","IAT(Formal)","2021.2.3","Win32",59.52380952,"",NA,"",NA,NA,NA,NA,NA,NA,NA,"","","",NA,"i",1,0.5529,NA,NA,NA,NA,NA,"暴躁","i","",NA,1,1,81,44,1,"",NA,"",NA,NA,NA,NA,NA,NA,NA,"",NA,"",NA,NA,NA,NA,NA,NA,NA,"","","",NA,"",NA,NA,NA,NA,NA,NA,NA,"",NA,"13"
"",NA,"",NA,"",NA,NA,NA,NA,NA,NA,NA,"","",1,1,"2024-08-23_18h48.26.537","IAT(Formal)","2021.2.3","Win32",59.52380952,"",NA,"",NA,NA,NA,NA,NA,NA,NA,"","","",NA,"i",1,0.4771,NA,NA,NA,NA,NA,"他们","i","",NA,1,2,82,76,1,"",NA,"",NA,NA,NA,NA,NA,NA,NA,"",NA,"",NA,NA,NA,NA,NA,NA,NA,"","","",NA,"",NA,NA,NA,NA,NA,NA,NA,"",NA,"13"
"",NA,"",NA,"",NA,NA,NA,NA,NA,NA,NA,"","",1,1,"2024-08-23_18h48.26.537","IAT(Formal)","2021.2.3","Win32",59.52380952,"",NA,"",NA,NA,NA,NA,NA,NA,NA,"","","",NA,"e",1,0.5263,NA,NA,NA,NA,NA,"自己","e","",NA,1,3,83,53,1,"",NA,"",NA,NA,NA,NA,NA,NA,NA,"",NA,"",NA,NA,NA,NA,NA,NA,NA,"","","",NA,"",NA,NA,NA,NA,NA,NA,NA,"",NA,"13"
"",NA,"",NA,"",NA,NA,NA,NA,NA,NA,NA,"","",1,1,"2024-08-23_18h48.26.537","IAT(Formal)","2021.2.3","Win32",59.52380952,"",NA,"",NA,NA,NA,NA,NA,NA,NA,"","","",NA,"e",1,0.5221,NA,NA,NA,NA,NA,"优秀","e","",NA,1,4,84,10,1,"",NA,"",NA,NA,NA,NA,NA,NA,NA,"",NA,"",NA,NA,NA,NA,NA,NA,NA,"","","",NA,"",NA,NA,NA,NA,NA,NA,NA,"",NA,"13"
"",NA,"",NA,"",NA,NA,NA,NA,NA,NA,NA,"","",1,1,"2024-08-23_18h48.26.537","IAT(Formal)","2021.2.3","Win32",59.52380952,"",NA,"",NA,NA,NA,NA,NA,NA,NA,"","","",NA,"i",1,0.7511,NA,NA,NA,NA,NA,"他们","i","",NA,1,5,85,6,1,"",NA,"",NA,NA,NA,NA,NA,NA,NA,"",NA,"",NA,NA,NA,NA,NA,NA,NA,"","","",NA,"",NA,NA,NA,NA,NA,NA,NA,"",NA,"13"
"",NA,"",NA,"",NA,NA,NA,NA,NA,NA,NA,"","",1,1,"2024-08-23_18h48.26.537","IAT(Formal)","2021.2.3","Win32",59.52380952,"",NA,"",NA,NA,NA,NA,NA,NA,NA,"","","",NA,"i",1,0.4813,NA,NA,NA,NA,NA,"他的","i","",NA,1,6,86,57,1,"",NA,"",NA,NA,NA,NA,NA,NA,NA,"",NA,"",NA,NA,NA,NA,NA,NA,NA,"","","",NA,"",NA,NA,NA,NA,NA,NA,NA,"",NA,"13"
"",NA,"",NA,"",NA,NA,NA,NA,NA,NA,NA,"","",1,1,"2024-08-23_18h48.26.537","IAT(Formal)","2021.2.3","Win32",59.52380952,"",NA,"",NA,NA,NA,NA,NA,NA,NA,"","","",NA,"e",1,0.7612,NA,NA,NA,NA,NA,"自己","e","",NA,1,7,87,73,1,"",NA,"",NA,NA,NA,NA,NA,NA,NA,"",NA,"",NA,NA,NA,NA,NA,NA,NA,"","","",NA,"",NA,NA,NA,NA,NA,NA,NA,"",NA,"13"
"",NA,"",NA,"",NA,NA,NA,NA,NA,NA,NA,"","",1,1,"2024-08-23_18h48.26.537","IAT(Formal)","2021.2.3","Win32",59.52380952,"",NA,"",NA,NA,NA,NA,NA,NA,NA,"","","",NA,"e",1,0.5527,NA,NA,NA,NA,NA,"我","e","",NA,1,8,88,50,1,"",NA,"",NA,NA,NA,NA,NA,NA,NA,"",NA,"",NA,NA,NA,NA,NA,NA,NA,"","","",NA,"",NA,NA,NA,NA,NA,NA,NA,"",NA,"13"
"",NA,"",NA,"",NA,NA,NA,NA,NA,NA,NA,"","",1,1,"2024-08-23_18h48.26.537","IAT(Formal)","2021.2.3","Win32",59.52380952,"",NA,"",NA,NA,NA,NA,NA,NA,NA,"","","",NA,"e",1,0.6435,NA,NA,NA,NA,NA,"勤奋","e","",NA,1,9,89,18,1,"",NA,"",NA,NA,NA,NA,NA,NA,NA,"",NA,"",NA,NA,NA,NA,NA,NA,NA,"","","",NA,"",NA,NA,NA,NA,NA,NA,NA,"",NA,"13"
"",NA,"",NA,"",NA,NA,NA,NA,NA,NA,NA,"","",1,1,"2024-08-23_18h48.26.537","IAT(Formal)","2021.2.3","Win32",59.52380952,"",NA,"",NA,NA,NA,NA,NA,NA,NA,"","","",NA,"i",1,0.5355,NA,NA,NA,NA,NA,"其他","i","",NA,1,10,90,59,1,"",NA,"",NA,NA,NA,NA,NA,NA,NA,"",NA,"",NA,NA,NA,NA,NA,NA,NA,"","","",NA,"",NA,NA,NA,NA,NA,NA,NA,"",NA,"13"
"",NA,"",NA,"",NA,NA,NA,NA,NA,NA,NA,"","",1,1,"2024-08-23_18h48.26.537","IAT(Formal)","2021.2.3","Win32",59.52380952,"",NA,"",NA,NA,NA,NA,NA,NA,NA,"","","",NA,"i",1,0.5701,NA,NA,NA,NA,NA,"傲慢","i","",NA,1,11,91,37,1,"",NA,"",NA,NA,NA,NA,NA,NA,NA,"",NA,"",NA,NA,NA,NA,NA,NA,NA,"","","",NA,"",NA,NA,NA,NA,NA,NA,NA,"",NA,"13"
"",NA,"",NA,"",NA,NA,NA,NA,NA,NA,NA,"","",1,1,"2024-08-23_18h48.26.537","IAT(Formal)","2021.2.3","Win32",59.52380952,"",NA,"",NA,NA,NA,NA,NA,NA,NA,"","","",NA,"i",1,0.5103,NA,NA,NA,NA,NA,"其他","i","",NA,1,12,92,9,1,"",NA,"",NA,NA,NA,NA,NA,NA,NA,"",NA,"",NA,NA,NA,NA,NA,NA,NA,"","","",NA,"",NA,NA,NA,NA,NA,NA,NA,"",NA,"13"
"",NA,"",NA,"",NA,NA,NA,NA,NA,NA,NA,"","",1,1,"2024-08-23_18h48.26.537","IAT(Formal)","2021.2.3","Win32",59.52380952,"",NA,"",NA,NA,NA,NA,NA,NA,NA,"","","",NA,"i",1,0.4679,NA,NA,NA,NA,NA,"轻率","i","",NA,1,13,93,48,1,"",NA,"",NA,NA,NA,NA,NA,NA,NA,"",NA,"",NA,NA,NA,NA,NA,NA,NA,"","","",NA,"",NA,NA,NA,NA,NA,NA,NA,"",NA,"13"
"",NA,"",NA,"",NA,NA,NA,NA,NA,NA,NA,"","",1,1,"2024-08-23_18h48.26.537","IAT(Formal)","2021.2.3","Win32",59.52380952,"",NA,"",NA,NA,NA,NA,NA,NA,NA,"","","",NA,"i",1,0.4282,NA,NA,NA,NA,NA,"他人","i","",NA,1,14,94,58,1,"",NA,"",NA,NA,NA,NA,NA,NA,NA,"",NA,"",NA,NA,NA,NA,NA,NA,NA,"","","",NA,"",NA,NA,NA,NA,NA,NA,NA,"",NA,"13"
"",NA,"",NA,"",NA,NA,NA,NA,NA,NA,NA,"","",1,1,"2024-08-23_18h48.26.537","IAT(Formal)","2021.2.3","Win32",59.52380952,"",NA,"",NA,NA,NA,NA,NA,NA,NA,"","","",NA,"i",0,0.397,NA,NA,NA,NA,NA,"我们","e","",NA,1,15,95,72,1,"",NA,"",NA,NA,NA,NA,NA,NA,NA,"",NA,"",NA,NA,NA,NA,NA,NA,NA,"","","",NA,"",NA,NA,NA,NA,NA,NA,NA,"",NA,"13"
"",NA,"",NA,"",NA,NA,NA,NA,NA,NA,NA,"","",1,1,"2024-08-23_18h48.26.537","IAT(Formal)","2021.2.3","Win32",59.52380952,"",NA,"",NA,NA,NA,NA,NA,NA,NA,"","","",NA,"i",1,0.575,NA,NA,NA,NA,NA,"他的","i","",NA,1,16,96,7,1,"",NA,"",NA,NA,NA,NA,NA,NA,NA,"",NA,"",NA,NA,NA,NA,NA,NA,NA,"","","",NA,"",NA,NA,NA,NA,NA,NA,NA,"",NA,"13"
"",NA,"",NA,"",NA,NA,NA,NA,NA,NA,NA,"","",1,1,"2024-08-23_18h48.26.537","IAT(Formal)","2021.2.3","Win32",59.52380952,"",NA,"",NA,NA,NA,NA,NA,NA,NA,"","","",NA,"i",1,0.494,NA,NA,NA,NA,NA,"他","i","",NA,1,17,97,5,1,"",NA,"",NA,NA,NA,NA,NA,NA,NA,"",NA,"",NA,NA,NA,NA,NA,NA,NA,"","","",NA,"",NA,NA,NA,NA,NA,NA,NA,"",NA,"13"
"",NA,"",NA,"",NA,NA,NA,NA,NA,NA,NA,"","",1,1,"2024-08-23_18h48.26.537","IAT(Formal)","2021.2.3","Win32",59.52380952,"",NA,"",NA,NA,NA,NA,NA,NA,NA,"","","",NA,"i",1,0.4585,NA,NA,NA,NA,NA,"其他","i","",NA,1,18,98,79,1,"",NA,"",NA,NA,NA,NA,NA,NA,NA,"",NA,"",NA,NA,NA,NA,NA,NA,NA,"","","",NA,"",NA,NA,NA,NA,NA,NA,NA,"",NA,"13"
"",NA,"",NA,"",NA,NA,NA,NA,NA,NA,NA,"","",1,1,"2024-08-23_18h48.26.537","IAT(Formal)","2021.2.3","Win32",59.52380952,"",NA,"",NA,NA,NA,NA,NA,NA,NA,"","","",NA,"i",1,0.7925,NA,NA,NA,NA,NA,"执拗","i","",NA,1,19,99,40,1,"",NA,"",NA,NA,NA,NA,NA,NA,NA,"",NA,"",NA,NA,NA,NA,NA,NA,NA,"","","",NA,"",NA,NA,NA,NA,NA,NA,NA,"",NA,"13"
"",NA,"",NA,"",NA,NA,NA,NA,NA,NA,NA,"","",1,1,"2024-08-23_18h48.26.537","IAT(Formal)","2021.2.3","Win32",59.52380952,"",NA,"",NA,NA,NA,NA,NA,NA,NA,"","","",NA,"i",1,0.6263,NA,NA,NA,NA,NA,"卑鄙","i","",NA,1,20,100,30,1,"",NA,"",NA,NA,NA,NA,NA,NA,NA,"",NA,"",NA,NA,NA,NA,NA,NA,NA,"","","",NA,"",NA,NA,NA,NA,NA,NA,NA,"",NA,"13"
"",NA,"",NA,"",NA,NA,NA,NA,NA,NA,NA,"","",1,1,"2024-08-23_18h48.26.537","IAT(Formal)","2021.2.3","Win32",59.52380952,"",NA,"",NA,NA,NA,NA,NA,NA,NA,"","","",NA,"e",1,0.6194,NA,NA,NA,NA,NA,"机智","e","",NA,1,21,101,19,1,"",NA,"",NA,NA,NA,NA,NA,NA,NA,"",NA,"",NA,NA,NA,NA,NA,NA,NA,"","","",NA,"",NA,NA,NA,NA,NA,NA,NA,"",NA,"13"
"",NA,"",NA,"",NA,NA,NA,NA,NA,NA,NA,"","",1,1,"2024-08-23_18h48.26.537","IAT(Formal)","2021.2.3","Win32",59.52380952,"",NA,"",NA,NA,NA,NA,NA,NA,NA,"","","",NA,"i",1,0.554,NA,NA,NA,NA,NA,"他","i","",NA,1,22,102,75,1,"",NA,"",NA,NA,NA,NA,NA,NA,NA,"",NA,"",NA,NA,NA,NA,NA,NA,NA,"","","",NA,"",NA,NA,NA,NA,NA,NA,NA,"",NA,"13"
"",NA,"",NA,"",NA,NA,NA,NA,NA,NA,NA,"","",1,1,"2024-08-23_18h48.26.537","IAT(Formal)","2021.2.3","Win32",59.52380952,"",NA,"",NA,NA,NA,NA,NA,NA,NA,"","","",NA,"i",1,0.5788,NA,NA,NA,NA,NA,"虚伪","i","",NA,1,23,103,31,1,"",NA,"",NA,NA,NA,NA,NA,NA,NA,"",NA,"",NA,NA,NA,NA,NA,NA,NA,"","","",NA,"",NA,NA,NA,NA,NA,NA,NA,"",NA,"13"
"",NA,"",NA,"",NA,NA,NA,NA,NA,NA,NA,"","",1,1,"2024-08-23_18h48.26.537","IAT(Formal)","2021.2.3","Win32",59.52380952,"",NA,"",NA,NA,NA,NA,NA,NA,NA,"","","",NA,"e",1,0.5348,NA,NA,NA,NA,NA,"我的","e","",NA,1,24,104,61,1,"",NA,"",NA,NA,NA,NA,NA,NA,NA,"",NA,"",NA,NA,NA,NA,NA,NA,NA,"","","",NA,"",NA,NA,NA,NA,NA,NA,NA,"",NA,"13"
"",NA,"",NA,"",NA,NA,NA,NA,NA,NA,NA,"","",1,1,"2024-08-23_18h48.26.537","IAT(Formal)","2021.2.3","Win32",59.52380952,"",NA,"",NA,NA,NA,NA,NA,NA,NA,"","","",NA,"e",1,0.4481,NA,NA,NA,NA,NA,"我的","e","",NA,1,25,105,1,1,"",NA,"",NA,NA,NA,NA,NA,NA,NA,"",NA,"",NA,NA,NA,NA,NA,NA,NA,"","","",NA,"",NA,NA,NA,NA,NA,NA,NA,"",NA,"13"
"",NA,"",NA,"",NA,NA,NA,NA,NA,NA,NA,"","",1,1,"2024-08-23_18h48.26.537","IAT(Formal)","2021.2.3","Win32",59.52380952,"",NA,"",NA,NA,NA,NA,NA,NA,NA,"","","",NA,"i",1,0.5118,NA,NA,NA,NA,NA,"刻薄","i","",NA,1,26,106,33,1,"",NA,"",NA,NA,NA,NA,NA,NA,NA,"",NA,"",NA,NA,NA,NA,NA,NA,NA,"","","",NA,"",NA,NA,NA,NA,NA,NA,NA,"",NA,"13"
"",NA,"",NA,"",NA,NA,NA,NA,NA,NA,NA,"","",1,1,"2024-08-23_18h48.26.537","IAT(Formal)","2021.2.3","Win32",59.52380952,"",NA,"",NA,NA,NA,NA,NA,NA,NA,"","","",NA,"e",1,0.5146,NA,NA,NA,NA,NA,"自己","e","",NA,1,27,107,3,1,"",NA,"",NA,NA,NA,NA,NA,NA,NA,"",NA,"",NA,NA,NA,NA,NA,NA,NA,"","","",NA,"",NA,NA,NA,NA,NA,NA,NA,"",NA,"13"
"",NA,"",NA,"",NA,NA,NA,NA,NA,NA,NA,"","",1,1,"2024-08-23_18h48.26.537","IAT(Formal)","2021.2.3","Win32",59.52380952,"",NA,"",NA,NA,NA,NA,NA,NA,NA,"","","",NA,"e",1,0.4673,NA,NA,NA,NA,NA,"我的","e","",NA,1,28,108,51,1,"",NA,"",NA,NA,NA,NA,NA,NA,NA,"",NA,"",NA,NA,NA,NA,NA,NA,NA,"","","",NA,"",NA,NA,NA,NA,NA,NA,NA,"",NA,"13"
"",NA,"",NA,"",NA,NA,NA,NA,NA,NA,NA,"","",1,1,"2024-08-23_18h48.26.537","IAT(Formal)","2021.2.3","Win32",59.52380952,"",NA,"",NA,NA,NA,NA,NA,NA,NA,"","","",NA,"e",1,0.4813,NA,NA,NA,NA,NA,"我们","e","",NA,1,29,109,52,1,"",NA,"",NA,NA,NA,NA,NA,NA,NA,"",NA,"",NA,NA,NA,NA,NA,NA,NA,"","","",NA,"",NA,NA,NA,NA,NA,NA,NA,"",NA,"13"
"",NA,"",NA,"",NA,NA,NA,NA,NA,NA,NA,"","",1,1,"2024-08-23_18h48.26.537","IAT(Formal)","2021.2.3","Win32",59.52380952,"",NA,"",NA,NA,NA,NA,NA,NA,NA,"","","",NA,"i",0,0.8362,NA,NA,NA,NA,NA,"无私","e","",NA,1,30,110,22,1,"",NA,"",NA,NA,NA,NA,NA,NA,NA,"",NA,"",NA,NA,NA,NA,NA,NA,NA,"","","",NA,"",NA,NA,NA,NA,NA,NA,NA,"",NA,"13"
"",NA,"",NA,"",NA,NA,NA,NA,NA,NA,NA,"","",1,1,"2024-08-23_18h48.26.537","IAT(Formal)","2021.2.3","Win32",59.52380952,"",NA,"",NA,NA,NA,NA,NA,NA,NA,"","","",NA,"i",1,0.5346,NA,NA,NA,NA,NA,"悲观","i","",NA,1,31,111,34,1,"",NA,"",NA,NA,NA,NA,NA,NA,NA,"",NA,"",NA,NA,NA,NA,NA,NA,NA,"","","",NA,"",NA,NA,NA,NA,NA,NA,NA,"",NA,"13"
"",NA,"",NA,"",NA,NA,NA,NA,NA,NA,NA,"","",1,1,"2024-08-23_18h48.26.537","IAT(Formal)","2021.2.3","Win32",59.52380952,"",NA,"",NA,NA,NA,NA,NA,NA,NA,"","","",NA,"e",1,0.5305,NA,NA,NA,NA,NA,"我的","e","",NA,1,32,112,71,1,"",NA,"",NA,NA,NA,NA,NA,NA,NA,"",NA,"",NA,NA,NA,NA,NA,NA,NA,"","","",NA,"",NA,NA,NA,NA,NA,NA,NA,"",NA,"13"
"",NA,"",NA,"",NA,NA,NA,NA,NA,NA,NA,"","",1,1,"2024-08-23_18h48.26.537","IAT(Formal)","2021.2.3","Win32",59.52380952,"",NA,"",NA,NA,NA,NA,NA,NA,NA,"","","",NA,"i",1,0.5522,NA,NA,NA,NA,NA,"下贱","i","",NA,1,33,113,49,1,"",NA,"",NA,NA,NA,NA,NA,NA,NA,"",NA,"",NA,NA,NA,NA,NA,NA,NA,"","","",NA,"",NA,NA,NA,NA,NA,NA,NA,"",NA,"13"
"",NA,"",NA,"",NA,NA,NA,NA,NA,NA,NA,"","",1,1,"2024-08-23_18h48.26.537","IAT(Formal)","2021.2.3","Win32",59.52380952,"",NA,"",NA,NA,NA,NA,NA,NA,NA,"","","",NA,"e",1,0.4648,NA,NA,NA,NA,NA,"我们","e","",NA,1,34,114,62,1,"",NA,"",NA,NA,NA,NA,NA,NA,NA,"",NA,"",NA,NA,NA,NA,NA,NA,NA,"","","",NA,"",NA,NA,NA,NA,NA,NA,NA,"",NA,"13"
"",NA,"",NA,"",NA,NA,NA,NA,NA,NA,NA,"","",1,1,"2024-08-23_18h48.26.537","IAT(Formal)","2021.2.3","Win32",59.52380952,"",NA,"",NA,NA,NA,NA,NA,NA,NA,"","","",NA,"e",1,0.4345,NA,NA,NA,NA,NA,"我","e","",NA,1,35,115,70,1,"",NA,"",NA,NA,NA,NA,NA,NA,NA,"",NA,"",NA,NA,NA,NA,NA,NA,NA,"","","",NA,"",NA,NA,NA,NA,NA,NA,NA,"",NA,"13"
"",NA,"",NA,"",NA,NA,NA,NA,NA,NA,NA,"","",1,1,"2024-08-23_18h48.26.537","IAT(Formal)","2021.2.3","Win32",59.52380952,"",NA,"",NA,NA,NA,NA,NA,NA,NA,"","","",NA,"i",1,0.5203,NA,NA,NA,NA,NA,"鲁莽","i","",NA,1,36,116,38,1,"",NA,"",NA,NA,NA,NA,NA,NA,NA,"",NA,"",NA,NA,NA,NA,NA,NA,NA,"","","",NA,"",NA,NA,NA,NA,NA,NA,NA,"",NA,"13"
"",NA,"",NA,"",NA,NA,NA,NA,NA,NA,NA,"","",1,1,"2024-08-23_18h48.26.537","IAT(Formal)","2021.2.3","Win32",59.52380952,"",NA,"",NA,NA,NA,NA,NA,NA,NA,"","","",NA,"i",1,0.4847,NA,NA,NA,NA,NA,"其他","i","",NA,1,37,117,69,1,"",NA,"",NA,NA,NA,NA,NA,NA,NA,"",NA,"",NA,NA,NA,NA,NA,NA,NA,"","","",NA,"",NA,NA,NA,NA,NA,NA,NA,"",NA,"13"
"",NA,"",NA,"",NA,NA,NA,NA,NA,NA,NA,"","",1,1,"2024-08-23_18h48.26.537","IAT(Formal)","2021.2.3","Win32",59.52380952,"",NA,"",NA,NA,NA,NA,NA,NA,NA,"","","",NA,"i",0,0.5102,NA,NA,NA,NA,NA,"俺","e","",NA,1,38,118,74,1,"",NA,"",NA,NA,NA,NA,NA,NA,NA,"",NA,"",NA,NA,NA,NA,NA,NA,NA,"","","",NA,"",NA,NA,NA,NA,NA,NA,NA,"",NA,"13"
"",NA,"",NA,"",NA,NA,NA,NA,NA,NA,NA,"","",1,1,"2024-08-23_18h48.26.537","IAT(Formal)","2021.2.3","Win32",59.52380952,"",NA,"",NA,NA,NA,NA,NA,NA,NA,"","","",NA,"e",1,0.5465,NA,NA,NA,NA,NA,"崇高","e","",NA,1,39,119,11,1,"",NA,"",NA,NA,NA,NA,NA,NA,NA,"",NA,"",NA,NA,NA,NA,NA,NA,NA,"","","",NA,"",NA,NA,NA,NA,NA,NA,NA,"",NA,"13"
"",NA,"",NA,"",NA,NA,NA,NA,NA,NA,NA,"","",1,1,"2024-08-23_18h48.26.537","IAT(Formal)","2021.2.3","Win32",59.52380952,"",NA,"",NA,NA,NA,NA,NA,NA,NA,"","","",NA,"e",1,0.6256,NA,NA,NA,NA,NA,"诚恳","e","",NA,1,40,120,29,1,"",NA,"",NA,NA,NA,NA,NA,NA,NA,"",NA,"",NA,NA,NA,NA,NA,NA,NA,"","","",NA,"",NA,NA,NA,NA,NA,NA,NA,"",NA,"13"
"",NA,"",NA,"",NA,NA,NA,NA,NA,NA,NA,"","",1,1,"2024-08-23_18h48.26.537","IAT(Formal)","2021.2.3","Win32",59.52380952,"",NA,"",NA,NA,NA,NA,NA,NA,NA,"","","",NA,"e",1,0.5757,NA,NA,NA,NA,NA,"冷静","e","",NA,1,41,121,26,1,"",NA,"",NA,NA,NA,NA,NA,NA,NA,"",NA,"",NA,NA,NA,NA,NA,NA,NA,"","","",NA,"",NA,NA,NA,NA,NA,NA,NA,"",NA,"13"
"",NA,"",NA,"",NA,NA,NA,NA,NA,NA,NA,"","",1,1,"2024-08-23_18h48.26.537","IAT(Formal)","2021.2.3","Win32",59.52380952,"",NA,"",NA,NA,NA,NA,NA,NA,NA,"","","",NA,"e",1,0.4678,NA,NA,NA,NA,NA,"我","e","",NA,1,42,122,60,1,"",NA,"",NA,NA,NA,NA,NA,NA,NA,"",NA,"",NA,NA,NA,NA,NA,NA,NA,"","","",NA,"",NA,NA,NA,NA,NA,NA,NA,"",NA,"13"
"",NA,"",NA,"",NA,NA,NA,NA,NA,NA,NA,"","",1,1,"2024-08-23_18h48.26.537","IAT(Formal)","2021.2.3","Win32",59.52380952,"",NA,"",NA,NA,NA,NA,NA,NA,NA,"","","",NA,"e",1,0.5321,NA,NA,NA,NA,NA,"勇敢","e","",NA,1,43,123,17,1,"",NA,"",NA,NA,NA,NA,NA,NA,NA,"",NA,"",NA,NA,NA,NA,NA,NA,NA,"","","",NA,"",NA,NA,NA,NA,NA,NA,NA,"",NA,"13"
"",NA,"",NA,"",NA,NA,NA,NA,NA,NA,NA,"","",1,1,"2024-08-23_18h48.26.537","IAT(Formal)","2021.2.3","Win32",59.52380952,"",NA,"",NA,NA,NA,NA,NA,NA,NA,"","","",NA,"e",1,0.558,NA,NA,NA,NA,NA,"杰出","e","",NA,1,44,124,13,1,"",NA,"",NA,NA,NA,NA,NA,NA,NA,"",NA,"",NA,NA,NA,NA,NA,NA,NA,"","","",NA,"",NA,NA,NA,NA,NA,NA,NA,"",NA,"13"
"",NA,"",NA,"",NA,NA,NA,NA,NA,NA,NA,"","",1,1,"2024-08-23_18h48.26.537","IAT(Formal)","2021.2.3","Win32",59.52380952,"",NA,"",NA,NA,NA,NA,NA,NA,NA,"","","",NA,"i",1,1.0204,NA,NA,NA,NA,NA,"他的","i","",NA,1,45,125,77,1,"",NA,"",NA,NA,NA,NA,NA,NA,NA,"",NA,"",NA,NA,NA,NA,NA,NA,NA,"","","",NA,"",NA,NA,NA,NA,NA,NA,NA,"",NA,"13"
"",NA,"",NA,"",NA,NA,NA,NA,NA,NA,NA,"","",1,1,"2024-08-23_18h48.26.537","IAT(Formal)","2021.2.3","Win32",59.52380952,"",NA,"",NA,NA,NA,NA,NA,NA,NA,"","","",NA,"i",1,0.4072,NA,NA,NA,NA,NA,"他","i","",NA,1,46,126,65,1,"",NA,"",NA,NA,NA,NA,NA,NA,NA,"",NA,"",NA,NA,NA,NA,NA,NA,NA,"","","",NA,"",NA,NA,NA,NA,NA,NA,NA,"",NA,"13"
"",NA,"",NA,"",NA,NA,NA,NA,NA,NA,NA,"","",1,1,"2024-08-23_18h48.26.537","IAT(Formal)","2021.2.3","Win32",59.52380952,"",NA,"",NA,NA,NA,NA,NA,NA,NA,"","","",NA,"e",1,0.502,NA,NA,NA,NA,NA,"俺","e","",NA,1,47,127,54,1,"",NA,"",NA,NA,NA,NA,NA,NA,NA,"",NA,"",NA,NA,NA,NA,NA,NA,NA,"","","",NA,"",NA,NA,NA,NA,NA,NA,NA,"",NA,"13"
"",NA,"",NA,"",NA,NA,NA,NA,NA,NA,NA,"","",1,1,"2024-08-23_18h48.26.537","IAT(Formal)","2021.2.3","Win32",59.52380952,"",NA,"",NA,NA,NA,NA,NA,NA,NA,"","","",NA,"e",1,0.5096,NA,NA,NA,NA,NA,"乐观","e","",NA,1,48,128,14,1,"",NA,"",NA,NA,NA,NA,NA,NA,NA,"",NA,"",NA,NA,NA,NA,NA,NA,NA,"","","",NA,"",NA,NA,NA,NA,NA,NA,NA,"",NA,"13"
"",NA,"",NA,"",NA,NA,NA,NA,NA,NA,NA,"","",1,1,"2024-08-23_18h48.26.537","IAT(Formal)","2021.2.3","Win32",59.52380952,"",NA,"",NA,NA,NA,NA,NA,NA,NA,"","","",NA,"e",1,0.6359,NA,NA,NA,NA,NA,"我","e","",NA,1,49,129,0,1,"",NA,"",NA,NA,NA,NA,NA,NA,NA,"",NA,"",NA,NA,NA,NA,NA,NA,NA,"","","",NA,"",NA,NA,NA,NA,NA,NA,NA,"",NA,"13"
"",NA,"",NA,"",NA,NA,NA,NA,NA,NA,NA,"","",1,1,"2024-08-23_18h48.26.537","IAT(Formal)","2021.2.3","Win32",59.52380952,"",NA,"",NA,NA,NA,NA,NA,NA,NA,"","","",NA,"e",1,0.5794,NA,NA,NA,NA,NA,"俺","e","",NA,1,50,130,4,1,"",NA,"",NA,NA,NA,NA,NA,NA,NA,"",NA,"",NA,NA,NA,NA,NA,NA,NA,"","","",NA,"",NA,NA,NA,NA,NA,NA,NA,"",NA,"13"
"",NA,"",NA,"",NA,NA,NA,NA,NA,NA,NA,"","",1,1,"2024-08-23_18h48.26.537","IAT(Formal)","2021.2.3","Win32",59.52380952,"",NA,"",NA,NA,NA,NA,NA,NA,NA,"","","",NA,"e",1,0.5541,NA,NA,NA,NA,NA,"公正","e","",NA,1,51,131,23,1,"",NA,"",NA,NA,NA,NA,NA,NA,NA,"",NA,"",NA,NA,NA,NA,NA,NA,NA,"","","",NA,"",NA,NA,NA,NA,NA,NA,NA,"",NA,"13"
"",NA,"",NA,"",NA,NA,NA,NA,NA,NA,NA,"","",1,1,"2024-08-23_18h48.26.537","IAT(Formal)","2021.2.3","Win32",59.52380952,"",NA,"",NA,NA,NA,NA,NA,NA,NA,"","","",NA,"e",1,0.532,NA,NA,NA,NA,NA,"活泼","e","",NA,1,52,132,28,1,"",NA,"",NA,NA,NA,NA,NA,NA,NA,"",NA,"",NA,NA,NA,NA,NA,NA,NA,"","","",NA,"",NA,NA,NA,NA,NA,NA,NA,"",NA,"13"
"",NA,"",NA,"",NA,NA,NA,NA,NA,NA,NA,"","",1,1,"2024-08-23_18h48.26.537","IAT(Formal)","2021.2.3","Win32",59.52380952,"",NA,"",NA,NA,NA,NA,NA,NA,NA,"","","",NA,"i",1,0.5472,NA,NA,NA,NA,NA,"他","i","",NA,1,53,133,55,1,"",NA,"",NA,NA,NA,NA,NA,NA,NA,"",NA,"",NA,NA,NA,NA,NA,NA,NA,"","","",NA,"",NA,NA,NA,NA,NA,NA,NA,"",NA,"13"
"",NA,"",NA,"",NA,NA,NA,NA,NA,NA,NA,"","",1,1,"2024-08-23_18h48.26.537","IAT(Formal)","2021.2.3","Win32",59.52380952,"",NA,"",NA,NA,NA,NA,NA,NA,NA,"","","",NA,"e",1,0.5344,NA,NA,NA,NA,NA,"热情","e","",NA,1,54,134,27,1,"",NA,"",NA,NA,NA,NA,NA,NA,NA,"",NA,"",NA,NA,NA,NA,NA,NA,NA,"","","",NA,"",NA,NA,NA,NA,NA,NA,NA,"",NA,"13"
"",NA,"",NA,"",NA,NA,NA,NA,NA,NA,NA,"","",1,1,"2024-08-23_18h48.26.537","IAT(Formal)","2021.2.3","Win32",59.52380952,"",NA,"",NA,NA,NA,NA,NA,NA,NA,"","","",NA,"e",0,0.4128,NA,NA,NA,NA,NA,"固执","i","",NA,1,55,135,47,1,"",NA,"",NA,NA,NA,NA,NA,NA,NA,"",NA,"",NA,NA,NA,NA,NA,NA,NA,"","","",NA,"",NA,NA,NA,NA,NA,NA,NA,"",NA,"13"
"",NA,"",NA,"",NA,NA,NA,NA,NA,NA,NA,"","",1,1,"2024-08-23_18h48.26.537","IAT(Formal)","2021.2.3","Win32",59.52380952,"",NA,"",NA,NA,NA,NA,NA,NA,NA,"","","",NA,"e",1,0.4677,NA,NA,NA,NA,NA,"稳重","e","",NA,1,56,136,21,1,"",NA,"",NA,NA,NA,NA,NA,NA,NA,"",NA,"",NA,NA,NA,NA,NA,NA,NA,"","","",NA,"",NA,NA,NA,NA,NA,NA,NA,"",NA,"13"
"",NA,"",NA,"",NA,NA,NA,NA,NA,NA,NA,"","",1,1,"2024-08-23_18h48.26.537","IAT(Formal)","2021.2.3","Win32",59.52380952,"",NA,"",NA,NA,NA,NA,NA,NA,NA,"","","",NA,"i",1,0.53,NA,NA,NA,NA,NA,"野蛮","i","",NA,1,57,137,46,1,"",NA,"",NA,NA,NA,NA,NA,NA,NA,"",NA,"",NA,NA,NA,NA,NA,NA,NA,"","","",NA,"",NA,NA,NA,NA,NA,NA,NA,"",NA,"13"
"",NA,"",NA,"",NA,NA,NA,NA,NA,NA,NA,"","",1,1,"2024-08-23_18h48.26.537","IAT(Formal)","2021.2.3","Win32",59.52380952,"",NA,"",NA,NA,NA,NA,NA,NA,NA,"","","",NA,"i",1,0.7064,NA,NA,NA,NA,NA,"他们","i","",NA,1,58,138,56,1,"",NA,"",NA,NA,NA,NA,NA,NA,NA,"",NA,"",NA,NA,NA,NA,NA,NA,NA,"","","",NA,"",NA,NA,NA,NA,NA,NA,NA,"",NA,"13"
"",NA,"",NA,"",NA,NA,NA,NA,NA,NA,NA,"","",1,1,"2024-08-23_18h48.26.537","IAT(Formal)","2021.2.3","Win32",59.52380952,"",NA,"",NA,NA,NA,NA,NA,NA,NA,"","","",NA,"i",1,0.526,NA,NA,NA,NA,NA,"他们","i","",NA,1,59,139,66,1,"",NA,"",NA,NA,NA,NA,NA,NA,NA,"",NA,"",NA,NA,NA,NA,NA,NA,NA,"","","",NA,"",NA,NA,NA,NA,NA,NA,NA,"",NA,"13"
"",NA,"",NA,"",NA,NA,NA,NA,NA,NA,NA,"","",1,1,"2024-08-23_18h48.26.537","IAT(Formal)","2021.2.3","Win32",59.52380952,"",NA,"",NA,NA,NA,NA,NA,NA,NA,"","","",NA,"i",1,0.6083,NA,NA,NA,NA,NA,"自卑","i","",NA,1,60,140,36,1,"",NA,"",NA,NA,NA,NA,NA,NA,NA,"",NA,"",NA,NA,NA,NA,NA,NA,NA,"","","",NA,"",NA,NA,NA,NA,NA,NA,NA,"",NA,"13"
"",NA,"",NA,"",NA,NA,NA,NA,NA,NA,NA,"","",1,1,"2024-08-23_18h48.26.537","IAT(Formal)","2021.2.3","Win32",59.52380952,"",NA,"",NA,NA,NA,NA,NA,NA,NA,"","","",NA,"e",1,0.6134,NA,NA,NA,NA,NA,"我们","e","",NA,1,61,141,2,1,"",NA,"",NA,NA,NA,NA,NA,NA,NA,"",NA,"",NA,NA,NA,NA,NA,NA,NA,"","","",NA,"",NA,NA,NA,NA,NA,NA,NA,"",NA,"13"
"",NA,"",NA,"",NA,NA,NA,NA,NA,NA,NA,"","",1,1,"2024-08-23_18h48.26.537","IAT(Formal)","2021.2.3","Win32",59.52380952,"",NA,"",NA,NA,NA,NA,NA,NA,NA,"","","",NA,"i",1,0.5873,NA,NA,NA,NA,NA,"散漫","i","",NA,1,62,142,41,1,"",NA,"",NA,NA,NA,NA,NA,NA,NA,"",NA,"",NA,NA,NA,NA,NA,NA,NA,"","","",NA,"",NA,NA,NA,NA,NA,NA,NA,"",NA,"13"
"",NA,"",NA,"",NA,NA,NA,NA,NA,NA,NA,"","",1,1,"2024-08-23_18h48.26.537","IAT(Formal)","2021.2.3","Win32",59.52380952,"",NA,"",NA,NA,NA,NA,NA,NA,NA,"","","",NA,"e",1,0.5082,NA,NA,NA,NA,NA,"聪明","e","",NA,1,63,143,12,1,"",NA,"",NA,NA,NA,NA,NA,NA,NA,"",NA,"",NA,NA,NA,NA,NA,NA,NA,"","","",NA,"",NA,NA,NA,NA,NA,NA,NA,"",NA,"13"
"",NA,"",NA,"",NA,NA,NA,NA,NA,NA,NA,"","",1,1,"2024-08-23_18h48.26.537","IAT(Formal)","2021.2.3","Win32",59.52380952,"",NA,"",NA,NA,NA,NA,NA,NA,NA,"","","",NA,"i",1,0.6867,NA,NA,NA,NA,NA,"凶狠","i","",NA,1,64,144,42,1,"",NA,"",NA,NA,NA,NA,NA,NA,NA,"",NA,"",NA,NA,NA,NA,NA,NA,NA,"","","",NA,"",NA,NA,NA,NA,NA,NA,NA,"",NA,"13"
"",NA,"",NA,"",NA,NA,NA,NA,NA,NA,NA,"","",1,1,"2024-08-23_18h48.26.537","IAT(Formal)","2021.2.3","Win32",59.52380952,"",NA,"",NA,NA,NA,NA,NA,NA,NA,"","","",NA,"e",1,0.5348,NA,NA,NA,NA,NA,"正直","e","",NA,1,65,145,16,1,"",NA,"",NA,NA,NA,NA,NA,NA,NA,"",NA,"",NA,NA,NA,NA,NA,NA,NA,"","","",NA,"",NA,NA,NA,NA,NA,NA,NA,"",NA,"13"
"",NA,"",NA,"",NA,NA,NA,NA,NA,NA,NA,"","",1,1,"2024-08-23_18h48.26.537","IAT(Formal)","2021.2.3","Win32",59.52380952,"",NA,"",NA,NA,NA,NA,NA,NA,NA,"","","",NA,"i",1,0.6305,NA,NA,NA,NA,NA,"他的","i","",NA,1,66,146,67,1,"",NA,"",NA,NA,NA,NA,NA,NA,NA,"",NA,"",NA,NA,NA,NA,NA,NA,NA,"","","",NA,"",NA,NA,NA,NA,NA,NA,NA,"",NA,"13"
"",NA,"",NA,"",NA,NA,NA,NA,NA,NA,NA,"","",1,1,"2024-08-23_18h48.26.537","IAT(Formal)","2021.2.3","Win32",59.52380952,"",NA,"",NA,NA,NA,NA,NA,NA,NA,"","","",NA,"e",1,0.5629,NA,NA,NA,NA,NA,"诚实","e","",NA,1,67,147,15,1,"",NA,"",NA,NA,NA,NA,NA,NA,NA,"",NA,"",NA,NA,NA,NA,NA,NA,NA,"","","",NA,"",NA,NA,NA,NA,NA,NA,NA,"",NA,"13"
"",NA,"",NA,"",NA,NA,NA,NA,NA,NA,NA,"","",1,1,"2024-08-23_18h48.26.537","IAT(Formal)","2021.2.3","Win32",59.52380952,"",NA,"",NA,NA,NA,NA,NA,NA,NA,"","","",NA,"e",1,0.5608,NA,NA,NA,NA,NA,"细腻","e","",NA,1,68,148,25,1,"",NA,"",NA,NA,NA,NA,NA,NA,NA,"",NA,"",NA,NA,NA,NA,NA,NA,NA,"","","",NA,"",NA,NA,NA,NA,NA,NA,NA,"",NA,"13"
"",NA,"",NA,"",NA,NA,NA,NA,NA,NA,NA,"","",1,1,"2024-08-23_18h48.26.537","IAT(Formal)","2021.2.3","Win32",59.52380952,"",NA,"",NA,NA,NA,NA,NA,NA,NA,"","","",NA,"e",1,0.5195,NA,NA,NA,NA,NA,"俺","e","",NA,1,69,149,64,1,"",NA,"",NA,NA,NA,NA,NA,NA,NA,"",NA,"",NA,NA,NA,NA,NA,NA,NA,"","","",NA,"",NA,NA,NA,NA,NA,NA,NA,"",NA,"13"
"",NA,"",NA,"",NA,NA,NA,NA,NA,NA,NA,"","",1,1,"2024-08-23_18h48.26.537","IAT(Formal)","2021.2.3","Win32",59.52380952,"",NA,"",NA,NA,NA,NA,NA,NA,NA,"","","",NA,"i",1,0.801,NA,NA,NA,NA,NA,"他人","i","",NA,1,70,150,8,1,"",NA,"",NA,NA,NA,NA,NA,NA,NA,"",NA,"",NA,NA,NA,NA,NA,NA,NA,"","","",NA,"",NA,NA,NA,NA,NA,NA,NA,"",NA,"13"
"",NA,"",NA,"",NA,NA,NA,NA,NA,NA,NA,"","",1,1,"2024-08-23_18h48.26.537","IAT(Formal)","2021.2.3","Win32",59.52380952,"",NA,"",NA,NA,NA,NA,NA,NA,NA,"","","",NA,"i",1,0.6759,NA,NA,NA,NA,NA,"愚蠢","i","",NA,1,71,151,32,1,"",NA,"",NA,NA,NA,NA,NA,NA,NA,"",NA,"",NA,NA,NA,NA,NA,NA,NA,"","","",NA,"",NA,NA,NA,NA,NA,NA,NA,"",NA,"13"
"",NA,"",NA,"",NA,NA,NA,NA,NA,NA,NA,"","",1,1,"2024-08-23_18h48.26.537","IAT(Formal)","2021.2.3","Win32",59.52380952,"",NA,"",NA,NA,NA,NA,NA,NA,NA,"","","",NA,"i",1,0.4496,NA,NA,NA,NA,NA,"消极","i","",NA,1,72,152,35,1,"",NA,"",NA,NA,NA,NA,NA,NA,NA,"",NA,"",NA,NA,NA,NA,NA,NA,NA,"","","",NA,"",NA,NA,NA,NA,NA,NA,NA,"",NA,"13"
"",NA,"",NA,"",NA,NA,NA,NA,NA,NA,NA,"","",1,1,"2024-08-23_18h48.26.537","IAT(Formal)","2021.2.3","Win32",59.52380952,"",NA,"",NA,NA,NA,NA,NA,NA,NA,"","","",NA,"i",1,0.5511,NA,NA,NA,NA,NA,"他人","i","",NA,1,73,153,68,1,"",NA,"",NA,NA,NA,NA,NA,NA,NA,"",NA,"",NA,NA,NA,NA,NA,NA,NA,"","","",NA,"",NA,NA,NA,NA,NA,NA,NA,"",NA,"13"
"",NA,"",NA,"",NA,NA,NA,NA,NA,NA,NA,"","",1,1,"2024-08-23_18h48.26.537","IAT(Formal)","2021.2.3","Win32",59.52380952,"",NA,"",NA,NA,NA,NA,NA,NA,NA,"","","",NA,"i",1,0.5015,NA,NA,NA,NA,NA,"冒失","i","",NA,1,74,154,39,1,"",NA,"",NA,NA,NA,NA,NA,NA,NA,"",NA,"",NA,NA,NA,NA,NA,NA,NA,"","","",NA,"",NA,NA,NA,NA,NA,NA,NA,"",NA,"13"
"",NA,"",NA,"",NA,NA,NA,NA,NA,NA,NA,"","",1,1,"2024-08-23_18h48.26.537","IAT(Formal)","2021.2.3","Win32",59.52380952,"",NA,"",NA,NA,NA,NA,NA,NA,NA,"","","",NA,"i",1,0.4784,NA,NA,NA,NA,NA,"猖狂","i","",NA,1,75,155,45,1,"",NA,"",NA,NA,NA,NA,NA,NA,NA,"",NA,"",NA,NA,NA,NA,NA,NA,NA,"","","",NA,"",NA,NA,NA,NA,NA,NA,NA,"",NA,"13"
"",NA,"",NA,"",NA,NA,NA,NA,NA,NA,NA,"","",1,1,"2024-08-23_18h48.26.537","IAT(Formal)","2021.2.3","Win32",59.52380952,"",NA,"",NA,NA,NA,NA,NA,NA,NA,"","","",NA,"e",1,0.568,NA,NA,NA,NA,NA,"朴实","e","",NA,1,76,156,24,1,"",NA,"",NA,NA,NA,NA,NA,NA,NA,"",NA,"",NA,NA,NA,NA,NA,NA,NA,"","","",NA,"",NA,NA,NA,NA,NA,NA,NA,"",NA,"13"
"",NA,"",NA,"",NA,NA,NA,NA,NA,NA,NA,"","",1,1,"2024-08-23_18h48.26.537","IAT(Formal)","2021.2.3","Win32",59.52380952,"",NA,"",NA,NA,NA,NA,NA,NA,NA,"","","",NA,"i",1,0.5055,NA,NA,NA,NA,NA,"他人","i","",NA,1,77,157,78,1,"",NA,"",NA,NA,NA,NA,NA,NA,NA,"",NA,"",NA,NA,NA,NA,NA,NA,NA,"","","",NA,"",NA,NA,NA,NA,NA,NA,NA,"",NA,"13"
"",NA,"",NA,"",NA,NA,NA,NA,NA,NA,NA,"","",1,1,"2024-08-23_18h48.26.537","IAT(Formal)","2021.2.3","Win32",59.52380952,"",NA,"",NA,NA,NA,NA,NA,NA,NA,"","","",NA,"e",1,0.4794,NA,NA,NA,NA,NA,"认真","e","",NA,1,78,158,20,1,"",NA,"",NA,NA,NA,NA,NA,NA,NA,"",NA,"",NA,NA,NA,NA,NA,NA,NA,"","","",NA,"",NA,NA,NA,NA,NA,NA,NA,"",NA,"13"
"",NA,"",NA,"",NA,NA,NA,NA,NA,NA,NA,"","",1,1,"2024-08-23_18h48.26.537","IAT(Formal)","2021.2.3","Win32",59.52380952,"",NA,"",NA,NA,NA,NA,NA,NA,NA,"","","",NA,"e",1,0.4579,NA,NA,NA,NA,NA,"自己","e","",NA,1,79,159,63,1,"",NA,"",NA,NA,NA,NA,NA,NA,NA,"",NA,"",NA,NA,NA,NA,NA,NA,NA,"","","",NA,"",NA,NA,NA,NA,NA,NA,NA,"",NA,"13"
"",NA,"",NA,"",NA,NA,NA,NA,NA,NA,NA,"他们","e",1,1,"2024-08-23_18h48.26.537","IAT(Formal)","2021.2.3","Win32",59.52380952,"",NA,"",NA,NA,NA,NA,NA,NA,NA,"","","",NA,"",NA,NA,NA,NA,NA,NA,NA,"","","",NA,NA,NA,NA,NA,NA,"space",7.4869,"e",1,0.6281,0,0,0,6,1,"",NA,"",NA,NA,NA,NA,NA,NA,NA,"","","",NA,"",NA,NA,NA,NA,NA,NA,NA,"",NA,"13"
"",NA,"",NA,"",NA,NA,NA,NA,NA,NA,NA,"我的","i",1,1,"2024-08-23_18h48.26.537","IAT(Formal)","2021.2.3","Win32",59.52380952,"",NA,"",NA,NA,NA,NA,NA,NA,NA,"","","",NA,"",NA,NA,NA,NA,NA,NA,NA,"","","",NA,NA,NA,NA,NA,NA,"",NA,"i",1,0.7245,0,1,1,1,1,"",NA,"",NA,NA,NA,NA,NA,NA,NA,"","","",NA,"",NA,NA,NA,NA,NA,NA,NA,"",NA,"13"
"",NA,"",NA,"",NA,NA,NA,NA,NA,NA,NA,"他人","e",1,1,"2024-08-23_18h48.26.537","IAT(Formal)","2021.2.3","Win32",59.52380952,"",NA,"",NA,NA,NA,NA,NA,NA,NA,"","","",NA,"",NA,NA,NA,NA,NA,NA,NA,"","","",NA,NA,NA,NA,NA,NA,"",NA,"e",1,0.4126,0,2,2,8,1,"",NA,"",NA,NA,NA,NA,NA,NA,NA,"","","",NA,"",NA,NA,NA,NA,NA,NA,NA,"",NA,"13"
"",NA,"",NA,"",NA,NA,NA,NA,NA,NA,NA,"他","e",1,1,"2024-08-23_18h48.26.537","IAT(Formal)","2021.2.3","Win32",59.52380952,"",NA,"",NA,NA,NA,NA,NA,NA,NA,"","","",NA,"",NA,NA,NA,NA,NA,NA,NA,"","","",NA,NA,NA,NA,NA,NA,"",NA,"e",1,0.4767,0,3,3,5,1,"",NA,"",NA,NA,NA,NA,NA,NA,NA,"","","",NA,"",NA,NA,NA,NA,NA,NA,NA,"",NA,"13"
"",NA,"",NA,"",NA,NA,NA,NA,NA,NA,NA,"其他","e",1,1,"2024-08-23_18h48.26.537","IAT(Formal)","2021.2.3","Win32",59.52380952,"",NA,"",NA,NA,NA,NA,NA,NA,NA,"","","",NA,"",NA,NA,NA,NA,NA,NA,NA,"","","",NA,NA,NA,NA,NA,NA,"",NA,"e",1,0.5472,0,4,4,9,1,"",NA,"",NA,NA,NA,NA,NA,NA,NA,"","","",NA,"",NA,NA,NA,NA,NA,NA,NA,"",NA,"13"
"",NA,"",NA,"",NA,NA,NA,NA,NA,NA,NA,"自己","i",1,1,"2024-08-23_18h48.26.537","IAT(Formal)","2021.2.3","Win32",59.52380952,"",NA,"",NA,NA,NA,NA,NA,NA,NA,"","","",NA,"",NA,NA,NA,NA,NA,NA,NA,"","","",NA,NA,NA,NA,NA,NA,"",NA,"i",1,0.6156,0,5,5,3,1,"",NA,"",NA,NA,NA,NA,NA,NA,NA,"","","",NA,"",NA,NA,NA,NA,NA,NA,NA,"",NA,"13"
"",NA,"",NA,"",NA,NA,NA,NA,NA,NA,NA,"我们","i",1,1,"2024-08-23_18h48.26.537","IAT(Formal)","2021.2.3","Win32",59.52380952,"",NA,"",NA,NA,NA,NA,NA,NA,NA,"","","",NA,"",NA,NA,NA,NA,NA,NA,NA,"","","",NA,NA,NA,NA,NA,NA,"",NA,"i",1,0.5044,0,6,6,2,1,"",NA,"",NA,NA,NA,NA,NA,NA,NA,"","","",NA,"",NA,NA,NA,NA,NA,NA,NA,"",NA,"13"
"",NA,"",NA,"",NA,NA,NA,NA,NA,NA,NA,"他的","e",1,1,"2024-08-23_18h48.26.537","IAT(Formal)","2021.2.3","Win32",59.52380952,"",NA,"",NA,NA,NA,NA,NA,NA,NA,"","","",NA,"",NA,NA,NA,NA,NA,NA,NA,"","","",NA,NA,NA,NA,NA,NA,"",NA,"e",1,0.6022,0,7,7,7,1,"",NA,"",NA,NA,NA,NA,NA,NA,NA,"","","",NA,"",NA,NA,NA,NA,NA,NA,NA,"",NA,"13"
"",NA,"",NA,"",NA,NA,NA,NA,NA,NA,NA,"我","i",1,1,"2024-08-23_18h48.26.537","IAT(Formal)","2021.2.3","Win32",59.52380952,"",NA,"",NA,NA,NA,NA,NA,NA,NA,"","","",NA,"",NA,NA,NA,NA,NA,NA,NA,"","","",NA,NA,NA,NA,NA,NA,"",NA,"i",1,0.5021,0,8,8,0,1,"",NA,"",NA,NA,NA,NA,NA,NA,NA,"","","",NA,"",NA,NA,NA,NA,NA,NA,NA,"",NA,"13"
"",NA,"",NA,"",NA,NA,NA,NA,NA,NA,NA,"俺","i",1,1,"2024-08-23_18h48.26.537","IAT(Formal)","2021.2.3","Win32",59.52380952,"",NA,"",NA,NA,NA,NA,NA,NA,NA,"","","",NA,"",NA,NA,NA,NA,NA,NA,NA,"","","",NA,NA,NA,NA,NA,NA,"",NA,"e",0,0.452,0,9,9,4,1,"",NA,"",NA,NA,NA,NA,NA,NA,NA,"","","",NA,"",NA,NA,NA,NA,NA,NA,NA,"",NA,"13"
"",NA,"",NA,"",NA,NA,NA,NA,NA,NA,NA,"","",1,1,"2024-08-23_18h48.26.537","IAT(Formal)","2021.2.3","Win32",59.52380952,"",NA,"",NA,NA,NA,NA,NA,NA,NA,"","","",NA,"",NA,NA,NA,NA,NA,NA,NA,"","","",NA,NA,NA,NA,NA,NA,"",NA,"",NA,NA,NA,NA,NA,NA,NA,"space",8.8587,"e",1,0.5327,0,0,0,65,1,"他","e","",NA,"",NA,NA,NA,NA,NA,NA,NA,"",NA,"13"
"",NA,"",NA,"",NA,NA,NA,NA,NA,NA,NA,"","",1,1,"2024-08-23_18h48.26.537","IAT(Formal)","2021.2.3","Win32",59.52380952,"",NA,"",NA,NA,NA,NA,NA,NA,NA,"","","",NA,"",NA,NA,NA,NA,NA,NA,NA,"","","",NA,NA,NA,NA,NA,NA,"",NA,"",NA,NA,NA,NA,NA,NA,NA,"",NA,"e",1,0.4625,0,1,1,77,1,"他的","e","",NA,"",NA,NA,NA,NA,NA,NA,NA,"",NA,"13"
"",NA,"",NA,"",NA,NA,NA,NA,NA,NA,NA,"","",1,1,"2024-08-23_18h48.26.537","IAT(Formal)","2021.2.3","Win32",59.52380952,"",NA,"",NA,NA,NA,NA,NA,NA,NA,"","","",NA,"",NA,NA,NA,NA,NA,NA,NA,"","","",NA,NA,NA,NA,NA,NA,"",NA,"",NA,NA,NA,NA,NA,NA,NA,"",NA,"i",1,0.5396,0,2,2,60,1,"我","i","",NA,"",NA,NA,NA,NA,NA,NA,NA,"",NA,"13"
"",NA,"",NA,"",NA,NA,NA,NA,NA,NA,NA,"","",1,1,"2024-08-23_18h48.26.537","IAT(Formal)","2021.2.3","Win32",59.52380952,"",NA,"",NA,NA,NA,NA,NA,NA,NA,"","","",NA,"",NA,NA,NA,NA,NA,NA,NA,"","","",NA,NA,NA,NA,NA,NA,"",NA,"",NA,NA,NA,NA,NA,NA,NA,"",NA,"i",1,0.4819,0,3,3,74,1,"俺","i","",NA,"",NA,NA,NA,NA,NA,NA,NA,"",NA,"13"
"",NA,"",NA,"",NA,NA,NA,NA,NA,NA,NA,"","",1,1,"2024-08-23_18h48.26.537","IAT(Formal)","2021.2.3","Win32",59.52380952,"",NA,"",NA,NA,NA,NA,NA,NA,NA,"","","",NA,"",NA,NA,NA,NA,NA,NA,NA,"","","",NA,NA,NA,NA,NA,NA,"",NA,"",NA,NA,NA,NA,NA,NA,NA,"",NA,"i",1,0.4805,0,4,4,51,1,"我的","i","",NA,"",NA,NA,NA,NA,NA,NA,NA,"",NA,"13"
