﻿Instruction1.keys,Instruction1.rt,Instruction2.keys,Instruction2.rt,key_resp_iso.keys,key_resp_iso.corr,key_resp_iso.rt,Practice_01.thisRepN,Practice_01.thisTrialN,Practice_01.thisN,Practice_01.thisIndex,Practice_01.ran,Words,ans,participant,session,date,expName,psychopyVersion,OS,frameRate,key_resp_3.keys,key_resp_3.rt,key_resp_ipn.keys,key_resp_ipn.corr,key_resp_ipn.rt,Practice_02.thisRepN,Practice_02.thisTrialN,Practice_02.thisN,Practice_02.thisIndex,Practice_02.ran,Words_ipn,ans_ipn,key_resp_4.keys,key_resp_4.rt,key_resp_t1.keys,key_resp_t1.corr,key_resp_t1.rt,Practice_T1.thisRepN,Practice_T1.thisTrialN,Practice_T1.thisN,Practice_T1.thisIndex,Practice_T1.ran,Words_t1,ans_t1,key_resp_5.keys,key_resp_5.rt,Formal_T1.thisRepN,Formal_T1.thisTrialN,Formal_T1.thisN,Formal_T1.thisIndex,Formal_T1.ran,key_resp_6.keys,key_resp_6.rt,key_resp_iso_reverse.keys,key_resp_iso_reverse.corr,key_resp_iso_reverse.rt,Practice_iso_Reverse.thisRepN,Practice_iso_Reverse.thisTrialN,Practice_iso_Reverse.thisN,Practice_iso_Reverse.thisIndex,Practice_iso_Reverse.ran,key_resp_7.keys,key_resp_7.rt,key_resp_t2_Practice.keys,key_resp_t2_Practice.corr,key_resp_t2_Practice.rt,Practice_t2_Reverse.thisRepN,Practice_t2_Reverse.thisTrialN,Practice_t2_Reverse.thisN,Practice_t2_Reverse.thisIndex,Practice_t2_Reverse.ran,Words_t2,ans_t2,key_resp_8.keys,key_resp_8.rt,key_resp_t2.keys,key_resp_t2.corr,key_resp_t2.rt,Formal_t2_reverse.thisRepN,Formal_t2_reverse.thisTrialN,Formal_t2_reverse.thisN,Formal_t2_reverse.thisIndex,Formal_t2_reverse.ran,key_instruct.keys,key_instruct.rt
space,2.2685,space,5.2932,e,1,0.6093,0,0,0,2,1,我们,e,1,001,2024-08-23_19h38.02.637,IAT(Formal),2021.2.3,Win32,120.875136,,,,,,,,,,,,,,,,,,,,,,,,,,,,,,,,,,,,,,,,,,,,,,,,,,,,,,,,,,,,,,,,,
,,,,e,1,0.4259,0,1,1,1,1,我的,e,1,001,2024-08-23_19h38.02.637,IAT(Formal),2021.2.3,Win32,120.875136,,,,,,,,,,,,,,,,,,,,,,,,,,,,,,,,,,,,,,,,,,,,,,,,,,,,,,,,,,,,,,,,,
,,,,i,1,0.3575,0,2,2,5,1,他,i,1,001,2024-08-23_19h38.02.637,IAT(Formal),2021.2.3,Win32,120.875136,,,,,,,,,,,,,,,,,,,,,,,,,,,,,,,,,,,,,,,,,,,,,,,,,,,,,,,,,,,,,,,,,
,,,,i,1,0.5414,0,3,3,9,1,其他,i,1,001,2024-08-23_19h38.02.637,IAT(Formal),2021.2.3,Win32,120.875136,,,,,,,,,,,,,,,,,,,,,,,,,,,,,,,,,,,,,,,,,,,,,,,,,,,,,,,,,,,,,,,,,
,,,,e,1,0.6144,0,4,4,4,1,俺,e,1,001,2024-08-23_19h38.02.637,IAT(Formal),2021.2.3,Win32,120.875136,,,,,,,,,,,,,,,,,,,,,,,,,,,,,,,,,,,,,,,,,,,,,,,,,,,,,,,,,,,,,,,,,
,,,,i,1,0.5172,0,5,5,8,1,他人,i,1,001,2024-08-23_19h38.02.637,IAT(Formal),2021.2.3,Win32,120.875136,,,,,,,,,,,,,,,,,,,,,,,,,,,,,,,,,,,,,,,,,,,,,,,,,,,,,,,,,,,,,,,,,
,,,,e,1,0.5159,0,6,6,0,1,我,e,1,001,2024-08-23_19h38.02.637,IAT(Formal),2021.2.3,Win32,120.875136,,,,,,,,,,,,,,,,,,,,,,,,,,,,,,,,,,,,,,,,,,,,,,,,,,,,,,,,,,,,,,,,,
,,,,e,1,0.4761,0,7,7,3,1,自己,e,1,001,2024-08-23_19h38.02.637,IAT(Formal),2021.2.3,Win32,120.875136,,,,,,,,,,,,,,,,,,,,,,,,,,,,,,,,,,,,,,,,,,,,,,,,,,,,,,,,,,,,,,,,,
,,,,i,1,0.4004,0,8,8,7,1,他的,i,1,001,2024-08-23_19h38.02.637,IAT(Formal),2021.2.3,Win32,120.875136,,,,,,,,,,,,,,,,,,,,,,,,,,,,,,,,,,,,,,,,,,,,,,,,,,,,,,,,,,,,,,,,,
,,,,i,1,0.3799,0,9,9,6,1,他们,i,1,001,2024-08-23_19h38.02.637,IAT(Formal),2021.2.3,Win32,120.875136,,,,,,,,,,,,,,,,,,,,,,,,,,,,,,,,,,,,,,,,,,,,,,,,,,,,,,,,,,,,,,,,,
,,,,,,,,,,,,,,1,001,2024-08-23_19h38.02.637,IAT(Formal),2021.2.3,Win32,120.875136,space,4.5392,e,1,0.6115,0,0,0,1,1,崇高,e,,,,,,,,,,,,,,,,,,,,,,,,,,,,,,,,,,,,,,,,,,,,,,,,,,,,,
,,,,,,,,,,,,,,1,001,2024-08-23_19h38.02.637,IAT(Formal),2021.2.3,Win32,120.875136,,,i,1,0.9961,0,1,1,22,1,愚蠢,i,,,,,,,,,,,,,,,,,,,,,,,,,,,,,,,,,,,,,,,,,,,,,,,,,,,,,
,,,,,,,,,,,,,,1,001,2024-08-23_19h38.02.637,IAT(Formal),2021.2.3,Win32,120.875136,,,e,1,1.4714,0,2,2,16,1,冷静,e,,,,,,,,,,,,,,,,,,,,,,,,,,,,,,,,,,,,,,,,,,,,,,,,,,,,,
,,,,,,,,,,,,,,1,001,2024-08-23_19h38.02.637,IAT(Formal),2021.2.3,Win32,120.875136,,,e,1,0.5357,0,3,3,10,1,认真,e,,,,,,,,,,,,,,,,,,,,,,,,,,,,,,,,,,,,,,,,,,,,,,,,,,,,,
,,,,,,,,,,,,,,1,001,2024-08-23_19h38.02.637,IAT(Formal),2021.2.3,Win32,120.875136,,,e,1,0.8271,0,4,4,7,1,勇敢,e,,,,,,,,,,,,,,,,,,,,,,,,,,,,,,,,,,,,,,,,,,,,,,,,,,,,,
,,,,,,,,,,,,,,1,001,2024-08-23_19h38.02.637,IAT(Formal),2021.2.3,Win32,120.875136,,,i,1,0.6821,0,5,5,23,1,刻薄,i,,,,,,,,,,,,,,,,,,,,,,,,,,,,,,,,,,,,,,,,,,,,,,,,,,,,,
,,,,,,,,,,,,,,1,001,2024-08-23_19h38.02.637,IAT(Formal),2021.2.3,Win32,120.875136,,,e,1,0.509,0,6,6,8,1,勤奋,e,,,,,,,,,,,,,,,,,,,,,,,,,,,,,,,,,,,,,,,,,,,,,,,,,,,,,
,,,,,,,,,,,,,,1,001,2024-08-23_19h38.02.637,IAT(Formal),2021.2.3,Win32,120.875136,,,i,1,0.5796,0,7,7,38,1,轻率,i,,,,,,,,,,,,,,,,,,,,,,,,,,,,,,,,,,,,,,,,,,,,,,,,,,,,,
,,,,,,,,,,,,,,1,001,2024-08-23_19h38.02.637,IAT(Formal),2021.2.3,Win32,120.875136,,,e,1,0.5174,0,8,8,19,1,诚恳,e,,,,,,,,,,,,,,,,,,,,,,,,,,,,,,,,,,,,,,,,,,,,,,,,,,,,,
,,,,,,,,,,,,,,1,001,2024-08-23_19h38.02.637,IAT(Formal),2021.2.3,Win32,120.875136,,,e,1,1.1288,0,9,9,12,1,无私,e,,,,,,,,,,,,,,,,,,,,,,,,,,,,,,,,,,,,,,,,,,,,,,,,,,,,,
,,,,,,,,,,,,,,1,001,2024-08-23_19h38.02.637,IAT(Formal),2021.2.3,Win32,120.875136,,,i,1,0.5746,0,10,10,32,1,凶狠,i,,,,,,,,,,,,,,,,,,,,,,,,,,,,,,,,,,,,,,,,,,,,,,,,,,,,,
,,,,,,,,,,,,,,1,001,2024-08-23_19h38.02.637,IAT(Formal),2021.2.3,Win32,120.875136,,,e,1,0.4614,0,11,11,6,1,正直,e,,,,,,,,,,,,,,,,,,,,,,,,,,,,,,,,,,,,,,,,,,,,,,,,,,,,,
,,,,,,,,,,,,,,1,001,2024-08-23_19h38.02.637,IAT(Formal),2021.2.3,Win32,120.875136,,,i,1,0.5991,0,12,12,25,1,消极,i,,,,,,,,,,,,,,,,,,,,,,,,,,,,,,,,,,,,,,,,,,,,,,,,,,,,,
,,,,,,,,,,,,,,1,001,2024-08-23_19h38.02.637,IAT(Formal),2021.2.3,Win32,120.875136,,,e,1,0.549,0,13,13,9,1,机智,e,,,,,,,,,,,,,,,,,,,,,,,,,,,,,,,,,,,,,,,,,,,,,,,,,,,,,
,,,,,,,,,,,,,,1,001,2024-08-23_19h38.02.637,IAT(Formal),2021.2.3,Win32,120.875136,,,i,1,0.5795,0,14,14,28,1,鲁莽,i,,,,,,,,,,,,,,,,,,,,,,,,,,,,,,,,,,,,,,,,,,,,,,,,,,,,,
,,,,,,,,,,,,,,1,001,2024-08-23_19h38.02.637,IAT(Formal),2021.2.3,Win32,120.875136,,,e,1,0.4668,0,15,15,13,1,公正,e,,,,,,,,,,,,,,,,,,,,,,,,,,,,,,,,,,,,,,,,,,,,,,,,,,,,,
,,,,,,,,,,,,,,1,001,2024-08-23_19h38.02.637,IAT(Formal),2021.2.3,Win32,120.875136,,,i,1,0.4713,0,16,16,31,1,散漫,i,,,,,,,,,,,,,,,,,,,,,,,,,,,,,,,,,,,,,,,,,,,,,,,,,,,,,
,,,,,,,,,,,,,,1,001,2024-08-23_19h38.02.637,IAT(Formal),2021.2.3,Win32,120.875136,,,i,1,0.6724,0,17,17,24,1,悲观,i,,,,,,,,,,,,,,,,,,,,,,,,,,,,,,,,,,,,,,,,,,,,,,,,,,,,,
,,,,,,,,,,,,,,1,001,2024-08-23_19h38.02.637,IAT(Formal),2021.2.3,Win32,120.875136,,,i,1,0.8297,0,18,18,29,1,冒失,i,,,,,,,,,,,,,,,,,,,,,,,,,,,,,,,,,,,,,,,,,,,,,,,,,,,,,
,,,,,,,,,,,,,,1,001,2024-08-23_19h38.02.637,IAT(Formal),2021.2.3,Win32,120.875136,,,i,1,0.508,0,19,19,26,1,自卑,i,,,,,,,,,,,,,,,,,,,,,,,,,,,,,,,,,,,,,,,,,,,,,,,,,,,,,
,,,,,,,,,,,,,,1,001,2024-08-23_19h38.02.637,IAT(Formal),2021.2.3,Win32,120.875136,,,i,1,0.5344,0,20,20,35,1,猖狂,i,,,,,,,,,,,,,,,,,,,,,,,,,,,,,,,,,,,,,,,,,,,,,,,,,,,,,
,,,,,,,,,,,,,,1,001,2024-08-23_19h38.02.637,IAT(Formal),2021.2.3,Win32,120.875136,,,i,1,0.7044,0,21,21,37,1,固执,i,,,,,,,,,,,,,,,,,,,,,,,,,,,,,,,,,,,,,,,,,,,,,,,,,,,,,
,,,,,,,,,,,,,,1,001,2024-08-23_19h38.02.637,IAT(Formal),2021.2.3,Win32,120.875136,,,i,1,0.5928,0,22,22,36,1,野蛮,i,,,,,,,,,,,,,,,,,,,,,,,,,,,,,,,,,,,,,,,,,,,,,,,,,,,,,
,,,,,,,,,,,,,,1,001,2024-08-23_19h38.02.637,IAT(Formal),2021.2.3,Win32,120.875136,,,i,1,0.4046,0,23,23,39,1,下贱,i,,,,,,,,,,,,,,,,,,,,,,,,,,,,,,,,,,,,,,,,,,,,,,,,,,,,,
,,,,,,,,,,,,,,1,001,2024-08-23_19h38.02.637,IAT(Formal),2021.2.3,Win32,120.875136,,,e,1,0.4923,0,24,24,2,1,聪明,e,,,,,,,,,,,,,,,,,,,,,,,,,,,,,,,,,,,,,,,,,,,,,,,,,,,,,
,,,,,,,,,,,,,,1,001,2024-08-23_19h38.02.637,IAT(Formal),2021.2.3,Win32,120.875136,,,i,0,0.6297,0,25,25,15,1,细腻,e,,,,,,,,,,,,,,,,,,,,,,,,,,,,,,,,,,,,,,,,,,,,,,,,,,,,,
,,,,,,,,,,,,,,1,001,2024-08-23_19h38.02.637,IAT(Formal),2021.2.3,Win32,120.875136,,,i,1,0.5063,0,26,26,30,1,执拗,i,,,,,,,,,,,,,,,,,,,,,,,,,,,,,,,,,,,,,,,,,,,,,,,,,,,,,
,,,,,,,,,,,,,,1,001,2024-08-23_19h38.02.637,IAT(Formal),2021.2.3,Win32,120.875136,,,e,1,0.538,0,27,27,18,1,活泼,e,,,,,,,,,,,,,,,,,,,,,,,,,,,,,,,,,,,,,,,,,,,,,,,,,,,,,
,,,,,,,,,,,,,,1,001,2024-08-23_19h38.02.637,IAT(Formal),2021.2.3,Win32,120.875136,,,i,1,0.5143,0,28,28,21,1,虚伪,i,,,,,,,,,,,,,,,,,,,,,,,,,,,,,,,,,,,,,,,,,,,,,,,,,,,,,
,,,,,,,,,,,,,,1,001,2024-08-23_19h38.02.637,IAT(Formal),2021.2.3,Win32,120.875136,,,e,1,0.563,0,29,29,11,1,稳重,e,,,,,,,,,,,,,,,,,,,,,,,,,,,,,,,,,,,,,,,,,,,,,,,,,,,,,
,,,,,,,,,,,,,,1,001,2024-08-23_19h38.02.637,IAT(Formal),2021.2.3,Win32,120.875136,,,e,1,0.6747,0,30,30,3,1,杰出,e,,,,,,,,,,,,,,,,,,,,,,,,,,,,,,,,,,,,,,,,,,,,,,,,,,,,,
,,,,,,,,,,,,,,1,001,2024-08-23_19h38.02.637,IAT(Formal),2021.2.3,Win32,120.875136,,,e,1,0.4437,0,31,31,5,1,诚实,e,,,,,,,,,,,,,,,,,,,,,,,,,,,,,,,,,,,,,,,,,,,,,,,,,,,,,
,,,,,,,,,,,,,,1,001,2024-08-23_19h38.02.637,IAT(Formal),2021.2.3,Win32,120.875136,,,i,1,0.4689,0,32,32,34,1,暴躁,i,,,,,,,,,,,,,,,,,,,,,,,,,,,,,,,,,,,,,,,,,,,,,,,,,,,,,
,,,,,,,,,,,,,,1,001,2024-08-23_19h38.02.637,IAT(Formal),2021.2.3,Win32,120.875136,,,i,0,0.4791,0,33,33,14,1,朴实,e,,,,,,,,,,,,,,,,,,,,,,,,,,,,,,,,,,,,,,,,,,,,,,,,,,,,,
,,,,,,,,,,,,,,1,001,2024-08-23_19h38.02.637,IAT(Formal),2021.2.3,Win32,120.875136,,,e,1,0.632,0,34,34,4,1,乐观,e,,,,,,,,,,,,,,,,,,,,,,,,,,,,,,,,,,,,,,,,,,,,,,,,,,,,,
,,,,,,,,,,,,,,1,001,2024-08-23_19h38.02.637,IAT(Formal),2021.2.3,Win32,120.875136,,,i,1,0.7013,0,35,35,27,1,傲慢,i,,,,,,,,,,,,,,,,,,,,,,,,,,,,,,,,,,,,,,,,,,,,,,,,,,,,,
,,,,,,,,,,,,,,1,001,2024-08-23_19h38.02.637,IAT(Formal),2021.2.3,Win32,120.875136,,,e,1,0.43,0,36,36,17,1,热情,e,,,,,,,,,,,,,,,,,,,,,,,,,,,,,,,,,,,,,,,,,,,,,,,,,,,,,
,,,,,,,,,,,,,,1,001,2024-08-23_19h38.02.637,IAT(Formal),2021.2.3,Win32,120.875136,,,i,1,0.5313,0,37,37,20,1,卑鄙,i,,,,,,,,,,,,,,,,,,,,,,,,,,,,,,,,,,,,,,,,,,,,,,,,,,,,,
,,,,,,,,,,,,,,1,001,2024-08-23_19h38.02.637,IAT(Formal),2021.2.3,Win32,120.875136,,,e,1,0.5663,0,38,38,0,1,优秀,e,,,,,,,,,,,,,,,,,,,,,,,,,,,,,,,,,,,,,,,,,,,,,,,,,,,,,
,,,,,,,,,,,,,,1,001,2024-08-23_19h38.02.637,IAT(Formal),2021.2.3,Win32,120.875136,,,i,1,0.6442,0,39,39,33,1,自私,i,,,,,,,,,,,,,,,,,,,,,,,,,,,,,,,,,,,,,,,,,,,,,,,,,,,,,
,,,,,,,,,,,,,,1,001,2024-08-23_19h38.02.637,IAT(Formal),2021.2.3,Win32,120.875136,,,,,,,,,,,,,space,29.9606,e,1,0.4339,0,0,0,60,1,我,e,,,,,,,,,,,,,,,,,,,,,,,,,,,,,,,,,,,,,,,,,
,,,,,,,,,,,,,,1,001,2024-08-23_19h38.02.637,IAT(Formal),2021.2.3,Win32,120.875136,,,,,,,,,,,,,,,e,1,0.5817,0,1,1,63,1,自己,e,,,,,,,,,,,,,,,,,,,,,,,,,,,,,,,,,,,,,,,,,
,,,,,,,,,,,,,,1,001,2024-08-23_19h38.02.637,IAT(Formal),2021.2.3,Win32,120.875136,,,,,,,,,,,,,,,i,1,0.5432,0,2,2,44,1,暴躁,i,,,,,,,,,,,,,,,,,,,,,,,,,,,,,,,,,,,,,,,,,
,,,,,,,,,,,,,,1,001,2024-08-23_19h38.02.637,IAT(Formal),2021.2.3,Win32,120.875136,,,,,,,,,,,,,,,i,1,0.5834,0,3,3,40,1,执拗,i,,,,,,,,,,,,,,,,,,,,,,,,,,,,,,,,,,,,,,,,,
,,,,,,,,,,,,,,1,001,2024-08-23_19h38.02.637,IAT(Formal),2021.2.3,Win32,120.875136,,,,,,,,,,,,,,,e,1,0.5162,0,4,4,19,1,机智,e,,,,,,,,,,,,,,,,,,,,,,,,,,,,,,,,,,,,,,,,,
,,,,,,,,,,,,,,1,001,2024-08-23_19h38.02.637,IAT(Formal),2021.2.3,Win32,120.875136,,,,,,,,,,,,,,,i,1,0.5241,0,5,5,79,1,其他,i,,,,,,,,,,,,,,,,,,,,,,,,,,,,,,,,,,,,,,,,,
,,,,,,,,,,,,,,1,001,2024-08-23_19h38.02.637,IAT(Formal),2021.2.3,Win32,120.875136,,,,,,,,,,,,,,,i,1,0.5915,0,6,6,41,1,散漫,i,,,,,,,,,,,,,,,,,,,,,,,,,,,,,,,,,,,,,,,,,
,,,,,,,,,,,,,,1,001,2024-08-23_19h38.02.637,IAT(Formal),2021.2.3,Win32,120.875136,,,,,,,,,,,,,,,e,1,0.4433,0,7,7,61,1,我的,e,,,,,,,,,,,,,,,,,,,,,,,,,,,,,,,,,,,,,,,,,
,,,,,,,,,,,,,,1,001,2024-08-23_19h38.02.637,IAT(Formal),2021.2.3,Win32,120.875136,,,,,,,,,,,,,,,i,1,0.8717,0,8,8,30,1,卑鄙,i,,,,,,,,,,,,,,,,,,,,,,,,,,,,,,,,,,,,,,,,,
,,,,,,,,,,,,,,1,001,2024-08-23_19h38.02.637,IAT(Formal),2021.2.3,Win32,120.875136,,,,,,,,,,,,,,,e,1,0.4859,0,9,9,14,1,乐观,e,,,,,,,,,,,,,,,,,,,,,,,,,,,,,,,,,,,,,,,,,
,,,,,,,,,,,,,,1,001,2024-08-23_19h38.02.637,IAT(Formal),2021.2.3,Win32,120.875136,,,,,,,,,,,,,,,e,1,0.5164,0,10,10,54,1,俺,e,,,,,,,,,,,,,,,,,,,,,,,,,,,,,,,,,,,,,,,,,
,,,,,,,,,,,,,,1,001,2024-08-23_19h38.02.637,IAT(Formal),2021.2.3,Win32,120.875136,,,,,,,,,,,,,,,e,1,0.576,0,11,11,23,1,公正,e,,,,,,,,,,,,,,,,,,,,,,,,,,,,,,,,,,,,,,,,,
,,,,,,,,,,,,,,1,001,2024-08-23_19h38.02.637,IAT(Formal),2021.2.3,Win32,120.875136,,,,,,,,,,,,,,,e,1,0.4923,0,12,12,29,1,诚恳,e,,,,,,,,,,,,,,,,,,,,,,,,,,,,,,,,,,,,,,,,,
,,,,,,,,,,,,,,1,001,2024-08-23_19h38.02.637,IAT(Formal),2021.2.3,Win32,120.875136,,,,,,,,,,,,,,,e,1,0.7467,0,13,13,64,1,俺,e,,,,,,,,,,,,,,,,,,,,,,,,,,,,,,,,,,,,,,,,,
,,,,,,,,,,,,,,1,001,2024-08-23_19h38.02.637,IAT(Formal),2021.2.3,Win32,120.875136,,,,,,,,,,,,,,,i,1,0.6196,0,14,14,75,1,他,i,,,,,,,,,,,,,,,,,,,,,,,,,,,,,,,,,,,,,,,,,
,,,,,,,,,,,,,,1,001,2024-08-23_19h38.02.637,IAT(Formal),2021.2.3,Win32,120.875136,,,,,,,,,,,,,,,i,1,0.5235,0,15,15,56,1,他们,i,,,,,,,,,,,,,,,,,,,,,,,,,,,,,,,,,,,,,,,,,
,,,,,,,,,,,,,,1,001,2024-08-23_19h38.02.637,IAT(Formal),2021.2.3,Win32,120.875136,,,,,,,,,,,,,,,e,1,0.4789,0,16,16,24,1,朴实,e,,,,,,,,,,,,,,,,,,,,,,,,,,,,,,,,,,,,,,,,,
,,,,,,,,,,,,,,1,001,2024-08-23_19h38.02.637,IAT(Formal),2021.2.3,Win32,120.875136,,,,,,,,,,,,,,,i,1,0.5629,0,17,17,47,1,固执,i,,,,,,,,,,,,,,,,,,,,,,,,,,,,,,,,,,,,,,,,,
,,,,,,,,,,,,,,1,001,2024-08-23_19h38.02.637,IAT(Formal),2021.2.3,Win32,120.875136,,,,,,,,,,,,,,,i,1,0.6286,0,18,18,76,1,他们,i,,,,,,,,,,,,,,,,,,,,,,,,,,,,,,,,,,,,,,,,,
,,,,,,,,,,,,,,1,001,2024-08-23_19h38.02.637,IAT(Formal),2021.2.3,Win32,120.875136,,,,,,,,,,,,,,,i,1,0.5874,0,19,19,32,1,愚蠢,i,,,,,,,,,,,,,,,,,,,,,,,,,,,,,,,,,,,,,,,,,
,,,,,,,,,,,,,,1,001,2024-08-23_19h38.02.637,IAT(Formal),2021.2.3,Win32,120.875136,,,,,,,,,,,,,,,i,1,0.4208,0,20,20,7,1,他的,i,,,,,,,,,,,,,,,,,,,,,,,,,,,,,,,,,,,,,,,,,
,,,,,,,,,,,,,,1,001,2024-08-23_19h38.02.637,IAT(Formal),2021.2.3,Win32,120.875136,,,,,,,,,,,,,,,e,1,0.5496,0,21,21,51,1,我的,e,,,,,,,,,,,,,,,,,,,,,,,,,,,,,,,,,,,,,,,,,
,,,,,,,,,,,,,,1,001,2024-08-23_19h38.02.637,IAT(Formal),2021.2.3,Win32,120.875136,,,,,,,,,,,,,,,e,1,0.5168,0,22,22,16,1,正直,e,,,,,,,,,,,,,,,,,,,,,,,,,,,,,,,,,,,,,,,,,
,,,,,,,,,,,,,,1,001,2024-08-23_19h38.02.637,IAT(Formal),2021.2.3,Win32,120.875136,,,,,,,,,,,,,,,i,1,0.5072,0,23,23,9,1,其他,i,,,,,,,,,,,,,,,,,,,,,,,,,,,,,,,,,,,,,,,,,
,,,,,,,,,,,,,,1,001,2024-08-23_19h38.02.637,IAT(Formal),2021.2.3,Win32,120.875136,,,,,,,,,,,,,,,i,1,0.6049,0,24,24,36,1,自卑,i,,,,,,,,,,,,,,,,,,,,,,,,,,,,,,,,,,,,,,,,,
,,,,,,,,,,,,,,1,001,2024-08-23_19h38.02.637,IAT(Formal),2021.2.3,Win32,120.875136,,,,,,,,,,,,,,,e,1,0.5355,0,25,25,4,1,俺,e,,,,,,,,,,,,,,,,,,,,,,,,,,,,,,,,,,,,,,,,,
,,,,,,,,,,,,,,1,001,2024-08-23_19h38.02.637,IAT(Formal),2021.2.3,Win32,120.875136,,,,,,,,,,,,,,,e,1,0.8018,0,26,26,25,1,细腻,e,,,,,,,,,,,,,,,,,,,,,,,,,,,,,,,,,,,,,,,,,
,,,,,,,,,,,,,,1,001,2024-08-23_19h38.02.637,IAT(Formal),2021.2.3,Win32,120.875136,,,,,,,,,,,,,,,e,1,0.4952,0,27,27,17,1,勇敢,e,,,,,,,,,,,,,,,,,,,,,,,,,,,,,,,,,,,,,,,,,
,,,,,,,,,,,,,,1,001,2024-08-23_19h38.02.637,IAT(Formal),2021.2.3,Win32,120.875136,,,,,,,,,,,,,,,i,1,0.4903,0,28,28,39,1,冒失,i,,,,,,,,,,,,,,,,,,,,,,,,,,,,,,,,,,,,,,,,,
,,,,,,,,,,,,,,1,001,2024-08-23_19h38.02.637,IAT(Formal),2021.2.3,Win32,120.875136,,,,,,,,,,,,,,,e,1,0.6502,0,29,29,22,1,无私,e,,,,,,,,,,,,,,,,,,,,,,,,,,,,,,,,,,,,,,,,,
,,,,,,,,,,,,,,1,001,2024-08-23_19h38.02.637,IAT(Formal),2021.2.3,Win32,120.875136,,,,,,,,,,,,,,,e,1,0.4863,0,30,30,13,1,杰出,e,,,,,,,,,,,,,,,,,,,,,,,,,,,,,,,,,,,,,,,,,
,,,,,,,,,,,,,,1,001,2024-08-23_19h38.02.637,IAT(Formal),2021.2.3,Win32,120.875136,,,,,,,,,,,,,,,i,1,0.5412,0,31,31,67,1,他的,i,,,,,,,,,,,,,,,,,,,,,,,,,,,,,,,,,,,,,,,,,
,,,,,,,,,,,,,,1,001,2024-08-23_19h38.02.637,IAT(Formal),2021.2.3,Win32,120.875136,,,,,,,,,,,,,,,i,1,0.3834,0,32,32,78,1,他人,i,,,,,,,,,,,,,,,,,,,,,,,,,,,,,,,,,,,,,,,,,
,,,,,,,,,,,,,,1,001,2024-08-23_19h38.02.637,IAT(Formal),2021.2.3,Win32,120.875136,,,,,,,,,,,,,,,e,1,0.442,0,33,33,26,1,冷静,e,,,,,,,,,,,,,,,,,,,,,,,,,,,,,,,,,,,,,,,,,
,,,,,,,,,,,,,,1,001,2024-08-23_19h38.02.637,IAT(Formal),2021.2.3,Win32,120.875136,,,,,,,,,,,,,,,i,1,0.6116,0,34,34,6,1,他们,i,,,,,,,,,,,,,,,,,,,,,,,,,,,,,,,,,,,,,,,,,
,,,,,,,,,,,,,,1,001,2024-08-23_19h38.02.637,IAT(Formal),2021.2.3,Win32,120.875136,,,,,,,,,,,,,,,e,1,0.5927,0,35,35,12,1,聪明,e,,,,,,,,,,,,,,,,,,,,,,,,,,,,,,,,,,,,,,,,,
,,,,,,,,,,,,,,1,001,2024-08-23_19h38.02.637,IAT(Formal),2021.2.3,Win32,120.875136,,,,,,,,,,,,,,,i,1,0.6678,0,36,36,66,1,他们,i,,,,,,,,,,,,,,,,,,,,,,,,,,,,,,,,,,,,,,,,,
,,,,,,,,,,,,,,1,001,2024-08-23_19h38.02.637,IAT(Formal),2021.2.3,Win32,120.875136,,,,,,,,,,,,,,,e,1,0.5954,0,37,37,74,1,俺,e,,,,,,,,,,,,,,,,,,,,,,,,,,,,,,,,,,,,,,,,,
,,,,,,,,,,,,,,1,001,2024-08-23_19h38.02.637,IAT(Formal),2021.2.3,Win32,120.875136,,,,,,,,,,,,,,,e,1,0.6147,0,38,38,28,1,活泼,e,,,,,,,,,,,,,,,,,,,,,,,,,,,,,,,,,,,,,,,,,
,,,,,,,,,,,,,,1,001,2024-08-23_19h38.02.637,IAT(Formal),2021.2.3,Win32,120.875136,,,,,,,,,,,,,,,i,1,0.6045,0,39,39,65,1,他,i,,,,,,,,,,,,,,,,,,,,,,,,,,,,,,,,,,,,,,,,,
,,,,,,,,,,,,,,1,001,2024-08-23_19h38.02.637,IAT(Formal),2021.2.3,Win32,120.875136,,,,,,,,,,,,,,,i,1,0.8135,0,40,40,34,1,悲观,i,,,,,,,,,,,,,,,,,,,,,,,,,,,,,,,,,,,,,,,,,
,,,,,,,,,,,,,,1,001,2024-08-23_19h38.02.637,IAT(Formal),2021.2.3,Win32,120.875136,,,,,,,,,,,,,,,i,1,0.7201,0,41,41,46,1,野蛮,i,,,,,,,,,,,,,,,,,,,,,,,,,,,,,,,,,,,,,,,,,
,,,,,,,,,,,,,,1,001,2024-08-23_19h38.02.637,IAT(Formal),2021.2.3,Win32,120.875136,,,,,,,,,,,,,,,e,1,0.4722,0,42,42,21,1,稳重,e,,,,,,,,,,,,,,,,,,,,,,,,,,,,,,,,,,,,,,,,,
,,,,,,,,,,,,,,1,001,2024-08-23_19h38.02.637,IAT(Formal),2021.2.3,Win32,120.875136,,,,,,,,,,,,,,,i,1,0.6247,0,43,43,5,1,他,i,,,,,,,,,,,,,,,,,,,,,,,,,,,,,,,,,,,,,,,,,
,,,,,,,,,,,,,,1,001,2024-08-23_19h38.02.637,IAT(Formal),2021.2.3,Win32,120.875136,,,,,,,,,,,,,,,i,1,0.681,0,44,44,33,1,刻薄,i,,,,,,,,,,,,,,,,,,,,,,,,,,,,,,,,,,,,,,,,,
,,,,,,,,,,,,,,1,001,2024-08-23_19h38.02.637,IAT(Formal),2021.2.3,Win32,120.875136,,,,,,,,,,,,,,,i,1,0.5732,0,45,45,42,1,凶狠,i,,,,,,,,,,,,,,,,,,,,,,,,,,,,,,,,,,,,,,,,,
,,,,,,,,,,,,,,1,001,2024-08-23_19h38.02.637,IAT(Formal),2021.2.3,Win32,120.875136,,,,,,,,,,,,,,,i,1,0.6245,0,46,46,37,1,傲慢,i,,,,,,,,,,,,,,,,,,,,,,,,,,,,,,,,,,,,,,,,,
,,,,,,,,,,,,,,1,001,2024-08-23_19h38.02.637,IAT(Formal),2021.2.3,Win32,120.875136,,,,,,,,,,,,,,,e,1,0.4725,0,47,47,0,1,我,e,,,,,,,,,,,,,,,,,,,,,,,,,,,,,,,,,,,,,,,,,
,,,,,,,,,,,,,,1,001,2024-08-23_19h38.02.637,IAT(Formal),2021.2.3,Win32,120.875136,,,,,,,,,,,,,,,i,1,0.5983,0,48,48,35,1,消极,i,,,,,,,,,,,,,,,,,,,,,,,,,,,,,,,,,,,,,,,,,
,,,,,,,,,,,,,,1,001,2024-08-23_19h38.02.637,IAT(Formal),2021.2.3,Win32,120.875136,,,,,,,,,,,,,,,e,1,0.5203,0,49,49,11,1,崇高,e,,,,,,,,,,,,,,,,,,,,,,,,,,,,,,,,,,,,,,,,,
,,,,,,,,,,,,,,1,001,2024-08-23_19h38.02.637,IAT(Formal),2021.2.3,Win32,120.875136,,,,,,,,,,,,,,,i,1,0.5083,0,50,50,58,1,他人,i,,,,,,,,,,,,,,,,,,,,,,,,,,,,,,,,,,,,,,,,,
,,,,,,,,,,,,,,1,001,2024-08-23_19h38.02.637,IAT(Formal),2021.2.3,Win32,120.875136,,,,,,,,,,,,,,,e,1,0.507,0,51,51,72,1,我们,e,,,,,,,,,,,,,,,,,,,,,,,,,,,,,,,,,,,,,,,,,
,,,,,,,,,,,,,,1,001,2024-08-23_19h38.02.637,IAT(Formal),2021.2.3,Win32,120.875136,,,,,,,,,,,,,,,e,1,0.5182,0,52,52,10,1,优秀,e,,,,,,,,,,,,,,,,,,,,,,,,,,,,,,,,,,,,,,,,,
,,,,,,,,,,,,,,1,001,2024-08-23_19h38.02.637,IAT(Formal),2021.2.3,Win32,120.875136,,,,,,,,,,,,,,,e,1,0.4466,0,53,53,2,1,我们,e,,,,,,,,,,,,,,,,,,,,,,,,,,,,,,,,,,,,,,,,,
,,,,,,,,,,,,,,1,001,2024-08-23_19h38.02.637,IAT(Formal),2021.2.3,Win32,120.875136,,,,,,,,,,,,,,,i,1,0.4906,0,54,54,69,1,其他,i,,,,,,,,,,,,,,,,,,,,,,,,,,,,,,,,,,,,,,,,,
,,,,,,,,,,,,,,1,001,2024-08-23_19h38.02.637,IAT(Formal),2021.2.3,Win32,120.875136,,,,,,,,,,,,,,,e,1,0.5447,0,55,55,18,1,勤奋,e,,,,,,,,,,,,,,,,,,,,,,,,,,,,,,,,,,,,,,,,,
,,,,,,,,,,,,,,1,001,2024-08-23_19h38.02.637,IAT(Formal),2021.2.3,Win32,120.875136,,,,,,,,,,,,,,,i,1,0.5915,0,56,56,68,1,他人,i,,,,,,,,,,,,,,,,,,,,,,,,,,,,,,,,,,,,,,,,,
,,,,,,,,,,,,,,1,001,2024-08-23_19h38.02.637,IAT(Formal),2021.2.3,Win32,120.875136,,,,,,,,,,,,,,,i,1,0.7815,0,57,57,48,1,轻率,i,,,,,,,,,,,,,,,,,,,,,,,,,,,,,,,,,,,,,,,,,
,,,,,,,,,,,,,,1,001,2024-08-23_19h38.02.637,IAT(Formal),2021.2.3,Win32,120.875136,,,,,,,,,,,,,,,e,1,0.5081,0,58,58,73,1,自己,e,,,,,,,,,,,,,,,,,,,,,,,,,,,,,,,,,,,,,,,,,
,,,,,,,,,,,,,,1,001,2024-08-23_19h38.02.637,IAT(Formal),2021.2.3,Win32,120.875136,,,,,,,,,,,,,,,i,1,0.6943,0,59,59,31,1,虚伪,i,,,,,,,,,,,,,,,,,,,,,,,,,,,,,,,,,,,,,,,,,
,,,,,,,,,,,,,,1,001,2024-08-23_19h38.02.637,IAT(Formal),2021.2.3,Win32,120.875136,,,,,,,,,,,,,,,i,1,0.8129,0,60,60,77,1,他的,i,,,,,,,,,,,,,,,,,,,,,,,,,,,,,,,,,,,,,,,,,
,,,,,,,,,,,,,,1,001,2024-08-23_19h38.02.637,IAT(Formal),2021.2.3,Win32,120.875136,,,,,,,,,,,,,,,e,1,0.6869,0,61,61,27,1,热情,e,,,,,,,,,,,,,,,,,,,,,,,,,,,,,,,,,,,,,,,,,
,,,,,,,,,,,,,,1,001,2024-08-23_19h38.02.637,IAT(Formal),2021.2.3,Win32,120.875136,,,,,,,,,,,,,,,i,1,0.5818,0,62,62,49,1,下贱,i,,,,,,,,,,,,,,,,,,,,,,,,,,,,,,,,,,,,,,,,,
,,,,,,,,,,,,,,1,001,2024-08-23_19h38.02.637,IAT(Formal),2021.2.3,Win32,120.875136,,,,,,,,,,,,,,,e,1,0.4904,0,63,63,53,1,自己,e,,,,,,,,,,,,,,,,,,,,,,,,,,,,,,,,,,,,,,,,,
,,,,,,,,,,,,,,1,001,2024-08-23_19h38.02.637,IAT(Formal),2021.2.3,Win32,120.875136,,,,,,,,,,,,,,,i,1,0.4524,0,64,64,8,1,他人,i,,,,,,,,,,,,,,,,,,,,,,,,,,,,,,,,,,,,,,,,,
,,,,,,,,,,,,,,1,001,2024-08-23_19h38.02.637,IAT(Formal),2021.2.3,Win32,120.875136,,,,,,,,,,,,,,,i,1,0.4563,0,65,65,38,1,鲁莽,i,,,,,,,,,,,,,,,,,,,,,,,,,,,,,,,,,,,,,,,,,
,,,,,,,,,,,,,,1,001,2024-08-23_19h38.02.637,IAT(Formal),2021.2.3,Win32,120.875136,,,,,,,,,,,,,,,i,0,0.6091,0,66,66,20,1,认真,e,,,,,,,,,,,,,,,,,,,,,,,,,,,,,,,,,,,,,,,,,
,,,,,,,,,,,,,,1,001,2024-08-23_19h38.02.637,IAT(Formal),2021.2.3,Win32,120.875136,,,,,,,,,,,,,,,e,1,0.7666,0,67,67,1,1,我的,e,,,,,,,,,,,,,,,,,,,,,,,,,,,,,,,,,,,,,,,,,
,,,,,,,,,,,,,,1,001,2024-08-23_19h38.02.637,IAT(Formal),2021.2.3,Win32,120.875136,,,,,,,,,,,,,,,i,1,0.5127,0,68,68,43,1,自私,i,,,,,,,,,,,,,,,,,,,,,,,,,,,,,,,,,,,,,,,,,
,,,,,,,,,,,,,,1,001,2024-08-23_19h38.02.637,IAT(Formal),2021.2.3,Win32,120.875136,,,,,,,,,,,,,,,e,1,0.4367,0,69,69,62,1,我们,e,,,,,,,,,,,,,,,,,,,,,,,,,,,,,,,,,,,,,,,,,
,,,,,,,,,,,,,,1,001,2024-08-23_19h38.02.637,IAT(Formal),2021.2.3,Win32,120.875136,,,,,,,,,,,,,,,i,1,0.4929,0,70,70,59,1,其他,i,,,,,,,,,,,,,,,,,,,,,,,,,,,,,,,,,,,,,,,,,
,,,,,,,,,,,,,,1,001,2024-08-23_19h38.02.637,IAT(Formal),2021.2.3,Win32,120.875136,,,,,,,,,,,,,,,e,1,0.5099,0,71,71,15,1,诚实,e,,,,,,,,,,,,,,,,,,,,,,,,,,,,,,,,,,,,,,,,,
,,,,,,,,,,,,,,1,001,2024-08-23_19h38.02.637,IAT(Formal),2021.2.3,Win32,120.875136,,,,,,,,,,,,,,,e,1,0.5994,0,72,72,3,1,自己,e,,,,,,,,,,,,,,,,,,,,,,,,,,,,,,,,,,,,,,,,,
,,,,,,,,,,,,,,1,001,2024-08-23_19h38.02.637,IAT(Formal),2021.2.3,Win32,120.875136,,,,,,,,,,,,,,,i,1,0.4915,0,73,73,55,1,他,i,,,,,,,,,,,,,,,,,,,,,,,,,,,,,,,,,,,,,,,,,
,,,,,,,,,,,,,,1,001,2024-08-23_19h38.02.637,IAT(Formal),2021.2.3,Win32,120.875136,,,,,,,,,,,,,,,e,1,0.6209,0,74,74,52,1,我们,e,,,,,,,,,,,,,,,,,,,,,,,,,,,,,,,,,,,,,,,,,
,,,,,,,,,,,,,,1,001,2024-08-23_19h38.02.637,IAT(Formal),2021.2.3,Win32,120.875136,,,,,,,,,,,,,,,e,1,0.5302,0,75,75,50,1,我,e,,,,,,,,,,,,,,,,,,,,,,,,,,,,,,,,,,,,,,,,,
,,,,,,,,,,,,,,1,001,2024-08-23_19h38.02.637,IAT(Formal),2021.2.3,Win32,120.875136,,,,,,,,,,,,,,,i,1,0.4537,0,76,76,57,1,他的,i,,,,,,,,,,,,,,,,,,,,,,,,,,,,,,,,,,,,,,,,,
,,,,,,,,,,,,,,1,001,2024-08-23_19h38.02.637,IAT(Formal),2021.2.3,Win32,120.875136,,,,,,,,,,,,,,,e,1,0.5938,0,77,77,71,1,我的,e,,,,,,,,,,,,,,,,,,,,,,,,,,,,,,,,,,,,,,,,,
,,,,,,,,,,,,,,1,001,2024-08-23_19h38.02.637,IAT(Formal),2021.2.3,Win32,120.875136,,,,,,,,,,,,,,,e,1,0.3656,0,78,78,70,1,我,e,,,,,,,,,,,,,,,,,,,,,,,,,,,,,,,,,,,,,,,,,
,,,,,,,,,,,,,,1,001,2024-08-23_19h38.02.637,IAT(Formal),2021.2.3,Win32,120.875136,,,,,,,,,,,,,,,i,1,0.5482,0,79,79,45,1,猖狂,i,,,,,,,,,,,,,,,,,,,,,,,,,,,,,,,,,,,,,,,,,
,,,,,,,,,,,,,,1,001,2024-08-23_19h38.02.637,IAT(Formal),2021.2.3,Win32,120.875136,,,,,,,,,,,,,,,i,1,0.5084,,,,,,他人,i,space,25.2338,0,0,0,68,1,,,,,,,,,,,,,,,,,,,,,,,,,,,,,,,,,,
,,,,,,,,,,,,,,1,001,2024-08-23_19h38.02.637,IAT(Formal),2021.2.3,Win32,120.875136,,,,,,,,,,,,,,,e,1,0.5528,,,,,,勇敢,e,,,0,1,1,17,1,,,,,,,,,,,,,,,,,,,,,,,,,,,,,,,,,,
,,,,,,,,,,,,,,1,001,2024-08-23_19h38.02.637,IAT(Formal),2021.2.3,Win32,120.875136,,,,,,,,,,,,,,,e,1,0.4503,,,,,,我们,e,,,0,2,2,2,1,,,,,,,,,,,,,,,,,,,,,,,,,,,,,,,,,,
,,,,,,,,,,,,,,1,001,2024-08-23_19h38.02.637,IAT(Formal),2021.2.3,Win32,120.875136,,,,,,,,,,,,,,,e,1,0.5456,,,,,,活泼,e,,,0,3,3,28,1,,,,,,,,,,,,,,,,,,,,,,,,,,,,,,,,,,
,,,,,,,,,,,,,,1,001,2024-08-23_19h38.02.637,IAT(Formal),2021.2.3,Win32,120.875136,,,,,,,,,,,,,,,i,1,0.5339,,,,,,傲慢,i,,,0,4,4,37,1,,,,,,,,,,,,,,,,,,,,,,,,,,,,,,,,,,
,,,,,,,,,,,,,,1,001,2024-08-23_19h38.02.637,IAT(Formal),2021.2.3,Win32,120.875136,,,,,,,,,,,,,,,e,1,0.4669,,,,,,勤奋,e,,,0,5,5,18,1,,,,,,,,,,,,,,,,,,,,,,,,,,,,,,,,,,
,,,,,,,,,,,,,,1,001,2024-08-23_19h38.02.637,IAT(Formal),2021.2.3,Win32,120.875136,,,,,,,,,,,,,,,i,1,0.7209,,,,,,他人,i,,,0,6,6,8,1,,,,,,,,,,,,,,,,,,,,,,,,,,,,,,,,,,
,,,,,,,,,,,,,,1,001,2024-08-23_19h38.02.637,IAT(Formal),2021.2.3,Win32,120.875136,,,,,,,,,,,,,,,e,1,0.4986,,,,,,俺,e,,,0,7,7,64,1,,,,,,,,,,,,,,,,,,,,,,,,,,,,,,,,,,
,,,,,,,,,,,,,,1,001,2024-08-23_19h38.02.637,IAT(Formal),2021.2.3,Win32,120.875136,,,,,,,,,,,,,,,i,1,0.5564,,,,,,他们,i,,,0,8,8,76,1,,,,,,,,,,,,,,,,,,,,,,,,,,,,,,,,,,
,,,,,,,,,,,,,,1,001,2024-08-23_19h38.02.637,IAT(Formal),2021.2.3,Win32,120.875136,,,,,,,,,,,,,,,i,1,0.4855,,,,,,他人,i,,,0,9,9,58,1,,,,,,,,,,,,,,,,,,,,,,,,,,,,,,,,,,
,,,,,,,,,,,,,,1,001,2024-08-23_19h38.02.637,IAT(Formal),2021.2.3,Win32,120.875136,,,,,,,,,,,,,,,i,1,0.5625,,,,,,猖狂,i,,,0,10,10,45,1,,,,,,,,,,,,,,,,,,,,,,,,,,,,,,,,,,
,,,,,,,,,,,,,,1,001,2024-08-23_19h38.02.637,IAT(Formal),2021.2.3,Win32,120.875136,,,,,,,,,,,,,,,e,1,0.482,,,,,,俺,e,,,0,11,11,54,1,,,,,,,,,,,,,,,,,,,,,,,,,,,,,,,,,,
,,,,,,,,,,,,,,1,001,2024-08-23_19h38.02.637,IAT(Formal),2021.2.3,Win32,120.875136,,,,,,,,,,,,,,,e,1,0.9095,,,,,,正直,e,,,0,12,12,16,1,,,,,,,,,,,,,,,,,,,,,,,,,,,,,,,,,,
,,,,,,,,,,,,,,1,001,2024-08-23_19h38.02.637,IAT(Formal),2021.2.3,Win32,120.875136,,,,,,,,,,,,,,,e,1,0.5525,,,,,,乐观,e,,,0,13,13,14,1,,,,,,,,,,,,,,,,,,,,,,,,,,,,,,,,,,
,,,,,,,,,,,,,,1,001,2024-08-23_19h38.02.637,IAT(Formal),2021.2.3,Win32,120.875136,,,,,,,,,,,,,,,i,1,0.4971,,,,,,下贱,i,,,0,14,14,49,1,,,,,,,,,,,,,,,,,,,,,,,,,,,,,,,,,,
,,,,,,,,,,,,,,1,001,2024-08-23_19h38.02.637,IAT(Formal),2021.2.3,Win32,120.875136,,,,,,,,,,,,,,,e,1,0.7013,,,,,,公正,e,,,0,15,15,23,1,,,,,,,,,,,,,,,,,,,,,,,,,,,,,,,,,,
,,,,,,,,,,,,,,1,001,2024-08-23_19h38.02.637,IAT(Formal),2021.2.3,Win32,120.875136,,,,,,,,,,,,,,,e,1,1.0817,,,,,,无私,e,,,0,16,16,22,1,,,,,,,,,,,,,,,,,,,,,,,,,,,,,,,,,,
,,,,,,,,,,,,,,1,001,2024-08-23_19h38.02.637,IAT(Formal),2021.2.3,Win32,120.875136,,,,,,,,,,,,,,,i,1,0.5413,,,,,,散漫,i,,,0,17,17,41,1,,,,,,,,,,,,,,,,,,,,,,,,,,,,,,,,,,
,,,,,,,,,,,,,,1,001,2024-08-23_19h38.02.637,IAT(Formal),2021.2.3,Win32,120.875136,,,,,,,,,,,,,,,e,1,0.5,,,,,,俺,e,,,0,18,18,4,1,,,,,,,,,,,,,,,,,,,,,,,,,,,,,,,,,,
,,,,,,,,,,,,,,1,001,2024-08-23_19h38.02.637,IAT(Formal),2021.2.3,Win32,120.875136,,,,,,,,,,,,,,,e,1,0.4661,,,,,,认真,e,,,0,19,19,20,1,,,,,,,,,,,,,,,,,,,,,,,,,,,,,,,,,,
,,,,,,,,,,,,,,1,001,2024-08-23_19h38.02.637,IAT(Formal),2021.2.3,Win32,120.875136,,,,,,,,,,,,,,,e,1,0.3953,,,,,,杰出,e,,,0,20,20,13,1,,,,,,,,,,,,,,,,,,,,,,,,,,,,,,,,,,
,,,,,,,,,,,,,,1,001,2024-08-23_19h38.02.637,IAT(Formal),2021.2.3,Win32,120.875136,,,,,,,,,,,,,,,i,1,0.5746,,,,,,其他,i,,,0,21,21,59,1,,,,,,,,,,,,,,,,,,,,,,,,,,,,,,,,,,
,,,,,,,,,,,,,,1,001,2024-08-23_19h38.02.637,IAT(Formal),2021.2.3,Win32,120.875136,,,,,,,,,,,,,,,e,1,0.4903,,,,,,优秀,e,,,0,22,22,10,1,,,,,,,,,,,,,,,,,,,,,,,,,,,,,,,,,,
,,,,,,,,,,,,,,1,001,2024-08-23_19h38.02.637,IAT(Formal),2021.2.3,Win32,120.875136,,,,,,,,,,,,,,,e,1,0.471,,,,,,细腻,e,,,0,23,23,25,1,,,,,,,,,,,,,,,,,,,,,,,,,,,,,,,,,,
,,,,,,,,,,,,,,1,001,2024-08-23_19h38.02.637,IAT(Formal),2021.2.3,Win32,120.875136,,,,,,,,,,,,,,,e,1,0.5601,,,,,,我,e,,,0,24,24,70,1,,,,,,,,,,,,,,,,,,,,,,,,,,,,,,,,,,
,,,,,,,,,,,,,,1,001,2024-08-23_19h38.02.637,IAT(Formal),2021.2.3,Win32,120.875136,,,,,,,,,,,,,,,e,1,0.3832,,,,,,我的,e,,,0,25,25,61,1,,,,,,,,,,,,,,,,,,,,,,,,,,,,,,,,,,
,,,,,,,,,,,,,,1,001,2024-08-23_19h38.02.637,IAT(Formal),2021.2.3,Win32,120.875136,,,,,,,,,,,,,,,e,1,0.5903,,,,,,机智,e,,,0,26,26,19,1,,,,,,,,,,,,,,,,,,,,,,,,,,,,,,,,,,
,,,,,,,,,,,,,,1,001,2024-08-23_19h38.02.637,IAT(Formal),2021.2.3,Win32,120.875136,,,,,,,,,,,,,,,e,1,0.4159,,,,,,诚实,e,,,0,27,27,15,1,,,,,,,,,,,,,,,,,,,,,,,,,,,,,,,,,,
,,,,,,,,,,,,,,1,001,2024-08-23_19h38.02.637,IAT(Formal),2021.2.3,Win32,120.875136,,,,,,,,,,,,,,,e,1,0.4262,,,,,,我们,e,,,0,28,28,72,1,,,,,,,,,,,,,,,,,,,,,,,,,,,,,,,,,,
,,,,,,,,,,,,,,1,001,2024-08-23_19h38.02.637,IAT(Formal),2021.2.3,Win32,120.875136,,,,,,,,,,,,,,,e,1,0.4435,,,,,,俺,e,,,0,29,29,74,1,,,,,,,,,,,,,,,,,,,,,,,,,,,,,,,,,,
,,,,,,,,,,,,,,1,001,2024-08-23_19h38.02.637,IAT(Formal),2021.2.3,Win32,120.875136,,,,,,,,,,,,,,,i,1,0.5951,,,,,,轻率,i,,,0,30,30,48,1,,,,,,,,,,,,,,,,,,,,,,,,,,,,,,,,,,
,,,,,,,,,,,,,,1,001,2024-08-23_19h38.02.637,IAT(Formal),2021.2.3,Win32,120.875136,,,,,,,,,,,,,,,e,1,0.5074,,,,,,自己,e,,,0,31,31,73,1,,,,,,,,,,,,,,,,,,,,,,,,,,,,,,,,,,
,,,,,,,,,,,,,,1,001,2024-08-23_19h38.02.637,IAT(Formal),2021.2.3,Win32,120.875136,,,,,,,,,,,,,,,i,1,1.0075,,,,,,他们,i,,,0,32,32,56,1,,,,,,,,,,,,,,,,,,,,,,,,,,,,,,,,,,
,,,,,,,,,,,,,,1,001,2024-08-23_19h38.02.637,IAT(Formal),2021.2.3,Win32,120.875136,,,,,,,,,,,,,,,e,1,0.478,,,,,,我的,e,,,0,33,33,71,1,,,,,,,,,,,,,,,,,,,,,,,,,,,,,,,,,,
,,,,,,,,,,,,,,1,001,2024-08-23_19h38.02.637,IAT(Formal),2021.2.3,Win32,120.875136,,,,,,,,,,,,,,,e,1,0.9176,,,,,,自己,e,,,0,34,34,53,1,,,,,,,,,,,,,,,,,,,,,,,,,,,,,,,,,,
,,,,,,,,,,,,,,1,001,2024-08-23_19h38.02.637,IAT(Formal),2021.2.3,Win32,120.875136,,,,,,,,,,,,,,,e,1,0.4803,,,,,,我,e,,,0,35,35,0,1,,,,,,,,,,,,,,,,,,,,,,,,,,,,,,,,,,
,,,,,,,,,,,,,,1,001,2024-08-23_19h38.02.637,IAT(Formal),2021.2.3,Win32,120.875136,,,,,,,,,,,,,,,i,1,0.4927,,,,,,其他,i,,,0,36,36,69,1,,,,,,,,,,,,,,,,,,,,,,,,,,,,,,,,,,
,,,,,,,,,,,,,,1,001,2024-08-23_19h38.02.637,IAT(Formal),2021.2.3,Win32,120.875136,,,,,,,,,,,,,,,e,1,0.6336,,,,,,诚恳,e,,,0,37,37,29,1,,,,,,,,,,,,,,,,,,,,,,,,,,,,,,,,,,
,,,,,,,,,,,,,,1,001,2024-08-23_19h38.02.637,IAT(Formal),2021.2.3,Win32,120.875136,,,,,,,,,,,,,,,i,1,0.5454,,,,,,执拗,i,,,0,38,38,40,1,,,,,,,,,,,,,,,,,,,,,,,,,,,,,,,,,,
,,,,,,,,,,,,,,1,001,2024-08-23_19h38.02.637,IAT(Formal),2021.2.3,Win32,120.875136,,,,,,,,,,,,,,,e,0,0.4586,,,,,,他,i,,,0,39,39,55,1,,,,,,,,,,,,,,,,,,,,,,,,,,,,,,,,,,
,,,,,,,,,,,,,,1,001,2024-08-23_19h38.02.637,IAT(Formal),2021.2.3,Win32,120.875136,,,,,,,,,,,,,,,i,1,0.7942,,,,,,刻薄,i,,,0,40,40,33,1,,,,,,,,,,,,,,,,,,,,,,,,,,,,,,,,,,
,,,,,,,,,,,,,,1,001,2024-08-23_19h38.02.637,IAT(Formal),2021.2.3,Win32,120.875136,,,,,,,,,,,,,,,i,1,0.95,,,,,,愚蠢,i,,,0,41,41,32,1,,,,,,,,,,,,,,,,,,,,,,,,,,,,,,,,,,
,,,,,,,,,,,,,,1,001,2024-08-23_19h38.02.637,IAT(Formal),2021.2.3,Win32,120.875136,,,,,,,,,,,,,,,i,1,0.658,,,,,,悲观,i,,,0,42,42,34,1,,,,,,,,,,,,,,,,,,,,,,,,,,,,,,,,,,
,,,,,,,,,,,,,,1,001,2024-08-23_19h38.02.637,IAT(Formal),2021.2.3,Win32,120.875136,,,,,,,,,,,,,,,i,1,0.4733,,,,,,固执,i,,,0,43,43,47,1,,,,,,,,,,,,,,,,,,,,,,,,,,,,,,,,,,
,,,,,,,,,,,,,,1,001,2024-08-23_19h38.02.637,IAT(Formal),2021.2.3,Win32,120.875136,,,,,,,,,,,,,,,e,0,0.4877,,,,,,他们,i,,,0,44,44,66,1,,,,,,,,,,,,,,,,,,,,,,,,,,,,,,,,,,
,,,,,,,,,,,,,,1,001,2024-08-23_19h38.02.637,IAT(Formal),2021.2.3,Win32,120.875136,,,,,,,,,,,,,,,e,1,0.5655,,,,,,自己,e,,,0,45,45,63,1,,,,,,,,,,,,,,,,,,,,,,,,,,,,,,,,,,
,,,,,,,,,,,,,,1,001,2024-08-23_19h38.02.637,IAT(Formal),2021.2.3,Win32,120.875136,,,,,,,,,,,,,,,e,1,0.4918,,,,,,我,e,,,0,46,46,60,1,,,,,,,,,,,,,,,,,,,,,,,,,,,,,,,,,,
,,,,,,,,,,,,,,1,001,2024-08-23_19h38.02.637,IAT(Formal),2021.2.3,Win32,120.875136,,,,,,,,,,,,,,,e,1,1.1095,,,,,,朴实,e,,,0,47,47,24,1,,,,,,,,,,,,,,,,,,,,,,,,,,,,,,,,,,
,,,,,,,,,,,,,,1,001,2024-08-23_19h38.02.637,IAT(Formal),2021.2.3,Win32,120.875136,,,,,,,,,,,,,,,e,1,0.5572,,,,,,自己,e,,,0,48,48,3,1,,,,,,,,,,,,,,,,,,,,,,,,,,,,,,,,,,
,,,,,,,,,,,,,,1,001,2024-08-23_19h38.02.637,IAT(Formal),2021.2.3,Win32,120.875136,,,,,,,,,,,,,,,i,1,0.5334,,,,,,他的,i,,,0,49,49,57,1,,,,,,,,,,,,,,,,,,,,,,,,,,,,,,,,,,
,,,,,,,,,,,,,,1,001,2024-08-23_19h38.02.637,IAT(Formal),2021.2.3,Win32,120.875136,,,,,,,,,,,,,,,i,1,0.5936,,,,,,野蛮,i,,,0,50,50,46,1,,,,,,,,,,,,,,,,,,,,,,,,,,,,,,,,,,
,,,,,,,,,,,,,,1,001,2024-08-23_19h38.02.637,IAT(Formal),2021.2.3,Win32,120.875136,,,,,,,,,,,,,,,i,1,0.4319,,,,,,其他,i,,,0,51,51,79,1,,,,,,,,,,,,,,,,,,,,,,,,,,,,,,,,,,
,,,,,,,,,,,,,,1,001,2024-08-23_19h38.02.637,IAT(Formal),2021.2.3,Win32,120.875136,,,,,,,,,,,,,,,i,1,0.4082,,,,,,其他,i,,,0,52,52,9,1,,,,,,,,,,,,,,,,,,,,,,,,,,,,,,,,,,
,,,,,,,,,,,,,,1,001,2024-08-23_19h38.02.637,IAT(Formal),2021.2.3,Win32,120.875136,,,,,,,,,,,,,,,e,1,0.5743,,,,,,崇高,e,,,0,53,53,11,1,,,,,,,,,,,,,,,,,,,,,,,,,,,,,,,,,,
,,,,,,,,,,,,,,1,001,2024-08-23_19h38.02.637,IAT(Formal),2021.2.3,Win32,120.875136,,,,,,,,,,,,,,,i,1,0.6348,,,,,,冒失,i,,,0,54,54,39,1,,,,,,,,,,,,,,,,,,,,,,,,,,,,,,,,,,
,,,,,,,,,,,,,,1,001,2024-08-23_19h38.02.637,IAT(Formal),2021.2.3,Win32,120.875136,,,,,,,,,,,,,,,e,1,0.9568,,,,,,我们,e,,,0,55,55,52,1,,,,,,,,,,,,,,,,,,,,,,,,,,,,,,,,,,
,,,,,,,,,,,,,,1,001,2024-08-23_19h38.02.637,IAT(Formal),2021.2.3,Win32,120.875136,,,,,,,,,,,,,,,i,1,0.5263,,,,,,他们,i,,,0,56,56,6,1,,,,,,,,,,,,,,,,,,,,,,,,,,,,,,,,,,
,,,,,,,,,,,,,,1,001,2024-08-23_19h38.02.637,IAT(Formal),2021.2.3,Win32,120.875136,,,,,,,,,,,,,,,i,1,0.8184,,,,,,他的,i,,,0,57,57,7,1,,,,,,,,,,,,,,,,,,,,,,,,,,,,,,,,,,
,,,,,,,,,,,,,,1,001,2024-08-23_19h38.02.637,IAT(Formal),2021.2.3,Win32,120.875136,,,,,,,,,,,,,,,i,1,0.4027,,,,,,他,i,,,0,58,58,5,1,,,,,,,,,,,,,,,,,,,,,,,,,,,,,,,,,,
,,,,,,,,,,,,,,1,001,2024-08-23_19h38.02.637,IAT(Formal),2021.2.3,Win32,120.875136,,,,,,,,,,,,,,,i,1,0.5296,,,,,,卑鄙,i,,,0,59,59,30,1,,,,,,,,,,,,,,,,,,,,,,,,,,,,,,,,,,
,,,,,,,,,,,,,,1,001,2024-08-23_19h38.02.637,IAT(Formal),2021.2.3,Win32,120.875136,,,,,,,,,,,,,,,i,1,0.4573,,,,,,自卑,i,,,0,60,60,36,1,,,,,,,,,,,,,,,,,,,,,,,,,,,,,,,,,,
,,,,,,,,,,,,,,1,001,2024-08-23_19h38.02.637,IAT(Formal),2021.2.3,Win32,120.875136,,,,,,,,,,,,,,,i,1,0.5119,,,,,,鲁莽,i,,,0,61,61,38,1,,,,,,,,,,,,,,,,,,,,,,,,,,,,,,,,,,
,,,,,,,,,,,,,,1,001,2024-08-23_19h38.02.637,IAT(Formal),2021.2.3,Win32,120.875136,,,,,,,,,,,,,,,e,1,0.5542,,,,,,我的,e,,,0,62,62,1,1,,,,,,,,,,,,,,,,,,,,,,,,,,,,,,,,,,
,,,,,,,,,,,,,,1,001,2024-08-23_19h38.02.637,IAT(Formal),2021.2.3,Win32,120.875136,,,,,,,,,,,,,,,i,1,0.5224,,,,,,他人,i,,,0,63,63,78,1,,,,,,,,,,,,,,,,,,,,,,,,,,,,,,,,,,
,,,,,,,,,,,,,,1,001,2024-08-23_19h38.02.637,IAT(Formal),2021.2.3,Win32,120.875136,,,,,,,,,,,,,,,e,1,0.8231,,,,,,聪明,e,,,0,64,64,12,1,,,,,,,,,,,,,,,,,,,,,,,,,,,,,,,,,,
,,,,,,,,,,,,,,1,001,2024-08-23_19h38.02.637,IAT(Formal),2021.2.3,Win32,120.875136,,,,,,,,,,,,,,,e,1,0.854,,,,,,稳重,e,,,0,65,65,21,1,,,,,,,,,,,,,,,,,,,,,,,,,,,,,,,,,,
,,,,,,,,,,,,,,1,001,2024-08-23_19h38.02.637,IAT(Formal),2021.2.3,Win32,120.875136,,,,,,,,,,,,,,,i,1,0.46,,,,,,凶狠,i,,,0,66,66,42,1,,,,,,,,,,,,,,,,,,,,,,,,,,,,,,,,,,
,,,,,,,,,,,,,,1,001,2024-08-23_19h38.02.637,IAT(Formal),2021.2.3,Win32,120.875136,,,,,,,,,,,,,,,i,1,0.5323,,,,,,暴躁,i,,,0,67,67,44,1,,,,,,,,,,,,,,,,,,,,,,,,,,,,,,,,,,
,,,,,,,,,,,,,,1,001,2024-08-23_19h38.02.637,IAT(Formal),2021.2.3,Win32,120.875136,,,,,,,,,,,,,,,e,1,0.6923,,,,,,我的,e,,,0,68,68,51,1,,,,,,,,,,,,,,,,,,,,,,,,,,,,,,,,,,
,,,,,,,,,,,,,,1,001,2024-08-23_19h38.02.637,IAT(Formal),2021.2.3,Win32,120.875136,,,,,,,,,,,,,,,i,1,0.4538,,,,,,他,i,,,0,69,69,75,1,,,,,,,,,,,,,,,,,,,,,,,,,,,,,,,,,,
,,,,,,,,,,,,,,1,001,2024-08-23_19h38.02.637,IAT(Formal),2021.2.3,Win32,120.875136,,,,,,,,,,,,,,,i,1,0.5337,,,,,,自私,i,,,0,70,70,43,1,,,,,,,,,,,,,,,,,,,,,,,,,,,,,,,,,,
,,,,,,,,,,,,,,1,001,2024-08-23_19h38.02.637,IAT(Formal),2021.2.3,Win32,120.875136,,,,,,,,,,,,,,,e,1,0.5073,,,,,,我,e,,,0,71,71,50,1,,,,,,,,,,,,,,,,,,,,,,,,,,,,,,,,,,
,,,,,,,,,,,,,,1,001,2024-08-23_19h38.02.637,IAT(Formal),2021.2.3,Win32,120.875136,,,,,,,,,,,,,,,i,1,0.4589,,,,,,他的,i,,,0,72,72,67,1,,,,,,,,,,,,,,,,,,,,,,,,,,,,,,,,,,
,,,,,,,,,,,,,,1,001,2024-08-23_19h38.02.637,IAT(Formal),2021.2.3,Win32,120.875136,,,,,,,,,,,,,,,i,1,0.457,,,,,,他,i,,,0,73,73,65,1,,,,,,,,,,,,,,,,,,,,,,,,,,,,,,,,,,
,,,,,,,,,,,,,,1,001,2024-08-23_19h38.02.637,IAT(Formal),2021.2.3,Win32,120.875136,,,,,,,,,,,,,,,e,1,0.8251,,,,,,冷静,e,,,0,74,74,26,1,,,,,,,,,,,,,,,,,,,,,,,,,,,,,,,,,,
,,,,,,,,,,,,,,1,001,2024-08-23_19h38.02.637,IAT(Formal),2021.2.3,Win32,120.875136,,,,,,,,,,,,,,,i,1,0.5053,,,,,,他的,i,,,0,75,75,77,1,,,,,,,,,,,,,,,,,,,,,,,,,,,,,,,,,,
,,,,,,,,,,,,,,1,001,2024-08-23_19h38.02.637,IAT(Formal),2021.2.3,Win32,120.875136,,,,,,,,,,,,,,,e,1,0.7127,,,,,,热情,e,,,0,76,76,27,1,,,,,,,,,,,,,,,,,,,,,,,,,,,,,,,,,,
,,,,,,,,,,,,,,1,001,2024-08-23_19h38.02.637,IAT(Formal),2021.2.3,Win32,120.875136,,,,,,,,,,,,,,,e,1,0.5651,,,,,,我们,e,,,0,77,77,62,1,,,,,,,,,,,,,,,,,,,,,,,,,,,,,,,,,,
,,,,,,,,,,,,,,1,001,2024-08-23_19h38.02.637,IAT(Formal),2021.2.3,Win32,120.875136,,,,,,,,,,,,,,,i,1,0.4929,,,,,,消极,i,,,0,78,78,35,1,,,,,,,,,,,,,,,,,,,,,,,,,,,,,,,,,,
,,,,,,,,,,,,,,1,001,2024-08-23_19h38.02.637,IAT(Formal),2021.2.3,Win32,120.875136,,,,,,,,,,,,,,,i,1,0.5438,,,,,,虚伪,i,,,0,79,79,31,1,,,,,,,,,,,,,,,,,,,,,,,,,,,,,,,,,,
,,,,,,,,,,,,,,1,001,2024-08-23_19h38.02.637,IAT(Formal),2021.2.3,Win32,120.875136,,,,,,,,,,,,,,,e,1,0.5492,,,,,,热情,e,,,1,0,80,27,1,,,,,,,,,,,,,,,,,,,,,,,,,,,,,,,,,,
,,,,,,,,,,,,,,1,001,2024-08-23_19h38.02.637,IAT(Formal),2021.2.3,Win32,120.875136,,,,,,,,,,,,,,,i,1,0.491,,,,,,自卑,i,,,1,1,81,36,1,,,,,,,,,,,,,,,,,,,,,,,,,,,,,,,,,,
,,,,,,,,,,,,,,1,001,2024-08-23_19h38.02.637,IAT(Formal),2021.2.3,Win32,120.875136,,,,,,,,,,,,,,,e,1,0.5762,,,,,,俺,e,,,1,2,82,54,1,,,,,,,,,,,,,,,,,,,,,,,,,,,,,,,,,,
,,,,,,,,,,,,,,1,001,2024-08-23_19h38.02.637,IAT(Formal),2021.2.3,Win32,120.875136,,,,,,,,,,,,,,,i,1,0.5735,,,,,,他的,i,,,1,3,83,77,1,,,,,,,,,,,,,,,,,,,,,,,,,,,,,,,,,,
,,,,,,,,,,,,,,1,001,2024-08-23_19h38.02.637,IAT(Formal),2021.2.3,Win32,120.875136,,,,,,,,,,,,,,,e,1,0.4513,,,,,,我,e,,,1,4,84,70,1,,,,,,,,,,,,,,,,,,,,,,,,,,,,,,,,,,
,,,,,,,,,,,,,,1,001,2024-08-23_19h38.02.637,IAT(Formal),2021.2.3,Win32,120.875136,,,,,,,,,,,,,,,i,1,0.507,,,,,,冒失,i,,,1,5,85,39,1,,,,,,,,,,,,,,,,,,,,,,,,,,,,,,,,,,
,,,,,,,,,,,,,,1,001,2024-08-23_19h38.02.637,IAT(Formal),2021.2.3,Win32,120.875136,,,,,,,,,,,,,,,i,1,0.6837,,,,,,他,i,,,1,6,86,75,1,,,,,,,,,,,,,,,,,,,,,,,,,,,,,,,,,,
,,,,,,,,,,,,,,1,001,2024-08-23_19h38.02.637,IAT(Formal),2021.2.3,Win32,120.875136,,,,,,,,,,,,,,,e,1,0.5034,,,,,,我的,e,,,1,7,87,51,1,,,,,,,,,,,,,,,,,,,,,,,,,,,,,,,,,,
,,,,,,,,,,,,,,1,001,2024-08-23_19h38.02.637,IAT(Formal),2021.2.3,Win32,120.875136,,,,,,,,,,,,,,,i,0,0.46,,,,,,正直,e,,,1,8,88,16,1,,,,,,,,,,,,,,,,,,,,,,,,,,,,,,,,,,
,,,,,,,,,,,,,,1,001,2024-08-23_19h38.02.637,IAT(Formal),2021.2.3,Win32,120.875136,,,,,,,,,,,,,,,e,1,0.7736,,,,,,活泼,e,,,1,9,89,28,1,,,,,,,,,,,,,,,,,,,,,,,,,,,,,,,,,,
,,,,,,,,,,,,,,1,001,2024-08-23_19h38.02.637,IAT(Formal),2021.2.3,Win32,120.875136,,,,,,,,,,,,,,,e,1,0.5596,,,,,,公正,e,,,1,10,90,23,1,,,,,,,,,,,,,,,,,,,,,,,,,,,,,,,,,,
,,,,,,,,,,,,,,1,001,2024-08-23_19h38.02.637,IAT(Formal),2021.2.3,Win32,120.875136,,,,,,,,,,,,,,,i,1,0.5996,,,,,,执拗,i,,,1,11,91,40,1,,,,,,,,,,,,,,,,,,,,,,,,,,,,,,,,,,
,,,,,,,,,,,,,,1,001,2024-08-23_19h38.02.637,IAT(Formal),2021.2.3,Win32,120.875136,,,,,,,,,,,,,,,e,0,0.4744,,,,,,他的,i,,,1,12,92,67,1,,,,,,,,,,,,,,,,,,,,,,,,,,,,,,,,,,
,,,,,,,,,,,,,,1,001,2024-08-23_19h38.02.637,IAT(Formal),2021.2.3,Win32,120.875136,,,,,,,,,,,,,,,i,1,0.5997,,,,,,下贱,i,,,1,13,93,49,1,,,,,,,,,,,,,,,,,,,,,,,,,,,,,,,,,,
,,,,,,,,,,,,,,1,001,2024-08-23_19h38.02.637,IAT(Formal),2021.2.3,Win32,120.875136,,,,,,,,,,,,,,,i,1,0.9867,,,,,,傲慢,i,,,1,14,94,37,1,,,,,,,,,,,,,,,,,,,,,,,,,,,,,,,,,,
,,,,,,,,,,,,,,1,001,2024-08-23_19h38.02.637,IAT(Formal),2021.2.3,Win32,120.875136,,,,,,,,,,,,,,,i,1,0.561,,,,,,自私,i,,,1,15,95,43,1,,,,,,,,,,,,,,,,,,,,,,,,,,,,,,,,,,
,,,,,,,,,,,,,,1,001,2024-08-23_19h38.02.637,IAT(Formal),2021.2.3,Win32,120.875136,,,,,,,,,,,,,,,i,1,0.493,,,,,,刻薄,i,,,1,16,96,33,1,,,,,,,,,,,,,,,,,,,,,,,,,,,,,,,,,,
,,,,,,,,,,,,,,1,001,2024-08-23_19h38.02.637,IAT(Formal),2021.2.3,Win32,120.875136,,,,,,,,,,,,,,,i,1,0.3583,,,,,,他的,i,,,1,17,97,57,1,,,,,,,,,,,,,,,,,,,,,,,,,,,,,,,,,,
,,,,,,,,,,,,,,1,001,2024-08-23_19h38.02.637,IAT(Formal),2021.2.3,Win32,120.875136,,,,,,,,,,,,,,,e,1,0.5022,,,,,,我,e,,,1,18,98,50,1,,,,,,,,,,,,,,,,,,,,,,,,,,,,,,,,,,
,,,,,,,,,,,,,,1,001,2024-08-23_19h38.02.637,IAT(Formal),2021.2.3,Win32,120.875136,,,,,,,,,,,,,,,e,1,0.8817,,,,,,诚实,e,,,1,19,99,15,1,,,,,,,,,,,,,,,,,,,,,,,,,,,,,,,,,,
,,,,,,,,,,,,,,1,001,2024-08-23_19h38.02.637,IAT(Formal),2021.2.3,Win32,120.875136,,,,,,,,,,,,,,,i,0,0.5239,,,,,,自己,e,,,1,20,100,3,1,,,,,,,,,,,,,,,,,,,,,,,,,,,,,,,,,,
,,,,,,,,,,,,,,1,001,2024-08-23_19h38.02.637,IAT(Formal),2021.2.3,Win32,120.875136,,,,,,,,,,,,,,,i,1,0.5167,,,,,,虚伪,i,,,1,21,101,31,1,,,,,,,,,,,,,,,,,,,,,,,,,,,,,,,,,,
,,,,,,,,,,,,,,1,001,2024-08-23_19h38.02.637,IAT(Formal),2021.2.3,Win32,120.875136,,,,,,,,,,,,,,,i,1,0.4769,,,,,,暴躁,i,,,1,22,102,44,1,,,,,,,,,,,,,,,,,,,,,,,,,,,,,,,,,,
,,,,,,,,,,,,,,1,001,2024-08-23_19h38.02.637,IAT(Formal),2021.2.3,Win32,120.875136,,,,,,,,,,,,,,,e,1,0.7186,,,,,,聪明,e,,,1,23,103,12,1,,,,,,,,,,,,,,,,,,,,,,,,,,,,,,,,,,
,,,,,,,,,,,,,,1,001,2024-08-23_19h38.02.637,IAT(Formal),2021.2.3,Win32,120.875136,,,,,,,,,,,,,,,i,1,0.8074,,,,,,他,i,,,1,24,104,5,1,,,,,,,,,,,,,,,,,,,,,,,,,,,,,,,,,,
,,,,,,,,,,,,,,1,001,2024-08-23_19h38.02.637,IAT(Formal),2021.2.3,Win32,120.875136,,,,,,,,,,,,,,,i,1,0.482,,,,,,其他,i,,,1,25,105,69,1,,,,,,,,,,,,,,,,,,,,,,,,,,,,,,,,,,
,,,,,,,,,,,,,,1,001,2024-08-23_19h38.02.637,IAT(Formal),2021.2.3,Win32,120.875136,,,,,,,,,,,,,,,e,1,0.5964,,,,,,乐观,e,,,1,26,106,14,1,,,,,,,,,,,,,,,,,,,,,,,,,,,,,,,,,,
,,,,,,,,,,,,,,1,001,2024-08-23_19h38.02.637,IAT(Formal),2021.2.3,Win32,120.875136,,,,,,,,,,,,,,,i,1,0.8377,,,,,,他们,i,,,1,27,107,56,1,,,,,,,,,,,,,,,,,,,,,,,,,,,,,,,,,,
,,,,,,,,,,,,,,1,001,2024-08-23_19h38.02.637,IAT(Formal),2021.2.3,Win32,120.875136,,,,,,,,,,,,,,,i,1,0.6227,,,,,,他们,i,,,1,28,108,6,1,,,,,,,,,,,,,,,,,,,,,,,,,,,,,,,,,,
,,,,,,,,,,,,,,1,001,2024-08-23_19h38.02.637,IAT(Formal),2021.2.3,Win32,120.875136,,,,,,,,,,,,,,,i,1,0.911,,,,,,散漫,i,,,1,29,109,41,1,,,,,,,,,,,,,,,,,,,,,,,,,,,,,,,,,,
,,,,,,,,,,,,,,1,001,2024-08-23_19h38.02.637,IAT(Formal),2021.2.3,Win32,120.875136,,,,,,,,,,,,,,,i,1,0.5404,,,,,,卑鄙,i,,,1,30,110,30,1,,,,,,,,,,,,,,,,,,,,,,,,,,,,,,,,,,
,,,,,,,,,,,,,,1,001,2024-08-23_19h38.02.637,IAT(Formal),2021.2.3,Win32,120.875136,,,,,,,,,,,,,,,e,1,0.6151,,,,,,崇高,e,,,1,31,111,11,1,,,,,,,,,,,,,,,,,,,,,,,,,,,,,,,,,,
,,,,,,,,,,,,,,1,001,2024-08-23_19h38.02.637,IAT(Formal),2021.2.3,Win32,120.875136,,,,,,,,,,,,,,,i,1,0.6502,,,,,,他,i,,,1,32,112,65,1,,,,,,,,,,,,,,,,,,,,,,,,,,,,,,,,,,
,,,,,,,,,,,,,,1,001,2024-08-23_19h38.02.637,IAT(Formal),2021.2.3,Win32,120.875136,,,,,,,,,,,,,,,e,1,0.4865,,,,,,我们,e,,,1,33,113,2,1,,,,,,,,,,,,,,,,,,,,,,,,,,,,,,,,,,
,,,,,,,,,,,,,,1,001,2024-08-23_19h38.02.637,IAT(Formal),2021.2.3,Win32,120.875136,,,,,,,,,,,,,,,e,1,0.4553,,,,,,我们,e,,,1,34,114,52,1,,,,,,,,,,,,,,,,,,,,,,,,,,,,,,,,,,
,,,,,,,,,,,,,,1,001,2024-08-23_19h38.02.637,IAT(Formal),2021.2.3,Win32,120.875136,,,,,,,,,,,,,,,e,1,0.4753,,,,,,我们,e,,,1,35,115,72,1,,,,,,,,,,,,,,,,,,,,,,,,,,,,,,,,,,
,,,,,,,,,,,,,,1,001,2024-08-23_19h38.02.637,IAT(Formal),2021.2.3,Win32,120.875136,,,,,,,,,,,,,,,e,1,0.5135,,,,,,俺,e,,,1,36,116,64,1,,,,,,,,,,,,,,,,,,,,,,,,,,,,,,,,,,
,,,,,,,,,,,,,,1,001,2024-08-23_19h38.02.637,IAT(Formal),2021.2.3,Win32,120.875136,,,,,,,,,,,,,,,e,1,0.6037,,,,,,俺,e,,,1,37,117,4,1,,,,,,,,,,,,,,,,,,,,,,,,,,,,,,,,,,
,,,,,,,,,,,,,,1,001,2024-08-23_19h38.02.637,IAT(Formal),2021.2.3,Win32,120.875136,,,,,,,,,,,,,,,i,1,0.6072,,,,,,悲观,i,,,1,38,118,34,1,,,,,,,,,,,,,,,,,,,,,,,,,,,,,,,,,,
,,,,,,,,,,,,,,1,001,2024-08-23_19h38.02.637,IAT(Formal),2021.2.3,Win32,120.875136,,,,,,,,,,,,,,,i,0,0.5402,,,,,,自己,e,,,1,39,119,63,1,,,,,,,,,,,,,,,,,,,,,,,,,,,,,,,,,,
,,,,,,,,,,,,,,1,001,2024-08-23_19h38.02.637,IAT(Formal),2021.2.3,Win32,120.875136,,,,,,,,,,,,,,,i,1,0.5826,,,,,,他人,i,,,1,40,120,68,1,,,,,,,,,,,,,,,,,,,,,,,,,,,,,,,,,,
,,,,,,,,,,,,,,1,001,2024-08-23_19h38.02.637,IAT(Formal),2021.2.3,Win32,120.875136,,,,,,,,,,,,,,,e,1,0.4996,,,,,,我们,e,,,1,41,121,62,1,,,,,,,,,,,,,,,,,,,,,,,,,,,,,,,,,,
,,,,,,,,,,,,,,1,001,2024-08-23_19h38.02.637,IAT(Formal),2021.2.3,Win32,120.875136,,,,,,,,,,,,,,,i,1,0.486,,,,,,愚蠢,i,,,1,42,122,32,1,,,,,,,,,,,,,,,,,,,,,,,,,,,,,,,,,,
,,,,,,,,,,,,,,1,001,2024-08-23_19h38.02.637,IAT(Formal),2021.2.3,Win32,120.875136,,,,,,,,,,,,,,,i,1,0.4935,,,,,,凶狠,i,,,1,43,123,42,1,,,,,,,,,,,,,,,,,,,,,,,,,,,,,,,,,,
,,,,,,,,,,,,,,1,001,2024-08-23_19h38.02.637,IAT(Formal),2021.2.3,Win32,120.875136,,,,,,,,,,,,,,,e,1,0.6,,,,,,勇敢,e,,,1,44,124,17,1,,,,,,,,,,,,,,,,,,,,,,,,,,,,,,,,,,
,,,,,,,,,,,,,,1,001,2024-08-23_19h38.02.637,IAT(Formal),2021.2.3,Win32,120.875136,,,,,,,,,,,,,,,i,1,0.5902,,,,,,他,i,,,1,45,125,55,1,,,,,,,,,,,,,,,,,,,,,,,,,,,,,,,,,,
,,,,,,,,,,,,,,1,001,2024-08-23_19h38.02.637,IAT(Formal),2021.2.3,Win32,120.875136,,,,,,,,,,,,,,,e,1,0.5239,,,,,,无私,e,,,1,46,126,22,1,,,,,,,,,,,,,,,,,,,,,,,,,,,,,,,,,,
,,,,,,,,,,,,,,1,001,2024-08-23_19h38.02.637,IAT(Formal),2021.2.3,Win32,120.875136,,,,,,,,,,,,,,,i,1,0.7601,,,,,,他人,i,,,1,47,127,78,1,,,,,,,,,,,,,,,,,,,,,,,,,,,,,,,,,,
,,,,,,,,,,,,,,1,001,2024-08-23_19h38.02.637,IAT(Formal),2021.2.3,Win32,120.875136,,,,,,,,,,,,,,,i,1,0.6824,,,,,,他的,i,,,1,48,128,7,1,,,,,,,,,,,,,,,,,,,,,,,,,,,,,,,,,,
,,,,,,,,,,,,,,1,001,2024-08-23_19h38.02.637,IAT(Formal),2021.2.3,Win32,120.875136,,,,,,,,,,,,,,,e,1,0.4985,,,,,,我,e,,,1,49,129,60,1,,,,,,,,,,,,,,,,,,,,,,,,,,,,,,,,,,
,,,,,,,,,,,,,,1,001,2024-08-23_19h38.02.637,IAT(Formal),2021.2.3,Win32,120.875136,,,,,,,,,,,,,,,e,1,1.086,,,,,,认真,e,,,1,50,130,20,1,,,,,,,,,,,,,,,,,,,,,,,,,,,,,,,,,,
,,,,,,,,,,,,,,1,001,2024-08-23_19h38.02.637,IAT(Formal),2021.2.3,Win32,120.875136,,,,,,,,,,,,,,,i,1,0.5013,,,,,,轻率,i,,,1,51,131,48,1,,,,,,,,,,,,,,,,,,,,,,,,,,,,,,,,,,
,,,,,,,,,,,,,,1,001,2024-08-23_19h38.02.637,IAT(Formal),2021.2.3,Win32,120.875136,,,,,,,,,,,,,,,i,1,0.455,,,,,,固执,i,,,1,52,132,47,1,,,,,,,,,,,,,,,,,,,,,,,,,,,,,,,,,,
,,,,,,,,,,,,,,1,001,2024-08-23_19h38.02.637,IAT(Formal),2021.2.3,Win32,120.875136,,,,,,,,,,,,,,,i,1,0.5094,,,,,,鲁莽,i,,,1,53,133,38,1,,,,,,,,,,,,,,,,,,,,,,,,,,,,,,,,,,
,,,,,,,,,,,,,,1,001,2024-08-23_19h38.02.637,IAT(Formal),2021.2.3,Win32,120.875136,,,,,,,,,,,,,,,e,0,0.594,,,,,,他人,i,,,1,54,134,58,1,,,,,,,,,,,,,,,,,,,,,,,,,,,,,,,,,,
,,,,,,,,,,,,,,1,001,2024-08-23_19h38.02.637,IAT(Formal),2021.2.3,Win32,120.875136,,,,,,,,,,,,,,,i,1,0.5109,,,,,,其他,i,,,1,55,135,79,1,,,,,,,,,,,,,,,,,,,,,,,,,,,,,,,,,,
,,,,,,,,,,,,,,1,001,2024-08-23_19h38.02.637,IAT(Formal),2021.2.3,Win32,120.875136,,,,,,,,,,,,,,,e,1,0.4756,,,,,,我,e,,,1,56,136,0,1,,,,,,,,,,,,,,,,,,,,,,,,,,,,,,,,,,
,,,,,,,,,,,,,,1,001,2024-08-23_19h38.02.637,IAT(Formal),2021.2.3,Win32,120.875136,,,,,,,,,,,,,,,i,1,0.5711,,,,,,猖狂,i,,,1,57,137,45,1,,,,,,,,,,,,,,,,,,,,,,,,,,,,,,,,,,
,,,,,,,,,,,,,,1,001,2024-08-23_19h38.02.637,IAT(Formal),2021.2.3,Win32,120.875136,,,,,,,,,,,,,,,i,0,0.4316,,,,,,勤奋,e,,,1,58,138,18,1,,,,,,,,,,,,,,,,,,,,,,,,,,,,,,,,,,
,,,,,,,,,,,,,,1,001,2024-08-23_19h38.02.637,IAT(Formal),2021.2.3,Win32,120.875136,,,,,,,,,,,,,,,e,1,0.5737,,,,,,自己,e,,,1,59,139,53,1,,,,,,,,,,,,,,,,,,,,,,,,,,,,,,,,,,
,,,,,,,,,,,,,,1,001,2024-08-23_19h38.02.637,IAT(Formal),2021.2.3,Win32,120.875136,,,,,,,,,,,,,,,e,1,0.8247,,,,,,细腻,e,,,1,60,140,25,1,,,,,,,,,,,,,,,,,,,,,,,,,,,,,,,,,,
,,,,,,,,,,,,,,1,001,2024-08-23_19h38.02.637,IAT(Formal),2021.2.3,Win32,120.875136,,,,,,,,,,,,,,,e,1,0.5587,,,,,,稳重,e,,,1,61,141,21,1,,,,,,,,,,,,,,,,,,,,,,,,,,,,,,,,,,
,,,,,,,,,,,,,,1,001,2024-08-23_19h38.02.637,IAT(Formal),2021.2.3,Win32,120.875136,,,,,,,,,,,,,,,i,1,0.5496,,,,,,他们,i,,,1,62,142,66,1,,,,,,,,,,,,,,,,,,,,,,,,,,,,,,,,,,
,,,,,,,,,,,,,,1,001,2024-08-23_19h38.02.637,IAT(Formal),2021.2.3,Win32,120.875136,,,,,,,,,,,,,,,e,1,0.4918,,,,,,我的,e,,,1,63,143,61,1,,,,,,,,,,,,,,,,,,,,,,,,,,,,,,,,,,
,,,,,,,,,,,,,,1,001,2024-08-23_19h38.02.637,IAT(Formal),2021.2.3,Win32,120.875136,,,,,,,,,,,,,,,e,1,0.8124,,,,,,机智,e,,,1,64,144,19,1,,,,,,,,,,,,,,,,,,,,,,,,,,,,,,,,,,
,,,,,,,,,,,,,,1,001,2024-08-23_19h38.02.637,IAT(Formal),2021.2.3,Win32,120.875136,,,,,,,,,,,,,,,i,1,0.5358,,,,,,他们,i,,,1,65,145,76,1,,,,,,,,,,,,,,,,,,,,,,,,,,,,,,,,,,
,,,,,,,,,,,,,,1,001,2024-08-23_19h38.02.637,IAT(Formal),2021.2.3,Win32,120.875136,,,,,,,,,,,,,,,e,1,0.5767,,,,,,俺,e,,,1,66,146,74,1,,,,,,,,,,,,,,,,,,,,,,,,,,,,,,,,,,
,,,,,,,,,,,,,,1,001,2024-08-23_19h38.02.637,IAT(Formal),2021.2.3,Win32,120.875136,,,,,,,,,,,,,,,i,1,0.6701,,,,,,他人,i,,,1,67,147,8,1,,,,,,,,,,,,,,,,,,,,,,,,,,,,,,,,,,
,,,,,,,,,,,,,,1,001,2024-08-23_19h38.02.637,IAT(Formal),2021.2.3,Win32,120.875136,,,,,,,,,,,,,,,i,1,0.6622,,,,,,消极,i,,,1,68,148,35,1,,,,,,,,,,,,,,,,,,,,,,,,,,,,,,,,,,
,,,,,,,,,,,,,,1,001,2024-08-23_19h38.02.637,IAT(Formal),2021.2.3,Win32,120.875136,,,,,,,,,,,,,,,i,1,0.5286,,,,,,其他,i,,,1,69,149,59,1,,,,,,,,,,,,,,,,,,,,,,,,,,,,,,,,,,
,,,,,,,,,,,,,,1,001,2024-08-23_19h38.02.637,IAT(Formal),2021.2.3,Win32,120.875136,,,,,,,,,,,,,,,e,1,0.4823,,,,,,我的,e,,,1,70,150,1,1,,,,,,,,,,,,,,,,,,,,,,,,,,,,,,,,,,
,,,,,,,,,,,,,,1,001,2024-08-23_19h38.02.637,IAT(Formal),2021.2.3,Win32,120.875136,,,,,,,,,,,,,,,e,1,0.5029,,,,,,杰出,e,,,1,71,151,13,1,,,,,,,,,,,,,,,,,,,,,,,,,,,,,,,,,,
,,,,,,,,,,,,,,1,001,2024-08-23_19h38.02.637,IAT(Formal),2021.2.3,Win32,120.875136,,,,,,,,,,,,,,,e,1,0.5342,,,,,,优秀,e,,,1,72,152,10,1,,,,,,,,,,,,,,,,,,,,,,,,,,,,,,,,,,
,,,,,,,,,,,,,,1,001,2024-08-23_19h38.02.637,IAT(Formal),2021.2.3,Win32,120.875136,,,,,,,,,,,,,,,i,1,0.4813,,,,,,野蛮,i,,,1,73,153,46,1,,,,,,,,,,,,,,,,,,,,,,,,,,,,,,,,,,
,,,,,,,,,,,,,,1,001,2024-08-23_19h38.02.637,IAT(Formal),2021.2.3,Win32,120.875136,,,,,,,,,,,,,,,e,1,0.4571,,,,,,自己,e,,,1,74,154,73,1,,,,,,,,,,,,,,,,,,,,,,,,,,,,,,,,,,
,,,,,,,,,,,,,,1,001,2024-08-23_19h38.02.637,IAT(Formal),2021.2.3,Win32,120.875136,,,,,,,,,,,,,,,e,1,0.4244,,,,,,我的,e,,,1,75,155,71,1,,,,,,,,,,,,,,,,,,,,,,,,,,,,,,,,,,
,,,,,,,,,,,,,,1,001,2024-08-23_19h38.02.637,IAT(Formal),2021.2.3,Win32,120.875136,,,,,,,,,,,,,,,e,1,0.5294,,,,,,诚恳,e,,,1,76,156,29,1,,,,,,,,,,,,,,,,,,,,,,,,,,,,,,,,,,
,,,,,,,,,,,,,,1,001,2024-08-23_19h38.02.637,IAT(Formal),2021.2.3,Win32,120.875136,,,,,,,,,,,,,,,i,1,0.5598,,,,,,其他,i,,,1,77,157,9,1,,,,,,,,,,,,,,,,,,,,,,,,,,,,,,,,,,
,,,,,,,,,,,,,,1,001,2024-08-23_19h38.02.637,IAT(Formal),2021.2.3,Win32,120.875136,,,,,,,,,,,,,,,e,1,0.5078,,,,,,冷静,e,,,1,78,158,26,1,,,,,,,,,,,,,,,,,,,,,,,,,,,,,,,,,,
,,,,,,,,,,,,,,1,001,2024-08-23_19h38.02.637,IAT(Formal),2021.2.3,Win32,120.875136,,,,,,,,,,,,,,,e,1,0.6327,,,,,,朴实,e,,,1,79,159,24,1,,,,,,,,,,,,,,,,,,,,,,,,,,,,,,,,,,
,,,,,,,,,,,,俺,i,1,001,2024-08-23_19h38.02.637,IAT(Formal),2021.2.3,Win32,120.875136,,,,,,,,,,,,,,,,,,,,,,,,,,,,,,,,space,92.3832,e,0,0.559,0,0,0,4,1,,,,,,,,,,,,,,,,,,,,,,,,
,,,,,,,,,,,,他人,e,1,001,2024-08-23_19h38.02.637,IAT(Formal),2021.2.3,Win32,120.875136,,,,,,,,,,,,,,,,,,,,,,,,,,,,,,,,,,i,0,0.7068,0,1,1,8,1,,,,,,,,,,,,,,,,,,,,,,,,
,,,,,,,,,,,,他们,e,1,001,2024-08-23_19h38.02.637,IAT(Formal),2021.2.3,Win32,120.875136,,,,,,,,,,,,,,,,,,,,,,,,,,,,,,,,,,e,1,0.6818,0,2,2,6,1,,,,,,,,,,,,,,,,,,,,,,,,
,,,,,,,,,,,,其他,e,1,001,2024-08-23_19h38.02.637,IAT(Formal),2021.2.3,Win32,120.875136,,,,,,,,,,,,,,,,,,,,,,,,,,,,,,,,,,e,1,0.4907,0,3,3,9,1,,,,,,,,,,,,,,,,,,,,,,,,
,,,,,,,,,,,,他的,e,1,001,2024-08-23_19h38.02.637,IAT(Formal),2021.2.3,Win32,120.875136,,,,,,,,,,,,,,,,,,,,,,,,,,,,,,,,,,e,1,0.4921,0,4,4,7,1,,,,,,,,,,,,,,,,,,,,,,,,
,,,,,,,,,,,,他,e,1,001,2024-08-23_19h38.02.637,IAT(Formal),2021.2.3,Win32,120.875136,,,,,,,,,,,,,,,,,,,,,,,,,,,,,,,,,,e,1,0.3954,0,5,5,5,1,,,,,,,,,,,,,,,,,,,,,,,,
,,,,,,,,,,,,我的,i,1,001,2024-08-23_19h38.02.637,IAT(Formal),2021.2.3,Win32,120.875136,,,,,,,,,,,,,,,,,,,,,,,,,,,,,,,,,,i,1,0.4186,0,6,6,1,1,,,,,,,,,,,,,,,,,,,,,,,,
,,,,,,,,,,,,我,i,1,001,2024-08-23_19h38.02.637,IAT(Formal),2021.2.3,Win32,120.875136,,,,,,,,,,,,,,,,,,,,,,,,,,,,,,,,,,i,1,0.3355,0,7,7,0,1,,,,,,,,,,,,,,,,,,,,,,,,
,,,,,,,,,,,,我们,i,1,001,2024-08-23_19h38.02.637,IAT(Formal),2021.2.3,Win32,120.875136,,,,,,,,,,,,,,,,,,,,,,,,,,,,,,,,,,i,1,0.3843,0,8,8,2,1,,,,,,,,,,,,,,,,,,,,,,,,
,,,,,,,,,,,,自己,i,1,001,2024-08-23_19h38.02.637,IAT(Formal),2021.2.3,Win32,120.875136,,,,,,,,,,,,,,,,,,,,,,,,,,,,,,,,,,i,1,0.545,0,9,9,3,1,,,,,,,,,,,,,,,,,,,,,,,,
,,,,,,,,,,,,,,1,001,2024-08-23_19h38.02.637,IAT(Formal),2021.2.3,Win32,120.875136,,,,,,,,,,,,,,,,,,,,,,,,,,,,,,,,,,,,,,,,,,space,5.9383,e,1,0.6331,0,0,0,8,1,他人,e,,,,,,,,,,,,
,,,,,,,,,,,,,,1,001,2024-08-23_19h38.02.637,IAT(Formal),2021.2.3,Win32,120.875136,,,,,,,,,,,,,,,,,,,,,,,,,,,,,,,,,,,,,,,,,,,,i,1,0.4051,0,1,1,50,1,我,i,,,,,,,,,,,,
,,,,,,,,,,,,,,1,001,2024-08-23_19h38.02.637,IAT(Formal),2021.2.3,Win32,120.875136,,,,,,,,,,,,,,,,,,,,,,,,,,,,,,,,,,,,,,,,,,,,e,1,0.5783,0,2,2,11,1,崇高,e,,,,,,,,,,,,
,,,,,,,,,,,,,,1,001,2024-08-23_19h38.02.637,IAT(Formal),2021.2.3,Win32,120.875136,,,,,,,,,,,,,,,,,,,,,,,,,,,,,,,,,,,,,,,,,,,,i,1,0.5706,0,3,3,32,1,愚蠢,i,,,,,,,,,,,,
,,,,,,,,,,,,,,1,001,2024-08-23_19h38.02.637,IAT(Formal),2021.2.3,Win32,120.875136,,,,,,,,,,,,,,,,,,,,,,,,,,,,,,,,,,,,,,,,,,,,e,1,1.2238,0,4,4,24,1,朴实,e,,,,,,,,,,,,
,,,,,,,,,,,,,,1,001,2024-08-23_19h38.02.637,IAT(Formal),2021.2.3,Win32,120.875136,,,,,,,,,,,,,,,,,,,,,,,,,,,,,,,,,,,,,,,,,,,,e,1,0.5825,0,5,5,18,1,勤奋,e,,,,,,,,,,,,
,,,,,,,,,,,,,,1,001,2024-08-23_19h38.02.637,IAT(Formal),2021.2.3,Win32,120.875136,,,,,,,,,,,,,,,,,,,,,,,,,,,,,,,,,,,,,,,,,,,,e,1,0.5408,0,6,6,26,1,冷静,e,,,,,,,,,,,,
,,,,,,,,,,,,,,1,001,2024-08-23_19h38.02.637,IAT(Formal),2021.2.3,Win32,120.875136,,,,,,,,,,,,,,,,,,,,,,,,,,,,,,,,,,,,,,,,,,,,i,1,0.9165,0,7,7,42,1,凶狠,i,,,,,,,,,,,,
,,,,,,,,,,,,,,1,001,2024-08-23_19h38.02.637,IAT(Formal),2021.2.3,Win32,120.875136,,,,,,,,,,,,,,,,,,,,,,,,,,,,,,,,,,,,,,,,,,,,e,1,1.13,0,8,8,25,1,细腻,e,,,,,,,,,,,,
,,,,,,,,,,,,,,1,001,2024-08-23_19h38.02.637,IAT(Formal),2021.2.3,Win32,120.875136,,,,,,,,,,,,,,,,,,,,,,,,,,,,,,,,,,,,,,,,,,,,i,1,0.544,0,9,9,61,1,我的,i,,,,,,,,,,,,
,,,,,,,,,,,,,,1,001,2024-08-23_19h38.02.637,IAT(Formal),2021.2.3,Win32,120.875136,,,,,,,,,,,,,,,,,,,,,,,,,,,,,,,,,,,,,,,,,,,,e,1,0.5483,0,10,10,55,1,他,e,,,,,,,,,,,,
,,,,,,,,,,,,,,1,001,2024-08-23_19h38.02.637,IAT(Formal),2021.2.3,Win32,120.875136,,,,,,,,,,,,,,,,,,,,,,,,,,,,,,,,,,,,,,,,,,,,e,1,0.3866,0,11,11,68,1,他人,e,,,,,,,,,,,,
,,,,,,,,,,,,,,1,001,2024-08-23_19h38.02.637,IAT(Formal),2021.2.3,Win32,120.875136,,,,,,,,,,,,,,,,,,,,,,,,,,,,,,,,,,,,,,,,,,,,e,0,1.4078,0,12,12,47,1,固执,i,,,,,,,,,,,,
,,,,,,,,,,,,,,1,001,2024-08-23_19h38.02.637,IAT(Formal),2021.2.3,Win32,120.875136,,,,,,,,,,,,,,,,,,,,,,,,,,,,,,,,,,,,,,,,,,,,i,1,0.9277,0,13,13,40,1,执拗,i,,,,,,,,,,,,
,,,,,,,,,,,,,,1,001,2024-08-23_19h38.02.637,IAT(Formal),2021.2.3,Win32,120.875136,,,,,,,,,,,,,,,,,,,,,,,,,,,,,,,,,,,,,,,,,,,,i,1,0.5247,0,14,14,3,1,自己,i,,,,,,,,,,,,
,,,,,,,,,,,,,,1,001,2024-08-23_19h38.02.637,IAT(Formal),2021.2.3,Win32,120.875136,,,,,,,,,,,,,,,,,,,,,,,,,,,,,,,,,,,,,,,,,,,,e,1,0.9758,0,15,15,75,1,他,e,,,,,,,,,,,,
,,,,,,,,,,,,,,1,001,2024-08-23_19h38.02.637,IAT(Formal),2021.2.3,Win32,120.875136,,,,,,,,,,,,,,,,,,,,,,,,,,,,,,,,,,,,,,,,,,,,i,1,0.486,0,16,16,72,1,我们,i,,,,,,,,,,,,
,,,,,,,,,,,,,,1,001,2024-08-23_19h38.02.637,IAT(Formal),2021.2.3,Win32,120.875136,,,,,,,,,,,,,,,,,,,,,,,,,,,,,,,,,,,,,,,,,,,,e,1,0.8316,0,17,17,17,1,勇敢,e,,,,,,,,,,,,
,,,,,,,,,,,,,,1,001,2024-08-23_19h38.02.637,IAT(Formal),2021.2.3,Win32,120.875136,,,,,,,,,,,,,,,,,,,,,,,,,,,,,,,,,,,,,,,,,,,,i,1,0.6038,0,18,18,4,1,俺,i,,,,,,,,,,,,
,,,,,,,,,,,,,,1,001,2024-08-23_19h38.02.637,IAT(Formal),2021.2.3,Win32,120.875136,,,,,,,,,,,,,,,,,,,,,,,,,,,,,,,,,,,,,,,,,,,,e,1,0.5535,0,19,19,66,1,他们,e,,,,,,,,,,,,
,,,,,,,,,,,,,,1,001,2024-08-23_19h38.02.637,IAT(Formal),2021.2.3,Win32,120.875136,,,,,,,,,,,,,,,,,,,,,,,,,,,,,,,,,,,,,,,,,,,,e,1,0.7812,0,20,20,21,1,稳重,e,,,,,,,,,,,,
,,,,,,,,,,,,,,1,001,2024-08-23_19h38.02.637,IAT(Formal),2021.2.3,Win32,120.875136,,,,,,,,,,,,,,,,,,,,,,,,,,,,,,,,,,,,,,,,,,,,e,1,0.4915,0,21,21,27,1,热情,e,,,,,,,,,,,,
,,,,,,,,,,,,,,1,001,2024-08-23_19h38.02.637,IAT(Formal),2021.2.3,Win32,120.875136,,,,,,,,,,,,,,,,,,,,,,,,,,,,,,,,,,,,,,,,,,,,e,1,0.503,0,22,22,67,1,他的,e,,,,,,,,,,,,
,,,,,,,,,,,,,,1,001,2024-08-23_19h38.02.637,IAT(Formal),2021.2.3,Win32,120.875136,,,,,,,,,,,,,,,,,,,,,,,,,,,,,,,,,,,,,,,,,,,,e,1,0.8405,0,23,23,28,1,活泼,e,,,,,,,,,,,,
,,,,,,,,,,,,,,1,001,2024-08-23_19h38.02.637,IAT(Formal),2021.2.3,Win32,120.875136,,,,,,,,,,,,,,,,,,,,,,,,,,,,,,,,,,,,,,,,,,,,i,1,0.4915,0,24,24,62,1,我们,i,,,,,,,,,,,,
,,,,,,,,,,,,,,1,001,2024-08-23_19h38.02.637,IAT(Formal),2021.2.3,Win32,120.875136,,,,,,,,,,,,,,,,,,,,,,,,,,,,,,,,,,,,,,,,,,,,i,1,1.1813,0,25,25,35,1,消极,i,,,,,,,,,,,,
,,,,,,,,,,,,,,1,001,2024-08-23_19h38.02.637,IAT(Formal),2021.2.3,Win32,120.875136,,,,,,,,,,,,,,,,,,,,,,,,,,,,,,,,,,,,,,,,,,,,i,1,0.4379,0,26,26,31,1,虚伪,i,,,,,,,,,,,,
,,,,,,,,,,,,,,1,001,2024-08-23_19h38.02.637,IAT(Formal),2021.2.3,Win32,120.875136,,,,,,,,,,,,,,,,,,,,,,,,,,,,,,,,,,,,,,,,,,,,e,1,0.748,0,27,27,29,1,诚恳,e,,,,,,,,,,,,
,,,,,,,,,,,,,,1,001,2024-08-23_19h38.02.637,IAT(Formal),2021.2.3,Win32,120.875136,,,,,,,,,,,,,,,,,,,,,,,,,,,,,,,,,,,,,,,,,,,,i,1,0.4206,0,28,28,49,1,下贱,i,,,,,,,,,,,,
,,,,,,,,,,,,,,1,001,2024-08-23_19h38.02.637,IAT(Formal),2021.2.3,Win32,120.875136,,,,,,,,,,,,,,,,,,,,,,,,,,,,,,,,,,,,,,,,,,,,e,1,0.6789,0,29,29,20,1,认真,e,,,,,,,,,,,,
,,,,,,,,,,,,,,1,001,2024-08-23_19h38.02.637,IAT(Formal),2021.2.3,Win32,120.875136,,,,,,,,,,,,,,,,,,,,,,,,,,,,,,,,,,,,,,,,,,,,e,1,0.7829,0,30,30,69,1,其他,e,,,,,,,,,,,,
,,,,,,,,,,,,,,1,001,2024-08-23_19h38.02.637,IAT(Formal),2021.2.3,Win32,120.875136,,,,,,,,,,,,,,,,,,,,,,,,,,,,,,,,,,,,,,,,,,,,e,1,0.4913,0,31,31,65,1,他,e,,,,,,,,,,,,
,,,,,,,,,,,,,,1,001,2024-08-23_19h38.02.637,IAT(Formal),2021.2.3,Win32,120.875136,,,,,,,,,,,,,,,,,,,,,,,,,,,,,,,,,,,,,,,,,,,,i,1,0.9959,0,32,32,37,1,傲慢,i,,,,,,,,,,,,
,,,,,,,,,,,,,,1,001,2024-08-23_19h38.02.637,IAT(Formal),2021.2.3,Win32,120.875136,,,,,,,,,,,,,,,,,,,,,,,,,,,,,,,,,,,,,,,,,,,,i,0,0.6039,0,33,33,5,1,他,e,,,,,,,,,,,,
,,,,,,,,,,,,,,1,001,2024-08-23_19h38.02.637,IAT(Formal),2021.2.3,Win32,120.875136,,,,,,,,,,,,,,,,,,,,,,,,,,,,,,,,,,,,,,,,,,,,i,1,0.5483,0,34,34,73,1,自己,i,,,,,,,,,,,,
,,,,,,,,,,,,,,1,001,2024-08-23_19h38.02.637,IAT(Formal),2021.2.3,Win32,120.875136,,,,,,,,,,,,,,,,,,,,,,,,,,,,,,,,,,,,,,,,,,,,e,1,0.6843,0,35,35,15,1,诚实,e,,,,,,,,,,,,
,,,,,,,,,,,,,,1,001,2024-08-23_19h38.02.637,IAT(Formal),2021.2.3,Win32,120.875136,,,,,,,,,,,,,,,,,,,,,,,,,,,,,,,,,,,,,,,,,,,,e,1,0.6639,0,36,36,57,1,他的,e,,,,,,,,,,,,
,,,,,,,,,,,,,,1,001,2024-08-23_19h38.02.637,IAT(Formal),2021.2.3,Win32,120.875136,,,,,,,,,,,,,,,,,,,,,,,,,,,,,,,,,,,,,,,,,,,,e,1,0.6046,0,37,37,13,1,杰出,e,,,,,,,,,,,,
,,,,,,,,,,,,,,1,001,2024-08-23_19h38.02.637,IAT(Formal),2021.2.3,Win32,120.875136,,,,,,,,,,,,,,,,,,,,,,,,,,,,,,,,,,,,,,,,,,,,e,1,0.4737,0,38,38,56,1,他们,e,,,,,,,,,,,,
,,,,,,,,,,,,,,1,001,2024-08-23_19h38.02.637,IAT(Formal),2021.2.3,Win32,120.875136,,,,,,,,,,,,,,,,,,,,,,,,,,,,,,,,,,,,,,,,,,,,i,1,1.1267,0,39,39,34,1,悲观,i,,,,,,,,,,,,
,,,,,,,,,,,,,,1,001,2024-08-23_19h38.02.637,IAT(Formal),2021.2.3,Win32,120.875136,,,,,,,,,,,,,,,,,,,,,,,,,,,,,,,,,,,,,,,,,,,,i,1,1.3206,0,40,40,52,1,我们,i,,,,,,,,,,,,
,,,,,,,,,,,,,,1,001,2024-08-23_19h38.02.637,IAT(Formal),2021.2.3,Win32,120.875136,,,,,,,,,,,,,,,,,,,,,,,,,,,,,,,,,,,,,,,,,,,,,0,,0,41,41,22,1,无私,e,,,,,,,,,,,,
,,,,,,,,,,,,,,1,001,2024-08-23_19h38.02.637,IAT(Formal),2021.2.3,Win32,120.875136,,,,,,,,,,,,,,,,,,,,,,,,,,,,,,,,,,,,,,,,,,,,e,1,0.6534,0,42,42,12,1,聪明,e,,,,,,,,,,,,
,,,,,,,,,,,,,,1,001,2024-08-23_19h38.02.637,IAT(Formal),2021.2.3,Win32,120.875136,,,,,,,,,,,,,,,,,,,,,,,,,,,,,,,,,,,,,,,,,,,,i,1,0.575,0,43,43,38,1,鲁莽,i,,,,,,,,,,,,
,,,,,,,,,,,,,,1,001,2024-08-23_19h38.02.637,IAT(Formal),2021.2.3,Win32,120.875136,,,,,,,,,,,,,,,,,,,,,,,,,,,,,,,,,,,,,,,,,,,,i,1,0.5802,0,44,44,51,1,我的,i,,,,,,,,,,,,
,,,,,,,,,,,,,,1,001,2024-08-23_19h38.02.637,IAT(Formal),2021.2.3,Win32,120.875136,,,,,,,,,,,,,,,,,,,,,,,,,,,,,,,,,,,,,,,,,,,,e,1,0.5351,0,45,45,23,1,公正,e,,,,,,,,,,,,
,,,,,,,,,,,,,,1,001,2024-08-23_19h38.02.637,IAT(Formal),2021.2.3,Win32,120.875136,,,,,,,,,,,,,,,,,,,,,,,,,,,,,,,,,,,,,,,,,,,,e,1,0.5361,0,46,46,19,1,机智,e,,,,,,,,,,,,
,,,,,,,,,,,,,,1,001,2024-08-23_19h38.02.637,IAT(Formal),2021.2.3,Win32,120.875136,,,,,,,,,,,,,,,,,,,,,,,,,,,,,,,,,,,,,,,,,,,,i,0,0.5184,0,47,47,76,1,他们,e,,,,,,,,,,,,
,,,,,,,,,,,,,,1,001,2024-08-23_19h38.02.637,IAT(Formal),2021.2.3,Win32,120.875136,,,,,,,,,,,,,,,,,,,,,,,,,,,,,,,,,,,,,,,,,,,,e,1,0.5108,0,48,48,9,1,其他,e,,,,,,,,,,,,
,,,,,,,,,,,,,,1,001,2024-08-23_19h38.02.637,IAT(Formal),2021.2.3,Win32,120.875136,,,,,,,,,,,,,,,,,,,,,,,,,,,,,,,,,,,,,,,,,,,,i,1,0.552,0,49,49,63,1,自己,i,,,,,,,,,,,,
,,,,,,,,,,,,,,1,001,2024-08-23_19h38.02.637,IAT(Formal),2021.2.3,Win32,120.875136,,,,,,,,,,,,,,,,,,,,,,,,,,,,,,,,,,,,,,,,,,,,e,1,0.7503,0,50,50,7,1,他的,e,,,,,,,,,,,,
,,,,,,,,,,,,,,1,001,2024-08-23_19h38.02.637,IAT(Formal),2021.2.3,Win32,120.875136,,,,,,,,,,,,,,,,,,,,,,,,,,,,,,,,,,,,,,,,,,,,e,1,0.6317,0,51,51,6,1,他们,e,,,,,,,,,,,,
,,,,,,,,,,,,,,1,001,2024-08-23_19h38.02.637,IAT(Formal),2021.2.3,Win32,120.875136,,,,,,,,,,,,,,,,,,,,,,,,,,,,,,,,,,,,,,,,,,,,i,1,0.8045,0,52,52,36,1,自卑,i,,,,,,,,,,,,
,,,,,,,,,,,,,,1,001,2024-08-23_19h38.02.637,IAT(Formal),2021.2.3,Win32,120.875136,,,,,,,,,,,,,,,,,,,,,,,,,,,,,,,,,,,,,,,,,,,,i,1,0.449,0,53,53,39,1,冒失,i,,,,,,,,,,,,
,,,,,,,,,,,,,,1,001,2024-08-23_19h38.02.637,IAT(Formal),2021.2.3,Win32,120.875136,,,,,,,,,,,,,,,,,,,,,,,,,,,,,,,,,,,,,,,,,,,,e,1,0.758,0,54,54,77,1,他的,e,,,,,,,,,,,,
,,,,,,,,,,,,,,1,001,2024-08-23_19h38.02.637,IAT(Formal),2021.2.3,Win32,120.875136,,,,,,,,,,,,,,,,,,,,,,,,,,,,,,,,,,,,,,,,,,,,i,1,0.5651,0,55,55,2,1,我们,i,,,,,,,,,,,,
,,,,,,,,,,,,,,1,001,2024-08-23_19h38.02.637,IAT(Formal),2021.2.3,Win32,120.875136,,,,,,,,,,,,,,,,,,,,,,,,,,,,,,,,,,,,,,,,,,,,e,1,0.8364,0,56,56,14,1,乐观,e,,,,,,,,,,,,
,,,,,,,,,,,,,,1,001,2024-08-23_19h38.02.637,IAT(Formal),2021.2.3,Win32,120.875136,,,,,,,,,,,,,,,,,,,,,,,,,,,,,,,,,,,,,,,,,,,,i,1,0.7123,0,57,57,41,1,散漫,i,,,,,,,,,,,,
,,,,,,,,,,,,,,1,001,2024-08-23_19h38.02.637,IAT(Formal),2021.2.3,Win32,120.875136,,,,,,,,,,,,,,,,,,,,,,,,,,,,,,,,,,,,,,,,,,,,e,1,0.5508,0,58,58,59,1,其他,e,,,,,,,,,,,,
,,,,,,,,,,,,,,1,001,2024-08-23_19h38.02.637,IAT(Formal),2021.2.3,Win32,120.875136,,,,,,,,,,,,,,,,,,,,,,,,,,,,,,,,,,,,,,,,,,,,i,1,0.476,0,59,59,30,1,卑鄙,i,,,,,,,,,,,,
,,,,,,,,,,,,,,1,001,2024-08-23_19h38.02.637,IAT(Formal),2021.2.3,Win32,120.875136,,,,,,,,,,,,,,,,,,,,,,,,,,,,,,,,,,,,,,,,,,,,e,1,0.4353,0,60,60,78,1,他人,e,,,,,,,,,,,,
,,,,,,,,,,,,,,1,001,2024-08-23_19h38.02.637,IAT(Formal),2021.2.3,Win32,120.875136,,,,,,,,,,,,,,,,,,,,,,,,,,,,,,,,,,,,,,,,,,,,i,1,1.0778,0,61,61,64,1,俺,i,,,,,,,,,,,,
,,,,,,,,,,,,,,1,001,2024-08-23_19h38.02.637,IAT(Formal),2021.2.3,Win32,120.875136,,,,,,,,,,,,,,,,,,,,,,,,,,,,,,,,,,,,,,,,,,,,i,1,0.4088,0,62,62,74,1,俺,i,,,,,,,,,,,,
,,,,,,,,,,,,,,1,001,2024-08-23_19h38.02.637,IAT(Formal),2021.2.3,Win32,120.875136,,,,,,,,,,,,,,,,,,,,,,,,,,,,,,,,,,,,,,,,,,,,i,1,0.4242,0,63,63,0,1,我,i,,,,,,,,,,,,
,,,,,,,,,,,,,,1,001,2024-08-23_19h38.02.637,IAT(Formal),2021.2.3,Win32,120.875136,,,,,,,,,,,,,,,,,,,,,,,,,,,,,,,,,,,,,,,,,,,,e,1,0.607,0,64,64,16,1,正直,e,,,,,,,,,,,,
,,,,,,,,,,,,,,1,001,2024-08-23_19h38.02.637,IAT(Formal),2021.2.3,Win32,120.875136,,,,,,,,,,,,,,,,,,,,,,,,,,,,,,,,,,,,,,,,,,,,i,1,0.6601,0,65,65,54,1,俺,i,,,,,,,,,,,,
,,,,,,,,,,,,,,1,001,2024-08-23_19h38.02.637,IAT(Formal),2021.2.3,Win32,120.875136,,,,,,,,,,,,,,,,,,,,,,,,,,,,,,,,,,,,,,,,,,,,i,1,1.0253,0,66,66,53,1,自己,i,,,,,,,,,,,,
,,,,,,,,,,,,,,1,001,2024-08-23_19h38.02.637,IAT(Formal),2021.2.3,Win32,120.875136,,,,,,,,,,,,,,,,,,,,,,,,,,,,,,,,,,,,,,,,,,,,e,0,0.7799,0,67,67,43,1,自私,i,,,,,,,,,,,,
,,,,,,,,,,,,,,1,001,2024-08-23_19h38.02.637,IAT(Formal),2021.2.3,Win32,120.875136,,,,,,,,,,,,,,,,,,,,,,,,,,,,,,,,,,,,,,,,,,,,i,1,0.6299,0,68,68,45,1,猖狂,i,,,,,,,,,,,,
,,,,,,,,,,,,,,1,001,2024-08-23_19h38.02.637,IAT(Formal),2021.2.3,Win32,120.875136,,,,,,,,,,,,,,,,,,,,,,,,,,,,,,,,,,,,,,,,,,,,i,1,0.7251,0,69,69,71,1,我的,i,,,,,,,,,,,,
,,,,,,,,,,,,,,1,001,2024-08-23_19h38.02.637,IAT(Formal),2021.2.3,Win32,120.875136,,,,,,,,,,,,,,,,,,,,,,,,,,,,,,,,,,,,,,,,,,,,i,1,0.5833,0,70,70,33,1,刻薄,i,,,,,,,,,,,,
,,,,,,,,,,,,,,1,001,2024-08-23_19h38.02.637,IAT(Formal),2021.2.3,Win32,120.875136,,,,,,,,,,,,,,,,,,,,,,,,,,,,,,,,,,,,,,,,,,,,i,1,0.3821,0,71,71,70,1,我,i,,,,,,,,,,,,
,,,,,,,,,,,,,,1,001,2024-08-23_19h38.02.637,IAT(Formal),2021.2.3,Win32,120.875136,,,,,,,,,,,,,,,,,,,,,,,,,,,,,,,,,,,,,,,,,,,,i,1,0.4996,0,72,72,44,1,暴躁,i,,,,,,,,,,,,
,,,,,,,,,,,,,,1,001,2024-08-23_19h38.02.637,IAT(Formal),2021.2.3,Win32,120.875136,,,,,,,,,,,,,,,,,,,,,,,,,,,,,,,,,,,,,,,,,,,,i,1,0.3917,0,73,73,60,1,我,i,,,,,,,,,,,,
,,,,,,,,,,,,,,1,001,2024-08-23_19h38.02.637,IAT(Formal),2021.2.3,Win32,120.875136,,,,,,,,,,,,,,,,,,,,,,,,,,,,,,,,,,,,,,,,,,,,e,1,0.575,0,74,74,10,1,优秀,e,,,,,,,,,,,,
,,,,,,,,,,,,,,1,001,2024-08-23_19h38.02.637,IAT(Formal),2021.2.3,Win32,120.875136,,,,,,,,,,,,,,,,,,,,,,,,,,,,,,,,,,,,,,,,,,,,i,1,0.5675,0,75,75,46,1,野蛮,i,,,,,,,,,,,,
,,,,,,,,,,,,,,1,001,2024-08-23_19h38.02.637,IAT(Formal),2021.2.3,Win32,120.875136,,,,,,,,,,,,,,,,,,,,,,,,,,,,,,,,,,,,,,,,,,,,i,1,0.5656,0,76,76,48,1,轻率,i,,,,,,,,,,,,
,,,,,,,,,,,,,,1,001,2024-08-23_19h38.02.637,IAT(Formal),2021.2.3,Win32,120.875136,,,,,,,,,,,,,,,,,,,,,,,,,,,,,,,,,,,,,,,,,,,,e,1,1.3107,0,77,77,58,1,他人,e,,,,,,,,,,,,
,,,,,,,,,,,,,,1,001,2024-08-23_19h38.02.637,IAT(Formal),2021.2.3,Win32,120.875136,,,,,,,,,,,,,,,,,,,,,,,,,,,,,,,,,,,,,,,,,,,,e,1,0.843,0,78,78,79,1,其他,e,,,,,,,,,,,,
,,,,,,,,,,,,,,1,001,2024-08-23_19h38.02.637,IAT(Formal),2021.2.3,Win32,120.875136,,,,,,,,,,,,,,,,,,,,,,,,,,,,,,,,,,,,,,,,,,,,i,1,0.4906,0,79,79,1,1,我的,i,,,,,,,,,,,,
,,,,,,,,,,,,,,1,001,2024-08-23_19h38.02.637,IAT(Formal),2021.2.3,Win32,120.875136,,,,,,,,,,,,,,,,,,,,,,,,,,,,,,,,,,,,,,,,,,,,,,,,,,,,无私,e,space,108.9173,e,1,1.369,0,0,0,22,1,,
,,,,,,,,,,,,,,1,001,2024-08-23_19h38.02.637,IAT(Formal),2021.2.3,Win32,120.875136,,,,,,,,,,,,,,,,,,,,,,,,,,,,,,,,,,,,,,,,,,,,,,,,,,,,傲慢,i,,,i,1,0.5898,0,1,1,37,1,,
,,,,,,,,,,,,,,1,001,2024-08-23_19h38.02.637,IAT(Formal),2021.2.3,Win32,120.875136,,,,,,,,,,,,,,,,,,,,,,,,,,,,,,,,,,,,,,,,,,,,,,,,,,,,散漫,i,,,i,1,0.6207,0,2,2,41,1,,
,,,,,,,,,,,,,,1,001,2024-08-23_19h38.02.637,IAT(Formal),2021.2.3,Win32,120.875136,,,,,,,,,,,,,,,,,,,,,,,,,,,,,,,,,,,,,,,,,,,,,,,,,,,,俺,i,,,i,1,0.9721,0,3,3,64,1,,
,,,,,,,,,,,,,,1,001,2024-08-23_19h38.02.637,IAT(Formal),2021.2.3,Win32,120.875136,,,,,,,,,,,,,,,,,,,,,,,,,,,,,,,,,,,,,,,,,,,,,,,,,,,,我们,i,,,i,1,0.4569,0,4,4,72,1,,
,,,,,,,,,,,,,,1,001,2024-08-23_19h38.02.637,IAT(Formal),2021.2.3,Win32,120.875136,,,,,,,,,,,,,,,,,,,,,,,,,,,,,,,,,,,,,,,,,,,,,,,,,,,,自己,i,,,i,1,0.5804,0,5,5,63,1,,
,,,,,,,,,,,,,,1,001,2024-08-23_19h38.02.637,IAT(Formal),2021.2.3,Win32,120.875136,,,,,,,,,,,,,,,,,,,,,,,,,,,,,,,,,,,,,,,,,,,,,,,,,,,,其他,e,,,e,1,0.5356,0,6,6,69,1,,
,,,,,,,,,,,,,,1,001,2024-08-23_19h38.02.637,IAT(Formal),2021.2.3,Win32,120.875136,,,,,,,,,,,,,,,,,,,,,,,,,,,,,,,,,,,,,,,,,,,,,,,,,,,,他们,e,,,i,0,0.6583,0,7,7,66,1,,
,,,,,,,,,,,,,,1,001,2024-08-23_19h38.02.637,IAT(Formal),2021.2.3,Win32,120.875136,,,,,,,,,,,,,,,,,,,,,,,,,,,,,,,,,,,,,,,,,,,,,,,,,,,,诚实,e,,,e,1,0.925,0,8,8,15,1,,
,,,,,,,,,,,,,,1,001,2024-08-23_19h38.02.637,IAT(Formal),2021.2.3,Win32,120.875136,,,,,,,,,,,,,,,,,,,,,,,,,,,,,,,,,,,,,,,,,,,,,,,,,,,,杰出,e,,,e,1,0.6405,0,9,9,13,1,,
,,,,,,,,,,,,,,1,001,2024-08-23_19h38.02.637,IAT(Formal),2021.2.3,Win32,120.875136,,,,,,,,,,,,,,,,,,,,,,,,,,,,,,,,,,,,,,,,,,,,,,,,,,,,诚恳,e,,,e,1,0.7817,0,10,10,29,1,,
,,,,,,,,,,,,,,1,001,2024-08-23_19h38.02.637,IAT(Formal),2021.2.3,Win32,120.875136,,,,,,,,,,,,,,,,,,,,,,,,,,,,,,,,,,,,,,,,,,,,,,,,,,,,冷静,e,,,i,0,0.8569,0,11,11,26,1,,
,,,,,,,,,,,,,,1,001,2024-08-23_19h38.02.637,IAT(Formal),2021.2.3,Win32,120.875136,,,,,,,,,,,,,,,,,,,,,,,,,,,,,,,,,,,,,,,,,,,,,,,,,,,,稳重,e,,,e,1,1.14,0,12,12,21,1,,
,,,,,,,,,,,,,,1,001,2024-08-23_19h38.02.637,IAT(Formal),2021.2.3,Win32,120.875136,,,,,,,,,,,,,,,,,,,,,,,,,,,,,,,,,,,,,,,,,,,,,,,,,,,,我,i,,,i,1,0.8198,0,13,13,70,1,,
,,,,,,,,,,,,,,1,001,2024-08-23_19h38.02.637,IAT(Formal),2021.2.3,Win32,120.875136,,,,,,,,,,,,,,,,,,,,,,,,,,,,,,,,,,,,,,,,,,,,,,,,,,,,鲁莽,i,,,,0,,0,14,14,38,1,,
,,,,,,,,,,,,,,1,001,2024-08-23_19h38.02.637,IAT(Formal),2021.2.3,Win32,120.875136,,,,,,,,,,,,,,,,,,,,,,,,,,,,,,,,,,,,,,,,,,,,,,,,,,,,俺,i,,,i,1,0.6171,0,15,15,74,1,,
,,,,,,,,,,,,,,1,001,2024-08-23_19h38.02.637,IAT(Formal),2021.2.3,Win32,120.875136,,,,,,,,,,,,,,,,,,,,,,,,,,,,,,,,,,,,,,,,,,,,,,,,,,,,我们,i,,,i,1,0.5163,0,16,16,2,1,,
,,,,,,,,,,,,,,1,001,2024-08-23_19h38.02.637,IAT(Formal),2021.2.3,Win32,120.875136,,,,,,,,,,,,,,,,,,,,,,,,,,,,,,,,,,,,,,,,,,,,,,,,,,,,他人,e,,,e,1,0.5239,0,17,17,58,1,,
,,,,,,,,,,,,,,1,001,2024-08-23_19h38.02.637,IAT(Formal),2021.2.3,Win32,120.875136,,,,,,,,,,,,,,,,,,,,,,,,,,,,,,,,,,,,,,,,,,,,,,,,,,,,聪明,e,,,e,1,0.8156,0,18,18,12,1,,
,,,,,,,,,,,,,,1,001,2024-08-23_19h38.02.637,IAT(Formal),2021.2.3,Win32,120.875136,,,,,,,,,,,,,,,,,,,,,,,,,,,,,,,,,,,,,,,,,,,,,,,,,,,,勇敢,e,,,e,1,0.4127,0,19,19,17,1,,
,,,,,,,,,,,,,,1,001,2024-08-23_19h38.02.637,IAT(Formal),2021.2.3,Win32,120.875136,,,,,,,,,,,,,,,,,,,,,,,,,,,,,,,,,,,,,,,,,,,,,,,,,,,,固执,i,,,i,1,0.608,0,20,20,47,1,,
,,,,,,,,,,,,,,1,001,2024-08-23_19h38.02.637,IAT(Formal),2021.2.3,Win32,120.875136,,,,,,,,,,,,,,,,,,,,,,,,,,,,,,,,,,,,,,,,,,,,,,,,,,,,他的,e,,,e,1,0.4608,0,21,21,77,1,,
,,,,,,,,,,,,,,1,001,2024-08-23_19h38.02.637,IAT(Formal),2021.2.3,Win32,120.875136,,,,,,,,,,,,,,,,,,,,,,,,,,,,,,,,,,,,,,,,,,,,,,,,,,,,他们,e,,,e,1,0.4785,0,22,22,76,1,,
,,,,,,,,,,,,,,1,001,2024-08-23_19h38.02.637,IAT(Formal),2021.2.3,Win32,120.875136,,,,,,,,,,,,,,,,,,,,,,,,,,,,,,,,,,,,,,,,,,,,,,,,,,,,他,e,,,e,1,0.3799,0,23,23,65,1,,
,,,,,,,,,,,,,,1,001,2024-08-23_19h38.02.637,IAT(Formal),2021.2.3,Win32,120.875136,,,,,,,,,,,,,,,,,,,,,,,,,,,,,,,,,,,,,,,,,,,,,,,,,,,,他们,e,,,e,1,0.4685,0,24,24,6,1,,
,,,,,,,,,,,,,,1,001,2024-08-23_19h38.02.637,IAT(Formal),2021.2.3,Win32,120.875136,,,,,,,,,,,,,,,,,,,,,,,,,,,,,,,,,,,,,,,,,,,,,,,,,,,,其他,e,,,e,1,0.5404,0,25,25,9,1,,
,,,,,,,,,,,,,,1,001,2024-08-23_19h38.02.637,IAT(Formal),2021.2.3,Win32,120.875136,,,,,,,,,,,,,,,,,,,,,,,,,,,,,,,,,,,,,,,,,,,,,,,,,,,,消极,i,,,i,1,0.5064,0,26,26,35,1,,
,,,,,,,,,,,,,,1,001,2024-08-23_19h38.02.637,IAT(Formal),2021.2.3,Win32,120.875136,,,,,,,,,,,,,,,,,,,,,,,,,,,,,,,,,,,,,,,,,,,,,,,,,,,,我,i,,,i,1,0.5188,0,27,27,0,1,,
,,,,,,,,,,,,,,1,001,2024-08-23_19h38.02.637,IAT(Formal),2021.2.3,Win32,120.875136,,,,,,,,,,,,,,,,,,,,,,,,,,,,,,,,,,,,,,,,,,,,,,,,,,,,我的,i,,,i,1,0.5386,0,28,28,61,1,,
,,,,,,,,,,,,,,1,001,2024-08-23_19h38.02.637,IAT(Formal),2021.2.3,Win32,120.875136,,,,,,,,,,,,,,,,,,,,,,,,,,,,,,,,,,,,,,,,,,,,,,,,,,,,活泼,e,,,e,1,0.5415,0,29,29,28,1,,
,,,,,,,,,,,,,,1,001,2024-08-23_19h38.02.637,IAT(Formal),2021.2.3,Win32,120.875136,,,,,,,,,,,,,,,,,,,,,,,,,,,,,,,,,,,,,,,,,,,,,,,,,,,,他,e,,,e,1,0.4733,0,30,30,75,1,,
,,,,,,,,,,,,,,1,001,2024-08-23_19h38.02.637,IAT(Formal),2021.2.3,Win32,120.875136,,,,,,,,,,,,,,,,,,,,,,,,,,,,,,,,,,,,,,,,,,,,,,,,,,,,我的,i,,,e,0,0.6375,0,31,31,51,1,,
,,,,,,,,,,,,,,1,001,2024-08-23_19h38.02.637,IAT(Formal),2021.2.3,Win32,120.875136,,,,,,,,,,,,,,,,,,,,,,,,,,,,,,,,,,,,,,,,,,,,,,,,,,,,细腻,e,,,i,0,0.6674,0,32,32,25,1,,
,,,,,,,,,,,,,,1,001,2024-08-23_19h38.02.637,IAT(Formal),2021.2.3,Win32,120.875136,,,,,,,,,,,,,,,,,,,,,,,,,,,,,,,,,,,,,,,,,,,,,,,,,,,,认真,e,,,e,1,0.7164,0,33,33,20,1,,
,,,,,,,,,,,,,,1,001,2024-08-23_19h38.02.637,IAT(Formal),2021.2.3,Win32,120.875136,,,,,,,,,,,,,,,,,,,,,,,,,,,,,,,,,,,,,,,,,,,,,,,,,,,,他,e,,,e,1,0.6905,0,34,34,5,1,,
,,,,,,,,,,,,,,1,001,2024-08-23_19h38.02.637,IAT(Formal),2021.2.3,Win32,120.875136,,,,,,,,,,,,,,,,,,,,,,,,,,,,,,,,,,,,,,,,,,,,,,,,,,,,崇高,e,,,e,1,0.9065,0,35,35,11,1,,
,,,,,,,,,,,,,,1,001,2024-08-23_19h38.02.637,IAT(Formal),2021.2.3,Win32,120.875136,,,,,,,,,,,,,,,,,,,,,,,,,,,,,,,,,,,,,,,,,,,,,,,,,,,,我的,i,,,i,1,0.532,0,36,36,1,1,,
,,,,,,,,,,,,,,1,001,2024-08-23_19h38.02.637,IAT(Formal),2021.2.3,Win32,120.875136,,,,,,,,,,,,,,,,,,,,,,,,,,,,,,,,,,,,,,,,,,,,,,,,,,,,执拗,i,,,i,1,0.6383,0,37,37,40,1,,
,,,,,,,,,,,,,,1,001,2024-08-23_19h38.02.637,IAT(Formal),2021.2.3,Win32,120.875136,,,,,,,,,,,,,,,,,,,,,,,,,,,,,,,,,,,,,,,,,,,,,,,,,,,,其他,e,,,e,1,0.7356,0,38,38,59,1,,
,,,,,,,,,,,,,,1,001,2024-08-23_19h38.02.637,IAT(Formal),2021.2.3,Win32,120.875136,,,,,,,,,,,,,,,,,,,,,,,,,,,,,,,,,,,,,,,,,,,,,,,,,,,,俺,i,,,e,0,0.6629,0,39,39,54,1,,
,,,,,,,,,,,,,,1,001,2024-08-23_19h38.02.637,IAT(Formal),2021.2.3,Win32,120.875136,,,,,,,,,,,,,,,,,,,,,,,,,,,,,,,,,,,,,,,,,,,,,,,,,,,,轻率,i,,,i,1,0.7868,0,40,40,48,1,,
,,,,,,,,,,,,,,1,001,2024-08-23_19h38.02.637,IAT(Formal),2021.2.3,Win32,120.875136,,,,,,,,,,,,,,,,,,,,,,,,,,,,,,,,,,,,,,,,,,,,,,,,,,,,热情,e,,,e,1,0.5978,0,41,41,27,1,,
,,,,,,,,,,,,,,1,001,2024-08-23_19h38.02.637,IAT(Formal),2021.2.3,Win32,120.875136,,,,,,,,,,,,,,,,,,,,,,,,,,,,,,,,,,,,,,,,,,,,,,,,,,,,愚蠢,i,,,i,1,0.5512,0,42,42,32,1,,
,,,,,,,,,,,,,,1,001,2024-08-23_19h38.02.637,IAT(Formal),2021.2.3,Win32,120.875136,,,,,,,,,,,,,,,,,,,,,,,,,,,,,,,,,,,,,,,,,,,,,,,,,,,,勤奋,e,,,e,1,0.6458,0,43,43,18,1,,
,,,,,,,,,,,,,,1,001,2024-08-23_19h38.02.637,IAT(Formal),2021.2.3,Win32,120.875136,,,,,,,,,,,,,,,,,,,,,,,,,,,,,,,,,,,,,,,,,,,,,,,,,,,,他的,e,,,e,1,0.6857,0,44,44,67,1,,
,,,,,,,,,,,,,,1,001,2024-08-23_19h38.02.637,IAT(Formal),2021.2.3,Win32,120.875136,,,,,,,,,,,,,,,,,,,,,,,,,,,,,,,,,,,,,,,,,,,,,,,,,,,,他人,e,,,e,1,0.4267,0,45,45,68,1,,
,,,,,,,,,,,,,,1,001,2024-08-23_19h38.02.637,IAT(Formal),2021.2.3,Win32,120.875136,,,,,,,,,,,,,,,,,,,,,,,,,,,,,,,,,,,,,,,,,,,,,,,,,,,,自己,i,,,i,1,0.4764,0,46,46,53,1,,
,,,,,,,,,,,,,,1,001,2024-08-23_19h38.02.637,IAT(Formal),2021.2.3,Win32,120.875136,,,,,,,,,,,,,,,,,,,,,,,,,,,,,,,,,,,,,,,,,,,,,,,,,,,,我们,i,,,i,1,0.5941,0,47,47,52,1,,
,,,,,,,,,,,,,,1,001,2024-08-23_19h38.02.637,IAT(Formal),2021.2.3,Win32,120.875136,,,,,,,,,,,,,,,,,,,,,,,,,,,,,,,,,,,,,,,,,,,,,,,,,,,,刻薄,i,,,i,1,0.5706,0,48,48,33,1,,
,,,,,,,,,,,,,,1,001,2024-08-23_19h38.02.637,IAT(Formal),2021.2.3,Win32,120.875136,,,,,,,,,,,,,,,,,,,,,,,,,,,,,,,,,,,,,,,,,,,,,,,,,,,,他,e,,,e,1,0.5185,0,49,49,55,1,,
,,,,,,,,,,,,,,1,001,2024-08-23_19h38.02.637,IAT(Formal),2021.2.3,Win32,120.875136,,,,,,,,,,,,,,,,,,,,,,,,,,,,,,,,,,,,,,,,,,,,,,,,,,,,其他,e,,,e,1,0.4942,0,50,50,79,1,,
,,,,,,,,,,,,,,1,001,2024-08-23_19h38.02.637,IAT(Formal),2021.2.3,Win32,120.875136,,,,,,,,,,,,,,,,,,,,,,,,,,,,,,,,,,,,,,,,,,,,,,,,,,,,他们,e,,,e,1,0.4444,0,51,51,56,1,,
,,,,,,,,,,,,,,1,001,2024-08-23_19h38.02.637,IAT(Formal),2021.2.3,Win32,120.875136,,,,,,,,,,,,,,,,,,,,,,,,,,,,,,,,,,,,,,,,,,,,,,,,,,,,我们,i,,,i,1,0.5075,0,52,52,62,1,,
,,,,,,,,,,,,,,1,001,2024-08-23_19h38.02.637,IAT(Formal),2021.2.3,Win32,120.875136,,,,,,,,,,,,,,,,,,,,,,,,,,,,,,,,,,,,,,,,,,,,,,,,,,,,我的,i,,,i,1,0.4651,0,53,53,71,1,,
,,,,,,,,,,,,,,1,001,2024-08-23_19h38.02.637,IAT(Formal),2021.2.3,Win32,120.875136,,,,,,,,,,,,,,,,,,,,,,,,,,,,,,,,,,,,,,,,,,,,,,,,,,,,冒失,i,,,i,1,0.5574,0,54,54,39,1,,
,,,,,,,,,,,,,,1,001,2024-08-23_19h38.02.637,IAT(Formal),2021.2.3,Win32,120.875136,,,,,,,,,,,,,,,,,,,,,,,,,,,,,,,,,,,,,,,,,,,,,,,,,,,,朴实,e,,,i,0,0.4545,0,55,55,24,1,,
,,,,,,,,,,,,,,1,001,2024-08-23_19h38.02.637,IAT(Formal),2021.2.3,Win32,120.875136,,,,,,,,,,,,,,,,,,,,,,,,,,,,,,,,,,,,,,,,,,,,,,,,,,,,悲观,i,,,i,1,0.5126,0,56,56,34,1,,
,,,,,,,,,,,,,,1,001,2024-08-23_19h38.02.637,IAT(Formal),2021.2.3,Win32,120.875136,,,,,,,,,,,,,,,,,,,,,,,,,,,,,,,,,,,,,,,,,,,,,,,,,,,,正直,e,,,e,1,0.6012,0,57,57,16,1,,
,,,,,,,,,,,,,,1,001,2024-08-23_19h38.02.637,IAT(Formal),2021.2.3,Win32,120.875136,,,,,,,,,,,,,,,,,,,,,,,,,,,,,,,,,,,,,,,,,,,,,,,,,,,,机智,e,,,e,1,1.1597,0,58,58,19,1,,
,,,,,,,,,,,,,,1,001,2024-08-23_19h38.02.637,IAT(Formal),2021.2.3,Win32,120.875136,,,,,,,,,,,,,,,,,,,,,,,,,,,,,,,,,,,,,,,,,,,,,,,,,,,,他的,e,,,e,1,0.4938,0,59,59,57,1,,
,,,,,,,,,,,,,,1,001,2024-08-23_19h38.02.637,IAT(Formal),2021.2.3,Win32,120.875136,,,,,,,,,,,,,,,,,,,,,,,,,,,,,,,,,,,,,,,,,,,,,,,,,,,,下贱,i,,,i,1,0.7246,0,60,60,49,1,,
,,,,,,,,,,,,,,1,001,2024-08-23_19h38.02.637,IAT(Formal),2021.2.3,Win32,120.875136,,,,,,,,,,,,,,,,,,,,,,,,,,,,,,,,,,,,,,,,,,,,,,,,,,,,自私,i,,,i,1,0.7133,0,61,61,43,1,,
,,,,,,,,,,,,,,1,001,2024-08-23_19h38.02.637,IAT(Formal),2021.2.3,Win32,120.875136,,,,,,,,,,,,,,,,,,,,,,,,,,,,,,,,,,,,,,,,,,,,,,,,,,,,乐观,e,,,e,1,0.6485,0,62,62,14,1,,
,,,,,,,,,,,,,,1,001,2024-08-23_19h38.02.637,IAT(Formal),2021.2.3,Win32,120.875136,,,,,,,,,,,,,,,,,,,,,,,,,,,,,,,,,,,,,,,,,,,,,,,,,,,,自卑,i,,,i,1,0.5129,0,63,63,36,1,,
,,,,,,,,,,,,,,1,001,2024-08-23_19h38.02.637,IAT(Formal),2021.2.3,Win32,120.875136,,,,,,,,,,,,,,,,,,,,,,,,,,,,,,,,,,,,,,,,,,,,,,,,,,,,俺,i,,,i,1,0.7155,0,64,64,4,1,,
,,,,,,,,,,,,,,1,001,2024-08-23_19h38.02.637,IAT(Formal),2021.2.3,Win32,120.875136,,,,,,,,,,,,,,,,,,,,,,,,,,,,,,,,,,,,,,,,,,,,,,,,,,,,他人,e,,,e,1,0.6192,0,65,65,78,1,,
,,,,,,,,,,,,,,1,001,2024-08-23_19h38.02.637,IAT(Formal),2021.2.3,Win32,120.875136,,,,,,,,,,,,,,,,,,,,,,,,,,,,,,,,,,,,,,,,,,,,,,,,,,,,我,i,,,i,1,1.0185,0,66,66,50,1,,
,,,,,,,,,,,,,,1,001,2024-08-23_19h38.02.637,IAT(Formal),2021.2.3,Win32,120.875136,,,,,,,,,,,,,,,,,,,,,,,,,,,,,,,,,,,,,,,,,,,,,,,,,,,,公正,e,,,e,1,0.5317,0,67,67,23,1,,
,,,,,,,,,,,,,,1,001,2024-08-23_19h38.02.637,IAT(Formal),2021.2.3,Win32,120.875136,,,,,,,,,,,,,,,,,,,,,,,,,,,,,,,,,,,,,,,,,,,,,,,,,,,,自己,i,,,i,1,0.6379,0,68,68,3,1,,
,,,,,,,,,,,,,,1,001,2024-08-23_19h38.02.637,IAT(Formal),2021.2.3,Win32,120.875136,,,,,,,,,,,,,,,,,,,,,,,,,,,,,,,,,,,,,,,,,,,,,,,,,,,,野蛮,i,,,e,0,0.5421,0,69,69,46,1,,
,,,,,,,,,,,,,,1,001,2024-08-23_19h38.02.637,IAT(Formal),2021.2.3,Win32,120.875136,,,,,,,,,,,,,,,,,,,,,,,,,,,,,,,,,,,,,,,,,,,,,,,,,,,,虚伪,i,,,i,1,0.5664,0,70,70,31,1,,
,,,,,,,,,,,,,,1,001,2024-08-23_19h38.02.637,IAT(Formal),2021.2.3,Win32,120.875136,,,,,,,,,,,,,,,,,,,,,,,,,,,,,,,,,,,,,,,,,,,,,,,,,,,,卑鄙,i,,,i,1,0.4607,0,71,71,30,1,,
,,,,,,,,,,,,,,1,001,2024-08-23_19h38.02.637,IAT(Formal),2021.2.3,Win32,120.875136,,,,,,,,,,,,,,,,,,,,,,,,,,,,,,,,,,,,,,,,,,,,,,,,,,,,凶狠,i,,,i,1,0.4737,0,72,72,42,1,,
,,,,,,,,,,,,,,1,001,2024-08-23_19h38.02.637,IAT(Formal),2021.2.3,Win32,120.875136,,,,,,,,,,,,,,,,,,,,,,,,,,,,,,,,,,,,,,,,,,,,,,,,,,,,优秀,e,,,e,1,0.5246,0,73,73,10,1,,
,,,,,,,,,,,,,,1,001,2024-08-23_19h38.02.637,IAT(Formal),2021.2.3,Win32,120.875136,,,,,,,,,,,,,,,,,,,,,,,,,,,,,,,,,,,,,,,,,,,,,,,,,,,,他的,e,,,e,1,0.524,0,74,74,7,1,,
,,,,,,,,,,,,,,1,001,2024-08-23_19h38.02.637,IAT(Formal),2021.2.3,Win32,120.875136,,,,,,,,,,,,,,,,,,,,,,,,,,,,,,,,,,,,,,,,,,,,,,,,,,,,猖狂,i,,,i,1,0.5149,0,75,75,45,1,,
,,,,,,,,,,,,,,1,001,2024-08-23_19h38.02.637,IAT(Formal),2021.2.3,Win32,120.875136,,,,,,,,,,,,,,,,,,,,,,,,,,,,,,,,,,,,,,,,,,,,,,,,,,,,暴躁,i,,,e,0,0.8287,0,76,76,44,1,,
,,,,,,,,,,,,,,1,001,2024-08-23_19h38.02.637,IAT(Formal),2021.2.3,Win32,120.875136,,,,,,,,,,,,,,,,,,,,,,,,,,,,,,,,,,,,,,,,,,,,,,,,,,,,他人,e,,,i,0,0.4656,0,77,77,8,1,,
,,,,,,,,,,,,,,1,001,2024-08-23_19h38.02.637,IAT(Formal),2021.2.3,Win32,120.875136,,,,,,,,,,,,,,,,,,,,,,,,,,,,,,,,,,,,,,,,,,,,,,,,,,,,我,i,,,i,1,0.6817,0,78,78,60,1,,
,,,,,,,,,,,,,,1,001,2024-08-23_19h38.02.637,IAT(Formal),2021.2.3,Win32,120.875136,,,,,,,,,,,,,,,,,,,,,,,,,,,,,,,,,,,,,,,,,,,,,,,,,,,,自己,i,,,i,1,0.5679,0,79,79,73,1,,
,,,,,,,,,,,,,,1,001,2024-08-23_19h38.02.637,IAT(Formal),2021.2.3,Win32,120.875136,,,,,,,,,,,,,,,,,,,,,,,,,,,,,,,,,,,,,,,,,,,,,,,,,,,,他们,e,,,e,1,0.608,1,0,80,56,1,,
,,,,,,,,,,,,,,1,001,2024-08-23_19h38.02.637,IAT(Formal),2021.2.3,Win32,120.875136,,,,,,,,,,,,,,,,,,,,,,,,,,,,,,,,,,,,,,,,,,,,,,,,,,,,我,i,,,i,1,0.9887,1,1,81,0,1,,
,,,,,,,,,,,,,,1,001,2024-08-23_19h38.02.637,IAT(Formal),2021.2.3,Win32,120.875136,,,,,,,,,,,,,,,,,,,,,,,,,,,,,,,,,,,,,,,,,,,,,,,,,,,,我的,i,,,i,1,0.4619,1,2,82,51,1,,
,,,,,,,,,,,,,,1,001,2024-08-23_19h38.02.637,IAT(Formal),2021.2.3,Win32,120.875136,,,,,,,,,,,,,,,,,,,,,,,,,,,,,,,,,,,,,,,,,,,,,,,,,,,,他,e,,,i,0,0.8017,1,3,83,65,1,,
,,,,,,,,,,,,,,1,001,2024-08-23_19h38.02.637,IAT(Formal),2021.2.3,Win32,120.875136,,,,,,,,,,,,,,,,,,,,,,,,,,,,,,,,,,,,,,,,,,,,,,,,,,,,我,i,,,i,1,0.4619,1,4,84,70,1,,
,,,,,,,,,,,,,,1,001,2024-08-23_19h38.02.637,IAT(Formal),2021.2.3,Win32,120.875136,,,,,,,,,,,,,,,,,,,,,,,,,,,,,,,,,,,,,,,,,,,,,,,,,,,,野蛮,i,,,i,1,0.6091,1,5,85,46,1,,
,,,,,,,,,,,,,,1,001,2024-08-23_19h38.02.637,IAT(Formal),2021.2.3,Win32,120.875136,,,,,,,,,,,,,,,,,,,,,,,,,,,,,,,,,,,,,,,,,,,,,,,,,,,,诚恳,e,,,e,1,0.8087,1,6,86,29,1,,
,,,,,,,,,,,,,,1,001,2024-08-23_19h38.02.637,IAT(Formal),2021.2.3,Win32,120.875136,,,,,,,,,,,,,,,,,,,,,,,,,,,,,,,,,,,,,,,,,,,,,,,,,,,,我们,i,,,e,0,0.462,1,7,87,2,1,,
,,,,,,,,,,,,,,1,001,2024-08-23_19h38.02.637,IAT(Formal),2021.2.3,Win32,120.875136,,,,,,,,,,,,,,,,,,,,,,,,,,,,,,,,,,,,,,,,,,,,,,,,,,,,勇敢,e,,,e,1,1.1653,1,8,88,17,1,,
,,,,,,,,,,,,,,1,001,2024-08-23_19h38.02.637,IAT(Formal),2021.2.3,Win32,120.875136,,,,,,,,,,,,,,,,,,,,,,,,,,,,,,,,,,,,,,,,,,,,,,,,,,,,聪明,e,,,e,1,0.473,1,9,89,12,1,,
,,,,,,,,,,,,,,1,001,2024-08-23_19h38.02.637,IAT(Formal),2021.2.3,Win32,120.875136,,,,,,,,,,,,,,,,,,,,,,,,,,,,,,,,,,,,,,,,,,,,,,,,,,,,朴实,e,,,e,1,0.6397,1,10,90,24,1,,
,,,,,,,,,,,,,,1,001,2024-08-23_19h38.02.637,IAT(Formal),2021.2.3,Win32,120.875136,,,,,,,,,,,,,,,,,,,,,,,,,,,,,,,,,,,,,,,,,,,,,,,,,,,,他的,e,,,i,0,0.7169,1,11,91,67,1,,
,,,,,,,,,,,,,,1,001,2024-08-23_19h38.02.637,IAT(Formal),2021.2.3,Win32,120.875136,,,,,,,,,,,,,,,,,,,,,,,,,,,,,,,,,,,,,,,,,,,,,,,,,,,,俺,i,,,e,0,0.6091,1,12,92,4,1,,
,,,,,,,,,,,,,,1,001,2024-08-23_19h38.02.637,IAT(Formal),2021.2.3,Win32,120.875136,,,,,,,,,,,,,,,,,,,,,,,,,,,,,,,,,,,,,,,,,,,,,,,,,,,,卑鄙,i,,,i,1,0.5709,1,13,93,30,1,,
,,,,,,,,,,,,,,1,001,2024-08-23_19h38.02.637,IAT(Formal),2021.2.3,Win32,120.875136,,,,,,,,,,,,,,,,,,,,,,,,,,,,,,,,,,,,,,,,,,,,,,,,,,,,细腻,e,,,e,1,0.6779,1,14,94,25,1,,
,,,,,,,,,,,,,,1,001,2024-08-23_19h38.02.637,IAT(Formal),2021.2.3,Win32,120.875136,,,,,,,,,,,,,,,,,,,,,,,,,,,,,,,,,,,,,,,,,,,,,,,,,,,,冷静,e,,,e,1,0.5589,1,15,95,26,1,,
,,,,,,,,,,,,,,1,001,2024-08-23_19h38.02.637,IAT(Formal),2021.2.3,Win32,120.875136,,,,,,,,,,,,,,,,,,,,,,,,,,,,,,,,,,,,,,,,,,,,,,,,,,,,暴躁,i,,,i,1,0.5418,1,16,96,44,1,,
,,,,,,,,,,,,,,1,001,2024-08-23_19h38.02.637,IAT(Formal),2021.2.3,Win32,120.875136,,,,,,,,,,,,,,,,,,,,,,,,,,,,,,,,,,,,,,,,,,,,,,,,,,,,崇高,e,,,e,1,0.5812,1,17,97,11,1,,
,,,,,,,,,,,,,,1,001,2024-08-23_19h38.02.637,IAT(Formal),2021.2.3,Win32,120.875136,,,,,,,,,,,,,,,,,,,,,,,,,,,,,,,,,,,,,,,,,,,,,,,,,,,,虚伪,i,,,i,1,0.5051,1,18,98,31,1,,
,,,,,,,,,,,,,,1,001,2024-08-23_19h38.02.637,IAT(Formal),2021.2.3,Win32,120.875136,,,,,,,,,,,,,,,,,,,,,,,,,,,,,,,,,,,,,,,,,,,,,,,,,,,,机智,e,,,e,1,0.5373,1,19,99,19,1,,
,,,,,,,,,,,,,,1,001,2024-08-23_19h38.02.637,IAT(Formal),2021.2.3,Win32,120.875136,,,,,,,,,,,,,,,,,,,,,,,,,,,,,,,,,,,,,,,,,,,,,,,,,,,,他们,e,,,i,0,0.8654,1,20,100,76,1,,
,,,,,,,,,,,,,,1,001,2024-08-23_19h38.02.637,IAT(Formal),2021.2.3,Win32,120.875136,,,,,,,,,,,,,,,,,,,,,,,,,,,,,,,,,,,,,,,,,,,,,,,,,,,,他,e,,,e,1,0.4158,1,21,101,75,1,,
,,,,,,,,,,,,,,1,001,2024-08-23_19h38.02.637,IAT(Formal),2021.2.3,Win32,120.875136,,,,,,,,,,,,,,,,,,,,,,,,,,,,,,,,,,,,,,,,,,,,,,,,,,,,傲慢,i,,,i,1,0.6502,1,22,102,37,1,,
,,,,,,,,,,,,,,1,001,2024-08-23_19h38.02.637,IAT(Formal),2021.2.3,Win32,120.875136,,,,,,,,,,,,,,,,,,,,,,,,,,,,,,,,,,,,,,,,,,,,,,,,,,,,我们,i,,,i,1,1.1427,1,23,103,52,1,,
,,,,,,,,,,,,,,1,001,2024-08-23_19h38.02.637,IAT(Formal),2021.2.3,Win32,120.875136,,,,,,,,,,,,,,,,,,,,,,,,,,,,,,,,,,,,,,,,,,,,,,,,,,,,轻率,i,,,i,1,0.8396,1,24,104,48,1,,
,,,,,,,,,,,,,,1,001,2024-08-23_19h38.02.637,IAT(Formal),2021.2.3,Win32,120.875136,,,,,,,,,,,,,,,,,,,,,,,,,,,,,,,,,,,,,,,,,,,,,,,,,,,,猖狂,i,,,i,1,0.6109,1,25,105,45,1,,
,,,,,,,,,,,,,,1,001,2024-08-23_19h38.02.637,IAT(Formal),2021.2.3,Win32,120.875136,,,,,,,,,,,,,,,,,,,,,,,,,,,,,,,,,,,,,,,,,,,,,,,,,,,,我,i,,,e,0,0.6747,1,26,106,50,1,,
,,,,,,,,,,,,,,1,001,2024-08-23_19h38.02.637,IAT(Formal),2021.2.3,Win32,120.875136,,,,,,,,,,,,,,,,,,,,,,,,,,,,,,,,,,,,,,,,,,,,,,,,,,,,热情,e,,,e,1,0.6315,1,27,107,27,1,,
,,,,,,,,,,,,,,1,001,2024-08-23_19h38.02.637,IAT(Formal),2021.2.3,Win32,120.875136,,,,,,,,,,,,,,,,,,,,,,,,,,,,,,,,,,,,,,,,,,,,,,,,,,,,我的,i,,,i,1,0.7053,1,28,108,71,1,,
,,,,,,,,,,,,,,1,001,2024-08-23_19h38.02.637,IAT(Formal),2021.2.3,Win32,120.875136,,,,,,,,,,,,,,,,,,,,,,,,,,,,,,,,,,,,,,,,,,,,,,,,,,,,他人,e,,,e,1,0.5997,1,29,109,68,1,,
,,,,,,,,,,,,,,1,001,2024-08-23_19h38.02.637,IAT(Formal),2021.2.3,Win32,120.875136,,,,,,,,,,,,,,,,,,,,,,,,,,,,,,,,,,,,,,,,,,,,,,,,,,,,俺,i,,,i,1,0.6797,1,30,110,54,1,,
,,,,,,,,,,,,,,1,001,2024-08-23_19h38.02.637,IAT(Formal),2021.2.3,Win32,120.875136,,,,,,,,,,,,,,,,,,,,,,,,,,,,,,,,,,,,,,,,,,,,,,,,,,,,优秀,e,,,e,1,0.6545,1,31,111,10,1,,
,,,,,,,,,,,,,,1,001,2024-08-23_19h38.02.637,IAT(Formal),2021.2.3,Win32,120.875136,,,,,,,,,,,,,,,,,,,,,,,,,,,,,,,,,,,,,,,,,,,,,,,,,,,,消极,i,,,i,1,0.5989,1,32,112,35,1,,
,,,,,,,,,,,,,,1,001,2024-08-23_19h38.02.637,IAT(Formal),2021.2.3,Win32,120.875136,,,,,,,,,,,,,,,,,,,,,,,,,,,,,,,,,,,,,,,,,,,,,,,,,,,,我的,i,,,i,1,0.6329,1,33,113,61,1,,
,,,,,,,,,,,,,,1,001,2024-08-23_19h38.02.637,IAT(Formal),2021.2.3,Win32,120.875136,,,,,,,,,,,,,,,,,,,,,,,,,,,,,,,,,,,,,,,,,,,,,,,,,,,,其他,e,,,e,1,0.6091,1,34,114,9,1,,
,,,,,,,,,,,,,,1,001,2024-08-23_19h38.02.637,IAT(Formal),2021.2.3,Win32,120.875136,,,,,,,,,,,,,,,,,,,,,,,,,,,,,,,,,,,,,,,,,,,,,,,,,,,,自卑,i,,,i,1,0.5448,1,35,115,36,1,,
,,,,,,,,,,,,,,1,001,2024-08-23_19h38.02.637,IAT(Formal),2021.2.3,Win32,120.875136,,,,,,,,,,,,,,,,,,,,,,,,,,,,,,,,,,,,,,,,,,,,,,,,,,,,俺,i,,,i,1,0.6389,1,36,116,74,1,,
,,,,,,,,,,,,,,1,001,2024-08-23_19h38.02.637,IAT(Formal),2021.2.3,Win32,120.875136,,,,,,,,,,,,,,,,,,,,,,,,,,,,,,,,,,,,,,,,,,,,,,,,,,,,悲观,i,,,i,1,0.6145,1,37,117,34,1,,
,,,,,,,,,,,,,,1,001,2024-08-23_19h38.02.637,IAT(Formal),2021.2.3,Win32,120.875136,,,,,,,,,,,,,,,,,,,,,,,,,,,,,,,,,,,,,,,,,,,,,,,,,,,,凶狠,i,,,i,1,0.5372,1,38,118,42,1,,
,,,,,,,,,,,,,,1,001,2024-08-23_19h38.02.637,IAT(Formal),2021.2.3,Win32,120.875136,,,,,,,,,,,,,,,,,,,,,,,,,,,,,,,,,,,,,,,,,,,,,,,,,,,,他的,e,,,e,1,0.5458,1,39,119,7,1,,
,,,,,,,,,,,,,,1,001,2024-08-23_19h38.02.637,IAT(Formal),2021.2.3,Win32,120.875136,,,,,,,,,,,,,,,,,,,,,,,,,,,,,,,,,,,,,,,,,,,,,,,,,,,,他们,e,,,e,1,0.519,1,40,120,6,1,,
,,,,,,,,,,,,,,1,001,2024-08-23_19h38.02.637,IAT(Formal),2021.2.3,Win32,120.875136,,,,,,,,,,,,,,,,,,,,,,,,,,,,,,,,,,,,,,,,,,,,,,,,,,,,他人,e,,,e,1,0.441,1,41,121,78,1,,
,,,,,,,,,,,,,,1,001,2024-08-23_19h38.02.637,IAT(Formal),2021.2.3,Win32,120.875136,,,,,,,,,,,,,,,,,,,,,,,,,,,,,,,,,,,,,,,,,,,,,,,,,,,,自己,i,,,i,1,0.4666,1,42,122,53,1,,
,,,,,,,,,,,,,,1,001,2024-08-23_19h38.02.637,IAT(Formal),2021.2.3,Win32,120.875136,,,,,,,,,,,,,,,,,,,,,,,,,,,,,,,,,,,,,,,,,,,,,,,,,,,,认真,e,,,e,1,1.3496,1,43,123,20,1,,
,,,,,,,,,,,,,,1,001,2024-08-23_19h38.02.637,IAT(Formal),2021.2.3,Win32,120.875136,,,,,,,,,,,,,,,,,,,,,,,,,,,,,,,,,,,,,,,,,,,,,,,,,,,,俺,i,,,i,1,0.5921,1,44,124,64,1,,
,,,,,,,,,,,,,,1,001,2024-08-23_19h38.02.637,IAT(Formal),2021.2.3,Win32,120.875136,,,,,,,,,,,,,,,,,,,,,,,,,,,,,,,,,,,,,,,,,,,,,,,,,,,,自己,i,,,i,1,0.6486,1,45,125,73,1,,
,,,,,,,,,,,,,,1,001,2024-08-23_19h38.02.637,IAT(Formal),2021.2.3,Win32,120.875136,,,,,,,,,,,,,,,,,,,,,,,,,,,,,,,,,,,,,,,,,,,,,,,,,,,,杰出,e,,,i,0,0.5703,1,46,126,13,1,,
,,,,,,,,,,,,,,1,001,2024-08-23_19h38.02.637,IAT(Formal),2021.2.3,Win32,120.875136,,,,,,,,,,,,,,,,,,,,,,,,,,,,,,,,,,,,,,,,,,,,,,,,,,,,固执,i,,,e,0,0.5486,1,47,127,47,1,,
,,,,,,,,,,,,,,1,001,2024-08-23_19h38.02.637,IAT(Formal),2021.2.3,Win32,120.875136,,,,,,,,,,,,,,,,,,,,,,,,,,,,,,,,,,,,,,,,,,,,,,,,,,,,我,i,,,i,1,0.7752,1,48,128,60,1,,
,,,,,,,,,,,,,,1,001,2024-08-23_19h38.02.637,IAT(Formal),2021.2.3,Win32,120.875136,,,,,,,,,,,,,,,,,,,,,,,,,,,,,,,,,,,,,,,,,,,,,,,,,,,,自己,i,,,i,1,0.8121,1,49,129,63,1,,
,,,,,,,,,,,,,,1,001,2024-08-23_19h38.02.637,IAT(Formal),2021.2.3,Win32,120.875136,,,,,,,,,,,,,,,,,,,,,,,,,,,,,,,,,,,,,,,,,,,,,,,,,,,,其他,e,,,,0,,1,50,130,69,1,,
,,,,,,,,,,,,,,1,001,2024-08-23_19h38.02.637,IAT(Formal),2021.2.3,Win32,120.875136,,,,,,,,,,,,,,,,,,,,,,,,,,,,,,,,,,,,,,,,,,,,,,,,,,,,他,e,,,e,1,0.424,1,51,131,55,1,,
,,,,,,,,,,,,,,1,001,2024-08-23_19h38.02.637,IAT(Formal),2021.2.3,Win32,120.875136,,,,,,,,,,,,,,,,,,,,,,,,,,,,,,,,,,,,,,,,,,,,,,,,,,,,他人,e,,,e,1,0.3845,1,52,132,8,1,,
,,,,,,,,,,,,,,1,001,2024-08-23_19h38.02.637,IAT(Formal),2021.2.3,Win32,120.875136,,,,,,,,,,,,,,,,,,,,,,,,,,,,,,,,,,,,,,,,,,,,,,,,,,,,自己,i,,,i,1,0.4503,1,53,133,3,1,,
,,,,,,,,,,,,,,1,001,2024-08-23_19h38.02.637,IAT(Formal),2021.2.3,Win32,120.875136,,,,,,,,,,,,,,,,,,,,,,,,,,,,,,,,,,,,,,,,,,,,,,,,,,,,他,e,,,e,1,0.6529,1,54,134,5,1,,
,,,,,,,,,,,,,,1,001,2024-08-23_19h38.02.637,IAT(Formal),2021.2.3,Win32,120.875136,,,,,,,,,,,,,,,,,,,,,,,,,,,,,,,,,,,,,,,,,,,,,,,,,,,,我的,i,,,i,1,0.4621,1,55,135,1,1,,
,,,,,,,,,,,,,,1,001,2024-08-23_19h38.02.637,IAT(Formal),2021.2.3,Win32,120.875136,,,,,,,,,,,,,,,,,,,,,,,,,,,,,,,,,,,,,,,,,,,,,,,,,,,,乐观,e,,,e,1,0.6542,1,56,136,14,1,,
,,,,,,,,,,,,,,1,001,2024-08-23_19h38.02.637,IAT(Formal),2021.2.3,Win32,120.875136,,,,,,,,,,,,,,,,,,,,,,,,,,,,,,,,,,,,,,,,,,,,,,,,,,,,正直,e,,,e,1,0.4155,1,57,137,16,1,,
,,,,,,,,,,,,,,1,001,2024-08-23_19h38.02.637,IAT(Formal),2021.2.3,Win32,120.875136,,,,,,,,,,,,,,,,,,,,,,,,,,,,,,,,,,,,,,,,,,,,,,,,,,,,刻薄,i,,,i,1,0.495,1,58,138,33,1,,
,,,,,,,,,,,,,,1,001,2024-08-23_19h38.02.637,IAT(Formal),2021.2.3,Win32,120.875136,,,,,,,,,,,,,,,,,,,,,,,,,,,,,,,,,,,,,,,,,,,,,,,,,,,,稳重,e,,,e,1,0.5647,1,59,139,21,1,,
,,,,,,,,,,,,,,1,001,2024-08-23_19h38.02.637,IAT(Formal),2021.2.3,Win32,120.875136,,,,,,,,,,,,,,,,,,,,,,,,,,,,,,,,,,,,,,,,,,,,,,,,,,,,散漫,i,,,i,1,0.5247,1,60,140,41,1,,
,,,,,,,,,,,,,,1,001,2024-08-23_19h38.02.637,IAT(Formal),2021.2.3,Win32,120.875136,,,,,,,,,,,,,,,,,,,,,,,,,,,,,,,,,,,,,,,,,,,,,,,,,,,,执拗,i,,,i,1,0.4167,1,61,141,40,1,,
,,,,,,,,,,,,,,1,001,2024-08-23_19h38.02.637,IAT(Formal),2021.2.3,Win32,120.875136,,,,,,,,,,,,,,,,,,,,,,,,,,,,,,,,,,,,,,,,,,,,,,,,,,,,诚实,e,,,e,1,0.6872,1,62,142,15,1,,
,,,,,,,,,,,,,,1,001,2024-08-23_19h38.02.637,IAT(Formal),2021.2.3,Win32,120.875136,,,,,,,,,,,,,,,,,,,,,,,,,,,,,,,,,,,,,,,,,,,,,,,,,,,,鲁莽,i,,,i,1,0.5875,1,63,143,38,1,,
,,,,,,,,,,,,,,1,001,2024-08-23_19h38.02.637,IAT(Formal),2021.2.3,Win32,120.875136,,,,,,,,,,,,,,,,,,,,,,,,,,,,,,,,,,,,,,,,,,,,,,,,,,,,愚蠢,i,,,i,1,0.4602,1,64,144,32,1,,
,,,,,,,,,,,,,,1,001,2024-08-23_19h38.02.637,IAT(Formal),2021.2.3,Win32,120.875136,,,,,,,,,,,,,,,,,,,,,,,,,,,,,,,,,,,,,,,,,,,,,,,,,,,,自私,i,,,i,1,0.609,1,65,145,43,1,,
,,,,,,,,,,,,,,1,001,2024-08-23_19h38.02.637,IAT(Formal),2021.2.3,Win32,120.875136,,,,,,,,,,,,,,,,,,,,,,,,,,,,,,,,,,,,,,,,,,,,,,,,,,,,他人,e,,,e,1,0.499,1,66,146,58,1,,
,,,,,,,,,,,,,,1,001,2024-08-23_19h38.02.637,IAT(Formal),2021.2.3,Win32,120.875136,,,,,,,,,,,,,,,,,,,,,,,,,,,,,,,,,,,,,,,,,,,,,,,,,,,,冒失,i,,,i,1,0.6064,1,67,147,39,1,,
,,,,,,,,,,,,,,1,001,2024-08-23_19h38.02.637,IAT(Formal),2021.2.3,Win32,120.875136,,,,,,,,,,,,,,,,,,,,,,,,,,,,,,,,,,,,,,,,,,,,,,,,,,,,我们,i,,,e,0,0.4608,1,68,148,72,1,,
,,,,,,,,,,,,,,1,001,2024-08-23_19h38.02.637,IAT(Formal),2021.2.3,Win32,120.875136,,,,,,,,,,,,,,,,,,,,,,,,,,,,,,,,,,,,,,,,,,,,,,,,,,,,其他,e,,,e,1,0.5535,1,69,149,79,1,,
,,,,,,,,,,,,,,1,001,2024-08-23_19h38.02.637,IAT(Formal),2021.2.3,Win32,120.875136,,,,,,,,,,,,,,,,,,,,,,,,,,,,,,,,,,,,,,,,,,,,,,,,,,,,其他,e,,,e,1,0.45,1,70,150,59,1,,
,,,,,,,,,,,,,,1,001,2024-08-23_19h38.02.637,IAT(Formal),2021.2.3,Win32,120.875136,,,,,,,,,,,,,,,,,,,,,,,,,,,,,,,,,,,,,,,,,,,,,,,,,,,,公正,e,,,e,1,0.6069,1,71,151,23,1,,
,,,,,,,,,,,,,,1,001,2024-08-23_19h38.02.637,IAT(Formal),2021.2.3,Win32,120.875136,,,,,,,,,,,,,,,,,,,,,,,,,,,,,,,,,,,,,,,,,,,,,,,,,,,,下贱,i,,,i,1,0.5137,1,72,152,49,1,,
,,,,,,,,,,,,,,1,001,2024-08-23_19h38.02.637,IAT(Formal),2021.2.3,Win32,120.875136,,,,,,,,,,,,,,,,,,,,,,,,,,,,,,,,,,,,,,,,,,,,,,,,,,,,勤奋,e,,,e,1,0.6523,1,73,153,18,1,,
,,,,,,,,,,,,,,1,001,2024-08-23_19h38.02.637,IAT(Formal),2021.2.3,Win32,120.875136,,,,,,,,,,,,,,,,,,,,,,,,,,,,,,,,,,,,,,,,,,,,,,,,,,,,他们,e,,,i,0,0.5009,1,74,154,66,1,,
,,,,,,,,,,,,,,1,001,2024-08-23_19h38.02.637,IAT(Formal),2021.2.3,Win32,120.875136,,,,,,,,,,,,,,,,,,,,,,,,,,,,,,,,,,,,,,,,,,,,,,,,,,,,他的,e,,,i,0,0.4835,1,75,155,77,1,,
,,,,,,,,,,,,,,1,001,2024-08-23_19h38.02.637,IAT(Formal),2021.2.3,Win32,120.875136,,,,,,,,,,,,,,,,,,,,,,,,,,,,,,,,,,,,,,,,,,,,,,,,,,,,他的,e,,,e,1,0.3333,1,76,156,57,1,,
,,,,,,,,,,,,,,1,001,2024-08-23_19h38.02.637,IAT(Formal),2021.2.3,Win32,120.875136,,,,,,,,,,,,,,,,,,,,,,,,,,,,,,,,,,,,,,,,,,,,,,,,,,,,无私,e,,,e,1,0.5838,1,77,157,22,1,,
,,,,,,,,,,,,,,1,001,2024-08-23_19h38.02.637,IAT(Formal),2021.2.3,Win32,120.875136,,,,,,,,,,,,,,,,,,,,,,,,,,,,,,,,,,,,,,,,,,,,,,,,,,,,我们,i,,,i,1,0.5794,1,78,158,62,1,,
,,,,,,,,,,,,,,1,001,2024-08-23_19h38.02.637,IAT(Formal),2021.2.3,Win32,120.875136,,,,,,,,,,,,,,,,,,,,,,,,,,,,,,,,,,,,,,,,,,,,,,,,,,,,活泼,e,,,e,1,0.5207,1,79,159,28,1,,
,,,,,,,,,,,,,,1,001,2024-08-23_19h38.02.637,IAT(Formal),2021.2.3,Win32,120.875136,,,,,,,,,,,,,,,,,,,,,,,,,,,,,,,,,,,,,,,,,,,,,,,,,,,,,,,,,,,,,,,,space,1.2937