"X.Instruction1.keys","Instruction1.rt","Instruction2.keys","Instruction2.rt","key_resp_iso.keys","key_resp_iso.corr","key_resp_iso.rt","Practice_01.thisRepN","Practice_01.thisTrialN","Practice_01.thisN","Practice_01.thisIndex","Practice_01.ran","Words","ans","participant","session","date","expName","psychopyVersion","OS","frameRate","key_resp_3.keys","key_resp_3.rt","key_resp_ipn.keys","key_resp_ipn.corr","key_resp_ipn.rt","Practice_02.thisRepN","Practice_02.thisTrialN","Practice_02.thisN","Practice_02.thisIndex","Practice_02.ran","Words_ipn","ans_ipn","key_resp_4.keys","key_resp_4.rt","key_resp_t1.keys","key_resp_t1.corr","key_resp_t1.rt","Practice_T1.thisRepN","Practice_T1.thisTrialN","Practice_T1.thisN","Practice_T1.thisIndex","Practice_T1.ran","Words_t1","ans_t1","key_resp_5.keys","key_resp_5.rt","Formal_T1.thisRepN","Formal_T1.thisTrialN","Formal_T1.thisN","Formal_T1.thisIndex","Formal_T1.ran","key_resp_6.keys","key_resp_6.rt","key_resp_iso_reverse.keys","key_resp_iso_reverse.corr","key_resp_iso_reverse.rt","Practice_iso_Reverse.thisRepN","Practice_iso_Reverse.thisTrialN","Practice_iso_Reverse.thisN","Practice_iso_Reverse.thisIndex","Practice_iso_Reverse.ran","key_resp_7.keys","key_resp_7.rt","key_resp_t2_Practice.keys","key_resp_t2_Practice.corr","key_resp_t2_Practice.rt","Practice_t2_Reverse.thisRepN","Practice_t2_Reverse.thisTrialN","Practice_t2_Reverse.thisN","Practice_t2_Reverse.thisIndex","Practice_t2_Reverse.ran","Words_t2","ans_t2","key_resp_8.keys","key_resp_8.rt","key_resp_t2.keys","key_resp_t2.corr","key_resp_t2.rt","Formal_t2_reverse.thisRepN","Formal_t2_reverse.thisTrialN","Formal_t2_reverse.thisN","Formal_t2_reverse.thisIndex","Formal_t2_reverse.ran","key_instruct.keys","key_instruct.rt","Subject"
"space",2.2685,"space",5.2932,"e",1,0.6093,0,0,0,2,1,"我们","e",1,1,"2024-08-23_19h38.02.637","IAT(Formal)","2021.2.3","Win32",120.875136,"",NA,"",NA,NA,NA,NA,NA,NA,NA,"","","",NA,"",NA,NA,NA,NA,NA,NA,NA,"","","",NA,NA,NA,NA,NA,NA,"",NA,"",NA,NA,NA,NA,NA,NA,NA,"",NA,"",NA,NA,NA,NA,NA,NA,NA,"","","",NA,"",NA,NA,NA,NA,NA,NA,NA,"",NA,"14"
"",NA,"",NA,"e",1,0.4259,0,1,1,1,1,"我的","e",1,1,"2024-08-23_19h38.02.637","IAT(Formal)","2021.2.3","Win32",120.875136,"",NA,"",NA,NA,NA,NA,NA,NA,NA,"","","",NA,"",NA,NA,NA,NA,NA,NA,NA,"","","",NA,NA,NA,NA,NA,NA,"",NA,"",NA,NA,NA,NA,NA,NA,NA,"",NA,"",NA,NA,NA,NA,NA,NA,NA,"","","",NA,"",NA,NA,NA,NA,NA,NA,NA,"",NA,"14"
"",NA,"",NA,"i",1,0.3575,0,2,2,5,1,"他","i",1,1,"2024-08-23_19h38.02.637","IAT(Formal)","2021.2.3","Win32",120.875136,"",NA,"",NA,NA,NA,NA,NA,NA,NA,"","","",NA,"",NA,NA,NA,NA,NA,NA,NA,"","","",NA,NA,NA,NA,NA,NA,"",NA,"",NA,NA,NA,NA,NA,NA,NA,"",NA,"",NA,NA,NA,NA,NA,NA,NA,"","","",NA,"",NA,NA,NA,NA,NA,NA,NA,"",NA,"14"
"",NA,"",NA,"i",1,0.5414,0,3,3,9,1,"其他","i",1,1,"2024-08-23_19h38.02.637","IAT(Formal)","2021.2.3","Win32",120.875136,"",NA,"",NA,NA,NA,NA,NA,NA,NA,"","","",NA,"",NA,NA,NA,NA,NA,NA,NA,"","","",NA,NA,NA,NA,NA,NA,"",NA,"",NA,NA,NA,NA,NA,NA,NA,"",NA,"",NA,NA,NA,NA,NA,NA,NA,"","","",NA,"",NA,NA,NA,NA,NA,NA,NA,"",NA,"14"
"",NA,"",NA,"e",1,0.6144,0,4,4,4,1,"俺","e",1,1,"2024-08-23_19h38.02.637","IAT(Formal)","2021.2.3","Win32",120.875136,"",NA,"",NA,NA,NA,NA,NA,NA,NA,"","","",NA,"",NA,NA,NA,NA,NA,NA,NA,"","","",NA,NA,NA,NA,NA,NA,"",NA,"",NA,NA,NA,NA,NA,NA,NA,"",NA,"",NA,NA,NA,NA,NA,NA,NA,"","","",NA,"",NA,NA,NA,NA,NA,NA,NA,"",NA,"14"
"",NA,"",NA,"i",1,0.5172,0,5,5,8,1,"他人","i",1,1,"2024-08-23_19h38.02.637","IAT(Formal)","2021.2.3","Win32",120.875136,"",NA,"",NA,NA,NA,NA,NA,NA,NA,"","","",NA,"",NA,NA,NA,NA,NA,NA,NA,"","","",NA,NA,NA,NA,NA,NA,"",NA,"",NA,NA,NA,NA,NA,NA,NA,"",NA,"",NA,NA,NA,NA,NA,NA,NA,"","","",NA,"",NA,NA,NA,NA,NA,NA,NA,"",NA,"14"
"",NA,"",NA,"e",1,0.5159,0,6,6,0,1,"我","e",1,1,"2024-08-23_19h38.02.637","IAT(Formal)","2021.2.3","Win32",120.875136,"",NA,"",NA,NA,NA,NA,NA,NA,NA,"","","",NA,"",NA,NA,NA,NA,NA,NA,NA,"","","",NA,NA,NA,NA,NA,NA,"",NA,"",NA,NA,NA,NA,NA,NA,NA,"",NA,"",NA,NA,NA,NA,NA,NA,NA,"","","",NA,"",NA,NA,NA,NA,NA,NA,NA,"",NA,"14"
"",NA,"",NA,"e",1,0.4761,0,7,7,3,1,"自己","e",1,1,"2024-08-23_19h38.02.637","IAT(Formal)","2021.2.3","Win32",120.875136,"",NA,"",NA,NA,NA,NA,NA,NA,NA,"","","",NA,"",NA,NA,NA,NA,NA,NA,NA,"","","",NA,NA,NA,NA,NA,NA,"",NA,"",NA,NA,NA,NA,NA,NA,NA,"",NA,"",NA,NA,NA,NA,NA,NA,NA,"","","",NA,"",NA,NA,NA,NA,NA,NA,NA,"",NA,"14"
"",NA,"",NA,"i",1,0.4004,0,8,8,7,1,"他的","i",1,1,"2024-08-23_19h38.02.637","IAT(Formal)","2021.2.3","Win32",120.875136,"",NA,"",NA,NA,NA,NA,NA,NA,NA,"","","",NA,"",NA,NA,NA,NA,NA,NA,NA,"","","",NA,NA,NA,NA,NA,NA,"",NA,"",NA,NA,NA,NA,NA,NA,NA,"",NA,"",NA,NA,NA,NA,NA,NA,NA,"","","",NA,"",NA,NA,NA,NA,NA,NA,NA,"",NA,"14"
"",NA,"",NA,"i",1,0.3799,0,9,9,6,1,"他们","i",1,1,"2024-08-23_19h38.02.637","IAT(Formal)","2021.2.3","Win32",120.875136,"",NA,"",NA,NA,NA,NA,NA,NA,NA,"","","",NA,"",NA,NA,NA,NA,NA,NA,NA,"","","",NA,NA,NA,NA,NA,NA,"",NA,"",NA,NA,NA,NA,NA,NA,NA,"",NA,"",NA,NA,NA,NA,NA,NA,NA,"","","",NA,"",NA,NA,NA,NA,NA,NA,NA,"",NA,"14"
"",NA,"",NA,"",NA,NA,NA,NA,NA,NA,NA,"","",1,1,"2024-08-23_19h38.02.637","IAT(Formal)","2021.2.3","Win32",120.875136,"space",4.5392,"e",1,0.6115,0,0,0,1,1,"崇高","e","",NA,"",NA,NA,NA,NA,NA,NA,NA,"","","",NA,NA,NA,NA,NA,NA,"",NA,"",NA,NA,NA,NA,NA,NA,NA,"",NA,"",NA,NA,NA,NA,NA,NA,NA,"","","",NA,"",NA,NA,NA,NA,NA,NA,NA,"",NA,"14"
"",NA,"",NA,"",NA,NA,NA,NA,NA,NA,NA,"","",1,1,"2024-08-23_19h38.02.637","IAT(Formal)","2021.2.3","Win32",120.875136,"",NA,"i",1,0.9961,0,1,1,22,1,"愚蠢","i","",NA,"",NA,NA,NA,NA,NA,NA,NA,"","","",NA,NA,NA,NA,NA,NA,"",NA,"",NA,NA,NA,NA,NA,NA,NA,"",NA,"",NA,NA,NA,NA,NA,NA,NA,"","","",NA,"",NA,NA,NA,NA,NA,NA,NA,"",NA,"14"
"",NA,"",NA,"",NA,NA,NA,NA,NA,NA,NA,"","",1,1,"2024-08-23_19h38.02.637","IAT(Formal)","2021.2.3","Win32",120.875136,"",NA,"e",1,1.4714,0,2,2,16,1,"冷静","e","",NA,"",NA,NA,NA,NA,NA,NA,NA,"","","",NA,NA,NA,NA,NA,NA,"",NA,"",NA,NA,NA,NA,NA,NA,NA,"",NA,"",NA,NA,NA,NA,NA,NA,NA,"","","",NA,"",NA,NA,NA,NA,NA,NA,NA,"",NA,"14"
"",NA,"",NA,"",NA,NA,NA,NA,NA,NA,NA,"","",1,1,"2024-08-23_19h38.02.637","IAT(Formal)","2021.2.3","Win32",120.875136,"",NA,"e",1,0.5357,0,3,3,10,1,"认真","e","",NA,"",NA,NA,NA,NA,NA,NA,NA,"","","",NA,NA,NA,NA,NA,NA,"",NA,"",NA,NA,NA,NA,NA,NA,NA,"",NA,"",NA,NA,NA,NA,NA,NA,NA,"","","",NA,"",NA,NA,NA,NA,NA,NA,NA,"",NA,"14"
"",NA,"",NA,"",NA,NA,NA,NA,NA,NA,NA,"","",1,1,"2024-08-23_19h38.02.637","IAT(Formal)","2021.2.3","Win32",120.875136,"",NA,"e",1,0.8271,0,4,4,7,1,"勇敢","e","",NA,"",NA,NA,NA,NA,NA,NA,NA,"","","",NA,NA,NA,NA,NA,NA,"",NA,"",NA,NA,NA,NA,NA,NA,NA,"",NA,"",NA,NA,NA,NA,NA,NA,NA,"","","",NA,"",NA,NA,NA,NA,NA,NA,NA,"",NA,"14"
"",NA,"",NA,"",NA,NA,NA,NA,NA,NA,NA,"","",1,1,"2024-08-23_19h38.02.637","IAT(Formal)","2021.2.3","Win32",120.875136,"",NA,"i",1,0.6821,0,5,5,23,1,"刻薄","i","",NA,"",NA,NA,NA,NA,NA,NA,NA,"","","",NA,NA,NA,NA,NA,NA,"",NA,"",NA,NA,NA,NA,NA,NA,NA,"",NA,"",NA,NA,NA,NA,NA,NA,NA,"","","",NA,"",NA,NA,NA,NA,NA,NA,NA,"",NA,"14"
"",NA,"",NA,"",NA,NA,NA,NA,NA,NA,NA,"","",1,1,"2024-08-23_19h38.02.637","IAT(Formal)","2021.2.3","Win32",120.875136,"",NA,"e",1,0.509,0,6,6,8,1,"勤奋","e","",NA,"",NA,NA,NA,NA,NA,NA,NA,"","","",NA,NA,NA,NA,NA,NA,"",NA,"",NA,NA,NA,NA,NA,NA,NA,"",NA,"",NA,NA,NA,NA,NA,NA,NA,"","","",NA,"",NA,NA,NA,NA,NA,NA,NA,"",NA,"14"
"",NA,"",NA,"",NA,NA,NA,NA,NA,NA,NA,"","",1,1,"2024-08-23_19h38.02.637","IAT(Formal)","2021.2.3","Win32",120.875136,"",NA,"i",1,0.5796,0,7,7,38,1,"轻率","i","",NA,"",NA,NA,NA,NA,NA,NA,NA,"","","",NA,NA,NA,NA,NA,NA,"",NA,"",NA,NA,NA,NA,NA,NA,NA,"",NA,"",NA,NA,NA,NA,NA,NA,NA,"","","",NA,"",NA,NA,NA,NA,NA,NA,NA,"",NA,"14"
"",NA,"",NA,"",NA,NA,NA,NA,NA,NA,NA,"","",1,1,"2024-08-23_19h38.02.637","IAT(Formal)","2021.2.3","Win32",120.875136,"",NA,"e",1,0.5174,0,8,8,19,1,"诚恳","e","",NA,"",NA,NA,NA,NA,NA,NA,NA,"","","",NA,NA,NA,NA,NA,NA,"",NA,"",NA,NA,NA,NA,NA,NA,NA,"",NA,"",NA,NA,NA,NA,NA,NA,NA,"","","",NA,"",NA,NA,NA,NA,NA,NA,NA,"",NA,"14"
"",NA,"",NA,"",NA,NA,NA,NA,NA,NA,NA,"","",1,1,"2024-08-23_19h38.02.637","IAT(Formal)","2021.2.3","Win32",120.875136,"",NA,"e",1,1.1288,0,9,9,12,1,"无私","e","",NA,"",NA,NA,NA,NA,NA,NA,NA,"","","",NA,NA,NA,NA,NA,NA,"",NA,"",NA,NA,NA,NA,NA,NA,NA,"",NA,"",NA,NA,NA,NA,NA,NA,NA,"","","",NA,"",NA,NA,NA,NA,NA,NA,NA,"",NA,"14"
"",NA,"",NA,"",NA,NA,NA,NA,NA,NA,NA,"","",1,1,"2024-08-23_19h38.02.637","IAT(Formal)","2021.2.3","Win32",120.875136,"",NA,"i",1,0.5746,0,10,10,32,1,"凶狠","i","",NA,"",NA,NA,NA,NA,NA,NA,NA,"","","",NA,NA,NA,NA,NA,NA,"",NA,"",NA,NA,NA,NA,NA,NA,NA,"",NA,"",NA,NA,NA,NA,NA,NA,NA,"","","",NA,"",NA,NA,NA,NA,NA,NA,NA,"",NA,"14"
"",NA,"",NA,"",NA,NA,NA,NA,NA,NA,NA,"","",1,1,"2024-08-23_19h38.02.637","IAT(Formal)","2021.2.3","Win32",120.875136,"",NA,"e",1,0.4614,0,11,11,6,1,"正直","e","",NA,"",NA,NA,NA,NA,NA,NA,NA,"","","",NA,NA,NA,NA,NA,NA,"",NA,"",NA,NA,NA,NA,NA,NA,NA,"",NA,"",NA,NA,NA,NA,NA,NA,NA,"","","",NA,"",NA,NA,NA,NA,NA,NA,NA,"",NA,"14"
"",NA,"",NA,"",NA,NA,NA,NA,NA,NA,NA,"","",1,1,"2024-08-23_19h38.02.637","IAT(Formal)","2021.2.3","Win32",120.875136,"",NA,"i",1,0.5991,0,12,12,25,1,"消极","i","",NA,"",NA,NA,NA,NA,NA,NA,NA,"","","",NA,NA,NA,NA,NA,NA,"",NA,"",NA,NA,NA,NA,NA,NA,NA,"",NA,"",NA,NA,NA,NA,NA,NA,NA,"","","",NA,"",NA,NA,NA,NA,NA,NA,NA,"",NA,"14"
"",NA,"",NA,"",NA,NA,NA,NA,NA,NA,NA,"","",1,1,"2024-08-23_19h38.02.637","IAT(Formal)","2021.2.3","Win32",120.875136,"",NA,"e",1,0.549,0,13,13,9,1,"机智","e","",NA,"",NA,NA,NA,NA,NA,NA,NA,"","","",NA,NA,NA,NA,NA,NA,"",NA,"",NA,NA,NA,NA,NA,NA,NA,"",NA,"",NA,NA,NA,NA,NA,NA,NA,"","","",NA,"",NA,NA,NA,NA,NA,NA,NA,"",NA,"14"
"",NA,"",NA,"",NA,NA,NA,NA,NA,NA,NA,"","",1,1,"2024-08-23_19h38.02.637","IAT(Formal)","2021.2.3","Win32",120.875136,"",NA,"i",1,0.5795,0,14,14,28,1,"鲁莽","i","",NA,"",NA,NA,NA,NA,NA,NA,NA,"","","",NA,NA,NA,NA,NA,NA,"",NA,"",NA,NA,NA,NA,NA,NA,NA,"",NA,"",NA,NA,NA,NA,NA,NA,NA,"","","",NA,"",NA,NA,NA,NA,NA,NA,NA,"",NA,"14"
"",NA,"",NA,"",NA,NA,NA,NA,NA,NA,NA,"","",1,1,"2024-08-23_19h38.02.637","IAT(Formal)","2021.2.3","Win32",120.875136,"",NA,"e",1,0.4668,0,15,15,13,1,"公正","e","",NA,"",NA,NA,NA,NA,NA,NA,NA,"","","",NA,NA,NA,NA,NA,NA,"",NA,"",NA,NA,NA,NA,NA,NA,NA,"",NA,"",NA,NA,NA,NA,NA,NA,NA,"","","",NA,"",NA,NA,NA,NA,NA,NA,NA,"",NA,"14"
"",NA,"",NA,"",NA,NA,NA,NA,NA,NA,NA,"","",1,1,"2024-08-23_19h38.02.637","IAT(Formal)","2021.2.3","Win32",120.875136,"",NA,"i",1,0.4713,0,16,16,31,1,"散漫","i","",NA,"",NA,NA,NA,NA,NA,NA,NA,"","","",NA,NA,NA,NA,NA,NA,"",NA,"",NA,NA,NA,NA,NA,NA,NA,"",NA,"",NA,NA,NA,NA,NA,NA,NA,"","","",NA,"",NA,NA,NA,NA,NA,NA,NA,"",NA,"14"
"",NA,"",NA,"",NA,NA,NA,NA,NA,NA,NA,"","",1,1,"2024-08-23_19h38.02.637","IAT(Formal)","2021.2.3","Win32",120.875136,"",NA,"i",1,0.6724,0,17,17,24,1,"悲观","i","",NA,"",NA,NA,NA,NA,NA,NA,NA,"","","",NA,NA,NA,NA,NA,NA,"",NA,"",NA,NA,NA,NA,NA,NA,NA,"",NA,"",NA,NA,NA,NA,NA,NA,NA,"","","",NA,"",NA,NA,NA,NA,NA,NA,NA,"",NA,"14"
"",NA,"",NA,"",NA,NA,NA,NA,NA,NA,NA,"","",1,1,"2024-08-23_19h38.02.637","IAT(Formal)","2021.2.3","Win32",120.875136,"",NA,"i",1,0.8297,0,18,18,29,1,"冒失","i","",NA,"",NA,NA,NA,NA,NA,NA,NA,"","","",NA,NA,NA,NA,NA,NA,"",NA,"",NA,NA,NA,NA,NA,NA,NA,"",NA,"",NA,NA,NA,NA,NA,NA,NA,"","","",NA,"",NA,NA,NA,NA,NA,NA,NA,"",NA,"14"
"",NA,"",NA,"",NA,NA,NA,NA,NA,NA,NA,"","",1,1,"2024-08-23_19h38.02.637","IAT(Formal)","2021.2.3","Win32",120.875136,"",NA,"i",1,0.508,0,19,19,26,1,"自卑","i","",NA,"",NA,NA,NA,NA,NA,NA,NA,"","","",NA,NA,NA,NA,NA,NA,"",NA,"",NA,NA,NA,NA,NA,NA,NA,"",NA,"",NA,NA,NA,NA,NA,NA,NA,"","","",NA,"",NA,NA,NA,NA,NA,NA,NA,"",NA,"14"
"",NA,"",NA,"",NA,NA,NA,NA,NA,NA,NA,"","",1,1,"2024-08-23_19h38.02.637","IAT(Formal)","2021.2.3","Win32",120.875136,"",NA,"i",1,0.5344,0,20,20,35,1,"猖狂","i","",NA,"",NA,NA,NA,NA,NA,NA,NA,"","","",NA,NA,NA,NA,NA,NA,"",NA,"",NA,NA,NA,NA,NA,NA,NA,"",NA,"",NA,NA,NA,NA,NA,NA,NA,"","","",NA,"",NA,NA,NA,NA,NA,NA,NA,"",NA,"14"
"",NA,"",NA,"",NA,NA,NA,NA,NA,NA,NA,"","",1,1,"2024-08-23_19h38.02.637","IAT(Formal)","2021.2.3","Win32",120.875136,"",NA,"i",1,0.7044,0,21,21,37,1,"固执","i","",NA,"",NA,NA,NA,NA,NA,NA,NA,"","","",NA,NA,NA,NA,NA,NA,"",NA,"",NA,NA,NA,NA,NA,NA,NA,"",NA,"",NA,NA,NA,NA,NA,NA,NA,"","","",NA,"",NA,NA,NA,NA,NA,NA,NA,"",NA,"14"
"",NA,"",NA,"",NA,NA,NA,NA,NA,NA,NA,"","",1,1,"2024-08-23_19h38.02.637","IAT(Formal)","2021.2.3","Win32",120.875136,"",NA,"i",1,0.5928,0,22,22,36,1,"野蛮","i","",NA,"",NA,NA,NA,NA,NA,NA,NA,"","","",NA,NA,NA,NA,NA,NA,"",NA,"",NA,NA,NA,NA,NA,NA,NA,"",NA,"",NA,NA,NA,NA,NA,NA,NA,"","","",NA,"",NA,NA,NA,NA,NA,NA,NA,"",NA,"14"
"",NA,"",NA,"",NA,NA,NA,NA,NA,NA,NA,"","",1,1,"2024-08-23_19h38.02.637","IAT(Formal)","2021.2.3","Win32",120.875136,"",NA,"i",1,0.4046,0,23,23,39,1,"下贱","i","",NA,"",NA,NA,NA,NA,NA,NA,NA,"","","",NA,NA,NA,NA,NA,NA,"",NA,"",NA,NA,NA,NA,NA,NA,NA,"",NA,"",NA,NA,NA,NA,NA,NA,NA,"","","",NA,"",NA,NA,NA,NA,NA,NA,NA,"",NA,"14"
"",NA,"",NA,"",NA,NA,NA,NA,NA,NA,NA,"","",1,1,"2024-08-23_19h38.02.637","IAT(Formal)","2021.2.3","Win32",120.875136,"",NA,"e",1,0.4923,0,24,24,2,1,"聪明","e","",NA,"",NA,NA,NA,NA,NA,NA,NA,"","","",NA,NA,NA,NA,NA,NA,"",NA,"",NA,NA,NA,NA,NA,NA,NA,"",NA,"",NA,NA,NA,NA,NA,NA,NA,"","","",NA,"",NA,NA,NA,NA,NA,NA,NA,"",NA,"14"
"",NA,"",NA,"",NA,NA,NA,NA,NA,NA,NA,"","",1,1,"2024-08-23_19h38.02.637","IAT(Formal)","2021.2.3","Win32",120.875136,"",NA,"i",0,0.6297,0,25,25,15,1,"细腻","e","",NA,"",NA,NA,NA,NA,NA,NA,NA,"","","",NA,NA,NA,NA,NA,NA,"",NA,"",NA,NA,NA,NA,NA,NA,NA,"",NA,"",NA,NA,NA,NA,NA,NA,NA,"","","",NA,"",NA,NA,NA,NA,NA,NA,NA,"",NA,"14"
"",NA,"",NA,"",NA,NA,NA,NA,NA,NA,NA,"","",1,1,"2024-08-23_19h38.02.637","IAT(Formal)","2021.2.3","Win32",120.875136,"",NA,"i",1,0.5063,0,26,26,30,1,"执拗","i","",NA,"",NA,NA,NA,NA,NA,NA,NA,"","","",NA,NA,NA,NA,NA,NA,"",NA,"",NA,NA,NA,NA,NA,NA,NA,"",NA,"",NA,NA,NA,NA,NA,NA,NA,"","","",NA,"",NA,NA,NA,NA,NA,NA,NA,"",NA,"14"
"",NA,"",NA,"",NA,NA,NA,NA,NA,NA,NA,"","",1,1,"2024-08-23_19h38.02.637","IAT(Formal)","2021.2.3","Win32",120.875136,"",NA,"e",1,0.538,0,27,27,18,1,"活泼","e","",NA,"",NA,NA,NA,NA,NA,NA,NA,"","","",NA,NA,NA,NA,NA,NA,"",NA,"",NA,NA,NA,NA,NA,NA,NA,"",NA,"",NA,NA,NA,NA,NA,NA,NA,"","","",NA,"",NA,NA,NA,NA,NA,NA,NA,"",NA,"14"
"",NA,"",NA,"",NA,NA,NA,NA,NA,NA,NA,"","",1,1,"2024-08-23_19h38.02.637","IAT(Formal)","2021.2.3","Win32",120.875136,"",NA,"i",1,0.5143,0,28,28,21,1,"虚伪","i","",NA,"",NA,NA,NA,NA,NA,NA,NA,"","","",NA,NA,NA,NA,NA,NA,"",NA,"",NA,NA,NA,NA,NA,NA,NA,"",NA,"",NA,NA,NA,NA,NA,NA,NA,"","","",NA,"",NA,NA,NA,NA,NA,NA,NA,"",NA,"14"
"",NA,"",NA,"",NA,NA,NA,NA,NA,NA,NA,"","",1,1,"2024-08-23_19h38.02.637","IAT(Formal)","2021.2.3","Win32",120.875136,"",NA,"e",1,0.563,0,29,29,11,1,"稳重","e","",NA,"",NA,NA,NA,NA,NA,NA,NA,"","","",NA,NA,NA,NA,NA,NA,"",NA,"",NA,NA,NA,NA,NA,NA,NA,"",NA,"",NA,NA,NA,NA,NA,NA,NA,"","","",NA,"",NA,NA,NA,NA,NA,NA,NA,"",NA,"14"
"",NA,"",NA,"",NA,NA,NA,NA,NA,NA,NA,"","",1,1,"2024-08-23_19h38.02.637","IAT(Formal)","2021.2.3","Win32",120.875136,"",NA,"e",1,0.6747,0,30,30,3,1,"杰出","e","",NA,"",NA,NA,NA,NA,NA,NA,NA,"","","",NA,NA,NA,NA,NA,NA,"",NA,"",NA,NA,NA,NA,NA,NA,NA,"",NA,"",NA,NA,NA,NA,NA,NA,NA,"","","",NA,"",NA,NA,NA,NA,NA,NA,NA,"",NA,"14"
"",NA,"",NA,"",NA,NA,NA,NA,NA,NA,NA,"","",1,1,"2024-08-23_19h38.02.637","IAT(Formal)","2021.2.3","Win32",120.875136,"",NA,"e",1,0.4437,0,31,31,5,1,"诚实","e","",NA,"",NA,NA,NA,NA,NA,NA,NA,"","","",NA,NA,NA,NA,NA,NA,"",NA,"",NA,NA,NA,NA,NA,NA,NA,"",NA,"",NA,NA,NA,NA,NA,NA,NA,"","","",NA,"",NA,NA,NA,NA,NA,NA,NA,"",NA,"14"
"",NA,"",NA,"",NA,NA,NA,NA,NA,NA,NA,"","",1,1,"2024-08-23_19h38.02.637","IAT(Formal)","2021.2.3","Win32",120.875136,"",NA,"i",1,0.4689,0,32,32,34,1,"暴躁","i","",NA,"",NA,NA,NA,NA,NA,NA,NA,"","","",NA,NA,NA,NA,NA,NA,"",NA,"",NA,NA,NA,NA,NA,NA,NA,"",NA,"",NA,NA,NA,NA,NA,NA,NA,"","","",NA,"",NA,NA,NA,NA,NA,NA,NA,"",NA,"14"
"",NA,"",NA,"",NA,NA,NA,NA,NA,NA,NA,"","",1,1,"2024-08-23_19h38.02.637","IAT(Formal)","2021.2.3","Win32",120.875136,"",NA,"i",0,0.4791,0,33,33,14,1,"朴实","e","",NA,"",NA,NA,NA,NA,NA,NA,NA,"","","",NA,NA,NA,NA,NA,NA,"",NA,"",NA,NA,NA,NA,NA,NA,NA,"",NA,"",NA,NA,NA,NA,NA,NA,NA,"","","",NA,"",NA,NA,NA,NA,NA,NA,NA,"",NA,"14"
"",NA,"",NA,"",NA,NA,NA,NA,NA,NA,NA,"","",1,1,"2024-08-23_19h38.02.637","IAT(Formal)","2021.2.3","Win32",120.875136,"",NA,"e",1,0.632,0,34,34,4,1,"乐观","e","",NA,"",NA,NA,NA,NA,NA,NA,NA,"","","",NA,NA,NA,NA,NA,NA,"",NA,"",NA,NA,NA,NA,NA,NA,NA,"",NA,"",NA,NA,NA,NA,NA,NA,NA,"","","",NA,"",NA,NA,NA,NA,NA,NA,NA,"",NA,"14"
"",NA,"",NA,"",NA,NA,NA,NA,NA,NA,NA,"","",1,1,"2024-08-23_19h38.02.637","IAT(Formal)","2021.2.3","Win32",120.875136,"",NA,"i",1,0.7013,0,35,35,27,1,"傲慢","i","",NA,"",NA,NA,NA,NA,NA,NA,NA,"","","",NA,NA,NA,NA,NA,NA,"",NA,"",NA,NA,NA,NA,NA,NA,NA,"",NA,"",NA,NA,NA,NA,NA,NA,NA,"","","",NA,"",NA,NA,NA,NA,NA,NA,NA,"",NA,"14"
"",NA,"",NA,"",NA,NA,NA,NA,NA,NA,NA,"","",1,1,"2024-08-23_19h38.02.637","IAT(Formal)","2021.2.3","Win32",120.875136,"",NA,"e",1,0.43,0,36,36,17,1,"热情","e","",NA,"",NA,NA,NA,NA,NA,NA,NA,"","","",NA,NA,NA,NA,NA,NA,"",NA,"",NA,NA,NA,NA,NA,NA,NA,"",NA,"",NA,NA,NA,NA,NA,NA,NA,"","","",NA,"",NA,NA,NA,NA,NA,NA,NA,"",NA,"14"
"",NA,"",NA,"",NA,NA,NA,NA,NA,NA,NA,"","",1,1,"2024-08-23_19h38.02.637","IAT(Formal)","2021.2.3","Win32",120.875136,"",NA,"i",1,0.5313,0,37,37,20,1,"卑鄙","i","",NA,"",NA,NA,NA,NA,NA,NA,NA,"","","",NA,NA,NA,NA,NA,NA,"",NA,"",NA,NA,NA,NA,NA,NA,NA,"",NA,"",NA,NA,NA,NA,NA,NA,NA,"","","",NA,"",NA,NA,NA,NA,NA,NA,NA,"",NA,"14"
"",NA,"",NA,"",NA,NA,NA,NA,NA,NA,NA,"","",1,1,"2024-08-23_19h38.02.637","IAT(Formal)","2021.2.3","Win32",120.875136,"",NA,"e",1,0.5663,0,38,38,0,1,"优秀","e","",NA,"",NA,NA,NA,NA,NA,NA,NA,"","","",NA,NA,NA,NA,NA,NA,"",NA,"",NA,NA,NA,NA,NA,NA,NA,"",NA,"",NA,NA,NA,NA,NA,NA,NA,"","","",NA,"",NA,NA,NA,NA,NA,NA,NA,"",NA,"14"
"",NA,"",NA,"",NA,NA,NA,NA,NA,NA,NA,"","",1,1,"2024-08-23_19h38.02.637","IAT(Formal)","2021.2.3","Win32",120.875136,"",NA,"i",1,0.6442,0,39,39,33,1,"自私","i","",NA,"",NA,NA,NA,NA,NA,NA,NA,"","","",NA,NA,NA,NA,NA,NA,"",NA,"",NA,NA,NA,NA,NA,NA,NA,"",NA,"",NA,NA,NA,NA,NA,NA,NA,"","","",NA,"",NA,NA,NA,NA,NA,NA,NA,"",NA,"14"
"",NA,"",NA,"",NA,NA,NA,NA,NA,NA,NA,"","",1,1,"2024-08-23_19h38.02.637","IAT(Formal)","2021.2.3","Win32",120.875136,"",NA,"",NA,NA,NA,NA,NA,NA,NA,"","","space",29.9606,"e",1,0.4339,0,0,0,60,1,"我","e","",NA,NA,NA,NA,NA,NA,"",NA,"",NA,NA,NA,NA,NA,NA,NA,"",NA,"",NA,NA,NA,NA,NA,NA,NA,"","","",NA,"",NA,NA,NA,NA,NA,NA,NA,"",NA,"14"
"",NA,"",NA,"",NA,NA,NA,NA,NA,NA,NA,"","",1,1,"2024-08-23_19h38.02.637","IAT(Formal)","2021.2.3","Win32",120.875136,"",NA,"",NA,NA,NA,NA,NA,NA,NA,"","","",NA,"e",1,0.5817,0,1,1,63,1,"自己","e","",NA,NA,NA,NA,NA,NA,"",NA,"",NA,NA,NA,NA,NA,NA,NA,"",NA,"",NA,NA,NA,NA,NA,NA,NA,"","","",NA,"",NA,NA,NA,NA,NA,NA,NA,"",NA,"14"
"",NA,"",NA,"",NA,NA,NA,NA,NA,NA,NA,"","",1,1,"2024-08-23_19h38.02.637","IAT(Formal)","2021.2.3","Win32",120.875136,"",NA,"",NA,NA,NA,NA,NA,NA,NA,"","","",NA,"i",1,0.5432,0,2,2,44,1,"暴躁","i","",NA,NA,NA,NA,NA,NA,"",NA,"",NA,NA,NA,NA,NA,NA,NA,"",NA,"",NA,NA,NA,NA,NA,NA,NA,"","","",NA,"",NA,NA,NA,NA,NA,NA,NA,"",NA,"14"
"",NA,"",NA,"",NA,NA,NA,NA,NA,NA,NA,"","",1,1,"2024-08-23_19h38.02.637","IAT(Formal)","2021.2.3","Win32",120.875136,"",NA,"",NA,NA,NA,NA,NA,NA,NA,"","","",NA,"i",1,0.5834,0,3,3,40,1,"执拗","i","",NA,NA,NA,NA,NA,NA,"",NA,"",NA,NA,NA,NA,NA,NA,NA,"",NA,"",NA,NA,NA,NA,NA,NA,NA,"","","",NA,"",NA,NA,NA,NA,NA,NA,NA,"",NA,"14"
"",NA,"",NA,"",NA,NA,NA,NA,NA,NA,NA,"","",1,1,"2024-08-23_19h38.02.637","IAT(Formal)","2021.2.3","Win32",120.875136,"",NA,"",NA,NA,NA,NA,NA,NA,NA,"","","",NA,"e",1,0.5162,0,4,4,19,1,"机智","e","",NA,NA,NA,NA,NA,NA,"",NA,"",NA,NA,NA,NA,NA,NA,NA,"",NA,"",NA,NA,NA,NA,NA,NA,NA,"","","",NA,"",NA,NA,NA,NA,NA,NA,NA,"",NA,"14"
"",NA,"",NA,"",NA,NA,NA,NA,NA,NA,NA,"","",1,1,"2024-08-23_19h38.02.637","IAT(Formal)","2021.2.3","Win32",120.875136,"",NA,"",NA,NA,NA,NA,NA,NA,NA,"","","",NA,"i",1,0.5241,0,5,5,79,1,"其他","i","",NA,NA,NA,NA,NA,NA,"",NA,"",NA,NA,NA,NA,NA,NA,NA,"",NA,"",NA,NA,NA,NA,NA,NA,NA,"","","",NA,"",NA,NA,NA,NA,NA,NA,NA,"",NA,"14"
"",NA,"",NA,"",NA,NA,NA,NA,NA,NA,NA,"","",1,1,"2024-08-23_19h38.02.637","IAT(Formal)","2021.2.3","Win32",120.875136,"",NA,"",NA,NA,NA,NA,NA,NA,NA,"","","",NA,"i",1,0.5915,0,6,6,41,1,"散漫","i","",NA,NA,NA,NA,NA,NA,"",NA,"",NA,NA,NA,NA,NA,NA,NA,"",NA,"",NA,NA,NA,NA,NA,NA,NA,"","","",NA,"",NA,NA,NA,NA,NA,NA,NA,"",NA,"14"
"",NA,"",NA,"",NA,NA,NA,NA,NA,NA,NA,"","",1,1,"2024-08-23_19h38.02.637","IAT(Formal)","2021.2.3","Win32",120.875136,"",NA,"",NA,NA,NA,NA,NA,NA,NA,"","","",NA,"e",1,0.4433,0,7,7,61,1,"我的","e","",NA,NA,NA,NA,NA,NA,"",NA,"",NA,NA,NA,NA,NA,NA,NA,"",NA,"",NA,NA,NA,NA,NA,NA,NA,"","","",NA,"",NA,NA,NA,NA,NA,NA,NA,"",NA,"14"
"",NA,"",NA,"",NA,NA,NA,NA,NA,NA,NA,"","",1,1,"2024-08-23_19h38.02.637","IAT(Formal)","2021.2.3","Win32",120.875136,"",NA,"",NA,NA,NA,NA,NA,NA,NA,"","","",NA,"i",1,0.8717,0,8,8,30,1,"卑鄙","i","",NA,NA,NA,NA,NA,NA,"",NA,"",NA,NA,NA,NA,NA,NA,NA,"",NA,"",NA,NA,NA,NA,NA,NA,NA,"","","",NA,"",NA,NA,NA,NA,NA,NA,NA,"",NA,"14"
"",NA,"",NA,"",NA,NA,NA,NA,NA,NA,NA,"","",1,1,"2024-08-23_19h38.02.637","IAT(Formal)","2021.2.3","Win32",120.875136,"",NA,"",NA,NA,NA,NA,NA,NA,NA,"","","",NA,"e",1,0.4859,0,9,9,14,1,"乐观","e","",NA,NA,NA,NA,NA,NA,"",NA,"",NA,NA,NA,NA,NA,NA,NA,"",NA,"",NA,NA,NA,NA,NA,NA,NA,"","","",NA,"",NA,NA,NA,NA,NA,NA,NA,"",NA,"14"
"",NA,"",NA,"",NA,NA,NA,NA,NA,NA,NA,"","",1,1,"2024-08-23_19h38.02.637","IAT(Formal)","2021.2.3","Win32",120.875136,"",NA,"",NA,NA,NA,NA,NA,NA,NA,"","","",NA,"e",1,0.5164,0,10,10,54,1,"俺","e","",NA,NA,NA,NA,NA,NA,"",NA,"",NA,NA,NA,NA,NA,NA,NA,"",NA,"",NA,NA,NA,NA,NA,NA,NA,"","","",NA,"",NA,NA,NA,NA,NA,NA,NA,"",NA,"14"
"",NA,"",NA,"",NA,NA,NA,NA,NA,NA,NA,"","",1,1,"2024-08-23_19h38.02.637","IAT(Formal)","2021.2.3","Win32",120.875136,"",NA,"",NA,NA,NA,NA,NA,NA,NA,"","","",NA,"e",1,0.576,0,11,11,23,1,"公正","e","",NA,NA,NA,NA,NA,NA,"",NA,"",NA,NA,NA,NA,NA,NA,NA,"",NA,"",NA,NA,NA,NA,NA,NA,NA,"","","",NA,"",NA,NA,NA,NA,NA,NA,NA,"",NA,"14"
"",NA,"",NA,"",NA,NA,NA,NA,NA,NA,NA,"","",1,1,"2024-08-23_19h38.02.637","IAT(Formal)","2021.2.3","Win32",120.875136,"",NA,"",NA,NA,NA,NA,NA,NA,NA,"","","",NA,"e",1,0.4923,0,12,12,29,1,"诚恳","e","",NA,NA,NA,NA,NA,NA,"",NA,"",NA,NA,NA,NA,NA,NA,NA,"",NA,"",NA,NA,NA,NA,NA,NA,NA,"","","",NA,"",NA,NA,NA,NA,NA,NA,NA,"",NA,"14"
"",NA,"",NA,"",NA,NA,NA,NA,NA,NA,NA,"","",1,1,"2024-08-23_19h38.02.637","IAT(Formal)","2021.2.3","Win32",120.875136,"",NA,"",NA,NA,NA,NA,NA,NA,NA,"","","",NA,"e",1,0.7467,0,13,13,64,1,"俺","e","",NA,NA,NA,NA,NA,NA,"",NA,"",NA,NA,NA,NA,NA,NA,NA,"",NA,"",NA,NA,NA,NA,NA,NA,NA,"","","",NA,"",NA,NA,NA,NA,NA,NA,NA,"",NA,"14"
"",NA,"",NA,"",NA,NA,NA,NA,NA,NA,NA,"","",1,1,"2024-08-23_19h38.02.637","IAT(Formal)","2021.2.3","Win32",120.875136,"",NA,"",NA,NA,NA,NA,NA,NA,NA,"","","",NA,"i",1,0.6196,0,14,14,75,1,"他","i","",NA,NA,NA,NA,NA,NA,"",NA,"",NA,NA,NA,NA,NA,NA,NA,"",NA,"",NA,NA,NA,NA,NA,NA,NA,"","","",NA,"",NA,NA,NA,NA,NA,NA,NA,"",NA,"14"
"",NA,"",NA,"",NA,NA,NA,NA,NA,NA,NA,"","",1,1,"2024-08-23_19h38.02.637","IAT(Formal)","2021.2.3","Win32",120.875136,"",NA,"",NA,NA,NA,NA,NA,NA,NA,"","","",NA,"i",1,0.5235,0,15,15,56,1,"他们","i","",NA,NA,NA,NA,NA,NA,"",NA,"",NA,NA,NA,NA,NA,NA,NA,"",NA,"",NA,NA,NA,NA,NA,NA,NA,"","","",NA,"",NA,NA,NA,NA,NA,NA,NA,"",NA,"14"
"",NA,"",NA,"",NA,NA,NA,NA,NA,NA,NA,"","",1,1,"2024-08-23_19h38.02.637","IAT(Formal)","2021.2.3","Win32",120.875136,"",NA,"",NA,NA,NA,NA,NA,NA,NA,"","","",NA,"e",1,0.4789,0,16,16,24,1,"朴实","e","",NA,NA,NA,NA,NA,NA,"",NA,"",NA,NA,NA,NA,NA,NA,NA,"",NA,"",NA,NA,NA,NA,NA,NA,NA,"","","",NA,"",NA,NA,NA,NA,NA,NA,NA,"",NA,"14"
"",NA,"",NA,"",NA,NA,NA,NA,NA,NA,NA,"","",1,1,"2024-08-23_19h38.02.637","IAT(Formal)","2021.2.3","Win32",120.875136,"",NA,"",NA,NA,NA,NA,NA,NA,NA,"","","",NA,"i",1,0.5629,0,17,17,47,1,"固执","i","",NA,NA,NA,NA,NA,NA,"",NA,"",NA,NA,NA,NA,NA,NA,NA,"",NA,"",NA,NA,NA,NA,NA,NA,NA,"","","",NA,"",NA,NA,NA,NA,NA,NA,NA,"",NA,"14"
"",NA,"",NA,"",NA,NA,NA,NA,NA,NA,NA,"","",1,1,"2024-08-23_19h38.02.637","IAT(Formal)","2021.2.3","Win32",120.875136,"",NA,"",NA,NA,NA,NA,NA,NA,NA,"","","",NA,"i",1,0.6286,0,18,18,76,1,"他们","i","",NA,NA,NA,NA,NA,NA,"",NA,"",NA,NA,NA,NA,NA,NA,NA,"",NA,"",NA,NA,NA,NA,NA,NA,NA,"","","",NA,"",NA,NA,NA,NA,NA,NA,NA,"",NA,"14"
"",NA,"",NA,"",NA,NA,NA,NA,NA,NA,NA,"","",1,1,"2024-08-23_19h38.02.637","IAT(Formal)","2021.2.3","Win32",120.875136,"",NA,"",NA,NA,NA,NA,NA,NA,NA,"","","",NA,"i",1,0.5874,0,19,19,32,1,"愚蠢","i","",NA,NA,NA,NA,NA,NA,"",NA,"",NA,NA,NA,NA,NA,NA,NA,"",NA,"",NA,NA,NA,NA,NA,NA,NA,"","","",NA,"",NA,NA,NA,NA,NA,NA,NA,"",NA,"14"
"",NA,"",NA,"",NA,NA,NA,NA,NA,NA,NA,"","",1,1,"2024-08-23_19h38.02.637","IAT(Formal)","2021.2.3","Win32",120.875136,"",NA,"",NA,NA,NA,NA,NA,NA,NA,"","","",NA,"i",1,0.4208,0,20,20,7,1,"他的","i","",NA,NA,NA,NA,NA,NA,"",NA,"",NA,NA,NA,NA,NA,NA,NA,"",NA,"",NA,NA,NA,NA,NA,NA,NA,"","","",NA,"",NA,NA,NA,NA,NA,NA,NA,"",NA,"14"
"",NA,"",NA,"",NA,NA,NA,NA,NA,NA,NA,"","",1,1,"2024-08-23_19h38.02.637","IAT(Formal)","2021.2.3","Win32",120.875136,"",NA,"",NA,NA,NA,NA,NA,NA,NA,"","","",NA,"e",1,0.5496,0,21,21,51,1,"我的","e","",NA,NA,NA,NA,NA,NA,"",NA,"",NA,NA,NA,NA,NA,NA,NA,"",NA,"",NA,NA,NA,NA,NA,NA,NA,"","","",NA,"",NA,NA,NA,NA,NA,NA,NA,"",NA,"14"
"",NA,"",NA,"",NA,NA,NA,NA,NA,NA,NA,"","",1,1,"2024-08-23_19h38.02.637","IAT(Formal)","2021.2.3","Win32",120.875136,"",NA,"",NA,NA,NA,NA,NA,NA,NA,"","","",NA,"e",1,0.5168,0,22,22,16,1,"正直","e","",NA,NA,NA,NA,NA,NA,"",NA,"",NA,NA,NA,NA,NA,NA,NA,"",NA,"",NA,NA,NA,NA,NA,NA,NA,"","","",NA,"",NA,NA,NA,NA,NA,NA,NA,"",NA,"14"
"",NA,"",NA,"",NA,NA,NA,NA,NA,NA,NA,"","",1,1,"2024-08-23_19h38.02.637","IAT(Formal)","2021.2.3","Win32",120.875136,"",NA,"",NA,NA,NA,NA,NA,NA,NA,"","","",NA,"i",1,0.5072,0,23,23,9,1,"其他","i","",NA,NA,NA,NA,NA,NA,"",NA,"",NA,NA,NA,NA,NA,NA,NA,"",NA,"",NA,NA,NA,NA,NA,NA,NA,"","","",NA,"",NA,NA,NA,NA,NA,NA,NA,"",NA,"14"
"",NA,"",NA,"",NA,NA,NA,NA,NA,NA,NA,"","",1,1,"2024-08-23_19h38.02.637","IAT(Formal)","2021.2.3","Win32",120.875136,"",NA,"",NA,NA,NA,NA,NA,NA,NA,"","","",NA,"i",1,0.6049,0,24,24,36,1,"自卑","i","",NA,NA,NA,NA,NA,NA,"",NA,"",NA,NA,NA,NA,NA,NA,NA,"",NA,"",NA,NA,NA,NA,NA,NA,NA,"","","",NA,"",NA,NA,NA,NA,NA,NA,NA,"",NA,"14"
"",NA,"",NA,"",NA,NA,NA,NA,NA,NA,NA,"","",1,1,"2024-08-23_19h38.02.637","IAT(Formal)","2021.2.3","Win32",120.875136,"",NA,"",NA,NA,NA,NA,NA,NA,NA,"","","",NA,"e",1,0.5355,0,25,25,4,1,"俺","e","",NA,NA,NA,NA,NA,NA,"",NA,"",NA,NA,NA,NA,NA,NA,NA,"",NA,"",NA,NA,NA,NA,NA,NA,NA,"","","",NA,"",NA,NA,NA,NA,NA,NA,NA,"",NA,"14"
"",NA,"",NA,"",NA,NA,NA,NA,NA,NA,NA,"","",1,1,"2024-08-23_19h38.02.637","IAT(Formal)","2021.2.3","Win32",120.875136,"",NA,"",NA,NA,NA,NA,NA,NA,NA,"","","",NA,"e",1,0.8018,0,26,26,25,1,"细腻","e","",NA,NA,NA,NA,NA,NA,"",NA,"",NA,NA,NA,NA,NA,NA,NA,"",NA,"",NA,NA,NA,NA,NA,NA,NA,"","","",NA,"",NA,NA,NA,NA,NA,NA,NA,"",NA,"14"
"",NA,"",NA,"",NA,NA,NA,NA,NA,NA,NA,"","",1,1,"2024-08-23_19h38.02.637","IAT(Formal)","2021.2.3","Win32",120.875136,"",NA,"",NA,NA,NA,NA,NA,NA,NA,"","","",NA,"e",1,0.4952,0,27,27,17,1,"勇敢","e","",NA,NA,NA,NA,NA,NA,"",NA,"",NA,NA,NA,NA,NA,NA,NA,"",NA,"",NA,NA,NA,NA,NA,NA,NA,"","","",NA,"",NA,NA,NA,NA,NA,NA,NA,"",NA,"14"
"",NA,"",NA,"",NA,NA,NA,NA,NA,NA,NA,"","",1,1,"2024-08-23_19h38.02.637","IAT(Formal)","2021.2.3","Win32",120.875136,"",NA,"",NA,NA,NA,NA,NA,NA,NA,"","","",NA,"i",1,0.4903,0,28,28,39,1,"冒失","i","",NA,NA,NA,NA,NA,NA,"",NA,"",NA,NA,NA,NA,NA,NA,NA,"",NA,"",NA,NA,NA,NA,NA,NA,NA,"","","",NA,"",NA,NA,NA,NA,NA,NA,NA,"",NA,"14"
"",NA,"",NA,"",NA,NA,NA,NA,NA,NA,NA,"","",1,1,"2024-08-23_19h38.02.637","IAT(Formal)","2021.2.3","Win32",120.875136,"",NA,"",NA,NA,NA,NA,NA,NA,NA,"","","",NA,"e",1,0.6502,0,29,29,22,1,"无私","e","",NA,NA,NA,NA,NA,NA,"",NA,"",NA,NA,NA,NA,NA,NA,NA,"",NA,"",NA,NA,NA,NA,NA,NA,NA,"","","",NA,"",NA,NA,NA,NA,NA,NA,NA,"",NA,"14"
"",NA,"",NA,"",NA,NA,NA,NA,NA,NA,NA,"","",1,1,"2024-08-23_19h38.02.637","IAT(Formal)","2021.2.3","Win32",120.875136,"",NA,"",NA,NA,NA,NA,NA,NA,NA,"","","",NA,"e",1,0.4863,0,30,30,13,1,"杰出","e","",NA,NA,NA,NA,NA,NA,"",NA,"",NA,NA,NA,NA,NA,NA,NA,"",NA,"",NA,NA,NA,NA,NA,NA,NA,"","","",NA,"",NA,NA,NA,NA,NA,NA,NA,"",NA,"14"
"",NA,"",NA,"",NA,NA,NA,NA,NA,NA,NA,"","",1,1,"2024-08-23_19h38.02.637","IAT(Formal)","2021.2.3","Win32",120.875136,"",NA,"",NA,NA,NA,NA,NA,NA,NA,"","","",NA,"i",1,0.5412,0,31,31,67,1,"他的","i","",NA,NA,NA,NA,NA,NA,"",NA,"",NA,NA,NA,NA,NA,NA,NA,"",NA,"",NA,NA,NA,NA,NA,NA,NA,"","","",NA,"",NA,NA,NA,NA,NA,NA,NA,"",NA,"14"
"",NA,"",NA,"",NA,NA,NA,NA,NA,NA,NA,"","",1,1,"2024-08-23_19h38.02.637","IAT(Formal)","2021.2.3","Win32",120.875136,"",NA,"",NA,NA,NA,NA,NA,NA,NA,"","","",NA,"i",1,0.3834,0,32,32,78,1,"他人","i","",NA,NA,NA,NA,NA,NA,"",NA,"",NA,NA,NA,NA,NA,NA,NA,"",NA,"",NA,NA,NA,NA,NA,NA,NA,"","","",NA,"",NA,NA,NA,NA,NA,NA,NA,"",NA,"14"
"",NA,"",NA,"",NA,NA,NA,NA,NA,NA,NA,"","",1,1,"2024-08-23_19h38.02.637","IAT(Formal)","2021.2.3","Win32",120.875136,"",NA,"",NA,NA,NA,NA,NA,NA,NA,"","","",NA,"e",1,0.442,0,33,33,26,1,"冷静","e","",NA,NA,NA,NA,NA,NA,"",NA,"",NA,NA,NA,NA,NA,NA,NA,"",NA,"",NA,NA,NA,NA,NA,NA,NA,"","","",NA,"",NA,NA,NA,NA,NA,NA,NA,"",NA,"14"
"",NA,"",NA,"",NA,NA,NA,NA,NA,NA,NA,"","",1,1,"2024-08-23_19h38.02.637","IAT(Formal)","2021.2.3","Win32",120.875136,"",NA,"",NA,NA,NA,NA,NA,NA,NA,"","","",NA,"i",1,0.6116,0,34,34,6,1,"他们","i","",NA,NA,NA,NA,NA,NA,"",NA,"",NA,NA,NA,NA,NA,NA,NA,"",NA,"",NA,NA,NA,NA,NA,NA,NA,"","","",NA,"",NA,NA,NA,NA,NA,NA,NA,"",NA,"14"
"",NA,"",NA,"",NA,NA,NA,NA,NA,NA,NA,"","",1,1,"2024-08-23_19h38.02.637","IAT(Formal)","2021.2.3","Win32",120.875136,"",NA,"",NA,NA,NA,NA,NA,NA,NA,"","","",NA,"e",1,0.5927,0,35,35,12,1,"聪明","e","",NA,NA,NA,NA,NA,NA,"",NA,"",NA,NA,NA,NA,NA,NA,NA,"",NA,"",NA,NA,NA,NA,NA,NA,NA,"","","",NA,"",NA,NA,NA,NA,NA,NA,NA,"",NA,"14"
"",NA,"",NA,"",NA,NA,NA,NA,NA,NA,NA,"","",1,1,"2024-08-23_19h38.02.637","IAT(Formal)","2021.2.3","Win32",120.875136,"",NA,"",NA,NA,NA,NA,NA,NA,NA,"","","",NA,"i",1,0.6678,0,36,36,66,1,"他们","i","",NA,NA,NA,NA,NA,NA,"",NA,"",NA,NA,NA,NA,NA,NA,NA,"",NA,"",NA,NA,NA,NA,NA,NA,NA,"","","",NA,"",NA,NA,NA,NA,NA,NA,NA,"",NA,"14"
"",NA,"",NA,"",NA,NA,NA,NA,NA,NA,NA,"","",1,1,"2024-08-23_19h38.02.637","IAT(Formal)","2021.2.3","Win32",120.875136,"",NA,"",NA,NA,NA,NA,NA,NA,NA,"","","",NA,"e",1,0.5954,0,37,37,74,1,"俺","e","",NA,NA,NA,NA,NA,NA,"",NA,"",NA,NA,NA,NA,NA,NA,NA,"",NA,"",NA,NA,NA,NA,NA,NA,NA,"","","",NA,"",NA,NA,NA,NA,NA,NA,NA,"",NA,"14"
"",NA,"",NA,"",NA,NA,NA,NA,NA,NA,NA,"","",1,1,"2024-08-23_19h38.02.637","IAT(Formal)","2021.2.3","Win32",120.875136,"",NA,"",NA,NA,NA,NA,NA,NA,NA,"","","",NA,"e",1,0.6147,0,38,38,28,1,"活泼","e","",NA,NA,NA,NA,NA,NA,"",NA,"",NA,NA,NA,NA,NA,NA,NA,"",NA,"",NA,NA,NA,NA,NA,NA,NA,"","","",NA,"",NA,NA,NA,NA,NA,NA,NA,"",NA,"14"
"",NA,"",NA,"",NA,NA,NA,NA,NA,NA,NA,"","",1,1,"2024-08-23_19h38.02.637","IAT(Formal)","2021.2.3","Win32",120.875136,"",NA,"",NA,NA,NA,NA,NA,NA,NA,"","","",NA,"i",1,0.6045,0,39,39,65,1,"他","i","",NA,NA,NA,NA,NA,NA,"",NA,"",NA,NA,NA,NA,NA,NA,NA,"",NA,"",NA,NA,NA,NA,NA,NA,NA,"","","",NA,"",NA,NA,NA,NA,NA,NA,NA,"",NA,"14"
"",NA,"",NA,"",NA,NA,NA,NA,NA,NA,NA,"","",1,1,"2024-08-23_19h38.02.637","IAT(Formal)","2021.2.3","Win32",120.875136,"",NA,"",NA,NA,NA,NA,NA,NA,NA,"","","",NA,"i",1,0.8135,0,40,40,34,1,"悲观","i","",NA,NA,NA,NA,NA,NA,"",NA,"",NA,NA,NA,NA,NA,NA,NA,"",NA,"",NA,NA,NA,NA,NA,NA,NA,"","","",NA,"",NA,NA,NA,NA,NA,NA,NA,"",NA,"14"
"",NA,"",NA,"",NA,NA,NA,NA,NA,NA,NA,"","",1,1,"2024-08-23_19h38.02.637","IAT(Formal)","2021.2.3","Win32",120.875136,"",NA,"",NA,NA,NA,NA,NA,NA,NA,"","","",NA,"i",1,0.7201,0,41,41,46,1,"野蛮","i","",NA,NA,NA,NA,NA,NA,"",NA,"",NA,NA,NA,NA,NA,NA,NA,"",NA,"",NA,NA,NA,NA,NA,NA,NA,"","","",NA,"",NA,NA,NA,NA,NA,NA,NA,"",NA,"14"
"",NA,"",NA,"",NA,NA,NA,NA,NA,NA,NA,"","",1,1,"2024-08-23_19h38.02.637","IAT(Formal)","2021.2.3","Win32",120.875136,"",NA,"",NA,NA,NA,NA,NA,NA,NA,"","","",NA,"e",1,0.4722,0,42,42,21,1,"稳重","e","",NA,NA,NA,NA,NA,NA,"",NA,"",NA,NA,NA,NA,NA,NA,NA,"",NA,"",NA,NA,NA,NA,NA,NA,NA,"","","",NA,"",NA,NA,NA,NA,NA,NA,NA,"",NA,"14"
"",NA,"",NA,"",NA,NA,NA,NA,NA,NA,NA,"","",1,1,"2024-08-23_19h38.02.637","IAT(Formal)","2021.2.3","Win32",120.875136,"",NA,"",NA,NA,NA,NA,NA,NA,NA,"","","",NA,"i",1,0.6247,0,43,43,5,1,"他","i","",NA,NA,NA,NA,NA,NA,"",NA,"",NA,NA,NA,NA,NA,NA,NA,"",NA,"",NA,NA,NA,NA,NA,NA,NA,"","","",NA,"",NA,NA,NA,NA,NA,NA,NA,"",NA,"14"
"",NA,"",NA,"",NA,NA,NA,NA,NA,NA,NA,"","",1,1,"2024-08-23_19h38.02.637","IAT(Formal)","2021.2.3","Win32",120.875136,"",NA,"",NA,NA,NA,NA,NA,NA,NA,"","","",NA,"i",1,0.681,0,44,44,33,1,"刻薄","i","",NA,NA,NA,NA,NA,NA,"",NA,"",NA,NA,NA,NA,NA,NA,NA,"",NA,"",NA,NA,NA,NA,NA,NA,NA,"","","",NA,"",NA,NA,NA,NA,NA,NA,NA,"",NA,"14"
"",NA,"",NA,"",NA,NA,NA,NA,NA,NA,NA,"","",1,1,"2024-08-23_19h38.02.637","IAT(Formal)","2021.2.3","Win32",120.875136,"",NA,"",NA,NA,NA,NA,NA,NA,NA,"","","",NA,"i",1,0.5732,0,45,45,42,1,"凶狠","i","",NA,NA,NA,NA,NA,NA,"",NA,"",NA,NA,NA,NA,NA,NA,NA,"",NA,"",NA,NA,NA,NA,NA,NA,NA,"","","",NA,"",NA,NA,NA,NA,NA,NA,NA,"",NA,"14"
"",NA,"",NA,"",NA,NA,NA,NA,NA,NA,NA,"","",1,1,"2024-08-23_19h38.02.637","IAT(Formal)","2021.2.3","Win32",120.875136,"",NA,"",NA,NA,NA,NA,NA,NA,NA,"","","",NA,"i",1,0.6245,0,46,46,37,1,"傲慢","i","",NA,NA,NA,NA,NA,NA,"",NA,"",NA,NA,NA,NA,NA,NA,NA,"",NA,"",NA,NA,NA,NA,NA,NA,NA,"","","",NA,"",NA,NA,NA,NA,NA,NA,NA,"",NA,"14"
"",NA,"",NA,"",NA,NA,NA,NA,NA,NA,NA,"","",1,1,"2024-08-23_19h38.02.637","IAT(Formal)","2021.2.3","Win32",120.875136,"",NA,"",NA,NA,NA,NA,NA,NA,NA,"","","",NA,"e",1,0.4725,0,47,47,0,1,"我","e","",NA,NA,NA,NA,NA,NA,"",NA,"",NA,NA,NA,NA,NA,NA,NA,"",NA,"",NA,NA,NA,NA,NA,NA,NA,"","","",NA,"",NA,NA,NA,NA,NA,NA,NA,"",NA,"14"
"",NA,"",NA,"",NA,NA,NA,NA,NA,NA,NA,"","",1,1,"2024-08-23_19h38.02.637","IAT(Formal)","2021.2.3","Win32",120.875136,"",NA,"",NA,NA,NA,NA,NA,NA,NA,"","","",NA,"i",1,0.5983,0,48,48,35,1,"消极","i","",NA,NA,NA,NA,NA,NA,"",NA,"",NA,NA,NA,NA,NA,NA,NA,"",NA,"",NA,NA,NA,NA,NA,NA,NA,"","","",NA,"",NA,NA,NA,NA,NA,NA,NA,"",NA,"14"
"",NA,"",NA,"",NA,NA,NA,NA,NA,NA,NA,"","",1,1,"2024-08-23_19h38.02.637","IAT(Formal)","2021.2.3","Win32",120.875136,"",NA,"",NA,NA,NA,NA,NA,NA,NA,"","","",NA,"e",1,0.5203,0,49,49,11,1,"崇高","e","",NA,NA,NA,NA,NA,NA,"",NA,"",NA,NA,NA,NA,NA,NA,NA,"",NA,"",NA,NA,NA,NA,NA,NA,NA,"","","",NA,"",NA,NA,NA,NA,NA,NA,NA,"",NA,"14"
"",NA,"",NA,"",NA,NA,NA,NA,NA,NA,NA,"","",1,1,"2024-08-23_19h38.02.637","IAT(Formal)","2021.2.3","Win32",120.875136,"",NA,"",NA,NA,NA,NA,NA,NA,NA,"","","",NA,"i",1,0.5083,0,50,50,58,1,"他人","i","",NA,NA,NA,NA,NA,NA,"",NA,"",NA,NA,NA,NA,NA,NA,NA,"",NA,"",NA,NA,NA,NA,NA,NA,NA,"","","",NA,"",NA,NA,NA,NA,NA,NA,NA,"",NA,"14"
"",NA,"",NA,"",NA,NA,NA,NA,NA,NA,NA,"","",1,1,"2024-08-23_19h38.02.637","IAT(Formal)","2021.2.3","Win32",120.875136,"",NA,"",NA,NA,NA,NA,NA,NA,NA,"","","",NA,"e",1,0.507,0,51,51,72,1,"我们","e","",NA,NA,NA,NA,NA,NA,"",NA,"",NA,NA,NA,NA,NA,NA,NA,"",NA,"",NA,NA,NA,NA,NA,NA,NA,"","","",NA,"",NA,NA,NA,NA,NA,NA,NA,"",NA,"14"
"",NA,"",NA,"",NA,NA,NA,NA,NA,NA,NA,"","",1,1,"2024-08-23_19h38.02.637","IAT(Formal)","2021.2.3","Win32",120.875136,"",NA,"",NA,NA,NA,NA,NA,NA,NA,"","","",NA,"e",1,0.5182,0,52,52,10,1,"优秀","e","",NA,NA,NA,NA,NA,NA,"",NA,"",NA,NA,NA,NA,NA,NA,NA,"",NA,"",NA,NA,NA,NA,NA,NA,NA,"","","",NA,"",NA,NA,NA,NA,NA,NA,NA,"",NA,"14"
"",NA,"",NA,"",NA,NA,NA,NA,NA,NA,NA,"","",1,1,"2024-08-23_19h38.02.637","IAT(Formal)","2021.2.3","Win32",120.875136,"",NA,"",NA,NA,NA,NA,NA,NA,NA,"","","",NA,"e",1,0.4466,0,53,53,2,1,"我们","e","",NA,NA,NA,NA,NA,NA,"",NA,"",NA,NA,NA,NA,NA,NA,NA,"",NA,"",NA,NA,NA,NA,NA,NA,NA,"","","",NA,"",NA,NA,NA,NA,NA,NA,NA,"",NA,"14"
"",NA,"",NA,"",NA,NA,NA,NA,NA,NA,NA,"","",1,1,"2024-08-23_19h38.02.637","IAT(Formal)","2021.2.3","Win32",120.875136,"",NA,"",NA,NA,NA,NA,NA,NA,NA,"","","",NA,"i",1,0.4906,0,54,54,69,1,"其他","i","",NA,NA,NA,NA,NA,NA,"",NA,"",NA,NA,NA,NA,NA,NA,NA,"",NA,"",NA,NA,NA,NA,NA,NA,NA,"","","",NA,"",NA,NA,NA,NA,NA,NA,NA,"",NA,"14"
"",NA,"",NA,"",NA,NA,NA,NA,NA,NA,NA,"","",1,1,"2024-08-23_19h38.02.637","IAT(Formal)","2021.2.3","Win32",120.875136,"",NA,"",NA,NA,NA,NA,NA,NA,NA,"","","",NA,"e",1,0.5447,0,55,55,18,1,"勤奋","e","",NA,NA,NA,NA,NA,NA,"",NA,"",NA,NA,NA,NA,NA,NA,NA,"",NA,"",NA,NA,NA,NA,NA,NA,NA,"","","",NA,"",NA,NA,NA,NA,NA,NA,NA,"",NA,"14"
"",NA,"",NA,"",NA,NA,NA,NA,NA,NA,NA,"","",1,1,"2024-08-23_19h38.02.637","IAT(Formal)","2021.2.3","Win32",120.875136,"",NA,"",NA,NA,NA,NA,NA,NA,NA,"","","",NA,"i",1,0.5915,0,56,56,68,1,"他人","i","",NA,NA,NA,NA,NA,NA,"",NA,"",NA,NA,NA,NA,NA,NA,NA,"",NA,"",NA,NA,NA,NA,NA,NA,NA,"","","",NA,"",NA,NA,NA,NA,NA,NA,NA,"",NA,"14"
"",NA,"",NA,"",NA,NA,NA,NA,NA,NA,NA,"","",1,1,"2024-08-23_19h38.02.637","IAT(Formal)","2021.2.3","Win32",120.875136,"",NA,"",NA,NA,NA,NA,NA,NA,NA,"","","",NA,"i",1,0.7815,0,57,57,48,1,"轻率","i","",NA,NA,NA,NA,NA,NA,"",NA,"",NA,NA,NA,NA,NA,NA,NA,"",NA,"",NA,NA,NA,NA,NA,NA,NA,"","","",NA,"",NA,NA,NA,NA,NA,NA,NA,"",NA,"14"
"",NA,"",NA,"",NA,NA,NA,NA,NA,NA,NA,"","",1,1,"2024-08-23_19h38.02.637","IAT(Formal)","2021.2.3","Win32",120.875136,"",NA,"",NA,NA,NA,NA,NA,NA,NA,"","","",NA,"e",1,0.5081,0,58,58,73,1,"自己","e","",NA,NA,NA,NA,NA,NA,"",NA,"",NA,NA,NA,NA,NA,NA,NA,"",NA,"",NA,NA,NA,NA,NA,NA,NA,"","","",NA,"",NA,NA,NA,NA,NA,NA,NA,"",NA,"14"
"",NA,"",NA,"",NA,NA,NA,NA,NA,NA,NA,"","",1,1,"2024-08-23_19h38.02.637","IAT(Formal)","2021.2.3","Win32",120.875136,"",NA,"",NA,NA,NA,NA,NA,NA,NA,"","","",NA,"i",1,0.6943,0,59,59,31,1,"虚伪","i","",NA,NA,NA,NA,NA,NA,"",NA,"",NA,NA,NA,NA,NA,NA,NA,"",NA,"",NA,NA,NA,NA,NA,NA,NA,"","","",NA,"",NA,NA,NA,NA,NA,NA,NA,"",NA,"14"
"",NA,"",NA,"",NA,NA,NA,NA,NA,NA,NA,"","",1,1,"2024-08-23_19h38.02.637","IAT(Formal)","2021.2.3","Win32",120.875136,"",NA,"",NA,NA,NA,NA,NA,NA,NA,"","","",NA,"i",1,0.8129,0,60,60,77,1,"他的","i","",NA,NA,NA,NA,NA,NA,"",NA,"",NA,NA,NA,NA,NA,NA,NA,"",NA,"",NA,NA,NA,NA,NA,NA,NA,"","","",NA,"",NA,NA,NA,NA,NA,NA,NA,"",NA,"14"
"",NA,"",NA,"",NA,NA,NA,NA,NA,NA,NA,"","",1,1,"2024-08-23_19h38.02.637","IAT(Formal)","2021.2.3","Win32",120.875136,"",NA,"",NA,NA,NA,NA,NA,NA,NA,"","","",NA,"e",1,0.6869,0,61,61,27,1,"热情","e","",NA,NA,NA,NA,NA,NA,"",NA,"",NA,NA,NA,NA,NA,NA,NA,"",NA,"",NA,NA,NA,NA,NA,NA,NA,"","","",NA,"",NA,NA,NA,NA,NA,NA,NA,"",NA,"14"
"",NA,"",NA,"",NA,NA,NA,NA,NA,NA,NA,"","",1,1,"2024-08-23_19h38.02.637","IAT(Formal)","2021.2.3","Win32",120.875136,"",NA,"",NA,NA,NA,NA,NA,NA,NA,"","","",NA,"i",1,0.5818,0,62,62,49,1,"下贱","i","",NA,NA,NA,NA,NA,NA,"",NA,"",NA,NA,NA,NA,NA,NA,NA,"",NA,"",NA,NA,NA,NA,NA,NA,NA,"","","",NA,"",NA,NA,NA,NA,NA,NA,NA,"",NA,"14"
"",NA,"",NA,"",NA,NA,NA,NA,NA,NA,NA,"","",1,1,"2024-08-23_19h38.02.637","IAT(Formal)","2021.2.3","Win32",120.875136,"",NA,"",NA,NA,NA,NA,NA,NA,NA,"","","",NA,"e",1,0.4904,0,63,63,53,1,"自己","e","",NA,NA,NA,NA,NA,NA,"",NA,"",NA,NA,NA,NA,NA,NA,NA,"",NA,"",NA,NA,NA,NA,NA,NA,NA,"","","",NA,"",NA,NA,NA,NA,NA,NA,NA,"",NA,"14"
"",NA,"",NA,"",NA,NA,NA,NA,NA,NA,NA,"","",1,1,"2024-08-23_19h38.02.637","IAT(Formal)","2021.2.3","Win32",120.875136,"",NA,"",NA,NA,NA,NA,NA,NA,NA,"","","",NA,"i",1,0.4524,0,64,64,8,1,"他人","i","",NA,NA,NA,NA,NA,NA,"",NA,"",NA,NA,NA,NA,NA,NA,NA,"",NA,"",NA,NA,NA,NA,NA,NA,NA,"","","",NA,"",NA,NA,NA,NA,NA,NA,NA,"",NA,"14"
"",NA,"",NA,"",NA,NA,NA,NA,NA,NA,NA,"","",1,1,"2024-08-23_19h38.02.637","IAT(Formal)","2021.2.3","Win32",120.875136,"",NA,"",NA,NA,NA,NA,NA,NA,NA,"","","",NA,"i",1,0.4563,0,65,65,38,1,"鲁莽","i","",NA,NA,NA,NA,NA,NA,"",NA,"",NA,NA,NA,NA,NA,NA,NA,"",NA,"",NA,NA,NA,NA,NA,NA,NA,"","","",NA,"",NA,NA,NA,NA,NA,NA,NA,"",NA,"14"
"",NA,"",NA,"",NA,NA,NA,NA,NA,NA,NA,"","",1,1,"2024-08-23_19h38.02.637","IAT(Formal)","2021.2.3","Win32",120.875136,"",NA,"",NA,NA,NA,NA,NA,NA,NA,"","","",NA,"i",0,0.6091,0,66,66,20,1,"认真","e","",NA,NA,NA,NA,NA,NA,"",NA,"",NA,NA,NA,NA,NA,NA,NA,"",NA,"",NA,NA,NA,NA,NA,NA,NA,"","","",NA,"",NA,NA,NA,NA,NA,NA,NA,"",NA,"14"
"",NA,"",NA,"",NA,NA,NA,NA,NA,NA,NA,"","",1,1,"2024-08-23_19h38.02.637","IAT(Formal)","2021.2.3","Win32",120.875136,"",NA,"",NA,NA,NA,NA,NA,NA,NA,"","","",NA,"e",1,0.7666,0,67,67,1,1,"我的","e","",NA,NA,NA,NA,NA,NA,"",NA,"",NA,NA,NA,NA,NA,NA,NA,"",NA,"",NA,NA,NA,NA,NA,NA,NA,"","","",NA,"",NA,NA,NA,NA,NA,NA,NA,"",NA,"14"
"",NA,"",NA,"",NA,NA,NA,NA,NA,NA,NA,"","",1,1,"2024-08-23_19h38.02.637","IAT(Formal)","2021.2.3","Win32",120.875136,"",NA,"",NA,NA,NA,NA,NA,NA,NA,"","","",NA,"i",1,0.5127,0,68,68,43,1,"自私","i","",NA,NA,NA,NA,NA,NA,"",NA,"",NA,NA,NA,NA,NA,NA,NA,"",NA,"",NA,NA,NA,NA,NA,NA,NA,"","","",NA,"",NA,NA,NA,NA,NA,NA,NA,"",NA,"14"
"",NA,"",NA,"",NA,NA,NA,NA,NA,NA,NA,"","",1,1,"2024-08-23_19h38.02.637","IAT(Formal)","2021.2.3","Win32",120.875136,"",NA,"",NA,NA,NA,NA,NA,NA,NA,"","","",NA,"e",1,0.4367,0,69,69,62,1,"我们","e","",NA,NA,NA,NA,NA,NA,"",NA,"",NA,NA,NA,NA,NA,NA,NA,"",NA,"",NA,NA,NA,NA,NA,NA,NA,"","","",NA,"",NA,NA,NA,NA,NA,NA,NA,"",NA,"14"
"",NA,"",NA,"",NA,NA,NA,NA,NA,NA,NA,"","",1,1,"2024-08-23_19h38.02.637","IAT(Formal)","2021.2.3","Win32",120.875136,"",NA,"",NA,NA,NA,NA,NA,NA,NA,"","","",NA,"i",1,0.4929,0,70,70,59,1,"其他","i","",NA,NA,NA,NA,NA,NA,"",NA,"",NA,NA,NA,NA,NA,NA,NA,"",NA,"",NA,NA,NA,NA,NA,NA,NA,"","","",NA,"",NA,NA,NA,NA,NA,NA,NA,"",NA,"14"
"",NA,"",NA,"",NA,NA,NA,NA,NA,NA,NA,"","",1,1,"2024-08-23_19h38.02.637","IAT(Formal)","2021.2.3","Win32",120.875136,"",NA,"",NA,NA,NA,NA,NA,NA,NA,"","","",NA,"e",1,0.5099,0,71,71,15,1,"诚实","e","",NA,NA,NA,NA,NA,NA,"",NA,"",NA,NA,NA,NA,NA,NA,NA,"",NA,"",NA,NA,NA,NA,NA,NA,NA,"","","",NA,"",NA,NA,NA,NA,NA,NA,NA,"",NA,"14"
"",NA,"",NA,"",NA,NA,NA,NA,NA,NA,NA,"","",1,1,"2024-08-23_19h38.02.637","IAT(Formal)","2021.2.3","Win32",120.875136,"",NA,"",NA,NA,NA,NA,NA,NA,NA,"","","",NA,"e",1,0.5994,0,72,72,3,1,"自己","e","",NA,NA,NA,NA,NA,NA,"",NA,"",NA,NA,NA,NA,NA,NA,NA,"",NA,"",NA,NA,NA,NA,NA,NA,NA,"","","",NA,"",NA,NA,NA,NA,NA,NA,NA,"",NA,"14"
"",NA,"",NA,"",NA,NA,NA,NA,NA,NA,NA,"","",1,1,"2024-08-23_19h38.02.637","IAT(Formal)","2021.2.3","Win32",120.875136,"",NA,"",NA,NA,NA,NA,NA,NA,NA,"","","",NA,"i",1,0.4915,0,73,73,55,1,"他","i","",NA,NA,NA,NA,NA,NA,"",NA,"",NA,NA,NA,NA,NA,NA,NA,"",NA,"",NA,NA,NA,NA,NA,NA,NA,"","","",NA,"",NA,NA,NA,NA,NA,NA,NA,"",NA,"14"
"",NA,"",NA,"",NA,NA,NA,NA,NA,NA,NA,"","",1,1,"2024-08-23_19h38.02.637","IAT(Formal)","2021.2.3","Win32",120.875136,"",NA,"",NA,NA,NA,NA,NA,NA,NA,"","","",NA,"e",1,0.6209,0,74,74,52,1,"我们","e","",NA,NA,NA,NA,NA,NA,"",NA,"",NA,NA,NA,NA,NA,NA,NA,"",NA,"",NA,NA,NA,NA,NA,NA,NA,"","","",NA,"",NA,NA,NA,NA,NA,NA,NA,"",NA,"14"
"",NA,"",NA,"",NA,NA,NA,NA,NA,NA,NA,"","",1,1,"2024-08-23_19h38.02.637","IAT(Formal)","2021.2.3","Win32",120.875136,"",NA,"",NA,NA,NA,NA,NA,NA,NA,"","","",NA,"e",1,0.5302,0,75,75,50,1,"我","e","",NA,NA,NA,NA,NA,NA,"",NA,"",NA,NA,NA,NA,NA,NA,NA,"",NA,"",NA,NA,NA,NA,NA,NA,NA,"","","",NA,"",NA,NA,NA,NA,NA,NA,NA,"",NA,"14"
"",NA,"",NA,"",NA,NA,NA,NA,NA,NA,NA,"","",1,1,"2024-08-23_19h38.02.637","IAT(Formal)","2021.2.3","Win32",120.875136,"",NA,"",NA,NA,NA,NA,NA,NA,NA,"","","",NA,"i",1,0.4537,0,76,76,57,1,"他的","i","",NA,NA,NA,NA,NA,NA,"",NA,"",NA,NA,NA,NA,NA,NA,NA,"",NA,"",NA,NA,NA,NA,NA,NA,NA,"","","",NA,"",NA,NA,NA,NA,NA,NA,NA,"",NA,"14"
"",NA,"",NA,"",NA,NA,NA,NA,NA,NA,NA,"","",1,1,"2024-08-23_19h38.02.637","IAT(Formal)","2021.2.3","Win32",120.875136,"",NA,"",NA,NA,NA,NA,NA,NA,NA,"","","",NA,"e",1,0.5938,0,77,77,71,1,"我的","e","",NA,NA,NA,NA,NA,NA,"",NA,"",NA,NA,NA,NA,NA,NA,NA,"",NA,"",NA,NA,NA,NA,NA,NA,NA,"","","",NA,"",NA,NA,NA,NA,NA,NA,NA,"",NA,"14"
"",NA,"",NA,"",NA,NA,NA,NA,NA,NA,NA,"","",1,1,"2024-08-23_19h38.02.637","IAT(Formal)","2021.2.3","Win32",120.875136,"",NA,"",NA,NA,NA,NA,NA,NA,NA,"","","",NA,"e",1,0.3656,0,78,78,70,1,"我","e","",NA,NA,NA,NA,NA,NA,"",NA,"",NA,NA,NA,NA,NA,NA,NA,"",NA,"",NA,NA,NA,NA,NA,NA,NA,"","","",NA,"",NA,NA,NA,NA,NA,NA,NA,"",NA,"14"
"",NA,"",NA,"",NA,NA,NA,NA,NA,NA,NA,"","",1,1,"2024-08-23_19h38.02.637","IAT(Formal)","2021.2.3","Win32",120.875136,"",NA,"",NA,NA,NA,NA,NA,NA,NA,"","","",NA,"i",1,0.5482,0,79,79,45,1,"猖狂","i","",NA,NA,NA,NA,NA,NA,"",NA,"",NA,NA,NA,NA,NA,NA,NA,"",NA,"",NA,NA,NA,NA,NA,NA,NA,"","","",NA,"",NA,NA,NA,NA,NA,NA,NA,"",NA,"14"
"",NA,"",NA,"",NA,NA,NA,NA,NA,NA,NA,"","",1,1,"2024-08-23_19h38.02.637","IAT(Formal)","2021.2.3","Win32",120.875136,"",NA,"",NA,NA,NA,NA,NA,NA,NA,"","","",NA,"i",1,0.5084,NA,NA,NA,NA,NA,"他人","i","space",25.2338,0,0,0,68,1,"",NA,"",NA,NA,NA,NA,NA,NA,NA,"",NA,"",NA,NA,NA,NA,NA,NA,NA,"","","",NA,"",NA,NA,NA,NA,NA,NA,NA,"",NA,"14"
"",NA,"",NA,"",NA,NA,NA,NA,NA,NA,NA,"","",1,1,"2024-08-23_19h38.02.637","IAT(Formal)","2021.2.3","Win32",120.875136,"",NA,"",NA,NA,NA,NA,NA,NA,NA,"","","",NA,"e",1,0.5528,NA,NA,NA,NA,NA,"勇敢","e","",NA,0,1,1,17,1,"",NA,"",NA,NA,NA,NA,NA,NA,NA,"",NA,"",NA,NA,NA,NA,NA,NA,NA,"","","",NA,"",NA,NA,NA,NA,NA,NA,NA,"",NA,"14"
"",NA,"",NA,"",NA,NA,NA,NA,NA,NA,NA,"","",1,1,"2024-08-23_19h38.02.637","IAT(Formal)","2021.2.3","Win32",120.875136,"",NA,"",NA,NA,NA,NA,NA,NA,NA,"","","",NA,"e",1,0.4503,NA,NA,NA,NA,NA,"我们","e","",NA,0,2,2,2,1,"",NA,"",NA,NA,NA,NA,NA,NA,NA,"",NA,"",NA,NA,NA,NA,NA,NA,NA,"","","",NA,"",NA,NA,NA,NA,NA,NA,NA,"",NA,"14"
"",NA,"",NA,"",NA,NA,NA,NA,NA,NA,NA,"","",1,1,"2024-08-23_19h38.02.637","IAT(Formal)","2021.2.3","Win32",120.875136,"",NA,"",NA,NA,NA,NA,NA,NA,NA,"","","",NA,"e",1,0.5456,NA,NA,NA,NA,NA,"活泼","e","",NA,0,3,3,28,1,"",NA,"",NA,NA,NA,NA,NA,NA,NA,"",NA,"",NA,NA,NA,NA,NA,NA,NA,"","","",NA,"",NA,NA,NA,NA,NA,NA,NA,"",NA,"14"
"",NA,"",NA,"",NA,NA,NA,NA,NA,NA,NA,"","",1,1,"2024-08-23_19h38.02.637","IAT(Formal)","2021.2.3","Win32",120.875136,"",NA,"",NA,NA,NA,NA,NA,NA,NA,"","","",NA,"i",1,0.5339,NA,NA,NA,NA,NA,"傲慢","i","",NA,0,4,4,37,1,"",NA,"",NA,NA,NA,NA,NA,NA,NA,"",NA,"",NA,NA,NA,NA,NA,NA,NA,"","","",NA,"",NA,NA,NA,NA,NA,NA,NA,"",NA,"14"
"",NA,"",NA,"",NA,NA,NA,NA,NA,NA,NA,"","",1,1,"2024-08-23_19h38.02.637","IAT(Formal)","2021.2.3","Win32",120.875136,"",NA,"",NA,NA,NA,NA,NA,NA,NA,"","","",NA,"e",1,0.4669,NA,NA,NA,NA,NA,"勤奋","e","",NA,0,5,5,18,1,"",NA,"",NA,NA,NA,NA,NA,NA,NA,"",NA,"",NA,NA,NA,NA,NA,NA,NA,"","","",NA,"",NA,NA,NA,NA,NA,NA,NA,"",NA,"14"
"",NA,"",NA,"",NA,NA,NA,NA,NA,NA,NA,"","",1,1,"2024-08-23_19h38.02.637","IAT(Formal)","2021.2.3","Win32",120.875136,"",NA,"",NA,NA,NA,NA,NA,NA,NA,"","","",NA,"i",1,0.7209,NA,NA,NA,NA,NA,"他人","i","",NA,0,6,6,8,1,"",NA,"",NA,NA,NA,NA,NA,NA,NA,"",NA,"",NA,NA,NA,NA,NA,NA,NA,"","","",NA,"",NA,NA,NA,NA,NA,NA,NA,"",NA,"14"
"",NA,"",NA,"",NA,NA,NA,NA,NA,NA,NA,"","",1,1,"2024-08-23_19h38.02.637","IAT(Formal)","2021.2.3","Win32",120.875136,"",NA,"",NA,NA,NA,NA,NA,NA,NA,"","","",NA,"e",1,0.4986,NA,NA,NA,NA,NA,"俺","e","",NA,0,7,7,64,1,"",NA,"",NA,NA,NA,NA,NA,NA,NA,"",NA,"",NA,NA,NA,NA,NA,NA,NA,"","","",NA,"",NA,NA,NA,NA,NA,NA,NA,"",NA,"14"
"",NA,"",NA,"",NA,NA,NA,NA,NA,NA,NA,"","",1,1,"2024-08-23_19h38.02.637","IAT(Formal)","2021.2.3","Win32",120.875136,"",NA,"",NA,NA,NA,NA,NA,NA,NA,"","","",NA,"i",1,0.5564,NA,NA,NA,NA,NA,"他们","i","",NA,0,8,8,76,1,"",NA,"",NA,NA,NA,NA,NA,NA,NA,"",NA,"",NA,NA,NA,NA,NA,NA,NA,"","","",NA,"",NA,NA,NA,NA,NA,NA,NA,"",NA,"14"
"",NA,"",NA,"",NA,NA,NA,NA,NA,NA,NA,"","",1,1,"2024-08-23_19h38.02.637","IAT(Formal)","2021.2.3","Win32",120.875136,"",NA,"",NA,NA,NA,NA,NA,NA,NA,"","","",NA,"i",1,0.4855,NA,NA,NA,NA,NA,"他人","i","",NA,0,9,9,58,1,"",NA,"",NA,NA,NA,NA,NA,NA,NA,"",NA,"",NA,NA,NA,NA,NA,NA,NA,"","","",NA,"",NA,NA,NA,NA,NA,NA,NA,"",NA,"14"
"",NA,"",NA,"",NA,NA,NA,NA,NA,NA,NA,"","",1,1,"2024-08-23_19h38.02.637","IAT(Formal)","2021.2.3","Win32",120.875136,"",NA,"",NA,NA,NA,NA,NA,NA,NA,"","","",NA,"i",1,0.5625,NA,NA,NA,NA,NA,"猖狂","i","",NA,0,10,10,45,1,"",NA,"",NA,NA,NA,NA,NA,NA,NA,"",NA,"",NA,NA,NA,NA,NA,NA,NA,"","","",NA,"",NA,NA,NA,NA,NA,NA,NA,"",NA,"14"
"",NA,"",NA,"",NA,NA,NA,NA,NA,NA,NA,"","",1,1,"2024-08-23_19h38.02.637","IAT(Formal)","2021.2.3","Win32",120.875136,"",NA,"",NA,NA,NA,NA,NA,NA,NA,"","","",NA,"e",1,0.482,NA,NA,NA,NA,NA,"俺","e","",NA,0,11,11,54,1,"",NA,"",NA,NA,NA,NA,NA,NA,NA,"",NA,"",NA,NA,NA,NA,NA,NA,NA,"","","",NA,"",NA,NA,NA,NA,NA,NA,NA,"",NA,"14"
"",NA,"",NA,"",NA,NA,NA,NA,NA,NA,NA,"","",1,1,"2024-08-23_19h38.02.637","IAT(Formal)","2021.2.3","Win32",120.875136,"",NA,"",NA,NA,NA,NA,NA,NA,NA,"","","",NA,"e",1,0.9095,NA,NA,NA,NA,NA,"正直","e","",NA,0,12,12,16,1,"",NA,"",NA,NA,NA,NA,NA,NA,NA,"",NA,"",NA,NA,NA,NA,NA,NA,NA,"","","",NA,"",NA,NA,NA,NA,NA,NA,NA,"",NA,"14"
"",NA,"",NA,"",NA,NA,NA,NA,NA,NA,NA,"","",1,1,"2024-08-23_19h38.02.637","IAT(Formal)","2021.2.3","Win32",120.875136,"",NA,"",NA,NA,NA,NA,NA,NA,NA,"","","",NA,"e",1,0.5525,NA,NA,NA,NA,NA,"乐观","e","",NA,0,13,13,14,1,"",NA,"",NA,NA,NA,NA,NA,NA,NA,"",NA,"",NA,NA,NA,NA,NA,NA,NA,"","","",NA,"",NA,NA,NA,NA,NA,NA,NA,"",NA,"14"
"",NA,"",NA,"",NA,NA,NA,NA,NA,NA,NA,"","",1,1,"2024-08-23_19h38.02.637","IAT(Formal)","2021.2.3","Win32",120.875136,"",NA,"",NA,NA,NA,NA,NA,NA,NA,"","","",NA,"i",1,0.4971,NA,NA,NA,NA,NA,"下贱","i","",NA,0,14,14,49,1,"",NA,"",NA,NA,NA,NA,NA,NA,NA,"",NA,"",NA,NA,NA,NA,NA,NA,NA,"","","",NA,"",NA,NA,NA,NA,NA,NA,NA,"",NA,"14"
"",NA,"",NA,"",NA,NA,NA,NA,NA,NA,NA,"","",1,1,"2024-08-23_19h38.02.637","IAT(Formal)","2021.2.3","Win32",120.875136,"",NA,"",NA,NA,NA,NA,NA,NA,NA,"","","",NA,"e",1,0.7013,NA,NA,NA,NA,NA,"公正","e","",NA,0,15,15,23,1,"",NA,"",NA,NA,NA,NA,NA,NA,NA,"",NA,"",NA,NA,NA,NA,NA,NA,NA,"","","",NA,"",NA,NA,NA,NA,NA,NA,NA,"",NA,"14"
"",NA,"",NA,"",NA,NA,NA,NA,NA,NA,NA,"","",1,1,"2024-08-23_19h38.02.637","IAT(Formal)","2021.2.3","Win32",120.875136,"",NA,"",NA,NA,NA,NA,NA,NA,NA,"","","",NA,"e",1,1.0817,NA,NA,NA,NA,NA,"无私","e","",NA,0,16,16,22,1,"",NA,"",NA,NA,NA,NA,NA,NA,NA,"",NA,"",NA,NA,NA,NA,NA,NA,NA,"","","",NA,"",NA,NA,NA,NA,NA,NA,NA,"",NA,"14"
"",NA,"",NA,"",NA,NA,NA,NA,NA,NA,NA,"","",1,1,"2024-08-23_19h38.02.637","IAT(Formal)","2021.2.3","Win32",120.875136,"",NA,"",NA,NA,NA,NA,NA,NA,NA,"","","",NA,"i",1,0.5413,NA,NA,NA,NA,NA,"散漫","i","",NA,0,17,17,41,1,"",NA,"",NA,NA,NA,NA,NA,NA,NA,"",NA,"",NA,NA,NA,NA,NA,NA,NA,"","","",NA,"",NA,NA,NA,NA,NA,NA,NA,"",NA,"14"
"",NA,"",NA,"",NA,NA,NA,NA,NA,NA,NA,"","",1,1,"2024-08-23_19h38.02.637","IAT(Formal)","2021.2.3","Win32",120.875136,"",NA,"",NA,NA,NA,NA,NA,NA,NA,"","","",NA,"e",1,0.5,NA,NA,NA,NA,NA,"俺","e","",NA,0,18,18,4,1,"",NA,"",NA,NA,NA,NA,NA,NA,NA,"",NA,"",NA,NA,NA,NA,NA,NA,NA,"","","",NA,"",NA,NA,NA,NA,NA,NA,NA,"",NA,"14"
"",NA,"",NA,"",NA,NA,NA,NA,NA,NA,NA,"","",1,1,"2024-08-23_19h38.02.637","IAT(Formal)","2021.2.3","Win32",120.875136,"",NA,"",NA,NA,NA,NA,NA,NA,NA,"","","",NA,"e",1,0.4661,NA,NA,NA,NA,NA,"认真","e","",NA,0,19,19,20,1,"",NA,"",NA,NA,NA,NA,NA,NA,NA,"",NA,"",NA,NA,NA,NA,NA,NA,NA,"","","",NA,"",NA,NA,NA,NA,NA,NA,NA,"",NA,"14"
"",NA,"",NA,"",NA,NA,NA,NA,NA,NA,NA,"","",1,1,"2024-08-23_19h38.02.637","IAT(Formal)","2021.2.3","Win32",120.875136,"",NA,"",NA,NA,NA,NA,NA,NA,NA,"","","",NA,"e",1,0.3953,NA,NA,NA,NA,NA,"杰出","e","",NA,0,20,20,13,1,"",NA,"",NA,NA,NA,NA,NA,NA,NA,"",NA,"",NA,NA,NA,NA,NA,NA,NA,"","","",NA,"",NA,NA,NA,NA,NA,NA,NA,"",NA,"14"
"",NA,"",NA,"",NA,NA,NA,NA,NA,NA,NA,"","",1,1,"2024-08-23_19h38.02.637","IAT(Formal)","2021.2.3","Win32",120.875136,"",NA,"",NA,NA,NA,NA,NA,NA,NA,"","","",NA,"i",1,0.5746,NA,NA,NA,NA,NA,"其他","i","",NA,0,21,21,59,1,"",NA,"",NA,NA,NA,NA,NA,NA,NA,"",NA,"",NA,NA,NA,NA,NA,NA,NA,"","","",NA,"",NA,NA,NA,NA,NA,NA,NA,"",NA,"14"
"",NA,"",NA,"",NA,NA,NA,NA,NA,NA,NA,"","",1,1,"2024-08-23_19h38.02.637","IAT(Formal)","2021.2.3","Win32",120.875136,"",NA,"",NA,NA,NA,NA,NA,NA,NA,"","","",NA,"e",1,0.4903,NA,NA,NA,NA,NA,"优秀","e","",NA,0,22,22,10,1,"",NA,"",NA,NA,NA,NA,NA,NA,NA,"",NA,"",NA,NA,NA,NA,NA,NA,NA,"","","",NA,"",NA,NA,NA,NA,NA,NA,NA,"",NA,"14"
"",NA,"",NA,"",NA,NA,NA,NA,NA,NA,NA,"","",1,1,"2024-08-23_19h38.02.637","IAT(Formal)","2021.2.3","Win32",120.875136,"",NA,"",NA,NA,NA,NA,NA,NA,NA,"","","",NA,"e",1,0.471,NA,NA,NA,NA,NA,"细腻","e","",NA,0,23,23,25,1,"",NA,"",NA,NA,NA,NA,NA,NA,NA,"",NA,"",NA,NA,NA,NA,NA,NA,NA,"","","",NA,"",NA,NA,NA,NA,NA,NA,NA,"",NA,"14"
"",NA,"",NA,"",NA,NA,NA,NA,NA,NA,NA,"","",1,1,"2024-08-23_19h38.02.637","IAT(Formal)","2021.2.3","Win32",120.875136,"",NA,"",NA,NA,NA,NA,NA,NA,NA,"","","",NA,"e",1,0.5601,NA,NA,NA,NA,NA,"我","e","",NA,0,24,24,70,1,"",NA,"",NA,NA,NA,NA,NA,NA,NA,"",NA,"",NA,NA,NA,NA,NA,NA,NA,"","","",NA,"",NA,NA,NA,NA,NA,NA,NA,"",NA,"14"
"",NA,"",NA,"",NA,NA,NA,NA,NA,NA,NA,"","",1,1,"2024-08-23_19h38.02.637","IAT(Formal)","2021.2.3","Win32",120.875136,"",NA,"",NA,NA,NA,NA,NA,NA,NA,"","","",NA,"e",1,0.3832,NA,NA,NA,NA,NA,"我的","e","",NA,0,25,25,61,1,"",NA,"",NA,NA,NA,NA,NA,NA,NA,"",NA,"",NA,NA,NA,NA,NA,NA,NA,"","","",NA,"",NA,NA,NA,NA,NA,NA,NA,"",NA,"14"
"",NA,"",NA,"",NA,NA,NA,NA,NA,NA,NA,"","",1,1,"2024-08-23_19h38.02.637","IAT(Formal)","2021.2.3","Win32",120.875136,"",NA,"",NA,NA,NA,NA,NA,NA,NA,"","","",NA,"e",1,0.5903,NA,NA,NA,NA,NA,"机智","e","",NA,0,26,26,19,1,"",NA,"",NA,NA,NA,NA,NA,NA,NA,"",NA,"",NA,NA,NA,NA,NA,NA,NA,"","","",NA,"",NA,NA,NA,NA,NA,NA,NA,"",NA,"14"
"",NA,"",NA,"",NA,NA,NA,NA,NA,NA,NA,"","",1,1,"2024-08-23_19h38.02.637","IAT(Formal)","2021.2.3","Win32",120.875136,"",NA,"",NA,NA,NA,NA,NA,NA,NA,"","","",NA,"e",1,0.4159,NA,NA,NA,NA,NA,"诚实","e","",NA,0,27,27,15,1,"",NA,"",NA,NA,NA,NA,NA,NA,NA,"",NA,"",NA,NA,NA,NA,NA,NA,NA,"","","",NA,"",NA,NA,NA,NA,NA,NA,NA,"",NA,"14"
"",NA,"",NA,"",NA,NA,NA,NA,NA,NA,NA,"","",1,1,"2024-08-23_19h38.02.637","IAT(Formal)","2021.2.3","Win32",120.875136,"",NA,"",NA,NA,NA,NA,NA,NA,NA,"","","",NA,"e",1,0.4262,NA,NA,NA,NA,NA,"我们","e","",NA,0,28,28,72,1,"",NA,"",NA,NA,NA,NA,NA,NA,NA,"",NA,"",NA,NA,NA,NA,NA,NA,NA,"","","",NA,"",NA,NA,NA,NA,NA,NA,NA,"",NA,"14"
"",NA,"",NA,"",NA,NA,NA,NA,NA,NA,NA,"","",1,1,"2024-08-23_19h38.02.637","IAT(Formal)","2021.2.3","Win32",120.875136,"",NA,"",NA,NA,NA,NA,NA,NA,NA,"","","",NA,"e",1,0.4435,NA,NA,NA,NA,NA,"俺","e","",NA,0,29,29,74,1,"",NA,"",NA,NA,NA,NA,NA,NA,NA,"",NA,"",NA,NA,NA,NA,NA,NA,NA,"","","",NA,"",NA,NA,NA,NA,NA,NA,NA,"",NA,"14"
"",NA,"",NA,"",NA,NA,NA,NA,NA,NA,NA,"","",1,1,"2024-08-23_19h38.02.637","IAT(Formal)","2021.2.3","Win32",120.875136,"",NA,"",NA,NA,NA,NA,NA,NA,NA,"","","",NA,"i",1,0.5951,NA,NA,NA,NA,NA,"轻率","i","",NA,0,30,30,48,1,"",NA,"",NA,NA,NA,NA,NA,NA,NA,"",NA,"",NA,NA,NA,NA,NA,NA,NA,"","","",NA,"",NA,NA,NA,NA,NA,NA,NA,"",NA,"14"
"",NA,"",NA,"",NA,NA,NA,NA,NA,NA,NA,"","",1,1,"2024-08-23_19h38.02.637","IAT(Formal)","2021.2.3","Win32",120.875136,"",NA,"",NA,NA,NA,NA,NA,NA,NA,"","","",NA,"e",1,0.5074,NA,NA,NA,NA,NA,"自己","e","",NA,0,31,31,73,1,"",NA,"",NA,NA,NA,NA,NA,NA,NA,"",NA,"",NA,NA,NA,NA,NA,NA,NA,"","","",NA,"",NA,NA,NA,NA,NA,NA,NA,"",NA,"14"
"",NA,"",NA,"",NA,NA,NA,NA,NA,NA,NA,"","",1,1,"2024-08-23_19h38.02.637","IAT(Formal)","2021.2.3","Win32",120.875136,"",NA,"",NA,NA,NA,NA,NA,NA,NA,"","","",NA,"i",1,1.0075,NA,NA,NA,NA,NA,"他们","i","",NA,0,32,32,56,1,"",NA,"",NA,NA,NA,NA,NA,NA,NA,"",NA,"",NA,NA,NA,NA,NA,NA,NA,"","","",NA,"",NA,NA,NA,NA,NA,NA,NA,"",NA,"14"
"",NA,"",NA,"",NA,NA,NA,NA,NA,NA,NA,"","",1,1,"2024-08-23_19h38.02.637","IAT(Formal)","2021.2.3","Win32",120.875136,"",NA,"",NA,NA,NA,NA,NA,NA,NA,"","","",NA,"e",1,0.478,NA,NA,NA,NA,NA,"我的","e","",NA,0,33,33,71,1,"",NA,"",NA,NA,NA,NA,NA,NA,NA,"",NA,"",NA,NA,NA,NA,NA,NA,NA,"","","",NA,"",NA,NA,NA,NA,NA,NA,NA,"",NA,"14"
"",NA,"",NA,"",NA,NA,NA,NA,NA,NA,NA,"","",1,1,"2024-08-23_19h38.02.637","IAT(Formal)","2021.2.3","Win32",120.875136,"",NA,"",NA,NA,NA,NA,NA,NA,NA,"","","",NA,"e",1,0.9176,NA,NA,NA,NA,NA,"自己","e","",NA,0,34,34,53,1,"",NA,"",NA,NA,NA,NA,NA,NA,NA,"",NA,"",NA,NA,NA,NA,NA,NA,NA,"","","",NA,"",NA,NA,NA,NA,NA,NA,NA,"",NA,"14"
"",NA,"",NA,"",NA,NA,NA,NA,NA,NA,NA,"","",1,1,"2024-08-23_19h38.02.637","IAT(Formal)","2021.2.3","Win32",120.875136,"",NA,"",NA,NA,NA,NA,NA,NA,NA,"","","",NA,"e",1,0.4803,NA,NA,NA,NA,NA,"我","e","",NA,0,35,35,0,1,"",NA,"",NA,NA,NA,NA,NA,NA,NA,"",NA,"",NA,NA,NA,NA,NA,NA,NA,"","","",NA,"",NA,NA,NA,NA,NA,NA,NA,"",NA,"14"
"",NA,"",NA,"",NA,NA,NA,NA,NA,NA,NA,"","",1,1,"2024-08-23_19h38.02.637","IAT(Formal)","2021.2.3","Win32",120.875136,"",NA,"",NA,NA,NA,NA,NA,NA,NA,"","","",NA,"i",1,0.4927,NA,NA,NA,NA,NA,"其他","i","",NA,0,36,36,69,1,"",NA,"",NA,NA,NA,NA,NA,NA,NA,"",NA,"",NA,NA,NA,NA,NA,NA,NA,"","","",NA,"",NA,NA,NA,NA,NA,NA,NA,"",NA,"14"
"",NA,"",NA,"",NA,NA,NA,NA,NA,NA,NA,"","",1,1,"2024-08-23_19h38.02.637","IAT(Formal)","2021.2.3","Win32",120.875136,"",NA,"",NA,NA,NA,NA,NA,NA,NA,"","","",NA,"e",1,0.6336,NA,NA,NA,NA,NA,"诚恳","e","",NA,0,37,37,29,1,"",NA,"",NA,NA,NA,NA,NA,NA,NA,"",NA,"",NA,NA,NA,NA,NA,NA,NA,"","","",NA,"",NA,NA,NA,NA,NA,NA,NA,"",NA,"14"
"",NA,"",NA,"",NA,NA,NA,NA,NA,NA,NA,"","",1,1,"2024-08-23_19h38.02.637","IAT(Formal)","2021.2.3","Win32",120.875136,"",NA,"",NA,NA,NA,NA,NA,NA,NA,"","","",NA,"i",1,0.5454,NA,NA,NA,NA,NA,"执拗","i","",NA,0,38,38,40,1,"",NA,"",NA,NA,NA,NA,NA,NA,NA,"",NA,"",NA,NA,NA,NA,NA,NA,NA,"","","",NA,"",NA,NA,NA,NA,NA,NA,NA,"",NA,"14"
"",NA,"",NA,"",NA,NA,NA,NA,NA,NA,NA,"","",1,1,"2024-08-23_19h38.02.637","IAT(Formal)","2021.2.3","Win32",120.875136,"",NA,"",NA,NA,NA,NA,NA,NA,NA,"","","",NA,"e",0,0.4586,NA,NA,NA,NA,NA,"他","i","",NA,0,39,39,55,1,"",NA,"",NA,NA,NA,NA,NA,NA,NA,"",NA,"",NA,NA,NA,NA,NA,NA,NA,"","","",NA,"",NA,NA,NA,NA,NA,NA,NA,"",NA,"14"
"",NA,"",NA,"",NA,NA,NA,NA,NA,NA,NA,"","",1,1,"2024-08-23_19h38.02.637","IAT(Formal)","2021.2.3","Win32",120.875136,"",NA,"",NA,NA,NA,NA,NA,NA,NA,"","","",NA,"i",1,0.7942,NA,NA,NA,NA,NA,"刻薄","i","",NA,0,40,40,33,1,"",NA,"",NA,NA,NA,NA,NA,NA,NA,"",NA,"",NA,NA,NA,NA,NA,NA,NA,"","","",NA,"",NA,NA,NA,NA,NA,NA,NA,"",NA,"14"
"",NA,"",NA,"",NA,NA,NA,NA,NA,NA,NA,"","",1,1,"2024-08-23_19h38.02.637","IAT(Formal)","2021.2.3","Win32",120.875136,"",NA,"",NA,NA,NA,NA,NA,NA,NA,"","","",NA,"i",1,0.95,NA,NA,NA,NA,NA,"愚蠢","i","",NA,0,41,41,32,1,"",NA,"",NA,NA,NA,NA,NA,NA,NA,"",NA,"",NA,NA,NA,NA,NA,NA,NA,"","","",NA,"",NA,NA,NA,NA,NA,NA,NA,"",NA,"14"
"",NA,"",NA,"",NA,NA,NA,NA,NA,NA,NA,"","",1,1,"2024-08-23_19h38.02.637","IAT(Formal)","2021.2.3","Win32",120.875136,"",NA,"",NA,NA,NA,NA,NA,NA,NA,"","","",NA,"i",1,0.658,NA,NA,NA,NA,NA,"悲观","i","",NA,0,42,42,34,1,"",NA,"",NA,NA,NA,NA,NA,NA,NA,"",NA,"",NA,NA,NA,NA,NA,NA,NA,"","","",NA,"",NA,NA,NA,NA,NA,NA,NA,"",NA,"14"
"",NA,"",NA,"",NA,NA,NA,NA,NA,NA,NA,"","",1,1,"2024-08-23_19h38.02.637","IAT(Formal)","2021.2.3","Win32",120.875136,"",NA,"",NA,NA,NA,NA,NA,NA,NA,"","","",NA,"i",1,0.4733,NA,NA,NA,NA,NA,"固执","i","",NA,0,43,43,47,1,"",NA,"",NA,NA,NA,NA,NA,NA,NA,"",NA,"",NA,NA,NA,NA,NA,NA,NA,"","","",NA,"",NA,NA,NA,NA,NA,NA,NA,"",NA,"14"
"",NA,"",NA,"",NA,NA,NA,NA,NA,NA,NA,"","",1,1,"2024-08-23_19h38.02.637","IAT(Formal)","2021.2.3","Win32",120.875136,"",NA,"",NA,NA,NA,NA,NA,NA,NA,"","","",NA,"e",0,0.4877,NA,NA,NA,NA,NA,"他们","i","",NA,0,44,44,66,1,"",NA,"",NA,NA,NA,NA,NA,NA,NA,"",NA,"",NA,NA,NA,NA,NA,NA,NA,"","","",NA,"",NA,NA,NA,NA,NA,NA,NA,"",NA,"14"
"",NA,"",NA,"",NA,NA,NA,NA,NA,NA,NA,"","",1,1,"2024-08-23_19h38.02.637","IAT(Formal)","2021.2.3","Win32",120.875136,"",NA,"",NA,NA,NA,NA,NA,NA,NA,"","","",NA,"e",1,0.5655,NA,NA,NA,NA,NA,"自己","e","",NA,0,45,45,63,1,"",NA,"",NA,NA,NA,NA,NA,NA,NA,"",NA,"",NA,NA,NA,NA,NA,NA,NA,"","","",NA,"",NA,NA,NA,NA,NA,NA,NA,"",NA,"14"
"",NA,"",NA,"",NA,NA,NA,NA,NA,NA,NA,"","",1,1,"2024-08-23_19h38.02.637","IAT(Formal)","2021.2.3","Win32",120.875136,"",NA,"",NA,NA,NA,NA,NA,NA,NA,"","","",NA,"e",1,0.4918,NA,NA,NA,NA,NA,"我","e","",NA,0,46,46,60,1,"",NA,"",NA,NA,NA,NA,NA,NA,NA,"",NA,"",NA,NA,NA,NA,NA,NA,NA,"","","",NA,"",NA,NA,NA,NA,NA,NA,NA,"",NA,"14"
"",NA,"",NA,"",NA,NA,NA,NA,NA,NA,NA,"","",1,1,"2024-08-23_19h38.02.637","IAT(Formal)","2021.2.3","Win32",120.875136,"",NA,"",NA,NA,NA,NA,NA,NA,NA,"","","",NA,"e",1,1.1095,NA,NA,NA,NA,NA,"朴实","e","",NA,0,47,47,24,1,"",NA,"",NA,NA,NA,NA,NA,NA,NA,"",NA,"",NA,NA,NA,NA,NA,NA,NA,"","","",NA,"",NA,NA,NA,NA,NA,NA,NA,"",NA,"14"
"",NA,"",NA,"",NA,NA,NA,NA,NA,NA,NA,"","",1,1,"2024-08-23_19h38.02.637","IAT(Formal)","2021.2.3","Win32",120.875136,"",NA,"",NA,NA,NA,NA,NA,NA,NA,"","","",NA,"e",1,0.5572,NA,NA,NA,NA,NA,"自己","e","",NA,0,48,48,3,1,"",NA,"",NA,NA,NA,NA,NA,NA,NA,"",NA,"",NA,NA,NA,NA,NA,NA,NA,"","","",NA,"",NA,NA,NA,NA,NA,NA,NA,"",NA,"14"
"",NA,"",NA,"",NA,NA,NA,NA,NA,NA,NA,"","",1,1,"2024-08-23_19h38.02.637","IAT(Formal)","2021.2.3","Win32",120.875136,"",NA,"",NA,NA,NA,NA,NA,NA,NA,"","","",NA,"i",1,0.5334,NA,NA,NA,NA,NA,"他的","i","",NA,0,49,49,57,1,"",NA,"",NA,NA,NA,NA,NA,NA,NA,"",NA,"",NA,NA,NA,NA,NA,NA,NA,"","","",NA,"",NA,NA,NA,NA,NA,NA,NA,"",NA,"14"
"",NA,"",NA,"",NA,NA,NA,NA,NA,NA,NA,"","",1,1,"2024-08-23_19h38.02.637","IAT(Formal)","2021.2.3","Win32",120.875136,"",NA,"",NA,NA,NA,NA,NA,NA,NA,"","","",NA,"i",1,0.5936,NA,NA,NA,NA,NA,"野蛮","i","",NA,0,50,50,46,1,"",NA,"",NA,NA,NA,NA,NA,NA,NA,"",NA,"",NA,NA,NA,NA,NA,NA,NA,"","","",NA,"",NA,NA,NA,NA,NA,NA,NA,"",NA,"14"
"",NA,"",NA,"",NA,NA,NA,NA,NA,NA,NA,"","",1,1,"2024-08-23_19h38.02.637","IAT(Formal)","2021.2.3","Win32",120.875136,"",NA,"",NA,NA,NA,NA,NA,NA,NA,"","","",NA,"i",1,0.4319,NA,NA,NA,NA,NA,"其他","i","",NA,0,51,51,79,1,"",NA,"",NA,NA,NA,NA,NA,NA,NA,"",NA,"",NA,NA,NA,NA,NA,NA,NA,"","","",NA,"",NA,NA,NA,NA,NA,NA,NA,"",NA,"14"
"",NA,"",NA,"",NA,NA,NA,NA,NA,NA,NA,"","",1,1,"2024-08-23_19h38.02.637","IAT(Formal)","2021.2.3","Win32",120.875136,"",NA,"",NA,NA,NA,NA,NA,NA,NA,"","","",NA,"i",1,0.4082,NA,NA,NA,NA,NA,"其他","i","",NA,0,52,52,9,1,"",NA,"",NA,NA,NA,NA,NA,NA,NA,"",NA,"",NA,NA,NA,NA,NA,NA,NA,"","","",NA,"",NA,NA,NA,NA,NA,NA,NA,"",NA,"14"
"",NA,"",NA,"",NA,NA,NA,NA,NA,NA,NA,"","",1,1,"2024-08-23_19h38.02.637","IAT(Formal)","2021.2.3","Win32",120.875136,"",NA,"",NA,NA,NA,NA,NA,NA,NA,"","","",NA,"e",1,0.5743,NA,NA,NA,NA,NA,"崇高","e","",NA,0,53,53,11,1,"",NA,"",NA,NA,NA,NA,NA,NA,NA,"",NA,"",NA,NA,NA,NA,NA,NA,NA,"","","",NA,"",NA,NA,NA,NA,NA,NA,NA,"",NA,"14"
"",NA,"",NA,"",NA,NA,NA,NA,NA,NA,NA,"","",1,1,"2024-08-23_19h38.02.637","IAT(Formal)","2021.2.3","Win32",120.875136,"",NA,"",NA,NA,NA,NA,NA,NA,NA,"","","",NA,"i",1,0.6348,NA,NA,NA,NA,NA,"冒失","i","",NA,0,54,54,39,1,"",NA,"",NA,NA,NA,NA,NA,NA,NA,"",NA,"",NA,NA,NA,NA,NA,NA,NA,"","","",NA,"",NA,NA,NA,NA,NA,NA,NA,"",NA,"14"
"",NA,"",NA,"",NA,NA,NA,NA,NA,NA,NA,"","",1,1,"2024-08-23_19h38.02.637","IAT(Formal)","2021.2.3","Win32",120.875136,"",NA,"",NA,NA,NA,NA,NA,NA,NA,"","","",NA,"e",1,0.9568,NA,NA,NA,NA,NA,"我们","e","",NA,0,55,55,52,1,"",NA,"",NA,NA,NA,NA,NA,NA,NA,"",NA,"",NA,NA,NA,NA,NA,NA,NA,"","","",NA,"",NA,NA,NA,NA,NA,NA,NA,"",NA,"14"
"",NA,"",NA,"",NA,NA,NA,NA,NA,NA,NA,"","",1,1,"2024-08-23_19h38.02.637","IAT(Formal)","2021.2.3","Win32",120.875136,"",NA,"",NA,NA,NA,NA,NA,NA,NA,"","","",NA,"i",1,0.5263,NA,NA,NA,NA,NA,"他们","i","",NA,0,56,56,6,1,"",NA,"",NA,NA,NA,NA,NA,NA,NA,"",NA,"",NA,NA,NA,NA,NA,NA,NA,"","","",NA,"",NA,NA,NA,NA,NA,NA,NA,"",NA,"14"
"",NA,"",NA,"",NA,NA,NA,NA,NA,NA,NA,"","",1,1,"2024-08-23_19h38.02.637","IAT(Formal)","2021.2.3","Win32",120.875136,"",NA,"",NA,NA,NA,NA,NA,NA,NA,"","","",NA,"i",1,0.8184,NA,NA,NA,NA,NA,"他的","i","",NA,0,57,57,7,1,"",NA,"",NA,NA,NA,NA,NA,NA,NA,"",NA,"",NA,NA,NA,NA,NA,NA,NA,"","","",NA,"",NA,NA,NA,NA,NA,NA,NA,"",NA,"14"
"",NA,"",NA,"",NA,NA,NA,NA,NA,NA,NA,"","",1,1,"2024-08-23_19h38.02.637","IAT(Formal)","2021.2.3","Win32",120.875136,"",NA,"",NA,NA,NA,NA,NA,NA,NA,"","","",NA,"i",1,0.4027,NA,NA,NA,NA,NA,"他","i","",NA,0,58,58,5,1,"",NA,"",NA,NA,NA,NA,NA,NA,NA,"",NA,"",NA,NA,NA,NA,NA,NA,NA,"","","",NA,"",NA,NA,NA,NA,NA,NA,NA,"",NA,"14"
"",NA,"",NA,"",NA,NA,NA,NA,NA,NA,NA,"","",1,1,"2024-08-23_19h38.02.637","IAT(Formal)","2021.2.3","Win32",120.875136,"",NA,"",NA,NA,NA,NA,NA,NA,NA,"","","",NA,"i",1,0.5296,NA,NA,NA,NA,NA,"卑鄙","i","",NA,0,59,59,30,1,"",NA,"",NA,NA,NA,NA,NA,NA,NA,"",NA,"",NA,NA,NA,NA,NA,NA,NA,"","","",NA,"",NA,NA,NA,NA,NA,NA,NA,"",NA,"14"
"",NA,"",NA,"",NA,NA,NA,NA,NA,NA,NA,"","",1,1,"2024-08-23_19h38.02.637","IAT(Formal)","2021.2.3","Win32",120.875136,"",NA,"",NA,NA,NA,NA,NA,NA,NA,"","","",NA,"i",1,0.4573,NA,NA,NA,NA,NA,"自卑","i","",NA,0,60,60,36,1,"",NA,"",NA,NA,NA,NA,NA,NA,NA,"",NA,"",NA,NA,NA,NA,NA,NA,NA,"","","",NA,"",NA,NA,NA,NA,NA,NA,NA,"",NA,"14"
"",NA,"",NA,"",NA,NA,NA,NA,NA,NA,NA,"","",1,1,"2024-08-23_19h38.02.637","IAT(Formal)","2021.2.3","Win32",120.875136,"",NA,"",NA,NA,NA,NA,NA,NA,NA,"","","",NA,"i",1,0.5119,NA,NA,NA,NA,NA,"鲁莽","i","",NA,0,61,61,38,1,"",NA,"",NA,NA,NA,NA,NA,NA,NA,"",NA,"",NA,NA,NA,NA,NA,NA,NA,"","","",NA,"",NA,NA,NA,NA,NA,NA,NA,"",NA,"14"
"",NA,"",NA,"",NA,NA,NA,NA,NA,NA,NA,"","",1,1,"2024-08-23_19h38.02.637","IAT(Formal)","2021.2.3","Win32",120.875136,"",NA,"",NA,NA,NA,NA,NA,NA,NA,"","","",NA,"e",1,0.5542,NA,NA,NA,NA,NA,"我的","e","",NA,0,62,62,1,1,"",NA,"",NA,NA,NA,NA,NA,NA,NA,"",NA,"",NA,NA,NA,NA,NA,NA,NA,"","","",NA,"",NA,NA,NA,NA,NA,NA,NA,"",NA,"14"
"",NA,"",NA,"",NA,NA,NA,NA,NA,NA,NA,"","",1,1,"2024-08-23_19h38.02.637","IAT(Formal)","2021.2.3","Win32",120.875136,"",NA,"",NA,NA,NA,NA,NA,NA,NA,"","","",NA,"i",1,0.5224,NA,NA,NA,NA,NA,"他人","i","",NA,0,63,63,78,1,"",NA,"",NA,NA,NA,NA,NA,NA,NA,"",NA,"",NA,NA,NA,NA,NA,NA,NA,"","","",NA,"",NA,NA,NA,NA,NA,NA,NA,"",NA,"14"
"",NA,"",NA,"",NA,NA,NA,NA,NA,NA,NA,"","",1,1,"2024-08-23_19h38.02.637","IAT(Formal)","2021.2.3","Win32",120.875136,"",NA,"",NA,NA,NA,NA,NA,NA,NA,"","","",NA,"e",1,0.8231,NA,NA,NA,NA,NA,"聪明","e","",NA,0,64,64,12,1,"",NA,"",NA,NA,NA,NA,NA,NA,NA,"",NA,"",NA,NA,NA,NA,NA,NA,NA,"","","",NA,"",NA,NA,NA,NA,NA,NA,NA,"",NA,"14"
"",NA,"",NA,"",NA,NA,NA,NA,NA,NA,NA,"","",1,1,"2024-08-23_19h38.02.637","IAT(Formal)","2021.2.3","Win32",120.875136,"",NA,"",NA,NA,NA,NA,NA,NA,NA,"","","",NA,"e",1,0.854,NA,NA,NA,NA,NA,"稳重","e","",NA,0,65,65,21,1,"",NA,"",NA,NA,NA,NA,NA,NA,NA,"",NA,"",NA,NA,NA,NA,NA,NA,NA,"","","",NA,"",NA,NA,NA,NA,NA,NA,NA,"",NA,"14"
"",NA,"",NA,"",NA,NA,NA,NA,NA,NA,NA,"","",1,1,"2024-08-23_19h38.02.637","IAT(Formal)","2021.2.3","Win32",120.875136,"",NA,"",NA,NA,NA,NA,NA,NA,NA,"","","",NA,"i",1,0.46,NA,NA,NA,NA,NA,"凶狠","i","",NA,0,66,66,42,1,"",NA,"",NA,NA,NA,NA,NA,NA,NA,"",NA,"",NA,NA,NA,NA,NA,NA,NA,"","","",NA,"",NA,NA,NA,NA,NA,NA,NA,"",NA,"14"
"",NA,"",NA,"",NA,NA,NA,NA,NA,NA,NA,"","",1,1,"2024-08-23_19h38.02.637","IAT(Formal)","2021.2.3","Win32",120.875136,"",NA,"",NA,NA,NA,NA,NA,NA,NA,"","","",NA,"i",1,0.5323,NA,NA,NA,NA,NA,"暴躁","i","",NA,0,67,67,44,1,"",NA,"",NA,NA,NA,NA,NA,NA,NA,"",NA,"",NA,NA,NA,NA,NA,NA,NA,"","","",NA,"",NA,NA,NA,NA,NA,NA,NA,"",NA,"14"
"",NA,"",NA,"",NA,NA,NA,NA,NA,NA,NA,"","",1,1,"2024-08-23_19h38.02.637","IAT(Formal)","2021.2.3","Win32",120.875136,"",NA,"",NA,NA,NA,NA,NA,NA,NA,"","","",NA,"e",1,0.6923,NA,NA,NA,NA,NA,"我的","e","",NA,0,68,68,51,1,"",NA,"",NA,NA,NA,NA,NA,NA,NA,"",NA,"",NA,NA,NA,NA,NA,NA,NA,"","","",NA,"",NA,NA,NA,NA,NA,NA,NA,"",NA,"14"
"",NA,"",NA,"",NA,NA,NA,NA,NA,NA,NA,"","",1,1,"2024-08-23_19h38.02.637","IAT(Formal)","2021.2.3","Win32",120.875136,"",NA,"",NA,NA,NA,NA,NA,NA,NA,"","","",NA,"i",1,0.4538,NA,NA,NA,NA,NA,"他","i","",NA,0,69,69,75,1,"",NA,"",NA,NA,NA,NA,NA,NA,NA,"",NA,"",NA,NA,NA,NA,NA,NA,NA,"","","",NA,"",NA,NA,NA,NA,NA,NA,NA,"",NA,"14"
"",NA,"",NA,"",NA,NA,NA,NA,NA,NA,NA,"","",1,1,"2024-08-23_19h38.02.637","IAT(Formal)","2021.2.3","Win32",120.875136,"",NA,"",NA,NA,NA,NA,NA,NA,NA,"","","",NA,"i",1,0.5337,NA,NA,NA,NA,NA,"自私","i","",NA,0,70,70,43,1,"",NA,"",NA,NA,NA,NA,NA,NA,NA,"",NA,"",NA,NA,NA,NA,NA,NA,NA,"","","",NA,"",NA,NA,NA,NA,NA,NA,NA,"",NA,"14"
"",NA,"",NA,"",NA,NA,NA,NA,NA,NA,NA,"","",1,1,"2024-08-23_19h38.02.637","IAT(Formal)","2021.2.3","Win32",120.875136,"",NA,"",NA,NA,NA,NA,NA,NA,NA,"","","",NA,"e",1,0.5073,NA,NA,NA,NA,NA,"我","e","",NA,0,71,71,50,1,"",NA,"",NA,NA,NA,NA,NA,NA,NA,"",NA,"",NA,NA,NA,NA,NA,NA,NA,"","","",NA,"",NA,NA,NA,NA,NA,NA,NA,"",NA,"14"
"",NA,"",NA,"",NA,NA,NA,NA,NA,NA,NA,"","",1,1,"2024-08-23_19h38.02.637","IAT(Formal)","2021.2.3","Win32",120.875136,"",NA,"",NA,NA,NA,NA,NA,NA,NA,"","","",NA,"i",1,0.4589,NA,NA,NA,NA,NA,"他的","i","",NA,0,72,72,67,1,"",NA,"",NA,NA,NA,NA,NA,NA,NA,"",NA,"",NA,NA,NA,NA,NA,NA,NA,"","","",NA,"",NA,NA,NA,NA,NA,NA,NA,"",NA,"14"
"",NA,"",NA,"",NA,NA,NA,NA,NA,NA,NA,"","",1,1,"2024-08-23_19h38.02.637","IAT(Formal)","2021.2.3","Win32",120.875136,"",NA,"",NA,NA,NA,NA,NA,NA,NA,"","","",NA,"i",1,0.457,NA,NA,NA,NA,NA,"他","i","",NA,0,73,73,65,1,"",NA,"",NA,NA,NA,NA,NA,NA,NA,"",NA,"",NA,NA,NA,NA,NA,NA,NA,"","","",NA,"",NA,NA,NA,NA,NA,NA,NA,"",NA,"14"
"",NA,"",NA,"",NA,NA,NA,NA,NA,NA,NA,"","",1,1,"2024-08-23_19h38.02.637","IAT(Formal)","2021.2.3","Win32",120.875136,"",NA,"",NA,NA,NA,NA,NA,NA,NA,"","","",NA,"e",1,0.8251,NA,NA,NA,NA,NA,"冷静","e","",NA,0,74,74,26,1,"",NA,"",NA,NA,NA,NA,NA,NA,NA,"",NA,"",NA,NA,NA,NA,NA,NA,NA,"","","",NA,"",NA,NA,NA,NA,NA,NA,NA,"",NA,"14"
"",NA,"",NA,"",NA,NA,NA,NA,NA,NA,NA,"","",1,1,"2024-08-23_19h38.02.637","IAT(Formal)","2021.2.3","Win32",120.875136,"",NA,"",NA,NA,NA,NA,NA,NA,NA,"","","",NA,"i",1,0.5053,NA,NA,NA,NA,NA,"他的","i","",NA,0,75,75,77,1,"",NA,"",NA,NA,NA,NA,NA,NA,NA,"",NA,"",NA,NA,NA,NA,NA,NA,NA,"","","",NA,"",NA,NA,NA,NA,NA,NA,NA,"",NA,"14"
"",NA,"",NA,"",NA,NA,NA,NA,NA,NA,NA,"","",1,1,"2024-08-23_19h38.02.637","IAT(Formal)","2021.2.3","Win32",120.875136,"",NA,"",NA,NA,NA,NA,NA,NA,NA,"","","",NA,"e",1,0.7127,NA,NA,NA,NA,NA,"热情","e","",NA,0,76,76,27,1,"",NA,"",NA,NA,NA,NA,NA,NA,NA,"",NA,"",NA,NA,NA,NA,NA,NA,NA,"","","",NA,"",NA,NA,NA,NA,NA,NA,NA,"",NA,"14"
"",NA,"",NA,"",NA,NA,NA,NA,NA,NA,NA,"","",1,1,"2024-08-23_19h38.02.637","IAT(Formal)","2021.2.3","Win32",120.875136,"",NA,"",NA,NA,NA,NA,NA,NA,NA,"","","",NA,"e",1,0.5651,NA,NA,NA,NA,NA,"我们","e","",NA,0,77,77,62,1,"",NA,"",NA,NA,NA,NA,NA,NA,NA,"",NA,"",NA,NA,NA,NA,NA,NA,NA,"","","",NA,"",NA,NA,NA,NA,NA,NA,NA,"",NA,"14"
"",NA,"",NA,"",NA,NA,NA,NA,NA,NA,NA,"","",1,1,"2024-08-23_19h38.02.637","IAT(Formal)","2021.2.3","Win32",120.875136,"",NA,"",NA,NA,NA,NA,NA,NA,NA,"","","",NA,"i",1,0.4929,NA,NA,NA,NA,NA,"消极","i","",NA,0,78,78,35,1,"",NA,"",NA,NA,NA,NA,NA,NA,NA,"",NA,"",NA,NA,NA,NA,NA,NA,NA,"","","",NA,"",NA,NA,NA,NA,NA,NA,NA,"",NA,"14"
"",NA,"",NA,"",NA,NA,NA,NA,NA,NA,NA,"","",1,1,"2024-08-23_19h38.02.637","IAT(Formal)","2021.2.3","Win32",120.875136,"",NA,"",NA,NA,NA,NA,NA,NA,NA,"","","",NA,"i",1,0.5438,NA,NA,NA,NA,NA,"虚伪","i","",NA,0,79,79,31,1,"",NA,"",NA,NA,NA,NA,NA,NA,NA,"",NA,"",NA,NA,NA,NA,NA,NA,NA,"","","",NA,"",NA,NA,NA,NA,NA,NA,NA,"",NA,"14"
"",NA,"",NA,"",NA,NA,NA,NA,NA,NA,NA,"","",1,1,"2024-08-23_19h38.02.637","IAT(Formal)","2021.2.3","Win32",120.875136,"",NA,"",NA,NA,NA,NA,NA,NA,NA,"","","",NA,"e",1,0.5492,NA,NA,NA,NA,NA,"热情","e","",NA,1,0,80,27,1,"",NA,"",NA,NA,NA,NA,NA,NA,NA,"",NA,"",NA,NA,NA,NA,NA,NA,NA,"","","",NA,"",NA,NA,NA,NA,NA,NA,NA,"",NA,"14"
"",NA,"",NA,"",NA,NA,NA,NA,NA,NA,NA,"","",1,1,"2024-08-23_19h38.02.637","IAT(Formal)","2021.2.3","Win32",120.875136,"",NA,"",NA,NA,NA,NA,NA,NA,NA,"","","",NA,"i",1,0.491,NA,NA,NA,NA,NA,"自卑","i","",NA,1,1,81,36,1,"",NA,"",NA,NA,NA,NA,NA,NA,NA,"",NA,"",NA,NA,NA,NA,NA,NA,NA,"","","",NA,"",NA,NA,NA,NA,NA,NA,NA,"",NA,"14"
"",NA,"",NA,"",NA,NA,NA,NA,NA,NA,NA,"","",1,1,"2024-08-23_19h38.02.637","IAT(Formal)","2021.2.3","Win32",120.875136,"",NA,"",NA,NA,NA,NA,NA,NA,NA,"","","",NA,"e",1,0.5762,NA,NA,NA,NA,NA,"俺","e","",NA,1,2,82,54,1,"",NA,"",NA,NA,NA,NA,NA,NA,NA,"",NA,"",NA,NA,NA,NA,NA,NA,NA,"","","",NA,"",NA,NA,NA,NA,NA,NA,NA,"",NA,"14"
"",NA,"",NA,"",NA,NA,NA,NA,NA,NA,NA,"","",1,1,"2024-08-23_19h38.02.637","IAT(Formal)","2021.2.3","Win32",120.875136,"",NA,"",NA,NA,NA,NA,NA,NA,NA,"","","",NA,"i",1,0.5735,NA,NA,NA,NA,NA,"他的","i","",NA,1,3,83,77,1,"",NA,"",NA,NA,NA,NA,NA,NA,NA,"",NA,"",NA,NA,NA,NA,NA,NA,NA,"","","",NA,"",NA,NA,NA,NA,NA,NA,NA,"",NA,"14"
"",NA,"",NA,"",NA,NA,NA,NA,NA,NA,NA,"","",1,1,"2024-08-23_19h38.02.637","IAT(Formal)","2021.2.3","Win32",120.875136,"",NA,"",NA,NA,NA,NA,NA,NA,NA,"","","",NA,"e",1,0.4513,NA,NA,NA,NA,NA,"我","e","",NA,1,4,84,70,1,"",NA,"",NA,NA,NA,NA,NA,NA,NA,"",NA,"",NA,NA,NA,NA,NA,NA,NA,"","","",NA,"",NA,NA,NA,NA,NA,NA,NA,"",NA,"14"
"",NA,"",NA,"",NA,NA,NA,NA,NA,NA,NA,"","",1,1,"2024-08-23_19h38.02.637","IAT(Formal)","2021.2.3","Win32",120.875136,"",NA,"",NA,NA,NA,NA,NA,NA,NA,"","","",NA,"i",1,0.507,NA,NA,NA,NA,NA,"冒失","i","",NA,1,5,85,39,1,"",NA,"",NA,NA,NA,NA,NA,NA,NA,"",NA,"",NA,NA,NA,NA,NA,NA,NA,"","","",NA,"",NA,NA,NA,NA,NA,NA,NA,"",NA,"14"
"",NA,"",NA,"",NA,NA,NA,NA,NA,NA,NA,"","",1,1,"2024-08-23_19h38.02.637","IAT(Formal)","2021.2.3","Win32",120.875136,"",NA,"",NA,NA,NA,NA,NA,NA,NA,"","","",NA,"i",1,0.6837,NA,NA,NA,NA,NA,"他","i","",NA,1,6,86,75,1,"",NA,"",NA,NA,NA,NA,NA,NA,NA,"",NA,"",NA,NA,NA,NA,NA,NA,NA,"","","",NA,"",NA,NA,NA,NA,NA,NA,NA,"",NA,"14"
"",NA,"",NA,"",NA,NA,NA,NA,NA,NA,NA,"","",1,1,"2024-08-23_19h38.02.637","IAT(Formal)","2021.2.3","Win32",120.875136,"",NA,"",NA,NA,NA,NA,NA,NA,NA,"","","",NA,"e",1,0.5034,NA,NA,NA,NA,NA,"我的","e","",NA,1,7,87,51,1,"",NA,"",NA,NA,NA,NA,NA,NA,NA,"",NA,"",NA,NA,NA,NA,NA,NA,NA,"","","",NA,"",NA,NA,NA,NA,NA,NA,NA,"",NA,"14"
"",NA,"",NA,"",NA,NA,NA,NA,NA,NA,NA,"","",1,1,"2024-08-23_19h38.02.637","IAT(Formal)","2021.2.3","Win32",120.875136,"",NA,"",NA,NA,NA,NA,NA,NA,NA,"","","",NA,"i",0,0.46,NA,NA,NA,NA,NA,"正直","e","",NA,1,8,88,16,1,"",NA,"",NA,NA,NA,NA,NA,NA,NA,"",NA,"",NA,NA,NA,NA,NA,NA,NA,"","","",NA,"",NA,NA,NA,NA,NA,NA,NA,"",NA,"14"
"",NA,"",NA,"",NA,NA,NA,NA,NA,NA,NA,"","",1,1,"2024-08-23_19h38.02.637","IAT(Formal)","2021.2.3","Win32",120.875136,"",NA,"",NA,NA,NA,NA,NA,NA,NA,"","","",NA,"e",1,0.7736,NA,NA,NA,NA,NA,"活泼","e","",NA,1,9,89,28,1,"",NA,"",NA,NA,NA,NA,NA,NA,NA,"",NA,"",NA,NA,NA,NA,NA,NA,NA,"","","",NA,"",NA,NA,NA,NA,NA,NA,NA,"",NA,"14"
"",NA,"",NA,"",NA,NA,NA,NA,NA,NA,NA,"","",1,1,"2024-08-23_19h38.02.637","IAT(Formal)","2021.2.3","Win32",120.875136,"",NA,"",NA,NA,NA,NA,NA,NA,NA,"","","",NA,"e",1,0.5596,NA,NA,NA,NA,NA,"公正","e","",NA,1,10,90,23,1,"",NA,"",NA,NA,NA,NA,NA,NA,NA,"",NA,"",NA,NA,NA,NA,NA,NA,NA,"","","",NA,"",NA,NA,NA,NA,NA,NA,NA,"",NA,"14"
"",NA,"",NA,"",NA,NA,NA,NA,NA,NA,NA,"","",1,1,"2024-08-23_19h38.02.637","IAT(Formal)","2021.2.3","Win32",120.875136,"",NA,"",NA,NA,NA,NA,NA,NA,NA,"","","",NA,"i",1,0.5996,NA,NA,NA,NA,NA,"执拗","i","",NA,1,11,91,40,1,"",NA,"",NA,NA,NA,NA,NA,NA,NA,"",NA,"",NA,NA,NA,NA,NA,NA,NA,"","","",NA,"",NA,NA,NA,NA,NA,NA,NA,"",NA,"14"
"",NA,"",NA,"",NA,NA,NA,NA,NA,NA,NA,"","",1,1,"2024-08-23_19h38.02.637","IAT(Formal)","2021.2.3","Win32",120.875136,"",NA,"",NA,NA,NA,NA,NA,NA,NA,"","","",NA,"e",0,0.4744,NA,NA,NA,NA,NA,"他的","i","",NA,1,12,92,67,1,"",NA,"",NA,NA,NA,NA,NA,NA,NA,"",NA,"",NA,NA,NA,NA,NA,NA,NA,"","","",NA,"",NA,NA,NA,NA,NA,NA,NA,"",NA,"14"
"",NA,"",NA,"",NA,NA,NA,NA,NA,NA,NA,"","",1,1,"2024-08-23_19h38.02.637","IAT(Formal)","2021.2.3","Win32",120.875136,"",NA,"",NA,NA,NA,NA,NA,NA,NA,"","","",NA,"i",1,0.5997,NA,NA,NA,NA,NA,"下贱","i","",NA,1,13,93,49,1,"",NA,"",NA,NA,NA,NA,NA,NA,NA,"",NA,"",NA,NA,NA,NA,NA,NA,NA,"","","",NA,"",NA,NA,NA,NA,NA,NA,NA,"",NA,"14"
"",NA,"",NA,"",NA,NA,NA,NA,NA,NA,NA,"","",1,1,"2024-08-23_19h38.02.637","IAT(Formal)","2021.2.3","Win32",120.875136,"",NA,"",NA,NA,NA,NA,NA,NA,NA,"","","",NA,"i",1,0.9867,NA,NA,NA,NA,NA,"傲慢","i","",NA,1,14,94,37,1,"",NA,"",NA,NA,NA,NA,NA,NA,NA,"",NA,"",NA,NA,NA,NA,NA,NA,NA,"","","",NA,"",NA,NA,NA,NA,NA,NA,NA,"",NA,"14"
"",NA,"",NA,"",NA,NA,NA,NA,NA,NA,NA,"","",1,1,"2024-08-23_19h38.02.637","IAT(Formal)","2021.2.3","Win32",120.875136,"",NA,"",NA,NA,NA,NA,NA,NA,NA,"","","",NA,"i",1,0.561,NA,NA,NA,NA,NA,"自私","i","",NA,1,15,95,43,1,"",NA,"",NA,NA,NA,NA,NA,NA,NA,"",NA,"",NA,NA,NA,NA,NA,NA,NA,"","","",NA,"",NA,NA,NA,NA,NA,NA,NA,"",NA,"14"
"",NA,"",NA,"",NA,NA,NA,NA,NA,NA,NA,"","",1,1,"2024-08-23_19h38.02.637","IAT(Formal)","2021.2.3","Win32",120.875136,"",NA,"",NA,NA,NA,NA,NA,NA,NA,"","","",NA,"i",1,0.493,NA,NA,NA,NA,NA,"刻薄","i","",NA,1,16,96,33,1,"",NA,"",NA,NA,NA,NA,NA,NA,NA,"",NA,"",NA,NA,NA,NA,NA,NA,NA,"","","",NA,"",NA,NA,NA,NA,NA,NA,NA,"",NA,"14"
"",NA,"",NA,"",NA,NA,NA,NA,NA,NA,NA,"","",1,1,"2024-08-23_19h38.02.637","IAT(Formal)","2021.2.3","Win32",120.875136,"",NA,"",NA,NA,NA,NA,NA,NA,NA,"","","",NA,"i",1,0.3583,NA,NA,NA,NA,NA,"他的","i","",NA,1,17,97,57,1,"",NA,"",NA,NA,NA,NA,NA,NA,NA,"",NA,"",NA,NA,NA,NA,NA,NA,NA,"","","",NA,"",NA,NA,NA,NA,NA,NA,NA,"",NA,"14"
"",NA,"",NA,"",NA,NA,NA,NA,NA,NA,NA,"","",1,1,"2024-08-23_19h38.02.637","IAT(Formal)","2021.2.3","Win32",120.875136,"",NA,"",NA,NA,NA,NA,NA,NA,NA,"","","",NA,"e",1,0.5022,NA,NA,NA,NA,NA,"我","e","",NA,1,18,98,50,1,"",NA,"",NA,NA,NA,NA,NA,NA,NA,"",NA,"",NA,NA,NA,NA,NA,NA,NA,"","","",NA,"",NA,NA,NA,NA,NA,NA,NA,"",NA,"14"
"",NA,"",NA,"",NA,NA,NA,NA,NA,NA,NA,"","",1,1,"2024-08-23_19h38.02.637","IAT(Formal)","2021.2.3","Win32",120.875136,"",NA,"",NA,NA,NA,NA,NA,NA,NA,"","","",NA,"e",1,0.8817,NA,NA,NA,NA,NA,"诚实","e","",NA,1,19,99,15,1,"",NA,"",NA,NA,NA,NA,NA,NA,NA,"",NA,"",NA,NA,NA,NA,NA,NA,NA,"","","",NA,"",NA,NA,NA,NA,NA,NA,NA,"",NA,"14"
"",NA,"",NA,"",NA,NA,NA,NA,NA,NA,NA,"","",1,1,"2024-08-23_19h38.02.637","IAT(Formal)","2021.2.3","Win32",120.875136,"",NA,"",NA,NA,NA,NA,NA,NA,NA,"","","",NA,"i",0,0.5239,NA,NA,NA,NA,NA,"自己","e","",NA,1,20,100,3,1,"",NA,"",NA,NA,NA,NA,NA,NA,NA,"",NA,"",NA,NA,NA,NA,NA,NA,NA,"","","",NA,"",NA,NA,NA,NA,NA,NA,NA,"",NA,"14"
"",NA,"",NA,"",NA,NA,NA,NA,NA,NA,NA,"","",1,1,"2024-08-23_19h38.02.637","IAT(Formal)","2021.2.3","Win32",120.875136,"",NA,"",NA,NA,NA,NA,NA,NA,NA,"","","",NA,"i",1,0.5167,NA,NA,NA,NA,NA,"虚伪","i","",NA,1,21,101,31,1,"",NA,"",NA,NA,NA,NA,NA,NA,NA,"",NA,"",NA,NA,NA,NA,NA,NA,NA,"","","",NA,"",NA,NA,NA,NA,NA,NA,NA,"",NA,"14"
"",NA,"",NA,"",NA,NA,NA,NA,NA,NA,NA,"","",1,1,"2024-08-23_19h38.02.637","IAT(Formal)","2021.2.3","Win32",120.875136,"",NA,"",NA,NA,NA,NA,NA,NA,NA,"","","",NA,"i",1,0.4769,NA,NA,NA,NA,NA,"暴躁","i","",NA,1,22,102,44,1,"",NA,"",NA,NA,NA,NA,NA,NA,NA,"",NA,"",NA,NA,NA,NA,NA,NA,NA,"","","",NA,"",NA,NA,NA,NA,NA,NA,NA,"",NA,"14"
"",NA,"",NA,"",NA,NA,NA,NA,NA,NA,NA,"","",1,1,"2024-08-23_19h38.02.637","IAT(Formal)","2021.2.3","Win32",120.875136,"",NA,"",NA,NA,NA,NA,NA,NA,NA,"","","",NA,"e",1,0.7186,NA,NA,NA,NA,NA,"聪明","e","",NA,1,23,103,12,1,"",NA,"",NA,NA,NA,NA,NA,NA,NA,"",NA,"",NA,NA,NA,NA,NA,NA,NA,"","","",NA,"",NA,NA,NA,NA,NA,NA,NA,"",NA,"14"
"",NA,"",NA,"",NA,NA,NA,NA,NA,NA,NA,"","",1,1,"2024-08-23_19h38.02.637","IAT(Formal)","2021.2.3","Win32",120.875136,"",NA,"",NA,NA,NA,NA,NA,NA,NA,"","","",NA,"i",1,0.8074,NA,NA,NA,NA,NA,"他","i","",NA,1,24,104,5,1,"",NA,"",NA,NA,NA,NA,NA,NA,NA,"",NA,"",NA,NA,NA,NA,NA,NA,NA,"","","",NA,"",NA,NA,NA,NA,NA,NA,NA,"",NA,"14"
"",NA,"",NA,"",NA,NA,NA,NA,NA,NA,NA,"","",1,1,"2024-08-23_19h38.02.637","IAT(Formal)","2021.2.3","Win32",120.875136,"",NA,"",NA,NA,NA,NA,NA,NA,NA,"","","",NA,"i",1,0.482,NA,NA,NA,NA,NA,"其他","i","",NA,1,25,105,69,1,"",NA,"",NA,NA,NA,NA,NA,NA,NA,"",NA,"",NA,NA,NA,NA,NA,NA,NA,"","","",NA,"",NA,NA,NA,NA,NA,NA,NA,"",NA,"14"
"",NA,"",NA,"",NA,NA,NA,NA,NA,NA,NA,"","",1,1,"2024-08-23_19h38.02.637","IAT(Formal)","2021.2.3","Win32",120.875136,"",NA,"",NA,NA,NA,NA,NA,NA,NA,"","","",NA,"e",1,0.5964,NA,NA,NA,NA,NA,"乐观","e","",NA,1,26,106,14,1,"",NA,"",NA,NA,NA,NA,NA,NA,NA,"",NA,"",NA,NA,NA,NA,NA,NA,NA,"","","",NA,"",NA,NA,NA,NA,NA,NA,NA,"",NA,"14"
"",NA,"",NA,"",NA,NA,NA,NA,NA,NA,NA,"","",1,1,"2024-08-23_19h38.02.637","IAT(Formal)","2021.2.3","Win32",120.875136,"",NA,"",NA,NA,NA,NA,NA,NA,NA,"","","",NA,"i",1,0.8377,NA,NA,NA,NA,NA,"他们","i","",NA,1,27,107,56,1,"",NA,"",NA,NA,NA,NA,NA,NA,NA,"",NA,"",NA,NA,NA,NA,NA,NA,NA,"","","",NA,"",NA,NA,NA,NA,NA,NA,NA,"",NA,"14"
"",NA,"",NA,"",NA,NA,NA,NA,NA,NA,NA,"","",1,1,"2024-08-23_19h38.02.637","IAT(Formal)","2021.2.3","Win32",120.875136,"",NA,"",NA,NA,NA,NA,NA,NA,NA,"","","",NA,"i",1,0.6227,NA,NA,NA,NA,NA,"他们","i","",NA,1,28,108,6,1,"",NA,"",NA,NA,NA,NA,NA,NA,NA,"",NA,"",NA,NA,NA,NA,NA,NA,NA,"","","",NA,"",NA,NA,NA,NA,NA,NA,NA,"",NA,"14"
"",NA,"",NA,"",NA,NA,NA,NA,NA,NA,NA,"","",1,1,"2024-08-23_19h38.02.637","IAT(Formal)","2021.2.3","Win32",120.875136,"",NA,"",NA,NA,NA,NA,NA,NA,NA,"","","",NA,"i",1,0.911,NA,NA,NA,NA,NA,"散漫","i","",NA,1,29,109,41,1,"",NA,"",NA,NA,NA,NA,NA,NA,NA,"",NA,"",NA,NA,NA,NA,NA,NA,NA,"","","",NA,"",NA,NA,NA,NA,NA,NA,NA,"",NA,"14"
"",NA,"",NA,"",NA,NA,NA,NA,NA,NA,NA,"","",1,1,"2024-08-23_19h38.02.637","IAT(Formal)","2021.2.3","Win32",120.875136,"",NA,"",NA,NA,NA,NA,NA,NA,NA,"","","",NA,"i",1,0.5404,NA,NA,NA,NA,NA,"卑鄙","i","",NA,1,30,110,30,1,"",NA,"",NA,NA,NA,NA,NA,NA,NA,"",NA,"",NA,NA,NA,NA,NA,NA,NA,"","","",NA,"",NA,NA,NA,NA,NA,NA,NA,"",NA,"14"
"",NA,"",NA,"",NA,NA,NA,NA,NA,NA,NA,"","",1,1,"2024-08-23_19h38.02.637","IAT(Formal)","2021.2.3","Win32",120.875136,"",NA,"",NA,NA,NA,NA,NA,NA,NA,"","","",NA,"e",1,0.6151,NA,NA,NA,NA,NA,"崇高","e","",NA,1,31,111,11,1,"",NA,"",NA,NA,NA,NA,NA,NA,NA,"",NA,"",NA,NA,NA,NA,NA,NA,NA,"","","",NA,"",NA,NA,NA,NA,NA,NA,NA,"",NA,"14"
"",NA,"",NA,"",NA,NA,NA,NA,NA,NA,NA,"","",1,1,"2024-08-23_19h38.02.637","IAT(Formal)","2021.2.3","Win32",120.875136,"",NA,"",NA,NA,NA,NA,NA,NA,NA,"","","",NA,"i",1,0.6502,NA,NA,NA,NA,NA,"他","i","",NA,1,32,112,65,1,"",NA,"",NA,NA,NA,NA,NA,NA,NA,"",NA,"",NA,NA,NA,NA,NA,NA,NA,"","","",NA,"",NA,NA,NA,NA,NA,NA,NA,"",NA,"14"
"",NA,"",NA,"",NA,NA,NA,NA,NA,NA,NA,"","",1,1,"2024-08-23_19h38.02.637","IAT(Formal)","2021.2.3","Win32",120.875136,"",NA,"",NA,NA,NA,NA,NA,NA,NA,"","","",NA,"e",1,0.4865,NA,NA,NA,NA,NA,"我们","e","",NA,1,33,113,2,1,"",NA,"",NA,NA,NA,NA,NA,NA,NA,"",NA,"",NA,NA,NA,NA,NA,NA,NA,"","","",NA,"",NA,NA,NA,NA,NA,NA,NA,"",NA,"14"
"",NA,"",NA,"",NA,NA,NA,NA,NA,NA,NA,"","",1,1,"2024-08-23_19h38.02.637","IAT(Formal)","2021.2.3","Win32",120.875136,"",NA,"",NA,NA,NA,NA,NA,NA,NA,"","","",NA,"e",1,0.4553,NA,NA,NA,NA,NA,"我们","e","",NA,1,34,114,52,1,"",NA,"",NA,NA,NA,NA,NA,NA,NA,"",NA,"",NA,NA,NA,NA,NA,NA,NA,"","","",NA,"",NA,NA,NA,NA,NA,NA,NA,"",NA,"14"
"",NA,"",NA,"",NA,NA,NA,NA,NA,NA,NA,"","",1,1,"2024-08-23_19h38.02.637","IAT(Formal)","2021.2.3","Win32",120.875136,"",NA,"",NA,NA,NA,NA,NA,NA,NA,"","","",NA,"e",1,0.4753,NA,NA,NA,NA,NA,"我们","e","",NA,1,35,115,72,1,"",NA,"",NA,NA,NA,NA,NA,NA,NA,"",NA,"",NA,NA,NA,NA,NA,NA,NA,"","","",NA,"",NA,NA,NA,NA,NA,NA,NA,"",NA,"14"
"",NA,"",NA,"",NA,NA,NA,NA,NA,NA,NA,"","",1,1,"2024-08-23_19h38.02.637","IAT(Formal)","2021.2.3","Win32",120.875136,"",NA,"",NA,NA,NA,NA,NA,NA,NA,"","","",NA,"e",1,0.5135,NA,NA,NA,NA,NA,"俺","e","",NA,1,36,116,64,1,"",NA,"",NA,NA,NA,NA,NA,NA,NA,"",NA,"",NA,NA,NA,NA,NA,NA,NA,"","","",NA,"",NA,NA,NA,NA,NA,NA,NA,"",NA,"14"
"",NA,"",NA,"",NA,NA,NA,NA,NA,NA,NA,"","",1,1,"2024-08-23_19h38.02.637","IAT(Formal)","2021.2.3","Win32",120.875136,"",NA,"",NA,NA,NA,NA,NA,NA,NA,"","","",NA,"e",1,0.6037,NA,NA,NA,NA,NA,"俺","e","",NA,1,37,117,4,1,"",NA,"",NA,NA,NA,NA,NA,NA,NA,"",NA,"",NA,NA,NA,NA,NA,NA,NA,"","","",NA,"",NA,NA,NA,NA,NA,NA,NA,"",NA,"14"
"",NA,"",NA,"",NA,NA,NA,NA,NA,NA,NA,"","",1,1,"2024-08-23_19h38.02.637","IAT(Formal)","2021.2.3","Win32",120.875136,"",NA,"",NA,NA,NA,NA,NA,NA,NA,"","","",NA,"i",1,0.6072,NA,NA,NA,NA,NA,"悲观","i","",NA,1,38,118,34,1,"",NA,"",NA,NA,NA,NA,NA,NA,NA,"",NA,"",NA,NA,NA,NA,NA,NA,NA,"","","",NA,"",NA,NA,NA,NA,NA,NA,NA,"",NA,"14"
"",NA,"",NA,"",NA,NA,NA,NA,NA,NA,NA,"","",1,1,"2024-08-23_19h38.02.637","IAT(Formal)","2021.2.3","Win32",120.875136,"",NA,"",NA,NA,NA,NA,NA,NA,NA,"","","",NA,"i",0,0.5402,NA,NA,NA,NA,NA,"自己","e","",NA,1,39,119,63,1,"",NA,"",NA,NA,NA,NA,NA,NA,NA,"",NA,"",NA,NA,NA,NA,NA,NA,NA,"","","",NA,"",NA,NA,NA,NA,NA,NA,NA,"",NA,"14"
"",NA,"",NA,"",NA,NA,NA,NA,NA,NA,NA,"","",1,1,"2024-08-23_19h38.02.637","IAT(Formal)","2021.2.3","Win32",120.875136,"",NA,"",NA,NA,NA,NA,NA,NA,NA,"","","",NA,"i",1,0.5826,NA,NA,NA,NA,NA,"他人","i","",NA,1,40,120,68,1,"",NA,"",NA,NA,NA,NA,NA,NA,NA,"",NA,"",NA,NA,NA,NA,NA,NA,NA,"","","",NA,"",NA,NA,NA,NA,NA,NA,NA,"",NA,"14"
"",NA,"",NA,"",NA,NA,NA,NA,NA,NA,NA,"","",1,1,"2024-08-23_19h38.02.637","IAT(Formal)","2021.2.3","Win32",120.875136,"",NA,"",NA,NA,NA,NA,NA,NA,NA,"","","",NA,"e",1,0.4996,NA,NA,NA,NA,NA,"我们","e","",NA,1,41,121,62,1,"",NA,"",NA,NA,NA,NA,NA,NA,NA,"",NA,"",NA,NA,NA,NA,NA,NA,NA,"","","",NA,"",NA,NA,NA,NA,NA,NA,NA,"",NA,"14"
"",NA,"",NA,"",NA,NA,NA,NA,NA,NA,NA,"","",1,1,"2024-08-23_19h38.02.637","IAT(Formal)","2021.2.3","Win32",120.875136,"",NA,"",NA,NA,NA,NA,NA,NA,NA,"","","",NA,"i",1,0.486,NA,NA,NA,NA,NA,"愚蠢","i","",NA,1,42,122,32,1,"",NA,"",NA,NA,NA,NA,NA,NA,NA,"",NA,"",NA,NA,NA,NA,NA,NA,NA,"","","",NA,"",NA,NA,NA,NA,NA,NA,NA,"",NA,"14"
"",NA,"",NA,"",NA,NA,NA,NA,NA,NA,NA,"","",1,1,"2024-08-23_19h38.02.637","IAT(Formal)","2021.2.3","Win32",120.875136,"",NA,"",NA,NA,NA,NA,NA,NA,NA,"","","",NA,"i",1,0.4935,NA,NA,NA,NA,NA,"凶狠","i","",NA,1,43,123,42,1,"",NA,"",NA,NA,NA,NA,NA,NA,NA,"",NA,"",NA,NA,NA,NA,NA,NA,NA,"","","",NA,"",NA,NA,NA,NA,NA,NA,NA,"",NA,"14"
"",NA,"",NA,"",NA,NA,NA,NA,NA,NA,NA,"","",1,1,"2024-08-23_19h38.02.637","IAT(Formal)","2021.2.3","Win32",120.875136,"",NA,"",NA,NA,NA,NA,NA,NA,NA,"","","",NA,"e",1,0.6,NA,NA,NA,NA,NA,"勇敢","e","",NA,1,44,124,17,1,"",NA,"",NA,NA,NA,NA,NA,NA,NA,"",NA,"",NA,NA,NA,NA,NA,NA,NA,"","","",NA,"",NA,NA,NA,NA,NA,NA,NA,"",NA,"14"
"",NA,"",NA,"",NA,NA,NA,NA,NA,NA,NA,"","",1,1,"2024-08-23_19h38.02.637","IAT(Formal)","2021.2.3","Win32",120.875136,"",NA,"",NA,NA,NA,NA,NA,NA,NA,"","","",NA,"i",1,0.5902,NA,NA,NA,NA,NA,"他","i","",NA,1,45,125,55,1,"",NA,"",NA,NA,NA,NA,NA,NA,NA,"",NA,"",NA,NA,NA,NA,NA,NA,NA,"","","",NA,"",NA,NA,NA,NA,NA,NA,NA,"",NA,"14"
"",NA,"",NA,"",NA,NA,NA,NA,NA,NA,NA,"","",1,1,"2024-08-23_19h38.02.637","IAT(Formal)","2021.2.3","Win32",120.875136,"",NA,"",NA,NA,NA,NA,NA,NA,NA,"","","",NA,"e",1,0.5239,NA,NA,NA,NA,NA,"无私","e","",NA,1,46,126,22,1,"",NA,"",NA,NA,NA,NA,NA,NA,NA,"",NA,"",NA,NA,NA,NA,NA,NA,NA,"","","",NA,"",NA,NA,NA,NA,NA,NA,NA,"",NA,"14"
"",NA,"",NA,"",NA,NA,NA,NA,NA,NA,NA,"","",1,1,"2024-08-23_19h38.02.637","IAT(Formal)","2021.2.3","Win32",120.875136,"",NA,"",NA,NA,NA,NA,NA,NA,NA,"","","",NA,"i",1,0.7601,NA,NA,NA,NA,NA,"他人","i","",NA,1,47,127,78,1,"",NA,"",NA,NA,NA,NA,NA,NA,NA,"",NA,"",NA,NA,NA,NA,NA,NA,NA,"","","",NA,"",NA,NA,NA,NA,NA,NA,NA,"",NA,"14"
"",NA,"",NA,"",NA,NA,NA,NA,NA,NA,NA,"","",1,1,"2024-08-23_19h38.02.637","IAT(Formal)","2021.2.3","Win32",120.875136,"",NA,"",NA,NA,NA,NA,NA,NA,NA,"","","",NA,"i",1,0.6824,NA,NA,NA,NA,NA,"他的","i","",NA,1,48,128,7,1,"",NA,"",NA,NA,NA,NA,NA,NA,NA,"",NA,"",NA,NA,NA,NA,NA,NA,NA,"","","",NA,"",NA,NA,NA,NA,NA,NA,NA,"",NA,"14"
"",NA,"",NA,"",NA,NA,NA,NA,NA,NA,NA,"","",1,1,"2024-08-23_19h38.02.637","IAT(Formal)","2021.2.3","Win32",120.875136,"",NA,"",NA,NA,NA,NA,NA,NA,NA,"","","",NA,"e",1,0.4985,NA,NA,NA,NA,NA,"我","e","",NA,1,49,129,60,1,"",NA,"",NA,NA,NA,NA,NA,NA,NA,"",NA,"",NA,NA,NA,NA,NA,NA,NA,"","","",NA,"",NA,NA,NA,NA,NA,NA,NA,"",NA,"14"
"",NA,"",NA,"",NA,NA,NA,NA,NA,NA,NA,"","",1,1,"2024-08-23_19h38.02.637","IAT(Formal)","2021.2.3","Win32",120.875136,"",NA,"",NA,NA,NA,NA,NA,NA,NA,"","","",NA,"e",1,1.086,NA,NA,NA,NA,NA,"认真","e","",NA,1,50,130,20,1,"",NA,"",NA,NA,NA,NA,NA,NA,NA,"",NA,"",NA,NA,NA,NA,NA,NA,NA,"","","",NA,"",NA,NA,NA,NA,NA,NA,NA,"",NA,"14"
"",NA,"",NA,"",NA,NA,NA,NA,NA,NA,NA,"","",1,1,"2024-08-23_19h38.02.637","IAT(Formal)","2021.2.3","Win32",120.875136,"",NA,"",NA,NA,NA,NA,NA,NA,NA,"","","",NA,"i",1,0.5013,NA,NA,NA,NA,NA,"轻率","i","",NA,1,51,131,48,1,"",NA,"",NA,NA,NA,NA,NA,NA,NA,"",NA,"",NA,NA,NA,NA,NA,NA,NA,"","","",NA,"",NA,NA,NA,NA,NA,NA,NA,"",NA,"14"
"",NA,"",NA,"",NA,NA,NA,NA,NA,NA,NA,"","",1,1,"2024-08-23_19h38.02.637","IAT(Formal)","2021.2.3","Win32",120.875136,"",NA,"",NA,NA,NA,NA,NA,NA,NA,"","","",NA,"i",1,0.455,NA,NA,NA,NA,NA,"固执","i","",NA,1,52,132,47,1,"",NA,"",NA,NA,NA,NA,NA,NA,NA,"",NA,"",NA,NA,NA,NA,NA,NA,NA,"","","",NA,"",NA,NA,NA,NA,NA,NA,NA,"",NA,"14"
"",NA,"",NA,"",NA,NA,NA,NA,NA,NA,NA,"","",1,1,"2024-08-23_19h38.02.637","IAT(Formal)","2021.2.3","Win32",120.875136,"",NA,"",NA,NA,NA,NA,NA,NA,NA,"","","",NA,"i",1,0.5094,NA,NA,NA,NA,NA,"鲁莽","i","",NA,1,53,133,38,1,"",NA,"",NA,NA,NA,NA,NA,NA,NA,"",NA,"",NA,NA,NA,NA,NA,NA,NA,"","","",NA,"",NA,NA,NA,NA,NA,NA,NA,"",NA,"14"
"",NA,"",NA,"",NA,NA,NA,NA,NA,NA,NA,"","",1,1,"2024-08-23_19h38.02.637","IAT(Formal)","2021.2.3","Win32",120.875136,"",NA,"",NA,NA,NA,NA,NA,NA,NA,"","","",NA,"e",0,0.594,NA,NA,NA,NA,NA,"他人","i","",NA,1,54,134,58,1,"",NA,"",NA,NA,NA,NA,NA,NA,NA,"",NA,"",NA,NA,NA,NA,NA,NA,NA,"","","",NA,"",NA,NA,NA,NA,NA,NA,NA,"",NA,"14"
"",NA,"",NA,"",NA,NA,NA,NA,NA,NA,NA,"","",1,1,"2024-08-23_19h38.02.637","IAT(Formal)","2021.2.3","Win32",120.875136,"",NA,"",NA,NA,NA,NA,NA,NA,NA,"","","",NA,"i",1,0.5109,NA,NA,NA,NA,NA,"其他","i","",NA,1,55,135,79,1,"",NA,"",NA,NA,NA,NA,NA,NA,NA,"",NA,"",NA,NA,NA,NA,NA,NA,NA,"","","",NA,"",NA,NA,NA,NA,NA,NA,NA,"",NA,"14"
"",NA,"",NA,"",NA,NA,NA,NA,NA,NA,NA,"","",1,1,"2024-08-23_19h38.02.637","IAT(Formal)","2021.2.3","Win32",120.875136,"",NA,"",NA,NA,NA,NA,NA,NA,NA,"","","",NA,"e",1,0.4756,NA,NA,NA,NA,NA,"我","e","",NA,1,56,136,0,1,"",NA,"",NA,NA,NA,NA,NA,NA,NA,"",NA,"",NA,NA,NA,NA,NA,NA,NA,"","","",NA,"",NA,NA,NA,NA,NA,NA,NA,"",NA,"14"
"",NA,"",NA,"",NA,NA,NA,NA,NA,NA,NA,"","",1,1,"2024-08-23_19h38.02.637","IAT(Formal)","2021.2.3","Win32",120.875136,"",NA,"",NA,NA,NA,NA,NA,NA,NA,"","","",NA,"i",1,0.5711,NA,NA,NA,NA,NA,"猖狂","i","",NA,1,57,137,45,1,"",NA,"",NA,NA,NA,NA,NA,NA,NA,"",NA,"",NA,NA,NA,NA,NA,NA,NA,"","","",NA,"",NA,NA,NA,NA,NA,NA,NA,"",NA,"14"
"",NA,"",NA,"",NA,NA,NA,NA,NA,NA,NA,"","",1,1,"2024-08-23_19h38.02.637","IAT(Formal)","2021.2.3","Win32",120.875136,"",NA,"",NA,NA,NA,NA,NA,NA,NA,"","","",NA,"i",0,0.4316,NA,NA,NA,NA,NA,"勤奋","e","",NA,1,58,138,18,1,"",NA,"",NA,NA,NA,NA,NA,NA,NA,"",NA,"",NA,NA,NA,NA,NA,NA,NA,"","","",NA,"",NA,NA,NA,NA,NA,NA,NA,"",NA,"14"
"",NA,"",NA,"",NA,NA,NA,NA,NA,NA,NA,"","",1,1,"2024-08-23_19h38.02.637","IAT(Formal)","2021.2.3","Win32",120.875136,"",NA,"",NA,NA,NA,NA,NA,NA,NA,"","","",NA,"e",1,0.5737,NA,NA,NA,NA,NA,"自己","e","",NA,1,59,139,53,1,"",NA,"",NA,NA,NA,NA,NA,NA,NA,"",NA,"",NA,NA,NA,NA,NA,NA,NA,"","","",NA,"",NA,NA,NA,NA,NA,NA,NA,"",NA,"14"
"",NA,"",NA,"",NA,NA,NA,NA,NA,NA,NA,"","",1,1,"2024-08-23_19h38.02.637","IAT(Formal)","2021.2.3","Win32",120.875136,"",NA,"",NA,NA,NA,NA,NA,NA,NA,"","","",NA,"e",1,0.8247,NA,NA,NA,NA,NA,"细腻","e","",NA,1,60,140,25,1,"",NA,"",NA,NA,NA,NA,NA,NA,NA,"",NA,"",NA,NA,NA,NA,NA,NA,NA,"","","",NA,"",NA,NA,NA,NA,NA,NA,NA,"",NA,"14"
"",NA,"",NA,"",NA,NA,NA,NA,NA,NA,NA,"","",1,1,"2024-08-23_19h38.02.637","IAT(Formal)","2021.2.3","Win32",120.875136,"",NA,"",NA,NA,NA,NA,NA,NA,NA,"","","",NA,"e",1,0.5587,NA,NA,NA,NA,NA,"稳重","e","",NA,1,61,141,21,1,"",NA,"",NA,NA,NA,NA,NA,NA,NA,"",NA,"",NA,NA,NA,NA,NA,NA,NA,"","","",NA,"",NA,NA,NA,NA,NA,NA,NA,"",NA,"14"
"",NA,"",NA,"",NA,NA,NA,NA,NA,NA,NA,"","",1,1,"2024-08-23_19h38.02.637","IAT(Formal)","2021.2.3","Win32",120.875136,"",NA,"",NA,NA,NA,NA,NA,NA,NA,"","","",NA,"i",1,0.5496,NA,NA,NA,NA,NA,"他们","i","",NA,1,62,142,66,1,"",NA,"",NA,NA,NA,NA,NA,NA,NA,"",NA,"",NA,NA,NA,NA,NA,NA,NA,"","","",NA,"",NA,NA,NA,NA,NA,NA,NA,"",NA,"14"
"",NA,"",NA,"",NA,NA,NA,NA,NA,NA,NA,"","",1,1,"2024-08-23_19h38.02.637","IAT(Formal)","2021.2.3","Win32",120.875136,"",NA,"",NA,NA,NA,NA,NA,NA,NA,"","","",NA,"e",1,0.4918,NA,NA,NA,NA,NA,"我的","e","",NA,1,63,143,61,1,"",NA,"",NA,NA,NA,NA,NA,NA,NA,"",NA,"",NA,NA,NA,NA,NA,NA,NA,"","","",NA,"",NA,NA,NA,NA,NA,NA,NA,"",NA,"14"
"",NA,"",NA,"",NA,NA,NA,NA,NA,NA,NA,"","",1,1,"2024-08-23_19h38.02.637","IAT(Formal)","2021.2.3","Win32",120.875136,"",NA,"",NA,NA,NA,NA,NA,NA,NA,"","","",NA,"e",1,0.8124,NA,NA,NA,NA,NA,"机智","e","",NA,1,64,144,19,1,"",NA,"",NA,NA,NA,NA,NA,NA,NA,"",NA,"",NA,NA,NA,NA,NA,NA,NA,"","","",NA,"",NA,NA,NA,NA,NA,NA,NA,"",NA,"14"
"",NA,"",NA,"",NA,NA,NA,NA,NA,NA,NA,"","",1,1,"2024-08-23_19h38.02.637","IAT(Formal)","2021.2.3","Win32",120.875136,"",NA,"",NA,NA,NA,NA,NA,NA,NA,"","","",NA,"i",1,0.5358,NA,NA,NA,NA,NA,"他们","i","",NA,1,65,145,76,1,"",NA,"",NA,NA,NA,NA,NA,NA,NA,"",NA,"",NA,NA,NA,NA,NA,NA,NA,"","","",NA,"",NA,NA,NA,NA,NA,NA,NA,"",NA,"14"
"",NA,"",NA,"",NA,NA,NA,NA,NA,NA,NA,"","",1,1,"2024-08-23_19h38.02.637","IAT(Formal)","2021.2.3","Win32",120.875136,"",NA,"",NA,NA,NA,NA,NA,NA,NA,"","","",NA,"e",1,0.5767,NA,NA,NA,NA,NA,"俺","e","",NA,1,66,146,74,1,"",NA,"",NA,NA,NA,NA,NA,NA,NA,"",NA,"",NA,NA,NA,NA,NA,NA,NA,"","","",NA,"",NA,NA,NA,NA,NA,NA,NA,"",NA,"14"
"",NA,"",NA,"",NA,NA,NA,NA,NA,NA,NA,"","",1,1,"2024-08-23_19h38.02.637","IAT(Formal)","2021.2.3","Win32",120.875136,"",NA,"",NA,NA,NA,NA,NA,NA,NA,"","","",NA,"i",1,0.6701,NA,NA,NA,NA,NA,"他人","i","",NA,1,67,147,8,1,"",NA,"",NA,NA,NA,NA,NA,NA,NA,"",NA,"",NA,NA,NA,NA,NA,NA,NA,"","","",NA,"",NA,NA,NA,NA,NA,NA,NA,"",NA,"14"
"",NA,"",NA,"",NA,NA,NA,NA,NA,NA,NA,"","",1,1,"2024-08-23_19h38.02.637","IAT(Formal)","2021.2.3","Win32",120.875136,"",NA,"",NA,NA,NA,NA,NA,NA,NA,"","","",NA,"i",1,0.6622,NA,NA,NA,NA,NA,"消极","i","",NA,1,68,148,35,1,"",NA,"",NA,NA,NA,NA,NA,NA,NA,"",NA,"",NA,NA,NA,NA,NA,NA,NA,"","","",NA,"",NA,NA,NA,NA,NA,NA,NA,"",NA,"14"
"",NA,"",NA,"",NA,NA,NA,NA,NA,NA,NA,"","",1,1,"2024-08-23_19h38.02.637","IAT(Formal)","2021.2.3","Win32",120.875136,"",NA,"",NA,NA,NA,NA,NA,NA,NA,"","","",NA,"i",1,0.5286,NA,NA,NA,NA,NA,"其他","i","",NA,1,69,149,59,1,"",NA,"",NA,NA,NA,NA,NA,NA,NA,"",NA,"",NA,NA,NA,NA,NA,NA,NA,"","","",NA,"",NA,NA,NA,NA,NA,NA,NA,"",NA,"14"
"",NA,"",NA,"",NA,NA,NA,NA,NA,NA,NA,"","",1,1,"2024-08-23_19h38.02.637","IAT(Formal)","2021.2.3","Win32",120.875136,"",NA,"",NA,NA,NA,NA,NA,NA,NA,"","","",NA,"e",1,0.4823,NA,NA,NA,NA,NA,"我的","e","",NA,1,70,150,1,1,"",NA,"",NA,NA,NA,NA,NA,NA,NA,"",NA,"",NA,NA,NA,NA,NA,NA,NA,"","","",NA,"",NA,NA,NA,NA,NA,NA,NA,"",NA,"14"
"",NA,"",NA,"",NA,NA,NA,NA,NA,NA,NA,"","",1,1,"2024-08-23_19h38.02.637","IAT(Formal)","2021.2.3","Win32",120.875136,"",NA,"",NA,NA,NA,NA,NA,NA,NA,"","","",NA,"e",1,0.5029,NA,NA,NA,NA,NA,"杰出","e","",NA,1,71,151,13,1,"",NA,"",NA,NA,NA,NA,NA,NA,NA,"",NA,"",NA,NA,NA,NA,NA,NA,NA,"","","",NA,"",NA,NA,NA,NA,NA,NA,NA,"",NA,"14"
"",NA,"",NA,"",NA,NA,NA,NA,NA,NA,NA,"","",1,1,"2024-08-23_19h38.02.637","IAT(Formal)","2021.2.3","Win32",120.875136,"",NA,"",NA,NA,NA,NA,NA,NA,NA,"","","",NA,"e",1,0.5342,NA,NA,NA,NA,NA,"优秀","e","",NA,1,72,152,10,1,"",NA,"",NA,NA,NA,NA,NA,NA,NA,"",NA,"",NA,NA,NA,NA,NA,NA,NA,"","","",NA,"",NA,NA,NA,NA,NA,NA,NA,"",NA,"14"
"",NA,"",NA,"",NA,NA,NA,NA,NA,NA,NA,"","",1,1,"2024-08-23_19h38.02.637","IAT(Formal)","2021.2.3","Win32",120.875136,"",NA,"",NA,NA,NA,NA,NA,NA,NA,"","","",NA,"i",1,0.4813,NA,NA,NA,NA,NA,"野蛮","i","",NA,1,73,153,46,1,"",NA,"",NA,NA,NA,NA,NA,NA,NA,"",NA,"",NA,NA,NA,NA,NA,NA,NA,"","","",NA,"",NA,NA,NA,NA,NA,NA,NA,"",NA,"14"
"",NA,"",NA,"",NA,NA,NA,NA,NA,NA,NA,"","",1,1,"2024-08-23_19h38.02.637","IAT(Formal)","2021.2.3","Win32",120.875136,"",NA,"",NA,NA,NA,NA,NA,NA,NA,"","","",NA,"e",1,0.4571,NA,NA,NA,NA,NA,"自己","e","",NA,1,74,154,73,1,"",NA,"",NA,NA,NA,NA,NA,NA,NA,"",NA,"",NA,NA,NA,NA,NA,NA,NA,"","","",NA,"",NA,NA,NA,NA,NA,NA,NA,"",NA,"14"
"",NA,"",NA,"",NA,NA,NA,NA,NA,NA,NA,"","",1,1,"2024-08-23_19h38.02.637","IAT(Formal)","2021.2.3","Win32",120.875136,"",NA,"",NA,NA,NA,NA,NA,NA,NA,"","","",NA,"e",1,0.4244,NA,NA,NA,NA,NA,"我的","e","",NA,1,75,155,71,1,"",NA,"",NA,NA,NA,NA,NA,NA,NA,"",NA,"",NA,NA,NA,NA,NA,NA,NA,"","","",NA,"",NA,NA,NA,NA,NA,NA,NA,"",NA,"14"
"",NA,"",NA,"",NA,NA,NA,NA,NA,NA,NA,"","",1,1,"2024-08-23_19h38.02.637","IAT(Formal)","2021.2.3","Win32",120.875136,"",NA,"",NA,NA,NA,NA,NA,NA,NA,"","","",NA,"e",1,0.5294,NA,NA,NA,NA,NA,"诚恳","e","",NA,1,76,156,29,1,"",NA,"",NA,NA,NA,NA,NA,NA,NA,"",NA,"",NA,NA,NA,NA,NA,NA,NA,"","","",NA,"",NA,NA,NA,NA,NA,NA,NA,"",NA,"14"
"",NA,"",NA,"",NA,NA,NA,NA,NA,NA,NA,"","",1,1,"2024-08-23_19h38.02.637","IAT(Formal)","2021.2.3","Win32",120.875136,"",NA,"",NA,NA,NA,NA,NA,NA,NA,"","","",NA,"i",1,0.5598,NA,NA,NA,NA,NA,"其他","i","",NA,1,77,157,9,1,"",NA,"",NA,NA,NA,NA,NA,NA,NA,"",NA,"",NA,NA,NA,NA,NA,NA,NA,"","","",NA,"",NA,NA,NA,NA,NA,NA,NA,"",NA,"14"
"",NA,"",NA,"",NA,NA,NA,NA,NA,NA,NA,"","",1,1,"2024-08-23_19h38.02.637","IAT(Formal)","2021.2.3","Win32",120.875136,"",NA,"",NA,NA,NA,NA,NA,NA,NA,"","","",NA,"e",1,0.5078,NA,NA,NA,NA,NA,"冷静","e","",NA,1,78,158,26,1,"",NA,"",NA,NA,NA,NA,NA,NA,NA,"",NA,"",NA,NA,NA,NA,NA,NA,NA,"","","",NA,"",NA,NA,NA,NA,NA,NA,NA,"",NA,"14"
"",NA,"",NA,"",NA,NA,NA,NA,NA,NA,NA,"","",1,1,"2024-08-23_19h38.02.637","IAT(Formal)","2021.2.3","Win32",120.875136,"",NA,"",NA,NA,NA,NA,NA,NA,NA,"","","",NA,"e",1,0.6327,NA,NA,NA,NA,NA,"朴实","e","",NA,1,79,159,24,1,"",NA,"",NA,NA,NA,NA,NA,NA,NA,"",NA,"",NA,NA,NA,NA,NA,NA,NA,"","","",NA,"",NA,NA,NA,NA,NA,NA,NA,"",NA,"14"
"",NA,"",NA,"",NA,NA,NA,NA,NA,NA,NA,"俺","i",1,1,"2024-08-23_19h38.02.637","IAT(Formal)","2021.2.3","Win32",120.875136,"",NA,"",NA,NA,NA,NA,NA,NA,NA,"","","",NA,"",NA,NA,NA,NA,NA,NA,NA,"","","",NA,NA,NA,NA,NA,NA,"space",92.3832,"e",0,0.559,0,0,0,4,1,"",NA,"",NA,NA,NA,NA,NA,NA,NA,"","","",NA,"",NA,NA,NA,NA,NA,NA,NA,"",NA,"14"
"",NA,"",NA,"",NA,NA,NA,NA,NA,NA,NA,"他人","e",1,1,"2024-08-23_19h38.02.637","IAT(Formal)","2021.2.3","Win32",120.875136,"",NA,"",NA,NA,NA,NA,NA,NA,NA,"","","",NA,"",NA,NA,NA,NA,NA,NA,NA,"","","",NA,NA,NA,NA,NA,NA,"",NA,"i",0,0.7068,0,1,1,8,1,"",NA,"",NA,NA,NA,NA,NA,NA,NA,"","","",NA,"",NA,NA,NA,NA,NA,NA,NA,"",NA,"14"
"",NA,"",NA,"",NA,NA,NA,NA,NA,NA,NA,"他们","e",1,1,"2024-08-23_19h38.02.637","IAT(Formal)","2021.2.3","Win32",120.875136,"",NA,"",NA,NA,NA,NA,NA,NA,NA,"","","",NA,"",NA,NA,NA,NA,NA,NA,NA,"","","",NA,NA,NA,NA,NA,NA,"",NA,"e",1,0.6818,0,2,2,6,1,"",NA,"",NA,NA,NA,NA,NA,NA,NA,"","","",NA,"",NA,NA,NA,NA,NA,NA,NA,"",NA,"14"
"",NA,"",NA,"",NA,NA,NA,NA,NA,NA,NA,"其他","e",1,1,"2024-08-23_19h38.02.637","IAT(Formal)","2021.2.3","Win32",120.875136,"",NA,"",NA,NA,NA,NA,NA,NA,NA,"","","",NA,"",NA,NA,NA,NA,NA,NA,NA,"","","",NA,NA,NA,NA,NA,NA,"",NA,"e",1,0.4907,0,3,3,9,1,"",NA,"",NA,NA,NA,NA,NA,NA,NA,"","","",NA,"",NA,NA,NA,NA,NA,NA,NA,"",NA,"14"
"",NA,"",NA,"",NA,NA,NA,NA,NA,NA,NA,"他的","e",1,1,"2024-08-23_19h38.02.637","IAT(Formal)","2021.2.3","Win32",120.875136,"",NA,"",NA,NA,NA,NA,NA,NA,NA,"","","",NA,"",NA,NA,NA,NA,NA,NA,NA,"","","",NA,NA,NA,NA,NA,NA,"",NA,"e",1,0.4921,0,4,4,7,1,"",NA,"",NA,NA,NA,NA,NA,NA,NA,"","","",NA,"",NA,NA,NA,NA,NA,NA,NA,"",NA,"14"
"",NA,"",NA,"",NA,NA,NA,NA,NA,NA,NA,"他","e",1,1,"2024-08-23_19h38.02.637","IAT(Formal)","2021.2.3","Win32",120.875136,"",NA,"",NA,NA,NA,NA,NA,NA,NA,"","","",NA,"",NA,NA,NA,NA,NA,NA,NA,"","","",NA,NA,NA,NA,NA,NA,"",NA,"e",1,0.3954,0,5,5,5,1,"",NA,"",NA,NA,NA,NA,NA,NA,NA,"","","",NA,"",NA,NA,NA,NA,NA,NA,NA,"",NA,"14"
"",NA,"",NA,"",NA,NA,NA,NA,NA,NA,NA,"我的","i",1,1,"2024-08-23_19h38.02.637","IAT(Formal)","2021.2.3","Win32",120.875136,"",NA,"",NA,NA,NA,NA,NA,NA,NA,"","","",NA,"",NA,NA,NA,NA,NA,NA,NA,"","","",NA,NA,NA,NA,NA,NA,"",NA,"i",1,0.4186,0,6,6,1,1,"",NA,"",NA,NA,NA,NA,NA,NA,NA,"","","",NA,"",NA,NA,NA,NA,NA,NA,NA,"",NA,"14"
"",NA,"",NA,"",NA,NA,NA,NA,NA,NA,NA,"我","i",1,1,"2024-08-23_19h38.02.637","IAT(Formal)","2021.2.3","Win32",120.875136,"",NA,"",NA,NA,NA,NA,NA,NA,NA,"","","",NA,"",NA,NA,NA,NA,NA,NA,NA,"","","",NA,NA,NA,NA,NA,NA,"",NA,"i",1,0.3355,0,7,7,0,1,"",NA,"",NA,NA,NA,NA,NA,NA,NA,"","","",NA,"",NA,NA,NA,NA,NA,NA,NA,"",NA,"14"
"",NA,"",NA,"",NA,NA,NA,NA,NA,NA,NA,"我们","i",1,1,"2024-08-23_19h38.02.637","IAT(Formal)","2021.2.3","Win32",120.875136,"",NA,"",NA,NA,NA,NA,NA,NA,NA,"","","",NA,"",NA,NA,NA,NA,NA,NA,NA,"","","",NA,NA,NA,NA,NA,NA,"",NA,"i",1,0.3843,0,8,8,2,1,"",NA,"",NA,NA,NA,NA,NA,NA,NA,"","","",NA,"",NA,NA,NA,NA,NA,NA,NA,"",NA,"14"
"",NA,"",NA,"",NA,NA,NA,NA,NA,NA,NA,"自己","i",1,1,"2024-08-23_19h38.02.637","IAT(Formal)","2021.2.3","Win32",120.875136,"",NA,"",NA,NA,NA,NA,NA,NA,NA,"","","",NA,"",NA,NA,NA,NA,NA,NA,NA,"","","",NA,NA,NA,NA,NA,NA,"",NA,"i",1,0.545,0,9,9,3,1,"",NA,"",NA,NA,NA,NA,NA,NA,NA,"","","",NA,"",NA,NA,NA,NA,NA,NA,NA,"",NA,"14"
"",NA,"",NA,"",NA,NA,NA,NA,NA,NA,NA,"","",1,1,"2024-08-23_19h38.02.637","IAT(Formal)","2021.2.3","Win32",120.875136,"",NA,"",NA,NA,NA,NA,NA,NA,NA,"","","",NA,"",NA,NA,NA,NA,NA,NA,NA,"","","",NA,NA,NA,NA,NA,NA,"",NA,"",NA,NA,NA,NA,NA,NA,NA,"space",5.9383,"e",1,0.6331,0,0,0,8,1,"他人","e","",NA,"",NA,NA,NA,NA,NA,NA,NA,"",NA,"14"
"",NA,"",NA,"",NA,NA,NA,NA,NA,NA,NA,"","",1,1,"2024-08-23_19h38.02.637","IAT(Formal)","2021.2.3","Win32",120.875136,"",NA,"",NA,NA,NA,NA,NA,NA,NA,"","","",NA,"",NA,NA,NA,NA,NA,NA,NA,"","","",NA,NA,NA,NA,NA,NA,"",NA,"",NA,NA,NA,NA,NA,NA,NA,"",NA,"i",1,0.4051,0,1,1,50,1,"我","i","",NA,"",NA,NA,NA,NA,NA,NA,NA,"",NA,"14"
"",NA,"",NA,"",NA,NA,NA,NA,NA,NA,NA,"","",1,1,"2024-08-23_19h38.02.637","IAT(Formal)","2021.2.3","Win32",120.875136,"",NA,"",NA,NA,NA,NA,NA,NA,NA,"","","",NA,"",NA,NA,NA,NA,NA,NA,NA,"","","",NA,NA,NA,NA,NA,NA,"",NA,"",NA,NA,NA,NA,NA,NA,NA,"",NA,"e",1,0.5783,0,2,2,11,1,"崇高","e","",NA,"",NA,NA,NA,NA,NA,NA,NA,"",NA,"14"
"",NA,"",NA,"",NA,NA,NA,NA,NA,NA,NA,"","",1,1,"2024-08-23_19h38.02.637","IAT(Formal)","2021.2.3","Win32",120.875136,"",NA,"",NA,NA,NA,NA,NA,NA,NA,"","","",NA,"",NA,NA,NA,NA,NA,NA,NA,"","","",NA,NA,NA,NA,NA,NA,"",NA,"",NA,NA,NA,NA,NA,NA,NA,"",NA,"i",1,0.5706,0,3,3,32,1,"愚蠢","i","",NA,"",NA,NA,NA,NA,NA,NA,NA,"",NA,"14"
"",NA,"",NA,"",NA,NA,NA,NA,NA,NA,NA,"","",1,1,"2024-08-23_19h38.02.637","IAT(Formal)","2021.2.3","Win32",120.875136,"",NA,"",NA,NA,NA,NA,NA,NA,NA,"","","",NA,"",NA,NA,NA,NA,NA,NA,NA,"","","",NA,NA,NA,NA,NA,NA,"",NA,"",NA,NA,NA,NA,NA,NA,NA,"",NA,"e",1,1.2238,0,4,4,24,1,"朴实","e","",NA,"",NA,NA,NA,NA,NA,NA,NA,"",NA,"14"
"",NA,"",NA,"",NA,NA,NA,NA,NA,NA,NA,"","",1,1,"2024-08-23_19h38.02.637","IAT(Formal)","2021.2.3","Win32",120.875136,"",NA,"",NA,NA,NA,NA,NA,NA,NA,"","","",NA,"",NA,NA,NA,NA,NA,NA,NA,"","","",NA,NA,NA,NA,NA,NA,"",NA,"",NA,NA,NA,NA,NA,NA,NA,"",NA,"e",1,0.5825,0,5,5,18,1,"勤奋","e","",NA,"",NA,NA,NA,NA,NA,NA,NA,"",NA,"14"
