﻿Instruction1.keys,Instruction1.rt,Instruction2.keys,Instruction2.rt,key_resp_iso.keys,key_resp_iso.corr,key_resp_iso.rt,Practice_01.thisRepN,Practice_01.thisTrialN,Practice_01.thisN,Practice_01.thisIndex,Practice_01.ran,Words,ans,participant,session,date,expName,psychopyVersion,OS,frameRate,key_resp_3.keys,key_resp_3.rt,key_resp_ipn.keys,key_resp_ipn.corr,key_resp_ipn.rt,Practice_02.thisRepN,Practice_02.thisTrialN,Practice_02.thisN,Practice_02.thisIndex,Practice_02.ran,Words_ipn,ans_ipn,key_resp_4.keys,key_resp_4.rt,key_resp_t1.keys,key_resp_t1.corr,key_resp_t1.rt,Practice_T1.thisRepN,Practice_T1.thisTrialN,Practice_T1.thisN,Practice_T1.thisIndex,Practice_T1.ran,Words_t1,ans_t1,key_resp_5.keys,key_resp_5.rt,Formal_T1.thisRepN,Formal_T1.thisTrialN,Formal_T1.thisN,Formal_T1.thisIndex,Formal_T1.ran,key_resp_6.keys,key_resp_6.rt,key_resp_iso_reverse.keys,key_resp_iso_reverse.corr,key_resp_iso_reverse.rt,Practice_iso_Reverse.thisRepN,Practice_iso_Reverse.thisTrialN,Practice_iso_Reverse.thisN,Practice_iso_Reverse.thisIndex,Practice_iso_Reverse.ran,key_resp_7.keys,key_resp_7.rt,key_resp_t2_Practice.keys,key_resp_t2_Practice.corr,key_resp_t2_Practice.rt,Practice_t2_Reverse.thisRepN,Practice_t2_Reverse.thisTrialN,Practice_t2_Reverse.thisN,Practice_t2_Reverse.thisIndex,Practice_t2_Reverse.ran,Words_t2,ans_t2,key_resp_8.keys,key_resp_8.rt,key_resp_t2.keys,key_resp_t2.corr,key_resp_t2.rt,Formal_t2_reverse.thisRepN,Formal_t2_reverse.thisTrialN,Formal_t2_reverse.thisN,Formal_t2_reverse.thisIndex,Formal_t2_reverse.ran,key_instruct.keys,key_instruct.rt
space,6.2245,space,143.2054,i,1,0.6403,0,0,0,8,1,他人,i,1,001,2024-08-23_20h06.22.701,IAT(Formal),2021.2.3,Win32,59.52380952,,,,,,,,,,,,,,,,,,,,,,,,,,,,,,,,,,,,,,,,,,,,,,,,,,,,,,,,,,,,,,,,,
,,,,e,1,0.4026,0,1,1,1,1,我的,e,1,001,2024-08-23_20h06.22.701,IAT(Formal),2021.2.3,Win32,59.52380952,,,,,,,,,,,,,,,,,,,,,,,,,,,,,,,,,,,,,,,,,,,,,,,,,,,,,,,,,,,,,,,,,
,,,,e,1,0.4553,0,2,2,2,1,我们,e,1,001,2024-08-23_20h06.22.701,IAT(Formal),2021.2.3,Win32,59.52380952,,,,,,,,,,,,,,,,,,,,,,,,,,,,,,,,,,,,,,,,,,,,,,,,,,,,,,,,,,,,,,,,,
,,,,i,1,0.6948,0,3,3,5,1,他,i,1,001,2024-08-23_20h06.22.701,IAT(Formal),2021.2.3,Win32,59.52380952,,,,,,,,,,,,,,,,,,,,,,,,,,,,,,,,,,,,,,,,,,,,,,,,,,,,,,,,,,,,,,,,,
,,,,i,0,0.5153,0,4,4,4,1,俺,e,1,001,2024-08-23_20h06.22.701,IAT(Formal),2021.2.3,Win32,59.52380952,,,,,,,,,,,,,,,,,,,,,,,,,,,,,,,,,,,,,,,,,,,,,,,,,,,,,,,,,,,,,,,,,
,,,,i,1,0.5658,0,5,5,7,1,他的,i,1,001,2024-08-23_20h06.22.701,IAT(Formal),2021.2.3,Win32,59.52380952,,,,,,,,,,,,,,,,,,,,,,,,,,,,,,,,,,,,,,,,,,,,,,,,,,,,,,,,,,,,,,,,,
,,,,i,1,0.5339,0,6,6,6,1,他们,i,1,001,2024-08-23_20h06.22.701,IAT(Formal),2021.2.3,Win32,59.52380952,,,,,,,,,,,,,,,,,,,,,,,,,,,,,,,,,,,,,,,,,,,,,,,,,,,,,,,,,,,,,,,,,
,,,,e,1,0.4431,0,7,7,3,1,自己,e,1,001,2024-08-23_20h06.22.701,IAT(Formal),2021.2.3,Win32,59.52380952,,,,,,,,,,,,,,,,,,,,,,,,,,,,,,,,,,,,,,,,,,,,,,,,,,,,,,,,,,,,,,,,,
,,,,i,1,0.5336,0,8,8,9,1,其他,i,1,001,2024-08-23_20h06.22.701,IAT(Formal),2021.2.3,Win32,59.52380952,,,,,,,,,,,,,,,,,,,,,,,,,,,,,,,,,,,,,,,,,,,,,,,,,,,,,,,,,,,,,,,,,
,,,,e,1,0.4451,0,9,9,0,1,我,e,1,001,2024-08-23_20h06.22.701,IAT(Formal),2021.2.3,Win32,59.52380952,,,,,,,,,,,,,,,,,,,,,,,,,,,,,,,,,,,,,,,,,,,,,,,,,,,,,,,,,,,,,,,,,
,,,,,,,,,,,,,,1,001,2024-08-23_20h06.22.701,IAT(Formal),2021.2.3,Win32,59.52380952,space,4.6801,e,1,0.4936,0,0,0,10,1,认真,e,,,,,,,,,,,,,,,,,,,,,,,,,,,,,,,,,,,,,,,,,,,,,,,,,,,,,
,,,,,,,,,,,,,,1,001,2024-08-23_20h06.22.701,IAT(Formal),2021.2.3,Win32,59.52380952,,,i,0,0.3884,0,1,1,14,1,朴实,e,,,,,,,,,,,,,,,,,,,,,,,,,,,,,,,,,,,,,,,,,,,,,,,,,,,,,
,,,,,,,,,,,,,,1,001,2024-08-23_20h06.22.701,IAT(Formal),2021.2.3,Win32,59.52380952,,,i,1,0.5485,0,2,2,35,1,猖狂,i,,,,,,,,,,,,,,,,,,,,,,,,,,,,,,,,,,,,,,,,,,,,,,,,,,,,,
,,,,,,,,,,,,,,1,001,2024-08-23_20h06.22.701,IAT(Formal),2021.2.3,Win32,59.52380952,,,e,1,0.5196,0,3,3,19,1,诚恳,e,,,,,,,,,,,,,,,,,,,,,,,,,,,,,,,,,,,,,,,,,,,,,,,,,,,,,
,,,,,,,,,,,,,,1,001,2024-08-23_20h06.22.701,IAT(Formal),2021.2.3,Win32,59.52380952,,,e,1,0.4811,0,4,4,18,1,活泼,e,,,,,,,,,,,,,,,,,,,,,,,,,,,,,,,,,,,,,,,,,,,,,,,,,,,,,
,,,,,,,,,,,,,,1,001,2024-08-23_20h06.22.701,IAT(Formal),2021.2.3,Win32,59.52380952,,,e,1,0.4814,0,5,5,8,1,勤奋,e,,,,,,,,,,,,,,,,,,,,,,,,,,,,,,,,,,,,,,,,,,,,,,,,,,,,,
,,,,,,,,,,,,,,1,001,2024-08-23_20h06.22.701,IAT(Formal),2021.2.3,Win32,59.52380952,,,e,1,0.5253,0,6,6,5,1,诚实,e,,,,,,,,,,,,,,,,,,,,,,,,,,,,,,,,,,,,,,,,,,,,,,,,,,,,,
,,,,,,,,,,,,,,1,001,2024-08-23_20h06.22.701,IAT(Formal),2021.2.3,Win32,59.52380952,,,e,0,0.5697,0,7,7,23,1,刻薄,i,,,,,,,,,,,,,,,,,,,,,,,,,,,,,,,,,,,,,,,,,,,,,,,,,,,,,
,,,,,,,,,,,,,,1,001,2024-08-23_20h06.22.701,IAT(Formal),2021.2.3,Win32,59.52380952,,,e,1,0.4606,0,8,8,4,1,乐观,e,,,,,,,,,,,,,,,,,,,,,,,,,,,,,,,,,,,,,,,,,,,,,,,,,,,,,
,,,,,,,,,,,,,,1,001,2024-08-23_20h06.22.701,IAT(Formal),2021.2.3,Win32,59.52380952,,,i,1,0.5799,0,9,9,25,1,消极,i,,,,,,,,,,,,,,,,,,,,,,,,,,,,,,,,,,,,,,,,,,,,,,,,,,,,,
,,,,,,,,,,,,,,1,001,2024-08-23_20h06.22.701,IAT(Formal),2021.2.3,Win32,59.52380952,,,i,1,0.4371,0,10,10,27,1,傲慢,i,,,,,,,,,,,,,,,,,,,,,,,,,,,,,,,,,,,,,,,,,,,,,,,,,,,,,
,,,,,,,,,,,,,,1,001,2024-08-23_20h06.22.701,IAT(Formal),2021.2.3,Win32,59.52380952,,,i,0,0.5246,0,11,11,12,1,无私,e,,,,,,,,,,,,,,,,,,,,,,,,,,,,,,,,,,,,,,,,,,,,,,,,,,,,,
,,,,,,,,,,,,,,1,001,2024-08-23_20h06.22.701,IAT(Formal),2021.2.3,Win32,59.52380952,,,i,1,0.5378,0,12,12,33,1,自私,i,,,,,,,,,,,,,,,,,,,,,,,,,,,,,,,,,,,,,,,,,,,,,,,,,,,,,
,,,,,,,,,,,,,,1,001,2024-08-23_20h06.22.701,IAT(Formal),2021.2.3,Win32,59.52380952,,,e,0,0.5026,0,13,13,29,1,冒失,i,,,,,,,,,,,,,,,,,,,,,,,,,,,,,,,,,,,,,,,,,,,,,,,,,,,,,
,,,,,,,,,,,,,,1,001,2024-08-23_20h06.22.701,IAT(Formal),2021.2.3,Win32,59.52380952,,,i,1,0.45,0,14,14,32,1,凶狠,i,,,,,,,,,,,,,,,,,,,,,,,,,,,,,,,,,,,,,,,,,,,,,,,,,,,,,
,,,,,,,,,,,,,,1,001,2024-08-23_20h06.22.701,IAT(Formal),2021.2.3,Win32,59.52380952,,,i,1,0.5177,0,15,15,20,1,卑鄙,i,,,,,,,,,,,,,,,,,,,,,,,,,,,,,,,,,,,,,,,,,,,,,,,,,,,,,
,,,,,,,,,,,,,,1,001,2024-08-23_20h06.22.701,IAT(Formal),2021.2.3,Win32,59.52380952,,,e,1,0.5695,0,16,16,16,1,冷静,e,,,,,,,,,,,,,,,,,,,,,,,,,,,,,,,,,,,,,,,,,,,,,,,,,,,,,
,,,,,,,,,,,,,,1,001,2024-08-23_20h06.22.701,IAT(Formal),2021.2.3,Win32,59.52380952,,,e,1,0.5042,0,17,17,17,1,热情,e,,,,,,,,,,,,,,,,,,,,,,,,,,,,,,,,,,,,,,,,,,,,,,,,,,,,,
,,,,,,,,,,,,,,1,001,2024-08-23_20h06.22.701,IAT(Formal),2021.2.3,Win32,59.52380952,,,e,1,0.4228,0,18,18,6,1,正直,e,,,,,,,,,,,,,,,,,,,,,,,,,,,,,,,,,,,,,,,,,,,,,,,,,,,,,
,,,,,,,,,,,,,,1,001,2024-08-23_20h06.22.701,IAT(Formal),2021.2.3,Win32,59.52380952,,,i,1,0.4894,0,19,19,36,1,野蛮,i,,,,,,,,,,,,,,,,,,,,,,,,,,,,,,,,,,,,,,,,,,,,,,,,,,,,,
,,,,,,,,,,,,,,1,001,2024-08-23_20h06.22.701,IAT(Formal),2021.2.3,Win32,59.52380952,,,e,1,0.4675,0,20,20,9,1,机智,e,,,,,,,,,,,,,,,,,,,,,,,,,,,,,,,,,,,,,,,,,,,,,,,,,,,,,
,,,,,,,,,,,,,,1,001,2024-08-23_20h06.22.701,IAT(Formal),2021.2.3,Win32,59.52380952,,,i,1,0.5239,0,21,21,28,1,鲁莽,i,,,,,,,,,,,,,,,,,,,,,,,,,,,,,,,,,,,,,,,,,,,,,,,,,,,,,
,,,,,,,,,,,,,,1,001,2024-08-23_20h06.22.701,IAT(Formal),2021.2.3,Win32,59.52380952,,,e,1,0.508,0,22,22,1,1,崇高,e,,,,,,,,,,,,,,,,,,,,,,,,,,,,,,,,,,,,,,,,,,,,,,,,,,,,,
,,,,,,,,,,,,,,1,001,2024-08-23_20h06.22.701,IAT(Formal),2021.2.3,Win32,59.52380952,,,e,1,0.5307,0,23,23,15,1,细腻,e,,,,,,,,,,,,,,,,,,,,,,,,,,,,,,,,,,,,,,,,,,,,,,,,,,,,,
,,,,,,,,,,,,,,1,001,2024-08-23_20h06.22.701,IAT(Formal),2021.2.3,Win32,59.52380952,,,i,1,0.4741,0,24,24,22,1,愚蠢,i,,,,,,,,,,,,,,,,,,,,,,,,,,,,,,,,,,,,,,,,,,,,,,,,,,,,,
,,,,,,,,,,,,,,1,001,2024-08-23_20h06.22.701,IAT(Formal),2021.2.3,Win32,59.52380952,,,e,1,0.4667,0,25,25,11,1,稳重,e,,,,,,,,,,,,,,,,,,,,,,,,,,,,,,,,,,,,,,,,,,,,,,,,,,,,,
,,,,,,,,,,,,,,1,001,2024-08-23_20h06.22.701,IAT(Formal),2021.2.3,Win32,59.52380952,,,i,1,0.4379,0,26,26,24,1,悲观,i,,,,,,,,,,,,,,,,,,,,,,,,,,,,,,,,,,,,,,,,,,,,,,,,,,,,,
,,,,,,,,,,,,,,1,001,2024-08-23_20h06.22.701,IAT(Formal),2021.2.3,Win32,59.52380952,,,i,1,0.4443,0,27,27,21,1,虚伪,i,,,,,,,,,,,,,,,,,,,,,,,,,,,,,,,,,,,,,,,,,,,,,,,,,,,,,
,,,,,,,,,,,,,,1,001,2024-08-23_20h06.22.701,IAT(Formal),2021.2.3,Win32,59.52380952,,,i,1,0.4601,0,28,28,26,1,自卑,i,,,,,,,,,,,,,,,,,,,,,,,,,,,,,,,,,,,,,,,,,,,,,,,,,,,,,
,,,,,,,,,,,,,,1,001,2024-08-23_20h06.22.701,IAT(Formal),2021.2.3,Win32,59.52380952,,,e,1,0.4465,0,29,29,13,1,公正,e,,,,,,,,,,,,,,,,,,,,,,,,,,,,,,,,,,,,,,,,,,,,,,,,,,,,,
,,,,,,,,,,,,,,1,001,2024-08-23_20h06.22.701,IAT(Formal),2021.2.3,Win32,59.52380952,,,e,0,0.52,0,30,30,30,1,执拗,i,,,,,,,,,,,,,,,,,,,,,,,,,,,,,,,,,,,,,,,,,,,,,,,,,,,,,
,,,,,,,,,,,,,,1,001,2024-08-23_20h06.22.701,IAT(Formal),2021.2.3,Win32,59.52380952,,,i,1,0.5622,0,31,31,39,1,下贱,i,,,,,,,,,,,,,,,,,,,,,,,,,,,,,,,,,,,,,,,,,,,,,,,,,,,,,
,,,,,,,,,,,,,,1,001,2024-08-23_20h06.22.701,IAT(Formal),2021.2.3,Win32,59.52380952,,,e,1,0.5385,0,32,32,0,1,优秀,e,,,,,,,,,,,,,,,,,,,,,,,,,,,,,,,,,,,,,,,,,,,,,,,,,,,,,
,,,,,,,,,,,,,,1,001,2024-08-23_20h06.22.701,IAT(Formal),2021.2.3,Win32,59.52380952,,,e,1,0.4684,0,33,33,2,1,聪明,e,,,,,,,,,,,,,,,,,,,,,,,,,,,,,,,,,,,,,,,,,,,,,,,,,,,,,
,,,,,,,,,,,,,,1,001,2024-08-23_20h06.22.701,IAT(Formal),2021.2.3,Win32,59.52380952,,,i,1,0.5303,0,34,34,38,1,轻率,i,,,,,,,,,,,,,,,,,,,,,,,,,,,,,,,,,,,,,,,,,,,,,,,,,,,,,
,,,,,,,,,,,,,,1,001,2024-08-23_20h06.22.701,IAT(Formal),2021.2.3,Win32,59.52380952,,,e,1,0.4926,0,35,35,3,1,杰出,e,,,,,,,,,,,,,,,,,,,,,,,,,,,,,,,,,,,,,,,,,,,,,,,,,,,,,
,,,,,,,,,,,,,,1,001,2024-08-23_20h06.22.701,IAT(Formal),2021.2.3,Win32,59.52380952,,,e,0,0.4533,0,36,36,37,1,固执,i,,,,,,,,,,,,,,,,,,,,,,,,,,,,,,,,,,,,,,,,,,,,,,,,,,,,,
,,,,,,,,,,,,,,1,001,2024-08-23_20h06.22.701,IAT(Formal),2021.2.3,Win32,59.52380952,,,e,1,0.5184,0,37,37,7,1,勇敢,e,,,,,,,,,,,,,,,,,,,,,,,,,,,,,,,,,,,,,,,,,,,,,,,,,,,,,
,,,,,,,,,,,,,,1,001,2024-08-23_20h06.22.701,IAT(Formal),2021.2.3,Win32,59.52380952,,,i,1,0.5412,0,38,38,34,1,暴躁,i,,,,,,,,,,,,,,,,,,,,,,,,,,,,,,,,,,,,,,,,,,,,,,,,,,,,,
,,,,,,,,,,,,,,1,001,2024-08-23_20h06.22.701,IAT(Formal),2021.2.3,Win32,59.52380952,,,i,1,0.6661,0,39,39,31,1,散漫,i,,,,,,,,,,,,,,,,,,,,,,,,,,,,,,,,,,,,,,,,,,,,,,,,,,,,,
,,,,,,,,,,,,,,1,001,2024-08-23_20h06.22.701,IAT(Formal),2021.2.3,Win32,59.52380952,,,,,,,,,,,,,space,6.2249,i,1,0.6807,0,0,0,76,1,他们,i,,,,,,,,,,,,,,,,,,,,,,,,,,,,,,,,,,,,,,,,,
,,,,,,,,,,,,,,1,001,2024-08-23_20h06.22.701,IAT(Formal),2021.2.3,Win32,59.52380952,,,,,,,,,,,,,,,e,1,0.5806,0,1,1,15,1,诚实,e,,,,,,,,,,,,,,,,,,,,,,,,,,,,,,,,,,,,,,,,,
,,,,,,,,,,,,,,1,001,2024-08-23_20h06.22.701,IAT(Formal),2021.2.3,Win32,59.52380952,,,,,,,,,,,,,,,i,1,0.6137,0,2,2,33,1,刻薄,i,,,,,,,,,,,,,,,,,,,,,,,,,,,,,,,,,,,,,,,,,
,,,,,,,,,,,,,,1,001,2024-08-23_20h06.22.701,IAT(Formal),2021.2.3,Win32,59.52380952,,,,,,,,,,,,,,,i,1,0.5761,0,3,3,8,1,他人,i,,,,,,,,,,,,,,,,,,,,,,,,,,,,,,,,,,,,,,,,,
,,,,,,,,,,,,,,1,001,2024-08-23_20h06.22.701,IAT(Formal),2021.2.3,Win32,59.52380952,,,,,,,,,,,,,,,e,1,0.5588,0,4,4,14,1,乐观,e,,,,,,,,,,,,,,,,,,,,,,,,,,,,,,,,,,,,,,,,,
,,,,,,,,,,,,,,1,001,2024-08-23_20h06.22.701,IAT(Formal),2021.2.3,Win32,59.52380952,,,,,,,,,,,,,,,e,1,0.5488,0,5,5,16,1,正直,e,,,,,,,,,,,,,,,,,,,,,,,,,,,,,,,,,,,,,,,,,
,,,,,,,,,,,,,,1,001,2024-08-23_20h06.22.701,IAT(Formal),2021.2.3,Win32,59.52380952,,,,,,,,,,,,,,,i,1,0.5643,0,6,6,41,1,散漫,i,,,,,,,,,,,,,,,,,,,,,,,,,,,,,,,,,,,,,,,,,
,,,,,,,,,,,,,,1,001,2024-08-23_20h06.22.701,IAT(Formal),2021.2.3,Win32,59.52380952,,,,,,,,,,,,,,,i,1,0.56,0,7,7,39,1,冒失,i,,,,,,,,,,,,,,,,,,,,,,,,,,,,,,,,,,,,,,,,,
,,,,,,,,,,,,,,1,001,2024-08-23_20h06.22.701,IAT(Formal),2021.2.3,Win32,59.52380952,,,,,,,,,,,,,,,i,1,0.502,0,8,8,38,1,鲁莽,i,,,,,,,,,,,,,,,,,,,,,,,,,,,,,,,,,,,,,,,,,
,,,,,,,,,,,,,,1,001,2024-08-23_20h06.22.701,IAT(Formal),2021.2.3,Win32,59.52380952,,,,,,,,,,,,,,,e,1,0.5608,0,9,9,20,1,认真,e,,,,,,,,,,,,,,,,,,,,,,,,,,,,,,,,,,,,,,,,,
,,,,,,,,,,,,,,1,001,2024-08-23_20h06.22.701,IAT(Formal),2021.2.3,Win32,59.52380952,,,,,,,,,,,,,,,i,0,0.5329,0,10,10,25,1,细腻,e,,,,,,,,,,,,,,,,,,,,,,,,,,,,,,,,,,,,,,,,,
,,,,,,,,,,,,,,1,001,2024-08-23_20h06.22.701,IAT(Formal),2021.2.3,Win32,59.52380952,,,,,,,,,,,,,,,e,1,0.5243,0,11,11,1,1,我的,e,,,,,,,,,,,,,,,,,,,,,,,,,,,,,,,,,,,,,,,,,
,,,,,,,,,,,,,,1,001,2024-08-23_20h06.22.701,IAT(Formal),2021.2.3,Win32,59.52380952,,,,,,,,,,,,,,,e,1,0.4062,0,12,12,51,1,我的,e,,,,,,,,,,,,,,,,,,,,,,,,,,,,,,,,,,,,,,,,,
,,,,,,,,,,,,,,1,001,2024-08-23_20h06.22.701,IAT(Formal),2021.2.3,Win32,59.52380952,,,,,,,,,,,,,,,i,1,0.5305,0,13,13,68,1,他人,i,,,,,,,,,,,,,,,,,,,,,,,,,,,,,,,,,,,,,,,,,
,,,,,,,,,,,,,,1,001,2024-08-23_20h06.22.701,IAT(Formal),2021.2.3,Win32,59.52380952,,,,,,,,,,,,,,,i,1,0.598,0,14,14,31,1,虚伪,i,,,,,,,,,,,,,,,,,,,,,,,,,,,,,,,,,,,,,,,,,
,,,,,,,,,,,,,,1,001,2024-08-23_20h06.22.701,IAT(Formal),2021.2.3,Win32,59.52380952,,,,,,,,,,,,,,,e,1,0.642,0,15,15,64,1,俺,e,,,,,,,,,,,,,,,,,,,,,,,,,,,,,,,,,,,,,,,,,
,,,,,,,,,,,,,,1,001,2024-08-23_20h06.22.701,IAT(Formal),2021.2.3,Win32,59.52380952,,,,,,,,,,,,,,,e,1,0.4319,0,16,16,2,1,我们,e,,,,,,,,,,,,,,,,,,,,,,,,,,,,,,,,,,,,,,,,,
,,,,,,,,,,,,,,1,001,2024-08-23_20h06.22.701,IAT(Formal),2021.2.3,Win32,59.52380952,,,,,,,,,,,,,,,i,1,0.5207,0,17,17,45,1,猖狂,i,,,,,,,,,,,,,,,,,,,,,,,,,,,,,,,,,,,,,,,,,
,,,,,,,,,,,,,,1,001,2024-08-23_20h06.22.701,IAT(Formal),2021.2.3,Win32,59.52380952,,,,,,,,,,,,,,,e,1,0.545,0,18,18,19,1,机智,e,,,,,,,,,,,,,,,,,,,,,,,,,,,,,,,,,,,,,,,,,
,,,,,,,,,,,,,,1,001,2024-08-23_20h06.22.701,IAT(Formal),2021.2.3,Win32,59.52380952,,,,,,,,,,,,,,,e,0,0.6374,0,19,19,58,1,他人,i,,,,,,,,,,,,,,,,,,,,,,,,,,,,,,,,,,,,,,,,,
,,,,,,,,,,,,,,1,001,2024-08-23_20h06.22.701,IAT(Formal),2021.2.3,Win32,59.52380952,,,,,,,,,,,,,,,i,1,0.5978,0,20,20,35,1,消极,i,,,,,,,,,,,,,,,,,,,,,,,,,,,,,,,,,,,,,,,,,
,,,,,,,,,,,,,,1,001,2024-08-23_20h06.22.701,IAT(Formal),2021.2.3,Win32,59.52380952,,,,,,,,,,,,,,,i,1,0.4554,0,21,21,42,1,凶狠,i,,,,,,,,,,,,,,,,,,,,,,,,,,,,,,,,,,,,,,,,,
,,,,,,,,,,,,,,1,001,2024-08-23_20h06.22.701,IAT(Formal),2021.2.3,Win32,59.52380952,,,,,,,,,,,,,,,i,1,0.57,0,22,22,32,1,愚蠢,i,,,,,,,,,,,,,,,,,,,,,,,,,,,,,,,,,,,,,,,,,
,,,,,,,,,,,,,,1,001,2024-08-23_20h06.22.701,IAT(Formal),2021.2.3,Win32,59.52380952,,,,,,,,,,,,,,,e,1,0.567,0,23,23,54,1,俺,e,,,,,,,,,,,,,,,,,,,,,,,,,,,,,,,,,,,,,,,,,
,,,,,,,,,,,,,,1,001,2024-08-23_20h06.22.701,IAT(Formal),2021.2.3,Win32,59.52380952,,,,,,,,,,,,,,,i,1,0.5464,0,24,24,79,1,其他,i,,,,,,,,,,,,,,,,,,,,,,,,,,,,,,,,,,,,,,,,,
,,,,,,,,,,,,,,1,001,2024-08-23_20h06.22.701,IAT(Formal),2021.2.3,Win32,59.52380952,,,,,,,,,,,,,,,e,1,0.5629,0,25,25,3,1,自己,e,,,,,,,,,,,,,,,,,,,,,,,,,,,,,,,,,,,,,,,,,
,,,,,,,,,,,,,,1,001,2024-08-23_20h06.22.701,IAT(Formal),2021.2.3,Win32,59.52380952,,,,,,,,,,,,,,,e,1,0.5834,0,26,26,10,1,优秀,e,,,,,,,,,,,,,,,,,,,,,,,,,,,,,,,,,,,,,,,,,
,,,,,,,,,,,,,,1,001,2024-08-23_20h06.22.701,IAT(Formal),2021.2.3,Win32,59.52380952,,,,,,,,,,,,,,,e,1,0.5399,0,27,27,17,1,勇敢,e,,,,,,,,,,,,,,,,,,,,,,,,,,,,,,,,,,,,,,,,,
,,,,,,,,,,,,,,1,001,2024-08-23_20h06.22.701,IAT(Formal),2021.2.3,Win32,59.52380952,,,,,,,,,,,,,,,i,1,0.7157,0,28,28,55,1,他,i,,,,,,,,,,,,,,,,,,,,,,,,,,,,,,,,,,,,,,,,,
,,,,,,,,,,,,,,1,001,2024-08-23_20h06.22.701,IAT(Formal),2021.2.3,Win32,59.52380952,,,,,,,,,,,,,,,i,1,0.8837,0,29,29,47,1,固执,i,,,,,,,,,,,,,,,,,,,,,,,,,,,,,,,,,,,,,,,,,
,,,,,,,,,,,,,,1,001,2024-08-23_20h06.22.701,IAT(Formal),2021.2.3,Win32,59.52380952,,,,,,,,,,,,,,,i,1,0.588,0,30,30,77,1,他的,i,,,,,,,,,,,,,,,,,,,,,,,,,,,,,,,,,,,,,,,,,
,,,,,,,,,,,,,,1,001,2024-08-23_20h06.22.701,IAT(Formal),2021.2.3,Win32,59.52380952,,,,,,,,,,,,,,,i,1,0.466,0,31,31,7,1,他的,i,,,,,,,,,,,,,,,,,,,,,,,,,,,,,,,,,,,,,,,,,
,,,,,,,,,,,,,,1,001,2024-08-23_20h06.22.701,IAT(Formal),2021.2.3,Win32,59.52380952,,,,,,,,,,,,,,,e,1,0.5632,0,32,32,52,1,我们,e,,,,,,,,,,,,,,,,,,,,,,,,,,,,,,,,,,,,,,,,,
,,,,,,,,,,,,,,1,001,2024-08-23_20h06.22.701,IAT(Formal),2021.2.3,Win32,59.52380952,,,,,,,,,,,,,,,e,1,0.5504,0,33,33,70,1,我,e,,,,,,,,,,,,,,,,,,,,,,,,,,,,,,,,,,,,,,,,,
,,,,,,,,,,,,,,1,001,2024-08-23_20h06.22.701,IAT(Formal),2021.2.3,Win32,59.52380952,,,,,,,,,,,,,,,i,1,0.5832,0,34,34,67,1,他的,i,,,,,,,,,,,,,,,,,,,,,,,,,,,,,,,,,,,,,,,,,
,,,,,,,,,,,,,,1,001,2024-08-23_20h06.22.701,IAT(Formal),2021.2.3,Win32,59.52380952,,,,,,,,,,,,,,,e,1,0.5666,0,35,35,50,1,我,e,,,,,,,,,,,,,,,,,,,,,,,,,,,,,,,,,,,,,,,,,
,,,,,,,,,,,,,,1,001,2024-08-23_20h06.22.701,IAT(Formal),2021.2.3,Win32,59.52380952,,,,,,,,,,,,,,,i,1,0.633,0,36,36,9,1,其他,i,,,,,,,,,,,,,,,,,,,,,,,,,,,,,,,,,,,,,,,,,
,,,,,,,,,,,,,,1,001,2024-08-23_20h06.22.701,IAT(Formal),2021.2.3,Win32,59.52380952,,,,,,,,,,,,,,,e,1,0.6668,0,37,37,12,1,聪明,e,,,,,,,,,,,,,,,,,,,,,,,,,,,,,,,,,,,,,,,,,
,,,,,,,,,,,,,,1,001,2024-08-23_20h06.22.701,IAT(Formal),2021.2.3,Win32,59.52380952,,,,,,,,,,,,,,,e,1,0.5829,0,38,38,13,1,杰出,e,,,,,,,,,,,,,,,,,,,,,,,,,,,,,,,,,,,,,,,,,
,,,,,,,,,,,,,,1,001,2024-08-23_20h06.22.701,IAT(Formal),2021.2.3,Win32,59.52380952,,,,,,,,,,,,,,,i,1,0.5496,0,39,39,56,1,他们,i,,,,,,,,,,,,,,,,,,,,,,,,,,,,,,,,,,,,,,,,,
,,,,,,,,,,,,,,1,001,2024-08-23_20h06.22.701,IAT(Formal),2021.2.3,Win32,59.52380952,,,,,,,,,,,,,,,i,1,0.6667,0,40,40,46,1,野蛮,i,,,,,,,,,,,,,,,,,,,,,,,,,,,,,,,,,,,,,,,,,
,,,,,,,,,,,,,,1,001,2024-08-23_20h06.22.701,IAT(Formal),2021.2.3,Win32,59.52380952,,,,,,,,,,,,,,,e,1,0.5502,0,41,41,53,1,自己,e,,,,,,,,,,,,,,,,,,,,,,,,,,,,,,,,,,,,,,,,,
,,,,,,,,,,,,,,1,001,2024-08-23_20h06.22.701,IAT(Formal),2021.2.3,Win32,59.52380952,,,,,,,,,,,,,,,e,1,0.6666,0,42,42,26,1,冷静,e,,,,,,,,,,,,,,,,,,,,,,,,,,,,,,,,,,,,,,,,,
,,,,,,,,,,,,,,1,001,2024-08-23_20h06.22.701,IAT(Formal),2021.2.3,Win32,59.52380952,,,,,,,,,,,,,,,e,1,0.5667,0,43,43,60,1,我,e,,,,,,,,,,,,,,,,,,,,,,,,,,,,,,,,,,,,,,,,,
,,,,,,,,,,,,,,1,001,2024-08-23_20h06.22.701,IAT(Formal),2021.2.3,Win32,59.52380952,,,,,,,,,,,,,,,e,1,0.5162,0,44,44,62,1,我们,e,,,,,,,,,,,,,,,,,,,,,,,,,,,,,,,,,,,,,,,,,
,,,,,,,,,,,,,,1,001,2024-08-23_20h06.22.701,IAT(Formal),2021.2.3,Win32,59.52380952,,,,,,,,,,,,,,,i,1,0.5832,0,45,45,65,1,他,i,,,,,,,,,,,,,,,,,,,,,,,,,,,,,,,,,,,,,,,,,
,,,,,,,,,,,,,,1,001,2024-08-23_20h06.22.701,IAT(Formal),2021.2.3,Win32,59.52380952,,,,,,,,,,,,,,,e,1,0.5506,0,46,46,72,1,我们,e,,,,,,,,,,,,,,,,,,,,,,,,,,,,,,,,,,,,,,,,,
,,,,,,,,,,,,,,1,001,2024-08-23_20h06.22.701,IAT(Formal),2021.2.3,Win32,59.52380952,,,,,,,,,,,,,,,i,1,0.5338,0,47,47,66,1,他们,i,,,,,,,,,,,,,,,,,,,,,,,,,,,,,,,,,,,,,,,,,
,,,,,,,,,,,,,,1,001,2024-08-23_20h06.22.701,IAT(Formal),2021.2.3,Win32,59.52380952,,,,,,,,,,,,,,,i,1,0.5495,0,48,48,69,1,其他,i,,,,,,,,,,,,,,,,,,,,,,,,,,,,,,,,,,,,,,,,,
,,,,,,,,,,,,,,1,001,2024-08-23_20h06.22.701,IAT(Formal),2021.2.3,Win32,59.52380952,,,,,,,,,,,,,,,e,1,0.4999,0,49,49,73,1,自己,e,,,,,,,,,,,,,,,,,,,,,,,,,,,,,,,,,,,,,,,,,
,,,,,,,,,,,,,,1,001,2024-08-23_20h06.22.701,IAT(Formal),2021.2.3,Win32,59.52380952,,,,,,,,,,,,,,,i,1,0.5008,0,50,50,5,1,他,i,,,,,,,,,,,,,,,,,,,,,,,,,,,,,,,,,,,,,,,,,
,,,,,,,,,,,,,,1,001,2024-08-23_20h06.22.701,IAT(Formal),2021.2.3,Win32,59.52380952,,,,,,,,,,,,,,,e,1,0.633,0,51,51,74,1,俺,e,,,,,,,,,,,,,,,,,,,,,,,,,,,,,,,,,,,,,,,,,
,,,,,,,,,,,,,,1,001,2024-08-23_20h06.22.701,IAT(Formal),2021.2.3,Win32,59.52380952,,,,,,,,,,,,,,,e,1,0.5991,0,52,52,0,1,我,e,,,,,,,,,,,,,,,,,,,,,,,,,,,,,,,,,,,,,,,,,
,,,,,,,,,,,,,,1,001,2024-08-23_20h06.22.701,IAT(Formal),2021.2.3,Win32,59.52380952,,,,,,,,,,,,,,,e,1,0.6501,0,53,53,27,1,热情,e,,,,,,,,,,,,,,,,,,,,,,,,,,,,,,,,,,,,,,,,,
,,,,,,,,,,,,,,1,001,2024-08-23_20h06.22.701,IAT(Formal),2021.2.3,Win32,59.52380952,,,,,,,,,,,,,,,i,1,0.5997,0,54,54,59,1,其他,i,,,,,,,,,,,,,,,,,,,,,,,,,,,,,,,,,,,,,,,,,
,,,,,,,,,,,,,,1,001,2024-08-23_20h06.22.701,IAT(Formal),2021.2.3,Win32,59.52380952,,,,,,,,,,,,,,,e,1,0.5844,0,55,55,18,1,勤奋,e,,,,,,,,,,,,,,,,,,,,,,,,,,,,,,,,,,,,,,,,,
,,,,,,,,,,,,,,1,001,2024-08-23_20h06.22.701,IAT(Formal),2021.2.3,Win32,59.52380952,,,,,,,,,,,,,,,e,1,0.6832,0,56,56,29,1,诚恳,e,,,,,,,,,,,,,,,,,,,,,,,,,,,,,,,,,,,,,,,,,
,,,,,,,,,,,,,,1,001,2024-08-23_20h06.22.701,IAT(Formal),2021.2.3,Win32,59.52380952,,,,,,,,,,,,,,,i,1,0.7164,0,57,57,40,1,执拗,i,,,,,,,,,,,,,,,,,,,,,,,,,,,,,,,,,,,,,,,,,
,,,,,,,,,,,,,,1,001,2024-08-23_20h06.22.701,IAT(Formal),2021.2.3,Win32,59.52380952,,,,,,,,,,,,,,,i,1,0.5834,0,58,58,44,1,暴躁,i,,,,,,,,,,,,,,,,,,,,,,,,,,,,,,,,,,,,,,,,,
,,,,,,,,,,,,,,1,001,2024-08-23_20h06.22.701,IAT(Formal),2021.2.3,Win32,59.52380952,,,,,,,,,,,,,,,i,1,0.6332,0,59,59,37,1,傲慢,i,,,,,,,,,,,,,,,,,,,,,,,,,,,,,,,,,,,,,,,,,
,,,,,,,,,,,,,,1,001,2024-08-23_20h06.22.701,IAT(Formal),2021.2.3,Win32,59.52380952,,,,,,,,,,,,,,,i,1,0.6665,0,60,60,6,1,他们,i,,,,,,,,,,,,,,,,,,,,,,,,,,,,,,,,,,,,,,,,,
,,,,,,,,,,,,,,1,001,2024-08-23_20h06.22.701,IAT(Formal),2021.2.3,Win32,59.52380952,,,,,,,,,,,,,,,i,1,0.6496,0,61,61,34,1,悲观,i,,,,,,,,,,,,,,,,,,,,,,,,,,,,,,,,,,,,,,,,,
,,,,,,,,,,,,,,1,001,2024-08-23_20h06.22.701,IAT(Formal),2021.2.3,Win32,59.52380952,,,,,,,,,,,,,,,e,1,0.6668,0,62,62,21,1,稳重,e,,,,,,,,,,,,,,,,,,,,,,,,,,,,,,,,,,,,,,,,,
,,,,,,,,,,,,,,1,001,2024-08-23_20h06.22.701,IAT(Formal),2021.2.3,Win32,59.52380952,,,,,,,,,,,,,,,e,1,0.7158,0,63,63,24,1,朴实,e,,,,,,,,,,,,,,,,,,,,,,,,,,,,,,,,,,,,,,,,,
,,,,,,,,,,,,,,1,001,2024-08-23_20h06.22.701,IAT(Formal),2021.2.3,Win32,59.52380952,,,,,,,,,,,,,,,i,1,0.5831,0,64,64,49,1,下贱,i,,,,,,,,,,,,,,,,,,,,,,,,,,,,,,,,,,,,,,,,,
,,,,,,,,,,,,,,1,001,2024-08-23_20h06.22.701,IAT(Formal),2021.2.3,Win32,59.52380952,,,,,,,,,,,,,,,e,1,0.6498,0,65,65,71,1,我的,e,,,,,,,,,,,,,,,,,,,,,,,,,,,,,,,,,,,,,,,,,
,,,,,,,,,,,,,,1,001,2024-08-23_20h06.22.701,IAT(Formal),2021.2.3,Win32,59.52380952,,,,,,,,,,,,,,,e,1,0.6168,0,66,66,11,1,崇高,e,,,,,,,,,,,,,,,,,,,,,,,,,,,,,,,,,,,,,,,,,
,,,,,,,,,,,,,,1,001,2024-08-23_20h06.22.701,IAT(Formal),2021.2.3,Win32,59.52380952,,,,,,,,,,,,,,,i,0,0.6667,0,67,67,63,1,自己,e,,,,,,,,,,,,,,,,,,,,,,,,,,,,,,,,,,,,,,,,,
,,,,,,,,,,,,,,1,001,2024-08-23_20h06.22.701,IAT(Formal),2021.2.3,Win32,59.52380952,,,,,,,,,,,,,,,e,1,0.6163,0,68,68,23,1,公正,e,,,,,,,,,,,,,,,,,,,,,,,,,,,,,,,,,,,,,,,,,
,,,,,,,,,,,,,,1,001,2024-08-23_20h06.22.701,IAT(Formal),2021.2.3,Win32,59.52380952,,,,,,,,,,,,,,,i,1,0.6498,0,69,69,48,1,轻率,i,,,,,,,,,,,,,,,,,,,,,,,,,,,,,,,,,,,,,,,,,
,,,,,,,,,,,,,,1,001,2024-08-23_20h06.22.701,IAT(Formal),2021.2.3,Win32,59.52380952,,,,,,,,,,,,,,,i,1,0.9663,0,70,70,78,1,他人,i,,,,,,,,,,,,,,,,,,,,,,,,,,,,,,,,,,,,,,,,,
,,,,,,,,,,,,,,1,001,2024-08-23_20h06.22.701,IAT(Formal),2021.2.3,Win32,59.52380952,,,,,,,,,,,,,,,i,1,0.649,0,71,71,36,1,自卑,i,,,,,,,,,,,,,,,,,,,,,,,,,,,,,,,,,,,,,,,,,
,,,,,,,,,,,,,,1,001,2024-08-23_20h06.22.701,IAT(Formal),2021.2.3,Win32,59.52380952,,,,,,,,,,,,,,,e,1,0.6495,0,72,72,28,1,活泼,e,,,,,,,,,,,,,,,,,,,,,,,,,,,,,,,,,,,,,,,,,
,,,,,,,,,,,,,,1,001,2024-08-23_20h06.22.701,IAT(Formal),2021.2.3,Win32,59.52380952,,,,,,,,,,,,,,,e,1,0.5667,0,73,73,4,1,俺,e,,,,,,,,,,,,,,,,,,,,,,,,,,,,,,,,,,,,,,,,,
,,,,,,,,,,,,,,1,001,2024-08-23_20h06.22.701,IAT(Formal),2021.2.3,Win32,59.52380952,,,,,,,,,,,,,,,i,1,0.5836,0,74,74,57,1,他的,i,,,,,,,,,,,,,,,,,,,,,,,,,,,,,,,,,,,,,,,,,
,,,,,,,,,,,,,,1,001,2024-08-23_20h06.22.701,IAT(Formal),2021.2.3,Win32,59.52380952,,,,,,,,,,,,,,,i,1,0.5496,0,75,75,75,1,他,i,,,,,,,,,,,,,,,,,,,,,,,,,,,,,,,,,,,,,,,,,
,,,,,,,,,,,,,,1,001,2024-08-23_20h06.22.701,IAT(Formal),2021.2.3,Win32,59.52380952,,,,,,,,,,,,,,,e,1,0.633,0,76,76,61,1,我的,e,,,,,,,,,,,,,,,,,,,,,,,,,,,,,,,,,,,,,,,,,
,,,,,,,,,,,,,,1,001,2024-08-23_20h06.22.701,IAT(Formal),2021.2.3,Win32,59.52380952,,,,,,,,,,,,,,,i,0,0.5993,0,77,77,22,1,无私,e,,,,,,,,,,,,,,,,,,,,,,,,,,,,,,,,,,,,,,,,,
,,,,,,,,,,,,,,1,001,2024-08-23_20h06.22.701,IAT(Formal),2021.2.3,Win32,59.52380952,,,,,,,,,,,,,,,i,1,0.5997,0,78,78,43,1,自私,i,,,,,,,,,,,,,,,,,,,,,,,,,,,,,,,,,,,,,,,,,
,,,,,,,,,,,,,,1,001,2024-08-23_20h06.22.701,IAT(Formal),2021.2.3,Win32,59.52380952,,,,,,,,,,,,,,,i,1,0.6167,0,79,79,30,1,卑鄙,i,,,,,,,,,,,,,,,,,,,,,,,,,,,,,,,,,,,,,,,,,
,,,,,,,,,,,,,,1,001,2024-08-23_20h06.22.701,IAT(Formal),2021.2.3,Win32,59.52380952,,,,,,,,,,,,,,,e,1,1.0163,,,,,,聪明,e,space,42.8563,0,0,0,12,1,,,,,,,,,,,,,,,,,,,,,,,,,,,,,,,,,,
,,,,,,,,,,,,,,1,001,2024-08-23_20h06.22.701,IAT(Formal),2021.2.3,Win32,59.52380952,,,,,,,,,,,,,,,e,1,0.8664,,,,,,自己,e,,,0,1,1,63,1,,,,,,,,,,,,,,,,,,,,,,,,,,,,,,,,,,
,,,,,,,,,,,,,,1,001,2024-08-23_20h06.22.701,IAT(Formal),2021.2.3,Win32,59.52380952,,,,,,,,,,,,,,,i,1,0.563,,,,,,其他,i,,,0,2,2,69,1,,,,,,,,,,,,,,,,,,,,,,,,,,,,,,,,,,
,,,,,,,,,,,,,,1,001,2024-08-23_20h06.22.701,IAT(Formal),2021.2.3,Win32,59.52380952,,,,,,,,,,,,,,,e,1,0.6068,,,,,,我的,e,,,0,3,3,71,1,,,,,,,,,,,,,,,,,,,,,,,,,,,,,,,,,,
,,,,,,,,,,,,,,1,001,2024-08-23_20h06.22.701,IAT(Formal),2021.2.3,Win32,59.52380952,,,,,,,,,,,,,,,e,1,0.4929,,,,,,我,e,,,0,4,4,50,1,,,,,,,,,,,,,,,,,,,,,,,,,,,,,,,,,,
,,,,,,,,,,,,,,1,001,2024-08-23_20h06.22.701,IAT(Formal),2021.2.3,Win32,59.52380952,,,,,,,,,,,,,,,i,1,0.4912,,,,,,他,i,,,0,5,5,65,1,,,,,,,,,,,,,,,,,,,,,,,,,,,,,,,,,,
,,,,,,,,,,,,,,1,001,2024-08-23_20h06.22.701,IAT(Formal),2021.2.3,Win32,59.52380952,,,,,,,,,,,,,,,i,1,0.5788,,,,,,愚蠢,i,,,0,6,6,32,1,,,,,,,,,,,,,,,,,,,,,,,,,,,,,,,,,,
,,,,,,,,,,,,,,1,001,2024-08-23_20h06.22.701,IAT(Formal),2021.2.3,Win32,59.52380952,,,,,,,,,,,,,,,i,1,0.4959,,,,,,其他,i,,,0,7,7,9,1,,,,,,,,,,,,,,,,,,,,,,,,,,,,,,,,,,
,,,,,,,,,,,,,,1,001,2024-08-23_20h06.22.701,IAT(Formal),2021.2.3,Win32,59.52380952,,,,,,,,,,,,,,,i,1,0.433,,,,,,其他,i,,,0,8,8,59,1,,,,,,,,,,,,,,,,,,,,,,,,,,,,,,,,,,
,,,,,,,,,,,,,,1,001,2024-08-23_20h06.22.701,IAT(Formal),2021.2.3,Win32,59.52380952,,,,,,,,,,,,,,,i,1,0.6913,,,,,,固执,i,,,0,9,9,47,1,,,,,,,,,,,,,,,,,,,,,,,,,,,,,,,,,,
,,,,,,,,,,,,,,1,001,2024-08-23_20h06.22.701,IAT(Formal),2021.2.3,Win32,59.52380952,,,,,,,,,,,,,,,i,1,0.5399,,,,,,他们,i,,,0,10,10,76,1,,,,,,,,,,,,,,,,,,,,,,,,,,,,,,,,,,
,,,,,,,,,,,,,,1,001,2024-08-23_20h06.22.701,IAT(Formal),2021.2.3,Win32,59.52380952,,,,,,,,,,,,,,,e,1,0.5702,,,,,,热情,e,,,0,11,11,27,1,,,,,,,,,,,,,,,,,,,,,,,,,,,,,,,,,,
,,,,,,,,,,,,,,1,001,2024-08-23_20h06.22.701,IAT(Formal),2021.2.3,Win32,59.52380952,,,,,,,,,,,,,,,i,1,0.5511,,,,,,他们,i,,,0,12,12,6,1,,,,,,,,,,,,,,,,,,,,,,,,,,,,,,,,,,
,,,,,,,,,,,,,,1,001,2024-08-23_20h06.22.701,IAT(Formal),2021.2.3,Win32,59.52380952,,,,,,,,,,,,,,,i,1,0.4286,,,,,,他人,i,,,0,13,13,68,1,,,,,,,,,,,,,,,,,,,,,,,,,,,,,,,,,,
,,,,,,,,,,,,,,1,001,2024-08-23_20h06.22.701,IAT(Formal),2021.2.3,Win32,59.52380952,,,,,,,,,,,,,,,e,1,0.4999,,,,,,自己,e,,,0,14,14,53,1,,,,,,,,,,,,,,,,,,,,,,,,,,,,,,,,,,
,,,,,,,,,,,,,,1,001,2024-08-23_20h06.22.701,IAT(Formal),2021.2.3,Win32,59.52380952,,,,,,,,,,,,,,,e,1,0.6065,,,,,,勤奋,e,,,0,15,15,18,1,,,,,,,,,,,,,,,,,,,,,,,,,,,,,,,,,,
,,,,,,,,,,,,,,1,001,2024-08-23_20h06.22.701,IAT(Formal),2021.2.3,Win32,59.52380952,,,,,,,,,,,,,,,e,1,0.5541,,,,,,俺,e,,,0,16,16,54,1,,,,,,,,,,,,,,,,,,,,,,,,,,,,,,,,,,
,,,,,,,,,,,,,,1,001,2024-08-23_20h06.22.701,IAT(Formal),2021.2.3,Win32,59.52380952,,,,,,,,,,,,,,,e,1,0.5526,,,,,,正直,e,,,0,17,17,16,1,,,,,,,,,,,,,,,,,,,,,,,,,,,,,,,,,,
,,,,,,,,,,,,,,1,001,2024-08-23_20h06.22.701,IAT(Formal),2021.2.3,Win32,59.52380952,,,,,,,,,,,,,,,e,1,0.4851,,,,,,自己,e,,,0,18,18,73,1,,,,,,,,,,,,,,,,,,,,,,,,,,,,,,,,,,
,,,,,,,,,,,,,,1,001,2024-08-23_20h06.22.701,IAT(Formal),2021.2.3,Win32,59.52380952,,,,,,,,,,,,,,,e,1,0.4892,,,,,,俺,e,,,0,19,19,64,1,,,,,,,,,,,,,,,,,,,,,,,,,,,,,,,,,,
,,,,,,,,,,,,,,1,001,2024-08-23_20h06.22.701,IAT(Formal),2021.2.3,Win32,59.52380952,,,,,,,,,,,,,,,e,1,0.5097,,,,,,我的,e,,,0,20,20,1,1,,,,,,,,,,,,,,,,,,,,,,,,,,,,,,,,,,
,,,,,,,,,,,,,,1,001,2024-08-23_20h06.22.701,IAT(Formal),2021.2.3,Win32,59.52380952,,,,,,,,,,,,,,,e,1,0.5586,,,,,,机智,e,,,0,21,21,19,1,,,,,,,,,,,,,,,,,,,,,,,,,,,,,,,,,,
,,,,,,,,,,,,,,1,001,2024-08-23_20h06.22.701,IAT(Formal),2021.2.3,Win32,59.52380952,,,,,,,,,,,,,,,i,1,0.5789,,,,,,自私,i,,,0,22,22,43,1,,,,,,,,,,,,,,,,,,,,,,,,,,,,,,,,,,
,,,,,,,,,,,,,,1,001,2024-08-23_20h06.22.701,IAT(Formal),2021.2.3,Win32,59.52380952,,,,,,,,,,,,,,,i,1,0.6069,,,,,,轻率,i,,,0,23,23,48,1,,,,,,,,,,,,,,,,,,,,,,,,,,,,,,,,,,
,,,,,,,,,,,,,,1,001,2024-08-23_20h06.22.701,IAT(Formal),2021.2.3,Win32,59.52380952,,,,,,,,,,,,,,,e,1,0.5733,,,,,,诚恳,e,,,0,24,24,29,1,,,,,,,,,,,,,,,,,,,,,,,,,,,,,,,,,,
,,,,,,,,,,,,,,1,001,2024-08-23_20h06.22.701,IAT(Formal),2021.2.3,Win32,59.52380952,,,,,,,,,,,,,,,e,1,0.5358,,,,,,杰出,e,,,0,25,25,13,1,,,,,,,,,,,,,,,,,,,,,,,,,,,,,,,,,,
,,,,,,,,,,,,,,1,001,2024-08-23_20h06.22.701,IAT(Formal),2021.2.3,Win32,59.52380952,,,,,,,,,,,,,,,i,1,0.5505,,,,,,消极,i,,,0,26,26,35,1,,,,,,,,,,,,,,,,,,,,,,,,,,,,,,,,,,
,,,,,,,,,,,,,,1,001,2024-08-23_20h06.22.701,IAT(Formal),2021.2.3,Win32,59.52380952,,,,,,,,,,,,,,,e,1,1.1566,,,,,,我们,e,,,0,27,27,52,1,,,,,,,,,,,,,,,,,,,,,,,,,,,,,,,,,,
,,,,,,,,,,,,,,1,001,2024-08-23_20h06.22.701,IAT(Formal),2021.2.3,Win32,59.52380952,,,,,,,,,,,,,,,i,1,0.5952,,,,,,散漫,i,,,0,28,28,41,1,,,,,,,,,,,,,,,,,,,,,,,,,,,,,,,,,,
,,,,,,,,,,,,,,1,001,2024-08-23_20h06.22.701,IAT(Formal),2021.2.3,Win32,59.52380952,,,,,,,,,,,,,,,e,1,0.5183,,,,,,诚实,e,,,0,29,29,15,1,,,,,,,,,,,,,,,,,,,,,,,,,,,,,,,,,,
,,,,,,,,,,,,,,1,001,2024-08-23_20h06.22.701,IAT(Formal),2021.2.3,Win32,59.52380952,,,,,,,,,,,,,,,e,1,0.55,,,,,,我们,e,,,0,30,30,2,1,,,,,,,,,,,,,,,,,,,,,,,,,,,,,,,,,,
,,,,,,,,,,,,,,1,001,2024-08-23_20h06.22.701,IAT(Formal),2021.2.3,Win32,59.52380952,,,,,,,,,,,,,,,e,1,0.5462,,,,,,勇敢,e,,,0,31,31,17,1,,,,,,,,,,,,,,,,,,,,,,,,,,,,,,,,,,
,,,,,,,,,,,,,,1,001,2024-08-23_20h06.22.701,IAT(Formal),2021.2.3,Win32,59.52380952,,,,,,,,,,,,,,,i,1,0.5604,,,,,,他,i,,,0,32,32,55,1,,,,,,,,,,,,,,,,,,,,,,,,,,,,,,,,,,
,,,,,,,,,,,,,,1,001,2024-08-23_20h06.22.701,IAT(Formal),2021.2.3,Win32,59.52380952,,,,,,,,,,,,,,,e,1,0.5845,,,,,,乐观,e,,,0,33,33,14,1,,,,,,,,,,,,,,,,,,,,,,,,,,,,,,,,,,
,,,,,,,,,,,,,,1,001,2024-08-23_20h06.22.701,IAT(Formal),2021.2.3,Win32,59.52380952,,,,,,,,,,,,,,,i,1,0.5233,,,,,,鲁莽,i,,,0,34,34,38,1,,,,,,,,,,,,,,,,,,,,,,,,,,,,,,,,,,
,,,,,,,,,,,,,,1,001,2024-08-23_20h06.22.701,IAT(Formal),2021.2.3,Win32,59.52380952,,,,,,,,,,,,,,,e,1,0.5373,,,,,,活泼,e,,,0,35,35,28,1,,,,,,,,,,,,,,,,,,,,,,,,,,,,,,,,,,
,,,,,,,,,,,,,,1,001,2024-08-23_20h06.22.701,IAT(Formal),2021.2.3,Win32,59.52380952,,,,,,,,,,,,,,,e,1,0.5521,,,,,,俺,e,,,0,36,36,74,1,,,,,,,,,,,,,,,,,,,,,,,,,,,,,,,,,,
,,,,,,,,,,,,,,1,001,2024-08-23_20h06.22.701,IAT(Formal),2021.2.3,Win32,59.52380952,,,,,,,,,,,,,,,e,1,0.4858,,,,,,认真,e,,,0,37,37,20,1,,,,,,,,,,,,,,,,,,,,,,,,,,,,,,,,,,
,,,,,,,,,,,,,,1,001,2024-08-23_20h06.22.701,IAT(Formal),2021.2.3,Win32,59.52380952,,,,,,,,,,,,,,,e,1,0.486,,,,,,崇高,e,,,0,38,38,11,1,,,,,,,,,,,,,,,,,,,,,,,,,,,,,,,,,,
,,,,,,,,,,,,,,1,001,2024-08-23_20h06.22.701,IAT(Formal),2021.2.3,Win32,59.52380952,,,,,,,,,,,,,,,e,1,0.4862,,,,,,我,e,,,0,39,39,70,1,,,,,,,,,,,,,,,,,,,,,,,,,,,,,,,,,,
,,,,,,,,,,,,,,1,001,2024-08-23_20h06.22.701,IAT(Formal),2021.2.3,Win32,59.52380952,,,,,,,,,,,,,,,i,1,0.5354,,,,,,傲慢,i,,,0,40,40,37,1,,,,,,,,,,,,,,,,,,,,,,,,,,,,,,,,,,
,,,,,,,,,,,,,,1,001,2024-08-23_20h06.22.701,IAT(Formal),2021.2.3,Win32,59.52380952,,,,,,,,,,,,,,,e,1,0.5904,,,,,,优秀,e,,,0,41,41,10,1,,,,,,,,,,,,,,,,,,,,,,,,,,,,,,,,,,
,,,,,,,,,,,,,,1,001,2024-08-23_20h06.22.701,IAT(Formal),2021.2.3,Win32,59.52380952,,,,,,,,,,,,,,,i,1,0.5884,,,,,,他,i,,,0,42,42,5,1,,,,,,,,,,,,,,,,,,,,,,,,,,,,,,,,,,
,,,,,,,,,,,,,,1,001,2024-08-23_20h06.22.701,IAT(Formal),2021.2.3,Win32,59.52380952,,,,,,,,,,,,,,,e,1,0.669,,,,,,我,e,,,0,43,43,0,1,,,,,,,,,,,,,,,,,,,,,,,,,,,,,,,,,,
,,,,,,,,,,,,,,1,001,2024-08-23_20h06.22.701,IAT(Formal),2021.2.3,Win32,59.52380952,,,,,,,,,,,,,,,i,1,0.6167,,,,,,暴躁,i,,,0,44,44,44,1,,,,,,,,,,,,,,,,,,,,,,,,,,,,,,,,,,
,,,,,,,,,,,,,,1,001,2024-08-23_20h06.22.701,IAT(Formal),2021.2.3,Win32,59.52380952,,,,,,,,,,,,,,,i,1,0.561,,,,,,虚伪,i,,,0,45,45,31,1,,,,,,,,,,,,,,,,,,,,,,,,,,,,,,,,,,
,,,,,,,,,,,,,,1,001,2024-08-23_20h06.22.701,IAT(Formal),2021.2.3,Win32,59.52380952,,,,,,,,,,,,,,,e,1,0.6468,,,,,,冷静,e,,,0,46,46,26,1,,,,,,,,,,,,,,,,,,,,,,,,,,,,,,,,,,
,,,,,,,,,,,,,,1,001,2024-08-23_20h06.22.701,IAT(Formal),2021.2.3,Win32,59.52380952,,,,,,,,,,,,,,,e,1,0.4828,,,,,,自己,e,,,0,47,47,3,1,,,,,,,,,,,,,,,,,,,,,,,,,,,,,,,,,,
,,,,,,,,,,,,,,1,001,2024-08-23_20h06.22.701,IAT(Formal),2021.2.3,Win32,59.52380952,,,,,,,,,,,,,,,i,1,0.4831,,,,,,他们,i,,,0,48,48,56,1,,,,,,,,,,,,,,,,,,,,,,,,,,,,,,,,,,
,,,,,,,,,,,,,,1,001,2024-08-23_20h06.22.701,IAT(Formal),2021.2.3,Win32,59.52380952,,,,,,,,,,,,,,,e,1,0.5456,,,,,,俺,e,,,0,49,49,4,1,,,,,,,,,,,,,,,,,,,,,,,,,,,,,,,,,,
,,,,,,,,,,,,,,1,001,2024-08-23_20h06.22.701,IAT(Formal),2021.2.3,Win32,59.52380952,,,,,,,,,,,,,,,i,1,0.5215,,,,,,卑鄙,i,,,0,50,50,30,1,,,,,,,,,,,,,,,,,,,,,,,,,,,,,,,,,,
,,,,,,,,,,,,,,1,001,2024-08-23_20h06.22.701,IAT(Formal),2021.2.3,Win32,59.52380952,,,,,,,,,,,,,,,i,1,0.4459,,,,,,猖狂,i,,,0,51,51,45,1,,,,,,,,,,,,,,,,,,,,,,,,,,,,,,,,,,
,,,,,,,,,,,,,,1,001,2024-08-23_20h06.22.701,IAT(Formal),2021.2.3,Win32,59.52380952,,,,,,,,,,,,,,,e,0,0.4723,,,,,,他们,i,,,0,52,52,66,1,,,,,,,,,,,,,,,,,,,,,,,,,,,,,,,,,,
,,,,,,,,,,,,,,1,001,2024-08-23_20h06.22.701,IAT(Formal),2021.2.3,Win32,59.52380952,,,,,,,,,,,,,,,i,1,0.5773,,,,,,他的,i,,,0,53,53,67,1,,,,,,,,,,,,,,,,,,,,,,,,,,,,,,,,,,
,,,,,,,,,,,,,,1,001,2024-08-23_20h06.22.701,IAT(Formal),2021.2.3,Win32,59.52380952,,,,,,,,,,,,,,,e,1,0.6005,,,,,,稳重,e,,,0,54,54,21,1,,,,,,,,,,,,,,,,,,,,,,,,,,,,,,,,,,
,,,,,,,,,,,,,,1,001,2024-08-23_20h06.22.701,IAT(Formal),2021.2.3,Win32,59.52380952,,,,,,,,,,,,,,,e,1,0.5499,,,,,,公正,e,,,0,55,55,23,1,,,,,,,,,,,,,,,,,,,,,,,,,,,,,,,,,,
,,,,,,,,,,,,,,1,001,2024-08-23_20h06.22.701,IAT(Formal),2021.2.3,Win32,59.52380952,,,,,,,,,,,,,,,i,1,0.4693,,,,,,他人,i,,,0,56,56,58,1,,,,,,,,,,,,,,,,,,,,,,,,,,,,,,,,,,
,,,,,,,,,,,,,,1,001,2024-08-23_20h06.22.701,IAT(Formal),2021.2.3,Win32,59.52380952,,,,,,,,,,,,,,,e,1,0.6259,,,,,,朴实,e,,,0,57,57,24,1,,,,,,,,,,,,,,,,,,,,,,,,,,,,,,,,,,
,,,,,,,,,,,,,,1,001,2024-08-23_20h06.22.701,IAT(Formal),2021.2.3,Win32,59.52380952,,,,,,,,,,,,,,,i,1,0.5165,,,,,,他的,i,,,0,58,58,7,1,,,,,,,,,,,,,,,,,,,,,,,,,,,,,,,,,,
,,,,,,,,,,,,,,1,001,2024-08-23_20h06.22.701,IAT(Formal),2021.2.3,Win32,59.52380952,,,,,,,,,,,,,,,i,1,0.5499,,,,,,其他,i,,,0,59,59,79,1,,,,,,,,,,,,,,,,,,,,,,,,,,,,,,,,,,
,,,,,,,,,,,,,,1,001,2024-08-23_20h06.22.701,IAT(Formal),2021.2.3,Win32,59.52380952,,,,,,,,,,,,,,,i,1,0.5058,,,,,,他的,i,,,0,60,60,77,1,,,,,,,,,,,,,,,,,,,,,,,,,,,,,,,,,,
,,,,,,,,,,,,,,1,001,2024-08-23_20h06.22.701,IAT(Formal),2021.2.3,Win32,59.52380952,,,,,,,,,,,,,,,i,1,0.6175,,,,,,自卑,i,,,0,61,61,36,1,,,,,,,,,,,,,,,,,,,,,,,,,,,,,,,,,,
,,,,,,,,,,,,,,1,001,2024-08-23_20h06.22.701,IAT(Formal),2021.2.3,Win32,59.52380952,,,,,,,,,,,,,,,e,1,0.5231,,,,,,我的,e,,,0,62,62,61,1,,,,,,,,,,,,,,,,,,,,,,,,,,,,,,,,,,
,,,,,,,,,,,,,,1,001,2024-08-23_20h06.22.701,IAT(Formal),2021.2.3,Win32,59.52380952,,,,,,,,,,,,,,,i,1,0.7293,,,,,,执拗,i,,,0,63,63,40,1,,,,,,,,,,,,,,,,,,,,,,,,,,,,,,,,,,
,,,,,,,,,,,,,,1,001,2024-08-23_20h06.22.701,IAT(Formal),2021.2.3,Win32,59.52380952,,,,,,,,,,,,,,,i,1,0.5766,,,,,,他,i,,,0,64,64,75,1,,,,,,,,,,,,,,,,,,,,,,,,,,,,,,,,,,
,,,,,,,,,,,,,,1,001,2024-08-23_20h06.22.701,IAT(Formal),2021.2.3,Win32,59.52380952,,,,,,,,,,,,,,,i,0,0.5836,,,,,,无私,e,,,0,65,65,22,1,,,,,,,,,,,,,,,,,,,,,,,,,,,,,,,,,,
,,,,,,,,,,,,,,1,001,2024-08-23_20h06.22.701,IAT(Formal),2021.2.3,Win32,59.52380952,,,,,,,,,,,,,,,i,1,0.7533,,,,,,他人,i,,,0,66,66,78,1,,,,,,,,,,,,,,,,,,,,,,,,,,,,,,,,,,
,,,,,,,,,,,,,,1,001,2024-08-23_20h06.22.701,IAT(Formal),2021.2.3,Win32,59.52380952,,,,,,,,,,,,,,,e,1,0.5751,,,,,,我们,e,,,0,67,67,72,1,,,,,,,,,,,,,,,,,,,,,,,,,,,,,,,,,,
,,,,,,,,,,,,,,1,001,2024-08-23_20h06.22.701,IAT(Formal),2021.2.3,Win32,59.52380952,,,,,,,,,,,,,,,e,1,0.4761,,,,,,我,e,,,0,68,68,60,1,,,,,,,,,,,,,,,,,,,,,,,,,,,,,,,,,,
,,,,,,,,,,,,,,1,001,2024-08-23_20h06.22.701,IAT(Formal),2021.2.3,Win32,59.52380952,,,,,,,,,,,,,,,i,1,0.5591,,,,,,凶狠,i,,,0,69,69,42,1,,,,,,,,,,,,,,,,,,,,,,,,,,,,,,,,,,
,,,,,,,,,,,,,,1,001,2024-08-23_20h06.22.701,IAT(Formal),2021.2.3,Win32,59.52380952,,,,,,,,,,,,,,,e,1,0.5971,,,,,,我们,e,,,0,70,70,62,1,,,,,,,,,,,,,,,,,,,,,,,,,,,,,,,,,,
,,,,,,,,,,,,,,1,001,2024-08-23_20h06.22.701,IAT(Formal),2021.2.3,Win32,59.52380952,,,,,,,,,,,,,,,i,1,0.5846,,,,,,冒失,i,,,0,71,71,39,1,,,,,,,,,,,,,,,,,,,,,,,,,,,,,,,,,,
,,,,,,,,,,,,,,1,001,2024-08-23_20h06.22.701,IAT(Formal),2021.2.3,Win32,59.52380952,,,,,,,,,,,,,,,i,1,0.5231,,,,,,刻薄,i,,,0,72,72,33,1,,,,,,,,,,,,,,,,,,,,,,,,,,,,,,,,,,
,,,,,,,,,,,,,,1,001,2024-08-23_20h06.22.701,IAT(Formal),2021.2.3,Win32,59.52380952,,,,,,,,,,,,,,,i,1,0.4507,,,,,,下贱,i,,,0,73,73,49,1,,,,,,,,,,,,,,,,,,,,,,,,,,,,,,,,,,
,,,,,,,,,,,,,,1,001,2024-08-23_20h06.22.701,IAT(Formal),2021.2.3,Win32,59.52380952,,,,,,,,,,,,,,,i,1,0.5505,,,,,,他人,i,,,0,74,74,8,1,,,,,,,,,,,,,,,,,,,,,,,,,,,,,,,,,,
,,,,,,,,,,,,,,1,001,2024-08-23_20h06.22.701,IAT(Formal),2021.2.3,Win32,59.52380952,,,,,,,,,,,,,,,e,0,0.5332,,,,,,悲观,i,,,0,75,75,34,1,,,,,,,,,,,,,,,,,,,,,,,,,,,,,,,,,,
,,,,,,,,,,,,,,1,001,2024-08-23_20h06.22.701,IAT(Formal),2021.2.3,Win32,59.52380952,,,,,,,,,,,,,,,i,1,0.5597,,,,,,野蛮,i,,,0,76,76,46,1,,,,,,,,,,,,,,,,,,,,,,,,,,,,,,,,,,
,,,,,,,,,,,,,,1,001,2024-08-23_20h06.22.701,IAT(Formal),2021.2.3,Win32,59.52380952,,,,,,,,,,,,,,,e,1,0.6856,,,,,,我的,e,,,0,77,77,51,1,,,,,,,,,,,,,,,,,,,,,,,,,,,,,,,,,,
,,,,,,,,,,,,,,1,001,2024-08-23_20h06.22.701,IAT(Formal),2021.2.3,Win32,59.52380952,,,,,,,,,,,,,,,e,1,0.7178,,,,,,细腻,e,,,0,78,78,25,1,,,,,,,,,,,,,,,,,,,,,,,,,,,,,,,,,,
,,,,,,,,,,,,,,1,001,2024-08-23_20h06.22.701,IAT(Formal),2021.2.3,Win32,59.52380952,,,,,,,,,,,,,,,i,1,0.5729,,,,,,他的,i,,,0,79,79,57,1,,,,,,,,,,,,,,,,,,,,,,,,,,,,,,,,,,
,,,,,,,,,,,,,,1,001,2024-08-23_20h06.22.701,IAT(Formal),2021.2.3,Win32,59.52380952,,,,,,,,,,,,,,,e,1,0.6175,,,,,,诚实,e,,,1,0,80,15,1,,,,,,,,,,,,,,,,,,,,,,,,,,,,,,,,,,
,,,,,,,,,,,,,,1,001,2024-08-23_20h06.22.701,IAT(Formal),2021.2.3,Win32,59.52380952,,,,,,,,,,,,,,,e,1,0.5524,,,,,,正直,e,,,1,1,81,16,1,,,,,,,,,,,,,,,,,,,,,,,,,,,,,,,,,,
,,,,,,,,,,,,,,1,001,2024-08-23_20h06.22.701,IAT(Formal),2021.2.3,Win32,59.52380952,,,,,,,,,,,,,,,i,1,0.5461,,,,,,他人,i,,,1,2,82,78,1,,,,,,,,,,,,,,,,,,,,,,,,,,,,,,,,,,
,,,,,,,,,,,,,,1,001,2024-08-23_20h06.22.701,IAT(Formal),2021.2.3,Win32,59.52380952,,,,,,,,,,,,,,,i,1,0.4964,,,,,,他,i,,,1,3,83,65,1,,,,,,,,,,,,,,,,,,,,,,,,,,,,,,,,,,
,,,,,,,,,,,,,,1,001,2024-08-23_20h06.22.701,IAT(Formal),2021.2.3,Win32,59.52380952,,,,,,,,,,,,,,,i,1,0.4331,,,,,,他,i,,,1,4,84,5,1,,,,,,,,,,,,,,,,,,,,,,,,,,,,,,,,,,
,,,,,,,,,,,,,,1,001,2024-08-23_20h06.22.701,IAT(Formal),2021.2.3,Win32,59.52380952,,,,,,,,,,,,,,,e,1,0.507,,,,,,我们,e,,,1,5,85,62,1,,,,,,,,,,,,,,,,,,,,,,,,,,,,,,,,,,
,,,,,,,,,,,,,,1,001,2024-08-23_20h06.22.701,IAT(Formal),2021.2.3,Win32,59.52380952,,,,,,,,,,,,,,,i,1,0.5725,,,,,,野蛮,i,,,1,6,86,46,1,,,,,,,,,,,,,,,,,,,,,,,,,,,,,,,,,,
,,,,,,,,,,,,,,1,001,2024-08-23_20h06.22.701,IAT(Formal),2021.2.3,Win32,59.52380952,,,,,,,,,,,,,,,e,1,0.6013,,,,,,优秀,e,,,1,7,87,10,1,,,,,,,,,,,,,,,,,,,,,,,,,,,,,,,,,,
,,,,,,,,,,,,,,1,001,2024-08-23_20h06.22.701,IAT(Formal),2021.2.3,Win32,59.52380952,,,,,,,,,,,,,,,i,1,0.5231,,,,,,执拗,i,,,1,8,88,40,1,,,,,,,,,,,,,,,,,,,,,,,,,,,,,,,,,,
,,,,,,,,,,,,,,1,001,2024-08-23_20h06.22.701,IAT(Formal),2021.2.3,Win32,59.52380952,,,,,,,,,,,,,,,i,1,0.4506,,,,,,猖狂,i,,,1,9,89,45,1,,,,,,,,,,,,,,,,,,,,,,,,,,,,,,,,,,
,,,,,,,,,,,,,,1,001,2024-08-23_20h06.22.701,IAT(Formal),2021.2.3,Win32,59.52380952,,,,,,,,,,,,,,,e,1,0.5501,,,,,,俺,e,,,1,10,90,4,1,,,,,,,,,,,,,,,,,,,,,,,,,,,,,,,,,,
,,,,,,,,,,,,,,1,001,2024-08-23_20h06.22.701,IAT(Formal),2021.2.3,Win32,59.52380952,,,,,,,,,,,,,,,i,1,0.4834,,,,,,轻率,i,,,1,11,91,48,1,,,,,,,,,,,,,,,,,,,,,,,,,,,,,,,,,,
,,,,,,,,,,,,,,1,001,2024-08-23_20h06.22.701,IAT(Formal),2021.2.3,Win32,59.52380952,,,,,,,,,,,,,,,i,1,0.6345,,,,,,固执,i,,,1,12,92,47,1,,,,,,,,,,,,,,,,,,,,,,,,,,,,,,,,,,
,,,,,,,,,,,,,,1,001,2024-08-23_20h06.22.701,IAT(Formal),2021.2.3,Win32,59.52380952,,,,,,,,,,,,,,,e,1,0.5889,,,,,,自己,e,,,1,13,93,73,1,,,,,,,,,,,,,,,,,,,,,,,,,,,,,,,,,,
,,,,,,,,,,,,,,1,001,2024-08-23_20h06.22.701,IAT(Formal),2021.2.3,Win32,59.52380952,,,,,,,,,,,,,,,i,1,0.5782,,,,,,他们,i,,,1,14,94,76,1,,,,,,,,,,,,,,,,,,,,,,,,,,,,,,,,,,
,,,,,,,,,,,,,,1,001,2024-08-23_20h06.22.701,IAT(Formal),2021.2.3,Win32,59.52380952,,,,,,,,,,,,,,,e,1,0.5973,,,,,,俺,e,,,1,15,95,74,1,,,,,,,,,,,,,,,,,,,,,,,,,,,,,,,,,,
,,,,,,,,,,,,,,1,001,2024-08-23_20h06.22.701,IAT(Formal),2021.2.3,Win32,59.52380952,,,,,,,,,,,,,,,e,1,0.6259,,,,,,我的,e,,,1,16,96,1,1,,,,,,,,,,,,,,,,,,,,,,,,,,,,,,,,,,
,,,,,,,,,,,,,,1,001,2024-08-23_20h06.22.701,IAT(Formal),2021.2.3,Win32,59.52380952,,,,,,,,,,,,,,,e,1,0.6857,,,,,,活泼,e,,,1,17,97,28,1,,,,,,,,,,,,,,,,,,,,,,,,,,,,,,,,,,
,,,,,,,,,,,,,,1,001,2024-08-23_20h06.22.701,IAT(Formal),2021.2.3,Win32,59.52380952,,,,,,,,,,,,,,,e,1,0.5096,,,,,,我,e,,,1,18,98,70,1,,,,,,,,,,,,,,,,,,,,,,,,,,,,,,,,,,
,,,,,,,,,,,,,,1,001,2024-08-23_20h06.22.701,IAT(Formal),2021.2.3,Win32,59.52380952,,,,,,,,,,,,,,,e,1,0.7662,,,,,,朴实,e,,,1,19,99,24,1,,,,,,,,,,,,,,,,,,,,,,,,,,,,,,,,,,
,,,,,,,,,,,,,,1,001,2024-08-23_20h06.22.701,IAT(Formal),2021.2.3,Win32,59.52380952,,,,,,,,,,,,,,,i,1,0.5699,,,,,,下贱,i,,,1,20,100,49,1,,,,,,,,,,,,,,,,,,,,,,,,,,,,,,,,,,
,,,,,,,,,,,,,,1,001,2024-08-23_20h06.22.701,IAT(Formal),2021.2.3,Win32,59.52380952,,,,,,,,,,,,,,,e,1,0.4863,,,,,,聪明,e,,,1,21,101,12,1,,,,,,,,,,,,,,,,,,,,,,,,,,,,,,,,,,
,,,,,,,,,,,,,,1,001,2024-08-23_20h06.22.701,IAT(Formal),2021.2.3,Win32,59.52380952,,,,,,,,,,,,,,,i,1,0.5746,,,,,,其他,i,,,1,22,102,9,1,,,,,,,,,,,,,,,,,,,,,,,,,,,,,,,,,,
,,,,,,,,,,,,,,1,001,2024-08-23_20h06.22.701,IAT(Formal),2021.2.3,Win32,59.52380952,,,,,,,,,,,,,,,e,1,0.4702,,,,,,我的,e,,,1,23,103,71,1,,,,,,,,,,,,,,,,,,,,,,,,,,,,,,,,,,
,,,,,,,,,,,,,,1,001,2024-08-23_20h06.22.701,IAT(Formal),2021.2.3,Win32,59.52380952,,,,,,,,,,,,,,,e,1,0.5965,,,,,,公正,e,,,1,24,104,23,1,,,,,,,,,,,,,,,,,,,,,,,,,,,,,,,,,,
,,,,,,,,,,,,,,1,001,2024-08-23_20h06.22.701,IAT(Formal),2021.2.3,Win32,59.52380952,,,,,,,,,,,,,,,i,1,0.8724,,,,,,愚蠢,i,,,1,25,105,32,1,,,,,,,,,,,,,,,,,,,,,,,,,,,,,,,,,,
,,,,,,,,,,,,,,1,001,2024-08-23_20h06.22.701,IAT(Formal),2021.2.3,Win32,59.52380952,,,,,,,,,,,,,,,e,1,0.9388,,,,,,崇高,e,,,1,26,106,11,1,,,,,,,,,,,,,,,,,,,,,,,,,,,,,,,,,,
,,,,,,,,,,,,,,1,001,2024-08-23_20h06.22.701,IAT(Formal),2021.2.3,Win32,59.52380952,,,,,,,,,,,,,,,i,1,0.6168,,,,,,悲观,i,,,1,27,107,34,1,,,,,,,,,,,,,,,,,,,,,,,,,,,,,,,,,,
,,,,,,,,,,,,,,1,001,2024-08-23_20h06.22.701,IAT(Formal),2021.2.3,Win32,59.52380952,,,,,,,,,,,,,,,i,1,0.5497,,,,,,暴躁,i,,,1,28,108,44,1,,,,,,,,,,,,,,,,,,,,,,,,,,,,,,,,,,
,,,,,,,,,,,,,,1,001,2024-08-23_20h06.22.701,IAT(Formal),2021.2.3,Win32,59.52380952,,,,,,,,,,,,,,,e,1,0.6099,,,,,,俺,e,,,1,29,109,64,1,,,,,,,,,,,,,,,,,,,,,,,,,,,,,,,,,,
,,,,,,,,,,,,,,1,001,2024-08-23_20h06.22.701,IAT(Formal),2021.2.3,Win32,59.52380952,,,,,,,,,,,,,,,i,1,0.4924,,,,,,他,i,,,1,30,110,55,1,,,,,,,,,,,,,,,,,,,,,,,,,,,,,,,,,,
,,,,,,,,,,,,,,1,001,2024-08-23_20h06.22.701,IAT(Formal),2021.2.3,Win32,59.52380952,,,,,,,,,,,,,,,e,1,0.4686,,,,,,我们,e,,,1,31,111,52,1,,,,,,,,,,,,,,,,,,,,,,,,,,,,,,,,,,
,,,,,,,,,,,,,,1,001,2024-08-23_20h06.22.701,IAT(Formal),2021.2.3,Win32,59.52380952,,,,,,,,,,,,,,,i,1,0.6005,,,,,,鲁莽,i,,,1,32,112,38,1,,,,,,,,,,,,,,,,,,,,,,,,,,,,,,,,,,
,,,,,,,,,,,,,,1,001,2024-08-23_20h06.22.701,IAT(Formal),2021.2.3,Win32,59.52380952,,,,,,,,,,,,,,,e,1,0.6092,,,,,,认真,e,,,1,33,113,20,1,,,,,,,,,,,,,,,,,,,,,,,,,,,,,,,,,,
,,,,,,,,,,,,,,1,001,2024-08-23_20h06.22.701,IAT(Formal),2021.2.3,Win32,59.52380952,,,,,,,,,,,,,,,i,1,0.6204,,,,,,消极,i,,,1,34,114,35,1,,,,,,,,,,,,,,,,,,,,,,,,,,,,,,,,,,
,,,,,,,,,,,,,,1,001,2024-08-23_20h06.22.701,IAT(Formal),2021.2.3,Win32,59.52380952,,,,,,,,,,,,,,,i,1,0.5532,,,,,,其他,i,,,1,35,115,79,1,,,,,,,,,,,,,,,,,,,,,,,,,,,,,,,,,,
,,,,,,,,,,,,,,1,001,2024-08-23_20h06.22.701,IAT(Formal),2021.2.3,Win32,59.52380952,,,,,,,,,,,,,,,i,1,0.6294,,,,,,他们,i,,,1,36,116,66,1,,,,,,,,,,,,,,,,,,,,,,,,,,,,,,,,,,
,,,,,,,,,,,,,,1,001,2024-08-23_20h06.22.701,IAT(Formal),2021.2.3,Win32,59.52380952,,,,,,,,,,,,,,,i,1,0.4181,,,,,,他的,i,,,1,37,117,7,1,,,,,,,,,,,,,,,,,,,,,,,,,,,,,,,,,,
,,,,,,,,,,,,,,1,001,2024-08-23_20h06.22.701,IAT(Formal),2021.2.3,Win32,59.52380952,,,,,,,,,,,,,,,e,1,0.4864,,,,,,勇敢,e,,,1,38,118,17,1,,,,,,,,,,,,,,,,,,,,,,,,,,,,,,,,,,
,,,,,,,,,,,,,,1,001,2024-08-23_20h06.22.701,IAT(Formal),2021.2.3,Win32,59.52380952,,,,,,,,,,,,,,,i,1,0.5333,,,,,,他们,i,,,1,39,119,56,1,,,,,,,,,,,,,,,,,,,,,,,,,,,,,,,,,,
,,,,,,,,,,,,,,1,001,2024-08-23_20h06.22.701,IAT(Formal),2021.2.3,Win32,59.52380952,,,,,,,,,,,,,,,e,1,0.6248,,,,,,机智,e,,,1,40,120,19,1,,,,,,,,,,,,,,,,,,,,,,,,,,,,,,,,,,
,,,,,,,,,,,,,,1,001,2024-08-23_20h06.22.701,IAT(Formal),2021.2.3,Win32,59.52380952,,,,,,,,,,,,,,,i,1,0.5409,,,,,,他人,i,,,1,41,121,58,1,,,,,,,,,,,,,,,,,,,,,,,,,,,,,,,,,,
,,,,,,,,,,,,,,1,001,2024-08-23_20h06.22.701,IAT(Formal),2021.2.3,Win32,59.52380952,,,,,,,,,,,,,,,e,1,0.5566,,,,,,稳重,e,,,1,42,122,21,1,,,,,,,,,,,,,,,,,,,,,,,,,,,,,,,,,,
,,,,,,,,,,,,,,1,001,2024-08-23_20h06.22.701,IAT(Formal),2021.2.3,Win32,59.52380952,,,,,,,,,,,,,,,i,1,0.5924,,,,,,傲慢,i,,,1,43,123,37,1,,,,,,,,,,,,,,,,,,,,,,,,,,,,,,,,,,
,,,,,,,,,,,,,,1,001,2024-08-23_20h06.22.701,IAT(Formal),2021.2.3,Win32,59.52380952,,,,,,,,,,,,,,,e,1,0.429,,,,,,勤奋,e,,,1,44,124,18,1,,,,,,,,,,,,,,,,,,,,,,,,,,,,,,,,,,
,,,,,,,,,,,,,,1,001,2024-08-23_20h06.22.701,IAT(Formal),2021.2.3,Win32,59.52380952,,,,,,,,,,,,,,,e,1,0.5909,,,,,,俺,e,,,1,45,125,54,1,,,,,,,,,,,,,,,,,,,,,,,,,,,,,,,,,,
,,,,,,,,,,,,,,1,001,2024-08-23_20h06.22.701,IAT(Formal),2021.2.3,Win32,59.52380952,,,,,,,,,,,,,,,i,1,0.6118,,,,,,冒失,i,,,1,46,126,39,1,,,,,,,,,,,,,,,,,,,,,,,,,,,,,,,,,,
,,,,,,,,,,,,,,1,001,2024-08-23_20h06.22.701,IAT(Formal),2021.2.3,Win32,59.52380952,,,,,,,,,,,,,,,e,1,0.5588,,,,,,自己,e,,,1,47,127,63,1,,,,,,,,,,,,,,,,,,,,,,,,,,,,,,,,,,
,,,,,,,,,,,,,,1,001,2024-08-23_20h06.22.701,IAT(Formal),2021.2.3,Win32,59.52380952,,,,,,,,,,,,,,,e,1,0.5827,,,,,,杰出,e,,,1,48,128,13,1,,,,,,,,,,,,,,,,,,,,,,,,,,,,,,,,,,
,,,,,,,,,,,,,,1,001,2024-08-23_20h06.22.701,IAT(Formal),2021.2.3,Win32,59.52380952,,,,,,,,,,,,,,,i,1,0.5218,,,,,,凶狠,i,,,1,49,129,42,1,,,,,,,,,,,,,,,,,,,,,,,,,,,,,,,,,,
,,,,,,,,,,,,,,1,001,2024-08-23_20h06.22.701,IAT(Formal),2021.2.3,Win32,59.52380952,,,,,,,,,,,,,,,e,1,0.592,,,,,,我的,e,,,1,50,130,61,1,,,,,,,,,,,,,,,,,,,,,,,,,,,,,,,,,,
,,,,,,,,,,,,,,1,001,2024-08-23_20h06.22.701,IAT(Formal),2021.2.3,Win32,59.52380952,,,,,,,,,,,,,,,i,0,0.8358,,,,,,冷静,e,,,1,51,131,26,1,,,,,,,,,,,,,,,,,,,,,,,,,,,,,,,,,,
,,,,,,,,,,,,,,1,001,2024-08-23_20h06.22.701,IAT(Formal),2021.2.3,Win32,59.52380952,,,,,,,,,,,,,,,i,1,0.5731,,,,,,虚伪,i,,,1,52,132,31,1,,,,,,,,,,,,,,,,,,,,,,,,,,,,,,,,,,
,,,,,,,,,,,,,,1,001,2024-08-23_20h06.22.701,IAT(Formal),2021.2.3,Win32,59.52380952,,,,,,,,,,,,,,,e,1,0.5074,,,,,,我,e,,,1,53,133,50,1,,,,,,,,,,,,,,,,,,,,,,,,,,,,,,,,,,
,,,,,,,,,,,,,,1,001,2024-08-23_20h06.22.701,IAT(Formal),2021.2.3,Win32,59.52380952,,,,,,,,,,,,,,,i,1,0.5849,,,,,,他人,i,,,1,54,134,68,1,,,,,,,,,,,,,,,,,,,,,,,,,,,,,,,,,,
,,,,,,,,,,,,,,1,001,2024-08-23_20h06.22.701,IAT(Formal),2021.2.3,Win32,59.52380952,,,,,,,,,,,,,,,e,1,0.5189,,,,,,我们,e,,,1,55,135,72,1,,,,,,,,,,,,,,,,,,,,,,,,,,,,,,,,,,
,,,,,,,,,,,,,,1,001,2024-08-23_20h06.22.701,IAT(Formal),2021.2.3,Win32,59.52380952,,,,,,,,,,,,,,,e,1,1.0197,,,,,,我的,e,,,1,56,136,51,1,,,,,,,,,,,,,,,,,,,,,,,,,,,,,,,,,,
,,,,,,,,,,,,,,1,001,2024-08-23_20h06.22.701,IAT(Formal),2021.2.3,Win32,59.52380952,,,,,,,,,,,,,,,i,1,0.5459,,,,,,散漫,i,,,1,57,137,41,1,,,,,,,,,,,,,,,,,,,,,,,,,,,,,,,,,,
,,,,,,,,,,,,,,1,001,2024-08-23_20h06.22.701,IAT(Formal),2021.2.3,Win32,59.52380952,,,,,,,,,,,,,,,i,1,0.5699,,,,,,他的,i,,,1,58,138,67,1,,,,,,,,,,,,,,,,,,,,,,,,,,,,,,,,,,
,,,,,,,,,,,,,,1,001,2024-08-23_20h06.22.701,IAT(Formal),2021.2.3,Win32,59.52380952,,,,,,,,,,,,,,,e,1,0.5409,,,,,,乐观,e,,,1,59,139,14,1,,,,,,,,,,,,,,,,,,,,,,,,,,,,,,,,,,
,,,,,,,,,,,,,,1,001,2024-08-23_20h06.22.701,IAT(Formal),2021.2.3,Win32,59.52380952,,,,,,,,,,,,,,,e,1,0.4511,,,,,,热情,e,,,1,60,140,27,1,,,,,,,,,,,,,,,,,,,,,,,,,,,,,,,,,,
,,,,,,,,,,,,,,1,001,2024-08-23_20h06.22.701,IAT(Formal),2021.2.3,Win32,59.52380952,,,,,,,,,,,,,,,i,1,0.4922,,,,,,他,i,,,1,61,141,75,1,,,,,,,,,,,,,,,,,,,,,,,,,,,,,,,,,,
,,,,,,,,,,,,,,1,001,2024-08-23_20h06.22.701,IAT(Formal),2021.2.3,Win32,59.52380952,,,,,,,,,,,,,,,i,1,0.5332,,,,,,其他,i,,,1,62,142,69,1,,,,,,,,,,,,,,,,,,,,,,,,,,,,,,,,,,
,,,,,,,,,,,,,,1,001,2024-08-23_20h06.22.701,IAT(Formal),2021.2.3,Win32,59.52380952,,,,,,,,,,,,,,,e,1,0.507,,,,,,自己,e,,,1,63,143,53,1,,,,,,,,,,,,,,,,,,,,,,,,,,,,,,,,,,
,,,,,,,,,,,,,,1,001,2024-08-23_20h06.22.701,IAT(Formal),2021.2.3,Win32,59.52380952,,,,,,,,,,,,,,,e,1,0.5332,,,,,,我,e,,,1,64,144,0,1,,,,,,,,,,,,,,,,,,,,,,,,,,,,,,,,,,
,,,,,,,,,,,,,,1,001,2024-08-23_20h06.22.701,IAT(Formal),2021.2.3,Win32,59.52380952,,,,,,,,,,,,,,,e,1,0.6728,,,,,,诚恳,e,,,1,65,145,29,1,,,,,,,,,,,,,,,,,,,,,,,,,,,,,,,,,,
,,,,,,,,,,,,,,1,001,2024-08-23_20h06.22.701,IAT(Formal),2021.2.3,Win32,59.52380952,,,,,,,,,,,,,,,i,1,0.5134,,,,,,他的,i,,,1,66,146,57,1,,,,,,,,,,,,,,,,,,,,,,,,,,,,,,,,,,
,,,,,,,,,,,,,,1,001,2024-08-23_20h06.22.701,IAT(Formal),2021.2.3,Win32,59.52380952,,,,,,,,,,,,,,,i,1,0.4971,,,,,,他们,i,,,1,67,147,6,1,,,,,,,,,,,,,,,,,,,,,,,,,,,,,,,,,,
,,,,,,,,,,,,,,1,001,2024-08-23_20h06.22.701,IAT(Formal),2021.2.3,Win32,59.52380952,,,,,,,,,,,,,,,e,1,0.5002,,,,,,细腻,e,,,1,68,148,25,1,,,,,,,,,,,,,,,,,,,,,,,,,,,,,,,,,,
,,,,,,,,,,,,,,1,001,2024-08-23_20h06.22.701,IAT(Formal),2021.2.3,Win32,59.52380952,,,,,,,,,,,,,,,i,1,0.5696,,,,,,卑鄙,i,,,1,69,149,30,1,,,,,,,,,,,,,,,,,,,,,,,,,,,,,,,,,,
,,,,,,,,,,,,,,1,001,2024-08-23_20h06.22.701,IAT(Formal),2021.2.3,Win32,59.52380952,,,,,,,,,,,,,,,i,1,0.5899,,,,,,其他,i,,,1,70,150,59,1,,,,,,,,,,,,,,,,,,,,,,,,,,,,,,,,,,
,,,,,,,,,,,,,,1,001,2024-08-23_20h06.22.701,IAT(Formal),2021.2.3,Win32,59.52380952,,,,,,,,,,,,,,,i,1,0.6179,,,,,,自私,i,,,1,71,151,43,1,,,,,,,,,,,,,,,,,,,,,,,,,,,,,,,,,,
,,,,,,,,,,,,,,1,001,2024-08-23_20h06.22.701,IAT(Formal),2021.2.3,Win32,59.52380952,,,,,,,,,,,,,,,i,1,0.5727,,,,,,自卑,i,,,1,72,152,36,1,,,,,,,,,,,,,,,,,,,,,,,,,,,,,,,,,,
,,,,,,,,,,,,,,1,001,2024-08-23_20h06.22.701,IAT(Formal),2021.2.3,Win32,59.52380952,,,,,,,,,,,,,,,e,1,0.6577,,,,,,无私,e,,,1,73,153,22,1,,,,,,,,,,,,,,,,,,,,,,,,,,,,,,,,,,
,,,,,,,,,,,,,,1,001,2024-08-23_20h06.22.701,IAT(Formal),2021.2.3,Win32,59.52380952,,,,,,,,,,,,,,,i,1,0.5423,,,,,,他人,i,,,1,74,154,8,1,,,,,,,,,,,,,,,,,,,,,,,,,,,,,,,,,,
,,,,,,,,,,,,,,1,001,2024-08-23_20h06.22.701,IAT(Formal),2021.2.3,Win32,59.52380952,,,,,,,,,,,,,,,e,1,0.4258,,,,,,我们,e,,,1,75,155,2,1,,,,,,,,,,,,,,,,,,,,,,,,,,,,,,,,,,
,,,,,,,,,,,,,,1,001,2024-08-23_20h06.22.701,IAT(Formal),2021.2.3,Win32,59.52380952,,,,,,,,,,,,,,,e,1,0.5341,,,,,,自己,e,,,1,76,156,3,1,,,,,,,,,,,,,,,,,,,,,,,,,,,,,,,,,,
,,,,,,,,,,,,,,1,001,2024-08-23_20h06.22.701,IAT(Formal),2021.2.3,Win32,59.52380952,,,,,,,,,,,,,,,i,1,0.4906,,,,,,刻薄,i,,,1,77,157,33,1,,,,,,,,,,,,,,,,,,,,,,,,,,,,,,,,,,
,,,,,,,,,,,,,,1,001,2024-08-23_20h06.22.701,IAT(Formal),2021.2.3,Win32,59.52380952,,,,,,,,,,,,,,,e,1,0.5346,,,,,,我,e,,,1,78,158,60,1,,,,,,,,,,,,,,,,,,,,,,,,,,,,,,,,,,
,,,,,,,,,,,,,,1,001,2024-08-23_20h06.22.701,IAT(Formal),2021.2.3,Win32,59.52380952,,,,,,,,,,,,,,,i,1,0.5697,,,,,,他的,i,,,1,79,159,77,1,,,,,,,,,,,,,,,,,,,,,,,,,,,,,,,,,,
,,,,,,,,,,,,我的,i,1,001,2024-08-23_20h06.22.701,IAT(Formal),2021.2.3,Win32,59.52380952,,,,,,,,,,,,,,,,,,,,,,,,,,,,,,,,space,447.4519,e,0,0.7703,0,0,0,1,1,,,,,,,,,,,,,,,,,,,,,,,,
,,,,,,,,,,,,自己,i,1,001,2024-08-23_20h06.22.701,IAT(Formal),2021.2.3,Win32,59.52380952,,,,,,,,,,,,,,,,,,,,,,,,,,,,,,,,,,i,1,0.7835,0,1,1,3,1,,,,,,,,,,,,,,,,,,,,,,,,
,,,,,,,,,,,,他的,e,1,001,2024-08-23_20h06.22.701,IAT(Formal),2021.2.3,Win32,59.52380952,,,,,,,,,,,,,,,,,,,,,,,,,,,,,,,,,,e,1,0.8012,0,2,2,7,1,,,,,,,,,,,,,,,,,,,,,,,,
,,,,,,,,,,,,他们,e,1,001,2024-08-23_20h06.22.701,IAT(Formal),2021.2.3,Win32,59.52380952,,,,,,,,,,,,,,,,,,,,,,,,,,,,,,,,,,e,1,0.5013,0,3,3,6,1,,,,,,,,,,,,,,,,,,,,,,,,
,,,,,,,,,,,,我,i,1,001,2024-08-23_20h06.22.701,IAT(Formal),2021.2.3,Win32,59.52380952,,,,,,,,,,,,,,,,,,,,,,,,,,,,,,,,,,i,1,0.8048,0,4,4,0,1,,,,,,,,,,,,,,,,,,,,,,,,
,,,,,,,,,,,,他,e,1,001,2024-08-23_20h06.22.701,IAT(Formal),2021.2.3,Win32,59.52380952,,,,,,,,,,,,,,,,,,,,,,,,,,,,,,,,,,e,1,0.6579,0,5,5,5,1,,,,,,,,,,,,,,,,,,,,,,,,
,,,,,,,,,,,,他人,e,1,001,2024-08-23_20h06.22.701,IAT(Formal),2021.2.3,Win32,59.52380952,,,,,,,,,,,,,,,,,,,,,,,,,,,,,,,,,,e,1,0.659,0,6,6,8,1,,,,,,,,,,,,,,,,,,,,,,,,
,,,,,,,,,,,,我们,i,1,001,2024-08-23_20h06.22.701,IAT(Formal),2021.2.3,Win32,59.52380952,,,,,,,,,,,,,,,,,,,,,,,,,,,,,,,,,,e,0,0.621,0,7,7,2,1,,,,,,,,,,,,,,,,,,,,,,,,
,,,,,,,,,,,,其他,e,1,001,2024-08-23_20h06.22.701,IAT(Formal),2021.2.3,Win32,59.52380952,,,,,,,,,,,,,,,,,,,,,,,,,,,,,,,,,,e,1,0.6173,0,8,8,9,1,,,,,,,,,,,,,,,,,,,,,,,,
,,,,,,,,,,,,俺,i,1,001,2024-08-23_20h06.22.701,IAT(Formal),2021.2.3,Win32,59.52380952,,,,,,,,,,,,,,,,,,,,,,,,,,,,,,,,,,i,1,0.6748,0,9,9,4,1,,,,,,,,,,,,,,,,,,,,,,,,
,,,,,,,,,,,,,,1,001,2024-08-23_20h06.22.701,IAT(Formal),2021.2.3,Win32,59.52380952,,,,,,,,,,,,,,,,,,,,,,,,,,,,,,,,,,,,,,,,,,space,39.6499,i,1,0.6148,0,0,0,70,1,我,i,,,,,,,,,,,,
,,,,,,,,,,,,,,1,001,2024-08-23_20h06.22.701,IAT(Formal),2021.2.3,Win32,59.52380952,,,,,,,,,,,,,,,,,,,,,,,,,,,,,,,,,,,,,,,,,,,,i,0,0.7926,0,1,1,18,1,勤奋,e,,,,,,,,,,,,
,,,,,,,,,,,,,,1,001,2024-08-23_20h06.22.701,IAT(Formal),2021.2.3,Win32,59.52380952,,,,,,,,,,,,,,,,,,,,,,,,,,,,,,,,,,,,,,,,,,,,i,0,1.4195,0,2,2,22,1,无私,e,,,,,,,,,,,,
,,,,,,,,,,,,,,1,001,2024-08-23_20h06.22.701,IAT(Formal),2021.2.3,Win32,59.52380952,,,,,,,,,,,,,,,,,,,,,,,,,,,,,,,,,,,,,,,,,,,,e,0,0.8391,0,3,3,4,1,俺,i,,,,,,,,,,,,
,,,,,,,,,,,,,,1,001,2024-08-23_20h06.22.701,IAT(Formal),2021.2.3,Win32,59.52380952,,,,,,,,,,,,,,,,,,,,,,,,,,,,,,,,,,,,,,,,,,,,i,1,0.4849,0,4,4,39,1,冒失,i,,,,,,,,,,,,
,,,,,,,,,,,,,,1,001,2024-08-23_20h06.22.701,IAT(Formal),2021.2.3,Win32,59.52380952,,,,,,,,,,,,,,,,,,,,,,,,,,,,,,,,,,,,,,,,,,,,e,1,1.0359,0,5,5,26,1,冷静,e,,,,,,,,,,,,
,,,,,,,,,,,,,,1,001,2024-08-23_20h06.22.701,IAT(Formal),2021.2.3,Win32,59.52380952,,,,,,,,,,,,,,,,,,,,,,,,,,,,,,,,,,,,,,,,,,,,i,1,0.858,0,6,6,43,1,自私,i,,,,,,,,,,,,
,,,,,,,,,,,,,,1,001,2024-08-23_20h06.22.701,IAT(Formal),2021.2.3,Win32,59.52380952,,,,,,,,,,,,,,,,,,,,,,,,,,,,,,,,,,,,,,,,,,,,e,1,1.4141,0,7,7,9,1,其他,e,,,,,,,,,,,,
,,,,,,,,,,,,,,1,001,2024-08-23_20h06.22.701,IAT(Formal),2021.2.3,Win32,59.52380952,,,,,,,,,,,,,,,,,,,,,,,,,,,,,,,,,,,,,,,,,,,,i,1,0.9176,0,8,8,48,1,轻率,i,,,,,,,,,,,,
,,,,,,,,,,,,,,1,001,2024-08-23_20h06.22.701,IAT(Formal),2021.2.3,Win32,59.52380952,,,,,,,,,,,,,,,,,,,,,,,,,,,,,,,,,,,,,,,,,,,,i,1,0.9435,0,9,9,51,1,我的,i,,,,,,,,,,,,
,,,,,,,,,,,,,,1,001,2024-08-23_20h06.22.701,IAT(Formal),2021.2.3,Win32,59.52380952,,,,,,,,,,,,,,,,,,,,,,,,,,,,,,,,,,,,,,,,,,,,i,1,0.8305,0,10,10,30,1,卑鄙,i,,,,,,,,,,,,
,,,,,,,,,,,,,,1,001,2024-08-23_20h06.22.701,IAT(Formal),2021.2.3,Win32,59.52380952,,,,,,,,,,,,,,,,,,,,,,,,,,,,,,,,,,,,,,,,,,,,i,1,1.0663,0,11,11,73,1,自己,i,,,,,,,,,,,,
,,,,,,,,,,,,,,1,001,2024-08-23_20h06.22.701,IAT(Formal),2021.2.3,Win32,59.52380952,,,,,,,,,,,,,,,,,,,,,,,,,,,,,,,,,,,,,,,,,,,,i,1,0.5895,0,12,12,3,1,自己,i,,,,,,,,,,,,
,,,,,,,,,,,,,,1,001,2024-08-23_20h06.22.701,IAT(Formal),2021.2.3,Win32,59.52380952,,,,,,,,,,,,,,,,,,,,,,,,,,,,,,,,,,,,,,,,,,,,i,1,0.8547,0,13,13,32,1,愚蠢,i,,,,,,,,,,,,
,,,,,,,,,,,,,,1,001,2024-08-23_20h06.22.701,IAT(Formal),2021.2.3,Win32,59.52380952,,,,,,,,,,,,,,,,,,,,,,,,,,,,,,,,,,,,,,,,,,,,e,1,1.0516,0,14,14,56,1,他们,e,,,,,,,,,,,,
,,,,,,,,,,,,,,1,001,2024-08-23_20h06.22.701,IAT(Formal),2021.2.3,Win32,59.52380952,,,,,,,,,,,,,,,,,,,,,,,,,,,,,,,,,,,,,,,,,,,,e,1,0.9092,0,15,15,67,1,他的,e,,,,,,,,,,,,
,,,,,,,,,,,,,,1,001,2024-08-23_20h06.22.701,IAT(Formal),2021.2.3,Win32,59.52380952,,,,,,,,,,,,,,,,,,,,,,,,,,,,,,,,,,,,,,,,,,,,i,1,0.8914,0,16,16,49,1,下贱,i,,,,,,,,,,,,
,,,,,,,,,,,,,,1,001,2024-08-23_20h06.22.701,IAT(Formal),2021.2.3,Win32,59.52380952,,,,,,,,,,,,,,,,,,,,,,,,,,,,,,,,,,,,,,,,,,,,i,1,0.7987,0,17,17,45,1,猖狂,i,,,,,,,,,,,,
,,,,,,,,,,,,,,1,001,2024-08-23_20h06.22.701,IAT(Formal),2021.2.3,Win32,59.52380952,,,,,,,,,,,,,,,,,,,,,,,,,,,,,,,,,,,,,,,,,,,,e,1,0.7538,0,18,18,23,1,公正,e,,,,,,,,,,,,
,,,,,,,,,,,,,,1,001,2024-08-23_20h06.22.701,IAT(Formal),2021.2.3,Win32,59.52380952,,,,,,,,,,,,,,,,,,,,,,,,,,,,,,,,,,,,,,,,,,,,e,1,0.9528,0,19,19,58,1,他人,e,,,,,,,,,,,,
,,,,,,,,,,,,,,1,001,2024-08-23_20h06.22.701,IAT(Formal),2021.2.3,Win32,59.52380952,,,,,,,,,,,,,,,,,,,,,,,,,,,,,,,,,,,,,,,,,,,,e,1,0.584,0,20,20,7,1,他的,e,,,,,,,,,,,,
,,,,,,,,,,,,,,1,001,2024-08-23_20h06.22.701,IAT(Formal),2021.2.3,Win32,59.52380952,,,,,,,,,,,,,,,,,,,,,,,,,,,,,,,,,,,,,,,,,,,,e,1,0.7312,0,21,21,12,1,聪明,e,,,,,,,,,,,,
,,,,,,,,,,,,,,1,001,2024-08-23_20h06.22.701,IAT(Formal),2021.2.3,Win32,59.52380952,,,,,,,,,,,,,,,,,,,,,,,,,,,,,,,,,,,,,,,,,,,,e,1,0.6494,0,22,22,24,1,朴实,e,,,,,,,,,,,,
,,,,,,,,,,,,,,1,001,2024-08-23_20h06.22.701,IAT(Formal),2021.2.3,Win32,59.52380952,,,,,,,,,,,,,,,,,,,,,,,,,,,,,,,,,,,,,,,,,,,,i,0,0.7115,0,23,23,55,1,他,e,,,,,,,,,,,,
,,,,,,,,,,,,,,1,001,2024-08-23_20h06.22.701,IAT(Formal),2021.2.3,Win32,59.52380952,,,,,,,,,,,,,,,,,,,,,,,,,,,,,,,,,,,,,,,,,,,,i,1,0.8244,0,24,24,36,1,自卑,i,,,,,,,,,,,,
,,,,,,,,,,,,,,1,001,2024-08-23_20h06.22.701,IAT(Formal),2021.2.3,Win32,59.52380952,,,,,,,,,,,,,,,,,,,,,,,,,,,,,,,,,,,,,,,,,,,,i,1,0.6404,0,25,25,62,1,我们,i,,,,,,,,,,,,
,,,,,,,,,,,,,,1,001,2024-08-23_20h06.22.701,IAT(Formal),2021.2.3,Win32,59.52380952,,,,,,,,,,,,,,,,,,,,,,,,,,,,,,,,,,,,,,,,,,,,i,1,0.6991,0,26,26,34,1,悲观,i,,,,,,,,,,,,
,,,,,,,,,,,,,,1,001,2024-08-23_20h06.22.701,IAT(Formal),2021.2.3,Win32,59.52380952,,,,,,,,,,,,,,,,,,,,,,,,,,,,,,,,,,,,,,,,,,,,i,1,0.6278,0,27,27,31,1,虚伪,i,,,,,,,,,,,,
,,,,,,,,,,,,,,1,001,2024-08-23_20h06.22.701,IAT(Formal),2021.2.3,Win32,59.52380952,,,,,,,,,,,,,,,,,,,,,,,,,,,,,,,,,,,,,,,,,,,,i,1,0.6403,0,28,28,2,1,我们,i,,,,,,,,,,,,
,,,,,,,,,,,,,,1,001,2024-08-23_20h06.22.701,IAT(Formal),2021.2.3,Win32,59.52380952,,,,,,,,,,,,,,,,,,,,,,,,,,,,,,,,,,,,,,,,,,,,i,1,0.6741,0,29,29,37,1,傲慢,i,,,,,,,,,,,,
,,,,,,,,,,,,,,1,001,2024-08-23_20h06.22.701,IAT(Formal),2021.2.3,Win32,59.52380952,,,,,,,,,,,,,,,,,,,,,,,,,,,,,,,,,,,,,,,,,,,,e,1,0.8659,0,30,30,10,1,优秀,e,,,,,,,,,,,,
,,,,,,,,,,,,,,1,001,2024-08-23_20h06.22.701,IAT(Formal),2021.2.3,Win32,59.52380952,,,,,,,,,,,,,,,,,,,,,,,,,,,,,,,,,,,,,,,,,,,,e,1,0.448,0,31,31,13,1,杰出,e,,,,,,,,,,,,
,,,,,,,,,,,,,,1,001,2024-08-23_20h06.22.701,IAT(Formal),2021.2.3,Win32,59.52380952,,,,,,,,,,,,,,,,,,,,,,,,,,,,,,,,,,,,,,,,,,,,e,0,0.5017,0,32,32,64,1,俺,i,,,,,,,,,,,,
,,,,,,,,,,,,,,1,001,2024-08-23_20h06.22.701,IAT(Formal),2021.2.3,Win32,59.52380952,,,,,,,,,,,,,,,,,,,,,,,,,,,,,,,,,,,,,,,,,,,,e,1,0.6262,0,33,33,21,1,稳重,e,,,,,,,,,,,,
,,,,,,,,,,,,,,1,001,2024-08-23_20h06.22.701,IAT(Formal),2021.2.3,Win32,59.52380952,,,,,,,,,,,,,,,,,,,,,,,,,,,,,,,,,,,,,,,,,,,,i,1,0.7559,0,34,34,38,1,鲁莽,i,,,,,,,,,,,,
,,,,,,,,,,,,,,1,001,2024-08-23_20h06.22.701,IAT(Formal),2021.2.3,Win32,59.52380952,,,,,,,,,,,,,,,,,,,,,,,,,,,,,,,,,,,,,,,,,,,,e,1,0.5697,0,35,35,16,1,正直,e,,,,,,,,,,,,
,,,,,,,,,,,,,,1,001,2024-08-23_20h06.22.701,IAT(Formal),2021.2.3,Win32,59.52380952,,,,,,,,,,,,,,,,,,,,,,,,,,,,,,,,,,,,,,,,,,,,e,1,0.6972,0,36,36,68,1,他人,e,,,,,,,,,,,,
,,,,,,,,,,,,,,1,001,2024-08-23_20h06.22.701,IAT(Formal),2021.2.3,Win32,59.52380952,,,,,,,,,,,,,,,,,,,,,,,,,,,,,,,,,,,,,,,,,,,,e,1,0.7438,0,37,37,19,1,机智,e,,,,,,,,,,,,
,,,,,,,,,,,,,,1,001,2024-08-23_20h06.22.701,IAT(Formal),2021.2.3,Win32,59.52380952,,,,,,,,,,,,,,,,,,,,,,,,,,,,,,,,,,,,,,,,,,,,e,1,0.5667,0,38,38,66,1,他们,e,,,,,,,,,,,,
,,,,,,,,,,,,,,1,001,2024-08-23_20h06.22.701,IAT(Formal),2021.2.3,Win32,59.52380952,,,,,,,,,,,,,,,,,,,,,,,,,,,,,,,,,,,,,,,,,,,,e,1,0.4387,0,39,39,76,1,他们,e,,,,,,,,,,,,
,,,,,,,,,,,,,,1,001,2024-08-23_20h06.22.701,IAT(Formal),2021.2.3,Win32,59.52380952,,,,,,,,,,,,,,,,,,,,,,,,,,,,,,,,,,,,,,,,,,,,e,1,0.6304,0,40,40,28,1,活泼,e,,,,,,,,,,,,
,,,,,,,,,,,,,,1,001,2024-08-23_20h06.22.701,IAT(Formal),2021.2.3,Win32,59.52380952,,,,,,,,,,,,,,,,,,,,,,,,,,,,,,,,,,,,,,,,,,,,e,1,0.6499,0,41,41,77,1,他的,e,,,,,,,,,,,,
,,,,,,,,,,,,,,1,001,2024-08-23_20h06.22.701,IAT(Formal),2021.2.3,Win32,59.52380952,,,,,,,,,,,,,,,,,,,,,,,,,,,,,,,,,,,,,,,,,,,,i,1,0.4761,0,42,42,41,1,散漫,i,,,,,,,,,,,,
,,,,,,,,,,,,,,1,001,2024-08-23_20h06.22.701,IAT(Formal),2021.2.3,Win32,59.52380952,,,,,,,,,,,,,,,,,,,,,,,,,,,,,,,,,,,,,,,,,,,,i,0,0.5183,0,43,43,79,1,其他,e,,,,,,,,,,,,
,,,,,,,,,,,,,,1,001,2024-08-23_20h06.22.701,IAT(Formal),2021.2.3,Win32,59.52380952,,,,,,,,,,,,,,,,,,,,,,,,,,,,,,,,,,,,,,,,,,,,e,1,0.6687,0,44,44,14,1,乐观,e,,,,,,,,,,,,
,,,,,,,,,,,,,,1,001,2024-08-23_20h06.22.701,IAT(Formal),2021.2.3,Win32,59.52380952,,,,,,,,,,,,,,,,,,,,,,,,,,,,,,,,,,,,,,,,,,,,e,0,0.5671,0,45,45,42,1,凶狠,i,,,,,,,,,,,,
,,,,,,,,,,,,,,1,001,2024-08-23_20h06.22.701,IAT(Formal),2021.2.3,Win32,59.52380952,,,,,,,,,,,,,,,,,,,,,,,,,,,,,,,,,,,,,,,,,,,,i,1,0.5247,0,46,46,47,1,固执,i,,,,,,,,,,,,
,,,,,,,,,,,,,,1,001,2024-08-23_20h06.22.701,IAT(Formal),2021.2.3,Win32,59.52380952,,,,,,,,,,,,,,,,,,,,,,,,,,,,,,,,,,,,,,,,,,,,i,1,0.9867,0,47,47,74,1,俺,i,,,,,,,,,,,,
,,,,,,,,,,,,,,1,001,2024-08-23_20h06.22.701,IAT(Formal),2021.2.3,Win32,59.52380952,,,,,,,,,,,,,,,,,,,,,,,,,,,,,,,,,,,,,,,,,,,,i,0,0.6337,0,48,48,69,1,其他,e,,,,,,,,,,,,
,,,,,,,,,,,,,,1,001,2024-08-23_20h06.22.701,IAT(Formal),2021.2.3,Win32,59.52380952,,,,,,,,,,,,,,,,,,,,,,,,,,,,,,,,,,,,,,,,,,,,e,1,0.3969,0,49,49,15,1,诚实,e,,,,,,,,,,,,
,,,,,,,,,,,,,,1,001,2024-08-23_20h06.22.701,IAT(Formal),2021.2.3,Win32,59.52380952,,,,,,,,,,,,,,,,,,,,,,,,,,,,,,,,,,,,,,,,,,,,i,1,0.6211,0,50,50,46,1,野蛮,i,,,,,,,,,,,,
,,,,,,,,,,,,,,1,001,2024-08-23_20h06.22.701,IAT(Formal),2021.2.3,Win32,59.52380952,,,,,,,,,,,,,,,,,,,,,,,,,,,,,,,,,,,,,,,,,,,,e,1,0.5316,0,51,51,20,1,认真,e,,,,,,,,,,,,
,,,,,,,,,,,,,,1,001,2024-08-23_20h06.22.701,IAT(Formal),2021.2.3,Win32,59.52380952,,,,,,,,,,,,,,,,,,,,,,,,,,,,,,,,,,,,,,,,,,,,e,1,0.8823,0,52,52,65,1,他,e,,,,,,,,,,,,
,,,,,,,,,,,,,,1,001,2024-08-23_20h06.22.701,IAT(Formal),2021.2.3,Win32,59.52380952,,,,,,,,,,,,,,,,,,,,,,,,,,,,,,,,,,,,,,,,,,,,i,1,0.7482,0,53,53,72,1,我们,i,,,,,,,,,,,,
,,,,,,,,,,,,,,1,001,2024-08-23_20h06.22.701,IAT(Formal),2021.2.3,Win32,59.52380952,,,,,,,,,,,,,,,,,,,,,,,,,,,,,,,,,,,,,,,,,,,,e,1,0.7304,0,54,54,78,1,他人,e,,,,,,,,,,,,
,,,,,,,,,,,,,,1,001,2024-08-23_20h06.22.701,IAT(Formal),2021.2.3,Win32,59.52380952,,,,,,,,,,,,,,,,,,,,,,,,,,,,,,,,,,,,,,,,,,,,e,0,0.8914,0,55,55,60,1,我,i,,,,,,,,,,,,
,,,,,,,,,,,,,,1,001,2024-08-23_20h06.22.701,IAT(Formal),2021.2.3,Win32,59.52380952,,,,,,,,,,,,,,,,,,,,,,,,,,,,,,,,,,,,,,,,,,,,e,1,0.6506,0,56,56,5,1,他,e,,,,,,,,,,,,
,,,,,,,,,,,,,,1,001,2024-08-23_20h06.22.701,IAT(Formal),2021.2.3,Win32,59.52380952,,,,,,,,,,,,,,,,,,,,,,,,,,,,,,,,,,,,,,,,,,,,e,1,0.587,0,57,57,8,1,他人,e,,,,,,,,,,,,
,,,,,,,,,,,,,,1,001,2024-08-23_20h06.22.701,IAT(Formal),2021.2.3,Win32,59.52380952,,,,,,,,,,,,,,,,,,,,,,,,,,,,,,,,,,,,,,,,,,,,i,1,0.7375,0,58,58,54,1,俺,i,,,,,,,,,,,,
,,,,,,,,,,,,,,1,001,2024-08-23_20h06.22.701,IAT(Formal),2021.2.3,Win32,59.52380952,,,,,,,,,,,,,,,,,,,,,,,,,,,,,,,,,,,,,,,,,,,,i,1,0.5839,0,59,59,35,1,消极,i,,,,,,,,,,,,
,,,,,,,,,,,,,,1,001,2024-08-23_20h06.22.701,IAT(Formal),2021.2.3,Win32,59.52380952,,,,,,,,,,,,,,,,,,,,,,,,,,,,,,,,,,,,,,,,,,,,e,1,0.6153,0,60,60,11,1,崇高,e,,,,,,,,,,,,
,,,,,,,,,,,,,,1,001,2024-08-23_20h06.22.701,IAT(Formal),2021.2.3,Win32,59.52380952,,,,,,,,,,,,,,,,,,,,,,,,,,,,,,,,,,,,,,,,,,,,i,1,0.823,0,61,61,1,1,我的,i,,,,,,,,,,,,
,,,,,,,,,,,,,,1,001,2024-08-23_20h06.22.701,IAT(Formal),2021.2.3,Win32,59.52380952,,,,,,,,,,,,,,,,,,,,,,,,,,,,,,,,,,,,,,,,,,,,i,1,0.6299,0,62,62,61,1,我的,i,,,,,,,,,,,,
,,,,,,,,,,,,,,1,001,2024-08-23_20h06.22.701,IAT(Formal),2021.2.3,Win32,59.52380952,,,,,,,,,,,,,,,,,,,,,,,,,,,,,,,,,,,,,,,,,,,,i,1,0.6155,0,63,63,33,1,刻薄,i,,,,,,,,,,,,
,,,,,,,,,,,,,,1,001,2024-08-23_20h06.22.701,IAT(Formal),2021.2.3,Win32,59.52380952,,,,,,,,,,,,,,,,,,,,,,,,,,,,,,,,,,,,,,,,,,,,e,1,0.6909,0,64,64,57,1,他的,e,,,,,,,,,,,,
,,,,,,,,,,,,,,1,001,2024-08-23_20h06.22.701,IAT(Formal),2021.2.3,Win32,59.52380952,,,,,,,,,,,,,,,,,,,,,,,,,,,,,,,,,,,,,,,,,,,,i,1,0.5978,0,65,65,40,1,执拗,i,,,,,,,,,,,,
,,,,,,,,,,,,,,1,001,2024-08-23_20h06.22.701,IAT(Formal),2021.2.3,Win32,59.52380952,,,,,,,,,,,,,,,,,,,,,,,,,,,,,,,,,,,,,,,,,,,,i,1,0.9189,0,66,66,52,1,我们,i,,,,,,,,,,,,
,,,,,,,,,,,,,,1,001,2024-08-23_20h06.22.701,IAT(Formal),2021.2.3,Win32,59.52380952,,,,,,,,,,,,,,,,,,,,,,,,,,,,,,,,,,,,,,,,,,,,i,1,0.8799,0,67,67,63,1,自己,i,,,,,,,,,,,,
,,,,,,,,,,,,,,1,001,2024-08-23_20h06.22.701,IAT(Formal),2021.2.3,Win32,59.52380952,,,,,,,,,,,,,,,,,,,,,,,,,,,,,,,,,,,,,,,,,,,,i,1,0.5614,0,68,68,53,1,自己,i,,,,,,,,,,,,
,,,,,,,,,,,,,,1,001,2024-08-23_20h06.22.701,IAT(Formal),2021.2.3,Win32,59.52380952,,,,,,,,,,,,,,,,,,,,,,,,,,,,,,,,,,,,,,,,,,,,i,1,0.5653,0,69,69,50,1,我,i,,,,,,,,,,,,
,,,,,,,,,,,,,,1,001,2024-08-23_20h06.22.701,IAT(Formal),2021.2.3,Win32,59.52380952,,,,,,,,,,,,,,,,,,,,,,,,,,,,,,,,,,,,,,,,,,,,e,1,0.7386,0,70,70,27,1,热情,e,,,,,,,,,,,,
,,,,,,,,,,,,,,1,001,2024-08-23_20h06.22.701,IAT(Formal),2021.2.3,Win32,59.52380952,,,,,,,,,,,,,,,,,,,,,,,,,,,,,,,,,,,,,,,,,,,,e,1,1.099,0,71,71,6,1,他们,e,,,,,,,,,,,,
,,,,,,,,,,,,,,1,001,2024-08-23_20h06.22.701,IAT(Formal),2021.2.3,Win32,59.52380952,,,,,,,,,,,,,,,,,,,,,,,,,,,,,,,,,,,,,,,,,,,,e,1,0.6027,0,72,72,17,1,勇敢,e,,,,,,,,,,,,
,,,,,,,,,,,,,,1,001,2024-08-23_20h06.22.701,IAT(Formal),2021.2.3,Win32,59.52380952,,,,,,,,,,,,,,,,,,,,,,,,,,,,,,,,,,,,,,,,,,,,i,0,0.6157,0,73,73,59,1,其他,e,,,,,,,,,,,,
,,,,,,,,,,,,,,1,001,2024-08-23_20h06.22.701,IAT(Formal),2021.2.3,Win32,59.52380952,,,,,,,,,,,,,,,,,,,,,,,,,,,,,,,,,,,,,,,,,,,,e,1,0.7137,0,74,74,25,1,细腻,e,,,,,,,,,,,,
,,,,,,,,,,,,,,1,001,2024-08-23_20h06.22.701,IAT(Formal),2021.2.3,Win32,59.52380952,,,,,,,,,,,,,,,,,,,,,,,,,,,,,,,,,,,,,,,,,,,,e,1,0.554,0,75,75,29,1,诚恳,e,,,,,,,,,,,,
,,,,,,,,,,,,,,1,001,2024-08-23_20h06.22.701,IAT(Formal),2021.2.3,Win32,59.52380952,,,,,,,,,,,,,,,,,,,,,,,,,,,,,,,,,,,,,,,,,,,,e,1,1.0633,0,76,76,75,1,他,e,,,,,,,,,,,,
,,,,,,,,,,,,,,1,001,2024-08-23_20h06.22.701,IAT(Formal),2021.2.3,Win32,59.52380952,,,,,,,,,,,,,,,,,,,,,,,,,,,,,,,,,,,,,,,,,,,,i,1,0.9953,0,77,77,44,1,暴躁,i,,,,,,,,,,,,
,,,,,,,,,,,,,,1,001,2024-08-23_20h06.22.701,IAT(Formal),2021.2.3,Win32,59.52380952,,,,,,,,,,,,,,,,,,,,,,,,,,,,,,,,,,,,,,,,,,,,e,0,1.1293,0,78,78,0,1,我,i,,,,,,,,,,,,
,,,,,,,,,,,,,,1,001,2024-08-23_20h06.22.701,IAT(Formal),2021.2.3,Win32,59.52380952,,,,,,,,,,,,,,,,,,,,,,,,,,,,,,,,,,,,,,,,,,,,i,1,0.5541,0,79,79,71,1,我的,i,,,,,,,,,,,,
,,,,,,,,,,,,,,1,001,2024-08-23_20h06.22.701,IAT(Formal),2021.2.3,Win32,59.52380952,,,,,,,,,,,,,,,,,,,,,,,,,,,,,,,,,,,,,,,,,,,,,,,,,,,,自己,i,space,122.6356,i,1,0.8078,0,0,0,3,1,,
,,,,,,,,,,,,,,1,001,2024-08-23_20h06.22.701,IAT(Formal),2021.2.3,Win32,59.52380952,,,,,,,,,,,,,,,,,,,,,,,,,,,,,,,,,,,,,,,,,,,,,,,,,,,,正直,e,,,e,1,0.5568,0,1,1,16,1,,
,,,,,,,,,,,,,,1,001,2024-08-23_20h06.22.701,IAT(Formal),2021.2.3,Win32,59.52380952,,,,,,,,,,,,,,,,,,,,,,,,,,,,,,,,,,,,,,,,,,,,,,,,,,,,暴躁,i,,,i,1,0.5534,0,2,2,44,1,,
,,,,,,,,,,,,,,1,001,2024-08-23_20h06.22.701,IAT(Formal),2021.2.3,Win32,59.52380952,,,,,,,,,,,,,,,,,,,,,,,,,,,,,,,,,,,,,,,,,,,,,,,,,,,,自卑,i,,,i,1,0.5906,0,3,3,36,1,,
,,,,,,,,,,,,,,1,001,2024-08-23_20h06.22.701,IAT(Formal),2021.2.3,Win32,59.52380952,,,,,,,,,,,,,,,,,,,,,,,,,,,,,,,,,,,,,,,,,,,,,,,,,,,,他人,e,,,e,1,0.7631,0,4,4,68,1,,
,,,,,,,,,,,,,,1,001,2024-08-23_20h06.22.701,IAT(Formal),2021.2.3,Win32,59.52380952,,,,,,,,,,,,,,,,,,,,,,,,,,,,,,,,,,,,,,,,,,,,,,,,,,,,悲观,i,,,i,1,0.8833,0,5,5,34,1,,
,,,,,,,,,,,,,,1,001,2024-08-23_20h06.22.701,IAT(Formal),2021.2.3,Win32,59.52380952,,,,,,,,,,,,,,,,,,,,,,,,,,,,,,,,,,,,,,,,,,,,,,,,,,,,散漫,i,,,i,1,1.4249,0,6,6,41,1,,
,,,,,,,,,,,,,,1,001,2024-08-23_20h06.22.701,IAT(Formal),2021.2.3,Win32,59.52380952,,,,,,,,,,,,,,,,,,,,,,,,,,,,,,,,,,,,,,,,,,,,,,,,,,,,我的,i,,,i,1,0.2453,0,7,7,71,1,,
,,,,,,,,,,,,,,1,001,2024-08-23_20h06.22.701,IAT(Formal),2021.2.3,Win32,59.52380952,,,,,,,,,,,,,,,,,,,,,,,,,,,,,,,,,,,,,,,,,,,,,,,,,,,,俺,i,,,,0,,0,8,8,64,1,,
,,,,,,,,,,,,,,1,001,2024-08-23_20h06.22.701,IAT(Formal),2021.2.3,Win32,59.52380952,,,,,,,,,,,,,,,,,,,,,,,,,,,,,,,,,,,,,,,,,,,,,,,,,,,,自己,i,,,i,1,0.3114,0,9,9,73,1,,
,,,,,,,,,,,,,,1,001,2024-08-23_20h06.22.701,IAT(Formal),2021.2.3,Win32,59.52380952,,,,,,,,,,,,,,,,,,,,,,,,,,,,,,,,,,,,,,,,,,,,,,,,,,,,俺,i,,,,0,,0,10,10,54,1,,
,,,,,,,,,,,,,,1,001,2024-08-23_20h06.22.701,IAT(Formal),2021.2.3,Win32,59.52380952,,,,,,,,,,,,,,,,,,,,,,,,,,,,,,,,,,,,,,,,,,,,,,,,,,,,自私,i,,,i,1,1.2404,0,11,11,43,1,,
,,,,,,,,,,,,,,1,001,2024-08-23_20h06.22.701,IAT(Formal),2021.2.3,Win32,59.52380952,,,,,,,,,,,,,,,,,,,,,,,,,,,,,,,,,,,,,,,,,,,,,,,,,,,,猖狂,i,,,i,1,0.8109,0,12,12,45,1,,
,,,,,,,,,,,,,,1,001,2024-08-23_20h06.22.701,IAT(Formal),2021.2.3,Win32,59.52380952,,,,,,,,,,,,,,,,,,,,,,,,,,,,,,,,,,,,,,,,,,,,,,,,,,,,虚伪,i,,,i,1,0.8475,0,13,13,31,1,,
,,,,,,,,,,,,,,1,001,2024-08-23_20h06.22.701,IAT(Formal),2021.2.3,Win32,59.52380952,,,,,,,,,,,,,,,,,,,,,,,,,,,,,,,,,,,,,,,,,,,,,,,,,,,,傲慢,i,,,i,1,0.3534,0,14,14,37,1,,
,,,,,,,,,,,,,,1,001,2024-08-23_20h06.22.701,IAT(Formal),2021.2.3,Win32,59.52380952,,,,,,,,,,,,,,,,,,,,,,,,,,,,,,,,,,,,,,,,,,,,,,,,,,,,我们,i,,,e,0,0.3025,0,15,15,62,1,,
,,,,,,,,,,,,,,1,001,2024-08-23_20h06.22.701,IAT(Formal),2021.2.3,Win32,59.52380952,,,,,,,,,,,,,,,,,,,,,,,,,,,,,,,,,,,,,,,,,,,,,,,,,,,,他,e,,,e,1,0.7362,0,16,16,55,1,,
,,,,,,,,,,,,,,1,001,2024-08-23_20h06.22.701,IAT(Formal),2021.2.3,Win32,59.52380952,,,,,,,,,,,,,,,,,,,,,,,,,,,,,,,,,,,,,,,,,,,,,,,,,,,,冒失,i,,,i,1,0.612,0,17,17,39,1,,
,,,,,,,,,,,,,,1,001,2024-08-23_20h06.22.701,IAT(Formal),2021.2.3,Win32,59.52380952,,,,,,,,,,,,,,,,,,,,,,,,,,,,,,,,,,,,,,,,,,,,,,,,,,,,执拗,i,,,i,1,0.6881,0,18,18,40,1,,
,,,,,,,,,,,,,,1,001,2024-08-23_20h06.22.701,IAT(Formal),2021.2.3,Win32,59.52380952,,,,,,,,,,,,,,,,,,,,,,,,,,,,,,,,,,,,,,,,,,,,,,,,,,,,他的,e,,,i,0,1.417,0,19,19,67,1,,
,,,,,,,,,,,,,,1,001,2024-08-23_20h06.22.701,IAT(Formal),2021.2.3,Win32,59.52380952,,,,,,,,,,,,,,,,,,,,,,,,,,,,,,,,,,,,,,,,,,,,,,,,,,,,俺,i,,,e,0,0.6769,0,20,20,74,1,,
,,,,,,,,,,,,,,1,001,2024-08-23_20h06.22.701,IAT(Formal),2021.2.3,Win32,59.52380952,,,,,,,,,,,,,,,,,,,,,,,,,,,,,,,,,,,,,,,,,,,,,,,,,,,,其他,e,,,i,0,0.621,0,21,21,59,1,,
,,,,,,,,,,,,,,1,001,2024-08-23_20h06.22.701,IAT(Formal),2021.2.3,Win32,59.52380952,,,,,,,,,,,,,,,,,,,,,,,,,,,,,,,,,,,,,,,,,,,,,,,,,,,,诚恳,e,,,,0,,0,22,22,29,1,,
,,,,,,,,,,,,,,1,001,2024-08-23_20h06.22.701,IAT(Formal),2021.2.3,Win32,59.52380952,,,,,,,,,,,,,,,,,,,,,,,,,,,,,,,,,,,,,,,,,,,,,,,,,,,,细腻,e,,,i,0,1.0191,0,23,23,25,1,,
,,,,,,,,,,,,,,1,001,2024-08-23_20h06.22.701,IAT(Formal),2021.2.3,Win32,59.52380952,,,,,,,,,,,,,,,,,,,,,,,,,,,,,,,,,,,,,,,,,,,,,,,,,,,,勤奋,e,,,,0,,0,24,24,18,1,,
,,,,,,,,,,,,,,1,001,2024-08-23_20h06.22.701,IAT(Formal),2021.2.3,Win32,59.52380952,,,,,,,,,,,,,,,,,,,,,,,,,,,,,,,,,,,,,,,,,,,,,,,,,,,,我们,i,,,i,1,0.6667,0,25,25,2,1,,
,,,,,,,,,,,,,,1,001,2024-08-23_20h06.22.701,IAT(Formal),2021.2.3,Win32,59.52380952,,,,,,,,,,,,,,,,,,,,,,,,,,,,,,,,,,,,,,,,,,,,,,,,,,,,轻率,i,,,e,0,0.5031,0,26,26,48,1,,
,,,,,,,,,,,,,,1,001,2024-08-23_20h06.22.701,IAT(Formal),2021.2.3,Win32,59.52380952,,,,,,,,,,,,,,,,,,,,,,,,,,,,,,,,,,,,,,,,,,,,,,,,,,,,我,i,,,i,1,0.6783,0,27,27,70,1,,
,,,,,,,,,,,,,,1,001,2024-08-23_20h06.22.701,IAT(Formal),2021.2.3,Win32,59.52380952,,,,,,,,,,,,,,,,,,,,,,,,,,,,,,,,,,,,,,,,,,,,,,,,,,,,我们,i,,,e,0,0.4708,0,28,28,52,1,,
,,,,,,,,,,,,,,1,001,2024-08-23_20h06.22.701,IAT(Formal),2021.2.3,Win32,59.52380952,,,,,,,,,,,,,,,,,,,,,,,,,,,,,,,,,,,,,,,,,,,,,,,,,,,,他的,e,,,i,0,0.5127,0,29,29,7,1,,
,,,,,,,,,,,,,,1,001,2024-08-23_20h06.22.701,IAT(Formal),2021.2.3,Win32,59.52380952,,,,,,,,,,,,,,,,,,,,,,,,,,,,,,,,,,,,,,,,,,,,,,,,,,,,俺,i,,,i,1,0.7356,0,30,30,4,1,,
,,,,,,,,,,,,,,1,001,2024-08-23_20h06.22.701,IAT(Formal),2021.2.3,Win32,59.52380952,,,,,,,,,,,,,,,,,,,,,,,,,,,,,,,,,,,,,,,,,,,,,,,,,,,,他人,e,,,e,1,0.8374,0,31,31,58,1,,
,,,,,,,,,,,,,,1,001,2024-08-23_20h06.22.701,IAT(Formal),2021.2.3,Win32,59.52380952,,,,,,,,,,,,,,,,,,,,,,,,,,,,,,,,,,,,,,,,,,,,,,,,,,,,他们,e,,,e,1,0.6791,0,32,32,6,1,,
,,,,,,,,,,,,,,1,001,2024-08-23_20h06.22.701,IAT(Formal),2021.2.3,Win32,59.52380952,,,,,,,,,,,,,,,,,,,,,,,,,,,,,,,,,,,,,,,,,,,,,,,,,,,,下贱,i,,,i,1,0.6494,0,33,33,49,1,,
,,,,,,,,,,,,,,1,001,2024-08-23_20h06.22.701,IAT(Formal),2021.2.3,Win32,59.52380952,,,,,,,,,,,,,,,,,,,,,,,,,,,,,,,,,,,,,,,,,,,,,,,,,,,,优秀,e,,,e,1,0.8184,0,34,34,10,1,,
,,,,,,,,,,,,,,1,001,2024-08-23_20h06.22.701,IAT(Formal),2021.2.3,Win32,59.52380952,,,,,,,,,,,,,,,,,,,,,,,,,,,,,,,,,,,,,,,,,,,,,,,,,,,,凶狠,i,,,e,0,0.0057,0,35,35,42,1,,
,,,,,,,,,,,,,,1,001,2024-08-23_20h06.22.701,IAT(Formal),2021.2.3,Win32,59.52380952,,,,,,,,,,,,,,,,,,,,,,,,,,,,,,,,,,,,,,,,,,,,,,,,,,,,我的,i,,,,0,,0,36,36,61,1,,
,,,,,,,,,,,,,,1,001,2024-08-23_20h06.22.701,IAT(Formal),2021.2.3,Win32,59.52380952,,,,,,,,,,,,,,,,,,,,,,,,,,,,,,,,,,,,,,,,,,,,,,,,,,,,稳重,e,,,,0,,0,37,37,21,1,,
,,,,,,,,,,,,,,1,001,2024-08-23_20h06.22.701,IAT(Formal),2021.2.3,Win32,59.52380952,,,,,,,,,,,,,,,,,,,,,,,,,,,,,,,,,,,,,,,,,,,,,,,,,,,,自己,i,,,,0,,0,38,38,63,1,,
,,,,,,,,,,,,,,1,001,2024-08-23_20h06.22.701,IAT(Formal),2021.2.3,Win32,59.52380952,,,,,,,,,,,,,,,,,,,,,,,,,,,,,,,,,,,,,,,,,,,,,,,,,,,,其他,e,,,i,0,1.1997,0,39,39,9,1,,
,,,,,,,,,,,,,,1,001,2024-08-23_20h06.22.701,IAT(Formal),2021.2.3,Win32,59.52380952,,,,,,,,,,,,,,,,,,,,,,,,,,,,,,,,,,,,,,,,,,,,,,,,,,,,他人,e,,,e,1,0.7397,0,40,40,78,1,,
,,,,,,,,,,,,,,1,001,2024-08-23_20h06.22.701,IAT(Formal),2021.2.3,Win32,59.52380952,,,,,,,,,,,,,,,,,,,,,,,,,,,,,,,,,,,,,,,,,,,,,,,,,,,,其他,e,,,i,0,0.6168,0,41,41,79,1,,
,,,,,,,,,,,,,,1,001,2024-08-23_20h06.22.701,IAT(Formal),2021.2.3,Win32,59.52380952,,,,,,,,,,,,,,,,,,,,,,,,,,,,,,,,,,,,,,,,,,,,,,,,,,,,他的,e,,,e,1,0.5303,0,42,42,77,1,,
,,,,,,,,,,,,,,1,001,2024-08-23_20h06.22.701,IAT(Formal),2021.2.3,Win32,59.52380952,,,,,,,,,,,,,,,,,,,,,,,,,,,,,,,,,,,,,,,,,,,,,,,,,,,,公正,e,,,e,1,0.7053,0,43,43,23,1,,
,,,,,,,,,,,,,,1,001,2024-08-23_20h06.22.701,IAT(Formal),2021.2.3,Win32,59.52380952,,,,,,,,,,,,,,,,,,,,,,,,,,,,,,,,,,,,,,,,,,,,,,,,,,,,他,e,,,i,0,0.529,0,44,44,65,1,,
,,,,,,,,,,,,,,1,001,2024-08-23_20h06.22.701,IAT(Formal),2021.2.3,Win32,59.52380952,,,,,,,,,,,,,,,,,,,,,,,,,,,,,,,,,,,,,,,,,,,,,,,,,,,,刻薄,i,,,i,1,0.8869,0,45,45,33,1,,
,,,,,,,,,,,,,,1,001,2024-08-23_20h06.22.701,IAT(Formal),2021.2.3,Win32,59.52380952,,,,,,,,,,,,,,,,,,,,,,,,,,,,,,,,,,,,,,,,,,,,,,,,,,,,机智,e,,,e,1,0.9511,0,46,46,19,1,,
,,,,,,,,,,,,,,1,001,2024-08-23_20h06.22.701,IAT(Formal),2021.2.3,Win32,59.52380952,,,,,,,,,,,,,,,,,,,,,,,,,,,,,,,,,,,,,,,,,,,,,,,,,,,,他,e,,,e,1,0.6462,0,47,47,75,1,,
,,,,,,,,,,,,,,1,001,2024-08-23_20h06.22.701,IAT(Formal),2021.2.3,Win32,59.52380952,,,,,,,,,,,,,,,,,,,,,,,,,,,,,,,,,,,,,,,,,,,,,,,,,,,,乐观,e,,,e,1,0.6881,0,48,48,14,1,,
,,,,,,,,,,,,,,1,001,2024-08-23_20h06.22.701,IAT(Formal),2021.2.3,Win32,59.52380952,,,,,,,,,,,,,,,,,,,,,,,,,,,,,,,,,,,,,,,,,,,,,,,,,,,,我们,i,,,e,0,0.5329,0,49,49,72,1,,
,,,,,,,,,,,,,,1,001,2024-08-23_20h06.22.701,IAT(Formal),2021.2.3,Win32,59.52380952,,,,,,,,,,,,,,,,,,,,,,,,,,,,,,,,,,,,,,,,,,,,,,,,,,,,杰出,e,,,i,0,0.6332,0,50,50,13,1,,
,,,,,,,,,,,,,,1,001,2024-08-23_20h06.22.701,IAT(Formal),2021.2.3,Win32,59.52380952,,,,,,,,,,,,,,,,,,,,,,,,,,,,,,,,,,,,,,,,,,,,,,,,,,,,勇敢,e,,,e,1,0.185,0,51,51,17,1,,
,,,,,,,,,,,,,,1,001,2024-08-23_20h06.22.701,IAT(Formal),2021.2.3,Win32,59.52380952,,,,,,,,,,,,,,,,,,,,,,,,,,,,,,,,,,,,,,,,,,,,,,,,,,,,冷静,e,,,e,1,0.6374,0,52,52,26,1,,
,,,,,,,,,,,,,,1,001,2024-08-23_20h06.22.701,IAT(Formal),2021.2.3,Win32,59.52380952,,,,,,,,,,,,,,,,,,,,,,,,,,,,,,,,,,,,,,,,,,,,,,,,,,,,无私,e,,,e,1,0.6959,0,53,53,22,1,,
,,,,,,,,,,,,,,1,001,2024-08-23_20h06.22.701,IAT(Formal),2021.2.3,Win32,59.52380952,,,,,,,,,,,,,,,,,,,,,,,,,,,,,,,,,,,,,,,,,,,,,,,,,,,,野蛮,i,,,i,1,0.7761,0,54,54,46,1,,
,,,,,,,,,,,,,,1,001,2024-08-23_20h06.22.701,IAT(Formal),2021.2.3,Win32,59.52380952,,,,,,,,,,,,,,,,,,,,,,,,,,,,,,,,,,,,,,,,,,,,,,,,,,,,朴实,e,,,e,1,0.5584,0,55,55,24,1,,
,,,,,,,,,,,,,,1,001,2024-08-23_20h06.22.701,IAT(Formal),2021.2.3,Win32,59.52380952,,,,,,,,,,,,,,,,,,,,,,,,,,,,,,,,,,,,,,,,,,,,,,,,,,,,固执,i,,,e,0,0.4916,0,56,56,47,1,,
,,,,,,,,,,,,,,1,001,2024-08-23_20h06.22.701,IAT(Formal),2021.2.3,Win32,59.52380952,,,,,,,,,,,,,,,,,,,,,,,,,,,,,,,,,,,,,,,,,,,,,,,,,,,,我,i,,,e,0,0.5353,0,57,57,0,1,,
,,,,,,,,,,,,,,1,001,2024-08-23_20h06.22.701,IAT(Formal),2021.2.3,Win32,59.52380952,,,,,,,,,,,,,,,,,,,,,,,,,,,,,,,,,,,,,,,,,,,,,,,,,,,,诚实,e,,,e,1,0.6727,0,58,58,15,1,,
,,,,,,,,,,,,,,1,001,2024-08-23_20h06.22.701,IAT(Formal),2021.2.3,Win32,59.52380952,,,,,,,,,,,,,,,,,,,,,,,,,,,,,,,,,,,,,,,,,,,,,,,,,,,,我,i,,,e,0,0.4892,0,59,59,60,1,,
,,,,,,,,,,,,,,1,001,2024-08-23_20h06.22.701,IAT(Formal),2021.2.3,Win32,59.52380952,,,,,,,,,,,,,,,,,,,,,,,,,,,,,,,,,,,,,,,,,,,,,,,,,,,,我,i,,,i,1,0.5383,0,60,60,50,1,,
,,,,,,,,,,,,,,1,001,2024-08-23_20h06.22.701,IAT(Formal),2021.2.3,Win32,59.52380952,,,,,,,,,,,,,,,,,,,,,,,,,,,,,,,,,,,,,,,,,,,,,,,,,,,,他,e,,,e,1,0.656,0,61,61,5,1,,
,,,,,,,,,,,,,,1,001,2024-08-23_20h06.22.701,IAT(Formal),2021.2.3,Win32,59.52380952,,,,,,,,,,,,,,,,,,,,,,,,,,,,,,,,,,,,,,,,,,,,,,,,,,,,他们,e,,,e,1,0.5375,0,62,62,56,1,,
,,,,,,,,,,,,,,1,001,2024-08-23_20h06.22.701,IAT(Formal),2021.2.3,Win32,59.52380952,,,,,,,,,,,,,,,,,,,,,,,,,,,,,,,,,,,,,,,,,,,,,,,,,,,,愚蠢,i,,,i,1,0.6727,0,63,63,32,1,,
,,,,,,,,,,,,,,1,001,2024-08-23_20h06.22.701,IAT(Formal),2021.2.3,Win32,59.52380952,,,,,,,,,,,,,,,,,,,,,,,,,,,,,,,,,,,,,,,,,,,,,,,,,,,,热情,e,,,e,1,0.5132,0,64,64,27,1,,
,,,,,,,,,,,,,,1,001,2024-08-23_20h06.22.701,IAT(Formal),2021.2.3,Win32,59.52380952,,,,,,,,,,,,,,,,,,,,,,,,,,,,,,,,,,,,,,,,,,,,,,,,,,,,消极,i,,,i,1,0.5608,0,65,65,35,1,,
,,,,,,,,,,,,,,1,001,2024-08-23_20h06.22.701,IAT(Formal),2021.2.3,Win32,59.52380952,,,,,,,,,,,,,,,,,,,,,,,,,,,,,,,,,,,,,,,,,,,,,,,,,,,,崇高,e,,,e,1,0.6221,0,66,66,11,1,,
,,,,,,,,,,,,,,1,001,2024-08-23_20h06.22.701,IAT(Formal),2021.2.3,Win32,59.52380952,,,,,,,,,,,,,,,,,,,,,,,,,,,,,,,,,,,,,,,,,,,,,,,,,,,,他人,e,,,e,1,0.8122,0,67,67,8,1,,
,,,,,,,,,,,,,,1,001,2024-08-23_20h06.22.701,IAT(Formal),2021.2.3,Win32,59.52380952,,,,,,,,,,,,,,,,,,,,,,,,,,,,,,,,,,,,,,,,,,,,,,,,,,,,他们,e,,,e,1,0.5842,0,68,68,76,1,,
,,,,,,,,,,,,,,1,001,2024-08-23_20h06.22.701,IAT(Formal),2021.2.3,Win32,59.52380952,,,,,,,,,,,,,,,,,,,,,,,,,,,,,,,,,,,,,,,,,,,,,,,,,,,,活泼,e,,,e,1,0.6661,0,69,69,28,1,,
,,,,,,,,,,,,,,1,001,2024-08-23_20h06.22.701,IAT(Formal),2021.2.3,Win32,59.52380952,,,,,,,,,,,,,,,,,,,,,,,,,,,,,,,,,,,,,,,,,,,,,,,,,,,,鲁莽,i,,,i,1,0.5946,0,70,70,38,1,,
,,,,,,,,,,,,,,1,001,2024-08-23_20h06.22.701,IAT(Formal),2021.2.3,Win32,59.52380952,,,,,,,,,,,,,,,,,,,,,,,,,,,,,,,,,,,,,,,,,,,,,,,,,,,,认真,e,,,e,1,0.5586,0,71,71,20,1,,
,,,,,,,,,,,,,,1,001,2024-08-23_20h06.22.701,IAT(Formal),2021.2.3,Win32,59.52380952,,,,,,,,,,,,,,,,,,,,,,,,,,,,,,,,,,,,,,,,,,,,,,,,,,,,聪明,e,,,e,1,0.703,0,72,72,12,1,,
,,,,,,,,,,,,,,1,001,2024-08-23_20h06.22.701,IAT(Formal),2021.2.3,Win32,59.52380952,,,,,,,,,,,,,,,,,,,,,,,,,,,,,,,,,,,,,,,,,,,,,,,,,,,,他的,e,,,i,0,0.4832,0,73,73,57,1,,
,,,,,,,,,,,,,,1,001,2024-08-23_20h06.22.701,IAT(Formal),2021.2.3,Win32,59.52380952,,,,,,,,,,,,,,,,,,,,,,,,,,,,,,,,,,,,,,,,,,,,,,,,,,,,其他,e,,,e,1,0.7673,0,74,74,69,1,,
,,,,,,,,,,,,,,1,001,2024-08-23_20h06.22.701,IAT(Formal),2021.2.3,Win32,59.52380952,,,,,,,,,,,,,,,,,,,,,,,,,,,,,,,,,,,,,,,,,,,,,,,,,,,,卑鄙,i,,,i,1,0.5455,0,75,75,30,1,,
,,,,,,,,,,,,,,1,001,2024-08-23_20h06.22.701,IAT(Formal),2021.2.3,Win32,59.52380952,,,,,,,,,,,,,,,,,,,,,,,,,,,,,,,,,,,,,,,,,,,,,,,,,,,,自己,i,,,i,1,0.6871,0,76,76,53,1,,
,,,,,,,,,,,,,,1,001,2024-08-23_20h06.22.701,IAT(Formal),2021.2.3,Win32,59.52380952,,,,,,,,,,,,,,,,,,,,,,,,,,,,,,,,,,,,,,,,,,,,,,,,,,,,他们,e,,,e,1,0.567,0,77,77,66,1,,
,,,,,,,,,,,,,,1,001,2024-08-23_20h06.22.701,IAT(Formal),2021.2.3,Win32,59.52380952,,,,,,,,,,,,,,,,,,,,,,,,,,,,,,,,,,,,,,,,,,,,,,,,,,,,我的,i,,,i,1,0.5568,0,78,78,51,1,,
,,,,,,,,,,,,,,1,001,2024-08-23_20h06.22.701,IAT(Formal),2021.2.3,Win32,59.52380952,,,,,,,,,,,,,,,,,,,,,,,,,,,,,,,,,,,,,,,,,,,,,,,,,,,,我的,i,,,i,1,0.4188,0,79,79,1,1,,
,,,,,,,,,,,,,,1,001,2024-08-23_20h06.22.701,IAT(Formal),2021.2.3,Win32,59.52380952,,,,,,,,,,,,,,,,,,,,,,,,,,,,,,,,,,,,,,,,,,,,,,,,,,,,固执,i,,,i,1,0.7838,1,0,80,47,1,,
,,,,,,,,,,,,,,1,001,2024-08-23_20h06.22.701,IAT(Formal),2021.2.3,Win32,59.52380952,,,,,,,,,,,,,,,,,,,,,,,,,,,,,,,,,,,,,,,,,,,,,,,,,,,,俺,i,,,i,1,0.8419,1,1,81,4,1,,
,,,,,,,,,,,,,,1,001,2024-08-23_20h06.22.701,IAT(Formal),2021.2.3,Win32,59.52380952,,,,,,,,,,,,,,,,,,,,,,,,,,,,,,,,,,,,,,,,,,,,,,,,,,,,我们,i,,,i,1,0.4291,1,2,82,62,1,,
,,,,,,,,,,,,,,1,001,2024-08-23_20h06.22.701,IAT(Formal),2021.2.3,Win32,59.52380952,,,,,,,,,,,,,,,,,,,,,,,,,,,,,,,,,,,,,,,,,,,,,,,,,,,,优秀,e,,,e,1,0.6494,1,3,83,10,1,,
,,,,,,,,,,,,,,1,001,2024-08-23_20h06.22.701,IAT(Formal),2021.2.3,Win32,59.52380952,,,,,,,,,,,,,,,,,,,,,,,,,,,,,,,,,,,,,,,,,,,,,,,,,,,,活泼,e,,,e,1,0.5207,1,4,84,28,1,,
,,,,,,,,,,,,,,1,001,2024-08-23_20h06.22.701,IAT(Formal),2021.2.3,Win32,59.52380952,,,,,,,,,,,,,,,,,,,,,,,,,,,,,,,,,,,,,,,,,,,,,,,,,,,,傲慢,i,,,e,0,0.5142,1,5,85,37,1,,
,,,,,,,,,,,,,,1,001,2024-08-23_20h06.22.701,IAT(Formal),2021.2.3,Win32,59.52380952,,,,,,,,,,,,,,,,,,,,,,,,,,,,,,,,,,,,,,,,,,,,,,,,,,,,自己,i,,,i,1,0.7275,1,6,86,63,1,,
,,,,,,,,,,,,,,1,001,2024-08-23_20h06.22.701,IAT(Formal),2021.2.3,Win32,59.52380952,,,,,,,,,,,,,,,,,,,,,,,,,,,,,,,,,,,,,,,,,,,,,,,,,,,,猖狂,i,,,i,1,0.6865,1,7,87,45,1,,
,,,,,,,,,,,,,,1,001,2024-08-23_20h06.22.701,IAT(Formal),2021.2.3,Win32,59.52380952,,,,,,,,,,,,,,,,,,,,,,,,,,,,,,,,,,,,,,,,,,,,,,,,,,,,他们,e,,,e,1,0.8869,1,8,88,6,1,,
,,,,,,,,,,,,,,1,001,2024-08-23_20h06.22.701,IAT(Formal),2021.2.3,Win32,59.52380952,,,,,,,,,,,,,,,,,,,,,,,,,,,,,,,,,,,,,,,,,,,,,,,,,,,,悲观,i,,,i,1,0.592,1,9,89,34,1,,
,,,,,,,,,,,,,,1,001,2024-08-23_20h06.22.701,IAT(Formal),2021.2.3,Win32,59.52380952,,,,,,,,,,,,,,,,,,,,,,,,,,,,,,,,,,,,,,,,,,,,,,,,,,,,我们,i,,,i,1,0.7495,1,10,90,72,1,,
,,,,,,,,,,,,,,1,001,2024-08-23_20h06.22.701,IAT(Formal),2021.2.3,Win32,59.52380952,,,,,,,,,,,,,,,,,,,,,,,,,,,,,,,,,,,,,,,,,,,,,,,,,,,,他的,e,,,e,1,0.5446,1,11,91,57,1,,
,,,,,,,,,,,,,,1,001,2024-08-23_20h06.22.701,IAT(Formal),2021.2.3,Win32,59.52380952,,,,,,,,,,,,,,,,,,,,,,,,,,,,,,,,,,,,,,,,,,,,,,,,,,,,我,i,,,i,1,0.6703,1,12,92,60,1,,
,,,,,,,,,,,,,,1,001,2024-08-23_20h06.22.701,IAT(Formal),2021.2.3,Win32,59.52380952,,,,,,,,,,,,,,,,,,,,,,,,,,,,,,,,,,,,,,,,,,,,,,,,,,,,散漫,i,,,i,1,0.6122,1,13,93,41,1,,
,,,,,,,,,,,,,,1,001,2024-08-23_20h06.22.701,IAT(Formal),2021.2.3,Win32,59.52380952,,,,,,,,,,,,,,,,,,,,,,,,,,,,,,,,,,,,,,,,,,,,,,,,,,,,他的,e,,,i,0,0.7077,1,14,94,67,1,,
,,,,,,,,,,,,,,1,001,2024-08-23_20h06.22.701,IAT(Formal),2021.2.3,Win32,59.52380952,,,,,,,,,,,,,,,,,,,,,,,,,,,,,,,,,,,,,,,,,,,,,,,,,,,,乐观,e,,,e,1,0.6609,1,15,95,14,1,,
,,,,,,,,,,,,,,1,001,2024-08-23_20h06.22.701,IAT(Formal),2021.2.3,Win32,59.52380952,,,,,,,,,,,,,,,,,,,,,,,,,,,,,,,,,,,,,,,,,,,,,,,,,,,,俺,i,,,i,1,0.6215,1,16,96,54,1,,
,,,,,,,,,,,,,,1,001,2024-08-23_20h06.22.701,IAT(Formal),2021.2.3,Win32,59.52380952,,,,,,,,,,,,,,,,,,,,,,,,,,,,,,,,,,,,,,,,,,,,,,,,,,,,聪明,e,,,e,1,0.6169,1,17,97,12,1,,
,,,,,,,,,,,,,,1,001,2024-08-23_20h06.22.701,IAT(Formal),2021.2.3,Win32,59.52380952,,,,,,,,,,,,,,,,,,,,,,,,,,,,,,,,,,,,,,,,,,,,,,,,,,,,我,i,,,i,1,0.6349,1,18,98,0,1,,
,,,,,,,,,,,,,,1,001,2024-08-23_20h06.22.701,IAT(Formal),2021.2.3,Win32,59.52380952,,,,,,,,,,,,,,,,,,,,,,,,,,,,,,,,,,,,,,,,,,,,,,,,,,,,愚蠢,i,,,i,1,0.6352,1,19,99,32,1,,
,,,,,,,,,,,,,,1,001,2024-08-23_20h06.22.701,IAT(Formal),2021.2.3,Win32,59.52380952,,,,,,,,,,,,,,,,,,,,,,,,,,,,,,,,,,,,,,,,,,,,,,,,,,,,自己,i,,,i,1,0.5838,1,20,100,3,1,,
,,,,,,,,,,,,,,1,001,2024-08-23_20h06.22.701,IAT(Formal),2021.2.3,Win32,59.52380952,,,,,,,,,,,,,,,,,,,,,,,,,,,,,,,,,,,,,,,,,,,,,,,,,,,,鲁莽,i,,,i,1,0.6362,1,21,101,38,1,,
,,,,,,,,,,,,,,1,001,2024-08-23_20h06.22.701,IAT(Formal),2021.2.3,Win32,59.52380952,,,,,,,,,,,,,,,,,,,,,,,,,,,,,,,,,,,,,,,,,,,,,,,,,,,,他,e,,,i,0,0.5904,1,22,102,75,1,,
,,,,,,,,,,,,,,1,001,2024-08-23_20h06.22.701,IAT(Formal),2021.2.3,Win32,59.52380952,,,,,,,,,,,,,,,,,,,,,,,,,,,,,,,,,,,,,,,,,,,,,,,,,,,,杰出,e,,,e,1,0.6031,1,23,103,13,1,,
,,,,,,,,,,,,,,1,001,2024-08-23_20h06.22.701,IAT(Formal),2021.2.3,Win32,59.52380952,,,,,,,,,,,,,,,,,,,,,,,,,,,,,,,,,,,,,,,,,,,,,,,,,,,,其他,e,,,e,1,0.9262,1,24,104,69,1,,
,,,,,,,,,,,,,,1,001,2024-08-23_20h06.22.701,IAT(Formal),2021.2.3,Win32,59.52380952,,,,,,,,,,,,,,,,,,,,,,,,,,,,,,,,,,,,,,,,,,,,,,,,,,,,细腻,e,,,e,1,0.6532,1,25,105,25,1,,
,,,,,,,,,,,,,,1,001,2024-08-23_20h06.22.701,IAT(Formal),2021.2.3,Win32,59.52380952,,,,,,,,,,,,,,,,,,,,,,,,,,,,,,,,,,,,,,,,,,,,,,,,,,,,公正,e,,,e,1,0.5187,1,26,106,23,1,,
,,,,,,,,,,,,,,1,001,2024-08-23_20h06.22.701,IAT(Formal),2021.2.3,Win32,59.52380952,,,,,,,,,,,,,,,,,,,,,,,,,,,,,,,,,,,,,,,,,,,,,,,,,,,,朴实,e,,,e,1,0.5737,1,27,107,24,1,,
,,,,,,,,,,,,,,1,001,2024-08-23_20h06.22.701,IAT(Formal),2021.2.3,Win32,59.52380952,,,,,,,,,,,,,,,,,,,,,,,,,,,,,,,,,,,,,,,,,,,,,,,,,,,,下贱,i,,,i,1,0.5336,1,28,108,49,1,,
,,,,,,,,,,,,,,1,001,2024-08-23_20h06.22.701,IAT(Formal),2021.2.3,Win32,59.52380952,,,,,,,,,,,,,,,,,,,,,,,,,,,,,,,,,,,,,,,,,,,,,,,,,,,,勤奋,e,,,e,1,0.5709,1,29,109,18,1,,
,,,,,,,,,,,,,,1,001,2024-08-23_20h06.22.701,IAT(Formal),2021.2.3,Win32,59.52380952,,,,,,,,,,,,,,,,,,,,,,,,,,,,,,,,,,,,,,,,,,,,,,,,,,,,他,e,,,e,1,0.8876,1,30,110,55,1,,
,,,,,,,,,,,,,,1,001,2024-08-23_20h06.22.701,IAT(Formal),2021.2.3,Win32,59.52380952,,,,,,,,,,,,,,,,,,,,,,,,,,,,,,,,,,,,,,,,,,,,,,,,,,,,我的,i,,,i,1,0.487,1,31,111,1,1,,
,,,,,,,,,,,,,,1,001,2024-08-23_20h06.22.701,IAT(Formal),2021.2.3,Win32,59.52380952,,,,,,,,,,,,,,,,,,,,,,,,,,,,,,,,,,,,,,,,,,,,,,,,,,,,其他,e,,,e,1,0.6385,1,32,112,79,1,,
,,,,,,,,,,,,,,1,001,2024-08-23_20h06.22.701,IAT(Formal),2021.2.3,Win32,59.52380952,,,,,,,,,,,,,,,,,,,,,,,,,,,,,,,,,,,,,,,,,,,,,,,,,,,,正直,e,,,e,1,0.6165,1,33,113,16,1,,
,,,,,,,,,,,,,,1,001,2024-08-23_20h06.22.701,IAT(Formal),2021.2.3,Win32,59.52380952,,,,,,,,,,,,,,,,,,,,,,,,,,,,,,,,,,,,,,,,,,,,,,,,,,,,认真,e,,,e,1,0.7165,1,34,114,20,1,,
,,,,,,,,,,,,,,1,001,2024-08-23_20h06.22.701,IAT(Formal),2021.2.3,Win32,59.52380952,,,,,,,,,,,,,,,,,,,,,,,,,,,,,,,,,,,,,,,,,,,,,,,,,,,,我的,i,,,i,1,1.1544,1,35,115,71,1,,
,,,,,,,,,,,,,,1,001,2024-08-23_20h06.22.701,IAT(Formal),2021.2.3,Win32,59.52380952,,,,,,,,,,,,,,,,,,,,,,,,,,,,,,,,,,,,,,,,,,,,,,,,,,,,他人,e,,,e,1,0.5523,1,36,116,58,1,,
,,,,,,,,,,,,,,1,001,2024-08-23_20h06.22.701,IAT(Formal),2021.2.3,Win32,59.52380952,,,,,,,,,,,,,,,,,,,,,,,,,,,,,,,,,,,,,,,,,,,,,,,,,,,,他们,e,,,e,1,0.47,1,37,117,76,1,,
,,,,,,,,,,,,,,1,001,2024-08-23_20h06.22.701,IAT(Formal),2021.2.3,Win32,59.52380952,,,,,,,,,,,,,,,,,,,,,,,,,,,,,,,,,,,,,,,,,,,,,,,,,,,,他人,e,,,e,1,0.5168,1,38,118,8,1,,
,,,,,,,,,,,,,,1,001,2024-08-23_20h06.22.701,IAT(Formal),2021.2.3,Win32,59.52380952,,,,,,,,,,,,,,,,,,,,,,,,,,,,,,,,,,,,,,,,,,,,,,,,,,,,他们,e,,,e,1,0.4308,1,39,119,66,1,,
,,,,,,,,,,,,,,1,001,2024-08-23_20h06.22.701,IAT(Formal),2021.2.3,Win32,59.52380952,,,,,,,,,,,,,,,,,,,,,,,,,,,,,,,,,,,,,,,,,,,,,,,,,,,,轻率,i,,,i,1,0.5715,1,40,120,48,1,,
,,,,,,,,,,,,,,1,001,2024-08-23_20h06.22.701,IAT(Formal),2021.2.3,Win32,59.52380952,,,,,,,,,,,,,,,,,,,,,,,,,,,,,,,,,,,,,,,,,,,,,,,,,,,,暴躁,i,,,i,1,0.4378,1,41,121,44,1,,
,,,,,,,,,,,,,,1,001,2024-08-23_20h06.22.701,IAT(Formal),2021.2.3,Win32,59.52380952,,,,,,,,,,,,,,,,,,,,,,,,,,,,,,,,,,,,,,,,,,,,,,,,,,,,自己,i,,,e,0,0.5126,1,42,122,53,1,,
,,,,,,,,,,,,,,1,001,2024-08-23_20h06.22.701,IAT(Formal),2021.2.3,Win32,59.52380952,,,,,,,,,,,,,,,,,,,,,,,,,,,,,,,,,,,,,,,,,,,,,,,,,,,,冒失,i,,,i,1,0.817,1,43,123,39,1,,
,,,,,,,,,,,,,,1,001,2024-08-23_20h06.22.701,IAT(Formal),2021.2.3,Win32,59.52380952,,,,,,,,,,,,,,,,,,,,,,,,,,,,,,,,,,,,,,,,,,,,,,,,,,,,其他,e,,,e,1,0.5869,1,44,124,59,1,,
,,,,,,,,,,,,,,1,001,2024-08-23_20h06.22.701,IAT(Formal),2021.2.3,Win32,59.52380952,,,,,,,,,,,,,,,,,,,,,,,,,,,,,,,,,,,,,,,,,,,,,,,,,,,,他的,e,,,e,1,0.5356,1,45,125,7,1,,
,,,,,,,,,,,,,,1,001,2024-08-23_20h06.22.701,IAT(Formal),2021.2.3,Win32,59.52380952,,,,,,,,,,,,,,,,,,,,,,,,,,,,,,,,,,,,,,,,,,,,,,,,,,,,俺,i,,,i,1,0.6927,1,46,126,74,1,,
,,,,,,,,,,,,,,1,001,2024-08-23_20h06.22.701,IAT(Formal),2021.2.3,Win32,59.52380952,,,,,,,,,,,,,,,,,,,,,,,,,,,,,,,,,,,,,,,,,,,,,,,,,,,,自己,i,,,i,1,1.0609,1,47,127,73,1,,
,,,,,,,,,,,,,,1,001,2024-08-23_20h06.22.701,IAT(Formal),2021.2.3,Win32,59.52380952,,,,,,,,,,,,,,,,,,,,,,,,,,,,,,,,,,,,,,,,,,,,,,,,,,,,消极,i,,,i,1,0.6638,1,48,128,35,1,,
,,,,,,,,,,,,,,1,001,2024-08-23_20h06.22.701,IAT(Formal),2021.2.3,Win32,59.52380952,,,,,,,,,,,,,,,,,,,,,,,,,,,,,,,,,,,,,,,,,,,,,,,,,,,,我的,i,,,e,0,0.9045,1,49,129,51,1,,
,,,,,,,,,,,,,,1,001,2024-08-23_20h06.22.701,IAT(Formal),2021.2.3,Win32,59.52380952,,,,,,,,,,,,,,,,,,,,,,,,,,,,,,,,,,,,,,,,,,,,,,,,,,,,稳重,e,,,e,1,0.6727,1,50,130,21,1,,
,,,,,,,,,,,,,,1,001,2024-08-23_20h06.22.701,IAT(Formal),2021.2.3,Win32,59.52380952,,,,,,,,,,,,,,,,,,,,,,,,,,,,,,,,,,,,,,,,,,,,,,,,,,,,我,i,,,e,0,0.4744,1,51,131,50,1,,
,,,,,,,,,,,,,,1,001,2024-08-23_20h06.22.701,IAT(Formal),2021.2.3,Win32,59.52380952,,,,,,,,,,,,,,,,,,,,,,,,,,,,,,,,,,,,,,,,,,,,,,,,,,,,我的,i,,,i,1,0.579,1,52,132,61,1,,
,,,,,,,,,,,,,,1,001,2024-08-23_20h06.22.701,IAT(Formal),2021.2.3,Win32,59.52380952,,,,,,,,,,,,,,,,,,,,,,,,,,,,,,,,,,,,,,,,,,,,,,,,,,,,凶狠,i,,,i,1,0.6,1,53,133,42,1,,
,,,,,,,,,,,,,,1,001,2024-08-23_20h06.22.701,IAT(Formal),2021.2.3,Win32,59.52380952,,,,,,,,,,,,,,,,,,,,,,,,,,,,,,,,,,,,,,,,,,,,,,,,,,,,诚恳,e,,,e,1,0.7222,1,54,134,29,1,,
,,,,,,,,,,,,,,1,001,2024-08-23_20h06.22.701,IAT(Formal),2021.2.3,Win32,59.52380952,,,,,,,,,,,,,,,,,,,,,,,,,,,,,,,,,,,,,,,,,,,,,,,,,,,,自卑,i,,,i,1,0.5856,1,55,135,36,1,,
,,,,,,,,,,,,,,1,001,2024-08-23_20h06.22.701,IAT(Formal),2021.2.3,Win32,59.52380952,,,,,,,,,,,,,,,,,,,,,,,,,,,,,,,,,,,,,,,,,,,,,,,,,,,,俺,i,,,i,1,0.7421,1,56,136,64,1,,
,,,,,,,,,,,,,,1,001,2024-08-23_20h06.22.701,IAT(Formal),2021.2.3,Win32,59.52380952,,,,,,,,,,,,,,,,,,,,,,,,,,,,,,,,,,,,,,,,,,,,,,,,,,,,虚伪,i,,,i,1,0.6003,1,57,137,31,1,,
,,,,,,,,,,,,,,1,001,2024-08-23_20h06.22.701,IAT(Formal),2021.2.3,Win32,59.52380952,,,,,,,,,,,,,,,,,,,,,,,,,,,,,,,,,,,,,,,,,,,,,,,,,,,,他的,e,,,i,0,0.5921,1,58,138,77,1,,
,,,,,,,,,,,,,,1,001,2024-08-23_20h06.22.701,IAT(Formal),2021.2.3,Win32,59.52380952,,,,,,,,,,,,,,,,,,,,,,,,,,,,,,,,,,,,,,,,,,,,,,,,,,,,我们,i,,,i,1,0.7669,1,59,139,52,1,,
,,,,,,,,,,,,,,1,001,2024-08-23_20h06.22.701,IAT(Formal),2021.2.3,Win32,59.52380952,,,,,,,,,,,,,,,,,,,,,,,,,,,,,,,,,,,,,,,,,,,,,,,,,,,,无私,e,,,e,1,1.0363,1,60,140,22,1,,
,,,,,,,,,,,,,,1,001,2024-08-23_20h06.22.701,IAT(Formal),2021.2.3,Win32,59.52380952,,,,,,,,,,,,,,,,,,,,,,,,,,,,,,,,,,,,,,,,,,,,,,,,,,,,机智,e,,,e,1,0.5887,1,61,141,19,1,,
,,,,,,,,,,,,,,1,001,2024-08-23_20h06.22.701,IAT(Formal),2021.2.3,Win32,59.52380952,,,,,,,,,,,,,,,,,,,,,,,,,,,,,,,,,,,,,,,,,,,,,,,,,,,,我们,i,,,i,1,0.6566,1,62,142,2,1,,
,,,,,,,,,,,,,,1,001,2024-08-23_20h06.22.701,IAT(Formal),2021.2.3,Win32,59.52380952,,,,,,,,,,,,,,,,,,,,,,,,,,,,,,,,,,,,,,,,,,,,,,,,,,,,卑鄙,i,,,i,1,0.5549,1,63,143,30,1,,
,,,,,,,,,,,,,,1,001,2024-08-23_20h06.22.701,IAT(Formal),2021.2.3,Win32,59.52380952,,,,,,,,,,,,,,,,,,,,,,,,,,,,,,,,,,,,,,,,,,,,,,,,,,,,他,e,,,e,1,0.5126,1,64,144,5,1,,
,,,,,,,,,,,,,,1,001,2024-08-23_20h06.22.701,IAT(Formal),2021.2.3,Win32,59.52380952,,,,,,,,,,,,,,,,,,,,,,,,,,,,,,,,,,,,,,,,,,,,,,,,,,,,热情,e,,,e,1,0.6256,1,65,145,27,1,,
,,,,,,,,,,,,,,1,001,2024-08-23_20h06.22.701,IAT(Formal),2021.2.3,Win32,59.52380952,,,,,,,,,,,,,,,,,,,,,,,,,,,,,,,,,,,,,,,,,,,,,,,,,,,,勇敢,e,,,e,1,0.5941,1,66,146,17,1,,
,,,,,,,,,,,,,,1,001,2024-08-23_20h06.22.701,IAT(Formal),2021.2.3,Win32,59.52380952,,,,,,,,,,,,,,,,,,,,,,,,,,,,,,,,,,,,,,,,,,,,,,,,,,,,诚实,e,,,e,1,0.524,1,67,147,15,1,,
,,,,,,,,,,,,,,1,001,2024-08-23_20h06.22.701,IAT(Formal),2021.2.3,Win32,59.52380952,,,,,,,,,,,,,,,,,,,,,,,,,,,,,,,,,,,,,,,,,,,,,,,,,,,,其他,e,,,e,1,1.0391,1,68,148,9,1,,
,,,,,,,,,,,,,,1,001,2024-08-23_20h06.22.701,IAT(Formal),2021.2.3,Win32,59.52380952,,,,,,,,,,,,,,,,,,,,,,,,,,,,,,,,,,,,,,,,,,,,,,,,,,,,他人,e,,,e,1,0.6569,1,69,149,78,1,,
,,,,,,,,,,,,,,1,001,2024-08-23_20h06.22.701,IAT(Formal),2021.2.3,Win32,59.52380952,,,,,,,,,,,,,,,,,,,,,,,,,,,,,,,,,,,,,,,,,,,,,,,,,,,,我,i,,,i,1,0.4664,1,70,150,70,1,,
,,,,,,,,,,,,,,1,001,2024-08-23_20h06.22.701,IAT(Formal),2021.2.3,Win32,59.52380952,,,,,,,,,,,,,,,,,,,,,,,,,,,,,,,,,,,,,,,,,,,,,,,,,,,,他人,e,,,e,1,0.5702,1,71,151,68,1,,
,,,,,,,,,,,,,,1,001,2024-08-23_20h06.22.701,IAT(Formal),2021.2.3,Win32,59.52380952,,,,,,,,,,,,,,,,,,,,,,,,,,,,,,,,,,,,,,,,,,,,,,,,,,,,自私,i,,,e,0,0.7432,1,72,152,43,1,,
,,,,,,,,,,,,,,1,001,2024-08-23_20h06.22.701,IAT(Formal),2021.2.3,Win32,59.52380952,,,,,,,,,,,,,,,,,,,,,,,,,,,,,,,,,,,,,,,,,,,,,,,,,,,,野蛮,i,,,i,1,0.6229,1,73,153,46,1,,
,,,,,,,,,,,,,,1,001,2024-08-23_20h06.22.701,IAT(Formal),2021.2.3,Win32,59.52380952,,,,,,,,,,,,,,,,,,,,,,,,,,,,,,,,,,,,,,,,,,,,,,,,,,,,他,e,,,e,1,0.5295,1,74,154,65,1,,
,,,,,,,,,,,,,,1,001,2024-08-23_20h06.22.701,IAT(Formal),2021.2.3,Win32,59.52380952,,,,,,,,,,,,,,,,,,,,,,,,,,,,,,,,,,,,,,,,,,,,,,,,,,,,他们,e,,,e,1,0.5594,1,75,155,56,1,,
,,,,,,,,,,,,,,1,001,2024-08-23_20h06.22.701,IAT(Formal),2021.2.3,Win32,59.52380952,,,,,,,,,,,,,,,,,,,,,,,,,,,,,,,,,,,,,,,,,,,,,,,,,,,,崇高,e,,,e,1,0.6617,1,76,156,11,1,,
,,,,,,,,,,,,,,1,001,2024-08-23_20h06.22.701,IAT(Formal),2021.2.3,Win32,59.52380952,,,,,,,,,,,,,,,,,,,,,,,,,,,,,,,,,,,,,,,,,,,,,,,,,,,,执拗,i,,,i,1,0.5836,1,77,157,40,1,,
,,,,,,,,,,,,,,1,001,2024-08-23_20h06.22.701,IAT(Formal),2021.2.3,Win32,59.52380952,,,,,,,,,,,,,,,,,,,,,,,,,,,,,,,,,,,,,,,,,,,,,,,,,,,,冷静,e,,,e,1,0.6172,1,78,158,26,1,,
,,,,,,,,,,,,,,1,001,2024-08-23_20h06.22.701,IAT(Formal),2021.2.3,Win32,59.52380952,,,,,,,,,,,,,,,,,,,,,,,,,,,,,,,,,,,,,,,,,,,,,,,,,,,,刻薄,i,,,i,1,0.6061,1,79,159,33,1,,
,,,,,,,,,,,,,,1,001,2024-08-23_20h06.22.701,IAT(Formal),2021.2.3,Win32,59.52380952,,,,,,,,,,,,,,,,,,,,,,,,,,,,,,,,,,,,,,,,,,,,,,,,,,,,,,,,,,,,,,,,space,3.2366