﻿Instruction1.keys,Instruction1.rt,Instruction2.keys,Instruction2.rt,key_resp_iso.keys,key_resp_iso.corr,key_resp_iso.rt,Practice_01.thisRepN,Practice_01.thisTrialN,Practice_01.thisN,Practice_01.thisIndex,Practice_01.ran,Words,ans,participant,session,date,expName,psychopyVersion,OS,frameRate,key_resp_3.keys,key_resp_3.rt,key_resp_ipn.keys,key_resp_ipn.corr,key_resp_ipn.rt,Practice_02.thisRepN,Practice_02.thisTrialN,Practice_02.thisN,Practice_02.thisIndex,Practice_02.ran,Words_ipn,ans_ipn,key_resp_4.keys,key_resp_4.rt,key_resp_t1.keys,key_resp_t1.corr,key_resp_t1.rt,Practice_T1.thisRepN,Practice_T1.thisTrialN,Practice_T1.thisN,Practice_T1.thisIndex,Practice_T1.ran,Words_t1,ans_t1,key_resp_5.keys,key_resp_5.rt,Formal_T1.thisRepN,Formal_T1.thisTrialN,Formal_T1.thisN,Formal_T1.thisIndex,Formal_T1.ran,key_resp_6.keys,key_resp_6.rt,key_resp_iso_reverse.keys,key_resp_iso_reverse.corr,key_resp_iso_reverse.rt,Practice_iso_Reverse.thisRepN,Practice_iso_Reverse.thisTrialN,Practice_iso_Reverse.thisN,Practice_iso_Reverse.thisIndex,Practice_iso_Reverse.ran,key_resp_7.keys,key_resp_7.rt,key_resp_t2_Practice.keys,key_resp_t2_Practice.corr,key_resp_t2_Practice.rt,Practice_t2_Reverse.thisRepN,Practice_t2_Reverse.thisTrialN,Practice_t2_Reverse.thisN,Practice_t2_Reverse.thisIndex,Practice_t2_Reverse.ran,Words_t2,ans_t2,key_resp_8.keys,key_resp_8.rt,key_resp_t2.keys,key_resp_t2.corr,key_resp_t2.rt,Formal_t2_reverse.thisRepN,Formal_t2_reverse.thisTrialN,Formal_t2_reverse.thisN,Formal_t2_reverse.thisIndex,Formal_t2_reverse.ran,key_instruct.keys,key_instruct.rt
space,19.7768,space,19.5907,e,1,0.5647,0,0,0,2,1,我们,e,1,001,08/23/2024_20h17.23.746,IAT(Formal),2021.2.3,Win32,59.92329818,,,,,,,,,,,,,,,,,,,,,,,,,,,,,,,,,,,,,,,,,,,,,,,,,,,,,,,,,,,,,,,,,
,,,,i,1,0.4581,0,1,1,5,1,他,i,1,001,08/23/2024_20h17.23.746,IAT(Formal),2021.2.3,Win32,59.92329818,,,,,,,,,,,,,,,,,,,,,,,,,,,,,,,,,,,,,,,,,,,,,,,,,,,,,,,,,,,,,,,,,
,,,,i,1,0.5149,0,2,2,8,1,他人,i,1,001,08/23/2024_20h17.23.746,IAT(Formal),2021.2.3,Win32,59.92329818,,,,,,,,,,,,,,,,,,,,,,,,,,,,,,,,,,,,,,,,,,,,,,,,,,,,,,,,,,,,,,,,,
,,,,e,1,0.4831,0,3,3,3,1,自己,e,1,001,08/23/2024_20h17.23.746,IAT(Formal),2021.2.3,Win32,59.92329818,,,,,,,,,,,,,,,,,,,,,,,,,,,,,,,,,,,,,,,,,,,,,,,,,,,,,,,,,,,,,,,,,
,,,,i,1,0.4984,0,4,4,9,1,其他,i,1,001,08/23/2024_20h17.23.746,IAT(Formal),2021.2.3,Win32,59.92329818,,,,,,,,,,,,,,,,,,,,,,,,,,,,,,,,,,,,,,,,,,,,,,,,,,,,,,,,,,,,,,,,,
,,,,i,1,0.552,0,5,5,6,1,他们,i,1,001,08/23/2024_20h17.23.746,IAT(Formal),2021.2.3,Win32,59.92329818,,,,,,,,,,,,,,,,,,,,,,,,,,,,,,,,,,,,,,,,,,,,,,,,,,,,,,,,,,,,,,,,,
,,,,i,1,0.5082,0,6,6,7,1,他的,i,1,001,08/23/2024_20h17.23.746,IAT(Formal),2021.2.3,Win32,59.92329818,,,,,,,,,,,,,,,,,,,,,,,,,,,,,,,,,,,,,,,,,,,,,,,,,,,,,,,,,,,,,,,,,
,,,,e,1,0.3558,0,7,7,1,1,我的,e,1,001,08/23/2024_20h17.23.746,IAT(Formal),2021.2.3,Win32,59.92329818,,,,,,,,,,,,,,,,,,,,,,,,,,,,,,,,,,,,,,,,,,,,,,,,,,,,,,,,,,,,,,,,,
,,,,e,1,0.4655,0,8,8,0,1,我,e,1,001,08/23/2024_20h17.23.746,IAT(Formal),2021.2.3,Win32,59.92329818,,,,,,,,,,,,,,,,,,,,,,,,,,,,,,,,,,,,,,,,,,,,,,,,,,,,,,,,,,,,,,,,,
,,,,e,1,0.5682,0,9,9,4,1,俺,e,1,001,08/23/2024_20h17.23.746,IAT(Formal),2021.2.3,Win32,59.92329818,,,,,,,,,,,,,,,,,,,,,,,,,,,,,,,,,,,,,,,,,,,,,,,,,,,,,,,,,,,,,,,,,
,,,,,,,,,,,,,,1,001,08/23/2024_20h17.23.746,IAT(Formal),2021.2.3,Win32,59.92329818,space,12.1364,i,1,0.59,0,0,0,26,1,自卑,i,,,,,,,,,,,,,,,,,,,,,,,,,,,,,,,,,,,,,,,,,,,,,,,,,,,,,
,,,,,,,,,,,,,,1,001,08/23/2024_20h17.23.746,IAT(Formal),2021.2.3,Win32,59.92329818,,,e,1,0.5858,0,1,1,3,1,杰出,e,,,,,,,,,,,,,,,,,,,,,,,,,,,,,,,,,,,,,,,,,,,,,,,,,,,,,
,,,,,,,,,,,,,,1,001,08/23/2024_20h17.23.746,IAT(Formal),2021.2.3,Win32,59.92329818,,,e,1,0.5576,0,2,2,8,1,勤奋,e,,,,,,,,,,,,,,,,,,,,,,,,,,,,,,,,,,,,,,,,,,,,,,,,,,,,,
,,,,,,,,,,,,,,1,001,08/23/2024_20h17.23.746,IAT(Formal),2021.2.3,Win32,59.92329818,,,i,1,0.46,0,3,3,21,1,虚伪,i,,,,,,,,,,,,,,,,,,,,,,,,,,,,,,,,,,,,,,,,,,,,,,,,,,,,,
,,,,,,,,,,,,,,1,001,08/23/2024_20h17.23.746,IAT(Formal),2021.2.3,Win32,59.92329818,,,i,1,0.4852,0,4,4,29,1,冒失,i,,,,,,,,,,,,,,,,,,,,,,,,,,,,,,,,,,,,,,,,,,,,,,,,,,,,,
,,,,,,,,,,,,,,1,001,08/23/2024_20h17.23.746,IAT(Formal),2021.2.3,Win32,59.92329818,,,i,0,0.4848,0,5,5,12,1,无私,e,,,,,,,,,,,,,,,,,,,,,,,,,,,,,,,,,,,,,,,,,,,,,,,,,,,,,
,,,,,,,,,,,,,,1,001,08/23/2024_20h17.23.746,IAT(Formal),2021.2.3,Win32,59.92329818,,,e,1,0.4922,0,6,6,17,1,热情,e,,,,,,,,,,,,,,,,,,,,,,,,,,,,,,,,,,,,,,,,,,,,,,,,,,,,,
,,,,,,,,,,,,,,1,001,08/23/2024_20h17.23.746,IAT(Formal),2021.2.3,Win32,59.92329818,,,i,1,0.6853,0,7,7,36,1,野蛮,i,,,,,,,,,,,,,,,,,,,,,,,,,,,,,,,,,,,,,,,,,,,,,,,,,,,,,
,,,,,,,,,,,,,,1,001,08/23/2024_20h17.23.746,IAT(Formal),2021.2.3,Win32,59.92329818,,,e,0,0.6534,0,8,8,27,1,傲慢,i,,,,,,,,,,,,,,,,,,,,,,,,,,,,,,,,,,,,,,,,,,,,,,,,,,,,,
,,,,,,,,,,,,,,1,001,08/23/2024_20h17.23.746,IAT(Formal),2021.2.3,Win32,59.92329818,,,e,1,0.5984,0,9,9,7,1,勇敢,e,,,,,,,,,,,,,,,,,,,,,,,,,,,,,,,,,,,,,,,,,,,,,,,,,,,,,
,,,,,,,,,,,,,,1,001,08/23/2024_20h17.23.746,IAT(Formal),2021.2.3,Win32,59.92329818,,,e,1,0.6243,0,10,10,19,1,诚恳,e,,,,,,,,,,,,,,,,,,,,,,,,,,,,,,,,,,,,,,,,,,,,,,,,,,,,,
,,,,,,,,,,,,,,1,001,08/23/2024_20h17.23.746,IAT(Formal),2021.2.3,Win32,59.92329818,,,e,1,0.5004,0,11,11,5,1,诚实,e,,,,,,,,,,,,,,,,,,,,,,,,,,,,,,,,,,,,,,,,,,,,,,,,,,,,,
,,,,,,,,,,,,,,1,001,08/23/2024_20h17.23.746,IAT(Formal),2021.2.3,Win32,59.92329818,,,e,1,0.5489,0,12,12,0,1,优秀,e,,,,,,,,,,,,,,,,,,,,,,,,,,,,,,,,,,,,,,,,,,,,,,,,,,,,,
,,,,,,,,,,,,,,1,001,08/23/2024_20h17.23.746,IAT(Formal),2021.2.3,Win32,59.92329818,,,e,1,0.5162,0,13,13,18,1,活泼,e,,,,,,,,,,,,,,,,,,,,,,,,,,,,,,,,,,,,,,,,,,,,,,,,,,,,,
,,,,,,,,,,,,,,1,001,08/23/2024_20h17.23.746,IAT(Formal),2021.2.3,Win32,59.92329818,,,e,1,0.665,0,14,14,15,1,细腻,e,,,,,,,,,,,,,,,,,,,,,,,,,,,,,,,,,,,,,,,,,,,,,,,,,,,,,
,,,,,,,,,,,,,,1,001,08/23/2024_20h17.23.746,IAT(Formal),2021.2.3,Win32,59.92329818,,,e,1,0.5214,0,15,15,4,1,乐观,e,,,,,,,,,,,,,,,,,,,,,,,,,,,,,,,,,,,,,,,,,,,,,,,,,,,,,
,,,,,,,,,,,,,,1,001,08/23/2024_20h17.23.746,IAT(Formal),2021.2.3,Win32,59.92329818,,,i,1,0.4719,0,16,16,23,1,刻薄,i,,,,,,,,,,,,,,,,,,,,,,,,,,,,,,,,,,,,,,,,,,,,,,,,,,,,,
,,,,,,,,,,,,,,1,001,08/23/2024_20h17.23.746,IAT(Formal),2021.2.3,Win32,59.92329818,,,e,1,0.5044,0,17,17,9,1,机智,e,,,,,,,,,,,,,,,,,,,,,,,,,,,,,,,,,,,,,,,,,,,,,,,,,,,,,
,,,,,,,,,,,,,,1,001,08/23/2024_20h17.23.746,IAT(Formal),2021.2.3,Win32,59.92329818,,,e,1,0.5521,0,18,18,14,1,朴实,e,,,,,,,,,,,,,,,,,,,,,,,,,,,,,,,,,,,,,,,,,,,,,,,,,,,,,
,,,,,,,,,,,,,,1,001,08/23/2024_20h17.23.746,IAT(Formal),2021.2.3,Win32,59.92329818,,,e,1,0.4853,0,19,19,6,1,正直,e,,,,,,,,,,,,,,,,,,,,,,,,,,,,,,,,,,,,,,,,,,,,,,,,,,,,,
,,,,,,,,,,,,,,1,001,08/23/2024_20h17.23.746,IAT(Formal),2021.2.3,Win32,59.92329818,,,e,1,0.4776,0,20,20,13,1,公正,e,,,,,,,,,,,,,,,,,,,,,,,,,,,,,,,,,,,,,,,,,,,,,,,,,,,,,
,,,,,,,,,,,,,,1,001,08/23/2024_20h17.23.746,IAT(Formal),2021.2.3,Win32,59.92329818,,,i,1,0.5258,0,21,21,28,1,鲁莽,i,,,,,,,,,,,,,,,,,,,,,,,,,,,,,,,,,,,,,,,,,,,,,,,,,,,,,
,,,,,,,,,,,,,,1,001,08/23/2024_20h17.23.746,IAT(Formal),2021.2.3,Win32,59.92329818,,,i,1,0.6608,0,22,22,37,1,固执,i,,,,,,,,,,,,,,,,,,,,,,,,,,,,,,,,,,,,,,,,,,,,,,,,,,,,,
,,,,,,,,,,,,,,1,001,08/23/2024_20h17.23.746,IAT(Formal),2021.2.3,Win32,59.92329818,,,i,1,0.5421,0,23,23,30,1,执拗,i,,,,,,,,,,,,,,,,,,,,,,,,,,,,,,,,,,,,,,,,,,,,,,,,,,,,,
,,,,,,,,,,,,,,1,001,08/23/2024_20h17.23.746,IAT(Formal),2021.2.3,Win32,59.92329818,,,e,1,0.4677,0,24,24,10,1,认真,e,,,,,,,,,,,,,,,,,,,,,,,,,,,,,,,,,,,,,,,,,,,,,,,,,,,,,
,,,,,,,,,,,,,,1,001,08/23/2024_20h17.23.746,IAT(Formal),2021.2.3,Win32,59.92329818,,,e,1,0.5011,0,25,25,1,1,崇高,e,,,,,,,,,,,,,,,,,,,,,,,,,,,,,,,,,,,,,,,,,,,,,,,,,,,,,
,,,,,,,,,,,,,,1,001,08/23/2024_20h17.23.746,IAT(Formal),2021.2.3,Win32,59.92329818,,,i,1,0.549,0,26,26,25,1,消极,i,,,,,,,,,,,,,,,,,,,,,,,,,,,,,,,,,,,,,,,,,,,,,,,,,,,,,
,,,,,,,,,,,,,,1,001,08/23/2024_20h17.23.746,IAT(Formal),2021.2.3,Win32,59.92329818,,,e,1,0.5777,0,27,27,16,1,冷静,e,,,,,,,,,,,,,,,,,,,,,,,,,,,,,,,,,,,,,,,,,,,,,,,,,,,,,
,,,,,,,,,,,,,,1,001,08/23/2024_20h17.23.746,IAT(Formal),2021.2.3,Win32,59.92329818,,,e,1,0.6154,0,28,28,11,1,稳重,e,,,,,,,,,,,,,,,,,,,,,,,,,,,,,,,,,,,,,,,,,,,,,,,,,,,,,
,,,,,,,,,,,,,,1,001,08/23/2024_20h17.23.746,IAT(Formal),2021.2.3,Win32,59.92329818,,,i,1,0.5773,0,29,29,20,1,卑鄙,i,,,,,,,,,,,,,,,,,,,,,,,,,,,,,,,,,,,,,,,,,,,,,,,,,,,,,
,,,,,,,,,,,,,,1,001,08/23/2024_20h17.23.746,IAT(Formal),2021.2.3,Win32,59.92329818,,,i,1,0.5343,0,30,30,35,1,猖狂,i,,,,,,,,,,,,,,,,,,,,,,,,,,,,,,,,,,,,,,,,,,,,,,,,,,,,,
,,,,,,,,,,,,,,1,001,08/23/2024_20h17.23.746,IAT(Formal),2021.2.3,Win32,59.92329818,,,i,1,0.5174,0,31,31,24,1,悲观,i,,,,,,,,,,,,,,,,,,,,,,,,,,,,,,,,,,,,,,,,,,,,,,,,,,,,,
,,,,,,,,,,,,,,1,001,08/23/2024_20h17.23.746,IAT(Formal),2021.2.3,Win32,59.92329818,,,i,1,0.5077,0,32,32,31,1,散漫,i,,,,,,,,,,,,,,,,,,,,,,,,,,,,,,,,,,,,,,,,,,,,,,,,,,,,,
,,,,,,,,,,,,,,1,001,08/23/2024_20h17.23.746,IAT(Formal),2021.2.3,Win32,59.92329818,,,i,1,0.4653,0,33,33,32,1,凶狠,i,,,,,,,,,,,,,,,,,,,,,,,,,,,,,,,,,,,,,,,,,,,,,,,,,,,,,
,,,,,,,,,,,,,,1,001,08/23/2024_20h17.23.746,IAT(Formal),2021.2.3,Win32,59.92329818,,,i,1,0.4742,0,34,34,34,1,暴躁,i,,,,,,,,,,,,,,,,,,,,,,,,,,,,,,,,,,,,,,,,,,,,,,,,,,,,,
,,,,,,,,,,,,,,1,001,08/23/2024_20h17.23.746,IAT(Formal),2021.2.3,Win32,59.92329818,,,i,1,0.5298,0,35,35,22,1,愚蠢,i,,,,,,,,,,,,,,,,,,,,,,,,,,,,,,,,,,,,,,,,,,,,,,,,,,,,,
,,,,,,,,,,,,,,1,001,08/23/2024_20h17.23.746,IAT(Formal),2021.2.3,Win32,59.92329818,,,i,1,0.5601,0,36,36,33,1,自私,i,,,,,,,,,,,,,,,,,,,,,,,,,,,,,,,,,,,,,,,,,,,,,,,,,,,,,
,,,,,,,,,,,,,,1,001,08/23/2024_20h17.23.746,IAT(Formal),2021.2.3,Win32,59.92329818,,,e,1,0.5341,0,37,37,2,1,聪明,e,,,,,,,,,,,,,,,,,,,,,,,,,,,,,,,,,,,,,,,,,,,,,,,,,,,,,
,,,,,,,,,,,,,,1,001,08/23/2024_20h17.23.746,IAT(Formal),2021.2.3,Win32,59.92329818,,,i,1,0.5719,0,38,38,39,1,下贱,i,,,,,,,,,,,,,,,,,,,,,,,,,,,,,,,,,,,,,,,,,,,,,,,,,,,,,
,,,,,,,,,,,,,,1,001,08/23/2024_20h17.23.746,IAT(Formal),2021.2.3,Win32,59.92329818,,,i,1,0.657,0,39,39,38,1,轻率,i,,,,,,,,,,,,,,,,,,,,,,,,,,,,,,,,,,,,,,,,,,,,,,,,,,,,,
,,,,,,,,,,,,,,1,001,08/23/2024_20h17.23.746,IAT(Formal),2021.2.3,Win32,59.92329818,,,,,,,,,,,,,space,12.319,i,1,0.5856,0,0,0,39,1,冒失,i,,,,,,,,,,,,,,,,,,,,,,,,,,,,,,,,,,,,,,,,,
,,,,,,,,,,,,,,1,001,08/23/2024_20h17.23.746,IAT(Formal),2021.2.3,Win32,59.92329818,,,,,,,,,,,,,,,i,1,0.4825,0,1,1,56,1,他们,i,,,,,,,,,,,,,,,,,,,,,,,,,,,,,,,,,,,,,,,,,
,,,,,,,,,,,,,,1,001,08/23/2024_20h17.23.746,IAT(Formal),2021.2.3,Win32,59.92329818,,,,,,,,,,,,,,,e,1,0.5565,0,2,2,54,1,俺,e,,,,,,,,,,,,,,,,,,,,,,,,,,,,,,,,,,,,,,,,,
,,,,,,,,,,,,,,1,001,08/23/2024_20h17.23.746,IAT(Formal),2021.2.3,Win32,59.92329818,,,,,,,,,,,,,,,i,1,0.5657,0,3,3,41,1,散漫,i,,,,,,,,,,,,,,,,,,,,,,,,,,,,,,,,,,,,,,,,,
,,,,,,,,,,,,,,1,001,08/23/2024_20h17.23.746,IAT(Formal),2021.2.3,Win32,59.92329818,,,,,,,,,,,,,,,e,1,0.5829,0,4,4,14,1,乐观,e,,,,,,,,,,,,,,,,,,,,,,,,,,,,,,,,,,,,,,,,,
,,,,,,,,,,,,,,1,001,08/23/2024_20h17.23.746,IAT(Formal),2021.2.3,Win32,59.92329818,,,,,,,,,,,,,,,e,1,0.4823,0,5,5,70,1,我,e,,,,,,,,,,,,,,,,,,,,,,,,,,,,,,,,,,,,,,,,,
,,,,,,,,,,,,,,1,001,08/23/2024_20h17.23.746,IAT(Formal),2021.2.3,Win32,59.92329818,,,,,,,,,,,,,,,e,1,0.6174,0,6,6,26,1,冷静,e,,,,,,,,,,,,,,,,,,,,,,,,,,,,,,,,,,,,,,,,,
,,,,,,,,,,,,,,1,001,08/23/2024_20h17.23.746,IAT(Formal),2021.2.3,Win32,59.92329818,,,,,,,,,,,,,,,i,1,0.6173,0,7,7,78,1,他人,i,,,,,,,,,,,,,,,,,,,,,,,,,,,,,,,,,,,,,,,,,
,,,,,,,,,,,,,,1,001,08/23/2024_20h17.23.746,IAT(Formal),2021.2.3,Win32,59.92329818,,,,,,,,,,,,,,,e,1,0.5488,0,8,8,16,1,正直,e,,,,,,,,,,,,,,,,,,,,,,,,,,,,,,,,,,,,,,,,,
,,,,,,,,,,,,,,1,001,08/23/2024_20h17.23.746,IAT(Formal),2021.2.3,Win32,59.92329818,,,,,,,,,,,,,,,i,1,0.6185,0,9,9,48,1,轻率,i,,,,,,,,,,,,,,,,,,,,,,,,,,,,,,,,,,,,,,,,,
,,,,,,,,,,,,,,1,001,08/23/2024_20h17.23.746,IAT(Formal),2021.2.3,Win32,59.92329818,,,,,,,,,,,,,,,e,1,0.5089,0,10,10,63,1,自己,e,,,,,,,,,,,,,,,,,,,,,,,,,,,,,,,,,,,,,,,,,
,,,,,,,,,,,,,,1,001,08/23/2024_20h17.23.746,IAT(Formal),2021.2.3,Win32,59.92329818,,,,,,,,,,,,,,,i,1,0.5328,0,11,11,55,1,他,i,,,,,,,,,,,,,,,,,,,,,,,,,,,,,,,,,,,,,,,,,
,,,,,,,,,,,,,,1,001,08/23/2024_20h17.23.746,IAT(Formal),2021.2.3,Win32,59.92329818,,,,,,,,,,,,,,,e,1,0.5604,0,12,12,29,1,诚恳,e,,,,,,,,,,,,,,,,,,,,,,,,,,,,,,,,,,,,,,,,,
,,,,,,,,,,,,,,1,001,08/23/2024_20h17.23.746,IAT(Formal),2021.2.3,Win32,59.92329818,,,,,,,,,,,,,,,e,1,0.6656,0,13,13,21,1,稳重,e,,,,,,,,,,,,,,,,,,,,,,,,,,,,,,,,,,,,,,,,,
,,,,,,,,,,,,,,1,001,08/23/2024_20h17.23.746,IAT(Formal),2021.2.3,Win32,59.92329818,,,,,,,,,,,,,,,e,1,0.4929,0,14,14,18,1,勤奋,e,,,,,,,,,,,,,,,,,,,,,,,,,,,,,,,,,,,,,,,,,
,,,,,,,,,,,,,,1,001,08/23/2024_20h17.23.746,IAT(Formal),2021.2.3,Win32,59.92329818,,,,,,,,,,,,,,,i,1,0.5317,0,15,15,32,1,愚蠢,i,,,,,,,,,,,,,,,,,,,,,,,,,,,,,,,,,,,,,,,,,
,,,,,,,,,,,,,,1,001,08/23/2024_20h17.23.746,IAT(Formal),2021.2.3,Win32,59.92329818,,,,,,,,,,,,,,,e,1,0.4987,0,16,16,51,1,我的,e,,,,,,,,,,,,,,,,,,,,,,,,,,,,,,,,,,,,,,,,,
,,,,,,,,,,,,,,1,001,08/23/2024_20h17.23.746,IAT(Formal),2021.2.3,Win32,59.92329818,,,,,,,,,,,,,,,i,1,0.6408,0,17,17,59,1,其他,i,,,,,,,,,,,,,,,,,,,,,,,,,,,,,,,,,,,,,,,,,
,,,,,,,,,,,,,,1,001,08/23/2024_20h17.23.746,IAT(Formal),2021.2.3,Win32,59.92329818,,,,,,,,,,,,,,,e,1,0.522,0,18,18,73,1,自己,e,,,,,,,,,,,,,,,,,,,,,,,,,,,,,,,,,,,,,,,,,
,,,,,,,,,,,,,,1,001,08/23/2024_20h17.23.746,IAT(Formal),2021.2.3,Win32,59.92329818,,,,,,,,,,,,,,,e,1,0.4833,0,19,19,27,1,热情,e,,,,,,,,,,,,,,,,,,,,,,,,,,,,,,,,,,,,,,,,,
,,,,,,,,,,,,,,1,001,08/23/2024_20h17.23.746,IAT(Formal),2021.2.3,Win32,59.92329818,,,,,,,,,,,,,,,i,1,0.5654,0,20,20,47,1,固执,i,,,,,,,,,,,,,,,,,,,,,,,,,,,,,,,,,,,,,,,,,
,,,,,,,,,,,,,,1,001,08/23/2024_20h17.23.746,IAT(Formal),2021.2.3,Win32,59.92329818,,,,,,,,,,,,,,,e,0,0.5083,0,21,21,65,1,他,i,,,,,,,,,,,,,,,,,,,,,,,,,,,,,,,,,,,,,,,,,
,,,,,,,,,,,,,,1,001,08/23/2024_20h17.23.746,IAT(Formal),2021.2.3,Win32,59.92329818,,,,,,,,,,,,,,,i,1,0.5862,0,22,22,44,1,暴躁,i,,,,,,,,,,,,,,,,,,,,,,,,,,,,,,,,,,,,,,,,,
,,,,,,,,,,,,,,1,001,08/23/2024_20h17.23.746,IAT(Formal),2021.2.3,Win32,59.92329818,,,,,,,,,,,,,,,i,1,0.5414,0,23,23,40,1,执拗,i,,,,,,,,,,,,,,,,,,,,,,,,,,,,,,,,,,,,,,,,,
,,,,,,,,,,,,,,1,001,08/23/2024_20h17.23.746,IAT(Formal),2021.2.3,Win32,59.92329818,,,,,,,,,,,,,,,i,1,0.4357,0,24,24,30,1,卑鄙,i,,,,,,,,,,,,,,,,,,,,,,,,,,,,,,,,,,,,,,,,,
,,,,,,,,,,,,,,1,001,08/23/2024_20h17.23.746,IAT(Formal),2021.2.3,Win32,59.92329818,,,,,,,,,,,,,,,i,1,0.484,0,25,25,69,1,其他,i,,,,,,,,,,,,,,,,,,,,,,,,,,,,,,,,,,,,,,,,,
,,,,,,,,,,,,,,1,001,08/23/2024_20h17.23.746,IAT(Formal),2021.2.3,Win32,59.92329818,,,,,,,,,,,,,,,i,1,0.517,0,26,26,34,1,悲观,i,,,,,,,,,,,,,,,,,,,,,,,,,,,,,,,,,,,,,,,,,
,,,,,,,,,,,,,,1,001,08/23/2024_20h17.23.746,IAT(Formal),2021.2.3,Win32,59.92329818,,,,,,,,,,,,,,,e,1,0.4676,0,27,27,71,1,我的,e,,,,,,,,,,,,,,,,,,,,,,,,,,,,,,,,,,,,,,,,,
,,,,,,,,,,,,,,1,001,08/23/2024_20h17.23.746,IAT(Formal),2021.2.3,Win32,59.92329818,,,,,,,,,,,,,,,i,1,0.5241,0,28,28,9,1,其他,i,,,,,,,,,,,,,,,,,,,,,,,,,,,,,,,,,,,,,,,,,
,,,,,,,,,,,,,,1,001,08/23/2024_20h17.23.746,IAT(Formal),2021.2.3,Win32,59.92329818,,,,,,,,,,,,,,,e,1,0.5482,0,29,29,72,1,我们,e,,,,,,,,,,,,,,,,,,,,,,,,,,,,,,,,,,,,,,,,,
,,,,,,,,,,,,,,1,001,08/23/2024_20h17.23.746,IAT(Formal),2021.2.3,Win32,59.92329818,,,,,,,,,,,,,,,e,1,0.4505,0,30,30,2,1,我们,e,,,,,,,,,,,,,,,,,,,,,,,,,,,,,,,,,,,,,,,,,
,,,,,,,,,,,,,,1,001,08/23/2024_20h17.23.746,IAT(Formal),2021.2.3,Win32,59.92329818,,,,,,,,,,,,,,,i,1,0.55,0,31,31,7,1,他的,i,,,,,,,,,,,,,,,,,,,,,,,,,,,,,,,,,,,,,,,,,
,,,,,,,,,,,,,,1,001,08/23/2024_20h17.23.746,IAT(Formal),2021.2.3,Win32,59.92329818,,,,,,,,,,,,,,,e,1,0.4688,0,32,32,60,1,我,e,,,,,,,,,,,,,,,,,,,,,,,,,,,,,,,,,,,,,,,,,
,,,,,,,,,,,,,,1,001,08/23/2024_20h17.23.746,IAT(Formal),2021.2.3,Win32,59.92329818,,,,,,,,,,,,,,,e,1,0.5896,0,33,33,15,1,诚实,e,,,,,,,,,,,,,,,,,,,,,,,,,,,,,,,,,,,,,,,,,
,,,,,,,,,,,,,,1,001,08/23/2024_20h17.23.746,IAT(Formal),2021.2.3,Win32,59.92329818,,,,,,,,,,,,,,,i,1,0.6729,0,34,34,66,1,他们,i,,,,,,,,,,,,,,,,,,,,,,,,,,,,,,,,,,,,,,,,,
,,,,,,,,,,,,,,1,001,08/23/2024_20h17.23.746,IAT(Formal),2021.2.3,Win32,59.92329818,,,,,,,,,,,,,,,i,1,0.4261,0,35,35,67,1,他的,i,,,,,,,,,,,,,,,,,,,,,,,,,,,,,,,,,,,,,,,,,
,,,,,,,,,,,,,,1,001,08/23/2024_20h17.23.746,IAT(Formal),2021.2.3,Win32,59.92329818,,,,,,,,,,,,,,,e,1,0.6156,0,36,36,25,1,细腻,e,,,,,,,,,,,,,,,,,,,,,,,,,,,,,,,,,,,,,,,,,
,,,,,,,,,,,,,,1,001,08/23/2024_20h17.23.746,IAT(Formal),2021.2.3,Win32,59.92329818,,,,,,,,,,,,,,,e,1,0.5901,0,37,37,20,1,认真,e,,,,,,,,,,,,,,,,,,,,,,,,,,,,,,,,,,,,,,,,,
,,,,,,,,,,,,,,1,001,08/23/2024_20h17.23.746,IAT(Formal),2021.2.3,Win32,59.92329818,,,,,,,,,,,,,,,e,1,0.7058,0,38,38,62,1,我们,e,,,,,,,,,,,,,,,,,,,,,,,,,,,,,,,,,,,,,,,,,
,,,,,,,,,,,,,,1,001,08/23/2024_20h17.23.746,IAT(Formal),2021.2.3,Win32,59.92329818,,,,,,,,,,,,,,,i,1,0.5157,0,39,39,57,1,他的,i,,,,,,,,,,,,,,,,,,,,,,,,,,,,,,,,,,,,,,,,,
,,,,,,,,,,,,,,1,001,08/23/2024_20h17.23.746,IAT(Formal),2021.2.3,Win32,59.92329818,,,,,,,,,,,,,,,i,1,0.5506,0,40,40,5,1,他,i,,,,,,,,,,,,,,,,,,,,,,,,,,,,,,,,,,,,,,,,,
,,,,,,,,,,,,,,1,001,08/23/2024_20h17.23.746,IAT(Formal),2021.2.3,Win32,59.92329818,,,,,,,,,,,,,,,i,1,0.5249,0,41,41,75,1,他,i,,,,,,,,,,,,,,,,,,,,,,,,,,,,,,,,,,,,,,,,,
,,,,,,,,,,,,,,1,001,08/23/2024_20h17.23.746,IAT(Formal),2021.2.3,Win32,59.92329818,,,,,,,,,,,,,,,e,1,0.6257,0,42,42,17,1,勇敢,e,,,,,,,,,,,,,,,,,,,,,,,,,,,,,,,,,,,,,,,,,
,,,,,,,,,,,,,,1,001,08/23/2024_20h17.23.746,IAT(Formal),2021.2.3,Win32,59.92329818,,,,,,,,,,,,,,,e,1,0.5323,0,43,43,1,1,我的,e,,,,,,,,,,,,,,,,,,,,,,,,,,,,,,,,,,,,,,,,,
,,,,,,,,,,,,,,1,001,08/23/2024_20h17.23.746,IAT(Formal),2021.2.3,Win32,59.92329818,,,,,,,,,,,,,,,i,1,0.5533,0,44,44,58,1,他人,i,,,,,,,,,,,,,,,,,,,,,,,,,,,,,,,,,,,,,,,,,
,,,,,,,,,,,,,,1,001,08/23/2024_20h17.23.746,IAT(Formal),2021.2.3,Win32,59.92329818,,,,,,,,,,,,,,,e,1,0.6063,0,45,45,13,1,杰出,e,,,,,,,,,,,,,,,,,,,,,,,,,,,,,,,,,,,,,,,,,
,,,,,,,,,,,,,,1,001,08/23/2024_20h17.23.746,IAT(Formal),2021.2.3,Win32,59.92329818,,,,,,,,,,,,,,,e,1,0.5361,0,46,46,28,1,活泼,e,,,,,,,,,,,,,,,,,,,,,,,,,,,,,,,,,,,,,,,,,
,,,,,,,,,,,,,,1,001,08/23/2024_20h17.23.746,IAT(Formal),2021.2.3,Win32,59.92329818,,,,,,,,,,,,,,,i,1,0.5183,0,47,47,6,1,他们,i,,,,,,,,,,,,,,,,,,,,,,,,,,,,,,,,,,,,,,,,,
,,,,,,,,,,,,,,1,001,08/23/2024_20h17.23.746,IAT(Formal),2021.2.3,Win32,59.92329818,,,,,,,,,,,,,,,i,1,0.556,0,48,48,77,1,他的,i,,,,,,,,,,,,,,,,,,,,,,,,,,,,,,,,,,,,,,,,,
,,,,,,,,,,,,,,1,001,08/23/2024_20h17.23.746,IAT(Formal),2021.2.3,Win32,59.92329818,,,,,,,,,,,,,,,e,1,0.4726,0,49,49,53,1,自己,e,,,,,,,,,,,,,,,,,,,,,,,,,,,,,,,,,,,,,,,,,
,,,,,,,,,,,,,,1,001,08/23/2024_20h17.23.746,IAT(Formal),2021.2.3,Win32,59.92329818,,,,,,,,,,,,,,,i,1,0.5162,0,50,50,76,1,他们,i,,,,,,,,,,,,,,,,,,,,,,,,,,,,,,,,,,,,,,,,,
,,,,,,,,,,,,,,1,001,08/23/2024_20h17.23.746,IAT(Formal),2021.2.3,Win32,59.92329818,,,,,,,,,,,,,,,i,1,0.487,0,51,51,68,1,他人,i,,,,,,,,,,,,,,,,,,,,,,,,,,,,,,,,,,,,,,,,,
,,,,,,,,,,,,,,1,001,08/23/2024_20h17.23.746,IAT(Formal),2021.2.3,Win32,59.92329818,,,,,,,,,,,,,,,e,1,0.4707,0,52,52,50,1,我,e,,,,,,,,,,,,,,,,,,,,,,,,,,,,,,,,,,,,,,,,,
,,,,,,,,,,,,,,1,001,08/23/2024_20h17.23.746,IAT(Formal),2021.2.3,Win32,59.92329818,,,,,,,,,,,,,,,e,1,0.502,0,53,53,23,1,公正,e,,,,,,,,,,,,,,,,,,,,,,,,,,,,,,,,,,,,,,,,,
,,,,,,,,,,,,,,1,001,08/23/2024_20h17.23.746,IAT(Formal),2021.2.3,Win32,59.92329818,,,,,,,,,,,,,,,e,1,0.5252,0,54,54,64,1,俺,e,,,,,,,,,,,,,,,,,,,,,,,,,,,,,,,,,,,,,,,,,
,,,,,,,,,,,,,,1,001,08/23/2024_20h17.23.746,IAT(Formal),2021.2.3,Win32,59.92329818,,,,,,,,,,,,,,,e,1,0.4349,0,55,55,74,1,俺,e,,,,,,,,,,,,,,,,,,,,,,,,,,,,,,,,,,,,,,,,,
,,,,,,,,,,,,,,1,001,08/23/2024_20h17.23.746,IAT(Formal),2021.2.3,Win32,59.92329818,,,,,,,,,,,,,,,e,1,0.5989,0,56,56,11,1,崇高,e,,,,,,,,,,,,,,,,,,,,,,,,,,,,,,,,,,,,,,,,,
,,,,,,,,,,,,,,1,001,08/23/2024_20h17.23.746,IAT(Formal),2021.2.3,Win32,59.92329818,,,,,,,,,,,,,,,i,0,0.5364,0,57,57,22,1,无私,e,,,,,,,,,,,,,,,,,,,,,,,,,,,,,,,,,,,,,,,,,
,,,,,,,,,,,,,,1,001,08/23/2024_20h17.23.746,IAT(Formal),2021.2.3,Win32,59.92329818,,,,,,,,,,,,,,,e,1,0.4665,0,58,58,52,1,我们,e,,,,,,,,,,,,,,,,,,,,,,,,,,,,,,,,,,,,,,,,,
,,,,,,,,,,,,,,1,001,08/23/2024_20h17.23.746,IAT(Formal),2021.2.3,Win32,59.92329818,,,,,,,,,,,,,,,i,1,0.5742,0,59,59,8,1,他人,i,,,,,,,,,,,,,,,,,,,,,,,,,,,,,,,,,,,,,,,,,
,,,,,,,,,,,,,,1,001,08/23/2024_20h17.23.746,IAT(Formal),2021.2.3,Win32,59.92329818,,,,,,,,,,,,,,,e,1,0.4918,0,60,60,10,1,优秀,e,,,,,,,,,,,,,,,,,,,,,,,,,,,,,,,,,,,,,,,,,
,,,,,,,,,,,,,,1,001,08/23/2024_20h17.23.746,IAT(Formal),2021.2.3,Win32,59.92329818,,,,,,,,,,,,,,,e,1,0.4829,0,61,61,3,1,自己,e,,,,,,,,,,,,,,,,,,,,,,,,,,,,,,,,,,,,,,,,,
,,,,,,,,,,,,,,1,001,08/23/2024_20h17.23.746,IAT(Formal),2021.2.3,Win32,59.92329818,,,,,,,,,,,,,,,e,1,0.452,0,62,62,61,1,我的,e,,,,,,,,,,,,,,,,,,,,,,,,,,,,,,,,,,,,,,,,,
,,,,,,,,,,,,,,1,001,08/23/2024_20h17.23.746,IAT(Formal),2021.2.3,Win32,59.92329818,,,,,,,,,,,,,,,e,1,0.4355,0,63,63,0,1,我,e,,,,,,,,,,,,,,,,,,,,,,,,,,,,,,,,,,,,,,,,,
,,,,,,,,,,,,,,1,001,08/23/2024_20h17.23.746,IAT(Formal),2021.2.3,Win32,59.92329818,,,,,,,,,,,,,,,i,1,0.4995,0,64,64,49,1,下贱,i,,,,,,,,,,,,,,,,,,,,,,,,,,,,,,,,,,,,,,,,,
,,,,,,,,,,,,,,1,001,08/23/2024_20h17.23.746,IAT(Formal),2021.2.3,Win32,59.92329818,,,,,,,,,,,,,,,i,1,0.5396,0,65,65,46,1,野蛮,i,,,,,,,,,,,,,,,,,,,,,,,,,,,,,,,,,,,,,,,,,
,,,,,,,,,,,,,,1,001,08/23/2024_20h17.23.746,IAT(Formal),2021.2.3,Win32,59.92329818,,,,,,,,,,,,,,,i,1,0.5654,0,66,66,43,1,自私,i,,,,,,,,,,,,,,,,,,,,,,,,,,,,,,,,,,,,,,,,,
,,,,,,,,,,,,,,1,001,08/23/2024_20h17.23.746,IAT(Formal),2021.2.3,Win32,59.92329818,,,,,,,,,,,,,,,i,1,0.5166,0,67,67,37,1,傲慢,i,,,,,,,,,,,,,,,,,,,,,,,,,,,,,,,,,,,,,,,,,
,,,,,,,,,,,,,,1,001,08/23/2024_20h17.23.746,IAT(Formal),2021.2.3,Win32,59.92329818,,,,,,,,,,,,,,,e,1,0.549,0,68,68,24,1,朴实,e,,,,,,,,,,,,,,,,,,,,,,,,,,,,,,,,,,,,,,,,,
,,,,,,,,,,,,,,1,001,08/23/2024_20h17.23.746,IAT(Formal),2021.2.3,Win32,59.92329818,,,,,,,,,,,,,,,i,1,0.5652,0,69,69,45,1,猖狂,i,,,,,,,,,,,,,,,,,,,,,,,,,,,,,,,,,,,,,,,,,
,,,,,,,,,,,,,,1,001,08/23/2024_20h17.23.746,IAT(Formal),2021.2.3,Win32,59.92329818,,,,,,,,,,,,,,,e,1,0.6536,0,70,70,19,1,机智,e,,,,,,,,,,,,,,,,,,,,,,,,,,,,,,,,,,,,,,,,,
,,,,,,,,,,,,,,1,001,08/23/2024_20h17.23.746,IAT(Formal),2021.2.3,Win32,59.92329818,,,,,,,,,,,,,,,e,1,0.5503,0,71,71,4,1,俺,e,,,,,,,,,,,,,,,,,,,,,,,,,,,,,,,,,,,,,,,,,
,,,,,,,,,,,,,,1,001,08/23/2024_20h17.23.746,IAT(Formal),2021.2.3,Win32,59.92329818,,,,,,,,,,,,,,,i,1,0.603,0,72,72,35,1,消极,i,,,,,,,,,,,,,,,,,,,,,,,,,,,,,,,,,,,,,,,,,
,,,,,,,,,,,,,,1,001,08/23/2024_20h17.23.746,IAT(Formal),2021.2.3,Win32,59.92329818,,,,,,,,,,,,,,,i,1,0.518,0,73,73,42,1,凶狠,i,,,,,,,,,,,,,,,,,,,,,,,,,,,,,,,,,,,,,,,,,
,,,,,,,,,,,,,,1,001,08/23/2024_20h17.23.746,IAT(Formal),2021.2.3,Win32,59.92329818,,,,,,,,,,,,,,,i,1,0.5247,0,74,74,38,1,鲁莽,i,,,,,,,,,,,,,,,,,,,,,,,,,,,,,,,,,,,,,,,,,
,,,,,,,,,,,,,,1,001,08/23/2024_20h17.23.746,IAT(Formal),2021.2.3,Win32,59.92329818,,,,,,,,,,,,,,,i,1,0.5164,0,75,75,31,1,虚伪,i,,,,,,,,,,,,,,,,,,,,,,,,,,,,,,,,,,,,,,,,,
,,,,,,,,,,,,,,1,001,08/23/2024_20h17.23.746,IAT(Formal),2021.2.3,Win32,59.92329818,,,,,,,,,,,,,,,i,1,0.5028,0,76,76,33,1,刻薄,i,,,,,,,,,,,,,,,,,,,,,,,,,,,,,,,,,,,,,,,,,
,,,,,,,,,,,,,,1,001,08/23/2024_20h17.23.746,IAT(Formal),2021.2.3,Win32,59.92329818,,,,,,,,,,,,,,,e,0,0.6491,0,77,77,79,1,其他,i,,,,,,,,,,,,,,,,,,,,,,,,,,,,,,,,,,,,,,,,,
,,,,,,,,,,,,,,1,001,08/23/2024_20h17.23.746,IAT(Formal),2021.2.3,Win32,59.92329818,,,,,,,,,,,,,,,e,1,0.4812,0,78,78,12,1,聪明,e,,,,,,,,,,,,,,,,,,,,,,,,,,,,,,,,,,,,,,,,,
,,,,,,,,,,,,,,1,001,08/23/2024_20h17.23.746,IAT(Formal),2021.2.3,Win32,59.92329818,,,,,,,,,,,,,,,i,1,0.5591,0,79,79,36,1,自卑,i,,,,,,,,,,,,,,,,,,,,,,,,,,,,,,,,,,,,,,,,,
,,,,,,,,,,,,,,1,001,08/23/2024_20h17.23.746,IAT(Formal),2021.2.3,Win32,59.92329818,,,,,,,,,,,,,,,e,1,0.5328,,,,,,热情,e,space,8.3547,0,0,0,27,1,,,,,,,,,,,,,,,,,,,,,,,,,,,,,,,,,,
,,,,,,,,,,,,,,1,001,08/23/2024_20h17.23.746,IAT(Formal),2021.2.3,Win32,59.92329818,,,,,,,,,,,,,,,i,1,0.549,,,,,,他人,i,,,0,1,1,58,1,,,,,,,,,,,,,,,,,,,,,,,,,,,,,,,,,,
,,,,,,,,,,,,,,1,001,08/23/2024_20h17.23.746,IAT(Formal),2021.2.3,Win32,59.92329818,,,,,,,,,,,,,,,i,1,0.4549,,,,,,他们,i,,,0,2,2,6,1,,,,,,,,,,,,,,,,,,,,,,,,,,,,,,,,,,
,,,,,,,,,,,,,,1,001,08/23/2024_20h17.23.746,IAT(Formal),2021.2.3,Win32,59.92329818,,,,,,,,,,,,,,,i,1,0.5197,,,,,,刻薄,i,,,0,3,3,33,1,,,,,,,,,,,,,,,,,,,,,,,,,,,,,,,,,,
,,,,,,,,,,,,,,1,001,08/23/2024_20h17.23.746,IAT(Formal),2021.2.3,Win32,59.92329818,,,,,,,,,,,,,,,i,1,0.4229,,,,,,轻率,i,,,0,4,4,48,1,,,,,,,,,,,,,,,,,,,,,,,,,,,,,,,,,,
,,,,,,,,,,,,,,1,001,08/23/2024_20h17.23.746,IAT(Formal),2021.2.3,Win32,59.92329818,,,,,,,,,,,,,,,i,1,0.4575,,,,,,虚伪,i,,,0,5,5,31,1,,,,,,,,,,,,,,,,,,,,,,,,,,,,,,,,,,
,,,,,,,,,,,,,,1,001,08/23/2024_20h17.23.746,IAT(Formal),2021.2.3,Win32,59.92329818,,,,,,,,,,,,,,,e,1,0.4892,,,,,,我们,e,,,0,6,6,2,1,,,,,,,,,,,,,,,,,,,,,,,,,,,,,,,,,,
,,,,,,,,,,,,,,1,001,08/23/2024_20h17.23.746,IAT(Formal),2021.2.3,Win32,59.92329818,,,,,,,,,,,,,,,e,1,0.4716,,,,,,自己,e,,,0,7,7,73,1,,,,,,,,,,,,,,,,,,,,,,,,,,,,,,,,,,
,,,,,,,,,,,,,,1,001,08/23/2024_20h17.23.746,IAT(Formal),2021.2.3,Win32,59.92329818,,,,,,,,,,,,,,,i,1,0.5157,,,,,,他,i,,,0,8,8,75,1,,,,,,,,,,,,,,,,,,,,,,,,,,,,,,,,,,
,,,,,,,,,,,,,,1,001,08/23/2024_20h17.23.746,IAT(Formal),2021.2.3,Win32,59.92329818,,,,,,,,,,,,,,,i,1,0.4486,,,,,,他的,i,,,0,9,9,57,1,,,,,,,,,,,,,,,,,,,,,,,,,,,,,,,,,,
,,,,,,,,,,,,,,1,001,08/23/2024_20h17.23.746,IAT(Formal),2021.2.3,Win32,59.92329818,,,,,,,,,,,,,,,i,0,0.5515,,,,,,无私,e,,,0,10,10,22,1,,,,,,,,,,,,,,,,,,,,,,,,,,,,,,,,,,
,,,,,,,,,,,,,,1,001,08/23/2024_20h17.23.746,IAT(Formal),2021.2.3,Win32,59.92329818,,,,,,,,,,,,,,,i,1,0.508,,,,,,猖狂,i,,,0,11,11,45,1,,,,,,,,,,,,,,,,,,,,,,,,,,,,,,,,,,
,,,,,,,,,,,,,,1,001,08/23/2024_20h17.23.746,IAT(Formal),2021.2.3,Win32,59.92329818,,,,,,,,,,,,,,,e,1,0.5339,,,,,,我的,e,,,0,12,12,51,1,,,,,,,,,,,,,,,,,,,,,,,,,,,,,,,,,,
,,,,,,,,,,,,,,1,001,08/23/2024_20h17.23.746,IAT(Formal),2021.2.3,Win32,59.92329818,,,,,,,,,,,,,,,e,1,0.5053,,,,,,自己,e,,,0,13,13,53,1,,,,,,,,,,,,,,,,,,,,,,,,,,,,,,,,,,
,,,,,,,,,,,,,,1,001,08/23/2024_20h17.23.746,IAT(Formal),2021.2.3,Win32,59.92329818,,,,,,,,,,,,,,,i,1,0.5841,,,,,,冒失,i,,,0,14,14,39,1,,,,,,,,,,,,,,,,,,,,,,,,,,,,,,,,,,
,,,,,,,,,,,,,,1,001,08/23/2024_20h17.23.746,IAT(Formal),2021.2.3,Win32,59.92329818,,,,,,,,,,,,,,,e,1,0.5826,,,,,,勤奋,e,,,0,15,15,18,1,,,,,,,,,,,,,,,,,,,,,,,,,,,,,,,,,,
,,,,,,,,,,,,,,1,001,08/23/2024_20h17.23.746,IAT(Formal),2021.2.3,Win32,59.92329818,,,,,,,,,,,,,,,e,1,0.5034,,,,,,我们,e,,,0,16,16,62,1,,,,,,,,,,,,,,,,,,,,,,,,,,,,,,,,,,
,,,,,,,,,,,,,,1,001,08/23/2024_20h17.23.746,IAT(Formal),2021.2.3,Win32,59.92329818,,,,,,,,,,,,,,,i,1,0.5347,,,,,,他人,i,,,0,17,17,78,1,,,,,,,,,,,,,,,,,,,,,,,,,,,,,,,,,,
,,,,,,,,,,,,,,1,001,08/23/2024_20h17.23.746,IAT(Formal),2021.2.3,Win32,59.92329818,,,,,,,,,,,,,,,i,1,0.5396,,,,,,暴躁,i,,,0,18,18,44,1,,,,,,,,,,,,,,,,,,,,,,,,,,,,,,,,,,
,,,,,,,,,,,,,,1,001,08/23/2024_20h17.23.746,IAT(Formal),2021.2.3,Win32,59.92329818,,,,,,,,,,,,,,,e,1,0.6247,,,,,,崇高,e,,,0,19,19,11,1,,,,,,,,,,,,,,,,,,,,,,,,,,,,,,,,,,
,,,,,,,,,,,,,,1,001,08/23/2024_20h17.23.746,IAT(Formal),2021.2.3,Win32,59.92329818,,,,,,,,,,,,,,,i,1,0.5387,,,,,,愚蠢,i,,,0,20,20,32,1,,,,,,,,,,,,,,,,,,,,,,,,,,,,,,,,,,
,,,,,,,,,,,,,,1,001,08/23/2024_20h17.23.746,IAT(Formal),2021.2.3,Win32,59.92329818,,,,,,,,,,,,,,,e,1,0.5043,,,,,,正直,e,,,0,21,21,16,1,,,,,,,,,,,,,,,,,,,,,,,,,,,,,,,,,,
,,,,,,,,,,,,,,1,001,08/23/2024_20h17.23.746,IAT(Formal),2021.2.3,Win32,59.92329818,,,,,,,,,,,,,,,i,1,0.5167,,,,,,凶狠,i,,,0,22,22,42,1,,,,,,,,,,,,,,,,,,,,,,,,,,,,,,,,,,
,,,,,,,,,,,,,,1,001,08/23/2024_20h17.23.746,IAT(Formal),2021.2.3,Win32,59.92329818,,,,,,,,,,,,,,,e,1,0.5662,,,,,,冷静,e,,,0,23,23,26,1,,,,,,,,,,,,,,,,,,,,,,,,,,,,,,,,,,
,,,,,,,,,,,,,,1,001,08/23/2024_20h17.23.746,IAT(Formal),2021.2.3,Win32,59.92329818,,,,,,,,,,,,,,,e,1,0.4901,,,,,,我的,e,,,0,24,24,71,1,,,,,,,,,,,,,,,,,,,,,,,,,,,,,,,,,,
,,,,,,,,,,,,,,1,001,08/23/2024_20h17.23.746,IAT(Formal),2021.2.3,Win32,59.92329818,,,,,,,,,,,,,,,e,1,0.5543,,,,,,活泼,e,,,0,25,25,28,1,,,,,,,,,,,,,,,,,,,,,,,,,,,,,,,,,,
,,,,,,,,,,,,,,1,001,08/23/2024_20h17.23.746,IAT(Formal),2021.2.3,Win32,59.92329818,,,,,,,,,,,,,,,e,1,0.4872,,,,,,我,e,,,0,26,26,70,1,,,,,,,,,,,,,,,,,,,,,,,,,,,,,,,,,,
,,,,,,,,,,,,,,1,001,08/23/2024_20h17.23.746,IAT(Formal),2021.2.3,Win32,59.92329818,,,,,,,,,,,,,,,e,1,0.4218,,,,,,我,e,,,0,27,27,50,1,,,,,,,,,,,,,,,,,,,,,,,,,,,,,,,,,,
,,,,,,,,,,,,,,1,001,08/23/2024_20h17.23.746,IAT(Formal),2021.2.3,Win32,59.92329818,,,,,,,,,,,,,,,e,1,0.4999,,,,,,俺,e,,,0,28,28,74,1,,,,,,,,,,,,,,,,,,,,,,,,,,,,,,,,,,
,,,,,,,,,,,,,,1,001,08/23/2024_20h17.23.746,IAT(Formal),2021.2.3,Win32,59.92329818,,,,,,,,,,,,,,,i,1,0.7163,,,,,,散漫,i,,,0,29,29,41,1,,,,,,,,,,,,,,,,,,,,,,,,,,,,,,,,,,
,,,,,,,,,,,,,,1,001,08/23/2024_20h17.23.746,IAT(Formal),2021.2.3,Win32,59.92329818,,,,,,,,,,,,,,,e,1,0.5992,,,,,,杰出,e,,,0,30,30,13,1,,,,,,,,,,,,,,,,,,,,,,,,,,,,,,,,,,
,,,,,,,,,,,,,,1,001,08/23/2024_20h17.23.746,IAT(Formal),2021.2.3,Win32,59.92329818,,,,,,,,,,,,,,,i,1,0.7027,,,,,,其他,i,,,0,31,31,9,1,,,,,,,,,,,,,,,,,,,,,,,,,,,,,,,,,,
,,,,,,,,,,,,,,1,001,08/23/2024_20h17.23.746,IAT(Formal),2021.2.3,Win32,59.92329818,,,,,,,,,,,,,,,i,1,0.6056,,,,,,卑鄙,i,,,0,32,32,30,1,,,,,,,,,,,,,,,,,,,,,,,,,,,,,,,,,,
,,,,,,,,,,,,,,1,001,08/23/2024_20h17.23.746,IAT(Formal),2021.2.3,Win32,59.92329818,,,,,,,,,,,,,,,e,1,0.5371,,,,,,俺,e,,,0,33,33,64,1,,,,,,,,,,,,,,,,,,,,,,,,,,,,,,,,,,
,,,,,,,,,,,,,,1,001,08/23/2024_20h17.23.746,IAT(Formal),2021.2.3,Win32,59.92329818,,,,,,,,,,,,,,,e,1,0.466,,,,,,俺,e,,,0,34,34,54,1,,,,,,,,,,,,,,,,,,,,,,,,,,,,,,,,,,
,,,,,,,,,,,,,,1,001,08/23/2024_20h17.23.746,IAT(Formal),2021.2.3,Win32,59.92329818,,,,,,,,,,,,,,,e,1,0.4991,,,,,,自己,e,,,0,35,35,63,1,,,,,,,,,,,,,,,,,,,,,,,,,,,,,,,,,,
,,,,,,,,,,,,,,1,001,08/23/2024_20h17.23.746,IAT(Formal),2021.2.3,Win32,59.92329818,,,,,,,,,,,,,,,i,1,0.5993,,,,,,他的,i,,,0,36,36,77,1,,,,,,,,,,,,,,,,,,,,,,,,,,,,,,,,,,
,,,,,,,,,,,,,,1,001,08/23/2024_20h17.23.746,IAT(Formal),2021.2.3,Win32,59.92329818,,,,,,,,,,,,,,,i,1,0.578,,,,,,下贱,i,,,0,37,37,49,1,,,,,,,,,,,,,,,,,,,,,,,,,,,,,,,,,,
,,,,,,,,,,,,,,1,001,08/23/2024_20h17.23.746,IAT(Formal),2021.2.3,Win32,59.92329818,,,,,,,,,,,,,,,i,1,0.589,,,,,,其他,i,,,0,38,38,59,1,,,,,,,,,,,,,,,,,,,,,,,,,,,,,,,,,,
,,,,,,,,,,,,,,1,001,08/23/2024_20h17.23.746,IAT(Formal),2021.2.3,Win32,59.92329818,,,,,,,,,,,,,,,i,1,0.5915,,,,,,他们,i,,,0,39,39,56,1,,,,,,,,,,,,,,,,,,,,,,,,,,,,,,,,,,
,,,,,,,,,,,,,,1,001,08/23/2024_20h17.23.746,IAT(Formal),2021.2.3,Win32,59.92329818,,,,,,,,,,,,,,,i,1,0.6322,,,,,,消极,i,,,0,40,40,35,1,,,,,,,,,,,,,,,,,,,,,,,,,,,,,,,,,,
,,,,,,,,,,,,,,1,001,08/23/2024_20h17.23.746,IAT(Formal),2021.2.3,Win32,59.92329818,,,,,,,,,,,,,,,e,1,0.5406,,,,,,聪明,e,,,0,41,41,12,1,,,,,,,,,,,,,,,,,,,,,,,,,,,,,,,,,,
,,,,,,,,,,,,,,1,001,08/23/2024_20h17.23.746,IAT(Formal),2021.2.3,Win32,59.92329818,,,,,,,,,,,,,,,i,1,0.5507,,,,,,自私,i,,,0,42,42,43,1,,,,,,,,,,,,,,,,,,,,,,,,,,,,,,,,,,
,,,,,,,,,,,,,,1,001,08/23/2024_20h17.23.746,IAT(Formal),2021.2.3,Win32,59.92329818,,,,,,,,,,,,,,,e,1,0.4995,,,,,,公正,e,,,0,43,43,23,1,,,,,,,,,,,,,,,,,,,,,,,,,,,,,,,,,,
,,,,,,,,,,,,,,1,001,08/23/2024_20h17.23.746,IAT(Formal),2021.2.3,Win32,59.92329818,,,,,,,,,,,,,,,e,1,0.4866,,,,,,我,e,,,0,44,44,60,1,,,,,,,,,,,,,,,,,,,,,,,,,,,,,,,,,,
,,,,,,,,,,,,,,1,001,08/23/2024_20h17.23.746,IAT(Formal),2021.2.3,Win32,59.92329818,,,,,,,,,,,,,,,i,1,0.5821,,,,,,他的,i,,,0,45,45,67,1,,,,,,,,,,,,,,,,,,,,,,,,,,,,,,,,,,
,,,,,,,,,,,,,,1,001,08/23/2024_20h17.23.746,IAT(Formal),2021.2.3,Win32,59.92329818,,,,,,,,,,,,,,,i,1,0.7061,,,,,,傲慢,i,,,0,46,46,37,1,,,,,,,,,,,,,,,,,,,,,,,,,,,,,,,,,,
,,,,,,,,,,,,,,1,001,08/23/2024_20h17.23.746,IAT(Formal),2021.2.3,Win32,59.92329818,,,,,,,,,,,,,,,e,1,0.552,,,,,,优秀,e,,,0,47,47,10,1,,,,,,,,,,,,,,,,,,,,,,,,,,,,,,,,,,
,,,,,,,,,,,,,,1,001,08/23/2024_20h17.23.746,IAT(Formal),2021.2.3,Win32,59.92329818,,,,,,,,,,,,,,,e,1,0.5657,,,,,,细腻,e,,,0,48,48,25,1,,,,,,,,,,,,,,,,,,,,,,,,,,,,,,,,,,
,,,,,,,,,,,,,,1,001,08/23/2024_20h17.23.746,IAT(Formal),2021.2.3,Win32,59.92329818,,,,,,,,,,,,,,,i,1,0.602,,,,,,自卑,i,,,0,49,49,36,1,,,,,,,,,,,,,,,,,,,,,,,,,,,,,,,,,,
,,,,,,,,,,,,,,1,001,08/23/2024_20h17.23.746,IAT(Formal),2021.2.3,Win32,59.92329818,,,,,,,,,,,,,,,i,1,0.772,,,,,,他们,i,,,0,50,50,76,1,,,,,,,,,,,,,,,,,,,,,,,,,,,,,,,,,,
,,,,,,,,,,,,,,1,001,08/23/2024_20h17.23.746,IAT(Formal),2021.2.3,Win32,59.92329818,,,,,,,,,,,,,,,e,1,0.5045,,,,,,自己,e,,,0,51,51,3,1,,,,,,,,,,,,,,,,,,,,,,,,,,,,,,,,,,
,,,,,,,,,,,,,,1,001,08/23/2024_20h17.23.746,IAT(Formal),2021.2.3,Win32,59.92329818,,,,,,,,,,,,,,,e,1,0.5826,,,,,,诚恳,e,,,0,52,52,29,1,,,,,,,,,,,,,,,,,,,,,,,,,,,,,,,,,,
,,,,,,,,,,,,,,1,001,08/23/2024_20h17.23.746,IAT(Formal),2021.2.3,Win32,59.92329818,,,,,,,,,,,,,,,e,1,0.5493,,,,,,俺,e,,,0,53,53,4,1,,,,,,,,,,,,,,,,,,,,,,,,,,,,,,,,,,
,,,,,,,,,,,,,,1,001,08/23/2024_20h17.23.746,IAT(Formal),2021.2.3,Win32,59.92329818,,,,,,,,,,,,,,,e,1,0.5502,,,,,,我,e,,,0,54,54,0,1,,,,,,,,,,,,,,,,,,,,,,,,,,,,,,,,,,
,,,,,,,,,,,,,,1,001,08/23/2024_20h17.23.746,IAT(Formal),2021.2.3,Win32,59.92329818,,,,,,,,,,,,,,,e,1,0.5821,,,,,,朴实,e,,,0,55,55,24,1,,,,,,,,,,,,,,,,,,,,,,,,,,,,,,,,,,
,,,,,,,,,,,,,,1,001,08/23/2024_20h17.23.746,IAT(Formal),2021.2.3,Win32,59.92329818,,,,,,,,,,,,,,,e,1,0.5831,,,,,,勇敢,e,,,0,56,56,17,1,,,,,,,,,,,,,,,,,,,,,,,,,,,,,,,,,,
,,,,,,,,,,,,,,1,001,08/23/2024_20h17.23.746,IAT(Formal),2021.2.3,Win32,59.92329818,,,,,,,,,,,,,,,e,1,0.5003,,,,,,我们,e,,,0,57,57,52,1,,,,,,,,,,,,,,,,,,,,,,,,,,,,,,,,,,
,,,,,,,,,,,,,,1,001,08/23/2024_20h17.23.746,IAT(Formal),2021.2.3,Win32,59.92329818,,,,,,,,,,,,,,,e,1,0.4823,,,,,,我的,e,,,0,58,58,61,1,,,,,,,,,,,,,,,,,,,,,,,,,,,,,,,,,,
,,,,,,,,,,,,,,1,001,08/23/2024_20h17.23.746,IAT(Formal),2021.2.3,Win32,59.92329818,,,,,,,,,,,,,,,e,1,0.5812,,,,,,稳重,e,,,0,59,59,21,1,,,,,,,,,,,,,,,,,,,,,,,,,,,,,,,,,,
,,,,,,,,,,,,,,1,001,08/23/2024_20h17.23.746,IAT(Formal),2021.2.3,Win32,59.92329818,,,,,,,,,,,,,,,i,1,0.6387,,,,,,他,i,,,0,60,60,5,1,,,,,,,,,,,,,,,,,,,,,,,,,,,,,,,,,,
,,,,,,,,,,,,,,1,001,08/23/2024_20h17.23.746,IAT(Formal),2021.2.3,Win32,59.92329818,,,,,,,,,,,,,,,i,1,0.6547,,,,,,其他,i,,,0,61,61,69,1,,,,,,,,,,,,,,,,,,,,,,,,,,,,,,,,,,
,,,,,,,,,,,,,,1,001,08/23/2024_20h17.23.746,IAT(Formal),2021.2.3,Win32,59.92329818,,,,,,,,,,,,,,,i,1,0.633,,,,,,鲁莽,i,,,0,62,62,38,1,,,,,,,,,,,,,,,,,,,,,,,,,,,,,,,,,,
,,,,,,,,,,,,,,1,001,08/23/2024_20h17.23.746,IAT(Formal),2021.2.3,Win32,59.92329818,,,,,,,,,,,,,,,i,1,0.5527,,,,,,他,i,,,0,63,63,65,1,,,,,,,,,,,,,,,,,,,,,,,,,,,,,,,,,,
,,,,,,,,,,,,,,1,001,08/23/2024_20h17.23.746,IAT(Formal),2021.2.3,Win32,59.92329818,,,,,,,,,,,,,,,i,1,0.5029,,,,,,他人,i,,,0,64,64,68,1,,,,,,,,,,,,,,,,,,,,,,,,,,,,,,,,,,
,,,,,,,,,,,,,,1,001,08/23/2024_20h17.23.746,IAT(Formal),2021.2.3,Win32,59.92329818,,,,,,,,,,,,,,,i,1,0.4778,,,,,,他人,i,,,0,65,65,8,1,,,,,,,,,,,,,,,,,,,,,,,,,,,,,,,,,,
,,,,,,,,,,,,,,1,001,08/23/2024_20h17.23.746,IAT(Formal),2021.2.3,Win32,59.92329818,,,,,,,,,,,,,,,e,1,0.5326,,,,,,我的,e,,,0,66,66,1,1,,,,,,,,,,,,,,,,,,,,,,,,,,,,,,,,,,
,,,,,,,,,,,,,,1,001,08/23/2024_20h17.23.746,IAT(Formal),2021.2.3,Win32,59.92329818,,,,,,,,,,,,,,,e,1,0.4835,,,,,,我们,e,,,0,67,67,72,1,,,,,,,,,,,,,,,,,,,,,,,,,,,,,,,,,,
,,,,,,,,,,,,,,1,001,08/23/2024_20h17.23.746,IAT(Formal),2021.2.3,Win32,59.92329818,,,,,,,,,,,,,,,i,1,0.6027,,,,,,固执,i,,,0,68,68,47,1,,,,,,,,,,,,,,,,,,,,,,,,,,,,,,,,,,
,,,,,,,,,,,,,,1,001,08/23/2024_20h17.23.746,IAT(Formal),2021.2.3,Win32,59.92329818,,,,,,,,,,,,,,,e,1,0.5825,,,,,,诚实,e,,,0,69,69,15,1,,,,,,,,,,,,,,,,,,,,,,,,,,,,,,,,,,
,,,,,,,,,,,,,,1,001,08/23/2024_20h17.23.746,IAT(Formal),2021.2.3,Win32,59.92329818,,,,,,,,,,,,,,,i,1,0.5934,,,,,,其他,i,,,0,70,70,79,1,,,,,,,,,,,,,,,,,,,,,,,,,,,,,,,,,,
,,,,,,,,,,,,,,1,001,08/23/2024_20h17.23.746,IAT(Formal),2021.2.3,Win32,59.92329818,,,,,,,,,,,,,,,i,1,0.5722,,,,,,他们,i,,,0,71,71,66,1,,,,,,,,,,,,,,,,,,,,,,,,,,,,,,,,,,
,,,,,,,,,,,,,,1,001,08/23/2024_20h17.23.746,IAT(Formal),2021.2.3,Win32,59.92329818,,,,,,,,,,,,,,,i,1,0.4835,,,,,,他,i,,,0,72,72,55,1,,,,,,,,,,,,,,,,,,,,,,,,,,,,,,,,,,
,,,,,,,,,,,,,,1,001,08/23/2024_20h17.23.746,IAT(Formal),2021.2.3,Win32,59.92329818,,,,,,,,,,,,,,,e,1,0.5849,,,,,,机智,e,,,0,73,73,19,1,,,,,,,,,,,,,,,,,,,,,,,,,,,,,,,,,,
,,,,,,,,,,,,,,1,001,08/23/2024_20h17.23.746,IAT(Formal),2021.2.3,Win32,59.92329818,,,,,,,,,,,,,,,i,1,0.6346,,,,,,执拗,i,,,0,74,74,40,1,,,,,,,,,,,,,,,,,,,,,,,,,,,,,,,,,,
,,,,,,,,,,,,,,1,001,08/23/2024_20h17.23.746,IAT(Formal),2021.2.3,Win32,59.92329818,,,,,,,,,,,,,,,i,1,0.5336,,,,,,野蛮,i,,,0,75,75,46,1,,,,,,,,,,,,,,,,,,,,,,,,,,,,,,,,,,
,,,,,,,,,,,,,,1,001,08/23/2024_20h17.23.746,IAT(Formal),2021.2.3,Win32,59.92329818,,,,,,,,,,,,,,,i,1,0.5222,,,,,,悲观,i,,,0,76,76,34,1,,,,,,,,,,,,,,,,,,,,,,,,,,,,,,,,,,
,,,,,,,,,,,,,,1,001,08/23/2024_20h17.23.746,IAT(Formal),2021.2.3,Win32,59.92329818,,,,,,,,,,,,,,,e,1,0.5383,,,,,,乐观,e,,,0,77,77,14,1,,,,,,,,,,,,,,,,,,,,,,,,,,,,,,,,,,
,,,,,,,,,,,,,,1,001,08/23/2024_20h17.23.746,IAT(Formal),2021.2.3,Win32,59.92329818,,,,,,,,,,,,,,,i,1,0.5265,,,,,,他的,i,,,0,78,78,7,1,,,,,,,,,,,,,,,,,,,,,,,,,,,,,,,,,,
,,,,,,,,,,,,,,1,001,08/23/2024_20h17.23.746,IAT(Formal),2021.2.3,Win32,59.92329818,,,,,,,,,,,,,,,e,1,0.5561,,,,,,认真,e,,,0,79,79,20,1,,,,,,,,,,,,,,,,,,,,,,,,,,,,,,,,,,
,,,,,,,,,,,,,,1,001,08/23/2024_20h17.23.746,IAT(Formal),2021.2.3,Win32,59.92329818,,,,,,,,,,,,,,,e,1,0.4985,,,,,,自己,e,,,1,0,80,63,1,,,,,,,,,,,,,,,,,,,,,,,,,,,,,,,,,,
,,,,,,,,,,,,,,1,001,08/23/2024_20h17.23.746,IAT(Formal),2021.2.3,Win32,59.92329818,,,,,,,,,,,,,,,i,1,0.5754,,,,,,自卑,i,,,1,1,81,36,1,,,,,,,,,,,,,,,,,,,,,,,,,,,,,,,,,,
,,,,,,,,,,,,,,1,001,08/23/2024_20h17.23.746,IAT(Formal),2021.2.3,Win32,59.92329818,,,,,,,,,,,,,,,i,1,0.5073,,,,,,野蛮,i,,,1,2,82,46,1,,,,,,,,,,,,,,,,,,,,,,,,,,,,,,,,,,
,,,,,,,,,,,,,,1,001,08/23/2024_20h17.23.746,IAT(Formal),2021.2.3,Win32,59.92329818,,,,,,,,,,,,,,,e,1,0.5989,,,,,,稳重,e,,,1,3,83,21,1,,,,,,,,,,,,,,,,,,,,,,,,,,,,,,,,,,
,,,,,,,,,,,,,,1,001,08/23/2024_20h17.23.746,IAT(Formal),2021.2.3,Win32,59.92329818,,,,,,,,,,,,,,,e,1,0.5085,,,,,,活泼,e,,,1,4,84,28,1,,,,,,,,,,,,,,,,,,,,,,,,,,,,,,,,,,
,,,,,,,,,,,,,,1,001,08/23/2024_20h17.23.746,IAT(Formal),2021.2.3,Win32,59.92329818,,,,,,,,,,,,,,,i,1,0.5244,,,,,,凶狠,i,,,1,5,85,42,1,,,,,,,,,,,,,,,,,,,,,,,,,,,,,,,,,,
,,,,,,,,,,,,,,1,001,08/23/2024_20h17.23.746,IAT(Formal),2021.2.3,Win32,59.92329818,,,,,,,,,,,,,,,e,1,0.5161,,,,,,自己,e,,,1,6,86,73,1,,,,,,,,,,,,,,,,,,,,,,,,,,,,,,,,,,
,,,,,,,,,,,,,,1,001,08/23/2024_20h17.23.746,IAT(Formal),2021.2.3,Win32,59.92329818,,,,,,,,,,,,,,,i,1,0.5762,,,,,,他人,i,,,1,7,87,58,1,,,,,,,,,,,,,,,,,,,,,,,,,,,,,,,,,,
,,,,,,,,,,,,,,1,001,08/23/2024_20h17.23.746,IAT(Formal),2021.2.3,Win32,59.92329818,,,,,,,,,,,,,,,e,1,0.5082,,,,,,我们,e,,,1,8,88,62,1,,,,,,,,,,,,,,,,,,,,,,,,,,,,,,,,,,
,,,,,,,,,,,,,,1,001,08/23/2024_20h17.23.746,IAT(Formal),2021.2.3,Win32,59.92329818,,,,,,,,,,,,,,,i,1,0.4985,,,,,,他的,i,,,1,9,89,7,1,,,,,,,,,,,,,,,,,,,,,,,,,,,,,,,,,,
,,,,,,,,,,,,,,1,001,08/23/2024_20h17.23.746,IAT(Formal),2021.2.3,Win32,59.92329818,,,,,,,,,,,,,,,i,1,0.5868,,,,,,自私,i,,,1,10,90,43,1,,,,,,,,,,,,,,,,,,,,,,,,,,,,,,,,,,
,,,,,,,,,,,,,,1,001,08/23/2024_20h17.23.746,IAT(Formal),2021.2.3,Win32,59.92329818,,,,,,,,,,,,,,,i,1,0.5168,,,,,,他人,i,,,1,11,91,8,1,,,,,,,,,,,,,,,,,,,,,,,,,,,,,,,,,,
,,,,,,,,,,,,,,1,001,08/23/2024_20h17.23.746,IAT(Formal),2021.2.3,Win32,59.92329818,,,,,,,,,,,,,,,i,1,0.451,,,,,,他们,i,,,1,12,92,6,1,,,,,,,,,,,,,,,,,,,,,,,,,,,,,,,,,,
,,,,,,,,,,,,,,1,001,08/23/2024_20h17.23.746,IAT(Formal),2021.2.3,Win32,59.92329818,,,,,,,,,,,,,,,e,1,0.4925,,,,,,我,e,,,1,13,93,70,1,,,,,,,,,,,,,,,,,,,,,,,,,,,,,,,,,,
,,,,,,,,,,,,,,1,001,08/23/2024_20h17.23.746,IAT(Formal),2021.2.3,Win32,59.92329818,,,,,,,,,,,,,,,i,1,0.4918,,,,,,其他,i,,,1,14,94,9,1,,,,,,,,,,,,,,,,,,,,,,,,,,,,,,,,,,
,,,,,,,,,,,,,,1,001,08/23/2024_20h17.23.746,IAT(Formal),2021.2.3,Win32,59.92329818,,,,,,,,,,,,,,,e,1,0.4827,,,,,,自己,e,,,1,15,95,53,1,,,,,,,,,,,,,,,,,,,,,,,,,,,,,,,,,,
,,,,,,,,,,,,,,1,001,08/23/2024_20h17.23.746,IAT(Formal),2021.2.3,Win32,59.92329818,,,,,,,,,,,,,,,e,1,0.5328,,,,,,俺,e,,,1,16,96,64,1,,,,,,,,,,,,,,,,,,,,,,,,,,,,,,,,,,
,,,,,,,,,,,,,,1,001,08/23/2024_20h17.23.746,IAT(Formal),2021.2.3,Win32,59.92329818,,,,,,,,,,,,,,,i,1,0.5826,,,,,,刻薄,i,,,1,17,97,33,1,,,,,,,,,,,,,,,,,,,,,,,,,,,,,,,,,,
,,,,,,,,,,,,,,1,001,08/23/2024_20h17.23.746,IAT(Formal),2021.2.3,Win32,59.92329818,,,,,,,,,,,,,,,e,1,0.5405,,,,,,我的,e,,,1,18,98,61,1,,,,,,,,,,,,,,,,,,,,,,,,,,,,,,,,,,
,,,,,,,,,,,,,,1,001,08/23/2024_20h17.23.746,IAT(Formal),2021.2.3,Win32,59.92329818,,,,,,,,,,,,,,,i,1,0.5162,,,,,,悲观,i,,,1,19,99,34,1,,,,,,,,,,,,,,,,,,,,,,,,,,,,,,,,,,
,,,,,,,,,,,,,,1,001,08/23/2024_20h17.23.746,IAT(Formal),2021.2.3,Win32,59.92329818,,,,,,,,,,,,,,,e,1,0.6417,,,,,,诚恳,e,,,1,20,100,29,1,,,,,,,,,,,,,,,,,,,,,,,,,,,,,,,,,,
,,,,,,,,,,,,,,1,001,08/23/2024_20h17.23.746,IAT(Formal),2021.2.3,Win32,59.92329818,,,,,,,,,,,,,,,e,1,0.5541,,,,,,崇高,e,,,1,21,101,11,1,,,,,,,,,,,,,,,,,,,,,,,,,,,,,,,,,,
,,,,,,,,,,,,,,1,001,08/23/2024_20h17.23.746,IAT(Formal),2021.2.3,Win32,59.92329818,,,,,,,,,,,,,,,e,1,0.4658,,,,,,我,e,,,1,22,102,60,1,,,,,,,,,,,,,,,,,,,,,,,,,,,,,,,,,,
,,,,,,,,,,,,,,1,001,08/23/2024_20h17.23.746,IAT(Formal),2021.2.3,Win32,59.92329818,,,,,,,,,,,,,,,i,1,0.5325,,,,,,其他,i,,,1,23,103,79,1,,,,,,,,,,,,,,,,,,,,,,,,,,,,,,,,,,
,,,,,,,,,,,,,,1,001,08/23/2024_20h17.23.746,IAT(Formal),2021.2.3,Win32,59.92329818,,,,,,,,,,,,,,,e,1,0.5092,,,,,,我们,e,,,1,24,104,52,1,,,,,,,,,,,,,,,,,,,,,,,,,,,,,,,,,,
,,,,,,,,,,,,,,1,001,08/23/2024_20h17.23.746,IAT(Formal),2021.2.3,Win32,59.92329818,,,,,,,,,,,,,,,i,1,0.5655,,,,,,他,i,,,1,25,105,5,1,,,,,,,,,,,,,,,,,,,,,,,,,,,,,,,,,,
,,,,,,,,,,,,,,1,001,08/23/2024_20h17.23.746,IAT(Formal),2021.2.3,Win32,59.92329818,,,,,,,,,,,,,,,i,1,0.5198,,,,,,他的,i,,,1,26,106,57,1,,,,,,,,,,,,,,,,,,,,,,,,,,,,,,,,,,
,,,,,,,,,,,,,,1,001,08/23/2024_20h17.23.746,IAT(Formal),2021.2.3,Win32,59.92329818,,,,,,,,,,,,,,,i,1,0.5572,,,,,,暴躁,i,,,1,27,107,44,1,,,,,,,,,,,,,,,,,,,,,,,,,,,,,,,,,,
,,,,,,,,,,,,,,1,001,08/23/2024_20h17.23.746,IAT(Formal),2021.2.3,Win32,59.92329818,,,,,,,,,,,,,,,i,1,0.5493,,,,,,他,i,,,1,28,108,55,1,,,,,,,,,,,,,,,,,,,,,,,,,,,,,,,,,,
,,,,,,,,,,,,,,1,001,08/23/2024_20h17.23.746,IAT(Formal),2021.2.3,Win32,59.92329818,,,,,,,,,,,,,,,i,1,0.7337,,,,,,散漫,i,,,1,29,109,41,1,,,,,,,,,,,,,,,,,,,,,,,,,,,,,,,,,,
,,,,,,,,,,,,,,1,001,08/23/2024_20h17.23.746,IAT(Formal),2021.2.3,Win32,59.92329818,,,,,,,,,,,,,,,e,1,0.5423,,,,,,我们,e,,,1,30,110,2,1,,,,,,,,,,,,,,,,,,,,,,,,,,,,,,,,,,
,,,,,,,,,,,,,,1,001,08/23/2024_20h17.23.746,IAT(Formal),2021.2.3,Win32,59.92329818,,,,,,,,,,,,,,,e,1,0.4336,,,,,,我的,e,,,1,31,111,1,1,,,,,,,,,,,,,,,,,,,,,,,,,,,,,,,,,,
,,,,,,,,,,,,,,1,001,08/23/2024_20h17.23.746,IAT(Formal),2021.2.3,Win32,59.92329818,,,,,,,,,,,,,,,i,1,0.4849,,,,,,虚伪,i,,,1,32,112,31,1,,,,,,,,,,,,,,,,,,,,,,,,,,,,,,,,,,
,,,,,,,,,,,,,,1,001,08/23/2024_20h17.23.746,IAT(Formal),2021.2.3,Win32,59.92329818,,,,,,,,,,,,,,,i,1,0.4678,,,,,,猖狂,i,,,1,33,113,45,1,,,,,,,,,,,,,,,,,,,,,,,,,,,,,,,,,,
,,,,,,,,,,,,,,1,001,08/23/2024_20h17.23.746,IAT(Formal),2021.2.3,Win32,59.92329818,,,,,,,,,,,,,,,i,1,0.5655,,,,,,其他,i,,,1,34,114,69,1,,,,,,,,,,,,,,,,,,,,,,,,,,,,,,,,,,
,,,,,,,,,,,,,,1,001,08/23/2024_20h17.23.746,IAT(Formal),2021.2.3,Win32,59.92329818,,,,,,,,,,,,,,,i,1,0.4961,,,,,,他,i,,,1,35,115,65,1,,,,,,,,,,,,,,,,,,,,,,,,,,,,,,,,,,
,,,,,,,,,,,,,,1,001,08/23/2024_20h17.23.746,IAT(Formal),2021.2.3,Win32,59.92329818,,,,,,,,,,,,,,,e,1,0.4823,,,,,,我,e,,,1,36,116,50,1,,,,,,,,,,,,,,,,,,,,,,,,,,,,,,,,,,
,,,,,,,,,,,,,,1,001,08/23/2024_20h17.23.746,IAT(Formal),2021.2.3,Win32,59.92329818,,,,,,,,,,,,,,,i,1,0.5329,,,,,,冒失,i,,,1,37,117,39,1,,,,,,,,,,,,,,,,,,,,,,,,,,,,,,,,,,
,,,,,,,,,,,,,,1,001,08/23/2024_20h17.23.746,IAT(Formal),2021.2.3,Win32,59.92329818,,,,,,,,,,,,,,,e,1,0.6846,,,,,,俺,e,,,1,38,118,54,1,,,,,,,,,,,,,,,,,,,,,,,,,,,,,,,,,,
,,,,,,,,,,,,,,1,001,08/23/2024_20h17.23.746,IAT(Formal),2021.2.3,Win32,59.92329818,,,,,,,,,,,,,,,e,1,0.5234,,,,,,我的,e,,,1,39,119,71,1,,,,,,,,,,,,,,,,,,,,,,,,,,,,,,,,,,
,,,,,,,,,,,,,,1,001,08/23/2024_20h17.23.746,IAT(Formal),2021.2.3,Win32,59.92329818,,,,,,,,,,,,,,,i,1,0.5997,,,,,,执拗,i,,,1,40,120,40,1,,,,,,,,,,,,,,,,,,,,,,,,,,,,,,,,,,
,,,,,,,,,,,,,,1,001,08/23/2024_20h17.23.746,IAT(Formal),2021.2.3,Win32,59.92329818,,,,,,,,,,,,,,,i,1,0.5332,,,,,,他们,i,,,1,41,121,76,1,,,,,,,,,,,,,,,,,,,,,,,,,,,,,,,,,,
,,,,,,,,,,,,,,1,001,08/23/2024_20h17.23.746,IAT(Formal),2021.2.3,Win32,59.92329818,,,,,,,,,,,,,,,e,1,0.5507,,,,,,我们,e,,,1,42,122,72,1,,,,,,,,,,,,,,,,,,,,,,,,,,,,,,,,,,
,,,,,,,,,,,,,,1,001,08/23/2024_20h17.23.746,IAT(Formal),2021.2.3,Win32,59.92329818,,,,,,,,,,,,,,,e,1,0.567,,,,,,杰出,e,,,1,43,123,13,1,,,,,,,,,,,,,,,,,,,,,,,,,,,,,,,,,,
,,,,,,,,,,,,,,1,001,08/23/2024_20h17.23.746,IAT(Formal),2021.2.3,Win32,59.92329818,,,,,,,,,,,,,,,e,1,0.5485,,,,,,俺,e,,,1,44,124,74,1,,,,,,,,,,,,,,,,,,,,,,,,,,,,,,,,,,
,,,,,,,,,,,,,,1,001,08/23/2024_20h17.23.746,IAT(Formal),2021.2.3,Win32,59.92329818,,,,,,,,,,,,,,,i,1,0.5528,,,,,,他的,i,,,1,45,125,77,1,,,,,,,,,,,,,,,,,,,,,,,,,,,,,,,,,,
,,,,,,,,,,,,,,1,001,08/23/2024_20h17.23.746,IAT(Formal),2021.2.3,Win32,59.92329818,,,,,,,,,,,,,,,i,1,0.5569,,,,,,他人,i,,,1,46,126,78,1,,,,,,,,,,,,,,,,,,,,,,,,,,,,,,,,,,
,,,,,,,,,,,,,,1,001,08/23/2024_20h17.23.746,IAT(Formal),2021.2.3,Win32,59.92329818,,,,,,,,,,,,,,,e,1,0.5328,,,,,,优秀,e,,,1,47,127,10,1,,,,,,,,,,,,,,,,,,,,,,,,,,,,,,,,,,
,,,,,,,,,,,,,,1,001,08/23/2024_20h17.23.746,IAT(Formal),2021.2.3,Win32,59.92329818,,,,,,,,,,,,,,,e,1,0.6389,,,,,,朴实,e,,,1,48,128,24,1,,,,,,,,,,,,,,,,,,,,,,,,,,,,,,,,,,
,,,,,,,,,,,,,,1,001,08/23/2024_20h17.23.746,IAT(Formal),2021.2.3,Win32,59.92329818,,,,,,,,,,,,,,,i,1,0.5211,,,,,,鲁莽,i,,,1,49,129,38,1,,,,,,,,,,,,,,,,,,,,,,,,,,,,,,,,,,
,,,,,,,,,,,,,,1,001,08/23/2024_20h17.23.746,IAT(Formal),2021.2.3,Win32,59.92329818,,,,,,,,,,,,,,,e,1,0.5433,,,,,,乐观,e,,,1,50,130,14,1,,,,,,,,,,,,,,,,,,,,,,,,,,,,,,,,,,
,,,,,,,,,,,,,,1,001,08/23/2024_20h17.23.746,IAT(Formal),2021.2.3,Win32,59.92329818,,,,,,,,,,,,,,,e,1,0.5565,,,,,,热情,e,,,1,51,131,27,1,,,,,,,,,,,,,,,,,,,,,,,,,,,,,,,,,,
,,,,,,,,,,,,,,1,001,08/23/2024_20h17.23.746,IAT(Formal),2021.2.3,Win32,59.92329818,,,,,,,,,,,,,,,e,1,0.4994,,,,,,我的,e,,,1,52,132,51,1,,,,,,,,,,,,,,,,,,,,,,,,,,,,,,,,,,
,,,,,,,,,,,,,,1,001,08/23/2024_20h17.23.746,IAT(Formal),2021.2.3,Win32,59.92329818,,,,,,,,,,,,,,,e,1,0.5509,,,,,,机智,e,,,1,53,133,19,1,,,,,,,,,,,,,,,,,,,,,,,,,,,,,,,,,,
,,,,,,,,,,,,,,1,001,08/23/2024_20h17.23.746,IAT(Formal),2021.2.3,Win32,59.92329818,,,,,,,,,,,,,,,e,1,0.4926,,,,,,聪明,e,,,1,54,134,12,1,,,,,,,,,,,,,,,,,,,,,,,,,,,,,,,,,,
,,,,,,,,,,,,,,1,001,08/23/2024_20h17.23.746,IAT(Formal),2021.2.3,Win32,59.92329818,,,,,,,,,,,,,,,i,1,0.566,,,,,,固执,i,,,1,55,135,47,1,,,,,,,,,,,,,,,,,,,,,,,,,,,,,,,,,,
,,,,,,,,,,,,,,1,001,08/23/2024_20h17.23.746,IAT(Formal),2021.2.3,Win32,59.92329818,,,,,,,,,,,,,,,e,1,0.504,,,,,,自己,e,,,1,56,136,3,1,,,,,,,,,,,,,,,,,,,,,,,,,,,,,,,,,,
,,,,,,,,,,,,,,1,001,08/23/2024_20h17.23.746,IAT(Formal),2021.2.3,Win32,59.92329818,,,,,,,,,,,,,,,e,1,0.5992,,,,,,冷静,e,,,1,57,137,26,1,,,,,,,,,,,,,,,,,,,,,,,,,,,,,,,,,,
,,,,,,,,,,,,,,1,001,08/23/2024_20h17.23.746,IAT(Formal),2021.2.3,Win32,59.92329818,,,,,,,,,,,,,,,e,1,0.6493,,,,,,无私,e,,,1,58,138,22,1,,,,,,,,,,,,,,,,,,,,,,,,,,,,,,,,,,
,,,,,,,,,,,,,,1,001,08/23/2024_20h17.23.746,IAT(Formal),2021.2.3,Win32,59.92329818,,,,,,,,,,,,,,,e,0,0.5157,,,,,,轻率,i,,,1,59,139,48,1,,,,,,,,,,,,,,,,,,,,,,,,,,,,,,,,,,
,,,,,,,,,,,,,,1,001,08/23/2024_20h17.23.746,IAT(Formal),2021.2.3,Win32,59.92329818,,,,,,,,,,,,,,,i,1,0.5922,,,,,,愚蠢,i,,,1,60,140,32,1,,,,,,,,,,,,,,,,,,,,,,,,,,,,,,,,,,
,,,,,,,,,,,,,,1,001,08/23/2024_20h17.23.746,IAT(Formal),2021.2.3,Win32,59.92329818,,,,,,,,,,,,,,,i,1,0.5563,,,,,,他们,i,,,1,61,141,66,1,,,,,,,,,,,,,,,,,,,,,,,,,,,,,,,,,,
,,,,,,,,,,,,,,1,001,08/23/2024_20h17.23.746,IAT(Formal),2021.2.3,Win32,59.92329818,,,,,,,,,,,,,,,i,1,0.4664,,,,,,他们,i,,,1,62,142,56,1,,,,,,,,,,,,,,,,,,,,,,,,,,,,,,,,,,
,,,,,,,,,,,,,,1,001,08/23/2024_20h17.23.746,IAT(Formal),2021.2.3,Win32,59.92329818,,,,,,,,,,,,,,,e,1,0.593,,,,,,正直,e,,,1,63,143,16,1,,,,,,,,,,,,,,,,,,,,,,,,,,,,,,,,,,
,,,,,,,,,,,,,,1,001,08/23/2024_20h17.23.746,IAT(Formal),2021.2.3,Win32,59.92329818,,,,,,,,,,,,,,,i,1,0.693,,,,,,卑鄙,i,,,1,64,144,30,1,,,,,,,,,,,,,,,,,,,,,,,,,,,,,,,,,,
,,,,,,,,,,,,,,1,001,08/23/2024_20h17.23.746,IAT(Formal),2021.2.3,Win32,59.92329818,,,,,,,,,,,,,,,e,1,0.6157,,,,,,公正,e,,,1,65,145,23,1,,,,,,,,,,,,,,,,,,,,,,,,,,,,,,,,,,
,,,,,,,,,,,,,,1,001,08/23/2024_20h17.23.746,IAT(Formal),2021.2.3,Win32,59.92329818,,,,,,,,,,,,,,,e,1,0.5178,,,,,,我,e,,,1,66,146,0,1,,,,,,,,,,,,,,,,,,,,,,,,,,,,,,,,,,
,,,,,,,,,,,,,,1,001,08/23/2024_20h17.23.746,IAT(Formal),2021.2.3,Win32,59.92329818,,,,,,,,,,,,,,,i,1,0.599,,,,,,他,i,,,1,67,147,75,1,,,,,,,,,,,,,,,,,,,,,,,,,,,,,,,,,,
,,,,,,,,,,,,,,1,001,08/23/2024_20h17.23.746,IAT(Formal),2021.2.3,Win32,59.92329818,,,,,,,,,,,,,,,i,1,0.5427,,,,,,其他,i,,,1,68,148,59,1,,,,,,,,,,,,,,,,,,,,,,,,,,,,,,,,,,
,,,,,,,,,,,,,,1,001,08/23/2024_20h17.23.746,IAT(Formal),2021.2.3,Win32,59.92329818,,,,,,,,,,,,,,,i,1,0.4682,,,,,,他的,i,,,1,69,149,67,1,,,,,,,,,,,,,,,,,,,,,,,,,,,,,,,,,,
,,,,,,,,,,,,,,1,001,08/23/2024_20h17.23.746,IAT(Formal),2021.2.3,Win32,59.92329818,,,,,,,,,,,,,,,e,1,0.5569,,,,,,勇敢,e,,,1,70,150,17,1,,,,,,,,,,,,,,,,,,,,,,,,,,,,,,,,,,
,,,,,,,,,,,,,,1,001,08/23/2024_20h17.23.746,IAT(Formal),2021.2.3,Win32,59.92329818,,,,,,,,,,,,,,,i,1,0.625,,,,,,消极,i,,,1,71,151,35,1,,,,,,,,,,,,,,,,,,,,,,,,,,,,,,,,,,
,,,,,,,,,,,,,,1,001,08/23/2024_20h17.23.746,IAT(Formal),2021.2.3,Win32,59.92329818,,,,,,,,,,,,,,,e,1,0.4747,,,,,,认真,e,,,1,72,152,20,1,,,,,,,,,,,,,,,,,,,,,,,,,,,,,,,,,,
,,,,,,,,,,,,,,1,001,08/23/2024_20h17.23.746,IAT(Formal),2021.2.3,Win32,59.92329818,,,,,,,,,,,,,,,e,1,0.5066,,,,,,诚实,e,,,1,73,153,15,1,,,,,,,,,,,,,,,,,,,,,,,,,,,,,,,,,,
,,,,,,,,,,,,,,1,001,08/23/2024_20h17.23.746,IAT(Formal),2021.2.3,Win32,59.92329818,,,,,,,,,,,,,,,e,1,0.5376,,,,,,俺,e,,,1,74,154,4,1,,,,,,,,,,,,,,,,,,,,,,,,,,,,,,,,,,
,,,,,,,,,,,,,,1,001,08/23/2024_20h17.23.746,IAT(Formal),2021.2.3,Win32,59.92329818,,,,,,,,,,,,,,,i,1,0.549,,,,,,他人,i,,,1,75,155,68,1,,,,,,,,,,,,,,,,,,,,,,,,,,,,,,,,,,
,,,,,,,,,,,,,,1,001,08/23/2024_20h17.23.746,IAT(Formal),2021.2.3,Win32,59.92329818,,,,,,,,,,,,,,,i,1,0.5399,,,,,,下贱,i,,,1,76,156,49,1,,,,,,,,,,,,,,,,,,,,,,,,,,,,,,,,,,
,,,,,,,,,,,,,,1,001,08/23/2024_20h17.23.746,IAT(Formal),2021.2.3,Win32,59.92329818,,,,,,,,,,,,,,,i,1,0.506,,,,,,傲慢,i,,,1,77,157,37,1,,,,,,,,,,,,,,,,,,,,,,,,,,,,,,,,,,
,,,,,,,,,,,,,,1,001,08/23/2024_20h17.23.746,IAT(Formal),2021.2.3,Win32,59.92329818,,,,,,,,,,,,,,,e,1,0.6015,,,,,,细腻,e,,,1,78,158,25,1,,,,,,,,,,,,,,,,,,,,,,,,,,,,,,,,,,
,,,,,,,,,,,,,,1,001,08/23/2024_20h17.23.746,IAT(Formal),2021.2.3,Win32,59.92329818,,,,,,,,,,,,,,,e,1,0.5319,,,,,,勤奋,e,,,1,79,159,18,1,,,,,,,,,,,,,,,,,,,,,,,,,,,,,,,,,,
,,,,,,,,,,,,我的,i,1,001,08/23/2024_20h17.23.746,IAT(Formal),2021.2.3,Win32,59.92329818,,,,,,,,,,,,,,,,,,,,,,,,,,,,,,,,space,17.214,i,1,0.7344,0,0,0,1,1,,,,,,,,,,,,,,,,,,,,,,,,
,,,,,,,,,,,,自己,i,1,001,08/23/2024_20h17.23.746,IAT(Formal),2021.2.3,Win32,59.92329818,,,,,,,,,,,,,,,,,,,,,,,,,,,,,,,,,,i,1,0.5712,0,1,1,3,1,,,,,,,,,,,,,,,,,,,,,,,,
,,,,,,,,,,,,他,e,1,001,08/23/2024_20h17.23.746,IAT(Formal),2021.2.3,Win32,59.92329818,,,,,,,,,,,,,,,,,,,,,,,,,,,,,,,,,,e,1,0.4652,0,2,2,5,1,,,,,,,,,,,,,,,,,,,,,,,,
,,,,,,,,,,,,我们,i,1,001,08/23/2024_20h17.23.746,IAT(Formal),2021.2.3,Win32,59.92329818,,,,,,,,,,,,,,,,,,,,,,,,,,,,,,,,,,i,1,0.5358,0,3,3,2,1,,,,,,,,,,,,,,,,,,,,,,,,
,,,,,,,,,,,,俺,i,1,001,08/23/2024_20h17.23.746,IAT(Formal),2021.2.3,Win32,59.92329818,,,,,,,,,,,,,,,,,,,,,,,,,,,,,,,,,,i,1,0.5842,0,4,4,4,1,,,,,,,,,,,,,,,,,,,,,,,,
,,,,,,,,,,,,其他,e,1,001,08/23/2024_20h17.23.746,IAT(Formal),2021.2.3,Win32,59.92329818,,,,,,,,,,,,,,,,,,,,,,,,,,,,,,,,,,e,1,0.4506,0,5,5,9,1,,,,,,,,,,,,,,,,,,,,,,,,
,,,,,,,,,,,,他人,e,1,001,08/23/2024_20h17.23.746,IAT(Formal),2021.2.3,Win32,59.92329818,,,,,,,,,,,,,,,,,,,,,,,,,,,,,,,,,,e,1,0.4584,0,6,6,8,1,,,,,,,,,,,,,,,,,,,,,,,,
,,,,,,,,,,,,他的,e,1,001,08/23/2024_20h17.23.746,IAT(Formal),2021.2.3,Win32,59.92329818,,,,,,,,,,,,,,,,,,,,,,,,,,,,,,,,,,e,1,0.4606,0,7,7,7,1,,,,,,,,,,,,,,,,,,,,,,,,
,,,,,,,,,,,,我,i,1,001,08/23/2024_20h17.23.746,IAT(Formal),2021.2.3,Win32,59.92329818,,,,,,,,,,,,,,,,,,,,,,,,,,,,,,,,,,i,1,0.5155,0,8,8,0,1,,,,,,,,,,,,,,,,,,,,,,,,
,,,,,,,,,,,,他们,e,1,001,08/23/2024_20h17.23.746,IAT(Formal),2021.2.3,Win32,59.92329818,,,,,,,,,,,,,,,,,,,,,,,,,,,,,,,,,,e,1,0.618,0,9,9,6,1,,,,,,,,,,,,,,,,,,,,,,,,
,,,,,,,,,,,,,,1,001,08/23/2024_20h17.23.746,IAT(Formal),2021.2.3,Win32,59.92329818,,,,,,,,,,,,,,,,,,,,,,,,,,,,,,,,,,,,,,,,,,space,13.5793,e,1,0.5995,0,0,0,78,1,他人,e,,,,,,,,,,,,
,,,,,,,,,,,,,,1,001,08/23/2024_20h17.23.746,IAT(Formal),2021.2.3,Win32,59.92329818,,,,,,,,,,,,,,,,,,,,,,,,,,,,,,,,,,,,,,,,,,,,e,1,0.6156,0,1,1,76,1,他们,e,,,,,,,,,,,,
,,,,,,,,,,,,,,1,001,08/23/2024_20h17.23.746,IAT(Formal),2021.2.3,Win32,59.92329818,,,,,,,,,,,,,,,,,,,,,,,,,,,,,,,,,,,,,,,,,,,,i,1,0.6013,0,2,2,60,1,我,i,,,,,,,,,,,,
,,,,,,,,,,,,,,1,001,08/23/2024_20h17.23.746,IAT(Formal),2021.2.3,Win32,59.92329818,,,,,,,,,,,,,,,,,,,,,,,,,,,,,,,,,,,,,,,,,,,,i,1,0.5233,0,3,3,46,1,野蛮,i,,,,,,,,,,,,
,,,,,,,,,,,,,,1,001,08/23/2024_20h17.23.746,IAT(Formal),2021.2.3,Win32,59.92329818,,,,,,,,,,,,,,,,,,,,,,,,,,,,,,,,,,,,,,,,,,,,e,1,0.9002,0,4,4,69,1,其他,e,,,,,,,,,,,,
,,,,,,,,,,,,,,1,001,08/23/2024_20h17.23.746,IAT(Formal),2021.2.3,Win32,59.92329818,,,,,,,,,,,,,,,,,,,,,,,,,,,,,,,,,,,,,,,,,,,,i,1,0.5692,0,5,5,53,1,自己,i,,,,,,,,,,,,
,,,,,,,,,,,,,,1,001,08/23/2024_20h17.23.746,IAT(Formal),2021.2.3,Win32,59.92329818,,,,,,,,,,,,,,,,,,,,,,,,,,,,,,,,,,,,,,,,,,,,i,1,0.5259,0,6,6,0,1,我,i,,,,,,,,,,,,
,,,,,,,,,,,,,,1,001,08/23/2024_20h17.23.746,IAT(Formal),2021.2.3,Win32,59.92329818,,,,,,,,,,,,,,,,,,,,,,,,,,,,,,,,,,,,,,,,,,,,i,1,0.4755,0,7,7,37,1,傲慢,i,,,,,,,,,,,,
,,,,,,,,,,,,,,1,001,08/23/2024_20h17.23.746,IAT(Formal),2021.2.3,Win32,59.92329818,,,,,,,,,,,,,,,,,,,,,,,,,,,,,,,,,,,,,,,,,,,,i,1,0.5673,0,8,8,72,1,我们,i,,,,,,,,,,,,
,,,,,,,,,,,,,,1,001,08/23/2024_20h17.23.746,IAT(Formal),2021.2.3,Win32,59.92329818,,,,,,,,,,,,,,,,,,,,,,,,,,,,,,,,,,,,,,,,,,,,i,1,0.5518,0,9,9,42,1,凶狠,i,,,,,,,,,,,,
,,,,,,,,,,,,,,1,001,08/23/2024_20h17.23.746,IAT(Formal),2021.2.3,Win32,59.92329818,,,,,,,,,,,,,,,,,,,,,,,,,,,,,,,,,,,,,,,,,,,,i,1,0.4848,0,10,10,47,1,固执,i,,,,,,,,,,,,
,,,,,,,,,,,,,,1,001,08/23/2024_20h17.23.746,IAT(Formal),2021.2.3,Win32,59.92329818,,,,,,,,,,,,,,,,,,,,,,,,,,,,,,,,,,,,,,,,,,,,e,1,0.508,0,11,11,28,1,活泼,e,,,,,,,,,,,,
,,,,,,,,,,,,,,1,001,08/23/2024_20h17.23.746,IAT(Formal),2021.2.3,Win32,59.92329818,,,,,,,,,,,,,,,,,,,,,,,,,,,,,,,,,,,,,,,,,,,,e,0,0.5558,0,12,12,62,1,我们,i,,,,,,,,,,,,
,,,,,,,,,,,,,,1,001,08/23/2024_20h17.23.746,IAT(Formal),2021.2.3,Win32,59.92329818,,,,,,,,,,,,,,,,,,,,,,,,,,,,,,,,,,,,,,,,,,,,i,1,0.5773,0,13,13,45,1,猖狂,i,,,,,,,,,,,,
,,,,,,,,,,,,,,1,001,08/23/2024_20h17.23.746,IAT(Formal),2021.2.3,Win32,59.92329818,,,,,,,,,,,,,,,,,,,,,,,,,,,,,,,,,,,,,,,,,,,,,0,,0,14,14,70,1,我,i,,,,,,,,,,,,
,,,,,,,,,,,,,,1,001,08/23/2024_20h17.23.746,IAT(Formal),2021.2.3,Win32,59.92329818,,,,,,,,,,,,,,,,,,,,,,,,,,,,,,,,,,,,,,,,,,,,e,1,0.8195,0,15,15,11,1,崇高,e,,,,,,,,,,,,
,,,,,,,,,,,,,,1,001,08/23/2024_20h17.23.746,IAT(Formal),2021.2.3,Win32,59.92329818,,,,,,,,,,,,,,,,,,,,,,,,,,,,,,,,,,,,,,,,,,,,e,1,0.5432,0,16,16,21,1,稳重,e,,,,,,,,,,,,
,,,,,,,,,,,,,,1,001,08/23/2024_20h17.23.746,IAT(Formal),2021.2.3,Win32,59.92329818,,,,,,,,,,,,,,,,,,,,,,,,,,,,,,,,,,,,,,,,,,,,e,1,0.5566,0,17,17,14,1,乐观,e,,,,,,,,,,,,
,,,,,,,,,,,,,,1,001,08/23/2024_20h17.23.746,IAT(Formal),2021.2.3,Win32,59.92329818,,,,,,,,,,,,,,,,,,,,,,,,,,,,,,,,,,,,,,,,,,,,i,1,0.5687,0,18,18,71,1,我的,i,,,,,,,,,,,,
,,,,,,,,,,,,,,1,001,08/23/2024_20h17.23.746,IAT(Formal),2021.2.3,Win32,59.92329818,,,,,,,,,,,,,,,,,,,,,,,,,,,,,,,,,,,,,,,,,,,,e,1,0.5568,0,19,19,5,1,他,e,,,,,,,,,,,,
,,,,,,,,,,,,,,1,001,08/23/2024_20h17.23.746,IAT(Formal),2021.2.3,Win32,59.92329818,,,,,,,,,,,,,,,,,,,,,,,,,,,,,,,,,,,,,,,,,,,,i,1,0.6896,0,20,20,54,1,俺,i,,,,,,,,,,,,
,,,,,,,,,,,,,,1,001,08/23/2024_20h17.23.746,IAT(Formal),2021.2.3,Win32,59.92329818,,,,,,,,,,,,,,,,,,,,,,,,,,,,,,,,,,,,,,,,,,,,i,1,0.5007,0,21,21,35,1,消极,i,,,,,,,,,,,,
,,,,,,,,,,,,,,1,001,08/23/2024_20h17.23.746,IAT(Formal),2021.2.3,Win32,59.92329818,,,,,,,,,,,,,,,,,,,,,,,,,,,,,,,,,,,,,,,,,,,,i,1,0.4876,0,22,22,33,1,刻薄,i,,,,,,,,,,,,
,,,,,,,,,,,,,,1,001,08/23/2024_20h17.23.746,IAT(Formal),2021.2.3,Win32,59.92329818,,,,,,,,,,,,,,,,,,,,,,,,,,,,,,,,,,,,,,,,,,,,i,1,0.5164,0,23,23,39,1,冒失,i,,,,,,,,,,,,
,,,,,,,,,,,,,,1,001,08/23/2024_20h17.23.746,IAT(Formal),2021.2.3,Win32,59.92329818,,,,,,,,,,,,,,,,,,,,,,,,,,,,,,,,,,,,,,,,,,,,i,0,0.4824,0,24,24,9,1,其他,e,,,,,,,,,,,,
,,,,,,,,,,,,,,1,001,08/23/2024_20h17.23.746,IAT(Formal),2021.2.3,Win32,59.92329818,,,,,,,,,,,,,,,,,,,,,,,,,,,,,,,,,,,,,,,,,,,,i,1,0.4856,0,25,25,52,1,我们,i,,,,,,,,,,,,
,,,,,,,,,,,,,,1,001,08/23/2024_20h17.23.746,IAT(Formal),2021.2.3,Win32,59.92329818,,,,,,,,,,,,,,,,,,,,,,,,,,,,,,,,,,,,,,,,,,,,i,1,0.5561,0,26,26,3,1,自己,i,,,,,,,,,,,,
,,,,,,,,,,,,,,1,001,08/23/2024_20h17.23.746,IAT(Formal),2021.2.3,Win32,59.92329818,,,,,,,,,,,,,,,,,,,,,,,,,,,,,,,,,,,,,,,,,,,,e,1,0.5046,0,27,27,6,1,他们,e,,,,,,,,,,,,
,,,,,,,,,,,,,,1,001,08/23/2024_20h17.23.746,IAT(Formal),2021.2.3,Win32,59.92329818,,,,,,,,,,,,,,,,,,,,,,,,,,,,,,,,,,,,,,,,,,,,e,1,0.6002,0,28,28,59,1,其他,e,,,,,,,,,,,,
,,,,,,,,,,,,,,1,001,08/23/2024_20h17.23.746,IAT(Formal),2021.2.3,Win32,59.92329818,,,,,,,,,,,,,,,,,,,,,,,,,,,,,,,,,,,,,,,,,,,,i,1,0.6909,0,29,29,1,1,我的,i,,,,,,,,,,,,
,,,,,,,,,,,,,,1,001,08/23/2024_20h17.23.746,IAT(Formal),2021.2.3,Win32,59.92329818,,,,,,,,,,,,,,,,,,,,,,,,,,,,,,,,,,,,,,,,,,,,i,1,0.7702,0,30,30,43,1,自私,i,,,,,,,,,,,,
,,,,,,,,,,,,,,1,001,08/23/2024_20h17.23.746,IAT(Formal),2021.2.3,Win32,59.92329818,,,,,,,,,,,,,,,,,,,,,,,,,,,,,,,,,,,,,,,,,,,,e,0,0.6218,0,31,31,74,1,俺,i,,,,,,,,,,,,
,,,,,,,,,,,,,,1,001,08/23/2024_20h17.23.746,IAT(Formal),2021.2.3,Win32,59.92329818,,,,,,,,,,,,,,,,,,,,,,,,,,,,,,,,,,,,,,,,,,,,e,1,0.8561,0,32,32,22,1,无私,e,,,,,,,,,,,,
,,,,,,,,,,,,,,1,001,08/23/2024_20h17.23.746,IAT(Formal),2021.2.3,Win32,59.92329818,,,,,,,,,,,,,,,,,,,,,,,,,,,,,,,,,,,,,,,,,,,,e,1,0.9365,0,33,33,8,1,他人,e,,,,,,,,,,,,
,,,,,,,,,,,,,,1,001,08/23/2024_20h17.23.746,IAT(Formal),2021.2.3,Win32,59.92329818,,,,,,,,,,,,,,,,,,,,,,,,,,,,,,,,,,,,,,,,,,,,e,1,0.5043,0,34,34,68,1,他人,e,,,,,,,,,,,,
,,,,,,,,,,,,,,1,001,08/23/2024_20h17.23.746,IAT(Formal),2021.2.3,Win32,59.92329818,,,,,,,,,,,,,,,,,,,,,,,,,,,,,,,,,,,,,,,,,,,,i,1,0.6212,0,35,35,41,1,散漫,i,,,,,,,,,,,,
,,,,,,,,,,,,,,1,001,08/23/2024_20h17.23.746,IAT(Formal),2021.2.3,Win32,59.92329818,,,,,,,,,,,,,,,,,,,,,,,,,,,,,,,,,,,,,,,,,,,,e,1,0.5756,0,36,36,65,1,他,e,,,,,,,,,,,,
,,,,,,,,,,,,,,1,001,08/23/2024_20h17.23.746,IAT(Formal),2021.2.3,Win32,59.92329818,,,,,,,,,,,,,,,,,,,,,,,,,,,,,,,,,,,,,,,,,,,,e,1,0.7078,0,37,37,12,1,聪明,e,,,,,,,,,,,,
,,,,,,,,,,,,,,1,001,08/23/2024_20h17.23.746,IAT(Formal),2021.2.3,Win32,59.92329818,,,,,,,,,,,,,,,,,,,,,,,,,,,,,,,,,,,,,,,,,,,,e,1,0.5155,0,38,38,17,1,勇敢,e,,,,,,,,,,,,
,,,,,,,,,,,,,,1,001,08/23/2024_20h17.23.746,IAT(Formal),2021.2.3,Win32,59.92329818,,,,,,,,,,,,,,,,,,,,,,,,,,,,,,,,,,,,,,,,,,,,i,1,0.6836,0,39,39,2,1,我们,i,,,,,,,,,,,,
,,,,,,,,,,,,,,1,001,08/23/2024_20h17.23.746,IAT(Formal),2021.2.3,Win32,59.92329818,,,,,,,,,,,,,,,,,,,,,,,,,,,,,,,,,,,,,,,,,,,,i,1,0.6729,0,40,40,36,1,自卑,i,,,,,,,,,,,,
,,,,,,,,,,,,,,1,001,08/23/2024_20h17.23.746,IAT(Formal),2021.2.3,Win32,59.92329818,,,,,,,,,,,,,,,,,,,,,,,,,,,,,,,,,,,,,,,,,,,,e,1,0.6086,0,41,41,7,1,他的,e,,,,,,,,,,,,
,,,,,,,,,,,,,,1,001,08/23/2024_20h17.23.746,IAT(Formal),2021.2.3,Win32,59.92329818,,,,,,,,,,,,,,,,,,,,,,,,,,,,,,,,,,,,,,,,,,,,i,1,0.676,0,42,42,31,1,虚伪,i,,,,,,,,,,,,
,,,,,,,,,,,,,,1,001,08/23/2024_20h17.23.746,IAT(Formal),2021.2.3,Win32,59.92329818,,,,,,,,,,,,,,,,,,,,,,,,,,,,,,,,,,,,,,,,,,,,e,1,0.6488,0,43,43,26,1,冷静,e,,,,,,,,,,,,
,,,,,,,,,,,,,,1,001,08/23/2024_20h17.23.746,IAT(Formal),2021.2.3,Win32,59.92329818,,,,,,,,,,,,,,,,,,,,,,,,,,,,,,,,,,,,,,,,,,,,i,1,0.6379,0,44,44,73,1,自己,i,,,,,,,,,,,,
,,,,,,,,,,,,,,1,001,08/23/2024_20h17.23.746,IAT(Formal),2021.2.3,Win32,59.92329818,,,,,,,,,,,,,,,,,,,,,,,,,,,,,,,,,,,,,,,,,,,,e,1,0.7512,0,45,45,20,1,认真,e,,,,,,,,,,,,
,,,,,,,,,,,,,,1,001,08/23/2024_20h17.23.746,IAT(Formal),2021.2.3,Win32,59.92329818,,,,,,,,,,,,,,,,,,,,,,,,,,,,,,,,,,,,,,,,,,,,e,1,0.583,0,46,46,29,1,诚恳,e,,,,,,,,,,,,
,,,,,,,,,,,,,,1,001,08/23/2024_20h17.23.746,IAT(Formal),2021.2.3,Win32,59.92329818,,,,,,,,,,,,,,,,,,,,,,,,,,,,,,,,,,,,,,,,,,,,i,1,0.5897,0,47,47,40,1,执拗,i,,,,,,,,,,,,
,,,,,,,,,,,,,,1,001,08/23/2024_20h17.23.746,IAT(Formal),2021.2.3,Win32,59.92329818,,,,,,,,,,,,,,,,,,,,,,,,,,,,,,,,,,,,,,,,,,,,i,1,0.6249,0,48,48,49,1,下贱,i,,,,,,,,,,,,
,,,,,,,,,,,,,,1,001,08/23/2024_20h17.23.746,IAT(Formal),2021.2.3,Win32,59.92329818,,,,,,,,,,,,,,,,,,,,,,,,,,,,,,,,,,,,,,,,,,,,e,1,0.5703,0,49,49,19,1,机智,e,,,,,,,,,,,,
,,,,,,,,,,,,,,1,001,08/23/2024_20h17.23.746,IAT(Formal),2021.2.3,Win32,59.92329818,,,,,,,,,,,,,,,,,,,,,,,,,,,,,,,,,,,,,,,,,,,,i,1,0.6243,0,50,50,50,1,我,i,,,,,,,,,,,,
,,,,,,,,,,,,,,1,001,08/23/2024_20h17.23.746,IAT(Formal),2021.2.3,Win32,59.92329818,,,,,,,,,,,,,,,,,,,,,,,,,,,,,,,,,,,,,,,,,,,,e,1,0.4499,0,51,51,55,1,他,e,,,,,,,,,,,,
,,,,,,,,,,,,,,1,001,08/23/2024_20h17.23.746,IAT(Formal),2021.2.3,Win32,59.92329818,,,,,,,,,,,,,,,,,,,,,,,,,,,,,,,,,,,,,,,,,,,,e,1,0.4745,0,52,52,66,1,他们,e,,,,,,,,,,,,
,,,,,,,,,,,,,,1,001,08/23/2024_20h17.23.746,IAT(Formal),2021.2.3,Win32,59.92329818,,,,,,,,,,,,,,,,,,,,,,,,,,,,,,,,,,,,,,,,,,,,i,1,0.5505,0,53,53,63,1,自己,i,,,,,,,,,,,,
,,,,,,,,,,,,,,1,001,08/23/2024_20h17.23.746,IAT(Formal),2021.2.3,Win32,59.92329818,,,,,,,,,,,,,,,,,,,,,,,,,,,,,,,,,,,,,,,,,,,,e,1,0.6077,0,54,54,13,1,杰出,e,,,,,,,,,,,,
,,,,,,,,,,,,,,1,001,08/23/2024_20h17.23.746,IAT(Formal),2021.2.3,Win32,59.92329818,,,,,,,,,,,,,,,,,,,,,,,,,,,,,,,,,,,,,,,,,,,,i,1,0.6201,0,55,55,51,1,我的,i,,,,,,,,,,,,
,,,,,,,,,,,,,,1,001,08/23/2024_20h17.23.746,IAT(Formal),2021.2.3,Win32,59.92329818,,,,,,,,,,,,,,,,,,,,,,,,,,,,,,,,,,,,,,,,,,,,e,1,0.5592,0,56,56,75,1,他,e,,,,,,,,,,,,
,,,,,,,,,,,,,,1,001,08/23/2024_20h17.23.746,IAT(Formal),2021.2.3,Win32,59.92329818,,,,,,,,,,,,,,,,,,,,,,,,,,,,,,,,,,,,,,,,,,,,e,1,0.4886,0,57,57,58,1,他人,e,,,,,,,,,,,,
,,,,,,,,,,,,,,1,001,08/23/2024_20h17.23.746,IAT(Formal),2021.2.3,Win32,59.92329818,,,,,,,,,,,,,,,,,,,,,,,,,,,,,,,,,,,,,,,,,,,,e,1,0.4991,0,58,58,77,1,他的,e,,,,,,,,,,,,
,,,,,,,,,,,,,,1,001,08/23/2024_20h17.23.746,IAT(Formal),2021.2.3,Win32,59.92329818,,,,,,,,,,,,,,,,,,,,,,,,,,,,,,,,,,,,,,,,,,,,i,1,0.5912,0,59,59,64,1,俺,i,,,,,,,,,,,,
,,,,,,,,,,,,,,1,001,08/23/2024_20h17.23.746,IAT(Formal),2021.2.3,Win32,59.92329818,,,,,,,,,,,,,,,,,,,,,,,,,,,,,,,,,,,,,,,,,,,,i,0,0.5553,0,60,60,25,1,细腻,e,,,,,,,,,,,,
,,,,,,,,,,,,,,1,001,08/23/2024_20h17.23.746,IAT(Formal),2021.2.3,Win32,59.92329818,,,,,,,,,,,,,,,,,,,,,,,,,,,,,,,,,,,,,,,,,,,,e,1,0.5199,0,61,61,24,1,朴实,e,,,,,,,,,,,,
,,,,,,,,,,,,,,1,001,08/23/2024_20h17.23.746,IAT(Formal),2021.2.3,Win32,59.92329818,,,,,,,,,,,,,,,,,,,,,,,,,,,,,,,,,,,,,,,,,,,,e,1,0.5335,0,62,62,18,1,勤奋,e,,,,,,,,,,,,
,,,,,,,,,,,,,,1,001,08/23/2024_20h17.23.746,IAT(Formal),2021.2.3,Win32,59.92329818,,,,,,,,,,,,,,,,,,,,,,,,,,,,,,,,,,,,,,,,,,,,e,1,0.5069,0,63,63,15,1,诚实,e,,,,,,,,,,,,
,,,,,,,,,,,,,,1,001,08/23/2024_20h17.23.746,IAT(Formal),2021.2.3,Win32,59.92329818,,,,,,,,,,,,,,,,,,,,,,,,,,,,,,,,,,,,,,,,,,,,i,1,0.7821,0,64,64,61,1,我的,i,,,,,,,,,,,,
,,,,,,,,,,,,,,1,001,08/23/2024_20h17.23.746,IAT(Formal),2021.2.3,Win32,59.92329818,,,,,,,,,,,,,,,,,,,,,,,,,,,,,,,,,,,,,,,,,,,,i,1,0.565,0,65,65,4,1,俺,i,,,,,,,,,,,,
,,,,,,,,,,,,,,1,001,08/23/2024_20h17.23.746,IAT(Formal),2021.2.3,Win32,59.92329818,,,,,,,,,,,,,,,,,,,,,,,,,,,,,,,,,,,,,,,,,,,,i,1,0.8008,0,66,66,34,1,悲观,i,,,,,,,,,,,,
,,,,,,,,,,,,,,1,001,08/23/2024_20h17.23.746,IAT(Formal),2021.2.3,Win32,59.92329818,,,,,,,,,,,,,,,,,,,,,,,,,,,,,,,,,,,,,,,,,,,,i,1,0.5561,0,67,67,48,1,轻率,i,,,,,,,,,,,,
,,,,,,,,,,,,,,1,001,08/23/2024_20h17.23.746,IAT(Formal),2021.2.3,Win32,59.92329818,,,,,,,,,,,,,,,,,,,,,,,,,,,,,,,,,,,,,,,,,,,,e,1,1.2727,0,68,68,56,1,他们,e,,,,,,,,,,,,
,,,,,,,,,,,,,,1,001,08/23/2024_20h17.23.746,IAT(Formal),2021.2.3,Win32,59.92329818,,,,,,,,,,,,,,,,,,,,,,,,,,,,,,,,,,,,,,,,,,,,e,1,0.7525,0,69,69,16,1,正直,e,,,,,,,,,,,,
,,,,,,,,,,,,,,1,001,08/23/2024_20h17.23.746,IAT(Formal),2021.2.3,Win32,59.92329818,,,,,,,,,,,,,,,,,,,,,,,,,,,,,,,,,,,,,,,,,,,,e,1,0.6163,0,70,70,67,1,他的,e,,,,,,,,,,,,
,,,,,,,,,,,,,,1,001,08/23/2024_20h17.23.746,IAT(Formal),2021.2.3,Win32,59.92329818,,,,,,,,,,,,,,,,,,,,,,,,,,,,,,,,,,,,,,,,,,,,e,1,0.5991,0,71,71,10,1,优秀,e,,,,,,,,,,,,
,,,,,,,,,,,,,,1,001,08/23/2024_20h17.23.746,IAT(Formal),2021.2.3,Win32,59.92329818,,,,,,,,,,,,,,,,,,,,,,,,,,,,,,,,,,,,,,,,,,,,e,1,0.4987,0,72,72,23,1,公正,e,,,,,,,,,,,,
,,,,,,,,,,,,,,1,001,08/23/2024_20h17.23.746,IAT(Formal),2021.2.3,Win32,59.92329818,,,,,,,,,,,,,,,,,,,,,,,,,,,,,,,,,,,,,,,,,,,,i,1,0.5511,0,73,73,44,1,暴躁,i,,,,,,,,,,,,
,,,,,,,,,,,,,,1,001,08/23/2024_20h17.23.746,IAT(Formal),2021.2.3,Win32,59.92329818,,,,,,,,,,,,,,,,,,,,,,,,,,,,,,,,,,,,,,,,,,,,e,1,0.5506,0,74,74,57,1,他的,e,,,,,,,,,,,,
,,,,,,,,,,,,,,1,001,08/23/2024_20h17.23.746,IAT(Formal),2021.2.3,Win32,59.92329818,,,,,,,,,,,,,,,,,,,,,,,,,,,,,,,,,,,,,,,,,,,,i,1,0.5992,0,75,75,30,1,卑鄙,i,,,,,,,,,,,,
,,,,,,,,,,,,,,1,001,08/23/2024_20h17.23.746,IAT(Formal),2021.2.3,Win32,59.92329818,,,,,,,,,,,,,,,,,,,,,,,,,,,,,,,,,,,,,,,,,,,,i,1,0.5503,0,76,76,38,1,鲁莽,i,,,,,,,,,,,,
,,,,,,,,,,,,,,1,001,08/23/2024_20h17.23.746,IAT(Formal),2021.2.3,Win32,59.92329818,,,,,,,,,,,,,,,,,,,,,,,,,,,,,,,,,,,,,,,,,,,,i,1,0.5497,0,77,77,32,1,愚蠢,i,,,,,,,,,,,,
,,,,,,,,,,,,,,1,001,08/23/2024_20h17.23.746,IAT(Formal),2021.2.3,Win32,59.92329818,,,,,,,,,,,,,,,,,,,,,,,,,,,,,,,,,,,,,,,,,,,,i,0,0.5516,0,78,78,79,1,其他,e,,,,,,,,,,,,
,,,,,,,,,,,,,,1,001,08/23/2024_20h17.23.746,IAT(Formal),2021.2.3,Win32,59.92329818,,,,,,,,,,,,,,,,,,,,,,,,,,,,,,,,,,,,,,,,,,,,e,1,0.7497,0,79,79,27,1,热情,e,,,,,,,,,,,,
,,,,,,,,,,,,,,1,001,08/23/2024_20h17.23.746,IAT(Formal),2021.2.3,Win32,59.92329818,,,,,,,,,,,,,,,,,,,,,,,,,,,,,,,,,,,,,,,,,,,,,,,,,,,,他,e,space,19.2642,e,1,0.4973,0,0,0,55,1,,
,,,,,,,,,,,,,,1,001,08/23/2024_20h17.23.746,IAT(Formal),2021.2.3,Win32,59.92329818,,,,,,,,,,,,,,,,,,,,,,,,,,,,,,,,,,,,,,,,,,,,,,,,,,,,消极,i,,,i,1,0.6046,0,1,1,35,1,,
,,,,,,,,,,,,,,1,001,08/23/2024_20h17.23.746,IAT(Formal),2021.2.3,Win32,59.92329818,,,,,,,,,,,,,,,,,,,,,,,,,,,,,,,,,,,,,,,,,,,,,,,,,,,,诚恳,e,,,e,1,0.6328,0,2,2,29,1,,
,,,,,,,,,,,,,,1,001,08/23/2024_20h17.23.746,IAT(Formal),2021.2.3,Win32,59.92329818,,,,,,,,,,,,,,,,,,,,,,,,,,,,,,,,,,,,,,,,,,,,,,,,,,,,细腻,e,,,e,1,0.5365,0,3,3,25,1,,
,,,,,,,,,,,,,,1,001,08/23/2024_20h17.23.746,IAT(Formal),2021.2.3,Win32,59.92329818,,,,,,,,,,,,,,,,,,,,,,,,,,,,,,,,,,,,,,,,,,,,,,,,,,,,卑鄙,i,,,i,1,0.5492,0,4,4,30,1,,
,,,,,,,,,,,,,,1,001,08/23/2024_20h17.23.746,IAT(Formal),2021.2.3,Win32,59.92329818,,,,,,,,,,,,,,,,,,,,,,,,,,,,,,,,,,,,,,,,,,,,,,,,,,,,野蛮,i,,,i,1,0.5826,0,5,5,46,1,,
,,,,,,,,,,,,,,1,001,08/23/2024_20h17.23.746,IAT(Formal),2021.2.3,Win32,59.92329818,,,,,,,,,,,,,,,,,,,,,,,,,,,,,,,,,,,,,,,,,,,,,,,,,,,,我的,i,,,i,1,0.5415,0,6,6,1,1,,
,,,,,,,,,,,,,,1,001,08/23/2024_20h17.23.746,IAT(Formal),2021.2.3,Win32,59.92329818,,,,,,,,,,,,,,,,,,,,,,,,,,,,,,,,,,,,,,,,,,,,,,,,,,,,热情,e,,,e,1,0.5869,0,7,7,27,1,,
,,,,,,,,,,,,,,1,001,08/23/2024_20h17.23.746,IAT(Formal),2021.2.3,Win32,59.92329818,,,,,,,,,,,,,,,,,,,,,,,,,,,,,,,,,,,,,,,,,,,,,,,,,,,,我们,i,,,i,1,0.7161,0,8,8,72,1,,
,,,,,,,,,,,,,,1,001,08/23/2024_20h17.23.746,IAT(Formal),2021.2.3,Win32,59.92329818,,,,,,,,,,,,,,,,,,,,,,,,,,,,,,,,,,,,,,,,,,,,,,,,,,,,傲慢,i,,,i,1,0.5826,0,9,9,37,1,,
,,,,,,,,,,,,,,1,001,08/23/2024_20h17.23.746,IAT(Formal),2021.2.3,Win32,59.92329818,,,,,,,,,,,,,,,,,,,,,,,,,,,,,,,,,,,,,,,,,,,,,,,,,,,,杰出,e,,,e,1,0.6411,0,10,10,13,1,,
,,,,,,,,,,,,,,1,001,08/23/2024_20h17.23.746,IAT(Formal),2021.2.3,Win32,59.92329818,,,,,,,,,,,,,,,,,,,,,,,,,,,,,,,,,,,,,,,,,,,,,,,,,,,,刻薄,i,,,i,1,0.5696,0,11,11,33,1,,
,,,,,,,,,,,,,,1,001,08/23/2024_20h17.23.746,IAT(Formal),2021.2.3,Win32,59.92329818,,,,,,,,,,,,,,,,,,,,,,,,,,,,,,,,,,,,,,,,,,,,,,,,,,,,崇高,e,,,e,1,0.715,0,12,12,11,1,,
,,,,,,,,,,,,,,1,001,08/23/2024_20h17.23.746,IAT(Formal),2021.2.3,Win32,59.92329818,,,,,,,,,,,,,,,,,,,,,,,,,,,,,,,,,,,,,,,,,,,,,,,,,,,,凶狠,i,,,i,1,0.5573,0,13,13,42,1,,
,,,,,,,,,,,,,,1,001,08/23/2024_20h17.23.746,IAT(Formal),2021.2.3,Win32,59.92329818,,,,,,,,,,,,,,,,,,,,,,,,,,,,,,,,,,,,,,,,,,,,,,,,,,,,自己,i,,,i,1,0.7326,0,14,14,53,1,,
,,,,,,,,,,,,,,1,001,08/23/2024_20h17.23.746,IAT(Formal),2021.2.3,Win32,59.92329818,,,,,,,,,,,,,,,,,,,,,,,,,,,,,,,,,,,,,,,,,,,,,,,,,,,,朴实,e,,,e,1,0.7669,0,15,15,24,1,,
,,,,,,,,,,,,,,1,001,08/23/2024_20h17.23.746,IAT(Formal),2021.2.3,Win32,59.92329818,,,,,,,,,,,,,,,,,,,,,,,,,,,,,,,,,,,,,,,,,,,,,,,,,,,,俺,i,,,i,1,0.7826,0,16,16,54,1,,
,,,,,,,,,,,,,,1,001,08/23/2024_20h17.23.746,IAT(Formal),2021.2.3,Win32,59.92329818,,,,,,,,,,,,,,,,,,,,,,,,,,,,,,,,,,,,,,,,,,,,,,,,,,,,我们,i,,,i,1,0.666,0,17,17,52,1,,
,,,,,,,,,,,,,,1,001,08/23/2024_20h17.23.746,IAT(Formal),2021.2.3,Win32,59.92329818,,,,,,,,,,,,,,,,,,,,,,,,,,,,,,,,,,,,,,,,,,,,,,,,,,,,俺,i,,,i,1,0.5355,0,18,18,64,1,,
,,,,,,,,,,,,,,1,001,08/23/2024_20h17.23.746,IAT(Formal),2021.2.3,Win32,59.92329818,,,,,,,,,,,,,,,,,,,,,,,,,,,,,,,,,,,,,,,,,,,,,,,,,,,,他的,e,,,e,1,0.6769,0,19,19,77,1,,
,,,,,,,,,,,,,,1,001,08/23/2024_20h17.23.746,IAT(Formal),2021.2.3,Win32,59.92329818,,,,,,,,,,,,,,,,,,,,,,,,,,,,,,,,,,,,,,,,,,,,,,,,,,,,优秀,e,,,e,1,0.588,0,20,20,10,1,,
,,,,,,,,,,,,,,1,001,08/23/2024_20h17.23.746,IAT(Formal),2021.2.3,Win32,59.92329818,,,,,,,,,,,,,,,,,,,,,,,,,,,,,,,,,,,,,,,,,,,,,,,,,,,,我们,i,,,i,1,0.6239,0,21,21,2,1,,
,,,,,,,,,,,,,,1,001,08/23/2024_20h17.23.746,IAT(Formal),2021.2.3,Win32,59.92329818,,,,,,,,,,,,,,,,,,,,,,,,,,,,,,,,,,,,,,,,,,,,,,,,,,,,执拗,i,,,i,1,0.5988,0,22,22,40,1,,
,,,,,,,,,,,,,,1,001,08/23/2024_20h17.23.746,IAT(Formal),2021.2.3,Win32,59.92329818,,,,,,,,,,,,,,,,,,,,,,,,,,,,,,,,,,,,,,,,,,,,,,,,,,,,其他,e,,,e,1,0.7334,0,23,23,9,1,,
,,,,,,,,,,,,,,1,001,08/23/2024_20h17.23.746,IAT(Formal),2021.2.3,Win32,59.92329818,,,,,,,,,,,,,,,,,,,,,,,,,,,,,,,,,,,,,,,,,,,,,,,,,,,,他们,e,,,e,1,0.5866,0,24,24,66,1,,
,,,,,,,,,,,,,,1,001,08/23/2024_20h17.23.746,IAT(Formal),2021.2.3,Win32,59.92329818,,,,,,,,,,,,,,,,,,,,,,,,,,,,,,,,,,,,,,,,,,,,,,,,,,,,其他,e,,,e,1,0.5266,0,25,25,69,1,,
,,,,,,,,,,,,,,1,001,08/23/2024_20h17.23.746,IAT(Formal),2021.2.3,Win32,59.92329818,,,,,,,,,,,,,,,,,,,,,,,,,,,,,,,,,,,,,,,,,,,,,,,,,,,,他的,e,,,e,1,0.5162,0,26,26,67,1,,
,,,,,,,,,,,,,,1,001,08/23/2024_20h17.23.746,IAT(Formal),2021.2.3,Win32,59.92329818,,,,,,,,,,,,,,,,,,,,,,,,,,,,,,,,,,,,,,,,,,,,,,,,,,,,自卑,i,,,i,1,0.5326,0,27,27,36,1,,
,,,,,,,,,,,,,,1,001,08/23/2024_20h17.23.746,IAT(Formal),2021.2.3,Win32,59.92329818,,,,,,,,,,,,,,,,,,,,,,,,,,,,,,,,,,,,,,,,,,,,,,,,,,,,冒失,i,,,i,1,0.6398,0,28,28,39,1,,
,,,,,,,,,,,,,,1,001,08/23/2024_20h17.23.746,IAT(Formal),2021.2.3,Win32,59.92329818,,,,,,,,,,,,,,,,,,,,,,,,,,,,,,,,,,,,,,,,,,,,,,,,,,,,自己,i,,,i,1,0.6824,0,29,29,63,1,,
,,,,,,,,,,,,,,1,001,08/23/2024_20h17.23.746,IAT(Formal),2021.2.3,Win32,59.92329818,,,,,,,,,,,,,,,,,,,,,,,,,,,,,,,,,,,,,,,,,,,,,,,,,,,,他们,e,,,e,1,0.649,0,30,30,56,1,,
,,,,,,,,,,,,,,1,001,08/23/2024_20h17.23.746,IAT(Formal),2021.2.3,Win32,59.92329818,,,,,,,,,,,,,,,,,,,,,,,,,,,,,,,,,,,,,,,,,,,,,,,,,,,,无私,e,,,e,1,0.7162,0,31,31,22,1,,
,,,,,,,,,,,,,,1,001,08/23/2024_20h17.23.746,IAT(Formal),2021.2.3,Win32,59.92329818,,,,,,,,,,,,,,,,,,,,,,,,,,,,,,,,,,,,,,,,,,,,,,,,,,,,聪明,e,,,e,1,0.5194,0,32,32,12,1,,
,,,,,,,,,,,,,,1,001,08/23/2024_20h17.23.746,IAT(Formal),2021.2.3,Win32,59.92329818,,,,,,,,,,,,,,,,,,,,,,,,,,,,,,,,,,,,,,,,,,,,,,,,,,,,俺,i,,,i,1,0.6048,0,33,33,74,1,,
,,,,,,,,,,,,,,1,001,08/23/2024_20h17.23.746,IAT(Formal),2021.2.3,Win32,59.92329818,,,,,,,,,,,,,,,,,,,,,,,,,,,,,,,,,,,,,,,,,,,,,,,,,,,,其他,e,,,e,1,0.7365,0,34,34,79,1,,
,,,,,,,,,,,,,,1,001,08/23/2024_20h17.23.746,IAT(Formal),2021.2.3,Win32,59.92329818,,,,,,,,,,,,,,,,,,,,,,,,,,,,,,,,,,,,,,,,,,,,,,,,,,,,勇敢,e,,,e,1,0.6519,0,35,35,17,1,,
,,,,,,,,,,,,,,1,001,08/23/2024_20h17.23.746,IAT(Formal),2021.2.3,Win32,59.92329818,,,,,,,,,,,,,,,,,,,,,,,,,,,,,,,,,,,,,,,,,,,,,,,,,,,,正直,e,,,e,1,0.5508,0,36,36,16,1,,
,,,,,,,,,,,,,,1,001,08/23/2024_20h17.23.746,IAT(Formal),2021.2.3,Win32,59.92329818,,,,,,,,,,,,,,,,,,,,,,,,,,,,,,,,,,,,,,,,,,,,,,,,,,,,我,i,,,i,1,0.4914,0,37,37,60,1,,
,,,,,,,,,,,,,,1,001,08/23/2024_20h17.23.746,IAT(Formal),2021.2.3,Win32,59.92329818,,,,,,,,,,,,,,,,,,,,,,,,,,,,,,,,,,,,,,,,,,,,,,,,,,,,我,i,,,i,1,0.4604,0,38,38,50,1,,
,,,,,,,,,,,,,,1,001,08/23/2024_20h17.23.746,IAT(Formal),2021.2.3,Win32,59.92329818,,,,,,,,,,,,,,,,,,,,,,,,,,,,,,,,,,,,,,,,,,,,,,,,,,,,悲观,i,,,i,1,0.6196,0,39,39,34,1,,
,,,,,,,,,,,,,,1,001,08/23/2024_20h17.23.746,IAT(Formal),2021.2.3,Win32,59.92329818,,,,,,,,,,,,,,,,,,,,,,,,,,,,,,,,,,,,,,,,,,,,,,,,,,,,愚蠢,i,,,i,1,0.5357,0,40,40,32,1,,
,,,,,,,,,,,,,,1,001,08/23/2024_20h17.23.746,IAT(Formal),2021.2.3,Win32,59.92329818,,,,,,,,,,,,,,,,,,,,,,,,,,,,,,,,,,,,,,,,,,,,,,,,,,,,诚实,e,,,e,1,0.5387,0,41,41,15,1,,
,,,,,,,,,,,,,,1,001,08/23/2024_20h17.23.746,IAT(Formal),2021.2.3,Win32,59.92329818,,,,,,,,,,,,,,,,,,,,,,,,,,,,,,,,,,,,,,,,,,,,,,,,,,,,活泼,e,,,e,1,0.5323,0,42,42,28,1,,
,,,,,,,,,,,,,,1,001,08/23/2024_20h17.23.746,IAT(Formal),2021.2.3,Win32,59.92329818,,,,,,,,,,,,,,,,,,,,,,,,,,,,,,,,,,,,,,,,,,,,,,,,,,,,他,e,,,i,0,0.5169,0,43,43,65,1,,
,,,,,,,,,,,,,,1,001,08/23/2024_20h17.23.746,IAT(Formal),2021.2.3,Win32,59.92329818,,,,,,,,,,,,,,,,,,,,,,,,,,,,,,,,,,,,,,,,,,,,,,,,,,,,他人,e,,,e,1,0.4916,0,44,44,68,1,,
,,,,,,,,,,,,,,1,001,08/23/2024_20h17.23.746,IAT(Formal),2021.2.3,Win32,59.92329818,,,,,,,,,,,,,,,,,,,,,,,,,,,,,,,,,,,,,,,,,,,,,,,,,,,,他们,e,,,e,1,0.4758,0,45,45,76,1,,
,,,,,,,,,,,,,,1,001,08/23/2024_20h17.23.746,IAT(Formal),2021.2.3,Win32,59.92329818,,,,,,,,,,,,,,,,,,,,,,,,,,,,,,,,,,,,,,,,,,,,,,,,,,,,他的,e,,,e,1,0.4516,0,46,46,7,1,,
,,,,,,,,,,,,,,1,001,08/23/2024_20h17.23.746,IAT(Formal),2021.2.3,Win32,59.92329818,,,,,,,,,,,,,,,,,,,,,,,,,,,,,,,,,,,,,,,,,,,,,,,,,,,,他,e,,,e,1,0.4536,0,47,47,5,1,,
,,,,,,,,,,,,,,1,001,08/23/2024_20h17.23.746,IAT(Formal),2021.2.3,Win32,59.92329818,,,,,,,,,,,,,,,,,,,,,,,,,,,,,,,,,,,,,,,,,,,,,,,,,,,,我,i,,,i,1,0.5497,0,48,48,0,1,,
,,,,,,,,,,,,,,1,001,08/23/2024_20h17.23.746,IAT(Formal),2021.2.3,Win32,59.92329818,,,,,,,,,,,,,,,,,,,,,,,,,,,,,,,,,,,,,,,,,,,,,,,,,,,,我的,i,,,i,1,0.5158,0,49,49,61,1,,
,,,,,,,,,,,,,,1,001,08/23/2024_20h17.23.746,IAT(Formal),2021.2.3,Win32,59.92329818,,,,,,,,,,,,,,,,,,,,,,,,,,,,,,,,,,,,,,,,,,,,,,,,,,,,我的,i,,,i,1,0.5053,0,50,50,51,1,,
,,,,,,,,,,,,,,1,001,08/23/2024_20h17.23.746,IAT(Formal),2021.2.3,Win32,59.92329818,,,,,,,,,,,,,,,,,,,,,,,,,,,,,,,,,,,,,,,,,,,,,,,,,,,,散漫,i,,,i,1,0.6157,0,51,51,41,1,,
,,,,,,,,,,,,,,1,001,08/23/2024_20h17.23.746,IAT(Formal),2021.2.3,Win32,59.92329818,,,,,,,,,,,,,,,,,,,,,,,,,,,,,,,,,,,,,,,,,,,,,,,,,,,,轻率,i,,,i,1,0.5371,0,52,52,48,1,,
,,,,,,,,,,,,,,1,001,08/23/2024_20h17.23.746,IAT(Formal),2021.2.3,Win32,59.92329818,,,,,,,,,,,,,,,,,,,,,,,,,,,,,,,,,,,,,,,,,,,,,,,,,,,,乐观,e,,,e,1,0.5744,0,53,53,14,1,,
,,,,,,,,,,,,,,1,001,08/23/2024_20h17.23.746,IAT(Formal),2021.2.3,Win32,59.92329818,,,,,,,,,,,,,,,,,,,,,,,,,,,,,,,,,,,,,,,,,,,,,,,,,,,,冷静,e,,,e,1,0.5065,0,54,54,26,1,,
,,,,,,,,,,,,,,1,001,08/23/2024_20h17.23.746,IAT(Formal),2021.2.3,Win32,59.92329818,,,,,,,,,,,,,,,,,,,,,,,,,,,,,,,,,,,,,,,,,,,,,,,,,,,,机智,e,,,e,1,0.5693,0,55,55,19,1,,
,,,,,,,,,,,,,,1,001,08/23/2024_20h17.23.746,IAT(Formal),2021.2.3,Win32,59.92329818,,,,,,,,,,,,,,,,,,,,,,,,,,,,,,,,,,,,,,,,,,,,,,,,,,,,稳重,e,,,e,1,0.533,0,56,56,21,1,,
,,,,,,,,,,,,,,1,001,08/23/2024_20h17.23.746,IAT(Formal),2021.2.3,Win32,59.92329818,,,,,,,,,,,,,,,,,,,,,,,,,,,,,,,,,,,,,,,,,,,,,,,,,,,,他人,e,,,e,1,0.8008,0,57,57,78,1,,
,,,,,,,,,,,,,,1,001,08/23/2024_20h17.23.746,IAT(Formal),2021.2.3,Win32,59.92329818,,,,,,,,,,,,,,,,,,,,,,,,,,,,,,,,,,,,,,,,,,,,,,,,,,,,他们,e,,,e,1,0.5575,0,58,58,6,1,,
,,,,,,,,,,,,,,1,001,08/23/2024_20h17.23.746,IAT(Formal),2021.2.3,Win32,59.92329818,,,,,,,,,,,,,,,,,,,,,,,,,,,,,,,,,,,,,,,,,,,,,,,,,,,,我们,i,,,i,1,0.5546,0,59,59,62,1,,
,,,,,,,,,,,,,,1,001,08/23/2024_20h17.23.746,IAT(Formal),2021.2.3,Win32,59.92329818,,,,,,,,,,,,,,,,,,,,,,,,,,,,,,,,,,,,,,,,,,,,,,,,,,,,勤奋,e,,,e,1,0.6822,0,60,60,18,1,,
,,,,,,,,,,,,,,1,001,08/23/2024_20h17.23.746,IAT(Formal),2021.2.3,Win32,59.92329818,,,,,,,,,,,,,,,,,,,,,,,,,,,,,,,,,,,,,,,,,,,,,,,,,,,,自己,i,,,i,1,0.6662,0,61,61,73,1,,
,,,,,,,,,,,,,,1,001,08/23/2024_20h17.23.746,IAT(Formal),2021.2.3,Win32,59.92329818,,,,,,,,,,,,,,,,,,,,,,,,,,,,,,,,,,,,,,,,,,,,,,,,,,,,认真,e,,,e,1,0.6155,0,62,62,20,1,,
,,,,,,,,,,,,,,1,001,08/23/2024_20h17.23.746,IAT(Formal),2021.2.3,Win32,59.92329818,,,,,,,,,,,,,,,,,,,,,,,,,,,,,,,,,,,,,,,,,,,,,,,,,,,,下贱,i,,,i,1,0.5488,0,63,63,49,1,,
,,,,,,,,,,,,,,1,001,08/23/2024_20h17.23.746,IAT(Formal),2021.2.3,Win32,59.92329818,,,,,,,,,,,,,,,,,,,,,,,,,,,,,,,,,,,,,,,,,,,,,,,,,,,,自私,i,,,i,1,0.55,0,64,64,43,1,,
,,,,,,,,,,,,,,1,001,08/23/2024_20h17.23.746,IAT(Formal),2021.2.3,Win32,59.92329818,,,,,,,,,,,,,,,,,,,,,,,,,,,,,,,,,,,,,,,,,,,,,,,,,,,,他的,e,,,e,1,0.8502,0,65,65,57,1,,
,,,,,,,,,,,,,,1,001,08/23/2024_20h17.23.746,IAT(Formal),2021.2.3,Win32,59.92329818,,,,,,,,,,,,,,,,,,,,,,,,,,,,,,,,,,,,,,,,,,,,,,,,,,,,我,i,,,i,1,0.5541,0,66,66,70,1,,
,,,,,,,,,,,,,,1,001,08/23/2024_20h17.23.746,IAT(Formal),2021.2.3,Win32,59.92329818,,,,,,,,,,,,,,,,,,,,,,,,,,,,,,,,,,,,,,,,,,,,,,,,,,,,固执,i,,,i,1,0.6319,0,67,67,47,1,,
,,,,,,,,,,,,,,1,001,08/23/2024_20h17.23.746,IAT(Formal),2021.2.3,Win32,59.92329818,,,,,,,,,,,,,,,,,,,,,,,,,,,,,,,,,,,,,,,,,,,,,,,,,,,,猖狂,i,,,i,1,0.6083,0,68,68,45,1,,
,,,,,,,,,,,,,,1,001,08/23/2024_20h17.23.746,IAT(Formal),2021.2.3,Win32,59.92329818,,,,,,,,,,,,,,,,,,,,,,,,,,,,,,,,,,,,,,,,,,,,,,,,,,,,他人,e,,,e,1,0.6909,0,69,69,8,1,,
,,,,,,,,,,,,,,1,001,08/23/2024_20h17.23.746,IAT(Formal),2021.2.3,Win32,59.92329818,,,,,,,,,,,,,,,,,,,,,,,,,,,,,,,,,,,,,,,,,,,,,,,,,,,,俺,i,,,i,1,0.6581,0,70,70,4,1,,
,,,,,,,,,,,,,,1,001,08/23/2024_20h17.23.746,IAT(Formal),2021.2.3,Win32,59.92329818,,,,,,,,,,,,,,,,,,,,,,,,,,,,,,,,,,,,,,,,,,,,,,,,,,,,他,e,,,e,1,0.6009,0,71,71,75,1,,
,,,,,,,,,,,,,,1,001,08/23/2024_20h17.23.746,IAT(Formal),2021.2.3,Win32,59.92329818,,,,,,,,,,,,,,,,,,,,,,,,,,,,,,,,,,,,,,,,,,,,,,,,,,,,自己,i,,,i,1,0.5659,0,72,72,3,1,,
,,,,,,,,,,,,,,1,001,08/23/2024_20h17.23.746,IAT(Formal),2021.2.3,Win32,59.92329818,,,,,,,,,,,,,,,,,,,,,,,,,,,,,,,,,,,,,,,,,,,,,,,,,,,,公正,e,,,e,1,0.6264,0,73,73,23,1,,
,,,,,,,,,,,,,,1,001,08/23/2024_20h17.23.746,IAT(Formal),2021.2.3,Win32,59.92329818,,,,,,,,,,,,,,,,,,,,,,,,,,,,,,,,,,,,,,,,,,,,,,,,,,,,暴躁,i,,,i,1,0.5992,0,74,74,44,1,,
,,,,,,,,,,,,,,1,001,08/23/2024_20h17.23.746,IAT(Formal),2021.2.3,Win32,59.92329818,,,,,,,,,,,,,,,,,,,,,,,,,,,,,,,,,,,,,,,,,,,,,,,,,,,,他人,e,,,e,1,0.6391,0,75,75,58,1,,
,,,,,,,,,,,,,,1,001,08/23/2024_20h17.23.746,IAT(Formal),2021.2.3,Win32,59.92329818,,,,,,,,,,,,,,,,,,,,,,,,,,,,,,,,,,,,,,,,,,,,,,,,,,,,我的,i,,,i,1,0.6007,0,76,76,71,1,,
,,,,,,,,,,,,,,1,001,08/23/2024_20h17.23.746,IAT(Formal),2021.2.3,Win32,59.92329818,,,,,,,,,,,,,,,,,,,,,,,,,,,,,,,,,,,,,,,,,,,,,,,,,,,,虚伪,i,,,i,1,0.5332,0,77,77,31,1,,
,,,,,,,,,,,,,,1,001,08/23/2024_20h17.23.746,IAT(Formal),2021.2.3,Win32,59.92329818,,,,,,,,,,,,,,,,,,,,,,,,,,,,,,,,,,,,,,,,,,,,,,,,,,,,其他,e,,,e,1,0.6894,0,78,78,59,1,,
,,,,,,,,,,,,,,1,001,08/23/2024_20h17.23.746,IAT(Formal),2021.2.3,Win32,59.92329818,,,,,,,,,,,,,,,,,,,,,,,,,,,,,,,,,,,,,,,,,,,,,,,,,,,,鲁莽,i,,,i,1,0.6244,0,79,79,38,1,,
,,,,,,,,,,,,,,1,001,08/23/2024_20h17.23.746,IAT(Formal),2021.2.3,Win32,59.92329818,,,,,,,,,,,,,,,,,,,,,,,,,,,,,,,,,,,,,,,,,,,,,,,,,,,,冒失,i,,,i,1,0.5505,1,0,80,39,1,,
,,,,,,,,,,,,,,1,001,08/23/2024_20h17.23.746,IAT(Formal),2021.2.3,Win32,59.92329818,,,,,,,,,,,,,,,,,,,,,,,,,,,,,,,,,,,,,,,,,,,,,,,,,,,,虚伪,i,,,i,1,0.5689,1,1,81,31,1,,
,,,,,,,,,,,,,,1,001,08/23/2024_20h17.23.746,IAT(Formal),2021.2.3,Win32,59.92329818,,,,,,,,,,,,,,,,,,,,,,,,,,,,,,,,,,,,,,,,,,,,,,,,,,,,他,e,,,e,1,0.6825,1,2,82,65,1,,
,,,,,,,,,,,,,,1,001,08/23/2024_20h17.23.746,IAT(Formal),2021.2.3,Win32,59.92329818,,,,,,,,,,,,,,,,,,,,,,,,,,,,,,,,,,,,,,,,,,,,,,,,,,,,自私,i,,,i,1,0.6356,1,3,83,43,1,,
,,,,,,,,,,,,,,1,001,08/23/2024_20h17.23.746,IAT(Formal),2021.2.3,Win32,59.92329818,,,,,,,,,,,,,,,,,,,,,,,,,,,,,,,,,,,,,,,,,,,,,,,,,,,,刻薄,i,,,i,1,0.5892,1,4,84,33,1,,
,,,,,,,,,,,,,,1,001,08/23/2024_20h17.23.746,IAT(Formal),2021.2.3,Win32,59.92329818,,,,,,,,,,,,,,,,,,,,,,,,,,,,,,,,,,,,,,,,,,,,,,,,,,,,我,i,,,i,1,0.506,1,5,85,50,1,,
,,,,,,,,,,,,,,1,001,08/23/2024_20h17.23.746,IAT(Formal),2021.2.3,Win32,59.92329818,,,,,,,,,,,,,,,,,,,,,,,,,,,,,,,,,,,,,,,,,,,,,,,,,,,,他,e,,,e,1,0.5845,1,6,86,5,1,,
,,,,,,,,,,,,,,1,001,08/23/2024_20h17.23.746,IAT(Formal),2021.2.3,Win32,59.92329818,,,,,,,,,,,,,,,,,,,,,,,,,,,,,,,,,,,,,,,,,,,,,,,,,,,,他的,e,,,e,1,0.5873,1,7,87,57,1,,
,,,,,,,,,,,,,,1,001,08/23/2024_20h17.23.746,IAT(Formal),2021.2.3,Win32,59.92329818,,,,,,,,,,,,,,,,,,,,,,,,,,,,,,,,,,,,,,,,,,,,,,,,,,,,自己,i,,,i,1,0.5426,1,8,88,73,1,,
,,,,,,,,,,,,,,1,001,08/23/2024_20h17.23.746,IAT(Formal),2021.2.3,Win32,59.92329818,,,,,,,,,,,,,,,,,,,,,,,,,,,,,,,,,,,,,,,,,,,,,,,,,,,,我,i,,,i,1,0.4686,1,9,89,60,1,,
,,,,,,,,,,,,,,1,001,08/23/2024_20h17.23.746,IAT(Formal),2021.2.3,Win32,59.92329818,,,,,,,,,,,,,,,,,,,,,,,,,,,,,,,,,,,,,,,,,,,,,,,,,,,,其他,e,,,e,1,0.5589,1,10,90,79,1,,
,,,,,,,,,,,,,,1,001,08/23/2024_20h17.23.746,IAT(Formal),2021.2.3,Win32,59.92329818,,,,,,,,,,,,,,,,,,,,,,,,,,,,,,,,,,,,,,,,,,,,,,,,,,,,卑鄙,i,,,i,1,0.6345,1,11,91,30,1,,
,,,,,,,,,,,,,,1,001,08/23/2024_20h17.23.746,IAT(Formal),2021.2.3,Win32,59.92329818,,,,,,,,,,,,,,,,,,,,,,,,,,,,,,,,,,,,,,,,,,,,,,,,,,,,乐观,e,,,e,1,0.5315,1,12,92,14,1,,
,,,,,,,,,,,,,,1,001,08/23/2024_20h17.23.746,IAT(Formal),2021.2.3,Win32,59.92329818,,,,,,,,,,,,,,,,,,,,,,,,,,,,,,,,,,,,,,,,,,,,,,,,,,,,他人,e,,,i,0,0.5163,1,13,93,68,1,,
,,,,,,,,,,,,,,1,001,08/23/2024_20h17.23.746,IAT(Formal),2021.2.3,Win32,59.92329818,,,,,,,,,,,,,,,,,,,,,,,,,,,,,,,,,,,,,,,,,,,,,,,,,,,,我的,i,,,i,1,0.5432,1,14,94,1,1,,
,,,,,,,,,,,,,,1,001,08/23/2024_20h17.23.746,IAT(Formal),2021.2.3,Win32,59.92329818,,,,,,,,,,,,,,,,,,,,,,,,,,,,,,,,,,,,,,,,,,,,,,,,,,,,自己,i,,,i,1,0.5732,1,15,95,53,1,,
,,,,,,,,,,,,,,1,001,08/23/2024_20h17.23.746,IAT(Formal),2021.2.3,Win32,59.92329818,,,,,,,,,,,,,,,,,,,,,,,,,,,,,,,,,,,,,,,,,,,,,,,,,,,,热情,e,,,e,1,0.5657,1,16,96,27,1,,
,,,,,,,,,,,,,,1,001,08/23/2024_20h17.23.746,IAT(Formal),2021.2.3,Win32,59.92329818,,,,,,,,,,,,,,,,,,,,,,,,,,,,,,,,,,,,,,,,,,,,,,,,,,,,我们,i,,,i,1,0.6688,1,17,97,72,1,,
,,,,,,,,,,,,,,1,001,08/23/2024_20h17.23.746,IAT(Formal),2021.2.3,Win32,59.92329818,,,,,,,,,,,,,,,,,,,,,,,,,,,,,,,,,,,,,,,,,,,,,,,,,,,,我们,i,,,i,1,0.6501,1,18,98,52,1,,
,,,,,,,,,,,,,,1,001,08/23/2024_20h17.23.746,IAT(Formal),2021.2.3,Win32,59.92329818,,,,,,,,,,,,,,,,,,,,,,,,,,,,,,,,,,,,,,,,,,,,,,,,,,,,我的,i,,,i,1,0.5844,1,19,99,61,1,,
,,,,,,,,,,,,,,1,001,08/23/2024_20h17.23.746,IAT(Formal),2021.2.3,Win32,59.92329818,,,,,,,,,,,,,,,,,,,,,,,,,,,,,,,,,,,,,,,,,,,,,,,,,,,,自卑,i,,,i,1,0.6031,1,20,100,36,1,,
,,,,,,,,,,,,,,1,001,08/23/2024_20h17.23.746,IAT(Formal),2021.2.3,Win32,59.92329818,,,,,,,,,,,,,,,,,,,,,,,,,,,,,,,,,,,,,,,,,,,,,,,,,,,,他人,e,,,e,1,0.6692,1,21,101,58,1,,
,,,,,,,,,,,,,,1,001,08/23/2024_20h17.23.746,IAT(Formal),2021.2.3,Win32,59.92329818,,,,,,,,,,,,,,,,,,,,,,,,,,,,,,,,,,,,,,,,,,,,,,,,,,,,他,e,,,e,1,0.4854,1,22,102,55,1,,
,,,,,,,,,,,,,,1,001,08/23/2024_20h17.23.746,IAT(Formal),2021.2.3,Win32,59.92329818,,,,,,,,,,,,,,,,,,,,,,,,,,,,,,,,,,,,,,,,,,,,,,,,,,,,他们,e,,,e,1,0.5247,1,23,103,6,1,,
,,,,,,,,,,,,,,1,001,08/23/2024_20h17.23.746,IAT(Formal),2021.2.3,Win32,59.92329818,,,,,,,,,,,,,,,,,,,,,,,,,,,,,,,,,,,,,,,,,,,,,,,,,,,,他的,e,,,e,1,0.6181,1,24,104,67,1,,
,,,,,,,,,,,,,,1,001,08/23/2024_20h17.23.746,IAT(Formal),2021.2.3,Win32,59.92329818,,,,,,,,,,,,,,,,,,,,,,,,,,,,,,,,,,,,,,,,,,,,,,,,,,,,聪明,e,,,e,1,0.6154,1,25,105,12,1,,
,,,,,,,,,,,,,,1,001,08/23/2024_20h17.23.746,IAT(Formal),2021.2.3,Win32,59.92329818,,,,,,,,,,,,,,,,,,,,,,,,,,,,,,,,,,,,,,,,,,,,,,,,,,,,固执,i,,,i,1,0.5988,1,26,106,47,1,,
,,,,,,,,,,,,,,1,001,08/23/2024_20h17.23.746,IAT(Formal),2021.2.3,Win32,59.92329818,,,,,,,,,,,,,,,,,,,,,,,,,,,,,,,,,,,,,,,,,,,,,,,,,,,,他们,e,,,e,1,0.5366,1,27,107,56,1,,
,,,,,,,,,,,,,,1,001,08/23/2024_20h17.23.746,IAT(Formal),2021.2.3,Win32,59.92329818,,,,,,,,,,,,,,,,,,,,,,,,,,,,,,,,,,,,,,,,,,,,,,,,,,,,消极,i,,,i,1,0.599,1,28,108,35,1,,
,,,,,,,,,,,,,,1,001,08/23/2024_20h17.23.746,IAT(Formal),2021.2.3,Win32,59.92329818,,,,,,,,,,,,,,,,,,,,,,,,,,,,,,,,,,,,,,,,,,,,,,,,,,,,勤奋,e,,,e,1,0.6261,1,29,109,18,1,,
,,,,,,,,,,,,,,1,001,08/23/2024_20h17.23.746,IAT(Formal),2021.2.3,Win32,59.92329818,,,,,,,,,,,,,,,,,,,,,,,,,,,,,,,,,,,,,,,,,,,,,,,,,,,,执拗,i,,,i,1,0.6005,1,30,110,40,1,,
,,,,,,,,,,,,,,1,001,08/23/2024_20h17.23.746,IAT(Formal),2021.2.3,Win32,59.92329818,,,,,,,,,,,,,,,,,,,,,,,,,,,,,,,,,,,,,,,,,,,,,,,,,,,,其他,e,,,e,1,0.7147,1,31,111,69,1,,
,,,,,,,,,,,,,,1,001,08/23/2024_20h17.23.746,IAT(Formal),2021.2.3,Win32,59.92329818,,,,,,,,,,,,,,,,,,,,,,,,,,,,,,,,,,,,,,,,,,,,,,,,,,,,我们,i,,,i,1,0.6665,1,32,112,2,1,,
,,,,,,,,,,,,,,1,001,08/23/2024_20h17.23.746,IAT(Formal),2021.2.3,Win32,59.92329818,,,,,,,,,,,,,,,,,,,,,,,,,,,,,,,,,,,,,,,,,,,,,,,,,,,,我,i,,,i,1,0.5096,1,33,113,70,1,,
,,,,,,,,,,,,,,1,001,08/23/2024_20h17.23.746,IAT(Formal),2021.2.3,Win32,59.92329818,,,,,,,,,,,,,,,,,,,,,,,,,,,,,,,,,,,,,,,,,,,,,,,,,,,,俺,i,,,i,1,0.7165,1,34,114,74,1,,
,,,,,,,,,,,,,,1,001,08/23/2024_20h17.23.746,IAT(Formal),2021.2.3,Win32,59.92329818,,,,,,,,,,,,,,,,,,,,,,,,,,,,,,,,,,,,,,,,,,,,,,,,,,,,正直,e,,,e,1,0.5827,1,35,115,16,1,,
,,,,,,,,,,,,,,1,001,08/23/2024_20h17.23.746,IAT(Formal),2021.2.3,Win32,59.92329818,,,,,,,,,,,,,,,,,,,,,,,,,,,,,,,,,,,,,,,,,,,,,,,,,,,,活泼,e,,,e,1,0.5828,1,36,116,28,1,,
,,,,,,,,,,,,,,1,001,08/23/2024_20h17.23.746,IAT(Formal),2021.2.3,Win32,59.92329818,,,,,,,,,,,,,,,,,,,,,,,,,,,,,,,,,,,,,,,,,,,,,,,,,,,,鲁莽,i,,,i,1,0.5488,1,37,117,38,1,,
,,,,,,,,,,,,,,1,001,08/23/2024_20h17.23.746,IAT(Formal),2021.2.3,Win32,59.92329818,,,,,,,,,,,,,,,,,,,,,,,,,,,,,,,,,,,,,,,,,,,,,,,,,,,,俺,i,,,i,1,0.5593,1,38,118,4,1,,
,,,,,,,,,,,,,,1,001,08/23/2024_20h17.23.746,IAT(Formal),2021.2.3,Win32,59.92329818,,,,,,,,,,,,,,,,,,,,,,,,,,,,,,,,,,,,,,,,,,,,,,,,,,,,散漫,i,,,i,1,0.6029,1,39,119,41,1,,
,,,,,,,,,,,,,,1,001,08/23/2024_20h17.23.746,IAT(Formal),2021.2.3,Win32,59.92329818,,,,,,,,,,,,,,,,,,,,,,,,,,,,,,,,,,,,,,,,,,,,,,,,,,,,他们,e,,,e,1,0.7603,1,40,120,66,1,,
,,,,,,,,,,,,,,1,001,08/23/2024_20h17.23.746,IAT(Formal),2021.2.3,Win32,59.92329818,,,,,,,,,,,,,,,,,,,,,,,,,,,,,,,,,,,,,,,,,,,,,,,,,,,,猖狂,i,,,i,1,0.5859,1,41,121,45,1,,
,,,,,,,,,,,,,,1,001,08/23/2024_20h17.23.746,IAT(Formal),2021.2.3,Win32,59.92329818,,,,,,,,,,,,,,,,,,,,,,,,,,,,,,,,,,,,,,,,,,,,,,,,,,,,自己,i,,,i,1,0.7422,1,42,122,3,1,,
,,,,,,,,,,,,,,1,001,08/23/2024_20h17.23.746,IAT(Formal),2021.2.3,Win32,59.92329818,,,,,,,,,,,,,,,,,,,,,,,,,,,,,,,,,,,,,,,,,,,,,,,,,,,,冷静,e,,,e,1,0.668,1,43,123,26,1,,
,,,,,,,,,,,,,,1,001,08/23/2024_20h17.23.746,IAT(Formal),2021.2.3,Win32,59.92329818,,,,,,,,,,,,,,,,,,,,,,,,,,,,,,,,,,,,,,,,,,,,,,,,,,,,他人,e,,,e,1,0.6358,1,44,124,78,1,,
,,,,,,,,,,,,,,1,001,08/23/2024_20h17.23.746,IAT(Formal),2021.2.3,Win32,59.92329818,,,,,,,,,,,,,,,,,,,,,,,,,,,,,,,,,,,,,,,,,,,,,,,,,,,,其他,e,,,e,1,0.6856,1,45,125,59,1,,
,,,,,,,,,,,,,,1,001,08/23/2024_20h17.23.746,IAT(Formal),2021.2.3,Win32,59.92329818,,,,,,,,,,,,,,,,,,,,,,,,,,,,,,,,,,,,,,,,,,,,,,,,,,,,俺,i,,,i,1,0.6365,1,46,126,54,1,,
,,,,,,,,,,,,,,1,001,08/23/2024_20h17.23.746,IAT(Formal),2021.2.3,Win32,59.92329818,,,,,,,,,,,,,,,,,,,,,,,,,,,,,,,,,,,,,,,,,,,,,,,,,,,,无私,e,,,e,1,0.7007,1,47,127,22,1,,
,,,,,,,,,,,,,,1,001,08/23/2024_20h17.23.746,IAT(Formal),2021.2.3,Win32,59.92329818,,,,,,,,,,,,,,,,,,,,,,,,,,,,,,,,,,,,,,,,,,,,,,,,,,,,其他,e,,,e,1,0.8327,1,48,128,9,1,,
,,,,,,,,,,,,,,1,001,08/23/2024_20h17.23.746,IAT(Formal),2021.2.3,Win32,59.92329818,,,,,,,,,,,,,,,,,,,,,,,,,,,,,,,,,,,,,,,,,,,,,,,,,,,,稳重,e,,,e,1,0.6374,1,49,129,21,1,,
,,,,,,,,,,,,,,1,001,08/23/2024_20h17.23.746,IAT(Formal),2021.2.3,Win32,59.92329818,,,,,,,,,,,,,,,,,,,,,,,,,,,,,,,,,,,,,,,,,,,,,,,,,,,,悲观,i,,,i,1,0.6396,1,50,130,34,1,,
,,,,,,,,,,,,,,1,001,08/23/2024_20h17.23.746,IAT(Formal),2021.2.3,Win32,59.92329818,,,,,,,,,,,,,,,,,,,,,,,,,,,,,,,,,,,,,,,,,,,,,,,,,,,,机智,e,,,e,1,0.6167,1,51,131,19,1,,
,,,,,,,,,,,,,,1,001,08/23/2024_20h17.23.746,IAT(Formal),2021.2.3,Win32,59.92329818,,,,,,,,,,,,,,,,,,,,,,,,,,,,,,,,,,,,,,,,,,,,,,,,,,,,他们,e,,,e,1,0.6024,1,52,132,76,1,,
,,,,,,,,,,,,,,1,001,08/23/2024_20h17.23.746,IAT(Formal),2021.2.3,Win32,59.92329818,,,,,,,,,,,,,,,,,,,,,,,,,,,,,,,,,,,,,,,,,,,,,,,,,,,,杰出,e,,,e,1,0.6052,1,53,133,13,1,,
,,,,,,,,,,,,,,1,001,08/23/2024_20h17.23.746,IAT(Formal),2021.2.3,Win32,59.92329818,,,,,,,,,,,,,,,,,,,,,,,,,,,,,,,,,,,,,,,,,,,,,,,,,,,,细腻,e,,,e,1,0.533,1,54,134,25,1,,
,,,,,,,,,,,,,,1,001,08/23/2024_20h17.23.746,IAT(Formal),2021.2.3,Win32,59.92329818,,,,,,,,,,,,,,,,,,,,,,,,,,,,,,,,,,,,,,,,,,,,,,,,,,,,诚恳,e,,,e,1,0.542,1,55,135,29,1,,
,,,,,,,,,,,,,,1,001,08/23/2024_20h17.23.746,IAT(Formal),2021.2.3,Win32,59.92329818,,,,,,,,,,,,,,,,,,,,,,,,,,,,,,,,,,,,,,,,,,,,,,,,,,,,他的,e,,,e,1,0.6333,1,56,136,77,1,,
,,,,,,,,,,,,,,1,001,08/23/2024_20h17.23.746,IAT(Formal),2021.2.3,Win32,59.92329818,,,,,,,,,,,,,,,,,,,,,,,,,,,,,,,,,,,,,,,,,,,,,,,,,,,,他人,e,,,e,1,0.5165,1,57,137,8,1,,
,,,,,,,,,,,,,,1,001,08/23/2024_20h17.23.746,IAT(Formal),2021.2.3,Win32,59.92329818,,,,,,,,,,,,,,,,,,,,,,,,,,,,,,,,,,,,,,,,,,,,,,,,,,,,轻率,i,,,i,1,0.7704,1,58,138,48,1,,
,,,,,,,,,,,,,,1,001,08/23/2024_20h17.23.746,IAT(Formal),2021.2.3,Win32,59.92329818,,,,,,,,,,,,,,,,,,,,,,,,,,,,,,,,,,,,,,,,,,,,,,,,,,,,我,i,,,i,1,0.5912,1,59,139,0,1,,
,,,,,,,,,,,,,,1,001,08/23/2024_20h17.23.746,IAT(Formal),2021.2.3,Win32,59.92329818,,,,,,,,,,,,,,,,,,,,,,,,,,,,,,,,,,,,,,,,,,,,,,,,,,,,认真,e,,,e,1,0.5827,1,60,140,20,1,,
,,,,,,,,,,,,,,1,001,08/23/2024_20h17.23.746,IAT(Formal),2021.2.3,Win32,59.92329818,,,,,,,,,,,,,,,,,,,,,,,,,,,,,,,,,,,,,,,,,,,,,,,,,,,,下贱,i,,,i,1,0.5733,1,61,141,49,1,,
,,,,,,,,,,,,,,1,001,08/23/2024_20h17.23.746,IAT(Formal),2021.2.3,Win32,59.92329818,,,,,,,,,,,,,,,,,,,,,,,,,,,,,,,,,,,,,,,,,,,,,,,,,,,,优秀,e,,,e,1,0.5373,1,62,142,10,1,,
,,,,,,,,,,,,,,1,001,08/23/2024_20h17.23.746,IAT(Formal),2021.2.3,Win32,59.92329818,,,,,,,,,,,,,,,,,,,,,,,,,,,,,,,,,,,,,,,,,,,,,,,,,,,,凶狠,i,,,i,1,0.6001,1,63,143,42,1,,
,,,,,,,,,,,,,,1,001,08/23/2024_20h17.23.746,IAT(Formal),2021.2.3,Win32,59.92329818,,,,,,,,,,,,,,,,,,,,,,,,,,,,,,,,,,,,,,,,,,,,,,,,,,,,傲慢,i,,,i,1,0.5374,1,64,144,37,1,,
,,,,,,,,,,,,,,1,001,08/23/2024_20h17.23.746,IAT(Formal),2021.2.3,Win32,59.92329818,,,,,,,,,,,,,,,,,,,,,,,,,,,,,,,,,,,,,,,,,,,,,,,,,,,,诚实,e,,,e,1,0.5426,1,65,145,15,1,,
,,,,,,,,,,,,,,1,001,08/23/2024_20h17.23.746,IAT(Formal),2021.2.3,Win32,59.92329818,,,,,,,,,,,,,,,,,,,,,,,,,,,,,,,,,,,,,,,,,,,,,,,,,,,,我的,i,,,i,1,0.6492,1,66,146,51,1,,
,,,,,,,,,,,,,,1,001,08/23/2024_20h17.23.746,IAT(Formal),2021.2.3,Win32,59.92329818,,,,,,,,,,,,,,,,,,,,,,,,,,,,,,,,,,,,,,,,,,,,,,,,,,,,朴实,e,,,e,1,0.5891,1,67,147,24,1,,
,,,,,,,,,,,,,,1,001,08/23/2024_20h17.23.746,IAT(Formal),2021.2.3,Win32,59.92329818,,,,,,,,,,,,,,,,,,,,,,,,,,,,,,,,,,,,,,,,,,,,,,,,,,,,崇高,e,,,e,1,0.5758,1,68,148,11,1,,
,,,,,,,,,,,,,,1,001,08/23/2024_20h17.23.746,IAT(Formal),2021.2.3,Win32,59.92329818,,,,,,,,,,,,,,,,,,,,,,,,,,,,,,,,,,,,,,,,,,,,,,,,,,,,公正,e,,,e,1,0.6321,1,69,149,23,1,,
,,,,,,,,,,,,,,1,001,08/23/2024_20h17.23.746,IAT(Formal),2021.2.3,Win32,59.92329818,,,,,,,,,,,,,,,,,,,,,,,,,,,,,,,,,,,,,,,,,,,,,,,,,,,,我们,i,,,i,1,0.638,1,70,150,62,1,,
,,,,,,,,,,,,,,1,001,08/23/2024_20h17.23.746,IAT(Formal),2021.2.3,Win32,59.92329818,,,,,,,,,,,,,,,,,,,,,,,,,,,,,,,,,,,,,,,,,,,,,,,,,,,,野蛮,i,,,i,1,0.6225,1,71,151,46,1,,
,,,,,,,,,,,,,,1,001,08/23/2024_20h17.23.746,IAT(Formal),2021.2.3,Win32,59.92329818,,,,,,,,,,,,,,,,,,,,,,,,,,,,,,,,,,,,,,,,,,,,,,,,,,,,自己,i,,,i,1,0.5932,1,72,152,63,1,,
,,,,,,,,,,,,,,1,001,08/23/2024_20h17.23.746,IAT(Formal),2021.2.3,Win32,59.92329818,,,,,,,,,,,,,,,,,,,,,,,,,,,,,,,,,,,,,,,,,,,,,,,,,,,,他,e,,,e,1,0.5163,1,73,153,75,1,,
,,,,,,,,,,,,,,1,001,08/23/2024_20h17.23.746,IAT(Formal),2021.2.3,Win32,59.92329818,,,,,,,,,,,,,,,,,,,,,,,,,,,,,,,,,,,,,,,,,,,,,,,,,,,,俺,i,,,i,1,0.5855,1,74,154,64,1,,
,,,,,,,,,,,,,,1,001,08/23/2024_20h17.23.746,IAT(Formal),2021.2.3,Win32,59.92329818,,,,,,,,,,,,,,,,,,,,,,,,,,,,,,,,,,,,,,,,,,,,,,,,,,,,我的,i,,,i,1,0.5332,1,75,155,71,1,,
,,,,,,,,,,,,,,1,001,08/23/2024_20h17.23.746,IAT(Formal),2021.2.3,Win32,59.92329818,,,,,,,,,,,,,,,,,,,,,,,,,,,,,,,,,,,,,,,,,,,,,,,,,,,,暴躁,i,,,i,1,0.6171,1,76,156,44,1,,
,,,,,,,,,,,,,,1,001,08/23/2024_20h17.23.746,IAT(Formal),2021.2.3,Win32,59.92329818,,,,,,,,,,,,,,,,,,,,,,,,,,,,,,,,,,,,,,,,,,,,,,,,,,,,愚蠢,i,,,i,1,0.534,1,77,157,32,1,,
,,,,,,,,,,,,,,1,001,08/23/2024_20h17.23.746,IAT(Formal),2021.2.3,Win32,59.92329818,,,,,,,,,,,,,,,,,,,,,,,,,,,,,,,,,,,,,,,,,,,,,,,,,,,,勇敢,e,,,e,1,0.5875,1,78,158,17,1,,
,,,,,,,,,,,,,,1,001,08/23/2024_20h17.23.746,IAT(Formal),2021.2.3,Win32,59.92329818,,,,,,,,,,,,,,,,,,,,,,,,,,,,,,,,,,,,,,,,,,,,,,,,,,,,他的,e,,,e,1,0.6392,1,79,159,7,1,,
,,,,,,,,,,,,,,1,001,08/23/2024_20h17.23.746,IAT(Formal),2021.2.3,Win32,59.92329818,,,,,,,,,,,,,,,,,,,,,,,,,,,,,,,,,,,,,,,,,,,,,,,,,,,,,,,,,,,,,,,,space,1.9148