"X.Instruction1.keys","Instruction1.rt","Instruction2.keys","Instruction2.rt","key_resp_iso.keys","key_resp_iso.corr","key_resp_iso.rt","Practice_01.thisRepN","Practice_01.thisTrialN","Practice_01.thisN","Practice_01.thisIndex","Practice_01.ran","Words","ans","participant","session","date","expName","psychopyVersion","OS","frameRate","key_resp_3.keys","key_resp_3.rt","key_resp_ipn.keys","key_resp_ipn.corr","key_resp_ipn.rt","Practice_02.thisRepN","Practice_02.thisTrialN","Practice_02.thisN","Practice_02.thisIndex","Practice_02.ran","Words_ipn","ans_ipn","key_resp_4.keys","key_resp_4.rt","key_resp_t1.keys","key_resp_t1.corr","key_resp_t1.rt","Practice_T1.thisRepN","Practice_T1.thisTrialN","Practice_T1.thisN","Practice_T1.thisIndex","Practice_T1.ran","Words_t1","ans_t1","key_resp_5.keys","key_resp_5.rt","Formal_T1.thisRepN","Formal_T1.thisTrialN","Formal_T1.thisN","Formal_T1.thisIndex","Formal_T1.ran","key_resp_6.keys","key_resp_6.rt","key_resp_iso_reverse.keys","key_resp_iso_reverse.corr","key_resp_iso_reverse.rt","Practice_iso_Reverse.thisRepN","Practice_iso_Reverse.thisTrialN","Practice_iso_Reverse.thisN","Practice_iso_Reverse.thisIndex","Practice_iso_Reverse.ran","key_resp_7.keys","key_resp_7.rt","key_resp_t2_Practice.keys","key_resp_t2_Practice.corr","key_resp_t2_Practice.rt","Practice_t2_Reverse.thisRepN","Practice_t2_Reverse.thisTrialN","Practice_t2_Reverse.thisN","Practice_t2_Reverse.thisIndex","Practice_t2_Reverse.ran","Words_t2","ans_t2","key_resp_8.keys","key_resp_8.rt","key_resp_t2.keys","key_resp_t2.corr","Formal_t2_reverse.thisRepN","Formal_t2_reverse.thisTrialN","Formal_t2_reverse.thisN","Formal_t2_reverse.thisIndex","Formal_t2_reverse.ran","key_resp_t2.rt","key_instruct.keys","key_instruct.rt","Subject"
"space",8.9671,"space",32.5324,"e",1,1.1058,0,0,0,2,1,"我们","e",1,1,"2024-08-23_20h52.31.327","IAT(Formal)","2021.2.3","Win32",59.88023952,"",NA,"",NA,NA,NA,NA,NA,NA,NA,"","","",NA,"",NA,NA,NA,NA,NA,NA,NA,"","","",NA,NA,NA,NA,NA,NA,"",NA,"",NA,NA,NA,NA,NA,NA,NA,"",NA,"",NA,NA,NA,NA,NA,NA,NA,"","","",NA,"",NA,NA,NA,NA,NA,NA,NA,"",NA,"17"
"",NA,"",NA,"i",1,0.4205,0,1,1,8,1,"他人","i",1,1,"2024-08-23_20h52.31.327","IAT(Formal)","2021.2.3","Win32",59.88023952,"",NA,"",NA,NA,NA,NA,NA,NA,NA,"","","",NA,"",NA,NA,NA,NA,NA,NA,NA,"","","",NA,NA,NA,NA,NA,NA,"",NA,"",NA,NA,NA,NA,NA,NA,NA,"",NA,"",NA,NA,NA,NA,NA,NA,NA,"","","",NA,"",NA,NA,NA,NA,NA,NA,NA,"",NA,"17"
"",NA,"",NA,"i",1,0.6906,0,2,2,9,1,"其他","i",1,1,"2024-08-23_20h52.31.327","IAT(Formal)","2021.2.3","Win32",59.88023952,"",NA,"",NA,NA,NA,NA,NA,NA,NA,"","","",NA,"",NA,NA,NA,NA,NA,NA,NA,"","","",NA,NA,NA,NA,NA,NA,"",NA,"",NA,NA,NA,NA,NA,NA,NA,"",NA,"",NA,NA,NA,NA,NA,NA,NA,"","","",NA,"",NA,NA,NA,NA,NA,NA,NA,"",NA,"17"
"",NA,"",NA,"e",1,0.4,0,3,3,1,1,"我的","e",1,1,"2024-08-23_20h52.31.327","IAT(Formal)","2021.2.3","Win32",59.88023952,"",NA,"",NA,NA,NA,NA,NA,NA,NA,"","","",NA,"",NA,NA,NA,NA,NA,NA,NA,"","","",NA,NA,NA,NA,NA,NA,"",NA,"",NA,NA,NA,NA,NA,NA,NA,"",NA,"",NA,NA,NA,NA,NA,NA,NA,"","","",NA,"",NA,NA,NA,NA,NA,NA,NA,"",NA,"17"
"",NA,"",NA,"i",1,0.4176,0,4,4,7,1,"他的","i",1,1,"2024-08-23_20h52.31.327","IAT(Formal)","2021.2.3","Win32",59.88023952,"",NA,"",NA,NA,NA,NA,NA,NA,NA,"","","",NA,"",NA,NA,NA,NA,NA,NA,NA,"","","",NA,NA,NA,NA,NA,NA,"",NA,"",NA,NA,NA,NA,NA,NA,NA,"",NA,"",NA,NA,NA,NA,NA,NA,NA,"","","",NA,"",NA,NA,NA,NA,NA,NA,NA,"",NA,"17"
"",NA,"",NA,"e",0,0.5942,0,5,5,5,1,"他","i",1,1,"2024-08-23_20h52.31.327","IAT(Formal)","2021.2.3","Win32",59.88023952,"",NA,"",NA,NA,NA,NA,NA,NA,NA,"","","",NA,"",NA,NA,NA,NA,NA,NA,NA,"","","",NA,NA,NA,NA,NA,NA,"",NA,"",NA,NA,NA,NA,NA,NA,NA,"",NA,"",NA,NA,NA,NA,NA,NA,NA,"","","",NA,"",NA,NA,NA,NA,NA,NA,NA,"",NA,"17"
"",NA,"",NA,"e",1,0.5919,0,6,6,0,1,"我","e",1,1,"2024-08-23_20h52.31.327","IAT(Formal)","2021.2.3","Win32",59.88023952,"",NA,"",NA,NA,NA,NA,NA,NA,NA,"","","",NA,"",NA,NA,NA,NA,NA,NA,NA,"","","",NA,NA,NA,NA,NA,NA,"",NA,"",NA,NA,NA,NA,NA,NA,NA,"",NA,"",NA,NA,NA,NA,NA,NA,NA,"","","",NA,"",NA,NA,NA,NA,NA,NA,NA,"",NA,"17"
"",NA,"",NA,"i",1,0.4552,0,7,7,6,1,"他们","i",1,1,"2024-08-23_20h52.31.327","IAT(Formal)","2021.2.3","Win32",59.88023952,"",NA,"",NA,NA,NA,NA,NA,NA,NA,"","","",NA,"",NA,NA,NA,NA,NA,NA,NA,"","","",NA,NA,NA,NA,NA,NA,"",NA,"",NA,NA,NA,NA,NA,NA,NA,"",NA,"",NA,NA,NA,NA,NA,NA,NA,"","","",NA,"",NA,NA,NA,NA,NA,NA,NA,"",NA,"17"
"",NA,"",NA,"e",1,0.6983,0,8,8,4,1,"俺","e",1,1,"2024-08-23_20h52.31.327","IAT(Formal)","2021.2.3","Win32",59.88023952,"",NA,"",NA,NA,NA,NA,NA,NA,NA,"","","",NA,"",NA,NA,NA,NA,NA,NA,NA,"","","",NA,NA,NA,NA,NA,NA,"",NA,"",NA,NA,NA,NA,NA,NA,NA,"",NA,"",NA,NA,NA,NA,NA,NA,NA,"","","",NA,"",NA,NA,NA,NA,NA,NA,NA,"",NA,"17"
"",NA,"",NA,"e",1,0.61,0,9,9,3,1,"自己","e",1,1,"2024-08-23_20h52.31.327","IAT(Formal)","2021.2.3","Win32",59.88023952,"",NA,"",NA,NA,NA,NA,NA,NA,NA,"","","",NA,"",NA,NA,NA,NA,NA,NA,NA,"","","",NA,NA,NA,NA,NA,NA,"",NA,"",NA,NA,NA,NA,NA,NA,NA,"",NA,"",NA,NA,NA,NA,NA,NA,NA,"","","",NA,"",NA,NA,NA,NA,NA,NA,NA,"",NA,"17"
"",NA,"",NA,"",NA,NA,NA,NA,NA,NA,NA,"","",1,1,"2024-08-23_20h52.31.327","IAT(Formal)","2021.2.3","Win32",59.88023952,"space",10.807,"e",1,0.7888,0,0,0,17,1,"热情","e","",NA,"",NA,NA,NA,NA,NA,NA,NA,"","","",NA,NA,NA,NA,NA,NA,"",NA,"",NA,NA,NA,NA,NA,NA,NA,"",NA,"",NA,NA,NA,NA,NA,NA,NA,"","","",NA,"",NA,NA,NA,NA,NA,NA,NA,"",NA,"17"
"",NA,"",NA,"",NA,NA,NA,NA,NA,NA,NA,"","",1,1,"2024-08-23_20h52.31.327","IAT(Formal)","2021.2.3","Win32",59.88023952,"",NA,"e",1,0.5767,0,1,1,18,1,"活泼","e","",NA,"",NA,NA,NA,NA,NA,NA,NA,"","","",NA,NA,NA,NA,NA,NA,"",NA,"",NA,NA,NA,NA,NA,NA,NA,"",NA,"",NA,NA,NA,NA,NA,NA,NA,"","","",NA,"",NA,NA,NA,NA,NA,NA,NA,"",NA,"17"
"",NA,"",NA,"",NA,NA,NA,NA,NA,NA,NA,"","",1,1,"2024-08-23_20h52.31.327","IAT(Formal)","2021.2.3","Win32",59.88023952,"",NA,"i",1,0.7451,0,2,2,38,1,"轻率","i","",NA,"",NA,NA,NA,NA,NA,NA,NA,"","","",NA,NA,NA,NA,NA,NA,"",NA,"",NA,NA,NA,NA,NA,NA,NA,"",NA,"",NA,NA,NA,NA,NA,NA,NA,"","","",NA,"",NA,NA,NA,NA,NA,NA,NA,"",NA,"17"
"",NA,"",NA,"",NA,NA,NA,NA,NA,NA,NA,"","",1,1,"2024-08-23_20h52.31.327","IAT(Formal)","2021.2.3","Win32",59.88023952,"",NA,"i",1,0.7351,0,3,3,31,1,"散漫","i","",NA,"",NA,NA,NA,NA,NA,NA,NA,"","","",NA,NA,NA,NA,NA,NA,"",NA,"",NA,NA,NA,NA,NA,NA,NA,"",NA,"",NA,NA,NA,NA,NA,NA,NA,"","","",NA,"",NA,NA,NA,NA,NA,NA,NA,"",NA,"17"
"",NA,"",NA,"",NA,NA,NA,NA,NA,NA,NA,"","",1,1,"2024-08-23_20h52.31.327","IAT(Formal)","2021.2.3","Win32",59.88023952,"",NA,"i",1,0.5914,0,4,4,21,1,"虚伪","i","",NA,"",NA,NA,NA,NA,NA,NA,NA,"","","",NA,NA,NA,NA,NA,NA,"",NA,"",NA,NA,NA,NA,NA,NA,NA,"",NA,"",NA,NA,NA,NA,NA,NA,NA,"","","",NA,"",NA,NA,NA,NA,NA,NA,NA,"",NA,"17"
"",NA,"",NA,"",NA,NA,NA,NA,NA,NA,NA,"","",1,1,"2024-08-23_20h52.31.327","IAT(Formal)","2021.2.3","Win32",59.88023952,"",NA,"e",1,0.8638,0,5,5,19,1,"诚恳","e","",NA,"",NA,NA,NA,NA,NA,NA,NA,"","","",NA,NA,NA,NA,NA,NA,"",NA,"",NA,NA,NA,NA,NA,NA,NA,"",NA,"",NA,NA,NA,NA,NA,NA,NA,"","","",NA,"",NA,NA,NA,NA,NA,NA,NA,"",NA,"17"
"",NA,"",NA,"",NA,NA,NA,NA,NA,NA,NA,"","",1,1,"2024-08-23_20h52.31.327","IAT(Formal)","2021.2.3","Win32",59.88023952,"",NA,"i",1,0.7168,0,6,6,37,1,"固执","i","",NA,"",NA,NA,NA,NA,NA,NA,NA,"","","",NA,NA,NA,NA,NA,NA,"",NA,"",NA,NA,NA,NA,NA,NA,NA,"",NA,"",NA,NA,NA,NA,NA,NA,NA,"","","",NA,"",NA,NA,NA,NA,NA,NA,NA,"",NA,"17"
"",NA,"",NA,"",NA,NA,NA,NA,NA,NA,NA,"","",1,1,"2024-08-23_20h52.31.327","IAT(Formal)","2021.2.3","Win32",59.88023952,"",NA,"i",0,0.7396,0,7,7,1,1,"崇高","e","",NA,"",NA,NA,NA,NA,NA,NA,NA,"","","",NA,NA,NA,NA,NA,NA,"",NA,"",NA,NA,NA,NA,NA,NA,NA,"",NA,"",NA,NA,NA,NA,NA,NA,NA,"","","",NA,"",NA,NA,NA,NA,NA,NA,NA,"",NA,"17"
"",NA,"",NA,"",NA,NA,NA,NA,NA,NA,NA,"","",1,1,"2024-08-23_20h52.31.327","IAT(Formal)","2021.2.3","Win32",59.88023952,"",NA,"e",1,0.7547,0,8,8,11,1,"稳重","e","",NA,"",NA,NA,NA,NA,NA,NA,NA,"","","",NA,NA,NA,NA,NA,NA,"",NA,"",NA,NA,NA,NA,NA,NA,NA,"",NA,"",NA,NA,NA,NA,NA,NA,NA,"","","",NA,"",NA,NA,NA,NA,NA,NA,NA,"",NA,"17"
"",NA,"",NA,"",NA,NA,NA,NA,NA,NA,NA,"","",1,1,"2024-08-23_20h52.31.327","IAT(Formal)","2021.2.3","Win32",59.88023952,"",NA,"e",1,0.6346,0,9,9,2,1,"聪明","e","",NA,"",NA,NA,NA,NA,NA,NA,NA,"","","",NA,NA,NA,NA,NA,NA,"",NA,"",NA,NA,NA,NA,NA,NA,NA,"",NA,"",NA,NA,NA,NA,NA,NA,NA,"","","",NA,"",NA,NA,NA,NA,NA,NA,NA,"",NA,"17"
"",NA,"",NA,"",NA,NA,NA,NA,NA,NA,NA,"","",1,1,"2024-08-23_20h52.31.327","IAT(Formal)","2021.2.3","Win32",59.88023952,"",NA,"i",1,0.508,0,10,10,29,1,"冒失","i","",NA,"",NA,NA,NA,NA,NA,NA,NA,"","","",NA,NA,NA,NA,NA,NA,"",NA,"",NA,NA,NA,NA,NA,NA,NA,"",NA,"",NA,NA,NA,NA,NA,NA,NA,"","","",NA,"",NA,NA,NA,NA,NA,NA,NA,"",NA,"17"
"",NA,"",NA,"",NA,NA,NA,NA,NA,NA,NA,"","",1,1,"2024-08-23_20h52.31.327","IAT(Formal)","2021.2.3","Win32",59.88023952,"",NA,"i",0,0.6169,0,11,11,12,1,"无私","e","",NA,"",NA,NA,NA,NA,NA,NA,NA,"","","",NA,NA,NA,NA,NA,NA,"",NA,"",NA,NA,NA,NA,NA,NA,NA,"",NA,"",NA,NA,NA,NA,NA,NA,NA,"","","",NA,"",NA,NA,NA,NA,NA,NA,NA,"",NA,"17"
"",NA,"",NA,"",NA,NA,NA,NA,NA,NA,NA,"","",1,1,"2024-08-23_20h52.31.327","IAT(Formal)","2021.2.3","Win32",59.88023952,"",NA,"e",1,0.7111,0,12,12,16,1,"冷静","e","",NA,"",NA,NA,NA,NA,NA,NA,NA,"","","",NA,NA,NA,NA,NA,NA,"",NA,"",NA,NA,NA,NA,NA,NA,NA,"",NA,"",NA,NA,NA,NA,NA,NA,NA,"","","",NA,"",NA,NA,NA,NA,NA,NA,NA,"",NA,"17"
"",NA,"",NA,"",NA,NA,NA,NA,NA,NA,NA,"","",1,1,"2024-08-23_20h52.31.327","IAT(Formal)","2021.2.3","Win32",59.88023952,"",NA,"i",1,0.7187,0,13,13,39,1,"下贱","i","",NA,"",NA,NA,NA,NA,NA,NA,NA,"","","",NA,NA,NA,NA,NA,NA,"",NA,"",NA,NA,NA,NA,NA,NA,NA,"",NA,"",NA,NA,NA,NA,NA,NA,NA,"","","",NA,"",NA,NA,NA,NA,NA,NA,NA,"",NA,"17"
"",NA,"",NA,"",NA,NA,NA,NA,NA,NA,NA,"","",1,1,"2024-08-23_20h52.31.327","IAT(Formal)","2021.2.3","Win32",59.88023952,"",NA,"e",1,0.6419,0,14,14,0,1,"优秀","e","",NA,"",NA,NA,NA,NA,NA,NA,NA,"","","",NA,NA,NA,NA,NA,NA,"",NA,"",NA,NA,NA,NA,NA,NA,NA,"",NA,"",NA,NA,NA,NA,NA,NA,NA,"","","",NA,"",NA,NA,NA,NA,NA,NA,NA,"",NA,"17"
"",NA,"",NA,"",NA,NA,NA,NA,NA,NA,NA,"","",1,1,"2024-08-23_20h52.31.327","IAT(Formal)","2021.2.3","Win32",59.88023952,"",NA,"i",1,0.6412,0,15,15,25,1,"消极","i","",NA,"",NA,NA,NA,NA,NA,NA,NA,"","","",NA,NA,NA,NA,NA,NA,"",NA,"",NA,NA,NA,NA,NA,NA,NA,"",NA,"",NA,NA,NA,NA,NA,NA,NA,"","","",NA,"",NA,NA,NA,NA,NA,NA,NA,"",NA,"17"
"",NA,"",NA,"",NA,NA,NA,NA,NA,NA,NA,"","",1,1,"2024-08-23_20h52.31.327","IAT(Formal)","2021.2.3","Win32",59.88023952,"",NA,"e",0,0.5037,0,16,16,30,1,"执拗","i","",NA,"",NA,NA,NA,NA,NA,NA,NA,"","","",NA,NA,NA,NA,NA,NA,"",NA,"",NA,NA,NA,NA,NA,NA,NA,"",NA,"",NA,NA,NA,NA,NA,NA,NA,"","","",NA,"",NA,NA,NA,NA,NA,NA,NA,"",NA,"17"
"",NA,"",NA,"",NA,NA,NA,NA,NA,NA,NA,"","",1,1,"2024-08-23_20h52.31.327","IAT(Formal)","2021.2.3","Win32",59.88023952,"",NA,"e",1,0.6285,0,17,17,4,1,"乐观","e","",NA,"",NA,NA,NA,NA,NA,NA,NA,"","","",NA,NA,NA,NA,NA,NA,"",NA,"",NA,NA,NA,NA,NA,NA,NA,"",NA,"",NA,NA,NA,NA,NA,NA,NA,"","","",NA,"",NA,NA,NA,NA,NA,NA,NA,"",NA,"17"
"",NA,"",NA,"",NA,NA,NA,NA,NA,NA,NA,"","",1,1,"2024-08-23_20h52.31.327","IAT(Formal)","2021.2.3","Win32",59.88023952,"",NA,"e",1,0.5939,0,18,18,3,1,"杰出","e","",NA,"",NA,NA,NA,NA,NA,NA,NA,"","","",NA,NA,NA,NA,NA,NA,"",NA,"",NA,NA,NA,NA,NA,NA,NA,"",NA,"",NA,NA,NA,NA,NA,NA,NA,"","","",NA,"",NA,NA,NA,NA,NA,NA,NA,"",NA,"17"
"",NA,"",NA,"",NA,NA,NA,NA,NA,NA,NA,"","",1,1,"2024-08-23_20h52.31.327","IAT(Formal)","2021.2.3","Win32",59.88023952,"",NA,"e",1,0.5168,0,19,19,9,1,"机智","e","",NA,"",NA,NA,NA,NA,NA,NA,NA,"","","",NA,NA,NA,NA,NA,NA,"",NA,"",NA,NA,NA,NA,NA,NA,NA,"",NA,"",NA,NA,NA,NA,NA,NA,NA,"","","",NA,"",NA,NA,NA,NA,NA,NA,NA,"",NA,"17"
"",NA,"",NA,"",NA,NA,NA,NA,NA,NA,NA,"","",1,1,"2024-08-23_20h52.31.327","IAT(Formal)","2021.2.3","Win32",59.88023952,"",NA,"e",1,0.5057,0,20,20,6,1,"正直","e","",NA,"",NA,NA,NA,NA,NA,NA,NA,"","","",NA,NA,NA,NA,NA,NA,"",NA,"",NA,NA,NA,NA,NA,NA,NA,"",NA,"",NA,NA,NA,NA,NA,NA,NA,"","","",NA,"",NA,NA,NA,NA,NA,NA,NA,"",NA,"17"
"",NA,"",NA,"",NA,NA,NA,NA,NA,NA,NA,"","",1,1,"2024-08-23_20h52.31.327","IAT(Formal)","2021.2.3","Win32",59.88023952,"",NA,"i",1,0.6839,0,21,21,22,1,"愚蠢","i","",NA,"",NA,NA,NA,NA,NA,NA,NA,"","","",NA,NA,NA,NA,NA,NA,"",NA,"",NA,NA,NA,NA,NA,NA,NA,"",NA,"",NA,NA,NA,NA,NA,NA,NA,"","","",NA,"",NA,NA,NA,NA,NA,NA,NA,"",NA,"17"
"",NA,"",NA,"",NA,NA,NA,NA,NA,NA,NA,"","",1,1,"2024-08-23_20h52.31.327","IAT(Formal)","2021.2.3","Win32",59.88023952,"",NA,"i",1,0.6836,0,22,22,34,1,"暴躁","i","",NA,"",NA,NA,NA,NA,NA,NA,NA,"","","",NA,NA,NA,NA,NA,NA,"",NA,"",NA,NA,NA,NA,NA,NA,NA,"",NA,"",NA,NA,NA,NA,NA,NA,NA,"","","",NA,"",NA,NA,NA,NA,NA,NA,NA,"",NA,"17"
"",NA,"",NA,"",NA,NA,NA,NA,NA,NA,NA,"","",1,1,"2024-08-23_20h52.31.327","IAT(Formal)","2021.2.3","Win32",59.88023952,"",NA,"i",1,0.595,0,23,23,24,1,"悲观","i","",NA,"",NA,NA,NA,NA,NA,NA,NA,"","","",NA,NA,NA,NA,NA,NA,"",NA,"",NA,NA,NA,NA,NA,NA,NA,"",NA,"",NA,NA,NA,NA,NA,NA,NA,"","","",NA,"",NA,NA,NA,NA,NA,NA,NA,"",NA,"17"
"",NA,"",NA,"",NA,NA,NA,NA,NA,NA,NA,"","",1,1,"2024-08-23_20h52.31.327","IAT(Formal)","2021.2.3","Win32",59.88023952,"",NA,"i",1,0.6012,0,24,24,27,1,"傲慢","i","",NA,"",NA,NA,NA,NA,NA,NA,NA,"","","",NA,NA,NA,NA,NA,NA,"",NA,"",NA,NA,NA,NA,NA,NA,NA,"",NA,"",NA,NA,NA,NA,NA,NA,NA,"","","",NA,"",NA,NA,NA,NA,NA,NA,NA,"",NA,"17"
"",NA,"",NA,"",NA,NA,NA,NA,NA,NA,NA,"","",1,1,"2024-08-23_20h52.31.327","IAT(Formal)","2021.2.3","Win32",59.88023952,"",NA,"e",1,0.4398,0,25,25,5,1,"诚实","e","",NA,"",NA,NA,NA,NA,NA,NA,NA,"","","",NA,NA,NA,NA,NA,NA,"",NA,"",NA,NA,NA,NA,NA,NA,NA,"",NA,"",NA,NA,NA,NA,NA,NA,NA,"","","",NA,"",NA,NA,NA,NA,NA,NA,NA,"",NA,"17"
"",NA,"",NA,"",NA,NA,NA,NA,NA,NA,NA,"","",1,1,"2024-08-23_20h52.31.327","IAT(Formal)","2021.2.3","Win32",59.88023952,"",NA,"i",1,0.624,0,26,26,35,1,"猖狂","i","",NA,"",NA,NA,NA,NA,NA,NA,NA,"","","",NA,NA,NA,NA,NA,NA,"",NA,"",NA,NA,NA,NA,NA,NA,NA,"",NA,"",NA,NA,NA,NA,NA,NA,NA,"","","",NA,"",NA,NA,NA,NA,NA,NA,NA,"",NA,"17"
"",NA,"",NA,"",NA,NA,NA,NA,NA,NA,NA,"","",1,1,"2024-08-23_20h52.31.327","IAT(Formal)","2021.2.3","Win32",59.88023952,"",NA,"i",0,0.6838,0,27,27,15,1,"细腻","e","",NA,"",NA,NA,NA,NA,NA,NA,NA,"","","",NA,NA,NA,NA,NA,NA,"",NA,"",NA,NA,NA,NA,NA,NA,NA,"",NA,"",NA,NA,NA,NA,NA,NA,NA,"","","",NA,"",NA,NA,NA,NA,NA,NA,NA,"",NA,"17"
"",NA,"",NA,"",NA,NA,NA,NA,NA,NA,NA,"","",1,1,"2024-08-23_20h52.31.327","IAT(Formal)","2021.2.3","Win32",59.88023952,"",NA,"e",1,0.6853,0,28,28,8,1,"勤奋","e","",NA,"",NA,NA,NA,NA,NA,NA,NA,"","","",NA,NA,NA,NA,NA,NA,"",NA,"",NA,NA,NA,NA,NA,NA,NA,"",NA,"",NA,NA,NA,NA,NA,NA,NA,"","","",NA,"",NA,NA,NA,NA,NA,NA,NA,"",NA,"17"
"",NA,"",NA,"",NA,NA,NA,NA,NA,NA,NA,"","",1,1,"2024-08-23_20h52.31.327","IAT(Formal)","2021.2.3","Win32",59.88023952,"",NA,"e",1,0.4397,0,29,29,10,1,"认真","e","",NA,"",NA,NA,NA,NA,NA,NA,NA,"","","",NA,NA,NA,NA,NA,NA,"",NA,"",NA,NA,NA,NA,NA,NA,NA,"",NA,"",NA,NA,NA,NA,NA,NA,NA,"","","",NA,"",NA,NA,NA,NA,NA,NA,NA,"",NA,"17"
"",NA,"",NA,"",NA,NA,NA,NA,NA,NA,NA,"","",1,1,"2024-08-23_20h52.31.327","IAT(Formal)","2021.2.3","Win32",59.88023952,"",NA,"i",1,0.6327,0,30,30,20,1,"卑鄙","i","",NA,"",NA,NA,NA,NA,NA,NA,NA,"","","",NA,NA,NA,NA,NA,NA,"",NA,"",NA,NA,NA,NA,NA,NA,NA,"",NA,"",NA,NA,NA,NA,NA,NA,NA,"","","",NA,"",NA,NA,NA,NA,NA,NA,NA,"",NA,"17"
"",NA,"",NA,"",NA,NA,NA,NA,NA,NA,NA,"","",1,1,"2024-08-23_20h52.31.327","IAT(Formal)","2021.2.3","Win32",59.88023952,"",NA,"e",1,0.713,0,31,31,7,1,"勇敢","e","",NA,"",NA,NA,NA,NA,NA,NA,NA,"","","",NA,NA,NA,NA,NA,NA,"",NA,"",NA,NA,NA,NA,NA,NA,NA,"",NA,"",NA,NA,NA,NA,NA,NA,NA,"","","",NA,"",NA,NA,NA,NA,NA,NA,NA,"",NA,"17"
"",NA,"",NA,"",NA,NA,NA,NA,NA,NA,NA,"","",1,1,"2024-08-23_20h52.31.327","IAT(Formal)","2021.2.3","Win32",59.88023952,"",NA,"e",1,0.6446,0,32,32,14,1,"朴实","e","",NA,"",NA,NA,NA,NA,NA,NA,NA,"","","",NA,NA,NA,NA,NA,NA,"",NA,"",NA,NA,NA,NA,NA,NA,NA,"",NA,"",NA,NA,NA,NA,NA,NA,NA,"","","",NA,"",NA,NA,NA,NA,NA,NA,NA,"",NA,"17"
"",NA,"",NA,"",NA,NA,NA,NA,NA,NA,NA,"","",1,1,"2024-08-23_20h52.31.327","IAT(Formal)","2021.2.3","Win32",59.88023952,"",NA,"e",1,0.5343,0,33,33,13,1,"公正","e","",NA,"",NA,NA,NA,NA,NA,NA,NA,"","","",NA,NA,NA,NA,NA,NA,"",NA,"",NA,NA,NA,NA,NA,NA,NA,"",NA,"",NA,NA,NA,NA,NA,NA,NA,"","","",NA,"",NA,NA,NA,NA,NA,NA,NA,"",NA,"17"
"",NA,"",NA,"",NA,NA,NA,NA,NA,NA,NA,"","",1,1,"2024-08-23_20h52.31.327","IAT(Formal)","2021.2.3","Win32",59.88023952,"",NA,"i",1,0.8053,0,34,34,28,1,"鲁莽","i","",NA,"",NA,NA,NA,NA,NA,NA,NA,"","","",NA,NA,NA,NA,NA,NA,"",NA,"",NA,NA,NA,NA,NA,NA,NA,"",NA,"",NA,NA,NA,NA,NA,NA,NA,"","","",NA,"",NA,NA,NA,NA,NA,NA,NA,"",NA,"17"
"",NA,"",NA,"",NA,NA,NA,NA,NA,NA,NA,"","",1,1,"2024-08-23_20h52.31.327","IAT(Formal)","2021.2.3","Win32",59.88023952,"",NA,"i",1,1.1448,0,35,35,26,1,"自卑","i","",NA,"",NA,NA,NA,NA,NA,NA,NA,"","","",NA,NA,NA,NA,NA,NA,"",NA,"",NA,NA,NA,NA,NA,NA,NA,"",NA,"",NA,NA,NA,NA,NA,NA,NA,"","","",NA,"",NA,NA,NA,NA,NA,NA,NA,"",NA,"17"
"",NA,"",NA,"",NA,NA,NA,NA,NA,NA,NA,"","",1,1,"2024-08-23_20h52.31.327","IAT(Formal)","2021.2.3","Win32",59.88023952,"",NA,"i",1,0.8335,0,36,36,23,1,"刻薄","i","",NA,"",NA,NA,NA,NA,NA,NA,NA,"","","",NA,NA,NA,NA,NA,NA,"",NA,"",NA,NA,NA,NA,NA,NA,NA,"",NA,"",NA,NA,NA,NA,NA,NA,NA,"","","",NA,"",NA,NA,NA,NA,NA,NA,NA,"",NA,"17"
"",NA,"",NA,"",NA,NA,NA,NA,NA,NA,NA,"","",1,1,"2024-08-23_20h52.31.327","IAT(Formal)","2021.2.3","Win32",59.88023952,"",NA,"e",0,0.7502,0,37,37,33,1,"自私","i","",NA,"",NA,NA,NA,NA,NA,NA,NA,"","","",NA,NA,NA,NA,NA,NA,"",NA,"",NA,NA,NA,NA,NA,NA,NA,"",NA,"",NA,NA,NA,NA,NA,NA,NA,"","","",NA,"",NA,NA,NA,NA,NA,NA,NA,"",NA,"17"
"",NA,"",NA,"",NA,NA,NA,NA,NA,NA,NA,"","",1,1,"2024-08-23_20h52.31.327","IAT(Formal)","2021.2.3","Win32",59.88023952,"",NA,"i",1,0.7348,0,38,38,32,1,"凶狠","i","",NA,"",NA,NA,NA,NA,NA,NA,NA,"","","",NA,NA,NA,NA,NA,NA,"",NA,"",NA,NA,NA,NA,NA,NA,NA,"",NA,"",NA,NA,NA,NA,NA,NA,NA,"","","",NA,"",NA,NA,NA,NA,NA,NA,NA,"",NA,"17"
"",NA,"",NA,"",NA,NA,NA,NA,NA,NA,NA,"","",1,1,"2024-08-23_20h52.31.327","IAT(Formal)","2021.2.3","Win32",59.88023952,"",NA,"i",1,0.5373,0,39,39,36,1,"野蛮","i","",NA,"",NA,NA,NA,NA,NA,NA,NA,"","","",NA,NA,NA,NA,NA,NA,"",NA,"",NA,NA,NA,NA,NA,NA,NA,"",NA,"",NA,NA,NA,NA,NA,NA,NA,"","","",NA,"",NA,NA,NA,NA,NA,NA,NA,"",NA,"17"
"",NA,"",NA,"",NA,NA,NA,NA,NA,NA,NA,"","",1,1,"2024-08-23_20h52.31.327","IAT(Formal)","2021.2.3","Win32",59.88023952,"",NA,"",NA,NA,NA,NA,NA,NA,NA,"","","space",13.3885,"i",1,1.4228,0,0,0,59,1,"其他","i","",NA,NA,NA,NA,NA,NA,"",NA,"",NA,NA,NA,NA,NA,NA,NA,"",NA,"",NA,NA,NA,NA,NA,NA,NA,"","","",NA,"",NA,NA,NA,NA,NA,NA,NA,"",NA,"17"
"",NA,"",NA,"",NA,NA,NA,NA,NA,NA,NA,"","",1,1,"2024-08-23_20h52.31.327","IAT(Formal)","2021.2.3","Win32",59.88023952,"",NA,"",NA,NA,NA,NA,NA,NA,NA,"","","",NA,"e",1,0.6095,0,1,1,71,1,"我的","e","",NA,NA,NA,NA,NA,NA,"",NA,"",NA,NA,NA,NA,NA,NA,NA,"",NA,"",NA,NA,NA,NA,NA,NA,NA,"","","",NA,"",NA,NA,NA,NA,NA,NA,NA,"",NA,"17"
"",NA,"",NA,"",NA,NA,NA,NA,NA,NA,NA,"","",1,1,"2024-08-23_20h52.31.327","IAT(Formal)","2021.2.3","Win32",59.88023952,"",NA,"",NA,NA,NA,NA,NA,NA,NA,"","","",NA,"i",1,0.6692,0,2,2,30,1,"卑鄙","i","",NA,NA,NA,NA,NA,NA,"",NA,"",NA,NA,NA,NA,NA,NA,NA,"",NA,"",NA,NA,NA,NA,NA,NA,NA,"","","",NA,"",NA,NA,NA,NA,NA,NA,NA,"",NA,"17"
"",NA,"",NA,"",NA,NA,NA,NA,NA,NA,NA,"","",1,1,"2024-08-23_20h52.31.327","IAT(Formal)","2021.2.3","Win32",59.88023952,"",NA,"",NA,NA,NA,NA,NA,NA,NA,"","","",NA,"e",1,0.5534,0,3,3,0,1,"我","e","",NA,NA,NA,NA,NA,NA,"",NA,"",NA,NA,NA,NA,NA,NA,NA,"",NA,"",NA,NA,NA,NA,NA,NA,NA,"","","",NA,"",NA,NA,NA,NA,NA,NA,NA,"",NA,"17"
"",NA,"",NA,"",NA,NA,NA,NA,NA,NA,NA,"","",1,1,"2024-08-23_20h52.31.327","IAT(Formal)","2021.2.3","Win32",59.88023952,"",NA,"",NA,NA,NA,NA,NA,NA,NA,"","","",NA,"e",1,0.5782,0,4,4,3,1,"自己","e","",NA,NA,NA,NA,NA,NA,"",NA,"",NA,NA,NA,NA,NA,NA,NA,"",NA,"",NA,NA,NA,NA,NA,NA,NA,"","","",NA,"",NA,NA,NA,NA,NA,NA,NA,"",NA,"17"
"",NA,"",NA,"",NA,NA,NA,NA,NA,NA,NA,"","",1,1,"2024-08-23_20h52.31.327","IAT(Formal)","2021.2.3","Win32",59.88023952,"",NA,"",NA,NA,NA,NA,NA,NA,NA,"","","",NA,"e",1,0.7941,0,5,5,18,1,"勤奋","e","",NA,NA,NA,NA,NA,NA,"",NA,"",NA,NA,NA,NA,NA,NA,NA,"",NA,"",NA,NA,NA,NA,NA,NA,NA,"","","",NA,"",NA,NA,NA,NA,NA,NA,NA,"",NA,"17"
"",NA,"",NA,"",NA,NA,NA,NA,NA,NA,NA,"","",1,1,"2024-08-23_20h52.31.327","IAT(Formal)","2021.2.3","Win32",59.88023952,"",NA,"",NA,NA,NA,NA,NA,NA,NA,"","","",NA,"e",1,0.5451,0,6,6,53,1,"自己","e","",NA,NA,NA,NA,NA,NA,"",NA,"",NA,NA,NA,NA,NA,NA,NA,"",NA,"",NA,NA,NA,NA,NA,NA,NA,"","","",NA,"",NA,NA,NA,NA,NA,NA,NA,"",NA,"17"
"",NA,"",NA,"",NA,NA,NA,NA,NA,NA,NA,"","",1,1,"2024-08-23_20h52.31.327","IAT(Formal)","2021.2.3","Win32",59.88023952,"",NA,"",NA,NA,NA,NA,NA,NA,NA,"","","",NA,"e",1,0.5859,0,7,7,73,1,"自己","e","",NA,NA,NA,NA,NA,NA,"",NA,"",NA,NA,NA,NA,NA,NA,NA,"",NA,"",NA,NA,NA,NA,NA,NA,NA,"","","",NA,"",NA,NA,NA,NA,NA,NA,NA,"",NA,"17"
"",NA,"",NA,"",NA,NA,NA,NA,NA,NA,NA,"","",1,1,"2024-08-23_20h52.31.327","IAT(Formal)","2021.2.3","Win32",59.88023952,"",NA,"",NA,NA,NA,NA,NA,NA,NA,"","","",NA,"e",1,0.6897,0,8,8,54,1,"俺","e","",NA,NA,NA,NA,NA,NA,"",NA,"",NA,NA,NA,NA,NA,NA,NA,"",NA,"",NA,NA,NA,NA,NA,NA,NA,"","","",NA,"",NA,NA,NA,NA,NA,NA,NA,"",NA,"17"
"",NA,"",NA,"",NA,NA,NA,NA,NA,NA,NA,"","",1,1,"2024-08-23_20h52.31.327","IAT(Formal)","2021.2.3","Win32",59.88023952,"",NA,"",NA,NA,NA,NA,NA,NA,NA,"","","",NA,"i",1,0.7424,0,9,9,7,1,"他的","i","",NA,NA,NA,NA,NA,NA,"",NA,"",NA,NA,NA,NA,NA,NA,NA,"",NA,"",NA,NA,NA,NA,NA,NA,NA,"","","",NA,"",NA,NA,NA,NA,NA,NA,NA,"",NA,"17"
"",NA,"",NA,"",NA,NA,NA,NA,NA,NA,NA,"","",1,1,"2024-08-23_20h52.31.327","IAT(Formal)","2021.2.3","Win32",59.88023952,"",NA,"",NA,NA,NA,NA,NA,NA,NA,"","","",NA,"i",1,0.6329,0,10,10,57,1,"他的","i","",NA,NA,NA,NA,NA,NA,"",NA,"",NA,NA,NA,NA,NA,NA,NA,"",NA,"",NA,NA,NA,NA,NA,NA,NA,"","","",NA,"",NA,NA,NA,NA,NA,NA,NA,"",NA,"17"
"",NA,"",NA,"",NA,NA,NA,NA,NA,NA,NA,"","",1,1,"2024-08-23_20h52.31.327","IAT(Formal)","2021.2.3","Win32",59.88023952,"",NA,"",NA,NA,NA,NA,NA,NA,NA,"","","",NA,"e",1,0.624,0,11,11,64,1,"俺","e","",NA,NA,NA,NA,NA,NA,"",NA,"",NA,NA,NA,NA,NA,NA,NA,"",NA,"",NA,NA,NA,NA,NA,NA,NA,"","","",NA,"",NA,NA,NA,NA,NA,NA,NA,"",NA,"17"
"",NA,"",NA,"",NA,NA,NA,NA,NA,NA,NA,"","",1,1,"2024-08-23_20h52.31.327","IAT(Formal)","2021.2.3","Win32",59.88023952,"",NA,"",NA,NA,NA,NA,NA,NA,NA,"","","",NA,"i",0,0.8932,0,12,12,29,1,"诚恳","e","",NA,NA,NA,NA,NA,NA,"",NA,"",NA,NA,NA,NA,NA,NA,NA,"",NA,"",NA,NA,NA,NA,NA,NA,NA,"","","",NA,"",NA,NA,NA,NA,NA,NA,NA,"",NA,"17"
"",NA,"",NA,"",NA,NA,NA,NA,NA,NA,NA,"","",1,1,"2024-08-23_20h52.31.327","IAT(Formal)","2021.2.3","Win32",59.88023952,"",NA,"",NA,NA,NA,NA,NA,NA,NA,"","","",NA,"i",1,1.1672,0,13,13,39,1,"冒失","i","",NA,NA,NA,NA,NA,NA,"",NA,"",NA,NA,NA,NA,NA,NA,NA,"",NA,"",NA,NA,NA,NA,NA,NA,NA,"","","",NA,"",NA,NA,NA,NA,NA,NA,NA,"",NA,"17"
"",NA,"",NA,"",NA,NA,NA,NA,NA,NA,NA,"","",1,1,"2024-08-23_20h52.31.327","IAT(Formal)","2021.2.3","Win32",59.88023952,"",NA,"",NA,NA,NA,NA,NA,NA,NA,"","","",NA,"e",0,1.034,0,14,14,47,1,"固执","i","",NA,NA,NA,NA,NA,NA,"",NA,"",NA,NA,NA,NA,NA,NA,NA,"",NA,"",NA,NA,NA,NA,NA,NA,NA,"","","",NA,"",NA,NA,NA,NA,NA,NA,NA,"",NA,"17"
"",NA,"",NA,"",NA,NA,NA,NA,NA,NA,NA,"","",1,1,"2024-08-23_20h52.31.327","IAT(Formal)","2021.2.3","Win32",59.88023952,"",NA,"",NA,NA,NA,NA,NA,NA,NA,"","","",NA,"i",1,0.8194,0,15,15,69,1,"其他","i","",NA,NA,NA,NA,NA,NA,"",NA,"",NA,NA,NA,NA,NA,NA,NA,"",NA,"",NA,NA,NA,NA,NA,NA,NA,"","","",NA,"",NA,NA,NA,NA,NA,NA,NA,"",NA,"17"
"",NA,"",NA,"",NA,NA,NA,NA,NA,NA,NA,"","",1,1,"2024-08-23_20h52.31.327","IAT(Formal)","2021.2.3","Win32",59.88023952,"",NA,"",NA,NA,NA,NA,NA,NA,NA,"","","",NA,"i",1,0.6884,0,16,16,49,1,"下贱","i","",NA,NA,NA,NA,NA,NA,"",NA,"",NA,NA,NA,NA,NA,NA,NA,"",NA,"",NA,NA,NA,NA,NA,NA,NA,"","","",NA,"",NA,NA,NA,NA,NA,NA,NA,"",NA,"17"
"",NA,"",NA,"",NA,NA,NA,NA,NA,NA,NA,"","",1,1,"2024-08-23_20h52.31.327","IAT(Formal)","2021.2.3","Win32",59.88023952,"",NA,"",NA,NA,NA,NA,NA,NA,NA,"","","",NA,"e",1,0.6336,0,17,17,50,1,"我","e","",NA,NA,NA,NA,NA,NA,"",NA,"",NA,NA,NA,NA,NA,NA,NA,"",NA,"",NA,NA,NA,NA,NA,NA,NA,"","","",NA,"",NA,NA,NA,NA,NA,NA,NA,"",NA,"17"
"",NA,"",NA,"",NA,NA,NA,NA,NA,NA,NA,"","",1,1,"2024-08-23_20h52.31.327","IAT(Formal)","2021.2.3","Win32",59.88023952,"",NA,"",NA,NA,NA,NA,NA,NA,NA,"","","",NA,"e",1,0.7773,0,18,18,24,1,"朴实","e","",NA,NA,NA,NA,NA,NA,"",NA,"",NA,NA,NA,NA,NA,NA,NA,"",NA,"",NA,NA,NA,NA,NA,NA,NA,"","","",NA,"",NA,NA,NA,NA,NA,NA,NA,"",NA,"17"
"",NA,"",NA,"",NA,NA,NA,NA,NA,NA,NA,"","",1,1,"2024-08-23_20h52.31.327","IAT(Formal)","2021.2.3","Win32",59.88023952,"",NA,"",NA,NA,NA,NA,NA,NA,NA,"","","",NA,"e",0,0.7337,0,19,19,55,1,"他","i","",NA,NA,NA,NA,NA,NA,"",NA,"",NA,NA,NA,NA,NA,NA,NA,"",NA,"",NA,NA,NA,NA,NA,NA,NA,"","","",NA,"",NA,NA,NA,NA,NA,NA,NA,"",NA,"17"
"",NA,"",NA,"",NA,NA,NA,NA,NA,NA,NA,"","",1,1,"2024-08-23_20h52.31.327","IAT(Formal)","2021.2.3","Win32",59.88023952,"",NA,"",NA,NA,NA,NA,NA,NA,NA,"","","",NA,"i",1,0.6618,0,20,20,68,1,"他人","i","",NA,NA,NA,NA,NA,NA,"",NA,"",NA,NA,NA,NA,NA,NA,NA,"",NA,"",NA,NA,NA,NA,NA,NA,NA,"","","",NA,"",NA,NA,NA,NA,NA,NA,NA,"",NA,"17"
"",NA,"",NA,"",NA,NA,NA,NA,NA,NA,NA,"","",1,1,"2024-08-23_20h52.31.327","IAT(Formal)","2021.2.3","Win32",59.88023952,"",NA,"",NA,NA,NA,NA,NA,NA,NA,"","","",NA,"e",1,0.6515,0,21,21,26,1,"冷静","e","",NA,NA,NA,NA,NA,NA,"",NA,"",NA,NA,NA,NA,NA,NA,NA,"",NA,"",NA,NA,NA,NA,NA,NA,NA,"","","",NA,"",NA,NA,NA,NA,NA,NA,NA,"",NA,"17"
"",NA,"",NA,"",NA,NA,NA,NA,NA,NA,NA,"","",1,1,"2024-08-23_20h52.31.327","IAT(Formal)","2021.2.3","Win32",59.88023952,"",NA,"",NA,NA,NA,NA,NA,NA,NA,"","","",NA,"e",1,0.5427,0,22,22,10,1,"优秀","e","",NA,NA,NA,NA,NA,NA,"",NA,"",NA,NA,NA,NA,NA,NA,NA,"",NA,"",NA,NA,NA,NA,NA,NA,NA,"","","",NA,"",NA,NA,NA,NA,NA,NA,NA,"",NA,"17"
"",NA,"",NA,"",NA,NA,NA,NA,NA,NA,NA,"","",1,1,"2024-08-23_20h52.31.327","IAT(Formal)","2021.2.3","Win32",59.88023952,"",NA,"",NA,NA,NA,NA,NA,NA,NA,"","","",NA,"e",1,0.5013,0,23,23,16,1,"正直","e","",NA,NA,NA,NA,NA,NA,"",NA,"",NA,NA,NA,NA,NA,NA,NA,"",NA,"",NA,NA,NA,NA,NA,NA,NA,"","","",NA,"",NA,NA,NA,NA,NA,NA,NA,"",NA,"17"
"",NA,"",NA,"",NA,NA,NA,NA,NA,NA,NA,"","",1,1,"2024-08-23_20h52.31.327","IAT(Formal)","2021.2.3","Win32",59.88023952,"",NA,"",NA,NA,NA,NA,NA,NA,NA,"","","",NA,"i",1,0.6891,0,24,24,40,1,"执拗","i","",NA,NA,NA,NA,NA,NA,"",NA,"",NA,NA,NA,NA,NA,NA,NA,"",NA,"",NA,NA,NA,NA,NA,NA,NA,"","","",NA,"",NA,NA,NA,NA,NA,NA,NA,"",NA,"17"
"",NA,"",NA,"",NA,NA,NA,NA,NA,NA,NA,"","",1,1,"2024-08-23_20h52.31.327","IAT(Formal)","2021.2.3","Win32",59.88023952,"",NA,"",NA,NA,NA,NA,NA,NA,NA,"","","",NA,"i",1,0.619,0,25,25,37,1,"傲慢","i","",NA,NA,NA,NA,NA,NA,"",NA,"",NA,NA,NA,NA,NA,NA,NA,"",NA,"",NA,NA,NA,NA,NA,NA,NA,"","","",NA,"",NA,NA,NA,NA,NA,NA,NA,"",NA,"17"
"",NA,"",NA,"",NA,NA,NA,NA,NA,NA,NA,"","",1,1,"2024-08-23_20h52.31.327","IAT(Formal)","2021.2.3","Win32",59.88023952,"",NA,"",NA,NA,NA,NA,NA,NA,NA,"","","",NA,"i",1,0.6415,0,26,26,75,1,"他","i","",NA,NA,NA,NA,NA,NA,"",NA,"",NA,NA,NA,NA,NA,NA,NA,"",NA,"",NA,NA,NA,NA,NA,NA,NA,"","","",NA,"",NA,NA,NA,NA,NA,NA,NA,"",NA,"17"
"",NA,"",NA,"",NA,NA,NA,NA,NA,NA,NA,"","",1,1,"2024-08-23_20h52.31.327","IAT(Formal)","2021.2.3","Win32",59.88023952,"",NA,"",NA,NA,NA,NA,NA,NA,NA,"","","",NA,"e",1,0.611,0,27,27,61,1,"我的","e","",NA,NA,NA,NA,NA,NA,"",NA,"",NA,NA,NA,NA,NA,NA,NA,"",NA,"",NA,NA,NA,NA,NA,NA,NA,"","","",NA,"",NA,NA,NA,NA,NA,NA,NA,"",NA,"17"
"",NA,"",NA,"",NA,NA,NA,NA,NA,NA,NA,"","",1,1,"2024-08-23_20h52.31.327","IAT(Formal)","2021.2.3","Win32",59.88023952,"",NA,"",NA,NA,NA,NA,NA,NA,NA,"","","",NA,"i",1,0.9368,0,28,28,43,1,"自私","i","",NA,NA,NA,NA,NA,NA,"",NA,"",NA,NA,NA,NA,NA,NA,NA,"",NA,"",NA,NA,NA,NA,NA,NA,NA,"","","",NA,"",NA,NA,NA,NA,NA,NA,NA,"",NA,"17"
"",NA,"",NA,"",NA,NA,NA,NA,NA,NA,NA,"","",1,1,"2024-08-23_20h52.31.327","IAT(Formal)","2021.2.3","Win32",59.88023952,"",NA,"",NA,NA,NA,NA,NA,NA,NA,"","","",NA,"e",1,0.8671,0,29,29,11,1,"崇高","e","",NA,NA,NA,NA,NA,NA,"",NA,"",NA,NA,NA,NA,NA,NA,NA,"",NA,"",NA,NA,NA,NA,NA,NA,NA,"","","",NA,"",NA,NA,NA,NA,NA,NA,NA,"",NA,"17"
"",NA,"",NA,"",NA,NA,NA,NA,NA,NA,NA,"","",1,1,"2024-08-23_20h52.31.327","IAT(Formal)","2021.2.3","Win32",59.88023952,"",NA,"",NA,NA,NA,NA,NA,NA,NA,"","","",NA,"i",1,1.046,0,30,30,41,1,"散漫","i","",NA,NA,NA,NA,NA,NA,"",NA,"",NA,NA,NA,NA,NA,NA,NA,"",NA,"",NA,NA,NA,NA,NA,NA,NA,"","","",NA,"",NA,NA,NA,NA,NA,NA,NA,"",NA,"17"
"",NA,"",NA,"",NA,NA,NA,NA,NA,NA,NA,"","",1,1,"2024-08-23_20h52.31.327","IAT(Formal)","2021.2.3","Win32",59.88023952,"",NA,"",NA,NA,NA,NA,NA,NA,NA,"","","",NA,"e",1,0.6064,0,31,31,70,1,"我","e","",NA,NA,NA,NA,NA,NA,"",NA,"",NA,NA,NA,NA,NA,NA,NA,"",NA,"",NA,NA,NA,NA,NA,NA,NA,"","","",NA,"",NA,NA,NA,NA,NA,NA,NA,"",NA,"17"
"",NA,"",NA,"",NA,NA,NA,NA,NA,NA,NA,"","",1,1,"2024-08-23_20h52.31.327","IAT(Formal)","2021.2.3","Win32",59.88023952,"",NA,"",NA,NA,NA,NA,NA,NA,NA,"","","",NA,"i",1,0.5721,0,32,32,32,1,"愚蠢","i","",NA,NA,NA,NA,NA,NA,"",NA,"",NA,NA,NA,NA,NA,NA,NA,"",NA,"",NA,NA,NA,NA,NA,NA,NA,"","","",NA,"",NA,NA,NA,NA,NA,NA,NA,"",NA,"17"
"",NA,"",NA,"",NA,NA,NA,NA,NA,NA,NA,"","",1,1,"2024-08-23_20h52.31.327","IAT(Formal)","2021.2.3","Win32",59.88023952,"",NA,"",NA,NA,NA,NA,NA,NA,NA,"","","",NA,"e",1,0.6944,0,33,33,20,1,"认真","e","",NA,NA,NA,NA,NA,NA,"",NA,"",NA,NA,NA,NA,NA,NA,NA,"",NA,"",NA,NA,NA,NA,NA,NA,NA,"","","",NA,"",NA,NA,NA,NA,NA,NA,NA,"",NA,"17"
"",NA,"",NA,"",NA,NA,NA,NA,NA,NA,NA,"","",1,1,"2024-08-23_20h52.31.327","IAT(Formal)","2021.2.3","Win32",59.88023952,"",NA,"",NA,NA,NA,NA,NA,NA,NA,"","","",NA,"e",1,0.4346,0,34,34,63,1,"自己","e","",NA,NA,NA,NA,NA,NA,"",NA,"",NA,NA,NA,NA,NA,NA,NA,"",NA,"",NA,NA,NA,NA,NA,NA,NA,"","","",NA,"",NA,NA,NA,NA,NA,NA,NA,"",NA,"17"
"",NA,"",NA,"",NA,NA,NA,NA,NA,NA,NA,"","",1,1,"2024-08-23_20h52.31.327","IAT(Formal)","2021.2.3","Win32",59.88023952,"",NA,"",NA,NA,NA,NA,NA,NA,NA,"","","",NA,"i",1,0.5589,0,35,35,31,1,"虚伪","i","",NA,NA,NA,NA,NA,NA,"",NA,"",NA,NA,NA,NA,NA,NA,NA,"",NA,"",NA,NA,NA,NA,NA,NA,NA,"","","",NA,"",NA,NA,NA,NA,NA,NA,NA,"",NA,"17"
"",NA,"",NA,"",NA,NA,NA,NA,NA,NA,NA,"","",1,1,"2024-08-23_20h52.31.327","IAT(Formal)","2021.2.3","Win32",59.88023952,"",NA,"",NA,NA,NA,NA,NA,NA,NA,"","","",NA,"i",1,0.5588,0,36,36,9,1,"其他","i","",NA,NA,NA,NA,NA,NA,"",NA,"",NA,NA,NA,NA,NA,NA,NA,"",NA,"",NA,NA,NA,NA,NA,NA,NA,"","","",NA,"",NA,NA,NA,NA,NA,NA,NA,"",NA,"17"
"",NA,"",NA,"",NA,NA,NA,NA,NA,NA,NA,"","",1,1,"2024-08-23_20h52.31.327","IAT(Formal)","2021.2.3","Win32",59.88023952,"",NA,"",NA,NA,NA,NA,NA,NA,NA,"","","",NA,"e",1,0.5079,0,37,37,2,1,"我们","e","",NA,NA,NA,NA,NA,NA,"",NA,"",NA,NA,NA,NA,NA,NA,NA,"",NA,"",NA,NA,NA,NA,NA,NA,NA,"","","",NA,"",NA,NA,NA,NA,NA,NA,NA,"",NA,"17"
"",NA,"",NA,"",NA,NA,NA,NA,NA,NA,NA,"","",1,1,"2024-08-23_20h52.31.327","IAT(Formal)","2021.2.3","Win32",59.88023952,"",NA,"",NA,NA,NA,NA,NA,NA,NA,"","","",NA,"i",1,0.5688,0,38,38,33,1,"刻薄","i","",NA,NA,NA,NA,NA,NA,"",NA,"",NA,NA,NA,NA,NA,NA,NA,"",NA,"",NA,NA,NA,NA,NA,NA,NA,"","","",NA,"",NA,NA,NA,NA,NA,NA,NA,"",NA,"17"
"",NA,"",NA,"",NA,NA,NA,NA,NA,NA,NA,"","",1,1,"2024-08-23_20h52.31.327","IAT(Formal)","2021.2.3","Win32",59.88023952,"",NA,"",NA,NA,NA,NA,NA,NA,NA,"","","",NA,"e",1,0.5673,0,39,39,74,1,"俺","e","",NA,NA,NA,NA,NA,NA,"",NA,"",NA,NA,NA,NA,NA,NA,NA,"",NA,"",NA,NA,NA,NA,NA,NA,NA,"","","",NA,"",NA,NA,NA,NA,NA,NA,NA,"",NA,"17"
"",NA,"",NA,"",NA,NA,NA,NA,NA,NA,NA,"","",1,1,"2024-08-23_20h52.31.327","IAT(Formal)","2021.2.3","Win32",59.88023952,"",NA,"",NA,NA,NA,NA,NA,NA,NA,"","","",NA,"i",1,0.5697,0,40,40,35,1,"消极","i","",NA,NA,NA,NA,NA,NA,"",NA,"",NA,NA,NA,NA,NA,NA,NA,"",NA,"",NA,NA,NA,NA,NA,NA,NA,"","","",NA,"",NA,NA,NA,NA,NA,NA,NA,"",NA,"17"
"",NA,"",NA,"",NA,NA,NA,NA,NA,NA,NA,"","",1,1,"2024-08-23_20h52.31.327","IAT(Formal)","2021.2.3","Win32",59.88023952,"",NA,"",NA,NA,NA,NA,NA,NA,NA,"","","",NA,"e",1,0.5364,0,41,41,21,1,"稳重","e","",NA,NA,NA,NA,NA,NA,"",NA,"",NA,NA,NA,NA,NA,NA,NA,"",NA,"",NA,NA,NA,NA,NA,NA,NA,"","","",NA,"",NA,NA,NA,NA,NA,NA,NA,"",NA,"17"
"",NA,"",NA,"",NA,NA,NA,NA,NA,NA,NA,"","",1,1,"2024-08-23_20h52.31.327","IAT(Formal)","2021.2.3","Win32",59.88023952,"",NA,"",NA,NA,NA,NA,NA,NA,NA,"","","",NA,"e",1,0.6273,0,42,42,19,1,"机智","e","",NA,NA,NA,NA,NA,NA,"",NA,"",NA,NA,NA,NA,NA,NA,NA,"",NA,"",NA,NA,NA,NA,NA,NA,NA,"","","",NA,"",NA,NA,NA,NA,NA,NA,NA,"",NA,"17"
"",NA,"",NA,"",NA,NA,NA,NA,NA,NA,NA,"","",1,1,"2024-08-23_20h52.31.327","IAT(Formal)","2021.2.3","Win32",59.88023952,"",NA,"",NA,NA,NA,NA,NA,NA,NA,"","","",NA,"i",1,0.5833,0,43,43,46,1,"野蛮","i","",NA,NA,NA,NA,NA,NA,"",NA,"",NA,NA,NA,NA,NA,NA,NA,"",NA,"",NA,NA,NA,NA,NA,NA,NA,"","","",NA,"",NA,NA,NA,NA,NA,NA,NA,"",NA,"17"
"",NA,"",NA,"",NA,NA,NA,NA,NA,NA,NA,"","",1,1,"2024-08-23_20h52.31.327","IAT(Formal)","2021.2.3","Win32",59.88023952,"",NA,"",NA,NA,NA,NA,NA,NA,NA,"","","",NA,"e",0,0.5458,0,44,44,5,1,"他","i","",NA,NA,NA,NA,NA,NA,"",NA,"",NA,NA,NA,NA,NA,NA,NA,"",NA,"",NA,NA,NA,NA,NA,NA,NA,"","","",NA,"",NA,NA,NA,NA,NA,NA,NA,"",NA,"17"
"",NA,"",NA,"",NA,NA,NA,NA,NA,NA,NA,"","",1,1,"2024-08-23_20h52.31.327","IAT(Formal)","2021.2.3","Win32",59.88023952,"",NA,"",NA,NA,NA,NA,NA,NA,NA,"","","",NA,"e",1,0.6207,0,45,45,13,1,"杰出","e","",NA,NA,NA,NA,NA,NA,"",NA,"",NA,NA,NA,NA,NA,NA,NA,"",NA,"",NA,NA,NA,NA,NA,NA,NA,"","","",NA,"",NA,NA,NA,NA,NA,NA,NA,"",NA,"17"
"",NA,"",NA,"",NA,NA,NA,NA,NA,NA,NA,"","",1,1,"2024-08-23_20h52.31.327","IAT(Formal)","2021.2.3","Win32",59.88023952,"",NA,"",NA,NA,NA,NA,NA,NA,NA,"","","",NA,"e",1,0.8837,0,46,46,22,1,"无私","e","",NA,NA,NA,NA,NA,NA,"",NA,"",NA,NA,NA,NA,NA,NA,NA,"",NA,"",NA,NA,NA,NA,NA,NA,NA,"","","",NA,"",NA,NA,NA,NA,NA,NA,NA,"",NA,"17"
"",NA,"",NA,"",NA,NA,NA,NA,NA,NA,NA,"","",1,1,"2024-08-23_20h52.31.327","IAT(Formal)","2021.2.3","Win32",59.88023952,"",NA,"",NA,NA,NA,NA,NA,NA,NA,"","","",NA,"e",1,0.6735,0,47,47,28,1,"活泼","e","",NA,NA,NA,NA,NA,NA,"",NA,"",NA,NA,NA,NA,NA,NA,NA,"",NA,"",NA,NA,NA,NA,NA,NA,NA,"","","",NA,"",NA,NA,NA,NA,NA,NA,NA,"",NA,"17"
"",NA,"",NA,"",NA,NA,NA,NA,NA,NA,NA,"","",1,1,"2024-08-23_20h52.31.327","IAT(Formal)","2021.2.3","Win32",59.88023952,"",NA,"",NA,NA,NA,NA,NA,NA,NA,"","","",NA,"e",0,0.544,0,48,48,76,1,"他们","i","",NA,NA,NA,NA,NA,NA,"",NA,"",NA,NA,NA,NA,NA,NA,NA,"",NA,"",NA,NA,NA,NA,NA,NA,NA,"","","",NA,"",NA,NA,NA,NA,NA,NA,NA,"",NA,"17"
"",NA,"",NA,"",NA,NA,NA,NA,NA,NA,NA,"","",1,1,"2024-08-23_20h52.31.327","IAT(Formal)","2021.2.3","Win32",59.88023952,"",NA,"",NA,NA,NA,NA,NA,NA,NA,"","","",NA,"i",1,0.5564,0,49,49,65,1,"他","i","",NA,NA,NA,NA,NA,NA,"",NA,"",NA,NA,NA,NA,NA,NA,NA,"",NA,"",NA,NA,NA,NA,NA,NA,NA,"","","",NA,"",NA,NA,NA,NA,NA,NA,NA,"",NA,"17"
"",NA,"",NA,"",NA,NA,NA,NA,NA,NA,NA,"","",1,1,"2024-08-23_20h52.31.327","IAT(Formal)","2021.2.3","Win32",59.88023952,"",NA,"",NA,NA,NA,NA,NA,NA,NA,"","","",NA,"i",1,0.5412,0,50,50,77,1,"他的","i","",NA,NA,NA,NA,NA,NA,"",NA,"",NA,NA,NA,NA,NA,NA,NA,"",NA,"",NA,NA,NA,NA,NA,NA,NA,"","","",NA,"",NA,NA,NA,NA,NA,NA,NA,"",NA,"17"
"",NA,"",NA,"",NA,NA,NA,NA,NA,NA,NA,"","",1,1,"2024-08-23_20h52.31.327","IAT(Formal)","2021.2.3","Win32",59.88023952,"",NA,"",NA,NA,NA,NA,NA,NA,NA,"","","",NA,"e",1,0.5368,0,51,51,72,1,"我们","e","",NA,NA,NA,NA,NA,NA,"",NA,"",NA,NA,NA,NA,NA,NA,NA,"",NA,"",NA,NA,NA,NA,NA,NA,NA,"","","",NA,"",NA,NA,NA,NA,NA,NA,NA,"",NA,"17"
"",NA,"",NA,"",NA,NA,NA,NA,NA,NA,NA,"","",1,1,"2024-08-23_20h52.31.327","IAT(Formal)","2021.2.3","Win32",59.88023952,"",NA,"",NA,NA,NA,NA,NA,NA,NA,"","","",NA,"i",1,0.4631,0,52,52,8,1,"他人","i","",NA,NA,NA,NA,NA,NA,"",NA,"",NA,NA,NA,NA,NA,NA,NA,"",NA,"",NA,NA,NA,NA,NA,NA,NA,"","","",NA,"",NA,NA,NA,NA,NA,NA,NA,"",NA,"17"
"",NA,"",NA,"",NA,NA,NA,NA,NA,NA,NA,"","",1,1,"2024-08-23_20h52.31.327","IAT(Formal)","2021.2.3","Win32",59.88023952,"",NA,"",NA,NA,NA,NA,NA,NA,NA,"","","",NA,"i",1,0.6192,0,53,53,44,1,"暴躁","i","",NA,NA,NA,NA,NA,NA,"",NA,"",NA,NA,NA,NA,NA,NA,NA,"",NA,"",NA,NA,NA,NA,NA,NA,NA,"","","",NA,"",NA,NA,NA,NA,NA,NA,NA,"",NA,"17"
"",NA,"",NA,"",NA,NA,NA,NA,NA,NA,NA,"","",1,1,"2024-08-23_20h52.31.327","IAT(Formal)","2021.2.3","Win32",59.88023952,"",NA,"",NA,NA,NA,NA,NA,NA,NA,"","","",NA,"e",1,0.6365,0,54,54,1,1,"我的","e","",NA,NA,NA,NA,NA,NA,"",NA,"",NA,NA,NA,NA,NA,NA,NA,"",NA,"",NA,NA,NA,NA,NA,NA,NA,"","","",NA,"",NA,NA,NA,NA,NA,NA,NA,"",NA,"17"
"",NA,"",NA,"",NA,NA,NA,NA,NA,NA,NA,"","",1,1,"2024-08-23_20h52.31.327","IAT(Formal)","2021.2.3","Win32",59.88023952,"",NA,"",NA,NA,NA,NA,NA,NA,NA,"","","",NA,"i",1,0.5335,0,55,55,56,1,"他们","i","",NA,NA,NA,NA,NA,NA,"",NA,"",NA,NA,NA,NA,NA,NA,NA,"",NA,"",NA,NA,NA,NA,NA,NA,NA,"","","",NA,"",NA,NA,NA,NA,NA,NA,NA,"",NA,"17"
"",NA,"",NA,"",NA,NA,NA,NA,NA,NA,NA,"","",1,1,"2024-08-23_20h52.31.327","IAT(Formal)","2021.2.3","Win32",59.88023952,"",NA,"",NA,NA,NA,NA,NA,NA,NA,"","","",NA,"e",1,0.7422,0,56,56,17,1,"勇敢","e","",NA,NA,NA,NA,NA,NA,"",NA,"",NA,NA,NA,NA,NA,NA,NA,"",NA,"",NA,NA,NA,NA,NA,NA,NA,"","","",NA,"",NA,NA,NA,NA,NA,NA,NA,"",NA,"17"
"",NA,"",NA,"",NA,NA,NA,NA,NA,NA,NA,"","",1,1,"2024-08-23_20h52.31.327","IAT(Formal)","2021.2.3","Win32",59.88023952,"",NA,"",NA,NA,NA,NA,NA,NA,NA,"","","",NA,"e",1,0.6179,0,57,57,12,1,"聪明","e","",NA,NA,NA,NA,NA,NA,"",NA,"",NA,NA,NA,NA,NA,NA,NA,"",NA,"",NA,NA,NA,NA,NA,NA,NA,"","","",NA,"",NA,NA,NA,NA,NA,NA,NA,"",NA,"17"
"",NA,"",NA,"",NA,NA,NA,NA,NA,NA,NA,"","",1,1,"2024-08-23_20h52.31.327","IAT(Formal)","2021.2.3","Win32",59.88023952,"",NA,"",NA,NA,NA,NA,NA,NA,NA,"","","",NA,"i",1,1.0267,0,58,58,66,1,"他们","i","",NA,NA,NA,NA,NA,NA,"",NA,"",NA,NA,NA,NA,NA,NA,NA,"",NA,"",NA,NA,NA,NA,NA,NA,NA,"","","",NA,"",NA,NA,NA,NA,NA,NA,NA,"",NA,"17"
"",NA,"",NA,"",NA,NA,NA,NA,NA,NA,NA,"","",1,1,"2024-08-23_20h52.31.327","IAT(Formal)","2021.2.3","Win32",59.88023952,"",NA,"",NA,NA,NA,NA,NA,NA,NA,"","","",NA,"i",1,0.7097,0,59,59,48,1,"轻率","i","",NA,NA,NA,NA,NA,NA,"",NA,"",NA,NA,NA,NA,NA,NA,NA,"",NA,"",NA,NA,NA,NA,NA,NA,NA,"","","",NA,"",NA,NA,NA,NA,NA,NA,NA,"",NA,"17"
"",NA,"",NA,"",NA,NA,NA,NA,NA,NA,NA,"","",1,1,"2024-08-23_20h52.31.327","IAT(Formal)","2021.2.3","Win32",59.88023952,"",NA,"",NA,NA,NA,NA,NA,NA,NA,"","","",NA,"i",1,0.6841,0,60,60,45,1,"猖狂","i","",NA,NA,NA,NA,NA,NA,"",NA,"",NA,NA,NA,NA,NA,NA,NA,"",NA,"",NA,NA,NA,NA,NA,NA,NA,"","","",NA,"",NA,NA,NA,NA,NA,NA,NA,"",NA,"17"
"",NA,"",NA,"",NA,NA,NA,NA,NA,NA,NA,"","",1,1,"2024-08-23_20h52.31.327","IAT(Formal)","2021.2.3","Win32",59.88023952,"",NA,"",NA,NA,NA,NA,NA,NA,NA,"","","",NA,"e",1,0.5955,0,61,61,15,1,"诚实","e","",NA,NA,NA,NA,NA,NA,"",NA,"",NA,NA,NA,NA,NA,NA,NA,"",NA,"",NA,NA,NA,NA,NA,NA,NA,"","","",NA,"",NA,NA,NA,NA,NA,NA,NA,"",NA,"17"
"",NA,"",NA,"",NA,NA,NA,NA,NA,NA,NA,"","",1,1,"2024-08-23_20h52.31.327","IAT(Formal)","2021.2.3","Win32",59.88023952,"",NA,"",NA,NA,NA,NA,NA,NA,NA,"","","",NA,"e",1,0.7384,0,62,62,27,1,"热情","e","",NA,NA,NA,NA,NA,NA,"",NA,"",NA,NA,NA,NA,NA,NA,NA,"",NA,"",NA,NA,NA,NA,NA,NA,NA,"","","",NA,"",NA,NA,NA,NA,NA,NA,NA,"",NA,"17"
"",NA,"",NA,"",NA,NA,NA,NA,NA,NA,NA,"","",1,1,"2024-08-23_20h52.31.327","IAT(Formal)","2021.2.3","Win32",59.88023952,"",NA,"",NA,NA,NA,NA,NA,NA,NA,"","","",NA,"i",1,0.7219,0,63,63,42,1,"凶狠","i","",NA,NA,NA,NA,NA,NA,"",NA,"",NA,NA,NA,NA,NA,NA,NA,"",NA,"",NA,NA,NA,NA,NA,NA,NA,"","","",NA,"",NA,NA,NA,NA,NA,NA,NA,"",NA,"17"
"",NA,"",NA,"",NA,NA,NA,NA,NA,NA,NA,"","",1,1,"2024-08-23_20h52.31.327","IAT(Formal)","2021.2.3","Win32",59.88023952,"",NA,"",NA,NA,NA,NA,NA,NA,NA,"","","",NA,"e",1,0.4894,0,64,64,23,1,"公正","e","",NA,NA,NA,NA,NA,NA,"",NA,"",NA,NA,NA,NA,NA,NA,NA,"",NA,"",NA,NA,NA,NA,NA,NA,NA,"","","",NA,"",NA,NA,NA,NA,NA,NA,NA,"",NA,"17"
"",NA,"",NA,"",NA,NA,NA,NA,NA,NA,NA,"","",1,1,"2024-08-23_20h52.31.327","IAT(Formal)","2021.2.3","Win32",59.88023952,"",NA,"",NA,NA,NA,NA,NA,NA,NA,"","","",NA,"i",1,1.1335,0,65,65,36,1,"自卑","i","",NA,NA,NA,NA,NA,NA,"",NA,"",NA,NA,NA,NA,NA,NA,NA,"",NA,"",NA,NA,NA,NA,NA,NA,NA,"","","",NA,"",NA,NA,NA,NA,NA,NA,NA,"",NA,"17"
"",NA,"",NA,"",NA,NA,NA,NA,NA,NA,NA,"","",1,1,"2024-08-23_20h52.31.327","IAT(Formal)","2021.2.3","Win32",59.88023952,"",NA,"",NA,NA,NA,NA,NA,NA,NA,"","","",NA,"i",1,0.9226,0,66,66,58,1,"他人","i","",NA,NA,NA,NA,NA,NA,"",NA,"",NA,NA,NA,NA,NA,NA,NA,"",NA,"",NA,NA,NA,NA,NA,NA,NA,"","","",NA,"",NA,NA,NA,NA,NA,NA,NA,"",NA,"17"
"",NA,"",NA,"",NA,NA,NA,NA,NA,NA,NA,"","",1,1,"2024-08-23_20h52.31.327","IAT(Formal)","2021.2.3","Win32",59.88023952,"",NA,"",NA,NA,NA,NA,NA,NA,NA,"","","",NA,"i",1,0.6928,0,67,67,6,1,"他们","i","",NA,NA,NA,NA,NA,NA,"",NA,"",NA,NA,NA,NA,NA,NA,NA,"",NA,"",NA,NA,NA,NA,NA,NA,NA,"","","",NA,"",NA,NA,NA,NA,NA,NA,NA,"",NA,"17"
"",NA,"",NA,"",NA,NA,NA,NA,NA,NA,NA,"","",1,1,"2024-08-23_20h52.31.327","IAT(Formal)","2021.2.3","Win32",59.88023952,"",NA,"",NA,NA,NA,NA,NA,NA,NA,"","","",NA,"e",1,0.7436,0,68,68,14,1,"乐观","e","",NA,NA,NA,NA,NA,NA,"",NA,"",NA,NA,NA,NA,NA,NA,NA,"",NA,"",NA,NA,NA,NA,NA,NA,NA,"","","",NA,"",NA,NA,NA,NA,NA,NA,NA,"",NA,"17"
"",NA,"",NA,"",NA,NA,NA,NA,NA,NA,NA,"","",1,1,"2024-08-23_20h52.31.327","IAT(Formal)","2021.2.3","Win32",59.88023952,"",NA,"",NA,NA,NA,NA,NA,NA,NA,"","","",NA,"e",1,0.745,0,69,69,4,1,"俺","e","",NA,NA,NA,NA,NA,NA,"",NA,"",NA,NA,NA,NA,NA,NA,NA,"",NA,"",NA,NA,NA,NA,NA,NA,NA,"","","",NA,"",NA,NA,NA,NA,NA,NA,NA,"",NA,"17"
"",NA,"",NA,"",NA,NA,NA,NA,NA,NA,NA,"","",1,1,"2024-08-23_20h52.31.327","IAT(Formal)","2021.2.3","Win32",59.88023952,"",NA,"",NA,NA,NA,NA,NA,NA,NA,"","","",NA,"i",1,0.5172,0,70,70,67,1,"他的","i","",NA,NA,NA,NA,NA,NA,"",NA,"",NA,NA,NA,NA,NA,NA,NA,"",NA,"",NA,NA,NA,NA,NA,NA,NA,"","","",NA,"",NA,NA,NA,NA,NA,NA,NA,"",NA,"17"
"",NA,"",NA,"",NA,NA,NA,NA,NA,NA,NA,"","",1,1,"2024-08-23_20h52.31.327","IAT(Formal)","2021.2.3","Win32",59.88023952,"",NA,"",NA,NA,NA,NA,NA,NA,NA,"","","",NA,"i",1,0.5962,0,71,71,38,1,"鲁莽","i","",NA,NA,NA,NA,NA,NA,"",NA,"",NA,NA,NA,NA,NA,NA,NA,"",NA,"",NA,NA,NA,NA,NA,NA,NA,"","","",NA,"",NA,NA,NA,NA,NA,NA,NA,"",NA,"17"
"",NA,"",NA,"",NA,NA,NA,NA,NA,NA,NA,"","",1,1,"2024-08-23_20h52.31.327","IAT(Formal)","2021.2.3","Win32",59.88023952,"",NA,"",NA,NA,NA,NA,NA,NA,NA,"","","",NA,"e",1,0.5369,0,72,72,52,1,"我们","e","",NA,NA,NA,NA,NA,NA,"",NA,"",NA,NA,NA,NA,NA,NA,NA,"",NA,"",NA,NA,NA,NA,NA,NA,NA,"","","",NA,"",NA,NA,NA,NA,NA,NA,NA,"",NA,"17"
"",NA,"",NA,"",NA,NA,NA,NA,NA,NA,NA,"","",1,1,"2024-08-23_20h52.31.327","IAT(Formal)","2021.2.3","Win32",59.88023952,"",NA,"",NA,NA,NA,NA,NA,NA,NA,"","","",NA,"e",1,0.6779,0,73,73,62,1,"我们","e","",NA,NA,NA,NA,NA,NA,"",NA,"",NA,NA,NA,NA,NA,NA,NA,"",NA,"",NA,NA,NA,NA,NA,NA,NA,"","","",NA,"",NA,NA,NA,NA,NA,NA,NA,"",NA,"17"
"",NA,"",NA,"",NA,NA,NA,NA,NA,NA,NA,"","",1,1,"2024-08-23_20h52.31.327","IAT(Formal)","2021.2.3","Win32",59.88023952,"",NA,"",NA,NA,NA,NA,NA,NA,NA,"","","",NA,"",0,NA,0,74,74,51,1,"我的","e","",NA,NA,NA,NA,NA,NA,"",NA,"",NA,NA,NA,NA,NA,NA,NA,"",NA,"",NA,NA,NA,NA,NA,NA,NA,"","","",NA,"",NA,NA,NA,NA,NA,NA,NA,"",NA,"17"
"",NA,"",NA,"",NA,NA,NA,NA,NA,NA,NA,"","",1,1,"2024-08-23_20h52.31.327","IAT(Formal)","2021.2.3","Win32",59.88023952,"",NA,"",NA,NA,NA,NA,NA,NA,NA,"","","",NA,"i",1,1.4253,0,75,75,78,1,"他人","i","",NA,NA,NA,NA,NA,NA,"",NA,"",NA,NA,NA,NA,NA,NA,NA,"",NA,"",NA,NA,NA,NA,NA,NA,NA,"","","",NA,"",NA,NA,NA,NA,NA,NA,NA,"",NA,"17"
"",NA,"",NA,"",NA,NA,NA,NA,NA,NA,NA,"","",1,1,"2024-08-23_20h52.31.327","IAT(Formal)","2021.2.3","Win32",59.88023952,"",NA,"",NA,NA,NA,NA,NA,NA,NA,"","","",NA,"e",1,0.5522,0,76,76,60,1,"我","e","",NA,NA,NA,NA,NA,NA,"",NA,"",NA,NA,NA,NA,NA,NA,NA,"",NA,"",NA,NA,NA,NA,NA,NA,NA,"","","",NA,"",NA,NA,NA,NA,NA,NA,NA,"",NA,"17"
"",NA,"",NA,"",NA,NA,NA,NA,NA,NA,NA,"","",1,1,"2024-08-23_20h52.31.327","IAT(Formal)","2021.2.3","Win32",59.88023952,"",NA,"",NA,NA,NA,NA,NA,NA,NA,"","","",NA,"e",1,0.8279,0,77,77,25,1,"细腻","e","",NA,NA,NA,NA,NA,NA,"",NA,"",NA,NA,NA,NA,NA,NA,NA,"",NA,"",NA,NA,NA,NA,NA,NA,NA,"","","",NA,"",NA,NA,NA,NA,NA,NA,NA,"",NA,"17"
"",NA,"",NA,"",NA,NA,NA,NA,NA,NA,NA,"","",1,1,"2024-08-23_20h52.31.327","IAT(Formal)","2021.2.3","Win32",59.88023952,"",NA,"",NA,NA,NA,NA,NA,NA,NA,"","","",NA,"i",1,0.48,0,78,78,79,1,"其他","i","",NA,NA,NA,NA,NA,NA,"",NA,"",NA,NA,NA,NA,NA,NA,NA,"",NA,"",NA,NA,NA,NA,NA,NA,NA,"","","",NA,"",NA,NA,NA,NA,NA,NA,NA,"",NA,"17"
"",NA,"",NA,"",NA,NA,NA,NA,NA,NA,NA,"","",1,1,"2024-08-23_20h52.31.327","IAT(Formal)","2021.2.3","Win32",59.88023952,"",NA,"",NA,NA,NA,NA,NA,NA,NA,"","","",NA,"i",1,0.817,0,79,79,34,1,"悲观","i","",NA,NA,NA,NA,NA,NA,"",NA,"",NA,NA,NA,NA,NA,NA,NA,"",NA,"",NA,NA,NA,NA,NA,NA,NA,"","","",NA,"",NA,NA,NA,NA,NA,NA,NA,"",NA,"17"
"",NA,"",NA,"",NA,NA,NA,NA,NA,NA,NA,"","",1,1,"2024-08-23_20h52.31.327","IAT(Formal)","2021.2.3","Win32",59.88023952,"",NA,"",NA,NA,NA,NA,NA,NA,NA,"","","",NA,"i",1,0.795,NA,NA,NA,NA,NA,"他的","i","space",11.3209,0,0,0,7,1,"",NA,"",NA,NA,NA,NA,NA,NA,NA,"",NA,"",NA,NA,NA,NA,NA,NA,NA,"","","",NA,"",NA,NA,NA,NA,NA,NA,NA,"",NA,"17"
"",NA,"",NA,"",NA,NA,NA,NA,NA,NA,NA,"","",1,1,"2024-08-23_20h52.31.327","IAT(Formal)","2021.2.3","Win32",59.88023952,"",NA,"",NA,NA,NA,NA,NA,NA,NA,"","","",NA,"i",1,0.5488,NA,NA,NA,NA,NA,"其他","i","",NA,0,1,1,69,1,"",NA,"",NA,NA,NA,NA,NA,NA,NA,"",NA,"",NA,NA,NA,NA,NA,NA,NA,"","","",NA,"",NA,NA,NA,NA,NA,NA,NA,"",NA,"17"
"",NA,"",NA,"",NA,NA,NA,NA,NA,NA,NA,"","",1,1,"2024-08-23_20h52.31.327","IAT(Formal)","2021.2.3","Win32",59.88023952,"",NA,"",NA,NA,NA,NA,NA,NA,NA,"","","",NA,"e",1,0.5436,NA,NA,NA,NA,NA,"勇敢","e","",NA,0,2,2,17,1,"",NA,"",NA,NA,NA,NA,NA,NA,NA,"",NA,"",NA,NA,NA,NA,NA,NA,NA,"","","",NA,"",NA,NA,NA,NA,NA,NA,NA,"",NA,"17"
"",NA,"",NA,"",NA,NA,NA,NA,NA,NA,NA,"","",1,1,"2024-08-23_20h52.31.327","IAT(Formal)","2021.2.3","Win32",59.88023952,"",NA,"",NA,NA,NA,NA,NA,NA,NA,"","","",NA,"i",1,0.5831,NA,NA,NA,NA,NA,"悲观","i","",NA,0,3,3,34,1,"",NA,"",NA,NA,NA,NA,NA,NA,NA,"",NA,"",NA,NA,NA,NA,NA,NA,NA,"","","",NA,"",NA,NA,NA,NA,NA,NA,NA,"",NA,"17"
"",NA,"",NA,"",NA,NA,NA,NA,NA,NA,NA,"","",1,1,"2024-08-23_20h52.31.327","IAT(Formal)","2021.2.3","Win32",59.88023952,"",NA,"",NA,NA,NA,NA,NA,NA,NA,"","","",NA,"e",1,0.5905,NA,NA,NA,NA,NA,"我的","e","",NA,0,4,4,51,1,"",NA,"",NA,NA,NA,NA,NA,NA,NA,"",NA,"",NA,NA,NA,NA,NA,NA,NA,"","","",NA,"",NA,NA,NA,NA,NA,NA,NA,"",NA,"17"
"",NA,"",NA,"",NA,NA,NA,NA,NA,NA,NA,"","",1,1,"2024-08-23_20h52.31.327","IAT(Formal)","2021.2.3","Win32",59.88023952,"",NA,"",NA,NA,NA,NA,NA,NA,NA,"","","",NA,"i",1,0.5146,NA,NA,NA,NA,NA,"他","i","",NA,0,5,5,5,1,"",NA,"",NA,NA,NA,NA,NA,NA,NA,"",NA,"",NA,NA,NA,NA,NA,NA,NA,"","","",NA,"",NA,NA,NA,NA,NA,NA,NA,"",NA,"17"
"",NA,"",NA,"",NA,NA,NA,NA,NA,NA,NA,"","",1,1,"2024-08-23_20h52.31.327","IAT(Formal)","2021.2.3","Win32",59.88023952,"",NA,"",NA,NA,NA,NA,NA,NA,NA,"","","",NA,"i",1,0.5253,NA,NA,NA,NA,NA,"他的","i","",NA,0,6,6,67,1,"",NA,"",NA,NA,NA,NA,NA,NA,NA,"",NA,"",NA,NA,NA,NA,NA,NA,NA,"","","",NA,"",NA,NA,NA,NA,NA,NA,NA,"",NA,"17"
"",NA,"",NA,"",NA,NA,NA,NA,NA,NA,NA,"","",1,1,"2024-08-23_20h52.31.327","IAT(Formal)","2021.2.3","Win32",59.88023952,"",NA,"",NA,NA,NA,NA,NA,NA,NA,"","","",NA,"i",1,0.7202,NA,NA,NA,NA,NA,"自私","i","",NA,0,7,7,43,1,"",NA,"",NA,NA,NA,NA,NA,NA,NA,"",NA,"",NA,NA,NA,NA,NA,NA,NA,"","","",NA,"",NA,NA,NA,NA,NA,NA,NA,"",NA,"17"
"",NA,"",NA,"",NA,NA,NA,NA,NA,NA,NA,"","",1,1,"2024-08-23_20h52.31.327","IAT(Formal)","2021.2.3","Win32",59.88023952,"",NA,"",NA,NA,NA,NA,NA,NA,NA,"","","",NA,"e",1,0.6973,NA,NA,NA,NA,NA,"我们","e","",NA,0,8,8,62,1,"",NA,"",NA,NA,NA,NA,NA,NA,NA,"",NA,"",NA,NA,NA,NA,NA,NA,NA,"","","",NA,"",NA,NA,NA,NA,NA,NA,NA,"",NA,"17"
"",NA,"",NA,"",NA,NA,NA,NA,NA,NA,NA,"","",1,1,"2024-08-23_20h52.31.327","IAT(Formal)","2021.2.3","Win32",59.88023952,"",NA,"",NA,NA,NA,NA,NA,NA,NA,"","","",NA,"i",1,0.5326,NA,NA,NA,NA,NA,"其他","i","",NA,0,9,9,79,1,"",NA,"",NA,NA,NA,NA,NA,NA,NA,"",NA,"",NA,NA,NA,NA,NA,NA,NA,"","","",NA,"",NA,NA,NA,NA,NA,NA,NA,"",NA,"17"
"",NA,"",NA,"",NA,NA,NA,NA,NA,NA,NA,"","",1,1,"2024-08-23_20h52.31.327","IAT(Formal)","2021.2.3","Win32",59.88023952,"",NA,"",NA,NA,NA,NA,NA,NA,NA,"","","",NA,"i",1,0.5888,NA,NA,NA,NA,NA,"凶狠","i","",NA,0,10,10,42,1,"",NA,"",NA,NA,NA,NA,NA,NA,NA,"",NA,"",NA,NA,NA,NA,NA,NA,NA,"","","",NA,"",NA,NA,NA,NA,NA,NA,NA,"",NA,"17"
"",NA,"",NA,"",NA,NA,NA,NA,NA,NA,NA,"","",1,1,"2024-08-23_20h52.31.327","IAT(Formal)","2021.2.3","Win32",59.88023952,"",NA,"",NA,NA,NA,NA,NA,NA,NA,"","","",NA,"i",1,0.6498,NA,NA,NA,NA,NA,"傲慢","i","",NA,0,11,11,37,1,"",NA,"",NA,NA,NA,NA,NA,NA,NA,"",NA,"",NA,NA,NA,NA,NA,NA,NA,"","","",NA,"",NA,NA,NA,NA,NA,NA,NA,"",NA,"17"
"",NA,"",NA,"",NA,NA,NA,NA,NA,NA,NA,"","",1,1,"2024-08-23_20h52.31.327","IAT(Formal)","2021.2.3","Win32",59.88023952,"",NA,"",NA,NA,NA,NA,NA,NA,NA,"","","",NA,"i",1,0.7219,NA,NA,NA,NA,NA,"他人","i","",NA,0,12,12,8,1,"",NA,"",NA,NA,NA,NA,NA,NA,NA,"",NA,"",NA,NA,NA,NA,NA,NA,NA,"","","",NA,"",NA,NA,NA,NA,NA,NA,NA,"",NA,"17"
"",NA,"",NA,"",NA,NA,NA,NA,NA,NA,NA,"","",1,1,"2024-08-23_20h52.31.327","IAT(Formal)","2021.2.3","Win32",59.88023952,"",NA,"",NA,NA,NA,NA,NA,NA,NA,"","","",NA,"i",1,0.6789,NA,NA,NA,NA,NA,"猖狂","i","",NA,0,13,13,45,1,"",NA,"",NA,NA,NA,NA,NA,NA,NA,"",NA,"",NA,NA,NA,NA,NA,NA,NA,"","","",NA,"",NA,NA,NA,NA,NA,NA,NA,"",NA,"17"
"",NA,"",NA,"",NA,NA,NA,NA,NA,NA,NA,"","",1,1,"2024-08-23_20h52.31.327","IAT(Formal)","2021.2.3","Win32",59.88023952,"",NA,"",NA,NA,NA,NA,NA,NA,NA,"","","",NA,"i",1,0.5635,NA,NA,NA,NA,NA,"卑鄙","i","",NA,0,14,14,30,1,"",NA,"",NA,NA,NA,NA,NA,NA,NA,"",NA,"",NA,NA,NA,NA,NA,NA,NA,"","","",NA,"",NA,NA,NA,NA,NA,NA,NA,"",NA,"17"
"",NA,"",NA,"",NA,NA,NA,NA,NA,NA,NA,"","",1,1,"2024-08-23_20h52.31.327","IAT(Formal)","2021.2.3","Win32",59.88023952,"",NA,"",NA,NA,NA,NA,NA,NA,NA,"","","",NA,"e",1,0.5706,NA,NA,NA,NA,NA,"我们","e","",NA,0,15,15,72,1,"",NA,"",NA,NA,NA,NA,NA,NA,NA,"",NA,"",NA,NA,NA,NA,NA,NA,NA,"","","",NA,"",NA,NA,NA,NA,NA,NA,NA,"",NA,"17"
"",NA,"",NA,"",NA,NA,NA,NA,NA,NA,NA,"","",1,1,"2024-08-23_20h52.31.327","IAT(Formal)","2021.2.3","Win32",59.88023952,"",NA,"",NA,NA,NA,NA,NA,NA,NA,"","","",NA,"e",1,0.7275,NA,NA,NA,NA,NA,"我的","e","",NA,0,16,16,1,1,"",NA,"",NA,NA,NA,NA,NA,NA,NA,"",NA,"",NA,NA,NA,NA,NA,NA,NA,"","","",NA,"",NA,NA,NA,NA,NA,NA,NA,"",NA,"17"
"",NA,"",NA,"",NA,NA,NA,NA,NA,NA,NA,"","",1,1,"2024-08-23_20h52.31.327","IAT(Formal)","2021.2.3","Win32",59.88023952,"",NA,"",NA,NA,NA,NA,NA,NA,NA,"","","",NA,"e",1,0.7041,NA,NA,NA,NA,NA,"无私","e","",NA,0,17,17,22,1,"",NA,"",NA,NA,NA,NA,NA,NA,NA,"",NA,"",NA,NA,NA,NA,NA,NA,NA,"","","",NA,"",NA,NA,NA,NA,NA,NA,NA,"",NA,"17"
"",NA,"",NA,"",NA,NA,NA,NA,NA,NA,NA,"","",1,1,"2024-08-23_20h52.31.327","IAT(Formal)","2021.2.3","Win32",59.88023952,"",NA,"",NA,NA,NA,NA,NA,NA,NA,"","","",NA,"e",1,0.6046,NA,NA,NA,NA,NA,"热情","e","",NA,0,18,18,27,1,"",NA,"",NA,NA,NA,NA,NA,NA,NA,"",NA,"",NA,NA,NA,NA,NA,NA,NA,"","","",NA,"",NA,NA,NA,NA,NA,NA,NA,"",NA,"17"
"",NA,"",NA,"",NA,NA,NA,NA,NA,NA,NA,"","",1,1,"2024-08-23_20h52.31.327","IAT(Formal)","2021.2.3","Win32",59.88023952,"",NA,"",NA,NA,NA,NA,NA,NA,NA,"","","",NA,"i",1,0.5173,NA,NA,NA,NA,NA,"他人","i","",NA,0,19,19,68,1,"",NA,"",NA,NA,NA,NA,NA,NA,NA,"",NA,"",NA,NA,NA,NA,NA,NA,NA,"","","",NA,"",NA,NA,NA,NA,NA,NA,NA,"",NA,"17"
"",NA,"",NA,"",NA,NA,NA,NA,NA,NA,NA,"","",1,1,"2024-08-23_20h52.31.327","IAT(Formal)","2021.2.3","Win32",59.88023952,"",NA,"",NA,NA,NA,NA,NA,NA,NA,"","","",NA,"i",1,0.7667,NA,NA,NA,NA,NA,"鲁莽","i","",NA,0,20,20,38,1,"",NA,"",NA,NA,NA,NA,NA,NA,NA,"",NA,"",NA,NA,NA,NA,NA,NA,NA,"","","",NA,"",NA,NA,NA,NA,NA,NA,NA,"",NA,"17"
"",NA,"",NA,"",NA,NA,NA,NA,NA,NA,NA,"","",1,1,"2024-08-23_20h52.31.327","IAT(Formal)","2021.2.3","Win32",59.88023952,"",NA,"",NA,NA,NA,NA,NA,NA,NA,"","","",NA,"e",1,0.6154,NA,NA,NA,NA,NA,"聪明","e","",NA,0,21,21,12,1,"",NA,"",NA,NA,NA,NA,NA,NA,NA,"",NA,"",NA,NA,NA,NA,NA,NA,NA,"","","",NA,"",NA,NA,NA,NA,NA,NA,NA,"",NA,"17"
"",NA,"",NA,"",NA,NA,NA,NA,NA,NA,NA,"","",1,1,"2024-08-23_20h52.31.327","IAT(Formal)","2021.2.3","Win32",59.88023952,"",NA,"",NA,NA,NA,NA,NA,NA,NA,"","","",NA,"e",1,0.6345,NA,NA,NA,NA,NA,"勤奋","e","",NA,0,22,22,18,1,"",NA,"",NA,NA,NA,NA,NA,NA,NA,"",NA,"",NA,NA,NA,NA,NA,NA,NA,"","","",NA,"",NA,NA,NA,NA,NA,NA,NA,"",NA,"17"
"",NA,"",NA,"",NA,NA,NA,NA,NA,NA,NA,"","",1,1,"2024-08-23_20h52.31.327","IAT(Formal)","2021.2.3","Win32",59.88023952,"",NA,"",NA,NA,NA,NA,NA,NA,NA,"","","",NA,"i",1,0.5769,NA,NA,NA,NA,NA,"他人","i","",NA,0,23,23,58,1,"",NA,"",NA,NA,NA,NA,NA,NA,NA,"",NA,"",NA,NA,NA,NA,NA,NA,NA,"","","",NA,"",NA,NA,NA,NA,NA,NA,NA,"",NA,"17"
"",NA,"",NA,"",NA,NA,NA,NA,NA,NA,NA,"","",1,1,"2024-08-23_20h52.31.327","IAT(Formal)","2021.2.3","Win32",59.88023952,"",NA,"",NA,NA,NA,NA,NA,NA,NA,"","","",NA,"i",1,0.6172,NA,NA,NA,NA,NA,"固执","i","",NA,0,24,24,47,1,"",NA,"",NA,NA,NA,NA,NA,NA,NA,"",NA,"",NA,NA,NA,NA,NA,NA,NA,"","","",NA,"",NA,NA,NA,NA,NA,NA,NA,"",NA,"17"
"",NA,"",NA,"",NA,NA,NA,NA,NA,NA,NA,"","",1,1,"2024-08-23_20h52.31.327","IAT(Formal)","2021.2.3","Win32",59.88023952,"",NA,"",NA,NA,NA,NA,NA,NA,NA,"","","",NA,"i",1,0.7455,NA,NA,NA,NA,NA,"他们","i","",NA,0,25,25,6,1,"",NA,"",NA,NA,NA,NA,NA,NA,NA,"",NA,"",NA,NA,NA,NA,NA,NA,NA,"","","",NA,"",NA,NA,NA,NA,NA,NA,NA,"",NA,"17"
"",NA,"",NA,"",NA,NA,NA,NA,NA,NA,NA,"","",1,1,"2024-08-23_20h52.31.327","IAT(Formal)","2021.2.3","Win32",59.88023952,"",NA,"",NA,NA,NA,NA,NA,NA,NA,"","","",NA,"i",1,0.4814,NA,NA,NA,NA,NA,"他们","i","",NA,0,26,26,66,1,"",NA,"",NA,NA,NA,NA,NA,NA,NA,"",NA,"",NA,NA,NA,NA,NA,NA,NA,"","","",NA,"",NA,NA,NA,NA,NA,NA,NA,"",NA,"17"
"",NA,"",NA,"",NA,NA,NA,NA,NA,NA,NA,"","",1,1,"2024-08-23_20h52.31.327","IAT(Formal)","2021.2.3","Win32",59.88023952,"",NA,"",NA,NA,NA,NA,NA,NA,NA,"","","",NA,"e",1,0.8723,NA,NA,NA,NA,NA,"细腻","e","",NA,0,27,27,25,1,"",NA,"",NA,NA,NA,NA,NA,NA,NA,"",NA,"",NA,NA,NA,NA,NA,NA,NA,"","","",NA,"",NA,NA,NA,NA,NA,NA,NA,"",NA,"17"
"",NA,"",NA,"",NA,NA,NA,NA,NA,NA,NA,"","",1,1,"2024-08-23_20h52.31.327","IAT(Formal)","2021.2.3","Win32",59.88023952,"",NA,"",NA,NA,NA,NA,NA,NA,NA,"","","",NA,"i",1,0.5248,NA,NA,NA,NA,NA,"他们","i","",NA,0,28,28,56,1,"",NA,"",NA,NA,NA,NA,NA,NA,NA,"",NA,"",NA,NA,NA,NA,NA,NA,NA,"","","",NA,"",NA,NA,NA,NA,NA,NA,NA,"",NA,"17"
"",NA,"",NA,"",NA,NA,NA,NA,NA,NA,NA,"","",1,1,"2024-08-23_20h52.31.327","IAT(Formal)","2021.2.3","Win32",59.88023952,"",NA,"",NA,NA,NA,NA,NA,NA,NA,"","","",NA,"e",1,0.6869,NA,NA,NA,NA,NA,"活泼","e","",NA,0,29,29,28,1,"",NA,"",NA,NA,NA,NA,NA,NA,NA,"",NA,"",NA,NA,NA,NA,NA,NA,NA,"","","",NA,"",NA,NA,NA,NA,NA,NA,NA,"",NA,"17"
"",NA,"",NA,"",NA,NA,NA,NA,NA,NA,NA,"","",1,1,"2024-08-23_20h52.31.327","IAT(Formal)","2021.2.3","Win32",59.88023952,"",NA,"",NA,NA,NA,NA,NA,NA,NA,"","","",NA,"e",1,0.7725,NA,NA,NA,NA,NA,"诚实","e","",NA,0,30,30,15,1,"",NA,"",NA,NA,NA,NA,NA,NA,NA,"",NA,"",NA,NA,NA,NA,NA,NA,NA,"","","",NA,"",NA,NA,NA,NA,NA,NA,NA,"",NA,"17"
"",NA,"",NA,"",NA,NA,NA,NA,NA,NA,NA,"","",1,1,"2024-08-23_20h52.31.327","IAT(Formal)","2021.2.3","Win32",59.88023952,"",NA,"",NA,NA,NA,NA,NA,NA,NA,"","","",NA,"e",1,0.7513,NA,NA,NA,NA,NA,"我们","e","",NA,0,31,31,2,1,"",NA,"",NA,NA,NA,NA,NA,NA,NA,"",NA,"",NA,NA,NA,NA,NA,NA,NA,"","","",NA,"",NA,NA,NA,NA,NA,NA,NA,"",NA,"17"
"",NA,"",NA,"",NA,NA,NA,NA,NA,NA,NA,"","",1,1,"2024-08-23_20h52.31.327","IAT(Formal)","2021.2.3","Win32",59.88023952,"",NA,"",NA,NA,NA,NA,NA,NA,NA,"","","",NA,"e",1,0.5823,NA,NA,NA,NA,NA,"俺","e","",NA,0,32,32,54,1,"",NA,"",NA,NA,NA,NA,NA,NA,NA,"",NA,"",NA,NA,NA,NA,NA,NA,NA,"","","",NA,"",NA,NA,NA,NA,NA,NA,NA,"",NA,"17"
"",NA,"",NA,"",NA,NA,NA,NA,NA,NA,NA,"","",1,1,"2024-08-23_20h52.31.327","IAT(Formal)","2021.2.3","Win32",59.88023952,"",NA,"",NA,NA,NA,NA,NA,NA,NA,"","","",NA,"i",1,0.8335,NA,NA,NA,NA,NA,"执拗","i","",NA,0,33,33,40,1,"",NA,"",NA,NA,NA,NA,NA,NA,NA,"",NA,"",NA,NA,NA,NA,NA,NA,NA,"","","",NA,"",NA,NA,NA,NA,NA,NA,NA,"",NA,"17"
"",NA,"",NA,"",NA,NA,NA,NA,NA,NA,NA,"","",1,1,"2024-08-23_20h52.31.327","IAT(Formal)","2021.2.3","Win32",59.88023952,"",NA,"",NA,NA,NA,NA,NA,NA,NA,"","","",NA,"i",1,0.5997,NA,NA,NA,NA,NA,"刻薄","i","",NA,0,34,34,33,1,"",NA,"",NA,NA,NA,NA,NA,NA,NA,"",NA,"",NA,NA,NA,NA,NA,NA,NA,"","","",NA,"",NA,NA,NA,NA,NA,NA,NA,"",NA,"17"
"",NA,"",NA,"",NA,NA,NA,NA,NA,NA,NA,"","",1,1,"2024-08-23_20h52.31.327","IAT(Formal)","2021.2.3","Win32",59.88023952,"",NA,"",NA,NA,NA,NA,NA,NA,NA,"","","",NA,"e",1,0.6084,NA,NA,NA,NA,NA,"俺","e","",NA,0,35,35,4,1,"",NA,"",NA,NA,NA,NA,NA,NA,NA,"",NA,"",NA,NA,NA,NA,NA,NA,NA,"","","",NA,"",NA,NA,NA,NA,NA,NA,NA,"",NA,"17"
"",NA,"",NA,"",NA,NA,NA,NA,NA,NA,NA,"","",1,1,"2024-08-23_20h52.31.327","IAT(Formal)","2021.2.3","Win32",59.88023952,"",NA,"",NA,NA,NA,NA,NA,NA,NA,"","","",NA,"e",1,0.8004,NA,NA,NA,NA,NA,"俺","e","",NA,0,36,36,74,1,"",NA,"",NA,NA,NA,NA,NA,NA,NA,"",NA,"",NA,NA,NA,NA,NA,NA,NA,"","","",NA,"",NA,NA,NA,NA,NA,NA,NA,"",NA,"17"
"",NA,"",NA,"",NA,NA,NA,NA,NA,NA,NA,"","",1,1,"2024-08-23_20h52.31.327","IAT(Formal)","2021.2.3","Win32",59.88023952,"",NA,"",NA,NA,NA,NA,NA,NA,NA,"","","",NA,"e",1,0.6864,NA,NA,NA,NA,NA,"崇高","e","",NA,0,37,37,11,1,"",NA,"",NA,NA,NA,NA,NA,NA,NA,"",NA,"",NA,NA,NA,NA,NA,NA,NA,"","","",NA,"",NA,NA,NA,NA,NA,NA,NA,"",NA,"17"
"",NA,"",NA,"",NA,NA,NA,NA,NA,NA,NA,"","",1,1,"2024-08-23_20h52.31.327","IAT(Formal)","2021.2.3","Win32",59.88023952,"",NA,"",NA,NA,NA,NA,NA,NA,NA,"","","",NA,"i",1,0.731,NA,NA,NA,NA,NA,"自卑","i","",NA,0,38,38,36,1,"",NA,"",NA,NA,NA,NA,NA,NA,NA,"",NA,"",NA,NA,NA,NA,NA,NA,NA,"","","",NA,"",NA,NA,NA,NA,NA,NA,NA,"",NA,"17"
"",NA,"",NA,"",NA,NA,NA,NA,NA,NA,NA,"","",1,1,"2024-08-23_20h52.31.327","IAT(Formal)","2021.2.3","Win32",59.88023952,"",NA,"",NA,NA,NA,NA,NA,NA,NA,"","","",NA,"e",1,0.6871,NA,NA,NA,NA,NA,"我","e","",NA,0,39,39,0,1,"",NA,"",NA,NA,NA,NA,NA,NA,NA,"",NA,"",NA,NA,NA,NA,NA,NA,NA,"","","",NA,"",NA,NA,NA,NA,NA,NA,NA,"",NA,"17"
"",NA,"",NA,"",NA,NA,NA,NA,NA,NA,NA,"","",1,1,"2024-08-23_20h52.31.327","IAT(Formal)","2021.2.3","Win32",59.88023952,"",NA,"",NA,NA,NA,NA,NA,NA,NA,"","","",NA,"e",1,0.5798,NA,NA,NA,NA,NA,"俺","e","",NA,0,40,40,64,1,"",NA,"",NA,NA,NA,NA,NA,NA,NA,"",NA,"",NA,NA,NA,NA,NA,NA,NA,"","","",NA,"",NA,NA,NA,NA,NA,NA,NA,"",NA,"17"
"",NA,"",NA,"",NA,NA,NA,NA,NA,NA,NA,"","",1,1,"2024-08-23_20h52.31.327","IAT(Formal)","2021.2.3","Win32",59.88023952,"",NA,"",NA,NA,NA,NA,NA,NA,NA,"","","",NA,"e",1,0.7214,NA,NA,NA,NA,NA,"自己","e","",NA,0,41,41,73,1,"",NA,"",NA,NA,NA,NA,NA,NA,NA,"",NA,"",NA,NA,NA,NA,NA,NA,NA,"","","",NA,"",NA,NA,NA,NA,NA,NA,NA,"",NA,"17"
"",NA,"",NA,"",NA,NA,NA,NA,NA,NA,NA,"","",1,1,"2024-08-23_20h52.31.327","IAT(Formal)","2021.2.3","Win32",59.88023952,"",NA,"",NA,NA,NA,NA,NA,NA,NA,"","","",NA,"i",1,0.7669,NA,NA,NA,NA,NA,"野蛮","i","",NA,0,42,42,46,1,"",NA,"",NA,NA,NA,NA,NA,NA,NA,"",NA,"",NA,NA,NA,NA,NA,NA,NA,"","","",NA,"",NA,NA,NA,NA,NA,NA,NA,"",NA,"17"
"",NA,"",NA,"",NA,NA,NA,NA,NA,NA,NA,"","",1,1,"2024-08-23_20h52.31.327","IAT(Formal)","2021.2.3","Win32",59.88023952,"",NA,"",NA,NA,NA,NA,NA,NA,NA,"","","",NA,"e",1,0.8516,NA,NA,NA,NA,NA,"机智","e","",NA,0,43,43,19,1,"",NA,"",NA,NA,NA,NA,NA,NA,NA,"",NA,"",NA,NA,NA,NA,NA,NA,NA,"","","",NA,"",NA,NA,NA,NA,NA,NA,NA,"",NA,"17"
"",NA,"",NA,"",NA,NA,NA,NA,NA,NA,NA,"","",1,1,"2024-08-23_20h52.31.327","IAT(Formal)","2021.2.3","Win32",59.88023952,"",NA,"",NA,NA,NA,NA,NA,NA,NA,"","","",NA,"e",1,0.6301,NA,NA,NA,NA,NA,"我的","e","",NA,0,44,44,71,1,"",NA,"",NA,NA,NA,NA,NA,NA,NA,"",NA,"",NA,NA,NA,NA,NA,NA,NA,"","","",NA,"",NA,NA,NA,NA,NA,NA,NA,"",NA,"17"
"",NA,"",NA,"",NA,NA,NA,NA,NA,NA,NA,"","",1,1,"2024-08-23_20h52.31.327","IAT(Formal)","2021.2.3","Win32",59.88023952,"",NA,"",NA,NA,NA,NA,NA,NA,NA,"","","",NA,"i",1,1.2142,NA,NA,NA,NA,NA,"他人","i","",NA,0,45,45,78,1,"",NA,"",NA,NA,NA,NA,NA,NA,NA,"",NA,"",NA,NA,NA,NA,NA,NA,NA,"","","",NA,"",NA,NA,NA,NA,NA,NA,NA,"",NA,"17"
"",NA,"",NA,"",NA,NA,NA,NA,NA,NA,NA,"","",1,1,"2024-08-23_20h52.31.327","IAT(Formal)","2021.2.3","Win32",59.88023952,"",NA,"",NA,NA,NA,NA,NA,NA,NA,"","","",NA,"i",1,0.6324,NA,NA,NA,NA,NA,"他","i","",NA,0,46,46,65,1,"",NA,"",NA,NA,NA,NA,NA,NA,NA,"",NA,"",NA,NA,NA,NA,NA,NA,NA,"","","",NA,"",NA,NA,NA,NA,NA,NA,NA,"",NA,"17"
"",NA,"",NA,"",NA,NA,NA,NA,NA,NA,NA,"","",1,1,"2024-08-23_20h52.31.327","IAT(Formal)","2021.2.3","Win32",59.88023952,"",NA,"",NA,NA,NA,NA,NA,NA,NA,"","","",NA,"i",1,0.5275,NA,NA,NA,NA,NA,"他的","i","",NA,0,47,47,77,1,"",NA,"",NA,NA,NA,NA,NA,NA,NA,"",NA,"",NA,NA,NA,NA,NA,NA,NA,"","","",NA,"",NA,NA,NA,NA,NA,NA,NA,"",NA,"17"
"",NA,"",NA,"",NA,NA,NA,NA,NA,NA,NA,"","",1,1,"2024-08-23_20h52.31.327","IAT(Formal)","2021.2.3","Win32",59.88023952,"",NA,"",NA,NA,NA,NA,NA,NA,NA,"","","",NA,"i",1,0.7206,NA,NA,NA,NA,NA,"轻率","i","",NA,0,48,48,48,1,"",NA,"",NA,NA,NA,NA,NA,NA,NA,"",NA,"",NA,NA,NA,NA,NA,NA,NA,"","","",NA,"",NA,NA,NA,NA,NA,NA,NA,"",NA,"17"
"",NA,"",NA,"",NA,NA,NA,NA,NA,NA,NA,"","",1,1,"2024-08-23_20h52.31.327","IAT(Formal)","2021.2.3","Win32",59.88023952,"",NA,"",NA,NA,NA,NA,NA,NA,NA,"","","",NA,"i",1,0.6018,NA,NA,NA,NA,NA,"暴躁","i","",NA,0,49,49,44,1,"",NA,"",NA,NA,NA,NA,NA,NA,NA,"",NA,"",NA,NA,NA,NA,NA,NA,NA,"","","",NA,"",NA,NA,NA,NA,NA,NA,NA,"",NA,"17"
"",NA,"",NA,"",NA,NA,NA,NA,NA,NA,NA,"","",1,1,"2024-08-23_20h52.31.327","IAT(Formal)","2021.2.3","Win32",59.88023952,"",NA,"",NA,NA,NA,NA,NA,NA,NA,"","","",NA,"i",1,0.6974,NA,NA,NA,NA,NA,"愚蠢","i","",NA,0,50,50,32,1,"",NA,"",NA,NA,NA,NA,NA,NA,NA,"",NA,"",NA,NA,NA,NA,NA,NA,NA,"","","",NA,"",NA,NA,NA,NA,NA,NA,NA,"",NA,"17"
"",NA,"",NA,"",NA,NA,NA,NA,NA,NA,NA,"","",1,1,"2024-08-23_20h52.31.327","IAT(Formal)","2021.2.3","Win32",59.88023952,"",NA,"",NA,NA,NA,NA,NA,NA,NA,"","","",NA,"i",1,0.7349,NA,NA,NA,NA,NA,"下贱","i","",NA,0,51,51,49,1,"",NA,"",NA,NA,NA,NA,NA,NA,NA,"",NA,"",NA,NA,NA,NA,NA,NA,NA,"","","",NA,"",NA,NA,NA,NA,NA,NA,NA,"",NA,"17"
"",NA,"",NA,"",NA,NA,NA,NA,NA,NA,NA,"","",1,1,"2024-08-23_20h52.31.327","IAT(Formal)","2021.2.3","Win32",59.88023952,"",NA,"",NA,NA,NA,NA,NA,NA,NA,"","","",NA,"i",1,0.5816,NA,NA,NA,NA,NA,"他们","i","",NA,0,52,52,76,1,"",NA,"",NA,NA,NA,NA,NA,NA,NA,"",NA,"",NA,NA,NA,NA,NA,NA,NA,"","","",NA,"",NA,NA,NA,NA,NA,NA,NA,"",NA,"17"
"",NA,"",NA,"",NA,NA,NA,NA,NA,NA,NA,"","",1,1,"2024-08-23_20h52.31.327","IAT(Formal)","2021.2.3","Win32",59.88023952,"",NA,"",NA,NA,NA,NA,NA,NA,NA,"","","",NA,"i",1,0.7042,NA,NA,NA,NA,NA,"其他","i","",NA,0,53,53,9,1,"",NA,"",NA,NA,NA,NA,NA,NA,NA,"",NA,"",NA,NA,NA,NA,NA,NA,NA,"","","",NA,"",NA,NA,NA,NA,NA,NA,NA,"",NA,"17"
"",NA,"",NA,"",NA,NA,NA,NA,NA,NA,NA,"","",1,1,"2024-08-23_20h52.31.327","IAT(Formal)","2021.2.3","Win32",59.88023952,"",NA,"",NA,NA,NA,NA,NA,NA,NA,"","","",NA,"i",1,0.6465,NA,NA,NA,NA,NA,"他","i","",NA,0,54,54,55,1,"",NA,"",NA,NA,NA,NA,NA,NA,NA,"",NA,"",NA,NA,NA,NA,NA,NA,NA,"","","",NA,"",NA,NA,NA,NA,NA,NA,NA,"",NA,"17"
"",NA,"",NA,"",NA,NA,NA,NA,NA,NA,NA,"","",1,1,"2024-08-23_20h52.31.327","IAT(Formal)","2021.2.3","Win32",59.88023952,"",NA,"",NA,NA,NA,NA,NA,NA,NA,"","","",NA,"i",1,0.8491,NA,NA,NA,NA,NA,"散漫","i","",NA,0,55,55,41,1,"",NA,"",NA,NA,NA,NA,NA,NA,NA,"",NA,"",NA,NA,NA,NA,NA,NA,NA,"","","",NA,"",NA,NA,NA,NA,NA,NA,NA,"",NA,"17"
"",NA,"",NA,"",NA,NA,NA,NA,NA,NA,NA,"","",1,1,"2024-08-23_20h52.31.327","IAT(Formal)","2021.2.3","Win32",59.88023952,"",NA,"",NA,NA,NA,NA,NA,NA,NA,"","","",NA,"i",0,0.6525,NA,NA,NA,NA,NA,"我们","e","",NA,0,56,56,52,1,"",NA,"",NA,NA,NA,NA,NA,NA,NA,"",NA,"",NA,NA,NA,NA,NA,NA,NA,"","","",NA,"",NA,NA,NA,NA,NA,NA,NA,"",NA,"17"
"",NA,"",NA,"",NA,NA,NA,NA,NA,NA,NA,"","",1,1,"2024-08-23_20h52.31.327","IAT(Formal)","2021.2.3","Win32",59.88023952,"",NA,"",NA,NA,NA,NA,NA,NA,NA,"","","",NA,"e",1,0.7091,NA,NA,NA,NA,NA,"自己","e","",NA,0,57,57,3,1,"",NA,"",NA,NA,NA,NA,NA,NA,NA,"",NA,"",NA,NA,NA,NA,NA,NA,NA,"","","",NA,"",NA,NA,NA,NA,NA,NA,NA,"",NA,"17"
"",NA,"",NA,"",NA,NA,NA,NA,NA,NA,NA,"","",1,1,"2024-08-23_20h52.31.327","IAT(Formal)","2021.2.3","Win32",59.88023952,"",NA,"",NA,NA,NA,NA,NA,NA,NA,"","","",NA,"e",1,0.6261,NA,NA,NA,NA,NA,"自己","e","",NA,0,58,58,63,1,"",NA,"",NA,NA,NA,NA,NA,NA,NA,"",NA,"",NA,NA,NA,NA,NA,NA,NA,"","","",NA,"",NA,NA,NA,NA,NA,NA,NA,"",NA,"17"
"",NA,"",NA,"",NA,NA,NA,NA,NA,NA,NA,"","",1,1,"2024-08-23_20h52.31.327","IAT(Formal)","2021.2.3","Win32",59.88023952,"",NA,"",NA,NA,NA,NA,NA,NA,NA,"","","",NA,"i",0,0.6721,NA,NA,NA,NA,NA,"冷静","e","",NA,0,59,59,26,1,"",NA,"",NA,NA,NA,NA,NA,NA,NA,"",NA,"",NA,NA,NA,NA,NA,NA,NA,"","","",NA,"",NA,NA,NA,NA,NA,NA,NA,"",NA,"17"
"",NA,"",NA,"",NA,NA,NA,NA,NA,NA,NA,"","",1,1,"2024-08-23_20h52.31.327","IAT(Formal)","2021.2.3","Win32",59.88023952,"",NA,"",NA,NA,NA,NA,NA,NA,NA,"","","",NA,"e",1,0.514,NA,NA,NA,NA,NA,"公正","e","",NA,0,60,60,23,1,"",NA,"",NA,NA,NA,NA,NA,NA,NA,"",NA,"",NA,NA,NA,NA,NA,NA,NA,"","","",NA,"",NA,NA,NA,NA,NA,NA,NA,"",NA,"17"
"",NA,"",NA,"",NA,NA,NA,NA,NA,NA,NA,"","",1,1,"2024-08-23_20h52.31.327","IAT(Formal)","2021.2.3","Win32",59.88023952,"",NA,"",NA,NA,NA,NA,NA,NA,NA,"","","",NA,"e",1,0.6144,NA,NA,NA,NA,NA,"认真","e","",NA,0,61,61,20,1,"",NA,"",NA,NA,NA,NA,NA,NA,NA,"",NA,"",NA,NA,NA,NA,NA,NA,NA,"","","",NA,"",NA,NA,NA,NA,NA,NA,NA,"",NA,"17"
"",NA,"",NA,"",NA,NA,NA,NA,NA,NA,NA,"","",1,1,"2024-08-23_20h52.31.327","IAT(Formal)","2021.2.3","Win32",59.88023952,"",NA,"",NA,NA,NA,NA,NA,NA,NA,"","","",NA,"e",1,0.8516,NA,NA,NA,NA,NA,"诚恳","e","",NA,0,62,62,29,1,"",NA,"",NA,NA,NA,NA,NA,NA,NA,"",NA,"",NA,NA,NA,NA,NA,NA,NA,"","","",NA,"",NA,NA,NA,NA,NA,NA,NA,"",NA,"17"
"",NA,"",NA,"",NA,NA,NA,NA,NA,NA,NA,"","",1,1,"2024-08-23_20h52.31.327","IAT(Formal)","2021.2.3","Win32",59.88023952,"",NA,"",NA,NA,NA,NA,NA,NA,NA,"","","",NA,"e",1,0.5717,NA,NA,NA,NA,NA,"正直","e","",NA,0,63,63,16,1,"",NA,"",NA,NA,NA,NA,NA,NA,NA,"",NA,"",NA,NA,NA,NA,NA,NA,NA,"","","",NA,"",NA,NA,NA,NA,NA,NA,NA,"",NA,"17"
"",NA,"",NA,"",NA,NA,NA,NA,NA,NA,NA,"","",1,1,"2024-08-23_20h52.31.327","IAT(Formal)","2021.2.3","Win32",59.88023952,"",NA,"",NA,NA,NA,NA,NA,NA,NA,"","","",NA,"e",1,0.5801,NA,NA,NA,NA,NA,"我","e","",NA,0,64,64,60,1,"",NA,"",NA,NA,NA,NA,NA,NA,NA,"",NA,"",NA,NA,NA,NA,NA,NA,NA,"","","",NA,"",NA,NA,NA,NA,NA,NA,NA,"",NA,"17"
"",NA,"",NA,"",NA,NA,NA,NA,NA,NA,NA,"","",1,1,"2024-08-23_20h52.31.327","IAT(Formal)","2021.2.3","Win32",59.88023952,"",NA,"",NA,NA,NA,NA,NA,NA,NA,"","","",NA,"e",1,0.5745,NA,NA,NA,NA,NA,"我的","e","",NA,0,65,65,61,1,"",NA,"",NA,NA,NA,NA,NA,NA,NA,"",NA,"",NA,NA,NA,NA,NA,NA,NA,"","","",NA,"",NA,NA,NA,NA,NA,NA,NA,"",NA,"17"
"",NA,"",NA,"",NA,NA,NA,NA,NA,NA,NA,"","",1,1,"2024-08-23_20h52.31.327","IAT(Formal)","2021.2.3","Win32",59.88023952,"",NA,"",NA,NA,NA,NA,NA,NA,NA,"","","",NA,"i",1,0.6666,NA,NA,NA,NA,NA,"消极","i","",NA,0,66,66,35,1,"",NA,"",NA,NA,NA,NA,NA,NA,NA,"",NA,"",NA,NA,NA,NA,NA,NA,NA,"","","",NA,"",NA,NA,NA,NA,NA,NA,NA,"",NA,"17"
"",NA,"",NA,"",NA,NA,NA,NA,NA,NA,NA,"","",1,1,"2024-08-23_20h52.31.327","IAT(Formal)","2021.2.3","Win32",59.88023952,"",NA,"",NA,NA,NA,NA,NA,NA,NA,"","","",NA,"i",1,0.6843,NA,NA,NA,NA,NA,"他的","i","",NA,0,67,67,57,1,"",NA,"",NA,NA,NA,NA,NA,NA,NA,"",NA,"",NA,NA,NA,NA,NA,NA,NA,"","","",NA,"",NA,NA,NA,NA,NA,NA,NA,"",NA,"17"
"",NA,"",NA,"",NA,NA,NA,NA,NA,NA,NA,"","",1,1,"2024-08-23_20h52.31.327","IAT(Formal)","2021.2.3","Win32",59.88023952,"",NA,"",NA,NA,NA,NA,NA,NA,NA,"","","",NA,"e",1,0.6908,NA,NA,NA,NA,NA,"朴实","e","",NA,0,68,68,24,1,"",NA,"",NA,NA,NA,NA,NA,NA,NA,"",NA,"",NA,NA,NA,NA,NA,NA,NA,"","","",NA,"",NA,NA,NA,NA,NA,NA,NA,"",NA,"17"
"",NA,"",NA,"",NA,NA,NA,NA,NA,NA,NA,"","",1,1,"2024-08-23_20h52.31.327","IAT(Formal)","2021.2.3","Win32",59.88023952,"",NA,"",NA,NA,NA,NA,NA,NA,NA,"","","",NA,"e",1,0.5946,NA,NA,NA,NA,NA,"自己","e","",NA,0,69,69,53,1,"",NA,"",NA,NA,NA,NA,NA,NA,NA,"",NA,"",NA,NA,NA,NA,NA,NA,NA,"","","",NA,"",NA,NA,NA,NA,NA,NA,NA,"",NA,"17"
"",NA,"",NA,"",NA,NA,NA,NA,NA,NA,NA,"","",1,1,"2024-08-23_20h52.31.327","IAT(Formal)","2021.2.3","Win32",59.88023952,"",NA,"",NA,NA,NA,NA,NA,NA,NA,"","","",NA,"i",1,0.6776,NA,NA,NA,NA,NA,"冒失","i","",NA,0,70,70,39,1,"",NA,"",NA,NA,NA,NA,NA,NA,NA,"",NA,"",NA,NA,NA,NA,NA,NA,NA,"","","",NA,"",NA,NA,NA,NA,NA,NA,NA,"",NA,"17"
"",NA,"",NA,"",NA,NA,NA,NA,NA,NA,NA,"","",1,1,"2024-08-23_20h52.31.327","IAT(Formal)","2021.2.3","Win32",59.88023952,"",NA,"",NA,NA,NA,NA,NA,NA,NA,"","","",NA,"e",1,0.8311,NA,NA,NA,NA,NA,"我","e","",NA,0,71,71,50,1,"",NA,"",NA,NA,NA,NA,NA,NA,NA,"",NA,"",NA,NA,NA,NA,NA,NA,NA,"","","",NA,"",NA,NA,NA,NA,NA,NA,NA,"",NA,"17"
"",NA,"",NA,"",NA,NA,NA,NA,NA,NA,NA,"","",1,1,"2024-08-23_20h52.31.327","IAT(Formal)","2021.2.3","Win32",59.88023952,"",NA,"",NA,NA,NA,NA,NA,NA,NA,"","","",NA,"i",1,0.6231,NA,NA,NA,NA,NA,"虚伪","i","",NA,0,72,72,31,1,"",NA,"",NA,NA,NA,NA,NA,NA,NA,"",NA,"",NA,NA,NA,NA,NA,NA,NA,"","","",NA,"",NA,NA,NA,NA,NA,NA,NA,"",NA,"17"
"",NA,"",NA,"",NA,NA,NA,NA,NA,NA,NA,"","",1,1,"2024-08-23_20h52.31.327","IAT(Formal)","2021.2.3","Win32",59.88023952,"",NA,"",NA,NA,NA,NA,NA,NA,NA,"","","",NA,"e",1,0.8221,NA,NA,NA,NA,NA,"优秀","e","",NA,0,73,73,10,1,"",NA,"",NA,NA,NA,NA,NA,NA,NA,"",NA,"",NA,NA,NA,NA,NA,NA,NA,"","","",NA,"",NA,NA,NA,NA,NA,NA,NA,"",NA,"17"
"",NA,"",NA,"",NA,NA,NA,NA,NA,NA,NA,"","",1,1,"2024-08-23_20h52.31.327","IAT(Formal)","2021.2.3","Win32",59.88023952,"",NA,"",NA,NA,NA,NA,NA,NA,NA,"","","",NA,"e",1,0.6746,NA,NA,NA,NA,NA,"我","e","",NA,0,74,74,70,1,"",NA,"",NA,NA,NA,NA,NA,NA,NA,"",NA,"",NA,NA,NA,NA,NA,NA,NA,"","","",NA,"",NA,NA,NA,NA,NA,NA,NA,"",NA,"17"
"",NA,"",NA,"",NA,NA,NA,NA,NA,NA,NA,"","",1,1,"2024-08-23_20h52.31.327","IAT(Formal)","2021.2.3","Win32",59.88023952,"",NA,"",NA,NA,NA,NA,NA,NA,NA,"","","",NA,"e",1,0.7612,NA,NA,NA,NA,NA,"稳重","e","",NA,0,75,75,21,1,"",NA,"",NA,NA,NA,NA,NA,NA,NA,"",NA,"",NA,NA,NA,NA,NA,NA,NA,"","","",NA,"",NA,NA,NA,NA,NA,NA,NA,"",NA,"17"
"",NA,"",NA,"",NA,NA,NA,NA,NA,NA,NA,"","",1,1,"2024-08-23_20h52.31.327","IAT(Formal)","2021.2.3","Win32",59.88023952,"",NA,"",NA,NA,NA,NA,NA,NA,NA,"","","",NA,"e",1,0.6175,NA,NA,NA,NA,NA,"杰出","e","",NA,0,76,76,13,1,"",NA,"",NA,NA,NA,NA,NA,NA,NA,"",NA,"",NA,NA,NA,NA,NA,NA,NA,"","","",NA,"",NA,NA,NA,NA,NA,NA,NA,"",NA,"17"
"",NA,"",NA,"",NA,NA,NA,NA,NA,NA,NA,"","",1,1,"2024-08-23_20h52.31.327","IAT(Formal)","2021.2.3","Win32",59.88023952,"",NA,"",NA,NA,NA,NA,NA,NA,NA,"","","",NA,"e",1,0.5778,NA,NA,NA,NA,NA,"乐观","e","",NA,0,77,77,14,1,"",NA,"",NA,NA,NA,NA,NA,NA,NA,"",NA,"",NA,NA,NA,NA,NA,NA,NA,"","","",NA,"",NA,NA,NA,NA,NA,NA,NA,"",NA,"17"
"",NA,"",NA,"",NA,NA,NA,NA,NA,NA,NA,"","",1,1,"2024-08-23_20h52.31.327","IAT(Formal)","2021.2.3","Win32",59.88023952,"",NA,"",NA,NA,NA,NA,NA,NA,NA,"","","",NA,"i",1,0.6791,NA,NA,NA,NA,NA,"其他","i","",NA,0,78,78,59,1,"",NA,"",NA,NA,NA,NA,NA,NA,NA,"",NA,"",NA,NA,NA,NA,NA,NA,NA,"","","",NA,"",NA,NA,NA,NA,NA,NA,NA,"",NA,"17"
"",NA,"",NA,"",NA,NA,NA,NA,NA,NA,NA,"","",1,1,"2024-08-23_20h52.31.327","IAT(Formal)","2021.2.3","Win32",59.88023952,"",NA,"",NA,NA,NA,NA,NA,NA,NA,"","","",NA,"i",1,0.6909,NA,NA,NA,NA,NA,"他","i","",NA,0,79,79,75,1,"",NA,"",NA,NA,NA,NA,NA,NA,NA,"",NA,"",NA,NA,NA,NA,NA,NA,NA,"","","",NA,"",NA,NA,NA,NA,NA,NA,NA,"",NA,"17"
"",NA,"",NA,"",NA,NA,NA,NA,NA,NA,NA,"","",1,1,"2024-08-23_20h52.31.327","IAT(Formal)","2021.2.3","Win32",59.88023952,"",NA,"",NA,NA,NA,NA,NA,NA,NA,"","","",NA,"e",1,0.7538,NA,NA,NA,NA,NA,"稳重","e","",NA,1,0,80,21,1,"",NA,"",NA,NA,NA,NA,NA,NA,NA,"",NA,"",NA,NA,NA,NA,NA,NA,NA,"","","",NA,"",NA,NA,NA,NA,NA,NA,NA,"",NA,"17"
"",NA,"",NA,"",NA,NA,NA,NA,NA,NA,NA,"","",1,1,"2024-08-23_20h52.31.327","IAT(Formal)","2021.2.3","Win32",59.88023952,"",NA,"",NA,NA,NA,NA,NA,NA,NA,"","","",NA,"e",1,0.5953,NA,NA,NA,NA,NA,"公正","e","",NA,1,1,81,23,1,"",NA,"",NA,NA,NA,NA,NA,NA,NA,"",NA,"",NA,NA,NA,NA,NA,NA,NA,"","","",NA,"",NA,NA,NA,NA,NA,NA,NA,"",NA,"17"
"",NA,"",NA,"",NA,NA,NA,NA,NA,NA,NA,"","",1,1,"2024-08-23_20h52.31.327","IAT(Formal)","2021.2.3","Win32",59.88023952,"",NA,"",NA,NA,NA,NA,NA,NA,NA,"","","",NA,"i",1,0.6528,NA,NA,NA,NA,NA,"散漫","i","",NA,1,2,82,41,1,"",NA,"",NA,NA,NA,NA,NA,NA,NA,"",NA,"",NA,NA,NA,NA,NA,NA,NA,"","","",NA,"",NA,NA,NA,NA,NA,NA,NA,"",NA,"17"
"",NA,"",NA,"",NA,NA,NA,NA,NA,NA,NA,"","",1,1,"2024-08-23_20h52.31.327","IAT(Formal)","2021.2.3","Win32",59.88023952,"",NA,"",NA,NA,NA,NA,NA,NA,NA,"","","",NA,"i",1,0.6812,NA,NA,NA,NA,NA,"他","i","",NA,1,3,83,55,1,"",NA,"",NA,NA,NA,NA,NA,NA,NA,"",NA,"",NA,NA,NA,NA,NA,NA,NA,"","","",NA,"",NA,NA,NA,NA,NA,NA,NA,"",NA,"17"
"",NA,"",NA,"",NA,NA,NA,NA,NA,NA,NA,"","",1,1,"2024-08-23_20h52.31.327","IAT(Formal)","2021.2.3","Win32",59.88023952,"",NA,"",NA,NA,NA,NA,NA,NA,NA,"","","",NA,"e",1,0.7213,NA,NA,NA,NA,NA,"乐观","e","",NA,1,4,84,14,1,"",NA,"",NA,NA,NA,NA,NA,NA,NA,"",NA,"",NA,NA,NA,NA,NA,NA,NA,"","","",NA,"",NA,NA,NA,NA,NA,NA,NA,"",NA,"17"
"",NA,"",NA,"",NA,NA,NA,NA,NA,NA,NA,"","",1,1,"2024-08-23_20h52.31.327","IAT(Formal)","2021.2.3","Win32",59.88023952,"",NA,"",NA,NA,NA,NA,NA,NA,NA,"","","",NA,"e",1,0.6227,NA,NA,NA,NA,NA,"我们","e","",NA,1,5,85,2,1,"",NA,"",NA,NA,NA,NA,NA,NA,NA,"",NA,"",NA,NA,NA,NA,NA,NA,NA,"","","",NA,"",NA,NA,NA,NA,NA,NA,NA,"",NA,"17"
"",NA,"",NA,"",NA,NA,NA,NA,NA,NA,NA,"","",1,1,"2024-08-23_20h52.31.327","IAT(Formal)","2021.2.3","Win32",59.88023952,"",NA,"",NA,NA,NA,NA,NA,NA,NA,"","","",NA,"i",1,0.5448,NA,NA,NA,NA,NA,"他人","i","",NA,1,6,86,58,1,"",NA,"",NA,NA,NA,NA,NA,NA,NA,"",NA,"",NA,NA,NA,NA,NA,NA,NA,"","","",NA,"",NA,NA,NA,NA,NA,NA,NA,"",NA,"17"
"",NA,"",NA,"",NA,NA,NA,NA,NA,NA,NA,"","",1,1,"2024-08-23_20h52.31.327","IAT(Formal)","2021.2.3","Win32",59.88023952,"",NA,"",NA,NA,NA,NA,NA,NA,NA,"","","",NA,"e",1,0.5641,NA,NA,NA,NA,NA,"俺","e","",NA,1,7,87,54,1,"",NA,"",NA,NA,NA,NA,NA,NA,NA,"",NA,"",NA,NA,NA,NA,NA,NA,NA,"","","",NA,"",NA,NA,NA,NA,NA,NA,NA,"",NA,"17"
"",NA,"",NA,"",NA,NA,NA,NA,NA,NA,NA,"","",1,1,"2024-08-23_20h52.31.327","IAT(Formal)","2021.2.3","Win32",59.88023952,"",NA,"",NA,NA,NA,NA,NA,NA,NA,"","","",NA,"i",1,0.5837,NA,NA,NA,NA,NA,"其他","i","",NA,1,8,88,9,1,"",NA,"",NA,NA,NA,NA,NA,NA,NA,"",NA,"",NA,NA,NA,NA,NA,NA,NA,"","","",NA,"",NA,NA,NA,NA,NA,NA,NA,"",NA,"17"
"",NA,"",NA,"",NA,NA,NA,NA,NA,NA,NA,"","",1,1,"2024-08-23_20h52.31.327","IAT(Formal)","2021.2.3","Win32",59.88023952,"",NA,"",NA,NA,NA,NA,NA,NA,NA,"","","",NA,"e",1,0.5627,NA,NA,NA,NA,NA,"我","e","",NA,1,9,89,60,1,"",NA,"",NA,NA,NA,NA,NA,NA,NA,"",NA,"",NA,NA,NA,NA,NA,NA,NA,"","","",NA,"",NA,NA,NA,NA,NA,NA,NA,"",NA,"17"
"",NA,"",NA,"",NA,NA,NA,NA,NA,NA,NA,"","",1,1,"2024-08-23_20h52.31.327","IAT(Formal)","2021.2.3","Win32",59.88023952,"",NA,"",NA,NA,NA,NA,NA,NA,NA,"","","",NA,"e",1,0.7165,NA,NA,NA,NA,NA,"勇敢","e","",NA,1,10,90,17,1,"",NA,"",NA,NA,NA,NA,NA,NA,NA,"",NA,"",NA,NA,NA,NA,NA,NA,NA,"","","",NA,"",NA,NA,NA,NA,NA,NA,NA,"",NA,"17"
"",NA,"",NA,"",NA,NA,NA,NA,NA,NA,NA,"","",1,1,"2024-08-23_20h52.31.327","IAT(Formal)","2021.2.3","Win32",59.88023952,"",NA,"",NA,NA,NA,NA,NA,NA,NA,"","","",NA,"e",1,0.7054,NA,NA,NA,NA,NA,"我们","e","",NA,1,11,91,72,1,"",NA,"",NA,NA,NA,NA,NA,NA,NA,"",NA,"",NA,NA,NA,NA,NA,NA,NA,"","","",NA,"",NA,NA,NA,NA,NA,NA,NA,"",NA,"17"
"",NA,"",NA,"",NA,NA,NA,NA,NA,NA,NA,"","",1,1,"2024-08-23_20h52.31.327","IAT(Formal)","2021.2.3","Win32",59.88023952,"",NA,"",NA,NA,NA,NA,NA,NA,NA,"","","",NA,"i",1,0.5623,NA,NA,NA,NA,NA,"他们","i","",NA,1,12,92,6,1,"",NA,"",NA,NA,NA,NA,NA,NA,NA,"",NA,"",NA,NA,NA,NA,NA,NA,NA,"","","",NA,"",NA,NA,NA,NA,NA,NA,NA,"",NA,"17"
"",NA,"",NA,"",NA,NA,NA,NA,NA,NA,NA,"","",1,1,"2024-08-23_20h52.31.327","IAT(Formal)","2021.2.3","Win32",59.88023952,"",NA,"",NA,NA,NA,NA,NA,NA,NA,"","","",NA,"i",1,0.8834,NA,NA,NA,NA,NA,"冒失","i","",NA,1,13,93,39,1,"",NA,"",NA,NA,NA,NA,NA,NA,NA,"",NA,"",NA,NA,NA,NA,NA,NA,NA,"","","",NA,"",NA,NA,NA,NA,NA,NA,NA,"",NA,"17"
"",NA,"",NA,"",NA,NA,NA,NA,NA,NA,NA,"","",1,1,"2024-08-23_20h52.31.327","IAT(Formal)","2021.2.3","Win32",59.88023952,"",NA,"",NA,NA,NA,NA,NA,NA,NA,"","","",NA,"e",1,0.5628,NA,NA,NA,NA,NA,"聪明","e","",NA,1,14,94,12,1,"",NA,"",NA,NA,NA,NA,NA,NA,NA,"",NA,"",NA,NA,NA,NA,NA,NA,NA,"","","",NA,"",NA,NA,NA,NA,NA,NA,NA,"",NA,"17"
"",NA,"",NA,"",NA,NA,NA,NA,NA,NA,NA,"","",1,1,"2024-08-23_20h52.31.327","IAT(Formal)","2021.2.3","Win32",59.88023952,"",NA,"",NA,NA,NA,NA,NA,NA,NA,"","","",NA,"e",1,0.8049,NA,NA,NA,NA,NA,"我们","e","",NA,1,15,95,52,1,"",NA,"",NA,NA,NA,NA,NA,NA,NA,"",NA,"",NA,NA,NA,NA,NA,NA,NA,"","","",NA,"",NA,NA,NA,NA,NA,NA,NA,"",NA,"17"
"",NA,"",NA,"",NA,NA,NA,NA,NA,NA,NA,"","",1,1,"2024-08-23_20h52.31.327","IAT(Formal)","2021.2.3","Win32",59.88023952,"",NA,"",NA,NA,NA,NA,NA,NA,NA,"","","",NA,"i",1,0.685,NA,NA,NA,NA,NA,"固执","i","",NA,1,16,96,47,1,"",NA,"",NA,NA,NA,NA,NA,NA,NA,"",NA,"",NA,NA,NA,NA,NA,NA,NA,"","","",NA,"",NA,NA,NA,NA,NA,NA,NA,"",NA,"17"
"",NA,"",NA,"",NA,NA,NA,NA,NA,NA,NA,"","",1,1,"2024-08-23_20h52.31.327","IAT(Formal)","2021.2.3","Win32",59.88023952,"",NA,"",NA,NA,NA,NA,NA,NA,NA,"","","",NA,"e",1,0.6141,NA,NA,NA,NA,NA,"杰出","e","",NA,1,17,97,13,1,"",NA,"",NA,NA,NA,NA,NA,NA,NA,"",NA,"",NA,NA,NA,NA,NA,NA,NA,"","","",NA,"",NA,NA,NA,NA,NA,NA,NA,"",NA,"17"
"",NA,"",NA,"",NA,NA,NA,NA,NA,NA,NA,"","",1,1,"2024-08-23_20h52.31.327","IAT(Formal)","2021.2.3","Win32",59.88023952,"",NA,"",NA,NA,NA,NA,NA,NA,NA,"","","",NA,"e",1,0.7885,NA,NA,NA,NA,NA,"我的","e","",NA,1,18,98,51,1,"",NA,"",NA,NA,NA,NA,NA,NA,NA,"",NA,"",NA,NA,NA,NA,NA,NA,NA,"","","",NA,"",NA,NA,NA,NA,NA,NA,NA,"",NA,"17"
"",NA,"",NA,"",NA,NA,NA,NA,NA,NA,NA,"","",1,1,"2024-08-23_20h52.31.327","IAT(Formal)","2021.2.3","Win32",59.88023952,"",NA,"",NA,NA,NA,NA,NA,NA,NA,"","","",NA,"i",1,0.5658,NA,NA,NA,NA,NA,"猖狂","i","",NA,1,19,99,45,1,"",NA,"",NA,NA,NA,NA,NA,NA,NA,"",NA,"",NA,NA,NA,NA,NA,NA,NA,"","","",NA,"",NA,NA,NA,NA,NA,NA,NA,"",NA,"17"
"",NA,"",NA,"",NA,NA,NA,NA,NA,NA,NA,"","",1,1,"2024-08-23_20h52.31.327","IAT(Formal)","2021.2.3","Win32",59.88023952,"",NA,"",NA,NA,NA,NA,NA,NA,NA,"","","",NA,"e",1,0.5627,NA,NA,NA,NA,NA,"自己","e","",NA,1,20,100,3,1,"",NA,"",NA,NA,NA,NA,NA,NA,NA,"",NA,"",NA,NA,NA,NA,NA,NA,NA,"","","",NA,"",NA,NA,NA,NA,NA,NA,NA,"",NA,"17"
"",NA,"",NA,"",NA,NA,NA,NA,NA,NA,NA,"","",1,1,"2024-08-23_20h52.31.327","IAT(Formal)","2021.2.3","Win32",59.88023952,"",NA,"",NA,NA,NA,NA,NA,NA,NA,"","","",NA,"i",1,0.712,NA,NA,NA,NA,NA,"凶狠","i","",NA,1,21,101,42,1,"",NA,"",NA,NA,NA,NA,NA,NA,NA,"",NA,"",NA,NA,NA,NA,NA,NA,NA,"","","",NA,"",NA,NA,NA,NA,NA,NA,NA,"",NA,"17"
"",NA,"",NA,"",NA,NA,NA,NA,NA,NA,NA,"","",1,1,"2024-08-23_20h52.31.327","IAT(Formal)","2021.2.3","Win32",59.88023952,"",NA,"",NA,NA,NA,NA,NA,NA,NA,"","","",NA,"i",1,1.2502,NA,NA,NA,NA,NA,"自私","i","",NA,1,22,102,43,1,"",NA,"",NA,NA,NA,NA,NA,NA,NA,"",NA,"",NA,NA,NA,NA,NA,NA,NA,"","","",NA,"",NA,NA,NA,NA,NA,NA,NA,"",NA,"17"
"",NA,"",NA,"",NA,NA,NA,NA,NA,NA,NA,"","",1,1,"2024-08-23_20h52.31.327","IAT(Formal)","2021.2.3","Win32",59.88023952,"",NA,"",NA,NA,NA,NA,NA,NA,NA,"","","",NA,"e",1,0.616,NA,NA,NA,NA,NA,"我的","e","",NA,1,23,103,71,1,"",NA,"",NA,NA,NA,NA,NA,NA,NA,"",NA,"",NA,NA,NA,NA,NA,NA,NA,"","","",NA,"",NA,NA,NA,NA,NA,NA,NA,"",NA,"17"
"",NA,"",NA,"",NA,NA,NA,NA,NA,NA,NA,"","",1,1,"2024-08-23_20h52.31.327","IAT(Formal)","2021.2.3","Win32",59.88023952,"",NA,"",NA,NA,NA,NA,NA,NA,NA,"","","",NA,"e",1,0.8428,NA,NA,NA,NA,NA,"我的","e","",NA,1,24,104,1,1,"",NA,"",NA,NA,NA,NA,NA,NA,NA,"",NA,"",NA,NA,NA,NA,NA,NA,NA,"","","",NA,"",NA,NA,NA,NA,NA,NA,NA,"",NA,"17"
"",NA,"",NA,"",NA,NA,NA,NA,NA,NA,NA,"","",1,1,"2024-08-23_20h52.31.327","IAT(Formal)","2021.2.3","Win32",59.88023952,"",NA,"",NA,NA,NA,NA,NA,NA,NA,"","","",NA,"i",1,0.8117,NA,NA,NA,NA,NA,"悲观","i","",NA,1,25,105,34,1,"",NA,"",NA,NA,NA,NA,NA,NA,NA,"",NA,"",NA,NA,NA,NA,NA,NA,NA,"","","",NA,"",NA,NA,NA,NA,NA,NA,NA,"",NA,"17"
"",NA,"",NA,"",NA,NA,NA,NA,NA,NA,NA,"","",1,1,"2024-08-23_20h52.31.327","IAT(Formal)","2021.2.3","Win32",59.88023952,"",NA,"",NA,NA,NA,NA,NA,NA,NA,"","","",NA,"i",1,0.5635,NA,NA,NA,NA,NA,"其他","i","",NA,1,26,106,59,1,"",NA,"",NA,NA,NA,NA,NA,NA,NA,"",NA,"",NA,NA,NA,NA,NA,NA,NA,"","","",NA,"",NA,NA,NA,NA,NA,NA,NA,"",NA,"17"
"",NA,"",NA,"",NA,NA,NA,NA,NA,NA,NA,"","",1,1,"2024-08-23_20h52.31.327","IAT(Formal)","2021.2.3","Win32",59.88023952,"",NA,"",NA,NA,NA,NA,NA,NA,NA,"","","",NA,"e",1,0.7134,NA,NA,NA,NA,NA,"勤奋","e","",NA,1,27,107,18,1,"",NA,"",NA,NA,NA,NA,NA,NA,NA,"",NA,"",NA,NA,NA,NA,NA,NA,NA,"","","",NA,"",NA,NA,NA,NA,NA,NA,NA,"",NA,"17"
"",NA,"",NA,"",NA,NA,NA,NA,NA,NA,NA,"","",1,1,"2024-08-23_20h52.31.327","IAT(Formal)","2021.2.3","Win32",59.88023952,"",NA,"",NA,NA,NA,NA,NA,NA,NA,"","","",NA,"i",1,0.7051,NA,NA,NA,NA,NA,"其他","i","",NA,1,28,108,79,1,"",NA,"",NA,NA,NA,NA,NA,NA,NA,"",NA,"",NA,NA,NA,NA,NA,NA,NA,"","","",NA,"",NA,NA,NA,NA,NA,NA,NA,"",NA,"17"
"",NA,"",NA,"",NA,NA,NA,NA,NA,NA,NA,"","",1,1,"2024-08-23_20h52.31.327","IAT(Formal)","2021.2.3","Win32",59.88023952,"",NA,"",NA,NA,NA,NA,NA,NA,NA,"","","",NA,"e",1,0.6691,NA,NA,NA,NA,NA,"冷静","e","",NA,1,29,109,26,1,"",NA,"",NA,NA,NA,NA,NA,NA,NA,"",NA,"",NA,NA,NA,NA,NA,NA,NA,"","","",NA,"",NA,NA,NA,NA,NA,NA,NA,"",NA,"17"
"",NA,"",NA,"",NA,NA,NA,NA,NA,NA,NA,"","",1,1,"2024-08-23_20h52.31.327","IAT(Formal)","2021.2.3","Win32",59.88023952,"",NA,"",NA,NA,NA,NA,NA,NA,NA,"","","",NA,"i",1,0.5789,NA,NA,NA,NA,NA,"他人","i","",NA,1,30,110,68,1,"",NA,"",NA,NA,NA,NA,NA,NA,NA,"",NA,"",NA,NA,NA,NA,NA,NA,NA,"","","",NA,"",NA,NA,NA,NA,NA,NA,NA,"",NA,"17"
"",NA,"",NA,"",NA,NA,NA,NA,NA,NA,NA,"","",1,1,"2024-08-23_20h52.31.327","IAT(Formal)","2021.2.3","Win32",59.88023952,"",NA,"",NA,NA,NA,NA,NA,NA,NA,"","","",NA,"i",1,0.7264,NA,NA,NA,NA,NA,"他人","i","",NA,1,31,111,78,1,"",NA,"",NA,NA,NA,NA,NA,NA,NA,"",NA,"",NA,NA,NA,NA,NA,NA,NA,"","","",NA,"",NA,NA,NA,NA,NA,NA,NA,"",NA,"17"
"",NA,"",NA,"",NA,NA,NA,NA,NA,NA,NA,"","",1,1,"2024-08-23_20h52.31.327","IAT(Formal)","2021.2.3","Win32",59.88023952,"",NA,"",NA,NA,NA,NA,NA,NA,NA,"","","",NA,"e",1,0.6446,NA,NA,NA,NA,NA,"俺","e","",NA,1,32,112,64,1,"",NA,"",NA,NA,NA,NA,NA,NA,NA,"",NA,"",NA,NA,NA,NA,NA,NA,NA,"","","",NA,"",NA,NA,NA,NA,NA,NA,NA,"",NA,"17"
"",NA,"",NA,"",NA,NA,NA,NA,NA,NA,NA,"","",1,1,"2024-08-23_20h52.31.327","IAT(Formal)","2021.2.3","Win32",59.88023952,"",NA,"",NA,NA,NA,NA,NA,NA,NA,"","","",NA,"e",1,0.7572,NA,NA,NA,NA,NA,"俺","e","",NA,1,33,113,4,1,"",NA,"",NA,NA,NA,NA,NA,NA,NA,"",NA,"",NA,NA,NA,NA,NA,NA,NA,"","","",NA,"",NA,NA,NA,NA,NA,NA,NA,"",NA,"17"
"",NA,"",NA,"",NA,NA,NA,NA,NA,NA,NA,"","",1,1,"2024-08-23_20h52.31.327","IAT(Formal)","2021.2.3","Win32",59.88023952,"",NA,"",NA,NA,NA,NA,NA,NA,NA,"","","",NA,"e",1,0.9178,NA,NA,NA,NA,NA,"我","e","",NA,1,34,114,0,1,"",NA,"",NA,NA,NA,NA,NA,NA,NA,"",NA,"",NA,NA,NA,NA,NA,NA,NA,"","","",NA,"",NA,NA,NA,NA,NA,NA,NA,"",NA,"17"
"",NA,"",NA,"",NA,NA,NA,NA,NA,NA,NA,"","",1,1,"2024-08-23_20h52.31.327","IAT(Formal)","2021.2.3","Win32",59.88023952,"",NA,"",NA,NA,NA,NA,NA,NA,NA,"","","",NA,"i",1,0.584,NA,NA,NA,NA,NA,"他们","i","",NA,1,35,115,66,1,"",NA,"",NA,NA,NA,NA,NA,NA,NA,"",NA,"",NA,NA,NA,NA,NA,NA,NA,"","","",NA,"",NA,NA,NA,NA,NA,NA,NA,"",NA,"17"
"",NA,"",NA,"",NA,NA,NA,NA,NA,NA,NA,"","",1,1,"2024-08-23_20h52.31.327","IAT(Formal)","2021.2.3","Win32",59.88023952,"",NA,"",NA,NA,NA,NA,NA,NA,NA,"","","",NA,"e",1,0.651,NA,NA,NA,NA,NA,"优秀","e","",NA,1,36,116,10,1,"",NA,"",NA,NA,NA,NA,NA,NA,NA,"",NA,"",NA,NA,NA,NA,NA,NA,NA,"","","",NA,"",NA,NA,NA,NA,NA,NA,NA,"",NA,"17"
"",NA,"",NA,"",NA,NA,NA,NA,NA,NA,NA,"","",1,1,"2024-08-23_20h52.31.327","IAT(Formal)","2021.2.3","Win32",59.88023952,"",NA,"",NA,NA,NA,NA,NA,NA,NA,"","","",NA,"e",1,0.8409,NA,NA,NA,NA,NA,"正直","e","",NA,1,37,117,16,1,"",NA,"",NA,NA,NA,NA,NA,NA,NA,"",NA,"",NA,NA,NA,NA,NA,NA,NA,"","","",NA,"",NA,NA,NA,NA,NA,NA,NA,"",NA,"17"
"",NA,"",NA,"",NA,NA,NA,NA,NA,NA,NA,"","",1,1,"2024-08-23_20h52.31.327","IAT(Formal)","2021.2.3","Win32",59.88023952,"",NA,"",NA,NA,NA,NA,NA,NA,NA,"","","",NA,"i",1,1.0835,NA,NA,NA,NA,NA,"他的","i","",NA,1,38,118,7,1,"",NA,"",NA,NA,NA,NA,NA,NA,NA,"",NA,"",NA,NA,NA,NA,NA,NA,NA,"","","",NA,"",NA,NA,NA,NA,NA,NA,NA,"",NA,"17"
"",NA,"",NA,"",NA,NA,NA,NA,NA,NA,NA,"","",1,1,"2024-08-23_20h52.31.327","IAT(Formal)","2021.2.3","Win32",59.88023952,"",NA,"",NA,NA,NA,NA,NA,NA,NA,"","","",NA,"i",1,0.8346,NA,NA,NA,NA,NA,"自卑","i","",NA,1,39,119,36,1,"",NA,"",NA,NA,NA,NA,NA,NA,NA,"",NA,"",NA,NA,NA,NA,NA,NA,NA,"","","",NA,"",NA,NA,NA,NA,NA,NA,NA,"",NA,"17"
"",NA,"",NA,"",NA,NA,NA,NA,NA,NA,NA,"","",1,1,"2024-08-23_20h52.31.327","IAT(Formal)","2021.2.3","Win32",59.88023952,"",NA,"",NA,NA,NA,NA,NA,NA,NA,"","","",NA,"i",1,0.7235,NA,NA,NA,NA,NA,"鲁莽","i","",NA,1,40,120,38,1,"",NA,"",NA,NA,NA,NA,NA,NA,NA,"",NA,"",NA,NA,NA,NA,NA,NA,NA,"","","",NA,"",NA,NA,NA,NA,NA,NA,NA,"",NA,"17"
"",NA,"",NA,"",NA,NA,NA,NA,NA,NA,NA,"","",1,1,"2024-08-23_20h52.31.327","IAT(Formal)","2021.2.3","Win32",59.88023952,"",NA,"",NA,NA,NA,NA,NA,NA,NA,"","","",NA,"e",1,0.6004,NA,NA,NA,NA,NA,"朴实","e","",NA,1,41,121,24,1,"",NA,"",NA,NA,NA,NA,NA,NA,NA,"",NA,"",NA,NA,NA,NA,NA,NA,NA,"","","",NA,"",NA,NA,NA,NA,NA,NA,NA,"",NA,"17"
"",NA,"",NA,"",NA,NA,NA,NA,NA,NA,NA,"","",1,1,"2024-08-23_20h52.31.327","IAT(Formal)","2021.2.3","Win32",59.88023952,"",NA,"",NA,NA,NA,NA,NA,NA,NA,"","","",NA,"e",1,0.6223,NA,NA,NA,NA,NA,"热情","e","",NA,1,42,122,27,1,"",NA,"",NA,NA,NA,NA,NA,NA,NA,"",NA,"",NA,NA,NA,NA,NA,NA,NA,"","","",NA,"",NA,NA,NA,NA,NA,NA,NA,"",NA,"17"
"",NA,"",NA,"",NA,NA,NA,NA,NA,NA,NA,"","",1,1,"2024-08-23_20h52.31.327","IAT(Formal)","2021.2.3","Win32",59.88023952,"",NA,"",NA,NA,NA,NA,NA,NA,NA,"","","",NA,"i",1,0.7796,NA,NA,NA,NA,NA,"他们","i","",NA,1,43,123,76,1,"",NA,"",NA,NA,NA,NA,NA,NA,NA,"",NA,"",NA,NA,NA,NA,NA,NA,NA,"","","",NA,"",NA,NA,NA,NA,NA,NA,NA,"",NA,"17"
"",NA,"",NA,"",NA,NA,NA,NA,NA,NA,NA,"","",1,1,"2024-08-23_20h52.31.327","IAT(Formal)","2021.2.3","Win32",59.88023952,"",NA,"",NA,NA,NA,NA,NA,NA,NA,"","","",NA,"i",1,0.655,NA,NA,NA,NA,NA,"他","i","",NA,1,44,124,5,1,"",NA,"",NA,NA,NA,NA,NA,NA,NA,"",NA,"",NA,NA,NA,NA,NA,NA,NA,"","","",NA,"",NA,NA,NA,NA,NA,NA,NA,"",NA,"17"
"",NA,"",NA,"",NA,NA,NA,NA,NA,NA,NA,"","",1,1,"2024-08-23_20h52.31.327","IAT(Formal)","2021.2.3","Win32",59.88023952,"",NA,"",NA,NA,NA,NA,NA,NA,NA,"","","",NA,"i",1,1.0183,NA,NA,NA,NA,NA,"其他","i","",NA,1,45,125,69,1,"",NA,"",NA,NA,NA,NA,NA,NA,NA,"",NA,"",NA,NA,NA,NA,NA,NA,NA,"","","",NA,"",NA,NA,NA,NA,NA,NA,NA,"",NA,"17"
"",NA,"",NA,"",NA,NA,NA,NA,NA,NA,NA,"","",1,1,"2024-08-23_20h52.31.327","IAT(Formal)","2021.2.3","Win32",59.88023952,"",NA,"",NA,NA,NA,NA,NA,NA,NA,"","","",NA,"e",1,0.9335,NA,NA,NA,NA,NA,"无私","e","",NA,1,46,126,22,1,"",NA,"",NA,NA,NA,NA,NA,NA,NA,"",NA,"",NA,NA,NA,NA,NA,NA,NA,"","","",NA,"",NA,NA,NA,NA,NA,NA,NA,"",NA,"17"
"",NA,"",NA,"",NA,NA,NA,NA,NA,NA,NA,"","",1,1,"2024-08-23_20h52.31.327","IAT(Formal)","2021.2.3","Win32",59.88023952,"",NA,"",NA,NA,NA,NA,NA,NA,NA,"","","",NA,"i",1,0.8008,NA,NA,NA,NA,NA,"刻薄","i","",NA,1,47,127,33,1,"",NA,"",NA,NA,NA,NA,NA,NA,NA,"",NA,"",NA,NA,NA,NA,NA,NA,NA,"","","",NA,"",NA,NA,NA,NA,NA,NA,NA,"",NA,"17"
"",NA,"",NA,"",NA,NA,NA,NA,NA,NA,NA,"","",1,1,"2024-08-23_20h52.31.327","IAT(Formal)","2021.2.3","Win32",59.88023952,"",NA,"",NA,NA,NA,NA,NA,NA,NA,"","","",NA,"i",1,0.6426,NA,NA,NA,NA,NA,"轻率","i","",NA,1,48,128,48,1,"",NA,"",NA,NA,NA,NA,NA,NA,NA,"",NA,"",NA,NA,NA,NA,NA,NA,NA,"","","",NA,"",NA,NA,NA,NA,NA,NA,NA,"",NA,"17"
"",NA,"",NA,"",NA,NA,NA,NA,NA,NA,NA,"","",1,1,"2024-08-23_20h52.31.327","IAT(Formal)","2021.2.3","Win32",59.88023952,"",NA,"",NA,NA,NA,NA,NA,NA,NA,"","","",NA,"i",1,0.5544,NA,NA,NA,NA,NA,"他","i","",NA,1,49,129,75,1,"",NA,"",NA,NA,NA,NA,NA,NA,NA,"",NA,"",NA,NA,NA,NA,NA,NA,NA,"","","",NA,"",NA,NA,NA,NA,NA,NA,NA,"",NA,"17"
"",NA,"",NA,"",NA,NA,NA,NA,NA,NA,NA,"","",1,1,"2024-08-23_20h52.31.327","IAT(Formal)","2021.2.3","Win32",59.88023952,"",NA,"",NA,NA,NA,NA,NA,NA,NA,"","","",NA,"i",1,0.6276,NA,NA,NA,NA,NA,"他的","i","",NA,1,50,130,67,1,"",NA,"",NA,NA,NA,NA,NA,NA,NA,"",NA,"",NA,NA,NA,NA,NA,NA,NA,"","","",NA,"",NA,NA,NA,NA,NA,NA,NA,"",NA,"17"
"",NA,"",NA,"",NA,NA,NA,NA,NA,NA,NA,"","",1,1,"2024-08-23_20h52.31.327","IAT(Formal)","2021.2.3","Win32",59.88023952,"",NA,"",NA,NA,NA,NA,NA,NA,NA,"","","",NA,"i",1,0.5686,NA,NA,NA,NA,NA,"他的","i","",NA,1,51,131,77,1,"",NA,"",NA,NA,NA,NA,NA,NA,NA,"",NA,"",NA,NA,NA,NA,NA,NA,NA,"","","",NA,"",NA,NA,NA,NA,NA,NA,NA,"",NA,"17"
"",NA,"",NA,"",NA,NA,NA,NA,NA,NA,NA,"","",1,1,"2024-08-23_20h52.31.327","IAT(Formal)","2021.2.3","Win32",59.88023952,"",NA,"",NA,NA,NA,NA,NA,NA,NA,"","","",NA,"e",1,0.8042,NA,NA,NA,NA,NA,"诚实","e","",NA,1,52,132,15,1,"",NA,"",NA,NA,NA,NA,NA,NA,NA,"",NA,"",NA,NA,NA,NA,NA,NA,NA,"","","",NA,"",NA,NA,NA,NA,NA,NA,NA,"",NA,"17"
"",NA,"",NA,"",NA,NA,NA,NA,NA,NA,NA,"","",1,1,"2024-08-23_20h52.31.327","IAT(Formal)","2021.2.3","Win32",59.88023952,"",NA,"",NA,NA,NA,NA,NA,NA,NA,"","","",NA,"i",1,0.8359,NA,NA,NA,NA,NA,"卑鄙","i","",NA,1,53,133,30,1,"",NA,"",NA,NA,NA,NA,NA,NA,NA,"",NA,"",NA,NA,NA,NA,NA,NA,NA,"","","",NA,"",NA,NA,NA,NA,NA,NA,NA,"",NA,"17"
"",NA,"",NA,"",NA,NA,NA,NA,NA,NA,NA,"","",1,1,"2024-08-23_20h52.31.327","IAT(Formal)","2021.2.3","Win32",59.88023952,"",NA,"",NA,NA,NA,NA,NA,NA,NA,"","","",NA,"e",1,0.5531,NA,NA,NA,NA,NA,"我","e","",NA,1,54,134,50,1,"",NA,"",NA,NA,NA,NA,NA,NA,NA,"",NA,"",NA,NA,NA,NA,NA,NA,NA,"","","",NA,"",NA,NA,NA,NA,NA,NA,NA,"",NA,"17"
"",NA,"",NA,"",NA,NA,NA,NA,NA,NA,NA,"","",1,1,"2024-08-23_20h52.31.327","IAT(Formal)","2021.2.3","Win32",59.88023952,"",NA,"",NA,NA,NA,NA,NA,NA,NA,"","","",NA,"i",1,0.5902,NA,NA,NA,NA,NA,"愚蠢","i","",NA,1,55,135,32,1,"",NA,"",NA,NA,NA,NA,NA,NA,NA,"",NA,"",NA,NA,NA,NA,NA,NA,NA,"","","",NA,"",NA,NA,NA,NA,NA,NA,NA,"",NA,"17"
"",NA,"",NA,"",NA,NA,NA,NA,NA,NA,NA,"","",1,1,"2024-08-23_20h52.31.327","IAT(Formal)","2021.2.3","Win32",59.88023952,"",NA,"",NA,NA,NA,NA,NA,NA,NA,"","","",NA,"e",1,0.7172,NA,NA,NA,NA,NA,"自己","e","",NA,1,56,136,63,1,"",NA,"",NA,NA,NA,NA,NA,NA,NA,"",NA,"",NA,NA,NA,NA,NA,NA,NA,"","","",NA,"",NA,NA,NA,NA,NA,NA,NA,"",NA,"17"
"",NA,"",NA,"",NA,NA,NA,NA,NA,NA,NA,"","",1,1,"2024-08-23_20h52.31.327","IAT(Formal)","2021.2.3","Win32",59.88023952,"",NA,"",NA,NA,NA,NA,NA,NA,NA,"","","",NA,"i",1,0.6121,NA,NA,NA,NA,NA,"执拗","i","",NA,1,57,137,40,1,"",NA,"",NA,NA,NA,NA,NA,NA,NA,"",NA,"",NA,NA,NA,NA,NA,NA,NA,"","","",NA,"",NA,NA,NA,NA,NA,NA,NA,"",NA,"17"
"",NA,"",NA,"",NA,NA,NA,NA,NA,NA,NA,"","",1,1,"2024-08-23_20h52.31.327","IAT(Formal)","2021.2.3","Win32",59.88023952,"",NA,"",NA,NA,NA,NA,NA,NA,NA,"","","",NA,"e",1,0.6382,NA,NA,NA,NA,NA,"自己","e","",NA,1,58,138,53,1,"",NA,"",NA,NA,NA,NA,NA,NA,NA,"",NA,"",NA,NA,NA,NA,NA,NA,NA,"","","",NA,"",NA,NA,NA,NA,NA,NA,NA,"",NA,"17"
"",NA,"",NA,"",NA,NA,NA,NA,NA,NA,NA,"","",1,1,"2024-08-23_20h52.31.327","IAT(Formal)","2021.2.3","Win32",59.88023952,"",NA,"",NA,NA,NA,NA,NA,NA,NA,"","","",NA,"e",1,0.6438,NA,NA,NA,NA,NA,"自己","e","",NA,1,59,139,73,1,"",NA,"",NA,NA,NA,NA,NA,NA,NA,"",NA,"",NA,NA,NA,NA,NA,NA,NA,"","","",NA,"",NA,NA,NA,NA,NA,NA,NA,"",NA,"17"
"",NA,"",NA,"",NA,NA,NA,NA,NA,NA,NA,"","",1,1,"2024-08-23_20h52.31.327","IAT(Formal)","2021.2.3","Win32",59.88023952,"",NA,"",NA,NA,NA,NA,NA,NA,NA,"","","",NA,"e",1,0.7046,NA,NA,NA,NA,NA,"俺","e","",NA,1,60,140,74,1,"",NA,"",NA,NA,NA,NA,NA,NA,NA,"",NA,"",NA,NA,NA,NA,NA,NA,NA,"","","",NA,"",NA,NA,NA,NA,NA,NA,NA,"",NA,"17"
"",NA,"",NA,"",NA,NA,NA,NA,NA,NA,NA,"","",1,1,"2024-08-23_20h52.31.327","IAT(Formal)","2021.2.3","Win32",59.88023952,"",NA,"",NA,NA,NA,NA,NA,NA,NA,"","","",NA,"i",1,0.7959,NA,NA,NA,NA,NA,"暴躁","i","",NA,1,61,141,44,1,"",NA,"",NA,NA,NA,NA,NA,NA,NA,"",NA,"",NA,NA,NA,NA,NA,NA,NA,"","","",NA,"",NA,NA,NA,NA,NA,NA,NA,"",NA,"17"
"",NA,"",NA,"",NA,NA,NA,NA,NA,NA,NA,"","",1,1,"2024-08-23_20h52.31.327","IAT(Formal)","2021.2.3","Win32",59.88023952,"",NA,"",NA,NA,NA,NA,NA,NA,NA,"","","",NA,"e",1,0.6173,NA,NA,NA,NA,NA,"诚恳","e","",NA,1,62,142,29,1,"",NA,"",NA,NA,NA,NA,NA,NA,NA,"",NA,"",NA,NA,NA,NA,NA,NA,NA,"","","",NA,"",NA,NA,NA,NA,NA,NA,NA,"",NA,"17"
"",NA,"",NA,"",NA,NA,NA,NA,NA,NA,NA,"","",1,1,"2024-08-23_20h52.31.327","IAT(Formal)","2021.2.3","Win32",59.88023952,"",NA,"",NA,NA,NA,NA,NA,NA,NA,"","","",NA,"e",1,0.5336,NA,NA,NA,NA,NA,"崇高","e","",NA,1,63,143,11,1,"",NA,"",NA,NA,NA,NA,NA,NA,NA,"",NA,"",NA,NA,NA,NA,NA,NA,NA,"","","",NA,"",NA,NA,NA,NA,NA,NA,NA,"",NA,"17"
"",NA,"",NA,"",NA,NA,NA,NA,NA,NA,NA,"","",1,1,"2024-08-23_20h52.31.327","IAT(Formal)","2021.2.3","Win32",59.88023952,"",NA,"",NA,NA,NA,NA,NA,NA,NA,"","","",NA,"e",1,0.717,NA,NA,NA,NA,NA,"细腻","e","",NA,1,64,144,25,1,"",NA,"",NA,NA,NA,NA,NA,NA,NA,"",NA,"",NA,NA,NA,NA,NA,NA,NA,"","","",NA,"",NA,NA,NA,NA,NA,NA,NA,"",NA,"17"
"",NA,"",NA,"",NA,NA,NA,NA,NA,NA,NA,"","",1,1,"2024-08-23_20h52.31.327","IAT(Formal)","2021.2.3","Win32",59.88023952,"",NA,"",NA,NA,NA,NA,NA,NA,NA,"","","",NA,"e",1,0.4797,NA,NA,NA,NA,NA,"机智","e","",NA,1,65,145,19,1,"",NA,"",NA,NA,NA,NA,NA,NA,NA,"",NA,"",NA,NA,NA,NA,NA,NA,NA,"","","",NA,"",NA,NA,NA,NA,NA,NA,NA,"",NA,"17"
"",NA,"",NA,"",NA,NA,NA,NA,NA,NA,NA,"","",1,1,"2024-08-23_20h52.31.327","IAT(Formal)","2021.2.3","Win32",59.88023952,"",NA,"",NA,NA,NA,NA,NA,NA,NA,"","","",NA,"e",1,0.5805,NA,NA,NA,NA,NA,"我的","e","",NA,1,66,146,61,1,"",NA,"",NA,NA,NA,NA,NA,NA,NA,"",NA,"",NA,NA,NA,NA,NA,NA,NA,"","","",NA,"",NA,NA,NA,NA,NA,NA,NA,"",NA,"17"
"",NA,"",NA,"",NA,NA,NA,NA,NA,NA,NA,"","",1,1,"2024-08-23_20h52.31.327","IAT(Formal)","2021.2.3","Win32",59.88023952,"",NA,"",NA,NA,NA,NA,NA,NA,NA,"","","",NA,"e",1,0.5382,NA,NA,NA,NA,NA,"活泼","e","",NA,1,67,147,28,1,"",NA,"",NA,NA,NA,NA,NA,NA,NA,"",NA,"",NA,NA,NA,NA,NA,NA,NA,"","","",NA,"",NA,NA,NA,NA,NA,NA,NA,"",NA,"17"
"",NA,"",NA,"",NA,NA,NA,NA,NA,NA,NA,"","",1,1,"2024-08-23_20h52.31.327","IAT(Formal)","2021.2.3","Win32",59.88023952,"",NA,"",NA,NA,NA,NA,NA,NA,NA,"","","",NA,"i",1,0.6003,NA,NA,NA,NA,NA,"野蛮","i","",NA,1,68,148,46,1,"",NA,"",NA,NA,NA,NA,NA,NA,NA,"",NA,"",NA,NA,NA,NA,NA,NA,NA,"","","",NA,"",NA,NA,NA,NA,NA,NA,NA,"",NA,"17"
"",NA,"",NA,"",NA,NA,NA,NA,NA,NA,NA,"","",1,1,"2024-08-23_20h52.31.327","IAT(Formal)","2021.2.3","Win32",59.88023952,"",NA,"",NA,NA,NA,NA,NA,NA,NA,"","","",NA,"i",1,0.9169,NA,NA,NA,NA,NA,"消极","i","",NA,1,69,149,35,1,"",NA,"",NA,NA,NA,NA,NA,NA,NA,"",NA,"",NA,NA,NA,NA,NA,NA,NA,"","","",NA,"",NA,NA,NA,NA,NA,NA,NA,"",NA,"17"
"",NA,"",NA,"",NA,NA,NA,NA,NA,NA,NA,"","",1,1,"2024-08-23_20h52.31.327","IAT(Formal)","2021.2.3","Win32",59.88023952,"",NA,"",NA,NA,NA,NA,NA,NA,NA,"","","",NA,"i",1,0.6891,NA,NA,NA,NA,NA,"他","i","",NA,1,70,150,65,1,"",NA,"",NA,NA,NA,NA,NA,NA,NA,"",NA,"",NA,NA,NA,NA,NA,NA,NA,"","","",NA,"",NA,NA,NA,NA,NA,NA,NA,"",NA,"17"
"",NA,"",NA,"",NA,NA,NA,NA,NA,NA,NA,"","",1,1,"2024-08-23_20h52.31.327","IAT(Formal)","2021.2.3","Win32",59.88023952,"",NA,"",NA,NA,NA,NA,NA,NA,NA,"","","",NA,"e",1,0.6212,NA,NA,NA,NA,NA,"认真","e","",NA,1,71,151,20,1,"",NA,"",NA,NA,NA,NA,NA,NA,NA,"",NA,"",NA,NA,NA,NA,NA,NA,NA,"","","",NA,"",NA,NA,NA,NA,NA,NA,NA,"",NA,"17"
"",NA,"",NA,"",NA,NA,NA,NA,NA,NA,NA,"","",1,1,"2024-08-23_20h52.31.327","IAT(Formal)","2021.2.3","Win32",59.88023952,"",NA,"",NA,NA,NA,NA,NA,NA,NA,"","","",NA,"i",1,0.7592,NA,NA,NA,NA,NA,"他的","i","",NA,1,72,152,57,1,"",NA,"",NA,NA,NA,NA,NA,NA,NA,"",NA,"",NA,NA,NA,NA,NA,NA,NA,"","","",NA,"",NA,NA,NA,NA,NA,NA,NA,"",NA,"17"
"",NA,"",NA,"",NA,NA,NA,NA,NA,NA,NA,"","",1,1,"2024-08-23_20h52.31.327","IAT(Formal)","2021.2.3","Win32",59.88023952,"",NA,"",NA,NA,NA,NA,NA,NA,NA,"","","",NA,"e",1,0.6336,NA,NA,NA,NA,NA,"我们","e","",NA,1,73,153,62,1,"",NA,"",NA,NA,NA,NA,NA,NA,NA,"",NA,"",NA,NA,NA,NA,NA,NA,NA,"","","",NA,"",NA,NA,NA,NA,NA,NA,NA,"",NA,"17"
"",NA,"",NA,"",NA,NA,NA,NA,NA,NA,NA,"","",1,1,"2024-08-23_20h52.31.327","IAT(Formal)","2021.2.3","Win32",59.88023952,"",NA,"",NA,NA,NA,NA,NA,NA,NA,"","","",NA,"i",1,0.7519,NA,NA,NA,NA,NA,"傲慢","i","",NA,1,74,154,37,1,"",NA,"",NA,NA,NA,NA,NA,NA,NA,"",NA,"",NA,NA,NA,NA,NA,NA,NA,"","","",NA,"",NA,NA,NA,NA,NA,NA,NA,"",NA,"17"
"",NA,"",NA,"",NA,NA,NA,NA,NA,NA,NA,"","",1,1,"2024-08-23_20h52.31.327","IAT(Formal)","2021.2.3","Win32",59.88023952,"",NA,"",NA,NA,NA,NA,NA,NA,NA,"","","",NA,"i",1,0.6886,NA,NA,NA,NA,NA,"虚伪","i","",NA,1,75,155,31,1,"",NA,"",NA,NA,NA,NA,NA,NA,NA,"",NA,"",NA,NA,NA,NA,NA,NA,NA,"","","",NA,"",NA,NA,NA,NA,NA,NA,NA,"",NA,"17"
"",NA,"",NA,"",NA,NA,NA,NA,NA,NA,NA,"","",1,1,"2024-08-23_20h52.31.327","IAT(Formal)","2021.2.3","Win32",59.88023952,"",NA,"",NA,NA,NA,NA,NA,NA,NA,"","","",NA,"i",1,0.5009,NA,NA,NA,NA,NA,"下贱","i","",NA,1,76,156,49,1,"",NA,"",NA,NA,NA,NA,NA,NA,NA,"",NA,"",NA,NA,NA,NA,NA,NA,NA,"","","",NA,"",NA,NA,NA,NA,NA,NA,NA,"",NA,"17"
"",NA,"",NA,"",NA,NA,NA,NA,NA,NA,NA,"","",1,1,"2024-08-23_20h52.31.327","IAT(Formal)","2021.2.3","Win32",59.88023952,"",NA,"",NA,NA,NA,NA,NA,NA,NA,"","","",NA,"i",1,0.591,NA,NA,NA,NA,NA,"他人","i","",NA,1,77,157,8,1,"",NA,"",NA,NA,NA,NA,NA,NA,NA,"",NA,"",NA,NA,NA,NA,NA,NA,NA,"","","",NA,"",NA,NA,NA,NA,NA,NA,NA,"",NA,"17"
"",NA,"",NA,"",NA,NA,NA,NA,NA,NA,NA,"","",1,1,"2024-08-23_20h52.31.327","IAT(Formal)","2021.2.3","Win32",59.88023952,"",NA,"",NA,NA,NA,NA,NA,NA,NA,"","","",NA,"i",0,0.463,NA,NA,NA,NA,NA,"我","e","",NA,1,78,158,70,1,"",NA,"",NA,NA,NA,NA,NA,NA,NA,"",NA,"",NA,NA,NA,NA,NA,NA,NA,"","","",NA,"",NA,NA,NA,NA,NA,NA,NA,"",NA,"17"
"",NA,"",NA,"",NA,NA,NA,NA,NA,NA,NA,"","",1,1,"2024-08-23_20h52.31.327","IAT(Formal)","2021.2.3","Win32",59.88023952,"",NA,"",NA,NA,NA,NA,NA,NA,NA,"","","",NA,"i",1,1.1185,NA,NA,NA,NA,NA,"他们","i","",NA,1,79,159,56,1,"",NA,"",NA,NA,NA,NA,NA,NA,NA,"",NA,"",NA,NA,NA,NA,NA,NA,NA,"","","",NA,"",NA,NA,NA,NA,NA,NA,NA,"",NA,"17"
"",NA,"",NA,"",NA,NA,NA,NA,NA,NA,NA,"他","e",1,1,"2024-08-23_20h52.31.327","IAT(Formal)","2021.2.3","Win32",59.88023952,"",NA,"",NA,NA,NA,NA,NA,NA,NA,"","","",NA,"",NA,NA,NA,NA,NA,NA,NA,"","","",NA,NA,NA,NA,NA,NA,"space",19.601,"e",1,1.108,0,0,0,5,1,"",NA,"",NA,NA,NA,NA,NA,NA,NA,"","","",NA,"",NA,NA,NA,NA,NA,NA,NA,"",NA,"17"
"",NA,"",NA,"",NA,NA,NA,NA,NA,NA,NA,"俺","i",1,1,"2024-08-23_20h52.31.327","IAT(Formal)","2021.2.3","Win32",59.88023952,"",NA,"",NA,NA,NA,NA,NA,NA,NA,"","","",NA,"",NA,NA,NA,NA,NA,NA,NA,"","","",NA,NA,NA,NA,NA,NA,"",NA,"i",1,0.869,0,1,1,4,1,"",NA,"",NA,NA,NA,NA,NA,NA,NA,"","","",NA,"",NA,NA,NA,NA,NA,NA,NA,"",NA,"17"
"",NA,"",NA,"",NA,NA,NA,NA,NA,NA,NA,"我","i",1,1,"2024-08-23_20h52.31.327","IAT(Formal)","2021.2.3","Win32",59.88023952,"",NA,"",NA,NA,NA,NA,NA,NA,NA,"","","",NA,"",NA,NA,NA,NA,NA,NA,NA,"","","",NA,NA,NA,NA,NA,NA,"",NA,"i",1,0.792,0,2,2,0,1,"",NA,"",NA,NA,NA,NA,NA,NA,NA,"","","",NA,"",NA,NA,NA,NA,NA,NA,NA,"",NA,"17"
"",NA,"",NA,"",NA,NA,NA,NA,NA,NA,NA,"我们","i",1,1,"2024-08-23_20h52.31.327","IAT(Formal)","2021.2.3","Win32",59.88023952,"",NA,"",NA,NA,NA,NA,NA,NA,NA,"","","",NA,"",NA,NA,NA,NA,NA,NA,NA,"","","",NA,NA,NA,NA,NA,NA,"",NA,"i",1,0.6231,0,3,3,2,1,"",NA,"",NA,NA,NA,NA,NA,NA,NA,"","","",NA,"",NA,NA,NA,NA,NA,NA,NA,"",NA,"17"
"",NA,"",NA,"",NA,NA,NA,NA,NA,NA,NA,"自己","i",1,1,"2024-08-23_20h52.31.327","IAT(Formal)","2021.2.3","Win32",59.88023952,"",NA,"",NA,NA,NA,NA,NA,NA,NA,"","","",NA,"",NA,NA,NA,NA,NA,NA,NA,"","","",NA,NA,NA,NA,NA,NA,"",NA,"i",1,0.5471,0,4,4,3,1,"",NA,"",NA,NA,NA,NA,NA,NA,NA,"","","",NA,"",NA,NA,NA,NA,NA,NA,NA,"",NA,"17"
"",NA,"",NA,"",NA,NA,NA,NA,NA,NA,NA,"我的","i",1,1,"2024-08-23_20h52.31.327","IAT(Formal)","2021.2.3","Win32",59.88023952,"",NA,"",NA,NA,NA,NA,NA,NA,NA,"","","",NA,"",NA,NA,NA,NA,NA,NA,NA,"","","",NA,NA,NA,NA,NA,NA,"",NA,"i",1,0.7058,0,5,5,1,1,"",NA,"",NA,NA,NA,NA,NA,NA,NA,"","","",NA,"",NA,NA,NA,NA,NA,NA,NA,"",NA,"17"
"",NA,"",NA,"",NA,NA,NA,NA,NA,NA,NA,"他人","e",1,1,"2024-08-23_20h52.31.327","IAT(Formal)","2021.2.3","Win32",59.88023952,"",NA,"",NA,NA,NA,NA,NA,NA,NA,"","","",NA,"",NA,NA,NA,NA,NA,NA,NA,"","","",NA,NA,NA,NA,NA,NA,"",NA,"i",0,0.445,0,6,6,8,1,"",NA,"",NA,NA,NA,NA,NA,NA,NA,"","","",NA,"",NA,NA,NA,NA,NA,NA,NA,"",NA,"17"
"",NA,"",NA,"",NA,NA,NA,NA,NA,NA,NA,"他的","e",1,1,"2024-08-23_20h52.31.327","IAT(Formal)","2021.2.3","Win32",59.88023952,"",NA,"",NA,NA,NA,NA,NA,NA,NA,"","","",NA,"",NA,NA,NA,NA,NA,NA,NA,"","","",NA,NA,NA,NA,NA,NA,"",NA,"e",1,0.4909,0,7,7,7,1,"",NA,"",NA,NA,NA,NA,NA,NA,NA,"","","",NA,"",NA,NA,NA,NA,NA,NA,NA,"",NA,"17"
"",NA,"",NA,"",NA,NA,NA,NA,NA,NA,NA,"他们","e",1,1,"2024-08-23_20h52.31.327","IAT(Formal)","2021.2.3","Win32",59.88023952,"",NA,"",NA,NA,NA,NA,NA,NA,NA,"","","",NA,"",NA,NA,NA,NA,NA,NA,NA,"","","",NA,NA,NA,NA,NA,NA,"",NA,"e",1,0.7421,0,8,8,6,1,"",NA,"",NA,NA,NA,NA,NA,NA,NA,"","","",NA,"",NA,NA,NA,NA,NA,NA,NA,"",NA,"17"
"",NA,"",NA,"",NA,NA,NA,NA,NA,NA,NA,"其他","e",1,1,"2024-08-23_20h52.31.327","IAT(Formal)","2021.2.3","Win32",59.88023952,"",NA,"",NA,NA,NA,NA,NA,NA,NA,"","","",NA,"",NA,NA,NA,NA,NA,NA,NA,"","","",NA,NA,NA,NA,NA,NA,"",NA,"e",1,0.7056,0,9,9,9,1,"",NA,"",NA,NA,NA,NA,NA,NA,NA,"","","",NA,"",NA,NA,NA,NA,NA,NA,NA,"",NA,"17"
"",NA,"",NA,"",NA,NA,NA,NA,NA,NA,NA,"","",1,1,"2024-08-23_20h52.31.327","IAT(Formal)","2021.2.3","Win32",59.88023952,"",NA,"",NA,NA,NA,NA,NA,NA,NA,"","","",NA,"",NA,NA,NA,NA,NA,NA,NA,"","","",NA,NA,NA,NA,NA,NA,"",NA,"",NA,NA,NA,NA,NA,NA,NA,"space",6.124,"e",0,1.4213,0,0,0,38,1,"鲁莽","i","",NA,"",NA,NA,NA,NA,NA,NA,NA,"",NA,"17"
"",NA,"",NA,"",NA,NA,NA,NA,NA,NA,NA,"","",1,1,"2024-08-23_20h52.31.327","IAT(Formal)","2021.2.3","Win32",59.88023952,"",NA,"",NA,NA,NA,NA,NA,NA,NA,"","","",NA,"",NA,NA,NA,NA,NA,NA,NA,"","","",NA,NA,NA,NA,NA,NA,"",NA,"",NA,NA,NA,NA,NA,NA,NA,"",NA,"e",1,1.0061,0,1,1,7,1,"他的","e","",NA,"",NA,NA,NA,NA,NA,NA,NA,"",NA,"17"
"",NA,"",NA,"",NA,NA,NA,NA,NA,NA,NA,"","",1,1,"2024-08-23_20h52.31.327","IAT(Formal)","2021.2.3","Win32",59.88023952,"",NA,"",NA,NA,NA,NA,NA,NA,NA,"","","",NA,"",NA,NA,NA,NA,NA,NA,NA,"","","",NA,NA,NA,NA,NA,NA,"",NA,"",NA,NA,NA,NA,NA,NA,NA,"",NA,"e",1,0.8377,0,2,2,57,1,"他的","e","",NA,"",NA,NA,NA,NA,NA,NA,NA,"",NA,"17"
"",NA,"",NA,"",NA,NA,NA,NA,NA,NA,NA,"","",1,1,"2024-08-23_20h52.31.327","IAT(Formal)","2021.2.3","Win32",59.88023952,"",NA,"",NA,NA,NA,NA,NA,NA,NA,"","","",NA,"",NA,NA,NA,NA,NA,NA,NA,"","","",NA,NA,NA,NA,NA,NA,"",NA,"",NA,NA,NA,NA,NA,NA,NA,"",NA,"e",1,1.0556,0,3,3,23,1,"公正","e","",NA,"",NA,NA,NA,NA,NA,NA,NA,"",NA,"17"
"",NA,"",NA,"",NA,NA,NA,NA,NA,NA,NA,"","",1,1,"2024-08-23_20h52.31.327","IAT(Formal)","2021.2.3","Win32",59.88023952,"",NA,"",NA,NA,NA,NA,NA,NA,NA,"","","",NA,"",NA,NA,NA,NA,NA,NA,NA,"","","",NA,NA,NA,NA,NA,NA,"",NA,"",NA,NA,NA,NA,NA,NA,NA,"",NA,"e",1,1.0075,0,4,4,13,1,"杰出","e","",NA,"",NA,NA,NA,NA,NA,NA,NA,"",NA,"17"
