"X.Instruction1.keys","Instruction1.rt","Instruction2.keys","Instruction2.rt","key_resp_iso.keys","key_resp_iso.corr","key_resp_iso.rt","Practice_01.thisRepN","Practice_01.thisTrialN","Practice_01.thisN","Practice_01.thisIndex","Practice_01.ran","Words","ans","participant","session","date","expName","psychopyVersion","OS","frameRate","key_resp_3.keys","key_resp_3.rt","key_resp_ipn.keys","key_resp_ipn.corr","key_resp_ipn.rt","Practice_02.thisRepN","Practice_02.thisTrialN","Practice_02.thisN","Practice_02.thisIndex","Practice_02.ran","Words_ipn","ans_ipn","key_resp_4.keys","key_resp_4.rt","key_resp_t1.keys","key_resp_t1.corr","key_resp_t1.rt","Practice_T1.thisRepN","Practice_T1.thisTrialN","Practice_T1.thisN","Practice_T1.thisIndex","Practice_T1.ran","Words_t1","ans_t1","key_resp_5.keys","key_resp_5.rt","Formal_T1.thisRepN","Formal_T1.thisTrialN","Formal_T1.thisN","Formal_T1.thisIndex","Formal_T1.ran","key_resp_6.keys","key_resp_6.rt","key_resp_iso_reverse.keys","key_resp_iso_reverse.corr","key_resp_iso_reverse.rt","Practice_iso_Reverse.thisRepN","Practice_iso_Reverse.thisTrialN","Practice_iso_Reverse.thisN","Practice_iso_Reverse.thisIndex","Practice_iso_Reverse.ran","key_resp_7.keys","key_resp_7.rt","key_resp_t2_Practice.keys","key_resp_t2_Practice.corr","key_resp_t2_Practice.rt","Practice_t2_Reverse.thisRepN","Practice_t2_Reverse.thisTrialN","Practice_t2_Reverse.thisN","Practice_t2_Reverse.thisIndex","Practice_t2_Reverse.ran","Words_t2","ans_t2","key_resp_8.keys","key_resp_8.rt","key_resp_t2.keys","key_resp_t2.corr","key_resp_t2.rt","Formal_t2_reverse.thisRepN","Formal_t2_reverse.thisTrialN","Formal_t2_reverse.thisN","Formal_t2_reverse.thisIndex","Formal_t2_reverse.ran","key_instruct.keys","key_instruct.rt","Subject"
"space",5.6426,"space",5.4283,"i",1,0.4901,0,0,0,7,1,"他的","i",1,1,"2024-08-23_22h44.48.957","IAT(Formal)","2021.2.3","Win32",238.0952381,"",NA,"",NA,NA,NA,NA,NA,NA,NA,"","","",NA,"",NA,NA,NA,NA,NA,NA,NA,"","","",NA,NA,NA,NA,NA,NA,"",NA,"",NA,NA,NA,NA,NA,NA,NA,"",NA,"",NA,NA,NA,NA,NA,NA,NA,"","","",NA,"",NA,NA,NA,NA,NA,NA,NA,"",NA,"19"
"",NA,"",NA,"i",1,0.582,0,1,1,5,1,"他","i",1,1,"2024-08-23_22h44.48.957","IAT(Formal)","2021.2.3","Win32",238.0952381,"",NA,"",NA,NA,NA,NA,NA,NA,NA,"","","",NA,"",NA,NA,NA,NA,NA,NA,NA,"","","",NA,NA,NA,NA,NA,NA,"",NA,"",NA,NA,NA,NA,NA,NA,NA,"",NA,"",NA,NA,NA,NA,NA,NA,NA,"","","",NA,"",NA,NA,NA,NA,NA,NA,NA,"",NA,"19"
"",NA,"",NA,"e",1,0.3759,0,2,2,0,1,"我","e",1,1,"2024-08-23_22h44.48.957","IAT(Formal)","2021.2.3","Win32",238.0952381,"",NA,"",NA,NA,NA,NA,NA,NA,NA,"","","",NA,"",NA,NA,NA,NA,NA,NA,NA,"","","",NA,NA,NA,NA,NA,NA,"",NA,"",NA,NA,NA,NA,NA,NA,NA,"",NA,"",NA,NA,NA,NA,NA,NA,NA,"","","",NA,"",NA,NA,NA,NA,NA,NA,NA,"",NA,"19"
"",NA,"",NA,"i",1,0.2884,0,3,3,8,1,"他人","i",1,1,"2024-08-23_22h44.48.957","IAT(Formal)","2021.2.3","Win32",238.0952381,"",NA,"",NA,NA,NA,NA,NA,NA,NA,"","","",NA,"",NA,NA,NA,NA,NA,NA,NA,"","","",NA,NA,NA,NA,NA,NA,"",NA,"",NA,NA,NA,NA,NA,NA,NA,"",NA,"",NA,NA,NA,NA,NA,NA,NA,"","","",NA,"",NA,NA,NA,NA,NA,NA,NA,"",NA,"19"
"",NA,"",NA,"e",1,0.3131,0,4,4,3,1,"自己","e",1,1,"2024-08-23_22h44.48.957","IAT(Formal)","2021.2.3","Win32",238.0952381,"",NA,"",NA,NA,NA,NA,NA,NA,NA,"","","",NA,"",NA,NA,NA,NA,NA,NA,NA,"","","",NA,NA,NA,NA,NA,NA,"",NA,"",NA,NA,NA,NA,NA,NA,NA,"",NA,"",NA,NA,NA,NA,NA,NA,NA,"","","",NA,"",NA,NA,NA,NA,NA,NA,NA,"",NA,"19"
"",NA,"",NA,"e",1,0.4382,0,5,5,4,1,"俺","e",1,1,"2024-08-23_22h44.48.957","IAT(Formal)","2021.2.3","Win32",238.0952381,"",NA,"",NA,NA,NA,NA,NA,NA,NA,"","","",NA,"",NA,NA,NA,NA,NA,NA,NA,"","","",NA,NA,NA,NA,NA,NA,"",NA,"",NA,NA,NA,NA,NA,NA,NA,"",NA,"",NA,NA,NA,NA,NA,NA,NA,"","","",NA,"",NA,NA,NA,NA,NA,NA,NA,"",NA,"19"
"",NA,"",NA,"i",1,0.5249,0,6,6,9,1,"其他","i",1,1,"2024-08-23_22h44.48.957","IAT(Formal)","2021.2.3","Win32",238.0952381,"",NA,"",NA,NA,NA,NA,NA,NA,NA,"","","",NA,"",NA,NA,NA,NA,NA,NA,NA,"","","",NA,NA,NA,NA,NA,NA,"",NA,"",NA,NA,NA,NA,NA,NA,NA,"",NA,"",NA,NA,NA,NA,NA,NA,NA,"","","",NA,"",NA,NA,NA,NA,NA,NA,NA,"",NA,"19"
"",NA,"",NA,"i",1,0.5013,0,7,7,6,1,"他们","i",1,1,"2024-08-23_22h44.48.957","IAT(Formal)","2021.2.3","Win32",238.0952381,"",NA,"",NA,NA,NA,NA,NA,NA,NA,"","","",NA,"",NA,NA,NA,NA,NA,NA,NA,"","","",NA,NA,NA,NA,NA,NA,"",NA,"",NA,NA,NA,NA,NA,NA,NA,"",NA,"",NA,NA,NA,NA,NA,NA,NA,"","","",NA,"",NA,NA,NA,NA,NA,NA,NA,"",NA,"19"
"",NA,"",NA,"e",1,0.3882,0,8,8,1,1,"我的","e",1,1,"2024-08-23_22h44.48.957","IAT(Formal)","2021.2.3","Win32",238.0952381,"",NA,"",NA,NA,NA,NA,NA,NA,NA,"","","",NA,"",NA,NA,NA,NA,NA,NA,NA,"","","",NA,NA,NA,NA,NA,NA,"",NA,"",NA,NA,NA,NA,NA,NA,NA,"",NA,"",NA,NA,NA,NA,NA,NA,NA,"","","",NA,"",NA,NA,NA,NA,NA,NA,NA,"",NA,"19"
"",NA,"",NA,"e",1,0.3429,0,9,9,2,1,"我们","e",1,1,"2024-08-23_22h44.48.957","IAT(Formal)","2021.2.3","Win32",238.0952381,"",NA,"",NA,NA,NA,NA,NA,NA,NA,"","","",NA,"",NA,NA,NA,NA,NA,NA,NA,"","","",NA,NA,NA,NA,NA,NA,"",NA,"",NA,NA,NA,NA,NA,NA,NA,"",NA,"",NA,NA,NA,NA,NA,NA,NA,"","","",NA,"",NA,NA,NA,NA,NA,NA,NA,"",NA,"19"
"",NA,"",NA,"",NA,NA,NA,NA,NA,NA,NA,"","",1,1,"2024-08-23_22h44.48.957","IAT(Formal)","2021.2.3","Win32",238.0952381,"space",5.1695,"i",1,0.43,0,0,0,32,1,"凶狠","i","",NA,"",NA,NA,NA,NA,NA,NA,NA,"","","",NA,NA,NA,NA,NA,NA,"",NA,"",NA,NA,NA,NA,NA,NA,NA,"",NA,"",NA,NA,NA,NA,NA,NA,NA,"","","",NA,"",NA,NA,NA,NA,NA,NA,NA,"",NA,"19"
"",NA,"",NA,"",NA,NA,NA,NA,NA,NA,NA,"","",1,1,"2024-08-23_22h44.48.957","IAT(Formal)","2021.2.3","Win32",238.0952381,"",NA,"e",1,0.4632,0,1,1,15,1,"细腻","e","",NA,"",NA,NA,NA,NA,NA,NA,NA,"","","",NA,NA,NA,NA,NA,NA,"",NA,"",NA,NA,NA,NA,NA,NA,NA,"",NA,"",NA,NA,NA,NA,NA,NA,NA,"","","",NA,"",NA,NA,NA,NA,NA,NA,NA,"",NA,"19"
"",NA,"",NA,"",NA,NA,NA,NA,NA,NA,NA,"","",1,1,"2024-08-23_22h44.48.957","IAT(Formal)","2021.2.3","Win32",238.0952381,"",NA,"e",0,0.4095,0,2,2,33,1,"自私","i","",NA,"",NA,NA,NA,NA,NA,NA,NA,"","","",NA,NA,NA,NA,NA,NA,"",NA,"",NA,NA,NA,NA,NA,NA,NA,"",NA,"",NA,NA,NA,NA,NA,NA,NA,"","","",NA,"",NA,NA,NA,NA,NA,NA,NA,"",NA,"19"
"",NA,"",NA,"",NA,NA,NA,NA,NA,NA,NA,"","",1,1,"2024-08-23_22h44.48.957","IAT(Formal)","2021.2.3","Win32",238.0952381,"",NA,"e",1,0.5935,0,3,3,0,1,"优秀","e","",NA,"",NA,NA,NA,NA,NA,NA,NA,"","","",NA,NA,NA,NA,NA,NA,"",NA,"",NA,NA,NA,NA,NA,NA,NA,"",NA,"",NA,NA,NA,NA,NA,NA,NA,"","","",NA,"",NA,NA,NA,NA,NA,NA,NA,"",NA,"19"
"",NA,"",NA,"",NA,NA,NA,NA,NA,NA,NA,"","",1,1,"2024-08-23_22h44.48.957","IAT(Formal)","2021.2.3","Win32",238.0952381,"",NA,"i",1,0.7597,0,4,4,26,1,"自卑","i","",NA,"",NA,NA,NA,NA,NA,NA,NA,"","","",NA,NA,NA,NA,NA,NA,"",NA,"",NA,NA,NA,NA,NA,NA,NA,"",NA,"",NA,NA,NA,NA,NA,NA,NA,"","","",NA,"",NA,NA,NA,NA,NA,NA,NA,"",NA,"19"
"",NA,"",NA,"",NA,NA,NA,NA,NA,NA,NA,"","",1,1,"2024-08-23_22h44.48.957","IAT(Formal)","2021.2.3","Win32",238.0952381,"",NA,"e",1,0.7555,0,5,5,12,1,"无私","e","",NA,"",NA,NA,NA,NA,NA,NA,NA,"","","",NA,NA,NA,NA,NA,NA,"",NA,"",NA,NA,NA,NA,NA,NA,NA,"",NA,"",NA,NA,NA,NA,NA,NA,NA,"","","",NA,"",NA,NA,NA,NA,NA,NA,NA,"",NA,"19"
"",NA,"",NA,"",NA,NA,NA,NA,NA,NA,NA,"","",1,1,"2024-08-23_22h44.48.957","IAT(Formal)","2021.2.3","Win32",238.0952381,"",NA,"e",1,0.4462,0,6,6,6,1,"正直","e","",NA,"",NA,NA,NA,NA,NA,NA,NA,"","","",NA,NA,NA,NA,NA,NA,"",NA,"",NA,NA,NA,NA,NA,NA,NA,"",NA,"",NA,NA,NA,NA,NA,NA,NA,"","","",NA,"",NA,NA,NA,NA,NA,NA,NA,"",NA,"19"
"",NA,"",NA,"",NA,NA,NA,NA,NA,NA,NA,"","",1,1,"2024-08-23_22h44.48.957","IAT(Formal)","2021.2.3","Win32",238.0952381,"",NA,"i",1,0.5136,0,7,7,23,1,"刻薄","i","",NA,"",NA,NA,NA,NA,NA,NA,NA,"","","",NA,NA,NA,NA,NA,NA,"",NA,"",NA,NA,NA,NA,NA,NA,NA,"",NA,"",NA,NA,NA,NA,NA,NA,NA,"","","",NA,"",NA,NA,NA,NA,NA,NA,NA,"",NA,"19"
"",NA,"",NA,"",NA,NA,NA,NA,NA,NA,NA,"","",1,1,"2024-08-23_22h44.48.957","IAT(Formal)","2021.2.3","Win32",238.0952381,"",NA,"e",1,0.3887,0,8,8,10,1,"认真","e","",NA,"",NA,NA,NA,NA,NA,NA,NA,"","","",NA,NA,NA,NA,NA,NA,"",NA,"",NA,NA,NA,NA,NA,NA,NA,"",NA,"",NA,NA,NA,NA,NA,NA,NA,"","","",NA,"",NA,NA,NA,NA,NA,NA,NA,"",NA,"19"
"",NA,"",NA,"",NA,NA,NA,NA,NA,NA,NA,"","",1,1,"2024-08-23_22h44.48.957","IAT(Formal)","2021.2.3","Win32",238.0952381,"",NA,"e",1,0.4426,0,9,9,7,1,"勇敢","e","",NA,"",NA,NA,NA,NA,NA,NA,NA,"","","",NA,NA,NA,NA,NA,NA,"",NA,"",NA,NA,NA,NA,NA,NA,NA,"",NA,"",NA,NA,NA,NA,NA,NA,NA,"","","",NA,"",NA,NA,NA,NA,NA,NA,NA,"",NA,"19"
"",NA,"",NA,"",NA,NA,NA,NA,NA,NA,NA,"","",1,1,"2024-08-23_22h44.48.957","IAT(Formal)","2021.2.3","Win32",238.0952381,"",NA,"i",1,0.4713,0,10,10,21,1,"虚伪","i","",NA,"",NA,NA,NA,NA,NA,NA,NA,"","","",NA,NA,NA,NA,NA,NA,"",NA,"",NA,NA,NA,NA,NA,NA,NA,"",NA,"",NA,NA,NA,NA,NA,NA,NA,"","","",NA,"",NA,NA,NA,NA,NA,NA,NA,"",NA,"19"
"",NA,"",NA,"",NA,NA,NA,NA,NA,NA,NA,"","",1,1,"2024-08-23_22h44.48.957","IAT(Formal)","2021.2.3","Win32",238.0952381,"",NA,"i",1,0.4967,0,11,11,36,1,"野蛮","i","",NA,"",NA,NA,NA,NA,NA,NA,NA,"","","",NA,NA,NA,NA,NA,NA,"",NA,"",NA,NA,NA,NA,NA,NA,NA,"",NA,"",NA,NA,NA,NA,NA,NA,NA,"","","",NA,"",NA,NA,NA,NA,NA,NA,NA,"",NA,"19"
"",NA,"",NA,"",NA,NA,NA,NA,NA,NA,NA,"","",1,1,"2024-08-23_22h44.48.957","IAT(Formal)","2021.2.3","Win32",238.0952381,"",NA,"i",1,0.4416,0,12,12,28,1,"鲁莽","i","",NA,"",NA,NA,NA,NA,NA,NA,NA,"","","",NA,NA,NA,NA,NA,NA,"",NA,"",NA,NA,NA,NA,NA,NA,NA,"",NA,"",NA,NA,NA,NA,NA,NA,NA,"","","",NA,"",NA,NA,NA,NA,NA,NA,NA,"",NA,"19"
"",NA,"",NA,"",NA,NA,NA,NA,NA,NA,NA,"","",1,1,"2024-08-23_22h44.48.957","IAT(Formal)","2021.2.3","Win32",238.0952381,"",NA,"e",1,0.6004,0,13,13,14,1,"朴实","e","",NA,"",NA,NA,NA,NA,NA,NA,NA,"","","",NA,NA,NA,NA,NA,NA,"",NA,"",NA,NA,NA,NA,NA,NA,NA,"",NA,"",NA,NA,NA,NA,NA,NA,NA,"","","",NA,"",NA,NA,NA,NA,NA,NA,NA,"",NA,"19"
"",NA,"",NA,"",NA,NA,NA,NA,NA,NA,NA,"","",1,1,"2024-08-23_22h44.48.957","IAT(Formal)","2021.2.3","Win32",238.0952381,"",NA,"e",1,0.4641,0,14,14,11,1,"稳重","e","",NA,"",NA,NA,NA,NA,NA,NA,NA,"","","",NA,NA,NA,NA,NA,NA,"",NA,"",NA,NA,NA,NA,NA,NA,NA,"",NA,"",NA,NA,NA,NA,NA,NA,NA,"","","",NA,"",NA,NA,NA,NA,NA,NA,NA,"",NA,"19"
"",NA,"",NA,"",NA,NA,NA,NA,NA,NA,NA,"","",1,1,"2024-08-23_22h44.48.957","IAT(Formal)","2021.2.3","Win32",238.0952381,"",NA,"i",1,0.4721,0,15,15,22,1,"愚蠢","i","",NA,"",NA,NA,NA,NA,NA,NA,NA,"","","",NA,NA,NA,NA,NA,NA,"",NA,"",NA,NA,NA,NA,NA,NA,NA,"",NA,"",NA,NA,NA,NA,NA,NA,NA,"","","",NA,"",NA,NA,NA,NA,NA,NA,NA,"",NA,"19"
"",NA,"",NA,"",NA,NA,NA,NA,NA,NA,NA,"","",1,1,"2024-08-23_22h44.48.957","IAT(Formal)","2021.2.3","Win32",238.0952381,"",NA,"e",1,0.4426,0,16,16,4,1,"乐观","e","",NA,"",NA,NA,NA,NA,NA,NA,NA,"","","",NA,NA,NA,NA,NA,NA,"",NA,"",NA,NA,NA,NA,NA,NA,NA,"",NA,"",NA,NA,NA,NA,NA,NA,NA,"","","",NA,"",NA,NA,NA,NA,NA,NA,NA,"",NA,"19"
"",NA,"",NA,"",NA,NA,NA,NA,NA,NA,NA,"","",1,1,"2024-08-23_22h44.48.957","IAT(Formal)","2021.2.3","Win32",238.0952381,"",NA,"i",1,0.5352,0,17,17,20,1,"卑鄙","i","",NA,"",NA,NA,NA,NA,NA,NA,NA,"","","",NA,NA,NA,NA,NA,NA,"",NA,"",NA,NA,NA,NA,NA,NA,NA,"",NA,"",NA,NA,NA,NA,NA,NA,NA,"","","",NA,"",NA,NA,NA,NA,NA,NA,NA,"",NA,"19"
"",NA,"",NA,"",NA,NA,NA,NA,NA,NA,NA,"","",1,1,"2024-08-23_22h44.48.957","IAT(Formal)","2021.2.3","Win32",238.0952381,"",NA,"e",1,0.3722,0,18,18,5,1,"诚实","e","",NA,"",NA,NA,NA,NA,NA,NA,NA,"","","",NA,NA,NA,NA,NA,NA,"",NA,"",NA,NA,NA,NA,NA,NA,NA,"",NA,"",NA,NA,NA,NA,NA,NA,NA,"","","",NA,"",NA,NA,NA,NA,NA,NA,NA,"",NA,"19"
"",NA,"",NA,"",NA,NA,NA,NA,NA,NA,NA,"","",1,1,"2024-08-23_22h44.48.957","IAT(Formal)","2021.2.3","Win32",238.0952381,"",NA,"i",1,0.4515,0,19,19,27,1,"傲慢","i","",NA,"",NA,NA,NA,NA,NA,NA,NA,"","","",NA,NA,NA,NA,NA,NA,"",NA,"",NA,NA,NA,NA,NA,NA,NA,"",NA,"",NA,NA,NA,NA,NA,NA,NA,"","","",NA,"",NA,NA,NA,NA,NA,NA,NA,"",NA,"19"
"",NA,"",NA,"",NA,NA,NA,NA,NA,NA,NA,"","",1,1,"2024-08-23_22h44.48.957","IAT(Formal)","2021.2.3","Win32",238.0952381,"",NA,"i",1,0.507,0,20,20,39,1,"下贱","i","",NA,"",NA,NA,NA,NA,NA,NA,NA,"","","",NA,NA,NA,NA,NA,NA,"",NA,"",NA,NA,NA,NA,NA,NA,NA,"",NA,"",NA,NA,NA,NA,NA,NA,NA,"","","",NA,"",NA,NA,NA,NA,NA,NA,NA,"",NA,"19"
"",NA,"",NA,"",NA,NA,NA,NA,NA,NA,NA,"","",1,1,"2024-08-23_22h44.48.957","IAT(Formal)","2021.2.3","Win32",238.0952381,"",NA,"i",1,0.8309,0,21,21,30,1,"执拗","i","",NA,"",NA,NA,NA,NA,NA,NA,NA,"","","",NA,NA,NA,NA,NA,NA,"",NA,"",NA,NA,NA,NA,NA,NA,NA,"",NA,"",NA,NA,NA,NA,NA,NA,NA,"","","",NA,"",NA,NA,NA,NA,NA,NA,NA,"",NA,"19"
"",NA,"",NA,"",NA,NA,NA,NA,NA,NA,NA,"","",1,1,"2024-08-23_22h44.48.957","IAT(Formal)","2021.2.3","Win32",238.0952381,"",NA,"i",1,0.4595,0,22,22,24,1,"悲观","i","",NA,"",NA,NA,NA,NA,NA,NA,NA,"","","",NA,NA,NA,NA,NA,NA,"",NA,"",NA,NA,NA,NA,NA,NA,NA,"",NA,"",NA,NA,NA,NA,NA,NA,NA,"","","",NA,"",NA,NA,NA,NA,NA,NA,NA,"",NA,"19"
"",NA,"",NA,"",NA,NA,NA,NA,NA,NA,NA,"","",1,1,"2024-08-23_22h44.48.957","IAT(Formal)","2021.2.3","Win32",238.0952381,"",NA,"i",1,0.4459,0,23,23,35,1,"猖狂","i","",NA,"",NA,NA,NA,NA,NA,NA,NA,"","","",NA,NA,NA,NA,NA,NA,"",NA,"",NA,NA,NA,NA,NA,NA,NA,"",NA,"",NA,NA,NA,NA,NA,NA,NA,"","","",NA,"",NA,NA,NA,NA,NA,NA,NA,"",NA,"19"
"",NA,"",NA,"",NA,NA,NA,NA,NA,NA,NA,"","",1,1,"2024-08-23_22h44.48.957","IAT(Formal)","2021.2.3","Win32",238.0952381,"",NA,"e",1,0.496,0,24,24,1,1,"崇高","e","",NA,"",NA,NA,NA,NA,NA,NA,NA,"","","",NA,NA,NA,NA,NA,NA,"",NA,"",NA,NA,NA,NA,NA,NA,NA,"",NA,"",NA,NA,NA,NA,NA,NA,NA,"","","",NA,"",NA,NA,NA,NA,NA,NA,NA,"",NA,"19"
"",NA,"",NA,"",NA,NA,NA,NA,NA,NA,NA,"","",1,1,"2024-08-23_22h44.48.957","IAT(Formal)","2021.2.3","Win32",238.0952381,"",NA,"i",1,0.5526,0,25,25,34,1,"暴躁","i","",NA,"",NA,NA,NA,NA,NA,NA,NA,"","","",NA,NA,NA,NA,NA,NA,"",NA,"",NA,NA,NA,NA,NA,NA,NA,"",NA,"",NA,NA,NA,NA,NA,NA,NA,"","","",NA,"",NA,NA,NA,NA,NA,NA,NA,"",NA,"19"
"",NA,"",NA,"",NA,NA,NA,NA,NA,NA,NA,"","",1,1,"2024-08-23_22h44.48.957","IAT(Formal)","2021.2.3","Win32",238.0952381,"",NA,"e",1,0.8265,0,26,26,9,1,"机智","e","",NA,"",NA,NA,NA,NA,NA,NA,NA,"","","",NA,NA,NA,NA,NA,NA,"",NA,"",NA,NA,NA,NA,NA,NA,NA,"",NA,"",NA,NA,NA,NA,NA,NA,NA,"","","",NA,"",NA,NA,NA,NA,NA,NA,NA,"",NA,"19"
"",NA,"",NA,"",NA,NA,NA,NA,NA,NA,NA,"","",1,1,"2024-08-23_22h44.48.957","IAT(Formal)","2021.2.3","Win32",238.0952381,"",NA,"i",1,0.7375,0,27,27,38,1,"轻率","i","",NA,"",NA,NA,NA,NA,NA,NA,NA,"","","",NA,NA,NA,NA,NA,NA,"",NA,"",NA,NA,NA,NA,NA,NA,NA,"",NA,"",NA,NA,NA,NA,NA,NA,NA,"","","",NA,"",NA,NA,NA,NA,NA,NA,NA,"",NA,"19"
"",NA,"",NA,"",NA,NA,NA,NA,NA,NA,NA,"","",1,1,"2024-08-23_22h44.48.957","IAT(Formal)","2021.2.3","Win32",238.0952381,"",NA,"i",1,0.4981,0,28,28,31,1,"散漫","i","",NA,"",NA,NA,NA,NA,NA,NA,NA,"","","",NA,NA,NA,NA,NA,NA,"",NA,"",NA,NA,NA,NA,NA,NA,NA,"",NA,"",NA,NA,NA,NA,NA,NA,NA,"","","",NA,"",NA,NA,NA,NA,NA,NA,NA,"",NA,"19"
"",NA,"",NA,"",NA,NA,NA,NA,NA,NA,NA,"","",1,1,"2024-08-23_22h44.48.957","IAT(Formal)","2021.2.3","Win32",238.0952381,"",NA,"e",1,0.4867,0,29,29,3,1,"杰出","e","",NA,"",NA,NA,NA,NA,NA,NA,NA,"","","",NA,NA,NA,NA,NA,NA,"",NA,"",NA,NA,NA,NA,NA,NA,NA,"",NA,"",NA,NA,NA,NA,NA,NA,NA,"","","",NA,"",NA,NA,NA,NA,NA,NA,NA,"",NA,"19"
"",NA,"",NA,"",NA,NA,NA,NA,NA,NA,NA,"","",1,1,"2024-08-23_22h44.48.957","IAT(Formal)","2021.2.3","Win32",238.0952381,"",NA,"e",1,0.4048,0,30,30,17,1,"热情","e","",NA,"",NA,NA,NA,NA,NA,NA,NA,"","","",NA,NA,NA,NA,NA,NA,"",NA,"",NA,NA,NA,NA,NA,NA,NA,"",NA,"",NA,NA,NA,NA,NA,NA,NA,"","","",NA,"",NA,NA,NA,NA,NA,NA,NA,"",NA,"19"
"",NA,"",NA,"",NA,NA,NA,NA,NA,NA,NA,"","",1,1,"2024-08-23_22h44.48.957","IAT(Formal)","2021.2.3","Win32",238.0952381,"",NA,"e",1,0.6088,0,31,31,8,1,"勤奋","e","",NA,"",NA,NA,NA,NA,NA,NA,NA,"","","",NA,NA,NA,NA,NA,NA,"",NA,"",NA,NA,NA,NA,NA,NA,NA,"",NA,"",NA,NA,NA,NA,NA,NA,NA,"","","",NA,"",NA,NA,NA,NA,NA,NA,NA,"",NA,"19"
"",NA,"",NA,"",NA,NA,NA,NA,NA,NA,NA,"","",1,1,"2024-08-23_22h44.48.957","IAT(Formal)","2021.2.3","Win32",238.0952381,"",NA,"e",1,0.4842,0,32,32,19,1,"诚恳","e","",NA,"",NA,NA,NA,NA,NA,NA,NA,"","","",NA,NA,NA,NA,NA,NA,"",NA,"",NA,NA,NA,NA,NA,NA,NA,"",NA,"",NA,NA,NA,NA,NA,NA,NA,"","","",NA,"",NA,NA,NA,NA,NA,NA,NA,"",NA,"19"
"",NA,"",NA,"",NA,NA,NA,NA,NA,NA,NA,"","",1,1,"2024-08-23_22h44.48.957","IAT(Formal)","2021.2.3","Win32",238.0952381,"",NA,"e",1,0.3605,0,33,33,2,1,"聪明","e","",NA,"",NA,NA,NA,NA,NA,NA,NA,"","","",NA,NA,NA,NA,NA,NA,"",NA,"",NA,NA,NA,NA,NA,NA,NA,"",NA,"",NA,NA,NA,NA,NA,NA,NA,"","","",NA,"",NA,NA,NA,NA,NA,NA,NA,"",NA,"19"
"",NA,"",NA,"",NA,NA,NA,NA,NA,NA,NA,"","",1,1,"2024-08-23_22h44.48.957","IAT(Formal)","2021.2.3","Win32",238.0952381,"",NA,"e",1,0.3638,0,34,34,13,1,"公正","e","",NA,"",NA,NA,NA,NA,NA,NA,NA,"","","",NA,NA,NA,NA,NA,NA,"",NA,"",NA,NA,NA,NA,NA,NA,NA,"",NA,"",NA,NA,NA,NA,NA,NA,NA,"","","",NA,"",NA,NA,NA,NA,NA,NA,NA,"",NA,"19"
"",NA,"",NA,"",NA,NA,NA,NA,NA,NA,NA,"","",1,1,"2024-08-23_22h44.48.957","IAT(Formal)","2021.2.3","Win32",238.0952381,"",NA,"e",1,0.3708,0,35,35,18,1,"活泼","e","",NA,"",NA,NA,NA,NA,NA,NA,NA,"","","",NA,NA,NA,NA,NA,NA,"",NA,"",NA,NA,NA,NA,NA,NA,NA,"",NA,"",NA,NA,NA,NA,NA,NA,NA,"","","",NA,"",NA,NA,NA,NA,NA,NA,NA,"",NA,"19"
"",NA,"",NA,"",NA,NA,NA,NA,NA,NA,NA,"","",1,1,"2024-08-23_22h44.48.957","IAT(Formal)","2021.2.3","Win32",238.0952381,"",NA,"i",1,0.4421,0,36,36,37,1,"固执","i","",NA,"",NA,NA,NA,NA,NA,NA,NA,"","","",NA,NA,NA,NA,NA,NA,"",NA,"",NA,NA,NA,NA,NA,NA,NA,"",NA,"",NA,NA,NA,NA,NA,NA,NA,"","","",NA,"",NA,NA,NA,NA,NA,NA,NA,"",NA,"19"
"",NA,"",NA,"",NA,NA,NA,NA,NA,NA,NA,"","",1,1,"2024-08-23_22h44.48.957","IAT(Formal)","2021.2.3","Win32",238.0952381,"",NA,"e",1,0.6885,0,37,37,16,1,"冷静","e","",NA,"",NA,NA,NA,NA,NA,NA,NA,"","","",NA,NA,NA,NA,NA,NA,"",NA,"",NA,NA,NA,NA,NA,NA,NA,"",NA,"",NA,NA,NA,NA,NA,NA,NA,"","","",NA,"",NA,NA,NA,NA,NA,NA,NA,"",NA,"19"
"",NA,"",NA,"",NA,NA,NA,NA,NA,NA,NA,"","",1,1,"2024-08-23_22h44.48.957","IAT(Formal)","2021.2.3","Win32",238.0952381,"",NA,"i",1,0.4371,0,38,38,25,1,"消极","i","",NA,"",NA,NA,NA,NA,NA,NA,NA,"","","",NA,NA,NA,NA,NA,NA,"",NA,"",NA,NA,NA,NA,NA,NA,NA,"",NA,"",NA,NA,NA,NA,NA,NA,NA,"","","",NA,"",NA,NA,NA,NA,NA,NA,NA,"",NA,"19"
"",NA,"",NA,"",NA,NA,NA,NA,NA,NA,NA,"","",1,1,"2024-08-23_22h44.48.957","IAT(Formal)","2021.2.3","Win32",238.0952381,"",NA,"i",1,0.8931,0,39,39,29,1,"冒失","i","",NA,"",NA,NA,NA,NA,NA,NA,NA,"","","",NA,NA,NA,NA,NA,NA,"",NA,"",NA,NA,NA,NA,NA,NA,NA,"",NA,"",NA,NA,NA,NA,NA,NA,NA,"","","",NA,"",NA,NA,NA,NA,NA,NA,NA,"",NA,"19"
"",NA,"",NA,"",NA,NA,NA,NA,NA,NA,NA,"","",1,1,"2024-08-23_22h44.48.957","IAT(Formal)","2021.2.3","Win32",238.0952381,"",NA,"",NA,NA,NA,NA,NA,NA,NA,"","","space",6.9448,"i",1,0.6471,0,0,0,39,1,"冒失","i","",NA,NA,NA,NA,NA,NA,"",NA,"",NA,NA,NA,NA,NA,NA,NA,"",NA,"",NA,NA,NA,NA,NA,NA,NA,"","","",NA,"",NA,NA,NA,NA,NA,NA,NA,"",NA,"19"
"",NA,"",NA,"",NA,NA,NA,NA,NA,NA,NA,"","",1,1,"2024-08-23_22h44.48.957","IAT(Formal)","2021.2.3","Win32",238.0952381,"",NA,"",NA,NA,NA,NA,NA,NA,NA,"","","",NA,"i",1,0.4893,0,1,1,43,1,"自私","i","",NA,NA,NA,NA,NA,NA,"",NA,"",NA,NA,NA,NA,NA,NA,NA,"",NA,"",NA,NA,NA,NA,NA,NA,NA,"","","",NA,"",NA,NA,NA,NA,NA,NA,NA,"",NA,"19"
"",NA,"",NA,"",NA,NA,NA,NA,NA,NA,NA,"","",1,1,"2024-08-23_22h44.48.957","IAT(Formal)","2021.2.3","Win32",238.0952381,"",NA,"",NA,NA,NA,NA,NA,NA,NA,"","","",NA,"e",1,0.6046,0,2,2,22,1,"无私","e","",NA,NA,NA,NA,NA,NA,"",NA,"",NA,NA,NA,NA,NA,NA,NA,"",NA,"",NA,NA,NA,NA,NA,NA,NA,"","","",NA,"",NA,NA,NA,NA,NA,NA,NA,"",NA,"19"
"",NA,"",NA,"",NA,NA,NA,NA,NA,NA,NA,"","",1,1,"2024-08-23_22h44.48.957","IAT(Formal)","2021.2.3","Win32",238.0952381,"",NA,"",NA,NA,NA,NA,NA,NA,NA,"","","",NA,"e",1,0.4257,0,3,3,72,1,"我们","e","",NA,NA,NA,NA,NA,NA,"",NA,"",NA,NA,NA,NA,NA,NA,NA,"",NA,"",NA,NA,NA,NA,NA,NA,NA,"","","",NA,"",NA,NA,NA,NA,NA,NA,NA,"",NA,"19"
"",NA,"",NA,"",NA,NA,NA,NA,NA,NA,NA,"","",1,1,"2024-08-23_22h44.48.957","IAT(Formal)","2021.2.3","Win32",238.0952381,"",NA,"",NA,NA,NA,NA,NA,NA,NA,"","","",NA,"e",1,0.5904,0,4,4,15,1,"诚实","e","",NA,NA,NA,NA,NA,NA,"",NA,"",NA,NA,NA,NA,NA,NA,NA,"",NA,"",NA,NA,NA,NA,NA,NA,NA,"","","",NA,"",NA,NA,NA,NA,NA,NA,NA,"",NA,"19"
"",NA,"",NA,"",NA,NA,NA,NA,NA,NA,NA,"","",1,1,"2024-08-23_22h44.48.957","IAT(Formal)","2021.2.3","Win32",238.0952381,"",NA,"",NA,NA,NA,NA,NA,NA,NA,"","","",NA,"e",1,0.3588,0,5,5,60,1,"我","e","",NA,NA,NA,NA,NA,NA,"",NA,"",NA,NA,NA,NA,NA,NA,NA,"",NA,"",NA,NA,NA,NA,NA,NA,NA,"","","",NA,"",NA,NA,NA,NA,NA,NA,NA,"",NA,"19"
"",NA,"",NA,"",NA,NA,NA,NA,NA,NA,NA,"","",1,1,"2024-08-23_22h44.48.957","IAT(Formal)","2021.2.3","Win32",238.0952381,"",NA,"",NA,NA,NA,NA,NA,NA,NA,"","","",NA,"e",1,0.35,0,6,6,50,1,"我","e","",NA,NA,NA,NA,NA,NA,"",NA,"",NA,NA,NA,NA,NA,NA,NA,"",NA,"",NA,NA,NA,NA,NA,NA,NA,"","","",NA,"",NA,NA,NA,NA,NA,NA,NA,"",NA,"19"
"",NA,"",NA,"",NA,NA,NA,NA,NA,NA,NA,"","",1,1,"2024-08-23_22h44.48.957","IAT(Formal)","2021.2.3","Win32",238.0952381,"",NA,"",NA,NA,NA,NA,NA,NA,NA,"","","",NA,"i",1,0.6054,0,7,7,6,1,"他们","i","",NA,NA,NA,NA,NA,NA,"",NA,"",NA,NA,NA,NA,NA,NA,NA,"",NA,"",NA,NA,NA,NA,NA,NA,NA,"","","",NA,"",NA,NA,NA,NA,NA,NA,NA,"",NA,"19"
"",NA,"",NA,"",NA,NA,NA,NA,NA,NA,NA,"","",1,1,"2024-08-23_22h44.48.957","IAT(Formal)","2021.2.3","Win32",238.0952381,"",NA,"",NA,NA,NA,NA,NA,NA,NA,"","","",NA,"e",1,0.6099,0,8,8,71,1,"我的","e","",NA,NA,NA,NA,NA,NA,"",NA,"",NA,NA,NA,NA,NA,NA,NA,"",NA,"",NA,NA,NA,NA,NA,NA,NA,"","","",NA,"",NA,NA,NA,NA,NA,NA,NA,"",NA,"19"
"",NA,"",NA,"",NA,NA,NA,NA,NA,NA,NA,"","",1,1,"2024-08-23_22h44.48.957","IAT(Formal)","2021.2.3","Win32",238.0952381,"",NA,"",NA,NA,NA,NA,NA,NA,NA,"","","",NA,"e",1,0.3703,0,9,9,20,1,"认真","e","",NA,NA,NA,NA,NA,NA,"",NA,"",NA,NA,NA,NA,NA,NA,NA,"",NA,"",NA,NA,NA,NA,NA,NA,NA,"","","",NA,"",NA,NA,NA,NA,NA,NA,NA,"",NA,"19"
"",NA,"",NA,"",NA,NA,NA,NA,NA,NA,NA,"","",1,1,"2024-08-23_22h44.48.957","IAT(Formal)","2021.2.3","Win32",238.0952381,"",NA,"",NA,NA,NA,NA,NA,NA,NA,"","","",NA,"e",1,0.3664,0,10,10,16,1,"正直","e","",NA,NA,NA,NA,NA,NA,"",NA,"",NA,NA,NA,NA,NA,NA,NA,"",NA,"",NA,NA,NA,NA,NA,NA,NA,"","","",NA,"",NA,NA,NA,NA,NA,NA,NA,"",NA,"19"
"",NA,"",NA,"",NA,NA,NA,NA,NA,NA,NA,"","",1,1,"2024-08-23_22h44.48.957","IAT(Formal)","2021.2.3","Win32",238.0952381,"",NA,"",NA,NA,NA,NA,NA,NA,NA,"","","",NA,"i",1,0.4669,0,11,11,31,1,"虚伪","i","",NA,NA,NA,NA,NA,NA,"",NA,"",NA,NA,NA,NA,NA,NA,NA,"",NA,"",NA,NA,NA,NA,NA,NA,NA,"","","",NA,"",NA,NA,NA,NA,NA,NA,NA,"",NA,"19"
"",NA,"",NA,"",NA,NA,NA,NA,NA,NA,NA,"","",1,1,"2024-08-23_22h44.48.957","IAT(Formal)","2021.2.3","Win32",238.0952381,"",NA,"",NA,NA,NA,NA,NA,NA,NA,"","","",NA,"e",1,0.4554,0,12,12,27,1,"热情","e","",NA,NA,NA,NA,NA,NA,"",NA,"",NA,NA,NA,NA,NA,NA,NA,"",NA,"",NA,NA,NA,NA,NA,NA,NA,"","","",NA,"",NA,NA,NA,NA,NA,NA,NA,"",NA,"19"
"",NA,"",NA,"",NA,NA,NA,NA,NA,NA,NA,"","",1,1,"2024-08-23_22h44.48.957","IAT(Formal)","2021.2.3","Win32",238.0952381,"",NA,"",NA,NA,NA,NA,NA,NA,NA,"","","",NA,"e",1,0.4092,0,13,13,4,1,"俺","e","",NA,NA,NA,NA,NA,NA,"",NA,"",NA,NA,NA,NA,NA,NA,NA,"",NA,"",NA,NA,NA,NA,NA,NA,NA,"","","",NA,"",NA,NA,NA,NA,NA,NA,NA,"",NA,"19"
"",NA,"",NA,"",NA,NA,NA,NA,NA,NA,NA,"","",1,1,"2024-08-23_22h44.48.957","IAT(Formal)","2021.2.3","Win32",238.0952381,"",NA,"",NA,NA,NA,NA,NA,NA,NA,"","","",NA,"e",1,0.3129,0,14,14,0,1,"我","e","",NA,NA,NA,NA,NA,NA,"",NA,"",NA,NA,NA,NA,NA,NA,NA,"",NA,"",NA,NA,NA,NA,NA,NA,NA,"","","",NA,"",NA,NA,NA,NA,NA,NA,NA,"",NA,"19"
"",NA,"",NA,"",NA,NA,NA,NA,NA,NA,NA,"","",1,1,"2024-08-23_22h44.48.957","IAT(Formal)","2021.2.3","Win32",238.0952381,"",NA,"",NA,NA,NA,NA,NA,NA,NA,"","","",NA,"e",1,0.3645,0,15,15,2,1,"我们","e","",NA,NA,NA,NA,NA,NA,"",NA,"",NA,NA,NA,NA,NA,NA,NA,"",NA,"",NA,NA,NA,NA,NA,NA,NA,"","","",NA,"",NA,NA,NA,NA,NA,NA,NA,"",NA,"19"
"",NA,"",NA,"",NA,NA,NA,NA,NA,NA,NA,"","",1,1,"2024-08-23_22h44.48.957","IAT(Formal)","2021.2.3","Win32",238.0952381,"",NA,"",NA,NA,NA,NA,NA,NA,NA,"","","",NA,"i",1,0.4981,0,16,16,48,1,"轻率","i","",NA,NA,NA,NA,NA,NA,"",NA,"",NA,NA,NA,NA,NA,NA,NA,"",NA,"",NA,NA,NA,NA,NA,NA,NA,"","","",NA,"",NA,NA,NA,NA,NA,NA,NA,"",NA,"19"
"",NA,"",NA,"",NA,NA,NA,NA,NA,NA,NA,"","",1,1,"2024-08-23_22h44.48.957","IAT(Formal)","2021.2.3","Win32",238.0952381,"",NA,"",NA,NA,NA,NA,NA,NA,NA,"","","",NA,"i",1,0.5847,0,17,17,42,1,"凶狠","i","",NA,NA,NA,NA,NA,NA,"",NA,"",NA,NA,NA,NA,NA,NA,NA,"",NA,"",NA,NA,NA,NA,NA,NA,NA,"","","",NA,"",NA,NA,NA,NA,NA,NA,NA,"",NA,"19"
"",NA,"",NA,"",NA,NA,NA,NA,NA,NA,NA,"","",1,1,"2024-08-23_22h44.48.957","IAT(Formal)","2021.2.3","Win32",238.0952381,"",NA,"",NA,NA,NA,NA,NA,NA,NA,"","","",NA,"i",1,0.6184,0,18,18,65,1,"他","i","",NA,NA,NA,NA,NA,NA,"",NA,"",NA,NA,NA,NA,NA,NA,NA,"",NA,"",NA,NA,NA,NA,NA,NA,NA,"","","",NA,"",NA,NA,NA,NA,NA,NA,NA,"",NA,"19"
"",NA,"",NA,"",NA,NA,NA,NA,NA,NA,NA,"","",1,1,"2024-08-23_22h44.48.957","IAT(Formal)","2021.2.3","Win32",238.0952381,"",NA,"",NA,NA,NA,NA,NA,NA,NA,"","","",NA,"e",1,0.5024,0,19,19,12,1,"聪明","e","",NA,NA,NA,NA,NA,NA,"",NA,"",NA,NA,NA,NA,NA,NA,NA,"",NA,"",NA,NA,NA,NA,NA,NA,NA,"","","",NA,"",NA,NA,NA,NA,NA,NA,NA,"",NA,"19"
"",NA,"",NA,"",NA,NA,NA,NA,NA,NA,NA,"","",1,1,"2024-08-23_22h44.48.957","IAT(Formal)","2021.2.3","Win32",238.0952381,"",NA,"",NA,NA,NA,NA,NA,NA,NA,"","","",NA,"e",1,0.4046,0,20,20,23,1,"公正","e","",NA,NA,NA,NA,NA,NA,"",NA,"",NA,NA,NA,NA,NA,NA,NA,"",NA,"",NA,NA,NA,NA,NA,NA,NA,"","","",NA,"",NA,NA,NA,NA,NA,NA,NA,"",NA,"19"
"",NA,"",NA,"",NA,NA,NA,NA,NA,NA,NA,"","",1,1,"2024-08-23_22h44.48.957","IAT(Formal)","2021.2.3","Win32",238.0952381,"",NA,"",NA,NA,NA,NA,NA,NA,NA,"","","",NA,"i",1,0.6301,0,21,21,5,1,"他","i","",NA,NA,NA,NA,NA,NA,"",NA,"",NA,NA,NA,NA,NA,NA,NA,"",NA,"",NA,NA,NA,NA,NA,NA,NA,"","","",NA,"",NA,NA,NA,NA,NA,NA,NA,"",NA,"19"
"",NA,"",NA,"",NA,NA,NA,NA,NA,NA,NA,"","",1,1,"2024-08-23_22h44.48.957","IAT(Formal)","2021.2.3","Win32",238.0952381,"",NA,"",NA,NA,NA,NA,NA,NA,NA,"","","",NA,"i",1,0.4479,0,22,22,9,1,"其他","i","",NA,NA,NA,NA,NA,NA,"",NA,"",NA,NA,NA,NA,NA,NA,NA,"",NA,"",NA,NA,NA,NA,NA,NA,NA,"","","",NA,"",NA,NA,NA,NA,NA,NA,NA,"",NA,"19"
"",NA,"",NA,"",NA,NA,NA,NA,NA,NA,NA,"","",1,1,"2024-08-23_22h44.48.957","IAT(Formal)","2021.2.3","Win32",238.0952381,"",NA,"",NA,NA,NA,NA,NA,NA,NA,"","","",NA,"i",1,0.3754,0,23,23,58,1,"他人","i","",NA,NA,NA,NA,NA,NA,"",NA,"",NA,NA,NA,NA,NA,NA,NA,"",NA,"",NA,NA,NA,NA,NA,NA,NA,"","","",NA,"",NA,NA,NA,NA,NA,NA,NA,"",NA,"19"
"",NA,"",NA,"",NA,NA,NA,NA,NA,NA,NA,"","",1,1,"2024-08-23_22h44.48.957","IAT(Formal)","2021.2.3","Win32",238.0952381,"",NA,"",NA,NA,NA,NA,NA,NA,NA,"","","",NA,"e",1,0.4672,0,24,24,3,1,"自己","e","",NA,NA,NA,NA,NA,NA,"",NA,"",NA,NA,NA,NA,NA,NA,NA,"",NA,"",NA,NA,NA,NA,NA,NA,NA,"","","",NA,"",NA,NA,NA,NA,NA,NA,NA,"",NA,"19"
"",NA,"",NA,"",NA,NA,NA,NA,NA,NA,NA,"","",1,1,"2024-08-23_22h44.48.957","IAT(Formal)","2021.2.3","Win32",238.0952381,"",NA,"",NA,NA,NA,NA,NA,NA,NA,"","","",NA,"e",1,0.7446,0,25,25,25,1,"细腻","e","",NA,NA,NA,NA,NA,NA,"",NA,"",NA,NA,NA,NA,NA,NA,NA,"",NA,"",NA,NA,NA,NA,NA,NA,NA,"","","",NA,"",NA,NA,NA,NA,NA,NA,NA,"",NA,"19"
"",NA,"",NA,"",NA,NA,NA,NA,NA,NA,NA,"","",1,1,"2024-08-23_22h44.48.957","IAT(Formal)","2021.2.3","Win32",238.0952381,"",NA,"",NA,NA,NA,NA,NA,NA,NA,"","","",NA,"e",1,0.4445,0,26,26,63,1,"自己","e","",NA,NA,NA,NA,NA,NA,"",NA,"",NA,NA,NA,NA,NA,NA,NA,"",NA,"",NA,NA,NA,NA,NA,NA,NA,"","","",NA,"",NA,NA,NA,NA,NA,NA,NA,"",NA,"19"
"",NA,"",NA,"",NA,NA,NA,NA,NA,NA,NA,"","",1,1,"2024-08-23_22h44.48.957","IAT(Formal)","2021.2.3","Win32",238.0952381,"",NA,"",NA,NA,NA,NA,NA,NA,NA,"","","",NA,"e",1,1.0133,0,27,27,26,1,"冷静","e","",NA,NA,NA,NA,NA,NA,"",NA,"",NA,NA,NA,NA,NA,NA,NA,"",NA,"",NA,NA,NA,NA,NA,NA,NA,"","","",NA,"",NA,NA,NA,NA,NA,NA,NA,"",NA,"19"
"",NA,"",NA,"",NA,NA,NA,NA,NA,NA,NA,"","",1,1,"2024-08-23_22h44.48.957","IAT(Formal)","2021.2.3","Win32",238.0952381,"",NA,"",NA,NA,NA,NA,NA,NA,NA,"","","",NA,"i",1,0.5527,0,28,28,33,1,"刻薄","i","",NA,NA,NA,NA,NA,NA,"",NA,"",NA,NA,NA,NA,NA,NA,NA,"",NA,"",NA,NA,NA,NA,NA,NA,NA,"","","",NA,"",NA,NA,NA,NA,NA,NA,NA,"",NA,"19"
"",NA,"",NA,"",NA,NA,NA,NA,NA,NA,NA,"","",1,1,"2024-08-23_22h44.48.957","IAT(Formal)","2021.2.3","Win32",238.0952381,"",NA,"",NA,NA,NA,NA,NA,NA,NA,"","","",NA,"e",1,0.4885,0,29,29,54,1,"俺","e","",NA,NA,NA,NA,NA,NA,"",NA,"",NA,NA,NA,NA,NA,NA,NA,"",NA,"",NA,NA,NA,NA,NA,NA,NA,"","","",NA,"",NA,NA,NA,NA,NA,NA,NA,"",NA,"19"
"",NA,"",NA,"",NA,NA,NA,NA,NA,NA,NA,"","",1,1,"2024-08-23_22h44.48.957","IAT(Formal)","2021.2.3","Win32",238.0952381,"",NA,"",NA,NA,NA,NA,NA,NA,NA,"","","",NA,"i",1,0.5052,0,30,30,30,1,"卑鄙","i","",NA,NA,NA,NA,NA,NA,"",NA,"",NA,NA,NA,NA,NA,NA,NA,"",NA,"",NA,NA,NA,NA,NA,NA,NA,"","","",NA,"",NA,NA,NA,NA,NA,NA,NA,"",NA,"19"
"",NA,"",NA,"",NA,NA,NA,NA,NA,NA,NA,"","",1,1,"2024-08-23_22h44.48.957","IAT(Formal)","2021.2.3","Win32",238.0952381,"",NA,"",NA,NA,NA,NA,NA,NA,NA,"","","",NA,"i",1,0.4214,0,31,31,37,1,"傲慢","i","",NA,NA,NA,NA,NA,NA,"",NA,"",NA,NA,NA,NA,NA,NA,NA,"",NA,"",NA,NA,NA,NA,NA,NA,NA,"","","",NA,"",NA,NA,NA,NA,NA,NA,NA,"",NA,"19"
"",NA,"",NA,"",NA,NA,NA,NA,NA,NA,NA,"","",1,1,"2024-08-23_22h44.48.957","IAT(Formal)","2021.2.3","Win32",238.0952381,"",NA,"",NA,NA,NA,NA,NA,NA,NA,"","","",NA,"e",1,0.4838,0,32,32,73,1,"自己","e","",NA,NA,NA,NA,NA,NA,"",NA,"",NA,NA,NA,NA,NA,NA,NA,"",NA,"",NA,NA,NA,NA,NA,NA,NA,"","","",NA,"",NA,NA,NA,NA,NA,NA,NA,"",NA,"19"
"",NA,"",NA,"",NA,NA,NA,NA,NA,NA,NA,"","",1,1,"2024-08-23_22h44.48.957","IAT(Formal)","2021.2.3","Win32",238.0952381,"",NA,"",NA,NA,NA,NA,NA,NA,NA,"","","",NA,"e",0,0.4717,0,33,33,78,1,"他人","i","",NA,NA,NA,NA,NA,NA,"",NA,"",NA,NA,NA,NA,NA,NA,NA,"",NA,"",NA,NA,NA,NA,NA,NA,NA,"","","",NA,"",NA,NA,NA,NA,NA,NA,NA,"",NA,"19"
"",NA,"",NA,"",NA,NA,NA,NA,NA,NA,NA,"","",1,1,"2024-08-23_22h44.48.957","IAT(Formal)","2021.2.3","Win32",238.0952381,"",NA,"",NA,NA,NA,NA,NA,NA,NA,"","","",NA,"e",1,0.4087,0,34,34,53,1,"自己","e","",NA,NA,NA,NA,NA,NA,"",NA,"",NA,NA,NA,NA,NA,NA,NA,"",NA,"",NA,NA,NA,NA,NA,NA,NA,"","","",NA,"",NA,NA,NA,NA,NA,NA,NA,"",NA,"19"
"",NA,"",NA,"",NA,NA,NA,NA,NA,NA,NA,"","",1,1,"2024-08-23_22h44.48.957","IAT(Formal)","2021.2.3","Win32",238.0952381,"",NA,"",NA,NA,NA,NA,NA,NA,NA,"","","",NA,"i",1,0.3585,0,35,35,56,1,"他们","i","",NA,NA,NA,NA,NA,NA,"",NA,"",NA,NA,NA,NA,NA,NA,NA,"",NA,"",NA,NA,NA,NA,NA,NA,NA,"","","",NA,"",NA,NA,NA,NA,NA,NA,NA,"",NA,"19"
"",NA,"",NA,"",NA,NA,NA,NA,NA,NA,NA,"","",1,1,"2024-08-23_22h44.48.957","IAT(Formal)","2021.2.3","Win32",238.0952381,"",NA,"",NA,NA,NA,NA,NA,NA,NA,"","","",NA,"i",1,0.6387,0,36,36,49,1,"下贱","i","",NA,NA,NA,NA,NA,NA,"",NA,"",NA,NA,NA,NA,NA,NA,NA,"",NA,"",NA,NA,NA,NA,NA,NA,NA,"","","",NA,"",NA,NA,NA,NA,NA,NA,NA,"",NA,"19"
"",NA,"",NA,"",NA,NA,NA,NA,NA,NA,NA,"","",1,1,"2024-08-23_22h44.48.957","IAT(Formal)","2021.2.3","Win32",238.0952381,"",NA,"",NA,NA,NA,NA,NA,NA,NA,"","","",NA,"e",1,0.5464,0,37,37,21,1,"稳重","e","",NA,NA,NA,NA,NA,NA,"",NA,"",NA,NA,NA,NA,NA,NA,NA,"",NA,"",NA,NA,NA,NA,NA,NA,NA,"","","",NA,"",NA,NA,NA,NA,NA,NA,NA,"",NA,"19"
"",NA,"",NA,"",NA,NA,NA,NA,NA,NA,NA,"","",1,1,"2024-08-23_22h44.48.957","IAT(Formal)","2021.2.3","Win32",238.0952381,"",NA,"",NA,NA,NA,NA,NA,NA,NA,"","","",NA,"e",1,0.5178,0,38,38,17,1,"勇敢","e","",NA,NA,NA,NA,NA,NA,"",NA,"",NA,NA,NA,NA,NA,NA,NA,"",NA,"",NA,NA,NA,NA,NA,NA,NA,"","","",NA,"",NA,NA,NA,NA,NA,NA,NA,"",NA,"19"
"",NA,"",NA,"",NA,NA,NA,NA,NA,NA,NA,"","",1,1,"2024-08-23_22h44.48.957","IAT(Formal)","2021.2.3","Win32",238.0952381,"",NA,"",NA,NA,NA,NA,NA,NA,NA,"","","",NA,"e",1,0.4017,0,39,39,74,1,"俺","e","",NA,NA,NA,NA,NA,NA,"",NA,"",NA,NA,NA,NA,NA,NA,NA,"",NA,"",NA,NA,NA,NA,NA,NA,NA,"","","",NA,"",NA,NA,NA,NA,NA,NA,NA,"",NA,"19"
"",NA,"",NA,"",NA,NA,NA,NA,NA,NA,NA,"","",1,1,"2024-08-23_22h44.48.957","IAT(Formal)","2021.2.3","Win32",238.0952381,"",NA,"",NA,NA,NA,NA,NA,NA,NA,"","","",NA,"i",1,0.4798,0,40,40,66,1,"他们","i","",NA,NA,NA,NA,NA,NA,"",NA,"",NA,NA,NA,NA,NA,NA,NA,"",NA,"",NA,NA,NA,NA,NA,NA,NA,"","","",NA,"",NA,NA,NA,NA,NA,NA,NA,"",NA,"19"
"",NA,"",NA,"",NA,NA,NA,NA,NA,NA,NA,"","",1,1,"2024-08-23_22h44.48.957","IAT(Formal)","2021.2.3","Win32",238.0952381,"",NA,"",NA,NA,NA,NA,NA,NA,NA,"","","",NA,"i",1,0.6076,0,41,41,36,1,"自卑","i","",NA,NA,NA,NA,NA,NA,"",NA,"",NA,NA,NA,NA,NA,NA,NA,"",NA,"",NA,NA,NA,NA,NA,NA,NA,"","","",NA,"",NA,NA,NA,NA,NA,NA,NA,"",NA,"19"
"",NA,"",NA,"",NA,NA,NA,NA,NA,NA,NA,"","",1,1,"2024-08-23_22h44.48.957","IAT(Formal)","2021.2.3","Win32",238.0952381,"",NA,"",NA,NA,NA,NA,NA,NA,NA,"","","",NA,"i",1,0.4545,0,42,42,35,1,"消极","i","",NA,NA,NA,NA,NA,NA,"",NA,"",NA,NA,NA,NA,NA,NA,NA,"",NA,"",NA,NA,NA,NA,NA,NA,NA,"","","",NA,"",NA,NA,NA,NA,NA,NA,NA,"",NA,"19"
"",NA,"",NA,"",NA,NA,NA,NA,NA,NA,NA,"","",1,1,"2024-08-23_22h44.48.957","IAT(Formal)","2021.2.3","Win32",238.0952381,"",NA,"",NA,NA,NA,NA,NA,NA,NA,"","","",NA,"e",1,0.3763,0,43,43,1,1,"我的","e","",NA,NA,NA,NA,NA,NA,"",NA,"",NA,NA,NA,NA,NA,NA,NA,"",NA,"",NA,NA,NA,NA,NA,NA,NA,"","","",NA,"",NA,NA,NA,NA,NA,NA,NA,"",NA,"19"
"",NA,"",NA,"",NA,NA,NA,NA,NA,NA,NA,"","",1,1,"2024-08-23_22h44.48.957","IAT(Formal)","2021.2.3","Win32",238.0952381,"",NA,"",NA,NA,NA,NA,NA,NA,NA,"","","",NA,"e",1,0.4796,0,44,44,29,1,"诚恳","e","",NA,NA,NA,NA,NA,NA,"",NA,"",NA,NA,NA,NA,NA,NA,NA,"",NA,"",NA,NA,NA,NA,NA,NA,NA,"","","",NA,"",NA,NA,NA,NA,NA,NA,NA,"",NA,"19"
"",NA,"",NA,"",NA,NA,NA,NA,NA,NA,NA,"","",1,1,"2024-08-23_22h44.48.957","IAT(Formal)","2021.2.3","Win32",238.0952381,"",NA,"",NA,NA,NA,NA,NA,NA,NA,"","","",NA,"i",1,0.548,0,45,45,46,1,"野蛮","i","",NA,NA,NA,NA,NA,NA,"",NA,"",NA,NA,NA,NA,NA,NA,NA,"",NA,"",NA,NA,NA,NA,NA,NA,NA,"","","",NA,"",NA,NA,NA,NA,NA,NA,NA,"",NA,"19"
"",NA,"",NA,"",NA,NA,NA,NA,NA,NA,NA,"","",1,1,"2024-08-23_22h44.48.957","IAT(Formal)","2021.2.3","Win32",238.0952381,"",NA,"",NA,NA,NA,NA,NA,NA,NA,"","","",NA,"i",1,0.671,0,46,46,44,1,"暴躁","i","",NA,NA,NA,NA,NA,NA,"",NA,"",NA,NA,NA,NA,NA,NA,NA,"",NA,"",NA,NA,NA,NA,NA,NA,NA,"","","",NA,"",NA,NA,NA,NA,NA,NA,NA,"",NA,"19"
"",NA,"",NA,"",NA,NA,NA,NA,NA,NA,NA,"","",1,1,"2024-08-23_22h44.48.957","IAT(Formal)","2021.2.3","Win32",238.0952381,"",NA,"",NA,NA,NA,NA,NA,NA,NA,"","","",NA,"i",1,0.4388,0,47,47,75,1,"他","i","",NA,NA,NA,NA,NA,NA,"",NA,"",NA,NA,NA,NA,NA,NA,NA,"",NA,"",NA,NA,NA,NA,NA,NA,NA,"","","",NA,"",NA,NA,NA,NA,NA,NA,NA,"",NA,"19"
"",NA,"",NA,"",NA,NA,NA,NA,NA,NA,NA,"","",1,1,"2024-08-23_22h44.48.957","IAT(Formal)","2021.2.3","Win32",238.0952381,"",NA,"",NA,NA,NA,NA,NA,NA,NA,"","","",NA,"i",1,0.4046,0,48,48,68,1,"他人","i","",NA,NA,NA,NA,NA,NA,"",NA,"",NA,NA,NA,NA,NA,NA,NA,"",NA,"",NA,NA,NA,NA,NA,NA,NA,"","","",NA,"",NA,NA,NA,NA,NA,NA,NA,"",NA,"19"
"",NA,"",NA,"",NA,NA,NA,NA,NA,NA,NA,"","",1,1,"2024-08-23_22h44.48.957","IAT(Formal)","2021.2.3","Win32",238.0952381,"",NA,"",NA,NA,NA,NA,NA,NA,NA,"","","",NA,"e",1,0.4006,0,49,49,62,1,"我们","e","",NA,NA,NA,NA,NA,NA,"",NA,"",NA,NA,NA,NA,NA,NA,NA,"",NA,"",NA,NA,NA,NA,NA,NA,NA,"","","",NA,"",NA,NA,NA,NA,NA,NA,NA,"",NA,"19"
"",NA,"",NA,"",NA,NA,NA,NA,NA,NA,NA,"","",1,1,"2024-08-23_22h44.48.957","IAT(Formal)","2021.2.3","Win32",238.0952381,"",NA,"",NA,NA,NA,NA,NA,NA,NA,"","","",NA,"e",1,0.4339,0,50,50,52,1,"我们","e","",NA,NA,NA,NA,NA,NA,"",NA,"",NA,NA,NA,NA,NA,NA,NA,"",NA,"",NA,NA,NA,NA,NA,NA,NA,"","","",NA,"",NA,NA,NA,NA,NA,NA,NA,"",NA,"19"
"",NA,"",NA,"",NA,NA,NA,NA,NA,NA,NA,"","",1,1,"2024-08-23_22h44.48.957","IAT(Formal)","2021.2.3","Win32",238.0952381,"",NA,"",NA,NA,NA,NA,NA,NA,NA,"","","",NA,"e",1,0.6139,0,51,51,10,1,"优秀","e","",NA,NA,NA,NA,NA,NA,"",NA,"",NA,NA,NA,NA,NA,NA,NA,"",NA,"",NA,NA,NA,NA,NA,NA,NA,"","","",NA,"",NA,NA,NA,NA,NA,NA,NA,"",NA,"19"
"",NA,"",NA,"",NA,NA,NA,NA,NA,NA,NA,"","",1,1,"2024-08-23_22h44.48.957","IAT(Formal)","2021.2.3","Win32",238.0952381,"",NA,"",NA,NA,NA,NA,NA,NA,NA,"","","",NA,"i",1,0.538,0,52,52,55,1,"他","i","",NA,NA,NA,NA,NA,NA,"",NA,"",NA,NA,NA,NA,NA,NA,NA,"",NA,"",NA,NA,NA,NA,NA,NA,NA,"","","",NA,"",NA,NA,NA,NA,NA,NA,NA,"",NA,"19"
"",NA,"",NA,"",NA,NA,NA,NA,NA,NA,NA,"","",1,1,"2024-08-23_22h44.48.957","IAT(Formal)","2021.2.3","Win32",238.0952381,"",NA,"",NA,NA,NA,NA,NA,NA,NA,"","","",NA,"i",1,0.5511,0,53,53,34,1,"悲观","i","",NA,NA,NA,NA,NA,NA,"",NA,"",NA,NA,NA,NA,NA,NA,NA,"",NA,"",NA,NA,NA,NA,NA,NA,NA,"","","",NA,"",NA,NA,NA,NA,NA,NA,NA,"",NA,"19"
"",NA,"",NA,"",NA,NA,NA,NA,NA,NA,NA,"","",1,1,"2024-08-23_22h44.48.957","IAT(Formal)","2021.2.3","Win32",238.0952381,"",NA,"",NA,NA,NA,NA,NA,NA,NA,"","","",NA,"i",1,0.4675,0,54,54,59,1,"其他","i","",NA,NA,NA,NA,NA,NA,"",NA,"",NA,NA,NA,NA,NA,NA,NA,"",NA,"",NA,NA,NA,NA,NA,NA,NA,"","","",NA,"",NA,NA,NA,NA,NA,NA,NA,"",NA,"19"
"",NA,"",NA,"",NA,NA,NA,NA,NA,NA,NA,"","",1,1,"2024-08-23_22h44.48.957","IAT(Formal)","2021.2.3","Win32",238.0952381,"",NA,"",NA,NA,NA,NA,NA,NA,NA,"","","",NA,"i",1,0.51,0,55,55,47,1,"固执","i","",NA,NA,NA,NA,NA,NA,"",NA,"",NA,NA,NA,NA,NA,NA,NA,"",NA,"",NA,NA,NA,NA,NA,NA,NA,"","","",NA,"",NA,NA,NA,NA,NA,NA,NA,"",NA,"19"
"",NA,"",NA,"",NA,NA,NA,NA,NA,NA,NA,"","",1,1,"2024-08-23_22h44.48.957","IAT(Formal)","2021.2.3","Win32",238.0952381,"",NA,"",NA,NA,NA,NA,NA,NA,NA,"","","",NA,"e",1,0.4222,0,56,56,14,1,"乐观","e","",NA,NA,NA,NA,NA,NA,"",NA,"",NA,NA,NA,NA,NA,NA,NA,"",NA,"",NA,NA,NA,NA,NA,NA,NA,"","","",NA,"",NA,NA,NA,NA,NA,NA,NA,"",NA,"19"
"",NA,"",NA,"",NA,NA,NA,NA,NA,NA,NA,"","",1,1,"2024-08-23_22h44.48.957","IAT(Formal)","2021.2.3","Win32",238.0952381,"",NA,"",NA,NA,NA,NA,NA,NA,NA,"","","",NA,"i",1,0.5053,0,57,57,41,1,"散漫","i","",NA,NA,NA,NA,NA,NA,"",NA,"",NA,NA,NA,NA,NA,NA,NA,"",NA,"",NA,NA,NA,NA,NA,NA,NA,"","","",NA,"",NA,NA,NA,NA,NA,NA,NA,"",NA,"19"
"",NA,"",NA,"",NA,NA,NA,NA,NA,NA,NA,"","",1,1,"2024-08-23_22h44.48.957","IAT(Formal)","2021.2.3","Win32",238.0952381,"",NA,"",NA,NA,NA,NA,NA,NA,NA,"","","",NA,"i",1,0.4874,0,58,58,79,1,"其他","i","",NA,NA,NA,NA,NA,NA,"",NA,"",NA,NA,NA,NA,NA,NA,NA,"",NA,"",NA,NA,NA,NA,NA,NA,NA,"","","",NA,"",NA,NA,NA,NA,NA,NA,NA,"",NA,"19"
"",NA,"",NA,"",NA,NA,NA,NA,NA,NA,NA,"","",1,1,"2024-08-23_22h44.48.957","IAT(Formal)","2021.2.3","Win32",238.0952381,"",NA,"",NA,NA,NA,NA,NA,NA,NA,"","","",NA,"e",1,0.3711,0,59,59,61,1,"我的","e","",NA,NA,NA,NA,NA,NA,"",NA,"",NA,NA,NA,NA,NA,NA,NA,"",NA,"",NA,NA,NA,NA,NA,NA,NA,"","","",NA,"",NA,NA,NA,NA,NA,NA,NA,"",NA,"19"
"",NA,"",NA,"",NA,NA,NA,NA,NA,NA,NA,"","",1,1,"2024-08-23_22h44.48.957","IAT(Formal)","2021.2.3","Win32",238.0952381,"",NA,"",NA,NA,NA,NA,NA,NA,NA,"","","",NA,"e",1,0.8633,0,60,60,19,1,"机智","e","",NA,NA,NA,NA,NA,NA,"",NA,"",NA,NA,NA,NA,NA,NA,NA,"",NA,"",NA,NA,NA,NA,NA,NA,NA,"","","",NA,"",NA,NA,NA,NA,NA,NA,NA,"",NA,"19"
"",NA,"",NA,"",NA,NA,NA,NA,NA,NA,NA,"","",1,1,"2024-08-23_22h44.48.957","IAT(Formal)","2021.2.3","Win32",238.0952381,"",NA,"",NA,NA,NA,NA,NA,NA,NA,"","","",NA,"e",1,0.4584,0,61,61,24,1,"朴实","e","",NA,NA,NA,NA,NA,NA,"",NA,"",NA,NA,NA,NA,NA,NA,NA,"",NA,"",NA,NA,NA,NA,NA,NA,NA,"","","",NA,"",NA,NA,NA,NA,NA,NA,NA,"",NA,"19"
"",NA,"",NA,"",NA,NA,NA,NA,NA,NA,NA,"","",1,1,"2024-08-23_22h44.48.957","IAT(Formal)","2021.2.3","Win32",238.0952381,"",NA,"",NA,NA,NA,NA,NA,NA,NA,"","","",NA,"i",1,0.7096,0,62,62,45,1,"猖狂","i","",NA,NA,NA,NA,NA,NA,"",NA,"",NA,NA,NA,NA,NA,NA,NA,"",NA,"",NA,NA,NA,NA,NA,NA,NA,"","","",NA,"",NA,NA,NA,NA,NA,NA,NA,"",NA,"19"
"",NA,"",NA,"",NA,NA,NA,NA,NA,NA,NA,"","",1,1,"2024-08-23_22h44.48.957","IAT(Formal)","2021.2.3","Win32",238.0952381,"",NA,"",NA,NA,NA,NA,NA,NA,NA,"","","",NA,"e",1,0.5127,0,63,63,28,1,"活泼","e","",NA,NA,NA,NA,NA,NA,"",NA,"",NA,NA,NA,NA,NA,NA,NA,"",NA,"",NA,NA,NA,NA,NA,NA,NA,"","","",NA,"",NA,NA,NA,NA,NA,NA,NA,"",NA,"19"
"",NA,"",NA,"",NA,NA,NA,NA,NA,NA,NA,"","",1,1,"2024-08-23_22h44.48.957","IAT(Formal)","2021.2.3","Win32",238.0952381,"",NA,"",NA,NA,NA,NA,NA,NA,NA,"","","",NA,"i",0,0.7803,0,64,64,64,1,"俺","e","",NA,NA,NA,NA,NA,NA,"",NA,"",NA,NA,NA,NA,NA,NA,NA,"",NA,"",NA,NA,NA,NA,NA,NA,NA,"","","",NA,"",NA,NA,NA,NA,NA,NA,NA,"",NA,"19"
"",NA,"",NA,"",NA,NA,NA,NA,NA,NA,NA,"","",1,1,"2024-08-23_22h44.48.957","IAT(Formal)","2021.2.3","Win32",238.0952381,"",NA,"",NA,NA,NA,NA,NA,NA,NA,"","","",NA,"e",1,0.4095,0,65,65,51,1,"我的","e","",NA,NA,NA,NA,NA,NA,"",NA,"",NA,NA,NA,NA,NA,NA,NA,"",NA,"",NA,NA,NA,NA,NA,NA,NA,"","","",NA,"",NA,NA,NA,NA,NA,NA,NA,"",NA,"19"
"",NA,"",NA,"",NA,NA,NA,NA,NA,NA,NA,"","",1,1,"2024-08-23_22h44.48.957","IAT(Formal)","2021.2.3","Win32",238.0952381,"",NA,"",NA,NA,NA,NA,NA,NA,NA,"","","",NA,"i",1,0.4335,0,66,66,7,1,"他的","i","",NA,NA,NA,NA,NA,NA,"",NA,"",NA,NA,NA,NA,NA,NA,NA,"",NA,"",NA,NA,NA,NA,NA,NA,NA,"","","",NA,"",NA,NA,NA,NA,NA,NA,NA,"",NA,"19"
"",NA,"",NA,"",NA,NA,NA,NA,NA,NA,NA,"","",1,1,"2024-08-23_22h44.48.957","IAT(Formal)","2021.2.3","Win32",238.0952381,"",NA,"",NA,NA,NA,NA,NA,NA,NA,"","","",NA,"i",1,0.4878,0,67,67,8,1,"他人","i","",NA,NA,NA,NA,NA,NA,"",NA,"",NA,NA,NA,NA,NA,NA,NA,"",NA,"",NA,NA,NA,NA,NA,NA,NA,"","","",NA,"",NA,NA,NA,NA,NA,NA,NA,"",NA,"19"
"",NA,"",NA,"",NA,NA,NA,NA,NA,NA,NA,"","",1,1,"2024-08-23_22h44.48.957","IAT(Formal)","2021.2.3","Win32",238.0952381,"",NA,"",NA,NA,NA,NA,NA,NA,NA,"","","",NA,"e",1,0.4476,0,68,68,70,1,"我","e","",NA,NA,NA,NA,NA,NA,"",NA,"",NA,NA,NA,NA,NA,NA,NA,"",NA,"",NA,NA,NA,NA,NA,NA,NA,"","","",NA,"",NA,NA,NA,NA,NA,NA,NA,"",NA,"19"
"",NA,"",NA,"",NA,NA,NA,NA,NA,NA,NA,"","",1,1,"2024-08-23_22h44.48.957","IAT(Formal)","2021.2.3","Win32",238.0952381,"",NA,"",NA,NA,NA,NA,NA,NA,NA,"","","",NA,"i",1,0.4626,0,69,69,69,1,"其他","i","",NA,NA,NA,NA,NA,NA,"",NA,"",NA,NA,NA,NA,NA,NA,NA,"",NA,"",NA,NA,NA,NA,NA,NA,NA,"","","",NA,"",NA,NA,NA,NA,NA,NA,NA,"",NA,"19"
"",NA,"",NA,"",NA,NA,NA,NA,NA,NA,NA,"","",1,1,"2024-08-23_22h44.48.957","IAT(Formal)","2021.2.3","Win32",238.0952381,"",NA,"",NA,NA,NA,NA,NA,NA,NA,"","","",NA,"e",1,0.5678,0,70,70,11,1,"崇高","e","",NA,NA,NA,NA,NA,NA,"",NA,"",NA,NA,NA,NA,NA,NA,NA,"",NA,"",NA,NA,NA,NA,NA,NA,NA,"","","",NA,"",NA,NA,NA,NA,NA,NA,NA,"",NA,"19"
"",NA,"",NA,"",NA,NA,NA,NA,NA,NA,NA,"","",1,1,"2024-08-23_22h44.48.957","IAT(Formal)","2021.2.3","Win32",238.0952381,"",NA,"",NA,NA,NA,NA,NA,NA,NA,"","","",NA,"i",1,0.5086,0,71,71,40,1,"执拗","i","",NA,NA,NA,NA,NA,NA,"",NA,"",NA,NA,NA,NA,NA,NA,NA,"",NA,"",NA,NA,NA,NA,NA,NA,NA,"","","",NA,"",NA,NA,NA,NA,NA,NA,NA,"",NA,"19"
"",NA,"",NA,"",NA,NA,NA,NA,NA,NA,NA,"","",1,1,"2024-08-23_22h44.48.957","IAT(Formal)","2021.2.3","Win32",238.0952381,"",NA,"",NA,NA,NA,NA,NA,NA,NA,"","","",NA,"i",1,0.4683,0,72,72,76,1,"他们","i","",NA,NA,NA,NA,NA,NA,"",NA,"",NA,NA,NA,NA,NA,NA,NA,"",NA,"",NA,NA,NA,NA,NA,NA,NA,"","","",NA,"",NA,NA,NA,NA,NA,NA,NA,"",NA,"19"
"",NA,"",NA,"",NA,NA,NA,NA,NA,NA,NA,"","",1,1,"2024-08-23_22h44.48.957","IAT(Formal)","2021.2.3","Win32",238.0952381,"",NA,"",NA,NA,NA,NA,NA,NA,NA,"","","",NA,"i",1,0.3465,0,73,73,77,1,"他的","i","",NA,NA,NA,NA,NA,NA,"",NA,"",NA,NA,NA,NA,NA,NA,NA,"",NA,"",NA,NA,NA,NA,NA,NA,NA,"","","",NA,"",NA,NA,NA,NA,NA,NA,NA,"",NA,"19"
"",NA,"",NA,"",NA,NA,NA,NA,NA,NA,NA,"","",1,1,"2024-08-23_22h44.48.957","IAT(Formal)","2021.2.3","Win32",238.0952381,"",NA,"",NA,NA,NA,NA,NA,NA,NA,"","","",NA,"i",1,0.365,0,74,74,67,1,"他的","i","",NA,NA,NA,NA,NA,NA,"",NA,"",NA,NA,NA,NA,NA,NA,NA,"",NA,"",NA,NA,NA,NA,NA,NA,NA,"","","",NA,"",NA,NA,NA,NA,NA,NA,NA,"",NA,"19"
"",NA,"",NA,"",NA,NA,NA,NA,NA,NA,NA,"","",1,1,"2024-08-23_22h44.48.957","IAT(Formal)","2021.2.3","Win32",238.0952381,"",NA,"",NA,NA,NA,NA,NA,NA,NA,"","","",NA,"i",1,0.3861,0,75,75,57,1,"他的","i","",NA,NA,NA,NA,NA,NA,"",NA,"",NA,NA,NA,NA,NA,NA,NA,"",NA,"",NA,NA,NA,NA,NA,NA,NA,"","","",NA,"",NA,NA,NA,NA,NA,NA,NA,"",NA,"19"
"",NA,"",NA,"",NA,NA,NA,NA,NA,NA,NA,"","",1,1,"2024-08-23_22h44.48.957","IAT(Formal)","2021.2.3","Win32",238.0952381,"",NA,"",NA,NA,NA,NA,NA,NA,NA,"","","",NA,"e",1,0.4923,0,76,76,18,1,"勤奋","e","",NA,NA,NA,NA,NA,NA,"",NA,"",NA,NA,NA,NA,NA,NA,NA,"",NA,"",NA,NA,NA,NA,NA,NA,NA,"","","",NA,"",NA,NA,NA,NA,NA,NA,NA,"",NA,"19"
"",NA,"",NA,"",NA,NA,NA,NA,NA,NA,NA,"","",1,1,"2024-08-23_22h44.48.957","IAT(Formal)","2021.2.3","Win32",238.0952381,"",NA,"",NA,NA,NA,NA,NA,NA,NA,"","","",NA,"i",1,0.5384,0,77,77,38,1,"鲁莽","i","",NA,NA,NA,NA,NA,NA,"",NA,"",NA,NA,NA,NA,NA,NA,NA,"",NA,"",NA,NA,NA,NA,NA,NA,NA,"","","",NA,"",NA,NA,NA,NA,NA,NA,NA,"",NA,"19"
"",NA,"",NA,"",NA,NA,NA,NA,NA,NA,NA,"","",1,1,"2024-08-23_22h44.48.957","IAT(Formal)","2021.2.3","Win32",238.0952381,"",NA,"",NA,NA,NA,NA,NA,NA,NA,"","","",NA,"e",1,0.5092,0,78,78,13,1,"杰出","e","",NA,NA,NA,NA,NA,NA,"",NA,"",NA,NA,NA,NA,NA,NA,NA,"",NA,"",NA,NA,NA,NA,NA,NA,NA,"","","",NA,"",NA,NA,NA,NA,NA,NA,NA,"",NA,"19"
"",NA,"",NA,"",NA,NA,NA,NA,NA,NA,NA,"","",1,1,"2024-08-23_22h44.48.957","IAT(Formal)","2021.2.3","Win32",238.0952381,"",NA,"",NA,NA,NA,NA,NA,NA,NA,"","","",NA,"i",1,0.5386,0,79,79,32,1,"愚蠢","i","",NA,NA,NA,NA,NA,NA,"",NA,"",NA,NA,NA,NA,NA,NA,NA,"",NA,"",NA,NA,NA,NA,NA,NA,NA,"","","",NA,"",NA,NA,NA,NA,NA,NA,NA,"",NA,"19"
"",NA,"",NA,"",NA,NA,NA,NA,NA,NA,NA,"","",1,1,"2024-08-23_22h44.48.957","IAT(Formal)","2021.2.3","Win32",238.0952381,"",NA,"",NA,NA,NA,NA,NA,NA,NA,"","","",NA,"e",1,0.3629,NA,NA,NA,NA,NA,"我们","e","space",4.5832,0,0,0,72,1,"",NA,"",NA,NA,NA,NA,NA,NA,NA,"",NA,"",NA,NA,NA,NA,NA,NA,NA,"","","",NA,"",NA,NA,NA,NA,NA,NA,NA,"",NA,"19"
"",NA,"",NA,"",NA,NA,NA,NA,NA,NA,NA,"","",1,1,"2024-08-23_22h44.48.957","IAT(Formal)","2021.2.3","Win32",238.0952381,"",NA,"",NA,NA,NA,NA,NA,NA,NA,"","","",NA,"i",1,0.4002,NA,NA,NA,NA,NA,"他人","i","",NA,0,1,1,58,1,"",NA,"",NA,NA,NA,NA,NA,NA,NA,"",NA,"",NA,NA,NA,NA,NA,NA,NA,"","","",NA,"",NA,NA,NA,NA,NA,NA,NA,"",NA,"19"
"",NA,"",NA,"",NA,NA,NA,NA,NA,NA,NA,"","",1,1,"2024-08-23_22h44.48.957","IAT(Formal)","2021.2.3","Win32",238.0952381,"",NA,"",NA,NA,NA,NA,NA,NA,NA,"","","",NA,"e",1,0.4532,NA,NA,NA,NA,NA,"聪明","e","",NA,0,2,2,12,1,"",NA,"",NA,NA,NA,NA,NA,NA,NA,"",NA,"",NA,NA,NA,NA,NA,NA,NA,"","","",NA,"",NA,NA,NA,NA,NA,NA,NA,"",NA,"19"
"",NA,"",NA,"",NA,NA,NA,NA,NA,NA,NA,"","",1,1,"2024-08-23_22h44.48.957","IAT(Formal)","2021.2.3","Win32",238.0952381,"",NA,"",NA,NA,NA,NA,NA,NA,NA,"","","",NA,"e",1,0.4085,NA,NA,NA,NA,NA,"自己","e","",NA,0,3,3,63,1,"",NA,"",NA,NA,NA,NA,NA,NA,NA,"",NA,"",NA,NA,NA,NA,NA,NA,NA,"","","",NA,"",NA,NA,NA,NA,NA,NA,NA,"",NA,"19"
"",NA,"",NA,"",NA,NA,NA,NA,NA,NA,NA,"","",1,1,"2024-08-23_22h44.48.957","IAT(Formal)","2021.2.3","Win32",238.0952381,"",NA,"",NA,NA,NA,NA,NA,NA,NA,"","","",NA,"i",1,0.621,NA,NA,NA,NA,NA,"他们","i","",NA,0,4,4,6,1,"",NA,"",NA,NA,NA,NA,NA,NA,NA,"",NA,"",NA,NA,NA,NA,NA,NA,NA,"","","",NA,"",NA,NA,NA,NA,NA,NA,NA,"",NA,"19"
"",NA,"",NA,"",NA,NA,NA,NA,NA,NA,NA,"","",1,1,"2024-08-23_22h44.48.957","IAT(Formal)","2021.2.3","Win32",238.0952381,"",NA,"",NA,NA,NA,NA,NA,NA,NA,"","","",NA,"i",1,0.8765,NA,NA,NA,NA,NA,"猖狂","i","",NA,0,5,5,45,1,"",NA,"",NA,NA,NA,NA,NA,NA,NA,"",NA,"",NA,NA,NA,NA,NA,NA,NA,"","","",NA,"",NA,NA,NA,NA,NA,NA,NA,"",NA,"19"
"",NA,"",NA,"",NA,NA,NA,NA,NA,NA,NA,"","",1,1,"2024-08-23_22h44.48.957","IAT(Formal)","2021.2.3","Win32",238.0952381,"",NA,"",NA,NA,NA,NA,NA,NA,NA,"","","",NA,"i",1,0.3798,NA,NA,NA,NA,NA,"他的","i","",NA,0,6,6,57,1,"",NA,"",NA,NA,NA,NA,NA,NA,NA,"",NA,"",NA,NA,NA,NA,NA,NA,NA,"","","",NA,"",NA,NA,NA,NA,NA,NA,NA,"",NA,"19"
"",NA,"",NA,"",NA,NA,NA,NA,NA,NA,NA,"","",1,1,"2024-08-23_22h44.48.957","IAT(Formal)","2021.2.3","Win32",238.0952381,"",NA,"",NA,NA,NA,NA,NA,NA,NA,"","","",NA,"i",1,0.3798,NA,NA,NA,NA,NA,"他们","i","",NA,0,7,7,56,1,"",NA,"",NA,NA,NA,NA,NA,NA,NA,"",NA,"",NA,NA,NA,NA,NA,NA,NA,"","","",NA,"",NA,NA,NA,NA,NA,NA,NA,"",NA,"19"
"",NA,"",NA,"",NA,NA,NA,NA,NA,NA,NA,"","",1,1,"2024-08-23_22h44.48.957","IAT(Formal)","2021.2.3","Win32",238.0952381,"",NA,"",NA,NA,NA,NA,NA,NA,NA,"","","",NA,"e",1,0.3502,NA,NA,NA,NA,NA,"自己","e","",NA,0,8,8,53,1,"",NA,"",NA,NA,NA,NA,NA,NA,NA,"",NA,"",NA,NA,NA,NA,NA,NA,NA,"","","",NA,"",NA,NA,NA,NA,NA,NA,NA,"",NA,"19"
"",NA,"",NA,"",NA,NA,NA,NA,NA,NA,NA,"","",1,1,"2024-08-23_22h44.48.957","IAT(Formal)","2021.2.3","Win32",238.0952381,"",NA,"",NA,NA,NA,NA,NA,NA,NA,"","","",NA,"i",1,0.5255,NA,NA,NA,NA,NA,"散漫","i","",NA,0,9,9,41,1,"",NA,"",NA,NA,NA,NA,NA,NA,NA,"",NA,"",NA,NA,NA,NA,NA,NA,NA,"","","",NA,"",NA,NA,NA,NA,NA,NA,NA,"",NA,"19"
"",NA,"",NA,"",NA,NA,NA,NA,NA,NA,NA,"","",1,1,"2024-08-23_22h44.48.957","IAT(Formal)","2021.2.3","Win32",238.0952381,"",NA,"",NA,NA,NA,NA,NA,NA,NA,"","","",NA,"e",1,0.4002,NA,NA,NA,NA,NA,"我","e","",NA,0,10,10,60,1,"",NA,"",NA,NA,NA,NA,NA,NA,NA,"",NA,"",NA,NA,NA,NA,NA,NA,NA,"","","",NA,"",NA,NA,NA,NA,NA,NA,NA,"",NA,"19"
"",NA,"",NA,"",NA,NA,NA,NA,NA,NA,NA,"","",1,1,"2024-08-23_22h44.48.957","IAT(Formal)","2021.2.3","Win32",238.0952381,"",NA,"",NA,NA,NA,NA,NA,NA,NA,"","","",NA,"i",1,0.5125,NA,NA,NA,NA,NA,"暴躁","i","",NA,0,11,11,44,1,"",NA,"",NA,NA,NA,NA,NA,NA,NA,"",NA,"",NA,NA,NA,NA,NA,NA,NA,"","","",NA,"",NA,NA,NA,NA,NA,NA,NA,"",NA,"19"
"",NA,"",NA,"",NA,NA,NA,NA,NA,NA,NA,"","",1,1,"2024-08-23_22h44.48.957","IAT(Formal)","2021.2.3","Win32",238.0952381,"",NA,"",NA,NA,NA,NA,NA,NA,NA,"","","",NA,"i",1,0.4721,NA,NA,NA,NA,NA,"其他","i","",NA,0,12,12,59,1,"",NA,"",NA,NA,NA,NA,NA,NA,NA,"",NA,"",NA,NA,NA,NA,NA,NA,NA,"","","",NA,"",NA,NA,NA,NA,NA,NA,NA,"",NA,"19"
"",NA,"",NA,"",NA,NA,NA,NA,NA,NA,NA,"","",1,1,"2024-08-23_22h44.48.957","IAT(Formal)","2021.2.3","Win32",238.0952381,"",NA,"",NA,NA,NA,NA,NA,NA,NA,"","","",NA,"i",1,0.3887,NA,NA,NA,NA,NA,"其他","i","",NA,0,13,13,69,1,"",NA,"",NA,NA,NA,NA,NA,NA,NA,"",NA,"",NA,NA,NA,NA,NA,NA,NA,"","","",NA,"",NA,NA,NA,NA,NA,NA,NA,"",NA,"19"
"",NA,"",NA,"",NA,NA,NA,NA,NA,NA,NA,"","",1,1,"2024-08-23_22h44.48.957","IAT(Formal)","2021.2.3","Win32",238.0952381,"",NA,"",NA,NA,NA,NA,NA,NA,NA,"","","",NA,"i",1,0.4585,NA,NA,NA,NA,NA,"愚蠢","i","",NA,0,14,14,32,1,"",NA,"",NA,NA,NA,NA,NA,NA,NA,"",NA,"",NA,NA,NA,NA,NA,NA,NA,"","","",NA,"",NA,NA,NA,NA,NA,NA,NA,"",NA,"19"
"",NA,"",NA,"",NA,NA,NA,NA,NA,NA,NA,"","",1,1,"2024-08-23_22h44.48.957","IAT(Formal)","2021.2.3","Win32",238.0952381,"",NA,"",NA,NA,NA,NA,NA,NA,NA,"","","",NA,"e",1,0.3639,NA,NA,NA,NA,NA,"我们","e","",NA,0,15,15,62,1,"",NA,"",NA,NA,NA,NA,NA,NA,NA,"",NA,"",NA,NA,NA,NA,NA,NA,NA,"","","",NA,"",NA,NA,NA,NA,NA,NA,NA,"",NA,"19"
"",NA,"",NA,"",NA,NA,NA,NA,NA,NA,NA,"","",1,1,"2024-08-23_22h44.48.957","IAT(Formal)","2021.2.3","Win32",238.0952381,"",NA,"",NA,NA,NA,NA,NA,NA,NA,"","","",NA,"e",1,0.3219,NA,NA,NA,NA,NA,"我的","e","",NA,0,16,16,71,1,"",NA,"",NA,NA,NA,NA,NA,NA,NA,"",NA,"",NA,NA,NA,NA,NA,NA,NA,"","","",NA,"",NA,NA,NA,NA,NA,NA,NA,"",NA,"19"
"",NA,"",NA,"",NA,NA,NA,NA,NA,NA,NA,"","",1,1,"2024-08-23_22h44.48.957","IAT(Formal)","2021.2.3","Win32",238.0952381,"",NA,"",NA,NA,NA,NA,NA,NA,NA,"","","",NA,"i",1,0.3965,NA,NA,NA,NA,NA,"消极","i","",NA,0,17,17,35,1,"",NA,"",NA,NA,NA,NA,NA,NA,NA,"",NA,"",NA,NA,NA,NA,NA,NA,NA,"","","",NA,"",NA,NA,NA,NA,NA,NA,NA,"",NA,"19"
"",NA,"",NA,"",NA,NA,NA,NA,NA,NA,NA,"","",1,1,"2024-08-23_22h44.48.957","IAT(Formal)","2021.2.3","Win32",238.0952381,"",NA,"",NA,NA,NA,NA,NA,NA,NA,"","","",NA,"i",1,0.4047,NA,NA,NA,NA,NA,"他","i","",NA,0,18,18,75,1,"",NA,"",NA,NA,NA,NA,NA,NA,NA,"",NA,"",NA,NA,NA,NA,NA,NA,NA,"","","",NA,"",NA,NA,NA,NA,NA,NA,NA,"",NA,"19"
"",NA,"",NA,"",NA,NA,NA,NA,NA,NA,NA,"","",1,1,"2024-08-23_22h44.48.957","IAT(Formal)","2021.2.3","Win32",238.0952381,"",NA,"",NA,NA,NA,NA,NA,NA,NA,"","","",NA,"e",1,0.4754,NA,NA,NA,NA,NA,"活泼","e","",NA,0,19,19,28,1,"",NA,"",NA,NA,NA,NA,NA,NA,NA,"",NA,"",NA,NA,NA,NA,NA,NA,NA,"","","",NA,"",NA,NA,NA,NA,NA,NA,NA,"",NA,"19"
"",NA,"",NA,"",NA,NA,NA,NA,NA,NA,NA,"","",1,1,"2024-08-23_22h44.48.957","IAT(Formal)","2021.2.3","Win32",238.0952381,"",NA,"",NA,NA,NA,NA,NA,NA,NA,"","","",NA,"e",1,0.5615,NA,NA,NA,NA,NA,"细腻","e","",NA,0,20,20,25,1,"",NA,"",NA,NA,NA,NA,NA,NA,NA,"",NA,"",NA,NA,NA,NA,NA,NA,NA,"","","",NA,"",NA,NA,NA,NA,NA,NA,NA,"",NA,"19"
"",NA,"",NA,"",NA,NA,NA,NA,NA,NA,NA,"","",1,1,"2024-08-23_22h44.48.957","IAT(Formal)","2021.2.3","Win32",238.0952381,"",NA,"",NA,NA,NA,NA,NA,NA,NA,"","","",NA,"i",1,0.5425,NA,NA,NA,NA,NA,"傲慢","i","",NA,0,21,21,37,1,"",NA,"",NA,NA,NA,NA,NA,NA,NA,"",NA,"",NA,NA,NA,NA,NA,NA,NA,"","","",NA,"",NA,NA,NA,NA,NA,NA,NA,"",NA,"19"
"",NA,"",NA,"",NA,NA,NA,NA,NA,NA,NA,"","",1,1,"2024-08-23_22h44.48.957","IAT(Formal)","2021.2.3","Win32",238.0952381,"",NA,"",NA,NA,NA,NA,NA,NA,NA,"","","",NA,"e",1,0.8265,NA,NA,NA,NA,NA,"冷静","e","",NA,0,22,22,26,1,"",NA,"",NA,NA,NA,NA,NA,NA,NA,"",NA,"",NA,NA,NA,NA,NA,NA,NA,"","","",NA,"",NA,NA,NA,NA,NA,NA,NA,"",NA,"19"
"",NA,"",NA,"",NA,NA,NA,NA,NA,NA,NA,"","",1,1,"2024-08-23_22h44.48.957","IAT(Formal)","2021.2.3","Win32",238.0952381,"",NA,"",NA,NA,NA,NA,NA,NA,NA,"","","",NA,"e",1,0.5011,NA,NA,NA,NA,NA,"朴实","e","",NA,0,23,23,24,1,"",NA,"",NA,NA,NA,NA,NA,NA,NA,"",NA,"",NA,NA,NA,NA,NA,NA,NA,"","","",NA,"",NA,NA,NA,NA,NA,NA,NA,"",NA,"19"
"",NA,"",NA,"",NA,NA,NA,NA,NA,NA,NA,"","",1,1,"2024-08-23_22h44.48.957","IAT(Formal)","2021.2.3","Win32",238.0952381,"",NA,"",NA,NA,NA,NA,NA,NA,NA,"","","",NA,"e",1,0.617,NA,NA,NA,NA,NA,"优秀","e","",NA,0,24,24,10,1,"",NA,"",NA,NA,NA,NA,NA,NA,NA,"",NA,"",NA,NA,NA,NA,NA,NA,NA,"","","",NA,"",NA,NA,NA,NA,NA,NA,NA,"",NA,"19"
"",NA,"",NA,"",NA,NA,NA,NA,NA,NA,NA,"","",1,1,"2024-08-23_22h44.48.957","IAT(Formal)","2021.2.3","Win32",238.0952381,"",NA,"",NA,NA,NA,NA,NA,NA,NA,"","","",NA,"e",0,0.4214,NA,NA,NA,NA,NA,"轻率","i","",NA,0,25,25,48,1,"",NA,"",NA,NA,NA,NA,NA,NA,NA,"",NA,"",NA,NA,NA,NA,NA,NA,NA,"","","",NA,"",NA,NA,NA,NA,NA,NA,NA,"",NA,"19"
"",NA,"",NA,"",NA,NA,NA,NA,NA,NA,NA,"","",1,1,"2024-08-23_22h44.48.957","IAT(Formal)","2021.2.3","Win32",238.0952381,"",NA,"",NA,NA,NA,NA,NA,NA,NA,"","","",NA,"e",1,0.4212,NA,NA,NA,NA,NA,"自己","e","",NA,0,26,26,3,1,"",NA,"",NA,NA,NA,NA,NA,NA,NA,"",NA,"",NA,NA,NA,NA,NA,NA,NA,"","","",NA,"",NA,NA,NA,NA,NA,NA,NA,"",NA,"19"
"",NA,"",NA,"",NA,NA,NA,NA,NA,NA,NA,"","",1,1,"2024-08-23_22h44.48.957","IAT(Formal)","2021.2.3","Win32",238.0952381,"",NA,"",NA,NA,NA,NA,NA,NA,NA,"","","",NA,"i",1,0.4679,NA,NA,NA,NA,NA,"虚伪","i","",NA,0,27,27,31,1,"",NA,"",NA,NA,NA,NA,NA,NA,NA,"",NA,"",NA,NA,NA,NA,NA,NA,NA,"","","",NA,"",NA,NA,NA,NA,NA,NA,NA,"",NA,"19"
"",NA,"",NA,"",NA,NA,NA,NA,NA,NA,NA,"","",1,1,"2024-08-23_22h44.48.957","IAT(Formal)","2021.2.3","Win32",238.0952381,"",NA,"",NA,NA,NA,NA,NA,NA,NA,"","","",NA,"e",1,0.467,NA,NA,NA,NA,NA,"我","e","",NA,0,28,28,50,1,"",NA,"",NA,NA,NA,NA,NA,NA,NA,"",NA,"",NA,NA,NA,NA,NA,NA,NA,"","","",NA,"",NA,NA,NA,NA,NA,NA,NA,"",NA,"19"
"",NA,"",NA,"",NA,NA,NA,NA,NA,NA,NA,"","",1,1,"2024-08-23_22h44.48.957","IAT(Formal)","2021.2.3","Win32",238.0952381,"",NA,"",NA,NA,NA,NA,NA,NA,NA,"","","",NA,"e",1,0.4427,NA,NA,NA,NA,NA,"崇高","e","",NA,0,29,29,11,1,"",NA,"",NA,NA,NA,NA,NA,NA,NA,"",NA,"",NA,NA,NA,NA,NA,NA,NA,"","","",NA,"",NA,NA,NA,NA,NA,NA,NA,"",NA,"19"
"",NA,"",NA,"",NA,NA,NA,NA,NA,NA,NA,"","",1,1,"2024-08-23_22h44.48.957","IAT(Formal)","2021.2.3","Win32",238.0952381,"",NA,"",NA,NA,NA,NA,NA,NA,NA,"","","",NA,"i",1,0.5138,NA,NA,NA,NA,NA,"凶狠","i","",NA,0,30,30,42,1,"",NA,"",NA,NA,NA,NA,NA,NA,NA,"",NA,"",NA,NA,NA,NA,NA,NA,NA,"","","",NA,"",NA,NA,NA,NA,NA,NA,NA,"",NA,"19"
"",NA,"",NA,"",NA,NA,NA,NA,NA,NA,NA,"","",1,1,"2024-08-23_22h44.48.957","IAT(Formal)","2021.2.3","Win32",238.0952381,"",NA,"",NA,NA,NA,NA,NA,NA,NA,"","","",NA,"i",1,0.509,NA,NA,NA,NA,NA,"野蛮","i","",NA,0,31,31,46,1,"",NA,"",NA,NA,NA,NA,NA,NA,NA,"",NA,"",NA,NA,NA,NA,NA,NA,NA,"","","",NA,"",NA,NA,NA,NA,NA,NA,NA,"",NA,"19"
"",NA,"",NA,"",NA,NA,NA,NA,NA,NA,NA,"","",1,1,"2024-08-23_22h44.48.957","IAT(Formal)","2021.2.3","Win32",238.0952381,"",NA,"",NA,NA,NA,NA,NA,NA,NA,"","","",NA,"i",1,0.367,NA,NA,NA,NA,NA,"他的","i","",NA,0,32,32,67,1,"",NA,"",NA,NA,NA,NA,NA,NA,NA,"",NA,"",NA,NA,NA,NA,NA,NA,NA,"","","",NA,"",NA,NA,NA,NA,NA,NA,NA,"",NA,"19"
"",NA,"",NA,"",NA,NA,NA,NA,NA,NA,NA,"","",1,1,"2024-08-23_22h44.48.957","IAT(Formal)","2021.2.3","Win32",238.0952381,"",NA,"",NA,NA,NA,NA,NA,NA,NA,"","","",NA,"e",1,0.5085,NA,NA,NA,NA,NA,"我的","e","",NA,0,33,33,61,1,"",NA,"",NA,NA,NA,NA,NA,NA,NA,"",NA,"",NA,NA,NA,NA,NA,NA,NA,"","","",NA,"",NA,NA,NA,NA,NA,NA,NA,"",NA,"19"
"",NA,"",NA,"",NA,NA,NA,NA,NA,NA,NA,"","",1,1,"2024-08-23_22h44.48.957","IAT(Formal)","2021.2.3","Win32",238.0952381,"",NA,"",NA,NA,NA,NA,NA,NA,NA,"","","",NA,"e",1,0.4828,NA,NA,NA,NA,NA,"俺","e","",NA,0,34,34,4,1,"",NA,"",NA,NA,NA,NA,NA,NA,NA,"",NA,"",NA,NA,NA,NA,NA,NA,NA,"","","",NA,"",NA,NA,NA,NA,NA,NA,NA,"",NA,"19"
"",NA,"",NA,"",NA,NA,NA,NA,NA,NA,NA,"","",1,1,"2024-08-23_22h44.48.957","IAT(Formal)","2021.2.3","Win32",238.0952381,"",NA,"",NA,NA,NA,NA,NA,NA,NA,"","","",NA,"e",1,0.3923,NA,NA,NA,NA,NA,"我","e","",NA,0,35,35,70,1,"",NA,"",NA,NA,NA,NA,NA,NA,NA,"",NA,"",NA,NA,NA,NA,NA,NA,NA,"","","",NA,"",NA,NA,NA,NA,NA,NA,NA,"",NA,"19"
"",NA,"",NA,"",NA,NA,NA,NA,NA,NA,NA,"","",1,1,"2024-08-23_22h44.48.957","IAT(Formal)","2021.2.3","Win32",238.0952381,"",NA,"",NA,NA,NA,NA,NA,NA,NA,"","","",NA,"e",1,0.4437,NA,NA,NA,NA,NA,"公正","e","",NA,0,36,36,23,1,"",NA,"",NA,NA,NA,NA,NA,NA,NA,"",NA,"",NA,NA,NA,NA,NA,NA,NA,"","","",NA,"",NA,NA,NA,NA,NA,NA,NA,"",NA,"19"
"",NA,"",NA,"",NA,NA,NA,NA,NA,NA,NA,"","",1,1,"2024-08-23_22h44.48.957","IAT(Formal)","2021.2.3","Win32",238.0952381,"",NA,"",NA,NA,NA,NA,NA,NA,NA,"","","",NA,"e",1,0.4801,NA,NA,NA,NA,NA,"正直","e","",NA,0,37,37,16,1,"",NA,"",NA,NA,NA,NA,NA,NA,NA,"",NA,"",NA,NA,NA,NA,NA,NA,NA,"","","",NA,"",NA,NA,NA,NA,NA,NA,NA,"",NA,"19"
"",NA,"",NA,"",NA,NA,NA,NA,NA,NA,NA,"","",1,1,"2024-08-23_22h44.48.957","IAT(Formal)","2021.2.3","Win32",238.0952381,"",NA,"",NA,NA,NA,NA,NA,NA,NA,"","","",NA,"i",1,0.4929,NA,NA,NA,NA,NA,"他的","i","",NA,0,38,38,7,1,"",NA,"",NA,NA,NA,NA,NA,NA,NA,"",NA,"",NA,NA,NA,NA,NA,NA,NA,"","","",NA,"",NA,NA,NA,NA,NA,NA,NA,"",NA,"19"
"",NA,"",NA,"",NA,NA,NA,NA,NA,NA,NA,"","",1,1,"2024-08-23_22h44.48.957","IAT(Formal)","2021.2.3","Win32",238.0952381,"",NA,"",NA,NA,NA,NA,NA,NA,NA,"","","",NA,"e",1,0.6262,NA,NA,NA,NA,NA,"诚恳","e","",NA,0,39,39,29,1,"",NA,"",NA,NA,NA,NA,NA,NA,NA,"",NA,"",NA,NA,NA,NA,NA,NA,NA,"","","",NA,"",NA,NA,NA,NA,NA,NA,NA,"",NA,"19"
"",NA,"",NA,"",NA,NA,NA,NA,NA,NA,NA,"","",1,1,"2024-08-23_22h44.48.957","IAT(Formal)","2021.2.3","Win32",238.0952381,"",NA,"",NA,NA,NA,NA,NA,NA,NA,"","","",NA,"e",1,0.7217,NA,NA,NA,NA,NA,"杰出","e","",NA,0,40,40,13,1,"",NA,"",NA,NA,NA,NA,NA,NA,NA,"",NA,"",NA,NA,NA,NA,NA,NA,NA,"","","",NA,"",NA,NA,NA,NA,NA,NA,NA,"",NA,"19"
"",NA,"",NA,"",NA,NA,NA,NA,NA,NA,NA,"","",1,1,"2024-08-23_22h44.48.957","IAT(Formal)","2021.2.3","Win32",238.0952381,"",NA,"",NA,NA,NA,NA,NA,NA,NA,"","","",NA,"e",1,0.4509,NA,NA,NA,NA,NA,"我们","e","",NA,0,41,41,52,1,"",NA,"",NA,NA,NA,NA,NA,NA,NA,"",NA,"",NA,NA,NA,NA,NA,NA,NA,"","","",NA,"",NA,NA,NA,NA,NA,NA,NA,"",NA,"19"
"",NA,"",NA,"",NA,NA,NA,NA,NA,NA,NA,"","",1,1,"2024-08-23_22h44.48.957","IAT(Formal)","2021.2.3","Win32",238.0952381,"",NA,"",NA,NA,NA,NA,NA,NA,NA,"","","",NA,"i",1,0.6673,NA,NA,NA,NA,NA,"自卑","i","",NA,0,42,42,36,1,"",NA,"",NA,NA,NA,NA,NA,NA,NA,"",NA,"",NA,NA,NA,NA,NA,NA,NA,"","","",NA,"",NA,NA,NA,NA,NA,NA,NA,"",NA,"19"
"",NA,"",NA,"",NA,NA,NA,NA,NA,NA,NA,"","",1,1,"2024-08-23_22h44.48.957","IAT(Formal)","2021.2.3","Win32",238.0952381,"",NA,"",NA,NA,NA,NA,NA,NA,NA,"","","",NA,"e",1,0.5554,NA,NA,NA,NA,NA,"机智","e","",NA,0,43,43,19,1,"",NA,"",NA,NA,NA,NA,NA,NA,NA,"",NA,"",NA,NA,NA,NA,NA,NA,NA,"","","",NA,"",NA,NA,NA,NA,NA,NA,NA,"",NA,"19"
"",NA,"",NA,"",NA,NA,NA,NA,NA,NA,NA,"","",1,1,"2024-08-23_22h44.48.957","IAT(Formal)","2021.2.3","Win32",238.0952381,"",NA,"",NA,NA,NA,NA,NA,NA,NA,"","","",NA,"e",1,0.4051,NA,NA,NA,NA,NA,"我的","e","",NA,0,44,44,51,1,"",NA,"",NA,NA,NA,NA,NA,NA,NA,"",NA,"",NA,NA,NA,NA,NA,NA,NA,"","","",NA,"",NA,NA,NA,NA,NA,NA,NA,"",NA,"19"
"",NA,"",NA,"",NA,NA,NA,NA,NA,NA,NA,"","",1,1,"2024-08-23_22h44.48.957","IAT(Formal)","2021.2.3","Win32",238.0952381,"",NA,"",NA,NA,NA,NA,NA,NA,NA,"","","",NA,"e",1,0.5181,NA,NA,NA,NA,NA,"俺","e","",NA,0,45,45,74,1,"",NA,"",NA,NA,NA,NA,NA,NA,NA,"",NA,"",NA,NA,NA,NA,NA,NA,NA,"","","",NA,"",NA,NA,NA,NA,NA,NA,NA,"",NA,"19"
"",NA,"",NA,"",NA,NA,NA,NA,NA,NA,NA,"","",1,1,"2024-08-23_22h44.48.957","IAT(Formal)","2021.2.3","Win32",238.0952381,"",NA,"",NA,NA,NA,NA,NA,NA,NA,"","","",NA,"e",1,0.818,NA,NA,NA,NA,NA,"稳重","e","",NA,0,46,46,21,1,"",NA,"",NA,NA,NA,NA,NA,NA,NA,"",NA,"",NA,NA,NA,NA,NA,NA,NA,"","","",NA,"",NA,NA,NA,NA,NA,NA,NA,"",NA,"19"
"",NA,"",NA,"",NA,NA,NA,NA,NA,NA,NA,"","",1,1,"2024-08-23_22h44.48.957","IAT(Formal)","2021.2.3","Win32",238.0952381,"",NA,"",NA,NA,NA,NA,NA,NA,NA,"","","",NA,"i",1,0.5503,NA,NA,NA,NA,NA,"下贱","i","",NA,0,47,47,49,1,"",NA,"",NA,NA,NA,NA,NA,NA,NA,"",NA,"",NA,NA,NA,NA,NA,NA,NA,"","","",NA,"",NA,NA,NA,NA,NA,NA,NA,"",NA,"19"
"",NA,"",NA,"",NA,NA,NA,NA,NA,NA,NA,"","",1,1,"2024-08-23_22h44.48.957","IAT(Formal)","2021.2.3","Win32",238.0952381,"",NA,"",NA,NA,NA,NA,NA,NA,NA,"","","",NA,"e",1,0.4765,NA,NA,NA,NA,NA,"自己","e","",NA,0,48,48,73,1,"",NA,"",NA,NA,NA,NA,NA,NA,NA,"",NA,"",NA,NA,NA,NA,NA,NA,NA,"","","",NA,"",NA,NA,NA,NA,NA,NA,NA,"",NA,"19"
"",NA,"",NA,"",NA,NA,NA,NA,NA,NA,NA,"","",1,1,"2024-08-23_22h44.48.957","IAT(Formal)","2021.2.3","Win32",238.0952381,"",NA,"",NA,NA,NA,NA,NA,NA,NA,"","","",NA,"e",1,1.0067,NA,NA,NA,NA,NA,"勇敢","e","",NA,0,49,49,17,1,"",NA,"",NA,NA,NA,NA,NA,NA,NA,"",NA,"",NA,NA,NA,NA,NA,NA,NA,"","","",NA,"",NA,NA,NA,NA,NA,NA,NA,"",NA,"19"
"",NA,"",NA,"",NA,NA,NA,NA,NA,NA,NA,"","",1,1,"2024-08-23_22h44.48.957","IAT(Formal)","2021.2.3","Win32",238.0952381,"",NA,"",NA,NA,NA,NA,NA,NA,NA,"","","",NA,"i",1,0.4259,NA,NA,NA,NA,NA,"他们","i","",NA,0,50,50,76,1,"",NA,"",NA,NA,NA,NA,NA,NA,NA,"",NA,"",NA,NA,NA,NA,NA,NA,NA,"","","",NA,"",NA,NA,NA,NA,NA,NA,NA,"",NA,"19"
"",NA,"",NA,"",NA,NA,NA,NA,NA,NA,NA,"","",1,1,"2024-08-23_22h44.48.957","IAT(Formal)","2021.2.3","Win32",238.0952381,"",NA,"",NA,NA,NA,NA,NA,NA,NA,"","","",NA,"i",1,0.5638,NA,NA,NA,NA,NA,"鲁莽","i","",NA,0,51,51,38,1,"",NA,"",NA,NA,NA,NA,NA,NA,NA,"",NA,"",NA,NA,NA,NA,NA,NA,NA,"","","",NA,"",NA,NA,NA,NA,NA,NA,NA,"",NA,"19"
"",NA,"",NA,"",NA,NA,NA,NA,NA,NA,NA,"","",1,1,"2024-08-23_22h44.48.957","IAT(Formal)","2021.2.3","Win32",238.0952381,"",NA,"",NA,NA,NA,NA,NA,NA,NA,"","","",NA,"e",1,0.6971,NA,NA,NA,NA,NA,"勤奋","e","",NA,0,52,52,18,1,"",NA,"",NA,NA,NA,NA,NA,NA,NA,"",NA,"",NA,NA,NA,NA,NA,NA,NA,"","","",NA,"",NA,NA,NA,NA,NA,NA,NA,"",NA,"19"
"",NA,"",NA,"",NA,NA,NA,NA,NA,NA,NA,"","",1,1,"2024-08-23_22h44.48.957","IAT(Formal)","2021.2.3","Win32",238.0952381,"",NA,"",NA,NA,NA,NA,NA,NA,NA,"","","",NA,"i",1,0.8776,NA,NA,NA,NA,NA,"冒失","i","",NA,0,53,53,39,1,"",NA,"",NA,NA,NA,NA,NA,NA,NA,"",NA,"",NA,NA,NA,NA,NA,NA,NA,"","","",NA,"",NA,NA,NA,NA,NA,NA,NA,"",NA,"19"
"",NA,"",NA,"",NA,NA,NA,NA,NA,NA,NA,"","",1,1,"2024-08-23_22h44.48.957","IAT(Formal)","2021.2.3","Win32",238.0952381,"",NA,"",NA,NA,NA,NA,NA,NA,NA,"","","",NA,"i",1,0.4138,NA,NA,NA,NA,NA,"他","i","",NA,0,54,54,65,1,"",NA,"",NA,NA,NA,NA,NA,NA,NA,"",NA,"",NA,NA,NA,NA,NA,NA,NA,"","","",NA,"",NA,NA,NA,NA,NA,NA,NA,"",NA,"19"
"",NA,"",NA,"",NA,NA,NA,NA,NA,NA,NA,"","",1,1,"2024-08-23_22h44.48.957","IAT(Formal)","2021.2.3","Win32",238.0952381,"",NA,"",NA,NA,NA,NA,NA,NA,NA,"","","",NA,"i",1,0.3556,NA,NA,NA,NA,NA,"他人","i","",NA,0,55,55,68,1,"",NA,"",NA,NA,NA,NA,NA,NA,NA,"",NA,"",NA,NA,NA,NA,NA,NA,NA,"","","",NA,"",NA,NA,NA,NA,NA,NA,NA,"",NA,"19"
"",NA,"",NA,"",NA,NA,NA,NA,NA,NA,NA,"","",1,1,"2024-08-23_22h44.48.957","IAT(Formal)","2021.2.3","Win32",238.0952381,"",NA,"",NA,NA,NA,NA,NA,NA,NA,"","","",NA,"e",1,0.4515,NA,NA,NA,NA,NA,"乐观","e","",NA,0,56,56,14,1,"",NA,"",NA,NA,NA,NA,NA,NA,NA,"",NA,"",NA,NA,NA,NA,NA,NA,NA,"","","",NA,"",NA,NA,NA,NA,NA,NA,NA,"",NA,"19"
"",NA,"",NA,"",NA,NA,NA,NA,NA,NA,NA,"","",1,1,"2024-08-23_22h44.48.957","IAT(Formal)","2021.2.3","Win32",238.0952381,"",NA,"",NA,NA,NA,NA,NA,NA,NA,"","","",NA,"e",1,0.6419,NA,NA,NA,NA,NA,"我","e","",NA,0,57,57,0,1,"",NA,"",NA,NA,NA,NA,NA,NA,NA,"",NA,"",NA,NA,NA,NA,NA,NA,NA,"","","",NA,"",NA,NA,NA,NA,NA,NA,NA,"",NA,"19"
"",NA,"",NA,"",NA,NA,NA,NA,NA,NA,NA,"","",1,1,"2024-08-23_22h44.48.957","IAT(Formal)","2021.2.3","Win32",238.0952381,"",NA,"",NA,NA,NA,NA,NA,NA,NA,"","","",NA,"i",1,0.4087,NA,NA,NA,NA,NA,"其他","i","",NA,0,58,58,9,1,"",NA,"",NA,NA,NA,NA,NA,NA,NA,"",NA,"",NA,NA,NA,NA,NA,NA,NA,"","","",NA,"",NA,NA,NA,NA,NA,NA,NA,"",NA,"19"
"",NA,"",NA,"",NA,NA,NA,NA,NA,NA,NA,"","",1,1,"2024-08-23_22h44.48.957","IAT(Formal)","2021.2.3","Win32",238.0952381,"",NA,"",NA,NA,NA,NA,NA,NA,NA,"","","",NA,"e",1,0.455,NA,NA,NA,NA,NA,"俺","e","",NA,0,59,59,54,1,"",NA,"",NA,NA,NA,NA,NA,NA,NA,"",NA,"",NA,NA,NA,NA,NA,NA,NA,"","","",NA,"",NA,NA,NA,NA,NA,NA,NA,"",NA,"19"
"",NA,"",NA,"",NA,NA,NA,NA,NA,NA,NA,"","",1,1,"2024-08-23_22h44.48.957","IAT(Formal)","2021.2.3","Win32",238.0952381,"",NA,"",NA,NA,NA,NA,NA,NA,NA,"","","",NA,"i",1,0.7887,NA,NA,NA,NA,NA,"自私","i","",NA,0,60,60,43,1,"",NA,"",NA,NA,NA,NA,NA,NA,NA,"",NA,"",NA,NA,NA,NA,NA,NA,NA,"","","",NA,"",NA,NA,NA,NA,NA,NA,NA,"",NA,"19"
"",NA,"",NA,"",NA,NA,NA,NA,NA,NA,NA,"","",1,1,"2024-08-23_22h44.48.957","IAT(Formal)","2021.2.3","Win32",238.0952381,"",NA,"",NA,NA,NA,NA,NA,NA,NA,"","","",NA,"i",1,0.4586,NA,NA,NA,NA,NA,"他们","i","",NA,0,61,61,66,1,"",NA,"",NA,NA,NA,NA,NA,NA,NA,"",NA,"",NA,NA,NA,NA,NA,NA,NA,"","","",NA,"",NA,NA,NA,NA,NA,NA,NA,"",NA,"19"
"",NA,"",NA,"",NA,NA,NA,NA,NA,NA,NA,"","",1,1,"2024-08-23_22h44.48.957","IAT(Formal)","2021.2.3","Win32",238.0952381,"",NA,"",NA,NA,NA,NA,NA,NA,NA,"","","",NA,"i",1,0.6883,NA,NA,NA,NA,NA,"执拗","i","",NA,0,62,62,40,1,"",NA,"",NA,NA,NA,NA,NA,NA,NA,"",NA,"",NA,NA,NA,NA,NA,NA,NA,"","","",NA,"",NA,NA,NA,NA,NA,NA,NA,"",NA,"19"
"",NA,"",NA,"",NA,NA,NA,NA,NA,NA,NA,"","",1,1,"2024-08-23_22h44.48.957","IAT(Formal)","2021.2.3","Win32",238.0952381,"",NA,"",NA,NA,NA,NA,NA,NA,NA,"","","",NA,"e",1,0.6174,NA,NA,NA,NA,NA,"无私","e","",NA,0,63,63,22,1,"",NA,"",NA,NA,NA,NA,NA,NA,NA,"",NA,"",NA,NA,NA,NA,NA,NA,NA,"","","",NA,"",NA,NA,NA,NA,NA,NA,NA,"",NA,"19"
"",NA,"",NA,"",NA,NA,NA,NA,NA,NA,NA,"","",1,1,"2024-08-23_22h44.48.957","IAT(Formal)","2021.2.3","Win32",238.0952381,"",NA,"",NA,NA,NA,NA,NA,NA,NA,"","","",NA,"i",1,0.4106,NA,NA,NA,NA,NA,"他人","i","",NA,0,64,64,78,1,"",NA,"",NA,NA,NA,NA,NA,NA,NA,"",NA,"",NA,NA,NA,NA,NA,NA,NA,"","","",NA,"",NA,NA,NA,NA,NA,NA,NA,"",NA,"19"
"",NA,"",NA,"",NA,NA,NA,NA,NA,NA,NA,"","",1,1,"2024-08-23_22h44.48.957","IAT(Formal)","2021.2.3","Win32",238.0952381,"",NA,"",NA,NA,NA,NA,NA,NA,NA,"","","",NA,"e",0,0.4807,NA,NA,NA,NA,NA,"他人","i","",NA,0,65,65,8,1,"",NA,"",NA,NA,NA,NA,NA,NA,NA,"",NA,"",NA,NA,NA,NA,NA,NA,NA,"","","",NA,"",NA,NA,NA,NA,NA,NA,NA,"",NA,"19"
"",NA,"",NA,"",NA,NA,NA,NA,NA,NA,NA,"","",1,1,"2024-08-23_22h44.48.957","IAT(Formal)","2021.2.3","Win32",238.0952381,"",NA,"",NA,NA,NA,NA,NA,NA,NA,"","","",NA,"e",1,0.3391,NA,NA,NA,NA,NA,"我的","e","",NA,0,66,66,1,1,"",NA,"",NA,NA,NA,NA,NA,NA,NA,"",NA,"",NA,NA,NA,NA,NA,NA,NA,"","","",NA,"",NA,NA,NA,NA,NA,NA,NA,"",NA,"19"
"",NA,"",NA,"",NA,NA,NA,NA,NA,NA,NA,"","",1,1,"2024-08-23_22h44.48.957","IAT(Formal)","2021.2.3","Win32",238.0952381,"",NA,"",NA,NA,NA,NA,NA,NA,NA,"","","",NA,"i",1,0.3259,NA,NA,NA,NA,NA,"他的","i","",NA,0,67,67,77,1,"",NA,"",NA,NA,NA,NA,NA,NA,NA,"",NA,"",NA,NA,NA,NA,NA,NA,NA,"","","",NA,"",NA,NA,NA,NA,NA,NA,NA,"",NA,"19"
"",NA,"",NA,"",NA,NA,NA,NA,NA,NA,NA,"","",1,1,"2024-08-23_22h44.48.957","IAT(Formal)","2021.2.3","Win32",238.0952381,"",NA,"",NA,NA,NA,NA,NA,NA,NA,"","","",NA,"e",1,0.5742,NA,NA,NA,NA,NA,"诚实","e","",NA,0,68,68,15,1,"",NA,"",NA,NA,NA,NA,NA,NA,NA,"",NA,"",NA,NA,NA,NA,NA,NA,NA,"","","",NA,"",NA,NA,NA,NA,NA,NA,NA,"",NA,"19"
"",NA,"",NA,"",NA,NA,NA,NA,NA,NA,NA,"","",1,1,"2024-08-23_22h44.48.957","IAT(Formal)","2021.2.3","Win32",238.0952381,"",NA,"",NA,NA,NA,NA,NA,NA,NA,"","","",NA,"e",1,0.668,NA,NA,NA,NA,NA,"俺","e","",NA,0,69,69,64,1,"",NA,"",NA,NA,NA,NA,NA,NA,NA,"",NA,"",NA,NA,NA,NA,NA,NA,NA,"","","",NA,"",NA,NA,NA,NA,NA,NA,NA,"",NA,"19"
"",NA,"",NA,"",NA,NA,NA,NA,NA,NA,NA,"","",1,1,"2024-08-23_22h44.48.957","IAT(Formal)","2021.2.3","Win32",238.0952381,"",NA,"",NA,NA,NA,NA,NA,NA,NA,"","","",NA,"i",1,0.4547,NA,NA,NA,NA,NA,"固执","i","",NA,0,70,70,47,1,"",NA,"",NA,NA,NA,NA,NA,NA,NA,"",NA,"",NA,NA,NA,NA,NA,NA,NA,"","","",NA,"",NA,NA,NA,NA,NA,NA,NA,"",NA,"19"
"",NA,"",NA,"",NA,NA,NA,NA,NA,NA,NA,"","",1,1,"2024-08-23_22h44.48.957","IAT(Formal)","2021.2.3","Win32",238.0952381,"",NA,"",NA,NA,NA,NA,NA,NA,NA,"","","",NA,"e",1,0.5503,NA,NA,NA,NA,NA,"热情","e","",NA,0,71,71,27,1,"",NA,"",NA,NA,NA,NA,NA,NA,NA,"",NA,"",NA,NA,NA,NA,NA,NA,NA,"","","",NA,"",NA,NA,NA,NA,NA,NA,NA,"",NA,"19"
"",NA,"",NA,"",NA,NA,NA,NA,NA,NA,NA,"","",1,1,"2024-08-23_22h44.48.957","IAT(Formal)","2021.2.3","Win32",238.0952381,"",NA,"",NA,NA,NA,NA,NA,NA,NA,"","","",NA,"e",0,0.3804,NA,NA,NA,NA,NA,"刻薄","i","",NA,0,72,72,33,1,"",NA,"",NA,NA,NA,NA,NA,NA,NA,"",NA,"",NA,NA,NA,NA,NA,NA,NA,"","","",NA,"",NA,NA,NA,NA,NA,NA,NA,"",NA,"19"
"",NA,"",NA,"",NA,NA,NA,NA,NA,NA,NA,"","",1,1,"2024-08-23_22h44.48.957","IAT(Formal)","2021.2.3","Win32",238.0952381,"",NA,"",NA,NA,NA,NA,NA,NA,NA,"","","",NA,"i",1,0.7858,NA,NA,NA,NA,NA,"其他","i","",NA,0,73,73,79,1,"",NA,"",NA,NA,NA,NA,NA,NA,NA,"",NA,"",NA,NA,NA,NA,NA,NA,NA,"","","",NA,"",NA,NA,NA,NA,NA,NA,NA,"",NA,"19"
"",NA,"",NA,"",NA,NA,NA,NA,NA,NA,NA,"","",1,1,"2024-08-23_22h44.48.957","IAT(Formal)","2021.2.3","Win32",238.0952381,"",NA,"",NA,NA,NA,NA,NA,NA,NA,"","","",NA,"e",1,0.525,NA,NA,NA,NA,NA,"认真","e","",NA,0,74,74,20,1,"",NA,"",NA,NA,NA,NA,NA,NA,NA,"",NA,"",NA,NA,NA,NA,NA,NA,NA,"","","",NA,"",NA,NA,NA,NA,NA,NA,NA,"",NA,"19"
"",NA,"",NA,"",NA,NA,NA,NA,NA,NA,NA,"","",1,1,"2024-08-23_22h44.48.957","IAT(Formal)","2021.2.3","Win32",238.0952381,"",NA,"",NA,NA,NA,NA,NA,NA,NA,"","","",NA,"i",1,0.5001,NA,NA,NA,NA,NA,"卑鄙","i","",NA,0,75,75,30,1,"",NA,"",NA,NA,NA,NA,NA,NA,NA,"",NA,"",NA,NA,NA,NA,NA,NA,NA,"","","",NA,"",NA,NA,NA,NA,NA,NA,NA,"",NA,"19"
"",NA,"",NA,"",NA,NA,NA,NA,NA,NA,NA,"","",1,1,"2024-08-23_22h44.48.957","IAT(Formal)","2021.2.3","Win32",238.0952381,"",NA,"",NA,NA,NA,NA,NA,NA,NA,"","","",NA,"i",1,0.9358,NA,NA,NA,NA,NA,"他","i","",NA,0,76,76,55,1,"",NA,"",NA,NA,NA,NA,NA,NA,NA,"",NA,"",NA,NA,NA,NA,NA,NA,NA,"","","",NA,"",NA,NA,NA,NA,NA,NA,NA,"",NA,"19"
"",NA,"",NA,"",NA,NA,NA,NA,NA,NA,NA,"","",1,1,"2024-08-23_22h44.48.957","IAT(Formal)","2021.2.3","Win32",238.0952381,"",NA,"",NA,NA,NA,NA,NA,NA,NA,"","","",NA,"i",1,1.0066,NA,NA,NA,NA,NA,"悲观","i","",NA,0,77,77,34,1,"",NA,"",NA,NA,NA,NA,NA,NA,NA,"",NA,"",NA,NA,NA,NA,NA,NA,NA,"","","",NA,"",NA,NA,NA,NA,NA,NA,NA,"",NA,"19"
"",NA,"",NA,"",NA,NA,NA,NA,NA,NA,NA,"","",1,1,"2024-08-23_22h44.48.957","IAT(Formal)","2021.2.3","Win32",238.0952381,"",NA,"",NA,NA,NA,NA,NA,NA,NA,"","","",NA,"e",1,0.4424,NA,NA,NA,NA,NA,"我们","e","",NA,0,78,78,2,1,"",NA,"",NA,NA,NA,NA,NA,NA,NA,"",NA,"",NA,NA,NA,NA,NA,NA,NA,"","","",NA,"",NA,NA,NA,NA,NA,NA,NA,"",NA,"19"
"",NA,"",NA,"",NA,NA,NA,NA,NA,NA,NA,"","",1,1,"2024-08-23_22h44.48.957","IAT(Formal)","2021.2.3","Win32",238.0952381,"",NA,"",NA,NA,NA,NA,NA,NA,NA,"","","",NA,"i",1,0.4672,NA,NA,NA,NA,NA,"他","i","",NA,0,79,79,5,1,"",NA,"",NA,NA,NA,NA,NA,NA,NA,"",NA,"",NA,NA,NA,NA,NA,NA,NA,"","","",NA,"",NA,NA,NA,NA,NA,NA,NA,"",NA,"19"
"",NA,"",NA,"",NA,NA,NA,NA,NA,NA,NA,"","",1,1,"2024-08-23_22h44.48.957","IAT(Formal)","2021.2.3","Win32",238.0952381,"",NA,"",NA,NA,NA,NA,NA,NA,NA,"","","",NA,"i",1,0.5539,NA,NA,NA,NA,NA,"野蛮","i","",NA,1,0,80,46,1,"",NA,"",NA,NA,NA,NA,NA,NA,NA,"",NA,"",NA,NA,NA,NA,NA,NA,NA,"","","",NA,"",NA,NA,NA,NA,NA,NA,NA,"",NA,"19"
"",NA,"",NA,"",NA,NA,NA,NA,NA,NA,NA,"","",1,1,"2024-08-23_22h44.48.957","IAT(Formal)","2021.2.3","Win32",238.0952381,"",NA,"",NA,NA,NA,NA,NA,NA,NA,"","","",NA,"e",1,0.5466,NA,NA,NA,NA,NA,"我的","e","",NA,1,1,81,71,1,"",NA,"",NA,NA,NA,NA,NA,NA,NA,"",NA,"",NA,NA,NA,NA,NA,NA,NA,"","","",NA,"",NA,NA,NA,NA,NA,NA,NA,"",NA,"19"
"",NA,"",NA,"",NA,NA,NA,NA,NA,NA,NA,"","",1,1,"2024-08-23_22h44.48.957","IAT(Formal)","2021.2.3","Win32",238.0952381,"",NA,"",NA,NA,NA,NA,NA,NA,NA,"","","",NA,"e",1,0.4047,NA,NA,NA,NA,NA,"俺","e","",NA,1,2,82,4,1,"",NA,"",NA,NA,NA,NA,NA,NA,NA,"",NA,"",NA,NA,NA,NA,NA,NA,NA,"","","",NA,"",NA,NA,NA,NA,NA,NA,NA,"",NA,"19"
"",NA,"",NA,"",NA,NA,NA,NA,NA,NA,NA,"","",1,1,"2024-08-23_22h44.48.957","IAT(Formal)","2021.2.3","Win32",238.0952381,"",NA,"",NA,NA,NA,NA,NA,NA,NA,"","","",NA,"e",1,0.3119,NA,NA,NA,NA,NA,"我的","e","",NA,1,3,83,1,1,"",NA,"",NA,NA,NA,NA,NA,NA,NA,"",NA,"",NA,NA,NA,NA,NA,NA,NA,"","","",NA,"",NA,NA,NA,NA,NA,NA,NA,"",NA,"19"
"",NA,"",NA,"",NA,NA,NA,NA,NA,NA,NA,"","",1,1,"2024-08-23_22h44.48.957","IAT(Formal)","2021.2.3","Win32",238.0952381,"",NA,"",NA,NA,NA,NA,NA,NA,NA,"","","",NA,"i",1,0.4976,NA,NA,NA,NA,NA,"消极","i","",NA,1,4,84,35,1,"",NA,"",NA,NA,NA,NA,NA,NA,NA,"",NA,"",NA,NA,NA,NA,NA,NA,NA,"","","",NA,"",NA,NA,NA,NA,NA,NA,NA,"",NA,"19"
"",NA,"",NA,"",NA,NA,NA,NA,NA,NA,NA,"","",1,1,"2024-08-23_22h44.48.957","IAT(Formal)","2021.2.3","Win32",238.0952381,"",NA,"",NA,NA,NA,NA,NA,NA,NA,"","","",NA,"e",1,0.6398,NA,NA,NA,NA,NA,"稳重","e","",NA,1,5,85,21,1,"",NA,"",NA,NA,NA,NA,NA,NA,NA,"",NA,"",NA,NA,NA,NA,NA,NA,NA,"","","",NA,"",NA,NA,NA,NA,NA,NA,NA,"",NA,"19"
"",NA,"",NA,"",NA,NA,NA,NA,NA,NA,NA,"","",1,1,"2024-08-23_22h44.48.957","IAT(Formal)","2021.2.3","Win32",238.0952381,"",NA,"",NA,NA,NA,NA,NA,NA,NA,"","","",NA,"e",1,0.3587,NA,NA,NA,NA,NA,"我","e","",NA,1,6,86,70,1,"",NA,"",NA,NA,NA,NA,NA,NA,NA,"",NA,"",NA,NA,NA,NA,NA,NA,NA,"","","",NA,"",NA,NA,NA,NA,NA,NA,NA,"",NA,"19"
"",NA,"",NA,"",NA,NA,NA,NA,NA,NA,NA,"","",1,1,"2024-08-23_22h44.48.957","IAT(Formal)","2021.2.3","Win32",238.0952381,"",NA,"",NA,NA,NA,NA,NA,NA,NA,"","","",NA,"i",1,0.467,NA,NA,NA,NA,NA,"执拗","i","",NA,1,7,87,40,1,"",NA,"",NA,NA,NA,NA,NA,NA,NA,"",NA,"",NA,NA,NA,NA,NA,NA,NA,"","","",NA,"",NA,NA,NA,NA,NA,NA,NA,"",NA,"19"
"",NA,"",NA,"",NA,NA,NA,NA,NA,NA,NA,"","",1,1,"2024-08-23_22h44.48.957","IAT(Formal)","2021.2.3","Win32",238.0952381,"",NA,"",NA,NA,NA,NA,NA,NA,NA,"","","",NA,"e",1,0.3216,NA,NA,NA,NA,NA,"我们","e","",NA,1,8,88,72,1,"",NA,"",NA,NA,NA,NA,NA,NA,NA,"",NA,"",NA,NA,NA,NA,NA,NA,NA,"","","",NA,"",NA,NA,NA,NA,NA,NA,NA,"",NA,"19"
"",NA,"",NA,"",NA,NA,NA,NA,NA,NA,NA,"","",1,1,"2024-08-23_22h44.48.957","IAT(Formal)","2021.2.3","Win32",238.0952381,"",NA,"",NA,NA,NA,NA,NA,NA,NA,"","","",NA,"e",1,0.6244,NA,NA,NA,NA,NA,"我","e","",NA,1,9,89,50,1,"",NA,"",NA,NA,NA,NA,NA,NA,NA,"",NA,"",NA,NA,NA,NA,NA,NA,NA,"","","",NA,"",NA,NA,NA,NA,NA,NA,NA,"",NA,"19"
"",NA,"",NA,"",NA,NA,NA,NA,NA,NA,NA,"","",1,1,"2024-08-23_22h44.48.957","IAT(Formal)","2021.2.3","Win32",238.0952381,"",NA,"",NA,NA,NA,NA,NA,NA,NA,"","","",NA,"e",1,0.5156,NA,NA,NA,NA,NA,"细腻","e","",NA,1,10,90,25,1,"",NA,"",NA,NA,NA,NA,NA,NA,NA,"",NA,"",NA,NA,NA,NA,NA,NA,NA,"","","",NA,"",NA,NA,NA,NA,NA,NA,NA,"",NA,"19"
"",NA,"",NA,"",NA,NA,NA,NA,NA,NA,NA,"","",1,1,"2024-08-23_22h44.48.957","IAT(Formal)","2021.2.3","Win32",238.0952381,"",NA,"",NA,NA,NA,NA,NA,NA,NA,"","","",NA,"e",0,0.2921,NA,NA,NA,NA,NA,"他的","i","",NA,1,11,91,77,1,"",NA,"",NA,NA,NA,NA,NA,NA,NA,"",NA,"",NA,NA,NA,NA,NA,NA,NA,"","","",NA,"",NA,NA,NA,NA,NA,NA,NA,"",NA,"19"
"",NA,"",NA,"",NA,NA,NA,NA,NA,NA,NA,"","",1,1,"2024-08-23_22h44.48.957","IAT(Formal)","2021.2.3","Win32",238.0952381,"",NA,"",NA,NA,NA,NA,NA,NA,NA,"","","",NA,"i",0,0.4558,NA,NA,NA,NA,NA,"俺","e","",NA,1,12,92,74,1,"",NA,"",NA,NA,NA,NA,NA,NA,NA,"",NA,"",NA,NA,NA,NA,NA,NA,NA,"","","",NA,"",NA,NA,NA,NA,NA,NA,NA,"",NA,"19"
"",NA,"",NA,"",NA,NA,NA,NA,NA,NA,NA,"","",1,1,"2024-08-23_22h44.48.957","IAT(Formal)","2021.2.3","Win32",238.0952381,"",NA,"",NA,NA,NA,NA,NA,NA,NA,"","","",NA,"i",1,0.4388,NA,NA,NA,NA,NA,"他的","i","",NA,1,13,93,67,1,"",NA,"",NA,NA,NA,NA,NA,NA,NA,"",NA,"",NA,NA,NA,NA,NA,NA,NA,"","","",NA,"",NA,NA,NA,NA,NA,NA,NA,"",NA,"19"
"",NA,"",NA,"",NA,NA,NA,NA,NA,NA,NA,"","",1,1,"2024-08-23_22h44.48.957","IAT(Formal)","2021.2.3","Win32",238.0952381,"",NA,"",NA,NA,NA,NA,NA,NA,NA,"","","",NA,"i",1,0.3763,NA,NA,NA,NA,NA,"他人","i","",NA,1,14,94,58,1,"",NA,"",NA,NA,NA,NA,NA,NA,NA,"",NA,"",NA,NA,NA,NA,NA,NA,NA,"","","",NA,"",NA,NA,NA,NA,NA,NA,NA,"",NA,"19"
"",NA,"",NA,"",NA,NA,NA,NA,NA,NA,NA,"","",1,1,"2024-08-23_22h44.48.957","IAT(Formal)","2021.2.3","Win32",238.0952381,"",NA,"",NA,NA,NA,NA,NA,NA,NA,"","","",NA,"e",1,0.3719,NA,NA,NA,NA,NA,"自己","e","",NA,1,15,95,73,1,"",NA,"",NA,NA,NA,NA,NA,NA,NA,"",NA,"",NA,NA,NA,NA,NA,NA,NA,"","","",NA,"",NA,NA,NA,NA,NA,NA,NA,"",NA,"19"
"",NA,"",NA,"",NA,NA,NA,NA,NA,NA,NA,"","",1,1,"2024-08-23_22h44.48.957","IAT(Formal)","2021.2.3","Win32",238.0952381,"",NA,"",NA,NA,NA,NA,NA,NA,NA,"","","",NA,"i",1,0.4146,NA,NA,NA,NA,NA,"他们","i","",NA,1,16,96,66,1,"",NA,"",NA,NA,NA,NA,NA,NA,NA,"",NA,"",NA,NA,NA,NA,NA,NA,NA,"","","",NA,"",NA,NA,NA,NA,NA,NA,NA,"",NA,"19"
"",NA,"",NA,"",NA,NA,NA,NA,NA,NA,NA,"","",1,1,"2024-08-23_22h44.48.957","IAT(Formal)","2021.2.3","Win32",238.0952381,"",NA,"",NA,NA,NA,NA,NA,NA,NA,"","","",NA,"i",1,0.3465,NA,NA,NA,NA,NA,"他的","i","",NA,1,17,97,57,1,"",NA,"",NA,NA,NA,NA,NA,NA,NA,"",NA,"",NA,NA,NA,NA,NA,NA,NA,"","","",NA,"",NA,NA,NA,NA,NA,NA,NA,"",NA,"19"
"",NA,"",NA,"",NA,NA,NA,NA,NA,NA,NA,"","",1,1,"2024-08-23_22h44.48.957","IAT(Formal)","2021.2.3","Win32",238.0952381,"",NA,"",NA,NA,NA,NA,NA,NA,NA,"","","",NA,"e",1,0.8454,NA,NA,NA,NA,NA,"机智","e","",NA,1,18,98,19,1,"",NA,"",NA,NA,NA,NA,NA,NA,NA,"",NA,"",NA,NA,NA,NA,NA,NA,NA,"","","",NA,"",NA,NA,NA,NA,NA,NA,NA,"",NA,"19"
"",NA,"",NA,"",NA,NA,NA,NA,NA,NA,NA,"","",1,1,"2024-08-23_22h44.48.957","IAT(Formal)","2021.2.3","Win32",238.0952381,"",NA,"",NA,NA,NA,NA,NA,NA,NA,"","","",NA,"i",1,0.424,NA,NA,NA,NA,NA,"其他","i","",NA,1,19,99,69,1,"",NA,"",NA,NA,NA,NA,NA,NA,NA,"",NA,"",NA,NA,NA,NA,NA,NA,NA,"","","",NA,"",NA,NA,NA,NA,NA,NA,NA,"",NA,"19"
"",NA,"",NA,"",NA,NA,NA,NA,NA,NA,NA,"","",1,1,"2024-08-23_22h44.48.957","IAT(Formal)","2021.2.3","Win32",238.0952381,"",NA,"",NA,NA,NA,NA,NA,NA,NA,"","","",NA,"e",1,0.4094,NA,NA,NA,NA,NA,"俺","e","",NA,1,20,100,64,1,"",NA,"",NA,NA,NA,NA,NA,NA,NA,"",NA,"",NA,NA,NA,NA,NA,NA,NA,"","","",NA,"",NA,NA,NA,NA,NA,NA,NA,"",NA,"19"
"",NA,"",NA,"",NA,NA,NA,NA,NA,NA,NA,"","",1,1,"2024-08-23_22h44.48.957","IAT(Formal)","2021.2.3","Win32",238.0952381,"",NA,"",NA,NA,NA,NA,NA,NA,NA,"","","",NA,"i",1,0.5171,NA,NA,NA,NA,NA,"鲁莽","i","",NA,1,21,101,38,1,"",NA,"",NA,NA,NA,NA,NA,NA,NA,"",NA,"",NA,NA,NA,NA,NA,NA,NA,"","","",NA,"",NA,NA,NA,NA,NA,NA,NA,"",NA,"19"
"",NA,"",NA,"",NA,NA,NA,NA,NA,NA,NA,"","",1,1,"2024-08-23_22h44.48.957","IAT(Formal)","2021.2.3","Win32",238.0952381,"",NA,"",NA,NA,NA,NA,NA,NA,NA,"","","",NA,"i",1,0.853,NA,NA,NA,NA,NA,"他们","i","",NA,1,22,102,6,1,"",NA,"",NA,NA,NA,NA,NA,NA,NA,"",NA,"",NA,NA,NA,NA,NA,NA,NA,"","","",NA,"",NA,NA,NA,NA,NA,NA,NA,"",NA,"19"
"",NA,"",NA,"",NA,NA,NA,NA,NA,NA,NA,"","",1,1,"2024-08-23_22h44.48.957","IAT(Formal)","2021.2.3","Win32",238.0952381,"",NA,"",NA,NA,NA,NA,NA,NA,NA,"","","",NA,"e",1,0.5756,NA,NA,NA,NA,NA,"杰出","e","",NA,1,23,103,13,1,"",NA,"",NA,NA,NA,NA,NA,NA,NA,"",NA,"",NA,NA,NA,NA,NA,NA,NA,"","","",NA,"",NA,NA,NA,NA,NA,NA,NA,"",NA,"19"
"",NA,"",NA,"",NA,NA,NA,NA,NA,NA,NA,"","",1,1,"2024-08-23_22h44.48.957","IAT(Formal)","2021.2.3","Win32",238.0952381,"",NA,"",NA,NA,NA,NA,NA,NA,NA,"","","",NA,"e",1,0.4466,NA,NA,NA,NA,NA,"热情","e","",NA,1,24,104,27,1,"",NA,"",NA,NA,NA,NA,NA,NA,NA,"",NA,"",NA,NA,NA,NA,NA,NA,NA,"","","",NA,"",NA,NA,NA,NA,NA,NA,NA,"",NA,"19"
"",NA,"",NA,"",NA,NA,NA,NA,NA,NA,NA,"","",1,1,"2024-08-23_22h44.48.957","IAT(Formal)","2021.2.3","Win32",238.0952381,"",NA,"",NA,NA,NA,NA,NA,NA,NA,"","","",NA,"i",1,0.5177,NA,NA,NA,NA,NA,"虚伪","i","",NA,1,25,105,31,1,"",NA,"",NA,NA,NA,NA,NA,NA,NA,"",NA,"",NA,NA,NA,NA,NA,NA,NA,"","","",NA,"",NA,NA,NA,NA,NA,NA,NA,"",NA,"19"
"",NA,"",NA,"",NA,NA,NA,NA,NA,NA,NA,"","",1,1,"2024-08-23_22h44.48.957","IAT(Formal)","2021.2.3","Win32",238.0952381,"",NA,"",NA,NA,NA,NA,NA,NA,NA,"","","",NA,"i",1,0.5267,NA,NA,NA,NA,NA,"下贱","i","",NA,1,26,106,49,1,"",NA,"",NA,NA,NA,NA,NA,NA,NA,"",NA,"",NA,NA,NA,NA,NA,NA,NA,"","","",NA,"",NA,NA,NA,NA,NA,NA,NA,"",NA,"19"
"",NA,"",NA,"",NA,NA,NA,NA,NA,NA,NA,"","",1,1,"2024-08-23_22h44.48.957","IAT(Formal)","2021.2.3","Win32",238.0952381,"",NA,"",NA,NA,NA,NA,NA,NA,NA,"","","",NA,"e",1,0.9177,NA,NA,NA,NA,NA,"公正","e","",NA,1,27,107,23,1,"",NA,"",NA,NA,NA,NA,NA,NA,NA,"",NA,"",NA,NA,NA,NA,NA,NA,NA,"","","",NA,"",NA,NA,NA,NA,NA,NA,NA,"",NA,"19"
"",NA,"",NA,"",NA,NA,NA,NA,NA,NA,NA,"","",1,1,"2024-08-23_22h44.48.957","IAT(Formal)","2021.2.3","Win32",238.0952381,"",NA,"",NA,NA,NA,NA,NA,NA,NA,"","","",NA,"i",1,0.5726,NA,NA,NA,NA,NA,"固执","i","",NA,1,28,108,47,1,"",NA,"",NA,NA,NA,NA,NA,NA,NA,"",NA,"",NA,NA,NA,NA,NA,NA,NA,"","","",NA,"",NA,NA,NA,NA,NA,NA,NA,"",NA,"19"
"",NA,"",NA,"",NA,NA,NA,NA,NA,NA,NA,"","",1,1,"2024-08-23_22h44.48.957","IAT(Formal)","2021.2.3","Win32",238.0952381,"",NA,"",NA,NA,NA,NA,NA,NA,NA,"","","",NA,"e",1,0.9096,NA,NA,NA,NA,NA,"勤奋","e","",NA,1,29,109,18,1,"",NA,"",NA,NA,NA,NA,NA,NA,NA,"",NA,"",NA,NA,NA,NA,NA,NA,NA,"","","",NA,"",NA,NA,NA,NA,NA,NA,NA,"",NA,"19"
"",NA,"",NA,"",NA,NA,NA,NA,NA,NA,NA,"","",1,1,"2024-08-23_22h44.48.957","IAT(Formal)","2021.2.3","Win32",238.0952381,"",NA,"",NA,NA,NA,NA,NA,NA,NA,"","","",NA,"e",1,0.6672,NA,NA,NA,NA,NA,"自己","e","",NA,1,30,110,3,1,"",NA,"",NA,NA,NA,NA,NA,NA,NA,"",NA,"",NA,NA,NA,NA,NA,NA,NA,"","","",NA,"",NA,NA,NA,NA,NA,NA,NA,"",NA,"19"
"",NA,"",NA,"",NA,NA,NA,NA,NA,NA,NA,"","",1,1,"2024-08-23_22h44.48.957","IAT(Formal)","2021.2.3","Win32",238.0952381,"",NA,"",NA,NA,NA,NA,NA,NA,NA,"","","",NA,"e",1,0.4432,NA,NA,NA,NA,NA,"我","e","",NA,1,31,111,60,1,"",NA,"",NA,NA,NA,NA,NA,NA,NA,"",NA,"",NA,NA,NA,NA,NA,NA,NA,"","","",NA,"",NA,NA,NA,NA,NA,NA,NA,"",NA,"19"
"",NA,"",NA,"",NA,NA,NA,NA,NA,NA,NA,"","",1,1,"2024-08-23_22h44.48.957","IAT(Formal)","2021.2.3","Win32",238.0952381,"",NA,"",NA,NA,NA,NA,NA,NA,NA,"","","",NA,"i",1,0.4921,NA,NA,NA,NA,NA,"他","i","",NA,1,32,112,65,1,"",NA,"",NA,NA,NA,NA,NA,NA,NA,"",NA,"",NA,NA,NA,NA,NA,NA,NA,"","","",NA,"",NA,NA,NA,NA,NA,NA,NA,"",NA,"19"
"",NA,"",NA,"",NA,NA,NA,NA,NA,NA,NA,"","",1,1,"2024-08-23_22h44.48.957","IAT(Formal)","2021.2.3","Win32",238.0952381,"",NA,"",NA,NA,NA,NA,NA,NA,NA,"","","",NA,"e",1,0.8736,NA,NA,NA,NA,NA,"认真","e","",NA,1,33,113,20,1,"",NA,"",NA,NA,NA,NA,NA,NA,NA,"",NA,"",NA,NA,NA,NA,NA,NA,NA,"","","",NA,"",NA,NA,NA,NA,NA,NA,NA,"",NA,"19"
"",NA,"",NA,"",NA,NA,NA,NA,NA,NA,NA,"","",1,1,"2024-08-23_22h44.48.957","IAT(Formal)","2021.2.3","Win32",238.0952381,"",NA,"",NA,NA,NA,NA,NA,NA,NA,"","","",NA,"i",1,0.5551,NA,NA,NA,NA,NA,"卑鄙","i","",NA,1,34,114,30,1,"",NA,"",NA,NA,NA,NA,NA,NA,NA,"",NA,"",NA,NA,NA,NA,NA,NA,NA,"","","",NA,"",NA,NA,NA,NA,NA,NA,NA,"",NA,"19"
"",NA,"",NA,"",NA,NA,NA,NA,NA,NA,NA,"","",1,1,"2024-08-23_22h44.48.957","IAT(Formal)","2021.2.3","Win32",238.0952381,"",NA,"",NA,NA,NA,NA,NA,NA,NA,"","","",NA,"e",1,0.3711,NA,NA,NA,NA,NA,"我","e","",NA,1,35,115,0,1,"",NA,"",NA,NA,NA,NA,NA,NA,NA,"",NA,"",NA,NA,NA,NA,NA,NA,NA,"","","",NA,"",NA,NA,NA,NA,NA,NA,NA,"",NA,"19"
"",NA,"",NA,"",NA,NA,NA,NA,NA,NA,NA,"","",1,1,"2024-08-23_22h44.48.957","IAT(Formal)","2021.2.3","Win32",238.0952381,"",NA,"",NA,NA,NA,NA,NA,NA,NA,"","","",NA,"i",1,0.5426,NA,NA,NA,NA,NA,"自私","i","",NA,1,36,116,43,1,"",NA,"",NA,NA,NA,NA,NA,NA,NA,"",NA,"",NA,NA,NA,NA,NA,NA,NA,"","","",NA,"",NA,NA,NA,NA,NA,NA,NA,"",NA,"19"
"",NA,"",NA,"",NA,NA,NA,NA,NA,NA,NA,"","",1,1,"2024-08-23_22h44.48.957","IAT(Formal)","2021.2.3","Win32",238.0952381,"",NA,"",NA,NA,NA,NA,NA,NA,NA,"","","",NA,"i",1,0.9276,NA,NA,NA,NA,NA,"悲观","i","",NA,1,37,117,34,1,"",NA,"",NA,NA,NA,NA,NA,NA,NA,"",NA,"",NA,NA,NA,NA,NA,NA,NA,"","","",NA,"",NA,NA,NA,NA,NA,NA,NA,"",NA,"19"
"",NA,"",NA,"",NA,NA,NA,NA,NA,NA,NA,"","",1,1,"2024-08-23_22h44.48.957","IAT(Formal)","2021.2.3","Win32",238.0952381,"",NA,"",NA,NA,NA,NA,NA,NA,NA,"","","",NA,"e",1,0.6413,NA,NA,NA,NA,NA,"冷静","e","",NA,1,38,118,26,1,"",NA,"",NA,NA,NA,NA,NA,NA,NA,"",NA,"",NA,NA,NA,NA,NA,NA,NA,"","","",NA,"",NA,NA,NA,NA,NA,NA,NA,"",NA,"19"
"",NA,"",NA,"",NA,NA,NA,NA,NA,NA,NA,"","",1,1,"2024-08-23_22h44.48.957","IAT(Formal)","2021.2.3","Win32",238.0952381,"",NA,"",NA,NA,NA,NA,NA,NA,NA,"","","",NA,"i",1,0.5425,NA,NA,NA,NA,NA,"暴躁","i","",NA,1,39,119,44,1,"",NA,"",NA,NA,NA,NA,NA,NA,NA,"",NA,"",NA,NA,NA,NA,NA,NA,NA,"","","",NA,"",NA,NA,NA,NA,NA,NA,NA,"",NA,"19"
"",NA,"",NA,"",NA,NA,NA,NA,NA,NA,NA,"","",1,1,"2024-08-23_22h44.48.957","IAT(Formal)","2021.2.3","Win32",238.0952381,"",NA,"",NA,NA,NA,NA,NA,NA,NA,"","","",NA,"e",1,0.4216,NA,NA,NA,NA,NA,"我的","e","",NA,1,40,120,51,1,"",NA,"",NA,NA,NA,NA,NA,NA,NA,"",NA,"",NA,NA,NA,NA,NA,NA,NA,"","","",NA,"",NA,NA,NA,NA,NA,NA,NA,"",NA,"19"
"",NA,"",NA,"",NA,NA,NA,NA,NA,NA,NA,"","",1,1,"2024-08-23_22h44.48.957","IAT(Formal)","2021.2.3","Win32",238.0952381,"",NA,"",NA,NA,NA,NA,NA,NA,NA,"","","",NA,"e",1,0.2863,NA,NA,NA,NA,NA,"我的","e","",NA,1,41,121,61,1,"",NA,"",NA,NA,NA,NA,NA,NA,NA,"",NA,"",NA,NA,NA,NA,NA,NA,NA,"","","",NA,"",NA,NA,NA,NA,NA,NA,NA,"",NA,"19"
"",NA,"",NA,"",NA,NA,NA,NA,NA,NA,NA,"","",1,1,"2024-08-23_22h44.48.957","IAT(Formal)","2021.2.3","Win32",238.0952381,"",NA,"",NA,NA,NA,NA,NA,NA,NA,"","","",NA,"i",1,0.43,NA,NA,NA,NA,NA,"他们","i","",NA,1,42,122,76,1,"",NA,"",NA,NA,NA,NA,NA,NA,NA,"",NA,"",NA,NA,NA,NA,NA,NA,NA,"","","",NA,"",NA,NA,NA,NA,NA,NA,NA,"",NA,"19"
"",NA,"",NA,"",NA,NA,NA,NA,NA,NA,NA,"","",1,1,"2024-08-23_22h44.48.957","IAT(Formal)","2021.2.3","Win32",238.0952381,"",NA,"",NA,NA,NA,NA,NA,NA,NA,"","","",NA,"e",1,0.6167,NA,NA,NA,NA,NA,"诚实","e","",NA,1,43,123,15,1,"",NA,"",NA,NA,NA,NA,NA,NA,NA,"",NA,"",NA,NA,NA,NA,NA,NA,NA,"","","",NA,"",NA,NA,NA,NA,NA,NA,NA,"",NA,"19"
"",NA,"",NA,"",NA,NA,NA,NA,NA,NA,NA,"","",1,1,"2024-08-23_22h44.48.957","IAT(Formal)","2021.2.3","Win32",238.0952381,"",NA,"",NA,NA,NA,NA,NA,NA,NA,"","","",NA,"e",1,0.4051,NA,NA,NA,NA,NA,"自己","e","",NA,1,44,124,63,1,"",NA,"",NA,NA,NA,NA,NA,NA,NA,"",NA,"",NA,NA,NA,NA,NA,NA,NA,"","","",NA,"",NA,NA,NA,NA,NA,NA,NA,"",NA,"19"
"",NA,"",NA,"",NA,NA,NA,NA,NA,NA,NA,"","",1,1,"2024-08-23_22h44.48.957","IAT(Formal)","2021.2.3","Win32",238.0952381,"",NA,"",NA,NA,NA,NA,NA,NA,NA,"","","",NA,"i",1,0.5301,NA,NA,NA,NA,NA,"散漫","i","",NA,1,45,125,41,1,"",NA,"",NA,NA,NA,NA,NA,NA,NA,"",NA,"",NA,NA,NA,NA,NA,NA,NA,"","","",NA,"",NA,NA,NA,NA,NA,NA,NA,"",NA,"19"
"",NA,"",NA,"",NA,NA,NA,NA,NA,NA,NA,"","",1,1,"2024-08-23_22h44.48.957","IAT(Formal)","2021.2.3","Win32",238.0952381,"",NA,"",NA,NA,NA,NA,NA,NA,NA,"","","",NA,"i",1,0.5098,NA,NA,NA,NA,NA,"他的","i","",NA,1,46,126,7,1,"",NA,"",NA,NA,NA,NA,NA,NA,NA,"",NA,"",NA,NA,NA,NA,NA,NA,NA,"","","",NA,"",NA,NA,NA,NA,NA,NA,NA,"",NA,"19"
"",NA,"",NA,"",NA,NA,NA,NA,NA,NA,NA,"","",1,1,"2024-08-23_22h44.48.957","IAT(Formal)","2021.2.3","Win32",238.0952381,"",NA,"",NA,NA,NA,NA,NA,NA,NA,"","","",NA,"e",1,0.3876,NA,NA,NA,NA,NA,"我们","e","",NA,1,47,127,2,1,"",NA,"",NA,NA,NA,NA,NA,NA,NA,"",NA,"",NA,NA,NA,NA,NA,NA,NA,"","","",NA,"",NA,NA,NA,NA,NA,NA,NA,"",NA,"19"
"",NA,"",NA,"",NA,NA,NA,NA,NA,NA,NA,"","",1,1,"2024-08-23_22h44.48.957","IAT(Formal)","2021.2.3","Win32",238.0952381,"",NA,"",NA,NA,NA,NA,NA,NA,NA,"","","",NA,"e",1,0.8711,NA,NA,NA,NA,NA,"崇高","e","",NA,1,48,128,11,1,"",NA,"",NA,NA,NA,NA,NA,NA,NA,"",NA,"",NA,NA,NA,NA,NA,NA,NA,"","","",NA,"",NA,NA,NA,NA,NA,NA,NA,"",NA,"19"
"",NA,"",NA,"",NA,NA,NA,NA,NA,NA,NA,"","",1,1,"2024-08-23_22h44.48.957","IAT(Formal)","2021.2.3","Win32",238.0952381,"",NA,"",NA,NA,NA,NA,NA,NA,NA,"","","",NA,"i",1,0.5922,NA,NA,NA,NA,NA,"冒失","i","",NA,1,49,129,39,1,"",NA,"",NA,NA,NA,NA,NA,NA,NA,"",NA,"",NA,NA,NA,NA,NA,NA,NA,"","","",NA,"",NA,NA,NA,NA,NA,NA,NA,"",NA,"19"
"",NA,"",NA,"",NA,NA,NA,NA,NA,NA,NA,"","",1,1,"2024-08-23_22h44.48.957","IAT(Formal)","2021.2.3","Win32",238.0952381,"",NA,"",NA,NA,NA,NA,NA,NA,NA,"","","",NA,"e",1,0.5175,NA,NA,NA,NA,NA,"朴实","e","",NA,1,50,130,24,1,"",NA,"",NA,NA,NA,NA,NA,NA,NA,"",NA,"",NA,NA,NA,NA,NA,NA,NA,"","","",NA,"",NA,NA,NA,NA,NA,NA,NA,"",NA,"19"
"",NA,"",NA,"",NA,NA,NA,NA,NA,NA,NA,"","",1,1,"2024-08-23_22h44.48.957","IAT(Formal)","2021.2.3","Win32",238.0952381,"",NA,"",NA,NA,NA,NA,NA,NA,NA,"","","",NA,"e",1,0.5084,NA,NA,NA,NA,NA,"乐观","e","",NA,1,51,131,14,1,"",NA,"",NA,NA,NA,NA,NA,NA,NA,"",NA,"",NA,NA,NA,NA,NA,NA,NA,"","","",NA,"",NA,NA,NA,NA,NA,NA,NA,"",NA,"19"
"",NA,"",NA,"",NA,NA,NA,NA,NA,NA,NA,"","",1,1,"2024-08-23_22h44.48.957","IAT(Formal)","2021.2.3","Win32",238.0952381,"",NA,"",NA,NA,NA,NA,NA,NA,NA,"","","",NA,"i",1,0.5909,NA,NA,NA,NA,NA,"轻率","i","",NA,1,52,132,48,1,"",NA,"",NA,NA,NA,NA,NA,NA,NA,"",NA,"",NA,NA,NA,NA,NA,NA,NA,"","","",NA,"",NA,NA,NA,NA,NA,NA,NA,"",NA,"19"
"",NA,"",NA,"",NA,NA,NA,NA,NA,NA,NA,"","",1,1,"2024-08-23_22h44.48.957","IAT(Formal)","2021.2.3","Win32",238.0952381,"",NA,"",NA,NA,NA,NA,NA,NA,NA,"","","",NA,"i",1,0.3632,NA,NA,NA,NA,NA,"自卑","i","",NA,1,53,133,36,1,"",NA,"",NA,NA,NA,NA,NA,NA,NA,"",NA,"",NA,NA,NA,NA,NA,NA,NA,"","","",NA,"",NA,NA,NA,NA,NA,NA,NA,"",NA,"19"
"",NA,"",NA,"",NA,NA,NA,NA,NA,NA,NA,"","",1,1,"2024-08-23_22h44.48.957","IAT(Formal)","2021.2.3","Win32",238.0952381,"",NA,"",NA,NA,NA,NA,NA,NA,NA,"","","",NA,"i",1,0.5337,NA,NA,NA,NA,NA,"其他","i","",NA,1,54,134,59,1,"",NA,"",NA,NA,NA,NA,NA,NA,NA,"",NA,"",NA,NA,NA,NA,NA,NA,NA,"","","",NA,"",NA,NA,NA,NA,NA,NA,NA,"",NA,"19"
"",NA,"",NA,"",NA,NA,NA,NA,NA,NA,NA,"","",1,1,"2024-08-23_22h44.48.957","IAT(Formal)","2021.2.3","Win32",238.0952381,"",NA,"",NA,NA,NA,NA,NA,NA,NA,"","","",NA,"i",1,0.4638,NA,NA,NA,NA,NA,"傲慢","i","",NA,1,55,135,37,1,"",NA,"",NA,NA,NA,NA,NA,NA,NA,"",NA,"",NA,NA,NA,NA,NA,NA,NA,"","","",NA,"",NA,NA,NA,NA,NA,NA,NA,"",NA,"19"
"",NA,"",NA,"",NA,NA,NA,NA,NA,NA,NA,"","",1,1,"2024-08-23_22h44.48.957","IAT(Formal)","2021.2.3","Win32",238.0952381,"",NA,"",NA,NA,NA,NA,NA,NA,NA,"","","",NA,"i",1,0.4762,NA,NA,NA,NA,NA,"他人","i","",NA,1,56,136,78,1,"",NA,"",NA,NA,NA,NA,NA,NA,NA,"",NA,"",NA,NA,NA,NA,NA,NA,NA,"","","",NA,"",NA,NA,NA,NA,NA,NA,NA,"",NA,"19"
"",NA,"",NA,"",NA,NA,NA,NA,NA,NA,NA,"","",1,1,"2024-08-23_22h44.48.957","IAT(Formal)","2021.2.3","Win32",238.0952381,"",NA,"",NA,NA,NA,NA,NA,NA,NA,"","","",NA,"i",1,0.4639,NA,NA,NA,NA,NA,"其他","i","",NA,1,57,137,79,1,"",NA,"",NA,NA,NA,NA,NA,NA,NA,"",NA,"",NA,NA,NA,NA,NA,NA,NA,"","","",NA,"",NA,NA,NA,NA,NA,NA,NA,"",NA,"19"
"",NA,"",NA,"",NA,NA,NA,NA,NA,NA,NA,"","",1,1,"2024-08-23_22h44.48.957","IAT(Formal)","2021.2.3","Win32",238.0952381,"",NA,"",NA,NA,NA,NA,NA,NA,NA,"","","",NA,"i",1,0.5626,NA,NA,NA,NA,NA,"他们","i","",NA,1,58,138,56,1,"",NA,"",NA,NA,NA,NA,NA,NA,NA,"",NA,"",NA,NA,NA,NA,NA,NA,NA,"","","",NA,"",NA,NA,NA,NA,NA,NA,NA,"",NA,"19"
"",NA,"",NA,"",NA,NA,NA,NA,NA,NA,NA,"","",1,1,"2024-08-23_22h44.48.957","IAT(Formal)","2021.2.3","Win32",238.0952381,"",NA,"",NA,NA,NA,NA,NA,NA,NA,"","","",NA,"i",1,0.3128,NA,NA,NA,NA,NA,"他人","i","",NA,1,59,139,68,1,"",NA,"",NA,NA,NA,NA,NA,NA,NA,"",NA,"",NA,NA,NA,NA,NA,NA,NA,"","","",NA,"",NA,NA,NA,NA,NA,NA,NA,"",NA,"19"
"",NA,"",NA,"",NA,NA,NA,NA,NA,NA,NA,"","",1,1,"2024-08-23_22h44.48.957","IAT(Formal)","2021.2.3","Win32",238.0952381,"",NA,"",NA,NA,NA,NA,NA,NA,NA,"","","",NA,"e",1,0.3839,NA,NA,NA,NA,NA,"聪明","e","",NA,1,60,140,12,1,"",NA,"",NA,NA,NA,NA,NA,NA,NA,"",NA,"",NA,NA,NA,NA,NA,NA,NA,"","","",NA,"",NA,NA,NA,NA,NA,NA,NA,"",NA,"19"
"",NA,"",NA,"",NA,NA,NA,NA,NA,NA,NA,"","",1,1,"2024-08-23_22h44.48.957","IAT(Formal)","2021.2.3","Win32",238.0952381,"",NA,"",NA,NA,NA,NA,NA,NA,NA,"","","",NA,"e",1,0.7121,NA,NA,NA,NA,NA,"活泼","e","",NA,1,61,141,28,1,"",NA,"",NA,NA,NA,NA,NA,NA,NA,"",NA,"",NA,NA,NA,NA,NA,NA,NA,"","","",NA,"",NA,NA,NA,NA,NA,NA,NA,"",NA,"19"
"",NA,"",NA,"",NA,NA,NA,NA,NA,NA,NA,"","",1,1,"2024-08-23_22h44.48.957","IAT(Formal)","2021.2.3","Win32",238.0952381,"",NA,"",NA,NA,NA,NA,NA,NA,NA,"","","",NA,"i",1,0.6089,NA,NA,NA,NA,NA,"他","i","",NA,1,62,142,5,1,"",NA,"",NA,NA,NA,NA,NA,NA,NA,"",NA,"",NA,NA,NA,NA,NA,NA,NA,"","","",NA,"",NA,NA,NA,NA,NA,NA,NA,"",NA,"19"
"",NA,"",NA,"",NA,NA,NA,NA,NA,NA,NA,"","",1,1,"2024-08-23_22h44.48.957","IAT(Formal)","2021.2.3","Win32",238.0952381,"",NA,"",NA,NA,NA,NA,NA,NA,NA,"","","",NA,"i",1,0.3718,NA,NA,NA,NA,NA,"他人","i","",NA,1,63,143,8,1,"",NA,"",NA,NA,NA,NA,NA,NA,NA,"",NA,"",NA,NA,NA,NA,NA,NA,NA,"","","",NA,"",NA,NA,NA,NA,NA,NA,NA,"",NA,"19"
"",NA,"",NA,"",NA,NA,NA,NA,NA,NA,NA,"","",1,1,"2024-08-23_22h44.48.957","IAT(Formal)","2021.2.3","Win32",238.0952381,"",NA,"",NA,NA,NA,NA,NA,NA,NA,"","","",NA,"e",0,0.92,NA,NA,NA,NA,NA,"凶狠","i","",NA,1,64,144,42,1,"",NA,"",NA,NA,NA,NA,NA,NA,NA,"",NA,"",NA,NA,NA,NA,NA,NA,NA,"","","",NA,"",NA,NA,NA,NA,NA,NA,NA,"",NA,"19"
"",NA,"",NA,"",NA,NA,NA,NA,NA,NA,NA,"","",1,1,"2024-08-23_22h44.48.957","IAT(Formal)","2021.2.3","Win32",238.0952381,"",NA,"",NA,NA,NA,NA,NA,NA,NA,"","","",NA,"i",1,0.4968,NA,NA,NA,NA,NA,"他","i","",NA,1,65,145,55,1,"",NA,"",NA,NA,NA,NA,NA,NA,NA,"",NA,"",NA,NA,NA,NA,NA,NA,NA,"","","",NA,"",NA,NA,NA,NA,NA,NA,NA,"",NA,"19"
"",NA,"",NA,"",NA,NA,NA,NA,NA,NA,NA,"","",1,1,"2024-08-23_22h44.48.957","IAT(Formal)","2021.2.3","Win32",238.0952381,"",NA,"",NA,NA,NA,NA,NA,NA,NA,"","","",NA,"i",1,0.5006,NA,NA,NA,NA,NA,"愚蠢","i","",NA,1,66,146,32,1,"",NA,"",NA,NA,NA,NA,NA,NA,NA,"",NA,"",NA,NA,NA,NA,NA,NA,NA,"","","",NA,"",NA,NA,NA,NA,NA,NA,NA,"",NA,"19"
"",NA,"",NA,"",NA,NA,NA,NA,NA,NA,NA,"","",1,1,"2024-08-23_22h44.48.957","IAT(Formal)","2021.2.3","Win32",238.0952381,"",NA,"",NA,NA,NA,NA,NA,NA,NA,"","","",NA,"i",1,0.541,NA,NA,NA,NA,NA,"其他","i","",NA,1,67,147,9,1,"",NA,"",NA,NA,NA,NA,NA,NA,NA,"",NA,"",NA,NA,NA,NA,NA,NA,NA,"","","",NA,"",NA,NA,NA,NA,NA,NA,NA,"",NA,"19"
"",NA,"",NA,"",NA,NA,NA,NA,NA,NA,NA,"","",1,1,"2024-08-23_22h44.48.957","IAT(Formal)","2021.2.3","Win32",238.0952381,"",NA,"",NA,NA,NA,NA,NA,NA,NA,"","","",NA,"e",1,0.5062,NA,NA,NA,NA,NA,"优秀","e","",NA,1,68,148,10,1,"",NA,"",NA,NA,NA,NA,NA,NA,NA,"",NA,"",NA,NA,NA,NA,NA,NA,NA,"","","",NA,"",NA,NA,NA,NA,NA,NA,NA,"",NA,"19"
"",NA,"",NA,"",NA,NA,NA,NA,NA,NA,NA,"","",1,1,"2024-08-23_22h44.48.957","IAT(Formal)","2021.2.3","Win32",238.0952381,"",NA,"",NA,NA,NA,NA,NA,NA,NA,"","","",NA,"e",1,0.8254,NA,NA,NA,NA,NA,"诚恳","e","",NA,1,69,149,29,1,"",NA,"",NA,NA,NA,NA,NA,NA,NA,"",NA,"",NA,NA,NA,NA,NA,NA,NA,"","","",NA,"",NA,NA,NA,NA,NA,NA,NA,"",NA,"19"
"",NA,"",NA,"",NA,NA,NA,NA,NA,NA,NA,"","",1,1,"2024-08-23_22h44.48.957","IAT(Formal)","2021.2.3","Win32",238.0952381,"",NA,"",NA,NA,NA,NA,NA,NA,NA,"","","",NA,"e",1,0.786,NA,NA,NA,NA,NA,"俺","e","",NA,1,70,150,54,1,"",NA,"",NA,NA,NA,NA,NA,NA,NA,"",NA,"",NA,NA,NA,NA,NA,NA,NA,"","","",NA,"",NA,NA,NA,NA,NA,NA,NA,"",NA,"19"
"",NA,"",NA,"",NA,NA,NA,NA,NA,NA,NA,"","",1,1,"2024-08-23_22h44.48.957","IAT(Formal)","2021.2.3","Win32",238.0952381,"",NA,"",NA,NA,NA,NA,NA,NA,NA,"","","",NA,"e",0,0.4264,NA,NA,NA,NA,NA,"他","i","",NA,1,71,151,75,1,"",NA,"",NA,NA,NA,NA,NA,NA,NA,"",NA,"",NA,NA,NA,NA,NA,NA,NA,"","","",NA,"",NA,NA,NA,NA,NA,NA,NA,"",NA,"19"
"",NA,"",NA,"",NA,NA,NA,NA,NA,NA,NA,"","",1,1,"2024-08-23_22h44.48.957","IAT(Formal)","2021.2.3","Win32",238.0952381,"",NA,"",NA,NA,NA,NA,NA,NA,NA,"","","",NA,"e",1,0.4099,NA,NA,NA,NA,NA,"我们","e","",NA,1,72,152,52,1,"",NA,"",NA,NA,NA,NA,NA,NA,NA,"",NA,"",NA,NA,NA,NA,NA,NA,NA,"","","",NA,"",NA,NA,NA,NA,NA,NA,NA,"",NA,"19"
"",NA,"",NA,"",NA,NA,NA,NA,NA,NA,NA,"","",1,1,"2024-08-23_22h44.48.957","IAT(Formal)","2021.2.3","Win32",238.0952381,"",NA,"",NA,NA,NA,NA,NA,NA,NA,"","","",NA,"e",1,0.3374,NA,NA,NA,NA,NA,"我们","e","",NA,1,73,153,62,1,"",NA,"",NA,NA,NA,NA,NA,NA,NA,"",NA,"",NA,NA,NA,NA,NA,NA,NA,"","","",NA,"",NA,NA,NA,NA,NA,NA,NA,"",NA,"19"
"",NA,"",NA,"",NA,NA,NA,NA,NA,NA,NA,"","",1,1,"2024-08-23_22h44.48.957","IAT(Formal)","2021.2.3","Win32",238.0952381,"",NA,"",NA,NA,NA,NA,NA,NA,NA,"","","",NA,"i",1,0.483,NA,NA,NA,NA,NA,"刻薄","i","",NA,1,74,154,33,1,"",NA,"",NA,NA,NA,NA,NA,NA,NA,"",NA,"",NA,NA,NA,NA,NA,NA,NA,"","","",NA,"",NA,NA,NA,NA,NA,NA,NA,"",NA,"19"
"",NA,"",NA,"",NA,NA,NA,NA,NA,NA,NA,"","",1,1,"2024-08-23_22h44.48.957","IAT(Formal)","2021.2.3","Win32",238.0952381,"",NA,"",NA,NA,NA,NA,NA,NA,NA,"","","",NA,"e",1,0.6382,NA,NA,NA,NA,NA,"正直","e","",NA,1,75,155,16,1,"",NA,"",NA,NA,NA,NA,NA,NA,NA,"",NA,"",NA,NA,NA,NA,NA,NA,NA,"","","",NA,"",NA,NA,NA,NA,NA,NA,NA,"",NA,"19"
"",NA,"",NA,"",NA,NA,NA,NA,NA,NA,NA,"","",1,1,"2024-08-23_22h44.48.957","IAT(Formal)","2021.2.3","Win32",238.0952381,"",NA,"",NA,NA,NA,NA,NA,NA,NA,"","","",NA,"e",1,1.0007,NA,NA,NA,NA,NA,"无私","e","",NA,1,76,156,22,1,"",NA,"",NA,NA,NA,NA,NA,NA,NA,"",NA,"",NA,NA,NA,NA,NA,NA,NA,"","","",NA,"",NA,NA,NA,NA,NA,NA,NA,"",NA,"19"
"",NA,"",NA,"",NA,NA,NA,NA,NA,NA,NA,"","",1,1,"2024-08-23_22h44.48.957","IAT(Formal)","2021.2.3","Win32",238.0952381,"",NA,"",NA,NA,NA,NA,NA,NA,NA,"","","",NA,"e",1,0.5795,NA,NA,NA,NA,NA,"自己","e","",NA,1,77,157,53,1,"",NA,"",NA,NA,NA,NA,NA,NA,NA,"",NA,"",NA,NA,NA,NA,NA,NA,NA,"","","",NA,"",NA,NA,NA,NA,NA,NA,NA,"",NA,"19"
"",NA,"",NA,"",NA,NA,NA,NA,NA,NA,NA,"","",1,1,"2024-08-23_22h44.48.957","IAT(Formal)","2021.2.3","Win32",238.0952381,"",NA,"",NA,NA,NA,NA,NA,NA,NA,"","","",NA,"e",1,0.5382,NA,NA,NA,NA,NA,"勇敢","e","",NA,1,78,158,17,1,"",NA,"",NA,NA,NA,NA,NA,NA,NA,"",NA,"",NA,NA,NA,NA,NA,NA,NA,"","","",NA,"",NA,NA,NA,NA,NA,NA,NA,"",NA,"19"
"",NA,"",NA,"",NA,NA,NA,NA,NA,NA,NA,"","",1,1,"2024-08-23_22h44.48.957","IAT(Formal)","2021.2.3","Win32",238.0952381,"",NA,"",NA,NA,NA,NA,NA,NA,NA,"","","",NA,"i",1,0.5377,NA,NA,NA,NA,NA,"猖狂","i","",NA,1,79,159,45,1,"",NA,"",NA,NA,NA,NA,NA,NA,NA,"",NA,"",NA,NA,NA,NA,NA,NA,NA,"","","",NA,"",NA,NA,NA,NA,NA,NA,NA,"",NA,"19"
"",NA,"",NA,"",NA,NA,NA,NA,NA,NA,NA,"其他","e",1,1,"2024-08-23_22h44.48.957","IAT(Formal)","2021.2.3","Win32",238.0952381,"",NA,"",NA,NA,NA,NA,NA,NA,NA,"","","",NA,"",NA,NA,NA,NA,NA,NA,NA,"","","",NA,NA,NA,NA,NA,NA,"space",13.0263,"e",1,0.6843,0,0,0,9,1,"",NA,"",NA,NA,NA,NA,NA,NA,NA,"","","",NA,"",NA,NA,NA,NA,NA,NA,NA,"",NA,"19"
"",NA,"",NA,"",NA,NA,NA,NA,NA,NA,NA,"我的","i",1,1,"2024-08-23_22h44.48.957","IAT(Formal)","2021.2.3","Win32",238.0952381,"",NA,"",NA,NA,NA,NA,NA,NA,NA,"","","",NA,"",NA,NA,NA,NA,NA,NA,NA,"","","",NA,NA,NA,NA,NA,NA,"",NA,"i",1,0.2879,0,1,1,1,1,"",NA,"",NA,NA,NA,NA,NA,NA,NA,"","","",NA,"",NA,NA,NA,NA,NA,NA,NA,"",NA,"19"
"",NA,"",NA,"",NA,NA,NA,NA,NA,NA,NA,"我们","i",1,1,"2024-08-23_22h44.48.957","IAT(Formal)","2021.2.3","Win32",238.0952381,"",NA,"",NA,NA,NA,NA,NA,NA,NA,"","","",NA,"",NA,NA,NA,NA,NA,NA,NA,"","","",NA,NA,NA,NA,NA,NA,"",NA,"i",1,0.3964,0,2,2,2,1,"",NA,"",NA,NA,NA,NA,NA,NA,NA,"","","",NA,"",NA,NA,NA,NA,NA,NA,NA,"",NA,"19"
"",NA,"",NA,"",NA,NA,NA,NA,NA,NA,NA,"俺","i",1,1,"2024-08-23_22h44.48.957","IAT(Formal)","2021.2.3","Win32",238.0952381,"",NA,"",NA,NA,NA,NA,NA,NA,NA,"","","",NA,"",NA,NA,NA,NA,NA,NA,NA,"","","",NA,NA,NA,NA,NA,NA,"",NA,"e",0,0.4132,0,3,3,4,1,"",NA,"",NA,NA,NA,NA,NA,NA,NA,"","","",NA,"",NA,NA,NA,NA,NA,NA,NA,"",NA,"19"
"",NA,"",NA,"",NA,NA,NA,NA,NA,NA,NA,"我","i",1,1,"2024-08-23_22h44.48.957","IAT(Formal)","2021.2.3","Win32",238.0952381,"",NA,"",NA,NA,NA,NA,NA,NA,NA,"","","",NA,"",NA,NA,NA,NA,NA,NA,NA,"","","",NA,NA,NA,NA,NA,NA,"",NA,"i",1,0.3224,0,4,4,0,1,"",NA,"",NA,NA,NA,NA,NA,NA,NA,"","","",NA,"",NA,NA,NA,NA,NA,NA,NA,"",NA,"19"
"",NA,"",NA,"",NA,NA,NA,NA,NA,NA,NA,"自己","i",1,1,"2024-08-23_22h44.48.957","IAT(Formal)","2021.2.3","Win32",238.0952381,"",NA,"",NA,NA,NA,NA,NA,NA,NA,"","","",NA,"",NA,NA,NA,NA,NA,NA,NA,"","","",NA,NA,NA,NA,NA,NA,"",NA,"i",1,0.3045,0,5,5,3,1,"",NA,"",NA,NA,NA,NA,NA,NA,NA,"","","",NA,"",NA,NA,NA,NA,NA,NA,NA,"",NA,"19"
"",NA,"",NA,"",NA,NA,NA,NA,NA,NA,NA,"他的","e",1,1,"2024-08-23_22h44.48.957","IAT(Formal)","2021.2.3","Win32",238.0952381,"",NA,"",NA,NA,NA,NA,NA,NA,NA,"","","",NA,"",NA,NA,NA,NA,NA,NA,NA,"","","",NA,NA,NA,NA,NA,NA,"",NA,"i",0,0.3021,0,6,6,7,1,"",NA,"",NA,NA,NA,NA,NA,NA,NA,"","","",NA,"",NA,NA,NA,NA,NA,NA,NA,"",NA,"19"
"",NA,"",NA,"",NA,NA,NA,NA,NA,NA,NA,"他们","e",1,1,"2024-08-23_22h44.48.957","IAT(Formal)","2021.2.3","Win32",238.0952381,"",NA,"",NA,NA,NA,NA,NA,NA,NA,"","","",NA,"",NA,NA,NA,NA,NA,NA,NA,"","","",NA,NA,NA,NA,NA,NA,"",NA,"e",1,0.3212,0,7,7,6,1,"",NA,"",NA,NA,NA,NA,NA,NA,NA,"","","",NA,"",NA,NA,NA,NA,NA,NA,NA,"",NA,"19"
"",NA,"",NA,"",NA,NA,NA,NA,NA,NA,NA,"他人","e",1,1,"2024-08-23_22h44.48.957","IAT(Formal)","2021.2.3","Win32",238.0952381,"",NA,"",NA,NA,NA,NA,NA,NA,NA,"","","",NA,"",NA,NA,NA,NA,NA,NA,NA,"","","",NA,NA,NA,NA,NA,NA,"",NA,"e",1,0.4134,0,8,8,8,1,"",NA,"",NA,NA,NA,NA,NA,NA,NA,"","","",NA,"",NA,NA,NA,NA,NA,NA,NA,"",NA,"19"
"",NA,"",NA,"",NA,NA,NA,NA,NA,NA,NA,"他","e",1,1,"2024-08-23_22h44.48.957","IAT(Formal)","2021.2.3","Win32",238.0952381,"",NA,"",NA,NA,NA,NA,NA,NA,NA,"","","",NA,"",NA,NA,NA,NA,NA,NA,NA,"","","",NA,NA,NA,NA,NA,NA,"",NA,"e",1,0.4255,0,9,9,5,1,"",NA,"",NA,NA,NA,NA,NA,NA,NA,"","","",NA,"",NA,NA,NA,NA,NA,NA,NA,"",NA,"19"
"",NA,"",NA,"",NA,NA,NA,NA,NA,NA,NA,"","",1,1,"2024-08-23_22h44.48.957","IAT(Formal)","2021.2.3","Win32",238.0952381,"",NA,"",NA,NA,NA,NA,NA,NA,NA,"","","",NA,"",NA,NA,NA,NA,NA,NA,NA,"","","",NA,NA,NA,NA,NA,NA,"",NA,"",NA,NA,NA,NA,NA,NA,NA,"space",9.3369,"i",1,0.5675,0,0,0,70,1,"我","i","",NA,"",NA,NA,NA,NA,NA,NA,NA,"",NA,"19"
"",NA,"",NA,"",NA,NA,NA,NA,NA,NA,NA,"","",1,1,"2024-08-23_22h44.48.957","IAT(Formal)","2021.2.3","Win32",238.0952381,"",NA,"",NA,NA,NA,NA,NA,NA,NA,"","","",NA,"",NA,NA,NA,NA,NA,NA,NA,"","","",NA,NA,NA,NA,NA,NA,"",NA,"",NA,NA,NA,NA,NA,NA,NA,"",NA,"e",0,0.5808,0,1,1,37,1,"傲慢","i","",NA,"",NA,NA,NA,NA,NA,NA,NA,"",NA,"19"
"",NA,"",NA,"",NA,NA,NA,NA,NA,NA,NA,"","",1,1,"2024-08-23_22h44.48.957","IAT(Formal)","2021.2.3","Win32",238.0952381,"",NA,"",NA,NA,NA,NA,NA,NA,NA,"","","",NA,"",NA,NA,NA,NA,NA,NA,NA,"","","",NA,NA,NA,NA,NA,NA,"",NA,"",NA,NA,NA,NA,NA,NA,NA,"",NA,"e",1,0.8847,0,2,2,22,1,"无私","e","",NA,"",NA,NA,NA,NA,NA,NA,NA,"",NA,"19"
"",NA,"",NA,"",NA,NA,NA,NA,NA,NA,NA,"","",1,1,"2024-08-23_22h44.48.957","IAT(Formal)","2021.2.3","Win32",238.0952381,"",NA,"",NA,NA,NA,NA,NA,NA,NA,"","","",NA,"",NA,NA,NA,NA,NA,NA,NA,"","","",NA,NA,NA,NA,NA,NA,"",NA,"",NA,NA,NA,NA,NA,NA,NA,"",NA,"e",1,0.5724,0,3,3,25,1,"细腻","e","",NA,"",NA,NA,NA,NA,NA,NA,NA,"",NA,"19"
"",NA,"",NA,"",NA,NA,NA,NA,NA,NA,NA,"","",1,1,"2024-08-23_22h44.48.957","IAT(Formal)","2021.2.3","Win32",238.0952381,"",NA,"",NA,NA,NA,NA,NA,NA,NA,"","","",NA,"",NA,NA,NA,NA,NA,NA,NA,"","","",NA,NA,NA,NA,NA,NA,"",NA,"",NA,NA,NA,NA,NA,NA,NA,"",NA,"e",1,0.7924,0,4,4,75,1,"他","e","",NA,"",NA,NA,NA,NA,NA,NA,NA,"",NA,"19"
