﻿Instruction1.keys,Instruction1.rt,Instruction2.keys,Instruction2.rt,key_resp_iso.keys,key_resp_iso.corr,Practice_01.thisRepN,Practice_01.thisTrialN,Practice_01.thisN,Practice_01.thisIndex,Practice_01.ran,Words,ans,participant,session,date,expName,psychopyVersion,OS,frameRate,key_resp_iso.rt,key_resp_3.keys,key_resp_3.rt,key_resp_ipn.keys,key_resp_ipn.corr,key_resp_ipn.rt,Practice_02.thisRepN,Practice_02.thisTrialN,Practice_02.thisN,Practice_02.thisIndex,Practice_02.ran,Words_ipn,ans_ipn,key_resp_4.keys,key_resp_4.rt,key_resp_t1.keys,key_resp_t1.corr,key_resp_t1.rt,Practice_T1.thisRepN,Practice_T1.thisTrialN,Practice_T1.thisN,Practice_T1.thisIndex,Practice_T1.ran,Words_t1,ans_t1,key_resp_5.keys,key_resp_5.rt,Formal_T1.thisRepN,Formal_T1.thisTrialN,Formal_T1.thisN,Formal_T1.thisIndex,Formal_T1.ran,key_resp_6.keys,key_resp_6.rt,key_resp_iso_reverse.keys,key_resp_iso_reverse.corr,Practice_iso_Reverse.thisRepN,Practice_iso_Reverse.thisTrialN,Practice_iso_Reverse.thisN,Practice_iso_Reverse.thisIndex,Practice_iso_Reverse.ran,key_resp_iso_reverse.rt,key_resp_7.keys,key_resp_7.rt,key_resp_t2_Practice.keys,key_resp_t2_Practice.corr,key_resp_t2_Practice.rt,Practice_t2_Reverse.thisRepN,Practice_t2_Reverse.thisTrialN,Practice_t2_Reverse.thisN,Practice_t2_Reverse.thisIndex,Practice_t2_Reverse.ran,Words_t2,ans_t2,key_resp_8.keys,key_resp_8.rt,key_resp_t2.keys,key_resp_t2.corr,key_resp_t2.rt,Formal_t2_reverse.thisRepN,Formal_t2_reverse.thisTrialN,Formal_t2_reverse.thisN,Formal_t2_reverse.thisIndex,Formal_t2_reverse.ran,key_instruct.keys,key_instruct.rt
space,6.3929,space,15.4351,,0,0,0,0,0,1,我,e,1,001,2024-08-22_16h02.00.149,IAT(Formal),2021.2.3,Win32,29.94011976,,,,,,,,,,,,,,,,,,,,,,,,,,,,,,,,,,,,,,,,,,,,,,,,,,,,,,,,,,,,,,,,,,
,,,,,0,0,1,1,5,1,他,i,1,001,2024-08-22_16h02.00.149,IAT(Formal),2021.2.3,Win32,29.94011976,,,,,,,,,,,,,,,,,,,,,,,,,,,,,,,,,,,,,,,,,,,,,,,,,,,,,,,,,,,,,,,,,,
,,,,i,1,0,2,2,9,1,其他,i,1,001,2024-08-22_16h02.00.149,IAT(Formal),2021.2.3,Win32,29.94011976,0.3986,,,,,,,,,,,,,,,,,,,,,,,,,,,,,,,,,,,,,,,,,,,,,,,,,,,,,,,,,,,,,,,,,
,,,,,0,0,3,3,1,1,我的,e,1,001,2024-08-22_16h02.00.149,IAT(Formal),2021.2.3,Win32,29.94011976,,,,,,,,,,,,,,,,,,,,,,,,,,,,,,,,,,,,,,,,,,,,,,,,,,,,,,,,,,,,,,,,,,
,,,,,0,0,4,4,6,1,他们,i,1,001,2024-08-22_16h02.00.149,IAT(Formal),2021.2.3,Win32,29.94011976,,,,,,,,,,,,,,,,,,,,,,,,,,,,,,,,,,,,,,,,,,,,,,,,,,,,,,,,,,,,,,,,,,
,,,,,0,0,5,5,7,1,他的,i,1,001,2024-08-22_16h02.00.149,IAT(Formal),2021.2.3,Win32,29.94011976,,,,,,,,,,,,,,,,,,,,,,,,,,,,,,,,,,,,,,,,,,,,,,,,,,,,,,,,,,,,,,,,,,
,,,,,0,0,6,6,8,1,他人,i,1,001,2024-08-22_16h02.00.149,IAT(Formal),2021.2.3,Win32,29.94011976,,,,,,,,,,,,,,,,,,,,,,,,,,,,,,,,,,,,,,,,,,,,,,,,,,,,,,,,,,,,,,,,,,
,,,,,0,0,7,7,3,1,自己,e,1,001,2024-08-22_16h02.00.149,IAT(Formal),2021.2.3,Win32,29.94011976,,,,,,,,,,,,,,,,,,,,,,,,,,,,,,,,,,,,,,,,,,,,,,,,,,,,,,,,,,,,,,,,,,
,,,,,0,0,8,8,2,1,我们,e,1,001,2024-08-22_16h02.00.149,IAT(Formal),2021.2.3,Win32,29.94011976,,,,,,,,,,,,,,,,,,,,,,,,,,,,,,,,,,,,,,,,,,,,,,,,,,,,,,,,,,,,,,,,,,
,,,,i,0,0,9,9,4,1,俺,e,1,001,2024-08-22_16h02.00.149,IAT(Formal),2021.2.3,Win32,29.94011976,0.6442,,,,,,,,,,,,,,,,,,,,,,,,,,,,,,,,,,,,,,,,,,,,,,,,,,,,,,,,,,,,,,,,,
,,,,,,,,,,,,,1,001,2024-08-22_16h02.00.149,IAT(Formal),2021.2.3,Win32,29.94011976,,space,6.6728,e,0,0.6647,0,0,0,33,1,自私,i,,,,,,,,,,,,,,,,,,,,,,,,,,,,,,,,,,,,,,,,,,,,,,,,,,,,,
,,,,,,,,,,,,,1,001,2024-08-22_16h02.00.149,IAT(Formal),2021.2.3,Win32,29.94011976,,,,i,1,0.26,0,1,1,35,1,猖狂,i,,,,,,,,,,,,,,,,,,,,,,,,,,,,,,,,,,,,,,,,,,,,,,,,,,,,,
,,,,,,,,,,,,,1,001,2024-08-22_16h02.00.149,IAT(Formal),2021.2.3,Win32,29.94011976,,,,e,0,0.6689,0,2,2,23,1,刻薄,i,,,,,,,,,,,,,,,,,,,,,,,,,,,,,,,,,,,,,,,,,,,,,,,,,,,,,
,,,,,,,,,,,,,1,001,2024-08-22_16h02.00.149,IAT(Formal),2021.2.3,Win32,29.94011976,,,,i,1,0.6458,0,3,3,31,1,散漫,i,,,,,,,,,,,,,,,,,,,,,,,,,,,,,,,,,,,,,,,,,,,,,,,,,,,,,
,,,,,,,,,,,,,1,001,2024-08-22_16h02.00.149,IAT(Formal),2021.2.3,Win32,29.94011976,,,,i,1,0.6554,0,4,4,36,1,野蛮,i,,,,,,,,,,,,,,,,,,,,,,,,,,,,,,,,,,,,,,,,,,,,,,,,,,,,,
,,,,,,,,,,,,,1,001,2024-08-22_16h02.00.149,IAT(Formal),2021.2.3,Win32,29.94011976,,,,i,1,0.6431,0,5,5,20,1,卑鄙,i,,,,,,,,,,,,,,,,,,,,,,,,,,,,,,,,,,,,,,,,,,,,,,,,,,,,,
,,,,,,,,,,,,,1,001,2024-08-22_16h02.00.149,IAT(Formal),2021.2.3,Win32,29.94011976,,,,i,1,0.7797,0,6,6,32,1,凶狠,i,,,,,,,,,,,,,,,,,,,,,,,,,,,,,,,,,,,,,,,,,,,,,,,,,,,,,
,,,,,,,,,,,,,1,001,2024-08-22_16h02.00.149,IAT(Formal),2021.2.3,Win32,29.94011976,,,,,0,,0,7,7,12,1,无私,e,,,,,,,,,,,,,,,,,,,,,,,,,,,,,,,,,,,,,,,,,,,,,,,,,,,,,
,,,,,,,,,,,,,1,001,2024-08-22_16h02.00.149,IAT(Formal),2021.2.3,Win32,29.94011976,,,,,0,,0,8,8,8,1,勤奋,e,,,,,,,,,,,,,,,,,,,,,,,,,,,,,,,,,,,,,,,,,,,,,,,,,,,,,
,,,,,,,,,,,,,1,001,2024-08-22_16h02.00.149,IAT(Formal),2021.2.3,Win32,29.94011976,,,,,0,,0,9,9,28,1,鲁莽,i,,,,,,,,,,,,,,,,,,,,,,,,,,,,,,,,,,,,,,,,,,,,,,,,,,,,,
,,,,,,,,,,,,,1,001,2024-08-22_16h02.00.149,IAT(Formal),2021.2.3,Win32,29.94011976,,,,,0,,0,10,10,18,1,活泼,e,,,,,,,,,,,,,,,,,,,,,,,,,,,,,,,,,,,,,,,,,,,,,,,,,,,,,
,,,,,,,,,,,,,1,001,2024-08-22_16h02.00.149,IAT(Formal),2021.2.3,Win32,29.94011976,,,,i,1,0.637,0,11,11,22,1,愚蠢,i,,,,,,,,,,,,,,,,,,,,,,,,,,,,,,,,,,,,,,,,,,,,,,,,,,,,,
,,,,,,,,,,,,,1,001,2024-08-22_16h02.00.149,IAT(Formal),2021.2.3,Win32,29.94011976,,,,i,0,0.5306,0,12,12,11,1,稳重,e,,,,,,,,,,,,,,,,,,,,,,,,,,,,,,,,,,,,,,,,,,,,,,,,,,,,,
,,,,,,,,,,,,,1,001,2024-08-22_16h02.00.149,IAT(Formal),2021.2.3,Win32,29.94011976,,,,e,1,0.6307,0,13,13,3,1,杰出,e,,,,,,,,,,,,,,,,,,,,,,,,,,,,,,,,,,,,,,,,,,,,,,,,,,,,,
,,,,,,,,,,,,,1,001,2024-08-22_16h02.00.149,IAT(Formal),2021.2.3,Win32,29.94011976,,,,e,1,0.5088,0,14,14,2,1,聪明,e,,,,,,,,,,,,,,,,,,,,,,,,,,,,,,,,,,,,,,,,,,,,,,,,,,,,,
,,,,,,,,,,,,,1,001,2024-08-22_16h02.00.149,IAT(Formal),2021.2.3,Win32,29.94011976,,,,e,1,0.6562,0,15,15,7,1,勇敢,e,,,,,,,,,,,,,,,,,,,,,,,,,,,,,,,,,,,,,,,,,,,,,,,,,,,,,
,,,,,,,,,,,,,1,001,2024-08-22_16h02.00.149,IAT(Formal),2021.2.3,Win32,29.94011976,,,,e,1,0.6418,0,16,16,14,1,朴实,e,,,,,,,,,,,,,,,,,,,,,,,,,,,,,,,,,,,,,,,,,,,,,,,,,,,,,
,,,,,,,,,,,,,1,001,2024-08-22_16h02.00.149,IAT(Formal),2021.2.3,Win32,29.94011976,,,,e,1,0.6531,0,17,17,0,1,优秀,e,,,,,,,,,,,,,,,,,,,,,,,,,,,,,,,,,,,,,,,,,,,,,,,,,,,,,
,,,,,,,,,,,,,1,001,2024-08-22_16h02.00.149,IAT(Formal),2021.2.3,Win32,29.94011976,,,,i,1,0.6502,0,18,18,29,1,冒失,i,,,,,,,,,,,,,,,,,,,,,,,,,,,,,,,,,,,,,,,,,,,,,,,,,,,,,
,,,,,,,,,,,,,1,001,2024-08-22_16h02.00.149,IAT(Formal),2021.2.3,Win32,29.94011976,,,,e,1,0.6342,0,19,19,17,1,热情,e,,,,,,,,,,,,,,,,,,,,,,,,,,,,,,,,,,,,,,,,,,,,,,,,,,,,,
,,,,,,,,,,,,,1,001,2024-08-22_16h02.00.149,IAT(Formal),2021.2.3,Win32,29.94011976,,,,i,1,0.79,0,20,20,21,1,虚伪,i,,,,,,,,,,,,,,,,,,,,,,,,,,,,,,,,,,,,,,,,,,,,,,,,,,,,,
,,,,,,,,,,,,,1,001,2024-08-22_16h02.00.149,IAT(Formal),2021.2.3,Win32,29.94011976,,,,i,0,1.136,0,21,21,16,1,冷静,e,,,,,,,,,,,,,,,,,,,,,,,,,,,,,,,,,,,,,,,,,,,,,,,,,,,,,
,,,,,,,,,,,,,1,001,2024-08-22_16h02.00.149,IAT(Formal),2021.2.3,Win32,29.94011976,,,,i,1,0.7589,0,22,22,39,1,下贱,i,,,,,,,,,,,,,,,,,,,,,,,,,,,,,,,,,,,,,,,,,,,,,,,,,,,,,
,,,,,,,,,,,,,1,001,2024-08-22_16h02.00.149,IAT(Formal),2021.2.3,Win32,29.94011976,,,,i,1,0.7591,0,23,23,25,1,消极,i,,,,,,,,,,,,,,,,,,,,,,,,,,,,,,,,,,,,,,,,,,,,,,,,,,,,,
,,,,,,,,,,,,,1,001,2024-08-22_16h02.00.149,IAT(Formal),2021.2.3,Win32,29.94011976,,,,i,1,0.9037,0,24,24,38,1,轻率,i,,,,,,,,,,,,,,,,,,,,,,,,,,,,,,,,,,,,,,,,,,,,,,,,,,,,,
,,,,,,,,,,,,,1,001,2024-08-22_16h02.00.149,IAT(Formal),2021.2.3,Win32,29.94011976,,,,e,1,0.5329,0,25,25,10,1,认真,e,,,,,,,,,,,,,,,,,,,,,,,,,,,,,,,,,,,,,,,,,,,,,,,,,,,,,
,,,,,,,,,,,,,1,001,2024-08-22_16h02.00.149,IAT(Formal),2021.2.3,Win32,29.94011976,,,,e,1,0.5151,0,26,26,6,1,正直,e,,,,,,,,,,,,,,,,,,,,,,,,,,,,,,,,,,,,,,,,,,,,,,,,,,,,,
,,,,,,,,,,,,,1,001,2024-08-22_16h02.00.149,IAT(Formal),2021.2.3,Win32,29.94011976,,,,i,0,0.6106,0,27,27,4,1,乐观,e,,,,,,,,,,,,,,,,,,,,,,,,,,,,,,,,,,,,,,,,,,,,,,,,,,,,,
,,,,,,,,,,,,,1,001,2024-08-22_16h02.00.149,IAT(Formal),2021.2.3,Win32,29.94011976,,,,e,1,0.6365,0,28,28,1,1,崇高,e,,,,,,,,,,,,,,,,,,,,,,,,,,,,,,,,,,,,,,,,,,,,,,,,,,,,,
,,,,,,,,,,,,,1,001,2024-08-22_16h02.00.149,IAT(Formal),2021.2.3,Win32,29.94011976,,,,i,1,0.6536,0,29,29,24,1,悲观,i,,,,,,,,,,,,,,,,,,,,,,,,,,,,,,,,,,,,,,,,,,,,,,,,,,,,,
,,,,,,,,,,,,,1,001,2024-08-22_16h02.00.149,IAT(Formal),2021.2.3,Win32,29.94011976,,,,i,1,0.6312,0,30,30,27,1,傲慢,i,,,,,,,,,,,,,,,,,,,,,,,,,,,,,,,,,,,,,,,,,,,,,,,,,,,,,
,,,,,,,,,,,,,1,001,2024-08-22_16h02.00.149,IAT(Formal),2021.2.3,Win32,29.94011976,,,,e,1,0.5041,0,31,31,9,1,机智,e,,,,,,,,,,,,,,,,,,,,,,,,,,,,,,,,,,,,,,,,,,,,,,,,,,,,,
,,,,,,,,,,,,,1,001,2024-08-22_16h02.00.149,IAT(Formal),2021.2.3,Win32,29.94011976,,,,e,1,0.7682,0,32,32,19,1,诚恳,e,,,,,,,,,,,,,,,,,,,,,,,,,,,,,,,,,,,,,,,,,,,,,,,,,,,,,
,,,,,,,,,,,,,1,001,2024-08-22_16h02.00.149,IAT(Formal),2021.2.3,Win32,29.94011976,,,,e,1,0.6451,0,33,33,5,1,诚实,e,,,,,,,,,,,,,,,,,,,,,,,,,,,,,,,,,,,,,,,,,,,,,,,,,,,,,
,,,,,,,,,,,,,1,001,2024-08-22_16h02.00.149,IAT(Formal),2021.2.3,Win32,29.94011976,,,,i,1,0.5051,0,34,34,30,1,执拗,i,,,,,,,,,,,,,,,,,,,,,,,,,,,,,,,,,,,,,,,,,,,,,,,,,,,,,
,,,,,,,,,,,,,1,001,2024-08-22_16h02.00.149,IAT(Formal),2021.2.3,Win32,29.94011976,,,,e,1,0.777,0,35,35,15,1,细腻,e,,,,,,,,,,,,,,,,,,,,,,,,,,,,,,,,,,,,,,,,,,,,,,,,,,,,,
,,,,,,,,,,,,,1,001,2024-08-22_16h02.00.149,IAT(Formal),2021.2.3,Win32,29.94011976,,,,i,1,0.6433,0,36,36,34,1,暴躁,i,,,,,,,,,,,,,,,,,,,,,,,,,,,,,,,,,,,,,,,,,,,,,,,,,,,,,
,,,,,,,,,,,,,1,001,2024-08-22_16h02.00.149,IAT(Formal),2021.2.3,Win32,29.94011976,,,,i,1,0.6446,0,37,37,37,1,固执,i,,,,,,,,,,,,,,,,,,,,,,,,,,,,,,,,,,,,,,,,,,,,,,,,,,,,,
,,,,,,,,,,,,,1,001,2024-08-22_16h02.00.149,IAT(Formal),2021.2.3,Win32,29.94011976,,,,i,1,0.6582,0,38,38,26,1,自卑,i,,,,,,,,,,,,,,,,,,,,,,,,,,,,,,,,,,,,,,,,,,,,,,,,,,,,,
,,,,,,,,,,,,,1,001,2024-08-22_16h02.00.149,IAT(Formal),2021.2.3,Win32,29.94011976,,,,e,1,0.6403,0,39,39,13,1,公正,e,,,,,,,,,,,,,,,,,,,,,,,,,,,,,,,,,,,,,,,,,,,,,,,,,,,,,
,,,,,,,,,,,,,1,001,2024-08-22_16h02.00.149,IAT(Formal),2021.2.3,Win32,29.94011976,,,,,,,,,,,,,,space,6.9838,i,1,0.7633,0,0,0,66,1,他们,i,,,,,,,,,,,,,,,,,,,,,,,,,,,,,,,,,,,,,,,,,
,,,,,,,,,,,,,1,001,2024-08-22_16h02.00.149,IAT(Formal),2021.2.3,Win32,29.94011976,,,,,,,,,,,,,,,,i,1,0.7877,0,1,1,55,1,他,i,,,,,,,,,,,,,,,,,,,,,,,,,,,,,,,,,,,,,,,,,
,,,,,,,,,,,,,1,001,2024-08-22_16h02.00.149,IAT(Formal),2021.2.3,Win32,29.94011976,,,,,,,,,,,,,,,,e,1,0.7811,0,2,2,15,1,诚实,e,,,,,,,,,,,,,,,,,,,,,,,,,,,,,,,,,,,,,,,,,
,,,,,,,,,,,,,1,001,2024-08-22_16h02.00.149,IAT(Formal),2021.2.3,Win32,29.94011976,,,,,,,,,,,,,,,,i,1,0.66,0,3,3,57,1,他的,i,,,,,,,,,,,,,,,,,,,,,,,,,,,,,,,,,,,,,,,,,
,,,,,,,,,,,,,1,001,2024-08-22_16h02.00.149,IAT(Formal),2021.2.3,Win32,29.94011976,,,,,,,,,,,,,,,,i,1,0.7757,0,4,4,40,1,执拗,i,,,,,,,,,,,,,,,,,,,,,,,,,,,,,,,,,,,,,,,,,
,,,,,,,,,,,,,1,001,2024-08-22_16h02.00.149,IAT(Formal),2021.2.3,Win32,29.94011976,,,,,,,,,,,,,,,,e,1,0.6241,0,5,5,3,1,自己,e,,,,,,,,,,,,,,,,,,,,,,,,,,,,,,,,,,,,,,,,,
,,,,,,,,,,,,,1,001,2024-08-22_16h02.00.149,IAT(Formal),2021.2.3,Win32,29.94011976,,,,,,,,,,,,,,,,e,1,0.652,0,6,6,24,1,朴实,e,,,,,,,,,,,,,,,,,,,,,,,,,,,,,,,,,,,,,,,,,
,,,,,,,,,,,,,1,001,2024-08-22_16h02.00.149,IAT(Formal),2021.2.3,Win32,29.94011976,,,,,,,,,,,,,,,,e,1,0.6264,0,7,7,29,1,诚恳,e,,,,,,,,,,,,,,,,,,,,,,,,,,,,,,,,,,,,,,,,,
,,,,,,,,,,,,,1,001,2024-08-22_16h02.00.149,IAT(Formal),2021.2.3,Win32,29.94011976,,,,,,,,,,,,,,,,e,1,0.5308,0,8,8,23,1,公正,e,,,,,,,,,,,,,,,,,,,,,,,,,,,,,,,,,,,,,,,,,
,,,,,,,,,,,,,1,001,2024-08-22_16h02.00.149,IAT(Formal),2021.2.3,Win32,29.94011976,,,,,,,,,,,,,,,,e,1,0.6387,0,9,9,10,1,优秀,e,,,,,,,,,,,,,,,,,,,,,,,,,,,,,,,,,,,,,,,,,
,,,,,,,,,,,,,1,001,2024-08-22_16h02.00.149,IAT(Formal),2021.2.3,Win32,29.94011976,,,,,,,,,,,,,,,,i,1,0.6595,0,10,10,35,1,消极,i,,,,,,,,,,,,,,,,,,,,,,,,,,,,,,,,,,,,,,,,,
,,,,,,,,,,,,,1,001,2024-08-22_16h02.00.149,IAT(Formal),2021.2.3,Win32,29.94011976,,,,,,,,,,,,,,,,e,1,0.52,0,11,11,63,1,自己,e,,,,,,,,,,,,,,,,,,,,,,,,,,,,,,,,,,,,,,,,,
,,,,,,,,,,,,,1,001,2024-08-22_16h02.00.149,IAT(Formal),2021.2.3,Win32,29.94011976,,,,,,,,,,,,,,,,i,0,0.5357,0,12,12,72,1,我们,e,,,,,,,,,,,,,,,,,,,,,,,,,,,,,,,,,,,,,,,,,
,,,,,,,,,,,,,1,001,2024-08-22_16h02.00.149,IAT(Formal),2021.2.3,Win32,29.94011976,,,,,,,,,,,,,,,,i,1,0.5146,0,13,13,33,1,刻薄,i,,,,,,,,,,,,,,,,,,,,,,,,,,,,,,,,,,,,,,,,,
,,,,,,,,,,,,,1,001,2024-08-22_16h02.00.149,IAT(Formal),2021.2.3,Win32,29.94011976,,,,,,,,,,,,,,,,e,1,0.659,0,14,14,25,1,细腻,e,,,,,,,,,,,,,,,,,,,,,,,,,,,,,,,,,,,,,,,,,
,,,,,,,,,,,,,1,001,2024-08-22_16h02.00.149,IAT(Formal),2021.2.3,Win32,29.94011976,,,,,,,,,,,,,,,,e,1,0.798,0,15,15,51,1,我的,e,,,,,,,,,,,,,,,,,,,,,,,,,,,,,,,,,,,,,,,,,
,,,,,,,,,,,,,1,001,2024-08-22_16h02.00.149,IAT(Formal),2021.2.3,Win32,29.94011976,,,,,,,,,,,,,,,,i,1,0.6696,0,16,16,32,1,愚蠢,i,,,,,,,,,,,,,,,,,,,,,,,,,,,,,,,,,,,,,,,,,
,,,,,,,,,,,,,1,001,2024-08-22_16h02.00.149,IAT(Formal),2021.2.3,Win32,29.94011976,,,,,,,,,,,,,,,,i,1,0.7858,0,17,17,39,1,冒失,i,,,,,,,,,,,,,,,,,,,,,,,,,,,,,,,,,,,,,,,,,
,,,,,,,,,,,,,1,001,2024-08-22_16h02.00.149,IAT(Formal),2021.2.3,Win32,29.94011976,,,,,,,,,,,,,,,,i,1,0.7696,0,18,18,8,1,他人,i,,,,,,,,,,,,,,,,,,,,,,,,,,,,,,,,,,,,,,,,,
,,,,,,,,,,,,,1,001,2024-08-22_16h02.00.149,IAT(Formal),2021.2.3,Win32,29.94011976,,,,,,,,,,,,,,,,e,1,0.6267,0,19,19,18,1,勤奋,e,,,,,,,,,,,,,,,,,,,,,,,,,,,,,,,,,,,,,,,,,
,,,,,,,,,,,,,1,001,2024-08-22_16h02.00.149,IAT(Formal),2021.2.3,Win32,29.94011976,,,,,,,,,,,,,,,,i,0,0.645,0,20,20,4,1,俺,e,,,,,,,,,,,,,,,,,,,,,,,,,,,,,,,,,,,,,,,,,
,,,,,,,,,,,,,1,001,2024-08-22_16h02.00.149,IAT(Formal),2021.2.3,Win32,29.94011976,,,,,,,,,,,,,,,,e,1,0.6868,0,21,21,53,1,自己,e,,,,,,,,,,,,,,,,,,,,,,,,,,,,,,,,,,,,,,,,,
,,,,,,,,,,,,,1,001,2024-08-22_16h02.00.149,IAT(Formal),2021.2.3,Win32,29.94011976,,,,,,,,,,,,,,,,i,1,0.6521,0,22,22,59,1,其他,i,,,,,,,,,,,,,,,,,,,,,,,,,,,,,,,,,,,,,,,,,
,,,,,,,,,,,,,1,001,2024-08-22_16h02.00.149,IAT(Formal),2021.2.3,Win32,29.94011976,,,,,,,,,,,,,,,,i,1,0.6765,0,23,23,6,1,他们,i,,,,,,,,,,,,,,,,,,,,,,,,,,,,,,,,,,,,,,,,,
,,,,,,,,,,,,,1,001,2024-08-22_16h02.00.149,IAT(Formal),2021.2.3,Win32,29.94011976,,,,,,,,,,,,,,,,i,1,0.5166,0,24,24,79,1,其他,i,,,,,,,,,,,,,,,,,,,,,,,,,,,,,,,,,,,,,,,,,
,,,,,,,,,,,,,1,001,2024-08-22_16h02.00.149,IAT(Formal),2021.2.3,Win32,29.94011976,,,,,,,,,,,,,,,,e,1,0.5284,0,25,25,61,1,我的,e,,,,,,,,,,,,,,,,,,,,,,,,,,,,,,,,,,,,,,,,,
,,,,,,,,,,,,,1,001,2024-08-22_16h02.00.149,IAT(Formal),2021.2.3,Win32,29.94011976,,,,,,,,,,,,,,,,i,1,0.663,0,26,26,43,1,自私,i,,,,,,,,,,,,,,,,,,,,,,,,,,,,,,,,,,,,,,,,,
,,,,,,,,,,,,,1,001,2024-08-22_16h02.00.149,IAT(Formal),2021.2.3,Win32,29.94011976,,,,,,,,,,,,,,,,i,0,0.6544,0,27,27,21,1,稳重,e,,,,,,,,,,,,,,,,,,,,,,,,,,,,,,,,,,,,,,,,,
,,,,,,,,,,,,,1,001,2024-08-22_16h02.00.149,IAT(Formal),2021.2.3,Win32,29.94011976,,,,,,,,,,,,,,,,i,1,0.642,0,28,28,36,1,自卑,i,,,,,,,,,,,,,,,,,,,,,,,,,,,,,,,,,,,,,,,,,
,,,,,,,,,,,,,1,001,2024-08-22_16h02.00.149,IAT(Formal),2021.2.3,Win32,29.94011976,,,,,,,,,,,,,,,,e,1,0.6372,0,29,29,62,1,我们,e,,,,,,,,,,,,,,,,,,,,,,,,,,,,,,,,,,,,,,,,,
,,,,,,,,,,,,,1,001,2024-08-22_16h02.00.149,IAT(Formal),2021.2.3,Win32,29.94011976,,,,,,,,,,,,,,,,e,1,0.5232,0,30,30,1,1,我的,e,,,,,,,,,,,,,,,,,,,,,,,,,,,,,,,,,,,,,,,,,
,,,,,,,,,,,,,1,001,2024-08-22_16h02.00.149,IAT(Formal),2021.2.3,Win32,29.94011976,,,,,,,,,,,,,,,,i,1,0.6326,0,31,31,56,1,他们,i,,,,,,,,,,,,,,,,,,,,,,,,,,,,,,,,,,,,,,,,,
,,,,,,,,,,,,,1,001,2024-08-22_16h02.00.149,IAT(Formal),2021.2.3,Win32,29.94011976,,,,,,,,,,,,,,,,e,1,0.7812,0,32,32,28,1,活泼,e,,,,,,,,,,,,,,,,,,,,,,,,,,,,,,,,,,,,,,,,,
,,,,,,,,,,,,,1,001,2024-08-22_16h02.00.149,IAT(Formal),2021.2.3,Win32,29.94011976,,,,,,,,,,,,,,,,i,1,0.636,0,33,33,68,1,他人,i,,,,,,,,,,,,,,,,,,,,,,,,,,,,,,,,,,,,,,,,,
,,,,,,,,,,,,,1,001,2024-08-22_16h02.00.149,IAT(Formal),2021.2.3,Win32,29.94011976,,,,,,,,,,,,,,,,e,1,0.7641,0,34,34,19,1,机智,e,,,,,,,,,,,,,,,,,,,,,,,,,,,,,,,,,,,,,,,,,
,,,,,,,,,,,,,1,001,2024-08-22_16h02.00.149,IAT(Formal),2021.2.3,Win32,29.94011976,,,,,,,,,,,,,,,,e,1,0.6418,0,35,35,52,1,我们,e,,,,,,,,,,,,,,,,,,,,,,,,,,,,,,,,,,,,,,,,,
,,,,,,,,,,,,,1,001,2024-08-22_16h02.00.149,IAT(Formal),2021.2.3,Win32,29.94011976,,,,,,,,,,,,,,,,i,0,0.7407,0,36,36,26,1,冷静,e,,,,,,,,,,,,,,,,,,,,,,,,,,,,,,,,,,,,,,,,,
,,,,,,,,,,,,,1,001,2024-08-22_16h02.00.149,IAT(Formal),2021.2.3,Win32,29.94011976,,,,,,,,,,,,,,,,i,1,0.7777,0,37,37,77,1,他的,i,,,,,,,,,,,,,,,,,,,,,,,,,,,,,,,,,,,,,,,,,
,,,,,,,,,,,,,1,001,2024-08-22_16h02.00.149,IAT(Formal),2021.2.3,Win32,29.94011976,,,,,,,,,,,,,,,,i,1,0.7798,0,38,38,46,1,野蛮,i,,,,,,,,,,,,,,,,,,,,,,,,,,,,,,,,,,,,,,,,,
,,,,,,,,,,,,,1,001,2024-08-22_16h02.00.149,IAT(Formal),2021.2.3,Win32,29.94011976,,,,,,,,,,,,,,,,i,1,0.6455,0,39,39,30,1,卑鄙,i,,,,,,,,,,,,,,,,,,,,,,,,,,,,,,,,,,,,,,,,,
,,,,,,,,,,,,,1,001,2024-08-22_16h02.00.149,IAT(Formal),2021.2.3,Win32,29.94011976,,,,,,,,,,,,,,,,e,1,0.6593,0,40,40,13,1,杰出,e,,,,,,,,,,,,,,,,,,,,,,,,,,,,,,,,,,,,,,,,,
,,,,,,,,,,,,,1,001,2024-08-22_16h02.00.149,IAT(Formal),2021.2.3,Win32,29.94011976,,,,,,,,,,,,,,,,i,0,0.7837,0,41,41,22,1,无私,e,,,,,,,,,,,,,,,,,,,,,,,,,,,,,,,,,,,,,,,,,
,,,,,,,,,,,,,1,001,2024-08-22_16h02.00.149,IAT(Formal),2021.2.3,Win32,29.94011976,,,,,,,,,,,,,,,,i,1,0.7553,0,42,42,67,1,他的,i,,,,,,,,,,,,,,,,,,,,,,,,,,,,,,,,,,,,,,,,,
,,,,,,,,,,,,,1,001,2024-08-22_16h02.00.149,IAT(Formal),2021.2.3,Win32,29.94011976,,,,,,,,,,,,,,,,i,1,0.6543,0,43,43,41,1,散漫,i,,,,,,,,,,,,,,,,,,,,,,,,,,,,,,,,,,,,,,,,,
,,,,,,,,,,,,,1,001,2024-08-22_16h02.00.149,IAT(Formal),2021.2.3,Win32,29.94011976,,,,,,,,,,,,,,,,i,1,0.6618,0,44,44,9,1,其他,i,,,,,,,,,,,,,,,,,,,,,,,,,,,,,,,,,,,,,,,,,
,,,,,,,,,,,,,1,001,2024-08-22_16h02.00.149,IAT(Formal),2021.2.3,Win32,29.94011976,,,,,,,,,,,,,,,,i,1,0.6681,0,45,45,47,1,固执,i,,,,,,,,,,,,,,,,,,,,,,,,,,,,,,,,,,,,,,,,,
,,,,,,,,,,,,,1,001,2024-08-22_16h02.00.149,IAT(Formal),2021.2.3,Win32,29.94011976,,,,,,,,,,,,,,,,e,1,0.52,0,46,46,50,1,我,e,,,,,,,,,,,,,,,,,,,,,,,,,,,,,,,,,,,,,,,,,
,,,,,,,,,,,,,1,001,2024-08-22_16h02.00.149,IAT(Formal),2021.2.3,Win32,29.94011976,,,,,,,,,,,,,,,,i,1,0.6615,0,47,47,34,1,悲观,i,,,,,,,,,,,,,,,,,,,,,,,,,,,,,,,,,,,,,,,,,
,,,,,,,,,,,,,1,001,2024-08-22_16h02.00.149,IAT(Formal),2021.2.3,Win32,29.94011976,,,,,,,,,,,,,,,,i,1,0.6364,0,48,48,69,1,其他,i,,,,,,,,,,,,,,,,,,,,,,,,,,,,,,,,,,,,,,,,,
,,,,,,,,,,,,,1,001,2024-08-22_16h02.00.149,IAT(Formal),2021.2.3,Win32,29.94011976,,,,,,,,,,,,,,,,i,1,0.5234,0,49,49,31,1,虚伪,i,,,,,,,,,,,,,,,,,,,,,,,,,,,,,,,,,,,,,,,,,
,,,,,,,,,,,,,1,001,2024-08-22_16h02.00.149,IAT(Formal),2021.2.3,Win32,29.94011976,,,,,,,,,,,,,,,,e,0,0.5239,0,50,50,7,1,他的,i,,,,,,,,,,,,,,,,,,,,,,,,,,,,,,,,,,,,,,,,,
,,,,,,,,,,,,,1,001,2024-08-22_16h02.00.149,IAT(Formal),2021.2.3,Win32,29.94011976,,,,,,,,,,,,,,,,i,1,0.5241,0,51,51,49,1,下贱,i,,,,,,,,,,,,,,,,,,,,,,,,,,,,,,,,,,,,,,,,,
,,,,,,,,,,,,,1,001,2024-08-22_16h02.00.149,IAT(Formal),2021.2.3,Win32,29.94011976,,,,,,,,,,,,,,,,i,0,0.634,0,52,52,64,1,俺,e,,,,,,,,,,,,,,,,,,,,,,,,,,,,,,,,,,,,,,,,,
,,,,,,,,,,,,,1,001,2024-08-22_16h02.00.149,IAT(Formal),2021.2.3,Win32,29.94011976,,,,,,,,,,,,,,,,e,1,0.7508,0,53,53,27,1,热情,e,,,,,,,,,,,,,,,,,,,,,,,,,,,,,,,,,,,,,,,,,
,,,,,,,,,,,,,1,001,2024-08-22_16h02.00.149,IAT(Formal),2021.2.3,Win32,29.94011976,,,,,,,,,,,,,,,,i,1,0.6434,0,54,54,5,1,他,i,,,,,,,,,,,,,,,,,,,,,,,,,,,,,,,,,,,,,,,,,
,,,,,,,,,,,,,1,001,2024-08-22_16h02.00.149,IAT(Formal),2021.2.3,Win32,29.94011976,,,,,,,,,,,,,,,,i,1,0.5076,0,55,55,76,1,他们,i,,,,,,,,,,,,,,,,,,,,,,,,,,,,,,,,,,,,,,,,,
,,,,,,,,,,,,,1,001,2024-08-22_16h02.00.149,IAT(Formal),2021.2.3,Win32,29.94011976,,,,,,,,,,,,,,,,e,1,0.6472,0,56,56,20,1,认真,e,,,,,,,,,,,,,,,,,,,,,,,,,,,,,,,,,,,,,,,,,
,,,,,,,,,,,,,1,001,2024-08-22_16h02.00.149,IAT(Formal),2021.2.3,Win32,29.94011976,,,,,,,,,,,,,,,,i,1,0.6515,0,57,57,45,1,猖狂,i,,,,,,,,,,,,,,,,,,,,,,,,,,,,,,,,,,,,,,,,,
,,,,,,,,,,,,,1,001,2024-08-22_16h02.00.149,IAT(Formal),2021.2.3,Win32,29.94011976,,,,,,,,,,,,,,,,i,1,0.6409,0,58,58,37,1,傲慢,i,,,,,,,,,,,,,,,,,,,,,,,,,,,,,,,,,,,,,,,,,
,,,,,,,,,,,,,1,001,2024-08-22_16h02.00.149,IAT(Formal),2021.2.3,Win32,29.94011976,,,,,,,,,,,,,,,,i,1,0.6595,0,59,59,58,1,他人,i,,,,,,,,,,,,,,,,,,,,,,,,,,,,,,,,,,,,,,,,,
,,,,,,,,,,,,,1,001,2024-08-22_16h02.00.149,IAT(Formal),2021.2.3,Win32,29.94011976,,,,,,,,,,,,,,,,e,1,0.5082,0,60,60,14,1,乐观,e,,,,,,,,,,,,,,,,,,,,,,,,,,,,,,,,,,,,,,,,,
,,,,,,,,,,,,,1,001,2024-08-22_16h02.00.149,IAT(Formal),2021.2.3,Win32,29.94011976,,,,,,,,,,,,,,,,i,1,0.6368,0,61,61,42,1,凶狠,i,,,,,,,,,,,,,,,,,,,,,,,,,,,,,,,,,,,,,,,,,
,,,,,,,,,,,,,1,001,2024-08-22_16h02.00.149,IAT(Formal),2021.2.3,Win32,29.94011976,,,,,,,,,,,,,,,,i,0,0.6243,0,62,62,54,1,俺,e,,,,,,,,,,,,,,,,,,,,,,,,,,,,,,,,,,,,,,,,,
,,,,,,,,,,,,,1,001,2024-08-22_16h02.00.149,IAT(Formal),2021.2.3,Win32,29.94011976,,,,,,,,,,,,,,,,e,1,0.6195,0,63,63,70,1,我,e,,,,,,,,,,,,,,,,,,,,,,,,,,,,,,,,,,,,,,,,,
,,,,,,,,,,,,,1,001,2024-08-22_16h02.00.149,IAT(Formal),2021.2.3,Win32,29.94011976,,,,,,,,,,,,,,,,e,1,0.6283,0,64,64,2,1,我们,e,,,,,,,,,,,,,,,,,,,,,,,,,,,,,,,,,,,,,,,,,
,,,,,,,,,,,,,1,001,2024-08-22_16h02.00.149,IAT(Formal),2021.2.3,Win32,29.94011976,,,,,,,,,,,,,,,,i,1,0.8052,0,65,65,48,1,轻率,i,,,,,,,,,,,,,,,,,,,,,,,,,,,,,,,,,,,,,,,,,
,,,,,,,,,,,,,1,001,2024-08-22_16h02.00.149,IAT(Formal),2021.2.3,Win32,29.94011976,,,,,,,,,,,,,,,,e,1,0.6467,0,66,66,17,1,勇敢,e,,,,,,,,,,,,,,,,,,,,,,,,,,,,,,,,,,,,,,,,,
,,,,,,,,,,,,,1,001,2024-08-22_16h02.00.149,IAT(Formal),2021.2.3,Win32,29.94011976,,,,,,,,,,,,,,,,i,1,0.6568,0,67,67,38,1,鲁莽,i,,,,,,,,,,,,,,,,,,,,,,,,,,,,,,,,,,,,,,,,,
,,,,,,,,,,,,,1,001,2024-08-22_16h02.00.149,IAT(Formal),2021.2.3,Win32,29.94011976,,,,,,,,,,,,,,,,i,1,0.6523,0,68,68,65,1,他,i,,,,,,,,,,,,,,,,,,,,,,,,,,,,,,,,,,,,,,,,,
,,,,,,,,,,,,,1,001,2024-08-22_16h02.00.149,IAT(Formal),2021.2.3,Win32,29.94011976,,,,,,,,,,,,,,,,e,1,0.494,0,69,69,71,1,我的,e,,,,,,,,,,,,,,,,,,,,,,,,,,,,,,,,,,,,,,,,,
,,,,,,,,,,,,,1,001,2024-08-22_16h02.00.149,IAT(Formal),2021.2.3,Win32,29.94011976,,,,,,,,,,,,,,,,e,1,0.6572,0,70,70,11,1,崇高,e,,,,,,,,,,,,,,,,,,,,,,,,,,,,,,,,,,,,,,,,,
,,,,,,,,,,,,,1,001,2024-08-22_16h02.00.149,IAT(Formal),2021.2.3,Win32,29.94011976,,,,,,,,,,,,,,,,e,1,0.6582,0,71,71,0,1,我,e,,,,,,,,,,,,,,,,,,,,,,,,,,,,,,,,,,,,,,,,,
,,,,,,,,,,,,,1,001,2024-08-22_16h02.00.149,IAT(Formal),2021.2.3,Win32,29.94011976,,,,,,,,,,,,,,,,e,1,0.5178,0,72,72,60,1,我,e,,,,,,,,,,,,,,,,,,,,,,,,,,,,,,,,,,,,,,,,,
,,,,,,,,,,,,,1,001,2024-08-22_16h02.00.149,IAT(Formal),2021.2.3,Win32,29.94011976,,,,,,,,,,,,,,,,e,1,0.6466,0,73,73,74,1,俺,e,,,,,,,,,,,,,,,,,,,,,,,,,,,,,,,,,,,,,,,,,
,,,,,,,,,,,,,1,001,2024-08-22_16h02.00.149,IAT(Formal),2021.2.3,Win32,29.94011976,,,,,,,,,,,,,,,,e,1,0.6301,0,74,74,12,1,聪明,e,,,,,,,,,,,,,,,,,,,,,,,,,,,,,,,,,,,,,,,,,
,,,,,,,,,,,,,1,001,2024-08-22_16h02.00.149,IAT(Formal),2021.2.3,Win32,29.94011976,,,,,,,,,,,,,,,,e,1,0.5052,0,75,75,16,1,正直,e,,,,,,,,,,,,,,,,,,,,,,,,,,,,,,,,,,,,,,,,,
,,,,,,,,,,,,,1,001,2024-08-22_16h02.00.149,IAT(Formal),2021.2.3,Win32,29.94011976,,,,,,,,,,,,,,,,e,1,0.5102,0,76,76,73,1,自己,e,,,,,,,,,,,,,,,,,,,,,,,,,,,,,,,,,,,,,,,,,
,,,,,,,,,,,,,1,001,2024-08-22_16h02.00.149,IAT(Formal),2021.2.3,Win32,29.94011976,,,,,,,,,,,,,,,,i,1,0.6692,0,77,77,44,1,暴躁,i,,,,,,,,,,,,,,,,,,,,,,,,,,,,,,,,,,,,,,,,,
,,,,,,,,,,,,,1,001,2024-08-22_16h02.00.149,IAT(Formal),2021.2.3,Win32,29.94011976,,,,,,,,,,,,,,,,i,1,0.6389,0,78,78,75,1,他,i,,,,,,,,,,,,,,,,,,,,,,,,,,,,,,,,,,,,,,,,,
,,,,,,,,,,,,,1,001,2024-08-22_16h02.00.149,IAT(Formal),2021.2.3,Win32,29.94011976,,,,,,,,,,,,,,,,i,1,1.1742,0,79,79,78,1,他人,i,,,,,,,,,,,,,,,,,,,,,,,,,,,,,,,,,,,,,,,,,
,,,,,,,,,,,,,1,001,2024-08-22_16h02.00.149,IAT(Formal),2021.2.3,Win32,29.94011976,,,,,,,,,,,,,,,,e,1,0.6609,,,,,,俺,e,space,5.9847,0,0,0,64,1,,,,,,,,,,,,,,,,,,,,,,,,,,,,,,,,,,
,,,,,,,,,,,,,1,001,2024-08-22_16h02.00.149,IAT(Formal),2021.2.3,Win32,29.94011976,,,,,,,,,,,,,,,,e,1,0.5195,,,,,,我的,e,,,0,1,1,1,1,,,,,,,,,,,,,,,,,,,,,,,,,,,,,,,,,,
,,,,,,,,,,,,,1,001,2024-08-22_16h02.00.149,IAT(Formal),2021.2.3,Win32,29.94011976,,,,,,,,,,,,,,,,i,1,0.526,,,,,,凶狠,i,,,0,2,2,42,1,,,,,,,,,,,,,,,,,,,,,,,,,,,,,,,,,,
,,,,,,,,,,,,,1,001,2024-08-22_16h02.00.149,IAT(Formal),2021.2.3,Win32,29.94011976,,,,,,,,,,,,,,,,e,0,0.5088,,,,,,固执,i,,,0,3,3,47,1,,,,,,,,,,,,,,,,,,,,,,,,,,,,,,,,,,
,,,,,,,,,,,,,1,001,2024-08-22_16h02.00.149,IAT(Formal),2021.2.3,Win32,29.94011976,,,,,,,,,,,,,,,,i,1,0.6535,,,,,,他,i,,,0,4,4,55,1,,,,,,,,,,,,,,,,,,,,,,,,,,,,,,,,,,
,,,,,,,,,,,,,1,001,2024-08-22_16h02.00.149,IAT(Formal),2021.2.3,Win32,29.94011976,,,,,,,,,,,,,,,,i,1,0.6566,,,,,,他,i,,,0,5,5,5,1,,,,,,,,,,,,,,,,,,,,,,,,,,,,,,,,,,
,,,,,,,,,,,,,1,001,2024-08-22_16h02.00.149,IAT(Formal),2021.2.3,Win32,29.94011976,,,,,,,,,,,,,,,,i,1,0.6434,,,,,,他人,i,,,0,6,6,78,1,,,,,,,,,,,,,,,,,,,,,,,,,,,,,,,,,,
,,,,,,,,,,,,,1,001,2024-08-22_16h02.00.149,IAT(Formal),2021.2.3,Win32,29.94011976,,,,,,,,,,,,,,,,i,1,0.641,,,,,,鲁莽,i,,,0,7,7,38,1,,,,,,,,,,,,,,,,,,,,,,,,,,,,,,,,,,
,,,,,,,,,,,,,1,001,2024-08-22_16h02.00.149,IAT(Formal),2021.2.3,Win32,29.94011976,,,,,,,,,,,,,,,,e,1,0.5241,,,,,,俺,e,,,0,8,8,54,1,,,,,,,,,,,,,,,,,,,,,,,,,,,,,,,,,,
,,,,,,,,,,,,,1,001,2024-08-22_16h02.00.149,IAT(Formal),2021.2.3,Win32,29.94011976,,,,,,,,,,,,,,,,i,1,0.5073,,,,,,他的,i,,,0,9,9,77,1,,,,,,,,,,,,,,,,,,,,,,,,,,,,,,,,,,
,,,,,,,,,,,,,1,001,2024-08-22_16h02.00.149,IAT(Formal),2021.2.3,Win32,29.94011976,,,,,,,,,,,,,,,,e,1,0.6479,,,,,,自己,e,,,0,10,10,53,1,,,,,,,,,,,,,,,,,,,,,,,,,,,,,,,,,,
,,,,,,,,,,,,,1,001,2024-08-22_16h02.00.149,IAT(Formal),2021.2.3,Win32,29.94011976,,,,,,,,,,,,,,,,i,1,0.7713,,,,,,野蛮,i,,,0,11,11,46,1,,,,,,,,,,,,,,,,,,,,,,,,,,,,,,,,,,
,,,,,,,,,,,,,1,001,2024-08-22_16h02.00.149,IAT(Formal),2021.2.3,Win32,29.94011976,,,,,,,,,,,,,,,,i,1,0.7414,,,,,,他的,i,,,0,12,12,7,1,,,,,,,,,,,,,,,,,,,,,,,,,,,,,,,,,,
,,,,,,,,,,,,,1,001,2024-08-22_16h02.00.149,IAT(Formal),2021.2.3,Win32,29.94011976,,,,,,,,,,,,,,,,e,1,0.7637,,,,,,杰出,e,,,0,13,13,13,1,,,,,,,,,,,,,,,,,,,,,,,,,,,,,,,,,,
,,,,,,,,,,,,,1,001,2024-08-22_16h02.00.149,IAT(Formal),2021.2.3,Win32,29.94011976,,,,,,,,,,,,,,,,e,1,0.6456,,,,,,正直,e,,,0,14,14,16,1,,,,,,,,,,,,,,,,,,,,,,,,,,,,,,,,,,
,,,,,,,,,,,,,1,001,2024-08-22_16h02.00.149,IAT(Formal),2021.2.3,Win32,29.94011976,,,,,,,,,,,,,,,,e,1,0.6505,,,,,,勇敢,e,,,0,15,15,17,1,,,,,,,,,,,,,,,,,,,,,,,,,,,,,,,,,,
,,,,,,,,,,,,,1,001,2024-08-22_16h02.00.149,IAT(Formal),2021.2.3,Win32,29.94011976,,,,,,,,,,,,,,,,i,1,0.5088,,,,,,虚伪,i,,,0,16,16,31,1,,,,,,,,,,,,,,,,,,,,,,,,,,,,,,,,,,
,,,,,,,,,,,,,1,001,2024-08-22_16h02.00.149,IAT(Formal),2021.2.3,Win32,29.94011976,,,,,,,,,,,,,,,,e,1,0.5292,,,,,,我,e,,,0,17,17,70,1,,,,,,,,,,,,,,,,,,,,,,,,,,,,,,,,,,
,,,,,,,,,,,,,1,001,2024-08-22_16h02.00.149,IAT(Formal),2021.2.3,Win32,29.94011976,,,,,,,,,,,,,,,,i,1,0.5281,,,,,,他的,i,,,0,18,18,67,1,,,,,,,,,,,,,,,,,,,,,,,,,,,,,,,,,,
,,,,,,,,,,,,,1,001,2024-08-22_16h02.00.149,IAT(Formal),2021.2.3,Win32,29.94011976,,,,,,,,,,,,,,,,e,1,0.6577,,,,,,公正,e,,,0,19,19,23,1,,,,,,,,,,,,,,,,,,,,,,,,,,,,,,,,,,
,,,,,,,,,,,,,1,001,2024-08-22_16h02.00.149,IAT(Formal),2021.2.3,Win32,29.94011976,,,,,,,,,,,,,,,,i,1,0.5355,,,,,,其他,i,,,0,20,20,9,1,,,,,,,,,,,,,,,,,,,,,,,,,,,,,,,,,,
,,,,,,,,,,,,,1,001,2024-08-22_16h02.00.149,IAT(Formal),2021.2.3,Win32,29.94011976,,,,,,,,,,,,,,,,e,1,0.8124,,,,,,机智,e,,,0,21,21,19,1,,,,,,,,,,,,,,,,,,,,,,,,,,,,,,,,,,
,,,,,,,,,,,,,1,001,2024-08-22_16h02.00.149,IAT(Formal),2021.2.3,Win32,29.94011976,,,,,,,,,,,,,,,,i,0,0.4987,,,,,,优秀,e,,,0,22,22,10,1,,,,,,,,,,,,,,,,,,,,,,,,,,,,,,,,,,
,,,,,,,,,,,,,1,001,2024-08-22_16h02.00.149,IAT(Formal),2021.2.3,Win32,29.94011976,,,,,,,,,,,,,,,,e,1,0.8812,,,,,,冷静,e,,,0,23,23,26,1,,,,,,,,,,,,,,,,,,,,,,,,,,,,,,,,,,
,,,,,,,,,,,,,1,001,2024-08-22_16h02.00.149,IAT(Formal),2021.2.3,Win32,29.94011976,,,,,,,,,,,,,,,,i,1,0.7487,,,,,,冒失,i,,,0,24,24,39,1,,,,,,,,,,,,,,,,,,,,,,,,,,,,,,,,,,
,,,,,,,,,,,,,1,001,2024-08-22_16h02.00.149,IAT(Formal),2021.2.3,Win32,29.94011976,,,,,,,,,,,,,,,,e,1,0.8746,,,,,,活泼,e,,,0,25,25,28,1,,,,,,,,,,,,,,,,,,,,,,,,,,,,,,,,,,
,,,,,,,,,,,,,1,001,2024-08-22_16h02.00.149,IAT(Formal),2021.2.3,Win32,29.94011976,,,,,,,,,,,,,,,,e,1,0.7808,,,,,,认真,e,,,0,26,26,20,1,,,,,,,,,,,,,,,,,,,,,,,,,,,,,,,,,,
,,,,,,,,,,,,,1,001,2024-08-22_16h02.00.149,IAT(Formal),2021.2.3,Win32,29.94011976,,,,,,,,,,,,,,,,e,1,0.6316,,,,,,俺,e,,,0,27,27,4,1,,,,,,,,,,,,,,,,,,,,,,,,,,,,,,,,,,
,,,,,,,,,,,,,1,001,2024-08-22_16h02.00.149,IAT(Formal),2021.2.3,Win32,29.94011976,,,,,,,,,,,,,,,,i,1,0.6369,,,,,,他们,i,,,0,28,28,76,1,,,,,,,,,,,,,,,,,,,,,,,,,,,,,,,,,,
,,,,,,,,,,,,,1,001,2024-08-22_16h02.00.149,IAT(Formal),2021.2.3,Win32,29.94011976,,,,,,,,,,,,,,,,e,1,0.6416,,,,,,我们,e,,,0,29,29,62,1,,,,,,,,,,,,,,,,,,,,,,,,,,,,,,,,,,
,,,,,,,,,,,,,1,001,2024-08-22_16h02.00.149,IAT(Formal),2021.2.3,Win32,29.94011976,,,,,,,,,,,,,,,,e,1,0.5387,,,,,,我的,e,,,0,30,30,71,1,,,,,,,,,,,,,,,,,,,,,,,,,,,,,,,,,,
,,,,,,,,,,,,,1,001,2024-08-22_16h02.00.149,IAT(Formal),2021.2.3,Win32,29.94011976,,,,,,,,,,,,,,,,i,1,0.626,,,,,,他的,i,,,0,31,31,57,1,,,,,,,,,,,,,,,,,,,,,,,,,,,,,,,,,,
,,,,,,,,,,,,,1,001,2024-08-22_16h02.00.149,IAT(Formal),2021.2.3,Win32,29.94011976,,,,,,,,,,,,,,,,e,1,0.7716,,,,,,细腻,e,,,0,32,32,25,1,,,,,,,,,,,,,,,,,,,,,,,,,,,,,,,,,,
,,,,,,,,,,,,,1,001,2024-08-22_16h02.00.149,IAT(Formal),2021.2.3,Win32,29.94011976,,,,,,,,,,,,,,,,i,1,0.7634,,,,,,消极,i,,,0,33,33,35,1,,,,,,,,,,,,,,,,,,,,,,,,,,,,,,,,,,
,,,,,,,,,,,,,1,001,2024-08-22_16h02.00.149,IAT(Formal),2021.2.3,Win32,29.94011976,,,,,,,,,,,,,,,,i,1,0.7964,,,,,,他人,i,,,0,34,34,58,1,,,,,,,,,,,,,,,,,,,,,,,,,,,,,,,,,,
,,,,,,,,,,,,,1,001,2024-08-22_16h02.00.149,IAT(Formal),2021.2.3,Win32,29.94011976,,,,,,,,,,,,,,,,i,1,0.7809,,,,,,执拗,i,,,0,35,35,40,1,,,,,,,,,,,,,,,,,,,,,,,,,,,,,,,,,,
,,,,,,,,,,,,,1,001,2024-08-22_16h02.00.149,IAT(Formal),2021.2.3,Win32,29.94011976,,,,,,,,,,,,,,,,i,1,0.788,,,,,,其他,i,,,0,36,36,79,1,,,,,,,,,,,,,,,,,,,,,,,,,,,,,,,,,,
,,,,,,,,,,,,,1,001,2024-08-22_16h02.00.149,IAT(Formal),2021.2.3,Win32,29.94011976,,,,,,,,,,,,,,,,i,1,0.9007,,,,,,刻薄,i,,,0,37,37,33,1,,,,,,,,,,,,,,,,,,,,,,,,,,,,,,,,,,
,,,,,,,,,,,,,1,001,2024-08-22_16h02.00.149,IAT(Formal),2021.2.3,Win32,29.94011976,,,,,,,,,,,,,,,,e,1,0.6472,,,,,,我们,e,,,0,38,38,72,1,,,,,,,,,,,,,,,,,,,,,,,,,,,,,,,,,,
,,,,,,,,,,,,,1,001,2024-08-22_16h02.00.149,IAT(Formal),2021.2.3,Win32,29.94011976,,,,,,,,,,,,,,,,i,1,0.6476,,,,,,自卑,i,,,0,39,39,36,1,,,,,,,,,,,,,,,,,,,,,,,,,,,,,,,,,,
,,,,,,,,,,,,,1,001,2024-08-22_16h02.00.149,IAT(Formal),2021.2.3,Win32,29.94011976,,,,,,,,,,,,,,,,e,1,0.7695,,,,,,我们,e,,,0,40,40,52,1,,,,,,,,,,,,,,,,,,,,,,,,,,,,,,,,,,
,,,,,,,,,,,,,1,001,2024-08-22_16h02.00.149,IAT(Formal),2021.2.3,Win32,29.94011976,,,,,,,,,,,,,,,,i,1,0.6584,,,,,,悲观,i,,,0,41,41,34,1,,,,,,,,,,,,,,,,,,,,,,,,,,,,,,,,,,
,,,,,,,,,,,,,1,001,2024-08-22_16h02.00.149,IAT(Formal),2021.2.3,Win32,29.94011976,,,,,,,,,,,,,,,,i,1,0.6457,,,,,,自私,i,,,0,42,42,43,1,,,,,,,,,,,,,,,,,,,,,,,,,,,,,,,,,,
,,,,,,,,,,,,,1,001,2024-08-22_16h02.00.149,IAT(Formal),2021.2.3,Win32,29.94011976,,,,,,,,,,,,,,,,e,1,0.7926,,,,,,我的,e,,,0,43,43,51,1,,,,,,,,,,,,,,,,,,,,,,,,,,,,,,,,,,
,,,,,,,,,,,,,1,001,2024-08-22_16h02.00.149,IAT(Formal),2021.2.3,Win32,29.94011976,,,,,,,,,,,,,,,,e,1,0.7903,,,,,,稳重,e,,,0,44,44,21,1,,,,,,,,,,,,,,,,,,,,,,,,,,,,,,,,,,
,,,,,,,,,,,,,1,001,2024-08-22_16h02.00.149,IAT(Formal),2021.2.3,Win32,29.94011976,,,,,,,,,,,,,,,,i,1,0.5124,,,,,,暴躁,i,,,0,45,45,44,1,,,,,,,,,,,,,,,,,,,,,,,,,,,,,,,,,,
,,,,,,,,,,,,,1,001,2024-08-22_16h02.00.149,IAT(Formal),2021.2.3,Win32,29.94011976,,,,,,,,,,,,,,,,i,1,0.7397,,,,,,他,i,,,0,46,46,65,1,,,,,,,,,,,,,,,,,,,,,,,,,,,,,,,,,,
,,,,,,,,,,,,,1,001,2024-08-22_16h02.00.149,IAT(Formal),2021.2.3,Win32,29.94011976,,,,,,,,,,,,,,,,i,1,0.6344,,,,,,卑鄙,i,,,0,47,47,30,1,,,,,,,,,,,,,,,,,,,,,,,,,,,,,,,,,,
,,,,,,,,,,,,,1,001,2024-08-22_16h02.00.149,IAT(Formal),2021.2.3,Win32,29.94011976,,,,,,,,,,,,,,,,i,1,0.9274,,,,,,散漫,i,,,0,48,48,41,1,,,,,,,,,,,,,,,,,,,,,,,,,,,,,,,,,,
,,,,,,,,,,,,,1,001,2024-08-22_16h02.00.149,IAT(Formal),2021.2.3,Win32,29.94011976,,,,,,,,,,,,,,,,i,1,0.6362,,,,,,他人,i,,,0,49,49,68,1,,,,,,,,,,,,,,,,,,,,,,,,,,,,,,,,,,
,,,,,,,,,,,,,1,001,2024-08-22_16h02.00.149,IAT(Formal),2021.2.3,Win32,29.94011976,,,,,,,,,,,,,,,,i,1,1.0305,,,,,,下贱,i,,,0,50,50,49,1,,,,,,,,,,,,,,,,,,,,,,,,,,,,,,,,,,
,,,,,,,,,,,,,1,001,2024-08-22_16h02.00.149,IAT(Formal),2021.2.3,Win32,29.94011976,,,,,,,,,,,,,,,,i,1,0.6547,,,,,,轻率,i,,,0,51,51,48,1,,,,,,,,,,,,,,,,,,,,,,,,,,,,,,,,,,
,,,,,,,,,,,,,1,001,2024-08-22_16h02.00.149,IAT(Formal),2021.2.3,Win32,29.94011976,,,,,,,,,,,,,,,,i,1,0.6556,,,,,,他,i,,,0,52,52,75,1,,,,,,,,,,,,,,,,,,,,,,,,,,,,,,,,,,
,,,,,,,,,,,,,1,001,2024-08-22_16h02.00.149,IAT(Formal),2021.2.3,Win32,29.94011976,,,,,,,,,,,,,,,,i,1,0.6451,,,,,,他们,i,,,0,53,53,56,1,,,,,,,,,,,,,,,,,,,,,,,,,,,,,,,,,,
,,,,,,,,,,,,,1,001,2024-08-22_16h02.00.149,IAT(Formal),2021.2.3,Win32,29.94011976,,,,,,,,,,,,,,,,i,1,0.5092,,,,,,他们,i,,,0,54,54,6,1,,,,,,,,,,,,,,,,,,,,,,,,,,,,,,,,,,
,,,,,,,,,,,,,1,001,2024-08-22_16h02.00.149,IAT(Formal),2021.2.3,Win32,29.94011976,,,,,,,,,,,,,,,,e,1,0.7874,,,,,,崇高,e,,,0,55,55,11,1,,,,,,,,,,,,,,,,,,,,,,,,,,,,,,,,,,
,,,,,,,,,,,,,1,001,2024-08-22_16h02.00.149,IAT(Formal),2021.2.3,Win32,29.94011976,,,,,,,,,,,,,,,,i,1,0.8112,,,,,,愚蠢,i,,,0,56,56,32,1,,,,,,,,,,,,,,,,,,,,,,,,,,,,,,,,,,
,,,,,,,,,,,,,1,001,2024-08-22_16h02.00.149,IAT(Formal),2021.2.3,Win32,29.94011976,,,,,,,,,,,,,,,,e,1,0.7771,,,,,,我们,e,,,0,57,57,2,1,,,,,,,,,,,,,,,,,,,,,,,,,,,,,,,,,,
,,,,,,,,,,,,,1,001,2024-08-22_16h02.00.149,IAT(Formal),2021.2.3,Win32,29.94011976,,,,,,,,,,,,,,,,i,0,0.7742,,,,,,无私,e,,,0,58,58,22,1,,,,,,,,,,,,,,,,,,,,,,,,,,,,,,,,,,
,,,,,,,,,,,,,1,001,2024-08-22_16h02.00.149,IAT(Formal),2021.2.3,Win32,29.94011976,,,,,,,,,,,,,,,,e,1,0.6521,,,,,,勤奋,e,,,0,59,59,18,1,,,,,,,,,,,,,,,,,,,,,,,,,,,,,,,,,,
,,,,,,,,,,,,,1,001,2024-08-22_16h02.00.149,IAT(Formal),2021.2.3,Win32,29.94011976,,,,,,,,,,,,,,,,e,1,0.6275,,,,,,自己,e,,,0,60,60,73,1,,,,,,,,,,,,,,,,,,,,,,,,,,,,,,,,,,
,,,,,,,,,,,,,1,001,2024-08-22_16h02.00.149,IAT(Formal),2021.2.3,Win32,29.94011976,,,,,,,,,,,,,,,,e,1,0.5189,,,,,,我,e,,,0,61,61,60,1,,,,,,,,,,,,,,,,,,,,,,,,,,,,,,,,,,
,,,,,,,,,,,,,1,001,2024-08-22_16h02.00.149,IAT(Formal),2021.2.3,Win32,29.94011976,,,,,,,,,,,,,,,,i,0,0.5178,,,,,,乐观,e,,,0,62,62,14,1,,,,,,,,,,,,,,,,,,,,,,,,,,,,,,,,,,
,,,,,,,,,,,,,1,001,2024-08-22_16h02.00.149,IAT(Formal),2021.2.3,Win32,29.94011976,,,,,,,,,,,,,,,,e,1,0.5093,,,,,,我的,e,,,0,63,63,61,1,,,,,,,,,,,,,,,,,,,,,,,,,,,,,,,,,,
,,,,,,,,,,,,,1,001,2024-08-22_16h02.00.149,IAT(Formal),2021.2.3,Win32,29.94011976,,,,,,,,,,,,,,,,e,1,0.9009,,,,,,自己,e,,,0,64,64,63,1,,,,,,,,,,,,,,,,,,,,,,,,,,,,,,,,,,
,,,,,,,,,,,,,1,001,2024-08-22_16h02.00.149,IAT(Formal),2021.2.3,Win32,29.94011976,,,,,,,,,,,,,,,,i,1,0.6543,,,,,,他们,i,,,0,65,65,66,1,,,,,,,,,,,,,,,,,,,,,,,,,,,,,,,,,,
,,,,,,,,,,,,,1,001,2024-08-22_16h02.00.149,IAT(Formal),2021.2.3,Win32,29.94011976,,,,,,,,,,,,,,,,,0,,,,,,,自己,e,,,0,66,66,3,1,,,,,,,,,,,,,,,,,,,,,,,,,,,,,,,,,,
,,,,,,,,,,,,,1,001,2024-08-22_16h02.00.149,IAT(Formal),2021.2.3,Win32,29.94011976,,,,,,,,,,,,,,,,e,1,0.492,,,,,,聪明,e,,,0,67,67,12,1,,,,,,,,,,,,,,,,,,,,,,,,,,,,,,,,,,
,,,,,,,,,,,,,1,001,2024-08-22_16h02.00.149,IAT(Formal),2021.2.3,Win32,29.94011976,,,,,,,,,,,,,,,,e,1,0.6292,,,,,,我,e,,,0,68,68,50,1,,,,,,,,,,,,,,,,,,,,,,,,,,,,,,,,,,
,,,,,,,,,,,,,1,001,2024-08-22_16h02.00.149,IAT(Formal),2021.2.3,Win32,29.94011976,,,,,,,,,,,,,,,,e,1,1.0446,,,,,,朴实,e,,,0,69,69,24,1,,,,,,,,,,,,,,,,,,,,,,,,,,,,,,,,,,
,,,,,,,,,,,,,1,001,2024-08-22_16h02.00.149,IAT(Formal),2021.2.3,Win32,29.94011976,,,,,,,,,,,,,,,,i,1,0.6379,,,,,,猖狂,i,,,0,70,70,45,1,,,,,,,,,,,,,,,,,,,,,,,,,,,,,,,,,,
,,,,,,,,,,,,,1,001,2024-08-22_16h02.00.149,IAT(Formal),2021.2.3,Win32,29.94011976,,,,,,,,,,,,,,,,i,0,0.6529,,,,,,俺,e,,,0,71,71,74,1,,,,,,,,,,,,,,,,,,,,,,,,,,,,,,,,,,
,,,,,,,,,,,,,1,001,2024-08-22_16h02.00.149,IAT(Formal),2021.2.3,Win32,29.94011976,,,,,,,,,,,,,,,,i,1,0.6604,,,,,,其他,i,,,0,72,72,69,1,,,,,,,,,,,,,,,,,,,,,,,,,,,,,,,,,,
,,,,,,,,,,,,,1,001,2024-08-22_16h02.00.149,IAT(Formal),2021.2.3,Win32,29.94011976,,,,,,,,,,,,,,,,e,1,0.5139,,,,,,我,e,,,0,73,73,0,1,,,,,,,,,,,,,,,,,,,,,,,,,,,,,,,,,,
,,,,,,,,,,,,,1,001,2024-08-22_16h02.00.149,IAT(Formal),2021.2.3,Win32,29.94011976,,,,,,,,,,,,,,,,i,1,0.7855,,,,,,傲慢,i,,,0,74,74,37,1,,,,,,,,,,,,,,,,,,,,,,,,,,,,,,,,,,
,,,,,,,,,,,,,1,001,2024-08-22_16h02.00.149,IAT(Formal),2021.2.3,Win32,29.94011976,,,,,,,,,,,,,,,,i,1,0.6337,,,,,,其他,i,,,0,75,75,59,1,,,,,,,,,,,,,,,,,,,,,,,,,,,,,,,,,,
,,,,,,,,,,,,,1,001,2024-08-22_16h02.00.149,IAT(Formal),2021.2.3,Win32,29.94011976,,,,,,,,,,,,,,,,i,1,0.5049,,,,,,他人,i,,,0,76,76,8,1,,,,,,,,,,,,,,,,,,,,,,,,,,,,,,,,,,
,,,,,,,,,,,,,1,001,2024-08-22_16h02.00.149,IAT(Formal),2021.2.3,Win32,29.94011976,,,,,,,,,,,,,,,,e,1,0.6384,,,,,,热情,e,,,0,77,77,27,1,,,,,,,,,,,,,,,,,,,,,,,,,,,,,,,,,,
,,,,,,,,,,,,,1,001,2024-08-22_16h02.00.149,IAT(Formal),2021.2.3,Win32,29.94011976,,,,,,,,,,,,,,,,e,1,0.639,,,,,,诚实,e,,,0,78,78,15,1,,,,,,,,,,,,,,,,,,,,,,,,,,,,,,,,,,
,,,,,,,,,,,,,1,001,2024-08-22_16h02.00.149,IAT(Formal),2021.2.3,Win32,29.94011976,,,,,,,,,,,,,,,,e,1,0.5122,,,,,,诚恳,e,,,0,79,79,29,1,,,,,,,,,,,,,,,,,,,,,,,,,,,,,,,,,,
,,,,,,,,,,,,,1,001,2024-08-22_16h02.00.149,IAT(Formal),2021.2.3,Win32,29.94011976,,,,,,,,,,,,,,,,i,1,0.6361,,,,,,傲慢,i,,,1,0,80,37,1,,,,,,,,,,,,,,,,,,,,,,,,,,,,,,,,,,
,,,,,,,,,,,,,1,001,2024-08-22_16h02.00.149,IAT(Formal),2021.2.3,Win32,29.94011976,,,,,,,,,,,,,,,,i,1,0.6541,,,,,,他,i,,,1,1,81,5,1,,,,,,,,,,,,,,,,,,,,,,,,,,,,,,,,,,
,,,,,,,,,,,,,1,001,2024-08-22_16h02.00.149,IAT(Formal),2021.2.3,Win32,29.94011976,,,,,,,,,,,,,,,,i,1,0.7553,,,,,,冒失,i,,,1,2,82,39,1,,,,,,,,,,,,,,,,,,,,,,,,,,,,,,,,,,
,,,,,,,,,,,,,1,001,2024-08-22_16h02.00.149,IAT(Formal),2021.2.3,Win32,29.94011976,,,,,,,,,,,,,,,,e,1,0.7676,,,,,,俺,e,,,1,3,83,74,1,,,,,,,,,,,,,,,,,,,,,,,,,,,,,,,,,,
,,,,,,,,,,,,,1,001,2024-08-22_16h02.00.149,IAT(Formal),2021.2.3,Win32,29.94011976,,,,,,,,,,,,,,,,e,1,0.6598,,,,,,勤奋,e,,,1,4,84,18,1,,,,,,,,,,,,,,,,,,,,,,,,,,,,,,,,,,
,,,,,,,,,,,,,1,001,2024-08-22_16h02.00.149,IAT(Formal),2021.2.3,Win32,29.94011976,,,,,,,,,,,,,,,,i,1,0.7913,,,,,,执拗,i,,,1,5,85,40,1,,,,,,,,,,,,,,,,,,,,,,,,,,,,,,,,,,
,,,,,,,,,,,,,1,001,2024-08-22_16h02.00.149,IAT(Formal),2021.2.3,Win32,29.94011976,,,,,,,,,,,,,,,,e,1,0.5103,,,,,,我们,e,,,1,6,86,72,1,,,,,,,,,,,,,,,,,,,,,,,,,,,,,,,,,,
,,,,,,,,,,,,,1,001,2024-08-22_16h02.00.149,IAT(Formal),2021.2.3,Win32,29.94011976,,,,,,,,,,,,,,,,e,1,0.7633,,,,,,公正,e,,,1,7,87,23,1,,,,,,,,,,,,,,,,,,,,,,,,,,,,,,,,,,
,,,,,,,,,,,,,1,001,2024-08-22_16h02.00.149,IAT(Formal),2021.2.3,Win32,29.94011976,,,,,,,,,,,,,,,,e,1,0.5217,,,,,,我,e,,,1,8,88,70,1,,,,,,,,,,,,,,,,,,,,,,,,,,,,,,,,,,
,,,,,,,,,,,,,1,001,2024-08-22_16h02.00.149,IAT(Formal),2021.2.3,Win32,29.94011976,,,,,,,,,,,,,,,,e,1,0.5259,,,,,,聪明,e,,,1,9,89,12,1,,,,,,,,,,,,,,,,,,,,,,,,,,,,,,,,,,
,,,,,,,,,,,,,1,001,2024-08-22_16h02.00.149,IAT(Formal),2021.2.3,Win32,29.94011976,,,,,,,,,,,,,,,,e,0,1.1757,,,,,,他,i,,,1,10,90,65,1,,,,,,,,,,,,,,,,,,,,,,,,,,,,,,,,,,
,,,,,,,,,,,,,1,001,2024-08-22_16h02.00.149,IAT(Formal),2021.2.3,Win32,29.94011976,,,,,,,,,,,,,,,,i,1,0.6483,,,,,,他们,i,,,1,11,91,6,1,,,,,,,,,,,,,,,,,,,,,,,,,,,,,,,,,,
,,,,,,,,,,,,,1,001,2024-08-22_16h02.00.149,IAT(Formal),2021.2.3,Win32,29.94011976,,,,,,,,,,,,,,,,i,1,0.646,,,,,,猖狂,i,,,1,12,92,45,1,,,,,,,,,,,,,,,,,,,,,,,,,,,,,,,,,,
,,,,,,,,,,,,,1,001,2024-08-22_16h02.00.149,IAT(Formal),2021.2.3,Win32,29.94011976,,,,,,,,,,,,,,,,,0,,,,,,,诚恳,e,,,1,13,93,29,1,,,,,,,,,,,,,,,,,,,,,,,,,,,,,,,,,,
,,,,,,,,,,,,,1,001,2024-08-22_16h02.00.149,IAT(Formal),2021.2.3,Win32,29.94011976,,,,,,,,,,,,,,,,i,1,0.5257,,,,,,他,i,,,1,14,94,75,1,,,,,,,,,,,,,,,,,,,,,,,,,,,,,,,,,,
,,,,,,,,,,,,,1,001,2024-08-22_16h02.00.149,IAT(Formal),2021.2.3,Win32,29.94011976,,,,,,,,,,,,,,,,i,1,0.9189,,,,,,野蛮,i,,,1,15,95,46,1,,,,,,,,,,,,,,,,,,,,,,,,,,,,,,,,,,
,,,,,,,,,,,,,1,001,2024-08-22_16h02.00.149,IAT(Formal),2021.2.3,Win32,29.94011976,,,,,,,,,,,,,,,,e,1,0.6652,,,,,,自己,e,,,1,16,96,63,1,,,,,,,,,,,,,,,,,,,,,,,,,,,,,,,,,,
,,,,,,,,,,,,,1,001,2024-08-22_16h02.00.149,IAT(Formal),2021.2.3,Win32,29.94011976,,,,,,,,,,,,,,,,e,1,0.8832,,,,,,俺,e,,,1,17,97,64,1,,,,,,,,,,,,,,,,,,,,,,,,,,,,,,,,,,
,,,,,,,,,,,,,1,001,2024-08-22_16h02.00.149,IAT(Formal),2021.2.3,Win32,29.94011976,,,,,,,,,,,,,,,,i,1,0.6365,,,,,,他的,i,,,1,18,98,7,1,,,,,,,,,,,,,,,,,,,,,,,,,,,,,,,,,,
,,,,,,,,,,,,,1,001,2024-08-22_16h02.00.149,IAT(Formal),2021.2.3,Win32,29.94011976,,,,,,,,,,,,,,,,e,0,0.5109,,,,,,他人,i,,,1,19,99,78,1,,,,,,,,,,,,,,,,,,,,,,,,,,,,,,,,,,
,,,,,,,,,,,,,1,001,2024-08-22_16h02.00.149,IAT(Formal),2021.2.3,Win32,29.94011976,,,,,,,,,,,,,,,,i,0,0.5106,,,,,,我们,e,,,1,20,100,52,1,,,,,,,,,,,,,,,,,,,,,,,,,,,,,,,,,,
,,,,,,,,,,,,,1,001,2024-08-22_16h02.00.149,IAT(Formal),2021.2.3,Win32,29.94011976,,,,,,,,,,,,,,,,i,1,0.7637,,,,,,虚伪,i,,,1,21,101,31,1,,,,,,,,,,,,,,,,,,,,,,,,,,,,,,,,,,
,,,,,,,,,,,,,1,001,2024-08-22_16h02.00.149,IAT(Formal),2021.2.3,Win32,29.94011976,,,,,,,,,,,,,,,,e,1,0.7718,,,,,,俺,e,,,1,22,102,54,1,,,,,,,,,,,,,,,,,,,,,,,,,,,,,,,,,,
,,,,,,,,,,,,,1,001,2024-08-22_16h02.00.149,IAT(Formal),2021.2.3,Win32,29.94011976,,,,,,,,,,,,,,,,e,1,0.6258,,,,,,认真,e,,,1,23,103,20,1,,,,,,,,,,,,,,,,,,,,,,,,,,,,,,,,,,
,,,,,,,,,,,,,1,001,2024-08-22_16h02.00.149,IAT(Formal),2021.2.3,Win32,29.94011976,,,,,,,,,,,,,,,,e,1,0.5155,,,,,,朴实,e,,,1,24,104,24,1,,,,,,,,,,,,,,,,,,,,,,,,,,,,,,,,,,
,,,,,,,,,,,,,1,001,2024-08-22_16h02.00.149,IAT(Formal),2021.2.3,Win32,29.94011976,,,,,,,,,,,,,,,,i,1,0.8784,,,,,,他们,i,,,1,25,105,66,1,,,,,,,,,,,,,,,,,,,,,,,,,,,,,,,,,,
,,,,,,,,,,,,,1,001,2024-08-22_16h02.00.149,IAT(Formal),2021.2.3,Win32,29.94011976,,,,,,,,,,,,,,,,i,1,0.6365,,,,,,卑鄙,i,,,1,26,106,30,1,,,,,,,,,,,,,,,,,,,,,,,,,,,,,,,,,,
,,,,,,,,,,,,,1,001,2024-08-22_16h02.00.149,IAT(Formal),2021.2.3,Win32,29.94011976,,,,,,,,,,,,,,,,e,1,0.7725,,,,,,俺,e,,,1,27,107,4,1,,,,,,,,,,,,,,,,,,,,,,,,,,,,,,,,,,
,,,,,,,,,,,,,1,001,2024-08-22_16h02.00.149,IAT(Formal),2021.2.3,Win32,29.94011976,,,,,,,,,,,,,,,,e,1,0.7712,,,,,,细腻,e,,,1,28,108,25,1,,,,,,,,,,,,,,,,,,,,,,,,,,,,,,,,,,
,,,,,,,,,,,,,1,001,2024-08-22_16h02.00.149,IAT(Formal),2021.2.3,Win32,29.94011976,,,,,,,,,,,,,,,,e,1,0.5238,,,,,,自己,e,,,1,29,109,53,1,,,,,,,,,,,,,,,,,,,,,,,,,,,,,,,,,,
,,,,,,,,,,,,,1,001,2024-08-22_16h02.00.149,IAT(Formal),2021.2.3,Win32,29.94011976,,,,,,,,,,,,,,,,i,1,0.5282,,,,,,暴躁,i,,,1,30,110,44,1,,,,,,,,,,,,,,,,,,,,,,,,,,,,,,,,,,
,,,,,,,,,,,,,1,001,2024-08-22_16h02.00.149,IAT(Formal),2021.2.3,Win32,29.94011976,,,,,,,,,,,,,,,,i,1,0.6513,,,,,,自卑,i,,,1,31,111,36,1,,,,,,,,,,,,,,,,,,,,,,,,,,,,,,,,,,
,,,,,,,,,,,,,1,001,2024-08-22_16h02.00.149,IAT(Formal),2021.2.3,Win32,29.94011976,,,,,,,,,,,,,,,,i,0,0.6408,,,,,,稳重,e,,,1,32,112,21,1,,,,,,,,,,,,,,,,,,,,,,,,,,,,,,,,,,
,,,,,,,,,,,,,1,001,2024-08-22_16h02.00.149,IAT(Formal),2021.2.3,Win32,29.94011976,,,,,,,,,,,,,,,,i,1,0.6426,,,,,,他,i,,,1,33,113,55,1,,,,,,,,,,,,,,,,,,,,,,,,,,,,,,,,,,
,,,,,,,,,,,,,1,001,2024-08-22_16h02.00.149,IAT(Formal),2021.2.3,Win32,29.94011976,,,,,,,,,,,,,,,,i,1,0.7744,,,,,,鲁莽,i,,,1,34,114,38,1,,,,,,,,,,,,,,,,,,,,,,,,,,,,,,,,,,
,,,,,,,,,,,,,1,001,2024-08-22_16h02.00.149,IAT(Formal),2021.2.3,Win32,29.94011976,,,,,,,,,,,,,,,,e,1,0.637,,,,,,热情,e,,,1,35,115,27,1,,,,,,,,,,,,,,,,,,,,,,,,,,,,,,,,,,
,,,,,,,,,,,,,1,001,2024-08-22_16h02.00.149,IAT(Formal),2021.2.3,Win32,29.94011976,,,,,,,,,,,,,,,,i,1,0.6314,,,,,,下贱,i,,,1,36,116,49,1,,,,,,,,,,,,,,,,,,,,,,,,,,,,,,,,,,
,,,,,,,,,,,,,1,001,2024-08-22_16h02.00.149,IAT(Formal),2021.2.3,Win32,29.94011976,,,,,,,,,,,,,,,,i,1,0.6442,,,,,,愚蠢,i,,,1,37,117,32,1,,,,,,,,,,,,,,,,,,,,,,,,,,,,,,,,,,
,,,,,,,,,,,,,1,001,2024-08-22_16h02.00.149,IAT(Formal),2021.2.3,Win32,29.94011976,,,,,,,,,,,,,,,,i,0,0.6488,,,,,,乐观,e,,,1,38,118,14,1,,,,,,,,,,,,,,,,,,,,,,,,,,,,,,,,,,
,,,,,,,,,,,,,1,001,2024-08-22_16h02.00.149,IAT(Formal),2021.2.3,Win32,29.94011976,,,,,,,,,,,,,,,,e,1,0.7775,,,,,,冷静,e,,,1,39,119,26,1,,,,,,,,,,,,,,,,,,,,,,,,,,,,,,,,,,
,,,,,,,,,,,,,1,001,2024-08-22_16h02.00.149,IAT(Formal),2021.2.3,Win32,29.94011976,,,,,,,,,,,,,,,,e,1,0.5202,,,,,,自己,e,,,1,40,120,3,1,,,,,,,,,,,,,,,,,,,,,,,,,,,,,,,,,,
,,,,,,,,,,,,,1,001,2024-08-22_16h02.00.149,IAT(Formal),2021.2.3,Win32,29.94011976,,,,,,,,,,,,,,,,i,1,0.9085,,,,,,他的,i,,,1,41,121,77,1,,,,,,,,,,,,,,,,,,,,,,,,,,,,,,,,,,
,,,,,,,,,,,,,1,001,2024-08-22_16h02.00.149,IAT(Formal),2021.2.3,Win32,29.94011976,,,,,,,,,,,,,,,,i,1,0.6417,,,,,,他的,i,,,1,42,122,57,1,,,,,,,,,,,,,,,,,,,,,,,,,,,,,,,,,,
,,,,,,,,,,,,,1,001,2024-08-22_16h02.00.149,IAT(Formal),2021.2.3,Win32,29.94011976,,,,,,,,,,,,,,,,e,1,0.6208,,,,,,我,e,,,1,43,123,60,1,,,,,,,,,,,,,,,,,,,,,,,,,,,,,,,,,,
,,,,,,,,,,,,,1,001,2024-08-22_16h02.00.149,IAT(Formal),2021.2.3,Win32,29.94011976,,,,,,,,,,,,,,,,i,1,0.6107,,,,,,他人,i,,,1,44,124,68,1,,,,,,,,,,,,,,,,,,,,,,,,,,,,,,,,,,
,,,,,,,,,,,,,1,001,2024-08-22_16h02.00.149,IAT(Formal),2021.2.3,Win32,29.94011976,,,,,,,,,,,,,,,,e,1,0.6098,,,,,,我,e,,,1,45,125,50,1,,,,,,,,,,,,,,,,,,,,,,,,,,,,,,,,,,
,,,,,,,,,,,,,1,001,2024-08-22_16h02.00.149,IAT(Formal),2021.2.3,Win32,29.94011976,,,,,,,,,,,,,,,,e,1,0.6358,,,,,,诚实,e,,,1,46,126,15,1,,,,,,,,,,,,,,,,,,,,,,,,,,,,,,,,,,
,,,,,,,,,,,,,1,001,2024-08-22_16h02.00.149,IAT(Formal),2021.2.3,Win32,29.94011976,,,,,,,,,,,,,,,,e,1,0.7448,,,,,,机智,e,,,1,47,127,19,1,,,,,,,,,,,,,,,,,,,,,,,,,,,,,,,,,,
,,,,,,,,,,,,,1,001,2024-08-22_16h02.00.149,IAT(Formal),2021.2.3,Win32,29.94011976,,,,,,,,,,,,,,,,e,1,0.6265,,,,,,勇敢,e,,,1,48,128,17,1,,,,,,,,,,,,,,,,,,,,,,,,,,,,,,,,,,
,,,,,,,,,,,,,1,001,2024-08-22_16h02.00.149,IAT(Formal),2021.2.3,Win32,29.94011976,,,,,,,,,,,,,,,,i,1,0.7611,,,,,,固执,i,,,1,49,129,47,1,,,,,,,,,,,,,,,,,,,,,,,,,,,,,,,,,,
,,,,,,,,,,,,,1,001,2024-08-22_16h02.00.149,IAT(Formal),2021.2.3,Win32,29.94011976,,,,,,,,,,,,,,,,e,1,0.6124,,,,,,我们,e,,,1,50,130,2,1,,,,,,,,,,,,,,,,,,,,,,,,,,,,,,,,,,
,,,,,,,,,,,,,1,001,2024-08-22_16h02.00.149,IAT(Formal),2021.2.3,Win32,29.94011976,,,,,,,,,,,,,,,,i,1,0.5271,,,,,,他们,i,,,1,51,131,76,1,,,,,,,,,,,,,,,,,,,,,,,,,,,,,,,,,,
,,,,,,,,,,,,,1,001,2024-08-22_16h02.00.149,IAT(Formal),2021.2.3,Win32,29.94011976,,,,,,,,,,,,,,,,e,1,0.5188,,,,,,我的,e,,,1,52,132,1,1,,,,,,,,,,,,,,,,,,,,,,,,,,,,,,,,,,
,,,,,,,,,,,,,1,001,2024-08-22_16h02.00.149,IAT(Formal),2021.2.3,Win32,29.94011976,,,,,,,,,,,,,,,,e,1,0.5221,,,,,,自己,e,,,1,53,133,73,1,,,,,,,,,,,,,,,,,,,,,,,,,,,,,,,,,,
,,,,,,,,,,,,,1,001,2024-08-22_16h02.00.149,IAT(Formal),2021.2.3,Win32,29.94011976,,,,,,,,,,,,,,,,e,1,0.6132,,,,,,我的,e,,,1,54,134,61,1,,,,,,,,,,,,,,,,,,,,,,,,,,,,,,,,,,
,,,,,,,,,,,,,1,001,2024-08-22_16h02.00.149,IAT(Formal),2021.2.3,Win32,29.94011976,,,,,,,,,,,,,,,,e,1,0.5171,,,,,,我的,e,,,1,55,135,71,1,,,,,,,,,,,,,,,,,,,,,,,,,,,,,,,,,,
,,,,,,,,,,,,,1,001,2024-08-22_16h02.00.149,IAT(Formal),2021.2.3,Win32,29.94011976,,,,,,,,,,,,,,,,e,1,0.5163,,,,,,我,e,,,1,56,136,0,1,,,,,,,,,,,,,,,,,,,,,,,,,,,,,,,,,,
,,,,,,,,,,,,,1,001,2024-08-22_16h02.00.149,IAT(Formal),2021.2.3,Win32,29.94011976,,,,,,,,,,,,,,,,i,1,0.4978,,,,,,刻薄,i,,,1,57,137,33,1,,,,,,,,,,,,,,,,,,,,,,,,,,,,,,,,,,
,,,,,,,,,,,,,1,001,2024-08-22_16h02.00.149,IAT(Formal),2021.2.3,Win32,29.94011976,,,,,,,,,,,,,,,,i,1,0.6498,,,,,,悲观,i,,,1,58,138,34,1,,,,,,,,,,,,,,,,,,,,,,,,,,,,,,,,,,
,,,,,,,,,,,,,1,001,2024-08-22_16h02.00.149,IAT(Formal),2021.2.3,Win32,29.94011976,,,,,,,,,,,,,,,,e,1,0.6488,,,,,,我的,e,,,1,59,139,51,1,,,,,,,,,,,,,,,,,,,,,,,,,,,,,,,,,,
,,,,,,,,,,,,,1,001,2024-08-22_16h02.00.149,IAT(Formal),2021.2.3,Win32,29.94011976,,,,,,,,,,,,,,,,i,1,0.6367,,,,,,他们,i,,,1,60,140,56,1,,,,,,,,,,,,,,,,,,,,,,,,,,,,,,,,,,
,,,,,,,,,,,,,1,001,2024-08-22_16h02.00.149,IAT(Formal),2021.2.3,Win32,29.94011976,,,,,,,,,,,,,,,,i,1,0.5203,,,,,,其他,i,,,1,61,141,9,1,,,,,,,,,,,,,,,,,,,,,,,,,,,,,,,,,,
,,,,,,,,,,,,,1,001,2024-08-22_16h02.00.149,IAT(Formal),2021.2.3,Win32,29.94011976,,,,,,,,,,,,,,,,i,1,0.5158,,,,,,他人,i,,,1,62,142,58,1,,,,,,,,,,,,,,,,,,,,,,,,,,,,,,,,,,
,,,,,,,,,,,,,1,001,2024-08-22_16h02.00.149,IAT(Formal),2021.2.3,Win32,29.94011976,,,,,,,,,,,,,,,,i,1,0.5125,,,,,,他人,i,,,1,63,143,8,1,,,,,,,,,,,,,,,,,,,,,,,,,,,,,,,,,,
,,,,,,,,,,,,,1,001,2024-08-22_16h02.00.149,IAT(Formal),2021.2.3,Win32,29.94011976,,,,,,,,,,,,,,,,i,1,0.5122,,,,,,凶狠,i,,,1,64,144,42,1,,,,,,,,,,,,,,,,,,,,,,,,,,,,,,,,,,
,,,,,,,,,,,,,1,001,2024-08-22_16h02.00.149,IAT(Formal),2021.2.3,Win32,29.94011976,,,,,,,,,,,,,,,,i,0,0.623,,,,,,无私,e,,,1,65,145,22,1,,,,,,,,,,,,,,,,,,,,,,,,,,,,,,,,,,
,,,,,,,,,,,,,1,001,2024-08-22_16h02.00.149,IAT(Formal),2021.2.3,Win32,29.94011976,,,,,,,,,,,,,,,,i,1,0.504,,,,,,其他,i,,,1,66,146,69,1,,,,,,,,,,,,,,,,,,,,,,,,,,,,,,,,,,
,,,,,,,,,,,,,1,001,2024-08-22_16h02.00.149,IAT(Formal),2021.2.3,Win32,29.94011976,,,,,,,,,,,,,,,,e,1,0.6517,,,,,,我们,e,,,1,67,147,62,1,,,,,,,,,,,,,,,,,,,,,,,,,,,,,,,,,,
,,,,,,,,,,,,,1,001,2024-08-22_16h02.00.149,IAT(Formal),2021.2.3,Win32,29.94011976,,,,,,,,,,,,,,,,i,1,0.6349,,,,,,他的,i,,,1,68,148,67,1,,,,,,,,,,,,,,,,,,,,,,,,,,,,,,,,,,
,,,,,,,,,,,,,1,001,2024-08-22_16h02.00.149,IAT(Formal),2021.2.3,Win32,29.94011976,,,,,,,,,,,,,,,,i,1,0.6247,,,,,,其他,i,,,1,69,149,79,1,,,,,,,,,,,,,,,,,,,,,,,,,,,,,,,,,,
,,,,,,,,,,,,,1,001,2024-08-22_16h02.00.149,IAT(Formal),2021.2.3,Win32,29.94011976,,,,,,,,,,,,,,,,i,1,0.769,,,,,,消极,i,,,1,70,150,35,1,,,,,,,,,,,,,,,,,,,,,,,,,,,,,,,,,,
,,,,,,,,,,,,,1,001,2024-08-22_16h02.00.149,IAT(Formal),2021.2.3,Win32,29.94011976,,,,,,,,,,,,,,,,i,1,0.6441,,,,,,轻率,i,,,1,71,151,48,1,,,,,,,,,,,,,,,,,,,,,,,,,,,,,,,,,,
,,,,,,,,,,,,,1,001,2024-08-22_16h02.00.149,IAT(Formal),2021.2.3,Win32,29.94011976,,,,,,,,,,,,,,,,e,1,0.7576,,,,,,杰出,e,,,1,72,152,13,1,,,,,,,,,,,,,,,,,,,,,,,,,,,,,,,,,,
,,,,,,,,,,,,,1,001,2024-08-22_16h02.00.149,IAT(Formal),2021.2.3,Win32,29.94011976,,,,,,,,,,,,,,,,e,1,0.9005,,,,,,崇高,e,,,1,73,153,11,1,,,,,,,,,,,,,,,,,,,,,,,,,,,,,,,,,,
,,,,,,,,,,,,,1,001,2024-08-22_16h02.00.149,IAT(Formal),2021.2.3,Win32,29.94011976,,,,,,,,,,,,,,,,e,1,1.0239,,,,,,正直,e,,,1,74,154,16,1,,,,,,,,,,,,,,,,,,,,,,,,,,,,,,,,,,
,,,,,,,,,,,,,1,001,2024-08-22_16h02.00.149,IAT(Formal),2021.2.3,Win32,29.94011976,,,,,,,,,,,,,,,,e,0,1.1522,,,,,,自私,i,,,1,75,155,43,1,,,,,,,,,,,,,,,,,,,,,,,,,,,,,,,,,,
,,,,,,,,,,,,,1,001,2024-08-22_16h02.00.149,IAT(Formal),2021.2.3,Win32,29.94011976,,,,,,,,,,,,,,,,i,1,0.7456,,,,,,散漫,i,,,1,76,156,41,1,,,,,,,,,,,,,,,,,,,,,,,,,,,,,,,,,,
,,,,,,,,,,,,,1,001,2024-08-22_16h02.00.149,IAT(Formal),2021.2.3,Win32,29.94011976,,,,,,,,,,,,,,,,i,1,0.6343,,,,,,其他,i,,,1,77,157,59,1,,,,,,,,,,,,,,,,,,,,,,,,,,,,,,,,,,
,,,,,,,,,,,,,1,001,2024-08-22_16h02.00.149,IAT(Formal),2021.2.3,Win32,29.94011976,,,,,,,,,,,,,,,,e,1,0.7555,,,,,,优秀,e,,,1,78,158,10,1,,,,,,,,,,,,,,,,,,,,,,,,,,,,,,,,,,
,,,,,,,,,,,,,1,001,2024-08-22_16h02.00.149,IAT(Formal),2021.2.3,Win32,29.94011976,,,,,,,,,,,,,,,,e,1,0.7866,,,,,,活泼,e,,,1,79,159,28,1,,,,,,,,,,,,,,,,,,,,,,,,,,,,,,,,,,
,,,,,,,,,,,我,i,1,001,2024-08-22_16h02.00.149,IAT(Formal),2021.2.3,Win32,29.94011976,,,,,,,,,,,,,,,,,,,,,,,,,,,,,,,,,space,8.8272,,0,0,0,0,0,1,,,,,,,,,,,,,,,,,,,,,,,,,
,,,,,,,,,,,我们,i,1,001,2024-08-22_16h02.00.149,IAT(Formal),2021.2.3,Win32,29.94011976,,,,,,,,,,,,,,,,,,,,,,,,,,,,,,,,,,,i,1,0,1,1,2,1,1.1229,,,,,,,,,,,,,,,,,,,,,,,,
,,,,,,,,,,,其他,e,1,001,2024-08-22_16h02.00.149,IAT(Formal),2021.2.3,Win32,29.94011976,,,,,,,,,,,,,,,,,,,,,,,,,,,,,,,,,,,e,1,0,2,2,9,1,0.7666,,,,,,,,,,,,,,,,,,,,,,,,
,,,,,,,,,,,他人,e,1,001,2024-08-22_16h02.00.149,IAT(Formal),2021.2.3,Win32,29.94011976,,,,,,,,,,,,,,,,,,,,,,,,,,,,,,,,,,,,0,0,3,3,8,1,,,,,,,,,,,,,,,,,,,,,,,,,
,,,,,,,,,,,他,e,1,001,2024-08-22_16h02.00.149,IAT(Formal),2021.2.3,Win32,29.94011976,,,,,,,,,,,,,,,,,,,,,,,,,,,,,,,,,,,e,1,0,4,4,5,1,0.9075,,,,,,,,,,,,,,,,,,,,,,,,
,,,,,,,,,,,俺,i,1,001,2024-08-22_16h02.00.149,IAT(Formal),2021.2.3,Win32,29.94011976,,,,,,,,,,,,,,,,,,,,,,,,,,,,,,,,,,,i,1,0,5,5,4,1,0.7704,,,,,,,,,,,,,,,,,,,,,,,,
,,,,,,,,,,,他们,e,1,001,2024-08-22_16h02.00.149,IAT(Formal),2021.2.3,Win32,29.94011976,,,,,,,,,,,,,,,,,,,,,,,,,,,,,,,,,,,i,0,0,6,6,6,1,0.9031,,,,,,,,,,,,,,,,,,,,,,,,
,,,,,,,,,,,我的,i,1,001,2024-08-22_16h02.00.149,IAT(Formal),2021.2.3,Win32,29.94011976,,,,,,,,,,,,,,,,,,,,,,,,,,,,,,,,,,,i,1,0,7,7,1,1,0.8777,,,,,,,,,,,,,,,,,,,,,,,,
,,,,,,,,,,,他的,e,1,001,2024-08-22_16h02.00.149,IAT(Formal),2021.2.3,Win32,29.94011976,,,,,,,,,,,,,,,,,,,,,,,,,,,,,,,,,,,,0,0,8,8,7,1,,,,,,,,,,,,,,,,,,,,,,,,,
,,,,,,,,,,,自己,i,1,001,2024-08-22_16h02.00.149,IAT(Formal),2021.2.3,Win32,29.94011976,,,,,,,,,,,,,,,,,,,,,,,,,,,,,,,,,,,i,1,0,9,9,3,1,0.9001,,,,,,,,,,,,,,,,,,,,,,,,
,,,,,,,,,,,,,1,001,2024-08-22_16h02.00.149,IAT(Formal),2021.2.3,Win32,29.94011976,,,,,,,,,,,,,,,,,,,,,,,,,,,,,,,,,,,,,,,,,,,space,12.568,i,1,0.7688,0,0,0,53,1,自己,i,,,,,,,,,,,,
,,,,,,,,,,,,,1,001,2024-08-22_16h02.00.149,IAT(Formal),2021.2.3,Win32,29.94011976,,,,,,,,,,,,,,,,,,,,,,,,,,,,,,,,,,,,,,,,,,,,,i,0,0.5043,0,1,1,55,1,他,e,,,,,,,,,,,,
,,,,,,,,,,,,,1,001,2024-08-22_16h02.00.149,IAT(Formal),2021.2.3,Win32,29.94011976,,,,,,,,,,,,,,,,,,,,,,,,,,,,,,,,,,,,,,,,,,,,,i,1,0.7935,0,2,2,34,1,悲观,i,,,,,,,,,,,,
,,,,,,,,,,,,,1,001,2024-08-22_16h02.00.149,IAT(Formal),2021.2.3,Win32,29.94011976,,,,,,,,,,,,,,,,,,,,,,,,,,,,,,,,,,,,,,,,,,,,,e,0,0.7762,0,3,3,61,1,我的,i,,,,,,,,,,,,
,,,,,,,,,,,,,1,001,2024-08-22_16h02.00.149,IAT(Formal),2021.2.3,Win32,29.94011976,,,,,,,,,,,,,,,,,,,,,,,,,,,,,,,,,,,,,,,,,,,,,e,1,0.3865,0,4,4,22,1,无私,e,,,,,,,,,,,,
,,,,,,,,,,,,,1,001,2024-08-22_16h02.00.149,IAT(Formal),2021.2.3,Win32,29.94011976,,,,,,,,,,,,,,,,,,,,,,,,,,,,,,,,,,,,,,,,,,,,,i,0,0.6619,0,5,5,11,1,崇高,e,,,,,,,,,,,,
,,,,,,,,,,,,,1,001,2024-08-22_16h02.00.149,IAT(Formal),2021.2.3,Win32,29.94011976,,,,,,,,,,,,,,,,,,,,,,,,,,,,,,,,,,,,,,,,,,,,,i,1,0.3713,0,6,6,49,1,下贱,i,,,,,,,,,,,,
,,,,,,,,,,,,,1,001,2024-08-22_16h02.00.149,IAT(Formal),2021.2.3,Win32,29.94011976,,,,,,,,,,,,,,,,,,,,,,,,,,,,,,,,,,,,,,,,,,,,,i,1,0.9156,0,7,7,45,1,猖狂,i,,,,,,,,,,,,
,,,,,,,,,,,,,1,001,2024-08-22_16h02.00.149,IAT(Formal),2021.2.3,Win32,29.94011976,,,,,,,,,,,,,,,,,,,,,,,,,,,,,,,,,,,,,,,,,,,,,e,0,0.7642,0,8,8,74,1,俺,i,,,,,,,,,,,,
,,,,,,,,,,,,,1,001,2024-08-22_16h02.00.149,IAT(Formal),2021.2.3,Win32,29.94011976,,,,,,,,,,,,,,,,,,,,,,,,,,,,,,,,,,,,,,,,,,,,,i,0,0.3773,0,9,9,79,1,其他,e,,,,,,,,,,,,
,,,,,,,,,,,,,1,001,2024-08-22_16h02.00.149,IAT(Formal),2021.2.3,Win32,29.94011976,,,,,,,,,,,,,,,,,,,,,,,,,,,,,,,,,,,,,,,,,,,,,i,1,0.3821,0,10,10,63,1,自己,i,,,,,,,,,,,,
,,,,,,,,,,,,,1,001,2024-08-22_16h02.00.149,IAT(Formal),2021.2.3,Win32,29.94011976,,,,,,,,,,,,,,,,,,,,,,,,,,,,,,,,,,,,,,,,,,,,,e,1,0.7632,0,11,11,56,1,他们,e,,,,,,,,,,,,
,,,,,,,,,,,,,1,001,2024-08-22_16h02.00.149,IAT(Formal),2021.2.3,Win32,29.94011976,,,,,,,,,,,,,,,,,,,,,,,,,,,,,,,,,,,,,,,,,,,,,e,0,0.7643,0,12,12,35,1,消极,i,,,,,,,,,,,,
,,,,,,,,,,,,,1,001,2024-08-22_16h02.00.149,IAT(Formal),2021.2.3,Win32,29.94011976,,,,,,,,,,,,,,,,,,,,,,,,,,,,,,,,,,,,,,,,,,,,,e,1,1.0411,0,13,13,23,1,公正,e,,,,,,,,,,,,
,,,,,,,,,,,,,1,001,2024-08-22_16h02.00.149,IAT(Formal),2021.2.3,Win32,29.94011976,,,,,,,,,,,,,,,,,,,,,,,,,,,,,,,,,,,,,,,,,,,,,i,1,0.9164,0,14,14,73,1,自己,i,,,,,,,,,,,,
,,,,,,,,,,,,,1,001,2024-08-22_16h02.00.149,IAT(Formal),2021.2.3,Win32,29.94011976,,,,,,,,,,,,,,,,,,,,,,,,,,,,,,,,,,,,,,,,,,,,,e,1,0.9244,0,15,15,58,1,他人,e,,,,,,,,,,,,
,,,,,,,,,,,,,1,001,2024-08-22_16h02.00.149,IAT(Formal),2021.2.3,Win32,29.94011976,,,,,,,,,,,,,,,,,,,,,,,,,,,,,,,,,,,,,,,,,,,,,i,1,0.9177,0,16,16,37,1,傲慢,i,,,,,,,,,,,,
,,,,,,,,,,,,,1,001,2024-08-22_16h02.00.149,IAT(Formal),2021.2.3,Win32,29.94011976,,,,,,,,,,,,,,,,,,,,,,,,,,,,,,,,,,,,,,,,,,,,,i,1,0.658,0,17,17,39,1,冒失,i,,,,,,,,,,,,
,,,,,,,,,,,,,1,001,2024-08-22_16h02.00.149,IAT(Formal),2021.2.3,Win32,29.94011976,,,,,,,,,,,,,,,,,,,,,,,,,,,,,,,,,,,,,,,,,,,,,i,0,1.1308,0,18,18,75,1,他,e,,,,,,,,,,,,
,,,,,,,,,,,,,1,001,2024-08-22_16h02.00.149,IAT(Formal),2021.2.3,Win32,29.94011976,,,,,,,,,,,,,,,,,,,,,,,,,,,,,,,,,,,,,,,,,,,,,i,1,1.0268,0,19,19,52,1,我们,i,,,,,,,,,,,,
,,,,,,,,,,,,,1,001,2024-08-22_16h02.00.149,IAT(Formal),2021.2.3,Win32,29.94011976,,,,,,,,,,,,,,,,,,,,,,,,,,,,,,,,,,,,,,,,,,,,,e,0,1.0272,0,20,20,71,1,我的,i,,,,,,,,,,,,
,,,,,,,,,,,,,1,001,2024-08-22_16h02.00.149,IAT(Formal),2021.2.3,Win32,29.94011976,,,,,,,,,,,,,,,,,,,,,,,,,,,,,,,,,,,,,,,,,,,,,i,1,0.777,0,21,21,41,1,散漫,i,,,,,,,,,,,,
,,,,,,,,,,,,,1,001,2024-08-22_16h02.00.149,IAT(Formal),2021.2.3,Win32,29.94011976,,,,,,,,,,,,,,,,,,,,,,,,,,,,,,,,,,,,,,,,,,,,,e,1,1.1251,0,22,22,77,1,他的,e,,,,,,,,,,,,
,,,,,,,,,,,,,1,001,2024-08-22_16h02.00.149,IAT(Formal),2021.2.3,Win32,29.94011976,,,,,,,,,,,,,,,,,,,,,,,,,,,,,,,,,,,,,,,,,,,,,e,1,0.7508,0,23,23,59,1,其他,e,,,,,,,,,,,,
,,,,,,,,,,,,,1,001,2024-08-22_16h02.00.149,IAT(Formal),2021.2.3,Win32,29.94011976,,,,,,,,,,,,,,,,,,,,,,,,,,,,,,,,,,,,,,,,,,,,,e,1,1.1612,0,24,24,21,1,稳重,e,,,,,,,,,,,,
,,,,,,,,,,,,,1,001,2024-08-22_16h02.00.149,IAT(Formal),2021.2.3,Win32,29.94011976,,,,,,,,,,,,,,,,,,,,,,,,,,,,,,,,,,,,,,,,,,,,,e,0,1.1443,0,25,25,40,1,执拗,i,,,,,,,,,,,,
,,,,,,,,,,,,,1,001,2024-08-22_16h02.00.149,IAT(Formal),2021.2.3,Win32,29.94011976,,,,,,,,,,,,,,,,,,,,,,,,,,,,,,,,,,,,,,,,,,,,,,0,,0,26,26,9,1,其他,e,,,,,,,,,,,,
,,,,,,,,,,,,,1,001,2024-08-22_16h02.00.149,IAT(Formal),2021.2.3,Win32,29.94011976,,,,,,,,,,,,,,,,,,,,,,,,,,,,,,,,,,,,,,,,,,,,,i,1,0.8745,0,27,27,46,1,野蛮,i,,,,,,,,,,,,
,,,,,,,,,,,,,1,001,2024-08-22_16h02.00.149,IAT(Formal),2021.2.3,Win32,29.94011976,,,,,,,,,,,,,,,,,,,,,,,,,,,,,,,,,,,,,,,,,,,,,i,0,0.7818,0,28,28,13,1,杰出,e,,,,,,,,,,,,
,,,,,,,,,,,,,1,001,2024-08-22_16h02.00.149,IAT(Formal),2021.2.3,Win32,29.94011976,,,,,,,,,,,,,,,,,,,,,,,,,,,,,,,,,,,,,,,,,,,,,i,0,0.3906,0,29,29,17,1,勇敢,e,,,,,,,,,,,,
,,,,,,,,,,,,,1,001,2024-08-22_16h02.00.149,IAT(Formal),2021.2.3,Win32,29.94011976,,,,,,,,,,,,,,,,,,,,,,,,,,,,,,,,,,,,,,,,,,,,,e,0,0.3782,0,30,30,48,1,轻率,i,,,,,,,,,,,,
,,,,,,,,,,,,,1,001,2024-08-22_16h02.00.149,IAT(Formal),2021.2.3,Win32,29.94011976,,,,,,,,,,,,,,,,,,,,,,,,,,,,,,,,,,,,,,,,,,,,,e,1,0.0009,0,31,31,15,1,诚实,e,,,,,,,,,,,,
,,,,,,,,,,,,,1,001,2024-08-22_16h02.00.149,IAT(Formal),2021.2.3,Win32,29.94011976,,,,,,,,,,,,,,,,,,,,,,,,,,,,,,,,,,,,,,,,,,,,,e,1,0.783,0,32,32,19,1,机智,e,,,,,,,,,,,,
,,,,,,,,,,,,,1,001,2024-08-22_16h02.00.149,IAT(Formal),2021.2.3,Win32,29.94011976,,,,,,,,,,,,,,,,,,,,,,,,,,,,,,,,,,,,,,,,,,,,,i,1,0.627,0,33,33,44,1,暴躁,i,,,,,,,,,,,,
,,,,,,,,,,,,,1,001,2024-08-22_16h02.00.149,IAT(Formal),2021.2.3,Win32,29.94011976,,,,,,,,,,,,,,,,,,,,,,,,,,,,,,,,,,,,,,,,,,,,,e,1,0.6319,0,34,34,66,1,他们,e,,,,,,,,,,,,
,,,,,,,,,,,,,1,001,2024-08-22_16h02.00.149,IAT(Formal),2021.2.3,Win32,29.94011976,,,,,,,,,,,,,,,,,,,,,,,,,,,,,,,,,,,,,,,,,,,,,,0,,0,35,35,27,1,热情,e,,,,,,,,,,,,
,,,,,,,,,,,,,1,001,2024-08-22_16h02.00.149,IAT(Formal),2021.2.3,Win32,29.94011976,,,,,,,,,,,,,,,,,,,,,,,,,,,,,,,,,,,,,,,,,,,,,,0,,0,36,36,1,1,我的,i,,,,,,,,,,,,
,,,,,,,,,,,,,1,001,2024-08-22_16h02.00.149,IAT(Formal),2021.2.3,Win32,29.94011976,,,,,,,,,,,,,,,,,,,,,,,,,,,,,,,,,,,,,,,,,,,,,,0,,0,37,37,8,1,他人,e,,,,,,,,,,,,
,,,,,,,,,,,,,1,001,2024-08-22_16h02.00.149,IAT(Formal),2021.2.3,Win32,29.94011976,,,,,,,,,,,,,,,,,,,,,,,,,,,,,,,,,,,,,,,,,,,,,i,1,0.7638,0,38,38,38,1,鲁莽,i,,,,,,,,,,,,
,,,,,,,,,,,,,1,001,2024-08-22_16h02.00.149,IAT(Formal),2021.2.3,Win32,29.94011976,,,,,,,,,,,,,,,,,,,,,,,,,,,,,,,,,,,,,,,,,,,,,,0,,0,39,39,36,1,自卑,i,,,,,,,,,,,,
,,,,,,,,,,,,,1,001,2024-08-22_16h02.00.149,IAT(Formal),2021.2.3,Win32,29.94011976,,,,,,,,,,,,,,,,,,,,,,,,,,,,,,,,,,,,,,,,,,,,,,0,,0,40,40,62,1,我们,i,,,,,,,,,,,,
,,,,,,,,,,,,,1,001,2024-08-22_16h02.00.149,IAT(Formal),2021.2.3,Win32,29.94011976,,,,,,,,,,,,,,,,,,,,,,,,,,,,,,,,,,,,,,,,,,,,,,0,,0,41,41,68,1,他人,e,,,,,,,,,,,,
,,,,,,,,,,,,,1,001,2024-08-22_16h02.00.149,IAT(Formal),2021.2.3,Win32,29.94011976,,,,,,,,,,,,,,,,,,,,,,,,,,,,,,,,,,,,,,,,,,,,,,0,,0,42,42,67,1,他的,e,,,,,,,,,,,,
,,,,,,,,,,,,,1,001,2024-08-22_16h02.00.149,IAT(Formal),2021.2.3,Win32,29.94011976,,,,,,,,,,,,,,,,,,,,,,,,,,,,,,,,,,,,,,,,,,,,,,0,,0,43,43,32,1,愚蠢,i,,,,,,,,,,,,
,,,,,,,,,,,,,1,001,2024-08-22_16h02.00.149,IAT(Formal),2021.2.3,Win32,29.94011976,,,,,,,,,,,,,,,,,,,,,,,,,,,,,,,,,,,,,,,,,,,,,,0,,0,44,44,42,1,凶狠,i,,,,,,,,,,,,
,,,,,,,,,,,,,1,001,2024-08-22_16h02.00.149,IAT(Formal),2021.2.3,Win32,29.94011976,,,,,,,,,,,,,,,,,,,,,,,,,,,,,,,,,,,,,,,,,,,,,i,1,0.0008,0,45,45,3,1,自己,i,,,,,,,,,,,,
,,,,,,,,,,,,,1,001,2024-08-22_16h02.00.149,IAT(Formal),2021.2.3,Win32,29.94011976,,,,,,,,,,,,,,,,,,,,,,,,,,,,,,,,,,,,,,,,,,,,,e,1,0.3732,0,46,46,57,1,他的,e,,,,,,,,,,,,
,,,,,,,,,,,,,1,001,2024-08-22_16h02.00.149,IAT(Formal),2021.2.3,Win32,29.94011976,,,,,,,,,,,,,,,,,,,,,,,,,,,,,,,,,,,,,,,,,,,,,e,0,0.2543,0,47,47,50,1,我,i,,,,,,,,,,,,
,,,,,,,,,,,,,1,001,2024-08-22_16h02.00.149,IAT(Formal),2021.2.3,Win32,29.94011976,,,,,,,,,,,,,,,,,,,,,,,,,,,,,,,,,,,,,,,,,,,,,e,1,0.5151,0,48,48,65,1,他,e,,,,,,,,,,,,
,,,,,,,,,,,,,1,001,2024-08-22_16h02.00.149,IAT(Formal),2021.2.3,Win32,29.94011976,,,,,,,,,,,,,,,,,,,,,,,,,,,,,,,,,,,,,,,,,,,,,i,0,0.3868,0,49,49,69,1,其他,e,,,,,,,,,,,,
,,,,,,,,,,,,,1,001,2024-08-22_16h02.00.149,IAT(Formal),2021.2.3,Win32,29.94011976,,,,,,,,,,,,,,,,,,,,,,,,,,,,,,,,,,,,,,,,,,,,,i,1,0.3922,0,50,50,30,1,卑鄙,i,,,,,,,,,,,,
,,,,,,,,,,,,,1,001,2024-08-22_16h02.00.149,IAT(Formal),2021.2.3,Win32,29.94011976,,,,,,,,,,,,,,,,,,,,,,,,,,,,,,,,,,,,,,,,,,,,,e,1,0.2669,0,51,51,29,1,诚恳,e,,,,,,,,,,,,
,,,,,,,,,,,,,1,001,2024-08-22_16h02.00.149,IAT(Formal),2021.2.3,Win32,29.94011976,,,,,,,,,,,,,,,,,,,,,,,,,,,,,,,,,,,,,,,,,,,,,,0,,0,52,52,43,1,自私,i,,,,,,,,,,,,
,,,,,,,,,,,,,1,001,2024-08-22_16h02.00.149,IAT(Formal),2021.2.3,Win32,29.94011976,,,,,,,,,,,,,,,,,,,,,,,,,,,,,,,,,,,,,,,,,,,,,,0,,0,53,53,51,1,我的,i,,,,,,,,,,,,
,,,,,,,,,,,,,1,001,2024-08-22_16h02.00.149,IAT(Formal),2021.2.3,Win32,29.94011976,,,,,,,,,,,,,,,,,,,,,,,,,,,,,,,,,,,,,,,,,,,,,,0,,0,54,54,28,1,活泼,e,,,,,,,,,,,,
,,,,,,,,,,,,,1,001,2024-08-22_16h02.00.149,IAT(Formal),2021.2.3,Win32,29.94011976,,,,,,,,,,,,,,,,,,,,,,,,,,,,,,,,,,,,,,,,,,,,,,0,,0,55,55,24,1,朴实,e,,,,,,,,,,,,
,,,,,,,,,,,,,1,001,2024-08-22_16h02.00.149,IAT(Formal),2021.2.3,Win32,29.94011976,,,,,,,,,,,,,,,,,,,,,,,,,,,,,,,,,,,,,,,,,,,,,,0,,0,56,56,31,1,虚伪,i,,,,,,,,,,,,
,,,,,,,,,,,,,1,001,2024-08-22_16h02.00.149,IAT(Formal),2021.2.3,Win32,29.94011976,,,,,,,,,,,,,,,,,,,,,,,,,,,,,,,,,,,,,,,,,,,,,e,0,0.2529,0,57,57,54,1,俺,i,,,,,,,,,,,,
,,,,,,,,,,,,,1,001,2024-08-22_16h02.00.149,IAT(Formal),2021.2.3,Win32,29.94011976,,,,,,,,,,,,,,,,,,,,,,,,,,,,,,,,,,,,,,,,,,,,,i,0,0.2643,0,58,58,12,1,聪明,e,,,,,,,,,,,,
,,,,,,,,,,,,,1,001,2024-08-22_16h02.00.149,IAT(Formal),2021.2.3,Win32,29.94011976,,,,,,,,,,,,,,,,,,,,,,,,,,,,,,,,,,,,,,,,,,,,,i,0,0.2635,0,59,59,10,1,优秀,e,,,,,,,,,,,,
,,,,,,,,,,,,,1,001,2024-08-22_16h02.00.149,IAT(Formal),2021.2.3,Win32,29.94011976,,,,,,,,,,,,,,,,,,,,,,,,,,,,,,,,,,,,,,,,,,,,,e,1,0.4015,0,60,60,20,1,认真,e,,,,,,,,,,,,
,,,,,,,,,,,,,1,001,2024-08-22_16h02.00.149,IAT(Formal),2021.2.3,Win32,29.94011976,,,,,,,,,,,,,,,,,,,,,,,,,,,,,,,,,,,,,,,,,,,,,,0,,0,61,61,25,1,细腻,e,,,,,,,,,,,,
,,,,,,,,,,,,,1,001,2024-08-22_16h02.00.149,IAT(Formal),2021.2.3,Win32,29.94011976,,,,,,,,,,,,,,,,,,,,,,,,,,,,,,,,,,,,,,,,,,,,,,0,,0,62,62,0,1,我,i,,,,,,,,,,,,
,,,,,,,,,,,,,1,001,2024-08-22_16h02.00.149,IAT(Formal),2021.2.3,Win32,29.94011976,,,,,,,,,,,,,,,,,,,,,,,,,,,,,,,,,,,,,,,,,,,,,,0,,0,63,63,47,1,固执,i,,,,,,,,,,,,
,,,,,,,,,,,,,1,001,2024-08-22_16h02.00.149,IAT(Formal),2021.2.3,Win32,29.94011976,,,,,,,,,,,,,,,,,,,,,,,,,,,,,,,,,,,,,,,,,,,,,,0,,0,64,64,5,1,他,e,,,,,,,,,,,,
,,,,,,,,,,,,,1,001,2024-08-22_16h02.00.149,IAT(Formal),2021.2.3,Win32,29.94011976,,,,,,,,,,,,,,,,,,,,,,,,,,,,,,,,,,,,,,,,,,,,,,0,,0,65,65,7,1,他的,e,,,,,,,,,,,,
,,,,,,,,,,,,,1,001,2024-08-22_16h02.00.149,IAT(Formal),2021.2.3,Win32,29.94011976,,,,,,,,,,,,,,,,,,,,,,,,,,,,,,,,,,,,,,,,,,,,,,0,,0,66,66,76,1,他们,e,,,,,,,,,,,,
,,,,,,,,,,,,,1,001,2024-08-22_16h02.00.149,IAT(Formal),2021.2.3,Win32,29.94011976,,,,,,,,,,,,,,,,,,,,,,,,,,,,,,,,,,,,,,,,,,,,,,0,,0,67,67,60,1,我,i,,,,,,,,,,,,
,,,,,,,,,,,,,1,001,2024-08-22_16h02.00.149,IAT(Formal),2021.2.3,Win32,29.94011976,,,,,,,,,,,,,,,,,,,,,,,,,,,,,,,,,,,,,,,,,,,,,,0,,0,68,68,78,1,他人,e,,,,,,,,,,,,
,,,,,,,,,,,,,1,001,2024-08-22_16h02.00.149,IAT(Formal),2021.2.3,Win32,29.94011976,,,,,,,,,,,,,,,,,,,,,,,,,,,,,,,,,,,,,,,,,,,,,,0,,0,69,69,4,1,俺,i,,,,,,,,,,,,
,,,,,,,,,,,,,1,001,2024-08-22_16h02.00.149,IAT(Formal),2021.2.3,Win32,29.94011976,,,,,,,,,,,,,,,,,,,,,,,,,,,,,,,,,,,,,,,,,,,,,,0,,0,70,70,18,1,勤奋,e,,,,,,,,,,,,
,,,,,,,,,,,,,1,001,2024-08-22_16h02.00.149,IAT(Formal),2021.2.3,Win32,29.94011976,,,,,,,,,,,,,,,,,,,,,,,,,,,,,,,,,,,,,,,,,,,,,,0,,0,71,71,33,1,刻薄,i,,,,,,,,,,,,
,,,,,,,,,,,,,1,001,2024-08-22_16h02.00.149,IAT(Formal),2021.2.3,Win32,29.94011976,,,,,,,,,,,,,,,,,,,,,,,,,,,,,,,,,,,,,,,,,,,,,,0,,0,72,72,70,1,我,i,,,,,,,,,,,,
,,,,,,,,,,,,,1,001,2024-08-22_16h02.00.149,IAT(Formal),2021.2.3,Win32,29.94011976,,,,,,,,,,,,,,,,,,,,,,,,,,,,,,,,,,,,,,,,,,,,,i,1,0.0015,0,73,73,64,1,俺,i,,,,,,,,,,,,
,,,,,,,,,,,,,1,001,2024-08-22_16h02.00.149,IAT(Formal),2021.2.3,Win32,29.94011976,,,,,,,,,,,,,,,,,,,,,,,,,,,,,,,,,,,,,,,,,,,,,e,1,0.3715,0,74,74,26,1,冷静,e,,,,,,,,,,,,
,,,,,,,,,,,,,1,001,2024-08-22_16h02.00.149,IAT(Formal),2021.2.3,Win32,29.94011976,,,,,,,,,,,,,,,,,,,,,,,,,,,,,,,,,,,,,,,,,,,,,e,1,0.5245,0,75,75,16,1,正直,e,,,,,,,,,,,,
,,,,,,,,,,,,,1,001,2024-08-22_16h02.00.149,IAT(Formal),2021.2.3,Win32,29.94011976,,,,,,,,,,,,,,,,,,,,,,,,,,,,,,,,,,,,,,,,,,,,,e,0,0.6163,0,76,76,2,1,我们,i,,,,,,,,,,,,
,,,,,,,,,,,,,1,001,2024-08-22_16h02.00.149,IAT(Formal),2021.2.3,Win32,29.94011976,,,,,,,,,,,,,,,,,,,,,,,,,,,,,,,,,,,,,,,,,,,,,e,1,0.3823,0,77,77,14,1,乐观,e,,,,,,,,,,,,
,,,,,,,,,,,,,1,001,2024-08-22_16h02.00.149,IAT(Formal),2021.2.3,Win32,29.94011976,,,,,,,,,,,,,,,,,,,,,,,,,,,,,,,,,,,,,,,,,,,,,i,0,0.26,0,78,78,6,1,他们,e,,,,,,,,,,,,
,,,,,,,,,,,,,1,001,2024-08-22_16h02.00.149,IAT(Formal),2021.2.3,Win32,29.94011976,,,,,,,,,,,,,,,,,,,,,,,,,,,,,,,,,,,,,,,,,,,,,i,1,0.5181,0,79,79,72,1,我们,i,,,,,,,,,,,,
,,,,,,,,,,,,,1,001,2024-08-22_16h02.00.149,IAT(Formal),2021.2.3,Win32,29.94011976,,,,,,,,,,,,,,,,,,,,,,,,,,,,,,,,,,,,,,,,,,,,,,,,,,,,,我,i,space,6.5883,i,1,0.7762,0,0,0,70,1,,
,,,,,,,,,,,,,1,001,2024-08-22_16h02.00.149,IAT(Formal),2021.2.3,Win32,29.94011976,,,,,,,,,,,,,,,,,,,,,,,,,,,,,,,,,,,,,,,,,,,,,,,,,,,,,朴实,e,,,e,1,0.405,0,1,1,24,1,,
,,,,,,,,,,,,,1,001,2024-08-22_16h02.00.149,IAT(Formal),2021.2.3,Win32,29.94011976,,,,,,,,,,,,,,,,,,,,,,,,,,,,,,,,,,,,,,,,,,,,,,,,,,,,,其他,e,,,i,0,0.6474,0,2,2,69,1,,
,,,,,,,,,,,,,1,001,2024-08-22_16h02.00.149,IAT(Formal),2021.2.3,Win32,29.94011976,,,,,,,,,,,,,,,,,,,,,,,,,,,,,,,,,,,,,,,,,,,,,,,,,,,,,正直,e,,,i,0,0.5202,0,3,3,16,1,,
,,,,,,,,,,,,,1,001,2024-08-22_16h02.00.149,IAT(Formal),2021.2.3,Win32,29.94011976,,,,,,,,,,,,,,,,,,,,,,,,,,,,,,,,,,,,,,,,,,,,,,,,,,,,,其他,e,,,e,1,0.3812,0,4,4,79,1,,
,,,,,,,,,,,,,1,001,2024-08-22_16h02.00.149,IAT(Formal),2021.2.3,Win32,29.94011976,,,,,,,,,,,,,,,,,,,,,,,,,,,,,,,,,,,,,,,,,,,,,,,,,,,,,我,i,,,e,0,0.3807,0,5,5,50,1,,
,,,,,,,,,,,,,1,001,2024-08-22_16h02.00.149,IAT(Formal),2021.2.3,Win32,29.94011976,,,,,,,,,,,,,,,,,,,,,,,,,,,,,,,,,,,,,,,,,,,,,,,,,,,,,他人,e,,,e,1,0.5133,0,6,6,8,1,,
,,,,,,,,,,,,,1,001,2024-08-22_16h02.00.149,IAT(Formal),2021.2.3,Win32,29.94011976,,,,,,,,,,,,,,,,,,,,,,,,,,,,,,,,,,,,,,,,,,,,,,,,,,,,,俺,i,,,i,1,0.3961,0,7,7,74,1,,
,,,,,,,,,,,,,1,001,2024-08-22_16h02.00.149,IAT(Formal),2021.2.3,Win32,29.94011976,,,,,,,,,,,,,,,,,,,,,,,,,,,,,,,,,,,,,,,,,,,,,,,,,,,,,他,e,,,,0,,0,8,8,55,1,,
,,,,,,,,,,,,,1,001,2024-08-22_16h02.00.149,IAT(Formal),2021.2.3,Win32,29.94011976,,,,,,,,,,,,,,,,,,,,,,,,,,,,,,,,,,,,,,,,,,,,,,,,,,,,,热情,e,,,,0,,0,9,9,27,1,,
,,,,,,,,,,,,,1,001,2024-08-22_16h02.00.149,IAT(Formal),2021.2.3,Win32,29.94011976,,,,,,,,,,,,,,,,,,,,,,,,,,,,,,,,,,,,,,,,,,,,,,,,,,,,,我,i,,,,0,,0,10,10,0,1,,
,,,,,,,,,,,,,1,001,2024-08-22_16h02.00.149,IAT(Formal),2021.2.3,Win32,29.94011976,,,,,,,,,,,,,,,,,,,,,,,,,,,,,,,,,,,,,,,,,,,,,,,,,,,,,消极,i,,,,0,,0,11,11,35,1,,
,,,,,,,,,,,,,1,001,2024-08-22_16h02.00.149,IAT(Formal),2021.2.3,Win32,29.94011976,,,,,,,,,,,,,,,,,,,,,,,,,,,,,,,,,,,,,,,,,,,,,,,,,,,,,冷静,e,,,i,0,1.1811,0,12,12,26,1,,
,,,,,,,,,,,,,1,001,2024-08-22_16h02.00.149,IAT(Formal),2021.2.3,Win32,29.94011976,,,,,,,,,,,,,,,,,,,,,,,,,,,,,,,,,,,,,,,,,,,,,,,,,,,,,我们,i,,,e,0,0.425,0,13,13,52,1,,
,,,,,,,,,,,,,1,001,2024-08-22_16h02.00.149,IAT(Formal),2021.2.3,Win32,29.94011976,,,,,,,,,,,,,,,,,,,,,,,,,,,,,,,,,,,,,,,,,,,,,,,,,,,,,机智,e,,,i,0,0.0007,0,14,14,19,1,,
,,,,,,,,,,,,,1,001,2024-08-22_16h02.00.149,IAT(Formal),2021.2.3,Win32,29.94011976,,,,,,,,,,,,,,,,,,,,,,,,,,,,,,,,,,,,,,,,,,,,,,,,,,,,,他人,e,,,,0,,0,15,15,58,1,,
,,,,,,,,,,,,,1,001,2024-08-22_16h02.00.149,IAT(Formal),2021.2.3,Win32,29.94011976,,,,,,,,,,,,,,,,,,,,,,,,,,,,,,,,,,,,,,,,,,,,,,,,,,,,,他,e,,,,0,,0,16,16,5,1,,
,,,,,,,,,,,,,1,001,2024-08-22_16h02.00.149,IAT(Formal),2021.2.3,Win32,29.94011976,,,,,,,,,,,,,,,,,,,,,,,,,,,,,,,,,,,,,,,,,,,,,,,,,,,,,我的,i,,,i,1,0.3927,0,17,17,51,1,,
,,,,,,,,,,,,,1,001,2024-08-22_16h02.00.149,IAT(Formal),2021.2.3,Win32,29.94011976,,,,,,,,,,,,,,,,,,,,,,,,,,,,,,,,,,,,,,,,,,,,,,,,,,,,,优秀,e,,,e,1,0.3673,0,18,18,10,1,,
,,,,,,,,,,,,,1,001,2024-08-22_16h02.00.149,IAT(Formal),2021.2.3,Win32,29.94011976,,,,,,,,,,,,,,,,,,,,,,,,,,,,,,,,,,,,,,,,,,,,,,,,,,,,,自己,i,,,i,1,0.0008,0,19,19,53,1,,
,,,,,,,,,,,,,1,001,2024-08-22_16h02.00.149,IAT(Formal),2021.2.3,Win32,29.94011976,,,,,,,,,,,,,,,,,,,,,,,,,,,,,,,,,,,,,,,,,,,,,,,,,,,,,自己,i,,,e,0,0.6531,0,20,20,63,1,,
,,,,,,,,,,,,,1,001,2024-08-22_16h02.00.149,IAT(Formal),2021.2.3,Win32,29.94011976,,,,,,,,,,,,,,,,,,,,,,,,,,,,,,,,,,,,,,,,,,,,,,,,,,,,,固执,i,,,i,1,1.0232,0,21,21,47,1,,
,,,,,,,,,,,,,1,001,2024-08-22_16h02.00.149,IAT(Formal),2021.2.3,Win32,29.94011976,,,,,,,,,,,,,,,,,,,,,,,,,,,,,,,,,,,,,,,,,,,,,,,,,,,,,下贱,i,,,,0,,0,22,22,49,1,,
,,,,,,,,,,,,,1,001,2024-08-22_16h02.00.149,IAT(Formal),2021.2.3,Win32,29.94011976,,,,,,,,,,,,,,,,,,,,,,,,,,,,,,,,,,,,,,,,,,,,,,,,,,,,,诚恳,e,,,i,0,0.8911,0,23,23,29,1,,
,,,,,,,,,,,,,1,001,2024-08-22_16h02.00.149,IAT(Formal),2021.2.3,Win32,29.94011976,,,,,,,,,,,,,,,,,,,,,,,,,,,,,,,,,,,,,,,,,,,,,,,,,,,,,鲁莽,i,,,i,1,0.0015,0,24,24,38,1,,
,,,,,,,,,,,,,1,001,2024-08-22_16h02.00.149,IAT(Formal),2021.2.3,Win32,29.94011976,,,,,,,,,,,,,,,,,,,,,,,,,,,,,,,,,,,,,,,,,,,,,,,,,,,,,细腻,e,,,e,1,0.6446,0,25,25,25,1,,
,,,,,,,,,,,,,1,001,2024-08-22_16h02.00.149,IAT(Formal),2021.2.3,Win32,29.94011976,,,,,,,,,,,,,,,,,,,,,,,,,,,,,,,,,,,,,,,,,,,,,,,,,,,,,聪明,e,,,i,0,0.0014,0,26,26,12,1,,
,,,,,,,,,,,,,1,001,2024-08-22_16h02.00.149,IAT(Formal),2021.2.3,Win32,29.94011976,,,,,,,,,,,,,,,,,,,,,,,,,,,,,,,,,,,,,,,,,,,,,,,,,,,,,杰出,e,,,e,1,1.1545,0,27,27,13,1,,
,,,,,,,,,,,,,1,001,2024-08-22_16h02.00.149,IAT(Formal),2021.2.3,Win32,29.94011976,,,,,,,,,,,,,,,,,,,,,,,,,,,,,,,,,,,,,,,,,,,,,,,,,,,,,我,i,,,,0,,0,28,28,60,1,,
,,,,,,,,,,,,,1,001,2024-08-22_16h02.00.149,IAT(Formal),2021.2.3,Win32,29.94011976,,,,,,,,,,,,,,,,,,,,,,,,,,,,,,,,,,,,,,,,,,,,,,,,,,,,,凶狠,i,,,,0,,0,29,29,42,1,,
,,,,,,,,,,,,,1,001,2024-08-22_16h02.00.149,IAT(Formal),2021.2.3,Win32,29.94011976,,,,,,,,,,,,,,,,,,,,,,,,,,,,,,,,,,,,,,,,,,,,,,,,,,,,,活泼,e,,,e,1,0.2552,0,30,30,28,1,,
,,,,,,,,,,,,,1,001,2024-08-22_16h02.00.149,IAT(Formal),2021.2.3,Win32,29.94011976,,,,,,,,,,,,,,,,,,,,,,,,,,,,,,,,,,,,,,,,,,,,,,,,,,,,,崇高,e,,,e,1,0.3873,0,31,31,11,1,,
,,,,,,,,,,,,,1,001,2024-08-22_16h02.00.149,IAT(Formal),2021.2.3,Win32,29.94011976,,,,,,,,,,,,,,,,,,,,,,,,,,,,,,,,,,,,,,,,,,,,,,,,,,,,,我的,i,,,i,1,0.2464,0,32,32,1,1,,
,,,,,,,,,,,,,1,001,2024-08-22_16h02.00.149,IAT(Formal),2021.2.3,Win32,29.94011976,,,,,,,,,,,,,,,,,,,,,,,,,,,,,,,,,,,,,,,,,,,,,,,,,,,,,乐观,e,,,i,0,0.2345,0,33,33,14,1,,
,,,,,,,,,,,,,1,001,2024-08-22_16h02.00.149,IAT(Formal),2021.2.3,Win32,29.94011976,,,,,,,,,,,,,,,,,,,,,,,,,,,,,,,,,,,,,,,,,,,,,,,,,,,,,他的,e,,,e,1,0.0008,0,34,34,7,1,,
,,,,,,,,,,,,,1,001,2024-08-22_16h02.00.149,IAT(Formal),2021.2.3,Win32,29.94011976,,,,,,,,,,,,,,,,,,,,,,,,,,,,,,,,,,,,,,,,,,,,,,,,,,,,,傲慢,i,,,i,1,1.1211,0,35,35,37,1,,
,,,,,,,,,,,,,1,001,2024-08-22_16h02.00.149,IAT(Formal),2021.2.3,Win32,29.94011976,,,,,,,,,,,,,,,,,,,,,,,,,,,,,,,,,,,,,,,,,,,,,,,,,,,,,诚实,e,,,,0,,0,36,36,15,1,,
,,,,,,,,,,,,,1,001,2024-08-22_16h02.00.149,IAT(Formal),2021.2.3,Win32,29.94011976,,,,,,,,,,,,,,,,,,,,,,,,,,,,,,,,,,,,,,,,,,,,,,,,,,,,,他们,e,,,,0,,0,37,37,56,1,,
,,,,,,,,,,,,,1,001,2024-08-22_16h02.00.149,IAT(Formal),2021.2.3,Win32,29.94011976,,,,,,,,,,,,,,,,,,,,,,,,,,,,,,,,,,,,,,,,,,,,,,,,,,,,,自己,i,,,,0,,0,38,38,73,1,,
,,,,,,,,,,,,,1,001,2024-08-22_16h02.00.149,IAT(Formal),2021.2.3,Win32,29.94011976,,,,,,,,,,,,,,,,,,,,,,,,,,,,,,,,,,,,,,,,,,,,,,,,,,,,,他人,e,,,,0,,0,39,39,68,1,,
,,,,,,,,,,,,,1,001,2024-08-22_16h02.00.149,IAT(Formal),2021.2.3,Win32,29.94011976,,,,,,,,,,,,,,,,,,,,,,,,,,,,,,,,,,,,,,,,,,,,,,,,,,,,,我们,i,,,,0,,0,40,40,72,1,,
,,,,,,,,,,,,,1,001,2024-08-22_16h02.00.149,IAT(Formal),2021.2.3,Win32,29.94011976,,,,,,,,,,,,,,,,,,,,,,,,,,,,,,,,,,,,,,,,,,,,,,,,,,,,,我的,i,,,,0,,0,41,41,71,1,,
,,,,,,,,,,,,,1,001,2024-08-22_16h02.00.149,IAT(Formal),2021.2.3,Win32,29.94011976,,,,,,,,,,,,,,,,,,,,,,,,,,,,,,,,,,,,,,,,,,,,,,,,,,,,,他人,e,,,,0,,0,42,42,78,1,,
,,,,,,,,,,,,,1,001,2024-08-22_16h02.00.149,IAT(Formal),2021.2.3,Win32,29.94011976,,,,,,,,,,,,,,,,,,,,,,,,,,,,,,,,,,,,,,,,,,,,,,,,,,,,,其他,e,,,,0,,0,43,43,9,1,,
,,,,,,,,,,,,,1,001,2024-08-22_16h02.00.149,IAT(Formal),2021.2.3,Win32,29.94011976,,,,,,,,,,,,,,,,,,,,,,,,,,,,,,,,,,,,,,,,,,,,,,,,,,,,,愚蠢,i,,,,0,,0,44,44,32,1,,
,,,,,,,,,,,,,1,001,2024-08-22_16h02.00.149,IAT(Formal),2021.2.3,Win32,29.94011976,,,,,,,,,,,,,,,,,,,,,,,,,,,,,,,,,,,,,,,,,,,,,,,,,,,,,虚伪,i,,,,0,,0,45,45,31,1,,
,,,,,,,,,,,,,1,001,2024-08-22_16h02.00.149,IAT(Formal),2021.2.3,Win32,29.94011976,,,,,,,,,,,,,,,,,,,,,,,,,,,,,,,,,,,,,,,,,,,,,,,,,,,,,他的,e,,,,0,,0,46,46,67,1,,
,,,,,,,,,,,,,1,001,2024-08-22_16h02.00.149,IAT(Formal),2021.2.3,Win32,29.94011976,,,,,,,,,,,,,,,,,,,,,,,,,,,,,,,,,,,,,,,,,,,,,,,,,,,,,俺,i,,,,0,,0,47,47,64,1,,
,,,,,,,,,,,,,1,001,2024-08-22_16h02.00.149,IAT(Formal),2021.2.3,Win32,29.94011976,,,,,,,,,,,,,,,,,,,,,,,,,,,,,,,,,,,,,,,,,,,,,,,,,,,,,野蛮,i,,,,0,,0,48,48,46,1,,
,,,,,,,,,,,,,1,001,2024-08-22_16h02.00.149,IAT(Formal),2021.2.3,Win32,29.94011976,,,,,,,,,,,,,,,,,,,,,,,,,,,,,,,,,,,,,,,,,,,,,,,,,,,,,无私,e,,,,0,,0,49,49,22,1,,
,,,,,,,,,,,,,1,001,2024-08-22_16h02.00.149,IAT(Formal),2021.2.3,Win32,29.94011976,,,,,,,,,,,,,,,,,,,,,,,,,,,,,,,,,,,,,,,,,,,,,,,,,,,,,他,e,,,,0,,0,50,50,75,1,,
,,,,,,,,,,,,,1,001,2024-08-22_16h02.00.149,IAT(Formal),2021.2.3,Win32,29.94011976,,,,,,,,,,,,,,,,,,,,,,,,,,,,,,,,,,,,,,,,,,,,,,,,,,,,,勤奋,e,,,,0,,0,51,51,18,1,,
,,,,,,,,,,,,,1,001,2024-08-22_16h02.00.149,IAT(Formal),2021.2.3,Win32,29.94011976,,,,,,,,,,,,,,,,,,,,,,,,,,,,,,,,,,,,,,,,,,,,,,,,,,,,,自私,i,,,,0,,0,52,52,43,1,,
,,,,,,,,,,,,,1,001,2024-08-22_16h02.00.149,IAT(Formal),2021.2.3,Win32,29.94011976,,,,,,,,,,,,,,,,,,,,,,,,,,,,,,,,,,,,,,,,,,,,,,,,,,,,,轻率,i,,,,0,,0,53,53,48,1,,
,,,,,,,,,,,,,1,001,2024-08-22_16h02.00.149,IAT(Formal),2021.2.3,Win32,29.94011976,,,,,,,,,,,,,,,,,,,,,,,,,,,,,,,,,,,,,,,,,,,,,,,,,,,,,稳重,e,,,,0,,0,54,54,21,1,,
,,,,,,,,,,,,,1,001,2024-08-22_16h02.00.149,IAT(Formal),2021.2.3,Win32,29.94011976,,,,,,,,,,,,,,,,,,,,,,,,,,,,,,,,,,,,,,,,,,,,,,,,,,,,,他,e,,,i,0,0.1263,0,55,55,65,1,,
,,,,,,,,,,,,,1,001,2024-08-22_16h02.00.149,IAT(Formal),2021.2.3,Win32,29.94011976,,,,,,,,,,,,,,,,,,,,,,,,,,,,,,,,,,,,,,,,,,,,,,,,,,,,,猖狂,i,,,e,0,0.1299,0,56,56,45,1,,
,,,,,,,,,,,,,1,001,2024-08-22_16h02.00.149,IAT(Formal),2021.2.3,Win32,29.94011976,,,,,,,,,,,,,,,,,,,,,,,,,,,,,,,,,,,,,,,,,,,,,,,,,,,,,自己,i,,,e,0,0.1294,0,57,57,3,1,,
,,,,,,,,,,,,,1,001,2024-08-22_16h02.00.149,IAT(Formal),2021.2.3,Win32,29.94011976,,,,,,,,,,,,,,,,,,,,,,,,,,,,,,,,,,,,,,,,,,,,,,,,,,,,,自卑,i,,,i,1,0.2368,0,58,58,36,1,,
,,,,,,,,,,,,,1,001,2024-08-22_16h02.00.149,IAT(Formal),2021.2.3,Win32,29.94011976,,,,,,,,,,,,,,,,,,,,,,,,,,,,,,,,,,,,,,,,,,,,,,,,,,,,,卑鄙,i,,,i,1,0.3757,0,59,59,30,1,,
,,,,,,,,,,,,,1,001,2024-08-22_16h02.00.149,IAT(Formal),2021.2.3,Win32,29.94011976,,,,,,,,,,,,,,,,,,,,,,,,,,,,,,,,,,,,,,,,,,,,,,,,,,,,,他们,e,,,i,0,0.5048,0,60,60,6,1,,
,,,,,,,,,,,,,1,001,2024-08-22_16h02.00.149,IAT(Formal),2021.2.3,Win32,29.94011976,,,,,,,,,,,,,,,,,,,,,,,,,,,,,,,,,,,,,,,,,,,,,,,,,,,,,冒失,i,,,i,1,0.7652,0,61,61,39,1,,
,,,,,,,,,,,,,1,001,2024-08-22_16h02.00.149,IAT(Formal),2021.2.3,Win32,29.94011976,,,,,,,,,,,,,,,,,,,,,,,,,,,,,,,,,,,,,,,,,,,,,,,,,,,,,他的,e,,,i,0,0.7937,0,62,62,57,1,,
,,,,,,,,,,,,,1,001,2024-08-22_16h02.00.149,IAT(Formal),2021.2.3,Win32,29.94011976,,,,,,,,,,,,,,,,,,,,,,,,,,,,,,,,,,,,,,,,,,,,,,,,,,,,,我的,i,,,e,0,0.6361,0,63,63,61,1,,
,,,,,,,,,,,,,1,001,2024-08-22_16h02.00.149,IAT(Formal),2021.2.3,Win32,29.94011976,,,,,,,,,,,,,,,,,,,,,,,,,,,,,,,,,,,,,,,,,,,,,,,,,,,,,刻薄,i,,,i,1,0.6455,0,64,64,33,1,,
,,,,,,,,,,,,,1,001,2024-08-22_16h02.00.149,IAT(Formal),2021.2.3,Win32,29.94011976,,,,,,,,,,,,,,,,,,,,,,,,,,,,,,,,,,,,,,,,,,,,,,,,,,,,,散漫,i,,,i,1,0.637,0,65,65,41,1,,
,,,,,,,,,,,,,1,001,2024-08-22_16h02.00.149,IAT(Formal),2021.2.3,Win32,29.94011976,,,,,,,,,,,,,,,,,,,,,,,,,,,,,,,,,,,,,,,,,,,,,,,,,,,,,执拗,i,,,i,1,0.6411,0,66,66,40,1,,
,,,,,,,,,,,,,1,001,2024-08-22_16h02.00.149,IAT(Formal),2021.2.3,Win32,29.94011976,,,,,,,,,,,,,,,,,,,,,,,,,,,,,,,,,,,,,,,,,,,,,,,,,,,,,他的,e,,,i,0,0.7566,0,67,67,77,1,,
,,,,,,,,,,,,,1,001,2024-08-22_16h02.00.149,IAT(Formal),2021.2.3,Win32,29.94011976,,,,,,,,,,,,,,,,,,,,,,,,,,,,,,,,,,,,,,,,,,,,,,,,,,,,,俺,i,,,i,1,0.7517,0,68,68,54,1,,
,,,,,,,,,,,,,1,001,2024-08-22_16h02.00.149,IAT(Formal),2021.2.3,Win32,29.94011976,,,,,,,,,,,,,,,,,,,,,,,,,,,,,,,,,,,,,,,,,,,,,,,,,,,,,他们,e,,,e,1,0.9053,0,69,69,76,1,,
,,,,,,,,,,,,,1,001,2024-08-22_16h02.00.149,IAT(Formal),2021.2.3,Win32,29.94011976,,,,,,,,,,,,,,,,,,,,,,,,,,,,,,,,,,,,,,,,,,,,,,,,,,,,,我们,i,,,i,1,0.6218,0,70,70,62,1,,
,,,,,,,,,,,,,1,001,2024-08-22_16h02.00.149,IAT(Formal),2021.2.3,Win32,29.94011976,,,,,,,,,,,,,,,,,,,,,,,,,,,,,,,,,,,,,,,,,,,,,,,,,,,,,暴躁,i,,,i,1,0.6447,0,71,71,44,1,,
,,,,,,,,,,,,,1,001,2024-08-22_16h02.00.149,IAT(Formal),2021.2.3,Win32,29.94011976,,,,,,,,,,,,,,,,,,,,,,,,,,,,,,,,,,,,,,,,,,,,,,,,,,,,,他们,e,,,e,1,0.7625,0,72,72,66,1,,
,,,,,,,,,,,,,1,001,2024-08-22_16h02.00.149,IAT(Formal),2021.2.3,Win32,29.94011976,,,,,,,,,,,,,,,,,,,,,,,,,,,,,,,,,,,,,,,,,,,,,,,,,,,,,其他,e,,,i,0,0.5203,0,73,73,59,1,,
,,,,,,,,,,,,,1,001,2024-08-22_16h02.00.149,IAT(Formal),2021.2.3,Win32,29.94011976,,,,,,,,,,,,,,,,,,,,,,,,,,,,,,,,,,,,,,,,,,,,,,,,,,,,,俺,i,,,i,1,0.8802,0,74,74,4,1,,
,,,,,,,,,,,,,1,001,2024-08-22_16h02.00.149,IAT(Formal),2021.2.3,Win32,29.94011976,,,,,,,,,,,,,,,,,,,,,,,,,,,,,,,,,,,,,,,,,,,,,,,,,,,,,公正,e,,,e,1,1.0313,0,75,75,23,1,,
,,,,,,,,,,,,,1,001,2024-08-22_16h02.00.149,IAT(Formal),2021.2.3,Win32,29.94011976,,,,,,,,,,,,,,,,,,,,,,,,,,,,,,,,,,,,,,,,,,,,,,,,,,,,,我们,i,,,,0,,0,76,76,2,1,,
,,,,,,,,,,,,,1,001,2024-08-22_16h02.00.149,IAT(Formal),2021.2.3,Win32,29.94011976,,,,,,,,,,,,,,,,,,,,,,,,,,,,,,,,,,,,,,,,,,,,,,,,,,,,,认真,e,,,i,0,0.392,0,77,77,20,1,,
,,,,,,,,,,,,,1,001,2024-08-22_16h02.00.149,IAT(Formal),2021.2.3,Win32,29.94011976,,,,,,,,,,,,,,,,,,,,,,,,,,,,,,,,,,,,,,,,,,,,,,,,,,,,,勇敢,e,,,i,0,0.0009,0,78,78,17,1,,
,,,,,,,,,,,,,1,001,2024-08-22_16h02.00.149,IAT(Formal),2021.2.3,Win32,29.94011976,,,,,,,,,,,,,,,,,,,,,,,,,,,,,,,,,,,,,,,,,,,,,,,,,,,,,悲观,i,,,i,1,0.3814,0,79,79,34,1,,
,,,,,,,,,,,,,1,001,2024-08-22_16h02.00.149,IAT(Formal),2021.2.3,Win32,29.94011976,,,,,,,,,,,,,,,,,,,,,,,,,,,,,,,,,,,,,,,,,,,,,,,,,,,,,俺,i,,,i,1,0.783,1,0,80,64,1,,
,,,,,,,,,,,,,1,001,2024-08-22_16h02.00.149,IAT(Formal),2021.2.3,Win32,29.94011976,,,,,,,,,,,,,,,,,,,,,,,,,,,,,,,,,,,,,,,,,,,,,,,,,,,,,勤奋,e,,,i,0,0.9022,1,1,81,18,1,,
,,,,,,,,,,,,,1,001,2024-08-22_16h02.00.149,IAT(Formal),2021.2.3,Win32,29.94011976,,,,,,,,,,,,,,,,,,,,,,,,,,,,,,,,,,,,,,,,,,,,,,,,,,,,,自己,i,,,i,1,0.5069,1,2,82,63,1,,
,,,,,,,,,,,,,1,001,2024-08-22_16h02.00.149,IAT(Formal),2021.2.3,Win32,29.94011976,,,,,,,,,,,,,,,,,,,,,,,,,,,,,,,,,,,,,,,,,,,,,,,,,,,,,诚实,e,,,i,0,0.9027,1,3,83,15,1,,
,,,,,,,,,,,,,1,001,2024-08-22_16h02.00.149,IAT(Formal),2021.2.3,Win32,29.94011976,,,,,,,,,,,,,,,,,,,,,,,,,,,,,,,,,,,,,,,,,,,,,,,,,,,,,野蛮,i,,,i,1,0.5229,1,4,84,46,1,,
,,,,,,,,,,,,,1,001,2024-08-22_16h02.00.149,IAT(Formal),2021.2.3,Win32,29.94011976,,,,,,,,,,,,,,,,,,,,,,,,,,,,,,,,,,,,,,,,,,,,,,,,,,,,,我的,i,,,e,0,0.3759,1,5,85,51,1,,
,,,,,,,,,,,,,1,001,2024-08-22_16h02.00.149,IAT(Formal),2021.2.3,Win32,29.94011976,,,,,,,,,,,,,,,,,,,,,,,,,,,,,,,,,,,,,,,,,,,,,,,,,,,,,刻薄,i,,,e,0,0.5161,1,6,86,33,1,,
,,,,,,,,,,,,,1,001,2024-08-22_16h02.00.149,IAT(Formal),2021.2.3,Win32,29.94011976,,,,,,,,,,,,,,,,,,,,,,,,,,,,,,,,,,,,,,,,,,,,,,,,,,,,,公正,e,,,i,0,0.3852,1,7,87,23,1,,
,,,,,,,,,,,,,1,001,2024-08-22_16h02.00.149,IAT(Formal),2021.2.3,Win32,29.94011976,,,,,,,,,,,,,,,,,,,,,,,,,,,,,,,,,,,,,,,,,,,,,,,,,,,,,轻率,i,,,i,1,0.3823,1,8,88,48,1,,
,,,,,,,,,,,,,1,001,2024-08-22_16h02.00.149,IAT(Formal),2021.2.3,Win32,29.94011976,,,,,,,,,,,,,,,,,,,,,,,,,,,,,,,,,,,,,,,,,,,,,,,,,,,,,固执,i,,,i,1,0.7749,1,9,89,47,1,,
,,,,,,,,,,,,,1,001,2024-08-22_16h02.00.149,IAT(Formal),2021.2.3,Win32,29.94011976,,,,,,,,,,,,,,,,,,,,,,,,,,,,,,,,,,,,,,,,,,,,,,,,,,,,,其他,e,,,i,0,0.5168,1,10,90,69,1,,
,,,,,,,,,,,,,1,001,2024-08-22_16h02.00.149,IAT(Formal),2021.2.3,Win32,29.94011976,,,,,,,,,,,,,,,,,,,,,,,,,,,,,,,,,,,,,,,,,,,,,,,,,,,,,优秀,e,,,,0,,1,11,91,10,1,,
,,,,,,,,,,,,,1,001,2024-08-22_16h02.00.149,IAT(Formal),2021.2.3,Win32,29.94011976,,,,,,,,,,,,,,,,,,,,,,,,,,,,,,,,,,,,,,,,,,,,,,,,,,,,,自己,i,,,,0,,1,12,92,3,1,,
,,,,,,,,,,,,,1,001,2024-08-22_16h02.00.149,IAT(Formal),2021.2.3,Win32,29.94011976,,,,,,,,,,,,,,,,,,,,,,,,,,,,,,,,,,,,,,,,,,,,,,,,,,,,,他,e,,,,0,,1,13,93,75,1,,
,,,,,,,,,,,,,1,001,2024-08-22_16h02.00.149,IAT(Formal),2021.2.3,Win32,29.94011976,,,,,,,,,,,,,,,,,,,,,,,,,,,,,,,,,,,,,,,,,,,,,,,,,,,,,诚恳,e,,,,0,,1,14,94,29,1,,
,,,,,,,,,,,,,1,001,2024-08-22_16h02.00.149,IAT(Formal),2021.2.3,Win32,29.94011976,,,,,,,,,,,,,,,,,,,,,,,,,,,,,,,,,,,,,,,,,,,,,,,,,,,,,他,e,,,,0,,1,15,95,55,1,,
,,,,,,,,,,,,,1,001,2024-08-22_16h02.00.149,IAT(Formal),2021.2.3,Win32,29.94011976,,,,,,,,,,,,,,,,,,,,,,,,,,,,,,,,,,,,,,,,,,,,,,,,,,,,,崇高,e,,,,0,,1,16,96,11,1,,
,,,,,,,,,,,,,1,001,2024-08-22_16h02.00.149,IAT(Formal),2021.2.3,Win32,29.94011976,,,,,,,,,,,,,,,,,,,,,,,,,,,,,,,,,,,,,,,,,,,,,,,,,,,,,我,i,,,,0,,1,17,97,70,1,,
,,,,,,,,,,,,,1,001,2024-08-22_16h02.00.149,IAT(Formal),2021.2.3,Win32,29.94011976,,,,,,,,,,,,,,,,,,,,,,,,,,,,,,,,,,,,,,,,,,,,,,,,,,,,,我们,i,,,,0,,1,18,98,72,1,,
,,,,,,,,,,,,,1,001,2024-08-22_16h02.00.149,IAT(Formal),2021.2.3,Win32,29.94011976,,,,,,,,,,,,,,,,,,,,,,,,,,,,,,,,,,,,,,,,,,,,,,,,,,,,,他,e,,,,0,,1,19,99,5,1,,
,,,,,,,,,,,,,1,001,2024-08-22_16h02.00.149,IAT(Formal),2021.2.3,Win32,29.94011976,,,,,,,,,,,,,,,,,,,,,,,,,,,,,,,,,,,,,,,,,,,,,,,,,,,,,执拗,i,,,,0,,1,20,100,40,1,,
,,,,,,,,,,,,,1,001,2024-08-22_16h02.00.149,IAT(Formal),2021.2.3,Win32,29.94011976,,,,,,,,,,,,,,,,,,,,,,,,,,,,,,,,,,,,,,,,,,,,,,,,,,,,,我的,i,,,,0,,1,21,101,61,1,,
,,,,,,,,,,,,,1,001,2024-08-22_16h02.00.149,IAT(Formal),2021.2.3,Win32,29.94011976,,,,,,,,,,,,,,,,,,,,,,,,,,,,,,,,,,,,,,,,,,,,,,,,,,,,,自私,i,,,,0,,1,22,102,43,1,,
,,,,,,,,,,,,,1,001,2024-08-22_16h02.00.149,IAT(Formal),2021.2.3,Win32,29.94011976,,,,,,,,,,,,,,,,,,,,,,,,,,,,,,,,,,,,,,,,,,,,,,,,,,,,,他们,e,,,,0,,1,23,103,6,1,,
,,,,,,,,,,,,,1,001,2024-08-22_16h02.00.149,IAT(Formal),2021.2.3,Win32,29.94011976,,,,,,,,,,,,,,,,,,,,,,,,,,,,,,,,,,,,,,,,,,,,,,,,,,,,,俺,i,,,,0,,1,24,104,74,1,,
,,,,,,,,,,,,,1,001,2024-08-22_16h02.00.149,IAT(Formal),2021.2.3,Win32,29.94011976,,,,,,,,,,,,,,,,,,,,,,,,,,,,,,,,,,,,,,,,,,,,,,,,,,,,,稳重,e,,,,0,,1,25,105,21,1,,
,,,,,,,,,,,,,1,001,2024-08-22_16h02.00.149,IAT(Formal),2021.2.3,Win32,29.94011976,,,,,,,,,,,,,,,,,,,,,,,,,,,,,,,,,,,,,,,,,,,,,,,,,,,,,热情,e,,,,0,,1,26,106,27,1,,
,,,,,,,,,,,,,1,001,2024-08-22_16h02.00.149,IAT(Formal),2021.2.3,Win32,29.94011976,,,,,,,,,,,,,,,,,,,,,,,,,,,,,,,,,,,,,,,,,,,,,,,,,,,,,他们,e,,,i,0,0.7349,1,27,107,56,1,,
,,,,,,,,,,,,,1,001,2024-08-22_16h02.00.149,IAT(Formal),2021.2.3,Win32,29.94011976,,,,,,,,,,,,,,,,,,,,,,,,,,,,,,,,,,,,,,,,,,,,,,,,,,,,,他人,e,,,e,1,0.6308,1,28,108,8,1,,
,,,,,,,,,,,,,1,001,2024-08-22_16h02.00.149,IAT(Formal),2021.2.3,Win32,29.94011976,,,,,,,,,,,,,,,,,,,,,,,,,,,,,,,,,,,,,,,,,,,,,,,,,,,,,他的,e,,,i,0,1.0299,1,29,109,77,1,,
,,,,,,,,,,,,,1,001,2024-08-22_16h02.00.149,IAT(Formal),2021.2.3,Win32,29.94011976,,,,,,,,,,,,,,,,,,,,,,,,,,,,,,,,,,,,,,,,,,,,,,,,,,,,,鲁莽,i,,,i,1,0.6325,1,30,110,38,1,,
,,,,,,,,,,,,,1,001,2024-08-22_16h02.00.149,IAT(Formal),2021.2.3,Win32,29.94011976,,,,,,,,,,,,,,,,,,,,,,,,,,,,,,,,,,,,,,,,,,,,,,,,,,,,,正直,e,,,i,0,0.9055,1,31,111,16,1,,
,,,,,,,,,,,,,1,001,2024-08-22_16h02.00.149,IAT(Formal),2021.2.3,Win32,29.94011976,,,,,,,,,,,,,,,,,,,,,,,,,,,,,,,,,,,,,,,,,,,,,,,,,,,,,悲观,i,,,i,1,0.772,1,32,112,34,1,,
,,,,,,,,,,,,,1,001,2024-08-22_16h02.00.149,IAT(Formal),2021.2.3,Win32,29.94011976,,,,,,,,,,,,,,,,,,,,,,,,,,,,,,,,,,,,,,,,,,,,,,,,,,,,,我的,i,,,i,1,0.9145,1,33,113,71,1,,
,,,,,,,,,,,,,1,001,2024-08-22_16h02.00.149,IAT(Formal),2021.2.3,Win32,29.94011976,,,,,,,,,,,,,,,,,,,,,,,,,,,,,,,,,,,,,,,,,,,,,,,,,,,,,冷静,e,,,i,0,0.7589,1,34,114,26,1,,
,,,,,,,,,,,,,1,001,2024-08-22_16h02.00.149,IAT(Formal),2021.2.3,Win32,29.94011976,,,,,,,,,,,,,,,,,,,,,,,,,,,,,,,,,,,,,,,,,,,,,,,,,,,,,自己,i,,,i,1,0.8959,1,35,115,53,1,,
,,,,,,,,,,,,,1,001,2024-08-22_16h02.00.149,IAT(Formal),2021.2.3,Win32,29.94011976,,,,,,,,,,,,,,,,,,,,,,,,,,,,,,,,,,,,,,,,,,,,,,,,,,,,,我,i,,,i,1,0.7723,1,36,116,60,1,,
,,,,,,,,,,,,,1,001,2024-08-22_16h02.00.149,IAT(Formal),2021.2.3,Win32,29.94011976,,,,,,,,,,,,,,,,,,,,,,,,,,,,,,,,,,,,,,,,,,,,,,,,,,,,,他们,e,,,i,0,0.6422,1,37,117,76,1,,
,,,,,,,,,,,,,1,001,2024-08-22_16h02.00.149,IAT(Formal),2021.2.3,Win32,29.94011976,,,,,,,,,,,,,,,,,,,,,,,,,,,,,,,,,,,,,,,,,,,,,,,,,,,,,其他,e,,,e,1,0.9036,1,38,118,59,1,,
,,,,,,,,,,,,,1,001,2024-08-22_16h02.00.149,IAT(Formal),2021.2.3,Win32,29.94011976,,,,,,,,,,,,,,,,,,,,,,,,,,,,,,,,,,,,,,,,,,,,,,,,,,,,,他的,e,,,e,1,0.6524,1,39,119,67,1,,
,,,,,,,,,,,,,1,001,2024-08-22_16h02.00.149,IAT(Formal),2021.2.3,Win32,29.94011976,,,,,,,,,,,,,,,,,,,,,,,,,,,,,,,,,,,,,,,,,,,,,,,,,,,,,机智,e,,,e,1,0.8958,1,40,120,19,1,,
,,,,,,,,,,,,,1,001,2024-08-22_16h02.00.149,IAT(Formal),2021.2.3,Win32,29.94011976,,,,,,,,,,,,,,,,,,,,,,,,,,,,,,,,,,,,,,,,,,,,,,,,,,,,,他的,e,,,i,0,0.7717,1,41,121,57,1,,
,,,,,,,,,,,,,1,001,2024-08-22_16h02.00.149,IAT(Formal),2021.2.3,Win32,29.94011976,,,,,,,,,,,,,,,,,,,,,,,,,,,,,,,,,,,,,,,,,,,,,,,,,,,,,我们,i,,,i,1,0.9022,1,42,122,52,1,,
,,,,,,,,,,,,,1,001,2024-08-22_16h02.00.149,IAT(Formal),2021.2.3,Win32,29.94011976,,,,,,,,,,,,,,,,,,,,,,,,,,,,,,,,,,,,,,,,,,,,,,,,,,,,,他人,e,,,e,1,0.86,1,43,123,78,1,,
,,,,,,,,,,,,,1,001,2024-08-22_16h02.00.149,IAT(Formal),2021.2.3,Win32,29.94011976,,,,,,,,,,,,,,,,,,,,,,,,,,,,,,,,,,,,,,,,,,,,,,,,,,,,,聪明,e,,,i,0,0.5051,1,44,124,12,1,,
,,,,,,,,,,,,,1,001,2024-08-22_16h02.00.149,IAT(Formal),2021.2.3,Win32,29.94011976,,,,,,,,,,,,,,,,,,,,,,,,,,,,,,,,,,,,,,,,,,,,,,,,,,,,,他们,e,,,,0,,1,45,125,66,1,,
,,,,,,,,,,,,,1,001,2024-08-22_16h02.00.149,IAT(Formal),2021.2.3,Win32,29.94011976,,,,,,,,,,,,,,,,,,,,,,,,,,,,,,,,,,,,,,,,,,,,,,,,,,,,,杰出,e,,,,0,,1,46,126,13,1,,
,,,,,,,,,,,,,1,001,2024-08-22_16h02.00.149,IAT(Formal),2021.2.3,Win32,29.94011976,,,,,,,,,,,,,,,,,,,,,,,,,,,,,,,,,,,,,,,,,,,,,,,,,,,,,消极,i,,,,0,,1,47,127,35,1,,
,,,,,,,,,,,,,1,001,2024-08-22_16h02.00.149,IAT(Formal),2021.2.3,Win32,29.94011976,,,,,,,,,,,,,,,,,,,,,,,,,,,,,,,,,,,,,,,,,,,,,,,,,,,,,下贱,i,,,,0,,1,48,128,49,1,,
,,,,,,,,,,,,,1,001,2024-08-22_16h02.00.149,IAT(Formal),2021.2.3,Win32,29.94011976,,,,,,,,,,,,,,,,,,,,,,,,,,,,,,,,,,,,,,,,,,,,,,,,,,,,,我,i,,,,0,,1,49,129,0,1,,
,,,,,,,,,,,,,1,001,2024-08-22_16h02.00.149,IAT(Formal),2021.2.3,Win32,29.94011976,,,,,,,,,,,,,,,,,,,,,,,,,,,,,,,,,,,,,,,,,,,,,,,,,,,,,勇敢,e,,,,0,,1,50,130,17,1,,
,,,,,,,,,,,,,1,001,2024-08-22_16h02.00.149,IAT(Formal),2021.2.3,Win32,29.94011976,,,,,,,,,,,,,,,,,,,,,,,,,,,,,,,,,,,,,,,,,,,,,,,,,,,,,他人,e,,,,0,,1,51,131,68,1,,
,,,,,,,,,,,,,1,001,2024-08-22_16h02.00.149,IAT(Formal),2021.2.3,Win32,29.94011976,,,,,,,,,,,,,,,,,,,,,,,,,,,,,,,,,,,,,,,,,,,,,,,,,,,,,其他,e,,,,0,,1,52,132,9,1,,
,,,,,,,,,,,,,1,001,2024-08-22_16h02.00.149,IAT(Formal),2021.2.3,Win32,29.94011976,,,,,,,,,,,,,,,,,,,,,,,,,,,,,,,,,,,,,,,,,,,,,,,,,,,,,无私,e,,,,0,,1,53,133,22,1,,
,,,,,,,,,,,,,1,001,2024-08-22_16h02.00.149,IAT(Formal),2021.2.3,Win32,29.94011976,,,,,,,,,,,,,,,,,,,,,,,,,,,,,,,,,,,,,,,,,,,,,,,,,,,,,卑鄙,i,,,,0,,1,54,134,30,1,,
,,,,,,,,,,,,,1,001,2024-08-22_16h02.00.149,IAT(Formal),2021.2.3,Win32,29.94011976,,,,,,,,,,,,,,,,,,,,,,,,,,,,,,,,,,,,,,,,,,,,,,,,,,,,,愚蠢,i,,,,0,,1,55,135,32,1,,
,,,,,,,,,,,,,1,001,2024-08-22_16h02.00.149,IAT(Formal),2021.2.3,Win32,29.94011976,,,,,,,,,,,,,,,,,,,,,,,,,,,,,,,,,,,,,,,,,,,,,,,,,,,,,乐观,e,,,,0,,1,56,136,14,1,,
,,,,,,,,,,,,,1,001,2024-08-22_16h02.00.149,IAT(Formal),2021.2.3,Win32,29.94011976,,,,,,,,,,,,,,,,,,,,,,,,,,,,,,,,,,,,,,,,,,,,,,,,,,,,,活泼,e,,,,0,,1,57,137,28,1,,
,,,,,,,,,,,,,1,001,2024-08-22_16h02.00.149,IAT(Formal),2021.2.3,Win32,29.94011976,,,,,,,,,,,,,,,,,,,,,,,,,,,,,,,,,,,,,,,,,,,,,,,,,,,,,冒失,i,,,,0,,1,58,138,39,1,,
,,,,,,,,,,,,,1,001,2024-08-22_16h02.00.149,IAT(Formal),2021.2.3,Win32,29.94011976,,,,,,,,,,,,,,,,,,,,,,,,,,,,,,,,,,,,,,,,,,,,,,,,,,,,,虚伪,i,,,,0,,1,59,139,31,1,,
,,,,,,,,,,,,,1,001,2024-08-22_16h02.00.149,IAT(Formal),2021.2.3,Win32,29.94011976,,,,,,,,,,,,,,,,,,,,,,,,,,,,,,,,,,,,,,,,,,,,,,,,,,,,,傲慢,i,,,,0,,1,60,140,37,1,,
,,,,,,,,,,,,,1,001,2024-08-22_16h02.00.149,IAT(Formal),2021.2.3,Win32,29.94011976,,,,,,,,,,,,,,,,,,,,,,,,,,,,,,,,,,,,,,,,,,,,,,,,,,,,,自己,i,,,,0,,1,61,141,73,1,,
,,,,,,,,,,,,,1,001,2024-08-22_16h02.00.149,IAT(Formal),2021.2.3,Win32,29.94011976,,,,,,,,,,,,,,,,,,,,,,,,,,,,,,,,,,,,,,,,,,,,,,,,,,,,,散漫,i,,,,0,,1,62,142,41,1,,
,,,,,,,,,,,,,1,001,2024-08-22_16h02.00.149,IAT(Formal),2021.2.3,Win32,29.94011976,,,,,,,,,,,,,,,,,,,,,,,,,,,,,,,,,,,,,,,,,,,,,,,,,,,,,我的,i,,,,0,,1,63,143,1,1,,
,,,,,,,,,,,,,1,001,2024-08-22_16h02.00.149,IAT(Formal),2021.2.3,Win32,29.94011976,,,,,,,,,,,,,,,,,,,,,,,,,,,,,,,,,,,,,,,,,,,,,,,,,,,,,俺,i,,,,0,,1,64,144,4,1,,
,,,,,,,,,,,,,1,001,2024-08-22_16h02.00.149,IAT(Formal),2021.2.3,Win32,29.94011976,,,,,,,,,,,,,,,,,,,,,,,,,,,,,,,,,,,,,,,,,,,,,,,,,,,,,他的,e,,,,0,,1,65,145,7,1,,
,,,,,,,,,,,,,1,001,2024-08-22_16h02.00.149,IAT(Formal),2021.2.3,Win32,29.94011976,,,,,,,,,,,,,,,,,,,,,,,,,,,,,,,,,,,,,,,,,,,,,,,,,,,,,猖狂,i,,,,0,,1,66,146,45,1,,
,,,,,,,,,,,,,1,001,2024-08-22_16h02.00.149,IAT(Formal),2021.2.3,Win32,29.94011976,,,,,,,,,,,,,,,,,,,,,,,,,,,,,,,,,,,,,,,,,,,,,,,,,,,,,朴实,e,,,,0,,1,67,147,24,1,,
,,,,,,,,,,,,,1,001,2024-08-22_16h02.00.149,IAT(Formal),2021.2.3,Win32,29.94011976,,,,,,,,,,,,,,,,,,,,,,,,,,,,,,,,,,,,,,,,,,,,,,,,,,,,,我们,i,,,,0,,1,68,148,62,1,,
,,,,,,,,,,,,,1,001,2024-08-22_16h02.00.149,IAT(Formal),2021.2.3,Win32,29.94011976,,,,,,,,,,,,,,,,,,,,,,,,,,,,,,,,,,,,,,,,,,,,,,,,,,,,,其他,e,,,,0,,1,69,149,79,1,,
,,,,,,,,,,,,,1,001,2024-08-22_16h02.00.149,IAT(Formal),2021.2.3,Win32,29.94011976,,,,,,,,,,,,,,,,,,,,,,,,,,,,,,,,,,,,,,,,,,,,,,,,,,,,,他,e,,,,0,,1,70,150,65,1,,
,,,,,,,,,,,,,1,001,2024-08-22_16h02.00.149,IAT(Formal),2021.2.3,Win32,29.94011976,,,,,,,,,,,,,,,,,,,,,,,,,,,,,,,,,,,,,,,,,,,,,,,,,,,,,认真,e,,,,0,,1,71,151,20,1,,
,,,,,,,,,,,,,1,001,2024-08-22_16h02.00.149,IAT(Formal),2021.2.3,Win32,29.94011976,,,,,,,,,,,,,,,,,,,,,,,,,,,,,,,,,,,,,,,,,,,,,,,,,,,,,凶狠,i,,,,0,,1,72,152,42,1,,
,,,,,,,,,,,,,1,001,2024-08-22_16h02.00.149,IAT(Formal),2021.2.3,Win32,29.94011976,,,,,,,,,,,,,,,,,,,,,,,,,,,,,,,,,,,,,,,,,,,,,,,,,,,,,我,i,,,,0,,1,73,153,50,1,,
,,,,,,,,,,,,,1,001,2024-08-22_16h02.00.149,IAT(Formal),2021.2.3,Win32,29.94011976,,,,,,,,,,,,,,,,,,,,,,,,,,,,,,,,,,,,,,,,,,,,,,,,,,,,,我们,i,,,,0,,1,74,154,2,1,,
,,,,,,,,,,,,,1,001,2024-08-22_16h02.00.149,IAT(Formal),2021.2.3,Win32,29.94011976,,,,,,,,,,,,,,,,,,,,,,,,,,,,,,,,,,,,,,,,,,,,,,,,,,,,,自卑,i,,,,0,,1,75,155,36,1,,
,,,,,,,,,,,,,1,001,2024-08-22_16h02.00.149,IAT(Formal),2021.2.3,Win32,29.94011976,,,,,,,,,,,,,,,,,,,,,,,,,,,,,,,,,,,,,,,,,,,,,,,,,,,,,俺,i,,,,0,,1,76,156,54,1,,
,,,,,,,,,,,,,1,001,2024-08-22_16h02.00.149,IAT(Formal),2021.2.3,Win32,29.94011976,,,,,,,,,,,,,,,,,,,,,,,,,,,,,,,,,,,,,,,,,,,,,,,,,,,,,他人,e,,,,0,,1,77,157,58,1,,
,,,,,,,,,,,,,1,001,2024-08-22_16h02.00.149,IAT(Formal),2021.2.3,Win32,29.94011976,,,,,,,,,,,,,,,,,,,,,,,,,,,,,,,,,,,,,,,,,,,,,,,,,,,,,细腻,e,,,,0,,1,78,158,25,1,,
,,,,,,,,,,,,,1,001,2024-08-22_16h02.00.149,IAT(Formal),2021.2.3,Win32,29.94011976,,,,,,,,,,,,,,,,,,,,,,,,,,,,,,,,,,,,,,,,,,,,,,,,,,,,,暴躁,i,,,,0,,1,79,159,44,1,,
,,,,,,,,,,,,,1,001,2024-08-22_16h02.00.149,IAT(Formal),2021.2.3,Win32,29.94011976,,,,,,,,,,,,,,,,,,,,,,,,,,,,,,,,,,,,,,,,,,,,,,,,,,,,,,,,,,,,,,,,,space,1.4145