"X.Instruction1.keys","Instruction1.rt","Instruction2.keys","Instruction2.rt","key_resp_iso.keys","key_resp_iso.corr","Practice_01.thisRepN","Practice_01.thisTrialN","Practice_01.thisN","Practice_01.thisIndex","Practice_01.ran","Words","ans","participant","session","date","expName","psychopyVersion","OS","frameRate","key_resp_iso.rt","key_resp_3.keys","key_resp_3.rt","key_resp_ipn.keys","key_resp_ipn.corr","key_resp_ipn.rt","Practice_02.thisRepN","Practice_02.thisTrialN","Practice_02.thisN","Practice_02.thisIndex","Practice_02.ran","Words_ipn","ans_ipn","key_resp_4.keys","key_resp_4.rt","key_resp_t1.keys","key_resp_t1.corr","key_resp_t1.rt","Practice_T1.thisRepN","Practice_T1.thisTrialN","Practice_T1.thisN","Practice_T1.thisIndex","Practice_T1.ran","Words_t1","ans_t1","key_resp_5.keys","key_resp_5.rt","Formal_T1.thisRepN","Formal_T1.thisTrialN","Formal_T1.thisN","Formal_T1.thisIndex","Formal_T1.ran","key_resp_6.keys","key_resp_6.rt","key_resp_iso_reverse.keys","key_resp_iso_reverse.corr","Practice_iso_Reverse.thisRepN","Practice_iso_Reverse.thisTrialN","Practice_iso_Reverse.thisN","Practice_iso_Reverse.thisIndex","Practice_iso_Reverse.ran","key_resp_iso_reverse.rt","key_resp_7.keys","key_resp_7.rt","key_resp_t2_Practice.keys","key_resp_t2_Practice.corr","key_resp_t2_Practice.rt","Practice_t2_Reverse.thisRepN","Practice_t2_Reverse.thisTrialN","Practice_t2_Reverse.thisN","Practice_t2_Reverse.thisIndex","Practice_t2_Reverse.ran","Words_t2","ans_t2","key_resp_8.keys","key_resp_8.rt","key_resp_t2.keys","key_resp_t2.corr","key_resp_t2.rt","Formal_t2_reverse.thisRepN","Formal_t2_reverse.thisTrialN","Formal_t2_reverse.thisN","Formal_t2_reverse.thisIndex","Formal_t2_reverse.ran","key_instruct.keys","key_instruct.rt","Subject"
"space",6.3929,"space",15.4351,"",0,0,0,0,0,1,"我","e",1,1,"2024-08-22_16h02.00.149","IAT(Formal)","2021.2.3","Win32",29.94011976,NA,"",NA,"",NA,NA,NA,NA,NA,NA,NA,"","","",NA,"",NA,NA,NA,NA,NA,NA,NA,"","","",NA,NA,NA,NA,NA,NA,"",NA,"",NA,NA,NA,NA,NA,NA,NA,"",NA,"",NA,NA,NA,NA,NA,NA,NA,"","","",NA,"",NA,NA,NA,NA,NA,NA,NA,"",NA,"2"
"",NA,"",NA,"",0,0,1,1,5,1,"他","i",1,1,"2024-08-22_16h02.00.149","IAT(Formal)","2021.2.3","Win32",29.94011976,NA,"",NA,"",NA,NA,NA,NA,NA,NA,NA,"","","",NA,"",NA,NA,NA,NA,NA,NA,NA,"","","",NA,NA,NA,NA,NA,NA,"",NA,"",NA,NA,NA,NA,NA,NA,NA,"",NA,"",NA,NA,NA,NA,NA,NA,NA,"","","",NA,"",NA,NA,NA,NA,NA,NA,NA,"",NA,"2"
"",NA,"",NA,"i",1,0,2,2,9,1,"其他","i",1,1,"2024-08-22_16h02.00.149","IAT(Formal)","2021.2.3","Win32",29.94011976,0.3986,"",NA,"",NA,NA,NA,NA,NA,NA,NA,"","","",NA,"",NA,NA,NA,NA,NA,NA,NA,"","","",NA,NA,NA,NA,NA,NA,"",NA,"",NA,NA,NA,NA,NA,NA,NA,"",NA,"",NA,NA,NA,NA,NA,NA,NA,"","","",NA,"",NA,NA,NA,NA,NA,NA,NA,"",NA,"2"
"",NA,"",NA,"",0,0,3,3,1,1,"我的","e",1,1,"2024-08-22_16h02.00.149","IAT(Formal)","2021.2.3","Win32",29.94011976,NA,"",NA,"",NA,NA,NA,NA,NA,NA,NA,"","","",NA,"",NA,NA,NA,NA,NA,NA,NA,"","","",NA,NA,NA,NA,NA,NA,"",NA,"",NA,NA,NA,NA,NA,NA,NA,"",NA,"",NA,NA,NA,NA,NA,NA,NA,"","","",NA,"",NA,NA,NA,NA,NA,NA,NA,"",NA,"2"
"",NA,"",NA,"",0,0,4,4,6,1,"他们","i",1,1,"2024-08-22_16h02.00.149","IAT(Formal)","2021.2.3","Win32",29.94011976,NA,"",NA,"",NA,NA,NA,NA,NA,NA,NA,"","","",NA,"",NA,NA,NA,NA,NA,NA,NA,"","","",NA,NA,NA,NA,NA,NA,"",NA,"",NA,NA,NA,NA,NA,NA,NA,"",NA,"",NA,NA,NA,NA,NA,NA,NA,"","","",NA,"",NA,NA,NA,NA,NA,NA,NA,"",NA,"2"
"",NA,"",NA,"",0,0,5,5,7,1,"他的","i",1,1,"2024-08-22_16h02.00.149","IAT(Formal)","2021.2.3","Win32",29.94011976,NA,"",NA,"",NA,NA,NA,NA,NA,NA,NA,"","","",NA,"",NA,NA,NA,NA,NA,NA,NA,"","","",NA,NA,NA,NA,NA,NA,"",NA,"",NA,NA,NA,NA,NA,NA,NA,"",NA,"",NA,NA,NA,NA,NA,NA,NA,"","","",NA,"",NA,NA,NA,NA,NA,NA,NA,"",NA,"2"
"",NA,"",NA,"",0,0,6,6,8,1,"他人","i",1,1,"2024-08-22_16h02.00.149","IAT(Formal)","2021.2.3","Win32",29.94011976,NA,"",NA,"",NA,NA,NA,NA,NA,NA,NA,"","","",NA,"",NA,NA,NA,NA,NA,NA,NA,"","","",NA,NA,NA,NA,NA,NA,"",NA,"",NA,NA,NA,NA,NA,NA,NA,"",NA,"",NA,NA,NA,NA,NA,NA,NA,"","","",NA,"",NA,NA,NA,NA,NA,NA,NA,"",NA,"2"
"",NA,"",NA,"",0,0,7,7,3,1,"自己","e",1,1,"2024-08-22_16h02.00.149","IAT(Formal)","2021.2.3","Win32",29.94011976,NA,"",NA,"",NA,NA,NA,NA,NA,NA,NA,"","","",NA,"",NA,NA,NA,NA,NA,NA,NA,"","","",NA,NA,NA,NA,NA,NA,"",NA,"",NA,NA,NA,NA,NA,NA,NA,"",NA,"",NA,NA,NA,NA,NA,NA,NA,"","","",NA,"",NA,NA,NA,NA,NA,NA,NA,"",NA,"2"
"",NA,"",NA,"",0,0,8,8,2,1,"我们","e",1,1,"2024-08-22_16h02.00.149","IAT(Formal)","2021.2.3","Win32",29.94011976,NA,"",NA,"",NA,NA,NA,NA,NA,NA,NA,"","","",NA,"",NA,NA,NA,NA,NA,NA,NA,"","","",NA,NA,NA,NA,NA,NA,"",NA,"",NA,NA,NA,NA,NA,NA,NA,"",NA,"",NA,NA,NA,NA,NA,NA,NA,"","","",NA,"",NA,NA,NA,NA,NA,NA,NA,"",NA,"2"
"",NA,"",NA,"i",0,0,9,9,4,1,"俺","e",1,1,"2024-08-22_16h02.00.149","IAT(Formal)","2021.2.3","Win32",29.94011976,0.6442,"",NA,"",NA,NA,NA,NA,NA,NA,NA,"","","",NA,"",NA,NA,NA,NA,NA,NA,NA,"","","",NA,NA,NA,NA,NA,NA,"",NA,"",NA,NA,NA,NA,NA,NA,NA,"",NA,"",NA,NA,NA,NA,NA,NA,NA,"","","",NA,"",NA,NA,NA,NA,NA,NA,NA,"",NA,"2"
"",NA,"",NA,"",NA,NA,NA,NA,NA,NA,"","",1,1,"2024-08-22_16h02.00.149","IAT(Formal)","2021.2.3","Win32",29.94011976,NA,"space",6.6728,"e",0,0.6647,0,0,0,33,1,"自私","i","",NA,"",NA,NA,NA,NA,NA,NA,NA,"","","",NA,NA,NA,NA,NA,NA,"",NA,"",NA,NA,NA,NA,NA,NA,NA,"",NA,"",NA,NA,NA,NA,NA,NA,NA,"","","",NA,"",NA,NA,NA,NA,NA,NA,NA,"",NA,"2"
"",NA,"",NA,"",NA,NA,NA,NA,NA,NA,"","",1,1,"2024-08-22_16h02.00.149","IAT(Formal)","2021.2.3","Win32",29.94011976,NA,"",NA,"i",1,0.26,0,1,1,35,1,"猖狂","i","",NA,"",NA,NA,NA,NA,NA,NA,NA,"","","",NA,NA,NA,NA,NA,NA,"",NA,"",NA,NA,NA,NA,NA,NA,NA,"",NA,"",NA,NA,NA,NA,NA,NA,NA,"","","",NA,"",NA,NA,NA,NA,NA,NA,NA,"",NA,"2"
"",NA,"",NA,"",NA,NA,NA,NA,NA,NA,"","",1,1,"2024-08-22_16h02.00.149","IAT(Formal)","2021.2.3","Win32",29.94011976,NA,"",NA,"e",0,0.6689,0,2,2,23,1,"刻薄","i","",NA,"",NA,NA,NA,NA,NA,NA,NA,"","","",NA,NA,NA,NA,NA,NA,"",NA,"",NA,NA,NA,NA,NA,NA,NA,"",NA,"",NA,NA,NA,NA,NA,NA,NA,"","","",NA,"",NA,NA,NA,NA,NA,NA,NA,"",NA,"2"
"",NA,"",NA,"",NA,NA,NA,NA,NA,NA,"","",1,1,"2024-08-22_16h02.00.149","IAT(Formal)","2021.2.3","Win32",29.94011976,NA,"",NA,"i",1,0.6458,0,3,3,31,1,"散漫","i","",NA,"",NA,NA,NA,NA,NA,NA,NA,"","","",NA,NA,NA,NA,NA,NA,"",NA,"",NA,NA,NA,NA,NA,NA,NA,"",NA,"",NA,NA,NA,NA,NA,NA,NA,"","","",NA,"",NA,NA,NA,NA,NA,NA,NA,"",NA,"2"
"",NA,"",NA,"",NA,NA,NA,NA,NA,NA,"","",1,1,"2024-08-22_16h02.00.149","IAT(Formal)","2021.2.3","Win32",29.94011976,NA,"",NA,"i",1,0.6554,0,4,4,36,1,"野蛮","i","",NA,"",NA,NA,NA,NA,NA,NA,NA,"","","",NA,NA,NA,NA,NA,NA,"",NA,"",NA,NA,NA,NA,NA,NA,NA,"",NA,"",NA,NA,NA,NA,NA,NA,NA,"","","",NA,"",NA,NA,NA,NA,NA,NA,NA,"",NA,"2"
"",NA,"",NA,"",NA,NA,NA,NA,NA,NA,"","",1,1,"2024-08-22_16h02.00.149","IAT(Formal)","2021.2.3","Win32",29.94011976,NA,"",NA,"i",1,0.6431,0,5,5,20,1,"卑鄙","i","",NA,"",NA,NA,NA,NA,NA,NA,NA,"","","",NA,NA,NA,NA,NA,NA,"",NA,"",NA,NA,NA,NA,NA,NA,NA,"",NA,"",NA,NA,NA,NA,NA,NA,NA,"","","",NA,"",NA,NA,NA,NA,NA,NA,NA,"",NA,"2"
"",NA,"",NA,"",NA,NA,NA,NA,NA,NA,"","",1,1,"2024-08-22_16h02.00.149","IAT(Formal)","2021.2.3","Win32",29.94011976,NA,"",NA,"i",1,0.7797,0,6,6,32,1,"凶狠","i","",NA,"",NA,NA,NA,NA,NA,NA,NA,"","","",NA,NA,NA,NA,NA,NA,"",NA,"",NA,NA,NA,NA,NA,NA,NA,"",NA,"",NA,NA,NA,NA,NA,NA,NA,"","","",NA,"",NA,NA,NA,NA,NA,NA,NA,"",NA,"2"
"",NA,"",NA,"",NA,NA,NA,NA,NA,NA,"","",1,1,"2024-08-22_16h02.00.149","IAT(Formal)","2021.2.3","Win32",29.94011976,NA,"",NA,"",0,NA,0,7,7,12,1,"无私","e","",NA,"",NA,NA,NA,NA,NA,NA,NA,"","","",NA,NA,NA,NA,NA,NA,"",NA,"",NA,NA,NA,NA,NA,NA,NA,"",NA,"",NA,NA,NA,NA,NA,NA,NA,"","","",NA,"",NA,NA,NA,NA,NA,NA,NA,"",NA,"2"
"",NA,"",NA,"",NA,NA,NA,NA,NA,NA,"","",1,1,"2024-08-22_16h02.00.149","IAT(Formal)","2021.2.3","Win32",29.94011976,NA,"",NA,"",0,NA,0,8,8,8,1,"勤奋","e","",NA,"",NA,NA,NA,NA,NA,NA,NA,"","","",NA,NA,NA,NA,NA,NA,"",NA,"",NA,NA,NA,NA,NA,NA,NA,"",NA,"",NA,NA,NA,NA,NA,NA,NA,"","","",NA,"",NA,NA,NA,NA,NA,NA,NA,"",NA,"2"
"",NA,"",NA,"",NA,NA,NA,NA,NA,NA,"","",1,1,"2024-08-22_16h02.00.149","IAT(Formal)","2021.2.3","Win32",29.94011976,NA,"",NA,"",0,NA,0,9,9,28,1,"鲁莽","i","",NA,"",NA,NA,NA,NA,NA,NA,NA,"","","",NA,NA,NA,NA,NA,NA,"",NA,"",NA,NA,NA,NA,NA,NA,NA,"",NA,"",NA,NA,NA,NA,NA,NA,NA,"","","",NA,"",NA,NA,NA,NA,NA,NA,NA,"",NA,"2"
"",NA,"",NA,"",NA,NA,NA,NA,NA,NA,"","",1,1,"2024-08-22_16h02.00.149","IAT(Formal)","2021.2.3","Win32",29.94011976,NA,"",NA,"",0,NA,0,10,10,18,1,"活泼","e","",NA,"",NA,NA,NA,NA,NA,NA,NA,"","","",NA,NA,NA,NA,NA,NA,"",NA,"",NA,NA,NA,NA,NA,NA,NA,"",NA,"",NA,NA,NA,NA,NA,NA,NA,"","","",NA,"",NA,NA,NA,NA,NA,NA,NA,"",NA,"2"
"",NA,"",NA,"",NA,NA,NA,NA,NA,NA,"","",1,1,"2024-08-22_16h02.00.149","IAT(Formal)","2021.2.3","Win32",29.94011976,NA,"",NA,"i",1,0.637,0,11,11,22,1,"愚蠢","i","",NA,"",NA,NA,NA,NA,NA,NA,NA,"","","",NA,NA,NA,NA,NA,NA,"",NA,"",NA,NA,NA,NA,NA,NA,NA,"",NA,"",NA,NA,NA,NA,NA,NA,NA,"","","",NA,"",NA,NA,NA,NA,NA,NA,NA,"",NA,"2"
"",NA,"",NA,"",NA,NA,NA,NA,NA,NA,"","",1,1,"2024-08-22_16h02.00.149","IAT(Formal)","2021.2.3","Win32",29.94011976,NA,"",NA,"i",0,0.5306,0,12,12,11,1,"稳重","e","",NA,"",NA,NA,NA,NA,NA,NA,NA,"","","",NA,NA,NA,NA,NA,NA,"",NA,"",NA,NA,NA,NA,NA,NA,NA,"",NA,"",NA,NA,NA,NA,NA,NA,NA,"","","",NA,"",NA,NA,NA,NA,NA,NA,NA,"",NA,"2"
"",NA,"",NA,"",NA,NA,NA,NA,NA,NA,"","",1,1,"2024-08-22_16h02.00.149","IAT(Formal)","2021.2.3","Win32",29.94011976,NA,"",NA,"e",1,0.6307,0,13,13,3,1,"杰出","e","",NA,"",NA,NA,NA,NA,NA,NA,NA,"","","",NA,NA,NA,NA,NA,NA,"",NA,"",NA,NA,NA,NA,NA,NA,NA,"",NA,"",NA,NA,NA,NA,NA,NA,NA,"","","",NA,"",NA,NA,NA,NA,NA,NA,NA,"",NA,"2"
"",NA,"",NA,"",NA,NA,NA,NA,NA,NA,"","",1,1,"2024-08-22_16h02.00.149","IAT(Formal)","2021.2.3","Win32",29.94011976,NA,"",NA,"e",1,0.5088,0,14,14,2,1,"聪明","e","",NA,"",NA,NA,NA,NA,NA,NA,NA,"","","",NA,NA,NA,NA,NA,NA,"",NA,"",NA,NA,NA,NA,NA,NA,NA,"",NA,"",NA,NA,NA,NA,NA,NA,NA,"","","",NA,"",NA,NA,NA,NA,NA,NA,NA,"",NA,"2"
"",NA,"",NA,"",NA,NA,NA,NA,NA,NA,"","",1,1,"2024-08-22_16h02.00.149","IAT(Formal)","2021.2.3","Win32",29.94011976,NA,"",NA,"e",1,0.6562,0,15,15,7,1,"勇敢","e","",NA,"",NA,NA,NA,NA,NA,NA,NA,"","","",NA,NA,NA,NA,NA,NA,"",NA,"",NA,NA,NA,NA,NA,NA,NA,"",NA,"",NA,NA,NA,NA,NA,NA,NA,"","","",NA,"",NA,NA,NA,NA,NA,NA,NA,"",NA,"2"
"",NA,"",NA,"",NA,NA,NA,NA,NA,NA,"","",1,1,"2024-08-22_16h02.00.149","IAT(Formal)","2021.2.3","Win32",29.94011976,NA,"",NA,"e",1,0.6418,0,16,16,14,1,"朴实","e","",NA,"",NA,NA,NA,NA,NA,NA,NA,"","","",NA,NA,NA,NA,NA,NA,"",NA,"",NA,NA,NA,NA,NA,NA,NA,"",NA,"",NA,NA,NA,NA,NA,NA,NA,"","","",NA,"",NA,NA,NA,NA,NA,NA,NA,"",NA,"2"
"",NA,"",NA,"",NA,NA,NA,NA,NA,NA,"","",1,1,"2024-08-22_16h02.00.149","IAT(Formal)","2021.2.3","Win32",29.94011976,NA,"",NA,"e",1,0.6531,0,17,17,0,1,"优秀","e","",NA,"",NA,NA,NA,NA,NA,NA,NA,"","","",NA,NA,NA,NA,NA,NA,"",NA,"",NA,NA,NA,NA,NA,NA,NA,"",NA,"",NA,NA,NA,NA,NA,NA,NA,"","","",NA,"",NA,NA,NA,NA,NA,NA,NA,"",NA,"2"
"",NA,"",NA,"",NA,NA,NA,NA,NA,NA,"","",1,1,"2024-08-22_16h02.00.149","IAT(Formal)","2021.2.3","Win32",29.94011976,NA,"",NA,"i",1,0.6502,0,18,18,29,1,"冒失","i","",NA,"",NA,NA,NA,NA,NA,NA,NA,"","","",NA,NA,NA,NA,NA,NA,"",NA,"",NA,NA,NA,NA,NA,NA,NA,"",NA,"",NA,NA,NA,NA,NA,NA,NA,"","","",NA,"",NA,NA,NA,NA,NA,NA,NA,"",NA,"2"
"",NA,"",NA,"",NA,NA,NA,NA,NA,NA,"","",1,1,"2024-08-22_16h02.00.149","IAT(Formal)","2021.2.3","Win32",29.94011976,NA,"",NA,"e",1,0.6342,0,19,19,17,1,"热情","e","",NA,"",NA,NA,NA,NA,NA,NA,NA,"","","",NA,NA,NA,NA,NA,NA,"",NA,"",NA,NA,NA,NA,NA,NA,NA,"",NA,"",NA,NA,NA,NA,NA,NA,NA,"","","",NA,"",NA,NA,NA,NA,NA,NA,NA,"",NA,"2"
"",NA,"",NA,"",NA,NA,NA,NA,NA,NA,"","",1,1,"2024-08-22_16h02.00.149","IAT(Formal)","2021.2.3","Win32",29.94011976,NA,"",NA,"i",1,0.79,0,20,20,21,1,"虚伪","i","",NA,"",NA,NA,NA,NA,NA,NA,NA,"","","",NA,NA,NA,NA,NA,NA,"",NA,"",NA,NA,NA,NA,NA,NA,NA,"",NA,"",NA,NA,NA,NA,NA,NA,NA,"","","",NA,"",NA,NA,NA,NA,NA,NA,NA,"",NA,"2"
"",NA,"",NA,"",NA,NA,NA,NA,NA,NA,"","",1,1,"2024-08-22_16h02.00.149","IAT(Formal)","2021.2.3","Win32",29.94011976,NA,"",NA,"i",0,1.136,0,21,21,16,1,"冷静","e","",NA,"",NA,NA,NA,NA,NA,NA,NA,"","","",NA,NA,NA,NA,NA,NA,"",NA,"",NA,NA,NA,NA,NA,NA,NA,"",NA,"",NA,NA,NA,NA,NA,NA,NA,"","","",NA,"",NA,NA,NA,NA,NA,NA,NA,"",NA,"2"
"",NA,"",NA,"",NA,NA,NA,NA,NA,NA,"","",1,1,"2024-08-22_16h02.00.149","IAT(Formal)","2021.2.3","Win32",29.94011976,NA,"",NA,"i",1,0.7589,0,22,22,39,1,"下贱","i","",NA,"",NA,NA,NA,NA,NA,NA,NA,"","","",NA,NA,NA,NA,NA,NA,"",NA,"",NA,NA,NA,NA,NA,NA,NA,"",NA,"",NA,NA,NA,NA,NA,NA,NA,"","","",NA,"",NA,NA,NA,NA,NA,NA,NA,"",NA,"2"
"",NA,"",NA,"",NA,NA,NA,NA,NA,NA,"","",1,1,"2024-08-22_16h02.00.149","IAT(Formal)","2021.2.3","Win32",29.94011976,NA,"",NA,"i",1,0.7591,0,23,23,25,1,"消极","i","",NA,"",NA,NA,NA,NA,NA,NA,NA,"","","",NA,NA,NA,NA,NA,NA,"",NA,"",NA,NA,NA,NA,NA,NA,NA,"",NA,"",NA,NA,NA,NA,NA,NA,NA,"","","",NA,"",NA,NA,NA,NA,NA,NA,NA,"",NA,"2"
"",NA,"",NA,"",NA,NA,NA,NA,NA,NA,"","",1,1,"2024-08-22_16h02.00.149","IAT(Formal)","2021.2.3","Win32",29.94011976,NA,"",NA,"i",1,0.9037,0,24,24,38,1,"轻率","i","",NA,"",NA,NA,NA,NA,NA,NA,NA,"","","",NA,NA,NA,NA,NA,NA,"",NA,"",NA,NA,NA,NA,NA,NA,NA,"",NA,"",NA,NA,NA,NA,NA,NA,NA,"","","",NA,"",NA,NA,NA,NA,NA,NA,NA,"",NA,"2"
"",NA,"",NA,"",NA,NA,NA,NA,NA,NA,"","",1,1,"2024-08-22_16h02.00.149","IAT(Formal)","2021.2.3","Win32",29.94011976,NA,"",NA,"e",1,0.5329,0,25,25,10,1,"认真","e","",NA,"",NA,NA,NA,NA,NA,NA,NA,"","","",NA,NA,NA,NA,NA,NA,"",NA,"",NA,NA,NA,NA,NA,NA,NA,"",NA,"",NA,NA,NA,NA,NA,NA,NA,"","","",NA,"",NA,NA,NA,NA,NA,NA,NA,"",NA,"2"
"",NA,"",NA,"",NA,NA,NA,NA,NA,NA,"","",1,1,"2024-08-22_16h02.00.149","IAT(Formal)","2021.2.3","Win32",29.94011976,NA,"",NA,"e",1,0.5151,0,26,26,6,1,"正直","e","",NA,"",NA,NA,NA,NA,NA,NA,NA,"","","",NA,NA,NA,NA,NA,NA,"",NA,"",NA,NA,NA,NA,NA,NA,NA,"",NA,"",NA,NA,NA,NA,NA,NA,NA,"","","",NA,"",NA,NA,NA,NA,NA,NA,NA,"",NA,"2"
"",NA,"",NA,"",NA,NA,NA,NA,NA,NA,"","",1,1,"2024-08-22_16h02.00.149","IAT(Formal)","2021.2.3","Win32",29.94011976,NA,"",NA,"i",0,0.6106,0,27,27,4,1,"乐观","e","",NA,"",NA,NA,NA,NA,NA,NA,NA,"","","",NA,NA,NA,NA,NA,NA,"",NA,"",NA,NA,NA,NA,NA,NA,NA,"",NA,"",NA,NA,NA,NA,NA,NA,NA,"","","",NA,"",NA,NA,NA,NA,NA,NA,NA,"",NA,"2"
"",NA,"",NA,"",NA,NA,NA,NA,NA,NA,"","",1,1,"2024-08-22_16h02.00.149","IAT(Formal)","2021.2.3","Win32",29.94011976,NA,"",NA,"e",1,0.6365,0,28,28,1,1,"崇高","e","",NA,"",NA,NA,NA,NA,NA,NA,NA,"","","",NA,NA,NA,NA,NA,NA,"",NA,"",NA,NA,NA,NA,NA,NA,NA,"",NA,"",NA,NA,NA,NA,NA,NA,NA,"","","",NA,"",NA,NA,NA,NA,NA,NA,NA,"",NA,"2"
"",NA,"",NA,"",NA,NA,NA,NA,NA,NA,"","",1,1,"2024-08-22_16h02.00.149","IAT(Formal)","2021.2.3","Win32",29.94011976,NA,"",NA,"i",1,0.6536,0,29,29,24,1,"悲观","i","",NA,"",NA,NA,NA,NA,NA,NA,NA,"","","",NA,NA,NA,NA,NA,NA,"",NA,"",NA,NA,NA,NA,NA,NA,NA,"",NA,"",NA,NA,NA,NA,NA,NA,NA,"","","",NA,"",NA,NA,NA,NA,NA,NA,NA,"",NA,"2"
"",NA,"",NA,"",NA,NA,NA,NA,NA,NA,"","",1,1,"2024-08-22_16h02.00.149","IAT(Formal)","2021.2.3","Win32",29.94011976,NA,"",NA,"i",1,0.6312,0,30,30,27,1,"傲慢","i","",NA,"",NA,NA,NA,NA,NA,NA,NA,"","","",NA,NA,NA,NA,NA,NA,"",NA,"",NA,NA,NA,NA,NA,NA,NA,"",NA,"",NA,NA,NA,NA,NA,NA,NA,"","","",NA,"",NA,NA,NA,NA,NA,NA,NA,"",NA,"2"
"",NA,"",NA,"",NA,NA,NA,NA,NA,NA,"","",1,1,"2024-08-22_16h02.00.149","IAT(Formal)","2021.2.3","Win32",29.94011976,NA,"",NA,"e",1,0.5041,0,31,31,9,1,"机智","e","",NA,"",NA,NA,NA,NA,NA,NA,NA,"","","",NA,NA,NA,NA,NA,NA,"",NA,"",NA,NA,NA,NA,NA,NA,NA,"",NA,"",NA,NA,NA,NA,NA,NA,NA,"","","",NA,"",NA,NA,NA,NA,NA,NA,NA,"",NA,"2"
"",NA,"",NA,"",NA,NA,NA,NA,NA,NA,"","",1,1,"2024-08-22_16h02.00.149","IAT(Formal)","2021.2.3","Win32",29.94011976,NA,"",NA,"e",1,0.7682,0,32,32,19,1,"诚恳","e","",NA,"",NA,NA,NA,NA,NA,NA,NA,"","","",NA,NA,NA,NA,NA,NA,"",NA,"",NA,NA,NA,NA,NA,NA,NA,"",NA,"",NA,NA,NA,NA,NA,NA,NA,"","","",NA,"",NA,NA,NA,NA,NA,NA,NA,"",NA,"2"
"",NA,"",NA,"",NA,NA,NA,NA,NA,NA,"","",1,1,"2024-08-22_16h02.00.149","IAT(Formal)","2021.2.3","Win32",29.94011976,NA,"",NA,"e",1,0.6451,0,33,33,5,1,"诚实","e","",NA,"",NA,NA,NA,NA,NA,NA,NA,"","","",NA,NA,NA,NA,NA,NA,"",NA,"",NA,NA,NA,NA,NA,NA,NA,"",NA,"",NA,NA,NA,NA,NA,NA,NA,"","","",NA,"",NA,NA,NA,NA,NA,NA,NA,"",NA,"2"
"",NA,"",NA,"",NA,NA,NA,NA,NA,NA,"","",1,1,"2024-08-22_16h02.00.149","IAT(Formal)","2021.2.3","Win32",29.94011976,NA,"",NA,"i",1,0.5051,0,34,34,30,1,"执拗","i","",NA,"",NA,NA,NA,NA,NA,NA,NA,"","","",NA,NA,NA,NA,NA,NA,"",NA,"",NA,NA,NA,NA,NA,NA,NA,"",NA,"",NA,NA,NA,NA,NA,NA,NA,"","","",NA,"",NA,NA,NA,NA,NA,NA,NA,"",NA,"2"
"",NA,"",NA,"",NA,NA,NA,NA,NA,NA,"","",1,1,"2024-08-22_16h02.00.149","IAT(Formal)","2021.2.3","Win32",29.94011976,NA,"",NA,"e",1,0.777,0,35,35,15,1,"细腻","e","",NA,"",NA,NA,NA,NA,NA,NA,NA,"","","",NA,NA,NA,NA,NA,NA,"",NA,"",NA,NA,NA,NA,NA,NA,NA,"",NA,"",NA,NA,NA,NA,NA,NA,NA,"","","",NA,"",NA,NA,NA,NA,NA,NA,NA,"",NA,"2"
"",NA,"",NA,"",NA,NA,NA,NA,NA,NA,"","",1,1,"2024-08-22_16h02.00.149","IAT(Formal)","2021.2.3","Win32",29.94011976,NA,"",NA,"i",1,0.6433,0,36,36,34,1,"暴躁","i","",NA,"",NA,NA,NA,NA,NA,NA,NA,"","","",NA,NA,NA,NA,NA,NA,"",NA,"",NA,NA,NA,NA,NA,NA,NA,"",NA,"",NA,NA,NA,NA,NA,NA,NA,"","","",NA,"",NA,NA,NA,NA,NA,NA,NA,"",NA,"2"
"",NA,"",NA,"",NA,NA,NA,NA,NA,NA,"","",1,1,"2024-08-22_16h02.00.149","IAT(Formal)","2021.2.3","Win32",29.94011976,NA,"",NA,"i",1,0.6446,0,37,37,37,1,"固执","i","",NA,"",NA,NA,NA,NA,NA,NA,NA,"","","",NA,NA,NA,NA,NA,NA,"",NA,"",NA,NA,NA,NA,NA,NA,NA,"",NA,"",NA,NA,NA,NA,NA,NA,NA,"","","",NA,"",NA,NA,NA,NA,NA,NA,NA,"",NA,"2"
"",NA,"",NA,"",NA,NA,NA,NA,NA,NA,"","",1,1,"2024-08-22_16h02.00.149","IAT(Formal)","2021.2.3","Win32",29.94011976,NA,"",NA,"i",1,0.6582,0,38,38,26,1,"自卑","i","",NA,"",NA,NA,NA,NA,NA,NA,NA,"","","",NA,NA,NA,NA,NA,NA,"",NA,"",NA,NA,NA,NA,NA,NA,NA,"",NA,"",NA,NA,NA,NA,NA,NA,NA,"","","",NA,"",NA,NA,NA,NA,NA,NA,NA,"",NA,"2"
"",NA,"",NA,"",NA,NA,NA,NA,NA,NA,"","",1,1,"2024-08-22_16h02.00.149","IAT(Formal)","2021.2.3","Win32",29.94011976,NA,"",NA,"e",1,0.6403,0,39,39,13,1,"公正","e","",NA,"",NA,NA,NA,NA,NA,NA,NA,"","","",NA,NA,NA,NA,NA,NA,"",NA,"",NA,NA,NA,NA,NA,NA,NA,"",NA,"",NA,NA,NA,NA,NA,NA,NA,"","","",NA,"",NA,NA,NA,NA,NA,NA,NA,"",NA,"2"
"",NA,"",NA,"",NA,NA,NA,NA,NA,NA,"","",1,1,"2024-08-22_16h02.00.149","IAT(Formal)","2021.2.3","Win32",29.94011976,NA,"",NA,"",NA,NA,NA,NA,NA,NA,NA,"","","space",6.9838,"i",1,0.7633,0,0,0,66,1,"他们","i","",NA,NA,NA,NA,NA,NA,"",NA,"",NA,NA,NA,NA,NA,NA,NA,"",NA,"",NA,NA,NA,NA,NA,NA,NA,"","","",NA,"",NA,NA,NA,NA,NA,NA,NA,"",NA,"2"
"",NA,"",NA,"",NA,NA,NA,NA,NA,NA,"","",1,1,"2024-08-22_16h02.00.149","IAT(Formal)","2021.2.3","Win32",29.94011976,NA,"",NA,"",NA,NA,NA,NA,NA,NA,NA,"","","",NA,"i",1,0.7877,0,1,1,55,1,"他","i","",NA,NA,NA,NA,NA,NA,"",NA,"",NA,NA,NA,NA,NA,NA,NA,"",NA,"",NA,NA,NA,NA,NA,NA,NA,"","","",NA,"",NA,NA,NA,NA,NA,NA,NA,"",NA,"2"
"",NA,"",NA,"",NA,NA,NA,NA,NA,NA,"","",1,1,"2024-08-22_16h02.00.149","IAT(Formal)","2021.2.3","Win32",29.94011976,NA,"",NA,"",NA,NA,NA,NA,NA,NA,NA,"","","",NA,"e",1,0.7811,0,2,2,15,1,"诚实","e","",NA,NA,NA,NA,NA,NA,"",NA,"",NA,NA,NA,NA,NA,NA,NA,"",NA,"",NA,NA,NA,NA,NA,NA,NA,"","","",NA,"",NA,NA,NA,NA,NA,NA,NA,"",NA,"2"
"",NA,"",NA,"",NA,NA,NA,NA,NA,NA,"","",1,1,"2024-08-22_16h02.00.149","IAT(Formal)","2021.2.3","Win32",29.94011976,NA,"",NA,"",NA,NA,NA,NA,NA,NA,NA,"","","",NA,"i",1,0.66,0,3,3,57,1,"他的","i","",NA,NA,NA,NA,NA,NA,"",NA,"",NA,NA,NA,NA,NA,NA,NA,"",NA,"",NA,NA,NA,NA,NA,NA,NA,"","","",NA,"",NA,NA,NA,NA,NA,NA,NA,"",NA,"2"
"",NA,"",NA,"",NA,NA,NA,NA,NA,NA,"","",1,1,"2024-08-22_16h02.00.149","IAT(Formal)","2021.2.3","Win32",29.94011976,NA,"",NA,"",NA,NA,NA,NA,NA,NA,NA,"","","",NA,"i",1,0.7757,0,4,4,40,1,"执拗","i","",NA,NA,NA,NA,NA,NA,"",NA,"",NA,NA,NA,NA,NA,NA,NA,"",NA,"",NA,NA,NA,NA,NA,NA,NA,"","","",NA,"",NA,NA,NA,NA,NA,NA,NA,"",NA,"2"
"",NA,"",NA,"",NA,NA,NA,NA,NA,NA,"","",1,1,"2024-08-22_16h02.00.149","IAT(Formal)","2021.2.3","Win32",29.94011976,NA,"",NA,"",NA,NA,NA,NA,NA,NA,NA,"","","",NA,"e",1,0.6241,0,5,5,3,1,"自己","e","",NA,NA,NA,NA,NA,NA,"",NA,"",NA,NA,NA,NA,NA,NA,NA,"",NA,"",NA,NA,NA,NA,NA,NA,NA,"","","",NA,"",NA,NA,NA,NA,NA,NA,NA,"",NA,"2"
"",NA,"",NA,"",NA,NA,NA,NA,NA,NA,"","",1,1,"2024-08-22_16h02.00.149","IAT(Formal)","2021.2.3","Win32",29.94011976,NA,"",NA,"",NA,NA,NA,NA,NA,NA,NA,"","","",NA,"e",1,0.652,0,6,6,24,1,"朴实","e","",NA,NA,NA,NA,NA,NA,"",NA,"",NA,NA,NA,NA,NA,NA,NA,"",NA,"",NA,NA,NA,NA,NA,NA,NA,"","","",NA,"",NA,NA,NA,NA,NA,NA,NA,"",NA,"2"
"",NA,"",NA,"",NA,NA,NA,NA,NA,NA,"","",1,1,"2024-08-22_16h02.00.149","IAT(Formal)","2021.2.3","Win32",29.94011976,NA,"",NA,"",NA,NA,NA,NA,NA,NA,NA,"","","",NA,"e",1,0.6264,0,7,7,29,1,"诚恳","e","",NA,NA,NA,NA,NA,NA,"",NA,"",NA,NA,NA,NA,NA,NA,NA,"",NA,"",NA,NA,NA,NA,NA,NA,NA,"","","",NA,"",NA,NA,NA,NA,NA,NA,NA,"",NA,"2"
"",NA,"",NA,"",NA,NA,NA,NA,NA,NA,"","",1,1,"2024-08-22_16h02.00.149","IAT(Formal)","2021.2.3","Win32",29.94011976,NA,"",NA,"",NA,NA,NA,NA,NA,NA,NA,"","","",NA,"e",1,0.5308,0,8,8,23,1,"公正","e","",NA,NA,NA,NA,NA,NA,"",NA,"",NA,NA,NA,NA,NA,NA,NA,"",NA,"",NA,NA,NA,NA,NA,NA,NA,"","","",NA,"",NA,NA,NA,NA,NA,NA,NA,"",NA,"2"
"",NA,"",NA,"",NA,NA,NA,NA,NA,NA,"","",1,1,"2024-08-22_16h02.00.149","IAT(Formal)","2021.2.3","Win32",29.94011976,NA,"",NA,"",NA,NA,NA,NA,NA,NA,NA,"","","",NA,"e",1,0.6387,0,9,9,10,1,"优秀","e","",NA,NA,NA,NA,NA,NA,"",NA,"",NA,NA,NA,NA,NA,NA,NA,"",NA,"",NA,NA,NA,NA,NA,NA,NA,"","","",NA,"",NA,NA,NA,NA,NA,NA,NA,"",NA,"2"
"",NA,"",NA,"",NA,NA,NA,NA,NA,NA,"","",1,1,"2024-08-22_16h02.00.149","IAT(Formal)","2021.2.3","Win32",29.94011976,NA,"",NA,"",NA,NA,NA,NA,NA,NA,NA,"","","",NA,"i",1,0.6595,0,10,10,35,1,"消极","i","",NA,NA,NA,NA,NA,NA,"",NA,"",NA,NA,NA,NA,NA,NA,NA,"",NA,"",NA,NA,NA,NA,NA,NA,NA,"","","",NA,"",NA,NA,NA,NA,NA,NA,NA,"",NA,"2"
"",NA,"",NA,"",NA,NA,NA,NA,NA,NA,"","",1,1,"2024-08-22_16h02.00.149","IAT(Formal)","2021.2.3","Win32",29.94011976,NA,"",NA,"",NA,NA,NA,NA,NA,NA,NA,"","","",NA,"e",1,0.52,0,11,11,63,1,"自己","e","",NA,NA,NA,NA,NA,NA,"",NA,"",NA,NA,NA,NA,NA,NA,NA,"",NA,"",NA,NA,NA,NA,NA,NA,NA,"","","",NA,"",NA,NA,NA,NA,NA,NA,NA,"",NA,"2"
"",NA,"",NA,"",NA,NA,NA,NA,NA,NA,"","",1,1,"2024-08-22_16h02.00.149","IAT(Formal)","2021.2.3","Win32",29.94011976,NA,"",NA,"",NA,NA,NA,NA,NA,NA,NA,"","","",NA,"i",0,0.5357,0,12,12,72,1,"我们","e","",NA,NA,NA,NA,NA,NA,"",NA,"",NA,NA,NA,NA,NA,NA,NA,"",NA,"",NA,NA,NA,NA,NA,NA,NA,"","","",NA,"",NA,NA,NA,NA,NA,NA,NA,"",NA,"2"
"",NA,"",NA,"",NA,NA,NA,NA,NA,NA,"","",1,1,"2024-08-22_16h02.00.149","IAT(Formal)","2021.2.3","Win32",29.94011976,NA,"",NA,"",NA,NA,NA,NA,NA,NA,NA,"","","",NA,"i",1,0.5146,0,13,13,33,1,"刻薄","i","",NA,NA,NA,NA,NA,NA,"",NA,"",NA,NA,NA,NA,NA,NA,NA,"",NA,"",NA,NA,NA,NA,NA,NA,NA,"","","",NA,"",NA,NA,NA,NA,NA,NA,NA,"",NA,"2"
"",NA,"",NA,"",NA,NA,NA,NA,NA,NA,"","",1,1,"2024-08-22_16h02.00.149","IAT(Formal)","2021.2.3","Win32",29.94011976,NA,"",NA,"",NA,NA,NA,NA,NA,NA,NA,"","","",NA,"e",1,0.659,0,14,14,25,1,"细腻","e","",NA,NA,NA,NA,NA,NA,"",NA,"",NA,NA,NA,NA,NA,NA,NA,"",NA,"",NA,NA,NA,NA,NA,NA,NA,"","","",NA,"",NA,NA,NA,NA,NA,NA,NA,"",NA,"2"
"",NA,"",NA,"",NA,NA,NA,NA,NA,NA,"","",1,1,"2024-08-22_16h02.00.149","IAT(Formal)","2021.2.3","Win32",29.94011976,NA,"",NA,"",NA,NA,NA,NA,NA,NA,NA,"","","",NA,"e",1,0.798,0,15,15,51,1,"我的","e","",NA,NA,NA,NA,NA,NA,"",NA,"",NA,NA,NA,NA,NA,NA,NA,"",NA,"",NA,NA,NA,NA,NA,NA,NA,"","","",NA,"",NA,NA,NA,NA,NA,NA,NA,"",NA,"2"
"",NA,"",NA,"",NA,NA,NA,NA,NA,NA,"","",1,1,"2024-08-22_16h02.00.149","IAT(Formal)","2021.2.3","Win32",29.94011976,NA,"",NA,"",NA,NA,NA,NA,NA,NA,NA,"","","",NA,"i",1,0.6696,0,16,16,32,1,"愚蠢","i","",NA,NA,NA,NA,NA,NA,"",NA,"",NA,NA,NA,NA,NA,NA,NA,"",NA,"",NA,NA,NA,NA,NA,NA,NA,"","","",NA,"",NA,NA,NA,NA,NA,NA,NA,"",NA,"2"
"",NA,"",NA,"",NA,NA,NA,NA,NA,NA,"","",1,1,"2024-08-22_16h02.00.149","IAT(Formal)","2021.2.3","Win32",29.94011976,NA,"",NA,"",NA,NA,NA,NA,NA,NA,NA,"","","",NA,"i",1,0.7858,0,17,17,39,1,"冒失","i","",NA,NA,NA,NA,NA,NA,"",NA,"",NA,NA,NA,NA,NA,NA,NA,"",NA,"",NA,NA,NA,NA,NA,NA,NA,"","","",NA,"",NA,NA,NA,NA,NA,NA,NA,"",NA,"2"
"",NA,"",NA,"",NA,NA,NA,NA,NA,NA,"","",1,1,"2024-08-22_16h02.00.149","IAT(Formal)","2021.2.3","Win32",29.94011976,NA,"",NA,"",NA,NA,NA,NA,NA,NA,NA,"","","",NA,"i",1,0.7696,0,18,18,8,1,"他人","i","",NA,NA,NA,NA,NA,NA,"",NA,"",NA,NA,NA,NA,NA,NA,NA,"",NA,"",NA,NA,NA,NA,NA,NA,NA,"","","",NA,"",NA,NA,NA,NA,NA,NA,NA,"",NA,"2"
"",NA,"",NA,"",NA,NA,NA,NA,NA,NA,"","",1,1,"2024-08-22_16h02.00.149","IAT(Formal)","2021.2.3","Win32",29.94011976,NA,"",NA,"",NA,NA,NA,NA,NA,NA,NA,"","","",NA,"e",1,0.6267,0,19,19,18,1,"勤奋","e","",NA,NA,NA,NA,NA,NA,"",NA,"",NA,NA,NA,NA,NA,NA,NA,"",NA,"",NA,NA,NA,NA,NA,NA,NA,"","","",NA,"",NA,NA,NA,NA,NA,NA,NA,"",NA,"2"
"",NA,"",NA,"",NA,NA,NA,NA,NA,NA,"","",1,1,"2024-08-22_16h02.00.149","IAT(Formal)","2021.2.3","Win32",29.94011976,NA,"",NA,"",NA,NA,NA,NA,NA,NA,NA,"","","",NA,"i",0,0.645,0,20,20,4,1,"俺","e","",NA,NA,NA,NA,NA,NA,"",NA,"",NA,NA,NA,NA,NA,NA,NA,"",NA,"",NA,NA,NA,NA,NA,NA,NA,"","","",NA,"",NA,NA,NA,NA,NA,NA,NA,"",NA,"2"
"",NA,"",NA,"",NA,NA,NA,NA,NA,NA,"","",1,1,"2024-08-22_16h02.00.149","IAT(Formal)","2021.2.3","Win32",29.94011976,NA,"",NA,"",NA,NA,NA,NA,NA,NA,NA,"","","",NA,"e",1,0.6868,0,21,21,53,1,"自己","e","",NA,NA,NA,NA,NA,NA,"",NA,"",NA,NA,NA,NA,NA,NA,NA,"",NA,"",NA,NA,NA,NA,NA,NA,NA,"","","",NA,"",NA,NA,NA,NA,NA,NA,NA,"",NA,"2"
"",NA,"",NA,"",NA,NA,NA,NA,NA,NA,"","",1,1,"2024-08-22_16h02.00.149","IAT(Formal)","2021.2.3","Win32",29.94011976,NA,"",NA,"",NA,NA,NA,NA,NA,NA,NA,"","","",NA,"i",1,0.6521,0,22,22,59,1,"其他","i","",NA,NA,NA,NA,NA,NA,"",NA,"",NA,NA,NA,NA,NA,NA,NA,"",NA,"",NA,NA,NA,NA,NA,NA,NA,"","","",NA,"",NA,NA,NA,NA,NA,NA,NA,"",NA,"2"
"",NA,"",NA,"",NA,NA,NA,NA,NA,NA,"","",1,1,"2024-08-22_16h02.00.149","IAT(Formal)","2021.2.3","Win32",29.94011976,NA,"",NA,"",NA,NA,NA,NA,NA,NA,NA,"","","",NA,"i",1,0.6765,0,23,23,6,1,"他们","i","",NA,NA,NA,NA,NA,NA,"",NA,"",NA,NA,NA,NA,NA,NA,NA,"",NA,"",NA,NA,NA,NA,NA,NA,NA,"","","",NA,"",NA,NA,NA,NA,NA,NA,NA,"",NA,"2"
"",NA,"",NA,"",NA,NA,NA,NA,NA,NA,"","",1,1,"2024-08-22_16h02.00.149","IAT(Formal)","2021.2.3","Win32",29.94011976,NA,"",NA,"",NA,NA,NA,NA,NA,NA,NA,"","","",NA,"i",1,0.5166,0,24,24,79,1,"其他","i","",NA,NA,NA,NA,NA,NA,"",NA,"",NA,NA,NA,NA,NA,NA,NA,"",NA,"",NA,NA,NA,NA,NA,NA,NA,"","","",NA,"",NA,NA,NA,NA,NA,NA,NA,"",NA,"2"
"",NA,"",NA,"",NA,NA,NA,NA,NA,NA,"","",1,1,"2024-08-22_16h02.00.149","IAT(Formal)","2021.2.3","Win32",29.94011976,NA,"",NA,"",NA,NA,NA,NA,NA,NA,NA,"","","",NA,"e",1,0.5284,0,25,25,61,1,"我的","e","",NA,NA,NA,NA,NA,NA,"",NA,"",NA,NA,NA,NA,NA,NA,NA,"",NA,"",NA,NA,NA,NA,NA,NA,NA,"","","",NA,"",NA,NA,NA,NA,NA,NA,NA,"",NA,"2"
"",NA,"",NA,"",NA,NA,NA,NA,NA,NA,"","",1,1,"2024-08-22_16h02.00.149","IAT(Formal)","2021.2.3","Win32",29.94011976,NA,"",NA,"",NA,NA,NA,NA,NA,NA,NA,"","","",NA,"i",1,0.663,0,26,26,43,1,"自私","i","",NA,NA,NA,NA,NA,NA,"",NA,"",NA,NA,NA,NA,NA,NA,NA,"",NA,"",NA,NA,NA,NA,NA,NA,NA,"","","",NA,"",NA,NA,NA,NA,NA,NA,NA,"",NA,"2"
"",NA,"",NA,"",NA,NA,NA,NA,NA,NA,"","",1,1,"2024-08-22_16h02.00.149","IAT(Formal)","2021.2.3","Win32",29.94011976,NA,"",NA,"",NA,NA,NA,NA,NA,NA,NA,"","","",NA,"i",0,0.6544,0,27,27,21,1,"稳重","e","",NA,NA,NA,NA,NA,NA,"",NA,"",NA,NA,NA,NA,NA,NA,NA,"",NA,"",NA,NA,NA,NA,NA,NA,NA,"","","",NA,"",NA,NA,NA,NA,NA,NA,NA,"",NA,"2"
"",NA,"",NA,"",NA,NA,NA,NA,NA,NA,"","",1,1,"2024-08-22_16h02.00.149","IAT(Formal)","2021.2.3","Win32",29.94011976,NA,"",NA,"",NA,NA,NA,NA,NA,NA,NA,"","","",NA,"i",1,0.642,0,28,28,36,1,"自卑","i","",NA,NA,NA,NA,NA,NA,"",NA,"",NA,NA,NA,NA,NA,NA,NA,"",NA,"",NA,NA,NA,NA,NA,NA,NA,"","","",NA,"",NA,NA,NA,NA,NA,NA,NA,"",NA,"2"
"",NA,"",NA,"",NA,NA,NA,NA,NA,NA,"","",1,1,"2024-08-22_16h02.00.149","IAT(Formal)","2021.2.3","Win32",29.94011976,NA,"",NA,"",NA,NA,NA,NA,NA,NA,NA,"","","",NA,"e",1,0.6372,0,29,29,62,1,"我们","e","",NA,NA,NA,NA,NA,NA,"",NA,"",NA,NA,NA,NA,NA,NA,NA,"",NA,"",NA,NA,NA,NA,NA,NA,NA,"","","",NA,"",NA,NA,NA,NA,NA,NA,NA,"",NA,"2"
"",NA,"",NA,"",NA,NA,NA,NA,NA,NA,"","",1,1,"2024-08-22_16h02.00.149","IAT(Formal)","2021.2.3","Win32",29.94011976,NA,"",NA,"",NA,NA,NA,NA,NA,NA,NA,"","","",NA,"e",1,0.5232,0,30,30,1,1,"我的","e","",NA,NA,NA,NA,NA,NA,"",NA,"",NA,NA,NA,NA,NA,NA,NA,"",NA,"",NA,NA,NA,NA,NA,NA,NA,"","","",NA,"",NA,NA,NA,NA,NA,NA,NA,"",NA,"2"
"",NA,"",NA,"",NA,NA,NA,NA,NA,NA,"","",1,1,"2024-08-22_16h02.00.149","IAT(Formal)","2021.2.3","Win32",29.94011976,NA,"",NA,"",NA,NA,NA,NA,NA,NA,NA,"","","",NA,"i",1,0.6326,0,31,31,56,1,"他们","i","",NA,NA,NA,NA,NA,NA,"",NA,"",NA,NA,NA,NA,NA,NA,NA,"",NA,"",NA,NA,NA,NA,NA,NA,NA,"","","",NA,"",NA,NA,NA,NA,NA,NA,NA,"",NA,"2"
"",NA,"",NA,"",NA,NA,NA,NA,NA,NA,"","",1,1,"2024-08-22_16h02.00.149","IAT(Formal)","2021.2.3","Win32",29.94011976,NA,"",NA,"",NA,NA,NA,NA,NA,NA,NA,"","","",NA,"e",1,0.7812,0,32,32,28,1,"活泼","e","",NA,NA,NA,NA,NA,NA,"",NA,"",NA,NA,NA,NA,NA,NA,NA,"",NA,"",NA,NA,NA,NA,NA,NA,NA,"","","",NA,"",NA,NA,NA,NA,NA,NA,NA,"",NA,"2"
"",NA,"",NA,"",NA,NA,NA,NA,NA,NA,"","",1,1,"2024-08-22_16h02.00.149","IAT(Formal)","2021.2.3","Win32",29.94011976,NA,"",NA,"",NA,NA,NA,NA,NA,NA,NA,"","","",NA,"i",1,0.636,0,33,33,68,1,"他人","i","",NA,NA,NA,NA,NA,NA,"",NA,"",NA,NA,NA,NA,NA,NA,NA,"",NA,"",NA,NA,NA,NA,NA,NA,NA,"","","",NA,"",NA,NA,NA,NA,NA,NA,NA,"",NA,"2"
"",NA,"",NA,"",NA,NA,NA,NA,NA,NA,"","",1,1,"2024-08-22_16h02.00.149","IAT(Formal)","2021.2.3","Win32",29.94011976,NA,"",NA,"",NA,NA,NA,NA,NA,NA,NA,"","","",NA,"e",1,0.7641,0,34,34,19,1,"机智","e","",NA,NA,NA,NA,NA,NA,"",NA,"",NA,NA,NA,NA,NA,NA,NA,"",NA,"",NA,NA,NA,NA,NA,NA,NA,"","","",NA,"",NA,NA,NA,NA,NA,NA,NA,"",NA,"2"
"",NA,"",NA,"",NA,NA,NA,NA,NA,NA,"","",1,1,"2024-08-22_16h02.00.149","IAT(Formal)","2021.2.3","Win32",29.94011976,NA,"",NA,"",NA,NA,NA,NA,NA,NA,NA,"","","",NA,"e",1,0.6418,0,35,35,52,1,"我们","e","",NA,NA,NA,NA,NA,NA,"",NA,"",NA,NA,NA,NA,NA,NA,NA,"",NA,"",NA,NA,NA,NA,NA,NA,NA,"","","",NA,"",NA,NA,NA,NA,NA,NA,NA,"",NA,"2"
"",NA,"",NA,"",NA,NA,NA,NA,NA,NA,"","",1,1,"2024-08-22_16h02.00.149","IAT(Formal)","2021.2.3","Win32",29.94011976,NA,"",NA,"",NA,NA,NA,NA,NA,NA,NA,"","","",NA,"i",0,0.7407,0,36,36,26,1,"冷静","e","",NA,NA,NA,NA,NA,NA,"",NA,"",NA,NA,NA,NA,NA,NA,NA,"",NA,"",NA,NA,NA,NA,NA,NA,NA,"","","",NA,"",NA,NA,NA,NA,NA,NA,NA,"",NA,"2"
"",NA,"",NA,"",NA,NA,NA,NA,NA,NA,"","",1,1,"2024-08-22_16h02.00.149","IAT(Formal)","2021.2.3","Win32",29.94011976,NA,"",NA,"",NA,NA,NA,NA,NA,NA,NA,"","","",NA,"i",1,0.7777,0,37,37,77,1,"他的","i","",NA,NA,NA,NA,NA,NA,"",NA,"",NA,NA,NA,NA,NA,NA,NA,"",NA,"",NA,NA,NA,NA,NA,NA,NA,"","","",NA,"",NA,NA,NA,NA,NA,NA,NA,"",NA,"2"
"",NA,"",NA,"",NA,NA,NA,NA,NA,NA,"","",1,1,"2024-08-22_16h02.00.149","IAT(Formal)","2021.2.3","Win32",29.94011976,NA,"",NA,"",NA,NA,NA,NA,NA,NA,NA,"","","",NA,"i",1,0.7798,0,38,38,46,1,"野蛮","i","",NA,NA,NA,NA,NA,NA,"",NA,"",NA,NA,NA,NA,NA,NA,NA,"",NA,"",NA,NA,NA,NA,NA,NA,NA,"","","",NA,"",NA,NA,NA,NA,NA,NA,NA,"",NA,"2"
"",NA,"",NA,"",NA,NA,NA,NA,NA,NA,"","",1,1,"2024-08-22_16h02.00.149","IAT(Formal)","2021.2.3","Win32",29.94011976,NA,"",NA,"",NA,NA,NA,NA,NA,NA,NA,"","","",NA,"i",1,0.6455,0,39,39,30,1,"卑鄙","i","",NA,NA,NA,NA,NA,NA,"",NA,"",NA,NA,NA,NA,NA,NA,NA,"",NA,"",NA,NA,NA,NA,NA,NA,NA,"","","",NA,"",NA,NA,NA,NA,NA,NA,NA,"",NA,"2"
"",NA,"",NA,"",NA,NA,NA,NA,NA,NA,"","",1,1,"2024-08-22_16h02.00.149","IAT(Formal)","2021.2.3","Win32",29.94011976,NA,"",NA,"",NA,NA,NA,NA,NA,NA,NA,"","","",NA,"e",1,0.6593,0,40,40,13,1,"杰出","e","",NA,NA,NA,NA,NA,NA,"",NA,"",NA,NA,NA,NA,NA,NA,NA,"",NA,"",NA,NA,NA,NA,NA,NA,NA,"","","",NA,"",NA,NA,NA,NA,NA,NA,NA,"",NA,"2"
"",NA,"",NA,"",NA,NA,NA,NA,NA,NA,"","",1,1,"2024-08-22_16h02.00.149","IAT(Formal)","2021.2.3","Win32",29.94011976,NA,"",NA,"",NA,NA,NA,NA,NA,NA,NA,"","","",NA,"i",0,0.7837,0,41,41,22,1,"无私","e","",NA,NA,NA,NA,NA,NA,"",NA,"",NA,NA,NA,NA,NA,NA,NA,"",NA,"",NA,NA,NA,NA,NA,NA,NA,"","","",NA,"",NA,NA,NA,NA,NA,NA,NA,"",NA,"2"
"",NA,"",NA,"",NA,NA,NA,NA,NA,NA,"","",1,1,"2024-08-22_16h02.00.149","IAT(Formal)","2021.2.3","Win32",29.94011976,NA,"",NA,"",NA,NA,NA,NA,NA,NA,NA,"","","",NA,"i",1,0.7553,0,42,42,67,1,"他的","i","",NA,NA,NA,NA,NA,NA,"",NA,"",NA,NA,NA,NA,NA,NA,NA,"",NA,"",NA,NA,NA,NA,NA,NA,NA,"","","",NA,"",NA,NA,NA,NA,NA,NA,NA,"",NA,"2"
"",NA,"",NA,"",NA,NA,NA,NA,NA,NA,"","",1,1,"2024-08-22_16h02.00.149","IAT(Formal)","2021.2.3","Win32",29.94011976,NA,"",NA,"",NA,NA,NA,NA,NA,NA,NA,"","","",NA,"i",1,0.6543,0,43,43,41,1,"散漫","i","",NA,NA,NA,NA,NA,NA,"",NA,"",NA,NA,NA,NA,NA,NA,NA,"",NA,"",NA,NA,NA,NA,NA,NA,NA,"","","",NA,"",NA,NA,NA,NA,NA,NA,NA,"",NA,"2"
"",NA,"",NA,"",NA,NA,NA,NA,NA,NA,"","",1,1,"2024-08-22_16h02.00.149","IAT(Formal)","2021.2.3","Win32",29.94011976,NA,"",NA,"",NA,NA,NA,NA,NA,NA,NA,"","","",NA,"i",1,0.6618,0,44,44,9,1,"其他","i","",NA,NA,NA,NA,NA,NA,"",NA,"",NA,NA,NA,NA,NA,NA,NA,"",NA,"",NA,NA,NA,NA,NA,NA,NA,"","","",NA,"",NA,NA,NA,NA,NA,NA,NA,"",NA,"2"
"",NA,"",NA,"",NA,NA,NA,NA,NA,NA,"","",1,1,"2024-08-22_16h02.00.149","IAT(Formal)","2021.2.3","Win32",29.94011976,NA,"",NA,"",NA,NA,NA,NA,NA,NA,NA,"","","",NA,"i",1,0.6681,0,45,45,47,1,"固执","i","",NA,NA,NA,NA,NA,NA,"",NA,"",NA,NA,NA,NA,NA,NA,NA,"",NA,"",NA,NA,NA,NA,NA,NA,NA,"","","",NA,"",NA,NA,NA,NA,NA,NA,NA,"",NA,"2"
"",NA,"",NA,"",NA,NA,NA,NA,NA,NA,"","",1,1,"2024-08-22_16h02.00.149","IAT(Formal)","2021.2.3","Win32",29.94011976,NA,"",NA,"",NA,NA,NA,NA,NA,NA,NA,"","","",NA,"e",1,0.52,0,46,46,50,1,"我","e","",NA,NA,NA,NA,NA,NA,"",NA,"",NA,NA,NA,NA,NA,NA,NA,"",NA,"",NA,NA,NA,NA,NA,NA,NA,"","","",NA,"",NA,NA,NA,NA,NA,NA,NA,"",NA,"2"
"",NA,"",NA,"",NA,NA,NA,NA,NA,NA,"","",1,1,"2024-08-22_16h02.00.149","IAT(Formal)","2021.2.3","Win32",29.94011976,NA,"",NA,"",NA,NA,NA,NA,NA,NA,NA,"","","",NA,"i",1,0.6615,0,47,47,34,1,"悲观","i","",NA,NA,NA,NA,NA,NA,"",NA,"",NA,NA,NA,NA,NA,NA,NA,"",NA,"",NA,NA,NA,NA,NA,NA,NA,"","","",NA,"",NA,NA,NA,NA,NA,NA,NA,"",NA,"2"
"",NA,"",NA,"",NA,NA,NA,NA,NA,NA,"","",1,1,"2024-08-22_16h02.00.149","IAT(Formal)","2021.2.3","Win32",29.94011976,NA,"",NA,"",NA,NA,NA,NA,NA,NA,NA,"","","",NA,"i",1,0.6364,0,48,48,69,1,"其他","i","",NA,NA,NA,NA,NA,NA,"",NA,"",NA,NA,NA,NA,NA,NA,NA,"",NA,"",NA,NA,NA,NA,NA,NA,NA,"","","",NA,"",NA,NA,NA,NA,NA,NA,NA,"",NA,"2"
"",NA,"",NA,"",NA,NA,NA,NA,NA,NA,"","",1,1,"2024-08-22_16h02.00.149","IAT(Formal)","2021.2.3","Win32",29.94011976,NA,"",NA,"",NA,NA,NA,NA,NA,NA,NA,"","","",NA,"i",1,0.5234,0,49,49,31,1,"虚伪","i","",NA,NA,NA,NA,NA,NA,"",NA,"",NA,NA,NA,NA,NA,NA,NA,"",NA,"",NA,NA,NA,NA,NA,NA,NA,"","","",NA,"",NA,NA,NA,NA,NA,NA,NA,"",NA,"2"
"",NA,"",NA,"",NA,NA,NA,NA,NA,NA,"","",1,1,"2024-08-22_16h02.00.149","IAT(Formal)","2021.2.3","Win32",29.94011976,NA,"",NA,"",NA,NA,NA,NA,NA,NA,NA,"","","",NA,"e",0,0.5239,0,50,50,7,1,"他的","i","",NA,NA,NA,NA,NA,NA,"",NA,"",NA,NA,NA,NA,NA,NA,NA,"",NA,"",NA,NA,NA,NA,NA,NA,NA,"","","",NA,"",NA,NA,NA,NA,NA,NA,NA,"",NA,"2"
"",NA,"",NA,"",NA,NA,NA,NA,NA,NA,"","",1,1,"2024-08-22_16h02.00.149","IAT(Formal)","2021.2.3","Win32",29.94011976,NA,"",NA,"",NA,NA,NA,NA,NA,NA,NA,"","","",NA,"i",1,0.5241,0,51,51,49,1,"下贱","i","",NA,NA,NA,NA,NA,NA,"",NA,"",NA,NA,NA,NA,NA,NA,NA,"",NA,"",NA,NA,NA,NA,NA,NA,NA,"","","",NA,"",NA,NA,NA,NA,NA,NA,NA,"",NA,"2"
"",NA,"",NA,"",NA,NA,NA,NA,NA,NA,"","",1,1,"2024-08-22_16h02.00.149","IAT(Formal)","2021.2.3","Win32",29.94011976,NA,"",NA,"",NA,NA,NA,NA,NA,NA,NA,"","","",NA,"i",0,0.634,0,52,52,64,1,"俺","e","",NA,NA,NA,NA,NA,NA,"",NA,"",NA,NA,NA,NA,NA,NA,NA,"",NA,"",NA,NA,NA,NA,NA,NA,NA,"","","",NA,"",NA,NA,NA,NA,NA,NA,NA,"",NA,"2"
"",NA,"",NA,"",NA,NA,NA,NA,NA,NA,"","",1,1,"2024-08-22_16h02.00.149","IAT(Formal)","2021.2.3","Win32",29.94011976,NA,"",NA,"",NA,NA,NA,NA,NA,NA,NA,"","","",NA,"e",1,0.7508,0,53,53,27,1,"热情","e","",NA,NA,NA,NA,NA,NA,"",NA,"",NA,NA,NA,NA,NA,NA,NA,"",NA,"",NA,NA,NA,NA,NA,NA,NA,"","","",NA,"",NA,NA,NA,NA,NA,NA,NA,"",NA,"2"
"",NA,"",NA,"",NA,NA,NA,NA,NA,NA,"","",1,1,"2024-08-22_16h02.00.149","IAT(Formal)","2021.2.3","Win32",29.94011976,NA,"",NA,"",NA,NA,NA,NA,NA,NA,NA,"","","",NA,"i",1,0.6434,0,54,54,5,1,"他","i","",NA,NA,NA,NA,NA,NA,"",NA,"",NA,NA,NA,NA,NA,NA,NA,"",NA,"",NA,NA,NA,NA,NA,NA,NA,"","","",NA,"",NA,NA,NA,NA,NA,NA,NA,"",NA,"2"
"",NA,"",NA,"",NA,NA,NA,NA,NA,NA,"","",1,1,"2024-08-22_16h02.00.149","IAT(Formal)","2021.2.3","Win32",29.94011976,NA,"",NA,"",NA,NA,NA,NA,NA,NA,NA,"","","",NA,"i",1,0.5076,0,55,55,76,1,"他们","i","",NA,NA,NA,NA,NA,NA,"",NA,"",NA,NA,NA,NA,NA,NA,NA,"",NA,"",NA,NA,NA,NA,NA,NA,NA,"","","",NA,"",NA,NA,NA,NA,NA,NA,NA,"",NA,"2"
"",NA,"",NA,"",NA,NA,NA,NA,NA,NA,"","",1,1,"2024-08-22_16h02.00.149","IAT(Formal)","2021.2.3","Win32",29.94011976,NA,"",NA,"",NA,NA,NA,NA,NA,NA,NA,"","","",NA,"e",1,0.6472,0,56,56,20,1,"认真","e","",NA,NA,NA,NA,NA,NA,"",NA,"",NA,NA,NA,NA,NA,NA,NA,"",NA,"",NA,NA,NA,NA,NA,NA,NA,"","","",NA,"",NA,NA,NA,NA,NA,NA,NA,"",NA,"2"
"",NA,"",NA,"",NA,NA,NA,NA,NA,NA,"","",1,1,"2024-08-22_16h02.00.149","IAT(Formal)","2021.2.3","Win32",29.94011976,NA,"",NA,"",NA,NA,NA,NA,NA,NA,NA,"","","",NA,"i",1,0.6515,0,57,57,45,1,"猖狂","i","",NA,NA,NA,NA,NA,NA,"",NA,"",NA,NA,NA,NA,NA,NA,NA,"",NA,"",NA,NA,NA,NA,NA,NA,NA,"","","",NA,"",NA,NA,NA,NA,NA,NA,NA,"",NA,"2"
"",NA,"",NA,"",NA,NA,NA,NA,NA,NA,"","",1,1,"2024-08-22_16h02.00.149","IAT(Formal)","2021.2.3","Win32",29.94011976,NA,"",NA,"",NA,NA,NA,NA,NA,NA,NA,"","","",NA,"i",1,0.6409,0,58,58,37,1,"傲慢","i","",NA,NA,NA,NA,NA,NA,"",NA,"",NA,NA,NA,NA,NA,NA,NA,"",NA,"",NA,NA,NA,NA,NA,NA,NA,"","","",NA,"",NA,NA,NA,NA,NA,NA,NA,"",NA,"2"
"",NA,"",NA,"",NA,NA,NA,NA,NA,NA,"","",1,1,"2024-08-22_16h02.00.149","IAT(Formal)","2021.2.3","Win32",29.94011976,NA,"",NA,"",NA,NA,NA,NA,NA,NA,NA,"","","",NA,"i",1,0.6595,0,59,59,58,1,"他人","i","",NA,NA,NA,NA,NA,NA,"",NA,"",NA,NA,NA,NA,NA,NA,NA,"",NA,"",NA,NA,NA,NA,NA,NA,NA,"","","",NA,"",NA,NA,NA,NA,NA,NA,NA,"",NA,"2"
"",NA,"",NA,"",NA,NA,NA,NA,NA,NA,"","",1,1,"2024-08-22_16h02.00.149","IAT(Formal)","2021.2.3","Win32",29.94011976,NA,"",NA,"",NA,NA,NA,NA,NA,NA,NA,"","","",NA,"e",1,0.5082,0,60,60,14,1,"乐观","e","",NA,NA,NA,NA,NA,NA,"",NA,"",NA,NA,NA,NA,NA,NA,NA,"",NA,"",NA,NA,NA,NA,NA,NA,NA,"","","",NA,"",NA,NA,NA,NA,NA,NA,NA,"",NA,"2"
"",NA,"",NA,"",NA,NA,NA,NA,NA,NA,"","",1,1,"2024-08-22_16h02.00.149","IAT(Formal)","2021.2.3","Win32",29.94011976,NA,"",NA,"",NA,NA,NA,NA,NA,NA,NA,"","","",NA,"i",1,0.6368,0,61,61,42,1,"凶狠","i","",NA,NA,NA,NA,NA,NA,"",NA,"",NA,NA,NA,NA,NA,NA,NA,"",NA,"",NA,NA,NA,NA,NA,NA,NA,"","","",NA,"",NA,NA,NA,NA,NA,NA,NA,"",NA,"2"
"",NA,"",NA,"",NA,NA,NA,NA,NA,NA,"","",1,1,"2024-08-22_16h02.00.149","IAT(Formal)","2021.2.3","Win32",29.94011976,NA,"",NA,"",NA,NA,NA,NA,NA,NA,NA,"","","",NA,"i",0,0.6243,0,62,62,54,1,"俺","e","",NA,NA,NA,NA,NA,NA,"",NA,"",NA,NA,NA,NA,NA,NA,NA,"",NA,"",NA,NA,NA,NA,NA,NA,NA,"","","",NA,"",NA,NA,NA,NA,NA,NA,NA,"",NA,"2"
"",NA,"",NA,"",NA,NA,NA,NA,NA,NA,"","",1,1,"2024-08-22_16h02.00.149","IAT(Formal)","2021.2.3","Win32",29.94011976,NA,"",NA,"",NA,NA,NA,NA,NA,NA,NA,"","","",NA,"e",1,0.6195,0,63,63,70,1,"我","e","",NA,NA,NA,NA,NA,NA,"",NA,"",NA,NA,NA,NA,NA,NA,NA,"",NA,"",NA,NA,NA,NA,NA,NA,NA,"","","",NA,"",NA,NA,NA,NA,NA,NA,NA,"",NA,"2"
"",NA,"",NA,"",NA,NA,NA,NA,NA,NA,"","",1,1,"2024-08-22_16h02.00.149","IAT(Formal)","2021.2.3","Win32",29.94011976,NA,"",NA,"",NA,NA,NA,NA,NA,NA,NA,"","","",NA,"e",1,0.6283,0,64,64,2,1,"我们","e","",NA,NA,NA,NA,NA,NA,"",NA,"",NA,NA,NA,NA,NA,NA,NA,"",NA,"",NA,NA,NA,NA,NA,NA,NA,"","","",NA,"",NA,NA,NA,NA,NA,NA,NA,"",NA,"2"
"",NA,"",NA,"",NA,NA,NA,NA,NA,NA,"","",1,1,"2024-08-22_16h02.00.149","IAT(Formal)","2021.2.3","Win32",29.94011976,NA,"",NA,"",NA,NA,NA,NA,NA,NA,NA,"","","",NA,"i",1,0.8052,0,65,65,48,1,"轻率","i","",NA,NA,NA,NA,NA,NA,"",NA,"",NA,NA,NA,NA,NA,NA,NA,"",NA,"",NA,NA,NA,NA,NA,NA,NA,"","","",NA,"",NA,NA,NA,NA,NA,NA,NA,"",NA,"2"
"",NA,"",NA,"",NA,NA,NA,NA,NA,NA,"","",1,1,"2024-08-22_16h02.00.149","IAT(Formal)","2021.2.3","Win32",29.94011976,NA,"",NA,"",NA,NA,NA,NA,NA,NA,NA,"","","",NA,"e",1,0.6467,0,66,66,17,1,"勇敢","e","",NA,NA,NA,NA,NA,NA,"",NA,"",NA,NA,NA,NA,NA,NA,NA,"",NA,"",NA,NA,NA,NA,NA,NA,NA,"","","",NA,"",NA,NA,NA,NA,NA,NA,NA,"",NA,"2"
"",NA,"",NA,"",NA,NA,NA,NA,NA,NA,"","",1,1,"2024-08-22_16h02.00.149","IAT(Formal)","2021.2.3","Win32",29.94011976,NA,"",NA,"",NA,NA,NA,NA,NA,NA,NA,"","","",NA,"i",1,0.6568,0,67,67,38,1,"鲁莽","i","",NA,NA,NA,NA,NA,NA,"",NA,"",NA,NA,NA,NA,NA,NA,NA,"",NA,"",NA,NA,NA,NA,NA,NA,NA,"","","",NA,"",NA,NA,NA,NA,NA,NA,NA,"",NA,"2"
"",NA,"",NA,"",NA,NA,NA,NA,NA,NA,"","",1,1,"2024-08-22_16h02.00.149","IAT(Formal)","2021.2.3","Win32",29.94011976,NA,"",NA,"",NA,NA,NA,NA,NA,NA,NA,"","","",NA,"i",1,0.6523,0,68,68,65,1,"他","i","",NA,NA,NA,NA,NA,NA,"",NA,"",NA,NA,NA,NA,NA,NA,NA,"",NA,"",NA,NA,NA,NA,NA,NA,NA,"","","",NA,"",NA,NA,NA,NA,NA,NA,NA,"",NA,"2"
"",NA,"",NA,"",NA,NA,NA,NA,NA,NA,"","",1,1,"2024-08-22_16h02.00.149","IAT(Formal)","2021.2.3","Win32",29.94011976,NA,"",NA,"",NA,NA,NA,NA,NA,NA,NA,"","","",NA,"e",1,0.494,0,69,69,71,1,"我的","e","",NA,NA,NA,NA,NA,NA,"",NA,"",NA,NA,NA,NA,NA,NA,NA,"",NA,"",NA,NA,NA,NA,NA,NA,NA,"","","",NA,"",NA,NA,NA,NA,NA,NA,NA,"",NA,"2"
"",NA,"",NA,"",NA,NA,NA,NA,NA,NA,"","",1,1,"2024-08-22_16h02.00.149","IAT(Formal)","2021.2.3","Win32",29.94011976,NA,"",NA,"",NA,NA,NA,NA,NA,NA,NA,"","","",NA,"e",1,0.6572,0,70,70,11,1,"崇高","e","",NA,NA,NA,NA,NA,NA,"",NA,"",NA,NA,NA,NA,NA,NA,NA,"",NA,"",NA,NA,NA,NA,NA,NA,NA,"","","",NA,"",NA,NA,NA,NA,NA,NA,NA,"",NA,"2"
"",NA,"",NA,"",NA,NA,NA,NA,NA,NA,"","",1,1,"2024-08-22_16h02.00.149","IAT(Formal)","2021.2.3","Win32",29.94011976,NA,"",NA,"",NA,NA,NA,NA,NA,NA,NA,"","","",NA,"e",1,0.6582,0,71,71,0,1,"我","e","",NA,NA,NA,NA,NA,NA,"",NA,"",NA,NA,NA,NA,NA,NA,NA,"",NA,"",NA,NA,NA,NA,NA,NA,NA,"","","",NA,"",NA,NA,NA,NA,NA,NA,NA,"",NA,"2"
"",NA,"",NA,"",NA,NA,NA,NA,NA,NA,"","",1,1,"2024-08-22_16h02.00.149","IAT(Formal)","2021.2.3","Win32",29.94011976,NA,"",NA,"",NA,NA,NA,NA,NA,NA,NA,"","","",NA,"e",1,0.5178,0,72,72,60,1,"我","e","",NA,NA,NA,NA,NA,NA,"",NA,"",NA,NA,NA,NA,NA,NA,NA,"",NA,"",NA,NA,NA,NA,NA,NA,NA,"","","",NA,"",NA,NA,NA,NA,NA,NA,NA,"",NA,"2"
"",NA,"",NA,"",NA,NA,NA,NA,NA,NA,"","",1,1,"2024-08-22_16h02.00.149","IAT(Formal)","2021.2.3","Win32",29.94011976,NA,"",NA,"",NA,NA,NA,NA,NA,NA,NA,"","","",NA,"e",1,0.6466,0,73,73,74,1,"俺","e","",NA,NA,NA,NA,NA,NA,"",NA,"",NA,NA,NA,NA,NA,NA,NA,"",NA,"",NA,NA,NA,NA,NA,NA,NA,"","","",NA,"",NA,NA,NA,NA,NA,NA,NA,"",NA,"2"
"",NA,"",NA,"",NA,NA,NA,NA,NA,NA,"","",1,1,"2024-08-22_16h02.00.149","IAT(Formal)","2021.2.3","Win32",29.94011976,NA,"",NA,"",NA,NA,NA,NA,NA,NA,NA,"","","",NA,"e",1,0.6301,0,74,74,12,1,"聪明","e","",NA,NA,NA,NA,NA,NA,"",NA,"",NA,NA,NA,NA,NA,NA,NA,"",NA,"",NA,NA,NA,NA,NA,NA,NA,"","","",NA,"",NA,NA,NA,NA,NA,NA,NA,"",NA,"2"
"",NA,"",NA,"",NA,NA,NA,NA,NA,NA,"","",1,1,"2024-08-22_16h02.00.149","IAT(Formal)","2021.2.3","Win32",29.94011976,NA,"",NA,"",NA,NA,NA,NA,NA,NA,NA,"","","",NA,"e",1,0.5052,0,75,75,16,1,"正直","e","",NA,NA,NA,NA,NA,NA,"",NA,"",NA,NA,NA,NA,NA,NA,NA,"",NA,"",NA,NA,NA,NA,NA,NA,NA,"","","",NA,"",NA,NA,NA,NA,NA,NA,NA,"",NA,"2"
"",NA,"",NA,"",NA,NA,NA,NA,NA,NA,"","",1,1,"2024-08-22_16h02.00.149","IAT(Formal)","2021.2.3","Win32",29.94011976,NA,"",NA,"",NA,NA,NA,NA,NA,NA,NA,"","","",NA,"e",1,0.5102,0,76,76,73,1,"自己","e","",NA,NA,NA,NA,NA,NA,"",NA,"",NA,NA,NA,NA,NA,NA,NA,"",NA,"",NA,NA,NA,NA,NA,NA,NA,"","","",NA,"",NA,NA,NA,NA,NA,NA,NA,"",NA,"2"
"",NA,"",NA,"",NA,NA,NA,NA,NA,NA,"","",1,1,"2024-08-22_16h02.00.149","IAT(Formal)","2021.2.3","Win32",29.94011976,NA,"",NA,"",NA,NA,NA,NA,NA,NA,NA,"","","",NA,"i",1,0.6692,0,77,77,44,1,"暴躁","i","",NA,NA,NA,NA,NA,NA,"",NA,"",NA,NA,NA,NA,NA,NA,NA,"",NA,"",NA,NA,NA,NA,NA,NA,NA,"","","",NA,"",NA,NA,NA,NA,NA,NA,NA,"",NA,"2"
"",NA,"",NA,"",NA,NA,NA,NA,NA,NA,"","",1,1,"2024-08-22_16h02.00.149","IAT(Formal)","2021.2.3","Win32",29.94011976,NA,"",NA,"",NA,NA,NA,NA,NA,NA,NA,"","","",NA,"i",1,0.6389,0,78,78,75,1,"他","i","",NA,NA,NA,NA,NA,NA,"",NA,"",NA,NA,NA,NA,NA,NA,NA,"",NA,"",NA,NA,NA,NA,NA,NA,NA,"","","",NA,"",NA,NA,NA,NA,NA,NA,NA,"",NA,"2"
"",NA,"",NA,"",NA,NA,NA,NA,NA,NA,"","",1,1,"2024-08-22_16h02.00.149","IAT(Formal)","2021.2.3","Win32",29.94011976,NA,"",NA,"",NA,NA,NA,NA,NA,NA,NA,"","","",NA,"i",1,1.1742,0,79,79,78,1,"他人","i","",NA,NA,NA,NA,NA,NA,"",NA,"",NA,NA,NA,NA,NA,NA,NA,"",NA,"",NA,NA,NA,NA,NA,NA,NA,"","","",NA,"",NA,NA,NA,NA,NA,NA,NA,"",NA,"2"
"",NA,"",NA,"",NA,NA,NA,NA,NA,NA,"","",1,1,"2024-08-22_16h02.00.149","IAT(Formal)","2021.2.3","Win32",29.94011976,NA,"",NA,"",NA,NA,NA,NA,NA,NA,NA,"","","",NA,"e",1,0.6609,NA,NA,NA,NA,NA,"俺","e","space",5.9847,0,0,0,64,1,"",NA,"",NA,NA,NA,NA,NA,NA,NA,"",NA,"",NA,NA,NA,NA,NA,NA,NA,"","","",NA,"",NA,NA,NA,NA,NA,NA,NA,"",NA,"2"
"",NA,"",NA,"",NA,NA,NA,NA,NA,NA,"","",1,1,"2024-08-22_16h02.00.149","IAT(Formal)","2021.2.3","Win32",29.94011976,NA,"",NA,"",NA,NA,NA,NA,NA,NA,NA,"","","",NA,"e",1,0.5195,NA,NA,NA,NA,NA,"我的","e","",NA,0,1,1,1,1,"",NA,"",NA,NA,NA,NA,NA,NA,NA,"",NA,"",NA,NA,NA,NA,NA,NA,NA,"","","",NA,"",NA,NA,NA,NA,NA,NA,NA,"",NA,"2"
"",NA,"",NA,"",NA,NA,NA,NA,NA,NA,"","",1,1,"2024-08-22_16h02.00.149","IAT(Formal)","2021.2.3","Win32",29.94011976,NA,"",NA,"",NA,NA,NA,NA,NA,NA,NA,"","","",NA,"i",1,0.526,NA,NA,NA,NA,NA,"凶狠","i","",NA,0,2,2,42,1,"",NA,"",NA,NA,NA,NA,NA,NA,NA,"",NA,"",NA,NA,NA,NA,NA,NA,NA,"","","",NA,"",NA,NA,NA,NA,NA,NA,NA,"",NA,"2"
"",NA,"",NA,"",NA,NA,NA,NA,NA,NA,"","",1,1,"2024-08-22_16h02.00.149","IAT(Formal)","2021.2.3","Win32",29.94011976,NA,"",NA,"",NA,NA,NA,NA,NA,NA,NA,"","","",NA,"e",0,0.5088,NA,NA,NA,NA,NA,"固执","i","",NA,0,3,3,47,1,"",NA,"",NA,NA,NA,NA,NA,NA,NA,"",NA,"",NA,NA,NA,NA,NA,NA,NA,"","","",NA,"",NA,NA,NA,NA,NA,NA,NA,"",NA,"2"
"",NA,"",NA,"",NA,NA,NA,NA,NA,NA,"","",1,1,"2024-08-22_16h02.00.149","IAT(Formal)","2021.2.3","Win32",29.94011976,NA,"",NA,"",NA,NA,NA,NA,NA,NA,NA,"","","",NA,"i",1,0.6535,NA,NA,NA,NA,NA,"他","i","",NA,0,4,4,55,1,"",NA,"",NA,NA,NA,NA,NA,NA,NA,"",NA,"",NA,NA,NA,NA,NA,NA,NA,"","","",NA,"",NA,NA,NA,NA,NA,NA,NA,"",NA,"2"
"",NA,"",NA,"",NA,NA,NA,NA,NA,NA,"","",1,1,"2024-08-22_16h02.00.149","IAT(Formal)","2021.2.3","Win32",29.94011976,NA,"",NA,"",NA,NA,NA,NA,NA,NA,NA,"","","",NA,"i",1,0.6566,NA,NA,NA,NA,NA,"他","i","",NA,0,5,5,5,1,"",NA,"",NA,NA,NA,NA,NA,NA,NA,"",NA,"",NA,NA,NA,NA,NA,NA,NA,"","","",NA,"",NA,NA,NA,NA,NA,NA,NA,"",NA,"2"
"",NA,"",NA,"",NA,NA,NA,NA,NA,NA,"","",1,1,"2024-08-22_16h02.00.149","IAT(Formal)","2021.2.3","Win32",29.94011976,NA,"",NA,"",NA,NA,NA,NA,NA,NA,NA,"","","",NA,"i",1,0.6434,NA,NA,NA,NA,NA,"他人","i","",NA,0,6,6,78,1,"",NA,"",NA,NA,NA,NA,NA,NA,NA,"",NA,"",NA,NA,NA,NA,NA,NA,NA,"","","",NA,"",NA,NA,NA,NA,NA,NA,NA,"",NA,"2"
"",NA,"",NA,"",NA,NA,NA,NA,NA,NA,"","",1,1,"2024-08-22_16h02.00.149","IAT(Formal)","2021.2.3","Win32",29.94011976,NA,"",NA,"",NA,NA,NA,NA,NA,NA,NA,"","","",NA,"i",1,0.641,NA,NA,NA,NA,NA,"鲁莽","i","",NA,0,7,7,38,1,"",NA,"",NA,NA,NA,NA,NA,NA,NA,"",NA,"",NA,NA,NA,NA,NA,NA,NA,"","","",NA,"",NA,NA,NA,NA,NA,NA,NA,"",NA,"2"
"",NA,"",NA,"",NA,NA,NA,NA,NA,NA,"","",1,1,"2024-08-22_16h02.00.149","IAT(Formal)","2021.2.3","Win32",29.94011976,NA,"",NA,"",NA,NA,NA,NA,NA,NA,NA,"","","",NA,"e",1,0.5241,NA,NA,NA,NA,NA,"俺","e","",NA,0,8,8,54,1,"",NA,"",NA,NA,NA,NA,NA,NA,NA,"",NA,"",NA,NA,NA,NA,NA,NA,NA,"","","",NA,"",NA,NA,NA,NA,NA,NA,NA,"",NA,"2"
"",NA,"",NA,"",NA,NA,NA,NA,NA,NA,"","",1,1,"2024-08-22_16h02.00.149","IAT(Formal)","2021.2.3","Win32",29.94011976,NA,"",NA,"",NA,NA,NA,NA,NA,NA,NA,"","","",NA,"i",1,0.5073,NA,NA,NA,NA,NA,"他的","i","",NA,0,9,9,77,1,"",NA,"",NA,NA,NA,NA,NA,NA,NA,"",NA,"",NA,NA,NA,NA,NA,NA,NA,"","","",NA,"",NA,NA,NA,NA,NA,NA,NA,"",NA,"2"
"",NA,"",NA,"",NA,NA,NA,NA,NA,NA,"","",1,1,"2024-08-22_16h02.00.149","IAT(Formal)","2021.2.3","Win32",29.94011976,NA,"",NA,"",NA,NA,NA,NA,NA,NA,NA,"","","",NA,"e",1,0.6479,NA,NA,NA,NA,NA,"自己","e","",NA,0,10,10,53,1,"",NA,"",NA,NA,NA,NA,NA,NA,NA,"",NA,"",NA,NA,NA,NA,NA,NA,NA,"","","",NA,"",NA,NA,NA,NA,NA,NA,NA,"",NA,"2"
"",NA,"",NA,"",NA,NA,NA,NA,NA,NA,"","",1,1,"2024-08-22_16h02.00.149","IAT(Formal)","2021.2.3","Win32",29.94011976,NA,"",NA,"",NA,NA,NA,NA,NA,NA,NA,"","","",NA,"i",1,0.7713,NA,NA,NA,NA,NA,"野蛮","i","",NA,0,11,11,46,1,"",NA,"",NA,NA,NA,NA,NA,NA,NA,"",NA,"",NA,NA,NA,NA,NA,NA,NA,"","","",NA,"",NA,NA,NA,NA,NA,NA,NA,"",NA,"2"
"",NA,"",NA,"",NA,NA,NA,NA,NA,NA,"","",1,1,"2024-08-22_16h02.00.149","IAT(Formal)","2021.2.3","Win32",29.94011976,NA,"",NA,"",NA,NA,NA,NA,NA,NA,NA,"","","",NA,"i",1,0.7414,NA,NA,NA,NA,NA,"他的","i","",NA,0,12,12,7,1,"",NA,"",NA,NA,NA,NA,NA,NA,NA,"",NA,"",NA,NA,NA,NA,NA,NA,NA,"","","",NA,"",NA,NA,NA,NA,NA,NA,NA,"",NA,"2"
"",NA,"",NA,"",NA,NA,NA,NA,NA,NA,"","",1,1,"2024-08-22_16h02.00.149","IAT(Formal)","2021.2.3","Win32",29.94011976,NA,"",NA,"",NA,NA,NA,NA,NA,NA,NA,"","","",NA,"e",1,0.7637,NA,NA,NA,NA,NA,"杰出","e","",NA,0,13,13,13,1,"",NA,"",NA,NA,NA,NA,NA,NA,NA,"",NA,"",NA,NA,NA,NA,NA,NA,NA,"","","",NA,"",NA,NA,NA,NA,NA,NA,NA,"",NA,"2"
"",NA,"",NA,"",NA,NA,NA,NA,NA,NA,"","",1,1,"2024-08-22_16h02.00.149","IAT(Formal)","2021.2.3","Win32",29.94011976,NA,"",NA,"",NA,NA,NA,NA,NA,NA,NA,"","","",NA,"e",1,0.6456,NA,NA,NA,NA,NA,"正直","e","",NA,0,14,14,16,1,"",NA,"",NA,NA,NA,NA,NA,NA,NA,"",NA,"",NA,NA,NA,NA,NA,NA,NA,"","","",NA,"",NA,NA,NA,NA,NA,NA,NA,"",NA,"2"
"",NA,"",NA,"",NA,NA,NA,NA,NA,NA,"","",1,1,"2024-08-22_16h02.00.149","IAT(Formal)","2021.2.3","Win32",29.94011976,NA,"",NA,"",NA,NA,NA,NA,NA,NA,NA,"","","",NA,"e",1,0.6505,NA,NA,NA,NA,NA,"勇敢","e","",NA,0,15,15,17,1,"",NA,"",NA,NA,NA,NA,NA,NA,NA,"",NA,"",NA,NA,NA,NA,NA,NA,NA,"","","",NA,"",NA,NA,NA,NA,NA,NA,NA,"",NA,"2"
"",NA,"",NA,"",NA,NA,NA,NA,NA,NA,"","",1,1,"2024-08-22_16h02.00.149","IAT(Formal)","2021.2.3","Win32",29.94011976,NA,"",NA,"",NA,NA,NA,NA,NA,NA,NA,"","","",NA,"i",1,0.5088,NA,NA,NA,NA,NA,"虚伪","i","",NA,0,16,16,31,1,"",NA,"",NA,NA,NA,NA,NA,NA,NA,"",NA,"",NA,NA,NA,NA,NA,NA,NA,"","","",NA,"",NA,NA,NA,NA,NA,NA,NA,"",NA,"2"
"",NA,"",NA,"",NA,NA,NA,NA,NA,NA,"","",1,1,"2024-08-22_16h02.00.149","IAT(Formal)","2021.2.3","Win32",29.94011976,NA,"",NA,"",NA,NA,NA,NA,NA,NA,NA,"","","",NA,"e",1,0.5292,NA,NA,NA,NA,NA,"我","e","",NA,0,17,17,70,1,"",NA,"",NA,NA,NA,NA,NA,NA,NA,"",NA,"",NA,NA,NA,NA,NA,NA,NA,"","","",NA,"",NA,NA,NA,NA,NA,NA,NA,"",NA,"2"
"",NA,"",NA,"",NA,NA,NA,NA,NA,NA,"","",1,1,"2024-08-22_16h02.00.149","IAT(Formal)","2021.2.3","Win32",29.94011976,NA,"",NA,"",NA,NA,NA,NA,NA,NA,NA,"","","",NA,"i",1,0.5281,NA,NA,NA,NA,NA,"他的","i","",NA,0,18,18,67,1,"",NA,"",NA,NA,NA,NA,NA,NA,NA,"",NA,"",NA,NA,NA,NA,NA,NA,NA,"","","",NA,"",NA,NA,NA,NA,NA,NA,NA,"",NA,"2"
"",NA,"",NA,"",NA,NA,NA,NA,NA,NA,"","",1,1,"2024-08-22_16h02.00.149","IAT(Formal)","2021.2.3","Win32",29.94011976,NA,"",NA,"",NA,NA,NA,NA,NA,NA,NA,"","","",NA,"e",1,0.6577,NA,NA,NA,NA,NA,"公正","e","",NA,0,19,19,23,1,"",NA,"",NA,NA,NA,NA,NA,NA,NA,"",NA,"",NA,NA,NA,NA,NA,NA,NA,"","","",NA,"",NA,NA,NA,NA,NA,NA,NA,"",NA,"2"
"",NA,"",NA,"",NA,NA,NA,NA,NA,NA,"","",1,1,"2024-08-22_16h02.00.149","IAT(Formal)","2021.2.3","Win32",29.94011976,NA,"",NA,"",NA,NA,NA,NA,NA,NA,NA,"","","",NA,"i",1,0.5355,NA,NA,NA,NA,NA,"其他","i","",NA,0,20,20,9,1,"",NA,"",NA,NA,NA,NA,NA,NA,NA,"",NA,"",NA,NA,NA,NA,NA,NA,NA,"","","",NA,"",NA,NA,NA,NA,NA,NA,NA,"",NA,"2"
"",NA,"",NA,"",NA,NA,NA,NA,NA,NA,"","",1,1,"2024-08-22_16h02.00.149","IAT(Formal)","2021.2.3","Win32",29.94011976,NA,"",NA,"",NA,NA,NA,NA,NA,NA,NA,"","","",NA,"e",1,0.8124,NA,NA,NA,NA,NA,"机智","e","",NA,0,21,21,19,1,"",NA,"",NA,NA,NA,NA,NA,NA,NA,"",NA,"",NA,NA,NA,NA,NA,NA,NA,"","","",NA,"",NA,NA,NA,NA,NA,NA,NA,"",NA,"2"
"",NA,"",NA,"",NA,NA,NA,NA,NA,NA,"","",1,1,"2024-08-22_16h02.00.149","IAT(Formal)","2021.2.3","Win32",29.94011976,NA,"",NA,"",NA,NA,NA,NA,NA,NA,NA,"","","",NA,"i",0,0.4987,NA,NA,NA,NA,NA,"优秀","e","",NA,0,22,22,10,1,"",NA,"",NA,NA,NA,NA,NA,NA,NA,"",NA,"",NA,NA,NA,NA,NA,NA,NA,"","","",NA,"",NA,NA,NA,NA,NA,NA,NA,"",NA,"2"
"",NA,"",NA,"",NA,NA,NA,NA,NA,NA,"","",1,1,"2024-08-22_16h02.00.149","IAT(Formal)","2021.2.3","Win32",29.94011976,NA,"",NA,"",NA,NA,NA,NA,NA,NA,NA,"","","",NA,"e",1,0.8812,NA,NA,NA,NA,NA,"冷静","e","",NA,0,23,23,26,1,"",NA,"",NA,NA,NA,NA,NA,NA,NA,"",NA,"",NA,NA,NA,NA,NA,NA,NA,"","","",NA,"",NA,NA,NA,NA,NA,NA,NA,"",NA,"2"
"",NA,"",NA,"",NA,NA,NA,NA,NA,NA,"","",1,1,"2024-08-22_16h02.00.149","IAT(Formal)","2021.2.3","Win32",29.94011976,NA,"",NA,"",NA,NA,NA,NA,NA,NA,NA,"","","",NA,"i",1,0.7487,NA,NA,NA,NA,NA,"冒失","i","",NA,0,24,24,39,1,"",NA,"",NA,NA,NA,NA,NA,NA,NA,"",NA,"",NA,NA,NA,NA,NA,NA,NA,"","","",NA,"",NA,NA,NA,NA,NA,NA,NA,"",NA,"2"
"",NA,"",NA,"",NA,NA,NA,NA,NA,NA,"","",1,1,"2024-08-22_16h02.00.149","IAT(Formal)","2021.2.3","Win32",29.94011976,NA,"",NA,"",NA,NA,NA,NA,NA,NA,NA,"","","",NA,"e",1,0.8746,NA,NA,NA,NA,NA,"活泼","e","",NA,0,25,25,28,1,"",NA,"",NA,NA,NA,NA,NA,NA,NA,"",NA,"",NA,NA,NA,NA,NA,NA,NA,"","","",NA,"",NA,NA,NA,NA,NA,NA,NA,"",NA,"2"
"",NA,"",NA,"",NA,NA,NA,NA,NA,NA,"","",1,1,"2024-08-22_16h02.00.149","IAT(Formal)","2021.2.3","Win32",29.94011976,NA,"",NA,"",NA,NA,NA,NA,NA,NA,NA,"","","",NA,"e",1,0.7808,NA,NA,NA,NA,NA,"认真","e","",NA,0,26,26,20,1,"",NA,"",NA,NA,NA,NA,NA,NA,NA,"",NA,"",NA,NA,NA,NA,NA,NA,NA,"","","",NA,"",NA,NA,NA,NA,NA,NA,NA,"",NA,"2"
"",NA,"",NA,"",NA,NA,NA,NA,NA,NA,"","",1,1,"2024-08-22_16h02.00.149","IAT(Formal)","2021.2.3","Win32",29.94011976,NA,"",NA,"",NA,NA,NA,NA,NA,NA,NA,"","","",NA,"e",1,0.6316,NA,NA,NA,NA,NA,"俺","e","",NA,0,27,27,4,1,"",NA,"",NA,NA,NA,NA,NA,NA,NA,"",NA,"",NA,NA,NA,NA,NA,NA,NA,"","","",NA,"",NA,NA,NA,NA,NA,NA,NA,"",NA,"2"
"",NA,"",NA,"",NA,NA,NA,NA,NA,NA,"","",1,1,"2024-08-22_16h02.00.149","IAT(Formal)","2021.2.3","Win32",29.94011976,NA,"",NA,"",NA,NA,NA,NA,NA,NA,NA,"","","",NA,"i",1,0.6369,NA,NA,NA,NA,NA,"他们","i","",NA,0,28,28,76,1,"",NA,"",NA,NA,NA,NA,NA,NA,NA,"",NA,"",NA,NA,NA,NA,NA,NA,NA,"","","",NA,"",NA,NA,NA,NA,NA,NA,NA,"",NA,"2"
"",NA,"",NA,"",NA,NA,NA,NA,NA,NA,"","",1,1,"2024-08-22_16h02.00.149","IAT(Formal)","2021.2.3","Win32",29.94011976,NA,"",NA,"",NA,NA,NA,NA,NA,NA,NA,"","","",NA,"e",1,0.6416,NA,NA,NA,NA,NA,"我们","e","",NA,0,29,29,62,1,"",NA,"",NA,NA,NA,NA,NA,NA,NA,"",NA,"",NA,NA,NA,NA,NA,NA,NA,"","","",NA,"",NA,NA,NA,NA,NA,NA,NA,"",NA,"2"
"",NA,"",NA,"",NA,NA,NA,NA,NA,NA,"","",1,1,"2024-08-22_16h02.00.149","IAT(Formal)","2021.2.3","Win32",29.94011976,NA,"",NA,"",NA,NA,NA,NA,NA,NA,NA,"","","",NA,"e",1,0.5387,NA,NA,NA,NA,NA,"我的","e","",NA,0,30,30,71,1,"",NA,"",NA,NA,NA,NA,NA,NA,NA,"",NA,"",NA,NA,NA,NA,NA,NA,NA,"","","",NA,"",NA,NA,NA,NA,NA,NA,NA,"",NA,"2"
"",NA,"",NA,"",NA,NA,NA,NA,NA,NA,"","",1,1,"2024-08-22_16h02.00.149","IAT(Formal)","2021.2.3","Win32",29.94011976,NA,"",NA,"",NA,NA,NA,NA,NA,NA,NA,"","","",NA,"i",1,0.626,NA,NA,NA,NA,NA,"他的","i","",NA,0,31,31,57,1,"",NA,"",NA,NA,NA,NA,NA,NA,NA,"",NA,"",NA,NA,NA,NA,NA,NA,NA,"","","",NA,"",NA,NA,NA,NA,NA,NA,NA,"",NA,"2"
"",NA,"",NA,"",NA,NA,NA,NA,NA,NA,"","",1,1,"2024-08-22_16h02.00.149","IAT(Formal)","2021.2.3","Win32",29.94011976,NA,"",NA,"",NA,NA,NA,NA,NA,NA,NA,"","","",NA,"e",1,0.7716,NA,NA,NA,NA,NA,"细腻","e","",NA,0,32,32,25,1,"",NA,"",NA,NA,NA,NA,NA,NA,NA,"",NA,"",NA,NA,NA,NA,NA,NA,NA,"","","",NA,"",NA,NA,NA,NA,NA,NA,NA,"",NA,"2"
"",NA,"",NA,"",NA,NA,NA,NA,NA,NA,"","",1,1,"2024-08-22_16h02.00.149","IAT(Formal)","2021.2.3","Win32",29.94011976,NA,"",NA,"",NA,NA,NA,NA,NA,NA,NA,"","","",NA,"i",1,0.7634,NA,NA,NA,NA,NA,"消极","i","",NA,0,33,33,35,1,"",NA,"",NA,NA,NA,NA,NA,NA,NA,"",NA,"",NA,NA,NA,NA,NA,NA,NA,"","","",NA,"",NA,NA,NA,NA,NA,NA,NA,"",NA,"2"
"",NA,"",NA,"",NA,NA,NA,NA,NA,NA,"","",1,1,"2024-08-22_16h02.00.149","IAT(Formal)","2021.2.3","Win32",29.94011976,NA,"",NA,"",NA,NA,NA,NA,NA,NA,NA,"","","",NA,"i",1,0.7964,NA,NA,NA,NA,NA,"他人","i","",NA,0,34,34,58,1,"",NA,"",NA,NA,NA,NA,NA,NA,NA,"",NA,"",NA,NA,NA,NA,NA,NA,NA,"","","",NA,"",NA,NA,NA,NA,NA,NA,NA,"",NA,"2"
"",NA,"",NA,"",NA,NA,NA,NA,NA,NA,"","",1,1,"2024-08-22_16h02.00.149","IAT(Formal)","2021.2.3","Win32",29.94011976,NA,"",NA,"",NA,NA,NA,NA,NA,NA,NA,"","","",NA,"i",1,0.7809,NA,NA,NA,NA,NA,"执拗","i","",NA,0,35,35,40,1,"",NA,"",NA,NA,NA,NA,NA,NA,NA,"",NA,"",NA,NA,NA,NA,NA,NA,NA,"","","",NA,"",NA,NA,NA,NA,NA,NA,NA,"",NA,"2"
"",NA,"",NA,"",NA,NA,NA,NA,NA,NA,"","",1,1,"2024-08-22_16h02.00.149","IAT(Formal)","2021.2.3","Win32",29.94011976,NA,"",NA,"",NA,NA,NA,NA,NA,NA,NA,"","","",NA,"i",1,0.788,NA,NA,NA,NA,NA,"其他","i","",NA,0,36,36,79,1,"",NA,"",NA,NA,NA,NA,NA,NA,NA,"",NA,"",NA,NA,NA,NA,NA,NA,NA,"","","",NA,"",NA,NA,NA,NA,NA,NA,NA,"",NA,"2"
"",NA,"",NA,"",NA,NA,NA,NA,NA,NA,"","",1,1,"2024-08-22_16h02.00.149","IAT(Formal)","2021.2.3","Win32",29.94011976,NA,"",NA,"",NA,NA,NA,NA,NA,NA,NA,"","","",NA,"i",1,0.9007,NA,NA,NA,NA,NA,"刻薄","i","",NA,0,37,37,33,1,"",NA,"",NA,NA,NA,NA,NA,NA,NA,"",NA,"",NA,NA,NA,NA,NA,NA,NA,"","","",NA,"",NA,NA,NA,NA,NA,NA,NA,"",NA,"2"
"",NA,"",NA,"",NA,NA,NA,NA,NA,NA,"","",1,1,"2024-08-22_16h02.00.149","IAT(Formal)","2021.2.3","Win32",29.94011976,NA,"",NA,"",NA,NA,NA,NA,NA,NA,NA,"","","",NA,"e",1,0.6472,NA,NA,NA,NA,NA,"我们","e","",NA,0,38,38,72,1,"",NA,"",NA,NA,NA,NA,NA,NA,NA,"",NA,"",NA,NA,NA,NA,NA,NA,NA,"","","",NA,"",NA,NA,NA,NA,NA,NA,NA,"",NA,"2"
"",NA,"",NA,"",NA,NA,NA,NA,NA,NA,"","",1,1,"2024-08-22_16h02.00.149","IAT(Formal)","2021.2.3","Win32",29.94011976,NA,"",NA,"",NA,NA,NA,NA,NA,NA,NA,"","","",NA,"i",1,0.6476,NA,NA,NA,NA,NA,"自卑","i","",NA,0,39,39,36,1,"",NA,"",NA,NA,NA,NA,NA,NA,NA,"",NA,"",NA,NA,NA,NA,NA,NA,NA,"","","",NA,"",NA,NA,NA,NA,NA,NA,NA,"",NA,"2"
"",NA,"",NA,"",NA,NA,NA,NA,NA,NA,"","",1,1,"2024-08-22_16h02.00.149","IAT(Formal)","2021.2.3","Win32",29.94011976,NA,"",NA,"",NA,NA,NA,NA,NA,NA,NA,"","","",NA,"e",1,0.7695,NA,NA,NA,NA,NA,"我们","e","",NA,0,40,40,52,1,"",NA,"",NA,NA,NA,NA,NA,NA,NA,"",NA,"",NA,NA,NA,NA,NA,NA,NA,"","","",NA,"",NA,NA,NA,NA,NA,NA,NA,"",NA,"2"
"",NA,"",NA,"",NA,NA,NA,NA,NA,NA,"","",1,1,"2024-08-22_16h02.00.149","IAT(Formal)","2021.2.3","Win32",29.94011976,NA,"",NA,"",NA,NA,NA,NA,NA,NA,NA,"","","",NA,"i",1,0.6584,NA,NA,NA,NA,NA,"悲观","i","",NA,0,41,41,34,1,"",NA,"",NA,NA,NA,NA,NA,NA,NA,"",NA,"",NA,NA,NA,NA,NA,NA,NA,"","","",NA,"",NA,NA,NA,NA,NA,NA,NA,"",NA,"2"
"",NA,"",NA,"",NA,NA,NA,NA,NA,NA,"","",1,1,"2024-08-22_16h02.00.149","IAT(Formal)","2021.2.3","Win32",29.94011976,NA,"",NA,"",NA,NA,NA,NA,NA,NA,NA,"","","",NA,"i",1,0.6457,NA,NA,NA,NA,NA,"自私","i","",NA,0,42,42,43,1,"",NA,"",NA,NA,NA,NA,NA,NA,NA,"",NA,"",NA,NA,NA,NA,NA,NA,NA,"","","",NA,"",NA,NA,NA,NA,NA,NA,NA,"",NA,"2"
"",NA,"",NA,"",NA,NA,NA,NA,NA,NA,"","",1,1,"2024-08-22_16h02.00.149","IAT(Formal)","2021.2.3","Win32",29.94011976,NA,"",NA,"",NA,NA,NA,NA,NA,NA,NA,"","","",NA,"e",1,0.7926,NA,NA,NA,NA,NA,"我的","e","",NA,0,43,43,51,1,"",NA,"",NA,NA,NA,NA,NA,NA,NA,"",NA,"",NA,NA,NA,NA,NA,NA,NA,"","","",NA,"",NA,NA,NA,NA,NA,NA,NA,"",NA,"2"
"",NA,"",NA,"",NA,NA,NA,NA,NA,NA,"","",1,1,"2024-08-22_16h02.00.149","IAT(Formal)","2021.2.3","Win32",29.94011976,NA,"",NA,"",NA,NA,NA,NA,NA,NA,NA,"","","",NA,"e",1,0.7903,NA,NA,NA,NA,NA,"稳重","e","",NA,0,44,44,21,1,"",NA,"",NA,NA,NA,NA,NA,NA,NA,"",NA,"",NA,NA,NA,NA,NA,NA,NA,"","","",NA,"",NA,NA,NA,NA,NA,NA,NA,"",NA,"2"
"",NA,"",NA,"",NA,NA,NA,NA,NA,NA,"","",1,1,"2024-08-22_16h02.00.149","IAT(Formal)","2021.2.3","Win32",29.94011976,NA,"",NA,"",NA,NA,NA,NA,NA,NA,NA,"","","",NA,"i",1,0.5124,NA,NA,NA,NA,NA,"暴躁","i","",NA,0,45,45,44,1,"",NA,"",NA,NA,NA,NA,NA,NA,NA,"",NA,"",NA,NA,NA,NA,NA,NA,NA,"","","",NA,"",NA,NA,NA,NA,NA,NA,NA,"",NA,"2"
"",NA,"",NA,"",NA,NA,NA,NA,NA,NA,"","",1,1,"2024-08-22_16h02.00.149","IAT(Formal)","2021.2.3","Win32",29.94011976,NA,"",NA,"",NA,NA,NA,NA,NA,NA,NA,"","","",NA,"i",1,0.7397,NA,NA,NA,NA,NA,"他","i","",NA,0,46,46,65,1,"",NA,"",NA,NA,NA,NA,NA,NA,NA,"",NA,"",NA,NA,NA,NA,NA,NA,NA,"","","",NA,"",NA,NA,NA,NA,NA,NA,NA,"",NA,"2"
"",NA,"",NA,"",NA,NA,NA,NA,NA,NA,"","",1,1,"2024-08-22_16h02.00.149","IAT(Formal)","2021.2.3","Win32",29.94011976,NA,"",NA,"",NA,NA,NA,NA,NA,NA,NA,"","","",NA,"i",1,0.6344,NA,NA,NA,NA,NA,"卑鄙","i","",NA,0,47,47,30,1,"",NA,"",NA,NA,NA,NA,NA,NA,NA,"",NA,"",NA,NA,NA,NA,NA,NA,NA,"","","",NA,"",NA,NA,NA,NA,NA,NA,NA,"",NA,"2"
"",NA,"",NA,"",NA,NA,NA,NA,NA,NA,"","",1,1,"2024-08-22_16h02.00.149","IAT(Formal)","2021.2.3","Win32",29.94011976,NA,"",NA,"",NA,NA,NA,NA,NA,NA,NA,"","","",NA,"i",1,0.9274,NA,NA,NA,NA,NA,"散漫","i","",NA,0,48,48,41,1,"",NA,"",NA,NA,NA,NA,NA,NA,NA,"",NA,"",NA,NA,NA,NA,NA,NA,NA,"","","",NA,"",NA,NA,NA,NA,NA,NA,NA,"",NA,"2"
"",NA,"",NA,"",NA,NA,NA,NA,NA,NA,"","",1,1,"2024-08-22_16h02.00.149","IAT(Formal)","2021.2.3","Win32",29.94011976,NA,"",NA,"",NA,NA,NA,NA,NA,NA,NA,"","","",NA,"i",1,0.6362,NA,NA,NA,NA,NA,"他人","i","",NA,0,49,49,68,1,"",NA,"",NA,NA,NA,NA,NA,NA,NA,"",NA,"",NA,NA,NA,NA,NA,NA,NA,"","","",NA,"",NA,NA,NA,NA,NA,NA,NA,"",NA,"2"
"",NA,"",NA,"",NA,NA,NA,NA,NA,NA,"","",1,1,"2024-08-22_16h02.00.149","IAT(Formal)","2021.2.3","Win32",29.94011976,NA,"",NA,"",NA,NA,NA,NA,NA,NA,NA,"","","",NA,"i",1,1.0305,NA,NA,NA,NA,NA,"下贱","i","",NA,0,50,50,49,1,"",NA,"",NA,NA,NA,NA,NA,NA,NA,"",NA,"",NA,NA,NA,NA,NA,NA,NA,"","","",NA,"",NA,NA,NA,NA,NA,NA,NA,"",NA,"2"
"",NA,"",NA,"",NA,NA,NA,NA,NA,NA,"","",1,1,"2024-08-22_16h02.00.149","IAT(Formal)","2021.2.3","Win32",29.94011976,NA,"",NA,"",NA,NA,NA,NA,NA,NA,NA,"","","",NA,"i",1,0.6547,NA,NA,NA,NA,NA,"轻率","i","",NA,0,51,51,48,1,"",NA,"",NA,NA,NA,NA,NA,NA,NA,"",NA,"",NA,NA,NA,NA,NA,NA,NA,"","","",NA,"",NA,NA,NA,NA,NA,NA,NA,"",NA,"2"
"",NA,"",NA,"",NA,NA,NA,NA,NA,NA,"","",1,1,"2024-08-22_16h02.00.149","IAT(Formal)","2021.2.3","Win32",29.94011976,NA,"",NA,"",NA,NA,NA,NA,NA,NA,NA,"","","",NA,"i",1,0.6556,NA,NA,NA,NA,NA,"他","i","",NA,0,52,52,75,1,"",NA,"",NA,NA,NA,NA,NA,NA,NA,"",NA,"",NA,NA,NA,NA,NA,NA,NA,"","","",NA,"",NA,NA,NA,NA,NA,NA,NA,"",NA,"2"
"",NA,"",NA,"",NA,NA,NA,NA,NA,NA,"","",1,1,"2024-08-22_16h02.00.149","IAT(Formal)","2021.2.3","Win32",29.94011976,NA,"",NA,"",NA,NA,NA,NA,NA,NA,NA,"","","",NA,"i",1,0.6451,NA,NA,NA,NA,NA,"他们","i","",NA,0,53,53,56,1,"",NA,"",NA,NA,NA,NA,NA,NA,NA,"",NA,"",NA,NA,NA,NA,NA,NA,NA,"","","",NA,"",NA,NA,NA,NA,NA,NA,NA,"",NA,"2"
"",NA,"",NA,"",NA,NA,NA,NA,NA,NA,"","",1,1,"2024-08-22_16h02.00.149","IAT(Formal)","2021.2.3","Win32",29.94011976,NA,"",NA,"",NA,NA,NA,NA,NA,NA,NA,"","","",NA,"i",1,0.5092,NA,NA,NA,NA,NA,"他们","i","",NA,0,54,54,6,1,"",NA,"",NA,NA,NA,NA,NA,NA,NA,"",NA,"",NA,NA,NA,NA,NA,NA,NA,"","","",NA,"",NA,NA,NA,NA,NA,NA,NA,"",NA,"2"
"",NA,"",NA,"",NA,NA,NA,NA,NA,NA,"","",1,1,"2024-08-22_16h02.00.149","IAT(Formal)","2021.2.3","Win32",29.94011976,NA,"",NA,"",NA,NA,NA,NA,NA,NA,NA,"","","",NA,"e",1,0.7874,NA,NA,NA,NA,NA,"崇高","e","",NA,0,55,55,11,1,"",NA,"",NA,NA,NA,NA,NA,NA,NA,"",NA,"",NA,NA,NA,NA,NA,NA,NA,"","","",NA,"",NA,NA,NA,NA,NA,NA,NA,"",NA,"2"
"",NA,"",NA,"",NA,NA,NA,NA,NA,NA,"","",1,1,"2024-08-22_16h02.00.149","IAT(Formal)","2021.2.3","Win32",29.94011976,NA,"",NA,"",NA,NA,NA,NA,NA,NA,NA,"","","",NA,"i",1,0.8112,NA,NA,NA,NA,NA,"愚蠢","i","",NA,0,56,56,32,1,"",NA,"",NA,NA,NA,NA,NA,NA,NA,"",NA,"",NA,NA,NA,NA,NA,NA,NA,"","","",NA,"",NA,NA,NA,NA,NA,NA,NA,"",NA,"2"
"",NA,"",NA,"",NA,NA,NA,NA,NA,NA,"","",1,1,"2024-08-22_16h02.00.149","IAT(Formal)","2021.2.3","Win32",29.94011976,NA,"",NA,"",NA,NA,NA,NA,NA,NA,NA,"","","",NA,"e",1,0.7771,NA,NA,NA,NA,NA,"我们","e","",NA,0,57,57,2,1,"",NA,"",NA,NA,NA,NA,NA,NA,NA,"",NA,"",NA,NA,NA,NA,NA,NA,NA,"","","",NA,"",NA,NA,NA,NA,NA,NA,NA,"",NA,"2"
"",NA,"",NA,"",NA,NA,NA,NA,NA,NA,"","",1,1,"2024-08-22_16h02.00.149","IAT(Formal)","2021.2.3","Win32",29.94011976,NA,"",NA,"",NA,NA,NA,NA,NA,NA,NA,"","","",NA,"i",0,0.7742,NA,NA,NA,NA,NA,"无私","e","",NA,0,58,58,22,1,"",NA,"",NA,NA,NA,NA,NA,NA,NA,"",NA,"",NA,NA,NA,NA,NA,NA,NA,"","","",NA,"",NA,NA,NA,NA,NA,NA,NA,"",NA,"2"
"",NA,"",NA,"",NA,NA,NA,NA,NA,NA,"","",1,1,"2024-08-22_16h02.00.149","IAT(Formal)","2021.2.3","Win32",29.94011976,NA,"",NA,"",NA,NA,NA,NA,NA,NA,NA,"","","",NA,"e",1,0.6521,NA,NA,NA,NA,NA,"勤奋","e","",NA,0,59,59,18,1,"",NA,"",NA,NA,NA,NA,NA,NA,NA,"",NA,"",NA,NA,NA,NA,NA,NA,NA,"","","",NA,"",NA,NA,NA,NA,NA,NA,NA,"",NA,"2"
"",NA,"",NA,"",NA,NA,NA,NA,NA,NA,"","",1,1,"2024-08-22_16h02.00.149","IAT(Formal)","2021.2.3","Win32",29.94011976,NA,"",NA,"",NA,NA,NA,NA,NA,NA,NA,"","","",NA,"e",1,0.6275,NA,NA,NA,NA,NA,"自己","e","",NA,0,60,60,73,1,"",NA,"",NA,NA,NA,NA,NA,NA,NA,"",NA,"",NA,NA,NA,NA,NA,NA,NA,"","","",NA,"",NA,NA,NA,NA,NA,NA,NA,"",NA,"2"
"",NA,"",NA,"",NA,NA,NA,NA,NA,NA,"","",1,1,"2024-08-22_16h02.00.149","IAT(Formal)","2021.2.3","Win32",29.94011976,NA,"",NA,"",NA,NA,NA,NA,NA,NA,NA,"","","",NA,"e",1,0.5189,NA,NA,NA,NA,NA,"我","e","",NA,0,61,61,60,1,"",NA,"",NA,NA,NA,NA,NA,NA,NA,"",NA,"",NA,NA,NA,NA,NA,NA,NA,"","","",NA,"",NA,NA,NA,NA,NA,NA,NA,"",NA,"2"
"",NA,"",NA,"",NA,NA,NA,NA,NA,NA,"","",1,1,"2024-08-22_16h02.00.149","IAT(Formal)","2021.2.3","Win32",29.94011976,NA,"",NA,"",NA,NA,NA,NA,NA,NA,NA,"","","",NA,"i",0,0.5178,NA,NA,NA,NA,NA,"乐观","e","",NA,0,62,62,14,1,"",NA,"",NA,NA,NA,NA,NA,NA,NA,"",NA,"",NA,NA,NA,NA,NA,NA,NA,"","","",NA,"",NA,NA,NA,NA,NA,NA,NA,"",NA,"2"
"",NA,"",NA,"",NA,NA,NA,NA,NA,NA,"","",1,1,"2024-08-22_16h02.00.149","IAT(Formal)","2021.2.3","Win32",29.94011976,NA,"",NA,"",NA,NA,NA,NA,NA,NA,NA,"","","",NA,"e",1,0.5093,NA,NA,NA,NA,NA,"我的","e","",NA,0,63,63,61,1,"",NA,"",NA,NA,NA,NA,NA,NA,NA,"",NA,"",NA,NA,NA,NA,NA,NA,NA,"","","",NA,"",NA,NA,NA,NA,NA,NA,NA,"",NA,"2"
"",NA,"",NA,"",NA,NA,NA,NA,NA,NA,"","",1,1,"2024-08-22_16h02.00.149","IAT(Formal)","2021.2.3","Win32",29.94011976,NA,"",NA,"",NA,NA,NA,NA,NA,NA,NA,"","","",NA,"e",1,0.9009,NA,NA,NA,NA,NA,"自己","e","",NA,0,64,64,63,1,"",NA,"",NA,NA,NA,NA,NA,NA,NA,"",NA,"",NA,NA,NA,NA,NA,NA,NA,"","","",NA,"",NA,NA,NA,NA,NA,NA,NA,"",NA,"2"
"",NA,"",NA,"",NA,NA,NA,NA,NA,NA,"","",1,1,"2024-08-22_16h02.00.149","IAT(Formal)","2021.2.3","Win32",29.94011976,NA,"",NA,"",NA,NA,NA,NA,NA,NA,NA,"","","",NA,"i",1,0.6543,NA,NA,NA,NA,NA,"他们","i","",NA,0,65,65,66,1,"",NA,"",NA,NA,NA,NA,NA,NA,NA,"",NA,"",NA,NA,NA,NA,NA,NA,NA,"","","",NA,"",NA,NA,NA,NA,NA,NA,NA,"",NA,"2"
"",NA,"",NA,"",NA,NA,NA,NA,NA,NA,"","",1,1,"2024-08-22_16h02.00.149","IAT(Formal)","2021.2.3","Win32",29.94011976,NA,"",NA,"",NA,NA,NA,NA,NA,NA,NA,"","","",NA,"",0,NA,NA,NA,NA,NA,NA,"自己","e","",NA,0,66,66,3,1,"",NA,"",NA,NA,NA,NA,NA,NA,NA,"",NA,"",NA,NA,NA,NA,NA,NA,NA,"","","",NA,"",NA,NA,NA,NA,NA,NA,NA,"",NA,"2"
"",NA,"",NA,"",NA,NA,NA,NA,NA,NA,"","",1,1,"2024-08-22_16h02.00.149","IAT(Formal)","2021.2.3","Win32",29.94011976,NA,"",NA,"",NA,NA,NA,NA,NA,NA,NA,"","","",NA,"e",1,0.492,NA,NA,NA,NA,NA,"聪明","e","",NA,0,67,67,12,1,"",NA,"",NA,NA,NA,NA,NA,NA,NA,"",NA,"",NA,NA,NA,NA,NA,NA,NA,"","","",NA,"",NA,NA,NA,NA,NA,NA,NA,"",NA,"2"
"",NA,"",NA,"",NA,NA,NA,NA,NA,NA,"","",1,1,"2024-08-22_16h02.00.149","IAT(Formal)","2021.2.3","Win32",29.94011976,NA,"",NA,"",NA,NA,NA,NA,NA,NA,NA,"","","",NA,"e",1,0.6292,NA,NA,NA,NA,NA,"我","e","",NA,0,68,68,50,1,"",NA,"",NA,NA,NA,NA,NA,NA,NA,"",NA,"",NA,NA,NA,NA,NA,NA,NA,"","","",NA,"",NA,NA,NA,NA,NA,NA,NA,"",NA,"2"
"",NA,"",NA,"",NA,NA,NA,NA,NA,NA,"","",1,1,"2024-08-22_16h02.00.149","IAT(Formal)","2021.2.3","Win32",29.94011976,NA,"",NA,"",NA,NA,NA,NA,NA,NA,NA,"","","",NA,"e",1,1.0446,NA,NA,NA,NA,NA,"朴实","e","",NA,0,69,69,24,1,"",NA,"",NA,NA,NA,NA,NA,NA,NA,"",NA,"",NA,NA,NA,NA,NA,NA,NA,"","","",NA,"",NA,NA,NA,NA,NA,NA,NA,"",NA,"2"
"",NA,"",NA,"",NA,NA,NA,NA,NA,NA,"","",1,1,"2024-08-22_16h02.00.149","IAT(Formal)","2021.2.3","Win32",29.94011976,NA,"",NA,"",NA,NA,NA,NA,NA,NA,NA,"","","",NA,"i",1,0.6379,NA,NA,NA,NA,NA,"猖狂","i","",NA,0,70,70,45,1,"",NA,"",NA,NA,NA,NA,NA,NA,NA,"",NA,"",NA,NA,NA,NA,NA,NA,NA,"","","",NA,"",NA,NA,NA,NA,NA,NA,NA,"",NA,"2"
"",NA,"",NA,"",NA,NA,NA,NA,NA,NA,"","",1,1,"2024-08-22_16h02.00.149","IAT(Formal)","2021.2.3","Win32",29.94011976,NA,"",NA,"",NA,NA,NA,NA,NA,NA,NA,"","","",NA,"i",0,0.6529,NA,NA,NA,NA,NA,"俺","e","",NA,0,71,71,74,1,"",NA,"",NA,NA,NA,NA,NA,NA,NA,"",NA,"",NA,NA,NA,NA,NA,NA,NA,"","","",NA,"",NA,NA,NA,NA,NA,NA,NA,"",NA,"2"
"",NA,"",NA,"",NA,NA,NA,NA,NA,NA,"","",1,1,"2024-08-22_16h02.00.149","IAT(Formal)","2021.2.3","Win32",29.94011976,NA,"",NA,"",NA,NA,NA,NA,NA,NA,NA,"","","",NA,"i",1,0.6604,NA,NA,NA,NA,NA,"其他","i","",NA,0,72,72,69,1,"",NA,"",NA,NA,NA,NA,NA,NA,NA,"",NA,"",NA,NA,NA,NA,NA,NA,NA,"","","",NA,"",NA,NA,NA,NA,NA,NA,NA,"",NA,"2"
"",NA,"",NA,"",NA,NA,NA,NA,NA,NA,"","",1,1,"2024-08-22_16h02.00.149","IAT(Formal)","2021.2.3","Win32",29.94011976,NA,"",NA,"",NA,NA,NA,NA,NA,NA,NA,"","","",NA,"e",1,0.5139,NA,NA,NA,NA,NA,"我","e","",NA,0,73,73,0,1,"",NA,"",NA,NA,NA,NA,NA,NA,NA,"",NA,"",NA,NA,NA,NA,NA,NA,NA,"","","",NA,"",NA,NA,NA,NA,NA,NA,NA,"",NA,"2"
"",NA,"",NA,"",NA,NA,NA,NA,NA,NA,"","",1,1,"2024-08-22_16h02.00.149","IAT(Formal)","2021.2.3","Win32",29.94011976,NA,"",NA,"",NA,NA,NA,NA,NA,NA,NA,"","","",NA,"i",1,0.7855,NA,NA,NA,NA,NA,"傲慢","i","",NA,0,74,74,37,1,"",NA,"",NA,NA,NA,NA,NA,NA,NA,"",NA,"",NA,NA,NA,NA,NA,NA,NA,"","","",NA,"",NA,NA,NA,NA,NA,NA,NA,"",NA,"2"
"",NA,"",NA,"",NA,NA,NA,NA,NA,NA,"","",1,1,"2024-08-22_16h02.00.149","IAT(Formal)","2021.2.3","Win32",29.94011976,NA,"",NA,"",NA,NA,NA,NA,NA,NA,NA,"","","",NA,"i",1,0.6337,NA,NA,NA,NA,NA,"其他","i","",NA,0,75,75,59,1,"",NA,"",NA,NA,NA,NA,NA,NA,NA,"",NA,"",NA,NA,NA,NA,NA,NA,NA,"","","",NA,"",NA,NA,NA,NA,NA,NA,NA,"",NA,"2"
"",NA,"",NA,"",NA,NA,NA,NA,NA,NA,"","",1,1,"2024-08-22_16h02.00.149","IAT(Formal)","2021.2.3","Win32",29.94011976,NA,"",NA,"",NA,NA,NA,NA,NA,NA,NA,"","","",NA,"i",1,0.5049,NA,NA,NA,NA,NA,"他人","i","",NA,0,76,76,8,1,"",NA,"",NA,NA,NA,NA,NA,NA,NA,"",NA,"",NA,NA,NA,NA,NA,NA,NA,"","","",NA,"",NA,NA,NA,NA,NA,NA,NA,"",NA,"2"
"",NA,"",NA,"",NA,NA,NA,NA,NA,NA,"","",1,1,"2024-08-22_16h02.00.149","IAT(Formal)","2021.2.3","Win32",29.94011976,NA,"",NA,"",NA,NA,NA,NA,NA,NA,NA,"","","",NA,"e",1,0.6384,NA,NA,NA,NA,NA,"热情","e","",NA,0,77,77,27,1,"",NA,"",NA,NA,NA,NA,NA,NA,NA,"",NA,"",NA,NA,NA,NA,NA,NA,NA,"","","",NA,"",NA,NA,NA,NA,NA,NA,NA,"",NA,"2"
"",NA,"",NA,"",NA,NA,NA,NA,NA,NA,"","",1,1,"2024-08-22_16h02.00.149","IAT(Formal)","2021.2.3","Win32",29.94011976,NA,"",NA,"",NA,NA,NA,NA,NA,NA,NA,"","","",NA,"e",1,0.639,NA,NA,NA,NA,NA,"诚实","e","",NA,0,78,78,15,1,"",NA,"",NA,NA,NA,NA,NA,NA,NA,"",NA,"",NA,NA,NA,NA,NA,NA,NA,"","","",NA,"",NA,NA,NA,NA,NA,NA,NA,"",NA,"2"
"",NA,"",NA,"",NA,NA,NA,NA,NA,NA,"","",1,1,"2024-08-22_16h02.00.149","IAT(Formal)","2021.2.3","Win32",29.94011976,NA,"",NA,"",NA,NA,NA,NA,NA,NA,NA,"","","",NA,"e",1,0.5122,NA,NA,NA,NA,NA,"诚恳","e","",NA,0,79,79,29,1,"",NA,"",NA,NA,NA,NA,NA,NA,NA,"",NA,"",NA,NA,NA,NA,NA,NA,NA,"","","",NA,"",NA,NA,NA,NA,NA,NA,NA,"",NA,"2"
"",NA,"",NA,"",NA,NA,NA,NA,NA,NA,"","",1,1,"2024-08-22_16h02.00.149","IAT(Formal)","2021.2.3","Win32",29.94011976,NA,"",NA,"",NA,NA,NA,NA,NA,NA,NA,"","","",NA,"i",1,0.6361,NA,NA,NA,NA,NA,"傲慢","i","",NA,1,0,80,37,1,"",NA,"",NA,NA,NA,NA,NA,NA,NA,"",NA,"",NA,NA,NA,NA,NA,NA,NA,"","","",NA,"",NA,NA,NA,NA,NA,NA,NA,"",NA,"2"
"",NA,"",NA,"",NA,NA,NA,NA,NA,NA,"","",1,1,"2024-08-22_16h02.00.149","IAT(Formal)","2021.2.3","Win32",29.94011976,NA,"",NA,"",NA,NA,NA,NA,NA,NA,NA,"","","",NA,"i",1,0.6541,NA,NA,NA,NA,NA,"他","i","",NA,1,1,81,5,1,"",NA,"",NA,NA,NA,NA,NA,NA,NA,"",NA,"",NA,NA,NA,NA,NA,NA,NA,"","","",NA,"",NA,NA,NA,NA,NA,NA,NA,"",NA,"2"
"",NA,"",NA,"",NA,NA,NA,NA,NA,NA,"","",1,1,"2024-08-22_16h02.00.149","IAT(Formal)","2021.2.3","Win32",29.94011976,NA,"",NA,"",NA,NA,NA,NA,NA,NA,NA,"","","",NA,"i",1,0.7553,NA,NA,NA,NA,NA,"冒失","i","",NA,1,2,82,39,1,"",NA,"",NA,NA,NA,NA,NA,NA,NA,"",NA,"",NA,NA,NA,NA,NA,NA,NA,"","","",NA,"",NA,NA,NA,NA,NA,NA,NA,"",NA,"2"
"",NA,"",NA,"",NA,NA,NA,NA,NA,NA,"","",1,1,"2024-08-22_16h02.00.149","IAT(Formal)","2021.2.3","Win32",29.94011976,NA,"",NA,"",NA,NA,NA,NA,NA,NA,NA,"","","",NA,"e",1,0.7676,NA,NA,NA,NA,NA,"俺","e","",NA,1,3,83,74,1,"",NA,"",NA,NA,NA,NA,NA,NA,NA,"",NA,"",NA,NA,NA,NA,NA,NA,NA,"","","",NA,"",NA,NA,NA,NA,NA,NA,NA,"",NA,"2"
"",NA,"",NA,"",NA,NA,NA,NA,NA,NA,"","",1,1,"2024-08-22_16h02.00.149","IAT(Formal)","2021.2.3","Win32",29.94011976,NA,"",NA,"",NA,NA,NA,NA,NA,NA,NA,"","","",NA,"e",1,0.6598,NA,NA,NA,NA,NA,"勤奋","e","",NA,1,4,84,18,1,"",NA,"",NA,NA,NA,NA,NA,NA,NA,"",NA,"",NA,NA,NA,NA,NA,NA,NA,"","","",NA,"",NA,NA,NA,NA,NA,NA,NA,"",NA,"2"
"",NA,"",NA,"",NA,NA,NA,NA,NA,NA,"","",1,1,"2024-08-22_16h02.00.149","IAT(Formal)","2021.2.3","Win32",29.94011976,NA,"",NA,"",NA,NA,NA,NA,NA,NA,NA,"","","",NA,"i",1,0.7913,NA,NA,NA,NA,NA,"执拗","i","",NA,1,5,85,40,1,"",NA,"",NA,NA,NA,NA,NA,NA,NA,"",NA,"",NA,NA,NA,NA,NA,NA,NA,"","","",NA,"",NA,NA,NA,NA,NA,NA,NA,"",NA,"2"
"",NA,"",NA,"",NA,NA,NA,NA,NA,NA,"","",1,1,"2024-08-22_16h02.00.149","IAT(Formal)","2021.2.3","Win32",29.94011976,NA,"",NA,"",NA,NA,NA,NA,NA,NA,NA,"","","",NA,"e",1,0.5103,NA,NA,NA,NA,NA,"我们","e","",NA,1,6,86,72,1,"",NA,"",NA,NA,NA,NA,NA,NA,NA,"",NA,"",NA,NA,NA,NA,NA,NA,NA,"","","",NA,"",NA,NA,NA,NA,NA,NA,NA,"",NA,"2"
"",NA,"",NA,"",NA,NA,NA,NA,NA,NA,"","",1,1,"2024-08-22_16h02.00.149","IAT(Formal)","2021.2.3","Win32",29.94011976,NA,"",NA,"",NA,NA,NA,NA,NA,NA,NA,"","","",NA,"e",1,0.7633,NA,NA,NA,NA,NA,"公正","e","",NA,1,7,87,23,1,"",NA,"",NA,NA,NA,NA,NA,NA,NA,"",NA,"",NA,NA,NA,NA,NA,NA,NA,"","","",NA,"",NA,NA,NA,NA,NA,NA,NA,"",NA,"2"
"",NA,"",NA,"",NA,NA,NA,NA,NA,NA,"","",1,1,"2024-08-22_16h02.00.149","IAT(Formal)","2021.2.3","Win32",29.94011976,NA,"",NA,"",NA,NA,NA,NA,NA,NA,NA,"","","",NA,"e",1,0.5217,NA,NA,NA,NA,NA,"我","e","",NA,1,8,88,70,1,"",NA,"",NA,NA,NA,NA,NA,NA,NA,"",NA,"",NA,NA,NA,NA,NA,NA,NA,"","","",NA,"",NA,NA,NA,NA,NA,NA,NA,"",NA,"2"
"",NA,"",NA,"",NA,NA,NA,NA,NA,NA,"","",1,1,"2024-08-22_16h02.00.149","IAT(Formal)","2021.2.3","Win32",29.94011976,NA,"",NA,"",NA,NA,NA,NA,NA,NA,NA,"","","",NA,"e",1,0.5259,NA,NA,NA,NA,NA,"聪明","e","",NA,1,9,89,12,1,"",NA,"",NA,NA,NA,NA,NA,NA,NA,"",NA,"",NA,NA,NA,NA,NA,NA,NA,"","","",NA,"",NA,NA,NA,NA,NA,NA,NA,"",NA,"2"
"",NA,"",NA,"",NA,NA,NA,NA,NA,NA,"","",1,1,"2024-08-22_16h02.00.149","IAT(Formal)","2021.2.3","Win32",29.94011976,NA,"",NA,"",NA,NA,NA,NA,NA,NA,NA,"","","",NA,"e",0,1.1757,NA,NA,NA,NA,NA,"他","i","",NA,1,10,90,65,1,"",NA,"",NA,NA,NA,NA,NA,NA,NA,"",NA,"",NA,NA,NA,NA,NA,NA,NA,"","","",NA,"",NA,NA,NA,NA,NA,NA,NA,"",NA,"2"
"",NA,"",NA,"",NA,NA,NA,NA,NA,NA,"","",1,1,"2024-08-22_16h02.00.149","IAT(Formal)","2021.2.3","Win32",29.94011976,NA,"",NA,"",NA,NA,NA,NA,NA,NA,NA,"","","",NA,"i",1,0.6483,NA,NA,NA,NA,NA,"他们","i","",NA,1,11,91,6,1,"",NA,"",NA,NA,NA,NA,NA,NA,NA,"",NA,"",NA,NA,NA,NA,NA,NA,NA,"","","",NA,"",NA,NA,NA,NA,NA,NA,NA,"",NA,"2"
"",NA,"",NA,"",NA,NA,NA,NA,NA,NA,"","",1,1,"2024-08-22_16h02.00.149","IAT(Formal)","2021.2.3","Win32",29.94011976,NA,"",NA,"",NA,NA,NA,NA,NA,NA,NA,"","","",NA,"i",1,0.646,NA,NA,NA,NA,NA,"猖狂","i","",NA,1,12,92,45,1,"",NA,"",NA,NA,NA,NA,NA,NA,NA,"",NA,"",NA,NA,NA,NA,NA,NA,NA,"","","",NA,"",NA,NA,NA,NA,NA,NA,NA,"",NA,"2"
"",NA,"",NA,"",NA,NA,NA,NA,NA,NA,"","",1,1,"2024-08-22_16h02.00.149","IAT(Formal)","2021.2.3","Win32",29.94011976,NA,"",NA,"",NA,NA,NA,NA,NA,NA,NA,"","","",NA,"",0,NA,NA,NA,NA,NA,NA,"诚恳","e","",NA,1,13,93,29,1,"",NA,"",NA,NA,NA,NA,NA,NA,NA,"",NA,"",NA,NA,NA,NA,NA,NA,NA,"","","",NA,"",NA,NA,NA,NA,NA,NA,NA,"",NA,"2"
"",NA,"",NA,"",NA,NA,NA,NA,NA,NA,"","",1,1,"2024-08-22_16h02.00.149","IAT(Formal)","2021.2.3","Win32",29.94011976,NA,"",NA,"",NA,NA,NA,NA,NA,NA,NA,"","","",NA,"i",1,0.5257,NA,NA,NA,NA,NA,"他","i","",NA,1,14,94,75,1,"",NA,"",NA,NA,NA,NA,NA,NA,NA,"",NA,"",NA,NA,NA,NA,NA,NA,NA,"","","",NA,"",NA,NA,NA,NA,NA,NA,NA,"",NA,"2"
"",NA,"",NA,"",NA,NA,NA,NA,NA,NA,"","",1,1,"2024-08-22_16h02.00.149","IAT(Formal)","2021.2.3","Win32",29.94011976,NA,"",NA,"",NA,NA,NA,NA,NA,NA,NA,"","","",NA,"i",1,0.9189,NA,NA,NA,NA,NA,"野蛮","i","",NA,1,15,95,46,1,"",NA,"",NA,NA,NA,NA,NA,NA,NA,"",NA,"",NA,NA,NA,NA,NA,NA,NA,"","","",NA,"",NA,NA,NA,NA,NA,NA,NA,"",NA,"2"
"",NA,"",NA,"",NA,NA,NA,NA,NA,NA,"","",1,1,"2024-08-22_16h02.00.149","IAT(Formal)","2021.2.3","Win32",29.94011976,NA,"",NA,"",NA,NA,NA,NA,NA,NA,NA,"","","",NA,"e",1,0.6652,NA,NA,NA,NA,NA,"自己","e","",NA,1,16,96,63,1,"",NA,"",NA,NA,NA,NA,NA,NA,NA,"",NA,"",NA,NA,NA,NA,NA,NA,NA,"","","",NA,"",NA,NA,NA,NA,NA,NA,NA,"",NA,"2"
"",NA,"",NA,"",NA,NA,NA,NA,NA,NA,"","",1,1,"2024-08-22_16h02.00.149","IAT(Formal)","2021.2.3","Win32",29.94011976,NA,"",NA,"",NA,NA,NA,NA,NA,NA,NA,"","","",NA,"e",1,0.8832,NA,NA,NA,NA,NA,"俺","e","",NA,1,17,97,64,1,"",NA,"",NA,NA,NA,NA,NA,NA,NA,"",NA,"",NA,NA,NA,NA,NA,NA,NA,"","","",NA,"",NA,NA,NA,NA,NA,NA,NA,"",NA,"2"
"",NA,"",NA,"",NA,NA,NA,NA,NA,NA,"","",1,1,"2024-08-22_16h02.00.149","IAT(Formal)","2021.2.3","Win32",29.94011976,NA,"",NA,"",NA,NA,NA,NA,NA,NA,NA,"","","",NA,"i",1,0.6365,NA,NA,NA,NA,NA,"他的","i","",NA,1,18,98,7,1,"",NA,"",NA,NA,NA,NA,NA,NA,NA,"",NA,"",NA,NA,NA,NA,NA,NA,NA,"","","",NA,"",NA,NA,NA,NA,NA,NA,NA,"",NA,"2"
"",NA,"",NA,"",NA,NA,NA,NA,NA,NA,"","",1,1,"2024-08-22_16h02.00.149","IAT(Formal)","2021.2.3","Win32",29.94011976,NA,"",NA,"",NA,NA,NA,NA,NA,NA,NA,"","","",NA,"e",0,0.5109,NA,NA,NA,NA,NA,"他人","i","",NA,1,19,99,78,1,"",NA,"",NA,NA,NA,NA,NA,NA,NA,"",NA,"",NA,NA,NA,NA,NA,NA,NA,"","","",NA,"",NA,NA,NA,NA,NA,NA,NA,"",NA,"2"
"",NA,"",NA,"",NA,NA,NA,NA,NA,NA,"","",1,1,"2024-08-22_16h02.00.149","IAT(Formal)","2021.2.3","Win32",29.94011976,NA,"",NA,"",NA,NA,NA,NA,NA,NA,NA,"","","",NA,"i",0,0.5106,NA,NA,NA,NA,NA,"我们","e","",NA,1,20,100,52,1,"",NA,"",NA,NA,NA,NA,NA,NA,NA,"",NA,"",NA,NA,NA,NA,NA,NA,NA,"","","",NA,"",NA,NA,NA,NA,NA,NA,NA,"",NA,"2"
"",NA,"",NA,"",NA,NA,NA,NA,NA,NA,"","",1,1,"2024-08-22_16h02.00.149","IAT(Formal)","2021.2.3","Win32",29.94011976,NA,"",NA,"",NA,NA,NA,NA,NA,NA,NA,"","","",NA,"i",1,0.7637,NA,NA,NA,NA,NA,"虚伪","i","",NA,1,21,101,31,1,"",NA,"",NA,NA,NA,NA,NA,NA,NA,"",NA,"",NA,NA,NA,NA,NA,NA,NA,"","","",NA,"",NA,NA,NA,NA,NA,NA,NA,"",NA,"2"
"",NA,"",NA,"",NA,NA,NA,NA,NA,NA,"","",1,1,"2024-08-22_16h02.00.149","IAT(Formal)","2021.2.3","Win32",29.94011976,NA,"",NA,"",NA,NA,NA,NA,NA,NA,NA,"","","",NA,"e",1,0.7718,NA,NA,NA,NA,NA,"俺","e","",NA,1,22,102,54,1,"",NA,"",NA,NA,NA,NA,NA,NA,NA,"",NA,"",NA,NA,NA,NA,NA,NA,NA,"","","",NA,"",NA,NA,NA,NA,NA,NA,NA,"",NA,"2"
"",NA,"",NA,"",NA,NA,NA,NA,NA,NA,"","",1,1,"2024-08-22_16h02.00.149","IAT(Formal)","2021.2.3","Win32",29.94011976,NA,"",NA,"",NA,NA,NA,NA,NA,NA,NA,"","","",NA,"e",1,0.6258,NA,NA,NA,NA,NA,"认真","e","",NA,1,23,103,20,1,"",NA,"",NA,NA,NA,NA,NA,NA,NA,"",NA,"",NA,NA,NA,NA,NA,NA,NA,"","","",NA,"",NA,NA,NA,NA,NA,NA,NA,"",NA,"2"
"",NA,"",NA,"",NA,NA,NA,NA,NA,NA,"","",1,1,"2024-08-22_16h02.00.149","IAT(Formal)","2021.2.3","Win32",29.94011976,NA,"",NA,"",NA,NA,NA,NA,NA,NA,NA,"","","",NA,"e",1,0.5155,NA,NA,NA,NA,NA,"朴实","e","",NA,1,24,104,24,1,"",NA,"",NA,NA,NA,NA,NA,NA,NA,"",NA,"",NA,NA,NA,NA,NA,NA,NA,"","","",NA,"",NA,NA,NA,NA,NA,NA,NA,"",NA,"2"
"",NA,"",NA,"",NA,NA,NA,NA,NA,NA,"","",1,1,"2024-08-22_16h02.00.149","IAT(Formal)","2021.2.3","Win32",29.94011976,NA,"",NA,"",NA,NA,NA,NA,NA,NA,NA,"","","",NA,"i",1,0.8784,NA,NA,NA,NA,NA,"他们","i","",NA,1,25,105,66,1,"",NA,"",NA,NA,NA,NA,NA,NA,NA,"",NA,"",NA,NA,NA,NA,NA,NA,NA,"","","",NA,"",NA,NA,NA,NA,NA,NA,NA,"",NA,"2"
"",NA,"",NA,"",NA,NA,NA,NA,NA,NA,"","",1,1,"2024-08-22_16h02.00.149","IAT(Formal)","2021.2.3","Win32",29.94011976,NA,"",NA,"",NA,NA,NA,NA,NA,NA,NA,"","","",NA,"i",1,0.6365,NA,NA,NA,NA,NA,"卑鄙","i","",NA,1,26,106,30,1,"",NA,"",NA,NA,NA,NA,NA,NA,NA,"",NA,"",NA,NA,NA,NA,NA,NA,NA,"","","",NA,"",NA,NA,NA,NA,NA,NA,NA,"",NA,"2"
"",NA,"",NA,"",NA,NA,NA,NA,NA,NA,"","",1,1,"2024-08-22_16h02.00.149","IAT(Formal)","2021.2.3","Win32",29.94011976,NA,"",NA,"",NA,NA,NA,NA,NA,NA,NA,"","","",NA,"e",1,0.7725,NA,NA,NA,NA,NA,"俺","e","",NA,1,27,107,4,1,"",NA,"",NA,NA,NA,NA,NA,NA,NA,"",NA,"",NA,NA,NA,NA,NA,NA,NA,"","","",NA,"",NA,NA,NA,NA,NA,NA,NA,"",NA,"2"
"",NA,"",NA,"",NA,NA,NA,NA,NA,NA,"","",1,1,"2024-08-22_16h02.00.149","IAT(Formal)","2021.2.3","Win32",29.94011976,NA,"",NA,"",NA,NA,NA,NA,NA,NA,NA,"","","",NA,"e",1,0.7712,NA,NA,NA,NA,NA,"细腻","e","",NA,1,28,108,25,1,"",NA,"",NA,NA,NA,NA,NA,NA,NA,"",NA,"",NA,NA,NA,NA,NA,NA,NA,"","","",NA,"",NA,NA,NA,NA,NA,NA,NA,"",NA,"2"
"",NA,"",NA,"",NA,NA,NA,NA,NA,NA,"","",1,1,"2024-08-22_16h02.00.149","IAT(Formal)","2021.2.3","Win32",29.94011976,NA,"",NA,"",NA,NA,NA,NA,NA,NA,NA,"","","",NA,"e",1,0.5238,NA,NA,NA,NA,NA,"自己","e","",NA,1,29,109,53,1,"",NA,"",NA,NA,NA,NA,NA,NA,NA,"",NA,"",NA,NA,NA,NA,NA,NA,NA,"","","",NA,"",NA,NA,NA,NA,NA,NA,NA,"",NA,"2"
"",NA,"",NA,"",NA,NA,NA,NA,NA,NA,"","",1,1,"2024-08-22_16h02.00.149","IAT(Formal)","2021.2.3","Win32",29.94011976,NA,"",NA,"",NA,NA,NA,NA,NA,NA,NA,"","","",NA,"i",1,0.5282,NA,NA,NA,NA,NA,"暴躁","i","",NA,1,30,110,44,1,"",NA,"",NA,NA,NA,NA,NA,NA,NA,"",NA,"",NA,NA,NA,NA,NA,NA,NA,"","","",NA,"",NA,NA,NA,NA,NA,NA,NA,"",NA,"2"
"",NA,"",NA,"",NA,NA,NA,NA,NA,NA,"","",1,1,"2024-08-22_16h02.00.149","IAT(Formal)","2021.2.3","Win32",29.94011976,NA,"",NA,"",NA,NA,NA,NA,NA,NA,NA,"","","",NA,"i",1,0.6513,NA,NA,NA,NA,NA,"自卑","i","",NA,1,31,111,36,1,"",NA,"",NA,NA,NA,NA,NA,NA,NA,"",NA,"",NA,NA,NA,NA,NA,NA,NA,"","","",NA,"",NA,NA,NA,NA,NA,NA,NA,"",NA,"2"
"",NA,"",NA,"",NA,NA,NA,NA,NA,NA,"","",1,1,"2024-08-22_16h02.00.149","IAT(Formal)","2021.2.3","Win32",29.94011976,NA,"",NA,"",NA,NA,NA,NA,NA,NA,NA,"","","",NA,"i",0,0.6408,NA,NA,NA,NA,NA,"稳重","e","",NA,1,32,112,21,1,"",NA,"",NA,NA,NA,NA,NA,NA,NA,"",NA,"",NA,NA,NA,NA,NA,NA,NA,"","","",NA,"",NA,NA,NA,NA,NA,NA,NA,"",NA,"2"
"",NA,"",NA,"",NA,NA,NA,NA,NA,NA,"","",1,1,"2024-08-22_16h02.00.149","IAT(Formal)","2021.2.3","Win32",29.94011976,NA,"",NA,"",NA,NA,NA,NA,NA,NA,NA,"","","",NA,"i",1,0.6426,NA,NA,NA,NA,NA,"他","i","",NA,1,33,113,55,1,"",NA,"",NA,NA,NA,NA,NA,NA,NA,"",NA,"",NA,NA,NA,NA,NA,NA,NA,"","","",NA,"",NA,NA,NA,NA,NA,NA,NA,"",NA,"2"
"",NA,"",NA,"",NA,NA,NA,NA,NA,NA,"","",1,1,"2024-08-22_16h02.00.149","IAT(Formal)","2021.2.3","Win32",29.94011976,NA,"",NA,"",NA,NA,NA,NA,NA,NA,NA,"","","",NA,"i",1,0.7744,NA,NA,NA,NA,NA,"鲁莽","i","",NA,1,34,114,38,1,"",NA,"",NA,NA,NA,NA,NA,NA,NA,"",NA,"",NA,NA,NA,NA,NA,NA,NA,"","","",NA,"",NA,NA,NA,NA,NA,NA,NA,"",NA,"2"
"",NA,"",NA,"",NA,NA,NA,NA,NA,NA,"","",1,1,"2024-08-22_16h02.00.149","IAT(Formal)","2021.2.3","Win32",29.94011976,NA,"",NA,"",NA,NA,NA,NA,NA,NA,NA,"","","",NA,"e",1,0.637,NA,NA,NA,NA,NA,"热情","e","",NA,1,35,115,27,1,"",NA,"",NA,NA,NA,NA,NA,NA,NA,"",NA,"",NA,NA,NA,NA,NA,NA,NA,"","","",NA,"",NA,NA,NA,NA,NA,NA,NA,"",NA,"2"
"",NA,"",NA,"",NA,NA,NA,NA,NA,NA,"","",1,1,"2024-08-22_16h02.00.149","IAT(Formal)","2021.2.3","Win32",29.94011976,NA,"",NA,"",NA,NA,NA,NA,NA,NA,NA,"","","",NA,"i",1,0.6314,NA,NA,NA,NA,NA,"下贱","i","",NA,1,36,116,49,1,"",NA,"",NA,NA,NA,NA,NA,NA,NA,"",NA,"",NA,NA,NA,NA,NA,NA,NA,"","","",NA,"",NA,NA,NA,NA,NA,NA,NA,"",NA,"2"
"",NA,"",NA,"",NA,NA,NA,NA,NA,NA,"","",1,1,"2024-08-22_16h02.00.149","IAT(Formal)","2021.2.3","Win32",29.94011976,NA,"",NA,"",NA,NA,NA,NA,NA,NA,NA,"","","",NA,"i",1,0.6442,NA,NA,NA,NA,NA,"愚蠢","i","",NA,1,37,117,32,1,"",NA,"",NA,NA,NA,NA,NA,NA,NA,"",NA,"",NA,NA,NA,NA,NA,NA,NA,"","","",NA,"",NA,NA,NA,NA,NA,NA,NA,"",NA,"2"
"",NA,"",NA,"",NA,NA,NA,NA,NA,NA,"","",1,1,"2024-08-22_16h02.00.149","IAT(Formal)","2021.2.3","Win32",29.94011976,NA,"",NA,"",NA,NA,NA,NA,NA,NA,NA,"","","",NA,"i",0,0.6488,NA,NA,NA,NA,NA,"乐观","e","",NA,1,38,118,14,1,"",NA,"",NA,NA,NA,NA,NA,NA,NA,"",NA,"",NA,NA,NA,NA,NA,NA,NA,"","","",NA,"",NA,NA,NA,NA,NA,NA,NA,"",NA,"2"
"",NA,"",NA,"",NA,NA,NA,NA,NA,NA,"","",1,1,"2024-08-22_16h02.00.149","IAT(Formal)","2021.2.3","Win32",29.94011976,NA,"",NA,"",NA,NA,NA,NA,NA,NA,NA,"","","",NA,"e",1,0.7775,NA,NA,NA,NA,NA,"冷静","e","",NA,1,39,119,26,1,"",NA,"",NA,NA,NA,NA,NA,NA,NA,"",NA,"",NA,NA,NA,NA,NA,NA,NA,"","","",NA,"",NA,NA,NA,NA,NA,NA,NA,"",NA,"2"
"",NA,"",NA,"",NA,NA,NA,NA,NA,NA,"","",1,1,"2024-08-22_16h02.00.149","IAT(Formal)","2021.2.3","Win32",29.94011976,NA,"",NA,"",NA,NA,NA,NA,NA,NA,NA,"","","",NA,"e",1,0.5202,NA,NA,NA,NA,NA,"自己","e","",NA,1,40,120,3,1,"",NA,"",NA,NA,NA,NA,NA,NA,NA,"",NA,"",NA,NA,NA,NA,NA,NA,NA,"","","",NA,"",NA,NA,NA,NA,NA,NA,NA,"",NA,"2"
"",NA,"",NA,"",NA,NA,NA,NA,NA,NA,"","",1,1,"2024-08-22_16h02.00.149","IAT(Formal)","2021.2.3","Win32",29.94011976,NA,"",NA,"",NA,NA,NA,NA,NA,NA,NA,"","","",NA,"i",1,0.9085,NA,NA,NA,NA,NA,"他的","i","",NA,1,41,121,77,1,"",NA,"",NA,NA,NA,NA,NA,NA,NA,"",NA,"",NA,NA,NA,NA,NA,NA,NA,"","","",NA,"",NA,NA,NA,NA,NA,NA,NA,"",NA,"2"
"",NA,"",NA,"",NA,NA,NA,NA,NA,NA,"","",1,1,"2024-08-22_16h02.00.149","IAT(Formal)","2021.2.3","Win32",29.94011976,NA,"",NA,"",NA,NA,NA,NA,NA,NA,NA,"","","",NA,"i",1,0.6417,NA,NA,NA,NA,NA,"他的","i","",NA,1,42,122,57,1,"",NA,"",NA,NA,NA,NA,NA,NA,NA,"",NA,"",NA,NA,NA,NA,NA,NA,NA,"","","",NA,"",NA,NA,NA,NA,NA,NA,NA,"",NA,"2"
"",NA,"",NA,"",NA,NA,NA,NA,NA,NA,"","",1,1,"2024-08-22_16h02.00.149","IAT(Formal)","2021.2.3","Win32",29.94011976,NA,"",NA,"",NA,NA,NA,NA,NA,NA,NA,"","","",NA,"e",1,0.6208,NA,NA,NA,NA,NA,"我","e","",NA,1,43,123,60,1,"",NA,"",NA,NA,NA,NA,NA,NA,NA,"",NA,"",NA,NA,NA,NA,NA,NA,NA,"","","",NA,"",NA,NA,NA,NA,NA,NA,NA,"",NA,"2"
"",NA,"",NA,"",NA,NA,NA,NA,NA,NA,"","",1,1,"2024-08-22_16h02.00.149","IAT(Formal)","2021.2.3","Win32",29.94011976,NA,"",NA,"",NA,NA,NA,NA,NA,NA,NA,"","","",NA,"i",1,0.6107,NA,NA,NA,NA,NA,"他人","i","",NA,1,44,124,68,1,"",NA,"",NA,NA,NA,NA,NA,NA,NA,"",NA,"",NA,NA,NA,NA,NA,NA,NA,"","","",NA,"",NA,NA,NA,NA,NA,NA,NA,"",NA,"2"
"",NA,"",NA,"",NA,NA,NA,NA,NA,NA,"","",1,1,"2024-08-22_16h02.00.149","IAT(Formal)","2021.2.3","Win32",29.94011976,NA,"",NA,"",NA,NA,NA,NA,NA,NA,NA,"","","",NA,"e",1,0.6098,NA,NA,NA,NA,NA,"我","e","",NA,1,45,125,50,1,"",NA,"",NA,NA,NA,NA,NA,NA,NA,"",NA,"",NA,NA,NA,NA,NA,NA,NA,"","","",NA,"",NA,NA,NA,NA,NA,NA,NA,"",NA,"2"
"",NA,"",NA,"",NA,NA,NA,NA,NA,NA,"","",1,1,"2024-08-22_16h02.00.149","IAT(Formal)","2021.2.3","Win32",29.94011976,NA,"",NA,"",NA,NA,NA,NA,NA,NA,NA,"","","",NA,"e",1,0.6358,NA,NA,NA,NA,NA,"诚实","e","",NA,1,46,126,15,1,"",NA,"",NA,NA,NA,NA,NA,NA,NA,"",NA,"",NA,NA,NA,NA,NA,NA,NA,"","","",NA,"",NA,NA,NA,NA,NA,NA,NA,"",NA,"2"
"",NA,"",NA,"",NA,NA,NA,NA,NA,NA,"","",1,1,"2024-08-22_16h02.00.149","IAT(Formal)","2021.2.3","Win32",29.94011976,NA,"",NA,"",NA,NA,NA,NA,NA,NA,NA,"","","",NA,"e",1,0.7448,NA,NA,NA,NA,NA,"机智","e","",NA,1,47,127,19,1,"",NA,"",NA,NA,NA,NA,NA,NA,NA,"",NA,"",NA,NA,NA,NA,NA,NA,NA,"","","",NA,"",NA,NA,NA,NA,NA,NA,NA,"",NA,"2"
"",NA,"",NA,"",NA,NA,NA,NA,NA,NA,"","",1,1,"2024-08-22_16h02.00.149","IAT(Formal)","2021.2.3","Win32",29.94011976,NA,"",NA,"",NA,NA,NA,NA,NA,NA,NA,"","","",NA,"e",1,0.6265,NA,NA,NA,NA,NA,"勇敢","e","",NA,1,48,128,17,1,"",NA,"",NA,NA,NA,NA,NA,NA,NA,"",NA,"",NA,NA,NA,NA,NA,NA,NA,"","","",NA,"",NA,NA,NA,NA,NA,NA,NA,"",NA,"2"
"",NA,"",NA,"",NA,NA,NA,NA,NA,NA,"","",1,1,"2024-08-22_16h02.00.149","IAT(Formal)","2021.2.3","Win32",29.94011976,NA,"",NA,"",NA,NA,NA,NA,NA,NA,NA,"","","",NA,"i",1,0.7611,NA,NA,NA,NA,NA,"固执","i","",NA,1,49,129,47,1,"",NA,"",NA,NA,NA,NA,NA,NA,NA,"",NA,"",NA,NA,NA,NA,NA,NA,NA,"","","",NA,"",NA,NA,NA,NA,NA,NA,NA,"",NA,"2"
"",NA,"",NA,"",NA,NA,NA,NA,NA,NA,"","",1,1,"2024-08-22_16h02.00.149","IAT(Formal)","2021.2.3","Win32",29.94011976,NA,"",NA,"",NA,NA,NA,NA,NA,NA,NA,"","","",NA,"e",1,0.6124,NA,NA,NA,NA,NA,"我们","e","",NA,1,50,130,2,1,"",NA,"",NA,NA,NA,NA,NA,NA,NA,"",NA,"",NA,NA,NA,NA,NA,NA,NA,"","","",NA,"",NA,NA,NA,NA,NA,NA,NA,"",NA,"2"
"",NA,"",NA,"",NA,NA,NA,NA,NA,NA,"","",1,1,"2024-08-22_16h02.00.149","IAT(Formal)","2021.2.3","Win32",29.94011976,NA,"",NA,"",NA,NA,NA,NA,NA,NA,NA,"","","",NA,"i",1,0.5271,NA,NA,NA,NA,NA,"他们","i","",NA,1,51,131,76,1,"",NA,"",NA,NA,NA,NA,NA,NA,NA,"",NA,"",NA,NA,NA,NA,NA,NA,NA,"","","",NA,"",NA,NA,NA,NA,NA,NA,NA,"",NA,"2"
"",NA,"",NA,"",NA,NA,NA,NA,NA,NA,"","",1,1,"2024-08-22_16h02.00.149","IAT(Formal)","2021.2.3","Win32",29.94011976,NA,"",NA,"",NA,NA,NA,NA,NA,NA,NA,"","","",NA,"e",1,0.5188,NA,NA,NA,NA,NA,"我的","e","",NA,1,52,132,1,1,"",NA,"",NA,NA,NA,NA,NA,NA,NA,"",NA,"",NA,NA,NA,NA,NA,NA,NA,"","","",NA,"",NA,NA,NA,NA,NA,NA,NA,"",NA,"2"
"",NA,"",NA,"",NA,NA,NA,NA,NA,NA,"","",1,1,"2024-08-22_16h02.00.149","IAT(Formal)","2021.2.3","Win32",29.94011976,NA,"",NA,"",NA,NA,NA,NA,NA,NA,NA,"","","",NA,"e",1,0.5221,NA,NA,NA,NA,NA,"自己","e","",NA,1,53,133,73,1,"",NA,"",NA,NA,NA,NA,NA,NA,NA,"",NA,"",NA,NA,NA,NA,NA,NA,NA,"","","",NA,"",NA,NA,NA,NA,NA,NA,NA,"",NA,"2"
"",NA,"",NA,"",NA,NA,NA,NA,NA,NA,"","",1,1,"2024-08-22_16h02.00.149","IAT(Formal)","2021.2.3","Win32",29.94011976,NA,"",NA,"",NA,NA,NA,NA,NA,NA,NA,"","","",NA,"e",1,0.6132,NA,NA,NA,NA,NA,"我的","e","",NA,1,54,134,61,1,"",NA,"",NA,NA,NA,NA,NA,NA,NA,"",NA,"",NA,NA,NA,NA,NA,NA,NA,"","","",NA,"",NA,NA,NA,NA,NA,NA,NA,"",NA,"2"
"",NA,"",NA,"",NA,NA,NA,NA,NA,NA,"","",1,1,"2024-08-22_16h02.00.149","IAT(Formal)","2021.2.3","Win32",29.94011976,NA,"",NA,"",NA,NA,NA,NA,NA,NA,NA,"","","",NA,"e",1,0.5171,NA,NA,NA,NA,NA,"我的","e","",NA,1,55,135,71,1,"",NA,"",NA,NA,NA,NA,NA,NA,NA,"",NA,"",NA,NA,NA,NA,NA,NA,NA,"","","",NA,"",NA,NA,NA,NA,NA,NA,NA,"",NA,"2"
"",NA,"",NA,"",NA,NA,NA,NA,NA,NA,"","",1,1,"2024-08-22_16h02.00.149","IAT(Formal)","2021.2.3","Win32",29.94011976,NA,"",NA,"",NA,NA,NA,NA,NA,NA,NA,"","","",NA,"e",1,0.5163,NA,NA,NA,NA,NA,"我","e","",NA,1,56,136,0,1,"",NA,"",NA,NA,NA,NA,NA,NA,NA,"",NA,"",NA,NA,NA,NA,NA,NA,NA,"","","",NA,"",NA,NA,NA,NA,NA,NA,NA,"",NA,"2"
"",NA,"",NA,"",NA,NA,NA,NA,NA,NA,"","",1,1,"2024-08-22_16h02.00.149","IAT(Formal)","2021.2.3","Win32",29.94011976,NA,"",NA,"",NA,NA,NA,NA,NA,NA,NA,"","","",NA,"i",1,0.4978,NA,NA,NA,NA,NA,"刻薄","i","",NA,1,57,137,33,1,"",NA,"",NA,NA,NA,NA,NA,NA,NA,"",NA,"",NA,NA,NA,NA,NA,NA,NA,"","","",NA,"",NA,NA,NA,NA,NA,NA,NA,"",NA,"2"
"",NA,"",NA,"",NA,NA,NA,NA,NA,NA,"","",1,1,"2024-08-22_16h02.00.149","IAT(Formal)","2021.2.3","Win32",29.94011976,NA,"",NA,"",NA,NA,NA,NA,NA,NA,NA,"","","",NA,"i",1,0.6498,NA,NA,NA,NA,NA,"悲观","i","",NA,1,58,138,34,1,"",NA,"",NA,NA,NA,NA,NA,NA,NA,"",NA,"",NA,NA,NA,NA,NA,NA,NA,"","","",NA,"",NA,NA,NA,NA,NA,NA,NA,"",NA,"2"
"",NA,"",NA,"",NA,NA,NA,NA,NA,NA,"","",1,1,"2024-08-22_16h02.00.149","IAT(Formal)","2021.2.3","Win32",29.94011976,NA,"",NA,"",NA,NA,NA,NA,NA,NA,NA,"","","",NA,"e",1,0.6488,NA,NA,NA,NA,NA,"我的","e","",NA,1,59,139,51,1,"",NA,"",NA,NA,NA,NA,NA,NA,NA,"",NA,"",NA,NA,NA,NA,NA,NA,NA,"","","",NA,"",NA,NA,NA,NA,NA,NA,NA,"",NA,"2"
"",NA,"",NA,"",NA,NA,NA,NA,NA,NA,"","",1,1,"2024-08-22_16h02.00.149","IAT(Formal)","2021.2.3","Win32",29.94011976,NA,"",NA,"",NA,NA,NA,NA,NA,NA,NA,"","","",NA,"i",1,0.6367,NA,NA,NA,NA,NA,"他们","i","",NA,1,60,140,56,1,"",NA,"",NA,NA,NA,NA,NA,NA,NA,"",NA,"",NA,NA,NA,NA,NA,NA,NA,"","","",NA,"",NA,NA,NA,NA,NA,NA,NA,"",NA,"2"
"",NA,"",NA,"",NA,NA,NA,NA,NA,NA,"","",1,1,"2024-08-22_16h02.00.149","IAT(Formal)","2021.2.3","Win32",29.94011976,NA,"",NA,"",NA,NA,NA,NA,NA,NA,NA,"","","",NA,"i",1,0.5203,NA,NA,NA,NA,NA,"其他","i","",NA,1,61,141,9,1,"",NA,"",NA,NA,NA,NA,NA,NA,NA,"",NA,"",NA,NA,NA,NA,NA,NA,NA,"","","",NA,"",NA,NA,NA,NA,NA,NA,NA,"",NA,"2"
"",NA,"",NA,"",NA,NA,NA,NA,NA,NA,"","",1,1,"2024-08-22_16h02.00.149","IAT(Formal)","2021.2.3","Win32",29.94011976,NA,"",NA,"",NA,NA,NA,NA,NA,NA,NA,"","","",NA,"i",1,0.5158,NA,NA,NA,NA,NA,"他人","i","",NA,1,62,142,58,1,"",NA,"",NA,NA,NA,NA,NA,NA,NA,"",NA,"",NA,NA,NA,NA,NA,NA,NA,"","","",NA,"",NA,NA,NA,NA,NA,NA,NA,"",NA,"2"
"",NA,"",NA,"",NA,NA,NA,NA,NA,NA,"","",1,1,"2024-08-22_16h02.00.149","IAT(Formal)","2021.2.3","Win32",29.94011976,NA,"",NA,"",NA,NA,NA,NA,NA,NA,NA,"","","",NA,"i",1,0.5125,NA,NA,NA,NA,NA,"他人","i","",NA,1,63,143,8,1,"",NA,"",NA,NA,NA,NA,NA,NA,NA,"",NA,"",NA,NA,NA,NA,NA,NA,NA,"","","",NA,"",NA,NA,NA,NA,NA,NA,NA,"",NA,"2"
"",NA,"",NA,"",NA,NA,NA,NA,NA,NA,"","",1,1,"2024-08-22_16h02.00.149","IAT(Formal)","2021.2.3","Win32",29.94011976,NA,"",NA,"",NA,NA,NA,NA,NA,NA,NA,"","","",NA,"i",1,0.5122,NA,NA,NA,NA,NA,"凶狠","i","",NA,1,64,144,42,1,"",NA,"",NA,NA,NA,NA,NA,NA,NA,"",NA,"",NA,NA,NA,NA,NA,NA,NA,"","","",NA,"",NA,NA,NA,NA,NA,NA,NA,"",NA,"2"
"",NA,"",NA,"",NA,NA,NA,NA,NA,NA,"","",1,1,"2024-08-22_16h02.00.149","IAT(Formal)","2021.2.3","Win32",29.94011976,NA,"",NA,"",NA,NA,NA,NA,NA,NA,NA,"","","",NA,"i",0,0.623,NA,NA,NA,NA,NA,"无私","e","",NA,1,65,145,22,1,"",NA,"",NA,NA,NA,NA,NA,NA,NA,"",NA,"",NA,NA,NA,NA,NA,NA,NA,"","","",NA,"",NA,NA,NA,NA,NA,NA,NA,"",NA,"2"
"",NA,"",NA,"",NA,NA,NA,NA,NA,NA,"","",1,1,"2024-08-22_16h02.00.149","IAT(Formal)","2021.2.3","Win32",29.94011976,NA,"",NA,"",NA,NA,NA,NA,NA,NA,NA,"","","",NA,"i",1,0.504,NA,NA,NA,NA,NA,"其他","i","",NA,1,66,146,69,1,"",NA,"",NA,NA,NA,NA,NA,NA,NA,"",NA,"",NA,NA,NA,NA,NA,NA,NA,"","","",NA,"",NA,NA,NA,NA,NA,NA,NA,"",NA,"2"
"",NA,"",NA,"",NA,NA,NA,NA,NA,NA,"","",1,1,"2024-08-22_16h02.00.149","IAT(Formal)","2021.2.3","Win32",29.94011976,NA,"",NA,"",NA,NA,NA,NA,NA,NA,NA,"","","",NA,"e",1,0.6517,NA,NA,NA,NA,NA,"我们","e","",NA,1,67,147,62,1,"",NA,"",NA,NA,NA,NA,NA,NA,NA,"",NA,"",NA,NA,NA,NA,NA,NA,NA,"","","",NA,"",NA,NA,NA,NA,NA,NA,NA,"",NA,"2"
"",NA,"",NA,"",NA,NA,NA,NA,NA,NA,"","",1,1,"2024-08-22_16h02.00.149","IAT(Formal)","2021.2.3","Win32",29.94011976,NA,"",NA,"",NA,NA,NA,NA,NA,NA,NA,"","","",NA,"i",1,0.6349,NA,NA,NA,NA,NA,"他的","i","",NA,1,68,148,67,1,"",NA,"",NA,NA,NA,NA,NA,NA,NA,"",NA,"",NA,NA,NA,NA,NA,NA,NA,"","","",NA,"",NA,NA,NA,NA,NA,NA,NA,"",NA,"2"
"",NA,"",NA,"",NA,NA,NA,NA,NA,NA,"","",1,1,"2024-08-22_16h02.00.149","IAT(Formal)","2021.2.3","Win32",29.94011976,NA,"",NA,"",NA,NA,NA,NA,NA,NA,NA,"","","",NA,"i",1,0.6247,NA,NA,NA,NA,NA,"其他","i","",NA,1,69,149,79,1,"",NA,"",NA,NA,NA,NA,NA,NA,NA,"",NA,"",NA,NA,NA,NA,NA,NA,NA,"","","",NA,"",NA,NA,NA,NA,NA,NA,NA,"",NA,"2"
"",NA,"",NA,"",NA,NA,NA,NA,NA,NA,"","",1,1,"2024-08-22_16h02.00.149","IAT(Formal)","2021.2.3","Win32",29.94011976,NA,"",NA,"",NA,NA,NA,NA,NA,NA,NA,"","","",NA,"i",1,0.769,NA,NA,NA,NA,NA,"消极","i","",NA,1,70,150,35,1,"",NA,"",NA,NA,NA,NA,NA,NA,NA,"",NA,"",NA,NA,NA,NA,NA,NA,NA,"","","",NA,"",NA,NA,NA,NA,NA,NA,NA,"",NA,"2"
"",NA,"",NA,"",NA,NA,NA,NA,NA,NA,"","",1,1,"2024-08-22_16h02.00.149","IAT(Formal)","2021.2.3","Win32",29.94011976,NA,"",NA,"",NA,NA,NA,NA,NA,NA,NA,"","","",NA,"i",1,0.6441,NA,NA,NA,NA,NA,"轻率","i","",NA,1,71,151,48,1,"",NA,"",NA,NA,NA,NA,NA,NA,NA,"",NA,"",NA,NA,NA,NA,NA,NA,NA,"","","",NA,"",NA,NA,NA,NA,NA,NA,NA,"",NA,"2"
"",NA,"",NA,"",NA,NA,NA,NA,NA,NA,"","",1,1,"2024-08-22_16h02.00.149","IAT(Formal)","2021.2.3","Win32",29.94011976,NA,"",NA,"",NA,NA,NA,NA,NA,NA,NA,"","","",NA,"e",1,0.7576,NA,NA,NA,NA,NA,"杰出","e","",NA,1,72,152,13,1,"",NA,"",NA,NA,NA,NA,NA,NA,NA,"",NA,"",NA,NA,NA,NA,NA,NA,NA,"","","",NA,"",NA,NA,NA,NA,NA,NA,NA,"",NA,"2"
"",NA,"",NA,"",NA,NA,NA,NA,NA,NA,"","",1,1,"2024-08-22_16h02.00.149","IAT(Formal)","2021.2.3","Win32",29.94011976,NA,"",NA,"",NA,NA,NA,NA,NA,NA,NA,"","","",NA,"e",1,0.9005,NA,NA,NA,NA,NA,"崇高","e","",NA,1,73,153,11,1,"",NA,"",NA,NA,NA,NA,NA,NA,NA,"",NA,"",NA,NA,NA,NA,NA,NA,NA,"","","",NA,"",NA,NA,NA,NA,NA,NA,NA,"",NA,"2"
"",NA,"",NA,"",NA,NA,NA,NA,NA,NA,"","",1,1,"2024-08-22_16h02.00.149","IAT(Formal)","2021.2.3","Win32",29.94011976,NA,"",NA,"",NA,NA,NA,NA,NA,NA,NA,"","","",NA,"e",1,1.0239,NA,NA,NA,NA,NA,"正直","e","",NA,1,74,154,16,1,"",NA,"",NA,NA,NA,NA,NA,NA,NA,"",NA,"",NA,NA,NA,NA,NA,NA,NA,"","","",NA,"",NA,NA,NA,NA,NA,NA,NA,"",NA,"2"
"",NA,"",NA,"",NA,NA,NA,NA,NA,NA,"","",1,1,"2024-08-22_16h02.00.149","IAT(Formal)","2021.2.3","Win32",29.94011976,NA,"",NA,"",NA,NA,NA,NA,NA,NA,NA,"","","",NA,"e",0,1.1522,NA,NA,NA,NA,NA,"自私","i","",NA,1,75,155,43,1,"",NA,"",NA,NA,NA,NA,NA,NA,NA,"",NA,"",NA,NA,NA,NA,NA,NA,NA,"","","",NA,"",NA,NA,NA,NA,NA,NA,NA,"",NA,"2"
"",NA,"",NA,"",NA,NA,NA,NA,NA,NA,"","",1,1,"2024-08-22_16h02.00.149","IAT(Formal)","2021.2.3","Win32",29.94011976,NA,"",NA,"",NA,NA,NA,NA,NA,NA,NA,"","","",NA,"i",1,0.7456,NA,NA,NA,NA,NA,"散漫","i","",NA,1,76,156,41,1,"",NA,"",NA,NA,NA,NA,NA,NA,NA,"",NA,"",NA,NA,NA,NA,NA,NA,NA,"","","",NA,"",NA,NA,NA,NA,NA,NA,NA,"",NA,"2"
"",NA,"",NA,"",NA,NA,NA,NA,NA,NA,"","",1,1,"2024-08-22_16h02.00.149","IAT(Formal)","2021.2.3","Win32",29.94011976,NA,"",NA,"",NA,NA,NA,NA,NA,NA,NA,"","","",NA,"i",1,0.6343,NA,NA,NA,NA,NA,"其他","i","",NA,1,77,157,59,1,"",NA,"",NA,NA,NA,NA,NA,NA,NA,"",NA,"",NA,NA,NA,NA,NA,NA,NA,"","","",NA,"",NA,NA,NA,NA,NA,NA,NA,"",NA,"2"
"",NA,"",NA,"",NA,NA,NA,NA,NA,NA,"","",1,1,"2024-08-22_16h02.00.149","IAT(Formal)","2021.2.3","Win32",29.94011976,NA,"",NA,"",NA,NA,NA,NA,NA,NA,NA,"","","",NA,"e",1,0.7555,NA,NA,NA,NA,NA,"优秀","e","",NA,1,78,158,10,1,"",NA,"",NA,NA,NA,NA,NA,NA,NA,"",NA,"",NA,NA,NA,NA,NA,NA,NA,"","","",NA,"",NA,NA,NA,NA,NA,NA,NA,"",NA,"2"
"",NA,"",NA,"",NA,NA,NA,NA,NA,NA,"","",1,1,"2024-08-22_16h02.00.149","IAT(Formal)","2021.2.3","Win32",29.94011976,NA,"",NA,"",NA,NA,NA,NA,NA,NA,NA,"","","",NA,"e",1,0.7866,NA,NA,NA,NA,NA,"活泼","e","",NA,1,79,159,28,1,"",NA,"",NA,NA,NA,NA,NA,NA,NA,"",NA,"",NA,NA,NA,NA,NA,NA,NA,"","","",NA,"",NA,NA,NA,NA,NA,NA,NA,"",NA,"2"
"",NA,"",NA,"",NA,NA,NA,NA,NA,NA,"我","i",1,1,"2024-08-22_16h02.00.149","IAT(Formal)","2021.2.3","Win32",29.94011976,NA,"",NA,"",NA,NA,NA,NA,NA,NA,NA,"","","",NA,"",NA,NA,NA,NA,NA,NA,NA,"","","",NA,NA,NA,NA,NA,NA,"space",8.8272,"",0,0,0,0,0,1,NA,"",NA,"",NA,NA,NA,NA,NA,NA,NA,"","","",NA,"",NA,NA,NA,NA,NA,NA,NA,"",NA,"2"
"",NA,"",NA,"",NA,NA,NA,NA,NA,NA,"我们","i",1,1,"2024-08-22_16h02.00.149","IAT(Formal)","2021.2.3","Win32",29.94011976,NA,"",NA,"",NA,NA,NA,NA,NA,NA,NA,"","","",NA,"",NA,NA,NA,NA,NA,NA,NA,"","","",NA,NA,NA,NA,NA,NA,"",NA,"i",1,0,1,1,2,1,1.1229,"",NA,"",NA,NA,NA,NA,NA,NA,NA,"","","",NA,"",NA,NA,NA,NA,NA,NA,NA,"",NA,"2"
"",NA,"",NA,"",NA,NA,NA,NA,NA,NA,"其他","e",1,1,"2024-08-22_16h02.00.149","IAT(Formal)","2021.2.3","Win32",29.94011976,NA,"",NA,"",NA,NA,NA,NA,NA,NA,NA,"","","",NA,"",NA,NA,NA,NA,NA,NA,NA,"","","",NA,NA,NA,NA,NA,NA,"",NA,"e",1,0,2,2,9,1,0.7666,"",NA,"",NA,NA,NA,NA,NA,NA,NA,"","","",NA,"",NA,NA,NA,NA,NA,NA,NA,"",NA,"2"
"",NA,"",NA,"",NA,NA,NA,NA,NA,NA,"他人","e",1,1,"2024-08-22_16h02.00.149","IAT(Formal)","2021.2.3","Win32",29.94011976,NA,"",NA,"",NA,NA,NA,NA,NA,NA,NA,"","","",NA,"",NA,NA,NA,NA,NA,NA,NA,"","","",NA,NA,NA,NA,NA,NA,"",NA,"",0,0,3,3,8,1,NA,"",NA,"",NA,NA,NA,NA,NA,NA,NA,"","","",NA,"",NA,NA,NA,NA,NA,NA,NA,"",NA,"2"
"",NA,"",NA,"",NA,NA,NA,NA,NA,NA,"他","e",1,1,"2024-08-22_16h02.00.149","IAT(Formal)","2021.2.3","Win32",29.94011976,NA,"",NA,"",NA,NA,NA,NA,NA,NA,NA,"","","",NA,"",NA,NA,NA,NA,NA,NA,NA,"","","",NA,NA,NA,NA,NA,NA,"",NA,"e",1,0,4,4,5,1,0.9075,"",NA,"",NA,NA,NA,NA,NA,NA,NA,"","","",NA,"",NA,NA,NA,NA,NA,NA,NA,"",NA,"2"
"",NA,"",NA,"",NA,NA,NA,NA,NA,NA,"俺","i",1,1,"2024-08-22_16h02.00.149","IAT(Formal)","2021.2.3","Win32",29.94011976,NA,"",NA,"",NA,NA,NA,NA,NA,NA,NA,"","","",NA,"",NA,NA,NA,NA,NA,NA,NA,"","","",NA,NA,NA,NA,NA,NA,"",NA,"i",1,0,5,5,4,1,0.7704,"",NA,"",NA,NA,NA,NA,NA,NA,NA,"","","",NA,"",NA,NA,NA,NA,NA,NA,NA,"",NA,"2"
"",NA,"",NA,"",NA,NA,NA,NA,NA,NA,"他们","e",1,1,"2024-08-22_16h02.00.149","IAT(Formal)","2021.2.3","Win32",29.94011976,NA,"",NA,"",NA,NA,NA,NA,NA,NA,NA,"","","",NA,"",NA,NA,NA,NA,NA,NA,NA,"","","",NA,NA,NA,NA,NA,NA,"",NA,"i",0,0,6,6,6,1,0.9031,"",NA,"",NA,NA,NA,NA,NA,NA,NA,"","","",NA,"",NA,NA,NA,NA,NA,NA,NA,"",NA,"2"
"",NA,"",NA,"",NA,NA,NA,NA,NA,NA,"我的","i",1,1,"2024-08-22_16h02.00.149","IAT(Formal)","2021.2.3","Win32",29.94011976,NA,"",NA,"",NA,NA,NA,NA,NA,NA,NA,"","","",NA,"",NA,NA,NA,NA,NA,NA,NA,"","","",NA,NA,NA,NA,NA,NA,"",NA,"i",1,0,7,7,1,1,0.8777,"",NA,"",NA,NA,NA,NA,NA,NA,NA,"","","",NA,"",NA,NA,NA,NA,NA,NA,NA,"",NA,"2"
"",NA,"",NA,"",NA,NA,NA,NA,NA,NA,"他的","e",1,1,"2024-08-22_16h02.00.149","IAT(Formal)","2021.2.3","Win32",29.94011976,NA,"",NA,"",NA,NA,NA,NA,NA,NA,NA,"","","",NA,"",NA,NA,NA,NA,NA,NA,NA,"","","",NA,NA,NA,NA,NA,NA,"",NA,"",0,0,8,8,7,1,NA,"",NA,"",NA,NA,NA,NA,NA,NA,NA,"","","",NA,"",NA,NA,NA,NA,NA,NA,NA,"",NA,"2"
"",NA,"",NA,"",NA,NA,NA,NA,NA,NA,"自己","i",1,1,"2024-08-22_16h02.00.149","IAT(Formal)","2021.2.3","Win32",29.94011976,NA,"",NA,"",NA,NA,NA,NA,NA,NA,NA,"","","",NA,"",NA,NA,NA,NA,NA,NA,NA,"","","",NA,NA,NA,NA,NA,NA,"",NA,"i",1,0,9,9,3,1,0.9001,"",NA,"",NA,NA,NA,NA,NA,NA,NA,"","","",NA,"",NA,NA,NA,NA,NA,NA,NA,"",NA,"2"
"",NA,"",NA,"",NA,NA,NA,NA,NA,NA,"","",1,1,"2024-08-22_16h02.00.149","IAT(Formal)","2021.2.3","Win32",29.94011976,NA,"",NA,"",NA,NA,NA,NA,NA,NA,NA,"","","",NA,"",NA,NA,NA,NA,NA,NA,NA,"","","",NA,NA,NA,NA,NA,NA,"",NA,"",NA,NA,NA,NA,NA,NA,NA,"space",12.568,"i",1,0.7688,0,0,0,53,1,"自己","i","",NA,"",NA,NA,NA,NA,NA,NA,NA,"",NA,"2"
"",NA,"",NA,"",NA,NA,NA,NA,NA,NA,"","",1,1,"2024-08-22_16h02.00.149","IAT(Formal)","2021.2.3","Win32",29.94011976,NA,"",NA,"",NA,NA,NA,NA,NA,NA,NA,"","","",NA,"",NA,NA,NA,NA,NA,NA,NA,"","","",NA,NA,NA,NA,NA,NA,"",NA,"",NA,NA,NA,NA,NA,NA,NA,"",NA,"i",0,0.5043,0,1,1,55,1,"他","e","",NA,"",NA,NA,NA,NA,NA,NA,NA,"",NA,"2"
"",NA,"",NA,"",NA,NA,NA,NA,NA,NA,"","",1,1,"2024-08-22_16h02.00.149","IAT(Formal)","2021.2.3","Win32",29.94011976,NA,"",NA,"",NA,NA,NA,NA,NA,NA,NA,"","","",NA,"",NA,NA,NA,NA,NA,NA,NA,"","","",NA,NA,NA,NA,NA,NA,"",NA,"",NA,NA,NA,NA,NA,NA,NA,"",NA,"i",1,0.7935,0,2,2,34,1,"悲观","i","",NA,"",NA,NA,NA,NA,NA,NA,NA,"",NA,"2"
"",NA,"",NA,"",NA,NA,NA,NA,NA,NA,"","",1,1,"2024-08-22_16h02.00.149","IAT(Formal)","2021.2.3","Win32",29.94011976,NA,"",NA,"",NA,NA,NA,NA,NA,NA,NA,"","","",NA,"",NA,NA,NA,NA,NA,NA,NA,"","","",NA,NA,NA,NA,NA,NA,"",NA,"",NA,NA,NA,NA,NA,NA,NA,"",NA,"e",0,0.7762,0,3,3,61,1,"我的","i","",NA,"",NA,NA,NA,NA,NA,NA,NA,"",NA,"2"
"",NA,"",NA,"",NA,NA,NA,NA,NA,NA,"","",1,1,"2024-08-22_16h02.00.149","IAT(Formal)","2021.2.3","Win32",29.94011976,NA,"",NA,"",NA,NA,NA,NA,NA,NA,NA,"","","",NA,"",NA,NA,NA,NA,NA,NA,NA,"","","",NA,NA,NA,NA,NA,NA,"",NA,"",NA,NA,NA,NA,NA,NA,NA,"",NA,"e",1,0.3865,0,4,4,22,1,"无私","e","",NA,"",NA,NA,NA,NA,NA,NA,NA,"",NA,"2"
"",NA,"",NA,"",NA,NA,NA,NA,NA,NA,"","",1,1,"2024-08-22_16h02.00.149","IAT(Formal)","2021.2.3","Win32",29.94011976,NA,"",NA,"",NA,NA,NA,NA,NA,NA,NA,"","","",NA,"",NA,NA,NA,NA,NA,NA,NA,"","","",NA,NA,NA,NA,NA,NA,"",NA,"",NA,NA,NA,NA,NA,NA,NA,"",NA,"i",0,0.6619,0,5,5,11,1,"崇高","e","",NA,"",NA,NA,NA,NA,NA,NA,NA,"",NA,"2"
