﻿Instruction1.keys,Instruction1.rt,Instruction2.keys,Instruction2.rt,key_resp_iso.keys,key_resp_iso.corr,key_resp_iso.rt,Practice_01.thisRepN,Practice_01.thisTrialN,Practice_01.thisN,Practice_01.thisIndex,Practice_01.ran,Words,ans,participant,session,date,expName,psychopyVersion,OS,frameRate,key_resp_3.keys,key_resp_3.rt,key_resp_ipn.keys,key_resp_ipn.corr,key_resp_ipn.rt,Practice_02.thisRepN,Practice_02.thisTrialN,Practice_02.thisN,Practice_02.thisIndex,Practice_02.ran,Words_ipn,ans_ipn,key_resp_4.keys,key_resp_4.rt,key_resp_t1.keys,key_resp_t1.corr,key_resp_t1.rt,Practice_T1.thisRepN,Practice_T1.thisTrialN,Practice_T1.thisN,Practice_T1.thisIndex,Practice_T1.ran,Words_t1,ans_t1,key_resp_5.keys,key_resp_5.rt,Formal_T1.thisRepN,Formal_T1.thisTrialN,Formal_T1.thisN,Formal_T1.thisIndex,Formal_T1.ran,key_resp_6.keys,key_resp_6.rt,key_resp_iso_reverse.keys,key_resp_iso_reverse.corr,key_resp_iso_reverse.rt,Practice_iso_Reverse.thisRepN,Practice_iso_Reverse.thisTrialN,Practice_iso_Reverse.thisN,Practice_iso_Reverse.thisIndex,Practice_iso_Reverse.ran,key_resp_7.keys,key_resp_7.rt,key_resp_t2_Practice.keys,key_resp_t2_Practice.corr,key_resp_t2_Practice.rt,Practice_t2_Reverse.thisRepN,Practice_t2_Reverse.thisTrialN,Practice_t2_Reverse.thisN,Practice_t2_Reverse.thisIndex,Practice_t2_Reverse.ran,Words_t2,ans_t2,key_resp_8.keys,key_resp_8.rt,key_resp_t2.keys,key_resp_t2.corr,key_resp_t2.rt,Formal_t2_reverse.thisRepN,Formal_t2_reverse.thisTrialN,Formal_t2_reverse.thisN,Formal_t2_reverse.thisIndex,Formal_t2_reverse.ran,key_instruct.keys,key_instruct.rt
space,4.2799,space,6.461,e,1,0.6059,0,0,0,1,1,我的,e,1,001,2024-08-24_03h59.22.803,IAT(Formal),2021.2.3,Win32,142.8571429,,,,,,,,,,,,,,,,,,,,,,,,,,,,,,,,,,,,,,,,,,,,,,,,,,,,,,,,,,,,,,,,,
,,,,i,1,0.5638,0,1,1,5,1,他,i,1,001,2024-08-24_03h59.22.803,IAT(Formal),2021.2.3,Win32,142.8571429,,,,,,,,,,,,,,,,,,,,,,,,,,,,,,,,,,,,,,,,,,,,,,,,,,,,,,,,,,,,,,,,,
,,,,i,1,0.4446,0,2,2,8,1,他人,i,1,001,2024-08-24_03h59.22.803,IAT(Formal),2021.2.3,Win32,142.8571429,,,,,,,,,,,,,,,,,,,,,,,,,,,,,,,,,,,,,,,,,,,,,,,,,,,,,,,,,,,,,,,,,
,,,,e,1,0.3981,0,3,3,0,1,我,e,1,001,2024-08-24_03h59.22.803,IAT(Formal),2021.2.3,Win32,142.8571429,,,,,,,,,,,,,,,,,,,,,,,,,,,,,,,,,,,,,,,,,,,,,,,,,,,,,,,,,,,,,,,,,
,,,,e,1,0.4665,0,4,4,2,1,我们,e,1,001,2024-08-24_03h59.22.803,IAT(Formal),2021.2.3,Win32,142.8571429,,,,,,,,,,,,,,,,,,,,,,,,,,,,,,,,,,,,,,,,,,,,,,,,,,,,,,,,,,,,,,,,,
,,,,i,1,0.5347,0,5,5,7,1,他的,i,1,001,2024-08-24_03h59.22.803,IAT(Formal),2021.2.3,Win32,142.8571429,,,,,,,,,,,,,,,,,,,,,,,,,,,,,,,,,,,,,,,,,,,,,,,,,,,,,,,,,,,,,,,,,
,,,,i,0,0.6935,0,6,6,4,1,俺,e,1,001,2024-08-24_03h59.22.803,IAT(Formal),2021.2.3,Win32,142.8571429,,,,,,,,,,,,,,,,,,,,,,,,,,,,,,,,,,,,,,,,,,,,,,,,,,,,,,,,,,,,,,,,,
,,,,i,1,0.4654,0,7,7,6,1,他们,i,1,001,2024-08-24_03h59.22.803,IAT(Formal),2021.2.3,Win32,142.8571429,,,,,,,,,,,,,,,,,,,,,,,,,,,,,,,,,,,,,,,,,,,,,,,,,,,,,,,,,,,,,,,,,
,,,,i,1,0.4792,0,8,8,9,1,其他,i,1,001,2024-08-24_03h59.22.803,IAT(Formal),2021.2.3,Win32,142.8571429,,,,,,,,,,,,,,,,,,,,,,,,,,,,,,,,,,,,,,,,,,,,,,,,,,,,,,,,,,,,,,,,,
,,,,e,1,0.5207,0,9,9,3,1,自己,e,1,001,2024-08-24_03h59.22.803,IAT(Formal),2021.2.3,Win32,142.8571429,,,,,,,,,,,,,,,,,,,,,,,,,,,,,,,,,,,,,,,,,,,,,,,,,,,,,,,,,,,,,,,,,
,,,,,,,,,,,,,,1,001,2024-08-24_03h59.22.803,IAT(Formal),2021.2.3,Win32,142.8571429,space,25.816,i,1,0.642,0,0,0,30,1,执拗,i,,,,,,,,,,,,,,,,,,,,,,,,,,,,,,,,,,,,,,,,,,,,,,,,,,,,,
,,,,,,,,,,,,,,1,001,2024-08-24_03h59.22.803,IAT(Formal),2021.2.3,Win32,142.8571429,,,i,1,0.5217,0,1,1,38,1,轻率,i,,,,,,,,,,,,,,,,,,,,,,,,,,,,,,,,,,,,,,,,,,,,,,,,,,,,,
,,,,,,,,,,,,,,1,001,2024-08-24_03h59.22.803,IAT(Formal),2021.2.3,Win32,142.8571429,,,e,1,0.9854,0,2,2,15,1,细腻,e,,,,,,,,,,,,,,,,,,,,,,,,,,,,,,,,,,,,,,,,,,,,,,,,,,,,,
,,,,,,,,,,,,,,1,001,2024-08-24_03h59.22.803,IAT(Formal),2021.2.3,Win32,142.8571429,,,e,1,0.4135,0,3,3,10,1,认真,e,,,,,,,,,,,,,,,,,,,,,,,,,,,,,,,,,,,,,,,,,,,,,,,,,,,,,
,,,,,,,,,,,,,,1,001,2024-08-24_03h59.22.803,IAT(Formal),2021.2.3,Win32,142.8571429,,,e,1,0.4656,0,4,4,4,1,乐观,e,,,,,,,,,,,,,,,,,,,,,,,,,,,,,,,,,,,,,,,,,,,,,,,,,,,,,
,,,,,,,,,,,,,,1,001,2024-08-24_03h59.22.803,IAT(Formal),2021.2.3,Win32,142.8571429,,,e,1,0.5873,0,5,5,11,1,稳重,e,,,,,,,,,,,,,,,,,,,,,,,,,,,,,,,,,,,,,,,,,,,,,,,,,,,,,
,,,,,,,,,,,,,,1,001,2024-08-24_03h59.22.803,IAT(Formal),2021.2.3,Win32,142.8571429,,,i,1,0.4517,0,6,6,34,1,暴躁,i,,,,,,,,,,,,,,,,,,,,,,,,,,,,,,,,,,,,,,,,,,,,,,,,,,,,,
,,,,,,,,,,,,,,1,001,2024-08-24_03h59.22.803,IAT(Formal),2021.2.3,Win32,142.8571429,,,i,1,0.3894,0,7,7,37,1,固执,i,,,,,,,,,,,,,,,,,,,,,,,,,,,,,,,,,,,,,,,,,,,,,,,,,,,,,
,,,,,,,,,,,,,,1,001,2024-08-24_03h59.22.803,IAT(Formal),2021.2.3,Win32,142.8571429,,,i,1,0.404,0,8,8,33,1,自私,i,,,,,,,,,,,,,,,,,,,,,,,,,,,,,,,,,,,,,,,,,,,,,,,,,,,,,
,,,,,,,,,,,,,,1,001,2024-08-24_03h59.22.803,IAT(Formal),2021.2.3,Win32,142.8571429,,,e,1,0.4046,0,9,9,2,1,聪明,e,,,,,,,,,,,,,,,,,,,,,,,,,,,,,,,,,,,,,,,,,,,,,,,,,,,,,
,,,,,,,,,,,,,,1,001,2024-08-24_03h59.22.803,IAT(Formal),2021.2.3,Win32,142.8571429,,,i,1,0.5834,0,10,10,23,1,刻薄,i,,,,,,,,,,,,,,,,,,,,,,,,,,,,,,,,,,,,,,,,,,,,,,,,,,,,,
,,,,,,,,,,,,,,1,001,2024-08-24_03h59.22.803,IAT(Formal),2021.2.3,Win32,142.8571429,,,e,1,0.5699,0,11,11,1,1,崇高,e,,,,,,,,,,,,,,,,,,,,,,,,,,,,,,,,,,,,,,,,,,,,,,,,,,,,,
,,,,,,,,,,,,,,1,001,2024-08-24_03h59.22.803,IAT(Formal),2021.2.3,Win32,142.8571429,,,i,1,0.4958,0,12,12,27,1,傲慢,i,,,,,,,,,,,,,,,,,,,,,,,,,,,,,,,,,,,,,,,,,,,,,,,,,,,,,
,,,,,,,,,,,,,,1,001,2024-08-24_03h59.22.803,IAT(Formal),2021.2.3,Win32,142.8571429,,,i,1,0.4116,0,13,13,22,1,愚蠢,i,,,,,,,,,,,,,,,,,,,,,,,,,,,,,,,,,,,,,,,,,,,,,,,,,,,,,
,,,,,,,,,,,,,,1,001,2024-08-24_03h59.22.803,IAT(Formal),2021.2.3,Win32,142.8571429,,,e,1,0.509,0,14,14,5,1,诚实,e,,,,,,,,,,,,,,,,,,,,,,,,,,,,,,,,,,,,,,,,,,,,,,,,,,,,,
,,,,,,,,,,,,,,1,001,2024-08-24_03h59.22.803,IAT(Formal),2021.2.3,Win32,142.8571429,,,i,1,0.4239,0,15,15,25,1,消极,i,,,,,,,,,,,,,,,,,,,,,,,,,,,,,,,,,,,,,,,,,,,,,,,,,,,,,
,,,,,,,,,,,,,,1,001,2024-08-24_03h59.22.803,IAT(Formal),2021.2.3,Win32,142.8571429,,,e,1,0.5902,0,16,16,0,1,优秀,e,,,,,,,,,,,,,,,,,,,,,,,,,,,,,,,,,,,,,,,,,,,,,,,,,,,,,
,,,,,,,,,,,,,,1,001,2024-08-24_03h59.22.803,IAT(Formal),2021.2.3,Win32,142.8571429,,,i,1,0.4527,0,17,17,29,1,冒失,i,,,,,,,,,,,,,,,,,,,,,,,,,,,,,,,,,,,,,,,,,,,,,,,,,,,,,
,,,,,,,,,,,,,,1,001,2024-08-24_03h59.22.803,IAT(Formal),2021.2.3,Win32,142.8571429,,,i,0,0.5846,0,18,18,12,1,无私,e,,,,,,,,,,,,,,,,,,,,,,,,,,,,,,,,,,,,,,,,,,,,,,,,,,,,,
,,,,,,,,,,,,,,1,001,2024-08-24_03h59.22.803,IAT(Formal),2021.2.3,Win32,142.8571429,,,i,1,0.625,0,19,19,31,1,散漫,i,,,,,,,,,,,,,,,,,,,,,,,,,,,,,,,,,,,,,,,,,,,,,,,,,,,,,
,,,,,,,,,,,,,,1,001,2024-08-24_03h59.22.803,IAT(Formal),2021.2.3,Win32,142.8571429,,,e,1,0.5214,0,20,20,14,1,朴实,e,,,,,,,,,,,,,,,,,,,,,,,,,,,,,,,,,,,,,,,,,,,,,,,,,,,,,
,,,,,,,,,,,,,,1,001,2024-08-24_03h59.22.803,IAT(Formal),2021.2.3,Win32,142.8571429,,,i,1,0.5918,0,21,21,26,1,自卑,i,,,,,,,,,,,,,,,,,,,,,,,,,,,,,,,,,,,,,,,,,,,,,,,,,,,,,
,,,,,,,,,,,,,,1,001,2024-08-24_03h59.22.803,IAT(Formal),2021.2.3,Win32,142.8571429,,,e,1,0.4999,0,22,22,9,1,机智,e,,,,,,,,,,,,,,,,,,,,,,,,,,,,,,,,,,,,,,,,,,,,,,,,,,,,,
,,,,,,,,,,,,,,1,001,2024-08-24_03h59.22.803,IAT(Formal),2021.2.3,Win32,142.8571429,,,e,1,0.4608,0,23,23,8,1,勤奋,e,,,,,,,,,,,,,,,,,,,,,,,,,,,,,,,,,,,,,,,,,,,,,,,,,,,,,
,,,,,,,,,,,,,,1,001,2024-08-24_03h59.22.803,IAT(Formal),2021.2.3,Win32,142.8571429,,,e,1,0.5025,0,24,24,7,1,勇敢,e,,,,,,,,,,,,,,,,,,,,,,,,,,,,,,,,,,,,,,,,,,,,,,,,,,,,,
,,,,,,,,,,,,,,1,001,2024-08-24_03h59.22.803,IAT(Formal),2021.2.3,Win32,142.8571429,,,i,1,0.5001,0,25,25,28,1,鲁莽,i,,,,,,,,,,,,,,,,,,,,,,,,,,,,,,,,,,,,,,,,,,,,,,,,,,,,,
,,,,,,,,,,,,,,1,001,2024-08-24_03h59.22.803,IAT(Formal),2021.2.3,Win32,142.8571429,,,i,1,0.5209,0,26,26,32,1,凶狠,i,,,,,,,,,,,,,,,,,,,,,,,,,,,,,,,,,,,,,,,,,,,,,,,,,,,,,
,,,,,,,,,,,,,,1,001,2024-08-24_03h59.22.803,IAT(Formal),2021.2.3,Win32,142.8571429,,,i,1,0.5856,0,27,27,35,1,猖狂,i,,,,,,,,,,,,,,,,,,,,,,,,,,,,,,,,,,,,,,,,,,,,,,,,,,,,,
,,,,,,,,,,,,,,1,001,2024-08-24_03h59.22.803,IAT(Formal),2021.2.3,Win32,142.8571429,,,e,1,0.5555,0,28,28,19,1,诚恳,e,,,,,,,,,,,,,,,,,,,,,,,,,,,,,,,,,,,,,,,,,,,,,,,,,,,,,
,,,,,,,,,,,,,,1,001,2024-08-24_03h59.22.803,IAT(Formal),2021.2.3,Win32,142.8571429,,,i,0,0.4188,0,29,29,16,1,冷静,e,,,,,,,,,,,,,,,,,,,,,,,,,,,,,,,,,,,,,,,,,,,,,,,,,,,,,
,,,,,,,,,,,,,,1,001,2024-08-24_03h59.22.803,IAT(Formal),2021.2.3,Win32,142.8571429,,,e,1,0.5283,0,30,30,3,1,杰出,e,,,,,,,,,,,,,,,,,,,,,,,,,,,,,,,,,,,,,,,,,,,,,,,,,,,,,
,,,,,,,,,,,,,,1,001,2024-08-24_03h59.22.803,IAT(Formal),2021.2.3,Win32,142.8571429,,,i,1,0.5416,0,31,31,36,1,野蛮,i,,,,,,,,,,,,,,,,,,,,,,,,,,,,,,,,,,,,,,,,,,,,,,,,,,,,,
,,,,,,,,,,,,,,1,001,2024-08-24_03h59.22.803,IAT(Formal),2021.2.3,Win32,142.8571429,,,i,1,0.5971,0,32,32,20,1,卑鄙,i,,,,,,,,,,,,,,,,,,,,,,,,,,,,,,,,,,,,,,,,,,,,,,,,,,,,,
,,,,,,,,,,,,,,1,001,2024-08-24_03h59.22.803,IAT(Formal),2021.2.3,Win32,142.8571429,,,e,1,0.4167,0,33,33,17,1,热情,e,,,,,,,,,,,,,,,,,,,,,,,,,,,,,,,,,,,,,,,,,,,,,,,,,,,,,
,,,,,,,,,,,,,,1,001,2024-08-24_03h59.22.803,IAT(Formal),2021.2.3,Win32,142.8571429,,,e,1,0.475,0,34,34,6,1,正直,e,,,,,,,,,,,,,,,,,,,,,,,,,,,,,,,,,,,,,,,,,,,,,,,,,,,,,
,,,,,,,,,,,,,,1,001,2024-08-24_03h59.22.803,IAT(Formal),2021.2.3,Win32,142.8571429,,,i,1,0.6875,0,35,35,24,1,悲观,i,,,,,,,,,,,,,,,,,,,,,,,,,,,,,,,,,,,,,,,,,,,,,,,,,,,,,
,,,,,,,,,,,,,,1,001,2024-08-24_03h59.22.803,IAT(Formal),2021.2.3,Win32,142.8571429,,,e,1,0.4595,0,36,36,13,1,公正,e,,,,,,,,,,,,,,,,,,,,,,,,,,,,,,,,,,,,,,,,,,,,,,,,,,,,,
,,,,,,,,,,,,,,1,001,2024-08-24_03h59.22.803,IAT(Formal),2021.2.3,Win32,142.8571429,,,i,1,0.4723,0,37,37,39,1,下贱,i,,,,,,,,,,,,,,,,,,,,,,,,,,,,,,,,,,,,,,,,,,,,,,,,,,,,,
,,,,,,,,,,,,,,1,001,2024-08-24_03h59.22.803,IAT(Formal),2021.2.3,Win32,142.8571429,,,e,1,0.4381,0,38,38,18,1,活泼,e,,,,,,,,,,,,,,,,,,,,,,,,,,,,,,,,,,,,,,,,,,,,,,,,,,,,,
,,,,,,,,,,,,,,1,001,2024-08-24_03h59.22.803,IAT(Formal),2021.2.3,Win32,142.8571429,,,i,1,0.4812,0,39,39,21,1,虚伪,i,,,,,,,,,,,,,,,,,,,,,,,,,,,,,,,,,,,,,,,,,,,,,,,,,,,,,
,,,,,,,,,,,,,,1,001,2024-08-24_03h59.22.803,IAT(Formal),2021.2.3,Win32,142.8571429,,,,,,,,,,,,,space,5.7605,i,1,1.0568,0,0,0,69,1,其他,i,,,,,,,,,,,,,,,,,,,,,,,,,,,,,,,,,,,,,,,,,
,,,,,,,,,,,,,,1,001,2024-08-24_03h59.22.803,IAT(Formal),2021.2.3,Win32,142.8571429,,,,,,,,,,,,,,,i,1,0.4979,0,1,1,68,1,他人,i,,,,,,,,,,,,,,,,,,,,,,,,,,,,,,,,,,,,,,,,,
,,,,,,,,,,,,,,1,001,2024-08-24_03h59.22.803,IAT(Formal),2021.2.3,Win32,142.8571429,,,,,,,,,,,,,,,i,1,0.4988,0,2,2,35,1,消极,i,,,,,,,,,,,,,,,,,,,,,,,,,,,,,,,,,,,,,,,,,
,,,,,,,,,,,,,,1,001,2024-08-24_03h59.22.803,IAT(Formal),2021.2.3,Win32,142.8571429,,,,,,,,,,,,,,,e,1,0.8726,0,3,3,64,1,俺,e,,,,,,,,,,,,,,,,,,,,,,,,,,,,,,,,,,,,,,,,,
,,,,,,,,,,,,,,1,001,2024-08-24_03h59.22.803,IAT(Formal),2021.2.3,Win32,142.8571429,,,,,,,,,,,,,,,i,1,0.5126,0,4,4,58,1,他人,i,,,,,,,,,,,,,,,,,,,,,,,,,,,,,,,,,,,,,,,,,
,,,,,,,,,,,,,,1,001,2024-08-24_03h59.22.803,IAT(Formal),2021.2.3,Win32,142.8571429,,,,,,,,,,,,,,,e,1,0.3837,0,5,5,70,1,我,e,,,,,,,,,,,,,,,,,,,,,,,,,,,,,,,,,,,,,,,,,
,,,,,,,,,,,,,,1,001,2024-08-24_03h59.22.803,IAT(Formal),2021.2.3,Win32,142.8571429,,,,,,,,,,,,,,,e,1,0.7338,0,6,6,13,1,杰出,e,,,,,,,,,,,,,,,,,,,,,,,,,,,,,,,,,,,,,,,,,
,,,,,,,,,,,,,,1,001,2024-08-24_03h59.22.803,IAT(Formal),2021.2.3,Win32,142.8571429,,,,,,,,,,,,,,,e,1,0.4291,0,7,7,14,1,乐观,e,,,,,,,,,,,,,,,,,,,,,,,,,,,,,,,,,,,,,,,,,
,,,,,,,,,,,,,,1,001,2024-08-24_03h59.22.803,IAT(Formal),2021.2.3,Win32,142.8571429,,,,,,,,,,,,,,,e,1,0.5355,0,8,8,53,1,自己,e,,,,,,,,,,,,,,,,,,,,,,,,,,,,,,,,,,,,,,,,,
,,,,,,,,,,,,,,1,001,2024-08-24_03h59.22.803,IAT(Formal),2021.2.3,Win32,142.8571429,,,,,,,,,,,,,,,e,1,0.493,0,9,9,4,1,俺,e,,,,,,,,,,,,,,,,,,,,,,,,,,,,,,,,,,,,,,,,,
,,,,,,,,,,,,,,1,001,2024-08-24_03h59.22.803,IAT(Formal),2021.2.3,Win32,142.8571429,,,,,,,,,,,,,,,e,1,0.4288,0,10,10,12,1,聪明,e,,,,,,,,,,,,,,,,,,,,,,,,,,,,,,,,,,,,,,,,,
,,,,,,,,,,,,,,1,001,2024-08-24_03h59.22.803,IAT(Formal),2021.2.3,Win32,142.8571429,,,,,,,,,,,,,,,e,1,0.4438,0,11,11,16,1,正直,e,,,,,,,,,,,,,,,,,,,,,,,,,,,,,,,,,,,,,,,,,
,,,,,,,,,,,,,,1,001,2024-08-24_03h59.22.803,IAT(Formal),2021.2.3,Win32,142.8571429,,,,,,,,,,,,,,,e,1,0.3821,0,12,12,62,1,我们,e,,,,,,,,,,,,,,,,,,,,,,,,,,,,,,,,,,,,,,,,,
,,,,,,,,,,,,,,1,001,2024-08-24_03h59.22.803,IAT(Formal),2021.2.3,Win32,142.8571429,,,,,,,,,,,,,,,i,1,0.521,0,13,13,43,1,自私,i,,,,,,,,,,,,,,,,,,,,,,,,,,,,,,,,,,,,,,,,,
,,,,,,,,,,,,,,1,001,2024-08-24_03h59.22.803,IAT(Formal),2021.2.3,Win32,142.8571429,,,,,,,,,,,,,,,e,0,0.5348,0,14,14,65,1,他,i,,,,,,,,,,,,,,,,,,,,,,,,,,,,,,,,,,,,,,,,,
,,,,,,,,,,,,,,1,001,2024-08-24_03h59.22.803,IAT(Formal),2021.2.3,Win32,142.8571429,,,,,,,,,,,,,,,e,1,0.5,0,15,15,51,1,我的,e,,,,,,,,,,,,,,,,,,,,,,,,,,,,,,,,,,,,,,,,,
,,,,,,,,,,,,,,1,001,2024-08-24_03h59.22.803,IAT(Formal),2021.2.3,Win32,142.8571429,,,,,,,,,,,,,,,i,1,0.5268,0,16,16,59,1,其他,i,,,,,,,,,,,,,,,,,,,,,,,,,,,,,,,,,,,,,,,,,
,,,,,,,,,,,,,,1,001,2024-08-24_03h59.22.803,IAT(Formal),2021.2.3,Win32,142.8571429,,,,,,,,,,,,,,,i,1,0.521,0,17,17,31,1,虚伪,i,,,,,,,,,,,,,,,,,,,,,,,,,,,,,,,,,,,,,,,,,
,,,,,,,,,,,,,,1,001,2024-08-24_03h59.22.803,IAT(Formal),2021.2.3,Win32,142.8571429,,,,,,,,,,,,,,,i,1,0.4601,0,18,18,9,1,其他,i,,,,,,,,,,,,,,,,,,,,,,,,,,,,,,,,,,,,,,,,,
,,,,,,,,,,,,,,1,001,2024-08-24_03h59.22.803,IAT(Formal),2021.2.3,Win32,142.8571429,,,,,,,,,,,,,,,i,1,0.4864,0,19,19,39,1,冒失,i,,,,,,,,,,,,,,,,,,,,,,,,,,,,,,,,,,,,,,,,,
,,,,,,,,,,,,,,1,001,2024-08-24_03h59.22.803,IAT(Formal),2021.2.3,Win32,142.8571429,,,,,,,,,,,,,,,e,1,0.4654,0,20,20,63,1,自己,e,,,,,,,,,,,,,,,,,,,,,,,,,,,,,,,,,,,,,,,,,
,,,,,,,,,,,,,,1,001,2024-08-24_03h59.22.803,IAT(Formal),2021.2.3,Win32,142.8571429,,,,,,,,,,,,,,,i,1,0.514,0,21,21,46,1,野蛮,i,,,,,,,,,,,,,,,,,,,,,,,,,,,,,,,,,,,,,,,,,
,,,,,,,,,,,,,,1,001,2024-08-24_03h59.22.803,IAT(Formal),2021.2.3,Win32,142.8571429,,,,,,,,,,,,,,,e,1,0.6596,0,22,22,25,1,细腻,e,,,,,,,,,,,,,,,,,,,,,,,,,,,,,,,,,,,,,,,,,
,,,,,,,,,,,,,,1,001,2024-08-24_03h59.22.803,IAT(Formal),2021.2.3,Win32,142.8571429,,,,,,,,,,,,,,,i,1,0.4675,0,23,23,49,1,下贱,i,,,,,,,,,,,,,,,,,,,,,,,,,,,,,,,,,,,,,,,,,
,,,,,,,,,,,,,,1,001,2024-08-24_03h59.22.803,IAT(Formal),2021.2.3,Win32,142.8571429,,,,,,,,,,,,,,,i,1,0.6411,0,24,24,37,1,傲慢,i,,,,,,,,,,,,,,,,,,,,,,,,,,,,,,,,,,,,,,,,,
,,,,,,,,,,,,,,1,001,2024-08-24_03h59.22.803,IAT(Formal),2021.2.3,Win32,142.8571429,,,,,,,,,,,,,,,e,0,0.4809,0,25,25,77,1,他的,i,,,,,,,,,,,,,,,,,,,,,,,,,,,,,,,,,,,,,,,,,
,,,,,,,,,,,,,,1,001,2024-08-24_03h59.22.803,IAT(Formal),2021.2.3,Win32,142.8571429,,,,,,,,,,,,,,,e,1,0.5069,0,26,26,29,1,诚恳,e,,,,,,,,,,,,,,,,,,,,,,,,,,,,,,,,,,,,,,,,,
,,,,,,,,,,,,,,1,001,2024-08-24_03h59.22.803,IAT(Formal),2021.2.3,Win32,142.8571429,,,,,,,,,,,,,,,i,1,0.7502,0,27,27,78,1,他人,i,,,,,,,,,,,,,,,,,,,,,,,,,,,,,,,,,,,,,,,,,
,,,,,,,,,,,,,,1,001,2024-08-24_03h59.22.803,IAT(Formal),2021.2.3,Win32,142.8571429,,,,,,,,,,,,,,,e,1,0.5234,0,28,28,1,1,我的,e,,,,,,,,,,,,,,,,,,,,,,,,,,,,,,,,,,,,,,,,,
,,,,,,,,,,,,,,1,001,2024-08-24_03h59.22.803,IAT(Formal),2021.2.3,Win32,142.8571429,,,,,,,,,,,,,,,i,1,0.5851,0,29,29,66,1,他们,i,,,,,,,,,,,,,,,,,,,,,,,,,,,,,,,,,,,,,,,,,
,,,,,,,,,,,,,,1,001,2024-08-24_03h59.22.803,IAT(Formal),2021.2.3,Win32,142.8571429,,,,,,,,,,,,,,,i,1,0.6112,0,30,30,40,1,执拗,i,,,,,,,,,,,,,,,,,,,,,,,,,,,,,,,,,,,,,,,,,
,,,,,,,,,,,,,,1,001,2024-08-24_03h59.22.803,IAT(Formal),2021.2.3,Win32,142.8571429,,,,,,,,,,,,,,,i,1,0.7847,0,31,31,34,1,悲观,i,,,,,,,,,,,,,,,,,,,,,,,,,,,,,,,,,,,,,,,,,
,,,,,,,,,,,,,,1,001,2024-08-24_03h59.22.803,IAT(Formal),2021.2.3,Win32,142.8571429,,,,,,,,,,,,,,,e,1,0.6874,0,32,32,3,1,自己,e,,,,,,,,,,,,,,,,,,,,,,,,,,,,,,,,,,,,,,,,,
,,,,,,,,,,,,,,1,001,2024-08-24_03h59.22.803,IAT(Formal),2021.2.3,Win32,142.8571429,,,,,,,,,,,,,,,e,1,0.5716,0,33,33,20,1,认真,e,,,,,,,,,,,,,,,,,,,,,,,,,,,,,,,,,,,,,,,,,
,,,,,,,,,,,,,,1,001,2024-08-24_03h59.22.803,IAT(Formal),2021.2.3,Win32,142.8571429,,,,,,,,,,,,,,,e,1,0.5279,0,34,34,27,1,热情,e,,,,,,,,,,,,,,,,,,,,,,,,,,,,,,,,,,,,,,,,,
,,,,,,,,,,,,,,1,001,2024-08-24_03h59.22.803,IAT(Formal),2021.2.3,Win32,142.8571429,,,,,,,,,,,,,,,e,1,0.4237,0,35,35,0,1,我,e,,,,,,,,,,,,,,,,,,,,,,,,,,,,,,,,,,,,,,,,,
,,,,,,,,,,,,,,1,001,2024-08-24_03h59.22.803,IAT(Formal),2021.2.3,Win32,142.8571429,,,,,,,,,,,,,,,e,0,0.4183,0,36,36,75,1,他,i,,,,,,,,,,,,,,,,,,,,,,,,,,,,,,,,,,,,,,,,,
,,,,,,,,,,,,,,1,001,2024-08-24_03h59.22.803,IAT(Formal),2021.2.3,Win32,142.8571429,,,,,,,,,,,,,,,e,1,0.5765,0,37,37,17,1,勇敢,e,,,,,,,,,,,,,,,,,,,,,,,,,,,,,,,,,,,,,,,,,
,,,,,,,,,,,,,,1,001,2024-08-24_03h59.22.803,IAT(Formal),2021.2.3,Win32,142.8571429,,,,,,,,,,,,,,,i,1,0.5555,0,38,38,5,1,他,i,,,,,,,,,,,,,,,,,,,,,,,,,,,,,,,,,,,,,,,,,
,,,,,,,,,,,,,,1,001,2024-08-24_03h59.22.803,IAT(Formal),2021.2.3,Win32,142.8571429,,,,,,,,,,,,,,,i,1,0.5196,0,39,39,32,1,愚蠢,i,,,,,,,,,,,,,,,,,,,,,,,,,,,,,,,,,,,,,,,,,
,,,,,,,,,,,,,,1,001,2024-08-24_03h59.22.803,IAT(Formal),2021.2.3,Win32,142.8571429,,,,,,,,,,,,,,,e,1,0.5442,0,40,40,23,1,公正,e,,,,,,,,,,,,,,,,,,,,,,,,,,,,,,,,,,,,,,,,,
,,,,,,,,,,,,,,1,001,2024-08-24_03h59.22.803,IAT(Formal),2021.2.3,Win32,142.8571429,,,,,,,,,,,,,,,i,1,0.4376,0,41,41,7,1,他的,i,,,,,,,,,,,,,,,,,,,,,,,,,,,,,,,,,,,,,,,,,
,,,,,,,,,,,,,,1,001,2024-08-24_03h59.22.803,IAT(Formal),2021.2.3,Win32,142.8571429,,,,,,,,,,,,,,,i,1,0.4653,0,42,42,79,1,其他,i,,,,,,,,,,,,,,,,,,,,,,,,,,,,,,,,,,,,,,,,,
,,,,,,,,,,,,,,1,001,2024-08-24_03h59.22.803,IAT(Formal),2021.2.3,Win32,142.8571429,,,,,,,,,,,,,,,e,1,0.4446,0,43,43,71,1,我的,e,,,,,,,,,,,,,,,,,,,,,,,,,,,,,,,,,,,,,,,,,
,,,,,,,,,,,,,,1,001,2024-08-24_03h59.22.803,IAT(Formal),2021.2.3,Win32,142.8571429,,,,,,,,,,,,,,,e,1,0.5267,0,44,44,72,1,我们,e,,,,,,,,,,,,,,,,,,,,,,,,,,,,,,,,,,,,,,,,,
,,,,,,,,,,,,,,1,001,2024-08-24_03h59.22.803,IAT(Formal),2021.2.3,Win32,142.8571429,,,,,,,,,,,,,,,i,1,0.5904,0,45,45,55,1,他,i,,,,,,,,,,,,,,,,,,,,,,,,,,,,,,,,,,,,,,,,,
,,,,,,,,,,,,,,1,001,2024-08-24_03h59.22.803,IAT(Formal),2021.2.3,Win32,142.8571429,,,,,,,,,,,,,,,i,1,0.4445,0,46,46,8,1,他人,i,,,,,,,,,,,,,,,,,,,,,,,,,,,,,,,,,,,,,,,,,
,,,,,,,,,,,,,,1,001,2024-08-24_03h59.22.803,IAT(Formal),2021.2.3,Win32,142.8571429,,,,,,,,,,,,,,,e,1,0.5488,0,47,47,19,1,机智,e,,,,,,,,,,,,,,,,,,,,,,,,,,,,,,,,,,,,,,,,,
,,,,,,,,,,,,,,1,001,2024-08-24_03h59.22.803,IAT(Formal),2021.2.3,Win32,142.8571429,,,,,,,,,,,,,,,e,1,0.4589,0,48,48,73,1,自己,e,,,,,,,,,,,,,,,,,,,,,,,,,,,,,,,,,,,,,,,,,
,,,,,,,,,,,,,,1,001,2024-08-24_03h59.22.803,IAT(Formal),2021.2.3,Win32,142.8571429,,,,,,,,,,,,,,,e,1,0.8402,0,49,49,11,1,崇高,e,,,,,,,,,,,,,,,,,,,,,,,,,,,,,,,,,,,,,,,,,
,,,,,,,,,,,,,,1,001,2024-08-24_03h59.22.803,IAT(Formal),2021.2.3,Win32,142.8571429,,,,,,,,,,,,,,,e,1,0.4171,0,50,50,61,1,我的,e,,,,,,,,,,,,,,,,,,,,,,,,,,,,,,,,,,,,,,,,,
,,,,,,,,,,,,,,1,001,2024-08-24_03h59.22.803,IAT(Formal),2021.2.3,Win32,142.8571429,,,,,,,,,,,,,,,i,1,0.5692,0,51,51,67,1,他的,i,,,,,,,,,,,,,,,,,,,,,,,,,,,,,,,,,,,,,,,,,
,,,,,,,,,,,,,,1,001,2024-08-24_03h59.22.803,IAT(Formal),2021.2.3,Win32,142.8571429,,,,,,,,,,,,,,,e,0,0.4323,0,52,52,76,1,他们,i,,,,,,,,,,,,,,,,,,,,,,,,,,,,,,,,,,,,,,,,,
,,,,,,,,,,,,,,1,001,2024-08-24_03h59.22.803,IAT(Formal),2021.2.3,Win32,142.8571429,,,,,,,,,,,,,,,e,1,0.4659,0,53,53,50,1,我,e,,,,,,,,,,,,,,,,,,,,,,,,,,,,,,,,,,,,,,,,,
,,,,,,,,,,,,,,1,001,2024-08-24_03h59.22.803,IAT(Formal),2021.2.3,Win32,142.8571429,,,,,,,,,,,,,,,i,1,0.4999,0,54,54,36,1,自卑,i,,,,,,,,,,,,,,,,,,,,,,,,,,,,,,,,,,,,,,,,,
,,,,,,,,,,,,,,1,001,2024-08-24_03h59.22.803,IAT(Formal),2021.2.3,Win32,142.8571429,,,,,,,,,,,,,,,e,1,0.6319,0,55,55,26,1,冷静,e,,,,,,,,,,,,,,,,,,,,,,,,,,,,,,,,,,,,,,,,,
,,,,,,,,,,,,,,1,001,2024-08-24_03h59.22.803,IAT(Formal),2021.2.3,Win32,142.8571429,,,,,,,,,,,,,,,e,1,0.4513,0,56,56,52,1,我们,e,,,,,,,,,,,,,,,,,,,,,,,,,,,,,,,,,,,,,,,,,
,,,,,,,,,,,,,,1,001,2024-08-24_03h59.22.803,IAT(Formal),2021.2.3,Win32,142.8571429,,,,,,,,,,,,,,,e,1,0.4306,0,57,57,21,1,稳重,e,,,,,,,,,,,,,,,,,,,,,,,,,,,,,,,,,,,,,,,,,
,,,,,,,,,,,,,,1,001,2024-08-24_03h59.22.803,IAT(Formal),2021.2.3,Win32,142.8571429,,,,,,,,,,,,,,,i,1,0.551,0,58,58,30,1,卑鄙,i,,,,,,,,,,,,,,,,,,,,,,,,,,,,,,,,,,,,,,,,,
,,,,,,,,,,,,,,1,001,2024-08-24_03h59.22.803,IAT(Formal),2021.2.3,Win32,142.8571429,,,,,,,,,,,,,,,i,1,0.6612,0,59,59,41,1,散漫,i,,,,,,,,,,,,,,,,,,,,,,,,,,,,,,,,,,,,,,,,,
,,,,,,,,,,,,,,1,001,2024-08-24_03h59.22.803,IAT(Formal),2021.2.3,Win32,142.8571429,,,,,,,,,,,,,,,i,1,0.5009,0,60,60,47,1,固执,i,,,,,,,,,,,,,,,,,,,,,,,,,,,,,,,,,,,,,,,,,
,,,,,,,,,,,,,,1,001,2024-08-24_03h59.22.803,IAT(Formal),2021.2.3,Win32,142.8571429,,,,,,,,,,,,,,,i,1,0.5487,0,61,61,6,1,他们,i,,,,,,,,,,,,,,,,,,,,,,,,,,,,,,,,,,,,,,,,,
,,,,,,,,,,,,,,1,001,2024-08-24_03h59.22.803,IAT(Formal),2021.2.3,Win32,142.8571429,,,,,,,,,,,,,,,i,0,0.4446,0,62,62,54,1,俺,e,,,,,,,,,,,,,,,,,,,,,,,,,,,,,,,,,,,,,,,,,
,,,,,,,,,,,,,,1,001,2024-08-24_03h59.22.803,IAT(Formal),2021.2.3,Win32,142.8571429,,,,,,,,,,,,,,,e,1,0.6875,0,63,63,24,1,朴实,e,,,,,,,,,,,,,,,,,,,,,,,,,,,,,,,,,,,,,,,,,
,,,,,,,,,,,,,,1,001,2024-08-24_03h59.22.803,IAT(Formal),2021.2.3,Win32,142.8571429,,,,,,,,,,,,,,,i,1,0.6033,0,64,64,57,1,他的,i,,,,,,,,,,,,,,,,,,,,,,,,,,,,,,,,,,,,,,,,,
,,,,,,,,,,,,,,1,001,2024-08-24_03h59.22.803,IAT(Formal),2021.2.3,Win32,142.8571429,,,,,,,,,,,,,,,i,1,0.5766,0,65,65,45,1,猖狂,i,,,,,,,,,,,,,,,,,,,,,,,,,,,,,,,,,,,,,,,,,
,,,,,,,,,,,,,,1,001,2024-08-24_03h59.22.803,IAT(Formal),2021.2.3,Win32,142.8571429,,,,,,,,,,,,,,,i,1,0.6807,0,66,66,33,1,刻薄,i,,,,,,,,,,,,,,,,,,,,,,,,,,,,,,,,,,,,,,,,,
,,,,,,,,,,,,,,1,001,2024-08-24_03h59.22.803,IAT(Formal),2021.2.3,Win32,142.8571429,,,,,,,,,,,,,,,i,0,0.5167,0,67,67,22,1,无私,e,,,,,,,,,,,,,,,,,,,,,,,,,,,,,,,,,,,,,,,,,
,,,,,,,,,,,,,,1,001,2024-08-24_03h59.22.803,IAT(Formal),2021.2.3,Win32,142.8571429,,,,,,,,,,,,,,,e,1,0.6319,0,68,68,2,1,我们,e,,,,,,,,,,,,,,,,,,,,,,,,,,,,,,,,,,,,,,,,,
,,,,,,,,,,,,,,1,001,2024-08-24_03h59.22.803,IAT(Formal),2021.2.3,Win32,142.8571429,,,,,,,,,,,,,,,i,1,0.4931,0,69,69,56,1,他们,i,,,,,,,,,,,,,,,,,,,,,,,,,,,,,,,,,,,,,,,,,
,,,,,,,,,,,,,,1,001,2024-08-24_03h59.22.803,IAT(Formal),2021.2.3,Win32,142.8571429,,,,,,,,,,,,,,,e,1,0.5478,0,70,70,18,1,勤奋,e,,,,,,,,,,,,,,,,,,,,,,,,,,,,,,,,,,,,,,,,,
,,,,,,,,,,,,,,1,001,2024-08-24_03h59.22.803,IAT(Formal),2021.2.3,Win32,142.8571429,,,,,,,,,,,,,,,e,1,0.4653,0,71,71,15,1,诚实,e,,,,,,,,,,,,,,,,,,,,,,,,,,,,,,,,,,,,,,,,,
,,,,,,,,,,,,,,1,001,2024-08-24_03h59.22.803,IAT(Formal),2021.2.3,Win32,142.8571429,,,,,,,,,,,,,,,e,1,0.4933,0,72,72,10,1,优秀,e,,,,,,,,,,,,,,,,,,,,,,,,,,,,,,,,,,,,,,,,,
,,,,,,,,,,,,,,1,001,2024-08-24_03h59.22.803,IAT(Formal),2021.2.3,Win32,142.8571429,,,,,,,,,,,,,,,i,1,0.6529,0,73,73,42,1,凶狠,i,,,,,,,,,,,,,,,,,,,,,,,,,,,,,,,,,,,,,,,,,
,,,,,,,,,,,,,,1,001,2024-08-24_03h59.22.803,IAT(Formal),2021.2.3,Win32,142.8571429,,,,,,,,,,,,,,,e,1,0.5904,0,74,74,60,1,我,e,,,,,,,,,,,,,,,,,,,,,,,,,,,,,,,,,,,,,,,,,
,,,,,,,,,,,,,,1,001,2024-08-24_03h59.22.803,IAT(Formal),2021.2.3,Win32,142.8571429,,,,,,,,,,,,,,,e,1,0.632,0,75,75,74,1,俺,e,,,,,,,,,,,,,,,,,,,,,,,,,,,,,,,,,,,,,,,,,
,,,,,,,,,,,,,,1,001,2024-08-24_03h59.22.803,IAT(Formal),2021.2.3,Win32,142.8571429,,,,,,,,,,,,,,,i,1,0.5974,0,76,76,44,1,暴躁,i,,,,,,,,,,,,,,,,,,,,,,,,,,,,,,,,,,,,,,,,,
,,,,,,,,,,,,,,1,001,2024-08-24_03h59.22.803,IAT(Formal),2021.2.3,Win32,142.8571429,,,,,,,,,,,,,,,i,1,0.6044,0,77,77,38,1,鲁莽,i,,,,,,,,,,,,,,,,,,,,,,,,,,,,,,,,,,,,,,,,,
,,,,,,,,,,,,,,1,001,2024-08-24_03h59.22.803,IAT(Formal),2021.2.3,Win32,142.8571429,,,,,,,,,,,,,,,e,0,1.0139,0,78,78,48,1,轻率,i,,,,,,,,,,,,,,,,,,,,,,,,,,,,,,,,,,,,,,,,,
,,,,,,,,,,,,,,1,001,2024-08-24_03h59.22.803,IAT(Formal),2021.2.3,Win32,142.8571429,,,,,,,,,,,,,,,e,1,0.7151,0,79,79,28,1,活泼,e,,,,,,,,,,,,,,,,,,,,,,,,,,,,,,,,,,,,,,,,,
,,,,,,,,,,,,,,1,001,2024-08-24_03h59.22.803,IAT(Formal),2021.2.3,Win32,142.8571429,,,,,,,,,,,,,,,e,1,0.4715,,,,,,乐观,e,space,14.4626,0,0,0,14,1,,,,,,,,,,,,,,,,,,,,,,,,,,,,,,,,,,
,,,,,,,,,,,,,,1,001,2024-08-24_03h59.22.803,IAT(Formal),2021.2.3,Win32,142.8571429,,,,,,,,,,,,,,,i,1,0.4979,,,,,,其他,i,,,0,1,1,9,1,,,,,,,,,,,,,,,,,,,,,,,,,,,,,,,,,,
,,,,,,,,,,,,,,1,001,2024-08-24_03h59.22.803,IAT(Formal),2021.2.3,Win32,142.8571429,,,,,,,,,,,,,,,e,1,0.4029,,,,,,我,e,,,0,2,2,70,1,,,,,,,,,,,,,,,,,,,,,,,,,,,,,,,,,,
,,,,,,,,,,,,,,1,001,2024-08-24_03h59.22.803,IAT(Formal),2021.2.3,Win32,142.8571429,,,,,,,,,,,,,,,i,1,0.6088,,,,,,他们,i,,,0,3,3,66,1,,,,,,,,,,,,,,,,,,,,,,,,,,,,,,,,,,
,,,,,,,,,,,,,,1,001,2024-08-24_03h59.22.803,IAT(Formal),2021.2.3,Win32,142.8571429,,,,,,,,,,,,,,,i,1,0.6702,,,,,,卑鄙,i,,,0,4,4,30,1,,,,,,,,,,,,,,,,,,,,,,,,,,,,,,,,,,
,,,,,,,,,,,,,,1,001,2024-08-24_03h59.22.803,IAT(Formal),2021.2.3,Win32,142.8571429,,,,,,,,,,,,,,,e,1,0.4425,,,,,,我,e,,,0,5,5,50,1,,,,,,,,,,,,,,,,,,,,,,,,,,,,,,,,,,
,,,,,,,,,,,,,,1,001,2024-08-24_03h59.22.803,IAT(Formal),2021.2.3,Win32,142.8571429,,,,,,,,,,,,,,,i,1,0.5322,,,,,,自卑,i,,,0,6,6,36,1,,,,,,,,,,,,,,,,,,,,,,,,,,,,,,,,,,
,,,,,,,,,,,,,,1,001,2024-08-24_03h59.22.803,IAT(Formal),2021.2.3,Win32,142.8571429,,,,,,,,,,,,,,,e,1,0.5394,,,,,,我,e,,,0,7,7,0,1,,,,,,,,,,,,,,,,,,,,,,,,,,,,,,,,,,
,,,,,,,,,,,,,,1,001,2024-08-24_03h59.22.803,IAT(Formal),2021.2.3,Win32,142.8571429,,,,,,,,,,,,,,,e,1,0.6461,,,,,,崇高,e,,,0,8,8,11,1,,,,,,,,,,,,,,,,,,,,,,,,,,,,,,,,,,
,,,,,,,,,,,,,,1,001,2024-08-24_03h59.22.803,IAT(Formal),2021.2.3,Win32,142.8571429,,,,,,,,,,,,,,,e,1,0.5297,,,,,,稳重,e,,,0,9,9,21,1,,,,,,,,,,,,,,,,,,,,,,,,,,,,,,,,,,
,,,,,,,,,,,,,,1,001,2024-08-24_03h59.22.803,IAT(Formal),2021.2.3,Win32,142.8571429,,,,,,,,,,,,,,,i,1,0.5461,,,,,,悲观,i,,,0,10,10,34,1,,,,,,,,,,,,,,,,,,,,,,,,,,,,,,,,,,
,,,,,,,,,,,,,,1,001,2024-08-24_03h59.22.803,IAT(Formal),2021.2.3,Win32,142.8571429,,,,,,,,,,,,,,,i,1,0.4698,,,,,,下贱,i,,,0,11,11,49,1,,,,,,,,,,,,,,,,,,,,,,,,,,,,,,,,,,
,,,,,,,,,,,,,,1,001,2024-08-24_03h59.22.803,IAT(Formal),2021.2.3,Win32,142.8571429,,,,,,,,,,,,,,,e,1,0.5304,,,,,,活泼,e,,,0,12,12,28,1,,,,,,,,,,,,,,,,,,,,,,,,,,,,,,,,,,
,,,,,,,,,,,,,,1,001,2024-08-24_03h59.22.803,IAT(Formal),2021.2.3,Win32,142.8571429,,,,,,,,,,,,,,,i,1,0.5749,,,,,,他的,i,,,0,13,13,67,1,,,,,,,,,,,,,,,,,,,,,,,,,,,,,,,,,,
,,,,,,,,,,,,,,1,001,2024-08-24_03h59.22.803,IAT(Formal),2021.2.3,Win32,142.8571429,,,,,,,,,,,,,,,i,1,0.5124,,,,,,野蛮,i,,,0,14,14,46,1,,,,,,,,,,,,,,,,,,,,,,,,,,,,,,,,,,
,,,,,,,,,,,,,,1,001,2024-08-24_03h59.22.803,IAT(Formal),2021.2.3,Win32,142.8571429,,,,,,,,,,,,,,,i,1,0.4598,,,,,,他人,i,,,0,15,15,68,1,,,,,,,,,,,,,,,,,,,,,,,,,,,,,,,,,,
,,,,,,,,,,,,,,1,001,2024-08-24_03h59.22.803,IAT(Formal),2021.2.3,Win32,142.8571429,,,,,,,,,,,,,,,e,1,0.5207,,,,,,杰出,e,,,0,16,16,13,1,,,,,,,,,,,,,,,,,,,,,,,,,,,,,,,,,,
,,,,,,,,,,,,,,1,001,2024-08-24_03h59.22.803,IAT(Formal),2021.2.3,Win32,142.8571429,,,,,,,,,,,,,,,e,1,0.6226,,,,,,俺,e,,,0,17,17,74,1,,,,,,,,,,,,,,,,,,,,,,,,,,,,,,,,,,
,,,,,,,,,,,,,,1,001,2024-08-24_03h59.22.803,IAT(Formal),2021.2.3,Win32,142.8571429,,,,,,,,,,,,,,,i,1,0.4903,,,,,,固执,i,,,0,18,18,47,1,,,,,,,,,,,,,,,,,,,,,,,,,,,,,,,,,,
,,,,,,,,,,,,,,1,001,2024-08-24_03h59.22.803,IAT(Formal),2021.2.3,Win32,142.8571429,,,,,,,,,,,,,,,e,1,0.4654,,,,,,勤奋,e,,,0,19,19,18,1,,,,,,,,,,,,,,,,,,,,,,,,,,,,,,,,,,
,,,,,,,,,,,,,,1,001,2024-08-24_03h59.22.803,IAT(Formal),2021.2.3,Win32,142.8571429,,,,,,,,,,,,,,,i,1,0.509,,,,,,愚蠢,i,,,0,20,20,32,1,,,,,,,,,,,,,,,,,,,,,,,,,,,,,,,,,,
,,,,,,,,,,,,,,1,001,2024-08-24_03h59.22.803,IAT(Formal),2021.2.3,Win32,142.8571429,,,,,,,,,,,,,,,e,1,0.4127,,,,,,我,e,,,0,21,21,60,1,,,,,,,,,,,,,,,,,,,,,,,,,,,,,,,,,,
,,,,,,,,,,,,,,1,001,2024-08-24_03h59.22.803,IAT(Formal),2021.2.3,Win32,142.8571429,,,,,,,,,,,,,,,i,1,0.5277,,,,,,他,i,,,0,22,22,5,1,,,,,,,,,,,,,,,,,,,,,,,,,,,,,,,,,,
,,,,,,,,,,,,,,1,001,2024-08-24_03h59.22.803,IAT(Formal),2021.2.3,Win32,142.8571429,,,,,,,,,,,,,,,i,1,0.6539,,,,,,傲慢,i,,,0,23,23,37,1,,,,,,,,,,,,,,,,,,,,,,,,,,,,,,,,,,
,,,,,,,,,,,,,,1,001,2024-08-24_03h59.22.803,IAT(Formal),2021.2.3,Win32,142.8571429,,,,,,,,,,,,,,,e,1,0.6945,,,,,,俺,e,,,0,24,24,54,1,,,,,,,,,,,,,,,,,,,,,,,,,,,,,,,,,,
,,,,,,,,,,,,,,1,001,2024-08-24_03h59.22.803,IAT(Formal),2021.2.3,Win32,142.8571429,,,,,,,,,,,,,,,i,1,1.0972,,,,,,冒失,i,,,0,25,25,39,1,,,,,,,,,,,,,,,,,,,,,,,,,,,,,,,,,,
,,,,,,,,,,,,,,1,001,2024-08-24_03h59.22.803,IAT(Formal),2021.2.3,Win32,142.8571429,,,,,,,,,,,,,,,i,1,0.598,,,,,,执拗,i,,,0,26,26,40,1,,,,,,,,,,,,,,,,,,,,,,,,,,,,,,,,,,
,,,,,,,,,,,,,,1,001,2024-08-24_03h59.22.803,IAT(Formal),2021.2.3,Win32,142.8571429,,,,,,,,,,,,,,,e,1,0.4586,,,,,,优秀,e,,,0,27,27,10,1,,,,,,,,,,,,,,,,,,,,,,,,,,,,,,,,,,
,,,,,,,,,,,,,,1,001,2024-08-24_03h59.22.803,IAT(Formal),2021.2.3,Win32,142.8571429,,,,,,,,,,,,,,,i,1,0.5217,,,,,,暴躁,i,,,0,28,28,44,1,,,,,,,,,,,,,,,,,,,,,,,,,,,,,,,,,,
,,,,,,,,,,,,,,1,001,2024-08-24_03h59.22.803,IAT(Formal),2021.2.3,Win32,142.8571429,,,,,,,,,,,,,,,e,1,0.4516,,,,,,勇敢,e,,,0,29,29,17,1,,,,,,,,,,,,,,,,,,,,,,,,,,,,,,,,,,
,,,,,,,,,,,,,,1,001,2024-08-24_03h59.22.803,IAT(Formal),2021.2.3,Win32,142.8571429,,,,,,,,,,,,,,,e,1,0.5975,,,,,,俺,e,,,0,30,30,64,1,,,,,,,,,,,,,,,,,,,,,,,,,,,,,,,,,,
,,,,,,,,,,,,,,1,001,2024-08-24_03h59.22.803,IAT(Formal),2021.2.3,Win32,142.8571429,,,,,,,,,,,,,,,e,1,0.4445,,,,,,自己,e,,,0,31,31,73,1,,,,,,,,,,,,,,,,,,,,,,,,,,,,,,,,,,
,,,,,,,,,,,,,,1,001,2024-08-24_03h59.22.803,IAT(Formal),2021.2.3,Win32,142.8571429,,,,,,,,,,,,,,,e,0,0.4119,,,,,,他们,i,,,0,32,32,76,1,,,,,,,,,,,,,,,,,,,,,,,,,,,,,,,,,,
,,,,,,,,,,,,,,1,001,2024-08-24_03h59.22.803,IAT(Formal),2021.2.3,Win32,142.8571429,,,,,,,,,,,,,,,e,1,0.4746,,,,,,我们,e,,,0,33,33,62,1,,,,,,,,,,,,,,,,,,,,,,,,,,,,,,,,,,
,,,,,,,,,,,,,,1,001,2024-08-24_03h59.22.803,IAT(Formal),2021.2.3,Win32,142.8571429,,,,,,,,,,,,,,,e,1,0.4958,,,,,,机智,e,,,0,34,34,19,1,,,,,,,,,,,,,,,,,,,,,,,,,,,,,,,,,,
,,,,,,,,,,,,,,1,001,2024-08-24_03h59.22.803,IAT(Formal),2021.2.3,Win32,142.8571429,,,,,,,,,,,,,,,i,1,0.5569,,,,,,他人,i,,,0,35,35,8,1,,,,,,,,,,,,,,,,,,,,,,,,,,,,,,,,,,
,,,,,,,,,,,,,,1,001,2024-08-24_03h59.22.803,IAT(Formal),2021.2.3,Win32,142.8571429,,,,,,,,,,,,,,,e,1,0.612,,,,,,公正,e,,,0,36,36,23,1,,,,,,,,,,,,,,,,,,,,,,,,,,,,,,,,,,
,,,,,,,,,,,,,,1,001,2024-08-24_03h59.22.803,IAT(Formal),2021.2.3,Win32,142.8571429,,,,,,,,,,,,,,,i,1,0.578,,,,,,刻薄,i,,,0,37,37,33,1,,,,,,,,,,,,,,,,,,,,,,,,,,,,,,,,,,
,,,,,,,,,,,,,,1,001,2024-08-24_03h59.22.803,IAT(Formal),2021.2.3,Win32,142.8571429,,,,,,,,,,,,,,,e,1,0.4364,,,,,,我们,e,,,0,38,38,52,1,,,,,,,,,,,,,,,,,,,,,,,,,,,,,,,,,,
,,,,,,,,,,,,,,1,001,2024-08-24_03h59.22.803,IAT(Formal),2021.2.3,Win32,142.8571429,,,,,,,,,,,,,,,e,1,0.5,,,,,,诚实,e,,,0,39,39,15,1,,,,,,,,,,,,,,,,,,,,,,,,,,,,,,,,,,
,,,,,,,,,,,,,,1,001,2024-08-24_03h59.22.803,IAT(Formal),2021.2.3,Win32,142.8571429,,,,,,,,,,,,,,,e,1,0.5419,,,,,,诚恳,e,,,0,40,40,29,1,,,,,,,,,,,,,,,,,,,,,,,,,,,,,,,,,,
,,,,,,,,,,,,,,1,001,2024-08-24_03h59.22.803,IAT(Formal),2021.2.3,Win32,142.8571429,,,,,,,,,,,,,,,i,1,0.6181,,,,,,他人,i,,,0,41,41,58,1,,,,,,,,,,,,,,,,,,,,,,,,,,,,,,,,,,
,,,,,,,,,,,,,,1,001,2024-08-24_03h59.22.803,IAT(Formal),2021.2.3,Win32,142.8571429,,,,,,,,,,,,,,,e,1,0.4444,,,,,,朴实,e,,,0,42,42,24,1,,,,,,,,,,,,,,,,,,,,,,,,,,,,,,,,,,
,,,,,,,,,,,,,,1,001,2024-08-24_03h59.22.803,IAT(Formal),2021.2.3,Win32,142.8571429,,,,,,,,,,,,,,,e,1,0.4028,,,,,,我的,e,,,0,43,43,61,1,,,,,,,,,,,,,,,,,,,,,,,,,,,,,,,,,,
,,,,,,,,,,,,,,1,001,2024-08-24_03h59.22.803,IAT(Formal),2021.2.3,Win32,142.8571429,,,,,,,,,,,,,,,i,1,0.4862,,,,,,其他,i,,,0,44,44,79,1,,,,,,,,,,,,,,,,,,,,,,,,,,,,,,,,,,
,,,,,,,,,,,,,,1,001,2024-08-24_03h59.22.803,IAT(Formal),2021.2.3,Win32,142.8571429,,,,,,,,,,,,,,,e,1,0.5717,,,,,,聪明,e,,,0,45,45,12,1,,,,,,,,,,,,,,,,,,,,,,,,,,,,,,,,,,
,,,,,,,,,,,,,,1,001,2024-08-24_03h59.22.803,IAT(Formal),2021.2.3,Win32,142.8571429,,,,,,,,,,,,,,,i,1,0.8139,,,,,,他,i,,,0,46,46,55,1,,,,,,,,,,,,,,,,,,,,,,,,,,,,,,,,,,
,,,,,,,,,,,,,,1,001,2024-08-24_03h59.22.803,IAT(Formal),2021.2.3,Win32,142.8571429,,,,,,,,,,,,,,,e,1,0.5486,,,,,,热情,e,,,0,47,47,27,1,,,,,,,,,,,,,,,,,,,,,,,,,,,,,,,,,,
,,,,,,,,,,,,,,1,001,2024-08-24_03h59.22.803,IAT(Formal),2021.2.3,Win32,142.8571429,,,,,,,,,,,,,,,e,1,0.4724,,,,,,认真,e,,,0,48,48,20,1,,,,,,,,,,,,,,,,,,,,,,,,,,,,,,,,,,
,,,,,,,,,,,,,,1,001,2024-08-24_03h59.22.803,IAT(Formal),2021.2.3,Win32,142.8571429,,,,,,,,,,,,,,,i,1,0.5348,,,,,,其他,i,,,0,49,49,59,1,,,,,,,,,,,,,,,,,,,,,,,,,,,,,,,,,,
,,,,,,,,,,,,,,1,001,2024-08-24_03h59.22.803,IAT(Formal),2021.2.3,Win32,142.8571429,,,,,,,,,,,,,,,i,1,0.7639,,,,,,散漫,i,,,0,50,50,41,1,,,,,,,,,,,,,,,,,,,,,,,,,,,,,,,,,,
,,,,,,,,,,,,,,1,001,2024-08-24_03h59.22.803,IAT(Formal),2021.2.3,Win32,142.8571429,,,,,,,,,,,,,,,e,1,0.8253,,,,,,冷静,e,,,0,51,51,26,1,,,,,,,,,,,,,,,,,,,,,,,,,,,,,,,,,,
,,,,,,,,,,,,,,1,001,2024-08-24_03h59.22.803,IAT(Formal),2021.2.3,Win32,142.8571429,,,,,,,,,,,,,,,i,1,0.8116,,,,,,他的,i,,,0,52,52,57,1,,,,,,,,,,,,,,,,,,,,,,,,,,,,,,,,,,
,,,,,,,,,,,,,,1,001,2024-08-24_03h59.22.803,IAT(Formal),2021.2.3,Win32,142.8571429,,,,,,,,,,,,,,,e,1,0.4878,,,,,,正直,e,,,0,53,53,16,1,,,,,,,,,,,,,,,,,,,,,,,,,,,,,,,,,,
,,,,,,,,,,,,,,1,001,2024-08-24_03h59.22.803,IAT(Formal),2021.2.3,Win32,142.8571429,,,,,,,,,,,,,,,i,1,0.7089,,,,,,他们,i,,,0,54,54,6,1,,,,,,,,,,,,,,,,,,,,,,,,,,,,,,,,,,
,,,,,,,,,,,,,,1,001,2024-08-24_03h59.22.803,IAT(Formal),2021.2.3,Win32,142.8571429,,,,,,,,,,,,,,,e,1,0.4721,,,,,,无私,e,,,0,55,55,22,1,,,,,,,,,,,,,,,,,,,,,,,,,,,,,,,,,,
,,,,,,,,,,,,,,1,001,2024-08-24_03h59.22.803,IAT(Formal),2021.2.3,Win32,142.8571429,,,,,,,,,,,,,,,e,1,0.6529,,,,,,自己,e,,,0,56,56,3,1,,,,,,,,,,,,,,,,,,,,,,,,,,,,,,,,,,
,,,,,,,,,,,,,,1,001,2024-08-24_03h59.22.803,IAT(Formal),2021.2.3,Win32,142.8571429,,,,,,,,,,,,,,,e,1,0.403,,,,,,自己,e,,,0,57,57,53,1,,,,,,,,,,,,,,,,,,,,,,,,,,,,,,,,,,
,,,,,,,,,,,,,,1,001,2024-08-24_03h59.22.803,IAT(Formal),2021.2.3,Win32,142.8571429,,,,,,,,,,,,,,,i,1,0.5208,,,,,,他们,i,,,0,58,58,56,1,,,,,,,,,,,,,,,,,,,,,,,,,,,,,,,,,,
,,,,,,,,,,,,,,1,001,2024-08-24_03h59.22.803,IAT(Formal),2021.2.3,Win32,142.8571429,,,,,,,,,,,,,,,i,1,0.5985,,,,,,虚伪,i,,,0,59,59,31,1,,,,,,,,,,,,,,,,,,,,,,,,,,,,,,,,,,
,,,,,,,,,,,,,,1,001,2024-08-24_03h59.22.803,IAT(Formal),2021.2.3,Win32,142.8571429,,,,,,,,,,,,,,,e,0,0.5286,,,,,,自私,i,,,0,60,60,43,1,,,,,,,,,,,,,,,,,,,,,,,,,,,,,,,,,,
,,,,,,,,,,,,,,1,001,2024-08-24_03h59.22.803,IAT(Formal),2021.2.3,Win32,142.8571429,,,,,,,,,,,,,,,i,1,1.2228,,,,,,他的,i,,,0,61,61,7,1,,,,,,,,,,,,,,,,,,,,,,,,,,,,,,,,,,
,,,,,,,,,,,,,,1,001,2024-08-24_03h59.22.803,IAT(Formal),2021.2.3,Win32,142.8571429,,,,,,,,,,,,,,,i,1,0.4305,,,,,,他,i,,,0,62,62,75,1,,,,,,,,,,,,,,,,,,,,,,,,,,,,,,,,,,
,,,,,,,,,,,,,,1,001,2024-08-24_03h59.22.803,IAT(Formal),2021.2.3,Win32,142.8571429,,,,,,,,,,,,,,,i,1,0.4958,,,,,,他人,i,,,0,63,63,78,1,,,,,,,,,,,,,,,,,,,,,,,,,,,,,,,,,,
,,,,,,,,,,,,,,1,001,2024-08-24_03h59.22.803,IAT(Formal),2021.2.3,Win32,142.8571429,,,,,,,,,,,,,,,i,1,0.493,,,,,,他的,i,,,0,64,64,77,1,,,,,,,,,,,,,,,,,,,,,,,,,,,,,,,,,,
,,,,,,,,,,,,,,1,001,2024-08-24_03h59.22.803,IAT(Formal),2021.2.3,Win32,142.8571429,,,,,,,,,,,,,,,e,1,0.4114,,,,,,自己,e,,,0,65,65,63,1,,,,,,,,,,,,,,,,,,,,,,,,,,,,,,,,,,
,,,,,,,,,,,,,,1,001,2024-08-24_03h59.22.803,IAT(Formal),2021.2.3,Win32,142.8571429,,,,,,,,,,,,,,,e,1,0.5558,,,,,,细腻,e,,,0,66,66,25,1,,,,,,,,,,,,,,,,,,,,,,,,,,,,,,,,,,
,,,,,,,,,,,,,,1,001,2024-08-24_03h59.22.803,IAT(Formal),2021.2.3,Win32,142.8571429,,,,,,,,,,,,,,,e,1,0.507,,,,,,我们,e,,,0,67,67,2,1,,,,,,,,,,,,,,,,,,,,,,,,,,,,,,,,,,
,,,,,,,,,,,,,,1,001,2024-08-24_03h59.22.803,IAT(Formal),2021.2.3,Win32,142.8571429,,,,,,,,,,,,,,,e,1,0.431,,,,,,我的,e,,,0,68,68,51,1,,,,,,,,,,,,,,,,,,,,,,,,,,,,,,,,,,
,,,,,,,,,,,,,,1,001,2024-08-24_03h59.22.803,IAT(Formal),2021.2.3,Win32,142.8571429,,,,,,,,,,,,,,,e,0,0.5487,,,,,,轻率,i,,,0,69,69,48,1,,,,,,,,,,,,,,,,,,,,,,,,,,,,,,,,,,
,,,,,,,,,,,,,,1,001,2024-08-24_03h59.22.803,IAT(Formal),2021.2.3,Win32,142.8571429,,,,,,,,,,,,,,,e,1,0.451,,,,,,我的,e,,,0,70,70,71,1,,,,,,,,,,,,,,,,,,,,,,,,,,,,,,,,,,
,,,,,,,,,,,,,,1,001,2024-08-24_03h59.22.803,IAT(Formal),2021.2.3,Win32,142.8571429,,,,,,,,,,,,,,,i,1,0.8956,,,,,,他,i,,,0,71,71,65,1,,,,,,,,,,,,,,,,,,,,,,,,,,,,,,,,,,
,,,,,,,,,,,,,,1,001,2024-08-24_03h59.22.803,IAT(Formal),2021.2.3,Win32,142.8571429,,,,,,,,,,,,,,,e,1,0.5068,,,,,,我的,e,,,0,72,72,1,1,,,,,,,,,,,,,,,,,,,,,,,,,,,,,,,,,,
,,,,,,,,,,,,,,1,001,2024-08-24_03h59.22.803,IAT(Formal),2021.2.3,Win32,142.8571429,,,,,,,,,,,,,,,i,1,0.5506,,,,,,鲁莽,i,,,0,73,73,38,1,,,,,,,,,,,,,,,,,,,,,,,,,,,,,,,,,,
,,,,,,,,,,,,,,1,001,2024-08-24_03h59.22.803,IAT(Formal),2021.2.3,Win32,142.8571429,,,,,,,,,,,,,,,,0,,,,,,,凶狠,i,,,0,74,74,42,1,,,,,,,,,,,,,,,,,,,,,,,,,,,,,,,,,,
,,,,,,,,,,,,,,1,001,2024-08-24_03h59.22.803,IAT(Formal),2021.2.3,Win32,142.8571429,,,,,,,,,,,,,,,e,1,0.5974,,,,,,俺,e,,,0,75,75,4,1,,,,,,,,,,,,,,,,,,,,,,,,,,,,,,,,,,
,,,,,,,,,,,,,,1,001,2024-08-24_03h59.22.803,IAT(Formal),2021.2.3,Win32,142.8571429,,,,,,,,,,,,,,,i,1,0.6941,,,,,,消极,i,,,0,76,76,35,1,,,,,,,,,,,,,,,,,,,,,,,,,,,,,,,,,,
,,,,,,,,,,,,,,1,001,2024-08-24_03h59.22.803,IAT(Formal),2021.2.3,Win32,142.8571429,,,,,,,,,,,,,,,i,1,0.6939,,,,,,其他,i,,,0,77,77,69,1,,,,,,,,,,,,,,,,,,,,,,,,,,,,,,,,,,
,,,,,,,,,,,,,,1,001,2024-08-24_03h59.22.803,IAT(Formal),2021.2.3,Win32,142.8571429,,,,,,,,,,,,,,,e,1,0.4371,,,,,,我们,e,,,0,78,78,72,1,,,,,,,,,,,,,,,,,,,,,,,,,,,,,,,,,,
,,,,,,,,,,,,,,1,001,2024-08-24_03h59.22.803,IAT(Formal),2021.2.3,Win32,142.8571429,,,,,,,,,,,,,,,i,1,0.5,,,,,,猖狂,i,,,0,79,79,45,1,,,,,,,,,,,,,,,,,,,,,,,,,,,,,,,,,,
,,,,,,,,,,,,,,1,001,2024-08-24_03h59.22.803,IAT(Formal),2021.2.3,Win32,142.8571429,,,,,,,,,,,,,,,e,1,0.4515,,,,,,朴实,e,,,1,0,80,24,1,,,,,,,,,,,,,,,,,,,,,,,,,,,,,,,,,,
,,,,,,,,,,,,,,1,001,2024-08-24_03h59.22.803,IAT(Formal),2021.2.3,Win32,142.8571429,,,,,,,,,,,,,,,i,0,0.4448,,,,,,无私,e,,,1,1,81,22,1,,,,,,,,,,,,,,,,,,,,,,,,,,,,,,,,,,
,,,,,,,,,,,,,,1,001,2024-08-24_03h59.22.803,IAT(Formal),2021.2.3,Win32,142.8571429,,,,,,,,,,,,,,,i,1,0.6196,,,,,,他,i,,,1,2,82,65,1,,,,,,,,,,,,,,,,,,,,,,,,,,,,,,,,,,
,,,,,,,,,,,,,,1,001,2024-08-24_03h59.22.803,IAT(Formal),2021.2.3,Win32,142.8571429,,,,,,,,,,,,,,,e,0,0.5554,,,,,,执拗,i,,,1,3,83,40,1,,,,,,,,,,,,,,,,,,,,,,,,,,,,,,,,,,
,,,,,,,,,,,,,,1,001,2024-08-24_03h59.22.803,IAT(Formal),2021.2.3,Win32,142.8571429,,,,,,,,,,,,,,,e,1,0.5138,,,,,,我,e,,,1,4,84,60,1,,,,,,,,,,,,,,,,,,,,,,,,,,,,,,,,,,
,,,,,,,,,,,,,,1,001,2024-08-24_03h59.22.803,IAT(Formal),2021.2.3,Win32,142.8571429,,,,,,,,,,,,,,,i,1,0.6454,,,,,,猖狂,i,,,1,5,85,45,1,,,,,,,,,,,,,,,,,,,,,,,,,,,,,,,,,,
,,,,,,,,,,,,,,1,001,2024-08-24_03h59.22.803,IAT(Formal),2021.2.3,Win32,142.8571429,,,,,,,,,,,,,,,e,1,0.5483,,,,,,自己,e,,,1,6,86,73,1,,,,,,,,,,,,,,,,,,,,,,,,,,,,,,,,,,
,,,,,,,,,,,,,,1,001,2024-08-24_03h59.22.803,IAT(Formal),2021.2.3,Win32,142.8571429,,,,,,,,,,,,,,,e,1,0.4512,,,,,,我们,e,,,1,7,87,72,1,,,,,,,,,,,,,,,,,,,,,,,,,,,,,,,,,,
,,,,,,,,,,,,,,1,001,2024-08-24_03h59.22.803,IAT(Formal),2021.2.3,Win32,142.8571429,,,,,,,,,,,,,,,i,1,0.5278,,,,,,傲慢,i,,,1,8,88,37,1,,,,,,,,,,,,,,,,,,,,,,,,,,,,,,,,,,
,,,,,,,,,,,,,,1,001,2024-08-24_03h59.22.803,IAT(Formal),2021.2.3,Win32,142.8571429,,,,,,,,,,,,,,,i,1,0.5502,,,,,,他人,i,,,1,9,89,68,1,,,,,,,,,,,,,,,,,,,,,,,,,,,,,,,,,,
,,,,,,,,,,,,,,1,001,2024-08-24_03h59.22.803,IAT(Formal),2021.2.3,Win32,142.8571429,,,,,,,,,,,,,,,e,1,0.494,,,,,,我们,e,,,1,10,90,2,1,,,,,,,,,,,,,,,,,,,,,,,,,,,,,,,,,,
,,,,,,,,,,,,,,1,001,2024-08-24_03h59.22.803,IAT(Formal),2021.2.3,Win32,142.8571429,,,,,,,,,,,,,,,i,1,0.5077,,,,,,自卑,i,,,1,11,91,36,1,,,,,,,,,,,,,,,,,,,,,,,,,,,,,,,,,,
,,,,,,,,,,,,,,1,001,2024-08-24_03h59.22.803,IAT(Formal),2021.2.3,Win32,142.8571429,,,,,,,,,,,,,,,e,1,0.4447,,,,,,我,e,,,1,12,92,0,1,,,,,,,,,,,,,,,,,,,,,,,,,,,,,,,,,,
,,,,,,,,,,,,,,1,001,2024-08-24_03h59.22.803,IAT(Formal),2021.2.3,Win32,142.8571429,,,,,,,,,,,,,,,e,1,0.4806,,,,,,俺,e,,,1,13,93,54,1,,,,,,,,,,,,,,,,,,,,,,,,,,,,,,,,,,
,,,,,,,,,,,,,,1,001,2024-08-24_03h59.22.803,IAT(Formal),2021.2.3,Win32,142.8571429,,,,,,,,,,,,,,,i,0,0.5435,,,,,,热情,e,,,1,14,94,27,1,,,,,,,,,,,,,,,,,,,,,,,,,,,,,,,,,,
,,,,,,,,,,,,,,1,001,2024-08-24_03h59.22.803,IAT(Formal),2021.2.3,Win32,142.8571429,,,,,,,,,,,,,,,e,1,0.454,,,,,,认真,e,,,1,15,95,20,1,,,,,,,,,,,,,,,,,,,,,,,,,,,,,,,,,,
,,,,,,,,,,,,,,1,001,2024-08-24_03h59.22.803,IAT(Formal),2021.2.3,Win32,142.8571429,,,,,,,,,,,,,,,i,1,0.6064,,,,,,其他,i,,,1,16,96,59,1,,,,,,,,,,,,,,,,,,,,,,,,,,,,,,,,,,
,,,,,,,,,,,,,,1,001,2024-08-24_03h59.22.803,IAT(Formal),2021.2.3,Win32,142.8571429,,,,,,,,,,,,,,,i,1,0.5766,,,,,,鲁莽,i,,,1,17,97,38,1,,,,,,,,,,,,,,,,,,,,,,,,,,,,,,,,,,
,,,,,,,,,,,,,,1,001,2024-08-24_03h59.22.803,IAT(Formal),2021.2.3,Win32,142.8571429,,,,,,,,,,,,,,,i,1,0.5625,,,,,,下贱,i,,,1,18,98,49,1,,,,,,,,,,,,,,,,,,,,,,,,,,,,,,,,,,
,,,,,,,,,,,,,,1,001,2024-08-24_03h59.22.803,IAT(Formal),2021.2.3,Win32,142.8571429,,,,,,,,,,,,,,,e,1,0.6945,,,,,,杰出,e,,,1,19,99,13,1,,,,,,,,,,,,,,,,,,,,,,,,,,,,,,,,,,
,,,,,,,,,,,,,,1,001,2024-08-24_03h59.22.803,IAT(Formal),2021.2.3,Win32,142.8571429,,,,,,,,,,,,,,,e,1,0.4864,,,,,,活泼,e,,,1,20,100,28,1,,,,,,,,,,,,,,,,,,,,,,,,,,,,,,,,,,
,,,,,,,,,,,,,,1,001,2024-08-24_03h59.22.803,IAT(Formal),2021.2.3,Win32,142.8571429,,,,,,,,,,,,,,,e,1,0.4793,,,,,,正直,e,,,1,21,101,16,1,,,,,,,,,,,,,,,,,,,,,,,,,,,,,,,,,,
,,,,,,,,,,,,,,1,001,2024-08-24_03h59.22.803,IAT(Formal),2021.2.3,Win32,142.8571429,,,,,,,,,,,,,,,i,1,0.7712,,,,,,其他,i,,,1,22,102,9,1,,,,,,,,,,,,,,,,,,,,,,,,,,,,,,,,,,
,,,,,,,,,,,,,,1,001,2024-08-24_03h59.22.803,IAT(Formal),2021.2.3,Win32,142.8571429,,,,,,,,,,,,,,,i,1,0.4944,,,,,,固执,i,,,1,23,103,47,1,,,,,,,,,,,,,,,,,,,,,,,,,,,,,,,,,,
,,,,,,,,,,,,,,1,001,2024-08-24_03h59.22.803,IAT(Formal),2021.2.3,Win32,142.8571429,,,,,,,,,,,,,,,e,1,0.5927,,,,,,俺,e,,,1,24,104,4,1,,,,,,,,,,,,,,,,,,,,,,,,,,,,,,,,,,
,,,,,,,,,,,,,,1,001,2024-08-24_03h59.22.803,IAT(Formal),2021.2.3,Win32,142.8571429,,,,,,,,,,,,,,,e,1,0.4735,,,,,,稳重,e,,,1,25,105,21,1,,,,,,,,,,,,,,,,,,,,,,,,,,,,,,,,,,
,,,,,,,,,,,,,,1,001,2024-08-24_03h59.22.803,IAT(Formal),2021.2.3,Win32,142.8571429,,,,,,,,,,,,,,,e,1,0.4263,,,,,,机智,e,,,1,26,106,19,1,,,,,,,,,,,,,,,,,,,,,,,,,,,,,,,,,,
,,,,,,,,,,,,,,1,001,2024-08-24_03h59.22.803,IAT(Formal),2021.2.3,Win32,142.8571429,,,,,,,,,,,,,,,i,1,0.618,,,,,,其他,i,,,1,27,107,79,1,,,,,,,,,,,,,,,,,,,,,,,,,,,,,,,,,,
,,,,,,,,,,,,,,1,001,2024-08-24_03h59.22.803,IAT(Formal),2021.2.3,Win32,142.8571429,,,,,,,,,,,,,,,e,1,0.4719,,,,,,我的,e,,,1,28,108,1,1,,,,,,,,,,,,,,,,,,,,,,,,,,,,,,,,,,
,,,,,,,,,,,,,,1,001,2024-08-24_03h59.22.803,IAT(Formal),2021.2.3,Win32,142.8571429,,,,,,,,,,,,,,,e,1,0.403,,,,,,我,e,,,1,29,109,50,1,,,,,,,,,,,,,,,,,,,,,,,,,,,,,,,,,,
,,,,,,,,,,,,,,1,001,2024-08-24_03h59.22.803,IAT(Formal),2021.2.3,Win32,142.8571429,,,,,,,,,,,,,,,i,1,0.4931,,,,,,虚伪,i,,,1,30,110,31,1,,,,,,,,,,,,,,,,,,,,,,,,,,,,,,,,,,
,,,,,,,,,,,,,,1,001,2024-08-24_03h59.22.803,IAT(Formal),2021.2.3,Win32,142.8571429,,,,,,,,,,,,,,,e,0,0.5717,,,,,,他们,i,,,1,31,111,76,1,,,,,,,,,,,,,,,,,,,,,,,,,,,,,,,,,,
,,,,,,,,,,,,,,1,001,2024-08-24_03h59.22.803,IAT(Formal),2021.2.3,Win32,142.8571429,,,,,,,,,,,,,,,i,1,0.5902,,,,,,消极,i,,,1,32,112,35,1,,,,,,,,,,,,,,,,,,,,,,,,,,,,,,,,,,
,,,,,,,,,,,,,,1,001,2024-08-24_03h59.22.803,IAT(Formal),2021.2.3,Win32,142.8571429,,,,,,,,,,,,,,,e,1,0.4523,,,,,,诚实,e,,,1,33,113,15,1,,,,,,,,,,,,,,,,,,,,,,,,,,,,,,,,,,
,,,,,,,,,,,,,,1,001,2024-08-24_03h59.22.803,IAT(Formal),2021.2.3,Win32,142.8571429,,,,,,,,,,,,,,,i,1,0.757,,,,,,他,i,,,1,34,114,5,1,,,,,,,,,,,,,,,,,,,,,,,,,,,,,,,,,,
,,,,,,,,,,,,,,1,001,2024-08-24_03h59.22.803,IAT(Formal),2021.2.3,Win32,142.8571429,,,,,,,,,,,,,,,i,1,0.4722,,,,,,他的,i,,,1,35,115,77,1,,,,,,,,,,,,,,,,,,,,,,,,,,,,,,,,,,
,,,,,,,,,,,,,,1,001,2024-08-24_03h59.22.803,IAT(Formal),2021.2.3,Win32,142.8571429,,,,,,,,,,,,,,,i,1,0.5694,,,,,,凶狠,i,,,1,36,116,42,1,,,,,,,,,,,,,,,,,,,,,,,,,,,,,,,,,,
,,,,,,,,,,,,,,1,001,2024-08-24_03h59.22.803,IAT(Formal),2021.2.3,Win32,142.8571429,,,,,,,,,,,,,,,e,1,0.5,,,,,,自己,e,,,1,37,117,63,1,,,,,,,,,,,,,,,,,,,,,,,,,,,,,,,,,,
,,,,,,,,,,,,,,1,001,2024-08-24_03h59.22.803,IAT(Formal),2021.2.3,Win32,142.8571429,,,,,,,,,,,,,,,e,1,0.4314,,,,,,聪明,e,,,1,38,118,12,1,,,,,,,,,,,,,,,,,,,,,,,,,,,,,,,,,,
,,,,,,,,,,,,,,1,001,2024-08-24_03h59.22.803,IAT(Formal),2021.2.3,Win32,142.8571429,,,,,,,,,,,,,,,i,1,0.5831,,,,,,他的,i,,,1,39,119,7,1,,,,,,,,,,,,,,,,,,,,,,,,,,,,,,,,,,
,,,,,,,,,,,,,,1,001,2024-08-24_03h59.22.803,IAT(Formal),2021.2.3,Win32,142.8571429,,,,,,,,,,,,,,,i,1,0.529,,,,,,他人,i,,,1,40,120,78,1,,,,,,,,,,,,,,,,,,,,,,,,,,,,,,,,,,
,,,,,,,,,,,,,,1,001,2024-08-24_03h59.22.803,IAT(Formal),2021.2.3,Win32,142.8571429,,,,,,,,,,,,,,,i,1,0.5709,,,,,,散漫,i,,,1,41,121,41,1,,,,,,,,,,,,,,,,,,,,,,,,,,,,,,,,,,
,,,,,,,,,,,,,,1,001,2024-08-24_03h59.22.803,IAT(Formal),2021.2.3,Win32,142.8571429,,,,,,,,,,,,,,,e,1,0.4943,,,,,,勤奋,e,,,1,42,122,18,1,,,,,,,,,,,,,,,,,,,,,,,,,,,,,,,,,,
,,,,,,,,,,,,,,1,001,2024-08-24_03h59.22.803,IAT(Formal),2021.2.3,Win32,142.8571429,,,,,,,,,,,,,,,e,1,0.521,,,,,,自己,e,,,1,43,123,3,1,,,,,,,,,,,,,,,,,,,,,,,,,,,,,,,,,,
,,,,,,,,,,,,,,1,001,2024-08-24_03h59.22.803,IAT(Formal),2021.2.3,Win32,142.8571429,,,,,,,,,,,,,,,i,1,0.535,,,,,,轻率,i,,,1,44,124,48,1,,,,,,,,,,,,,,,,,,,,,,,,,,,,,,,,,,
,,,,,,,,,,,,,,1,001,2024-08-24_03h59.22.803,IAT(Formal),2021.2.3,Win32,142.8571429,,,,,,,,,,,,,,,e,1,0.5072,,,,,,乐观,e,,,1,45,125,14,1,,,,,,,,,,,,,,,,,,,,,,,,,,,,,,,,,,
,,,,,,,,,,,,,,1,001,2024-08-24_03h59.22.803,IAT(Formal),2021.2.3,Win32,142.8571429,,,,,,,,,,,,,,,e,1,0.514,,,,,,崇高,e,,,1,46,126,11,1,,,,,,,,,,,,,,,,,,,,,,,,,,,,,,,,,,
,,,,,,,,,,,,,,1,001,2024-08-24_03h59.22.803,IAT(Formal),2021.2.3,Win32,142.8571429,,,,,,,,,,,,,,,i,1,0.5,,,,,,暴躁,i,,,1,47,127,44,1,,,,,,,,,,,,,,,,,,,,,,,,,,,,,,,,,,
,,,,,,,,,,,,,,1,001,2024-08-24_03h59.22.803,IAT(Formal),2021.2.3,Win32,142.8571429,,,,,,,,,,,,,,,i,1,0.6046,,,,,,冒失,i,,,1,48,128,39,1,,,,,,,,,,,,,,,,,,,,,,,,,,,,,,,,,,
,,,,,,,,,,,,,,1,001,2024-08-24_03h59.22.803,IAT(Formal),2021.2.3,Win32,142.8571429,,,,,,,,,,,,,,,e,1,0.4595,,,,,,我们,e,,,1,49,129,52,1,,,,,,,,,,,,,,,,,,,,,,,,,,,,,,,,,,
,,,,,,,,,,,,,,1,001,2024-08-24_03h59.22.803,IAT(Formal),2021.2.3,Win32,142.8571429,,,,,,,,,,,,,,,e,1,0.4258,,,,,,我们,e,,,1,50,130,62,1,,,,,,,,,,,,,,,,,,,,,,,,,,,,,,,,,,
,,,,,,,,,,,,,,1,001,2024-08-24_03h59.22.803,IAT(Formal),2021.2.3,Win32,142.8571429,,,,,,,,,,,,,,,e,1,0.6251,,,,,,勇敢,e,,,1,51,131,17,1,,,,,,,,,,,,,,,,,,,,,,,,,,,,,,,,,,
,,,,,,,,,,,,,,1,001,2024-08-24_03h59.22.803,IAT(Formal),2021.2.3,Win32,142.8571429,,,,,,,,,,,,,,,i,1,0.5834,,,,,,他们,i,,,1,52,132,6,1,,,,,,,,,,,,,,,,,,,,,,,,,,,,,,,,,,
,,,,,,,,,,,,,,1,001,2024-08-24_03h59.22.803,IAT(Formal),2021.2.3,Win32,142.8571429,,,,,,,,,,,,,,,i,1,0.5225,,,,,,他的,i,,,1,53,133,67,1,,,,,,,,,,,,,,,,,,,,,,,,,,,,,,,,,,
,,,,,,,,,,,,,,1,001,2024-08-24_03h59.22.803,IAT(Formal),2021.2.3,Win32,142.8571429,,,,,,,,,,,,,,,i,1,0.4448,,,,,,他们,i,,,1,54,134,56,1,,,,,,,,,,,,,,,,,,,,,,,,,,,,,,,,,,
,,,,,,,,,,,,,,1,001,2024-08-24_03h59.22.803,IAT(Formal),2021.2.3,Win32,142.8571429,,,,,,,,,,,,,,,i,1,0.7155,,,,,,刻薄,i,,,1,55,135,33,1,,,,,,,,,,,,,,,,,,,,,,,,,,,,,,,,,,
,,,,,,,,,,,,,,1,001,2024-08-24_03h59.22.803,IAT(Formal),2021.2.3,Win32,142.8571429,,,,,,,,,,,,,,,e,1,0.5147,,,,,,我的,e,,,1,56,136,61,1,,,,,,,,,,,,,,,,,,,,,,,,,,,,,,,,,,
,,,,,,,,,,,,,,1,001,2024-08-24_03h59.22.803,IAT(Formal),2021.2.3,Win32,142.8571429,,,,,,,,,,,,,,,i,1,0.6135,,,,,,悲观,i,,,1,57,137,34,1,,,,,,,,,,,,,,,,,,,,,,,,,,,,,,,,,,
,,,,,,,,,,,,,,1,001,2024-08-24_03h59.22.803,IAT(Formal),2021.2.3,Win32,142.8571429,,,,,,,,,,,,,,,e,1,0.6535,,,,,,诚恳,e,,,1,58,138,29,1,,,,,,,,,,,,,,,,,,,,,,,,,,,,,,,,,,
,,,,,,,,,,,,,,1,001,2024-08-24_03h59.22.803,IAT(Formal),2021.2.3,Win32,142.8571429,,,,,,,,,,,,,,,e,1,0.5768,,,,,,俺,e,,,1,59,139,64,1,,,,,,,,,,,,,,,,,,,,,,,,,,,,,,,,,,
,,,,,,,,,,,,,,1,001,2024-08-24_03h59.22.803,IAT(Formal),2021.2.3,Win32,142.8571429,,,,,,,,,,,,,,,i,1,0.5697,,,,,,他们,i,,,1,60,140,66,1,,,,,,,,,,,,,,,,,,,,,,,,,,,,,,,,,,
,,,,,,,,,,,,,,1,001,2024-08-24_03h59.22.803,IAT(Formal),2021.2.3,Win32,142.8571429,,,,,,,,,,,,,,,i,1,0.4653,,,,,,其他,i,,,1,61,141,69,1,,,,,,,,,,,,,,,,,,,,,,,,,,,,,,,,,,
,,,,,,,,,,,,,,1,001,2024-08-24_03h59.22.803,IAT(Formal),2021.2.3,Win32,142.8571429,,,,,,,,,,,,,,,i,1,0.493,,,,,,他人,i,,,1,62,142,58,1,,,,,,,,,,,,,,,,,,,,,,,,,,,,,,,,,,
,,,,,,,,,,,,,,1,001,2024-08-24_03h59.22.803,IAT(Formal),2021.2.3,Win32,142.8571429,,,,,,,,,,,,,,,e,1,0.6474,,,,,,冷静,e,,,1,63,143,26,1,,,,,,,,,,,,,,,,,,,,,,,,,,,,,,,,,,
,,,,,,,,,,,,,,1,001,2024-08-24_03h59.22.803,IAT(Formal),2021.2.3,Win32,142.8571429,,,,,,,,,,,,,,,e,1,0.4514,,,,,,自己,e,,,1,64,144,53,1,,,,,,,,,,,,,,,,,,,,,,,,,,,,,,,,,,
,,,,,,,,,,,,,,1,001,2024-08-24_03h59.22.803,IAT(Formal),2021.2.3,Win32,142.8571429,,,,,,,,,,,,,,,e,1,0.4031,,,,,,我,e,,,1,65,145,70,1,,,,,,,,,,,,,,,,,,,,,,,,,,,,,,,,,,
,,,,,,,,,,,,,,1,001,2024-08-24_03h59.22.803,IAT(Formal),2021.2.3,Win32,142.8571429,,,,,,,,,,,,,,,e,0,0.6805,,,,,,自私,i,,,1,66,146,43,1,,,,,,,,,,,,,,,,,,,,,,,,,,,,,,,,,,
,,,,,,,,,,,,,,1,001,2024-08-24_03h59.22.803,IAT(Formal),2021.2.3,Win32,142.8571429,,,,,,,,,,,,,,,i,1,0.5563,,,,,,愚蠢,i,,,1,67,147,32,1,,,,,,,,,,,,,,,,,,,,,,,,,,,,,,,,,,
,,,,,,,,,,,,,,1,001,2024-08-24_03h59.22.803,IAT(Formal),2021.2.3,Win32,142.8571429,,,,,,,,,,,,,,,e,1,0.4446,,,,,,我的,e,,,1,68,148,71,1,,,,,,,,,,,,,,,,,,,,,,,,,,,,,,,,,,
,,,,,,,,,,,,,,1,001,2024-08-24_03h59.22.803,IAT(Formal),2021.2.3,Win32,142.8571429,,,,,,,,,,,,,,,i,1,0.5561,,,,,,卑鄙,i,,,1,69,149,30,1,,,,,,,,,,,,,,,,,,,,,,,,,,,,,,,,,,
,,,,,,,,,,,,,,1,001,2024-08-24_03h59.22.803,IAT(Formal),2021.2.3,Win32,142.8571429,,,,,,,,,,,,,,,e,0,0.5159,,,,,,他,i,,,1,70,150,55,1,,,,,,,,,,,,,,,,,,,,,,,,,,,,,,,,,,
,,,,,,,,,,,,,,1,001,2024-08-24_03h59.22.803,IAT(Formal),2021.2.3,Win32,142.8571429,,,,,,,,,,,,,,,e,1,0.6607,,,,,,细腻,e,,,1,71,151,25,1,,,,,,,,,,,,,,,,,,,,,,,,,,,,,,,,,,
,,,,,,,,,,,,,,1,001,2024-08-24_03h59.22.803,IAT(Formal),2021.2.3,Win32,142.8571429,,,,,,,,,,,,,,,i,1,0.5221,,,,,,他的,i,,,1,72,152,57,1,,,,,,,,,,,,,,,,,,,,,,,,,,,,,,,,,,
,,,,,,,,,,,,,,1,001,2024-08-24_03h59.22.803,IAT(Formal),2021.2.3,Win32,142.8571429,,,,,,,,,,,,,,,e,1,0.514,,,,,,公正,e,,,1,73,153,23,1,,,,,,,,,,,,,,,,,,,,,,,,,,,,,,,,,,
,,,,,,,,,,,,,,1,001,2024-08-24_03h59.22.803,IAT(Formal),2021.2.3,Win32,142.8571429,,,,,,,,,,,,,,,e,1,0.4514,,,,,,优秀,e,,,1,74,154,10,1,,,,,,,,,,,,,,,,,,,,,,,,,,,,,,,,,,
,,,,,,,,,,,,,,1,001,2024-08-24_03h59.22.803,IAT(Formal),2021.2.3,Win32,142.8571429,,,,,,,,,,,,,,,e,1,0.6689,,,,,,俺,e,,,1,75,155,74,1,,,,,,,,,,,,,,,,,,,,,,,,,,,,,,,,,,
,,,,,,,,,,,,,,1,001,2024-08-24_03h59.22.803,IAT(Formal),2021.2.3,Win32,142.8571429,,,,,,,,,,,,,,,i,1,0.5275,,,,,,他人,i,,,1,76,156,8,1,,,,,,,,,,,,,,,,,,,,,,,,,,,,,,,,,,
,,,,,,,,,,,,,,1,001,2024-08-24_03h59.22.803,IAT(Formal),2021.2.3,Win32,142.8571429,,,,,,,,,,,,,,,e,1,0.4586,,,,,,我的,e,,,1,77,157,51,1,,,,,,,,,,,,,,,,,,,,,,,,,,,,,,,,,,
,,,,,,,,,,,,,,1,001,2024-08-24_03h59.22.803,IAT(Formal),2021.2.3,Win32,142.8571429,,,,,,,,,,,,,,,i,1,0.6396,,,,,,他,i,,,1,78,158,75,1,,,,,,,,,,,,,,,,,,,,,,,,,,,,,,,,,,
,,,,,,,,,,,,,,1,001,2024-08-24_03h59.22.803,IAT(Formal),2021.2.3,Win32,142.8571429,,,,,,,,,,,,,,,i,1,0.5712,,,,,,野蛮,i,,,1,79,159,46,1,,,,,,,,,,,,,,,,,,,,,,,,,,,,,,,,,,
,,,,,,,,,,,,我的,i,1,001,2024-08-24_03h59.22.803,IAT(Formal),2021.2.3,Win32,142.8571429,,,,,,,,,,,,,,,,,,,,,,,,,,,,,,,,space,219.0185,i,1,0.7828,0,0,0,1,1,,,,,,,,,,,,,,,,,,,,,,,,
,,,,,,,,,,,,他们,e,1,001,2024-08-24_03h59.22.803,IAT(Formal),2021.2.3,Win32,142.8571429,,,,,,,,,,,,,,,,,,,,,,,,,,,,,,,,,,e,1,0.5367,0,1,1,6,1,,,,,,,,,,,,,,,,,,,,,,,,
,,,,,,,,,,,,其他,e,1,001,2024-08-24_03h59.22.803,IAT(Formal),2021.2.3,Win32,142.8571429,,,,,,,,,,,,,,,,,,,,,,,,,,,,,,,,,,e,1,1.3471,0,2,2,9,1,,,,,,,,,,,,,,,,,,,,,,,,
,,,,,,,,,,,,他,e,1,001,2024-08-24_03h59.22.803,IAT(Formal),2021.2.3,Win32,142.8571429,,,,,,,,,,,,,,,,,,,,,,,,,,,,,,,,,,e,1,0.5488,0,3,3,5,1,,,,,,,,,,,,,,,,,,,,,,,,
,,,,,,,,,,,,他的,e,1,001,2024-08-24_03h59.22.803,IAT(Formal),2021.2.3,Win32,142.8571429,,,,,,,,,,,,,,,,,,,,,,,,,,,,,,,,,,e,1,0.514,0,4,4,7,1,,,,,,,,,,,,,,,,,,,,,,,,
,,,,,,,,,,,,我们,i,1,001,2024-08-24_03h59.22.803,IAT(Formal),2021.2.3,Win32,142.8571429,,,,,,,,,,,,,,,,,,,,,,,,,,,,,,,,,,i,1,0.5074,0,5,5,2,1,,,,,,,,,,,,,,,,,,,,,,,,
,,,,,,,,,,,,俺,i,1,001,2024-08-24_03h59.22.803,IAT(Formal),2021.2.3,Win32,142.8571429,,,,,,,,,,,,,,,,,,,,,,,,,,,,,,,,,,i,1,0.6117,0,6,6,4,1,,,,,,,,,,,,,,,,,,,,,,,,
,,,,,,,,,,,,我,i,1,001,2024-08-24_03h59.22.803,IAT(Formal),2021.2.3,Win32,142.8571429,,,,,,,,,,,,,,,,,,,,,,,,,,,,,,,,,,i,1,0.3566,0,7,7,0,1,,,,,,,,,,,,,,,,,,,,,,,,
,,,,,,,,,,,,自己,i,1,001,2024-08-24_03h59.22.803,IAT(Formal),2021.2.3,Win32,142.8571429,,,,,,,,,,,,,,,,,,,,,,,,,,,,,,,,,,i,1,0.3891,0,8,8,3,1,,,,,,,,,,,,,,,,,,,,,,,,
,,,,,,,,,,,,他人,e,1,001,2024-08-24_03h59.22.803,IAT(Formal),2021.2.3,Win32,142.8571429,,,,,,,,,,,,,,,,,,,,,,,,,,,,,,,,,,e,1,0.5764,0,9,9,8,1,,,,,,,,,,,,,,,,,,,,,,,,
,,,,,,,,,,,,,,1,001,2024-08-24_03h59.22.803,IAT(Formal),2021.2.3,Win32,142.8571429,,,,,,,,,,,,,,,,,,,,,,,,,,,,,,,,,,,,,,,,,,space,23.4778,i,1,1.1173,0,0,0,42,1,凶狠,i,,,,,,,,,,,,
,,,,,,,,,,,,,,1,001,2024-08-24_03h59.22.803,IAT(Formal),2021.2.3,Win32,142.8571429,,,,,,,,,,,,,,,,,,,,,,,,,,,,,,,,,,,,,,,,,,,,i,0,1.0156,0,1,1,66,1,他们,e,,,,,,,,,,,,
,,,,,,,,,,,,,,1,001,2024-08-24_03h59.22.803,IAT(Formal),2021.2.3,Win32,142.8571429,,,,,,,,,,,,,,,,,,,,,,,,,,,,,,,,,,,,,,,,,,,,i,1,0.4792,0,2,2,72,1,我们,i,,,,,,,,,,,,
,,,,,,,,,,,,,,1,001,2024-08-24_03h59.22.803,IAT(Formal),2021.2.3,Win32,142.8571429,,,,,,,,,,,,,,,,,,,,,,,,,,,,,,,,,,,,,,,,,,,,i,1,0.5848,0,3,3,64,1,俺,i,,,,,,,,,,,,
,,,,,,,,,,,,,,1,001,2024-08-24_03h59.22.803,IAT(Formal),2021.2.3,Win32,142.8571429,,,,,,,,,,,,,,,,,,,,,,,,,,,,,,,,,,,,,,,,,,,,i,1,0.4668,0,4,4,53,1,自己,i,,,,,,,,,,,,
,,,,,,,,,,,,,,1,001,2024-08-24_03h59.22.803,IAT(Formal),2021.2.3,Win32,142.8571429,,,,,,,,,,,,,,,,,,,,,,,,,,,,,,,,,,,,,,,,,,,,e,1,0.5697,0,5,5,68,1,他人,e,,,,,,,,,,,,
,,,,,,,,,,,,,,1,001,2024-08-24_03h59.22.803,IAT(Formal),2021.2.3,Win32,142.8571429,,,,,,,,,,,,,,,,,,,,,,,,,,,,,,,,,,,,,,,,,,,,i,1,0.7099,0,6,6,40,1,执拗,i,,,,,,,,,,,,
,,,,,,,,,,,,,,1,001,2024-08-24_03h59.22.803,IAT(Formal),2021.2.3,Win32,142.8571429,,,,,,,,,,,,,,,,,,,,,,,,,,,,,,,,,,,,,,,,,,,,i,1,0.4793,0,7,7,1,1,我的,i,,,,,,,,,,,,
,,,,,,,,,,,,,,1,001,2024-08-24_03h59.22.803,IAT(Formal),2021.2.3,Win32,142.8571429,,,,,,,,,,,,,,,,,,,,,,,,,,,,,,,,,,,,,,,,,,,,e,1,0.6118,0,8,8,27,1,热情,e,,,,,,,,,,,,
,,,,,,,,,,,,,,1,001,2024-08-24_03h59.22.803,IAT(Formal),2021.2.3,Win32,142.8571429,,,,,,,,,,,,,,,,,,,,,,,,,,,,,,,,,,,,,,,,,,,,e,1,0.5361,0,9,9,13,1,杰出,e,,,,,,,,,,,,
,,,,,,,,,,,,,,1,001,2024-08-24_03h59.22.803,IAT(Formal),2021.2.3,Win32,142.8571429,,,,,,,,,,,,,,,,,,,,,,,,,,,,,,,,,,,,,,,,,,,,i,1,0.4456,0,10,10,50,1,我,i,,,,,,,,,,,,
,,,,,,,,,,,,,,1,001,2024-08-24_03h59.22.803,IAT(Formal),2021.2.3,Win32,142.8571429,,,,,,,,,,,,,,,,,,,,,,,,,,,,,,,,,,,,,,,,,,,,i,0,0.6807,0,11,11,69,1,其他,e,,,,,,,,,,,,
,,,,,,,,,,,,,,1,001,2024-08-24_03h59.22.803,IAT(Formal),2021.2.3,Win32,142.8571429,,,,,,,,,,,,,,,,,,,,,,,,,,,,,,,,,,,,,,,,,,,,i,1,0.479,0,12,12,73,1,自己,i,,,,,,,,,,,,
,,,,,,,,,,,,,,1,001,2024-08-24_03h59.22.803,IAT(Formal),2021.2.3,Win32,142.8571429,,,,,,,,,,,,,,,,,,,,,,,,,,,,,,,,,,,,,,,,,,,,i,1,0.5696,0,13,13,62,1,我们,i,,,,,,,,,,,,
,,,,,,,,,,,,,,1,001,2024-08-24_03h59.22.803,IAT(Formal),2021.2.3,Win32,142.8571429,,,,,,,,,,,,,,,,,,,,,,,,,,,,,,,,,,,,,,,,,,,,i,1,0.5774,0,14,14,54,1,俺,i,,,,,,,,,,,,
,,,,,,,,,,,,,,1,001,2024-08-24_03h59.22.803,IAT(Formal),2021.2.3,Win32,142.8571429,,,,,,,,,,,,,,,,,,,,,,,,,,,,,,,,,,,,,,,,,,,,i,0,0.5348,0,15,15,14,1,乐观,e,,,,,,,,,,,,
,,,,,,,,,,,,,,1,001,2024-08-24_03h59.22.803,IAT(Formal),2021.2.3,Win32,142.8571429,,,,,,,,,,,,,,,,,,,,,,,,,,,,,,,,,,,,,,,,,,,,i,1,0.5279,0,16,16,3,1,自己,i,,,,,,,,,,,,
,,,,,,,,,,,,,,1,001,2024-08-24_03h59.22.803,IAT(Formal),2021.2.3,Win32,142.8571429,,,,,,,,,,,,,,,,,,,,,,,,,,,,,,,,,,,,,,,,,,,,i,1,0.4724,0,17,17,71,1,我的,i,,,,,,,,,,,,
,,,,,,,,,,,,,,1,001,2024-08-24_03h59.22.803,IAT(Formal),2021.2.3,Win32,142.8571429,,,,,,,,,,,,,,,,,,,,,,,,,,,,,,,,,,,,,,,,,,,,i,1,0.4248,0,18,18,61,1,我的,i,,,,,,,,,,,,
,,,,,,,,,,,,,,1,001,2024-08-24_03h59.22.803,IAT(Formal),2021.2.3,Win32,142.8571429,,,,,,,,,,,,,,,,,,,,,,,,,,,,,,,,,,,,,,,,,,,,e,1,0.8837,0,19,19,67,1,他的,e,,,,,,,,,,,,
,,,,,,,,,,,,,,1,001,2024-08-24_03h59.22.803,IAT(Formal),2021.2.3,Win32,142.8571429,,,,,,,,,,,,,,,,,,,,,,,,,,,,,,,,,,,,,,,,,,,,i,1,1.0094,0,20,20,43,1,自私,i,,,,,,,,,,,,
,,,,,,,,,,,,,,1,001,2024-08-24_03h59.22.803,IAT(Formal),2021.2.3,Win32,142.8571429,,,,,,,,,,,,,,,,,,,,,,,,,,,,,,,,,,,,,,,,,,,,e,1,0.5702,0,21,21,18,1,勤奋,e,,,,,,,,,,,,
,,,,,,,,,,,,,,1,001,2024-08-24_03h59.22.803,IAT(Formal),2021.2.3,Win32,142.8571429,,,,,,,,,,,,,,,,,,,,,,,,,,,,,,,,,,,,,,,,,,,,i,1,0.5764,0,22,22,51,1,我的,i,,,,,,,,,,,,
,,,,,,,,,,,,,,1,001,2024-08-24_03h59.22.803,IAT(Formal),2021.2.3,Win32,142.8571429,,,,,,,,,,,,,,,,,,,,,,,,,,,,,,,,,,,,,,,,,,,,i,1,0.8611,0,23,23,44,1,暴躁,i,,,,,,,,,,,,
,,,,,,,,,,,,,,1,001,2024-08-24_03h59.22.803,IAT(Formal),2021.2.3,Win32,142.8571429,,,,,,,,,,,,,,,,,,,,,,,,,,,,,,,,,,,,,,,,,,,,e,1,0.5558,0,24,24,28,1,活泼,e,,,,,,,,,,,,
,,,,,,,,,,,,,,1,001,2024-08-24_03h59.22.803,IAT(Formal),2021.2.3,Win32,142.8571429,,,,,,,,,,,,,,,,,,,,,,,,,,,,,,,,,,,,,,,,,,,,e,1,0.9313,0,25,25,77,1,他的,e,,,,,,,,,,,,
,,,,,,,,,,,,,,1,001,2024-08-24_03h59.22.803,IAT(Formal),2021.2.3,Win32,142.8571429,,,,,,,,,,,,,,,,,,,,,,,,,,,,,,,,,,,,,,,,,,,,i,1,0.6945,0,26,26,37,1,傲慢,i,,,,,,,,,,,,
,,,,,,,,,,,,,,1,001,2024-08-24_03h59.22.803,IAT(Formal),2021.2.3,Win32,142.8571429,,,,,,,,,,,,,,,,,,,,,,,,,,,,,,,,,,,,,,,,,,,,e,1,0.7293,0,27,27,7,1,他的,e,,,,,,,,,,,,
,,,,,,,,,,,,,,1,001,2024-08-24_03h59.22.803,IAT(Formal),2021.2.3,Win32,142.8571429,,,,,,,,,,,,,,,,,,,,,,,,,,,,,,,,,,,,,,,,,,,,i,1,0.5284,0,28,28,52,1,我们,i,,,,,,,,,,,,
,,,,,,,,,,,,,,1,001,2024-08-24_03h59.22.803,IAT(Formal),2021.2.3,Win32,142.8571429,,,,,,,,,,,,,,,,,,,,,,,,,,,,,,,,,,,,,,,,,,,,e,1,0.8336,0,29,29,15,1,诚实,e,,,,,,,,,,,,
,,,,,,,,,,,,,,1,001,2024-08-24_03h59.22.803,IAT(Formal),2021.2.3,Win32,142.8571429,,,,,,,,,,,,,,,,,,,,,,,,,,,,,,,,,,,,,,,,,,,,i,0,0.5763,0,30,30,56,1,他们,e,,,,,,,,,,,,
,,,,,,,,,,,,,,1,001,2024-08-24_03h59.22.803,IAT(Formal),2021.2.3,Win32,142.8571429,,,,,,,,,,,,,,,,,,,,,,,,,,,,,,,,,,,,,,,,,,,,i,1,0.7709,0,31,31,45,1,猖狂,i,,,,,,,,,,,,
,,,,,,,,,,,,,,1,001,2024-08-24_03h59.22.803,IAT(Formal),2021.2.3,Win32,142.8571429,,,,,,,,,,,,,,,,,,,,,,,,,,,,,,,,,,,,,,,,,,,,e,1,0.8407,0,32,32,23,1,公正,e,,,,,,,,,,,,
,,,,,,,,,,,,,,1,001,2024-08-24_03h59.22.803,IAT(Formal),2021.2.3,Win32,142.8571429,,,,,,,,,,,,,,,,,,,,,,,,,,,,,,,,,,,,,,,,,,,,i,1,0.8767,0,33,33,34,1,悲观,i,,,,,,,,,,,,
,,,,,,,,,,,,,,1,001,2024-08-24_03h59.22.803,IAT(Formal),2021.2.3,Win32,142.8571429,,,,,,,,,,,,,,,,,,,,,,,,,,,,,,,,,,,,,,,,,,,,e,1,0.875,0,34,34,59,1,其他,e,,,,,,,,,,,,
,,,,,,,,,,,,,,1,001,2024-08-24_03h59.22.803,IAT(Formal),2021.2.3,Win32,142.8571429,,,,,,,,,,,,,,,,,,,,,,,,,,,,,,,,,,,,,,,,,,,,i,1,0.4657,0,35,35,2,1,我们,i,,,,,,,,,,,,
,,,,,,,,,,,,,,1,001,2024-08-24_03h59.22.803,IAT(Formal),2021.2.3,Win32,142.8571429,,,,,,,,,,,,,,,,,,,,,,,,,,,,,,,,,,,,,,,,,,,,e,1,0.5283,0,36,36,78,1,他人,e,,,,,,,,,,,,
,,,,,,,,,,,,,,1,001,2024-08-24_03h59.22.803,IAT(Formal),2021.2.3,Win32,142.8571429,,,,,,,,,,,,,,,,,,,,,,,,,,,,,,,,,,,,,,,,,,,,e,1,0.7778,0,37,37,79,1,其他,e,,,,,,,,,,,,
,,,,,,,,,,,,,,1,001,2024-08-24_03h59.22.803,IAT(Formal),2021.2.3,Win32,142.8571429,,,,,,,,,,,,,,,,,,,,,,,,,,,,,,,,,,,,,,,,,,,,i,1,0.5001,0,38,38,74,1,俺,i,,,,,,,,,,,,
,,,,,,,,,,,,,,1,001,2024-08-24_03h59.22.803,IAT(Formal),2021.2.3,Win32,142.8571429,,,,,,,,,,,,,,,,,,,,,,,,,,,,,,,,,,,,,,,,,,,,i,0,0.5696,0,39,39,11,1,崇高,e,,,,,,,,,,,,
,,,,,,,,,,,,,,1,001,2024-08-24_03h59.22.803,IAT(Formal),2021.2.3,Win32,142.8571429,,,,,,,,,,,,,,,,,,,,,,,,,,,,,,,,,,,,,,,,,,,,e,1,0.9931,0,40,40,24,1,朴实,e,,,,,,,,,,,,
,,,,,,,,,,,,,,1,001,2024-08-24_03h59.22.803,IAT(Formal),2021.2.3,Win32,142.8571429,,,,,,,,,,,,,,,,,,,,,,,,,,,,,,,,,,,,,,,,,,,,i,1,0.7646,0,41,41,48,1,轻率,i,,,,,,,,,,,,
,,,,,,,,,,,,,,1,001,2024-08-24_03h59.22.803,IAT(Formal),2021.2.3,Win32,142.8571429,,,,,,,,,,,,,,,,,,,,,,,,,,,,,,,,,,,,,,,,,,,,e,1,0.8398,0,42,42,76,1,他们,e,,,,,,,,,,,,
,,,,,,,,,,,,,,1,001,2024-08-24_03h59.22.803,IAT(Formal),2021.2.3,Win32,142.8571429,,,,,,,,,,,,,,,,,,,,,,,,,,,,,,,,,,,,,,,,,,,,i,0,0.7175,0,43,43,25,1,细腻,e,,,,,,,,,,,,
,,,,,,,,,,,,,,1,001,2024-08-24_03h59.22.803,IAT(Formal),2021.2.3,Win32,142.8571429,,,,,,,,,,,,,,,,,,,,,,,,,,,,,,,,,,,,,,,,,,,,i,1,0.6253,0,44,44,4,1,俺,i,,,,,,,,,,,,
,,,,,,,,,,,,,,1,001,2024-08-24_03h59.22.803,IAT(Formal),2021.2.3,Win32,142.8571429,,,,,,,,,,,,,,,,,,,,,,,,,,,,,,,,,,,,,,,,,,,,i,1,0.7864,0,45,45,33,1,刻薄,i,,,,,,,,,,,,
,,,,,,,,,,,,,,1,001,2024-08-24_03h59.22.803,IAT(Formal),2021.2.3,Win32,142.8571429,,,,,,,,,,,,,,,,,,,,,,,,,,,,,,,,,,,,,,,,,,,,i,1,0.5764,0,46,46,35,1,消极,i,,,,,,,,,,,,
,,,,,,,,,,,,,,1,001,2024-08-24_03h59.22.803,IAT(Formal),2021.2.3,Win32,142.8571429,,,,,,,,,,,,,,,,,,,,,,,,,,,,,,,,,,,,,,,,,,,,i,1,0.9234,0,47,47,63,1,自己,i,,,,,,,,,,,,
,,,,,,,,,,,,,,1,001,2024-08-24_03h59.22.803,IAT(Formal),2021.2.3,Win32,142.8571429,,,,,,,,,,,,,,,,,,,,,,,,,,,,,,,,,,,,,,,,,,,,e,1,0.5857,0,48,48,17,1,勇敢,e,,,,,,,,,,,,
,,,,,,,,,,,,,,1,001,2024-08-24_03h59.22.803,IAT(Formal),2021.2.3,Win32,142.8571429,,,,,,,,,,,,,,,,,,,,,,,,,,,,,,,,,,,,,,,,,,,,i,1,0.883,0,49,49,70,1,我,i,,,,,,,,,,,,
,,,,,,,,,,,,,,1,001,2024-08-24_03h59.22.803,IAT(Formal),2021.2.3,Win32,142.8571429,,,,,,,,,,,,,,,,,,,,,,,,,,,,,,,,,,,,,,,,,,,,i,1,0.5216,0,50,50,38,1,鲁莽,i,,,,,,,,,,,,
,,,,,,,,,,,,,,1,001,2024-08-24_03h59.22.803,IAT(Formal),2021.2.3,Win32,142.8571429,,,,,,,,,,,,,,,,,,,,,,,,,,,,,,,,,,,,,,,,,,,,i,1,0.7297,0,51,51,30,1,卑鄙,i,,,,,,,,,,,,
,,,,,,,,,,,,,,1,001,2024-08-24_03h59.22.803,IAT(Formal),2021.2.3,Win32,142.8571429,,,,,,,,,,,,,,,,,,,,,,,,,,,,,,,,,,,,,,,,,,,,e,1,0.7126,0,52,52,57,1,他的,e,,,,,,,,,,,,
,,,,,,,,,,,,,,1,001,2024-08-24_03h59.22.803,IAT(Formal),2021.2.3,Win32,142.8571429,,,,,,,,,,,,,,,,,,,,,,,,,,,,,,,,,,,,,,,,,,,,i,1,0.7578,0,53,53,46,1,野蛮,i,,,,,,,,,,,,
,,,,,,,,,,,,,,1,001,2024-08-24_03h59.22.803,IAT(Formal),2021.2.3,Win32,142.8571429,,,,,,,,,,,,,,,,,,,,,,,,,,,,,,,,,,,,,,,,,,,,i,1,0.4241,0,54,54,60,1,我,i,,,,,,,,,,,,
,,,,,,,,,,,,,,1,001,2024-08-24_03h59.22.803,IAT(Formal),2021.2.3,Win32,142.8571429,,,,,,,,,,,,,,,,,,,,,,,,,,,,,,,,,,,,,,,,,,,,e,1,0.627,0,55,55,55,1,他,e,,,,,,,,,,,,
,,,,,,,,,,,,,,1,001,2024-08-24_03h59.22.803,IAT(Formal),2021.2.3,Win32,142.8571429,,,,,,,,,,,,,,,,,,,,,,,,,,,,,,,,,,,,,,,,,,,,e,1,0.685,0,56,56,21,1,稳重,e,,,,,,,,,,,,
,,,,,,,,,,,,,,1,001,2024-08-24_03h59.22.803,IAT(Formal),2021.2.3,Win32,142.8571429,,,,,,,,,,,,,,,,,,,,,,,,,,,,,,,,,,,,,,,,,,,,e,1,1.2333,0,57,57,8,1,他人,e,,,,,,,,,,,,
,,,,,,,,,,,,,,1,001,2024-08-24_03h59.22.803,IAT(Formal),2021.2.3,Win32,142.8571429,,,,,,,,,,,,,,,,,,,,,,,,,,,,,,,,,,,,,,,,,,,,i,1,0.8978,0,58,58,39,1,冒失,i,,,,,,,,,,,,
,,,,,,,,,,,,,,1,001,2024-08-24_03h59.22.803,IAT(Formal),2021.2.3,Win32,142.8571429,,,,,,,,,,,,,,,,,,,,,,,,,,,,,,,,,,,,,,,,,,,,i,1,0.5323,0,59,59,31,1,虚伪,i,,,,,,,,,,,,
,,,,,,,,,,,,,,1,001,2024-08-24_03h59.22.803,IAT(Formal),2021.2.3,Win32,142.8571429,,,,,,,,,,,,,,,,,,,,,,,,,,,,,,,,,,,,,,,,,,,,e,1,0.6664,0,60,60,6,1,他们,e,,,,,,,,,,,,
,,,,,,,,,,,,,,1,001,2024-08-24_03h59.22.803,IAT(Formal),2021.2.3,Win32,142.8571429,,,,,,,,,,,,,,,,,,,,,,,,,,,,,,,,,,,,,,,,,,,,e,1,0.6503,0,61,61,26,1,冷静,e,,,,,,,,,,,,
,,,,,,,,,,,,,,1,001,2024-08-24_03h59.22.803,IAT(Formal),2021.2.3,Win32,142.8571429,,,,,,,,,,,,,,,,,,,,,,,,,,,,,,,,,,,,,,,,,,,,e,1,0.5639,0,62,62,16,1,正直,e,,,,,,,,,,,,
,,,,,,,,,,,,,,1,001,2024-08-24_03h59.22.803,IAT(Formal),2021.2.3,Win32,142.8571429,,,,,,,,,,,,,,,,,,,,,,,,,,,,,,,,,,,,,,,,,,,,e,1,0.4598,0,63,63,12,1,聪明,e,,,,,,,,,,,,
,,,,,,,,,,,,,,1,001,2024-08-24_03h59.22.803,IAT(Formal),2021.2.3,Win32,142.8571429,,,,,,,,,,,,,,,,,,,,,,,,,,,,,,,,,,,,,,,,,,,,e,1,0.7094,0,64,64,9,1,其他,e,,,,,,,,,,,,
,,,,,,,,,,,,,,1,001,2024-08-24_03h59.22.803,IAT(Formal),2021.2.3,Win32,142.8571429,,,,,,,,,,,,,,,,,,,,,,,,,,,,,,,,,,,,,,,,,,,,e,0,0.7204,0,65,65,0,1,我,i,,,,,,,,,,,,
,,,,,,,,,,,,,,1,001,2024-08-24_03h59.22.803,IAT(Formal),2021.2.3,Win32,142.8571429,,,,,,,,,,,,,,,,,,,,,,,,,,,,,,,,,,,,,,,,,,,,e,1,0.5281,0,66,66,75,1,他,e,,,,,,,,,,,,
,,,,,,,,,,,,,,1,001,2024-08-24_03h59.22.803,IAT(Formal),2021.2.3,Win32,142.8571429,,,,,,,,,,,,,,,,,,,,,,,,,,,,,,,,,,,,,,,,,,,,e,1,0.953,0,67,67,19,1,机智,e,,,,,,,,,,,,
,,,,,,,,,,,,,,1,001,2024-08-24_03h59.22.803,IAT(Formal),2021.2.3,Win32,142.8571429,,,,,,,,,,,,,,,,,,,,,,,,,,,,,,,,,,,,,,,,,,,,i,1,0.6379,0,68,68,41,1,散漫,i,,,,,,,,,,,,
,,,,,,,,,,,,,,1,001,2024-08-24_03h59.22.803,IAT(Formal),2021.2.3,Win32,142.8571429,,,,,,,,,,,,,,,,,,,,,,,,,,,,,,,,,,,,,,,,,,,,i,1,0.5269,0,69,69,32,1,愚蠢,i,,,,,,,,,,,,
,,,,,,,,,,,,,,1,001,2024-08-24_03h59.22.803,IAT(Formal),2021.2.3,Win32,142.8571429,,,,,,,,,,,,,,,,,,,,,,,,,,,,,,,,,,,,,,,,,,,,e,1,0.5481,0,70,70,20,1,认真,e,,,,,,,,,,,,
,,,,,,,,,,,,,,1,001,2024-08-24_03h59.22.803,IAT(Formal),2021.2.3,Win32,142.8571429,,,,,,,,,,,,,,,,,,,,,,,,,,,,,,,,,,,,,,,,,,,,e,1,0.8333,0,71,71,22,1,无私,e,,,,,,,,,,,,
,,,,,,,,,,,,,,1,001,2024-08-24_03h59.22.803,IAT(Formal),2021.2.3,Win32,142.8571429,,,,,,,,,,,,,,,,,,,,,,,,,,,,,,,,,,,,,,,,,,,,e,1,0.6334,0,72,72,10,1,优秀,e,,,,,,,,,,,,
,,,,,,,,,,,,,,1,001,2024-08-24_03h59.22.803,IAT(Formal),2021.2.3,Win32,142.8571429,,,,,,,,,,,,,,,,,,,,,,,,,,,,,,,,,,,,,,,,,,,,i,1,0.8586,0,73,73,49,1,下贱,i,,,,,,,,,,,,
,,,,,,,,,,,,,,1,001,2024-08-24_03h59.22.803,IAT(Formal),2021.2.3,Win32,142.8571429,,,,,,,,,,,,,,,,,,,,,,,,,,,,,,,,,,,,,,,,,,,,i,1,0.8516,0,74,74,47,1,固执,i,,,,,,,,,,,,
,,,,,,,,,,,,,,1,001,2024-08-24_03h59.22.803,IAT(Formal),2021.2.3,Win32,142.8571429,,,,,,,,,,,,,,,,,,,,,,,,,,,,,,,,,,,,,,,,,,,,e,1,0.6042,0,75,75,58,1,他人,e,,,,,,,,,,,,
,,,,,,,,,,,,,,1,001,2024-08-24_03h59.22.803,IAT(Formal),2021.2.3,Win32,142.8571429,,,,,,,,,,,,,,,,,,,,,,,,,,,,,,,,,,,,,,,,,,,,e,1,0.4734,0,76,76,5,1,他,e,,,,,,,,,,,,
,,,,,,,,,,,,,,1,001,2024-08-24_03h59.22.803,IAT(Formal),2021.2.3,Win32,142.8571429,,,,,,,,,,,,,,,,,,,,,,,,,,,,,,,,,,,,,,,,,,,,e,1,0.9084,0,77,77,29,1,诚恳,e,,,,,,,,,,,,
,,,,,,,,,,,,,,1,001,2024-08-24_03h59.22.803,IAT(Formal),2021.2.3,Win32,142.8571429,,,,,,,,,,,,,,,,,,,,,,,,,,,,,,,,,,,,,,,,,,,,i,1,0.6869,0,78,78,36,1,自卑,i,,,,,,,,,,,,
,,,,,,,,,,,,,,1,001,2024-08-24_03h59.22.803,IAT(Formal),2021.2.3,Win32,142.8571429,,,,,,,,,,,,,,,,,,,,,,,,,,,,,,,,,,,,,,,,,,,,i,0,0.7087,0,79,79,65,1,他,e,,,,,,,,,,,,
,,,,,,,,,,,,,,1,001,2024-08-24_03h59.22.803,IAT(Formal),2021.2.3,Win32,142.8571429,,,,,,,,,,,,,,,,,,,,,,,,,,,,,,,,,,,,,,,,,,,,,,,,,,,,其他,e,space,11.0346,e,1,0.6432,0,0,0,9,1,,
,,,,,,,,,,,,,,1,001,2024-08-24_03h59.22.803,IAT(Formal),2021.2.3,Win32,142.8571429,,,,,,,,,,,,,,,,,,,,,,,,,,,,,,,,,,,,,,,,,,,,,,,,,,,,他的,e,,,e,1,0.5185,0,1,1,57,1,,
,,,,,,,,,,,,,,1,001,2024-08-24_03h59.22.803,IAT(Formal),2021.2.3,Win32,142.8571429,,,,,,,,,,,,,,,,,,,,,,,,,,,,,,,,,,,,,,,,,,,,,,,,,,,,他人,e,,,e,1,0.3956,0,2,2,78,1,,
,,,,,,,,,,,,,,1,001,2024-08-24_03h59.22.803,IAT(Formal),2021.2.3,Win32,142.8571429,,,,,,,,,,,,,,,,,,,,,,,,,,,,,,,,,,,,,,,,,,,,,,,,,,,,他们,e,,,e,1,0.4168,0,3,3,6,1,,
,,,,,,,,,,,,,,1,001,2024-08-24_03h59.22.803,IAT(Formal),2021.2.3,Win32,142.8571429,,,,,,,,,,,,,,,,,,,,,,,,,,,,,,,,,,,,,,,,,,,,,,,,,,,,他们,e,,,e,1,0.3543,0,4,4,56,1,,
,,,,,,,,,,,,,,1,001,2024-08-24_03h59.22.803,IAT(Formal),2021.2.3,Win32,142.8571429,,,,,,,,,,,,,,,,,,,,,,,,,,,,,,,,,,,,,,,,,,,,,,,,,,,,他的,e,,,e,1,0.3359,0,5,5,7,1,,
,,,,,,,,,,,,,,1,001,2024-08-24_03h59.22.803,IAT(Formal),2021.2.3,Win32,142.8571429,,,,,,,,,,,,,,,,,,,,,,,,,,,,,,,,,,,,,,,,,,,,,,,,,,,,优秀,e,,,e,1,1.1351,0,6,6,10,1,,
,,,,,,,,,,,,,,1,001,2024-08-24_03h59.22.803,IAT(Formal),2021.2.3,Win32,142.8571429,,,,,,,,,,,,,,,,,,,,,,,,,,,,,,,,,,,,,,,,,,,,,,,,,,,,他们,e,,,e,1,0.4026,0,7,7,76,1,,
,,,,,,,,,,,,,,1,001,2024-08-24_03h59.22.803,IAT(Formal),2021.2.3,Win32,142.8571429,,,,,,,,,,,,,,,,,,,,,,,,,,,,,,,,,,,,,,,,,,,,,,,,,,,,活泼,e,,,i,0,0.757,0,8,8,28,1,,
,,,,,,,,,,,,,,1,001,2024-08-24_03h59.22.803,IAT(Formal),2021.2.3,Win32,142.8571429,,,,,,,,,,,,,,,,,,,,,,,,,,,,,,,,,,,,,,,,,,,,,,,,,,,,其他,e,,,e,1,0.6888,0,9,9,79,1,,
,,,,,,,,,,,,,,1,001,2024-08-24_03h59.22.803,IAT(Formal),2021.2.3,Win32,142.8571429,,,,,,,,,,,,,,,,,,,,,,,,,,,,,,,,,,,,,,,,,,,,,,,,,,,,崇高,e,,,e,1,0.8009,0,10,10,11,1,,
,,,,,,,,,,,,,,1,001,2024-08-24_03h59.22.803,IAT(Formal),2021.2.3,Win32,142.8571429,,,,,,,,,,,,,,,,,,,,,,,,,,,,,,,,,,,,,,,,,,,,,,,,,,,,俺,i,,,i,1,1.036,0,11,11,4,1,,
,,,,,,,,,,,,,,1,001,2024-08-24_03h59.22.803,IAT(Formal),2021.2.3,Win32,142.8571429,,,,,,,,,,,,,,,,,,,,,,,,,,,,,,,,,,,,,,,,,,,,,,,,,,,,他人,e,,,e,1,0.4865,0,12,12,8,1,,
,,,,,,,,,,,,,,1,001,2024-08-24_03h59.22.803,IAT(Formal),2021.2.3,Win32,142.8571429,,,,,,,,,,,,,,,,,,,,,,,,,,,,,,,,,,,,,,,,,,,,,,,,,,,,俺,i,,,i,1,0.5437,0,13,13,54,1,,
,,,,,,,,,,,,,,1,001,2024-08-24_03h59.22.803,IAT(Formal),2021.2.3,Win32,142.8571429,,,,,,,,,,,,,,,,,,,,,,,,,,,,,,,,,,,,,,,,,,,,,,,,,,,,公正,e,,,e,1,0.6806,0,14,14,23,1,,
,,,,,,,,,,,,,,1,001,2024-08-24_03h59.22.803,IAT(Formal),2021.2.3,Win32,142.8571429,,,,,,,,,,,,,,,,,,,,,,,,,,,,,,,,,,,,,,,,,,,,,,,,,,,,他人,e,,,e,1,0.7567,0,15,15,68,1,,
,,,,,,,,,,,,,,1,001,2024-08-24_03h59.22.803,IAT(Formal),2021.2.3,Win32,142.8571429,,,,,,,,,,,,,,,,,,,,,,,,,,,,,,,,,,,,,,,,,,,,,,,,,,,,自私,i,,,i,1,0.6248,0,16,16,43,1,,
,,,,,,,,,,,,,,1,001,2024-08-24_03h59.22.803,IAT(Formal),2021.2.3,Win32,142.8571429,,,,,,,,,,,,,,,,,,,,,,,,,,,,,,,,,,,,,,,,,,,,,,,,,,,,执拗,i,,,i,1,0.4539,0,17,17,40,1,,
,,,,,,,,,,,,,,1,001,2024-08-24_03h59.22.803,IAT(Formal),2021.2.3,Win32,142.8571429,,,,,,,,,,,,,,,,,,,,,,,,,,,,,,,,,,,,,,,,,,,,,,,,,,,,悲观,i,,,i,1,0.563,0,18,18,34,1,,
,,,,,,,,,,,,,,1,001,2024-08-24_03h59.22.803,IAT(Formal),2021.2.3,Win32,142.8571429,,,,,,,,,,,,,,,,,,,,,,,,,,,,,,,,,,,,,,,,,,,,,,,,,,,,冒失,i,,,i,1,0.4098,0,19,19,39,1,,
,,,,,,,,,,,,,,1,001,2024-08-24_03h59.22.803,IAT(Formal),2021.2.3,Win32,142.8571429,,,,,,,,,,,,,,,,,,,,,,,,,,,,,,,,,,,,,,,,,,,,,,,,,,,,勇敢,e,,,e,1,0.507,0,20,20,17,1,,
,,,,,,,,,,,,,,1,001,2024-08-24_03h59.22.803,IAT(Formal),2021.2.3,Win32,142.8571429,,,,,,,,,,,,,,,,,,,,,,,,,,,,,,,,,,,,,,,,,,,,,,,,,,,,我们,i,,,i,1,0.8973,0,21,21,52,1,,
,,,,,,,,,,,,,,1,001,2024-08-24_03h59.22.803,IAT(Formal),2021.2.3,Win32,142.8571429,,,,,,,,,,,,,,,,,,,,,,,,,,,,,,,,,,,,,,,,,,,,,,,,,,,,自己,i,,,i,1,0.4309,0,22,22,3,1,,
,,,,,,,,,,,,,,1,001,2024-08-24_03h59.22.803,IAT(Formal),2021.2.3,Win32,142.8571429,,,,,,,,,,,,,,,,,,,,,,,,,,,,,,,,,,,,,,,,,,,,,,,,,,,,消极,i,,,i,1,0.611,0,23,23,35,1,,
,,,,,,,,,,,,,,1,001,2024-08-24_03h59.22.803,IAT(Formal),2021.2.3,Win32,142.8571429,,,,,,,,,,,,,,,,,,,,,,,,,,,,,,,,,,,,,,,,,,,,,,,,,,,,稳重,e,,,e,1,1.0001,0,24,24,21,1,,
,,,,,,,,,,,,,,1,001,2024-08-24_03h59.22.803,IAT(Formal),2021.2.3,Win32,142.8571429,,,,,,,,,,,,,,,,,,,,,,,,,,,,,,,,,,,,,,,,,,,,,,,,,,,,聪明,e,,,e,1,0.6112,0,25,25,12,1,,
,,,,,,,,,,,,,,1,001,2024-08-24_03h59.22.803,IAT(Formal),2021.2.3,Win32,142.8571429,,,,,,,,,,,,,,,,,,,,,,,,,,,,,,,,,,,,,,,,,,,,,,,,,,,,暴躁,i,,,i,1,0.5345,0,26,26,44,1,,
,,,,,,,,,,,,,,1,001,2024-08-24_03h59.22.803,IAT(Formal),2021.2.3,Win32,142.8571429,,,,,,,,,,,,,,,,,,,,,,,,,,,,,,,,,,,,,,,,,,,,,,,,,,,,我们,i,,,i,1,0.5748,0,27,27,72,1,,
,,,,,,,,,,,,,,1,001,2024-08-24_03h59.22.803,IAT(Formal),2021.2.3,Win32,142.8571429,,,,,,,,,,,,,,,,,,,,,,,,,,,,,,,,,,,,,,,,,,,,,,,,,,,,他的,e,,,e,1,0.6475,0,28,28,77,1,,
,,,,,,,,,,,,,,1,001,2024-08-24_03h59.22.803,IAT(Formal),2021.2.3,Win32,142.8571429,,,,,,,,,,,,,,,,,,,,,,,,,,,,,,,,,,,,,,,,,,,,,,,,,,,,正直,e,,,e,1,0.6823,0,29,29,16,1,,
,,,,,,,,,,,,,,1,001,2024-08-24_03h59.22.803,IAT(Formal),2021.2.3,Win32,142.8571429,,,,,,,,,,,,,,,,,,,,,,,,,,,,,,,,,,,,,,,,,,,,,,,,,,,,自卑,i,,,i,1,0.5488,0,30,30,36,1,,
,,,,,,,,,,,,,,1,001,2024-08-24_03h59.22.803,IAT(Formal),2021.2.3,Win32,142.8571429,,,,,,,,,,,,,,,,,,,,,,,,,,,,,,,,,,,,,,,,,,,,,,,,,,,,其他,e,,,e,1,0.8825,0,31,31,69,1,,
,,,,,,,,,,,,,,1,001,2024-08-24_03h59.22.803,IAT(Formal),2021.2.3,Win32,142.8571429,,,,,,,,,,,,,,,,,,,,,,,,,,,,,,,,,,,,,,,,,,,,,,,,,,,,勤奋,e,,,e,1,0.958,0,32,32,18,1,,
,,,,,,,,,,,,,,1,001,2024-08-24_03h59.22.803,IAT(Formal),2021.2.3,Win32,142.8571429,,,,,,,,,,,,,,,,,,,,,,,,,,,,,,,,,,,,,,,,,,,,,,,,,,,,他,e,,,e,1,0.7162,0,33,33,55,1,,
,,,,,,,,,,,,,,1,001,2024-08-24_03h59.22.803,IAT(Formal),2021.2.3,Win32,142.8571429,,,,,,,,,,,,,,,,,,,,,,,,,,,,,,,,,,,,,,,,,,,,,,,,,,,,俺,i,,,i,1,0.7639,0,34,34,74,1,,
,,,,,,,,,,,,,,1,001,2024-08-24_03h59.22.803,IAT(Formal),2021.2.3,Win32,142.8571429,,,,,,,,,,,,,,,,,,,,,,,,,,,,,,,,,,,,,,,,,,,,,,,,,,,,他,e,,,e,1,0.7017,0,35,35,5,1,,
,,,,,,,,,,,,,,1,001,2024-08-24_03h59.22.803,IAT(Formal),2021.2.3,Win32,142.8571429,,,,,,,,,,,,,,,,,,,,,,,,,,,,,,,,,,,,,,,,,,,,,,,,,,,,认真,e,,,e,1,0.6662,0,36,36,20,1,,
,,,,,,,,,,,,,,1,001,2024-08-24_03h59.22.803,IAT(Formal),2021.2.3,Win32,142.8571429,,,,,,,,,,,,,,,,,,,,,,,,,,,,,,,,,,,,,,,,,,,,,,,,,,,,冷静,e,,,e,1,0.5711,0,37,37,26,1,,
,,,,,,,,,,,,,,1,001,2024-08-24_03h59.22.803,IAT(Formal),2021.2.3,Win32,142.8571429,,,,,,,,,,,,,,,,,,,,,,,,,,,,,,,,,,,,,,,,,,,,,,,,,,,,固执,i,,,i,1,0.6883,0,38,38,47,1,,
,,,,,,,,,,,,,,1,001,2024-08-24_03h59.22.803,IAT(Formal),2021.2.3,Win32,142.8571429,,,,,,,,,,,,,,,,,,,,,,,,,,,,,,,,,,,,,,,,,,,,,,,,,,,,我的,i,,,i,1,0.6667,0,39,39,61,1,,
,,,,,,,,,,,,,,1,001,2024-08-24_03h59.22.803,IAT(Formal),2021.2.3,Win32,142.8571429,,,,,,,,,,,,,,,,,,,,,,,,,,,,,,,,,,,,,,,,,,,,,,,,,,,,野蛮,i,,,i,1,0.5707,0,40,40,46,1,,
,,,,,,,,,,,,,,1,001,2024-08-24_03h59.22.803,IAT(Formal),2021.2.3,Win32,142.8571429,,,,,,,,,,,,,,,,,,,,,,,,,,,,,,,,,,,,,,,,,,,,,,,,,,,,无私,e,,,i,0,0.5558,0,41,41,22,1,,
,,,,,,,,,,,,,,1,001,2024-08-24_03h59.22.803,IAT(Formal),2021.2.3,Win32,142.8571429,,,,,,,,,,,,,,,,,,,,,,,,,,,,,,,,,,,,,,,,,,,,,,,,,,,,自己,i,,,i,1,0.6179,0,42,42,63,1,,
,,,,,,,,,,,,,,1,001,2024-08-24_03h59.22.803,IAT(Formal),2021.2.3,Win32,142.8571429,,,,,,,,,,,,,,,,,,,,,,,,,,,,,,,,,,,,,,,,,,,,,,,,,,,,诚恳,e,,,e,1,1.1396,0,43,43,29,1,,
,,,,,,,,,,,,,,1,001,2024-08-24_03h59.22.803,IAT(Formal),2021.2.3,Win32,142.8571429,,,,,,,,,,,,,,,,,,,,,,,,,,,,,,,,,,,,,,,,,,,,,,,,,,,,他,e,,,e,1,0.8001,0,44,44,75,1,,
,,,,,,,,,,,,,,1,001,2024-08-24_03h59.22.803,IAT(Formal),2021.2.3,Win32,142.8571429,,,,,,,,,,,,,,,,,,,,,,,,,,,,,,,,,,,,,,,,,,,,,,,,,,,,虚伪,i,,,i,1,0.758,0,45,45,31,1,,
,,,,,,,,,,,,,,1,001,2024-08-24_03h59.22.803,IAT(Formal),2021.2.3,Win32,142.8571429,,,,,,,,,,,,,,,,,,,,,,,,,,,,,,,,,,,,,,,,,,,,,,,,,,,,诚实,e,,,e,1,0.6387,0,46,46,15,1,,
,,,,,,,,,,,,,,1,001,2024-08-24_03h59.22.803,IAT(Formal),2021.2.3,Win32,142.8571429,,,,,,,,,,,,,,,,,,,,,,,,,,,,,,,,,,,,,,,,,,,,,,,,,,,,刻薄,i,,,i,1,0.5761,0,47,47,33,1,,
,,,,,,,,,,,,,,1,001,2024-08-24_03h59.22.803,IAT(Formal),2021.2.3,Win32,142.8571429,,,,,,,,,,,,,,,,,,,,,,,,,,,,,,,,,,,,,,,,,,,,,,,,,,,,我们,i,,,i,1,0.6898,0,48,48,2,1,,
,,,,,,,,,,,,,,1,001,2024-08-24_03h59.22.803,IAT(Formal),2021.2.3,Win32,142.8571429,,,,,,,,,,,,,,,,,,,,,,,,,,,,,,,,,,,,,,,,,,,,,,,,,,,,乐观,e,,,e,1,0.5968,0,49,49,14,1,,
,,,,,,,,,,,,,,1,001,2024-08-24_03h59.22.803,IAT(Formal),2021.2.3,Win32,142.8571429,,,,,,,,,,,,,,,,,,,,,,,,,,,,,,,,,,,,,,,,,,,,,,,,,,,,下贱,i,,,i,1,0.5905,0,50,50,49,1,,
,,,,,,,,,,,,,,1,001,2024-08-24_03h59.22.803,IAT(Formal),2021.2.3,Win32,142.8571429,,,,,,,,,,,,,,,,,,,,,,,,,,,,,,,,,,,,,,,,,,,,,,,,,,,,猖狂,i,,,i,1,0.8495,0,51,51,45,1,,
,,,,,,,,,,,,,,1,001,2024-08-24_03h59.22.803,IAT(Formal),2021.2.3,Win32,142.8571429,,,,,,,,,,,,,,,,,,,,,,,,,,,,,,,,,,,,,,,,,,,,,,,,,,,,他们,e,,,e,1,0.6673,0,52,52,66,1,,
,,,,,,,,,,,,,,1,001,2024-08-24_03h59.22.803,IAT(Formal),2021.2.3,Win32,142.8571429,,,,,,,,,,,,,,,,,,,,,,,,,,,,,,,,,,,,,,,,,,,,,,,,,,,,我们,i,,,i,1,0.5764,0,53,53,62,1,,
,,,,,,,,,,,,,,1,001,2024-08-24_03h59.22.803,IAT(Formal),2021.2.3,Win32,142.8571429,,,,,,,,,,,,,,,,,,,,,,,,,,,,,,,,,,,,,,,,,,,,,,,,,,,,杰出,e,,,e,1,0.6803,0,54,54,13,1,,
,,,,,,,,,,,,,,1,001,2024-08-24_03h59.22.803,IAT(Formal),2021.2.3,Win32,142.8571429,,,,,,,,,,,,,,,,,,,,,,,,,,,,,,,,,,,,,,,,,,,,,,,,,,,,我的,i,,,i,1,0.606,0,55,55,71,1,,
,,,,,,,,,,,,,,1,001,2024-08-24_03h59.22.803,IAT(Formal),2021.2.3,Win32,142.8571429,,,,,,,,,,,,,,,,,,,,,,,,,,,,,,,,,,,,,,,,,,,,,,,,,,,,朴实,e,,,i,0,0.8121,0,56,56,24,1,,
,,,,,,,,,,,,,,1,001,2024-08-24_03h59.22.803,IAT(Formal),2021.2.3,Win32,142.8571429,,,,,,,,,,,,,,,,,,,,,,,,,,,,,,,,,,,,,,,,,,,,,,,,,,,,我的,i,,,i,1,0.8004,0,57,57,51,1,,
,,,,,,,,,,,,,,1,001,2024-08-24_03h59.22.803,IAT(Formal),2021.2.3,Win32,142.8571429,,,,,,,,,,,,,,,,,,,,,,,,,,,,,,,,,,,,,,,,,,,,,,,,,,,,他的,e,,,e,1,0.5554,0,58,58,67,1,,
,,,,,,,,,,,,,,1,001,2024-08-24_03h59.22.803,IAT(Formal),2021.2.3,Win32,142.8571429,,,,,,,,,,,,,,,,,,,,,,,,,,,,,,,,,,,,,,,,,,,,,,,,,,,,他,e,,,e,1,0.5551,0,59,59,65,1,,
,,,,,,,,,,,,,,1,001,2024-08-24_03h59.22.803,IAT(Formal),2021.2.3,Win32,142.8571429,,,,,,,,,,,,,,,,,,,,,,,,,,,,,,,,,,,,,,,,,,,,,,,,,,,,凶狠,i,,,i,1,0.5774,0,60,60,42,1,,
,,,,,,,,,,,,,,1,001,2024-08-24_03h59.22.803,IAT(Formal),2021.2.3,Win32,142.8571429,,,,,,,,,,,,,,,,,,,,,,,,,,,,,,,,,,,,,,,,,,,,,,,,,,,,我,i,,,i,1,0.646,0,61,61,50,1,,
,,,,,,,,,,,,,,1,001,2024-08-24_03h59.22.803,IAT(Formal),2021.2.3,Win32,142.8571429,,,,,,,,,,,,,,,,,,,,,,,,,,,,,,,,,,,,,,,,,,,,,,,,,,,,我,i,,,i,1,0.4599,0,62,62,70,1,,
,,,,,,,,,,,,,,1,001,2024-08-24_03h59.22.803,IAT(Formal),2021.2.3,Win32,142.8571429,,,,,,,,,,,,,,,,,,,,,,,,,,,,,,,,,,,,,,,,,,,,,,,,,,,,我,i,,,i,1,0.4724,0,63,63,60,1,,
,,,,,,,,,,,,,,1,001,2024-08-24_03h59.22.803,IAT(Formal),2021.2.3,Win32,142.8571429,,,,,,,,,,,,,,,,,,,,,,,,,,,,,,,,,,,,,,,,,,,,,,,,,,,,轻率,i,,,i,1,0.7025,0,64,64,48,1,,
,,,,,,,,,,,,,,1,001,2024-08-24_03h59.22.803,IAT(Formal),2021.2.3,Win32,142.8571429,,,,,,,,,,,,,,,,,,,,,,,,,,,,,,,,,,,,,,,,,,,,,,,,,,,,细腻,e,,,e,1,0.6471,0,65,65,25,1,,
,,,,,,,,,,,,,,1,001,2024-08-24_03h59.22.803,IAT(Formal),2021.2.3,Win32,142.8571429,,,,,,,,,,,,,,,,,,,,,,,,,,,,,,,,,,,,,,,,,,,,,,,,,,,,愚蠢,i,,,i,1,0.5557,0,66,66,32,1,,
,,,,,,,,,,,,,,1,001,2024-08-24_03h59.22.803,IAT(Formal),2021.2.3,Win32,142.8571429,,,,,,,,,,,,,,,,,,,,,,,,,,,,,,,,,,,,,,,,,,,,,,,,,,,,傲慢,i,,,i,1,0.737,0,67,67,37,1,,
,,,,,,,,,,,,,,1,001,2024-08-24_03h59.22.803,IAT(Formal),2021.2.3,Win32,142.8571429,,,,,,,,,,,,,,,,,,,,,,,,,,,,,,,,,,,,,,,,,,,,,,,,,,,,机智,e,,,e,1,0.5767,0,68,68,19,1,,
,,,,,,,,,,,,,,1,001,2024-08-24_03h59.22.803,IAT(Formal),2021.2.3,Win32,142.8571429,,,,,,,,,,,,,,,,,,,,,,,,,,,,,,,,,,,,,,,,,,,,,,,,,,,,我的,i,,,i,1,0.5627,0,69,69,1,1,,
,,,,,,,,,,,,,,1,001,2024-08-24_03h59.22.803,IAT(Formal),2021.2.3,Win32,142.8571429,,,,,,,,,,,,,,,,,,,,,,,,,,,,,,,,,,,,,,,,,,,,,,,,,,,,他人,e,,,e,1,0.5837,0,70,70,58,1,,
,,,,,,,,,,,,,,1,001,2024-08-24_03h59.22.803,IAT(Formal),2021.2.3,Win32,142.8571429,,,,,,,,,,,,,,,,,,,,,,,,,,,,,,,,,,,,,,,,,,,,,,,,,,,,俺,i,,,e,0,0.5139,0,71,71,64,1,,
,,,,,,,,,,,,,,1,001,2024-08-24_03h59.22.803,IAT(Formal),2021.2.3,Win32,142.8571429,,,,,,,,,,,,,,,,,,,,,,,,,,,,,,,,,,,,,,,,,,,,,,,,,,,,自己,i,,,i,1,0.5477,0,72,72,73,1,,
,,,,,,,,,,,,,,1,001,2024-08-24_03h59.22.803,IAT(Formal),2021.2.3,Win32,142.8571429,,,,,,,,,,,,,,,,,,,,,,,,,,,,,,,,,,,,,,,,,,,,,,,,,,,,我,i,,,i,1,0.4584,0,73,73,0,1,,
,,,,,,,,,,,,,,1,001,2024-08-24_03h59.22.803,IAT(Formal),2021.2.3,Win32,142.8571429,,,,,,,,,,,,,,,,,,,,,,,,,,,,,,,,,,,,,,,,,,,,,,,,,,,,自己,i,,,i,1,0.3959,0,74,74,53,1,,
,,,,,,,,,,,,,,1,001,2024-08-24_03h59.22.803,IAT(Formal),2021.2.3,Win32,142.8571429,,,,,,,,,,,,,,,,,,,,,,,,,,,,,,,,,,,,,,,,,,,,,,,,,,,,卑鄙,i,,,i,1,0.587,0,75,75,30,1,,
,,,,,,,,,,,,,,1,001,2024-08-24_03h59.22.803,IAT(Formal),2021.2.3,Win32,142.8571429,,,,,,,,,,,,,,,,,,,,,,,,,,,,,,,,,,,,,,,,,,,,,,,,,,,,鲁莽,i,,,i,1,0.4794,0,76,76,38,1,,
,,,,,,,,,,,,,,1,001,2024-08-24_03h59.22.803,IAT(Formal),2021.2.3,Win32,142.8571429,,,,,,,,,,,,,,,,,,,,,,,,,,,,,,,,,,,,,,,,,,,,,,,,,,,,热情,e,,,e,1,0.6062,0,77,77,27,1,,
,,,,,,,,,,,,,,1,001,2024-08-24_03h59.22.803,IAT(Formal),2021.2.3,Win32,142.8571429,,,,,,,,,,,,,,,,,,,,,,,,,,,,,,,,,,,,,,,,,,,,,,,,,,,,散漫,i,,,i,1,0.4307,0,78,78,41,1,,
,,,,,,,,,,,,,,1,001,2024-08-24_03h59.22.803,IAT(Formal),2021.2.3,Win32,142.8571429,,,,,,,,,,,,,,,,,,,,,,,,,,,,,,,,,,,,,,,,,,,,,,,,,,,,其他,e,,,i,0,0.9167,0,79,79,59,1,,
,,,,,,,,,,,,,,1,001,2024-08-24_03h59.22.803,IAT(Formal),2021.2.3,Win32,142.8571429,,,,,,,,,,,,,,,,,,,,,,,,,,,,,,,,,,,,,,,,,,,,,,,,,,,,他人,e,,,e,1,0.6269,1,0,80,58,1,,
,,,,,,,,,,,,,,1,001,2024-08-24_03h59.22.803,IAT(Formal),2021.2.3,Win32,142.8571429,,,,,,,,,,,,,,,,,,,,,,,,,,,,,,,,,,,,,,,,,,,,,,,,,,,,他人,e,,,e,1,0.4101,1,1,81,8,1,,
,,,,,,,,,,,,,,1,001,2024-08-24_03h59.22.803,IAT(Formal),2021.2.3,Win32,142.8571429,,,,,,,,,,,,,,,,,,,,,,,,,,,,,,,,,,,,,,,,,,,,,,,,,,,,我,i,,,i,1,0.424,1,2,82,50,1,,
,,,,,,,,,,,,,,1,001,2024-08-24_03h59.22.803,IAT(Formal),2021.2.3,Win32,142.8571429,,,,,,,,,,,,,,,,,,,,,,,,,,,,,,,,,,,,,,,,,,,,,,,,,,,,他的,e,,,e,1,0.4932,1,3,83,67,1,,
,,,,,,,,,,,,,,1,001,2024-08-24_03h59.22.803,IAT(Formal),2021.2.3,Win32,142.8571429,,,,,,,,,,,,,,,,,,,,,,,,,,,,,,,,,,,,,,,,,,,,,,,,,,,,他们,e,,,e,1,0.4751,1,4,84,56,1,,
,,,,,,,,,,,,,,1,001,2024-08-24_03h59.22.803,IAT(Formal),2021.2.3,Win32,142.8571429,,,,,,,,,,,,,,,,,,,,,,,,,,,,,,,,,,,,,,,,,,,,,,,,,,,,卑鄙,i,,,i,1,0.5002,1,5,85,30,1,,
,,,,,,,,,,,,,,1,001,2024-08-24_03h59.22.803,IAT(Formal),2021.2.3,Win32,142.8571429,,,,,,,,,,,,,,,,,,,,,,,,,,,,,,,,,,,,,,,,,,,,,,,,,,,,自己,i,,,i,1,0.5014,1,6,86,73,1,,
,,,,,,,,,,,,,,1,001,2024-08-24_03h59.22.803,IAT(Formal),2021.2.3,Win32,142.8571429,,,,,,,,,,,,,,,,,,,,,,,,,,,,,,,,,,,,,,,,,,,,,,,,,,,,聪明,e,,,i,0,0.4408,1,7,87,12,1,,
,,,,,,,,,,,,,,1,001,2024-08-24_03h59.22.803,IAT(Formal),2021.2.3,Win32,142.8571429,,,,,,,,,,,,,,,,,,,,,,,,,,,,,,,,,,,,,,,,,,,,,,,,,,,,消极,i,,,i,1,0.4677,1,8,88,35,1,,
,,,,,,,,,,,,,,1,001,2024-08-24_03h59.22.803,IAT(Formal),2021.2.3,Win32,142.8571429,,,,,,,,,,,,,,,,,,,,,,,,,,,,,,,,,,,,,,,,,,,,,,,,,,,,他的,e,,,i,0,0.5565,1,9,89,57,1,,
,,,,,,,,,,,,,,1,001,2024-08-24_03h59.22.803,IAT(Formal),2021.2.3,Win32,142.8571429,,,,,,,,,,,,,,,,,,,,,,,,,,,,,,,,,,,,,,,,,,,,,,,,,,,,我,i,,,i,1,0.501,1,10,90,70,1,,
,,,,,,,,,,,,,,1,001,2024-08-24_03h59.22.803,IAT(Formal),2021.2.3,Win32,142.8571429,,,,,,,,,,,,,,,,,,,,,,,,,,,,,,,,,,,,,,,,,,,,,,,,,,,,凶狠,i,,,i,1,0.9235,1,11,91,42,1,,
,,,,,,,,,,,,,,1,001,2024-08-24_03h59.22.803,IAT(Formal),2021.2.3,Win32,142.8571429,,,,,,,,,,,,,,,,,,,,,,,,,,,,,,,,,,,,,,,,,,,,,,,,,,,,自卑,i,,,i,1,0.9519,1,12,92,36,1,,
,,,,,,,,,,,,,,1,001,2024-08-24_03h59.22.803,IAT(Formal),2021.2.3,Win32,142.8571429,,,,,,,,,,,,,,,,,,,,,,,,,,,,,,,,,,,,,,,,,,,,,,,,,,,,俺,i,,,e,0,0.5641,1,13,93,4,1,,
,,,,,,,,,,,,,,1,001,2024-08-24_03h59.22.803,IAT(Formal),2021.2.3,Win32,142.8571429,,,,,,,,,,,,,,,,,,,,,,,,,,,,,,,,,,,,,,,,,,,,,,,,,,,,其他,e,,,e,1,0.7513,1,14,94,59,1,,
,,,,,,,,,,,,,,1,001,2024-08-24_03h59.22.803,IAT(Formal),2021.2.3,Win32,142.8571429,,,,,,,,,,,,,,,,,,,,,,,,,,,,,,,,,,,,,,,,,,,,,,,,,,,,他的,e,,,e,1,0.6804,1,15,95,77,1,,
,,,,,,,,,,,,,,1,001,2024-08-24_03h59.22.803,IAT(Formal),2021.2.3,Win32,142.8571429,,,,,,,,,,,,,,,,,,,,,,,,,,,,,,,,,,,,,,,,,,,,,,,,,,,,公正,e,,,e,1,0.8055,1,16,96,23,1,,
,,,,,,,,,,,,,,1,001,2024-08-24_03h59.22.803,IAT(Formal),2021.2.3,Win32,142.8571429,,,,,,,,,,,,,,,,,,,,,,,,,,,,,,,,,,,,,,,,,,,,,,,,,,,,优秀,e,,,i,0,0.5764,1,17,97,10,1,,
,,,,,,,,,,,,,,1,001,2024-08-24_03h59.22.803,IAT(Formal),2021.2.3,Win32,142.8571429,,,,,,,,,,,,,,,,,,,,,,,,,,,,,,,,,,,,,,,,,,,,,,,,,,,,固执,i,,,i,1,0.4445,1,18,98,47,1,,
,,,,,,,,,,,,,,1,001,2024-08-24_03h59.22.803,IAT(Formal),2021.2.3,Win32,142.8571429,,,,,,,,,,,,,,,,,,,,,,,,,,,,,,,,,,,,,,,,,,,,,,,,,,,,他们,e,,,i,0,0.5488,1,19,99,76,1,,
,,,,,,,,,,,,,,1,001,2024-08-24_03h59.22.803,IAT(Formal),2021.2.3,Win32,142.8571429,,,,,,,,,,,,,,,,,,,,,,,,,,,,,,,,,,,,,,,,,,,,,,,,,,,,自己,i,,,i,1,0.5694,1,20,100,63,1,,
,,,,,,,,,,,,,,1,001,2024-08-24_03h59.22.803,IAT(Formal),2021.2.3,Win32,142.8571429,,,,,,,,,,,,,,,,,,,,,,,,,,,,,,,,,,,,,,,,,,,,,,,,,,,,细腻,e,,,e,1,1.1737,1,21,101,25,1,,
,,,,,,,,,,,,,,1,001,2024-08-24_03h59.22.803,IAT(Formal),2021.2.3,Win32,142.8571429,,,,,,,,,,,,,,,,,,,,,,,,,,,,,,,,,,,,,,,,,,,,,,,,,,,,我们,i,,,e,0,1.0475,1,22,102,72,1,,
,,,,,,,,,,,,,,1,001,2024-08-24_03h59.22.803,IAT(Formal),2021.2.3,Win32,142.8571429,,,,,,,,,,,,,,,,,,,,,,,,,,,,,,,,,,,,,,,,,,,,,,,,,,,,傲慢,i,,,i,1,1.0138,1,23,103,37,1,,
,,,,,,,,,,,,,,1,001,2024-08-24_03h59.22.803,IAT(Formal),2021.2.3,Win32,142.8571429,,,,,,,,,,,,,,,,,,,,,,,,,,,,,,,,,,,,,,,,,,,,,,,,,,,,下贱,i,,,i,1,0.6448,1,24,104,49,1,,
,,,,,,,,,,,,,,1,001,2024-08-24_03h59.22.803,IAT(Formal),2021.2.3,Win32,142.8571429,,,,,,,,,,,,,,,,,,,,,,,,,,,,,,,,,,,,,,,,,,,,,,,,,,,,我,i,,,i,1,0.8889,1,25,105,60,1,,
,,,,,,,,,,,,,,1,001,2024-08-24_03h59.22.803,IAT(Formal),2021.2.3,Win32,142.8571429,,,,,,,,,,,,,,,,,,,,,,,,,,,,,,,,,,,,,,,,,,,,,,,,,,,,热情,e,,,i,0,0.6677,1,26,106,27,1,,
,,,,,,,,,,,,,,1,001,2024-08-24_03h59.22.803,IAT(Formal),2021.2.3,Win32,142.8571429,,,,,,,,,,,,,,,,,,,,,,,,,,,,,,,,,,,,,,,,,,,,,,,,,,,,散漫,i,,,i,1,0.6739,1,27,107,41,1,,
,,,,,,,,,,,,,,1,001,2024-08-24_03h59.22.803,IAT(Formal),2021.2.3,Win32,142.8571429,,,,,,,,,,,,,,,,,,,,,,,,,,,,,,,,,,,,,,,,,,,,,,,,,,,,他人,e,,,i,0,0.4869,1,28,108,68,1,,
,,,,,,,,,,,,,,1,001,2024-08-24_03h59.22.803,IAT(Formal),2021.2.3,Win32,142.8571429,,,,,,,,,,,,,,,,,,,,,,,,,,,,,,,,,,,,,,,,,,,,,,,,,,,,其他,e,,,e,1,0.6245,1,29,109,9,1,,
,,,,,,,,,,,,,,1,001,2024-08-24_03h59.22.803,IAT(Formal),2021.2.3,Win32,142.8571429,,,,,,,,,,,,,,,,,,,,,,,,,,,,,,,,,,,,,,,,,,,,,,,,,,,,猖狂,i,,,i,1,0.7456,1,30,110,45,1,,
,,,,,,,,,,,,,,1,001,2024-08-24_03h59.22.803,IAT(Formal),2021.2.3,Win32,142.8571429,,,,,,,,,,,,,,,,,,,,,,,,,,,,,,,,,,,,,,,,,,,,,,,,,,,,活泼,e,,,e,1,0.7361,1,31,111,28,1,,
,,,,,,,,,,,,,,1,001,2024-08-24_03h59.22.803,IAT(Formal),2021.2.3,Win32,142.8571429,,,,,,,,,,,,,,,,,,,,,,,,,,,,,,,,,,,,,,,,,,,,,,,,,,,,我,i,,,i,1,1.0972,1,32,112,0,1,,
,,,,,,,,,,,,,,1,001,2024-08-24_03h59.22.803,IAT(Formal),2021.2.3,Win32,142.8571429,,,,,,,,,,,,,,,,,,,,,,,,,,,,,,,,,,,,,,,,,,,,,,,,,,,,勤奋,e,,,e,1,0.6529,1,33,113,18,1,,
,,,,,,,,,,,,,,1,001,2024-08-24_03h59.22.803,IAT(Formal),2021.2.3,Win32,142.8571429,,,,,,,,,,,,,,,,,,,,,,,,,,,,,,,,,,,,,,,,,,,,,,,,,,,,我的,i,,,e,0,0.7431,1,34,114,1,1,,
,,,,,,,,,,,,,,1,001,2024-08-24_03h59.22.803,IAT(Formal),2021.2.3,Win32,142.8571429,,,,,,,,,,,,,,,,,,,,,,,,,,,,,,,,,,,,,,,,,,,,,,,,,,,,其他,e,,,e,1,0.5753,1,35,115,79,1,,
,,,,,,,,,,,,,,1,001,2024-08-24_03h59.22.803,IAT(Formal),2021.2.3,Win32,142.8571429,,,,,,,,,,,,,,,,,,,,,,,,,,,,,,,,,,,,,,,,,,,,,,,,,,,,俺,i,,,i,1,0.6805,1,36,116,64,1,,
,,,,,,,,,,,,,,1,001,2024-08-24_03h59.22.803,IAT(Formal),2021.2.3,Win32,142.8571429,,,,,,,,,,,,,,,,,,,,,,,,,,,,,,,,,,,,,,,,,,,,,,,,,,,,他的,e,,,e,1,0.6548,1,37,117,7,1,,
,,,,,,,,,,,,,,1,001,2024-08-24_03h59.22.803,IAT(Formal),2021.2.3,Win32,142.8571429,,,,,,,,,,,,,,,,,,,,,,,,,,,,,,,,,,,,,,,,,,,,,,,,,,,,他,e,,,e,1,0.5442,1,38,118,5,1,,
,,,,,,,,,,,,,,1,001,2024-08-24_03h59.22.803,IAT(Formal),2021.2.3,Win32,142.8571429,,,,,,,,,,,,,,,,,,,,,,,,,,,,,,,,,,,,,,,,,,,,,,,,,,,,刻薄,i,,,i,1,0.889,1,39,119,33,1,,
,,,,,,,,,,,,,,1,001,2024-08-24_03h59.22.803,IAT(Formal),2021.2.3,Win32,142.8571429,,,,,,,,,,,,,,,,,,,,,,,,,,,,,,,,,,,,,,,,,,,,,,,,,,,,自私,i,,,i,1,0.5999,1,40,120,43,1,,
,,,,,,,,,,,,,,1,001,2024-08-24_03h59.22.803,IAT(Formal),2021.2.3,Win32,142.8571429,,,,,,,,,,,,,,,,,,,,,,,,,,,,,,,,,,,,,,,,,,,,,,,,,,,,稳重,e,,,e,1,0.6388,1,41,121,21,1,,
,,,,,,,,,,,,,,1,001,2024-08-24_03h59.22.803,IAT(Formal),2021.2.3,Win32,142.8571429,,,,,,,,,,,,,,,,,,,,,,,,,,,,,,,,,,,,,,,,,,,,,,,,,,,,他,e,,,e,1,0.9536,1,42,122,75,1,,
,,,,,,,,,,,,,,1,001,2024-08-24_03h59.22.803,IAT(Formal),2021.2.3,Win32,142.8571429,,,,,,,,,,,,,,,,,,,,,,,,,,,,,,,,,,,,,,,,,,,,,,,,,,,,他们,e,,,e,1,0.5197,1,43,123,6,1,,
,,,,,,,,,,,,,,1,001,2024-08-24_03h59.22.803,IAT(Formal),2021.2.3,Win32,142.8571429,,,,,,,,,,,,,,,,,,,,,,,,,,,,,,,,,,,,,,,,,,,,,,,,,,,,我的,i,,,i,1,0.5686,1,44,124,61,1,,
,,,,,,,,,,,,,,1,001,2024-08-24_03h59.22.803,IAT(Formal),2021.2.3,Win32,142.8571429,,,,,,,,,,,,,,,,,,,,,,,,,,,,,,,,,,,,,,,,,,,,,,,,,,,,野蛮,i,,,i,1,0.7154,1,45,125,46,1,,
,,,,,,,,,,,,,,1,001,2024-08-24_03h59.22.803,IAT(Formal),2021.2.3,Win32,142.8571429,,,,,,,,,,,,,,,,,,,,,,,,,,,,,,,,,,,,,,,,,,,,,,,,,,,,暴躁,i,,,i,1,0.4591,1,46,126,44,1,,
,,,,,,,,,,,,,,1,001,2024-08-24_03h59.22.803,IAT(Formal),2021.2.3,Win32,142.8571429,,,,,,,,,,,,,,,,,,,,,,,,,,,,,,,,,,,,,,,,,,,,,,,,,,,,俺,i,,,i,1,0.5763,1,47,127,54,1,,
,,,,,,,,,,,,,,1,001,2024-08-24_03h59.22.803,IAT(Formal),2021.2.3,Win32,142.8571429,,,,,,,,,,,,,,,,,,,,,,,,,,,,,,,,,,,,,,,,,,,,,,,,,,,,他,e,,,i,0,0.5023,1,48,128,65,1,,
,,,,,,,,,,,,,,1,001,2024-08-24_03h59.22.803,IAT(Formal),2021.2.3,Win32,142.8571429,,,,,,,,,,,,,,,,,,,,,,,,,,,,,,,,,,,,,,,,,,,,,,,,,,,,自己,i,,,i,1,0.4722,1,49,129,3,1,,
,,,,,,,,,,,,,,1,001,2024-08-24_03h59.22.803,IAT(Formal),2021.2.3,Win32,142.8571429,,,,,,,,,,,,,,,,,,,,,,,,,,,,,,,,,,,,,,,,,,,,,,,,,,,,执拗,i,,,i,1,0.5487,1,50,130,40,1,,
,,,,,,,,,,,,,,1,001,2024-08-24_03h59.22.803,IAT(Formal),2021.2.3,Win32,142.8571429,,,,,,,,,,,,,,,,,,,,,,,,,,,,,,,,,,,,,,,,,,,,,,,,,,,,我们,i,,,i,1,0.4466,1,51,131,62,1,,
,,,,,,,,,,,,,,1,001,2024-08-24_03h59.22.803,IAT(Formal),2021.2.3,Win32,142.8571429,,,,,,,,,,,,,,,,,,,,,,,,,,,,,,,,,,,,,,,,,,,,,,,,,,,,他人,e,,,e,1,0.5973,1,52,132,78,1,,
,,,,,,,,,,,,,,1,001,2024-08-24_03h59.22.803,IAT(Formal),2021.2.3,Win32,142.8571429,,,,,,,,,,,,,,,,,,,,,,,,,,,,,,,,,,,,,,,,,,,,,,,,,,,,我的,i,,,i,1,0.4931,1,53,133,71,1,,
,,,,,,,,,,,,,,1,001,2024-08-24_03h59.22.803,IAT(Formal),2021.2.3,Win32,142.8571429,,,,,,,,,,,,,,,,,,,,,,,,,,,,,,,,,,,,,,,,,,,,,,,,,,,,冷静,e,,,i,0,0.6693,1,54,134,26,1,,
,,,,,,,,,,,,,,1,001,2024-08-24_03h59.22.803,IAT(Formal),2021.2.3,Win32,142.8571429,,,,,,,,,,,,,,,,,,,,,,,,,,,,,,,,,,,,,,,,,,,,,,,,,,,,诚实,e,,,e,1,0.9596,1,55,135,15,1,,
,,,,,,,,,,,,,,1,001,2024-08-24_03h59.22.803,IAT(Formal),2021.2.3,Win32,142.8571429,,,,,,,,,,,,,,,,,,,,,,,,,,,,,,,,,,,,,,,,,,,,,,,,,,,,诚恳,e,,,e,1,0.4793,1,56,136,29,1,,
,,,,,,,,,,,,,,1,001,2024-08-24_03h59.22.803,IAT(Formal),2021.2.3,Win32,142.8571429,,,,,,,,,,,,,,,,,,,,,,,,,,,,,,,,,,,,,,,,,,,,,,,,,,,,我的,i,,,e,0,0.6255,1,57,137,51,1,,
,,,,,,,,,,,,,,1,001,2024-08-24_03h59.22.803,IAT(Formal),2021.2.3,Win32,142.8571429,,,,,,,,,,,,,,,,,,,,,,,,,,,,,,,,,,,,,,,,,,,,,,,,,,,,鲁莽,i,,,i,1,0.5558,1,58,138,38,1,,
,,,,,,,,,,,,,,1,001,2024-08-24_03h59.22.803,IAT(Formal),2021.2.3,Win32,142.8571429,,,,,,,,,,,,,,,,,,,,,,,,,,,,,,,,,,,,,,,,,,,,,,,,,,,,自己,i,,,i,1,0.4168,1,59,139,53,1,,
,,,,,,,,,,,,,,1,001,2024-08-24_03h59.22.803,IAT(Formal),2021.2.3,Win32,142.8571429,,,,,,,,,,,,,,,,,,,,,,,,,,,,,,,,,,,,,,,,,,,,,,,,,,,,杰出,e,,,e,1,0.6182,1,60,140,13,1,,
,,,,,,,,,,,,,,1,001,2024-08-24_03h59.22.803,IAT(Formal),2021.2.3,Win32,142.8571429,,,,,,,,,,,,,,,,,,,,,,,,,,,,,,,,,,,,,,,,,,,,,,,,,,,,朴实,e,,,i,0,0.6669,1,61,141,24,1,,
,,,,,,,,,,,,,,1,001,2024-08-24_03h59.22.803,IAT(Formal),2021.2.3,Win32,142.8571429,,,,,,,,,,,,,,,,,,,,,,,,,,,,,,,,,,,,,,,,,,,,,,,,,,,,他,e,,,e,1,0.6034,1,62,142,55,1,,
,,,,,,,,,,,,,,1,001,2024-08-24_03h59.22.803,IAT(Formal),2021.2.3,Win32,142.8571429,,,,,,,,,,,,,,,,,,,,,,,,,,,,,,,,,,,,,,,,,,,,,,,,,,,,愚蠢,i,,,i,1,0.5765,1,63,143,32,1,,
,,,,,,,,,,,,,,1,001,2024-08-24_03h59.22.803,IAT(Formal),2021.2.3,Win32,142.8571429,,,,,,,,,,,,,,,,,,,,,,,,,,,,,,,,,,,,,,,,,,,,,,,,,,,,他们,e,,,i,0,1.028,1,64,144,66,1,,
,,,,,,,,,,,,,,1,001,2024-08-24_03h59.22.803,IAT(Formal),2021.2.3,Win32,142.8571429,,,,,,,,,,,,,,,,,,,,,,,,,,,,,,,,,,,,,,,,,,,,,,,,,,,,我们,i,,,i,1,0.4177,1,65,145,52,1,,
,,,,,,,,,,,,,,1,001,2024-08-24_03h59.22.803,IAT(Formal),2021.2.3,Win32,142.8571429,,,,,,,,,,,,,,,,,,,,,,,,,,,,,,,,,,,,,,,,,,,,,,,,,,,,认真,e,,,e,1,0.5546,1,66,146,20,1,,
,,,,,,,,,,,,,,1,001,2024-08-24_03h59.22.803,IAT(Formal),2021.2.3,Win32,142.8571429,,,,,,,,,,,,,,,,,,,,,,,,,,,,,,,,,,,,,,,,,,,,,,,,,,,,无私,e,,,e,1,0.7435,1,67,147,22,1,,
,,,,,,,,,,,,,,1,001,2024-08-24_03h59.22.803,IAT(Formal),2021.2.3,Win32,142.8571429,,,,,,,,,,,,,,,,,,,,,,,,,,,,,,,,,,,,,,,,,,,,,,,,,,,,机智,e,,,e,1,0.5701,1,68,148,19,1,,
,,,,,,,,,,,,,,1,001,2024-08-24_03h59.22.803,IAT(Formal),2021.2.3,Win32,142.8571429,,,,,,,,,,,,,,,,,,,,,,,,,,,,,,,,,,,,,,,,,,,,,,,,,,,,悲观,i,,,i,1,0.6407,1,69,149,34,1,,
,,,,,,,,,,,,,,1,001,2024-08-24_03h59.22.803,IAT(Formal),2021.2.3,Win32,142.8571429,,,,,,,,,,,,,,,,,,,,,,,,,,,,,,,,,,,,,,,,,,,,,,,,,,,,乐观,e,,,e,1,0.4999,1,70,150,14,1,,
,,,,,,,,,,,,,,1,001,2024-08-24_03h59.22.803,IAT(Formal),2021.2.3,Win32,142.8571429,,,,,,,,,,,,,,,,,,,,,,,,,,,,,,,,,,,,,,,,,,,,,,,,,,,,其他,e,,,e,1,0.5364,1,71,151,69,1,,
,,,,,,,,,,,,,,1,001,2024-08-24_03h59.22.803,IAT(Formal),2021.2.3,Win32,142.8571429,,,,,,,,,,,,,,,,,,,,,,,,,,,,,,,,,,,,,,,,,,,,,,,,,,,,崇高,e,,,e,1,1.0907,1,72,152,11,1,,
,,,,,,,,,,,,,,1,001,2024-08-24_03h59.22.803,IAT(Formal),2021.2.3,Win32,142.8571429,,,,,,,,,,,,,,,,,,,,,,,,,,,,,,,,,,,,,,,,,,,,,,,,,,,,我们,i,,,e,0,0.5556,1,73,153,2,1,,
,,,,,,,,,,,,,,1,001,2024-08-24_03h59.22.803,IAT(Formal),2021.2.3,Win32,142.8571429,,,,,,,,,,,,,,,,,,,,,,,,,,,,,,,,,,,,,,,,,,,,,,,,,,,,勇敢,e,,,e,1,0.7314,1,74,154,17,1,,
,,,,,,,,,,,,,,1,001,2024-08-24_03h59.22.803,IAT(Formal),2021.2.3,Win32,142.8571429,,,,,,,,,,,,,,,,,,,,,,,,,,,,,,,,,,,,,,,,,,,,,,,,,,,,正直,e,,,e,1,1.1109,1,75,155,16,1,,
,,,,,,,,,,,,,,1,001,2024-08-24_03h59.22.803,IAT(Formal),2021.2.3,Win32,142.8571429,,,,,,,,,,,,,,,,,,,,,,,,,,,,,,,,,,,,,,,,,,,,,,,,,,,,轻率,i,,,i,1,0.6947,1,76,156,48,1,,
,,,,,,,,,,,,,,1,001,2024-08-24_03h59.22.803,IAT(Formal),2021.2.3,Win32,142.8571429,,,,,,,,,,,,,,,,,,,,,,,,,,,,,,,,,,,,,,,,,,,,,,,,,,,,虚伪,i,,,i,1,0.6805,1,77,157,31,1,,
,,,,,,,,,,,,,,1,001,2024-08-24_03h59.22.803,IAT(Formal),2021.2.3,Win32,142.8571429,,,,,,,,,,,,,,,,,,,,,,,,,,,,,,,,,,,,,,,,,,,,,,,,,,,,俺,i,,,i,1,0.5151,1,78,158,74,1,,
,,,,,,,,,,,,,,1,001,2024-08-24_03h59.22.803,IAT(Formal),2021.2.3,Win32,142.8571429,,,,,,,,,,,,,,,,,,,,,,,,,,,,,,,,,,,,,,,,,,,,,,,,,,,,冒失,i,,,i,1,0.5546,1,79,159,39,1,,
,,,,,,,,,,,,,,1,001,2024-08-24_03h59.22.803,IAT(Formal),2021.2.3,Win32,142.8571429,,,,,,,,,,,,,,,,,,,,,,,,,,,,,,,,,,,,,,,,,,,,,,,,,,,,,,,,,,,,,,,,space,0.837