"X.Instruction1.keys","Instruction1.rt","Instruction2.keys","Instruction2.rt","key_resp_iso.keys","key_resp_iso.corr","key_resp_iso.rt","Practice_01.thisRepN","Practice_01.thisTrialN","Practice_01.thisN","Practice_01.thisIndex","Practice_01.ran","Words","ans","participant","session","date","expName","psychopyVersion","OS","frameRate","key_resp_3.keys","key_resp_3.rt","key_resp_ipn.keys","key_resp_ipn.corr","key_resp_ipn.rt","Practice_02.thisRepN","Practice_02.thisTrialN","Practice_02.thisN","Practice_02.thisIndex","Practice_02.ran","Words_ipn","ans_ipn","key_resp_4.keys","key_resp_4.rt","key_resp_t1.keys","key_resp_t1.corr","key_resp_t1.rt","Practice_T1.thisRepN","Practice_T1.thisTrialN","Practice_T1.thisN","Practice_T1.thisIndex","Practice_T1.ran","Words_t1","ans_t1","key_resp_5.keys","key_resp_5.rt","Formal_T1.thisRepN","Formal_T1.thisTrialN","Formal_T1.thisN","Formal_T1.thisIndex","Formal_T1.ran","key_resp_6.keys","key_resp_6.rt","key_resp_iso_reverse.keys","key_resp_iso_reverse.corr","key_resp_iso_reverse.rt","Practice_iso_Reverse.thisRepN","Practice_iso_Reverse.thisTrialN","Practice_iso_Reverse.thisN","Practice_iso_Reverse.thisIndex","Practice_iso_Reverse.ran","key_resp_7.keys","key_resp_7.rt","key_resp_t2_Practice.keys","key_resp_t2_Practice.corr","key_resp_t2_Practice.rt","Practice_t2_Reverse.thisRepN","Practice_t2_Reverse.thisTrialN","Practice_t2_Reverse.thisN","Practice_t2_Reverse.thisIndex","Practice_t2_Reverse.ran","Words_t2","ans_t2","key_resp_8.keys","key_resp_8.rt","key_resp_t2.keys","key_resp_t2.corr","key_resp_t2.rt","Formal_t2_reverse.thisRepN","Formal_t2_reverse.thisTrialN","Formal_t2_reverse.thisN","Formal_t2_reverse.thisIndex","Formal_t2_reverse.ran","key_instruct.keys","key_instruct.rt","Subject"
"space",4.2799,"space",6.461,"e",1,0.6059,0,0,0,1,1,"我的","e",1,1,"2024-08-24_03h59.22.803","IAT(Formal)","2021.2.3","Win32",142.8571429,"",NA,"",NA,NA,NA,NA,NA,NA,NA,"","","",NA,"",NA,NA,NA,NA,NA,NA,NA,"","","",NA,NA,NA,NA,NA,NA,"",NA,"",NA,NA,NA,NA,NA,NA,NA,"",NA,"",NA,NA,NA,NA,NA,NA,NA,"","","",NA,"",NA,NA,NA,NA,NA,NA,NA,"",NA,"20"
"",NA,"",NA,"i",1,0.5638,0,1,1,5,1,"他","i",1,1,"2024-08-24_03h59.22.803","IAT(Formal)","2021.2.3","Win32",142.8571429,"",NA,"",NA,NA,NA,NA,NA,NA,NA,"","","",NA,"",NA,NA,NA,NA,NA,NA,NA,"","","",NA,NA,NA,NA,NA,NA,"",NA,"",NA,NA,NA,NA,NA,NA,NA,"",NA,"",NA,NA,NA,NA,NA,NA,NA,"","","",NA,"",NA,NA,NA,NA,NA,NA,NA,"",NA,"20"
"",NA,"",NA,"i",1,0.4446,0,2,2,8,1,"他人","i",1,1,"2024-08-24_03h59.22.803","IAT(Formal)","2021.2.3","Win32",142.8571429,"",NA,"",NA,NA,NA,NA,NA,NA,NA,"","","",NA,"",NA,NA,NA,NA,NA,NA,NA,"","","",NA,NA,NA,NA,NA,NA,"",NA,"",NA,NA,NA,NA,NA,NA,NA,"",NA,"",NA,NA,NA,NA,NA,NA,NA,"","","",NA,"",NA,NA,NA,NA,NA,NA,NA,"",NA,"20"
"",NA,"",NA,"e",1,0.3981,0,3,3,0,1,"我","e",1,1,"2024-08-24_03h59.22.803","IAT(Formal)","2021.2.3","Win32",142.8571429,"",NA,"",NA,NA,NA,NA,NA,NA,NA,"","","",NA,"",NA,NA,NA,NA,NA,NA,NA,"","","",NA,NA,NA,NA,NA,NA,"",NA,"",NA,NA,NA,NA,NA,NA,NA,"",NA,"",NA,NA,NA,NA,NA,NA,NA,"","","",NA,"",NA,NA,NA,NA,NA,NA,NA,"",NA,"20"
"",NA,"",NA,"e",1,0.4665,0,4,4,2,1,"我们","e",1,1,"2024-08-24_03h59.22.803","IAT(Formal)","2021.2.3","Win32",142.8571429,"",NA,"",NA,NA,NA,NA,NA,NA,NA,"","","",NA,"",NA,NA,NA,NA,NA,NA,NA,"","","",NA,NA,NA,NA,NA,NA,"",NA,"",NA,NA,NA,NA,NA,NA,NA,"",NA,"",NA,NA,NA,NA,NA,NA,NA,"","","",NA,"",NA,NA,NA,NA,NA,NA,NA,"",NA,"20"
"",NA,"",NA,"i",1,0.5347,0,5,5,7,1,"他的","i",1,1,"2024-08-24_03h59.22.803","IAT(Formal)","2021.2.3","Win32",142.8571429,"",NA,"",NA,NA,NA,NA,NA,NA,NA,"","","",NA,"",NA,NA,NA,NA,NA,NA,NA,"","","",NA,NA,NA,NA,NA,NA,"",NA,"",NA,NA,NA,NA,NA,NA,NA,"",NA,"",NA,NA,NA,NA,NA,NA,NA,"","","",NA,"",NA,NA,NA,NA,NA,NA,NA,"",NA,"20"
"",NA,"",NA,"i",0,0.6935,0,6,6,4,1,"俺","e",1,1,"2024-08-24_03h59.22.803","IAT(Formal)","2021.2.3","Win32",142.8571429,"",NA,"",NA,NA,NA,NA,NA,NA,NA,"","","",NA,"",NA,NA,NA,NA,NA,NA,NA,"","","",NA,NA,NA,NA,NA,NA,"",NA,"",NA,NA,NA,NA,NA,NA,NA,"",NA,"",NA,NA,NA,NA,NA,NA,NA,"","","",NA,"",NA,NA,NA,NA,NA,NA,NA,"",NA,"20"
"",NA,"",NA,"i",1,0.4654,0,7,7,6,1,"他们","i",1,1,"2024-08-24_03h59.22.803","IAT(Formal)","2021.2.3","Win32",142.8571429,"",NA,"",NA,NA,NA,NA,NA,NA,NA,"","","",NA,"",NA,NA,NA,NA,NA,NA,NA,"","","",NA,NA,NA,NA,NA,NA,"",NA,"",NA,NA,NA,NA,NA,NA,NA,"",NA,"",NA,NA,NA,NA,NA,NA,NA,"","","",NA,"",NA,NA,NA,NA,NA,NA,NA,"",NA,"20"
"",NA,"",NA,"i",1,0.4792,0,8,8,9,1,"其他","i",1,1,"2024-08-24_03h59.22.803","IAT(Formal)","2021.2.3","Win32",142.8571429,"",NA,"",NA,NA,NA,NA,NA,NA,NA,"","","",NA,"",NA,NA,NA,NA,NA,NA,NA,"","","",NA,NA,NA,NA,NA,NA,"",NA,"",NA,NA,NA,NA,NA,NA,NA,"",NA,"",NA,NA,NA,NA,NA,NA,NA,"","","",NA,"",NA,NA,NA,NA,NA,NA,NA,"",NA,"20"
"",NA,"",NA,"e",1,0.5207,0,9,9,3,1,"自己","e",1,1,"2024-08-24_03h59.22.803","IAT(Formal)","2021.2.3","Win32",142.8571429,"",NA,"",NA,NA,NA,NA,NA,NA,NA,"","","",NA,"",NA,NA,NA,NA,NA,NA,NA,"","","",NA,NA,NA,NA,NA,NA,"",NA,"",NA,NA,NA,NA,NA,NA,NA,"",NA,"",NA,NA,NA,NA,NA,NA,NA,"","","",NA,"",NA,NA,NA,NA,NA,NA,NA,"",NA,"20"
"",NA,"",NA,"",NA,NA,NA,NA,NA,NA,NA,"","",1,1,"2024-08-24_03h59.22.803","IAT(Formal)","2021.2.3","Win32",142.8571429,"space",25.816,"i",1,0.642,0,0,0,30,1,"执拗","i","",NA,"",NA,NA,NA,NA,NA,NA,NA,"","","",NA,NA,NA,NA,NA,NA,"",NA,"",NA,NA,NA,NA,NA,NA,NA,"",NA,"",NA,NA,NA,NA,NA,NA,NA,"","","",NA,"",NA,NA,NA,NA,NA,NA,NA,"",NA,"20"
"",NA,"",NA,"",NA,NA,NA,NA,NA,NA,NA,"","",1,1,"2024-08-24_03h59.22.803","IAT(Formal)","2021.2.3","Win32",142.8571429,"",NA,"i",1,0.5217,0,1,1,38,1,"轻率","i","",NA,"",NA,NA,NA,NA,NA,NA,NA,"","","",NA,NA,NA,NA,NA,NA,"",NA,"",NA,NA,NA,NA,NA,NA,NA,"",NA,"",NA,NA,NA,NA,NA,NA,NA,"","","",NA,"",NA,NA,NA,NA,NA,NA,NA,"",NA,"20"
"",NA,"",NA,"",NA,NA,NA,NA,NA,NA,NA,"","",1,1,"2024-08-24_03h59.22.803","IAT(Formal)","2021.2.3","Win32",142.8571429,"",NA,"e",1,0.9854,0,2,2,15,1,"细腻","e","",NA,"",NA,NA,NA,NA,NA,NA,NA,"","","",NA,NA,NA,NA,NA,NA,"",NA,"",NA,NA,NA,NA,NA,NA,NA,"",NA,"",NA,NA,NA,NA,NA,NA,NA,"","","",NA,"",NA,NA,NA,NA,NA,NA,NA,"",NA,"20"
"",NA,"",NA,"",NA,NA,NA,NA,NA,NA,NA,"","",1,1,"2024-08-24_03h59.22.803","IAT(Formal)","2021.2.3","Win32",142.8571429,"",NA,"e",1,0.4135,0,3,3,10,1,"认真","e","",NA,"",NA,NA,NA,NA,NA,NA,NA,"","","",NA,NA,NA,NA,NA,NA,"",NA,"",NA,NA,NA,NA,NA,NA,NA,"",NA,"",NA,NA,NA,NA,NA,NA,NA,"","","",NA,"",NA,NA,NA,NA,NA,NA,NA,"",NA,"20"
"",NA,"",NA,"",NA,NA,NA,NA,NA,NA,NA,"","",1,1,"2024-08-24_03h59.22.803","IAT(Formal)","2021.2.3","Win32",142.8571429,"",NA,"e",1,0.4656,0,4,4,4,1,"乐观","e","",NA,"",NA,NA,NA,NA,NA,NA,NA,"","","",NA,NA,NA,NA,NA,NA,"",NA,"",NA,NA,NA,NA,NA,NA,NA,"",NA,"",NA,NA,NA,NA,NA,NA,NA,"","","",NA,"",NA,NA,NA,NA,NA,NA,NA,"",NA,"20"
"",NA,"",NA,"",NA,NA,NA,NA,NA,NA,NA,"","",1,1,"2024-08-24_03h59.22.803","IAT(Formal)","2021.2.3","Win32",142.8571429,"",NA,"e",1,0.5873,0,5,5,11,1,"稳重","e","",NA,"",NA,NA,NA,NA,NA,NA,NA,"","","",NA,NA,NA,NA,NA,NA,"",NA,"",NA,NA,NA,NA,NA,NA,NA,"",NA,"",NA,NA,NA,NA,NA,NA,NA,"","","",NA,"",NA,NA,NA,NA,NA,NA,NA,"",NA,"20"
"",NA,"",NA,"",NA,NA,NA,NA,NA,NA,NA,"","",1,1,"2024-08-24_03h59.22.803","IAT(Formal)","2021.2.3","Win32",142.8571429,"",NA,"i",1,0.4517,0,6,6,34,1,"暴躁","i","",NA,"",NA,NA,NA,NA,NA,NA,NA,"","","",NA,NA,NA,NA,NA,NA,"",NA,"",NA,NA,NA,NA,NA,NA,NA,"",NA,"",NA,NA,NA,NA,NA,NA,NA,"","","",NA,"",NA,NA,NA,NA,NA,NA,NA,"",NA,"20"
"",NA,"",NA,"",NA,NA,NA,NA,NA,NA,NA,"","",1,1,"2024-08-24_03h59.22.803","IAT(Formal)","2021.2.3","Win32",142.8571429,"",NA,"i",1,0.3894,0,7,7,37,1,"固执","i","",NA,"",NA,NA,NA,NA,NA,NA,NA,"","","",NA,NA,NA,NA,NA,NA,"",NA,"",NA,NA,NA,NA,NA,NA,NA,"",NA,"",NA,NA,NA,NA,NA,NA,NA,"","","",NA,"",NA,NA,NA,NA,NA,NA,NA,"",NA,"20"
"",NA,"",NA,"",NA,NA,NA,NA,NA,NA,NA,"","",1,1,"2024-08-24_03h59.22.803","IAT(Formal)","2021.2.3","Win32",142.8571429,"",NA,"i",1,0.404,0,8,8,33,1,"自私","i","",NA,"",NA,NA,NA,NA,NA,NA,NA,"","","",NA,NA,NA,NA,NA,NA,"",NA,"",NA,NA,NA,NA,NA,NA,NA,"",NA,"",NA,NA,NA,NA,NA,NA,NA,"","","",NA,"",NA,NA,NA,NA,NA,NA,NA,"",NA,"20"
"",NA,"",NA,"",NA,NA,NA,NA,NA,NA,NA,"","",1,1,"2024-08-24_03h59.22.803","IAT(Formal)","2021.2.3","Win32",142.8571429,"",NA,"e",1,0.4046,0,9,9,2,1,"聪明","e","",NA,"",NA,NA,NA,NA,NA,NA,NA,"","","",NA,NA,NA,NA,NA,NA,"",NA,"",NA,NA,NA,NA,NA,NA,NA,"",NA,"",NA,NA,NA,NA,NA,NA,NA,"","","",NA,"",NA,NA,NA,NA,NA,NA,NA,"",NA,"20"
"",NA,"",NA,"",NA,NA,NA,NA,NA,NA,NA,"","",1,1,"2024-08-24_03h59.22.803","IAT(Formal)","2021.2.3","Win32",142.8571429,"",NA,"i",1,0.5834,0,10,10,23,1,"刻薄","i","",NA,"",NA,NA,NA,NA,NA,NA,NA,"","","",NA,NA,NA,NA,NA,NA,"",NA,"",NA,NA,NA,NA,NA,NA,NA,"",NA,"",NA,NA,NA,NA,NA,NA,NA,"","","",NA,"",NA,NA,NA,NA,NA,NA,NA,"",NA,"20"
"",NA,"",NA,"",NA,NA,NA,NA,NA,NA,NA,"","",1,1,"2024-08-24_03h59.22.803","IAT(Formal)","2021.2.3","Win32",142.8571429,"",NA,"e",1,0.5699,0,11,11,1,1,"崇高","e","",NA,"",NA,NA,NA,NA,NA,NA,NA,"","","",NA,NA,NA,NA,NA,NA,"",NA,"",NA,NA,NA,NA,NA,NA,NA,"",NA,"",NA,NA,NA,NA,NA,NA,NA,"","","",NA,"",NA,NA,NA,NA,NA,NA,NA,"",NA,"20"
"",NA,"",NA,"",NA,NA,NA,NA,NA,NA,NA,"","",1,1,"2024-08-24_03h59.22.803","IAT(Formal)","2021.2.3","Win32",142.8571429,"",NA,"i",1,0.4958,0,12,12,27,1,"傲慢","i","",NA,"",NA,NA,NA,NA,NA,NA,NA,"","","",NA,NA,NA,NA,NA,NA,"",NA,"",NA,NA,NA,NA,NA,NA,NA,"",NA,"",NA,NA,NA,NA,NA,NA,NA,"","","",NA,"",NA,NA,NA,NA,NA,NA,NA,"",NA,"20"
"",NA,"",NA,"",NA,NA,NA,NA,NA,NA,NA,"","",1,1,"2024-08-24_03h59.22.803","IAT(Formal)","2021.2.3","Win32",142.8571429,"",NA,"i",1,0.4116,0,13,13,22,1,"愚蠢","i","",NA,"",NA,NA,NA,NA,NA,NA,NA,"","","",NA,NA,NA,NA,NA,NA,"",NA,"",NA,NA,NA,NA,NA,NA,NA,"",NA,"",NA,NA,NA,NA,NA,NA,NA,"","","",NA,"",NA,NA,NA,NA,NA,NA,NA,"",NA,"20"
"",NA,"",NA,"",NA,NA,NA,NA,NA,NA,NA,"","",1,1,"2024-08-24_03h59.22.803","IAT(Formal)","2021.2.3","Win32",142.8571429,"",NA,"e",1,0.509,0,14,14,5,1,"诚实","e","",NA,"",NA,NA,NA,NA,NA,NA,NA,"","","",NA,NA,NA,NA,NA,NA,"",NA,"",NA,NA,NA,NA,NA,NA,NA,"",NA,"",NA,NA,NA,NA,NA,NA,NA,"","","",NA,"",NA,NA,NA,NA,NA,NA,NA,"",NA,"20"
"",NA,"",NA,"",NA,NA,NA,NA,NA,NA,NA,"","",1,1,"2024-08-24_03h59.22.803","IAT(Formal)","2021.2.3","Win32",142.8571429,"",NA,"i",1,0.4239,0,15,15,25,1,"消极","i","",NA,"",NA,NA,NA,NA,NA,NA,NA,"","","",NA,NA,NA,NA,NA,NA,"",NA,"",NA,NA,NA,NA,NA,NA,NA,"",NA,"",NA,NA,NA,NA,NA,NA,NA,"","","",NA,"",NA,NA,NA,NA,NA,NA,NA,"",NA,"20"
"",NA,"",NA,"",NA,NA,NA,NA,NA,NA,NA,"","",1,1,"2024-08-24_03h59.22.803","IAT(Formal)","2021.2.3","Win32",142.8571429,"",NA,"e",1,0.5902,0,16,16,0,1,"优秀","e","",NA,"",NA,NA,NA,NA,NA,NA,NA,"","","",NA,NA,NA,NA,NA,NA,"",NA,"",NA,NA,NA,NA,NA,NA,NA,"",NA,"",NA,NA,NA,NA,NA,NA,NA,"","","",NA,"",NA,NA,NA,NA,NA,NA,NA,"",NA,"20"
"",NA,"",NA,"",NA,NA,NA,NA,NA,NA,NA,"","",1,1,"2024-08-24_03h59.22.803","IAT(Formal)","2021.2.3","Win32",142.8571429,"",NA,"i",1,0.4527,0,17,17,29,1,"冒失","i","",NA,"",NA,NA,NA,NA,NA,NA,NA,"","","",NA,NA,NA,NA,NA,NA,"",NA,"",NA,NA,NA,NA,NA,NA,NA,"",NA,"",NA,NA,NA,NA,NA,NA,NA,"","","",NA,"",NA,NA,NA,NA,NA,NA,NA,"",NA,"20"
"",NA,"",NA,"",NA,NA,NA,NA,NA,NA,NA,"","",1,1,"2024-08-24_03h59.22.803","IAT(Formal)","2021.2.3","Win32",142.8571429,"",NA,"i",0,0.5846,0,18,18,12,1,"无私","e","",NA,"",NA,NA,NA,NA,NA,NA,NA,"","","",NA,NA,NA,NA,NA,NA,"",NA,"",NA,NA,NA,NA,NA,NA,NA,"",NA,"",NA,NA,NA,NA,NA,NA,NA,"","","",NA,"",NA,NA,NA,NA,NA,NA,NA,"",NA,"20"
"",NA,"",NA,"",NA,NA,NA,NA,NA,NA,NA,"","",1,1,"2024-08-24_03h59.22.803","IAT(Formal)","2021.2.3","Win32",142.8571429,"",NA,"i",1,0.625,0,19,19,31,1,"散漫","i","",NA,"",NA,NA,NA,NA,NA,NA,NA,"","","",NA,NA,NA,NA,NA,NA,"",NA,"",NA,NA,NA,NA,NA,NA,NA,"",NA,"",NA,NA,NA,NA,NA,NA,NA,"","","",NA,"",NA,NA,NA,NA,NA,NA,NA,"",NA,"20"
"",NA,"",NA,"",NA,NA,NA,NA,NA,NA,NA,"","",1,1,"2024-08-24_03h59.22.803","IAT(Formal)","2021.2.3","Win32",142.8571429,"",NA,"e",1,0.5214,0,20,20,14,1,"朴实","e","",NA,"",NA,NA,NA,NA,NA,NA,NA,"","","",NA,NA,NA,NA,NA,NA,"",NA,"",NA,NA,NA,NA,NA,NA,NA,"",NA,"",NA,NA,NA,NA,NA,NA,NA,"","","",NA,"",NA,NA,NA,NA,NA,NA,NA,"",NA,"20"
"",NA,"",NA,"",NA,NA,NA,NA,NA,NA,NA,"","",1,1,"2024-08-24_03h59.22.803","IAT(Formal)","2021.2.3","Win32",142.8571429,"",NA,"i",1,0.5918,0,21,21,26,1,"自卑","i","",NA,"",NA,NA,NA,NA,NA,NA,NA,"","","",NA,NA,NA,NA,NA,NA,"",NA,"",NA,NA,NA,NA,NA,NA,NA,"",NA,"",NA,NA,NA,NA,NA,NA,NA,"","","",NA,"",NA,NA,NA,NA,NA,NA,NA,"",NA,"20"
"",NA,"",NA,"",NA,NA,NA,NA,NA,NA,NA,"","",1,1,"2024-08-24_03h59.22.803","IAT(Formal)","2021.2.3","Win32",142.8571429,"",NA,"e",1,0.4999,0,22,22,9,1,"机智","e","",NA,"",NA,NA,NA,NA,NA,NA,NA,"","","",NA,NA,NA,NA,NA,NA,"",NA,"",NA,NA,NA,NA,NA,NA,NA,"",NA,"",NA,NA,NA,NA,NA,NA,NA,"","","",NA,"",NA,NA,NA,NA,NA,NA,NA,"",NA,"20"
"",NA,"",NA,"",NA,NA,NA,NA,NA,NA,NA,"","",1,1,"2024-08-24_03h59.22.803","IAT(Formal)","2021.2.3","Win32",142.8571429,"",NA,"e",1,0.4608,0,23,23,8,1,"勤奋","e","",NA,"",NA,NA,NA,NA,NA,NA,NA,"","","",NA,NA,NA,NA,NA,NA,"",NA,"",NA,NA,NA,NA,NA,NA,NA,"",NA,"",NA,NA,NA,NA,NA,NA,NA,"","","",NA,"",NA,NA,NA,NA,NA,NA,NA,"",NA,"20"
"",NA,"",NA,"",NA,NA,NA,NA,NA,NA,NA,"","",1,1,"2024-08-24_03h59.22.803","IAT(Formal)","2021.2.3","Win32",142.8571429,"",NA,"e",1,0.5025,0,24,24,7,1,"勇敢","e","",NA,"",NA,NA,NA,NA,NA,NA,NA,"","","",NA,NA,NA,NA,NA,NA,"",NA,"",NA,NA,NA,NA,NA,NA,NA,"",NA,"",NA,NA,NA,NA,NA,NA,NA,"","","",NA,"",NA,NA,NA,NA,NA,NA,NA,"",NA,"20"
"",NA,"",NA,"",NA,NA,NA,NA,NA,NA,NA,"","",1,1,"2024-08-24_03h59.22.803","IAT(Formal)","2021.2.3","Win32",142.8571429,"",NA,"i",1,0.5001,0,25,25,28,1,"鲁莽","i","",NA,"",NA,NA,NA,NA,NA,NA,NA,"","","",NA,NA,NA,NA,NA,NA,"",NA,"",NA,NA,NA,NA,NA,NA,NA,"",NA,"",NA,NA,NA,NA,NA,NA,NA,"","","",NA,"",NA,NA,NA,NA,NA,NA,NA,"",NA,"20"
"",NA,"",NA,"",NA,NA,NA,NA,NA,NA,NA,"","",1,1,"2024-08-24_03h59.22.803","IAT(Formal)","2021.2.3","Win32",142.8571429,"",NA,"i",1,0.5209,0,26,26,32,1,"凶狠","i","",NA,"",NA,NA,NA,NA,NA,NA,NA,"","","",NA,NA,NA,NA,NA,NA,"",NA,"",NA,NA,NA,NA,NA,NA,NA,"",NA,"",NA,NA,NA,NA,NA,NA,NA,"","","",NA,"",NA,NA,NA,NA,NA,NA,NA,"",NA,"20"
"",NA,"",NA,"",NA,NA,NA,NA,NA,NA,NA,"","",1,1,"2024-08-24_03h59.22.803","IAT(Formal)","2021.2.3","Win32",142.8571429,"",NA,"i",1,0.5856,0,27,27,35,1,"猖狂","i","",NA,"",NA,NA,NA,NA,NA,NA,NA,"","","",NA,NA,NA,NA,NA,NA,"",NA,"",NA,NA,NA,NA,NA,NA,NA,"",NA,"",NA,NA,NA,NA,NA,NA,NA,"","","",NA,"",NA,NA,NA,NA,NA,NA,NA,"",NA,"20"
"",NA,"",NA,"",NA,NA,NA,NA,NA,NA,NA,"","",1,1,"2024-08-24_03h59.22.803","IAT(Formal)","2021.2.3","Win32",142.8571429,"",NA,"e",1,0.5555,0,28,28,19,1,"诚恳","e","",NA,"",NA,NA,NA,NA,NA,NA,NA,"","","",NA,NA,NA,NA,NA,NA,"",NA,"",NA,NA,NA,NA,NA,NA,NA,"",NA,"",NA,NA,NA,NA,NA,NA,NA,"","","",NA,"",NA,NA,NA,NA,NA,NA,NA,"",NA,"20"
"",NA,"",NA,"",NA,NA,NA,NA,NA,NA,NA,"","",1,1,"2024-08-24_03h59.22.803","IAT(Formal)","2021.2.3","Win32",142.8571429,"",NA,"i",0,0.4188,0,29,29,16,1,"冷静","e","",NA,"",NA,NA,NA,NA,NA,NA,NA,"","","",NA,NA,NA,NA,NA,NA,"",NA,"",NA,NA,NA,NA,NA,NA,NA,"",NA,"",NA,NA,NA,NA,NA,NA,NA,"","","",NA,"",NA,NA,NA,NA,NA,NA,NA,"",NA,"20"
"",NA,"",NA,"",NA,NA,NA,NA,NA,NA,NA,"","",1,1,"2024-08-24_03h59.22.803","IAT(Formal)","2021.2.3","Win32",142.8571429,"",NA,"e",1,0.5283,0,30,30,3,1,"杰出","e","",NA,"",NA,NA,NA,NA,NA,NA,NA,"","","",NA,NA,NA,NA,NA,NA,"",NA,"",NA,NA,NA,NA,NA,NA,NA,"",NA,"",NA,NA,NA,NA,NA,NA,NA,"","","",NA,"",NA,NA,NA,NA,NA,NA,NA,"",NA,"20"
"",NA,"",NA,"",NA,NA,NA,NA,NA,NA,NA,"","",1,1,"2024-08-24_03h59.22.803","IAT(Formal)","2021.2.3","Win32",142.8571429,"",NA,"i",1,0.5416,0,31,31,36,1,"野蛮","i","",NA,"",NA,NA,NA,NA,NA,NA,NA,"","","",NA,NA,NA,NA,NA,NA,"",NA,"",NA,NA,NA,NA,NA,NA,NA,"",NA,"",NA,NA,NA,NA,NA,NA,NA,"","","",NA,"",NA,NA,NA,NA,NA,NA,NA,"",NA,"20"
"",NA,"",NA,"",NA,NA,NA,NA,NA,NA,NA,"","",1,1,"2024-08-24_03h59.22.803","IAT(Formal)","2021.2.3","Win32",142.8571429,"",NA,"i",1,0.5971,0,32,32,20,1,"卑鄙","i","",NA,"",NA,NA,NA,NA,NA,NA,NA,"","","",NA,NA,NA,NA,NA,NA,"",NA,"",NA,NA,NA,NA,NA,NA,NA,"",NA,"",NA,NA,NA,NA,NA,NA,NA,"","","",NA,"",NA,NA,NA,NA,NA,NA,NA,"",NA,"20"
"",NA,"",NA,"",NA,NA,NA,NA,NA,NA,NA,"","",1,1,"2024-08-24_03h59.22.803","IAT(Formal)","2021.2.3","Win32",142.8571429,"",NA,"e",1,0.4167,0,33,33,17,1,"热情","e","",NA,"",NA,NA,NA,NA,NA,NA,NA,"","","",NA,NA,NA,NA,NA,NA,"",NA,"",NA,NA,NA,NA,NA,NA,NA,"",NA,"",NA,NA,NA,NA,NA,NA,NA,"","","",NA,"",NA,NA,NA,NA,NA,NA,NA,"",NA,"20"
"",NA,"",NA,"",NA,NA,NA,NA,NA,NA,NA,"","",1,1,"2024-08-24_03h59.22.803","IAT(Formal)","2021.2.3","Win32",142.8571429,"",NA,"e",1,0.475,0,34,34,6,1,"正直","e","",NA,"",NA,NA,NA,NA,NA,NA,NA,"","","",NA,NA,NA,NA,NA,NA,"",NA,"",NA,NA,NA,NA,NA,NA,NA,"",NA,"",NA,NA,NA,NA,NA,NA,NA,"","","",NA,"",NA,NA,NA,NA,NA,NA,NA,"",NA,"20"
"",NA,"",NA,"",NA,NA,NA,NA,NA,NA,NA,"","",1,1,"2024-08-24_03h59.22.803","IAT(Formal)","2021.2.3","Win32",142.8571429,"",NA,"i",1,0.6875,0,35,35,24,1,"悲观","i","",NA,"",NA,NA,NA,NA,NA,NA,NA,"","","",NA,NA,NA,NA,NA,NA,"",NA,"",NA,NA,NA,NA,NA,NA,NA,"",NA,"",NA,NA,NA,NA,NA,NA,NA,"","","",NA,"",NA,NA,NA,NA,NA,NA,NA,"",NA,"20"
"",NA,"",NA,"",NA,NA,NA,NA,NA,NA,NA,"","",1,1,"2024-08-24_03h59.22.803","IAT(Formal)","2021.2.3","Win32",142.8571429,"",NA,"e",1,0.4595,0,36,36,13,1,"公正","e","",NA,"",NA,NA,NA,NA,NA,NA,NA,"","","",NA,NA,NA,NA,NA,NA,"",NA,"",NA,NA,NA,NA,NA,NA,NA,"",NA,"",NA,NA,NA,NA,NA,NA,NA,"","","",NA,"",NA,NA,NA,NA,NA,NA,NA,"",NA,"20"
"",NA,"",NA,"",NA,NA,NA,NA,NA,NA,NA,"","",1,1,"2024-08-24_03h59.22.803","IAT(Formal)","2021.2.3","Win32",142.8571429,"",NA,"i",1,0.4723,0,37,37,39,1,"下贱","i","",NA,"",NA,NA,NA,NA,NA,NA,NA,"","","",NA,NA,NA,NA,NA,NA,"",NA,"",NA,NA,NA,NA,NA,NA,NA,"",NA,"",NA,NA,NA,NA,NA,NA,NA,"","","",NA,"",NA,NA,NA,NA,NA,NA,NA,"",NA,"20"
"",NA,"",NA,"",NA,NA,NA,NA,NA,NA,NA,"","",1,1,"2024-08-24_03h59.22.803","IAT(Formal)","2021.2.3","Win32",142.8571429,"",NA,"e",1,0.4381,0,38,38,18,1,"活泼","e","",NA,"",NA,NA,NA,NA,NA,NA,NA,"","","",NA,NA,NA,NA,NA,NA,"",NA,"",NA,NA,NA,NA,NA,NA,NA,"",NA,"",NA,NA,NA,NA,NA,NA,NA,"","","",NA,"",NA,NA,NA,NA,NA,NA,NA,"",NA,"20"
"",NA,"",NA,"",NA,NA,NA,NA,NA,NA,NA,"","",1,1,"2024-08-24_03h59.22.803","IAT(Formal)","2021.2.3","Win32",142.8571429,"",NA,"i",1,0.4812,0,39,39,21,1,"虚伪","i","",NA,"",NA,NA,NA,NA,NA,NA,NA,"","","",NA,NA,NA,NA,NA,NA,"",NA,"",NA,NA,NA,NA,NA,NA,NA,"",NA,"",NA,NA,NA,NA,NA,NA,NA,"","","",NA,"",NA,NA,NA,NA,NA,NA,NA,"",NA,"20"
"",NA,"",NA,"",NA,NA,NA,NA,NA,NA,NA,"","",1,1,"2024-08-24_03h59.22.803","IAT(Formal)","2021.2.3","Win32",142.8571429,"",NA,"",NA,NA,NA,NA,NA,NA,NA,"","","space",5.7605,"i",1,1.0568,0,0,0,69,1,"其他","i","",NA,NA,NA,NA,NA,NA,"",NA,"",NA,NA,NA,NA,NA,NA,NA,"",NA,"",NA,NA,NA,NA,NA,NA,NA,"","","",NA,"",NA,NA,NA,NA,NA,NA,NA,"",NA,"20"
"",NA,"",NA,"",NA,NA,NA,NA,NA,NA,NA,"","",1,1,"2024-08-24_03h59.22.803","IAT(Formal)","2021.2.3","Win32",142.8571429,"",NA,"",NA,NA,NA,NA,NA,NA,NA,"","","",NA,"i",1,0.4979,0,1,1,68,1,"他人","i","",NA,NA,NA,NA,NA,NA,"",NA,"",NA,NA,NA,NA,NA,NA,NA,"",NA,"",NA,NA,NA,NA,NA,NA,NA,"","","",NA,"",NA,NA,NA,NA,NA,NA,NA,"",NA,"20"
"",NA,"",NA,"",NA,NA,NA,NA,NA,NA,NA,"","",1,1,"2024-08-24_03h59.22.803","IAT(Formal)","2021.2.3","Win32",142.8571429,"",NA,"",NA,NA,NA,NA,NA,NA,NA,"","","",NA,"i",1,0.4988,0,2,2,35,1,"消极","i","",NA,NA,NA,NA,NA,NA,"",NA,"",NA,NA,NA,NA,NA,NA,NA,"",NA,"",NA,NA,NA,NA,NA,NA,NA,"","","",NA,"",NA,NA,NA,NA,NA,NA,NA,"",NA,"20"
"",NA,"",NA,"",NA,NA,NA,NA,NA,NA,NA,"","",1,1,"2024-08-24_03h59.22.803","IAT(Formal)","2021.2.3","Win32",142.8571429,"",NA,"",NA,NA,NA,NA,NA,NA,NA,"","","",NA,"e",1,0.8726,0,3,3,64,1,"俺","e","",NA,NA,NA,NA,NA,NA,"",NA,"",NA,NA,NA,NA,NA,NA,NA,"",NA,"",NA,NA,NA,NA,NA,NA,NA,"","","",NA,"",NA,NA,NA,NA,NA,NA,NA,"",NA,"20"
"",NA,"",NA,"",NA,NA,NA,NA,NA,NA,NA,"","",1,1,"2024-08-24_03h59.22.803","IAT(Formal)","2021.2.3","Win32",142.8571429,"",NA,"",NA,NA,NA,NA,NA,NA,NA,"","","",NA,"i",1,0.5126,0,4,4,58,1,"他人","i","",NA,NA,NA,NA,NA,NA,"",NA,"",NA,NA,NA,NA,NA,NA,NA,"",NA,"",NA,NA,NA,NA,NA,NA,NA,"","","",NA,"",NA,NA,NA,NA,NA,NA,NA,"",NA,"20"
"",NA,"",NA,"",NA,NA,NA,NA,NA,NA,NA,"","",1,1,"2024-08-24_03h59.22.803","IAT(Formal)","2021.2.3","Win32",142.8571429,"",NA,"",NA,NA,NA,NA,NA,NA,NA,"","","",NA,"e",1,0.3837,0,5,5,70,1,"我","e","",NA,NA,NA,NA,NA,NA,"",NA,"",NA,NA,NA,NA,NA,NA,NA,"",NA,"",NA,NA,NA,NA,NA,NA,NA,"","","",NA,"",NA,NA,NA,NA,NA,NA,NA,"",NA,"20"
"",NA,"",NA,"",NA,NA,NA,NA,NA,NA,NA,"","",1,1,"2024-08-24_03h59.22.803","IAT(Formal)","2021.2.3","Win32",142.8571429,"",NA,"",NA,NA,NA,NA,NA,NA,NA,"","","",NA,"e",1,0.7338,0,6,6,13,1,"杰出","e","",NA,NA,NA,NA,NA,NA,"",NA,"",NA,NA,NA,NA,NA,NA,NA,"",NA,"",NA,NA,NA,NA,NA,NA,NA,"","","",NA,"",NA,NA,NA,NA,NA,NA,NA,"",NA,"20"
"",NA,"",NA,"",NA,NA,NA,NA,NA,NA,NA,"","",1,1,"2024-08-24_03h59.22.803","IAT(Formal)","2021.2.3","Win32",142.8571429,"",NA,"",NA,NA,NA,NA,NA,NA,NA,"","","",NA,"e",1,0.4291,0,7,7,14,1,"乐观","e","",NA,NA,NA,NA,NA,NA,"",NA,"",NA,NA,NA,NA,NA,NA,NA,"",NA,"",NA,NA,NA,NA,NA,NA,NA,"","","",NA,"",NA,NA,NA,NA,NA,NA,NA,"",NA,"20"
"",NA,"",NA,"",NA,NA,NA,NA,NA,NA,NA,"","",1,1,"2024-08-24_03h59.22.803","IAT(Formal)","2021.2.3","Win32",142.8571429,"",NA,"",NA,NA,NA,NA,NA,NA,NA,"","","",NA,"e",1,0.5355,0,8,8,53,1,"自己","e","",NA,NA,NA,NA,NA,NA,"",NA,"",NA,NA,NA,NA,NA,NA,NA,"",NA,"",NA,NA,NA,NA,NA,NA,NA,"","","",NA,"",NA,NA,NA,NA,NA,NA,NA,"",NA,"20"
"",NA,"",NA,"",NA,NA,NA,NA,NA,NA,NA,"","",1,1,"2024-08-24_03h59.22.803","IAT(Formal)","2021.2.3","Win32",142.8571429,"",NA,"",NA,NA,NA,NA,NA,NA,NA,"","","",NA,"e",1,0.493,0,9,9,4,1,"俺","e","",NA,NA,NA,NA,NA,NA,"",NA,"",NA,NA,NA,NA,NA,NA,NA,"",NA,"",NA,NA,NA,NA,NA,NA,NA,"","","",NA,"",NA,NA,NA,NA,NA,NA,NA,"",NA,"20"
"",NA,"",NA,"",NA,NA,NA,NA,NA,NA,NA,"","",1,1,"2024-08-24_03h59.22.803","IAT(Formal)","2021.2.3","Win32",142.8571429,"",NA,"",NA,NA,NA,NA,NA,NA,NA,"","","",NA,"e",1,0.4288,0,10,10,12,1,"聪明","e","",NA,NA,NA,NA,NA,NA,"",NA,"",NA,NA,NA,NA,NA,NA,NA,"",NA,"",NA,NA,NA,NA,NA,NA,NA,"","","",NA,"",NA,NA,NA,NA,NA,NA,NA,"",NA,"20"
"",NA,"",NA,"",NA,NA,NA,NA,NA,NA,NA,"","",1,1,"2024-08-24_03h59.22.803","IAT(Formal)","2021.2.3","Win32",142.8571429,"",NA,"",NA,NA,NA,NA,NA,NA,NA,"","","",NA,"e",1,0.4438,0,11,11,16,1,"正直","e","",NA,NA,NA,NA,NA,NA,"",NA,"",NA,NA,NA,NA,NA,NA,NA,"",NA,"",NA,NA,NA,NA,NA,NA,NA,"","","",NA,"",NA,NA,NA,NA,NA,NA,NA,"",NA,"20"
"",NA,"",NA,"",NA,NA,NA,NA,NA,NA,NA,"","",1,1,"2024-08-24_03h59.22.803","IAT(Formal)","2021.2.3","Win32",142.8571429,"",NA,"",NA,NA,NA,NA,NA,NA,NA,"","","",NA,"e",1,0.3821,0,12,12,62,1,"我们","e","",NA,NA,NA,NA,NA,NA,"",NA,"",NA,NA,NA,NA,NA,NA,NA,"",NA,"",NA,NA,NA,NA,NA,NA,NA,"","","",NA,"",NA,NA,NA,NA,NA,NA,NA,"",NA,"20"
"",NA,"",NA,"",NA,NA,NA,NA,NA,NA,NA,"","",1,1,"2024-08-24_03h59.22.803","IAT(Formal)","2021.2.3","Win32",142.8571429,"",NA,"",NA,NA,NA,NA,NA,NA,NA,"","","",NA,"i",1,0.521,0,13,13,43,1,"自私","i","",NA,NA,NA,NA,NA,NA,"",NA,"",NA,NA,NA,NA,NA,NA,NA,"",NA,"",NA,NA,NA,NA,NA,NA,NA,"","","",NA,"",NA,NA,NA,NA,NA,NA,NA,"",NA,"20"
"",NA,"",NA,"",NA,NA,NA,NA,NA,NA,NA,"","",1,1,"2024-08-24_03h59.22.803","IAT(Formal)","2021.2.3","Win32",142.8571429,"",NA,"",NA,NA,NA,NA,NA,NA,NA,"","","",NA,"e",0,0.5348,0,14,14,65,1,"他","i","",NA,NA,NA,NA,NA,NA,"",NA,"",NA,NA,NA,NA,NA,NA,NA,"",NA,"",NA,NA,NA,NA,NA,NA,NA,"","","",NA,"",NA,NA,NA,NA,NA,NA,NA,"",NA,"20"
"",NA,"",NA,"",NA,NA,NA,NA,NA,NA,NA,"","",1,1,"2024-08-24_03h59.22.803","IAT(Formal)","2021.2.3","Win32",142.8571429,"",NA,"",NA,NA,NA,NA,NA,NA,NA,"","","",NA,"e",1,0.5,0,15,15,51,1,"我的","e","",NA,NA,NA,NA,NA,NA,"",NA,"",NA,NA,NA,NA,NA,NA,NA,"",NA,"",NA,NA,NA,NA,NA,NA,NA,"","","",NA,"",NA,NA,NA,NA,NA,NA,NA,"",NA,"20"
"",NA,"",NA,"",NA,NA,NA,NA,NA,NA,NA,"","",1,1,"2024-08-24_03h59.22.803","IAT(Formal)","2021.2.3","Win32",142.8571429,"",NA,"",NA,NA,NA,NA,NA,NA,NA,"","","",NA,"i",1,0.5268,0,16,16,59,1,"其他","i","",NA,NA,NA,NA,NA,NA,"",NA,"",NA,NA,NA,NA,NA,NA,NA,"",NA,"",NA,NA,NA,NA,NA,NA,NA,"","","",NA,"",NA,NA,NA,NA,NA,NA,NA,"",NA,"20"
"",NA,"",NA,"",NA,NA,NA,NA,NA,NA,NA,"","",1,1,"2024-08-24_03h59.22.803","IAT(Formal)","2021.2.3","Win32",142.8571429,"",NA,"",NA,NA,NA,NA,NA,NA,NA,"","","",NA,"i",1,0.521,0,17,17,31,1,"虚伪","i","",NA,NA,NA,NA,NA,NA,"",NA,"",NA,NA,NA,NA,NA,NA,NA,"",NA,"",NA,NA,NA,NA,NA,NA,NA,"","","",NA,"",NA,NA,NA,NA,NA,NA,NA,"",NA,"20"
"",NA,"",NA,"",NA,NA,NA,NA,NA,NA,NA,"","",1,1,"2024-08-24_03h59.22.803","IAT(Formal)","2021.2.3","Win32",142.8571429,"",NA,"",NA,NA,NA,NA,NA,NA,NA,"","","",NA,"i",1,0.4601,0,18,18,9,1,"其他","i","",NA,NA,NA,NA,NA,NA,"",NA,"",NA,NA,NA,NA,NA,NA,NA,"",NA,"",NA,NA,NA,NA,NA,NA,NA,"","","",NA,"",NA,NA,NA,NA,NA,NA,NA,"",NA,"20"
"",NA,"",NA,"",NA,NA,NA,NA,NA,NA,NA,"","",1,1,"2024-08-24_03h59.22.803","IAT(Formal)","2021.2.3","Win32",142.8571429,"",NA,"",NA,NA,NA,NA,NA,NA,NA,"","","",NA,"i",1,0.4864,0,19,19,39,1,"冒失","i","",NA,NA,NA,NA,NA,NA,"",NA,"",NA,NA,NA,NA,NA,NA,NA,"",NA,"",NA,NA,NA,NA,NA,NA,NA,"","","",NA,"",NA,NA,NA,NA,NA,NA,NA,"",NA,"20"
"",NA,"",NA,"",NA,NA,NA,NA,NA,NA,NA,"","",1,1,"2024-08-24_03h59.22.803","IAT(Formal)","2021.2.3","Win32",142.8571429,"",NA,"",NA,NA,NA,NA,NA,NA,NA,"","","",NA,"e",1,0.4654,0,20,20,63,1,"自己","e","",NA,NA,NA,NA,NA,NA,"",NA,"",NA,NA,NA,NA,NA,NA,NA,"",NA,"",NA,NA,NA,NA,NA,NA,NA,"","","",NA,"",NA,NA,NA,NA,NA,NA,NA,"",NA,"20"
"",NA,"",NA,"",NA,NA,NA,NA,NA,NA,NA,"","",1,1,"2024-08-24_03h59.22.803","IAT(Formal)","2021.2.3","Win32",142.8571429,"",NA,"",NA,NA,NA,NA,NA,NA,NA,"","","",NA,"i",1,0.514,0,21,21,46,1,"野蛮","i","",NA,NA,NA,NA,NA,NA,"",NA,"",NA,NA,NA,NA,NA,NA,NA,"",NA,"",NA,NA,NA,NA,NA,NA,NA,"","","",NA,"",NA,NA,NA,NA,NA,NA,NA,"",NA,"20"
"",NA,"",NA,"",NA,NA,NA,NA,NA,NA,NA,"","",1,1,"2024-08-24_03h59.22.803","IAT(Formal)","2021.2.3","Win32",142.8571429,"",NA,"",NA,NA,NA,NA,NA,NA,NA,"","","",NA,"e",1,0.6596,0,22,22,25,1,"细腻","e","",NA,NA,NA,NA,NA,NA,"",NA,"",NA,NA,NA,NA,NA,NA,NA,"",NA,"",NA,NA,NA,NA,NA,NA,NA,"","","",NA,"",NA,NA,NA,NA,NA,NA,NA,"",NA,"20"
"",NA,"",NA,"",NA,NA,NA,NA,NA,NA,NA,"","",1,1,"2024-08-24_03h59.22.803","IAT(Formal)","2021.2.3","Win32",142.8571429,"",NA,"",NA,NA,NA,NA,NA,NA,NA,"","","",NA,"i",1,0.4675,0,23,23,49,1,"下贱","i","",NA,NA,NA,NA,NA,NA,"",NA,"",NA,NA,NA,NA,NA,NA,NA,"",NA,"",NA,NA,NA,NA,NA,NA,NA,"","","",NA,"",NA,NA,NA,NA,NA,NA,NA,"",NA,"20"
"",NA,"",NA,"",NA,NA,NA,NA,NA,NA,NA,"","",1,1,"2024-08-24_03h59.22.803","IAT(Formal)","2021.2.3","Win32",142.8571429,"",NA,"",NA,NA,NA,NA,NA,NA,NA,"","","",NA,"i",1,0.6411,0,24,24,37,1,"傲慢","i","",NA,NA,NA,NA,NA,NA,"",NA,"",NA,NA,NA,NA,NA,NA,NA,"",NA,"",NA,NA,NA,NA,NA,NA,NA,"","","",NA,"",NA,NA,NA,NA,NA,NA,NA,"",NA,"20"
"",NA,"",NA,"",NA,NA,NA,NA,NA,NA,NA,"","",1,1,"2024-08-24_03h59.22.803","IAT(Formal)","2021.2.3","Win32",142.8571429,"",NA,"",NA,NA,NA,NA,NA,NA,NA,"","","",NA,"e",0,0.4809,0,25,25,77,1,"他的","i","",NA,NA,NA,NA,NA,NA,"",NA,"",NA,NA,NA,NA,NA,NA,NA,"",NA,"",NA,NA,NA,NA,NA,NA,NA,"","","",NA,"",NA,NA,NA,NA,NA,NA,NA,"",NA,"20"
"",NA,"",NA,"",NA,NA,NA,NA,NA,NA,NA,"","",1,1,"2024-08-24_03h59.22.803","IAT(Formal)","2021.2.3","Win32",142.8571429,"",NA,"",NA,NA,NA,NA,NA,NA,NA,"","","",NA,"e",1,0.5069,0,26,26,29,1,"诚恳","e","",NA,NA,NA,NA,NA,NA,"",NA,"",NA,NA,NA,NA,NA,NA,NA,"",NA,"",NA,NA,NA,NA,NA,NA,NA,"","","",NA,"",NA,NA,NA,NA,NA,NA,NA,"",NA,"20"
"",NA,"",NA,"",NA,NA,NA,NA,NA,NA,NA,"","",1,1,"2024-08-24_03h59.22.803","IAT(Formal)","2021.2.3","Win32",142.8571429,"",NA,"",NA,NA,NA,NA,NA,NA,NA,"","","",NA,"i",1,0.7502,0,27,27,78,1,"他人","i","",NA,NA,NA,NA,NA,NA,"",NA,"",NA,NA,NA,NA,NA,NA,NA,"",NA,"",NA,NA,NA,NA,NA,NA,NA,"","","",NA,"",NA,NA,NA,NA,NA,NA,NA,"",NA,"20"
"",NA,"",NA,"",NA,NA,NA,NA,NA,NA,NA,"","",1,1,"2024-08-24_03h59.22.803","IAT(Formal)","2021.2.3","Win32",142.8571429,"",NA,"",NA,NA,NA,NA,NA,NA,NA,"","","",NA,"e",1,0.5234,0,28,28,1,1,"我的","e","",NA,NA,NA,NA,NA,NA,"",NA,"",NA,NA,NA,NA,NA,NA,NA,"",NA,"",NA,NA,NA,NA,NA,NA,NA,"","","",NA,"",NA,NA,NA,NA,NA,NA,NA,"",NA,"20"
"",NA,"",NA,"",NA,NA,NA,NA,NA,NA,NA,"","",1,1,"2024-08-24_03h59.22.803","IAT(Formal)","2021.2.3","Win32",142.8571429,"",NA,"",NA,NA,NA,NA,NA,NA,NA,"","","",NA,"i",1,0.5851,0,29,29,66,1,"他们","i","",NA,NA,NA,NA,NA,NA,"",NA,"",NA,NA,NA,NA,NA,NA,NA,"",NA,"",NA,NA,NA,NA,NA,NA,NA,"","","",NA,"",NA,NA,NA,NA,NA,NA,NA,"",NA,"20"
"",NA,"",NA,"",NA,NA,NA,NA,NA,NA,NA,"","",1,1,"2024-08-24_03h59.22.803","IAT(Formal)","2021.2.3","Win32",142.8571429,"",NA,"",NA,NA,NA,NA,NA,NA,NA,"","","",NA,"i",1,0.6112,0,30,30,40,1,"执拗","i","",NA,NA,NA,NA,NA,NA,"",NA,"",NA,NA,NA,NA,NA,NA,NA,"",NA,"",NA,NA,NA,NA,NA,NA,NA,"","","",NA,"",NA,NA,NA,NA,NA,NA,NA,"",NA,"20"
"",NA,"",NA,"",NA,NA,NA,NA,NA,NA,NA,"","",1,1,"2024-08-24_03h59.22.803","IAT(Formal)","2021.2.3","Win32",142.8571429,"",NA,"",NA,NA,NA,NA,NA,NA,NA,"","","",NA,"i",1,0.7847,0,31,31,34,1,"悲观","i","",NA,NA,NA,NA,NA,NA,"",NA,"",NA,NA,NA,NA,NA,NA,NA,"",NA,"",NA,NA,NA,NA,NA,NA,NA,"","","",NA,"",NA,NA,NA,NA,NA,NA,NA,"",NA,"20"
"",NA,"",NA,"",NA,NA,NA,NA,NA,NA,NA,"","",1,1,"2024-08-24_03h59.22.803","IAT(Formal)","2021.2.3","Win32",142.8571429,"",NA,"",NA,NA,NA,NA,NA,NA,NA,"","","",NA,"e",1,0.6874,0,32,32,3,1,"自己","e","",NA,NA,NA,NA,NA,NA,"",NA,"",NA,NA,NA,NA,NA,NA,NA,"",NA,"",NA,NA,NA,NA,NA,NA,NA,"","","",NA,"",NA,NA,NA,NA,NA,NA,NA,"",NA,"20"
"",NA,"",NA,"",NA,NA,NA,NA,NA,NA,NA,"","",1,1,"2024-08-24_03h59.22.803","IAT(Formal)","2021.2.3","Win32",142.8571429,"",NA,"",NA,NA,NA,NA,NA,NA,NA,"","","",NA,"e",1,0.5716,0,33,33,20,1,"认真","e","",NA,NA,NA,NA,NA,NA,"",NA,"",NA,NA,NA,NA,NA,NA,NA,"",NA,"",NA,NA,NA,NA,NA,NA,NA,"","","",NA,"",NA,NA,NA,NA,NA,NA,NA,"",NA,"20"
"",NA,"",NA,"",NA,NA,NA,NA,NA,NA,NA,"","",1,1,"2024-08-24_03h59.22.803","IAT(Formal)","2021.2.3","Win32",142.8571429,"",NA,"",NA,NA,NA,NA,NA,NA,NA,"","","",NA,"e",1,0.5279,0,34,34,27,1,"热情","e","",NA,NA,NA,NA,NA,NA,"",NA,"",NA,NA,NA,NA,NA,NA,NA,"",NA,"",NA,NA,NA,NA,NA,NA,NA,"","","",NA,"",NA,NA,NA,NA,NA,NA,NA,"",NA,"20"
"",NA,"",NA,"",NA,NA,NA,NA,NA,NA,NA,"","",1,1,"2024-08-24_03h59.22.803","IAT(Formal)","2021.2.3","Win32",142.8571429,"",NA,"",NA,NA,NA,NA,NA,NA,NA,"","","",NA,"e",1,0.4237,0,35,35,0,1,"我","e","",NA,NA,NA,NA,NA,NA,"",NA,"",NA,NA,NA,NA,NA,NA,NA,"",NA,"",NA,NA,NA,NA,NA,NA,NA,"","","",NA,"",NA,NA,NA,NA,NA,NA,NA,"",NA,"20"
"",NA,"",NA,"",NA,NA,NA,NA,NA,NA,NA,"","",1,1,"2024-08-24_03h59.22.803","IAT(Formal)","2021.2.3","Win32",142.8571429,"",NA,"",NA,NA,NA,NA,NA,NA,NA,"","","",NA,"e",0,0.4183,0,36,36,75,1,"他","i","",NA,NA,NA,NA,NA,NA,"",NA,"",NA,NA,NA,NA,NA,NA,NA,"",NA,"",NA,NA,NA,NA,NA,NA,NA,"","","",NA,"",NA,NA,NA,NA,NA,NA,NA,"",NA,"20"
"",NA,"",NA,"",NA,NA,NA,NA,NA,NA,NA,"","",1,1,"2024-08-24_03h59.22.803","IAT(Formal)","2021.2.3","Win32",142.8571429,"",NA,"",NA,NA,NA,NA,NA,NA,NA,"","","",NA,"e",1,0.5765,0,37,37,17,1,"勇敢","e","",NA,NA,NA,NA,NA,NA,"",NA,"",NA,NA,NA,NA,NA,NA,NA,"",NA,"",NA,NA,NA,NA,NA,NA,NA,"","","",NA,"",NA,NA,NA,NA,NA,NA,NA,"",NA,"20"
"",NA,"",NA,"",NA,NA,NA,NA,NA,NA,NA,"","",1,1,"2024-08-24_03h59.22.803","IAT(Formal)","2021.2.3","Win32",142.8571429,"",NA,"",NA,NA,NA,NA,NA,NA,NA,"","","",NA,"i",1,0.5555,0,38,38,5,1,"他","i","",NA,NA,NA,NA,NA,NA,"",NA,"",NA,NA,NA,NA,NA,NA,NA,"",NA,"",NA,NA,NA,NA,NA,NA,NA,"","","",NA,"",NA,NA,NA,NA,NA,NA,NA,"",NA,"20"
"",NA,"",NA,"",NA,NA,NA,NA,NA,NA,NA,"","",1,1,"2024-08-24_03h59.22.803","IAT(Formal)","2021.2.3","Win32",142.8571429,"",NA,"",NA,NA,NA,NA,NA,NA,NA,"","","",NA,"i",1,0.5196,0,39,39,32,1,"愚蠢","i","",NA,NA,NA,NA,NA,NA,"",NA,"",NA,NA,NA,NA,NA,NA,NA,"",NA,"",NA,NA,NA,NA,NA,NA,NA,"","","",NA,"",NA,NA,NA,NA,NA,NA,NA,"",NA,"20"
"",NA,"",NA,"",NA,NA,NA,NA,NA,NA,NA,"","",1,1,"2024-08-24_03h59.22.803","IAT(Formal)","2021.2.3","Win32",142.8571429,"",NA,"",NA,NA,NA,NA,NA,NA,NA,"","","",NA,"e",1,0.5442,0,40,40,23,1,"公正","e","",NA,NA,NA,NA,NA,NA,"",NA,"",NA,NA,NA,NA,NA,NA,NA,"",NA,"",NA,NA,NA,NA,NA,NA,NA,"","","",NA,"",NA,NA,NA,NA,NA,NA,NA,"",NA,"20"
"",NA,"",NA,"",NA,NA,NA,NA,NA,NA,NA,"","",1,1,"2024-08-24_03h59.22.803","IAT(Formal)","2021.2.3","Win32",142.8571429,"",NA,"",NA,NA,NA,NA,NA,NA,NA,"","","",NA,"i",1,0.4376,0,41,41,7,1,"他的","i","",NA,NA,NA,NA,NA,NA,"",NA,"",NA,NA,NA,NA,NA,NA,NA,"",NA,"",NA,NA,NA,NA,NA,NA,NA,"","","",NA,"",NA,NA,NA,NA,NA,NA,NA,"",NA,"20"
"",NA,"",NA,"",NA,NA,NA,NA,NA,NA,NA,"","",1,1,"2024-08-24_03h59.22.803","IAT(Formal)","2021.2.3","Win32",142.8571429,"",NA,"",NA,NA,NA,NA,NA,NA,NA,"","","",NA,"i",1,0.4653,0,42,42,79,1,"其他","i","",NA,NA,NA,NA,NA,NA,"",NA,"",NA,NA,NA,NA,NA,NA,NA,"",NA,"",NA,NA,NA,NA,NA,NA,NA,"","","",NA,"",NA,NA,NA,NA,NA,NA,NA,"",NA,"20"
"",NA,"",NA,"",NA,NA,NA,NA,NA,NA,NA,"","",1,1,"2024-08-24_03h59.22.803","IAT(Formal)","2021.2.3","Win32",142.8571429,"",NA,"",NA,NA,NA,NA,NA,NA,NA,"","","",NA,"e",1,0.4446,0,43,43,71,1,"我的","e","",NA,NA,NA,NA,NA,NA,"",NA,"",NA,NA,NA,NA,NA,NA,NA,"",NA,"",NA,NA,NA,NA,NA,NA,NA,"","","",NA,"",NA,NA,NA,NA,NA,NA,NA,"",NA,"20"
"",NA,"",NA,"",NA,NA,NA,NA,NA,NA,NA,"","",1,1,"2024-08-24_03h59.22.803","IAT(Formal)","2021.2.3","Win32",142.8571429,"",NA,"",NA,NA,NA,NA,NA,NA,NA,"","","",NA,"e",1,0.5267,0,44,44,72,1,"我们","e","",NA,NA,NA,NA,NA,NA,"",NA,"",NA,NA,NA,NA,NA,NA,NA,"",NA,"",NA,NA,NA,NA,NA,NA,NA,"","","",NA,"",NA,NA,NA,NA,NA,NA,NA,"",NA,"20"
"",NA,"",NA,"",NA,NA,NA,NA,NA,NA,NA,"","",1,1,"2024-08-24_03h59.22.803","IAT(Formal)","2021.2.3","Win32",142.8571429,"",NA,"",NA,NA,NA,NA,NA,NA,NA,"","","",NA,"i",1,0.5904,0,45,45,55,1,"他","i","",NA,NA,NA,NA,NA,NA,"",NA,"",NA,NA,NA,NA,NA,NA,NA,"",NA,"",NA,NA,NA,NA,NA,NA,NA,"","","",NA,"",NA,NA,NA,NA,NA,NA,NA,"",NA,"20"
"",NA,"",NA,"",NA,NA,NA,NA,NA,NA,NA,"","",1,1,"2024-08-24_03h59.22.803","IAT(Formal)","2021.2.3","Win32",142.8571429,"",NA,"",NA,NA,NA,NA,NA,NA,NA,"","","",NA,"i",1,0.4445,0,46,46,8,1,"他人","i","",NA,NA,NA,NA,NA,NA,"",NA,"",NA,NA,NA,NA,NA,NA,NA,"",NA,"",NA,NA,NA,NA,NA,NA,NA,"","","",NA,"",NA,NA,NA,NA,NA,NA,NA,"",NA,"20"
"",NA,"",NA,"",NA,NA,NA,NA,NA,NA,NA,"","",1,1,"2024-08-24_03h59.22.803","IAT(Formal)","2021.2.3","Win32",142.8571429,"",NA,"",NA,NA,NA,NA,NA,NA,NA,"","","",NA,"e",1,0.5488,0,47,47,19,1,"机智","e","",NA,NA,NA,NA,NA,NA,"",NA,"",NA,NA,NA,NA,NA,NA,NA,"",NA,"",NA,NA,NA,NA,NA,NA,NA,"","","",NA,"",NA,NA,NA,NA,NA,NA,NA,"",NA,"20"
"",NA,"",NA,"",NA,NA,NA,NA,NA,NA,NA,"","",1,1,"2024-08-24_03h59.22.803","IAT(Formal)","2021.2.3","Win32",142.8571429,"",NA,"",NA,NA,NA,NA,NA,NA,NA,"","","",NA,"e",1,0.4589,0,48,48,73,1,"自己","e","",NA,NA,NA,NA,NA,NA,"",NA,"",NA,NA,NA,NA,NA,NA,NA,"",NA,"",NA,NA,NA,NA,NA,NA,NA,"","","",NA,"",NA,NA,NA,NA,NA,NA,NA,"",NA,"20"
"",NA,"",NA,"",NA,NA,NA,NA,NA,NA,NA,"","",1,1,"2024-08-24_03h59.22.803","IAT(Formal)","2021.2.3","Win32",142.8571429,"",NA,"",NA,NA,NA,NA,NA,NA,NA,"","","",NA,"e",1,0.8402,0,49,49,11,1,"崇高","e","",NA,NA,NA,NA,NA,NA,"",NA,"",NA,NA,NA,NA,NA,NA,NA,"",NA,"",NA,NA,NA,NA,NA,NA,NA,"","","",NA,"",NA,NA,NA,NA,NA,NA,NA,"",NA,"20"
"",NA,"",NA,"",NA,NA,NA,NA,NA,NA,NA,"","",1,1,"2024-08-24_03h59.22.803","IAT(Formal)","2021.2.3","Win32",142.8571429,"",NA,"",NA,NA,NA,NA,NA,NA,NA,"","","",NA,"e",1,0.4171,0,50,50,61,1,"我的","e","",NA,NA,NA,NA,NA,NA,"",NA,"",NA,NA,NA,NA,NA,NA,NA,"",NA,"",NA,NA,NA,NA,NA,NA,NA,"","","",NA,"",NA,NA,NA,NA,NA,NA,NA,"",NA,"20"
"",NA,"",NA,"",NA,NA,NA,NA,NA,NA,NA,"","",1,1,"2024-08-24_03h59.22.803","IAT(Formal)","2021.2.3","Win32",142.8571429,"",NA,"",NA,NA,NA,NA,NA,NA,NA,"","","",NA,"i",1,0.5692,0,51,51,67,1,"他的","i","",NA,NA,NA,NA,NA,NA,"",NA,"",NA,NA,NA,NA,NA,NA,NA,"",NA,"",NA,NA,NA,NA,NA,NA,NA,"","","",NA,"",NA,NA,NA,NA,NA,NA,NA,"",NA,"20"
"",NA,"",NA,"",NA,NA,NA,NA,NA,NA,NA,"","",1,1,"2024-08-24_03h59.22.803","IAT(Formal)","2021.2.3","Win32",142.8571429,"",NA,"",NA,NA,NA,NA,NA,NA,NA,"","","",NA,"e",0,0.4323,0,52,52,76,1,"他们","i","",NA,NA,NA,NA,NA,NA,"",NA,"",NA,NA,NA,NA,NA,NA,NA,"",NA,"",NA,NA,NA,NA,NA,NA,NA,"","","",NA,"",NA,NA,NA,NA,NA,NA,NA,"",NA,"20"
"",NA,"",NA,"",NA,NA,NA,NA,NA,NA,NA,"","",1,1,"2024-08-24_03h59.22.803","IAT(Formal)","2021.2.3","Win32",142.8571429,"",NA,"",NA,NA,NA,NA,NA,NA,NA,"","","",NA,"e",1,0.4659,0,53,53,50,1,"我","e","",NA,NA,NA,NA,NA,NA,"",NA,"",NA,NA,NA,NA,NA,NA,NA,"",NA,"",NA,NA,NA,NA,NA,NA,NA,"","","",NA,"",NA,NA,NA,NA,NA,NA,NA,"",NA,"20"
"",NA,"",NA,"",NA,NA,NA,NA,NA,NA,NA,"","",1,1,"2024-08-24_03h59.22.803","IAT(Formal)","2021.2.3","Win32",142.8571429,"",NA,"",NA,NA,NA,NA,NA,NA,NA,"","","",NA,"i",1,0.4999,0,54,54,36,1,"自卑","i","",NA,NA,NA,NA,NA,NA,"",NA,"",NA,NA,NA,NA,NA,NA,NA,"",NA,"",NA,NA,NA,NA,NA,NA,NA,"","","",NA,"",NA,NA,NA,NA,NA,NA,NA,"",NA,"20"
"",NA,"",NA,"",NA,NA,NA,NA,NA,NA,NA,"","",1,1,"2024-08-24_03h59.22.803","IAT(Formal)","2021.2.3","Win32",142.8571429,"",NA,"",NA,NA,NA,NA,NA,NA,NA,"","","",NA,"e",1,0.6319,0,55,55,26,1,"冷静","e","",NA,NA,NA,NA,NA,NA,"",NA,"",NA,NA,NA,NA,NA,NA,NA,"",NA,"",NA,NA,NA,NA,NA,NA,NA,"","","",NA,"",NA,NA,NA,NA,NA,NA,NA,"",NA,"20"
"",NA,"",NA,"",NA,NA,NA,NA,NA,NA,NA,"","",1,1,"2024-08-24_03h59.22.803","IAT(Formal)","2021.2.3","Win32",142.8571429,"",NA,"",NA,NA,NA,NA,NA,NA,NA,"","","",NA,"e",1,0.4513,0,56,56,52,1,"我们","e","",NA,NA,NA,NA,NA,NA,"",NA,"",NA,NA,NA,NA,NA,NA,NA,"",NA,"",NA,NA,NA,NA,NA,NA,NA,"","","",NA,"",NA,NA,NA,NA,NA,NA,NA,"",NA,"20"
"",NA,"",NA,"",NA,NA,NA,NA,NA,NA,NA,"","",1,1,"2024-08-24_03h59.22.803","IAT(Formal)","2021.2.3","Win32",142.8571429,"",NA,"",NA,NA,NA,NA,NA,NA,NA,"","","",NA,"e",1,0.4306,0,57,57,21,1,"稳重","e","",NA,NA,NA,NA,NA,NA,"",NA,"",NA,NA,NA,NA,NA,NA,NA,"",NA,"",NA,NA,NA,NA,NA,NA,NA,"","","",NA,"",NA,NA,NA,NA,NA,NA,NA,"",NA,"20"
"",NA,"",NA,"",NA,NA,NA,NA,NA,NA,NA,"","",1,1,"2024-08-24_03h59.22.803","IAT(Formal)","2021.2.3","Win32",142.8571429,"",NA,"",NA,NA,NA,NA,NA,NA,NA,"","","",NA,"i",1,0.551,0,58,58,30,1,"卑鄙","i","",NA,NA,NA,NA,NA,NA,"",NA,"",NA,NA,NA,NA,NA,NA,NA,"",NA,"",NA,NA,NA,NA,NA,NA,NA,"","","",NA,"",NA,NA,NA,NA,NA,NA,NA,"",NA,"20"
"",NA,"",NA,"",NA,NA,NA,NA,NA,NA,NA,"","",1,1,"2024-08-24_03h59.22.803","IAT(Formal)","2021.2.3","Win32",142.8571429,"",NA,"",NA,NA,NA,NA,NA,NA,NA,"","","",NA,"i",1,0.6612,0,59,59,41,1,"散漫","i","",NA,NA,NA,NA,NA,NA,"",NA,"",NA,NA,NA,NA,NA,NA,NA,"",NA,"",NA,NA,NA,NA,NA,NA,NA,"","","",NA,"",NA,NA,NA,NA,NA,NA,NA,"",NA,"20"
"",NA,"",NA,"",NA,NA,NA,NA,NA,NA,NA,"","",1,1,"2024-08-24_03h59.22.803","IAT(Formal)","2021.2.3","Win32",142.8571429,"",NA,"",NA,NA,NA,NA,NA,NA,NA,"","","",NA,"i",1,0.5009,0,60,60,47,1,"固执","i","",NA,NA,NA,NA,NA,NA,"",NA,"",NA,NA,NA,NA,NA,NA,NA,"",NA,"",NA,NA,NA,NA,NA,NA,NA,"","","",NA,"",NA,NA,NA,NA,NA,NA,NA,"",NA,"20"
"",NA,"",NA,"",NA,NA,NA,NA,NA,NA,NA,"","",1,1,"2024-08-24_03h59.22.803","IAT(Formal)","2021.2.3","Win32",142.8571429,"",NA,"",NA,NA,NA,NA,NA,NA,NA,"","","",NA,"i",1,0.5487,0,61,61,6,1,"他们","i","",NA,NA,NA,NA,NA,NA,"",NA,"",NA,NA,NA,NA,NA,NA,NA,"",NA,"",NA,NA,NA,NA,NA,NA,NA,"","","",NA,"",NA,NA,NA,NA,NA,NA,NA,"",NA,"20"
"",NA,"",NA,"",NA,NA,NA,NA,NA,NA,NA,"","",1,1,"2024-08-24_03h59.22.803","IAT(Formal)","2021.2.3","Win32",142.8571429,"",NA,"",NA,NA,NA,NA,NA,NA,NA,"","","",NA,"i",0,0.4446,0,62,62,54,1,"俺","e","",NA,NA,NA,NA,NA,NA,"",NA,"",NA,NA,NA,NA,NA,NA,NA,"",NA,"",NA,NA,NA,NA,NA,NA,NA,"","","",NA,"",NA,NA,NA,NA,NA,NA,NA,"",NA,"20"
"",NA,"",NA,"",NA,NA,NA,NA,NA,NA,NA,"","",1,1,"2024-08-24_03h59.22.803","IAT(Formal)","2021.2.3","Win32",142.8571429,"",NA,"",NA,NA,NA,NA,NA,NA,NA,"","","",NA,"e",1,0.6875,0,63,63,24,1,"朴实","e","",NA,NA,NA,NA,NA,NA,"",NA,"",NA,NA,NA,NA,NA,NA,NA,"",NA,"",NA,NA,NA,NA,NA,NA,NA,"","","",NA,"",NA,NA,NA,NA,NA,NA,NA,"",NA,"20"
"",NA,"",NA,"",NA,NA,NA,NA,NA,NA,NA,"","",1,1,"2024-08-24_03h59.22.803","IAT(Formal)","2021.2.3","Win32",142.8571429,"",NA,"",NA,NA,NA,NA,NA,NA,NA,"","","",NA,"i",1,0.6033,0,64,64,57,1,"他的","i","",NA,NA,NA,NA,NA,NA,"",NA,"",NA,NA,NA,NA,NA,NA,NA,"",NA,"",NA,NA,NA,NA,NA,NA,NA,"","","",NA,"",NA,NA,NA,NA,NA,NA,NA,"",NA,"20"
"",NA,"",NA,"",NA,NA,NA,NA,NA,NA,NA,"","",1,1,"2024-08-24_03h59.22.803","IAT(Formal)","2021.2.3","Win32",142.8571429,"",NA,"",NA,NA,NA,NA,NA,NA,NA,"","","",NA,"i",1,0.5766,0,65,65,45,1,"猖狂","i","",NA,NA,NA,NA,NA,NA,"",NA,"",NA,NA,NA,NA,NA,NA,NA,"",NA,"",NA,NA,NA,NA,NA,NA,NA,"","","",NA,"",NA,NA,NA,NA,NA,NA,NA,"",NA,"20"
"",NA,"",NA,"",NA,NA,NA,NA,NA,NA,NA,"","",1,1,"2024-08-24_03h59.22.803","IAT(Formal)","2021.2.3","Win32",142.8571429,"",NA,"",NA,NA,NA,NA,NA,NA,NA,"","","",NA,"i",1,0.6807,0,66,66,33,1,"刻薄","i","",NA,NA,NA,NA,NA,NA,"",NA,"",NA,NA,NA,NA,NA,NA,NA,"",NA,"",NA,NA,NA,NA,NA,NA,NA,"","","",NA,"",NA,NA,NA,NA,NA,NA,NA,"",NA,"20"
"",NA,"",NA,"",NA,NA,NA,NA,NA,NA,NA,"","",1,1,"2024-08-24_03h59.22.803","IAT(Formal)","2021.2.3","Win32",142.8571429,"",NA,"",NA,NA,NA,NA,NA,NA,NA,"","","",NA,"i",0,0.5167,0,67,67,22,1,"无私","e","",NA,NA,NA,NA,NA,NA,"",NA,"",NA,NA,NA,NA,NA,NA,NA,"",NA,"",NA,NA,NA,NA,NA,NA,NA,"","","",NA,"",NA,NA,NA,NA,NA,NA,NA,"",NA,"20"
"",NA,"",NA,"",NA,NA,NA,NA,NA,NA,NA,"","",1,1,"2024-08-24_03h59.22.803","IAT(Formal)","2021.2.3","Win32",142.8571429,"",NA,"",NA,NA,NA,NA,NA,NA,NA,"","","",NA,"e",1,0.6319,0,68,68,2,1,"我们","e","",NA,NA,NA,NA,NA,NA,"",NA,"",NA,NA,NA,NA,NA,NA,NA,"",NA,"",NA,NA,NA,NA,NA,NA,NA,"","","",NA,"",NA,NA,NA,NA,NA,NA,NA,"",NA,"20"
"",NA,"",NA,"",NA,NA,NA,NA,NA,NA,NA,"","",1,1,"2024-08-24_03h59.22.803","IAT(Formal)","2021.2.3","Win32",142.8571429,"",NA,"",NA,NA,NA,NA,NA,NA,NA,"","","",NA,"i",1,0.4931,0,69,69,56,1,"他们","i","",NA,NA,NA,NA,NA,NA,"",NA,"",NA,NA,NA,NA,NA,NA,NA,"",NA,"",NA,NA,NA,NA,NA,NA,NA,"","","",NA,"",NA,NA,NA,NA,NA,NA,NA,"",NA,"20"
"",NA,"",NA,"",NA,NA,NA,NA,NA,NA,NA,"","",1,1,"2024-08-24_03h59.22.803","IAT(Formal)","2021.2.3","Win32",142.8571429,"",NA,"",NA,NA,NA,NA,NA,NA,NA,"","","",NA,"e",1,0.5478,0,70,70,18,1,"勤奋","e","",NA,NA,NA,NA,NA,NA,"",NA,"",NA,NA,NA,NA,NA,NA,NA,"",NA,"",NA,NA,NA,NA,NA,NA,NA,"","","",NA,"",NA,NA,NA,NA,NA,NA,NA,"",NA,"20"
"",NA,"",NA,"",NA,NA,NA,NA,NA,NA,NA,"","",1,1,"2024-08-24_03h59.22.803","IAT(Formal)","2021.2.3","Win32",142.8571429,"",NA,"",NA,NA,NA,NA,NA,NA,NA,"","","",NA,"e",1,0.4653,0,71,71,15,1,"诚实","e","",NA,NA,NA,NA,NA,NA,"",NA,"",NA,NA,NA,NA,NA,NA,NA,"",NA,"",NA,NA,NA,NA,NA,NA,NA,"","","",NA,"",NA,NA,NA,NA,NA,NA,NA,"",NA,"20"
"",NA,"",NA,"",NA,NA,NA,NA,NA,NA,NA,"","",1,1,"2024-08-24_03h59.22.803","IAT(Formal)","2021.2.3","Win32",142.8571429,"",NA,"",NA,NA,NA,NA,NA,NA,NA,"","","",NA,"e",1,0.4933,0,72,72,10,1,"优秀","e","",NA,NA,NA,NA,NA,NA,"",NA,"",NA,NA,NA,NA,NA,NA,NA,"",NA,"",NA,NA,NA,NA,NA,NA,NA,"","","",NA,"",NA,NA,NA,NA,NA,NA,NA,"",NA,"20"
"",NA,"",NA,"",NA,NA,NA,NA,NA,NA,NA,"","",1,1,"2024-08-24_03h59.22.803","IAT(Formal)","2021.2.3","Win32",142.8571429,"",NA,"",NA,NA,NA,NA,NA,NA,NA,"","","",NA,"i",1,0.6529,0,73,73,42,1,"凶狠","i","",NA,NA,NA,NA,NA,NA,"",NA,"",NA,NA,NA,NA,NA,NA,NA,"",NA,"",NA,NA,NA,NA,NA,NA,NA,"","","",NA,"",NA,NA,NA,NA,NA,NA,NA,"",NA,"20"
"",NA,"",NA,"",NA,NA,NA,NA,NA,NA,NA,"","",1,1,"2024-08-24_03h59.22.803","IAT(Formal)","2021.2.3","Win32",142.8571429,"",NA,"",NA,NA,NA,NA,NA,NA,NA,"","","",NA,"e",1,0.5904,0,74,74,60,1,"我","e","",NA,NA,NA,NA,NA,NA,"",NA,"",NA,NA,NA,NA,NA,NA,NA,"",NA,"",NA,NA,NA,NA,NA,NA,NA,"","","",NA,"",NA,NA,NA,NA,NA,NA,NA,"",NA,"20"
"",NA,"",NA,"",NA,NA,NA,NA,NA,NA,NA,"","",1,1,"2024-08-24_03h59.22.803","IAT(Formal)","2021.2.3","Win32",142.8571429,"",NA,"",NA,NA,NA,NA,NA,NA,NA,"","","",NA,"e",1,0.632,0,75,75,74,1,"俺","e","",NA,NA,NA,NA,NA,NA,"",NA,"",NA,NA,NA,NA,NA,NA,NA,"",NA,"",NA,NA,NA,NA,NA,NA,NA,"","","",NA,"",NA,NA,NA,NA,NA,NA,NA,"",NA,"20"
"",NA,"",NA,"",NA,NA,NA,NA,NA,NA,NA,"","",1,1,"2024-08-24_03h59.22.803","IAT(Formal)","2021.2.3","Win32",142.8571429,"",NA,"",NA,NA,NA,NA,NA,NA,NA,"","","",NA,"i",1,0.5974,0,76,76,44,1,"暴躁","i","",NA,NA,NA,NA,NA,NA,"",NA,"",NA,NA,NA,NA,NA,NA,NA,"",NA,"",NA,NA,NA,NA,NA,NA,NA,"","","",NA,"",NA,NA,NA,NA,NA,NA,NA,"",NA,"20"
"",NA,"",NA,"",NA,NA,NA,NA,NA,NA,NA,"","",1,1,"2024-08-24_03h59.22.803","IAT(Formal)","2021.2.3","Win32",142.8571429,"",NA,"",NA,NA,NA,NA,NA,NA,NA,"","","",NA,"i",1,0.6044,0,77,77,38,1,"鲁莽","i","",NA,NA,NA,NA,NA,NA,"",NA,"",NA,NA,NA,NA,NA,NA,NA,"",NA,"",NA,NA,NA,NA,NA,NA,NA,"","","",NA,"",NA,NA,NA,NA,NA,NA,NA,"",NA,"20"
"",NA,"",NA,"",NA,NA,NA,NA,NA,NA,NA,"","",1,1,"2024-08-24_03h59.22.803","IAT(Formal)","2021.2.3","Win32",142.8571429,"",NA,"",NA,NA,NA,NA,NA,NA,NA,"","","",NA,"e",0,1.0139,0,78,78,48,1,"轻率","i","",NA,NA,NA,NA,NA,NA,"",NA,"",NA,NA,NA,NA,NA,NA,NA,"",NA,"",NA,NA,NA,NA,NA,NA,NA,"","","",NA,"",NA,NA,NA,NA,NA,NA,NA,"",NA,"20"
"",NA,"",NA,"",NA,NA,NA,NA,NA,NA,NA,"","",1,1,"2024-08-24_03h59.22.803","IAT(Formal)","2021.2.3","Win32",142.8571429,"",NA,"",NA,NA,NA,NA,NA,NA,NA,"","","",NA,"e",1,0.7151,0,79,79,28,1,"活泼","e","",NA,NA,NA,NA,NA,NA,"",NA,"",NA,NA,NA,NA,NA,NA,NA,"",NA,"",NA,NA,NA,NA,NA,NA,NA,"","","",NA,"",NA,NA,NA,NA,NA,NA,NA,"",NA,"20"
"",NA,"",NA,"",NA,NA,NA,NA,NA,NA,NA,"","",1,1,"2024-08-24_03h59.22.803","IAT(Formal)","2021.2.3","Win32",142.8571429,"",NA,"",NA,NA,NA,NA,NA,NA,NA,"","","",NA,"e",1,0.4715,NA,NA,NA,NA,NA,"乐观","e","space",14.4626,0,0,0,14,1,"",NA,"",NA,NA,NA,NA,NA,NA,NA,"",NA,"",NA,NA,NA,NA,NA,NA,NA,"","","",NA,"",NA,NA,NA,NA,NA,NA,NA,"",NA,"20"
"",NA,"",NA,"",NA,NA,NA,NA,NA,NA,NA,"","",1,1,"2024-08-24_03h59.22.803","IAT(Formal)","2021.2.3","Win32",142.8571429,"",NA,"",NA,NA,NA,NA,NA,NA,NA,"","","",NA,"i",1,0.4979,NA,NA,NA,NA,NA,"其他","i","",NA,0,1,1,9,1,"",NA,"",NA,NA,NA,NA,NA,NA,NA,"",NA,"",NA,NA,NA,NA,NA,NA,NA,"","","",NA,"",NA,NA,NA,NA,NA,NA,NA,"",NA,"20"
"",NA,"",NA,"",NA,NA,NA,NA,NA,NA,NA,"","",1,1,"2024-08-24_03h59.22.803","IAT(Formal)","2021.2.3","Win32",142.8571429,"",NA,"",NA,NA,NA,NA,NA,NA,NA,"","","",NA,"e",1,0.4029,NA,NA,NA,NA,NA,"我","e","",NA,0,2,2,70,1,"",NA,"",NA,NA,NA,NA,NA,NA,NA,"",NA,"",NA,NA,NA,NA,NA,NA,NA,"","","",NA,"",NA,NA,NA,NA,NA,NA,NA,"",NA,"20"
"",NA,"",NA,"",NA,NA,NA,NA,NA,NA,NA,"","",1,1,"2024-08-24_03h59.22.803","IAT(Formal)","2021.2.3","Win32",142.8571429,"",NA,"",NA,NA,NA,NA,NA,NA,NA,"","","",NA,"i",1,0.6088,NA,NA,NA,NA,NA,"他们","i","",NA,0,3,3,66,1,"",NA,"",NA,NA,NA,NA,NA,NA,NA,"",NA,"",NA,NA,NA,NA,NA,NA,NA,"","","",NA,"",NA,NA,NA,NA,NA,NA,NA,"",NA,"20"
"",NA,"",NA,"",NA,NA,NA,NA,NA,NA,NA,"","",1,1,"2024-08-24_03h59.22.803","IAT(Formal)","2021.2.3","Win32",142.8571429,"",NA,"",NA,NA,NA,NA,NA,NA,NA,"","","",NA,"i",1,0.6702,NA,NA,NA,NA,NA,"卑鄙","i","",NA,0,4,4,30,1,"",NA,"",NA,NA,NA,NA,NA,NA,NA,"",NA,"",NA,NA,NA,NA,NA,NA,NA,"","","",NA,"",NA,NA,NA,NA,NA,NA,NA,"",NA,"20"
"",NA,"",NA,"",NA,NA,NA,NA,NA,NA,NA,"","",1,1,"2024-08-24_03h59.22.803","IAT(Formal)","2021.2.3","Win32",142.8571429,"",NA,"",NA,NA,NA,NA,NA,NA,NA,"","","",NA,"e",1,0.4425,NA,NA,NA,NA,NA,"我","e","",NA,0,5,5,50,1,"",NA,"",NA,NA,NA,NA,NA,NA,NA,"",NA,"",NA,NA,NA,NA,NA,NA,NA,"","","",NA,"",NA,NA,NA,NA,NA,NA,NA,"",NA,"20"
"",NA,"",NA,"",NA,NA,NA,NA,NA,NA,NA,"","",1,1,"2024-08-24_03h59.22.803","IAT(Formal)","2021.2.3","Win32",142.8571429,"",NA,"",NA,NA,NA,NA,NA,NA,NA,"","","",NA,"i",1,0.5322,NA,NA,NA,NA,NA,"自卑","i","",NA,0,6,6,36,1,"",NA,"",NA,NA,NA,NA,NA,NA,NA,"",NA,"",NA,NA,NA,NA,NA,NA,NA,"","","",NA,"",NA,NA,NA,NA,NA,NA,NA,"",NA,"20"
"",NA,"",NA,"",NA,NA,NA,NA,NA,NA,NA,"","",1,1,"2024-08-24_03h59.22.803","IAT(Formal)","2021.2.3","Win32",142.8571429,"",NA,"",NA,NA,NA,NA,NA,NA,NA,"","","",NA,"e",1,0.5394,NA,NA,NA,NA,NA,"我","e","",NA,0,7,7,0,1,"",NA,"",NA,NA,NA,NA,NA,NA,NA,"",NA,"",NA,NA,NA,NA,NA,NA,NA,"","","",NA,"",NA,NA,NA,NA,NA,NA,NA,"",NA,"20"
"",NA,"",NA,"",NA,NA,NA,NA,NA,NA,NA,"","",1,1,"2024-08-24_03h59.22.803","IAT(Formal)","2021.2.3","Win32",142.8571429,"",NA,"",NA,NA,NA,NA,NA,NA,NA,"","","",NA,"e",1,0.6461,NA,NA,NA,NA,NA,"崇高","e","",NA,0,8,8,11,1,"",NA,"",NA,NA,NA,NA,NA,NA,NA,"",NA,"",NA,NA,NA,NA,NA,NA,NA,"","","",NA,"",NA,NA,NA,NA,NA,NA,NA,"",NA,"20"
"",NA,"",NA,"",NA,NA,NA,NA,NA,NA,NA,"","",1,1,"2024-08-24_03h59.22.803","IAT(Formal)","2021.2.3","Win32",142.8571429,"",NA,"",NA,NA,NA,NA,NA,NA,NA,"","","",NA,"e",1,0.5297,NA,NA,NA,NA,NA,"稳重","e","",NA,0,9,9,21,1,"",NA,"",NA,NA,NA,NA,NA,NA,NA,"",NA,"",NA,NA,NA,NA,NA,NA,NA,"","","",NA,"",NA,NA,NA,NA,NA,NA,NA,"",NA,"20"
"",NA,"",NA,"",NA,NA,NA,NA,NA,NA,NA,"","",1,1,"2024-08-24_03h59.22.803","IAT(Formal)","2021.2.3","Win32",142.8571429,"",NA,"",NA,NA,NA,NA,NA,NA,NA,"","","",NA,"i",1,0.5461,NA,NA,NA,NA,NA,"悲观","i","",NA,0,10,10,34,1,"",NA,"",NA,NA,NA,NA,NA,NA,NA,"",NA,"",NA,NA,NA,NA,NA,NA,NA,"","","",NA,"",NA,NA,NA,NA,NA,NA,NA,"",NA,"20"
"",NA,"",NA,"",NA,NA,NA,NA,NA,NA,NA,"","",1,1,"2024-08-24_03h59.22.803","IAT(Formal)","2021.2.3","Win32",142.8571429,"",NA,"",NA,NA,NA,NA,NA,NA,NA,"","","",NA,"i",1,0.4698,NA,NA,NA,NA,NA,"下贱","i","",NA,0,11,11,49,1,"",NA,"",NA,NA,NA,NA,NA,NA,NA,"",NA,"",NA,NA,NA,NA,NA,NA,NA,"","","",NA,"",NA,NA,NA,NA,NA,NA,NA,"",NA,"20"
"",NA,"",NA,"",NA,NA,NA,NA,NA,NA,NA,"","",1,1,"2024-08-24_03h59.22.803","IAT(Formal)","2021.2.3","Win32",142.8571429,"",NA,"",NA,NA,NA,NA,NA,NA,NA,"","","",NA,"e",1,0.5304,NA,NA,NA,NA,NA,"活泼","e","",NA,0,12,12,28,1,"",NA,"",NA,NA,NA,NA,NA,NA,NA,"",NA,"",NA,NA,NA,NA,NA,NA,NA,"","","",NA,"",NA,NA,NA,NA,NA,NA,NA,"",NA,"20"
"",NA,"",NA,"",NA,NA,NA,NA,NA,NA,NA,"","",1,1,"2024-08-24_03h59.22.803","IAT(Formal)","2021.2.3","Win32",142.8571429,"",NA,"",NA,NA,NA,NA,NA,NA,NA,"","","",NA,"i",1,0.5749,NA,NA,NA,NA,NA,"他的","i","",NA,0,13,13,67,1,"",NA,"",NA,NA,NA,NA,NA,NA,NA,"",NA,"",NA,NA,NA,NA,NA,NA,NA,"","","",NA,"",NA,NA,NA,NA,NA,NA,NA,"",NA,"20"
"",NA,"",NA,"",NA,NA,NA,NA,NA,NA,NA,"","",1,1,"2024-08-24_03h59.22.803","IAT(Formal)","2021.2.3","Win32",142.8571429,"",NA,"",NA,NA,NA,NA,NA,NA,NA,"","","",NA,"i",1,0.5124,NA,NA,NA,NA,NA,"野蛮","i","",NA,0,14,14,46,1,"",NA,"",NA,NA,NA,NA,NA,NA,NA,"",NA,"",NA,NA,NA,NA,NA,NA,NA,"","","",NA,"",NA,NA,NA,NA,NA,NA,NA,"",NA,"20"
"",NA,"",NA,"",NA,NA,NA,NA,NA,NA,NA,"","",1,1,"2024-08-24_03h59.22.803","IAT(Formal)","2021.2.3","Win32",142.8571429,"",NA,"",NA,NA,NA,NA,NA,NA,NA,"","","",NA,"i",1,0.4598,NA,NA,NA,NA,NA,"他人","i","",NA,0,15,15,68,1,"",NA,"",NA,NA,NA,NA,NA,NA,NA,"",NA,"",NA,NA,NA,NA,NA,NA,NA,"","","",NA,"",NA,NA,NA,NA,NA,NA,NA,"",NA,"20"
"",NA,"",NA,"",NA,NA,NA,NA,NA,NA,NA,"","",1,1,"2024-08-24_03h59.22.803","IAT(Formal)","2021.2.3","Win32",142.8571429,"",NA,"",NA,NA,NA,NA,NA,NA,NA,"","","",NA,"e",1,0.5207,NA,NA,NA,NA,NA,"杰出","e","",NA,0,16,16,13,1,"",NA,"",NA,NA,NA,NA,NA,NA,NA,"",NA,"",NA,NA,NA,NA,NA,NA,NA,"","","",NA,"",NA,NA,NA,NA,NA,NA,NA,"",NA,"20"
"",NA,"",NA,"",NA,NA,NA,NA,NA,NA,NA,"","",1,1,"2024-08-24_03h59.22.803","IAT(Formal)","2021.2.3","Win32",142.8571429,"",NA,"",NA,NA,NA,NA,NA,NA,NA,"","","",NA,"e",1,0.6226,NA,NA,NA,NA,NA,"俺","e","",NA,0,17,17,74,1,"",NA,"",NA,NA,NA,NA,NA,NA,NA,"",NA,"",NA,NA,NA,NA,NA,NA,NA,"","","",NA,"",NA,NA,NA,NA,NA,NA,NA,"",NA,"20"
"",NA,"",NA,"",NA,NA,NA,NA,NA,NA,NA,"","",1,1,"2024-08-24_03h59.22.803","IAT(Formal)","2021.2.3","Win32",142.8571429,"",NA,"",NA,NA,NA,NA,NA,NA,NA,"","","",NA,"i",1,0.4903,NA,NA,NA,NA,NA,"固执","i","",NA,0,18,18,47,1,"",NA,"",NA,NA,NA,NA,NA,NA,NA,"",NA,"",NA,NA,NA,NA,NA,NA,NA,"","","",NA,"",NA,NA,NA,NA,NA,NA,NA,"",NA,"20"
"",NA,"",NA,"",NA,NA,NA,NA,NA,NA,NA,"","",1,1,"2024-08-24_03h59.22.803","IAT(Formal)","2021.2.3","Win32",142.8571429,"",NA,"",NA,NA,NA,NA,NA,NA,NA,"","","",NA,"e",1,0.4654,NA,NA,NA,NA,NA,"勤奋","e","",NA,0,19,19,18,1,"",NA,"",NA,NA,NA,NA,NA,NA,NA,"",NA,"",NA,NA,NA,NA,NA,NA,NA,"","","",NA,"",NA,NA,NA,NA,NA,NA,NA,"",NA,"20"
"",NA,"",NA,"",NA,NA,NA,NA,NA,NA,NA,"","",1,1,"2024-08-24_03h59.22.803","IAT(Formal)","2021.2.3","Win32",142.8571429,"",NA,"",NA,NA,NA,NA,NA,NA,NA,"","","",NA,"i",1,0.509,NA,NA,NA,NA,NA,"愚蠢","i","",NA,0,20,20,32,1,"",NA,"",NA,NA,NA,NA,NA,NA,NA,"",NA,"",NA,NA,NA,NA,NA,NA,NA,"","","",NA,"",NA,NA,NA,NA,NA,NA,NA,"",NA,"20"
"",NA,"",NA,"",NA,NA,NA,NA,NA,NA,NA,"","",1,1,"2024-08-24_03h59.22.803","IAT(Formal)","2021.2.3","Win32",142.8571429,"",NA,"",NA,NA,NA,NA,NA,NA,NA,"","","",NA,"e",1,0.4127,NA,NA,NA,NA,NA,"我","e","",NA,0,21,21,60,1,"",NA,"",NA,NA,NA,NA,NA,NA,NA,"",NA,"",NA,NA,NA,NA,NA,NA,NA,"","","",NA,"",NA,NA,NA,NA,NA,NA,NA,"",NA,"20"
"",NA,"",NA,"",NA,NA,NA,NA,NA,NA,NA,"","",1,1,"2024-08-24_03h59.22.803","IAT(Formal)","2021.2.3","Win32",142.8571429,"",NA,"",NA,NA,NA,NA,NA,NA,NA,"","","",NA,"i",1,0.5277,NA,NA,NA,NA,NA,"他","i","",NA,0,22,22,5,1,"",NA,"",NA,NA,NA,NA,NA,NA,NA,"",NA,"",NA,NA,NA,NA,NA,NA,NA,"","","",NA,"",NA,NA,NA,NA,NA,NA,NA,"",NA,"20"
"",NA,"",NA,"",NA,NA,NA,NA,NA,NA,NA,"","",1,1,"2024-08-24_03h59.22.803","IAT(Formal)","2021.2.3","Win32",142.8571429,"",NA,"",NA,NA,NA,NA,NA,NA,NA,"","","",NA,"i",1,0.6539,NA,NA,NA,NA,NA,"傲慢","i","",NA,0,23,23,37,1,"",NA,"",NA,NA,NA,NA,NA,NA,NA,"",NA,"",NA,NA,NA,NA,NA,NA,NA,"","","",NA,"",NA,NA,NA,NA,NA,NA,NA,"",NA,"20"
"",NA,"",NA,"",NA,NA,NA,NA,NA,NA,NA,"","",1,1,"2024-08-24_03h59.22.803","IAT(Formal)","2021.2.3","Win32",142.8571429,"",NA,"",NA,NA,NA,NA,NA,NA,NA,"","","",NA,"e",1,0.6945,NA,NA,NA,NA,NA,"俺","e","",NA,0,24,24,54,1,"",NA,"",NA,NA,NA,NA,NA,NA,NA,"",NA,"",NA,NA,NA,NA,NA,NA,NA,"","","",NA,"",NA,NA,NA,NA,NA,NA,NA,"",NA,"20"
"",NA,"",NA,"",NA,NA,NA,NA,NA,NA,NA,"","",1,1,"2024-08-24_03h59.22.803","IAT(Formal)","2021.2.3","Win32",142.8571429,"",NA,"",NA,NA,NA,NA,NA,NA,NA,"","","",NA,"i",1,1.0972,NA,NA,NA,NA,NA,"冒失","i","",NA,0,25,25,39,1,"",NA,"",NA,NA,NA,NA,NA,NA,NA,"",NA,"",NA,NA,NA,NA,NA,NA,NA,"","","",NA,"",NA,NA,NA,NA,NA,NA,NA,"",NA,"20"
"",NA,"",NA,"",NA,NA,NA,NA,NA,NA,NA,"","",1,1,"2024-08-24_03h59.22.803","IAT(Formal)","2021.2.3","Win32",142.8571429,"",NA,"",NA,NA,NA,NA,NA,NA,NA,"","","",NA,"i",1,0.598,NA,NA,NA,NA,NA,"执拗","i","",NA,0,26,26,40,1,"",NA,"",NA,NA,NA,NA,NA,NA,NA,"",NA,"",NA,NA,NA,NA,NA,NA,NA,"","","",NA,"",NA,NA,NA,NA,NA,NA,NA,"",NA,"20"
"",NA,"",NA,"",NA,NA,NA,NA,NA,NA,NA,"","",1,1,"2024-08-24_03h59.22.803","IAT(Formal)","2021.2.3","Win32",142.8571429,"",NA,"",NA,NA,NA,NA,NA,NA,NA,"","","",NA,"e",1,0.4586,NA,NA,NA,NA,NA,"优秀","e","",NA,0,27,27,10,1,"",NA,"",NA,NA,NA,NA,NA,NA,NA,"",NA,"",NA,NA,NA,NA,NA,NA,NA,"","","",NA,"",NA,NA,NA,NA,NA,NA,NA,"",NA,"20"
"",NA,"",NA,"",NA,NA,NA,NA,NA,NA,NA,"","",1,1,"2024-08-24_03h59.22.803","IAT(Formal)","2021.2.3","Win32",142.8571429,"",NA,"",NA,NA,NA,NA,NA,NA,NA,"","","",NA,"i",1,0.5217,NA,NA,NA,NA,NA,"暴躁","i","",NA,0,28,28,44,1,"",NA,"",NA,NA,NA,NA,NA,NA,NA,"",NA,"",NA,NA,NA,NA,NA,NA,NA,"","","",NA,"",NA,NA,NA,NA,NA,NA,NA,"",NA,"20"
"",NA,"",NA,"",NA,NA,NA,NA,NA,NA,NA,"","",1,1,"2024-08-24_03h59.22.803","IAT(Formal)","2021.2.3","Win32",142.8571429,"",NA,"",NA,NA,NA,NA,NA,NA,NA,"","","",NA,"e",1,0.4516,NA,NA,NA,NA,NA,"勇敢","e","",NA,0,29,29,17,1,"",NA,"",NA,NA,NA,NA,NA,NA,NA,"",NA,"",NA,NA,NA,NA,NA,NA,NA,"","","",NA,"",NA,NA,NA,NA,NA,NA,NA,"",NA,"20"
"",NA,"",NA,"",NA,NA,NA,NA,NA,NA,NA,"","",1,1,"2024-08-24_03h59.22.803","IAT(Formal)","2021.2.3","Win32",142.8571429,"",NA,"",NA,NA,NA,NA,NA,NA,NA,"","","",NA,"e",1,0.5975,NA,NA,NA,NA,NA,"俺","e","",NA,0,30,30,64,1,"",NA,"",NA,NA,NA,NA,NA,NA,NA,"",NA,"",NA,NA,NA,NA,NA,NA,NA,"","","",NA,"",NA,NA,NA,NA,NA,NA,NA,"",NA,"20"
"",NA,"",NA,"",NA,NA,NA,NA,NA,NA,NA,"","",1,1,"2024-08-24_03h59.22.803","IAT(Formal)","2021.2.3","Win32",142.8571429,"",NA,"",NA,NA,NA,NA,NA,NA,NA,"","","",NA,"e",1,0.4445,NA,NA,NA,NA,NA,"自己","e","",NA,0,31,31,73,1,"",NA,"",NA,NA,NA,NA,NA,NA,NA,"",NA,"",NA,NA,NA,NA,NA,NA,NA,"","","",NA,"",NA,NA,NA,NA,NA,NA,NA,"",NA,"20"
"",NA,"",NA,"",NA,NA,NA,NA,NA,NA,NA,"","",1,1,"2024-08-24_03h59.22.803","IAT(Formal)","2021.2.3","Win32",142.8571429,"",NA,"",NA,NA,NA,NA,NA,NA,NA,"","","",NA,"e",0,0.4119,NA,NA,NA,NA,NA,"他们","i","",NA,0,32,32,76,1,"",NA,"",NA,NA,NA,NA,NA,NA,NA,"",NA,"",NA,NA,NA,NA,NA,NA,NA,"","","",NA,"",NA,NA,NA,NA,NA,NA,NA,"",NA,"20"
"",NA,"",NA,"",NA,NA,NA,NA,NA,NA,NA,"","",1,1,"2024-08-24_03h59.22.803","IAT(Formal)","2021.2.3","Win32",142.8571429,"",NA,"",NA,NA,NA,NA,NA,NA,NA,"","","",NA,"e",1,0.4746,NA,NA,NA,NA,NA,"我们","e","",NA,0,33,33,62,1,"",NA,"",NA,NA,NA,NA,NA,NA,NA,"",NA,"",NA,NA,NA,NA,NA,NA,NA,"","","",NA,"",NA,NA,NA,NA,NA,NA,NA,"",NA,"20"
"",NA,"",NA,"",NA,NA,NA,NA,NA,NA,NA,"","",1,1,"2024-08-24_03h59.22.803","IAT(Formal)","2021.2.3","Win32",142.8571429,"",NA,"",NA,NA,NA,NA,NA,NA,NA,"","","",NA,"e",1,0.4958,NA,NA,NA,NA,NA,"机智","e","",NA,0,34,34,19,1,"",NA,"",NA,NA,NA,NA,NA,NA,NA,"",NA,"",NA,NA,NA,NA,NA,NA,NA,"","","",NA,"",NA,NA,NA,NA,NA,NA,NA,"",NA,"20"
"",NA,"",NA,"",NA,NA,NA,NA,NA,NA,NA,"","",1,1,"2024-08-24_03h59.22.803","IAT(Formal)","2021.2.3","Win32",142.8571429,"",NA,"",NA,NA,NA,NA,NA,NA,NA,"","","",NA,"i",1,0.5569,NA,NA,NA,NA,NA,"他人","i","",NA,0,35,35,8,1,"",NA,"",NA,NA,NA,NA,NA,NA,NA,"",NA,"",NA,NA,NA,NA,NA,NA,NA,"","","",NA,"",NA,NA,NA,NA,NA,NA,NA,"",NA,"20"
"",NA,"",NA,"",NA,NA,NA,NA,NA,NA,NA,"","",1,1,"2024-08-24_03h59.22.803","IAT(Formal)","2021.2.3","Win32",142.8571429,"",NA,"",NA,NA,NA,NA,NA,NA,NA,"","","",NA,"e",1,0.612,NA,NA,NA,NA,NA,"公正","e","",NA,0,36,36,23,1,"",NA,"",NA,NA,NA,NA,NA,NA,NA,"",NA,"",NA,NA,NA,NA,NA,NA,NA,"","","",NA,"",NA,NA,NA,NA,NA,NA,NA,"",NA,"20"
"",NA,"",NA,"",NA,NA,NA,NA,NA,NA,NA,"","",1,1,"2024-08-24_03h59.22.803","IAT(Formal)","2021.2.3","Win32",142.8571429,"",NA,"",NA,NA,NA,NA,NA,NA,NA,"","","",NA,"i",1,0.578,NA,NA,NA,NA,NA,"刻薄","i","",NA,0,37,37,33,1,"",NA,"",NA,NA,NA,NA,NA,NA,NA,"",NA,"",NA,NA,NA,NA,NA,NA,NA,"","","",NA,"",NA,NA,NA,NA,NA,NA,NA,"",NA,"20"
"",NA,"",NA,"",NA,NA,NA,NA,NA,NA,NA,"","",1,1,"2024-08-24_03h59.22.803","IAT(Formal)","2021.2.3","Win32",142.8571429,"",NA,"",NA,NA,NA,NA,NA,NA,NA,"","","",NA,"e",1,0.4364,NA,NA,NA,NA,NA,"我们","e","",NA,0,38,38,52,1,"",NA,"",NA,NA,NA,NA,NA,NA,NA,"",NA,"",NA,NA,NA,NA,NA,NA,NA,"","","",NA,"",NA,NA,NA,NA,NA,NA,NA,"",NA,"20"
"",NA,"",NA,"",NA,NA,NA,NA,NA,NA,NA,"","",1,1,"2024-08-24_03h59.22.803","IAT(Formal)","2021.2.3","Win32",142.8571429,"",NA,"",NA,NA,NA,NA,NA,NA,NA,"","","",NA,"e",1,0.5,NA,NA,NA,NA,NA,"诚实","e","",NA,0,39,39,15,1,"",NA,"",NA,NA,NA,NA,NA,NA,NA,"",NA,"",NA,NA,NA,NA,NA,NA,NA,"","","",NA,"",NA,NA,NA,NA,NA,NA,NA,"",NA,"20"
"",NA,"",NA,"",NA,NA,NA,NA,NA,NA,NA,"","",1,1,"2024-08-24_03h59.22.803","IAT(Formal)","2021.2.3","Win32",142.8571429,"",NA,"",NA,NA,NA,NA,NA,NA,NA,"","","",NA,"e",1,0.5419,NA,NA,NA,NA,NA,"诚恳","e","",NA,0,40,40,29,1,"",NA,"",NA,NA,NA,NA,NA,NA,NA,"",NA,"",NA,NA,NA,NA,NA,NA,NA,"","","",NA,"",NA,NA,NA,NA,NA,NA,NA,"",NA,"20"
"",NA,"",NA,"",NA,NA,NA,NA,NA,NA,NA,"","",1,1,"2024-08-24_03h59.22.803","IAT(Formal)","2021.2.3","Win32",142.8571429,"",NA,"",NA,NA,NA,NA,NA,NA,NA,"","","",NA,"i",1,0.6181,NA,NA,NA,NA,NA,"他人","i","",NA,0,41,41,58,1,"",NA,"",NA,NA,NA,NA,NA,NA,NA,"",NA,"",NA,NA,NA,NA,NA,NA,NA,"","","",NA,"",NA,NA,NA,NA,NA,NA,NA,"",NA,"20"
"",NA,"",NA,"",NA,NA,NA,NA,NA,NA,NA,"","",1,1,"2024-08-24_03h59.22.803","IAT(Formal)","2021.2.3","Win32",142.8571429,"",NA,"",NA,NA,NA,NA,NA,NA,NA,"","","",NA,"e",1,0.4444,NA,NA,NA,NA,NA,"朴实","e","",NA,0,42,42,24,1,"",NA,"",NA,NA,NA,NA,NA,NA,NA,"",NA,"",NA,NA,NA,NA,NA,NA,NA,"","","",NA,"",NA,NA,NA,NA,NA,NA,NA,"",NA,"20"
"",NA,"",NA,"",NA,NA,NA,NA,NA,NA,NA,"","",1,1,"2024-08-24_03h59.22.803","IAT(Formal)","2021.2.3","Win32",142.8571429,"",NA,"",NA,NA,NA,NA,NA,NA,NA,"","","",NA,"e",1,0.4028,NA,NA,NA,NA,NA,"我的","e","",NA,0,43,43,61,1,"",NA,"",NA,NA,NA,NA,NA,NA,NA,"",NA,"",NA,NA,NA,NA,NA,NA,NA,"","","",NA,"",NA,NA,NA,NA,NA,NA,NA,"",NA,"20"
"",NA,"",NA,"",NA,NA,NA,NA,NA,NA,NA,"","",1,1,"2024-08-24_03h59.22.803","IAT(Formal)","2021.2.3","Win32",142.8571429,"",NA,"",NA,NA,NA,NA,NA,NA,NA,"","","",NA,"i",1,0.4862,NA,NA,NA,NA,NA,"其他","i","",NA,0,44,44,79,1,"",NA,"",NA,NA,NA,NA,NA,NA,NA,"",NA,"",NA,NA,NA,NA,NA,NA,NA,"","","",NA,"",NA,NA,NA,NA,NA,NA,NA,"",NA,"20"
"",NA,"",NA,"",NA,NA,NA,NA,NA,NA,NA,"","",1,1,"2024-08-24_03h59.22.803","IAT(Formal)","2021.2.3","Win32",142.8571429,"",NA,"",NA,NA,NA,NA,NA,NA,NA,"","","",NA,"e",1,0.5717,NA,NA,NA,NA,NA,"聪明","e","",NA,0,45,45,12,1,"",NA,"",NA,NA,NA,NA,NA,NA,NA,"",NA,"",NA,NA,NA,NA,NA,NA,NA,"","","",NA,"",NA,NA,NA,NA,NA,NA,NA,"",NA,"20"
"",NA,"",NA,"",NA,NA,NA,NA,NA,NA,NA,"","",1,1,"2024-08-24_03h59.22.803","IAT(Formal)","2021.2.3","Win32",142.8571429,"",NA,"",NA,NA,NA,NA,NA,NA,NA,"","","",NA,"i",1,0.8139,NA,NA,NA,NA,NA,"他","i","",NA,0,46,46,55,1,"",NA,"",NA,NA,NA,NA,NA,NA,NA,"",NA,"",NA,NA,NA,NA,NA,NA,NA,"","","",NA,"",NA,NA,NA,NA,NA,NA,NA,"",NA,"20"
"",NA,"",NA,"",NA,NA,NA,NA,NA,NA,NA,"","",1,1,"2024-08-24_03h59.22.803","IAT(Formal)","2021.2.3","Win32",142.8571429,"",NA,"",NA,NA,NA,NA,NA,NA,NA,"","","",NA,"e",1,0.5486,NA,NA,NA,NA,NA,"热情","e","",NA,0,47,47,27,1,"",NA,"",NA,NA,NA,NA,NA,NA,NA,"",NA,"",NA,NA,NA,NA,NA,NA,NA,"","","",NA,"",NA,NA,NA,NA,NA,NA,NA,"",NA,"20"
"",NA,"",NA,"",NA,NA,NA,NA,NA,NA,NA,"","",1,1,"2024-08-24_03h59.22.803","IAT(Formal)","2021.2.3","Win32",142.8571429,"",NA,"",NA,NA,NA,NA,NA,NA,NA,"","","",NA,"e",1,0.4724,NA,NA,NA,NA,NA,"认真","e","",NA,0,48,48,20,1,"",NA,"",NA,NA,NA,NA,NA,NA,NA,"",NA,"",NA,NA,NA,NA,NA,NA,NA,"","","",NA,"",NA,NA,NA,NA,NA,NA,NA,"",NA,"20"
"",NA,"",NA,"",NA,NA,NA,NA,NA,NA,NA,"","",1,1,"2024-08-24_03h59.22.803","IAT(Formal)","2021.2.3","Win32",142.8571429,"",NA,"",NA,NA,NA,NA,NA,NA,NA,"","","",NA,"i",1,0.5348,NA,NA,NA,NA,NA,"其他","i","",NA,0,49,49,59,1,"",NA,"",NA,NA,NA,NA,NA,NA,NA,"",NA,"",NA,NA,NA,NA,NA,NA,NA,"","","",NA,"",NA,NA,NA,NA,NA,NA,NA,"",NA,"20"
"",NA,"",NA,"",NA,NA,NA,NA,NA,NA,NA,"","",1,1,"2024-08-24_03h59.22.803","IAT(Formal)","2021.2.3","Win32",142.8571429,"",NA,"",NA,NA,NA,NA,NA,NA,NA,"","","",NA,"i",1,0.7639,NA,NA,NA,NA,NA,"散漫","i","",NA,0,50,50,41,1,"",NA,"",NA,NA,NA,NA,NA,NA,NA,"",NA,"",NA,NA,NA,NA,NA,NA,NA,"","","",NA,"",NA,NA,NA,NA,NA,NA,NA,"",NA,"20"
"",NA,"",NA,"",NA,NA,NA,NA,NA,NA,NA,"","",1,1,"2024-08-24_03h59.22.803","IAT(Formal)","2021.2.3","Win32",142.8571429,"",NA,"",NA,NA,NA,NA,NA,NA,NA,"","","",NA,"e",1,0.8253,NA,NA,NA,NA,NA,"冷静","e","",NA,0,51,51,26,1,"",NA,"",NA,NA,NA,NA,NA,NA,NA,"",NA,"",NA,NA,NA,NA,NA,NA,NA,"","","",NA,"",NA,NA,NA,NA,NA,NA,NA,"",NA,"20"
"",NA,"",NA,"",NA,NA,NA,NA,NA,NA,NA,"","",1,1,"2024-08-24_03h59.22.803","IAT(Formal)","2021.2.3","Win32",142.8571429,"",NA,"",NA,NA,NA,NA,NA,NA,NA,"","","",NA,"i",1,0.8116,NA,NA,NA,NA,NA,"他的","i","",NA,0,52,52,57,1,"",NA,"",NA,NA,NA,NA,NA,NA,NA,"",NA,"",NA,NA,NA,NA,NA,NA,NA,"","","",NA,"",NA,NA,NA,NA,NA,NA,NA,"",NA,"20"
"",NA,"",NA,"",NA,NA,NA,NA,NA,NA,NA,"","",1,1,"2024-08-24_03h59.22.803","IAT(Formal)","2021.2.3","Win32",142.8571429,"",NA,"",NA,NA,NA,NA,NA,NA,NA,"","","",NA,"e",1,0.4878,NA,NA,NA,NA,NA,"正直","e","",NA,0,53,53,16,1,"",NA,"",NA,NA,NA,NA,NA,NA,NA,"",NA,"",NA,NA,NA,NA,NA,NA,NA,"","","",NA,"",NA,NA,NA,NA,NA,NA,NA,"",NA,"20"
"",NA,"",NA,"",NA,NA,NA,NA,NA,NA,NA,"","",1,1,"2024-08-24_03h59.22.803","IAT(Formal)","2021.2.3","Win32",142.8571429,"",NA,"",NA,NA,NA,NA,NA,NA,NA,"","","",NA,"i",1,0.7089,NA,NA,NA,NA,NA,"他们","i","",NA,0,54,54,6,1,"",NA,"",NA,NA,NA,NA,NA,NA,NA,"",NA,"",NA,NA,NA,NA,NA,NA,NA,"","","",NA,"",NA,NA,NA,NA,NA,NA,NA,"",NA,"20"
"",NA,"",NA,"",NA,NA,NA,NA,NA,NA,NA,"","",1,1,"2024-08-24_03h59.22.803","IAT(Formal)","2021.2.3","Win32",142.8571429,"",NA,"",NA,NA,NA,NA,NA,NA,NA,"","","",NA,"e",1,0.4721,NA,NA,NA,NA,NA,"无私","e","",NA,0,55,55,22,1,"",NA,"",NA,NA,NA,NA,NA,NA,NA,"",NA,"",NA,NA,NA,NA,NA,NA,NA,"","","",NA,"",NA,NA,NA,NA,NA,NA,NA,"",NA,"20"
"",NA,"",NA,"",NA,NA,NA,NA,NA,NA,NA,"","",1,1,"2024-08-24_03h59.22.803","IAT(Formal)","2021.2.3","Win32",142.8571429,"",NA,"",NA,NA,NA,NA,NA,NA,NA,"","","",NA,"e",1,0.6529,NA,NA,NA,NA,NA,"自己","e","",NA,0,56,56,3,1,"",NA,"",NA,NA,NA,NA,NA,NA,NA,"",NA,"",NA,NA,NA,NA,NA,NA,NA,"","","",NA,"",NA,NA,NA,NA,NA,NA,NA,"",NA,"20"
"",NA,"",NA,"",NA,NA,NA,NA,NA,NA,NA,"","",1,1,"2024-08-24_03h59.22.803","IAT(Formal)","2021.2.3","Win32",142.8571429,"",NA,"",NA,NA,NA,NA,NA,NA,NA,"","","",NA,"e",1,0.403,NA,NA,NA,NA,NA,"自己","e","",NA,0,57,57,53,1,"",NA,"",NA,NA,NA,NA,NA,NA,NA,"",NA,"",NA,NA,NA,NA,NA,NA,NA,"","","",NA,"",NA,NA,NA,NA,NA,NA,NA,"",NA,"20"
"",NA,"",NA,"",NA,NA,NA,NA,NA,NA,NA,"","",1,1,"2024-08-24_03h59.22.803","IAT(Formal)","2021.2.3","Win32",142.8571429,"",NA,"",NA,NA,NA,NA,NA,NA,NA,"","","",NA,"i",1,0.5208,NA,NA,NA,NA,NA,"他们","i","",NA,0,58,58,56,1,"",NA,"",NA,NA,NA,NA,NA,NA,NA,"",NA,"",NA,NA,NA,NA,NA,NA,NA,"","","",NA,"",NA,NA,NA,NA,NA,NA,NA,"",NA,"20"
"",NA,"",NA,"",NA,NA,NA,NA,NA,NA,NA,"","",1,1,"2024-08-24_03h59.22.803","IAT(Formal)","2021.2.3","Win32",142.8571429,"",NA,"",NA,NA,NA,NA,NA,NA,NA,"","","",NA,"i",1,0.5985,NA,NA,NA,NA,NA,"虚伪","i","",NA,0,59,59,31,1,"",NA,"",NA,NA,NA,NA,NA,NA,NA,"",NA,"",NA,NA,NA,NA,NA,NA,NA,"","","",NA,"",NA,NA,NA,NA,NA,NA,NA,"",NA,"20"
"",NA,"",NA,"",NA,NA,NA,NA,NA,NA,NA,"","",1,1,"2024-08-24_03h59.22.803","IAT(Formal)","2021.2.3","Win32",142.8571429,"",NA,"",NA,NA,NA,NA,NA,NA,NA,"","","",NA,"e",0,0.5286,NA,NA,NA,NA,NA,"自私","i","",NA,0,60,60,43,1,"",NA,"",NA,NA,NA,NA,NA,NA,NA,"",NA,"",NA,NA,NA,NA,NA,NA,NA,"","","",NA,"",NA,NA,NA,NA,NA,NA,NA,"",NA,"20"
"",NA,"",NA,"",NA,NA,NA,NA,NA,NA,NA,"","",1,1,"2024-08-24_03h59.22.803","IAT(Formal)","2021.2.3","Win32",142.8571429,"",NA,"",NA,NA,NA,NA,NA,NA,NA,"","","",NA,"i",1,1.2228,NA,NA,NA,NA,NA,"他的","i","",NA,0,61,61,7,1,"",NA,"",NA,NA,NA,NA,NA,NA,NA,"",NA,"",NA,NA,NA,NA,NA,NA,NA,"","","",NA,"",NA,NA,NA,NA,NA,NA,NA,"",NA,"20"
"",NA,"",NA,"",NA,NA,NA,NA,NA,NA,NA,"","",1,1,"2024-08-24_03h59.22.803","IAT(Formal)","2021.2.3","Win32",142.8571429,"",NA,"",NA,NA,NA,NA,NA,NA,NA,"","","",NA,"i",1,0.4305,NA,NA,NA,NA,NA,"他","i","",NA,0,62,62,75,1,"",NA,"",NA,NA,NA,NA,NA,NA,NA,"",NA,"",NA,NA,NA,NA,NA,NA,NA,"","","",NA,"",NA,NA,NA,NA,NA,NA,NA,"",NA,"20"
"",NA,"",NA,"",NA,NA,NA,NA,NA,NA,NA,"","",1,1,"2024-08-24_03h59.22.803","IAT(Formal)","2021.2.3","Win32",142.8571429,"",NA,"",NA,NA,NA,NA,NA,NA,NA,"","","",NA,"i",1,0.4958,NA,NA,NA,NA,NA,"他人","i","",NA,0,63,63,78,1,"",NA,"",NA,NA,NA,NA,NA,NA,NA,"",NA,"",NA,NA,NA,NA,NA,NA,NA,"","","",NA,"",NA,NA,NA,NA,NA,NA,NA,"",NA,"20"
"",NA,"",NA,"",NA,NA,NA,NA,NA,NA,NA,"","",1,1,"2024-08-24_03h59.22.803","IAT(Formal)","2021.2.3","Win32",142.8571429,"",NA,"",NA,NA,NA,NA,NA,NA,NA,"","","",NA,"i",1,0.493,NA,NA,NA,NA,NA,"他的","i","",NA,0,64,64,77,1,"",NA,"",NA,NA,NA,NA,NA,NA,NA,"",NA,"",NA,NA,NA,NA,NA,NA,NA,"","","",NA,"",NA,NA,NA,NA,NA,NA,NA,"",NA,"20"
"",NA,"",NA,"",NA,NA,NA,NA,NA,NA,NA,"","",1,1,"2024-08-24_03h59.22.803","IAT(Formal)","2021.2.3","Win32",142.8571429,"",NA,"",NA,NA,NA,NA,NA,NA,NA,"","","",NA,"e",1,0.4114,NA,NA,NA,NA,NA,"自己","e","",NA,0,65,65,63,1,"",NA,"",NA,NA,NA,NA,NA,NA,NA,"",NA,"",NA,NA,NA,NA,NA,NA,NA,"","","",NA,"",NA,NA,NA,NA,NA,NA,NA,"",NA,"20"
"",NA,"",NA,"",NA,NA,NA,NA,NA,NA,NA,"","",1,1,"2024-08-24_03h59.22.803","IAT(Formal)","2021.2.3","Win32",142.8571429,"",NA,"",NA,NA,NA,NA,NA,NA,NA,"","","",NA,"e",1,0.5558,NA,NA,NA,NA,NA,"细腻","e","",NA,0,66,66,25,1,"",NA,"",NA,NA,NA,NA,NA,NA,NA,"",NA,"",NA,NA,NA,NA,NA,NA,NA,"","","",NA,"",NA,NA,NA,NA,NA,NA,NA,"",NA,"20"
"",NA,"",NA,"",NA,NA,NA,NA,NA,NA,NA,"","",1,1,"2024-08-24_03h59.22.803","IAT(Formal)","2021.2.3","Win32",142.8571429,"",NA,"",NA,NA,NA,NA,NA,NA,NA,"","","",NA,"e",1,0.507,NA,NA,NA,NA,NA,"我们","e","",NA,0,67,67,2,1,"",NA,"",NA,NA,NA,NA,NA,NA,NA,"",NA,"",NA,NA,NA,NA,NA,NA,NA,"","","",NA,"",NA,NA,NA,NA,NA,NA,NA,"",NA,"20"
"",NA,"",NA,"",NA,NA,NA,NA,NA,NA,NA,"","",1,1,"2024-08-24_03h59.22.803","IAT(Formal)","2021.2.3","Win32",142.8571429,"",NA,"",NA,NA,NA,NA,NA,NA,NA,"","","",NA,"e",1,0.431,NA,NA,NA,NA,NA,"我的","e","",NA,0,68,68,51,1,"",NA,"",NA,NA,NA,NA,NA,NA,NA,"",NA,"",NA,NA,NA,NA,NA,NA,NA,"","","",NA,"",NA,NA,NA,NA,NA,NA,NA,"",NA,"20"
"",NA,"",NA,"",NA,NA,NA,NA,NA,NA,NA,"","",1,1,"2024-08-24_03h59.22.803","IAT(Formal)","2021.2.3","Win32",142.8571429,"",NA,"",NA,NA,NA,NA,NA,NA,NA,"","","",NA,"e",0,0.5487,NA,NA,NA,NA,NA,"轻率","i","",NA,0,69,69,48,1,"",NA,"",NA,NA,NA,NA,NA,NA,NA,"",NA,"",NA,NA,NA,NA,NA,NA,NA,"","","",NA,"",NA,NA,NA,NA,NA,NA,NA,"",NA,"20"
"",NA,"",NA,"",NA,NA,NA,NA,NA,NA,NA,"","",1,1,"2024-08-24_03h59.22.803","IAT(Formal)","2021.2.3","Win32",142.8571429,"",NA,"",NA,NA,NA,NA,NA,NA,NA,"","","",NA,"e",1,0.451,NA,NA,NA,NA,NA,"我的","e","",NA,0,70,70,71,1,"",NA,"",NA,NA,NA,NA,NA,NA,NA,"",NA,"",NA,NA,NA,NA,NA,NA,NA,"","","",NA,"",NA,NA,NA,NA,NA,NA,NA,"",NA,"20"
"",NA,"",NA,"",NA,NA,NA,NA,NA,NA,NA,"","",1,1,"2024-08-24_03h59.22.803","IAT(Formal)","2021.2.3","Win32",142.8571429,"",NA,"",NA,NA,NA,NA,NA,NA,NA,"","","",NA,"i",1,0.8956,NA,NA,NA,NA,NA,"他","i","",NA,0,71,71,65,1,"",NA,"",NA,NA,NA,NA,NA,NA,NA,"",NA,"",NA,NA,NA,NA,NA,NA,NA,"","","",NA,"",NA,NA,NA,NA,NA,NA,NA,"",NA,"20"
"",NA,"",NA,"",NA,NA,NA,NA,NA,NA,NA,"","",1,1,"2024-08-24_03h59.22.803","IAT(Formal)","2021.2.3","Win32",142.8571429,"",NA,"",NA,NA,NA,NA,NA,NA,NA,"","","",NA,"e",1,0.5068,NA,NA,NA,NA,NA,"我的","e","",NA,0,72,72,1,1,"",NA,"",NA,NA,NA,NA,NA,NA,NA,"",NA,"",NA,NA,NA,NA,NA,NA,NA,"","","",NA,"",NA,NA,NA,NA,NA,NA,NA,"",NA,"20"
"",NA,"",NA,"",NA,NA,NA,NA,NA,NA,NA,"","",1,1,"2024-08-24_03h59.22.803","IAT(Formal)","2021.2.3","Win32",142.8571429,"",NA,"",NA,NA,NA,NA,NA,NA,NA,"","","",NA,"i",1,0.5506,NA,NA,NA,NA,NA,"鲁莽","i","",NA,0,73,73,38,1,"",NA,"",NA,NA,NA,NA,NA,NA,NA,"",NA,"",NA,NA,NA,NA,NA,NA,NA,"","","",NA,"",NA,NA,NA,NA,NA,NA,NA,"",NA,"20"
"",NA,"",NA,"",NA,NA,NA,NA,NA,NA,NA,"","",1,1,"2024-08-24_03h59.22.803","IAT(Formal)","2021.2.3","Win32",142.8571429,"",NA,"",NA,NA,NA,NA,NA,NA,NA,"","","",NA,"",0,NA,NA,NA,NA,NA,NA,"凶狠","i","",NA,0,74,74,42,1,"",NA,"",NA,NA,NA,NA,NA,NA,NA,"",NA,"",NA,NA,NA,NA,NA,NA,NA,"","","",NA,"",NA,NA,NA,NA,NA,NA,NA,"",NA,"20"
"",NA,"",NA,"",NA,NA,NA,NA,NA,NA,NA,"","",1,1,"2024-08-24_03h59.22.803","IAT(Formal)","2021.2.3","Win32",142.8571429,"",NA,"",NA,NA,NA,NA,NA,NA,NA,"","","",NA,"e",1,0.5974,NA,NA,NA,NA,NA,"俺","e","",NA,0,75,75,4,1,"",NA,"",NA,NA,NA,NA,NA,NA,NA,"",NA,"",NA,NA,NA,NA,NA,NA,NA,"","","",NA,"",NA,NA,NA,NA,NA,NA,NA,"",NA,"20"
"",NA,"",NA,"",NA,NA,NA,NA,NA,NA,NA,"","",1,1,"2024-08-24_03h59.22.803","IAT(Formal)","2021.2.3","Win32",142.8571429,"",NA,"",NA,NA,NA,NA,NA,NA,NA,"","","",NA,"i",1,0.6941,NA,NA,NA,NA,NA,"消极","i","",NA,0,76,76,35,1,"",NA,"",NA,NA,NA,NA,NA,NA,NA,"",NA,"",NA,NA,NA,NA,NA,NA,NA,"","","",NA,"",NA,NA,NA,NA,NA,NA,NA,"",NA,"20"
"",NA,"",NA,"",NA,NA,NA,NA,NA,NA,NA,"","",1,1,"2024-08-24_03h59.22.803","IAT(Formal)","2021.2.3","Win32",142.8571429,"",NA,"",NA,NA,NA,NA,NA,NA,NA,"","","",NA,"i",1,0.6939,NA,NA,NA,NA,NA,"其他","i","",NA,0,77,77,69,1,"",NA,"",NA,NA,NA,NA,NA,NA,NA,"",NA,"",NA,NA,NA,NA,NA,NA,NA,"","","",NA,"",NA,NA,NA,NA,NA,NA,NA,"",NA,"20"
"",NA,"",NA,"",NA,NA,NA,NA,NA,NA,NA,"","",1,1,"2024-08-24_03h59.22.803","IAT(Formal)","2021.2.3","Win32",142.8571429,"",NA,"",NA,NA,NA,NA,NA,NA,NA,"","","",NA,"e",1,0.4371,NA,NA,NA,NA,NA,"我们","e","",NA,0,78,78,72,1,"",NA,"",NA,NA,NA,NA,NA,NA,NA,"",NA,"",NA,NA,NA,NA,NA,NA,NA,"","","",NA,"",NA,NA,NA,NA,NA,NA,NA,"",NA,"20"
"",NA,"",NA,"",NA,NA,NA,NA,NA,NA,NA,"","",1,1,"2024-08-24_03h59.22.803","IAT(Formal)","2021.2.3","Win32",142.8571429,"",NA,"",NA,NA,NA,NA,NA,NA,NA,"","","",NA,"i",1,0.5,NA,NA,NA,NA,NA,"猖狂","i","",NA,0,79,79,45,1,"",NA,"",NA,NA,NA,NA,NA,NA,NA,"",NA,"",NA,NA,NA,NA,NA,NA,NA,"","","",NA,"",NA,NA,NA,NA,NA,NA,NA,"",NA,"20"
"",NA,"",NA,"",NA,NA,NA,NA,NA,NA,NA,"","",1,1,"2024-08-24_03h59.22.803","IAT(Formal)","2021.2.3","Win32",142.8571429,"",NA,"",NA,NA,NA,NA,NA,NA,NA,"","","",NA,"e",1,0.4515,NA,NA,NA,NA,NA,"朴实","e","",NA,1,0,80,24,1,"",NA,"",NA,NA,NA,NA,NA,NA,NA,"",NA,"",NA,NA,NA,NA,NA,NA,NA,"","","",NA,"",NA,NA,NA,NA,NA,NA,NA,"",NA,"20"
"",NA,"",NA,"",NA,NA,NA,NA,NA,NA,NA,"","",1,1,"2024-08-24_03h59.22.803","IAT(Formal)","2021.2.3","Win32",142.8571429,"",NA,"",NA,NA,NA,NA,NA,NA,NA,"","","",NA,"i",0,0.4448,NA,NA,NA,NA,NA,"无私","e","",NA,1,1,81,22,1,"",NA,"",NA,NA,NA,NA,NA,NA,NA,"",NA,"",NA,NA,NA,NA,NA,NA,NA,"","","",NA,"",NA,NA,NA,NA,NA,NA,NA,"",NA,"20"
"",NA,"",NA,"",NA,NA,NA,NA,NA,NA,NA,"","",1,1,"2024-08-24_03h59.22.803","IAT(Formal)","2021.2.3","Win32",142.8571429,"",NA,"",NA,NA,NA,NA,NA,NA,NA,"","","",NA,"i",1,0.6196,NA,NA,NA,NA,NA,"他","i","",NA,1,2,82,65,1,"",NA,"",NA,NA,NA,NA,NA,NA,NA,"",NA,"",NA,NA,NA,NA,NA,NA,NA,"","","",NA,"",NA,NA,NA,NA,NA,NA,NA,"",NA,"20"
"",NA,"",NA,"",NA,NA,NA,NA,NA,NA,NA,"","",1,1,"2024-08-24_03h59.22.803","IAT(Formal)","2021.2.3","Win32",142.8571429,"",NA,"",NA,NA,NA,NA,NA,NA,NA,"","","",NA,"e",0,0.5554,NA,NA,NA,NA,NA,"执拗","i","",NA,1,3,83,40,1,"",NA,"",NA,NA,NA,NA,NA,NA,NA,"",NA,"",NA,NA,NA,NA,NA,NA,NA,"","","",NA,"",NA,NA,NA,NA,NA,NA,NA,"",NA,"20"
"",NA,"",NA,"",NA,NA,NA,NA,NA,NA,NA,"","",1,1,"2024-08-24_03h59.22.803","IAT(Formal)","2021.2.3","Win32",142.8571429,"",NA,"",NA,NA,NA,NA,NA,NA,NA,"","","",NA,"e",1,0.5138,NA,NA,NA,NA,NA,"我","e","",NA,1,4,84,60,1,"",NA,"",NA,NA,NA,NA,NA,NA,NA,"",NA,"",NA,NA,NA,NA,NA,NA,NA,"","","",NA,"",NA,NA,NA,NA,NA,NA,NA,"",NA,"20"
"",NA,"",NA,"",NA,NA,NA,NA,NA,NA,NA,"","",1,1,"2024-08-24_03h59.22.803","IAT(Formal)","2021.2.3","Win32",142.8571429,"",NA,"",NA,NA,NA,NA,NA,NA,NA,"","","",NA,"i",1,0.6454,NA,NA,NA,NA,NA,"猖狂","i","",NA,1,5,85,45,1,"",NA,"",NA,NA,NA,NA,NA,NA,NA,"",NA,"",NA,NA,NA,NA,NA,NA,NA,"","","",NA,"",NA,NA,NA,NA,NA,NA,NA,"",NA,"20"
"",NA,"",NA,"",NA,NA,NA,NA,NA,NA,NA,"","",1,1,"2024-08-24_03h59.22.803","IAT(Formal)","2021.2.3","Win32",142.8571429,"",NA,"",NA,NA,NA,NA,NA,NA,NA,"","","",NA,"e",1,0.5483,NA,NA,NA,NA,NA,"自己","e","",NA,1,6,86,73,1,"",NA,"",NA,NA,NA,NA,NA,NA,NA,"",NA,"",NA,NA,NA,NA,NA,NA,NA,"","","",NA,"",NA,NA,NA,NA,NA,NA,NA,"",NA,"20"
"",NA,"",NA,"",NA,NA,NA,NA,NA,NA,NA,"","",1,1,"2024-08-24_03h59.22.803","IAT(Formal)","2021.2.3","Win32",142.8571429,"",NA,"",NA,NA,NA,NA,NA,NA,NA,"","","",NA,"e",1,0.4512,NA,NA,NA,NA,NA,"我们","e","",NA,1,7,87,72,1,"",NA,"",NA,NA,NA,NA,NA,NA,NA,"",NA,"",NA,NA,NA,NA,NA,NA,NA,"","","",NA,"",NA,NA,NA,NA,NA,NA,NA,"",NA,"20"
"",NA,"",NA,"",NA,NA,NA,NA,NA,NA,NA,"","",1,1,"2024-08-24_03h59.22.803","IAT(Formal)","2021.2.3","Win32",142.8571429,"",NA,"",NA,NA,NA,NA,NA,NA,NA,"","","",NA,"i",1,0.5278,NA,NA,NA,NA,NA,"傲慢","i","",NA,1,8,88,37,1,"",NA,"",NA,NA,NA,NA,NA,NA,NA,"",NA,"",NA,NA,NA,NA,NA,NA,NA,"","","",NA,"",NA,NA,NA,NA,NA,NA,NA,"",NA,"20"
"",NA,"",NA,"",NA,NA,NA,NA,NA,NA,NA,"","",1,1,"2024-08-24_03h59.22.803","IAT(Formal)","2021.2.3","Win32",142.8571429,"",NA,"",NA,NA,NA,NA,NA,NA,NA,"","","",NA,"i",1,0.5502,NA,NA,NA,NA,NA,"他人","i","",NA,1,9,89,68,1,"",NA,"",NA,NA,NA,NA,NA,NA,NA,"",NA,"",NA,NA,NA,NA,NA,NA,NA,"","","",NA,"",NA,NA,NA,NA,NA,NA,NA,"",NA,"20"
"",NA,"",NA,"",NA,NA,NA,NA,NA,NA,NA,"","",1,1,"2024-08-24_03h59.22.803","IAT(Formal)","2021.2.3","Win32",142.8571429,"",NA,"",NA,NA,NA,NA,NA,NA,NA,"","","",NA,"e",1,0.494,NA,NA,NA,NA,NA,"我们","e","",NA,1,10,90,2,1,"",NA,"",NA,NA,NA,NA,NA,NA,NA,"",NA,"",NA,NA,NA,NA,NA,NA,NA,"","","",NA,"",NA,NA,NA,NA,NA,NA,NA,"",NA,"20"
"",NA,"",NA,"",NA,NA,NA,NA,NA,NA,NA,"","",1,1,"2024-08-24_03h59.22.803","IAT(Formal)","2021.2.3","Win32",142.8571429,"",NA,"",NA,NA,NA,NA,NA,NA,NA,"","","",NA,"i",1,0.5077,NA,NA,NA,NA,NA,"自卑","i","",NA,1,11,91,36,1,"",NA,"",NA,NA,NA,NA,NA,NA,NA,"",NA,"",NA,NA,NA,NA,NA,NA,NA,"","","",NA,"",NA,NA,NA,NA,NA,NA,NA,"",NA,"20"
"",NA,"",NA,"",NA,NA,NA,NA,NA,NA,NA,"","",1,1,"2024-08-24_03h59.22.803","IAT(Formal)","2021.2.3","Win32",142.8571429,"",NA,"",NA,NA,NA,NA,NA,NA,NA,"","","",NA,"e",1,0.4447,NA,NA,NA,NA,NA,"我","e","",NA,1,12,92,0,1,"",NA,"",NA,NA,NA,NA,NA,NA,NA,"",NA,"",NA,NA,NA,NA,NA,NA,NA,"","","",NA,"",NA,NA,NA,NA,NA,NA,NA,"",NA,"20"
"",NA,"",NA,"",NA,NA,NA,NA,NA,NA,NA,"","",1,1,"2024-08-24_03h59.22.803","IAT(Formal)","2021.2.3","Win32",142.8571429,"",NA,"",NA,NA,NA,NA,NA,NA,NA,"","","",NA,"e",1,0.4806,NA,NA,NA,NA,NA,"俺","e","",NA,1,13,93,54,1,"",NA,"",NA,NA,NA,NA,NA,NA,NA,"",NA,"",NA,NA,NA,NA,NA,NA,NA,"","","",NA,"",NA,NA,NA,NA,NA,NA,NA,"",NA,"20"
"",NA,"",NA,"",NA,NA,NA,NA,NA,NA,NA,"","",1,1,"2024-08-24_03h59.22.803","IAT(Formal)","2021.2.3","Win32",142.8571429,"",NA,"",NA,NA,NA,NA,NA,NA,NA,"","","",NA,"i",0,0.5435,NA,NA,NA,NA,NA,"热情","e","",NA,1,14,94,27,1,"",NA,"",NA,NA,NA,NA,NA,NA,NA,"",NA,"",NA,NA,NA,NA,NA,NA,NA,"","","",NA,"",NA,NA,NA,NA,NA,NA,NA,"",NA,"20"
"",NA,"",NA,"",NA,NA,NA,NA,NA,NA,NA,"","",1,1,"2024-08-24_03h59.22.803","IAT(Formal)","2021.2.3","Win32",142.8571429,"",NA,"",NA,NA,NA,NA,NA,NA,NA,"","","",NA,"e",1,0.454,NA,NA,NA,NA,NA,"认真","e","",NA,1,15,95,20,1,"",NA,"",NA,NA,NA,NA,NA,NA,NA,"",NA,"",NA,NA,NA,NA,NA,NA,NA,"","","",NA,"",NA,NA,NA,NA,NA,NA,NA,"",NA,"20"
"",NA,"",NA,"",NA,NA,NA,NA,NA,NA,NA,"","",1,1,"2024-08-24_03h59.22.803","IAT(Formal)","2021.2.3","Win32",142.8571429,"",NA,"",NA,NA,NA,NA,NA,NA,NA,"","","",NA,"i",1,0.6064,NA,NA,NA,NA,NA,"其他","i","",NA,1,16,96,59,1,"",NA,"",NA,NA,NA,NA,NA,NA,NA,"",NA,"",NA,NA,NA,NA,NA,NA,NA,"","","",NA,"",NA,NA,NA,NA,NA,NA,NA,"",NA,"20"
"",NA,"",NA,"",NA,NA,NA,NA,NA,NA,NA,"","",1,1,"2024-08-24_03h59.22.803","IAT(Formal)","2021.2.3","Win32",142.8571429,"",NA,"",NA,NA,NA,NA,NA,NA,NA,"","","",NA,"i",1,0.5766,NA,NA,NA,NA,NA,"鲁莽","i","",NA,1,17,97,38,1,"",NA,"",NA,NA,NA,NA,NA,NA,NA,"",NA,"",NA,NA,NA,NA,NA,NA,NA,"","","",NA,"",NA,NA,NA,NA,NA,NA,NA,"",NA,"20"
"",NA,"",NA,"",NA,NA,NA,NA,NA,NA,NA,"","",1,1,"2024-08-24_03h59.22.803","IAT(Formal)","2021.2.3","Win32",142.8571429,"",NA,"",NA,NA,NA,NA,NA,NA,NA,"","","",NA,"i",1,0.5625,NA,NA,NA,NA,NA,"下贱","i","",NA,1,18,98,49,1,"",NA,"",NA,NA,NA,NA,NA,NA,NA,"",NA,"",NA,NA,NA,NA,NA,NA,NA,"","","",NA,"",NA,NA,NA,NA,NA,NA,NA,"",NA,"20"
"",NA,"",NA,"",NA,NA,NA,NA,NA,NA,NA,"","",1,1,"2024-08-24_03h59.22.803","IAT(Formal)","2021.2.3","Win32",142.8571429,"",NA,"",NA,NA,NA,NA,NA,NA,NA,"","","",NA,"e",1,0.6945,NA,NA,NA,NA,NA,"杰出","e","",NA,1,19,99,13,1,"",NA,"",NA,NA,NA,NA,NA,NA,NA,"",NA,"",NA,NA,NA,NA,NA,NA,NA,"","","",NA,"",NA,NA,NA,NA,NA,NA,NA,"",NA,"20"
"",NA,"",NA,"",NA,NA,NA,NA,NA,NA,NA,"","",1,1,"2024-08-24_03h59.22.803","IAT(Formal)","2021.2.3","Win32",142.8571429,"",NA,"",NA,NA,NA,NA,NA,NA,NA,"","","",NA,"e",1,0.4864,NA,NA,NA,NA,NA,"活泼","e","",NA,1,20,100,28,1,"",NA,"",NA,NA,NA,NA,NA,NA,NA,"",NA,"",NA,NA,NA,NA,NA,NA,NA,"","","",NA,"",NA,NA,NA,NA,NA,NA,NA,"",NA,"20"
"",NA,"",NA,"",NA,NA,NA,NA,NA,NA,NA,"","",1,1,"2024-08-24_03h59.22.803","IAT(Formal)","2021.2.3","Win32",142.8571429,"",NA,"",NA,NA,NA,NA,NA,NA,NA,"","","",NA,"e",1,0.4793,NA,NA,NA,NA,NA,"正直","e","",NA,1,21,101,16,1,"",NA,"",NA,NA,NA,NA,NA,NA,NA,"",NA,"",NA,NA,NA,NA,NA,NA,NA,"","","",NA,"",NA,NA,NA,NA,NA,NA,NA,"",NA,"20"
"",NA,"",NA,"",NA,NA,NA,NA,NA,NA,NA,"","",1,1,"2024-08-24_03h59.22.803","IAT(Formal)","2021.2.3","Win32",142.8571429,"",NA,"",NA,NA,NA,NA,NA,NA,NA,"","","",NA,"i",1,0.7712,NA,NA,NA,NA,NA,"其他","i","",NA,1,22,102,9,1,"",NA,"",NA,NA,NA,NA,NA,NA,NA,"",NA,"",NA,NA,NA,NA,NA,NA,NA,"","","",NA,"",NA,NA,NA,NA,NA,NA,NA,"",NA,"20"
"",NA,"",NA,"",NA,NA,NA,NA,NA,NA,NA,"","",1,1,"2024-08-24_03h59.22.803","IAT(Formal)","2021.2.3","Win32",142.8571429,"",NA,"",NA,NA,NA,NA,NA,NA,NA,"","","",NA,"i",1,0.4944,NA,NA,NA,NA,NA,"固执","i","",NA,1,23,103,47,1,"",NA,"",NA,NA,NA,NA,NA,NA,NA,"",NA,"",NA,NA,NA,NA,NA,NA,NA,"","","",NA,"",NA,NA,NA,NA,NA,NA,NA,"",NA,"20"
"",NA,"",NA,"",NA,NA,NA,NA,NA,NA,NA,"","",1,1,"2024-08-24_03h59.22.803","IAT(Formal)","2021.2.3","Win32",142.8571429,"",NA,"",NA,NA,NA,NA,NA,NA,NA,"","","",NA,"e",1,0.5927,NA,NA,NA,NA,NA,"俺","e","",NA,1,24,104,4,1,"",NA,"",NA,NA,NA,NA,NA,NA,NA,"",NA,"",NA,NA,NA,NA,NA,NA,NA,"","","",NA,"",NA,NA,NA,NA,NA,NA,NA,"",NA,"20"
"",NA,"",NA,"",NA,NA,NA,NA,NA,NA,NA,"","",1,1,"2024-08-24_03h59.22.803","IAT(Formal)","2021.2.3","Win32",142.8571429,"",NA,"",NA,NA,NA,NA,NA,NA,NA,"","","",NA,"e",1,0.4735,NA,NA,NA,NA,NA,"稳重","e","",NA,1,25,105,21,1,"",NA,"",NA,NA,NA,NA,NA,NA,NA,"",NA,"",NA,NA,NA,NA,NA,NA,NA,"","","",NA,"",NA,NA,NA,NA,NA,NA,NA,"",NA,"20"
"",NA,"",NA,"",NA,NA,NA,NA,NA,NA,NA,"","",1,1,"2024-08-24_03h59.22.803","IAT(Formal)","2021.2.3","Win32",142.8571429,"",NA,"",NA,NA,NA,NA,NA,NA,NA,"","","",NA,"e",1,0.4263,NA,NA,NA,NA,NA,"机智","e","",NA,1,26,106,19,1,"",NA,"",NA,NA,NA,NA,NA,NA,NA,"",NA,"",NA,NA,NA,NA,NA,NA,NA,"","","",NA,"",NA,NA,NA,NA,NA,NA,NA,"",NA,"20"
"",NA,"",NA,"",NA,NA,NA,NA,NA,NA,NA,"","",1,1,"2024-08-24_03h59.22.803","IAT(Formal)","2021.2.3","Win32",142.8571429,"",NA,"",NA,NA,NA,NA,NA,NA,NA,"","","",NA,"i",1,0.618,NA,NA,NA,NA,NA,"其他","i","",NA,1,27,107,79,1,"",NA,"",NA,NA,NA,NA,NA,NA,NA,"",NA,"",NA,NA,NA,NA,NA,NA,NA,"","","",NA,"",NA,NA,NA,NA,NA,NA,NA,"",NA,"20"
"",NA,"",NA,"",NA,NA,NA,NA,NA,NA,NA,"","",1,1,"2024-08-24_03h59.22.803","IAT(Formal)","2021.2.3","Win32",142.8571429,"",NA,"",NA,NA,NA,NA,NA,NA,NA,"","","",NA,"e",1,0.4719,NA,NA,NA,NA,NA,"我的","e","",NA,1,28,108,1,1,"",NA,"",NA,NA,NA,NA,NA,NA,NA,"",NA,"",NA,NA,NA,NA,NA,NA,NA,"","","",NA,"",NA,NA,NA,NA,NA,NA,NA,"",NA,"20"
"",NA,"",NA,"",NA,NA,NA,NA,NA,NA,NA,"","",1,1,"2024-08-24_03h59.22.803","IAT(Formal)","2021.2.3","Win32",142.8571429,"",NA,"",NA,NA,NA,NA,NA,NA,NA,"","","",NA,"e",1,0.403,NA,NA,NA,NA,NA,"我","e","",NA,1,29,109,50,1,"",NA,"",NA,NA,NA,NA,NA,NA,NA,"",NA,"",NA,NA,NA,NA,NA,NA,NA,"","","",NA,"",NA,NA,NA,NA,NA,NA,NA,"",NA,"20"
"",NA,"",NA,"",NA,NA,NA,NA,NA,NA,NA,"","",1,1,"2024-08-24_03h59.22.803","IAT(Formal)","2021.2.3","Win32",142.8571429,"",NA,"",NA,NA,NA,NA,NA,NA,NA,"","","",NA,"i",1,0.4931,NA,NA,NA,NA,NA,"虚伪","i","",NA,1,30,110,31,1,"",NA,"",NA,NA,NA,NA,NA,NA,NA,"",NA,"",NA,NA,NA,NA,NA,NA,NA,"","","",NA,"",NA,NA,NA,NA,NA,NA,NA,"",NA,"20"
"",NA,"",NA,"",NA,NA,NA,NA,NA,NA,NA,"","",1,1,"2024-08-24_03h59.22.803","IAT(Formal)","2021.2.3","Win32",142.8571429,"",NA,"",NA,NA,NA,NA,NA,NA,NA,"","","",NA,"e",0,0.5717,NA,NA,NA,NA,NA,"他们","i","",NA,1,31,111,76,1,"",NA,"",NA,NA,NA,NA,NA,NA,NA,"",NA,"",NA,NA,NA,NA,NA,NA,NA,"","","",NA,"",NA,NA,NA,NA,NA,NA,NA,"",NA,"20"
"",NA,"",NA,"",NA,NA,NA,NA,NA,NA,NA,"","",1,1,"2024-08-24_03h59.22.803","IAT(Formal)","2021.2.3","Win32",142.8571429,"",NA,"",NA,NA,NA,NA,NA,NA,NA,"","","",NA,"i",1,0.5902,NA,NA,NA,NA,NA,"消极","i","",NA,1,32,112,35,1,"",NA,"",NA,NA,NA,NA,NA,NA,NA,"",NA,"",NA,NA,NA,NA,NA,NA,NA,"","","",NA,"",NA,NA,NA,NA,NA,NA,NA,"",NA,"20"
"",NA,"",NA,"",NA,NA,NA,NA,NA,NA,NA,"","",1,1,"2024-08-24_03h59.22.803","IAT(Formal)","2021.2.3","Win32",142.8571429,"",NA,"",NA,NA,NA,NA,NA,NA,NA,"","","",NA,"e",1,0.4523,NA,NA,NA,NA,NA,"诚实","e","",NA,1,33,113,15,1,"",NA,"",NA,NA,NA,NA,NA,NA,NA,"",NA,"",NA,NA,NA,NA,NA,NA,NA,"","","",NA,"",NA,NA,NA,NA,NA,NA,NA,"",NA,"20"
"",NA,"",NA,"",NA,NA,NA,NA,NA,NA,NA,"","",1,1,"2024-08-24_03h59.22.803","IAT(Formal)","2021.2.3","Win32",142.8571429,"",NA,"",NA,NA,NA,NA,NA,NA,NA,"","","",NA,"i",1,0.757,NA,NA,NA,NA,NA,"他","i","",NA,1,34,114,5,1,"",NA,"",NA,NA,NA,NA,NA,NA,NA,"",NA,"",NA,NA,NA,NA,NA,NA,NA,"","","",NA,"",NA,NA,NA,NA,NA,NA,NA,"",NA,"20"
"",NA,"",NA,"",NA,NA,NA,NA,NA,NA,NA,"","",1,1,"2024-08-24_03h59.22.803","IAT(Formal)","2021.2.3","Win32",142.8571429,"",NA,"",NA,NA,NA,NA,NA,NA,NA,"","","",NA,"i",1,0.4722,NA,NA,NA,NA,NA,"他的","i","",NA,1,35,115,77,1,"",NA,"",NA,NA,NA,NA,NA,NA,NA,"",NA,"",NA,NA,NA,NA,NA,NA,NA,"","","",NA,"",NA,NA,NA,NA,NA,NA,NA,"",NA,"20"
"",NA,"",NA,"",NA,NA,NA,NA,NA,NA,NA,"","",1,1,"2024-08-24_03h59.22.803","IAT(Formal)","2021.2.3","Win32",142.8571429,"",NA,"",NA,NA,NA,NA,NA,NA,NA,"","","",NA,"i",1,0.5694,NA,NA,NA,NA,NA,"凶狠","i","",NA,1,36,116,42,1,"",NA,"",NA,NA,NA,NA,NA,NA,NA,"",NA,"",NA,NA,NA,NA,NA,NA,NA,"","","",NA,"",NA,NA,NA,NA,NA,NA,NA,"",NA,"20"
"",NA,"",NA,"",NA,NA,NA,NA,NA,NA,NA,"","",1,1,"2024-08-24_03h59.22.803","IAT(Formal)","2021.2.3","Win32",142.8571429,"",NA,"",NA,NA,NA,NA,NA,NA,NA,"","","",NA,"e",1,0.5,NA,NA,NA,NA,NA,"自己","e","",NA,1,37,117,63,1,"",NA,"",NA,NA,NA,NA,NA,NA,NA,"",NA,"",NA,NA,NA,NA,NA,NA,NA,"","","",NA,"",NA,NA,NA,NA,NA,NA,NA,"",NA,"20"
"",NA,"",NA,"",NA,NA,NA,NA,NA,NA,NA,"","",1,1,"2024-08-24_03h59.22.803","IAT(Formal)","2021.2.3","Win32",142.8571429,"",NA,"",NA,NA,NA,NA,NA,NA,NA,"","","",NA,"e",1,0.4314,NA,NA,NA,NA,NA,"聪明","e","",NA,1,38,118,12,1,"",NA,"",NA,NA,NA,NA,NA,NA,NA,"",NA,"",NA,NA,NA,NA,NA,NA,NA,"","","",NA,"",NA,NA,NA,NA,NA,NA,NA,"",NA,"20"
"",NA,"",NA,"",NA,NA,NA,NA,NA,NA,NA,"","",1,1,"2024-08-24_03h59.22.803","IAT(Formal)","2021.2.3","Win32",142.8571429,"",NA,"",NA,NA,NA,NA,NA,NA,NA,"","","",NA,"i",1,0.5831,NA,NA,NA,NA,NA,"他的","i","",NA,1,39,119,7,1,"",NA,"",NA,NA,NA,NA,NA,NA,NA,"",NA,"",NA,NA,NA,NA,NA,NA,NA,"","","",NA,"",NA,NA,NA,NA,NA,NA,NA,"",NA,"20"
"",NA,"",NA,"",NA,NA,NA,NA,NA,NA,NA,"","",1,1,"2024-08-24_03h59.22.803","IAT(Formal)","2021.2.3","Win32",142.8571429,"",NA,"",NA,NA,NA,NA,NA,NA,NA,"","","",NA,"i",1,0.529,NA,NA,NA,NA,NA,"他人","i","",NA,1,40,120,78,1,"",NA,"",NA,NA,NA,NA,NA,NA,NA,"",NA,"",NA,NA,NA,NA,NA,NA,NA,"","","",NA,"",NA,NA,NA,NA,NA,NA,NA,"",NA,"20"
"",NA,"",NA,"",NA,NA,NA,NA,NA,NA,NA,"","",1,1,"2024-08-24_03h59.22.803","IAT(Formal)","2021.2.3","Win32",142.8571429,"",NA,"",NA,NA,NA,NA,NA,NA,NA,"","","",NA,"i",1,0.5709,NA,NA,NA,NA,NA,"散漫","i","",NA,1,41,121,41,1,"",NA,"",NA,NA,NA,NA,NA,NA,NA,"",NA,"",NA,NA,NA,NA,NA,NA,NA,"","","",NA,"",NA,NA,NA,NA,NA,NA,NA,"",NA,"20"
"",NA,"",NA,"",NA,NA,NA,NA,NA,NA,NA,"","",1,1,"2024-08-24_03h59.22.803","IAT(Formal)","2021.2.3","Win32",142.8571429,"",NA,"",NA,NA,NA,NA,NA,NA,NA,"","","",NA,"e",1,0.4943,NA,NA,NA,NA,NA,"勤奋","e","",NA,1,42,122,18,1,"",NA,"",NA,NA,NA,NA,NA,NA,NA,"",NA,"",NA,NA,NA,NA,NA,NA,NA,"","","",NA,"",NA,NA,NA,NA,NA,NA,NA,"",NA,"20"
"",NA,"",NA,"",NA,NA,NA,NA,NA,NA,NA,"","",1,1,"2024-08-24_03h59.22.803","IAT(Formal)","2021.2.3","Win32",142.8571429,"",NA,"",NA,NA,NA,NA,NA,NA,NA,"","","",NA,"e",1,0.521,NA,NA,NA,NA,NA,"自己","e","",NA,1,43,123,3,1,"",NA,"",NA,NA,NA,NA,NA,NA,NA,"",NA,"",NA,NA,NA,NA,NA,NA,NA,"","","",NA,"",NA,NA,NA,NA,NA,NA,NA,"",NA,"20"
"",NA,"",NA,"",NA,NA,NA,NA,NA,NA,NA,"","",1,1,"2024-08-24_03h59.22.803","IAT(Formal)","2021.2.3","Win32",142.8571429,"",NA,"",NA,NA,NA,NA,NA,NA,NA,"","","",NA,"i",1,0.535,NA,NA,NA,NA,NA,"轻率","i","",NA,1,44,124,48,1,"",NA,"",NA,NA,NA,NA,NA,NA,NA,"",NA,"",NA,NA,NA,NA,NA,NA,NA,"","","",NA,"",NA,NA,NA,NA,NA,NA,NA,"",NA,"20"
"",NA,"",NA,"",NA,NA,NA,NA,NA,NA,NA,"","",1,1,"2024-08-24_03h59.22.803","IAT(Formal)","2021.2.3","Win32",142.8571429,"",NA,"",NA,NA,NA,NA,NA,NA,NA,"","","",NA,"e",1,0.5072,NA,NA,NA,NA,NA,"乐观","e","",NA,1,45,125,14,1,"",NA,"",NA,NA,NA,NA,NA,NA,NA,"",NA,"",NA,NA,NA,NA,NA,NA,NA,"","","",NA,"",NA,NA,NA,NA,NA,NA,NA,"",NA,"20"
"",NA,"",NA,"",NA,NA,NA,NA,NA,NA,NA,"","",1,1,"2024-08-24_03h59.22.803","IAT(Formal)","2021.2.3","Win32",142.8571429,"",NA,"",NA,NA,NA,NA,NA,NA,NA,"","","",NA,"e",1,0.514,NA,NA,NA,NA,NA,"崇高","e","",NA,1,46,126,11,1,"",NA,"",NA,NA,NA,NA,NA,NA,NA,"",NA,"",NA,NA,NA,NA,NA,NA,NA,"","","",NA,"",NA,NA,NA,NA,NA,NA,NA,"",NA,"20"
"",NA,"",NA,"",NA,NA,NA,NA,NA,NA,NA,"","",1,1,"2024-08-24_03h59.22.803","IAT(Formal)","2021.2.3","Win32",142.8571429,"",NA,"",NA,NA,NA,NA,NA,NA,NA,"","","",NA,"i",1,0.5,NA,NA,NA,NA,NA,"暴躁","i","",NA,1,47,127,44,1,"",NA,"",NA,NA,NA,NA,NA,NA,NA,"",NA,"",NA,NA,NA,NA,NA,NA,NA,"","","",NA,"",NA,NA,NA,NA,NA,NA,NA,"",NA,"20"
"",NA,"",NA,"",NA,NA,NA,NA,NA,NA,NA,"","",1,1,"2024-08-24_03h59.22.803","IAT(Formal)","2021.2.3","Win32",142.8571429,"",NA,"",NA,NA,NA,NA,NA,NA,NA,"","","",NA,"i",1,0.6046,NA,NA,NA,NA,NA,"冒失","i","",NA,1,48,128,39,1,"",NA,"",NA,NA,NA,NA,NA,NA,NA,"",NA,"",NA,NA,NA,NA,NA,NA,NA,"","","",NA,"",NA,NA,NA,NA,NA,NA,NA,"",NA,"20"
"",NA,"",NA,"",NA,NA,NA,NA,NA,NA,NA,"","",1,1,"2024-08-24_03h59.22.803","IAT(Formal)","2021.2.3","Win32",142.8571429,"",NA,"",NA,NA,NA,NA,NA,NA,NA,"","","",NA,"e",1,0.4595,NA,NA,NA,NA,NA,"我们","e","",NA,1,49,129,52,1,"",NA,"",NA,NA,NA,NA,NA,NA,NA,"",NA,"",NA,NA,NA,NA,NA,NA,NA,"","","",NA,"",NA,NA,NA,NA,NA,NA,NA,"",NA,"20"
"",NA,"",NA,"",NA,NA,NA,NA,NA,NA,NA,"","",1,1,"2024-08-24_03h59.22.803","IAT(Formal)","2021.2.3","Win32",142.8571429,"",NA,"",NA,NA,NA,NA,NA,NA,NA,"","","",NA,"e",1,0.4258,NA,NA,NA,NA,NA,"我们","e","",NA,1,50,130,62,1,"",NA,"",NA,NA,NA,NA,NA,NA,NA,"",NA,"",NA,NA,NA,NA,NA,NA,NA,"","","",NA,"",NA,NA,NA,NA,NA,NA,NA,"",NA,"20"
"",NA,"",NA,"",NA,NA,NA,NA,NA,NA,NA,"","",1,1,"2024-08-24_03h59.22.803","IAT(Formal)","2021.2.3","Win32",142.8571429,"",NA,"",NA,NA,NA,NA,NA,NA,NA,"","","",NA,"e",1,0.6251,NA,NA,NA,NA,NA,"勇敢","e","",NA,1,51,131,17,1,"",NA,"",NA,NA,NA,NA,NA,NA,NA,"",NA,"",NA,NA,NA,NA,NA,NA,NA,"","","",NA,"",NA,NA,NA,NA,NA,NA,NA,"",NA,"20"
"",NA,"",NA,"",NA,NA,NA,NA,NA,NA,NA,"","",1,1,"2024-08-24_03h59.22.803","IAT(Formal)","2021.2.3","Win32",142.8571429,"",NA,"",NA,NA,NA,NA,NA,NA,NA,"","","",NA,"i",1,0.5834,NA,NA,NA,NA,NA,"他们","i","",NA,1,52,132,6,1,"",NA,"",NA,NA,NA,NA,NA,NA,NA,"",NA,"",NA,NA,NA,NA,NA,NA,NA,"","","",NA,"",NA,NA,NA,NA,NA,NA,NA,"",NA,"20"
"",NA,"",NA,"",NA,NA,NA,NA,NA,NA,NA,"","",1,1,"2024-08-24_03h59.22.803","IAT(Formal)","2021.2.3","Win32",142.8571429,"",NA,"",NA,NA,NA,NA,NA,NA,NA,"","","",NA,"i",1,0.5225,NA,NA,NA,NA,NA,"他的","i","",NA,1,53,133,67,1,"",NA,"",NA,NA,NA,NA,NA,NA,NA,"",NA,"",NA,NA,NA,NA,NA,NA,NA,"","","",NA,"",NA,NA,NA,NA,NA,NA,NA,"",NA,"20"
"",NA,"",NA,"",NA,NA,NA,NA,NA,NA,NA,"","",1,1,"2024-08-24_03h59.22.803","IAT(Formal)","2021.2.3","Win32",142.8571429,"",NA,"",NA,NA,NA,NA,NA,NA,NA,"","","",NA,"i",1,0.4448,NA,NA,NA,NA,NA,"他们","i","",NA,1,54,134,56,1,"",NA,"",NA,NA,NA,NA,NA,NA,NA,"",NA,"",NA,NA,NA,NA,NA,NA,NA,"","","",NA,"",NA,NA,NA,NA,NA,NA,NA,"",NA,"20"
"",NA,"",NA,"",NA,NA,NA,NA,NA,NA,NA,"","",1,1,"2024-08-24_03h59.22.803","IAT(Formal)","2021.2.3","Win32",142.8571429,"",NA,"",NA,NA,NA,NA,NA,NA,NA,"","","",NA,"i",1,0.7155,NA,NA,NA,NA,NA,"刻薄","i","",NA,1,55,135,33,1,"",NA,"",NA,NA,NA,NA,NA,NA,NA,"",NA,"",NA,NA,NA,NA,NA,NA,NA,"","","",NA,"",NA,NA,NA,NA,NA,NA,NA,"",NA,"20"
"",NA,"",NA,"",NA,NA,NA,NA,NA,NA,NA,"","",1,1,"2024-08-24_03h59.22.803","IAT(Formal)","2021.2.3","Win32",142.8571429,"",NA,"",NA,NA,NA,NA,NA,NA,NA,"","","",NA,"e",1,0.5147,NA,NA,NA,NA,NA,"我的","e","",NA,1,56,136,61,1,"",NA,"",NA,NA,NA,NA,NA,NA,NA,"",NA,"",NA,NA,NA,NA,NA,NA,NA,"","","",NA,"",NA,NA,NA,NA,NA,NA,NA,"",NA,"20"
"",NA,"",NA,"",NA,NA,NA,NA,NA,NA,NA,"","",1,1,"2024-08-24_03h59.22.803","IAT(Formal)","2021.2.3","Win32",142.8571429,"",NA,"",NA,NA,NA,NA,NA,NA,NA,"","","",NA,"i",1,0.6135,NA,NA,NA,NA,NA,"悲观","i","",NA,1,57,137,34,1,"",NA,"",NA,NA,NA,NA,NA,NA,NA,"",NA,"",NA,NA,NA,NA,NA,NA,NA,"","","",NA,"",NA,NA,NA,NA,NA,NA,NA,"",NA,"20"
"",NA,"",NA,"",NA,NA,NA,NA,NA,NA,NA,"","",1,1,"2024-08-24_03h59.22.803","IAT(Formal)","2021.2.3","Win32",142.8571429,"",NA,"",NA,NA,NA,NA,NA,NA,NA,"","","",NA,"e",1,0.6535,NA,NA,NA,NA,NA,"诚恳","e","",NA,1,58,138,29,1,"",NA,"",NA,NA,NA,NA,NA,NA,NA,"",NA,"",NA,NA,NA,NA,NA,NA,NA,"","","",NA,"",NA,NA,NA,NA,NA,NA,NA,"",NA,"20"
"",NA,"",NA,"",NA,NA,NA,NA,NA,NA,NA,"","",1,1,"2024-08-24_03h59.22.803","IAT(Formal)","2021.2.3","Win32",142.8571429,"",NA,"",NA,NA,NA,NA,NA,NA,NA,"","","",NA,"e",1,0.5768,NA,NA,NA,NA,NA,"俺","e","",NA,1,59,139,64,1,"",NA,"",NA,NA,NA,NA,NA,NA,NA,"",NA,"",NA,NA,NA,NA,NA,NA,NA,"","","",NA,"",NA,NA,NA,NA,NA,NA,NA,"",NA,"20"
"",NA,"",NA,"",NA,NA,NA,NA,NA,NA,NA,"","",1,1,"2024-08-24_03h59.22.803","IAT(Formal)","2021.2.3","Win32",142.8571429,"",NA,"",NA,NA,NA,NA,NA,NA,NA,"","","",NA,"i",1,0.5697,NA,NA,NA,NA,NA,"他们","i","",NA,1,60,140,66,1,"",NA,"",NA,NA,NA,NA,NA,NA,NA,"",NA,"",NA,NA,NA,NA,NA,NA,NA,"","","",NA,"",NA,NA,NA,NA,NA,NA,NA,"",NA,"20"
"",NA,"",NA,"",NA,NA,NA,NA,NA,NA,NA,"","",1,1,"2024-08-24_03h59.22.803","IAT(Formal)","2021.2.3","Win32",142.8571429,"",NA,"",NA,NA,NA,NA,NA,NA,NA,"","","",NA,"i",1,0.4653,NA,NA,NA,NA,NA,"其他","i","",NA,1,61,141,69,1,"",NA,"",NA,NA,NA,NA,NA,NA,NA,"",NA,"",NA,NA,NA,NA,NA,NA,NA,"","","",NA,"",NA,NA,NA,NA,NA,NA,NA,"",NA,"20"
"",NA,"",NA,"",NA,NA,NA,NA,NA,NA,NA,"","",1,1,"2024-08-24_03h59.22.803","IAT(Formal)","2021.2.3","Win32",142.8571429,"",NA,"",NA,NA,NA,NA,NA,NA,NA,"","","",NA,"i",1,0.493,NA,NA,NA,NA,NA,"他人","i","",NA,1,62,142,58,1,"",NA,"",NA,NA,NA,NA,NA,NA,NA,"",NA,"",NA,NA,NA,NA,NA,NA,NA,"","","",NA,"",NA,NA,NA,NA,NA,NA,NA,"",NA,"20"
"",NA,"",NA,"",NA,NA,NA,NA,NA,NA,NA,"","",1,1,"2024-08-24_03h59.22.803","IAT(Formal)","2021.2.3","Win32",142.8571429,"",NA,"",NA,NA,NA,NA,NA,NA,NA,"","","",NA,"e",1,0.6474,NA,NA,NA,NA,NA,"冷静","e","",NA,1,63,143,26,1,"",NA,"",NA,NA,NA,NA,NA,NA,NA,"",NA,"",NA,NA,NA,NA,NA,NA,NA,"","","",NA,"",NA,NA,NA,NA,NA,NA,NA,"",NA,"20"
"",NA,"",NA,"",NA,NA,NA,NA,NA,NA,NA,"","",1,1,"2024-08-24_03h59.22.803","IAT(Formal)","2021.2.3","Win32",142.8571429,"",NA,"",NA,NA,NA,NA,NA,NA,NA,"","","",NA,"e",1,0.4514,NA,NA,NA,NA,NA,"自己","e","",NA,1,64,144,53,1,"",NA,"",NA,NA,NA,NA,NA,NA,NA,"",NA,"",NA,NA,NA,NA,NA,NA,NA,"","","",NA,"",NA,NA,NA,NA,NA,NA,NA,"",NA,"20"
"",NA,"",NA,"",NA,NA,NA,NA,NA,NA,NA,"","",1,1,"2024-08-24_03h59.22.803","IAT(Formal)","2021.2.3","Win32",142.8571429,"",NA,"",NA,NA,NA,NA,NA,NA,NA,"","","",NA,"e",1,0.4031,NA,NA,NA,NA,NA,"我","e","",NA,1,65,145,70,1,"",NA,"",NA,NA,NA,NA,NA,NA,NA,"",NA,"",NA,NA,NA,NA,NA,NA,NA,"","","",NA,"",NA,NA,NA,NA,NA,NA,NA,"",NA,"20"
"",NA,"",NA,"",NA,NA,NA,NA,NA,NA,NA,"","",1,1,"2024-08-24_03h59.22.803","IAT(Formal)","2021.2.3","Win32",142.8571429,"",NA,"",NA,NA,NA,NA,NA,NA,NA,"","","",NA,"e",0,0.6805,NA,NA,NA,NA,NA,"自私","i","",NA,1,66,146,43,1,"",NA,"",NA,NA,NA,NA,NA,NA,NA,"",NA,"",NA,NA,NA,NA,NA,NA,NA,"","","",NA,"",NA,NA,NA,NA,NA,NA,NA,"",NA,"20"
"",NA,"",NA,"",NA,NA,NA,NA,NA,NA,NA,"","",1,1,"2024-08-24_03h59.22.803","IAT(Formal)","2021.2.3","Win32",142.8571429,"",NA,"",NA,NA,NA,NA,NA,NA,NA,"","","",NA,"i",1,0.5563,NA,NA,NA,NA,NA,"愚蠢","i","",NA,1,67,147,32,1,"",NA,"",NA,NA,NA,NA,NA,NA,NA,"",NA,"",NA,NA,NA,NA,NA,NA,NA,"","","",NA,"",NA,NA,NA,NA,NA,NA,NA,"",NA,"20"
"",NA,"",NA,"",NA,NA,NA,NA,NA,NA,NA,"","",1,1,"2024-08-24_03h59.22.803","IAT(Formal)","2021.2.3","Win32",142.8571429,"",NA,"",NA,NA,NA,NA,NA,NA,NA,"","","",NA,"e",1,0.4446,NA,NA,NA,NA,NA,"我的","e","",NA,1,68,148,71,1,"",NA,"",NA,NA,NA,NA,NA,NA,NA,"",NA,"",NA,NA,NA,NA,NA,NA,NA,"","","",NA,"",NA,NA,NA,NA,NA,NA,NA,"",NA,"20"
"",NA,"",NA,"",NA,NA,NA,NA,NA,NA,NA,"","",1,1,"2024-08-24_03h59.22.803","IAT(Formal)","2021.2.3","Win32",142.8571429,"",NA,"",NA,NA,NA,NA,NA,NA,NA,"","","",NA,"i",1,0.5561,NA,NA,NA,NA,NA,"卑鄙","i","",NA,1,69,149,30,1,"",NA,"",NA,NA,NA,NA,NA,NA,NA,"",NA,"",NA,NA,NA,NA,NA,NA,NA,"","","",NA,"",NA,NA,NA,NA,NA,NA,NA,"",NA,"20"
"",NA,"",NA,"",NA,NA,NA,NA,NA,NA,NA,"","",1,1,"2024-08-24_03h59.22.803","IAT(Formal)","2021.2.3","Win32",142.8571429,"",NA,"",NA,NA,NA,NA,NA,NA,NA,"","","",NA,"e",0,0.5159,NA,NA,NA,NA,NA,"他","i","",NA,1,70,150,55,1,"",NA,"",NA,NA,NA,NA,NA,NA,NA,"",NA,"",NA,NA,NA,NA,NA,NA,NA,"","","",NA,"",NA,NA,NA,NA,NA,NA,NA,"",NA,"20"
"",NA,"",NA,"",NA,NA,NA,NA,NA,NA,NA,"","",1,1,"2024-08-24_03h59.22.803","IAT(Formal)","2021.2.3","Win32",142.8571429,"",NA,"",NA,NA,NA,NA,NA,NA,NA,"","","",NA,"e",1,0.6607,NA,NA,NA,NA,NA,"细腻","e","",NA,1,71,151,25,1,"",NA,"",NA,NA,NA,NA,NA,NA,NA,"",NA,"",NA,NA,NA,NA,NA,NA,NA,"","","",NA,"",NA,NA,NA,NA,NA,NA,NA,"",NA,"20"
"",NA,"",NA,"",NA,NA,NA,NA,NA,NA,NA,"","",1,1,"2024-08-24_03h59.22.803","IAT(Formal)","2021.2.3","Win32",142.8571429,"",NA,"",NA,NA,NA,NA,NA,NA,NA,"","","",NA,"i",1,0.5221,NA,NA,NA,NA,NA,"他的","i","",NA,1,72,152,57,1,"",NA,"",NA,NA,NA,NA,NA,NA,NA,"",NA,"",NA,NA,NA,NA,NA,NA,NA,"","","",NA,"",NA,NA,NA,NA,NA,NA,NA,"",NA,"20"
"",NA,"",NA,"",NA,NA,NA,NA,NA,NA,NA,"","",1,1,"2024-08-24_03h59.22.803","IAT(Formal)","2021.2.3","Win32",142.8571429,"",NA,"",NA,NA,NA,NA,NA,NA,NA,"","","",NA,"e",1,0.514,NA,NA,NA,NA,NA,"公正","e","",NA,1,73,153,23,1,"",NA,"",NA,NA,NA,NA,NA,NA,NA,"",NA,"",NA,NA,NA,NA,NA,NA,NA,"","","",NA,"",NA,NA,NA,NA,NA,NA,NA,"",NA,"20"
"",NA,"",NA,"",NA,NA,NA,NA,NA,NA,NA,"","",1,1,"2024-08-24_03h59.22.803","IAT(Formal)","2021.2.3","Win32",142.8571429,"",NA,"",NA,NA,NA,NA,NA,NA,NA,"","","",NA,"e",1,0.4514,NA,NA,NA,NA,NA,"优秀","e","",NA,1,74,154,10,1,"",NA,"",NA,NA,NA,NA,NA,NA,NA,"",NA,"",NA,NA,NA,NA,NA,NA,NA,"","","",NA,"",NA,NA,NA,NA,NA,NA,NA,"",NA,"20"
"",NA,"",NA,"",NA,NA,NA,NA,NA,NA,NA,"","",1,1,"2024-08-24_03h59.22.803","IAT(Formal)","2021.2.3","Win32",142.8571429,"",NA,"",NA,NA,NA,NA,NA,NA,NA,"","","",NA,"e",1,0.6689,NA,NA,NA,NA,NA,"俺","e","",NA,1,75,155,74,1,"",NA,"",NA,NA,NA,NA,NA,NA,NA,"",NA,"",NA,NA,NA,NA,NA,NA,NA,"","","",NA,"",NA,NA,NA,NA,NA,NA,NA,"",NA,"20"
"",NA,"",NA,"",NA,NA,NA,NA,NA,NA,NA,"","",1,1,"2024-08-24_03h59.22.803","IAT(Formal)","2021.2.3","Win32",142.8571429,"",NA,"",NA,NA,NA,NA,NA,NA,NA,"","","",NA,"i",1,0.5275,NA,NA,NA,NA,NA,"他人","i","",NA,1,76,156,8,1,"",NA,"",NA,NA,NA,NA,NA,NA,NA,"",NA,"",NA,NA,NA,NA,NA,NA,NA,"","","",NA,"",NA,NA,NA,NA,NA,NA,NA,"",NA,"20"
"",NA,"",NA,"",NA,NA,NA,NA,NA,NA,NA,"","",1,1,"2024-08-24_03h59.22.803","IAT(Formal)","2021.2.3","Win32",142.8571429,"",NA,"",NA,NA,NA,NA,NA,NA,NA,"","","",NA,"e",1,0.4586,NA,NA,NA,NA,NA,"我的","e","",NA,1,77,157,51,1,"",NA,"",NA,NA,NA,NA,NA,NA,NA,"",NA,"",NA,NA,NA,NA,NA,NA,NA,"","","",NA,"",NA,NA,NA,NA,NA,NA,NA,"",NA,"20"
"",NA,"",NA,"",NA,NA,NA,NA,NA,NA,NA,"","",1,1,"2024-08-24_03h59.22.803","IAT(Formal)","2021.2.3","Win32",142.8571429,"",NA,"",NA,NA,NA,NA,NA,NA,NA,"","","",NA,"i",1,0.6396,NA,NA,NA,NA,NA,"他","i","",NA,1,78,158,75,1,"",NA,"",NA,NA,NA,NA,NA,NA,NA,"",NA,"",NA,NA,NA,NA,NA,NA,NA,"","","",NA,"",NA,NA,NA,NA,NA,NA,NA,"",NA,"20"
"",NA,"",NA,"",NA,NA,NA,NA,NA,NA,NA,"","",1,1,"2024-08-24_03h59.22.803","IAT(Formal)","2021.2.3","Win32",142.8571429,"",NA,"",NA,NA,NA,NA,NA,NA,NA,"","","",NA,"i",1,0.5712,NA,NA,NA,NA,NA,"野蛮","i","",NA,1,79,159,46,1,"",NA,"",NA,NA,NA,NA,NA,NA,NA,"",NA,"",NA,NA,NA,NA,NA,NA,NA,"","","",NA,"",NA,NA,NA,NA,NA,NA,NA,"",NA,"20"
"",NA,"",NA,"",NA,NA,NA,NA,NA,NA,NA,"我的","i",1,1,"2024-08-24_03h59.22.803","IAT(Formal)","2021.2.3","Win32",142.8571429,"",NA,"",NA,NA,NA,NA,NA,NA,NA,"","","",NA,"",NA,NA,NA,NA,NA,NA,NA,"","","",NA,NA,NA,NA,NA,NA,"space",219.0185,"i",1,0.7828,0,0,0,1,1,"",NA,"",NA,NA,NA,NA,NA,NA,NA,"","","",NA,"",NA,NA,NA,NA,NA,NA,NA,"",NA,"20"
"",NA,"",NA,"",NA,NA,NA,NA,NA,NA,NA,"他们","e",1,1,"2024-08-24_03h59.22.803","IAT(Formal)","2021.2.3","Win32",142.8571429,"",NA,"",NA,NA,NA,NA,NA,NA,NA,"","","",NA,"",NA,NA,NA,NA,NA,NA,NA,"","","",NA,NA,NA,NA,NA,NA,"",NA,"e",1,0.5367,0,1,1,6,1,"",NA,"",NA,NA,NA,NA,NA,NA,NA,"","","",NA,"",NA,NA,NA,NA,NA,NA,NA,"",NA,"20"
"",NA,"",NA,"",NA,NA,NA,NA,NA,NA,NA,"其他","e",1,1,"2024-08-24_03h59.22.803","IAT(Formal)","2021.2.3","Win32",142.8571429,"",NA,"",NA,NA,NA,NA,NA,NA,NA,"","","",NA,"",NA,NA,NA,NA,NA,NA,NA,"","","",NA,NA,NA,NA,NA,NA,"",NA,"e",1,1.3471,0,2,2,9,1,"",NA,"",NA,NA,NA,NA,NA,NA,NA,"","","",NA,"",NA,NA,NA,NA,NA,NA,NA,"",NA,"20"
"",NA,"",NA,"",NA,NA,NA,NA,NA,NA,NA,"他","e",1,1,"2024-08-24_03h59.22.803","IAT(Formal)","2021.2.3","Win32",142.8571429,"",NA,"",NA,NA,NA,NA,NA,NA,NA,"","","",NA,"",NA,NA,NA,NA,NA,NA,NA,"","","",NA,NA,NA,NA,NA,NA,"",NA,"e",1,0.5488,0,3,3,5,1,"",NA,"",NA,NA,NA,NA,NA,NA,NA,"","","",NA,"",NA,NA,NA,NA,NA,NA,NA,"",NA,"20"
"",NA,"",NA,"",NA,NA,NA,NA,NA,NA,NA,"他的","e",1,1,"2024-08-24_03h59.22.803","IAT(Formal)","2021.2.3","Win32",142.8571429,"",NA,"",NA,NA,NA,NA,NA,NA,NA,"","","",NA,"",NA,NA,NA,NA,NA,NA,NA,"","","",NA,NA,NA,NA,NA,NA,"",NA,"e",1,0.514,0,4,4,7,1,"",NA,"",NA,NA,NA,NA,NA,NA,NA,"","","",NA,"",NA,NA,NA,NA,NA,NA,NA,"",NA,"20"
"",NA,"",NA,"",NA,NA,NA,NA,NA,NA,NA,"我们","i",1,1,"2024-08-24_03h59.22.803","IAT(Formal)","2021.2.3","Win32",142.8571429,"",NA,"",NA,NA,NA,NA,NA,NA,NA,"","","",NA,"",NA,NA,NA,NA,NA,NA,NA,"","","",NA,NA,NA,NA,NA,NA,"",NA,"i",1,0.5074,0,5,5,2,1,"",NA,"",NA,NA,NA,NA,NA,NA,NA,"","","",NA,"",NA,NA,NA,NA,NA,NA,NA,"",NA,"20"
"",NA,"",NA,"",NA,NA,NA,NA,NA,NA,NA,"俺","i",1,1,"2024-08-24_03h59.22.803","IAT(Formal)","2021.2.3","Win32",142.8571429,"",NA,"",NA,NA,NA,NA,NA,NA,NA,"","","",NA,"",NA,NA,NA,NA,NA,NA,NA,"","","",NA,NA,NA,NA,NA,NA,"",NA,"i",1,0.6117,0,6,6,4,1,"",NA,"",NA,NA,NA,NA,NA,NA,NA,"","","",NA,"",NA,NA,NA,NA,NA,NA,NA,"",NA,"20"
"",NA,"",NA,"",NA,NA,NA,NA,NA,NA,NA,"我","i",1,1,"2024-08-24_03h59.22.803","IAT(Formal)","2021.2.3","Win32",142.8571429,"",NA,"",NA,NA,NA,NA,NA,NA,NA,"","","",NA,"",NA,NA,NA,NA,NA,NA,NA,"","","",NA,NA,NA,NA,NA,NA,"",NA,"i",1,0.3566,0,7,7,0,1,"",NA,"",NA,NA,NA,NA,NA,NA,NA,"","","",NA,"",NA,NA,NA,NA,NA,NA,NA,"",NA,"20"
"",NA,"",NA,"",NA,NA,NA,NA,NA,NA,NA,"自己","i",1,1,"2024-08-24_03h59.22.803","IAT(Formal)","2021.2.3","Win32",142.8571429,"",NA,"",NA,NA,NA,NA,NA,NA,NA,"","","",NA,"",NA,NA,NA,NA,NA,NA,NA,"","","",NA,NA,NA,NA,NA,NA,"",NA,"i",1,0.3891,0,8,8,3,1,"",NA,"",NA,NA,NA,NA,NA,NA,NA,"","","",NA,"",NA,NA,NA,NA,NA,NA,NA,"",NA,"20"
"",NA,"",NA,"",NA,NA,NA,NA,NA,NA,NA,"他人","e",1,1,"2024-08-24_03h59.22.803","IAT(Formal)","2021.2.3","Win32",142.8571429,"",NA,"",NA,NA,NA,NA,NA,NA,NA,"","","",NA,"",NA,NA,NA,NA,NA,NA,NA,"","","",NA,NA,NA,NA,NA,NA,"",NA,"e",1,0.5764,0,9,9,8,1,"",NA,"",NA,NA,NA,NA,NA,NA,NA,"","","",NA,"",NA,NA,NA,NA,NA,NA,NA,"",NA,"20"
"",NA,"",NA,"",NA,NA,NA,NA,NA,NA,NA,"","",1,1,"2024-08-24_03h59.22.803","IAT(Formal)","2021.2.3","Win32",142.8571429,"",NA,"",NA,NA,NA,NA,NA,NA,NA,"","","",NA,"",NA,NA,NA,NA,NA,NA,NA,"","","",NA,NA,NA,NA,NA,NA,"",NA,"",NA,NA,NA,NA,NA,NA,NA,"space",23.4778,"i",1,1.1173,0,0,0,42,1,"凶狠","i","",NA,"",NA,NA,NA,NA,NA,NA,NA,"",NA,"20"
"",NA,"",NA,"",NA,NA,NA,NA,NA,NA,NA,"","",1,1,"2024-08-24_03h59.22.803","IAT(Formal)","2021.2.3","Win32",142.8571429,"",NA,"",NA,NA,NA,NA,NA,NA,NA,"","","",NA,"",NA,NA,NA,NA,NA,NA,NA,"","","",NA,NA,NA,NA,NA,NA,"",NA,"",NA,NA,NA,NA,NA,NA,NA,"",NA,"i",0,1.0156,0,1,1,66,1,"他们","e","",NA,"",NA,NA,NA,NA,NA,NA,NA,"",NA,"20"
"",NA,"",NA,"",NA,NA,NA,NA,NA,NA,NA,"","",1,1,"2024-08-24_03h59.22.803","IAT(Formal)","2021.2.3","Win32",142.8571429,"",NA,"",NA,NA,NA,NA,NA,NA,NA,"","","",NA,"",NA,NA,NA,NA,NA,NA,NA,"","","",NA,NA,NA,NA,NA,NA,"",NA,"",NA,NA,NA,NA,NA,NA,NA,"",NA,"i",1,0.4792,0,2,2,72,1,"我们","i","",NA,"",NA,NA,NA,NA,NA,NA,NA,"",NA,"20"
"",NA,"",NA,"",NA,NA,NA,NA,NA,NA,NA,"","",1,1,"2024-08-24_03h59.22.803","IAT(Formal)","2021.2.3","Win32",142.8571429,"",NA,"",NA,NA,NA,NA,NA,NA,NA,"","","",NA,"",NA,NA,NA,NA,NA,NA,NA,"","","",NA,NA,NA,NA,NA,NA,"",NA,"",NA,NA,NA,NA,NA,NA,NA,"",NA,"i",1,0.5848,0,3,3,64,1,"俺","i","",NA,"",NA,NA,NA,NA,NA,NA,NA,"",NA,"20"
"",NA,"",NA,"",NA,NA,NA,NA,NA,NA,NA,"","",1,1,"2024-08-24_03h59.22.803","IAT(Formal)","2021.2.3","Win32",142.8571429,"",NA,"",NA,NA,NA,NA,NA,NA,NA,"","","",NA,"",NA,NA,NA,NA,NA,NA,NA,"","","",NA,NA,NA,NA,NA,NA,"",NA,"",NA,NA,NA,NA,NA,NA,NA,"",NA,"i",1,0.4668,0,4,4,53,1,"自己","i","",NA,"",NA,NA,NA,NA,NA,NA,NA,"",NA,"20"
