﻿Instruction1.keys,Instruction1.rt,Instruction2.keys,Instruction2.rt,key_resp_iso.keys,key_resp_iso.corr,Practice_01.thisRepN,Practice_01.thisTrialN,Practice_01.thisN,Practice_01.thisIndex,Practice_01.ran,Words,ans,participant,session,date,expName,psychopyVersion,OS,frameRate,key_resp_iso.rt,key_resp_3.keys,key_resp_3.rt,key_resp_ipn.keys,key_resp_ipn.corr,key_resp_ipn.rt,Practice_02.thisRepN,Practice_02.thisTrialN,Practice_02.thisN,Practice_02.thisIndex,Practice_02.ran,Words_ipn,ans_ipn,key_resp_4.keys,key_resp_4.rt,key_resp_t1.keys,key_resp_t1.corr,key_resp_t1.rt,Practice_T1.thisRepN,Practice_T1.thisTrialN,Practice_T1.thisN,Practice_T1.thisIndex,Practice_T1.ran,Words_t1,ans_t1,key_resp_5.keys,key_resp_5.rt,Formal_T1.thisRepN,Formal_T1.thisTrialN,Formal_T1.thisN,Formal_T1.thisIndex,Formal_T1.ran,key_resp_6.keys,key_resp_6.rt,key_resp_iso_reverse.keys,key_resp_iso_reverse.corr,Practice_iso_Reverse.thisRepN,Practice_iso_Reverse.thisTrialN,Practice_iso_Reverse.thisN,Practice_iso_Reverse.thisIndex,Practice_iso_Reverse.ran,key_resp_iso_reverse.rt,key_resp_7.keys,key_resp_7.rt,key_resp_t2_Practice.keys,key_resp_t2_Practice.corr,key_resp_t2_Practice.rt,Practice_t2_Reverse.thisRepN,Practice_t2_Reverse.thisTrialN,Practice_t2_Reverse.thisN,Practice_t2_Reverse.thisIndex,Practice_t2_Reverse.ran,Words_t2,ans_t2,key_resp_8.keys,key_resp_8.rt,key_resp_t2.keys,key_resp_t2.corr,key_resp_t2.rt,Formal_t2_reverse.thisRepN,Formal_t2_reverse.thisTrialN,Formal_t2_reverse.thisN,Formal_t2_reverse.thisIndex,Formal_t2_reverse.ran,key_instruct.keys,key_instruct.rt
space,5.1274,space,21.7301,,0,0,0,0,9,1,其他,i,1,001,2024-08-24_10h36.07.815,IAT(Formal),2021.2.3,Win32,59.88023952,,,,,,,,,,,,,,,,,,,,,,,,,,,,,,,,,,,,,,,,,,,,,,,,,,,,,,,,,,,,,,,,,,
,,,,e,1,0,1,1,1,1,我的,e,1,001,2024-08-24_10h36.07.815,IAT(Formal),2021.2.3,Win32,59.88023952,1.0589,,,,,,,,,,,,,,,,,,,,,,,,,,,,,,,,,,,,,,,,,,,,,,,,,,,,,,,,,,,,,,,,,
,,,,e,0,0,2,2,8,1,他人,i,1,001,2024-08-24_10h36.07.815,IAT(Formal),2021.2.3,Win32,59.88023952,0.2568,,,,,,,,,,,,,,,,,,,,,,,,,,,,,,,,,,,,,,,,,,,,,,,,,,,,,,,,,,,,,,,,,
,,,,i,1,0,3,3,7,1,他的,i,1,001,2024-08-24_10h36.07.815,IAT(Formal),2021.2.3,Win32,59.88023952,0.8692,,,,,,,,,,,,,,,,,,,,,,,,,,,,,,,,,,,,,,,,,,,,,,,,,,,,,,,,,,,,,,,,,
,,,,e,1,0,4,4,3,1,自己,e,1,001,2024-08-24_10h36.07.815,IAT(Formal),2021.2.3,Win32,59.88023952,0.7524,,,,,,,,,,,,,,,,,,,,,,,,,,,,,,,,,,,,,,,,,,,,,,,,,,,,,,,,,,,,,,,,,
,,,,i,1,0,5,5,6,1,他们,i,1,001,2024-08-24_10h36.07.815,IAT(Formal),2021.2.3,Win32,59.88023952,1.0168,,,,,,,,,,,,,,,,,,,,,,,,,,,,,,,,,,,,,,,,,,,,,,,,,,,,,,,,,,,,,,,,,
,,,,i,1,0,6,6,5,1,他,i,1,001,2024-08-24_10h36.07.815,IAT(Formal),2021.2.3,Win32,59.88023952,0.7052,,,,,,,,,,,,,,,,,,,,,,,,,,,,,,,,,,,,,,,,,,,,,,,,,,,,,,,,,,,,,,,,,
,,,,e,1,0,7,7,2,1,我们,e,1,001,2024-08-24_10h36.07.815,IAT(Formal),2021.2.3,Win32,59.88023952,1.2914,,,,,,,,,,,,,,,,,,,,,,,,,,,,,,,,,,,,,,,,,,,,,,,,,,,,,,,,,,,,,,,,,
,,,,e,1,0,8,8,4,1,俺,e,1,001,2024-08-24_10h36.07.815,IAT(Formal),2021.2.3,Win32,59.88023952,0.5795,,,,,,,,,,,,,,,,,,,,,,,,,,,,,,,,,,,,,,,,,,,,,,,,,,,,,,,,,,,,,,,,,
,,,,e,1,0,9,9,0,1,我,e,1,001,2024-08-24_10h36.07.815,IAT(Formal),2021.2.3,Win32,59.88023952,1.1551,,,,,,,,,,,,,,,,,,,,,,,,,,,,,,,,,,,,,,,,,,,,,,,,,,,,,,,,,,,,,,,,,
,,,,,,,,,,,,,1,001,2024-08-24_10h36.07.815,IAT(Formal),2021.2.3,Win32,59.88023952,,space,18.1691,e,1,0.7672,0,0,0,5,1,诚实,e,,,,,,,,,,,,,,,,,,,,,,,,,,,,,,,,,,,,,,,,,,,,,,,,,,,,,
,,,,,,,,,,,,,1,001,2024-08-24_10h36.07.815,IAT(Formal),2021.2.3,Win32,59.88023952,,,,e,1,0.4979,0,1,1,17,1,热情,e,,,,,,,,,,,,,,,,,,,,,,,,,,,,,,,,,,,,,,,,,,,,,,,,,,,,,
,,,,,,,,,,,,,1,001,2024-08-24_10h36.07.815,IAT(Formal),2021.2.3,Win32,59.88023952,,,,i,1,0.7568,0,2,2,20,1,卑鄙,i,,,,,,,,,,,,,,,,,,,,,,,,,,,,,,,,,,,,,,,,,,,,,,,,,,,,,
,,,,,,,,,,,,,1,001,2024-08-24_10h36.07.815,IAT(Formal),2021.2.3,Win32,59.88023952,,,,i,1,1.198,0,3,3,25,1,消极,i,,,,,,,,,,,,,,,,,,,,,,,,,,,,,,,,,,,,,,,,,,,,,,,,,,,,,
,,,,,,,,,,,,,1,001,2024-08-24_10h36.07.815,IAT(Formal),2021.2.3,Win32,59.88023952,,,,e,1,0.9172,0,4,4,19,1,诚恳,e,,,,,,,,,,,,,,,,,,,,,,,,,,,,,,,,,,,,,,,,,,,,,,,,,,,,,
,,,,,,,,,,,,,1,001,2024-08-24_10h36.07.815,IAT(Formal),2021.2.3,Win32,59.88023952,,,,i,1,0.764,0,5,5,39,1,下贱,i,,,,,,,,,,,,,,,,,,,,,,,,,,,,,,,,,,,,,,,,,,,,,,,,,,,,,
,,,,,,,,,,,,,1,001,2024-08-24_10h36.07.815,IAT(Formal),2021.2.3,Win32,59.88023952,,,,,0,,0,6,6,1,1,崇高,e,,,,,,,,,,,,,,,,,,,,,,,,,,,,,,,,,,,,,,,,,,,,,,,,,,,,,
,,,,,,,,,,,,,1,001,2024-08-24_10h36.07.815,IAT(Formal),2021.2.3,Win32,59.88023952,,,,i,1,0.6808,0,7,7,38,1,轻率,i,,,,,,,,,,,,,,,,,,,,,,,,,,,,,,,,,,,,,,,,,,,,,,,,,,,,,
,,,,,,,,,,,,,1,001,2024-08-24_10h36.07.815,IAT(Formal),2021.2.3,Win32,59.88023952,,,,i,1,0.6176,0,8,8,23,1,刻薄,i,,,,,,,,,,,,,,,,,,,,,,,,,,,,,,,,,,,,,,,,,,,,,,,,,,,,,
,,,,,,,,,,,,,1,001,2024-08-24_10h36.07.815,IAT(Formal),2021.2.3,Win32,59.88023952,,,,i,1,0.5667,0,9,9,21,1,虚伪,i,,,,,,,,,,,,,,,,,,,,,,,,,,,,,,,,,,,,,,,,,,,,,,,,,,,,,
,,,,,,,,,,,,,1,001,2024-08-24_10h36.07.815,IAT(Formal),2021.2.3,Win32,59.88023952,,,,i,1,0.6459,0,10,10,22,1,愚蠢,i,,,,,,,,,,,,,,,,,,,,,,,,,,,,,,,,,,,,,,,,,,,,,,,,,,,,,
,,,,,,,,,,,,,1,001,2024-08-24_10h36.07.815,IAT(Formal),2021.2.3,Win32,59.88023952,,,,e,1,0.5737,0,11,11,4,1,乐观,e,,,,,,,,,,,,,,,,,,,,,,,,,,,,,,,,,,,,,,,,,,,,,,,,,,,,,
,,,,,,,,,,,,,1,001,2024-08-24_10h36.07.815,IAT(Formal),2021.2.3,Win32,59.88023952,,,,e,1,0.5294,0,12,12,7,1,勇敢,e,,,,,,,,,,,,,,,,,,,,,,,,,,,,,,,,,,,,,,,,,,,,,,,,,,,,,
,,,,,,,,,,,,,1,001,2024-08-24_10h36.07.815,IAT(Formal),2021.2.3,Win32,59.88023952,,,,e,1,0.5932,0,13,13,14,1,朴实,e,,,,,,,,,,,,,,,,,,,,,,,,,,,,,,,,,,,,,,,,,,,,,,,,,,,,,
,,,,,,,,,,,,,1,001,2024-08-24_10h36.07.815,IAT(Formal),2021.2.3,Win32,59.88023952,,,,i,1,0.6982,0,14,14,24,1,悲观,i,,,,,,,,,,,,,,,,,,,,,,,,,,,,,,,,,,,,,,,,,,,,,,,,,,,,,
,,,,,,,,,,,,,1,001,2024-08-24_10h36.07.815,IAT(Formal),2021.2.3,Win32,59.88023952,,,,i,1,0.6336,0,15,15,26,1,自卑,i,,,,,,,,,,,,,,,,,,,,,,,,,,,,,,,,,,,,,,,,,,,,,,,,,,,,,
,,,,,,,,,,,,,1,001,2024-08-24_10h36.07.815,IAT(Formal),2021.2.3,Win32,59.88023952,,,,i,1,0.8615,0,16,16,37,1,固执,i,,,,,,,,,,,,,,,,,,,,,,,,,,,,,,,,,,,,,,,,,,,,,,,,,,,,,
,,,,,,,,,,,,,1,001,2024-08-24_10h36.07.815,IAT(Formal),2021.2.3,Win32,59.88023952,,,,e,0,1.1868,0,17,17,34,1,暴躁,i,,,,,,,,,,,,,,,,,,,,,,,,,,,,,,,,,,,,,,,,,,,,,,,,,,,,,
,,,,,,,,,,,,,1,001,2024-08-24_10h36.07.815,IAT(Formal),2021.2.3,Win32,59.88023952,,,,i,1,0.6523,0,18,18,33,1,自私,i,,,,,,,,,,,,,,,,,,,,,,,,,,,,,,,,,,,,,,,,,,,,,,,,,,,,,
,,,,,,,,,,,,,1,001,2024-08-24_10h36.07.815,IAT(Formal),2021.2.3,Win32,59.88023952,,,,e,1,0.608,0,19,19,10,1,认真,e,,,,,,,,,,,,,,,,,,,,,,,,,,,,,,,,,,,,,,,,,,,,,,,,,,,,,
,,,,,,,,,,,,,1,001,2024-08-24_10h36.07.815,IAT(Formal),2021.2.3,Win32,59.88023952,,,,i,1,0.7341,0,20,20,35,1,猖狂,i,,,,,,,,,,,,,,,,,,,,,,,,,,,,,,,,,,,,,,,,,,,,,,,,,,,,,
,,,,,,,,,,,,,1,001,2024-08-24_10h36.07.815,IAT(Formal),2021.2.3,Win32,59.88023952,,,,i,1,0.6691,0,21,21,30,1,执拗,i,,,,,,,,,,,,,,,,,,,,,,,,,,,,,,,,,,,,,,,,,,,,,,,,,,,,,
,,,,,,,,,,,,,1,001,2024-08-24_10h36.07.815,IAT(Formal),2021.2.3,Win32,59.88023952,,,,e,1,0.6169,0,22,22,15,1,细腻,e,,,,,,,,,,,,,,,,,,,,,,,,,,,,,,,,,,,,,,,,,,,,,,,,,,,,,
,,,,,,,,,,,,,1,001,2024-08-24_10h36.07.815,IAT(Formal),2021.2.3,Win32,59.88023952,,,,e,1,0.6641,0,23,23,12,1,无私,e,,,,,,,,,,,,,,,,,,,,,,,,,,,,,,,,,,,,,,,,,,,,,,,,,,,,,
,,,,,,,,,,,,,1,001,2024-08-24_10h36.07.815,IAT(Formal),2021.2.3,Win32,59.88023952,,,,i,1,0.756,0,24,24,27,1,傲慢,i,,,,,,,,,,,,,,,,,,,,,,,,,,,,,,,,,,,,,,,,,,,,,,,,,,,,,
,,,,,,,,,,,,,1,001,2024-08-24_10h36.07.815,IAT(Formal),2021.2.3,Win32,59.88023952,,,,e,1,0.8861,0,25,25,0,1,优秀,e,,,,,,,,,,,,,,,,,,,,,,,,,,,,,,,,,,,,,,,,,,,,,,,,,,,,,
,,,,,,,,,,,,,1,001,2024-08-24_10h36.07.815,IAT(Formal),2021.2.3,Win32,59.88023952,,,,i,1,0.7381,0,26,26,31,1,散漫,i,,,,,,,,,,,,,,,,,,,,,,,,,,,,,,,,,,,,,,,,,,,,,,,,,,,,,
,,,,,,,,,,,,,1,001,2024-08-24_10h36.07.815,IAT(Formal),2021.2.3,Win32,59.88023952,,,,e,1,0.8095,0,27,27,11,1,稳重,e,,,,,,,,,,,,,,,,,,,,,,,,,,,,,,,,,,,,,,,,,,,,,,,,,,,,,
,,,,,,,,,,,,,1,001,2024-08-24_10h36.07.815,IAT(Formal),2021.2.3,Win32,59.88023952,,,,e,1,0.7363,0,28,28,18,1,活泼,e,,,,,,,,,,,,,,,,,,,,,,,,,,,,,,,,,,,,,,,,,,,,,,,,,,,,,
,,,,,,,,,,,,,1,001,2024-08-24_10h36.07.815,IAT(Formal),2021.2.3,Win32,59.88023952,,,,,0,,0,29,29,8,1,勤奋,e,,,,,,,,,,,,,,,,,,,,,,,,,,,,,,,,,,,,,,,,,,,,,,,,,,,,,
,,,,,,,,,,,,,1,001,2024-08-24_10h36.07.815,IAT(Formal),2021.2.3,Win32,59.88023952,,,,e,1,0.6099,0,30,30,2,1,聪明,e,,,,,,,,,,,,,,,,,,,,,,,,,,,,,,,,,,,,,,,,,,,,,,,,,,,,,
,,,,,,,,,,,,,1,001,2024-08-24_10h36.07.815,IAT(Formal),2021.2.3,Win32,59.88023952,,,,e,1,0.9505,0,31,31,16,1,冷静,e,,,,,,,,,,,,,,,,,,,,,,,,,,,,,,,,,,,,,,,,,,,,,,,,,,,,,
,,,,,,,,,,,,,1,001,2024-08-24_10h36.07.815,IAT(Formal),2021.2.3,Win32,59.88023952,,,,e,0,0.8703,0,32,32,36,1,野蛮,i,,,,,,,,,,,,,,,,,,,,,,,,,,,,,,,,,,,,,,,,,,,,,,,,,,,,,
,,,,,,,,,,,,,1,001,2024-08-24_10h36.07.815,IAT(Formal),2021.2.3,Win32,59.88023952,,,,e,1,0.5224,0,33,33,13,1,公正,e,,,,,,,,,,,,,,,,,,,,,,,,,,,,,,,,,,,,,,,,,,,,,,,,,,,,,
,,,,,,,,,,,,,1,001,2024-08-24_10h36.07.815,IAT(Formal),2021.2.3,Win32,59.88023952,,,,e,1,0.9679,0,34,34,3,1,杰出,e,,,,,,,,,,,,,,,,,,,,,,,,,,,,,,,,,,,,,,,,,,,,,,,,,,,,,
,,,,,,,,,,,,,1,001,2024-08-24_10h36.07.815,IAT(Formal),2021.2.3,Win32,59.88023952,,,,i,1,0.9235,0,35,35,28,1,鲁莽,i,,,,,,,,,,,,,,,,,,,,,,,,,,,,,,,,,,,,,,,,,,,,,,,,,,,,,
,,,,,,,,,,,,,1,001,2024-08-24_10h36.07.815,IAT(Formal),2021.2.3,Win32,59.88023952,,,,e,1,0.5744,0,36,36,6,1,正直,e,,,,,,,,,,,,,,,,,,,,,,,,,,,,,,,,,,,,,,,,,,,,,,,,,,,,,
,,,,,,,,,,,,,1,001,2024-08-24_10h36.07.815,IAT(Formal),2021.2.3,Win32,59.88023952,,,,i,1,0.7099,0,37,37,32,1,凶狠,i,,,,,,,,,,,,,,,,,,,,,,,,,,,,,,,,,,,,,,,,,,,,,,,,,,,,,
,,,,,,,,,,,,,1,001,2024-08-24_10h36.07.815,IAT(Formal),2021.2.3,Win32,59.88023952,,,,,0,,0,38,38,9,1,机智,e,,,,,,,,,,,,,,,,,,,,,,,,,,,,,,,,,,,,,,,,,,,,,,,,,,,,,
,,,,,,,,,,,,,1,001,2024-08-24_10h36.07.815,IAT(Formal),2021.2.3,Win32,59.88023952,,,,i,1,0.9381,0,39,39,29,1,冒失,i,,,,,,,,,,,,,,,,,,,,,,,,,,,,,,,,,,,,,,,,,,,,,,,,,,,,,
,,,,,,,,,,,,,1,001,2024-08-24_10h36.07.815,IAT(Formal),2021.2.3,Win32,59.88023952,,,,,,,,,,,,,,space,22.655,i,1,0.877,0,0,0,49,1,下贱,i,,,,,,,,,,,,,,,,,,,,,,,,,,,,,,,,,,,,,,,,,
,,,,,,,,,,,,,1,001,2024-08-24_10h36.07.815,IAT(Formal),2021.2.3,Win32,59.88023952,,,,,,,,,,,,,,,,i,1,0.8696,0,1,1,68,1,他人,i,,,,,,,,,,,,,,,,,,,,,,,,,,,,,,,,,,,,,,,,,
,,,,,,,,,,,,,1,001,2024-08-24_10h36.07.815,IAT(Formal),2021.2.3,Win32,59.88023952,,,,,,,,,,,,,,,,e,1,0.5182,0,2,2,72,1,我们,e,,,,,,,,,,,,,,,,,,,,,,,,,,,,,,,,,,,,,,,,,
,,,,,,,,,,,,,1,001,2024-08-24_10h36.07.815,IAT(Formal),2021.2.3,Win32,59.88023952,,,,,,,,,,,,,,,,e,1,1.1464,0,3,3,26,1,冷静,e,,,,,,,,,,,,,,,,,,,,,,,,,,,,,,,,,,,,,,,,,
,,,,,,,,,,,,,1,001,2024-08-24_10h36.07.815,IAT(Formal),2021.2.3,Win32,59.88023952,,,,,,,,,,,,,,,,e,1,0.5,0,4,4,62,1,我们,e,,,,,,,,,,,,,,,,,,,,,,,,,,,,,,,,,,,,,,,,,
,,,,,,,,,,,,,1,001,2024-08-24_10h36.07.815,IAT(Formal),2021.2.3,Win32,59.88023952,,,,,,,,,,,,,,,,e,1,0.5528,0,5,5,0,1,我,e,,,,,,,,,,,,,,,,,,,,,,,,,,,,,,,,,,,,,,,,,
,,,,,,,,,,,,,1,001,2024-08-24_10h36.07.815,IAT(Formal),2021.2.3,Win32,59.88023952,,,,,,,,,,,,,,,,e,1,0.721,0,6,6,64,1,俺,e,,,,,,,,,,,,,,,,,,,,,,,,,,,,,,,,,,,,,,,,,
,,,,,,,,,,,,,1,001,2024-08-24_10h36.07.815,IAT(Formal),2021.2.3,Win32,59.88023952,,,,,,,,,,,,,,,,i,1,0.623,0,7,7,79,1,其他,i,,,,,,,,,,,,,,,,,,,,,,,,,,,,,,,,,,,,,,,,,
,,,,,,,,,,,,,1,001,2024-08-24_10h36.07.815,IAT(Formal),2021.2.3,Win32,59.88023952,,,,,,,,,,,,,,,,,0,,0,8,8,57,1,他的,i,,,,,,,,,,,,,,,,,,,,,,,,,,,,,,,,,,,,,,,,,
,,,,,,,,,,,,,1,001,2024-08-24_10h36.07.815,IAT(Formal),2021.2.3,Win32,59.88023952,,,,,,,,,,,,,,,,e,1,0.6025,0,9,9,28,1,活泼,e,,,,,,,,,,,,,,,,,,,,,,,,,,,,,,,,,,,,,,,,,
,,,,,,,,,,,,,1,001,2024-08-24_10h36.07.815,IAT(Formal),2021.2.3,Win32,59.88023952,,,,,,,,,,,,,,,,i,1,0.7694,0,10,10,42,1,凶狠,i,,,,,,,,,,,,,,,,,,,,,,,,,,,,,,,,,,,,,,,,,
,,,,,,,,,,,,,1,001,2024-08-24_10h36.07.815,IAT(Formal),2021.2.3,Win32,59.88023952,,,,,,,,,,,,,,,,e,1,1.1098,0,11,11,51,1,我的,e,,,,,,,,,,,,,,,,,,,,,,,,,,,,,,,,,,,,,,,,,
,,,,,,,,,,,,,1,001,2024-08-24_10h36.07.815,IAT(Formal),2021.2.3,Win32,59.88023952,,,,,,,,,,,,,,,,i,1,0.8871,0,12,12,39,1,冒失,i,,,,,,,,,,,,,,,,,,,,,,,,,,,,,,,,,,,,,,,,,
,,,,,,,,,,,,,1,001,2024-08-24_10h36.07.815,IAT(Formal),2021.2.3,Win32,59.88023952,,,,,,,,,,,,,,,,i,1,0.6255,0,13,13,45,1,猖狂,i,,,,,,,,,,,,,,,,,,,,,,,,,,,,,,,,,,,,,,,,,
,,,,,,,,,,,,,1,001,2024-08-24_10h36.07.815,IAT(Formal),2021.2.3,Win32,59.88023952,,,,,,,,,,,,,,,,i,1,0.8614,0,14,14,56,1,他们,i,,,,,,,,,,,,,,,,,,,,,,,,,,,,,,,,,,,,,,,,,
,,,,,,,,,,,,,1,001,2024-08-24_10h36.07.815,IAT(Formal),2021.2.3,Win32,59.88023952,,,,,,,,,,,,,,,,e,1,0.7421,0,15,15,25,1,细腻,e,,,,,,,,,,,,,,,,,,,,,,,,,,,,,,,,,,,,,,,,,
,,,,,,,,,,,,,1,001,2024-08-24_10h36.07.815,IAT(Formal),2021.2.3,Win32,59.88023952,,,,,,,,,,,,,,,,e,1,0.55,0,16,16,50,1,我,e,,,,,,,,,,,,,,,,,,,,,,,,,,,,,,,,,,,,,,,,,
,,,,,,,,,,,,,1,001,2024-08-24_10h36.07.815,IAT(Formal),2021.2.3,Win32,59.88023952,,,,,,,,,,,,,,,,e,1,0.5753,0,17,17,61,1,我的,e,,,,,,,,,,,,,,,,,,,,,,,,,,,,,,,,,,,,,,,,,
,,,,,,,,,,,,,1,001,2024-08-24_10h36.07.815,IAT(Formal),2021.2.3,Win32,59.88023952,,,,,,,,,,,,,,,,e,1,0.4761,0,18,18,71,1,我的,e,,,,,,,,,,,,,,,,,,,,,,,,,,,,,,,,,,,,,,,,,
,,,,,,,,,,,,,1,001,2024-08-24_10h36.07.815,IAT(Formal),2021.2.3,Win32,59.88023952,,,,,,,,,,,,,,,,e,1,0.5757,0,19,19,1,1,我的,e,,,,,,,,,,,,,,,,,,,,,,,,,,,,,,,,,,,,,,,,,
,,,,,,,,,,,,,1,001,2024-08-24_10h36.07.815,IAT(Formal),2021.2.3,Win32,59.88023952,,,,,,,,,,,,,,,,e,1,0.5112,0,20,20,2,1,我们,e,,,,,,,,,,,,,,,,,,,,,,,,,,,,,,,,,,,,,,,,,
,,,,,,,,,,,,,1,001,2024-08-24_10h36.07.815,IAT(Formal),2021.2.3,Win32,59.88023952,,,,,,,,,,,,,,,,,0,,0,21,21,58,1,他人,i,,,,,,,,,,,,,,,,,,,,,,,,,,,,,,,,,,,,,,,,,
,,,,,,,,,,,,,1,001,2024-08-24_10h36.07.815,IAT(Formal),2021.2.3,Win32,59.88023952,,,,,,,,,,,,,,,,e,1,0.652,0,22,22,16,1,正直,e,,,,,,,,,,,,,,,,,,,,,,,,,,,,,,,,,,,,,,,,,
,,,,,,,,,,,,,1,001,2024-08-24_10h36.07.815,IAT(Formal),2021.2.3,Win32,59.88023952,,,,,,,,,,,,,,,,i,1,0.7771,0,23,23,37,1,傲慢,i,,,,,,,,,,,,,,,,,,,,,,,,,,,,,,,,,,,,,,,,,
,,,,,,,,,,,,,1,001,2024-08-24_10h36.07.815,IAT(Formal),2021.2.3,Win32,59.88023952,,,,,,,,,,,,,,,,e,1,0.5075,0,24,24,54,1,俺,e,,,,,,,,,,,,,,,,,,,,,,,,,,,,,,,,,,,,,,,,,
,,,,,,,,,,,,,1,001,2024-08-24_10h36.07.815,IAT(Formal),2021.2.3,Win32,59.88023952,,,,,,,,,,,,,,,,e,1,0.6006,0,25,25,22,1,无私,e,,,,,,,,,,,,,,,,,,,,,,,,,,,,,,,,,,,,,,,,,
,,,,,,,,,,,,,1,001,2024-08-24_10h36.07.815,IAT(Formal),2021.2.3,Win32,59.88023952,,,,,,,,,,,,,,,,i,1,1.0518,0,26,26,76,1,他们,i,,,,,,,,,,,,,,,,,,,,,,,,,,,,,,,,,,,,,,,,,
,,,,,,,,,,,,,1,001,2024-08-24_10h36.07.815,IAT(Formal),2021.2.3,Win32,59.88023952,,,,,,,,,,,,,,,,i,1,0.722,0,27,27,34,1,悲观,i,,,,,,,,,,,,,,,,,,,,,,,,,,,,,,,,,,,,,,,,,
,,,,,,,,,,,,,1,001,2024-08-24_10h36.07.815,IAT(Formal),2021.2.3,Win32,59.88023952,,,,,,,,,,,,,,,,e,1,0.5945,0,28,28,24,1,朴实,e,,,,,,,,,,,,,,,,,,,,,,,,,,,,,,,,,,,,,,,,,
,,,,,,,,,,,,,1,001,2024-08-24_10h36.07.815,IAT(Formal),2021.2.3,Win32,59.88023952,,,,,,,,,,,,,,,,e,1,0.6262,0,29,29,60,1,我,e,,,,,,,,,,,,,,,,,,,,,,,,,,,,,,,,,,,,,,,,,
,,,,,,,,,,,,,1,001,2024-08-24_10h36.07.815,IAT(Formal),2021.2.3,Win32,59.88023952,,,,,,,,,,,,,,,,i,1,0.7118,0,30,30,66,1,他们,i,,,,,,,,,,,,,,,,,,,,,,,,,,,,,,,,,,,,,,,,,
,,,,,,,,,,,,,1,001,2024-08-24_10h36.07.815,IAT(Formal),2021.2.3,Win32,59.88023952,,,,,,,,,,,,,,,,i,1,0.7877,0,31,31,59,1,其他,i,,,,,,,,,,,,,,,,,,,,,,,,,,,,,,,,,,,,,,,,,
,,,,,,,,,,,,,1,001,2024-08-24_10h36.07.815,IAT(Formal),2021.2.3,Win32,59.88023952,,,,,,,,,,,,,,,,i,1,0.6921,0,32,32,9,1,其他,i,,,,,,,,,,,,,,,,,,,,,,,,,,,,,,,,,,,,,,,,,
,,,,,,,,,,,,,1,001,2024-08-24_10h36.07.815,IAT(Formal),2021.2.3,Win32,59.88023952,,,,,,,,,,,,,,,,e,1,0.6597,0,33,33,14,1,乐观,e,,,,,,,,,,,,,,,,,,,,,,,,,,,,,,,,,,,,,,,,,
,,,,,,,,,,,,,1,001,2024-08-24_10h36.07.815,IAT(Formal),2021.2.3,Win32,59.88023952,,,,,,,,,,,,,,,,e,1,1.0739,0,34,34,74,1,俺,e,,,,,,,,,,,,,,,,,,,,,,,,,,,,,,,,,,,,,,,,,
,,,,,,,,,,,,,1,001,2024-08-24_10h36.07.815,IAT(Formal),2021.2.3,Win32,59.88023952,,,,,,,,,,,,,,,,e,0,0.492,0,35,35,77,1,他的,i,,,,,,,,,,,,,,,,,,,,,,,,,,,,,,,,,,,,,,,,,
,,,,,,,,,,,,,1,001,2024-08-24_10h36.07.815,IAT(Formal),2021.2.3,Win32,59.88023952,,,,,,,,,,,,,,,,i,1,0.8349,0,36,36,48,1,轻率,i,,,,,,,,,,,,,,,,,,,,,,,,,,,,,,,,,,,,,,,,,
,,,,,,,,,,,,,1,001,2024-08-24_10h36.07.815,IAT(Formal),2021.2.3,Win32,59.88023952,,,,,,,,,,,,,,,,i,1,1.4002,0,37,37,31,1,虚伪,i,,,,,,,,,,,,,,,,,,,,,,,,,,,,,,,,,,,,,,,,,
,,,,,,,,,,,,,1,001,2024-08-24_10h36.07.815,IAT(Formal),2021.2.3,Win32,59.88023952,,,,,,,,,,,,,,,,i,1,1.4115,0,38,38,32,1,愚蠢,i,,,,,,,,,,,,,,,,,,,,,,,,,,,,,,,,,,,,,,,,,
,,,,,,,,,,,,,1,001,2024-08-24_10h36.07.815,IAT(Formal),2021.2.3,Win32,59.88023952,,,,,,,,,,,,,,,,e,1,0.7673,0,39,39,53,1,自己,e,,,,,,,,,,,,,,,,,,,,,,,,,,,,,,,,,,,,,,,,,
,,,,,,,,,,,,,1,001,2024-08-24_10h36.07.815,IAT(Formal),2021.2.3,Win32,59.88023952,,,,,,,,,,,,,,,,i,1,0.6908,0,40,40,6,1,他们,i,,,,,,,,,,,,,,,,,,,,,,,,,,,,,,,,,,,,,,,,,
,,,,,,,,,,,,,1,001,2024-08-24_10h36.07.815,IAT(Formal),2021.2.3,Win32,59.88023952,,,,,,,,,,,,,,,,e,1,0.608,0,41,41,4,1,俺,e,,,,,,,,,,,,,,,,,,,,,,,,,,,,,,,,,,,,,,,,,
,,,,,,,,,,,,,1,001,2024-08-24_10h36.07.815,IAT(Formal),2021.2.3,Win32,59.88023952,,,,,,,,,,,,,,,,e,0,0.5815,0,42,42,55,1,他,i,,,,,,,,,,,,,,,,,,,,,,,,,,,,,,,,,,,,,,,,,
,,,,,,,,,,,,,1,001,2024-08-24_10h36.07.815,IAT(Formal),2021.2.3,Win32,59.88023952,,,,,,,,,,,,,,,,i,1,0.826,0,43,43,36,1,自卑,i,,,,,,,,,,,,,,,,,,,,,,,,,,,,,,,,,,,,,,,,,
,,,,,,,,,,,,,1,001,2024-08-24_10h36.07.815,IAT(Formal),2021.2.3,Win32,59.88023952,,,,,,,,,,,,,,,,e,1,0.7011,0,44,44,19,1,机智,e,,,,,,,,,,,,,,,,,,,,,,,,,,,,,,,,,,,,,,,,,
,,,,,,,,,,,,,1,001,2024-08-24_10h36.07.815,IAT(Formal),2021.2.3,Win32,59.88023952,,,,,,,,,,,,,,,,e,1,0.7776,0,45,45,13,1,杰出,e,,,,,,,,,,,,,,,,,,,,,,,,,,,,,,,,,,,,,,,,,
,,,,,,,,,,,,,1,001,2024-08-24_10h36.07.815,IAT(Formal),2021.2.3,Win32,59.88023952,,,,,,,,,,,,,,,,i,1,0.915,0,46,46,30,1,卑鄙,i,,,,,,,,,,,,,,,,,,,,,,,,,,,,,,,,,,,,,,,,,
,,,,,,,,,,,,,1,001,2024-08-24_10h36.07.815,IAT(Formal),2021.2.3,Win32,59.88023952,,,,,,,,,,,,,,,,e,1,1.06,0,47,47,20,1,认真,e,,,,,,,,,,,,,,,,,,,,,,,,,,,,,,,,,,,,,,,,,
,,,,,,,,,,,,,1,001,2024-08-24_10h36.07.815,IAT(Formal),2021.2.3,Win32,59.88023952,,,,,,,,,,,,,,,,e,1,1.1817,0,48,48,21,1,稳重,e,,,,,,,,,,,,,,,,,,,,,,,,,,,,,,,,,,,,,,,,,
,,,,,,,,,,,,,1,001,2024-08-24_10h36.07.815,IAT(Formal),2021.2.3,Win32,59.88023952,,,,,,,,,,,,,,,,e,1,1.4276,0,49,49,70,1,我,e,,,,,,,,,,,,,,,,,,,,,,,,,,,,,,,,,,,,,,,,,
,,,,,,,,,,,,,1,001,2024-08-24_10h36.07.815,IAT(Formal),2021.2.3,Win32,59.88023952,,,,,,,,,,,,,,,,,0,,0,50,50,15,1,诚实,e,,,,,,,,,,,,,,,,,,,,,,,,,,,,,,,,,,,,,,,,,
,,,,,,,,,,,,,1,001,2024-08-24_10h36.07.815,IAT(Formal),2021.2.3,Win32,59.88023952,,,,,,,,,,,,,,,,e,1,0.5731,0,51,51,17,1,勇敢,e,,,,,,,,,,,,,,,,,,,,,,,,,,,,,,,,,,,,,,,,,
,,,,,,,,,,,,,1,001,2024-08-24_10h36.07.815,IAT(Formal),2021.2.3,Win32,59.88023952,,,,,,,,,,,,,,,,i,1,0.6957,0,52,52,75,1,他,i,,,,,,,,,,,,,,,,,,,,,,,,,,,,,,,,,,,,,,,,,
,,,,,,,,,,,,,1,001,2024-08-24_10h36.07.815,IAT(Formal),2021.2.3,Win32,59.88023952,,,,,,,,,,,,,,,,i,1,0.601,0,53,53,8,1,他人,i,,,,,,,,,,,,,,,,,,,,,,,,,,,,,,,,,,,,,,,,,
,,,,,,,,,,,,,1,001,2024-08-24_10h36.07.815,IAT(Formal),2021.2.3,Win32,59.88023952,,,,,,,,,,,,,,,,i,1,0.5017,0,54,54,5,1,他,i,,,,,,,,,,,,,,,,,,,,,,,,,,,,,,,,,,,,,,,,,
,,,,,,,,,,,,,1,001,2024-08-24_10h36.07.815,IAT(Formal),2021.2.3,Win32,59.88023952,,,,,,,,,,,,,,,,e,1,0.9783,0,55,55,11,1,崇高,e,,,,,,,,,,,,,,,,,,,,,,,,,,,,,,,,,,,,,,,,,
,,,,,,,,,,,,,1,001,2024-08-24_10h36.07.815,IAT(Formal),2021.2.3,Win32,59.88023952,,,,,,,,,,,,,,,,i,1,0.6508,0,56,56,67,1,他的,i,,,,,,,,,,,,,,,,,,,,,,,,,,,,,,,,,,,,,,,,,
,,,,,,,,,,,,,1,001,2024-08-24_10h36.07.815,IAT(Formal),2021.2.3,Win32,59.88023952,,,,,,,,,,,,,,,,i,1,0.7262,0,57,57,40,1,执拗,i,,,,,,,,,,,,,,,,,,,,,,,,,,,,,,,,,,,,,,,,,
,,,,,,,,,,,,,1,001,2024-08-24_10h36.07.815,IAT(Formal),2021.2.3,Win32,59.88023952,,,,,,,,,,,,,,,,e,1,1.3355,0,58,58,3,1,自己,e,,,,,,,,,,,,,,,,,,,,,,,,,,,,,,,,,,,,,,,,,
,,,,,,,,,,,,,1,001,2024-08-24_10h36.07.815,IAT(Formal),2021.2.3,Win32,59.88023952,,,,,,,,,,,,,,,,e,1,1.145,0,59,59,52,1,我们,e,,,,,,,,,,,,,,,,,,,,,,,,,,,,,,,,,,,,,,,,,
,,,,,,,,,,,,,1,001,2024-08-24_10h36.07.815,IAT(Formal),2021.2.3,Win32,59.88023952,,,,,,,,,,,,,,,,e,1,0.5592,0,60,60,27,1,热情,e,,,,,,,,,,,,,,,,,,,,,,,,,,,,,,,,,,,,,,,,,
,,,,,,,,,,,,,1,001,2024-08-24_10h36.07.815,IAT(Formal),2021.2.3,Win32,59.88023952,,,,,,,,,,,,,,,,i,1,0.77,0,61,61,78,1,他人,i,,,,,,,,,,,,,,,,,,,,,,,,,,,,,,,,,,,,,,,,,
,,,,,,,,,,,,,1,001,2024-08-24_10h36.07.815,IAT(Formal),2021.2.3,Win32,59.88023952,,,,,,,,,,,,,,,,i,1,0.7559,0,62,62,41,1,散漫,i,,,,,,,,,,,,,,,,,,,,,,,,,,,,,,,,,,,,,,,,,
,,,,,,,,,,,,,1,001,2024-08-24_10h36.07.815,IAT(Formal),2021.2.3,Win32,59.88023952,,,,,,,,,,,,,,,,i,1,1.313,0,63,63,46,1,野蛮,i,,,,,,,,,,,,,,,,,,,,,,,,,,,,,,,,,,,,,,,,,
,,,,,,,,,,,,,1,001,2024-08-24_10h36.07.815,IAT(Formal),2021.2.3,Win32,59.88023952,,,,,,,,,,,,,,,,,0,,0,64,64,18,1,勤奋,e,,,,,,,,,,,,,,,,,,,,,,,,,,,,,,,,,,,,,,,,,
,,,,,,,,,,,,,1,001,2024-08-24_10h36.07.815,IAT(Formal),2021.2.3,Win32,59.88023952,,,,,,,,,,,,,,,,i,1,0.6678,0,65,65,47,1,固执,i,,,,,,,,,,,,,,,,,,,,,,,,,,,,,,,,,,,,,,,,,
,,,,,,,,,,,,,1,001,2024-08-24_10h36.07.815,IAT(Formal),2021.2.3,Win32,59.88023952,,,,,,,,,,,,,,,,i,1,0.6858,0,66,66,44,1,暴躁,i,,,,,,,,,,,,,,,,,,,,,,,,,,,,,,,,,,,,,,,,,
,,,,,,,,,,,,,1,001,2024-08-24_10h36.07.815,IAT(Formal),2021.2.3,Win32,59.88023952,,,,,,,,,,,,,,,,e,1,0.6576,0,67,67,23,1,公正,e,,,,,,,,,,,,,,,,,,,,,,,,,,,,,,,,,,,,,,,,,
,,,,,,,,,,,,,1,001,2024-08-24_10h36.07.815,IAT(Formal),2021.2.3,Win32,59.88023952,,,,,,,,,,,,,,,,i,1,0.7608,0,68,68,38,1,鲁莽,i,,,,,,,,,,,,,,,,,,,,,,,,,,,,,,,,,,,,,,,,,
,,,,,,,,,,,,,1,001,2024-08-24_10h36.07.815,IAT(Formal),2021.2.3,Win32,59.88023952,,,,,,,,,,,,,,,,i,1,0.9865,0,69,69,69,1,其他,i,,,,,,,,,,,,,,,,,,,,,,,,,,,,,,,,,,,,,,,,,
,,,,,,,,,,,,,1,001,2024-08-24_10h36.07.815,IAT(Formal),2021.2.3,Win32,59.88023952,,,,,,,,,,,,,,,,e,1,0.561,0,70,70,10,1,优秀,e,,,,,,,,,,,,,,,,,,,,,,,,,,,,,,,,,,,,,,,,,
,,,,,,,,,,,,,1,001,2024-08-24_10h36.07.815,IAT(Formal),2021.2.3,Win32,59.88023952,,,,,,,,,,,,,,,,e,1,0.6805,0,71,71,63,1,自己,e,,,,,,,,,,,,,,,,,,,,,,,,,,,,,,,,,,,,,,,,,
,,,,,,,,,,,,,1,001,2024-08-24_10h36.07.815,IAT(Formal),2021.2.3,Win32,59.88023952,,,,,,,,,,,,,,,,e,1,0.7313,0,72,72,12,1,聪明,e,,,,,,,,,,,,,,,,,,,,,,,,,,,,,,,,,,,,,,,,,
,,,,,,,,,,,,,1,001,2024-08-24_10h36.07.815,IAT(Formal),2021.2.3,Win32,59.88023952,,,,,,,,,,,,,,,,i,1,0.9253,0,73,73,33,1,刻薄,i,,,,,,,,,,,,,,,,,,,,,,,,,,,,,,,,,,,,,,,,,
,,,,,,,,,,,,,1,001,2024-08-24_10h36.07.815,IAT(Formal),2021.2.3,Win32,59.88023952,,,,,,,,,,,,,,,,e,0,0.6033,0,74,74,7,1,他的,i,,,,,,,,,,,,,,,,,,,,,,,,,,,,,,,,,,,,,,,,,
,,,,,,,,,,,,,1,001,2024-08-24_10h36.07.815,IAT(Formal),2021.2.3,Win32,59.88023952,,,,,,,,,,,,,,,,i,1,0.9032,0,75,75,43,1,自私,i,,,,,,,,,,,,,,,,,,,,,,,,,,,,,,,,,,,,,,,,,
,,,,,,,,,,,,,1,001,2024-08-24_10h36.07.815,IAT(Formal),2021.2.3,Win32,59.88023952,,,,,,,,,,,,,,,,i,1,0.6441,0,76,76,65,1,他,i,,,,,,,,,,,,,,,,,,,,,,,,,,,,,,,,,,,,,,,,,
,,,,,,,,,,,,,1,001,2024-08-24_10h36.07.815,IAT(Formal),2021.2.3,Win32,59.88023952,,,,,,,,,,,,,,,,i,1,0.6383,0,77,77,35,1,消极,i,,,,,,,,,,,,,,,,,,,,,,,,,,,,,,,,,,,,,,,,,
,,,,,,,,,,,,,1,001,2024-08-24_10h36.07.815,IAT(Formal),2021.2.3,Win32,59.88023952,,,,,,,,,,,,,,,,e,1,1.1059,0,78,78,73,1,自己,e,,,,,,,,,,,,,,,,,,,,,,,,,,,,,,,,,,,,,,,,,
,,,,,,,,,,,,,1,001,2024-08-24_10h36.07.815,IAT(Formal),2021.2.3,Win32,59.88023952,,,,,,,,,,,,,,,,,0,,0,79,79,29,1,诚恳,e,,,,,,,,,,,,,,,,,,,,,,,,,,,,,,,,,,,,,,,,,
,,,,,,,,,,,,,1,001,2024-08-24_10h36.07.815,IAT(Formal),2021.2.3,Win32,59.88023952,,,,,,,,,,,,,,,,e,1,0.9607,,,,,,自己,e,space,16.1868,0,0,0,63,1,,,,,,,,,,,,,,,,,,,,,,,,,,,,,,,,,,
,,,,,,,,,,,,,1,001,2024-08-24_10h36.07.815,IAT(Formal),2021.2.3,Win32,59.88023952,,,,,,,,,,,,,,,,e,1,0.4564,,,,,,杰出,e,,,0,1,1,13,1,,,,,,,,,,,,,,,,,,,,,,,,,,,,,,,,,,
,,,,,,,,,,,,,1,001,2024-08-24_10h36.07.815,IAT(Formal),2021.2.3,Win32,59.88023952,,,,,,,,,,,,,,,,i,1,0.9901,,,,,,轻率,i,,,0,2,2,48,1,,,,,,,,,,,,,,,,,,,,,,,,,,,,,,,,,,
,,,,,,,,,,,,,1,001,2024-08-24_10h36.07.815,IAT(Formal),2021.2.3,Win32,59.88023952,,,,,,,,,,,,,,,,i,1,0.7234,,,,,,悲观,i,,,0,3,3,34,1,,,,,,,,,,,,,,,,,,,,,,,,,,,,,,,,,,
,,,,,,,,,,,,,1,001,2024-08-24_10h36.07.815,IAT(Formal),2021.2.3,Win32,59.88023952,,,,,,,,,,,,,,,,i,1,0.8008,,,,,,他人,i,,,0,4,4,58,1,,,,,,,,,,,,,,,,,,,,,,,,,,,,,,,,,,
,,,,,,,,,,,,,1,001,2024-08-24_10h36.07.815,IAT(Formal),2021.2.3,Win32,59.88023952,,,,,,,,,,,,,,,,i,1,0.6498,,,,,,他人,i,,,0,5,5,8,1,,,,,,,,,,,,,,,,,,,,,,,,,,,,,,,,,,
,,,,,,,,,,,,,1,001,2024-08-24_10h36.07.815,IAT(Formal),2021.2.3,Win32,59.88023952,,,,,,,,,,,,,,,,e,1,0.6167,,,,,,机智,e,,,0,6,6,19,1,,,,,,,,,,,,,,,,,,,,,,,,,,,,,,,,,,
,,,,,,,,,,,,,1,001,2024-08-24_10h36.07.815,IAT(Formal),2021.2.3,Win32,59.88023952,,,,,,,,,,,,,,,,e,1,0.6189,,,,,,我们,e,,,0,7,7,62,1,,,,,,,,,,,,,,,,,,,,,,,,,,,,,,,,,,
,,,,,,,,,,,,,1,001,2024-08-24_10h36.07.815,IAT(Formal),2021.2.3,Win32,59.88023952,,,,,,,,,,,,,,,,i,1,0.9949,,,,,,执拗,i,,,0,8,8,40,1,,,,,,,,,,,,,,,,,,,,,,,,,,,,,,,,,,
,,,,,,,,,,,,,1,001,2024-08-24_10h36.07.815,IAT(Formal),2021.2.3,Win32,59.88023952,,,,,,,,,,,,,,,,i,1,0.5478,,,,,,凶狠,i,,,0,9,9,42,1,,,,,,,,,,,,,,,,,,,,,,,,,,,,,,,,,,
,,,,,,,,,,,,,1,001,2024-08-24_10h36.07.815,IAT(Formal),2021.2.3,Win32,59.88023952,,,,,,,,,,,,,,,,e,1,0.9739,,,,,,俺,e,,,0,10,10,74,1,,,,,,,,,,,,,,,,,,,,,,,,,,,,,,,,,,
,,,,,,,,,,,,,1,001,2024-08-24_10h36.07.815,IAT(Formal),2021.2.3,Win32,59.88023952,,,,,,,,,,,,,,,,e,1,0.8273,,,,,,俺,e,,,0,11,11,54,1,,,,,,,,,,,,,,,,,,,,,,,,,,,,,,,,,,
,,,,,,,,,,,,,1,001,2024-08-24_10h36.07.815,IAT(Formal),2021.2.3,Win32,59.88023952,,,,,,,,,,,,,,,,i,1,0.7707,,,,,,野蛮,i,,,0,12,12,46,1,,,,,,,,,,,,,,,,,,,,,,,,,,,,,,,,,,
,,,,,,,,,,,,,1,001,2024-08-24_10h36.07.815,IAT(Formal),2021.2.3,Win32,59.88023952,,,,,,,,,,,,,,,,e,1,1.0166,,,,,,诚恳,e,,,0,13,13,29,1,,,,,,,,,,,,,,,,,,,,,,,,,,,,,,,,,,
,,,,,,,,,,,,,1,001,2024-08-24_10h36.07.815,IAT(Formal),2021.2.3,Win32,59.88023952,,,,,,,,,,,,,,,,i,1,0.6776,,,,,,消极,i,,,0,14,14,35,1,,,,,,,,,,,,,,,,,,,,,,,,,,,,,,,,,,
,,,,,,,,,,,,,1,001,2024-08-24_10h36.07.815,IAT(Formal),2021.2.3,Win32,59.88023952,,,,,,,,,,,,,,,,e,1,0.8362,,,,,,我的,e,,,0,15,15,1,1,,,,,,,,,,,,,,,,,,,,,,,,,,,,,,,,,,
,,,,,,,,,,,,,1,001,2024-08-24_10h36.07.815,IAT(Formal),2021.2.3,Win32,59.88023952,,,,,,,,,,,,,,,,e,1,0.5853,,,,,,我的,e,,,0,16,16,51,1,,,,,,,,,,,,,,,,,,,,,,,,,,,,,,,,,,
,,,,,,,,,,,,,1,001,2024-08-24_10h36.07.815,IAT(Formal),2021.2.3,Win32,59.88023952,,,,,,,,,,,,,,,,i,1,0.6754,,,,,,他的,i,,,0,17,17,77,1,,,,,,,,,,,,,,,,,,,,,,,,,,,,,,,,,,
,,,,,,,,,,,,,1,001,2024-08-24_10h36.07.815,IAT(Formal),2021.2.3,Win32,59.88023952,,,,,,,,,,,,,,,,e,1,0.9504,,,,,,无私,e,,,0,18,18,22,1,,,,,,,,,,,,,,,,,,,,,,,,,,,,,,,,,,
,,,,,,,,,,,,,1,001,2024-08-24_10h36.07.815,IAT(Formal),2021.2.3,Win32,59.88023952,,,,,,,,,,,,,,,,e,1,0.8287,,,,,,热情,e,,,0,19,19,27,1,,,,,,,,,,,,,,,,,,,,,,,,,,,,,,,,,,
,,,,,,,,,,,,,1,001,2024-08-24_10h36.07.815,IAT(Formal),2021.2.3,Win32,59.88023952,,,,,,,,,,,,,,,,i,1,0.7511,,,,,,卑鄙,i,,,0,20,20,30,1,,,,,,,,,,,,,,,,,,,,,,,,,,,,,,,,,,
,,,,,,,,,,,,,1,001,2024-08-24_10h36.07.815,IAT(Formal),2021.2.3,Win32,59.88023952,,,,,,,,,,,,,,,,e,1,0.7348,,,,,,认真,e,,,0,21,21,20,1,,,,,,,,,,,,,,,,,,,,,,,,,,,,,,,,,,
,,,,,,,,,,,,,1,001,2024-08-24_10h36.07.815,IAT(Formal),2021.2.3,Win32,59.88023952,,,,,,,,,,,,,,,,i,1,0.9047,,,,,,他人,i,,,0,22,22,68,1,,,,,,,,,,,,,,,,,,,,,,,,,,,,,,,,,,
,,,,,,,,,,,,,1,001,2024-08-24_10h36.07.815,IAT(Formal),2021.2.3,Win32,59.88023952,,,,,,,,,,,,,,,,e,1,0.8809,,,,,,自己,e,,,0,23,23,53,1,,,,,,,,,,,,,,,,,,,,,,,,,,,,,,,,,,
,,,,,,,,,,,,,1,001,2024-08-24_10h36.07.815,IAT(Formal),2021.2.3,Win32,59.88023952,,,,,,,,,,,,,,,,e,1,0.9553,,,,,,稳重,e,,,0,24,24,21,1,,,,,,,,,,,,,,,,,,,,,,,,,,,,,,,,,,
,,,,,,,,,,,,,1,001,2024-08-24_10h36.07.815,IAT(Formal),2021.2.3,Win32,59.88023952,,,,,,,,,,,,,,,,e,1,0.6559,,,,,,崇高,e,,,0,25,25,11,1,,,,,,,,,,,,,,,,,,,,,,,,,,,,,,,,,,
,,,,,,,,,,,,,1,001,2024-08-24_10h36.07.815,IAT(Formal),2021.2.3,Win32,59.88023952,,,,,,,,,,,,,,,,i,1,0.7517,,,,,,他,i,,,0,26,26,5,1,,,,,,,,,,,,,,,,,,,,,,,,,,,,,,,,,,
,,,,,,,,,,,,,1,001,2024-08-24_10h36.07.815,IAT(Formal),2021.2.3,Win32,59.88023952,,,,,,,,,,,,,,,,e,1,0.7267,,,,,,我的,e,,,0,27,27,61,1,,,,,,,,,,,,,,,,,,,,,,,,,,,,,,,,,,
,,,,,,,,,,,,,1,001,2024-08-24_10h36.07.815,IAT(Formal),2021.2.3,Win32,59.88023952,,,,,,,,,,,,,,,,i,1,0.8222,,,,,,他们,i,,,0,28,28,66,1,,,,,,,,,,,,,,,,,,,,,,,,,,,,,,,,,,
,,,,,,,,,,,,,1,001,2024-08-24_10h36.07.815,IAT(Formal),2021.2.3,Win32,59.88023952,,,,,,,,,,,,,,,,e,1,0.8383,,,,,,我的,e,,,0,29,29,71,1,,,,,,,,,,,,,,,,,,,,,,,,,,,,,,,,,,
,,,,,,,,,,,,,1,001,2024-08-24_10h36.07.815,IAT(Formal),2021.2.3,Win32,59.88023952,,,,,,,,,,,,,,,,e,1,0.6857,,,,,,自己,e,,,0,30,30,73,1,,,,,,,,,,,,,,,,,,,,,,,,,,,,,,,,,,
,,,,,,,,,,,,,1,001,2024-08-24_10h36.07.815,IAT(Formal),2021.2.3,Win32,59.88023952,,,,,,,,,,,,,,,,i,1,0.806,,,,,,他们,i,,,0,31,31,76,1,,,,,,,,,,,,,,,,,,,,,,,,,,,,,,,,,,
,,,,,,,,,,,,,1,001,2024-08-24_10h36.07.815,IAT(Formal),2021.2.3,Win32,59.88023952,,,,,,,,,,,,,,,,i,1,1.381,,,,,,他们,i,,,0,32,32,56,1,,,,,,,,,,,,,,,,,,,,,,,,,,,,,,,,,,
,,,,,,,,,,,,,1,001,2024-08-24_10h36.07.815,IAT(Formal),2021.2.3,Win32,59.88023952,,,,,,,,,,,,,,,,e,1,0.8575,,,,,,细腻,e,,,0,33,33,25,1,,,,,,,,,,,,,,,,,,,,,,,,,,,,,,,,,,
,,,,,,,,,,,,,1,001,2024-08-24_10h36.07.815,IAT(Formal),2021.2.3,Win32,59.88023952,,,,,,,,,,,,,,,,e,1,1.4283,,,,,,诚实,e,,,0,34,34,15,1,,,,,,,,,,,,,,,,,,,,,,,,,,,,,,,,,,
,,,,,,,,,,,,,1,001,2024-08-24_10h36.07.815,IAT(Formal),2021.2.3,Win32,59.88023952,,,,,,,,,,,,,,,,e,0,1.1668,,,,,,他,i,,,0,35,35,55,1,,,,,,,,,,,,,,,,,,,,,,,,,,,,,,,,,,
,,,,,,,,,,,,,1,001,2024-08-24_10h36.07.815,IAT(Formal),2021.2.3,Win32,59.88023952,,,,,,,,,,,,,,,,i,1,0.7432,,,,,,其他,i,,,0,36,36,59,1,,,,,,,,,,,,,,,,,,,,,,,,,,,,,,,,,,
,,,,,,,,,,,,,1,001,2024-08-24_10h36.07.815,IAT(Formal),2021.2.3,Win32,59.88023952,,,,,,,,,,,,,,,,e,1,0.9848,,,,,,乐观,e,,,0,37,37,14,1,,,,,,,,,,,,,,,,,,,,,,,,,,,,,,,,,,
,,,,,,,,,,,,,1,001,2024-08-24_10h36.07.815,IAT(Formal),2021.2.3,Win32,59.88023952,,,,,,,,,,,,,,,,e,1,0.7789,,,,,,朴实,e,,,0,38,38,24,1,,,,,,,,,,,,,,,,,,,,,,,,,,,,,,,,,,
,,,,,,,,,,,,,1,001,2024-08-24_10h36.07.815,IAT(Formal),2021.2.3,Win32,59.88023952,,,,,,,,,,,,,,,,e,1,0.5845,,,,,,优秀,e,,,0,39,39,10,1,,,,,,,,,,,,,,,,,,,,,,,,,,,,,,,,,,
,,,,,,,,,,,,,1,001,2024-08-24_10h36.07.815,IAT(Formal),2021.2.3,Win32,59.88023952,,,,,,,,,,,,,,,,i,1,0.5631,,,,,,他的,i,,,0,40,40,67,1,,,,,,,,,,,,,,,,,,,,,,,,,,,,,,,,,,
,,,,,,,,,,,,,1,001,2024-08-24_10h36.07.815,IAT(Formal),2021.2.3,Win32,59.88023952,,,,,,,,,,,,,,,,e,1,0.6415,,,,,,我们,e,,,0,41,41,72,1,,,,,,,,,,,,,,,,,,,,,,,,,,,,,,,,,,
,,,,,,,,,,,,,1,001,2024-08-24_10h36.07.815,IAT(Formal),2021.2.3,Win32,59.88023952,,,,,,,,,,,,,,,,i,1,1.353,,,,,,固执,i,,,0,42,42,47,1,,,,,,,,,,,,,,,,,,,,,,,,,,,,,,,,,,
,,,,,,,,,,,,,1,001,2024-08-24_10h36.07.815,IAT(Formal),2021.2.3,Win32,59.88023952,,,,,,,,,,,,,,,,i,1,1.3242,,,,,,他们,i,,,0,43,43,6,1,,,,,,,,,,,,,,,,,,,,,,,,,,,,,,,,,,
,,,,,,,,,,,,,1,001,2024-08-24_10h36.07.815,IAT(Formal),2021.2.3,Win32,59.88023952,,,,,,,,,,,,,,,,i,1,0.761,,,,,,其他,i,,,0,44,44,79,1,,,,,,,,,,,,,,,,,,,,,,,,,,,,,,,,,,
,,,,,,,,,,,,,1,001,2024-08-24_10h36.07.815,IAT(Formal),2021.2.3,Win32,59.88023952,,,,,,,,,,,,,,,,i,1,0.7076,,,,,,愚蠢,i,,,0,45,45,32,1,,,,,,,,,,,,,,,,,,,,,,,,,,,,,,,,,,
,,,,,,,,,,,,,1,001,2024-08-24_10h36.07.815,IAT(Formal),2021.2.3,Win32,59.88023952,,,,,,,,,,,,,,,,i,1,1.3459,,,,,,他的,i,,,0,46,46,7,1,,,,,,,,,,,,,,,,,,,,,,,,,,,,,,,,,,
,,,,,,,,,,,,,1,001,2024-08-24_10h36.07.815,IAT(Formal),2021.2.3,Win32,59.88023952,,,,,,,,,,,,,,,,i,1,0.7945,,,,,,自私,i,,,0,47,47,43,1,,,,,,,,,,,,,,,,,,,,,,,,,,,,,,,,,,
,,,,,,,,,,,,,1,001,2024-08-24_10h36.07.815,IAT(Formal),2021.2.3,Win32,59.88023952,,,,,,,,,,,,,,,,i,1,0.5423,,,,,,鲁莽,i,,,0,48,48,38,1,,,,,,,,,,,,,,,,,,,,,,,,,,,,,,,,,,
,,,,,,,,,,,,,1,001,2024-08-24_10h36.07.815,IAT(Formal),2021.2.3,Win32,59.88023952,,,,,,,,,,,,,,,,i,0,0.9241,,,,,,冷静,e,,,0,49,49,26,1,,,,,,,,,,,,,,,,,,,,,,,,,,,,,,,,,,
,,,,,,,,,,,,,1,001,2024-08-24_10h36.07.815,IAT(Formal),2021.2.3,Win32,59.88023952,,,,,,,,,,,,,,,,i,1,0.7559,,,,,,他的,i,,,0,50,50,57,1,,,,,,,,,,,,,,,,,,,,,,,,,,,,,,,,,,
,,,,,,,,,,,,,1,001,2024-08-24_10h36.07.815,IAT(Formal),2021.2.3,Win32,59.88023952,,,,,,,,,,,,,,,,e,1,0.598,,,,,,我们,e,,,0,51,51,52,1,,,,,,,,,,,,,,,,,,,,,,,,,,,,,,,,,,
,,,,,,,,,,,,,1,001,2024-08-24_10h36.07.815,IAT(Formal),2021.2.3,Win32,59.88023952,,,,,,,,,,,,,,,,i,1,0.8518,,,,,,他,i,,,0,52,52,75,1,,,,,,,,,,,,,,,,,,,,,,,,,,,,,,,,,,
,,,,,,,,,,,,,1,001,2024-08-24_10h36.07.815,IAT(Formal),2021.2.3,Win32,59.88023952,,,,,,,,,,,,,,,,e,1,0.7224,,,,,,我,e,,,0,53,53,50,1,,,,,,,,,,,,,,,,,,,,,,,,,,,,,,,,,,
,,,,,,,,,,,,,1,001,2024-08-24_10h36.07.815,IAT(Formal),2021.2.3,Win32,59.88023952,,,,,,,,,,,,,,,,e,1,0.7498,,,,,,自己,e,,,0,54,54,3,1,,,,,,,,,,,,,,,,,,,,,,,,,,,,,,,,,,
,,,,,,,,,,,,,1,001,2024-08-24_10h36.07.815,IAT(Formal),2021.2.3,Win32,59.88023952,,,,,,,,,,,,,,,,i,1,0.9595,,,,,,刻薄,i,,,0,55,55,33,1,,,,,,,,,,,,,,,,,,,,,,,,,,,,,,,,,,
,,,,,,,,,,,,,1,001,2024-08-24_10h36.07.815,IAT(Formal),2021.2.3,Win32,59.88023952,,,,,,,,,,,,,,,,,0,,,,,,,勤奋,e,,,0,56,56,18,1,,,,,,,,,,,,,,,,,,,,,,,,,,,,,,,,,,
,,,,,,,,,,,,,1,001,2024-08-24_10h36.07.815,IAT(Formal),2021.2.3,Win32,59.88023952,,,,,,,,,,,,,,,,e,1,0.7041,,,,,,俺,e,,,0,57,57,4,1,,,,,,,,,,,,,,,,,,,,,,,,,,,,,,,,,,
,,,,,,,,,,,,,1,001,2024-08-24_10h36.07.815,IAT(Formal),2021.2.3,Win32,59.88023952,,,,,,,,,,,,,,,,i,1,0.6419,,,,,,虚伪,i,,,0,58,58,31,1,,,,,,,,,,,,,,,,,,,,,,,,,,,,,,,,,,
,,,,,,,,,,,,,1,001,2024-08-24_10h36.07.815,IAT(Formal),2021.2.3,Win32,59.88023952,,,,,,,,,,,,,,,,e,1,0.6107,,,,,,公正,e,,,0,59,59,23,1,,,,,,,,,,,,,,,,,,,,,,,,,,,,,,,,,,
,,,,,,,,,,,,,1,001,2024-08-24_10h36.07.815,IAT(Formal),2021.2.3,Win32,59.88023952,,,,,,,,,,,,,,,,i,1,0.8907,,,,,,猖狂,i,,,0,60,60,45,1,,,,,,,,,,,,,,,,,,,,,,,,,,,,,,,,,,
,,,,,,,,,,,,,1,001,2024-08-24_10h36.07.815,IAT(Formal),2021.2.3,Win32,59.88023952,,,,,,,,,,,,,,,,e,1,0.7882,,,,,,活泼,e,,,0,61,61,28,1,,,,,,,,,,,,,,,,,,,,,,,,,,,,,,,,,,
,,,,,,,,,,,,,1,001,2024-08-24_10h36.07.815,IAT(Formal),2021.2.3,Win32,59.88023952,,,,,,,,,,,,,,,,e,1,0.588,,,,,,聪明,e,,,0,62,62,12,1,,,,,,,,,,,,,,,,,,,,,,,,,,,,,,,,,,
,,,,,,,,,,,,,1,001,2024-08-24_10h36.07.815,IAT(Formal),2021.2.3,Win32,59.88023952,,,,,,,,,,,,,,,,i,1,0.8958,,,,,,其他,i,,,0,63,63,69,1,,,,,,,,,,,,,,,,,,,,,,,,,,,,,,,,,,
,,,,,,,,,,,,,1,001,2024-08-24_10h36.07.815,IAT(Formal),2021.2.3,Win32,59.88023952,,,,,,,,,,,,,,,,e,1,0.6075,,,,,,我,e,,,0,64,64,0,1,,,,,,,,,,,,,,,,,,,,,,,,,,,,,,,,,,
,,,,,,,,,,,,,1,001,2024-08-24_10h36.07.815,IAT(Formal),2021.2.3,Win32,59.88023952,,,,,,,,,,,,,,,,e,1,0.5076,,,,,,我,e,,,0,65,65,60,1,,,,,,,,,,,,,,,,,,,,,,,,,,,,,,,,,,
,,,,,,,,,,,,,1,001,2024-08-24_10h36.07.815,IAT(Formal),2021.2.3,Win32,59.88023952,,,,,,,,,,,,,,,,i,1,0.7282,,,,,,傲慢,i,,,0,66,66,37,1,,,,,,,,,,,,,,,,,,,,,,,,,,,,,,,,,,
,,,,,,,,,,,,,1,001,2024-08-24_10h36.07.815,IAT(Formal),2021.2.3,Win32,59.88023952,,,,,,,,,,,,,,,,,0,,,,,,,他人,i,,,0,67,67,78,1,,,,,,,,,,,,,,,,,,,,,,,,,,,,,,,,,,
,,,,,,,,,,,,,1,001,2024-08-24_10h36.07.815,IAT(Formal),2021.2.3,Win32,59.88023952,,,,,,,,,,,,,,,,,0,,,,,,,暴躁,i,,,0,68,68,44,1,,,,,,,,,,,,,,,,,,,,,,,,,,,,,,,,,,
,,,,,,,,,,,,,1,001,2024-08-24_10h36.07.815,IAT(Formal),2021.2.3,Win32,59.88023952,,,,,,,,,,,,,,,,i,1,0.8588,,,,,,他,i,,,0,69,69,65,1,,,,,,,,,,,,,,,,,,,,,,,,,,,,,,,,,,
,,,,,,,,,,,,,1,001,2024-08-24_10h36.07.815,IAT(Formal),2021.2.3,Win32,59.88023952,,,,,,,,,,,,,,,,i,1,0.7272,,,,,,散漫,i,,,0,70,70,41,1,,,,,,,,,,,,,,,,,,,,,,,,,,,,,,,,,,
,,,,,,,,,,,,,1,001,2024-08-24_10h36.07.815,IAT(Formal),2021.2.3,Win32,59.88023952,,,,,,,,,,,,,,,,e,1,0.6068,,,,,,我们,e,,,0,71,71,2,1,,,,,,,,,,,,,,,,,,,,,,,,,,,,,,,,,,
,,,,,,,,,,,,,1,001,2024-08-24_10h36.07.815,IAT(Formal),2021.2.3,Win32,59.88023952,,,,,,,,,,,,,,,,i,1,0.6851,,,,,,冒失,i,,,0,72,72,39,1,,,,,,,,,,,,,,,,,,,,,,,,,,,,,,,,,,
,,,,,,,,,,,,,1,001,2024-08-24_10h36.07.815,IAT(Formal),2021.2.3,Win32,59.88023952,,,,,,,,,,,,,,,,i,1,0.8018,,,,,,其他,i,,,0,73,73,9,1,,,,,,,,,,,,,,,,,,,,,,,,,,,,,,,,,,
,,,,,,,,,,,,,1,001,2024-08-24_10h36.07.815,IAT(Formal),2021.2.3,Win32,59.88023952,,,,,,,,,,,,,,,,e,1,0.644,,,,,,勇敢,e,,,0,74,74,17,1,,,,,,,,,,,,,,,,,,,,,,,,,,,,,,,,,,
,,,,,,,,,,,,,1,001,2024-08-24_10h36.07.815,IAT(Formal),2021.2.3,Win32,59.88023952,,,,,,,,,,,,,,,,,0,,,,,,,我,e,,,0,75,75,70,1,,,,,,,,,,,,,,,,,,,,,,,,,,,,,,,,,,
,,,,,,,,,,,,,1,001,2024-08-24_10h36.07.815,IAT(Formal),2021.2.3,Win32,59.88023952,,,,,,,,,,,,,,,,i,1,0.6054,,,,,,下贱,i,,,0,76,76,49,1,,,,,,,,,,,,,,,,,,,,,,,,,,,,,,,,,,
,,,,,,,,,,,,,1,001,2024-08-24_10h36.07.815,IAT(Formal),2021.2.3,Win32,59.88023952,,,,,,,,,,,,,,,,i,1,0.4911,,,,,,自卑,i,,,0,77,77,36,1,,,,,,,,,,,,,,,,,,,,,,,,,,,,,,,,,,
,,,,,,,,,,,,,1,001,2024-08-24_10h36.07.815,IAT(Formal),2021.2.3,Win32,59.88023952,,,,,,,,,,,,,,,,e,1,0.5839,,,,,,正直,e,,,0,78,78,16,1,,,,,,,,,,,,,,,,,,,,,,,,,,,,,,,,,,
,,,,,,,,,,,,,1,001,2024-08-24_10h36.07.815,IAT(Formal),2021.2.3,Win32,59.88023952,,,,,,,,,,,,,,,,e,1,0.431,,,,,,俺,e,,,0,79,79,64,1,,,,,,,,,,,,,,,,,,,,,,,,,,,,,,,,,,
,,,,,,,,,,,,,1,001,2024-08-24_10h36.07.815,IAT(Formal),2021.2.3,Win32,59.88023952,,,,,,,,,,,,,,,,i,1,0.6891,,,,,,悲观,i,,,1,0,80,34,1,,,,,,,,,,,,,,,,,,,,,,,,,,,,,,,,,,
,,,,,,,,,,,,,1,001,2024-08-24_10h36.07.815,IAT(Formal),2021.2.3,Win32,59.88023952,,,,,,,,,,,,,,,,e,1,0.6544,,,,,,聪明,e,,,1,1,81,12,1,,,,,,,,,,,,,,,,,,,,,,,,,,,,,,,,,,
,,,,,,,,,,,,,1,001,2024-08-24_10h36.07.815,IAT(Formal),2021.2.3,Win32,59.88023952,,,,,,,,,,,,,,,,e,1,0.7017,,,,,,杰出,e,,,1,2,82,13,1,,,,,,,,,,,,,,,,,,,,,,,,,,,,,,,,,,
,,,,,,,,,,,,,1,001,2024-08-24_10h36.07.815,IAT(Formal),2021.2.3,Win32,59.88023952,,,,,,,,,,,,,,,,e,1,0.6851,,,,,,活泼,e,,,1,3,83,28,1,,,,,,,,,,,,,,,,,,,,,,,,,,,,,,,,,,
,,,,,,,,,,,,,1,001,2024-08-24_10h36.07.815,IAT(Formal),2021.2.3,Win32,59.88023952,,,,,,,,,,,,,,,,e,1,0.619,,,,,,我们,e,,,1,4,84,52,1,,,,,,,,,,,,,,,,,,,,,,,,,,,,,,,,,,
,,,,,,,,,,,,,1,001,2024-08-24_10h36.07.815,IAT(Formal),2021.2.3,Win32,59.88023952,,,,,,,,,,,,,,,,i,1,0.7508,,,,,,鲁莽,i,,,1,5,85,38,1,,,,,,,,,,,,,,,,,,,,,,,,,,,,,,,,,,
,,,,,,,,,,,,,1,001,2024-08-24_10h36.07.815,IAT(Formal),2021.2.3,Win32,59.88023952,,,,,,,,,,,,,,,,e,1,0.7262,,,,,,诚恳,e,,,1,6,86,29,1,,,,,,,,,,,,,,,,,,,,,,,,,,,,,,,,,,
,,,,,,,,,,,,,1,001,2024-08-24_10h36.07.815,IAT(Formal),2021.2.3,Win32,59.88023952,,,,,,,,,,,,,,,,i,1,0.7916,,,,,,他人,i,,,1,7,87,78,1,,,,,,,,,,,,,,,,,,,,,,,,,,,,,,,,,,
,,,,,,,,,,,,,1,001,2024-08-24_10h36.07.815,IAT(Formal),2021.2.3,Win32,59.88023952,,,,,,,,,,,,,,,,i,1,0.793,,,,,,散漫,i,,,1,8,88,41,1,,,,,,,,,,,,,,,,,,,,,,,,,,,,,,,,,,
,,,,,,,,,,,,,1,001,2024-08-24_10h36.07.815,IAT(Formal),2021.2.3,Win32,59.88023952,,,,,,,,,,,,,,,,i,1,0.5839,,,,,,他人,i,,,1,9,89,58,1,,,,,,,,,,,,,,,,,,,,,,,,,,,,,,,,,,
,,,,,,,,,,,,,1,001,2024-08-24_10h36.07.815,IAT(Formal),2021.2.3,Win32,59.88023952,,,,,,,,,,,,,,,,i,1,0.9568,,,,,,他,i,,,1,10,90,65,1,,,,,,,,,,,,,,,,,,,,,,,,,,,,,,,,,,
,,,,,,,,,,,,,1,001,2024-08-24_10h36.07.815,IAT(Formal),2021.2.3,Win32,59.88023952,,,,,,,,,,,,,,,,i,1,0.7479,,,,,,他人,i,,,1,11,91,68,1,,,,,,,,,,,,,,,,,,,,,,,,,,,,,,,,,,
,,,,,,,,,,,,,1,001,2024-08-24_10h36.07.815,IAT(Formal),2021.2.3,Win32,59.88023952,,,,,,,,,,,,,,,,i,1,1.0099,,,,,,下贱,i,,,1,12,92,49,1,,,,,,,,,,,,,,,,,,,,,,,,,,,,,,,,,,
,,,,,,,,,,,,,1,001,2024-08-24_10h36.07.815,IAT(Formal),2021.2.3,Win32,59.88023952,,,,,,,,,,,,,,,,e,1,0.8347,,,,,,勇敢,e,,,1,13,93,17,1,,,,,,,,,,,,,,,,,,,,,,,,,,,,,,,,,,
,,,,,,,,,,,,,1,001,2024-08-24_10h36.07.815,IAT(Formal),2021.2.3,Win32,59.88023952,,,,,,,,,,,,,,,,i,1,1.3816,,,,,,他的,i,,,1,14,94,7,1,,,,,,,,,,,,,,,,,,,,,,,,,,,,,,,,,,
,,,,,,,,,,,,,1,001,2024-08-24_10h36.07.815,IAT(Formal),2021.2.3,Win32,59.88023952,,,,,,,,,,,,,,,,i,1,0.7645,,,,,,冒失,i,,,1,15,95,39,1,,,,,,,,,,,,,,,,,,,,,,,,,,,,,,,,,,
,,,,,,,,,,,,,1,001,2024-08-24_10h36.07.815,IAT(Formal),2021.2.3,Win32,59.88023952,,,,,,,,,,,,,,,,e,0,0.8347,,,,,,自卑,i,,,1,16,96,36,1,,,,,,,,,,,,,,,,,,,,,,,,,,,,,,,,,,
,,,,,,,,,,,,,1,001,2024-08-24_10h36.07.815,IAT(Formal),2021.2.3,Win32,59.88023952,,,,,,,,,,,,,,,,e,1,0.6976,,,,,,我们,e,,,1,17,97,62,1,,,,,,,,,,,,,,,,,,,,,,,,,,,,,,,,,,
,,,,,,,,,,,,,1,001,2024-08-24_10h36.07.815,IAT(Formal),2021.2.3,Win32,59.88023952,,,,,,,,,,,,,,,,e,1,1.0514,,,,,,自己,e,,,1,18,98,73,1,,,,,,,,,,,,,,,,,,,,,,,,,,,,,,,,,,
,,,,,,,,,,,,,1,001,2024-08-24_10h36.07.815,IAT(Formal),2021.2.3,Win32,59.88023952,,,,,,,,,,,,,,,,e,1,0.6777,,,,,,朴实,e,,,1,19,99,24,1,,,,,,,,,,,,,,,,,,,,,,,,,,,,,,,,,,
,,,,,,,,,,,,,1,001,2024-08-24_10h36.07.815,IAT(Formal),2021.2.3,Win32,59.88023952,,,,,,,,,,,,,,,,i,1,0.8457,,,,,,他的,i,,,1,20,100,57,1,,,,,,,,,,,,,,,,,,,,,,,,,,,,,,,,,,
,,,,,,,,,,,,,1,001,2024-08-24_10h36.07.815,IAT(Formal),2021.2.3,Win32,59.88023952,,,,,,,,,,,,,,,,e,1,0.6692,,,,,,我,e,,,1,21,101,60,1,,,,,,,,,,,,,,,,,,,,,,,,,,,,,,,,,,
,,,,,,,,,,,,,1,001,2024-08-24_10h36.07.815,IAT(Formal),2021.2.3,Win32,59.88023952,,,,,,,,,,,,,,,,e,1,0.9184,,,,,,冷静,e,,,1,22,102,26,1,,,,,,,,,,,,,,,,,,,,,,,,,,,,,,,,,,
,,,,,,,,,,,,,1,001,2024-08-24_10h36.07.815,IAT(Formal),2021.2.3,Win32,59.88023952,,,,,,,,,,,,,,,,e,1,0.6477,,,,,,无私,e,,,1,23,103,22,1,,,,,,,,,,,,,,,,,,,,,,,,,,,,,,,,,,
,,,,,,,,,,,,,1,001,2024-08-24_10h36.07.815,IAT(Formal),2021.2.3,Win32,59.88023952,,,,,,,,,,,,,,,,i,1,0.7562,,,,,,猖狂,i,,,1,24,104,45,1,,,,,,,,,,,,,,,,,,,,,,,,,,,,,,,,,,
,,,,,,,,,,,,,1,001,2024-08-24_10h36.07.815,IAT(Formal),2021.2.3,Win32,59.88023952,,,,,,,,,,,,,,,,e,1,0.7768,,,,,,我的,e,,,1,25,105,71,1,,,,,,,,,,,,,,,,,,,,,,,,,,,,,,,,,,
,,,,,,,,,,,,,1,001,2024-08-24_10h36.07.815,IAT(Formal),2021.2.3,Win32,59.88023952,,,,,,,,,,,,,,,,e,1,0.7665,,,,,,我,e,,,1,26,106,50,1,,,,,,,,,,,,,,,,,,,,,,,,,,,,,,,,,,
,,,,,,,,,,,,,1,001,2024-08-24_10h36.07.815,IAT(Formal),2021.2.3,Win32,59.88023952,,,,,,,,,,,,,,,,i,1,0.7377,,,,,,虚伪,i,,,1,27,107,31,1,,,,,,,,,,,,,,,,,,,,,,,,,,,,,,,,,,
,,,,,,,,,,,,,1,001,2024-08-24_10h36.07.815,IAT(Formal),2021.2.3,Win32,59.88023952,,,,,,,,,,,,,,,,e,1,0.696,,,,,,俺,e,,,1,28,108,54,1,,,,,,,,,,,,,,,,,,,,,,,,,,,,,,,,,,
,,,,,,,,,,,,,1,001,2024-08-24_10h36.07.815,IAT(Formal),2021.2.3,Win32,59.88023952,,,,,,,,,,,,,,,,i,1,0.9017,,,,,,消极,i,,,1,29,109,35,1,,,,,,,,,,,,,,,,,,,,,,,,,,,,,,,,,,
,,,,,,,,,,,,,1,001,2024-08-24_10h36.07.815,IAT(Formal),2021.2.3,Win32,59.88023952,,,,,,,,,,,,,,,,e,1,0.947,,,,,,诚实,e,,,1,30,110,15,1,,,,,,,,,,,,,,,,,,,,,,,,,,,,,,,,,,
,,,,,,,,,,,,,1,001,2024-08-24_10h36.07.815,IAT(Formal),2021.2.3,Win32,59.88023952,,,,,,,,,,,,,,,,e,0,0.8459,,,,,,傲慢,i,,,1,31,111,37,1,,,,,,,,,,,,,,,,,,,,,,,,,,,,,,,,,,
,,,,,,,,,,,,,1,001,2024-08-24_10h36.07.815,IAT(Formal),2021.2.3,Win32,59.88023952,,,,,,,,,,,,,,,,e,1,0.7894,,,,,,我的,e,,,1,32,112,51,1,,,,,,,,,,,,,,,,,,,,,,,,,,,,,,,,,,
,,,,,,,,,,,,,1,001,2024-08-24_10h36.07.815,IAT(Formal),2021.2.3,Win32,59.88023952,,,,,,,,,,,,,,,,e,1,0.8303,,,,,,自己,e,,,1,33,113,63,1,,,,,,,,,,,,,,,,,,,,,,,,,,,,,,,,,,
,,,,,,,,,,,,,1,001,2024-08-24_10h36.07.815,IAT(Formal),2021.2.3,Win32,59.88023952,,,,,,,,,,,,,,,,i,1,1.4022,,,,,,野蛮,i,,,1,34,114,46,1,,,,,,,,,,,,,,,,,,,,,,,,,,,,,,,,,,
,,,,,,,,,,,,,1,001,2024-08-24_10h36.07.815,IAT(Formal),2021.2.3,Win32,59.88023952,,,,,,,,,,,,,,,,e,1,0.634,,,,,,稳重,e,,,1,35,115,21,1,,,,,,,,,,,,,,,,,,,,,,,,,,,,,,,,,,
,,,,,,,,,,,,,1,001,2024-08-24_10h36.07.815,IAT(Formal),2021.2.3,Win32,59.88023952,,,,,,,,,,,,,,,,e,1,0.6009,,,,,,我,e,,,1,36,116,70,1,,,,,,,,,,,,,,,,,,,,,,,,,,,,,,,,,,
,,,,,,,,,,,,,1,001,2024-08-24_10h36.07.815,IAT(Formal),2021.2.3,Win32,59.88023952,,,,,,,,,,,,,,,,i,1,0.8432,,,,,,暴躁,i,,,1,37,117,44,1,,,,,,,,,,,,,,,,,,,,,,,,,,,,,,,,,,
,,,,,,,,,,,,,1,001,2024-08-24_10h36.07.815,IAT(Formal),2021.2.3,Win32,59.88023952,,,,,,,,,,,,,,,,i,1,0.7736,,,,,,其他,i,,,1,38,118,79,1,,,,,,,,,,,,,,,,,,,,,,,,,,,,,,,,,,
,,,,,,,,,,,,,1,001,2024-08-24_10h36.07.815,IAT(Formal),2021.2.3,Win32,59.88023952,,,,,,,,,,,,,,,,e,1,0.714,,,,,,机智,e,,,1,39,119,19,1,,,,,,,,,,,,,,,,,,,,,,,,,,,,,,,,,,
,,,,,,,,,,,,,1,001,2024-08-24_10h36.07.815,IAT(Formal),2021.2.3,Win32,59.88023952,,,,,,,,,,,,,,,,i,1,0.5982,,,,,,其他,i,,,1,40,120,9,1,,,,,,,,,,,,,,,,,,,,,,,,,,,,,,,,,,
,,,,,,,,,,,,,1,001,2024-08-24_10h36.07.815,IAT(Formal),2021.2.3,Win32,59.88023952,,,,,,,,,,,,,,,,e,1,0.552,,,,,,勤奋,e,,,1,41,121,18,1,,,,,,,,,,,,,,,,,,,,,,,,,,,,,,,,,,
,,,,,,,,,,,,,1,001,2024-08-24_10h36.07.815,IAT(Formal),2021.2.3,Win32,59.88023952,,,,,,,,,,,,,,,,i,1,0.6338,,,,,,他,i,,,1,42,122,75,1,,,,,,,,,,,,,,,,,,,,,,,,,,,,,,,,,,
,,,,,,,,,,,,,1,001,2024-08-24_10h36.07.815,IAT(Formal),2021.2.3,Win32,59.88023952,,,,,,,,,,,,,,,,e,1,1.3619,,,,,,俺,e,,,1,43,123,4,1,,,,,,,,,,,,,,,,,,,,,,,,,,,,,,,,,,
,,,,,,,,,,,,,1,001,2024-08-24_10h36.07.815,IAT(Formal),2021.2.3,Win32,59.88023952,,,,,,,,,,,,,,,,e,1,0.7412,,,,,,崇高,e,,,1,44,124,11,1,,,,,,,,,,,,,,,,,,,,,,,,,,,,,,,,,,
,,,,,,,,,,,,,1,001,2024-08-24_10h36.07.815,IAT(Formal),2021.2.3,Win32,59.88023952,,,,,,,,,,,,,,,,e,1,0.5359,,,,,,我们,e,,,1,45,125,72,1,,,,,,,,,,,,,,,,,,,,,,,,,,,,,,,,,,
,,,,,,,,,,,,,1,001,2024-08-24_10h36.07.815,IAT(Formal),2021.2.3,Win32,59.88023952,,,,,,,,,,,,,,,,e,0,0.639,,,,,,轻率,i,,,1,46,126,48,1,,,,,,,,,,,,,,,,,,,,,,,,,,,,,,,,,,
,,,,,,,,,,,,,1,001,2024-08-24_10h36.07.815,IAT(Formal),2021.2.3,Win32,59.88023952,,,,,,,,,,,,,,,,i,1,0.6001,,,,,,刻薄,i,,,1,47,127,33,1,,,,,,,,,,,,,,,,,,,,,,,,,,,,,,,,,,
,,,,,,,,,,,,,1,001,2024-08-24_10h36.07.815,IAT(Formal),2021.2.3,Win32,59.88023952,,,,,,,,,,,,,,,,i,1,0.607,,,,,,他们,i,,,1,48,128,56,1,,,,,,,,,,,,,,,,,,,,,,,,,,,,,,,,,,
,,,,,,,,,,,,,1,001,2024-08-24_10h36.07.815,IAT(Formal),2021.2.3,Win32,59.88023952,,,,,,,,,,,,,,,,e,1,0.6759,,,,,,正直,e,,,1,49,129,16,1,,,,,,,,,,,,,,,,,,,,,,,,,,,,,,,,,,
,,,,,,,,,,,,,1,001,2024-08-24_10h36.07.815,IAT(Formal),2021.2.3,Win32,59.88023952,,,,,,,,,,,,,,,,e,1,0.6205,,,,,,我,e,,,1,50,130,0,1,,,,,,,,,,,,,,,,,,,,,,,,,,,,,,,,,,
,,,,,,,,,,,,,1,001,2024-08-24_10h36.07.815,IAT(Formal),2021.2.3,Win32,59.88023952,,,,,,,,,,,,,,,,i,1,0.8948,,,,,,自私,i,,,1,51,131,43,1,,,,,,,,,,,,,,,,,,,,,,,,,,,,,,,,,,
,,,,,,,,,,,,,1,001,2024-08-24_10h36.07.815,IAT(Formal),2021.2.3,Win32,59.88023952,,,,,,,,,,,,,,,,e,1,0.9696,,,,,,自己,e,,,1,52,132,3,1,,,,,,,,,,,,,,,,,,,,,,,,,,,,,,,,,,
,,,,,,,,,,,,,1,001,2024-08-24_10h36.07.815,IAT(Formal),2021.2.3,Win32,59.88023952,,,,,,,,,,,,,,,,i,1,0.724,,,,,,他,i,,,1,53,133,5,1,,,,,,,,,,,,,,,,,,,,,,,,,,,,,,,,,,
,,,,,,,,,,,,,1,001,2024-08-24_10h36.07.815,IAT(Formal),2021.2.3,Win32,59.88023952,,,,,,,,,,,,,,,,i,1,0.6325,,,,,,他,i,,,1,54,134,55,1,,,,,,,,,,,,,,,,,,,,,,,,,,,,,,,,,,
,,,,,,,,,,,,,1,001,2024-08-24_10h36.07.815,IAT(Formal),2021.2.3,Win32,59.88023952,,,,,,,,,,,,,,,,i,1,0.6971,,,,,,其他,i,,,1,55,135,59,1,,,,,,,,,,,,,,,,,,,,,,,,,,,,,,,,,,
,,,,,,,,,,,,,1,001,2024-08-24_10h36.07.815,IAT(Formal),2021.2.3,Win32,59.88023952,,,,,,,,,,,,,,,,i,1,0.5651,,,,,,愚蠢,i,,,1,56,136,32,1,,,,,,,,,,,,,,,,,,,,,,,,,,,,,,,,,,
,,,,,,,,,,,,,1,001,2024-08-24_10h36.07.815,IAT(Formal),2021.2.3,Win32,59.88023952,,,,,,,,,,,,,,,,e,1,0.797,,,,,,我的,e,,,1,57,137,1,1,,,,,,,,,,,,,,,,,,,,,,,,,,,,,,,,,,
,,,,,,,,,,,,,1,001,2024-08-24_10h36.07.815,IAT(Formal),2021.2.3,Win32,59.88023952,,,,,,,,,,,,,,,,e,1,0.8515,,,,,,细腻,e,,,1,58,138,25,1,,,,,,,,,,,,,,,,,,,,,,,,,,,,,,,,,,
,,,,,,,,,,,,,1,001,2024-08-24_10h36.07.815,IAT(Formal),2021.2.3,Win32,59.88023952,,,,,,,,,,,,,,,,e,1,0.7082,,,,,,我们,e,,,1,59,139,2,1,,,,,,,,,,,,,,,,,,,,,,,,,,,,,,,,,,
,,,,,,,,,,,,,1,001,2024-08-24_10h36.07.815,IAT(Formal),2021.2.3,Win32,59.88023952,,,,,,,,,,,,,,,,e,1,0.6096,,,,,,我的,e,,,1,60,140,61,1,,,,,,,,,,,,,,,,,,,,,,,,,,,,,,,,,,
,,,,,,,,,,,,,1,001,2024-08-24_10h36.07.815,IAT(Formal),2021.2.3,Win32,59.88023952,,,,,,,,,,,,,,,,i,1,0.6574,,,,,,凶狠,i,,,1,61,141,42,1,,,,,,,,,,,,,,,,,,,,,,,,,,,,,,,,,,
,,,,,,,,,,,,,1,001,2024-08-24_10h36.07.815,IAT(Formal),2021.2.3,Win32,59.88023952,,,,,,,,,,,,,,,,i,1,0.7503,,,,,,执拗,i,,,1,62,142,40,1,,,,,,,,,,,,,,,,,,,,,,,,,,,,,,,,,,
,,,,,,,,,,,,,1,001,2024-08-24_10h36.07.815,IAT(Formal),2021.2.3,Win32,59.88023952,,,,,,,,,,,,,,,,i,1,0.5934,,,,,,其他,i,,,1,63,143,69,1,,,,,,,,,,,,,,,,,,,,,,,,,,,,,,,,,,
,,,,,,,,,,,,,1,001,2024-08-24_10h36.07.815,IAT(Formal),2021.2.3,Win32,59.88023952,,,,,,,,,,,,,,,,,0,,,,,,,他的,i,,,1,64,144,67,1,,,,,,,,,,,,,,,,,,,,,,,,,,,,,,,,,,
,,,,,,,,,,,,,1,001,2024-08-24_10h36.07.815,IAT(Formal),2021.2.3,Win32,59.88023952,,,,,,,,,,,,,,,,i,1,0.9262,,,,,,他的,i,,,1,65,145,77,1,,,,,,,,,,,,,,,,,,,,,,,,,,,,,,,,,,
,,,,,,,,,,,,,1,001,2024-08-24_10h36.07.815,IAT(Formal),2021.2.3,Win32,59.88023952,,,,,,,,,,,,,,,,e,1,0.8205,,,,,,俺,e,,,1,66,146,74,1,,,,,,,,,,,,,,,,,,,,,,,,,,,,,,,,,,
,,,,,,,,,,,,,1,001,2024-08-24_10h36.07.815,IAT(Formal),2021.2.3,Win32,59.88023952,,,,,,,,,,,,,,,,e,1,1.2791,,,,,,公正,e,,,1,67,147,23,1,,,,,,,,,,,,,,,,,,,,,,,,,,,,,,,,,,
,,,,,,,,,,,,,1,001,2024-08-24_10h36.07.815,IAT(Formal),2021.2.3,Win32,59.88023952,,,,,,,,,,,,,,,,e,1,0.5481,,,,,,优秀,e,,,1,68,148,10,1,,,,,,,,,,,,,,,,,,,,,,,,,,,,,,,,,,
,,,,,,,,,,,,,1,001,2024-08-24_10h36.07.815,IAT(Formal),2021.2.3,Win32,59.88023952,,,,,,,,,,,,,,,,e,1,0.5366,,,,,,自己,e,,,1,69,149,53,1,,,,,,,,,,,,,,,,,,,,,,,,,,,,,,,,,,
,,,,,,,,,,,,,1,001,2024-08-24_10h36.07.815,IAT(Formal),2021.2.3,Win32,59.88023952,,,,,,,,,,,,,,,,e,1,0.823,,,,,,乐观,e,,,1,70,150,14,1,,,,,,,,,,,,,,,,,,,,,,,,,,,,,,,,,,
,,,,,,,,,,,,,1,001,2024-08-24_10h36.07.815,IAT(Formal),2021.2.3,Win32,59.88023952,,,,,,,,,,,,,,,,e,1,0.7838,,,,,,认真,e,,,1,71,151,20,1,,,,,,,,,,,,,,,,,,,,,,,,,,,,,,,,,,
,,,,,,,,,,,,,1,001,2024-08-24_10h36.07.815,IAT(Formal),2021.2.3,Win32,59.88023952,,,,,,,,,,,,,,,,e,1,0.5508,,,,,,热情,e,,,1,72,152,27,1,,,,,,,,,,,,,,,,,,,,,,,,,,,,,,,,,,
,,,,,,,,,,,,,1,001,2024-08-24_10h36.07.815,IAT(Formal),2021.2.3,Win32,59.88023952,,,,,,,,,,,,,,,,e,1,0.8613,,,,,,俺,e,,,1,73,153,64,1,,,,,,,,,,,,,,,,,,,,,,,,,,,,,,,,,,
,,,,,,,,,,,,,1,001,2024-08-24_10h36.07.815,IAT(Formal),2021.2.3,Win32,59.88023952,,,,,,,,,,,,,,,,i,1,0.9899,,,,,,他人,i,,,1,74,154,8,1,,,,,,,,,,,,,,,,,,,,,,,,,,,,,,,,,,
,,,,,,,,,,,,,1,001,2024-08-24_10h36.07.815,IAT(Formal),2021.2.3,Win32,59.88023952,,,,,,,,,,,,,,,,i,1,0.4839,,,,,,他们,i,,,1,75,155,6,1,,,,,,,,,,,,,,,,,,,,,,,,,,,,,,,,,,
,,,,,,,,,,,,,1,001,2024-08-24_10h36.07.815,IAT(Formal),2021.2.3,Win32,59.88023952,,,,,,,,,,,,,,,,i,1,0.6438,,,,,,固执,i,,,1,76,156,47,1,,,,,,,,,,,,,,,,,,,,,,,,,,,,,,,,,,
,,,,,,,,,,,,,1,001,2024-08-24_10h36.07.815,IAT(Formal),2021.2.3,Win32,59.88023952,,,,,,,,,,,,,,,,i,1,0.6064,,,,,,卑鄙,i,,,1,77,157,30,1,,,,,,,,,,,,,,,,,,,,,,,,,,,,,,,,,,
,,,,,,,,,,,,,1,001,2024-08-24_10h36.07.815,IAT(Formal),2021.2.3,Win32,59.88023952,,,,,,,,,,,,,,,,i,1,0.5441,,,,,,他们,i,,,1,78,158,66,1,,,,,,,,,,,,,,,,,,,,,,,,,,,,,,,,,,
,,,,,,,,,,,,,1,001,2024-08-24_10h36.07.815,IAT(Formal),2021.2.3,Win32,59.88023952,,,,,,,,,,,,,,,,i,1,0.6444,,,,,,他们,i,,,1,79,159,76,1,,,,,,,,,,,,,,,,,,,,,,,,,,,,,,,,,,
,,,,,,,,,,,我的,i,1,001,2024-08-24_10h36.07.815,IAT(Formal),2021.2.3,Win32,59.88023952,,,,,,,,,,,,,,,,,,,,,,,,,,,,,,,,,space,402.7452,,0,0,0,0,1,1,,,,,,,,,,,,,,,,,,,,,,,,,
,,,,,,,,,,,他们,e,1,001,2024-08-24_10h36.07.815,IAT(Formal),2021.2.3,Win32,59.88023952,,,,,,,,,,,,,,,,,,,,,,,,,,,,,,,,,,,i,0,0,1,1,6,1,0.561,,,,,,,,,,,,,,,,,,,,,,,,
,,,,,,,,,,,我,i,1,001,2024-08-24_10h36.07.815,IAT(Formal),2021.2.3,Win32,59.88023952,,,,,,,,,,,,,,,,,,,,,,,,,,,,,,,,,,,i,1,0,2,2,0,1,0.7688,,,,,,,,,,,,,,,,,,,,,,,,
,,,,,,,,,,,自己,i,1,001,2024-08-24_10h36.07.815,IAT(Formal),2021.2.3,Win32,59.88023952,,,,,,,,,,,,,,,,,,,,,,,,,,,,,,,,,,,i,1,0,3,3,3,1,0.8392,,,,,,,,,,,,,,,,,,,,,,,,
,,,,,,,,,,,他的,e,1,001,2024-08-24_10h36.07.815,IAT(Formal),2021.2.3,Win32,59.88023952,,,,,,,,,,,,,,,,,,,,,,,,,,,,,,,,,,,e,1,0,4,4,7,1,0.7846,,,,,,,,,,,,,,,,,,,,,,,,
,,,,,,,,,,,俺,i,1,001,2024-08-24_10h36.07.815,IAT(Formal),2021.2.3,Win32,59.88023952,,,,,,,,,,,,,,,,,,,,,,,,,,,,,,,,,,,i,1,0,5,5,4,1,1.112,,,,,,,,,,,,,,,,,,,,,,,,
,,,,,,,,,,,他人,e,1,001,2024-08-24_10h36.07.815,IAT(Formal),2021.2.3,Win32,59.88023952,,,,,,,,,,,,,,,,,,,,,,,,,,,,,,,,,,,e,1,0,6,6,8,1,0.9685,,,,,,,,,,,,,,,,,,,,,,,,
,,,,,,,,,,,他,e,1,001,2024-08-24_10h36.07.815,IAT(Formal),2021.2.3,Win32,59.88023952,,,,,,,,,,,,,,,,,,,,,,,,,,,,,,,,,,,e,1,0,7,7,5,1,0.5902,,,,,,,,,,,,,,,,,,,,,,,,
,,,,,,,,,,,其他,e,1,001,2024-08-24_10h36.07.815,IAT(Formal),2021.2.3,Win32,59.88023952,,,,,,,,,,,,,,,,,,,,,,,,,,,,,,,,,,,e,1,0,8,8,9,1,0.4686,,,,,,,,,,,,,,,,,,,,,,,,
,,,,,,,,,,,我们,i,1,001,2024-08-24_10h36.07.815,IAT(Formal),2021.2.3,Win32,59.88023952,,,,,,,,,,,,,,,,,,,,,,,,,,,,,,,,,,,i,1,0,9,9,2,1,0.6074,,,,,,,,,,,,,,,,,,,,,,,,
,,,,,,,,,,,,,1,001,2024-08-24_10h36.07.815,IAT(Formal),2021.2.3,Win32,59.88023952,,,,,,,,,,,,,,,,,,,,,,,,,,,,,,,,,,,,,,,,,,,space,4.313,i,0,1.2402,0,0,0,77,1,他的,e,,,,,,,,,,,,
,,,,,,,,,,,,,1,001,2024-08-24_10h36.07.815,IAT(Formal),2021.2.3,Win32,59.88023952,,,,,,,,,,,,,,,,,,,,,,,,,,,,,,,,,,,,,,,,,,,,,i,1,0.9665,0,1,1,1,1,我的,i,,,,,,,,,,,,
,,,,,,,,,,,,,1,001,2024-08-24_10h36.07.815,IAT(Formal),2021.2.3,Win32,59.88023952,,,,,,,,,,,,,,,,,,,,,,,,,,,,,,,,,,,,,,,,,,,,,i,1,0.5839,0,2,2,63,1,自己,i,,,,,,,,,,,,
,,,,,,,,,,,,,1,001,2024-08-24_10h36.07.815,IAT(Formal),2021.2.3,Win32,59.88023952,,,,,,,,,,,,,,,,,,,,,,,,,,,,,,,,,,,,,,,,,,,,,,0,,0,3,3,79,1,其他,e,,,,,,,,,,,,
,,,,,,,,,,,,,1,001,2024-08-24_10h36.07.815,IAT(Formal),2021.2.3,Win32,59.88023952,,,,,,,,,,,,,,,,,,,,,,,,,,,,,,,,,,,,,,,,,,,,,i,1,0.605,0,4,4,52,1,我们,i,,,,,,,,,,,,
,,,,,,,,,,,,,1,001,2024-08-24_10h36.07.815,IAT(Formal),2021.2.3,Win32,59.88023952,,,,,,,,,,,,,,,,,,,,,,,,,,,,,,,,,,,,,,,,,,,,,e,0,1.1901,0,5,5,38,1,鲁莽,i,,,,,,,,,,,,
,,,,,,,,,,,,,1,001,2024-08-24_10h36.07.815,IAT(Formal),2021.2.3,Win32,59.88023952,,,,,,,,,,,,,,,,,,,,,,,,,,,,,,,,,,,,,,,,,,,,,i,1,0.7727,0,6,6,39,1,冒失,i,,,,,,,,,,,,
,,,,,,,,,,,,,1,001,2024-08-24_10h36.07.815,IAT(Formal),2021.2.3,Win32,59.88023952,,,,,,,,,,,,,,,,,,,,,,,,,,,,,,,,,,,,,,,,,,,,,i,1,1.0351,0,7,7,32,1,愚蠢,i,,,,,,,,,,,,
,,,,,,,,,,,,,1,001,2024-08-24_10h36.07.815,IAT(Formal),2021.2.3,Win32,59.88023952,,,,,,,,,,,,,,,,,,,,,,,,,,,,,,,,,,,,,,,,,,,,,i,0,1.1687,0,8,8,59,1,其他,e,,,,,,,,,,,,
,,,,,,,,,,,,,1,001,2024-08-24_10h36.07.815,IAT(Formal),2021.2.3,Win32,59.88023952,,,,,,,,,,,,,,,,,,,,,,,,,,,,,,,,,,,,,,,,,,,,,i,1,0.6438,0,9,9,42,1,凶狠,i,,,,,,,,,,,,
,,,,,,,,,,,,,1,001,2024-08-24_10h36.07.815,IAT(Formal),2021.2.3,Win32,59.88023952,,,,,,,,,,,,,,,,,,,,,,,,,,,,,,,,,,,,,,,,,,,,,,0,,0,10,10,61,1,我的,i,,,,,,,,,,,,
,,,,,,,,,,,,,1,001,2024-08-24_10h36.07.815,IAT(Formal),2021.2.3,Win32,59.88023952,,,,,,,,,,,,,,,,,,,,,,,,,,,,,,,,,,,,,,,,,,,,,e,1,1.1236,0,11,11,57,1,他的,e,,,,,,,,,,,,
,,,,,,,,,,,,,1,001,2024-08-24_10h36.07.815,IAT(Formal),2021.2.3,Win32,59.88023952,,,,,,,,,,,,,,,,,,,,,,,,,,,,,,,,,,,,,,,,,,,,,e,1,1.1816,0,12,12,29,1,诚恳,e,,,,,,,,,,,,
,,,,,,,,,,,,,1,001,2024-08-24_10h36.07.815,IAT(Formal),2021.2.3,Win32,59.88023952,,,,,,,,,,,,,,,,,,,,,,,,,,,,,,,,,,,,,,,,,,,,,e,1,0.5693,0,13,13,27,1,热情,e,,,,,,,,,,,,
,,,,,,,,,,,,,1,001,2024-08-24_10h36.07.815,IAT(Formal),2021.2.3,Win32,59.88023952,,,,,,,,,,,,,,,,,,,,,,,,,,,,,,,,,,,,,,,,,,,,,i,1,1.1723,0,14,14,60,1,我,i,,,,,,,,,,,,
,,,,,,,,,,,,,1,001,2024-08-24_10h36.07.815,IAT(Formal),2021.2.3,Win32,59.88023952,,,,,,,,,,,,,,,,,,,,,,,,,,,,,,,,,,,,,,,,,,,,,i,1,1.2345,0,15,15,31,1,虚伪,i,,,,,,,,,,,,
,,,,,,,,,,,,,1,001,2024-08-24_10h36.07.815,IAT(Formal),2021.2.3,Win32,59.88023952,,,,,,,,,,,,,,,,,,,,,,,,,,,,,,,,,,,,,,,,,,,,,i,1,0.5103,0,16,16,36,1,自卑,i,,,,,,,,,,,,
,,,,,,,,,,,,,1,001,2024-08-24_10h36.07.815,IAT(Formal),2021.2.3,Win32,59.88023952,,,,,,,,,,,,,,,,,,,,,,,,,,,,,,,,,,,,,,,,,,,,,i,1,0.5171,0,17,17,71,1,我的,i,,,,,,,,,,,,
,,,,,,,,,,,,,1,001,2024-08-24_10h36.07.815,IAT(Formal),2021.2.3,Win32,59.88023952,,,,,,,,,,,,,,,,,,,,,,,,,,,,,,,,,,,,,,,,,,,,,i,1,0.4506,0,18,18,0,1,我,i,,,,,,,,,,,,
,,,,,,,,,,,,,1,001,2024-08-24_10h36.07.815,IAT(Formal),2021.2.3,Win32,59.88023952,,,,,,,,,,,,,,,,,,,,,,,,,,,,,,,,,,,,,,,,,,,,,e,1,0.7753,0,19,19,25,1,细腻,e,,,,,,,,,,,,
,,,,,,,,,,,,,1,001,2024-08-24_10h36.07.815,IAT(Formal),2021.2.3,Win32,59.88023952,,,,,,,,,,,,,,,,,,,,,,,,,,,,,,,,,,,,,,,,,,,,,e,1,0.8724,0,20,20,75,1,他,e,,,,,,,,,,,,
,,,,,,,,,,,,,1,001,2024-08-24_10h36.07.815,IAT(Formal),2021.2.3,Win32,59.88023952,,,,,,,,,,,,,,,,,,,,,,,,,,,,,,,,,,,,,,,,,,,,,e,1,0.6557,0,21,21,13,1,杰出,e,,,,,,,,,,,,
,,,,,,,,,,,,,1,001,2024-08-24_10h36.07.815,IAT(Formal),2021.2.3,Win32,59.88023952,,,,,,,,,,,,,,,,,,,,,,,,,,,,,,,,,,,,,,,,,,,,,e,1,0.9812,0,22,22,19,1,机智,e,,,,,,,,,,,,
,,,,,,,,,,,,,1,001,2024-08-24_10h36.07.815,IAT(Formal),2021.2.3,Win32,59.88023952,,,,,,,,,,,,,,,,,,,,,,,,,,,,,,,,,,,,,,,,,,,,,i,1,0.8708,0,23,23,43,1,自私,i,,,,,,,,,,,,
,,,,,,,,,,,,,1,001,2024-08-24_10h36.07.815,IAT(Formal),2021.2.3,Win32,59.88023952,,,,,,,,,,,,,,,,,,,,,,,,,,,,,,,,,,,,,,,,,,,,,i,0,0.8192,0,24,24,68,1,他人,e,,,,,,,,,,,,
,,,,,,,,,,,,,1,001,2024-08-24_10h36.07.815,IAT(Formal),2021.2.3,Win32,59.88023952,,,,,,,,,,,,,,,,,,,,,,,,,,,,,,,,,,,,,,,,,,,,,e,1,0.6588,0,25,25,5,1,他,e,,,,,,,,,,,,
,,,,,,,,,,,,,1,001,2024-08-24_10h36.07.815,IAT(Formal),2021.2.3,Win32,59.88023952,,,,,,,,,,,,,,,,,,,,,,,,,,,,,,,,,,,,,,,,,,,,,i,1,0.9722,0,26,26,33,1,刻薄,i,,,,,,,,,,,,
,,,,,,,,,,,,,1,001,2024-08-24_10h36.07.815,IAT(Formal),2021.2.3,Win32,59.88023952,,,,,,,,,,,,,,,,,,,,,,,,,,,,,,,,,,,,,,,,,,,,,e,1,0.6704,0,27,27,17,1,勇敢,e,,,,,,,,,,,,
,,,,,,,,,,,,,1,001,2024-08-24_10h36.07.815,IAT(Formal),2021.2.3,Win32,59.88023952,,,,,,,,,,,,,,,,,,,,,,,,,,,,,,,,,,,,,,,,,,,,,i,0,0.6163,0,28,28,8,1,他人,e,,,,,,,,,,,,
,,,,,,,,,,,,,1,001,2024-08-24_10h36.07.815,IAT(Formal),2021.2.3,Win32,59.88023952,,,,,,,,,,,,,,,,,,,,,,,,,,,,,,,,,,,,,,,,,,,,,i,1,1.0928,0,29,29,35,1,消极,i,,,,,,,,,,,,
,,,,,,,,,,,,,1,001,2024-08-24_10h36.07.815,IAT(Formal),2021.2.3,Win32,59.88023952,,,,,,,,,,,,,,,,,,,,,,,,,,,,,,,,,,,,,,,,,,,,,i,0,0.7622,0,30,30,76,1,他们,e,,,,,,,,,,,,
,,,,,,,,,,,,,1,001,2024-08-24_10h36.07.815,IAT(Formal),2021.2.3,Win32,59.88023952,,,,,,,,,,,,,,,,,,,,,,,,,,,,,,,,,,,,,,,,,,,,,i,0,0.4594,0,31,31,24,1,朴实,e,,,,,,,,,,,,
,,,,,,,,,,,,,1,001,2024-08-24_10h36.07.815,IAT(Formal),2021.2.3,Win32,59.88023952,,,,,,,,,,,,,,,,,,,,,,,,,,,,,,,,,,,,,,,,,,,,,e,1,0.9849,0,32,32,66,1,他们,e,,,,,,,,,,,,
,,,,,,,,,,,,,1,001,2024-08-24_10h36.07.815,IAT(Formal),2021.2.3,Win32,59.88023952,,,,,,,,,,,,,,,,,,,,,,,,,,,,,,,,,,,,,,,,,,,,,i,0,0.7676,0,33,33,7,1,他的,e,,,,,,,,,,,,
,,,,,,,,,,,,,1,001,2024-08-24_10h36.07.815,IAT(Formal),2021.2.3,Win32,59.88023952,,,,,,,,,,,,,,,,,,,,,,,,,,,,,,,,,,,,,,,,,,,,,e,1,0.7938,0,34,34,14,1,乐观,e,,,,,,,,,,,,
,,,,,,,,,,,,,1,001,2024-08-24_10h36.07.815,IAT(Formal),2021.2.3,Win32,59.88023952,,,,,,,,,,,,,,,,,,,,,,,,,,,,,,,,,,,,,,,,,,,,,e,0,0.6836,0,35,35,4,1,俺,i,,,,,,,,,,,,
,,,,,,,,,,,,,1,001,2024-08-24_10h36.07.815,IAT(Formal),2021.2.3,Win32,59.88023952,,,,,,,,,,,,,,,,,,,,,,,,,,,,,,,,,,,,,,,,,,,,,e,1,0.9659,0,36,36,28,1,活泼,e,,,,,,,,,,,,
,,,,,,,,,,,,,1,001,2024-08-24_10h36.07.815,IAT(Formal),2021.2.3,Win32,59.88023952,,,,,,,,,,,,,,,,,,,,,,,,,,,,,,,,,,,,,,,,,,,,,i,1,0.7411,0,37,37,70,1,我,i,,,,,,,,,,,,
,,,,,,,,,,,,,1,001,2024-08-24_10h36.07.815,IAT(Formal),2021.2.3,Win32,59.88023952,,,,,,,,,,,,,,,,,,,,,,,,,,,,,,,,,,,,,,,,,,,,,e,1,0.94,0,38,38,26,1,冷静,e,,,,,,,,,,,,
,,,,,,,,,,,,,1,001,2024-08-24_10h36.07.815,IAT(Formal),2021.2.3,Win32,59.88023952,,,,,,,,,,,,,,,,,,,,,,,,,,,,,,,,,,,,,,,,,,,,,i,1,0.5488,0,39,39,3,1,自己,i,,,,,,,,,,,,
,,,,,,,,,,,,,1,001,2024-08-24_10h36.07.815,IAT(Formal),2021.2.3,Win32,59.88023952,,,,,,,,,,,,,,,,,,,,,,,,,,,,,,,,,,,,,,,,,,,,,i,1,0.4543,0,40,40,62,1,我们,i,,,,,,,,,,,,
,,,,,,,,,,,,,1,001,2024-08-24_10h36.07.815,IAT(Formal),2021.2.3,Win32,59.88023952,,,,,,,,,,,,,,,,,,,,,,,,,,,,,,,,,,,,,,,,,,,,,e,1,0.6263,0,41,41,65,1,他,e,,,,,,,,,,,,
,,,,,,,,,,,,,1,001,2024-08-24_10h36.07.815,IAT(Formal),2021.2.3,Win32,59.88023952,,,,,,,,,,,,,,,,,,,,,,,,,,,,,,,,,,,,,,,,,,,,,e,1,0.6785,0,42,42,12,1,聪明,e,,,,,,,,,,,,
,,,,,,,,,,,,,1,001,2024-08-24_10h36.07.815,IAT(Formal),2021.2.3,Win32,59.88023952,,,,,,,,,,,,,,,,,,,,,,,,,,,,,,,,,,,,,,,,,,,,,i,1,0.7372,0,43,43,47,1,固执,i,,,,,,,,,,,,
,,,,,,,,,,,,,1,001,2024-08-24_10h36.07.815,IAT(Formal),2021.2.3,Win32,59.88023952,,,,,,,,,,,,,,,,,,,,,,,,,,,,,,,,,,,,,,,,,,,,,i,1,0.6487,0,44,44,44,1,暴躁,i,,,,,,,,,,,,
,,,,,,,,,,,,,1,001,2024-08-24_10h36.07.815,IAT(Formal),2021.2.3,Win32,59.88023952,,,,,,,,,,,,,,,,,,,,,,,,,,,,,,,,,,,,,,,,,,,,,i,1,0.7382,0,45,45,48,1,轻率,i,,,,,,,,,,,,
,,,,,,,,,,,,,1,001,2024-08-24_10h36.07.815,IAT(Formal),2021.2.3,Win32,59.88023952,,,,,,,,,,,,,,,,,,,,,,,,,,,,,,,,,,,,,,,,,,,,,i,1,0.9476,0,46,46,37,1,傲慢,i,,,,,,,,,,,,
,,,,,,,,,,,,,1,001,2024-08-24_10h36.07.815,IAT(Formal),2021.2.3,Win32,59.88023952,,,,,,,,,,,,,,,,,,,,,,,,,,,,,,,,,,,,,,,,,,,,,i,1,0.5383,0,47,47,41,1,散漫,i,,,,,,,,,,,,
,,,,,,,,,,,,,1,001,2024-08-24_10h36.07.815,IAT(Formal),2021.2.3,Win32,59.88023952,,,,,,,,,,,,,,,,,,,,,,,,,,,,,,,,,,,,,,,,,,,,,i,0,0.5781,0,48,48,20,1,认真,e,,,,,,,,,,,,
,,,,,,,,,,,,,1,001,2024-08-24_10h36.07.815,IAT(Formal),2021.2.3,Win32,59.88023952,,,,,,,,,,,,,,,,,,,,,,,,,,,,,,,,,,,,,,,,,,,,,i,1,0.7419,0,49,49,45,1,猖狂,i,,,,,,,,,,,,
,,,,,,,,,,,,,1,001,2024-08-24_10h36.07.815,IAT(Formal),2021.2.3,Win32,59.88023952,,,,,,,,,,,,,,,,,,,,,,,,,,,,,,,,,,,,,,,,,,,,,i,1,0.7095,0,50,50,64,1,俺,i,,,,,,,,,,,,
,,,,,,,,,,,,,1,001,2024-08-24_10h36.07.815,IAT(Formal),2021.2.3,Win32,59.88023952,,,,,,,,,,,,,,,,,,,,,,,,,,,,,,,,,,,,,,,,,,,,,i,0,0.8346,0,51,51,22,1,无私,e,,,,,,,,,,,,
,,,,,,,,,,,,,1,001,2024-08-24_10h36.07.815,IAT(Formal),2021.2.3,Win32,59.88023952,,,,,,,,,,,,,,,,,,,,,,,,,,,,,,,,,,,,,,,,,,,,,i,0,0.6179,0,52,52,15,1,诚实,e,,,,,,,,,,,,
,,,,,,,,,,,,,1,001,2024-08-24_10h36.07.815,IAT(Formal),2021.2.3,Win32,59.88023952,,,,,,,,,,,,,,,,,,,,,,,,,,,,,,,,,,,,,,,,,,,,,i,0,0.6155,0,53,53,55,1,他,e,,,,,,,,,,,,
,,,,,,,,,,,,,1,001,2024-08-24_10h36.07.815,IAT(Formal),2021.2.3,Win32,59.88023952,,,,,,,,,,,,,,,,,,,,,,,,,,,,,,,,,,,,,,,,,,,,,e,1,0.6289,0,54,54,10,1,优秀,e,,,,,,,,,,,,
,,,,,,,,,,,,,1,001,2024-08-24_10h36.07.815,IAT(Formal),2021.2.3,Win32,59.88023952,,,,,,,,,,,,,,,,,,,,,,,,,,,,,,,,,,,,,,,,,,,,,i,1,0.541,0,55,55,53,1,自己,i,,,,,,,,,,,,
,,,,,,,,,,,,,1,001,2024-08-24_10h36.07.815,IAT(Formal),2021.2.3,Win32,59.88023952,,,,,,,,,,,,,,,,,,,,,,,,,,,,,,,,,,,,,,,,,,,,,e,1,0.8724,0,56,56,69,1,其他,e,,,,,,,,,,,,
,,,,,,,,,,,,,1,001,2024-08-24_10h36.07.815,IAT(Formal),2021.2.3,Win32,59.88023952,,,,,,,,,,,,,,,,,,,,,,,,,,,,,,,,,,,,,,,,,,,,,i,0,1.2605,0,57,57,9,1,其他,e,,,,,,,,,,,,
,,,,,,,,,,,,,1,001,2024-08-24_10h36.07.815,IAT(Formal),2021.2.3,Win32,59.88023952,,,,,,,,,,,,,,,,,,,,,,,,,,,,,,,,,,,,,,,,,,,,,e,1,0.8377,0,58,58,23,1,公正,e,,,,,,,,,,,,
,,,,,,,,,,,,,1,001,2024-08-24_10h36.07.815,IAT(Formal),2021.2.3,Win32,59.88023952,,,,,,,,,,,,,,,,,,,,,,,,,,,,,,,,,,,,,,,,,,,,,,0,,0,59,59,56,1,他们,e,,,,,,,,,,,,
,,,,,,,,,,,,,1,001,2024-08-24_10h36.07.815,IAT(Formal),2021.2.3,Win32,59.88023952,,,,,,,,,,,,,,,,,,,,,,,,,,,,,,,,,,,,,,,,,,,,,i,1,0.6209,0,60,60,2,1,我们,i,,,,,,,,,,,,
,,,,,,,,,,,,,1,001,2024-08-24_10h36.07.815,IAT(Formal),2021.2.3,Win32,59.88023952,,,,,,,,,,,,,,,,,,,,,,,,,,,,,,,,,,,,,,,,,,,,,e,1,0.7379,0,61,61,67,1,他的,e,,,,,,,,,,,,
,,,,,,,,,,,,,1,001,2024-08-24_10h36.07.815,IAT(Formal),2021.2.3,Win32,59.88023952,,,,,,,,,,,,,,,,,,,,,,,,,,,,,,,,,,,,,,,,,,,,,e,1,0.9009,0,62,62,6,1,他们,e,,,,,,,,,,,,
,,,,,,,,,,,,,1,001,2024-08-24_10h36.07.815,IAT(Formal),2021.2.3,Win32,59.88023952,,,,,,,,,,,,,,,,,,,,,,,,,,,,,,,,,,,,,,,,,,,,,i,1,0.7426,0,63,63,50,1,我,i,,,,,,,,,,,,
,,,,,,,,,,,,,1,001,2024-08-24_10h36.07.815,IAT(Formal),2021.2.3,Win32,59.88023952,,,,,,,,,,,,,,,,,,,,,,,,,,,,,,,,,,,,,,,,,,,,,i,1,0.6244,0,64,64,51,1,我的,i,,,,,,,,,,,,
,,,,,,,,,,,,,1,001,2024-08-24_10h36.07.815,IAT(Formal),2021.2.3,Win32,59.88023952,,,,,,,,,,,,,,,,,,,,,,,,,,,,,,,,,,,,,,,,,,,,,i,1,0.5303,0,65,65,74,1,俺,i,,,,,,,,,,,,
,,,,,,,,,,,,,1,001,2024-08-24_10h36.07.815,IAT(Formal),2021.2.3,Win32,59.88023952,,,,,,,,,,,,,,,,,,,,,,,,,,,,,,,,,,,,,,,,,,,,,i,1,0.4676,0,66,66,54,1,俺,i,,,,,,,,,,,,
,,,,,,,,,,,,,1,001,2024-08-24_10h36.07.815,IAT(Formal),2021.2.3,Win32,59.88023952,,,,,,,,,,,,,,,,,,,,,,,,,,,,,,,,,,,,,,,,,,,,,i,0,0.4621,0,67,67,21,1,稳重,e,,,,,,,,,,,,
,,,,,,,,,,,,,1,001,2024-08-24_10h36.07.815,IAT(Formal),2021.2.3,Win32,59.88023952,,,,,,,,,,,,,,,,,,,,,,,,,,,,,,,,,,,,,,,,,,,,,e,1,1.0917,0,68,68,58,1,他人,e,,,,,,,,,,,,
,,,,,,,,,,,,,1,001,2024-08-24_10h36.07.815,IAT(Formal),2021.2.3,Win32,59.88023952,,,,,,,,,,,,,,,,,,,,,,,,,,,,,,,,,,,,,,,,,,,,,i,1,1.2588,0,69,69,34,1,悲观,i,,,,,,,,,,,,
,,,,,,,,,,,,,1,001,2024-08-24_10h36.07.815,IAT(Formal),2021.2.3,Win32,59.88023952,,,,,,,,,,,,,,,,,,,,,,,,,,,,,,,,,,,,,,,,,,,,,i,1,0.6986,0,70,70,30,1,卑鄙,i,,,,,,,,,,,,
,,,,,,,,,,,,,1,001,2024-08-24_10h36.07.815,IAT(Formal),2021.2.3,Win32,59.88023952,,,,,,,,,,,,,,,,,,,,,,,,,,,,,,,,,,,,,,,,,,,,,,0,,0,71,71,18,1,勤奋,e,,,,,,,,,,,,
,,,,,,,,,,,,,1,001,2024-08-24_10h36.07.815,IAT(Formal),2021.2.3,Win32,59.88023952,,,,,,,,,,,,,,,,,,,,,,,,,,,,,,,,,,,,,,,,,,,,,,0,,0,72,72,16,1,正直,e,,,,,,,,,,,,
,,,,,,,,,,,,,1,001,2024-08-24_10h36.07.815,IAT(Formal),2021.2.3,Win32,59.88023952,,,,,,,,,,,,,,,,,,,,,,,,,,,,,,,,,,,,,,,,,,,,,i,1,0.6609,0,73,73,73,1,自己,i,,,,,,,,,,,,
,,,,,,,,,,,,,1,001,2024-08-24_10h36.07.815,IAT(Formal),2021.2.3,Win32,59.88023952,,,,,,,,,,,,,,,,,,,,,,,,,,,,,,,,,,,,,,,,,,,,,i,0,0.6053,0,74,74,11,1,崇高,e,,,,,,,,,,,,
,,,,,,,,,,,,,1,001,2024-08-24_10h36.07.815,IAT(Formal),2021.2.3,Win32,59.88023952,,,,,,,,,,,,,,,,,,,,,,,,,,,,,,,,,,,,,,,,,,,,,i,1,0.6356,0,75,75,40,1,执拗,i,,,,,,,,,,,,
,,,,,,,,,,,,,1,001,2024-08-24_10h36.07.815,IAT(Formal),2021.2.3,Win32,59.88023952,,,,,,,,,,,,,,,,,,,,,,,,,,,,,,,,,,,,,,,,,,,,,i,1,0.815,0,76,76,49,1,下贱,i,,,,,,,,,,,,
,,,,,,,,,,,,,1,001,2024-08-24_10h36.07.815,IAT(Formal),2021.2.3,Win32,59.88023952,,,,,,,,,,,,,,,,,,,,,,,,,,,,,,,,,,,,,,,,,,,,,i,1,0.5874,0,77,77,46,1,野蛮,i,,,,,,,,,,,,
,,,,,,,,,,,,,1,001,2024-08-24_10h36.07.815,IAT(Formal),2021.2.3,Win32,59.88023952,,,,,,,,,,,,,,,,,,,,,,,,,,,,,,,,,,,,,,,,,,,,,e,0,0.9252,0,78,78,72,1,我们,i,,,,,,,,,,,,
,,,,,,,,,,,,,1,001,2024-08-24_10h36.07.815,IAT(Formal),2021.2.3,Win32,59.88023952,,,,,,,,,,,,,,,,,,,,,,,,,,,,,,,,,,,,,,,,,,,,,e,1,0.7479,0,79,79,78,1,他人,e,,,,,,,,,,,,
,,,,,,,,,,,,,1,001,2024-08-24_10h36.07.815,IAT(Formal),2021.2.3,Win32,59.88023952,,,,,,,,,,,,,,,,,,,,,,,,,,,,,,,,,,,,,,,,,,,,,,,,,,,,,我的,i,space,32.8173,i,1,1.1014,0,0,0,61,1,,
,,,,,,,,,,,,,1,001,2024-08-24_10h36.07.815,IAT(Formal),2021.2.3,Win32,59.88023952,,,,,,,,,,,,,,,,,,,,,,,,,,,,,,,,,,,,,,,,,,,,,,,,,,,,,他人,e,,,e,1,0.756,0,1,1,78,1,,
,,,,,,,,,,,,,1,001,2024-08-24_10h36.07.815,IAT(Formal),2021.2.3,Win32,59.88023952,,,,,,,,,,,,,,,,,,,,,,,,,,,,,,,,,,,,,,,,,,,,,,,,,,,,,我们,i,,,i,1,0.7936,0,2,2,72,1,,
,,,,,,,,,,,,,1,001,2024-08-24_10h36.07.815,IAT(Formal),2021.2.3,Win32,59.88023952,,,,,,,,,,,,,,,,,,,,,,,,,,,,,,,,,,,,,,,,,,,,,,,,,,,,,我们,i,,,i,1,0.554,0,3,3,2,1,,
,,,,,,,,,,,,,1,001,2024-08-24_10h36.07.815,IAT(Formal),2021.2.3,Win32,59.88023952,,,,,,,,,,,,,,,,,,,,,,,,,,,,,,,,,,,,,,,,,,,,,,,,,,,,,俺,i,,,i,1,0.5557,0,4,4,74,1,,
,,,,,,,,,,,,,1,001,2024-08-24_10h36.07.815,IAT(Formal),2021.2.3,Win32,59.88023952,,,,,,,,,,,,,,,,,,,,,,,,,,,,,,,,,,,,,,,,,,,,,,,,,,,,,他们,e,,,e,1,0.7842,0,5,5,56,1,,
,,,,,,,,,,,,,1,001,2024-08-24_10h36.07.815,IAT(Formal),2021.2.3,Win32,59.88023952,,,,,,,,,,,,,,,,,,,,,,,,,,,,,,,,,,,,,,,,,,,,,,,,,,,,,下贱,i,,,i,1,0.6844,0,6,6,49,1,,
,,,,,,,,,,,,,1,001,2024-08-24_10h36.07.815,IAT(Formal),2021.2.3,Win32,59.88023952,,,,,,,,,,,,,,,,,,,,,,,,,,,,,,,,,,,,,,,,,,,,,,,,,,,,,俺,i,,,i,1,0.5397,0,7,7,64,1,,
,,,,,,,,,,,,,1,001,2024-08-24_10h36.07.815,IAT(Formal),2021.2.3,Win32,59.88023952,,,,,,,,,,,,,,,,,,,,,,,,,,,,,,,,,,,,,,,,,,,,,,,,,,,,,散漫,i,,,i,1,0.6029,0,8,8,41,1,,
,,,,,,,,,,,,,1,001,2024-08-24_10h36.07.815,IAT(Formal),2021.2.3,Win32,59.88023952,,,,,,,,,,,,,,,,,,,,,,,,,,,,,,,,,,,,,,,,,,,,,,,,,,,,,他们,e,,,e,1,0.5173,0,9,9,66,1,,
,,,,,,,,,,,,,1,001,2024-08-24_10h36.07.815,IAT(Formal),2021.2.3,Win32,59.88023952,,,,,,,,,,,,,,,,,,,,,,,,,,,,,,,,,,,,,,,,,,,,,,,,,,,,,我们,i,,,i,1,0.9037,0,10,10,62,1,,
,,,,,,,,,,,,,1,001,2024-08-24_10h36.07.815,IAT(Formal),2021.2.3,Win32,59.88023952,,,,,,,,,,,,,,,,,,,,,,,,,,,,,,,,,,,,,,,,,,,,,,,,,,,,,诚实,e,,,e,1,0.8927,0,11,11,15,1,,
,,,,,,,,,,,,,1,001,2024-08-24_10h36.07.815,IAT(Formal),2021.2.3,Win32,59.88023952,,,,,,,,,,,,,,,,,,,,,,,,,,,,,,,,,,,,,,,,,,,,,,,,,,,,,他们,e,,,e,1,0.8033,0,12,12,6,1,,
,,,,,,,,,,,,,1,001,2024-08-24_10h36.07.815,IAT(Formal),2021.2.3,Win32,59.88023952,,,,,,,,,,,,,,,,,,,,,,,,,,,,,,,,,,,,,,,,,,,,,,,,,,,,,他的,e,,,e,1,0.5457,0,13,13,67,1,,
,,,,,,,,,,,,,1,001,2024-08-24_10h36.07.815,IAT(Formal),2021.2.3,Win32,59.88023952,,,,,,,,,,,,,,,,,,,,,,,,,,,,,,,,,,,,,,,,,,,,,,,,,,,,,崇高,e,,,e,1,0.7388,0,14,14,11,1,,
,,,,,,,,,,,,,1,001,2024-08-24_10h36.07.815,IAT(Formal),2021.2.3,Win32,59.88023952,,,,,,,,,,,,,,,,,,,,,,,,,,,,,,,,,,,,,,,,,,,,,,,,,,,,,细腻,e,,,e,1,0.5352,0,15,15,25,1,,
,,,,,,,,,,,,,1,001,2024-08-24_10h36.07.815,IAT(Formal),2021.2.3,Win32,59.88023952,,,,,,,,,,,,,,,,,,,,,,,,,,,,,,,,,,,,,,,,,,,,,,,,,,,,,傲慢,i,,,i,1,0.6952,0,16,16,37,1,,
,,,,,,,,,,,,,1,001,2024-08-24_10h36.07.815,IAT(Formal),2021.2.3,Win32,59.88023952,,,,,,,,,,,,,,,,,,,,,,,,,,,,,,,,,,,,,,,,,,,,,,,,,,,,,猖狂,i,,,i,1,0.6999,0,17,17,45,1,,
,,,,,,,,,,,,,1,001,2024-08-24_10h36.07.815,IAT(Formal),2021.2.3,Win32,59.88023952,,,,,,,,,,,,,,,,,,,,,,,,,,,,,,,,,,,,,,,,,,,,,,,,,,,,,鲁莽,i,,,i,1,0.4815,0,18,18,38,1,,
,,,,,,,,,,,,,1,001,2024-08-24_10h36.07.815,IAT(Formal),2021.2.3,Win32,59.88023952,,,,,,,,,,,,,,,,,,,,,,,,,,,,,,,,,,,,,,,,,,,,,,,,,,,,,机智,e,,,e,1,0.7691,0,19,19,19,1,,
,,,,,,,,,,,,,1,001,2024-08-24_10h36.07.815,IAT(Formal),2021.2.3,Win32,59.88023952,,,,,,,,,,,,,,,,,,,,,,,,,,,,,,,,,,,,,,,,,,,,,,,,,,,,,他,e,,,e,1,0.8347,0,20,20,65,1,,
,,,,,,,,,,,,,1,001,2024-08-24_10h36.07.815,IAT(Formal),2021.2.3,Win32,59.88023952,,,,,,,,,,,,,,,,,,,,,,,,,,,,,,,,,,,,,,,,,,,,,,,,,,,,,其他,e,,,e,1,0.8041,0,21,21,79,1,,
,,,,,,,,,,,,,1,001,2024-08-24_10h36.07.815,IAT(Formal),2021.2.3,Win32,59.88023952,,,,,,,,,,,,,,,,,,,,,,,,,,,,,,,,,,,,,,,,,,,,,,,,,,,,,野蛮,i,,,i,1,0.5564,0,22,22,46,1,,
,,,,,,,,,,,,,1,001,2024-08-24_10h36.07.815,IAT(Formal),2021.2.3,Win32,59.88023952,,,,,,,,,,,,,,,,,,,,,,,,,,,,,,,,,,,,,,,,,,,,,,,,,,,,,他的,e,,,e,1,0.5575,0,23,23,57,1,,
,,,,,,,,,,,,,1,001,2024-08-24_10h36.07.815,IAT(Formal),2021.2.3,Win32,59.88023952,,,,,,,,,,,,,,,,,,,,,,,,,,,,,,,,,,,,,,,,,,,,,,,,,,,,,我,i,,,i,1,0.642,0,24,24,0,1,,
,,,,,,,,,,,,,1,001,2024-08-24_10h36.07.815,IAT(Formal),2021.2.3,Win32,59.88023952,,,,,,,,,,,,,,,,,,,,,,,,,,,,,,,,,,,,,,,,,,,,,,,,,,,,,他,e,,,e,1,0.7168,0,25,25,75,1,,
,,,,,,,,,,,,,1,001,2024-08-24_10h36.07.815,IAT(Formal),2021.2.3,Win32,59.88023952,,,,,,,,,,,,,,,,,,,,,,,,,,,,,,,,,,,,,,,,,,,,,,,,,,,,,自己,i,,,i,1,1.1247,0,26,26,73,1,,
,,,,,,,,,,,,,1,001,2024-08-24_10h36.07.815,IAT(Formal),2021.2.3,Win32,59.88023952,,,,,,,,,,,,,,,,,,,,,,,,,,,,,,,,,,,,,,,,,,,,,,,,,,,,,杰出,e,,,e,1,0.5439,0,27,27,13,1,,
,,,,,,,,,,,,,1,001,2024-08-24_10h36.07.815,IAT(Formal),2021.2.3,Win32,59.88023952,,,,,,,,,,,,,,,,,,,,,,,,,,,,,,,,,,,,,,,,,,,,,,,,,,,,,认真,e,,,e,1,0.6928,0,28,28,20,1,,
,,,,,,,,,,,,,1,001,2024-08-24_10h36.07.815,IAT(Formal),2021.2.3,Win32,59.88023952,,,,,,,,,,,,,,,,,,,,,,,,,,,,,,,,,,,,,,,,,,,,,,,,,,,,,冷静,e,,,e,1,0.635,0,29,29,26,1,,
,,,,,,,,,,,,,1,001,2024-08-24_10h36.07.815,IAT(Formal),2021.2.3,Win32,59.88023952,,,,,,,,,,,,,,,,,,,,,,,,,,,,,,,,,,,,,,,,,,,,,,,,,,,,,固执,i,,,e,0,0.4056,0,30,30,47,1,,
,,,,,,,,,,,,,1,001,2024-08-24_10h36.07.815,IAT(Formal),2021.2.3,Win32,59.88023952,,,,,,,,,,,,,,,,,,,,,,,,,,,,,,,,,,,,,,,,,,,,,,,,,,,,,虚伪,i,,,i,1,0.5918,0,31,31,31,1,,
,,,,,,,,,,,,,1,001,2024-08-24_10h36.07.815,IAT(Formal),2021.2.3,Win32,59.88023952,,,,,,,,,,,,,,,,,,,,,,,,,,,,,,,,,,,,,,,,,,,,,,,,,,,,,公正,e,,,e,1,0.5793,0,32,32,23,1,,
,,,,,,,,,,,,,1,001,2024-08-24_10h36.07.815,IAT(Formal),2021.2.3,Win32,59.88023952,,,,,,,,,,,,,,,,,,,,,,,,,,,,,,,,,,,,,,,,,,,,,,,,,,,,,其他,e,,,i,0,1.0427,0,33,33,69,1,,
,,,,,,,,,,,,,1,001,2024-08-24_10h36.07.815,IAT(Formal),2021.2.3,Win32,59.88023952,,,,,,,,,,,,,,,,,,,,,,,,,,,,,,,,,,,,,,,,,,,,,,,,,,,,,自己,i,,,i,1,0.998,0,34,34,3,1,,
,,,,,,,,,,,,,1,001,2024-08-24_10h36.07.815,IAT(Formal),2021.2.3,Win32,59.88023952,,,,,,,,,,,,,,,,,,,,,,,,,,,,,,,,,,,,,,,,,,,,,,,,,,,,,他人,e,,,e,1,0.7058,0,35,35,58,1,,
,,,,,,,,,,,,,1,001,2024-08-24_10h36.07.815,IAT(Formal),2021.2.3,Win32,59.88023952,,,,,,,,,,,,,,,,,,,,,,,,,,,,,,,,,,,,,,,,,,,,,,,,,,,,,俺,i,,,i,1,0.5703,0,36,36,54,1,,
,,,,,,,,,,,,,1,001,2024-08-24_10h36.07.815,IAT(Formal),2021.2.3,Win32,59.88023952,,,,,,,,,,,,,,,,,,,,,,,,,,,,,,,,,,,,,,,,,,,,,,,,,,,,,他们,e,,,e,1,0.6262,0,37,37,76,1,,
,,,,,,,,,,,,,1,001,2024-08-24_10h36.07.815,IAT(Formal),2021.2.3,Win32,59.88023952,,,,,,,,,,,,,,,,,,,,,,,,,,,,,,,,,,,,,,,,,,,,,,,,,,,,,其他,e,,,e,1,0.4081,0,38,38,59,1,,
,,,,,,,,,,,,,1,001,2024-08-24_10h36.07.815,IAT(Formal),2021.2.3,Win32,59.88023952,,,,,,,,,,,,,,,,,,,,,,,,,,,,,,,,,,,,,,,,,,,,,,,,,,,,,暴躁,i,,,i,1,0.868,0,39,39,44,1,,
,,,,,,,,,,,,,1,001,2024-08-24_10h36.07.815,IAT(Formal),2021.2.3,Win32,59.88023952,,,,,,,,,,,,,,,,,,,,,,,,,,,,,,,,,,,,,,,,,,,,,,,,,,,,,无私,e,,,e,1,1.3013,0,40,40,22,1,,
,,,,,,,,,,,,,1,001,2024-08-24_10h36.07.815,IAT(Formal),2021.2.3,Win32,59.88023952,,,,,,,,,,,,,,,,,,,,,,,,,,,,,,,,,,,,,,,,,,,,,,,,,,,,,自己,i,,,e,0,0.8733,0,41,41,63,1,,
,,,,,,,,,,,,,1,001,2024-08-24_10h36.07.815,IAT(Formal),2021.2.3,Win32,59.88023952,,,,,,,,,,,,,,,,,,,,,,,,,,,,,,,,,,,,,,,,,,,,,,,,,,,,,乐观,e,,,e,1,0.6905,0,42,42,14,1,,
,,,,,,,,,,,,,1,001,2024-08-24_10h36.07.815,IAT(Formal),2021.2.3,Win32,59.88023952,,,,,,,,,,,,,,,,,,,,,,,,,,,,,,,,,,,,,,,,,,,,,,,,,,,,,凶狠,i,,,i,1,1.0148,0,43,43,42,1,,
,,,,,,,,,,,,,1,001,2024-08-24_10h36.07.815,IAT(Formal),2021.2.3,Win32,59.88023952,,,,,,,,,,,,,,,,,,,,,,,,,,,,,,,,,,,,,,,,,,,,,,,,,,,,,卑鄙,i,,,i,1,0.6193,0,44,44,30,1,,
,,,,,,,,,,,,,1,001,2024-08-24_10h36.07.815,IAT(Formal),2021.2.3,Win32,59.88023952,,,,,,,,,,,,,,,,,,,,,,,,,,,,,,,,,,,,,,,,,,,,,,,,,,,,,消极,i,,,i,1,1.1549,0,45,45,35,1,,
,,,,,,,,,,,,,1,001,2024-08-24_10h36.07.815,IAT(Formal),2021.2.3,Win32,59.88023952,,,,,,,,,,,,,,,,,,,,,,,,,,,,,,,,,,,,,,,,,,,,,,,,,,,,,正直,e,,,e,1,0.5845,0,46,46,16,1,,
,,,,,,,,,,,,,1,001,2024-08-24_10h36.07.815,IAT(Formal),2021.2.3,Win32,59.88023952,,,,,,,,,,,,,,,,,,,,,,,,,,,,,,,,,,,,,,,,,,,,,,,,,,,,,他,e,,,e,1,0.7335,0,47,47,5,1,,
,,,,,,,,,,,,,1,001,2024-08-24_10h36.07.815,IAT(Formal),2021.2.3,Win32,59.88023952,,,,,,,,,,,,,,,,,,,,,,,,,,,,,,,,,,,,,,,,,,,,,,,,,,,,,他的,e,,,e,1,0.5004,0,48,48,7,1,,
,,,,,,,,,,,,,1,001,2024-08-24_10h36.07.815,IAT(Formal),2021.2.3,Win32,59.88023952,,,,,,,,,,,,,,,,,,,,,,,,,,,,,,,,,,,,,,,,,,,,,,,,,,,,,冒失,i,,,i,1,0.6249,0,49,49,39,1,,
,,,,,,,,,,,,,1,001,2024-08-24_10h36.07.815,IAT(Formal),2021.2.3,Win32,59.88023952,,,,,,,,,,,,,,,,,,,,,,,,,,,,,,,,,,,,,,,,,,,,,,,,,,,,,他的,e,,,e,1,0.534,0,50,50,77,1,,
,,,,,,,,,,,,,1,001,2024-08-24_10h36.07.815,IAT(Formal),2021.2.3,Win32,59.88023952,,,,,,,,,,,,,,,,,,,,,,,,,,,,,,,,,,,,,,,,,,,,,,,,,,,,,轻率,i,,,e,0,0.7301,0,51,51,48,1,,
,,,,,,,,,,,,,1,001,2024-08-24_10h36.07.815,IAT(Formal),2021.2.3,Win32,59.88023952,,,,,,,,,,,,,,,,,,,,,,,,,,,,,,,,,,,,,,,,,,,,,,,,,,,,,悲观,i,,,i,1,0.7217,0,52,52,34,1,,
,,,,,,,,,,,,,1,001,2024-08-24_10h36.07.815,IAT(Formal),2021.2.3,Win32,59.88023952,,,,,,,,,,,,,,,,,,,,,,,,,,,,,,,,,,,,,,,,,,,,,,,,,,,,,他人,e,,,e,1,0.7516,0,53,53,8,1,,
,,,,,,,,,,,,,1,001,2024-08-24_10h36.07.815,IAT(Formal),2021.2.3,Win32,59.88023952,,,,,,,,,,,,,,,,,,,,,,,,,,,,,,,,,,,,,,,,,,,,,,,,,,,,,聪明,e,,,e,1,0.7649,0,54,54,12,1,,
,,,,,,,,,,,,,1,001,2024-08-24_10h36.07.815,IAT(Formal),2021.2.3,Win32,59.88023952,,,,,,,,,,,,,,,,,,,,,,,,,,,,,,,,,,,,,,,,,,,,,,,,,,,,,他,e,,,e,1,0.6721,0,55,55,55,1,,
,,,,,,,,,,,,,1,001,2024-08-24_10h36.07.815,IAT(Formal),2021.2.3,Win32,59.88023952,,,,,,,,,,,,,,,,,,,,,,,,,,,,,,,,,,,,,,,,,,,,,,,,,,,,,俺,i,,,e,0,0.5465,0,56,56,4,1,,
,,,,,,,,,,,,,1,001,2024-08-24_10h36.07.815,IAT(Formal),2021.2.3,Win32,59.88023952,,,,,,,,,,,,,,,,,,,,,,,,,,,,,,,,,,,,,,,,,,,,,,,,,,,,,我,i,,,e,0,0.6017,0,57,57,60,1,,
,,,,,,,,,,,,,1,001,2024-08-24_10h36.07.815,IAT(Formal),2021.2.3,Win32,59.88023952,,,,,,,,,,,,,,,,,,,,,,,,,,,,,,,,,,,,,,,,,,,,,,,,,,,,,我,i,,,i,1,0.6951,0,58,58,70,1,,
,,,,,,,,,,,,,1,001,2024-08-24_10h36.07.815,IAT(Formal),2021.2.3,Win32,59.88023952,,,,,,,,,,,,,,,,,,,,,,,,,,,,,,,,,,,,,,,,,,,,,,,,,,,,,稳重,e,,,e,1,0.7416,0,59,59,21,1,,
,,,,,,,,,,,,,1,001,2024-08-24_10h36.07.815,IAT(Formal),2021.2.3,Win32,59.88023952,,,,,,,,,,,,,,,,,,,,,,,,,,,,,,,,,,,,,,,,,,,,,,,,,,,,,朴实,e,,,e,1,0.6865,0,60,60,24,1,,
,,,,,,,,,,,,,1,001,2024-08-24_10h36.07.815,IAT(Formal),2021.2.3,Win32,59.88023952,,,,,,,,,,,,,,,,,,,,,,,,,,,,,,,,,,,,,,,,,,,,,,,,,,,,,自己,i,,,i,1,0.7245,0,61,61,53,1,,
,,,,,,,,,,,,,1,001,2024-08-24_10h36.07.815,IAT(Formal),2021.2.3,Win32,59.88023952,,,,,,,,,,,,,,,,,,,,,,,,,,,,,,,,,,,,,,,,,,,,,,,,,,,,,我的,i,,,i,1,0.7265,0,62,62,51,1,,
,,,,,,,,,,,,,1,001,2024-08-24_10h36.07.815,IAT(Formal),2021.2.3,Win32,59.88023952,,,,,,,,,,,,,,,,,,,,,,,,,,,,,,,,,,,,,,,,,,,,,,,,,,,,,热情,e,,,e,1,0.5516,0,63,63,27,1,,
,,,,,,,,,,,,,1,001,2024-08-24_10h36.07.815,IAT(Formal),2021.2.3,Win32,59.88023952,,,,,,,,,,,,,,,,,,,,,,,,,,,,,,,,,,,,,,,,,,,,,,,,,,,,,执拗,i,,,i,1,0.7082,0,64,64,40,1,,
,,,,,,,,,,,,,1,001,2024-08-24_10h36.07.815,IAT(Formal),2021.2.3,Win32,59.88023952,,,,,,,,,,,,,,,,,,,,,,,,,,,,,,,,,,,,,,,,,,,,,,,,,,,,,勤奋,e,,,e,1,1.093,0,65,65,18,1,,
,,,,,,,,,,,,,1,001,2024-08-24_10h36.07.815,IAT(Formal),2021.2.3,Win32,59.88023952,,,,,,,,,,,,,,,,,,,,,,,,,,,,,,,,,,,,,,,,,,,,,,,,,,,,,我的,i,,,i,1,0.6786,0,66,66,71,1,,
,,,,,,,,,,,,,1,001,2024-08-24_10h36.07.815,IAT(Formal),2021.2.3,Win32,59.88023952,,,,,,,,,,,,,,,,,,,,,,,,,,,,,,,,,,,,,,,,,,,,,,,,,,,,,勇敢,e,,,e,1,0.8445,0,67,67,17,1,,
,,,,,,,,,,,,,1,001,2024-08-24_10h36.07.815,IAT(Formal),2021.2.3,Win32,59.88023952,,,,,,,,,,,,,,,,,,,,,,,,,,,,,,,,,,,,,,,,,,,,,,,,,,,,,优秀,e,,,e,1,0.6398,0,68,68,10,1,,
,,,,,,,,,,,,,1,001,2024-08-24_10h36.07.815,IAT(Formal),2021.2.3,Win32,59.88023952,,,,,,,,,,,,,,,,,,,,,,,,,,,,,,,,,,,,,,,,,,,,,,,,,,,,,活泼,e,,,e,1,0.5526,0,69,69,28,1,,
,,,,,,,,,,,,,1,001,2024-08-24_10h36.07.815,IAT(Formal),2021.2.3,Win32,59.88023952,,,,,,,,,,,,,,,,,,,,,,,,,,,,,,,,,,,,,,,,,,,,,,,,,,,,,我们,i,,,i,1,0.6574,0,70,70,52,1,,
,,,,,,,,,,,,,1,001,2024-08-24_10h36.07.815,IAT(Formal),2021.2.3,Win32,59.88023952,,,,,,,,,,,,,,,,,,,,,,,,,,,,,,,,,,,,,,,,,,,,,,,,,,,,,愚蠢,i,,,i,1,0.6728,0,71,71,32,1,,
,,,,,,,,,,,,,1,001,2024-08-24_10h36.07.815,IAT(Formal),2021.2.3,Win32,59.88023952,,,,,,,,,,,,,,,,,,,,,,,,,,,,,,,,,,,,,,,,,,,,,,,,,,,,,刻薄,i,,,i,1,0.519,0,72,72,33,1,,
,,,,,,,,,,,,,1,001,2024-08-24_10h36.07.815,IAT(Formal),2021.2.3,Win32,59.88023952,,,,,,,,,,,,,,,,,,,,,,,,,,,,,,,,,,,,,,,,,,,,,,,,,,,,,其他,e,,,e,1,0.7018,0,73,73,9,1,,
,,,,,,,,,,,,,1,001,2024-08-24_10h36.07.815,IAT(Formal),2021.2.3,Win32,59.88023952,,,,,,,,,,,,,,,,,,,,,,,,,,,,,,,,,,,,,,,,,,,,,,,,,,,,,他人,e,,,e,1,0.5767,0,74,74,68,1,,
,,,,,,,,,,,,,1,001,2024-08-24_10h36.07.815,IAT(Formal),2021.2.3,Win32,59.88023952,,,,,,,,,,,,,,,,,,,,,,,,,,,,,,,,,,,,,,,,,,,,,,,,,,,,,自私,i,,,i,1,0.673,0,75,75,43,1,,
,,,,,,,,,,,,,1,001,2024-08-24_10h36.07.815,IAT(Formal),2021.2.3,Win32,59.88023952,,,,,,,,,,,,,,,,,,,,,,,,,,,,,,,,,,,,,,,,,,,,,,,,,,,,,我,i,,,e,0,0.6846,0,76,76,50,1,,
,,,,,,,,,,,,,1,001,2024-08-24_10h36.07.815,IAT(Formal),2021.2.3,Win32,59.88023952,,,,,,,,,,,,,,,,,,,,,,,,,,,,,,,,,,,,,,,,,,,,,,,,,,,,,自卑,i,,,i,1,0.7773,0,77,77,36,1,,
,,,,,,,,,,,,,1,001,2024-08-24_10h36.07.815,IAT(Formal),2021.2.3,Win32,59.88023952,,,,,,,,,,,,,,,,,,,,,,,,,,,,,,,,,,,,,,,,,,,,,,,,,,,,,我的,i,,,e,0,0.6173,0,78,78,1,1,,
,,,,,,,,,,,,,1,001,2024-08-24_10h36.07.815,IAT(Formal),2021.2.3,Win32,59.88023952,,,,,,,,,,,,,,,,,,,,,,,,,,,,,,,,,,,,,,,,,,,,,,,,,,,,,诚恳,e,,,e,1,0.5626,0,79,79,29,1,,
,,,,,,,,,,,,,1,001,2024-08-24_10h36.07.815,IAT(Formal),2021.2.3,Win32,59.88023952,,,,,,,,,,,,,,,,,,,,,,,,,,,,,,,,,,,,,,,,,,,,,,,,,,,,,野蛮,i,,,i,1,0.5769,1,0,80,46,1,,
,,,,,,,,,,,,,1,001,2024-08-24_10h36.07.815,IAT(Formal),2021.2.3,Win32,59.88023952,,,,,,,,,,,,,,,,,,,,,,,,,,,,,,,,,,,,,,,,,,,,,,,,,,,,,正直,e,,,e,1,0.5792,1,1,81,16,1,,
,,,,,,,,,,,,,1,001,2024-08-24_10h36.07.815,IAT(Formal),2021.2.3,Win32,59.88023952,,,,,,,,,,,,,,,,,,,,,,,,,,,,,,,,,,,,,,,,,,,,,,,,,,,,,我,i,,,i,1,0.7507,1,2,82,50,1,,
,,,,,,,,,,,,,1,001,2024-08-24_10h36.07.815,IAT(Formal),2021.2.3,Win32,59.88023952,,,,,,,,,,,,,,,,,,,,,,,,,,,,,,,,,,,,,,,,,,,,,,,,,,,,,自己,i,,,i,1,0.5019,1,3,83,53,1,,
,,,,,,,,,,,,,1,001,2024-08-24_10h36.07.815,IAT(Formal),2021.2.3,Win32,59.88023952,,,,,,,,,,,,,,,,,,,,,,,,,,,,,,,,,,,,,,,,,,,,,,,,,,,,,执拗,i,,,e,0,0.5946,1,4,84,40,1,,
,,,,,,,,,,,,,1,001,2024-08-24_10h36.07.815,IAT(Formal),2021.2.3,Win32,59.88023952,,,,,,,,,,,,,,,,,,,,,,,,,,,,,,,,,,,,,,,,,,,,,,,,,,,,,他们,e,,,e,1,1.1007,1,5,85,6,1,,
,,,,,,,,,,,,,1,001,2024-08-24_10h36.07.815,IAT(Formal),2021.2.3,Win32,59.88023952,,,,,,,,,,,,,,,,,,,,,,,,,,,,,,,,,,,,,,,,,,,,,,,,,,,,,聪明,e,,,e,1,0.7365,1,6,86,12,1,,
,,,,,,,,,,,,,1,001,2024-08-24_10h36.07.815,IAT(Formal),2021.2.3,Win32,59.88023952,,,,,,,,,,,,,,,,,,,,,,,,,,,,,,,,,,,,,,,,,,,,,,,,,,,,,我,i,,,i,1,0.6777,1,7,87,0,1,,
,,,,,,,,,,,,,1,001,2024-08-24_10h36.07.815,IAT(Formal),2021.2.3,Win32,59.88023952,,,,,,,,,,,,,,,,,,,,,,,,,,,,,,,,,,,,,,,,,,,,,,,,,,,,,细腻,e,,,e,1,0.7504,1,8,88,25,1,,
,,,,,,,,,,,,,1,001,2024-08-24_10h36.07.815,IAT(Formal),2021.2.3,Win32,59.88023952,,,,,,,,,,,,,,,,,,,,,,,,,,,,,,,,,,,,,,,,,,,,,,,,,,,,,俺,i,,,i,1,0.7839,1,9,89,74,1,,
,,,,,,,,,,,,,1,001,2024-08-24_10h36.07.815,IAT(Formal),2021.2.3,Win32,59.88023952,,,,,,,,,,,,,,,,,,,,,,,,,,,,,,,,,,,,,,,,,,,,,,,,,,,,,他的,e,,,e,1,0.5843,1,10,90,67,1,,
,,,,,,,,,,,,,1,001,2024-08-24_10h36.07.815,IAT(Formal),2021.2.3,Win32,59.88023952,,,,,,,,,,,,,,,,,,,,,,,,,,,,,,,,,,,,,,,,,,,,,,,,,,,,,我们,i,,,e,0,0.7266,1,11,91,62,1,,
,,,,,,,,,,,,,1,001,2024-08-24_10h36.07.815,IAT(Formal),2021.2.3,Win32,59.88023952,,,,,,,,,,,,,,,,,,,,,,,,,,,,,,,,,,,,,,,,,,,,,,,,,,,,,固执,i,,,e,0,1.0527,1,12,92,47,1,,
,,,,,,,,,,,,,1,001,2024-08-24_10h36.07.815,IAT(Formal),2021.2.3,Win32,59.88023952,,,,,,,,,,,,,,,,,,,,,,,,,,,,,,,,,,,,,,,,,,,,,,,,,,,,,我的,i,,,i,1,0.7204,1,13,93,1,1,,
,,,,,,,,,,,,,1,001,2024-08-24_10h36.07.815,IAT(Formal),2021.2.3,Win32,59.88023952,,,,,,,,,,,,,,,,,,,,,,,,,,,,,,,,,,,,,,,,,,,,,,,,,,,,,我,i,,,i,1,0.8621,1,14,94,70,1,,
,,,,,,,,,,,,,1,001,2024-08-24_10h36.07.815,IAT(Formal),2021.2.3,Win32,59.88023952,,,,,,,,,,,,,,,,,,,,,,,,,,,,,,,,,,,,,,,,,,,,,,,,,,,,,勤奋,e,,,e,1,0.7015,1,15,95,18,1,,
,,,,,,,,,,,,,1,001,2024-08-24_10h36.07.815,IAT(Formal),2021.2.3,Win32,59.88023952,,,,,,,,,,,,,,,,,,,,,,,,,,,,,,,,,,,,,,,,,,,,,,,,,,,,,冷静,e,,,e,1,1.1885,1,16,96,26,1,,
,,,,,,,,,,,,,1,001,2024-08-24_10h36.07.815,IAT(Formal),2021.2.3,Win32,59.88023952,,,,,,,,,,,,,,,,,,,,,,,,,,,,,,,,,,,,,,,,,,,,,,,,,,,,,傲慢,i,,,i,1,0.5789,1,17,97,37,1,,
,,,,,,,,,,,,,1,001,2024-08-24_10h36.07.815,IAT(Formal),2021.2.3,Win32,59.88023952,,,,,,,,,,,,,,,,,,,,,,,,,,,,,,,,,,,,,,,,,,,,,,,,,,,,,他人,e,,,e,1,0.8538,1,18,98,78,1,,
,,,,,,,,,,,,,1,001,2024-08-24_10h36.07.815,IAT(Formal),2021.2.3,Win32,59.88023952,,,,,,,,,,,,,,,,,,,,,,,,,,,,,,,,,,,,,,,,,,,,,,,,,,,,,他的,e,,,e,1,0.5682,1,19,99,57,1,,
,,,,,,,,,,,,,1,001,2024-08-24_10h36.07.815,IAT(Formal),2021.2.3,Win32,59.88023952,,,,,,,,,,,,,,,,,,,,,,,,,,,,,,,,,,,,,,,,,,,,,,,,,,,,,其他,e,,,e,1,0.7336,1,20,100,79,1,,
,,,,,,,,,,,,,1,001,2024-08-24_10h36.07.815,IAT(Formal),2021.2.3,Win32,59.88023952,,,,,,,,,,,,,,,,,,,,,,,,,,,,,,,,,,,,,,,,,,,,,,,,,,,,,其他,e,,,e,1,0.7808,1,21,101,59,1,,
,,,,,,,,,,,,,1,001,2024-08-24_10h36.07.815,IAT(Formal),2021.2.3,Win32,59.88023952,,,,,,,,,,,,,,,,,,,,,,,,,,,,,,,,,,,,,,,,,,,,,,,,,,,,,散漫,i,,,i,1,0.589,1,22,102,41,1,,
,,,,,,,,,,,,,1,001,2024-08-24_10h36.07.815,IAT(Formal),2021.2.3,Win32,59.88023952,,,,,,,,,,,,,,,,,,,,,,,,,,,,,,,,,,,,,,,,,,,,,,,,,,,,,鲁莽,i,,,i,1,0.6191,1,23,103,38,1,,
,,,,,,,,,,,,,1,001,2024-08-24_10h36.07.815,IAT(Formal),2021.2.3,Win32,59.88023952,,,,,,,,,,,,,,,,,,,,,,,,,,,,,,,,,,,,,,,,,,,,,,,,,,,,,无私,e,,,i,0,0.652,1,24,104,22,1,,
,,,,,,,,,,,,,1,001,2024-08-24_10h36.07.815,IAT(Formal),2021.2.3,Win32,59.88023952,,,,,,,,,,,,,,,,,,,,,,,,,,,,,,,,,,,,,,,,,,,,,,,,,,,,,悲观,i,,,,0,,1,25,105,34,1,,
,,,,,,,,,,,,,1,001,2024-08-24_10h36.07.815,IAT(Formal),2021.2.3,Win32,59.88023952,,,,,,,,,,,,,,,,,,,,,,,,,,,,,,,,,,,,,,,,,,,,,,,,,,,,,机智,e,,,e,1,0.627,1,26,106,19,1,,
,,,,,,,,,,,,,1,001,2024-08-24_10h36.07.815,IAT(Formal),2021.2.3,Win32,59.88023952,,,,,,,,,,,,,,,,,,,,,,,,,,,,,,,,,,,,,,,,,,,,,,,,,,,,,愚蠢,i,,,i,1,0.6357,1,27,107,32,1,,
,,,,,,,,,,,,,1,001,2024-08-24_10h36.07.815,IAT(Formal),2021.2.3,Win32,59.88023952,,,,,,,,,,,,,,,,,,,,,,,,,,,,,,,,,,,,,,,,,,,,,,,,,,,,,其他,e,,,i,0,0.6017,1,28,108,69,1,,
,,,,,,,,,,,,,1,001,2024-08-24_10h36.07.815,IAT(Formal),2021.2.3,Win32,59.88023952,,,,,,,,,,,,,,,,,,,,,,,,,,,,,,,,,,,,,,,,,,,,,,,,,,,,,杰出,e,,,e,1,0.7508,1,29,109,13,1,,
,,,,,,,,,,,,,1,001,2024-08-24_10h36.07.815,IAT(Formal),2021.2.3,Win32,59.88023952,,,,,,,,,,,,,,,,,,,,,,,,,,,,,,,,,,,,,,,,,,,,,,,,,,,,,我的,i,,,e,0,0.7407,1,30,110,71,1,,
,,,,,,,,,,,,,1,001,2024-08-24_10h36.07.815,IAT(Formal),2021.2.3,Win32,59.88023952,,,,,,,,,,,,,,,,,,,,,,,,,,,,,,,,,,,,,,,,,,,,,,,,,,,,,稳重,e,,,e,1,0.6359,1,31,111,21,1,,
,,,,,,,,,,,,,1,001,2024-08-24_10h36.07.815,IAT(Formal),2021.2.3,Win32,59.88023952,,,,,,,,,,,,,,,,,,,,,,,,,,,,,,,,,,,,,,,,,,,,,,,,,,,,,诚实,e,,,e,1,0.6189,1,32,112,15,1,,
,,,,,,,,,,,,,1,001,2024-08-24_10h36.07.815,IAT(Formal),2021.2.3,Win32,59.88023952,,,,,,,,,,,,,,,,,,,,,,,,,,,,,,,,,,,,,,,,,,,,,,,,,,,,,活泼,e,,,e,1,0.4099,1,33,113,28,1,,
,,,,,,,,,,,,,1,001,2024-08-24_10h36.07.815,IAT(Formal),2021.2.3,Win32,59.88023952,,,,,,,,,,,,,,,,,,,,,,,,,,,,,,,,,,,,,,,,,,,,,,,,,,,,,轻率,i,,,i,1,0.6924,1,34,114,48,1,,
,,,,,,,,,,,,,1,001,2024-08-24_10h36.07.815,IAT(Formal),2021.2.3,Win32,59.88023952,,,,,,,,,,,,,,,,,,,,,,,,,,,,,,,,,,,,,,,,,,,,,,,,,,,,,他的,e,,,e,1,0.5293,1,35,115,7,1,,
,,,,,,,,,,,,,1,001,2024-08-24_10h36.07.815,IAT(Formal),2021.2.3,Win32,59.88023952,,,,,,,,,,,,,,,,,,,,,,,,,,,,,,,,,,,,,,,,,,,,,,,,,,,,,猖狂,i,,,i,1,0.6637,1,36,116,45,1,,
,,,,,,,,,,,,,1,001,2024-08-24_10h36.07.815,IAT(Formal),2021.2.3,Win32,59.88023952,,,,,,,,,,,,,,,,,,,,,,,,,,,,,,,,,,,,,,,,,,,,,,,,,,,,,刻薄,i,,,i,1,0.5339,1,37,117,33,1,,
,,,,,,,,,,,,,1,001,2024-08-24_10h36.07.815,IAT(Formal),2021.2.3,Win32,59.88023952,,,,,,,,,,,,,,,,,,,,,,,,,,,,,,,,,,,,,,,,,,,,,,,,,,,,,乐观,e,,,e,1,0.6204,1,38,118,14,1,,
,,,,,,,,,,,,,1,001,2024-08-24_10h36.07.815,IAT(Formal),2021.2.3,Win32,59.88023952,,,,,,,,,,,,,,,,,,,,,,,,,,,,,,,,,,,,,,,,,,,,,,,,,,,,,他,e,,,e,1,0.8498,1,39,119,5,1,,
,,,,,,,,,,,,,1,001,2024-08-24_10h36.07.815,IAT(Formal),2021.2.3,Win32,59.88023952,,,,,,,,,,,,,,,,,,,,,,,,,,,,,,,,,,,,,,,,,,,,,,,,,,,,,他们,e,,,e,1,0.5509,1,40,120,66,1,,
,,,,,,,,,,,,,1,001,2024-08-24_10h36.07.815,IAT(Formal),2021.2.3,Win32,59.88023952,,,,,,,,,,,,,,,,,,,,,,,,,,,,,,,,,,,,,,,,,,,,,,,,,,,,,自己,i,,,i,1,0.8833,1,41,121,3,1,,
,,,,,,,,,,,,,1,001,2024-08-24_10h36.07.815,IAT(Formal),2021.2.3,Win32,59.88023952,,,,,,,,,,,,,,,,,,,,,,,,,,,,,,,,,,,,,,,,,,,,,,,,,,,,,暴躁,i,,,i,1,1.3223,1,42,122,44,1,,
,,,,,,,,,,,,,1,001,2024-08-24_10h36.07.815,IAT(Formal),2021.2.3,Win32,59.88023952,,,,,,,,,,,,,,,,,,,,,,,,,,,,,,,,,,,,,,,,,,,,,,,,,,,,,冒失,i,,,i,1,0.5315,1,43,123,39,1,,
,,,,,,,,,,,,,1,001,2024-08-24_10h36.07.815,IAT(Formal),2021.2.3,Win32,59.88023952,,,,,,,,,,,,,,,,,,,,,,,,,,,,,,,,,,,,,,,,,,,,,,,,,,,,,虚伪,i,,,i,1,0.6344,1,44,124,31,1,,
,,,,,,,,,,,,,1,001,2024-08-24_10h36.07.815,IAT(Formal),2021.2.3,Win32,59.88023952,,,,,,,,,,,,,,,,,,,,,,,,,,,,,,,,,,,,,,,,,,,,,,,,,,,,,他人,e,,,i,0,0.5195,1,45,125,68,1,,
,,,,,,,,,,,,,1,001,2024-08-24_10h36.07.815,IAT(Formal),2021.2.3,Win32,59.88023952,,,,,,,,,,,,,,,,,,,,,,,,,,,,,,,,,,,,,,,,,,,,,,,,,,,,,他人,e,,,e,1,0.6885,1,46,126,8,1,,
,,,,,,,,,,,,,1,001,2024-08-24_10h36.07.815,IAT(Formal),2021.2.3,Win32,59.88023952,,,,,,,,,,,,,,,,,,,,,,,,,,,,,,,,,,,,,,,,,,,,,,,,,,,,,自私,i,,,i,1,0.6524,1,47,127,43,1,,
,,,,,,,,,,,,,1,001,2024-08-24_10h36.07.815,IAT(Formal),2021.2.3,Win32,59.88023952,,,,,,,,,,,,,,,,,,,,,,,,,,,,,,,,,,,,,,,,,,,,,,,,,,,,,他,e,,,e,1,1.1758,1,48,128,75,1,,
,,,,,,,,,,,,,1,001,2024-08-24_10h36.07.815,IAT(Formal),2021.2.3,Win32,59.88023952,,,,,,,,,,,,,,,,,,,,,,,,,,,,,,,,,,,,,,,,,,,,,,,,,,,,,俺,i,,,i,1,0.7601,1,49,129,54,1,,
,,,,,,,,,,,,,1,001,2024-08-24_10h36.07.815,IAT(Formal),2021.2.3,Win32,59.88023952,,,,,,,,,,,,,,,,,,,,,,,,,,,,,,,,,,,,,,,,,,,,,,,,,,,,,其他,e,,,e,1,0.8531,1,50,130,9,1,,
,,,,,,,,,,,,,1,001,2024-08-24_10h36.07.815,IAT(Formal),2021.2.3,Win32,59.88023952,,,,,,,,,,,,,,,,,,,,,,,,,,,,,,,,,,,,,,,,,,,,,,,,,,,,,勇敢,e,,,e,1,0.6559,1,51,131,17,1,,
,,,,,,,,,,,,,1,001,2024-08-24_10h36.07.815,IAT(Formal),2021.2.3,Win32,59.88023952,,,,,,,,,,,,,,,,,,,,,,,,,,,,,,,,,,,,,,,,,,,,,,,,,,,,,公正,e,,,e,1,0.6202,1,52,132,23,1,,
,,,,,,,,,,,,,1,001,2024-08-24_10h36.07.815,IAT(Formal),2021.2.3,Win32,59.88023952,,,,,,,,,,,,,,,,,,,,,,,,,,,,,,,,,,,,,,,,,,,,,,,,,,,,,俺,i,,,e,0,0.4976,1,53,133,4,1,,
,,,,,,,,,,,,,1,001,2024-08-24_10h36.07.815,IAT(Formal),2021.2.3,Win32,59.88023952,,,,,,,,,,,,,,,,,,,,,,,,,,,,,,,,,,,,,,,,,,,,,,,,,,,,,崇高,e,,,e,1,0.9178,1,54,134,11,1,,
,,,,,,,,,,,,,1,001,2024-08-24_10h36.07.815,IAT(Formal),2021.2.3,Win32,59.88023952,,,,,,,,,,,,,,,,,,,,,,,,,,,,,,,,,,,,,,,,,,,,,,,,,,,,,他们,e,,,e,1,1.1255,1,55,135,76,1,,
,,,,,,,,,,,,,1,001,2024-08-24_10h36.07.815,IAT(Formal),2021.2.3,Win32,59.88023952,,,,,,,,,,,,,,,,,,,,,,,,,,,,,,,,,,,,,,,,,,,,,,,,,,,,,他人,e,,,e,1,0.4444,1,56,136,58,1,,
,,,,,,,,,,,,,1,001,2024-08-24_10h36.07.815,IAT(Formal),2021.2.3,Win32,59.88023952,,,,,,,,,,,,,,,,,,,,,,,,,,,,,,,,,,,,,,,,,,,,,,,,,,,,,我的,i,,,i,1,0.6697,1,57,137,51,1,,
,,,,,,,,,,,,,1,001,2024-08-24_10h36.07.815,IAT(Formal),2021.2.3,Win32,59.88023952,,,,,,,,,,,,,,,,,,,,,,,,,,,,,,,,,,,,,,,,,,,,,,,,,,,,,热情,e,,,e,1,0.5723,1,58,138,27,1,,
,,,,,,,,,,,,,1,001,2024-08-24_10h36.07.815,IAT(Formal),2021.2.3,Win32,59.88023952,,,,,,,,,,,,,,,,,,,,,,,,,,,,,,,,,,,,,,,,,,,,,,,,,,,,,朴实,e,,,e,1,0.6345,1,59,139,24,1,,
,,,,,,,,,,,,,1,001,2024-08-24_10h36.07.815,IAT(Formal),2021.2.3,Win32,59.88023952,,,,,,,,,,,,,,,,,,,,,,,,,,,,,,,,,,,,,,,,,,,,,,,,,,,,,下贱,i,,,i,1,0.9252,1,60,140,49,1,,
,,,,,,,,,,,,,1,001,2024-08-24_10h36.07.815,IAT(Formal),2021.2.3,Win32,59.88023952,,,,,,,,,,,,,,,,,,,,,,,,,,,,,,,,,,,,,,,,,,,,,,,,,,,,,自己,i,,,i,1,0.6017,1,61,141,63,1,,
,,,,,,,,,,,,,1,001,2024-08-24_10h36.07.815,IAT(Formal),2021.2.3,Win32,59.88023952,,,,,,,,,,,,,,,,,,,,,,,,,,,,,,,,,,,,,,,,,,,,,,,,,,,,,他的,e,,,e,1,0.6062,1,62,142,77,1,,
,,,,,,,,,,,,,1,001,2024-08-24_10h36.07.815,IAT(Formal),2021.2.3,Win32,59.88023952,,,,,,,,,,,,,,,,,,,,,,,,,,,,,,,,,,,,,,,,,,,,,,,,,,,,,他们,e,,,e,1,0.4778,1,63,143,56,1,,
,,,,,,,,,,,,,1,001,2024-08-24_10h36.07.815,IAT(Formal),2021.2.3,Win32,59.88023952,,,,,,,,,,,,,,,,,,,,,,,,,,,,,,,,,,,,,,,,,,,,,,,,,,,,,自己,i,,,i,1,0.7004,1,64,144,73,1,,
,,,,,,,,,,,,,1,001,2024-08-24_10h36.07.815,IAT(Formal),2021.2.3,Win32,59.88023952,,,,,,,,,,,,,,,,,,,,,,,,,,,,,,,,,,,,,,,,,,,,,,,,,,,,,我的,i,,,i,1,0.554,1,65,145,61,1,,
,,,,,,,,,,,,,1,001,2024-08-24_10h36.07.815,IAT(Formal),2021.2.3,Win32,59.88023952,,,,,,,,,,,,,,,,,,,,,,,,,,,,,,,,,,,,,,,,,,,,,,,,,,,,,卑鄙,i,,,i,1,0.6349,1,66,146,30,1,,
,,,,,,,,,,,,,1,001,2024-08-24_10h36.07.815,IAT(Formal),2021.2.3,Win32,59.88023952,,,,,,,,,,,,,,,,,,,,,,,,,,,,,,,,,,,,,,,,,,,,,,,,,,,,,自卑,i,,,i,1,0.595,1,67,147,36,1,,
,,,,,,,,,,,,,1,001,2024-08-24_10h36.07.815,IAT(Formal),2021.2.3,Win32,59.88023952,,,,,,,,,,,,,,,,,,,,,,,,,,,,,,,,,,,,,,,,,,,,,,,,,,,,,我们,i,,,i,1,0.755,1,68,148,72,1,,
,,,,,,,,,,,,,1,001,2024-08-24_10h36.07.815,IAT(Formal),2021.2.3,Win32,59.88023952,,,,,,,,,,,,,,,,,,,,,,,,,,,,,,,,,,,,,,,,,,,,,,,,,,,,,俺,i,,,i,1,0.4062,1,69,149,64,1,,
,,,,,,,,,,,,,1,001,2024-08-24_10h36.07.815,IAT(Formal),2021.2.3,Win32,59.88023952,,,,,,,,,,,,,,,,,,,,,,,,,,,,,,,,,,,,,,,,,,,,,,,,,,,,,他,e,,,e,1,0.67,1,70,150,55,1,,
,,,,,,,,,,,,,1,001,2024-08-24_10h36.07.815,IAT(Formal),2021.2.3,Win32,59.88023952,,,,,,,,,,,,,,,,,,,,,,,,,,,,,,,,,,,,,,,,,,,,,,,,,,,,,凶狠,i,,,e,0,0.6793,1,71,151,42,1,,
,,,,,,,,,,,,,1,001,2024-08-24_10h36.07.815,IAT(Formal),2021.2.3,Win32,59.88023952,,,,,,,,,,,,,,,,,,,,,,,,,,,,,,,,,,,,,,,,,,,,,,,,,,,,,诚恳,e,,,i,0,0.629,1,72,152,29,1,,
,,,,,,,,,,,,,1,001,2024-08-24_10h36.07.815,IAT(Formal),2021.2.3,Win32,59.88023952,,,,,,,,,,,,,,,,,,,,,,,,,,,,,,,,,,,,,,,,,,,,,,,,,,,,,我们,i,,,i,1,0.6568,1,73,153,52,1,,
,,,,,,,,,,,,,1,001,2024-08-24_10h36.07.815,IAT(Formal),2021.2.3,Win32,59.88023952,,,,,,,,,,,,,,,,,,,,,,,,,,,,,,,,,,,,,,,,,,,,,,,,,,,,,优秀,e,,,e,1,0.685,1,74,154,10,1,,
,,,,,,,,,,,,,1,001,2024-08-24_10h36.07.815,IAT(Formal),2021.2.3,Win32,59.88023952,,,,,,,,,,,,,,,,,,,,,,,,,,,,,,,,,,,,,,,,,,,,,,,,,,,,,他,e,,,e,1,0.6442,1,75,155,65,1,,
,,,,,,,,,,,,,1,001,2024-08-24_10h36.07.815,IAT(Formal),2021.2.3,Win32,59.88023952,,,,,,,,,,,,,,,,,,,,,,,,,,,,,,,,,,,,,,,,,,,,,,,,,,,,,认真,e,,,e,1,0.6751,1,76,156,20,1,,
,,,,,,,,,,,,,1,001,2024-08-24_10h36.07.815,IAT(Formal),2021.2.3,Win32,59.88023952,,,,,,,,,,,,,,,,,,,,,,,,,,,,,,,,,,,,,,,,,,,,,,,,,,,,,消极,i,,,e,0,0.4813,1,77,157,35,1,,
,,,,,,,,,,,,,1,001,2024-08-24_10h36.07.815,IAT(Formal),2021.2.3,Win32,59.88023952,,,,,,,,,,,,,,,,,,,,,,,,,,,,,,,,,,,,,,,,,,,,,,,,,,,,,我们,i,,,e,0,0.4517,1,78,158,2,1,,
,,,,,,,,,,,,,1,001,2024-08-24_10h36.07.815,IAT(Formal),2021.2.3,Win32,59.88023952,,,,,,,,,,,,,,,,,,,,,,,,,,,,,,,,,,,,,,,,,,,,,,,,,,,,,我,i,,,i,1,0.5405,1,79,159,60,1,,
,,,,,,,,,,,,,1,001,2024-08-24_10h36.07.815,IAT(Formal),2021.2.3,Win32,59.88023952,,,,,,,,,,,,,,,,,,,,,,,,,,,,,,,,,,,,,,,,,,,,,,,,,,,,,,,,,,,,,,,,,space,1.8426