"X.Instruction1.keys","Instruction1.rt","Instruction2.keys","Instruction2.rt","key_resp_iso.keys","key_resp_iso.corr","Practice_01.thisRepN","Practice_01.thisTrialN","Practice_01.thisN","Practice_01.thisIndex","Practice_01.ran","Words","ans","participant","session","date","expName","psychopyVersion","OS","frameRate","key_resp_iso.rt","key_resp_3.keys","key_resp_3.rt","key_resp_ipn.keys","key_resp_ipn.corr","key_resp_ipn.rt","Practice_02.thisRepN","Practice_02.thisTrialN","Practice_02.thisN","Practice_02.thisIndex","Practice_02.ran","Words_ipn","ans_ipn","key_resp_4.keys","key_resp_4.rt","key_resp_t1.keys","key_resp_t1.corr","key_resp_t1.rt","Practice_T1.thisRepN","Practice_T1.thisTrialN","Practice_T1.thisN","Practice_T1.thisIndex","Practice_T1.ran","Words_t1","ans_t1","key_resp_5.keys","key_resp_5.rt","Formal_T1.thisRepN","Formal_T1.thisTrialN","Formal_T1.thisN","Formal_T1.thisIndex","Formal_T1.ran","key_resp_6.keys","key_resp_6.rt","key_resp_iso_reverse.keys","key_resp_iso_reverse.corr","Practice_iso_Reverse.thisRepN","Practice_iso_Reverse.thisTrialN","Practice_iso_Reverse.thisN","Practice_iso_Reverse.thisIndex","Practice_iso_Reverse.ran","key_resp_iso_reverse.rt","key_resp_7.keys","key_resp_7.rt","key_resp_t2_Practice.keys","key_resp_t2_Practice.corr","key_resp_t2_Practice.rt","Practice_t2_Reverse.thisRepN","Practice_t2_Reverse.thisTrialN","Practice_t2_Reverse.thisN","Practice_t2_Reverse.thisIndex","Practice_t2_Reverse.ran","Words_t2","ans_t2","key_resp_8.keys","key_resp_8.rt","key_resp_t2.keys","key_resp_t2.corr","key_resp_t2.rt","Formal_t2_reverse.thisRepN","Formal_t2_reverse.thisTrialN","Formal_t2_reverse.thisN","Formal_t2_reverse.thisIndex","Formal_t2_reverse.ran","key_instruct.keys","key_instruct.rt","Subject"
"space",5.1274,"space",21.7301,"",0,0,0,0,9,1,"其他","i",1,1,"2024-08-24_10h36.07.815","IAT(Formal)","2021.2.3","Win32",59.88023952,NA,"",NA,"",NA,NA,NA,NA,NA,NA,NA,"","","",NA,"",NA,NA,NA,NA,NA,NA,NA,"","","",NA,NA,NA,NA,NA,NA,"",NA,"",NA,NA,NA,NA,NA,NA,NA,"",NA,"",NA,NA,NA,NA,NA,NA,NA,"","","",NA,"",NA,NA,NA,NA,NA,NA,NA,"",NA,"22"
"",NA,"",NA,"e",1,0,1,1,1,1,"我的","e",1,1,"2024-08-24_10h36.07.815","IAT(Formal)","2021.2.3","Win32",59.88023952,1.0589,"",NA,"",NA,NA,NA,NA,NA,NA,NA,"","","",NA,"",NA,NA,NA,NA,NA,NA,NA,"","","",NA,NA,NA,NA,NA,NA,"",NA,"",NA,NA,NA,NA,NA,NA,NA,"",NA,"",NA,NA,NA,NA,NA,NA,NA,"","","",NA,"",NA,NA,NA,NA,NA,NA,NA,"",NA,"22"
"",NA,"",NA,"e",0,0,2,2,8,1,"他人","i",1,1,"2024-08-24_10h36.07.815","IAT(Formal)","2021.2.3","Win32",59.88023952,0.2568,"",NA,"",NA,NA,NA,NA,NA,NA,NA,"","","",NA,"",NA,NA,NA,NA,NA,NA,NA,"","","",NA,NA,NA,NA,NA,NA,"",NA,"",NA,NA,NA,NA,NA,NA,NA,"",NA,"",NA,NA,NA,NA,NA,NA,NA,"","","",NA,"",NA,NA,NA,NA,NA,NA,NA,"",NA,"22"
"",NA,"",NA,"i",1,0,3,3,7,1,"他的","i",1,1,"2024-08-24_10h36.07.815","IAT(Formal)","2021.2.3","Win32",59.88023952,0.8692,"",NA,"",NA,NA,NA,NA,NA,NA,NA,"","","",NA,"",NA,NA,NA,NA,NA,NA,NA,"","","",NA,NA,NA,NA,NA,NA,"",NA,"",NA,NA,NA,NA,NA,NA,NA,"",NA,"",NA,NA,NA,NA,NA,NA,NA,"","","",NA,"",NA,NA,NA,NA,NA,NA,NA,"",NA,"22"
"",NA,"",NA,"e",1,0,4,4,3,1,"自己","e",1,1,"2024-08-24_10h36.07.815","IAT(Formal)","2021.2.3","Win32",59.88023952,0.7524,"",NA,"",NA,NA,NA,NA,NA,NA,NA,"","","",NA,"",NA,NA,NA,NA,NA,NA,NA,"","","",NA,NA,NA,NA,NA,NA,"",NA,"",NA,NA,NA,NA,NA,NA,NA,"",NA,"",NA,NA,NA,NA,NA,NA,NA,"","","",NA,"",NA,NA,NA,NA,NA,NA,NA,"",NA,"22"
"",NA,"",NA,"i",1,0,5,5,6,1,"他们","i",1,1,"2024-08-24_10h36.07.815","IAT(Formal)","2021.2.3","Win32",59.88023952,1.0168,"",NA,"",NA,NA,NA,NA,NA,NA,NA,"","","",NA,"",NA,NA,NA,NA,NA,NA,NA,"","","",NA,NA,NA,NA,NA,NA,"",NA,"",NA,NA,NA,NA,NA,NA,NA,"",NA,"",NA,NA,NA,NA,NA,NA,NA,"","","",NA,"",NA,NA,NA,NA,NA,NA,NA,"",NA,"22"
"",NA,"",NA,"i",1,0,6,6,5,1,"他","i",1,1,"2024-08-24_10h36.07.815","IAT(Formal)","2021.2.3","Win32",59.88023952,0.7052,"",NA,"",NA,NA,NA,NA,NA,NA,NA,"","","",NA,"",NA,NA,NA,NA,NA,NA,NA,"","","",NA,NA,NA,NA,NA,NA,"",NA,"",NA,NA,NA,NA,NA,NA,NA,"",NA,"",NA,NA,NA,NA,NA,NA,NA,"","","",NA,"",NA,NA,NA,NA,NA,NA,NA,"",NA,"22"
"",NA,"",NA,"e",1,0,7,7,2,1,"我们","e",1,1,"2024-08-24_10h36.07.815","IAT(Formal)","2021.2.3","Win32",59.88023952,1.2914,"",NA,"",NA,NA,NA,NA,NA,NA,NA,"","","",NA,"",NA,NA,NA,NA,NA,NA,NA,"","","",NA,NA,NA,NA,NA,NA,"",NA,"",NA,NA,NA,NA,NA,NA,NA,"",NA,"",NA,NA,NA,NA,NA,NA,NA,"","","",NA,"",NA,NA,NA,NA,NA,NA,NA,"",NA,"22"
"",NA,"",NA,"e",1,0,8,8,4,1,"俺","e",1,1,"2024-08-24_10h36.07.815","IAT(Formal)","2021.2.3","Win32",59.88023952,0.5795,"",NA,"",NA,NA,NA,NA,NA,NA,NA,"","","",NA,"",NA,NA,NA,NA,NA,NA,NA,"","","",NA,NA,NA,NA,NA,NA,"",NA,"",NA,NA,NA,NA,NA,NA,NA,"",NA,"",NA,NA,NA,NA,NA,NA,NA,"","","",NA,"",NA,NA,NA,NA,NA,NA,NA,"",NA,"22"
"",NA,"",NA,"e",1,0,9,9,0,1,"我","e",1,1,"2024-08-24_10h36.07.815","IAT(Formal)","2021.2.3","Win32",59.88023952,1.1551,"",NA,"",NA,NA,NA,NA,NA,NA,NA,"","","",NA,"",NA,NA,NA,NA,NA,NA,NA,"","","",NA,NA,NA,NA,NA,NA,"",NA,"",NA,NA,NA,NA,NA,NA,NA,"",NA,"",NA,NA,NA,NA,NA,NA,NA,"","","",NA,"",NA,NA,NA,NA,NA,NA,NA,"",NA,"22"
"",NA,"",NA,"",NA,NA,NA,NA,NA,NA,"","",1,1,"2024-08-24_10h36.07.815","IAT(Formal)","2021.2.3","Win32",59.88023952,NA,"space",18.1691,"e",1,0.7672,0,0,0,5,1,"诚实","e","",NA,"",NA,NA,NA,NA,NA,NA,NA,"","","",NA,NA,NA,NA,NA,NA,"",NA,"",NA,NA,NA,NA,NA,NA,NA,"",NA,"",NA,NA,NA,NA,NA,NA,NA,"","","",NA,"",NA,NA,NA,NA,NA,NA,NA,"",NA,"22"
"",NA,"",NA,"",NA,NA,NA,NA,NA,NA,"","",1,1,"2024-08-24_10h36.07.815","IAT(Formal)","2021.2.3","Win32",59.88023952,NA,"",NA,"e",1,0.4979,0,1,1,17,1,"热情","e","",NA,"",NA,NA,NA,NA,NA,NA,NA,"","","",NA,NA,NA,NA,NA,NA,"",NA,"",NA,NA,NA,NA,NA,NA,NA,"",NA,"",NA,NA,NA,NA,NA,NA,NA,"","","",NA,"",NA,NA,NA,NA,NA,NA,NA,"",NA,"22"
"",NA,"",NA,"",NA,NA,NA,NA,NA,NA,"","",1,1,"2024-08-24_10h36.07.815","IAT(Formal)","2021.2.3","Win32",59.88023952,NA,"",NA,"i",1,0.7568,0,2,2,20,1,"卑鄙","i","",NA,"",NA,NA,NA,NA,NA,NA,NA,"","","",NA,NA,NA,NA,NA,NA,"",NA,"",NA,NA,NA,NA,NA,NA,NA,"",NA,"",NA,NA,NA,NA,NA,NA,NA,"","","",NA,"",NA,NA,NA,NA,NA,NA,NA,"",NA,"22"
"",NA,"",NA,"",NA,NA,NA,NA,NA,NA,"","",1,1,"2024-08-24_10h36.07.815","IAT(Formal)","2021.2.3","Win32",59.88023952,NA,"",NA,"i",1,1.198,0,3,3,25,1,"消极","i","",NA,"",NA,NA,NA,NA,NA,NA,NA,"","","",NA,NA,NA,NA,NA,NA,"",NA,"",NA,NA,NA,NA,NA,NA,NA,"",NA,"",NA,NA,NA,NA,NA,NA,NA,"","","",NA,"",NA,NA,NA,NA,NA,NA,NA,"",NA,"22"
"",NA,"",NA,"",NA,NA,NA,NA,NA,NA,"","",1,1,"2024-08-24_10h36.07.815","IAT(Formal)","2021.2.3","Win32",59.88023952,NA,"",NA,"e",1,0.9172,0,4,4,19,1,"诚恳","e","",NA,"",NA,NA,NA,NA,NA,NA,NA,"","","",NA,NA,NA,NA,NA,NA,"",NA,"",NA,NA,NA,NA,NA,NA,NA,"",NA,"",NA,NA,NA,NA,NA,NA,NA,"","","",NA,"",NA,NA,NA,NA,NA,NA,NA,"",NA,"22"
"",NA,"",NA,"",NA,NA,NA,NA,NA,NA,"","",1,1,"2024-08-24_10h36.07.815","IAT(Formal)","2021.2.3","Win32",59.88023952,NA,"",NA,"i",1,0.764,0,5,5,39,1,"下贱","i","",NA,"",NA,NA,NA,NA,NA,NA,NA,"","","",NA,NA,NA,NA,NA,NA,"",NA,"",NA,NA,NA,NA,NA,NA,NA,"",NA,"",NA,NA,NA,NA,NA,NA,NA,"","","",NA,"",NA,NA,NA,NA,NA,NA,NA,"",NA,"22"
"",NA,"",NA,"",NA,NA,NA,NA,NA,NA,"","",1,1,"2024-08-24_10h36.07.815","IAT(Formal)","2021.2.3","Win32",59.88023952,NA,"",NA,"",0,NA,0,6,6,1,1,"崇高","e","",NA,"",NA,NA,NA,NA,NA,NA,NA,"","","",NA,NA,NA,NA,NA,NA,"",NA,"",NA,NA,NA,NA,NA,NA,NA,"",NA,"",NA,NA,NA,NA,NA,NA,NA,"","","",NA,"",NA,NA,NA,NA,NA,NA,NA,"",NA,"22"
"",NA,"",NA,"",NA,NA,NA,NA,NA,NA,"","",1,1,"2024-08-24_10h36.07.815","IAT(Formal)","2021.2.3","Win32",59.88023952,NA,"",NA,"i",1,0.6808,0,7,7,38,1,"轻率","i","",NA,"",NA,NA,NA,NA,NA,NA,NA,"","","",NA,NA,NA,NA,NA,NA,"",NA,"",NA,NA,NA,NA,NA,NA,NA,"",NA,"",NA,NA,NA,NA,NA,NA,NA,"","","",NA,"",NA,NA,NA,NA,NA,NA,NA,"",NA,"22"
"",NA,"",NA,"",NA,NA,NA,NA,NA,NA,"","",1,1,"2024-08-24_10h36.07.815","IAT(Formal)","2021.2.3","Win32",59.88023952,NA,"",NA,"i",1,0.6176,0,8,8,23,1,"刻薄","i","",NA,"",NA,NA,NA,NA,NA,NA,NA,"","","",NA,NA,NA,NA,NA,NA,"",NA,"",NA,NA,NA,NA,NA,NA,NA,"",NA,"",NA,NA,NA,NA,NA,NA,NA,"","","",NA,"",NA,NA,NA,NA,NA,NA,NA,"",NA,"22"
"",NA,"",NA,"",NA,NA,NA,NA,NA,NA,"","",1,1,"2024-08-24_10h36.07.815","IAT(Formal)","2021.2.3","Win32",59.88023952,NA,"",NA,"i",1,0.5667,0,9,9,21,1,"虚伪","i","",NA,"",NA,NA,NA,NA,NA,NA,NA,"","","",NA,NA,NA,NA,NA,NA,"",NA,"",NA,NA,NA,NA,NA,NA,NA,"",NA,"",NA,NA,NA,NA,NA,NA,NA,"","","",NA,"",NA,NA,NA,NA,NA,NA,NA,"",NA,"22"
"",NA,"",NA,"",NA,NA,NA,NA,NA,NA,"","",1,1,"2024-08-24_10h36.07.815","IAT(Formal)","2021.2.3","Win32",59.88023952,NA,"",NA,"i",1,0.6459,0,10,10,22,1,"愚蠢","i","",NA,"",NA,NA,NA,NA,NA,NA,NA,"","","",NA,NA,NA,NA,NA,NA,"",NA,"",NA,NA,NA,NA,NA,NA,NA,"",NA,"",NA,NA,NA,NA,NA,NA,NA,"","","",NA,"",NA,NA,NA,NA,NA,NA,NA,"",NA,"22"
"",NA,"",NA,"",NA,NA,NA,NA,NA,NA,"","",1,1,"2024-08-24_10h36.07.815","IAT(Formal)","2021.2.3","Win32",59.88023952,NA,"",NA,"e",1,0.5737,0,11,11,4,1,"乐观","e","",NA,"",NA,NA,NA,NA,NA,NA,NA,"","","",NA,NA,NA,NA,NA,NA,"",NA,"",NA,NA,NA,NA,NA,NA,NA,"",NA,"",NA,NA,NA,NA,NA,NA,NA,"","","",NA,"",NA,NA,NA,NA,NA,NA,NA,"",NA,"22"
"",NA,"",NA,"",NA,NA,NA,NA,NA,NA,"","",1,1,"2024-08-24_10h36.07.815","IAT(Formal)","2021.2.3","Win32",59.88023952,NA,"",NA,"e",1,0.5294,0,12,12,7,1,"勇敢","e","",NA,"",NA,NA,NA,NA,NA,NA,NA,"","","",NA,NA,NA,NA,NA,NA,"",NA,"",NA,NA,NA,NA,NA,NA,NA,"",NA,"",NA,NA,NA,NA,NA,NA,NA,"","","",NA,"",NA,NA,NA,NA,NA,NA,NA,"",NA,"22"
"",NA,"",NA,"",NA,NA,NA,NA,NA,NA,"","",1,1,"2024-08-24_10h36.07.815","IAT(Formal)","2021.2.3","Win32",59.88023952,NA,"",NA,"e",1,0.5932,0,13,13,14,1,"朴实","e","",NA,"",NA,NA,NA,NA,NA,NA,NA,"","","",NA,NA,NA,NA,NA,NA,"",NA,"",NA,NA,NA,NA,NA,NA,NA,"",NA,"",NA,NA,NA,NA,NA,NA,NA,"","","",NA,"",NA,NA,NA,NA,NA,NA,NA,"",NA,"22"
"",NA,"",NA,"",NA,NA,NA,NA,NA,NA,"","",1,1,"2024-08-24_10h36.07.815","IAT(Formal)","2021.2.3","Win32",59.88023952,NA,"",NA,"i",1,0.6982,0,14,14,24,1,"悲观","i","",NA,"",NA,NA,NA,NA,NA,NA,NA,"","","",NA,NA,NA,NA,NA,NA,"",NA,"",NA,NA,NA,NA,NA,NA,NA,"",NA,"",NA,NA,NA,NA,NA,NA,NA,"","","",NA,"",NA,NA,NA,NA,NA,NA,NA,"",NA,"22"
"",NA,"",NA,"",NA,NA,NA,NA,NA,NA,"","",1,1,"2024-08-24_10h36.07.815","IAT(Formal)","2021.2.3","Win32",59.88023952,NA,"",NA,"i",1,0.6336,0,15,15,26,1,"自卑","i","",NA,"",NA,NA,NA,NA,NA,NA,NA,"","","",NA,NA,NA,NA,NA,NA,"",NA,"",NA,NA,NA,NA,NA,NA,NA,"",NA,"",NA,NA,NA,NA,NA,NA,NA,"","","",NA,"",NA,NA,NA,NA,NA,NA,NA,"",NA,"22"
"",NA,"",NA,"",NA,NA,NA,NA,NA,NA,"","",1,1,"2024-08-24_10h36.07.815","IAT(Formal)","2021.2.3","Win32",59.88023952,NA,"",NA,"i",1,0.8615,0,16,16,37,1,"固执","i","",NA,"",NA,NA,NA,NA,NA,NA,NA,"","","",NA,NA,NA,NA,NA,NA,"",NA,"",NA,NA,NA,NA,NA,NA,NA,"",NA,"",NA,NA,NA,NA,NA,NA,NA,"","","",NA,"",NA,NA,NA,NA,NA,NA,NA,"",NA,"22"
"",NA,"",NA,"",NA,NA,NA,NA,NA,NA,"","",1,1,"2024-08-24_10h36.07.815","IAT(Formal)","2021.2.3","Win32",59.88023952,NA,"",NA,"e",0,1.1868,0,17,17,34,1,"暴躁","i","",NA,"",NA,NA,NA,NA,NA,NA,NA,"","","",NA,NA,NA,NA,NA,NA,"",NA,"",NA,NA,NA,NA,NA,NA,NA,"",NA,"",NA,NA,NA,NA,NA,NA,NA,"","","",NA,"",NA,NA,NA,NA,NA,NA,NA,"",NA,"22"
"",NA,"",NA,"",NA,NA,NA,NA,NA,NA,"","",1,1,"2024-08-24_10h36.07.815","IAT(Formal)","2021.2.3","Win32",59.88023952,NA,"",NA,"i",1,0.6523,0,18,18,33,1,"自私","i","",NA,"",NA,NA,NA,NA,NA,NA,NA,"","","",NA,NA,NA,NA,NA,NA,"",NA,"",NA,NA,NA,NA,NA,NA,NA,"",NA,"",NA,NA,NA,NA,NA,NA,NA,"","","",NA,"",NA,NA,NA,NA,NA,NA,NA,"",NA,"22"
"",NA,"",NA,"",NA,NA,NA,NA,NA,NA,"","",1,1,"2024-08-24_10h36.07.815","IAT(Formal)","2021.2.3","Win32",59.88023952,NA,"",NA,"e",1,0.608,0,19,19,10,1,"认真","e","",NA,"",NA,NA,NA,NA,NA,NA,NA,"","","",NA,NA,NA,NA,NA,NA,"",NA,"",NA,NA,NA,NA,NA,NA,NA,"",NA,"",NA,NA,NA,NA,NA,NA,NA,"","","",NA,"",NA,NA,NA,NA,NA,NA,NA,"",NA,"22"
"",NA,"",NA,"",NA,NA,NA,NA,NA,NA,"","",1,1,"2024-08-24_10h36.07.815","IAT(Formal)","2021.2.3","Win32",59.88023952,NA,"",NA,"i",1,0.7341,0,20,20,35,1,"猖狂","i","",NA,"",NA,NA,NA,NA,NA,NA,NA,"","","",NA,NA,NA,NA,NA,NA,"",NA,"",NA,NA,NA,NA,NA,NA,NA,"",NA,"",NA,NA,NA,NA,NA,NA,NA,"","","",NA,"",NA,NA,NA,NA,NA,NA,NA,"",NA,"22"
"",NA,"",NA,"",NA,NA,NA,NA,NA,NA,"","",1,1,"2024-08-24_10h36.07.815","IAT(Formal)","2021.2.3","Win32",59.88023952,NA,"",NA,"i",1,0.6691,0,21,21,30,1,"执拗","i","",NA,"",NA,NA,NA,NA,NA,NA,NA,"","","",NA,NA,NA,NA,NA,NA,"",NA,"",NA,NA,NA,NA,NA,NA,NA,"",NA,"",NA,NA,NA,NA,NA,NA,NA,"","","",NA,"",NA,NA,NA,NA,NA,NA,NA,"",NA,"22"
"",NA,"",NA,"",NA,NA,NA,NA,NA,NA,"","",1,1,"2024-08-24_10h36.07.815","IAT(Formal)","2021.2.3","Win32",59.88023952,NA,"",NA,"e",1,0.6169,0,22,22,15,1,"细腻","e","",NA,"",NA,NA,NA,NA,NA,NA,NA,"","","",NA,NA,NA,NA,NA,NA,"",NA,"",NA,NA,NA,NA,NA,NA,NA,"",NA,"",NA,NA,NA,NA,NA,NA,NA,"","","",NA,"",NA,NA,NA,NA,NA,NA,NA,"",NA,"22"
"",NA,"",NA,"",NA,NA,NA,NA,NA,NA,"","",1,1,"2024-08-24_10h36.07.815","IAT(Formal)","2021.2.3","Win32",59.88023952,NA,"",NA,"e",1,0.6641,0,23,23,12,1,"无私","e","",NA,"",NA,NA,NA,NA,NA,NA,NA,"","","",NA,NA,NA,NA,NA,NA,"",NA,"",NA,NA,NA,NA,NA,NA,NA,"",NA,"",NA,NA,NA,NA,NA,NA,NA,"","","",NA,"",NA,NA,NA,NA,NA,NA,NA,"",NA,"22"
"",NA,"",NA,"",NA,NA,NA,NA,NA,NA,"","",1,1,"2024-08-24_10h36.07.815","IAT(Formal)","2021.2.3","Win32",59.88023952,NA,"",NA,"i",1,0.756,0,24,24,27,1,"傲慢","i","",NA,"",NA,NA,NA,NA,NA,NA,NA,"","","",NA,NA,NA,NA,NA,NA,"",NA,"",NA,NA,NA,NA,NA,NA,NA,"",NA,"",NA,NA,NA,NA,NA,NA,NA,"","","",NA,"",NA,NA,NA,NA,NA,NA,NA,"",NA,"22"
"",NA,"",NA,"",NA,NA,NA,NA,NA,NA,"","",1,1,"2024-08-24_10h36.07.815","IAT(Formal)","2021.2.3","Win32",59.88023952,NA,"",NA,"e",1,0.8861,0,25,25,0,1,"优秀","e","",NA,"",NA,NA,NA,NA,NA,NA,NA,"","","",NA,NA,NA,NA,NA,NA,"",NA,"",NA,NA,NA,NA,NA,NA,NA,"",NA,"",NA,NA,NA,NA,NA,NA,NA,"","","",NA,"",NA,NA,NA,NA,NA,NA,NA,"",NA,"22"
"",NA,"",NA,"",NA,NA,NA,NA,NA,NA,"","",1,1,"2024-08-24_10h36.07.815","IAT(Formal)","2021.2.3","Win32",59.88023952,NA,"",NA,"i",1,0.7381,0,26,26,31,1,"散漫","i","",NA,"",NA,NA,NA,NA,NA,NA,NA,"","","",NA,NA,NA,NA,NA,NA,"",NA,"",NA,NA,NA,NA,NA,NA,NA,"",NA,"",NA,NA,NA,NA,NA,NA,NA,"","","",NA,"",NA,NA,NA,NA,NA,NA,NA,"",NA,"22"
"",NA,"",NA,"",NA,NA,NA,NA,NA,NA,"","",1,1,"2024-08-24_10h36.07.815","IAT(Formal)","2021.2.3","Win32",59.88023952,NA,"",NA,"e",1,0.8095,0,27,27,11,1,"稳重","e","",NA,"",NA,NA,NA,NA,NA,NA,NA,"","","",NA,NA,NA,NA,NA,NA,"",NA,"",NA,NA,NA,NA,NA,NA,NA,"",NA,"",NA,NA,NA,NA,NA,NA,NA,"","","",NA,"",NA,NA,NA,NA,NA,NA,NA,"",NA,"22"
"",NA,"",NA,"",NA,NA,NA,NA,NA,NA,"","",1,1,"2024-08-24_10h36.07.815","IAT(Formal)","2021.2.3","Win32",59.88023952,NA,"",NA,"e",1,0.7363,0,28,28,18,1,"活泼","e","",NA,"",NA,NA,NA,NA,NA,NA,NA,"","","",NA,NA,NA,NA,NA,NA,"",NA,"",NA,NA,NA,NA,NA,NA,NA,"",NA,"",NA,NA,NA,NA,NA,NA,NA,"","","",NA,"",NA,NA,NA,NA,NA,NA,NA,"",NA,"22"
"",NA,"",NA,"",NA,NA,NA,NA,NA,NA,"","",1,1,"2024-08-24_10h36.07.815","IAT(Formal)","2021.2.3","Win32",59.88023952,NA,"",NA,"",0,NA,0,29,29,8,1,"勤奋","e","",NA,"",NA,NA,NA,NA,NA,NA,NA,"","","",NA,NA,NA,NA,NA,NA,"",NA,"",NA,NA,NA,NA,NA,NA,NA,"",NA,"",NA,NA,NA,NA,NA,NA,NA,"","","",NA,"",NA,NA,NA,NA,NA,NA,NA,"",NA,"22"
"",NA,"",NA,"",NA,NA,NA,NA,NA,NA,"","",1,1,"2024-08-24_10h36.07.815","IAT(Formal)","2021.2.3","Win32",59.88023952,NA,"",NA,"e",1,0.6099,0,30,30,2,1,"聪明","e","",NA,"",NA,NA,NA,NA,NA,NA,NA,"","","",NA,NA,NA,NA,NA,NA,"",NA,"",NA,NA,NA,NA,NA,NA,NA,"",NA,"",NA,NA,NA,NA,NA,NA,NA,"","","",NA,"",NA,NA,NA,NA,NA,NA,NA,"",NA,"22"
"",NA,"",NA,"",NA,NA,NA,NA,NA,NA,"","",1,1,"2024-08-24_10h36.07.815","IAT(Formal)","2021.2.3","Win32",59.88023952,NA,"",NA,"e",1,0.9505,0,31,31,16,1,"冷静","e","",NA,"",NA,NA,NA,NA,NA,NA,NA,"","","",NA,NA,NA,NA,NA,NA,"",NA,"",NA,NA,NA,NA,NA,NA,NA,"",NA,"",NA,NA,NA,NA,NA,NA,NA,"","","",NA,"",NA,NA,NA,NA,NA,NA,NA,"",NA,"22"
"",NA,"",NA,"",NA,NA,NA,NA,NA,NA,"","",1,1,"2024-08-24_10h36.07.815","IAT(Formal)","2021.2.3","Win32",59.88023952,NA,"",NA,"e",0,0.8703,0,32,32,36,1,"野蛮","i","",NA,"",NA,NA,NA,NA,NA,NA,NA,"","","",NA,NA,NA,NA,NA,NA,"",NA,"",NA,NA,NA,NA,NA,NA,NA,"",NA,"",NA,NA,NA,NA,NA,NA,NA,"","","",NA,"",NA,NA,NA,NA,NA,NA,NA,"",NA,"22"
"",NA,"",NA,"",NA,NA,NA,NA,NA,NA,"","",1,1,"2024-08-24_10h36.07.815","IAT(Formal)","2021.2.3","Win32",59.88023952,NA,"",NA,"e",1,0.5224,0,33,33,13,1,"公正","e","",NA,"",NA,NA,NA,NA,NA,NA,NA,"","","",NA,NA,NA,NA,NA,NA,"",NA,"",NA,NA,NA,NA,NA,NA,NA,"",NA,"",NA,NA,NA,NA,NA,NA,NA,"","","",NA,"",NA,NA,NA,NA,NA,NA,NA,"",NA,"22"
"",NA,"",NA,"",NA,NA,NA,NA,NA,NA,"","",1,1,"2024-08-24_10h36.07.815","IAT(Formal)","2021.2.3","Win32",59.88023952,NA,"",NA,"e",1,0.9679,0,34,34,3,1,"杰出","e","",NA,"",NA,NA,NA,NA,NA,NA,NA,"","","",NA,NA,NA,NA,NA,NA,"",NA,"",NA,NA,NA,NA,NA,NA,NA,"",NA,"",NA,NA,NA,NA,NA,NA,NA,"","","",NA,"",NA,NA,NA,NA,NA,NA,NA,"",NA,"22"
"",NA,"",NA,"",NA,NA,NA,NA,NA,NA,"","",1,1,"2024-08-24_10h36.07.815","IAT(Formal)","2021.2.3","Win32",59.88023952,NA,"",NA,"i",1,0.9235,0,35,35,28,1,"鲁莽","i","",NA,"",NA,NA,NA,NA,NA,NA,NA,"","","",NA,NA,NA,NA,NA,NA,"",NA,"",NA,NA,NA,NA,NA,NA,NA,"",NA,"",NA,NA,NA,NA,NA,NA,NA,"","","",NA,"",NA,NA,NA,NA,NA,NA,NA,"",NA,"22"
"",NA,"",NA,"",NA,NA,NA,NA,NA,NA,"","",1,1,"2024-08-24_10h36.07.815","IAT(Formal)","2021.2.3","Win32",59.88023952,NA,"",NA,"e",1,0.5744,0,36,36,6,1,"正直","e","",NA,"",NA,NA,NA,NA,NA,NA,NA,"","","",NA,NA,NA,NA,NA,NA,"",NA,"",NA,NA,NA,NA,NA,NA,NA,"",NA,"",NA,NA,NA,NA,NA,NA,NA,"","","",NA,"",NA,NA,NA,NA,NA,NA,NA,"",NA,"22"
"",NA,"",NA,"",NA,NA,NA,NA,NA,NA,"","",1,1,"2024-08-24_10h36.07.815","IAT(Formal)","2021.2.3","Win32",59.88023952,NA,"",NA,"i",1,0.7099,0,37,37,32,1,"凶狠","i","",NA,"",NA,NA,NA,NA,NA,NA,NA,"","","",NA,NA,NA,NA,NA,NA,"",NA,"",NA,NA,NA,NA,NA,NA,NA,"",NA,"",NA,NA,NA,NA,NA,NA,NA,"","","",NA,"",NA,NA,NA,NA,NA,NA,NA,"",NA,"22"
"",NA,"",NA,"",NA,NA,NA,NA,NA,NA,"","",1,1,"2024-08-24_10h36.07.815","IAT(Formal)","2021.2.3","Win32",59.88023952,NA,"",NA,"",0,NA,0,38,38,9,1,"机智","e","",NA,"",NA,NA,NA,NA,NA,NA,NA,"","","",NA,NA,NA,NA,NA,NA,"",NA,"",NA,NA,NA,NA,NA,NA,NA,"",NA,"",NA,NA,NA,NA,NA,NA,NA,"","","",NA,"",NA,NA,NA,NA,NA,NA,NA,"",NA,"22"
"",NA,"",NA,"",NA,NA,NA,NA,NA,NA,"","",1,1,"2024-08-24_10h36.07.815","IAT(Formal)","2021.2.3","Win32",59.88023952,NA,"",NA,"i",1,0.9381,0,39,39,29,1,"冒失","i","",NA,"",NA,NA,NA,NA,NA,NA,NA,"","","",NA,NA,NA,NA,NA,NA,"",NA,"",NA,NA,NA,NA,NA,NA,NA,"",NA,"",NA,NA,NA,NA,NA,NA,NA,"","","",NA,"",NA,NA,NA,NA,NA,NA,NA,"",NA,"22"
"",NA,"",NA,"",NA,NA,NA,NA,NA,NA,"","",1,1,"2024-08-24_10h36.07.815","IAT(Formal)","2021.2.3","Win32",59.88023952,NA,"",NA,"",NA,NA,NA,NA,NA,NA,NA,"","","space",22.655,"i",1,0.877,0,0,0,49,1,"下贱","i","",NA,NA,NA,NA,NA,NA,"",NA,"",NA,NA,NA,NA,NA,NA,NA,"",NA,"",NA,NA,NA,NA,NA,NA,NA,"","","",NA,"",NA,NA,NA,NA,NA,NA,NA,"",NA,"22"
"",NA,"",NA,"",NA,NA,NA,NA,NA,NA,"","",1,1,"2024-08-24_10h36.07.815","IAT(Formal)","2021.2.3","Win32",59.88023952,NA,"",NA,"",NA,NA,NA,NA,NA,NA,NA,"","","",NA,"i",1,0.8696,0,1,1,68,1,"他人","i","",NA,NA,NA,NA,NA,NA,"",NA,"",NA,NA,NA,NA,NA,NA,NA,"",NA,"",NA,NA,NA,NA,NA,NA,NA,"","","",NA,"",NA,NA,NA,NA,NA,NA,NA,"",NA,"22"
"",NA,"",NA,"",NA,NA,NA,NA,NA,NA,"","",1,1,"2024-08-24_10h36.07.815","IAT(Formal)","2021.2.3","Win32",59.88023952,NA,"",NA,"",NA,NA,NA,NA,NA,NA,NA,"","","",NA,"e",1,0.5182,0,2,2,72,1,"我们","e","",NA,NA,NA,NA,NA,NA,"",NA,"",NA,NA,NA,NA,NA,NA,NA,"",NA,"",NA,NA,NA,NA,NA,NA,NA,"","","",NA,"",NA,NA,NA,NA,NA,NA,NA,"",NA,"22"
"",NA,"",NA,"",NA,NA,NA,NA,NA,NA,"","",1,1,"2024-08-24_10h36.07.815","IAT(Formal)","2021.2.3","Win32",59.88023952,NA,"",NA,"",NA,NA,NA,NA,NA,NA,NA,"","","",NA,"e",1,1.1464,0,3,3,26,1,"冷静","e","",NA,NA,NA,NA,NA,NA,"",NA,"",NA,NA,NA,NA,NA,NA,NA,"",NA,"",NA,NA,NA,NA,NA,NA,NA,"","","",NA,"",NA,NA,NA,NA,NA,NA,NA,"",NA,"22"
"",NA,"",NA,"",NA,NA,NA,NA,NA,NA,"","",1,1,"2024-08-24_10h36.07.815","IAT(Formal)","2021.2.3","Win32",59.88023952,NA,"",NA,"",NA,NA,NA,NA,NA,NA,NA,"","","",NA,"e",1,0.5,0,4,4,62,1,"我们","e","",NA,NA,NA,NA,NA,NA,"",NA,"",NA,NA,NA,NA,NA,NA,NA,"",NA,"",NA,NA,NA,NA,NA,NA,NA,"","","",NA,"",NA,NA,NA,NA,NA,NA,NA,"",NA,"22"
"",NA,"",NA,"",NA,NA,NA,NA,NA,NA,"","",1,1,"2024-08-24_10h36.07.815","IAT(Formal)","2021.2.3","Win32",59.88023952,NA,"",NA,"",NA,NA,NA,NA,NA,NA,NA,"","","",NA,"e",1,0.5528,0,5,5,0,1,"我","e","",NA,NA,NA,NA,NA,NA,"",NA,"",NA,NA,NA,NA,NA,NA,NA,"",NA,"",NA,NA,NA,NA,NA,NA,NA,"","","",NA,"",NA,NA,NA,NA,NA,NA,NA,"",NA,"22"
"",NA,"",NA,"",NA,NA,NA,NA,NA,NA,"","",1,1,"2024-08-24_10h36.07.815","IAT(Formal)","2021.2.3","Win32",59.88023952,NA,"",NA,"",NA,NA,NA,NA,NA,NA,NA,"","","",NA,"e",1,0.721,0,6,6,64,1,"俺","e","",NA,NA,NA,NA,NA,NA,"",NA,"",NA,NA,NA,NA,NA,NA,NA,"",NA,"",NA,NA,NA,NA,NA,NA,NA,"","","",NA,"",NA,NA,NA,NA,NA,NA,NA,"",NA,"22"
"",NA,"",NA,"",NA,NA,NA,NA,NA,NA,"","",1,1,"2024-08-24_10h36.07.815","IAT(Formal)","2021.2.3","Win32",59.88023952,NA,"",NA,"",NA,NA,NA,NA,NA,NA,NA,"","","",NA,"i",1,0.623,0,7,7,79,1,"其他","i","",NA,NA,NA,NA,NA,NA,"",NA,"",NA,NA,NA,NA,NA,NA,NA,"",NA,"",NA,NA,NA,NA,NA,NA,NA,"","","",NA,"",NA,NA,NA,NA,NA,NA,NA,"",NA,"22"
"",NA,"",NA,"",NA,NA,NA,NA,NA,NA,"","",1,1,"2024-08-24_10h36.07.815","IAT(Formal)","2021.2.3","Win32",59.88023952,NA,"",NA,"",NA,NA,NA,NA,NA,NA,NA,"","","",NA,"",0,NA,0,8,8,57,1,"他的","i","",NA,NA,NA,NA,NA,NA,"",NA,"",NA,NA,NA,NA,NA,NA,NA,"",NA,"",NA,NA,NA,NA,NA,NA,NA,"","","",NA,"",NA,NA,NA,NA,NA,NA,NA,"",NA,"22"
"",NA,"",NA,"",NA,NA,NA,NA,NA,NA,"","",1,1,"2024-08-24_10h36.07.815","IAT(Formal)","2021.2.3","Win32",59.88023952,NA,"",NA,"",NA,NA,NA,NA,NA,NA,NA,"","","",NA,"e",1,0.6025,0,9,9,28,1,"活泼","e","",NA,NA,NA,NA,NA,NA,"",NA,"",NA,NA,NA,NA,NA,NA,NA,"",NA,"",NA,NA,NA,NA,NA,NA,NA,"","","",NA,"",NA,NA,NA,NA,NA,NA,NA,"",NA,"22"
"",NA,"",NA,"",NA,NA,NA,NA,NA,NA,"","",1,1,"2024-08-24_10h36.07.815","IAT(Formal)","2021.2.3","Win32",59.88023952,NA,"",NA,"",NA,NA,NA,NA,NA,NA,NA,"","","",NA,"i",1,0.7694,0,10,10,42,1,"凶狠","i","",NA,NA,NA,NA,NA,NA,"",NA,"",NA,NA,NA,NA,NA,NA,NA,"",NA,"",NA,NA,NA,NA,NA,NA,NA,"","","",NA,"",NA,NA,NA,NA,NA,NA,NA,"",NA,"22"
"",NA,"",NA,"",NA,NA,NA,NA,NA,NA,"","",1,1,"2024-08-24_10h36.07.815","IAT(Formal)","2021.2.3","Win32",59.88023952,NA,"",NA,"",NA,NA,NA,NA,NA,NA,NA,"","","",NA,"e",1,1.1098,0,11,11,51,1,"我的","e","",NA,NA,NA,NA,NA,NA,"",NA,"",NA,NA,NA,NA,NA,NA,NA,"",NA,"",NA,NA,NA,NA,NA,NA,NA,"","","",NA,"",NA,NA,NA,NA,NA,NA,NA,"",NA,"22"
"",NA,"",NA,"",NA,NA,NA,NA,NA,NA,"","",1,1,"2024-08-24_10h36.07.815","IAT(Formal)","2021.2.3","Win32",59.88023952,NA,"",NA,"",NA,NA,NA,NA,NA,NA,NA,"","","",NA,"i",1,0.8871,0,12,12,39,1,"冒失","i","",NA,NA,NA,NA,NA,NA,"",NA,"",NA,NA,NA,NA,NA,NA,NA,"",NA,"",NA,NA,NA,NA,NA,NA,NA,"","","",NA,"",NA,NA,NA,NA,NA,NA,NA,"",NA,"22"
"",NA,"",NA,"",NA,NA,NA,NA,NA,NA,"","",1,1,"2024-08-24_10h36.07.815","IAT(Formal)","2021.2.3","Win32",59.88023952,NA,"",NA,"",NA,NA,NA,NA,NA,NA,NA,"","","",NA,"i",1,0.6255,0,13,13,45,1,"猖狂","i","",NA,NA,NA,NA,NA,NA,"",NA,"",NA,NA,NA,NA,NA,NA,NA,"",NA,"",NA,NA,NA,NA,NA,NA,NA,"","","",NA,"",NA,NA,NA,NA,NA,NA,NA,"",NA,"22"
"",NA,"",NA,"",NA,NA,NA,NA,NA,NA,"","",1,1,"2024-08-24_10h36.07.815","IAT(Formal)","2021.2.3","Win32",59.88023952,NA,"",NA,"",NA,NA,NA,NA,NA,NA,NA,"","","",NA,"i",1,0.8614,0,14,14,56,1,"他们","i","",NA,NA,NA,NA,NA,NA,"",NA,"",NA,NA,NA,NA,NA,NA,NA,"",NA,"",NA,NA,NA,NA,NA,NA,NA,"","","",NA,"",NA,NA,NA,NA,NA,NA,NA,"",NA,"22"
"",NA,"",NA,"",NA,NA,NA,NA,NA,NA,"","",1,1,"2024-08-24_10h36.07.815","IAT(Formal)","2021.2.3","Win32",59.88023952,NA,"",NA,"",NA,NA,NA,NA,NA,NA,NA,"","","",NA,"e",1,0.7421,0,15,15,25,1,"细腻","e","",NA,NA,NA,NA,NA,NA,"",NA,"",NA,NA,NA,NA,NA,NA,NA,"",NA,"",NA,NA,NA,NA,NA,NA,NA,"","","",NA,"",NA,NA,NA,NA,NA,NA,NA,"",NA,"22"
"",NA,"",NA,"",NA,NA,NA,NA,NA,NA,"","",1,1,"2024-08-24_10h36.07.815","IAT(Formal)","2021.2.3","Win32",59.88023952,NA,"",NA,"",NA,NA,NA,NA,NA,NA,NA,"","","",NA,"e",1,0.55,0,16,16,50,1,"我","e","",NA,NA,NA,NA,NA,NA,"",NA,"",NA,NA,NA,NA,NA,NA,NA,"",NA,"",NA,NA,NA,NA,NA,NA,NA,"","","",NA,"",NA,NA,NA,NA,NA,NA,NA,"",NA,"22"
"",NA,"",NA,"",NA,NA,NA,NA,NA,NA,"","",1,1,"2024-08-24_10h36.07.815","IAT(Formal)","2021.2.3","Win32",59.88023952,NA,"",NA,"",NA,NA,NA,NA,NA,NA,NA,"","","",NA,"e",1,0.5753,0,17,17,61,1,"我的","e","",NA,NA,NA,NA,NA,NA,"",NA,"",NA,NA,NA,NA,NA,NA,NA,"",NA,"",NA,NA,NA,NA,NA,NA,NA,"","","",NA,"",NA,NA,NA,NA,NA,NA,NA,"",NA,"22"
"",NA,"",NA,"",NA,NA,NA,NA,NA,NA,"","",1,1,"2024-08-24_10h36.07.815","IAT(Formal)","2021.2.3","Win32",59.88023952,NA,"",NA,"",NA,NA,NA,NA,NA,NA,NA,"","","",NA,"e",1,0.4761,0,18,18,71,1,"我的","e","",NA,NA,NA,NA,NA,NA,"",NA,"",NA,NA,NA,NA,NA,NA,NA,"",NA,"",NA,NA,NA,NA,NA,NA,NA,"","","",NA,"",NA,NA,NA,NA,NA,NA,NA,"",NA,"22"
"",NA,"",NA,"",NA,NA,NA,NA,NA,NA,"","",1,1,"2024-08-24_10h36.07.815","IAT(Formal)","2021.2.3","Win32",59.88023952,NA,"",NA,"",NA,NA,NA,NA,NA,NA,NA,"","","",NA,"e",1,0.5757,0,19,19,1,1,"我的","e","",NA,NA,NA,NA,NA,NA,"",NA,"",NA,NA,NA,NA,NA,NA,NA,"",NA,"",NA,NA,NA,NA,NA,NA,NA,"","","",NA,"",NA,NA,NA,NA,NA,NA,NA,"",NA,"22"
"",NA,"",NA,"",NA,NA,NA,NA,NA,NA,"","",1,1,"2024-08-24_10h36.07.815","IAT(Formal)","2021.2.3","Win32",59.88023952,NA,"",NA,"",NA,NA,NA,NA,NA,NA,NA,"","","",NA,"e",1,0.5112,0,20,20,2,1,"我们","e","",NA,NA,NA,NA,NA,NA,"",NA,"",NA,NA,NA,NA,NA,NA,NA,"",NA,"",NA,NA,NA,NA,NA,NA,NA,"","","",NA,"",NA,NA,NA,NA,NA,NA,NA,"",NA,"22"
"",NA,"",NA,"",NA,NA,NA,NA,NA,NA,"","",1,1,"2024-08-24_10h36.07.815","IAT(Formal)","2021.2.3","Win32",59.88023952,NA,"",NA,"",NA,NA,NA,NA,NA,NA,NA,"","","",NA,"",0,NA,0,21,21,58,1,"他人","i","",NA,NA,NA,NA,NA,NA,"",NA,"",NA,NA,NA,NA,NA,NA,NA,"",NA,"",NA,NA,NA,NA,NA,NA,NA,"","","",NA,"",NA,NA,NA,NA,NA,NA,NA,"",NA,"22"
"",NA,"",NA,"",NA,NA,NA,NA,NA,NA,"","",1,1,"2024-08-24_10h36.07.815","IAT(Formal)","2021.2.3","Win32",59.88023952,NA,"",NA,"",NA,NA,NA,NA,NA,NA,NA,"","","",NA,"e",1,0.652,0,22,22,16,1,"正直","e","",NA,NA,NA,NA,NA,NA,"",NA,"",NA,NA,NA,NA,NA,NA,NA,"",NA,"",NA,NA,NA,NA,NA,NA,NA,"","","",NA,"",NA,NA,NA,NA,NA,NA,NA,"",NA,"22"
"",NA,"",NA,"",NA,NA,NA,NA,NA,NA,"","",1,1,"2024-08-24_10h36.07.815","IAT(Formal)","2021.2.3","Win32",59.88023952,NA,"",NA,"",NA,NA,NA,NA,NA,NA,NA,"","","",NA,"i",1,0.7771,0,23,23,37,1,"傲慢","i","",NA,NA,NA,NA,NA,NA,"",NA,"",NA,NA,NA,NA,NA,NA,NA,"",NA,"",NA,NA,NA,NA,NA,NA,NA,"","","",NA,"",NA,NA,NA,NA,NA,NA,NA,"",NA,"22"
"",NA,"",NA,"",NA,NA,NA,NA,NA,NA,"","",1,1,"2024-08-24_10h36.07.815","IAT(Formal)","2021.2.3","Win32",59.88023952,NA,"",NA,"",NA,NA,NA,NA,NA,NA,NA,"","","",NA,"e",1,0.5075,0,24,24,54,1,"俺","e","",NA,NA,NA,NA,NA,NA,"",NA,"",NA,NA,NA,NA,NA,NA,NA,"",NA,"",NA,NA,NA,NA,NA,NA,NA,"","","",NA,"",NA,NA,NA,NA,NA,NA,NA,"",NA,"22"
"",NA,"",NA,"",NA,NA,NA,NA,NA,NA,"","",1,1,"2024-08-24_10h36.07.815","IAT(Formal)","2021.2.3","Win32",59.88023952,NA,"",NA,"",NA,NA,NA,NA,NA,NA,NA,"","","",NA,"e",1,0.6006,0,25,25,22,1,"无私","e","",NA,NA,NA,NA,NA,NA,"",NA,"",NA,NA,NA,NA,NA,NA,NA,"",NA,"",NA,NA,NA,NA,NA,NA,NA,"","","",NA,"",NA,NA,NA,NA,NA,NA,NA,"",NA,"22"
"",NA,"",NA,"",NA,NA,NA,NA,NA,NA,"","",1,1,"2024-08-24_10h36.07.815","IAT(Formal)","2021.2.3","Win32",59.88023952,NA,"",NA,"",NA,NA,NA,NA,NA,NA,NA,"","","",NA,"i",1,1.0518,0,26,26,76,1,"他们","i","",NA,NA,NA,NA,NA,NA,"",NA,"",NA,NA,NA,NA,NA,NA,NA,"",NA,"",NA,NA,NA,NA,NA,NA,NA,"","","",NA,"",NA,NA,NA,NA,NA,NA,NA,"",NA,"22"
"",NA,"",NA,"",NA,NA,NA,NA,NA,NA,"","",1,1,"2024-08-24_10h36.07.815","IAT(Formal)","2021.2.3","Win32",59.88023952,NA,"",NA,"",NA,NA,NA,NA,NA,NA,NA,"","","",NA,"i",1,0.722,0,27,27,34,1,"悲观","i","",NA,NA,NA,NA,NA,NA,"",NA,"",NA,NA,NA,NA,NA,NA,NA,"",NA,"",NA,NA,NA,NA,NA,NA,NA,"","","",NA,"",NA,NA,NA,NA,NA,NA,NA,"",NA,"22"
"",NA,"",NA,"",NA,NA,NA,NA,NA,NA,"","",1,1,"2024-08-24_10h36.07.815","IAT(Formal)","2021.2.3","Win32",59.88023952,NA,"",NA,"",NA,NA,NA,NA,NA,NA,NA,"","","",NA,"e",1,0.5945,0,28,28,24,1,"朴实","e","",NA,NA,NA,NA,NA,NA,"",NA,"",NA,NA,NA,NA,NA,NA,NA,"",NA,"",NA,NA,NA,NA,NA,NA,NA,"","","",NA,"",NA,NA,NA,NA,NA,NA,NA,"",NA,"22"
"",NA,"",NA,"",NA,NA,NA,NA,NA,NA,"","",1,1,"2024-08-24_10h36.07.815","IAT(Formal)","2021.2.3","Win32",59.88023952,NA,"",NA,"",NA,NA,NA,NA,NA,NA,NA,"","","",NA,"e",1,0.6262,0,29,29,60,1,"我","e","",NA,NA,NA,NA,NA,NA,"",NA,"",NA,NA,NA,NA,NA,NA,NA,"",NA,"",NA,NA,NA,NA,NA,NA,NA,"","","",NA,"",NA,NA,NA,NA,NA,NA,NA,"",NA,"22"
"",NA,"",NA,"",NA,NA,NA,NA,NA,NA,"","",1,1,"2024-08-24_10h36.07.815","IAT(Formal)","2021.2.3","Win32",59.88023952,NA,"",NA,"",NA,NA,NA,NA,NA,NA,NA,"","","",NA,"i",1,0.7118,0,30,30,66,1,"他们","i","",NA,NA,NA,NA,NA,NA,"",NA,"",NA,NA,NA,NA,NA,NA,NA,"",NA,"",NA,NA,NA,NA,NA,NA,NA,"","","",NA,"",NA,NA,NA,NA,NA,NA,NA,"",NA,"22"
"",NA,"",NA,"",NA,NA,NA,NA,NA,NA,"","",1,1,"2024-08-24_10h36.07.815","IAT(Formal)","2021.2.3","Win32",59.88023952,NA,"",NA,"",NA,NA,NA,NA,NA,NA,NA,"","","",NA,"i",1,0.7877,0,31,31,59,1,"其他","i","",NA,NA,NA,NA,NA,NA,"",NA,"",NA,NA,NA,NA,NA,NA,NA,"",NA,"",NA,NA,NA,NA,NA,NA,NA,"","","",NA,"",NA,NA,NA,NA,NA,NA,NA,"",NA,"22"
"",NA,"",NA,"",NA,NA,NA,NA,NA,NA,"","",1,1,"2024-08-24_10h36.07.815","IAT(Formal)","2021.2.3","Win32",59.88023952,NA,"",NA,"",NA,NA,NA,NA,NA,NA,NA,"","","",NA,"i",1,0.6921,0,32,32,9,1,"其他","i","",NA,NA,NA,NA,NA,NA,"",NA,"",NA,NA,NA,NA,NA,NA,NA,"",NA,"",NA,NA,NA,NA,NA,NA,NA,"","","",NA,"",NA,NA,NA,NA,NA,NA,NA,"",NA,"22"
"",NA,"",NA,"",NA,NA,NA,NA,NA,NA,"","",1,1,"2024-08-24_10h36.07.815","IAT(Formal)","2021.2.3","Win32",59.88023952,NA,"",NA,"",NA,NA,NA,NA,NA,NA,NA,"","","",NA,"e",1,0.6597,0,33,33,14,1,"乐观","e","",NA,NA,NA,NA,NA,NA,"",NA,"",NA,NA,NA,NA,NA,NA,NA,"",NA,"",NA,NA,NA,NA,NA,NA,NA,"","","",NA,"",NA,NA,NA,NA,NA,NA,NA,"",NA,"22"
"",NA,"",NA,"",NA,NA,NA,NA,NA,NA,"","",1,1,"2024-08-24_10h36.07.815","IAT(Formal)","2021.2.3","Win32",59.88023952,NA,"",NA,"",NA,NA,NA,NA,NA,NA,NA,"","","",NA,"e",1,1.0739,0,34,34,74,1,"俺","e","",NA,NA,NA,NA,NA,NA,"",NA,"",NA,NA,NA,NA,NA,NA,NA,"",NA,"",NA,NA,NA,NA,NA,NA,NA,"","","",NA,"",NA,NA,NA,NA,NA,NA,NA,"",NA,"22"
"",NA,"",NA,"",NA,NA,NA,NA,NA,NA,"","",1,1,"2024-08-24_10h36.07.815","IAT(Formal)","2021.2.3","Win32",59.88023952,NA,"",NA,"",NA,NA,NA,NA,NA,NA,NA,"","","",NA,"e",0,0.492,0,35,35,77,1,"他的","i","",NA,NA,NA,NA,NA,NA,"",NA,"",NA,NA,NA,NA,NA,NA,NA,"",NA,"",NA,NA,NA,NA,NA,NA,NA,"","","",NA,"",NA,NA,NA,NA,NA,NA,NA,"",NA,"22"
"",NA,"",NA,"",NA,NA,NA,NA,NA,NA,"","",1,1,"2024-08-24_10h36.07.815","IAT(Formal)","2021.2.3","Win32",59.88023952,NA,"",NA,"",NA,NA,NA,NA,NA,NA,NA,"","","",NA,"i",1,0.8349,0,36,36,48,1,"轻率","i","",NA,NA,NA,NA,NA,NA,"",NA,"",NA,NA,NA,NA,NA,NA,NA,"",NA,"",NA,NA,NA,NA,NA,NA,NA,"","","",NA,"",NA,NA,NA,NA,NA,NA,NA,"",NA,"22"
"",NA,"",NA,"",NA,NA,NA,NA,NA,NA,"","",1,1,"2024-08-24_10h36.07.815","IAT(Formal)","2021.2.3","Win32",59.88023952,NA,"",NA,"",NA,NA,NA,NA,NA,NA,NA,"","","",NA,"i",1,1.4002,0,37,37,31,1,"虚伪","i","",NA,NA,NA,NA,NA,NA,"",NA,"",NA,NA,NA,NA,NA,NA,NA,"",NA,"",NA,NA,NA,NA,NA,NA,NA,"","","",NA,"",NA,NA,NA,NA,NA,NA,NA,"",NA,"22"
"",NA,"",NA,"",NA,NA,NA,NA,NA,NA,"","",1,1,"2024-08-24_10h36.07.815","IAT(Formal)","2021.2.3","Win32",59.88023952,NA,"",NA,"",NA,NA,NA,NA,NA,NA,NA,"","","",NA,"i",1,1.4115,0,38,38,32,1,"愚蠢","i","",NA,NA,NA,NA,NA,NA,"",NA,"",NA,NA,NA,NA,NA,NA,NA,"",NA,"",NA,NA,NA,NA,NA,NA,NA,"","","",NA,"",NA,NA,NA,NA,NA,NA,NA,"",NA,"22"
"",NA,"",NA,"",NA,NA,NA,NA,NA,NA,"","",1,1,"2024-08-24_10h36.07.815","IAT(Formal)","2021.2.3","Win32",59.88023952,NA,"",NA,"",NA,NA,NA,NA,NA,NA,NA,"","","",NA,"e",1,0.7673,0,39,39,53,1,"自己","e","",NA,NA,NA,NA,NA,NA,"",NA,"",NA,NA,NA,NA,NA,NA,NA,"",NA,"",NA,NA,NA,NA,NA,NA,NA,"","","",NA,"",NA,NA,NA,NA,NA,NA,NA,"",NA,"22"
"",NA,"",NA,"",NA,NA,NA,NA,NA,NA,"","",1,1,"2024-08-24_10h36.07.815","IAT(Formal)","2021.2.3","Win32",59.88023952,NA,"",NA,"",NA,NA,NA,NA,NA,NA,NA,"","","",NA,"i",1,0.6908,0,40,40,6,1,"他们","i","",NA,NA,NA,NA,NA,NA,"",NA,"",NA,NA,NA,NA,NA,NA,NA,"",NA,"",NA,NA,NA,NA,NA,NA,NA,"","","",NA,"",NA,NA,NA,NA,NA,NA,NA,"",NA,"22"
"",NA,"",NA,"",NA,NA,NA,NA,NA,NA,"","",1,1,"2024-08-24_10h36.07.815","IAT(Formal)","2021.2.3","Win32",59.88023952,NA,"",NA,"",NA,NA,NA,NA,NA,NA,NA,"","","",NA,"e",1,0.608,0,41,41,4,1,"俺","e","",NA,NA,NA,NA,NA,NA,"",NA,"",NA,NA,NA,NA,NA,NA,NA,"",NA,"",NA,NA,NA,NA,NA,NA,NA,"","","",NA,"",NA,NA,NA,NA,NA,NA,NA,"",NA,"22"
"",NA,"",NA,"",NA,NA,NA,NA,NA,NA,"","",1,1,"2024-08-24_10h36.07.815","IAT(Formal)","2021.2.3","Win32",59.88023952,NA,"",NA,"",NA,NA,NA,NA,NA,NA,NA,"","","",NA,"e",0,0.5815,0,42,42,55,1,"他","i","",NA,NA,NA,NA,NA,NA,"",NA,"",NA,NA,NA,NA,NA,NA,NA,"",NA,"",NA,NA,NA,NA,NA,NA,NA,"","","",NA,"",NA,NA,NA,NA,NA,NA,NA,"",NA,"22"
"",NA,"",NA,"",NA,NA,NA,NA,NA,NA,"","",1,1,"2024-08-24_10h36.07.815","IAT(Formal)","2021.2.3","Win32",59.88023952,NA,"",NA,"",NA,NA,NA,NA,NA,NA,NA,"","","",NA,"i",1,0.826,0,43,43,36,1,"自卑","i","",NA,NA,NA,NA,NA,NA,"",NA,"",NA,NA,NA,NA,NA,NA,NA,"",NA,"",NA,NA,NA,NA,NA,NA,NA,"","","",NA,"",NA,NA,NA,NA,NA,NA,NA,"",NA,"22"
"",NA,"",NA,"",NA,NA,NA,NA,NA,NA,"","",1,1,"2024-08-24_10h36.07.815","IAT(Formal)","2021.2.3","Win32",59.88023952,NA,"",NA,"",NA,NA,NA,NA,NA,NA,NA,"","","",NA,"e",1,0.7011,0,44,44,19,1,"机智","e","",NA,NA,NA,NA,NA,NA,"",NA,"",NA,NA,NA,NA,NA,NA,NA,"",NA,"",NA,NA,NA,NA,NA,NA,NA,"","","",NA,"",NA,NA,NA,NA,NA,NA,NA,"",NA,"22"
"",NA,"",NA,"",NA,NA,NA,NA,NA,NA,"","",1,1,"2024-08-24_10h36.07.815","IAT(Formal)","2021.2.3","Win32",59.88023952,NA,"",NA,"",NA,NA,NA,NA,NA,NA,NA,"","","",NA,"e",1,0.7776,0,45,45,13,1,"杰出","e","",NA,NA,NA,NA,NA,NA,"",NA,"",NA,NA,NA,NA,NA,NA,NA,"",NA,"",NA,NA,NA,NA,NA,NA,NA,"","","",NA,"",NA,NA,NA,NA,NA,NA,NA,"",NA,"22"
"",NA,"",NA,"",NA,NA,NA,NA,NA,NA,"","",1,1,"2024-08-24_10h36.07.815","IAT(Formal)","2021.2.3","Win32",59.88023952,NA,"",NA,"",NA,NA,NA,NA,NA,NA,NA,"","","",NA,"i",1,0.915,0,46,46,30,1,"卑鄙","i","",NA,NA,NA,NA,NA,NA,"",NA,"",NA,NA,NA,NA,NA,NA,NA,"",NA,"",NA,NA,NA,NA,NA,NA,NA,"","","",NA,"",NA,NA,NA,NA,NA,NA,NA,"",NA,"22"
"",NA,"",NA,"",NA,NA,NA,NA,NA,NA,"","",1,1,"2024-08-24_10h36.07.815","IAT(Formal)","2021.2.3","Win32",59.88023952,NA,"",NA,"",NA,NA,NA,NA,NA,NA,NA,"","","",NA,"e",1,1.06,0,47,47,20,1,"认真","e","",NA,NA,NA,NA,NA,NA,"",NA,"",NA,NA,NA,NA,NA,NA,NA,"",NA,"",NA,NA,NA,NA,NA,NA,NA,"","","",NA,"",NA,NA,NA,NA,NA,NA,NA,"",NA,"22"
"",NA,"",NA,"",NA,NA,NA,NA,NA,NA,"","",1,1,"2024-08-24_10h36.07.815","IAT(Formal)","2021.2.3","Win32",59.88023952,NA,"",NA,"",NA,NA,NA,NA,NA,NA,NA,"","","",NA,"e",1,1.1817,0,48,48,21,1,"稳重","e","",NA,NA,NA,NA,NA,NA,"",NA,"",NA,NA,NA,NA,NA,NA,NA,"",NA,"",NA,NA,NA,NA,NA,NA,NA,"","","",NA,"",NA,NA,NA,NA,NA,NA,NA,"",NA,"22"
"",NA,"",NA,"",NA,NA,NA,NA,NA,NA,"","",1,1,"2024-08-24_10h36.07.815","IAT(Formal)","2021.2.3","Win32",59.88023952,NA,"",NA,"",NA,NA,NA,NA,NA,NA,NA,"","","",NA,"e",1,1.4276,0,49,49,70,1,"我","e","",NA,NA,NA,NA,NA,NA,"",NA,"",NA,NA,NA,NA,NA,NA,NA,"",NA,"",NA,NA,NA,NA,NA,NA,NA,"","","",NA,"",NA,NA,NA,NA,NA,NA,NA,"",NA,"22"
"",NA,"",NA,"",NA,NA,NA,NA,NA,NA,"","",1,1,"2024-08-24_10h36.07.815","IAT(Formal)","2021.2.3","Win32",59.88023952,NA,"",NA,"",NA,NA,NA,NA,NA,NA,NA,"","","",NA,"",0,NA,0,50,50,15,1,"诚实","e","",NA,NA,NA,NA,NA,NA,"",NA,"",NA,NA,NA,NA,NA,NA,NA,"",NA,"",NA,NA,NA,NA,NA,NA,NA,"","","",NA,"",NA,NA,NA,NA,NA,NA,NA,"",NA,"22"
"",NA,"",NA,"",NA,NA,NA,NA,NA,NA,"","",1,1,"2024-08-24_10h36.07.815","IAT(Formal)","2021.2.3","Win32",59.88023952,NA,"",NA,"",NA,NA,NA,NA,NA,NA,NA,"","","",NA,"e",1,0.5731,0,51,51,17,1,"勇敢","e","",NA,NA,NA,NA,NA,NA,"",NA,"",NA,NA,NA,NA,NA,NA,NA,"",NA,"",NA,NA,NA,NA,NA,NA,NA,"","","",NA,"",NA,NA,NA,NA,NA,NA,NA,"",NA,"22"
"",NA,"",NA,"",NA,NA,NA,NA,NA,NA,"","",1,1,"2024-08-24_10h36.07.815","IAT(Formal)","2021.2.3","Win32",59.88023952,NA,"",NA,"",NA,NA,NA,NA,NA,NA,NA,"","","",NA,"i",1,0.6957,0,52,52,75,1,"他","i","",NA,NA,NA,NA,NA,NA,"",NA,"",NA,NA,NA,NA,NA,NA,NA,"",NA,"",NA,NA,NA,NA,NA,NA,NA,"","","",NA,"",NA,NA,NA,NA,NA,NA,NA,"",NA,"22"
"",NA,"",NA,"",NA,NA,NA,NA,NA,NA,"","",1,1,"2024-08-24_10h36.07.815","IAT(Formal)","2021.2.3","Win32",59.88023952,NA,"",NA,"",NA,NA,NA,NA,NA,NA,NA,"","","",NA,"i",1,0.601,0,53,53,8,1,"他人","i","",NA,NA,NA,NA,NA,NA,"",NA,"",NA,NA,NA,NA,NA,NA,NA,"",NA,"",NA,NA,NA,NA,NA,NA,NA,"","","",NA,"",NA,NA,NA,NA,NA,NA,NA,"",NA,"22"
"",NA,"",NA,"",NA,NA,NA,NA,NA,NA,"","",1,1,"2024-08-24_10h36.07.815","IAT(Formal)","2021.2.3","Win32",59.88023952,NA,"",NA,"",NA,NA,NA,NA,NA,NA,NA,"","","",NA,"i",1,0.5017,0,54,54,5,1,"他","i","",NA,NA,NA,NA,NA,NA,"",NA,"",NA,NA,NA,NA,NA,NA,NA,"",NA,"",NA,NA,NA,NA,NA,NA,NA,"","","",NA,"",NA,NA,NA,NA,NA,NA,NA,"",NA,"22"
"",NA,"",NA,"",NA,NA,NA,NA,NA,NA,"","",1,1,"2024-08-24_10h36.07.815","IAT(Formal)","2021.2.3","Win32",59.88023952,NA,"",NA,"",NA,NA,NA,NA,NA,NA,NA,"","","",NA,"e",1,0.9783,0,55,55,11,1,"崇高","e","",NA,NA,NA,NA,NA,NA,"",NA,"",NA,NA,NA,NA,NA,NA,NA,"",NA,"",NA,NA,NA,NA,NA,NA,NA,"","","",NA,"",NA,NA,NA,NA,NA,NA,NA,"",NA,"22"
"",NA,"",NA,"",NA,NA,NA,NA,NA,NA,"","",1,1,"2024-08-24_10h36.07.815","IAT(Formal)","2021.2.3","Win32",59.88023952,NA,"",NA,"",NA,NA,NA,NA,NA,NA,NA,"","","",NA,"i",1,0.6508,0,56,56,67,1,"他的","i","",NA,NA,NA,NA,NA,NA,"",NA,"",NA,NA,NA,NA,NA,NA,NA,"",NA,"",NA,NA,NA,NA,NA,NA,NA,"","","",NA,"",NA,NA,NA,NA,NA,NA,NA,"",NA,"22"
"",NA,"",NA,"",NA,NA,NA,NA,NA,NA,"","",1,1,"2024-08-24_10h36.07.815","IAT(Formal)","2021.2.3","Win32",59.88023952,NA,"",NA,"",NA,NA,NA,NA,NA,NA,NA,"","","",NA,"i",1,0.7262,0,57,57,40,1,"执拗","i","",NA,NA,NA,NA,NA,NA,"",NA,"",NA,NA,NA,NA,NA,NA,NA,"",NA,"",NA,NA,NA,NA,NA,NA,NA,"","","",NA,"",NA,NA,NA,NA,NA,NA,NA,"",NA,"22"
"",NA,"",NA,"",NA,NA,NA,NA,NA,NA,"","",1,1,"2024-08-24_10h36.07.815","IAT(Formal)","2021.2.3","Win32",59.88023952,NA,"",NA,"",NA,NA,NA,NA,NA,NA,NA,"","","",NA,"e",1,1.3355,0,58,58,3,1,"自己","e","",NA,NA,NA,NA,NA,NA,"",NA,"",NA,NA,NA,NA,NA,NA,NA,"",NA,"",NA,NA,NA,NA,NA,NA,NA,"","","",NA,"",NA,NA,NA,NA,NA,NA,NA,"",NA,"22"
"",NA,"",NA,"",NA,NA,NA,NA,NA,NA,"","",1,1,"2024-08-24_10h36.07.815","IAT(Formal)","2021.2.3","Win32",59.88023952,NA,"",NA,"",NA,NA,NA,NA,NA,NA,NA,"","","",NA,"e",1,1.145,0,59,59,52,1,"我们","e","",NA,NA,NA,NA,NA,NA,"",NA,"",NA,NA,NA,NA,NA,NA,NA,"",NA,"",NA,NA,NA,NA,NA,NA,NA,"","","",NA,"",NA,NA,NA,NA,NA,NA,NA,"",NA,"22"
"",NA,"",NA,"",NA,NA,NA,NA,NA,NA,"","",1,1,"2024-08-24_10h36.07.815","IAT(Formal)","2021.2.3","Win32",59.88023952,NA,"",NA,"",NA,NA,NA,NA,NA,NA,NA,"","","",NA,"e",1,0.5592,0,60,60,27,1,"热情","e","",NA,NA,NA,NA,NA,NA,"",NA,"",NA,NA,NA,NA,NA,NA,NA,"",NA,"",NA,NA,NA,NA,NA,NA,NA,"","","",NA,"",NA,NA,NA,NA,NA,NA,NA,"",NA,"22"
"",NA,"",NA,"",NA,NA,NA,NA,NA,NA,"","",1,1,"2024-08-24_10h36.07.815","IAT(Formal)","2021.2.3","Win32",59.88023952,NA,"",NA,"",NA,NA,NA,NA,NA,NA,NA,"","","",NA,"i",1,0.77,0,61,61,78,1,"他人","i","",NA,NA,NA,NA,NA,NA,"",NA,"",NA,NA,NA,NA,NA,NA,NA,"",NA,"",NA,NA,NA,NA,NA,NA,NA,"","","",NA,"",NA,NA,NA,NA,NA,NA,NA,"",NA,"22"
"",NA,"",NA,"",NA,NA,NA,NA,NA,NA,"","",1,1,"2024-08-24_10h36.07.815","IAT(Formal)","2021.2.3","Win32",59.88023952,NA,"",NA,"",NA,NA,NA,NA,NA,NA,NA,"","","",NA,"i",1,0.7559,0,62,62,41,1,"散漫","i","",NA,NA,NA,NA,NA,NA,"",NA,"",NA,NA,NA,NA,NA,NA,NA,"",NA,"",NA,NA,NA,NA,NA,NA,NA,"","","",NA,"",NA,NA,NA,NA,NA,NA,NA,"",NA,"22"
"",NA,"",NA,"",NA,NA,NA,NA,NA,NA,"","",1,1,"2024-08-24_10h36.07.815","IAT(Formal)","2021.2.3","Win32",59.88023952,NA,"",NA,"",NA,NA,NA,NA,NA,NA,NA,"","","",NA,"i",1,1.313,0,63,63,46,1,"野蛮","i","",NA,NA,NA,NA,NA,NA,"",NA,"",NA,NA,NA,NA,NA,NA,NA,"",NA,"",NA,NA,NA,NA,NA,NA,NA,"","","",NA,"",NA,NA,NA,NA,NA,NA,NA,"",NA,"22"
"",NA,"",NA,"",NA,NA,NA,NA,NA,NA,"","",1,1,"2024-08-24_10h36.07.815","IAT(Formal)","2021.2.3","Win32",59.88023952,NA,"",NA,"",NA,NA,NA,NA,NA,NA,NA,"","","",NA,"",0,NA,0,64,64,18,1,"勤奋","e","",NA,NA,NA,NA,NA,NA,"",NA,"",NA,NA,NA,NA,NA,NA,NA,"",NA,"",NA,NA,NA,NA,NA,NA,NA,"","","",NA,"",NA,NA,NA,NA,NA,NA,NA,"",NA,"22"
"",NA,"",NA,"",NA,NA,NA,NA,NA,NA,"","",1,1,"2024-08-24_10h36.07.815","IAT(Formal)","2021.2.3","Win32",59.88023952,NA,"",NA,"",NA,NA,NA,NA,NA,NA,NA,"","","",NA,"i",1,0.6678,0,65,65,47,1,"固执","i","",NA,NA,NA,NA,NA,NA,"",NA,"",NA,NA,NA,NA,NA,NA,NA,"",NA,"",NA,NA,NA,NA,NA,NA,NA,"","","",NA,"",NA,NA,NA,NA,NA,NA,NA,"",NA,"22"
"",NA,"",NA,"",NA,NA,NA,NA,NA,NA,"","",1,1,"2024-08-24_10h36.07.815","IAT(Formal)","2021.2.3","Win32",59.88023952,NA,"",NA,"",NA,NA,NA,NA,NA,NA,NA,"","","",NA,"i",1,0.6858,0,66,66,44,1,"暴躁","i","",NA,NA,NA,NA,NA,NA,"",NA,"",NA,NA,NA,NA,NA,NA,NA,"",NA,"",NA,NA,NA,NA,NA,NA,NA,"","","",NA,"",NA,NA,NA,NA,NA,NA,NA,"",NA,"22"
"",NA,"",NA,"",NA,NA,NA,NA,NA,NA,"","",1,1,"2024-08-24_10h36.07.815","IAT(Formal)","2021.2.3","Win32",59.88023952,NA,"",NA,"",NA,NA,NA,NA,NA,NA,NA,"","","",NA,"e",1,0.6576,0,67,67,23,1,"公正","e","",NA,NA,NA,NA,NA,NA,"",NA,"",NA,NA,NA,NA,NA,NA,NA,"",NA,"",NA,NA,NA,NA,NA,NA,NA,"","","",NA,"",NA,NA,NA,NA,NA,NA,NA,"",NA,"22"
"",NA,"",NA,"",NA,NA,NA,NA,NA,NA,"","",1,1,"2024-08-24_10h36.07.815","IAT(Formal)","2021.2.3","Win32",59.88023952,NA,"",NA,"",NA,NA,NA,NA,NA,NA,NA,"","","",NA,"i",1,0.7608,0,68,68,38,1,"鲁莽","i","",NA,NA,NA,NA,NA,NA,"",NA,"",NA,NA,NA,NA,NA,NA,NA,"",NA,"",NA,NA,NA,NA,NA,NA,NA,"","","",NA,"",NA,NA,NA,NA,NA,NA,NA,"",NA,"22"
"",NA,"",NA,"",NA,NA,NA,NA,NA,NA,"","",1,1,"2024-08-24_10h36.07.815","IAT(Formal)","2021.2.3","Win32",59.88023952,NA,"",NA,"",NA,NA,NA,NA,NA,NA,NA,"","","",NA,"i",1,0.9865,0,69,69,69,1,"其他","i","",NA,NA,NA,NA,NA,NA,"",NA,"",NA,NA,NA,NA,NA,NA,NA,"",NA,"",NA,NA,NA,NA,NA,NA,NA,"","","",NA,"",NA,NA,NA,NA,NA,NA,NA,"",NA,"22"
"",NA,"",NA,"",NA,NA,NA,NA,NA,NA,"","",1,1,"2024-08-24_10h36.07.815","IAT(Formal)","2021.2.3","Win32",59.88023952,NA,"",NA,"",NA,NA,NA,NA,NA,NA,NA,"","","",NA,"e",1,0.561,0,70,70,10,1,"优秀","e","",NA,NA,NA,NA,NA,NA,"",NA,"",NA,NA,NA,NA,NA,NA,NA,"",NA,"",NA,NA,NA,NA,NA,NA,NA,"","","",NA,"",NA,NA,NA,NA,NA,NA,NA,"",NA,"22"
"",NA,"",NA,"",NA,NA,NA,NA,NA,NA,"","",1,1,"2024-08-24_10h36.07.815","IAT(Formal)","2021.2.3","Win32",59.88023952,NA,"",NA,"",NA,NA,NA,NA,NA,NA,NA,"","","",NA,"e",1,0.6805,0,71,71,63,1,"自己","e","",NA,NA,NA,NA,NA,NA,"",NA,"",NA,NA,NA,NA,NA,NA,NA,"",NA,"",NA,NA,NA,NA,NA,NA,NA,"","","",NA,"",NA,NA,NA,NA,NA,NA,NA,"",NA,"22"
"",NA,"",NA,"",NA,NA,NA,NA,NA,NA,"","",1,1,"2024-08-24_10h36.07.815","IAT(Formal)","2021.2.3","Win32",59.88023952,NA,"",NA,"",NA,NA,NA,NA,NA,NA,NA,"","","",NA,"e",1,0.7313,0,72,72,12,1,"聪明","e","",NA,NA,NA,NA,NA,NA,"",NA,"",NA,NA,NA,NA,NA,NA,NA,"",NA,"",NA,NA,NA,NA,NA,NA,NA,"","","",NA,"",NA,NA,NA,NA,NA,NA,NA,"",NA,"22"
"",NA,"",NA,"",NA,NA,NA,NA,NA,NA,"","",1,1,"2024-08-24_10h36.07.815","IAT(Formal)","2021.2.3","Win32",59.88023952,NA,"",NA,"",NA,NA,NA,NA,NA,NA,NA,"","","",NA,"i",1,0.9253,0,73,73,33,1,"刻薄","i","",NA,NA,NA,NA,NA,NA,"",NA,"",NA,NA,NA,NA,NA,NA,NA,"",NA,"",NA,NA,NA,NA,NA,NA,NA,"","","",NA,"",NA,NA,NA,NA,NA,NA,NA,"",NA,"22"
"",NA,"",NA,"",NA,NA,NA,NA,NA,NA,"","",1,1,"2024-08-24_10h36.07.815","IAT(Formal)","2021.2.3","Win32",59.88023952,NA,"",NA,"",NA,NA,NA,NA,NA,NA,NA,"","","",NA,"e",0,0.6033,0,74,74,7,1,"他的","i","",NA,NA,NA,NA,NA,NA,"",NA,"",NA,NA,NA,NA,NA,NA,NA,"",NA,"",NA,NA,NA,NA,NA,NA,NA,"","","",NA,"",NA,NA,NA,NA,NA,NA,NA,"",NA,"22"
"",NA,"",NA,"",NA,NA,NA,NA,NA,NA,"","",1,1,"2024-08-24_10h36.07.815","IAT(Formal)","2021.2.3","Win32",59.88023952,NA,"",NA,"",NA,NA,NA,NA,NA,NA,NA,"","","",NA,"i",1,0.9032,0,75,75,43,1,"自私","i","",NA,NA,NA,NA,NA,NA,"",NA,"",NA,NA,NA,NA,NA,NA,NA,"",NA,"",NA,NA,NA,NA,NA,NA,NA,"","","",NA,"",NA,NA,NA,NA,NA,NA,NA,"",NA,"22"
"",NA,"",NA,"",NA,NA,NA,NA,NA,NA,"","",1,1,"2024-08-24_10h36.07.815","IAT(Formal)","2021.2.3","Win32",59.88023952,NA,"",NA,"",NA,NA,NA,NA,NA,NA,NA,"","","",NA,"i",1,0.6441,0,76,76,65,1,"他","i","",NA,NA,NA,NA,NA,NA,"",NA,"",NA,NA,NA,NA,NA,NA,NA,"",NA,"",NA,NA,NA,NA,NA,NA,NA,"","","",NA,"",NA,NA,NA,NA,NA,NA,NA,"",NA,"22"
"",NA,"",NA,"",NA,NA,NA,NA,NA,NA,"","",1,1,"2024-08-24_10h36.07.815","IAT(Formal)","2021.2.3","Win32",59.88023952,NA,"",NA,"",NA,NA,NA,NA,NA,NA,NA,"","","",NA,"i",1,0.6383,0,77,77,35,1,"消极","i","",NA,NA,NA,NA,NA,NA,"",NA,"",NA,NA,NA,NA,NA,NA,NA,"",NA,"",NA,NA,NA,NA,NA,NA,NA,"","","",NA,"",NA,NA,NA,NA,NA,NA,NA,"",NA,"22"
"",NA,"",NA,"",NA,NA,NA,NA,NA,NA,"","",1,1,"2024-08-24_10h36.07.815","IAT(Formal)","2021.2.3","Win32",59.88023952,NA,"",NA,"",NA,NA,NA,NA,NA,NA,NA,"","","",NA,"e",1,1.1059,0,78,78,73,1,"自己","e","",NA,NA,NA,NA,NA,NA,"",NA,"",NA,NA,NA,NA,NA,NA,NA,"",NA,"",NA,NA,NA,NA,NA,NA,NA,"","","",NA,"",NA,NA,NA,NA,NA,NA,NA,"",NA,"22"
"",NA,"",NA,"",NA,NA,NA,NA,NA,NA,"","",1,1,"2024-08-24_10h36.07.815","IAT(Formal)","2021.2.3","Win32",59.88023952,NA,"",NA,"",NA,NA,NA,NA,NA,NA,NA,"","","",NA,"",0,NA,0,79,79,29,1,"诚恳","e","",NA,NA,NA,NA,NA,NA,"",NA,"",NA,NA,NA,NA,NA,NA,NA,"",NA,"",NA,NA,NA,NA,NA,NA,NA,"","","",NA,"",NA,NA,NA,NA,NA,NA,NA,"",NA,"22"
"",NA,"",NA,"",NA,NA,NA,NA,NA,NA,"","",1,1,"2024-08-24_10h36.07.815","IAT(Formal)","2021.2.3","Win32",59.88023952,NA,"",NA,"",NA,NA,NA,NA,NA,NA,NA,"","","",NA,"e",1,0.9607,NA,NA,NA,NA,NA,"自己","e","space",16.1868,0,0,0,63,1,"",NA,"",NA,NA,NA,NA,NA,NA,NA,"",NA,"",NA,NA,NA,NA,NA,NA,NA,"","","",NA,"",NA,NA,NA,NA,NA,NA,NA,"",NA,"22"
"",NA,"",NA,"",NA,NA,NA,NA,NA,NA,"","",1,1,"2024-08-24_10h36.07.815","IAT(Formal)","2021.2.3","Win32",59.88023952,NA,"",NA,"",NA,NA,NA,NA,NA,NA,NA,"","","",NA,"e",1,0.4564,NA,NA,NA,NA,NA,"杰出","e","",NA,0,1,1,13,1,"",NA,"",NA,NA,NA,NA,NA,NA,NA,"",NA,"",NA,NA,NA,NA,NA,NA,NA,"","","",NA,"",NA,NA,NA,NA,NA,NA,NA,"",NA,"22"
"",NA,"",NA,"",NA,NA,NA,NA,NA,NA,"","",1,1,"2024-08-24_10h36.07.815","IAT(Formal)","2021.2.3","Win32",59.88023952,NA,"",NA,"",NA,NA,NA,NA,NA,NA,NA,"","","",NA,"i",1,0.9901,NA,NA,NA,NA,NA,"轻率","i","",NA,0,2,2,48,1,"",NA,"",NA,NA,NA,NA,NA,NA,NA,"",NA,"",NA,NA,NA,NA,NA,NA,NA,"","","",NA,"",NA,NA,NA,NA,NA,NA,NA,"",NA,"22"
"",NA,"",NA,"",NA,NA,NA,NA,NA,NA,"","",1,1,"2024-08-24_10h36.07.815","IAT(Formal)","2021.2.3","Win32",59.88023952,NA,"",NA,"",NA,NA,NA,NA,NA,NA,NA,"","","",NA,"i",1,0.7234,NA,NA,NA,NA,NA,"悲观","i","",NA,0,3,3,34,1,"",NA,"",NA,NA,NA,NA,NA,NA,NA,"",NA,"",NA,NA,NA,NA,NA,NA,NA,"","","",NA,"",NA,NA,NA,NA,NA,NA,NA,"",NA,"22"
"",NA,"",NA,"",NA,NA,NA,NA,NA,NA,"","",1,1,"2024-08-24_10h36.07.815","IAT(Formal)","2021.2.3","Win32",59.88023952,NA,"",NA,"",NA,NA,NA,NA,NA,NA,NA,"","","",NA,"i",1,0.8008,NA,NA,NA,NA,NA,"他人","i","",NA,0,4,4,58,1,"",NA,"",NA,NA,NA,NA,NA,NA,NA,"",NA,"",NA,NA,NA,NA,NA,NA,NA,"","","",NA,"",NA,NA,NA,NA,NA,NA,NA,"",NA,"22"
"",NA,"",NA,"",NA,NA,NA,NA,NA,NA,"","",1,1,"2024-08-24_10h36.07.815","IAT(Formal)","2021.2.3","Win32",59.88023952,NA,"",NA,"",NA,NA,NA,NA,NA,NA,NA,"","","",NA,"i",1,0.6498,NA,NA,NA,NA,NA,"他人","i","",NA,0,5,5,8,1,"",NA,"",NA,NA,NA,NA,NA,NA,NA,"",NA,"",NA,NA,NA,NA,NA,NA,NA,"","","",NA,"",NA,NA,NA,NA,NA,NA,NA,"",NA,"22"
"",NA,"",NA,"",NA,NA,NA,NA,NA,NA,"","",1,1,"2024-08-24_10h36.07.815","IAT(Formal)","2021.2.3","Win32",59.88023952,NA,"",NA,"",NA,NA,NA,NA,NA,NA,NA,"","","",NA,"e",1,0.6167,NA,NA,NA,NA,NA,"机智","e","",NA,0,6,6,19,1,"",NA,"",NA,NA,NA,NA,NA,NA,NA,"",NA,"",NA,NA,NA,NA,NA,NA,NA,"","","",NA,"",NA,NA,NA,NA,NA,NA,NA,"",NA,"22"
"",NA,"",NA,"",NA,NA,NA,NA,NA,NA,"","",1,1,"2024-08-24_10h36.07.815","IAT(Formal)","2021.2.3","Win32",59.88023952,NA,"",NA,"",NA,NA,NA,NA,NA,NA,NA,"","","",NA,"e",1,0.6189,NA,NA,NA,NA,NA,"我们","e","",NA,0,7,7,62,1,"",NA,"",NA,NA,NA,NA,NA,NA,NA,"",NA,"",NA,NA,NA,NA,NA,NA,NA,"","","",NA,"",NA,NA,NA,NA,NA,NA,NA,"",NA,"22"
"",NA,"",NA,"",NA,NA,NA,NA,NA,NA,"","",1,1,"2024-08-24_10h36.07.815","IAT(Formal)","2021.2.3","Win32",59.88023952,NA,"",NA,"",NA,NA,NA,NA,NA,NA,NA,"","","",NA,"i",1,0.9949,NA,NA,NA,NA,NA,"执拗","i","",NA,0,8,8,40,1,"",NA,"",NA,NA,NA,NA,NA,NA,NA,"",NA,"",NA,NA,NA,NA,NA,NA,NA,"","","",NA,"",NA,NA,NA,NA,NA,NA,NA,"",NA,"22"
"",NA,"",NA,"",NA,NA,NA,NA,NA,NA,"","",1,1,"2024-08-24_10h36.07.815","IAT(Formal)","2021.2.3","Win32",59.88023952,NA,"",NA,"",NA,NA,NA,NA,NA,NA,NA,"","","",NA,"i",1,0.5478,NA,NA,NA,NA,NA,"凶狠","i","",NA,0,9,9,42,1,"",NA,"",NA,NA,NA,NA,NA,NA,NA,"",NA,"",NA,NA,NA,NA,NA,NA,NA,"","","",NA,"",NA,NA,NA,NA,NA,NA,NA,"",NA,"22"
"",NA,"",NA,"",NA,NA,NA,NA,NA,NA,"","",1,1,"2024-08-24_10h36.07.815","IAT(Formal)","2021.2.3","Win32",59.88023952,NA,"",NA,"",NA,NA,NA,NA,NA,NA,NA,"","","",NA,"e",1,0.9739,NA,NA,NA,NA,NA,"俺","e","",NA,0,10,10,74,1,"",NA,"",NA,NA,NA,NA,NA,NA,NA,"",NA,"",NA,NA,NA,NA,NA,NA,NA,"","","",NA,"",NA,NA,NA,NA,NA,NA,NA,"",NA,"22"
"",NA,"",NA,"",NA,NA,NA,NA,NA,NA,"","",1,1,"2024-08-24_10h36.07.815","IAT(Formal)","2021.2.3","Win32",59.88023952,NA,"",NA,"",NA,NA,NA,NA,NA,NA,NA,"","","",NA,"e",1,0.8273,NA,NA,NA,NA,NA,"俺","e","",NA,0,11,11,54,1,"",NA,"",NA,NA,NA,NA,NA,NA,NA,"",NA,"",NA,NA,NA,NA,NA,NA,NA,"","","",NA,"",NA,NA,NA,NA,NA,NA,NA,"",NA,"22"
"",NA,"",NA,"",NA,NA,NA,NA,NA,NA,"","",1,1,"2024-08-24_10h36.07.815","IAT(Formal)","2021.2.3","Win32",59.88023952,NA,"",NA,"",NA,NA,NA,NA,NA,NA,NA,"","","",NA,"i",1,0.7707,NA,NA,NA,NA,NA,"野蛮","i","",NA,0,12,12,46,1,"",NA,"",NA,NA,NA,NA,NA,NA,NA,"",NA,"",NA,NA,NA,NA,NA,NA,NA,"","","",NA,"",NA,NA,NA,NA,NA,NA,NA,"",NA,"22"
"",NA,"",NA,"",NA,NA,NA,NA,NA,NA,"","",1,1,"2024-08-24_10h36.07.815","IAT(Formal)","2021.2.3","Win32",59.88023952,NA,"",NA,"",NA,NA,NA,NA,NA,NA,NA,"","","",NA,"e",1,1.0166,NA,NA,NA,NA,NA,"诚恳","e","",NA,0,13,13,29,1,"",NA,"",NA,NA,NA,NA,NA,NA,NA,"",NA,"",NA,NA,NA,NA,NA,NA,NA,"","","",NA,"",NA,NA,NA,NA,NA,NA,NA,"",NA,"22"
"",NA,"",NA,"",NA,NA,NA,NA,NA,NA,"","",1,1,"2024-08-24_10h36.07.815","IAT(Formal)","2021.2.3","Win32",59.88023952,NA,"",NA,"",NA,NA,NA,NA,NA,NA,NA,"","","",NA,"i",1,0.6776,NA,NA,NA,NA,NA,"消极","i","",NA,0,14,14,35,1,"",NA,"",NA,NA,NA,NA,NA,NA,NA,"",NA,"",NA,NA,NA,NA,NA,NA,NA,"","","",NA,"",NA,NA,NA,NA,NA,NA,NA,"",NA,"22"
"",NA,"",NA,"",NA,NA,NA,NA,NA,NA,"","",1,1,"2024-08-24_10h36.07.815","IAT(Formal)","2021.2.3","Win32",59.88023952,NA,"",NA,"",NA,NA,NA,NA,NA,NA,NA,"","","",NA,"e",1,0.8362,NA,NA,NA,NA,NA,"我的","e","",NA,0,15,15,1,1,"",NA,"",NA,NA,NA,NA,NA,NA,NA,"",NA,"",NA,NA,NA,NA,NA,NA,NA,"","","",NA,"",NA,NA,NA,NA,NA,NA,NA,"",NA,"22"
"",NA,"",NA,"",NA,NA,NA,NA,NA,NA,"","",1,1,"2024-08-24_10h36.07.815","IAT(Formal)","2021.2.3","Win32",59.88023952,NA,"",NA,"",NA,NA,NA,NA,NA,NA,NA,"","","",NA,"e",1,0.5853,NA,NA,NA,NA,NA,"我的","e","",NA,0,16,16,51,1,"",NA,"",NA,NA,NA,NA,NA,NA,NA,"",NA,"",NA,NA,NA,NA,NA,NA,NA,"","","",NA,"",NA,NA,NA,NA,NA,NA,NA,"",NA,"22"
"",NA,"",NA,"",NA,NA,NA,NA,NA,NA,"","",1,1,"2024-08-24_10h36.07.815","IAT(Formal)","2021.2.3","Win32",59.88023952,NA,"",NA,"",NA,NA,NA,NA,NA,NA,NA,"","","",NA,"i",1,0.6754,NA,NA,NA,NA,NA,"他的","i","",NA,0,17,17,77,1,"",NA,"",NA,NA,NA,NA,NA,NA,NA,"",NA,"",NA,NA,NA,NA,NA,NA,NA,"","","",NA,"",NA,NA,NA,NA,NA,NA,NA,"",NA,"22"
"",NA,"",NA,"",NA,NA,NA,NA,NA,NA,"","",1,1,"2024-08-24_10h36.07.815","IAT(Formal)","2021.2.3","Win32",59.88023952,NA,"",NA,"",NA,NA,NA,NA,NA,NA,NA,"","","",NA,"e",1,0.9504,NA,NA,NA,NA,NA,"无私","e","",NA,0,18,18,22,1,"",NA,"",NA,NA,NA,NA,NA,NA,NA,"",NA,"",NA,NA,NA,NA,NA,NA,NA,"","","",NA,"",NA,NA,NA,NA,NA,NA,NA,"",NA,"22"
"",NA,"",NA,"",NA,NA,NA,NA,NA,NA,"","",1,1,"2024-08-24_10h36.07.815","IAT(Formal)","2021.2.3","Win32",59.88023952,NA,"",NA,"",NA,NA,NA,NA,NA,NA,NA,"","","",NA,"e",1,0.8287,NA,NA,NA,NA,NA,"热情","e","",NA,0,19,19,27,1,"",NA,"",NA,NA,NA,NA,NA,NA,NA,"",NA,"",NA,NA,NA,NA,NA,NA,NA,"","","",NA,"",NA,NA,NA,NA,NA,NA,NA,"",NA,"22"
"",NA,"",NA,"",NA,NA,NA,NA,NA,NA,"","",1,1,"2024-08-24_10h36.07.815","IAT(Formal)","2021.2.3","Win32",59.88023952,NA,"",NA,"",NA,NA,NA,NA,NA,NA,NA,"","","",NA,"i",1,0.7511,NA,NA,NA,NA,NA,"卑鄙","i","",NA,0,20,20,30,1,"",NA,"",NA,NA,NA,NA,NA,NA,NA,"",NA,"",NA,NA,NA,NA,NA,NA,NA,"","","",NA,"",NA,NA,NA,NA,NA,NA,NA,"",NA,"22"
"",NA,"",NA,"",NA,NA,NA,NA,NA,NA,"","",1,1,"2024-08-24_10h36.07.815","IAT(Formal)","2021.2.3","Win32",59.88023952,NA,"",NA,"",NA,NA,NA,NA,NA,NA,NA,"","","",NA,"e",1,0.7348,NA,NA,NA,NA,NA,"认真","e","",NA,0,21,21,20,1,"",NA,"",NA,NA,NA,NA,NA,NA,NA,"",NA,"",NA,NA,NA,NA,NA,NA,NA,"","","",NA,"",NA,NA,NA,NA,NA,NA,NA,"",NA,"22"
"",NA,"",NA,"",NA,NA,NA,NA,NA,NA,"","",1,1,"2024-08-24_10h36.07.815","IAT(Formal)","2021.2.3","Win32",59.88023952,NA,"",NA,"",NA,NA,NA,NA,NA,NA,NA,"","","",NA,"i",1,0.9047,NA,NA,NA,NA,NA,"他人","i","",NA,0,22,22,68,1,"",NA,"",NA,NA,NA,NA,NA,NA,NA,"",NA,"",NA,NA,NA,NA,NA,NA,NA,"","","",NA,"",NA,NA,NA,NA,NA,NA,NA,"",NA,"22"
"",NA,"",NA,"",NA,NA,NA,NA,NA,NA,"","",1,1,"2024-08-24_10h36.07.815","IAT(Formal)","2021.2.3","Win32",59.88023952,NA,"",NA,"",NA,NA,NA,NA,NA,NA,NA,"","","",NA,"e",1,0.8809,NA,NA,NA,NA,NA,"自己","e","",NA,0,23,23,53,1,"",NA,"",NA,NA,NA,NA,NA,NA,NA,"",NA,"",NA,NA,NA,NA,NA,NA,NA,"","","",NA,"",NA,NA,NA,NA,NA,NA,NA,"",NA,"22"
"",NA,"",NA,"",NA,NA,NA,NA,NA,NA,"","",1,1,"2024-08-24_10h36.07.815","IAT(Formal)","2021.2.3","Win32",59.88023952,NA,"",NA,"",NA,NA,NA,NA,NA,NA,NA,"","","",NA,"e",1,0.9553,NA,NA,NA,NA,NA,"稳重","e","",NA,0,24,24,21,1,"",NA,"",NA,NA,NA,NA,NA,NA,NA,"",NA,"",NA,NA,NA,NA,NA,NA,NA,"","","",NA,"",NA,NA,NA,NA,NA,NA,NA,"",NA,"22"
"",NA,"",NA,"",NA,NA,NA,NA,NA,NA,"","",1,1,"2024-08-24_10h36.07.815","IAT(Formal)","2021.2.3","Win32",59.88023952,NA,"",NA,"",NA,NA,NA,NA,NA,NA,NA,"","","",NA,"e",1,0.6559,NA,NA,NA,NA,NA,"崇高","e","",NA,0,25,25,11,1,"",NA,"",NA,NA,NA,NA,NA,NA,NA,"",NA,"",NA,NA,NA,NA,NA,NA,NA,"","","",NA,"",NA,NA,NA,NA,NA,NA,NA,"",NA,"22"
"",NA,"",NA,"",NA,NA,NA,NA,NA,NA,"","",1,1,"2024-08-24_10h36.07.815","IAT(Formal)","2021.2.3","Win32",59.88023952,NA,"",NA,"",NA,NA,NA,NA,NA,NA,NA,"","","",NA,"i",1,0.7517,NA,NA,NA,NA,NA,"他","i","",NA,0,26,26,5,1,"",NA,"",NA,NA,NA,NA,NA,NA,NA,"",NA,"",NA,NA,NA,NA,NA,NA,NA,"","","",NA,"",NA,NA,NA,NA,NA,NA,NA,"",NA,"22"
"",NA,"",NA,"",NA,NA,NA,NA,NA,NA,"","",1,1,"2024-08-24_10h36.07.815","IAT(Formal)","2021.2.3","Win32",59.88023952,NA,"",NA,"",NA,NA,NA,NA,NA,NA,NA,"","","",NA,"e",1,0.7267,NA,NA,NA,NA,NA,"我的","e","",NA,0,27,27,61,1,"",NA,"",NA,NA,NA,NA,NA,NA,NA,"",NA,"",NA,NA,NA,NA,NA,NA,NA,"","","",NA,"",NA,NA,NA,NA,NA,NA,NA,"",NA,"22"
"",NA,"",NA,"",NA,NA,NA,NA,NA,NA,"","",1,1,"2024-08-24_10h36.07.815","IAT(Formal)","2021.2.3","Win32",59.88023952,NA,"",NA,"",NA,NA,NA,NA,NA,NA,NA,"","","",NA,"i",1,0.8222,NA,NA,NA,NA,NA,"他们","i","",NA,0,28,28,66,1,"",NA,"",NA,NA,NA,NA,NA,NA,NA,"",NA,"",NA,NA,NA,NA,NA,NA,NA,"","","",NA,"",NA,NA,NA,NA,NA,NA,NA,"",NA,"22"
"",NA,"",NA,"",NA,NA,NA,NA,NA,NA,"","",1,1,"2024-08-24_10h36.07.815","IAT(Formal)","2021.2.3","Win32",59.88023952,NA,"",NA,"",NA,NA,NA,NA,NA,NA,NA,"","","",NA,"e",1,0.8383,NA,NA,NA,NA,NA,"我的","e","",NA,0,29,29,71,1,"",NA,"",NA,NA,NA,NA,NA,NA,NA,"",NA,"",NA,NA,NA,NA,NA,NA,NA,"","","",NA,"",NA,NA,NA,NA,NA,NA,NA,"",NA,"22"
"",NA,"",NA,"",NA,NA,NA,NA,NA,NA,"","",1,1,"2024-08-24_10h36.07.815","IAT(Formal)","2021.2.3","Win32",59.88023952,NA,"",NA,"",NA,NA,NA,NA,NA,NA,NA,"","","",NA,"e",1,0.6857,NA,NA,NA,NA,NA,"自己","e","",NA,0,30,30,73,1,"",NA,"",NA,NA,NA,NA,NA,NA,NA,"",NA,"",NA,NA,NA,NA,NA,NA,NA,"","","",NA,"",NA,NA,NA,NA,NA,NA,NA,"",NA,"22"
"",NA,"",NA,"",NA,NA,NA,NA,NA,NA,"","",1,1,"2024-08-24_10h36.07.815","IAT(Formal)","2021.2.3","Win32",59.88023952,NA,"",NA,"",NA,NA,NA,NA,NA,NA,NA,"","","",NA,"i",1,0.806,NA,NA,NA,NA,NA,"他们","i","",NA,0,31,31,76,1,"",NA,"",NA,NA,NA,NA,NA,NA,NA,"",NA,"",NA,NA,NA,NA,NA,NA,NA,"","","",NA,"",NA,NA,NA,NA,NA,NA,NA,"",NA,"22"
"",NA,"",NA,"",NA,NA,NA,NA,NA,NA,"","",1,1,"2024-08-24_10h36.07.815","IAT(Formal)","2021.2.3","Win32",59.88023952,NA,"",NA,"",NA,NA,NA,NA,NA,NA,NA,"","","",NA,"i",1,1.381,NA,NA,NA,NA,NA,"他们","i","",NA,0,32,32,56,1,"",NA,"",NA,NA,NA,NA,NA,NA,NA,"",NA,"",NA,NA,NA,NA,NA,NA,NA,"","","",NA,"",NA,NA,NA,NA,NA,NA,NA,"",NA,"22"
"",NA,"",NA,"",NA,NA,NA,NA,NA,NA,"","",1,1,"2024-08-24_10h36.07.815","IAT(Formal)","2021.2.3","Win32",59.88023952,NA,"",NA,"",NA,NA,NA,NA,NA,NA,NA,"","","",NA,"e",1,0.8575,NA,NA,NA,NA,NA,"细腻","e","",NA,0,33,33,25,1,"",NA,"",NA,NA,NA,NA,NA,NA,NA,"",NA,"",NA,NA,NA,NA,NA,NA,NA,"","","",NA,"",NA,NA,NA,NA,NA,NA,NA,"",NA,"22"
"",NA,"",NA,"",NA,NA,NA,NA,NA,NA,"","",1,1,"2024-08-24_10h36.07.815","IAT(Formal)","2021.2.3","Win32",59.88023952,NA,"",NA,"",NA,NA,NA,NA,NA,NA,NA,"","","",NA,"e",1,1.4283,NA,NA,NA,NA,NA,"诚实","e","",NA,0,34,34,15,1,"",NA,"",NA,NA,NA,NA,NA,NA,NA,"",NA,"",NA,NA,NA,NA,NA,NA,NA,"","","",NA,"",NA,NA,NA,NA,NA,NA,NA,"",NA,"22"
"",NA,"",NA,"",NA,NA,NA,NA,NA,NA,"","",1,1,"2024-08-24_10h36.07.815","IAT(Formal)","2021.2.3","Win32",59.88023952,NA,"",NA,"",NA,NA,NA,NA,NA,NA,NA,"","","",NA,"e",0,1.1668,NA,NA,NA,NA,NA,"他","i","",NA,0,35,35,55,1,"",NA,"",NA,NA,NA,NA,NA,NA,NA,"",NA,"",NA,NA,NA,NA,NA,NA,NA,"","","",NA,"",NA,NA,NA,NA,NA,NA,NA,"",NA,"22"
"",NA,"",NA,"",NA,NA,NA,NA,NA,NA,"","",1,1,"2024-08-24_10h36.07.815","IAT(Formal)","2021.2.3","Win32",59.88023952,NA,"",NA,"",NA,NA,NA,NA,NA,NA,NA,"","","",NA,"i",1,0.7432,NA,NA,NA,NA,NA,"其他","i","",NA,0,36,36,59,1,"",NA,"",NA,NA,NA,NA,NA,NA,NA,"",NA,"",NA,NA,NA,NA,NA,NA,NA,"","","",NA,"",NA,NA,NA,NA,NA,NA,NA,"",NA,"22"
"",NA,"",NA,"",NA,NA,NA,NA,NA,NA,"","",1,1,"2024-08-24_10h36.07.815","IAT(Formal)","2021.2.3","Win32",59.88023952,NA,"",NA,"",NA,NA,NA,NA,NA,NA,NA,"","","",NA,"e",1,0.9848,NA,NA,NA,NA,NA,"乐观","e","",NA,0,37,37,14,1,"",NA,"",NA,NA,NA,NA,NA,NA,NA,"",NA,"",NA,NA,NA,NA,NA,NA,NA,"","","",NA,"",NA,NA,NA,NA,NA,NA,NA,"",NA,"22"
"",NA,"",NA,"",NA,NA,NA,NA,NA,NA,"","",1,1,"2024-08-24_10h36.07.815","IAT(Formal)","2021.2.3","Win32",59.88023952,NA,"",NA,"",NA,NA,NA,NA,NA,NA,NA,"","","",NA,"e",1,0.7789,NA,NA,NA,NA,NA,"朴实","e","",NA,0,38,38,24,1,"",NA,"",NA,NA,NA,NA,NA,NA,NA,"",NA,"",NA,NA,NA,NA,NA,NA,NA,"","","",NA,"",NA,NA,NA,NA,NA,NA,NA,"",NA,"22"
"",NA,"",NA,"",NA,NA,NA,NA,NA,NA,"","",1,1,"2024-08-24_10h36.07.815","IAT(Formal)","2021.2.3","Win32",59.88023952,NA,"",NA,"",NA,NA,NA,NA,NA,NA,NA,"","","",NA,"e",1,0.5845,NA,NA,NA,NA,NA,"优秀","e","",NA,0,39,39,10,1,"",NA,"",NA,NA,NA,NA,NA,NA,NA,"",NA,"",NA,NA,NA,NA,NA,NA,NA,"","","",NA,"",NA,NA,NA,NA,NA,NA,NA,"",NA,"22"
"",NA,"",NA,"",NA,NA,NA,NA,NA,NA,"","",1,1,"2024-08-24_10h36.07.815","IAT(Formal)","2021.2.3","Win32",59.88023952,NA,"",NA,"",NA,NA,NA,NA,NA,NA,NA,"","","",NA,"i",1,0.5631,NA,NA,NA,NA,NA,"他的","i","",NA,0,40,40,67,1,"",NA,"",NA,NA,NA,NA,NA,NA,NA,"",NA,"",NA,NA,NA,NA,NA,NA,NA,"","","",NA,"",NA,NA,NA,NA,NA,NA,NA,"",NA,"22"
"",NA,"",NA,"",NA,NA,NA,NA,NA,NA,"","",1,1,"2024-08-24_10h36.07.815","IAT(Formal)","2021.2.3","Win32",59.88023952,NA,"",NA,"",NA,NA,NA,NA,NA,NA,NA,"","","",NA,"e",1,0.6415,NA,NA,NA,NA,NA,"我们","e","",NA,0,41,41,72,1,"",NA,"",NA,NA,NA,NA,NA,NA,NA,"",NA,"",NA,NA,NA,NA,NA,NA,NA,"","","",NA,"",NA,NA,NA,NA,NA,NA,NA,"",NA,"22"
"",NA,"",NA,"",NA,NA,NA,NA,NA,NA,"","",1,1,"2024-08-24_10h36.07.815","IAT(Formal)","2021.2.3","Win32",59.88023952,NA,"",NA,"",NA,NA,NA,NA,NA,NA,NA,"","","",NA,"i",1,1.353,NA,NA,NA,NA,NA,"固执","i","",NA,0,42,42,47,1,"",NA,"",NA,NA,NA,NA,NA,NA,NA,"",NA,"",NA,NA,NA,NA,NA,NA,NA,"","","",NA,"",NA,NA,NA,NA,NA,NA,NA,"",NA,"22"
"",NA,"",NA,"",NA,NA,NA,NA,NA,NA,"","",1,1,"2024-08-24_10h36.07.815","IAT(Formal)","2021.2.3","Win32",59.88023952,NA,"",NA,"",NA,NA,NA,NA,NA,NA,NA,"","","",NA,"i",1,1.3242,NA,NA,NA,NA,NA,"他们","i","",NA,0,43,43,6,1,"",NA,"",NA,NA,NA,NA,NA,NA,NA,"",NA,"",NA,NA,NA,NA,NA,NA,NA,"","","",NA,"",NA,NA,NA,NA,NA,NA,NA,"",NA,"22"
"",NA,"",NA,"",NA,NA,NA,NA,NA,NA,"","",1,1,"2024-08-24_10h36.07.815","IAT(Formal)","2021.2.3","Win32",59.88023952,NA,"",NA,"",NA,NA,NA,NA,NA,NA,NA,"","","",NA,"i",1,0.761,NA,NA,NA,NA,NA,"其他","i","",NA,0,44,44,79,1,"",NA,"",NA,NA,NA,NA,NA,NA,NA,"",NA,"",NA,NA,NA,NA,NA,NA,NA,"","","",NA,"",NA,NA,NA,NA,NA,NA,NA,"",NA,"22"
"",NA,"",NA,"",NA,NA,NA,NA,NA,NA,"","",1,1,"2024-08-24_10h36.07.815","IAT(Formal)","2021.2.3","Win32",59.88023952,NA,"",NA,"",NA,NA,NA,NA,NA,NA,NA,"","","",NA,"i",1,0.7076,NA,NA,NA,NA,NA,"愚蠢","i","",NA,0,45,45,32,1,"",NA,"",NA,NA,NA,NA,NA,NA,NA,"",NA,"",NA,NA,NA,NA,NA,NA,NA,"","","",NA,"",NA,NA,NA,NA,NA,NA,NA,"",NA,"22"
"",NA,"",NA,"",NA,NA,NA,NA,NA,NA,"","",1,1,"2024-08-24_10h36.07.815","IAT(Formal)","2021.2.3","Win32",59.88023952,NA,"",NA,"",NA,NA,NA,NA,NA,NA,NA,"","","",NA,"i",1,1.3459,NA,NA,NA,NA,NA,"他的","i","",NA,0,46,46,7,1,"",NA,"",NA,NA,NA,NA,NA,NA,NA,"",NA,"",NA,NA,NA,NA,NA,NA,NA,"","","",NA,"",NA,NA,NA,NA,NA,NA,NA,"",NA,"22"
"",NA,"",NA,"",NA,NA,NA,NA,NA,NA,"","",1,1,"2024-08-24_10h36.07.815","IAT(Formal)","2021.2.3","Win32",59.88023952,NA,"",NA,"",NA,NA,NA,NA,NA,NA,NA,"","","",NA,"i",1,0.7945,NA,NA,NA,NA,NA,"自私","i","",NA,0,47,47,43,1,"",NA,"",NA,NA,NA,NA,NA,NA,NA,"",NA,"",NA,NA,NA,NA,NA,NA,NA,"","","",NA,"",NA,NA,NA,NA,NA,NA,NA,"",NA,"22"
"",NA,"",NA,"",NA,NA,NA,NA,NA,NA,"","",1,1,"2024-08-24_10h36.07.815","IAT(Formal)","2021.2.3","Win32",59.88023952,NA,"",NA,"",NA,NA,NA,NA,NA,NA,NA,"","","",NA,"i",1,0.5423,NA,NA,NA,NA,NA,"鲁莽","i","",NA,0,48,48,38,1,"",NA,"",NA,NA,NA,NA,NA,NA,NA,"",NA,"",NA,NA,NA,NA,NA,NA,NA,"","","",NA,"",NA,NA,NA,NA,NA,NA,NA,"",NA,"22"
"",NA,"",NA,"",NA,NA,NA,NA,NA,NA,"","",1,1,"2024-08-24_10h36.07.815","IAT(Formal)","2021.2.3","Win32",59.88023952,NA,"",NA,"",NA,NA,NA,NA,NA,NA,NA,"","","",NA,"i",0,0.9241,NA,NA,NA,NA,NA,"冷静","e","",NA,0,49,49,26,1,"",NA,"",NA,NA,NA,NA,NA,NA,NA,"",NA,"",NA,NA,NA,NA,NA,NA,NA,"","","",NA,"",NA,NA,NA,NA,NA,NA,NA,"",NA,"22"
"",NA,"",NA,"",NA,NA,NA,NA,NA,NA,"","",1,1,"2024-08-24_10h36.07.815","IAT(Formal)","2021.2.3","Win32",59.88023952,NA,"",NA,"",NA,NA,NA,NA,NA,NA,NA,"","","",NA,"i",1,0.7559,NA,NA,NA,NA,NA,"他的","i","",NA,0,50,50,57,1,"",NA,"",NA,NA,NA,NA,NA,NA,NA,"",NA,"",NA,NA,NA,NA,NA,NA,NA,"","","",NA,"",NA,NA,NA,NA,NA,NA,NA,"",NA,"22"
"",NA,"",NA,"",NA,NA,NA,NA,NA,NA,"","",1,1,"2024-08-24_10h36.07.815","IAT(Formal)","2021.2.3","Win32",59.88023952,NA,"",NA,"",NA,NA,NA,NA,NA,NA,NA,"","","",NA,"e",1,0.598,NA,NA,NA,NA,NA,"我们","e","",NA,0,51,51,52,1,"",NA,"",NA,NA,NA,NA,NA,NA,NA,"",NA,"",NA,NA,NA,NA,NA,NA,NA,"","","",NA,"",NA,NA,NA,NA,NA,NA,NA,"",NA,"22"
"",NA,"",NA,"",NA,NA,NA,NA,NA,NA,"","",1,1,"2024-08-24_10h36.07.815","IAT(Formal)","2021.2.3","Win32",59.88023952,NA,"",NA,"",NA,NA,NA,NA,NA,NA,NA,"","","",NA,"i",1,0.8518,NA,NA,NA,NA,NA,"他","i","",NA,0,52,52,75,1,"",NA,"",NA,NA,NA,NA,NA,NA,NA,"",NA,"",NA,NA,NA,NA,NA,NA,NA,"","","",NA,"",NA,NA,NA,NA,NA,NA,NA,"",NA,"22"
"",NA,"",NA,"",NA,NA,NA,NA,NA,NA,"","",1,1,"2024-08-24_10h36.07.815","IAT(Formal)","2021.2.3","Win32",59.88023952,NA,"",NA,"",NA,NA,NA,NA,NA,NA,NA,"","","",NA,"e",1,0.7224,NA,NA,NA,NA,NA,"我","e","",NA,0,53,53,50,1,"",NA,"",NA,NA,NA,NA,NA,NA,NA,"",NA,"",NA,NA,NA,NA,NA,NA,NA,"","","",NA,"",NA,NA,NA,NA,NA,NA,NA,"",NA,"22"
"",NA,"",NA,"",NA,NA,NA,NA,NA,NA,"","",1,1,"2024-08-24_10h36.07.815","IAT(Formal)","2021.2.3","Win32",59.88023952,NA,"",NA,"",NA,NA,NA,NA,NA,NA,NA,"","","",NA,"e",1,0.7498,NA,NA,NA,NA,NA,"自己","e","",NA,0,54,54,3,1,"",NA,"",NA,NA,NA,NA,NA,NA,NA,"",NA,"",NA,NA,NA,NA,NA,NA,NA,"","","",NA,"",NA,NA,NA,NA,NA,NA,NA,"",NA,"22"
"",NA,"",NA,"",NA,NA,NA,NA,NA,NA,"","",1,1,"2024-08-24_10h36.07.815","IAT(Formal)","2021.2.3","Win32",59.88023952,NA,"",NA,"",NA,NA,NA,NA,NA,NA,NA,"","","",NA,"i",1,0.9595,NA,NA,NA,NA,NA,"刻薄","i","",NA,0,55,55,33,1,"",NA,"",NA,NA,NA,NA,NA,NA,NA,"",NA,"",NA,NA,NA,NA,NA,NA,NA,"","","",NA,"",NA,NA,NA,NA,NA,NA,NA,"",NA,"22"
"",NA,"",NA,"",NA,NA,NA,NA,NA,NA,"","",1,1,"2024-08-24_10h36.07.815","IAT(Formal)","2021.2.3","Win32",59.88023952,NA,"",NA,"",NA,NA,NA,NA,NA,NA,NA,"","","",NA,"",0,NA,NA,NA,NA,NA,NA,"勤奋","e","",NA,0,56,56,18,1,"",NA,"",NA,NA,NA,NA,NA,NA,NA,"",NA,"",NA,NA,NA,NA,NA,NA,NA,"","","",NA,"",NA,NA,NA,NA,NA,NA,NA,"",NA,"22"
"",NA,"",NA,"",NA,NA,NA,NA,NA,NA,"","",1,1,"2024-08-24_10h36.07.815","IAT(Formal)","2021.2.3","Win32",59.88023952,NA,"",NA,"",NA,NA,NA,NA,NA,NA,NA,"","","",NA,"e",1,0.7041,NA,NA,NA,NA,NA,"俺","e","",NA,0,57,57,4,1,"",NA,"",NA,NA,NA,NA,NA,NA,NA,"",NA,"",NA,NA,NA,NA,NA,NA,NA,"","","",NA,"",NA,NA,NA,NA,NA,NA,NA,"",NA,"22"
"",NA,"",NA,"",NA,NA,NA,NA,NA,NA,"","",1,1,"2024-08-24_10h36.07.815","IAT(Formal)","2021.2.3","Win32",59.88023952,NA,"",NA,"",NA,NA,NA,NA,NA,NA,NA,"","","",NA,"i",1,0.6419,NA,NA,NA,NA,NA,"虚伪","i","",NA,0,58,58,31,1,"",NA,"",NA,NA,NA,NA,NA,NA,NA,"",NA,"",NA,NA,NA,NA,NA,NA,NA,"","","",NA,"",NA,NA,NA,NA,NA,NA,NA,"",NA,"22"
"",NA,"",NA,"",NA,NA,NA,NA,NA,NA,"","",1,1,"2024-08-24_10h36.07.815","IAT(Formal)","2021.2.3","Win32",59.88023952,NA,"",NA,"",NA,NA,NA,NA,NA,NA,NA,"","","",NA,"e",1,0.6107,NA,NA,NA,NA,NA,"公正","e","",NA,0,59,59,23,1,"",NA,"",NA,NA,NA,NA,NA,NA,NA,"",NA,"",NA,NA,NA,NA,NA,NA,NA,"","","",NA,"",NA,NA,NA,NA,NA,NA,NA,"",NA,"22"
"",NA,"",NA,"",NA,NA,NA,NA,NA,NA,"","",1,1,"2024-08-24_10h36.07.815","IAT(Formal)","2021.2.3","Win32",59.88023952,NA,"",NA,"",NA,NA,NA,NA,NA,NA,NA,"","","",NA,"i",1,0.8907,NA,NA,NA,NA,NA,"猖狂","i","",NA,0,60,60,45,1,"",NA,"",NA,NA,NA,NA,NA,NA,NA,"",NA,"",NA,NA,NA,NA,NA,NA,NA,"","","",NA,"",NA,NA,NA,NA,NA,NA,NA,"",NA,"22"
"",NA,"",NA,"",NA,NA,NA,NA,NA,NA,"","",1,1,"2024-08-24_10h36.07.815","IAT(Formal)","2021.2.3","Win32",59.88023952,NA,"",NA,"",NA,NA,NA,NA,NA,NA,NA,"","","",NA,"e",1,0.7882,NA,NA,NA,NA,NA,"活泼","e","",NA,0,61,61,28,1,"",NA,"",NA,NA,NA,NA,NA,NA,NA,"",NA,"",NA,NA,NA,NA,NA,NA,NA,"","","",NA,"",NA,NA,NA,NA,NA,NA,NA,"",NA,"22"
"",NA,"",NA,"",NA,NA,NA,NA,NA,NA,"","",1,1,"2024-08-24_10h36.07.815","IAT(Formal)","2021.2.3","Win32",59.88023952,NA,"",NA,"",NA,NA,NA,NA,NA,NA,NA,"","","",NA,"e",1,0.588,NA,NA,NA,NA,NA,"聪明","e","",NA,0,62,62,12,1,"",NA,"",NA,NA,NA,NA,NA,NA,NA,"",NA,"",NA,NA,NA,NA,NA,NA,NA,"","","",NA,"",NA,NA,NA,NA,NA,NA,NA,"",NA,"22"
"",NA,"",NA,"",NA,NA,NA,NA,NA,NA,"","",1,1,"2024-08-24_10h36.07.815","IAT(Formal)","2021.2.3","Win32",59.88023952,NA,"",NA,"",NA,NA,NA,NA,NA,NA,NA,"","","",NA,"i",1,0.8958,NA,NA,NA,NA,NA,"其他","i","",NA,0,63,63,69,1,"",NA,"",NA,NA,NA,NA,NA,NA,NA,"",NA,"",NA,NA,NA,NA,NA,NA,NA,"","","",NA,"",NA,NA,NA,NA,NA,NA,NA,"",NA,"22"
"",NA,"",NA,"",NA,NA,NA,NA,NA,NA,"","",1,1,"2024-08-24_10h36.07.815","IAT(Formal)","2021.2.3","Win32",59.88023952,NA,"",NA,"",NA,NA,NA,NA,NA,NA,NA,"","","",NA,"e",1,0.6075,NA,NA,NA,NA,NA,"我","e","",NA,0,64,64,0,1,"",NA,"",NA,NA,NA,NA,NA,NA,NA,"",NA,"",NA,NA,NA,NA,NA,NA,NA,"","","",NA,"",NA,NA,NA,NA,NA,NA,NA,"",NA,"22"
"",NA,"",NA,"",NA,NA,NA,NA,NA,NA,"","",1,1,"2024-08-24_10h36.07.815","IAT(Formal)","2021.2.3","Win32",59.88023952,NA,"",NA,"",NA,NA,NA,NA,NA,NA,NA,"","","",NA,"e",1,0.5076,NA,NA,NA,NA,NA,"我","e","",NA,0,65,65,60,1,"",NA,"",NA,NA,NA,NA,NA,NA,NA,"",NA,"",NA,NA,NA,NA,NA,NA,NA,"","","",NA,"",NA,NA,NA,NA,NA,NA,NA,"",NA,"22"
"",NA,"",NA,"",NA,NA,NA,NA,NA,NA,"","",1,1,"2024-08-24_10h36.07.815","IAT(Formal)","2021.2.3","Win32",59.88023952,NA,"",NA,"",NA,NA,NA,NA,NA,NA,NA,"","","",NA,"i",1,0.7282,NA,NA,NA,NA,NA,"傲慢","i","",NA,0,66,66,37,1,"",NA,"",NA,NA,NA,NA,NA,NA,NA,"",NA,"",NA,NA,NA,NA,NA,NA,NA,"","","",NA,"",NA,NA,NA,NA,NA,NA,NA,"",NA,"22"
"",NA,"",NA,"",NA,NA,NA,NA,NA,NA,"","",1,1,"2024-08-24_10h36.07.815","IAT(Formal)","2021.2.3","Win32",59.88023952,NA,"",NA,"",NA,NA,NA,NA,NA,NA,NA,"","","",NA,"",0,NA,NA,NA,NA,NA,NA,"他人","i","",NA,0,67,67,78,1,"",NA,"",NA,NA,NA,NA,NA,NA,NA,"",NA,"",NA,NA,NA,NA,NA,NA,NA,"","","",NA,"",NA,NA,NA,NA,NA,NA,NA,"",NA,"22"
"",NA,"",NA,"",NA,NA,NA,NA,NA,NA,"","",1,1,"2024-08-24_10h36.07.815","IAT(Formal)","2021.2.3","Win32",59.88023952,NA,"",NA,"",NA,NA,NA,NA,NA,NA,NA,"","","",NA,"",0,NA,NA,NA,NA,NA,NA,"暴躁","i","",NA,0,68,68,44,1,"",NA,"",NA,NA,NA,NA,NA,NA,NA,"",NA,"",NA,NA,NA,NA,NA,NA,NA,"","","",NA,"",NA,NA,NA,NA,NA,NA,NA,"",NA,"22"
"",NA,"",NA,"",NA,NA,NA,NA,NA,NA,"","",1,1,"2024-08-24_10h36.07.815","IAT(Formal)","2021.2.3","Win32",59.88023952,NA,"",NA,"",NA,NA,NA,NA,NA,NA,NA,"","","",NA,"i",1,0.8588,NA,NA,NA,NA,NA,"他","i","",NA,0,69,69,65,1,"",NA,"",NA,NA,NA,NA,NA,NA,NA,"",NA,"",NA,NA,NA,NA,NA,NA,NA,"","","",NA,"",NA,NA,NA,NA,NA,NA,NA,"",NA,"22"
"",NA,"",NA,"",NA,NA,NA,NA,NA,NA,"","",1,1,"2024-08-24_10h36.07.815","IAT(Formal)","2021.2.3","Win32",59.88023952,NA,"",NA,"",NA,NA,NA,NA,NA,NA,NA,"","","",NA,"i",1,0.7272,NA,NA,NA,NA,NA,"散漫","i","",NA,0,70,70,41,1,"",NA,"",NA,NA,NA,NA,NA,NA,NA,"",NA,"",NA,NA,NA,NA,NA,NA,NA,"","","",NA,"",NA,NA,NA,NA,NA,NA,NA,"",NA,"22"
"",NA,"",NA,"",NA,NA,NA,NA,NA,NA,"","",1,1,"2024-08-24_10h36.07.815","IAT(Formal)","2021.2.3","Win32",59.88023952,NA,"",NA,"",NA,NA,NA,NA,NA,NA,NA,"","","",NA,"e",1,0.6068,NA,NA,NA,NA,NA,"我们","e","",NA,0,71,71,2,1,"",NA,"",NA,NA,NA,NA,NA,NA,NA,"",NA,"",NA,NA,NA,NA,NA,NA,NA,"","","",NA,"",NA,NA,NA,NA,NA,NA,NA,"",NA,"22"
"",NA,"",NA,"",NA,NA,NA,NA,NA,NA,"","",1,1,"2024-08-24_10h36.07.815","IAT(Formal)","2021.2.3","Win32",59.88023952,NA,"",NA,"",NA,NA,NA,NA,NA,NA,NA,"","","",NA,"i",1,0.6851,NA,NA,NA,NA,NA,"冒失","i","",NA,0,72,72,39,1,"",NA,"",NA,NA,NA,NA,NA,NA,NA,"",NA,"",NA,NA,NA,NA,NA,NA,NA,"","","",NA,"",NA,NA,NA,NA,NA,NA,NA,"",NA,"22"
"",NA,"",NA,"",NA,NA,NA,NA,NA,NA,"","",1,1,"2024-08-24_10h36.07.815","IAT(Formal)","2021.2.3","Win32",59.88023952,NA,"",NA,"",NA,NA,NA,NA,NA,NA,NA,"","","",NA,"i",1,0.8018,NA,NA,NA,NA,NA,"其他","i","",NA,0,73,73,9,1,"",NA,"",NA,NA,NA,NA,NA,NA,NA,"",NA,"",NA,NA,NA,NA,NA,NA,NA,"","","",NA,"",NA,NA,NA,NA,NA,NA,NA,"",NA,"22"
"",NA,"",NA,"",NA,NA,NA,NA,NA,NA,"","",1,1,"2024-08-24_10h36.07.815","IAT(Formal)","2021.2.3","Win32",59.88023952,NA,"",NA,"",NA,NA,NA,NA,NA,NA,NA,"","","",NA,"e",1,0.644,NA,NA,NA,NA,NA,"勇敢","e","",NA,0,74,74,17,1,"",NA,"",NA,NA,NA,NA,NA,NA,NA,"",NA,"",NA,NA,NA,NA,NA,NA,NA,"","","",NA,"",NA,NA,NA,NA,NA,NA,NA,"",NA,"22"
"",NA,"",NA,"",NA,NA,NA,NA,NA,NA,"","",1,1,"2024-08-24_10h36.07.815","IAT(Formal)","2021.2.3","Win32",59.88023952,NA,"",NA,"",NA,NA,NA,NA,NA,NA,NA,"","","",NA,"",0,NA,NA,NA,NA,NA,NA,"我","e","",NA,0,75,75,70,1,"",NA,"",NA,NA,NA,NA,NA,NA,NA,"",NA,"",NA,NA,NA,NA,NA,NA,NA,"","","",NA,"",NA,NA,NA,NA,NA,NA,NA,"",NA,"22"
"",NA,"",NA,"",NA,NA,NA,NA,NA,NA,"","",1,1,"2024-08-24_10h36.07.815","IAT(Formal)","2021.2.3","Win32",59.88023952,NA,"",NA,"",NA,NA,NA,NA,NA,NA,NA,"","","",NA,"i",1,0.6054,NA,NA,NA,NA,NA,"下贱","i","",NA,0,76,76,49,1,"",NA,"",NA,NA,NA,NA,NA,NA,NA,"",NA,"",NA,NA,NA,NA,NA,NA,NA,"","","",NA,"",NA,NA,NA,NA,NA,NA,NA,"",NA,"22"
"",NA,"",NA,"",NA,NA,NA,NA,NA,NA,"","",1,1,"2024-08-24_10h36.07.815","IAT(Formal)","2021.2.3","Win32",59.88023952,NA,"",NA,"",NA,NA,NA,NA,NA,NA,NA,"","","",NA,"i",1,0.4911,NA,NA,NA,NA,NA,"自卑","i","",NA,0,77,77,36,1,"",NA,"",NA,NA,NA,NA,NA,NA,NA,"",NA,"",NA,NA,NA,NA,NA,NA,NA,"","","",NA,"",NA,NA,NA,NA,NA,NA,NA,"",NA,"22"
"",NA,"",NA,"",NA,NA,NA,NA,NA,NA,"","",1,1,"2024-08-24_10h36.07.815","IAT(Formal)","2021.2.3","Win32",59.88023952,NA,"",NA,"",NA,NA,NA,NA,NA,NA,NA,"","","",NA,"e",1,0.5839,NA,NA,NA,NA,NA,"正直","e","",NA,0,78,78,16,1,"",NA,"",NA,NA,NA,NA,NA,NA,NA,"",NA,"",NA,NA,NA,NA,NA,NA,NA,"","","",NA,"",NA,NA,NA,NA,NA,NA,NA,"",NA,"22"
"",NA,"",NA,"",NA,NA,NA,NA,NA,NA,"","",1,1,"2024-08-24_10h36.07.815","IAT(Formal)","2021.2.3","Win32",59.88023952,NA,"",NA,"",NA,NA,NA,NA,NA,NA,NA,"","","",NA,"e",1,0.431,NA,NA,NA,NA,NA,"俺","e","",NA,0,79,79,64,1,"",NA,"",NA,NA,NA,NA,NA,NA,NA,"",NA,"",NA,NA,NA,NA,NA,NA,NA,"","","",NA,"",NA,NA,NA,NA,NA,NA,NA,"",NA,"22"
"",NA,"",NA,"",NA,NA,NA,NA,NA,NA,"","",1,1,"2024-08-24_10h36.07.815","IAT(Formal)","2021.2.3","Win32",59.88023952,NA,"",NA,"",NA,NA,NA,NA,NA,NA,NA,"","","",NA,"i",1,0.6891,NA,NA,NA,NA,NA,"悲观","i","",NA,1,0,80,34,1,"",NA,"",NA,NA,NA,NA,NA,NA,NA,"",NA,"",NA,NA,NA,NA,NA,NA,NA,"","","",NA,"",NA,NA,NA,NA,NA,NA,NA,"",NA,"22"
"",NA,"",NA,"",NA,NA,NA,NA,NA,NA,"","",1,1,"2024-08-24_10h36.07.815","IAT(Formal)","2021.2.3","Win32",59.88023952,NA,"",NA,"",NA,NA,NA,NA,NA,NA,NA,"","","",NA,"e",1,0.6544,NA,NA,NA,NA,NA,"聪明","e","",NA,1,1,81,12,1,"",NA,"",NA,NA,NA,NA,NA,NA,NA,"",NA,"",NA,NA,NA,NA,NA,NA,NA,"","","",NA,"",NA,NA,NA,NA,NA,NA,NA,"",NA,"22"
"",NA,"",NA,"",NA,NA,NA,NA,NA,NA,"","",1,1,"2024-08-24_10h36.07.815","IAT(Formal)","2021.2.3","Win32",59.88023952,NA,"",NA,"",NA,NA,NA,NA,NA,NA,NA,"","","",NA,"e",1,0.7017,NA,NA,NA,NA,NA,"杰出","e","",NA,1,2,82,13,1,"",NA,"",NA,NA,NA,NA,NA,NA,NA,"",NA,"",NA,NA,NA,NA,NA,NA,NA,"","","",NA,"",NA,NA,NA,NA,NA,NA,NA,"",NA,"22"
"",NA,"",NA,"",NA,NA,NA,NA,NA,NA,"","",1,1,"2024-08-24_10h36.07.815","IAT(Formal)","2021.2.3","Win32",59.88023952,NA,"",NA,"",NA,NA,NA,NA,NA,NA,NA,"","","",NA,"e",1,0.6851,NA,NA,NA,NA,NA,"活泼","e","",NA,1,3,83,28,1,"",NA,"",NA,NA,NA,NA,NA,NA,NA,"",NA,"",NA,NA,NA,NA,NA,NA,NA,"","","",NA,"",NA,NA,NA,NA,NA,NA,NA,"",NA,"22"
"",NA,"",NA,"",NA,NA,NA,NA,NA,NA,"","",1,1,"2024-08-24_10h36.07.815","IAT(Formal)","2021.2.3","Win32",59.88023952,NA,"",NA,"",NA,NA,NA,NA,NA,NA,NA,"","","",NA,"e",1,0.619,NA,NA,NA,NA,NA,"我们","e","",NA,1,4,84,52,1,"",NA,"",NA,NA,NA,NA,NA,NA,NA,"",NA,"",NA,NA,NA,NA,NA,NA,NA,"","","",NA,"",NA,NA,NA,NA,NA,NA,NA,"",NA,"22"
"",NA,"",NA,"",NA,NA,NA,NA,NA,NA,"","",1,1,"2024-08-24_10h36.07.815","IAT(Formal)","2021.2.3","Win32",59.88023952,NA,"",NA,"",NA,NA,NA,NA,NA,NA,NA,"","","",NA,"i",1,0.7508,NA,NA,NA,NA,NA,"鲁莽","i","",NA,1,5,85,38,1,"",NA,"",NA,NA,NA,NA,NA,NA,NA,"",NA,"",NA,NA,NA,NA,NA,NA,NA,"","","",NA,"",NA,NA,NA,NA,NA,NA,NA,"",NA,"22"
"",NA,"",NA,"",NA,NA,NA,NA,NA,NA,"","",1,1,"2024-08-24_10h36.07.815","IAT(Formal)","2021.2.3","Win32",59.88023952,NA,"",NA,"",NA,NA,NA,NA,NA,NA,NA,"","","",NA,"e",1,0.7262,NA,NA,NA,NA,NA,"诚恳","e","",NA,1,6,86,29,1,"",NA,"",NA,NA,NA,NA,NA,NA,NA,"",NA,"",NA,NA,NA,NA,NA,NA,NA,"","","",NA,"",NA,NA,NA,NA,NA,NA,NA,"",NA,"22"
"",NA,"",NA,"",NA,NA,NA,NA,NA,NA,"","",1,1,"2024-08-24_10h36.07.815","IAT(Formal)","2021.2.3","Win32",59.88023952,NA,"",NA,"",NA,NA,NA,NA,NA,NA,NA,"","","",NA,"i",1,0.7916,NA,NA,NA,NA,NA,"他人","i","",NA,1,7,87,78,1,"",NA,"",NA,NA,NA,NA,NA,NA,NA,"",NA,"",NA,NA,NA,NA,NA,NA,NA,"","","",NA,"",NA,NA,NA,NA,NA,NA,NA,"",NA,"22"
"",NA,"",NA,"",NA,NA,NA,NA,NA,NA,"","",1,1,"2024-08-24_10h36.07.815","IAT(Formal)","2021.2.3","Win32",59.88023952,NA,"",NA,"",NA,NA,NA,NA,NA,NA,NA,"","","",NA,"i",1,0.793,NA,NA,NA,NA,NA,"散漫","i","",NA,1,8,88,41,1,"",NA,"",NA,NA,NA,NA,NA,NA,NA,"",NA,"",NA,NA,NA,NA,NA,NA,NA,"","","",NA,"",NA,NA,NA,NA,NA,NA,NA,"",NA,"22"
"",NA,"",NA,"",NA,NA,NA,NA,NA,NA,"","",1,1,"2024-08-24_10h36.07.815","IAT(Formal)","2021.2.3","Win32",59.88023952,NA,"",NA,"",NA,NA,NA,NA,NA,NA,NA,"","","",NA,"i",1,0.5839,NA,NA,NA,NA,NA,"他人","i","",NA,1,9,89,58,1,"",NA,"",NA,NA,NA,NA,NA,NA,NA,"",NA,"",NA,NA,NA,NA,NA,NA,NA,"","","",NA,"",NA,NA,NA,NA,NA,NA,NA,"",NA,"22"
"",NA,"",NA,"",NA,NA,NA,NA,NA,NA,"","",1,1,"2024-08-24_10h36.07.815","IAT(Formal)","2021.2.3","Win32",59.88023952,NA,"",NA,"",NA,NA,NA,NA,NA,NA,NA,"","","",NA,"i",1,0.9568,NA,NA,NA,NA,NA,"他","i","",NA,1,10,90,65,1,"",NA,"",NA,NA,NA,NA,NA,NA,NA,"",NA,"",NA,NA,NA,NA,NA,NA,NA,"","","",NA,"",NA,NA,NA,NA,NA,NA,NA,"",NA,"22"
"",NA,"",NA,"",NA,NA,NA,NA,NA,NA,"","",1,1,"2024-08-24_10h36.07.815","IAT(Formal)","2021.2.3","Win32",59.88023952,NA,"",NA,"",NA,NA,NA,NA,NA,NA,NA,"","","",NA,"i",1,0.7479,NA,NA,NA,NA,NA,"他人","i","",NA,1,11,91,68,1,"",NA,"",NA,NA,NA,NA,NA,NA,NA,"",NA,"",NA,NA,NA,NA,NA,NA,NA,"","","",NA,"",NA,NA,NA,NA,NA,NA,NA,"",NA,"22"
"",NA,"",NA,"",NA,NA,NA,NA,NA,NA,"","",1,1,"2024-08-24_10h36.07.815","IAT(Formal)","2021.2.3","Win32",59.88023952,NA,"",NA,"",NA,NA,NA,NA,NA,NA,NA,"","","",NA,"i",1,1.0099,NA,NA,NA,NA,NA,"下贱","i","",NA,1,12,92,49,1,"",NA,"",NA,NA,NA,NA,NA,NA,NA,"",NA,"",NA,NA,NA,NA,NA,NA,NA,"","","",NA,"",NA,NA,NA,NA,NA,NA,NA,"",NA,"22"
"",NA,"",NA,"",NA,NA,NA,NA,NA,NA,"","",1,1,"2024-08-24_10h36.07.815","IAT(Formal)","2021.2.3","Win32",59.88023952,NA,"",NA,"",NA,NA,NA,NA,NA,NA,NA,"","","",NA,"e",1,0.8347,NA,NA,NA,NA,NA,"勇敢","e","",NA,1,13,93,17,1,"",NA,"",NA,NA,NA,NA,NA,NA,NA,"",NA,"",NA,NA,NA,NA,NA,NA,NA,"","","",NA,"",NA,NA,NA,NA,NA,NA,NA,"",NA,"22"
"",NA,"",NA,"",NA,NA,NA,NA,NA,NA,"","",1,1,"2024-08-24_10h36.07.815","IAT(Formal)","2021.2.3","Win32",59.88023952,NA,"",NA,"",NA,NA,NA,NA,NA,NA,NA,"","","",NA,"i",1,1.3816,NA,NA,NA,NA,NA,"他的","i","",NA,1,14,94,7,1,"",NA,"",NA,NA,NA,NA,NA,NA,NA,"",NA,"",NA,NA,NA,NA,NA,NA,NA,"","","",NA,"",NA,NA,NA,NA,NA,NA,NA,"",NA,"22"
"",NA,"",NA,"",NA,NA,NA,NA,NA,NA,"","",1,1,"2024-08-24_10h36.07.815","IAT(Formal)","2021.2.3","Win32",59.88023952,NA,"",NA,"",NA,NA,NA,NA,NA,NA,NA,"","","",NA,"i",1,0.7645,NA,NA,NA,NA,NA,"冒失","i","",NA,1,15,95,39,1,"",NA,"",NA,NA,NA,NA,NA,NA,NA,"",NA,"",NA,NA,NA,NA,NA,NA,NA,"","","",NA,"",NA,NA,NA,NA,NA,NA,NA,"",NA,"22"
"",NA,"",NA,"",NA,NA,NA,NA,NA,NA,"","",1,1,"2024-08-24_10h36.07.815","IAT(Formal)","2021.2.3","Win32",59.88023952,NA,"",NA,"",NA,NA,NA,NA,NA,NA,NA,"","","",NA,"e",0,0.8347,NA,NA,NA,NA,NA,"自卑","i","",NA,1,16,96,36,1,"",NA,"",NA,NA,NA,NA,NA,NA,NA,"",NA,"",NA,NA,NA,NA,NA,NA,NA,"","","",NA,"",NA,NA,NA,NA,NA,NA,NA,"",NA,"22"
"",NA,"",NA,"",NA,NA,NA,NA,NA,NA,"","",1,1,"2024-08-24_10h36.07.815","IAT(Formal)","2021.2.3","Win32",59.88023952,NA,"",NA,"",NA,NA,NA,NA,NA,NA,NA,"","","",NA,"e",1,0.6976,NA,NA,NA,NA,NA,"我们","e","",NA,1,17,97,62,1,"",NA,"",NA,NA,NA,NA,NA,NA,NA,"",NA,"",NA,NA,NA,NA,NA,NA,NA,"","","",NA,"",NA,NA,NA,NA,NA,NA,NA,"",NA,"22"
"",NA,"",NA,"",NA,NA,NA,NA,NA,NA,"","",1,1,"2024-08-24_10h36.07.815","IAT(Formal)","2021.2.3","Win32",59.88023952,NA,"",NA,"",NA,NA,NA,NA,NA,NA,NA,"","","",NA,"e",1,1.0514,NA,NA,NA,NA,NA,"自己","e","",NA,1,18,98,73,1,"",NA,"",NA,NA,NA,NA,NA,NA,NA,"",NA,"",NA,NA,NA,NA,NA,NA,NA,"","","",NA,"",NA,NA,NA,NA,NA,NA,NA,"",NA,"22"
"",NA,"",NA,"",NA,NA,NA,NA,NA,NA,"","",1,1,"2024-08-24_10h36.07.815","IAT(Formal)","2021.2.3","Win32",59.88023952,NA,"",NA,"",NA,NA,NA,NA,NA,NA,NA,"","","",NA,"e",1,0.6777,NA,NA,NA,NA,NA,"朴实","e","",NA,1,19,99,24,1,"",NA,"",NA,NA,NA,NA,NA,NA,NA,"",NA,"",NA,NA,NA,NA,NA,NA,NA,"","","",NA,"",NA,NA,NA,NA,NA,NA,NA,"",NA,"22"
"",NA,"",NA,"",NA,NA,NA,NA,NA,NA,"","",1,1,"2024-08-24_10h36.07.815","IAT(Formal)","2021.2.3","Win32",59.88023952,NA,"",NA,"",NA,NA,NA,NA,NA,NA,NA,"","","",NA,"i",1,0.8457,NA,NA,NA,NA,NA,"他的","i","",NA,1,20,100,57,1,"",NA,"",NA,NA,NA,NA,NA,NA,NA,"",NA,"",NA,NA,NA,NA,NA,NA,NA,"","","",NA,"",NA,NA,NA,NA,NA,NA,NA,"",NA,"22"
"",NA,"",NA,"",NA,NA,NA,NA,NA,NA,"","",1,1,"2024-08-24_10h36.07.815","IAT(Formal)","2021.2.3","Win32",59.88023952,NA,"",NA,"",NA,NA,NA,NA,NA,NA,NA,"","","",NA,"e",1,0.6692,NA,NA,NA,NA,NA,"我","e","",NA,1,21,101,60,1,"",NA,"",NA,NA,NA,NA,NA,NA,NA,"",NA,"",NA,NA,NA,NA,NA,NA,NA,"","","",NA,"",NA,NA,NA,NA,NA,NA,NA,"",NA,"22"
"",NA,"",NA,"",NA,NA,NA,NA,NA,NA,"","",1,1,"2024-08-24_10h36.07.815","IAT(Formal)","2021.2.3","Win32",59.88023952,NA,"",NA,"",NA,NA,NA,NA,NA,NA,NA,"","","",NA,"e",1,0.9184,NA,NA,NA,NA,NA,"冷静","e","",NA,1,22,102,26,1,"",NA,"",NA,NA,NA,NA,NA,NA,NA,"",NA,"",NA,NA,NA,NA,NA,NA,NA,"","","",NA,"",NA,NA,NA,NA,NA,NA,NA,"",NA,"22"
"",NA,"",NA,"",NA,NA,NA,NA,NA,NA,"","",1,1,"2024-08-24_10h36.07.815","IAT(Formal)","2021.2.3","Win32",59.88023952,NA,"",NA,"",NA,NA,NA,NA,NA,NA,NA,"","","",NA,"e",1,0.6477,NA,NA,NA,NA,NA,"无私","e","",NA,1,23,103,22,1,"",NA,"",NA,NA,NA,NA,NA,NA,NA,"",NA,"",NA,NA,NA,NA,NA,NA,NA,"","","",NA,"",NA,NA,NA,NA,NA,NA,NA,"",NA,"22"
"",NA,"",NA,"",NA,NA,NA,NA,NA,NA,"","",1,1,"2024-08-24_10h36.07.815","IAT(Formal)","2021.2.3","Win32",59.88023952,NA,"",NA,"",NA,NA,NA,NA,NA,NA,NA,"","","",NA,"i",1,0.7562,NA,NA,NA,NA,NA,"猖狂","i","",NA,1,24,104,45,1,"",NA,"",NA,NA,NA,NA,NA,NA,NA,"",NA,"",NA,NA,NA,NA,NA,NA,NA,"","","",NA,"",NA,NA,NA,NA,NA,NA,NA,"",NA,"22"
"",NA,"",NA,"",NA,NA,NA,NA,NA,NA,"","",1,1,"2024-08-24_10h36.07.815","IAT(Formal)","2021.2.3","Win32",59.88023952,NA,"",NA,"",NA,NA,NA,NA,NA,NA,NA,"","","",NA,"e",1,0.7768,NA,NA,NA,NA,NA,"我的","e","",NA,1,25,105,71,1,"",NA,"",NA,NA,NA,NA,NA,NA,NA,"",NA,"",NA,NA,NA,NA,NA,NA,NA,"","","",NA,"",NA,NA,NA,NA,NA,NA,NA,"",NA,"22"
"",NA,"",NA,"",NA,NA,NA,NA,NA,NA,"","",1,1,"2024-08-24_10h36.07.815","IAT(Formal)","2021.2.3","Win32",59.88023952,NA,"",NA,"",NA,NA,NA,NA,NA,NA,NA,"","","",NA,"e",1,0.7665,NA,NA,NA,NA,NA,"我","e","",NA,1,26,106,50,1,"",NA,"",NA,NA,NA,NA,NA,NA,NA,"",NA,"",NA,NA,NA,NA,NA,NA,NA,"","","",NA,"",NA,NA,NA,NA,NA,NA,NA,"",NA,"22"
"",NA,"",NA,"",NA,NA,NA,NA,NA,NA,"","",1,1,"2024-08-24_10h36.07.815","IAT(Formal)","2021.2.3","Win32",59.88023952,NA,"",NA,"",NA,NA,NA,NA,NA,NA,NA,"","","",NA,"i",1,0.7377,NA,NA,NA,NA,NA,"虚伪","i","",NA,1,27,107,31,1,"",NA,"",NA,NA,NA,NA,NA,NA,NA,"",NA,"",NA,NA,NA,NA,NA,NA,NA,"","","",NA,"",NA,NA,NA,NA,NA,NA,NA,"",NA,"22"
"",NA,"",NA,"",NA,NA,NA,NA,NA,NA,"","",1,1,"2024-08-24_10h36.07.815","IAT(Formal)","2021.2.3","Win32",59.88023952,NA,"",NA,"",NA,NA,NA,NA,NA,NA,NA,"","","",NA,"e",1,0.696,NA,NA,NA,NA,NA,"俺","e","",NA,1,28,108,54,1,"",NA,"",NA,NA,NA,NA,NA,NA,NA,"",NA,"",NA,NA,NA,NA,NA,NA,NA,"","","",NA,"",NA,NA,NA,NA,NA,NA,NA,"",NA,"22"
"",NA,"",NA,"",NA,NA,NA,NA,NA,NA,"","",1,1,"2024-08-24_10h36.07.815","IAT(Formal)","2021.2.3","Win32",59.88023952,NA,"",NA,"",NA,NA,NA,NA,NA,NA,NA,"","","",NA,"i",1,0.9017,NA,NA,NA,NA,NA,"消极","i","",NA,1,29,109,35,1,"",NA,"",NA,NA,NA,NA,NA,NA,NA,"",NA,"",NA,NA,NA,NA,NA,NA,NA,"","","",NA,"",NA,NA,NA,NA,NA,NA,NA,"",NA,"22"
"",NA,"",NA,"",NA,NA,NA,NA,NA,NA,"","",1,1,"2024-08-24_10h36.07.815","IAT(Formal)","2021.2.3","Win32",59.88023952,NA,"",NA,"",NA,NA,NA,NA,NA,NA,NA,"","","",NA,"e",1,0.947,NA,NA,NA,NA,NA,"诚实","e","",NA,1,30,110,15,1,"",NA,"",NA,NA,NA,NA,NA,NA,NA,"",NA,"",NA,NA,NA,NA,NA,NA,NA,"","","",NA,"",NA,NA,NA,NA,NA,NA,NA,"",NA,"22"
"",NA,"",NA,"",NA,NA,NA,NA,NA,NA,"","",1,1,"2024-08-24_10h36.07.815","IAT(Formal)","2021.2.3","Win32",59.88023952,NA,"",NA,"",NA,NA,NA,NA,NA,NA,NA,"","","",NA,"e",0,0.8459,NA,NA,NA,NA,NA,"傲慢","i","",NA,1,31,111,37,1,"",NA,"",NA,NA,NA,NA,NA,NA,NA,"",NA,"",NA,NA,NA,NA,NA,NA,NA,"","","",NA,"",NA,NA,NA,NA,NA,NA,NA,"",NA,"22"
"",NA,"",NA,"",NA,NA,NA,NA,NA,NA,"","",1,1,"2024-08-24_10h36.07.815","IAT(Formal)","2021.2.3","Win32",59.88023952,NA,"",NA,"",NA,NA,NA,NA,NA,NA,NA,"","","",NA,"e",1,0.7894,NA,NA,NA,NA,NA,"我的","e","",NA,1,32,112,51,1,"",NA,"",NA,NA,NA,NA,NA,NA,NA,"",NA,"",NA,NA,NA,NA,NA,NA,NA,"","","",NA,"",NA,NA,NA,NA,NA,NA,NA,"",NA,"22"
"",NA,"",NA,"",NA,NA,NA,NA,NA,NA,"","",1,1,"2024-08-24_10h36.07.815","IAT(Formal)","2021.2.3","Win32",59.88023952,NA,"",NA,"",NA,NA,NA,NA,NA,NA,NA,"","","",NA,"e",1,0.8303,NA,NA,NA,NA,NA,"自己","e","",NA,1,33,113,63,1,"",NA,"",NA,NA,NA,NA,NA,NA,NA,"",NA,"",NA,NA,NA,NA,NA,NA,NA,"","","",NA,"",NA,NA,NA,NA,NA,NA,NA,"",NA,"22"
"",NA,"",NA,"",NA,NA,NA,NA,NA,NA,"","",1,1,"2024-08-24_10h36.07.815","IAT(Formal)","2021.2.3","Win32",59.88023952,NA,"",NA,"",NA,NA,NA,NA,NA,NA,NA,"","","",NA,"i",1,1.4022,NA,NA,NA,NA,NA,"野蛮","i","",NA,1,34,114,46,1,"",NA,"",NA,NA,NA,NA,NA,NA,NA,"",NA,"",NA,NA,NA,NA,NA,NA,NA,"","","",NA,"",NA,NA,NA,NA,NA,NA,NA,"",NA,"22"
"",NA,"",NA,"",NA,NA,NA,NA,NA,NA,"","",1,1,"2024-08-24_10h36.07.815","IAT(Formal)","2021.2.3","Win32",59.88023952,NA,"",NA,"",NA,NA,NA,NA,NA,NA,NA,"","","",NA,"e",1,0.634,NA,NA,NA,NA,NA,"稳重","e","",NA,1,35,115,21,1,"",NA,"",NA,NA,NA,NA,NA,NA,NA,"",NA,"",NA,NA,NA,NA,NA,NA,NA,"","","",NA,"",NA,NA,NA,NA,NA,NA,NA,"",NA,"22"
"",NA,"",NA,"",NA,NA,NA,NA,NA,NA,"","",1,1,"2024-08-24_10h36.07.815","IAT(Formal)","2021.2.3","Win32",59.88023952,NA,"",NA,"",NA,NA,NA,NA,NA,NA,NA,"","","",NA,"e",1,0.6009,NA,NA,NA,NA,NA,"我","e","",NA,1,36,116,70,1,"",NA,"",NA,NA,NA,NA,NA,NA,NA,"",NA,"",NA,NA,NA,NA,NA,NA,NA,"","","",NA,"",NA,NA,NA,NA,NA,NA,NA,"",NA,"22"
"",NA,"",NA,"",NA,NA,NA,NA,NA,NA,"","",1,1,"2024-08-24_10h36.07.815","IAT(Formal)","2021.2.3","Win32",59.88023952,NA,"",NA,"",NA,NA,NA,NA,NA,NA,NA,"","","",NA,"i",1,0.8432,NA,NA,NA,NA,NA,"暴躁","i","",NA,1,37,117,44,1,"",NA,"",NA,NA,NA,NA,NA,NA,NA,"",NA,"",NA,NA,NA,NA,NA,NA,NA,"","","",NA,"",NA,NA,NA,NA,NA,NA,NA,"",NA,"22"
"",NA,"",NA,"",NA,NA,NA,NA,NA,NA,"","",1,1,"2024-08-24_10h36.07.815","IAT(Formal)","2021.2.3","Win32",59.88023952,NA,"",NA,"",NA,NA,NA,NA,NA,NA,NA,"","","",NA,"i",1,0.7736,NA,NA,NA,NA,NA,"其他","i","",NA,1,38,118,79,1,"",NA,"",NA,NA,NA,NA,NA,NA,NA,"",NA,"",NA,NA,NA,NA,NA,NA,NA,"","","",NA,"",NA,NA,NA,NA,NA,NA,NA,"",NA,"22"
"",NA,"",NA,"",NA,NA,NA,NA,NA,NA,"","",1,1,"2024-08-24_10h36.07.815","IAT(Formal)","2021.2.3","Win32",59.88023952,NA,"",NA,"",NA,NA,NA,NA,NA,NA,NA,"","","",NA,"e",1,0.714,NA,NA,NA,NA,NA,"机智","e","",NA,1,39,119,19,1,"",NA,"",NA,NA,NA,NA,NA,NA,NA,"",NA,"",NA,NA,NA,NA,NA,NA,NA,"","","",NA,"",NA,NA,NA,NA,NA,NA,NA,"",NA,"22"
"",NA,"",NA,"",NA,NA,NA,NA,NA,NA,"","",1,1,"2024-08-24_10h36.07.815","IAT(Formal)","2021.2.3","Win32",59.88023952,NA,"",NA,"",NA,NA,NA,NA,NA,NA,NA,"","","",NA,"i",1,0.5982,NA,NA,NA,NA,NA,"其他","i","",NA,1,40,120,9,1,"",NA,"",NA,NA,NA,NA,NA,NA,NA,"",NA,"",NA,NA,NA,NA,NA,NA,NA,"","","",NA,"",NA,NA,NA,NA,NA,NA,NA,"",NA,"22"
"",NA,"",NA,"",NA,NA,NA,NA,NA,NA,"","",1,1,"2024-08-24_10h36.07.815","IAT(Formal)","2021.2.3","Win32",59.88023952,NA,"",NA,"",NA,NA,NA,NA,NA,NA,NA,"","","",NA,"e",1,0.552,NA,NA,NA,NA,NA,"勤奋","e","",NA,1,41,121,18,1,"",NA,"",NA,NA,NA,NA,NA,NA,NA,"",NA,"",NA,NA,NA,NA,NA,NA,NA,"","","",NA,"",NA,NA,NA,NA,NA,NA,NA,"",NA,"22"
"",NA,"",NA,"",NA,NA,NA,NA,NA,NA,"","",1,1,"2024-08-24_10h36.07.815","IAT(Formal)","2021.2.3","Win32",59.88023952,NA,"",NA,"",NA,NA,NA,NA,NA,NA,NA,"","","",NA,"i",1,0.6338,NA,NA,NA,NA,NA,"他","i","",NA,1,42,122,75,1,"",NA,"",NA,NA,NA,NA,NA,NA,NA,"",NA,"",NA,NA,NA,NA,NA,NA,NA,"","","",NA,"",NA,NA,NA,NA,NA,NA,NA,"",NA,"22"
"",NA,"",NA,"",NA,NA,NA,NA,NA,NA,"","",1,1,"2024-08-24_10h36.07.815","IAT(Formal)","2021.2.3","Win32",59.88023952,NA,"",NA,"",NA,NA,NA,NA,NA,NA,NA,"","","",NA,"e",1,1.3619,NA,NA,NA,NA,NA,"俺","e","",NA,1,43,123,4,1,"",NA,"",NA,NA,NA,NA,NA,NA,NA,"",NA,"",NA,NA,NA,NA,NA,NA,NA,"","","",NA,"",NA,NA,NA,NA,NA,NA,NA,"",NA,"22"
"",NA,"",NA,"",NA,NA,NA,NA,NA,NA,"","",1,1,"2024-08-24_10h36.07.815","IAT(Formal)","2021.2.3","Win32",59.88023952,NA,"",NA,"",NA,NA,NA,NA,NA,NA,NA,"","","",NA,"e",1,0.7412,NA,NA,NA,NA,NA,"崇高","e","",NA,1,44,124,11,1,"",NA,"",NA,NA,NA,NA,NA,NA,NA,"",NA,"",NA,NA,NA,NA,NA,NA,NA,"","","",NA,"",NA,NA,NA,NA,NA,NA,NA,"",NA,"22"
"",NA,"",NA,"",NA,NA,NA,NA,NA,NA,"","",1,1,"2024-08-24_10h36.07.815","IAT(Formal)","2021.2.3","Win32",59.88023952,NA,"",NA,"",NA,NA,NA,NA,NA,NA,NA,"","","",NA,"e",1,0.5359,NA,NA,NA,NA,NA,"我们","e","",NA,1,45,125,72,1,"",NA,"",NA,NA,NA,NA,NA,NA,NA,"",NA,"",NA,NA,NA,NA,NA,NA,NA,"","","",NA,"",NA,NA,NA,NA,NA,NA,NA,"",NA,"22"
"",NA,"",NA,"",NA,NA,NA,NA,NA,NA,"","",1,1,"2024-08-24_10h36.07.815","IAT(Formal)","2021.2.3","Win32",59.88023952,NA,"",NA,"",NA,NA,NA,NA,NA,NA,NA,"","","",NA,"e",0,0.639,NA,NA,NA,NA,NA,"轻率","i","",NA,1,46,126,48,1,"",NA,"",NA,NA,NA,NA,NA,NA,NA,"",NA,"",NA,NA,NA,NA,NA,NA,NA,"","","",NA,"",NA,NA,NA,NA,NA,NA,NA,"",NA,"22"
"",NA,"",NA,"",NA,NA,NA,NA,NA,NA,"","",1,1,"2024-08-24_10h36.07.815","IAT(Formal)","2021.2.3","Win32",59.88023952,NA,"",NA,"",NA,NA,NA,NA,NA,NA,NA,"","","",NA,"i",1,0.6001,NA,NA,NA,NA,NA,"刻薄","i","",NA,1,47,127,33,1,"",NA,"",NA,NA,NA,NA,NA,NA,NA,"",NA,"",NA,NA,NA,NA,NA,NA,NA,"","","",NA,"",NA,NA,NA,NA,NA,NA,NA,"",NA,"22"
"",NA,"",NA,"",NA,NA,NA,NA,NA,NA,"","",1,1,"2024-08-24_10h36.07.815","IAT(Formal)","2021.2.3","Win32",59.88023952,NA,"",NA,"",NA,NA,NA,NA,NA,NA,NA,"","","",NA,"i",1,0.607,NA,NA,NA,NA,NA,"他们","i","",NA,1,48,128,56,1,"",NA,"",NA,NA,NA,NA,NA,NA,NA,"",NA,"",NA,NA,NA,NA,NA,NA,NA,"","","",NA,"",NA,NA,NA,NA,NA,NA,NA,"",NA,"22"
"",NA,"",NA,"",NA,NA,NA,NA,NA,NA,"","",1,1,"2024-08-24_10h36.07.815","IAT(Formal)","2021.2.3","Win32",59.88023952,NA,"",NA,"",NA,NA,NA,NA,NA,NA,NA,"","","",NA,"e",1,0.6759,NA,NA,NA,NA,NA,"正直","e","",NA,1,49,129,16,1,"",NA,"",NA,NA,NA,NA,NA,NA,NA,"",NA,"",NA,NA,NA,NA,NA,NA,NA,"","","",NA,"",NA,NA,NA,NA,NA,NA,NA,"",NA,"22"
"",NA,"",NA,"",NA,NA,NA,NA,NA,NA,"","",1,1,"2024-08-24_10h36.07.815","IAT(Formal)","2021.2.3","Win32",59.88023952,NA,"",NA,"",NA,NA,NA,NA,NA,NA,NA,"","","",NA,"e",1,0.6205,NA,NA,NA,NA,NA,"我","e","",NA,1,50,130,0,1,"",NA,"",NA,NA,NA,NA,NA,NA,NA,"",NA,"",NA,NA,NA,NA,NA,NA,NA,"","","",NA,"",NA,NA,NA,NA,NA,NA,NA,"",NA,"22"
"",NA,"",NA,"",NA,NA,NA,NA,NA,NA,"","",1,1,"2024-08-24_10h36.07.815","IAT(Formal)","2021.2.3","Win32",59.88023952,NA,"",NA,"",NA,NA,NA,NA,NA,NA,NA,"","","",NA,"i",1,0.8948,NA,NA,NA,NA,NA,"自私","i","",NA,1,51,131,43,1,"",NA,"",NA,NA,NA,NA,NA,NA,NA,"",NA,"",NA,NA,NA,NA,NA,NA,NA,"","","",NA,"",NA,NA,NA,NA,NA,NA,NA,"",NA,"22"
"",NA,"",NA,"",NA,NA,NA,NA,NA,NA,"","",1,1,"2024-08-24_10h36.07.815","IAT(Formal)","2021.2.3","Win32",59.88023952,NA,"",NA,"",NA,NA,NA,NA,NA,NA,NA,"","","",NA,"e",1,0.9696,NA,NA,NA,NA,NA,"自己","e","",NA,1,52,132,3,1,"",NA,"",NA,NA,NA,NA,NA,NA,NA,"",NA,"",NA,NA,NA,NA,NA,NA,NA,"","","",NA,"",NA,NA,NA,NA,NA,NA,NA,"",NA,"22"
"",NA,"",NA,"",NA,NA,NA,NA,NA,NA,"","",1,1,"2024-08-24_10h36.07.815","IAT(Formal)","2021.2.3","Win32",59.88023952,NA,"",NA,"",NA,NA,NA,NA,NA,NA,NA,"","","",NA,"i",1,0.724,NA,NA,NA,NA,NA,"他","i","",NA,1,53,133,5,1,"",NA,"",NA,NA,NA,NA,NA,NA,NA,"",NA,"",NA,NA,NA,NA,NA,NA,NA,"","","",NA,"",NA,NA,NA,NA,NA,NA,NA,"",NA,"22"
"",NA,"",NA,"",NA,NA,NA,NA,NA,NA,"","",1,1,"2024-08-24_10h36.07.815","IAT(Formal)","2021.2.3","Win32",59.88023952,NA,"",NA,"",NA,NA,NA,NA,NA,NA,NA,"","","",NA,"i",1,0.6325,NA,NA,NA,NA,NA,"他","i","",NA,1,54,134,55,1,"",NA,"",NA,NA,NA,NA,NA,NA,NA,"",NA,"",NA,NA,NA,NA,NA,NA,NA,"","","",NA,"",NA,NA,NA,NA,NA,NA,NA,"",NA,"22"
"",NA,"",NA,"",NA,NA,NA,NA,NA,NA,"","",1,1,"2024-08-24_10h36.07.815","IAT(Formal)","2021.2.3","Win32",59.88023952,NA,"",NA,"",NA,NA,NA,NA,NA,NA,NA,"","","",NA,"i",1,0.6971,NA,NA,NA,NA,NA,"其他","i","",NA,1,55,135,59,1,"",NA,"",NA,NA,NA,NA,NA,NA,NA,"",NA,"",NA,NA,NA,NA,NA,NA,NA,"","","",NA,"",NA,NA,NA,NA,NA,NA,NA,"",NA,"22"
"",NA,"",NA,"",NA,NA,NA,NA,NA,NA,"","",1,1,"2024-08-24_10h36.07.815","IAT(Formal)","2021.2.3","Win32",59.88023952,NA,"",NA,"",NA,NA,NA,NA,NA,NA,NA,"","","",NA,"i",1,0.5651,NA,NA,NA,NA,NA,"愚蠢","i","",NA,1,56,136,32,1,"",NA,"",NA,NA,NA,NA,NA,NA,NA,"",NA,"",NA,NA,NA,NA,NA,NA,NA,"","","",NA,"",NA,NA,NA,NA,NA,NA,NA,"",NA,"22"
"",NA,"",NA,"",NA,NA,NA,NA,NA,NA,"","",1,1,"2024-08-24_10h36.07.815","IAT(Formal)","2021.2.3","Win32",59.88023952,NA,"",NA,"",NA,NA,NA,NA,NA,NA,NA,"","","",NA,"e",1,0.797,NA,NA,NA,NA,NA,"我的","e","",NA,1,57,137,1,1,"",NA,"",NA,NA,NA,NA,NA,NA,NA,"",NA,"",NA,NA,NA,NA,NA,NA,NA,"","","",NA,"",NA,NA,NA,NA,NA,NA,NA,"",NA,"22"
"",NA,"",NA,"",NA,NA,NA,NA,NA,NA,"","",1,1,"2024-08-24_10h36.07.815","IAT(Formal)","2021.2.3","Win32",59.88023952,NA,"",NA,"",NA,NA,NA,NA,NA,NA,NA,"","","",NA,"e",1,0.8515,NA,NA,NA,NA,NA,"细腻","e","",NA,1,58,138,25,1,"",NA,"",NA,NA,NA,NA,NA,NA,NA,"",NA,"",NA,NA,NA,NA,NA,NA,NA,"","","",NA,"",NA,NA,NA,NA,NA,NA,NA,"",NA,"22"
"",NA,"",NA,"",NA,NA,NA,NA,NA,NA,"","",1,1,"2024-08-24_10h36.07.815","IAT(Formal)","2021.2.3","Win32",59.88023952,NA,"",NA,"",NA,NA,NA,NA,NA,NA,NA,"","","",NA,"e",1,0.7082,NA,NA,NA,NA,NA,"我们","e","",NA,1,59,139,2,1,"",NA,"",NA,NA,NA,NA,NA,NA,NA,"",NA,"",NA,NA,NA,NA,NA,NA,NA,"","","",NA,"",NA,NA,NA,NA,NA,NA,NA,"",NA,"22"
"",NA,"",NA,"",NA,NA,NA,NA,NA,NA,"","",1,1,"2024-08-24_10h36.07.815","IAT(Formal)","2021.2.3","Win32",59.88023952,NA,"",NA,"",NA,NA,NA,NA,NA,NA,NA,"","","",NA,"e",1,0.6096,NA,NA,NA,NA,NA,"我的","e","",NA,1,60,140,61,1,"",NA,"",NA,NA,NA,NA,NA,NA,NA,"",NA,"",NA,NA,NA,NA,NA,NA,NA,"","","",NA,"",NA,NA,NA,NA,NA,NA,NA,"",NA,"22"
"",NA,"",NA,"",NA,NA,NA,NA,NA,NA,"","",1,1,"2024-08-24_10h36.07.815","IAT(Formal)","2021.2.3","Win32",59.88023952,NA,"",NA,"",NA,NA,NA,NA,NA,NA,NA,"","","",NA,"i",1,0.6574,NA,NA,NA,NA,NA,"凶狠","i","",NA,1,61,141,42,1,"",NA,"",NA,NA,NA,NA,NA,NA,NA,"",NA,"",NA,NA,NA,NA,NA,NA,NA,"","","",NA,"",NA,NA,NA,NA,NA,NA,NA,"",NA,"22"
"",NA,"",NA,"",NA,NA,NA,NA,NA,NA,"","",1,1,"2024-08-24_10h36.07.815","IAT(Formal)","2021.2.3","Win32",59.88023952,NA,"",NA,"",NA,NA,NA,NA,NA,NA,NA,"","","",NA,"i",1,0.7503,NA,NA,NA,NA,NA,"执拗","i","",NA,1,62,142,40,1,"",NA,"",NA,NA,NA,NA,NA,NA,NA,"",NA,"",NA,NA,NA,NA,NA,NA,NA,"","","",NA,"",NA,NA,NA,NA,NA,NA,NA,"",NA,"22"
"",NA,"",NA,"",NA,NA,NA,NA,NA,NA,"","",1,1,"2024-08-24_10h36.07.815","IAT(Formal)","2021.2.3","Win32",59.88023952,NA,"",NA,"",NA,NA,NA,NA,NA,NA,NA,"","","",NA,"i",1,0.5934,NA,NA,NA,NA,NA,"其他","i","",NA,1,63,143,69,1,"",NA,"",NA,NA,NA,NA,NA,NA,NA,"",NA,"",NA,NA,NA,NA,NA,NA,NA,"","","",NA,"",NA,NA,NA,NA,NA,NA,NA,"",NA,"22"
"",NA,"",NA,"",NA,NA,NA,NA,NA,NA,"","",1,1,"2024-08-24_10h36.07.815","IAT(Formal)","2021.2.3","Win32",59.88023952,NA,"",NA,"",NA,NA,NA,NA,NA,NA,NA,"","","",NA,"",0,NA,NA,NA,NA,NA,NA,"他的","i","",NA,1,64,144,67,1,"",NA,"",NA,NA,NA,NA,NA,NA,NA,"",NA,"",NA,NA,NA,NA,NA,NA,NA,"","","",NA,"",NA,NA,NA,NA,NA,NA,NA,"",NA,"22"
"",NA,"",NA,"",NA,NA,NA,NA,NA,NA,"","",1,1,"2024-08-24_10h36.07.815","IAT(Formal)","2021.2.3","Win32",59.88023952,NA,"",NA,"",NA,NA,NA,NA,NA,NA,NA,"","","",NA,"i",1,0.9262,NA,NA,NA,NA,NA,"他的","i","",NA,1,65,145,77,1,"",NA,"",NA,NA,NA,NA,NA,NA,NA,"",NA,"",NA,NA,NA,NA,NA,NA,NA,"","","",NA,"",NA,NA,NA,NA,NA,NA,NA,"",NA,"22"
"",NA,"",NA,"",NA,NA,NA,NA,NA,NA,"","",1,1,"2024-08-24_10h36.07.815","IAT(Formal)","2021.2.3","Win32",59.88023952,NA,"",NA,"",NA,NA,NA,NA,NA,NA,NA,"","","",NA,"e",1,0.8205,NA,NA,NA,NA,NA,"俺","e","",NA,1,66,146,74,1,"",NA,"",NA,NA,NA,NA,NA,NA,NA,"",NA,"",NA,NA,NA,NA,NA,NA,NA,"","","",NA,"",NA,NA,NA,NA,NA,NA,NA,"",NA,"22"
"",NA,"",NA,"",NA,NA,NA,NA,NA,NA,"","",1,1,"2024-08-24_10h36.07.815","IAT(Formal)","2021.2.3","Win32",59.88023952,NA,"",NA,"",NA,NA,NA,NA,NA,NA,NA,"","","",NA,"e",1,1.2791,NA,NA,NA,NA,NA,"公正","e","",NA,1,67,147,23,1,"",NA,"",NA,NA,NA,NA,NA,NA,NA,"",NA,"",NA,NA,NA,NA,NA,NA,NA,"","","",NA,"",NA,NA,NA,NA,NA,NA,NA,"",NA,"22"
"",NA,"",NA,"",NA,NA,NA,NA,NA,NA,"","",1,1,"2024-08-24_10h36.07.815","IAT(Formal)","2021.2.3","Win32",59.88023952,NA,"",NA,"",NA,NA,NA,NA,NA,NA,NA,"","","",NA,"e",1,0.5481,NA,NA,NA,NA,NA,"优秀","e","",NA,1,68,148,10,1,"",NA,"",NA,NA,NA,NA,NA,NA,NA,"",NA,"",NA,NA,NA,NA,NA,NA,NA,"","","",NA,"",NA,NA,NA,NA,NA,NA,NA,"",NA,"22"
"",NA,"",NA,"",NA,NA,NA,NA,NA,NA,"","",1,1,"2024-08-24_10h36.07.815","IAT(Formal)","2021.2.3","Win32",59.88023952,NA,"",NA,"",NA,NA,NA,NA,NA,NA,NA,"","","",NA,"e",1,0.5366,NA,NA,NA,NA,NA,"自己","e","",NA,1,69,149,53,1,"",NA,"",NA,NA,NA,NA,NA,NA,NA,"",NA,"",NA,NA,NA,NA,NA,NA,NA,"","","",NA,"",NA,NA,NA,NA,NA,NA,NA,"",NA,"22"
"",NA,"",NA,"",NA,NA,NA,NA,NA,NA,"","",1,1,"2024-08-24_10h36.07.815","IAT(Formal)","2021.2.3","Win32",59.88023952,NA,"",NA,"",NA,NA,NA,NA,NA,NA,NA,"","","",NA,"e",1,0.823,NA,NA,NA,NA,NA,"乐观","e","",NA,1,70,150,14,1,"",NA,"",NA,NA,NA,NA,NA,NA,NA,"",NA,"",NA,NA,NA,NA,NA,NA,NA,"","","",NA,"",NA,NA,NA,NA,NA,NA,NA,"",NA,"22"
"",NA,"",NA,"",NA,NA,NA,NA,NA,NA,"","",1,1,"2024-08-24_10h36.07.815","IAT(Formal)","2021.2.3","Win32",59.88023952,NA,"",NA,"",NA,NA,NA,NA,NA,NA,NA,"","","",NA,"e",1,0.7838,NA,NA,NA,NA,NA,"认真","e","",NA,1,71,151,20,1,"",NA,"",NA,NA,NA,NA,NA,NA,NA,"",NA,"",NA,NA,NA,NA,NA,NA,NA,"","","",NA,"",NA,NA,NA,NA,NA,NA,NA,"",NA,"22"
"",NA,"",NA,"",NA,NA,NA,NA,NA,NA,"","",1,1,"2024-08-24_10h36.07.815","IAT(Formal)","2021.2.3","Win32",59.88023952,NA,"",NA,"",NA,NA,NA,NA,NA,NA,NA,"","","",NA,"e",1,0.5508,NA,NA,NA,NA,NA,"热情","e","",NA,1,72,152,27,1,"",NA,"",NA,NA,NA,NA,NA,NA,NA,"",NA,"",NA,NA,NA,NA,NA,NA,NA,"","","",NA,"",NA,NA,NA,NA,NA,NA,NA,"",NA,"22"
"",NA,"",NA,"",NA,NA,NA,NA,NA,NA,"","",1,1,"2024-08-24_10h36.07.815","IAT(Formal)","2021.2.3","Win32",59.88023952,NA,"",NA,"",NA,NA,NA,NA,NA,NA,NA,"","","",NA,"e",1,0.8613,NA,NA,NA,NA,NA,"俺","e","",NA,1,73,153,64,1,"",NA,"",NA,NA,NA,NA,NA,NA,NA,"",NA,"",NA,NA,NA,NA,NA,NA,NA,"","","",NA,"",NA,NA,NA,NA,NA,NA,NA,"",NA,"22"
"",NA,"",NA,"",NA,NA,NA,NA,NA,NA,"","",1,1,"2024-08-24_10h36.07.815","IAT(Formal)","2021.2.3","Win32",59.88023952,NA,"",NA,"",NA,NA,NA,NA,NA,NA,NA,"","","",NA,"i",1,0.9899,NA,NA,NA,NA,NA,"他人","i","",NA,1,74,154,8,1,"",NA,"",NA,NA,NA,NA,NA,NA,NA,"",NA,"",NA,NA,NA,NA,NA,NA,NA,"","","",NA,"",NA,NA,NA,NA,NA,NA,NA,"",NA,"22"
"",NA,"",NA,"",NA,NA,NA,NA,NA,NA,"","",1,1,"2024-08-24_10h36.07.815","IAT(Formal)","2021.2.3","Win32",59.88023952,NA,"",NA,"",NA,NA,NA,NA,NA,NA,NA,"","","",NA,"i",1,0.4839,NA,NA,NA,NA,NA,"他们","i","",NA,1,75,155,6,1,"",NA,"",NA,NA,NA,NA,NA,NA,NA,"",NA,"",NA,NA,NA,NA,NA,NA,NA,"","","",NA,"",NA,NA,NA,NA,NA,NA,NA,"",NA,"22"
"",NA,"",NA,"",NA,NA,NA,NA,NA,NA,"","",1,1,"2024-08-24_10h36.07.815","IAT(Formal)","2021.2.3","Win32",59.88023952,NA,"",NA,"",NA,NA,NA,NA,NA,NA,NA,"","","",NA,"i",1,0.6438,NA,NA,NA,NA,NA,"固执","i","",NA,1,76,156,47,1,"",NA,"",NA,NA,NA,NA,NA,NA,NA,"",NA,"",NA,NA,NA,NA,NA,NA,NA,"","","",NA,"",NA,NA,NA,NA,NA,NA,NA,"",NA,"22"
"",NA,"",NA,"",NA,NA,NA,NA,NA,NA,"","",1,1,"2024-08-24_10h36.07.815","IAT(Formal)","2021.2.3","Win32",59.88023952,NA,"",NA,"",NA,NA,NA,NA,NA,NA,NA,"","","",NA,"i",1,0.6064,NA,NA,NA,NA,NA,"卑鄙","i","",NA,1,77,157,30,1,"",NA,"",NA,NA,NA,NA,NA,NA,NA,"",NA,"",NA,NA,NA,NA,NA,NA,NA,"","","",NA,"",NA,NA,NA,NA,NA,NA,NA,"",NA,"22"
"",NA,"",NA,"",NA,NA,NA,NA,NA,NA,"","",1,1,"2024-08-24_10h36.07.815","IAT(Formal)","2021.2.3","Win32",59.88023952,NA,"",NA,"",NA,NA,NA,NA,NA,NA,NA,"","","",NA,"i",1,0.5441,NA,NA,NA,NA,NA,"他们","i","",NA,1,78,158,66,1,"",NA,"",NA,NA,NA,NA,NA,NA,NA,"",NA,"",NA,NA,NA,NA,NA,NA,NA,"","","",NA,"",NA,NA,NA,NA,NA,NA,NA,"",NA,"22"
"",NA,"",NA,"",NA,NA,NA,NA,NA,NA,"","",1,1,"2024-08-24_10h36.07.815","IAT(Formal)","2021.2.3","Win32",59.88023952,NA,"",NA,"",NA,NA,NA,NA,NA,NA,NA,"","","",NA,"i",1,0.6444,NA,NA,NA,NA,NA,"他们","i","",NA,1,79,159,76,1,"",NA,"",NA,NA,NA,NA,NA,NA,NA,"",NA,"",NA,NA,NA,NA,NA,NA,NA,"","","",NA,"",NA,NA,NA,NA,NA,NA,NA,"",NA,"22"
"",NA,"",NA,"",NA,NA,NA,NA,NA,NA,"我的","i",1,1,"2024-08-24_10h36.07.815","IAT(Formal)","2021.2.3","Win32",59.88023952,NA,"",NA,"",NA,NA,NA,NA,NA,NA,NA,"","","",NA,"",NA,NA,NA,NA,NA,NA,NA,"","","",NA,NA,NA,NA,NA,NA,"space",402.7452,"",0,0,0,0,1,1,NA,"",NA,"",NA,NA,NA,NA,NA,NA,NA,"","","",NA,"",NA,NA,NA,NA,NA,NA,NA,"",NA,"22"
"",NA,"",NA,"",NA,NA,NA,NA,NA,NA,"他们","e",1,1,"2024-08-24_10h36.07.815","IAT(Formal)","2021.2.3","Win32",59.88023952,NA,"",NA,"",NA,NA,NA,NA,NA,NA,NA,"","","",NA,"",NA,NA,NA,NA,NA,NA,NA,"","","",NA,NA,NA,NA,NA,NA,"",NA,"i",0,0,1,1,6,1,0.561,"",NA,"",NA,NA,NA,NA,NA,NA,NA,"","","",NA,"",NA,NA,NA,NA,NA,NA,NA,"",NA,"22"
"",NA,"",NA,"",NA,NA,NA,NA,NA,NA,"我","i",1,1,"2024-08-24_10h36.07.815","IAT(Formal)","2021.2.3","Win32",59.88023952,NA,"",NA,"",NA,NA,NA,NA,NA,NA,NA,"","","",NA,"",NA,NA,NA,NA,NA,NA,NA,"","","",NA,NA,NA,NA,NA,NA,"",NA,"i",1,0,2,2,0,1,0.7688,"",NA,"",NA,NA,NA,NA,NA,NA,NA,"","","",NA,"",NA,NA,NA,NA,NA,NA,NA,"",NA,"22"
"",NA,"",NA,"",NA,NA,NA,NA,NA,NA,"自己","i",1,1,"2024-08-24_10h36.07.815","IAT(Formal)","2021.2.3","Win32",59.88023952,NA,"",NA,"",NA,NA,NA,NA,NA,NA,NA,"","","",NA,"",NA,NA,NA,NA,NA,NA,NA,"","","",NA,NA,NA,NA,NA,NA,"",NA,"i",1,0,3,3,3,1,0.8392,"",NA,"",NA,NA,NA,NA,NA,NA,NA,"","","",NA,"",NA,NA,NA,NA,NA,NA,NA,"",NA,"22"
"",NA,"",NA,"",NA,NA,NA,NA,NA,NA,"他的","e",1,1,"2024-08-24_10h36.07.815","IAT(Formal)","2021.2.3","Win32",59.88023952,NA,"",NA,"",NA,NA,NA,NA,NA,NA,NA,"","","",NA,"",NA,NA,NA,NA,NA,NA,NA,"","","",NA,NA,NA,NA,NA,NA,"",NA,"e",1,0,4,4,7,1,0.7846,"",NA,"",NA,NA,NA,NA,NA,NA,NA,"","","",NA,"",NA,NA,NA,NA,NA,NA,NA,"",NA,"22"
"",NA,"",NA,"",NA,NA,NA,NA,NA,NA,"俺","i",1,1,"2024-08-24_10h36.07.815","IAT(Formal)","2021.2.3","Win32",59.88023952,NA,"",NA,"",NA,NA,NA,NA,NA,NA,NA,"","","",NA,"",NA,NA,NA,NA,NA,NA,NA,"","","",NA,NA,NA,NA,NA,NA,"",NA,"i",1,0,5,5,4,1,1.112,"",NA,"",NA,NA,NA,NA,NA,NA,NA,"","","",NA,"",NA,NA,NA,NA,NA,NA,NA,"",NA,"22"
"",NA,"",NA,"",NA,NA,NA,NA,NA,NA,"他人","e",1,1,"2024-08-24_10h36.07.815","IAT(Formal)","2021.2.3","Win32",59.88023952,NA,"",NA,"",NA,NA,NA,NA,NA,NA,NA,"","","",NA,"",NA,NA,NA,NA,NA,NA,NA,"","","",NA,NA,NA,NA,NA,NA,"",NA,"e",1,0,6,6,8,1,0.9685,"",NA,"",NA,NA,NA,NA,NA,NA,NA,"","","",NA,"",NA,NA,NA,NA,NA,NA,NA,"",NA,"22"
"",NA,"",NA,"",NA,NA,NA,NA,NA,NA,"他","e",1,1,"2024-08-24_10h36.07.815","IAT(Formal)","2021.2.3","Win32",59.88023952,NA,"",NA,"",NA,NA,NA,NA,NA,NA,NA,"","","",NA,"",NA,NA,NA,NA,NA,NA,NA,"","","",NA,NA,NA,NA,NA,NA,"",NA,"e",1,0,7,7,5,1,0.5902,"",NA,"",NA,NA,NA,NA,NA,NA,NA,"","","",NA,"",NA,NA,NA,NA,NA,NA,NA,"",NA,"22"
"",NA,"",NA,"",NA,NA,NA,NA,NA,NA,"其他","e",1,1,"2024-08-24_10h36.07.815","IAT(Formal)","2021.2.3","Win32",59.88023952,NA,"",NA,"",NA,NA,NA,NA,NA,NA,NA,"","","",NA,"",NA,NA,NA,NA,NA,NA,NA,"","","",NA,NA,NA,NA,NA,NA,"",NA,"e",1,0,8,8,9,1,0.4686,"",NA,"",NA,NA,NA,NA,NA,NA,NA,"","","",NA,"",NA,NA,NA,NA,NA,NA,NA,"",NA,"22"
"",NA,"",NA,"",NA,NA,NA,NA,NA,NA,"我们","i",1,1,"2024-08-24_10h36.07.815","IAT(Formal)","2021.2.3","Win32",59.88023952,NA,"",NA,"",NA,NA,NA,NA,NA,NA,NA,"","","",NA,"",NA,NA,NA,NA,NA,NA,NA,"","","",NA,NA,NA,NA,NA,NA,"",NA,"i",1,0,9,9,2,1,0.6074,"",NA,"",NA,NA,NA,NA,NA,NA,NA,"","","",NA,"",NA,NA,NA,NA,NA,NA,NA,"",NA,"22"
"",NA,"",NA,"",NA,NA,NA,NA,NA,NA,"","",1,1,"2024-08-24_10h36.07.815","IAT(Formal)","2021.2.3","Win32",59.88023952,NA,"",NA,"",NA,NA,NA,NA,NA,NA,NA,"","","",NA,"",NA,NA,NA,NA,NA,NA,NA,"","","",NA,NA,NA,NA,NA,NA,"",NA,"",NA,NA,NA,NA,NA,NA,NA,"space",4.313,"i",0,1.2402,0,0,0,77,1,"他的","e","",NA,"",NA,NA,NA,NA,NA,NA,NA,"",NA,"22"
"",NA,"",NA,"",NA,NA,NA,NA,NA,NA,"","",1,1,"2024-08-24_10h36.07.815","IAT(Formal)","2021.2.3","Win32",59.88023952,NA,"",NA,"",NA,NA,NA,NA,NA,NA,NA,"","","",NA,"",NA,NA,NA,NA,NA,NA,NA,"","","",NA,NA,NA,NA,NA,NA,"",NA,"",NA,NA,NA,NA,NA,NA,NA,"",NA,"i",1,0.9665,0,1,1,1,1,"我的","i","",NA,"",NA,NA,NA,NA,NA,NA,NA,"",NA,"22"
"",NA,"",NA,"",NA,NA,NA,NA,NA,NA,"","",1,1,"2024-08-24_10h36.07.815","IAT(Formal)","2021.2.3","Win32",59.88023952,NA,"",NA,"",NA,NA,NA,NA,NA,NA,NA,"","","",NA,"",NA,NA,NA,NA,NA,NA,NA,"","","",NA,NA,NA,NA,NA,NA,"",NA,"",NA,NA,NA,NA,NA,NA,NA,"",NA,"i",1,0.5839,0,2,2,63,1,"自己","i","",NA,"",NA,NA,NA,NA,NA,NA,NA,"",NA,"22"
"",NA,"",NA,"",NA,NA,NA,NA,NA,NA,"","",1,1,"2024-08-24_10h36.07.815","IAT(Formal)","2021.2.3","Win32",59.88023952,NA,"",NA,"",NA,NA,NA,NA,NA,NA,NA,"","","",NA,"",NA,NA,NA,NA,NA,NA,NA,"","","",NA,NA,NA,NA,NA,NA,"",NA,"",NA,NA,NA,NA,NA,NA,NA,"",NA,"",0,NA,0,3,3,79,1,"其他","e","",NA,"",NA,NA,NA,NA,NA,NA,NA,"",NA,"22"
"",NA,"",NA,"",NA,NA,NA,NA,NA,NA,"","",1,1,"2024-08-24_10h36.07.815","IAT(Formal)","2021.2.3","Win32",59.88023952,NA,"",NA,"",NA,NA,NA,NA,NA,NA,NA,"","","",NA,"",NA,NA,NA,NA,NA,NA,NA,"","","",NA,NA,NA,NA,NA,NA,"",NA,"",NA,NA,NA,NA,NA,NA,NA,"",NA,"i",1,0.605,0,4,4,52,1,"我们","i","",NA,"",NA,NA,NA,NA,NA,NA,NA,"",NA,"22"
