﻿Instruction1.keys,Instruction1.rt,Instruction2.keys,Instruction2.rt,key_resp_iso.keys,key_resp_iso.corr,key_resp_iso.rt,Practice_01.thisRepN,Practice_01.thisTrialN,Practice_01.thisN,Practice_01.thisIndex,Practice_01.ran,Words,ans,participant,session,date,expName,psychopyVersion,OS,frameRate,key_resp_3.keys,key_resp_3.rt,key_resp_ipn.keys,key_resp_ipn.corr,key_resp_ipn.rt,Practice_02.thisRepN,Practice_02.thisTrialN,Practice_02.thisN,Practice_02.thisIndex,Practice_02.ran,Words_ipn,ans_ipn,key_resp_4.keys,key_resp_4.rt,key_resp_t1.keys,key_resp_t1.corr,key_resp_t1.rt,Practice_T1.thisRepN,Practice_T1.thisTrialN,Practice_T1.thisN,Practice_T1.thisIndex,Practice_T1.ran,Words_t1,ans_t1,key_resp_5.keys,key_resp_5.rt,Formal_T1.thisRepN,Formal_T1.thisTrialN,Formal_T1.thisN,Formal_T1.thisIndex,Formal_T1.ran,key_resp_6.keys,key_resp_6.rt,key_resp_iso_reverse.keys,key_resp_iso_reverse.corr,key_resp_iso_reverse.rt,Practice_iso_Reverse.thisRepN,Practice_iso_Reverse.thisTrialN,Practice_iso_Reverse.thisN,Practice_iso_Reverse.thisIndex,Practice_iso_Reverse.ran,key_resp_7.keys,key_resp_7.rt,key_resp_t2_Practice.keys,key_resp_t2_Practice.corr,key_resp_t2_Practice.rt,Practice_t2_Reverse.thisRepN,Practice_t2_Reverse.thisTrialN,Practice_t2_Reverse.thisN,Practice_t2_Reverse.thisIndex,Practice_t2_Reverse.ran,Words_t2,ans_t2,key_resp_8.keys,key_resp_8.rt,key_resp_t2.keys,key_resp_t2.corr,key_resp_t2.rt,Formal_t2_reverse.thisRepN,Formal_t2_reverse.thisTrialN,Formal_t2_reverse.thisN,Formal_t2_reverse.thisIndex,Formal_t2_reverse.ran,key_instruct.keys,key_instruct.rt
space,6.7464,space,15.7905,e,1,0.5046,0,0,0,0,1,我,e,1,001,2024-08-24_13h51.38.038,IAT(Formal),2021.2.3,Win32,59.52380952,,,,,,,,,,,,,,,,,,,,,,,,,,,,,,,,,,,,,,,,,,,,,,,,,,,,,,,,,,,,,,,,,
,,,,e,1,0.4207,0,1,1,3,1,自己,e,1,001,2024-08-24_13h51.38.038,IAT(Formal),2021.2.3,Win32,59.52380952,,,,,,,,,,,,,,,,,,,,,,,,,,,,,,,,,,,,,,,,,,,,,,,,,,,,,,,,,,,,,,,,,
,,,,i,1,0.5096,0,2,2,5,1,他,i,1,001,2024-08-24_13h51.38.038,IAT(Formal),2021.2.3,Win32,59.52380952,,,,,,,,,,,,,,,,,,,,,,,,,,,,,,,,,,,,,,,,,,,,,,,,,,,,,,,,,,,,,,,,,
,,,,e,1,0.4878,0,3,3,1,1,我的,e,1,001,2024-08-24_13h51.38.038,IAT(Formal),2021.2.3,Win32,59.52380952,,,,,,,,,,,,,,,,,,,,,,,,,,,,,,,,,,,,,,,,,,,,,,,,,,,,,,,,,,,,,,,,,
,,,,i,1,0.6032,0,4,4,7,1,他的,i,1,001,2024-08-24_13h51.38.038,IAT(Formal),2021.2.3,Win32,59.52380952,,,,,,,,,,,,,,,,,,,,,,,,,,,,,,,,,,,,,,,,,,,,,,,,,,,,,,,,,,,,,,,,,
,,,,i,1,0.5236,0,5,5,6,1,他们,i,1,001,2024-08-24_13h51.38.038,IAT(Formal),2021.2.3,Win32,59.52380952,,,,,,,,,,,,,,,,,,,,,,,,,,,,,,,,,,,,,,,,,,,,,,,,,,,,,,,,,,,,,,,,,
,,,,e,1,0.4812,0,6,6,2,1,我们,e,1,001,2024-08-24_13h51.38.038,IAT(Formal),2021.2.3,Win32,59.52380952,,,,,,,,,,,,,,,,,,,,,,,,,,,,,,,,,,,,,,,,,,,,,,,,,,,,,,,,,,,,,,,,,
,,,,e,1,0.6954,0,7,7,4,1,俺,e,1,001,2024-08-24_13h51.38.038,IAT(Formal),2021.2.3,Win32,59.52380952,,,,,,,,,,,,,,,,,,,,,,,,,,,,,,,,,,,,,,,,,,,,,,,,,,,,,,,,,,,,,,,,,
,,,,i,1,0.4462,0,8,8,8,1,他人,i,1,001,2024-08-24_13h51.38.038,IAT(Formal),2021.2.3,Win32,59.52380952,,,,,,,,,,,,,,,,,,,,,,,,,,,,,,,,,,,,,,,,,,,,,,,,,,,,,,,,,,,,,,,,,
,,,,i,1,0.745,0,9,9,9,1,其他,i,1,001,2024-08-24_13h51.38.038,IAT(Formal),2021.2.3,Win32,59.52380952,,,,,,,,,,,,,,,,,,,,,,,,,,,,,,,,,,,,,,,,,,,,,,,,,,,,,,,,,,,,,,,,,
,,,,,,,,,,,,,,1,001,2024-08-24_13h51.38.038,IAT(Formal),2021.2.3,Win32,59.52380952,space,5.9969,e,1,0.508,0,0,0,8,1,勤奋,e,,,,,,,,,,,,,,,,,,,,,,,,,,,,,,,,,,,,,,,,,,,,,,,,,,,,,
,,,,,,,,,,,,,,1,001,2024-08-24_13h51.38.038,IAT(Formal),2021.2.3,Win32,59.52380952,,,i,1,0.5744,0,1,1,22,1,愚蠢,i,,,,,,,,,,,,,,,,,,,,,,,,,,,,,,,,,,,,,,,,,,,,,,,,,,,,,
,,,,,,,,,,,,,,1,001,2024-08-24_13h51.38.038,IAT(Formal),2021.2.3,Win32,59.52380952,,,i,1,0.5801,0,2,2,39,1,下贱,i,,,,,,,,,,,,,,,,,,,,,,,,,,,,,,,,,,,,,,,,,,,,,,,,,,,,,
,,,,,,,,,,,,,,1,001,2024-08-24_13h51.38.038,IAT(Formal),2021.2.3,Win32,59.52380952,,,e,1,0.5333,0,3,3,2,1,聪明,e,,,,,,,,,,,,,,,,,,,,,,,,,,,,,,,,,,,,,,,,,,,,,,,,,,,,,
,,,,,,,,,,,,,,1,001,2024-08-24_13h51.38.038,IAT(Formal),2021.2.3,Win32,59.52380952,,,e,0,0.8798,0,4,4,37,1,固执,i,,,,,,,,,,,,,,,,,,,,,,,,,,,,,,,,,,,,,,,,,,,,,,,,,,,,,
,,,,,,,,,,,,,,1,001,2024-08-24_13h51.38.038,IAT(Formal),2021.2.3,Win32,59.52380952,,,e,1,0.6108,0,5,5,17,1,热情,e,,,,,,,,,,,,,,,,,,,,,,,,,,,,,,,,,,,,,,,,,,,,,,,,,,,,,
,,,,,,,,,,,,,,1,001,2024-08-24_13h51.38.038,IAT(Formal),2021.2.3,Win32,59.52380952,,,i,1,0.6254,0,6,6,23,1,刻薄,i,,,,,,,,,,,,,,,,,,,,,,,,,,,,,,,,,,,,,,,,,,,,,,,,,,,,,
,,,,,,,,,,,,,,1,001,2024-08-24_13h51.38.038,IAT(Formal),2021.2.3,Win32,59.52380952,,,i,1,0.9575,0,7,7,38,1,轻率,i,,,,,,,,,,,,,,,,,,,,,,,,,,,,,,,,,,,,,,,,,,,,,,,,,,,,,
,,,,,,,,,,,,,,1,001,2024-08-24_13h51.38.038,IAT(Formal),2021.2.3,Win32,59.52380952,,,e,1,0.5934,0,8,8,9,1,机智,e,,,,,,,,,,,,,,,,,,,,,,,,,,,,,,,,,,,,,,,,,,,,,,,,,,,,,
,,,,,,,,,,,,,,1,001,2024-08-24_13h51.38.038,IAT(Formal),2021.2.3,Win32,59.52380952,,,i,1,0.6227,0,9,9,25,1,消极,i,,,,,,,,,,,,,,,,,,,,,,,,,,,,,,,,,,,,,,,,,,,,,,,,,,,,,
,,,,,,,,,,,,,,1,001,2024-08-24_13h51.38.038,IAT(Formal),2021.2.3,Win32,59.52380952,,,i,1,0.8807,0,10,10,31,1,散漫,i,,,,,,,,,,,,,,,,,,,,,,,,,,,,,,,,,,,,,,,,,,,,,,,,,,,,,
,,,,,,,,,,,,,,1,001,2024-08-24_13h51.38.038,IAT(Formal),2021.2.3,Win32,59.52380952,,,e,1,0.5861,0,11,11,6,1,正直,e,,,,,,,,,,,,,,,,,,,,,,,,,,,,,,,,,,,,,,,,,,,,,,,,,,,,,
,,,,,,,,,,,,,,1,001,2024-08-24_13h51.38.038,IAT(Formal),2021.2.3,Win32,59.52380952,,,i,1,0.6773,0,12,12,28,1,鲁莽,i,,,,,,,,,,,,,,,,,,,,,,,,,,,,,,,,,,,,,,,,,,,,,,,,,,,,,
,,,,,,,,,,,,,,1,001,2024-08-24_13h51.38.038,IAT(Formal),2021.2.3,Win32,59.52380952,,,e,1,0.7314,0,13,13,10,1,认真,e,,,,,,,,,,,,,,,,,,,,,,,,,,,,,,,,,,,,,,,,,,,,,,,,,,,,,
,,,,,,,,,,,,,,1,001,2024-08-24_13h51.38.038,IAT(Formal),2021.2.3,Win32,59.52380952,,,e,1,0.6766,0,14,14,0,1,优秀,e,,,,,,,,,,,,,,,,,,,,,,,,,,,,,,,,,,,,,,,,,,,,,,,,,,,,,
,,,,,,,,,,,,,,1,001,2024-08-24_13h51.38.038,IAT(Formal),2021.2.3,Win32,59.52380952,,,i,1,0.5629,0,15,15,34,1,暴躁,i,,,,,,,,,,,,,,,,,,,,,,,,,,,,,,,,,,,,,,,,,,,,,,,,,,,,,
,,,,,,,,,,,,,,1,001,2024-08-24_13h51.38.038,IAT(Formal),2021.2.3,Win32,59.52380952,,,i,1,0.7142,0,16,16,26,1,自卑,i,,,,,,,,,,,,,,,,,,,,,,,,,,,,,,,,,,,,,,,,,,,,,,,,,,,,,
,,,,,,,,,,,,,,1,001,2024-08-24_13h51.38.038,IAT(Formal),2021.2.3,Win32,59.52380952,,,i,1,0.7338,0,17,17,33,1,自私,i,,,,,,,,,,,,,,,,,,,,,,,,,,,,,,,,,,,,,,,,,,,,,,,,,,,,,
,,,,,,,,,,,,,,1,001,2024-08-24_13h51.38.038,IAT(Formal),2021.2.3,Win32,59.52380952,,,i,1,0.7649,0,18,18,21,1,虚伪,i,,,,,,,,,,,,,,,,,,,,,,,,,,,,,,,,,,,,,,,,,,,,,,,,,,,,,
,,,,,,,,,,,,,,1,001,2024-08-24_13h51.38.038,IAT(Formal),2021.2.3,Win32,59.52380952,,,e,1,0.5965,0,19,19,14,1,朴实,e,,,,,,,,,,,,,,,,,,,,,,,,,,,,,,,,,,,,,,,,,,,,,,,,,,,,,
,,,,,,,,,,,,,,1,001,2024-08-24_13h51.38.038,IAT(Formal),2021.2.3,Win32,59.52380952,,,e,1,0.5798,0,20,20,13,1,公正,e,,,,,,,,,,,,,,,,,,,,,,,,,,,,,,,,,,,,,,,,,,,,,,,,,,,,,
,,,,,,,,,,,,,,1,001,2024-08-24_13h51.38.038,IAT(Formal),2021.2.3,Win32,59.52380952,,,i,1,1.1579,0,21,21,35,1,猖狂,i,,,,,,,,,,,,,,,,,,,,,,,,,,,,,,,,,,,,,,,,,,,,,,,,,,,,,
,,,,,,,,,,,,,,1,001,2024-08-24_13h51.38.038,IAT(Formal),2021.2.3,Win32,59.52380952,,,e,1,0.5562,0,22,22,4,1,乐观,e,,,,,,,,,,,,,,,,,,,,,,,,,,,,,,,,,,,,,,,,,,,,,,,,,,,,,
,,,,,,,,,,,,,,1,001,2024-08-24_13h51.38.038,IAT(Formal),2021.2.3,Win32,59.52380952,,,e,1,0.4771,0,23,23,5,1,诚实,e,,,,,,,,,,,,,,,,,,,,,,,,,,,,,,,,,,,,,,,,,,,,,,,,,,,,,
,,,,,,,,,,,,,,1,001,2024-08-24_13h51.38.038,IAT(Formal),2021.2.3,Win32,59.52380952,,,i,1,1.3934,0,24,24,36,1,野蛮,i,,,,,,,,,,,,,,,,,,,,,,,,,,,,,,,,,,,,,,,,,,,,,,,,,,,,,
,,,,,,,,,,,,,,1,001,2024-08-24_13h51.38.038,IAT(Formal),2021.2.3,Win32,59.52380952,,,i,1,0.6105,0,25,25,29,1,冒失,i,,,,,,,,,,,,,,,,,,,,,,,,,,,,,,,,,,,,,,,,,,,,,,,,,,,,,
,,,,,,,,,,,,,,1,001,2024-08-24_13h51.38.038,IAT(Formal),2021.2.3,Win32,59.52380952,,,e,1,0.5954,0,26,26,1,1,崇高,e,,,,,,,,,,,,,,,,,,,,,,,,,,,,,,,,,,,,,,,,,,,,,,,,,,,,,
,,,,,,,,,,,,,,1,001,2024-08-24_13h51.38.038,IAT(Formal),2021.2.3,Win32,59.52380952,,,e,1,0.9789,0,27,27,18,1,活泼,e,,,,,,,,,,,,,,,,,,,,,,,,,,,,,,,,,,,,,,,,,,,,,,,,,,,,,
,,,,,,,,,,,,,,1,001,2024-08-24_13h51.38.038,IAT(Formal),2021.2.3,Win32,59.52380952,,,e,1,0.7626,0,28,28,15,1,细腻,e,,,,,,,,,,,,,,,,,,,,,,,,,,,,,,,,,,,,,,,,,,,,,,,,,,,,,
,,,,,,,,,,,,,,1,001,2024-08-24_13h51.38.038,IAT(Formal),2021.2.3,Win32,59.52380952,,,i,1,0.6392,0,29,29,27,1,傲慢,i,,,,,,,,,,,,,,,,,,,,,,,,,,,,,,,,,,,,,,,,,,,,,,,,,,,,,
,,,,,,,,,,,,,,1,001,2024-08-24_13h51.38.038,IAT(Formal),2021.2.3,Win32,59.52380952,,,e,1,0.735,0,30,30,16,1,冷静,e,,,,,,,,,,,,,,,,,,,,,,,,,,,,,,,,,,,,,,,,,,,,,,,,,,,,,
,,,,,,,,,,,,,,1,001,2024-08-24_13h51.38.038,IAT(Formal),2021.2.3,Win32,59.52380952,,,e,1,0.7536,0,31,31,3,1,杰出,e,,,,,,,,,,,,,,,,,,,,,,,,,,,,,,,,,,,,,,,,,,,,,,,,,,,,,
,,,,,,,,,,,,,,1,001,2024-08-24_13h51.38.038,IAT(Formal),2021.2.3,Win32,59.52380952,,,e,1,0.8498,0,32,32,12,1,无私,e,,,,,,,,,,,,,,,,,,,,,,,,,,,,,,,,,,,,,,,,,,,,,,,,,,,,,
,,,,,,,,,,,,,,1,001,2024-08-24_13h51.38.038,IAT(Formal),2021.2.3,Win32,59.52380952,,,,0,,0,33,33,20,1,卑鄙,i,,,,,,,,,,,,,,,,,,,,,,,,,,,,,,,,,,,,,,,,,,,,,,,,,,,,,
,,,,,,,,,,,,,,1,001,2024-08-24_13h51.38.038,IAT(Formal),2021.2.3,Win32,59.52380952,,,i,1,0.5986,0,34,34,24,1,悲观,i,,,,,,,,,,,,,,,,,,,,,,,,,,,,,,,,,,,,,,,,,,,,,,,,,,,,,
,,,,,,,,,,,,,,1,001,2024-08-24_13h51.38.038,IAT(Formal),2021.2.3,Win32,59.52380952,,,i,1,0.5319,0,35,35,30,1,执拗,i,,,,,,,,,,,,,,,,,,,,,,,,,,,,,,,,,,,,,,,,,,,,,,,,,,,,,
,,,,,,,,,,,,,,1,001,2024-08-24_13h51.38.038,IAT(Formal),2021.2.3,Win32,59.52380952,,,e,1,0.6799,0,36,36,7,1,勇敢,e,,,,,,,,,,,,,,,,,,,,,,,,,,,,,,,,,,,,,,,,,,,,,,,,,,,,,
,,,,,,,,,,,,,,1,001,2024-08-24_13h51.38.038,IAT(Formal),2021.2.3,Win32,59.52380952,,,e,1,0.4865,0,37,37,19,1,诚恳,e,,,,,,,,,,,,,,,,,,,,,,,,,,,,,,,,,,,,,,,,,,,,,,,,,,,,,
,,,,,,,,,,,,,,1,001,2024-08-24_13h51.38.038,IAT(Formal),2021.2.3,Win32,59.52380952,,,i,1,0.6112,0,38,38,32,1,凶狠,i,,,,,,,,,,,,,,,,,,,,,,,,,,,,,,,,,,,,,,,,,,,,,,,,,,,,,
,,,,,,,,,,,,,,1,001,2024-08-24_13h51.38.038,IAT(Formal),2021.2.3,Win32,59.52380952,,,e,1,0.8083,0,39,39,11,1,稳重,e,,,,,,,,,,,,,,,,,,,,,,,,,,,,,,,,,,,,,,,,,,,,,,,,,,,,,
,,,,,,,,,,,,,,1,001,2024-08-24_13h51.38.038,IAT(Formal),2021.2.3,Win32,59.52380952,,,,,,,,,,,,,space,7.3867,e,1,0.4544,0,0,0,54,1,俺,e,,,,,,,,,,,,,,,,,,,,,,,,,,,,,,,,,,,,,,,,,
,,,,,,,,,,,,,,1,001,2024-08-24_13h51.38.038,IAT(Formal),2021.2.3,Win32,59.52380952,,,,,,,,,,,,,,,e,1,0.4392,0,1,1,51,1,我的,e,,,,,,,,,,,,,,,,,,,,,,,,,,,,,,,,,,,,,,,,,
,,,,,,,,,,,,,,1,001,2024-08-24_13h51.38.038,IAT(Formal),2021.2.3,Win32,59.52380952,,,,,,,,,,,,,,,e,1,0.7042,0,2,2,21,1,稳重,e,,,,,,,,,,,,,,,,,,,,,,,,,,,,,,,,,,,,,,,,,
,,,,,,,,,,,,,,1,001,2024-08-24_13h51.38.038,IAT(Formal),2021.2.3,Win32,59.52380952,,,,,,,,,,,,,,,i,1,0.6245,0,3,3,30,1,卑鄙,i,,,,,,,,,,,,,,,,,,,,,,,,,,,,,,,,,,,,,,,,,
,,,,,,,,,,,,,,1,001,2024-08-24_13h51.38.038,IAT(Formal),2021.2.3,Win32,59.52380952,,,,,,,,,,,,,,,e,1,0.6643,0,4,4,64,1,俺,e,,,,,,,,,,,,,,,,,,,,,,,,,,,,,,,,,,,,,,,,,
,,,,,,,,,,,,,,1,001,2024-08-24_13h51.38.038,IAT(Formal),2021.2.3,Win32,59.52380952,,,,,,,,,,,,,,,,0,,0,5,5,0,1,我,e,,,,,,,,,,,,,,,,,,,,,,,,,,,,,,,,,,,,,,,,,
,,,,,,,,,,,,,,1,001,2024-08-24_13h51.38.038,IAT(Formal),2021.2.3,Win32,59.52380952,,,,,,,,,,,,,,,e,1,0.4893,0,6,6,60,1,我,e,,,,,,,,,,,,,,,,,,,,,,,,,,,,,,,,,,,,,,,,,
,,,,,,,,,,,,,,1,001,2024-08-24_13h51.38.038,IAT(Formal),2021.2.3,Win32,59.52380952,,,,,,,,,,,,,,,i,1,0.5861,0,7,7,7,1,他的,i,,,,,,,,,,,,,,,,,,,,,,,,,,,,,,,,,,,,,,,,,
,,,,,,,,,,,,,,1,001,2024-08-24_13h51.38.038,IAT(Formal),2021.2.3,Win32,59.52380952,,,,,,,,,,,,,,,i,1,0.5451,0,8,8,46,1,野蛮,i,,,,,,,,,,,,,,,,,,,,,,,,,,,,,,,,,,,,,,,,,
,,,,,,,,,,,,,,1,001,2024-08-24_13h51.38.038,IAT(Formal),2021.2.3,Win32,59.52380952,,,,,,,,,,,,,,,e,1,0.6726,0,9,9,1,1,我的,e,,,,,,,,,,,,,,,,,,,,,,,,,,,,,,,,,,,,,,,,,
,,,,,,,,,,,,,,1,001,2024-08-24_13h51.38.038,IAT(Formal),2021.2.3,Win32,59.52380952,,,,,,,,,,,,,,,e,0,0.6555,0,10,10,48,1,轻率,i,,,,,,,,,,,,,,,,,,,,,,,,,,,,,,,,,,,,,,,,,
,,,,,,,,,,,,,,1,001,2024-08-24_13h51.38.038,IAT(Formal),2021.2.3,Win32,59.52380952,,,,,,,,,,,,,,,i,1,0.7186,0,11,11,31,1,虚伪,i,,,,,,,,,,,,,,,,,,,,,,,,,,,,,,,,,,,,,,,,,
,,,,,,,,,,,,,,1,001,2024-08-24_13h51.38.038,IAT(Formal),2021.2.3,Win32,59.52380952,,,,,,,,,,,,,,,e,1,0.6638,0,12,12,74,1,俺,e,,,,,,,,,,,,,,,,,,,,,,,,,,,,,,,,,,,,,,,,,
,,,,,,,,,,,,,,1,001,2024-08-24_13h51.38.038,IAT(Formal),2021.2.3,Win32,59.52380952,,,,,,,,,,,,,,,e,1,0.4148,0,13,13,71,1,我的,e,,,,,,,,,,,,,,,,,,,,,,,,,,,,,,,,,,,,,,,,,
,,,,,,,,,,,,,,1,001,2024-08-24_13h51.38.038,IAT(Formal),2021.2.3,Win32,59.52380952,,,,,,,,,,,,,,,i,1,0.5801,0,14,14,35,1,消极,i,,,,,,,,,,,,,,,,,,,,,,,,,,,,,,,,,,,,,,,,,
,,,,,,,,,,,,,,1,001,2024-08-24_13h51.38.038,IAT(Formal),2021.2.3,Win32,59.52380952,,,,,,,,,,,,,,,i,1,0.9623,0,15,15,57,1,他的,i,,,,,,,,,,,,,,,,,,,,,,,,,,,,,,,,,,,,,,,,,
,,,,,,,,,,,,,,1,001,2024-08-24_13h51.38.038,IAT(Formal),2021.2.3,Win32,59.52380952,,,,,,,,,,,,,,,i,1,0.594,0,16,16,56,1,他们,i,,,,,,,,,,,,,,,,,,,,,,,,,,,,,,,,,,,,,,,,,
,,,,,,,,,,,,,,1,001,2024-08-24_13h51.38.038,IAT(Formal),2021.2.3,Win32,59.52380952,,,,,,,,,,,,,,,e,1,0.7182,0,17,17,2,1,我们,e,,,,,,,,,,,,,,,,,,,,,,,,,,,,,,,,,,,,,,,,,
,,,,,,,,,,,,,,1,001,2024-08-24_13h51.38.038,IAT(Formal),2021.2.3,Win32,59.52380952,,,,,,,,,,,,,,,,0,,0,18,18,10,1,优秀,e,,,,,,,,,,,,,,,,,,,,,,,,,,,,,,,,,,,,,,,,,
,,,,,,,,,,,,,,1,001,2024-08-24_13h51.38.038,IAT(Formal),2021.2.3,Win32,59.52380952,,,,,,,,,,,,,,,i,0,0.817,0,19,19,24,1,朴实,e,,,,,,,,,,,,,,,,,,,,,,,,,,,,,,,,,,,,,,,,,
,,,,,,,,,,,,,,1,001,2024-08-24_13h51.38.038,IAT(Formal),2021.2.3,Win32,59.52380952,,,,,,,,,,,,,,,i,1,0.6556,0,20,20,47,1,固执,i,,,,,,,,,,,,,,,,,,,,,,,,,,,,,,,,,,,,,,,,,
,,,,,,,,,,,,,,1,001,2024-08-24_13h51.38.038,IAT(Formal),2021.2.3,Win32,59.52380952,,,,,,,,,,,,,,,e,1,0.916,0,21,21,23,1,公正,e,,,,,,,,,,,,,,,,,,,,,,,,,,,,,,,,,,,,,,,,,
,,,,,,,,,,,,,,1,001,2024-08-24_13h51.38.038,IAT(Formal),2021.2.3,Win32,59.52380952,,,,,,,,,,,,,,,i,1,0.7955,0,22,22,43,1,自私,i,,,,,,,,,,,,,,,,,,,,,,,,,,,,,,,,,,,,,,,,,
,,,,,,,,,,,,,,1,001,2024-08-24_13h51.38.038,IAT(Formal),2021.2.3,Win32,59.52380952,,,,,,,,,,,,,,,e,1,0.6374,0,23,23,26,1,冷静,e,,,,,,,,,,,,,,,,,,,,,,,,,,,,,,,,,,,,,,,,,
,,,,,,,,,,,,,,1,001,2024-08-24_13h51.38.038,IAT(Formal),2021.2.3,Win32,59.52380952,,,,,,,,,,,,,,,,0,,0,24,24,49,1,下贱,i,,,,,,,,,,,,,,,,,,,,,,,,,,,,,,,,,,,,,,,,,
,,,,,,,,,,,,,,1,001,2024-08-24_13h51.38.038,IAT(Formal),2021.2.3,Win32,59.52380952,,,,,,,,,,,,,,,,0,,0,25,25,8,1,他人,i,,,,,,,,,,,,,,,,,,,,,,,,,,,,,,,,,,,,,,,,,
,,,,,,,,,,,,,,1,001,2024-08-24_13h51.38.038,IAT(Formal),2021.2.3,Win32,59.52380952,,,,,,,,,,,,,,,e,1,0.526,0,26,26,62,1,我们,e,,,,,,,,,,,,,,,,,,,,,,,,,,,,,,,,,,,,,,,,,
,,,,,,,,,,,,,,1,001,2024-08-24_13h51.38.038,IAT(Formal),2021.2.3,Win32,59.52380952,,,,,,,,,,,,,,,i,1,0.7438,0,27,27,79,1,其他,i,,,,,,,,,,,,,,,,,,,,,,,,,,,,,,,,,,,,,,,,,
,,,,,,,,,,,,,,1,001,2024-08-24_13h51.38.038,IAT(Formal),2021.2.3,Win32,59.52380952,,,,,,,,,,,,,,,e,1,0.5331,0,28,28,14,1,乐观,e,,,,,,,,,,,,,,,,,,,,,,,,,,,,,,,,,,,,,,,,,
,,,,,,,,,,,,,,1,001,2024-08-24_13h51.38.038,IAT(Formal),2021.2.3,Win32,59.52380952,,,,,,,,,,,,,,,i,1,0.8303,0,29,29,9,1,其他,i,,,,,,,,,,,,,,,,,,,,,,,,,,,,,,,,,,,,,,,,,
,,,,,,,,,,,,,,1,001,2024-08-24_13h51.38.038,IAT(Formal),2021.2.3,Win32,59.52380952,,,,,,,,,,,,,,,,0,,0,30,30,32,1,愚蠢,i,,,,,,,,,,,,,,,,,,,,,,,,,,,,,,,,,,,,,,,,,
,,,,,,,,,,,,,,1,001,2024-08-24_13h51.38.038,IAT(Formal),2021.2.3,Win32,59.52380952,,,,,,,,,,,,,,,e,0,0.5161,0,31,31,75,1,他,i,,,,,,,,,,,,,,,,,,,,,,,,,,,,,,,,,,,,,,,,,
,,,,,,,,,,,,,,1,001,2024-08-24_13h51.38.038,IAT(Formal),2021.2.3,Win32,59.52380952,,,,,,,,,,,,,,,e,1,0.5782,0,32,32,72,1,我们,e,,,,,,,,,,,,,,,,,,,,,,,,,,,,,,,,,,,,,,,,,
,,,,,,,,,,,,,,1,001,2024-08-24_13h51.38.038,IAT(Formal),2021.2.3,Win32,59.52380952,,,,,,,,,,,,,,,i,1,0.7377,0,33,33,78,1,他人,i,,,,,,,,,,,,,,,,,,,,,,,,,,,,,,,,,,,,,,,,,
,,,,,,,,,,,,,,1,001,2024-08-24_13h51.38.038,IAT(Formal),2021.2.3,Win32,59.52380952,,,,,,,,,,,,,,,e,1,0.796,0,34,34,73,1,自己,e,,,,,,,,,,,,,,,,,,,,,,,,,,,,,,,,,,,,,,,,,
,,,,,,,,,,,,,,1,001,2024-08-24_13h51.38.038,IAT(Formal),2021.2.3,Win32,59.52380952,,,,,,,,,,,,,,,,0,,0,35,35,41,1,散漫,i,,,,,,,,,,,,,,,,,,,,,,,,,,,,,,,,,,,,,,,,,
,,,,,,,,,,,,,,1,001,2024-08-24_13h51.38.038,IAT(Formal),2021.2.3,Win32,59.52380952,,,,,,,,,,,,,,,,0,,0,36,36,27,1,热情,e,,,,,,,,,,,,,,,,,,,,,,,,,,,,,,,,,,,,,,,,,
,,,,,,,,,,,,,,1,001,2024-08-24_13h51.38.038,IAT(Formal),2021.2.3,Win32,59.52380952,,,,,,,,,,,,,,,e,1,0.6234,0,37,37,4,1,俺,e,,,,,,,,,,,,,,,,,,,,,,,,,,,,,,,,,,,,,,,,,
,,,,,,,,,,,,,,1,001,2024-08-24_13h51.38.038,IAT(Formal),2021.2.3,Win32,59.52380952,,,,,,,,,,,,,,,i,1,0.8769,0,38,38,39,1,冒失,i,,,,,,,,,,,,,,,,,,,,,,,,,,,,,,,,,,,,,,,,,
,,,,,,,,,,,,,,1,001,2024-08-24_13h51.38.038,IAT(Formal),2021.2.3,Win32,59.52380952,,,,,,,,,,,,,,,i,1,0.7171,0,39,39,55,1,他,i,,,,,,,,,,,,,,,,,,,,,,,,,,,,,,,,,,,,,,,,,
,,,,,,,,,,,,,,1,001,2024-08-24_13h51.38.038,IAT(Formal),2021.2.3,Win32,59.52380952,,,,,,,,,,,,,,,i,1,0.5395,0,40,40,65,1,他,i,,,,,,,,,,,,,,,,,,,,,,,,,,,,,,,,,,,,,,,,,
,,,,,,,,,,,,,,1,001,2024-08-24_13h51.38.038,IAT(Formal),2021.2.3,Win32,59.52380952,,,,,,,,,,,,,,,e,1,0.5558,0,41,41,12,1,聪明,e,,,,,,,,,,,,,,,,,,,,,,,,,,,,,,,,,,,,,,,,,
,,,,,,,,,,,,,,1,001,2024-08-24_13h51.38.038,IAT(Formal),2021.2.3,Win32,59.52380952,,,,,,,,,,,,,,,i,1,0.5113,0,42,42,76,1,他们,i,,,,,,,,,,,,,,,,,,,,,,,,,,,,,,,,,,,,,,,,,
,,,,,,,,,,,,,,1,001,2024-08-24_13h51.38.038,IAT(Formal),2021.2.3,Win32,59.52380952,,,,,,,,,,,,,,,i,1,0.6826,0,43,43,68,1,他人,i,,,,,,,,,,,,,,,,,,,,,,,,,,,,,,,,,,,,,,,,,
,,,,,,,,,,,,,,1,001,2024-08-24_13h51.38.038,IAT(Formal),2021.2.3,Win32,59.52380952,,,,,,,,,,,,,,,e,1,1.2577,0,44,44,70,1,我,e,,,,,,,,,,,,,,,,,,,,,,,,,,,,,,,,,,,,,,,,,
,,,,,,,,,,,,,,1,001,2024-08-24_13h51.38.038,IAT(Formal),2021.2.3,Win32,59.52380952,,,,,,,,,,,,,,,e,1,0.6294,0,45,45,29,1,诚恳,e,,,,,,,,,,,,,,,,,,,,,,,,,,,,,,,,,,,,,,,,,
,,,,,,,,,,,,,,1,001,2024-08-24_13h51.38.038,IAT(Formal),2021.2.3,Win32,59.52380952,,,,,,,,,,,,,,,i,1,1.1254,0,46,46,33,1,刻薄,i,,,,,,,,,,,,,,,,,,,,,,,,,,,,,,,,,,,,,,,,,
,,,,,,,,,,,,,,1,001,2024-08-24_13h51.38.038,IAT(Formal),2021.2.3,Win32,59.52380952,,,,,,,,,,,,,,,,0,,0,47,47,22,1,无私,e,,,,,,,,,,,,,,,,,,,,,,,,,,,,,,,,,,,,,,,,,
,,,,,,,,,,,,,,1,001,2024-08-24_13h51.38.038,IAT(Formal),2021.2.3,Win32,59.52380952,,,,,,,,,,,,,,,e,1,0.5837,0,48,48,19,1,机智,e,,,,,,,,,,,,,,,,,,,,,,,,,,,,,,,,,,,,,,,,,
,,,,,,,,,,,,,,1,001,2024-08-24_13h51.38.038,IAT(Formal),2021.2.3,Win32,59.52380952,,,,,,,,,,,,,,,e,1,0.4004,0,49,49,3,1,自己,e,,,,,,,,,,,,,,,,,,,,,,,,,,,,,,,,,,,,,,,,,
,,,,,,,,,,,,,,1,001,2024-08-24_13h51.38.038,IAT(Formal),2021.2.3,Win32,59.52380952,,,,,,,,,,,,,,,i,1,0.6338,0,50,50,34,1,悲观,i,,,,,,,,,,,,,,,,,,,,,,,,,,,,,,,,,,,,,,,,,
,,,,,,,,,,,,,,1,001,2024-08-24_13h51.38.038,IAT(Formal),2021.2.3,Win32,59.52380952,,,,,,,,,,,,,,,e,1,0.6802,0,51,51,28,1,活泼,e,,,,,,,,,,,,,,,,,,,,,,,,,,,,,,,,,,,,,,,,,
,,,,,,,,,,,,,,1,001,2024-08-24_13h51.38.038,IAT(Formal),2021.2.3,Win32,59.52380952,,,,,,,,,,,,,,,e,1,1.0722,0,52,52,17,1,勇敢,e,,,,,,,,,,,,,,,,,,,,,,,,,,,,,,,,,,,,,,,,,
,,,,,,,,,,,,,,1,001,2024-08-24_13h51.38.038,IAT(Formal),2021.2.3,Win32,59.52380952,,,,,,,,,,,,,,,,0,,0,53,53,50,1,我,e,,,,,,,,,,,,,,,,,,,,,,,,,,,,,,,,,,,,,,,,,
,,,,,,,,,,,,,,1,001,2024-08-24_13h51.38.038,IAT(Formal),2021.2.3,Win32,59.52380952,,,,,,,,,,,,,,,e,0,0.563,0,54,54,66,1,他们,i,,,,,,,,,,,,,,,,,,,,,,,,,,,,,,,,,,,,,,,,,
,,,,,,,,,,,,,,1,001,2024-08-24_13h51.38.038,IAT(Formal),2021.2.3,Win32,59.52380952,,,,,,,,,,,,,,,e,0,0.411,0,55,55,77,1,他的,i,,,,,,,,,,,,,,,,,,,,,,,,,,,,,,,,,,,,,,,,,
,,,,,,,,,,,,,,1,001,2024-08-24_13h51.38.038,IAT(Formal),2021.2.3,Win32,59.52380952,,,,,,,,,,,,,,,e,1,0.6907,0,56,56,25,1,细腻,e,,,,,,,,,,,,,,,,,,,,,,,,,,,,,,,,,,,,,,,,,
,,,,,,,,,,,,,,1,001,2024-08-24_13h51.38.038,IAT(Formal),2021.2.3,Win32,59.52380952,,,,,,,,,,,,,,,e,1,0.8211,0,57,57,13,1,杰出,e,,,,,,,,,,,,,,,,,,,,,,,,,,,,,,,,,,,,,,,,,
,,,,,,,,,,,,,,1,001,2024-08-24_13h51.38.038,IAT(Formal),2021.2.3,Win32,59.52380952,,,,,,,,,,,,,,,i,1,0.9289,0,58,58,38,1,鲁莽,i,,,,,,,,,,,,,,,,,,,,,,,,,,,,,,,,,,,,,,,,,
,,,,,,,,,,,,,,1,001,2024-08-24_13h51.38.038,IAT(Formal),2021.2.3,Win32,59.52380952,,,,,,,,,,,,,,,e,1,0.6284,0,59,59,15,1,诚实,e,,,,,,,,,,,,,,,,,,,,,,,,,,,,,,,,,,,,,,,,,
,,,,,,,,,,,,,,1,001,2024-08-24_13h51.38.038,IAT(Formal),2021.2.3,Win32,59.52380952,,,,,,,,,,,,,,,,0,,0,60,60,5,1,他,i,,,,,,,,,,,,,,,,,,,,,,,,,,,,,,,,,,,,,,,,,
,,,,,,,,,,,,,,1,001,2024-08-24_13h51.38.038,IAT(Formal),2021.2.3,Win32,59.52380952,,,,,,,,,,,,,,,i,1,0.6362,0,61,61,42,1,凶狠,i,,,,,,,,,,,,,,,,,,,,,,,,,,,,,,,,,,,,,,,,,
,,,,,,,,,,,,,,1,001,2024-08-24_13h51.38.038,IAT(Formal),2021.2.3,Win32,59.52380952,,,,,,,,,,,,,,,i,1,0.6526,0,62,62,44,1,暴躁,i,,,,,,,,,,,,,,,,,,,,,,,,,,,,,,,,,,,,,,,,,
,,,,,,,,,,,,,,1,001,2024-08-24_13h51.38.038,IAT(Formal),2021.2.3,Win32,59.52380952,,,,,,,,,,,,,,,e,1,0.9881,0,63,63,20,1,认真,e,,,,,,,,,,,,,,,,,,,,,,,,,,,,,,,,,,,,,,,,,
,,,,,,,,,,,,,,1,001,2024-08-24_13h51.38.038,IAT(Formal),2021.2.3,Win32,59.52380952,,,,,,,,,,,,,,,,0,,0,64,64,40,1,执拗,i,,,,,,,,,,,,,,,,,,,,,,,,,,,,,,,,,,,,,,,,,
,,,,,,,,,,,,,,1,001,2024-08-24_13h51.38.038,IAT(Formal),2021.2.3,Win32,59.52380952,,,,,,,,,,,,,,,i,1,0.6425,0,65,65,58,1,他人,i,,,,,,,,,,,,,,,,,,,,,,,,,,,,,,,,,,,,,,,,,
,,,,,,,,,,,,,,1,001,2024-08-24_13h51.38.038,IAT(Formal),2021.2.3,Win32,59.52380952,,,,,,,,,,,,,,,i,1,0.6614,0,66,66,36,1,自卑,i,,,,,,,,,,,,,,,,,,,,,,,,,,,,,,,,,,,,,,,,,
,,,,,,,,,,,,,,1,001,2024-08-24_13h51.38.038,IAT(Formal),2021.2.3,Win32,59.52380952,,,,,,,,,,,,,,,e,1,0.5982,0,67,67,11,1,崇高,e,,,,,,,,,,,,,,,,,,,,,,,,,,,,,,,,,,,,,,,,,
,,,,,,,,,,,,,,1,001,2024-08-24_13h51.38.038,IAT(Formal),2021.2.3,Win32,59.52380952,,,,,,,,,,,,,,,,0,,0,68,68,6,1,他们,i,,,,,,,,,,,,,,,,,,,,,,,,,,,,,,,,,,,,,,,,,
,,,,,,,,,,,,,,1,001,2024-08-24_13h51.38.038,IAT(Formal),2021.2.3,Win32,59.52380952,,,,,,,,,,,,,,,i,1,0.6177,0,69,69,59,1,其他,i,,,,,,,,,,,,,,,,,,,,,,,,,,,,,,,,,,,,,,,,,
,,,,,,,,,,,,,,1,001,2024-08-24_13h51.38.038,IAT(Formal),2021.2.3,Win32,59.52380952,,,,,,,,,,,,,,,e,1,0.5784,0,70,70,61,1,我的,e,,,,,,,,,,,,,,,,,,,,,,,,,,,,,,,,,,,,,,,,,
,,,,,,,,,,,,,,1,001,2024-08-24_13h51.38.038,IAT(Formal),2021.2.3,Win32,59.52380952,,,,,,,,,,,,,,,,0,,0,71,71,45,1,猖狂,i,,,,,,,,,,,,,,,,,,,,,,,,,,,,,,,,,,,,,,,,,
,,,,,,,,,,,,,,1,001,2024-08-24_13h51.38.038,IAT(Formal),2021.2.3,Win32,59.52380952,,,,,,,,,,,,,,,i,1,0.7772,0,72,72,37,1,傲慢,i,,,,,,,,,,,,,,,,,,,,,,,,,,,,,,,,,,,,,,,,,
,,,,,,,,,,,,,,1,001,2024-08-24_13h51.38.038,IAT(Formal),2021.2.3,Win32,59.52380952,,,,,,,,,,,,,,,e,1,1.3365,0,73,73,18,1,勤奋,e,,,,,,,,,,,,,,,,,,,,,,,,,,,,,,,,,,,,,,,,,
,,,,,,,,,,,,,,1,001,2024-08-24_13h51.38.038,IAT(Formal),2021.2.3,Win32,59.52380952,,,,,,,,,,,,,,,i,1,0.5382,0,74,74,67,1,他的,i,,,,,,,,,,,,,,,,,,,,,,,,,,,,,,,,,,,,,,,,,
,,,,,,,,,,,,,,1,001,2024-08-24_13h51.38.038,IAT(Formal),2021.2.3,Win32,59.52380952,,,,,,,,,,,,,,,i,0,0.5414,0,75,75,52,1,我们,e,,,,,,,,,,,,,,,,,,,,,,,,,,,,,,,,,,,,,,,,,
,,,,,,,,,,,,,,1,001,2024-08-24_13h51.38.038,IAT(Formal),2021.2.3,Win32,59.52380952,,,,,,,,,,,,,,,e,1,0.4628,0,76,76,63,1,自己,e,,,,,,,,,,,,,,,,,,,,,,,,,,,,,,,,,,,,,,,,,
,,,,,,,,,,,,,,1,001,2024-08-24_13h51.38.038,IAT(Formal),2021.2.3,Win32,59.52380952,,,,,,,,,,,,,,,e,1,0.468,0,77,77,53,1,自己,e,,,,,,,,,,,,,,,,,,,,,,,,,,,,,,,,,,,,,,,,,
,,,,,,,,,,,,,,1,001,2024-08-24_13h51.38.038,IAT(Formal),2021.2.3,Win32,59.52380952,,,,,,,,,,,,,,,i,1,0.5349,0,78,78,69,1,其他,i,,,,,,,,,,,,,,,,,,,,,,,,,,,,,,,,,,,,,,,,,
,,,,,,,,,,,,,,1,001,2024-08-24_13h51.38.038,IAT(Formal),2021.2.3,Win32,59.52380952,,,,,,,,,,,,,,,e,1,0.9973,0,79,79,16,1,正直,e,,,,,,,,,,,,,,,,,,,,,,,,,,,,,,,,,,,,,,,,,
,,,,,,,,,,,,,,1,001,2024-08-24_13h51.38.038,IAT(Formal),2021.2.3,Win32,59.52380952,,,,,,,,,,,,,,,i,1,0.7975,,,,,,悲观,i,space,6.5032,0,0,0,34,1,,,,,,,,,,,,,,,,,,,,,,,,,,,,,,,,,,
,,,,,,,,,,,,,,1,001,2024-08-24_13h51.38.038,IAT(Formal),2021.2.3,Win32,59.52380952,,,,,,,,,,,,,,,i,1,0.6917,,,,,,他人,i,,,0,1,1,58,1,,,,,,,,,,,,,,,,,,,,,,,,,,,,,,,,,,
,,,,,,,,,,,,,,1,001,2024-08-24_13h51.38.038,IAT(Formal),2021.2.3,Win32,59.52380952,,,,,,,,,,,,,,,e,1,0.744,,,,,,聪明,e,,,0,2,2,12,1,,,,,,,,,,,,,,,,,,,,,,,,,,,,,,,,,,
,,,,,,,,,,,,,,1,001,2024-08-24_13h51.38.038,IAT(Formal),2021.2.3,Win32,59.52380952,,,,,,,,,,,,,,,i,1,0.6165,,,,,,他,i,,,0,3,3,65,1,,,,,,,,,,,,,,,,,,,,,,,,,,,,,,,,,,
,,,,,,,,,,,,,,1,001,2024-08-24_13h51.38.038,IAT(Formal),2021.2.3,Win32,59.52380952,,,,,,,,,,,,,,,i,1,1.024,,,,,,其他,i,,,0,4,4,59,1,,,,,,,,,,,,,,,,,,,,,,,,,,,,,,,,,,
,,,,,,,,,,,,,,1,001,2024-08-24_13h51.38.038,IAT(Formal),2021.2.3,Win32,59.52380952,,,,,,,,,,,,,,,e,1,0.6865,,,,,,勇敢,e,,,0,5,5,17,1,,,,,,,,,,,,,,,,,,,,,,,,,,,,,,,,,,
,,,,,,,,,,,,,,1,001,2024-08-24_13h51.38.038,IAT(Formal),2021.2.3,Win32,59.52380952,,,,,,,,,,,,,,,i,1,0.7918,,,,,,散漫,i,,,0,6,6,41,1,,,,,,,,,,,,,,,,,,,,,,,,,,,,,,,,,,
,,,,,,,,,,,,,,1,001,2024-08-24_13h51.38.038,IAT(Formal),2021.2.3,Win32,59.52380952,,,,,,,,,,,,,,,,0,,,,,,,我,e,,,0,7,7,60,1,,,,,,,,,,,,,,,,,,,,,,,,,,,,,,,,,,
,,,,,,,,,,,,,,1,001,2024-08-24_13h51.38.038,IAT(Formal),2021.2.3,Win32,59.52380952,,,,,,,,,,,,,,,,0,,,,,,,我的,e,,,0,8,8,51,1,,,,,,,,,,,,,,,,,,,,,,,,,,,,,,,,,,
,,,,,,,,,,,,,,1,001,2024-08-24_13h51.38.038,IAT(Formal),2021.2.3,Win32,59.52380952,,,,,,,,,,,,,,,e,1,0.5214,,,,,,我的,e,,,0,9,9,71,1,,,,,,,,,,,,,,,,,,,,,,,,,,,,,,,,,,
,,,,,,,,,,,,,,1,001,2024-08-24_13h51.38.038,IAT(Formal),2021.2.3,Win32,59.52380952,,,,,,,,,,,,,,,i,1,0.5692,,,,,,他人,i,,,0,10,10,68,1,,,,,,,,,,,,,,,,,,,,,,,,,,,,,,,,,,
,,,,,,,,,,,,,,1,001,2024-08-24_13h51.38.038,IAT(Formal),2021.2.3,Win32,59.52380952,,,,,,,,,,,,,,,e,1,0.6386,,,,,,俺,e,,,0,11,11,74,1,,,,,,,,,,,,,,,,,,,,,,,,,,,,,,,,,,
,,,,,,,,,,,,,,1,001,2024-08-24_13h51.38.038,IAT(Formal),2021.2.3,Win32,59.52380952,,,,,,,,,,,,,,,,0,,,,,,,刻薄,i,,,0,12,12,33,1,,,,,,,,,,,,,,,,,,,,,,,,,,,,,,,,,,
,,,,,,,,,,,,,,1,001,2024-08-24_13h51.38.038,IAT(Formal),2021.2.3,Win32,59.52380952,,,,,,,,,,,,,,,e,1,0.5659,,,,,,认真,e,,,0,13,13,20,1,,,,,,,,,,,,,,,,,,,,,,,,,,,,,,,,,,
,,,,,,,,,,,,,,1,001,2024-08-24_13h51.38.038,IAT(Formal),2021.2.3,Win32,59.52380952,,,,,,,,,,,,,,,,0,,,,,,,自己,e,,,0,14,14,3,1,,,,,,,,,,,,,,,,,,,,,,,,,,,,,,,,,,
,,,,,,,,,,,,,,1,001,2024-08-24_13h51.38.038,IAT(Formal),2021.2.3,Win32,59.52380952,,,,,,,,,,,,,,,,0,,,,,,,虚伪,i,,,0,15,15,31,1,,,,,,,,,,,,,,,,,,,,,,,,,,,,,,,,,,
,,,,,,,,,,,,,,1,001,2024-08-24_13h51.38.038,IAT(Formal),2021.2.3,Win32,59.52380952,,,,,,,,,,,,,,,e,1,0.5091,,,,,,自己,e,,,0,16,16,53,1,,,,,,,,,,,,,,,,,,,,,,,,,,,,,,,,,,
,,,,,,,,,,,,,,1,001,2024-08-24_13h51.38.038,IAT(Formal),2021.2.3,Win32,59.52380952,,,,,,,,,,,,,,,,0,,,,,,,无私,e,,,0,17,17,22,1,,,,,,,,,,,,,,,,,,,,,,,,,,,,,,,,,,
,,,,,,,,,,,,,,1,001,2024-08-24_13h51.38.038,IAT(Formal),2021.2.3,Win32,59.52380952,,,,,,,,,,,,,,,,0,,,,,,,自己,e,,,0,18,18,73,1,,,,,,,,,,,,,,,,,,,,,,,,,,,,,,,,,,
,,,,,,,,,,,,,,1,001,2024-08-24_13h51.38.038,IAT(Formal),2021.2.3,Win32,59.52380952,,,,,,,,,,,,,,,i,1,0.5316,,,,,,他人,i,,,0,19,19,78,1,,,,,,,,,,,,,,,,,,,,,,,,,,,,,,,,,,
,,,,,,,,,,,,,,1,001,2024-08-24_13h51.38.038,IAT(Formal),2021.2.3,Win32,59.52380952,,,,,,,,,,,,,,,i,1,0.5116,,,,,,傲慢,i,,,0,20,20,37,1,,,,,,,,,,,,,,,,,,,,,,,,,,,,,,,,,,
,,,,,,,,,,,,,,1,001,2024-08-24_13h51.38.038,IAT(Formal),2021.2.3,Win32,59.52380952,,,,,,,,,,,,,,,e,1,0.4677,,,,,,我们,e,,,0,21,21,2,1,,,,,,,,,,,,,,,,,,,,,,,,,,,,,,,,,,
,,,,,,,,,,,,,,1,001,2024-08-24_13h51.38.038,IAT(Formal),2021.2.3,Win32,59.52380952,,,,,,,,,,,,,,,i,1,0.9124,,,,,,自私,i,,,0,22,22,43,1,,,,,,,,,,,,,,,,,,,,,,,,,,,,,,,,,,
,,,,,,,,,,,,,,1,001,2024-08-24_13h51.38.038,IAT(Formal),2021.2.3,Win32,59.52380952,,,,,,,,,,,,,,,i,1,0.838,,,,,,下贱,i,,,0,23,23,49,1,,,,,,,,,,,,,,,,,,,,,,,,,,,,,,,,,,
,,,,,,,,,,,,,,1,001,2024-08-24_13h51.38.038,IAT(Formal),2021.2.3,Win32,59.52380952,,,,,,,,,,,,,,,,0,,,,,,,他,i,,,0,24,24,55,1,,,,,,,,,,,,,,,,,,,,,,,,,,,,,,,,,,
,,,,,,,,,,,,,,1,001,2024-08-24_13h51.38.038,IAT(Formal),2021.2.3,Win32,59.52380952,,,,,,,,,,,,,,,,0,,,,,,,俺,e,,,0,25,25,64,1,,,,,,,,,,,,,,,,,,,,,,,,,,,,,,,,,,
,,,,,,,,,,,,,,1,001,2024-08-24_13h51.38.038,IAT(Formal),2021.2.3,Win32,59.52380952,,,,,,,,,,,,,,,e,1,0.5308,,,,,,勤奋,e,,,0,26,26,18,1,,,,,,,,,,,,,,,,,,,,,,,,,,,,,,,,,,
,,,,,,,,,,,,,,1,001,2024-08-24_13h51.38.038,IAT(Formal),2021.2.3,Win32,59.52380952,,,,,,,,,,,,,,,e,1,0.4955,,,,,,自己,e,,,0,27,27,63,1,,,,,,,,,,,,,,,,,,,,,,,,,,,,,,,,,,
,,,,,,,,,,,,,,1,001,2024-08-24_13h51.38.038,IAT(Formal),2021.2.3,Win32,59.52380952,,,,,,,,,,,,,,,e,1,0.7558,,,,,,细腻,e,,,0,28,28,25,1,,,,,,,,,,,,,,,,,,,,,,,,,,,,,,,,,,
,,,,,,,,,,,,,,1,001,2024-08-24_13h51.38.038,IAT(Formal),2021.2.3,Win32,59.52380952,,,,,,,,,,,,,,,,0,,,,,,,机智,e,,,0,29,29,19,1,,,,,,,,,,,,,,,,,,,,,,,,,,,,,,,,,,
,,,,,,,,,,,,,,1,001,2024-08-24_13h51.38.038,IAT(Formal),2021.2.3,Win32,59.52380952,,,,,,,,,,,,,,,e,0,0.6079,,,,,,他的,i,,,0,30,30,7,1,,,,,,,,,,,,,,,,,,,,,,,,,,,,,,,,,,
,,,,,,,,,,,,,,1,001,2024-08-24_13h51.38.038,IAT(Formal),2021.2.3,Win32,59.52380952,,,,,,,,,,,,,,,e,1,0.5026,,,,,,俺,e,,,0,31,31,4,1,,,,,,,,,,,,,,,,,,,,,,,,,,,,,,,,,,
,,,,,,,,,,,,,,1,001,2024-08-24_13h51.38.038,IAT(Formal),2021.2.3,Win32,59.52380952,,,,,,,,,,,,,,,e,1,0.7132,,,,,,我们,e,,,0,32,32,52,1,,,,,,,,,,,,,,,,,,,,,,,,,,,,,,,,,,
,,,,,,,,,,,,,,1,001,2024-08-24_13h51.38.038,IAT(Formal),2021.2.3,Win32,59.52380952,,,,,,,,,,,,,,,i,1,1.156,,,,,,其他,i,,,0,33,33,9,1,,,,,,,,,,,,,,,,,,,,,,,,,,,,,,,,,,
,,,,,,,,,,,,,,1,001,2024-08-24_13h51.38.038,IAT(Formal),2021.2.3,Win32,59.52380952,,,,,,,,,,,,,,,i,1,0.7915,,,,,,他,i,,,0,34,34,5,1,,,,,,,,,,,,,,,,,,,,,,,,,,,,,,,,,,
,,,,,,,,,,,,,,1,001,2024-08-24_13h51.38.038,IAT(Formal),2021.2.3,Win32,59.52380952,,,,,,,,,,,,,,,e,1,0.9371,,,,,,热情,e,,,0,35,35,27,1,,,,,,,,,,,,,,,,,,,,,,,,,,,,,,,,,,
,,,,,,,,,,,,,,1,001,2024-08-24_13h51.38.038,IAT(Formal),2021.2.3,Win32,59.52380952,,,,,,,,,,,,,,,,0,,,,,,,正直,e,,,0,36,36,16,1,,,,,,,,,,,,,,,,,,,,,,,,,,,,,,,,,,
,,,,,,,,,,,,,,1,001,2024-08-24_13h51.38.038,IAT(Formal),2021.2.3,Win32,59.52380952,,,,,,,,,,,,,,,i,1,0.6165,,,,,,他人,i,,,0,37,37,8,1,,,,,,,,,,,,,,,,,,,,,,,,,,,,,,,,,,
,,,,,,,,,,,,,,1,001,2024-08-24_13h51.38.038,IAT(Formal),2021.2.3,Win32,59.52380952,,,,,,,,,,,,,,,e,1,0.59,,,,,,优秀,e,,,0,38,38,10,1,,,,,,,,,,,,,,,,,,,,,,,,,,,,,,,,,,
,,,,,,,,,,,,,,1,001,2024-08-24_13h51.38.038,IAT(Formal),2021.2.3,Win32,59.52380952,,,,,,,,,,,,,,,,0,,,,,,,他的,i,,,0,39,39,77,1,,,,,,,,,,,,,,,,,,,,,,,,,,,,,,,,,,
,,,,,,,,,,,,,,1,001,2024-08-24_13h51.38.038,IAT(Formal),2021.2.3,Win32,59.52380952,,,,,,,,,,,,,,,,0,,,,,,,我的,e,,,0,40,40,61,1,,,,,,,,,,,,,,,,,,,,,,,,,,,,,,,,,,
,,,,,,,,,,,,,,1,001,2024-08-24_13h51.38.038,IAT(Formal),2021.2.3,Win32,59.52380952,,,,,,,,,,,,,,,e,1,1.3406,,,,,,公正,e,,,0,41,41,23,1,,,,,,,,,,,,,,,,,,,,,,,,,,,,,,,,,,
,,,,,,,,,,,,,,1,001,2024-08-24_13h51.38.038,IAT(Formal),2021.2.3,Win32,59.52380952,,,,,,,,,,,,,,,i,1,0.6334,,,,,,他的,i,,,0,42,42,57,1,,,,,,,,,,,,,,,,,,,,,,,,,,,,,,,,,,
,,,,,,,,,,,,,,1,001,2024-08-24_13h51.38.038,IAT(Formal),2021.2.3,Win32,59.52380952,,,,,,,,,,,,,,,,0,,,,,,,诚实,e,,,0,43,43,15,1,,,,,,,,,,,,,,,,,,,,,,,,,,,,,,,,,,
,,,,,,,,,,,,,,1,001,2024-08-24_13h51.38.038,IAT(Formal),2021.2.3,Win32,59.52380952,,,,,,,,,,,,,,,e,1,0.5948,,,,,,崇高,e,,,0,44,44,11,1,,,,,,,,,,,,,,,,,,,,,,,,,,,,,,,,,,
,,,,,,,,,,,,,,1,001,2024-08-24_13h51.38.038,IAT(Formal),2021.2.3,Win32,59.52380952,,,,,,,,,,,,,,,e,1,0.8738,,,,,,杰出,e,,,0,45,45,13,1,,,,,,,,,,,,,,,,,,,,,,,,,,,,,,,,,,
,,,,,,,,,,,,,,1,001,2024-08-24_13h51.38.038,IAT(Formal),2021.2.3,Win32,59.52380952,,,,,,,,,,,,,,,,0,,,,,,,我的,e,,,0,46,46,1,1,,,,,,,,,,,,,,,,,,,,,,,,,,,,,,,,,,
,,,,,,,,,,,,,,1,001,2024-08-24_13h51.38.038,IAT(Formal),2021.2.3,Win32,59.52380952,,,,,,,,,,,,,,,,0,,,,,,,其他,i,,,0,47,47,79,1,,,,,,,,,,,,,,,,,,,,,,,,,,,,,,,,,,
,,,,,,,,,,,,,,1,001,2024-08-24_13h51.38.038,IAT(Formal),2021.2.3,Win32,59.52380952,,,,,,,,,,,,,,,i,1,0.653,,,,,,自卑,i,,,0,48,48,36,1,,,,,,,,,,,,,,,,,,,,,,,,,,,,,,,,,,
,,,,,,,,,,,,,,1,001,2024-08-24_13h51.38.038,IAT(Formal),2021.2.3,Win32,59.52380952,,,,,,,,,,,,,,,e,1,0.5036,,,,,,我们,e,,,0,49,49,62,1,,,,,,,,,,,,,,,,,,,,,,,,,,,,,,,,,,
,,,,,,,,,,,,,,1,001,2024-08-24_13h51.38.038,IAT(Formal),2021.2.3,Win32,59.52380952,,,,,,,,,,,,,,,i,1,0.561,,,,,,他们,i,,,0,50,50,76,1,,,,,,,,,,,,,,,,,,,,,,,,,,,,,,,,,,
,,,,,,,,,,,,,,1,001,2024-08-24_13h51.38.038,IAT(Formal),2021.2.3,Win32,59.52380952,,,,,,,,,,,,,,,i,1,0.5667,,,,,,凶狠,i,,,0,51,51,42,1,,,,,,,,,,,,,,,,,,,,,,,,,,,,,,,,,,
,,,,,,,,,,,,,,1,001,2024-08-24_13h51.38.038,IAT(Formal),2021.2.3,Win32,59.52380952,,,,,,,,,,,,,,,i,1,0.9207,,,,,,猖狂,i,,,0,52,52,45,1,,,,,,,,,,,,,,,,,,,,,,,,,,,,,,,,,,
,,,,,,,,,,,,,,1,001,2024-08-24_13h51.38.038,IAT(Formal),2021.2.3,Win32,59.52380952,,,,,,,,,,,,,,,,0,,,,,,,冷静,e,,,0,53,53,26,1,,,,,,,,,,,,,,,,,,,,,,,,,,,,,,,,,,
,,,,,,,,,,,,,,1,001,2024-08-24_13h51.38.038,IAT(Formal),2021.2.3,Win32,59.52380952,,,,,,,,,,,,,,,i,1,0.6091,,,,,,他们,i,,,0,54,54,6,1,,,,,,,,,,,,,,,,,,,,,,,,,,,,,,,,,,
,,,,,,,,,,,,,,1,001,2024-08-24_13h51.38.038,IAT(Formal),2021.2.3,Win32,59.52380952,,,,,,,,,,,,,,,e,1,0.8176,,,,,,我们,e,,,0,55,55,72,1,,,,,,,,,,,,,,,,,,,,,,,,,,,,,,,,,,
,,,,,,,,,,,,,,1,001,2024-08-24_13h51.38.038,IAT(Formal),2021.2.3,Win32,59.52380952,,,,,,,,,,,,,,,,0,,,,,,,固执,i,,,0,56,56,47,1,,,,,,,,,,,,,,,,,,,,,,,,,,,,,,,,,,
,,,,,,,,,,,,,,1,001,2024-08-24_13h51.38.038,IAT(Formal),2021.2.3,Win32,59.52380952,,,,,,,,,,,,,,,,0,,,,,,,卑鄙,i,,,0,57,57,30,1,,,,,,,,,,,,,,,,,,,,,,,,,,,,,,,,,,
,,,,,,,,,,,,,,1,001,2024-08-24_13h51.38.038,IAT(Formal),2021.2.3,Win32,59.52380952,,,,,,,,,,,,,,,e,1,0.494,,,,,,我,e,,,0,58,58,70,1,,,,,,,,,,,,,,,,,,,,,,,,,,,,,,,,,,
,,,,,,,,,,,,,,1,001,2024-08-24_13h51.38.038,IAT(Formal),2021.2.3,Win32,59.52380952,,,,,,,,,,,,,,,i,1,0.9948,,,,,,执拗,i,,,0,59,59,40,1,,,,,,,,,,,,,,,,,,,,,,,,,,,,,,,,,,
,,,,,,,,,,,,,,1,001,2024-08-24_13h51.38.038,IAT(Formal),2021.2.3,Win32,59.52380952,,,,,,,,,,,,,,,i,1,0.8719,,,,,,其他,i,,,0,60,60,69,1,,,,,,,,,,,,,,,,,,,,,,,,,,,,,,,,,,
,,,,,,,,,,,,,,1,001,2024-08-24_13h51.38.038,IAT(Formal),2021.2.3,Win32,59.52380952,,,,,,,,,,,,,,,,0,,,,,,,轻率,i,,,0,61,61,48,1,,,,,,,,,,,,,,,,,,,,,,,,,,,,,,,,,,
,,,,,,,,,,,,,,1,001,2024-08-24_13h51.38.038,IAT(Formal),2021.2.3,Win32,59.52380952,,,,,,,,,,,,,,,i,1,0.6601,,,,,,鲁莽,i,,,0,62,62,38,1,,,,,,,,,,,,,,,,,,,,,,,,,,,,,,,,,,
,,,,,,,,,,,,,,1,001,2024-08-24_13h51.38.038,IAT(Formal),2021.2.3,Win32,59.52380952,,,,,,,,,,,,,,,e,1,1.1449,,,,,,我,e,,,0,63,63,0,1,,,,,,,,,,,,,,,,,,,,,,,,,,,,,,,,,,
,,,,,,,,,,,,,,1,001,2024-08-24_13h51.38.038,IAT(Formal),2021.2.3,Win32,59.52380952,,,,,,,,,,,,,,,,0,,,,,,,他们,i,,,0,64,64,66,1,,,,,,,,,,,,,,,,,,,,,,,,,,,,,,,,,,
,,,,,,,,,,,,,,1,001,2024-08-24_13h51.38.038,IAT(Formal),2021.2.3,Win32,59.52380952,,,,,,,,,,,,,,,,0,,,,,,,消极,i,,,0,65,65,35,1,,,,,,,,,,,,,,,,,,,,,,,,,,,,,,,,,,
,,,,,,,,,,,,,,1,001,2024-08-24_13h51.38.038,IAT(Formal),2021.2.3,Win32,59.52380952,,,,,,,,,,,,,,,i,1,0.8674,,,,,,暴躁,i,,,0,66,66,44,1,,,,,,,,,,,,,,,,,,,,,,,,,,,,,,,,,,
,,,,,,,,,,,,,,1,001,2024-08-24_13h51.38.038,IAT(Formal),2021.2.3,Win32,59.52380952,,,,,,,,,,,,,,,e,0,0.7083,,,,,,愚蠢,i,,,0,67,67,32,1,,,,,,,,,,,,,,,,,,,,,,,,,,,,,,,,,,
,,,,,,,,,,,,,,1,001,2024-08-24_13h51.38.038,IAT(Formal),2021.2.3,Win32,59.52380952,,,,,,,,,,,,,,,i,1,0.598,,,,,,他,i,,,0,68,68,75,1,,,,,,,,,,,,,,,,,,,,,,,,,,,,,,,,,,
,,,,,,,,,,,,,,1,001,2024-08-24_13h51.38.038,IAT(Formal),2021.2.3,Win32,59.52380952,,,,,,,,,,,,,,,i,1,0.493,,,,,,野蛮,i,,,0,69,69,46,1,,,,,,,,,,,,,,,,,,,,,,,,,,,,,,,,,,
,,,,,,,,,,,,,,1,001,2024-08-24_13h51.38.038,IAT(Formal),2021.2.3,Win32,59.52380952,,,,,,,,,,,,,,,e,1,1.104,,,,,,活泼,e,,,0,70,70,28,1,,,,,,,,,,,,,,,,,,,,,,,,,,,,,,,,,,
,,,,,,,,,,,,,,1,001,2024-08-24_13h51.38.038,IAT(Formal),2021.2.3,Win32,59.52380952,,,,,,,,,,,,,,,,0,,,,,,,冒失,i,,,0,71,71,39,1,,,,,,,,,,,,,,,,,,,,,,,,,,,,,,,,,,
,,,,,,,,,,,,,,1,001,2024-08-24_13h51.38.038,IAT(Formal),2021.2.3,Win32,59.52380952,,,,,,,,,,,,,,,e,1,1.0207,,,,,,我,e,,,0,72,72,50,1,,,,,,,,,,,,,,,,,,,,,,,,,,,,,,,,,,
,,,,,,,,,,,,,,1,001,2024-08-24_13h51.38.038,IAT(Formal),2021.2.3,Win32,59.52380952,,,,,,,,,,,,,,,,0,,,,,,,稳重,e,,,0,73,73,21,1,,,,,,,,,,,,,,,,,,,,,,,,,,,,,,,,,,
,,,,,,,,,,,,,,1,001,2024-08-24_13h51.38.038,IAT(Formal),2021.2.3,Win32,59.52380952,,,,,,,,,,,,,,,,0,,,,,,,诚恳,e,,,0,74,74,29,1,,,,,,,,,,,,,,,,,,,,,,,,,,,,,,,,,,
,,,,,,,,,,,,,,1,001,2024-08-24_13h51.38.038,IAT(Formal),2021.2.3,Win32,59.52380952,,,,,,,,,,,,,,,e,1,0.5768,,,,,,俺,e,,,0,75,75,54,1,,,,,,,,,,,,,,,,,,,,,,,,,,,,,,,,,,
,,,,,,,,,,,,,,1,001,2024-08-24_13h51.38.038,IAT(Formal),2021.2.3,Win32,59.52380952,,,,,,,,,,,,,,,e,1,0.4574,,,,,,朴实,e,,,0,76,76,24,1,,,,,,,,,,,,,,,,,,,,,,,,,,,,,,,,,,
,,,,,,,,,,,,,,1,001,2024-08-24_13h51.38.038,IAT(Formal),2021.2.3,Win32,59.52380952,,,,,,,,,,,,,,,e,0,0.4182,,,,,,他的,i,,,0,77,77,67,1,,,,,,,,,,,,,,,,,,,,,,,,,,,,,,,,,,
,,,,,,,,,,,,,,1,001,2024-08-24_13h51.38.038,IAT(Formal),2021.2.3,Win32,59.52380952,,,,,,,,,,,,,,,i,1,0.7383,,,,,,他们,i,,,0,78,78,56,1,,,,,,,,,,,,,,,,,,,,,,,,,,,,,,,,,,
,,,,,,,,,,,,,,1,001,2024-08-24_13h51.38.038,IAT(Formal),2021.2.3,Win32,59.52380952,,,,,,,,,,,,,,,e,1,0.8411,,,,,,乐观,e,,,0,79,79,14,1,,,,,,,,,,,,,,,,,,,,,,,,,,,,,,,,,,
,,,,,,,,,,,,,,1,001,2024-08-24_13h51.38.038,IAT(Formal),2021.2.3,Win32,59.52380952,,,,,,,,,,,,,,,,0,,,,,,,他的,i,,,1,0,80,67,1,,,,,,,,,,,,,,,,,,,,,,,,,,,,,,,,,,
,,,,,,,,,,,,,,1,001,2024-08-24_13h51.38.038,IAT(Formal),2021.2.3,Win32,59.52380952,,,,,,,,,,,,,,,,0,,,,,,,热情,e,,,1,1,81,27,1,,,,,,,,,,,,,,,,,,,,,,,,,,,,,,,,,,
,,,,,,,,,,,,,,1,001,2024-08-24_13h51.38.038,IAT(Formal),2021.2.3,Win32,59.52380952,,,,,,,,,,,,,,,e,1,0.4754,,,,,,聪明,e,,,1,2,82,12,1,,,,,,,,,,,,,,,,,,,,,,,,,,,,,,,,,,
,,,,,,,,,,,,,,1,001,2024-08-24_13h51.38.038,IAT(Formal),2021.2.3,Win32,59.52380952,,,,,,,,,,,,,,,e,1,0.563,,,,,,正直,e,,,1,3,83,16,1,,,,,,,,,,,,,,,,,,,,,,,,,,,,,,,,,,
,,,,,,,,,,,,,,1,001,2024-08-24_13h51.38.038,IAT(Formal),2021.2.3,Win32,59.52380952,,,,,,,,,,,,,,,,0,,,,,,,他人,i,,,1,4,84,78,1,,,,,,,,,,,,,,,,,,,,,,,,,,,,,,,,,,
,,,,,,,,,,,,,,1,001,2024-08-24_13h51.38.038,IAT(Formal),2021.2.3,Win32,59.52380952,,,,,,,,,,,,,,,e,1,0.6191,,,,,,冷静,e,,,1,5,85,26,1,,,,,,,,,,,,,,,,,,,,,,,,,,,,,,,,,,
,,,,,,,,,,,,,,1,001,2024-08-24_13h51.38.038,IAT(Formal),2021.2.3,Win32,59.52380952,,,,,,,,,,,,,,,i,1,0.7464,,,,,,他们,i,,,1,6,86,76,1,,,,,,,,,,,,,,,,,,,,,,,,,,,,,,,,,,
,,,,,,,,,,,,,,1,001,2024-08-24_13h51.38.038,IAT(Formal),2021.2.3,Win32,59.52380952,,,,,,,,,,,,,,,,0,,,,,,,下贱,i,,,1,7,87,49,1,,,,,,,,,,,,,,,,,,,,,,,,,,,,,,,,,,
,,,,,,,,,,,,,,1,001,2024-08-24_13h51.38.038,IAT(Formal),2021.2.3,Win32,59.52380952,,,,,,,,,,,,,,,i,1,0.9304,,,,,,他的,i,,,1,8,88,57,1,,,,,,,,,,,,,,,,,,,,,,,,,,,,,,,,,,
,,,,,,,,,,,,,,1,001,2024-08-24_13h51.38.038,IAT(Formal),2021.2.3,Win32,59.52380952,,,,,,,,,,,,,,,i,1,0.7384,,,,,,散漫,i,,,1,9,89,41,1,,,,,,,,,,,,,,,,,,,,,,,,,,,,,,,,,,
,,,,,,,,,,,,,,1,001,2024-08-24_13h51.38.038,IAT(Formal),2021.2.3,Win32,59.52380952,,,,,,,,,,,,,,,,0,,,,,,,他人,i,,,1,10,90,58,1,,,,,,,,,,,,,,,,,,,,,,,,,,,,,,,,,,
,,,,,,,,,,,,,,1,001,2024-08-24_13h51.38.038,IAT(Formal),2021.2.3,Win32,59.52380952,,,,,,,,,,,,,,,,0,,,,,,,刻薄,i,,,1,11,91,33,1,,,,,,,,,,,,,,,,,,,,,,,,,,,,,,,,,,
,,,,,,,,,,,,,,1,001,2024-08-24_13h51.38.038,IAT(Formal),2021.2.3,Win32,59.52380952,,,,,,,,,,,,,,,,0,,,,,,,崇高,e,,,1,12,92,11,1,,,,,,,,,,,,,,,,,,,,,,,,,,,,,,,,,,
,,,,,,,,,,,,,,1,001,2024-08-24_13h51.38.038,IAT(Formal),2021.2.3,Win32,59.52380952,,,,,,,,,,,,,,,e,1,1.1459,,,,,,我的,e,,,1,13,93,51,1,,,,,,,,,,,,,,,,,,,,,,,,,,,,,,,,,,
,,,,,,,,,,,,,,1,001,2024-08-24_13h51.38.038,IAT(Formal),2021.2.3,Win32,59.52380952,,,,,,,,,,,,,,,i,1,0.5421,,,,,,他,i,,,1,14,94,55,1,,,,,,,,,,,,,,,,,,,,,,,,,,,,,,,,,,
,,,,,,,,,,,,,,1,001,2024-08-24_13h51.38.038,IAT(Formal),2021.2.3,Win32,59.52380952,,,,,,,,,,,,,,,i,1,0.7858,,,,,,他人,i,,,1,15,95,68,1,,,,,,,,,,,,,,,,,,,,,,,,,,,,,,,,,,
,,,,,,,,,,,,,,1,001,2024-08-24_13h51.38.038,IAT(Formal),2021.2.3,Win32,59.52380952,,,,,,,,,,,,,,,,0,,,,,,,卑鄙,i,,,1,16,96,30,1,,,,,,,,,,,,,,,,,,,,,,,,,,,,,,,,,,
,,,,,,,,,,,,,,1,001,2024-08-24_13h51.38.038,IAT(Formal),2021.2.3,Win32,59.52380952,,,,,,,,,,,,,,,e,1,0.6359,,,,,,朴实,e,,,1,17,97,24,1,,,,,,,,,,,,,,,,,,,,,,,,,,,,,,,,,,
,,,,,,,,,,,,,,1,001,2024-08-24_13h51.38.038,IAT(Formal),2021.2.3,Win32,59.52380952,,,,,,,,,,,,,,,,0,,,,,,,虚伪,i,,,1,18,98,31,1,,,,,,,,,,,,,,,,,,,,,,,,,,,,,,,,,,
,,,,,,,,,,,,,,1,001,2024-08-24_13h51.38.038,IAT(Formal),2021.2.3,Win32,59.52380952,,,,,,,,,,,,,,,,0,,,,,,,他,i,,,1,19,99,75,1,,,,,,,,,,,,,,,,,,,,,,,,,,,,,,,,,,
,,,,,,,,,,,,,,1,001,2024-08-24_13h51.38.038,IAT(Formal),2021.2.3,Win32,59.52380952,,,,,,,,,,,,,,,,0,,,,,,,杰出,e,,,1,20,100,13,1,,,,,,,,,,,,,,,,,,,,,,,,,,,,,,,,,,
,,,,,,,,,,,,,,1,001,2024-08-24_13h51.38.038,IAT(Formal),2021.2.3,Win32,59.52380952,,,,,,,,,,,,,,,e,1,0.5524,,,,,,我们,e,,,1,21,101,62,1,,,,,,,,,,,,,,,,,,,,,,,,,,,,,,,,,,
,,,,,,,,,,,,,,1,001,2024-08-24_13h51.38.038,IAT(Formal),2021.2.3,Win32,59.52380952,,,,,,,,,,,,,,,e,1,0.5025,,,,,,我,e,,,1,22,102,50,1,,,,,,,,,,,,,,,,,,,,,,,,,,,,,,,,,,
,,,,,,,,,,,,,,1,001,2024-08-24_13h51.38.038,IAT(Formal),2021.2.3,Win32,59.52380952,,,,,,,,,,,,,,,i,1,1.4375,,,,,,他的,i,,,1,23,103,77,1,,,,,,,,,,,,,,,,,,,,,,,,,,,,,,,,,,
,,,,,,,,,,,,,,1,001,2024-08-24_13h51.38.038,IAT(Formal),2021.2.3,Win32,59.52380952,,,,,,,,,,,,,,,e,1,0.9386,,,,,,勇敢,e,,,1,24,104,17,1,,,,,,,,,,,,,,,,,,,,,,,,,,,,,,,,,,
,,,,,,,,,,,,,,1,001,2024-08-24_13h51.38.038,IAT(Formal),2021.2.3,Win32,59.52380952,,,,,,,,,,,,,,,,0,,,,,,,勤奋,e,,,1,25,105,18,1,,,,,,,,,,,,,,,,,,,,,,,,,,,,,,,,,,
,,,,,,,,,,,,,,1,001,2024-08-24_13h51.38.038,IAT(Formal),2021.2.3,Win32,59.52380952,,,,,,,,,,,,,,,,0,,,,,,,诚恳,e,,,1,26,106,29,1,,,,,,,,,,,,,,,,,,,,,,,,,,,,,,,,,,
,,,,,,,,,,,,,,1,001,2024-08-24_13h51.38.038,IAT(Formal),2021.2.3,Win32,59.52380952,,,,,,,,,,,,,,,i,1,0.5398,,,,,,暴躁,i,,,1,27,107,44,1,,,,,,,,,,,,,,,,,,,,,,,,,,,,,,,,,,
,,,,,,,,,,,,,,1,001,2024-08-24_13h51.38.038,IAT(Formal),2021.2.3,Win32,59.52380952,,,,,,,,,,,,,,,e,1,0.642,,,,,,稳重,e,,,1,28,108,21,1,,,,,,,,,,,,,,,,,,,,,,,,,,,,,,,,,,
,,,,,,,,,,,,,,1,001,2024-08-24_13h51.38.038,IAT(Formal),2021.2.3,Win32,59.52380952,,,,,,,,,,,,,,,i,1,0.5671,,,,,,他人,i,,,1,29,109,8,1,,,,,,,,,,,,,,,,,,,,,,,,,,,,,,,,,,
,,,,,,,,,,,,,,1,001,2024-08-24_13h51.38.038,IAT(Formal),2021.2.3,Win32,59.52380952,,,,,,,,,,,,,,,,0,,,,,,,自己,e,,,1,30,110,3,1,,,,,,,,,,,,,,,,,,,,,,,,,,,,,,,,,,
,,,,,,,,,,,,,,1,001,2024-08-24_13h51.38.038,IAT(Formal),2021.2.3,Win32,59.52380952,,,,,,,,,,,,,,,e,1,0.8889,,,,,,我的,e,,,1,31,111,1,1,,,,,,,,,,,,,,,,,,,,,,,,,,,,,,,,,,
,,,,,,,,,,,,,,1,001,2024-08-24_13h51.38.038,IAT(Formal),2021.2.3,Win32,59.52380952,,,,,,,,,,,,,,,i,1,0.4975,,,,,,他们,i,,,1,32,112,6,1,,,,,,,,,,,,,,,,,,,,,,,,,,,,,,,,,,
,,,,,,,,,,,,,,1,001,2024-08-24_13h51.38.038,IAT(Formal),2021.2.3,Win32,59.52380952,,,,,,,,,,,,,,,e,0,0.6921,,,,,,轻率,i,,,1,33,113,48,1,,,,,,,,,,,,,,,,,,,,,,,,,,,,,,,,,,
,,,,,,,,,,,,,,1,001,2024-08-24_13h51.38.038,IAT(Formal),2021.2.3,Win32,59.52380952,,,,,,,,,,,,,,,e,1,0.9537,,,,,,俺,e,,,1,34,114,64,1,,,,,,,,,,,,,,,,,,,,,,,,,,,,,,,,,,
,,,,,,,,,,,,,,1,001,2024-08-24_13h51.38.038,IAT(Formal),2021.2.3,Win32,59.52380952,,,,,,,,,,,,,,,,0,,,,,,,公正,e,,,1,35,115,23,1,,,,,,,,,,,,,,,,,,,,,,,,,,,,,,,,,,
,,,,,,,,,,,,,,1,001,2024-08-24_13h51.38.038,IAT(Formal),2021.2.3,Win32,59.52380952,,,,,,,,,,,,,,,,0,,,,,,,无私,e,,,1,36,116,22,1,,,,,,,,,,,,,,,,,,,,,,,,,,,,,,,,,,
,,,,,,,,,,,,,,1,001,2024-08-24_13h51.38.038,IAT(Formal),2021.2.3,Win32,59.52380952,,,,,,,,,,,,,,,i,1,0.6104,,,,,,消极,i,,,1,37,117,35,1,,,,,,,,,,,,,,,,,,,,,,,,,,,,,,,,,,
,,,,,,,,,,,,,,1,001,2024-08-24_13h51.38.038,IAT(Formal),2021.2.3,Win32,59.52380952,,,,,,,,,,,,,,,,0,,,,,,,自己,e,,,1,38,118,53,1,,,,,,,,,,,,,,,,,,,,,,,,,,,,,,,,,,
,,,,,,,,,,,,,,1,001,2024-08-24_13h51.38.038,IAT(Formal),2021.2.3,Win32,59.52380952,,,,,,,,,,,,,,,i,1,0.5619,,,,,,他们,i,,,1,39,119,66,1,,,,,,,,,,,,,,,,,,,,,,,,,,,,,,,,,,
,,,,,,,,,,,,,,1,001,2024-08-24_13h51.38.038,IAT(Formal),2021.2.3,Win32,59.52380952,,,,,,,,,,,,,,,,0,,,,,,,愚蠢,i,,,1,40,120,32,1,,,,,,,,,,,,,,,,,,,,,,,,,,,,,,,,,,
,,,,,,,,,,,,,,1,001,2024-08-24_13h51.38.038,IAT(Formal),2021.2.3,Win32,59.52380952,,,,,,,,,,,,,,,,0,,,,,,,我,e,,,1,41,121,60,1,,,,,,,,,,,,,,,,,,,,,,,,,,,,,,,,,,
,,,,,,,,,,,,,,1,001,2024-08-24_13h51.38.038,IAT(Formal),2021.2.3,Win32,59.52380952,,,,,,,,,,,,,,,e,1,0.6229,,,,,,俺,e,,,1,42,122,4,1,,,,,,,,,,,,,,,,,,,,,,,,,,,,,,,,,,
,,,,,,,,,,,,,,1,001,2024-08-24_13h51.38.038,IAT(Formal),2021.2.3,Win32,59.52380952,,,,,,,,,,,,,,,e,1,0.717,,,,,,细腻,e,,,1,43,123,25,1,,,,,,,,,,,,,,,,,,,,,,,,,,,,,,,,,,
,,,,,,,,,,,,,,1,001,2024-08-24_13h51.38.038,IAT(Formal),2021.2.3,Win32,59.52380952,,,,,,,,,,,,,,,,0,,,,,,,凶狠,i,,,1,44,124,42,1,,,,,,,,,,,,,,,,,,,,,,,,,,,,,,,,,,
,,,,,,,,,,,,,,1,001,2024-08-24_13h51.38.038,IAT(Formal),2021.2.3,Win32,59.52380952,,,,,,,,,,,,,,,i,1,0.7385,,,,,,他,i,,,1,45,125,5,1,,,,,,,,,,,,,,,,,,,,,,,,,,,,,,,,,,
,,,,,,,,,,,,,,1,001,2024-08-24_13h51.38.038,IAT(Formal),2021.2.3,Win32,59.52380952,,,,,,,,,,,,,,,i,1,0.8138,,,,,,傲慢,i,,,1,46,126,37,1,,,,,,,,,,,,,,,,,,,,,,,,,,,,,,,,,,
,,,,,,,,,,,,,,1,001,2024-08-24_13h51.38.038,IAT(Formal),2021.2.3,Win32,59.52380952,,,,,,,,,,,,,,,,0,,,,,,,固执,i,,,1,47,127,47,1,,,,,,,,,,,,,,,,,,,,,,,,,,,,,,,,,,
,,,,,,,,,,,,,,1,001,2024-08-24_13h51.38.038,IAT(Formal),2021.2.3,Win32,59.52380952,,,,,,,,,,,,,,,,0,,,,,,,自私,i,,,1,48,128,43,1,,,,,,,,,,,,,,,,,,,,,,,,,,,,,,,,,,
,,,,,,,,,,,,,,1,001,2024-08-24_13h51.38.038,IAT(Formal),2021.2.3,Win32,59.52380952,,,,,,,,,,,,,,,i,1,1.1505,,,,,,其他,i,,,1,49,129,9,1,,,,,,,,,,,,,,,,,,,,,,,,,,,,,,,,,,
,,,,,,,,,,,,,,1,001,2024-08-24_13h51.38.038,IAT(Formal),2021.2.3,Win32,59.52380952,,,,,,,,,,,,,,,i,1,0.4876,,,,,,他,i,,,1,50,130,65,1,,,,,,,,,,,,,,,,,,,,,,,,,,,,,,,,,,
,,,,,,,,,,,,,,1,001,2024-08-24_13h51.38.038,IAT(Formal),2021.2.3,Win32,59.52380952,,,,,,,,,,,,,,,,0,,,,,,,自卑,i,,,1,51,131,36,1,,,,,,,,,,,,,,,,,,,,,,,,,,,,,,,,,,
,,,,,,,,,,,,,,1,001,2024-08-24_13h51.38.038,IAT(Formal),2021.2.3,Win32,59.52380952,,,,,,,,,,,,,,,i,0,1.1475,,,,,,机智,e,,,1,52,132,19,1,,,,,,,,,,,,,,,,,,,,,,,,,,,,,,,,,,
,,,,,,,,,,,,,,1,001,2024-08-24_13h51.38.038,IAT(Formal),2021.2.3,Win32,59.52380952,,,,,,,,,,,,,,,i,1,0.6525,,,,,,执拗,i,,,1,53,133,40,1,,,,,,,,,,,,,,,,,,,,,,,,,,,,,,,,,,
,,,,,,,,,,,,,,1,001,2024-08-24_13h51.38.038,IAT(Formal),2021.2.3,Win32,59.52380952,,,,,,,,,,,,,,,e,1,0.5854,,,,,,自己,e,,,1,54,134,63,1,,,,,,,,,,,,,,,,,,,,,,,,,,,,,,,,,,
,,,,,,,,,,,,,,1,001,2024-08-24_13h51.38.038,IAT(Formal),2021.2.3,Win32,59.52380952,,,,,,,,,,,,,,,,0,,,,,,,俺,e,,,1,55,135,74,1,,,,,,,,,,,,,,,,,,,,,,,,,,,,,,,,,,
,,,,,,,,,,,,,,1,001,2024-08-24_13h51.38.038,IAT(Formal),2021.2.3,Win32,59.52380952,,,,,,,,,,,,,,,,0,,,,,,,诚实,e,,,1,56,136,15,1,,,,,,,,,,,,,,,,,,,,,,,,,,,,,,,,,,
,,,,,,,,,,,,,,1,001,2024-08-24_13h51.38.038,IAT(Formal),2021.2.3,Win32,59.52380952,,,,,,,,,,,,,,,e,1,0.4697,,,,,,自己,e,,,1,57,137,73,1,,,,,,,,,,,,,,,,,,,,,,,,,,,,,,,,,,
,,,,,,,,,,,,,,1,001,2024-08-24_13h51.38.038,IAT(Formal),2021.2.3,Win32,59.52380952,,,,,,,,,,,,,,,e,1,0.6678,,,,,,活泼,e,,,1,58,138,28,1,,,,,,,,,,,,,,,,,,,,,,,,,,,,,,,,,,
,,,,,,,,,,,,,,1,001,2024-08-24_13h51.38.038,IAT(Formal),2021.2.3,Win32,59.52380952,,,,,,,,,,,,,,,,0,,,,,,,我们,e,,,1,59,139,72,1,,,,,,,,,,,,,,,,,,,,,,,,,,,,,,,,,,
,,,,,,,,,,,,,,1,001,2024-08-24_13h51.38.038,IAT(Formal),2021.2.3,Win32,59.52380952,,,,,,,,,,,,,,,,0,,,,,,,野蛮,i,,,1,60,140,46,1,,,,,,,,,,,,,,,,,,,,,,,,,,,,,,,,,,
,,,,,,,,,,,,,,1,001,2024-08-24_13h51.38.038,IAT(Formal),2021.2.3,Win32,59.52380952,,,,,,,,,,,,,,,i,0,0.7315,,,,,,我们,e,,,1,61,141,52,1,,,,,,,,,,,,,,,,,,,,,,,,,,,,,,,,,,
,,,,,,,,,,,,,,1,001,2024-08-24_13h51.38.038,IAT(Formal),2021.2.3,Win32,59.52380952,,,,,,,,,,,,,,,e,1,1.0225,,,,,,优秀,e,,,1,62,142,10,1,,,,,,,,,,,,,,,,,,,,,,,,,,,,,,,,,,
,,,,,,,,,,,,,,1,001,2024-08-24_13h51.38.038,IAT(Formal),2021.2.3,Win32,59.52380952,,,,,,,,,,,,,,,,0,,,,,,,其他,i,,,1,63,143,59,1,,,,,,,,,,,,,,,,,,,,,,,,,,,,,,,,,,
,,,,,,,,,,,,,,1,001,2024-08-24_13h51.38.038,IAT(Formal),2021.2.3,Win32,59.52380952,,,,,,,,,,,,,,,i,1,0.5348,,,,,,其他,i,,,1,64,144,69,1,,,,,,,,,,,,,,,,,,,,,,,,,,,,,,,,,,
,,,,,,,,,,,,,,1,001,2024-08-24_13h51.38.038,IAT(Formal),2021.2.3,Win32,59.52380952,,,,,,,,,,,,,,,,0,,,,,,,悲观,i,,,1,65,145,34,1,,,,,,,,,,,,,,,,,,,,,,,,,,,,,,,,,,
,,,,,,,,,,,,,,1,001,2024-08-24_13h51.38.038,IAT(Formal),2021.2.3,Win32,59.52380952,,,,,,,,,,,,,,,,0,,,,,,,我们,e,,,1,66,146,2,1,,,,,,,,,,,,,,,,,,,,,,,,,,,,,,,,,,
,,,,,,,,,,,,,,1,001,2024-08-24_13h51.38.038,IAT(Formal),2021.2.3,Win32,59.52380952,,,,,,,,,,,,,,,e,1,0.6838,,,,,,认真,e,,,1,67,147,20,1,,,,,,,,,,,,,,,,,,,,,,,,,,,,,,,,,,
,,,,,,,,,,,,,,1,001,2024-08-24_13h51.38.038,IAT(Formal),2021.2.3,Win32,59.52380952,,,,,,,,,,,,,,,e,1,0.4831,,,,,,我,e,,,1,68,148,70,1,,,,,,,,,,,,,,,,,,,,,,,,,,,,,,,,,,
,,,,,,,,,,,,,,1,001,2024-08-24_13h51.38.038,IAT(Formal),2021.2.3,Win32,59.52380952,,,,,,,,,,,,,,,e,1,0.3849,,,,,,我的,e,,,1,69,149,61,1,,,,,,,,,,,,,,,,,,,,,,,,,,,,,,,,,,
,,,,,,,,,,,,,,1,001,2024-08-24_13h51.38.038,IAT(Formal),2021.2.3,Win32,59.52380952,,,,,,,,,,,,,,,e,0,1.3004,,,,,,鲁莽,i,,,1,70,150,38,1,,,,,,,,,,,,,,,,,,,,,,,,,,,,,,,,,,
,,,,,,,,,,,,,,1,001,2024-08-24_13h51.38.038,IAT(Formal),2021.2.3,Win32,59.52380952,,,,,,,,,,,,,,,i,1,0.5706,,,,,,冒失,i,,,1,71,151,39,1,,,,,,,,,,,,,,,,,,,,,,,,,,,,,,,,,,
,,,,,,,,,,,,,,1,001,2024-08-24_13h51.38.038,IAT(Formal),2021.2.3,Win32,59.52380952,,,,,,,,,,,,,,,,0,,,,,,,俺,e,,,1,72,152,54,1,,,,,,,,,,,,,,,,,,,,,,,,,,,,,,,,,,
,,,,,,,,,,,,,,1,001,2024-08-24_13h51.38.038,IAT(Formal),2021.2.3,Win32,59.52380952,,,,,,,,,,,,,,,,0,,,,,,,我,e,,,1,73,153,0,1,,,,,,,,,,,,,,,,,,,,,,,,,,,,,,,,,,
,,,,,,,,,,,,,,1,001,2024-08-24_13h51.38.038,IAT(Formal),2021.2.3,Win32,59.52380952,,,,,,,,,,,,,,,,0,,,,,,,我的,e,,,1,74,154,71,1,,,,,,,,,,,,,,,,,,,,,,,,,,,,,,,,,,
,,,,,,,,,,,,,,1,001,2024-08-24_13h51.38.038,IAT(Formal),2021.2.3,Win32,59.52380952,,,,,,,,,,,,,,,i,1,0.5701,,,,,,他的,i,,,1,75,155,7,1,,,,,,,,,,,,,,,,,,,,,,,,,,,,,,,,,,
,,,,,,,,,,,,,,1,001,2024-08-24_13h51.38.038,IAT(Formal),2021.2.3,Win32,59.52380952,,,,,,,,,,,,,,,i,1,0.917,,,,,,其他,i,,,1,76,156,79,1,,,,,,,,,,,,,,,,,,,,,,,,,,,,,,,,,,
,,,,,,,,,,,,,,1,001,2024-08-24_13h51.38.038,IAT(Formal),2021.2.3,Win32,59.52380952,,,,,,,,,,,,,,,,0,,,,,,,猖狂,i,,,1,77,157,45,1,,,,,,,,,,,,,,,,,,,,,,,,,,,,,,,,,,
,,,,,,,,,,,,,,1,001,2024-08-24_13h51.38.038,IAT(Formal),2021.2.3,Win32,59.52380952,,,,,,,,,,,,,,,i,1,0.812,,,,,,他们,i,,,1,78,158,56,1,,,,,,,,,,,,,,,,,,,,,,,,,,,,,,,,,,
,,,,,,,,,,,,,,1,001,2024-08-24_13h51.38.038,IAT(Formal),2021.2.3,Win32,59.52380952,,,,,,,,,,,,,,,e,1,0.6454,,,,,,乐观,e,,,1,79,159,14,1,,,,,,,,,,,,,,,,,,,,,,,,,,,,,,,,,,
,,,,,,,,,,,,他的,e,1,001,2024-08-24_13h51.38.038,IAT(Formal),2021.2.3,Win32,59.52380952,,,,,,,,,,,,,,,,,,,,,,,,,,,,,,,,space,12.6396,e,1,1.1784,0,0,0,7,1,,,,,,,,,,,,,,,,,,,,,,,,
,,,,,,,,,,,,其他,e,1,001,2024-08-24_13h51.38.038,IAT(Formal),2021.2.3,Win32,59.52380952,,,,,,,,,,,,,,,,,,,,,,,,,,,,,,,,,,e,1,0.8224,0,1,1,9,1,,,,,,,,,,,,,,,,,,,,,,,,
,,,,,,,,,,,,我的,i,1,001,2024-08-24_13h51.38.038,IAT(Formal),2021.2.3,Win32,59.52380952,,,,,,,,,,,,,,,,,,,,,,,,,,,,,,,,,,,0,,0,2,2,1,1,,,,,,,,,,,,,,,,,,,,,,,,
,,,,,,,,,,,,他们,e,1,001,2024-08-24_13h51.38.038,IAT(Formal),2021.2.3,Win32,59.52380952,,,,,,,,,,,,,,,,,,,,,,,,,,,,,,,,,,,0,,0,3,3,6,1,,,,,,,,,,,,,,,,,,,,,,,,
,,,,,,,,,,,,自己,i,1,001,2024-08-24_13h51.38.038,IAT(Formal),2021.2.3,Win32,59.52380952,,,,,,,,,,,,,,,,,,,,,,,,,,,,,,,,,,i,1,0.9367,0,4,4,3,1,,,,,,,,,,,,,,,,,,,,,,,,
,,,,,,,,,,,,我们,i,1,001,2024-08-24_13h51.38.038,IAT(Formal),2021.2.3,Win32,59.52380952,,,,,,,,,,,,,,,,,,,,,,,,,,,,,,,,,,i,1,0.7412,0,5,5,2,1,,,,,,,,,,,,,,,,,,,,,,,,
,,,,,,,,,,,,我,i,1,001,2024-08-24_13h51.38.038,IAT(Formal),2021.2.3,Win32,59.52380952,,,,,,,,,,,,,,,,,,,,,,,,,,,,,,,,,,i,1,0.4636,0,6,6,0,1,,,,,,,,,,,,,,,,,,,,,,,,
,,,,,,,,,,,,他,e,1,001,2024-08-24_13h51.38.038,IAT(Formal),2021.2.3,Win32,59.52380952,,,,,,,,,,,,,,,,,,,,,,,,,,,,,,,,,,e,1,0.7028,0,7,7,5,1,,,,,,,,,,,,,,,,,,,,,,,,
,,,,,,,,,,,,他人,e,1,001,2024-08-24_13h51.38.038,IAT(Formal),2021.2.3,Win32,59.52380952,,,,,,,,,,,,,,,,,,,,,,,,,,,,,,,,,,,0,,0,8,8,8,1,,,,,,,,,,,,,,,,,,,,,,,,
,,,,,,,,,,,,俺,i,1,001,2024-08-24_13h51.38.038,IAT(Formal),2021.2.3,Win32,59.52380952,,,,,,,,,,,,,,,,,,,,,,,,,,,,,,,,,,,0,,0,9,9,4,1,,,,,,,,,,,,,,,,,,,,,,,,
,,,,,,,,,,,,,,1,001,2024-08-24_13h51.38.038,IAT(Formal),2021.2.3,Win32,59.52380952,,,,,,,,,,,,,,,,,,,,,,,,,,,,,,,,,,,,,,,,,,space,20.0892,e,1,1.0548,0,0,0,79,1,其他,e,,,,,,,,,,,,
,,,,,,,,,,,,,,1,001,2024-08-24_13h51.38.038,IAT(Formal),2021.2.3,Win32,59.52380952,,,,,,,,,,,,,,,,,,,,,,,,,,,,,,,,,,,,,,,,,,,,i,1,0.7203,0,1,1,62,1,我们,i,,,,,,,,,,,,
,,,,,,,,,,,,,,1,001,2024-08-24_13h51.38.038,IAT(Formal),2021.2.3,Win32,59.52380952,,,,,,,,,,,,,,,,,,,,,,,,,,,,,,,,,,,,,,,,,,,,e,0,0.636,0,2,2,46,1,野蛮,i,,,,,,,,,,,,
,,,,,,,,,,,,,,1,001,2024-08-24_13h51.38.038,IAT(Formal),2021.2.3,Win32,59.52380952,,,,,,,,,,,,,,,,,,,,,,,,,,,,,,,,,,,,,,,,,,,,e,1,0.9896,0,3,3,29,1,诚恳,e,,,,,,,,,,,,
,,,,,,,,,,,,,,1,001,2024-08-24_13h51.38.038,IAT(Formal),2021.2.3,Win32,59.52380952,,,,,,,,,,,,,,,,,,,,,,,,,,,,,,,,,,,,,,,,,,,,e,1,0.5466,0,4,4,66,1,他们,e,,,,,,,,,,,,
,,,,,,,,,,,,,,1,001,2024-08-24_13h51.38.038,IAT(Formal),2021.2.3,Win32,59.52380952,,,,,,,,,,,,,,,,,,,,,,,,,,,,,,,,,,,,,,,,,,,,e,1,0.5874,0,5,5,57,1,他的,e,,,,,,,,,,,,
,,,,,,,,,,,,,,1,001,2024-08-24_13h51.38.038,IAT(Formal),2021.2.3,Win32,59.52380952,,,,,,,,,,,,,,,,,,,,,,,,,,,,,,,,,,,,,,,,,,,,e,0,0.5181,0,6,6,33,1,刻薄,i,,,,,,,,,,,,
,,,,,,,,,,,,,,1,001,2024-08-24_13h51.38.038,IAT(Formal),2021.2.3,Win32,59.52380952,,,,,,,,,,,,,,,,,,,,,,,,,,,,,,,,,,,,,,,,,,,,e,1,0.5157,0,7,7,75,1,他,e,,,,,,,,,,,,
,,,,,,,,,,,,,,1,001,2024-08-24_13h51.38.038,IAT(Formal),2021.2.3,Win32,59.52380952,,,,,,,,,,,,,,,,,,,,,,,,,,,,,,,,,,,,,,,,,,,,i,0,0.9835,0,8,8,22,1,无私,e,,,,,,,,,,,,
,,,,,,,,,,,,,,1,001,2024-08-24_13h51.38.038,IAT(Formal),2021.2.3,Win32,59.52380952,,,,,,,,,,,,,,,,,,,,,,,,,,,,,,,,,,,,,,,,,,,,i,1,0.6457,0,9,9,2,1,我们,i,,,,,,,,,,,,
,,,,,,,,,,,,,,1,001,2024-08-24_13h51.38.038,IAT(Formal),2021.2.3,Win32,59.52380952,,,,,,,,,,,,,,,,,,,,,,,,,,,,,,,,,,,,,,,,,,,,i,1,0.7629,0,10,10,61,1,我的,i,,,,,,,,,,,,
,,,,,,,,,,,,,,1,001,2024-08-24_13h51.38.038,IAT(Formal),2021.2.3,Win32,59.52380952,,,,,,,,,,,,,,,,,,,,,,,,,,,,,,,,,,,,,,,,,,,,e,0,1.0345,0,11,11,39,1,冒失,i,,,,,,,,,,,,
,,,,,,,,,,,,,,1,001,2024-08-24_13h51.38.038,IAT(Formal),2021.2.3,Win32,59.52380952,,,,,,,,,,,,,,,,,,,,,,,,,,,,,,,,,,,,,,,,,,,,,0,,0,12,12,36,1,自卑,i,,,,,,,,,,,,
,,,,,,,,,,,,,,1,001,2024-08-24_13h51.38.038,IAT(Formal),2021.2.3,Win32,59.52380952,,,,,,,,,,,,,,,,,,,,,,,,,,,,,,,,,,,,,,,,,,,,e,1,0.6115,0,13,13,10,1,优秀,e,,,,,,,,,,,,
,,,,,,,,,,,,,,1,001,2024-08-24_13h51.38.038,IAT(Formal),2021.2.3,Win32,59.52380952,,,,,,,,,,,,,,,,,,,,,,,,,,,,,,,,,,,,,,,,,,,,e,0,0.5517,0,14,14,63,1,自己,i,,,,,,,,,,,,
,,,,,,,,,,,,,,1,001,2024-08-24_13h51.38.038,IAT(Formal),2021.2.3,Win32,59.52380952,,,,,,,,,,,,,,,,,,,,,,,,,,,,,,,,,,,,,,,,,,,,e,1,0.7186,0,15,15,19,1,机智,e,,,,,,,,,,,,
,,,,,,,,,,,,,,1,001,2024-08-24_13h51.38.038,IAT(Formal),2021.2.3,Win32,59.52380952,,,,,,,,,,,,,,,,,,,,,,,,,,,,,,,,,,,,,,,,,,,,e,1,0.666,0,16,16,28,1,活泼,e,,,,,,,,,,,,
,,,,,,,,,,,,,,1,001,2024-08-24_13h51.38.038,IAT(Formal),2021.2.3,Win32,59.52380952,,,,,,,,,,,,,,,,,,,,,,,,,,,,,,,,,,,,,,,,,,,,e,1,0.8051,0,17,17,26,1,冷静,e,,,,,,,,,,,,
,,,,,,,,,,,,,,1,001,2024-08-24_13h51.38.038,IAT(Formal),2021.2.3,Win32,59.52380952,,,,,,,,,,,,,,,,,,,,,,,,,,,,,,,,,,,,,,,,,,,,e,1,0.761,0,18,18,11,1,崇高,e,,,,,,,,,,,,
,,,,,,,,,,,,,,1,001,2024-08-24_13h51.38.038,IAT(Formal),2021.2.3,Win32,59.52380952,,,,,,,,,,,,,,,,,,,,,,,,,,,,,,,,,,,,,,,,,,,,i,1,0.8166,0,19,19,42,1,凶狠,i,,,,,,,,,,,,
,,,,,,,,,,,,,,1,001,2024-08-24_13h51.38.038,IAT(Formal),2021.2.3,Win32,59.52380952,,,,,,,,,,,,,,,,,,,,,,,,,,,,,,,,,,,,,,,,,,,,e,1,0.7289,0,20,20,78,1,他人,e,,,,,,,,,,,,
,,,,,,,,,,,,,,1,001,2024-08-24_13h51.38.038,IAT(Formal),2021.2.3,Win32,59.52380952,,,,,,,,,,,,,,,,,,,,,,,,,,,,,,,,,,,,,,,,,,,,e,1,0.813,0,21,21,20,1,认真,e,,,,,,,,,,,,
,,,,,,,,,,,,,,1,001,2024-08-24_13h51.38.038,IAT(Formal),2021.2.3,Win32,59.52380952,,,,,,,,,,,,,,,,,,,,,,,,,,,,,,,,,,,,,,,,,,,,e,1,0.5017,0,22,22,67,1,他的,e,,,,,,,,,,,,
,,,,,,,,,,,,,,1,001,2024-08-24_13h51.38.038,IAT(Formal),2021.2.3,Win32,59.52380952,,,,,,,,,,,,,,,,,,,,,,,,,,,,,,,,,,,,,,,,,,,,i,1,0.7491,0,23,23,51,1,我的,i,,,,,,,,,,,,
,,,,,,,,,,,,,,1,001,2024-08-24_13h51.38.038,IAT(Formal),2021.2.3,Win32,59.52380952,,,,,,,,,,,,,,,,,,,,,,,,,,,,,,,,,,,,,,,,,,,,i,1,1.3844,0,24,24,32,1,愚蠢,i,,,,,,,,,,,,
,,,,,,,,,,,,,,1,001,2024-08-24_13h51.38.038,IAT(Formal),2021.2.3,Win32,59.52380952,,,,,,,,,,,,,,,,,,,,,,,,,,,,,,,,,,,,,,,,,,,,i,0,0.6995,0,25,25,15,1,诚实,e,,,,,,,,,,,,
,,,,,,,,,,,,,,1,001,2024-08-24_13h51.38.038,IAT(Formal),2021.2.3,Win32,59.52380952,,,,,,,,,,,,,,,,,,,,,,,,,,,,,,,,,,,,,,,,,,,,i,1,1.1524,0,26,26,53,1,自己,i,,,,,,,,,,,,
,,,,,,,,,,,,,,1,001,2024-08-24_13h51.38.038,IAT(Formal),2021.2.3,Win32,59.52380952,,,,,,,,,,,,,,,,,,,,,,,,,,,,,,,,,,,,,,,,,,,,e,0,1.151,0,27,27,41,1,散漫,i,,,,,,,,,,,,
,,,,,,,,,,,,,,1,001,2024-08-24_13h51.38.038,IAT(Formal),2021.2.3,Win32,59.52380952,,,,,,,,,,,,,,,,,,,,,,,,,,,,,,,,,,,,,,,,,,,,e,0,0.8956,0,28,28,54,1,俺,i,,,,,,,,,,,,
,,,,,,,,,,,,,,1,001,2024-08-24_13h51.38.038,IAT(Formal),2021.2.3,Win32,59.52380952,,,,,,,,,,,,,,,,,,,,,,,,,,,,,,,,,,,,,,,,,,,,i,1,1.112,0,29,29,45,1,猖狂,i,,,,,,,,,,,,
,,,,,,,,,,,,,,1,001,2024-08-24_13h51.38.038,IAT(Formal),2021.2.3,Win32,59.52380952,,,,,,,,,,,,,,,,,,,,,,,,,,,,,,,,,,,,,,,,,,,,i,1,0.5447,0,30,30,70,1,我,i,,,,,,,,,,,,
,,,,,,,,,,,,,,1,001,2024-08-24_13h51.38.038,IAT(Formal),2021.2.3,Win32,59.52380952,,,,,,,,,,,,,,,,,,,,,,,,,,,,,,,,,,,,,,,,,,,,e,1,0.6843,0,31,31,9,1,其他,e,,,,,,,,,,,,
,,,,,,,,,,,,,,1,001,2024-08-24_13h51.38.038,IAT(Formal),2021.2.3,Win32,59.52380952,,,,,,,,,,,,,,,,,,,,,,,,,,,,,,,,,,,,,,,,,,,,e,1,0.658,0,32,32,77,1,他的,e,,,,,,,,,,,,
,,,,,,,,,,,,,,1,001,2024-08-24_13h51.38.038,IAT(Formal),2021.2.3,Win32,59.52380952,,,,,,,,,,,,,,,,,,,,,,,,,,,,,,,,,,,,,,,,,,,,i,1,0.4786,0,33,33,71,1,我的,i,,,,,,,,,,,,
,,,,,,,,,,,,,,1,001,2024-08-24_13h51.38.038,IAT(Formal),2021.2.3,Win32,59.52380952,,,,,,,,,,,,,,,,,,,,,,,,,,,,,,,,,,,,,,,,,,,,e,1,0.6227,0,34,34,18,1,勤奋,e,,,,,,,,,,,,
,,,,,,,,,,,,,,1,001,2024-08-24_13h51.38.038,IAT(Formal),2021.2.3,Win32,59.52380952,,,,,,,,,,,,,,,,,,,,,,,,,,,,,,,,,,,,,,,,,,,,e,0,1.3225,0,35,35,30,1,卑鄙,i,,,,,,,,,,,,
,,,,,,,,,,,,,,1,001,2024-08-24_13h51.38.038,IAT(Formal),2021.2.3,Win32,59.52380952,,,,,,,,,,,,,,,,,,,,,,,,,,,,,,,,,,,,,,,,,,,,i,1,1.3712,0,36,36,74,1,俺,i,,,,,,,,,,,,
,,,,,,,,,,,,,,1,001,2024-08-24_13h51.38.038,IAT(Formal),2021.2.3,Win32,59.52380952,,,,,,,,,,,,,,,,,,,,,,,,,,,,,,,,,,,,,,,,,,,,i,0,1.3604,0,37,37,25,1,细腻,e,,,,,,,,,,,,
,,,,,,,,,,,,,,1,001,2024-08-24_13h51.38.038,IAT(Formal),2021.2.3,Win32,59.52380952,,,,,,,,,,,,,,,,,,,,,,,,,,,,,,,,,,,,,,,,,,,,i,1,0.7725,0,38,38,49,1,下贱,i,,,,,,,,,,,,
,,,,,,,,,,,,,,1,001,2024-08-24_13h51.38.038,IAT(Formal),2021.2.3,Win32,59.52380952,,,,,,,,,,,,,,,,,,,,,,,,,,,,,,,,,,,,,,,,,,,,i,1,0.5238,0,39,39,4,1,俺,i,,,,,,,,,,,,
,,,,,,,,,,,,,,1,001,2024-08-24_13h51.38.038,IAT(Formal),2021.2.3,Win32,59.52380952,,,,,,,,,,,,,,,,,,,,,,,,,,,,,,,,,,,,,,,,,,,,e,1,0.6668,0,40,40,68,1,他人,e,,,,,,,,,,,,
,,,,,,,,,,,,,,1,001,2024-08-24_13h51.38.038,IAT(Formal),2021.2.3,Win32,59.52380952,,,,,,,,,,,,,,,,,,,,,,,,,,,,,,,,,,,,,,,,,,,,i,1,0.514,0,41,41,3,1,自己,i,,,,,,,,,,,,
,,,,,,,,,,,,,,1,001,2024-08-24_13h51.38.038,IAT(Formal),2021.2.3,Win32,59.52380952,,,,,,,,,,,,,,,,,,,,,,,,,,,,,,,,,,,,,,,,,,,,i,1,0.5127,0,42,42,72,1,我们,i,,,,,,,,,,,,
,,,,,,,,,,,,,,1,001,2024-08-24_13h51.38.038,IAT(Formal),2021.2.3,Win32,59.52380952,,,,,,,,,,,,,,,,,,,,,,,,,,,,,,,,,,,,,,,,,,,,e,1,0.5733,0,43,43,69,1,其他,e,,,,,,,,,,,,
,,,,,,,,,,,,,,1,001,2024-08-24_13h51.38.038,IAT(Formal),2021.2.3,Win32,59.52380952,,,,,,,,,,,,,,,,,,,,,,,,,,,,,,,,,,,,,,,,,,,,i,1,0.5784,0,44,44,73,1,自己,i,,,,,,,,,,,,
,,,,,,,,,,,,,,1,001,2024-08-24_13h51.38.038,IAT(Formal),2021.2.3,Win32,59.52380952,,,,,,,,,,,,,,,,,,,,,,,,,,,,,,,,,,,,,,,,,,,,i,1,0.4784,0,45,45,52,1,我们,i,,,,,,,,,,,,
,,,,,,,,,,,,,,1,001,2024-08-24_13h51.38.038,IAT(Formal),2021.2.3,Win32,59.52380952,,,,,,,,,,,,,,,,,,,,,,,,,,,,,,,,,,,,,,,,,,,,i,1,0.5302,0,46,46,50,1,我,i,,,,,,,,,,,,
,,,,,,,,,,,,,,1,001,2024-08-24_13h51.38.038,IAT(Formal),2021.2.3,Win32,59.52380952,,,,,,,,,,,,,,,,,,,,,,,,,,,,,,,,,,,,,,,,,,,,i,0,0.4129,0,47,47,55,1,他,e,,,,,,,,,,,,
,,,,,,,,,,,,,,1,001,2024-08-24_13h51.38.038,IAT(Formal),2021.2.3,Win32,59.52380952,,,,,,,,,,,,,,,,,,,,,,,,,,,,,,,,,,,,,,,,,,,,e,1,0.6024,0,48,48,56,1,他们,e,,,,,,,,,,,,
,,,,,,,,,,,,,,1,001,2024-08-24_13h51.38.038,IAT(Formal),2021.2.3,Win32,59.52380952,,,,,,,,,,,,,,,,,,,,,,,,,,,,,,,,,,,,,,,,,,,,e,1,0.7534,0,49,49,7,1,他的,e,,,,,,,,,,,,
,,,,,,,,,,,,,,1,001,2024-08-24_13h51.38.038,IAT(Formal),2021.2.3,Win32,59.52380952,,,,,,,,,,,,,,,,,,,,,,,,,,,,,,,,,,,,,,,,,,,,e,1,0.5526,0,50,50,8,1,他人,e,,,,,,,,,,,,
,,,,,,,,,,,,,,1,001,2024-08-24_13h51.38.038,IAT(Formal),2021.2.3,Win32,59.52380952,,,,,,,,,,,,,,,,,,,,,,,,,,,,,,,,,,,,,,,,,,,,i,0,0.8998,0,51,51,21,1,稳重,e,,,,,,,,,,,,
,,,,,,,,,,,,,,1,001,2024-08-24_13h51.38.038,IAT(Formal),2021.2.3,Win32,59.52380952,,,,,,,,,,,,,,,,,,,,,,,,,,,,,,,,,,,,,,,,,,,,e,1,0.8903,0,52,52,13,1,杰出,e,,,,,,,,,,,,
,,,,,,,,,,,,,,1,001,2024-08-24_13h51.38.038,IAT(Formal),2021.2.3,Win32,59.52380952,,,,,,,,,,,,,,,,,,,,,,,,,,,,,,,,,,,,,,,,,,,,e,1,0.8501,0,53,53,59,1,其他,e,,,,,,,,,,,,
,,,,,,,,,,,,,,1,001,2024-08-24_13h51.38.038,IAT(Formal),2021.2.3,Win32,59.52380952,,,,,,,,,,,,,,,,,,,,,,,,,,,,,,,,,,,,,,,,,,,,i,1,1.0827,0,54,54,40,1,执拗,i,,,,,,,,,,,,
,,,,,,,,,,,,,,1,001,2024-08-24_13h51.38.038,IAT(Formal),2021.2.3,Win32,59.52380952,,,,,,,,,,,,,,,,,,,,,,,,,,,,,,,,,,,,,,,,,,,,e,1,0.7124,0,55,55,58,1,他人,e,,,,,,,,,,,,
,,,,,,,,,,,,,,1,001,2024-08-24_13h51.38.038,IAT(Formal),2021.2.3,Win32,59.52380952,,,,,,,,,,,,,,,,,,,,,,,,,,,,,,,,,,,,,,,,,,,,e,1,1.1814,0,56,56,17,1,勇敢,e,,,,,,,,,,,,
,,,,,,,,,,,,,,1,001,2024-08-24_13h51.38.038,IAT(Formal),2021.2.3,Win32,59.52380952,,,,,,,,,,,,,,,,,,,,,,,,,,,,,,,,,,,,,,,,,,,,i,1,0.7642,0,57,57,48,1,轻率,i,,,,,,,,,,,,
,,,,,,,,,,,,,,1,001,2024-08-24_13h51.38.038,IAT(Formal),2021.2.3,Win32,59.52380952,,,,,,,,,,,,,,,,,,,,,,,,,,,,,,,,,,,,,,,,,,,,i,1,1.1938,0,58,58,47,1,固执,i,,,,,,,,,,,,
,,,,,,,,,,,,,,1,001,2024-08-24_13h51.38.038,IAT(Formal),2021.2.3,Win32,59.52380952,,,,,,,,,,,,,,,,,,,,,,,,,,,,,,,,,,,,,,,,,,,,i,1,0.6057,0,59,59,37,1,傲慢,i,,,,,,,,,,,,
,,,,,,,,,,,,,,1,001,2024-08-24_13h51.38.038,IAT(Formal),2021.2.3,Win32,59.52380952,,,,,,,,,,,,,,,,,,,,,,,,,,,,,,,,,,,,,,,,,,,,e,1,0.6567,0,60,60,27,1,热情,e,,,,,,,,,,,,
,,,,,,,,,,,,,,1,001,2024-08-24_13h51.38.038,IAT(Formal),2021.2.3,Win32,59.52380952,,,,,,,,,,,,,,,,,,,,,,,,,,,,,,,,,,,,,,,,,,,,i,1,0.7798,0,61,61,44,1,暴躁,i,,,,,,,,,,,,
,,,,,,,,,,,,,,1,001,2024-08-24_13h51.38.038,IAT(Formal),2021.2.3,Win32,59.52380952,,,,,,,,,,,,,,,,,,,,,,,,,,,,,,,,,,,,,,,,,,,,i,1,0.5803,0,62,62,38,1,鲁莽,i,,,,,,,,,,,,
,,,,,,,,,,,,,,1,001,2024-08-24_13h51.38.038,IAT(Formal),2021.2.3,Win32,59.52380952,,,,,,,,,,,,,,,,,,,,,,,,,,,,,,,,,,,,,,,,,,,,i,1,0.563,0,63,63,31,1,虚伪,i,,,,,,,,,,,,
,,,,,,,,,,,,,,1,001,2024-08-24_13h51.38.038,IAT(Formal),2021.2.3,Win32,59.52380952,,,,,,,,,,,,,,,,,,,,,,,,,,,,,,,,,,,,,,,,,,,,e,1,0.6604,0,64,64,24,1,朴实,e,,,,,,,,,,,,
,,,,,,,,,,,,,,1,001,2024-08-24_13h51.38.038,IAT(Formal),2021.2.3,Win32,59.52380952,,,,,,,,,,,,,,,,,,,,,,,,,,,,,,,,,,,,,,,,,,,,i,1,0.623,0,65,65,34,1,悲观,i,,,,,,,,,,,,
,,,,,,,,,,,,,,1,001,2024-08-24_13h51.38.038,IAT(Formal),2021.2.3,Win32,59.52380952,,,,,,,,,,,,,,,,,,,,,,,,,,,,,,,,,,,,,,,,,,,,i,0,0.5512,0,66,66,5,1,他,e,,,,,,,,,,,,
,,,,,,,,,,,,,,1,001,2024-08-24_13h51.38.038,IAT(Formal),2021.2.3,Win32,59.52380952,,,,,,,,,,,,,,,,,,,,,,,,,,,,,,,,,,,,,,,,,,,,i,1,0.5035,0,67,67,1,1,我的,i,,,,,,,,,,,,
,,,,,,,,,,,,,,1,001,2024-08-24_13h51.38.038,IAT(Formal),2021.2.3,Win32,59.52380952,,,,,,,,,,,,,,,,,,,,,,,,,,,,,,,,,,,,,,,,,,,,e,0,0.8465,0,68,68,43,1,自私,i,,,,,,,,,,,,
,,,,,,,,,,,,,,1,001,2024-08-24_13h51.38.038,IAT(Formal),2021.2.3,Win32,59.52380952,,,,,,,,,,,,,,,,,,,,,,,,,,,,,,,,,,,,,,,,,,,,i,1,0.6173,0,69,69,60,1,我,i,,,,,,,,,,,,
,,,,,,,,,,,,,,1,001,2024-08-24_13h51.38.038,IAT(Formal),2021.2.3,Win32,59.52380952,,,,,,,,,,,,,,,,,,,,,,,,,,,,,,,,,,,,,,,,,,,,e,1,0.6261,0,70,70,65,1,他,e,,,,,,,,,,,,
,,,,,,,,,,,,,,1,001,2024-08-24_13h51.38.038,IAT(Formal),2021.2.3,Win32,59.52380952,,,,,,,,,,,,,,,,,,,,,,,,,,,,,,,,,,,,,,,,,,,,e,1,0.9182,0,71,71,23,1,公正,e,,,,,,,,,,,,
,,,,,,,,,,,,,,1,001,2024-08-24_13h51.38.038,IAT(Formal),2021.2.3,Win32,59.52380952,,,,,,,,,,,,,,,,,,,,,,,,,,,,,,,,,,,,,,,,,,,,i,1,0.6666,0,72,72,64,1,俺,i,,,,,,,,,,,,
,,,,,,,,,,,,,,1,001,2024-08-24_13h51.38.038,IAT(Formal),2021.2.3,Win32,59.52380952,,,,,,,,,,,,,,,,,,,,,,,,,,,,,,,,,,,,,,,,,,,,e,1,0.8506,0,73,73,12,1,聪明,e,,,,,,,,,,,,
,,,,,,,,,,,,,,1,001,2024-08-24_13h51.38.038,IAT(Formal),2021.2.3,Win32,59.52380952,,,,,,,,,,,,,,,,,,,,,,,,,,,,,,,,,,,,,,,,,,,,e,1,0.7194,0,74,74,6,1,他们,e,,,,,,,,,,,,
,,,,,,,,,,,,,,1,001,2024-08-24_13h51.38.038,IAT(Formal),2021.2.3,Win32,59.52380952,,,,,,,,,,,,,,,,,,,,,,,,,,,,,,,,,,,,,,,,,,,,e,1,0.5548,0,75,75,16,1,正直,e,,,,,,,,,,,,
,,,,,,,,,,,,,,1,001,2024-08-24_13h51.38.038,IAT(Formal),2021.2.3,Win32,59.52380952,,,,,,,,,,,,,,,,,,,,,,,,,,,,,,,,,,,,,,,,,,,,i,1,0.6059,0,76,76,35,1,消极,i,,,,,,,,,,,,
,,,,,,,,,,,,,,1,001,2024-08-24_13h51.38.038,IAT(Formal),2021.2.3,Win32,59.52380952,,,,,,,,,,,,,,,,,,,,,,,,,,,,,,,,,,,,,,,,,,,,e,1,0.5287,0,77,77,76,1,他们,e,,,,,,,,,,,,
,,,,,,,,,,,,,,1,001,2024-08-24_13h51.38.038,IAT(Formal),2021.2.3,Win32,59.52380952,,,,,,,,,,,,,,,,,,,,,,,,,,,,,,,,,,,,,,,,,,,,i,1,0.5581,0,78,78,0,1,我,i,,,,,,,,,,,,
,,,,,,,,,,,,,,1,001,2024-08-24_13h51.38.038,IAT(Formal),2021.2.3,Win32,59.52380952,,,,,,,,,,,,,,,,,,,,,,,,,,,,,,,,,,,,,,,,,,,,e,1,0.7007,0,79,79,14,1,乐观,e,,,,,,,,,,,,
,,,,,,,,,,,,,,1,001,2024-08-24_13h51.38.038,IAT(Formal),2021.2.3,Win32,59.52380952,,,,,,,,,,,,,,,,,,,,,,,,,,,,,,,,,,,,,,,,,,,,,,,,,,,,我的,i,space,9.0973,i,1,0.426,0,0,0,1,1,,
,,,,,,,,,,,,,,1,001,2024-08-24_13h51.38.038,IAT(Formal),2021.2.3,Win32,59.52380952,,,,,,,,,,,,,,,,,,,,,,,,,,,,,,,,,,,,,,,,,,,,,,,,,,,,勤奋,e,,,e,1,0.6571,0,1,1,18,1,,
,,,,,,,,,,,,,,1,001,2024-08-24_13h51.38.038,IAT(Formal),2021.2.3,Win32,59.52380952,,,,,,,,,,,,,,,,,,,,,,,,,,,,,,,,,,,,,,,,,,,,,,,,,,,,诚恳,e,,,e,1,0.785,0,2,2,29,1,,
,,,,,,,,,,,,,,1,001,2024-08-24_13h51.38.038,IAT(Formal),2021.2.3,Win32,59.52380952,,,,,,,,,,,,,,,,,,,,,,,,,,,,,,,,,,,,,,,,,,,,,,,,,,,,自卑,i,,,i,1,0.6776,0,3,3,36,1,,
,,,,,,,,,,,,,,1,001,2024-08-24_13h51.38.038,IAT(Formal),2021.2.3,Win32,59.52380952,,,,,,,,,,,,,,,,,,,,,,,,,,,,,,,,,,,,,,,,,,,,,,,,,,,,其他,e,,,e,1,0.6144,0,4,4,69,1,,
,,,,,,,,,,,,,,1,001,2024-08-24_13h51.38.038,IAT(Formal),2021.2.3,Win32,59.52380952,,,,,,,,,,,,,,,,,,,,,,,,,,,,,,,,,,,,,,,,,,,,,,,,,,,,崇高,e,,,e,1,0.7854,0,5,5,11,1,,
,,,,,,,,,,,,,,1,001,2024-08-24_13h51.38.038,IAT(Formal),2021.2.3,Win32,59.52380952,,,,,,,,,,,,,,,,,,,,,,,,,,,,,,,,,,,,,,,,,,,,,,,,,,,,他们,e,,,e,1,0.6666,0,6,6,66,1,,
,,,,,,,,,,,,,,1,001,2024-08-24_13h51.38.038,IAT(Formal),2021.2.3,Win32,59.52380952,,,,,,,,,,,,,,,,,,,,,,,,,,,,,,,,,,,,,,,,,,,,,,,,,,,,暴躁,i,,,e,0,0.5297,0,7,7,44,1,,
,,,,,,,,,,,,,,1,001,2024-08-24_13h51.38.038,IAT(Formal),2021.2.3,Win32,59.52380952,,,,,,,,,,,,,,,,,,,,,,,,,,,,,,,,,,,,,,,,,,,,,,,,,,,,聪明,e,,,e,1,0.6731,0,8,8,12,1,,
,,,,,,,,,,,,,,1,001,2024-08-24_13h51.38.038,IAT(Formal),2021.2.3,Win32,59.52380952,,,,,,,,,,,,,,,,,,,,,,,,,,,,,,,,,,,,,,,,,,,,,,,,,,,,乐观,e,,,e,1,0.9554,0,9,9,14,1,,
,,,,,,,,,,,,,,1,001,2024-08-24_13h51.38.038,IAT(Formal),2021.2.3,Win32,59.52380952,,,,,,,,,,,,,,,,,,,,,,,,,,,,,,,,,,,,,,,,,,,,,,,,,,,,固执,i,,,i,1,0.9727,0,10,10,47,1,,
,,,,,,,,,,,,,,1,001,2024-08-24_13h51.38.038,IAT(Formal),2021.2.3,Win32,59.52380952,,,,,,,,,,,,,,,,,,,,,,,,,,,,,,,,,,,,,,,,,,,,,,,,,,,,我们,i,,,i,1,0.455,0,11,11,2,1,,
,,,,,,,,,,,,,,1,001,2024-08-24_13h51.38.038,IAT(Formal),2021.2.3,Win32,59.52380952,,,,,,,,,,,,,,,,,,,,,,,,,,,,,,,,,,,,,,,,,,,,,,,,,,,,猖狂,i,,,i,1,0.6799,0,12,12,45,1,,
,,,,,,,,,,,,,,1,001,2024-08-24_13h51.38.038,IAT(Formal),2021.2.3,Win32,59.52380952,,,,,,,,,,,,,,,,,,,,,,,,,,,,,,,,,,,,,,,,,,,,,,,,,,,,正直,e,,,e,1,0.6223,0,13,13,16,1,,
,,,,,,,,,,,,,,1,001,2024-08-24_13h51.38.038,IAT(Formal),2021.2.3,Win32,59.52380952,,,,,,,,,,,,,,,,,,,,,,,,,,,,,,,,,,,,,,,,,,,,,,,,,,,,执拗,i,,,i,1,0.5663,0,14,14,40,1,,
,,,,,,,,,,,,,,1,001,2024-08-24_13h51.38.038,IAT(Formal),2021.2.3,Win32,59.52380952,,,,,,,,,,,,,,,,,,,,,,,,,,,,,,,,,,,,,,,,,,,,,,,,,,,,俺,i,,,i,1,0.4884,0,15,15,4,1,,
,,,,,,,,,,,,,,1,001,2024-08-24_13h51.38.038,IAT(Formal),2021.2.3,Win32,59.52380952,,,,,,,,,,,,,,,,,,,,,,,,,,,,,,,,,,,,,,,,,,,,,,,,,,,,鲁莽,i,,,i,1,0.5844,0,16,16,38,1,,
,,,,,,,,,,,,,,1,001,2024-08-24_13h51.38.038,IAT(Formal),2021.2.3,Win32,59.52380952,,,,,,,,,,,,,,,,,,,,,,,,,,,,,,,,,,,,,,,,,,,,,,,,,,,,卑鄙,i,,,i,1,0.4634,0,17,17,30,1,,
,,,,,,,,,,,,,,1,001,2024-08-24_13h51.38.038,IAT(Formal),2021.2.3,Win32,59.52380952,,,,,,,,,,,,,,,,,,,,,,,,,,,,,,,,,,,,,,,,,,,,,,,,,,,,他的,e,,,e,1,0.5443,0,18,18,57,1,,
,,,,,,,,,,,,,,1,001,2024-08-24_13h51.38.038,IAT(Formal),2021.2.3,Win32,59.52380952,,,,,,,,,,,,,,,,,,,,,,,,,,,,,,,,,,,,,,,,,,,,,,,,,,,,刻薄,i,,,i,1,0.5207,0,19,19,33,1,,
,,,,,,,,,,,,,,1,001,2024-08-24_13h51.38.038,IAT(Formal),2021.2.3,Win32,59.52380952,,,,,,,,,,,,,,,,,,,,,,,,,,,,,,,,,,,,,,,,,,,,,,,,,,,,野蛮,i,,,i,1,0.4699,0,20,20,46,1,,
,,,,,,,,,,,,,,1,001,2024-08-24_13h51.38.038,IAT(Formal),2021.2.3,Win32,59.52380952,,,,,,,,,,,,,,,,,,,,,,,,,,,,,,,,,,,,,,,,,,,,,,,,,,,,自己,i,,,i,1,0.6667,0,21,21,73,1,,
,,,,,,,,,,,,,,1,001,2024-08-24_13h51.38.038,IAT(Formal),2021.2.3,Win32,59.52380952,,,,,,,,,,,,,,,,,,,,,,,,,,,,,,,,,,,,,,,,,,,,,,,,,,,,消极,i,,,i,1,0.5663,0,22,22,35,1,,
,,,,,,,,,,,,,,1,001,2024-08-24_13h51.38.038,IAT(Formal),2021.2.3,Win32,59.52380952,,,,,,,,,,,,,,,,,,,,,,,,,,,,,,,,,,,,,,,,,,,,,,,,,,,,无私,e,,,i,0,0.5705,0,23,23,22,1,,
,,,,,,,,,,,,,,1,001,2024-08-24_13h51.38.038,IAT(Formal),2021.2.3,Win32,59.52380952,,,,,,,,,,,,,,,,,,,,,,,,,,,,,,,,,,,,,,,,,,,,,,,,,,,,虚伪,i,,,i,1,0.5615,0,24,24,31,1,,
,,,,,,,,,,,,,,1,001,2024-08-24_13h51.38.038,IAT(Formal),2021.2.3,Win32,59.52380952,,,,,,,,,,,,,,,,,,,,,,,,,,,,,,,,,,,,,,,,,,,,,,,,,,,,自己,i,,,i,1,0.5147,0,25,25,63,1,,
,,,,,,,,,,,,,,1,001,2024-08-24_13h51.38.038,IAT(Formal),2021.2.3,Win32,59.52380952,,,,,,,,,,,,,,,,,,,,,,,,,,,,,,,,,,,,,,,,,,,,,,,,,,,,他,e,,,e,1,0.6614,0,26,26,55,1,,
,,,,,,,,,,,,,,1,001,2024-08-24_13h51.38.038,IAT(Formal),2021.2.3,Win32,59.52380952,,,,,,,,,,,,,,,,,,,,,,,,,,,,,,,,,,,,,,,,,,,,,,,,,,,,自己,i,,,i,1,0.5499,0,27,27,3,1,,
,,,,,,,,,,,,,,1,001,2024-08-24_13h51.38.038,IAT(Formal),2021.2.3,Win32,59.52380952,,,,,,,,,,,,,,,,,,,,,,,,,,,,,,,,,,,,,,,,,,,,,,,,,,,,愚蠢,i,,,i,1,0.4999,0,28,28,32,1,,
,,,,,,,,,,,,,,1,001,2024-08-24_13h51.38.038,IAT(Formal),2021.2.3,Win32,59.52380952,,,,,,,,,,,,,,,,,,,,,,,,,,,,,,,,,,,,,,,,,,,,,,,,,,,,冷静,e,,,e,1,0.6012,0,29,29,26,1,,
,,,,,,,,,,,,,,1,001,2024-08-24_13h51.38.038,IAT(Formal),2021.2.3,Win32,59.52380952,,,,,,,,,,,,,,,,,,,,,,,,,,,,,,,,,,,,,,,,,,,,,,,,,,,,我们,i,,,i,1,0.4899,0,30,30,72,1,,
,,,,,,,,,,,,,,1,001,2024-08-24_13h51.38.038,IAT(Formal),2021.2.3,Win32,59.52380952,,,,,,,,,,,,,,,,,,,,,,,,,,,,,,,,,,,,,,,,,,,,,,,,,,,,机智,e,,,e,1,0.6495,0,31,31,19,1,,
,,,,,,,,,,,,,,1,001,2024-08-24_13h51.38.038,IAT(Formal),2021.2.3,Win32,59.52380952,,,,,,,,,,,,,,,,,,,,,,,,,,,,,,,,,,,,,,,,,,,,,,,,,,,,他的,e,,,e,1,0.7334,0,32,32,77,1,,
,,,,,,,,,,,,,,1,001,2024-08-24_13h51.38.038,IAT(Formal),2021.2.3,Win32,59.52380952,,,,,,,,,,,,,,,,,,,,,,,,,,,,,,,,,,,,,,,,,,,,,,,,,,,,他,e,,,e,1,0.6179,0,33,33,75,1,,
,,,,,,,,,,,,,,1,001,2024-08-24_13h51.38.038,IAT(Formal),2021.2.3,Win32,59.52380952,,,,,,,,,,,,,,,,,,,,,,,,,,,,,,,,,,,,,,,,,,,,,,,,,,,,公正,e,,,e,1,1.0359,0,34,34,23,1,,
,,,,,,,,,,,,,,1,001,2024-08-24_13h51.38.038,IAT(Formal),2021.2.3,Win32,59.52380952,,,,,,,,,,,,,,,,,,,,,,,,,,,,,,,,,,,,,,,,,,,,,,,,,,,,诚实,e,,,e,1,0.7029,0,35,35,15,1,,
,,,,,,,,,,,,,,1,001,2024-08-24_13h51.38.038,IAT(Formal),2021.2.3,Win32,59.52380952,,,,,,,,,,,,,,,,,,,,,,,,,,,,,,,,,,,,,,,,,,,,,,,,,,,,其他,e,,,e,1,0.6863,0,36,36,9,1,,
,,,,,,,,,,,,,,1,001,2024-08-24_13h51.38.038,IAT(Formal),2021.2.3,Win32,59.52380952,,,,,,,,,,,,,,,,,,,,,,,,,,,,,,,,,,,,,,,,,,,,,,,,,,,,杰出,e,,,e,1,0.8531,0,37,37,13,1,,
,,,,,,,,,,,,,,1,001,2024-08-24_13h51.38.038,IAT(Formal),2021.2.3,Win32,59.52380952,,,,,,,,,,,,,,,,,,,,,,,,,,,,,,,,,,,,,,,,,,,,,,,,,,,,认真,e,,,e,1,0.4509,0,38,38,20,1,,
,,,,,,,,,,,,,,1,001,2024-08-24_13h51.38.038,IAT(Formal),2021.2.3,Win32,59.52380952,,,,,,,,,,,,,,,,,,,,,,,,,,,,,,,,,,,,,,,,,,,,,,,,,,,,散漫,i,,,i,1,0.7173,0,39,39,41,1,,
,,,,,,,,,,,,,,1,001,2024-08-24_13h51.38.038,IAT(Formal),2021.2.3,Win32,59.52380952,,,,,,,,,,,,,,,,,,,,,,,,,,,,,,,,,,,,,,,,,,,,,,,,,,,,我,i,,,i,1,0.4877,0,40,40,50,1,,
,,,,,,,,,,,,,,1,001,2024-08-24_13h51.38.038,IAT(Formal),2021.2.3,Win32,59.52380952,,,,,,,,,,,,,,,,,,,,,,,,,,,,,,,,,,,,,,,,,,,,,,,,,,,,优秀,e,,,e,1,0.6139,0,41,41,10,1,,
,,,,,,,,,,,,,,1,001,2024-08-24_13h51.38.038,IAT(Formal),2021.2.3,Win32,59.52380952,,,,,,,,,,,,,,,,,,,,,,,,,,,,,,,,,,,,,,,,,,,,,,,,,,,,他的,e,,,e,1,0.6916,0,42,42,7,1,,
,,,,,,,,,,,,,,1,001,2024-08-24_13h51.38.038,IAT(Formal),2021.2.3,Win32,59.52380952,,,,,,,,,,,,,,,,,,,,,,,,,,,,,,,,,,,,,,,,,,,,,,,,,,,,俺,i,,,i,1,0.5419,0,43,43,54,1,,
,,,,,,,,,,,,,,1,001,2024-08-24_13h51.38.038,IAT(Formal),2021.2.3,Win32,59.52380952,,,,,,,,,,,,,,,,,,,,,,,,,,,,,,,,,,,,,,,,,,,,,,,,,,,,我的,i,,,i,1,0.4699,0,44,44,71,1,,
,,,,,,,,,,,,,,1,001,2024-08-24_13h51.38.038,IAT(Formal),2021.2.3,Win32,59.52380952,,,,,,,,,,,,,,,,,,,,,,,,,,,,,,,,,,,,,,,,,,,,,,,,,,,,下贱,i,,,i,1,0.6697,0,45,45,49,1,,
,,,,,,,,,,,,,,1,001,2024-08-24_13h51.38.038,IAT(Formal),2021.2.3,Win32,59.52380952,,,,,,,,,,,,,,,,,,,,,,,,,,,,,,,,,,,,,,,,,,,,,,,,,,,,他,e,,,e,1,0.5685,0,46,46,5,1,,
,,,,,,,,,,,,,,1,001,2024-08-24_13h51.38.038,IAT(Formal),2021.2.3,Win32,59.52380952,,,,,,,,,,,,,,,,,,,,,,,,,,,,,,,,,,,,,,,,,,,,,,,,,,,,他,e,,,e,1,0.4644,0,47,47,65,1,,
,,,,,,,,,,,,,,1,001,2024-08-24_13h51.38.038,IAT(Formal),2021.2.3,Win32,59.52380952,,,,,,,,,,,,,,,,,,,,,,,,,,,,,,,,,,,,,,,,,,,,,,,,,,,,俺,i,,,i,1,0.6365,0,48,48,64,1,,
,,,,,,,,,,,,,,1,001,2024-08-24_13h51.38.038,IAT(Formal),2021.2.3,Win32,59.52380952,,,,,,,,,,,,,,,,,,,,,,,,,,,,,,,,,,,,,,,,,,,,,,,,,,,,冒失,i,,,i,1,0.5685,0,49,49,39,1,,
,,,,,,,,,,,,,,1,001,2024-08-24_13h51.38.038,IAT(Formal),2021.2.3,Win32,59.52380952,,,,,,,,,,,,,,,,,,,,,,,,,,,,,,,,,,,,,,,,,,,,,,,,,,,,其他,e,,,e,1,0.7325,0,50,50,59,1,,
,,,,,,,,,,,,,,1,001,2024-08-24_13h51.38.038,IAT(Formal),2021.2.3,Win32,59.52380952,,,,,,,,,,,,,,,,,,,,,,,,,,,,,,,,,,,,,,,,,,,,,,,,,,,,他人,e,,,e,1,0.6272,0,51,51,8,1,,
,,,,,,,,,,,,,,1,001,2024-08-24_13h51.38.038,IAT(Formal),2021.2.3,Win32,59.52380952,,,,,,,,,,,,,,,,,,,,,,,,,,,,,,,,,,,,,,,,,,,,,,,,,,,,稳重,e,,,e,1,0.6806,0,52,52,21,1,,
,,,,,,,,,,,,,,1,001,2024-08-24_13h51.38.038,IAT(Formal),2021.2.3,Win32,59.52380952,,,,,,,,,,,,,,,,,,,,,,,,,,,,,,,,,,,,,,,,,,,,,,,,,,,,我们,i,,,i,1,0.5273,0,53,53,62,1,,
,,,,,,,,,,,,,,1,001,2024-08-24_13h51.38.038,IAT(Formal),2021.2.3,Win32,59.52380952,,,,,,,,,,,,,,,,,,,,,,,,,,,,,,,,,,,,,,,,,,,,,,,,,,,,轻率,i,,,e,0,0.6115,0,54,54,48,1,,
,,,,,,,,,,,,,,1,001,2024-08-24_13h51.38.038,IAT(Formal),2021.2.3,Win32,59.52380952,,,,,,,,,,,,,,,,,,,,,,,,,,,,,,,,,,,,,,,,,,,,,,,,,,,,细腻,e,,,e,1,0.6867,0,55,55,25,1,,
,,,,,,,,,,,,,,1,001,2024-08-24_13h51.38.038,IAT(Formal),2021.2.3,Win32,59.52380952,,,,,,,,,,,,,,,,,,,,,,,,,,,,,,,,,,,,,,,,,,,,,,,,,,,,我的,i,,,i,1,0.6525,0,56,56,51,1,,
,,,,,,,,,,,,,,1,001,2024-08-24_13h51.38.038,IAT(Formal),2021.2.3,Win32,59.52380952,,,,,,,,,,,,,,,,,,,,,,,,,,,,,,,,,,,,,,,,,,,,,,,,,,,,他们,e,,,e,1,0.4981,0,57,57,76,1,,
,,,,,,,,,,,,,,1,001,2024-08-24_13h51.38.038,IAT(Formal),2021.2.3,Win32,59.52380952,,,,,,,,,,,,,,,,,,,,,,,,,,,,,,,,,,,,,,,,,,,,,,,,,,,,朴实,e,,,e,1,0.7682,0,58,58,24,1,,
,,,,,,,,,,,,,,1,001,2024-08-24_13h51.38.038,IAT(Formal),2021.2.3,Win32,59.52380952,,,,,,,,,,,,,,,,,,,,,,,,,,,,,,,,,,,,,,,,,,,,,,,,,,,,我,i,,,i,1,1.0265,0,59,59,60,1,,
,,,,,,,,,,,,,,1,001,2024-08-24_13h51.38.038,IAT(Formal),2021.2.3,Win32,59.52380952,,,,,,,,,,,,,,,,,,,,,,,,,,,,,,,,,,,,,,,,,,,,,,,,,,,,活泼,e,,,e,1,0.7854,0,60,60,28,1,,
,,,,,,,,,,,,,,1,001,2024-08-24_13h51.38.038,IAT(Formal),2021.2.3,Win32,59.52380952,,,,,,,,,,,,,,,,,,,,,,,,,,,,,,,,,,,,,,,,,,,,,,,,,,,,自私,i,,,i,1,0.5489,0,61,61,43,1,,
,,,,,,,,,,,,,,1,001,2024-08-24_13h51.38.038,IAT(Formal),2021.2.3,Win32,59.52380952,,,,,,,,,,,,,,,,,,,,,,,,,,,,,,,,,,,,,,,,,,,,,,,,,,,,他人,e,,,e,1,0.6009,0,62,62,58,1,,
,,,,,,,,,,,,,,1,001,2024-08-24_13h51.38.038,IAT(Formal),2021.2.3,Win32,59.52380952,,,,,,,,,,,,,,,,,,,,,,,,,,,,,,,,,,,,,,,,,,,,,,,,,,,,凶狠,i,,,i,1,0.7658,0,63,63,42,1,,
,,,,,,,,,,,,,,1,001,2024-08-24_13h51.38.038,IAT(Formal),2021.2.3,Win32,59.52380952,,,,,,,,,,,,,,,,,,,,,,,,,,,,,,,,,,,,,,,,,,,,,,,,,,,,俺,i,,,i,1,1.2694,0,64,64,74,1,,
,,,,,,,,,,,,,,1,001,2024-08-24_13h51.38.038,IAT(Formal),2021.2.3,Win32,59.52380952,,,,,,,,,,,,,,,,,,,,,,,,,,,,,,,,,,,,,,,,,,,,,,,,,,,,我的,i,,,i,1,0.5503,0,65,65,61,1,,
,,,,,,,,,,,,,,1,001,2024-08-24_13h51.38.038,IAT(Formal),2021.2.3,Win32,59.52380952,,,,,,,,,,,,,,,,,,,,,,,,,,,,,,,,,,,,,,,,,,,,,,,,,,,,我,i,,,i,1,0.5685,0,66,66,70,1,,
,,,,,,,,,,,,,,1,001,2024-08-24_13h51.38.038,IAT(Formal),2021.2.3,Win32,59.52380952,,,,,,,,,,,,,,,,,,,,,,,,,,,,,,,,,,,,,,,,,,,,,,,,,,,,他的,e,,,e,1,0.6987,0,67,67,67,1,,
,,,,,,,,,,,,,,1,001,2024-08-24_13h51.38.038,IAT(Formal),2021.2.3,Win32,59.52380952,,,,,,,,,,,,,,,,,,,,,,,,,,,,,,,,,,,,,,,,,,,,,,,,,,,,热情,e,,,e,1,0.8327,0,68,68,27,1,,
,,,,,,,,,,,,,,1,001,2024-08-24_13h51.38.038,IAT(Formal),2021.2.3,Win32,59.52380952,,,,,,,,,,,,,,,,,,,,,,,,,,,,,,,,,,,,,,,,,,,,,,,,,,,,他们,e,,,e,1,0.9862,0,69,69,6,1,,
,,,,,,,,,,,,,,1,001,2024-08-24_13h51.38.038,IAT(Formal),2021.2.3,Win32,59.52380952,,,,,,,,,,,,,,,,,,,,,,,,,,,,,,,,,,,,,,,,,,,,,,,,,,,,自己,i,,,i,1,0.6313,0,70,70,53,1,,
,,,,,,,,,,,,,,1,001,2024-08-24_13h51.38.038,IAT(Formal),2021.2.3,Win32,59.52380952,,,,,,,,,,,,,,,,,,,,,,,,,,,,,,,,,,,,,,,,,,,,,,,,,,,,我们,i,,,i,1,0.567,0,71,71,52,1,,
,,,,,,,,,,,,,,1,001,2024-08-24_13h51.38.038,IAT(Formal),2021.2.3,Win32,59.52380952,,,,,,,,,,,,,,,,,,,,,,,,,,,,,,,,,,,,,,,,,,,,,,,,,,,,他们,e,,,e,1,0.9113,0,72,72,56,1,,
,,,,,,,,,,,,,,1,001,2024-08-24_13h51.38.038,IAT(Formal),2021.2.3,Win32,59.52380952,,,,,,,,,,,,,,,,,,,,,,,,,,,,,,,,,,,,,,,,,,,,,,,,,,,,其他,e,,,e,1,0.5452,0,73,73,79,1,,
,,,,,,,,,,,,,,1,001,2024-08-24_13h51.38.038,IAT(Formal),2021.2.3,Win32,59.52380952,,,,,,,,,,,,,,,,,,,,,,,,,,,,,,,,,,,,,,,,,,,,,,,,,,,,傲慢,i,,,e,0,0.9908,0,74,74,37,1,,
,,,,,,,,,,,,,,1,001,2024-08-24_13h51.38.038,IAT(Formal),2021.2.3,Win32,59.52380952,,,,,,,,,,,,,,,,,,,,,,,,,,,,,,,,,,,,,,,,,,,,,,,,,,,,悲观,i,,,e,0,0.6969,0,75,75,34,1,,
,,,,,,,,,,,,,,1,001,2024-08-24_13h51.38.038,IAT(Formal),2021.2.3,Win32,59.52380952,,,,,,,,,,,,,,,,,,,,,,,,,,,,,,,,,,,,,,,,,,,,,,,,,,,,勇敢,e,,,e,1,0.8193,0,76,76,17,1,,
,,,,,,,,,,,,,,1,001,2024-08-24_13h51.38.038,IAT(Formal),2021.2.3,Win32,59.52380952,,,,,,,,,,,,,,,,,,,,,,,,,,,,,,,,,,,,,,,,,,,,,,,,,,,,他人,e,,,e,1,0.8488,0,77,77,78,1,,
,,,,,,,,,,,,,,1,001,2024-08-24_13h51.38.038,IAT(Formal),2021.2.3,Win32,59.52380952,,,,,,,,,,,,,,,,,,,,,,,,,,,,,,,,,,,,,,,,,,,,,,,,,,,,他人,e,,,e,1,0.6059,0,78,78,68,1,,
,,,,,,,,,,,,,,1,001,2024-08-24_13h51.38.038,IAT(Formal),2021.2.3,Win32,59.52380952,,,,,,,,,,,,,,,,,,,,,,,,,,,,,,,,,,,,,,,,,,,,,,,,,,,,我,i,,,i,1,0.6126,0,79,79,0,1,,
,,,,,,,,,,,,,,1,001,2024-08-24_13h51.38.038,IAT(Formal),2021.2.3,Win32,59.52380952,,,,,,,,,,,,,,,,,,,,,,,,,,,,,,,,,,,,,,,,,,,,,,,,,,,,俺,i,,,i,1,0.5224,1,0,80,74,1,,
,,,,,,,,,,,,,,1,001,2024-08-24_13h51.38.038,IAT(Formal),2021.2.3,Win32,59.52380952,,,,,,,,,,,,,,,,,,,,,,,,,,,,,,,,,,,,,,,,,,,,,,,,,,,,他的,e,,,e,1,0.5546,1,1,81,57,1,,
,,,,,,,,,,,,,,1,001,2024-08-24_13h51.38.038,IAT(Formal),2021.2.3,Win32,59.52380952,,,,,,,,,,,,,,,,,,,,,,,,,,,,,,,,,,,,,,,,,,,,,,,,,,,,我们,i,,,i,1,0.8487,1,2,82,52,1,,
,,,,,,,,,,,,,,1,001,2024-08-24_13h51.38.038,IAT(Formal),2021.2.3,Win32,59.52380952,,,,,,,,,,,,,,,,,,,,,,,,,,,,,,,,,,,,,,,,,,,,,,,,,,,,细腻,e,,,e,1,0.9123,1,3,83,25,1,,
,,,,,,,,,,,,,,1,001,2024-08-24_13h51.38.038,IAT(Formal),2021.2.3,Win32,59.52380952,,,,,,,,,,,,,,,,,,,,,,,,,,,,,,,,,,,,,,,,,,,,,,,,,,,,诚恳,e,,,e,1,0.7005,1,4,84,29,1,,
,,,,,,,,,,,,,,1,001,2024-08-24_13h51.38.038,IAT(Formal),2021.2.3,Win32,59.52380952,,,,,,,,,,,,,,,,,,,,,,,,,,,,,,,,,,,,,,,,,,,,,,,,,,,,轻率,i,,,i,1,0.6417,1,5,85,48,1,,
,,,,,,,,,,,,,,1,001,2024-08-24_13h51.38.038,IAT(Formal),2021.2.3,Win32,59.52380952,,,,,,,,,,,,,,,,,,,,,,,,,,,,,,,,,,,,,,,,,,,,,,,,,,,,冒失,i,,,i,1,0.5046,1,6,86,39,1,,
,,,,,,,,,,,,,,1,001,2024-08-24_13h51.38.038,IAT(Formal),2021.2.3,Win32,59.52380952,,,,,,,,,,,,,,,,,,,,,,,,,,,,,,,,,,,,,,,,,,,,,,,,,,,,散漫,i,,,i,1,0.6104,1,7,87,41,1,,
,,,,,,,,,,,,,,1,001,2024-08-24_13h51.38.038,IAT(Formal),2021.2.3,Win32,59.52380952,,,,,,,,,,,,,,,,,,,,,,,,,,,,,,,,,,,,,,,,,,,,,,,,,,,,其他,e,,,e,1,0.9691,1,8,88,59,1,,
,,,,,,,,,,,,,,1,001,2024-08-24_13h51.38.038,IAT(Formal),2021.2.3,Win32,59.52380952,,,,,,,,,,,,,,,,,,,,,,,,,,,,,,,,,,,,,,,,,,,,,,,,,,,,自己,i,,,i,1,0.619,1,9,89,3,1,,
,,,,,,,,,,,,,,1,001,2024-08-24_13h51.38.038,IAT(Formal),2021.2.3,Win32,59.52380952,,,,,,,,,,,,,,,,,,,,,,,,,,,,,,,,,,,,,,,,,,,,,,,,,,,,自己,i,,,i,1,0.6174,1,10,90,63,1,,
,,,,,,,,,,,,,,1,001,2024-08-24_13h51.38.038,IAT(Formal),2021.2.3,Win32,59.52380952,,,,,,,,,,,,,,,,,,,,,,,,,,,,,,,,,,,,,,,,,,,,,,,,,,,,他人,e,,,e,1,0.5437,1,11,91,68,1,,
,,,,,,,,,,,,,,1,001,2024-08-24_13h51.38.038,IAT(Formal),2021.2.3,Win32,59.52380952,,,,,,,,,,,,,,,,,,,,,,,,,,,,,,,,,,,,,,,,,,,,,,,,,,,,卑鄙,i,,,i,1,0.8989,1,12,92,30,1,,
,,,,,,,,,,,,,,1,001,2024-08-24_13h51.38.038,IAT(Formal),2021.2.3,Win32,59.52380952,,,,,,,,,,,,,,,,,,,,,,,,,,,,,,,,,,,,,,,,,,,,,,,,,,,,公正,e,,,e,1,0.6305,1,13,93,23,1,,
,,,,,,,,,,,,,,1,001,2024-08-24_13h51.38.038,IAT(Formal),2021.2.3,Win32,59.52380952,,,,,,,,,,,,,,,,,,,,,,,,,,,,,,,,,,,,,,,,,,,,,,,,,,,,朴实,e,,,e,1,0.6795,1,14,94,24,1,,
,,,,,,,,,,,,,,1,001,2024-08-24_13h51.38.038,IAT(Formal),2021.2.3,Win32,59.52380952,,,,,,,,,,,,,,,,,,,,,,,,,,,,,,,,,,,,,,,,,,,,,,,,,,,,优秀,e,,,e,1,0.615,1,15,95,10,1,,
,,,,,,,,,,,,,,1,001,2024-08-24_13h51.38.038,IAT(Formal),2021.2.3,Win32,59.52380952,,,,,,,,,,,,,,,,,,,,,,,,,,,,,,,,,,,,,,,,,,,,,,,,,,,,下贱,i,,,i,1,0.6623,1,16,96,49,1,,
,,,,,,,,,,,,,,1,001,2024-08-24_13h51.38.038,IAT(Formal),2021.2.3,Win32,59.52380952,,,,,,,,,,,,,,,,,,,,,,,,,,,,,,,,,,,,,,,,,,,,,,,,,,,,他人,e,,,e,1,0.9319,1,17,97,78,1,,
,,,,,,,,,,,,,,1,001,2024-08-24_13h51.38.038,IAT(Formal),2021.2.3,Win32,59.52380952,,,,,,,,,,,,,,,,,,,,,,,,,,,,,,,,,,,,,,,,,,,,,,,,,,,,俺,i,,,,0,,1,18,98,4,1,,
,,,,,,,,,,,,,,1,001,2024-08-24_13h51.38.038,IAT(Formal),2021.2.3,Win32,59.52380952,,,,,,,,,,,,,,,,,,,,,,,,,,,,,,,,,,,,,,,,,,,,,,,,,,,,活泼,e,,,e,1,0.5387,1,19,99,28,1,,
,,,,,,,,,,,,,,1,001,2024-08-24_13h51.38.038,IAT(Formal),2021.2.3,Win32,59.52380952,,,,,,,,,,,,,,,,,,,,,,,,,,,,,,,,,,,,,,,,,,,,,,,,,,,,愚蠢,i,,,i,1,0.5068,1,20,100,32,1,,
,,,,,,,,,,,,,,1,001,2024-08-24_13h51.38.038,IAT(Formal),2021.2.3,Win32,59.52380952,,,,,,,,,,,,,,,,,,,,,,,,,,,,,,,,,,,,,,,,,,,,,,,,,,,,他的,e,,,e,1,0.6166,1,21,101,7,1,,
,,,,,,,,,,,,,,1,001,2024-08-24_13h51.38.038,IAT(Formal),2021.2.3,Win32,59.52380952,,,,,,,,,,,,,,,,,,,,,,,,,,,,,,,,,,,,,,,,,,,,,,,,,,,,无私,e,,,e,1,1.0346,1,22,102,22,1,,
,,,,,,,,,,,,,,1,001,2024-08-24_13h51.38.038,IAT(Formal),2021.2.3,Win32,59.52380952,,,,,,,,,,,,,,,,,,,,,,,,,,,,,,,,,,,,,,,,,,,,,,,,,,,,他的,e,,,e,1,0.6173,1,23,103,67,1,,
,,,,,,,,,,,,,,1,001,2024-08-24_13h51.38.038,IAT(Formal),2021.2.3,Win32,59.52380952,,,,,,,,,,,,,,,,,,,,,,,,,,,,,,,,,,,,,,,,,,,,,,,,,,,,我的,i,,,e,0,0.6047,1,24,104,71,1,,
,,,,,,,,,,,,,,1,001,2024-08-24_13h51.38.038,IAT(Formal),2021.2.3,Win32,59.52380952,,,,,,,,,,,,,,,,,,,,,,,,,,,,,,,,,,,,,,,,,,,,,,,,,,,,其他,e,,,e,1,0.833,1,25,105,69,1,,
,,,,,,,,,,,,,,1,001,2024-08-24_13h51.38.038,IAT(Formal),2021.2.3,Win32,59.52380952,,,,,,,,,,,,,,,,,,,,,,,,,,,,,,,,,,,,,,,,,,,,,,,,,,,,虚伪,i,,,i,1,0.6274,1,26,106,31,1,,
,,,,,,,,,,,,,,1,001,2024-08-24_13h51.38.038,IAT(Formal),2021.2.3,Win32,59.52380952,,,,,,,,,,,,,,,,,,,,,,,,,,,,,,,,,,,,,,,,,,,,,,,,,,,,我们,i,,,i,1,0.5173,1,27,107,2,1,,
,,,,,,,,,,,,,,1,001,2024-08-24_13h51.38.038,IAT(Formal),2021.2.3,Win32,59.52380952,,,,,,,,,,,,,,,,,,,,,,,,,,,,,,,,,,,,,,,,,,,,,,,,,,,,俺,i,,,i,1,0.5962,1,28,108,64,1,,
,,,,,,,,,,,,,,1,001,2024-08-24_13h51.38.038,IAT(Formal),2021.2.3,Win32,59.52380952,,,,,,,,,,,,,,,,,,,,,,,,,,,,,,,,,,,,,,,,,,,,,,,,,,,,他,e,,,e,1,0.6013,1,29,109,55,1,,
,,,,,,,,,,,,,,1,001,2024-08-24_13h51.38.038,IAT(Formal),2021.2.3,Win32,59.52380952,,,,,,,,,,,,,,,,,,,,,,,,,,,,,,,,,,,,,,,,,,,,,,,,,,,,他人,e,,,e,1,0.5319,1,30,110,58,1,,
,,,,,,,,,,,,,,1,001,2024-08-24_13h51.38.038,IAT(Formal),2021.2.3,Win32,59.52380952,,,,,,,,,,,,,,,,,,,,,,,,,,,,,,,,,,,,,,,,,,,,,,,,,,,,聪明,e,,,e,1,0.7483,1,31,111,12,1,,
,,,,,,,,,,,,,,1,001,2024-08-24_13h51.38.038,IAT(Formal),2021.2.3,Win32,59.52380952,,,,,,,,,,,,,,,,,,,,,,,,,,,,,,,,,,,,,,,,,,,,,,,,,,,,热情,e,,,e,1,0.6818,1,32,112,27,1,,
,,,,,,,,,,,,,,1,001,2024-08-24_13h51.38.038,IAT(Formal),2021.2.3,Win32,59.52380952,,,,,,,,,,,,,,,,,,,,,,,,,,,,,,,,,,,,,,,,,,,,,,,,,,,,他,e,,,e,1,0.6684,1,33,113,5,1,,
,,,,,,,,,,,,,,1,001,2024-08-24_13h51.38.038,IAT(Formal),2021.2.3,Win32,59.52380952,,,,,,,,,,,,,,,,,,,,,,,,,,,,,,,,,,,,,,,,,,,,,,,,,,,,我,i,,,i,1,0.7867,1,34,114,0,1,,
,,,,,,,,,,,,,,1,001,2024-08-24_13h51.38.038,IAT(Formal),2021.2.3,Win32,59.52380952,,,,,,,,,,,,,,,,,,,,,,,,,,,,,,,,,,,,,,,,,,,,,,,,,,,,其他,e,,,e,1,0.7303,1,35,115,79,1,,
,,,,,,,,,,,,,,1,001,2024-08-24_13h51.38.038,IAT(Formal),2021.2.3,Win32,59.52380952,,,,,,,,,,,,,,,,,,,,,,,,,,,,,,,,,,,,,,,,,,,,,,,,,,,,自己,i,,,i,1,0.7361,1,36,116,53,1,,
,,,,,,,,,,,,,,1,001,2024-08-24_13h51.38.038,IAT(Formal),2021.2.3,Win32,59.52380952,,,,,,,,,,,,,,,,,,,,,,,,,,,,,,,,,,,,,,,,,,,,,,,,,,,,凶狠,i,,,i,1,0.9468,1,37,117,42,1,,
,,,,,,,,,,,,,,1,001,2024-08-24_13h51.38.038,IAT(Formal),2021.2.3,Win32,59.52380952,,,,,,,,,,,,,,,,,,,,,,,,,,,,,,,,,,,,,,,,,,,,,,,,,,,,勤奋,e,,,e,1,1.0277,1,38,118,18,1,,
,,,,,,,,,,,,,,1,001,2024-08-24_13h51.38.038,IAT(Formal),2021.2.3,Win32,59.52380952,,,,,,,,,,,,,,,,,,,,,,,,,,,,,,,,,,,,,,,,,,,,,,,,,,,,俺,i,,,i,1,0.5964,1,39,119,54,1,,
,,,,,,,,,,,,,,1,001,2024-08-24_13h51.38.038,IAT(Formal),2021.2.3,Win32,59.52380952,,,,,,,,,,,,,,,,,,,,,,,,,,,,,,,,,,,,,,,,,,,,,,,,,,,,杰出,e,,,e,1,0.6529,1,40,120,13,1,,
,,,,,,,,,,,,,,1,001,2024-08-24_13h51.38.038,IAT(Formal),2021.2.3,Win32,59.52380952,,,,,,,,,,,,,,,,,,,,,,,,,,,,,,,,,,,,,,,,,,,,,,,,,,,,乐观,e,,,e,1,0.6491,1,41,121,14,1,,
,,,,,,,,,,,,,,1,001,2024-08-24_13h51.38.038,IAT(Formal),2021.2.3,Win32,59.52380952,,,,,,,,,,,,,,,,,,,,,,,,,,,,,,,,,,,,,,,,,,,,,,,,,,,,其他,e,,,e,1,0.4054,1,42,122,9,1,,
,,,,,,,,,,,,,,1,001,2024-08-24_13h51.38.038,IAT(Formal),2021.2.3,Win32,59.52380952,,,,,,,,,,,,,,,,,,,,,,,,,,,,,,,,,,,,,,,,,,,,,,,,,,,,自卑,i,,,i,1,1.1048,1,43,123,36,1,,
,,,,,,,,,,,,,,1,001,2024-08-24_13h51.38.038,IAT(Formal),2021.2.3,Win32,59.52380952,,,,,,,,,,,,,,,,,,,,,,,,,,,,,,,,,,,,,,,,,,,,,,,,,,,,他人,e,,,e,1,0.7516,1,44,124,8,1,,
,,,,,,,,,,,,,,1,001,2024-08-24_13h51.38.038,IAT(Formal),2021.2.3,Win32,59.52380952,,,,,,,,,,,,,,,,,,,,,,,,,,,,,,,,,,,,,,,,,,,,,,,,,,,,悲观,i,,,i,1,0.7788,1,45,125,34,1,,
,,,,,,,,,,,,,,1,001,2024-08-24_13h51.38.038,IAT(Formal),2021.2.3,Win32,59.52380952,,,,,,,,,,,,,,,,,,,,,,,,,,,,,,,,,,,,,,,,,,,,,,,,,,,,机智,e,,,e,1,0.7656,1,46,126,19,1,,
,,,,,,,,,,,,,,1,001,2024-08-24_13h51.38.038,IAT(Formal),2021.2.3,Win32,59.52380952,,,,,,,,,,,,,,,,,,,,,,,,,,,,,,,,,,,,,,,,,,,,,,,,,,,,我,i,,,i,1,1.4235,1,47,127,60,1,,
,,,,,,,,,,,,,,1,001,2024-08-24_13h51.38.038,IAT(Formal),2021.2.3,Win32,59.52380952,,,,,,,,,,,,,,,,,,,,,,,,,,,,,,,,,,,,,,,,,,,,,,,,,,,,正直,e,,,e,1,1.1271,1,48,128,16,1,,
,,,,,,,,,,,,,,1,001,2024-08-24_13h51.38.038,IAT(Formal),2021.2.3,Win32,59.52380952,,,,,,,,,,,,,,,,,,,,,,,,,,,,,,,,,,,,,,,,,,,,,,,,,,,,他们,e,,,,0,,1,49,129,76,1,,
,,,,,,,,,,,,,,1,001,2024-08-24_13h51.38.038,IAT(Formal),2021.2.3,Win32,59.52380952,,,,,,,,,,,,,,,,,,,,,,,,,,,,,,,,,,,,,,,,,,,,,,,,,,,,傲慢,i,,,e,0,1.1898,1,50,130,37,1,,
,,,,,,,,,,,,,,1,001,2024-08-24_13h51.38.038,IAT(Formal),2021.2.3,Win32,59.52380952,,,,,,,,,,,,,,,,,,,,,,,,,,,,,,,,,,,,,,,,,,,,,,,,,,,,诚实,e,,,e,1,0.5774,1,51,131,15,1,,
,,,,,,,,,,,,,,1,001,2024-08-24_13h51.38.038,IAT(Formal),2021.2.3,Win32,59.52380952,,,,,,,,,,,,,,,,,,,,,,,,,,,,,,,,,,,,,,,,,,,,,,,,,,,,我们,i,,,i,1,0.4652,1,52,132,72,1,,
,,,,,,,,,,,,,,1,001,2024-08-24_13h51.38.038,IAT(Formal),2021.2.3,Win32,59.52380952,,,,,,,,,,,,,,,,,,,,,,,,,,,,,,,,,,,,,,,,,,,,,,,,,,,,稳重,e,,,i,0,0.4735,1,53,133,21,1,,
,,,,,,,,,,,,,,1,001,2024-08-24_13h51.38.038,IAT(Formal),2021.2.3,Win32,59.52380952,,,,,,,,,,,,,,,,,,,,,,,,,,,,,,,,,,,,,,,,,,,,,,,,,,,,他的,e,,,e,1,0.7047,1,54,134,77,1,,
,,,,,,,,,,,,,,1,001,2024-08-24_13h51.38.038,IAT(Formal),2021.2.3,Win32,59.52380952,,,,,,,,,,,,,,,,,,,,,,,,,,,,,,,,,,,,,,,,,,,,,,,,,,,,我们,i,,,i,1,0.6283,1,55,135,62,1,,
,,,,,,,,,,,,,,1,001,2024-08-24_13h51.38.038,IAT(Formal),2021.2.3,Win32,59.52380952,,,,,,,,,,,,,,,,,,,,,,,,,,,,,,,,,,,,,,,,,,,,,,,,,,,,猖狂,i,,,i,1,0.95,1,56,136,45,1,,
,,,,,,,,,,,,,,1,001,2024-08-24_13h51.38.038,IAT(Formal),2021.2.3,Win32,59.52380952,,,,,,,,,,,,,,,,,,,,,,,,,,,,,,,,,,,,,,,,,,,,,,,,,,,,他们,e,,,e,1,1.0321,1,57,137,56,1,,
,,,,,,,,,,,,,,1,001,2024-08-24_13h51.38.038,IAT(Formal),2021.2.3,Win32,59.52380952,,,,,,,,,,,,,,,,,,,,,,,,,,,,,,,,,,,,,,,,,,,,,,,,,,,,他,e,,,,0,,1,58,138,75,1,,
,,,,,,,,,,,,,,1,001,2024-08-24_13h51.38.038,IAT(Formal),2021.2.3,Win32,59.52380952,,,,,,,,,,,,,,,,,,,,,,,,,,,,,,,,,,,,,,,,,,,,,,,,,,,,执拗,i,,,i,1,0.5947,1,59,139,40,1,,
,,,,,,,,,,,,,,1,001,2024-08-24_13h51.38.038,IAT(Formal),2021.2.3,Win32,59.52380952,,,,,,,,,,,,,,,,,,,,,,,,,,,,,,,,,,,,,,,,,,,,,,,,,,,,消极,i,,,i,1,0.4712,1,60,140,35,1,,
,,,,,,,,,,,,,,1,001,2024-08-24_13h51.38.038,IAT(Formal),2021.2.3,Win32,59.52380952,,,,,,,,,,,,,,,,,,,,,,,,,,,,,,,,,,,,,,,,,,,,,,,,,,,,我的,i,,,i,1,0.9467,1,61,141,61,1,,
,,,,,,,,,,,,,,1,001,2024-08-24_13h51.38.038,IAT(Formal),2021.2.3,Win32,59.52380952,,,,,,,,,,,,,,,,,,,,,,,,,,,,,,,,,,,,,,,,,,,,,,,,,,,,我,i,,,i,1,0.8633,1,62,142,50,1,,
,,,,,,,,,,,,,,1,001,2024-08-24_13h51.38.038,IAT(Formal),2021.2.3,Win32,59.52380952,,,,,,,,,,,,,,,,,,,,,,,,,,,,,,,,,,,,,,,,,,,,,,,,,,,,认真,e,,,,0,,1,63,143,20,1,,
,,,,,,,,,,,,,,1,001,2024-08-24_13h51.38.038,IAT(Formal),2021.2.3,Win32,59.52380952,,,,,,,,,,,,,,,,,,,,,,,,,,,,,,,,,,,,,,,,,,,,,,,,,,,,他,e,,,e,1,1.2295,1,64,144,65,1,,
,,,,,,,,,,,,,,1,001,2024-08-24_13h51.38.038,IAT(Formal),2021.2.3,Win32,59.52380952,,,,,,,,,,,,,,,,,,,,,,,,,,,,,,,,,,,,,,,,,,,,,,,,,,,,暴躁,i,,,i,1,0.565,1,65,145,44,1,,
,,,,,,,,,,,,,,1,001,2024-08-24_13h51.38.038,IAT(Formal),2021.2.3,Win32,59.52380952,,,,,,,,,,,,,,,,,,,,,,,,,,,,,,,,,,,,,,,,,,,,,,,,,,,,他们,e,,,e,1,0.6633,1,66,146,6,1,,
,,,,,,,,,,,,,,1,001,2024-08-24_13h51.38.038,IAT(Formal),2021.2.3,Win32,59.52380952,,,,,,,,,,,,,,,,,,,,,,,,,,,,,,,,,,,,,,,,,,,,,,,,,,,,野蛮,i,,,i,1,0.7207,1,67,147,46,1,,
,,,,,,,,,,,,,,1,001,2024-08-24_13h51.38.038,IAT(Formal),2021.2.3,Win32,59.52380952,,,,,,,,,,,,,,,,,,,,,,,,,,,,,,,,,,,,,,,,,,,,,,,,,,,,我,i,,,i,1,0.5848,1,68,148,70,1,,
,,,,,,,,,,,,,,1,001,2024-08-24_13h51.38.038,IAT(Formal),2021.2.3,Win32,59.52380952,,,,,,,,,,,,,,,,,,,,,,,,,,,,,,,,,,,,,,,,,,,,,,,,,,,,我的,i,,,i,1,0.7498,1,69,149,1,1,,
,,,,,,,,,,,,,,1,001,2024-08-24_13h51.38.038,IAT(Formal),2021.2.3,Win32,59.52380952,,,,,,,,,,,,,,,,,,,,,,,,,,,,,,,,,,,,,,,,,,,,,,,,,,,,他们,e,,,e,1,0.719,1,70,150,66,1,,
,,,,,,,,,,,,,,1,001,2024-08-24_13h51.38.038,IAT(Formal),2021.2.3,Win32,59.52380952,,,,,,,,,,,,,,,,,,,,,,,,,,,,,,,,,,,,,,,,,,,,,,,,,,,,自己,i,,,i,1,0.6947,1,71,151,73,1,,
,,,,,,,,,,,,,,1,001,2024-08-24_13h51.38.038,IAT(Formal),2021.2.3,Win32,59.52380952,,,,,,,,,,,,,,,,,,,,,,,,,,,,,,,,,,,,,,,,,,,,,,,,,,,,自私,i,,,,0,,1,72,152,43,1,,
,,,,,,,,,,,,,,1,001,2024-08-24_13h51.38.038,IAT(Formal),2021.2.3,Win32,59.52380952,,,,,,,,,,,,,,,,,,,,,,,,,,,,,,,,,,,,,,,,,,,,,,,,,,,,鲁莽,i,,,i,1,0.7543,1,73,153,38,1,,
,,,,,,,,,,,,,,1,001,2024-08-24_13h51.38.038,IAT(Formal),2021.2.3,Win32,59.52380952,,,,,,,,,,,,,,,,,,,,,,,,,,,,,,,,,,,,,,,,,,,,,,,,,,,,崇高,e,,,e,1,0.6432,1,74,154,11,1,,
,,,,,,,,,,,,,,1,001,2024-08-24_13h51.38.038,IAT(Formal),2021.2.3,Win32,59.52380952,,,,,,,,,,,,,,,,,,,,,,,,,,,,,,,,,,,,,,,,,,,,,,,,,,,,固执,i,,,i,1,0.554,1,75,155,47,1,,
,,,,,,,,,,,,,,1,001,2024-08-24_13h51.38.038,IAT(Formal),2021.2.3,Win32,59.52380952,,,,,,,,,,,,,,,,,,,,,,,,,,,,,,,,,,,,,,,,,,,,,,,,,,,,冷静,e,,,i,0,1.3643,1,76,156,26,1,,
,,,,,,,,,,,,,,1,001,2024-08-24_13h51.38.038,IAT(Formal),2021.2.3,Win32,59.52380952,,,,,,,,,,,,,,,,,,,,,,,,,,,,,,,,,,,,,,,,,,,,,,,,,,,,我的,i,,,e,0,0.6392,1,77,157,51,1,,
,,,,,,,,,,,,,,1,001,2024-08-24_13h51.38.038,IAT(Formal),2021.2.3,Win32,59.52380952,,,,,,,,,,,,,,,,,,,,,,,,,,,,,,,,,,,,,,,,,,,,,,,,,,,,刻薄,i,,,i,1,0.8485,1,78,158,33,1,,
,,,,,,,,,,,,,,1,001,2024-08-24_13h51.38.038,IAT(Formal),2021.2.3,Win32,59.52380952,,,,,,,,,,,,,,,,,,,,,,,,,,,,,,,,,,,,,,,,,,,,,,,,,,,,勇敢,e,,,e,1,0.5785,1,79,159,17,1,,
,,,,,,,,,,,,,,1,001,2024-08-24_13h51.38.038,IAT(Formal),2021.2.3,Win32,59.52380952,,,,,,,,,,,,,,,,,,,,,,,,,,,,,,,,,,,,,,,,,,,,,,,,,,,,,,,,,,,,,,,,space,1.2521