"X.Instruction1.keys","Instruction1.rt","Instruction2.keys","Instruction2.rt","key_resp_iso.keys","key_resp_iso.corr","key_resp_iso.rt","Practice_01.thisRepN","Practice_01.thisTrialN","Practice_01.thisN","Practice_01.thisIndex","Practice_01.ran","Words","ans","participant","session","date","expName","psychopyVersion","OS","frameRate","key_resp_3.keys","key_resp_3.rt","key_resp_ipn.keys","key_resp_ipn.corr","key_resp_ipn.rt","Practice_02.thisRepN","Practice_02.thisTrialN","Practice_02.thisN","Practice_02.thisIndex","Practice_02.ran","Words_ipn","ans_ipn","key_resp_4.keys","key_resp_4.rt","key_resp_t1.keys","key_resp_t1.corr","key_resp_t1.rt","Practice_T1.thisRepN","Practice_T1.thisTrialN","Practice_T1.thisN","Practice_T1.thisIndex","Practice_T1.ran","Words_t1","ans_t1","key_resp_5.keys","key_resp_5.rt","Formal_T1.thisRepN","Formal_T1.thisTrialN","Formal_T1.thisN","Formal_T1.thisIndex","Formal_T1.ran","key_resp_6.keys","key_resp_6.rt","key_resp_iso_reverse.keys","key_resp_iso_reverse.corr","key_resp_iso_reverse.rt","Practice_iso_Reverse.thisRepN","Practice_iso_Reverse.thisTrialN","Practice_iso_Reverse.thisN","Practice_iso_Reverse.thisIndex","Practice_iso_Reverse.ran","key_resp_7.keys","key_resp_7.rt","key_resp_t2_Practice.keys","key_resp_t2_Practice.corr","key_resp_t2_Practice.rt","Practice_t2_Reverse.thisRepN","Practice_t2_Reverse.thisTrialN","Practice_t2_Reverse.thisN","Practice_t2_Reverse.thisIndex","Practice_t2_Reverse.ran","Words_t2","ans_t2","key_resp_8.keys","key_resp_8.rt","key_resp_t2.keys","key_resp_t2.corr","key_resp_t2.rt","Formal_t2_reverse.thisRepN","Formal_t2_reverse.thisTrialN","Formal_t2_reverse.thisN","Formal_t2_reverse.thisIndex","Formal_t2_reverse.ran","key_instruct.keys","key_instruct.rt","Subject"
"space",6.7464,"space",15.7905,"e",1,0.5046,0,0,0,0,1,"我","e",1,1,"2024-08-24_13h51.38.038","IAT(Formal)","2021.2.3","Win32",59.52380952,"",NA,"",NA,NA,NA,NA,NA,NA,NA,"","","",NA,"",NA,NA,NA,NA,NA,NA,NA,"","","",NA,NA,NA,NA,NA,NA,"",NA,"",NA,NA,NA,NA,NA,NA,NA,"",NA,"",NA,NA,NA,NA,NA,NA,NA,"","","",NA,"",NA,NA,NA,NA,NA,NA,NA,"",NA,"23"
"",NA,"",NA,"e",1,0.4207,0,1,1,3,1,"自己","e",1,1,"2024-08-24_13h51.38.038","IAT(Formal)","2021.2.3","Win32",59.52380952,"",NA,"",NA,NA,NA,NA,NA,NA,NA,"","","",NA,"",NA,NA,NA,NA,NA,NA,NA,"","","",NA,NA,NA,NA,NA,NA,"",NA,"",NA,NA,NA,NA,NA,NA,NA,"",NA,"",NA,NA,NA,NA,NA,NA,NA,"","","",NA,"",NA,NA,NA,NA,NA,NA,NA,"",NA,"23"
"",NA,"",NA,"i",1,0.5096,0,2,2,5,1,"他","i",1,1,"2024-08-24_13h51.38.038","IAT(Formal)","2021.2.3","Win32",59.52380952,"",NA,"",NA,NA,NA,NA,NA,NA,NA,"","","",NA,"",NA,NA,NA,NA,NA,NA,NA,"","","",NA,NA,NA,NA,NA,NA,"",NA,"",NA,NA,NA,NA,NA,NA,NA,"",NA,"",NA,NA,NA,NA,NA,NA,NA,"","","",NA,"",NA,NA,NA,NA,NA,NA,NA,"",NA,"23"
"",NA,"",NA,"e",1,0.4878,0,3,3,1,1,"我的","e",1,1,"2024-08-24_13h51.38.038","IAT(Formal)","2021.2.3","Win32",59.52380952,"",NA,"",NA,NA,NA,NA,NA,NA,NA,"","","",NA,"",NA,NA,NA,NA,NA,NA,NA,"","","",NA,NA,NA,NA,NA,NA,"",NA,"",NA,NA,NA,NA,NA,NA,NA,"",NA,"",NA,NA,NA,NA,NA,NA,NA,"","","",NA,"",NA,NA,NA,NA,NA,NA,NA,"",NA,"23"
"",NA,"",NA,"i",1,0.6032,0,4,4,7,1,"他的","i",1,1,"2024-08-24_13h51.38.038","IAT(Formal)","2021.2.3","Win32",59.52380952,"",NA,"",NA,NA,NA,NA,NA,NA,NA,"","","",NA,"",NA,NA,NA,NA,NA,NA,NA,"","","",NA,NA,NA,NA,NA,NA,"",NA,"",NA,NA,NA,NA,NA,NA,NA,"",NA,"",NA,NA,NA,NA,NA,NA,NA,"","","",NA,"",NA,NA,NA,NA,NA,NA,NA,"",NA,"23"
"",NA,"",NA,"i",1,0.5236,0,5,5,6,1,"他们","i",1,1,"2024-08-24_13h51.38.038","IAT(Formal)","2021.2.3","Win32",59.52380952,"",NA,"",NA,NA,NA,NA,NA,NA,NA,"","","",NA,"",NA,NA,NA,NA,NA,NA,NA,"","","",NA,NA,NA,NA,NA,NA,"",NA,"",NA,NA,NA,NA,NA,NA,NA,"",NA,"",NA,NA,NA,NA,NA,NA,NA,"","","",NA,"",NA,NA,NA,NA,NA,NA,NA,"",NA,"23"
"",NA,"",NA,"e",1,0.4812,0,6,6,2,1,"我们","e",1,1,"2024-08-24_13h51.38.038","IAT(Formal)","2021.2.3","Win32",59.52380952,"",NA,"",NA,NA,NA,NA,NA,NA,NA,"","","",NA,"",NA,NA,NA,NA,NA,NA,NA,"","","",NA,NA,NA,NA,NA,NA,"",NA,"",NA,NA,NA,NA,NA,NA,NA,"",NA,"",NA,NA,NA,NA,NA,NA,NA,"","","",NA,"",NA,NA,NA,NA,NA,NA,NA,"",NA,"23"
"",NA,"",NA,"e",1,0.6954,0,7,7,4,1,"俺","e",1,1,"2024-08-24_13h51.38.038","IAT(Formal)","2021.2.3","Win32",59.52380952,"",NA,"",NA,NA,NA,NA,NA,NA,NA,"","","",NA,"",NA,NA,NA,NA,NA,NA,NA,"","","",NA,NA,NA,NA,NA,NA,"",NA,"",NA,NA,NA,NA,NA,NA,NA,"",NA,"",NA,NA,NA,NA,NA,NA,NA,"","","",NA,"",NA,NA,NA,NA,NA,NA,NA,"",NA,"23"
"",NA,"",NA,"i",1,0.4462,0,8,8,8,1,"他人","i",1,1,"2024-08-24_13h51.38.038","IAT(Formal)","2021.2.3","Win32",59.52380952,"",NA,"",NA,NA,NA,NA,NA,NA,NA,"","","",NA,"",NA,NA,NA,NA,NA,NA,NA,"","","",NA,NA,NA,NA,NA,NA,"",NA,"",NA,NA,NA,NA,NA,NA,NA,"",NA,"",NA,NA,NA,NA,NA,NA,NA,"","","",NA,"",NA,NA,NA,NA,NA,NA,NA,"",NA,"23"
"",NA,"",NA,"i",1,0.745,0,9,9,9,1,"其他","i",1,1,"2024-08-24_13h51.38.038","IAT(Formal)","2021.2.3","Win32",59.52380952,"",NA,"",NA,NA,NA,NA,NA,NA,NA,"","","",NA,"",NA,NA,NA,NA,NA,NA,NA,"","","",NA,NA,NA,NA,NA,NA,"",NA,"",NA,NA,NA,NA,NA,NA,NA,"",NA,"",NA,NA,NA,NA,NA,NA,NA,"","","",NA,"",NA,NA,NA,NA,NA,NA,NA,"",NA,"23"
"",NA,"",NA,"",NA,NA,NA,NA,NA,NA,NA,"","",1,1,"2024-08-24_13h51.38.038","IAT(Formal)","2021.2.3","Win32",59.52380952,"space",5.9969,"e",1,0.508,0,0,0,8,1,"勤奋","e","",NA,"",NA,NA,NA,NA,NA,NA,NA,"","","",NA,NA,NA,NA,NA,NA,"",NA,"",NA,NA,NA,NA,NA,NA,NA,"",NA,"",NA,NA,NA,NA,NA,NA,NA,"","","",NA,"",NA,NA,NA,NA,NA,NA,NA,"",NA,"23"
"",NA,"",NA,"",NA,NA,NA,NA,NA,NA,NA,"","",1,1,"2024-08-24_13h51.38.038","IAT(Formal)","2021.2.3","Win32",59.52380952,"",NA,"i",1,0.5744,0,1,1,22,1,"愚蠢","i","",NA,"",NA,NA,NA,NA,NA,NA,NA,"","","",NA,NA,NA,NA,NA,NA,"",NA,"",NA,NA,NA,NA,NA,NA,NA,"",NA,"",NA,NA,NA,NA,NA,NA,NA,"","","",NA,"",NA,NA,NA,NA,NA,NA,NA,"",NA,"23"
"",NA,"",NA,"",NA,NA,NA,NA,NA,NA,NA,"","",1,1,"2024-08-24_13h51.38.038","IAT(Formal)","2021.2.3","Win32",59.52380952,"",NA,"i",1,0.5801,0,2,2,39,1,"下贱","i","",NA,"",NA,NA,NA,NA,NA,NA,NA,"","","",NA,NA,NA,NA,NA,NA,"",NA,"",NA,NA,NA,NA,NA,NA,NA,"",NA,"",NA,NA,NA,NA,NA,NA,NA,"","","",NA,"",NA,NA,NA,NA,NA,NA,NA,"",NA,"23"
"",NA,"",NA,"",NA,NA,NA,NA,NA,NA,NA,"","",1,1,"2024-08-24_13h51.38.038","IAT(Formal)","2021.2.3","Win32",59.52380952,"",NA,"e",1,0.5333,0,3,3,2,1,"聪明","e","",NA,"",NA,NA,NA,NA,NA,NA,NA,"","","",NA,NA,NA,NA,NA,NA,"",NA,"",NA,NA,NA,NA,NA,NA,NA,"",NA,"",NA,NA,NA,NA,NA,NA,NA,"","","",NA,"",NA,NA,NA,NA,NA,NA,NA,"",NA,"23"
"",NA,"",NA,"",NA,NA,NA,NA,NA,NA,NA,"","",1,1,"2024-08-24_13h51.38.038","IAT(Formal)","2021.2.3","Win32",59.52380952,"",NA,"e",0,0.8798,0,4,4,37,1,"固执","i","",NA,"",NA,NA,NA,NA,NA,NA,NA,"","","",NA,NA,NA,NA,NA,NA,"",NA,"",NA,NA,NA,NA,NA,NA,NA,"",NA,"",NA,NA,NA,NA,NA,NA,NA,"","","",NA,"",NA,NA,NA,NA,NA,NA,NA,"",NA,"23"
"",NA,"",NA,"",NA,NA,NA,NA,NA,NA,NA,"","",1,1,"2024-08-24_13h51.38.038","IAT(Formal)","2021.2.3","Win32",59.52380952,"",NA,"e",1,0.6108,0,5,5,17,1,"热情","e","",NA,"",NA,NA,NA,NA,NA,NA,NA,"","","",NA,NA,NA,NA,NA,NA,"",NA,"",NA,NA,NA,NA,NA,NA,NA,"",NA,"",NA,NA,NA,NA,NA,NA,NA,"","","",NA,"",NA,NA,NA,NA,NA,NA,NA,"",NA,"23"
"",NA,"",NA,"",NA,NA,NA,NA,NA,NA,NA,"","",1,1,"2024-08-24_13h51.38.038","IAT(Formal)","2021.2.3","Win32",59.52380952,"",NA,"i",1,0.6254,0,6,6,23,1,"刻薄","i","",NA,"",NA,NA,NA,NA,NA,NA,NA,"","","",NA,NA,NA,NA,NA,NA,"",NA,"",NA,NA,NA,NA,NA,NA,NA,"",NA,"",NA,NA,NA,NA,NA,NA,NA,"","","",NA,"",NA,NA,NA,NA,NA,NA,NA,"",NA,"23"
"",NA,"",NA,"",NA,NA,NA,NA,NA,NA,NA,"","",1,1,"2024-08-24_13h51.38.038","IAT(Formal)","2021.2.3","Win32",59.52380952,"",NA,"i",1,0.9575,0,7,7,38,1,"轻率","i","",NA,"",NA,NA,NA,NA,NA,NA,NA,"","","",NA,NA,NA,NA,NA,NA,"",NA,"",NA,NA,NA,NA,NA,NA,NA,"",NA,"",NA,NA,NA,NA,NA,NA,NA,"","","",NA,"",NA,NA,NA,NA,NA,NA,NA,"",NA,"23"
"",NA,"",NA,"",NA,NA,NA,NA,NA,NA,NA,"","",1,1,"2024-08-24_13h51.38.038","IAT(Formal)","2021.2.3","Win32",59.52380952,"",NA,"e",1,0.5934,0,8,8,9,1,"机智","e","",NA,"",NA,NA,NA,NA,NA,NA,NA,"","","",NA,NA,NA,NA,NA,NA,"",NA,"",NA,NA,NA,NA,NA,NA,NA,"",NA,"",NA,NA,NA,NA,NA,NA,NA,"","","",NA,"",NA,NA,NA,NA,NA,NA,NA,"",NA,"23"
"",NA,"",NA,"",NA,NA,NA,NA,NA,NA,NA,"","",1,1,"2024-08-24_13h51.38.038","IAT(Formal)","2021.2.3","Win32",59.52380952,"",NA,"i",1,0.6227,0,9,9,25,1,"消极","i","",NA,"",NA,NA,NA,NA,NA,NA,NA,"","","",NA,NA,NA,NA,NA,NA,"",NA,"",NA,NA,NA,NA,NA,NA,NA,"",NA,"",NA,NA,NA,NA,NA,NA,NA,"","","",NA,"",NA,NA,NA,NA,NA,NA,NA,"",NA,"23"
"",NA,"",NA,"",NA,NA,NA,NA,NA,NA,NA,"","",1,1,"2024-08-24_13h51.38.038","IAT(Formal)","2021.2.3","Win32",59.52380952,"",NA,"i",1,0.8807,0,10,10,31,1,"散漫","i","",NA,"",NA,NA,NA,NA,NA,NA,NA,"","","",NA,NA,NA,NA,NA,NA,"",NA,"",NA,NA,NA,NA,NA,NA,NA,"",NA,"",NA,NA,NA,NA,NA,NA,NA,"","","",NA,"",NA,NA,NA,NA,NA,NA,NA,"",NA,"23"
"",NA,"",NA,"",NA,NA,NA,NA,NA,NA,NA,"","",1,1,"2024-08-24_13h51.38.038","IAT(Formal)","2021.2.3","Win32",59.52380952,"",NA,"e",1,0.5861,0,11,11,6,1,"正直","e","",NA,"",NA,NA,NA,NA,NA,NA,NA,"","","",NA,NA,NA,NA,NA,NA,"",NA,"",NA,NA,NA,NA,NA,NA,NA,"",NA,"",NA,NA,NA,NA,NA,NA,NA,"","","",NA,"",NA,NA,NA,NA,NA,NA,NA,"",NA,"23"
"",NA,"",NA,"",NA,NA,NA,NA,NA,NA,NA,"","",1,1,"2024-08-24_13h51.38.038","IAT(Formal)","2021.2.3","Win32",59.52380952,"",NA,"i",1,0.6773,0,12,12,28,1,"鲁莽","i","",NA,"",NA,NA,NA,NA,NA,NA,NA,"","","",NA,NA,NA,NA,NA,NA,"",NA,"",NA,NA,NA,NA,NA,NA,NA,"",NA,"",NA,NA,NA,NA,NA,NA,NA,"","","",NA,"",NA,NA,NA,NA,NA,NA,NA,"",NA,"23"
"",NA,"",NA,"",NA,NA,NA,NA,NA,NA,NA,"","",1,1,"2024-08-24_13h51.38.038","IAT(Formal)","2021.2.3","Win32",59.52380952,"",NA,"e",1,0.7314,0,13,13,10,1,"认真","e","",NA,"",NA,NA,NA,NA,NA,NA,NA,"","","",NA,NA,NA,NA,NA,NA,"",NA,"",NA,NA,NA,NA,NA,NA,NA,"",NA,"",NA,NA,NA,NA,NA,NA,NA,"","","",NA,"",NA,NA,NA,NA,NA,NA,NA,"",NA,"23"
"",NA,"",NA,"",NA,NA,NA,NA,NA,NA,NA,"","",1,1,"2024-08-24_13h51.38.038","IAT(Formal)","2021.2.3","Win32",59.52380952,"",NA,"e",1,0.6766,0,14,14,0,1,"优秀","e","",NA,"",NA,NA,NA,NA,NA,NA,NA,"","","",NA,NA,NA,NA,NA,NA,"",NA,"",NA,NA,NA,NA,NA,NA,NA,"",NA,"",NA,NA,NA,NA,NA,NA,NA,"","","",NA,"",NA,NA,NA,NA,NA,NA,NA,"",NA,"23"
"",NA,"",NA,"",NA,NA,NA,NA,NA,NA,NA,"","",1,1,"2024-08-24_13h51.38.038","IAT(Formal)","2021.2.3","Win32",59.52380952,"",NA,"i",1,0.5629,0,15,15,34,1,"暴躁","i","",NA,"",NA,NA,NA,NA,NA,NA,NA,"","","",NA,NA,NA,NA,NA,NA,"",NA,"",NA,NA,NA,NA,NA,NA,NA,"",NA,"",NA,NA,NA,NA,NA,NA,NA,"","","",NA,"",NA,NA,NA,NA,NA,NA,NA,"",NA,"23"
"",NA,"",NA,"",NA,NA,NA,NA,NA,NA,NA,"","",1,1,"2024-08-24_13h51.38.038","IAT(Formal)","2021.2.3","Win32",59.52380952,"",NA,"i",1,0.7142,0,16,16,26,1,"自卑","i","",NA,"",NA,NA,NA,NA,NA,NA,NA,"","","",NA,NA,NA,NA,NA,NA,"",NA,"",NA,NA,NA,NA,NA,NA,NA,"",NA,"",NA,NA,NA,NA,NA,NA,NA,"","","",NA,"",NA,NA,NA,NA,NA,NA,NA,"",NA,"23"
"",NA,"",NA,"",NA,NA,NA,NA,NA,NA,NA,"","",1,1,"2024-08-24_13h51.38.038","IAT(Formal)","2021.2.3","Win32",59.52380952,"",NA,"i",1,0.7338,0,17,17,33,1,"自私","i","",NA,"",NA,NA,NA,NA,NA,NA,NA,"","","",NA,NA,NA,NA,NA,NA,"",NA,"",NA,NA,NA,NA,NA,NA,NA,"",NA,"",NA,NA,NA,NA,NA,NA,NA,"","","",NA,"",NA,NA,NA,NA,NA,NA,NA,"",NA,"23"
"",NA,"",NA,"",NA,NA,NA,NA,NA,NA,NA,"","",1,1,"2024-08-24_13h51.38.038","IAT(Formal)","2021.2.3","Win32",59.52380952,"",NA,"i",1,0.7649,0,18,18,21,1,"虚伪","i","",NA,"",NA,NA,NA,NA,NA,NA,NA,"","","",NA,NA,NA,NA,NA,NA,"",NA,"",NA,NA,NA,NA,NA,NA,NA,"",NA,"",NA,NA,NA,NA,NA,NA,NA,"","","",NA,"",NA,NA,NA,NA,NA,NA,NA,"",NA,"23"
"",NA,"",NA,"",NA,NA,NA,NA,NA,NA,NA,"","",1,1,"2024-08-24_13h51.38.038","IAT(Formal)","2021.2.3","Win32",59.52380952,"",NA,"e",1,0.5965,0,19,19,14,1,"朴实","e","",NA,"",NA,NA,NA,NA,NA,NA,NA,"","","",NA,NA,NA,NA,NA,NA,"",NA,"",NA,NA,NA,NA,NA,NA,NA,"",NA,"",NA,NA,NA,NA,NA,NA,NA,"","","",NA,"",NA,NA,NA,NA,NA,NA,NA,"",NA,"23"
"",NA,"",NA,"",NA,NA,NA,NA,NA,NA,NA,"","",1,1,"2024-08-24_13h51.38.038","IAT(Formal)","2021.2.3","Win32",59.52380952,"",NA,"e",1,0.5798,0,20,20,13,1,"公正","e","",NA,"",NA,NA,NA,NA,NA,NA,NA,"","","",NA,NA,NA,NA,NA,NA,"",NA,"",NA,NA,NA,NA,NA,NA,NA,"",NA,"",NA,NA,NA,NA,NA,NA,NA,"","","",NA,"",NA,NA,NA,NA,NA,NA,NA,"",NA,"23"
"",NA,"",NA,"",NA,NA,NA,NA,NA,NA,NA,"","",1,1,"2024-08-24_13h51.38.038","IAT(Formal)","2021.2.3","Win32",59.52380952,"",NA,"i",1,1.1579,0,21,21,35,1,"猖狂","i","",NA,"",NA,NA,NA,NA,NA,NA,NA,"","","",NA,NA,NA,NA,NA,NA,"",NA,"",NA,NA,NA,NA,NA,NA,NA,"",NA,"",NA,NA,NA,NA,NA,NA,NA,"","","",NA,"",NA,NA,NA,NA,NA,NA,NA,"",NA,"23"
"",NA,"",NA,"",NA,NA,NA,NA,NA,NA,NA,"","",1,1,"2024-08-24_13h51.38.038","IAT(Formal)","2021.2.3","Win32",59.52380952,"",NA,"e",1,0.5562,0,22,22,4,1,"乐观","e","",NA,"",NA,NA,NA,NA,NA,NA,NA,"","","",NA,NA,NA,NA,NA,NA,"",NA,"",NA,NA,NA,NA,NA,NA,NA,"",NA,"",NA,NA,NA,NA,NA,NA,NA,"","","",NA,"",NA,NA,NA,NA,NA,NA,NA,"",NA,"23"
"",NA,"",NA,"",NA,NA,NA,NA,NA,NA,NA,"","",1,1,"2024-08-24_13h51.38.038","IAT(Formal)","2021.2.3","Win32",59.52380952,"",NA,"e",1,0.4771,0,23,23,5,1,"诚实","e","",NA,"",NA,NA,NA,NA,NA,NA,NA,"","","",NA,NA,NA,NA,NA,NA,"",NA,"",NA,NA,NA,NA,NA,NA,NA,"",NA,"",NA,NA,NA,NA,NA,NA,NA,"","","",NA,"",NA,NA,NA,NA,NA,NA,NA,"",NA,"23"
"",NA,"",NA,"",NA,NA,NA,NA,NA,NA,NA,"","",1,1,"2024-08-24_13h51.38.038","IAT(Formal)","2021.2.3","Win32",59.52380952,"",NA,"i",1,1.3934,0,24,24,36,1,"野蛮","i","",NA,"",NA,NA,NA,NA,NA,NA,NA,"","","",NA,NA,NA,NA,NA,NA,"",NA,"",NA,NA,NA,NA,NA,NA,NA,"",NA,"",NA,NA,NA,NA,NA,NA,NA,"","","",NA,"",NA,NA,NA,NA,NA,NA,NA,"",NA,"23"
"",NA,"",NA,"",NA,NA,NA,NA,NA,NA,NA,"","",1,1,"2024-08-24_13h51.38.038","IAT(Formal)","2021.2.3","Win32",59.52380952,"",NA,"i",1,0.6105,0,25,25,29,1,"冒失","i","",NA,"",NA,NA,NA,NA,NA,NA,NA,"","","",NA,NA,NA,NA,NA,NA,"",NA,"",NA,NA,NA,NA,NA,NA,NA,"",NA,"",NA,NA,NA,NA,NA,NA,NA,"","","",NA,"",NA,NA,NA,NA,NA,NA,NA,"",NA,"23"
"",NA,"",NA,"",NA,NA,NA,NA,NA,NA,NA,"","",1,1,"2024-08-24_13h51.38.038","IAT(Formal)","2021.2.3","Win32",59.52380952,"",NA,"e",1,0.5954,0,26,26,1,1,"崇高","e","",NA,"",NA,NA,NA,NA,NA,NA,NA,"","","",NA,NA,NA,NA,NA,NA,"",NA,"",NA,NA,NA,NA,NA,NA,NA,"",NA,"",NA,NA,NA,NA,NA,NA,NA,"","","",NA,"",NA,NA,NA,NA,NA,NA,NA,"",NA,"23"
"",NA,"",NA,"",NA,NA,NA,NA,NA,NA,NA,"","",1,1,"2024-08-24_13h51.38.038","IAT(Formal)","2021.2.3","Win32",59.52380952,"",NA,"e",1,0.9789,0,27,27,18,1,"活泼","e","",NA,"",NA,NA,NA,NA,NA,NA,NA,"","","",NA,NA,NA,NA,NA,NA,"",NA,"",NA,NA,NA,NA,NA,NA,NA,"",NA,"",NA,NA,NA,NA,NA,NA,NA,"","","",NA,"",NA,NA,NA,NA,NA,NA,NA,"",NA,"23"
"",NA,"",NA,"",NA,NA,NA,NA,NA,NA,NA,"","",1,1,"2024-08-24_13h51.38.038","IAT(Formal)","2021.2.3","Win32",59.52380952,"",NA,"e",1,0.7626,0,28,28,15,1,"细腻","e","",NA,"",NA,NA,NA,NA,NA,NA,NA,"","","",NA,NA,NA,NA,NA,NA,"",NA,"",NA,NA,NA,NA,NA,NA,NA,"",NA,"",NA,NA,NA,NA,NA,NA,NA,"","","",NA,"",NA,NA,NA,NA,NA,NA,NA,"",NA,"23"
"",NA,"",NA,"",NA,NA,NA,NA,NA,NA,NA,"","",1,1,"2024-08-24_13h51.38.038","IAT(Formal)","2021.2.3","Win32",59.52380952,"",NA,"i",1,0.6392,0,29,29,27,1,"傲慢","i","",NA,"",NA,NA,NA,NA,NA,NA,NA,"","","",NA,NA,NA,NA,NA,NA,"",NA,"",NA,NA,NA,NA,NA,NA,NA,"",NA,"",NA,NA,NA,NA,NA,NA,NA,"","","",NA,"",NA,NA,NA,NA,NA,NA,NA,"",NA,"23"
"",NA,"",NA,"",NA,NA,NA,NA,NA,NA,NA,"","",1,1,"2024-08-24_13h51.38.038","IAT(Formal)","2021.2.3","Win32",59.52380952,"",NA,"e",1,0.735,0,30,30,16,1,"冷静","e","",NA,"",NA,NA,NA,NA,NA,NA,NA,"","","",NA,NA,NA,NA,NA,NA,"",NA,"",NA,NA,NA,NA,NA,NA,NA,"",NA,"",NA,NA,NA,NA,NA,NA,NA,"","","",NA,"",NA,NA,NA,NA,NA,NA,NA,"",NA,"23"
"",NA,"",NA,"",NA,NA,NA,NA,NA,NA,NA,"","",1,1,"2024-08-24_13h51.38.038","IAT(Formal)","2021.2.3","Win32",59.52380952,"",NA,"e",1,0.7536,0,31,31,3,1,"杰出","e","",NA,"",NA,NA,NA,NA,NA,NA,NA,"","","",NA,NA,NA,NA,NA,NA,"",NA,"",NA,NA,NA,NA,NA,NA,NA,"",NA,"",NA,NA,NA,NA,NA,NA,NA,"","","",NA,"",NA,NA,NA,NA,NA,NA,NA,"",NA,"23"
"",NA,"",NA,"",NA,NA,NA,NA,NA,NA,NA,"","",1,1,"2024-08-24_13h51.38.038","IAT(Formal)","2021.2.3","Win32",59.52380952,"",NA,"e",1,0.8498,0,32,32,12,1,"无私","e","",NA,"",NA,NA,NA,NA,NA,NA,NA,"","","",NA,NA,NA,NA,NA,NA,"",NA,"",NA,NA,NA,NA,NA,NA,NA,"",NA,"",NA,NA,NA,NA,NA,NA,NA,"","","",NA,"",NA,NA,NA,NA,NA,NA,NA,"",NA,"23"
"",NA,"",NA,"",NA,NA,NA,NA,NA,NA,NA,"","",1,1,"2024-08-24_13h51.38.038","IAT(Formal)","2021.2.3","Win32",59.52380952,"",NA,"",0,NA,0,33,33,20,1,"卑鄙","i","",NA,"",NA,NA,NA,NA,NA,NA,NA,"","","",NA,NA,NA,NA,NA,NA,"",NA,"",NA,NA,NA,NA,NA,NA,NA,"",NA,"",NA,NA,NA,NA,NA,NA,NA,"","","",NA,"",NA,NA,NA,NA,NA,NA,NA,"",NA,"23"
"",NA,"",NA,"",NA,NA,NA,NA,NA,NA,NA,"","",1,1,"2024-08-24_13h51.38.038","IAT(Formal)","2021.2.3","Win32",59.52380952,"",NA,"i",1,0.5986,0,34,34,24,1,"悲观","i","",NA,"",NA,NA,NA,NA,NA,NA,NA,"","","",NA,NA,NA,NA,NA,NA,"",NA,"",NA,NA,NA,NA,NA,NA,NA,"",NA,"",NA,NA,NA,NA,NA,NA,NA,"","","",NA,"",NA,NA,NA,NA,NA,NA,NA,"",NA,"23"
"",NA,"",NA,"",NA,NA,NA,NA,NA,NA,NA,"","",1,1,"2024-08-24_13h51.38.038","IAT(Formal)","2021.2.3","Win32",59.52380952,"",NA,"i",1,0.5319,0,35,35,30,1,"执拗","i","",NA,"",NA,NA,NA,NA,NA,NA,NA,"","","",NA,NA,NA,NA,NA,NA,"",NA,"",NA,NA,NA,NA,NA,NA,NA,"",NA,"",NA,NA,NA,NA,NA,NA,NA,"","","",NA,"",NA,NA,NA,NA,NA,NA,NA,"",NA,"23"
"",NA,"",NA,"",NA,NA,NA,NA,NA,NA,NA,"","",1,1,"2024-08-24_13h51.38.038","IAT(Formal)","2021.2.3","Win32",59.52380952,"",NA,"e",1,0.6799,0,36,36,7,1,"勇敢","e","",NA,"",NA,NA,NA,NA,NA,NA,NA,"","","",NA,NA,NA,NA,NA,NA,"",NA,"",NA,NA,NA,NA,NA,NA,NA,"",NA,"",NA,NA,NA,NA,NA,NA,NA,"","","",NA,"",NA,NA,NA,NA,NA,NA,NA,"",NA,"23"
"",NA,"",NA,"",NA,NA,NA,NA,NA,NA,NA,"","",1,1,"2024-08-24_13h51.38.038","IAT(Formal)","2021.2.3","Win32",59.52380952,"",NA,"e",1,0.4865,0,37,37,19,1,"诚恳","e","",NA,"",NA,NA,NA,NA,NA,NA,NA,"","","",NA,NA,NA,NA,NA,NA,"",NA,"",NA,NA,NA,NA,NA,NA,NA,"",NA,"",NA,NA,NA,NA,NA,NA,NA,"","","",NA,"",NA,NA,NA,NA,NA,NA,NA,"",NA,"23"
"",NA,"",NA,"",NA,NA,NA,NA,NA,NA,NA,"","",1,1,"2024-08-24_13h51.38.038","IAT(Formal)","2021.2.3","Win32",59.52380952,"",NA,"i",1,0.6112,0,38,38,32,1,"凶狠","i","",NA,"",NA,NA,NA,NA,NA,NA,NA,"","","",NA,NA,NA,NA,NA,NA,"",NA,"",NA,NA,NA,NA,NA,NA,NA,"",NA,"",NA,NA,NA,NA,NA,NA,NA,"","","",NA,"",NA,NA,NA,NA,NA,NA,NA,"",NA,"23"
"",NA,"",NA,"",NA,NA,NA,NA,NA,NA,NA,"","",1,1,"2024-08-24_13h51.38.038","IAT(Formal)","2021.2.3","Win32",59.52380952,"",NA,"e",1,0.8083,0,39,39,11,1,"稳重","e","",NA,"",NA,NA,NA,NA,NA,NA,NA,"","","",NA,NA,NA,NA,NA,NA,"",NA,"",NA,NA,NA,NA,NA,NA,NA,"",NA,"",NA,NA,NA,NA,NA,NA,NA,"","","",NA,"",NA,NA,NA,NA,NA,NA,NA,"",NA,"23"
"",NA,"",NA,"",NA,NA,NA,NA,NA,NA,NA,"","",1,1,"2024-08-24_13h51.38.038","IAT(Formal)","2021.2.3","Win32",59.52380952,"",NA,"",NA,NA,NA,NA,NA,NA,NA,"","","space",7.3867,"e",1,0.4544,0,0,0,54,1,"俺","e","",NA,NA,NA,NA,NA,NA,"",NA,"",NA,NA,NA,NA,NA,NA,NA,"",NA,"",NA,NA,NA,NA,NA,NA,NA,"","","",NA,"",NA,NA,NA,NA,NA,NA,NA,"",NA,"23"
"",NA,"",NA,"",NA,NA,NA,NA,NA,NA,NA,"","",1,1,"2024-08-24_13h51.38.038","IAT(Formal)","2021.2.3","Win32",59.52380952,"",NA,"",NA,NA,NA,NA,NA,NA,NA,"","","",NA,"e",1,0.4392,0,1,1,51,1,"我的","e","",NA,NA,NA,NA,NA,NA,"",NA,"",NA,NA,NA,NA,NA,NA,NA,"",NA,"",NA,NA,NA,NA,NA,NA,NA,"","","",NA,"",NA,NA,NA,NA,NA,NA,NA,"",NA,"23"
"",NA,"",NA,"",NA,NA,NA,NA,NA,NA,NA,"","",1,1,"2024-08-24_13h51.38.038","IAT(Formal)","2021.2.3","Win32",59.52380952,"",NA,"",NA,NA,NA,NA,NA,NA,NA,"","","",NA,"e",1,0.7042,0,2,2,21,1,"稳重","e","",NA,NA,NA,NA,NA,NA,"",NA,"",NA,NA,NA,NA,NA,NA,NA,"",NA,"",NA,NA,NA,NA,NA,NA,NA,"","","",NA,"",NA,NA,NA,NA,NA,NA,NA,"",NA,"23"
"",NA,"",NA,"",NA,NA,NA,NA,NA,NA,NA,"","",1,1,"2024-08-24_13h51.38.038","IAT(Formal)","2021.2.3","Win32",59.52380952,"",NA,"",NA,NA,NA,NA,NA,NA,NA,"","","",NA,"i",1,0.6245,0,3,3,30,1,"卑鄙","i","",NA,NA,NA,NA,NA,NA,"",NA,"",NA,NA,NA,NA,NA,NA,NA,"",NA,"",NA,NA,NA,NA,NA,NA,NA,"","","",NA,"",NA,NA,NA,NA,NA,NA,NA,"",NA,"23"
"",NA,"",NA,"",NA,NA,NA,NA,NA,NA,NA,"","",1,1,"2024-08-24_13h51.38.038","IAT(Formal)","2021.2.3","Win32",59.52380952,"",NA,"",NA,NA,NA,NA,NA,NA,NA,"","","",NA,"e",1,0.6643,0,4,4,64,1,"俺","e","",NA,NA,NA,NA,NA,NA,"",NA,"",NA,NA,NA,NA,NA,NA,NA,"",NA,"",NA,NA,NA,NA,NA,NA,NA,"","","",NA,"",NA,NA,NA,NA,NA,NA,NA,"",NA,"23"
"",NA,"",NA,"",NA,NA,NA,NA,NA,NA,NA,"","",1,1,"2024-08-24_13h51.38.038","IAT(Formal)","2021.2.3","Win32",59.52380952,"",NA,"",NA,NA,NA,NA,NA,NA,NA,"","","",NA,"",0,NA,0,5,5,0,1,"我","e","",NA,NA,NA,NA,NA,NA,"",NA,"",NA,NA,NA,NA,NA,NA,NA,"",NA,"",NA,NA,NA,NA,NA,NA,NA,"","","",NA,"",NA,NA,NA,NA,NA,NA,NA,"",NA,"23"
"",NA,"",NA,"",NA,NA,NA,NA,NA,NA,NA,"","",1,1,"2024-08-24_13h51.38.038","IAT(Formal)","2021.2.3","Win32",59.52380952,"",NA,"",NA,NA,NA,NA,NA,NA,NA,"","","",NA,"e",1,0.4893,0,6,6,60,1,"我","e","",NA,NA,NA,NA,NA,NA,"",NA,"",NA,NA,NA,NA,NA,NA,NA,"",NA,"",NA,NA,NA,NA,NA,NA,NA,"","","",NA,"",NA,NA,NA,NA,NA,NA,NA,"",NA,"23"
"",NA,"",NA,"",NA,NA,NA,NA,NA,NA,NA,"","",1,1,"2024-08-24_13h51.38.038","IAT(Formal)","2021.2.3","Win32",59.52380952,"",NA,"",NA,NA,NA,NA,NA,NA,NA,"","","",NA,"i",1,0.5861,0,7,7,7,1,"他的","i","",NA,NA,NA,NA,NA,NA,"",NA,"",NA,NA,NA,NA,NA,NA,NA,"",NA,"",NA,NA,NA,NA,NA,NA,NA,"","","",NA,"",NA,NA,NA,NA,NA,NA,NA,"",NA,"23"
"",NA,"",NA,"",NA,NA,NA,NA,NA,NA,NA,"","",1,1,"2024-08-24_13h51.38.038","IAT(Formal)","2021.2.3","Win32",59.52380952,"",NA,"",NA,NA,NA,NA,NA,NA,NA,"","","",NA,"i",1,0.5451,0,8,8,46,1,"野蛮","i","",NA,NA,NA,NA,NA,NA,"",NA,"",NA,NA,NA,NA,NA,NA,NA,"",NA,"",NA,NA,NA,NA,NA,NA,NA,"","","",NA,"",NA,NA,NA,NA,NA,NA,NA,"",NA,"23"
"",NA,"",NA,"",NA,NA,NA,NA,NA,NA,NA,"","",1,1,"2024-08-24_13h51.38.038","IAT(Formal)","2021.2.3","Win32",59.52380952,"",NA,"",NA,NA,NA,NA,NA,NA,NA,"","","",NA,"e",1,0.6726,0,9,9,1,1,"我的","e","",NA,NA,NA,NA,NA,NA,"",NA,"",NA,NA,NA,NA,NA,NA,NA,"",NA,"",NA,NA,NA,NA,NA,NA,NA,"","","",NA,"",NA,NA,NA,NA,NA,NA,NA,"",NA,"23"
"",NA,"",NA,"",NA,NA,NA,NA,NA,NA,NA,"","",1,1,"2024-08-24_13h51.38.038","IAT(Formal)","2021.2.3","Win32",59.52380952,"",NA,"",NA,NA,NA,NA,NA,NA,NA,"","","",NA,"e",0,0.6555,0,10,10,48,1,"轻率","i","",NA,NA,NA,NA,NA,NA,"",NA,"",NA,NA,NA,NA,NA,NA,NA,"",NA,"",NA,NA,NA,NA,NA,NA,NA,"","","",NA,"",NA,NA,NA,NA,NA,NA,NA,"",NA,"23"
"",NA,"",NA,"",NA,NA,NA,NA,NA,NA,NA,"","",1,1,"2024-08-24_13h51.38.038","IAT(Formal)","2021.2.3","Win32",59.52380952,"",NA,"",NA,NA,NA,NA,NA,NA,NA,"","","",NA,"i",1,0.7186,0,11,11,31,1,"虚伪","i","",NA,NA,NA,NA,NA,NA,"",NA,"",NA,NA,NA,NA,NA,NA,NA,"",NA,"",NA,NA,NA,NA,NA,NA,NA,"","","",NA,"",NA,NA,NA,NA,NA,NA,NA,"",NA,"23"
"",NA,"",NA,"",NA,NA,NA,NA,NA,NA,NA,"","",1,1,"2024-08-24_13h51.38.038","IAT(Formal)","2021.2.3","Win32",59.52380952,"",NA,"",NA,NA,NA,NA,NA,NA,NA,"","","",NA,"e",1,0.6638,0,12,12,74,1,"俺","e","",NA,NA,NA,NA,NA,NA,"",NA,"",NA,NA,NA,NA,NA,NA,NA,"",NA,"",NA,NA,NA,NA,NA,NA,NA,"","","",NA,"",NA,NA,NA,NA,NA,NA,NA,"",NA,"23"
"",NA,"",NA,"",NA,NA,NA,NA,NA,NA,NA,"","",1,1,"2024-08-24_13h51.38.038","IAT(Formal)","2021.2.3","Win32",59.52380952,"",NA,"",NA,NA,NA,NA,NA,NA,NA,"","","",NA,"e",1,0.4148,0,13,13,71,1,"我的","e","",NA,NA,NA,NA,NA,NA,"",NA,"",NA,NA,NA,NA,NA,NA,NA,"",NA,"",NA,NA,NA,NA,NA,NA,NA,"","","",NA,"",NA,NA,NA,NA,NA,NA,NA,"",NA,"23"
"",NA,"",NA,"",NA,NA,NA,NA,NA,NA,NA,"","",1,1,"2024-08-24_13h51.38.038","IAT(Formal)","2021.2.3","Win32",59.52380952,"",NA,"",NA,NA,NA,NA,NA,NA,NA,"","","",NA,"i",1,0.5801,0,14,14,35,1,"消极","i","",NA,NA,NA,NA,NA,NA,"",NA,"",NA,NA,NA,NA,NA,NA,NA,"",NA,"",NA,NA,NA,NA,NA,NA,NA,"","","",NA,"",NA,NA,NA,NA,NA,NA,NA,"",NA,"23"
"",NA,"",NA,"",NA,NA,NA,NA,NA,NA,NA,"","",1,1,"2024-08-24_13h51.38.038","IAT(Formal)","2021.2.3","Win32",59.52380952,"",NA,"",NA,NA,NA,NA,NA,NA,NA,"","","",NA,"i",1,0.9623,0,15,15,57,1,"他的","i","",NA,NA,NA,NA,NA,NA,"",NA,"",NA,NA,NA,NA,NA,NA,NA,"",NA,"",NA,NA,NA,NA,NA,NA,NA,"","","",NA,"",NA,NA,NA,NA,NA,NA,NA,"",NA,"23"
"",NA,"",NA,"",NA,NA,NA,NA,NA,NA,NA,"","",1,1,"2024-08-24_13h51.38.038","IAT(Formal)","2021.2.3","Win32",59.52380952,"",NA,"",NA,NA,NA,NA,NA,NA,NA,"","","",NA,"i",1,0.594,0,16,16,56,1,"他们","i","",NA,NA,NA,NA,NA,NA,"",NA,"",NA,NA,NA,NA,NA,NA,NA,"",NA,"",NA,NA,NA,NA,NA,NA,NA,"","","",NA,"",NA,NA,NA,NA,NA,NA,NA,"",NA,"23"
"",NA,"",NA,"",NA,NA,NA,NA,NA,NA,NA,"","",1,1,"2024-08-24_13h51.38.038","IAT(Formal)","2021.2.3","Win32",59.52380952,"",NA,"",NA,NA,NA,NA,NA,NA,NA,"","","",NA,"e",1,0.7182,0,17,17,2,1,"我们","e","",NA,NA,NA,NA,NA,NA,"",NA,"",NA,NA,NA,NA,NA,NA,NA,"",NA,"",NA,NA,NA,NA,NA,NA,NA,"","","",NA,"",NA,NA,NA,NA,NA,NA,NA,"",NA,"23"
"",NA,"",NA,"",NA,NA,NA,NA,NA,NA,NA,"","",1,1,"2024-08-24_13h51.38.038","IAT(Formal)","2021.2.3","Win32",59.52380952,"",NA,"",NA,NA,NA,NA,NA,NA,NA,"","","",NA,"",0,NA,0,18,18,10,1,"优秀","e","",NA,NA,NA,NA,NA,NA,"",NA,"",NA,NA,NA,NA,NA,NA,NA,"",NA,"",NA,NA,NA,NA,NA,NA,NA,"","","",NA,"",NA,NA,NA,NA,NA,NA,NA,"",NA,"23"
"",NA,"",NA,"",NA,NA,NA,NA,NA,NA,NA,"","",1,1,"2024-08-24_13h51.38.038","IAT(Formal)","2021.2.3","Win32",59.52380952,"",NA,"",NA,NA,NA,NA,NA,NA,NA,"","","",NA,"i",0,0.817,0,19,19,24,1,"朴实","e","",NA,NA,NA,NA,NA,NA,"",NA,"",NA,NA,NA,NA,NA,NA,NA,"",NA,"",NA,NA,NA,NA,NA,NA,NA,"","","",NA,"",NA,NA,NA,NA,NA,NA,NA,"",NA,"23"
"",NA,"",NA,"",NA,NA,NA,NA,NA,NA,NA,"","",1,1,"2024-08-24_13h51.38.038","IAT(Formal)","2021.2.3","Win32",59.52380952,"",NA,"",NA,NA,NA,NA,NA,NA,NA,"","","",NA,"i",1,0.6556,0,20,20,47,1,"固执","i","",NA,NA,NA,NA,NA,NA,"",NA,"",NA,NA,NA,NA,NA,NA,NA,"",NA,"",NA,NA,NA,NA,NA,NA,NA,"","","",NA,"",NA,NA,NA,NA,NA,NA,NA,"",NA,"23"
"",NA,"",NA,"",NA,NA,NA,NA,NA,NA,NA,"","",1,1,"2024-08-24_13h51.38.038","IAT(Formal)","2021.2.3","Win32",59.52380952,"",NA,"",NA,NA,NA,NA,NA,NA,NA,"","","",NA,"e",1,0.916,0,21,21,23,1,"公正","e","",NA,NA,NA,NA,NA,NA,"",NA,"",NA,NA,NA,NA,NA,NA,NA,"",NA,"",NA,NA,NA,NA,NA,NA,NA,"","","",NA,"",NA,NA,NA,NA,NA,NA,NA,"",NA,"23"
"",NA,"",NA,"",NA,NA,NA,NA,NA,NA,NA,"","",1,1,"2024-08-24_13h51.38.038","IAT(Formal)","2021.2.3","Win32",59.52380952,"",NA,"",NA,NA,NA,NA,NA,NA,NA,"","","",NA,"i",1,0.7955,0,22,22,43,1,"自私","i","",NA,NA,NA,NA,NA,NA,"",NA,"",NA,NA,NA,NA,NA,NA,NA,"",NA,"",NA,NA,NA,NA,NA,NA,NA,"","","",NA,"",NA,NA,NA,NA,NA,NA,NA,"",NA,"23"
"",NA,"",NA,"",NA,NA,NA,NA,NA,NA,NA,"","",1,1,"2024-08-24_13h51.38.038","IAT(Formal)","2021.2.3","Win32",59.52380952,"",NA,"",NA,NA,NA,NA,NA,NA,NA,"","","",NA,"e",1,0.6374,0,23,23,26,1,"冷静","e","",NA,NA,NA,NA,NA,NA,"",NA,"",NA,NA,NA,NA,NA,NA,NA,"",NA,"",NA,NA,NA,NA,NA,NA,NA,"","","",NA,"",NA,NA,NA,NA,NA,NA,NA,"",NA,"23"
"",NA,"",NA,"",NA,NA,NA,NA,NA,NA,NA,"","",1,1,"2024-08-24_13h51.38.038","IAT(Formal)","2021.2.3","Win32",59.52380952,"",NA,"",NA,NA,NA,NA,NA,NA,NA,"","","",NA,"",0,NA,0,24,24,49,1,"下贱","i","",NA,NA,NA,NA,NA,NA,"",NA,"",NA,NA,NA,NA,NA,NA,NA,"",NA,"",NA,NA,NA,NA,NA,NA,NA,"","","",NA,"",NA,NA,NA,NA,NA,NA,NA,"",NA,"23"
"",NA,"",NA,"",NA,NA,NA,NA,NA,NA,NA,"","",1,1,"2024-08-24_13h51.38.038","IAT(Formal)","2021.2.3","Win32",59.52380952,"",NA,"",NA,NA,NA,NA,NA,NA,NA,"","","",NA,"",0,NA,0,25,25,8,1,"他人","i","",NA,NA,NA,NA,NA,NA,"",NA,"",NA,NA,NA,NA,NA,NA,NA,"",NA,"",NA,NA,NA,NA,NA,NA,NA,"","","",NA,"",NA,NA,NA,NA,NA,NA,NA,"",NA,"23"
"",NA,"",NA,"",NA,NA,NA,NA,NA,NA,NA,"","",1,1,"2024-08-24_13h51.38.038","IAT(Formal)","2021.2.3","Win32",59.52380952,"",NA,"",NA,NA,NA,NA,NA,NA,NA,"","","",NA,"e",1,0.526,0,26,26,62,1,"我们","e","",NA,NA,NA,NA,NA,NA,"",NA,"",NA,NA,NA,NA,NA,NA,NA,"",NA,"",NA,NA,NA,NA,NA,NA,NA,"","","",NA,"",NA,NA,NA,NA,NA,NA,NA,"",NA,"23"
"",NA,"",NA,"",NA,NA,NA,NA,NA,NA,NA,"","",1,1,"2024-08-24_13h51.38.038","IAT(Formal)","2021.2.3","Win32",59.52380952,"",NA,"",NA,NA,NA,NA,NA,NA,NA,"","","",NA,"i",1,0.7438,0,27,27,79,1,"其他","i","",NA,NA,NA,NA,NA,NA,"",NA,"",NA,NA,NA,NA,NA,NA,NA,"",NA,"",NA,NA,NA,NA,NA,NA,NA,"","","",NA,"",NA,NA,NA,NA,NA,NA,NA,"",NA,"23"
"",NA,"",NA,"",NA,NA,NA,NA,NA,NA,NA,"","",1,1,"2024-08-24_13h51.38.038","IAT(Formal)","2021.2.3","Win32",59.52380952,"",NA,"",NA,NA,NA,NA,NA,NA,NA,"","","",NA,"e",1,0.5331,0,28,28,14,1,"乐观","e","",NA,NA,NA,NA,NA,NA,"",NA,"",NA,NA,NA,NA,NA,NA,NA,"",NA,"",NA,NA,NA,NA,NA,NA,NA,"","","",NA,"",NA,NA,NA,NA,NA,NA,NA,"",NA,"23"
"",NA,"",NA,"",NA,NA,NA,NA,NA,NA,NA,"","",1,1,"2024-08-24_13h51.38.038","IAT(Formal)","2021.2.3","Win32",59.52380952,"",NA,"",NA,NA,NA,NA,NA,NA,NA,"","","",NA,"i",1,0.8303,0,29,29,9,1,"其他","i","",NA,NA,NA,NA,NA,NA,"",NA,"",NA,NA,NA,NA,NA,NA,NA,"",NA,"",NA,NA,NA,NA,NA,NA,NA,"","","",NA,"",NA,NA,NA,NA,NA,NA,NA,"",NA,"23"
"",NA,"",NA,"",NA,NA,NA,NA,NA,NA,NA,"","",1,1,"2024-08-24_13h51.38.038","IAT(Formal)","2021.2.3","Win32",59.52380952,"",NA,"",NA,NA,NA,NA,NA,NA,NA,"","","",NA,"",0,NA,0,30,30,32,1,"愚蠢","i","",NA,NA,NA,NA,NA,NA,"",NA,"",NA,NA,NA,NA,NA,NA,NA,"",NA,"",NA,NA,NA,NA,NA,NA,NA,"","","",NA,"",NA,NA,NA,NA,NA,NA,NA,"",NA,"23"
"",NA,"",NA,"",NA,NA,NA,NA,NA,NA,NA,"","",1,1,"2024-08-24_13h51.38.038","IAT(Formal)","2021.2.3","Win32",59.52380952,"",NA,"",NA,NA,NA,NA,NA,NA,NA,"","","",NA,"e",0,0.5161,0,31,31,75,1,"他","i","",NA,NA,NA,NA,NA,NA,"",NA,"",NA,NA,NA,NA,NA,NA,NA,"",NA,"",NA,NA,NA,NA,NA,NA,NA,"","","",NA,"",NA,NA,NA,NA,NA,NA,NA,"",NA,"23"
"",NA,"",NA,"",NA,NA,NA,NA,NA,NA,NA,"","",1,1,"2024-08-24_13h51.38.038","IAT(Formal)","2021.2.3","Win32",59.52380952,"",NA,"",NA,NA,NA,NA,NA,NA,NA,"","","",NA,"e",1,0.5782,0,32,32,72,1,"我们","e","",NA,NA,NA,NA,NA,NA,"",NA,"",NA,NA,NA,NA,NA,NA,NA,"",NA,"",NA,NA,NA,NA,NA,NA,NA,"","","",NA,"",NA,NA,NA,NA,NA,NA,NA,"",NA,"23"
"",NA,"",NA,"",NA,NA,NA,NA,NA,NA,NA,"","",1,1,"2024-08-24_13h51.38.038","IAT(Formal)","2021.2.3","Win32",59.52380952,"",NA,"",NA,NA,NA,NA,NA,NA,NA,"","","",NA,"i",1,0.7377,0,33,33,78,1,"他人","i","",NA,NA,NA,NA,NA,NA,"",NA,"",NA,NA,NA,NA,NA,NA,NA,"",NA,"",NA,NA,NA,NA,NA,NA,NA,"","","",NA,"",NA,NA,NA,NA,NA,NA,NA,"",NA,"23"
"",NA,"",NA,"",NA,NA,NA,NA,NA,NA,NA,"","",1,1,"2024-08-24_13h51.38.038","IAT(Formal)","2021.2.3","Win32",59.52380952,"",NA,"",NA,NA,NA,NA,NA,NA,NA,"","","",NA,"e",1,0.796,0,34,34,73,1,"自己","e","",NA,NA,NA,NA,NA,NA,"",NA,"",NA,NA,NA,NA,NA,NA,NA,"",NA,"",NA,NA,NA,NA,NA,NA,NA,"","","",NA,"",NA,NA,NA,NA,NA,NA,NA,"",NA,"23"
"",NA,"",NA,"",NA,NA,NA,NA,NA,NA,NA,"","",1,1,"2024-08-24_13h51.38.038","IAT(Formal)","2021.2.3","Win32",59.52380952,"",NA,"",NA,NA,NA,NA,NA,NA,NA,"","","",NA,"",0,NA,0,35,35,41,1,"散漫","i","",NA,NA,NA,NA,NA,NA,"",NA,"",NA,NA,NA,NA,NA,NA,NA,"",NA,"",NA,NA,NA,NA,NA,NA,NA,"","","",NA,"",NA,NA,NA,NA,NA,NA,NA,"",NA,"23"
"",NA,"",NA,"",NA,NA,NA,NA,NA,NA,NA,"","",1,1,"2024-08-24_13h51.38.038","IAT(Formal)","2021.2.3","Win32",59.52380952,"",NA,"",NA,NA,NA,NA,NA,NA,NA,"","","",NA,"",0,NA,0,36,36,27,1,"热情","e","",NA,NA,NA,NA,NA,NA,"",NA,"",NA,NA,NA,NA,NA,NA,NA,"",NA,"",NA,NA,NA,NA,NA,NA,NA,"","","",NA,"",NA,NA,NA,NA,NA,NA,NA,"",NA,"23"
"",NA,"",NA,"",NA,NA,NA,NA,NA,NA,NA,"","",1,1,"2024-08-24_13h51.38.038","IAT(Formal)","2021.2.3","Win32",59.52380952,"",NA,"",NA,NA,NA,NA,NA,NA,NA,"","","",NA,"e",1,0.6234,0,37,37,4,1,"俺","e","",NA,NA,NA,NA,NA,NA,"",NA,"",NA,NA,NA,NA,NA,NA,NA,"",NA,"",NA,NA,NA,NA,NA,NA,NA,"","","",NA,"",NA,NA,NA,NA,NA,NA,NA,"",NA,"23"
"",NA,"",NA,"",NA,NA,NA,NA,NA,NA,NA,"","",1,1,"2024-08-24_13h51.38.038","IAT(Formal)","2021.2.3","Win32",59.52380952,"",NA,"",NA,NA,NA,NA,NA,NA,NA,"","","",NA,"i",1,0.8769,0,38,38,39,1,"冒失","i","",NA,NA,NA,NA,NA,NA,"",NA,"",NA,NA,NA,NA,NA,NA,NA,"",NA,"",NA,NA,NA,NA,NA,NA,NA,"","","",NA,"",NA,NA,NA,NA,NA,NA,NA,"",NA,"23"
"",NA,"",NA,"",NA,NA,NA,NA,NA,NA,NA,"","",1,1,"2024-08-24_13h51.38.038","IAT(Formal)","2021.2.3","Win32",59.52380952,"",NA,"",NA,NA,NA,NA,NA,NA,NA,"","","",NA,"i",1,0.7171,0,39,39,55,1,"他","i","",NA,NA,NA,NA,NA,NA,"",NA,"",NA,NA,NA,NA,NA,NA,NA,"",NA,"",NA,NA,NA,NA,NA,NA,NA,"","","",NA,"",NA,NA,NA,NA,NA,NA,NA,"",NA,"23"
"",NA,"",NA,"",NA,NA,NA,NA,NA,NA,NA,"","",1,1,"2024-08-24_13h51.38.038","IAT(Formal)","2021.2.3","Win32",59.52380952,"",NA,"",NA,NA,NA,NA,NA,NA,NA,"","","",NA,"i",1,0.5395,0,40,40,65,1,"他","i","",NA,NA,NA,NA,NA,NA,"",NA,"",NA,NA,NA,NA,NA,NA,NA,"",NA,"",NA,NA,NA,NA,NA,NA,NA,"","","",NA,"",NA,NA,NA,NA,NA,NA,NA,"",NA,"23"
"",NA,"",NA,"",NA,NA,NA,NA,NA,NA,NA,"","",1,1,"2024-08-24_13h51.38.038","IAT(Formal)","2021.2.3","Win32",59.52380952,"",NA,"",NA,NA,NA,NA,NA,NA,NA,"","","",NA,"e",1,0.5558,0,41,41,12,1,"聪明","e","",NA,NA,NA,NA,NA,NA,"",NA,"",NA,NA,NA,NA,NA,NA,NA,"",NA,"",NA,NA,NA,NA,NA,NA,NA,"","","",NA,"",NA,NA,NA,NA,NA,NA,NA,"",NA,"23"
"",NA,"",NA,"",NA,NA,NA,NA,NA,NA,NA,"","",1,1,"2024-08-24_13h51.38.038","IAT(Formal)","2021.2.3","Win32",59.52380952,"",NA,"",NA,NA,NA,NA,NA,NA,NA,"","","",NA,"i",1,0.5113,0,42,42,76,1,"他们","i","",NA,NA,NA,NA,NA,NA,"",NA,"",NA,NA,NA,NA,NA,NA,NA,"",NA,"",NA,NA,NA,NA,NA,NA,NA,"","","",NA,"",NA,NA,NA,NA,NA,NA,NA,"",NA,"23"
"",NA,"",NA,"",NA,NA,NA,NA,NA,NA,NA,"","",1,1,"2024-08-24_13h51.38.038","IAT(Formal)","2021.2.3","Win32",59.52380952,"",NA,"",NA,NA,NA,NA,NA,NA,NA,"","","",NA,"i",1,0.6826,0,43,43,68,1,"他人","i","",NA,NA,NA,NA,NA,NA,"",NA,"",NA,NA,NA,NA,NA,NA,NA,"",NA,"",NA,NA,NA,NA,NA,NA,NA,"","","",NA,"",NA,NA,NA,NA,NA,NA,NA,"",NA,"23"
"",NA,"",NA,"",NA,NA,NA,NA,NA,NA,NA,"","",1,1,"2024-08-24_13h51.38.038","IAT(Formal)","2021.2.3","Win32",59.52380952,"",NA,"",NA,NA,NA,NA,NA,NA,NA,"","","",NA,"e",1,1.2577,0,44,44,70,1,"我","e","",NA,NA,NA,NA,NA,NA,"",NA,"",NA,NA,NA,NA,NA,NA,NA,"",NA,"",NA,NA,NA,NA,NA,NA,NA,"","","",NA,"",NA,NA,NA,NA,NA,NA,NA,"",NA,"23"
"",NA,"",NA,"",NA,NA,NA,NA,NA,NA,NA,"","",1,1,"2024-08-24_13h51.38.038","IAT(Formal)","2021.2.3","Win32",59.52380952,"",NA,"",NA,NA,NA,NA,NA,NA,NA,"","","",NA,"e",1,0.6294,0,45,45,29,1,"诚恳","e","",NA,NA,NA,NA,NA,NA,"",NA,"",NA,NA,NA,NA,NA,NA,NA,"",NA,"",NA,NA,NA,NA,NA,NA,NA,"","","",NA,"",NA,NA,NA,NA,NA,NA,NA,"",NA,"23"
"",NA,"",NA,"",NA,NA,NA,NA,NA,NA,NA,"","",1,1,"2024-08-24_13h51.38.038","IAT(Formal)","2021.2.3","Win32",59.52380952,"",NA,"",NA,NA,NA,NA,NA,NA,NA,"","","",NA,"i",1,1.1254,0,46,46,33,1,"刻薄","i","",NA,NA,NA,NA,NA,NA,"",NA,"",NA,NA,NA,NA,NA,NA,NA,"",NA,"",NA,NA,NA,NA,NA,NA,NA,"","","",NA,"",NA,NA,NA,NA,NA,NA,NA,"",NA,"23"
"",NA,"",NA,"",NA,NA,NA,NA,NA,NA,NA,"","",1,1,"2024-08-24_13h51.38.038","IAT(Formal)","2021.2.3","Win32",59.52380952,"",NA,"",NA,NA,NA,NA,NA,NA,NA,"","","",NA,"",0,NA,0,47,47,22,1,"无私","e","",NA,NA,NA,NA,NA,NA,"",NA,"",NA,NA,NA,NA,NA,NA,NA,"",NA,"",NA,NA,NA,NA,NA,NA,NA,"","","",NA,"",NA,NA,NA,NA,NA,NA,NA,"",NA,"23"
"",NA,"",NA,"",NA,NA,NA,NA,NA,NA,NA,"","",1,1,"2024-08-24_13h51.38.038","IAT(Formal)","2021.2.3","Win32",59.52380952,"",NA,"",NA,NA,NA,NA,NA,NA,NA,"","","",NA,"e",1,0.5837,0,48,48,19,1,"机智","e","",NA,NA,NA,NA,NA,NA,"",NA,"",NA,NA,NA,NA,NA,NA,NA,"",NA,"",NA,NA,NA,NA,NA,NA,NA,"","","",NA,"",NA,NA,NA,NA,NA,NA,NA,"",NA,"23"
"",NA,"",NA,"",NA,NA,NA,NA,NA,NA,NA,"","",1,1,"2024-08-24_13h51.38.038","IAT(Formal)","2021.2.3","Win32",59.52380952,"",NA,"",NA,NA,NA,NA,NA,NA,NA,"","","",NA,"e",1,0.4004,0,49,49,3,1,"自己","e","",NA,NA,NA,NA,NA,NA,"",NA,"",NA,NA,NA,NA,NA,NA,NA,"",NA,"",NA,NA,NA,NA,NA,NA,NA,"","","",NA,"",NA,NA,NA,NA,NA,NA,NA,"",NA,"23"
"",NA,"",NA,"",NA,NA,NA,NA,NA,NA,NA,"","",1,1,"2024-08-24_13h51.38.038","IAT(Formal)","2021.2.3","Win32",59.52380952,"",NA,"",NA,NA,NA,NA,NA,NA,NA,"","","",NA,"i",1,0.6338,0,50,50,34,1,"悲观","i","",NA,NA,NA,NA,NA,NA,"",NA,"",NA,NA,NA,NA,NA,NA,NA,"",NA,"",NA,NA,NA,NA,NA,NA,NA,"","","",NA,"",NA,NA,NA,NA,NA,NA,NA,"",NA,"23"
"",NA,"",NA,"",NA,NA,NA,NA,NA,NA,NA,"","",1,1,"2024-08-24_13h51.38.038","IAT(Formal)","2021.2.3","Win32",59.52380952,"",NA,"",NA,NA,NA,NA,NA,NA,NA,"","","",NA,"e",1,0.6802,0,51,51,28,1,"活泼","e","",NA,NA,NA,NA,NA,NA,"",NA,"",NA,NA,NA,NA,NA,NA,NA,"",NA,"",NA,NA,NA,NA,NA,NA,NA,"","","",NA,"",NA,NA,NA,NA,NA,NA,NA,"",NA,"23"
"",NA,"",NA,"",NA,NA,NA,NA,NA,NA,NA,"","",1,1,"2024-08-24_13h51.38.038","IAT(Formal)","2021.2.3","Win32",59.52380952,"",NA,"",NA,NA,NA,NA,NA,NA,NA,"","","",NA,"e",1,1.0722,0,52,52,17,1,"勇敢","e","",NA,NA,NA,NA,NA,NA,"",NA,"",NA,NA,NA,NA,NA,NA,NA,"",NA,"",NA,NA,NA,NA,NA,NA,NA,"","","",NA,"",NA,NA,NA,NA,NA,NA,NA,"",NA,"23"
"",NA,"",NA,"",NA,NA,NA,NA,NA,NA,NA,"","",1,1,"2024-08-24_13h51.38.038","IAT(Formal)","2021.2.3","Win32",59.52380952,"",NA,"",NA,NA,NA,NA,NA,NA,NA,"","","",NA,"",0,NA,0,53,53,50,1,"我","e","",NA,NA,NA,NA,NA,NA,"",NA,"",NA,NA,NA,NA,NA,NA,NA,"",NA,"",NA,NA,NA,NA,NA,NA,NA,"","","",NA,"",NA,NA,NA,NA,NA,NA,NA,"",NA,"23"
"",NA,"",NA,"",NA,NA,NA,NA,NA,NA,NA,"","",1,1,"2024-08-24_13h51.38.038","IAT(Formal)","2021.2.3","Win32",59.52380952,"",NA,"",NA,NA,NA,NA,NA,NA,NA,"","","",NA,"e",0,0.563,0,54,54,66,1,"他们","i","",NA,NA,NA,NA,NA,NA,"",NA,"",NA,NA,NA,NA,NA,NA,NA,"",NA,"",NA,NA,NA,NA,NA,NA,NA,"","","",NA,"",NA,NA,NA,NA,NA,NA,NA,"",NA,"23"
"",NA,"",NA,"",NA,NA,NA,NA,NA,NA,NA,"","",1,1,"2024-08-24_13h51.38.038","IAT(Formal)","2021.2.3","Win32",59.52380952,"",NA,"",NA,NA,NA,NA,NA,NA,NA,"","","",NA,"e",0,0.411,0,55,55,77,1,"他的","i","",NA,NA,NA,NA,NA,NA,"",NA,"",NA,NA,NA,NA,NA,NA,NA,"",NA,"",NA,NA,NA,NA,NA,NA,NA,"","","",NA,"",NA,NA,NA,NA,NA,NA,NA,"",NA,"23"
"",NA,"",NA,"",NA,NA,NA,NA,NA,NA,NA,"","",1,1,"2024-08-24_13h51.38.038","IAT(Formal)","2021.2.3","Win32",59.52380952,"",NA,"",NA,NA,NA,NA,NA,NA,NA,"","","",NA,"e",1,0.6907,0,56,56,25,1,"细腻","e","",NA,NA,NA,NA,NA,NA,"",NA,"",NA,NA,NA,NA,NA,NA,NA,"",NA,"",NA,NA,NA,NA,NA,NA,NA,"","","",NA,"",NA,NA,NA,NA,NA,NA,NA,"",NA,"23"
"",NA,"",NA,"",NA,NA,NA,NA,NA,NA,NA,"","",1,1,"2024-08-24_13h51.38.038","IAT(Formal)","2021.2.3","Win32",59.52380952,"",NA,"",NA,NA,NA,NA,NA,NA,NA,"","","",NA,"e",1,0.8211,0,57,57,13,1,"杰出","e","",NA,NA,NA,NA,NA,NA,"",NA,"",NA,NA,NA,NA,NA,NA,NA,"",NA,"",NA,NA,NA,NA,NA,NA,NA,"","","",NA,"",NA,NA,NA,NA,NA,NA,NA,"",NA,"23"
"",NA,"",NA,"",NA,NA,NA,NA,NA,NA,NA,"","",1,1,"2024-08-24_13h51.38.038","IAT(Formal)","2021.2.3","Win32",59.52380952,"",NA,"",NA,NA,NA,NA,NA,NA,NA,"","","",NA,"i",1,0.9289,0,58,58,38,1,"鲁莽","i","",NA,NA,NA,NA,NA,NA,"",NA,"",NA,NA,NA,NA,NA,NA,NA,"",NA,"",NA,NA,NA,NA,NA,NA,NA,"","","",NA,"",NA,NA,NA,NA,NA,NA,NA,"",NA,"23"
"",NA,"",NA,"",NA,NA,NA,NA,NA,NA,NA,"","",1,1,"2024-08-24_13h51.38.038","IAT(Formal)","2021.2.3","Win32",59.52380952,"",NA,"",NA,NA,NA,NA,NA,NA,NA,"","","",NA,"e",1,0.6284,0,59,59,15,1,"诚实","e","",NA,NA,NA,NA,NA,NA,"",NA,"",NA,NA,NA,NA,NA,NA,NA,"",NA,"",NA,NA,NA,NA,NA,NA,NA,"","","",NA,"",NA,NA,NA,NA,NA,NA,NA,"",NA,"23"
"",NA,"",NA,"",NA,NA,NA,NA,NA,NA,NA,"","",1,1,"2024-08-24_13h51.38.038","IAT(Formal)","2021.2.3","Win32",59.52380952,"",NA,"",NA,NA,NA,NA,NA,NA,NA,"","","",NA,"",0,NA,0,60,60,5,1,"他","i","",NA,NA,NA,NA,NA,NA,"",NA,"",NA,NA,NA,NA,NA,NA,NA,"",NA,"",NA,NA,NA,NA,NA,NA,NA,"","","",NA,"",NA,NA,NA,NA,NA,NA,NA,"",NA,"23"
"",NA,"",NA,"",NA,NA,NA,NA,NA,NA,NA,"","",1,1,"2024-08-24_13h51.38.038","IAT(Formal)","2021.2.3","Win32",59.52380952,"",NA,"",NA,NA,NA,NA,NA,NA,NA,"","","",NA,"i",1,0.6362,0,61,61,42,1,"凶狠","i","",NA,NA,NA,NA,NA,NA,"",NA,"",NA,NA,NA,NA,NA,NA,NA,"",NA,"",NA,NA,NA,NA,NA,NA,NA,"","","",NA,"",NA,NA,NA,NA,NA,NA,NA,"",NA,"23"
"",NA,"",NA,"",NA,NA,NA,NA,NA,NA,NA,"","",1,1,"2024-08-24_13h51.38.038","IAT(Formal)","2021.2.3","Win32",59.52380952,"",NA,"",NA,NA,NA,NA,NA,NA,NA,"","","",NA,"i",1,0.6526,0,62,62,44,1,"暴躁","i","",NA,NA,NA,NA,NA,NA,"",NA,"",NA,NA,NA,NA,NA,NA,NA,"",NA,"",NA,NA,NA,NA,NA,NA,NA,"","","",NA,"",NA,NA,NA,NA,NA,NA,NA,"",NA,"23"
"",NA,"",NA,"",NA,NA,NA,NA,NA,NA,NA,"","",1,1,"2024-08-24_13h51.38.038","IAT(Formal)","2021.2.3","Win32",59.52380952,"",NA,"",NA,NA,NA,NA,NA,NA,NA,"","","",NA,"e",1,0.9881,0,63,63,20,1,"认真","e","",NA,NA,NA,NA,NA,NA,"",NA,"",NA,NA,NA,NA,NA,NA,NA,"",NA,"",NA,NA,NA,NA,NA,NA,NA,"","","",NA,"",NA,NA,NA,NA,NA,NA,NA,"",NA,"23"
"",NA,"",NA,"",NA,NA,NA,NA,NA,NA,NA,"","",1,1,"2024-08-24_13h51.38.038","IAT(Formal)","2021.2.3","Win32",59.52380952,"",NA,"",NA,NA,NA,NA,NA,NA,NA,"","","",NA,"",0,NA,0,64,64,40,1,"执拗","i","",NA,NA,NA,NA,NA,NA,"",NA,"",NA,NA,NA,NA,NA,NA,NA,"",NA,"",NA,NA,NA,NA,NA,NA,NA,"","","",NA,"",NA,NA,NA,NA,NA,NA,NA,"",NA,"23"
"",NA,"",NA,"",NA,NA,NA,NA,NA,NA,NA,"","",1,1,"2024-08-24_13h51.38.038","IAT(Formal)","2021.2.3","Win32",59.52380952,"",NA,"",NA,NA,NA,NA,NA,NA,NA,"","","",NA,"i",1,0.6425,0,65,65,58,1,"他人","i","",NA,NA,NA,NA,NA,NA,"",NA,"",NA,NA,NA,NA,NA,NA,NA,"",NA,"",NA,NA,NA,NA,NA,NA,NA,"","","",NA,"",NA,NA,NA,NA,NA,NA,NA,"",NA,"23"
"",NA,"",NA,"",NA,NA,NA,NA,NA,NA,NA,"","",1,1,"2024-08-24_13h51.38.038","IAT(Formal)","2021.2.3","Win32",59.52380952,"",NA,"",NA,NA,NA,NA,NA,NA,NA,"","","",NA,"i",1,0.6614,0,66,66,36,1,"自卑","i","",NA,NA,NA,NA,NA,NA,"",NA,"",NA,NA,NA,NA,NA,NA,NA,"",NA,"",NA,NA,NA,NA,NA,NA,NA,"","","",NA,"",NA,NA,NA,NA,NA,NA,NA,"",NA,"23"
"",NA,"",NA,"",NA,NA,NA,NA,NA,NA,NA,"","",1,1,"2024-08-24_13h51.38.038","IAT(Formal)","2021.2.3","Win32",59.52380952,"",NA,"",NA,NA,NA,NA,NA,NA,NA,"","","",NA,"e",1,0.5982,0,67,67,11,1,"崇高","e","",NA,NA,NA,NA,NA,NA,"",NA,"",NA,NA,NA,NA,NA,NA,NA,"",NA,"",NA,NA,NA,NA,NA,NA,NA,"","","",NA,"",NA,NA,NA,NA,NA,NA,NA,"",NA,"23"
"",NA,"",NA,"",NA,NA,NA,NA,NA,NA,NA,"","",1,1,"2024-08-24_13h51.38.038","IAT(Formal)","2021.2.3","Win32",59.52380952,"",NA,"",NA,NA,NA,NA,NA,NA,NA,"","","",NA,"",0,NA,0,68,68,6,1,"他们","i","",NA,NA,NA,NA,NA,NA,"",NA,"",NA,NA,NA,NA,NA,NA,NA,"",NA,"",NA,NA,NA,NA,NA,NA,NA,"","","",NA,"",NA,NA,NA,NA,NA,NA,NA,"",NA,"23"
"",NA,"",NA,"",NA,NA,NA,NA,NA,NA,NA,"","",1,1,"2024-08-24_13h51.38.038","IAT(Formal)","2021.2.3","Win32",59.52380952,"",NA,"",NA,NA,NA,NA,NA,NA,NA,"","","",NA,"i",1,0.6177,0,69,69,59,1,"其他","i","",NA,NA,NA,NA,NA,NA,"",NA,"",NA,NA,NA,NA,NA,NA,NA,"",NA,"",NA,NA,NA,NA,NA,NA,NA,"","","",NA,"",NA,NA,NA,NA,NA,NA,NA,"",NA,"23"
"",NA,"",NA,"",NA,NA,NA,NA,NA,NA,NA,"","",1,1,"2024-08-24_13h51.38.038","IAT(Formal)","2021.2.3","Win32",59.52380952,"",NA,"",NA,NA,NA,NA,NA,NA,NA,"","","",NA,"e",1,0.5784,0,70,70,61,1,"我的","e","",NA,NA,NA,NA,NA,NA,"",NA,"",NA,NA,NA,NA,NA,NA,NA,"",NA,"",NA,NA,NA,NA,NA,NA,NA,"","","",NA,"",NA,NA,NA,NA,NA,NA,NA,"",NA,"23"
"",NA,"",NA,"",NA,NA,NA,NA,NA,NA,NA,"","",1,1,"2024-08-24_13h51.38.038","IAT(Formal)","2021.2.3","Win32",59.52380952,"",NA,"",NA,NA,NA,NA,NA,NA,NA,"","","",NA,"",0,NA,0,71,71,45,1,"猖狂","i","",NA,NA,NA,NA,NA,NA,"",NA,"",NA,NA,NA,NA,NA,NA,NA,"",NA,"",NA,NA,NA,NA,NA,NA,NA,"","","",NA,"",NA,NA,NA,NA,NA,NA,NA,"",NA,"23"
"",NA,"",NA,"",NA,NA,NA,NA,NA,NA,NA,"","",1,1,"2024-08-24_13h51.38.038","IAT(Formal)","2021.2.3","Win32",59.52380952,"",NA,"",NA,NA,NA,NA,NA,NA,NA,"","","",NA,"i",1,0.7772,0,72,72,37,1,"傲慢","i","",NA,NA,NA,NA,NA,NA,"",NA,"",NA,NA,NA,NA,NA,NA,NA,"",NA,"",NA,NA,NA,NA,NA,NA,NA,"","","",NA,"",NA,NA,NA,NA,NA,NA,NA,"",NA,"23"
"",NA,"",NA,"",NA,NA,NA,NA,NA,NA,NA,"","",1,1,"2024-08-24_13h51.38.038","IAT(Formal)","2021.2.3","Win32",59.52380952,"",NA,"",NA,NA,NA,NA,NA,NA,NA,"","","",NA,"e",1,1.3365,0,73,73,18,1,"勤奋","e","",NA,NA,NA,NA,NA,NA,"",NA,"",NA,NA,NA,NA,NA,NA,NA,"",NA,"",NA,NA,NA,NA,NA,NA,NA,"","","",NA,"",NA,NA,NA,NA,NA,NA,NA,"",NA,"23"
"",NA,"",NA,"",NA,NA,NA,NA,NA,NA,NA,"","",1,1,"2024-08-24_13h51.38.038","IAT(Formal)","2021.2.3","Win32",59.52380952,"",NA,"",NA,NA,NA,NA,NA,NA,NA,"","","",NA,"i",1,0.5382,0,74,74,67,1,"他的","i","",NA,NA,NA,NA,NA,NA,"",NA,"",NA,NA,NA,NA,NA,NA,NA,"",NA,"",NA,NA,NA,NA,NA,NA,NA,"","","",NA,"",NA,NA,NA,NA,NA,NA,NA,"",NA,"23"
"",NA,"",NA,"",NA,NA,NA,NA,NA,NA,NA,"","",1,1,"2024-08-24_13h51.38.038","IAT(Formal)","2021.2.3","Win32",59.52380952,"",NA,"",NA,NA,NA,NA,NA,NA,NA,"","","",NA,"i",0,0.5414,0,75,75,52,1,"我们","e","",NA,NA,NA,NA,NA,NA,"",NA,"",NA,NA,NA,NA,NA,NA,NA,"",NA,"",NA,NA,NA,NA,NA,NA,NA,"","","",NA,"",NA,NA,NA,NA,NA,NA,NA,"",NA,"23"
"",NA,"",NA,"",NA,NA,NA,NA,NA,NA,NA,"","",1,1,"2024-08-24_13h51.38.038","IAT(Formal)","2021.2.3","Win32",59.52380952,"",NA,"",NA,NA,NA,NA,NA,NA,NA,"","","",NA,"e",1,0.4628,0,76,76,63,1,"自己","e","",NA,NA,NA,NA,NA,NA,"",NA,"",NA,NA,NA,NA,NA,NA,NA,"",NA,"",NA,NA,NA,NA,NA,NA,NA,"","","",NA,"",NA,NA,NA,NA,NA,NA,NA,"",NA,"23"
"",NA,"",NA,"",NA,NA,NA,NA,NA,NA,NA,"","",1,1,"2024-08-24_13h51.38.038","IAT(Formal)","2021.2.3","Win32",59.52380952,"",NA,"",NA,NA,NA,NA,NA,NA,NA,"","","",NA,"e",1,0.468,0,77,77,53,1,"自己","e","",NA,NA,NA,NA,NA,NA,"",NA,"",NA,NA,NA,NA,NA,NA,NA,"",NA,"",NA,NA,NA,NA,NA,NA,NA,"","","",NA,"",NA,NA,NA,NA,NA,NA,NA,"",NA,"23"
"",NA,"",NA,"",NA,NA,NA,NA,NA,NA,NA,"","",1,1,"2024-08-24_13h51.38.038","IAT(Formal)","2021.2.3","Win32",59.52380952,"",NA,"",NA,NA,NA,NA,NA,NA,NA,"","","",NA,"i",1,0.5349,0,78,78,69,1,"其他","i","",NA,NA,NA,NA,NA,NA,"",NA,"",NA,NA,NA,NA,NA,NA,NA,"",NA,"",NA,NA,NA,NA,NA,NA,NA,"","","",NA,"",NA,NA,NA,NA,NA,NA,NA,"",NA,"23"
"",NA,"",NA,"",NA,NA,NA,NA,NA,NA,NA,"","",1,1,"2024-08-24_13h51.38.038","IAT(Formal)","2021.2.3","Win32",59.52380952,"",NA,"",NA,NA,NA,NA,NA,NA,NA,"","","",NA,"e",1,0.9973,0,79,79,16,1,"正直","e","",NA,NA,NA,NA,NA,NA,"",NA,"",NA,NA,NA,NA,NA,NA,NA,"",NA,"",NA,NA,NA,NA,NA,NA,NA,"","","",NA,"",NA,NA,NA,NA,NA,NA,NA,"",NA,"23"
"",NA,"",NA,"",NA,NA,NA,NA,NA,NA,NA,"","",1,1,"2024-08-24_13h51.38.038","IAT(Formal)","2021.2.3","Win32",59.52380952,"",NA,"",NA,NA,NA,NA,NA,NA,NA,"","","",NA,"i",1,0.7975,NA,NA,NA,NA,NA,"悲观","i","space",6.5032,0,0,0,34,1,"",NA,"",NA,NA,NA,NA,NA,NA,NA,"",NA,"",NA,NA,NA,NA,NA,NA,NA,"","","",NA,"",NA,NA,NA,NA,NA,NA,NA,"",NA,"23"
"",NA,"",NA,"",NA,NA,NA,NA,NA,NA,NA,"","",1,1,"2024-08-24_13h51.38.038","IAT(Formal)","2021.2.3","Win32",59.52380952,"",NA,"",NA,NA,NA,NA,NA,NA,NA,"","","",NA,"i",1,0.6917,NA,NA,NA,NA,NA,"他人","i","",NA,0,1,1,58,1,"",NA,"",NA,NA,NA,NA,NA,NA,NA,"",NA,"",NA,NA,NA,NA,NA,NA,NA,"","","",NA,"",NA,NA,NA,NA,NA,NA,NA,"",NA,"23"
"",NA,"",NA,"",NA,NA,NA,NA,NA,NA,NA,"","",1,1,"2024-08-24_13h51.38.038","IAT(Formal)","2021.2.3","Win32",59.52380952,"",NA,"",NA,NA,NA,NA,NA,NA,NA,"","","",NA,"e",1,0.744,NA,NA,NA,NA,NA,"聪明","e","",NA,0,2,2,12,1,"",NA,"",NA,NA,NA,NA,NA,NA,NA,"",NA,"",NA,NA,NA,NA,NA,NA,NA,"","","",NA,"",NA,NA,NA,NA,NA,NA,NA,"",NA,"23"
"",NA,"",NA,"",NA,NA,NA,NA,NA,NA,NA,"","",1,1,"2024-08-24_13h51.38.038","IAT(Formal)","2021.2.3","Win32",59.52380952,"",NA,"",NA,NA,NA,NA,NA,NA,NA,"","","",NA,"i",1,0.6165,NA,NA,NA,NA,NA,"他","i","",NA,0,3,3,65,1,"",NA,"",NA,NA,NA,NA,NA,NA,NA,"",NA,"",NA,NA,NA,NA,NA,NA,NA,"","","",NA,"",NA,NA,NA,NA,NA,NA,NA,"",NA,"23"
"",NA,"",NA,"",NA,NA,NA,NA,NA,NA,NA,"","",1,1,"2024-08-24_13h51.38.038","IAT(Formal)","2021.2.3","Win32",59.52380952,"",NA,"",NA,NA,NA,NA,NA,NA,NA,"","","",NA,"i",1,1.024,NA,NA,NA,NA,NA,"其他","i","",NA,0,4,4,59,1,"",NA,"",NA,NA,NA,NA,NA,NA,NA,"",NA,"",NA,NA,NA,NA,NA,NA,NA,"","","",NA,"",NA,NA,NA,NA,NA,NA,NA,"",NA,"23"
"",NA,"",NA,"",NA,NA,NA,NA,NA,NA,NA,"","",1,1,"2024-08-24_13h51.38.038","IAT(Formal)","2021.2.3","Win32",59.52380952,"",NA,"",NA,NA,NA,NA,NA,NA,NA,"","","",NA,"e",1,0.6865,NA,NA,NA,NA,NA,"勇敢","e","",NA,0,5,5,17,1,"",NA,"",NA,NA,NA,NA,NA,NA,NA,"",NA,"",NA,NA,NA,NA,NA,NA,NA,"","","",NA,"",NA,NA,NA,NA,NA,NA,NA,"",NA,"23"
"",NA,"",NA,"",NA,NA,NA,NA,NA,NA,NA,"","",1,1,"2024-08-24_13h51.38.038","IAT(Formal)","2021.2.3","Win32",59.52380952,"",NA,"",NA,NA,NA,NA,NA,NA,NA,"","","",NA,"i",1,0.7918,NA,NA,NA,NA,NA,"散漫","i","",NA,0,6,6,41,1,"",NA,"",NA,NA,NA,NA,NA,NA,NA,"",NA,"",NA,NA,NA,NA,NA,NA,NA,"","","",NA,"",NA,NA,NA,NA,NA,NA,NA,"",NA,"23"
"",NA,"",NA,"",NA,NA,NA,NA,NA,NA,NA,"","",1,1,"2024-08-24_13h51.38.038","IAT(Formal)","2021.2.3","Win32",59.52380952,"",NA,"",NA,NA,NA,NA,NA,NA,NA,"","","",NA,"",0,NA,NA,NA,NA,NA,NA,"我","e","",NA,0,7,7,60,1,"",NA,"",NA,NA,NA,NA,NA,NA,NA,"",NA,"",NA,NA,NA,NA,NA,NA,NA,"","","",NA,"",NA,NA,NA,NA,NA,NA,NA,"",NA,"23"
"",NA,"",NA,"",NA,NA,NA,NA,NA,NA,NA,"","",1,1,"2024-08-24_13h51.38.038","IAT(Formal)","2021.2.3","Win32",59.52380952,"",NA,"",NA,NA,NA,NA,NA,NA,NA,"","","",NA,"",0,NA,NA,NA,NA,NA,NA,"我的","e","",NA,0,8,8,51,1,"",NA,"",NA,NA,NA,NA,NA,NA,NA,"",NA,"",NA,NA,NA,NA,NA,NA,NA,"","","",NA,"",NA,NA,NA,NA,NA,NA,NA,"",NA,"23"
"",NA,"",NA,"",NA,NA,NA,NA,NA,NA,NA,"","",1,1,"2024-08-24_13h51.38.038","IAT(Formal)","2021.2.3","Win32",59.52380952,"",NA,"",NA,NA,NA,NA,NA,NA,NA,"","","",NA,"e",1,0.5214,NA,NA,NA,NA,NA,"我的","e","",NA,0,9,9,71,1,"",NA,"",NA,NA,NA,NA,NA,NA,NA,"",NA,"",NA,NA,NA,NA,NA,NA,NA,"","","",NA,"",NA,NA,NA,NA,NA,NA,NA,"",NA,"23"
"",NA,"",NA,"",NA,NA,NA,NA,NA,NA,NA,"","",1,1,"2024-08-24_13h51.38.038","IAT(Formal)","2021.2.3","Win32",59.52380952,"",NA,"",NA,NA,NA,NA,NA,NA,NA,"","","",NA,"i",1,0.5692,NA,NA,NA,NA,NA,"他人","i","",NA,0,10,10,68,1,"",NA,"",NA,NA,NA,NA,NA,NA,NA,"",NA,"",NA,NA,NA,NA,NA,NA,NA,"","","",NA,"",NA,NA,NA,NA,NA,NA,NA,"",NA,"23"
"",NA,"",NA,"",NA,NA,NA,NA,NA,NA,NA,"","",1,1,"2024-08-24_13h51.38.038","IAT(Formal)","2021.2.3","Win32",59.52380952,"",NA,"",NA,NA,NA,NA,NA,NA,NA,"","","",NA,"e",1,0.6386,NA,NA,NA,NA,NA,"俺","e","",NA,0,11,11,74,1,"",NA,"",NA,NA,NA,NA,NA,NA,NA,"",NA,"",NA,NA,NA,NA,NA,NA,NA,"","","",NA,"",NA,NA,NA,NA,NA,NA,NA,"",NA,"23"
"",NA,"",NA,"",NA,NA,NA,NA,NA,NA,NA,"","",1,1,"2024-08-24_13h51.38.038","IAT(Formal)","2021.2.3","Win32",59.52380952,"",NA,"",NA,NA,NA,NA,NA,NA,NA,"","","",NA,"",0,NA,NA,NA,NA,NA,NA,"刻薄","i","",NA,0,12,12,33,1,"",NA,"",NA,NA,NA,NA,NA,NA,NA,"",NA,"",NA,NA,NA,NA,NA,NA,NA,"","","",NA,"",NA,NA,NA,NA,NA,NA,NA,"",NA,"23"
"",NA,"",NA,"",NA,NA,NA,NA,NA,NA,NA,"","",1,1,"2024-08-24_13h51.38.038","IAT(Formal)","2021.2.3","Win32",59.52380952,"",NA,"",NA,NA,NA,NA,NA,NA,NA,"","","",NA,"e",1,0.5659,NA,NA,NA,NA,NA,"认真","e","",NA,0,13,13,20,1,"",NA,"",NA,NA,NA,NA,NA,NA,NA,"",NA,"",NA,NA,NA,NA,NA,NA,NA,"","","",NA,"",NA,NA,NA,NA,NA,NA,NA,"",NA,"23"
"",NA,"",NA,"",NA,NA,NA,NA,NA,NA,NA,"","",1,1,"2024-08-24_13h51.38.038","IAT(Formal)","2021.2.3","Win32",59.52380952,"",NA,"",NA,NA,NA,NA,NA,NA,NA,"","","",NA,"",0,NA,NA,NA,NA,NA,NA,"自己","e","",NA,0,14,14,3,1,"",NA,"",NA,NA,NA,NA,NA,NA,NA,"",NA,"",NA,NA,NA,NA,NA,NA,NA,"","","",NA,"",NA,NA,NA,NA,NA,NA,NA,"",NA,"23"
"",NA,"",NA,"",NA,NA,NA,NA,NA,NA,NA,"","",1,1,"2024-08-24_13h51.38.038","IAT(Formal)","2021.2.3","Win32",59.52380952,"",NA,"",NA,NA,NA,NA,NA,NA,NA,"","","",NA,"",0,NA,NA,NA,NA,NA,NA,"虚伪","i","",NA,0,15,15,31,1,"",NA,"",NA,NA,NA,NA,NA,NA,NA,"",NA,"",NA,NA,NA,NA,NA,NA,NA,"","","",NA,"",NA,NA,NA,NA,NA,NA,NA,"",NA,"23"
"",NA,"",NA,"",NA,NA,NA,NA,NA,NA,NA,"","",1,1,"2024-08-24_13h51.38.038","IAT(Formal)","2021.2.3","Win32",59.52380952,"",NA,"",NA,NA,NA,NA,NA,NA,NA,"","","",NA,"e",1,0.5091,NA,NA,NA,NA,NA,"自己","e","",NA,0,16,16,53,1,"",NA,"",NA,NA,NA,NA,NA,NA,NA,"",NA,"",NA,NA,NA,NA,NA,NA,NA,"","","",NA,"",NA,NA,NA,NA,NA,NA,NA,"",NA,"23"
"",NA,"",NA,"",NA,NA,NA,NA,NA,NA,NA,"","",1,1,"2024-08-24_13h51.38.038","IAT(Formal)","2021.2.3","Win32",59.52380952,"",NA,"",NA,NA,NA,NA,NA,NA,NA,"","","",NA,"",0,NA,NA,NA,NA,NA,NA,"无私","e","",NA,0,17,17,22,1,"",NA,"",NA,NA,NA,NA,NA,NA,NA,"",NA,"",NA,NA,NA,NA,NA,NA,NA,"","","",NA,"",NA,NA,NA,NA,NA,NA,NA,"",NA,"23"
"",NA,"",NA,"",NA,NA,NA,NA,NA,NA,NA,"","",1,1,"2024-08-24_13h51.38.038","IAT(Formal)","2021.2.3","Win32",59.52380952,"",NA,"",NA,NA,NA,NA,NA,NA,NA,"","","",NA,"",0,NA,NA,NA,NA,NA,NA,"自己","e","",NA,0,18,18,73,1,"",NA,"",NA,NA,NA,NA,NA,NA,NA,"",NA,"",NA,NA,NA,NA,NA,NA,NA,"","","",NA,"",NA,NA,NA,NA,NA,NA,NA,"",NA,"23"
"",NA,"",NA,"",NA,NA,NA,NA,NA,NA,NA,"","",1,1,"2024-08-24_13h51.38.038","IAT(Formal)","2021.2.3","Win32",59.52380952,"",NA,"",NA,NA,NA,NA,NA,NA,NA,"","","",NA,"i",1,0.5316,NA,NA,NA,NA,NA,"他人","i","",NA,0,19,19,78,1,"",NA,"",NA,NA,NA,NA,NA,NA,NA,"",NA,"",NA,NA,NA,NA,NA,NA,NA,"","","",NA,"",NA,NA,NA,NA,NA,NA,NA,"",NA,"23"
"",NA,"",NA,"",NA,NA,NA,NA,NA,NA,NA,"","",1,1,"2024-08-24_13h51.38.038","IAT(Formal)","2021.2.3","Win32",59.52380952,"",NA,"",NA,NA,NA,NA,NA,NA,NA,"","","",NA,"i",1,0.5116,NA,NA,NA,NA,NA,"傲慢","i","",NA,0,20,20,37,1,"",NA,"",NA,NA,NA,NA,NA,NA,NA,"",NA,"",NA,NA,NA,NA,NA,NA,NA,"","","",NA,"",NA,NA,NA,NA,NA,NA,NA,"",NA,"23"
"",NA,"",NA,"",NA,NA,NA,NA,NA,NA,NA,"","",1,1,"2024-08-24_13h51.38.038","IAT(Formal)","2021.2.3","Win32",59.52380952,"",NA,"",NA,NA,NA,NA,NA,NA,NA,"","","",NA,"e",1,0.4677,NA,NA,NA,NA,NA,"我们","e","",NA,0,21,21,2,1,"",NA,"",NA,NA,NA,NA,NA,NA,NA,"",NA,"",NA,NA,NA,NA,NA,NA,NA,"","","",NA,"",NA,NA,NA,NA,NA,NA,NA,"",NA,"23"
"",NA,"",NA,"",NA,NA,NA,NA,NA,NA,NA,"","",1,1,"2024-08-24_13h51.38.038","IAT(Formal)","2021.2.3","Win32",59.52380952,"",NA,"",NA,NA,NA,NA,NA,NA,NA,"","","",NA,"i",1,0.9124,NA,NA,NA,NA,NA,"自私","i","",NA,0,22,22,43,1,"",NA,"",NA,NA,NA,NA,NA,NA,NA,"",NA,"",NA,NA,NA,NA,NA,NA,NA,"","","",NA,"",NA,NA,NA,NA,NA,NA,NA,"",NA,"23"
"",NA,"",NA,"",NA,NA,NA,NA,NA,NA,NA,"","",1,1,"2024-08-24_13h51.38.038","IAT(Formal)","2021.2.3","Win32",59.52380952,"",NA,"",NA,NA,NA,NA,NA,NA,NA,"","","",NA,"i",1,0.838,NA,NA,NA,NA,NA,"下贱","i","",NA,0,23,23,49,1,"",NA,"",NA,NA,NA,NA,NA,NA,NA,"",NA,"",NA,NA,NA,NA,NA,NA,NA,"","","",NA,"",NA,NA,NA,NA,NA,NA,NA,"",NA,"23"
"",NA,"",NA,"",NA,NA,NA,NA,NA,NA,NA,"","",1,1,"2024-08-24_13h51.38.038","IAT(Formal)","2021.2.3","Win32",59.52380952,"",NA,"",NA,NA,NA,NA,NA,NA,NA,"","","",NA,"",0,NA,NA,NA,NA,NA,NA,"他","i","",NA,0,24,24,55,1,"",NA,"",NA,NA,NA,NA,NA,NA,NA,"",NA,"",NA,NA,NA,NA,NA,NA,NA,"","","",NA,"",NA,NA,NA,NA,NA,NA,NA,"",NA,"23"
"",NA,"",NA,"",NA,NA,NA,NA,NA,NA,NA,"","",1,1,"2024-08-24_13h51.38.038","IAT(Formal)","2021.2.3","Win32",59.52380952,"",NA,"",NA,NA,NA,NA,NA,NA,NA,"","","",NA,"",0,NA,NA,NA,NA,NA,NA,"俺","e","",NA,0,25,25,64,1,"",NA,"",NA,NA,NA,NA,NA,NA,NA,"",NA,"",NA,NA,NA,NA,NA,NA,NA,"","","",NA,"",NA,NA,NA,NA,NA,NA,NA,"",NA,"23"
"",NA,"",NA,"",NA,NA,NA,NA,NA,NA,NA,"","",1,1,"2024-08-24_13h51.38.038","IAT(Formal)","2021.2.3","Win32",59.52380952,"",NA,"",NA,NA,NA,NA,NA,NA,NA,"","","",NA,"e",1,0.5308,NA,NA,NA,NA,NA,"勤奋","e","",NA,0,26,26,18,1,"",NA,"",NA,NA,NA,NA,NA,NA,NA,"",NA,"",NA,NA,NA,NA,NA,NA,NA,"","","",NA,"",NA,NA,NA,NA,NA,NA,NA,"",NA,"23"
"",NA,"",NA,"",NA,NA,NA,NA,NA,NA,NA,"","",1,1,"2024-08-24_13h51.38.038","IAT(Formal)","2021.2.3","Win32",59.52380952,"",NA,"",NA,NA,NA,NA,NA,NA,NA,"","","",NA,"e",1,0.4955,NA,NA,NA,NA,NA,"自己","e","",NA,0,27,27,63,1,"",NA,"",NA,NA,NA,NA,NA,NA,NA,"",NA,"",NA,NA,NA,NA,NA,NA,NA,"","","",NA,"",NA,NA,NA,NA,NA,NA,NA,"",NA,"23"
"",NA,"",NA,"",NA,NA,NA,NA,NA,NA,NA,"","",1,1,"2024-08-24_13h51.38.038","IAT(Formal)","2021.2.3","Win32",59.52380952,"",NA,"",NA,NA,NA,NA,NA,NA,NA,"","","",NA,"e",1,0.7558,NA,NA,NA,NA,NA,"细腻","e","",NA,0,28,28,25,1,"",NA,"",NA,NA,NA,NA,NA,NA,NA,"",NA,"",NA,NA,NA,NA,NA,NA,NA,"","","",NA,"",NA,NA,NA,NA,NA,NA,NA,"",NA,"23"
"",NA,"",NA,"",NA,NA,NA,NA,NA,NA,NA,"","",1,1,"2024-08-24_13h51.38.038","IAT(Formal)","2021.2.3","Win32",59.52380952,"",NA,"",NA,NA,NA,NA,NA,NA,NA,"","","",NA,"",0,NA,NA,NA,NA,NA,NA,"机智","e","",NA,0,29,29,19,1,"",NA,"",NA,NA,NA,NA,NA,NA,NA,"",NA,"",NA,NA,NA,NA,NA,NA,NA,"","","",NA,"",NA,NA,NA,NA,NA,NA,NA,"",NA,"23"
"",NA,"",NA,"",NA,NA,NA,NA,NA,NA,NA,"","",1,1,"2024-08-24_13h51.38.038","IAT(Formal)","2021.2.3","Win32",59.52380952,"",NA,"",NA,NA,NA,NA,NA,NA,NA,"","","",NA,"e",0,0.6079,NA,NA,NA,NA,NA,"他的","i","",NA,0,30,30,7,1,"",NA,"",NA,NA,NA,NA,NA,NA,NA,"",NA,"",NA,NA,NA,NA,NA,NA,NA,"","","",NA,"",NA,NA,NA,NA,NA,NA,NA,"",NA,"23"
"",NA,"",NA,"",NA,NA,NA,NA,NA,NA,NA,"","",1,1,"2024-08-24_13h51.38.038","IAT(Formal)","2021.2.3","Win32",59.52380952,"",NA,"",NA,NA,NA,NA,NA,NA,NA,"","","",NA,"e",1,0.5026,NA,NA,NA,NA,NA,"俺","e","",NA,0,31,31,4,1,"",NA,"",NA,NA,NA,NA,NA,NA,NA,"",NA,"",NA,NA,NA,NA,NA,NA,NA,"","","",NA,"",NA,NA,NA,NA,NA,NA,NA,"",NA,"23"
"",NA,"",NA,"",NA,NA,NA,NA,NA,NA,NA,"","",1,1,"2024-08-24_13h51.38.038","IAT(Formal)","2021.2.3","Win32",59.52380952,"",NA,"",NA,NA,NA,NA,NA,NA,NA,"","","",NA,"e",1,0.7132,NA,NA,NA,NA,NA,"我们","e","",NA,0,32,32,52,1,"",NA,"",NA,NA,NA,NA,NA,NA,NA,"",NA,"",NA,NA,NA,NA,NA,NA,NA,"","","",NA,"",NA,NA,NA,NA,NA,NA,NA,"",NA,"23"
"",NA,"",NA,"",NA,NA,NA,NA,NA,NA,NA,"","",1,1,"2024-08-24_13h51.38.038","IAT(Formal)","2021.2.3","Win32",59.52380952,"",NA,"",NA,NA,NA,NA,NA,NA,NA,"","","",NA,"i",1,1.156,NA,NA,NA,NA,NA,"其他","i","",NA,0,33,33,9,1,"",NA,"",NA,NA,NA,NA,NA,NA,NA,"",NA,"",NA,NA,NA,NA,NA,NA,NA,"","","",NA,"",NA,NA,NA,NA,NA,NA,NA,"",NA,"23"
"",NA,"",NA,"",NA,NA,NA,NA,NA,NA,NA,"","",1,1,"2024-08-24_13h51.38.038","IAT(Formal)","2021.2.3","Win32",59.52380952,"",NA,"",NA,NA,NA,NA,NA,NA,NA,"","","",NA,"i",1,0.7915,NA,NA,NA,NA,NA,"他","i","",NA,0,34,34,5,1,"",NA,"",NA,NA,NA,NA,NA,NA,NA,"",NA,"",NA,NA,NA,NA,NA,NA,NA,"","","",NA,"",NA,NA,NA,NA,NA,NA,NA,"",NA,"23"
"",NA,"",NA,"",NA,NA,NA,NA,NA,NA,NA,"","",1,1,"2024-08-24_13h51.38.038","IAT(Formal)","2021.2.3","Win32",59.52380952,"",NA,"",NA,NA,NA,NA,NA,NA,NA,"","","",NA,"e",1,0.9371,NA,NA,NA,NA,NA,"热情","e","",NA,0,35,35,27,1,"",NA,"",NA,NA,NA,NA,NA,NA,NA,"",NA,"",NA,NA,NA,NA,NA,NA,NA,"","","",NA,"",NA,NA,NA,NA,NA,NA,NA,"",NA,"23"
"",NA,"",NA,"",NA,NA,NA,NA,NA,NA,NA,"","",1,1,"2024-08-24_13h51.38.038","IAT(Formal)","2021.2.3","Win32",59.52380952,"",NA,"",NA,NA,NA,NA,NA,NA,NA,"","","",NA,"",0,NA,NA,NA,NA,NA,NA,"正直","e","",NA,0,36,36,16,1,"",NA,"",NA,NA,NA,NA,NA,NA,NA,"",NA,"",NA,NA,NA,NA,NA,NA,NA,"","","",NA,"",NA,NA,NA,NA,NA,NA,NA,"",NA,"23"
"",NA,"",NA,"",NA,NA,NA,NA,NA,NA,NA,"","",1,1,"2024-08-24_13h51.38.038","IAT(Formal)","2021.2.3","Win32",59.52380952,"",NA,"",NA,NA,NA,NA,NA,NA,NA,"","","",NA,"i",1,0.6165,NA,NA,NA,NA,NA,"他人","i","",NA,0,37,37,8,1,"",NA,"",NA,NA,NA,NA,NA,NA,NA,"",NA,"",NA,NA,NA,NA,NA,NA,NA,"","","",NA,"",NA,NA,NA,NA,NA,NA,NA,"",NA,"23"
"",NA,"",NA,"",NA,NA,NA,NA,NA,NA,NA,"","",1,1,"2024-08-24_13h51.38.038","IAT(Formal)","2021.2.3","Win32",59.52380952,"",NA,"",NA,NA,NA,NA,NA,NA,NA,"","","",NA,"e",1,0.59,NA,NA,NA,NA,NA,"优秀","e","",NA,0,38,38,10,1,"",NA,"",NA,NA,NA,NA,NA,NA,NA,"",NA,"",NA,NA,NA,NA,NA,NA,NA,"","","",NA,"",NA,NA,NA,NA,NA,NA,NA,"",NA,"23"
"",NA,"",NA,"",NA,NA,NA,NA,NA,NA,NA,"","",1,1,"2024-08-24_13h51.38.038","IAT(Formal)","2021.2.3","Win32",59.52380952,"",NA,"",NA,NA,NA,NA,NA,NA,NA,"","","",NA,"",0,NA,NA,NA,NA,NA,NA,"他的","i","",NA,0,39,39,77,1,"",NA,"",NA,NA,NA,NA,NA,NA,NA,"",NA,"",NA,NA,NA,NA,NA,NA,NA,"","","",NA,"",NA,NA,NA,NA,NA,NA,NA,"",NA,"23"
"",NA,"",NA,"",NA,NA,NA,NA,NA,NA,NA,"","",1,1,"2024-08-24_13h51.38.038","IAT(Formal)","2021.2.3","Win32",59.52380952,"",NA,"",NA,NA,NA,NA,NA,NA,NA,"","","",NA,"",0,NA,NA,NA,NA,NA,NA,"我的","e","",NA,0,40,40,61,1,"",NA,"",NA,NA,NA,NA,NA,NA,NA,"",NA,"",NA,NA,NA,NA,NA,NA,NA,"","","",NA,"",NA,NA,NA,NA,NA,NA,NA,"",NA,"23"
"",NA,"",NA,"",NA,NA,NA,NA,NA,NA,NA,"","",1,1,"2024-08-24_13h51.38.038","IAT(Formal)","2021.2.3","Win32",59.52380952,"",NA,"",NA,NA,NA,NA,NA,NA,NA,"","","",NA,"e",1,1.3406,NA,NA,NA,NA,NA,"公正","e","",NA,0,41,41,23,1,"",NA,"",NA,NA,NA,NA,NA,NA,NA,"",NA,"",NA,NA,NA,NA,NA,NA,NA,"","","",NA,"",NA,NA,NA,NA,NA,NA,NA,"",NA,"23"
"",NA,"",NA,"",NA,NA,NA,NA,NA,NA,NA,"","",1,1,"2024-08-24_13h51.38.038","IAT(Formal)","2021.2.3","Win32",59.52380952,"",NA,"",NA,NA,NA,NA,NA,NA,NA,"","","",NA,"i",1,0.6334,NA,NA,NA,NA,NA,"他的","i","",NA,0,42,42,57,1,"",NA,"",NA,NA,NA,NA,NA,NA,NA,"",NA,"",NA,NA,NA,NA,NA,NA,NA,"","","",NA,"",NA,NA,NA,NA,NA,NA,NA,"",NA,"23"
"",NA,"",NA,"",NA,NA,NA,NA,NA,NA,NA,"","",1,1,"2024-08-24_13h51.38.038","IAT(Formal)","2021.2.3","Win32",59.52380952,"",NA,"",NA,NA,NA,NA,NA,NA,NA,"","","",NA,"",0,NA,NA,NA,NA,NA,NA,"诚实","e","",NA,0,43,43,15,1,"",NA,"",NA,NA,NA,NA,NA,NA,NA,"",NA,"",NA,NA,NA,NA,NA,NA,NA,"","","",NA,"",NA,NA,NA,NA,NA,NA,NA,"",NA,"23"
"",NA,"",NA,"",NA,NA,NA,NA,NA,NA,NA,"","",1,1,"2024-08-24_13h51.38.038","IAT(Formal)","2021.2.3","Win32",59.52380952,"",NA,"",NA,NA,NA,NA,NA,NA,NA,"","","",NA,"e",1,0.5948,NA,NA,NA,NA,NA,"崇高","e","",NA,0,44,44,11,1,"",NA,"",NA,NA,NA,NA,NA,NA,NA,"",NA,"",NA,NA,NA,NA,NA,NA,NA,"","","",NA,"",NA,NA,NA,NA,NA,NA,NA,"",NA,"23"
"",NA,"",NA,"",NA,NA,NA,NA,NA,NA,NA,"","",1,1,"2024-08-24_13h51.38.038","IAT(Formal)","2021.2.3","Win32",59.52380952,"",NA,"",NA,NA,NA,NA,NA,NA,NA,"","","",NA,"e",1,0.8738,NA,NA,NA,NA,NA,"杰出","e","",NA,0,45,45,13,1,"",NA,"",NA,NA,NA,NA,NA,NA,NA,"",NA,"",NA,NA,NA,NA,NA,NA,NA,"","","",NA,"",NA,NA,NA,NA,NA,NA,NA,"",NA,"23"
"",NA,"",NA,"",NA,NA,NA,NA,NA,NA,NA,"","",1,1,"2024-08-24_13h51.38.038","IAT(Formal)","2021.2.3","Win32",59.52380952,"",NA,"",NA,NA,NA,NA,NA,NA,NA,"","","",NA,"",0,NA,NA,NA,NA,NA,NA,"我的","e","",NA,0,46,46,1,1,"",NA,"",NA,NA,NA,NA,NA,NA,NA,"",NA,"",NA,NA,NA,NA,NA,NA,NA,"","","",NA,"",NA,NA,NA,NA,NA,NA,NA,"",NA,"23"
"",NA,"",NA,"",NA,NA,NA,NA,NA,NA,NA,"","",1,1,"2024-08-24_13h51.38.038","IAT(Formal)","2021.2.3","Win32",59.52380952,"",NA,"",NA,NA,NA,NA,NA,NA,NA,"","","",NA,"",0,NA,NA,NA,NA,NA,NA,"其他","i","",NA,0,47,47,79,1,"",NA,"",NA,NA,NA,NA,NA,NA,NA,"",NA,"",NA,NA,NA,NA,NA,NA,NA,"","","",NA,"",NA,NA,NA,NA,NA,NA,NA,"",NA,"23"
"",NA,"",NA,"",NA,NA,NA,NA,NA,NA,NA,"","",1,1,"2024-08-24_13h51.38.038","IAT(Formal)","2021.2.3","Win32",59.52380952,"",NA,"",NA,NA,NA,NA,NA,NA,NA,"","","",NA,"i",1,0.653,NA,NA,NA,NA,NA,"自卑","i","",NA,0,48,48,36,1,"",NA,"",NA,NA,NA,NA,NA,NA,NA,"",NA,"",NA,NA,NA,NA,NA,NA,NA,"","","",NA,"",NA,NA,NA,NA,NA,NA,NA,"",NA,"23"
"",NA,"",NA,"",NA,NA,NA,NA,NA,NA,NA,"","",1,1,"2024-08-24_13h51.38.038","IAT(Formal)","2021.2.3","Win32",59.52380952,"",NA,"",NA,NA,NA,NA,NA,NA,NA,"","","",NA,"e",1,0.5036,NA,NA,NA,NA,NA,"我们","e","",NA,0,49,49,62,1,"",NA,"",NA,NA,NA,NA,NA,NA,NA,"",NA,"",NA,NA,NA,NA,NA,NA,NA,"","","",NA,"",NA,NA,NA,NA,NA,NA,NA,"",NA,"23"
"",NA,"",NA,"",NA,NA,NA,NA,NA,NA,NA,"","",1,1,"2024-08-24_13h51.38.038","IAT(Formal)","2021.2.3","Win32",59.52380952,"",NA,"",NA,NA,NA,NA,NA,NA,NA,"","","",NA,"i",1,0.561,NA,NA,NA,NA,NA,"他们","i","",NA,0,50,50,76,1,"",NA,"",NA,NA,NA,NA,NA,NA,NA,"",NA,"",NA,NA,NA,NA,NA,NA,NA,"","","",NA,"",NA,NA,NA,NA,NA,NA,NA,"",NA,"23"
"",NA,"",NA,"",NA,NA,NA,NA,NA,NA,NA,"","",1,1,"2024-08-24_13h51.38.038","IAT(Formal)","2021.2.3","Win32",59.52380952,"",NA,"",NA,NA,NA,NA,NA,NA,NA,"","","",NA,"i",1,0.5667,NA,NA,NA,NA,NA,"凶狠","i","",NA,0,51,51,42,1,"",NA,"",NA,NA,NA,NA,NA,NA,NA,"",NA,"",NA,NA,NA,NA,NA,NA,NA,"","","",NA,"",NA,NA,NA,NA,NA,NA,NA,"",NA,"23"
"",NA,"",NA,"",NA,NA,NA,NA,NA,NA,NA,"","",1,1,"2024-08-24_13h51.38.038","IAT(Formal)","2021.2.3","Win32",59.52380952,"",NA,"",NA,NA,NA,NA,NA,NA,NA,"","","",NA,"i",1,0.9207,NA,NA,NA,NA,NA,"猖狂","i","",NA,0,52,52,45,1,"",NA,"",NA,NA,NA,NA,NA,NA,NA,"",NA,"",NA,NA,NA,NA,NA,NA,NA,"","","",NA,"",NA,NA,NA,NA,NA,NA,NA,"",NA,"23"
"",NA,"",NA,"",NA,NA,NA,NA,NA,NA,NA,"","",1,1,"2024-08-24_13h51.38.038","IAT(Formal)","2021.2.3","Win32",59.52380952,"",NA,"",NA,NA,NA,NA,NA,NA,NA,"","","",NA,"",0,NA,NA,NA,NA,NA,NA,"冷静","e","",NA,0,53,53,26,1,"",NA,"",NA,NA,NA,NA,NA,NA,NA,"",NA,"",NA,NA,NA,NA,NA,NA,NA,"","","",NA,"",NA,NA,NA,NA,NA,NA,NA,"",NA,"23"
"",NA,"",NA,"",NA,NA,NA,NA,NA,NA,NA,"","",1,1,"2024-08-24_13h51.38.038","IAT(Formal)","2021.2.3","Win32",59.52380952,"",NA,"",NA,NA,NA,NA,NA,NA,NA,"","","",NA,"i",1,0.6091,NA,NA,NA,NA,NA,"他们","i","",NA,0,54,54,6,1,"",NA,"",NA,NA,NA,NA,NA,NA,NA,"",NA,"",NA,NA,NA,NA,NA,NA,NA,"","","",NA,"",NA,NA,NA,NA,NA,NA,NA,"",NA,"23"
"",NA,"",NA,"",NA,NA,NA,NA,NA,NA,NA,"","",1,1,"2024-08-24_13h51.38.038","IAT(Formal)","2021.2.3","Win32",59.52380952,"",NA,"",NA,NA,NA,NA,NA,NA,NA,"","","",NA,"e",1,0.8176,NA,NA,NA,NA,NA,"我们","e","",NA,0,55,55,72,1,"",NA,"",NA,NA,NA,NA,NA,NA,NA,"",NA,"",NA,NA,NA,NA,NA,NA,NA,"","","",NA,"",NA,NA,NA,NA,NA,NA,NA,"",NA,"23"
"",NA,"",NA,"",NA,NA,NA,NA,NA,NA,NA,"","",1,1,"2024-08-24_13h51.38.038","IAT(Formal)","2021.2.3","Win32",59.52380952,"",NA,"",NA,NA,NA,NA,NA,NA,NA,"","","",NA,"",0,NA,NA,NA,NA,NA,NA,"固执","i","",NA,0,56,56,47,1,"",NA,"",NA,NA,NA,NA,NA,NA,NA,"",NA,"",NA,NA,NA,NA,NA,NA,NA,"","","",NA,"",NA,NA,NA,NA,NA,NA,NA,"",NA,"23"
"",NA,"",NA,"",NA,NA,NA,NA,NA,NA,NA,"","",1,1,"2024-08-24_13h51.38.038","IAT(Formal)","2021.2.3","Win32",59.52380952,"",NA,"",NA,NA,NA,NA,NA,NA,NA,"","","",NA,"",0,NA,NA,NA,NA,NA,NA,"卑鄙","i","",NA,0,57,57,30,1,"",NA,"",NA,NA,NA,NA,NA,NA,NA,"",NA,"",NA,NA,NA,NA,NA,NA,NA,"","","",NA,"",NA,NA,NA,NA,NA,NA,NA,"",NA,"23"
"",NA,"",NA,"",NA,NA,NA,NA,NA,NA,NA,"","",1,1,"2024-08-24_13h51.38.038","IAT(Formal)","2021.2.3","Win32",59.52380952,"",NA,"",NA,NA,NA,NA,NA,NA,NA,"","","",NA,"e",1,0.494,NA,NA,NA,NA,NA,"我","e","",NA,0,58,58,70,1,"",NA,"",NA,NA,NA,NA,NA,NA,NA,"",NA,"",NA,NA,NA,NA,NA,NA,NA,"","","",NA,"",NA,NA,NA,NA,NA,NA,NA,"",NA,"23"
"",NA,"",NA,"",NA,NA,NA,NA,NA,NA,NA,"","",1,1,"2024-08-24_13h51.38.038","IAT(Formal)","2021.2.3","Win32",59.52380952,"",NA,"",NA,NA,NA,NA,NA,NA,NA,"","","",NA,"i",1,0.9948,NA,NA,NA,NA,NA,"执拗","i","",NA,0,59,59,40,1,"",NA,"",NA,NA,NA,NA,NA,NA,NA,"",NA,"",NA,NA,NA,NA,NA,NA,NA,"","","",NA,"",NA,NA,NA,NA,NA,NA,NA,"",NA,"23"
"",NA,"",NA,"",NA,NA,NA,NA,NA,NA,NA,"","",1,1,"2024-08-24_13h51.38.038","IAT(Formal)","2021.2.3","Win32",59.52380952,"",NA,"",NA,NA,NA,NA,NA,NA,NA,"","","",NA,"i",1,0.8719,NA,NA,NA,NA,NA,"其他","i","",NA,0,60,60,69,1,"",NA,"",NA,NA,NA,NA,NA,NA,NA,"",NA,"",NA,NA,NA,NA,NA,NA,NA,"","","",NA,"",NA,NA,NA,NA,NA,NA,NA,"",NA,"23"
"",NA,"",NA,"",NA,NA,NA,NA,NA,NA,NA,"","",1,1,"2024-08-24_13h51.38.038","IAT(Formal)","2021.2.3","Win32",59.52380952,"",NA,"",NA,NA,NA,NA,NA,NA,NA,"","","",NA,"",0,NA,NA,NA,NA,NA,NA,"轻率","i","",NA,0,61,61,48,1,"",NA,"",NA,NA,NA,NA,NA,NA,NA,"",NA,"",NA,NA,NA,NA,NA,NA,NA,"","","",NA,"",NA,NA,NA,NA,NA,NA,NA,"",NA,"23"
"",NA,"",NA,"",NA,NA,NA,NA,NA,NA,NA,"","",1,1,"2024-08-24_13h51.38.038","IAT(Formal)","2021.2.3","Win32",59.52380952,"",NA,"",NA,NA,NA,NA,NA,NA,NA,"","","",NA,"i",1,0.6601,NA,NA,NA,NA,NA,"鲁莽","i","",NA,0,62,62,38,1,"",NA,"",NA,NA,NA,NA,NA,NA,NA,"",NA,"",NA,NA,NA,NA,NA,NA,NA,"","","",NA,"",NA,NA,NA,NA,NA,NA,NA,"",NA,"23"
"",NA,"",NA,"",NA,NA,NA,NA,NA,NA,NA,"","",1,1,"2024-08-24_13h51.38.038","IAT(Formal)","2021.2.3","Win32",59.52380952,"",NA,"",NA,NA,NA,NA,NA,NA,NA,"","","",NA,"e",1,1.1449,NA,NA,NA,NA,NA,"我","e","",NA,0,63,63,0,1,"",NA,"",NA,NA,NA,NA,NA,NA,NA,"",NA,"",NA,NA,NA,NA,NA,NA,NA,"","","",NA,"",NA,NA,NA,NA,NA,NA,NA,"",NA,"23"
"",NA,"",NA,"",NA,NA,NA,NA,NA,NA,NA,"","",1,1,"2024-08-24_13h51.38.038","IAT(Formal)","2021.2.3","Win32",59.52380952,"",NA,"",NA,NA,NA,NA,NA,NA,NA,"","","",NA,"",0,NA,NA,NA,NA,NA,NA,"他们","i","",NA,0,64,64,66,1,"",NA,"",NA,NA,NA,NA,NA,NA,NA,"",NA,"",NA,NA,NA,NA,NA,NA,NA,"","","",NA,"",NA,NA,NA,NA,NA,NA,NA,"",NA,"23"
"",NA,"",NA,"",NA,NA,NA,NA,NA,NA,NA,"","",1,1,"2024-08-24_13h51.38.038","IAT(Formal)","2021.2.3","Win32",59.52380952,"",NA,"",NA,NA,NA,NA,NA,NA,NA,"","","",NA,"",0,NA,NA,NA,NA,NA,NA,"消极","i","",NA,0,65,65,35,1,"",NA,"",NA,NA,NA,NA,NA,NA,NA,"",NA,"",NA,NA,NA,NA,NA,NA,NA,"","","",NA,"",NA,NA,NA,NA,NA,NA,NA,"",NA,"23"
"",NA,"",NA,"",NA,NA,NA,NA,NA,NA,NA,"","",1,1,"2024-08-24_13h51.38.038","IAT(Formal)","2021.2.3","Win32",59.52380952,"",NA,"",NA,NA,NA,NA,NA,NA,NA,"","","",NA,"i",1,0.8674,NA,NA,NA,NA,NA,"暴躁","i","",NA,0,66,66,44,1,"",NA,"",NA,NA,NA,NA,NA,NA,NA,"",NA,"",NA,NA,NA,NA,NA,NA,NA,"","","",NA,"",NA,NA,NA,NA,NA,NA,NA,"",NA,"23"
"",NA,"",NA,"",NA,NA,NA,NA,NA,NA,NA,"","",1,1,"2024-08-24_13h51.38.038","IAT(Formal)","2021.2.3","Win32",59.52380952,"",NA,"",NA,NA,NA,NA,NA,NA,NA,"","","",NA,"e",0,0.7083,NA,NA,NA,NA,NA,"愚蠢","i","",NA,0,67,67,32,1,"",NA,"",NA,NA,NA,NA,NA,NA,NA,"",NA,"",NA,NA,NA,NA,NA,NA,NA,"","","",NA,"",NA,NA,NA,NA,NA,NA,NA,"",NA,"23"
"",NA,"",NA,"",NA,NA,NA,NA,NA,NA,NA,"","",1,1,"2024-08-24_13h51.38.038","IAT(Formal)","2021.2.3","Win32",59.52380952,"",NA,"",NA,NA,NA,NA,NA,NA,NA,"","","",NA,"i",1,0.598,NA,NA,NA,NA,NA,"他","i","",NA,0,68,68,75,1,"",NA,"",NA,NA,NA,NA,NA,NA,NA,"",NA,"",NA,NA,NA,NA,NA,NA,NA,"","","",NA,"",NA,NA,NA,NA,NA,NA,NA,"",NA,"23"
"",NA,"",NA,"",NA,NA,NA,NA,NA,NA,NA,"","",1,1,"2024-08-24_13h51.38.038","IAT(Formal)","2021.2.3","Win32",59.52380952,"",NA,"",NA,NA,NA,NA,NA,NA,NA,"","","",NA,"i",1,0.493,NA,NA,NA,NA,NA,"野蛮","i","",NA,0,69,69,46,1,"",NA,"",NA,NA,NA,NA,NA,NA,NA,"",NA,"",NA,NA,NA,NA,NA,NA,NA,"","","",NA,"",NA,NA,NA,NA,NA,NA,NA,"",NA,"23"
"",NA,"",NA,"",NA,NA,NA,NA,NA,NA,NA,"","",1,1,"2024-08-24_13h51.38.038","IAT(Formal)","2021.2.3","Win32",59.52380952,"",NA,"",NA,NA,NA,NA,NA,NA,NA,"","","",NA,"e",1,1.104,NA,NA,NA,NA,NA,"活泼","e","",NA,0,70,70,28,1,"",NA,"",NA,NA,NA,NA,NA,NA,NA,"",NA,"",NA,NA,NA,NA,NA,NA,NA,"","","",NA,"",NA,NA,NA,NA,NA,NA,NA,"",NA,"23"
"",NA,"",NA,"",NA,NA,NA,NA,NA,NA,NA,"","",1,1,"2024-08-24_13h51.38.038","IAT(Formal)","2021.2.3","Win32",59.52380952,"",NA,"",NA,NA,NA,NA,NA,NA,NA,"","","",NA,"",0,NA,NA,NA,NA,NA,NA,"冒失","i","",NA,0,71,71,39,1,"",NA,"",NA,NA,NA,NA,NA,NA,NA,"",NA,"",NA,NA,NA,NA,NA,NA,NA,"","","",NA,"",NA,NA,NA,NA,NA,NA,NA,"",NA,"23"
"",NA,"",NA,"",NA,NA,NA,NA,NA,NA,NA,"","",1,1,"2024-08-24_13h51.38.038","IAT(Formal)","2021.2.3","Win32",59.52380952,"",NA,"",NA,NA,NA,NA,NA,NA,NA,"","","",NA,"e",1,1.0207,NA,NA,NA,NA,NA,"我","e","",NA,0,72,72,50,1,"",NA,"",NA,NA,NA,NA,NA,NA,NA,"",NA,"",NA,NA,NA,NA,NA,NA,NA,"","","",NA,"",NA,NA,NA,NA,NA,NA,NA,"",NA,"23"
"",NA,"",NA,"",NA,NA,NA,NA,NA,NA,NA,"","",1,1,"2024-08-24_13h51.38.038","IAT(Formal)","2021.2.3","Win32",59.52380952,"",NA,"",NA,NA,NA,NA,NA,NA,NA,"","","",NA,"",0,NA,NA,NA,NA,NA,NA,"稳重","e","",NA,0,73,73,21,1,"",NA,"",NA,NA,NA,NA,NA,NA,NA,"",NA,"",NA,NA,NA,NA,NA,NA,NA,"","","",NA,"",NA,NA,NA,NA,NA,NA,NA,"",NA,"23"
"",NA,"",NA,"",NA,NA,NA,NA,NA,NA,NA,"","",1,1,"2024-08-24_13h51.38.038","IAT(Formal)","2021.2.3","Win32",59.52380952,"",NA,"",NA,NA,NA,NA,NA,NA,NA,"","","",NA,"",0,NA,NA,NA,NA,NA,NA,"诚恳","e","",NA,0,74,74,29,1,"",NA,"",NA,NA,NA,NA,NA,NA,NA,"",NA,"",NA,NA,NA,NA,NA,NA,NA,"","","",NA,"",NA,NA,NA,NA,NA,NA,NA,"",NA,"23"
"",NA,"",NA,"",NA,NA,NA,NA,NA,NA,NA,"","",1,1,"2024-08-24_13h51.38.038","IAT(Formal)","2021.2.3","Win32",59.52380952,"",NA,"",NA,NA,NA,NA,NA,NA,NA,"","","",NA,"e",1,0.5768,NA,NA,NA,NA,NA,"俺","e","",NA,0,75,75,54,1,"",NA,"",NA,NA,NA,NA,NA,NA,NA,"",NA,"",NA,NA,NA,NA,NA,NA,NA,"","","",NA,"",NA,NA,NA,NA,NA,NA,NA,"",NA,"23"
"",NA,"",NA,"",NA,NA,NA,NA,NA,NA,NA,"","",1,1,"2024-08-24_13h51.38.038","IAT(Formal)","2021.2.3","Win32",59.52380952,"",NA,"",NA,NA,NA,NA,NA,NA,NA,"","","",NA,"e",1,0.4574,NA,NA,NA,NA,NA,"朴实","e","",NA,0,76,76,24,1,"",NA,"",NA,NA,NA,NA,NA,NA,NA,"",NA,"",NA,NA,NA,NA,NA,NA,NA,"","","",NA,"",NA,NA,NA,NA,NA,NA,NA,"",NA,"23"
"",NA,"",NA,"",NA,NA,NA,NA,NA,NA,NA,"","",1,1,"2024-08-24_13h51.38.038","IAT(Formal)","2021.2.3","Win32",59.52380952,"",NA,"",NA,NA,NA,NA,NA,NA,NA,"","","",NA,"e",0,0.4182,NA,NA,NA,NA,NA,"他的","i","",NA,0,77,77,67,1,"",NA,"",NA,NA,NA,NA,NA,NA,NA,"",NA,"",NA,NA,NA,NA,NA,NA,NA,"","","",NA,"",NA,NA,NA,NA,NA,NA,NA,"",NA,"23"
"",NA,"",NA,"",NA,NA,NA,NA,NA,NA,NA,"","",1,1,"2024-08-24_13h51.38.038","IAT(Formal)","2021.2.3","Win32",59.52380952,"",NA,"",NA,NA,NA,NA,NA,NA,NA,"","","",NA,"i",1,0.7383,NA,NA,NA,NA,NA,"他们","i","",NA,0,78,78,56,1,"",NA,"",NA,NA,NA,NA,NA,NA,NA,"",NA,"",NA,NA,NA,NA,NA,NA,NA,"","","",NA,"",NA,NA,NA,NA,NA,NA,NA,"",NA,"23"
"",NA,"",NA,"",NA,NA,NA,NA,NA,NA,NA,"","",1,1,"2024-08-24_13h51.38.038","IAT(Formal)","2021.2.3","Win32",59.52380952,"",NA,"",NA,NA,NA,NA,NA,NA,NA,"","","",NA,"e",1,0.8411,NA,NA,NA,NA,NA,"乐观","e","",NA,0,79,79,14,1,"",NA,"",NA,NA,NA,NA,NA,NA,NA,"",NA,"",NA,NA,NA,NA,NA,NA,NA,"","","",NA,"",NA,NA,NA,NA,NA,NA,NA,"",NA,"23"
"",NA,"",NA,"",NA,NA,NA,NA,NA,NA,NA,"","",1,1,"2024-08-24_13h51.38.038","IAT(Formal)","2021.2.3","Win32",59.52380952,"",NA,"",NA,NA,NA,NA,NA,NA,NA,"","","",NA,"",0,NA,NA,NA,NA,NA,NA,"他的","i","",NA,1,0,80,67,1,"",NA,"",NA,NA,NA,NA,NA,NA,NA,"",NA,"",NA,NA,NA,NA,NA,NA,NA,"","","",NA,"",NA,NA,NA,NA,NA,NA,NA,"",NA,"23"
"",NA,"",NA,"",NA,NA,NA,NA,NA,NA,NA,"","",1,1,"2024-08-24_13h51.38.038","IAT(Formal)","2021.2.3","Win32",59.52380952,"",NA,"",NA,NA,NA,NA,NA,NA,NA,"","","",NA,"",0,NA,NA,NA,NA,NA,NA,"热情","e","",NA,1,1,81,27,1,"",NA,"",NA,NA,NA,NA,NA,NA,NA,"",NA,"",NA,NA,NA,NA,NA,NA,NA,"","","",NA,"",NA,NA,NA,NA,NA,NA,NA,"",NA,"23"
"",NA,"",NA,"",NA,NA,NA,NA,NA,NA,NA,"","",1,1,"2024-08-24_13h51.38.038","IAT(Formal)","2021.2.3","Win32",59.52380952,"",NA,"",NA,NA,NA,NA,NA,NA,NA,"","","",NA,"e",1,0.4754,NA,NA,NA,NA,NA,"聪明","e","",NA,1,2,82,12,1,"",NA,"",NA,NA,NA,NA,NA,NA,NA,"",NA,"",NA,NA,NA,NA,NA,NA,NA,"","","",NA,"",NA,NA,NA,NA,NA,NA,NA,"",NA,"23"
"",NA,"",NA,"",NA,NA,NA,NA,NA,NA,NA,"","",1,1,"2024-08-24_13h51.38.038","IAT(Formal)","2021.2.3","Win32",59.52380952,"",NA,"",NA,NA,NA,NA,NA,NA,NA,"","","",NA,"e",1,0.563,NA,NA,NA,NA,NA,"正直","e","",NA,1,3,83,16,1,"",NA,"",NA,NA,NA,NA,NA,NA,NA,"",NA,"",NA,NA,NA,NA,NA,NA,NA,"","","",NA,"",NA,NA,NA,NA,NA,NA,NA,"",NA,"23"
"",NA,"",NA,"",NA,NA,NA,NA,NA,NA,NA,"","",1,1,"2024-08-24_13h51.38.038","IAT(Formal)","2021.2.3","Win32",59.52380952,"",NA,"",NA,NA,NA,NA,NA,NA,NA,"","","",NA,"",0,NA,NA,NA,NA,NA,NA,"他人","i","",NA,1,4,84,78,1,"",NA,"",NA,NA,NA,NA,NA,NA,NA,"",NA,"",NA,NA,NA,NA,NA,NA,NA,"","","",NA,"",NA,NA,NA,NA,NA,NA,NA,"",NA,"23"
"",NA,"",NA,"",NA,NA,NA,NA,NA,NA,NA,"","",1,1,"2024-08-24_13h51.38.038","IAT(Formal)","2021.2.3","Win32",59.52380952,"",NA,"",NA,NA,NA,NA,NA,NA,NA,"","","",NA,"e",1,0.6191,NA,NA,NA,NA,NA,"冷静","e","",NA,1,5,85,26,1,"",NA,"",NA,NA,NA,NA,NA,NA,NA,"",NA,"",NA,NA,NA,NA,NA,NA,NA,"","","",NA,"",NA,NA,NA,NA,NA,NA,NA,"",NA,"23"
"",NA,"",NA,"",NA,NA,NA,NA,NA,NA,NA,"","",1,1,"2024-08-24_13h51.38.038","IAT(Formal)","2021.2.3","Win32",59.52380952,"",NA,"",NA,NA,NA,NA,NA,NA,NA,"","","",NA,"i",1,0.7464,NA,NA,NA,NA,NA,"他们","i","",NA,1,6,86,76,1,"",NA,"",NA,NA,NA,NA,NA,NA,NA,"",NA,"",NA,NA,NA,NA,NA,NA,NA,"","","",NA,"",NA,NA,NA,NA,NA,NA,NA,"",NA,"23"
"",NA,"",NA,"",NA,NA,NA,NA,NA,NA,NA,"","",1,1,"2024-08-24_13h51.38.038","IAT(Formal)","2021.2.3","Win32",59.52380952,"",NA,"",NA,NA,NA,NA,NA,NA,NA,"","","",NA,"",0,NA,NA,NA,NA,NA,NA,"下贱","i","",NA,1,7,87,49,1,"",NA,"",NA,NA,NA,NA,NA,NA,NA,"",NA,"",NA,NA,NA,NA,NA,NA,NA,"","","",NA,"",NA,NA,NA,NA,NA,NA,NA,"",NA,"23"
"",NA,"",NA,"",NA,NA,NA,NA,NA,NA,NA,"","",1,1,"2024-08-24_13h51.38.038","IAT(Formal)","2021.2.3","Win32",59.52380952,"",NA,"",NA,NA,NA,NA,NA,NA,NA,"","","",NA,"i",1,0.9304,NA,NA,NA,NA,NA,"他的","i","",NA,1,8,88,57,1,"",NA,"",NA,NA,NA,NA,NA,NA,NA,"",NA,"",NA,NA,NA,NA,NA,NA,NA,"","","",NA,"",NA,NA,NA,NA,NA,NA,NA,"",NA,"23"
"",NA,"",NA,"",NA,NA,NA,NA,NA,NA,NA,"","",1,1,"2024-08-24_13h51.38.038","IAT(Formal)","2021.2.3","Win32",59.52380952,"",NA,"",NA,NA,NA,NA,NA,NA,NA,"","","",NA,"i",1,0.7384,NA,NA,NA,NA,NA,"散漫","i","",NA,1,9,89,41,1,"",NA,"",NA,NA,NA,NA,NA,NA,NA,"",NA,"",NA,NA,NA,NA,NA,NA,NA,"","","",NA,"",NA,NA,NA,NA,NA,NA,NA,"",NA,"23"
"",NA,"",NA,"",NA,NA,NA,NA,NA,NA,NA,"","",1,1,"2024-08-24_13h51.38.038","IAT(Formal)","2021.2.3","Win32",59.52380952,"",NA,"",NA,NA,NA,NA,NA,NA,NA,"","","",NA,"",0,NA,NA,NA,NA,NA,NA,"他人","i","",NA,1,10,90,58,1,"",NA,"",NA,NA,NA,NA,NA,NA,NA,"",NA,"",NA,NA,NA,NA,NA,NA,NA,"","","",NA,"",NA,NA,NA,NA,NA,NA,NA,"",NA,"23"
"",NA,"",NA,"",NA,NA,NA,NA,NA,NA,NA,"","",1,1,"2024-08-24_13h51.38.038","IAT(Formal)","2021.2.3","Win32",59.52380952,"",NA,"",NA,NA,NA,NA,NA,NA,NA,"","","",NA,"",0,NA,NA,NA,NA,NA,NA,"刻薄","i","",NA,1,11,91,33,1,"",NA,"",NA,NA,NA,NA,NA,NA,NA,"",NA,"",NA,NA,NA,NA,NA,NA,NA,"","","",NA,"",NA,NA,NA,NA,NA,NA,NA,"",NA,"23"
"",NA,"",NA,"",NA,NA,NA,NA,NA,NA,NA,"","",1,1,"2024-08-24_13h51.38.038","IAT(Formal)","2021.2.3","Win32",59.52380952,"",NA,"",NA,NA,NA,NA,NA,NA,NA,"","","",NA,"",0,NA,NA,NA,NA,NA,NA,"崇高","e","",NA,1,12,92,11,1,"",NA,"",NA,NA,NA,NA,NA,NA,NA,"",NA,"",NA,NA,NA,NA,NA,NA,NA,"","","",NA,"",NA,NA,NA,NA,NA,NA,NA,"",NA,"23"
"",NA,"",NA,"",NA,NA,NA,NA,NA,NA,NA,"","",1,1,"2024-08-24_13h51.38.038","IAT(Formal)","2021.2.3","Win32",59.52380952,"",NA,"",NA,NA,NA,NA,NA,NA,NA,"","","",NA,"e",1,1.1459,NA,NA,NA,NA,NA,"我的","e","",NA,1,13,93,51,1,"",NA,"",NA,NA,NA,NA,NA,NA,NA,"",NA,"",NA,NA,NA,NA,NA,NA,NA,"","","",NA,"",NA,NA,NA,NA,NA,NA,NA,"",NA,"23"
"",NA,"",NA,"",NA,NA,NA,NA,NA,NA,NA,"","",1,1,"2024-08-24_13h51.38.038","IAT(Formal)","2021.2.3","Win32",59.52380952,"",NA,"",NA,NA,NA,NA,NA,NA,NA,"","","",NA,"i",1,0.5421,NA,NA,NA,NA,NA,"他","i","",NA,1,14,94,55,1,"",NA,"",NA,NA,NA,NA,NA,NA,NA,"",NA,"",NA,NA,NA,NA,NA,NA,NA,"","","",NA,"",NA,NA,NA,NA,NA,NA,NA,"",NA,"23"
"",NA,"",NA,"",NA,NA,NA,NA,NA,NA,NA,"","",1,1,"2024-08-24_13h51.38.038","IAT(Formal)","2021.2.3","Win32",59.52380952,"",NA,"",NA,NA,NA,NA,NA,NA,NA,"","","",NA,"i",1,0.7858,NA,NA,NA,NA,NA,"他人","i","",NA,1,15,95,68,1,"",NA,"",NA,NA,NA,NA,NA,NA,NA,"",NA,"",NA,NA,NA,NA,NA,NA,NA,"","","",NA,"",NA,NA,NA,NA,NA,NA,NA,"",NA,"23"
"",NA,"",NA,"",NA,NA,NA,NA,NA,NA,NA,"","",1,1,"2024-08-24_13h51.38.038","IAT(Formal)","2021.2.3","Win32",59.52380952,"",NA,"",NA,NA,NA,NA,NA,NA,NA,"","","",NA,"",0,NA,NA,NA,NA,NA,NA,"卑鄙","i","",NA,1,16,96,30,1,"",NA,"",NA,NA,NA,NA,NA,NA,NA,"",NA,"",NA,NA,NA,NA,NA,NA,NA,"","","",NA,"",NA,NA,NA,NA,NA,NA,NA,"",NA,"23"
"",NA,"",NA,"",NA,NA,NA,NA,NA,NA,NA,"","",1,1,"2024-08-24_13h51.38.038","IAT(Formal)","2021.2.3","Win32",59.52380952,"",NA,"",NA,NA,NA,NA,NA,NA,NA,"","","",NA,"e",1,0.6359,NA,NA,NA,NA,NA,"朴实","e","",NA,1,17,97,24,1,"",NA,"",NA,NA,NA,NA,NA,NA,NA,"",NA,"",NA,NA,NA,NA,NA,NA,NA,"","","",NA,"",NA,NA,NA,NA,NA,NA,NA,"",NA,"23"
"",NA,"",NA,"",NA,NA,NA,NA,NA,NA,NA,"","",1,1,"2024-08-24_13h51.38.038","IAT(Formal)","2021.2.3","Win32",59.52380952,"",NA,"",NA,NA,NA,NA,NA,NA,NA,"","","",NA,"",0,NA,NA,NA,NA,NA,NA,"虚伪","i","",NA,1,18,98,31,1,"",NA,"",NA,NA,NA,NA,NA,NA,NA,"",NA,"",NA,NA,NA,NA,NA,NA,NA,"","","",NA,"",NA,NA,NA,NA,NA,NA,NA,"",NA,"23"
"",NA,"",NA,"",NA,NA,NA,NA,NA,NA,NA,"","",1,1,"2024-08-24_13h51.38.038","IAT(Formal)","2021.2.3","Win32",59.52380952,"",NA,"",NA,NA,NA,NA,NA,NA,NA,"","","",NA,"",0,NA,NA,NA,NA,NA,NA,"他","i","",NA,1,19,99,75,1,"",NA,"",NA,NA,NA,NA,NA,NA,NA,"",NA,"",NA,NA,NA,NA,NA,NA,NA,"","","",NA,"",NA,NA,NA,NA,NA,NA,NA,"",NA,"23"
"",NA,"",NA,"",NA,NA,NA,NA,NA,NA,NA,"","",1,1,"2024-08-24_13h51.38.038","IAT(Formal)","2021.2.3","Win32",59.52380952,"",NA,"",NA,NA,NA,NA,NA,NA,NA,"","","",NA,"",0,NA,NA,NA,NA,NA,NA,"杰出","e","",NA,1,20,100,13,1,"",NA,"",NA,NA,NA,NA,NA,NA,NA,"",NA,"",NA,NA,NA,NA,NA,NA,NA,"","","",NA,"",NA,NA,NA,NA,NA,NA,NA,"",NA,"23"
"",NA,"",NA,"",NA,NA,NA,NA,NA,NA,NA,"","",1,1,"2024-08-24_13h51.38.038","IAT(Formal)","2021.2.3","Win32",59.52380952,"",NA,"",NA,NA,NA,NA,NA,NA,NA,"","","",NA,"e",1,0.5524,NA,NA,NA,NA,NA,"我们","e","",NA,1,21,101,62,1,"",NA,"",NA,NA,NA,NA,NA,NA,NA,"",NA,"",NA,NA,NA,NA,NA,NA,NA,"","","",NA,"",NA,NA,NA,NA,NA,NA,NA,"",NA,"23"
"",NA,"",NA,"",NA,NA,NA,NA,NA,NA,NA,"","",1,1,"2024-08-24_13h51.38.038","IAT(Formal)","2021.2.3","Win32",59.52380952,"",NA,"",NA,NA,NA,NA,NA,NA,NA,"","","",NA,"e",1,0.5025,NA,NA,NA,NA,NA,"我","e","",NA,1,22,102,50,1,"",NA,"",NA,NA,NA,NA,NA,NA,NA,"",NA,"",NA,NA,NA,NA,NA,NA,NA,"","","",NA,"",NA,NA,NA,NA,NA,NA,NA,"",NA,"23"
"",NA,"",NA,"",NA,NA,NA,NA,NA,NA,NA,"","",1,1,"2024-08-24_13h51.38.038","IAT(Formal)","2021.2.3","Win32",59.52380952,"",NA,"",NA,NA,NA,NA,NA,NA,NA,"","","",NA,"i",1,1.4375,NA,NA,NA,NA,NA,"他的","i","",NA,1,23,103,77,1,"",NA,"",NA,NA,NA,NA,NA,NA,NA,"",NA,"",NA,NA,NA,NA,NA,NA,NA,"","","",NA,"",NA,NA,NA,NA,NA,NA,NA,"",NA,"23"
"",NA,"",NA,"",NA,NA,NA,NA,NA,NA,NA,"","",1,1,"2024-08-24_13h51.38.038","IAT(Formal)","2021.2.3","Win32",59.52380952,"",NA,"",NA,NA,NA,NA,NA,NA,NA,"","","",NA,"e",1,0.9386,NA,NA,NA,NA,NA,"勇敢","e","",NA,1,24,104,17,1,"",NA,"",NA,NA,NA,NA,NA,NA,NA,"",NA,"",NA,NA,NA,NA,NA,NA,NA,"","","",NA,"",NA,NA,NA,NA,NA,NA,NA,"",NA,"23"
"",NA,"",NA,"",NA,NA,NA,NA,NA,NA,NA,"","",1,1,"2024-08-24_13h51.38.038","IAT(Formal)","2021.2.3","Win32",59.52380952,"",NA,"",NA,NA,NA,NA,NA,NA,NA,"","","",NA,"",0,NA,NA,NA,NA,NA,NA,"勤奋","e","",NA,1,25,105,18,1,"",NA,"",NA,NA,NA,NA,NA,NA,NA,"",NA,"",NA,NA,NA,NA,NA,NA,NA,"","","",NA,"",NA,NA,NA,NA,NA,NA,NA,"",NA,"23"
"",NA,"",NA,"",NA,NA,NA,NA,NA,NA,NA,"","",1,1,"2024-08-24_13h51.38.038","IAT(Formal)","2021.2.3","Win32",59.52380952,"",NA,"",NA,NA,NA,NA,NA,NA,NA,"","","",NA,"",0,NA,NA,NA,NA,NA,NA,"诚恳","e","",NA,1,26,106,29,1,"",NA,"",NA,NA,NA,NA,NA,NA,NA,"",NA,"",NA,NA,NA,NA,NA,NA,NA,"","","",NA,"",NA,NA,NA,NA,NA,NA,NA,"",NA,"23"
"",NA,"",NA,"",NA,NA,NA,NA,NA,NA,NA,"","",1,1,"2024-08-24_13h51.38.038","IAT(Formal)","2021.2.3","Win32",59.52380952,"",NA,"",NA,NA,NA,NA,NA,NA,NA,"","","",NA,"i",1,0.5398,NA,NA,NA,NA,NA,"暴躁","i","",NA,1,27,107,44,1,"",NA,"",NA,NA,NA,NA,NA,NA,NA,"",NA,"",NA,NA,NA,NA,NA,NA,NA,"","","",NA,"",NA,NA,NA,NA,NA,NA,NA,"",NA,"23"
"",NA,"",NA,"",NA,NA,NA,NA,NA,NA,NA,"","",1,1,"2024-08-24_13h51.38.038","IAT(Formal)","2021.2.3","Win32",59.52380952,"",NA,"",NA,NA,NA,NA,NA,NA,NA,"","","",NA,"e",1,0.642,NA,NA,NA,NA,NA,"稳重","e","",NA,1,28,108,21,1,"",NA,"",NA,NA,NA,NA,NA,NA,NA,"",NA,"",NA,NA,NA,NA,NA,NA,NA,"","","",NA,"",NA,NA,NA,NA,NA,NA,NA,"",NA,"23"
"",NA,"",NA,"",NA,NA,NA,NA,NA,NA,NA,"","",1,1,"2024-08-24_13h51.38.038","IAT(Formal)","2021.2.3","Win32",59.52380952,"",NA,"",NA,NA,NA,NA,NA,NA,NA,"","","",NA,"i",1,0.5671,NA,NA,NA,NA,NA,"他人","i","",NA,1,29,109,8,1,"",NA,"",NA,NA,NA,NA,NA,NA,NA,"",NA,"",NA,NA,NA,NA,NA,NA,NA,"","","",NA,"",NA,NA,NA,NA,NA,NA,NA,"",NA,"23"
"",NA,"",NA,"",NA,NA,NA,NA,NA,NA,NA,"","",1,1,"2024-08-24_13h51.38.038","IAT(Formal)","2021.2.3","Win32",59.52380952,"",NA,"",NA,NA,NA,NA,NA,NA,NA,"","","",NA,"",0,NA,NA,NA,NA,NA,NA,"自己","e","",NA,1,30,110,3,1,"",NA,"",NA,NA,NA,NA,NA,NA,NA,"",NA,"",NA,NA,NA,NA,NA,NA,NA,"","","",NA,"",NA,NA,NA,NA,NA,NA,NA,"",NA,"23"
"",NA,"",NA,"",NA,NA,NA,NA,NA,NA,NA,"","",1,1,"2024-08-24_13h51.38.038","IAT(Formal)","2021.2.3","Win32",59.52380952,"",NA,"",NA,NA,NA,NA,NA,NA,NA,"","","",NA,"e",1,0.8889,NA,NA,NA,NA,NA,"我的","e","",NA,1,31,111,1,1,"",NA,"",NA,NA,NA,NA,NA,NA,NA,"",NA,"",NA,NA,NA,NA,NA,NA,NA,"","","",NA,"",NA,NA,NA,NA,NA,NA,NA,"",NA,"23"
"",NA,"",NA,"",NA,NA,NA,NA,NA,NA,NA,"","",1,1,"2024-08-24_13h51.38.038","IAT(Formal)","2021.2.3","Win32",59.52380952,"",NA,"",NA,NA,NA,NA,NA,NA,NA,"","","",NA,"i",1,0.4975,NA,NA,NA,NA,NA,"他们","i","",NA,1,32,112,6,1,"",NA,"",NA,NA,NA,NA,NA,NA,NA,"",NA,"",NA,NA,NA,NA,NA,NA,NA,"","","",NA,"",NA,NA,NA,NA,NA,NA,NA,"",NA,"23"
"",NA,"",NA,"",NA,NA,NA,NA,NA,NA,NA,"","",1,1,"2024-08-24_13h51.38.038","IAT(Formal)","2021.2.3","Win32",59.52380952,"",NA,"",NA,NA,NA,NA,NA,NA,NA,"","","",NA,"e",0,0.6921,NA,NA,NA,NA,NA,"轻率","i","",NA,1,33,113,48,1,"",NA,"",NA,NA,NA,NA,NA,NA,NA,"",NA,"",NA,NA,NA,NA,NA,NA,NA,"","","",NA,"",NA,NA,NA,NA,NA,NA,NA,"",NA,"23"
"",NA,"",NA,"",NA,NA,NA,NA,NA,NA,NA,"","",1,1,"2024-08-24_13h51.38.038","IAT(Formal)","2021.2.3","Win32",59.52380952,"",NA,"",NA,NA,NA,NA,NA,NA,NA,"","","",NA,"e",1,0.9537,NA,NA,NA,NA,NA,"俺","e","",NA,1,34,114,64,1,"",NA,"",NA,NA,NA,NA,NA,NA,NA,"",NA,"",NA,NA,NA,NA,NA,NA,NA,"","","",NA,"",NA,NA,NA,NA,NA,NA,NA,"",NA,"23"
"",NA,"",NA,"",NA,NA,NA,NA,NA,NA,NA,"","",1,1,"2024-08-24_13h51.38.038","IAT(Formal)","2021.2.3","Win32",59.52380952,"",NA,"",NA,NA,NA,NA,NA,NA,NA,"","","",NA,"",0,NA,NA,NA,NA,NA,NA,"公正","e","",NA,1,35,115,23,1,"",NA,"",NA,NA,NA,NA,NA,NA,NA,"",NA,"",NA,NA,NA,NA,NA,NA,NA,"","","",NA,"",NA,NA,NA,NA,NA,NA,NA,"",NA,"23"
"",NA,"",NA,"",NA,NA,NA,NA,NA,NA,NA,"","",1,1,"2024-08-24_13h51.38.038","IAT(Formal)","2021.2.3","Win32",59.52380952,"",NA,"",NA,NA,NA,NA,NA,NA,NA,"","","",NA,"",0,NA,NA,NA,NA,NA,NA,"无私","e","",NA,1,36,116,22,1,"",NA,"",NA,NA,NA,NA,NA,NA,NA,"",NA,"",NA,NA,NA,NA,NA,NA,NA,"","","",NA,"",NA,NA,NA,NA,NA,NA,NA,"",NA,"23"
"",NA,"",NA,"",NA,NA,NA,NA,NA,NA,NA,"","",1,1,"2024-08-24_13h51.38.038","IAT(Formal)","2021.2.3","Win32",59.52380952,"",NA,"",NA,NA,NA,NA,NA,NA,NA,"","","",NA,"i",1,0.6104,NA,NA,NA,NA,NA,"消极","i","",NA,1,37,117,35,1,"",NA,"",NA,NA,NA,NA,NA,NA,NA,"",NA,"",NA,NA,NA,NA,NA,NA,NA,"","","",NA,"",NA,NA,NA,NA,NA,NA,NA,"",NA,"23"
"",NA,"",NA,"",NA,NA,NA,NA,NA,NA,NA,"","",1,1,"2024-08-24_13h51.38.038","IAT(Formal)","2021.2.3","Win32",59.52380952,"",NA,"",NA,NA,NA,NA,NA,NA,NA,"","","",NA,"",0,NA,NA,NA,NA,NA,NA,"自己","e","",NA,1,38,118,53,1,"",NA,"",NA,NA,NA,NA,NA,NA,NA,"",NA,"",NA,NA,NA,NA,NA,NA,NA,"","","",NA,"",NA,NA,NA,NA,NA,NA,NA,"",NA,"23"
"",NA,"",NA,"",NA,NA,NA,NA,NA,NA,NA,"","",1,1,"2024-08-24_13h51.38.038","IAT(Formal)","2021.2.3","Win32",59.52380952,"",NA,"",NA,NA,NA,NA,NA,NA,NA,"","","",NA,"i",1,0.5619,NA,NA,NA,NA,NA,"他们","i","",NA,1,39,119,66,1,"",NA,"",NA,NA,NA,NA,NA,NA,NA,"",NA,"",NA,NA,NA,NA,NA,NA,NA,"","","",NA,"",NA,NA,NA,NA,NA,NA,NA,"",NA,"23"
"",NA,"",NA,"",NA,NA,NA,NA,NA,NA,NA,"","",1,1,"2024-08-24_13h51.38.038","IAT(Formal)","2021.2.3","Win32",59.52380952,"",NA,"",NA,NA,NA,NA,NA,NA,NA,"","","",NA,"",0,NA,NA,NA,NA,NA,NA,"愚蠢","i","",NA,1,40,120,32,1,"",NA,"",NA,NA,NA,NA,NA,NA,NA,"",NA,"",NA,NA,NA,NA,NA,NA,NA,"","","",NA,"",NA,NA,NA,NA,NA,NA,NA,"",NA,"23"
"",NA,"",NA,"",NA,NA,NA,NA,NA,NA,NA,"","",1,1,"2024-08-24_13h51.38.038","IAT(Formal)","2021.2.3","Win32",59.52380952,"",NA,"",NA,NA,NA,NA,NA,NA,NA,"","","",NA,"",0,NA,NA,NA,NA,NA,NA,"我","e","",NA,1,41,121,60,1,"",NA,"",NA,NA,NA,NA,NA,NA,NA,"",NA,"",NA,NA,NA,NA,NA,NA,NA,"","","",NA,"",NA,NA,NA,NA,NA,NA,NA,"",NA,"23"
"",NA,"",NA,"",NA,NA,NA,NA,NA,NA,NA,"","",1,1,"2024-08-24_13h51.38.038","IAT(Formal)","2021.2.3","Win32",59.52380952,"",NA,"",NA,NA,NA,NA,NA,NA,NA,"","","",NA,"e",1,0.6229,NA,NA,NA,NA,NA,"俺","e","",NA,1,42,122,4,1,"",NA,"",NA,NA,NA,NA,NA,NA,NA,"",NA,"",NA,NA,NA,NA,NA,NA,NA,"","","",NA,"",NA,NA,NA,NA,NA,NA,NA,"",NA,"23"
"",NA,"",NA,"",NA,NA,NA,NA,NA,NA,NA,"","",1,1,"2024-08-24_13h51.38.038","IAT(Formal)","2021.2.3","Win32",59.52380952,"",NA,"",NA,NA,NA,NA,NA,NA,NA,"","","",NA,"e",1,0.717,NA,NA,NA,NA,NA,"细腻","e","",NA,1,43,123,25,1,"",NA,"",NA,NA,NA,NA,NA,NA,NA,"",NA,"",NA,NA,NA,NA,NA,NA,NA,"","","",NA,"",NA,NA,NA,NA,NA,NA,NA,"",NA,"23"
"",NA,"",NA,"",NA,NA,NA,NA,NA,NA,NA,"","",1,1,"2024-08-24_13h51.38.038","IAT(Formal)","2021.2.3","Win32",59.52380952,"",NA,"",NA,NA,NA,NA,NA,NA,NA,"","","",NA,"",0,NA,NA,NA,NA,NA,NA,"凶狠","i","",NA,1,44,124,42,1,"",NA,"",NA,NA,NA,NA,NA,NA,NA,"",NA,"",NA,NA,NA,NA,NA,NA,NA,"","","",NA,"",NA,NA,NA,NA,NA,NA,NA,"",NA,"23"
"",NA,"",NA,"",NA,NA,NA,NA,NA,NA,NA,"","",1,1,"2024-08-24_13h51.38.038","IAT(Formal)","2021.2.3","Win32",59.52380952,"",NA,"",NA,NA,NA,NA,NA,NA,NA,"","","",NA,"i",1,0.7385,NA,NA,NA,NA,NA,"他","i","",NA,1,45,125,5,1,"",NA,"",NA,NA,NA,NA,NA,NA,NA,"",NA,"",NA,NA,NA,NA,NA,NA,NA,"","","",NA,"",NA,NA,NA,NA,NA,NA,NA,"",NA,"23"
"",NA,"",NA,"",NA,NA,NA,NA,NA,NA,NA,"","",1,1,"2024-08-24_13h51.38.038","IAT(Formal)","2021.2.3","Win32",59.52380952,"",NA,"",NA,NA,NA,NA,NA,NA,NA,"","","",NA,"i",1,0.8138,NA,NA,NA,NA,NA,"傲慢","i","",NA,1,46,126,37,1,"",NA,"",NA,NA,NA,NA,NA,NA,NA,"",NA,"",NA,NA,NA,NA,NA,NA,NA,"","","",NA,"",NA,NA,NA,NA,NA,NA,NA,"",NA,"23"
"",NA,"",NA,"",NA,NA,NA,NA,NA,NA,NA,"","",1,1,"2024-08-24_13h51.38.038","IAT(Formal)","2021.2.3","Win32",59.52380952,"",NA,"",NA,NA,NA,NA,NA,NA,NA,"","","",NA,"",0,NA,NA,NA,NA,NA,NA,"固执","i","",NA,1,47,127,47,1,"",NA,"",NA,NA,NA,NA,NA,NA,NA,"",NA,"",NA,NA,NA,NA,NA,NA,NA,"","","",NA,"",NA,NA,NA,NA,NA,NA,NA,"",NA,"23"
"",NA,"",NA,"",NA,NA,NA,NA,NA,NA,NA,"","",1,1,"2024-08-24_13h51.38.038","IAT(Formal)","2021.2.3","Win32",59.52380952,"",NA,"",NA,NA,NA,NA,NA,NA,NA,"","","",NA,"",0,NA,NA,NA,NA,NA,NA,"自私","i","",NA,1,48,128,43,1,"",NA,"",NA,NA,NA,NA,NA,NA,NA,"",NA,"",NA,NA,NA,NA,NA,NA,NA,"","","",NA,"",NA,NA,NA,NA,NA,NA,NA,"",NA,"23"
"",NA,"",NA,"",NA,NA,NA,NA,NA,NA,NA,"","",1,1,"2024-08-24_13h51.38.038","IAT(Formal)","2021.2.3","Win32",59.52380952,"",NA,"",NA,NA,NA,NA,NA,NA,NA,"","","",NA,"i",1,1.1505,NA,NA,NA,NA,NA,"其他","i","",NA,1,49,129,9,1,"",NA,"",NA,NA,NA,NA,NA,NA,NA,"",NA,"",NA,NA,NA,NA,NA,NA,NA,"","","",NA,"",NA,NA,NA,NA,NA,NA,NA,"",NA,"23"
"",NA,"",NA,"",NA,NA,NA,NA,NA,NA,NA,"","",1,1,"2024-08-24_13h51.38.038","IAT(Formal)","2021.2.3","Win32",59.52380952,"",NA,"",NA,NA,NA,NA,NA,NA,NA,"","","",NA,"i",1,0.4876,NA,NA,NA,NA,NA,"他","i","",NA,1,50,130,65,1,"",NA,"",NA,NA,NA,NA,NA,NA,NA,"",NA,"",NA,NA,NA,NA,NA,NA,NA,"","","",NA,"",NA,NA,NA,NA,NA,NA,NA,"",NA,"23"
"",NA,"",NA,"",NA,NA,NA,NA,NA,NA,NA,"","",1,1,"2024-08-24_13h51.38.038","IAT(Formal)","2021.2.3","Win32",59.52380952,"",NA,"",NA,NA,NA,NA,NA,NA,NA,"","","",NA,"",0,NA,NA,NA,NA,NA,NA,"自卑","i","",NA,1,51,131,36,1,"",NA,"",NA,NA,NA,NA,NA,NA,NA,"",NA,"",NA,NA,NA,NA,NA,NA,NA,"","","",NA,"",NA,NA,NA,NA,NA,NA,NA,"",NA,"23"
"",NA,"",NA,"",NA,NA,NA,NA,NA,NA,NA,"","",1,1,"2024-08-24_13h51.38.038","IAT(Formal)","2021.2.3","Win32",59.52380952,"",NA,"",NA,NA,NA,NA,NA,NA,NA,"","","",NA,"i",0,1.1475,NA,NA,NA,NA,NA,"机智","e","",NA,1,52,132,19,1,"",NA,"",NA,NA,NA,NA,NA,NA,NA,"",NA,"",NA,NA,NA,NA,NA,NA,NA,"","","",NA,"",NA,NA,NA,NA,NA,NA,NA,"",NA,"23"
"",NA,"",NA,"",NA,NA,NA,NA,NA,NA,NA,"","",1,1,"2024-08-24_13h51.38.038","IAT(Formal)","2021.2.3","Win32",59.52380952,"",NA,"",NA,NA,NA,NA,NA,NA,NA,"","","",NA,"i",1,0.6525,NA,NA,NA,NA,NA,"执拗","i","",NA,1,53,133,40,1,"",NA,"",NA,NA,NA,NA,NA,NA,NA,"",NA,"",NA,NA,NA,NA,NA,NA,NA,"","","",NA,"",NA,NA,NA,NA,NA,NA,NA,"",NA,"23"
"",NA,"",NA,"",NA,NA,NA,NA,NA,NA,NA,"","",1,1,"2024-08-24_13h51.38.038","IAT(Formal)","2021.2.3","Win32",59.52380952,"",NA,"",NA,NA,NA,NA,NA,NA,NA,"","","",NA,"e",1,0.5854,NA,NA,NA,NA,NA,"自己","e","",NA,1,54,134,63,1,"",NA,"",NA,NA,NA,NA,NA,NA,NA,"",NA,"",NA,NA,NA,NA,NA,NA,NA,"","","",NA,"",NA,NA,NA,NA,NA,NA,NA,"",NA,"23"
"",NA,"",NA,"",NA,NA,NA,NA,NA,NA,NA,"","",1,1,"2024-08-24_13h51.38.038","IAT(Formal)","2021.2.3","Win32",59.52380952,"",NA,"",NA,NA,NA,NA,NA,NA,NA,"","","",NA,"",0,NA,NA,NA,NA,NA,NA,"俺","e","",NA,1,55,135,74,1,"",NA,"",NA,NA,NA,NA,NA,NA,NA,"",NA,"",NA,NA,NA,NA,NA,NA,NA,"","","",NA,"",NA,NA,NA,NA,NA,NA,NA,"",NA,"23"
"",NA,"",NA,"",NA,NA,NA,NA,NA,NA,NA,"","",1,1,"2024-08-24_13h51.38.038","IAT(Formal)","2021.2.3","Win32",59.52380952,"",NA,"",NA,NA,NA,NA,NA,NA,NA,"","","",NA,"",0,NA,NA,NA,NA,NA,NA,"诚实","e","",NA,1,56,136,15,1,"",NA,"",NA,NA,NA,NA,NA,NA,NA,"",NA,"",NA,NA,NA,NA,NA,NA,NA,"","","",NA,"",NA,NA,NA,NA,NA,NA,NA,"",NA,"23"
"",NA,"",NA,"",NA,NA,NA,NA,NA,NA,NA,"","",1,1,"2024-08-24_13h51.38.038","IAT(Formal)","2021.2.3","Win32",59.52380952,"",NA,"",NA,NA,NA,NA,NA,NA,NA,"","","",NA,"e",1,0.4697,NA,NA,NA,NA,NA,"自己","e","",NA,1,57,137,73,1,"",NA,"",NA,NA,NA,NA,NA,NA,NA,"",NA,"",NA,NA,NA,NA,NA,NA,NA,"","","",NA,"",NA,NA,NA,NA,NA,NA,NA,"",NA,"23"
"",NA,"",NA,"",NA,NA,NA,NA,NA,NA,NA,"","",1,1,"2024-08-24_13h51.38.038","IAT(Formal)","2021.2.3","Win32",59.52380952,"",NA,"",NA,NA,NA,NA,NA,NA,NA,"","","",NA,"e",1,0.6678,NA,NA,NA,NA,NA,"活泼","e","",NA,1,58,138,28,1,"",NA,"",NA,NA,NA,NA,NA,NA,NA,"",NA,"",NA,NA,NA,NA,NA,NA,NA,"","","",NA,"",NA,NA,NA,NA,NA,NA,NA,"",NA,"23"
"",NA,"",NA,"",NA,NA,NA,NA,NA,NA,NA,"","",1,1,"2024-08-24_13h51.38.038","IAT(Formal)","2021.2.3","Win32",59.52380952,"",NA,"",NA,NA,NA,NA,NA,NA,NA,"","","",NA,"",0,NA,NA,NA,NA,NA,NA,"我们","e","",NA,1,59,139,72,1,"",NA,"",NA,NA,NA,NA,NA,NA,NA,"",NA,"",NA,NA,NA,NA,NA,NA,NA,"","","",NA,"",NA,NA,NA,NA,NA,NA,NA,"",NA,"23"
"",NA,"",NA,"",NA,NA,NA,NA,NA,NA,NA,"","",1,1,"2024-08-24_13h51.38.038","IAT(Formal)","2021.2.3","Win32",59.52380952,"",NA,"",NA,NA,NA,NA,NA,NA,NA,"","","",NA,"",0,NA,NA,NA,NA,NA,NA,"野蛮","i","",NA,1,60,140,46,1,"",NA,"",NA,NA,NA,NA,NA,NA,NA,"",NA,"",NA,NA,NA,NA,NA,NA,NA,"","","",NA,"",NA,NA,NA,NA,NA,NA,NA,"",NA,"23"
"",NA,"",NA,"",NA,NA,NA,NA,NA,NA,NA,"","",1,1,"2024-08-24_13h51.38.038","IAT(Formal)","2021.2.3","Win32",59.52380952,"",NA,"",NA,NA,NA,NA,NA,NA,NA,"","","",NA,"i",0,0.7315,NA,NA,NA,NA,NA,"我们","e","",NA,1,61,141,52,1,"",NA,"",NA,NA,NA,NA,NA,NA,NA,"",NA,"",NA,NA,NA,NA,NA,NA,NA,"","","",NA,"",NA,NA,NA,NA,NA,NA,NA,"",NA,"23"
"",NA,"",NA,"",NA,NA,NA,NA,NA,NA,NA,"","",1,1,"2024-08-24_13h51.38.038","IAT(Formal)","2021.2.3","Win32",59.52380952,"",NA,"",NA,NA,NA,NA,NA,NA,NA,"","","",NA,"e",1,1.0225,NA,NA,NA,NA,NA,"优秀","e","",NA,1,62,142,10,1,"",NA,"",NA,NA,NA,NA,NA,NA,NA,"",NA,"",NA,NA,NA,NA,NA,NA,NA,"","","",NA,"",NA,NA,NA,NA,NA,NA,NA,"",NA,"23"
"",NA,"",NA,"",NA,NA,NA,NA,NA,NA,NA,"","",1,1,"2024-08-24_13h51.38.038","IAT(Formal)","2021.2.3","Win32",59.52380952,"",NA,"",NA,NA,NA,NA,NA,NA,NA,"","","",NA,"",0,NA,NA,NA,NA,NA,NA,"其他","i","",NA,1,63,143,59,1,"",NA,"",NA,NA,NA,NA,NA,NA,NA,"",NA,"",NA,NA,NA,NA,NA,NA,NA,"","","",NA,"",NA,NA,NA,NA,NA,NA,NA,"",NA,"23"
"",NA,"",NA,"",NA,NA,NA,NA,NA,NA,NA,"","",1,1,"2024-08-24_13h51.38.038","IAT(Formal)","2021.2.3","Win32",59.52380952,"",NA,"",NA,NA,NA,NA,NA,NA,NA,"","","",NA,"i",1,0.5348,NA,NA,NA,NA,NA,"其他","i","",NA,1,64,144,69,1,"",NA,"",NA,NA,NA,NA,NA,NA,NA,"",NA,"",NA,NA,NA,NA,NA,NA,NA,"","","",NA,"",NA,NA,NA,NA,NA,NA,NA,"",NA,"23"
"",NA,"",NA,"",NA,NA,NA,NA,NA,NA,NA,"","",1,1,"2024-08-24_13h51.38.038","IAT(Formal)","2021.2.3","Win32",59.52380952,"",NA,"",NA,NA,NA,NA,NA,NA,NA,"","","",NA,"",0,NA,NA,NA,NA,NA,NA,"悲观","i","",NA,1,65,145,34,1,"",NA,"",NA,NA,NA,NA,NA,NA,NA,"",NA,"",NA,NA,NA,NA,NA,NA,NA,"","","",NA,"",NA,NA,NA,NA,NA,NA,NA,"",NA,"23"
"",NA,"",NA,"",NA,NA,NA,NA,NA,NA,NA,"","",1,1,"2024-08-24_13h51.38.038","IAT(Formal)","2021.2.3","Win32",59.52380952,"",NA,"",NA,NA,NA,NA,NA,NA,NA,"","","",NA,"",0,NA,NA,NA,NA,NA,NA,"我们","e","",NA,1,66,146,2,1,"",NA,"",NA,NA,NA,NA,NA,NA,NA,"",NA,"",NA,NA,NA,NA,NA,NA,NA,"","","",NA,"",NA,NA,NA,NA,NA,NA,NA,"",NA,"23"
"",NA,"",NA,"",NA,NA,NA,NA,NA,NA,NA,"","",1,1,"2024-08-24_13h51.38.038","IAT(Formal)","2021.2.3","Win32",59.52380952,"",NA,"",NA,NA,NA,NA,NA,NA,NA,"","","",NA,"e",1,0.6838,NA,NA,NA,NA,NA,"认真","e","",NA,1,67,147,20,1,"",NA,"",NA,NA,NA,NA,NA,NA,NA,"",NA,"",NA,NA,NA,NA,NA,NA,NA,"","","",NA,"",NA,NA,NA,NA,NA,NA,NA,"",NA,"23"
"",NA,"",NA,"",NA,NA,NA,NA,NA,NA,NA,"","",1,1,"2024-08-24_13h51.38.038","IAT(Formal)","2021.2.3","Win32",59.52380952,"",NA,"",NA,NA,NA,NA,NA,NA,NA,"","","",NA,"e",1,0.4831,NA,NA,NA,NA,NA,"我","e","",NA,1,68,148,70,1,"",NA,"",NA,NA,NA,NA,NA,NA,NA,"",NA,"",NA,NA,NA,NA,NA,NA,NA,"","","",NA,"",NA,NA,NA,NA,NA,NA,NA,"",NA,"23"
"",NA,"",NA,"",NA,NA,NA,NA,NA,NA,NA,"","",1,1,"2024-08-24_13h51.38.038","IAT(Formal)","2021.2.3","Win32",59.52380952,"",NA,"",NA,NA,NA,NA,NA,NA,NA,"","","",NA,"e",1,0.3849,NA,NA,NA,NA,NA,"我的","e","",NA,1,69,149,61,1,"",NA,"",NA,NA,NA,NA,NA,NA,NA,"",NA,"",NA,NA,NA,NA,NA,NA,NA,"","","",NA,"",NA,NA,NA,NA,NA,NA,NA,"",NA,"23"
"",NA,"",NA,"",NA,NA,NA,NA,NA,NA,NA,"","",1,1,"2024-08-24_13h51.38.038","IAT(Formal)","2021.2.3","Win32",59.52380952,"",NA,"",NA,NA,NA,NA,NA,NA,NA,"","","",NA,"e",0,1.3004,NA,NA,NA,NA,NA,"鲁莽","i","",NA,1,70,150,38,1,"",NA,"",NA,NA,NA,NA,NA,NA,NA,"",NA,"",NA,NA,NA,NA,NA,NA,NA,"","","",NA,"",NA,NA,NA,NA,NA,NA,NA,"",NA,"23"
"",NA,"",NA,"",NA,NA,NA,NA,NA,NA,NA,"","",1,1,"2024-08-24_13h51.38.038","IAT(Formal)","2021.2.3","Win32",59.52380952,"",NA,"",NA,NA,NA,NA,NA,NA,NA,"","","",NA,"i",1,0.5706,NA,NA,NA,NA,NA,"冒失","i","",NA,1,71,151,39,1,"",NA,"",NA,NA,NA,NA,NA,NA,NA,"",NA,"",NA,NA,NA,NA,NA,NA,NA,"","","",NA,"",NA,NA,NA,NA,NA,NA,NA,"",NA,"23"
"",NA,"",NA,"",NA,NA,NA,NA,NA,NA,NA,"","",1,1,"2024-08-24_13h51.38.038","IAT(Formal)","2021.2.3","Win32",59.52380952,"",NA,"",NA,NA,NA,NA,NA,NA,NA,"","","",NA,"",0,NA,NA,NA,NA,NA,NA,"俺","e","",NA,1,72,152,54,1,"",NA,"",NA,NA,NA,NA,NA,NA,NA,"",NA,"",NA,NA,NA,NA,NA,NA,NA,"","","",NA,"",NA,NA,NA,NA,NA,NA,NA,"",NA,"23"
"",NA,"",NA,"",NA,NA,NA,NA,NA,NA,NA,"","",1,1,"2024-08-24_13h51.38.038","IAT(Formal)","2021.2.3","Win32",59.52380952,"",NA,"",NA,NA,NA,NA,NA,NA,NA,"","","",NA,"",0,NA,NA,NA,NA,NA,NA,"我","e","",NA,1,73,153,0,1,"",NA,"",NA,NA,NA,NA,NA,NA,NA,"",NA,"",NA,NA,NA,NA,NA,NA,NA,"","","",NA,"",NA,NA,NA,NA,NA,NA,NA,"",NA,"23"
"",NA,"",NA,"",NA,NA,NA,NA,NA,NA,NA,"","",1,1,"2024-08-24_13h51.38.038","IAT(Formal)","2021.2.3","Win32",59.52380952,"",NA,"",NA,NA,NA,NA,NA,NA,NA,"","","",NA,"",0,NA,NA,NA,NA,NA,NA,"我的","e","",NA,1,74,154,71,1,"",NA,"",NA,NA,NA,NA,NA,NA,NA,"",NA,"",NA,NA,NA,NA,NA,NA,NA,"","","",NA,"",NA,NA,NA,NA,NA,NA,NA,"",NA,"23"
"",NA,"",NA,"",NA,NA,NA,NA,NA,NA,NA,"","",1,1,"2024-08-24_13h51.38.038","IAT(Formal)","2021.2.3","Win32",59.52380952,"",NA,"",NA,NA,NA,NA,NA,NA,NA,"","","",NA,"i",1,0.5701,NA,NA,NA,NA,NA,"他的","i","",NA,1,75,155,7,1,"",NA,"",NA,NA,NA,NA,NA,NA,NA,"",NA,"",NA,NA,NA,NA,NA,NA,NA,"","","",NA,"",NA,NA,NA,NA,NA,NA,NA,"",NA,"23"
"",NA,"",NA,"",NA,NA,NA,NA,NA,NA,NA,"","",1,1,"2024-08-24_13h51.38.038","IAT(Formal)","2021.2.3","Win32",59.52380952,"",NA,"",NA,NA,NA,NA,NA,NA,NA,"","","",NA,"i",1,0.917,NA,NA,NA,NA,NA,"其他","i","",NA,1,76,156,79,1,"",NA,"",NA,NA,NA,NA,NA,NA,NA,"",NA,"",NA,NA,NA,NA,NA,NA,NA,"","","",NA,"",NA,NA,NA,NA,NA,NA,NA,"",NA,"23"
"",NA,"",NA,"",NA,NA,NA,NA,NA,NA,NA,"","",1,1,"2024-08-24_13h51.38.038","IAT(Formal)","2021.2.3","Win32",59.52380952,"",NA,"",NA,NA,NA,NA,NA,NA,NA,"","","",NA,"",0,NA,NA,NA,NA,NA,NA,"猖狂","i","",NA,1,77,157,45,1,"",NA,"",NA,NA,NA,NA,NA,NA,NA,"",NA,"",NA,NA,NA,NA,NA,NA,NA,"","","",NA,"",NA,NA,NA,NA,NA,NA,NA,"",NA,"23"
"",NA,"",NA,"",NA,NA,NA,NA,NA,NA,NA,"","",1,1,"2024-08-24_13h51.38.038","IAT(Formal)","2021.2.3","Win32",59.52380952,"",NA,"",NA,NA,NA,NA,NA,NA,NA,"","","",NA,"i",1,0.812,NA,NA,NA,NA,NA,"他们","i","",NA,1,78,158,56,1,"",NA,"",NA,NA,NA,NA,NA,NA,NA,"",NA,"",NA,NA,NA,NA,NA,NA,NA,"","","",NA,"",NA,NA,NA,NA,NA,NA,NA,"",NA,"23"
"",NA,"",NA,"",NA,NA,NA,NA,NA,NA,NA,"","",1,1,"2024-08-24_13h51.38.038","IAT(Formal)","2021.2.3","Win32",59.52380952,"",NA,"",NA,NA,NA,NA,NA,NA,NA,"","","",NA,"e",1,0.6454,NA,NA,NA,NA,NA,"乐观","e","",NA,1,79,159,14,1,"",NA,"",NA,NA,NA,NA,NA,NA,NA,"",NA,"",NA,NA,NA,NA,NA,NA,NA,"","","",NA,"",NA,NA,NA,NA,NA,NA,NA,"",NA,"23"
"",NA,"",NA,"",NA,NA,NA,NA,NA,NA,NA,"他的","e",1,1,"2024-08-24_13h51.38.038","IAT(Formal)","2021.2.3","Win32",59.52380952,"",NA,"",NA,NA,NA,NA,NA,NA,NA,"","","",NA,"",NA,NA,NA,NA,NA,NA,NA,"","","",NA,NA,NA,NA,NA,NA,"space",12.6396,"e",1,1.1784,0,0,0,7,1,"",NA,"",NA,NA,NA,NA,NA,NA,NA,"","","",NA,"",NA,NA,NA,NA,NA,NA,NA,"",NA,"23"
"",NA,"",NA,"",NA,NA,NA,NA,NA,NA,NA,"其他","e",1,1,"2024-08-24_13h51.38.038","IAT(Formal)","2021.2.3","Win32",59.52380952,"",NA,"",NA,NA,NA,NA,NA,NA,NA,"","","",NA,"",NA,NA,NA,NA,NA,NA,NA,"","","",NA,NA,NA,NA,NA,NA,"",NA,"e",1,0.8224,0,1,1,9,1,"",NA,"",NA,NA,NA,NA,NA,NA,NA,"","","",NA,"",NA,NA,NA,NA,NA,NA,NA,"",NA,"23"
"",NA,"",NA,"",NA,NA,NA,NA,NA,NA,NA,"我的","i",1,1,"2024-08-24_13h51.38.038","IAT(Formal)","2021.2.3","Win32",59.52380952,"",NA,"",NA,NA,NA,NA,NA,NA,NA,"","","",NA,"",NA,NA,NA,NA,NA,NA,NA,"","","",NA,NA,NA,NA,NA,NA,"",NA,"",0,NA,0,2,2,1,1,"",NA,"",NA,NA,NA,NA,NA,NA,NA,"","","",NA,"",NA,NA,NA,NA,NA,NA,NA,"",NA,"23"
"",NA,"",NA,"",NA,NA,NA,NA,NA,NA,NA,"他们","e",1,1,"2024-08-24_13h51.38.038","IAT(Formal)","2021.2.3","Win32",59.52380952,"",NA,"",NA,NA,NA,NA,NA,NA,NA,"","","",NA,"",NA,NA,NA,NA,NA,NA,NA,"","","",NA,NA,NA,NA,NA,NA,"",NA,"",0,NA,0,3,3,6,1,"",NA,"",NA,NA,NA,NA,NA,NA,NA,"","","",NA,"",NA,NA,NA,NA,NA,NA,NA,"",NA,"23"
"",NA,"",NA,"",NA,NA,NA,NA,NA,NA,NA,"自己","i",1,1,"2024-08-24_13h51.38.038","IAT(Formal)","2021.2.3","Win32",59.52380952,"",NA,"",NA,NA,NA,NA,NA,NA,NA,"","","",NA,"",NA,NA,NA,NA,NA,NA,NA,"","","",NA,NA,NA,NA,NA,NA,"",NA,"i",1,0.9367,0,4,4,3,1,"",NA,"",NA,NA,NA,NA,NA,NA,NA,"","","",NA,"",NA,NA,NA,NA,NA,NA,NA,"",NA,"23"
"",NA,"",NA,"",NA,NA,NA,NA,NA,NA,NA,"我们","i",1,1,"2024-08-24_13h51.38.038","IAT(Formal)","2021.2.3","Win32",59.52380952,"",NA,"",NA,NA,NA,NA,NA,NA,NA,"","","",NA,"",NA,NA,NA,NA,NA,NA,NA,"","","",NA,NA,NA,NA,NA,NA,"",NA,"i",1,0.7412,0,5,5,2,1,"",NA,"",NA,NA,NA,NA,NA,NA,NA,"","","",NA,"",NA,NA,NA,NA,NA,NA,NA,"",NA,"23"
"",NA,"",NA,"",NA,NA,NA,NA,NA,NA,NA,"我","i",1,1,"2024-08-24_13h51.38.038","IAT(Formal)","2021.2.3","Win32",59.52380952,"",NA,"",NA,NA,NA,NA,NA,NA,NA,"","","",NA,"",NA,NA,NA,NA,NA,NA,NA,"","","",NA,NA,NA,NA,NA,NA,"",NA,"i",1,0.4636,0,6,6,0,1,"",NA,"",NA,NA,NA,NA,NA,NA,NA,"","","",NA,"",NA,NA,NA,NA,NA,NA,NA,"",NA,"23"
"",NA,"",NA,"",NA,NA,NA,NA,NA,NA,NA,"他","e",1,1,"2024-08-24_13h51.38.038","IAT(Formal)","2021.2.3","Win32",59.52380952,"",NA,"",NA,NA,NA,NA,NA,NA,NA,"","","",NA,"",NA,NA,NA,NA,NA,NA,NA,"","","",NA,NA,NA,NA,NA,NA,"",NA,"e",1,0.7028,0,7,7,5,1,"",NA,"",NA,NA,NA,NA,NA,NA,NA,"","","",NA,"",NA,NA,NA,NA,NA,NA,NA,"",NA,"23"
"",NA,"",NA,"",NA,NA,NA,NA,NA,NA,NA,"他人","e",1,1,"2024-08-24_13h51.38.038","IAT(Formal)","2021.2.3","Win32",59.52380952,"",NA,"",NA,NA,NA,NA,NA,NA,NA,"","","",NA,"",NA,NA,NA,NA,NA,NA,NA,"","","",NA,NA,NA,NA,NA,NA,"",NA,"",0,NA,0,8,8,8,1,"",NA,"",NA,NA,NA,NA,NA,NA,NA,"","","",NA,"",NA,NA,NA,NA,NA,NA,NA,"",NA,"23"
"",NA,"",NA,"",NA,NA,NA,NA,NA,NA,NA,"俺","i",1,1,"2024-08-24_13h51.38.038","IAT(Formal)","2021.2.3","Win32",59.52380952,"",NA,"",NA,NA,NA,NA,NA,NA,NA,"","","",NA,"",NA,NA,NA,NA,NA,NA,NA,"","","",NA,NA,NA,NA,NA,NA,"",NA,"",0,NA,0,9,9,4,1,"",NA,"",NA,NA,NA,NA,NA,NA,NA,"","","",NA,"",NA,NA,NA,NA,NA,NA,NA,"",NA,"23"
"",NA,"",NA,"",NA,NA,NA,NA,NA,NA,NA,"","",1,1,"2024-08-24_13h51.38.038","IAT(Formal)","2021.2.3","Win32",59.52380952,"",NA,"",NA,NA,NA,NA,NA,NA,NA,"","","",NA,"",NA,NA,NA,NA,NA,NA,NA,"","","",NA,NA,NA,NA,NA,NA,"",NA,"",NA,NA,NA,NA,NA,NA,NA,"space",20.0892,"e",1,1.0548,0,0,0,79,1,"其他","e","",NA,"",NA,NA,NA,NA,NA,NA,NA,"",NA,"23"
"",NA,"",NA,"",NA,NA,NA,NA,NA,NA,NA,"","",1,1,"2024-08-24_13h51.38.038","IAT(Formal)","2021.2.3","Win32",59.52380952,"",NA,"",NA,NA,NA,NA,NA,NA,NA,"","","",NA,"",NA,NA,NA,NA,NA,NA,NA,"","","",NA,NA,NA,NA,NA,NA,"",NA,"",NA,NA,NA,NA,NA,NA,NA,"",NA,"i",1,0.7203,0,1,1,62,1,"我们","i","",NA,"",NA,NA,NA,NA,NA,NA,NA,"",NA,"23"
"",NA,"",NA,"",NA,NA,NA,NA,NA,NA,NA,"","",1,1,"2024-08-24_13h51.38.038","IAT(Formal)","2021.2.3","Win32",59.52380952,"",NA,"",NA,NA,NA,NA,NA,NA,NA,"","","",NA,"",NA,NA,NA,NA,NA,NA,NA,"","","",NA,NA,NA,NA,NA,NA,"",NA,"",NA,NA,NA,NA,NA,NA,NA,"",NA,"e",0,0.636,0,2,2,46,1,"野蛮","i","",NA,"",NA,NA,NA,NA,NA,NA,NA,"",NA,"23"
"",NA,"",NA,"",NA,NA,NA,NA,NA,NA,NA,"","",1,1,"2024-08-24_13h51.38.038","IAT(Formal)","2021.2.3","Win32",59.52380952,"",NA,"",NA,NA,NA,NA,NA,NA,NA,"","","",NA,"",NA,NA,NA,NA,NA,NA,NA,"","","",NA,NA,NA,NA,NA,NA,"",NA,"",NA,NA,NA,NA,NA,NA,NA,"",NA,"e",1,0.9896,0,3,3,29,1,"诚恳","e","",NA,"",NA,NA,NA,NA,NA,NA,NA,"",NA,"23"
"",NA,"",NA,"",NA,NA,NA,NA,NA,NA,NA,"","",1,1,"2024-08-24_13h51.38.038","IAT(Formal)","2021.2.3","Win32",59.52380952,"",NA,"",NA,NA,NA,NA,NA,NA,NA,"","","",NA,"",NA,NA,NA,NA,NA,NA,NA,"","","",NA,NA,NA,NA,NA,NA,"",NA,"",NA,NA,NA,NA,NA,NA,NA,"",NA,"e",1,0.5466,0,4,4,66,1,"他们","e","",NA,"",NA,NA,NA,NA,NA,NA,NA,"",NA,"23"
"",NA,"",NA,"",NA,NA,NA,NA,NA,NA,NA,"","",1,1,"2024-08-24_13h51.38.038","IAT(Formal)","2021.2.3","Win32",59.52380952,"",NA,"",NA,NA,NA,NA,NA,NA,NA,"","","",NA,"",NA,NA,NA,NA,NA,NA,NA,"","","",NA,NA,NA,NA,NA,NA,"",NA,"",NA,NA,NA,NA,NA,NA,NA,"",NA,"e",1,0.5874,0,5,5,57,1,"他的","e","",NA,"",NA,NA,NA,NA,NA,NA,NA,"",NA,"23"
