﻿Instruction1.keys,Instruction1.rt,Instruction2.keys,Instruction2.rt,key_resp_iso.keys,key_resp_iso.corr,key_resp_iso.rt,Practice_01.thisRepN,Practice_01.thisTrialN,Practice_01.thisN,Practice_01.thisIndex,Practice_01.ran,Words,ans,participant,session,date,expName,psychopyVersion,OS,frameRate,key_resp_3.keys,key_resp_3.rt,key_resp_ipn.keys,key_resp_ipn.corr,key_resp_ipn.rt,Practice_02.thisRepN,Practice_02.thisTrialN,Practice_02.thisN,Practice_02.thisIndex,Practice_02.ran,Words_ipn,ans_ipn,key_resp_4.keys,key_resp_4.rt,key_resp_t1.keys,key_resp_t1.corr,key_resp_t1.rt,Practice_T1.thisRepN,Practice_T1.thisTrialN,Practice_T1.thisN,Practice_T1.thisIndex,Practice_T1.ran,Words_t1,ans_t1,key_resp_5.keys,key_resp_5.rt,Formal_T1.thisRepN,Formal_T1.thisTrialN,Formal_T1.thisN,Formal_T1.thisIndex,Formal_T1.ran,key_resp_6.keys,key_resp_6.rt,key_resp_iso_reverse.keys,key_resp_iso_reverse.corr,key_resp_iso_reverse.rt,Practice_iso_Reverse.thisRepN,Practice_iso_Reverse.thisTrialN,Practice_iso_Reverse.thisN,Practice_iso_Reverse.thisIndex,Practice_iso_Reverse.ran,key_resp_7.keys,key_resp_7.rt,key_resp_t2_Practice.keys,key_resp_t2_Practice.corr,key_resp_t2_Practice.rt,Practice_t2_Reverse.thisRepN,Practice_t2_Reverse.thisTrialN,Practice_t2_Reverse.thisN,Practice_t2_Reverse.thisIndex,Practice_t2_Reverse.ran,Words_t2,ans_t2,key_resp_8.keys,key_resp_8.rt,key_resp_t2.keys,key_resp_t2.corr,key_resp_t2.rt,Formal_t2_reverse.thisRepN,Formal_t2_reverse.thisTrialN,Formal_t2_reverse.thisN,Formal_t2_reverse.thisIndex,Formal_t2_reverse.ran,key_instruct.keys,key_instruct.rt
space,6.6035,space,7.2709,i,1,0.8158,0,0,0,9,1,其他,i,1,001,2024-08-24_15h42.57.918,IAT(Formal),2021.2.3,Win32,58.82352941,,,,,,,,,,,,,,,,,,,,,,,,,,,,,,,,,,,,,,,,,,,,,,,,,,,,,,,,,,,,,,,,,
,,,,i,1,0.7006,0,1,1,7,1,他的,i,1,001,2024-08-24_15h42.57.918,IAT(Formal),2021.2.3,Win32,58.82352941,,,,,,,,,,,,,,,,,,,,,,,,,,,,,,,,,,,,,,,,,,,,,,,,,,,,,,,,,,,,,,,,,
,,,,i,1,0.483,0,2,2,6,1,他们,i,1,001,2024-08-24_15h42.57.918,IAT(Formal),2021.2.3,Win32,58.82352941,,,,,,,,,,,,,,,,,,,,,,,,,,,,,,,,,,,,,,,,,,,,,,,,,,,,,,,,,,,,,,,,,
,,,,i,1,0.4959,0,3,3,5,1,他,i,1,001,2024-08-24_15h42.57.918,IAT(Formal),2021.2.3,Win32,58.82352941,,,,,,,,,,,,,,,,,,,,,,,,,,,,,,,,,,,,,,,,,,,,,,,,,,,,,,,,,,,,,,,,,
,,,,i,1,0.3668,0,4,4,8,1,他人,i,1,001,2024-08-24_15h42.57.918,IAT(Formal),2021.2.3,Win32,58.82352941,,,,,,,,,,,,,,,,,,,,,,,,,,,,,,,,,,,,,,,,,,,,,,,,,,,,,,,,,,,,,,,,,
,,,,e,1,0.4972,0,5,5,4,1,俺,e,1,001,2024-08-24_15h42.57.918,IAT(Formal),2021.2.3,Win32,58.82352941,,,,,,,,,,,,,,,,,,,,,,,,,,,,,,,,,,,,,,,,,,,,,,,,,,,,,,,,,,,,,,,,,
,,,,e,1,0.4297,0,6,6,0,1,我,e,1,001,2024-08-24_15h42.57.918,IAT(Formal),2021.2.3,Win32,58.82352941,,,,,,,,,,,,,,,,,,,,,,,,,,,,,,,,,,,,,,,,,,,,,,,,,,,,,,,,,,,,,,,,,
,,,,e,1,0.4353,0,7,7,1,1,我的,e,1,001,2024-08-24_15h42.57.918,IAT(Formal),2021.2.3,Win32,58.82352941,,,,,,,,,,,,,,,,,,,,,,,,,,,,,,,,,,,,,,,,,,,,,,,,,,,,,,,,,,,,,,,,,
,,,,e,1,0.552,0,8,8,3,1,自己,e,1,001,2024-08-24_15h42.57.918,IAT(Formal),2021.2.3,Win32,58.82352941,,,,,,,,,,,,,,,,,,,,,,,,,,,,,,,,,,,,,,,,,,,,,,,,,,,,,,,,,,,,,,,,,
,,,,e,1,0.4198,0,9,9,2,1,我们,e,1,001,2024-08-24_15h42.57.918,IAT(Formal),2021.2.3,Win32,58.82352941,,,,,,,,,,,,,,,,,,,,,,,,,,,,,,,,,,,,,,,,,,,,,,,,,,,,,,,,,,,,,,,,,
,,,,,,,,,,,,,,1,001,2024-08-24_15h42.57.918,IAT(Formal),2021.2.3,Win32,58.82352941,space,7.0094,i,1,0.45,0,0,0,32,1,凶狠,i,,,,,,,,,,,,,,,,,,,,,,,,,,,,,,,,,,,,,,,,,,,,,,,,,,,,,
,,,,,,,,,,,,,,1,001,2024-08-24_15h42.57.918,IAT(Formal),2021.2.3,Win32,58.82352941,,,e,1,0.5511,0,1,1,7,1,勇敢,e,,,,,,,,,,,,,,,,,,,,,,,,,,,,,,,,,,,,,,,,,,,,,,,,,,,,,
,,,,,,,,,,,,,,1,001,2024-08-24_15h42.57.918,IAT(Formal),2021.2.3,Win32,58.82352941,,,e,1,0.8187,0,2,2,6,1,正直,e,,,,,,,,,,,,,,,,,,,,,,,,,,,,,,,,,,,,,,,,,,,,,,,,,,,,,
,,,,,,,,,,,,,,1,001,2024-08-24_15h42.57.918,IAT(Formal),2021.2.3,Win32,58.82352941,,,i,1,0.6844,0,3,3,29,1,冒失,i,,,,,,,,,,,,,,,,,,,,,,,,,,,,,,,,,,,,,,,,,,,,,,,,,,,,,
,,,,,,,,,,,,,,1,001,2024-08-24_15h42.57.918,IAT(Formal),2021.2.3,Win32,58.82352941,,,i,1,0.4384,0,4,4,39,1,下贱,i,,,,,,,,,,,,,,,,,,,,,,,,,,,,,,,,,,,,,,,,,,,,,,,,,,,,,
,,,,,,,,,,,,,,1,001,2024-08-24_15h42.57.918,IAT(Formal),2021.2.3,Win32,58.82352941,,,i,1,0.4356,0,5,5,26,1,自卑,i,,,,,,,,,,,,,,,,,,,,,,,,,,,,,,,,,,,,,,,,,,,,,,,,,,,,,
,,,,,,,,,,,,,,1,001,2024-08-24_15h42.57.918,IAT(Formal),2021.2.3,Win32,58.82352941,,,i,1,0.6072,0,6,6,36,1,野蛮,i,,,,,,,,,,,,,,,,,,,,,,,,,,,,,,,,,,,,,,,,,,,,,,,,,,,,,
,,,,,,,,,,,,,,1,001,2024-08-24_15h42.57.918,IAT(Formal),2021.2.3,Win32,58.82352941,,,i,1,0.4781,0,7,7,27,1,傲慢,i,,,,,,,,,,,,,,,,,,,,,,,,,,,,,,,,,,,,,,,,,,,,,,,,,,,,,
,,,,,,,,,,,,,,1,001,2024-08-24_15h42.57.918,IAT(Formal),2021.2.3,Win32,58.82352941,,,i,1,0.5028,0,8,8,25,1,消极,i,,,,,,,,,,,,,,,,,,,,,,,,,,,,,,,,,,,,,,,,,,,,,,,,,,,,,
,,,,,,,,,,,,,,1,001,2024-08-24_15h42.57.918,IAT(Formal),2021.2.3,Win32,58.82352941,,,e,1,0.4994,0,9,9,2,1,聪明,e,,,,,,,,,,,,,,,,,,,,,,,,,,,,,,,,,,,,,,,,,,,,,,,,,,,,,
,,,,,,,,,,,,,,1,001,2024-08-24_15h42.57.918,IAT(Formal),2021.2.3,Win32,58.82352941,,,e,1,0.4045,0,10,10,13,1,公正,e,,,,,,,,,,,,,,,,,,,,,,,,,,,,,,,,,,,,,,,,,,,,,,,,,,,,,
,,,,,,,,,,,,,,1,001,2024-08-24_15h42.57.918,IAT(Formal),2021.2.3,Win32,58.82352941,,,i,1,0.6692,0,11,11,31,1,散漫,i,,,,,,,,,,,,,,,,,,,,,,,,,,,,,,,,,,,,,,,,,,,,,,,,,,,,,
,,,,,,,,,,,,,,1,001,2024-08-24_15h42.57.918,IAT(Formal),2021.2.3,Win32,58.82352941,,,e,1,0.7377,0,12,12,1,1,崇高,e,,,,,,,,,,,,,,,,,,,,,,,,,,,,,,,,,,,,,,,,,,,,,,,,,,,,,
,,,,,,,,,,,,,,1,001,2024-08-24_15h42.57.918,IAT(Formal),2021.2.3,Win32,58.82352941,,,e,1,0.6186,0,13,13,16,1,冷静,e,,,,,,,,,,,,,,,,,,,,,,,,,,,,,,,,,,,,,,,,,,,,,,,,,,,,,
,,,,,,,,,,,,,,1,001,2024-08-24_15h42.57.918,IAT(Formal),2021.2.3,Win32,58.82352941,,,e,1,0.4963,0,14,14,8,1,勤奋,e,,,,,,,,,,,,,,,,,,,,,,,,,,,,,,,,,,,,,,,,,,,,,,,,,,,,,
,,,,,,,,,,,,,,1,001,2024-08-24_15h42.57.918,IAT(Formal),2021.2.3,Win32,58.82352941,,,i,1,0.6738,0,15,15,33,1,自私,i,,,,,,,,,,,,,,,,,,,,,,,,,,,,,,,,,,,,,,,,,,,,,,,,,,,,,
,,,,,,,,,,,,,,1,001,2024-08-24_15h42.57.918,IAT(Formal),2021.2.3,Win32,58.82352941,,,i,1,0.7232,0,16,16,38,1,轻率,i,,,,,,,,,,,,,,,,,,,,,,,,,,,,,,,,,,,,,,,,,,,,,,,,,,,,,
,,,,,,,,,,,,,,1,001,2024-08-24_15h42.57.918,IAT(Formal),2021.2.3,Win32,58.82352941,,,i,1,0.5997,0,17,17,30,1,执拗,i,,,,,,,,,,,,,,,,,,,,,,,,,,,,,,,,,,,,,,,,,,,,,,,,,,,,,
,,,,,,,,,,,,,,1,001,2024-08-24_15h42.57.918,IAT(Formal),2021.2.3,Win32,58.82352941,,,i,1,0.5536,0,18,18,21,1,虚伪,i,,,,,,,,,,,,,,,,,,,,,,,,,,,,,,,,,,,,,,,,,,,,,,,,,,,,,
,,,,,,,,,,,,,,1,001,2024-08-24_15h42.57.918,IAT(Formal),2021.2.3,Win32,58.82352941,,,i,1,0.4855,0,19,19,37,1,固执,i,,,,,,,,,,,,,,,,,,,,,,,,,,,,,,,,,,,,,,,,,,,,,,,,,,,,,
,,,,,,,,,,,,,,1,001,2024-08-24_15h42.57.918,IAT(Formal),2021.2.3,Win32,58.82352941,,,e,1,0.483,0,20,20,0,1,优秀,e,,,,,,,,,,,,,,,,,,,,,,,,,,,,,,,,,,,,,,,,,,,,,,,,,,,,,
,,,,,,,,,,,,,,1,001,2024-08-24_15h42.57.918,IAT(Formal),2021.2.3,Win32,58.82352941,,,e,1,0.4241,0,21,21,17,1,热情,e,,,,,,,,,,,,,,,,,,,,,,,,,,,,,,,,,,,,,,,,,,,,,,,,,,,,,
,,,,,,,,,,,,,,1,001,2024-08-24_15h42.57.918,IAT(Formal),2021.2.3,Win32,58.82352941,,,e,1,0.4836,0,22,22,19,1,诚恳,e,,,,,,,,,,,,,,,,,,,,,,,,,,,,,,,,,,,,,,,,,,,,,,,,,,,,,
,,,,,,,,,,,,,,1,001,2024-08-24_15h42.57.918,IAT(Formal),2021.2.3,Win32,58.82352941,,,e,1,0.3687,0,23,23,10,1,认真,e,,,,,,,,,,,,,,,,,,,,,,,,,,,,,,,,,,,,,,,,,,,,,,,,,,,,,
,,,,,,,,,,,,,,1,001,2024-08-24_15h42.57.918,IAT(Formal),2021.2.3,Win32,58.82352941,,,i,1,0.501,0,24,24,34,1,暴躁,i,,,,,,,,,,,,,,,,,,,,,,,,,,,,,,,,,,,,,,,,,,,,,,,,,,,,,
,,,,,,,,,,,,,,1,001,2024-08-24_15h42.57.918,IAT(Formal),2021.2.3,Win32,58.82352941,,,e,1,0.4996,0,25,25,9,1,机智,e,,,,,,,,,,,,,,,,,,,,,,,,,,,,,,,,,,,,,,,,,,,,,,,,,,,,,
,,,,,,,,,,,,,,1,001,2024-08-24_15h42.57.918,IAT(Formal),2021.2.3,Win32,58.82352941,,,i,1,0.6399,0,26,26,22,1,愚蠢,i,,,,,,,,,,,,,,,,,,,,,,,,,,,,,,,,,,,,,,,,,,,,,,,,,,,,,
,,,,,,,,,,,,,,1,001,2024-08-24_15h42.57.918,IAT(Formal),2021.2.3,Win32,58.82352941,,,e,1,0.6001,0,27,27,15,1,细腻,e,,,,,,,,,,,,,,,,,,,,,,,,,,,,,,,,,,,,,,,,,,,,,,,,,,,,,
,,,,,,,,,,,,,,1,001,2024-08-24_15h42.57.918,IAT(Formal),2021.2.3,Win32,58.82352941,,,e,1,0.7262,0,28,28,12,1,无私,e,,,,,,,,,,,,,,,,,,,,,,,,,,,,,,,,,,,,,,,,,,,,,,,,,,,,,
,,,,,,,,,,,,,,1,001,2024-08-24_15h42.57.918,IAT(Formal),2021.2.3,Win32,58.82352941,,,i,1,0.7009,0,29,29,28,1,鲁莽,i,,,,,,,,,,,,,,,,,,,,,,,,,,,,,,,,,,,,,,,,,,,,,,,,,,,,,
,,,,,,,,,,,,,,1,001,2024-08-24_15h42.57.918,IAT(Formal),2021.2.3,Win32,58.82352941,,,e,1,0.5373,0,30,30,11,1,稳重,e,,,,,,,,,,,,,,,,,,,,,,,,,,,,,,,,,,,,,,,,,,,,,,,,,,,,,
,,,,,,,,,,,,,,1,001,2024-08-24_15h42.57.918,IAT(Formal),2021.2.3,Win32,58.82352941,,,i,1,0.5518,0,31,31,20,1,卑鄙,i,,,,,,,,,,,,,,,,,,,,,,,,,,,,,,,,,,,,,,,,,,,,,,,,,,,,,
,,,,,,,,,,,,,,1,001,2024-08-24_15h42.57.918,IAT(Formal),2021.2.3,Win32,58.82352941,,,e,1,0.4395,0,32,32,4,1,乐观,e,,,,,,,,,,,,,,,,,,,,,,,,,,,,,,,,,,,,,,,,,,,,,,,,,,,,,
,,,,,,,,,,,,,,1,001,2024-08-24_15h42.57.918,IAT(Formal),2021.2.3,Win32,58.82352941,,,e,1,0.4535,0,33,33,5,1,诚实,e,,,,,,,,,,,,,,,,,,,,,,,,,,,,,,,,,,,,,,,,,,,,,,,,,,,,,
,,,,,,,,,,,,,,1,001,2024-08-24_15h42.57.918,IAT(Formal),2021.2.3,Win32,58.82352941,,,e,1,0.4173,0,34,34,14,1,朴实,e,,,,,,,,,,,,,,,,,,,,,,,,,,,,,,,,,,,,,,,,,,,,,,,,,,,,,
,,,,,,,,,,,,,,1,001,2024-08-24_15h42.57.918,IAT(Formal),2021.2.3,Win32,58.82352941,,,i,1,0.4859,0,35,35,35,1,猖狂,i,,,,,,,,,,,,,,,,,,,,,,,,,,,,,,,,,,,,,,,,,,,,,,,,,,,,,
,,,,,,,,,,,,,,1,001,2024-08-24_15h42.57.918,IAT(Formal),2021.2.3,Win32,58.82352941,,,e,1,0.6053,0,36,36,3,1,杰出,e,,,,,,,,,,,,,,,,,,,,,,,,,,,,,,,,,,,,,,,,,,,,,,,,,,,,,
,,,,,,,,,,,,,,1,001,2024-08-24_15h42.57.918,IAT(Formal),2021.2.3,Win32,58.82352941,,,e,1,0.4625,0,37,37,18,1,活泼,e,,,,,,,,,,,,,,,,,,,,,,,,,,,,,,,,,,,,,,,,,,,,,,,,,,,,,
,,,,,,,,,,,,,,1,001,2024-08-24_15h42.57.918,IAT(Formal),2021.2.3,Win32,58.82352941,,,i,1,0.5962,0,38,38,23,1,刻薄,i,,,,,,,,,,,,,,,,,,,,,,,,,,,,,,,,,,,,,,,,,,,,,,,,,,,,,
,,,,,,,,,,,,,,1,001,2024-08-24_15h42.57.918,IAT(Formal),2021.2.3,Win32,58.82352941,,,i,1,0.5888,0,39,39,24,1,悲观,i,,,,,,,,,,,,,,,,,,,,,,,,,,,,,,,,,,,,,,,,,,,,,,,,,,,,,
,,,,,,,,,,,,,,1,001,2024-08-24_15h42.57.918,IAT(Formal),2021.2.3,Win32,58.82352941,,,,,,,,,,,,,space,8.3238,e,1,0.5677,0,0,0,21,1,稳重,e,,,,,,,,,,,,,,,,,,,,,,,,,,,,,,,,,,,,,,,,,
,,,,,,,,,,,,,,1,001,2024-08-24_15h42.57.918,IAT(Formal),2021.2.3,Win32,58.82352941,,,,,,,,,,,,,,,i,1,0.5845,0,1,1,44,1,暴躁,i,,,,,,,,,,,,,,,,,,,,,,,,,,,,,,,,,,,,,,,,,
,,,,,,,,,,,,,,1,001,2024-08-24_15h42.57.918,IAT(Formal),2021.2.3,Win32,58.82352941,,,,,,,,,,,,,,,i,1,0.4546,0,2,2,75,1,他,i,,,,,,,,,,,,,,,,,,,,,,,,,,,,,,,,,,,,,,,,,
,,,,,,,,,,,,,,1,001,2024-08-24_15h42.57.918,IAT(Formal),2021.2.3,Win32,58.82352941,,,,,,,,,,,,,,,e,1,0.4642,0,3,3,64,1,俺,e,,,,,,,,,,,,,,,,,,,,,,,,,,,,,,,,,,,,,,,,,
,,,,,,,,,,,,,,1,001,2024-08-24_15h42.57.918,IAT(Formal),2021.2.3,Win32,58.82352941,,,,,,,,,,,,,,,e,1,0.3672,0,4,4,51,1,我的,e,,,,,,,,,,,,,,,,,,,,,,,,,,,,,,,,,,,,,,,,,
,,,,,,,,,,,,,,1,001,2024-08-24_15h42.57.918,IAT(Formal),2021.2.3,Win32,58.82352941,,,,,,,,,,,,,,,i,1,0.4277,0,5,5,66,1,他们,i,,,,,,,,,,,,,,,,,,,,,,,,,,,,,,,,,,,,,,,,,
,,,,,,,,,,,,,,1,001,2024-08-24_15h42.57.918,IAT(Formal),2021.2.3,Win32,58.82352941,,,,,,,,,,,,,,,e,1,0.4437,0,6,6,22,1,无私,e,,,,,,,,,,,,,,,,,,,,,,,,,,,,,,,,,,,,,,,,,
,,,,,,,,,,,,,,1,001,2024-08-24_15h42.57.918,IAT(Formal),2021.2.3,Win32,58.82352941,,,,,,,,,,,,,,,e,1,0.4385,0,7,7,14,1,乐观,e,,,,,,,,,,,,,,,,,,,,,,,,,,,,,,,,,,,,,,,,,
,,,,,,,,,,,,,,1,001,2024-08-24_15h42.57.918,IAT(Formal),2021.2.3,Win32,58.82352941,,,,,,,,,,,,,,,i,1,0.4548,0,8,8,6,1,他们,i,,,,,,,,,,,,,,,,,,,,,,,,,,,,,,,,,,,,,,,,,
,,,,,,,,,,,,,,1,001,2024-08-24_15h42.57.918,IAT(Formal),2021.2.3,Win32,58.82352941,,,,,,,,,,,,,,,e,1,0.7013,0,9,9,19,1,机智,e,,,,,,,,,,,,,,,,,,,,,,,,,,,,,,,,,,,,,,,,,
,,,,,,,,,,,,,,1,001,2024-08-24_15h42.57.918,IAT(Formal),2021.2.3,Win32,58.82352941,,,,,,,,,,,,,,,i,1,0.7329,0,10,10,39,1,冒失,i,,,,,,,,,,,,,,,,,,,,,,,,,,,,,,,,,,,,,,,,,
,,,,,,,,,,,,,,1,001,2024-08-24_15h42.57.918,IAT(Formal),2021.2.3,Win32,58.82352941,,,,,,,,,,,,,,,i,1,0.4744,0,11,11,40,1,执拗,i,,,,,,,,,,,,,,,,,,,,,,,,,,,,,,,,,,,,,,,,,
,,,,,,,,,,,,,,1,001,2024-08-24_15h42.57.918,IAT(Formal),2021.2.3,Win32,58.82352941,,,,,,,,,,,,,,,i,1,0.5166,0,12,12,9,1,其他,i,,,,,,,,,,,,,,,,,,,,,,,,,,,,,,,,,,,,,,,,,
,,,,,,,,,,,,,,1,001,2024-08-24_15h42.57.918,IAT(Formal),2021.2.3,Win32,58.82352941,,,,,,,,,,,,,,,i,1,0.3667,0,13,13,77,1,他的,i,,,,,,,,,,,,,,,,,,,,,,,,,,,,,,,,,,,,,,,,,
,,,,,,,,,,,,,,1,001,2024-08-24_15h42.57.918,IAT(Formal),2021.2.3,Win32,58.82352941,,,,,,,,,,,,,,,i,1,0.4676,0,14,14,38,1,鲁莽,i,,,,,,,,,,,,,,,,,,,,,,,,,,,,,,,,,,,,,,,,,
,,,,,,,,,,,,,,1,001,2024-08-24_15h42.57.918,IAT(Formal),2021.2.3,Win32,58.82352941,,,,,,,,,,,,,,,e,1,0.5338,0,15,15,15,1,诚实,e,,,,,,,,,,,,,,,,,,,,,,,,,,,,,,,,,,,,,,,,,
,,,,,,,,,,,,,,1,001,2024-08-24_15h42.57.918,IAT(Formal),2021.2.3,Win32,58.82352941,,,,,,,,,,,,,,,e,1,0.4357,0,16,16,29,1,诚恳,e,,,,,,,,,,,,,,,,,,,,,,,,,,,,,,,,,,,,,,,,,
,,,,,,,,,,,,,,1,001,2024-08-24_15h42.57.918,IAT(Formal),2021.2.3,Win32,58.82352941,,,,,,,,,,,,,,,i,1,0.5343,0,17,17,33,1,刻薄,i,,,,,,,,,,,,,,,,,,,,,,,,,,,,,,,,,,,,,,,,,
,,,,,,,,,,,,,,1,001,2024-08-24_15h42.57.918,IAT(Formal),2021.2.3,Win32,58.82352941,,,,,,,,,,,,,,,e,1,0.4402,0,18,18,10,1,优秀,e,,,,,,,,,,,,,,,,,,,,,,,,,,,,,,,,,,,,,,,,,
,,,,,,,,,,,,,,1,001,2024-08-24_15h42.57.918,IAT(Formal),2021.2.3,Win32,58.82352941,,,,,,,,,,,,,,,i,1,0.4348,0,19,19,57,1,他的,i,,,,,,,,,,,,,,,,,,,,,,,,,,,,,,,,,,,,,,,,,
,,,,,,,,,,,,,,1,001,2024-08-24_15h42.57.918,IAT(Formal),2021.2.3,Win32,58.82352941,,,,,,,,,,,,,,,i,1,0.4669,0,20,20,8,1,他人,i,,,,,,,,,,,,,,,,,,,,,,,,,,,,,,,,,,,,,,,,,
,,,,,,,,,,,,,,1,001,2024-08-24_15h42.57.918,IAT(Formal),2021.2.3,Win32,58.82352941,,,,,,,,,,,,,,,e,1,0.6634,0,21,21,20,1,认真,e,,,,,,,,,,,,,,,,,,,,,,,,,,,,,,,,,,,,,,,,,
,,,,,,,,,,,,,,1,001,2024-08-24_15h42.57.918,IAT(Formal),2021.2.3,Win32,58.82352941,,,,,,,,,,,,,,,e,0,0.4512,0,22,22,55,1,他,i,,,,,,,,,,,,,,,,,,,,,,,,,,,,,,,,,,,,,,,,,
,,,,,,,,,,,,,,1,001,2024-08-24_15h42.57.918,IAT(Formal),2021.2.3,Win32,58.82352941,,,,,,,,,,,,,,,i,1,0.475,0,23,23,76,1,他们,i,,,,,,,,,,,,,,,,,,,,,,,,,,,,,,,,,,,,,,,,,
,,,,,,,,,,,,,,1,001,2024-08-24_15h42.57.918,IAT(Formal),2021.2.3,Win32,58.82352941,,,,,,,,,,,,,,,e,1,0.5004,0,24,24,4,1,俺,e,,,,,,,,,,,,,,,,,,,,,,,,,,,,,,,,,,,,,,,,,
,,,,,,,,,,,,,,1,001,2024-08-24_15h42.57.918,IAT(Formal),2021.2.3,Win32,58.82352941,,,,,,,,,,,,,,,e,1,0.5117,0,25,25,53,1,自己,e,,,,,,,,,,,,,,,,,,,,,,,,,,,,,,,,,,,,,,,,,
,,,,,,,,,,,,,,1,001,2024-08-24_15h42.57.918,IAT(Formal),2021.2.3,Win32,58.82352941,,,,,,,,,,,,,,,e,1,0.5662,0,26,26,24,1,朴实,e,,,,,,,,,,,,,,,,,,,,,,,,,,,,,,,,,,,,,,,,,
,,,,,,,,,,,,,,1,001,2024-08-24_15h42.57.918,IAT(Formal),2021.2.3,Win32,58.82352941,,,,,,,,,,,,,,,i,1,0.4924,0,27,27,35,1,消极,i,,,,,,,,,,,,,,,,,,,,,,,,,,,,,,,,,,,,,,,,,
,,,,,,,,,,,,,,1,001,2024-08-24_15h42.57.918,IAT(Formal),2021.2.3,Win32,58.82352941,,,,,,,,,,,,,,,e,1,0.7607,0,28,28,23,1,公正,e,,,,,,,,,,,,,,,,,,,,,,,,,,,,,,,,,,,,,,,,,
,,,,,,,,,,,,,,1,001,2024-08-24_15h42.57.918,IAT(Formal),2021.2.3,Win32,58.82352941,,,,,,,,,,,,,,,e,1,0.5101,0,29,29,74,1,俺,e,,,,,,,,,,,,,,,,,,,,,,,,,,,,,,,,,,,,,,,,,
,,,,,,,,,,,,,,1,001,2024-08-24_15h42.57.918,IAT(Formal),2021.2.3,Win32,58.82352941,,,,,,,,,,,,,,,e,1,0.4864,0,30,30,62,1,我们,e,,,,,,,,,,,,,,,,,,,,,,,,,,,,,,,,,,,,,,,,,
,,,,,,,,,,,,,,1,001,2024-08-24_15h42.57.918,IAT(Formal),2021.2.3,Win32,58.82352941,,,,,,,,,,,,,,,e,1,0.5504,0,31,31,16,1,正直,e,,,,,,,,,,,,,,,,,,,,,,,,,,,,,,,,,,,,,,,,,
,,,,,,,,,,,,,,1,001,2024-08-24_15h42.57.918,IAT(Formal),2021.2.3,Win32,58.82352941,,,,,,,,,,,,,,,e,1,0.4199,0,32,32,50,1,我,e,,,,,,,,,,,,,,,,,,,,,,,,,,,,,,,,,,,,,,,,,
,,,,,,,,,,,,,,1,001,2024-08-24_15h42.57.918,IAT(Formal),2021.2.3,Win32,58.82352941,,,,,,,,,,,,,,,e,1,0.3855,0,33,33,73,1,自己,e,,,,,,,,,,,,,,,,,,,,,,,,,,,,,,,,,,,,,,,,,
,,,,,,,,,,,,,,1,001,2024-08-24_15h42.57.918,IAT(Formal),2021.2.3,Win32,58.82352941,,,,,,,,,,,,,,,i,1,0.4542,0,34,34,58,1,他人,i,,,,,,,,,,,,,,,,,,,,,,,,,,,,,,,,,,,,,,,,,
,,,,,,,,,,,,,,1,001,2024-08-24_15h42.57.918,IAT(Formal),2021.2.3,Win32,58.82352941,,,,,,,,,,,,,,,e,1,0.6172,0,35,35,27,1,热情,e,,,,,,,,,,,,,,,,,,,,,,,,,,,,,,,,,,,,,,,,,
,,,,,,,,,,,,,,1,001,2024-08-24_15h42.57.918,IAT(Formal),2021.2.3,Win32,58.82352941,,,,,,,,,,,,,,,e,1,0.5071,0,36,36,13,1,杰出,e,,,,,,,,,,,,,,,,,,,,,,,,,,,,,,,,,,,,,,,,,
,,,,,,,,,,,,,,1,001,2024-08-24_15h42.57.918,IAT(Formal),2021.2.3,Win32,58.82352941,,,,,,,,,,,,,,,i,1,0.5462,0,37,37,36,1,自卑,i,,,,,,,,,,,,,,,,,,,,,,,,,,,,,,,,,,,,,,,,,
,,,,,,,,,,,,,,1,001,2024-08-24_15h42.57.918,IAT(Formal),2021.2.3,Win32,58.82352941,,,,,,,,,,,,,,,i,1,0.6161,0,38,38,34,1,悲观,i,,,,,,,,,,,,,,,,,,,,,,,,,,,,,,,,,,,,,,,,,
,,,,,,,,,,,,,,1,001,2024-08-24_15h42.57.918,IAT(Formal),2021.2.3,Win32,58.82352941,,,,,,,,,,,,,,,i,1,0.5353,0,39,39,48,1,轻率,i,,,,,,,,,,,,,,,,,,,,,,,,,,,,,,,,,,,,,,,,,
,,,,,,,,,,,,,,1,001,2024-08-24_15h42.57.918,IAT(Formal),2021.2.3,Win32,58.82352941,,,,,,,,,,,,,,,i,1,0.483,0,40,40,7,1,他的,i,,,,,,,,,,,,,,,,,,,,,,,,,,,,,,,,,,,,,,,,,
,,,,,,,,,,,,,,1,001,2024-08-24_15h42.57.918,IAT(Formal),2021.2.3,Win32,58.82352941,,,,,,,,,,,,,,,i,1,0.3688,0,41,41,68,1,他人,i,,,,,,,,,,,,,,,,,,,,,,,,,,,,,,,,,,,,,,,,,
,,,,,,,,,,,,,,1,001,2024-08-24_15h42.57.918,IAT(Formal),2021.2.3,Win32,58.82352941,,,,,,,,,,,,,,,i,1,0.5082,0,42,42,42,1,凶狠,i,,,,,,,,,,,,,,,,,,,,,,,,,,,,,,,,,,,,,,,,,
,,,,,,,,,,,,,,1,001,2024-08-24_15h42.57.918,IAT(Formal),2021.2.3,Win32,58.82352941,,,,,,,,,,,,,,,i,1,0.4175,0,43,43,47,1,固执,i,,,,,,,,,,,,,,,,,,,,,,,,,,,,,,,,,,,,,,,,,
,,,,,,,,,,,,,,1,001,2024-08-24_15h42.57.918,IAT(Formal),2021.2.3,Win32,58.82352941,,,,,,,,,,,,,,,i,0,0.5333,0,44,44,26,1,冷静,e,,,,,,,,,,,,,,,,,,,,,,,,,,,,,,,,,,,,,,,,,
,,,,,,,,,,,,,,1,001,2024-08-24_15h42.57.918,IAT(Formal),2021.2.3,Win32,58.82352941,,,,,,,,,,,,,,,i,1,0.5192,0,45,45,5,1,他,i,,,,,,,,,,,,,,,,,,,,,,,,,,,,,,,,,,,,,,,,,
,,,,,,,,,,,,,,1,001,2024-08-24_15h42.57.918,IAT(Formal),2021.2.3,Win32,58.82352941,,,,,,,,,,,,,,,e,1,0.4793,0,46,46,61,1,我的,e,,,,,,,,,,,,,,,,,,,,,,,,,,,,,,,,,,,,,,,,,
,,,,,,,,,,,,,,1,001,2024-08-24_15h42.57.918,IAT(Formal),2021.2.3,Win32,58.82352941,,,,,,,,,,,,,,,i,1,0.5354,0,47,47,49,1,下贱,i,,,,,,,,,,,,,,,,,,,,,,,,,,,,,,,,,,,,,,,,,
,,,,,,,,,,,,,,1,001,2024-08-24_15h42.57.918,IAT(Formal),2021.2.3,Win32,58.82352941,,,,,,,,,,,,,,,i,1,0.5349,0,48,48,45,1,猖狂,i,,,,,,,,,,,,,,,,,,,,,,,,,,,,,,,,,,,,,,,,,
,,,,,,,,,,,,,,1,001,2024-08-24_15h42.57.918,IAT(Formal),2021.2.3,Win32,58.82352941,,,,,,,,,,,,,,,i,1,0.5008,0,49,49,30,1,卑鄙,i,,,,,,,,,,,,,,,,,,,,,,,,,,,,,,,,,,,,,,,,,
,,,,,,,,,,,,,,1,001,2024-08-24_15h42.57.918,IAT(Formal),2021.2.3,Win32,58.82352941,,,,,,,,,,,,,,,e,1,0.5036,0,50,50,2,1,我们,e,,,,,,,,,,,,,,,,,,,,,,,,,,,,,,,,,,,,,,,,,
,,,,,,,,,,,,,,1,001,2024-08-24_15h42.57.918,IAT(Formal),2021.2.3,Win32,58.82352941,,,,,,,,,,,,,,,e,1,0.4188,0,51,51,72,1,我们,e,,,,,,,,,,,,,,,,,,,,,,,,,,,,,,,,,,,,,,,,,
,,,,,,,,,,,,,,1,001,2024-08-24_15h42.57.918,IAT(Formal),2021.2.3,Win32,58.82352941,,,,,,,,,,,,,,,e,1,0.5921,0,52,52,25,1,细腻,e,,,,,,,,,,,,,,,,,,,,,,,,,,,,,,,,,,,,,,,,,
,,,,,,,,,,,,,,1,001,2024-08-24_15h42.57.918,IAT(Formal),2021.2.3,Win32,58.82352941,,,,,,,,,,,,,,,i,1,0.5075,0,53,53,46,1,野蛮,i,,,,,,,,,,,,,,,,,,,,,,,,,,,,,,,,,,,,,,,,,
,,,,,,,,,,,,,,1,001,2024-08-24_15h42.57.918,IAT(Formal),2021.2.3,Win32,58.82352941,,,,,,,,,,,,,,,e,1,0.4549,0,54,54,3,1,自己,e,,,,,,,,,,,,,,,,,,,,,,,,,,,,,,,,,,,,,,,,,
,,,,,,,,,,,,,,1,001,2024-08-24_15h42.57.918,IAT(Formal),2021.2.3,Win32,58.82352941,,,,,,,,,,,,,,,e,1,0.3214,0,55,55,0,1,我,e,,,,,,,,,,,,,,,,,,,,,,,,,,,,,,,,,,,,,,,,,
,,,,,,,,,,,,,,1,001,2024-08-24_15h42.57.918,IAT(Formal),2021.2.3,Win32,58.82352941,,,,,,,,,,,,,,,i,1,0.3625,0,56,56,59,1,其他,i,,,,,,,,,,,,,,,,,,,,,,,,,,,,,,,,,,,,,,,,,
,,,,,,,,,,,,,,1,001,2024-08-24_15h42.57.918,IAT(Formal),2021.2.3,Win32,58.82352941,,,,,,,,,,,,,,,i,1,0.4465,0,57,57,65,1,他,i,,,,,,,,,,,,,,,,,,,,,,,,,,,,,,,,,,,,,,,,,
,,,,,,,,,,,,,,1,001,2024-08-24_15h42.57.918,IAT(Formal),2021.2.3,Win32,58.82352941,,,,,,,,,,,,,,,i,1,0.3579,0,58,58,67,1,他的,i,,,,,,,,,,,,,,,,,,,,,,,,,,,,,,,,,,,,,,,,,
,,,,,,,,,,,,,,1,001,2024-08-24_15h42.57.918,IAT(Formal),2021.2.3,Win32,58.82352941,,,,,,,,,,,,,,,i,0,0.3456,0,59,59,52,1,我们,e,,,,,,,,,,,,,,,,,,,,,,,,,,,,,,,,,,,,,,,,,
,,,,,,,,,,,,,,1,001,2024-08-24_15h42.57.918,IAT(Formal),2021.2.3,Win32,58.82352941,,,,,,,,,,,,,,,e,1,0.5877,0,60,60,18,1,勤奋,e,,,,,,,,,,,,,,,,,,,,,,,,,,,,,,,,,,,,,,,,,
,,,,,,,,,,,,,,1,001,2024-08-24_15h42.57.918,IAT(Formal),2021.2.3,Win32,58.82352941,,,,,,,,,,,,,,,i,1,0.6278,0,61,61,56,1,他们,i,,,,,,,,,,,,,,,,,,,,,,,,,,,,,,,,,,,,,,,,,
,,,,,,,,,,,,,,1,001,2024-08-24_15h42.57.918,IAT(Formal),2021.2.3,Win32,58.82352941,,,,,,,,,,,,,,,e,1,0.3889,0,62,62,1,1,我的,e,,,,,,,,,,,,,,,,,,,,,,,,,,,,,,,,,,,,,,,,,
,,,,,,,,,,,,,,1,001,2024-08-24_15h42.57.918,IAT(Formal),2021.2.3,Win32,58.82352941,,,,,,,,,,,,,,,e,1,0.3682,0,63,63,70,1,我,e,,,,,,,,,,,,,,,,,,,,,,,,,,,,,,,,,,,,,,,,,
,,,,,,,,,,,,,,1,001,2024-08-24_15h42.57.918,IAT(Formal),2021.2.3,Win32,58.82352941,,,,,,,,,,,,,,,i,1,0.5506,0,64,64,78,1,他人,i,,,,,,,,,,,,,,,,,,,,,,,,,,,,,,,,,,,,,,,,,
,,,,,,,,,,,,,,1,001,2024-08-24_15h42.57.918,IAT(Formal),2021.2.3,Win32,58.82352941,,,,,,,,,,,,,,,i,1,1.1693,0,65,65,43,1,自私,i,,,,,,,,,,,,,,,,,,,,,,,,,,,,,,,,,,,,,,,,,
,,,,,,,,,,,,,,1,001,2024-08-24_15h42.57.918,IAT(Formal),2021.2.3,Win32,58.82352941,,,,,,,,,,,,,,,e,1,0.9109,0,66,66,12,1,聪明,e,,,,,,,,,,,,,,,,,,,,,,,,,,,,,,,,,,,,,,,,,
,,,,,,,,,,,,,,1,001,2024-08-24_15h42.57.918,IAT(Formal),2021.2.3,Win32,58.82352941,,,,,,,,,,,,,,,e,1,0.4841,0,67,67,54,1,俺,e,,,,,,,,,,,,,,,,,,,,,,,,,,,,,,,,,,,,,,,,,
,,,,,,,,,,,,,,1,001,2024-08-24_15h42.57.918,IAT(Formal),2021.2.3,Win32,58.82352941,,,,,,,,,,,,,,,i,1,0.62,0,68,68,79,1,其他,i,,,,,,,,,,,,,,,,,,,,,,,,,,,,,,,,,,,,,,,,,
,,,,,,,,,,,,,,1,001,2024-08-24_15h42.57.918,IAT(Formal),2021.2.3,Win32,58.82352941,,,,,,,,,,,,,,,e,1,0.5219,0,69,69,17,1,勇敢,e,,,,,,,,,,,,,,,,,,,,,,,,,,,,,,,,,,,,,,,,,
,,,,,,,,,,,,,,1,001,2024-08-24_15h42.57.918,IAT(Formal),2021.2.3,Win32,58.82352941,,,,,,,,,,,,,,,i,1,0.8893,0,70,70,37,1,傲慢,i,,,,,,,,,,,,,,,,,,,,,,,,,,,,,,,,,,,,,,,,,
,,,,,,,,,,,,,,1,001,2024-08-24_15h42.57.918,IAT(Formal),2021.2.3,Win32,58.82352941,,,,,,,,,,,,,,,i,1,0.5075,0,71,71,32,1,愚蠢,i,,,,,,,,,,,,,,,,,,,,,,,,,,,,,,,,,,,,,,,,,
,,,,,,,,,,,,,,1,001,2024-08-24_15h42.57.918,IAT(Formal),2021.2.3,Win32,58.82352941,,,,,,,,,,,,,,,e,1,0.8265,0,72,72,71,1,我的,e,,,,,,,,,,,,,,,,,,,,,,,,,,,,,,,,,,,,,,,,,
,,,,,,,,,,,,,,1,001,2024-08-24_15h42.57.918,IAT(Formal),2021.2.3,Win32,58.82352941,,,,,,,,,,,,,,,i,1,0.4836,0,73,73,41,1,散漫,i,,,,,,,,,,,,,,,,,,,,,,,,,,,,,,,,,,,,,,,,,
,,,,,,,,,,,,,,1,001,2024-08-24_15h42.57.918,IAT(Formal),2021.2.3,Win32,58.82352941,,,,,,,,,,,,,,,e,1,0.4362,0,74,74,60,1,我,e,,,,,,,,,,,,,,,,,,,,,,,,,,,,,,,,,,,,,,,,,
,,,,,,,,,,,,,,1,001,2024-08-24_15h42.57.918,IAT(Formal),2021.2.3,Win32,58.82352941,,,,,,,,,,,,,,,i,0,0.4926,0,75,75,11,1,崇高,e,,,,,,,,,,,,,,,,,,,,,,,,,,,,,,,,,,,,,,,,,
,,,,,,,,,,,,,,1,001,2024-08-24_15h42.57.918,IAT(Formal),2021.2.3,Win32,58.82352941,,,,,,,,,,,,,,,e,1,0.5931,0,76,76,63,1,自己,e,,,,,,,,,,,,,,,,,,,,,,,,,,,,,,,,,,,,,,,,,
,,,,,,,,,,,,,,1,001,2024-08-24_15h42.57.918,IAT(Formal),2021.2.3,Win32,58.82352941,,,,,,,,,,,,,,,e,1,0.651,0,77,77,28,1,活泼,e,,,,,,,,,,,,,,,,,,,,,,,,,,,,,,,,,,,,,,,,,
,,,,,,,,,,,,,,1,001,2024-08-24_15h42.57.918,IAT(Formal),2021.2.3,Win32,58.82352941,,,,,,,,,,,,,,,i,1,0.4741,0,78,78,69,1,其他,i,,,,,,,,,,,,,,,,,,,,,,,,,,,,,,,,,,,,,,,,,
,,,,,,,,,,,,,,1,001,2024-08-24_15h42.57.918,IAT(Formal),2021.2.3,Win32,58.82352941,,,,,,,,,,,,,,,i,1,0.6105,0,79,79,31,1,虚伪,i,,,,,,,,,,,,,,,,,,,,,,,,,,,,,,,,,,,,,,,,,
,,,,,,,,,,,,,,1,001,2024-08-24_15h42.57.918,IAT(Formal),2021.2.3,Win32,58.82352941,,,,,,,,,,,,,,,i,1,0.6693,,,,,,他人,i,space,28.1432,0,0,0,58,1,,,,,,,,,,,,,,,,,,,,,,,,,,,,,,,,,,
,,,,,,,,,,,,,,1,001,2024-08-24_15h42.57.918,IAT(Formal),2021.2.3,Win32,58.82352941,,,,,,,,,,,,,,,e,1,0.5203,,,,,,认真,e,,,0,1,1,20,1,,,,,,,,,,,,,,,,,,,,,,,,,,,,,,,,,,
,,,,,,,,,,,,,,1,001,2024-08-24_15h42.57.918,IAT(Formal),2021.2.3,Win32,58.82352941,,,,,,,,,,,,,,,i,1,0.5057,,,,,,野蛮,i,,,0,2,2,46,1,,,,,,,,,,,,,,,,,,,,,,,,,,,,,,,,,,
,,,,,,,,,,,,,,1,001,2024-08-24_15h42.57.918,IAT(Formal),2021.2.3,Win32,58.82352941,,,,,,,,,,,,,,,e,1,0.4996,,,,,,正直,e,,,0,3,3,16,1,,,,,,,,,,,,,,,,,,,,,,,,,,,,,,,,,,
,,,,,,,,,,,,,,1,001,2024-08-24_15h42.57.918,IAT(Formal),2021.2.3,Win32,58.82352941,,,,,,,,,,,,,,,i,1,0.4398,,,,,,他的,i,,,0,4,4,7,1,,,,,,,,,,,,,,,,,,,,,,,,,,,,,,,,,,
,,,,,,,,,,,,,,1,001,2024-08-24_15h42.57.918,IAT(Formal),2021.2.3,Win32,58.82352941,,,,,,,,,,,,,,,i,1,0.6,,,,,,卑鄙,i,,,0,5,5,30,1,,,,,,,,,,,,,,,,,,,,,,,,,,,,,,,,,,
,,,,,,,,,,,,,,1,001,2024-08-24_15h42.57.918,IAT(Formal),2021.2.3,Win32,58.82352941,,,,,,,,,,,,,,,i,1,0.4335,,,,,,猖狂,i,,,0,6,6,45,1,,,,,,,,,,,,,,,,,,,,,,,,,,,,,,,,,,
,,,,,,,,,,,,,,1,001,2024-08-24_15h42.57.918,IAT(Formal),2021.2.3,Win32,58.82352941,,,,,,,,,,,,,,,i,1,0.4006,,,,,,他们,i,,,0,7,7,66,1,,,,,,,,,,,,,,,,,,,,,,,,,,,,,,,,,,
,,,,,,,,,,,,,,1,001,2024-08-24_15h42.57.918,IAT(Formal),2021.2.3,Win32,58.82352941,,,,,,,,,,,,,,,e,1,0.502,,,,,,勤奋,e,,,0,8,8,18,1,,,,,,,,,,,,,,,,,,,,,,,,,,,,,,,,,,
,,,,,,,,,,,,,,1,001,2024-08-24_15h42.57.918,IAT(Formal),2021.2.3,Win32,58.82352941,,,,,,,,,,,,,,,i,1,0.4024,,,,,,其他,i,,,0,9,9,9,1,,,,,,,,,,,,,,,,,,,,,,,,,,,,,,,,,,
,,,,,,,,,,,,,,1,001,2024-08-24_15h42.57.918,IAT(Formal),2021.2.3,Win32,58.82352941,,,,,,,,,,,,,,,e,1,0.3509,,,,,,我的,e,,,0,10,10,51,1,,,,,,,,,,,,,,,,,,,,,,,,,,,,,,,,,,
,,,,,,,,,,,,,,1,001,2024-08-24_15h42.57.918,IAT(Formal),2021.2.3,Win32,58.82352941,,,,,,,,,,,,,,,e,1,0.4669,,,,,,杰出,e,,,0,11,11,13,1,,,,,,,,,,,,,,,,,,,,,,,,,,,,,,,,,,
,,,,,,,,,,,,,,1,001,2024-08-24_15h42.57.918,IAT(Formal),2021.2.3,Win32,58.82352941,,,,,,,,,,,,,,,i,1,0.3695,,,,,,他们,i,,,0,12,12,6,1,,,,,,,,,,,,,,,,,,,,,,,,,,,,,,,,,,
,,,,,,,,,,,,,,1,001,2024-08-24_15h42.57.918,IAT(Formal),2021.2.3,Win32,58.82352941,,,,,,,,,,,,,,,i,1,0.4851,,,,,,其他,i,,,0,13,13,79,1,,,,,,,,,,,,,,,,,,,,,,,,,,,,,,,,,,
,,,,,,,,,,,,,,1,001,2024-08-24_15h42.57.918,IAT(Formal),2021.2.3,Win32,58.82352941,,,,,,,,,,,,,,,e,1,0.468,,,,,,聪明,e,,,0,14,14,12,1,,,,,,,,,,,,,,,,,,,,,,,,,,,,,,,,,,
,,,,,,,,,,,,,,1,001,2024-08-24_15h42.57.918,IAT(Formal),2021.2.3,Win32,58.82352941,,,,,,,,,,,,,,,e,1,0.4138,,,,,,诚恳,e,,,0,15,15,29,1,,,,,,,,,,,,,,,,,,,,,,,,,,,,,,,,,,
,,,,,,,,,,,,,,1,001,2024-08-24_15h42.57.918,IAT(Formal),2021.2.3,Win32,58.82352941,,,,,,,,,,,,,,,e,1,0.4748,,,,,,我,e,,,0,16,16,70,1,,,,,,,,,,,,,,,,,,,,,,,,,,,,,,,,,,
,,,,,,,,,,,,,,1,001,2024-08-24_15h42.57.918,IAT(Formal),2021.2.3,Win32,58.82352941,,,,,,,,,,,,,,,e,1,0.4756,,,,,,自己,e,,,0,17,17,53,1,,,,,,,,,,,,,,,,,,,,,,,,,,,,,,,,,,
,,,,,,,,,,,,,,1,001,2024-08-24_15h42.57.918,IAT(Formal),2021.2.3,Win32,58.82352941,,,,,,,,,,,,,,,e,1,0.5366,,,,,,公正,e,,,0,18,18,23,1,,,,,,,,,,,,,,,,,,,,,,,,,,,,,,,,,,
,,,,,,,,,,,,,,1,001,2024-08-24_15h42.57.918,IAT(Formal),2021.2.3,Win32,58.82352941,,,,,,,,,,,,,,,e,1,0.468,,,,,,细腻,e,,,0,19,19,25,1,,,,,,,,,,,,,,,,,,,,,,,,,,,,,,,,,,
,,,,,,,,,,,,,,1,001,2024-08-24_15h42.57.918,IAT(Formal),2021.2.3,Win32,58.82352941,,,,,,,,,,,,,,,e,1,0.4491,,,,,,我,e,,,0,20,20,50,1,,,,,,,,,,,,,,,,,,,,,,,,,,,,,,,,,,
,,,,,,,,,,,,,,1,001,2024-08-24_15h42.57.918,IAT(Formal),2021.2.3,Win32,58.82352941,,,,,,,,,,,,,,,i,1,0.552,,,,,,轻率,i,,,0,21,21,48,1,,,,,,,,,,,,,,,,,,,,,,,,,,,,,,,,,,
,,,,,,,,,,,,,,1,001,2024-08-24_15h42.57.918,IAT(Formal),2021.2.3,Win32,58.82352941,,,,,,,,,,,,,,,e,1,0.5482,,,,,,机智,e,,,0,22,22,19,1,,,,,,,,,,,,,,,,,,,,,,,,,,,,,,,,,,
,,,,,,,,,,,,,,1,001,2024-08-24_15h42.57.918,IAT(Formal),2021.2.3,Win32,58.82352941,,,,,,,,,,,,,,,e,1,0.4507,,,,,,俺,e,,,0,23,23,74,1,,,,,,,,,,,,,,,,,,,,,,,,,,,,,,,,,,
,,,,,,,,,,,,,,1,001,2024-08-24_15h42.57.918,IAT(Formal),2021.2.3,Win32,58.82352941,,,,,,,,,,,,,,,e,1,0.4207,,,,,,自己,e,,,0,24,24,63,1,,,,,,,,,,,,,,,,,,,,,,,,,,,,,,,,,,
,,,,,,,,,,,,,,1,001,2024-08-24_15h42.57.918,IAT(Formal),2021.2.3,Win32,58.82352941,,,,,,,,,,,,,,,i,1,0.4406,,,,,,虚伪,i,,,0,25,25,31,1,,,,,,,,,,,,,,,,,,,,,,,,,,,,,,,,,,
,,,,,,,,,,,,,,1,001,2024-08-24_15h42.57.918,IAT(Formal),2021.2.3,Win32,58.82352941,,,,,,,,,,,,,,,e,1,0.5057,,,,,,热情,e,,,0,26,26,27,1,,,,,,,,,,,,,,,,,,,,,,,,,,,,,,,,,,
,,,,,,,,,,,,,,1,001,2024-08-24_15h42.57.918,IAT(Formal),2021.2.3,Win32,58.82352941,,,,,,,,,,,,,,,e,1,0.6909,,,,,,勇敢,e,,,0,27,27,17,1,,,,,,,,,,,,,,,,,,,,,,,,,,,,,,,,,,
,,,,,,,,,,,,,,1,001,2024-08-24_15h42.57.918,IAT(Formal),2021.2.3,Win32,58.82352941,,,,,,,,,,,,,,,i,1,0.5579,,,,,,消极,i,,,0,28,28,35,1,,,,,,,,,,,,,,,,,,,,,,,,,,,,,,,,,,
,,,,,,,,,,,,,,1,001,2024-08-24_15h42.57.918,IAT(Formal),2021.2.3,Win32,58.82352941,,,,,,,,,,,,,,,e,1,0.4422,,,,,,自己,e,,,0,29,29,73,1,,,,,,,,,,,,,,,,,,,,,,,,,,,,,,,,,,
,,,,,,,,,,,,,,1,001,2024-08-24_15h42.57.918,IAT(Formal),2021.2.3,Win32,58.82352941,,,,,,,,,,,,,,,i,1,0.55,,,,,,他,i,,,0,30,30,75,1,,,,,,,,,,,,,,,,,,,,,,,,,,,,,,,,,,
,,,,,,,,,,,,,,1,001,2024-08-24_15h42.57.918,IAT(Formal),2021.2.3,Win32,58.82352941,,,,,,,,,,,,,,,e,1,0.7177,,,,,,我们,e,,,0,31,31,2,1,,,,,,,,,,,,,,,,,,,,,,,,,,,,,,,,,,
,,,,,,,,,,,,,,1,001,2024-08-24_15h42.57.918,IAT(Formal),2021.2.3,Win32,58.82352941,,,,,,,,,,,,,,,i,1,0.5074,,,,,,他的,i,,,0,32,32,57,1,,,,,,,,,,,,,,,,,,,,,,,,,,,,,,,,,,
,,,,,,,,,,,,,,1,001,2024-08-24_15h42.57.918,IAT(Formal),2021.2.3,Win32,58.82352941,,,,,,,,,,,,,,,i,1,0.6334,,,,,,固执,i,,,0,33,33,47,1,,,,,,,,,,,,,,,,,,,,,,,,,,,,,,,,,,
,,,,,,,,,,,,,,1,001,2024-08-24_15h42.57.918,IAT(Formal),2021.2.3,Win32,58.82352941,,,,,,,,,,,,,,,e,1,0.4099,,,,,,我的,e,,,0,34,34,61,1,,,,,,,,,,,,,,,,,,,,,,,,,,,,,,,,,,
,,,,,,,,,,,,,,1,001,2024-08-24_15h42.57.918,IAT(Formal),2021.2.3,Win32,58.82352941,,,,,,,,,,,,,,,e,1,0.4322,,,,,,俺,e,,,0,35,35,4,1,,,,,,,,,,,,,,,,,,,,,,,,,,,,,,,,,,
,,,,,,,,,,,,,,1,001,2024-08-24_15h42.57.918,IAT(Formal),2021.2.3,Win32,58.82352941,,,,,,,,,,,,,,,e,0,0.4694,,,,,,自私,i,,,0,36,36,43,1,,,,,,,,,,,,,,,,,,,,,,,,,,,,,,,,,,
,,,,,,,,,,,,,,1,001,2024-08-24_15h42.57.918,IAT(Formal),2021.2.3,Win32,58.82352941,,,,,,,,,,,,,,,i,1,0.5876,,,,,,他,i,,,0,37,37,55,1,,,,,,,,,,,,,,,,,,,,,,,,,,,,,,,,,,
,,,,,,,,,,,,,,1,001,2024-08-24_15h42.57.918,IAT(Formal),2021.2.3,Win32,58.82352941,,,,,,,,,,,,,,,i,1,0.5268,,,,,,其他,i,,,0,38,38,69,1,,,,,,,,,,,,,,,,,,,,,,,,,,,,,,,,,,
,,,,,,,,,,,,,,1,001,2024-08-24_15h42.57.918,IAT(Formal),2021.2.3,Win32,58.82352941,,,,,,,,,,,,,,,i,1,0.8132,,,,,,下贱,i,,,0,39,39,49,1,,,,,,,,,,,,,,,,,,,,,,,,,,,,,,,,,,
,,,,,,,,,,,,,,1,001,2024-08-24_15h42.57.918,IAT(Formal),2021.2.3,Win32,58.82352941,,,,,,,,,,,,,,,i,1,0.4824,,,,,,凶狠,i,,,0,40,40,42,1,,,,,,,,,,,,,,,,,,,,,,,,,,,,,,,,,,
,,,,,,,,,,,,,,1,001,2024-08-24_15h42.57.918,IAT(Formal),2021.2.3,Win32,58.82352941,,,,,,,,,,,,,,,i,1,0.5073,,,,,,自卑,i,,,0,41,41,36,1,,,,,,,,,,,,,,,,,,,,,,,,,,,,,,,,,,
,,,,,,,,,,,,,,1,001,2024-08-24_15h42.57.918,IAT(Formal),2021.2.3,Win32,58.82352941,,,,,,,,,,,,,,,e,1,0.4247,,,,,,我,e,,,0,42,42,0,1,,,,,,,,,,,,,,,,,,,,,,,,,,,,,,,,,,
,,,,,,,,,,,,,,1,001,2024-08-24_15h42.57.918,IAT(Formal),2021.2.3,Win32,58.82352941,,,,,,,,,,,,,,,i,1,0.5773,,,,,,冒失,i,,,0,43,43,39,1,,,,,,,,,,,,,,,,,,,,,,,,,,,,,,,,,,
,,,,,,,,,,,,,,1,001,2024-08-24_15h42.57.918,IAT(Formal),2021.2.3,Win32,58.82352941,,,,,,,,,,,,,,,e,1,0.4452,,,,,,我的,e,,,0,44,44,1,1,,,,,,,,,,,,,,,,,,,,,,,,,,,,,,,,,,
,,,,,,,,,,,,,,1,001,2024-08-24_15h42.57.918,IAT(Formal),2021.2.3,Win32,58.82352941,,,,,,,,,,,,,,,e,1,0.5547,,,,,,活泼,e,,,0,45,45,28,1,,,,,,,,,,,,,,,,,,,,,,,,,,,,,,,,,,
,,,,,,,,,,,,,,1,001,2024-08-24_15h42.57.918,IAT(Formal),2021.2.3,Win32,58.82352941,,,,,,,,,,,,,,,i,1,0.4359,,,,,,傲慢,i,,,0,46,46,37,1,,,,,,,,,,,,,,,,,,,,,,,,,,,,,,,,,,
,,,,,,,,,,,,,,1,001,2024-08-24_15h42.57.918,IAT(Formal),2021.2.3,Win32,58.82352941,,,,,,,,,,,,,,,i,1,0.5502,,,,,,愚蠢,i,,,0,47,47,32,1,,,,,,,,,,,,,,,,,,,,,,,,,,,,,,,,,,
,,,,,,,,,,,,,,1,001,2024-08-24_15h42.57.918,IAT(Formal),2021.2.3,Win32,58.82352941,,,,,,,,,,,,,,,e,1,0.4528,,,,,,俺,e,,,0,48,48,54,1,,,,,,,,,,,,,,,,,,,,,,,,,,,,,,,,,,
,,,,,,,,,,,,,,1,001,2024-08-24_15h42.57.918,IAT(Formal),2021.2.3,Win32,58.82352941,,,,,,,,,,,,,,,i,0,0.4888,,,,,,崇高,e,,,0,49,49,11,1,,,,,,,,,,,,,,,,,,,,,,,,,,,,,,,,,,
,,,,,,,,,,,,,,1,001,2024-08-24_15h42.57.918,IAT(Formal),2021.2.3,Win32,58.82352941,,,,,,,,,,,,,,,i,1,0.6831,,,,,,他们,i,,,0,50,50,76,1,,,,,,,,,,,,,,,,,,,,,,,,,,,,,,,,,,
,,,,,,,,,,,,,,1,001,2024-08-24_15h42.57.918,IAT(Formal),2021.2.3,Win32,58.82352941,,,,,,,,,,,,,,,e,1,0.5133,,,,,,我们,e,,,0,51,51,62,1,,,,,,,,,,,,,,,,,,,,,,,,,,,,,,,,,,
,,,,,,,,,,,,,,1,001,2024-08-24_15h42.57.918,IAT(Formal),2021.2.3,Win32,58.82352941,,,,,,,,,,,,,,,i,1,0.7004,,,,,,其他,i,,,0,52,52,59,1,,,,,,,,,,,,,,,,,,,,,,,,,,,,,,,,,,
,,,,,,,,,,,,,,1,001,2024-08-24_15h42.57.918,IAT(Formal),2021.2.3,Win32,58.82352941,,,,,,,,,,,,,,,e,1,0.4504,,,,,,自己,e,,,0,53,53,3,1,,,,,,,,,,,,,,,,,,,,,,,,,,,,,,,,,,
,,,,,,,,,,,,,,1,001,2024-08-24_15h42.57.918,IAT(Formal),2021.2.3,Win32,58.82352941,,,,,,,,,,,,,,,i,0,1.0338,,,,,,冷静,e,,,0,54,54,26,1,,,,,,,,,,,,,,,,,,,,,,,,,,,,,,,,,,
,,,,,,,,,,,,,,1,001,2024-08-24_15h42.57.918,IAT(Formal),2021.2.3,Win32,58.82352941,,,,,,,,,,,,,,,e,1,0.668,,,,,,我们,e,,,0,55,55,52,1,,,,,,,,,,,,,,,,,,,,,,,,,,,,,,,,,,
,,,,,,,,,,,,,,1,001,2024-08-24_15h42.57.918,IAT(Formal),2021.2.3,Win32,58.82352941,,,,,,,,,,,,,,,,0,,,,,,,稳重,e,,,0,56,56,21,1,,,,,,,,,,,,,,,,,,,,,,,,,,,,,,,,,,
,,,,,,,,,,,,,,1,001,2024-08-24_15h42.57.918,IAT(Formal),2021.2.3,Win32,58.82352941,,,,,,,,,,,,,,,i,1,0.643,,,,,,悲观,i,,,0,57,57,34,1,,,,,,,,,,,,,,,,,,,,,,,,,,,,,,,,,,
,,,,,,,,,,,,,,1,001,2024-08-24_15h42.57.918,IAT(Formal),2021.2.3,Win32,58.82352941,,,,,,,,,,,,,,,i,1,0.5632,,,,,,执拗,i,,,0,58,58,40,1,,,,,,,,,,,,,,,,,,,,,,,,,,,,,,,,,,
,,,,,,,,,,,,,,1,001,2024-08-24_15h42.57.918,IAT(Formal),2021.2.3,Win32,58.82352941,,,,,,,,,,,,,,,i,1,0.6659,,,,,,鲁莽,i,,,0,59,59,38,1,,,,,,,,,,,,,,,,,,,,,,,,,,,,,,,,,,
,,,,,,,,,,,,,,1,001,2024-08-24_15h42.57.918,IAT(Formal),2021.2.3,Win32,58.82352941,,,,,,,,,,,,,,,i,1,0.4209,,,,,,他,i,,,0,60,60,65,1,,,,,,,,,,,,,,,,,,,,,,,,,,,,,,,,,,
,,,,,,,,,,,,,,1,001,2024-08-24_15h42.57.918,IAT(Formal),2021.2.3,Win32,58.82352941,,,,,,,,,,,,,,,e,1,0.5033,,,,,,乐观,e,,,0,61,61,14,1,,,,,,,,,,,,,,,,,,,,,,,,,,,,,,,,,,
,,,,,,,,,,,,,,1,001,2024-08-24_15h42.57.918,IAT(Formal),2021.2.3,Win32,58.82352941,,,,,,,,,,,,,,,i,1,0.994,,,,,,散漫,i,,,0,62,62,41,1,,,,,,,,,,,,,,,,,,,,,,,,,,,,,,,,,,
,,,,,,,,,,,,,,1,001,2024-08-24_15h42.57.918,IAT(Formal),2021.2.3,Win32,58.82352941,,,,,,,,,,,,,,,i,1,0.5404,,,,,,他们,i,,,0,63,63,56,1,,,,,,,,,,,,,,,,,,,,,,,,,,,,,,,,,,
,,,,,,,,,,,,,,1,001,2024-08-24_15h42.57.918,IAT(Formal),2021.2.3,Win32,58.82352941,,,,,,,,,,,,,,,e,1,0.3728,,,,,,我,e,,,0,64,64,60,1,,,,,,,,,,,,,,,,,,,,,,,,,,,,,,,,,,
,,,,,,,,,,,,,,1,001,2024-08-24_15h42.57.918,IAT(Formal),2021.2.3,Win32,58.82352941,,,,,,,,,,,,,,,e,1,0.4701,,,,,,诚实,e,,,0,65,65,15,1,,,,,,,,,,,,,,,,,,,,,,,,,,,,,,,,,,
,,,,,,,,,,,,,,1,001,2024-08-24_15h42.57.918,IAT(Formal),2021.2.3,Win32,58.82352941,,,,,,,,,,,,,,,i,1,0.5127,,,,,,他的,i,,,0,66,66,67,1,,,,,,,,,,,,,,,,,,,,,,,,,,,,,,,,,,
,,,,,,,,,,,,,,1,001,2024-08-24_15h42.57.918,IAT(Formal),2021.2.3,Win32,58.82352941,,,,,,,,,,,,,,,i,1,0.4213,,,,,,他人,i,,,0,67,67,78,1,,,,,,,,,,,,,,,,,,,,,,,,,,,,,,,,,,
,,,,,,,,,,,,,,1,001,2024-08-24_15h42.57.918,IAT(Formal),2021.2.3,Win32,58.82352941,,,,,,,,,,,,,,,i,1,0.3389,,,,,,他的,i,,,0,68,68,77,1,,,,,,,,,,,,,,,,,,,,,,,,,,,,,,,,,,
,,,,,,,,,,,,,,1,001,2024-08-24_15h42.57.918,IAT(Formal),2021.2.3,Win32,58.82352941,,,,,,,,,,,,,,,i,1,0.5111,,,,,,暴躁,i,,,0,69,69,44,1,,,,,,,,,,,,,,,,,,,,,,,,,,,,,,,,,,
,,,,,,,,,,,,,,1,001,2024-08-24_15h42.57.918,IAT(Formal),2021.2.3,Win32,58.82352941,,,,,,,,,,,,,,,i,1,0.418,,,,,,刻薄,i,,,0,70,70,33,1,,,,,,,,,,,,,,,,,,,,,,,,,,,,,,,,,,
,,,,,,,,,,,,,,1,001,2024-08-24_15h42.57.918,IAT(Formal),2021.2.3,Win32,58.82352941,,,,,,,,,,,,,,,e,1,0.6331,,,,,,我们,e,,,0,71,71,72,1,,,,,,,,,,,,,,,,,,,,,,,,,,,,,,,,,,
,,,,,,,,,,,,,,1,001,2024-08-24_15h42.57.918,IAT(Formal),2021.2.3,Win32,58.82352941,,,,,,,,,,,,,,,e,1,0.5469,,,,,,无私,e,,,0,72,72,22,1,,,,,,,,,,,,,,,,,,,,,,,,,,,,,,,,,,
,,,,,,,,,,,,,,1,001,2024-08-24_15h42.57.918,IAT(Formal),2021.2.3,Win32,58.82352941,,,,,,,,,,,,,,,e,1,0.5009,,,,,,我的,e,,,0,73,73,71,1,,,,,,,,,,,,,,,,,,,,,,,,,,,,,,,,,,
,,,,,,,,,,,,,,1,001,2024-08-24_15h42.57.918,IAT(Formal),2021.2.3,Win32,58.82352941,,,,,,,,,,,,,,,i,1,0.5362,,,,,,他,i,,,0,74,74,5,1,,,,,,,,,,,,,,,,,,,,,,,,,,,,,,,,,,
,,,,,,,,,,,,,,1,001,2024-08-24_15h42.57.918,IAT(Formal),2021.2.3,Win32,58.82352941,,,,,,,,,,,,,,,e,1,0.5174,,,,,,朴实,e,,,0,75,75,24,1,,,,,,,,,,,,,,,,,,,,,,,,,,,,,,,,,,
,,,,,,,,,,,,,,1,001,2024-08-24_15h42.57.918,IAT(Formal),2021.2.3,Win32,58.82352941,,,,,,,,,,,,,,,i,1,0.451,,,,,,他人,i,,,0,76,76,8,1,,,,,,,,,,,,,,,,,,,,,,,,,,,,,,,,,,
,,,,,,,,,,,,,,1,001,2024-08-24_15h42.57.918,IAT(Formal),2021.2.3,Win32,58.82352941,,,,,,,,,,,,,,,i,1,0.4509,,,,,,他人,i,,,0,77,77,68,1,,,,,,,,,,,,,,,,,,,,,,,,,,,,,,,,,,
,,,,,,,,,,,,,,1,001,2024-08-24_15h42.57.918,IAT(Formal),2021.2.3,Win32,58.82352941,,,,,,,,,,,,,,,e,1,0.6522,,,,,,优秀,e,,,0,78,78,10,1,,,,,,,,,,,,,,,,,,,,,,,,,,,,,,,,,,
,,,,,,,,,,,,,,1,001,2024-08-24_15h42.57.918,IAT(Formal),2021.2.3,Win32,58.82352941,,,,,,,,,,,,,,,e,1,0.566,,,,,,俺,e,,,0,79,79,64,1,,,,,,,,,,,,,,,,,,,,,,,,,,,,,,,,,,
,,,,,,,,,,,,,,1,001,2024-08-24_15h42.57.918,IAT(Formal),2021.2.3,Win32,58.82352941,,,,,,,,,,,,,,,e,1,0.5083,,,,,,我们,e,,,1,0,80,2,1,,,,,,,,,,,,,,,,,,,,,,,,,,,,,,,,,,
,,,,,,,,,,,,,,1,001,2024-08-24_15h42.57.918,IAT(Formal),2021.2.3,Win32,58.82352941,,,,,,,,,,,,,,,i,1,0.8354,,,,,,虚伪,i,,,1,1,81,31,1,,,,,,,,,,,,,,,,,,,,,,,,,,,,,,,,,,
,,,,,,,,,,,,,,1,001,2024-08-24_15h42.57.918,IAT(Formal),2021.2.3,Win32,58.82352941,,,,,,,,,,,,,,,e,1,0.6097,,,,,,乐观,e,,,1,2,82,14,1,,,,,,,,,,,,,,,,,,,,,,,,,,,,,,,,,,
,,,,,,,,,,,,,,1,001,2024-08-24_15h42.57.918,IAT(Formal),2021.2.3,Win32,58.82352941,,,,,,,,,,,,,,,i,1,0.4905,,,,,,他,i,,,1,3,83,75,1,,,,,,,,,,,,,,,,,,,,,,,,,,,,,,,,,,
,,,,,,,,,,,,,,1,001,2024-08-24_15h42.57.918,IAT(Formal),2021.2.3,Win32,58.82352941,,,,,,,,,,,,,,,i,1,0.5875,,,,,,暴躁,i,,,1,4,84,44,1,,,,,,,,,,,,,,,,,,,,,,,,,,,,,,,,,,
,,,,,,,,,,,,,,1,001,2024-08-24_15h42.57.918,IAT(Formal),2021.2.3,Win32,58.82352941,,,,,,,,,,,,,,,i,1,0.5234,,,,,,卑鄙,i,,,1,5,85,30,1,,,,,,,,,,,,,,,,,,,,,,,,,,,,,,,,,,
,,,,,,,,,,,,,,1,001,2024-08-24_15h42.57.918,IAT(Formal),2021.2.3,Win32,58.82352941,,,,,,,,,,,,,,,i,1,0.5676,,,,,,执拗,i,,,1,6,86,40,1,,,,,,,,,,,,,,,,,,,,,,,,,,,,,,,,,,
,,,,,,,,,,,,,,1,001,2024-08-24_15h42.57.918,IAT(Formal),2021.2.3,Win32,58.82352941,,,,,,,,,,,,,,,e,1,0.5232,,,,,,俺,e,,,1,7,87,4,1,,,,,,,,,,,,,,,,,,,,,,,,,,,,,,,,,,
,,,,,,,,,,,,,,1,001,2024-08-24_15h42.57.918,IAT(Formal),2021.2.3,Win32,58.82352941,,,,,,,,,,,,,,,i,1,0.7177,,,,,,悲观,i,,,1,8,88,34,1,,,,,,,,,,,,,,,,,,,,,,,,,,,,,,,,,,
,,,,,,,,,,,,,,1,001,2024-08-24_15h42.57.918,IAT(Formal),2021.2.3,Win32,58.82352941,,,,,,,,,,,,,,,e,1,0.5225,,,,,,优秀,e,,,1,9,89,10,1,,,,,,,,,,,,,,,,,,,,,,,,,,,,,,,,,,
,,,,,,,,,,,,,,1,001,2024-08-24_15h42.57.918,IAT(Formal),2021.2.3,Win32,58.82352941,,,,,,,,,,,,,,,e,1,0.4688,,,,,,自己,e,,,1,10,90,3,1,,,,,,,,,,,,,,,,,,,,,,,,,,,,,,,,,,
,,,,,,,,,,,,,,1,001,2024-08-24_15h42.57.918,IAT(Formal),2021.2.3,Win32,58.82352941,,,,,,,,,,,,,,,e,1,0.4616,,,,,,俺,e,,,1,11,91,54,1,,,,,,,,,,,,,,,,,,,,,,,,,,,,,,,,,,
,,,,,,,,,,,,,,1,001,2024-08-24_15h42.57.918,IAT(Formal),2021.2.3,Win32,58.82352941,,,,,,,,,,,,,,,i,1,0.4383,,,,,,他人,i,,,1,12,92,58,1,,,,,,,,,,,,,,,,,,,,,,,,,,,,,,,,,,
,,,,,,,,,,,,,,1,001,2024-08-24_15h42.57.918,IAT(Formal),2021.2.3,Win32,58.82352941,,,,,,,,,,,,,,,i,1,0.4339,,,,,,其他,i,,,1,13,93,79,1,,,,,,,,,,,,,,,,,,,,,,,,,,,,,,,,,,
,,,,,,,,,,,,,,1,001,2024-08-24_15h42.57.918,IAT(Formal),2021.2.3,Win32,58.82352941,,,,,,,,,,,,,,,e,1,0.5044,,,,,,朴实,e,,,1,14,94,24,1,,,,,,,,,,,,,,,,,,,,,,,,,,,,,,,,,,
,,,,,,,,,,,,,,1,001,2024-08-24_15h42.57.918,IAT(Formal),2021.2.3,Win32,58.82352941,,,,,,,,,,,,,,,e,1,0.4172,,,,,,正直,e,,,1,15,95,16,1,,,,,,,,,,,,,,,,,,,,,,,,,,,,,,,,,,
,,,,,,,,,,,,,,1,001,2024-08-24_15h42.57.918,IAT(Formal),2021.2.3,Win32,58.82352941,,,,,,,,,,,,,,,i,1,0.4137,,,,,,他的,i,,,1,16,96,57,1,,,,,,,,,,,,,,,,,,,,,,,,,,,,,,,,,,
,,,,,,,,,,,,,,1,001,2024-08-24_15h42.57.918,IAT(Formal),2021.2.3,Win32,58.82352941,,,,,,,,,,,,,,,e,1,0.4555,,,,,,我的,e,,,1,17,97,71,1,,,,,,,,,,,,,,,,,,,,,,,,,,,,,,,,,,
,,,,,,,,,,,,,,1,001,2024-08-24_15h42.57.918,IAT(Formal),2021.2.3,Win32,58.82352941,,,,,,,,,,,,,,,i,1,0.6449,,,,,,散漫,i,,,1,18,98,41,1,,,,,,,,,,,,,,,,,,,,,,,,,,,,,,,,,,
,,,,,,,,,,,,,,1,001,2024-08-24_15h42.57.918,IAT(Formal),2021.2.3,Win32,58.82352941,,,,,,,,,,,,,,,e,1,0.5352,,,,,,我们,e,,,1,19,99,72,1,,,,,,,,,,,,,,,,,,,,,,,,,,,,,,,,,,
,,,,,,,,,,,,,,1,001,2024-08-24_15h42.57.918,IAT(Formal),2021.2.3,Win32,58.82352941,,,,,,,,,,,,,,,i,1,0.4442,,,,,,他,i,,,1,20,100,5,1,,,,,,,,,,,,,,,,,,,,,,,,,,,,,,,,,,
,,,,,,,,,,,,,,1,001,2024-08-24_15h42.57.918,IAT(Formal),2021.2.3,Win32,58.82352941,,,,,,,,,,,,,,,i,1,0.6498,,,,,,轻率,i,,,1,21,101,48,1,,,,,,,,,,,,,,,,,,,,,,,,,,,,,,,,,,
,,,,,,,,,,,,,,1,001,2024-08-24_15h42.57.918,IAT(Formal),2021.2.3,Win32,58.82352941,,,,,,,,,,,,,,,i,1,0.5919,,,,,,他们,i,,,1,22,102,76,1,,,,,,,,,,,,,,,,,,,,,,,,,,,,,,,,,,
,,,,,,,,,,,,,,1,001,2024-08-24_15h42.57.918,IAT(Formal),2021.2.3,Win32,58.82352941,,,,,,,,,,,,,,,i,1,0.5107,,,,,,愚蠢,i,,,1,23,103,32,1,,,,,,,,,,,,,,,,,,,,,,,,,,,,,,,,,,
,,,,,,,,,,,,,,1,001,2024-08-24_15h42.57.918,IAT(Formal),2021.2.3,Win32,58.82352941,,,,,,,,,,,,,,,i,1,0.4504,,,,,,鲁莽,i,,,1,24,104,38,1,,,,,,,,,,,,,,,,,,,,,,,,,,,,,,,,,,
,,,,,,,,,,,,,,1,001,2024-08-24_15h42.57.918,IAT(Formal),2021.2.3,Win32,58.82352941,,,,,,,,,,,,,,,e,1,0.4562,,,,,,我的,e,,,1,25,105,1,1,,,,,,,,,,,,,,,,,,,,,,,,,,,,,,,,,,
,,,,,,,,,,,,,,1,001,2024-08-24_15h42.57.918,IAT(Formal),2021.2.3,Win32,58.82352941,,,,,,,,,,,,,,,e,1,0.4424,,,,,,勤奋,e,,,1,26,106,18,1,,,,,,,,,,,,,,,,,,,,,,,,,,,,,,,,,,
,,,,,,,,,,,,,,1,001,2024-08-24_15h42.57.918,IAT(Formal),2021.2.3,Win32,58.82352941,,,,,,,,,,,,,,,e,1,0.4528,,,,,,我的,e,,,1,27,107,61,1,,,,,,,,,,,,,,,,,,,,,,,,,,,,,,,,,,
,,,,,,,,,,,,,,1,001,2024-08-24_15h42.57.918,IAT(Formal),2021.2.3,Win32,58.82352941,,,,,,,,,,,,,,,e,1,0.3394,,,,,,我,e,,,1,28,108,60,1,,,,,,,,,,,,,,,,,,,,,,,,,,,,,,,,,,
,,,,,,,,,,,,,,1,001,2024-08-24_15h42.57.918,IAT(Formal),2021.2.3,Win32,58.82352941,,,,,,,,,,,,,,,i,1,0.4846,,,,,,他人,i,,,1,29,109,8,1,,,,,,,,,,,,,,,,,,,,,,,,,,,,,,,,,,
,,,,,,,,,,,,,,1,001,2024-08-24_15h42.57.918,IAT(Formal),2021.2.3,Win32,58.82352941,,,,,,,,,,,,,,,i,1,0.5721,,,,,,消极,i,,,1,30,110,35,1,,,,,,,,,,,,,,,,,,,,,,,,,,,,,,,,,,
,,,,,,,,,,,,,,1,001,2024-08-24_15h42.57.918,IAT(Formal),2021.2.3,Win32,58.82352941,,,,,,,,,,,,,,,i,1,0.557,,,,,,其他,i,,,1,31,111,69,1,,,,,,,,,,,,,,,,,,,,,,,,,,,,,,,,,,
,,,,,,,,,,,,,,1,001,2024-08-24_15h42.57.918,IAT(Formal),2021.2.3,Win32,58.82352941,,,,,,,,,,,,,,,i,1,0.4513,,,,,,他,i,,,1,32,112,65,1,,,,,,,,,,,,,,,,,,,,,,,,,,,,,,,,,,
,,,,,,,,,,,,,,1,001,2024-08-24_15h42.57.918,IAT(Formal),2021.2.3,Win32,58.82352941,,,,,,,,,,,,,,,i,1,0.4007,,,,,,他们,i,,,1,33,113,66,1,,,,,,,,,,,,,,,,,,,,,,,,,,,,,,,,,,
,,,,,,,,,,,,,,1,001,2024-08-24_15h42.57.918,IAT(Formal),2021.2.3,Win32,58.82352941,,,,,,,,,,,,,,,i,1,0.591,,,,,,刻薄,i,,,1,34,114,33,1,,,,,,,,,,,,,,,,,,,,,,,,,,,,,,,,,,
,,,,,,,,,,,,,,1,001,2024-08-24_15h42.57.918,IAT(Formal),2021.2.3,Win32,58.82352941,,,,,,,,,,,,,,,e,1,0.539,,,,,,机智,e,,,1,35,115,19,1,,,,,,,,,,,,,,,,,,,,,,,,,,,,,,,,,,
,,,,,,,,,,,,,,1,001,2024-08-24_15h42.57.918,IAT(Formal),2021.2.3,Win32,58.82352941,,,,,,,,,,,,,,,e,1,0.5522,,,,,,俺,e,,,1,36,116,74,1,,,,,,,,,,,,,,,,,,,,,,,,,,,,,,,,,,
,,,,,,,,,,,,,,1,001,2024-08-24_15h42.57.918,IAT(Formal),2021.2.3,Win32,58.82352941,,,,,,,,,,,,,,,e,1,0.3836,,,,,,俺,e,,,1,37,117,64,1,,,,,,,,,,,,,,,,,,,,,,,,,,,,,,,,,,
,,,,,,,,,,,,,,1,001,2024-08-24_15h42.57.918,IAT(Formal),2021.2.3,Win32,58.82352941,,,,,,,,,,,,,,,i,1,0.7664,,,,,,固执,i,,,1,38,118,47,1,,,,,,,,,,,,,,,,,,,,,,,,,,,,,,,,,,
,,,,,,,,,,,,,,1,001,2024-08-24_15h42.57.918,IAT(Formal),2021.2.3,Win32,58.82352941,,,,,,,,,,,,,,,e,1,0.5446,,,,,,无私,e,,,1,39,119,22,1,,,,,,,,,,,,,,,,,,,,,,,,,,,,,,,,,,
,,,,,,,,,,,,,,1,001,2024-08-24_15h42.57.918,IAT(Formal),2021.2.3,Win32,58.82352941,,,,,,,,,,,,,,,e,1,0.4696,,,,,,我,e,,,1,40,120,50,1,,,,,,,,,,,,,,,,,,,,,,,,,,,,,,,,,,
,,,,,,,,,,,,,,1,001,2024-08-24_15h42.57.918,IAT(Formal),2021.2.3,Win32,58.82352941,,,,,,,,,,,,,,,e,1,0.6011,,,,,,认真,e,,,1,41,121,20,1,,,,,,,,,,,,,,,,,,,,,,,,,,,,,,,,,,
,,,,,,,,,,,,,,1,001,2024-08-24_15h42.57.918,IAT(Formal),2021.2.3,Win32,58.82352941,,,,,,,,,,,,,,,e,1,0.4393,,,,,,崇高,e,,,1,42,122,11,1,,,,,,,,,,,,,,,,,,,,,,,,,,,,,,,,,,
,,,,,,,,,,,,,,1,001,2024-08-24_15h42.57.918,IAT(Formal),2021.2.3,Win32,58.82352941,,,,,,,,,,,,,,,i,1,0.4348,,,,,,他人,i,,,1,43,123,78,1,,,,,,,,,,,,,,,,,,,,,,,,,,,,,,,,,,
,,,,,,,,,,,,,,1,001,2024-08-24_15h42.57.918,IAT(Formal),2021.2.3,Win32,58.82352941,,,,,,,,,,,,,,,i,1,0.5085,,,,,,野蛮,i,,,1,44,124,46,1,,,,,,,,,,,,,,,,,,,,,,,,,,,,,,,,,,
,,,,,,,,,,,,,,1,001,2024-08-24_15h42.57.918,IAT(Formal),2021.2.3,Win32,58.82352941,,,,,,,,,,,,,,,e,0,0.554,,,,,,自卑,i,,,1,45,125,36,1,,,,,,,,,,,,,,,,,,,,,,,,,,,,,,,,,,
,,,,,,,,,,,,,,1,001,2024-08-24_15h42.57.918,IAT(Formal),2021.2.3,Win32,58.82352941,,,,,,,,,,,,,,,e,1,0.7333,,,,,,聪明,e,,,1,46,126,12,1,,,,,,,,,,,,,,,,,,,,,,,,,,,,,,,,,,
,,,,,,,,,,,,,,1,001,2024-08-24_15h42.57.918,IAT(Formal),2021.2.3,Win32,58.82352941,,,,,,,,,,,,,,,i,1,0.4745,,,,,,他的,i,,,1,47,127,67,1,,,,,,,,,,,,,,,,,,,,,,,,,,,,,,,,,,
,,,,,,,,,,,,,,1,001,2024-08-24_15h42.57.918,IAT(Formal),2021.2.3,Win32,58.82352941,,,,,,,,,,,,,,,e,1,0.4258,,,,,,我,e,,,1,48,128,70,1,,,,,,,,,,,,,,,,,,,,,,,,,,,,,,,,,,
,,,,,,,,,,,,,,1,001,2024-08-24_15h42.57.918,IAT(Formal),2021.2.3,Win32,58.82352941,,,,,,,,,,,,,,,i,1,0.618,,,,,,他们,i,,,1,49,129,56,1,,,,,,,,,,,,,,,,,,,,,,,,,,,,,,,,,,
,,,,,,,,,,,,,,1,001,2024-08-24_15h42.57.918,IAT(Formal),2021.2.3,Win32,58.82352941,,,,,,,,,,,,,,,i,1,0.6245,,,,,,下贱,i,,,1,50,130,49,1,,,,,,,,,,,,,,,,,,,,,,,,,,,,,,,,,,
,,,,,,,,,,,,,,1,001,2024-08-24_15h42.57.918,IAT(Formal),2021.2.3,Win32,58.82352941,,,,,,,,,,,,,,,i,1,0.5104,,,,,,猖狂,i,,,1,51,131,45,1,,,,,,,,,,,,,,,,,,,,,,,,,,,,,,,,,,
,,,,,,,,,,,,,,1,001,2024-08-24_15h42.57.918,IAT(Formal),2021.2.3,Win32,58.82352941,,,,,,,,,,,,,,,i,0,0.4461,,,,,,诚恳,e,,,1,52,132,29,1,,,,,,,,,,,,,,,,,,,,,,,,,,,,,,,,,,
,,,,,,,,,,,,,,1,001,2024-08-24_15h42.57.918,IAT(Formal),2021.2.3,Win32,58.82352941,,,,,,,,,,,,,,,e,1,0.5572,,,,,,我们,e,,,1,53,133,52,1,,,,,,,,,,,,,,,,,,,,,,,,,,,,,,,,,,
,,,,,,,,,,,,,,1,001,2024-08-24_15h42.57.918,IAT(Formal),2021.2.3,Win32,58.82352941,,,,,,,,,,,,,,,i,1,0.7332,,,,,,他,i,,,1,54,134,55,1,,,,,,,,,,,,,,,,,,,,,,,,,,,,,,,,,,
,,,,,,,,,,,,,,1,001,2024-08-24_15h42.57.918,IAT(Formal),2021.2.3,Win32,58.82352941,,,,,,,,,,,,,,,e,1,0.7222,,,,,,稳重,e,,,1,55,135,21,1,,,,,,,,,,,,,,,,,,,,,,,,,,,,,,,,,,
,,,,,,,,,,,,,,1,001,2024-08-24_15h42.57.918,IAT(Formal),2021.2.3,Win32,58.82352941,,,,,,,,,,,,,,,i,1,0.6012,,,,,,他人,i,,,1,56,136,68,1,,,,,,,,,,,,,,,,,,,,,,,,,,,,,,,,,,
,,,,,,,,,,,,,,1,001,2024-08-24_15h42.57.918,IAT(Formal),2021.2.3,Win32,58.82352941,,,,,,,,,,,,,,,e,1,0.456,,,,,,我们,e,,,1,57,137,62,1,,,,,,,,,,,,,,,,,,,,,,,,,,,,,,,,,,
,,,,,,,,,,,,,,1,001,2024-08-24_15h42.57.918,IAT(Formal),2021.2.3,Win32,58.82352941,,,,,,,,,,,,,,,i,1,0.4264,,,,,,他的,i,,,1,58,138,7,1,,,,,,,,,,,,,,,,,,,,,,,,,,,,,,,,,,
,,,,,,,,,,,,,,1,001,2024-08-24_15h42.57.918,IAT(Formal),2021.2.3,Win32,58.82352941,,,,,,,,,,,,,,,e,1,0.4635,,,,,,自己,e,,,1,59,139,63,1,,,,,,,,,,,,,,,,,,,,,,,,,,,,,,,,,,
,,,,,,,,,,,,,,1,001,2024-08-24_15h42.57.918,IAT(Formal),2021.2.3,Win32,58.82352941,,,,,,,,,,,,,,,e,1,0.533,,,,,,勇敢,e,,,1,60,140,17,1,,,,,,,,,,,,,,,,,,,,,,,,,,,,,,,,,,
,,,,,,,,,,,,,,1,001,2024-08-24_15h42.57.918,IAT(Formal),2021.2.3,Win32,58.82352941,,,,,,,,,,,,,,,e,1,0.5333,,,,,,诚实,e,,,1,61,141,15,1,,,,,,,,,,,,,,,,,,,,,,,,,,,,,,,,,,
,,,,,,,,,,,,,,1,001,2024-08-24_15h42.57.918,IAT(Formal),2021.2.3,Win32,58.82352941,,,,,,,,,,,,,,,e,1,0.4301,,,,,,活泼,e,,,1,62,142,28,1,,,,,,,,,,,,,,,,,,,,,,,,,,,,,,,,,,
,,,,,,,,,,,,,,1,001,2024-08-24_15h42.57.918,IAT(Formal),2021.2.3,Win32,58.82352941,,,,,,,,,,,,,,,e,1,0.4333,,,,,,杰出,e,,,1,63,143,13,1,,,,,,,,,,,,,,,,,,,,,,,,,,,,,,,,,,
,,,,,,,,,,,,,,1,001,2024-08-24_15h42.57.918,IAT(Formal),2021.2.3,Win32,58.82352941,,,,,,,,,,,,,,,e,1,0.3921,,,,,,自己,e,,,1,64,144,73,1,,,,,,,,,,,,,,,,,,,,,,,,,,,,,,,,,,
,,,,,,,,,,,,,,1,001,2024-08-24_15h42.57.918,IAT(Formal),2021.2.3,Win32,58.82352941,,,,,,,,,,,,,,,i,1,0.4997,,,,,,冒失,i,,,1,65,145,39,1,,,,,,,,,,,,,,,,,,,,,,,,,,,,,,,,,,
,,,,,,,,,,,,,,1,001,2024-08-24_15h42.57.918,IAT(Formal),2021.2.3,Win32,58.82352941,,,,,,,,,,,,,,,e,1,0.6017,,,,,,公正,e,,,1,66,146,23,1,,,,,,,,,,,,,,,,,,,,,,,,,,,,,,,,,,
,,,,,,,,,,,,,,1,001,2024-08-24_15h42.57.918,IAT(Formal),2021.2.3,Win32,58.82352941,,,,,,,,,,,,,,,i,1,0.5025,,,,,,凶狠,i,,,1,67,147,42,1,,,,,,,,,,,,,,,,,,,,,,,,,,,,,,,,,,
,,,,,,,,,,,,,,1,001,2024-08-24_15h42.57.918,IAT(Formal),2021.2.3,Win32,58.82352941,,,,,,,,,,,,,,,i,1,0.8001,,,,,,傲慢,i,,,1,68,148,37,1,,,,,,,,,,,,,,,,,,,,,,,,,,,,,,,,,,
,,,,,,,,,,,,,,1,001,2024-08-24_15h42.57.918,IAT(Formal),2021.2.3,Win32,58.82352941,,,,,,,,,,,,,,,e,1,0.6129,,,,,,细腻,e,,,1,69,149,25,1,,,,,,,,,,,,,,,,,,,,,,,,,,,,,,,,,,
,,,,,,,,,,,,,,1,001,2024-08-24_15h42.57.918,IAT(Formal),2021.2.3,Win32,58.82352941,,,,,,,,,,,,,,,e,0,0.7196,,,,,,自私,i,,,1,70,150,43,1,,,,,,,,,,,,,,,,,,,,,,,,,,,,,,,,,,
,,,,,,,,,,,,,,1,001,2024-08-24_15h42.57.918,IAT(Formal),2021.2.3,Win32,58.82352941,,,,,,,,,,,,,,,i,1,0.5184,,,,,,他的,i,,,1,71,151,77,1,,,,,,,,,,,,,,,,,,,,,,,,,,,,,,,,,,
,,,,,,,,,,,,,,1,001,2024-08-24_15h42.57.918,IAT(Formal),2021.2.3,Win32,58.82352941,,,,,,,,,,,,,,,i,1,0.6284,,,,,,其他,i,,,1,72,152,59,1,,,,,,,,,,,,,,,,,,,,,,,,,,,,,,,,,,
,,,,,,,,,,,,,,1,001,2024-08-24_15h42.57.918,IAT(Formal),2021.2.3,Win32,58.82352941,,,,,,,,,,,,,,,e,1,0.5555,,,,,,我的,e,,,1,73,153,51,1,,,,,,,,,,,,,,,,,,,,,,,,,,,,,,,,,,
,,,,,,,,,,,,,,1,001,2024-08-24_15h42.57.918,IAT(Formal),2021.2.3,Win32,58.82352941,,,,,,,,,,,,,,,e,1,0.4854,,,,,,自己,e,,,1,74,154,53,1,,,,,,,,,,,,,,,,,,,,,,,,,,,,,,,,,,
,,,,,,,,,,,,,,1,001,2024-08-24_15h42.57.918,IAT(Formal),2021.2.3,Win32,58.82352941,,,,,,,,,,,,,,,e,1,0.9903,,,,,,热情,e,,,1,75,155,27,1,,,,,,,,,,,,,,,,,,,,,,,,,,,,,,,,,,
,,,,,,,,,,,,,,1,001,2024-08-24_15h42.57.918,IAT(Formal),2021.2.3,Win32,58.82352941,,,,,,,,,,,,,,,e,1,0.518,,,,,,我,e,,,1,76,156,0,1,,,,,,,,,,,,,,,,,,,,,,,,,,,,,,,,,,
,,,,,,,,,,,,,,1,001,2024-08-24_15h42.57.918,IAT(Formal),2021.2.3,Win32,58.82352941,,,,,,,,,,,,,,,i,1,0.437,,,,,,他们,i,,,1,77,157,6,1,,,,,,,,,,,,,,,,,,,,,,,,,,,,,,,,,,
,,,,,,,,,,,,,,1,001,2024-08-24_15h42.57.918,IAT(Formal),2021.2.3,Win32,58.82352941,,,,,,,,,,,,,,,e,1,0.7785,,,,,,冷静,e,,,1,78,158,26,1,,,,,,,,,,,,,,,,,,,,,,,,,,,,,,,,,,
,,,,,,,,,,,,,,1,001,2024-08-24_15h42.57.918,IAT(Formal),2021.2.3,Win32,58.82352941,,,,,,,,,,,,,,,i,1,0.467,,,,,,其他,i,,,1,79,159,9,1,,,,,,,,,,,,,,,,,,,,,,,,,,,,,,,,,,
,,,,,,,,,,,,俺,i,1,001,2024-08-24_15h42.57.918,IAT(Formal),2021.2.3,Win32,58.82352941,,,,,,,,,,,,,,,,,,,,,,,,,,,,,,,,space,14.1853,i,1,0.5852,0,0,0,4,1,,,,,,,,,,,,,,,,,,,,,,,,
,,,,,,,,,,,,他的,e,1,001,2024-08-24_15h42.57.918,IAT(Formal),2021.2.3,Win32,58.82352941,,,,,,,,,,,,,,,,,,,,,,,,,,,,,,,,,,e,1,0.4332,0,1,1,7,1,,,,,,,,,,,,,,,,,,,,,,,,
,,,,,,,,,,,,他,e,1,001,2024-08-24_15h42.57.918,IAT(Formal),2021.2.3,Win32,58.82352941,,,,,,,,,,,,,,,,,,,,,,,,,,,,,,,,,,e,1,0.6004,0,2,2,5,1,,,,,,,,,,,,,,,,,,,,,,,,
,,,,,,,,,,,,我的,i,1,001,2024-08-24_15h42.57.918,IAT(Formal),2021.2.3,Win32,58.82352941,,,,,,,,,,,,,,,,,,,,,,,,,,,,,,,,,,i,1,0.4378,0,3,3,1,1,,,,,,,,,,,,,,,,,,,,,,,,
,,,,,,,,,,,,我们,i,1,001,2024-08-24_15h42.57.918,IAT(Formal),2021.2.3,Win32,58.82352941,,,,,,,,,,,,,,,,,,,,,,,,,,,,,,,,,,i,1,0.3909,0,4,4,2,1,,,,,,,,,,,,,,,,,,,,,,,,
,,,,,,,,,,,,他人,e,1,001,2024-08-24_15h42.57.918,IAT(Formal),2021.2.3,Win32,58.82352941,,,,,,,,,,,,,,,,,,,,,,,,,,,,,,,,,,e,1,0.4672,0,5,5,8,1,,,,,,,,,,,,,,,,,,,,,,,,
,,,,,,,,,,,,他们,e,1,001,2024-08-24_15h42.57.918,IAT(Formal),2021.2.3,Win32,58.82352941,,,,,,,,,,,,,,,,,,,,,,,,,,,,,,,,,,e,1,0.3462,0,6,6,6,1,,,,,,,,,,,,,,,,,,,,,,,,
,,,,,,,,,,,,自己,i,1,001,2024-08-24_15h42.57.918,IAT(Formal),2021.2.3,Win32,58.82352941,,,,,,,,,,,,,,,,,,,,,,,,,,,,,,,,,,i,1,0.4254,0,7,7,3,1,,,,,,,,,,,,,,,,,,,,,,,,
,,,,,,,,,,,,我,i,1,001,2024-08-24_15h42.57.918,IAT(Formal),2021.2.3,Win32,58.82352941,,,,,,,,,,,,,,,,,,,,,,,,,,,,,,,,,,i,1,0.3742,0,8,8,0,1,,,,,,,,,,,,,,,,,,,,,,,,
,,,,,,,,,,,,其他,e,1,001,2024-08-24_15h42.57.918,IAT(Formal),2021.2.3,Win32,58.82352941,,,,,,,,,,,,,,,,,,,,,,,,,,,,,,,,,,e,1,0.4605,0,9,9,9,1,,,,,,,,,,,,,,,,,,,,,,,,
,,,,,,,,,,,,,,1,001,2024-08-24_15h42.57.918,IAT(Formal),2021.2.3,Win32,58.82352941,,,,,,,,,,,,,,,,,,,,,,,,,,,,,,,,,,,,,,,,,,space,24.8385,i,0,0.5516,0,0,0,25,1,细腻,e,,,,,,,,,,,,
,,,,,,,,,,,,,,1,001,2024-08-24_15h42.57.918,IAT(Formal),2021.2.3,Win32,58.82352941,,,,,,,,,,,,,,,,,,,,,,,,,,,,,,,,,,,,,,,,,,,,i,1,0.6237,0,1,1,73,1,自己,i,,,,,,,,,,,,
,,,,,,,,,,,,,,1,001,2024-08-24_15h42.57.918,IAT(Formal),2021.2.3,Win32,58.82352941,,,,,,,,,,,,,,,,,,,,,,,,,,,,,,,,,,,,,,,,,,,,e,1,0.7034,0,2,2,11,1,崇高,e,,,,,,,,,,,,
,,,,,,,,,,,,,,1,001,2024-08-24_15h42.57.918,IAT(Formal),2021.2.3,Win32,58.82352941,,,,,,,,,,,,,,,,,,,,,,,,,,,,,,,,,,,,,,,,,,,,e,1,0.8801,0,3,3,69,1,其他,e,,,,,,,,,,,,
,,,,,,,,,,,,,,1,001,2024-08-24_15h42.57.918,IAT(Formal),2021.2.3,Win32,58.82352941,,,,,,,,,,,,,,,,,,,,,,,,,,,,,,,,,,,,,,,,,,,,i,1,0.8451,0,4,4,37,1,傲慢,i,,,,,,,,,,,,
,,,,,,,,,,,,,,1,001,2024-08-24_15h42.57.918,IAT(Formal),2021.2.3,Win32,58.82352941,,,,,,,,,,,,,,,,,,,,,,,,,,,,,,,,,,,,,,,,,,,,i,1,0.3891,0,5,5,0,1,我,i,,,,,,,,,,,,
,,,,,,,,,,,,,,1,001,2024-08-24_15h42.57.918,IAT(Formal),2021.2.3,Win32,58.82352941,,,,,,,,,,,,,,,,,,,,,,,,,,,,,,,,,,,,,,,,,,,,e,1,0.5517,0,6,6,67,1,他的,e,,,,,,,,,,,,
,,,,,,,,,,,,,,1,001,2024-08-24_15h42.57.918,IAT(Formal),2021.2.3,Win32,58.82352941,,,,,,,,,,,,,,,,,,,,,,,,,,,,,,,,,,,,,,,,,,,,e,1,0.4878,0,7,7,76,1,他们,e,,,,,,,,,,,,
,,,,,,,,,,,,,,1,001,2024-08-24_15h42.57.918,IAT(Formal),2021.2.3,Win32,58.82352941,,,,,,,,,,,,,,,,,,,,,,,,,,,,,,,,,,,,,,,,,,,,i,1,0.6175,0,8,8,54,1,俺,i,,,,,,,,,,,,
,,,,,,,,,,,,,,1,001,2024-08-24_15h42.57.918,IAT(Formal),2021.2.3,Win32,58.82352941,,,,,,,,,,,,,,,,,,,,,,,,,,,,,,,,,,,,,,,,,,,,i,1,0.4674,0,9,9,51,1,我的,i,,,,,,,,,,,,
,,,,,,,,,,,,,,1,001,2024-08-24_15h42.57.918,IAT(Formal),2021.2.3,Win32,58.82352941,,,,,,,,,,,,,,,,,,,,,,,,,,,,,,,,,,,,,,,,,,,,i,1,0.691,0,10,10,43,1,自私,i,,,,,,,,,,,,
,,,,,,,,,,,,,,1,001,2024-08-24_15h42.57.918,IAT(Formal),2021.2.3,Win32,58.82352941,,,,,,,,,,,,,,,,,,,,,,,,,,,,,,,,,,,,,,,,,,,,i,1,0.4832,0,11,11,4,1,俺,i,,,,,,,,,,,,
,,,,,,,,,,,,,,1,001,2024-08-24_15h42.57.918,IAT(Formal),2021.2.3,Win32,58.82352941,,,,,,,,,,,,,,,,,,,,,,,,,,,,,,,,,,,,,,,,,,,,i,0,0.6494,0,12,12,23,1,公正,e,,,,,,,,,,,,
,,,,,,,,,,,,,,1,001,2024-08-24_15h42.57.918,IAT(Formal),2021.2.3,Win32,58.82352941,,,,,,,,,,,,,,,,,,,,,,,,,,,,,,,,,,,,,,,,,,,,e,1,0.8332,0,13,13,22,1,无私,e,,,,,,,,,,,,
,,,,,,,,,,,,,,1,001,2024-08-24_15h42.57.918,IAT(Formal),2021.2.3,Win32,58.82352941,,,,,,,,,,,,,,,,,,,,,,,,,,,,,,,,,,,,,,,,,,,,e,1,0.4744,0,14,14,27,1,热情,e,,,,,,,,,,,,
,,,,,,,,,,,,,,1,001,2024-08-24_15h42.57.918,IAT(Formal),2021.2.3,Win32,58.82352941,,,,,,,,,,,,,,,,,,,,,,,,,,,,,,,,,,,,,,,,,,,,i,1,0.6673,0,15,15,39,1,冒失,i,,,,,,,,,,,,
,,,,,,,,,,,,,,1,001,2024-08-24_15h42.57.918,IAT(Formal),2021.2.3,Win32,58.82352941,,,,,,,,,,,,,,,,,,,,,,,,,,,,,,,,,,,,,,,,,,,,e,1,0.7002,0,16,16,28,1,活泼,e,,,,,,,,,,,,
,,,,,,,,,,,,,,1,001,2024-08-24_15h42.57.918,IAT(Formal),2021.2.3,Win32,58.82352941,,,,,,,,,,,,,,,,,,,,,,,,,,,,,,,,,,,,,,,,,,,,e,1,0.4163,0,17,17,78,1,他人,e,,,,,,,,,,,,
,,,,,,,,,,,,,,1,001,2024-08-24_15h42.57.918,IAT(Formal),2021.2.3,Win32,58.82352941,,,,,,,,,,,,,,,,,,,,,,,,,,,,,,,,,,,,,,,,,,,,i,1,0.9943,0,18,18,30,1,卑鄙,i,,,,,,,,,,,,
,,,,,,,,,,,,,,1,001,2024-08-24_15h42.57.918,IAT(Formal),2021.2.3,Win32,58.82352941,,,,,,,,,,,,,,,,,,,,,,,,,,,,,,,,,,,,,,,,,,,,e,1,0.7241,0,19,19,66,1,他们,e,,,,,,,,,,,,
,,,,,,,,,,,,,,1,001,2024-08-24_15h42.57.918,IAT(Formal),2021.2.3,Win32,58.82352941,,,,,,,,,,,,,,,,,,,,,,,,,,,,,,,,,,,,,,,,,,,,i,1,0.5169,0,20,20,53,1,自己,i,,,,,,,,,,,,
,,,,,,,,,,,,,,1,001,2024-08-24_15h42.57.918,IAT(Formal),2021.2.3,Win32,58.82352941,,,,,,,,,,,,,,,,,,,,,,,,,,,,,,,,,,,,,,,,,,,,e,1,0.5833,0,21,21,59,1,其他,e,,,,,,,,,,,,
,,,,,,,,,,,,,,1,001,2024-08-24_15h42.57.918,IAT(Formal),2021.2.3,Win32,58.82352941,,,,,,,,,,,,,,,,,,,,,,,,,,,,,,,,,,,,,,,,,,,,i,1,0.5134,0,22,22,71,1,我的,i,,,,,,,,,,,,
,,,,,,,,,,,,,,1,001,2024-08-24_15h42.57.918,IAT(Formal),2021.2.3,Win32,58.82352941,,,,,,,,,,,,,,,,,,,,,,,,,,,,,,,,,,,,,,,,,,,,i,1,0.5168,0,23,23,52,1,我们,i,,,,,,,,,,,,
,,,,,,,,,,,,,,1,001,2024-08-24_15h42.57.918,IAT(Formal),2021.2.3,Win32,58.82352941,,,,,,,,,,,,,,,,,,,,,,,,,,,,,,,,,,,,,,,,,,,,i,1,1.2797,0,24,24,33,1,刻薄,i,,,,,,,,,,,,
,,,,,,,,,,,,,,1,001,2024-08-24_15h42.57.918,IAT(Formal),2021.2.3,Win32,58.82352941,,,,,,,,,,,,,,,,,,,,,,,,,,,,,,,,,,,,,,,,,,,,e,1,1.0682,0,25,25,20,1,认真,e,,,,,,,,,,,,
,,,,,,,,,,,,,,1,001,2024-08-24_15h42.57.918,IAT(Formal),2021.2.3,Win32,58.82352941,,,,,,,,,,,,,,,,,,,,,,,,,,,,,,,,,,,,,,,,,,,,i,1,0.6253,0,26,26,46,1,野蛮,i,,,,,,,,,,,,
,,,,,,,,,,,,,,1,001,2024-08-24_15h42.57.918,IAT(Formal),2021.2.3,Win32,58.82352941,,,,,,,,,,,,,,,,,,,,,,,,,,,,,,,,,,,,,,,,,,,,e,1,0.8434,0,27,27,12,1,聪明,e,,,,,,,,,,,,
,,,,,,,,,,,,,,1,001,2024-08-24_15h42.57.918,IAT(Formal),2021.2.3,Win32,58.82352941,,,,,,,,,,,,,,,,,,,,,,,,,,,,,,,,,,,,,,,,,,,,i,1,0.4996,0,28,28,70,1,我,i,,,,,,,,,,,,
,,,,,,,,,,,,,,1,001,2024-08-24_15h42.57.918,IAT(Formal),2021.2.3,Win32,58.82352941,,,,,,,,,,,,,,,,,,,,,,,,,,,,,,,,,,,,,,,,,,,,e,0,0.8494,0,29,29,42,1,凶狠,i,,,,,,,,,,,,
,,,,,,,,,,,,,,1,001,2024-08-24_15h42.57.918,IAT(Formal),2021.2.3,Win32,58.82352941,,,,,,,,,,,,,,,,,,,,,,,,,,,,,,,,,,,,,,,,,,,,i,1,0.629,0,30,30,1,1,我的,i,,,,,,,,,,,,
,,,,,,,,,,,,,,1,001,2024-08-24_15h42.57.918,IAT(Formal),2021.2.3,Win32,58.82352941,,,,,,,,,,,,,,,,,,,,,,,,,,,,,,,,,,,,,,,,,,,,e,1,0.6467,0,31,31,21,1,稳重,e,,,,,,,,,,,,
,,,,,,,,,,,,,,1,001,2024-08-24_15h42.57.918,IAT(Formal),2021.2.3,Win32,58.82352941,,,,,,,,,,,,,,,,,,,,,,,,,,,,,,,,,,,,,,,,,,,,e,1,0.8332,0,32,32,57,1,他的,e,,,,,,,,,,,,
,,,,,,,,,,,,,,1,001,2024-08-24_15h42.57.918,IAT(Formal),2021.2.3,Win32,58.82352941,,,,,,,,,,,,,,,,,,,,,,,,,,,,,,,,,,,,,,,,,,,,i,1,0.4599,0,33,33,61,1,我的,i,,,,,,,,,,,,
,,,,,,,,,,,,,,1,001,2024-08-24_15h42.57.918,IAT(Formal),2021.2.3,Win32,58.82352941,,,,,,,,,,,,,,,,,,,,,,,,,,,,,,,,,,,,,,,,,,,,e,1,1.0506,0,34,34,16,1,正直,e,,,,,,,,,,,,
,,,,,,,,,,,,,,1,001,2024-08-24_15h42.57.918,IAT(Formal),2021.2.3,Win32,58.82352941,,,,,,,,,,,,,,,,,,,,,,,,,,,,,,,,,,,,,,,,,,,,e,1,0.6837,0,35,35,7,1,他的,e,,,,,,,,,,,,
,,,,,,,,,,,,,,1,001,2024-08-24_15h42.57.918,IAT(Formal),2021.2.3,Win32,58.82352941,,,,,,,,,,,,,,,,,,,,,,,,,,,,,,,,,,,,,,,,,,,,i,1,0.5804,0,36,36,2,1,我们,i,,,,,,,,,,,,
,,,,,,,,,,,,,,1,001,2024-08-24_15h42.57.918,IAT(Formal),2021.2.3,Win32,58.82352941,,,,,,,,,,,,,,,,,,,,,,,,,,,,,,,,,,,,,,,,,,,,i,1,0.624,0,37,37,74,1,俺,i,,,,,,,,,,,,
,,,,,,,,,,,,,,1,001,2024-08-24_15h42.57.918,IAT(Formal),2021.2.3,Win32,58.82352941,,,,,,,,,,,,,,,,,,,,,,,,,,,,,,,,,,,,,,,,,,,,e,1,0.4631,0,38,38,56,1,他们,e,,,,,,,,,,,,
,,,,,,,,,,,,,,1,001,2024-08-24_15h42.57.918,IAT(Formal),2021.2.3,Win32,58.82352941,,,,,,,,,,,,,,,,,,,,,,,,,,,,,,,,,,,,,,,,,,,,e,1,1.1005,0,39,39,15,1,诚实,e,,,,,,,,,,,,
,,,,,,,,,,,,,,1,001,2024-08-24_15h42.57.918,IAT(Formal),2021.2.3,Win32,58.82352941,,,,,,,,,,,,,,,,,,,,,,,,,,,,,,,,,,,,,,,,,,,,i,1,0.4728,0,40,40,72,1,我们,i,,,,,,,,,,,,
,,,,,,,,,,,,,,1,001,2024-08-24_15h42.57.918,IAT(Formal),2021.2.3,Win32,58.82352941,,,,,,,,,,,,,,,,,,,,,,,,,,,,,,,,,,,,,,,,,,,,e,0,0.6802,0,41,41,35,1,消极,i,,,,,,,,,,,,
,,,,,,,,,,,,,,1,001,2024-08-24_15h42.57.918,IAT(Formal),2021.2.3,Win32,58.82352941,,,,,,,,,,,,,,,,,,,,,,,,,,,,,,,,,,,,,,,,,,,,i,1,0.5177,0,42,42,62,1,我们,i,,,,,,,,,,,,
,,,,,,,,,,,,,,1,001,2024-08-24_15h42.57.918,IAT(Formal),2021.2.3,Win32,58.82352941,,,,,,,,,,,,,,,,,,,,,,,,,,,,,,,,,,,,,,,,,,,,i,1,1.1734,0,43,43,48,1,轻率,i,,,,,,,,,,,,
,,,,,,,,,,,,,,1,001,2024-08-24_15h42.57.918,IAT(Formal),2021.2.3,Win32,58.82352941,,,,,,,,,,,,,,,,,,,,,,,,,,,,,,,,,,,,,,,,,,,,i,1,0.6801,0,44,44,50,1,我,i,,,,,,,,,,,,
,,,,,,,,,,,,,,1,001,2024-08-24_15h42.57.918,IAT(Formal),2021.2.3,Win32,58.82352941,,,,,,,,,,,,,,,,,,,,,,,,,,,,,,,,,,,,,,,,,,,,e,1,0.6171,0,45,45,8,1,他人,e,,,,,,,,,,,,
,,,,,,,,,,,,,,1,001,2024-08-24_15h42.57.918,IAT(Formal),2021.2.3,Win32,58.82352941,,,,,,,,,,,,,,,,,,,,,,,,,,,,,,,,,,,,,,,,,,,,i,1,0.9873,0,46,46,44,1,暴躁,i,,,,,,,,,,,,
,,,,,,,,,,,,,,1,001,2024-08-24_15h42.57.918,IAT(Formal),2021.2.3,Win32,58.82352941,,,,,,,,,,,,,,,,,,,,,,,,,,,,,,,,,,,,,,,,,,,,e,0,0.9397,0,47,47,47,1,固执,i,,,,,,,,,,,,
,,,,,,,,,,,,,,1,001,2024-08-24_15h42.57.918,IAT(Formal),2021.2.3,Win32,58.82352941,,,,,,,,,,,,,,,,,,,,,,,,,,,,,,,,,,,,,,,,,,,,e,1,0.7995,0,48,48,75,1,他,e,,,,,,,,,,,,
,,,,,,,,,,,,,,1,001,2024-08-24_15h42.57.918,IAT(Formal),2021.2.3,Win32,58.82352941,,,,,,,,,,,,,,,,,,,,,,,,,,,,,,,,,,,,,,,,,,,,i,1,0.534,0,49,49,63,1,自己,i,,,,,,,,,,,,
,,,,,,,,,,,,,,1,001,2024-08-24_15h42.57.918,IAT(Formal),2021.2.3,Win32,58.82352941,,,,,,,,,,,,,,,,,,,,,,,,,,,,,,,,,,,,,,,,,,,,e,0,1.0999,0,50,50,32,1,愚蠢,i,,,,,,,,,,,,
,,,,,,,,,,,,,,1,001,2024-08-24_15h42.57.918,IAT(Formal),2021.2.3,Win32,58.82352941,,,,,,,,,,,,,,,,,,,,,,,,,,,,,,,,,,,,,,,,,,,,e,1,1.1577,0,51,51,55,1,他,e,,,,,,,,,,,,
,,,,,,,,,,,,,,1,001,2024-08-24_15h42.57.918,IAT(Formal),2021.2.3,Win32,58.82352941,,,,,,,,,,,,,,,,,,,,,,,,,,,,,,,,,,,,,,,,,,,,e,1,1.2455,0,52,52,13,1,杰出,e,,,,,,,,,,,,
,,,,,,,,,,,,,,1,001,2024-08-24_15h42.57.918,IAT(Formal),2021.2.3,Win32,58.82352941,,,,,,,,,,,,,,,,,,,,,,,,,,,,,,,,,,,,,,,,,,,,e,1,0.5037,0,53,53,68,1,他人,e,,,,,,,,,,,,
,,,,,,,,,,,,,,1,001,2024-08-24_15h42.57.918,IAT(Formal),2021.2.3,Win32,58.82352941,,,,,,,,,,,,,,,,,,,,,,,,,,,,,,,,,,,,,,,,,,,,e,1,0.8634,0,54,54,19,1,机智,e,,,,,,,,,,,,
,,,,,,,,,,,,,,1,001,2024-08-24_15h42.57.918,IAT(Formal),2021.2.3,Win32,58.82352941,,,,,,,,,,,,,,,,,,,,,,,,,,,,,,,,,,,,,,,,,,,,e,1,0.7571,0,55,55,10,1,优秀,e,,,,,,,,,,,,
,,,,,,,,,,,,,,1,001,2024-08-24_15h42.57.918,IAT(Formal),2021.2.3,Win32,58.82352941,,,,,,,,,,,,,,,,,,,,,,,,,,,,,,,,,,,,,,,,,,,,e,1,0.5188,0,56,56,58,1,他人,e,,,,,,,,,,,,
,,,,,,,,,,,,,,1,001,2024-08-24_15h42.57.918,IAT(Formal),2021.2.3,Win32,58.82352941,,,,,,,,,,,,,,,,,,,,,,,,,,,,,,,,,,,,,,,,,,,,i,1,0.5999,0,57,57,38,1,鲁莽,i,,,,,,,,,,,,
,,,,,,,,,,,,,,1,001,2024-08-24_15h42.57.918,IAT(Formal),2021.2.3,Win32,58.82352941,,,,,,,,,,,,,,,,,,,,,,,,,,,,,,,,,,,,,,,,,,,,e,1,0.725,0,58,58,18,1,勤奋,e,,,,,,,,,,,,
,,,,,,,,,,,,,,1,001,2024-08-24_15h42.57.918,IAT(Formal),2021.2.3,Win32,58.82352941,,,,,,,,,,,,,,,,,,,,,,,,,,,,,,,,,,,,,,,,,,,,e,1,0.7495,0,59,59,79,1,其他,e,,,,,,,,,,,,
,,,,,,,,,,,,,,1,001,2024-08-24_15h42.57.918,IAT(Formal),2021.2.3,Win32,58.82352941,,,,,,,,,,,,,,,,,,,,,,,,,,,,,,,,,,,,,,,,,,,,i,1,0.4181,0,60,60,60,1,我,i,,,,,,,,,,,,
,,,,,,,,,,,,,,1,001,2024-08-24_15h42.57.918,IAT(Formal),2021.2.3,Win32,58.82352941,,,,,,,,,,,,,,,,,,,,,,,,,,,,,,,,,,,,,,,,,,,,e,1,1.0672,0,61,61,29,1,诚恳,e,,,,,,,,,,,,
,,,,,,,,,,,,,,1,001,2024-08-24_15h42.57.918,IAT(Formal),2021.2.3,Win32,58.82352941,,,,,,,,,,,,,,,,,,,,,,,,,,,,,,,,,,,,,,,,,,,,e,1,0.6836,0,62,62,24,1,朴实,e,,,,,,,,,,,,
,,,,,,,,,,,,,,1,001,2024-08-24_15h42.57.918,IAT(Formal),2021.2.3,Win32,58.82352941,,,,,,,,,,,,,,,,,,,,,,,,,,,,,,,,,,,,,,,,,,,,e,1,0.4849,0,63,63,6,1,他们,e,,,,,,,,,,,,
,,,,,,,,,,,,,,1,001,2024-08-24_15h42.57.918,IAT(Formal),2021.2.3,Win32,58.82352941,,,,,,,,,,,,,,,,,,,,,,,,,,,,,,,,,,,,,,,,,,,,e,1,0.9108,0,64,64,26,1,冷静,e,,,,,,,,,,,,
,,,,,,,,,,,,,,1,001,2024-08-24_15h42.57.918,IAT(Formal),2021.2.3,Win32,58.82352941,,,,,,,,,,,,,,,,,,,,,,,,,,,,,,,,,,,,,,,,,,,,i,1,0.6193,0,65,65,45,1,猖狂,i,,,,,,,,,,,,
,,,,,,,,,,,,,,1,001,2024-08-24_15h42.57.918,IAT(Formal),2021.2.3,Win32,58.82352941,,,,,,,,,,,,,,,,,,,,,,,,,,,,,,,,,,,,,,,,,,,,e,1,0.7353,0,66,66,5,1,他,e,,,,,,,,,,,,
,,,,,,,,,,,,,,1,001,2024-08-24_15h42.57.918,IAT(Formal),2021.2.3,Win32,58.82352941,,,,,,,,,,,,,,,,,,,,,,,,,,,,,,,,,,,,,,,,,,,,e,1,0.951,0,67,67,17,1,勇敢,e,,,,,,,,,,,,
,,,,,,,,,,,,,,1,001,2024-08-24_15h42.57.918,IAT(Formal),2021.2.3,Win32,58.82352941,,,,,,,,,,,,,,,,,,,,,,,,,,,,,,,,,,,,,,,,,,,,i,1,0.7241,0,68,68,36,1,自卑,i,,,,,,,,,,,,
,,,,,,,,,,,,,,1,001,2024-08-24_15h42.57.918,IAT(Formal),2021.2.3,Win32,58.82352941,,,,,,,,,,,,,,,,,,,,,,,,,,,,,,,,,,,,,,,,,,,,e,1,0.9338,0,69,69,9,1,其他,e,,,,,,,,,,,,
,,,,,,,,,,,,,,1,001,2024-08-24_15h42.57.918,IAT(Formal),2021.2.3,Win32,58.82352941,,,,,,,,,,,,,,,,,,,,,,,,,,,,,,,,,,,,,,,,,,,,i,1,0.7096,0,70,70,3,1,自己,i,,,,,,,,,,,,
,,,,,,,,,,,,,,1,001,2024-08-24_15h42.57.918,IAT(Formal),2021.2.3,Win32,58.82352941,,,,,,,,,,,,,,,,,,,,,,,,,,,,,,,,,,,,,,,,,,,,e,1,0.5167,0,71,71,65,1,他,e,,,,,,,,,,,,
,,,,,,,,,,,,,,1,001,2024-08-24_15h42.57.918,IAT(Formal),2021.2.3,Win32,58.82352941,,,,,,,,,,,,,,,,,,,,,,,,,,,,,,,,,,,,,,,,,,,,i,1,0.8996,0,72,72,41,1,散漫,i,,,,,,,,,,,,
,,,,,,,,,,,,,,1,001,2024-08-24_15h42.57.918,IAT(Formal),2021.2.3,Win32,58.82352941,,,,,,,,,,,,,,,,,,,,,,,,,,,,,,,,,,,,,,,,,,,,i,1,0.5733,0,73,73,34,1,悲观,i,,,,,,,,,,,,
,,,,,,,,,,,,,,1,001,2024-08-24_15h42.57.918,IAT(Formal),2021.2.3,Win32,58.82352941,,,,,,,,,,,,,,,,,,,,,,,,,,,,,,,,,,,,,,,,,,,,i,1,0.601,0,74,74,49,1,下贱,i,,,,,,,,,,,,
,,,,,,,,,,,,,,1,001,2024-08-24_15h42.57.918,IAT(Formal),2021.2.3,Win32,58.82352941,,,,,,,,,,,,,,,,,,,,,,,,,,,,,,,,,,,,,,,,,,,,e,1,0.6677,0,75,75,77,1,他的,e,,,,,,,,,,,,
,,,,,,,,,,,,,,1,001,2024-08-24_15h42.57.918,IAT(Formal),2021.2.3,Win32,58.82352941,,,,,,,,,,,,,,,,,,,,,,,,,,,,,,,,,,,,,,,,,,,,e,1,1.1273,0,76,76,14,1,乐观,e,,,,,,,,,,,,
,,,,,,,,,,,,,,1,001,2024-08-24_15h42.57.918,IAT(Formal),2021.2.3,Win32,58.82352941,,,,,,,,,,,,,,,,,,,,,,,,,,,,,,,,,,,,,,,,,,,,i,1,0.7773,0,77,77,31,1,虚伪,i,,,,,,,,,,,,
,,,,,,,,,,,,,,1,001,2024-08-24_15h42.57.918,IAT(Formal),2021.2.3,Win32,58.82352941,,,,,,,,,,,,,,,,,,,,,,,,,,,,,,,,,,,,,,,,,,,,i,1,0.5393,0,78,78,40,1,执拗,i,,,,,,,,,,,,
,,,,,,,,,,,,,,1,001,2024-08-24_15h42.57.918,IAT(Formal),2021.2.3,Win32,58.82352941,,,,,,,,,,,,,,,,,,,,,,,,,,,,,,,,,,,,,,,,,,,,i,1,0.4836,0,79,79,64,1,俺,i,,,,,,,,,,,,
,,,,,,,,,,,,,,1,001,2024-08-24_15h42.57.918,IAT(Formal),2021.2.3,Win32,58.82352941,,,,,,,,,,,,,,,,,,,,,,,,,,,,,,,,,,,,,,,,,,,,,,,,,,,,猖狂,i,space,53.3109,i,1,0.7006,0,0,0,45,1,,
,,,,,,,,,,,,,,1,001,2024-08-24_15h42.57.918,IAT(Formal),2021.2.3,Win32,58.82352941,,,,,,,,,,,,,,,,,,,,,,,,,,,,,,,,,,,,,,,,,,,,,,,,,,,,刻薄,i,,,i,1,0.5035,0,1,1,33,1,,
,,,,,,,,,,,,,,1,001,2024-08-24_15h42.57.918,IAT(Formal),2021.2.3,Win32,58.82352941,,,,,,,,,,,,,,,,,,,,,,,,,,,,,,,,,,,,,,,,,,,,,,,,,,,,公正,e,,,e,1,0.6105,0,2,2,23,1,,
,,,,,,,,,,,,,,1,001,2024-08-24_15h42.57.918,IAT(Formal),2021.2.3,Win32,58.82352941,,,,,,,,,,,,,,,,,,,,,,,,,,,,,,,,,,,,,,,,,,,,,,,,,,,,他,e,,,e,1,0.4597,0,3,3,55,1,,
,,,,,,,,,,,,,,1,001,2024-08-24_15h42.57.918,IAT(Formal),2021.2.3,Win32,58.82352941,,,,,,,,,,,,,,,,,,,,,,,,,,,,,,,,,,,,,,,,,,,,,,,,,,,,勇敢,e,,,i,0,0.6511,0,4,4,17,1,,
,,,,,,,,,,,,,,1,001,2024-08-24_15h42.57.918,IAT(Formal),2021.2.3,Win32,58.82352941,,,,,,,,,,,,,,,,,,,,,,,,,,,,,,,,,,,,,,,,,,,,,,,,,,,,朴实,e,,,e,1,0.6927,0,5,5,24,1,,
,,,,,,,,,,,,,,1,001,2024-08-24_15h42.57.918,IAT(Formal),2021.2.3,Win32,58.82352941,,,,,,,,,,,,,,,,,,,,,,,,,,,,,,,,,,,,,,,,,,,,,,,,,,,,他的,e,,,e,1,0.5027,0,6,6,7,1,,
,,,,,,,,,,,,,,1,001,2024-08-24_15h42.57.918,IAT(Formal),2021.2.3,Win32,58.82352941,,,,,,,,,,,,,,,,,,,,,,,,,,,,,,,,,,,,,,,,,,,,,,,,,,,,我们,i,,,i,1,0.5347,0,7,7,72,1,,
,,,,,,,,,,,,,,1,001,2024-08-24_15h42.57.918,IAT(Formal),2021.2.3,Win32,58.82352941,,,,,,,,,,,,,,,,,,,,,,,,,,,,,,,,,,,,,,,,,,,,,,,,,,,,他,e,,,e,1,0.4824,0,8,8,75,1,,
,,,,,,,,,,,,,,1,001,2024-08-24_15h42.57.918,IAT(Formal),2021.2.3,Win32,58.82352941,,,,,,,,,,,,,,,,,,,,,,,,,,,,,,,,,,,,,,,,,,,,,,,,,,,,无私,e,,,e,1,0.4633,0,9,9,22,1,,
,,,,,,,,,,,,,,1,001,2024-08-24_15h42.57.918,IAT(Formal),2021.2.3,Win32,58.82352941,,,,,,,,,,,,,,,,,,,,,,,,,,,,,,,,,,,,,,,,,,,,,,,,,,,,我们,i,,,i,1,0.4826,0,10,10,62,1,,
,,,,,,,,,,,,,,1,001,2024-08-24_15h42.57.918,IAT(Formal),2021.2.3,Win32,58.82352941,,,,,,,,,,,,,,,,,,,,,,,,,,,,,,,,,,,,,,,,,,,,,,,,,,,,愚蠢,i,,,i,1,0.8508,0,11,11,32,1,,
,,,,,,,,,,,,,,1,001,2024-08-24_15h42.57.918,IAT(Formal),2021.2.3,Win32,58.82352941,,,,,,,,,,,,,,,,,,,,,,,,,,,,,,,,,,,,,,,,,,,,,,,,,,,,轻率,i,,,i,1,0.5175,0,12,12,48,1,,
,,,,,,,,,,,,,,1,001,2024-08-24_15h42.57.918,IAT(Formal),2021.2.3,Win32,58.82352941,,,,,,,,,,,,,,,,,,,,,,,,,,,,,,,,,,,,,,,,,,,,,,,,,,,,他们,e,,,e,1,0.5044,0,13,13,66,1,,
,,,,,,,,,,,,,,1,001,2024-08-24_15h42.57.918,IAT(Formal),2021.2.3,Win32,58.82352941,,,,,,,,,,,,,,,,,,,,,,,,,,,,,,,,,,,,,,,,,,,,,,,,,,,,热情,e,,,e,1,0.8285,0,14,14,27,1,,
,,,,,,,,,,,,,,1,001,2024-08-24_15h42.57.918,IAT(Formal),2021.2.3,Win32,58.82352941,,,,,,,,,,,,,,,,,,,,,,,,,,,,,,,,,,,,,,,,,,,,,,,,,,,,我,i,,,i,1,0.4334,0,15,15,70,1,,
,,,,,,,,,,,,,,1,001,2024-08-24_15h42.57.918,IAT(Formal),2021.2.3,Win32,58.82352941,,,,,,,,,,,,,,,,,,,,,,,,,,,,,,,,,,,,,,,,,,,,,,,,,,,,散漫,i,,,i,1,0.5682,0,16,16,41,1,,
,,,,,,,,,,,,,,1,001,2024-08-24_15h42.57.918,IAT(Formal),2021.2.3,Win32,58.82352941,,,,,,,,,,,,,,,,,,,,,,,,,,,,,,,,,,,,,,,,,,,,,,,,,,,,执拗,i,,,i,1,0.4333,0,17,17,40,1,,
,,,,,,,,,,,,,,1,001,2024-08-24_15h42.57.918,IAT(Formal),2021.2.3,Win32,58.82352941,,,,,,,,,,,,,,,,,,,,,,,,,,,,,,,,,,,,,,,,,,,,,,,,,,,,他人,e,,,e,1,0.567,0,18,18,8,1,,
,,,,,,,,,,,,,,1,001,2024-08-24_15h42.57.918,IAT(Formal),2021.2.3,Win32,58.82352941,,,,,,,,,,,,,,,,,,,,,,,,,,,,,,,,,,,,,,,,,,,,,,,,,,,,他们,e,,,e,1,0.4756,0,19,19,56,1,,
,,,,,,,,,,,,,,1,001,2024-08-24_15h42.57.918,IAT(Formal),2021.2.3,Win32,58.82352941,,,,,,,,,,,,,,,,,,,,,,,,,,,,,,,,,,,,,,,,,,,,,,,,,,,,其他,e,,,e,1,0.5393,0,20,20,9,1,,
,,,,,,,,,,,,,,1,001,2024-08-24_15h42.57.918,IAT(Formal),2021.2.3,Win32,58.82352941,,,,,,,,,,,,,,,,,,,,,,,,,,,,,,,,,,,,,,,,,,,,,,,,,,,,俺,i,,,i,1,0.6372,0,21,21,4,1,,
,,,,,,,,,,,,,,1,001,2024-08-24_15h42.57.918,IAT(Formal),2021.2.3,Win32,58.82352941,,,,,,,,,,,,,,,,,,,,,,,,,,,,,,,,,,,,,,,,,,,,,,,,,,,,傲慢,i,,,i,1,0.752,0,22,22,37,1,,
,,,,,,,,,,,,,,1,001,2024-08-24_15h42.57.918,IAT(Formal),2021.2.3,Win32,58.82352941,,,,,,,,,,,,,,,,,,,,,,,,,,,,,,,,,,,,,,,,,,,,,,,,,,,,认真,e,,,e,1,0.6171,0,23,23,20,1,,
,,,,,,,,,,,,,,1,001,2024-08-24_15h42.57.918,IAT(Formal),2021.2.3,Win32,58.82352941,,,,,,,,,,,,,,,,,,,,,,,,,,,,,,,,,,,,,,,,,,,,,,,,,,,,崇高,e,,,e,1,0.7506,0,24,24,11,1,,
,,,,,,,,,,,,,,1,001,2024-08-24_15h42.57.918,IAT(Formal),2021.2.3,Win32,58.82352941,,,,,,,,,,,,,,,,,,,,,,,,,,,,,,,,,,,,,,,,,,,,,,,,,,,,活泼,e,,,e,1,0.7241,0,25,25,28,1,,
,,,,,,,,,,,,,,1,001,2024-08-24_15h42.57.918,IAT(Formal),2021.2.3,Win32,58.82352941,,,,,,,,,,,,,,,,,,,,,,,,,,,,,,,,,,,,,,,,,,,,,,,,,,,,杰出,e,,,e,1,0.4505,0,26,26,13,1,,
,,,,,,,,,,,,,,1,001,2024-08-24_15h42.57.918,IAT(Formal),2021.2.3,Win32,58.82352941,,,,,,,,,,,,,,,,,,,,,,,,,,,,,,,,,,,,,,,,,,,,,,,,,,,,我们,i,,,i,1,0.4029,0,27,27,52,1,,
,,,,,,,,,,,,,,1,001,2024-08-24_15h42.57.918,IAT(Formal),2021.2.3,Win32,58.82352941,,,,,,,,,,,,,,,,,,,,,,,,,,,,,,,,,,,,,,,,,,,,,,,,,,,,我,i,,,i,1,0.4502,0,28,28,50,1,,
,,,,,,,,,,,,,,1,001,2024-08-24_15h42.57.918,IAT(Formal),2021.2.3,Win32,58.82352941,,,,,,,,,,,,,,,,,,,,,,,,,,,,,,,,,,,,,,,,,,,,,,,,,,,,我的,i,,,i,1,0.4557,0,29,29,1,1,,
,,,,,,,,,,,,,,1,001,2024-08-24_15h42.57.918,IAT(Formal),2021.2.3,Win32,58.82352941,,,,,,,,,,,,,,,,,,,,,,,,,,,,,,,,,,,,,,,,,,,,,,,,,,,,他们,e,,,e,1,0.5061,0,30,30,76,1,,
,,,,,,,,,,,,,,1,001,2024-08-24_15h42.57.918,IAT(Formal),2021.2.3,Win32,58.82352941,,,,,,,,,,,,,,,,,,,,,,,,,,,,,,,,,,,,,,,,,,,,,,,,,,,,我,i,,,i,1,0.4527,0,31,31,60,1,,
,,,,,,,,,,,,,,1,001,2024-08-24_15h42.57.918,IAT(Formal),2021.2.3,Win32,58.82352941,,,,,,,,,,,,,,,,,,,,,,,,,,,,,,,,,,,,,,,,,,,,,,,,,,,,俺,i,,,i,1,0.9032,0,32,32,54,1,,
,,,,,,,,,,,,,,1,001,2024-08-24_15h42.57.918,IAT(Formal),2021.2.3,Win32,58.82352941,,,,,,,,,,,,,,,,,,,,,,,,,,,,,,,,,,,,,,,,,,,,,,,,,,,,诚实,e,,,e,1,0.846,0,33,33,15,1,,
,,,,,,,,,,,,,,1,001,2024-08-24_15h42.57.918,IAT(Formal),2021.2.3,Win32,58.82352941,,,,,,,,,,,,,,,,,,,,,,,,,,,,,,,,,,,,,,,,,,,,,,,,,,,,虚伪,i,,,i,1,0.6177,0,34,34,31,1,,
,,,,,,,,,,,,,,1,001,2024-08-24_15h42.57.918,IAT(Formal),2021.2.3,Win32,58.82352941,,,,,,,,,,,,,,,,,,,,,,,,,,,,,,,,,,,,,,,,,,,,,,,,,,,,自己,i,,,i,1,0.8467,0,35,35,53,1,,
,,,,,,,,,,,,,,1,001,2024-08-24_15h42.57.918,IAT(Formal),2021.2.3,Win32,58.82352941,,,,,,,,,,,,,,,,,,,,,,,,,,,,,,,,,,,,,,,,,,,,,,,,,,,,他人,e,,,e,1,0.4514,0,36,36,68,1,,
,,,,,,,,,,,,,,1,001,2024-08-24_15h42.57.918,IAT(Formal),2021.2.3,Win32,58.82352941,,,,,,,,,,,,,,,,,,,,,,,,,,,,,,,,,,,,,,,,,,,,,,,,,,,,自己,i,,,i,1,0.4286,0,37,37,3,1,,
,,,,,,,,,,,,,,1,001,2024-08-24_15h42.57.918,IAT(Formal),2021.2.3,Win32,58.82352941,,,,,,,,,,,,,,,,,,,,,,,,,,,,,,,,,,,,,,,,,,,,,,,,,,,,其他,e,,,e,1,0.886,0,38,38,59,1,,
,,,,,,,,,,,,,,1,001,2024-08-24_15h42.57.918,IAT(Formal),2021.2.3,Win32,58.82352941,,,,,,,,,,,,,,,,,,,,,,,,,,,,,,,,,,,,,,,,,,,,,,,,,,,,自卑,i,,,i,1,0.9407,0,39,39,36,1,,
,,,,,,,,,,,,,,1,001,2024-08-24_15h42.57.918,IAT(Formal),2021.2.3,Win32,58.82352941,,,,,,,,,,,,,,,,,,,,,,,,,,,,,,,,,,,,,,,,,,,,,,,,,,,,勤奋,e,,,e,1,0.8293,0,40,40,18,1,,
,,,,,,,,,,,,,,1,001,2024-08-24_15h42.57.918,IAT(Formal),2021.2.3,Win32,58.82352941,,,,,,,,,,,,,,,,,,,,,,,,,,,,,,,,,,,,,,,,,,,,,,,,,,,,稳重,e,,,e,1,1.1003,0,41,41,21,1,,
,,,,,,,,,,,,,,1,001,2024-08-24_15h42.57.918,IAT(Formal),2021.2.3,Win32,58.82352941,,,,,,,,,,,,,,,,,,,,,,,,,,,,,,,,,,,,,,,,,,,,,,,,,,,,我的,i,,,i,1,0.6059,0,42,42,51,1,,
,,,,,,,,,,,,,,1,001,2024-08-24_15h42.57.918,IAT(Formal),2021.2.3,Win32,58.82352941,,,,,,,,,,,,,,,,,,,,,,,,,,,,,,,,,,,,,,,,,,,,,,,,,,,,其他,e,,,e,1,0.6171,0,43,43,69,1,,
,,,,,,,,,,,,,,1,001,2024-08-24_15h42.57.918,IAT(Formal),2021.2.3,Win32,58.82352941,,,,,,,,,,,,,,,,,,,,,,,,,,,,,,,,,,,,,,,,,,,,,,,,,,,,细腻,e,,,e,1,0.8179,0,44,44,25,1,,
,,,,,,,,,,,,,,1,001,2024-08-24_15h42.57.918,IAT(Formal),2021.2.3,Win32,58.82352941,,,,,,,,,,,,,,,,,,,,,,,,,,,,,,,,,,,,,,,,,,,,,,,,,,,,我的,i,,,i,1,0.4173,0,45,45,61,1,,
,,,,,,,,,,,,,,1,001,2024-08-24_15h42.57.918,IAT(Formal),2021.2.3,Win32,58.82352941,,,,,,,,,,,,,,,,,,,,,,,,,,,,,,,,,,,,,,,,,,,,,,,,,,,,聪明,e,,,e,1,0.6967,0,46,46,12,1,,
,,,,,,,,,,,,,,1,001,2024-08-24_15h42.57.918,IAT(Formal),2021.2.3,Win32,58.82352941,,,,,,,,,,,,,,,,,,,,,,,,,,,,,,,,,,,,,,,,,,,,,,,,,,,,悲观,i,,,i,1,0.5086,0,47,47,34,1,,
,,,,,,,,,,,,,,1,001,2024-08-24_15h42.57.918,IAT(Formal),2021.2.3,Win32,58.82352941,,,,,,,,,,,,,,,,,,,,,,,,,,,,,,,,,,,,,,,,,,,,,,,,,,,,他的,e,,,e,1,0.518,0,48,48,67,1,,
,,,,,,,,,,,,,,1,001,2024-08-24_15h42.57.918,IAT(Formal),2021.2.3,Win32,58.82352941,,,,,,,,,,,,,,,,,,,,,,,,,,,,,,,,,,,,,,,,,,,,,,,,,,,,诚恳,e,,,e,1,1.1499,0,49,49,29,1,,
,,,,,,,,,,,,,,1,001,2024-08-24_15h42.57.918,IAT(Formal),2021.2.3,Win32,58.82352941,,,,,,,,,,,,,,,,,,,,,,,,,,,,,,,,,,,,,,,,,,,,,,,,,,,,优秀,e,,,e,1,0.7284,0,50,50,10,1,,
,,,,,,,,,,,,,,1,001,2024-08-24_15h42.57.918,IAT(Formal),2021.2.3,Win32,58.82352941,,,,,,,,,,,,,,,,,,,,,,,,,,,,,,,,,,,,,,,,,,,,,,,,,,,,冷静,e,,,e,1,0.8074,0,51,51,26,1,,
,,,,,,,,,,,,,,1,001,2024-08-24_15h42.57.918,IAT(Formal),2021.2.3,Win32,58.82352941,,,,,,,,,,,,,,,,,,,,,,,,,,,,,,,,,,,,,,,,,,,,,,,,,,,,他,e,,,e,1,0.495,0,52,52,5,1,,
,,,,,,,,,,,,,,1,001,2024-08-24_15h42.57.918,IAT(Formal),2021.2.3,Win32,58.82352941,,,,,,,,,,,,,,,,,,,,,,,,,,,,,,,,,,,,,,,,,,,,,,,,,,,,正直,e,,,e,1,0.6665,0,53,53,16,1,,
,,,,,,,,,,,,,,1,001,2024-08-24_15h42.57.918,IAT(Formal),2021.2.3,Win32,58.82352941,,,,,,,,,,,,,,,,,,,,,,,,,,,,,,,,,,,,,,,,,,,,,,,,,,,,暴躁,i,,,i,1,0.5441,0,54,54,44,1,,
,,,,,,,,,,,,,,1,001,2024-08-24_15h42.57.918,IAT(Formal),2021.2.3,Win32,58.82352941,,,,,,,,,,,,,,,,,,,,,,,,,,,,,,,,,,,,,,,,,,,,,,,,,,,,我们,i,,,i,1,0.4876,0,55,55,2,1,,
,,,,,,,,,,,,,,1,001,2024-08-24_15h42.57.918,IAT(Formal),2021.2.3,Win32,58.82352941,,,,,,,,,,,,,,,,,,,,,,,,,,,,,,,,,,,,,,,,,,,,,,,,,,,,他,e,,,e,1,0.8513,0,56,56,65,1,,
,,,,,,,,,,,,,,1,001,2024-08-24_15h42.57.918,IAT(Formal),2021.2.3,Win32,58.82352941,,,,,,,,,,,,,,,,,,,,,,,,,,,,,,,,,,,,,,,,,,,,,,,,,,,,自私,i,,,i,1,1.2999,0,57,57,43,1,,
,,,,,,,,,,,,,,1,001,2024-08-24_15h42.57.918,IAT(Formal),2021.2.3,Win32,58.82352941,,,,,,,,,,,,,,,,,,,,,,,,,,,,,,,,,,,,,,,,,,,,,,,,,,,,野蛮,i,,,i,1,0.5418,0,58,58,46,1,,
,,,,,,,,,,,,,,1,001,2024-08-24_15h42.57.918,IAT(Formal),2021.2.3,Win32,58.82352941,,,,,,,,,,,,,,,,,,,,,,,,,,,,,,,,,,,,,,,,,,,,,,,,,,,,他人,e,,,e,1,0.4692,0,59,59,78,1,,
,,,,,,,,,,,,,,1,001,2024-08-24_15h42.57.918,IAT(Formal),2021.2.3,Win32,58.82352941,,,,,,,,,,,,,,,,,,,,,,,,,,,,,,,,,,,,,,,,,,,,,,,,,,,,乐观,e,,,e,1,0.7847,0,60,60,14,1,,
,,,,,,,,,,,,,,1,001,2024-08-24_15h42.57.918,IAT(Formal),2021.2.3,Win32,58.82352941,,,,,,,,,,,,,,,,,,,,,,,,,,,,,,,,,,,,,,,,,,,,,,,,,,,,鲁莽,i,,,i,1,0.5701,0,61,61,38,1,,
,,,,,,,,,,,,,,1,001,2024-08-24_15h42.57.918,IAT(Formal),2021.2.3,Win32,58.82352941,,,,,,,,,,,,,,,,,,,,,,,,,,,,,,,,,,,,,,,,,,,,,,,,,,,,卑鄙,i,,,i,1,0.53,0,62,62,30,1,,
,,,,,,,,,,,,,,1,001,2024-08-24_15h42.57.918,IAT(Formal),2021.2.3,Win32,58.82352941,,,,,,,,,,,,,,,,,,,,,,,,,,,,,,,,,,,,,,,,,,,,,,,,,,,,俺,i,,,i,1,0.5181,0,63,63,64,1,,
,,,,,,,,,,,,,,1,001,2024-08-24_15h42.57.918,IAT(Formal),2021.2.3,Win32,58.82352941,,,,,,,,,,,,,,,,,,,,,,,,,,,,,,,,,,,,,,,,,,,,,,,,,,,,凶狠,i,,,i,1,0.6014,0,64,64,42,1,,
,,,,,,,,,,,,,,1,001,2024-08-24_15h42.57.918,IAT(Formal),2021.2.3,Win32,58.82352941,,,,,,,,,,,,,,,,,,,,,,,,,,,,,,,,,,,,,,,,,,,,,,,,,,,,自己,i,,,i,1,0.5277,0,65,65,63,1,,
,,,,,,,,,,,,,,1,001,2024-08-24_15h42.57.918,IAT(Formal),2021.2.3,Win32,58.82352941,,,,,,,,,,,,,,,,,,,,,,,,,,,,,,,,,,,,,,,,,,,,,,,,,,,,我,i,,,i,1,0.4021,0,66,66,0,1,,
,,,,,,,,,,,,,,1,001,2024-08-24_15h42.57.918,IAT(Formal),2021.2.3,Win32,58.82352941,,,,,,,,,,,,,,,,,,,,,,,,,,,,,,,,,,,,,,,,,,,,,,,,,,,,他人,e,,,e,1,0.5005,0,67,67,58,1,,
,,,,,,,,,,,,,,1,001,2024-08-24_15h42.57.918,IAT(Formal),2021.2.3,Win32,58.82352941,,,,,,,,,,,,,,,,,,,,,,,,,,,,,,,,,,,,,,,,,,,,,,,,,,,,他们,e,,,e,1,0.487,0,68,68,6,1,,
,,,,,,,,,,,,,,1,001,2024-08-24_15h42.57.918,IAT(Formal),2021.2.3,Win32,58.82352941,,,,,,,,,,,,,,,,,,,,,,,,,,,,,,,,,,,,,,,,,,,,,,,,,,,,自己,i,,,i,1,0.6663,0,69,69,73,1,,
,,,,,,,,,,,,,,1,001,2024-08-24_15h42.57.918,IAT(Formal),2021.2.3,Win32,58.82352941,,,,,,,,,,,,,,,,,,,,,,,,,,,,,,,,,,,,,,,,,,,,,,,,,,,,固执,i,,,i,1,0.5381,0,70,70,47,1,,
,,,,,,,,,,,,,,1,001,2024-08-24_15h42.57.918,IAT(Formal),2021.2.3,Win32,58.82352941,,,,,,,,,,,,,,,,,,,,,,,,,,,,,,,,,,,,,,,,,,,,,,,,,,,,冒失,i,,,i,1,0.5014,0,71,71,39,1,,
,,,,,,,,,,,,,,1,001,2024-08-24_15h42.57.918,IAT(Formal),2021.2.3,Win32,58.82352941,,,,,,,,,,,,,,,,,,,,,,,,,,,,,,,,,,,,,,,,,,,,,,,,,,,,俺,i,,,i,1,0.5844,0,72,72,74,1,,
,,,,,,,,,,,,,,1,001,2024-08-24_15h42.57.918,IAT(Formal),2021.2.3,Win32,58.82352941,,,,,,,,,,,,,,,,,,,,,,,,,,,,,,,,,,,,,,,,,,,,,,,,,,,,其他,e,,,e,1,0.5001,0,73,73,79,1,,
,,,,,,,,,,,,,,1,001,2024-08-24_15h42.57.918,IAT(Formal),2021.2.3,Win32,58.82352941,,,,,,,,,,,,,,,,,,,,,,,,,,,,,,,,,,,,,,,,,,,,,,,,,,,,他的,e,,,e,1,0.528,0,74,74,77,1,,
,,,,,,,,,,,,,,1,001,2024-08-24_15h42.57.918,IAT(Formal),2021.2.3,Win32,58.82352941,,,,,,,,,,,,,,,,,,,,,,,,,,,,,,,,,,,,,,,,,,,,,,,,,,,,机智,e,,,e,1,0.867,0,75,75,19,1,,
,,,,,,,,,,,,,,1,001,2024-08-24_15h42.57.918,IAT(Formal),2021.2.3,Win32,58.82352941,,,,,,,,,,,,,,,,,,,,,,,,,,,,,,,,,,,,,,,,,,,,,,,,,,,,他的,e,,,e,1,0.5417,0,76,76,57,1,,
,,,,,,,,,,,,,,1,001,2024-08-24_15h42.57.918,IAT(Formal),2021.2.3,Win32,58.82352941,,,,,,,,,,,,,,,,,,,,,,,,,,,,,,,,,,,,,,,,,,,,,,,,,,,,消极,i,,,i,1,0.6276,0,77,77,35,1,,
,,,,,,,,,,,,,,1,001,2024-08-24_15h42.57.918,IAT(Formal),2021.2.3,Win32,58.82352941,,,,,,,,,,,,,,,,,,,,,,,,,,,,,,,,,,,,,,,,,,,,,,,,,,,,下贱,i,,,i,1,0.4717,0,78,78,49,1,,
,,,,,,,,,,,,,,1,001,2024-08-24_15h42.57.918,IAT(Formal),2021.2.3,Win32,58.82352941,,,,,,,,,,,,,,,,,,,,,,,,,,,,,,,,,,,,,,,,,,,,,,,,,,,,我的,i,,,i,1,0.371,0,79,79,71,1,,
,,,,,,,,,,,,,,1,001,2024-08-24_15h42.57.918,IAT(Formal),2021.2.3,Win32,58.82352941,,,,,,,,,,,,,,,,,,,,,,,,,,,,,,,,,,,,,,,,,,,,,,,,,,,,他们,e,,,e,1,0.5676,1,0,80,56,1,,
,,,,,,,,,,,,,,1,001,2024-08-24_15h42.57.918,IAT(Formal),2021.2.3,Win32,58.82352941,,,,,,,,,,,,,,,,,,,,,,,,,,,,,,,,,,,,,,,,,,,,,,,,,,,,俺,i,,,i,1,0.4785,1,1,81,74,1,,
,,,,,,,,,,,,,,1,001,2024-08-24_15h42.57.918,IAT(Formal),2021.2.3,Win32,58.82352941,,,,,,,,,,,,,,,,,,,,,,,,,,,,,,,,,,,,,,,,,,,,,,,,,,,,他,e,,,e,1,0.4607,1,2,82,5,1,,
,,,,,,,,,,,,,,1,001,2024-08-24_15h42.57.918,IAT(Formal),2021.2.3,Win32,58.82352941,,,,,,,,,,,,,,,,,,,,,,,,,,,,,,,,,,,,,,,,,,,,,,,,,,,,我们,i,,,i,1,0.4461,1,3,83,2,1,,
,,,,,,,,,,,,,,1,001,2024-08-24_15h42.57.918,IAT(Formal),2021.2.3,Win32,58.82352941,,,,,,,,,,,,,,,,,,,,,,,,,,,,,,,,,,,,,,,,,,,,,,,,,,,,他,e,,,e,1,0.4668,1,4,84,55,1,,
,,,,,,,,,,,,,,1,001,2024-08-24_15h42.57.918,IAT(Formal),2021.2.3,Win32,58.82352941,,,,,,,,,,,,,,,,,,,,,,,,,,,,,,,,,,,,,,,,,,,,,,,,,,,,自己,i,,,i,1,0.3868,1,5,85,63,1,,
,,,,,,,,,,,,,,1,001,2024-08-24_15h42.57.918,IAT(Formal),2021.2.3,Win32,58.82352941,,,,,,,,,,,,,,,,,,,,,,,,,,,,,,,,,,,,,,,,,,,,,,,,,,,,轻率,i,,,i,1,0.7575,1,6,86,48,1,,
,,,,,,,,,,,,,,1,001,2024-08-24_15h42.57.918,IAT(Formal),2021.2.3,Win32,58.82352941,,,,,,,,,,,,,,,,,,,,,,,,,,,,,,,,,,,,,,,,,,,,,,,,,,,,我的,i,,,i,1,0.5167,1,7,87,51,1,,
,,,,,,,,,,,,,,1,001,2024-08-24_15h42.57.918,IAT(Formal),2021.2.3,Win32,58.82352941,,,,,,,,,,,,,,,,,,,,,,,,,,,,,,,,,,,,,,,,,,,,,,,,,,,,他们,e,,,e,1,0.4178,1,8,88,66,1,,
,,,,,,,,,,,,,,1,001,2024-08-24_15h42.57.918,IAT(Formal),2021.2.3,Win32,58.82352941,,,,,,,,,,,,,,,,,,,,,,,,,,,,,,,,,,,,,,,,,,,,,,,,,,,,我,i,,,i,1,0.4627,1,9,89,50,1,,
,,,,,,,,,,,,,,1,001,2024-08-24_15h42.57.918,IAT(Formal),2021.2.3,Win32,58.82352941,,,,,,,,,,,,,,,,,,,,,,,,,,,,,,,,,,,,,,,,,,,,,,,,,,,,无私,e,,,e,1,0.854,1,10,90,22,1,,
,,,,,,,,,,,,,,1,001,2024-08-24_15h42.57.918,IAT(Formal),2021.2.3,Win32,58.82352941,,,,,,,,,,,,,,,,,,,,,,,,,,,,,,,,,,,,,,,,,,,,,,,,,,,,暴躁,i,,,i,1,0.6199,1,11,91,44,1,,
,,,,,,,,,,,,,,1,001,2024-08-24_15h42.57.918,IAT(Formal),2021.2.3,Win32,58.82352941,,,,,,,,,,,,,,,,,,,,,,,,,,,,,,,,,,,,,,,,,,,,,,,,,,,,猖狂,i,,,i,1,0.4299,1,12,92,45,1,,
,,,,,,,,,,,,,,1,001,2024-08-24_15h42.57.918,IAT(Formal),2021.2.3,Win32,58.82352941,,,,,,,,,,,,,,,,,,,,,,,,,,,,,,,,,,,,,,,,,,,,,,,,,,,,卑鄙,i,,,i,1,0.434,1,13,93,30,1,,
,,,,,,,,,,,,,,1,001,2024-08-24_15h42.57.918,IAT(Formal),2021.2.3,Win32,58.82352941,,,,,,,,,,,,,,,,,,,,,,,,,,,,,,,,,,,,,,,,,,,,,,,,,,,,他人,e,,,e,1,0.6169,1,14,94,68,1,,
,,,,,,,,,,,,,,1,001,2024-08-24_15h42.57.918,IAT(Formal),2021.2.3,Win32,58.82352941,,,,,,,,,,,,,,,,,,,,,,,,,,,,,,,,,,,,,,,,,,,,,,,,,,,,虚伪,i,,,i,1,0.583,1,15,95,31,1,,
,,,,,,,,,,,,,,1,001,2024-08-24_15h42.57.918,IAT(Formal),2021.2.3,Win32,58.82352941,,,,,,,,,,,,,,,,,,,,,,,,,,,,,,,,,,,,,,,,,,,,,,,,,,,,他人,e,,,e,1,0.4614,1,16,96,58,1,,
,,,,,,,,,,,,,,1,001,2024-08-24_15h42.57.918,IAT(Formal),2021.2.3,Win32,58.82352941,,,,,,,,,,,,,,,,,,,,,,,,,,,,,,,,,,,,,,,,,,,,,,,,,,,,他,e,,,e,1,0.4525,1,17,97,65,1,,
,,,,,,,,,,,,,,1,001,2024-08-24_15h42.57.918,IAT(Formal),2021.2.3,Win32,58.82352941,,,,,,,,,,,,,,,,,,,,,,,,,,,,,,,,,,,,,,,,,,,,,,,,,,,,冷静,e,,,i,0,0.8435,1,18,98,26,1,,
,,,,,,,,,,,,,,1,001,2024-08-24_15h42.57.918,IAT(Formal),2021.2.3,Win32,58.82352941,,,,,,,,,,,,,,,,,,,,,,,,,,,,,,,,,,,,,,,,,,,,,,,,,,,,热情,e,,,e,1,1.1056,1,19,99,27,1,,
,,,,,,,,,,,,,,1,001,2024-08-24_15h42.57.918,IAT(Formal),2021.2.3,Win32,58.82352941,,,,,,,,,,,,,,,,,,,,,,,,,,,,,,,,,,,,,,,,,,,,,,,,,,,,傲慢,i,,,,0,,1,20,100,37,1,,
,,,,,,,,,,,,,,1,001,2024-08-24_15h42.57.918,IAT(Formal),2021.2.3,Win32,58.82352941,,,,,,,,,,,,,,,,,,,,,,,,,,,,,,,,,,,,,,,,,,,,,,,,,,,,我的,i,,,i,1,0.5035,1,21,101,1,1,,
,,,,,,,,,,,,,,1,001,2024-08-24_15h42.57.918,IAT(Formal),2021.2.3,Win32,58.82352941,,,,,,,,,,,,,,,,,,,,,,,,,,,,,,,,,,,,,,,,,,,,,,,,,,,,我们,i,,,i,1,0.4969,1,22,102,52,1,,
,,,,,,,,,,,,,,1,001,2024-08-24_15h42.57.918,IAT(Formal),2021.2.3,Win32,58.82352941,,,,,,,,,,,,,,,,,,,,,,,,,,,,,,,,,,,,,,,,,,,,,,,,,,,,自己,i,,,i,1,0.467,1,23,103,73,1,,
,,,,,,,,,,,,,,1,001,2024-08-24_15h42.57.918,IAT(Formal),2021.2.3,Win32,58.82352941,,,,,,,,,,,,,,,,,,,,,,,,,,,,,,,,,,,,,,,,,,,,,,,,,,,,俺,i,,,i,1,0.5019,1,24,104,54,1,,
,,,,,,,,,,,,,,1,001,2024-08-24_15h42.57.918,IAT(Formal),2021.2.3,Win32,58.82352941,,,,,,,,,,,,,,,,,,,,,,,,,,,,,,,,,,,,,,,,,,,,,,,,,,,,悲观,i,,,i,1,0.7002,1,25,105,34,1,,
,,,,,,,,,,,,,,1,001,2024-08-24_15h42.57.918,IAT(Formal),2021.2.3,Win32,58.82352941,,,,,,,,,,,,,,,,,,,,,,,,,,,,,,,,,,,,,,,,,,,,,,,,,,,,冒失,i,,,i,1,0.935,1,26,106,39,1,,
,,,,,,,,,,,,,,1,001,2024-08-24_15h42.57.918,IAT(Formal),2021.2.3,Win32,58.82352941,,,,,,,,,,,,,,,,,,,,,,,,,,,,,,,,,,,,,,,,,,,,,,,,,,,,诚实,e,,,e,1,0.5596,1,27,107,15,1,,
,,,,,,,,,,,,,,1,001,2024-08-24_15h42.57.918,IAT(Formal),2021.2.3,Win32,58.82352941,,,,,,,,,,,,,,,,,,,,,,,,,,,,,,,,,,,,,,,,,,,,,,,,,,,,正直,e,,,e,1,0.9232,1,28,108,16,1,,
,,,,,,,,,,,,,,1,001,2024-08-24_15h42.57.918,IAT(Formal),2021.2.3,Win32,58.82352941,,,,,,,,,,,,,,,,,,,,,,,,,,,,,,,,,,,,,,,,,,,,,,,,,,,,他人,e,,,e,1,0.5844,1,29,109,8,1,,
,,,,,,,,,,,,,,1,001,2024-08-24_15h42.57.918,IAT(Formal),2021.2.3,Win32,58.82352941,,,,,,,,,,,,,,,,,,,,,,,,,,,,,,,,,,,,,,,,,,,,,,,,,,,,诚恳,e,,,e,1,0.8186,1,30,110,29,1,,
,,,,,,,,,,,,,,1,001,2024-08-24_15h42.57.918,IAT(Formal),2021.2.3,Win32,58.82352941,,,,,,,,,,,,,,,,,,,,,,,,,,,,,,,,,,,,,,,,,,,,,,,,,,,,杰出,e,,,e,1,0.6458,1,31,111,13,1,,
,,,,,,,,,,,,,,1,001,2024-08-24_15h42.57.918,IAT(Formal),2021.2.3,Win32,58.82352941,,,,,,,,,,,,,,,,,,,,,,,,,,,,,,,,,,,,,,,,,,,,,,,,,,,,我,i,,,i,1,0.5666,1,32,112,0,1,,
,,,,,,,,,,,,,,1,001,2024-08-24_15h42.57.918,IAT(Formal),2021.2.3,Win32,58.82352941,,,,,,,,,,,,,,,,,,,,,,,,,,,,,,,,,,,,,,,,,,,,,,,,,,,,我,i,,,i,1,0.4355,1,33,113,60,1,,
,,,,,,,,,,,,,,1,001,2024-08-24_15h42.57.918,IAT(Formal),2021.2.3,Win32,58.82352941,,,,,,,,,,,,,,,,,,,,,,,,,,,,,,,,,,,,,,,,,,,,,,,,,,,,消极,i,,,i,1,0.5783,1,34,114,35,1,,
,,,,,,,,,,,,,,1,001,2024-08-24_15h42.57.918,IAT(Formal),2021.2.3,Win32,58.82352941,,,,,,,,,,,,,,,,,,,,,,,,,,,,,,,,,,,,,,,,,,,,,,,,,,,,执拗,i,,,i,1,0.7109,1,35,115,40,1,,
,,,,,,,,,,,,,,1,001,2024-08-24_15h42.57.918,IAT(Formal),2021.2.3,Win32,58.82352941,,,,,,,,,,,,,,,,,,,,,,,,,,,,,,,,,,,,,,,,,,,,,,,,,,,,我们,i,,,i,1,0.4016,1,36,116,72,1,,
,,,,,,,,,,,,,,1,001,2024-08-24_15h42.57.918,IAT(Formal),2021.2.3,Win32,58.82352941,,,,,,,,,,,,,,,,,,,,,,,,,,,,,,,,,,,,,,,,,,,,,,,,,,,,聪明,e,,,e,1,0.6489,1,37,117,12,1,,
,,,,,,,,,,,,,,1,001,2024-08-24_15h42.57.918,IAT(Formal),2021.2.3,Win32,58.82352941,,,,,,,,,,,,,,,,,,,,,,,,,,,,,,,,,,,,,,,,,,,,,,,,,,,,他的,e,,,e,1,0.5096,1,38,118,77,1,,
,,,,,,,,,,,,,,1,001,2024-08-24_15h42.57.918,IAT(Formal),2021.2.3,Win32,58.82352941,,,,,,,,,,,,,,,,,,,,,,,,,,,,,,,,,,,,,,,,,,,,,,,,,,,,凶狠,i,,,i,1,0.7337,1,39,119,42,1,,
,,,,,,,,,,,,,,1,001,2024-08-24_15h42.57.918,IAT(Formal),2021.2.3,Win32,58.82352941,,,,,,,,,,,,,,,,,,,,,,,,,,,,,,,,,,,,,,,,,,,,,,,,,,,,我,i,,,i,1,0.3718,1,40,120,70,1,,
,,,,,,,,,,,,,,1,001,2024-08-24_15h42.57.918,IAT(Formal),2021.2.3,Win32,58.82352941,,,,,,,,,,,,,,,,,,,,,,,,,,,,,,,,,,,,,,,,,,,,,,,,,,,,自己,i,,,i,1,0.4845,1,41,121,53,1,,
,,,,,,,,,,,,,,1,001,2024-08-24_15h42.57.918,IAT(Formal),2021.2.3,Win32,58.82352941,,,,,,,,,,,,,,,,,,,,,,,,,,,,,,,,,,,,,,,,,,,,,,,,,,,,我们,i,,,i,1,0.5013,1,42,122,62,1,,
,,,,,,,,,,,,,,1,001,2024-08-24_15h42.57.918,IAT(Formal),2021.2.3,Win32,58.82352941,,,,,,,,,,,,,,,,,,,,,,,,,,,,,,,,,,,,,,,,,,,,,,,,,,,,其他,e,,,e,1,0.75,1,43,123,69,1,,
,,,,,,,,,,,,,,1,001,2024-08-24_15h42.57.918,IAT(Formal),2021.2.3,Win32,58.82352941,,,,,,,,,,,,,,,,,,,,,,,,,,,,,,,,,,,,,,,,,,,,,,,,,,,,固执,i,,,i,1,0.5544,1,44,124,47,1,,
,,,,,,,,,,,,,,1,001,2024-08-24_15h42.57.918,IAT(Formal),2021.2.3,Win32,58.82352941,,,,,,,,,,,,,,,,,,,,,,,,,,,,,,,,,,,,,,,,,,,,,,,,,,,,自卑,i,,,i,1,0.5942,1,45,125,36,1,,
,,,,,,,,,,,,,,1,001,2024-08-24_15h42.57.918,IAT(Formal),2021.2.3,Win32,58.82352941,,,,,,,,,,,,,,,,,,,,,,,,,,,,,,,,,,,,,,,,,,,,,,,,,,,,勇敢,e,,,e,1,0.7632,1,46,126,17,1,,
,,,,,,,,,,,,,,1,001,2024-08-24_15h42.57.918,IAT(Formal),2021.2.3,Win32,58.82352941,,,,,,,,,,,,,,,,,,,,,,,,,,,,,,,,,,,,,,,,,,,,,,,,,,,,刻薄,i,,,i,1,0.6436,1,47,127,33,1,,
,,,,,,,,,,,,,,1,001,2024-08-24_15h42.57.918,IAT(Formal),2021.2.3,Win32,58.82352941,,,,,,,,,,,,,,,,,,,,,,,,,,,,,,,,,,,,,,,,,,,,,,,,,,,,他,e,,,e,1,0.6293,1,48,128,75,1,,
,,,,,,,,,,,,,,1,001,2024-08-24_15h42.57.918,IAT(Formal),2021.2.3,Win32,58.82352941,,,,,,,,,,,,,,,,,,,,,,,,,,,,,,,,,,,,,,,,,,,,,,,,,,,,勤奋,e,,,e,1,1.0507,1,49,129,18,1,,
,,,,,,,,,,,,,,1,001,2024-08-24_15h42.57.918,IAT(Formal),2021.2.3,Win32,58.82352941,,,,,,,,,,,,,,,,,,,,,,,,,,,,,,,,,,,,,,,,,,,,,,,,,,,,优秀,e,,,e,1,0.5673,1,50,130,10,1,,
,,,,,,,,,,,,,,1,001,2024-08-24_15h42.57.918,IAT(Formal),2021.2.3,Win32,58.82352941,,,,,,,,,,,,,,,,,,,,,,,,,,,,,,,,,,,,,,,,,,,,,,,,,,,,鲁莽,i,,,i,1,0.5339,1,51,131,38,1,,
,,,,,,,,,,,,,,1,001,2024-08-24_15h42.57.918,IAT(Formal),2021.2.3,Win32,58.82352941,,,,,,,,,,,,,,,,,,,,,,,,,,,,,,,,,,,,,,,,,,,,,,,,,,,,俺,i,,,i,1,0.5091,1,52,132,64,1,,
,,,,,,,,,,,,,,1,001,2024-08-24_15h42.57.918,IAT(Formal),2021.2.3,Win32,58.82352941,,,,,,,,,,,,,,,,,,,,,,,,,,,,,,,,,,,,,,,,,,,,,,,,,,,,其他,e,,,e,1,0.4169,1,53,133,59,1,,
,,,,,,,,,,,,,,1,001,2024-08-24_15h42.57.918,IAT(Formal),2021.2.3,Win32,58.82352941,,,,,,,,,,,,,,,,,,,,,,,,,,,,,,,,,,,,,,,,,,,,,,,,,,,,活泼,e,,,e,1,0.6609,1,54,134,28,1,,
,,,,,,,,,,,,,,1,001,2024-08-24_15h42.57.918,IAT(Formal),2021.2.3,Win32,58.82352941,,,,,,,,,,,,,,,,,,,,,,,,,,,,,,,,,,,,,,,,,,,,,,,,,,,,下贱,i,,,i,1,0.613,1,55,135,49,1,,
,,,,,,,,,,,,,,1,001,2024-08-24_15h42.57.918,IAT(Formal),2021.2.3,Win32,58.82352941,,,,,,,,,,,,,,,,,,,,,,,,,,,,,,,,,,,,,,,,,,,,,,,,,,,,自己,i,,,i,1,0.4571,1,56,136,3,1,,
,,,,,,,,,,,,,,1,001,2024-08-24_15h42.57.918,IAT(Formal),2021.2.3,Win32,58.82352941,,,,,,,,,,,,,,,,,,,,,,,,,,,,,,,,,,,,,,,,,,,,,,,,,,,,认真,e,,,i,0,0.5288,1,57,137,20,1,,
,,,,,,,,,,,,,,1,001,2024-08-24_15h42.57.918,IAT(Formal),2021.2.3,Win32,58.82352941,,,,,,,,,,,,,,,,,,,,,,,,,,,,,,,,,,,,,,,,,,,,,,,,,,,,其他,e,,,e,1,0.7502,1,58,138,9,1,,
,,,,,,,,,,,,,,1,001,2024-08-24_15h42.57.918,IAT(Formal),2021.2.3,Win32,58.82352941,,,,,,,,,,,,,,,,,,,,,,,,,,,,,,,,,,,,,,,,,,,,,,,,,,,,他的,e,,,e,1,0.6849,1,59,139,57,1,,
,,,,,,,,,,,,,,1,001,2024-08-24_15h42.57.918,IAT(Formal),2021.2.3,Win32,58.82352941,,,,,,,,,,,,,,,,,,,,,,,,,,,,,,,,,,,,,,,,,,,,,,,,,,,,崇高,e,,,e,1,0.5328,1,60,140,11,1,,
,,,,,,,,,,,,,,1,001,2024-08-24_15h42.57.918,IAT(Formal),2021.2.3,Win32,58.82352941,,,,,,,,,,,,,,,,,,,,,,,,,,,,,,,,,,,,,,,,,,,,,,,,,,,,野蛮,i,,,i,1,0.666,1,61,141,46,1,,
,,,,,,,,,,,,,,1,001,2024-08-24_15h42.57.918,IAT(Formal),2021.2.3,Win32,58.82352941,,,,,,,,,,,,,,,,,,,,,,,,,,,,,,,,,,,,,,,,,,,,,,,,,,,,愚蠢,i,,,i,1,0.818,1,62,142,32,1,,
,,,,,,,,,,,,,,1,001,2024-08-24_15h42.57.918,IAT(Formal),2021.2.3,Win32,58.82352941,,,,,,,,,,,,,,,,,,,,,,,,,,,,,,,,,,,,,,,,,,,,,,,,,,,,稳重,e,,,e,1,0.9661,1,63,143,21,1,,
,,,,,,,,,,,,,,1,001,2024-08-24_15h42.57.918,IAT(Formal),2021.2.3,Win32,58.82352941,,,,,,,,,,,,,,,,,,,,,,,,,,,,,,,,,,,,,,,,,,,,,,,,,,,,朴实,e,,,e,1,0.5237,1,64,144,24,1,,
,,,,,,,,,,,,,,1,001,2024-08-24_15h42.57.918,IAT(Formal),2021.2.3,Win32,58.82352941,,,,,,,,,,,,,,,,,,,,,,,,,,,,,,,,,,,,,,,,,,,,,,,,,,,,我的,i,,,i,1,0.5682,1,65,145,71,1,,
,,,,,,,,,,,,,,1,001,2024-08-24_15h42.57.918,IAT(Formal),2021.2.3,Win32,58.82352941,,,,,,,,,,,,,,,,,,,,,,,,,,,,,,,,,,,,,,,,,,,,,,,,,,,,其他,e,,,e,1,0.5894,1,66,146,79,1,,
,,,,,,,,,,,,,,1,001,2024-08-24_15h42.57.918,IAT(Formal),2021.2.3,Win32,58.82352941,,,,,,,,,,,,,,,,,,,,,,,,,,,,,,,,,,,,,,,,,,,,,,,,,,,,机智,e,,,e,1,0.917,1,67,147,19,1,,
,,,,,,,,,,,,,,1,001,2024-08-24_15h42.57.918,IAT(Formal),2021.2.3,Win32,58.82352941,,,,,,,,,,,,,,,,,,,,,,,,,,,,,,,,,,,,,,,,,,,,,,,,,,,,乐观,e,,,e,1,0.5668,1,68,148,14,1,,
,,,,,,,,,,,,,,1,001,2024-08-24_15h42.57.918,IAT(Formal),2021.2.3,Win32,58.82352941,,,,,,,,,,,,,,,,,,,,,,,,,,,,,,,,,,,,,,,,,,,,,,,,,,,,他们,e,,,e,1,0.5196,1,69,149,6,1,,
,,,,,,,,,,,,,,1,001,2024-08-24_15h42.57.918,IAT(Formal),2021.2.3,Win32,58.82352941,,,,,,,,,,,,,,,,,,,,,,,,,,,,,,,,,,,,,,,,,,,,,,,,,,,,他的,e,,,e,1,0.4673,1,70,150,7,1,,
,,,,,,,,,,,,,,1,001,2024-08-24_15h42.57.918,IAT(Formal),2021.2.3,Win32,58.82352941,,,,,,,,,,,,,,,,,,,,,,,,,,,,,,,,,,,,,,,,,,,,,,,,,,,,细腻,e,,,e,1,0.7779,1,71,151,25,1,,
,,,,,,,,,,,,,,1,001,2024-08-24_15h42.57.918,IAT(Formal),2021.2.3,Win32,58.82352941,,,,,,,,,,,,,,,,,,,,,,,,,,,,,,,,,,,,,,,,,,,,,,,,,,,,他的,e,,,e,1,0.4334,1,72,152,67,1,,
,,,,,,,,,,,,,,1,001,2024-08-24_15h42.57.918,IAT(Formal),2021.2.3,Win32,58.82352941,,,,,,,,,,,,,,,,,,,,,,,,,,,,,,,,,,,,,,,,,,,,,,,,,,,,他们,e,,,e,1,0.4077,1,73,153,76,1,,
,,,,,,,,,,,,,,1,001,2024-08-24_15h42.57.918,IAT(Formal),2021.2.3,Win32,58.82352941,,,,,,,,,,,,,,,,,,,,,,,,,,,,,,,,,,,,,,,,,,,,,,,,,,,,俺,i,,,i,1,0.5934,1,74,154,4,1,,
,,,,,,,,,,,,,,1,001,2024-08-24_15h42.57.918,IAT(Formal),2021.2.3,Win32,58.82352941,,,,,,,,,,,,,,,,,,,,,,,,,,,,,,,,,,,,,,,,,,,,,,,,,,,,他人,e,,,e,1,0.5344,1,75,155,78,1,,
,,,,,,,,,,,,,,1,001,2024-08-24_15h42.57.918,IAT(Formal),2021.2.3,Win32,58.82352941,,,,,,,,,,,,,,,,,,,,,,,,,,,,,,,,,,,,,,,,,,,,,,,,,,,,我的,i,,,i,1,0.5212,1,76,156,61,1,,
,,,,,,,,,,,,,,1,001,2024-08-24_15h42.57.918,IAT(Formal),2021.2.3,Win32,58.82352941,,,,,,,,,,,,,,,,,,,,,,,,,,,,,,,,,,,,,,,,,,,,,,,,,,,,自私,i,,,i,1,0.801,1,77,157,43,1,,
,,,,,,,,,,,,,,1,001,2024-08-24_15h42.57.918,IAT(Formal),2021.2.3,Win32,58.82352941,,,,,,,,,,,,,,,,,,,,,,,,,,,,,,,,,,,,,,,,,,,,,,,,,,,,公正,e,,,e,1,0.6399,1,78,158,23,1,,
,,,,,,,,,,,,,,1,001,2024-08-24_15h42.57.918,IAT(Formal),2021.2.3,Win32,58.82352941,,,,,,,,,,,,,,,,,,,,,,,,,,,,,,,,,,,,,,,,,,,,,,,,,,,,散漫,i,,,i,1,0.6944,1,79,159,41,1,,
,,,,,,,,,,,,,,1,001,2024-08-24_15h42.57.918,IAT(Formal),2021.2.3,Win32,58.82352941,,,,,,,,,,,,,,,,,,,,,,,,,,,,,,,,,,,,,,,,,,,,,,,,,,,,,,,,,,,,,,,,space,1.0617