"X.Instruction1.keys","Instruction1.rt","Instruction2.keys","Instruction2.rt","key_resp_iso.keys","key_resp_iso.corr","key_resp_iso.rt","Practice_01.thisRepN","Practice_01.thisTrialN","Practice_01.thisN","Practice_01.thisIndex","Practice_01.ran","Words","ans","participant","session","date","expName","psychopyVersion","OS","frameRate","key_resp_3.keys","key_resp_3.rt","key_resp_ipn.keys","key_resp_ipn.corr","key_resp_ipn.rt","Practice_02.thisRepN","Practice_02.thisTrialN","Practice_02.thisN","Practice_02.thisIndex","Practice_02.ran","Words_ipn","ans_ipn","key_resp_4.keys","key_resp_4.rt","key_resp_t1.keys","key_resp_t1.corr","key_resp_t1.rt","Practice_T1.thisRepN","Practice_T1.thisTrialN","Practice_T1.thisN","Practice_T1.thisIndex","Practice_T1.ran","Words_t1","ans_t1","key_resp_5.keys","key_resp_5.rt","Formal_T1.thisRepN","Formal_T1.thisTrialN","Formal_T1.thisN","Formal_T1.thisIndex","Formal_T1.ran","key_resp_6.keys","key_resp_6.rt","key_resp_iso_reverse.keys","key_resp_iso_reverse.corr","key_resp_iso_reverse.rt","Practice_iso_Reverse.thisRepN","Practice_iso_Reverse.thisTrialN","Practice_iso_Reverse.thisN","Practice_iso_Reverse.thisIndex","Practice_iso_Reverse.ran","key_resp_7.keys","key_resp_7.rt","key_resp_t2_Practice.keys","key_resp_t2_Practice.corr","key_resp_t2_Practice.rt","Practice_t2_Reverse.thisRepN","Practice_t2_Reverse.thisTrialN","Practice_t2_Reverse.thisN","Practice_t2_Reverse.thisIndex","Practice_t2_Reverse.ran","Words_t2","ans_t2","key_resp_8.keys","key_resp_8.rt","key_resp_t2.keys","key_resp_t2.corr","key_resp_t2.rt","Formal_t2_reverse.thisRepN","Formal_t2_reverse.thisTrialN","Formal_t2_reverse.thisN","Formal_t2_reverse.thisIndex","Formal_t2_reverse.ran","key_instruct.keys","key_instruct.rt","Subject"
"space",6.6035,"space",7.2709,"i",1,0.8158,0,0,0,9,1,"其他","i",1,1,"2024-08-24_15h42.57.918","IAT(Formal)","2021.2.3","Win32",58.82352941,"",NA,"",NA,NA,NA,NA,NA,NA,NA,"","","",NA,"",NA,NA,NA,NA,NA,NA,NA,"","","",NA,NA,NA,NA,NA,NA,"",NA,"",NA,NA,NA,NA,NA,NA,NA,"",NA,"",NA,NA,NA,NA,NA,NA,NA,"","","",NA,"",NA,NA,NA,NA,NA,NA,NA,"",NA,"24"
"",NA,"",NA,"i",1,0.7006,0,1,1,7,1,"他的","i",1,1,"2024-08-24_15h42.57.918","IAT(Formal)","2021.2.3","Win32",58.82352941,"",NA,"",NA,NA,NA,NA,NA,NA,NA,"","","",NA,"",NA,NA,NA,NA,NA,NA,NA,"","","",NA,NA,NA,NA,NA,NA,"",NA,"",NA,NA,NA,NA,NA,NA,NA,"",NA,"",NA,NA,NA,NA,NA,NA,NA,"","","",NA,"",NA,NA,NA,NA,NA,NA,NA,"",NA,"24"
"",NA,"",NA,"i",1,0.483,0,2,2,6,1,"他们","i",1,1,"2024-08-24_15h42.57.918","IAT(Formal)","2021.2.3","Win32",58.82352941,"",NA,"",NA,NA,NA,NA,NA,NA,NA,"","","",NA,"",NA,NA,NA,NA,NA,NA,NA,"","","",NA,NA,NA,NA,NA,NA,"",NA,"",NA,NA,NA,NA,NA,NA,NA,"",NA,"",NA,NA,NA,NA,NA,NA,NA,"","","",NA,"",NA,NA,NA,NA,NA,NA,NA,"",NA,"24"
"",NA,"",NA,"i",1,0.4959,0,3,3,5,1,"他","i",1,1,"2024-08-24_15h42.57.918","IAT(Formal)","2021.2.3","Win32",58.82352941,"",NA,"",NA,NA,NA,NA,NA,NA,NA,"","","",NA,"",NA,NA,NA,NA,NA,NA,NA,"","","",NA,NA,NA,NA,NA,NA,"",NA,"",NA,NA,NA,NA,NA,NA,NA,"",NA,"",NA,NA,NA,NA,NA,NA,NA,"","","",NA,"",NA,NA,NA,NA,NA,NA,NA,"",NA,"24"
"",NA,"",NA,"i",1,0.3668,0,4,4,8,1,"他人","i",1,1,"2024-08-24_15h42.57.918","IAT(Formal)","2021.2.3","Win32",58.82352941,"",NA,"",NA,NA,NA,NA,NA,NA,NA,"","","",NA,"",NA,NA,NA,NA,NA,NA,NA,"","","",NA,NA,NA,NA,NA,NA,"",NA,"",NA,NA,NA,NA,NA,NA,NA,"",NA,"",NA,NA,NA,NA,NA,NA,NA,"","","",NA,"",NA,NA,NA,NA,NA,NA,NA,"",NA,"24"
"",NA,"",NA,"e",1,0.4972,0,5,5,4,1,"俺","e",1,1,"2024-08-24_15h42.57.918","IAT(Formal)","2021.2.3","Win32",58.82352941,"",NA,"",NA,NA,NA,NA,NA,NA,NA,"","","",NA,"",NA,NA,NA,NA,NA,NA,NA,"","","",NA,NA,NA,NA,NA,NA,"",NA,"",NA,NA,NA,NA,NA,NA,NA,"",NA,"",NA,NA,NA,NA,NA,NA,NA,"","","",NA,"",NA,NA,NA,NA,NA,NA,NA,"",NA,"24"
"",NA,"",NA,"e",1,0.4297,0,6,6,0,1,"我","e",1,1,"2024-08-24_15h42.57.918","IAT(Formal)","2021.2.3","Win32",58.82352941,"",NA,"",NA,NA,NA,NA,NA,NA,NA,"","","",NA,"",NA,NA,NA,NA,NA,NA,NA,"","","",NA,NA,NA,NA,NA,NA,"",NA,"",NA,NA,NA,NA,NA,NA,NA,"",NA,"",NA,NA,NA,NA,NA,NA,NA,"","","",NA,"",NA,NA,NA,NA,NA,NA,NA,"",NA,"24"
"",NA,"",NA,"e",1,0.4353,0,7,7,1,1,"我的","e",1,1,"2024-08-24_15h42.57.918","IAT(Formal)","2021.2.3","Win32",58.82352941,"",NA,"",NA,NA,NA,NA,NA,NA,NA,"","","",NA,"",NA,NA,NA,NA,NA,NA,NA,"","","",NA,NA,NA,NA,NA,NA,"",NA,"",NA,NA,NA,NA,NA,NA,NA,"",NA,"",NA,NA,NA,NA,NA,NA,NA,"","","",NA,"",NA,NA,NA,NA,NA,NA,NA,"",NA,"24"
"",NA,"",NA,"e",1,0.552,0,8,8,3,1,"自己","e",1,1,"2024-08-24_15h42.57.918","IAT(Formal)","2021.2.3","Win32",58.82352941,"",NA,"",NA,NA,NA,NA,NA,NA,NA,"","","",NA,"",NA,NA,NA,NA,NA,NA,NA,"","","",NA,NA,NA,NA,NA,NA,"",NA,"",NA,NA,NA,NA,NA,NA,NA,"",NA,"",NA,NA,NA,NA,NA,NA,NA,"","","",NA,"",NA,NA,NA,NA,NA,NA,NA,"",NA,"24"
"",NA,"",NA,"e",1,0.4198,0,9,9,2,1,"我们","e",1,1,"2024-08-24_15h42.57.918","IAT(Formal)","2021.2.3","Win32",58.82352941,"",NA,"",NA,NA,NA,NA,NA,NA,NA,"","","",NA,"",NA,NA,NA,NA,NA,NA,NA,"","","",NA,NA,NA,NA,NA,NA,"",NA,"",NA,NA,NA,NA,NA,NA,NA,"",NA,"",NA,NA,NA,NA,NA,NA,NA,"","","",NA,"",NA,NA,NA,NA,NA,NA,NA,"",NA,"24"
"",NA,"",NA,"",NA,NA,NA,NA,NA,NA,NA,"","",1,1,"2024-08-24_15h42.57.918","IAT(Formal)","2021.2.3","Win32",58.82352941,"space",7.0094,"i",1,0.45,0,0,0,32,1,"凶狠","i","",NA,"",NA,NA,NA,NA,NA,NA,NA,"","","",NA,NA,NA,NA,NA,NA,"",NA,"",NA,NA,NA,NA,NA,NA,NA,"",NA,"",NA,NA,NA,NA,NA,NA,NA,"","","",NA,"",NA,NA,NA,NA,NA,NA,NA,"",NA,"24"
"",NA,"",NA,"",NA,NA,NA,NA,NA,NA,NA,"","",1,1,"2024-08-24_15h42.57.918","IAT(Formal)","2021.2.3","Win32",58.82352941,"",NA,"e",1,0.5511,0,1,1,7,1,"勇敢","e","",NA,"",NA,NA,NA,NA,NA,NA,NA,"","","",NA,NA,NA,NA,NA,NA,"",NA,"",NA,NA,NA,NA,NA,NA,NA,"",NA,"",NA,NA,NA,NA,NA,NA,NA,"","","",NA,"",NA,NA,NA,NA,NA,NA,NA,"",NA,"24"
"",NA,"",NA,"",NA,NA,NA,NA,NA,NA,NA,"","",1,1,"2024-08-24_15h42.57.918","IAT(Formal)","2021.2.3","Win32",58.82352941,"",NA,"e",1,0.8187,0,2,2,6,1,"正直","e","",NA,"",NA,NA,NA,NA,NA,NA,NA,"","","",NA,NA,NA,NA,NA,NA,"",NA,"",NA,NA,NA,NA,NA,NA,NA,"",NA,"",NA,NA,NA,NA,NA,NA,NA,"","","",NA,"",NA,NA,NA,NA,NA,NA,NA,"",NA,"24"
"",NA,"",NA,"",NA,NA,NA,NA,NA,NA,NA,"","",1,1,"2024-08-24_15h42.57.918","IAT(Formal)","2021.2.3","Win32",58.82352941,"",NA,"i",1,0.6844,0,3,3,29,1,"冒失","i","",NA,"",NA,NA,NA,NA,NA,NA,NA,"","","",NA,NA,NA,NA,NA,NA,"",NA,"",NA,NA,NA,NA,NA,NA,NA,"",NA,"",NA,NA,NA,NA,NA,NA,NA,"","","",NA,"",NA,NA,NA,NA,NA,NA,NA,"",NA,"24"
"",NA,"",NA,"",NA,NA,NA,NA,NA,NA,NA,"","",1,1,"2024-08-24_15h42.57.918","IAT(Formal)","2021.2.3","Win32",58.82352941,"",NA,"i",1,0.4384,0,4,4,39,1,"下贱","i","",NA,"",NA,NA,NA,NA,NA,NA,NA,"","","",NA,NA,NA,NA,NA,NA,"",NA,"",NA,NA,NA,NA,NA,NA,NA,"",NA,"",NA,NA,NA,NA,NA,NA,NA,"","","",NA,"",NA,NA,NA,NA,NA,NA,NA,"",NA,"24"
"",NA,"",NA,"",NA,NA,NA,NA,NA,NA,NA,"","",1,1,"2024-08-24_15h42.57.918","IAT(Formal)","2021.2.3","Win32",58.82352941,"",NA,"i",1,0.4356,0,5,5,26,1,"自卑","i","",NA,"",NA,NA,NA,NA,NA,NA,NA,"","","",NA,NA,NA,NA,NA,NA,"",NA,"",NA,NA,NA,NA,NA,NA,NA,"",NA,"",NA,NA,NA,NA,NA,NA,NA,"","","",NA,"",NA,NA,NA,NA,NA,NA,NA,"",NA,"24"
"",NA,"",NA,"",NA,NA,NA,NA,NA,NA,NA,"","",1,1,"2024-08-24_15h42.57.918","IAT(Formal)","2021.2.3","Win32",58.82352941,"",NA,"i",1,0.6072,0,6,6,36,1,"野蛮","i","",NA,"",NA,NA,NA,NA,NA,NA,NA,"","","",NA,NA,NA,NA,NA,NA,"",NA,"",NA,NA,NA,NA,NA,NA,NA,"",NA,"",NA,NA,NA,NA,NA,NA,NA,"","","",NA,"",NA,NA,NA,NA,NA,NA,NA,"",NA,"24"
"",NA,"",NA,"",NA,NA,NA,NA,NA,NA,NA,"","",1,1,"2024-08-24_15h42.57.918","IAT(Formal)","2021.2.3","Win32",58.82352941,"",NA,"i",1,0.4781,0,7,7,27,1,"傲慢","i","",NA,"",NA,NA,NA,NA,NA,NA,NA,"","","",NA,NA,NA,NA,NA,NA,"",NA,"",NA,NA,NA,NA,NA,NA,NA,"",NA,"",NA,NA,NA,NA,NA,NA,NA,"","","",NA,"",NA,NA,NA,NA,NA,NA,NA,"",NA,"24"
"",NA,"",NA,"",NA,NA,NA,NA,NA,NA,NA,"","",1,1,"2024-08-24_15h42.57.918","IAT(Formal)","2021.2.3","Win32",58.82352941,"",NA,"i",1,0.5028,0,8,8,25,1,"消极","i","",NA,"",NA,NA,NA,NA,NA,NA,NA,"","","",NA,NA,NA,NA,NA,NA,"",NA,"",NA,NA,NA,NA,NA,NA,NA,"",NA,"",NA,NA,NA,NA,NA,NA,NA,"","","",NA,"",NA,NA,NA,NA,NA,NA,NA,"",NA,"24"
"",NA,"",NA,"",NA,NA,NA,NA,NA,NA,NA,"","",1,1,"2024-08-24_15h42.57.918","IAT(Formal)","2021.2.3","Win32",58.82352941,"",NA,"e",1,0.4994,0,9,9,2,1,"聪明","e","",NA,"",NA,NA,NA,NA,NA,NA,NA,"","","",NA,NA,NA,NA,NA,NA,"",NA,"",NA,NA,NA,NA,NA,NA,NA,"",NA,"",NA,NA,NA,NA,NA,NA,NA,"","","",NA,"",NA,NA,NA,NA,NA,NA,NA,"",NA,"24"
"",NA,"",NA,"",NA,NA,NA,NA,NA,NA,NA,"","",1,1,"2024-08-24_15h42.57.918","IAT(Formal)","2021.2.3","Win32",58.82352941,"",NA,"e",1,0.4045,0,10,10,13,1,"公正","e","",NA,"",NA,NA,NA,NA,NA,NA,NA,"","","",NA,NA,NA,NA,NA,NA,"",NA,"",NA,NA,NA,NA,NA,NA,NA,"",NA,"",NA,NA,NA,NA,NA,NA,NA,"","","",NA,"",NA,NA,NA,NA,NA,NA,NA,"",NA,"24"
"",NA,"",NA,"",NA,NA,NA,NA,NA,NA,NA,"","",1,1,"2024-08-24_15h42.57.918","IAT(Formal)","2021.2.3","Win32",58.82352941,"",NA,"i",1,0.6692,0,11,11,31,1,"散漫","i","",NA,"",NA,NA,NA,NA,NA,NA,NA,"","","",NA,NA,NA,NA,NA,NA,"",NA,"",NA,NA,NA,NA,NA,NA,NA,"",NA,"",NA,NA,NA,NA,NA,NA,NA,"","","",NA,"",NA,NA,NA,NA,NA,NA,NA,"",NA,"24"
"",NA,"",NA,"",NA,NA,NA,NA,NA,NA,NA,"","",1,1,"2024-08-24_15h42.57.918","IAT(Formal)","2021.2.3","Win32",58.82352941,"",NA,"e",1,0.7377,0,12,12,1,1,"崇高","e","",NA,"",NA,NA,NA,NA,NA,NA,NA,"","","",NA,NA,NA,NA,NA,NA,"",NA,"",NA,NA,NA,NA,NA,NA,NA,"",NA,"",NA,NA,NA,NA,NA,NA,NA,"","","",NA,"",NA,NA,NA,NA,NA,NA,NA,"",NA,"24"
"",NA,"",NA,"",NA,NA,NA,NA,NA,NA,NA,"","",1,1,"2024-08-24_15h42.57.918","IAT(Formal)","2021.2.3","Win32",58.82352941,"",NA,"e",1,0.6186,0,13,13,16,1,"冷静","e","",NA,"",NA,NA,NA,NA,NA,NA,NA,"","","",NA,NA,NA,NA,NA,NA,"",NA,"",NA,NA,NA,NA,NA,NA,NA,"",NA,"",NA,NA,NA,NA,NA,NA,NA,"","","",NA,"",NA,NA,NA,NA,NA,NA,NA,"",NA,"24"
"",NA,"",NA,"",NA,NA,NA,NA,NA,NA,NA,"","",1,1,"2024-08-24_15h42.57.918","IAT(Formal)","2021.2.3","Win32",58.82352941,"",NA,"e",1,0.4963,0,14,14,8,1,"勤奋","e","",NA,"",NA,NA,NA,NA,NA,NA,NA,"","","",NA,NA,NA,NA,NA,NA,"",NA,"",NA,NA,NA,NA,NA,NA,NA,"",NA,"",NA,NA,NA,NA,NA,NA,NA,"","","",NA,"",NA,NA,NA,NA,NA,NA,NA,"",NA,"24"
"",NA,"",NA,"",NA,NA,NA,NA,NA,NA,NA,"","",1,1,"2024-08-24_15h42.57.918","IAT(Formal)","2021.2.3","Win32",58.82352941,"",NA,"i",1,0.6738,0,15,15,33,1,"自私","i","",NA,"",NA,NA,NA,NA,NA,NA,NA,"","","",NA,NA,NA,NA,NA,NA,"",NA,"",NA,NA,NA,NA,NA,NA,NA,"",NA,"",NA,NA,NA,NA,NA,NA,NA,"","","",NA,"",NA,NA,NA,NA,NA,NA,NA,"",NA,"24"
"",NA,"",NA,"",NA,NA,NA,NA,NA,NA,NA,"","",1,1,"2024-08-24_15h42.57.918","IAT(Formal)","2021.2.3","Win32",58.82352941,"",NA,"i",1,0.7232,0,16,16,38,1,"轻率","i","",NA,"",NA,NA,NA,NA,NA,NA,NA,"","","",NA,NA,NA,NA,NA,NA,"",NA,"",NA,NA,NA,NA,NA,NA,NA,"",NA,"",NA,NA,NA,NA,NA,NA,NA,"","","",NA,"",NA,NA,NA,NA,NA,NA,NA,"",NA,"24"
"",NA,"",NA,"",NA,NA,NA,NA,NA,NA,NA,"","",1,1,"2024-08-24_15h42.57.918","IAT(Formal)","2021.2.3","Win32",58.82352941,"",NA,"i",1,0.5997,0,17,17,30,1,"执拗","i","",NA,"",NA,NA,NA,NA,NA,NA,NA,"","","",NA,NA,NA,NA,NA,NA,"",NA,"",NA,NA,NA,NA,NA,NA,NA,"",NA,"",NA,NA,NA,NA,NA,NA,NA,"","","",NA,"",NA,NA,NA,NA,NA,NA,NA,"",NA,"24"
"",NA,"",NA,"",NA,NA,NA,NA,NA,NA,NA,"","",1,1,"2024-08-24_15h42.57.918","IAT(Formal)","2021.2.3","Win32",58.82352941,"",NA,"i",1,0.5536,0,18,18,21,1,"虚伪","i","",NA,"",NA,NA,NA,NA,NA,NA,NA,"","","",NA,NA,NA,NA,NA,NA,"",NA,"",NA,NA,NA,NA,NA,NA,NA,"",NA,"",NA,NA,NA,NA,NA,NA,NA,"","","",NA,"",NA,NA,NA,NA,NA,NA,NA,"",NA,"24"
"",NA,"",NA,"",NA,NA,NA,NA,NA,NA,NA,"","",1,1,"2024-08-24_15h42.57.918","IAT(Formal)","2021.2.3","Win32",58.82352941,"",NA,"i",1,0.4855,0,19,19,37,1,"固执","i","",NA,"",NA,NA,NA,NA,NA,NA,NA,"","","",NA,NA,NA,NA,NA,NA,"",NA,"",NA,NA,NA,NA,NA,NA,NA,"",NA,"",NA,NA,NA,NA,NA,NA,NA,"","","",NA,"",NA,NA,NA,NA,NA,NA,NA,"",NA,"24"
"",NA,"",NA,"",NA,NA,NA,NA,NA,NA,NA,"","",1,1,"2024-08-24_15h42.57.918","IAT(Formal)","2021.2.3","Win32",58.82352941,"",NA,"e",1,0.483,0,20,20,0,1,"优秀","e","",NA,"",NA,NA,NA,NA,NA,NA,NA,"","","",NA,NA,NA,NA,NA,NA,"",NA,"",NA,NA,NA,NA,NA,NA,NA,"",NA,"",NA,NA,NA,NA,NA,NA,NA,"","","",NA,"",NA,NA,NA,NA,NA,NA,NA,"",NA,"24"
"",NA,"",NA,"",NA,NA,NA,NA,NA,NA,NA,"","",1,1,"2024-08-24_15h42.57.918","IAT(Formal)","2021.2.3","Win32",58.82352941,"",NA,"e",1,0.4241,0,21,21,17,1,"热情","e","",NA,"",NA,NA,NA,NA,NA,NA,NA,"","","",NA,NA,NA,NA,NA,NA,"",NA,"",NA,NA,NA,NA,NA,NA,NA,"",NA,"",NA,NA,NA,NA,NA,NA,NA,"","","",NA,"",NA,NA,NA,NA,NA,NA,NA,"",NA,"24"
"",NA,"",NA,"",NA,NA,NA,NA,NA,NA,NA,"","",1,1,"2024-08-24_15h42.57.918","IAT(Formal)","2021.2.3","Win32",58.82352941,"",NA,"e",1,0.4836,0,22,22,19,1,"诚恳","e","",NA,"",NA,NA,NA,NA,NA,NA,NA,"","","",NA,NA,NA,NA,NA,NA,"",NA,"",NA,NA,NA,NA,NA,NA,NA,"",NA,"",NA,NA,NA,NA,NA,NA,NA,"","","",NA,"",NA,NA,NA,NA,NA,NA,NA,"",NA,"24"
"",NA,"",NA,"",NA,NA,NA,NA,NA,NA,NA,"","",1,1,"2024-08-24_15h42.57.918","IAT(Formal)","2021.2.3","Win32",58.82352941,"",NA,"e",1,0.3687,0,23,23,10,1,"认真","e","",NA,"",NA,NA,NA,NA,NA,NA,NA,"","","",NA,NA,NA,NA,NA,NA,"",NA,"",NA,NA,NA,NA,NA,NA,NA,"",NA,"",NA,NA,NA,NA,NA,NA,NA,"","","",NA,"",NA,NA,NA,NA,NA,NA,NA,"",NA,"24"
"",NA,"",NA,"",NA,NA,NA,NA,NA,NA,NA,"","",1,1,"2024-08-24_15h42.57.918","IAT(Formal)","2021.2.3","Win32",58.82352941,"",NA,"i",1,0.501,0,24,24,34,1,"暴躁","i","",NA,"",NA,NA,NA,NA,NA,NA,NA,"","","",NA,NA,NA,NA,NA,NA,"",NA,"",NA,NA,NA,NA,NA,NA,NA,"",NA,"",NA,NA,NA,NA,NA,NA,NA,"","","",NA,"",NA,NA,NA,NA,NA,NA,NA,"",NA,"24"
"",NA,"",NA,"",NA,NA,NA,NA,NA,NA,NA,"","",1,1,"2024-08-24_15h42.57.918","IAT(Formal)","2021.2.3","Win32",58.82352941,"",NA,"e",1,0.4996,0,25,25,9,1,"机智","e","",NA,"",NA,NA,NA,NA,NA,NA,NA,"","","",NA,NA,NA,NA,NA,NA,"",NA,"",NA,NA,NA,NA,NA,NA,NA,"",NA,"",NA,NA,NA,NA,NA,NA,NA,"","","",NA,"",NA,NA,NA,NA,NA,NA,NA,"",NA,"24"
"",NA,"",NA,"",NA,NA,NA,NA,NA,NA,NA,"","",1,1,"2024-08-24_15h42.57.918","IAT(Formal)","2021.2.3","Win32",58.82352941,"",NA,"i",1,0.6399,0,26,26,22,1,"愚蠢","i","",NA,"",NA,NA,NA,NA,NA,NA,NA,"","","",NA,NA,NA,NA,NA,NA,"",NA,"",NA,NA,NA,NA,NA,NA,NA,"",NA,"",NA,NA,NA,NA,NA,NA,NA,"","","",NA,"",NA,NA,NA,NA,NA,NA,NA,"",NA,"24"
"",NA,"",NA,"",NA,NA,NA,NA,NA,NA,NA,"","",1,1,"2024-08-24_15h42.57.918","IAT(Formal)","2021.2.3","Win32",58.82352941,"",NA,"e",1,0.6001,0,27,27,15,1,"细腻","e","",NA,"",NA,NA,NA,NA,NA,NA,NA,"","","",NA,NA,NA,NA,NA,NA,"",NA,"",NA,NA,NA,NA,NA,NA,NA,"",NA,"",NA,NA,NA,NA,NA,NA,NA,"","","",NA,"",NA,NA,NA,NA,NA,NA,NA,"",NA,"24"
"",NA,"",NA,"",NA,NA,NA,NA,NA,NA,NA,"","",1,1,"2024-08-24_15h42.57.918","IAT(Formal)","2021.2.3","Win32",58.82352941,"",NA,"e",1,0.7262,0,28,28,12,1,"无私","e","",NA,"",NA,NA,NA,NA,NA,NA,NA,"","","",NA,NA,NA,NA,NA,NA,"",NA,"",NA,NA,NA,NA,NA,NA,NA,"",NA,"",NA,NA,NA,NA,NA,NA,NA,"","","",NA,"",NA,NA,NA,NA,NA,NA,NA,"",NA,"24"
"",NA,"",NA,"",NA,NA,NA,NA,NA,NA,NA,"","",1,1,"2024-08-24_15h42.57.918","IAT(Formal)","2021.2.3","Win32",58.82352941,"",NA,"i",1,0.7009,0,29,29,28,1,"鲁莽","i","",NA,"",NA,NA,NA,NA,NA,NA,NA,"","","",NA,NA,NA,NA,NA,NA,"",NA,"",NA,NA,NA,NA,NA,NA,NA,"",NA,"",NA,NA,NA,NA,NA,NA,NA,"","","",NA,"",NA,NA,NA,NA,NA,NA,NA,"",NA,"24"
"",NA,"",NA,"",NA,NA,NA,NA,NA,NA,NA,"","",1,1,"2024-08-24_15h42.57.918","IAT(Formal)","2021.2.3","Win32",58.82352941,"",NA,"e",1,0.5373,0,30,30,11,1,"稳重","e","",NA,"",NA,NA,NA,NA,NA,NA,NA,"","","",NA,NA,NA,NA,NA,NA,"",NA,"",NA,NA,NA,NA,NA,NA,NA,"",NA,"",NA,NA,NA,NA,NA,NA,NA,"","","",NA,"",NA,NA,NA,NA,NA,NA,NA,"",NA,"24"
"",NA,"",NA,"",NA,NA,NA,NA,NA,NA,NA,"","",1,1,"2024-08-24_15h42.57.918","IAT(Formal)","2021.2.3","Win32",58.82352941,"",NA,"i",1,0.5518,0,31,31,20,1,"卑鄙","i","",NA,"",NA,NA,NA,NA,NA,NA,NA,"","","",NA,NA,NA,NA,NA,NA,"",NA,"",NA,NA,NA,NA,NA,NA,NA,"",NA,"",NA,NA,NA,NA,NA,NA,NA,"","","",NA,"",NA,NA,NA,NA,NA,NA,NA,"",NA,"24"
"",NA,"",NA,"",NA,NA,NA,NA,NA,NA,NA,"","",1,1,"2024-08-24_15h42.57.918","IAT(Formal)","2021.2.3","Win32",58.82352941,"",NA,"e",1,0.4395,0,32,32,4,1,"乐观","e","",NA,"",NA,NA,NA,NA,NA,NA,NA,"","","",NA,NA,NA,NA,NA,NA,"",NA,"",NA,NA,NA,NA,NA,NA,NA,"",NA,"",NA,NA,NA,NA,NA,NA,NA,"","","",NA,"",NA,NA,NA,NA,NA,NA,NA,"",NA,"24"
"",NA,"",NA,"",NA,NA,NA,NA,NA,NA,NA,"","",1,1,"2024-08-24_15h42.57.918","IAT(Formal)","2021.2.3","Win32",58.82352941,"",NA,"e",1,0.4535,0,33,33,5,1,"诚实","e","",NA,"",NA,NA,NA,NA,NA,NA,NA,"","","",NA,NA,NA,NA,NA,NA,"",NA,"",NA,NA,NA,NA,NA,NA,NA,"",NA,"",NA,NA,NA,NA,NA,NA,NA,"","","",NA,"",NA,NA,NA,NA,NA,NA,NA,"",NA,"24"
"",NA,"",NA,"",NA,NA,NA,NA,NA,NA,NA,"","",1,1,"2024-08-24_15h42.57.918","IAT(Formal)","2021.2.3","Win32",58.82352941,"",NA,"e",1,0.4173,0,34,34,14,1,"朴实","e","",NA,"",NA,NA,NA,NA,NA,NA,NA,"","","",NA,NA,NA,NA,NA,NA,"",NA,"",NA,NA,NA,NA,NA,NA,NA,"",NA,"",NA,NA,NA,NA,NA,NA,NA,"","","",NA,"",NA,NA,NA,NA,NA,NA,NA,"",NA,"24"
"",NA,"",NA,"",NA,NA,NA,NA,NA,NA,NA,"","",1,1,"2024-08-24_15h42.57.918","IAT(Formal)","2021.2.3","Win32",58.82352941,"",NA,"i",1,0.4859,0,35,35,35,1,"猖狂","i","",NA,"",NA,NA,NA,NA,NA,NA,NA,"","","",NA,NA,NA,NA,NA,NA,"",NA,"",NA,NA,NA,NA,NA,NA,NA,"",NA,"",NA,NA,NA,NA,NA,NA,NA,"","","",NA,"",NA,NA,NA,NA,NA,NA,NA,"",NA,"24"
"",NA,"",NA,"",NA,NA,NA,NA,NA,NA,NA,"","",1,1,"2024-08-24_15h42.57.918","IAT(Formal)","2021.2.3","Win32",58.82352941,"",NA,"e",1,0.6053,0,36,36,3,1,"杰出","e","",NA,"",NA,NA,NA,NA,NA,NA,NA,"","","",NA,NA,NA,NA,NA,NA,"",NA,"",NA,NA,NA,NA,NA,NA,NA,"",NA,"",NA,NA,NA,NA,NA,NA,NA,"","","",NA,"",NA,NA,NA,NA,NA,NA,NA,"",NA,"24"
"",NA,"",NA,"",NA,NA,NA,NA,NA,NA,NA,"","",1,1,"2024-08-24_15h42.57.918","IAT(Formal)","2021.2.3","Win32",58.82352941,"",NA,"e",1,0.4625,0,37,37,18,1,"活泼","e","",NA,"",NA,NA,NA,NA,NA,NA,NA,"","","",NA,NA,NA,NA,NA,NA,"",NA,"",NA,NA,NA,NA,NA,NA,NA,"",NA,"",NA,NA,NA,NA,NA,NA,NA,"","","",NA,"",NA,NA,NA,NA,NA,NA,NA,"",NA,"24"
"",NA,"",NA,"",NA,NA,NA,NA,NA,NA,NA,"","",1,1,"2024-08-24_15h42.57.918","IAT(Formal)","2021.2.3","Win32",58.82352941,"",NA,"i",1,0.5962,0,38,38,23,1,"刻薄","i","",NA,"",NA,NA,NA,NA,NA,NA,NA,"","","",NA,NA,NA,NA,NA,NA,"",NA,"",NA,NA,NA,NA,NA,NA,NA,"",NA,"",NA,NA,NA,NA,NA,NA,NA,"","","",NA,"",NA,NA,NA,NA,NA,NA,NA,"",NA,"24"
"",NA,"",NA,"",NA,NA,NA,NA,NA,NA,NA,"","",1,1,"2024-08-24_15h42.57.918","IAT(Formal)","2021.2.3","Win32",58.82352941,"",NA,"i",1,0.5888,0,39,39,24,1,"悲观","i","",NA,"",NA,NA,NA,NA,NA,NA,NA,"","","",NA,NA,NA,NA,NA,NA,"",NA,"",NA,NA,NA,NA,NA,NA,NA,"",NA,"",NA,NA,NA,NA,NA,NA,NA,"","","",NA,"",NA,NA,NA,NA,NA,NA,NA,"",NA,"24"
"",NA,"",NA,"",NA,NA,NA,NA,NA,NA,NA,"","",1,1,"2024-08-24_15h42.57.918","IAT(Formal)","2021.2.3","Win32",58.82352941,"",NA,"",NA,NA,NA,NA,NA,NA,NA,"","","space",8.3238,"e",1,0.5677,0,0,0,21,1,"稳重","e","",NA,NA,NA,NA,NA,NA,"",NA,"",NA,NA,NA,NA,NA,NA,NA,"",NA,"",NA,NA,NA,NA,NA,NA,NA,"","","",NA,"",NA,NA,NA,NA,NA,NA,NA,"",NA,"24"
"",NA,"",NA,"",NA,NA,NA,NA,NA,NA,NA,"","",1,1,"2024-08-24_15h42.57.918","IAT(Formal)","2021.2.3","Win32",58.82352941,"",NA,"",NA,NA,NA,NA,NA,NA,NA,"","","",NA,"i",1,0.5845,0,1,1,44,1,"暴躁","i","",NA,NA,NA,NA,NA,NA,"",NA,"",NA,NA,NA,NA,NA,NA,NA,"",NA,"",NA,NA,NA,NA,NA,NA,NA,"","","",NA,"",NA,NA,NA,NA,NA,NA,NA,"",NA,"24"
"",NA,"",NA,"",NA,NA,NA,NA,NA,NA,NA,"","",1,1,"2024-08-24_15h42.57.918","IAT(Formal)","2021.2.3","Win32",58.82352941,"",NA,"",NA,NA,NA,NA,NA,NA,NA,"","","",NA,"i",1,0.4546,0,2,2,75,1,"他","i","",NA,NA,NA,NA,NA,NA,"",NA,"",NA,NA,NA,NA,NA,NA,NA,"",NA,"",NA,NA,NA,NA,NA,NA,NA,"","","",NA,"",NA,NA,NA,NA,NA,NA,NA,"",NA,"24"
"",NA,"",NA,"",NA,NA,NA,NA,NA,NA,NA,"","",1,1,"2024-08-24_15h42.57.918","IAT(Formal)","2021.2.3","Win32",58.82352941,"",NA,"",NA,NA,NA,NA,NA,NA,NA,"","","",NA,"e",1,0.4642,0,3,3,64,1,"俺","e","",NA,NA,NA,NA,NA,NA,"",NA,"",NA,NA,NA,NA,NA,NA,NA,"",NA,"",NA,NA,NA,NA,NA,NA,NA,"","","",NA,"",NA,NA,NA,NA,NA,NA,NA,"",NA,"24"
"",NA,"",NA,"",NA,NA,NA,NA,NA,NA,NA,"","",1,1,"2024-08-24_15h42.57.918","IAT(Formal)","2021.2.3","Win32",58.82352941,"",NA,"",NA,NA,NA,NA,NA,NA,NA,"","","",NA,"e",1,0.3672,0,4,4,51,1,"我的","e","",NA,NA,NA,NA,NA,NA,"",NA,"",NA,NA,NA,NA,NA,NA,NA,"",NA,"",NA,NA,NA,NA,NA,NA,NA,"","","",NA,"",NA,NA,NA,NA,NA,NA,NA,"",NA,"24"
"",NA,"",NA,"",NA,NA,NA,NA,NA,NA,NA,"","",1,1,"2024-08-24_15h42.57.918","IAT(Formal)","2021.2.3","Win32",58.82352941,"",NA,"",NA,NA,NA,NA,NA,NA,NA,"","","",NA,"i",1,0.4277,0,5,5,66,1,"他们","i","",NA,NA,NA,NA,NA,NA,"",NA,"",NA,NA,NA,NA,NA,NA,NA,"",NA,"",NA,NA,NA,NA,NA,NA,NA,"","","",NA,"",NA,NA,NA,NA,NA,NA,NA,"",NA,"24"
"",NA,"",NA,"",NA,NA,NA,NA,NA,NA,NA,"","",1,1,"2024-08-24_15h42.57.918","IAT(Formal)","2021.2.3","Win32",58.82352941,"",NA,"",NA,NA,NA,NA,NA,NA,NA,"","","",NA,"e",1,0.4437,0,6,6,22,1,"无私","e","",NA,NA,NA,NA,NA,NA,"",NA,"",NA,NA,NA,NA,NA,NA,NA,"",NA,"",NA,NA,NA,NA,NA,NA,NA,"","","",NA,"",NA,NA,NA,NA,NA,NA,NA,"",NA,"24"
"",NA,"",NA,"",NA,NA,NA,NA,NA,NA,NA,"","",1,1,"2024-08-24_15h42.57.918","IAT(Formal)","2021.2.3","Win32",58.82352941,"",NA,"",NA,NA,NA,NA,NA,NA,NA,"","","",NA,"e",1,0.4385,0,7,7,14,1,"乐观","e","",NA,NA,NA,NA,NA,NA,"",NA,"",NA,NA,NA,NA,NA,NA,NA,"",NA,"",NA,NA,NA,NA,NA,NA,NA,"","","",NA,"",NA,NA,NA,NA,NA,NA,NA,"",NA,"24"
"",NA,"",NA,"",NA,NA,NA,NA,NA,NA,NA,"","",1,1,"2024-08-24_15h42.57.918","IAT(Formal)","2021.2.3","Win32",58.82352941,"",NA,"",NA,NA,NA,NA,NA,NA,NA,"","","",NA,"i",1,0.4548,0,8,8,6,1,"他们","i","",NA,NA,NA,NA,NA,NA,"",NA,"",NA,NA,NA,NA,NA,NA,NA,"",NA,"",NA,NA,NA,NA,NA,NA,NA,"","","",NA,"",NA,NA,NA,NA,NA,NA,NA,"",NA,"24"
"",NA,"",NA,"",NA,NA,NA,NA,NA,NA,NA,"","",1,1,"2024-08-24_15h42.57.918","IAT(Formal)","2021.2.3","Win32",58.82352941,"",NA,"",NA,NA,NA,NA,NA,NA,NA,"","","",NA,"e",1,0.7013,0,9,9,19,1,"机智","e","",NA,NA,NA,NA,NA,NA,"",NA,"",NA,NA,NA,NA,NA,NA,NA,"",NA,"",NA,NA,NA,NA,NA,NA,NA,"","","",NA,"",NA,NA,NA,NA,NA,NA,NA,"",NA,"24"
"",NA,"",NA,"",NA,NA,NA,NA,NA,NA,NA,"","",1,1,"2024-08-24_15h42.57.918","IAT(Formal)","2021.2.3","Win32",58.82352941,"",NA,"",NA,NA,NA,NA,NA,NA,NA,"","","",NA,"i",1,0.7329,0,10,10,39,1,"冒失","i","",NA,NA,NA,NA,NA,NA,"",NA,"",NA,NA,NA,NA,NA,NA,NA,"",NA,"",NA,NA,NA,NA,NA,NA,NA,"","","",NA,"",NA,NA,NA,NA,NA,NA,NA,"",NA,"24"
"",NA,"",NA,"",NA,NA,NA,NA,NA,NA,NA,"","",1,1,"2024-08-24_15h42.57.918","IAT(Formal)","2021.2.3","Win32",58.82352941,"",NA,"",NA,NA,NA,NA,NA,NA,NA,"","","",NA,"i",1,0.4744,0,11,11,40,1,"执拗","i","",NA,NA,NA,NA,NA,NA,"",NA,"",NA,NA,NA,NA,NA,NA,NA,"",NA,"",NA,NA,NA,NA,NA,NA,NA,"","","",NA,"",NA,NA,NA,NA,NA,NA,NA,"",NA,"24"
"",NA,"",NA,"",NA,NA,NA,NA,NA,NA,NA,"","",1,1,"2024-08-24_15h42.57.918","IAT(Formal)","2021.2.3","Win32",58.82352941,"",NA,"",NA,NA,NA,NA,NA,NA,NA,"","","",NA,"i",1,0.5166,0,12,12,9,1,"其他","i","",NA,NA,NA,NA,NA,NA,"",NA,"",NA,NA,NA,NA,NA,NA,NA,"",NA,"",NA,NA,NA,NA,NA,NA,NA,"","","",NA,"",NA,NA,NA,NA,NA,NA,NA,"",NA,"24"
"",NA,"",NA,"",NA,NA,NA,NA,NA,NA,NA,"","",1,1,"2024-08-24_15h42.57.918","IAT(Formal)","2021.2.3","Win32",58.82352941,"",NA,"",NA,NA,NA,NA,NA,NA,NA,"","","",NA,"i",1,0.3667,0,13,13,77,1,"他的","i","",NA,NA,NA,NA,NA,NA,"",NA,"",NA,NA,NA,NA,NA,NA,NA,"",NA,"",NA,NA,NA,NA,NA,NA,NA,"","","",NA,"",NA,NA,NA,NA,NA,NA,NA,"",NA,"24"
"",NA,"",NA,"",NA,NA,NA,NA,NA,NA,NA,"","",1,1,"2024-08-24_15h42.57.918","IAT(Formal)","2021.2.3","Win32",58.82352941,"",NA,"",NA,NA,NA,NA,NA,NA,NA,"","","",NA,"i",1,0.4676,0,14,14,38,1,"鲁莽","i","",NA,NA,NA,NA,NA,NA,"",NA,"",NA,NA,NA,NA,NA,NA,NA,"",NA,"",NA,NA,NA,NA,NA,NA,NA,"","","",NA,"",NA,NA,NA,NA,NA,NA,NA,"",NA,"24"
"",NA,"",NA,"",NA,NA,NA,NA,NA,NA,NA,"","",1,1,"2024-08-24_15h42.57.918","IAT(Formal)","2021.2.3","Win32",58.82352941,"",NA,"",NA,NA,NA,NA,NA,NA,NA,"","","",NA,"e",1,0.5338,0,15,15,15,1,"诚实","e","",NA,NA,NA,NA,NA,NA,"",NA,"",NA,NA,NA,NA,NA,NA,NA,"",NA,"",NA,NA,NA,NA,NA,NA,NA,"","","",NA,"",NA,NA,NA,NA,NA,NA,NA,"",NA,"24"
"",NA,"",NA,"",NA,NA,NA,NA,NA,NA,NA,"","",1,1,"2024-08-24_15h42.57.918","IAT(Formal)","2021.2.3","Win32",58.82352941,"",NA,"",NA,NA,NA,NA,NA,NA,NA,"","","",NA,"e",1,0.4357,0,16,16,29,1,"诚恳","e","",NA,NA,NA,NA,NA,NA,"",NA,"",NA,NA,NA,NA,NA,NA,NA,"",NA,"",NA,NA,NA,NA,NA,NA,NA,"","","",NA,"",NA,NA,NA,NA,NA,NA,NA,"",NA,"24"
"",NA,"",NA,"",NA,NA,NA,NA,NA,NA,NA,"","",1,1,"2024-08-24_15h42.57.918","IAT(Formal)","2021.2.3","Win32",58.82352941,"",NA,"",NA,NA,NA,NA,NA,NA,NA,"","","",NA,"i",1,0.5343,0,17,17,33,1,"刻薄","i","",NA,NA,NA,NA,NA,NA,"",NA,"",NA,NA,NA,NA,NA,NA,NA,"",NA,"",NA,NA,NA,NA,NA,NA,NA,"","","",NA,"",NA,NA,NA,NA,NA,NA,NA,"",NA,"24"
"",NA,"",NA,"",NA,NA,NA,NA,NA,NA,NA,"","",1,1,"2024-08-24_15h42.57.918","IAT(Formal)","2021.2.3","Win32",58.82352941,"",NA,"",NA,NA,NA,NA,NA,NA,NA,"","","",NA,"e",1,0.4402,0,18,18,10,1,"优秀","e","",NA,NA,NA,NA,NA,NA,"",NA,"",NA,NA,NA,NA,NA,NA,NA,"",NA,"",NA,NA,NA,NA,NA,NA,NA,"","","",NA,"",NA,NA,NA,NA,NA,NA,NA,"",NA,"24"
"",NA,"",NA,"",NA,NA,NA,NA,NA,NA,NA,"","",1,1,"2024-08-24_15h42.57.918","IAT(Formal)","2021.2.3","Win32",58.82352941,"",NA,"",NA,NA,NA,NA,NA,NA,NA,"","","",NA,"i",1,0.4348,0,19,19,57,1,"他的","i","",NA,NA,NA,NA,NA,NA,"",NA,"",NA,NA,NA,NA,NA,NA,NA,"",NA,"",NA,NA,NA,NA,NA,NA,NA,"","","",NA,"",NA,NA,NA,NA,NA,NA,NA,"",NA,"24"
"",NA,"",NA,"",NA,NA,NA,NA,NA,NA,NA,"","",1,1,"2024-08-24_15h42.57.918","IAT(Formal)","2021.2.3","Win32",58.82352941,"",NA,"",NA,NA,NA,NA,NA,NA,NA,"","","",NA,"i",1,0.4669,0,20,20,8,1,"他人","i","",NA,NA,NA,NA,NA,NA,"",NA,"",NA,NA,NA,NA,NA,NA,NA,"",NA,"",NA,NA,NA,NA,NA,NA,NA,"","","",NA,"",NA,NA,NA,NA,NA,NA,NA,"",NA,"24"
"",NA,"",NA,"",NA,NA,NA,NA,NA,NA,NA,"","",1,1,"2024-08-24_15h42.57.918","IAT(Formal)","2021.2.3","Win32",58.82352941,"",NA,"",NA,NA,NA,NA,NA,NA,NA,"","","",NA,"e",1,0.6634,0,21,21,20,1,"认真","e","",NA,NA,NA,NA,NA,NA,"",NA,"",NA,NA,NA,NA,NA,NA,NA,"",NA,"",NA,NA,NA,NA,NA,NA,NA,"","","",NA,"",NA,NA,NA,NA,NA,NA,NA,"",NA,"24"
"",NA,"",NA,"",NA,NA,NA,NA,NA,NA,NA,"","",1,1,"2024-08-24_15h42.57.918","IAT(Formal)","2021.2.3","Win32",58.82352941,"",NA,"",NA,NA,NA,NA,NA,NA,NA,"","","",NA,"e",0,0.4512,0,22,22,55,1,"他","i","",NA,NA,NA,NA,NA,NA,"",NA,"",NA,NA,NA,NA,NA,NA,NA,"",NA,"",NA,NA,NA,NA,NA,NA,NA,"","","",NA,"",NA,NA,NA,NA,NA,NA,NA,"",NA,"24"
"",NA,"",NA,"",NA,NA,NA,NA,NA,NA,NA,"","",1,1,"2024-08-24_15h42.57.918","IAT(Formal)","2021.2.3","Win32",58.82352941,"",NA,"",NA,NA,NA,NA,NA,NA,NA,"","","",NA,"i",1,0.475,0,23,23,76,1,"他们","i","",NA,NA,NA,NA,NA,NA,"",NA,"",NA,NA,NA,NA,NA,NA,NA,"",NA,"",NA,NA,NA,NA,NA,NA,NA,"","","",NA,"",NA,NA,NA,NA,NA,NA,NA,"",NA,"24"
"",NA,"",NA,"",NA,NA,NA,NA,NA,NA,NA,"","",1,1,"2024-08-24_15h42.57.918","IAT(Formal)","2021.2.3","Win32",58.82352941,"",NA,"",NA,NA,NA,NA,NA,NA,NA,"","","",NA,"e",1,0.5004,0,24,24,4,1,"俺","e","",NA,NA,NA,NA,NA,NA,"",NA,"",NA,NA,NA,NA,NA,NA,NA,"",NA,"",NA,NA,NA,NA,NA,NA,NA,"","","",NA,"",NA,NA,NA,NA,NA,NA,NA,"",NA,"24"
"",NA,"",NA,"",NA,NA,NA,NA,NA,NA,NA,"","",1,1,"2024-08-24_15h42.57.918","IAT(Formal)","2021.2.3","Win32",58.82352941,"",NA,"",NA,NA,NA,NA,NA,NA,NA,"","","",NA,"e",1,0.5117,0,25,25,53,1,"自己","e","",NA,NA,NA,NA,NA,NA,"",NA,"",NA,NA,NA,NA,NA,NA,NA,"",NA,"",NA,NA,NA,NA,NA,NA,NA,"","","",NA,"",NA,NA,NA,NA,NA,NA,NA,"",NA,"24"
"",NA,"",NA,"",NA,NA,NA,NA,NA,NA,NA,"","",1,1,"2024-08-24_15h42.57.918","IAT(Formal)","2021.2.3","Win32",58.82352941,"",NA,"",NA,NA,NA,NA,NA,NA,NA,"","","",NA,"e",1,0.5662,0,26,26,24,1,"朴实","e","",NA,NA,NA,NA,NA,NA,"",NA,"",NA,NA,NA,NA,NA,NA,NA,"",NA,"",NA,NA,NA,NA,NA,NA,NA,"","","",NA,"",NA,NA,NA,NA,NA,NA,NA,"",NA,"24"
"",NA,"",NA,"",NA,NA,NA,NA,NA,NA,NA,"","",1,1,"2024-08-24_15h42.57.918","IAT(Formal)","2021.2.3","Win32",58.82352941,"",NA,"",NA,NA,NA,NA,NA,NA,NA,"","","",NA,"i",1,0.4924,0,27,27,35,1,"消极","i","",NA,NA,NA,NA,NA,NA,"",NA,"",NA,NA,NA,NA,NA,NA,NA,"",NA,"",NA,NA,NA,NA,NA,NA,NA,"","","",NA,"",NA,NA,NA,NA,NA,NA,NA,"",NA,"24"
"",NA,"",NA,"",NA,NA,NA,NA,NA,NA,NA,"","",1,1,"2024-08-24_15h42.57.918","IAT(Formal)","2021.2.3","Win32",58.82352941,"",NA,"",NA,NA,NA,NA,NA,NA,NA,"","","",NA,"e",1,0.7607,0,28,28,23,1,"公正","e","",NA,NA,NA,NA,NA,NA,"",NA,"",NA,NA,NA,NA,NA,NA,NA,"",NA,"",NA,NA,NA,NA,NA,NA,NA,"","","",NA,"",NA,NA,NA,NA,NA,NA,NA,"",NA,"24"
"",NA,"",NA,"",NA,NA,NA,NA,NA,NA,NA,"","",1,1,"2024-08-24_15h42.57.918","IAT(Formal)","2021.2.3","Win32",58.82352941,"",NA,"",NA,NA,NA,NA,NA,NA,NA,"","","",NA,"e",1,0.5101,0,29,29,74,1,"俺","e","",NA,NA,NA,NA,NA,NA,"",NA,"",NA,NA,NA,NA,NA,NA,NA,"",NA,"",NA,NA,NA,NA,NA,NA,NA,"","","",NA,"",NA,NA,NA,NA,NA,NA,NA,"",NA,"24"
"",NA,"",NA,"",NA,NA,NA,NA,NA,NA,NA,"","",1,1,"2024-08-24_15h42.57.918","IAT(Formal)","2021.2.3","Win32",58.82352941,"",NA,"",NA,NA,NA,NA,NA,NA,NA,"","","",NA,"e",1,0.4864,0,30,30,62,1,"我们","e","",NA,NA,NA,NA,NA,NA,"",NA,"",NA,NA,NA,NA,NA,NA,NA,"",NA,"",NA,NA,NA,NA,NA,NA,NA,"","","",NA,"",NA,NA,NA,NA,NA,NA,NA,"",NA,"24"
"",NA,"",NA,"",NA,NA,NA,NA,NA,NA,NA,"","",1,1,"2024-08-24_15h42.57.918","IAT(Formal)","2021.2.3","Win32",58.82352941,"",NA,"",NA,NA,NA,NA,NA,NA,NA,"","","",NA,"e",1,0.5504,0,31,31,16,1,"正直","e","",NA,NA,NA,NA,NA,NA,"",NA,"",NA,NA,NA,NA,NA,NA,NA,"",NA,"",NA,NA,NA,NA,NA,NA,NA,"","","",NA,"",NA,NA,NA,NA,NA,NA,NA,"",NA,"24"
"",NA,"",NA,"",NA,NA,NA,NA,NA,NA,NA,"","",1,1,"2024-08-24_15h42.57.918","IAT(Formal)","2021.2.3","Win32",58.82352941,"",NA,"",NA,NA,NA,NA,NA,NA,NA,"","","",NA,"e",1,0.4199,0,32,32,50,1,"我","e","",NA,NA,NA,NA,NA,NA,"",NA,"",NA,NA,NA,NA,NA,NA,NA,"",NA,"",NA,NA,NA,NA,NA,NA,NA,"","","",NA,"",NA,NA,NA,NA,NA,NA,NA,"",NA,"24"
"",NA,"",NA,"",NA,NA,NA,NA,NA,NA,NA,"","",1,1,"2024-08-24_15h42.57.918","IAT(Formal)","2021.2.3","Win32",58.82352941,"",NA,"",NA,NA,NA,NA,NA,NA,NA,"","","",NA,"e",1,0.3855,0,33,33,73,1,"自己","e","",NA,NA,NA,NA,NA,NA,"",NA,"",NA,NA,NA,NA,NA,NA,NA,"",NA,"",NA,NA,NA,NA,NA,NA,NA,"","","",NA,"",NA,NA,NA,NA,NA,NA,NA,"",NA,"24"
"",NA,"",NA,"",NA,NA,NA,NA,NA,NA,NA,"","",1,1,"2024-08-24_15h42.57.918","IAT(Formal)","2021.2.3","Win32",58.82352941,"",NA,"",NA,NA,NA,NA,NA,NA,NA,"","","",NA,"i",1,0.4542,0,34,34,58,1,"他人","i","",NA,NA,NA,NA,NA,NA,"",NA,"",NA,NA,NA,NA,NA,NA,NA,"",NA,"",NA,NA,NA,NA,NA,NA,NA,"","","",NA,"",NA,NA,NA,NA,NA,NA,NA,"",NA,"24"
"",NA,"",NA,"",NA,NA,NA,NA,NA,NA,NA,"","",1,1,"2024-08-24_15h42.57.918","IAT(Formal)","2021.2.3","Win32",58.82352941,"",NA,"",NA,NA,NA,NA,NA,NA,NA,"","","",NA,"e",1,0.6172,0,35,35,27,1,"热情","e","",NA,NA,NA,NA,NA,NA,"",NA,"",NA,NA,NA,NA,NA,NA,NA,"",NA,"",NA,NA,NA,NA,NA,NA,NA,"","","",NA,"",NA,NA,NA,NA,NA,NA,NA,"",NA,"24"
"",NA,"",NA,"",NA,NA,NA,NA,NA,NA,NA,"","",1,1,"2024-08-24_15h42.57.918","IAT(Formal)","2021.2.3","Win32",58.82352941,"",NA,"",NA,NA,NA,NA,NA,NA,NA,"","","",NA,"e",1,0.5071,0,36,36,13,1,"杰出","e","",NA,NA,NA,NA,NA,NA,"",NA,"",NA,NA,NA,NA,NA,NA,NA,"",NA,"",NA,NA,NA,NA,NA,NA,NA,"","","",NA,"",NA,NA,NA,NA,NA,NA,NA,"",NA,"24"
"",NA,"",NA,"",NA,NA,NA,NA,NA,NA,NA,"","",1,1,"2024-08-24_15h42.57.918","IAT(Formal)","2021.2.3","Win32",58.82352941,"",NA,"",NA,NA,NA,NA,NA,NA,NA,"","","",NA,"i",1,0.5462,0,37,37,36,1,"自卑","i","",NA,NA,NA,NA,NA,NA,"",NA,"",NA,NA,NA,NA,NA,NA,NA,"",NA,"",NA,NA,NA,NA,NA,NA,NA,"","","",NA,"",NA,NA,NA,NA,NA,NA,NA,"",NA,"24"
"",NA,"",NA,"",NA,NA,NA,NA,NA,NA,NA,"","",1,1,"2024-08-24_15h42.57.918","IAT(Formal)","2021.2.3","Win32",58.82352941,"",NA,"",NA,NA,NA,NA,NA,NA,NA,"","","",NA,"i",1,0.6161,0,38,38,34,1,"悲观","i","",NA,NA,NA,NA,NA,NA,"",NA,"",NA,NA,NA,NA,NA,NA,NA,"",NA,"",NA,NA,NA,NA,NA,NA,NA,"","","",NA,"",NA,NA,NA,NA,NA,NA,NA,"",NA,"24"
"",NA,"",NA,"",NA,NA,NA,NA,NA,NA,NA,"","",1,1,"2024-08-24_15h42.57.918","IAT(Formal)","2021.2.3","Win32",58.82352941,"",NA,"",NA,NA,NA,NA,NA,NA,NA,"","","",NA,"i",1,0.5353,0,39,39,48,1,"轻率","i","",NA,NA,NA,NA,NA,NA,"",NA,"",NA,NA,NA,NA,NA,NA,NA,"",NA,"",NA,NA,NA,NA,NA,NA,NA,"","","",NA,"",NA,NA,NA,NA,NA,NA,NA,"",NA,"24"
"",NA,"",NA,"",NA,NA,NA,NA,NA,NA,NA,"","",1,1,"2024-08-24_15h42.57.918","IAT(Formal)","2021.2.3","Win32",58.82352941,"",NA,"",NA,NA,NA,NA,NA,NA,NA,"","","",NA,"i",1,0.483,0,40,40,7,1,"他的","i","",NA,NA,NA,NA,NA,NA,"",NA,"",NA,NA,NA,NA,NA,NA,NA,"",NA,"",NA,NA,NA,NA,NA,NA,NA,"","","",NA,"",NA,NA,NA,NA,NA,NA,NA,"",NA,"24"
"",NA,"",NA,"",NA,NA,NA,NA,NA,NA,NA,"","",1,1,"2024-08-24_15h42.57.918","IAT(Formal)","2021.2.3","Win32",58.82352941,"",NA,"",NA,NA,NA,NA,NA,NA,NA,"","","",NA,"i",1,0.3688,0,41,41,68,1,"他人","i","",NA,NA,NA,NA,NA,NA,"",NA,"",NA,NA,NA,NA,NA,NA,NA,"",NA,"",NA,NA,NA,NA,NA,NA,NA,"","","",NA,"",NA,NA,NA,NA,NA,NA,NA,"",NA,"24"
"",NA,"",NA,"",NA,NA,NA,NA,NA,NA,NA,"","",1,1,"2024-08-24_15h42.57.918","IAT(Formal)","2021.2.3","Win32",58.82352941,"",NA,"",NA,NA,NA,NA,NA,NA,NA,"","","",NA,"i",1,0.5082,0,42,42,42,1,"凶狠","i","",NA,NA,NA,NA,NA,NA,"",NA,"",NA,NA,NA,NA,NA,NA,NA,"",NA,"",NA,NA,NA,NA,NA,NA,NA,"","","",NA,"",NA,NA,NA,NA,NA,NA,NA,"",NA,"24"
"",NA,"",NA,"",NA,NA,NA,NA,NA,NA,NA,"","",1,1,"2024-08-24_15h42.57.918","IAT(Formal)","2021.2.3","Win32",58.82352941,"",NA,"",NA,NA,NA,NA,NA,NA,NA,"","","",NA,"i",1,0.4175,0,43,43,47,1,"固执","i","",NA,NA,NA,NA,NA,NA,"",NA,"",NA,NA,NA,NA,NA,NA,NA,"",NA,"",NA,NA,NA,NA,NA,NA,NA,"","","",NA,"",NA,NA,NA,NA,NA,NA,NA,"",NA,"24"
"",NA,"",NA,"",NA,NA,NA,NA,NA,NA,NA,"","",1,1,"2024-08-24_15h42.57.918","IAT(Formal)","2021.2.3","Win32",58.82352941,"",NA,"",NA,NA,NA,NA,NA,NA,NA,"","","",NA,"i",0,0.5333,0,44,44,26,1,"冷静","e","",NA,NA,NA,NA,NA,NA,"",NA,"",NA,NA,NA,NA,NA,NA,NA,"",NA,"",NA,NA,NA,NA,NA,NA,NA,"","","",NA,"",NA,NA,NA,NA,NA,NA,NA,"",NA,"24"
"",NA,"",NA,"",NA,NA,NA,NA,NA,NA,NA,"","",1,1,"2024-08-24_15h42.57.918","IAT(Formal)","2021.2.3","Win32",58.82352941,"",NA,"",NA,NA,NA,NA,NA,NA,NA,"","","",NA,"i",1,0.5192,0,45,45,5,1,"他","i","",NA,NA,NA,NA,NA,NA,"",NA,"",NA,NA,NA,NA,NA,NA,NA,"",NA,"",NA,NA,NA,NA,NA,NA,NA,"","","",NA,"",NA,NA,NA,NA,NA,NA,NA,"",NA,"24"
"",NA,"",NA,"",NA,NA,NA,NA,NA,NA,NA,"","",1,1,"2024-08-24_15h42.57.918","IAT(Formal)","2021.2.3","Win32",58.82352941,"",NA,"",NA,NA,NA,NA,NA,NA,NA,"","","",NA,"e",1,0.4793,0,46,46,61,1,"我的","e","",NA,NA,NA,NA,NA,NA,"",NA,"",NA,NA,NA,NA,NA,NA,NA,"",NA,"",NA,NA,NA,NA,NA,NA,NA,"","","",NA,"",NA,NA,NA,NA,NA,NA,NA,"",NA,"24"
"",NA,"",NA,"",NA,NA,NA,NA,NA,NA,NA,"","",1,1,"2024-08-24_15h42.57.918","IAT(Formal)","2021.2.3","Win32",58.82352941,"",NA,"",NA,NA,NA,NA,NA,NA,NA,"","","",NA,"i",1,0.5354,0,47,47,49,1,"下贱","i","",NA,NA,NA,NA,NA,NA,"",NA,"",NA,NA,NA,NA,NA,NA,NA,"",NA,"",NA,NA,NA,NA,NA,NA,NA,"","","",NA,"",NA,NA,NA,NA,NA,NA,NA,"",NA,"24"
"",NA,"",NA,"",NA,NA,NA,NA,NA,NA,NA,"","",1,1,"2024-08-24_15h42.57.918","IAT(Formal)","2021.2.3","Win32",58.82352941,"",NA,"",NA,NA,NA,NA,NA,NA,NA,"","","",NA,"i",1,0.5349,0,48,48,45,1,"猖狂","i","",NA,NA,NA,NA,NA,NA,"",NA,"",NA,NA,NA,NA,NA,NA,NA,"",NA,"",NA,NA,NA,NA,NA,NA,NA,"","","",NA,"",NA,NA,NA,NA,NA,NA,NA,"",NA,"24"
"",NA,"",NA,"",NA,NA,NA,NA,NA,NA,NA,"","",1,1,"2024-08-24_15h42.57.918","IAT(Formal)","2021.2.3","Win32",58.82352941,"",NA,"",NA,NA,NA,NA,NA,NA,NA,"","","",NA,"i",1,0.5008,0,49,49,30,1,"卑鄙","i","",NA,NA,NA,NA,NA,NA,"",NA,"",NA,NA,NA,NA,NA,NA,NA,"",NA,"",NA,NA,NA,NA,NA,NA,NA,"","","",NA,"",NA,NA,NA,NA,NA,NA,NA,"",NA,"24"
"",NA,"",NA,"",NA,NA,NA,NA,NA,NA,NA,"","",1,1,"2024-08-24_15h42.57.918","IAT(Formal)","2021.2.3","Win32",58.82352941,"",NA,"",NA,NA,NA,NA,NA,NA,NA,"","","",NA,"e",1,0.5036,0,50,50,2,1,"我们","e","",NA,NA,NA,NA,NA,NA,"",NA,"",NA,NA,NA,NA,NA,NA,NA,"",NA,"",NA,NA,NA,NA,NA,NA,NA,"","","",NA,"",NA,NA,NA,NA,NA,NA,NA,"",NA,"24"
"",NA,"",NA,"",NA,NA,NA,NA,NA,NA,NA,"","",1,1,"2024-08-24_15h42.57.918","IAT(Formal)","2021.2.3","Win32",58.82352941,"",NA,"",NA,NA,NA,NA,NA,NA,NA,"","","",NA,"e",1,0.4188,0,51,51,72,1,"我们","e","",NA,NA,NA,NA,NA,NA,"",NA,"",NA,NA,NA,NA,NA,NA,NA,"",NA,"",NA,NA,NA,NA,NA,NA,NA,"","","",NA,"",NA,NA,NA,NA,NA,NA,NA,"",NA,"24"
"",NA,"",NA,"",NA,NA,NA,NA,NA,NA,NA,"","",1,1,"2024-08-24_15h42.57.918","IAT(Formal)","2021.2.3","Win32",58.82352941,"",NA,"",NA,NA,NA,NA,NA,NA,NA,"","","",NA,"e",1,0.5921,0,52,52,25,1,"细腻","e","",NA,NA,NA,NA,NA,NA,"",NA,"",NA,NA,NA,NA,NA,NA,NA,"",NA,"",NA,NA,NA,NA,NA,NA,NA,"","","",NA,"",NA,NA,NA,NA,NA,NA,NA,"",NA,"24"
"",NA,"",NA,"",NA,NA,NA,NA,NA,NA,NA,"","",1,1,"2024-08-24_15h42.57.918","IAT(Formal)","2021.2.3","Win32",58.82352941,"",NA,"",NA,NA,NA,NA,NA,NA,NA,"","","",NA,"i",1,0.5075,0,53,53,46,1,"野蛮","i","",NA,NA,NA,NA,NA,NA,"",NA,"",NA,NA,NA,NA,NA,NA,NA,"",NA,"",NA,NA,NA,NA,NA,NA,NA,"","","",NA,"",NA,NA,NA,NA,NA,NA,NA,"",NA,"24"
"",NA,"",NA,"",NA,NA,NA,NA,NA,NA,NA,"","",1,1,"2024-08-24_15h42.57.918","IAT(Formal)","2021.2.3","Win32",58.82352941,"",NA,"",NA,NA,NA,NA,NA,NA,NA,"","","",NA,"e",1,0.4549,0,54,54,3,1,"自己","e","",NA,NA,NA,NA,NA,NA,"",NA,"",NA,NA,NA,NA,NA,NA,NA,"",NA,"",NA,NA,NA,NA,NA,NA,NA,"","","",NA,"",NA,NA,NA,NA,NA,NA,NA,"",NA,"24"
"",NA,"",NA,"",NA,NA,NA,NA,NA,NA,NA,"","",1,1,"2024-08-24_15h42.57.918","IAT(Formal)","2021.2.3","Win32",58.82352941,"",NA,"",NA,NA,NA,NA,NA,NA,NA,"","","",NA,"e",1,0.3214,0,55,55,0,1,"我","e","",NA,NA,NA,NA,NA,NA,"",NA,"",NA,NA,NA,NA,NA,NA,NA,"",NA,"",NA,NA,NA,NA,NA,NA,NA,"","","",NA,"",NA,NA,NA,NA,NA,NA,NA,"",NA,"24"
"",NA,"",NA,"",NA,NA,NA,NA,NA,NA,NA,"","",1,1,"2024-08-24_15h42.57.918","IAT(Formal)","2021.2.3","Win32",58.82352941,"",NA,"",NA,NA,NA,NA,NA,NA,NA,"","","",NA,"i",1,0.3625,0,56,56,59,1,"其他","i","",NA,NA,NA,NA,NA,NA,"",NA,"",NA,NA,NA,NA,NA,NA,NA,"",NA,"",NA,NA,NA,NA,NA,NA,NA,"","","",NA,"",NA,NA,NA,NA,NA,NA,NA,"",NA,"24"
"",NA,"",NA,"",NA,NA,NA,NA,NA,NA,NA,"","",1,1,"2024-08-24_15h42.57.918","IAT(Formal)","2021.2.3","Win32",58.82352941,"",NA,"",NA,NA,NA,NA,NA,NA,NA,"","","",NA,"i",1,0.4465,0,57,57,65,1,"他","i","",NA,NA,NA,NA,NA,NA,"",NA,"",NA,NA,NA,NA,NA,NA,NA,"",NA,"",NA,NA,NA,NA,NA,NA,NA,"","","",NA,"",NA,NA,NA,NA,NA,NA,NA,"",NA,"24"
"",NA,"",NA,"",NA,NA,NA,NA,NA,NA,NA,"","",1,1,"2024-08-24_15h42.57.918","IAT(Formal)","2021.2.3","Win32",58.82352941,"",NA,"",NA,NA,NA,NA,NA,NA,NA,"","","",NA,"i",1,0.3579,0,58,58,67,1,"他的","i","",NA,NA,NA,NA,NA,NA,"",NA,"",NA,NA,NA,NA,NA,NA,NA,"",NA,"",NA,NA,NA,NA,NA,NA,NA,"","","",NA,"",NA,NA,NA,NA,NA,NA,NA,"",NA,"24"
"",NA,"",NA,"",NA,NA,NA,NA,NA,NA,NA,"","",1,1,"2024-08-24_15h42.57.918","IAT(Formal)","2021.2.3","Win32",58.82352941,"",NA,"",NA,NA,NA,NA,NA,NA,NA,"","","",NA,"i",0,0.3456,0,59,59,52,1,"我们","e","",NA,NA,NA,NA,NA,NA,"",NA,"",NA,NA,NA,NA,NA,NA,NA,"",NA,"",NA,NA,NA,NA,NA,NA,NA,"","","",NA,"",NA,NA,NA,NA,NA,NA,NA,"",NA,"24"
"",NA,"",NA,"",NA,NA,NA,NA,NA,NA,NA,"","",1,1,"2024-08-24_15h42.57.918","IAT(Formal)","2021.2.3","Win32",58.82352941,"",NA,"",NA,NA,NA,NA,NA,NA,NA,"","","",NA,"e",1,0.5877,0,60,60,18,1,"勤奋","e","",NA,NA,NA,NA,NA,NA,"",NA,"",NA,NA,NA,NA,NA,NA,NA,"",NA,"",NA,NA,NA,NA,NA,NA,NA,"","","",NA,"",NA,NA,NA,NA,NA,NA,NA,"",NA,"24"
"",NA,"",NA,"",NA,NA,NA,NA,NA,NA,NA,"","",1,1,"2024-08-24_15h42.57.918","IAT(Formal)","2021.2.3","Win32",58.82352941,"",NA,"",NA,NA,NA,NA,NA,NA,NA,"","","",NA,"i",1,0.6278,0,61,61,56,1,"他们","i","",NA,NA,NA,NA,NA,NA,"",NA,"",NA,NA,NA,NA,NA,NA,NA,"",NA,"",NA,NA,NA,NA,NA,NA,NA,"","","",NA,"",NA,NA,NA,NA,NA,NA,NA,"",NA,"24"
"",NA,"",NA,"",NA,NA,NA,NA,NA,NA,NA,"","",1,1,"2024-08-24_15h42.57.918","IAT(Formal)","2021.2.3","Win32",58.82352941,"",NA,"",NA,NA,NA,NA,NA,NA,NA,"","","",NA,"e",1,0.3889,0,62,62,1,1,"我的","e","",NA,NA,NA,NA,NA,NA,"",NA,"",NA,NA,NA,NA,NA,NA,NA,"",NA,"",NA,NA,NA,NA,NA,NA,NA,"","","",NA,"",NA,NA,NA,NA,NA,NA,NA,"",NA,"24"
"",NA,"",NA,"",NA,NA,NA,NA,NA,NA,NA,"","",1,1,"2024-08-24_15h42.57.918","IAT(Formal)","2021.2.3","Win32",58.82352941,"",NA,"",NA,NA,NA,NA,NA,NA,NA,"","","",NA,"e",1,0.3682,0,63,63,70,1,"我","e","",NA,NA,NA,NA,NA,NA,"",NA,"",NA,NA,NA,NA,NA,NA,NA,"",NA,"",NA,NA,NA,NA,NA,NA,NA,"","","",NA,"",NA,NA,NA,NA,NA,NA,NA,"",NA,"24"
"",NA,"",NA,"",NA,NA,NA,NA,NA,NA,NA,"","",1,1,"2024-08-24_15h42.57.918","IAT(Formal)","2021.2.3","Win32",58.82352941,"",NA,"",NA,NA,NA,NA,NA,NA,NA,"","","",NA,"i",1,0.5506,0,64,64,78,1,"他人","i","",NA,NA,NA,NA,NA,NA,"",NA,"",NA,NA,NA,NA,NA,NA,NA,"",NA,"",NA,NA,NA,NA,NA,NA,NA,"","","",NA,"",NA,NA,NA,NA,NA,NA,NA,"",NA,"24"
"",NA,"",NA,"",NA,NA,NA,NA,NA,NA,NA,"","",1,1,"2024-08-24_15h42.57.918","IAT(Formal)","2021.2.3","Win32",58.82352941,"",NA,"",NA,NA,NA,NA,NA,NA,NA,"","","",NA,"i",1,1.1693,0,65,65,43,1,"自私","i","",NA,NA,NA,NA,NA,NA,"",NA,"",NA,NA,NA,NA,NA,NA,NA,"",NA,"",NA,NA,NA,NA,NA,NA,NA,"","","",NA,"",NA,NA,NA,NA,NA,NA,NA,"",NA,"24"
"",NA,"",NA,"",NA,NA,NA,NA,NA,NA,NA,"","",1,1,"2024-08-24_15h42.57.918","IAT(Formal)","2021.2.3","Win32",58.82352941,"",NA,"",NA,NA,NA,NA,NA,NA,NA,"","","",NA,"e",1,0.9109,0,66,66,12,1,"聪明","e","",NA,NA,NA,NA,NA,NA,"",NA,"",NA,NA,NA,NA,NA,NA,NA,"",NA,"",NA,NA,NA,NA,NA,NA,NA,"","","",NA,"",NA,NA,NA,NA,NA,NA,NA,"",NA,"24"
"",NA,"",NA,"",NA,NA,NA,NA,NA,NA,NA,"","",1,1,"2024-08-24_15h42.57.918","IAT(Formal)","2021.2.3","Win32",58.82352941,"",NA,"",NA,NA,NA,NA,NA,NA,NA,"","","",NA,"e",1,0.4841,0,67,67,54,1,"俺","e","",NA,NA,NA,NA,NA,NA,"",NA,"",NA,NA,NA,NA,NA,NA,NA,"",NA,"",NA,NA,NA,NA,NA,NA,NA,"","","",NA,"",NA,NA,NA,NA,NA,NA,NA,"",NA,"24"
"",NA,"",NA,"",NA,NA,NA,NA,NA,NA,NA,"","",1,1,"2024-08-24_15h42.57.918","IAT(Formal)","2021.2.3","Win32",58.82352941,"",NA,"",NA,NA,NA,NA,NA,NA,NA,"","","",NA,"i",1,0.62,0,68,68,79,1,"其他","i","",NA,NA,NA,NA,NA,NA,"",NA,"",NA,NA,NA,NA,NA,NA,NA,"",NA,"",NA,NA,NA,NA,NA,NA,NA,"","","",NA,"",NA,NA,NA,NA,NA,NA,NA,"",NA,"24"
"",NA,"",NA,"",NA,NA,NA,NA,NA,NA,NA,"","",1,1,"2024-08-24_15h42.57.918","IAT(Formal)","2021.2.3","Win32",58.82352941,"",NA,"",NA,NA,NA,NA,NA,NA,NA,"","","",NA,"e",1,0.5219,0,69,69,17,1,"勇敢","e","",NA,NA,NA,NA,NA,NA,"",NA,"",NA,NA,NA,NA,NA,NA,NA,"",NA,"",NA,NA,NA,NA,NA,NA,NA,"","","",NA,"",NA,NA,NA,NA,NA,NA,NA,"",NA,"24"
"",NA,"",NA,"",NA,NA,NA,NA,NA,NA,NA,"","",1,1,"2024-08-24_15h42.57.918","IAT(Formal)","2021.2.3","Win32",58.82352941,"",NA,"",NA,NA,NA,NA,NA,NA,NA,"","","",NA,"i",1,0.8893,0,70,70,37,1,"傲慢","i","",NA,NA,NA,NA,NA,NA,"",NA,"",NA,NA,NA,NA,NA,NA,NA,"",NA,"",NA,NA,NA,NA,NA,NA,NA,"","","",NA,"",NA,NA,NA,NA,NA,NA,NA,"",NA,"24"
"",NA,"",NA,"",NA,NA,NA,NA,NA,NA,NA,"","",1,1,"2024-08-24_15h42.57.918","IAT(Formal)","2021.2.3","Win32",58.82352941,"",NA,"",NA,NA,NA,NA,NA,NA,NA,"","","",NA,"i",1,0.5075,0,71,71,32,1,"愚蠢","i","",NA,NA,NA,NA,NA,NA,"",NA,"",NA,NA,NA,NA,NA,NA,NA,"",NA,"",NA,NA,NA,NA,NA,NA,NA,"","","",NA,"",NA,NA,NA,NA,NA,NA,NA,"",NA,"24"
"",NA,"",NA,"",NA,NA,NA,NA,NA,NA,NA,"","",1,1,"2024-08-24_15h42.57.918","IAT(Formal)","2021.2.3","Win32",58.82352941,"",NA,"",NA,NA,NA,NA,NA,NA,NA,"","","",NA,"e",1,0.8265,0,72,72,71,1,"我的","e","",NA,NA,NA,NA,NA,NA,"",NA,"",NA,NA,NA,NA,NA,NA,NA,"",NA,"",NA,NA,NA,NA,NA,NA,NA,"","","",NA,"",NA,NA,NA,NA,NA,NA,NA,"",NA,"24"
"",NA,"",NA,"",NA,NA,NA,NA,NA,NA,NA,"","",1,1,"2024-08-24_15h42.57.918","IAT(Formal)","2021.2.3","Win32",58.82352941,"",NA,"",NA,NA,NA,NA,NA,NA,NA,"","","",NA,"i",1,0.4836,0,73,73,41,1,"散漫","i","",NA,NA,NA,NA,NA,NA,"",NA,"",NA,NA,NA,NA,NA,NA,NA,"",NA,"",NA,NA,NA,NA,NA,NA,NA,"","","",NA,"",NA,NA,NA,NA,NA,NA,NA,"",NA,"24"
"",NA,"",NA,"",NA,NA,NA,NA,NA,NA,NA,"","",1,1,"2024-08-24_15h42.57.918","IAT(Formal)","2021.2.3","Win32",58.82352941,"",NA,"",NA,NA,NA,NA,NA,NA,NA,"","","",NA,"e",1,0.4362,0,74,74,60,1,"我","e","",NA,NA,NA,NA,NA,NA,"",NA,"",NA,NA,NA,NA,NA,NA,NA,"",NA,"",NA,NA,NA,NA,NA,NA,NA,"","","",NA,"",NA,NA,NA,NA,NA,NA,NA,"",NA,"24"
"",NA,"",NA,"",NA,NA,NA,NA,NA,NA,NA,"","",1,1,"2024-08-24_15h42.57.918","IAT(Formal)","2021.2.3","Win32",58.82352941,"",NA,"",NA,NA,NA,NA,NA,NA,NA,"","","",NA,"i",0,0.4926,0,75,75,11,1,"崇高","e","",NA,NA,NA,NA,NA,NA,"",NA,"",NA,NA,NA,NA,NA,NA,NA,"",NA,"",NA,NA,NA,NA,NA,NA,NA,"","","",NA,"",NA,NA,NA,NA,NA,NA,NA,"",NA,"24"
"",NA,"",NA,"",NA,NA,NA,NA,NA,NA,NA,"","",1,1,"2024-08-24_15h42.57.918","IAT(Formal)","2021.2.3","Win32",58.82352941,"",NA,"",NA,NA,NA,NA,NA,NA,NA,"","","",NA,"e",1,0.5931,0,76,76,63,1,"自己","e","",NA,NA,NA,NA,NA,NA,"",NA,"",NA,NA,NA,NA,NA,NA,NA,"",NA,"",NA,NA,NA,NA,NA,NA,NA,"","","",NA,"",NA,NA,NA,NA,NA,NA,NA,"",NA,"24"
"",NA,"",NA,"",NA,NA,NA,NA,NA,NA,NA,"","",1,1,"2024-08-24_15h42.57.918","IAT(Formal)","2021.2.3","Win32",58.82352941,"",NA,"",NA,NA,NA,NA,NA,NA,NA,"","","",NA,"e",1,0.651,0,77,77,28,1,"活泼","e","",NA,NA,NA,NA,NA,NA,"",NA,"",NA,NA,NA,NA,NA,NA,NA,"",NA,"",NA,NA,NA,NA,NA,NA,NA,"","","",NA,"",NA,NA,NA,NA,NA,NA,NA,"",NA,"24"
"",NA,"",NA,"",NA,NA,NA,NA,NA,NA,NA,"","",1,1,"2024-08-24_15h42.57.918","IAT(Formal)","2021.2.3","Win32",58.82352941,"",NA,"",NA,NA,NA,NA,NA,NA,NA,"","","",NA,"i",1,0.4741,0,78,78,69,1,"其他","i","",NA,NA,NA,NA,NA,NA,"",NA,"",NA,NA,NA,NA,NA,NA,NA,"",NA,"",NA,NA,NA,NA,NA,NA,NA,"","","",NA,"",NA,NA,NA,NA,NA,NA,NA,"",NA,"24"
"",NA,"",NA,"",NA,NA,NA,NA,NA,NA,NA,"","",1,1,"2024-08-24_15h42.57.918","IAT(Formal)","2021.2.3","Win32",58.82352941,"",NA,"",NA,NA,NA,NA,NA,NA,NA,"","","",NA,"i",1,0.6105,0,79,79,31,1,"虚伪","i","",NA,NA,NA,NA,NA,NA,"",NA,"",NA,NA,NA,NA,NA,NA,NA,"",NA,"",NA,NA,NA,NA,NA,NA,NA,"","","",NA,"",NA,NA,NA,NA,NA,NA,NA,"",NA,"24"
"",NA,"",NA,"",NA,NA,NA,NA,NA,NA,NA,"","",1,1,"2024-08-24_15h42.57.918","IAT(Formal)","2021.2.3","Win32",58.82352941,"",NA,"",NA,NA,NA,NA,NA,NA,NA,"","","",NA,"i",1,0.6693,NA,NA,NA,NA,NA,"他人","i","space",28.1432,0,0,0,58,1,"",NA,"",NA,NA,NA,NA,NA,NA,NA,"",NA,"",NA,NA,NA,NA,NA,NA,NA,"","","",NA,"",NA,NA,NA,NA,NA,NA,NA,"",NA,"24"
"",NA,"",NA,"",NA,NA,NA,NA,NA,NA,NA,"","",1,1,"2024-08-24_15h42.57.918","IAT(Formal)","2021.2.3","Win32",58.82352941,"",NA,"",NA,NA,NA,NA,NA,NA,NA,"","","",NA,"e",1,0.5203,NA,NA,NA,NA,NA,"认真","e","",NA,0,1,1,20,1,"",NA,"",NA,NA,NA,NA,NA,NA,NA,"",NA,"",NA,NA,NA,NA,NA,NA,NA,"","","",NA,"",NA,NA,NA,NA,NA,NA,NA,"",NA,"24"
"",NA,"",NA,"",NA,NA,NA,NA,NA,NA,NA,"","",1,1,"2024-08-24_15h42.57.918","IAT(Formal)","2021.2.3","Win32",58.82352941,"",NA,"",NA,NA,NA,NA,NA,NA,NA,"","","",NA,"i",1,0.5057,NA,NA,NA,NA,NA,"野蛮","i","",NA,0,2,2,46,1,"",NA,"",NA,NA,NA,NA,NA,NA,NA,"",NA,"",NA,NA,NA,NA,NA,NA,NA,"","","",NA,"",NA,NA,NA,NA,NA,NA,NA,"",NA,"24"
"",NA,"",NA,"",NA,NA,NA,NA,NA,NA,NA,"","",1,1,"2024-08-24_15h42.57.918","IAT(Formal)","2021.2.3","Win32",58.82352941,"",NA,"",NA,NA,NA,NA,NA,NA,NA,"","","",NA,"e",1,0.4996,NA,NA,NA,NA,NA,"正直","e","",NA,0,3,3,16,1,"",NA,"",NA,NA,NA,NA,NA,NA,NA,"",NA,"",NA,NA,NA,NA,NA,NA,NA,"","","",NA,"",NA,NA,NA,NA,NA,NA,NA,"",NA,"24"
"",NA,"",NA,"",NA,NA,NA,NA,NA,NA,NA,"","",1,1,"2024-08-24_15h42.57.918","IAT(Formal)","2021.2.3","Win32",58.82352941,"",NA,"",NA,NA,NA,NA,NA,NA,NA,"","","",NA,"i",1,0.4398,NA,NA,NA,NA,NA,"他的","i","",NA,0,4,4,7,1,"",NA,"",NA,NA,NA,NA,NA,NA,NA,"",NA,"",NA,NA,NA,NA,NA,NA,NA,"","","",NA,"",NA,NA,NA,NA,NA,NA,NA,"",NA,"24"
"",NA,"",NA,"",NA,NA,NA,NA,NA,NA,NA,"","",1,1,"2024-08-24_15h42.57.918","IAT(Formal)","2021.2.3","Win32",58.82352941,"",NA,"",NA,NA,NA,NA,NA,NA,NA,"","","",NA,"i",1,0.6,NA,NA,NA,NA,NA,"卑鄙","i","",NA,0,5,5,30,1,"",NA,"",NA,NA,NA,NA,NA,NA,NA,"",NA,"",NA,NA,NA,NA,NA,NA,NA,"","","",NA,"",NA,NA,NA,NA,NA,NA,NA,"",NA,"24"
"",NA,"",NA,"",NA,NA,NA,NA,NA,NA,NA,"","",1,1,"2024-08-24_15h42.57.918","IAT(Formal)","2021.2.3","Win32",58.82352941,"",NA,"",NA,NA,NA,NA,NA,NA,NA,"","","",NA,"i",1,0.4335,NA,NA,NA,NA,NA,"猖狂","i","",NA,0,6,6,45,1,"",NA,"",NA,NA,NA,NA,NA,NA,NA,"",NA,"",NA,NA,NA,NA,NA,NA,NA,"","","",NA,"",NA,NA,NA,NA,NA,NA,NA,"",NA,"24"
"",NA,"",NA,"",NA,NA,NA,NA,NA,NA,NA,"","",1,1,"2024-08-24_15h42.57.918","IAT(Formal)","2021.2.3","Win32",58.82352941,"",NA,"",NA,NA,NA,NA,NA,NA,NA,"","","",NA,"i",1,0.4006,NA,NA,NA,NA,NA,"他们","i","",NA,0,7,7,66,1,"",NA,"",NA,NA,NA,NA,NA,NA,NA,"",NA,"",NA,NA,NA,NA,NA,NA,NA,"","","",NA,"",NA,NA,NA,NA,NA,NA,NA,"",NA,"24"
"",NA,"",NA,"",NA,NA,NA,NA,NA,NA,NA,"","",1,1,"2024-08-24_15h42.57.918","IAT(Formal)","2021.2.3","Win32",58.82352941,"",NA,"",NA,NA,NA,NA,NA,NA,NA,"","","",NA,"e",1,0.502,NA,NA,NA,NA,NA,"勤奋","e","",NA,0,8,8,18,1,"",NA,"",NA,NA,NA,NA,NA,NA,NA,"",NA,"",NA,NA,NA,NA,NA,NA,NA,"","","",NA,"",NA,NA,NA,NA,NA,NA,NA,"",NA,"24"
"",NA,"",NA,"",NA,NA,NA,NA,NA,NA,NA,"","",1,1,"2024-08-24_15h42.57.918","IAT(Formal)","2021.2.3","Win32",58.82352941,"",NA,"",NA,NA,NA,NA,NA,NA,NA,"","","",NA,"i",1,0.4024,NA,NA,NA,NA,NA,"其他","i","",NA,0,9,9,9,1,"",NA,"",NA,NA,NA,NA,NA,NA,NA,"",NA,"",NA,NA,NA,NA,NA,NA,NA,"","","",NA,"",NA,NA,NA,NA,NA,NA,NA,"",NA,"24"
"",NA,"",NA,"",NA,NA,NA,NA,NA,NA,NA,"","",1,1,"2024-08-24_15h42.57.918","IAT(Formal)","2021.2.3","Win32",58.82352941,"",NA,"",NA,NA,NA,NA,NA,NA,NA,"","","",NA,"e",1,0.3509,NA,NA,NA,NA,NA,"我的","e","",NA,0,10,10,51,1,"",NA,"",NA,NA,NA,NA,NA,NA,NA,"",NA,"",NA,NA,NA,NA,NA,NA,NA,"","","",NA,"",NA,NA,NA,NA,NA,NA,NA,"",NA,"24"
"",NA,"",NA,"",NA,NA,NA,NA,NA,NA,NA,"","",1,1,"2024-08-24_15h42.57.918","IAT(Formal)","2021.2.3","Win32",58.82352941,"",NA,"",NA,NA,NA,NA,NA,NA,NA,"","","",NA,"e",1,0.4669,NA,NA,NA,NA,NA,"杰出","e","",NA,0,11,11,13,1,"",NA,"",NA,NA,NA,NA,NA,NA,NA,"",NA,"",NA,NA,NA,NA,NA,NA,NA,"","","",NA,"",NA,NA,NA,NA,NA,NA,NA,"",NA,"24"
"",NA,"",NA,"",NA,NA,NA,NA,NA,NA,NA,"","",1,1,"2024-08-24_15h42.57.918","IAT(Formal)","2021.2.3","Win32",58.82352941,"",NA,"",NA,NA,NA,NA,NA,NA,NA,"","","",NA,"i",1,0.3695,NA,NA,NA,NA,NA,"他们","i","",NA,0,12,12,6,1,"",NA,"",NA,NA,NA,NA,NA,NA,NA,"",NA,"",NA,NA,NA,NA,NA,NA,NA,"","","",NA,"",NA,NA,NA,NA,NA,NA,NA,"",NA,"24"
"",NA,"",NA,"",NA,NA,NA,NA,NA,NA,NA,"","",1,1,"2024-08-24_15h42.57.918","IAT(Formal)","2021.2.3","Win32",58.82352941,"",NA,"",NA,NA,NA,NA,NA,NA,NA,"","","",NA,"i",1,0.4851,NA,NA,NA,NA,NA,"其他","i","",NA,0,13,13,79,1,"",NA,"",NA,NA,NA,NA,NA,NA,NA,"",NA,"",NA,NA,NA,NA,NA,NA,NA,"","","",NA,"",NA,NA,NA,NA,NA,NA,NA,"",NA,"24"
"",NA,"",NA,"",NA,NA,NA,NA,NA,NA,NA,"","",1,1,"2024-08-24_15h42.57.918","IAT(Formal)","2021.2.3","Win32",58.82352941,"",NA,"",NA,NA,NA,NA,NA,NA,NA,"","","",NA,"e",1,0.468,NA,NA,NA,NA,NA,"聪明","e","",NA,0,14,14,12,1,"",NA,"",NA,NA,NA,NA,NA,NA,NA,"",NA,"",NA,NA,NA,NA,NA,NA,NA,"","","",NA,"",NA,NA,NA,NA,NA,NA,NA,"",NA,"24"
"",NA,"",NA,"",NA,NA,NA,NA,NA,NA,NA,"","",1,1,"2024-08-24_15h42.57.918","IAT(Formal)","2021.2.3","Win32",58.82352941,"",NA,"",NA,NA,NA,NA,NA,NA,NA,"","","",NA,"e",1,0.4138,NA,NA,NA,NA,NA,"诚恳","e","",NA,0,15,15,29,1,"",NA,"",NA,NA,NA,NA,NA,NA,NA,"",NA,"",NA,NA,NA,NA,NA,NA,NA,"","","",NA,"",NA,NA,NA,NA,NA,NA,NA,"",NA,"24"
"",NA,"",NA,"",NA,NA,NA,NA,NA,NA,NA,"","",1,1,"2024-08-24_15h42.57.918","IAT(Formal)","2021.2.3","Win32",58.82352941,"",NA,"",NA,NA,NA,NA,NA,NA,NA,"","","",NA,"e",1,0.4748,NA,NA,NA,NA,NA,"我","e","",NA,0,16,16,70,1,"",NA,"",NA,NA,NA,NA,NA,NA,NA,"",NA,"",NA,NA,NA,NA,NA,NA,NA,"","","",NA,"",NA,NA,NA,NA,NA,NA,NA,"",NA,"24"
"",NA,"",NA,"",NA,NA,NA,NA,NA,NA,NA,"","",1,1,"2024-08-24_15h42.57.918","IAT(Formal)","2021.2.3","Win32",58.82352941,"",NA,"",NA,NA,NA,NA,NA,NA,NA,"","","",NA,"e",1,0.4756,NA,NA,NA,NA,NA,"自己","e","",NA,0,17,17,53,1,"",NA,"",NA,NA,NA,NA,NA,NA,NA,"",NA,"",NA,NA,NA,NA,NA,NA,NA,"","","",NA,"",NA,NA,NA,NA,NA,NA,NA,"",NA,"24"
"",NA,"",NA,"",NA,NA,NA,NA,NA,NA,NA,"","",1,1,"2024-08-24_15h42.57.918","IAT(Formal)","2021.2.3","Win32",58.82352941,"",NA,"",NA,NA,NA,NA,NA,NA,NA,"","","",NA,"e",1,0.5366,NA,NA,NA,NA,NA,"公正","e","",NA,0,18,18,23,1,"",NA,"",NA,NA,NA,NA,NA,NA,NA,"",NA,"",NA,NA,NA,NA,NA,NA,NA,"","","",NA,"",NA,NA,NA,NA,NA,NA,NA,"",NA,"24"
"",NA,"",NA,"",NA,NA,NA,NA,NA,NA,NA,"","",1,1,"2024-08-24_15h42.57.918","IAT(Formal)","2021.2.3","Win32",58.82352941,"",NA,"",NA,NA,NA,NA,NA,NA,NA,"","","",NA,"e",1,0.468,NA,NA,NA,NA,NA,"细腻","e","",NA,0,19,19,25,1,"",NA,"",NA,NA,NA,NA,NA,NA,NA,"",NA,"",NA,NA,NA,NA,NA,NA,NA,"","","",NA,"",NA,NA,NA,NA,NA,NA,NA,"",NA,"24"
"",NA,"",NA,"",NA,NA,NA,NA,NA,NA,NA,"","",1,1,"2024-08-24_15h42.57.918","IAT(Formal)","2021.2.3","Win32",58.82352941,"",NA,"",NA,NA,NA,NA,NA,NA,NA,"","","",NA,"e",1,0.4491,NA,NA,NA,NA,NA,"我","e","",NA,0,20,20,50,1,"",NA,"",NA,NA,NA,NA,NA,NA,NA,"",NA,"",NA,NA,NA,NA,NA,NA,NA,"","","",NA,"",NA,NA,NA,NA,NA,NA,NA,"",NA,"24"
"",NA,"",NA,"",NA,NA,NA,NA,NA,NA,NA,"","",1,1,"2024-08-24_15h42.57.918","IAT(Formal)","2021.2.3","Win32",58.82352941,"",NA,"",NA,NA,NA,NA,NA,NA,NA,"","","",NA,"i",1,0.552,NA,NA,NA,NA,NA,"轻率","i","",NA,0,21,21,48,1,"",NA,"",NA,NA,NA,NA,NA,NA,NA,"",NA,"",NA,NA,NA,NA,NA,NA,NA,"","","",NA,"",NA,NA,NA,NA,NA,NA,NA,"",NA,"24"
"",NA,"",NA,"",NA,NA,NA,NA,NA,NA,NA,"","",1,1,"2024-08-24_15h42.57.918","IAT(Formal)","2021.2.3","Win32",58.82352941,"",NA,"",NA,NA,NA,NA,NA,NA,NA,"","","",NA,"e",1,0.5482,NA,NA,NA,NA,NA,"机智","e","",NA,0,22,22,19,1,"",NA,"",NA,NA,NA,NA,NA,NA,NA,"",NA,"",NA,NA,NA,NA,NA,NA,NA,"","","",NA,"",NA,NA,NA,NA,NA,NA,NA,"",NA,"24"
"",NA,"",NA,"",NA,NA,NA,NA,NA,NA,NA,"","",1,1,"2024-08-24_15h42.57.918","IAT(Formal)","2021.2.3","Win32",58.82352941,"",NA,"",NA,NA,NA,NA,NA,NA,NA,"","","",NA,"e",1,0.4507,NA,NA,NA,NA,NA,"俺","e","",NA,0,23,23,74,1,"",NA,"",NA,NA,NA,NA,NA,NA,NA,"",NA,"",NA,NA,NA,NA,NA,NA,NA,"","","",NA,"",NA,NA,NA,NA,NA,NA,NA,"",NA,"24"
"",NA,"",NA,"",NA,NA,NA,NA,NA,NA,NA,"","",1,1,"2024-08-24_15h42.57.918","IAT(Formal)","2021.2.3","Win32",58.82352941,"",NA,"",NA,NA,NA,NA,NA,NA,NA,"","","",NA,"e",1,0.4207,NA,NA,NA,NA,NA,"自己","e","",NA,0,24,24,63,1,"",NA,"",NA,NA,NA,NA,NA,NA,NA,"",NA,"",NA,NA,NA,NA,NA,NA,NA,"","","",NA,"",NA,NA,NA,NA,NA,NA,NA,"",NA,"24"
"",NA,"",NA,"",NA,NA,NA,NA,NA,NA,NA,"","",1,1,"2024-08-24_15h42.57.918","IAT(Formal)","2021.2.3","Win32",58.82352941,"",NA,"",NA,NA,NA,NA,NA,NA,NA,"","","",NA,"i",1,0.4406,NA,NA,NA,NA,NA,"虚伪","i","",NA,0,25,25,31,1,"",NA,"",NA,NA,NA,NA,NA,NA,NA,"",NA,"",NA,NA,NA,NA,NA,NA,NA,"","","",NA,"",NA,NA,NA,NA,NA,NA,NA,"",NA,"24"
"",NA,"",NA,"",NA,NA,NA,NA,NA,NA,NA,"","",1,1,"2024-08-24_15h42.57.918","IAT(Formal)","2021.2.3","Win32",58.82352941,"",NA,"",NA,NA,NA,NA,NA,NA,NA,"","","",NA,"e",1,0.5057,NA,NA,NA,NA,NA,"热情","e","",NA,0,26,26,27,1,"",NA,"",NA,NA,NA,NA,NA,NA,NA,"",NA,"",NA,NA,NA,NA,NA,NA,NA,"","","",NA,"",NA,NA,NA,NA,NA,NA,NA,"",NA,"24"
"",NA,"",NA,"",NA,NA,NA,NA,NA,NA,NA,"","",1,1,"2024-08-24_15h42.57.918","IAT(Formal)","2021.2.3","Win32",58.82352941,"",NA,"",NA,NA,NA,NA,NA,NA,NA,"","","",NA,"e",1,0.6909,NA,NA,NA,NA,NA,"勇敢","e","",NA,0,27,27,17,1,"",NA,"",NA,NA,NA,NA,NA,NA,NA,"",NA,"",NA,NA,NA,NA,NA,NA,NA,"","","",NA,"",NA,NA,NA,NA,NA,NA,NA,"",NA,"24"
"",NA,"",NA,"",NA,NA,NA,NA,NA,NA,NA,"","",1,1,"2024-08-24_15h42.57.918","IAT(Formal)","2021.2.3","Win32",58.82352941,"",NA,"",NA,NA,NA,NA,NA,NA,NA,"","","",NA,"i",1,0.5579,NA,NA,NA,NA,NA,"消极","i","",NA,0,28,28,35,1,"",NA,"",NA,NA,NA,NA,NA,NA,NA,"",NA,"",NA,NA,NA,NA,NA,NA,NA,"","","",NA,"",NA,NA,NA,NA,NA,NA,NA,"",NA,"24"
"",NA,"",NA,"",NA,NA,NA,NA,NA,NA,NA,"","",1,1,"2024-08-24_15h42.57.918","IAT(Formal)","2021.2.3","Win32",58.82352941,"",NA,"",NA,NA,NA,NA,NA,NA,NA,"","","",NA,"e",1,0.4422,NA,NA,NA,NA,NA,"自己","e","",NA,0,29,29,73,1,"",NA,"",NA,NA,NA,NA,NA,NA,NA,"",NA,"",NA,NA,NA,NA,NA,NA,NA,"","","",NA,"",NA,NA,NA,NA,NA,NA,NA,"",NA,"24"
"",NA,"",NA,"",NA,NA,NA,NA,NA,NA,NA,"","",1,1,"2024-08-24_15h42.57.918","IAT(Formal)","2021.2.3","Win32",58.82352941,"",NA,"",NA,NA,NA,NA,NA,NA,NA,"","","",NA,"i",1,0.55,NA,NA,NA,NA,NA,"他","i","",NA,0,30,30,75,1,"",NA,"",NA,NA,NA,NA,NA,NA,NA,"",NA,"",NA,NA,NA,NA,NA,NA,NA,"","","",NA,"",NA,NA,NA,NA,NA,NA,NA,"",NA,"24"
"",NA,"",NA,"",NA,NA,NA,NA,NA,NA,NA,"","",1,1,"2024-08-24_15h42.57.918","IAT(Formal)","2021.2.3","Win32",58.82352941,"",NA,"",NA,NA,NA,NA,NA,NA,NA,"","","",NA,"e",1,0.7177,NA,NA,NA,NA,NA,"我们","e","",NA,0,31,31,2,1,"",NA,"",NA,NA,NA,NA,NA,NA,NA,"",NA,"",NA,NA,NA,NA,NA,NA,NA,"","","",NA,"",NA,NA,NA,NA,NA,NA,NA,"",NA,"24"
"",NA,"",NA,"",NA,NA,NA,NA,NA,NA,NA,"","",1,1,"2024-08-24_15h42.57.918","IAT(Formal)","2021.2.3","Win32",58.82352941,"",NA,"",NA,NA,NA,NA,NA,NA,NA,"","","",NA,"i",1,0.5074,NA,NA,NA,NA,NA,"他的","i","",NA,0,32,32,57,1,"",NA,"",NA,NA,NA,NA,NA,NA,NA,"",NA,"",NA,NA,NA,NA,NA,NA,NA,"","","",NA,"",NA,NA,NA,NA,NA,NA,NA,"",NA,"24"
"",NA,"",NA,"",NA,NA,NA,NA,NA,NA,NA,"","",1,1,"2024-08-24_15h42.57.918","IAT(Formal)","2021.2.3","Win32",58.82352941,"",NA,"",NA,NA,NA,NA,NA,NA,NA,"","","",NA,"i",1,0.6334,NA,NA,NA,NA,NA,"固执","i","",NA,0,33,33,47,1,"",NA,"",NA,NA,NA,NA,NA,NA,NA,"",NA,"",NA,NA,NA,NA,NA,NA,NA,"","","",NA,"",NA,NA,NA,NA,NA,NA,NA,"",NA,"24"
"",NA,"",NA,"",NA,NA,NA,NA,NA,NA,NA,"","",1,1,"2024-08-24_15h42.57.918","IAT(Formal)","2021.2.3","Win32",58.82352941,"",NA,"",NA,NA,NA,NA,NA,NA,NA,"","","",NA,"e",1,0.4099,NA,NA,NA,NA,NA,"我的","e","",NA,0,34,34,61,1,"",NA,"",NA,NA,NA,NA,NA,NA,NA,"",NA,"",NA,NA,NA,NA,NA,NA,NA,"","","",NA,"",NA,NA,NA,NA,NA,NA,NA,"",NA,"24"
"",NA,"",NA,"",NA,NA,NA,NA,NA,NA,NA,"","",1,1,"2024-08-24_15h42.57.918","IAT(Formal)","2021.2.3","Win32",58.82352941,"",NA,"",NA,NA,NA,NA,NA,NA,NA,"","","",NA,"e",1,0.4322,NA,NA,NA,NA,NA,"俺","e","",NA,0,35,35,4,1,"",NA,"",NA,NA,NA,NA,NA,NA,NA,"",NA,"",NA,NA,NA,NA,NA,NA,NA,"","","",NA,"",NA,NA,NA,NA,NA,NA,NA,"",NA,"24"
"",NA,"",NA,"",NA,NA,NA,NA,NA,NA,NA,"","",1,1,"2024-08-24_15h42.57.918","IAT(Formal)","2021.2.3","Win32",58.82352941,"",NA,"",NA,NA,NA,NA,NA,NA,NA,"","","",NA,"e",0,0.4694,NA,NA,NA,NA,NA,"自私","i","",NA,0,36,36,43,1,"",NA,"",NA,NA,NA,NA,NA,NA,NA,"",NA,"",NA,NA,NA,NA,NA,NA,NA,"","","",NA,"",NA,NA,NA,NA,NA,NA,NA,"",NA,"24"
"",NA,"",NA,"",NA,NA,NA,NA,NA,NA,NA,"","",1,1,"2024-08-24_15h42.57.918","IAT(Formal)","2021.2.3","Win32",58.82352941,"",NA,"",NA,NA,NA,NA,NA,NA,NA,"","","",NA,"i",1,0.5876,NA,NA,NA,NA,NA,"他","i","",NA,0,37,37,55,1,"",NA,"",NA,NA,NA,NA,NA,NA,NA,"",NA,"",NA,NA,NA,NA,NA,NA,NA,"","","",NA,"",NA,NA,NA,NA,NA,NA,NA,"",NA,"24"
"",NA,"",NA,"",NA,NA,NA,NA,NA,NA,NA,"","",1,1,"2024-08-24_15h42.57.918","IAT(Formal)","2021.2.3","Win32",58.82352941,"",NA,"",NA,NA,NA,NA,NA,NA,NA,"","","",NA,"i",1,0.5268,NA,NA,NA,NA,NA,"其他","i","",NA,0,38,38,69,1,"",NA,"",NA,NA,NA,NA,NA,NA,NA,"",NA,"",NA,NA,NA,NA,NA,NA,NA,"","","",NA,"",NA,NA,NA,NA,NA,NA,NA,"",NA,"24"
"",NA,"",NA,"",NA,NA,NA,NA,NA,NA,NA,"","",1,1,"2024-08-24_15h42.57.918","IAT(Formal)","2021.2.3","Win32",58.82352941,"",NA,"",NA,NA,NA,NA,NA,NA,NA,"","","",NA,"i",1,0.8132,NA,NA,NA,NA,NA,"下贱","i","",NA,0,39,39,49,1,"",NA,"",NA,NA,NA,NA,NA,NA,NA,"",NA,"",NA,NA,NA,NA,NA,NA,NA,"","","",NA,"",NA,NA,NA,NA,NA,NA,NA,"",NA,"24"
"",NA,"",NA,"",NA,NA,NA,NA,NA,NA,NA,"","",1,1,"2024-08-24_15h42.57.918","IAT(Formal)","2021.2.3","Win32",58.82352941,"",NA,"",NA,NA,NA,NA,NA,NA,NA,"","","",NA,"i",1,0.4824,NA,NA,NA,NA,NA,"凶狠","i","",NA,0,40,40,42,1,"",NA,"",NA,NA,NA,NA,NA,NA,NA,"",NA,"",NA,NA,NA,NA,NA,NA,NA,"","","",NA,"",NA,NA,NA,NA,NA,NA,NA,"",NA,"24"
"",NA,"",NA,"",NA,NA,NA,NA,NA,NA,NA,"","",1,1,"2024-08-24_15h42.57.918","IAT(Formal)","2021.2.3","Win32",58.82352941,"",NA,"",NA,NA,NA,NA,NA,NA,NA,"","","",NA,"i",1,0.5073,NA,NA,NA,NA,NA,"自卑","i","",NA,0,41,41,36,1,"",NA,"",NA,NA,NA,NA,NA,NA,NA,"",NA,"",NA,NA,NA,NA,NA,NA,NA,"","","",NA,"",NA,NA,NA,NA,NA,NA,NA,"",NA,"24"
"",NA,"",NA,"",NA,NA,NA,NA,NA,NA,NA,"","",1,1,"2024-08-24_15h42.57.918","IAT(Formal)","2021.2.3","Win32",58.82352941,"",NA,"",NA,NA,NA,NA,NA,NA,NA,"","","",NA,"e",1,0.4247,NA,NA,NA,NA,NA,"我","e","",NA,0,42,42,0,1,"",NA,"",NA,NA,NA,NA,NA,NA,NA,"",NA,"",NA,NA,NA,NA,NA,NA,NA,"","","",NA,"",NA,NA,NA,NA,NA,NA,NA,"",NA,"24"
"",NA,"",NA,"",NA,NA,NA,NA,NA,NA,NA,"","",1,1,"2024-08-24_15h42.57.918","IAT(Formal)","2021.2.3","Win32",58.82352941,"",NA,"",NA,NA,NA,NA,NA,NA,NA,"","","",NA,"i",1,0.5773,NA,NA,NA,NA,NA,"冒失","i","",NA,0,43,43,39,1,"",NA,"",NA,NA,NA,NA,NA,NA,NA,"",NA,"",NA,NA,NA,NA,NA,NA,NA,"","","",NA,"",NA,NA,NA,NA,NA,NA,NA,"",NA,"24"
"",NA,"",NA,"",NA,NA,NA,NA,NA,NA,NA,"","",1,1,"2024-08-24_15h42.57.918","IAT(Formal)","2021.2.3","Win32",58.82352941,"",NA,"",NA,NA,NA,NA,NA,NA,NA,"","","",NA,"e",1,0.4452,NA,NA,NA,NA,NA,"我的","e","",NA,0,44,44,1,1,"",NA,"",NA,NA,NA,NA,NA,NA,NA,"",NA,"",NA,NA,NA,NA,NA,NA,NA,"","","",NA,"",NA,NA,NA,NA,NA,NA,NA,"",NA,"24"
"",NA,"",NA,"",NA,NA,NA,NA,NA,NA,NA,"","",1,1,"2024-08-24_15h42.57.918","IAT(Formal)","2021.2.3","Win32",58.82352941,"",NA,"",NA,NA,NA,NA,NA,NA,NA,"","","",NA,"e",1,0.5547,NA,NA,NA,NA,NA,"活泼","e","",NA,0,45,45,28,1,"",NA,"",NA,NA,NA,NA,NA,NA,NA,"",NA,"",NA,NA,NA,NA,NA,NA,NA,"","","",NA,"",NA,NA,NA,NA,NA,NA,NA,"",NA,"24"
"",NA,"",NA,"",NA,NA,NA,NA,NA,NA,NA,"","",1,1,"2024-08-24_15h42.57.918","IAT(Formal)","2021.2.3","Win32",58.82352941,"",NA,"",NA,NA,NA,NA,NA,NA,NA,"","","",NA,"i",1,0.4359,NA,NA,NA,NA,NA,"傲慢","i","",NA,0,46,46,37,1,"",NA,"",NA,NA,NA,NA,NA,NA,NA,"",NA,"",NA,NA,NA,NA,NA,NA,NA,"","","",NA,"",NA,NA,NA,NA,NA,NA,NA,"",NA,"24"
"",NA,"",NA,"",NA,NA,NA,NA,NA,NA,NA,"","",1,1,"2024-08-24_15h42.57.918","IAT(Formal)","2021.2.3","Win32",58.82352941,"",NA,"",NA,NA,NA,NA,NA,NA,NA,"","","",NA,"i",1,0.5502,NA,NA,NA,NA,NA,"愚蠢","i","",NA,0,47,47,32,1,"",NA,"",NA,NA,NA,NA,NA,NA,NA,"",NA,"",NA,NA,NA,NA,NA,NA,NA,"","","",NA,"",NA,NA,NA,NA,NA,NA,NA,"",NA,"24"
"",NA,"",NA,"",NA,NA,NA,NA,NA,NA,NA,"","",1,1,"2024-08-24_15h42.57.918","IAT(Formal)","2021.2.3","Win32",58.82352941,"",NA,"",NA,NA,NA,NA,NA,NA,NA,"","","",NA,"e",1,0.4528,NA,NA,NA,NA,NA,"俺","e","",NA,0,48,48,54,1,"",NA,"",NA,NA,NA,NA,NA,NA,NA,"",NA,"",NA,NA,NA,NA,NA,NA,NA,"","","",NA,"",NA,NA,NA,NA,NA,NA,NA,"",NA,"24"
"",NA,"",NA,"",NA,NA,NA,NA,NA,NA,NA,"","",1,1,"2024-08-24_15h42.57.918","IAT(Formal)","2021.2.3","Win32",58.82352941,"",NA,"",NA,NA,NA,NA,NA,NA,NA,"","","",NA,"i",0,0.4888,NA,NA,NA,NA,NA,"崇高","e","",NA,0,49,49,11,1,"",NA,"",NA,NA,NA,NA,NA,NA,NA,"",NA,"",NA,NA,NA,NA,NA,NA,NA,"","","",NA,"",NA,NA,NA,NA,NA,NA,NA,"",NA,"24"
"",NA,"",NA,"",NA,NA,NA,NA,NA,NA,NA,"","",1,1,"2024-08-24_15h42.57.918","IAT(Formal)","2021.2.3","Win32",58.82352941,"",NA,"",NA,NA,NA,NA,NA,NA,NA,"","","",NA,"i",1,0.6831,NA,NA,NA,NA,NA,"他们","i","",NA,0,50,50,76,1,"",NA,"",NA,NA,NA,NA,NA,NA,NA,"",NA,"",NA,NA,NA,NA,NA,NA,NA,"","","",NA,"",NA,NA,NA,NA,NA,NA,NA,"",NA,"24"
"",NA,"",NA,"",NA,NA,NA,NA,NA,NA,NA,"","",1,1,"2024-08-24_15h42.57.918","IAT(Formal)","2021.2.3","Win32",58.82352941,"",NA,"",NA,NA,NA,NA,NA,NA,NA,"","","",NA,"e",1,0.5133,NA,NA,NA,NA,NA,"我们","e","",NA,0,51,51,62,1,"",NA,"",NA,NA,NA,NA,NA,NA,NA,"",NA,"",NA,NA,NA,NA,NA,NA,NA,"","","",NA,"",NA,NA,NA,NA,NA,NA,NA,"",NA,"24"
"",NA,"",NA,"",NA,NA,NA,NA,NA,NA,NA,"","",1,1,"2024-08-24_15h42.57.918","IAT(Formal)","2021.2.3","Win32",58.82352941,"",NA,"",NA,NA,NA,NA,NA,NA,NA,"","","",NA,"i",1,0.7004,NA,NA,NA,NA,NA,"其他","i","",NA,0,52,52,59,1,"",NA,"",NA,NA,NA,NA,NA,NA,NA,"",NA,"",NA,NA,NA,NA,NA,NA,NA,"","","",NA,"",NA,NA,NA,NA,NA,NA,NA,"",NA,"24"
"",NA,"",NA,"",NA,NA,NA,NA,NA,NA,NA,"","",1,1,"2024-08-24_15h42.57.918","IAT(Formal)","2021.2.3","Win32",58.82352941,"",NA,"",NA,NA,NA,NA,NA,NA,NA,"","","",NA,"e",1,0.4504,NA,NA,NA,NA,NA,"自己","e","",NA,0,53,53,3,1,"",NA,"",NA,NA,NA,NA,NA,NA,NA,"",NA,"",NA,NA,NA,NA,NA,NA,NA,"","","",NA,"",NA,NA,NA,NA,NA,NA,NA,"",NA,"24"
"",NA,"",NA,"",NA,NA,NA,NA,NA,NA,NA,"","",1,1,"2024-08-24_15h42.57.918","IAT(Formal)","2021.2.3","Win32",58.82352941,"",NA,"",NA,NA,NA,NA,NA,NA,NA,"","","",NA,"i",0,1.0338,NA,NA,NA,NA,NA,"冷静","e","",NA,0,54,54,26,1,"",NA,"",NA,NA,NA,NA,NA,NA,NA,"",NA,"",NA,NA,NA,NA,NA,NA,NA,"","","",NA,"",NA,NA,NA,NA,NA,NA,NA,"",NA,"24"
"",NA,"",NA,"",NA,NA,NA,NA,NA,NA,NA,"","",1,1,"2024-08-24_15h42.57.918","IAT(Formal)","2021.2.3","Win32",58.82352941,"",NA,"",NA,NA,NA,NA,NA,NA,NA,"","","",NA,"e",1,0.668,NA,NA,NA,NA,NA,"我们","e","",NA,0,55,55,52,1,"",NA,"",NA,NA,NA,NA,NA,NA,NA,"",NA,"",NA,NA,NA,NA,NA,NA,NA,"","","",NA,"",NA,NA,NA,NA,NA,NA,NA,"",NA,"24"
"",NA,"",NA,"",NA,NA,NA,NA,NA,NA,NA,"","",1,1,"2024-08-24_15h42.57.918","IAT(Formal)","2021.2.3","Win32",58.82352941,"",NA,"",NA,NA,NA,NA,NA,NA,NA,"","","",NA,"",0,NA,NA,NA,NA,NA,NA,"稳重","e","",NA,0,56,56,21,1,"",NA,"",NA,NA,NA,NA,NA,NA,NA,"",NA,"",NA,NA,NA,NA,NA,NA,NA,"","","",NA,"",NA,NA,NA,NA,NA,NA,NA,"",NA,"24"
"",NA,"",NA,"",NA,NA,NA,NA,NA,NA,NA,"","",1,1,"2024-08-24_15h42.57.918","IAT(Formal)","2021.2.3","Win32",58.82352941,"",NA,"",NA,NA,NA,NA,NA,NA,NA,"","","",NA,"i",1,0.643,NA,NA,NA,NA,NA,"悲观","i","",NA,0,57,57,34,1,"",NA,"",NA,NA,NA,NA,NA,NA,NA,"",NA,"",NA,NA,NA,NA,NA,NA,NA,"","","",NA,"",NA,NA,NA,NA,NA,NA,NA,"",NA,"24"
"",NA,"",NA,"",NA,NA,NA,NA,NA,NA,NA,"","",1,1,"2024-08-24_15h42.57.918","IAT(Formal)","2021.2.3","Win32",58.82352941,"",NA,"",NA,NA,NA,NA,NA,NA,NA,"","","",NA,"i",1,0.5632,NA,NA,NA,NA,NA,"执拗","i","",NA,0,58,58,40,1,"",NA,"",NA,NA,NA,NA,NA,NA,NA,"",NA,"",NA,NA,NA,NA,NA,NA,NA,"","","",NA,"",NA,NA,NA,NA,NA,NA,NA,"",NA,"24"
"",NA,"",NA,"",NA,NA,NA,NA,NA,NA,NA,"","",1,1,"2024-08-24_15h42.57.918","IAT(Formal)","2021.2.3","Win32",58.82352941,"",NA,"",NA,NA,NA,NA,NA,NA,NA,"","","",NA,"i",1,0.6659,NA,NA,NA,NA,NA,"鲁莽","i","",NA,0,59,59,38,1,"",NA,"",NA,NA,NA,NA,NA,NA,NA,"",NA,"",NA,NA,NA,NA,NA,NA,NA,"","","",NA,"",NA,NA,NA,NA,NA,NA,NA,"",NA,"24"
"",NA,"",NA,"",NA,NA,NA,NA,NA,NA,NA,"","",1,1,"2024-08-24_15h42.57.918","IAT(Formal)","2021.2.3","Win32",58.82352941,"",NA,"",NA,NA,NA,NA,NA,NA,NA,"","","",NA,"i",1,0.4209,NA,NA,NA,NA,NA,"他","i","",NA,0,60,60,65,1,"",NA,"",NA,NA,NA,NA,NA,NA,NA,"",NA,"",NA,NA,NA,NA,NA,NA,NA,"","","",NA,"",NA,NA,NA,NA,NA,NA,NA,"",NA,"24"
"",NA,"",NA,"",NA,NA,NA,NA,NA,NA,NA,"","",1,1,"2024-08-24_15h42.57.918","IAT(Formal)","2021.2.3","Win32",58.82352941,"",NA,"",NA,NA,NA,NA,NA,NA,NA,"","","",NA,"e",1,0.5033,NA,NA,NA,NA,NA,"乐观","e","",NA,0,61,61,14,1,"",NA,"",NA,NA,NA,NA,NA,NA,NA,"",NA,"",NA,NA,NA,NA,NA,NA,NA,"","","",NA,"",NA,NA,NA,NA,NA,NA,NA,"",NA,"24"
"",NA,"",NA,"",NA,NA,NA,NA,NA,NA,NA,"","",1,1,"2024-08-24_15h42.57.918","IAT(Formal)","2021.2.3","Win32",58.82352941,"",NA,"",NA,NA,NA,NA,NA,NA,NA,"","","",NA,"i",1,0.994,NA,NA,NA,NA,NA,"散漫","i","",NA,0,62,62,41,1,"",NA,"",NA,NA,NA,NA,NA,NA,NA,"",NA,"",NA,NA,NA,NA,NA,NA,NA,"","","",NA,"",NA,NA,NA,NA,NA,NA,NA,"",NA,"24"
"",NA,"",NA,"",NA,NA,NA,NA,NA,NA,NA,"","",1,1,"2024-08-24_15h42.57.918","IAT(Formal)","2021.2.3","Win32",58.82352941,"",NA,"",NA,NA,NA,NA,NA,NA,NA,"","","",NA,"i",1,0.5404,NA,NA,NA,NA,NA,"他们","i","",NA,0,63,63,56,1,"",NA,"",NA,NA,NA,NA,NA,NA,NA,"",NA,"",NA,NA,NA,NA,NA,NA,NA,"","","",NA,"",NA,NA,NA,NA,NA,NA,NA,"",NA,"24"
"",NA,"",NA,"",NA,NA,NA,NA,NA,NA,NA,"","",1,1,"2024-08-24_15h42.57.918","IAT(Formal)","2021.2.3","Win32",58.82352941,"",NA,"",NA,NA,NA,NA,NA,NA,NA,"","","",NA,"e",1,0.3728,NA,NA,NA,NA,NA,"我","e","",NA,0,64,64,60,1,"",NA,"",NA,NA,NA,NA,NA,NA,NA,"",NA,"",NA,NA,NA,NA,NA,NA,NA,"","","",NA,"",NA,NA,NA,NA,NA,NA,NA,"",NA,"24"
"",NA,"",NA,"",NA,NA,NA,NA,NA,NA,NA,"","",1,1,"2024-08-24_15h42.57.918","IAT(Formal)","2021.2.3","Win32",58.82352941,"",NA,"",NA,NA,NA,NA,NA,NA,NA,"","","",NA,"e",1,0.4701,NA,NA,NA,NA,NA,"诚实","e","",NA,0,65,65,15,1,"",NA,"",NA,NA,NA,NA,NA,NA,NA,"",NA,"",NA,NA,NA,NA,NA,NA,NA,"","","",NA,"",NA,NA,NA,NA,NA,NA,NA,"",NA,"24"
"",NA,"",NA,"",NA,NA,NA,NA,NA,NA,NA,"","",1,1,"2024-08-24_15h42.57.918","IAT(Formal)","2021.2.3","Win32",58.82352941,"",NA,"",NA,NA,NA,NA,NA,NA,NA,"","","",NA,"i",1,0.5127,NA,NA,NA,NA,NA,"他的","i","",NA,0,66,66,67,1,"",NA,"",NA,NA,NA,NA,NA,NA,NA,"",NA,"",NA,NA,NA,NA,NA,NA,NA,"","","",NA,"",NA,NA,NA,NA,NA,NA,NA,"",NA,"24"
"",NA,"",NA,"",NA,NA,NA,NA,NA,NA,NA,"","",1,1,"2024-08-24_15h42.57.918","IAT(Formal)","2021.2.3","Win32",58.82352941,"",NA,"",NA,NA,NA,NA,NA,NA,NA,"","","",NA,"i",1,0.4213,NA,NA,NA,NA,NA,"他人","i","",NA,0,67,67,78,1,"",NA,"",NA,NA,NA,NA,NA,NA,NA,"",NA,"",NA,NA,NA,NA,NA,NA,NA,"","","",NA,"",NA,NA,NA,NA,NA,NA,NA,"",NA,"24"
"",NA,"",NA,"",NA,NA,NA,NA,NA,NA,NA,"","",1,1,"2024-08-24_15h42.57.918","IAT(Formal)","2021.2.3","Win32",58.82352941,"",NA,"",NA,NA,NA,NA,NA,NA,NA,"","","",NA,"i",1,0.3389,NA,NA,NA,NA,NA,"他的","i","",NA,0,68,68,77,1,"",NA,"",NA,NA,NA,NA,NA,NA,NA,"",NA,"",NA,NA,NA,NA,NA,NA,NA,"","","",NA,"",NA,NA,NA,NA,NA,NA,NA,"",NA,"24"
"",NA,"",NA,"",NA,NA,NA,NA,NA,NA,NA,"","",1,1,"2024-08-24_15h42.57.918","IAT(Formal)","2021.2.3","Win32",58.82352941,"",NA,"",NA,NA,NA,NA,NA,NA,NA,"","","",NA,"i",1,0.5111,NA,NA,NA,NA,NA,"暴躁","i","",NA,0,69,69,44,1,"",NA,"",NA,NA,NA,NA,NA,NA,NA,"",NA,"",NA,NA,NA,NA,NA,NA,NA,"","","",NA,"",NA,NA,NA,NA,NA,NA,NA,"",NA,"24"
"",NA,"",NA,"",NA,NA,NA,NA,NA,NA,NA,"","",1,1,"2024-08-24_15h42.57.918","IAT(Formal)","2021.2.3","Win32",58.82352941,"",NA,"",NA,NA,NA,NA,NA,NA,NA,"","","",NA,"i",1,0.418,NA,NA,NA,NA,NA,"刻薄","i","",NA,0,70,70,33,1,"",NA,"",NA,NA,NA,NA,NA,NA,NA,"",NA,"",NA,NA,NA,NA,NA,NA,NA,"","","",NA,"",NA,NA,NA,NA,NA,NA,NA,"",NA,"24"
"",NA,"",NA,"",NA,NA,NA,NA,NA,NA,NA,"","",1,1,"2024-08-24_15h42.57.918","IAT(Formal)","2021.2.3","Win32",58.82352941,"",NA,"",NA,NA,NA,NA,NA,NA,NA,"","","",NA,"e",1,0.6331,NA,NA,NA,NA,NA,"我们","e","",NA,0,71,71,72,1,"",NA,"",NA,NA,NA,NA,NA,NA,NA,"",NA,"",NA,NA,NA,NA,NA,NA,NA,"","","",NA,"",NA,NA,NA,NA,NA,NA,NA,"",NA,"24"
"",NA,"",NA,"",NA,NA,NA,NA,NA,NA,NA,"","",1,1,"2024-08-24_15h42.57.918","IAT(Formal)","2021.2.3","Win32",58.82352941,"",NA,"",NA,NA,NA,NA,NA,NA,NA,"","","",NA,"e",1,0.5469,NA,NA,NA,NA,NA,"无私","e","",NA,0,72,72,22,1,"",NA,"",NA,NA,NA,NA,NA,NA,NA,"",NA,"",NA,NA,NA,NA,NA,NA,NA,"","","",NA,"",NA,NA,NA,NA,NA,NA,NA,"",NA,"24"
"",NA,"",NA,"",NA,NA,NA,NA,NA,NA,NA,"","",1,1,"2024-08-24_15h42.57.918","IAT(Formal)","2021.2.3","Win32",58.82352941,"",NA,"",NA,NA,NA,NA,NA,NA,NA,"","","",NA,"e",1,0.5009,NA,NA,NA,NA,NA,"我的","e","",NA,0,73,73,71,1,"",NA,"",NA,NA,NA,NA,NA,NA,NA,"",NA,"",NA,NA,NA,NA,NA,NA,NA,"","","",NA,"",NA,NA,NA,NA,NA,NA,NA,"",NA,"24"
"",NA,"",NA,"",NA,NA,NA,NA,NA,NA,NA,"","",1,1,"2024-08-24_15h42.57.918","IAT(Formal)","2021.2.3","Win32",58.82352941,"",NA,"",NA,NA,NA,NA,NA,NA,NA,"","","",NA,"i",1,0.5362,NA,NA,NA,NA,NA,"他","i","",NA,0,74,74,5,1,"",NA,"",NA,NA,NA,NA,NA,NA,NA,"",NA,"",NA,NA,NA,NA,NA,NA,NA,"","","",NA,"",NA,NA,NA,NA,NA,NA,NA,"",NA,"24"
"",NA,"",NA,"",NA,NA,NA,NA,NA,NA,NA,"","",1,1,"2024-08-24_15h42.57.918","IAT(Formal)","2021.2.3","Win32",58.82352941,"",NA,"",NA,NA,NA,NA,NA,NA,NA,"","","",NA,"e",1,0.5174,NA,NA,NA,NA,NA,"朴实","e","",NA,0,75,75,24,1,"",NA,"",NA,NA,NA,NA,NA,NA,NA,"",NA,"",NA,NA,NA,NA,NA,NA,NA,"","","",NA,"",NA,NA,NA,NA,NA,NA,NA,"",NA,"24"
"",NA,"",NA,"",NA,NA,NA,NA,NA,NA,NA,"","",1,1,"2024-08-24_15h42.57.918","IAT(Formal)","2021.2.3","Win32",58.82352941,"",NA,"",NA,NA,NA,NA,NA,NA,NA,"","","",NA,"i",1,0.451,NA,NA,NA,NA,NA,"他人","i","",NA,0,76,76,8,1,"",NA,"",NA,NA,NA,NA,NA,NA,NA,"",NA,"",NA,NA,NA,NA,NA,NA,NA,"","","",NA,"",NA,NA,NA,NA,NA,NA,NA,"",NA,"24"
"",NA,"",NA,"",NA,NA,NA,NA,NA,NA,NA,"","",1,1,"2024-08-24_15h42.57.918","IAT(Formal)","2021.2.3","Win32",58.82352941,"",NA,"",NA,NA,NA,NA,NA,NA,NA,"","","",NA,"i",1,0.4509,NA,NA,NA,NA,NA,"他人","i","",NA,0,77,77,68,1,"",NA,"",NA,NA,NA,NA,NA,NA,NA,"",NA,"",NA,NA,NA,NA,NA,NA,NA,"","","",NA,"",NA,NA,NA,NA,NA,NA,NA,"",NA,"24"
"",NA,"",NA,"",NA,NA,NA,NA,NA,NA,NA,"","",1,1,"2024-08-24_15h42.57.918","IAT(Formal)","2021.2.3","Win32",58.82352941,"",NA,"",NA,NA,NA,NA,NA,NA,NA,"","","",NA,"e",1,0.6522,NA,NA,NA,NA,NA,"优秀","e","",NA,0,78,78,10,1,"",NA,"",NA,NA,NA,NA,NA,NA,NA,"",NA,"",NA,NA,NA,NA,NA,NA,NA,"","","",NA,"",NA,NA,NA,NA,NA,NA,NA,"",NA,"24"
"",NA,"",NA,"",NA,NA,NA,NA,NA,NA,NA,"","",1,1,"2024-08-24_15h42.57.918","IAT(Formal)","2021.2.3","Win32",58.82352941,"",NA,"",NA,NA,NA,NA,NA,NA,NA,"","","",NA,"e",1,0.566,NA,NA,NA,NA,NA,"俺","e","",NA,0,79,79,64,1,"",NA,"",NA,NA,NA,NA,NA,NA,NA,"",NA,"",NA,NA,NA,NA,NA,NA,NA,"","","",NA,"",NA,NA,NA,NA,NA,NA,NA,"",NA,"24"
"",NA,"",NA,"",NA,NA,NA,NA,NA,NA,NA,"","",1,1,"2024-08-24_15h42.57.918","IAT(Formal)","2021.2.3","Win32",58.82352941,"",NA,"",NA,NA,NA,NA,NA,NA,NA,"","","",NA,"e",1,0.5083,NA,NA,NA,NA,NA,"我们","e","",NA,1,0,80,2,1,"",NA,"",NA,NA,NA,NA,NA,NA,NA,"",NA,"",NA,NA,NA,NA,NA,NA,NA,"","","",NA,"",NA,NA,NA,NA,NA,NA,NA,"",NA,"24"
"",NA,"",NA,"",NA,NA,NA,NA,NA,NA,NA,"","",1,1,"2024-08-24_15h42.57.918","IAT(Formal)","2021.2.3","Win32",58.82352941,"",NA,"",NA,NA,NA,NA,NA,NA,NA,"","","",NA,"i",1,0.8354,NA,NA,NA,NA,NA,"虚伪","i","",NA,1,1,81,31,1,"",NA,"",NA,NA,NA,NA,NA,NA,NA,"",NA,"",NA,NA,NA,NA,NA,NA,NA,"","","",NA,"",NA,NA,NA,NA,NA,NA,NA,"",NA,"24"
"",NA,"",NA,"",NA,NA,NA,NA,NA,NA,NA,"","",1,1,"2024-08-24_15h42.57.918","IAT(Formal)","2021.2.3","Win32",58.82352941,"",NA,"",NA,NA,NA,NA,NA,NA,NA,"","","",NA,"e",1,0.6097,NA,NA,NA,NA,NA,"乐观","e","",NA,1,2,82,14,1,"",NA,"",NA,NA,NA,NA,NA,NA,NA,"",NA,"",NA,NA,NA,NA,NA,NA,NA,"","","",NA,"",NA,NA,NA,NA,NA,NA,NA,"",NA,"24"
"",NA,"",NA,"",NA,NA,NA,NA,NA,NA,NA,"","",1,1,"2024-08-24_15h42.57.918","IAT(Formal)","2021.2.3","Win32",58.82352941,"",NA,"",NA,NA,NA,NA,NA,NA,NA,"","","",NA,"i",1,0.4905,NA,NA,NA,NA,NA,"他","i","",NA,1,3,83,75,1,"",NA,"",NA,NA,NA,NA,NA,NA,NA,"",NA,"",NA,NA,NA,NA,NA,NA,NA,"","","",NA,"",NA,NA,NA,NA,NA,NA,NA,"",NA,"24"
"",NA,"",NA,"",NA,NA,NA,NA,NA,NA,NA,"","",1,1,"2024-08-24_15h42.57.918","IAT(Formal)","2021.2.3","Win32",58.82352941,"",NA,"",NA,NA,NA,NA,NA,NA,NA,"","","",NA,"i",1,0.5875,NA,NA,NA,NA,NA,"暴躁","i","",NA,1,4,84,44,1,"",NA,"",NA,NA,NA,NA,NA,NA,NA,"",NA,"",NA,NA,NA,NA,NA,NA,NA,"","","",NA,"",NA,NA,NA,NA,NA,NA,NA,"",NA,"24"
"",NA,"",NA,"",NA,NA,NA,NA,NA,NA,NA,"","",1,1,"2024-08-24_15h42.57.918","IAT(Formal)","2021.2.3","Win32",58.82352941,"",NA,"",NA,NA,NA,NA,NA,NA,NA,"","","",NA,"i",1,0.5234,NA,NA,NA,NA,NA,"卑鄙","i","",NA,1,5,85,30,1,"",NA,"",NA,NA,NA,NA,NA,NA,NA,"",NA,"",NA,NA,NA,NA,NA,NA,NA,"","","",NA,"",NA,NA,NA,NA,NA,NA,NA,"",NA,"24"
"",NA,"",NA,"",NA,NA,NA,NA,NA,NA,NA,"","",1,1,"2024-08-24_15h42.57.918","IAT(Formal)","2021.2.3","Win32",58.82352941,"",NA,"",NA,NA,NA,NA,NA,NA,NA,"","","",NA,"i",1,0.5676,NA,NA,NA,NA,NA,"执拗","i","",NA,1,6,86,40,1,"",NA,"",NA,NA,NA,NA,NA,NA,NA,"",NA,"",NA,NA,NA,NA,NA,NA,NA,"","","",NA,"",NA,NA,NA,NA,NA,NA,NA,"",NA,"24"
"",NA,"",NA,"",NA,NA,NA,NA,NA,NA,NA,"","",1,1,"2024-08-24_15h42.57.918","IAT(Formal)","2021.2.3","Win32",58.82352941,"",NA,"",NA,NA,NA,NA,NA,NA,NA,"","","",NA,"e",1,0.5232,NA,NA,NA,NA,NA,"俺","e","",NA,1,7,87,4,1,"",NA,"",NA,NA,NA,NA,NA,NA,NA,"",NA,"",NA,NA,NA,NA,NA,NA,NA,"","","",NA,"",NA,NA,NA,NA,NA,NA,NA,"",NA,"24"
"",NA,"",NA,"",NA,NA,NA,NA,NA,NA,NA,"","",1,1,"2024-08-24_15h42.57.918","IAT(Formal)","2021.2.3","Win32",58.82352941,"",NA,"",NA,NA,NA,NA,NA,NA,NA,"","","",NA,"i",1,0.7177,NA,NA,NA,NA,NA,"悲观","i","",NA,1,8,88,34,1,"",NA,"",NA,NA,NA,NA,NA,NA,NA,"",NA,"",NA,NA,NA,NA,NA,NA,NA,"","","",NA,"",NA,NA,NA,NA,NA,NA,NA,"",NA,"24"
"",NA,"",NA,"",NA,NA,NA,NA,NA,NA,NA,"","",1,1,"2024-08-24_15h42.57.918","IAT(Formal)","2021.2.3","Win32",58.82352941,"",NA,"",NA,NA,NA,NA,NA,NA,NA,"","","",NA,"e",1,0.5225,NA,NA,NA,NA,NA,"优秀","e","",NA,1,9,89,10,1,"",NA,"",NA,NA,NA,NA,NA,NA,NA,"",NA,"",NA,NA,NA,NA,NA,NA,NA,"","","",NA,"",NA,NA,NA,NA,NA,NA,NA,"",NA,"24"
"",NA,"",NA,"",NA,NA,NA,NA,NA,NA,NA,"","",1,1,"2024-08-24_15h42.57.918","IAT(Formal)","2021.2.3","Win32",58.82352941,"",NA,"",NA,NA,NA,NA,NA,NA,NA,"","","",NA,"e",1,0.4688,NA,NA,NA,NA,NA,"自己","e","",NA,1,10,90,3,1,"",NA,"",NA,NA,NA,NA,NA,NA,NA,"",NA,"",NA,NA,NA,NA,NA,NA,NA,"","","",NA,"",NA,NA,NA,NA,NA,NA,NA,"",NA,"24"
"",NA,"",NA,"",NA,NA,NA,NA,NA,NA,NA,"","",1,1,"2024-08-24_15h42.57.918","IAT(Formal)","2021.2.3","Win32",58.82352941,"",NA,"",NA,NA,NA,NA,NA,NA,NA,"","","",NA,"e",1,0.4616,NA,NA,NA,NA,NA,"俺","e","",NA,1,11,91,54,1,"",NA,"",NA,NA,NA,NA,NA,NA,NA,"",NA,"",NA,NA,NA,NA,NA,NA,NA,"","","",NA,"",NA,NA,NA,NA,NA,NA,NA,"",NA,"24"
"",NA,"",NA,"",NA,NA,NA,NA,NA,NA,NA,"","",1,1,"2024-08-24_15h42.57.918","IAT(Formal)","2021.2.3","Win32",58.82352941,"",NA,"",NA,NA,NA,NA,NA,NA,NA,"","","",NA,"i",1,0.4383,NA,NA,NA,NA,NA,"他人","i","",NA,1,12,92,58,1,"",NA,"",NA,NA,NA,NA,NA,NA,NA,"",NA,"",NA,NA,NA,NA,NA,NA,NA,"","","",NA,"",NA,NA,NA,NA,NA,NA,NA,"",NA,"24"
"",NA,"",NA,"",NA,NA,NA,NA,NA,NA,NA,"","",1,1,"2024-08-24_15h42.57.918","IAT(Formal)","2021.2.3","Win32",58.82352941,"",NA,"",NA,NA,NA,NA,NA,NA,NA,"","","",NA,"i",1,0.4339,NA,NA,NA,NA,NA,"其他","i","",NA,1,13,93,79,1,"",NA,"",NA,NA,NA,NA,NA,NA,NA,"",NA,"",NA,NA,NA,NA,NA,NA,NA,"","","",NA,"",NA,NA,NA,NA,NA,NA,NA,"",NA,"24"
"",NA,"",NA,"",NA,NA,NA,NA,NA,NA,NA,"","",1,1,"2024-08-24_15h42.57.918","IAT(Formal)","2021.2.3","Win32",58.82352941,"",NA,"",NA,NA,NA,NA,NA,NA,NA,"","","",NA,"e",1,0.5044,NA,NA,NA,NA,NA,"朴实","e","",NA,1,14,94,24,1,"",NA,"",NA,NA,NA,NA,NA,NA,NA,"",NA,"",NA,NA,NA,NA,NA,NA,NA,"","","",NA,"",NA,NA,NA,NA,NA,NA,NA,"",NA,"24"
"",NA,"",NA,"",NA,NA,NA,NA,NA,NA,NA,"","",1,1,"2024-08-24_15h42.57.918","IAT(Formal)","2021.2.3","Win32",58.82352941,"",NA,"",NA,NA,NA,NA,NA,NA,NA,"","","",NA,"e",1,0.4172,NA,NA,NA,NA,NA,"正直","e","",NA,1,15,95,16,1,"",NA,"",NA,NA,NA,NA,NA,NA,NA,"",NA,"",NA,NA,NA,NA,NA,NA,NA,"","","",NA,"",NA,NA,NA,NA,NA,NA,NA,"",NA,"24"
"",NA,"",NA,"",NA,NA,NA,NA,NA,NA,NA,"","",1,1,"2024-08-24_15h42.57.918","IAT(Formal)","2021.2.3","Win32",58.82352941,"",NA,"",NA,NA,NA,NA,NA,NA,NA,"","","",NA,"i",1,0.4137,NA,NA,NA,NA,NA,"他的","i","",NA,1,16,96,57,1,"",NA,"",NA,NA,NA,NA,NA,NA,NA,"",NA,"",NA,NA,NA,NA,NA,NA,NA,"","","",NA,"",NA,NA,NA,NA,NA,NA,NA,"",NA,"24"
"",NA,"",NA,"",NA,NA,NA,NA,NA,NA,NA,"","",1,1,"2024-08-24_15h42.57.918","IAT(Formal)","2021.2.3","Win32",58.82352941,"",NA,"",NA,NA,NA,NA,NA,NA,NA,"","","",NA,"e",1,0.4555,NA,NA,NA,NA,NA,"我的","e","",NA,1,17,97,71,1,"",NA,"",NA,NA,NA,NA,NA,NA,NA,"",NA,"",NA,NA,NA,NA,NA,NA,NA,"","","",NA,"",NA,NA,NA,NA,NA,NA,NA,"",NA,"24"
"",NA,"",NA,"",NA,NA,NA,NA,NA,NA,NA,"","",1,1,"2024-08-24_15h42.57.918","IAT(Formal)","2021.2.3","Win32",58.82352941,"",NA,"",NA,NA,NA,NA,NA,NA,NA,"","","",NA,"i",1,0.6449,NA,NA,NA,NA,NA,"散漫","i","",NA,1,18,98,41,1,"",NA,"",NA,NA,NA,NA,NA,NA,NA,"",NA,"",NA,NA,NA,NA,NA,NA,NA,"","","",NA,"",NA,NA,NA,NA,NA,NA,NA,"",NA,"24"
"",NA,"",NA,"",NA,NA,NA,NA,NA,NA,NA,"","",1,1,"2024-08-24_15h42.57.918","IAT(Formal)","2021.2.3","Win32",58.82352941,"",NA,"",NA,NA,NA,NA,NA,NA,NA,"","","",NA,"e",1,0.5352,NA,NA,NA,NA,NA,"我们","e","",NA,1,19,99,72,1,"",NA,"",NA,NA,NA,NA,NA,NA,NA,"",NA,"",NA,NA,NA,NA,NA,NA,NA,"","","",NA,"",NA,NA,NA,NA,NA,NA,NA,"",NA,"24"
"",NA,"",NA,"",NA,NA,NA,NA,NA,NA,NA,"","",1,1,"2024-08-24_15h42.57.918","IAT(Formal)","2021.2.3","Win32",58.82352941,"",NA,"",NA,NA,NA,NA,NA,NA,NA,"","","",NA,"i",1,0.4442,NA,NA,NA,NA,NA,"他","i","",NA,1,20,100,5,1,"",NA,"",NA,NA,NA,NA,NA,NA,NA,"",NA,"",NA,NA,NA,NA,NA,NA,NA,"","","",NA,"",NA,NA,NA,NA,NA,NA,NA,"",NA,"24"
"",NA,"",NA,"",NA,NA,NA,NA,NA,NA,NA,"","",1,1,"2024-08-24_15h42.57.918","IAT(Formal)","2021.2.3","Win32",58.82352941,"",NA,"",NA,NA,NA,NA,NA,NA,NA,"","","",NA,"i",1,0.6498,NA,NA,NA,NA,NA,"轻率","i","",NA,1,21,101,48,1,"",NA,"",NA,NA,NA,NA,NA,NA,NA,"",NA,"",NA,NA,NA,NA,NA,NA,NA,"","","",NA,"",NA,NA,NA,NA,NA,NA,NA,"",NA,"24"
"",NA,"",NA,"",NA,NA,NA,NA,NA,NA,NA,"","",1,1,"2024-08-24_15h42.57.918","IAT(Formal)","2021.2.3","Win32",58.82352941,"",NA,"",NA,NA,NA,NA,NA,NA,NA,"","","",NA,"i",1,0.5919,NA,NA,NA,NA,NA,"他们","i","",NA,1,22,102,76,1,"",NA,"",NA,NA,NA,NA,NA,NA,NA,"",NA,"",NA,NA,NA,NA,NA,NA,NA,"","","",NA,"",NA,NA,NA,NA,NA,NA,NA,"",NA,"24"
"",NA,"",NA,"",NA,NA,NA,NA,NA,NA,NA,"","",1,1,"2024-08-24_15h42.57.918","IAT(Formal)","2021.2.3","Win32",58.82352941,"",NA,"",NA,NA,NA,NA,NA,NA,NA,"","","",NA,"i",1,0.5107,NA,NA,NA,NA,NA,"愚蠢","i","",NA,1,23,103,32,1,"",NA,"",NA,NA,NA,NA,NA,NA,NA,"",NA,"",NA,NA,NA,NA,NA,NA,NA,"","","",NA,"",NA,NA,NA,NA,NA,NA,NA,"",NA,"24"
"",NA,"",NA,"",NA,NA,NA,NA,NA,NA,NA,"","",1,1,"2024-08-24_15h42.57.918","IAT(Formal)","2021.2.3","Win32",58.82352941,"",NA,"",NA,NA,NA,NA,NA,NA,NA,"","","",NA,"i",1,0.4504,NA,NA,NA,NA,NA,"鲁莽","i","",NA,1,24,104,38,1,"",NA,"",NA,NA,NA,NA,NA,NA,NA,"",NA,"",NA,NA,NA,NA,NA,NA,NA,"","","",NA,"",NA,NA,NA,NA,NA,NA,NA,"",NA,"24"
"",NA,"",NA,"",NA,NA,NA,NA,NA,NA,NA,"","",1,1,"2024-08-24_15h42.57.918","IAT(Formal)","2021.2.3","Win32",58.82352941,"",NA,"",NA,NA,NA,NA,NA,NA,NA,"","","",NA,"e",1,0.4562,NA,NA,NA,NA,NA,"我的","e","",NA,1,25,105,1,1,"",NA,"",NA,NA,NA,NA,NA,NA,NA,"",NA,"",NA,NA,NA,NA,NA,NA,NA,"","","",NA,"",NA,NA,NA,NA,NA,NA,NA,"",NA,"24"
"",NA,"",NA,"",NA,NA,NA,NA,NA,NA,NA,"","",1,1,"2024-08-24_15h42.57.918","IAT(Formal)","2021.2.3","Win32",58.82352941,"",NA,"",NA,NA,NA,NA,NA,NA,NA,"","","",NA,"e",1,0.4424,NA,NA,NA,NA,NA,"勤奋","e","",NA,1,26,106,18,1,"",NA,"",NA,NA,NA,NA,NA,NA,NA,"",NA,"",NA,NA,NA,NA,NA,NA,NA,"","","",NA,"",NA,NA,NA,NA,NA,NA,NA,"",NA,"24"
"",NA,"",NA,"",NA,NA,NA,NA,NA,NA,NA,"","",1,1,"2024-08-24_15h42.57.918","IAT(Formal)","2021.2.3","Win32",58.82352941,"",NA,"",NA,NA,NA,NA,NA,NA,NA,"","","",NA,"e",1,0.4528,NA,NA,NA,NA,NA,"我的","e","",NA,1,27,107,61,1,"",NA,"",NA,NA,NA,NA,NA,NA,NA,"",NA,"",NA,NA,NA,NA,NA,NA,NA,"","","",NA,"",NA,NA,NA,NA,NA,NA,NA,"",NA,"24"
"",NA,"",NA,"",NA,NA,NA,NA,NA,NA,NA,"","",1,1,"2024-08-24_15h42.57.918","IAT(Formal)","2021.2.3","Win32",58.82352941,"",NA,"",NA,NA,NA,NA,NA,NA,NA,"","","",NA,"e",1,0.3394,NA,NA,NA,NA,NA,"我","e","",NA,1,28,108,60,1,"",NA,"",NA,NA,NA,NA,NA,NA,NA,"",NA,"",NA,NA,NA,NA,NA,NA,NA,"","","",NA,"",NA,NA,NA,NA,NA,NA,NA,"",NA,"24"
"",NA,"",NA,"",NA,NA,NA,NA,NA,NA,NA,"","",1,1,"2024-08-24_15h42.57.918","IAT(Formal)","2021.2.3","Win32",58.82352941,"",NA,"",NA,NA,NA,NA,NA,NA,NA,"","","",NA,"i",1,0.4846,NA,NA,NA,NA,NA,"他人","i","",NA,1,29,109,8,1,"",NA,"",NA,NA,NA,NA,NA,NA,NA,"",NA,"",NA,NA,NA,NA,NA,NA,NA,"","","",NA,"",NA,NA,NA,NA,NA,NA,NA,"",NA,"24"
"",NA,"",NA,"",NA,NA,NA,NA,NA,NA,NA,"","",1,1,"2024-08-24_15h42.57.918","IAT(Formal)","2021.2.3","Win32",58.82352941,"",NA,"",NA,NA,NA,NA,NA,NA,NA,"","","",NA,"i",1,0.5721,NA,NA,NA,NA,NA,"消极","i","",NA,1,30,110,35,1,"",NA,"",NA,NA,NA,NA,NA,NA,NA,"",NA,"",NA,NA,NA,NA,NA,NA,NA,"","","",NA,"",NA,NA,NA,NA,NA,NA,NA,"",NA,"24"
"",NA,"",NA,"",NA,NA,NA,NA,NA,NA,NA,"","",1,1,"2024-08-24_15h42.57.918","IAT(Formal)","2021.2.3","Win32",58.82352941,"",NA,"",NA,NA,NA,NA,NA,NA,NA,"","","",NA,"i",1,0.557,NA,NA,NA,NA,NA,"其他","i","",NA,1,31,111,69,1,"",NA,"",NA,NA,NA,NA,NA,NA,NA,"",NA,"",NA,NA,NA,NA,NA,NA,NA,"","","",NA,"",NA,NA,NA,NA,NA,NA,NA,"",NA,"24"
"",NA,"",NA,"",NA,NA,NA,NA,NA,NA,NA,"","",1,1,"2024-08-24_15h42.57.918","IAT(Formal)","2021.2.3","Win32",58.82352941,"",NA,"",NA,NA,NA,NA,NA,NA,NA,"","","",NA,"i",1,0.4513,NA,NA,NA,NA,NA,"他","i","",NA,1,32,112,65,1,"",NA,"",NA,NA,NA,NA,NA,NA,NA,"",NA,"",NA,NA,NA,NA,NA,NA,NA,"","","",NA,"",NA,NA,NA,NA,NA,NA,NA,"",NA,"24"
"",NA,"",NA,"",NA,NA,NA,NA,NA,NA,NA,"","",1,1,"2024-08-24_15h42.57.918","IAT(Formal)","2021.2.3","Win32",58.82352941,"",NA,"",NA,NA,NA,NA,NA,NA,NA,"","","",NA,"i",1,0.4007,NA,NA,NA,NA,NA,"他们","i","",NA,1,33,113,66,1,"",NA,"",NA,NA,NA,NA,NA,NA,NA,"",NA,"",NA,NA,NA,NA,NA,NA,NA,"","","",NA,"",NA,NA,NA,NA,NA,NA,NA,"",NA,"24"
"",NA,"",NA,"",NA,NA,NA,NA,NA,NA,NA,"","",1,1,"2024-08-24_15h42.57.918","IAT(Formal)","2021.2.3","Win32",58.82352941,"",NA,"",NA,NA,NA,NA,NA,NA,NA,"","","",NA,"i",1,0.591,NA,NA,NA,NA,NA,"刻薄","i","",NA,1,34,114,33,1,"",NA,"",NA,NA,NA,NA,NA,NA,NA,"",NA,"",NA,NA,NA,NA,NA,NA,NA,"","","",NA,"",NA,NA,NA,NA,NA,NA,NA,"",NA,"24"
"",NA,"",NA,"",NA,NA,NA,NA,NA,NA,NA,"","",1,1,"2024-08-24_15h42.57.918","IAT(Formal)","2021.2.3","Win32",58.82352941,"",NA,"",NA,NA,NA,NA,NA,NA,NA,"","","",NA,"e",1,0.539,NA,NA,NA,NA,NA,"机智","e","",NA,1,35,115,19,1,"",NA,"",NA,NA,NA,NA,NA,NA,NA,"",NA,"",NA,NA,NA,NA,NA,NA,NA,"","","",NA,"",NA,NA,NA,NA,NA,NA,NA,"",NA,"24"
"",NA,"",NA,"",NA,NA,NA,NA,NA,NA,NA,"","",1,1,"2024-08-24_15h42.57.918","IAT(Formal)","2021.2.3","Win32",58.82352941,"",NA,"",NA,NA,NA,NA,NA,NA,NA,"","","",NA,"e",1,0.5522,NA,NA,NA,NA,NA,"俺","e","",NA,1,36,116,74,1,"",NA,"",NA,NA,NA,NA,NA,NA,NA,"",NA,"",NA,NA,NA,NA,NA,NA,NA,"","","",NA,"",NA,NA,NA,NA,NA,NA,NA,"",NA,"24"
"",NA,"",NA,"",NA,NA,NA,NA,NA,NA,NA,"","",1,1,"2024-08-24_15h42.57.918","IAT(Formal)","2021.2.3","Win32",58.82352941,"",NA,"",NA,NA,NA,NA,NA,NA,NA,"","","",NA,"e",1,0.3836,NA,NA,NA,NA,NA,"俺","e","",NA,1,37,117,64,1,"",NA,"",NA,NA,NA,NA,NA,NA,NA,"",NA,"",NA,NA,NA,NA,NA,NA,NA,"","","",NA,"",NA,NA,NA,NA,NA,NA,NA,"",NA,"24"
"",NA,"",NA,"",NA,NA,NA,NA,NA,NA,NA,"","",1,1,"2024-08-24_15h42.57.918","IAT(Formal)","2021.2.3","Win32",58.82352941,"",NA,"",NA,NA,NA,NA,NA,NA,NA,"","","",NA,"i",1,0.7664,NA,NA,NA,NA,NA,"固执","i","",NA,1,38,118,47,1,"",NA,"",NA,NA,NA,NA,NA,NA,NA,"",NA,"",NA,NA,NA,NA,NA,NA,NA,"","","",NA,"",NA,NA,NA,NA,NA,NA,NA,"",NA,"24"
"",NA,"",NA,"",NA,NA,NA,NA,NA,NA,NA,"","",1,1,"2024-08-24_15h42.57.918","IAT(Formal)","2021.2.3","Win32",58.82352941,"",NA,"",NA,NA,NA,NA,NA,NA,NA,"","","",NA,"e",1,0.5446,NA,NA,NA,NA,NA,"无私","e","",NA,1,39,119,22,1,"",NA,"",NA,NA,NA,NA,NA,NA,NA,"",NA,"",NA,NA,NA,NA,NA,NA,NA,"","","",NA,"",NA,NA,NA,NA,NA,NA,NA,"",NA,"24"
"",NA,"",NA,"",NA,NA,NA,NA,NA,NA,NA,"","",1,1,"2024-08-24_15h42.57.918","IAT(Formal)","2021.2.3","Win32",58.82352941,"",NA,"",NA,NA,NA,NA,NA,NA,NA,"","","",NA,"e",1,0.4696,NA,NA,NA,NA,NA,"我","e","",NA,1,40,120,50,1,"",NA,"",NA,NA,NA,NA,NA,NA,NA,"",NA,"",NA,NA,NA,NA,NA,NA,NA,"","","",NA,"",NA,NA,NA,NA,NA,NA,NA,"",NA,"24"
"",NA,"",NA,"",NA,NA,NA,NA,NA,NA,NA,"","",1,1,"2024-08-24_15h42.57.918","IAT(Formal)","2021.2.3","Win32",58.82352941,"",NA,"",NA,NA,NA,NA,NA,NA,NA,"","","",NA,"e",1,0.6011,NA,NA,NA,NA,NA,"认真","e","",NA,1,41,121,20,1,"",NA,"",NA,NA,NA,NA,NA,NA,NA,"",NA,"",NA,NA,NA,NA,NA,NA,NA,"","","",NA,"",NA,NA,NA,NA,NA,NA,NA,"",NA,"24"
"",NA,"",NA,"",NA,NA,NA,NA,NA,NA,NA,"","",1,1,"2024-08-24_15h42.57.918","IAT(Formal)","2021.2.3","Win32",58.82352941,"",NA,"",NA,NA,NA,NA,NA,NA,NA,"","","",NA,"e",1,0.4393,NA,NA,NA,NA,NA,"崇高","e","",NA,1,42,122,11,1,"",NA,"",NA,NA,NA,NA,NA,NA,NA,"",NA,"",NA,NA,NA,NA,NA,NA,NA,"","","",NA,"",NA,NA,NA,NA,NA,NA,NA,"",NA,"24"
"",NA,"",NA,"",NA,NA,NA,NA,NA,NA,NA,"","",1,1,"2024-08-24_15h42.57.918","IAT(Formal)","2021.2.3","Win32",58.82352941,"",NA,"",NA,NA,NA,NA,NA,NA,NA,"","","",NA,"i",1,0.4348,NA,NA,NA,NA,NA,"他人","i","",NA,1,43,123,78,1,"",NA,"",NA,NA,NA,NA,NA,NA,NA,"",NA,"",NA,NA,NA,NA,NA,NA,NA,"","","",NA,"",NA,NA,NA,NA,NA,NA,NA,"",NA,"24"
"",NA,"",NA,"",NA,NA,NA,NA,NA,NA,NA,"","",1,1,"2024-08-24_15h42.57.918","IAT(Formal)","2021.2.3","Win32",58.82352941,"",NA,"",NA,NA,NA,NA,NA,NA,NA,"","","",NA,"i",1,0.5085,NA,NA,NA,NA,NA,"野蛮","i","",NA,1,44,124,46,1,"",NA,"",NA,NA,NA,NA,NA,NA,NA,"",NA,"",NA,NA,NA,NA,NA,NA,NA,"","","",NA,"",NA,NA,NA,NA,NA,NA,NA,"",NA,"24"
"",NA,"",NA,"",NA,NA,NA,NA,NA,NA,NA,"","",1,1,"2024-08-24_15h42.57.918","IAT(Formal)","2021.2.3","Win32",58.82352941,"",NA,"",NA,NA,NA,NA,NA,NA,NA,"","","",NA,"e",0,0.554,NA,NA,NA,NA,NA,"自卑","i","",NA,1,45,125,36,1,"",NA,"",NA,NA,NA,NA,NA,NA,NA,"",NA,"",NA,NA,NA,NA,NA,NA,NA,"","","",NA,"",NA,NA,NA,NA,NA,NA,NA,"",NA,"24"
"",NA,"",NA,"",NA,NA,NA,NA,NA,NA,NA,"","",1,1,"2024-08-24_15h42.57.918","IAT(Formal)","2021.2.3","Win32",58.82352941,"",NA,"",NA,NA,NA,NA,NA,NA,NA,"","","",NA,"e",1,0.7333,NA,NA,NA,NA,NA,"聪明","e","",NA,1,46,126,12,1,"",NA,"",NA,NA,NA,NA,NA,NA,NA,"",NA,"",NA,NA,NA,NA,NA,NA,NA,"","","",NA,"",NA,NA,NA,NA,NA,NA,NA,"",NA,"24"
"",NA,"",NA,"",NA,NA,NA,NA,NA,NA,NA,"","",1,1,"2024-08-24_15h42.57.918","IAT(Formal)","2021.2.3","Win32",58.82352941,"",NA,"",NA,NA,NA,NA,NA,NA,NA,"","","",NA,"i",1,0.4745,NA,NA,NA,NA,NA,"他的","i","",NA,1,47,127,67,1,"",NA,"",NA,NA,NA,NA,NA,NA,NA,"",NA,"",NA,NA,NA,NA,NA,NA,NA,"","","",NA,"",NA,NA,NA,NA,NA,NA,NA,"",NA,"24"
"",NA,"",NA,"",NA,NA,NA,NA,NA,NA,NA,"","",1,1,"2024-08-24_15h42.57.918","IAT(Formal)","2021.2.3","Win32",58.82352941,"",NA,"",NA,NA,NA,NA,NA,NA,NA,"","","",NA,"e",1,0.4258,NA,NA,NA,NA,NA,"我","e","",NA,1,48,128,70,1,"",NA,"",NA,NA,NA,NA,NA,NA,NA,"",NA,"",NA,NA,NA,NA,NA,NA,NA,"","","",NA,"",NA,NA,NA,NA,NA,NA,NA,"",NA,"24"
"",NA,"",NA,"",NA,NA,NA,NA,NA,NA,NA,"","",1,1,"2024-08-24_15h42.57.918","IAT(Formal)","2021.2.3","Win32",58.82352941,"",NA,"",NA,NA,NA,NA,NA,NA,NA,"","","",NA,"i",1,0.618,NA,NA,NA,NA,NA,"他们","i","",NA,1,49,129,56,1,"",NA,"",NA,NA,NA,NA,NA,NA,NA,"",NA,"",NA,NA,NA,NA,NA,NA,NA,"","","",NA,"",NA,NA,NA,NA,NA,NA,NA,"",NA,"24"
"",NA,"",NA,"",NA,NA,NA,NA,NA,NA,NA,"","",1,1,"2024-08-24_15h42.57.918","IAT(Formal)","2021.2.3","Win32",58.82352941,"",NA,"",NA,NA,NA,NA,NA,NA,NA,"","","",NA,"i",1,0.6245,NA,NA,NA,NA,NA,"下贱","i","",NA,1,50,130,49,1,"",NA,"",NA,NA,NA,NA,NA,NA,NA,"",NA,"",NA,NA,NA,NA,NA,NA,NA,"","","",NA,"",NA,NA,NA,NA,NA,NA,NA,"",NA,"24"
"",NA,"",NA,"",NA,NA,NA,NA,NA,NA,NA,"","",1,1,"2024-08-24_15h42.57.918","IAT(Formal)","2021.2.3","Win32",58.82352941,"",NA,"",NA,NA,NA,NA,NA,NA,NA,"","","",NA,"i",1,0.5104,NA,NA,NA,NA,NA,"猖狂","i","",NA,1,51,131,45,1,"",NA,"",NA,NA,NA,NA,NA,NA,NA,"",NA,"",NA,NA,NA,NA,NA,NA,NA,"","","",NA,"",NA,NA,NA,NA,NA,NA,NA,"",NA,"24"
"",NA,"",NA,"",NA,NA,NA,NA,NA,NA,NA,"","",1,1,"2024-08-24_15h42.57.918","IAT(Formal)","2021.2.3","Win32",58.82352941,"",NA,"",NA,NA,NA,NA,NA,NA,NA,"","","",NA,"i",0,0.4461,NA,NA,NA,NA,NA,"诚恳","e","",NA,1,52,132,29,1,"",NA,"",NA,NA,NA,NA,NA,NA,NA,"",NA,"",NA,NA,NA,NA,NA,NA,NA,"","","",NA,"",NA,NA,NA,NA,NA,NA,NA,"",NA,"24"
"",NA,"",NA,"",NA,NA,NA,NA,NA,NA,NA,"","",1,1,"2024-08-24_15h42.57.918","IAT(Formal)","2021.2.3","Win32",58.82352941,"",NA,"",NA,NA,NA,NA,NA,NA,NA,"","","",NA,"e",1,0.5572,NA,NA,NA,NA,NA,"我们","e","",NA,1,53,133,52,1,"",NA,"",NA,NA,NA,NA,NA,NA,NA,"",NA,"",NA,NA,NA,NA,NA,NA,NA,"","","",NA,"",NA,NA,NA,NA,NA,NA,NA,"",NA,"24"
"",NA,"",NA,"",NA,NA,NA,NA,NA,NA,NA,"","",1,1,"2024-08-24_15h42.57.918","IAT(Formal)","2021.2.3","Win32",58.82352941,"",NA,"",NA,NA,NA,NA,NA,NA,NA,"","","",NA,"i",1,0.7332,NA,NA,NA,NA,NA,"他","i","",NA,1,54,134,55,1,"",NA,"",NA,NA,NA,NA,NA,NA,NA,"",NA,"",NA,NA,NA,NA,NA,NA,NA,"","","",NA,"",NA,NA,NA,NA,NA,NA,NA,"",NA,"24"
"",NA,"",NA,"",NA,NA,NA,NA,NA,NA,NA,"","",1,1,"2024-08-24_15h42.57.918","IAT(Formal)","2021.2.3","Win32",58.82352941,"",NA,"",NA,NA,NA,NA,NA,NA,NA,"","","",NA,"e",1,0.7222,NA,NA,NA,NA,NA,"稳重","e","",NA,1,55,135,21,1,"",NA,"",NA,NA,NA,NA,NA,NA,NA,"",NA,"",NA,NA,NA,NA,NA,NA,NA,"","","",NA,"",NA,NA,NA,NA,NA,NA,NA,"",NA,"24"
"",NA,"",NA,"",NA,NA,NA,NA,NA,NA,NA,"","",1,1,"2024-08-24_15h42.57.918","IAT(Formal)","2021.2.3","Win32",58.82352941,"",NA,"",NA,NA,NA,NA,NA,NA,NA,"","","",NA,"i",1,0.6012,NA,NA,NA,NA,NA,"他人","i","",NA,1,56,136,68,1,"",NA,"",NA,NA,NA,NA,NA,NA,NA,"",NA,"",NA,NA,NA,NA,NA,NA,NA,"","","",NA,"",NA,NA,NA,NA,NA,NA,NA,"",NA,"24"
"",NA,"",NA,"",NA,NA,NA,NA,NA,NA,NA,"","",1,1,"2024-08-24_15h42.57.918","IAT(Formal)","2021.2.3","Win32",58.82352941,"",NA,"",NA,NA,NA,NA,NA,NA,NA,"","","",NA,"e",1,0.456,NA,NA,NA,NA,NA,"我们","e","",NA,1,57,137,62,1,"",NA,"",NA,NA,NA,NA,NA,NA,NA,"",NA,"",NA,NA,NA,NA,NA,NA,NA,"","","",NA,"",NA,NA,NA,NA,NA,NA,NA,"",NA,"24"
"",NA,"",NA,"",NA,NA,NA,NA,NA,NA,NA,"","",1,1,"2024-08-24_15h42.57.918","IAT(Formal)","2021.2.3","Win32",58.82352941,"",NA,"",NA,NA,NA,NA,NA,NA,NA,"","","",NA,"i",1,0.4264,NA,NA,NA,NA,NA,"他的","i","",NA,1,58,138,7,1,"",NA,"",NA,NA,NA,NA,NA,NA,NA,"",NA,"",NA,NA,NA,NA,NA,NA,NA,"","","",NA,"",NA,NA,NA,NA,NA,NA,NA,"",NA,"24"
"",NA,"",NA,"",NA,NA,NA,NA,NA,NA,NA,"","",1,1,"2024-08-24_15h42.57.918","IAT(Formal)","2021.2.3","Win32",58.82352941,"",NA,"",NA,NA,NA,NA,NA,NA,NA,"","","",NA,"e",1,0.4635,NA,NA,NA,NA,NA,"自己","e","",NA,1,59,139,63,1,"",NA,"",NA,NA,NA,NA,NA,NA,NA,"",NA,"",NA,NA,NA,NA,NA,NA,NA,"","","",NA,"",NA,NA,NA,NA,NA,NA,NA,"",NA,"24"
"",NA,"",NA,"",NA,NA,NA,NA,NA,NA,NA,"","",1,1,"2024-08-24_15h42.57.918","IAT(Formal)","2021.2.3","Win32",58.82352941,"",NA,"",NA,NA,NA,NA,NA,NA,NA,"","","",NA,"e",1,0.533,NA,NA,NA,NA,NA,"勇敢","e","",NA,1,60,140,17,1,"",NA,"",NA,NA,NA,NA,NA,NA,NA,"",NA,"",NA,NA,NA,NA,NA,NA,NA,"","","",NA,"",NA,NA,NA,NA,NA,NA,NA,"",NA,"24"
"",NA,"",NA,"",NA,NA,NA,NA,NA,NA,NA,"","",1,1,"2024-08-24_15h42.57.918","IAT(Formal)","2021.2.3","Win32",58.82352941,"",NA,"",NA,NA,NA,NA,NA,NA,NA,"","","",NA,"e",1,0.5333,NA,NA,NA,NA,NA,"诚实","e","",NA,1,61,141,15,1,"",NA,"",NA,NA,NA,NA,NA,NA,NA,"",NA,"",NA,NA,NA,NA,NA,NA,NA,"","","",NA,"",NA,NA,NA,NA,NA,NA,NA,"",NA,"24"
"",NA,"",NA,"",NA,NA,NA,NA,NA,NA,NA,"","",1,1,"2024-08-24_15h42.57.918","IAT(Formal)","2021.2.3","Win32",58.82352941,"",NA,"",NA,NA,NA,NA,NA,NA,NA,"","","",NA,"e",1,0.4301,NA,NA,NA,NA,NA,"活泼","e","",NA,1,62,142,28,1,"",NA,"",NA,NA,NA,NA,NA,NA,NA,"",NA,"",NA,NA,NA,NA,NA,NA,NA,"","","",NA,"",NA,NA,NA,NA,NA,NA,NA,"",NA,"24"
"",NA,"",NA,"",NA,NA,NA,NA,NA,NA,NA,"","",1,1,"2024-08-24_15h42.57.918","IAT(Formal)","2021.2.3","Win32",58.82352941,"",NA,"",NA,NA,NA,NA,NA,NA,NA,"","","",NA,"e",1,0.4333,NA,NA,NA,NA,NA,"杰出","e","",NA,1,63,143,13,1,"",NA,"",NA,NA,NA,NA,NA,NA,NA,"",NA,"",NA,NA,NA,NA,NA,NA,NA,"","","",NA,"",NA,NA,NA,NA,NA,NA,NA,"",NA,"24"
"",NA,"",NA,"",NA,NA,NA,NA,NA,NA,NA,"","",1,1,"2024-08-24_15h42.57.918","IAT(Formal)","2021.2.3","Win32",58.82352941,"",NA,"",NA,NA,NA,NA,NA,NA,NA,"","","",NA,"e",1,0.3921,NA,NA,NA,NA,NA,"自己","e","",NA,1,64,144,73,1,"",NA,"",NA,NA,NA,NA,NA,NA,NA,"",NA,"",NA,NA,NA,NA,NA,NA,NA,"","","",NA,"",NA,NA,NA,NA,NA,NA,NA,"",NA,"24"
"",NA,"",NA,"",NA,NA,NA,NA,NA,NA,NA,"","",1,1,"2024-08-24_15h42.57.918","IAT(Formal)","2021.2.3","Win32",58.82352941,"",NA,"",NA,NA,NA,NA,NA,NA,NA,"","","",NA,"i",1,0.4997,NA,NA,NA,NA,NA,"冒失","i","",NA,1,65,145,39,1,"",NA,"",NA,NA,NA,NA,NA,NA,NA,"",NA,"",NA,NA,NA,NA,NA,NA,NA,"","","",NA,"",NA,NA,NA,NA,NA,NA,NA,"",NA,"24"
"",NA,"",NA,"",NA,NA,NA,NA,NA,NA,NA,"","",1,1,"2024-08-24_15h42.57.918","IAT(Formal)","2021.2.3","Win32",58.82352941,"",NA,"",NA,NA,NA,NA,NA,NA,NA,"","","",NA,"e",1,0.6017,NA,NA,NA,NA,NA,"公正","e","",NA,1,66,146,23,1,"",NA,"",NA,NA,NA,NA,NA,NA,NA,"",NA,"",NA,NA,NA,NA,NA,NA,NA,"","","",NA,"",NA,NA,NA,NA,NA,NA,NA,"",NA,"24"
"",NA,"",NA,"",NA,NA,NA,NA,NA,NA,NA,"","",1,1,"2024-08-24_15h42.57.918","IAT(Formal)","2021.2.3","Win32",58.82352941,"",NA,"",NA,NA,NA,NA,NA,NA,NA,"","","",NA,"i",1,0.5025,NA,NA,NA,NA,NA,"凶狠","i","",NA,1,67,147,42,1,"",NA,"",NA,NA,NA,NA,NA,NA,NA,"",NA,"",NA,NA,NA,NA,NA,NA,NA,"","","",NA,"",NA,NA,NA,NA,NA,NA,NA,"",NA,"24"
"",NA,"",NA,"",NA,NA,NA,NA,NA,NA,NA,"","",1,1,"2024-08-24_15h42.57.918","IAT(Formal)","2021.2.3","Win32",58.82352941,"",NA,"",NA,NA,NA,NA,NA,NA,NA,"","","",NA,"i",1,0.8001,NA,NA,NA,NA,NA,"傲慢","i","",NA,1,68,148,37,1,"",NA,"",NA,NA,NA,NA,NA,NA,NA,"",NA,"",NA,NA,NA,NA,NA,NA,NA,"","","",NA,"",NA,NA,NA,NA,NA,NA,NA,"",NA,"24"
"",NA,"",NA,"",NA,NA,NA,NA,NA,NA,NA,"","",1,1,"2024-08-24_15h42.57.918","IAT(Formal)","2021.2.3","Win32",58.82352941,"",NA,"",NA,NA,NA,NA,NA,NA,NA,"","","",NA,"e",1,0.6129,NA,NA,NA,NA,NA,"细腻","e","",NA,1,69,149,25,1,"",NA,"",NA,NA,NA,NA,NA,NA,NA,"",NA,"",NA,NA,NA,NA,NA,NA,NA,"","","",NA,"",NA,NA,NA,NA,NA,NA,NA,"",NA,"24"
"",NA,"",NA,"",NA,NA,NA,NA,NA,NA,NA,"","",1,1,"2024-08-24_15h42.57.918","IAT(Formal)","2021.2.3","Win32",58.82352941,"",NA,"",NA,NA,NA,NA,NA,NA,NA,"","","",NA,"e",0,0.7196,NA,NA,NA,NA,NA,"自私","i","",NA,1,70,150,43,1,"",NA,"",NA,NA,NA,NA,NA,NA,NA,"",NA,"",NA,NA,NA,NA,NA,NA,NA,"","","",NA,"",NA,NA,NA,NA,NA,NA,NA,"",NA,"24"
"",NA,"",NA,"",NA,NA,NA,NA,NA,NA,NA,"","",1,1,"2024-08-24_15h42.57.918","IAT(Formal)","2021.2.3","Win32",58.82352941,"",NA,"",NA,NA,NA,NA,NA,NA,NA,"","","",NA,"i",1,0.5184,NA,NA,NA,NA,NA,"他的","i","",NA,1,71,151,77,1,"",NA,"",NA,NA,NA,NA,NA,NA,NA,"",NA,"",NA,NA,NA,NA,NA,NA,NA,"","","",NA,"",NA,NA,NA,NA,NA,NA,NA,"",NA,"24"
"",NA,"",NA,"",NA,NA,NA,NA,NA,NA,NA,"","",1,1,"2024-08-24_15h42.57.918","IAT(Formal)","2021.2.3","Win32",58.82352941,"",NA,"",NA,NA,NA,NA,NA,NA,NA,"","","",NA,"i",1,0.6284,NA,NA,NA,NA,NA,"其他","i","",NA,1,72,152,59,1,"",NA,"",NA,NA,NA,NA,NA,NA,NA,"",NA,"",NA,NA,NA,NA,NA,NA,NA,"","","",NA,"",NA,NA,NA,NA,NA,NA,NA,"",NA,"24"
"",NA,"",NA,"",NA,NA,NA,NA,NA,NA,NA,"","",1,1,"2024-08-24_15h42.57.918","IAT(Formal)","2021.2.3","Win32",58.82352941,"",NA,"",NA,NA,NA,NA,NA,NA,NA,"","","",NA,"e",1,0.5555,NA,NA,NA,NA,NA,"我的","e","",NA,1,73,153,51,1,"",NA,"",NA,NA,NA,NA,NA,NA,NA,"",NA,"",NA,NA,NA,NA,NA,NA,NA,"","","",NA,"",NA,NA,NA,NA,NA,NA,NA,"",NA,"24"
"",NA,"",NA,"",NA,NA,NA,NA,NA,NA,NA,"","",1,1,"2024-08-24_15h42.57.918","IAT(Formal)","2021.2.3","Win32",58.82352941,"",NA,"",NA,NA,NA,NA,NA,NA,NA,"","","",NA,"e",1,0.4854,NA,NA,NA,NA,NA,"自己","e","",NA,1,74,154,53,1,"",NA,"",NA,NA,NA,NA,NA,NA,NA,"",NA,"",NA,NA,NA,NA,NA,NA,NA,"","","",NA,"",NA,NA,NA,NA,NA,NA,NA,"",NA,"24"
"",NA,"",NA,"",NA,NA,NA,NA,NA,NA,NA,"","",1,1,"2024-08-24_15h42.57.918","IAT(Formal)","2021.2.3","Win32",58.82352941,"",NA,"",NA,NA,NA,NA,NA,NA,NA,"","","",NA,"e",1,0.9903,NA,NA,NA,NA,NA,"热情","e","",NA,1,75,155,27,1,"",NA,"",NA,NA,NA,NA,NA,NA,NA,"",NA,"",NA,NA,NA,NA,NA,NA,NA,"","","",NA,"",NA,NA,NA,NA,NA,NA,NA,"",NA,"24"
"",NA,"",NA,"",NA,NA,NA,NA,NA,NA,NA,"","",1,1,"2024-08-24_15h42.57.918","IAT(Formal)","2021.2.3","Win32",58.82352941,"",NA,"",NA,NA,NA,NA,NA,NA,NA,"","","",NA,"e",1,0.518,NA,NA,NA,NA,NA,"我","e","",NA,1,76,156,0,1,"",NA,"",NA,NA,NA,NA,NA,NA,NA,"",NA,"",NA,NA,NA,NA,NA,NA,NA,"","","",NA,"",NA,NA,NA,NA,NA,NA,NA,"",NA,"24"
"",NA,"",NA,"",NA,NA,NA,NA,NA,NA,NA,"","",1,1,"2024-08-24_15h42.57.918","IAT(Formal)","2021.2.3","Win32",58.82352941,"",NA,"",NA,NA,NA,NA,NA,NA,NA,"","","",NA,"i",1,0.437,NA,NA,NA,NA,NA,"他们","i","",NA,1,77,157,6,1,"",NA,"",NA,NA,NA,NA,NA,NA,NA,"",NA,"",NA,NA,NA,NA,NA,NA,NA,"","","",NA,"",NA,NA,NA,NA,NA,NA,NA,"",NA,"24"
"",NA,"",NA,"",NA,NA,NA,NA,NA,NA,NA,"","",1,1,"2024-08-24_15h42.57.918","IAT(Formal)","2021.2.3","Win32",58.82352941,"",NA,"",NA,NA,NA,NA,NA,NA,NA,"","","",NA,"e",1,0.7785,NA,NA,NA,NA,NA,"冷静","e","",NA,1,78,158,26,1,"",NA,"",NA,NA,NA,NA,NA,NA,NA,"",NA,"",NA,NA,NA,NA,NA,NA,NA,"","","",NA,"",NA,NA,NA,NA,NA,NA,NA,"",NA,"24"
"",NA,"",NA,"",NA,NA,NA,NA,NA,NA,NA,"","",1,1,"2024-08-24_15h42.57.918","IAT(Formal)","2021.2.3","Win32",58.82352941,"",NA,"",NA,NA,NA,NA,NA,NA,NA,"","","",NA,"i",1,0.467,NA,NA,NA,NA,NA,"其他","i","",NA,1,79,159,9,1,"",NA,"",NA,NA,NA,NA,NA,NA,NA,"",NA,"",NA,NA,NA,NA,NA,NA,NA,"","","",NA,"",NA,NA,NA,NA,NA,NA,NA,"",NA,"24"
"",NA,"",NA,"",NA,NA,NA,NA,NA,NA,NA,"俺","i",1,1,"2024-08-24_15h42.57.918","IAT(Formal)","2021.2.3","Win32",58.82352941,"",NA,"",NA,NA,NA,NA,NA,NA,NA,"","","",NA,"",NA,NA,NA,NA,NA,NA,NA,"","","",NA,NA,NA,NA,NA,NA,"space",14.1853,"i",1,0.5852,0,0,0,4,1,"",NA,"",NA,NA,NA,NA,NA,NA,NA,"","","",NA,"",NA,NA,NA,NA,NA,NA,NA,"",NA,"24"
"",NA,"",NA,"",NA,NA,NA,NA,NA,NA,NA,"他的","e",1,1,"2024-08-24_15h42.57.918","IAT(Formal)","2021.2.3","Win32",58.82352941,"",NA,"",NA,NA,NA,NA,NA,NA,NA,"","","",NA,"",NA,NA,NA,NA,NA,NA,NA,"","","",NA,NA,NA,NA,NA,NA,"",NA,"e",1,0.4332,0,1,1,7,1,"",NA,"",NA,NA,NA,NA,NA,NA,NA,"","","",NA,"",NA,NA,NA,NA,NA,NA,NA,"",NA,"24"
"",NA,"",NA,"",NA,NA,NA,NA,NA,NA,NA,"他","e",1,1,"2024-08-24_15h42.57.918","IAT(Formal)","2021.2.3","Win32",58.82352941,"",NA,"",NA,NA,NA,NA,NA,NA,NA,"","","",NA,"",NA,NA,NA,NA,NA,NA,NA,"","","",NA,NA,NA,NA,NA,NA,"",NA,"e",1,0.6004,0,2,2,5,1,"",NA,"",NA,NA,NA,NA,NA,NA,NA,"","","",NA,"",NA,NA,NA,NA,NA,NA,NA,"",NA,"24"
"",NA,"",NA,"",NA,NA,NA,NA,NA,NA,NA,"我的","i",1,1,"2024-08-24_15h42.57.918","IAT(Formal)","2021.2.3","Win32",58.82352941,"",NA,"",NA,NA,NA,NA,NA,NA,NA,"","","",NA,"",NA,NA,NA,NA,NA,NA,NA,"","","",NA,NA,NA,NA,NA,NA,"",NA,"i",1,0.4378,0,3,3,1,1,"",NA,"",NA,NA,NA,NA,NA,NA,NA,"","","",NA,"",NA,NA,NA,NA,NA,NA,NA,"",NA,"24"
"",NA,"",NA,"",NA,NA,NA,NA,NA,NA,NA,"我们","i",1,1,"2024-08-24_15h42.57.918","IAT(Formal)","2021.2.3","Win32",58.82352941,"",NA,"",NA,NA,NA,NA,NA,NA,NA,"","","",NA,"",NA,NA,NA,NA,NA,NA,NA,"","","",NA,NA,NA,NA,NA,NA,"",NA,"i",1,0.3909,0,4,4,2,1,"",NA,"",NA,NA,NA,NA,NA,NA,NA,"","","",NA,"",NA,NA,NA,NA,NA,NA,NA,"",NA,"24"
"",NA,"",NA,"",NA,NA,NA,NA,NA,NA,NA,"他人","e",1,1,"2024-08-24_15h42.57.918","IAT(Formal)","2021.2.3","Win32",58.82352941,"",NA,"",NA,NA,NA,NA,NA,NA,NA,"","","",NA,"",NA,NA,NA,NA,NA,NA,NA,"","","",NA,NA,NA,NA,NA,NA,"",NA,"e",1,0.4672,0,5,5,8,1,"",NA,"",NA,NA,NA,NA,NA,NA,NA,"","","",NA,"",NA,NA,NA,NA,NA,NA,NA,"",NA,"24"
"",NA,"",NA,"",NA,NA,NA,NA,NA,NA,NA,"他们","e",1,1,"2024-08-24_15h42.57.918","IAT(Formal)","2021.2.3","Win32",58.82352941,"",NA,"",NA,NA,NA,NA,NA,NA,NA,"","","",NA,"",NA,NA,NA,NA,NA,NA,NA,"","","",NA,NA,NA,NA,NA,NA,"",NA,"e",1,0.3462,0,6,6,6,1,"",NA,"",NA,NA,NA,NA,NA,NA,NA,"","","",NA,"",NA,NA,NA,NA,NA,NA,NA,"",NA,"24"
"",NA,"",NA,"",NA,NA,NA,NA,NA,NA,NA,"自己","i",1,1,"2024-08-24_15h42.57.918","IAT(Formal)","2021.2.3","Win32",58.82352941,"",NA,"",NA,NA,NA,NA,NA,NA,NA,"","","",NA,"",NA,NA,NA,NA,NA,NA,NA,"","","",NA,NA,NA,NA,NA,NA,"",NA,"i",1,0.4254,0,7,7,3,1,"",NA,"",NA,NA,NA,NA,NA,NA,NA,"","","",NA,"",NA,NA,NA,NA,NA,NA,NA,"",NA,"24"
"",NA,"",NA,"",NA,NA,NA,NA,NA,NA,NA,"我","i",1,1,"2024-08-24_15h42.57.918","IAT(Formal)","2021.2.3","Win32",58.82352941,"",NA,"",NA,NA,NA,NA,NA,NA,NA,"","","",NA,"",NA,NA,NA,NA,NA,NA,NA,"","","",NA,NA,NA,NA,NA,NA,"",NA,"i",1,0.3742,0,8,8,0,1,"",NA,"",NA,NA,NA,NA,NA,NA,NA,"","","",NA,"",NA,NA,NA,NA,NA,NA,NA,"",NA,"24"
"",NA,"",NA,"",NA,NA,NA,NA,NA,NA,NA,"其他","e",1,1,"2024-08-24_15h42.57.918","IAT(Formal)","2021.2.3","Win32",58.82352941,"",NA,"",NA,NA,NA,NA,NA,NA,NA,"","","",NA,"",NA,NA,NA,NA,NA,NA,NA,"","","",NA,NA,NA,NA,NA,NA,"",NA,"e",1,0.4605,0,9,9,9,1,"",NA,"",NA,NA,NA,NA,NA,NA,NA,"","","",NA,"",NA,NA,NA,NA,NA,NA,NA,"",NA,"24"
"",NA,"",NA,"",NA,NA,NA,NA,NA,NA,NA,"","",1,1,"2024-08-24_15h42.57.918","IAT(Formal)","2021.2.3","Win32",58.82352941,"",NA,"",NA,NA,NA,NA,NA,NA,NA,"","","",NA,"",NA,NA,NA,NA,NA,NA,NA,"","","",NA,NA,NA,NA,NA,NA,"",NA,"",NA,NA,NA,NA,NA,NA,NA,"space",24.8385,"i",0,0.5516,0,0,0,25,1,"细腻","e","",NA,"",NA,NA,NA,NA,NA,NA,NA,"",NA,"24"
"",NA,"",NA,"",NA,NA,NA,NA,NA,NA,NA,"","",1,1,"2024-08-24_15h42.57.918","IAT(Formal)","2021.2.3","Win32",58.82352941,"",NA,"",NA,NA,NA,NA,NA,NA,NA,"","","",NA,"",NA,NA,NA,NA,NA,NA,NA,"","","",NA,NA,NA,NA,NA,NA,"",NA,"",NA,NA,NA,NA,NA,NA,NA,"",NA,"i",1,0.6237,0,1,1,73,1,"自己","i","",NA,"",NA,NA,NA,NA,NA,NA,NA,"",NA,"24"
"",NA,"",NA,"",NA,NA,NA,NA,NA,NA,NA,"","",1,1,"2024-08-24_15h42.57.918","IAT(Formal)","2021.2.3","Win32",58.82352941,"",NA,"",NA,NA,NA,NA,NA,NA,NA,"","","",NA,"",NA,NA,NA,NA,NA,NA,NA,"","","",NA,NA,NA,NA,NA,NA,"",NA,"",NA,NA,NA,NA,NA,NA,NA,"",NA,"e",1,0.7034,0,2,2,11,1,"崇高","e","",NA,"",NA,NA,NA,NA,NA,NA,NA,"",NA,"24"
"",NA,"",NA,"",NA,NA,NA,NA,NA,NA,NA,"","",1,1,"2024-08-24_15h42.57.918","IAT(Formal)","2021.2.3","Win32",58.82352941,"",NA,"",NA,NA,NA,NA,NA,NA,NA,"","","",NA,"",NA,NA,NA,NA,NA,NA,NA,"","","",NA,NA,NA,NA,NA,NA,"",NA,"",NA,NA,NA,NA,NA,NA,NA,"",NA,"e",1,0.8801,0,3,3,69,1,"其他","e","",NA,"",NA,NA,NA,NA,NA,NA,NA,"",NA,"24"
"",NA,"",NA,"",NA,NA,NA,NA,NA,NA,NA,"","",1,1,"2024-08-24_15h42.57.918","IAT(Formal)","2021.2.3","Win32",58.82352941,"",NA,"",NA,NA,NA,NA,NA,NA,NA,"","","",NA,"",NA,NA,NA,NA,NA,NA,NA,"","","",NA,NA,NA,NA,NA,NA,"",NA,"",NA,NA,NA,NA,NA,NA,NA,"",NA,"i",1,0.8451,0,4,4,37,1,"傲慢","i","",NA,"",NA,NA,NA,NA,NA,NA,NA,"",NA,"24"
