"X.Instruction1.keys","Instruction1.rt","Instruction2.keys","Instruction2.rt","key_resp_iso.keys","key_resp_iso.corr","key_resp_iso.rt","Practice_01.thisRepN","Practice_01.thisTrialN","Practice_01.thisN","Practice_01.thisIndex","Practice_01.ran","Words","ans","participant","session","date","expName","psychopyVersion","OS","frameRate","key_resp_3.keys","key_resp_3.rt","key_resp_ipn.keys","key_resp_ipn.corr","key_resp_ipn.rt","Practice_02.thisRepN","Practice_02.thisTrialN","Practice_02.thisN","Practice_02.thisIndex","Practice_02.ran","Words_ipn","ans_ipn","key_resp_4.keys","key_resp_4.rt","key_resp_t1.keys","key_resp_t1.corr","key_resp_t1.rt","Practice_T1.thisRepN","Practice_T1.thisTrialN","Practice_T1.thisN","Practice_T1.thisIndex","Practice_T1.ran","Words_t1","ans_t1","key_resp_5.keys","key_resp_5.rt","Formal_T1.thisRepN","Formal_T1.thisTrialN","Formal_T1.thisN","Formal_T1.thisIndex","Formal_T1.ran","key_resp_6.keys","key_resp_6.rt","key_resp_iso_reverse.keys","key_resp_iso_reverse.corr","key_resp_iso_reverse.rt","Practice_iso_Reverse.thisRepN","Practice_iso_Reverse.thisTrialN","Practice_iso_Reverse.thisN","Practice_iso_Reverse.thisIndex","Practice_iso_Reverse.ran","key_resp_7.keys","key_resp_7.rt","key_resp_t2_Practice.keys","key_resp_t2_Practice.corr","key_resp_t2_Practice.rt","Practice_t2_Reverse.thisRepN","Practice_t2_Reverse.thisTrialN","Practice_t2_Reverse.thisN","Practice_t2_Reverse.thisIndex","Practice_t2_Reverse.ran","Words_t2","ans_t2","key_resp_8.keys","key_resp_8.rt","key_resp_t2.keys","key_resp_t2.corr","key_resp_t2.rt","Formal_t2_reverse.thisRepN","Formal_t2_reverse.thisTrialN","Formal_t2_reverse.thisN","Formal_t2_reverse.thisIndex","Formal_t2_reverse.ran","key_instruct.keys","key_instruct.rt","Subject"
"space",5.073,"space",6.3691,"e",1,0.7105,0,0,0,3,1,"自己","e",1,1,"2024-08-24_20h52.25.337","IAT(Formal)","2021.2.3","Win32",60.24096386,"",NA,"",NA,NA,NA,NA,NA,NA,NA,"","","",NA,"",NA,NA,NA,NA,NA,NA,NA,"","","",NA,NA,NA,NA,NA,NA,"",NA,"",NA,NA,NA,NA,NA,NA,NA,"",NA,"",NA,NA,NA,NA,NA,NA,NA,"","","",NA,"",NA,NA,NA,NA,NA,NA,NA,"",NA,"25"
"",NA,"",NA,"e",1,0.5691,0,1,1,4,1,"俺","e",1,1,"2024-08-24_20h52.25.337","IAT(Formal)","2021.2.3","Win32",60.24096386,"",NA,"",NA,NA,NA,NA,NA,NA,NA,"","","",NA,"",NA,NA,NA,NA,NA,NA,NA,"","","",NA,NA,NA,NA,NA,NA,"",NA,"",NA,NA,NA,NA,NA,NA,NA,"",NA,"",NA,NA,NA,NA,NA,NA,NA,"","","",NA,"",NA,NA,NA,NA,NA,NA,NA,"",NA,"25"
"",NA,"",NA,"e",1,0.4461,0,2,2,0,1,"我","e",1,1,"2024-08-24_20h52.25.337","IAT(Formal)","2021.2.3","Win32",60.24096386,"",NA,"",NA,NA,NA,NA,NA,NA,NA,"","","",NA,"",NA,NA,NA,NA,NA,NA,NA,"","","",NA,NA,NA,NA,NA,NA,"",NA,"",NA,NA,NA,NA,NA,NA,NA,"",NA,"",NA,NA,NA,NA,NA,NA,NA,"","","",NA,"",NA,NA,NA,NA,NA,NA,NA,"",NA,"25"
"",NA,"",NA,"e",1,0.4796,0,3,3,2,1,"我们","e",1,1,"2024-08-24_20h52.25.337","IAT(Formal)","2021.2.3","Win32",60.24096386,"",NA,"",NA,NA,NA,NA,NA,NA,NA,"","","",NA,"",NA,NA,NA,NA,NA,NA,NA,"","","",NA,NA,NA,NA,NA,NA,"",NA,"",NA,NA,NA,NA,NA,NA,NA,"",NA,"",NA,NA,NA,NA,NA,NA,NA,"","","",NA,"",NA,NA,NA,NA,NA,NA,NA,"",NA,"25"
"",NA,"",NA,"i",1,0.4641,0,4,4,7,1,"他的","i",1,1,"2024-08-24_20h52.25.337","IAT(Formal)","2021.2.3","Win32",60.24096386,"",NA,"",NA,NA,NA,NA,NA,NA,NA,"","","",NA,"",NA,NA,NA,NA,NA,NA,NA,"","","",NA,NA,NA,NA,NA,NA,"",NA,"",NA,NA,NA,NA,NA,NA,NA,"",NA,"",NA,NA,NA,NA,NA,NA,NA,"","","",NA,"",NA,NA,NA,NA,NA,NA,NA,"",NA,"25"
"",NA,"",NA,"i",1,0.4486,0,5,5,5,1,"他","i",1,1,"2024-08-24_20h52.25.337","IAT(Formal)","2021.2.3","Win32",60.24096386,"",NA,"",NA,NA,NA,NA,NA,NA,NA,"","","",NA,"",NA,NA,NA,NA,NA,NA,NA,"","","",NA,NA,NA,NA,NA,NA,"",NA,"",NA,NA,NA,NA,NA,NA,NA,"",NA,"",NA,NA,NA,NA,NA,NA,NA,"","","",NA,"",NA,NA,NA,NA,NA,NA,NA,"",NA,"25"
"",NA,"",NA,"i",1,0.4485,0,6,6,8,1,"他人","i",1,1,"2024-08-24_20h52.25.337","IAT(Formal)","2021.2.3","Win32",60.24096386,"",NA,"",NA,NA,NA,NA,NA,NA,NA,"","","",NA,"",NA,NA,NA,NA,NA,NA,NA,"","","",NA,NA,NA,NA,NA,NA,"",NA,"",NA,NA,NA,NA,NA,NA,NA,"",NA,"",NA,NA,NA,NA,NA,NA,NA,"","","",NA,"",NA,NA,NA,NA,NA,NA,NA,"",NA,"25"
"",NA,"",NA,"i",1,0.4901,0,7,7,6,1,"他们","i",1,1,"2024-08-24_20h52.25.337","IAT(Formal)","2021.2.3","Win32",60.24096386,"",NA,"",NA,NA,NA,NA,NA,NA,NA,"","","",NA,"",NA,NA,NA,NA,NA,NA,NA,"","","",NA,NA,NA,NA,NA,NA,"",NA,"",NA,NA,NA,NA,NA,NA,NA,"",NA,"",NA,NA,NA,NA,NA,NA,NA,"","","",NA,"",NA,NA,NA,NA,NA,NA,NA,"",NA,"25"
"",NA,"",NA,"e",1,0.448,0,8,8,1,1,"我的","e",1,1,"2024-08-24_20h52.25.337","IAT(Formal)","2021.2.3","Win32",60.24096386,"",NA,"",NA,NA,NA,NA,NA,NA,NA,"","","",NA,"",NA,NA,NA,NA,NA,NA,NA,"","","",NA,NA,NA,NA,NA,NA,"",NA,"",NA,NA,NA,NA,NA,NA,NA,"",NA,"",NA,NA,NA,NA,NA,NA,NA,"","","",NA,"",NA,NA,NA,NA,NA,NA,NA,"",NA,"25"
"",NA,"",NA,"i",1,0.7038,0,9,9,9,1,"其他","i",1,1,"2024-08-24_20h52.25.337","IAT(Formal)","2021.2.3","Win32",60.24096386,"",NA,"",NA,NA,NA,NA,NA,NA,NA,"","","",NA,"",NA,NA,NA,NA,NA,NA,NA,"","","",NA,NA,NA,NA,NA,NA,"",NA,"",NA,NA,NA,NA,NA,NA,NA,"",NA,"",NA,NA,NA,NA,NA,NA,NA,"","","",NA,"",NA,NA,NA,NA,NA,NA,NA,"",NA,"25"
"",NA,"",NA,"",NA,NA,NA,NA,NA,NA,NA,"","",1,1,"2024-08-24_20h52.25.337","IAT(Formal)","2021.2.3","Win32",60.24096386,"space",5.1662,"i",1,0.6869,0,0,0,33,1,"自私","i","",NA,"",NA,NA,NA,NA,NA,NA,NA,"","","",NA,NA,NA,NA,NA,NA,"",NA,"",NA,NA,NA,NA,NA,NA,NA,"",NA,"",NA,NA,NA,NA,NA,NA,NA,"","","",NA,"",NA,NA,NA,NA,NA,NA,NA,"",NA,"25"
"",NA,"",NA,"",NA,NA,NA,NA,NA,NA,NA,"","",1,1,"2024-08-24_20h52.25.337","IAT(Formal)","2021.2.3","Win32",60.24096386,"",NA,"i",1,0.4845,0,1,1,24,1,"悲观","i","",NA,"",NA,NA,NA,NA,NA,NA,NA,"","","",NA,NA,NA,NA,NA,NA,"",NA,"",NA,NA,NA,NA,NA,NA,NA,"",NA,"",NA,NA,NA,NA,NA,NA,NA,"","","",NA,"",NA,NA,NA,NA,NA,NA,NA,"",NA,"25"
"",NA,"",NA,"",NA,NA,NA,NA,NA,NA,NA,"","",1,1,"2024-08-24_20h52.25.337","IAT(Formal)","2021.2.3","Win32",60.24096386,"",NA,"i",1,0.5043,0,2,2,28,1,"鲁莽","i","",NA,"",NA,NA,NA,NA,NA,NA,NA,"","","",NA,NA,NA,NA,NA,NA,"",NA,"",NA,NA,NA,NA,NA,NA,NA,"",NA,"",NA,NA,NA,NA,NA,NA,NA,"","","",NA,"",NA,NA,NA,NA,NA,NA,NA,"",NA,"25"
"",NA,"",NA,"",NA,NA,NA,NA,NA,NA,NA,"","",1,1,"2024-08-24_20h52.25.337","IAT(Formal)","2021.2.3","Win32",60.24096386,"",NA,"e",1,0.6514,0,3,3,11,1,"稳重","e","",NA,"",NA,NA,NA,NA,NA,NA,NA,"","","",NA,NA,NA,NA,NA,NA,"",NA,"",NA,NA,NA,NA,NA,NA,NA,"",NA,"",NA,NA,NA,NA,NA,NA,NA,"","","",NA,"",NA,NA,NA,NA,NA,NA,NA,"",NA,"25"
"",NA,"",NA,"",NA,NA,NA,NA,NA,NA,NA,"","",1,1,"2024-08-24_20h52.25.337","IAT(Formal)","2021.2.3","Win32",60.24096386,"",NA,"e",1,0.6357,0,4,4,15,1,"细腻","e","",NA,"",NA,NA,NA,NA,NA,NA,NA,"","","",NA,NA,NA,NA,NA,NA,"",NA,"",NA,NA,NA,NA,NA,NA,NA,"",NA,"",NA,NA,NA,NA,NA,NA,NA,"","","",NA,"",NA,NA,NA,NA,NA,NA,NA,"",NA,"25"
"",NA,"",NA,"",NA,NA,NA,NA,NA,NA,NA,"","",1,1,"2024-08-24_20h52.25.337","IAT(Formal)","2021.2.3","Win32",60.24096386,"",NA,"e",1,0.4573,0,5,5,9,1,"机智","e","",NA,"",NA,NA,NA,NA,NA,NA,NA,"","","",NA,NA,NA,NA,NA,NA,"",NA,"",NA,NA,NA,NA,NA,NA,NA,"",NA,"",NA,NA,NA,NA,NA,NA,NA,"","","",NA,"",NA,NA,NA,NA,NA,NA,NA,"",NA,"25"
"",NA,"",NA,"",NA,NA,NA,NA,NA,NA,NA,"","",1,1,"2024-08-24_20h52.25.337","IAT(Formal)","2021.2.3","Win32",60.24096386,"",NA,"e",1,0.543,0,6,6,19,1,"诚恳","e","",NA,"",NA,NA,NA,NA,NA,NA,NA,"","","",NA,NA,NA,NA,NA,NA,"",NA,"",NA,NA,NA,NA,NA,NA,NA,"",NA,"",NA,NA,NA,NA,NA,NA,NA,"","","",NA,"",NA,NA,NA,NA,NA,NA,NA,"",NA,"25"
"",NA,"",NA,"",NA,NA,NA,NA,NA,NA,NA,"","",1,1,"2024-08-24_20h52.25.337","IAT(Formal)","2021.2.3","Win32",60.24096386,"",NA,"i",1,0.4999,0,7,7,32,1,"凶狠","i","",NA,"",NA,NA,NA,NA,NA,NA,NA,"","","",NA,NA,NA,NA,NA,NA,"",NA,"",NA,NA,NA,NA,NA,NA,NA,"",NA,"",NA,NA,NA,NA,NA,NA,NA,"","","",NA,"",NA,NA,NA,NA,NA,NA,NA,"",NA,"25"
"",NA,"",NA,"",NA,NA,NA,NA,NA,NA,NA,"","",1,1,"2024-08-24_20h52.25.337","IAT(Formal)","2021.2.3","Win32",60.24096386,"",NA,"e",1,0.6172,0,8,8,13,1,"公正","e","",NA,"",NA,NA,NA,NA,NA,NA,NA,"","","",NA,NA,NA,NA,NA,NA,"",NA,"",NA,NA,NA,NA,NA,NA,NA,"",NA,"",NA,NA,NA,NA,NA,NA,NA,"","","",NA,"",NA,NA,NA,NA,NA,NA,NA,"",NA,"25"
"",NA,"",NA,"",NA,NA,NA,NA,NA,NA,NA,"","",1,1,"2024-08-24_20h52.25.337","IAT(Formal)","2021.2.3","Win32",60.24096386,"",NA,"i",1,0.6243,0,9,9,27,1,"傲慢","i","",NA,"",NA,NA,NA,NA,NA,NA,NA,"","","",NA,NA,NA,NA,NA,NA,"",NA,"",NA,NA,NA,NA,NA,NA,NA,"",NA,"",NA,NA,NA,NA,NA,NA,NA,"","","",NA,"",NA,NA,NA,NA,NA,NA,NA,"",NA,"25"
"",NA,"",NA,"",NA,NA,NA,NA,NA,NA,NA,"","",1,1,"2024-08-24_20h52.25.337","IAT(Formal)","2021.2.3","Win32",60.24096386,"",NA,"i",1,0.5877,0,10,10,38,1,"轻率","i","",NA,"",NA,NA,NA,NA,NA,NA,NA,"","","",NA,NA,NA,NA,NA,NA,"",NA,"",NA,NA,NA,NA,NA,NA,NA,"",NA,"",NA,NA,NA,NA,NA,NA,NA,"","","",NA,"",NA,NA,NA,NA,NA,NA,NA,"",NA,"25"
"",NA,"",NA,"",NA,NA,NA,NA,NA,NA,NA,"","",1,1,"2024-08-24_20h52.25.337","IAT(Formal)","2021.2.3","Win32",60.24096386,"",NA,"i",1,0.5069,0,11,11,25,1,"消极","i","",NA,"",NA,NA,NA,NA,NA,NA,NA,"","","",NA,NA,NA,NA,NA,NA,"",NA,"",NA,NA,NA,NA,NA,NA,NA,"",NA,"",NA,NA,NA,NA,NA,NA,NA,"","","",NA,"",NA,NA,NA,NA,NA,NA,NA,"",NA,"25"
"",NA,"",NA,"",NA,NA,NA,NA,NA,NA,NA,"","",1,1,"2024-08-24_20h52.25.337","IAT(Formal)","2021.2.3","Win32",60.24096386,"",NA,"e",1,0.5273,0,12,12,1,1,"崇高","e","",NA,"",NA,NA,NA,NA,NA,NA,NA,"","","",NA,NA,NA,NA,NA,NA,"",NA,"",NA,NA,NA,NA,NA,NA,NA,"",NA,"",NA,NA,NA,NA,NA,NA,NA,"","","",NA,"",NA,NA,NA,NA,NA,NA,NA,"",NA,"25"
"",NA,"",NA,"",NA,NA,NA,NA,NA,NA,NA,"","",1,1,"2024-08-24_20h52.25.337","IAT(Formal)","2021.2.3","Win32",60.24096386,"",NA,"i",1,0.5747,0,13,13,31,1,"散漫","i","",NA,"",NA,NA,NA,NA,NA,NA,NA,"","","",NA,NA,NA,NA,NA,NA,"",NA,"",NA,NA,NA,NA,NA,NA,NA,"",NA,"",NA,NA,NA,NA,NA,NA,NA,"","","",NA,"",NA,NA,NA,NA,NA,NA,NA,"",NA,"25"
"",NA,"",NA,"",NA,NA,NA,NA,NA,NA,NA,"","",1,1,"2024-08-24_20h52.25.337","IAT(Formal)","2021.2.3","Win32",60.24096386,"",NA,"i",0,0.5404,0,14,14,16,1,"冷静","e","",NA,"",NA,NA,NA,NA,NA,NA,NA,"","","",NA,NA,NA,NA,NA,NA,"",NA,"",NA,NA,NA,NA,NA,NA,NA,"",NA,"",NA,NA,NA,NA,NA,NA,NA,"","","",NA,"",NA,NA,NA,NA,NA,NA,NA,"",NA,"25"
"",NA,"",NA,"",NA,NA,NA,NA,NA,NA,NA,"","",1,1,"2024-08-24_20h52.25.337","IAT(Formal)","2021.2.3","Win32",60.24096386,"",NA,"i",1,0.5696,0,15,15,34,1,"暴躁","i","",NA,"",NA,NA,NA,NA,NA,NA,NA,"","","",NA,NA,NA,NA,NA,NA,"",NA,"",NA,NA,NA,NA,NA,NA,NA,"",NA,"",NA,NA,NA,NA,NA,NA,NA,"","","",NA,"",NA,NA,NA,NA,NA,NA,NA,"",NA,"25"
"",NA,"",NA,"",NA,NA,NA,NA,NA,NA,NA,"","",1,1,"2024-08-24_20h52.25.337","IAT(Formal)","2021.2.3","Win32",60.24096386,"",NA,"i",1,0.5855,0,16,16,39,1,"下贱","i","",NA,"",NA,NA,NA,NA,NA,NA,NA,"","","",NA,NA,NA,NA,NA,NA,"",NA,"",NA,NA,NA,NA,NA,NA,NA,"",NA,"",NA,NA,NA,NA,NA,NA,NA,"","","",NA,"",NA,NA,NA,NA,NA,NA,NA,"",NA,"25"
"",NA,"",NA,"",NA,NA,NA,NA,NA,NA,NA,"","",1,1,"2024-08-24_20h52.25.337","IAT(Formal)","2021.2.3","Win32",60.24096386,"",NA,"i",1,0.4969,0,17,17,35,1,"猖狂","i","",NA,"",NA,NA,NA,NA,NA,NA,NA,"","","",NA,NA,NA,NA,NA,NA,"",NA,"",NA,NA,NA,NA,NA,NA,NA,"",NA,"",NA,NA,NA,NA,NA,NA,NA,"","","",NA,"",NA,NA,NA,NA,NA,NA,NA,"",NA,"25"
"",NA,"",NA,"",NA,NA,NA,NA,NA,NA,NA,"","",1,1,"2024-08-24_20h52.25.337","IAT(Formal)","2021.2.3","Win32",60.24096386,"",NA,"e",1,0.5843,0,18,18,4,1,"乐观","e","",NA,"",NA,NA,NA,NA,NA,NA,NA,"","","",NA,NA,NA,NA,NA,NA,"",NA,"",NA,NA,NA,NA,NA,NA,NA,"",NA,"",NA,NA,NA,NA,NA,NA,NA,"","","",NA,"",NA,NA,NA,NA,NA,NA,NA,"",NA,"25"
"",NA,"",NA,"",NA,NA,NA,NA,NA,NA,NA,"","",1,1,"2024-08-24_20h52.25.337","IAT(Formal)","2021.2.3","Win32",60.24096386,"",NA,"i",1,0.8523,0,19,19,21,1,"虚伪","i","",NA,"",NA,NA,NA,NA,NA,NA,NA,"","","",NA,NA,NA,NA,NA,NA,"",NA,"",NA,NA,NA,NA,NA,NA,NA,"",NA,"",NA,NA,NA,NA,NA,NA,NA,"","","",NA,"",NA,NA,NA,NA,NA,NA,NA,"",NA,"25"
"",NA,"",NA,"",NA,NA,NA,NA,NA,NA,NA,"","",1,1,"2024-08-24_20h52.25.337","IAT(Formal)","2021.2.3","Win32",60.24096386,"",NA,"e",1,0.5272,0,20,20,6,1,"正直","e","",NA,"",NA,NA,NA,NA,NA,NA,NA,"","","",NA,NA,NA,NA,NA,NA,"",NA,"",NA,NA,NA,NA,NA,NA,NA,"",NA,"",NA,NA,NA,NA,NA,NA,NA,"","","",NA,"",NA,NA,NA,NA,NA,NA,NA,"",NA,"25"
"",NA,"",NA,"",NA,NA,NA,NA,NA,NA,NA,"","",1,1,"2024-08-24_20h52.25.337","IAT(Formal)","2021.2.3","Win32",60.24096386,"",NA,"e",1,0.4727,0,21,21,5,1,"诚实","e","",NA,"",NA,NA,NA,NA,NA,NA,NA,"","","",NA,NA,NA,NA,NA,NA,"",NA,"",NA,NA,NA,NA,NA,NA,NA,"",NA,"",NA,NA,NA,NA,NA,NA,NA,"","","",NA,"",NA,NA,NA,NA,NA,NA,NA,"",NA,"25"
"",NA,"",NA,"",NA,NA,NA,NA,NA,NA,NA,"","",1,1,"2024-08-24_20h52.25.337","IAT(Formal)","2021.2.3","Win32",60.24096386,"",NA,"i",1,0.5187,0,22,22,26,1,"自卑","i","",NA,"",NA,NA,NA,NA,NA,NA,NA,"","","",NA,NA,NA,NA,NA,NA,"",NA,"",NA,NA,NA,NA,NA,NA,NA,"",NA,"",NA,NA,NA,NA,NA,NA,NA,"","","",NA,"",NA,NA,NA,NA,NA,NA,NA,"",NA,"25"
"",NA,"",NA,"",NA,NA,NA,NA,NA,NA,NA,"","",1,1,"2024-08-24_20h52.25.337","IAT(Formal)","2021.2.3","Win32",60.24096386,"",NA,"i",1,0.5873,0,23,23,37,1,"固执","i","",NA,"",NA,NA,NA,NA,NA,NA,NA,"","","",NA,NA,NA,NA,NA,NA,"",NA,"",NA,NA,NA,NA,NA,NA,NA,"",NA,"",NA,NA,NA,NA,NA,NA,NA,"","","",NA,"",NA,NA,NA,NA,NA,NA,NA,"",NA,"25"
"",NA,"",NA,"",NA,NA,NA,NA,NA,NA,NA,"","",1,1,"2024-08-24_20h52.25.337","IAT(Formal)","2021.2.3","Win32",60.24096386,"",NA,"i",1,0.5529,0,24,24,36,1,"野蛮","i","",NA,"",NA,NA,NA,NA,NA,NA,NA,"","","",NA,NA,NA,NA,NA,NA,"",NA,"",NA,NA,NA,NA,NA,NA,NA,"",NA,"",NA,NA,NA,NA,NA,NA,NA,"","","",NA,"",NA,NA,NA,NA,NA,NA,NA,"",NA,"25"
"",NA,"",NA,"",NA,NA,NA,NA,NA,NA,NA,"","",1,1,"2024-08-24_20h52.25.337","IAT(Formal)","2021.2.3","Win32",60.24096386,"",NA,"e",1,0.5379,0,25,25,17,1,"热情","e","",NA,"",NA,NA,NA,NA,NA,NA,NA,"","","",NA,NA,NA,NA,NA,NA,"",NA,"",NA,NA,NA,NA,NA,NA,NA,"",NA,"",NA,NA,NA,NA,NA,NA,NA,"","","",NA,"",NA,NA,NA,NA,NA,NA,NA,"",NA,"25"
"",NA,"",NA,"",NA,NA,NA,NA,NA,NA,NA,"","",1,1,"2024-08-24_20h52.25.337","IAT(Formal)","2021.2.3","Win32",60.24096386,"",NA,"e",1,0.5275,0,26,26,2,1,"聪明","e","",NA,"",NA,NA,NA,NA,NA,NA,NA,"","","",NA,NA,NA,NA,NA,NA,"",NA,"",NA,NA,NA,NA,NA,NA,NA,"",NA,"",NA,NA,NA,NA,NA,NA,NA,"","","",NA,"",NA,NA,NA,NA,NA,NA,NA,"",NA,"25"
"",NA,"",NA,"",NA,NA,NA,NA,NA,NA,NA,"","",1,1,"2024-08-24_20h52.25.337","IAT(Formal)","2021.2.3","Win32",60.24096386,"",NA,"e",1,0.5928,0,27,27,14,1,"朴实","e","",NA,"",NA,NA,NA,NA,NA,NA,NA,"","","",NA,NA,NA,NA,NA,NA,"",NA,"",NA,NA,NA,NA,NA,NA,NA,"",NA,"",NA,NA,NA,NA,NA,NA,NA,"","","",NA,"",NA,NA,NA,NA,NA,NA,NA,"",NA,"25"
"",NA,"",NA,"",NA,NA,NA,NA,NA,NA,NA,"","",1,1,"2024-08-24_20h52.25.337","IAT(Formal)","2021.2.3","Win32",60.24096386,"",NA,"e",1,0.5332,0,28,28,0,1,"优秀","e","",NA,"",NA,NA,NA,NA,NA,NA,NA,"","","",NA,NA,NA,NA,NA,NA,"",NA,"",NA,NA,NA,NA,NA,NA,NA,"",NA,"",NA,NA,NA,NA,NA,NA,NA,"","","",NA,"",NA,NA,NA,NA,NA,NA,NA,"",NA,"25"
"",NA,"",NA,"",NA,NA,NA,NA,NA,NA,NA,"","",1,1,"2024-08-24_20h52.25.337","IAT(Formal)","2021.2.3","Win32",60.24096386,"",NA,"e",1,0.5171,0,29,29,8,1,"勤奋","e","",NA,"",NA,NA,NA,NA,NA,NA,NA,"","","",NA,NA,NA,NA,NA,NA,"",NA,"",NA,NA,NA,NA,NA,NA,NA,"",NA,"",NA,NA,NA,NA,NA,NA,NA,"","","",NA,"",NA,NA,NA,NA,NA,NA,NA,"",NA,"25"
"",NA,"",NA,"",NA,NA,NA,NA,NA,NA,NA,"","",1,1,"2024-08-24_20h52.25.337","IAT(Formal)","2021.2.3","Win32",60.24096386,"",NA,"i",1,0.6029,0,30,30,29,1,"冒失","i","",NA,"",NA,NA,NA,NA,NA,NA,NA,"","","",NA,NA,NA,NA,NA,NA,"",NA,"",NA,NA,NA,NA,NA,NA,NA,"",NA,"",NA,NA,NA,NA,NA,NA,NA,"","","",NA,"",NA,NA,NA,NA,NA,NA,NA,"",NA,"25"
"",NA,"",NA,"",NA,NA,NA,NA,NA,NA,NA,"","",1,1,"2024-08-24_20h52.25.337","IAT(Formal)","2021.2.3","Win32",60.24096386,"",NA,"e",1,0.6004,0,31,31,3,1,"杰出","e","",NA,"",NA,NA,NA,NA,NA,NA,NA,"","","",NA,NA,NA,NA,NA,NA,"",NA,"",NA,NA,NA,NA,NA,NA,NA,"",NA,"",NA,NA,NA,NA,NA,NA,NA,"","","",NA,"",NA,NA,NA,NA,NA,NA,NA,"",NA,"25"
"",NA,"",NA,"",NA,NA,NA,NA,NA,NA,NA,"","",1,1,"2024-08-24_20h52.25.337","IAT(Formal)","2021.2.3","Win32",60.24096386,"",NA,"e",1,0.5405,0,32,32,7,1,"勇敢","e","",NA,"",NA,NA,NA,NA,NA,NA,NA,"","","",NA,NA,NA,NA,NA,NA,"",NA,"",NA,NA,NA,NA,NA,NA,NA,"",NA,"",NA,NA,NA,NA,NA,NA,NA,"","","",NA,"",NA,NA,NA,NA,NA,NA,NA,"",NA,"25"
"",NA,"",NA,"",NA,NA,NA,NA,NA,NA,NA,"","",1,1,"2024-08-24_20h52.25.337","IAT(Formal)","2021.2.3","Win32",60.24096386,"",NA,"i",1,0.7086,0,33,33,22,1,"愚蠢","i","",NA,"",NA,NA,NA,NA,NA,NA,NA,"","","",NA,NA,NA,NA,NA,NA,"",NA,"",NA,NA,NA,NA,NA,NA,NA,"",NA,"",NA,NA,NA,NA,NA,NA,NA,"","","",NA,"",NA,NA,NA,NA,NA,NA,NA,"",NA,"25"
"",NA,"",NA,"",NA,NA,NA,NA,NA,NA,NA,"","",1,1,"2024-08-24_20h52.25.337","IAT(Formal)","2021.2.3","Win32",60.24096386,"",NA,"e",1,0.9427,0,34,34,12,1,"无私","e","",NA,"",NA,NA,NA,NA,NA,NA,NA,"","","",NA,NA,NA,NA,NA,NA,"",NA,"",NA,NA,NA,NA,NA,NA,NA,"",NA,"",NA,NA,NA,NA,NA,NA,NA,"","","",NA,"",NA,NA,NA,NA,NA,NA,NA,"",NA,"25"
"",NA,"",NA,"",NA,NA,NA,NA,NA,NA,NA,"","",1,1,"2024-08-24_20h52.25.337","IAT(Formal)","2021.2.3","Win32",60.24096386,"",NA,"e",1,0.4603,0,35,35,10,1,"认真","e","",NA,"",NA,NA,NA,NA,NA,NA,NA,"","","",NA,NA,NA,NA,NA,NA,"",NA,"",NA,NA,NA,NA,NA,NA,NA,"",NA,"",NA,NA,NA,NA,NA,NA,NA,"","","",NA,"",NA,NA,NA,NA,NA,NA,NA,"",NA,"25"
"",NA,"",NA,"",NA,NA,NA,NA,NA,NA,NA,"","",1,1,"2024-08-24_20h52.25.337","IAT(Formal)","2021.2.3","Win32",60.24096386,"",NA,"i",1,0.5911,0,36,36,23,1,"刻薄","i","",NA,"",NA,NA,NA,NA,NA,NA,NA,"","","",NA,NA,NA,NA,NA,NA,"",NA,"",NA,NA,NA,NA,NA,NA,NA,"",NA,"",NA,NA,NA,NA,NA,NA,NA,"","","",NA,"",NA,NA,NA,NA,NA,NA,NA,"",NA,"25"
"",NA,"",NA,"",NA,NA,NA,NA,NA,NA,NA,"","",1,1,"2024-08-24_20h52.25.337","IAT(Formal)","2021.2.3","Win32",60.24096386,"",NA,"e",1,0.5404,0,37,37,18,1,"活泼","e","",NA,"",NA,NA,NA,NA,NA,NA,NA,"","","",NA,NA,NA,NA,NA,NA,"",NA,"",NA,NA,NA,NA,NA,NA,NA,"",NA,"",NA,NA,NA,NA,NA,NA,NA,"","","",NA,"",NA,NA,NA,NA,NA,NA,NA,"",NA,"25"
"",NA,"",NA,"",NA,NA,NA,NA,NA,NA,NA,"","",1,1,"2024-08-24_20h52.25.337","IAT(Formal)","2021.2.3","Win32",60.24096386,"",NA,"i",1,0.5874,0,38,38,20,1,"卑鄙","i","",NA,"",NA,NA,NA,NA,NA,NA,NA,"","","",NA,NA,NA,NA,NA,NA,"",NA,"",NA,NA,NA,NA,NA,NA,NA,"",NA,"",NA,NA,NA,NA,NA,NA,NA,"","","",NA,"",NA,NA,NA,NA,NA,NA,NA,"",NA,"25"
"",NA,"",NA,"",NA,NA,NA,NA,NA,NA,NA,"","",1,1,"2024-08-24_20h52.25.337","IAT(Formal)","2021.2.3","Win32",60.24096386,"",NA,"i",1,0.5788,0,39,39,30,1,"执拗","i","",NA,"",NA,NA,NA,NA,NA,NA,NA,"","","",NA,NA,NA,NA,NA,NA,"",NA,"",NA,NA,NA,NA,NA,NA,NA,"",NA,"",NA,NA,NA,NA,NA,NA,NA,"","","",NA,"",NA,NA,NA,NA,NA,NA,NA,"",NA,"25"
"",NA,"",NA,"",NA,NA,NA,NA,NA,NA,NA,"","",1,1,"2024-08-24_20h52.25.337","IAT(Formal)","2021.2.3","Win32",60.24096386,"",NA,"",NA,NA,NA,NA,NA,NA,NA,"","","space",4.3642,"e",1,0.4479,0,0,0,50,1,"我","e","",NA,NA,NA,NA,NA,NA,"",NA,"",NA,NA,NA,NA,NA,NA,NA,"",NA,"",NA,NA,NA,NA,NA,NA,NA,"","","",NA,"",NA,NA,NA,NA,NA,NA,NA,"",NA,"25"
"",NA,"",NA,"",NA,NA,NA,NA,NA,NA,NA,"","",1,1,"2024-08-24_20h52.25.337","IAT(Formal)","2021.2.3","Win32",60.24096386,"",NA,"",NA,NA,NA,NA,NA,NA,NA,"","","",NA,"i",1,1.4625,0,1,1,49,1,"下贱","i","",NA,NA,NA,NA,NA,NA,"",NA,"",NA,NA,NA,NA,NA,NA,NA,"",NA,"",NA,NA,NA,NA,NA,NA,NA,"","","",NA,"",NA,NA,NA,NA,NA,NA,NA,"",NA,"25"
"",NA,"",NA,"",NA,NA,NA,NA,NA,NA,NA,"","",1,1,"2024-08-24_20h52.25.337","IAT(Formal)","2021.2.3","Win32",60.24096386,"",NA,"",NA,NA,NA,NA,NA,NA,NA,"","","",NA,"e",1,0.5623,0,2,2,12,1,"聪明","e","",NA,NA,NA,NA,NA,NA,"",NA,"",NA,NA,NA,NA,NA,NA,NA,"",NA,"",NA,NA,NA,NA,NA,NA,NA,"","","",NA,"",NA,NA,NA,NA,NA,NA,NA,"",NA,"25"
"",NA,"",NA,"",NA,NA,NA,NA,NA,NA,NA,"","",1,1,"2024-08-24_20h52.25.337","IAT(Formal)","2021.2.3","Win32",60.24096386,"",NA,"",NA,NA,NA,NA,NA,NA,NA,"","","",NA,"e",1,0.5339,0,3,3,24,1,"朴实","e","",NA,NA,NA,NA,NA,NA,"",NA,"",NA,NA,NA,NA,NA,NA,NA,"",NA,"",NA,NA,NA,NA,NA,NA,NA,"","","",NA,"",NA,NA,NA,NA,NA,NA,NA,"",NA,"25"
"",NA,"",NA,"",NA,NA,NA,NA,NA,NA,NA,"","",1,1,"2024-08-24_20h52.25.337","IAT(Formal)","2021.2.3","Win32",60.24096386,"",NA,"",NA,NA,NA,NA,NA,NA,NA,"","","",NA,"e",0,0.4873,0,4,4,34,1,"悲观","i","",NA,NA,NA,NA,NA,NA,"",NA,"",NA,NA,NA,NA,NA,NA,NA,"",NA,"",NA,NA,NA,NA,NA,NA,NA,"","","",NA,"",NA,NA,NA,NA,NA,NA,NA,"",NA,"25"
"",NA,"",NA,"",NA,NA,NA,NA,NA,NA,NA,"","",1,1,"2024-08-24_20h52.25.337","IAT(Formal)","2021.2.3","Win32",60.24096386,"",NA,"",NA,NA,NA,NA,NA,NA,NA,"","","",NA,"e",1,0.5302,0,5,5,16,1,"正直","e","",NA,NA,NA,NA,NA,NA,"",NA,"",NA,NA,NA,NA,NA,NA,NA,"",NA,"",NA,NA,NA,NA,NA,NA,NA,"","","",NA,"",NA,NA,NA,NA,NA,NA,NA,"",NA,"25"
"",NA,"",NA,"",NA,NA,NA,NA,NA,NA,NA,"","",1,1,"2024-08-24_20h52.25.337","IAT(Formal)","2021.2.3","Win32",60.24096386,"",NA,"",NA,NA,NA,NA,NA,NA,NA,"","","",NA,"i",1,0.6514,0,6,6,40,1,"执拗","i","",NA,NA,NA,NA,NA,NA,"",NA,"",NA,NA,NA,NA,NA,NA,NA,"",NA,"",NA,NA,NA,NA,NA,NA,NA,"","","",NA,"",NA,NA,NA,NA,NA,NA,NA,"",NA,"25"
"",NA,"",NA,"",NA,NA,NA,NA,NA,NA,NA,"","",1,1,"2024-08-24_20h52.25.337","IAT(Formal)","2021.2.3","Win32",60.24096386,"",NA,"",NA,NA,NA,NA,NA,NA,NA,"","","",NA,"e",1,0.5934,0,7,7,28,1,"活泼","e","",NA,NA,NA,NA,NA,NA,"",NA,"",NA,NA,NA,NA,NA,NA,NA,"",NA,"",NA,NA,NA,NA,NA,NA,NA,"","","",NA,"",NA,NA,NA,NA,NA,NA,NA,"",NA,"25"
"",NA,"",NA,"",NA,NA,NA,NA,NA,NA,NA,"","",1,1,"2024-08-24_20h52.25.337","IAT(Formal)","2021.2.3","Win32",60.24096386,"",NA,"",NA,NA,NA,NA,NA,NA,NA,"","","",NA,"i",1,0.4672,0,8,8,77,1,"他的","i","",NA,NA,NA,NA,NA,NA,"",NA,"",NA,NA,NA,NA,NA,NA,NA,"",NA,"",NA,NA,NA,NA,NA,NA,NA,"","","",NA,"",NA,NA,NA,NA,NA,NA,NA,"",NA,"25"
"",NA,"",NA,"",NA,NA,NA,NA,NA,NA,NA,"","",1,1,"2024-08-24_20h52.25.337","IAT(Formal)","2021.2.3","Win32",60.24096386,"",NA,"",NA,NA,NA,NA,NA,NA,NA,"","","",NA,"e",1,1.4285,0,9,9,62,1,"我们","e","",NA,NA,NA,NA,NA,NA,"",NA,"",NA,NA,NA,NA,NA,NA,NA,"",NA,"",NA,NA,NA,NA,NA,NA,NA,"","","",NA,"",NA,NA,NA,NA,NA,NA,NA,"",NA,"25"
"",NA,"",NA,"",NA,NA,NA,NA,NA,NA,NA,"","",1,1,"2024-08-24_20h52.25.337","IAT(Formal)","2021.2.3","Win32",60.24096386,"",NA,"",NA,NA,NA,NA,NA,NA,NA,"","","",NA,"e",1,0.5196,0,10,10,4,1,"俺","e","",NA,NA,NA,NA,NA,NA,"",NA,"",NA,NA,NA,NA,NA,NA,NA,"",NA,"",NA,NA,NA,NA,NA,NA,NA,"","","",NA,"",NA,NA,NA,NA,NA,NA,NA,"",NA,"25"
"",NA,"",NA,"",NA,NA,NA,NA,NA,NA,NA,"","",1,1,"2024-08-24_20h52.25.337","IAT(Formal)","2021.2.3","Win32",60.24096386,"",NA,"",NA,NA,NA,NA,NA,NA,NA,"","","",NA,"e",1,0.5283,0,11,11,64,1,"俺","e","",NA,NA,NA,NA,NA,NA,"",NA,"",NA,NA,NA,NA,NA,NA,NA,"",NA,"",NA,NA,NA,NA,NA,NA,NA,"","","",NA,"",NA,NA,NA,NA,NA,NA,NA,"",NA,"25"
"",NA,"",NA,"",NA,NA,NA,NA,NA,NA,NA,"","",1,1,"2024-08-24_20h52.25.337","IAT(Formal)","2021.2.3","Win32",60.24096386,"",NA,"",NA,NA,NA,NA,NA,NA,NA,"","","",NA,"i",1,0.5045,0,12,12,31,1,"虚伪","i","",NA,NA,NA,NA,NA,NA,"",NA,"",NA,NA,NA,NA,NA,NA,NA,"",NA,"",NA,NA,NA,NA,NA,NA,NA,"","","",NA,"",NA,NA,NA,NA,NA,NA,NA,"",NA,"25"
"",NA,"",NA,"",NA,NA,NA,NA,NA,NA,NA,"","",1,1,"2024-08-24_20h52.25.337","IAT(Formal)","2021.2.3","Win32",60.24096386,"",NA,"",NA,NA,NA,NA,NA,NA,NA,"","","",NA,"e",1,0.4717,0,13,13,52,1,"我们","e","",NA,NA,NA,NA,NA,NA,"",NA,"",NA,NA,NA,NA,NA,NA,NA,"",NA,"",NA,NA,NA,NA,NA,NA,NA,"","","",NA,"",NA,NA,NA,NA,NA,NA,NA,"",NA,"25"
"",NA,"",NA,"",NA,NA,NA,NA,NA,NA,NA,"","",1,1,"2024-08-24_20h52.25.337","IAT(Formal)","2021.2.3","Win32",60.24096386,"",NA,"",NA,NA,NA,NA,NA,NA,NA,"","","",NA,"e",1,0.5324,0,14,14,29,1,"诚恳","e","",NA,NA,NA,NA,NA,NA,"",NA,"",NA,NA,NA,NA,NA,NA,NA,"",NA,"",NA,NA,NA,NA,NA,NA,NA,"","","",NA,"",NA,NA,NA,NA,NA,NA,NA,"",NA,"25"
"",NA,"",NA,"",NA,NA,NA,NA,NA,NA,NA,"","",1,1,"2024-08-24_20h52.25.337","IAT(Formal)","2021.2.3","Win32",60.24096386,"",NA,"",NA,NA,NA,NA,NA,NA,NA,"","","",NA,"i",1,0.6014,0,15,15,55,1,"他","i","",NA,NA,NA,NA,NA,NA,"",NA,"",NA,NA,NA,NA,NA,NA,NA,"",NA,"",NA,NA,NA,NA,NA,NA,NA,"","","",NA,"",NA,NA,NA,NA,NA,NA,NA,"",NA,"25"
"",NA,"",NA,"",NA,NA,NA,NA,NA,NA,NA,"","",1,1,"2024-08-24_20h52.25.337","IAT(Formal)","2021.2.3","Win32",60.24096386,"",NA,"",NA,NA,NA,NA,NA,NA,NA,"","","",NA,"i",1,0.6316,0,16,16,33,1,"刻薄","i","",NA,NA,NA,NA,NA,NA,"",NA,"",NA,NA,NA,NA,NA,NA,NA,"",NA,"",NA,NA,NA,NA,NA,NA,NA,"","","",NA,"",NA,NA,NA,NA,NA,NA,NA,"",NA,"25"
"",NA,"",NA,"",NA,NA,NA,NA,NA,NA,NA,"","",1,1,"2024-08-24_20h52.25.337","IAT(Formal)","2021.2.3","Win32",60.24096386,"",NA,"",NA,NA,NA,NA,NA,NA,NA,"","","",NA,"e",1,0.5807,0,17,17,54,1,"俺","e","",NA,NA,NA,NA,NA,NA,"",NA,"",NA,NA,NA,NA,NA,NA,NA,"",NA,"",NA,NA,NA,NA,NA,NA,NA,"","","",NA,"",NA,NA,NA,NA,NA,NA,NA,"",NA,"25"
"",NA,"",NA,"",NA,NA,NA,NA,NA,NA,NA,"","",1,1,"2024-08-24_20h52.25.337","IAT(Formal)","2021.2.3","Win32",60.24096386,"",NA,"",NA,NA,NA,NA,NA,NA,NA,"","","",NA,"i",0,0.4731,0,18,18,22,1,"无私","e","",NA,NA,NA,NA,NA,NA,"",NA,"",NA,NA,NA,NA,NA,NA,NA,"",NA,"",NA,NA,NA,NA,NA,NA,NA,"","","",NA,"",NA,NA,NA,NA,NA,NA,NA,"",NA,"25"
"",NA,"",NA,"",NA,NA,NA,NA,NA,NA,NA,"","",1,1,"2024-08-24_20h52.25.337","IAT(Formal)","2021.2.3","Win32",60.24096386,"",NA,"",NA,NA,NA,NA,NA,NA,NA,"","","",NA,"e",1,0.5132,0,19,19,18,1,"勤奋","e","",NA,NA,NA,NA,NA,NA,"",NA,"",NA,NA,NA,NA,NA,NA,NA,"",NA,"",NA,NA,NA,NA,NA,NA,NA,"","","",NA,"",NA,NA,NA,NA,NA,NA,NA,"",NA,"25"
"",NA,"",NA,"",NA,NA,NA,NA,NA,NA,NA,"","",1,1,"2024-08-24_20h52.25.337","IAT(Formal)","2021.2.3","Win32",60.24096386,"",NA,"",NA,NA,NA,NA,NA,NA,NA,"","","",NA,"e",1,0.4281,0,20,20,53,1,"自己","e","",NA,NA,NA,NA,NA,NA,"",NA,"",NA,NA,NA,NA,NA,NA,NA,"",NA,"",NA,NA,NA,NA,NA,NA,NA,"","","",NA,"",NA,NA,NA,NA,NA,NA,NA,"",NA,"25"
"",NA,"",NA,"",NA,NA,NA,NA,NA,NA,NA,"","",1,1,"2024-08-24_20h52.25.337","IAT(Formal)","2021.2.3","Win32",60.24096386,"",NA,"",NA,NA,NA,NA,NA,NA,NA,"","","",NA,"i",1,0.564,0,21,21,36,1,"自卑","i","",NA,NA,NA,NA,NA,NA,"",NA,"",NA,NA,NA,NA,NA,NA,NA,"",NA,"",NA,NA,NA,NA,NA,NA,NA,"","","",NA,"",NA,NA,NA,NA,NA,NA,NA,"",NA,"25"
"",NA,"",NA,"",NA,NA,NA,NA,NA,NA,NA,"","",1,1,"2024-08-24_20h52.25.337","IAT(Formal)","2021.2.3","Win32",60.24096386,"",NA,"",NA,NA,NA,NA,NA,NA,NA,"","","",NA,"i",1,0.5799,0,22,22,44,1,"暴躁","i","",NA,NA,NA,NA,NA,NA,"",NA,"",NA,NA,NA,NA,NA,NA,NA,"",NA,"",NA,NA,NA,NA,NA,NA,NA,"","","",NA,"",NA,NA,NA,NA,NA,NA,NA,"",NA,"25"
"",NA,"",NA,"",NA,NA,NA,NA,NA,NA,NA,"","",1,1,"2024-08-24_20h52.25.337","IAT(Formal)","2021.2.3","Win32",60.24096386,"",NA,"",NA,NA,NA,NA,NA,NA,NA,"","","",NA,"i",1,0.6939,0,23,23,9,1,"其他","i","",NA,NA,NA,NA,NA,NA,"",NA,"",NA,NA,NA,NA,NA,NA,NA,"",NA,"",NA,NA,NA,NA,NA,NA,NA,"","","",NA,"",NA,NA,NA,NA,NA,NA,NA,"",NA,"25"
"",NA,"",NA,"",NA,NA,NA,NA,NA,NA,NA,"","",1,1,"2024-08-24_20h52.25.337","IAT(Formal)","2021.2.3","Win32",60.24096386,"",NA,"",NA,NA,NA,NA,NA,NA,NA,"","","",NA,"i",1,0.5863,0,24,24,68,1,"他人","i","",NA,NA,NA,NA,NA,NA,"",NA,"",NA,NA,NA,NA,NA,NA,NA,"",NA,"",NA,NA,NA,NA,NA,NA,NA,"","","",NA,"",NA,NA,NA,NA,NA,NA,NA,"",NA,"25"
"",NA,"",NA,"",NA,NA,NA,NA,NA,NA,NA,"","",1,1,"2024-08-24_20h52.25.337","IAT(Formal)","2021.2.3","Win32",60.24096386,"",NA,"",NA,NA,NA,NA,NA,NA,NA,"","","",NA,"e",1,0.5743,0,25,25,73,1,"自己","e","",NA,NA,NA,NA,NA,NA,"",NA,"",NA,NA,NA,NA,NA,NA,NA,"",NA,"",NA,NA,NA,NA,NA,NA,NA,"","","",NA,"",NA,NA,NA,NA,NA,NA,NA,"",NA,"25"
"",NA,"",NA,"",NA,NA,NA,NA,NA,NA,NA,"","",1,1,"2024-08-24_20h52.25.337","IAT(Formal)","2021.2.3","Win32",60.24096386,"",NA,"",NA,NA,NA,NA,NA,NA,NA,"","","",NA,"i",1,0.6121,0,26,26,30,1,"卑鄙","i","",NA,NA,NA,NA,NA,NA,"",NA,"",NA,NA,NA,NA,NA,NA,NA,"",NA,"",NA,NA,NA,NA,NA,NA,NA,"","","",NA,"",NA,NA,NA,NA,NA,NA,NA,"",NA,"25"
"",NA,"",NA,"",NA,NA,NA,NA,NA,NA,NA,"","",1,1,"2024-08-24_20h52.25.337","IAT(Formal)","2021.2.3","Win32",60.24096386,"",NA,"",NA,NA,NA,NA,NA,NA,NA,"","","",NA,"e",1,0.5319,0,27,27,72,1,"我们","e","",NA,NA,NA,NA,NA,NA,"",NA,"",NA,NA,NA,NA,NA,NA,NA,"",NA,"",NA,NA,NA,NA,NA,NA,NA,"","","",NA,"",NA,NA,NA,NA,NA,NA,NA,"",NA,"25"
"",NA,"",NA,"",NA,NA,NA,NA,NA,NA,NA,"","",1,1,"2024-08-24_20h52.25.337","IAT(Formal)","2021.2.3","Win32",60.24096386,"",NA,"",NA,NA,NA,NA,NA,NA,NA,"","","",NA,"i",1,0.5169,0,28,28,69,1,"其他","i","",NA,NA,NA,NA,NA,NA,"",NA,"",NA,NA,NA,NA,NA,NA,NA,"",NA,"",NA,NA,NA,NA,NA,NA,NA,"","","",NA,"",NA,NA,NA,NA,NA,NA,NA,"",NA,"25"
"",NA,"",NA,"",NA,NA,NA,NA,NA,NA,NA,"","",1,1,"2024-08-24_20h52.25.337","IAT(Formal)","2021.2.3","Win32",60.24096386,"",NA,"",NA,NA,NA,NA,NA,NA,NA,"","","",NA,"i",1,1.2176,0,29,29,57,1,"他的","i","",NA,NA,NA,NA,NA,NA,"",NA,"",NA,NA,NA,NA,NA,NA,NA,"",NA,"",NA,NA,NA,NA,NA,NA,NA,"","","",NA,"",NA,NA,NA,NA,NA,NA,NA,"",NA,"25"
"",NA,"",NA,"",NA,NA,NA,NA,NA,NA,NA,"","",1,1,"2024-08-24_20h52.25.337","IAT(Formal)","2021.2.3","Win32",60.24096386,"",NA,"",NA,NA,NA,NA,NA,NA,NA,"","","",NA,"i",1,0.6821,0,30,30,42,1,"凶狠","i","",NA,NA,NA,NA,NA,NA,"",NA,"",NA,NA,NA,NA,NA,NA,NA,"",NA,"",NA,NA,NA,NA,NA,NA,NA,"","","",NA,"",NA,NA,NA,NA,NA,NA,NA,"",NA,"25"
"",NA,"",NA,"",NA,NA,NA,NA,NA,NA,NA,"","",1,1,"2024-08-24_20h52.25.337","IAT(Formal)","2021.2.3","Win32",60.24096386,"",NA,"",NA,NA,NA,NA,NA,NA,NA,"","","",NA,"e",1,0.5785,0,31,31,70,1,"我","e","",NA,NA,NA,NA,NA,NA,"",NA,"",NA,NA,NA,NA,NA,NA,NA,"",NA,"",NA,NA,NA,NA,NA,NA,NA,"","","",NA,"",NA,NA,NA,NA,NA,NA,NA,"",NA,"25"
"",NA,"",NA,"",NA,NA,NA,NA,NA,NA,NA,"","",1,1,"2024-08-24_20h52.25.337","IAT(Formal)","2021.2.3","Win32",60.24096386,"",NA,"",NA,NA,NA,NA,NA,NA,NA,"","","",NA,"e",1,0.6172,0,32,32,13,1,"杰出","e","",NA,NA,NA,NA,NA,NA,"",NA,"",NA,NA,NA,NA,NA,NA,NA,"",NA,"",NA,NA,NA,NA,NA,NA,NA,"","","",NA,"",NA,NA,NA,NA,NA,NA,NA,"",NA,"25"
"",NA,"",NA,"",NA,NA,NA,NA,NA,NA,NA,"","",1,1,"2024-08-24_20h52.25.337","IAT(Formal)","2021.2.3","Win32",60.24096386,"",NA,"",NA,NA,NA,NA,NA,NA,NA,"","","",NA,"i",1,0.5778,0,33,33,38,1,"鲁莽","i","",NA,NA,NA,NA,NA,NA,"",NA,"",NA,NA,NA,NA,NA,NA,NA,"",NA,"",NA,NA,NA,NA,NA,NA,NA,"","","",NA,"",NA,NA,NA,NA,NA,NA,NA,"",NA,"25"
"",NA,"",NA,"",NA,NA,NA,NA,NA,NA,NA,"","",1,1,"2024-08-24_20h52.25.337","IAT(Formal)","2021.2.3","Win32",60.24096386,"",NA,"",NA,NA,NA,NA,NA,NA,NA,"","","",NA,"e",1,0.5777,0,34,34,74,1,"俺","e","",NA,NA,NA,NA,NA,NA,"",NA,"",NA,NA,NA,NA,NA,NA,NA,"",NA,"",NA,NA,NA,NA,NA,NA,NA,"","","",NA,"",NA,NA,NA,NA,NA,NA,NA,"",NA,"25"
"",NA,"",NA,"",NA,NA,NA,NA,NA,NA,NA,"","",1,1,"2024-08-24_20h52.25.337","IAT(Formal)","2021.2.3","Win32",60.24096386,"",NA,"",NA,NA,NA,NA,NA,NA,NA,"","","",NA,"i",1,0.5619,0,35,35,67,1,"他的","i","",NA,NA,NA,NA,NA,NA,"",NA,"",NA,NA,NA,NA,NA,NA,NA,"",NA,"",NA,NA,NA,NA,NA,NA,NA,"","","",NA,"",NA,NA,NA,NA,NA,NA,NA,"",NA,"25"
"",NA,"",NA,"",NA,NA,NA,NA,NA,NA,NA,"","",1,1,"2024-08-24_20h52.25.337","IAT(Formal)","2021.2.3","Win32",60.24096386,"",NA,"",NA,NA,NA,NA,NA,NA,NA,"","","",NA,"e",1,0.5768,0,36,36,20,1,"认真","e","",NA,NA,NA,NA,NA,NA,"",NA,"",NA,NA,NA,NA,NA,NA,NA,"",NA,"",NA,NA,NA,NA,NA,NA,NA,"","","",NA,"",NA,NA,NA,NA,NA,NA,NA,"",NA,"25"
"",NA,"",NA,"",NA,NA,NA,NA,NA,NA,NA,"","",1,1,"2024-08-24_20h52.25.337","IAT(Formal)","2021.2.3","Win32",60.24096386,"",NA,"",NA,NA,NA,NA,NA,NA,NA,"","","",NA,"",0,NA,0,37,37,1,1,"我的","e","",NA,NA,NA,NA,NA,NA,"",NA,"",NA,NA,NA,NA,NA,NA,NA,"",NA,"",NA,NA,NA,NA,NA,NA,NA,"","","",NA,"",NA,NA,NA,NA,NA,NA,NA,"",NA,"25"
"",NA,"",NA,"",NA,NA,NA,NA,NA,NA,NA,"","",1,1,"2024-08-24_20h52.25.337","IAT(Formal)","2021.2.3","Win32",60.24096386,"",NA,"",NA,NA,NA,NA,NA,NA,NA,"","","",NA,"e",1,0.5804,0,38,38,3,1,"自己","e","",NA,NA,NA,NA,NA,NA,"",NA,"",NA,NA,NA,NA,NA,NA,NA,"",NA,"",NA,NA,NA,NA,NA,NA,NA,"","","",NA,"",NA,NA,NA,NA,NA,NA,NA,"",NA,"25"
"",NA,"",NA,"",NA,NA,NA,NA,NA,NA,NA,"","",1,1,"2024-08-24_20h52.25.337","IAT(Formal)","2021.2.3","Win32",60.24096386,"",NA,"",NA,NA,NA,NA,NA,NA,NA,"","","",NA,"i",1,0.4681,0,39,39,8,1,"他人","i","",NA,NA,NA,NA,NA,NA,"",NA,"",NA,NA,NA,NA,NA,NA,NA,"",NA,"",NA,NA,NA,NA,NA,NA,NA,"","","",NA,"",NA,NA,NA,NA,NA,NA,NA,"",NA,"25"
"",NA,"",NA,"",NA,NA,NA,NA,NA,NA,NA,"","",1,1,"2024-08-24_20h52.25.337","IAT(Formal)","2021.2.3","Win32",60.24096386,"",NA,"",NA,NA,NA,NA,NA,NA,NA,"","","",NA,"e",1,0.4692,0,40,40,60,1,"我","e","",NA,NA,NA,NA,NA,NA,"",NA,"",NA,NA,NA,NA,NA,NA,NA,"",NA,"",NA,NA,NA,NA,NA,NA,NA,"","","",NA,"",NA,NA,NA,NA,NA,NA,NA,"",NA,"25"
"",NA,"",NA,"",NA,NA,NA,NA,NA,NA,NA,"","",1,1,"2024-08-24_20h52.25.337","IAT(Formal)","2021.2.3","Win32",60.24096386,"",NA,"",NA,NA,NA,NA,NA,NA,NA,"","","",NA,"i",1,0.579,0,41,41,35,1,"消极","i","",NA,NA,NA,NA,NA,NA,"",NA,"",NA,NA,NA,NA,NA,NA,NA,"",NA,"",NA,NA,NA,NA,NA,NA,NA,"","","",NA,"",NA,NA,NA,NA,NA,NA,NA,"",NA,"25"
"",NA,"",NA,"",NA,NA,NA,NA,NA,NA,NA,"","",1,1,"2024-08-24_20h52.25.337","IAT(Formal)","2021.2.3","Win32",60.24096386,"",NA,"",NA,NA,NA,NA,NA,NA,NA,"","","",NA,"i",1,0.5117,0,42,42,45,1,"猖狂","i","",NA,NA,NA,NA,NA,NA,"",NA,"",NA,NA,NA,NA,NA,NA,NA,"",NA,"",NA,NA,NA,NA,NA,NA,NA,"","","",NA,"",NA,NA,NA,NA,NA,NA,NA,"",NA,"25"
"",NA,"",NA,"",NA,NA,NA,NA,NA,NA,NA,"","",1,1,"2024-08-24_20h52.25.337","IAT(Formal)","2021.2.3","Win32",60.24096386,"",NA,"",NA,NA,NA,NA,NA,NA,NA,"","","",NA,"e",1,0.5861,0,43,43,15,1,"诚实","e","",NA,NA,NA,NA,NA,NA,"",NA,"",NA,NA,NA,NA,NA,NA,NA,"",NA,"",NA,NA,NA,NA,NA,NA,NA,"","","",NA,"",NA,NA,NA,NA,NA,NA,NA,"",NA,"25"
"",NA,"",NA,"",NA,NA,NA,NA,NA,NA,NA,"","",1,1,"2024-08-24_20h52.25.337","IAT(Formal)","2021.2.3","Win32",60.24096386,"",NA,"",NA,NA,NA,NA,NA,NA,NA,"","","",NA,"i",1,0.6138,0,44,44,43,1,"自私","i","",NA,NA,NA,NA,NA,NA,"",NA,"",NA,NA,NA,NA,NA,NA,NA,"",NA,"",NA,NA,NA,NA,NA,NA,NA,"","","",NA,"",NA,NA,NA,NA,NA,NA,NA,"",NA,"25"
"",NA,"",NA,"",NA,NA,NA,NA,NA,NA,NA,"","",1,1,"2024-08-24_20h52.25.337","IAT(Formal)","2021.2.3","Win32",60.24096386,"",NA,"",NA,NA,NA,NA,NA,NA,NA,"","","",NA,"i",1,0.5464,0,45,45,66,1,"他们","i","",NA,NA,NA,NA,NA,NA,"",NA,"",NA,NA,NA,NA,NA,NA,NA,"",NA,"",NA,NA,NA,NA,NA,NA,NA,"","","",NA,"",NA,NA,NA,NA,NA,NA,NA,"",NA,"25"
"",NA,"",NA,"",NA,NA,NA,NA,NA,NA,NA,"","",1,1,"2024-08-24_20h52.25.337","IAT(Formal)","2021.2.3","Win32",60.24096386,"",NA,"",NA,NA,NA,NA,NA,NA,NA,"","","",NA,"i",1,0.5523,0,46,46,56,1,"他们","i","",NA,NA,NA,NA,NA,NA,"",NA,"",NA,NA,NA,NA,NA,NA,NA,"",NA,"",NA,NA,NA,NA,NA,NA,NA,"","","",NA,"",NA,NA,NA,NA,NA,NA,NA,"",NA,"25"
"",NA,"",NA,"",NA,NA,NA,NA,NA,NA,NA,"","",1,1,"2024-08-24_20h52.25.337","IAT(Formal)","2021.2.3","Win32",60.24096386,"",NA,"",NA,NA,NA,NA,NA,NA,NA,"","","",NA,"i",1,0.4157,0,47,47,78,1,"他人","i","",NA,NA,NA,NA,NA,NA,"",NA,"",NA,NA,NA,NA,NA,NA,NA,"",NA,"",NA,NA,NA,NA,NA,NA,NA,"","","",NA,"",NA,NA,NA,NA,NA,NA,NA,"",NA,"25"
"",NA,"",NA,"",NA,NA,NA,NA,NA,NA,NA,"","",1,1,"2024-08-24_20h52.25.337","IAT(Formal)","2021.2.3","Win32",60.24096386,"",NA,"",NA,NA,NA,NA,NA,NA,NA,"","","",NA,"e",1,0.5266,0,48,48,21,1,"稳重","e","",NA,NA,NA,NA,NA,NA,"",NA,"",NA,NA,NA,NA,NA,NA,NA,"",NA,"",NA,NA,NA,NA,NA,NA,NA,"","","",NA,"",NA,NA,NA,NA,NA,NA,NA,"",NA,"25"
"",NA,"",NA,"",NA,NA,NA,NA,NA,NA,NA,"","",1,1,"2024-08-24_20h52.25.337","IAT(Formal)","2021.2.3","Win32",60.24096386,"",NA,"",NA,NA,NA,NA,NA,NA,NA,"","","",NA,"i",1,0.5261,0,49,49,5,1,"他","i","",NA,NA,NA,NA,NA,NA,"",NA,"",NA,NA,NA,NA,NA,NA,NA,"",NA,"",NA,NA,NA,NA,NA,NA,NA,"","","",NA,"",NA,NA,NA,NA,NA,NA,NA,"",NA,"25"
"",NA,"",NA,"",NA,NA,NA,NA,NA,NA,NA,"","",1,1,"2024-08-24_20h52.25.337","IAT(Formal)","2021.2.3","Win32",60.24096386,"",NA,"",NA,NA,NA,NA,NA,NA,NA,"","","",NA,"e",1,0.6283,0,50,50,17,1,"勇敢","e","",NA,NA,NA,NA,NA,NA,"",NA,"",NA,NA,NA,NA,NA,NA,NA,"",NA,"",NA,NA,NA,NA,NA,NA,NA,"","","",NA,"",NA,NA,NA,NA,NA,NA,NA,"",NA,"25"
"",NA,"",NA,"",NA,NA,NA,NA,NA,NA,NA,"","",1,1,"2024-08-24_20h52.25.337","IAT(Formal)","2021.2.3","Win32",60.24096386,"",NA,"",NA,NA,NA,NA,NA,NA,NA,"","","",NA,"i",1,0.6198,0,51,51,46,1,"野蛮","i","",NA,NA,NA,NA,NA,NA,"",NA,"",NA,NA,NA,NA,NA,NA,NA,"",NA,"",NA,NA,NA,NA,NA,NA,NA,"","","",NA,"",NA,NA,NA,NA,NA,NA,NA,"",NA,"25"
"",NA,"",NA,"",NA,NA,NA,NA,NA,NA,NA,"","",1,1,"2024-08-24_20h52.25.337","IAT(Formal)","2021.2.3","Win32",60.24096386,"",NA,"",NA,NA,NA,NA,NA,NA,NA,"","","",NA,"e",1,0.5938,0,52,52,14,1,"乐观","e","",NA,NA,NA,NA,NA,NA,"",NA,"",NA,NA,NA,NA,NA,NA,NA,"",NA,"",NA,NA,NA,NA,NA,NA,NA,"","","",NA,"",NA,NA,NA,NA,NA,NA,NA,"",NA,"25"
"",NA,"",NA,"",NA,NA,NA,NA,NA,NA,NA,"","",1,1,"2024-08-24_20h52.25.337","IAT(Formal)","2021.2.3","Win32",60.24096386,"",NA,"",NA,NA,NA,NA,NA,NA,NA,"","","",NA,"e",1,0.511,0,53,53,19,1,"机智","e","",NA,NA,NA,NA,NA,NA,"",NA,"",NA,NA,NA,NA,NA,NA,NA,"",NA,"",NA,NA,NA,NA,NA,NA,NA,"","","",NA,"",NA,NA,NA,NA,NA,NA,NA,"",NA,"25"
"",NA,"",NA,"",NA,NA,NA,NA,NA,NA,NA,"","",1,1,"2024-08-24_20h52.25.337","IAT(Formal)","2021.2.3","Win32",60.24096386,"",NA,"",NA,NA,NA,NA,NA,NA,NA,"","","",NA,"e",1,0.5893,0,54,54,25,1,"细腻","e","",NA,NA,NA,NA,NA,NA,"",NA,"",NA,NA,NA,NA,NA,NA,NA,"",NA,"",NA,NA,NA,NA,NA,NA,NA,"","","",NA,"",NA,NA,NA,NA,NA,NA,NA,"",NA,"25"
"",NA,"",NA,"",NA,NA,NA,NA,NA,NA,NA,"","",1,1,"2024-08-24_20h52.25.337","IAT(Formal)","2021.2.3","Win32",60.24096386,"",NA,"",NA,NA,NA,NA,NA,NA,NA,"","","",NA,"e",1,0.4616,0,55,55,11,1,"崇高","e","",NA,NA,NA,NA,NA,NA,"",NA,"",NA,NA,NA,NA,NA,NA,NA,"",NA,"",NA,NA,NA,NA,NA,NA,NA,"","","",NA,"",NA,NA,NA,NA,NA,NA,NA,"",NA,"25"
"",NA,"",NA,"",NA,NA,NA,NA,NA,NA,NA,"","",1,1,"2024-08-24_20h52.25.337","IAT(Formal)","2021.2.3","Win32",60.24096386,"",NA,"",NA,NA,NA,NA,NA,NA,NA,"","","",NA,"e",1,0.5701,0,56,56,26,1,"冷静","e","",NA,NA,NA,NA,NA,NA,"",NA,"",NA,NA,NA,NA,NA,NA,NA,"",NA,"",NA,NA,NA,NA,NA,NA,NA,"","","",NA,"",NA,NA,NA,NA,NA,NA,NA,"",NA,"25"
"",NA,"",NA,"",NA,NA,NA,NA,NA,NA,NA,"","",1,1,"2024-08-24_20h52.25.337","IAT(Formal)","2021.2.3","Win32",60.24096386,"",NA,"",NA,NA,NA,NA,NA,NA,NA,"","","",NA,"e",1,0.4986,0,57,57,71,1,"我的","e","",NA,NA,NA,NA,NA,NA,"",NA,"",NA,NA,NA,NA,NA,NA,NA,"",NA,"",NA,NA,NA,NA,NA,NA,NA,"","","",NA,"",NA,NA,NA,NA,NA,NA,NA,"",NA,"25"
"",NA,"",NA,"",NA,NA,NA,NA,NA,NA,NA,"","",1,1,"2024-08-24_20h52.25.337","IAT(Formal)","2021.2.3","Win32",60.24096386,"",NA,"",NA,NA,NA,NA,NA,NA,NA,"","","",NA,"i",1,0.612,0,58,58,41,1,"散漫","i","",NA,NA,NA,NA,NA,NA,"",NA,"",NA,NA,NA,NA,NA,NA,NA,"",NA,"",NA,NA,NA,NA,NA,NA,NA,"","","",NA,"",NA,NA,NA,NA,NA,NA,NA,"",NA,"25"
"",NA,"",NA,"",NA,NA,NA,NA,NA,NA,NA,"","",1,1,"2024-08-24_20h52.25.337","IAT(Formal)","2021.2.3","Win32",60.24096386,"",NA,"",NA,NA,NA,NA,NA,NA,NA,"","","",NA,"i",1,0.5371,0,59,59,37,1,"傲慢","i","",NA,NA,NA,NA,NA,NA,"",NA,"",NA,NA,NA,NA,NA,NA,NA,"",NA,"",NA,NA,NA,NA,NA,NA,NA,"","","",NA,"",NA,NA,NA,NA,NA,NA,NA,"",NA,"25"
"",NA,"",NA,"",NA,NA,NA,NA,NA,NA,NA,"","",1,1,"2024-08-24_20h52.25.337","IAT(Formal)","2021.2.3","Win32",60.24096386,"",NA,"",NA,NA,NA,NA,NA,NA,NA,"","","",NA,"i",1,0.6735,0,60,60,47,1,"固执","i","",NA,NA,NA,NA,NA,NA,"",NA,"",NA,NA,NA,NA,NA,NA,NA,"",NA,"",NA,NA,NA,NA,NA,NA,NA,"","","",NA,"",NA,NA,NA,NA,NA,NA,NA,"",NA,"25"
"",NA,"",NA,"",NA,NA,NA,NA,NA,NA,NA,"","",1,1,"2024-08-24_20h52.25.337","IAT(Formal)","2021.2.3","Win32",60.24096386,"",NA,"",NA,NA,NA,NA,NA,NA,NA,"","","",NA,"e",1,0.6387,0,61,61,27,1,"热情","e","",NA,NA,NA,NA,NA,NA,"",NA,"",NA,NA,NA,NA,NA,NA,NA,"",NA,"",NA,NA,NA,NA,NA,NA,NA,"","","",NA,"",NA,NA,NA,NA,NA,NA,NA,"",NA,"25"
"",NA,"",NA,"",NA,NA,NA,NA,NA,NA,NA,"","",1,1,"2024-08-24_20h52.25.337","IAT(Formal)","2021.2.3","Win32",60.24096386,"",NA,"",NA,NA,NA,NA,NA,NA,NA,"","","",NA,"e",1,0.5008,0,62,62,2,1,"我们","e","",NA,NA,NA,NA,NA,NA,"",NA,"",NA,NA,NA,NA,NA,NA,NA,"",NA,"",NA,NA,NA,NA,NA,NA,NA,"","","",NA,"",NA,NA,NA,NA,NA,NA,NA,"",NA,"25"
"",NA,"",NA,"",NA,NA,NA,NA,NA,NA,NA,"","",1,1,"2024-08-24_20h52.25.337","IAT(Formal)","2021.2.3","Win32",60.24096386,"",NA,"",NA,NA,NA,NA,NA,NA,NA,"","","",NA,"e",1,0.4128,0,63,63,51,1,"我的","e","",NA,NA,NA,NA,NA,NA,"",NA,"",NA,NA,NA,NA,NA,NA,NA,"",NA,"",NA,NA,NA,NA,NA,NA,NA,"","","",NA,"",NA,NA,NA,NA,NA,NA,NA,"",NA,"25"
"",NA,"",NA,"",NA,NA,NA,NA,NA,NA,NA,"","",1,1,"2024-08-24_20h52.25.337","IAT(Formal)","2021.2.3","Win32",60.24096386,"",NA,"",NA,NA,NA,NA,NA,NA,NA,"","","",NA,"i",1,0.5384,0,64,64,6,1,"他们","i","",NA,NA,NA,NA,NA,NA,"",NA,"",NA,NA,NA,NA,NA,NA,NA,"",NA,"",NA,NA,NA,NA,NA,NA,NA,"","","",NA,"",NA,NA,NA,NA,NA,NA,NA,"",NA,"25"
"",NA,"",NA,"",NA,NA,NA,NA,NA,NA,NA,"","",1,1,"2024-08-24_20h52.25.337","IAT(Formal)","2021.2.3","Win32",60.24096386,"",NA,"",NA,NA,NA,NA,NA,NA,NA,"","","",NA,"i",1,0.4546,0,65,65,65,1,"他","i","",NA,NA,NA,NA,NA,NA,"",NA,"",NA,NA,NA,NA,NA,NA,NA,"",NA,"",NA,NA,NA,NA,NA,NA,NA,"","","",NA,"",NA,NA,NA,NA,NA,NA,NA,"",NA,"25"
"",NA,"",NA,"",NA,NA,NA,NA,NA,NA,NA,"","",1,1,"2024-08-24_20h52.25.337","IAT(Formal)","2021.2.3","Win32",60.24096386,"",NA,"",NA,NA,NA,NA,NA,NA,NA,"","","",NA,"i",1,0.6786,0,66,66,39,1,"冒失","i","",NA,NA,NA,NA,NA,NA,"",NA,"",NA,NA,NA,NA,NA,NA,NA,"",NA,"",NA,NA,NA,NA,NA,NA,NA,"","","",NA,"",NA,NA,NA,NA,NA,NA,NA,"",NA,"25"
"",NA,"",NA,"",NA,NA,NA,NA,NA,NA,NA,"","",1,1,"2024-08-24_20h52.25.337","IAT(Formal)","2021.2.3","Win32",60.24096386,"",NA,"",NA,NA,NA,NA,NA,NA,NA,"","","",NA,"e",1,0.5117,0,67,67,10,1,"优秀","e","",NA,NA,NA,NA,NA,NA,"",NA,"",NA,NA,NA,NA,NA,NA,NA,"",NA,"",NA,NA,NA,NA,NA,NA,NA,"","","",NA,"",NA,NA,NA,NA,NA,NA,NA,"",NA,"25"
"",NA,"",NA,"",NA,NA,NA,NA,NA,NA,NA,"","",1,1,"2024-08-24_20h52.25.337","IAT(Formal)","2021.2.3","Win32",60.24096386,"",NA,"",NA,NA,NA,NA,NA,NA,NA,"","","",NA,"i",1,0.5486,0,68,68,59,1,"其他","i","",NA,NA,NA,NA,NA,NA,"",NA,"",NA,NA,NA,NA,NA,NA,NA,"",NA,"",NA,NA,NA,NA,NA,NA,NA,"","","",NA,"",NA,NA,NA,NA,NA,NA,NA,"",NA,"25"
"",NA,"",NA,"",NA,NA,NA,NA,NA,NA,NA,"","",1,1,"2024-08-24_20h52.25.337","IAT(Formal)","2021.2.3","Win32",60.24096386,"",NA,"",NA,NA,NA,NA,NA,NA,NA,"","","",NA,"e",1,0.5142,0,69,69,23,1,"公正","e","",NA,NA,NA,NA,NA,NA,"",NA,"",NA,NA,NA,NA,NA,NA,NA,"",NA,"",NA,NA,NA,NA,NA,NA,NA,"","","",NA,"",NA,NA,NA,NA,NA,NA,NA,"",NA,"25"
"",NA,"",NA,"",NA,NA,NA,NA,NA,NA,NA,"","",1,1,"2024-08-24_20h52.25.337","IAT(Formal)","2021.2.3","Win32",60.24096386,"",NA,"",NA,NA,NA,NA,NA,NA,NA,"","","",NA,"i",1,0.5671,0,70,70,48,1,"轻率","i","",NA,NA,NA,NA,NA,NA,"",NA,"",NA,NA,NA,NA,NA,NA,NA,"",NA,"",NA,NA,NA,NA,NA,NA,NA,"","","",NA,"",NA,NA,NA,NA,NA,NA,NA,"",NA,"25"
"",NA,"",NA,"",NA,NA,NA,NA,NA,NA,NA,"","",1,1,"2024-08-24_20h52.25.337","IAT(Formal)","2021.2.3","Win32",60.24096386,"",NA,"",NA,NA,NA,NA,NA,NA,NA,"","","",NA,"i",1,0.7959,0,71,71,76,1,"他们","i","",NA,NA,NA,NA,NA,NA,"",NA,"",NA,NA,NA,NA,NA,NA,NA,"",NA,"",NA,NA,NA,NA,NA,NA,NA,"","","",NA,"",NA,NA,NA,NA,NA,NA,NA,"",NA,"25"
"",NA,"",NA,"",NA,NA,NA,NA,NA,NA,NA,"","",1,1,"2024-08-24_20h52.25.337","IAT(Formal)","2021.2.3","Win32",60.24096386,"",NA,"",NA,NA,NA,NA,NA,NA,NA,"","","",NA,"i",1,0.5797,0,72,72,75,1,"他","i","",NA,NA,NA,NA,NA,NA,"",NA,"",NA,NA,NA,NA,NA,NA,NA,"",NA,"",NA,NA,NA,NA,NA,NA,NA,"","","",NA,"",NA,NA,NA,NA,NA,NA,NA,"",NA,"25"
"",NA,"",NA,"",NA,NA,NA,NA,NA,NA,NA,"","",1,1,"2024-08-24_20h52.25.337","IAT(Formal)","2021.2.3","Win32",60.24096386,"",NA,"",NA,NA,NA,NA,NA,NA,NA,"","","",NA,"e",1,0.4893,0,73,73,63,1,"自己","e","",NA,NA,NA,NA,NA,NA,"",NA,"",NA,NA,NA,NA,NA,NA,NA,"",NA,"",NA,NA,NA,NA,NA,NA,NA,"","","",NA,"",NA,NA,NA,NA,NA,NA,NA,"",NA,"25"
"",NA,"",NA,"",NA,NA,NA,NA,NA,NA,NA,"","",1,1,"2024-08-24_20h52.25.337","IAT(Formal)","2021.2.3","Win32",60.24096386,"",NA,"",NA,NA,NA,NA,NA,NA,NA,"","","",NA,"e",1,0.6171,0,74,74,61,1,"我的","e","",NA,NA,NA,NA,NA,NA,"",NA,"",NA,NA,NA,NA,NA,NA,NA,"",NA,"",NA,NA,NA,NA,NA,NA,NA,"","","",NA,"",NA,NA,NA,NA,NA,NA,NA,"",NA,"25"
"",NA,"",NA,"",NA,NA,NA,NA,NA,NA,NA,"","",1,1,"2024-08-24_20h52.25.337","IAT(Formal)","2021.2.3","Win32",60.24096386,"",NA,"",NA,NA,NA,NA,NA,NA,NA,"","","",NA,"i",1,0.4762,0,75,75,58,1,"他人","i","",NA,NA,NA,NA,NA,NA,"",NA,"",NA,NA,NA,NA,NA,NA,NA,"",NA,"",NA,NA,NA,NA,NA,NA,NA,"","","",NA,"",NA,NA,NA,NA,NA,NA,NA,"",NA,"25"
"",NA,"",NA,"",NA,NA,NA,NA,NA,NA,NA,"","",1,1,"2024-08-24_20h52.25.337","IAT(Formal)","2021.2.3","Win32",60.24096386,"",NA,"",NA,NA,NA,NA,NA,NA,NA,"","","",NA,"i",1,0.6719,0,76,76,7,1,"他的","i","",NA,NA,NA,NA,NA,NA,"",NA,"",NA,NA,NA,NA,NA,NA,NA,"",NA,"",NA,NA,NA,NA,NA,NA,NA,"","","",NA,"",NA,NA,NA,NA,NA,NA,NA,"",NA,"25"
"",NA,"",NA,"",NA,NA,NA,NA,NA,NA,NA,"","",1,1,"2024-08-24_20h52.25.337","IAT(Formal)","2021.2.3","Win32",60.24096386,"",NA,"",NA,NA,NA,NA,NA,NA,NA,"","","",NA,"i",1,0.5377,0,77,77,79,1,"其他","i","",NA,NA,NA,NA,NA,NA,"",NA,"",NA,NA,NA,NA,NA,NA,NA,"",NA,"",NA,NA,NA,NA,NA,NA,NA,"","","",NA,"",NA,NA,NA,NA,NA,NA,NA,"",NA,"25"
"",NA,"",NA,"",NA,NA,NA,NA,NA,NA,NA,"","",1,1,"2024-08-24_20h52.25.337","IAT(Formal)","2021.2.3","Win32",60.24096386,"",NA,"",NA,NA,NA,NA,NA,NA,NA,"","","",NA,"e",1,0.6129,0,78,78,0,1,"我","e","",NA,NA,NA,NA,NA,NA,"",NA,"",NA,NA,NA,NA,NA,NA,NA,"",NA,"",NA,NA,NA,NA,NA,NA,NA,"","","",NA,"",NA,NA,NA,NA,NA,NA,NA,"",NA,"25"
"",NA,"",NA,"",NA,NA,NA,NA,NA,NA,NA,"","",1,1,"2024-08-24_20h52.25.337","IAT(Formal)","2021.2.3","Win32",60.24096386,"",NA,"",NA,NA,NA,NA,NA,NA,NA,"","","",NA,"i",1,0.6056,0,79,79,32,1,"愚蠢","i","",NA,NA,NA,NA,NA,NA,"",NA,"",NA,NA,NA,NA,NA,NA,NA,"",NA,"",NA,NA,NA,NA,NA,NA,NA,"","","",NA,"",NA,NA,NA,NA,NA,NA,NA,"",NA,"25"
"",NA,"",NA,"",NA,NA,NA,NA,NA,NA,NA,"","",1,1,"2024-08-24_20h52.25.337","IAT(Formal)","2021.2.3","Win32",60.24096386,"",NA,"",NA,NA,NA,NA,NA,NA,NA,"","","",NA,"e",1,0.5583,NA,NA,NA,NA,NA,"优秀","e","space",3.8688,0,0,0,10,1,"",NA,"",NA,NA,NA,NA,NA,NA,NA,"",NA,"",NA,NA,NA,NA,NA,NA,NA,"","","",NA,"",NA,NA,NA,NA,NA,NA,NA,"",NA,"25"
"",NA,"",NA,"",NA,NA,NA,NA,NA,NA,NA,"","",1,1,"2024-08-24_20h52.25.337","IAT(Formal)","2021.2.3","Win32",60.24096386,"",NA,"",NA,NA,NA,NA,NA,NA,NA,"","","",NA,"e",0,0.4529,NA,NA,NA,NA,NA,"其他","i","",NA,0,1,1,59,1,"",NA,"",NA,NA,NA,NA,NA,NA,NA,"",NA,"",NA,NA,NA,NA,NA,NA,NA,"","","",NA,"",NA,NA,NA,NA,NA,NA,NA,"",NA,"25"
"",NA,"",NA,"",NA,NA,NA,NA,NA,NA,NA,"","",1,1,"2024-08-24_20h52.25.337","IAT(Formal)","2021.2.3","Win32",60.24096386,"",NA,"",NA,NA,NA,NA,NA,NA,NA,"","","",NA,"e",1,0.5176,NA,NA,NA,NA,NA,"我们","e","",NA,0,2,2,52,1,"",NA,"",NA,NA,NA,NA,NA,NA,NA,"",NA,"",NA,NA,NA,NA,NA,NA,NA,"","","",NA,"",NA,NA,NA,NA,NA,NA,NA,"",NA,"25"
"",NA,"",NA,"",NA,NA,NA,NA,NA,NA,NA,"","",1,1,"2024-08-24_20h52.25.337","IAT(Formal)","2021.2.3","Win32",60.24096386,"",NA,"",NA,NA,NA,NA,NA,NA,NA,"","","",NA,"e",1,0.4324,NA,NA,NA,NA,NA,"我","e","",NA,0,3,3,60,1,"",NA,"",NA,NA,NA,NA,NA,NA,NA,"",NA,"",NA,NA,NA,NA,NA,NA,NA,"","","",NA,"",NA,NA,NA,NA,NA,NA,NA,"",NA,"25"
"",NA,"",NA,"",NA,NA,NA,NA,NA,NA,NA,"","",1,1,"2024-08-24_20h52.25.337","IAT(Formal)","2021.2.3","Win32",60.24096386,"",NA,"",NA,NA,NA,NA,NA,NA,NA,"","","",NA,"i",1,0.4075,NA,NA,NA,NA,NA,"固执","i","",NA,0,4,4,47,1,"",NA,"",NA,NA,NA,NA,NA,NA,NA,"",NA,"",NA,NA,NA,NA,NA,NA,NA,"","","",NA,"",NA,NA,NA,NA,NA,NA,NA,"",NA,"25"
"",NA,"",NA,"",NA,NA,NA,NA,NA,NA,NA,"","",1,1,"2024-08-24_20h52.25.337","IAT(Formal)","2021.2.3","Win32",60.24096386,"",NA,"",NA,NA,NA,NA,NA,NA,NA,"","","",NA,"i",1,0.4821,NA,NA,NA,NA,NA,"他的","i","",NA,0,5,5,77,1,"",NA,"",NA,NA,NA,NA,NA,NA,NA,"",NA,"",NA,NA,NA,NA,NA,NA,NA,"","","",NA,"",NA,NA,NA,NA,NA,NA,NA,"",NA,"25"
"",NA,"",NA,"",NA,NA,NA,NA,NA,NA,NA,"","",1,1,"2024-08-24_20h52.25.337","IAT(Formal)","2021.2.3","Win32",60.24096386,"",NA,"",NA,NA,NA,NA,NA,NA,NA,"","","",NA,"i",0,0.4579,NA,NA,NA,NA,NA,"俺","e","",NA,0,6,6,4,1,"",NA,"",NA,NA,NA,NA,NA,NA,NA,"",NA,"",NA,NA,NA,NA,NA,NA,NA,"","","",NA,"",NA,NA,NA,NA,NA,NA,NA,"",NA,"25"
"",NA,"",NA,"",NA,NA,NA,NA,NA,NA,NA,"","",1,1,"2024-08-24_20h52.25.337","IAT(Formal)","2021.2.3","Win32",60.24096386,"",NA,"",NA,NA,NA,NA,NA,NA,NA,"","","",NA,"e",1,0.5456,NA,NA,NA,NA,NA,"俺","e","",NA,0,7,7,54,1,"",NA,"",NA,NA,NA,NA,NA,NA,NA,"",NA,"",NA,NA,NA,NA,NA,NA,NA,"","","",NA,"",NA,NA,NA,NA,NA,NA,NA,"",NA,"25"
"",NA,"",NA,"",NA,NA,NA,NA,NA,NA,NA,"","",1,1,"2024-08-24_20h52.25.337","IAT(Formal)","2021.2.3","Win32",60.24096386,"",NA,"",NA,NA,NA,NA,NA,NA,NA,"","","",NA,"i",1,0.5941,NA,NA,NA,NA,NA,"猖狂","i","",NA,0,8,8,45,1,"",NA,"",NA,NA,NA,NA,NA,NA,NA,"",NA,"",NA,NA,NA,NA,NA,NA,NA,"","","",NA,"",NA,NA,NA,NA,NA,NA,NA,"",NA,"25"
"",NA,"",NA,"",NA,NA,NA,NA,NA,NA,NA,"","",1,1,"2024-08-24_20h52.25.337","IAT(Formal)","2021.2.3","Win32",60.24096386,"",NA,"",NA,NA,NA,NA,NA,NA,NA,"","","",NA,"i",1,0.5688,NA,NA,NA,NA,NA,"他的","i","",NA,0,9,9,57,1,"",NA,"",NA,NA,NA,NA,NA,NA,NA,"",NA,"",NA,NA,NA,NA,NA,NA,NA,"","","",NA,"",NA,NA,NA,NA,NA,NA,NA,"",NA,"25"
"",NA,"",NA,"",NA,NA,NA,NA,NA,NA,NA,"","",1,1,"2024-08-24_20h52.25.337","IAT(Formal)","2021.2.3","Win32",60.24096386,"",NA,"",NA,NA,NA,NA,NA,NA,NA,"","","",NA,"i",1,0.6873,NA,NA,NA,NA,NA,"刻薄","i","",NA,0,10,10,33,1,"",NA,"",NA,NA,NA,NA,NA,NA,NA,"",NA,"",NA,NA,NA,NA,NA,NA,NA,"","","",NA,"",NA,NA,NA,NA,NA,NA,NA,"",NA,"25"
"",NA,"",NA,"",NA,NA,NA,NA,NA,NA,NA,"","",1,1,"2024-08-24_20h52.25.337","IAT(Formal)","2021.2.3","Win32",60.24096386,"",NA,"",NA,NA,NA,NA,NA,NA,NA,"","","",NA,"i",1,0.5375,NA,NA,NA,NA,NA,"其他","i","",NA,0,11,11,79,1,"",NA,"",NA,NA,NA,NA,NA,NA,NA,"",NA,"",NA,NA,NA,NA,NA,NA,NA,"","","",NA,"",NA,NA,NA,NA,NA,NA,NA,"",NA,"25"
"",NA,"",NA,"",NA,NA,NA,NA,NA,NA,NA,"","",1,1,"2024-08-24_20h52.25.337","IAT(Formal)","2021.2.3","Win32",60.24096386,"",NA,"",NA,NA,NA,NA,NA,NA,NA,"","","",NA,"e",1,0.5081,NA,NA,NA,NA,NA,"我","e","",NA,0,12,12,70,1,"",NA,"",NA,NA,NA,NA,NA,NA,NA,"",NA,"",NA,NA,NA,NA,NA,NA,NA,"","","",NA,"",NA,NA,NA,NA,NA,NA,NA,"",NA,"25"
"",NA,"",NA,"",NA,NA,NA,NA,NA,NA,NA,"","",1,1,"2024-08-24_20h52.25.337","IAT(Formal)","2021.2.3","Win32",60.24096386,"",NA,"",NA,NA,NA,NA,NA,NA,NA,"","","",NA,"i",1,0.5015,NA,NA,NA,NA,NA,"他的","i","",NA,0,13,13,67,1,"",NA,"",NA,NA,NA,NA,NA,NA,NA,"",NA,"",NA,NA,NA,NA,NA,NA,NA,"","","",NA,"",NA,NA,NA,NA,NA,NA,NA,"",NA,"25"
"",NA,"",NA,"",NA,NA,NA,NA,NA,NA,NA,"","",1,1,"2024-08-24_20h52.25.337","IAT(Formal)","2021.2.3","Win32",60.24096386,"",NA,"",NA,NA,NA,NA,NA,NA,NA,"","","",NA,"e",1,0.9679,NA,NA,NA,NA,NA,"勇敢","e","",NA,0,14,14,17,1,"",NA,"",NA,NA,NA,NA,NA,NA,NA,"",NA,"",NA,NA,NA,NA,NA,NA,NA,"","","",NA,"",NA,NA,NA,NA,NA,NA,NA,"",NA,"25"
"",NA,"",NA,"",NA,NA,NA,NA,NA,NA,NA,"","",1,1,"2024-08-24_20h52.25.337","IAT(Formal)","2021.2.3","Win32",60.24096386,"",NA,"",NA,NA,NA,NA,NA,NA,NA,"","","",NA,"e",1,0.5541,NA,NA,NA,NA,NA,"公正","e","",NA,0,15,15,23,1,"",NA,"",NA,NA,NA,NA,NA,NA,NA,"",NA,"",NA,NA,NA,NA,NA,NA,NA,"","","",NA,"",NA,NA,NA,NA,NA,NA,NA,"",NA,"25"
"",NA,"",NA,"",NA,NA,NA,NA,NA,NA,NA,"","",1,1,"2024-08-24_20h52.25.337","IAT(Formal)","2021.2.3","Win32",60.24096386,"",NA,"",NA,NA,NA,NA,NA,NA,NA,"","","",NA,"i",1,1.086,NA,NA,NA,NA,NA,"他们","i","",NA,0,16,16,76,1,"",NA,"",NA,NA,NA,NA,NA,NA,NA,"",NA,"",NA,NA,NA,NA,NA,NA,NA,"","","",NA,"",NA,NA,NA,NA,NA,NA,NA,"",NA,"25"
"",NA,"",NA,"",NA,NA,NA,NA,NA,NA,NA,"","",1,1,"2024-08-24_20h52.25.337","IAT(Formal)","2021.2.3","Win32",60.24096386,"",NA,"",NA,NA,NA,NA,NA,NA,NA,"","","",NA,"i",1,0.6666,NA,NA,NA,NA,NA,"散漫","i","",NA,0,17,17,41,1,"",NA,"",NA,NA,NA,NA,NA,NA,NA,"",NA,"",NA,NA,NA,NA,NA,NA,NA,"","","",NA,"",NA,NA,NA,NA,NA,NA,NA,"",NA,"25"
"",NA,"",NA,"",NA,NA,NA,NA,NA,NA,NA,"","",1,1,"2024-08-24_20h52.25.337","IAT(Formal)","2021.2.3","Win32",60.24096386,"",NA,"",NA,NA,NA,NA,NA,NA,NA,"","","",NA,"i",1,0.6706,NA,NA,NA,NA,NA,"卑鄙","i","",NA,0,18,18,30,1,"",NA,"",NA,NA,NA,NA,NA,NA,NA,"",NA,"",NA,NA,NA,NA,NA,NA,NA,"","","",NA,"",NA,NA,NA,NA,NA,NA,NA,"",NA,"25"
"",NA,"",NA,"",NA,NA,NA,NA,NA,NA,NA,"","",1,1,"2024-08-24_20h52.25.337","IAT(Formal)","2021.2.3","Win32",60.24096386,"",NA,"",NA,NA,NA,NA,NA,NA,NA,"","","",NA,"e",1,0.6187,NA,NA,NA,NA,NA,"我的","e","",NA,0,19,19,61,1,"",NA,"",NA,NA,NA,NA,NA,NA,NA,"",NA,"",NA,NA,NA,NA,NA,NA,NA,"","","",NA,"",NA,NA,NA,NA,NA,NA,NA,"",NA,"25"
"",NA,"",NA,"",NA,NA,NA,NA,NA,NA,NA,"","",1,1,"2024-08-24_20h52.25.337","IAT(Formal)","2021.2.3","Win32",60.24096386,"",NA,"",NA,NA,NA,NA,NA,NA,NA,"","","",NA,"i",1,0.5128,NA,NA,NA,NA,NA,"傲慢","i","",NA,0,20,20,37,1,"",NA,"",NA,NA,NA,NA,NA,NA,NA,"",NA,"",NA,NA,NA,NA,NA,NA,NA,"","","",NA,"",NA,NA,NA,NA,NA,NA,NA,"",NA,"25"
"",NA,"",NA,"",NA,NA,NA,NA,NA,NA,NA,"","",1,1,"2024-08-24_20h52.25.337","IAT(Formal)","2021.2.3","Win32",60.24096386,"",NA,"",NA,NA,NA,NA,NA,NA,NA,"","","",NA,"e",1,0.4765,NA,NA,NA,NA,NA,"我的","e","",NA,0,21,21,51,1,"",NA,"",NA,NA,NA,NA,NA,NA,NA,"",NA,"",NA,NA,NA,NA,NA,NA,NA,"","","",NA,"",NA,NA,NA,NA,NA,NA,NA,"",NA,"25"
"",NA,"",NA,"",NA,NA,NA,NA,NA,NA,NA,"","",1,1,"2024-08-24_20h52.25.337","IAT(Formal)","2021.2.3","Win32",60.24096386,"",NA,"",NA,NA,NA,NA,NA,NA,NA,"","","",NA,"e",1,0.568,NA,NA,NA,NA,NA,"俺","e","",NA,0,22,22,74,1,"",NA,"",NA,NA,NA,NA,NA,NA,NA,"",NA,"",NA,NA,NA,NA,NA,NA,NA,"","","",NA,"",NA,NA,NA,NA,NA,NA,NA,"",NA,"25"
"",NA,"",NA,"",NA,NA,NA,NA,NA,NA,NA,"","",1,1,"2024-08-24_20h52.25.337","IAT(Formal)","2021.2.3","Win32",60.24096386,"",NA,"",NA,NA,NA,NA,NA,NA,NA,"","","",NA,"i",1,0.4449,NA,NA,NA,NA,NA,"暴躁","i","",NA,0,23,23,44,1,"",NA,"",NA,NA,NA,NA,NA,NA,NA,"",NA,"",NA,NA,NA,NA,NA,NA,NA,"","","",NA,"",NA,NA,NA,NA,NA,NA,NA,"",NA,"25"
"",NA,"",NA,"",NA,NA,NA,NA,NA,NA,NA,"","",1,1,"2024-08-24_20h52.25.337","IAT(Formal)","2021.2.3","Win32",60.24096386,"",NA,"",NA,NA,NA,NA,NA,NA,NA,"","","",NA,"i",1,0.5721,NA,NA,NA,NA,NA,"消极","i","",NA,0,24,24,35,1,"",NA,"",NA,NA,NA,NA,NA,NA,NA,"",NA,"",NA,NA,NA,NA,NA,NA,NA,"","","",NA,"",NA,NA,NA,NA,NA,NA,NA,"",NA,"25"
"",NA,"",NA,"",NA,NA,NA,NA,NA,NA,NA,"","",1,1,"2024-08-24_20h52.25.337","IAT(Formal)","2021.2.3","Win32",60.24096386,"",NA,"",NA,NA,NA,NA,NA,NA,NA,"","","",NA,"e",1,0.5015,NA,NA,NA,NA,NA,"我的","e","",NA,0,25,25,71,1,"",NA,"",NA,NA,NA,NA,NA,NA,NA,"",NA,"",NA,NA,NA,NA,NA,NA,NA,"","","",NA,"",NA,NA,NA,NA,NA,NA,NA,"",NA,"25"
"",NA,"",NA,"",NA,NA,NA,NA,NA,NA,NA,"","",1,1,"2024-08-24_20h52.25.337","IAT(Formal)","2021.2.3","Win32",60.24096386,"",NA,"",NA,NA,NA,NA,NA,NA,NA,"","","",NA,"i",1,0.5996,NA,NA,NA,NA,NA,"悲观","i","",NA,0,26,26,34,1,"",NA,"",NA,NA,NA,NA,NA,NA,NA,"",NA,"",NA,NA,NA,NA,NA,NA,NA,"","","",NA,"",NA,NA,NA,NA,NA,NA,NA,"",NA,"25"
"",NA,"",NA,"",NA,NA,NA,NA,NA,NA,NA,"","",1,1,"2024-08-24_20h52.25.337","IAT(Formal)","2021.2.3","Win32",60.24096386,"",NA,"",NA,NA,NA,NA,NA,NA,NA,"","","",NA,"e",1,0.6192,NA,NA,NA,NA,NA,"我们","e","",NA,0,27,27,2,1,"",NA,"",NA,NA,NA,NA,NA,NA,NA,"",NA,"",NA,NA,NA,NA,NA,NA,NA,"","","",NA,"",NA,NA,NA,NA,NA,NA,NA,"",NA,"25"
"",NA,"",NA,"",NA,NA,NA,NA,NA,NA,NA,"","",1,1,"2024-08-24_20h52.25.337","IAT(Formal)","2021.2.3","Win32",60.24096386,"",NA,"",NA,NA,NA,NA,NA,NA,NA,"","","",NA,"e",1,0.6673,NA,NA,NA,NA,NA,"我的","e","",NA,0,28,28,1,1,"",NA,"",NA,NA,NA,NA,NA,NA,NA,"",NA,"",NA,NA,NA,NA,NA,NA,NA,"","","",NA,"",NA,NA,NA,NA,NA,NA,NA,"",NA,"25"
"",NA,"",NA,"",NA,NA,NA,NA,NA,NA,NA,"","",1,1,"2024-08-24_20h52.25.337","IAT(Formal)","2021.2.3","Win32",60.24096386,"",NA,"",NA,NA,NA,NA,NA,NA,NA,"","","",NA,"i",1,0.4867,NA,NA,NA,NA,NA,"他人","i","",NA,0,29,29,8,1,"",NA,"",NA,NA,NA,NA,NA,NA,NA,"",NA,"",NA,NA,NA,NA,NA,NA,NA,"","","",NA,"",NA,NA,NA,NA,NA,NA,NA,"",NA,"25"
"",NA,"",NA,"",NA,NA,NA,NA,NA,NA,NA,"","",1,1,"2024-08-24_20h52.25.337","IAT(Formal)","2021.2.3","Win32",60.24096386,"",NA,"",NA,NA,NA,NA,NA,NA,NA,"","","",NA,"i",1,0.5631,NA,NA,NA,NA,NA,"凶狠","i","",NA,0,30,30,42,1,"",NA,"",NA,NA,NA,NA,NA,NA,NA,"",NA,"",NA,NA,NA,NA,NA,NA,NA,"","","",NA,"",NA,NA,NA,NA,NA,NA,NA,"",NA,"25"
"",NA,"",NA,"",NA,NA,NA,NA,NA,NA,NA,"","",1,1,"2024-08-24_20h52.25.337","IAT(Formal)","2021.2.3","Win32",60.24096386,"",NA,"",NA,NA,NA,NA,NA,NA,NA,"","","",NA,"i",1,0.5753,NA,NA,NA,NA,NA,"他","i","",NA,0,31,31,5,1,"",NA,"",NA,NA,NA,NA,NA,NA,NA,"",NA,"",NA,NA,NA,NA,NA,NA,NA,"","","",NA,"",NA,NA,NA,NA,NA,NA,NA,"",NA,"25"
"",NA,"",NA,"",NA,NA,NA,NA,NA,NA,NA,"","",1,1,"2024-08-24_20h52.25.337","IAT(Formal)","2021.2.3","Win32",60.24096386,"",NA,"",NA,NA,NA,NA,NA,NA,NA,"","","",NA,"e",1,0.5733,NA,NA,NA,NA,NA,"我","e","",NA,0,32,32,0,1,"",NA,"",NA,NA,NA,NA,NA,NA,NA,"",NA,"",NA,NA,NA,NA,NA,NA,NA,"","","",NA,"",NA,NA,NA,NA,NA,NA,NA,"",NA,"25"
"",NA,"",NA,"",NA,NA,NA,NA,NA,NA,NA,"","",1,1,"2024-08-24_20h52.25.337","IAT(Formal)","2021.2.3","Win32",60.24096386,"",NA,"",NA,NA,NA,NA,NA,NA,NA,"","","",NA,"i",1,0.66,NA,NA,NA,NA,NA,"下贱","i","",NA,0,33,33,49,1,"",NA,"",NA,NA,NA,NA,NA,NA,NA,"",NA,"",NA,NA,NA,NA,NA,NA,NA,"","","",NA,"",NA,NA,NA,NA,NA,NA,NA,"",NA,"25"
"",NA,"",NA,"",NA,NA,NA,NA,NA,NA,NA,"","",1,1,"2024-08-24_20h52.25.337","IAT(Formal)","2021.2.3","Win32",60.24096386,"",NA,"",NA,NA,NA,NA,NA,NA,NA,"","","",NA,"e",1,0.6743,NA,NA,NA,NA,NA,"活泼","e","",NA,0,34,34,28,1,"",NA,"",NA,NA,NA,NA,NA,NA,NA,"",NA,"",NA,NA,NA,NA,NA,NA,NA,"","","",NA,"",NA,NA,NA,NA,NA,NA,NA,"",NA,"25"
"",NA,"",NA,"",NA,NA,NA,NA,NA,NA,NA,"","",1,1,"2024-08-24_20h52.25.337","IAT(Formal)","2021.2.3","Win32",60.24096386,"",NA,"",NA,NA,NA,NA,NA,NA,NA,"","","",NA,"e",1,0.6179,NA,NA,NA,NA,NA,"朴实","e","",NA,0,35,35,24,1,"",NA,"",NA,NA,NA,NA,NA,NA,NA,"",NA,"",NA,NA,NA,NA,NA,NA,NA,"","","",NA,"",NA,NA,NA,NA,NA,NA,NA,"",NA,"25"
"",NA,"",NA,"",NA,NA,NA,NA,NA,NA,NA,"","",1,1,"2024-08-24_20h52.25.337","IAT(Formal)","2021.2.3","Win32",60.24096386,"",NA,"",NA,NA,NA,NA,NA,NA,NA,"","","",NA,"i",1,0.4748,NA,NA,NA,NA,NA,"他们","i","",NA,0,36,36,56,1,"",NA,"",NA,NA,NA,NA,NA,NA,NA,"",NA,"",NA,NA,NA,NA,NA,NA,NA,"","","",NA,"",NA,NA,NA,NA,NA,NA,NA,"",NA,"25"
"",NA,"",NA,"",NA,NA,NA,NA,NA,NA,NA,"","",1,1,"2024-08-24_20h52.25.337","IAT(Formal)","2021.2.3","Win32",60.24096386,"",NA,"",NA,NA,NA,NA,NA,NA,NA,"","","",NA,"i",1,0.5192,NA,NA,NA,NA,NA,"他们","i","",NA,0,37,37,6,1,"",NA,"",NA,NA,NA,NA,NA,NA,NA,"",NA,"",NA,NA,NA,NA,NA,NA,NA,"","","",NA,"",NA,NA,NA,NA,NA,NA,NA,"",NA,"25"
"",NA,"",NA,"",NA,NA,NA,NA,NA,NA,NA,"","",1,1,"2024-08-24_20h52.25.337","IAT(Formal)","2021.2.3","Win32",60.24096386,"",NA,"",NA,NA,NA,NA,NA,NA,NA,"","","",NA,"e",1,0.6666,NA,NA,NA,NA,NA,"无私","e","",NA,0,38,38,22,1,"",NA,"",NA,NA,NA,NA,NA,NA,NA,"",NA,"",NA,NA,NA,NA,NA,NA,NA,"","","",NA,"",NA,NA,NA,NA,NA,NA,NA,"",NA,"25"
"",NA,"",NA,"",NA,NA,NA,NA,NA,NA,NA,"","",1,1,"2024-08-24_20h52.25.337","IAT(Formal)","2021.2.3","Win32",60.24096386,"",NA,"",NA,NA,NA,NA,NA,NA,NA,"","","",NA,"e",1,0.5382,NA,NA,NA,NA,NA,"机智","e","",NA,0,39,39,19,1,"",NA,"",NA,NA,NA,NA,NA,NA,NA,"",NA,"",NA,NA,NA,NA,NA,NA,NA,"","","",NA,"",NA,NA,NA,NA,NA,NA,NA,"",NA,"25"
"",NA,"",NA,"",NA,NA,NA,NA,NA,NA,NA,"","",1,1,"2024-08-24_20h52.25.337","IAT(Formal)","2021.2.3","Win32",60.24096386,"",NA,"",NA,NA,NA,NA,NA,NA,NA,"","","",NA,"i",1,0.5062,NA,NA,NA,NA,NA,"其他","i","",NA,0,40,40,9,1,"",NA,"",NA,NA,NA,NA,NA,NA,NA,"",NA,"",NA,NA,NA,NA,NA,NA,NA,"","","",NA,"",NA,NA,NA,NA,NA,NA,NA,"",NA,"25"
"",NA,"",NA,"",NA,NA,NA,NA,NA,NA,NA,"","",1,1,"2024-08-24_20h52.25.337","IAT(Formal)","2021.2.3","Win32",60.24096386,"",NA,"",NA,NA,NA,NA,NA,NA,NA,"","","",NA,"e",1,0.5737,NA,NA,NA,NA,NA,"诚实","e","",NA,0,41,41,15,1,"",NA,"",NA,NA,NA,NA,NA,NA,NA,"",NA,"",NA,NA,NA,NA,NA,NA,NA,"","","",NA,"",NA,NA,NA,NA,NA,NA,NA,"",NA,"25"
"",NA,"",NA,"",NA,NA,NA,NA,NA,NA,NA,"","",1,1,"2024-08-24_20h52.25.337","IAT(Formal)","2021.2.3","Win32",60.24096386,"",NA,"",NA,NA,NA,NA,NA,NA,NA,"","","",NA,"i",1,0.5766,NA,NA,NA,NA,NA,"其他","i","",NA,0,42,42,69,1,"",NA,"",NA,NA,NA,NA,NA,NA,NA,"",NA,"",NA,NA,NA,NA,NA,NA,NA,"","","",NA,"",NA,NA,NA,NA,NA,NA,NA,"",NA,"25"
"",NA,"",NA,"",NA,NA,NA,NA,NA,NA,NA,"","",1,1,"2024-08-24_20h52.25.337","IAT(Formal)","2021.2.3","Win32",60.24096386,"",NA,"",NA,NA,NA,NA,NA,NA,NA,"","","",NA,"e",0,0.5244,NA,NA,NA,NA,NA,"自私","i","",NA,0,43,43,43,1,"",NA,"",NA,NA,NA,NA,NA,NA,NA,"",NA,"",NA,NA,NA,NA,NA,NA,NA,"","","",NA,"",NA,NA,NA,NA,NA,NA,NA,"",NA,"25"
"",NA,"",NA,"",NA,NA,NA,NA,NA,NA,NA,"","",1,1,"2024-08-24_20h52.25.337","IAT(Formal)","2021.2.3","Win32",60.24096386,"",NA,"",NA,NA,NA,NA,NA,NA,NA,"","","",NA,"e",1,0.5157,NA,NA,NA,NA,NA,"稳重","e","",NA,0,44,44,21,1,"",NA,"",NA,NA,NA,NA,NA,NA,NA,"",NA,"",NA,NA,NA,NA,NA,NA,NA,"","","",NA,"",NA,NA,NA,NA,NA,NA,NA,"",NA,"25"
"",NA,"",NA,"",NA,NA,NA,NA,NA,NA,NA,"","",1,1,"2024-08-24_20h52.25.337","IAT(Formal)","2021.2.3","Win32",60.24096386,"",NA,"",NA,NA,NA,NA,NA,NA,NA,"","","",NA,"i",1,0.4861,NA,NA,NA,NA,NA,"他人","i","",NA,0,45,45,68,1,"",NA,"",NA,NA,NA,NA,NA,NA,NA,"",NA,"",NA,NA,NA,NA,NA,NA,NA,"","","",NA,"",NA,NA,NA,NA,NA,NA,NA,"",NA,"25"
"",NA,"",NA,"",NA,NA,NA,NA,NA,NA,NA,"","",1,1,"2024-08-24_20h52.25.337","IAT(Formal)","2021.2.3","Win32",60.24096386,"",NA,"",NA,NA,NA,NA,NA,NA,NA,"","","",NA,"e",1,0.4929,NA,NA,NA,NA,NA,"我们","e","",NA,0,46,46,62,1,"",NA,"",NA,NA,NA,NA,NA,NA,NA,"",NA,"",NA,NA,NA,NA,NA,NA,NA,"","","",NA,"",NA,NA,NA,NA,NA,NA,NA,"",NA,"25"
"",NA,"",NA,"",NA,NA,NA,NA,NA,NA,NA,"","",1,1,"2024-08-24_20h52.25.337","IAT(Formal)","2021.2.3","Win32",60.24096386,"",NA,"",NA,NA,NA,NA,NA,NA,NA,"","","",NA,"e",1,0.5779,NA,NA,NA,NA,NA,"俺","e","",NA,0,47,47,64,1,"",NA,"",NA,NA,NA,NA,NA,NA,NA,"",NA,"",NA,NA,NA,NA,NA,NA,NA,"","","",NA,"",NA,NA,NA,NA,NA,NA,NA,"",NA,"25"
"",NA,"",NA,"",NA,NA,NA,NA,NA,NA,NA,"","",1,1,"2024-08-24_20h52.25.337","IAT(Formal)","2021.2.3","Win32",60.24096386,"",NA,"",NA,NA,NA,NA,NA,NA,NA,"","","",NA,"e",1,0.6124,NA,NA,NA,NA,NA,"杰出","e","",NA,0,48,48,13,1,"",NA,"",NA,NA,NA,NA,NA,NA,NA,"",NA,"",NA,NA,NA,NA,NA,NA,NA,"","","",NA,"",NA,NA,NA,NA,NA,NA,NA,"",NA,"25"
"",NA,"",NA,"",NA,NA,NA,NA,NA,NA,NA,"","",1,1,"2024-08-24_20h52.25.337","IAT(Formal)","2021.2.3","Win32",60.24096386,"",NA,"",NA,NA,NA,NA,NA,NA,NA,"","","",NA,"e",1,0.6046,NA,NA,NA,NA,NA,"细腻","e","",NA,0,49,49,25,1,"",NA,"",NA,NA,NA,NA,NA,NA,NA,"",NA,"",NA,NA,NA,NA,NA,NA,NA,"","","",NA,"",NA,NA,NA,NA,NA,NA,NA,"",NA,"25"
"",NA,"",NA,"",NA,NA,NA,NA,NA,NA,NA,"","",1,1,"2024-08-24_20h52.25.337","IAT(Formal)","2021.2.3","Win32",60.24096386,"",NA,"",NA,NA,NA,NA,NA,NA,NA,"","","",NA,"e",1,0.5721,NA,NA,NA,NA,NA,"诚恳","e","",NA,0,50,50,29,1,"",NA,"",NA,NA,NA,NA,NA,NA,NA,"",NA,"",NA,NA,NA,NA,NA,NA,NA,"","","",NA,"",NA,NA,NA,NA,NA,NA,NA,"",NA,"25"
"",NA,"",NA,"",NA,NA,NA,NA,NA,NA,NA,"","",1,1,"2024-08-24_20h52.25.337","IAT(Formal)","2021.2.3","Win32",60.24096386,"",NA,"",NA,NA,NA,NA,NA,NA,NA,"","","",NA,"e",1,0.445,NA,NA,NA,NA,NA,"自己","e","",NA,0,51,51,63,1,"",NA,"",NA,NA,NA,NA,NA,NA,NA,"",NA,"",NA,NA,NA,NA,NA,NA,NA,"","","",NA,"",NA,NA,NA,NA,NA,NA,NA,"",NA,"25"
"",NA,"",NA,"",NA,NA,NA,NA,NA,NA,NA,"","",1,1,"2024-08-24_20h52.25.337","IAT(Formal)","2021.2.3","Win32",60.24096386,"",NA,"",NA,NA,NA,NA,NA,NA,NA,"","","",NA,"e",1,0.6219,NA,NA,NA,NA,NA,"冷静","e","",NA,0,52,52,26,1,"",NA,"",NA,NA,NA,NA,NA,NA,NA,"",NA,"",NA,NA,NA,NA,NA,NA,NA,"","","",NA,"",NA,NA,NA,NA,NA,NA,NA,"",NA,"25"
"",NA,"",NA,"",NA,NA,NA,NA,NA,NA,NA,"","",1,1,"2024-08-24_20h52.25.337","IAT(Formal)","2021.2.3","Win32",60.24096386,"",NA,"",NA,NA,NA,NA,NA,NA,NA,"","","",NA,"i",1,0.5429,NA,NA,NA,NA,NA,"他的","i","",NA,0,53,53,7,1,"",NA,"",NA,NA,NA,NA,NA,NA,NA,"",NA,"",NA,NA,NA,NA,NA,NA,NA,"","","",NA,"",NA,NA,NA,NA,NA,NA,NA,"",NA,"25"
"",NA,"",NA,"",NA,NA,NA,NA,NA,NA,NA,"","",1,1,"2024-08-24_20h52.25.337","IAT(Formal)","2021.2.3","Win32",60.24096386,"",NA,"",NA,NA,NA,NA,NA,NA,NA,"","","",NA,"i",1,1.0446,NA,NA,NA,NA,NA,"他","i","",NA,0,54,54,65,1,"",NA,"",NA,NA,NA,NA,NA,NA,NA,"",NA,"",NA,NA,NA,NA,NA,NA,NA,"","","",NA,"",NA,NA,NA,NA,NA,NA,NA,"",NA,"25"
"",NA,"",NA,"",NA,NA,NA,NA,NA,NA,NA,"","",1,1,"2024-08-24_20h52.25.337","IAT(Formal)","2021.2.3","Win32",60.24096386,"",NA,"",NA,NA,NA,NA,NA,NA,NA,"","","",NA,"e",1,0.5057,NA,NA,NA,NA,NA,"认真","e","",NA,0,55,55,20,1,"",NA,"",NA,NA,NA,NA,NA,NA,NA,"",NA,"",NA,NA,NA,NA,NA,NA,NA,"","","",NA,"",NA,NA,NA,NA,NA,NA,NA,"",NA,"25"
"",NA,"",NA,"",NA,NA,NA,NA,NA,NA,NA,"","",1,1,"2024-08-24_20h52.25.337","IAT(Formal)","2021.2.3","Win32",60.24096386,"",NA,"",NA,NA,NA,NA,NA,NA,NA,"","","",NA,"i",1,0.602,NA,NA,NA,NA,NA,"野蛮","i","",NA,0,56,56,46,1,"",NA,"",NA,NA,NA,NA,NA,NA,NA,"",NA,"",NA,NA,NA,NA,NA,NA,NA,"","","",NA,"",NA,NA,NA,NA,NA,NA,NA,"",NA,"25"
"",NA,"",NA,"",NA,NA,NA,NA,NA,NA,NA,"","",1,1,"2024-08-24_20h52.25.337","IAT(Formal)","2021.2.3","Win32",60.24096386,"",NA,"",NA,NA,NA,NA,NA,NA,NA,"","","",NA,"i",0,0.7999,NA,NA,NA,NA,NA,"热情","e","",NA,0,57,57,27,1,"",NA,"",NA,NA,NA,NA,NA,NA,NA,"",NA,"",NA,NA,NA,NA,NA,NA,NA,"","","",NA,"",NA,NA,NA,NA,NA,NA,NA,"",NA,"25"
"",NA,"",NA,"",NA,NA,NA,NA,NA,NA,NA,"","",1,1,"2024-08-24_20h52.25.337","IAT(Formal)","2021.2.3","Win32",60.24096386,"",NA,"",NA,NA,NA,NA,NA,NA,NA,"","","",NA,"i",1,0.7359,NA,NA,NA,NA,NA,"虚伪","i","",NA,0,58,58,31,1,"",NA,"",NA,NA,NA,NA,NA,NA,NA,"",NA,"",NA,NA,NA,NA,NA,NA,NA,"","","",NA,"",NA,NA,NA,NA,NA,NA,NA,"",NA,"25"
"",NA,"",NA,"",NA,NA,NA,NA,NA,NA,NA,"","",1,1,"2024-08-24_20h52.25.337","IAT(Formal)","2021.2.3","Win32",60.24096386,"",NA,"",NA,NA,NA,NA,NA,NA,NA,"","","",NA,"i",1,0.6103,NA,NA,NA,NA,NA,"他们","i","",NA,0,59,59,66,1,"",NA,"",NA,NA,NA,NA,NA,NA,NA,"",NA,"",NA,NA,NA,NA,NA,NA,NA,"","","",NA,"",NA,NA,NA,NA,NA,NA,NA,"",NA,"25"
"",NA,"",NA,"",NA,NA,NA,NA,NA,NA,NA,"","",1,1,"2024-08-24_20h52.25.337","IAT(Formal)","2021.2.3","Win32",60.24096386,"",NA,"",NA,NA,NA,NA,NA,NA,NA,"","","",NA,"e",1,0.6371,NA,NA,NA,NA,NA,"正直","e","",NA,0,60,60,16,1,"",NA,"",NA,NA,NA,NA,NA,NA,NA,"",NA,"",NA,NA,NA,NA,NA,NA,NA,"","","",NA,"",NA,NA,NA,NA,NA,NA,NA,"",NA,"25"
"",NA,"",NA,"",NA,NA,NA,NA,NA,NA,NA,"","",1,1,"2024-08-24_20h52.25.337","IAT(Formal)","2021.2.3","Win32",60.24096386,"",NA,"",NA,NA,NA,NA,NA,NA,NA,"","","",NA,"e",1,0.6084,NA,NA,NA,NA,NA,"聪明","e","",NA,0,61,61,12,1,"",NA,"",NA,NA,NA,NA,NA,NA,NA,"",NA,"",NA,NA,NA,NA,NA,NA,NA,"","","",NA,"",NA,NA,NA,NA,NA,NA,NA,"",NA,"25"
"",NA,"",NA,"",NA,NA,NA,NA,NA,NA,NA,"","",1,1,"2024-08-24_20h52.25.337","IAT(Formal)","2021.2.3","Win32",60.24096386,"",NA,"",NA,NA,NA,NA,NA,NA,NA,"","","",NA,"e",1,0.6046,NA,NA,NA,NA,NA,"自己","e","",NA,0,62,62,73,1,"",NA,"",NA,NA,NA,NA,NA,NA,NA,"",NA,"",NA,NA,NA,NA,NA,NA,NA,"","","",NA,"",NA,NA,NA,NA,NA,NA,NA,"",NA,"25"
"",NA,"",NA,"",NA,NA,NA,NA,NA,NA,NA,"","",1,1,"2024-08-24_20h52.25.337","IAT(Formal)","2021.2.3","Win32",60.24096386,"",NA,"",NA,NA,NA,NA,NA,NA,NA,"","","",NA,"e",1,0.6281,NA,NA,NA,NA,NA,"自己","e","",NA,0,63,63,3,1,"",NA,"",NA,NA,NA,NA,NA,NA,NA,"",NA,"",NA,NA,NA,NA,NA,NA,NA,"","","",NA,"",NA,NA,NA,NA,NA,NA,NA,"",NA,"25"
"",NA,"",NA,"",NA,NA,NA,NA,NA,NA,NA,"","",1,1,"2024-08-24_20h52.25.337","IAT(Formal)","2021.2.3","Win32",60.24096386,"",NA,"",NA,NA,NA,NA,NA,NA,NA,"","","",NA,"e",1,0.6307,NA,NA,NA,NA,NA,"自己","e","",NA,0,64,64,53,1,"",NA,"",NA,NA,NA,NA,NA,NA,NA,"",NA,"",NA,NA,NA,NA,NA,NA,NA,"","","",NA,"",NA,NA,NA,NA,NA,NA,NA,"",NA,"25"
"",NA,"",NA,"",NA,NA,NA,NA,NA,NA,NA,"","",1,1,"2024-08-24_20h52.25.337","IAT(Formal)","2021.2.3","Win32",60.24096386,"",NA,"",NA,NA,NA,NA,NA,NA,NA,"","","",NA,"i",1,0.6052,NA,NA,NA,NA,NA,"他人","i","",NA,0,65,65,78,1,"",NA,"",NA,NA,NA,NA,NA,NA,NA,"",NA,"",NA,NA,NA,NA,NA,NA,NA,"","","",NA,"",NA,NA,NA,NA,NA,NA,NA,"",NA,"25"
"",NA,"",NA,"",NA,NA,NA,NA,NA,NA,NA,"","",1,1,"2024-08-24_20h52.25.337","IAT(Formal)","2021.2.3","Win32",60.24096386,"",NA,"",NA,NA,NA,NA,NA,NA,NA,"","","",NA,"e",1,0.6069,NA,NA,NA,NA,NA,"我们","e","",NA,0,66,66,72,1,"",NA,"",NA,NA,NA,NA,NA,NA,NA,"",NA,"",NA,NA,NA,NA,NA,NA,NA,"","","",NA,"",NA,NA,NA,NA,NA,NA,NA,"",NA,"25"
"",NA,"",NA,"",NA,NA,NA,NA,NA,NA,NA,"","",1,1,"2024-08-24_20h52.25.337","IAT(Formal)","2021.2.3","Win32",60.24096386,"",NA,"",NA,NA,NA,NA,NA,NA,NA,"","","",NA,"e",1,0.5848,NA,NA,NA,NA,NA,"乐观","e","",NA,0,67,67,14,1,"",NA,"",NA,NA,NA,NA,NA,NA,NA,"",NA,"",NA,NA,NA,NA,NA,NA,NA,"","","",NA,"",NA,NA,NA,NA,NA,NA,NA,"",NA,"25"
"",NA,"",NA,"",NA,NA,NA,NA,NA,NA,NA,"","",1,1,"2024-08-24_20h52.25.337","IAT(Formal)","2021.2.3","Win32",60.24096386,"",NA,"",NA,NA,NA,NA,NA,NA,NA,"","","",NA,"i",1,0.5888,NA,NA,NA,NA,NA,"执拗","i","",NA,0,68,68,40,1,"",NA,"",NA,NA,NA,NA,NA,NA,NA,"",NA,"",NA,NA,NA,NA,NA,NA,NA,"","","",NA,"",NA,NA,NA,NA,NA,NA,NA,"",NA,"25"
"",NA,"",NA,"",NA,NA,NA,NA,NA,NA,NA,"","",1,1,"2024-08-24_20h52.25.337","IAT(Formal)","2021.2.3","Win32",60.24096386,"",NA,"",NA,NA,NA,NA,NA,NA,NA,"","","",NA,"e",1,0.5369,NA,NA,NA,NA,NA,"我","e","",NA,0,69,69,50,1,"",NA,"",NA,NA,NA,NA,NA,NA,NA,"",NA,"",NA,NA,NA,NA,NA,NA,NA,"","","",NA,"",NA,NA,NA,NA,NA,NA,NA,"",NA,"25"
"",NA,"",NA,"",NA,NA,NA,NA,NA,NA,NA,"","",1,1,"2024-08-24_20h52.25.337","IAT(Formal)","2021.2.3","Win32",60.24096386,"",NA,"",NA,NA,NA,NA,NA,NA,NA,"","","",NA,"i",1,0.5009,NA,NA,NA,NA,NA,"愚蠢","i","",NA,0,70,70,32,1,"",NA,"",NA,NA,NA,NA,NA,NA,NA,"",NA,"",NA,NA,NA,NA,NA,NA,NA,"","","",NA,"",NA,NA,NA,NA,NA,NA,NA,"",NA,"25"
"",NA,"",NA,"",NA,NA,NA,NA,NA,NA,NA,"","",1,1,"2024-08-24_20h52.25.337","IAT(Formal)","2021.2.3","Win32",60.24096386,"",NA,"",NA,NA,NA,NA,NA,NA,NA,"","","",NA,"i",1,0.657,NA,NA,NA,NA,NA,"他人","i","",NA,0,71,71,58,1,"",NA,"",NA,NA,NA,NA,NA,NA,NA,"",NA,"",NA,NA,NA,NA,NA,NA,NA,"","","",NA,"",NA,NA,NA,NA,NA,NA,NA,"",NA,"25"
"",NA,"",NA,"",NA,NA,NA,NA,NA,NA,NA,"","",1,1,"2024-08-24_20h52.25.337","IAT(Formal)","2021.2.3","Win32",60.24096386,"",NA,"",NA,NA,NA,NA,NA,NA,NA,"","","",NA,"i",1,0.5674,NA,NA,NA,NA,NA,"自卑","i","",NA,0,72,72,36,1,"",NA,"",NA,NA,NA,NA,NA,NA,NA,"",NA,"",NA,NA,NA,NA,NA,NA,NA,"","","",NA,"",NA,NA,NA,NA,NA,NA,NA,"",NA,"25"
"",NA,"",NA,"",NA,NA,NA,NA,NA,NA,NA,"","",1,1,"2024-08-24_20h52.25.337","IAT(Formal)","2021.2.3","Win32",60.24096386,"",NA,"",NA,NA,NA,NA,NA,NA,NA,"","","",NA,"e",1,0.5081,NA,NA,NA,NA,NA,"勤奋","e","",NA,0,73,73,18,1,"",NA,"",NA,NA,NA,NA,NA,NA,NA,"",NA,"",NA,NA,NA,NA,NA,NA,NA,"","","",NA,"",NA,NA,NA,NA,NA,NA,NA,"",NA,"25"
"",NA,"",NA,"",NA,NA,NA,NA,NA,NA,NA,"","",1,1,"2024-08-24_20h52.25.337","IAT(Formal)","2021.2.3","Win32",60.24096386,"",NA,"",NA,NA,NA,NA,NA,NA,NA,"","","",NA,"e",1,0.5422,NA,NA,NA,NA,NA,"崇高","e","",NA,0,74,74,11,1,"",NA,"",NA,NA,NA,NA,NA,NA,NA,"",NA,"",NA,NA,NA,NA,NA,NA,NA,"","","",NA,"",NA,NA,NA,NA,NA,NA,NA,"",NA,"25"
"",NA,"",NA,"",NA,NA,NA,NA,NA,NA,NA,"","",1,1,"2024-08-24_20h52.25.337","IAT(Formal)","2021.2.3","Win32",60.24096386,"",NA,"",NA,NA,NA,NA,NA,NA,NA,"","","",NA,"i",1,0.5559,NA,NA,NA,NA,NA,"他","i","",NA,0,75,75,75,1,"",NA,"",NA,NA,NA,NA,NA,NA,NA,"",NA,"",NA,NA,NA,NA,NA,NA,NA,"","","",NA,"",NA,NA,NA,NA,NA,NA,NA,"",NA,"25"
"",NA,"",NA,"",NA,NA,NA,NA,NA,NA,NA,"","",1,1,"2024-08-24_20h52.25.337","IAT(Formal)","2021.2.3","Win32",60.24096386,"",NA,"",NA,NA,NA,NA,NA,NA,NA,"","","",NA,"i",1,0.481,NA,NA,NA,NA,NA,"他","i","",NA,0,76,76,55,1,"",NA,"",NA,NA,NA,NA,NA,NA,NA,"",NA,"",NA,NA,NA,NA,NA,NA,NA,"","","",NA,"",NA,NA,NA,NA,NA,NA,NA,"",NA,"25"
"",NA,"",NA,"",NA,NA,NA,NA,NA,NA,NA,"","",1,1,"2024-08-24_20h52.25.337","IAT(Formal)","2021.2.3","Win32",60.24096386,"",NA,"",NA,NA,NA,NA,NA,NA,NA,"","","",NA,"e",0,0.538,NA,NA,NA,NA,NA,"鲁莽","i","",NA,0,77,77,38,1,"",NA,"",NA,NA,NA,NA,NA,NA,NA,"",NA,"",NA,NA,NA,NA,NA,NA,NA,"","","",NA,"",NA,NA,NA,NA,NA,NA,NA,"",NA,"25"
"",NA,"",NA,"",NA,NA,NA,NA,NA,NA,NA,"","",1,1,"2024-08-24_20h52.25.337","IAT(Formal)","2021.2.3","Win32",60.24096386,"",NA,"",NA,NA,NA,NA,NA,NA,NA,"","","",NA,"i",1,0.6542,NA,NA,NA,NA,NA,"轻率","i","",NA,0,78,78,48,1,"",NA,"",NA,NA,NA,NA,NA,NA,NA,"",NA,"",NA,NA,NA,NA,NA,NA,NA,"","","",NA,"",NA,NA,NA,NA,NA,NA,NA,"",NA,"25"
"",NA,"",NA,"",NA,NA,NA,NA,NA,NA,NA,"","",1,1,"2024-08-24_20h52.25.337","IAT(Formal)","2021.2.3","Win32",60.24096386,"",NA,"",NA,NA,NA,NA,NA,NA,NA,"","","",NA,"i",1,0.6439,NA,NA,NA,NA,NA,"冒失","i","",NA,0,79,79,39,1,"",NA,"",NA,NA,NA,NA,NA,NA,NA,"",NA,"",NA,NA,NA,NA,NA,NA,NA,"","","",NA,"",NA,NA,NA,NA,NA,NA,NA,"",NA,"25"
"",NA,"",NA,"",NA,NA,NA,NA,NA,NA,NA,"","",1,1,"2024-08-24_20h52.25.337","IAT(Formal)","2021.2.3","Win32",60.24096386,"",NA,"",NA,NA,NA,NA,NA,NA,NA,"","","",NA,"e",1,0.5833,NA,NA,NA,NA,NA,"我的","e","",NA,1,0,80,71,1,"",NA,"",NA,NA,NA,NA,NA,NA,NA,"",NA,"",NA,NA,NA,NA,NA,NA,NA,"","","",NA,"",NA,NA,NA,NA,NA,NA,NA,"",NA,"25"
"",NA,"",NA,"",NA,NA,NA,NA,NA,NA,NA,"","",1,1,"2024-08-24_20h52.25.337","IAT(Formal)","2021.2.3","Win32",60.24096386,"",NA,"",NA,NA,NA,NA,NA,NA,NA,"","","",NA,"e",1,0.6199,NA,NA,NA,NA,NA,"我们","e","",NA,1,1,81,52,1,"",NA,"",NA,NA,NA,NA,NA,NA,NA,"",NA,"",NA,NA,NA,NA,NA,NA,NA,"","","",NA,"",NA,NA,NA,NA,NA,NA,NA,"",NA,"25"
"",NA,"",NA,"",NA,NA,NA,NA,NA,NA,NA,"","",1,1,"2024-08-24_20h52.25.337","IAT(Formal)","2021.2.3","Win32",60.24096386,"",NA,"",NA,NA,NA,NA,NA,NA,NA,"","","",NA,"e",1,0.5119,NA,NA,NA,NA,NA,"朴实","e","",NA,1,2,82,24,1,"",NA,"",NA,NA,NA,NA,NA,NA,NA,"",NA,"",NA,NA,NA,NA,NA,NA,NA,"","","",NA,"",NA,NA,NA,NA,NA,NA,NA,"",NA,"25"
"",NA,"",NA,"",NA,NA,NA,NA,NA,NA,NA,"","",1,1,"2024-08-24_20h52.25.337","IAT(Formal)","2021.2.3","Win32",60.24096386,"",NA,"",NA,NA,NA,NA,NA,NA,NA,"","","",NA,"e",1,0.4853,NA,NA,NA,NA,NA,"优秀","e","",NA,1,3,83,10,1,"",NA,"",NA,NA,NA,NA,NA,NA,NA,"",NA,"",NA,NA,NA,NA,NA,NA,NA,"","","",NA,"",NA,NA,NA,NA,NA,NA,NA,"",NA,"25"
"",NA,"",NA,"",NA,NA,NA,NA,NA,NA,NA,"","",1,1,"2024-08-24_20h52.25.337","IAT(Formal)","2021.2.3","Win32",60.24096386,"",NA,"",NA,NA,NA,NA,NA,NA,NA,"","","",NA,"i",1,0.553,NA,NA,NA,NA,NA,"刻薄","i","",NA,1,4,84,33,1,"",NA,"",NA,NA,NA,NA,NA,NA,NA,"",NA,"",NA,NA,NA,NA,NA,NA,NA,"","","",NA,"",NA,NA,NA,NA,NA,NA,NA,"",NA,"25"
"",NA,"",NA,"",NA,NA,NA,NA,NA,NA,NA,"","",1,1,"2024-08-24_20h52.25.337","IAT(Formal)","2021.2.3","Win32",60.24096386,"",NA,"",NA,NA,NA,NA,NA,NA,NA,"","","",NA,"i",1,0.6193,NA,NA,NA,NA,NA,"他","i","",NA,1,5,85,65,1,"",NA,"",NA,NA,NA,NA,NA,NA,NA,"",NA,"",NA,NA,NA,NA,NA,NA,NA,"","","",NA,"",NA,NA,NA,NA,NA,NA,NA,"",NA,"25"
"",NA,"",NA,"",NA,NA,NA,NA,NA,NA,NA,"","",1,1,"2024-08-24_20h52.25.337","IAT(Formal)","2021.2.3","Win32",60.24096386,"",NA,"",NA,NA,NA,NA,NA,NA,NA,"","","",NA,"i",1,0.5058,NA,NA,NA,NA,NA,"他人","i","",NA,1,6,86,68,1,"",NA,"",NA,NA,NA,NA,NA,NA,NA,"",NA,"",NA,NA,NA,NA,NA,NA,NA,"","","",NA,"",NA,NA,NA,NA,NA,NA,NA,"",NA,"25"
"",NA,"",NA,"",NA,NA,NA,NA,NA,NA,NA,"","",1,1,"2024-08-24_20h52.25.337","IAT(Formal)","2021.2.3","Win32",60.24096386,"",NA,"",NA,NA,NA,NA,NA,NA,NA,"","","",NA,"e",1,0.6994,NA,NA,NA,NA,NA,"认真","e","",NA,1,7,87,20,1,"",NA,"",NA,NA,NA,NA,NA,NA,NA,"",NA,"",NA,NA,NA,NA,NA,NA,NA,"","","",NA,"",NA,NA,NA,NA,NA,NA,NA,"",NA,"25"
"",NA,"",NA,"",NA,NA,NA,NA,NA,NA,NA,"","",1,1,"2024-08-24_20h52.25.337","IAT(Formal)","2021.2.3","Win32",60.24096386,"",NA,"",NA,NA,NA,NA,NA,NA,NA,"","","",NA,"e",1,0.5729,NA,NA,NA,NA,NA,"我们","e","",NA,1,8,88,62,1,"",NA,"",NA,NA,NA,NA,NA,NA,NA,"",NA,"",NA,NA,NA,NA,NA,NA,NA,"","","",NA,"",NA,NA,NA,NA,NA,NA,NA,"",NA,"25"
"",NA,"",NA,"",NA,NA,NA,NA,NA,NA,NA,"","",1,1,"2024-08-24_20h52.25.337","IAT(Formal)","2021.2.3","Win32",60.24096386,"",NA,"",NA,NA,NA,NA,NA,NA,NA,"","","",NA,"i",1,0.5703,NA,NA,NA,NA,NA,"轻率","i","",NA,1,9,89,48,1,"",NA,"",NA,NA,NA,NA,NA,NA,NA,"",NA,"",NA,NA,NA,NA,NA,NA,NA,"","","",NA,"",NA,NA,NA,NA,NA,NA,NA,"",NA,"25"
"",NA,"",NA,"",NA,NA,NA,NA,NA,NA,NA,"","",1,1,"2024-08-24_20h52.25.337","IAT(Formal)","2021.2.3","Win32",60.24096386,"",NA,"",NA,NA,NA,NA,NA,NA,NA,"","","",NA,"i",1,0.6581,NA,NA,NA,NA,NA,"悲观","i","",NA,1,10,90,34,1,"",NA,"",NA,NA,NA,NA,NA,NA,NA,"",NA,"",NA,NA,NA,NA,NA,NA,NA,"","","",NA,"",NA,NA,NA,NA,NA,NA,NA,"",NA,"25"
"",NA,"",NA,"",NA,NA,NA,NA,NA,NA,NA,"","",1,1,"2024-08-24_20h52.25.337","IAT(Formal)","2021.2.3","Win32",60.24096386,"",NA,"",NA,NA,NA,NA,NA,NA,NA,"","","",NA,"i",1,0.6519,NA,NA,NA,NA,NA,"执拗","i","",NA,1,11,91,40,1,"",NA,"",NA,NA,NA,NA,NA,NA,NA,"",NA,"",NA,NA,NA,NA,NA,NA,NA,"","","",NA,"",NA,NA,NA,NA,NA,NA,NA,"",NA,"25"
"",NA,"",NA,"",NA,NA,NA,NA,NA,NA,NA,"","",1,1,"2024-08-24_20h52.25.337","IAT(Formal)","2021.2.3","Win32",60.24096386,"",NA,"",NA,NA,NA,NA,NA,NA,NA,"","","",NA,"e",1,0.5858,NA,NA,NA,NA,NA,"俺","e","",NA,1,12,92,64,1,"",NA,"",NA,NA,NA,NA,NA,NA,NA,"",NA,"",NA,NA,NA,NA,NA,NA,NA,"","","",NA,"",NA,NA,NA,NA,NA,NA,NA,"",NA,"25"
"",NA,"",NA,"",NA,NA,NA,NA,NA,NA,NA,"","",1,1,"2024-08-24_20h52.25.337","IAT(Formal)","2021.2.3","Win32",60.24096386,"",NA,"",NA,NA,NA,NA,NA,NA,NA,"","","",NA,"e",1,0.8677,NA,NA,NA,NA,NA,"机智","e","",NA,1,13,93,19,1,"",NA,"",NA,NA,NA,NA,NA,NA,NA,"",NA,"",NA,NA,NA,NA,NA,NA,NA,"","","",NA,"",NA,NA,NA,NA,NA,NA,NA,"",NA,"25"
"",NA,"",NA,"",NA,NA,NA,NA,NA,NA,NA,"","",1,1,"2024-08-24_20h52.25.337","IAT(Formal)","2021.2.3","Win32",60.24096386,"",NA,"",NA,NA,NA,NA,NA,NA,NA,"","","",NA,"e",1,0.6449,NA,NA,NA,NA,NA,"无私","e","",NA,1,14,94,22,1,"",NA,"",NA,NA,NA,NA,NA,NA,NA,"",NA,"",NA,NA,NA,NA,NA,NA,NA,"","","",NA,"",NA,NA,NA,NA,NA,NA,NA,"",NA,"25"
"",NA,"",NA,"",NA,NA,NA,NA,NA,NA,NA,"","",1,1,"2024-08-24_20h52.25.337","IAT(Formal)","2021.2.3","Win32",60.24096386,"",NA,"",NA,NA,NA,NA,NA,NA,NA,"","","",NA,"i",1,0.5407,NA,NA,NA,NA,NA,"其他","i","",NA,1,15,95,79,1,"",NA,"",NA,NA,NA,NA,NA,NA,NA,"",NA,"",NA,NA,NA,NA,NA,NA,NA,"","","",NA,"",NA,NA,NA,NA,NA,NA,NA,"",NA,"25"
"",NA,"",NA,"",NA,NA,NA,NA,NA,NA,NA,"","",1,1,"2024-08-24_20h52.25.337","IAT(Formal)","2021.2.3","Win32",60.24096386,"",NA,"",NA,NA,NA,NA,NA,NA,NA,"","","",NA,"i",1,0.6876,NA,NA,NA,NA,NA,"自私","i","",NA,1,16,96,43,1,"",NA,"",NA,NA,NA,NA,NA,NA,NA,"",NA,"",NA,NA,NA,NA,NA,NA,NA,"","","",NA,"",NA,NA,NA,NA,NA,NA,NA,"",NA,"25"
"",NA,"",NA,"",NA,NA,NA,NA,NA,NA,NA,"","",1,1,"2024-08-24_20h52.25.337","IAT(Formal)","2021.2.3","Win32",60.24096386,"",NA,"",NA,NA,NA,NA,NA,NA,NA,"","","",NA,"i",1,0.6032,NA,NA,NA,NA,NA,"暴躁","i","",NA,1,17,97,44,1,"",NA,"",NA,NA,NA,NA,NA,NA,NA,"",NA,"",NA,NA,NA,NA,NA,NA,NA,"","","",NA,"",NA,NA,NA,NA,NA,NA,NA,"",NA,"25"
"",NA,"",NA,"",NA,NA,NA,NA,NA,NA,NA,"","",1,1,"2024-08-24_20h52.25.337","IAT(Formal)","2021.2.3","Win32",60.24096386,"",NA,"",NA,NA,NA,NA,NA,NA,NA,"","","",NA,"e",1,0.8355,NA,NA,NA,NA,NA,"自己","e","",NA,1,18,98,3,1,"",NA,"",NA,NA,NA,NA,NA,NA,NA,"",NA,"",NA,NA,NA,NA,NA,NA,NA,"","","",NA,"",NA,NA,NA,NA,NA,NA,NA,"",NA,"25"
"",NA,"",NA,"",NA,NA,NA,NA,NA,NA,NA,"","",1,1,"2024-08-24_20h52.25.337","IAT(Formal)","2021.2.3","Win32",60.24096386,"",NA,"",NA,NA,NA,NA,NA,NA,NA,"","","",NA,"i",1,0.6538,NA,NA,NA,NA,NA,"卑鄙","i","",NA,1,19,99,30,1,"",NA,"",NA,NA,NA,NA,NA,NA,NA,"",NA,"",NA,NA,NA,NA,NA,NA,NA,"","","",NA,"",NA,NA,NA,NA,NA,NA,NA,"",NA,"25"
"",NA,"",NA,"",NA,NA,NA,NA,NA,NA,NA,"","",1,1,"2024-08-24_20h52.25.337","IAT(Formal)","2021.2.3","Win32",60.24096386,"",NA,"",NA,NA,NA,NA,NA,NA,NA,"","","",NA,"i",0,0.6669,NA,NA,NA,NA,NA,"乐观","e","",NA,1,20,100,14,1,"",NA,"",NA,NA,NA,NA,NA,NA,NA,"",NA,"",NA,NA,NA,NA,NA,NA,NA,"","","",NA,"",NA,NA,NA,NA,NA,NA,NA,"",NA,"25"
"",NA,"",NA,"",NA,NA,NA,NA,NA,NA,NA,"","",1,1,"2024-08-24_20h52.25.337","IAT(Formal)","2021.2.3","Win32",60.24096386,"",NA,"",NA,NA,NA,NA,NA,NA,NA,"","","",NA,"e",1,0.6193,NA,NA,NA,NA,NA,"勤奋","e","",NA,1,21,101,18,1,"",NA,"",NA,NA,NA,NA,NA,NA,NA,"",NA,"",NA,NA,NA,NA,NA,NA,NA,"","","",NA,"",NA,NA,NA,NA,NA,NA,NA,"",NA,"25"
"",NA,"",NA,"",NA,NA,NA,NA,NA,NA,NA,"","",1,1,"2024-08-24_20h52.25.337","IAT(Formal)","2021.2.3","Win32",60.24096386,"",NA,"",NA,NA,NA,NA,NA,NA,NA,"","","",NA,"e",1,0.665,NA,NA,NA,NA,NA,"我","e","",NA,1,22,102,60,1,"",NA,"",NA,NA,NA,NA,NA,NA,NA,"",NA,"",NA,NA,NA,NA,NA,NA,NA,"","","",NA,"",NA,NA,NA,NA,NA,NA,NA,"",NA,"25"
"",NA,"",NA,"",NA,NA,NA,NA,NA,NA,NA,"","",1,1,"2024-08-24_20h52.25.337","IAT(Formal)","2021.2.3","Win32",60.24096386,"",NA,"",NA,NA,NA,NA,NA,NA,NA,"","","",NA,"i",1,0.9082,NA,NA,NA,NA,NA,"他们","i","",NA,1,23,103,66,1,"",NA,"",NA,NA,NA,NA,NA,NA,NA,"",NA,"",NA,NA,NA,NA,NA,NA,NA,"","","",NA,"",NA,NA,NA,NA,NA,NA,NA,"",NA,"25"
"",NA,"",NA,"",NA,NA,NA,NA,NA,NA,NA,"","",1,1,"2024-08-24_20h52.25.337","IAT(Formal)","2021.2.3","Win32",60.24096386,"",NA,"",NA,NA,NA,NA,NA,NA,NA,"","","",NA,"i",1,0.7364,NA,NA,NA,NA,NA,"冒失","i","",NA,1,24,104,39,1,"",NA,"",NA,NA,NA,NA,NA,NA,NA,"",NA,"",NA,NA,NA,NA,NA,NA,NA,"","","",NA,"",NA,NA,NA,NA,NA,NA,NA,"",NA,"25"
"",NA,"",NA,"",NA,NA,NA,NA,NA,NA,NA,"","",1,1,"2024-08-24_20h52.25.337","IAT(Formal)","2021.2.3","Win32",60.24096386,"",NA,"",NA,NA,NA,NA,NA,NA,NA,"","","",NA,"e",1,0.5754,NA,NA,NA,NA,NA,"我","e","",NA,1,25,105,0,1,"",NA,"",NA,NA,NA,NA,NA,NA,NA,"",NA,"",NA,NA,NA,NA,NA,NA,NA,"","","",NA,"",NA,NA,NA,NA,NA,NA,NA,"",NA,"25"
"",NA,"",NA,"",NA,NA,NA,NA,NA,NA,NA,"","",1,1,"2024-08-24_20h52.25.337","IAT(Formal)","2021.2.3","Win32",60.24096386,"",NA,"",NA,NA,NA,NA,NA,NA,NA,"","","",NA,"e",1,0.8965,NA,NA,NA,NA,NA,"诚恳","e","",NA,1,26,106,29,1,"",NA,"",NA,NA,NA,NA,NA,NA,NA,"",NA,"",NA,NA,NA,NA,NA,NA,NA,"","","",NA,"",NA,NA,NA,NA,NA,NA,NA,"",NA,"25"
"",NA,"",NA,"",NA,NA,NA,NA,NA,NA,NA,"","",1,1,"2024-08-24_20h52.25.337","IAT(Formal)","2021.2.3","Win32",60.24096386,"",NA,"",NA,NA,NA,NA,NA,NA,NA,"","","",NA,"e",1,0.5531,NA,NA,NA,NA,NA,"正直","e","",NA,1,27,107,16,1,"",NA,"",NA,NA,NA,NA,NA,NA,NA,"",NA,"",NA,NA,NA,NA,NA,NA,NA,"","","",NA,"",NA,NA,NA,NA,NA,NA,NA,"",NA,"25"
"",NA,"",NA,"",NA,NA,NA,NA,NA,NA,NA,"","",1,1,"2024-08-24_20h52.25.337","IAT(Formal)","2021.2.3","Win32",60.24096386,"",NA,"",NA,NA,NA,NA,NA,NA,NA,"","","",NA,"e",1,0.6342,NA,NA,NA,NA,NA,"公正","e","",NA,1,28,108,23,1,"",NA,"",NA,NA,NA,NA,NA,NA,NA,"",NA,"",NA,NA,NA,NA,NA,NA,NA,"","","",NA,"",NA,NA,NA,NA,NA,NA,NA,"",NA,"25"
"",NA,"",NA,"",NA,NA,NA,NA,NA,NA,NA,"","",1,1,"2024-08-24_20h52.25.337","IAT(Formal)","2021.2.3","Win32",60.24096386,"",NA,"",NA,NA,NA,NA,NA,NA,NA,"","","",NA,"e",1,0.6547,NA,NA,NA,NA,NA,"我的","e","",NA,1,29,109,61,1,"",NA,"",NA,NA,NA,NA,NA,NA,NA,"",NA,"",NA,NA,NA,NA,NA,NA,NA,"","","",NA,"",NA,NA,NA,NA,NA,NA,NA,"",NA,"25"
"",NA,"",NA,"",NA,NA,NA,NA,NA,NA,NA,"","",1,1,"2024-08-24_20h52.25.337","IAT(Formal)","2021.2.3","Win32",60.24096386,"",NA,"",NA,NA,NA,NA,NA,NA,NA,"","","",NA,"i",1,1.3077,NA,NA,NA,NA,NA,"他","i","",NA,1,30,110,55,1,"",NA,"",NA,NA,NA,NA,NA,NA,NA,"",NA,"",NA,NA,NA,NA,NA,NA,NA,"","","",NA,"",NA,NA,NA,NA,NA,NA,NA,"",NA,"25"
"",NA,"",NA,"",NA,NA,NA,NA,NA,NA,NA,"","",1,1,"2024-08-24_20h52.25.337","IAT(Formal)","2021.2.3","Win32",60.24096386,"",NA,"",NA,NA,NA,NA,NA,NA,NA,"","","",NA,"i",1,0.6285,NA,NA,NA,NA,NA,"其他","i","",NA,1,31,111,59,1,"",NA,"",NA,NA,NA,NA,NA,NA,NA,"",NA,"",NA,NA,NA,NA,NA,NA,NA,"","","",NA,"",NA,NA,NA,NA,NA,NA,NA,"",NA,"25"
"",NA,"",NA,"",NA,NA,NA,NA,NA,NA,NA,"","",1,1,"2024-08-24_20h52.25.337","IAT(Formal)","2021.2.3","Win32",60.24096386,"",NA,"",NA,NA,NA,NA,NA,NA,NA,"","","",NA,"e",1,1.3244,NA,NA,NA,NA,NA,"自己","e","",NA,1,32,112,73,1,"",NA,"",NA,NA,NA,NA,NA,NA,NA,"",NA,"",NA,NA,NA,NA,NA,NA,NA,"","","",NA,"",NA,NA,NA,NA,NA,NA,NA,"",NA,"25"
"",NA,"",NA,"",NA,NA,NA,NA,NA,NA,NA,"","",1,1,"2024-08-24_20h52.25.337","IAT(Formal)","2021.2.3","Win32",60.24096386,"",NA,"",NA,NA,NA,NA,NA,NA,NA,"","","",NA,"e",1,0.5634,NA,NA,NA,NA,NA,"冷静","e","",NA,1,33,113,26,1,"",NA,"",NA,NA,NA,NA,NA,NA,NA,"",NA,"",NA,NA,NA,NA,NA,NA,NA,"","","",NA,"",NA,NA,NA,NA,NA,NA,NA,"",NA,"25"
"",NA,"",NA,"",NA,NA,NA,NA,NA,NA,NA,"","",1,1,"2024-08-24_20h52.25.337","IAT(Formal)","2021.2.3","Win32",60.24096386,"",NA,"",NA,NA,NA,NA,NA,NA,NA,"","","",NA,"e",1,0.5089,NA,NA,NA,NA,NA,"活泼","e","",NA,1,34,114,28,1,"",NA,"",NA,NA,NA,NA,NA,NA,NA,"",NA,"",NA,NA,NA,NA,NA,NA,NA,"","","",NA,"",NA,NA,NA,NA,NA,NA,NA,"",NA,"25"
"",NA,"",NA,"",NA,NA,NA,NA,NA,NA,NA,"","",1,1,"2024-08-24_20h52.25.337","IAT(Formal)","2021.2.3","Win32",60.24096386,"",NA,"",NA,NA,NA,NA,NA,NA,NA,"","","",NA,"e",1,0.5237,NA,NA,NA,NA,NA,"我","e","",NA,1,35,115,70,1,"",NA,"",NA,NA,NA,NA,NA,NA,NA,"",NA,"",NA,NA,NA,NA,NA,NA,NA,"","","",NA,"",NA,NA,NA,NA,NA,NA,NA,"",NA,"25"
"",NA,"",NA,"",NA,NA,NA,NA,NA,NA,NA,"","",1,1,"2024-08-24_20h52.25.337","IAT(Formal)","2021.2.3","Win32",60.24096386,"",NA,"",NA,NA,NA,NA,NA,NA,NA,"","","",NA,"i",1,0.6227,NA,NA,NA,NA,NA,"虚伪","i","",NA,1,36,116,31,1,"",NA,"",NA,NA,NA,NA,NA,NA,NA,"",NA,"",NA,NA,NA,NA,NA,NA,NA,"","","",NA,"",NA,NA,NA,NA,NA,NA,NA,"",NA,"25"
"",NA,"",NA,"",NA,NA,NA,NA,NA,NA,NA,"","",1,1,"2024-08-24_20h52.25.337","IAT(Formal)","2021.2.3","Win32",60.24096386,"",NA,"",NA,NA,NA,NA,NA,NA,NA,"","","",NA,"i",1,1.3602,NA,NA,NA,NA,NA,"散漫","i","",NA,1,37,117,41,1,"",NA,"",NA,NA,NA,NA,NA,NA,NA,"",NA,"",NA,NA,NA,NA,NA,NA,NA,"","","",NA,"",NA,NA,NA,NA,NA,NA,NA,"",NA,"25"
"",NA,"",NA,"",NA,NA,NA,NA,NA,NA,NA,"","",1,1,"2024-08-24_20h52.25.337","IAT(Formal)","2021.2.3","Win32",60.24096386,"",NA,"",NA,NA,NA,NA,NA,NA,NA,"","","",NA,"i",1,0.5543,NA,NA,NA,NA,NA,"凶狠","i","",NA,1,38,118,42,1,"",NA,"",NA,NA,NA,NA,NA,NA,NA,"",NA,"",NA,NA,NA,NA,NA,NA,NA,"","","",NA,"",NA,NA,NA,NA,NA,NA,NA,"",NA,"25"
"",NA,"",NA,"",NA,NA,NA,NA,NA,NA,NA,"","",1,1,"2024-08-24_20h52.25.337","IAT(Formal)","2021.2.3","Win32",60.24096386,"",NA,"",NA,NA,NA,NA,NA,NA,NA,"","","",NA,"i",1,0.5057,NA,NA,NA,NA,NA,"野蛮","i","",NA,1,39,119,46,1,"",NA,"",NA,NA,NA,NA,NA,NA,NA,"",NA,"",NA,NA,NA,NA,NA,NA,NA,"","","",NA,"",NA,NA,NA,NA,NA,NA,NA,"",NA,"25"
"",NA,"",NA,"",NA,NA,NA,NA,NA,NA,NA,"","",1,1,"2024-08-24_20h52.25.337","IAT(Formal)","2021.2.3","Win32",60.24096386,"",NA,"",NA,NA,NA,NA,NA,NA,NA,"","","",NA,"i",1,0.5166,NA,NA,NA,NA,NA,"他们","i","",NA,1,40,120,76,1,"",NA,"",NA,NA,NA,NA,NA,NA,NA,"",NA,"",NA,NA,NA,NA,NA,NA,NA,"","","",NA,"",NA,NA,NA,NA,NA,NA,NA,"",NA,"25"
"",NA,"",NA,"",NA,NA,NA,NA,NA,NA,NA,"","",1,1,"2024-08-24_20h52.25.337","IAT(Formal)","2021.2.3","Win32",60.24096386,"",NA,"",NA,NA,NA,NA,NA,NA,NA,"","","",NA,"i",1,0.4622,NA,NA,NA,NA,NA,"他的","i","",NA,1,41,121,77,1,"",NA,"",NA,NA,NA,NA,NA,NA,NA,"",NA,"",NA,NA,NA,NA,NA,NA,NA,"","","",NA,"",NA,NA,NA,NA,NA,NA,NA,"",NA,"25"
"",NA,"",NA,"",NA,NA,NA,NA,NA,NA,NA,"","",1,1,"2024-08-24_20h52.25.337","IAT(Formal)","2021.2.3","Win32",60.24096386,"",NA,"",NA,NA,NA,NA,NA,NA,NA,"","","",NA,"e",1,0.7446,NA,NA,NA,NA,NA,"细腻","e","",NA,1,42,122,25,1,"",NA,"",NA,NA,NA,NA,NA,NA,NA,"",NA,"",NA,NA,NA,NA,NA,NA,NA,"","","",NA,"",NA,NA,NA,NA,NA,NA,NA,"",NA,"25"
"",NA,"",NA,"",NA,NA,NA,NA,NA,NA,NA,"","",1,1,"2024-08-24_20h52.25.337","IAT(Formal)","2021.2.3","Win32",60.24096386,"",NA,"",NA,NA,NA,NA,NA,NA,NA,"","","",NA,"e",1,0.5329,NA,NA,NA,NA,NA,"我的","e","",NA,1,43,123,51,1,"",NA,"",NA,NA,NA,NA,NA,NA,NA,"",NA,"",NA,NA,NA,NA,NA,NA,NA,"","","",NA,"",NA,NA,NA,NA,NA,NA,NA,"",NA,"25"
"",NA,"",NA,"",NA,NA,NA,NA,NA,NA,NA,"","",1,1,"2024-08-24_20h52.25.337","IAT(Formal)","2021.2.3","Win32",60.24096386,"",NA,"",NA,NA,NA,NA,NA,NA,NA,"","","",NA,"i",1,0.5681,NA,NA,NA,NA,NA,"他人","i","",NA,1,44,124,58,1,"",NA,"",NA,NA,NA,NA,NA,NA,NA,"",NA,"",NA,NA,NA,NA,NA,NA,NA,"","","",NA,"",NA,NA,NA,NA,NA,NA,NA,"",NA,"25"
"",NA,"",NA,"",NA,NA,NA,NA,NA,NA,NA,"","",1,1,"2024-08-24_20h52.25.337","IAT(Formal)","2021.2.3","Win32",60.24096386,"",NA,"",NA,NA,NA,NA,NA,NA,NA,"","","",NA,"i",1,0.5895,NA,NA,NA,NA,NA,"他人","i","",NA,1,45,125,8,1,"",NA,"",NA,NA,NA,NA,NA,NA,NA,"",NA,"",NA,NA,NA,NA,NA,NA,NA,"","","",NA,"",NA,NA,NA,NA,NA,NA,NA,"",NA,"25"
"",NA,"",NA,"",NA,NA,NA,NA,NA,NA,NA,"","",1,1,"2024-08-24_20h52.25.337","IAT(Formal)","2021.2.3","Win32",60.24096386,"",NA,"",NA,NA,NA,NA,NA,NA,NA,"","","",NA,"e",1,0.5478,NA,NA,NA,NA,NA,"我","e","",NA,1,46,126,50,1,"",NA,"",NA,NA,NA,NA,NA,NA,NA,"",NA,"",NA,NA,NA,NA,NA,NA,NA,"","","",NA,"",NA,NA,NA,NA,NA,NA,NA,"",NA,"25"
"",NA,"",NA,"",NA,NA,NA,NA,NA,NA,NA,"","",1,1,"2024-08-24_20h52.25.337","IAT(Formal)","2021.2.3","Win32",60.24096386,"",NA,"",NA,NA,NA,NA,NA,NA,NA,"","","",NA,"i",1,0.9081,NA,NA,NA,NA,NA,"自卑","i","",NA,1,47,127,36,1,"",NA,"",NA,NA,NA,NA,NA,NA,NA,"",NA,"",NA,NA,NA,NA,NA,NA,NA,"","","",NA,"",NA,NA,NA,NA,NA,NA,NA,"",NA,"25"
"",NA,"",NA,"",NA,NA,NA,NA,NA,NA,NA,"","",1,1,"2024-08-24_20h52.25.337","IAT(Formal)","2021.2.3","Win32",60.24096386,"",NA,"",NA,NA,NA,NA,NA,NA,NA,"","","",NA,"i",1,0.6165,NA,NA,NA,NA,NA,"他们","i","",NA,1,48,128,56,1,"",NA,"",NA,NA,NA,NA,NA,NA,NA,"",NA,"",NA,NA,NA,NA,NA,NA,NA,"","","",NA,"",NA,NA,NA,NA,NA,NA,NA,"",NA,"25"
"",NA,"",NA,"",NA,NA,NA,NA,NA,NA,NA,"","",1,1,"2024-08-24_20h52.25.337","IAT(Formal)","2021.2.3","Win32",60.24096386,"",NA,"",NA,NA,NA,NA,NA,NA,NA,"","","",NA,"i",1,0.5305,NA,NA,NA,NA,NA,"其他","i","",NA,1,49,129,69,1,"",NA,"",NA,NA,NA,NA,NA,NA,NA,"",NA,"",NA,NA,NA,NA,NA,NA,NA,"","","",NA,"",NA,NA,NA,NA,NA,NA,NA,"",NA,"25"
"",NA,"",NA,"",NA,NA,NA,NA,NA,NA,NA,"","",1,1,"2024-08-24_20h52.25.337","IAT(Formal)","2021.2.3","Win32",60.24096386,"",NA,"",NA,NA,NA,NA,NA,NA,NA,"","","",NA,"e",1,0.5927,NA,NA,NA,NA,NA,"俺","e","",NA,1,50,130,74,1,"",NA,"",NA,NA,NA,NA,NA,NA,NA,"",NA,"",NA,NA,NA,NA,NA,NA,NA,"","","",NA,"",NA,NA,NA,NA,NA,NA,NA,"",NA,"25"
"",NA,"",NA,"",NA,NA,NA,NA,NA,NA,NA,"","",1,1,"2024-08-24_20h52.25.337","IAT(Formal)","2021.2.3","Win32",60.24096386,"",NA,"",NA,NA,NA,NA,NA,NA,NA,"","","",NA,"i",1,0.5184,NA,NA,NA,NA,NA,"他人","i","",NA,1,51,131,78,1,"",NA,"",NA,NA,NA,NA,NA,NA,NA,"",NA,"",NA,NA,NA,NA,NA,NA,NA,"","","",NA,"",NA,NA,NA,NA,NA,NA,NA,"",NA,"25"
"",NA,"",NA,"",NA,NA,NA,NA,NA,NA,NA,"","",1,1,"2024-08-24_20h52.25.337","IAT(Formal)","2021.2.3","Win32",60.24096386,"",NA,"",NA,NA,NA,NA,NA,NA,NA,"","","",NA,"e",1,0.6429,NA,NA,NA,NA,NA,"稳重","e","",NA,1,52,132,21,1,"",NA,"",NA,NA,NA,NA,NA,NA,NA,"",NA,"",NA,NA,NA,NA,NA,NA,NA,"","","",NA,"",NA,NA,NA,NA,NA,NA,NA,"",NA,"25"
"",NA,"",NA,"",NA,NA,NA,NA,NA,NA,NA,"","",1,1,"2024-08-24_20h52.25.337","IAT(Formal)","2021.2.3","Win32",60.24096386,"",NA,"",NA,NA,NA,NA,NA,NA,NA,"","","",NA,"i",1,0.8723,NA,NA,NA,NA,NA,"消极","i","",NA,1,53,133,35,1,"",NA,"",NA,NA,NA,NA,NA,NA,NA,"",NA,"",NA,NA,NA,NA,NA,NA,NA,"","","",NA,"",NA,NA,NA,NA,NA,NA,NA,"",NA,"25"
"",NA,"",NA,"",NA,NA,NA,NA,NA,NA,NA,"","",1,1,"2024-08-24_20h52.25.337","IAT(Formal)","2021.2.3","Win32",60.24096386,"",NA,"",NA,NA,NA,NA,NA,NA,NA,"","","",NA,"e",1,0.637,NA,NA,NA,NA,NA,"聪明","e","",NA,1,54,134,12,1,"",NA,"",NA,NA,NA,NA,NA,NA,NA,"",NA,"",NA,NA,NA,NA,NA,NA,NA,"","","",NA,"",NA,NA,NA,NA,NA,NA,NA,"",NA,"25"
"",NA,"",NA,"",NA,NA,NA,NA,NA,NA,NA,"","",1,1,"2024-08-24_20h52.25.337","IAT(Formal)","2021.2.3","Win32",60.24096386,"",NA,"",NA,NA,NA,NA,NA,NA,NA,"","","",NA,"i",1,0.688,NA,NA,NA,NA,NA,"其他","i","",NA,1,55,135,9,1,"",NA,"",NA,NA,NA,NA,NA,NA,NA,"",NA,"",NA,NA,NA,NA,NA,NA,NA,"","","",NA,"",NA,NA,NA,NA,NA,NA,NA,"",NA,"25"
"",NA,"",NA,"",NA,NA,NA,NA,NA,NA,NA,"","",1,1,"2024-08-24_20h52.25.337","IAT(Formal)","2021.2.3","Win32",60.24096386,"",NA,"",NA,NA,NA,NA,NA,NA,NA,"","","",NA,"i",1,1.1369,NA,NA,NA,NA,NA,"他的","i","",NA,1,56,136,57,1,"",NA,"",NA,NA,NA,NA,NA,NA,NA,"",NA,"",NA,NA,NA,NA,NA,NA,NA,"","","",NA,"",NA,NA,NA,NA,NA,NA,NA,"",NA,"25"
"",NA,"",NA,"",NA,NA,NA,NA,NA,NA,NA,"","",1,1,"2024-08-24_20h52.25.337","IAT(Formal)","2021.2.3","Win32",60.24096386,"",NA,"",NA,NA,NA,NA,NA,NA,NA,"","","",NA,"i",1,0.9634,NA,NA,NA,NA,NA,"下贱","i","",NA,1,57,137,49,1,"",NA,"",NA,NA,NA,NA,NA,NA,NA,"",NA,"",NA,NA,NA,NA,NA,NA,NA,"","","",NA,"",NA,NA,NA,NA,NA,NA,NA,"",NA,"25"
"",NA,"",NA,"",NA,NA,NA,NA,NA,NA,NA,"","",1,1,"2024-08-24_20h52.25.337","IAT(Formal)","2021.2.3","Win32",60.24096386,"",NA,"",NA,NA,NA,NA,NA,NA,NA,"","","",NA,"e",1,0.7923,NA,NA,NA,NA,NA,"俺","e","",NA,1,58,138,4,1,"",NA,"",NA,NA,NA,NA,NA,NA,NA,"",NA,"",NA,NA,NA,NA,NA,NA,NA,"","","",NA,"",NA,NA,NA,NA,NA,NA,NA,"",NA,"25"
"",NA,"",NA,"",NA,NA,NA,NA,NA,NA,NA,"","",1,1,"2024-08-24_20h52.25.337","IAT(Formal)","2021.2.3","Win32",60.24096386,"",NA,"",NA,NA,NA,NA,NA,NA,NA,"","","",NA,"e",1,1.2213,NA,NA,NA,NA,NA,"自己","e","",NA,1,59,139,53,1,"",NA,"",NA,NA,NA,NA,NA,NA,NA,"",NA,"",NA,NA,NA,NA,NA,NA,NA,"","","",NA,"",NA,NA,NA,NA,NA,NA,NA,"",NA,"25"
"",NA,"",NA,"",NA,NA,NA,NA,NA,NA,NA,"","",1,1,"2024-08-24_20h52.25.337","IAT(Formal)","2021.2.3","Win32",60.24096386,"",NA,"",NA,NA,NA,NA,NA,NA,NA,"","","",NA,"i",1,0.5541,NA,NA,NA,NA,NA,"猖狂","i","",NA,1,60,140,45,1,"",NA,"",NA,NA,NA,NA,NA,NA,NA,"",NA,"",NA,NA,NA,NA,NA,NA,NA,"","","",NA,"",NA,NA,NA,NA,NA,NA,NA,"",NA,"25"
"",NA,"",NA,"",NA,NA,NA,NA,NA,NA,NA,"","",1,1,"2024-08-24_20h52.25.337","IAT(Formal)","2021.2.3","Win32",60.24096386,"",NA,"",NA,NA,NA,NA,NA,NA,NA,"","","",NA,"i",1,0.5069,NA,NA,NA,NA,NA,"愚蠢","i","",NA,1,61,141,32,1,"",NA,"",NA,NA,NA,NA,NA,NA,NA,"",NA,"",NA,NA,NA,NA,NA,NA,NA,"","","",NA,"",NA,NA,NA,NA,NA,NA,NA,"",NA,"25"
"",NA,"",NA,"",NA,NA,NA,NA,NA,NA,NA,"","",1,1,"2024-08-24_20h52.25.337","IAT(Formal)","2021.2.3","Win32",60.24096386,"",NA,"",NA,NA,NA,NA,NA,NA,NA,"","","",NA,"e",1,0.5836,NA,NA,NA,NA,NA,"杰出","e","",NA,1,62,142,13,1,"",NA,"",NA,NA,NA,NA,NA,NA,NA,"",NA,"",NA,NA,NA,NA,NA,NA,NA,"","","",NA,"",NA,NA,NA,NA,NA,NA,NA,"",NA,"25"
"",NA,"",NA,"",NA,NA,NA,NA,NA,NA,NA,"","",1,1,"2024-08-24_20h52.25.337","IAT(Formal)","2021.2.3","Win32",60.24096386,"",NA,"",NA,NA,NA,NA,NA,NA,NA,"","","",NA,"e",1,0.6383,NA,NA,NA,NA,NA,"俺","e","",NA,1,63,143,54,1,"",NA,"",NA,NA,NA,NA,NA,NA,NA,"",NA,"",NA,NA,NA,NA,NA,NA,NA,"","","",NA,"",NA,NA,NA,NA,NA,NA,NA,"",NA,"25"
"",NA,"",NA,"",NA,NA,NA,NA,NA,NA,NA,"","",1,1,"2024-08-24_20h52.25.337","IAT(Formal)","2021.2.3","Win32",60.24096386,"",NA,"",NA,NA,NA,NA,NA,NA,NA,"","","",NA,"i",1,0.5102,NA,NA,NA,NA,NA,"他的","i","",NA,1,64,144,67,1,"",NA,"",NA,NA,NA,NA,NA,NA,NA,"",NA,"",NA,NA,NA,NA,NA,NA,NA,"","","",NA,"",NA,NA,NA,NA,NA,NA,NA,"",NA,"25"
"",NA,"",NA,"",NA,NA,NA,NA,NA,NA,NA,"","",1,1,"2024-08-24_20h52.25.337","IAT(Formal)","2021.2.3","Win32",60.24096386,"",NA,"",NA,NA,NA,NA,NA,NA,NA,"","","",NA,"e",1,0.6007,NA,NA,NA,NA,NA,"勇敢","e","",NA,1,65,145,17,1,"",NA,"",NA,NA,NA,NA,NA,NA,NA,"",NA,"",NA,NA,NA,NA,NA,NA,NA,"","","",NA,"",NA,NA,NA,NA,NA,NA,NA,"",NA,"25"
"",NA,"",NA,"",NA,NA,NA,NA,NA,NA,NA,"","",1,1,"2024-08-24_20h52.25.337","IAT(Formal)","2021.2.3","Win32",60.24096386,"",NA,"",NA,NA,NA,NA,NA,NA,NA,"","","",NA,"e",1,0.527,NA,NA,NA,NA,NA,"我的","e","",NA,1,66,146,1,1,"",NA,"",NA,NA,NA,NA,NA,NA,NA,"",NA,"",NA,NA,NA,NA,NA,NA,NA,"","","",NA,"",NA,NA,NA,NA,NA,NA,NA,"",NA,"25"
"",NA,"",NA,"",NA,NA,NA,NA,NA,NA,NA,"","",1,1,"2024-08-24_20h52.25.337","IAT(Formal)","2021.2.3","Win32",60.24096386,"",NA,"",NA,NA,NA,NA,NA,NA,NA,"","","",NA,"e",0,0.3634,NA,NA,NA,NA,NA,"他们","i","",NA,1,67,147,6,1,"",NA,"",NA,NA,NA,NA,NA,NA,NA,"",NA,"",NA,NA,NA,NA,NA,NA,NA,"","","",NA,"",NA,NA,NA,NA,NA,NA,NA,"",NA,"25"
"",NA,"",NA,"",NA,NA,NA,NA,NA,NA,NA,"","",1,1,"2024-08-24_20h52.25.337","IAT(Formal)","2021.2.3","Win32",60.24096386,"",NA,"",NA,NA,NA,NA,NA,NA,NA,"","","",NA,"e",1,0.5956,NA,NA,NA,NA,NA,"热情","e","",NA,1,68,148,27,1,"",NA,"",NA,NA,NA,NA,NA,NA,NA,"",NA,"",NA,NA,NA,NA,NA,NA,NA,"","","",NA,"",NA,NA,NA,NA,NA,NA,NA,"",NA,"25"
"",NA,"",NA,"",NA,NA,NA,NA,NA,NA,NA,"","",1,1,"2024-08-24_20h52.25.337","IAT(Formal)","2021.2.3","Win32",60.24096386,"",NA,"",NA,NA,NA,NA,NA,NA,NA,"","","",NA,"e",1,0.5369,NA,NA,NA,NA,NA,"我们","e","",NA,1,69,149,2,1,"",NA,"",NA,NA,NA,NA,NA,NA,NA,"",NA,"",NA,NA,NA,NA,NA,NA,NA,"","","",NA,"",NA,NA,NA,NA,NA,NA,NA,"",NA,"25"
"",NA,"",NA,"",NA,NA,NA,NA,NA,NA,NA,"","",1,1,"2024-08-24_20h52.25.337","IAT(Formal)","2021.2.3","Win32",60.24096386,"",NA,"",NA,NA,NA,NA,NA,NA,NA,"","","",NA,"i",1,0.5842,NA,NA,NA,NA,NA,"鲁莽","i","",NA,1,70,150,38,1,"",NA,"",NA,NA,NA,NA,NA,NA,NA,"",NA,"",NA,NA,NA,NA,NA,NA,NA,"","","",NA,"",NA,NA,NA,NA,NA,NA,NA,"",NA,"25"
"",NA,"",NA,"",NA,NA,NA,NA,NA,NA,NA,"","",1,1,"2024-08-24_20h52.25.337","IAT(Formal)","2021.2.3","Win32",60.24096386,"",NA,"",NA,NA,NA,NA,NA,NA,NA,"","","",NA,"i",1,0.5395,NA,NA,NA,NA,NA,"傲慢","i","",NA,1,71,151,37,1,"",NA,"",NA,NA,NA,NA,NA,NA,NA,"",NA,"",NA,NA,NA,NA,NA,NA,NA,"","","",NA,"",NA,NA,NA,NA,NA,NA,NA,"",NA,"25"
"",NA,"",NA,"",NA,NA,NA,NA,NA,NA,NA,"","",1,1,"2024-08-24_20h52.25.337","IAT(Formal)","2021.2.3","Win32",60.24096386,"",NA,"",NA,NA,NA,NA,NA,NA,NA,"","","",NA,"e",1,0.5572,NA,NA,NA,NA,NA,"我们","e","",NA,1,72,152,72,1,"",NA,"",NA,NA,NA,NA,NA,NA,NA,"",NA,"",NA,NA,NA,NA,NA,NA,NA,"","","",NA,"",NA,NA,NA,NA,NA,NA,NA,"",NA,"25"
"",NA,"",NA,"",NA,NA,NA,NA,NA,NA,NA,"","",1,1,"2024-08-24_20h52.25.337","IAT(Formal)","2021.2.3","Win32",60.24096386,"",NA,"",NA,NA,NA,NA,NA,NA,NA,"","","",NA,"i",1,0.5302,NA,NA,NA,NA,NA,"他的","i","",NA,1,73,153,7,1,"",NA,"",NA,NA,NA,NA,NA,NA,NA,"",NA,"",NA,NA,NA,NA,NA,NA,NA,"","","",NA,"",NA,NA,NA,NA,NA,NA,NA,"",NA,"25"
"",NA,"",NA,"",NA,NA,NA,NA,NA,NA,NA,"","",1,1,"2024-08-24_20h52.25.337","IAT(Formal)","2021.2.3","Win32",60.24096386,"",NA,"",NA,NA,NA,NA,NA,NA,NA,"","","",NA,"i",1,0.5649,NA,NA,NA,NA,NA,"他","i","",NA,1,74,154,75,1,"",NA,"",NA,NA,NA,NA,NA,NA,NA,"",NA,"",NA,NA,NA,NA,NA,NA,NA,"","","",NA,"",NA,NA,NA,NA,NA,NA,NA,"",NA,"25"
"",NA,"",NA,"",NA,NA,NA,NA,NA,NA,NA,"","",1,1,"2024-08-24_20h52.25.337","IAT(Formal)","2021.2.3","Win32",60.24096386,"",NA,"",NA,NA,NA,NA,NA,NA,NA,"","","",NA,"i",1,0.5354,NA,NA,NA,NA,NA,"他","i","",NA,1,75,155,5,1,"",NA,"",NA,NA,NA,NA,NA,NA,NA,"",NA,"",NA,NA,NA,NA,NA,NA,NA,"","","",NA,"",NA,NA,NA,NA,NA,NA,NA,"",NA,"25"
"",NA,"",NA,"",NA,NA,NA,NA,NA,NA,NA,"","",1,1,"2024-08-24_20h52.25.337","IAT(Formal)","2021.2.3","Win32",60.24096386,"",NA,"",NA,NA,NA,NA,NA,NA,NA,"","","",NA,"e",1,0.5239,NA,NA,NA,NA,NA,"自己","e","",NA,1,76,156,63,1,"",NA,"",NA,NA,NA,NA,NA,NA,NA,"",NA,"",NA,NA,NA,NA,NA,NA,NA,"","","",NA,"",NA,NA,NA,NA,NA,NA,NA,"",NA,"25"
"",NA,"",NA,"",NA,NA,NA,NA,NA,NA,NA,"","",1,1,"2024-08-24_20h52.25.337","IAT(Formal)","2021.2.3","Win32",60.24096386,"",NA,"",NA,NA,NA,NA,NA,NA,NA,"","","",NA,"e",1,0.6387,NA,NA,NA,NA,NA,"诚实","e","",NA,1,77,157,15,1,"",NA,"",NA,NA,NA,NA,NA,NA,NA,"",NA,"",NA,NA,NA,NA,NA,NA,NA,"","","",NA,"",NA,NA,NA,NA,NA,NA,NA,"",NA,"25"
"",NA,"",NA,"",NA,NA,NA,NA,NA,NA,NA,"","",1,1,"2024-08-24_20h52.25.337","IAT(Formal)","2021.2.3","Win32",60.24096386,"",NA,"",NA,NA,NA,NA,NA,NA,NA,"","","",NA,"e",1,0.5715,NA,NA,NA,NA,NA,"崇高","e","",NA,1,78,158,11,1,"",NA,"",NA,NA,NA,NA,NA,NA,NA,"",NA,"",NA,NA,NA,NA,NA,NA,NA,"","","",NA,"",NA,NA,NA,NA,NA,NA,NA,"",NA,"25"
"",NA,"",NA,"",NA,NA,NA,NA,NA,NA,NA,"","",1,1,"2024-08-24_20h52.25.337","IAT(Formal)","2021.2.3","Win32",60.24096386,"",NA,"",NA,NA,NA,NA,NA,NA,NA,"","","",NA,"i",1,0.5104,NA,NA,NA,NA,NA,"固执","i","",NA,1,79,159,47,1,"",NA,"",NA,NA,NA,NA,NA,NA,NA,"",NA,"",NA,NA,NA,NA,NA,NA,NA,"","","",NA,"",NA,NA,NA,NA,NA,NA,NA,"",NA,"25"
"",NA,"",NA,"",NA,NA,NA,NA,NA,NA,NA,"我们","i",1,1,"2024-08-24_20h52.25.337","IAT(Formal)","2021.2.3","Win32",60.24096386,"",NA,"",NA,NA,NA,NA,NA,NA,NA,"","","",NA,"",NA,NA,NA,NA,NA,NA,NA,"","","",NA,NA,NA,NA,NA,NA,"space",7.1135,"i",1,0.6163,0,0,0,2,1,"",NA,"",NA,NA,NA,NA,NA,NA,NA,"","","",NA,"",NA,NA,NA,NA,NA,NA,NA,"",NA,"25"
"",NA,"",NA,"",NA,NA,NA,NA,NA,NA,NA,"他的","e",1,1,"2024-08-24_20h52.25.337","IAT(Formal)","2021.2.3","Win32",60.24096386,"",NA,"",NA,NA,NA,NA,NA,NA,NA,"","","",NA,"",NA,NA,NA,NA,NA,NA,NA,"","","",NA,NA,NA,NA,NA,NA,"",NA,"e",1,0.5112,0,1,1,7,1,"",NA,"",NA,NA,NA,NA,NA,NA,NA,"","","",NA,"",NA,NA,NA,NA,NA,NA,NA,"",NA,"25"
"",NA,"",NA,"",NA,NA,NA,NA,NA,NA,NA,"他人","e",1,1,"2024-08-24_20h52.25.337","IAT(Formal)","2021.2.3","Win32",60.24096386,"",NA,"",NA,NA,NA,NA,NA,NA,NA,"","","",NA,"",NA,NA,NA,NA,NA,NA,NA,"","","",NA,NA,NA,NA,NA,NA,"",NA,"e",1,0.7819,0,2,2,8,1,"",NA,"",NA,NA,NA,NA,NA,NA,NA,"","","",NA,"",NA,NA,NA,NA,NA,NA,NA,"",NA,"25"
"",NA,"",NA,"",NA,NA,NA,NA,NA,NA,NA,"他","e",1,1,"2024-08-24_20h52.25.337","IAT(Formal)","2021.2.3","Win32",60.24096386,"",NA,"",NA,NA,NA,NA,NA,NA,NA,"","","",NA,"",NA,NA,NA,NA,NA,NA,NA,"","","",NA,NA,NA,NA,NA,NA,"",NA,"e",1,0.5182,0,3,3,5,1,"",NA,"",NA,NA,NA,NA,NA,NA,NA,"","","",NA,"",NA,NA,NA,NA,NA,NA,NA,"",NA,"25"
"",NA,"",NA,"",NA,NA,NA,NA,NA,NA,NA,"我的","i",1,1,"2024-08-24_20h52.25.337","IAT(Formal)","2021.2.3","Win32",60.24096386,"",NA,"",NA,NA,NA,NA,NA,NA,NA,"","","",NA,"",NA,NA,NA,NA,NA,NA,NA,"","","",NA,NA,NA,NA,NA,NA,"",NA,"i",1,1.2891,0,4,4,1,1,"",NA,"",NA,NA,NA,NA,NA,NA,NA,"","","",NA,"",NA,NA,NA,NA,NA,NA,NA,"",NA,"25"
"",NA,"",NA,"",NA,NA,NA,NA,NA,NA,NA,"自己","i",1,1,"2024-08-24_20h52.25.337","IAT(Formal)","2021.2.3","Win32",60.24096386,"",NA,"",NA,NA,NA,NA,NA,NA,NA,"","","",NA,"",NA,NA,NA,NA,NA,NA,NA,"","","",NA,NA,NA,NA,NA,NA,"",NA,"i",1,0.5696,0,5,5,3,1,"",NA,"",NA,NA,NA,NA,NA,NA,NA,"","","",NA,"",NA,NA,NA,NA,NA,NA,NA,"",NA,"25"
"",NA,"",NA,"",NA,NA,NA,NA,NA,NA,NA,"我","i",1,1,"2024-08-24_20h52.25.337","IAT(Formal)","2021.2.3","Win32",60.24096386,"",NA,"",NA,NA,NA,NA,NA,NA,NA,"","","",NA,"",NA,NA,NA,NA,NA,NA,NA,"","","",NA,NA,NA,NA,NA,NA,"",NA,"i",1,0.6657,0,6,6,0,1,"",NA,"",NA,NA,NA,NA,NA,NA,NA,"","","",NA,"",NA,NA,NA,NA,NA,NA,NA,"",NA,"25"
"",NA,"",NA,"",NA,NA,NA,NA,NA,NA,NA,"俺","i",1,1,"2024-08-24_20h52.25.337","IAT(Formal)","2021.2.3","Win32",60.24096386,"",NA,"",NA,NA,NA,NA,NA,NA,NA,"","","",NA,"",NA,NA,NA,NA,NA,NA,NA,"","","",NA,NA,NA,NA,NA,NA,"",NA,"i",1,0.6457,0,7,7,4,1,"",NA,"",NA,NA,NA,NA,NA,NA,NA,"","","",NA,"",NA,NA,NA,NA,NA,NA,NA,"",NA,"25"
"",NA,"",NA,"",NA,NA,NA,NA,NA,NA,NA,"他们","e",1,1,"2024-08-24_20h52.25.337","IAT(Formal)","2021.2.3","Win32",60.24096386,"",NA,"",NA,NA,NA,NA,NA,NA,NA,"","","",NA,"",NA,NA,NA,NA,NA,NA,NA,"","","",NA,NA,NA,NA,NA,NA,"",NA,"e",1,0.4301,0,8,8,6,1,"",NA,"",NA,NA,NA,NA,NA,NA,NA,"","","",NA,"",NA,NA,NA,NA,NA,NA,NA,"",NA,"25"
"",NA,"",NA,"",NA,NA,NA,NA,NA,NA,NA,"其他","e",1,1,"2024-08-24_20h52.25.337","IAT(Formal)","2021.2.3","Win32",60.24096386,"",NA,"",NA,NA,NA,NA,NA,NA,NA,"","","",NA,"",NA,NA,NA,NA,NA,NA,NA,"","","",NA,NA,NA,NA,NA,NA,"",NA,"e",1,0.5977,0,9,9,9,1,"",NA,"",NA,NA,NA,NA,NA,NA,NA,"","","",NA,"",NA,NA,NA,NA,NA,NA,NA,"",NA,"25"
"",NA,"",NA,"",NA,NA,NA,NA,NA,NA,NA,"","",1,1,"2024-08-24_20h52.25.337","IAT(Formal)","2021.2.3","Win32",60.24096386,"",NA,"",NA,NA,NA,NA,NA,NA,NA,"","","",NA,"",NA,NA,NA,NA,NA,NA,NA,"","","",NA,NA,NA,NA,NA,NA,"",NA,"",NA,NA,NA,NA,NA,NA,NA,"space",2.6571,"i",1,1.2238,0,0,0,51,1,"我的","i","",NA,"",NA,NA,NA,NA,NA,NA,NA,"",NA,"25"
"",NA,"",NA,"",NA,NA,NA,NA,NA,NA,NA,"","",1,1,"2024-08-24_20h52.25.337","IAT(Formal)","2021.2.3","Win32",60.24096386,"",NA,"",NA,NA,NA,NA,NA,NA,NA,"","","",NA,"",NA,NA,NA,NA,NA,NA,NA,"","","",NA,NA,NA,NA,NA,NA,"",NA,"",NA,NA,NA,NA,NA,NA,NA,"",NA,"i",1,0.5005,0,1,1,0,1,"我","i","",NA,"",NA,NA,NA,NA,NA,NA,NA,"",NA,"25"
"",NA,"",NA,"",NA,NA,NA,NA,NA,NA,NA,"","",1,1,"2024-08-24_20h52.25.337","IAT(Formal)","2021.2.3","Win32",60.24096386,"",NA,"",NA,NA,NA,NA,NA,NA,NA,"","","",NA,"",NA,NA,NA,NA,NA,NA,NA,"","","",NA,NA,NA,NA,NA,NA,"",NA,"",NA,NA,NA,NA,NA,NA,NA,"",NA,"",0,NA,0,2,2,45,1,"猖狂","i","",NA,"",NA,NA,NA,NA,NA,NA,NA,"",NA,"25"
"",NA,"",NA,"",NA,NA,NA,NA,NA,NA,NA,"","",1,1,"2024-08-24_20h52.25.337","IAT(Formal)","2021.2.3","Win32",60.24096386,"",NA,"",NA,NA,NA,NA,NA,NA,NA,"","","",NA,"",NA,NA,NA,NA,NA,NA,NA,"","","",NA,NA,NA,NA,NA,NA,"",NA,"",NA,NA,NA,NA,NA,NA,NA,"",NA,"i",0,0.7458,0,3,3,24,1,"朴实","e","",NA,"",NA,NA,NA,NA,NA,NA,NA,"",NA,"25"
"",NA,"",NA,"",NA,NA,NA,NA,NA,NA,NA,"","",1,1,"2024-08-24_20h52.25.337","IAT(Formal)","2021.2.3","Win32",60.24096386,"",NA,"",NA,NA,NA,NA,NA,NA,NA,"","","",NA,"",NA,NA,NA,NA,NA,NA,NA,"","","",NA,NA,NA,NA,NA,NA,"",NA,"",NA,NA,NA,NA,NA,NA,NA,"",NA,"i",1,0.782,0,4,4,39,1,"冒失","i","",NA,"",NA,NA,NA,NA,NA,NA,NA,"",NA,"25"
