﻿Instruction1.keys,Instruction1.rt,Instruction2.keys,Instruction2.rt,key_resp_iso.keys,key_resp_iso.corr,key_resp_iso.rt,Practice_01.thisRepN,Practice_01.thisTrialN,Practice_01.thisN,Practice_01.thisIndex,Practice_01.ran,Words,ans,participant,session,date,expName,psychopyVersion,OS,frameRate,key_resp_3.keys,key_resp_3.rt,key_resp_ipn.keys,key_resp_ipn.corr,key_resp_ipn.rt,Practice_02.thisRepN,Practice_02.thisTrialN,Practice_02.thisN,Practice_02.thisIndex,Practice_02.ran,Words_ipn,ans_ipn,key_resp_4.keys,key_resp_4.rt,key_resp_t1.keys,key_resp_t1.corr,key_resp_t1.rt,Practice_T1.thisRepN,Practice_T1.thisTrialN,Practice_T1.thisN,Practice_T1.thisIndex,Practice_T1.ran,Words_t1,ans_t1,key_resp_5.keys,key_resp_5.rt,Formal_T1.thisRepN,Formal_T1.thisTrialN,Formal_T1.thisN,Formal_T1.thisIndex,Formal_T1.ran,key_resp_6.keys,key_resp_6.rt,key_resp_iso_reverse.keys,key_resp_iso_reverse.corr,Practice_iso_Reverse.thisRepN,Practice_iso_Reverse.thisTrialN,Practice_iso_Reverse.thisN,Practice_iso_Reverse.thisIndex,Practice_iso_Reverse.ran,key_resp_iso_reverse.rt,key_resp_7.keys,key_resp_7.rt,key_resp_t2_Practice.keys,key_resp_t2_Practice.corr,key_resp_t2_Practice.rt,Practice_t2_Reverse.thisRepN,Practice_t2_Reverse.thisTrialN,Practice_t2_Reverse.thisN,Practice_t2_Reverse.thisIndex,Practice_t2_Reverse.ran,Words_t2,ans_t2,key_resp_8.keys,key_resp_8.rt,key_resp_t2.keys,key_resp_t2.corr,key_resp_t2.rt,Formal_t2_reverse.thisRepN,Formal_t2_reverse.thisTrialN,Formal_t2_reverse.thisN,Formal_t2_reverse.thisIndex,Formal_t2_reverse.ran,key_instruct.keys,key_instruct.rt
space,12.4648,space,16.924,e,1,1.0779,0,0,0,2,1,我们,e,1,001,2024-08-24_21h34.38.073,IAT(Formal),2021.2.3,Win32,60.0024001,,,,,,,,,,,,,,,,,,,,,,,,,,,,,,,,,,,,,,,,,,,,,,,,,,,,,,,,,,,,,,,,,
,,,,e,1,0.7986,0,1,1,0,1,我,e,1,001,2024-08-24_21h34.38.073,IAT(Formal),2021.2.3,Win32,60.0024001,,,,,,,,,,,,,,,,,,,,,,,,,,,,,,,,,,,,,,,,,,,,,,,,,,,,,,,,,,,,,,,,,
,,,,i,1,0.5453,0,2,2,5,1,他,i,1,001,2024-08-24_21h34.38.073,IAT(Formal),2021.2.3,Win32,60.0024001,,,,,,,,,,,,,,,,,,,,,,,,,,,,,,,,,,,,,,,,,,,,,,,,,,,,,,,,,,,,,,,,,
,,,,e,1,0.7333,0,3,3,4,1,俺,e,1,001,2024-08-24_21h34.38.073,IAT(Formal),2021.2.3,Win32,60.0024001,,,,,,,,,,,,,,,,,,,,,,,,,,,,,,,,,,,,,,,,,,,,,,,,,,,,,,,,,,,,,,,,,
,,,,e,1,0.5708,0,4,4,1,1,我的,e,1,001,2024-08-24_21h34.38.073,IAT(Formal),2021.2.3,Win32,60.0024001,,,,,,,,,,,,,,,,,,,,,,,,,,,,,,,,,,,,,,,,,,,,,,,,,,,,,,,,,,,,,,,,,
,,,,i,1,0.4313,0,5,5,6,1,他们,i,1,001,2024-08-24_21h34.38.073,IAT(Formal),2021.2.3,Win32,60.0024001,,,,,,,,,,,,,,,,,,,,,,,,,,,,,,,,,,,,,,,,,,,,,,,,,,,,,,,,,,,,,,,,,
,,,,i,1,0.5988,0,6,6,9,1,其他,i,1,001,2024-08-24_21h34.38.073,IAT(Formal),2021.2.3,Win32,60.0024001,,,,,,,,,,,,,,,,,,,,,,,,,,,,,,,,,,,,,,,,,,,,,,,,,,,,,,,,,,,,,,,,,
,,,,i,1,0.4821,0,7,7,8,1,他人,i,1,001,2024-08-24_21h34.38.073,IAT(Formal),2021.2.3,Win32,60.0024001,,,,,,,,,,,,,,,,,,,,,,,,,,,,,,,,,,,,,,,,,,,,,,,,,,,,,,,,,,,,,,,,,
,,,,i,1,0.514,0,8,8,7,1,他的,i,1,001,2024-08-24_21h34.38.073,IAT(Formal),2021.2.3,Win32,60.0024001,,,,,,,,,,,,,,,,,,,,,,,,,,,,,,,,,,,,,,,,,,,,,,,,,,,,,,,,,,,,,,,,,
,,,,e,1,0.5814,0,9,9,3,1,自己,e,1,001,2024-08-24_21h34.38.073,IAT(Formal),2021.2.3,Win32,60.0024001,,,,,,,,,,,,,,,,,,,,,,,,,,,,,,,,,,,,,,,,,,,,,,,,,,,,,,,,,,,,,,,,,
,,,,,,,,,,,,,,1,001,2024-08-24_21h34.38.073,IAT(Formal),2021.2.3,Win32,60.0024001,space,6.1221,e,1,0.8685,0,0,0,19,1,诚恳,e,,,,,,,,,,,,,,,,,,,,,,,,,,,,,,,,,,,,,,,,,,,,,,,,,,,,,
,,,,,,,,,,,,,,1,001,2024-08-24_21h34.38.073,IAT(Formal),2021.2.3,Win32,60.0024001,,,e,1,0.6195,0,1,1,14,1,朴实,e,,,,,,,,,,,,,,,,,,,,,,,,,,,,,,,,,,,,,,,,,,,,,,,,,,,,,
,,,,,,,,,,,,,,1,001,2024-08-24_21h34.38.073,IAT(Formal),2021.2.3,Win32,60.0024001,,,e,1,0.5389,0,2,2,17,1,热情,e,,,,,,,,,,,,,,,,,,,,,,,,,,,,,,,,,,,,,,,,,,,,,,,,,,,,,
,,,,,,,,,,,,,,1,001,2024-08-24_21h34.38.073,IAT(Formal),2021.2.3,Win32,60.0024001,,,i,1,0.6067,0,3,3,33,1,自私,i,,,,,,,,,,,,,,,,,,,,,,,,,,,,,,,,,,,,,,,,,,,,,,,,,,,,,
,,,,,,,,,,,,,,1,001,2024-08-24_21h34.38.073,IAT(Formal),2021.2.3,Win32,60.0024001,,,i,1,0.6739,0,4,4,28,1,鲁莽,i,,,,,,,,,,,,,,,,,,,,,,,,,,,,,,,,,,,,,,,,,,,,,,,,,,,,,
,,,,,,,,,,,,,,1,001,2024-08-24_21h34.38.073,IAT(Formal),2021.2.3,Win32,60.0024001,,,i,1,0.5839,0,5,5,36,1,野蛮,i,,,,,,,,,,,,,,,,,,,,,,,,,,,,,,,,,,,,,,,,,,,,,,,,,,,,,
,,,,,,,,,,,,,,1,001,2024-08-24_21h34.38.073,IAT(Formal),2021.2.3,Win32,60.0024001,,,e,1,0.6544,0,6,6,11,1,稳重,e,,,,,,,,,,,,,,,,,,,,,,,,,,,,,,,,,,,,,,,,,,,,,,,,,,,,,
,,,,,,,,,,,,,,1,001,2024-08-24_21h34.38.073,IAT(Formal),2021.2.3,Win32,60.0024001,,,i,1,0.5805,0,7,7,34,1,暴躁,i,,,,,,,,,,,,,,,,,,,,,,,,,,,,,,,,,,,,,,,,,,,,,,,,,,,,,
,,,,,,,,,,,,,,1,001,2024-08-24_21h34.38.073,IAT(Formal),2021.2.3,Win32,60.0024001,,,i,1,0.6139,0,8,8,21,1,虚伪,i,,,,,,,,,,,,,,,,,,,,,,,,,,,,,,,,,,,,,,,,,,,,,,,,,,,,,
,,,,,,,,,,,,,,1,001,2024-08-24_21h34.38.073,IAT(Formal),2021.2.3,Win32,60.0024001,,,e,1,0.6035,0,9,9,15,1,细腻,e,,,,,,,,,,,,,,,,,,,,,,,,,,,,,,,,,,,,,,,,,,,,,,,,,,,,,
,,,,,,,,,,,,,,1,001,2024-08-24_21h34.38.073,IAT(Formal),2021.2.3,Win32,60.0024001,,,e,1,0.6106,0,10,10,6,1,正直,e,,,,,,,,,,,,,,,,,,,,,,,,,,,,,,,,,,,,,,,,,,,,,,,,,,,,,
,,,,,,,,,,,,,,1,001,2024-08-24_21h34.38.073,IAT(Formal),2021.2.3,Win32,60.0024001,,,e,1,0.5429,0,11,11,4,1,乐观,e,,,,,,,,,,,,,,,,,,,,,,,,,,,,,,,,,,,,,,,,,,,,,,,,,,,,,
,,,,,,,,,,,,,,1,001,2024-08-24_21h34.38.073,IAT(Formal),2021.2.3,Win32,60.0024001,,,e,1,0.8685,0,12,12,12,1,无私,e,,,,,,,,,,,,,,,,,,,,,,,,,,,,,,,,,,,,,,,,,,,,,,,,,,,,,
,,,,,,,,,,,,,,1,001,2024-08-24_21h34.38.073,IAT(Formal),2021.2.3,Win32,60.0024001,,,i,1,0.5982,0,13,13,24,1,悲观,i,,,,,,,,,,,,,,,,,,,,,,,,,,,,,,,,,,,,,,,,,,,,,,,,,,,,,
,,,,,,,,,,,,,,1,001,2024-08-24_21h34.38.073,IAT(Formal),2021.2.3,Win32,60.0024001,,,e,1,0.6448,0,14,14,5,1,诚实,e,,,,,,,,,,,,,,,,,,,,,,,,,,,,,,,,,,,,,,,,,,,,,,,,,,,,,
,,,,,,,,,,,,,,1,001,2024-08-24_21h34.38.073,IAT(Formal),2021.2.3,Win32,60.0024001,,,e,1,0.595,0,15,15,0,1,优秀,e,,,,,,,,,,,,,,,,,,,,,,,,,,,,,,,,,,,,,,,,,,,,,,,,,,,,,
,,,,,,,,,,,,,,1,001,2024-08-24_21h34.38.073,IAT(Formal),2021.2.3,Win32,60.0024001,,,i,1,0.5648,0,16,16,27,1,傲慢,i,,,,,,,,,,,,,,,,,,,,,,,,,,,,,,,,,,,,,,,,,,,,,,,,,,,,,
,,,,,,,,,,,,,,1,001,2024-08-24_21h34.38.073,IAT(Formal),2021.2.3,Win32,60.0024001,,,e,1,0.6013,0,17,17,8,1,勤奋,e,,,,,,,,,,,,,,,,,,,,,,,,,,,,,,,,,,,,,,,,,,,,,,,,,,,,,
,,,,,,,,,,,,,,1,001,2024-08-24_21h34.38.073,IAT(Formal),2021.2.3,Win32,60.0024001,,,i,1,0.6127,0,18,18,25,1,消极,i,,,,,,,,,,,,,,,,,,,,,,,,,,,,,,,,,,,,,,,,,,,,,,,,,,,,,
,,,,,,,,,,,,,,1,001,2024-08-24_21h34.38.073,IAT(Formal),2021.2.3,Win32,60.0024001,,,i,1,0.6098,0,19,19,23,1,刻薄,i,,,,,,,,,,,,,,,,,,,,,,,,,,,,,,,,,,,,,,,,,,,,,,,,,,,,,
,,,,,,,,,,,,,,1,001,2024-08-24_21h34.38.073,IAT(Formal),2021.2.3,Win32,60.0024001,,,e,1,0.5961,0,20,20,10,1,认真,e,,,,,,,,,,,,,,,,,,,,,,,,,,,,,,,,,,,,,,,,,,,,,,,,,,,,,
,,,,,,,,,,,,,,1,001,2024-08-24_21h34.38.073,IAT(Formal),2021.2.3,Win32,60.0024001,,,e,1,0.6346,0,21,21,16,1,冷静,e,,,,,,,,,,,,,,,,,,,,,,,,,,,,,,,,,,,,,,,,,,,,,,,,,,,,,
,,,,,,,,,,,,,,1,001,2024-08-24_21h34.38.073,IAT(Formal),2021.2.3,Win32,60.0024001,,,i,1,0.5685,0,22,22,29,1,冒失,i,,,,,,,,,,,,,,,,,,,,,,,,,,,,,,,,,,,,,,,,,,,,,,,,,,,,,
,,,,,,,,,,,,,,1,001,2024-08-24_21h34.38.073,IAT(Formal),2021.2.3,Win32,60.0024001,,,e,1,0.5356,0,23,23,13,1,公正,e,,,,,,,,,,,,,,,,,,,,,,,,,,,,,,,,,,,,,,,,,,,,,,,,,,,,,
,,,,,,,,,,,,,,1,001,2024-08-24_21h34.38.073,IAT(Formal),2021.2.3,Win32,60.0024001,,,e,1,0.6463,0,24,24,3,1,杰出,e,,,,,,,,,,,,,,,,,,,,,,,,,,,,,,,,,,,,,,,,,,,,,,,,,,,,,
,,,,,,,,,,,,,,1,001,2024-08-24_21h34.38.073,IAT(Formal),2021.2.3,Win32,60.0024001,,,i,1,0.7163,0,25,25,38,1,轻率,i,,,,,,,,,,,,,,,,,,,,,,,,,,,,,,,,,,,,,,,,,,,,,,,,,,,,,
,,,,,,,,,,,,,,1,001,2024-08-24_21h34.38.073,IAT(Formal),2021.2.3,Win32,60.0024001,,,i,1,0.8686,0,26,26,30,1,执拗,i,,,,,,,,,,,,,,,,,,,,,,,,,,,,,,,,,,,,,,,,,,,,,,,,,,,,,
,,,,,,,,,,,,,,1,001,2024-08-24_21h34.38.073,IAT(Formal),2021.2.3,Win32,60.0024001,,,i,1,0.6283,0,27,27,22,1,愚蠢,i,,,,,,,,,,,,,,,,,,,,,,,,,,,,,,,,,,,,,,,,,,,,,,,,,,,,,
,,,,,,,,,,,,,,1,001,2024-08-24_21h34.38.073,IAT(Formal),2021.2.3,Win32,60.0024001,,,e,1,0.5839,0,28,28,7,1,勇敢,e,,,,,,,,,,,,,,,,,,,,,,,,,,,,,,,,,,,,,,,,,,,,,,,,,,,,,
,,,,,,,,,,,,,,1,001,2024-08-24_21h34.38.073,IAT(Formal),2021.2.3,Win32,60.0024001,,,i,1,0.7147,0,29,29,37,1,固执,i,,,,,,,,,,,,,,,,,,,,,,,,,,,,,,,,,,,,,,,,,,,,,,,,,,,,,
,,,,,,,,,,,,,,1,001,2024-08-24_21h34.38.073,IAT(Formal),2021.2.3,Win32,60.0024001,,,i,1,0.6235,0,30,30,35,1,猖狂,i,,,,,,,,,,,,,,,,,,,,,,,,,,,,,,,,,,,,,,,,,,,,,,,,,,,,,
,,,,,,,,,,,,,,1,001,2024-08-24_21h34.38.073,IAT(Formal),2021.2.3,Win32,60.0024001,,,e,1,0.6079,0,31,31,1,1,崇高,e,,,,,,,,,,,,,,,,,,,,,,,,,,,,,,,,,,,,,,,,,,,,,,,,,,,,,
,,,,,,,,,,,,,,1,001,2024-08-24_21h34.38.073,IAT(Formal),2021.2.3,Win32,60.0024001,,,i,1,0.6986,0,32,32,39,1,下贱,i,,,,,,,,,,,,,,,,,,,,,,,,,,,,,,,,,,,,,,,,,,,,,,,,,,,,,
,,,,,,,,,,,,,,1,001,2024-08-24_21h34.38.073,IAT(Formal),2021.2.3,Win32,60.0024001,,,i,1,0.8159,0,33,33,31,1,散漫,i,,,,,,,,,,,,,,,,,,,,,,,,,,,,,,,,,,,,,,,,,,,,,,,,,,,,,
,,,,,,,,,,,,,,1,001,2024-08-24_21h34.38.073,IAT(Formal),2021.2.3,Win32,60.0024001,,,e,1,0.5622,0,34,34,2,1,聪明,e,,,,,,,,,,,,,,,,,,,,,,,,,,,,,,,,,,,,,,,,,,,,,,,,,,,,,
,,,,,,,,,,,,,,1,001,2024-08-24_21h34.38.073,IAT(Formal),2021.2.3,Win32,60.0024001,,,e,1,0.555,0,35,35,9,1,机智,e,,,,,,,,,,,,,,,,,,,,,,,,,,,,,,,,,,,,,,,,,,,,,,,,,,,,,
,,,,,,,,,,,,,,1,001,2024-08-24_21h34.38.073,IAT(Formal),2021.2.3,Win32,60.0024001,,,e,1,0.6005,0,36,36,18,1,活泼,e,,,,,,,,,,,,,,,,,,,,,,,,,,,,,,,,,,,,,,,,,,,,,,,,,,,,,
,,,,,,,,,,,,,,1,001,2024-08-24_21h34.38.073,IAT(Formal),2021.2.3,Win32,60.0024001,,,i,1,0.5331,0,37,37,32,1,凶狠,i,,,,,,,,,,,,,,,,,,,,,,,,,,,,,,,,,,,,,,,,,,,,,,,,,,,,,
,,,,,,,,,,,,,,1,001,2024-08-24_21h34.38.073,IAT(Formal),2021.2.3,Win32,60.0024001,,,i,1,0.5177,0,38,38,26,1,自卑,i,,,,,,,,,,,,,,,,,,,,,,,,,,,,,,,,,,,,,,,,,,,,,,,,,,,,,
,,,,,,,,,,,,,,1,001,2024-08-24_21h34.38.073,IAT(Formal),2021.2.3,Win32,60.0024001,,,i,1,0.552,0,39,39,20,1,卑鄙,i,,,,,,,,,,,,,,,,,,,,,,,,,,,,,,,,,,,,,,,,,,,,,,,,,,,,,
,,,,,,,,,,,,,,1,001,2024-08-24_21h34.38.073,IAT(Formal),2021.2.3,Win32,60.0024001,,,,,,,,,,,,,space,12.7279,i,0,0.7428,0,0,0,12,1,聪明,e,,,,,,,,,,,,,,,,,,,,,,,,,,,,,,,,,,,,,,,,,
,,,,,,,,,,,,,,1,001,2024-08-24_21h34.38.073,IAT(Formal),2021.2.3,Win32,60.0024001,,,,,,,,,,,,,,,i,1,0.5829,0,1,1,33,1,刻薄,i,,,,,,,,,,,,,,,,,,,,,,,,,,,,,,,,,,,,,,,,,
,,,,,,,,,,,,,,1,001,2024-08-24_21h34.38.073,IAT(Formal),2021.2.3,Win32,60.0024001,,,,,,,,,,,,,,,e,1,0.5018,0,2,2,50,1,我,e,,,,,,,,,,,,,,,,,,,,,,,,,,,,,,,,,,,,,,,,,
,,,,,,,,,,,,,,1,001,2024-08-24_21h34.38.073,IAT(Formal),2021.2.3,Win32,60.0024001,,,,,,,,,,,,,,,i,1,0.5981,0,3,3,45,1,猖狂,i,,,,,,,,,,,,,,,,,,,,,,,,,,,,,,,,,,,,,,,,,
,,,,,,,,,,,,,,1,001,2024-08-24_21h34.38.073,IAT(Formal),2021.2.3,Win32,60.0024001,,,,,,,,,,,,,,,e,1,0.4786,0,4,4,52,1,我们,e,,,,,,,,,,,,,,,,,,,,,,,,,,,,,,,,,,,,,,,,,
,,,,,,,,,,,,,,1,001,2024-08-24_21h34.38.073,IAT(Formal),2021.2.3,Win32,60.0024001,,,,,,,,,,,,,,,e,1,0.5457,0,5,5,53,1,自己,e,,,,,,,,,,,,,,,,,,,,,,,,,,,,,,,,,,,,,,,,,
,,,,,,,,,,,,,,1,001,2024-08-24_21h34.38.073,IAT(Formal),2021.2.3,Win32,60.0024001,,,,,,,,,,,,,,,e,1,0.5002,0,6,6,51,1,我的,e,,,,,,,,,,,,,,,,,,,,,,,,,,,,,,,,,,,,,,,,,
,,,,,,,,,,,,,,1,001,2024-08-24_21h34.38.073,IAT(Formal),2021.2.3,Win32,60.0024001,,,,,,,,,,,,,,,e,1,0.8693,0,7,7,22,1,无私,e,,,,,,,,,,,,,,,,,,,,,,,,,,,,,,,,,,,,,,,,,
,,,,,,,,,,,,,,1,001,2024-08-24_21h34.38.073,IAT(Formal),2021.2.3,Win32,60.0024001,,,,,,,,,,,,,,,i,1,0.5585,0,8,8,47,1,固执,i,,,,,,,,,,,,,,,,,,,,,,,,,,,,,,,,,,,,,,,,,
,,,,,,,,,,,,,,1,001,2024-08-24_21h34.38.073,IAT(Formal),2021.2.3,Win32,60.0024001,,,,,,,,,,,,,,,i,1,0.6266,0,9,9,41,1,散漫,i,,,,,,,,,,,,,,,,,,,,,,,,,,,,,,,,,,,,,,,,,
,,,,,,,,,,,,,,1,001,2024-08-24_21h34.38.073,IAT(Formal),2021.2.3,Win32,60.0024001,,,,,,,,,,,,,,,e,1,0.6704,0,10,10,24,1,朴实,e,,,,,,,,,,,,,,,,,,,,,,,,,,,,,,,,,,,,,,,,,
,,,,,,,,,,,,,,1,001,2024-08-24_21h34.38.073,IAT(Formal),2021.2.3,Win32,60.0024001,,,,,,,,,,,,,,,i,1,0.5338,0,11,11,6,1,他们,i,,,,,,,,,,,,,,,,,,,,,,,,,,,,,,,,,,,,,,,,,
,,,,,,,,,,,,,,1,001,2024-08-24_21h34.38.073,IAT(Formal),2021.2.3,Win32,60.0024001,,,,,,,,,,,,,,,e,1,0.7276,0,12,12,25,1,细腻,e,,,,,,,,,,,,,,,,,,,,,,,,,,,,,,,,,,,,,,,,,
,,,,,,,,,,,,,,1,001,2024-08-24_21h34.38.073,IAT(Formal),2021.2.3,Win32,60.0024001,,,,,,,,,,,,,,,i,1,0.5549,0,13,13,56,1,他们,i,,,,,,,,,,,,,,,,,,,,,,,,,,,,,,,,,,,,,,,,,
,,,,,,,,,,,,,,1,001,2024-08-24_21h34.38.073,IAT(Formal),2021.2.3,Win32,60.0024001,,,,,,,,,,,,,,,i,1,0.5987,0,14,14,46,1,野蛮,i,,,,,,,,,,,,,,,,,,,,,,,,,,,,,,,,,,,,,,,,,
,,,,,,,,,,,,,,1,001,2024-08-24_21h34.38.073,IAT(Formal),2021.2.3,Win32,60.0024001,,,,,,,,,,,,,,,e,1,0.4917,0,15,15,1,1,我的,e,,,,,,,,,,,,,,,,,,,,,,,,,,,,,,,,,,,,,,,,,
,,,,,,,,,,,,,,1,001,2024-08-24_21h34.38.073,IAT(Formal),2021.2.3,Win32,60.0024001,,,,,,,,,,,,,,,i,1,0.5655,0,16,16,32,1,愚蠢,i,,,,,,,,,,,,,,,,,,,,,,,,,,,,,,,,,,,,,,,,,
,,,,,,,,,,,,,,1,001,2024-08-24_21h34.38.073,IAT(Formal),2021.2.3,Win32,60.0024001,,,,,,,,,,,,,,,i,1,0.6213,0,17,17,31,1,虚伪,i,,,,,,,,,,,,,,,,,,,,,,,,,,,,,,,,,,,,,,,,,
,,,,,,,,,,,,,,1,001,2024-08-24_21h34.38.073,IAT(Formal),2021.2.3,Win32,60.0024001,,,,,,,,,,,,,,,e,1,0.5068,0,18,18,71,1,我的,e,,,,,,,,,,,,,,,,,,,,,,,,,,,,,,,,,,,,,,,,,
,,,,,,,,,,,,,,1,001,2024-08-24_21h34.38.073,IAT(Formal),2021.2.3,Win32,60.0024001,,,,,,,,,,,,,,,i,1,0.5312,0,19,19,9,1,其他,i,,,,,,,,,,,,,,,,,,,,,,,,,,,,,,,,,,,,,,,,,
,,,,,,,,,,,,,,1,001,2024-08-24_21h34.38.073,IAT(Formal),2021.2.3,Win32,60.0024001,,,,,,,,,,,,,,,e,1,0.5849,0,20,20,17,1,勇敢,e,,,,,,,,,,,,,,,,,,,,,,,,,,,,,,,,,,,,,,,,,
,,,,,,,,,,,,,,1,001,2024-08-24_21h34.38.073,IAT(Formal),2021.2.3,Win32,60.0024001,,,,,,,,,,,,,,,e,1,0.5315,0,21,21,16,1,正直,e,,,,,,,,,,,,,,,,,,,,,,,,,,,,,,,,,,,,,,,,,
,,,,,,,,,,,,,,1,001,2024-08-24_21h34.38.073,IAT(Formal),2021.2.3,Win32,60.0024001,,,,,,,,,,,,,,,e,1,0.5246,0,22,22,61,1,我的,e,,,,,,,,,,,,,,,,,,,,,,,,,,,,,,,,,,,,,,,,,
,,,,,,,,,,,,,,1,001,2024-08-24_21h34.38.073,IAT(Formal),2021.2.3,Win32,60.0024001,,,,,,,,,,,,,,,i,1,0.7052,0,23,23,76,1,他们,i,,,,,,,,,,,,,,,,,,,,,,,,,,,,,,,,,,,,,,,,,
,,,,,,,,,,,,,,1,001,2024-08-24_21h34.38.073,IAT(Formal),2021.2.3,Win32,60.0024001,,,,,,,,,,,,,,,i,1,0.4141,0,24,24,7,1,他的,i,,,,,,,,,,,,,,,,,,,,,,,,,,,,,,,,,,,,,,,,,
,,,,,,,,,,,,,,1,001,2024-08-24_21h34.38.073,IAT(Formal),2021.2.3,Win32,60.0024001,,,,,,,,,,,,,,,e,1,0.8536,0,25,25,13,1,杰出,e,,,,,,,,,,,,,,,,,,,,,,,,,,,,,,,,,,,,,,,,,
,,,,,,,,,,,,,,1,001,2024-08-24_21h34.38.073,IAT(Formal),2021.2.3,Win32,60.0024001,,,,,,,,,,,,,,,e,1,0.7183,0,26,26,28,1,活泼,e,,,,,,,,,,,,,,,,,,,,,,,,,,,,,,,,,,,,,,,,,
,,,,,,,,,,,,,,1,001,2024-08-24_21h34.38.073,IAT(Formal),2021.2.3,Win32,60.0024001,,,,,,,,,,,,,,,e,1,0.6263,0,27,27,74,1,俺,e,,,,,,,,,,,,,,,,,,,,,,,,,,,,,,,,,,,,,,,,,
,,,,,,,,,,,,,,1,001,2024-08-24_21h34.38.073,IAT(Formal),2021.2.3,Win32,60.0024001,,,,,,,,,,,,,,,e,1,0.6175,0,28,28,21,1,稳重,e,,,,,,,,,,,,,,,,,,,,,,,,,,,,,,,,,,,,,,,,,
,,,,,,,,,,,,,,1,001,2024-08-24_21h34.38.073,IAT(Formal),2021.2.3,Win32,60.0024001,,,,,,,,,,,,,,,e,1,0.6009,0,29,29,26,1,冷静,e,,,,,,,,,,,,,,,,,,,,,,,,,,,,,,,,,,,,,,,,,
,,,,,,,,,,,,,,1,001,2024-08-24_21h34.38.073,IAT(Formal),2021.2.3,Win32,60.0024001,,,,,,,,,,,,,,,i,1,0.5894,0,30,30,57,1,他的,i,,,,,,,,,,,,,,,,,,,,,,,,,,,,,,,,,,,,,,,,,
,,,,,,,,,,,,,,1,001,2024-08-24_21h34.38.073,IAT(Formal),2021.2.3,Win32,60.0024001,,,,,,,,,,,,,,,i,1,0.4741,0,31,31,78,1,他人,i,,,,,,,,,,,,,,,,,,,,,,,,,,,,,,,,,,,,,,,,,
,,,,,,,,,,,,,,1,001,2024-08-24_21h34.38.073,IAT(Formal),2021.2.3,Win32,60.0024001,,,,,,,,,,,,,,,i,1,0.4036,0,32,32,5,1,他,i,,,,,,,,,,,,,,,,,,,,,,,,,,,,,,,,,,,,,,,,,
,,,,,,,,,,,,,,1,001,2024-08-24_21h34.38.073,IAT(Formal),2021.2.3,Win32,60.0024001,,,,,,,,,,,,,,,i,1,0.5636,0,33,33,79,1,其他,i,,,,,,,,,,,,,,,,,,,,,,,,,,,,,,,,,,,,,,,,,
,,,,,,,,,,,,,,1,001,2024-08-24_21h34.38.073,IAT(Formal),2021.2.3,Win32,60.0024001,,,,,,,,,,,,,,,e,1,0.5993,0,34,34,54,1,俺,e,,,,,,,,,,,,,,,,,,,,,,,,,,,,,,,,,,,,,,,,,
,,,,,,,,,,,,,,1,001,2024-08-24_21h34.38.073,IAT(Formal),2021.2.3,Win32,60.0024001,,,,,,,,,,,,,,,e,1,0.6253,0,35,35,29,1,诚恳,e,,,,,,,,,,,,,,,,,,,,,,,,,,,,,,,,,,,,,,,,,
,,,,,,,,,,,,,,1,001,2024-08-24_21h34.38.073,IAT(Formal),2021.2.3,Win32,60.0024001,,,,,,,,,,,,,,,i,1,0.5864,0,36,36,42,1,凶狠,i,,,,,,,,,,,,,,,,,,,,,,,,,,,,,,,,,,,,,,,,,
,,,,,,,,,,,,,,1,001,2024-08-24_21h34.38.073,IAT(Formal),2021.2.3,Win32,60.0024001,,,,,,,,,,,,,,,i,1,0.5039,0,37,37,30,1,卑鄙,i,,,,,,,,,,,,,,,,,,,,,,,,,,,,,,,,,,,,,,,,,
,,,,,,,,,,,,,,1,001,2024-08-24_21h34.38.073,IAT(Formal),2021.2.3,Win32,60.0024001,,,,,,,,,,,,,,,e,1,0.4787,0,38,38,11,1,崇高,e,,,,,,,,,,,,,,,,,,,,,,,,,,,,,,,,,,,,,,,,,
,,,,,,,,,,,,,,1,001,2024-08-24_21h34.38.073,IAT(Formal),2021.2.3,Win32,60.0024001,,,,,,,,,,,,,,,i,1,0.5226,0,39,39,59,1,其他,i,,,,,,,,,,,,,,,,,,,,,,,,,,,,,,,,,,,,,,,,,
,,,,,,,,,,,,,,1,001,2024-08-24_21h34.38.073,IAT(Formal),2021.2.3,Win32,60.0024001,,,,,,,,,,,,,,,i,1,0.5653,0,40,40,37,1,傲慢,i,,,,,,,,,,,,,,,,,,,,,,,,,,,,,,,,,,,,,,,,,
,,,,,,,,,,,,,,1,001,2024-08-24_21h34.38.073,IAT(Formal),2021.2.3,Win32,60.0024001,,,,,,,,,,,,,,,i,1,0.5895,0,41,41,67,1,他的,i,,,,,,,,,,,,,,,,,,,,,,,,,,,,,,,,,,,,,,,,,
,,,,,,,,,,,,,,1,001,2024-08-24_21h34.38.073,IAT(Formal),2021.2.3,Win32,60.0024001,,,,,,,,,,,,,,,e,1,0.5483,0,42,42,10,1,优秀,e,,,,,,,,,,,,,,,,,,,,,,,,,,,,,,,,,,,,,,,,,
,,,,,,,,,,,,,,1,001,2024-08-24_21h34.38.073,IAT(Formal),2021.2.3,Win32,60.0024001,,,,,,,,,,,,,,,i,1,0.4982,0,43,43,77,1,他的,i,,,,,,,,,,,,,,,,,,,,,,,,,,,,,,,,,,,,,,,,,
,,,,,,,,,,,,,,1,001,2024-08-24_21h34.38.073,IAT(Formal),2021.2.3,Win32,60.0024001,,,,,,,,,,,,,,,e,1,0.5512,0,44,44,19,1,机智,e,,,,,,,,,,,,,,,,,,,,,,,,,,,,,,,,,,,,,,,,,
,,,,,,,,,,,,,,1,001,2024-08-24_21h34.38.073,IAT(Formal),2021.2.3,Win32,60.0024001,,,,,,,,,,,,,,,i,1,0.6232,0,45,45,40,1,执拗,i,,,,,,,,,,,,,,,,,,,,,,,,,,,,,,,,,,,,,,,,,
,,,,,,,,,,,,,,1,001,2024-08-24_21h34.38.073,IAT(Formal),2021.2.3,Win32,60.0024001,,,,,,,,,,,,,,,i,1,0.4447,0,46,46,68,1,他人,i,,,,,,,,,,,,,,,,,,,,,,,,,,,,,,,,,,,,,,,,,
,,,,,,,,,,,,,,1,001,2024-08-24_21h34.38.073,IAT(Formal),2021.2.3,Win32,60.0024001,,,,,,,,,,,,,,,e,1,0.5065,0,47,47,3,1,自己,e,,,,,,,,,,,,,,,,,,,,,,,,,,,,,,,,,,,,,,,,,
,,,,,,,,,,,,,,1,001,2024-08-24_21h34.38.073,IAT(Formal),2021.2.3,Win32,60.0024001,,,,,,,,,,,,,,,e,1,0.4671,0,48,48,4,1,俺,e,,,,,,,,,,,,,,,,,,,,,,,,,,,,,,,,,,,,,,,,,
,,,,,,,,,,,,,,1,001,2024-08-24_21h34.38.073,IAT(Formal),2021.2.3,Win32,60.0024001,,,,,,,,,,,,,,,i,1,0.5666,0,49,49,38,1,鲁莽,i,,,,,,,,,,,,,,,,,,,,,,,,,,,,,,,,,,,,,,,,,
,,,,,,,,,,,,,,1,001,2024-08-24_21h34.38.073,IAT(Formal),2021.2.3,Win32,60.0024001,,,,,,,,,,,,,,,e,1,0.6151,0,50,50,20,1,认真,e,,,,,,,,,,,,,,,,,,,,,,,,,,,,,,,,,,,,,,,,,
,,,,,,,,,,,,,,1,001,2024-08-24_21h34.38.073,IAT(Formal),2021.2.3,Win32,60.0024001,,,,,,,,,,,,,,,i,1,0.5814,0,51,51,49,1,下贱,i,,,,,,,,,,,,,,,,,,,,,,,,,,,,,,,,,,,,,,,,,
,,,,,,,,,,,,,,1,001,2024-08-24_21h34.38.073,IAT(Formal),2021.2.3,Win32,60.0024001,,,,,,,,,,,,,,,e,1,0.5437,0,52,52,70,1,我,e,,,,,,,,,,,,,,,,,,,,,,,,,,,,,,,,,,,,,,,,,
,,,,,,,,,,,,,,1,001,2024-08-24_21h34.38.073,IAT(Formal),2021.2.3,Win32,60.0024001,,,,,,,,,,,,,,,i,1,0.6651,0,53,53,36,1,自卑,i,,,,,,,,,,,,,,,,,,,,,,,,,,,,,,,,,,,,,,,,,
,,,,,,,,,,,,,,1,001,2024-08-24_21h34.38.073,IAT(Formal),2021.2.3,Win32,60.0024001,,,,,,,,,,,,,,,e,1,0.4653,0,54,54,0,1,我,e,,,,,,,,,,,,,,,,,,,,,,,,,,,,,,,,,,,,,,,,,
,,,,,,,,,,,,,,1,001,2024-08-24_21h34.38.073,IAT(Formal),2021.2.3,Win32,60.0024001,,,,,,,,,,,,,,,e,1,0.6163,0,55,55,62,1,我们,e,,,,,,,,,,,,,,,,,,,,,,,,,,,,,,,,,,,,,,,,,
,,,,,,,,,,,,,,1,001,2024-08-24_21h34.38.073,IAT(Formal),2021.2.3,Win32,60.0024001,,,,,,,,,,,,,,,i,1,0.5649,0,56,56,35,1,消极,i,,,,,,,,,,,,,,,,,,,,,,,,,,,,,,,,,,,,,,,,,
,,,,,,,,,,,,,,1,001,2024-08-24_21h34.38.073,IAT(Formal),2021.2.3,Win32,60.0024001,,,,,,,,,,,,,,,e,1,0.6173,0,57,57,23,1,公正,e,,,,,,,,,,,,,,,,,,,,,,,,,,,,,,,,,,,,,,,,,
,,,,,,,,,,,,,,1,001,2024-08-24_21h34.38.073,IAT(Formal),2021.2.3,Win32,60.0024001,,,,,,,,,,,,,,,i,1,0.47,0,58,58,65,1,他,i,,,,,,,,,,,,,,,,,,,,,,,,,,,,,,,,,,,,,,,,,
,,,,,,,,,,,,,,1,001,2024-08-24_21h34.38.073,IAT(Formal),2021.2.3,Win32,60.0024001,,,,,,,,,,,,,,,i,1,0.6413,0,59,59,43,1,自私,i,,,,,,,,,,,,,,,,,,,,,,,,,,,,,,,,,,,,,,,,,
,,,,,,,,,,,,,,1,001,2024-08-24_21h34.38.073,IAT(Formal),2021.2.3,Win32,60.0024001,,,,,,,,,,,,,,,e,1,0.6144,0,60,60,14,1,乐观,e,,,,,,,,,,,,,,,,,,,,,,,,,,,,,,,,,,,,,,,,,
,,,,,,,,,,,,,,1,001,2024-08-24_21h34.38.073,IAT(Formal),2021.2.3,Win32,60.0024001,,,,,,,,,,,,,,,e,1,0.5662,0,61,61,73,1,自己,e,,,,,,,,,,,,,,,,,,,,,,,,,,,,,,,,,,,,,,,,,
,,,,,,,,,,,,,,1,001,2024-08-24_21h34.38.073,IAT(Formal),2021.2.3,Win32,60.0024001,,,,,,,,,,,,,,,e,1,0.5664,0,62,62,18,1,勤奋,e,,,,,,,,,,,,,,,,,,,,,,,,,,,,,,,,,,,,,,,,,
,,,,,,,,,,,,,,1,001,2024-08-24_21h34.38.073,IAT(Formal),2021.2.3,Win32,60.0024001,,,,,,,,,,,,,,,i,1,1.1054,0,63,63,39,1,冒失,i,,,,,,,,,,,,,,,,,,,,,,,,,,,,,,,,,,,,,,,,,
,,,,,,,,,,,,,,1,001,2024-08-24_21h34.38.073,IAT(Formal),2021.2.3,Win32,60.0024001,,,,,,,,,,,,,,,i,1,0.7137,0,64,64,48,1,轻率,i,,,,,,,,,,,,,,,,,,,,,,,,,,,,,,,,,,,,,,,,,
,,,,,,,,,,,,,,1,001,2024-08-24_21h34.38.073,IAT(Formal),2021.2.3,Win32,60.0024001,,,,,,,,,,,,,,,e,1,0.5915,0,65,65,64,1,俺,e,,,,,,,,,,,,,,,,,,,,,,,,,,,,,,,,,,,,,,,,,
,,,,,,,,,,,,,,1,001,2024-08-24_21h34.38.073,IAT(Formal),2021.2.3,Win32,60.0024001,,,,,,,,,,,,,,,i,1,0.618,0,66,66,69,1,其他,i,,,,,,,,,,,,,,,,,,,,,,,,,,,,,,,,,,,,,,,,,
,,,,,,,,,,,,,,1,001,2024-08-24_21h34.38.073,IAT(Formal),2021.2.3,Win32,60.0024001,,,,,,,,,,,,,,,i,1,0.9335,0,67,67,8,1,他人,i,,,,,,,,,,,,,,,,,,,,,,,,,,,,,,,,,,,,,,,,,
,,,,,,,,,,,,,,1,001,2024-08-24_21h34.38.073,IAT(Formal),2021.2.3,Win32,60.0024001,,,,,,,,,,,,,,,i,1,0.4322,0,68,68,75,1,他,i,,,,,,,,,,,,,,,,,,,,,,,,,,,,,,,,,,,,,,,,,
,,,,,,,,,,,,,,1,001,2024-08-24_21h34.38.073,IAT(Formal),2021.2.3,Win32,60.0024001,,,,,,,,,,,,,,,i,1,0.3674,0,69,69,55,1,他,i,,,,,,,,,,,,,,,,,,,,,,,,,,,,,,,,,,,,,,,,,
,,,,,,,,,,,,,,1,001,2024-08-24_21h34.38.073,IAT(Formal),2021.2.3,Win32,60.0024001,,,,,,,,,,,,,,,e,1,0.4239,0,70,70,2,1,我们,e,,,,,,,,,,,,,,,,,,,,,,,,,,,,,,,,,,,,,,,,,
,,,,,,,,,,,,,,1,001,2024-08-24_21h34.38.073,IAT(Formal),2021.2.3,Win32,60.0024001,,,,,,,,,,,,,,,e,1,0.6255,0,71,71,15,1,诚实,e,,,,,,,,,,,,,,,,,,,,,,,,,,,,,,,,,,,,,,,,,
,,,,,,,,,,,,,,1,001,2024-08-24_21h34.38.073,IAT(Formal),2021.2.3,Win32,60.0024001,,,,,,,,,,,,,,,i,1,0.5951,0,72,72,66,1,他们,i,,,,,,,,,,,,,,,,,,,,,,,,,,,,,,,,,,,,,,,,,
,,,,,,,,,,,,,,1,001,2024-08-24_21h34.38.073,IAT(Formal),2021.2.3,Win32,60.0024001,,,,,,,,,,,,,,,i,1,0.5819,0,73,73,34,1,悲观,i,,,,,,,,,,,,,,,,,,,,,,,,,,,,,,,,,,,,,,,,,
,,,,,,,,,,,,,,1,001,2024-08-24_21h34.38.073,IAT(Formal),2021.2.3,Win32,60.0024001,,,,,,,,,,,,,,,e,1,0.597,0,74,74,27,1,热情,e,,,,,,,,,,,,,,,,,,,,,,,,,,,,,,,,,,,,,,,,,
,,,,,,,,,,,,,,1,001,2024-08-24_21h34.38.073,IAT(Formal),2021.2.3,Win32,60.0024001,,,,,,,,,,,,,,,e,1,0.5222,0,75,75,72,1,我们,e,,,,,,,,,,,,,,,,,,,,,,,,,,,,,,,,,,,,,,,,,
,,,,,,,,,,,,,,1,001,2024-08-24_21h34.38.073,IAT(Formal),2021.2.3,Win32,60.0024001,,,,,,,,,,,,,,,e,1,0.6164,0,76,76,60,1,我,e,,,,,,,,,,,,,,,,,,,,,,,,,,,,,,,,,,,,,,,,,
,,,,,,,,,,,,,,1,001,2024-08-24_21h34.38.073,IAT(Formal),2021.2.3,Win32,60.0024001,,,,,,,,,,,,,,,i,1,0.4901,0,77,77,58,1,他人,i,,,,,,,,,,,,,,,,,,,,,,,,,,,,,,,,,,,,,,,,,
,,,,,,,,,,,,,,1,001,2024-08-24_21h34.38.073,IAT(Formal),2021.2.3,Win32,60.0024001,,,,,,,,,,,,,,,e,1,0.665,0,78,78,63,1,自己,e,,,,,,,,,,,,,,,,,,,,,,,,,,,,,,,,,,,,,,,,,
,,,,,,,,,,,,,,1,001,2024-08-24_21h34.38.073,IAT(Formal),2021.2.3,Win32,60.0024001,,,,,,,,,,,,,,,i,1,0.5807,0,79,79,44,1,暴躁,i,,,,,,,,,,,,,,,,,,,,,,,,,,,,,,,,,,,,,,,,,
,,,,,,,,,,,,,,1,001,2024-08-24_21h34.38.073,IAT(Formal),2021.2.3,Win32,60.0024001,,,,,,,,,,,,,,,i,1,0.5653,,,,,,他的,i,space,12.7731,0,0,0,57,1,,,,,,,,,,,,,,,,,,,,,,,,,,,,,,,,,,
,,,,,,,,,,,,,,1,001,2024-08-24_21h34.38.073,IAT(Formal),2021.2.3,Win32,60.0024001,,,,,,,,,,,,,,,e,1,0.3993,,,,,,自己,e,,,0,1,1,73,1,,,,,,,,,,,,,,,,,,,,,,,,,,,,,,,,,,
,,,,,,,,,,,,,,1,001,2024-08-24_21h34.38.073,IAT(Formal),2021.2.3,Win32,60.0024001,,,,,,,,,,,,,,,e,1,0.4913,,,,,,我们,e,,,0,2,2,2,1,,,,,,,,,,,,,,,,,,,,,,,,,,,,,,,,,,
,,,,,,,,,,,,,,1,001,2024-08-24_21h34.38.073,IAT(Formal),2021.2.3,Win32,60.0024001,,,,,,,,,,,,,,,e,1,0.4053,,,,,,我们,e,,,0,3,3,52,1,,,,,,,,,,,,,,,,,,,,,,,,,,,,,,,,,,
,,,,,,,,,,,,,,1,001,2024-08-24_21h34.38.073,IAT(Formal),2021.2.3,Win32,60.0024001,,,,,,,,,,,,,,,e,1,0.3667,,,,,,我的,e,,,0,4,4,61,1,,,,,,,,,,,,,,,,,,,,,,,,,,,,,,,,,,
,,,,,,,,,,,,,,1,001,2024-08-24_21h34.38.073,IAT(Formal),2021.2.3,Win32,60.0024001,,,,,,,,,,,,,,,e,1,0.4705,,,,,,杰出,e,,,0,5,5,13,1,,,,,,,,,,,,,,,,,,,,,,,,,,,,,,,,,,
,,,,,,,,,,,,,,1,001,2024-08-24_21h34.38.073,IAT(Formal),2021.2.3,Win32,60.0024001,,,,,,,,,,,,,,,e,1,0.5221,,,,,,朴实,e,,,0,6,6,24,1,,,,,,,,,,,,,,,,,,,,,,,,,,,,,,,,,,
,,,,,,,,,,,,,,1,001,2024-08-24_21h34.38.073,IAT(Formal),2021.2.3,Win32,60.0024001,,,,,,,,,,,,,,,e,1,0.4343,,,,,,诚实,e,,,0,7,7,15,1,,,,,,,,,,,,,,,,,,,,,,,,,,,,,,,,,,
,,,,,,,,,,,,,,1,001,2024-08-24_21h34.38.073,IAT(Formal),2021.2.3,Win32,60.0024001,,,,,,,,,,,,,,,i,1,0.4227,,,,,,悲观,i,,,0,8,8,34,1,,,,,,,,,,,,,,,,,,,,,,,,,,,,,,,,,,
,,,,,,,,,,,,,,1,001,2024-08-24_21h34.38.073,IAT(Formal),2021.2.3,Win32,60.0024001,,,,,,,,,,,,,,,i,0,0.4609,,,,,,无私,e,,,0,9,9,22,1,,,,,,,,,,,,,,,,,,,,,,,,,,,,,,,,,,
,,,,,,,,,,,,,,1,001,2024-08-24_21h34.38.073,IAT(Formal),2021.2.3,Win32,60.0024001,,,,,,,,,,,,,,,i,1,0.5652,,,,,,他的,i,,,0,10,10,7,1,,,,,,,,,,,,,,,,,,,,,,,,,,,,,,,,,,
,,,,,,,,,,,,,,1,001,2024-08-24_21h34.38.073,IAT(Formal),2021.2.3,Win32,60.0024001,,,,,,,,,,,,,,,i,1,0.55,,,,,,凶狠,i,,,0,11,11,42,1,,,,,,,,,,,,,,,,,,,,,,,,,,,,,,,,,,
,,,,,,,,,,,,,,1,001,2024-08-24_21h34.38.073,IAT(Formal),2021.2.3,Win32,60.0024001,,,,,,,,,,,,,,,i,1,0.5483,,,,,,野蛮,i,,,0,12,12,46,1,,,,,,,,,,,,,,,,,,,,,,,,,,,,,,,,,,
,,,,,,,,,,,,,,1,001,2024-08-24_21h34.38.073,IAT(Formal),2021.2.3,Win32,60.0024001,,,,,,,,,,,,,,,e,1,0.5237,,,,,,聪明,e,,,0,13,13,12,1,,,,,,,,,,,,,,,,,,,,,,,,,,,,,,,,,,
,,,,,,,,,,,,,,1,001,2024-08-24_21h34.38.073,IAT(Formal),2021.2.3,Win32,60.0024001,,,,,,,,,,,,,,,i,1,0.5878,,,,,,暴躁,i,,,0,14,14,44,1,,,,,,,,,,,,,,,,,,,,,,,,,,,,,,,,,,
,,,,,,,,,,,,,,1,001,2024-08-24_21h34.38.073,IAT(Formal),2021.2.3,Win32,60.0024001,,,,,,,,,,,,,,,i,1,0.7117,,,,,,他们,i,,,0,15,15,6,1,,,,,,,,,,,,,,,,,,,,,,,,,,,,,,,,,,
,,,,,,,,,,,,,,1,001,2024-08-24_21h34.38.073,IAT(Formal),2021.2.3,Win32,60.0024001,,,,,,,,,,,,,,,e,1,0.5321,,,,,,勤奋,e,,,0,16,16,18,1,,,,,,,,,,,,,,,,,,,,,,,,,,,,,,,,,,
,,,,,,,,,,,,,,1,001,2024-08-24_21h34.38.073,IAT(Formal),2021.2.3,Win32,60.0024001,,,,,,,,,,,,,,,e,1,0.4732,,,,,,我,e,,,0,17,17,50,1,,,,,,,,,,,,,,,,,,,,,,,,,,,,,,,,,,
,,,,,,,,,,,,,,1,001,2024-08-24_21h34.38.073,IAT(Formal),2021.2.3,Win32,60.0024001,,,,,,,,,,,,,,,e,1,0.4565,,,,,,自己,e,,,0,18,18,3,1,,,,,,,,,,,,,,,,,,,,,,,,,,,,,,,,,,
,,,,,,,,,,,,,,1,001,2024-08-24_21h34.38.073,IAT(Formal),2021.2.3,Win32,60.0024001,,,,,,,,,,,,,,,i,1,0.5574,,,,,,他人,i,,,0,19,19,8,1,,,,,,,,,,,,,,,,,,,,,,,,,,,,,,,,,,
,,,,,,,,,,,,,,1,001,2024-08-24_21h34.38.073,IAT(Formal),2021.2.3,Win32,60.0024001,,,,,,,,,,,,,,,e,1,0.5178,,,,,,热情,e,,,0,20,20,27,1,,,,,,,,,,,,,,,,,,,,,,,,,,,,,,,,,,
,,,,,,,,,,,,,,1,001,2024-08-24_21h34.38.073,IAT(Formal),2021.2.3,Win32,60.0024001,,,,,,,,,,,,,,,e,1,0.5982,,,,,,稳重,e,,,0,21,21,21,1,,,,,,,,,,,,,,,,,,,,,,,,,,,,,,,,,,
,,,,,,,,,,,,,,1,001,2024-08-24_21h34.38.073,IAT(Formal),2021.2.3,Win32,60.0024001,,,,,,,,,,,,,,,e,1,0.6377,,,,,,自己,e,,,0,22,22,53,1,,,,,,,,,,,,,,,,,,,,,,,,,,,,,,,,,,
,,,,,,,,,,,,,,1,001,2024-08-24_21h34.38.073,IAT(Formal),2021.2.3,Win32,60.0024001,,,,,,,,,,,,,,,e,1,0.5917,,,,,,优秀,e,,,0,23,23,10,1,,,,,,,,,,,,,,,,,,,,,,,,,,,,,,,,,,
,,,,,,,,,,,,,,1,001,2024-08-24_21h34.38.073,IAT(Formal),2021.2.3,Win32,60.0024001,,,,,,,,,,,,,,,i,1,0.6981,,,,,,他的,i,,,0,24,24,67,1,,,,,,,,,,,,,,,,,,,,,,,,,,,,,,,,,,
,,,,,,,,,,,,,,1,001,2024-08-24_21h34.38.073,IAT(Formal),2021.2.3,Win32,60.0024001,,,,,,,,,,,,,,,i,1,0.5495,,,,,,他的,i,,,0,25,25,77,1,,,,,,,,,,,,,,,,,,,,,,,,,,,,,,,,,,
,,,,,,,,,,,,,,1,001,2024-08-24_21h34.38.073,IAT(Formal),2021.2.3,Win32,60.0024001,,,,,,,,,,,,,,,e,1,0.5658,,,,,,俺,e,,,0,26,26,64,1,,,,,,,,,,,,,,,,,,,,,,,,,,,,,,,,,,
,,,,,,,,,,,,,,1,001,2024-08-24_21h34.38.073,IAT(Formal),2021.2.3,Win32,60.0024001,,,,,,,,,,,,,,,e,1,0.6239,,,,,,自己,e,,,0,27,27,63,1,,,,,,,,,,,,,,,,,,,,,,,,,,,,,,,,,,
,,,,,,,,,,,,,,1,001,2024-08-24_21h34.38.073,IAT(Formal),2021.2.3,Win32,60.0024001,,,,,,,,,,,,,,,i,1,1.1228,,,,,,愚蠢,i,,,0,28,28,32,1,,,,,,,,,,,,,,,,,,,,,,,,,,,,,,,,,,
,,,,,,,,,,,,,,1,001,2024-08-24_21h34.38.073,IAT(Formal),2021.2.3,Win32,60.0024001,,,,,,,,,,,,,,,i,1,0.589,,,,,,他们,i,,,0,29,29,66,1,,,,,,,,,,,,,,,,,,,,,,,,,,,,,,,,,,
,,,,,,,,,,,,,,1,001,2024-08-24_21h34.38.073,IAT(Formal),2021.2.3,Win32,60.0024001,,,,,,,,,,,,,,,i,1,0.6552,,,,,,轻率,i,,,0,30,30,48,1,,,,,,,,,,,,,,,,,,,,,,,,,,,,,,,,,,
,,,,,,,,,,,,,,1,001,2024-08-24_21h34.38.073,IAT(Formal),2021.2.3,Win32,60.0024001,,,,,,,,,,,,,,,i,1,0.5591,,,,,,刻薄,i,,,0,31,31,33,1,,,,,,,,,,,,,,,,,,,,,,,,,,,,,,,,,,
,,,,,,,,,,,,,,1,001,2024-08-24_21h34.38.073,IAT(Formal),2021.2.3,Win32,60.0024001,,,,,,,,,,,,,,,e,0,0.439,,,,,,他人,i,,,0,32,32,78,1,,,,,,,,,,,,,,,,,,,,,,,,,,,,,,,,,,
,,,,,,,,,,,,,,1,001,2024-08-24_21h34.38.073,IAT(Formal),2021.2.3,Win32,60.0024001,,,,,,,,,,,,,,,i,1,0.766,,,,,,冒失,i,,,0,33,33,39,1,,,,,,,,,,,,,,,,,,,,,,,,,,,,,,,,,,
,,,,,,,,,,,,,,1,001,2024-08-24_21h34.38.073,IAT(Formal),2021.2.3,Win32,60.0024001,,,,,,,,,,,,,,,e,1,0.7571,,,,,,勇敢,e,,,0,34,34,17,1,,,,,,,,,,,,,,,,,,,,,,,,,,,,,,,,,,
,,,,,,,,,,,,,,1,001,2024-08-24_21h34.38.073,IAT(Formal),2021.2.3,Win32,60.0024001,,,,,,,,,,,,,,,e,1,0.7056,,,,,,我的,e,,,0,35,35,1,1,,,,,,,,,,,,,,,,,,,,,,,,,,,,,,,,,,
,,,,,,,,,,,,,,1,001,2024-08-24_21h34.38.073,IAT(Formal),2021.2.3,Win32,60.0024001,,,,,,,,,,,,,,,e,1,0.57,,,,,,俺,e,,,0,36,36,4,1,,,,,,,,,,,,,,,,,,,,,,,,,,,,,,,,,,
,,,,,,,,,,,,,,1,001,2024-08-24_21h34.38.073,IAT(Formal),2021.2.3,Win32,60.0024001,,,,,,,,,,,,,,,e,1,0.5441,,,,,,我,e,,,0,37,37,0,1,,,,,,,,,,,,,,,,,,,,,,,,,,,,,,,,,,
,,,,,,,,,,,,,,1,001,2024-08-24_21h34.38.073,IAT(Formal),2021.2.3,Win32,60.0024001,,,,,,,,,,,,,,,i,1,0.959,,,,,,其他,i,,,0,38,38,9,1,,,,,,,,,,,,,,,,,,,,,,,,,,,,,,,,,,
,,,,,,,,,,,,,,1,001,2024-08-24_21h34.38.073,IAT(Formal),2021.2.3,Win32,60.0024001,,,,,,,,,,,,,,,e,1,0.6479,,,,,,正直,e,,,0,39,39,16,1,,,,,,,,,,,,,,,,,,,,,,,,,,,,,,,,,,
,,,,,,,,,,,,,,1,001,2024-08-24_21h34.38.073,IAT(Formal),2021.2.3,Win32,60.0024001,,,,,,,,,,,,,,,i,1,0.5767,,,,,,他,i,,,0,40,40,65,1,,,,,,,,,,,,,,,,,,,,,,,,,,,,,,,,,,
,,,,,,,,,,,,,,1,001,2024-08-24_21h34.38.073,IAT(Formal),2021.2.3,Win32,60.0024001,,,,,,,,,,,,,,,i,1,0.4501,,,,,,他们,i,,,0,41,41,76,1,,,,,,,,,,,,,,,,,,,,,,,,,,,,,,,,,,
,,,,,,,,,,,,,,1,001,2024-08-24_21h34.38.073,IAT(Formal),2021.2.3,Win32,60.0024001,,,,,,,,,,,,,,,i,1,0.5163,,,,,,卑鄙,i,,,0,42,42,30,1,,,,,,,,,,,,,,,,,,,,,,,,,,,,,,,,,,
,,,,,,,,,,,,,,1,001,2024-08-24_21h34.38.073,IAT(Formal),2021.2.3,Win32,60.0024001,,,,,,,,,,,,,,,i,1,0.4364,,,,,,自卑,i,,,0,43,43,36,1,,,,,,,,,,,,,,,,,,,,,,,,,,,,,,,,,,
,,,,,,,,,,,,,,1,001,2024-08-24_21h34.38.073,IAT(Formal),2021.2.3,Win32,60.0024001,,,,,,,,,,,,,,,i,1,0.46,,,,,,傲慢,i,,,0,44,44,37,1,,,,,,,,,,,,,,,,,,,,,,,,,,,,,,,,,,
,,,,,,,,,,,,,,1,001,2024-08-24_21h34.38.073,IAT(Formal),2021.2.3,Win32,60.0024001,,,,,,,,,,,,,,,e,1,0.4515,,,,,,俺,e,,,0,45,45,54,1,,,,,,,,,,,,,,,,,,,,,,,,,,,,,,,,,,
,,,,,,,,,,,,,,1,001,2024-08-24_21h34.38.073,IAT(Formal),2021.2.3,Win32,60.0024001,,,,,,,,,,,,,,,e,1,0.5979,,,,,,诚恳,e,,,0,46,46,29,1,,,,,,,,,,,,,,,,,,,,,,,,,,,,,,,,,,
,,,,,,,,,,,,,,1,001,2024-08-24_21h34.38.073,IAT(Formal),2021.2.3,Win32,60.0024001,,,,,,,,,,,,,,,e,1,0.4575,,,,,,我的,e,,,0,47,47,51,1,,,,,,,,,,,,,,,,,,,,,,,,,,,,,,,,,,
,,,,,,,,,,,,,,1,001,2024-08-24_21h34.38.073,IAT(Formal),2021.2.3,Win32,60.0024001,,,,,,,,,,,,,,,i,1,0.5805,,,,,,消极,i,,,0,48,48,35,1,,,,,,,,,,,,,,,,,,,,,,,,,,,,,,,,,,
,,,,,,,,,,,,,,1,001,2024-08-24_21h34.38.073,IAT(Formal),2021.2.3,Win32,60.0024001,,,,,,,,,,,,,,,i,1,0.6172,,,,,,猖狂,i,,,0,49,49,45,1,,,,,,,,,,,,,,,,,,,,,,,,,,,,,,,,,,
,,,,,,,,,,,,,,1,001,2024-08-24_21h34.38.073,IAT(Formal),2021.2.3,Win32,60.0024001,,,,,,,,,,,,,,,i,1,0.5197,,,,,,鲁莽,i,,,0,50,50,38,1,,,,,,,,,,,,,,,,,,,,,,,,,,,,,,,,,,
,,,,,,,,,,,,,,1,001,2024-08-24_21h34.38.073,IAT(Formal),2021.2.3,Win32,60.0024001,,,,,,,,,,,,,,,i,1,0.3992,,,,,,散漫,i,,,0,51,51,41,1,,,,,,,,,,,,,,,,,,,,,,,,,,,,,,,,,,
,,,,,,,,,,,,,,1,001,2024-08-24_21h34.38.073,IAT(Formal),2021.2.3,Win32,60.0024001,,,,,,,,,,,,,,,i,0,0.9071,,,,,,冷静,e,,,0,52,52,26,1,,,,,,,,,,,,,,,,,,,,,,,,,,,,,,,,,,
,,,,,,,,,,,,,,1,001,2024-08-24_21h34.38.073,IAT(Formal),2021.2.3,Win32,60.0024001,,,,,,,,,,,,,,,i,1,0.5994,,,,,,他们,i,,,0,53,53,56,1,,,,,,,,,,,,,,,,,,,,,,,,,,,,,,,,,,
,,,,,,,,,,,,,,1,001,2024-08-24_21h34.38.073,IAT(Formal),2021.2.3,Win32,60.0024001,,,,,,,,,,,,,,,e,1,0.9447,,,,,,公正,e,,,0,54,54,23,1,,,,,,,,,,,,,,,,,,,,,,,,,,,,,,,,,,
,,,,,,,,,,,,,,1,001,2024-08-24_21h34.38.073,IAT(Formal),2021.2.3,Win32,60.0024001,,,,,,,,,,,,,,,e,1,0.6197,,,,,,崇高,e,,,0,55,55,11,1,,,,,,,,,,,,,,,,,,,,,,,,,,,,,,,,,,
,,,,,,,,,,,,,,1,001,2024-08-24_21h34.38.073,IAT(Formal),2021.2.3,Win32,60.0024001,,,,,,,,,,,,,,,i,1,0.5502,,,,,,下贱,i,,,0,56,56,49,1,,,,,,,,,,,,,,,,,,,,,,,,,,,,,,,,,,
,,,,,,,,,,,,,,1,001,2024-08-24_21h34.38.073,IAT(Formal),2021.2.3,Win32,60.0024001,,,,,,,,,,,,,,,e,1,0.635,,,,,,认真,e,,,0,57,57,20,1,,,,,,,,,,,,,,,,,,,,,,,,,,,,,,,,,,
,,,,,,,,,,,,,,1,001,2024-08-24_21h34.38.073,IAT(Formal),2021.2.3,Win32,60.0024001,,,,,,,,,,,,,,,i,1,0.5583,,,,,,他人,i,,,0,58,58,58,1,,,,,,,,,,,,,,,,,,,,,,,,,,,,,,,,,,
,,,,,,,,,,,,,,1,001,2024-08-24_21h34.38.073,IAT(Formal),2021.2.3,Win32,60.0024001,,,,,,,,,,,,,,,i,1,0.5642,,,,,,其他,i,,,0,59,59,69,1,,,,,,,,,,,,,,,,,,,,,,,,,,,,,,,,,,
,,,,,,,,,,,,,,1,001,2024-08-24_21h34.38.073,IAT(Formal),2021.2.3,Win32,60.0024001,,,,,,,,,,,,,,,e,1,0.5256,,,,,,我们,e,,,0,60,60,62,1,,,,,,,,,,,,,,,,,,,,,,,,,,,,,,,,,,
,,,,,,,,,,,,,,1,001,2024-08-24_21h34.38.073,IAT(Formal),2021.2.3,Win32,60.0024001,,,,,,,,,,,,,,,i,1,0.5369,,,,,,他人,i,,,0,61,61,68,1,,,,,,,,,,,,,,,,,,,,,,,,,,,,,,,,,,
,,,,,,,,,,,,,,1,001,2024-08-24_21h34.38.073,IAT(Formal),2021.2.3,Win32,60.0024001,,,,,,,,,,,,,,,i,1,0.6384,,,,,,虚伪,i,,,0,62,62,31,1,,,,,,,,,,,,,,,,,,,,,,,,,,,,,,,,,,
,,,,,,,,,,,,,,1,001,2024-08-24_21h34.38.073,IAT(Formal),2021.2.3,Win32,60.0024001,,,,,,,,,,,,,,,i,1,0.5042,,,,,,自私,i,,,0,63,63,43,1,,,,,,,,,,,,,,,,,,,,,,,,,,,,,,,,,,
,,,,,,,,,,,,,,1,001,2024-08-24_21h34.38.073,IAT(Formal),2021.2.3,Win32,60.0024001,,,,,,,,,,,,,,,e,1,0.5808,,,,,,我,e,,,0,64,64,60,1,,,,,,,,,,,,,,,,,,,,,,,,,,,,,,,,,,
,,,,,,,,,,,,,,1,001,2024-08-24_21h34.38.073,IAT(Formal),2021.2.3,Win32,60.0024001,,,,,,,,,,,,,,,e,1,0.5601,,,,,,活泼,e,,,0,65,65,28,1,,,,,,,,,,,,,,,,,,,,,,,,,,,,,,,,,,
,,,,,,,,,,,,,,1,001,2024-08-24_21h34.38.073,IAT(Formal),2021.2.3,Win32,60.0024001,,,,,,,,,,,,,,,e,1,0.6585,,,,,,机智,e,,,0,66,66,19,1,,,,,,,,,,,,,,,,,,,,,,,,,,,,,,,,,,
,,,,,,,,,,,,,,1,001,2024-08-24_21h34.38.073,IAT(Formal),2021.2.3,Win32,60.0024001,,,,,,,,,,,,,,,e,1,0.5734,,,,,,我的,e,,,0,67,67,71,1,,,,,,,,,,,,,,,,,,,,,,,,,,,,,,,,,,
,,,,,,,,,,,,,,1,001,2024-08-24_21h34.38.073,IAT(Formal),2021.2.3,Win32,60.0024001,,,,,,,,,,,,,,,e,1,0.6823,,,,,,俺,e,,,0,68,68,74,1,,,,,,,,,,,,,,,,,,,,,,,,,,,,,,,,,,
,,,,,,,,,,,,,,1,001,2024-08-24_21h34.38.073,IAT(Formal),2021.2.3,Win32,60.0024001,,,,,,,,,,,,,,,e,1,0.4842,,,,,,我,e,,,0,69,69,70,1,,,,,,,,,,,,,,,,,,,,,,,,,,,,,,,,,,
,,,,,,,,,,,,,,1,001,2024-08-24_21h34.38.073,IAT(Formal),2021.2.3,Win32,60.0024001,,,,,,,,,,,,,,,e,1,0.5155,,,,,,我们,e,,,0,70,70,72,1,,,,,,,,,,,,,,,,,,,,,,,,,,,,,,,,,,
,,,,,,,,,,,,,,1,001,2024-08-24_21h34.38.073,IAT(Formal),2021.2.3,Win32,60.0024001,,,,,,,,,,,,,,,i,1,0.6376,,,,,,他,i,,,0,71,71,5,1,,,,,,,,,,,,,,,,,,,,,,,,,,,,,,,,,,
,,,,,,,,,,,,,,1,001,2024-08-24_21h34.38.073,IAT(Formal),2021.2.3,Win32,60.0024001,,,,,,,,,,,,,,,i,1,0.5078,,,,,,他,i,,,0,72,72,55,1,,,,,,,,,,,,,,,,,,,,,,,,,,,,,,,,,,
,,,,,,,,,,,,,,1,001,2024-08-24_21h34.38.073,IAT(Formal),2021.2.3,Win32,60.0024001,,,,,,,,,,,,,,,i,1,0.5975,,,,,,其他,i,,,0,73,73,59,1,,,,,,,,,,,,,,,,,,,,,,,,,,,,,,,,,,
,,,,,,,,,,,,,,1,001,2024-08-24_21h34.38.073,IAT(Formal),2021.2.3,Win32,60.0024001,,,,,,,,,,,,,,,i,1,0.4748,,,,,,他,i,,,0,74,74,75,1,,,,,,,,,,,,,,,,,,,,,,,,,,,,,,,,,,
,,,,,,,,,,,,,,1,001,2024-08-24_21h34.38.073,IAT(Formal),2021.2.3,Win32,60.0024001,,,,,,,,,,,,,,,i,1,0.5968,,,,,,执拗,i,,,0,75,75,40,1,,,,,,,,,,,,,,,,,,,,,,,,,,,,,,,,,,
,,,,,,,,,,,,,,1,001,2024-08-24_21h34.38.073,IAT(Formal),2021.2.3,Win32,60.0024001,,,,,,,,,,,,,,,e,1,0.6642,,,,,,乐观,e,,,0,76,76,14,1,,,,,,,,,,,,,,,,,,,,,,,,,,,,,,,,,,
,,,,,,,,,,,,,,1,001,2024-08-24_21h34.38.073,IAT(Formal),2021.2.3,Win32,60.0024001,,,,,,,,,,,,,,,e,1,0.7261,,,,,,细腻,e,,,0,77,77,25,1,,,,,,,,,,,,,,,,,,,,,,,,,,,,,,,,,,
,,,,,,,,,,,,,,1,001,2024-08-24_21h34.38.073,IAT(Formal),2021.2.3,Win32,60.0024001,,,,,,,,,,,,,,,i,1,0.8998,,,,,,其他,i,,,0,78,78,79,1,,,,,,,,,,,,,,,,,,,,,,,,,,,,,,,,,,
,,,,,,,,,,,,,,1,001,2024-08-24_21h34.38.073,IAT(Formal),2021.2.3,Win32,60.0024001,,,,,,,,,,,,,,,i,1,0.5928,,,,,,固执,i,,,0,79,79,47,1,,,,,,,,,,,,,,,,,,,,,,,,,,,,,,,,,,
,,,,,,,,,,,,,,1,001,2024-08-24_21h34.38.073,IAT(Formal),2021.2.3,Win32,60.0024001,,,,,,,,,,,,,,,e,1,0.6152,,,,,,俺,e,,,1,0,80,64,1,,,,,,,,,,,,,,,,,,,,,,,,,,,,,,,,,,
,,,,,,,,,,,,,,1,001,2024-08-24_21h34.38.073,IAT(Formal),2021.2.3,Win32,60.0024001,,,,,,,,,,,,,,,e,1,0.6817,,,,,,我的,e,,,1,1,81,51,1,,,,,,,,,,,,,,,,,,,,,,,,,,,,,,,,,,
,,,,,,,,,,,,,,1,001,2024-08-24_21h34.38.073,IAT(Formal),2021.2.3,Win32,60.0024001,,,,,,,,,,,,,,,i,1,1.2182,,,,,,固执,i,,,1,2,82,47,1,,,,,,,,,,,,,,,,,,,,,,,,,,,,,,,,,,
,,,,,,,,,,,,,,1,001,2024-08-24_21h34.38.073,IAT(Formal),2021.2.3,Win32,60.0024001,,,,,,,,,,,,,,,e,1,0.5266,,,,,,我们,e,,,1,3,83,52,1,,,,,,,,,,,,,,,,,,,,,,,,,,,,,,,,,,
,,,,,,,,,,,,,,1,001,2024-08-24_21h34.38.073,IAT(Formal),2021.2.3,Win32,60.0024001,,,,,,,,,,,,,,,i,1,0.54,,,,,,其他,i,,,1,4,84,59,1,,,,,,,,,,,,,,,,,,,,,,,,,,,,,,,,,,
,,,,,,,,,,,,,,1,001,2024-08-24_21h34.38.073,IAT(Formal),2021.2.3,Win32,60.0024001,,,,,,,,,,,,,,,e,1,0.6682,,,,,,我,e,,,1,5,85,60,1,,,,,,,,,,,,,,,,,,,,,,,,,,,,,,,,,,
,,,,,,,,,,,,,,1,001,2024-08-24_21h34.38.073,IAT(Formal),2021.2.3,Win32,60.0024001,,,,,,,,,,,,,,,e,1,0.6803,,,,,,优秀,e,,,1,6,86,10,1,,,,,,,,,,,,,,,,,,,,,,,,,,,,,,,,,,
,,,,,,,,,,,,,,1,001,2024-08-24_21h34.38.073,IAT(Formal),2021.2.3,Win32,60.0024001,,,,,,,,,,,,,,,e,1,0.5168,,,,,,我,e,,,1,7,87,70,1,,,,,,,,,,,,,,,,,,,,,,,,,,,,,,,,,,
,,,,,,,,,,,,,,1,001,2024-08-24_21h34.38.073,IAT(Formal),2021.2.3,Win32,60.0024001,,,,,,,,,,,,,,,i,1,0.5398,,,,,,他,i,,,1,8,88,55,1,,,,,,,,,,,,,,,,,,,,,,,,,,,,,,,,,,
,,,,,,,,,,,,,,1,001,2024-08-24_21h34.38.073,IAT(Formal),2021.2.3,Win32,60.0024001,,,,,,,,,,,,,,,i,1,0.5788,,,,,,野蛮,i,,,1,9,89,46,1,,,,,,,,,,,,,,,,,,,,,,,,,,,,,,,,,,
,,,,,,,,,,,,,,1,001,2024-08-24_21h34.38.073,IAT(Formal),2021.2.3,Win32,60.0024001,,,,,,,,,,,,,,,i,1,0.5913,,,,,,他的,i,,,1,10,90,67,1,,,,,,,,,,,,,,,,,,,,,,,,,,,,,,,,,,
,,,,,,,,,,,,,,1,001,2024-08-24_21h34.38.073,IAT(Formal),2021.2.3,Win32,60.0024001,,,,,,,,,,,,,,,i,1,0.6267,,,,,,散漫,i,,,1,11,91,41,1,,,,,,,,,,,,,,,,,,,,,,,,,,,,,,,,,,
,,,,,,,,,,,,,,1,001,2024-08-24_21h34.38.073,IAT(Formal),2021.2.3,Win32,60.0024001,,,,,,,,,,,,,,,i,1,0.5057,,,,,,他们,i,,,1,12,92,6,1,,,,,,,,,,,,,,,,,,,,,,,,,,,,,,,,,,
,,,,,,,,,,,,,,1,001,2024-08-24_21h34.38.073,IAT(Formal),2021.2.3,Win32,60.0024001,,,,,,,,,,,,,,,i,1,0.4982,,,,,,消极,i,,,1,13,93,35,1,,,,,,,,,,,,,,,,,,,,,,,,,,,,,,,,,,
,,,,,,,,,,,,,,1,001,2024-08-24_21h34.38.073,IAT(Formal),2021.2.3,Win32,60.0024001,,,,,,,,,,,,,,,e,1,0.6635,,,,,,热情,e,,,1,14,94,27,1,,,,,,,,,,,,,,,,,,,,,,,,,,,,,,,,,,
,,,,,,,,,,,,,,1,001,2024-08-24_21h34.38.073,IAT(Formal),2021.2.3,Win32,60.0024001,,,,,,,,,,,,,,,e,1,0.9581,,,,,,无私,e,,,1,15,95,22,1,,,,,,,,,,,,,,,,,,,,,,,,,,,,,,,,,,
,,,,,,,,,,,,,,1,001,2024-08-24_21h34.38.073,IAT(Formal),2021.2.3,Win32,60.0024001,,,,,,,,,,,,,,,i,1,0.6142,,,,,,他人,i,,,1,16,96,58,1,,,,,,,,,,,,,,,,,,,,,,,,,,,,,,,,,,
,,,,,,,,,,,,,,1,001,2024-08-24_21h34.38.073,IAT(Formal),2021.2.3,Win32,60.0024001,,,,,,,,,,,,,,,e,1,0.5502,,,,,,我的,e,,,1,17,97,1,1,,,,,,,,,,,,,,,,,,,,,,,,,,,,,,,,,,
,,,,,,,,,,,,,,1,001,2024-08-24_21h34.38.073,IAT(Formal),2021.2.3,Win32,60.0024001,,,,,,,,,,,,,,,i,1,1.0108,,,,,,冒失,i,,,1,18,98,39,1,,,,,,,,,,,,,,,,,,,,,,,,,,,,,,,,,,
,,,,,,,,,,,,,,1,001,2024-08-24_21h34.38.073,IAT(Formal),2021.2.3,Win32,60.0024001,,,,,,,,,,,,,,,i,1,0.6285,,,,,,悲观,i,,,1,19,99,34,1,,,,,,,,,,,,,,,,,,,,,,,,,,,,,,,,,,
,,,,,,,,,,,,,,1,001,2024-08-24_21h34.38.073,IAT(Formal),2021.2.3,Win32,60.0024001,,,,,,,,,,,,,,,i,1,0.527,,,,,,他的,i,,,1,20,100,77,1,,,,,,,,,,,,,,,,,,,,,,,,,,,,,,,,,,
,,,,,,,,,,,,,,1,001,2024-08-24_21h34.38.073,IAT(Formal),2021.2.3,Win32,60.0024001,,,,,,,,,,,,,,,e,1,0.6402,,,,,,自己,e,,,1,21,101,53,1,,,,,,,,,,,,,,,,,,,,,,,,,,,,,,,,,,
,,,,,,,,,,,,,,1,001,2024-08-24_21h34.38.073,IAT(Formal),2021.2.3,Win32,60.0024001,,,,,,,,,,,,,,,i,1,0.5545,,,,,,其他,i,,,1,22,102,79,1,,,,,,,,,,,,,,,,,,,,,,,,,,,,,,,,,,
,,,,,,,,,,,,,,1,001,2024-08-24_21h34.38.073,IAT(Formal),2021.2.3,Win32,60.0024001,,,,,,,,,,,,,,,e,1,0.5536,,,,,,我们,e,,,1,23,103,2,1,,,,,,,,,,,,,,,,,,,,,,,,,,,,,,,,,,
,,,,,,,,,,,,,,1,001,2024-08-24_21h34.38.073,IAT(Formal),2021.2.3,Win32,60.0024001,,,,,,,,,,,,,,,e,1,0.8004,,,,,,我,e,,,1,24,104,0,1,,,,,,,,,,,,,,,,,,,,,,,,,,,,,,,,,,
,,,,,,,,,,,,,,1,001,2024-08-24_21h34.38.073,IAT(Formal),2021.2.3,Win32,60.0024001,,,,,,,,,,,,,,,i,1,0.516,,,,,,其他,i,,,1,25,105,69,1,,,,,,,,,,,,,,,,,,,,,,,,,,,,,,,,,,
,,,,,,,,,,,,,,1,001,2024-08-24_21h34.38.073,IAT(Formal),2021.2.3,Win32,60.0024001,,,,,,,,,,,,,,,e,1,0.4378,,,,,,我们,e,,,1,26,106,62,1,,,,,,,,,,,,,,,,,,,,,,,,,,,,,,,,,,
,,,,,,,,,,,,,,1,001,2024-08-24_21h34.38.073,IAT(Formal),2021.2.3,Win32,60.0024001,,,,,,,,,,,,,,,i,1,0.5424,,,,,,他人,i,,,1,27,107,8,1,,,,,,,,,,,,,,,,,,,,,,,,,,,,,,,,,,
,,,,,,,,,,,,,,1,001,2024-08-24_21h34.38.073,IAT(Formal),2021.2.3,Win32,60.0024001,,,,,,,,,,,,,,,i,1,0.4539,,,,,,他们,i,,,1,28,108,66,1,,,,,,,,,,,,,,,,,,,,,,,,,,,,,,,,,,
,,,,,,,,,,,,,,1,001,2024-08-24_21h34.38.073,IAT(Formal),2021.2.3,Win32,60.0024001,,,,,,,,,,,,,,,e,1,0.6512,,,,,,认真,e,,,1,29,109,20,1,,,,,,,,,,,,,,,,,,,,,,,,,,,,,,,,,,
,,,,,,,,,,,,,,1,001,2024-08-24_21h34.38.073,IAT(Formal),2021.2.3,Win32,60.0024001,,,,,,,,,,,,,,,e,1,0.5976,,,,,,自己,e,,,1,30,110,3,1,,,,,,,,,,,,,,,,,,,,,,,,,,,,,,,,,,
,,,,,,,,,,,,,,1,001,2024-08-24_21h34.38.073,IAT(Formal),2021.2.3,Win32,60.0024001,,,,,,,,,,,,,,,e,1,0.8059,,,,,,崇高,e,,,1,31,111,11,1,,,,,,,,,,,,,,,,,,,,,,,,,,,,,,,,,,
,,,,,,,,,,,,,,1,001,2024-08-24_21h34.38.073,IAT(Formal),2021.2.3,Win32,60.0024001,,,,,,,,,,,,,,,i,1,0.5094,,,,,,他人,i,,,1,32,112,78,1,,,,,,,,,,,,,,,,,,,,,,,,,,,,,,,,,,
,,,,,,,,,,,,,,1,001,2024-08-24_21h34.38.073,IAT(Formal),2021.2.3,Win32,60.0024001,,,,,,,,,,,,,,,i,1,0.4942,,,,,,下贱,i,,,1,33,113,49,1,,,,,,,,,,,,,,,,,,,,,,,,,,,,,,,,,,
,,,,,,,,,,,,,,1,001,2024-08-24_21h34.38.073,IAT(Formal),2021.2.3,Win32,60.0024001,,,,,,,,,,,,,,,i,1,0.4561,,,,,,他人,i,,,1,34,114,68,1,,,,,,,,,,,,,,,,,,,,,,,,,,,,,,,,,,
,,,,,,,,,,,,,,1,001,2024-08-24_21h34.38.073,IAT(Formal),2021.2.3,Win32,60.0024001,,,,,,,,,,,,,,,e,1,0.7811,,,,,,俺,e,,,1,35,115,54,1,,,,,,,,,,,,,,,,,,,,,,,,,,,,,,,,,,
,,,,,,,,,,,,,,1,001,2024-08-24_21h34.38.073,IAT(Formal),2021.2.3,Win32,60.0024001,,,,,,,,,,,,,,,e,1,0.5021,,,,,,俺,e,,,1,36,116,74,1,,,,,,,,,,,,,,,,,,,,,,,,,,,,,,,,,,
,,,,,,,,,,,,,,1,001,2024-08-24_21h34.38.073,IAT(Formal),2021.2.3,Win32,60.0024001,,,,,,,,,,,,,,,e,1,0.6551,,,,,,正直,e,,,1,37,117,16,1,,,,,,,,,,,,,,,,,,,,,,,,,,,,,,,,,,
,,,,,,,,,,,,,,1,001,2024-08-24_21h34.38.073,IAT(Formal),2021.2.3,Win32,60.0024001,,,,,,,,,,,,,,,e,0,0.4165,,,,,,他,i,,,1,38,118,75,1,,,,,,,,,,,,,,,,,,,,,,,,,,,,,,,,,,
,,,,,,,,,,,,,,1,001,2024-08-24_21h34.38.073,IAT(Formal),2021.2.3,Win32,60.0024001,,,,,,,,,,,,,,,e,1,0.4556,,,,,,自己,e,,,1,39,119,73,1,,,,,,,,,,,,,,,,,,,,,,,,,,,,,,,,,,
,,,,,,,,,,,,,,1,001,2024-08-24_21h34.38.073,IAT(Formal),2021.2.3,Win32,60.0024001,,,,,,,,,,,,,,,e,1,0.5902,,,,,,我的,e,,,1,40,120,61,1,,,,,,,,,,,,,,,,,,,,,,,,,,,,,,,,,,
,,,,,,,,,,,,,,1,001,2024-08-24_21h34.38.073,IAT(Formal),2021.2.3,Win32,60.0024001,,,,,,,,,,,,,,,i,1,0.8976,,,,,,执拗,i,,,1,41,121,40,1,,,,,,,,,,,,,,,,,,,,,,,,,,,,,,,,,,
,,,,,,,,,,,,,,1,001,2024-08-24_21h34.38.073,IAT(Formal),2021.2.3,Win32,60.0024001,,,,,,,,,,,,,,,e,1,0.6239,,,,,,乐观,e,,,1,42,122,14,1,,,,,,,,,,,,,,,,,,,,,,,,,,,,,,,,,,
,,,,,,,,,,,,,,1,001,2024-08-24_21h34.38.073,IAT(Formal),2021.2.3,Win32,60.0024001,,,,,,,,,,,,,,,e,1,0.4781,,,,,,我们,e,,,1,43,123,72,1,,,,,,,,,,,,,,,,,,,,,,,,,,,,,,,,,,
,,,,,,,,,,,,,,1,001,2024-08-24_21h34.38.073,IAT(Formal),2021.2.3,Win32,60.0024001,,,,,,,,,,,,,,,e,1,0.7231,,,,,,机智,e,,,1,44,124,19,1,,,,,,,,,,,,,,,,,,,,,,,,,,,,,,,,,,
,,,,,,,,,,,,,,1,001,2024-08-24_21h34.38.073,IAT(Formal),2021.2.3,Win32,60.0024001,,,,,,,,,,,,,,,i,1,0.5147,,,,,,鲁莽,i,,,1,45,125,38,1,,,,,,,,,,,,,,,,,,,,,,,,,,,,,,,,,,
,,,,,,,,,,,,,,1,001,2024-08-24_21h34.38.073,IAT(Formal),2021.2.3,Win32,60.0024001,,,,,,,,,,,,,,,e,1,0.6488,,,,,,朴实,e,,,1,46,126,24,1,,,,,,,,,,,,,,,,,,,,,,,,,,,,,,,,,,
,,,,,,,,,,,,,,1,001,2024-08-24_21h34.38.073,IAT(Formal),2021.2.3,Win32,60.0024001,,,,,,,,,,,,,,,e,1,0.5694,,,,,,诚恳,e,,,1,47,127,29,1,,,,,,,,,,,,,,,,,,,,,,,,,,,,,,,,,,
,,,,,,,,,,,,,,1,001,2024-08-24_21h34.38.073,IAT(Formal),2021.2.3,Win32,60.0024001,,,,,,,,,,,,,,,i,1,0.6566,,,,,,愚蠢,i,,,1,48,128,32,1,,,,,,,,,,,,,,,,,,,,,,,,,,,,,,,,,,
,,,,,,,,,,,,,,1,001,2024-08-24_21h34.38.073,IAT(Formal),2021.2.3,Win32,60.0024001,,,,,,,,,,,,,,,e,1,0.5754,,,,,,俺,e,,,1,49,129,4,1,,,,,,,,,,,,,,,,,,,,,,,,,,,,,,,,,,
,,,,,,,,,,,,,,1,001,2024-08-24_21h34.38.073,IAT(Formal),2021.2.3,Win32,60.0024001,,,,,,,,,,,,,,,e,1,0.5763,,,,,,聪明,e,,,1,50,130,12,1,,,,,,,,,,,,,,,,,,,,,,,,,,,,,,,,,,
,,,,,,,,,,,,,,1,001,2024-08-24_21h34.38.073,IAT(Formal),2021.2.3,Win32,60.0024001,,,,,,,,,,,,,,,i,1,0.4992,,,,,,他的,i,,,1,51,131,7,1,,,,,,,,,,,,,,,,,,,,,,,,,,,,,,,,,,
,,,,,,,,,,,,,,1,001,2024-08-24_21h34.38.073,IAT(Formal),2021.2.3,Win32,60.0024001,,,,,,,,,,,,,,,i,1,0.5682,,,,,,其他,i,,,1,52,132,9,1,,,,,,,,,,,,,,,,,,,,,,,,,,,,,,,,,,
,,,,,,,,,,,,,,1,001,2024-08-24_21h34.38.073,IAT(Formal),2021.2.3,Win32,60.0024001,,,,,,,,,,,,,,,e,1,0.6217,,,,,,稳重,e,,,1,53,133,21,1,,,,,,,,,,,,,,,,,,,,,,,,,,,,,,,,,,
,,,,,,,,,,,,,,1,001,2024-08-24_21h34.38.073,IAT(Formal),2021.2.3,Win32,60.0024001,,,,,,,,,,,,,,,e,1,0.5752,,,,,,我的,e,,,1,54,134,71,1,,,,,,,,,,,,,,,,,,,,,,,,,,,,,,,,,,
,,,,,,,,,,,,,,1,001,2024-08-24_21h34.38.073,IAT(Formal),2021.2.3,Win32,60.0024001,,,,,,,,,,,,,,,e,1,0.4864,,,,,,活泼,e,,,1,55,135,28,1,,,,,,,,,,,,,,,,,,,,,,,,,,,,,,,,,,
,,,,,,,,,,,,,,1,001,2024-08-24_21h34.38.073,IAT(Formal),2021.2.3,Win32,60.0024001,,,,,,,,,,,,,,,i,1,0.7109,,,,,,卑鄙,i,,,1,56,136,30,1,,,,,,,,,,,,,,,,,,,,,,,,,,,,,,,,,,
,,,,,,,,,,,,,,1,001,2024-08-24_21h34.38.073,IAT(Formal),2021.2.3,Win32,60.0024001,,,,,,,,,,,,,,,e,1,0.9974,,,,,,细腻,e,,,1,57,137,25,1,,,,,,,,,,,,,,,,,,,,,,,,,,,,,,,,,,
,,,,,,,,,,,,,,1,001,2024-08-24_21h34.38.073,IAT(Formal),2021.2.3,Win32,60.0024001,,,,,,,,,,,,,,,i,1,0.5768,,,,,,自卑,i,,,1,58,138,36,1,,,,,,,,,,,,,,,,,,,,,,,,,,,,,,,,,,
,,,,,,,,,,,,,,1,001,2024-08-24_21h34.38.073,IAT(Formal),2021.2.3,Win32,60.0024001,,,,,,,,,,,,,,,i,1,0.5662,,,,,,暴躁,i,,,1,59,139,44,1,,,,,,,,,,,,,,,,,,,,,,,,,,,,,,,,,,
,,,,,,,,,,,,,,1,001,2024-08-24_21h34.38.073,IAT(Formal),2021.2.3,Win32,60.0024001,,,,,,,,,,,,,,,e,1,0.4999,,,,,,自己,e,,,1,60,140,63,1,,,,,,,,,,,,,,,,,,,,,,,,,,,,,,,,,,
,,,,,,,,,,,,,,1,001,2024-08-24_21h34.38.073,IAT(Formal),2021.2.3,Win32,60.0024001,,,,,,,,,,,,,,,i,1,0.5989,,,,,,他们,i,,,1,61,141,76,1,,,,,,,,,,,,,,,,,,,,,,,,,,,,,,,,,,
,,,,,,,,,,,,,,1,001,2024-08-24_21h34.38.073,IAT(Formal),2021.2.3,Win32,60.0024001,,,,,,,,,,,,,,,e,1,0.5988,,,,,,勇敢,e,,,1,62,142,17,1,,,,,,,,,,,,,,,,,,,,,,,,,,,,,,,,,,
,,,,,,,,,,,,,,1,001,2024-08-24_21h34.38.073,IAT(Formal),2021.2.3,Win32,60.0024001,,,,,,,,,,,,,,,i,1,0.566,,,,,,猖狂,i,,,1,63,143,45,1,,,,,,,,,,,,,,,,,,,,,,,,,,,,,,,,,,
,,,,,,,,,,,,,,1,001,2024-08-24_21h34.38.073,IAT(Formal),2021.2.3,Win32,60.0024001,,,,,,,,,,,,,,,i,1,0.601,,,,,,傲慢,i,,,1,64,144,37,1,,,,,,,,,,,,,,,,,,,,,,,,,,,,,,,,,,
,,,,,,,,,,,,,,1,001,2024-08-24_21h34.38.073,IAT(Formal),2021.2.3,Win32,60.0024001,,,,,,,,,,,,,,,i,1,0.5481,,,,,,他的,i,,,1,65,145,57,1,,,,,,,,,,,,,,,,,,,,,,,,,,,,,,,,,,
,,,,,,,,,,,,,,1,001,2024-08-24_21h34.38.073,IAT(Formal),2021.2.3,Win32,60.0024001,,,,,,,,,,,,,,,i,1,0.8435,,,,,,他们,i,,,1,66,146,56,1,,,,,,,,,,,,,,,,,,,,,,,,,,,,,,,,,,
,,,,,,,,,,,,,,1,001,2024-08-24_21h34.38.073,IAT(Formal),2021.2.3,Win32,60.0024001,,,,,,,,,,,,,,,e,1,0.5334,,,,,,我,e,,,1,67,147,50,1,,,,,,,,,,,,,,,,,,,,,,,,,,,,,,,,,,
,,,,,,,,,,,,,,1,001,2024-08-24_21h34.38.073,IAT(Formal),2021.2.3,Win32,60.0024001,,,,,,,,,,,,,,,e,1,0.6679,,,,,,勤奋,e,,,1,68,148,18,1,,,,,,,,,,,,,,,,,,,,,,,,,,,,,,,,,,
,,,,,,,,,,,,,,1,001,2024-08-24_21h34.38.073,IAT(Formal),2021.2.3,Win32,60.0024001,,,,,,,,,,,,,,,e,1,0.626,,,,,,诚实,e,,,1,69,149,15,1,,,,,,,,,,,,,,,,,,,,,,,,,,,,,,,,,,
,,,,,,,,,,,,,,1,001,2024-08-24_21h34.38.073,IAT(Formal),2021.2.3,Win32,60.0024001,,,,,,,,,,,,,,,e,0,0.4768,,,,,,凶狠,i,,,1,70,150,42,1,,,,,,,,,,,,,,,,,,,,,,,,,,,,,,,,,,
,,,,,,,,,,,,,,1,001,2024-08-24_21h34.38.073,IAT(Formal),2021.2.3,Win32,60.0024001,,,,,,,,,,,,,,,e,0,0.5222,,,,,,他,i,,,1,71,151,5,1,,,,,,,,,,,,,,,,,,,,,,,,,,,,,,,,,,
,,,,,,,,,,,,,,1,001,2024-08-24_21h34.38.073,IAT(Formal),2021.2.3,Win32,60.0024001,,,,,,,,,,,,,,,i,1,0.4935,,,,,,他,i,,,1,72,152,65,1,,,,,,,,,,,,,,,,,,,,,,,,,,,,,,,,,,
,,,,,,,,,,,,,,1,001,2024-08-24_21h34.38.073,IAT(Formal),2021.2.3,Win32,60.0024001,,,,,,,,,,,,,,,i,1,0.6521,,,,,,自私,i,,,1,73,153,43,1,,,,,,,,,,,,,,,,,,,,,,,,,,,,,,,,,,
,,,,,,,,,,,,,,1,001,2024-08-24_21h34.38.073,IAT(Formal),2021.2.3,Win32,60.0024001,,,,,,,,,,,,,,,i,1,0.595,,,,,,轻率,i,,,1,74,154,48,1,,,,,,,,,,,,,,,,,,,,,,,,,,,,,,,,,,
,,,,,,,,,,,,,,1,001,2024-08-24_21h34.38.073,IAT(Formal),2021.2.3,Win32,60.0024001,,,,,,,,,,,,,,,e,1,1.0381,,,,,,冷静,e,,,1,75,155,26,1,,,,,,,,,,,,,,,,,,,,,,,,,,,,,,,,,,
,,,,,,,,,,,,,,1,001,2024-08-24_21h34.38.073,IAT(Formal),2021.2.3,Win32,60.0024001,,,,,,,,,,,,,,,e,1,0.6933,,,,,,杰出,e,,,1,76,156,13,1,,,,,,,,,,,,,,,,,,,,,,,,,,,,,,,,,,
,,,,,,,,,,,,,,1,001,2024-08-24_21h34.38.073,IAT(Formal),2021.2.3,Win32,60.0024001,,,,,,,,,,,,,,,e,1,0.4954,,,,,,公正,e,,,1,77,157,23,1,,,,,,,,,,,,,,,,,,,,,,,,,,,,,,,,,,
,,,,,,,,,,,,,,1,001,2024-08-24_21h34.38.073,IAT(Formal),2021.2.3,Win32,60.0024001,,,,,,,,,,,,,,,i,1,0.69,,,,,,刻薄,i,,,1,78,158,33,1,,,,,,,,,,,,,,,,,,,,,,,,,,,,,,,,,,
,,,,,,,,,,,,,,1,001,2024-08-24_21h34.38.073,IAT(Formal),2021.2.3,Win32,60.0024001,,,,,,,,,,,,,,,i,1,0.5933,,,,,,虚伪,i,,,1,79,159,31,1,,,,,,,,,,,,,,,,,,,,,,,,,,,,,,,,,,
,,,,,,,,,,,,其他,e,1,001,2024-08-24_21h34.38.073,IAT(Formal),2021.2.3,Win32,60.0024001,,,,,,,,,,,,,,,,,,,,,,,,,,,,,,,,space,50.302,,0,0,0,0,9,1,,,,,,,,,,,,,,,,,,,,,,,,,
,,,,,,,,,,,,他的,e,1,001,2024-08-24_21h34.38.073,IAT(Formal),2021.2.3,Win32,60.0024001,,,,,,,,,,,,,,,,,,,,,,,,,,,,,,,,,,,0,0,1,1,7,1,,,,,,,,,,,,,,,,,,,,,,,,,
,,,,,,,,,,,,自己,i,1,001,2024-08-24_21h34.38.073,IAT(Formal),2021.2.3,Win32,60.0024001,,,,,,,,,,,,,,,,,,,,,,,,,,,,,,,,,,i,1,0,2,2,3,1,0.5484,,,,,,,,,,,,,,,,,,,,,,,,
,,,,,,,,,,,,他人,e,1,001,2024-08-24_21h34.38.073,IAT(Formal),2021.2.3,Win32,60.0024001,,,,,,,,,,,,,,,,,,,,,,,,,,,,,,,,,,e,1,0,3,3,8,1,0.5765,,,,,,,,,,,,,,,,,,,,,,,,
,,,,,,,,,,,,我,i,1,001,2024-08-24_21h34.38.073,IAT(Formal),2021.2.3,Win32,60.0024001,,,,,,,,,,,,,,,,,,,,,,,,,,,,,,,,,,i,1,0,4,4,0,1,0.4589,,,,,,,,,,,,,,,,,,,,,,,,
,,,,,,,,,,,,俺,i,1,001,2024-08-24_21h34.38.073,IAT(Formal),2021.2.3,Win32,60.0024001,,,,,,,,,,,,,,,,,,,,,,,,,,,,,,,,,,i,1,0,5,5,4,1,0.5348,,,,,,,,,,,,,,,,,,,,,,,,
,,,,,,,,,,,,他们,e,1,001,2024-08-24_21h34.38.073,IAT(Formal),2021.2.3,Win32,60.0024001,,,,,,,,,,,,,,,,,,,,,,,,,,,,,,,,,,e,1,0,6,6,6,1,0.6667,,,,,,,,,,,,,,,,,,,,,,,,
,,,,,,,,,,,,我的,i,1,001,2024-08-24_21h34.38.073,IAT(Formal),2021.2.3,Win32,60.0024001,,,,,,,,,,,,,,,,,,,,,,,,,,,,,,,,,,i,1,0,7,7,1,1,0.4859,,,,,,,,,,,,,,,,,,,,,,,,
,,,,,,,,,,,,他,e,1,001,2024-08-24_21h34.38.073,IAT(Formal),2021.2.3,Win32,60.0024001,,,,,,,,,,,,,,,,,,,,,,,,,,,,,,,,,,e,1,0,8,8,5,1,0.517,,,,,,,,,,,,,,,,,,,,,,,,
,,,,,,,,,,,,我们,i,1,001,2024-08-24_21h34.38.073,IAT(Formal),2021.2.3,Win32,60.0024001,,,,,,,,,,,,,,,,,,,,,,,,,,,,,,,,,,i,1,0,9,9,2,1,0.4234,,,,,,,,,,,,,,,,,,,,,,,,
,,,,,,,,,,,,,,1,001,2024-08-24_21h34.38.073,IAT(Formal),2021.2.3,Win32,60.0024001,,,,,,,,,,,,,,,,,,,,,,,,,,,,,,,,,,,,,,,,,,space,12.2536,i,0,0.9333,0,0,0,12,1,聪明,e,,,,,,,,,,,,
,,,,,,,,,,,,,,1,001,2024-08-24_21h34.38.073,IAT(Formal),2021.2.3,Win32,60.0024001,,,,,,,,,,,,,,,,,,,,,,,,,,,,,,,,,,,,,,,,,,,,e,1,0.7557,0,1,1,5,1,他,e,,,,,,,,,,,,
,,,,,,,,,,,,,,1,001,2024-08-24_21h34.38.073,IAT(Formal),2021.2.3,Win32,60.0024001,,,,,,,,,,,,,,,,,,,,,,,,,,,,,,,,,,,,,,,,,,,,i,1,0.65,0,2,2,73,1,自己,i,,,,,,,,,,,,
,,,,,,,,,,,,,,1,001,2024-08-24_21h34.38.073,IAT(Formal),2021.2.3,Win32,60.0024001,,,,,,,,,,,,,,,,,,,,,,,,,,,,,,,,,,,,,,,,,,,,i,1,0.6469,0,3,3,74,1,俺,i,,,,,,,,,,,,
,,,,,,,,,,,,,,1,001,2024-08-24_21h34.38.073,IAT(Formal),2021.2.3,Win32,60.0024001,,,,,,,,,,,,,,,,,,,,,,,,,,,,,,,,,,,,,,,,,,,,e,1,0.6916,0,4,4,75,1,他,e,,,,,,,,,,,,
,,,,,,,,,,,,,,1,001,2024-08-24_21h34.38.073,IAT(Formal),2021.2.3,Win32,60.0024001,,,,,,,,,,,,,,,,,,,,,,,,,,,,,,,,,,,,,,,,,,,,i,1,0.9769,0,5,5,39,1,冒失,i,,,,,,,,,,,,
,,,,,,,,,,,,,,1,001,2024-08-24_21h34.38.073,IAT(Formal),2021.2.3,Win32,60.0024001,,,,,,,,,,,,,,,,,,,,,,,,,,,,,,,,,,,,,,,,,,,,i,1,0.7739,0,6,6,72,1,我们,i,,,,,,,,,,,,
,,,,,,,,,,,,,,1,001,2024-08-24_21h34.38.073,IAT(Formal),2021.2.3,Win32,60.0024001,,,,,,,,,,,,,,,,,,,,,,,,,,,,,,,,,,,,,,,,,,,,e,1,0.5922,0,7,7,28,1,活泼,e,,,,,,,,,,,,
,,,,,,,,,,,,,,1,001,2024-08-24_21h34.38.073,IAT(Formal),2021.2.3,Win32,60.0024001,,,,,,,,,,,,,,,,,,,,,,,,,,,,,,,,,,,,,,,,,,,,e,1,0.552,0,8,8,13,1,杰出,e,,,,,,,,,,,,
,,,,,,,,,,,,,,1,001,2024-08-24_21h34.38.073,IAT(Formal),2021.2.3,Win32,60.0024001,,,,,,,,,,,,,,,,,,,,,,,,,,,,,,,,,,,,,,,,,,,,e,1,0.6758,0,9,9,26,1,冷静,e,,,,,,,,,,,,
,,,,,,,,,,,,,,1,001,2024-08-24_21h34.38.073,IAT(Formal),2021.2.3,Win32,60.0024001,,,,,,,,,,,,,,,,,,,,,,,,,,,,,,,,,,,,,,,,,,,,e,1,0.4999,0,10,10,18,1,勤奋,e,,,,,,,,,,,,
,,,,,,,,,,,,,,1,001,2024-08-24_21h34.38.073,IAT(Formal),2021.2.3,Win32,60.0024001,,,,,,,,,,,,,,,,,,,,,,,,,,,,,,,,,,,,,,,,,,,,i,1,0.5096,0,11,11,54,1,俺,i,,,,,,,,,,,,
,,,,,,,,,,,,,,1,001,2024-08-24_21h34.38.073,IAT(Formal),2021.2.3,Win32,60.0024001,,,,,,,,,,,,,,,,,,,,,,,,,,,,,,,,,,,,,,,,,,,,e,1,0.54,0,12,12,16,1,正直,e,,,,,,,,,,,,
,,,,,,,,,,,,,,1,001,2024-08-24_21h34.38.073,IAT(Formal),2021.2.3,Win32,60.0024001,,,,,,,,,,,,,,,,,,,,,,,,,,,,,,,,,,,,,,,,,,,,e,1,0.6675,0,13,13,29,1,诚恳,e,,,,,,,,,,,,
,,,,,,,,,,,,,,1,001,2024-08-24_21h34.38.073,IAT(Formal),2021.2.3,Win32,60.0024001,,,,,,,,,,,,,,,,,,,,,,,,,,,,,,,,,,,,,,,,,,,,i,1,0.479,0,14,14,33,1,刻薄,i,,,,,,,,,,,,
,,,,,,,,,,,,,,1,001,2024-08-24_21h34.38.073,IAT(Formal),2021.2.3,Win32,60.0024001,,,,,,,,,,,,,,,,,,,,,,,,,,,,,,,,,,,,,,,,,,,,i,0,0.7804,0,15,15,59,1,其他,e,,,,,,,,,,,,
,,,,,,,,,,,,,,1,001,2024-08-24_21h34.38.073,IAT(Formal),2021.2.3,Win32,60.0024001,,,,,,,,,,,,,,,,,,,,,,,,,,,,,,,,,,,,,,,,,,,,e,1,0.877,0,16,16,23,1,公正,e,,,,,,,,,,,,
,,,,,,,,,,,,,,1,001,2024-08-24_21h34.38.073,IAT(Formal),2021.2.3,Win32,60.0024001,,,,,,,,,,,,,,,,,,,,,,,,,,,,,,,,,,,,,,,,,,,,i,1,0.7803,0,17,17,35,1,消极,i,,,,,,,,,,,,
,,,,,,,,,,,,,,1,001,2024-08-24_21h34.38.073,IAT(Formal),2021.2.3,Win32,60.0024001,,,,,,,,,,,,,,,,,,,,,,,,,,,,,,,,,,,,,,,,,,,,e,0,0.824,0,18,18,45,1,猖狂,i,,,,,,,,,,,,
,,,,,,,,,,,,,,1,001,2024-08-24_21h34.38.073,IAT(Formal),2021.2.3,Win32,60.0024001,,,,,,,,,,,,,,,,,,,,,,,,,,,,,,,,,,,,,,,,,,,,i,1,0.9899,0,19,19,2,1,我们,i,,,,,,,,,,,,
,,,,,,,,,,,,,,1,001,2024-08-24_21h34.38.073,IAT(Formal),2021.2.3,Win32,60.0024001,,,,,,,,,,,,,,,,,,,,,,,,,,,,,,,,,,,,,,,,,,,,i,1,0.5174,0,20,20,51,1,我的,i,,,,,,,,,,,,
,,,,,,,,,,,,,,1,001,2024-08-24_21h34.38.073,IAT(Formal),2021.2.3,Win32,60.0024001,,,,,,,,,,,,,,,,,,,,,,,,,,,,,,,,,,,,,,,,,,,,e,1,1.0162,0,21,21,79,1,其他,e,,,,,,,,,,,,
,,,,,,,,,,,,,,1,001,2024-08-24_21h34.38.073,IAT(Formal),2021.2.3,Win32,60.0024001,,,,,,,,,,,,,,,,,,,,,,,,,,,,,,,,,,,,,,,,,,,,i,1,0.6128,0,22,22,50,1,我,i,,,,,,,,,,,,
,,,,,,,,,,,,,,1,001,2024-08-24_21h34.38.073,IAT(Formal),2021.2.3,Win32,60.0024001,,,,,,,,,,,,,,,,,,,,,,,,,,,,,,,,,,,,,,,,,,,,i,1,1.3673,0,23,23,30,1,卑鄙,i,,,,,,,,,,,,
,,,,,,,,,,,,,,1,001,2024-08-24_21h34.38.073,IAT(Formal),2021.2.3,Win32,60.0024001,,,,,,,,,,,,,,,,,,,,,,,,,,,,,,,,,,,,,,,,,,,,i,1,0.8357,0,24,24,1,1,我的,i,,,,,,,,,,,,
,,,,,,,,,,,,,,1,001,2024-08-24_21h34.38.073,IAT(Formal),2021.2.3,Win32,60.0024001,,,,,,,,,,,,,,,,,,,,,,,,,,,,,,,,,,,,,,,,,,,,e,1,0.6456,0,25,25,20,1,认真,e,,,,,,,,,,,,
,,,,,,,,,,,,,,1,001,2024-08-24_21h34.38.073,IAT(Formal),2021.2.3,Win32,60.0024001,,,,,,,,,,,,,,,,,,,,,,,,,,,,,,,,,,,,,,,,,,,,e,1,0.9269,0,26,26,76,1,他们,e,,,,,,,,,,,,
,,,,,,,,,,,,,,1,001,2024-08-24_21h34.38.073,IAT(Formal),2021.2.3,Win32,60.0024001,,,,,,,,,,,,,,,,,,,,,,,,,,,,,,,,,,,,,,,,,,,,e,1,0.5754,0,27,27,65,1,他,e,,,,,,,,,,,,
,,,,,,,,,,,,,,1,001,2024-08-24_21h34.38.073,IAT(Formal),2021.2.3,Win32,60.0024001,,,,,,,,,,,,,,,,,,,,,,,,,,,,,,,,,,,,,,,,,,,,i,1,0.6447,0,28,28,44,1,暴躁,i,,,,,,,,,,,,
,,,,,,,,,,,,,,1,001,2024-08-24_21h34.38.073,IAT(Formal),2021.2.3,Win32,60.0024001,,,,,,,,,,,,,,,,,,,,,,,,,,,,,,,,,,,,,,,,,,,,e,1,0.6289,0,29,29,69,1,其他,e,,,,,,,,,,,,
,,,,,,,,,,,,,,1,001,2024-08-24_21h34.38.073,IAT(Formal),2021.2.3,Win32,60.0024001,,,,,,,,,,,,,,,,,,,,,,,,,,,,,,,,,,,,,,,,,,,,i,1,0.6446,0,30,30,4,1,俺,i,,,,,,,,,,,,
,,,,,,,,,,,,,,1,001,2024-08-24_21h34.38.073,IAT(Formal),2021.2.3,Win32,60.0024001,,,,,,,,,,,,,,,,,,,,,,,,,,,,,,,,,,,,,,,,,,,,i,1,0.645,0,31,31,52,1,我们,i,,,,,,,,,,,,
,,,,,,,,,,,,,,1,001,2024-08-24_21h34.38.073,IAT(Formal),2021.2.3,Win32,60.0024001,,,,,,,,,,,,,,,,,,,,,,,,,,,,,,,,,,,,,,,,,,,,e,1,0.8414,0,32,32,11,1,崇高,e,,,,,,,,,,,,
,,,,,,,,,,,,,,1,001,2024-08-24_21h34.38.073,IAT(Formal),2021.2.3,Win32,60.0024001,,,,,,,,,,,,,,,,,,,,,,,,,,,,,,,,,,,,,,,,,,,,i,1,0.738,0,33,33,64,1,俺,i,,,,,,,,,,,,
,,,,,,,,,,,,,,1,001,2024-08-24_21h34.38.073,IAT(Formal),2021.2.3,Win32,60.0024001,,,,,,,,,,,,,,,,,,,,,,,,,,,,,,,,,,,,,,,,,,,,i,1,0.5574,0,34,34,49,1,下贱,i,,,,,,,,,,,,
,,,,,,,,,,,,,,1,001,2024-08-24_21h34.38.073,IAT(Formal),2021.2.3,Win32,60.0024001,,,,,,,,,,,,,,,,,,,,,,,,,,,,,,,,,,,,,,,,,,,,i,1,0.6106,0,35,35,32,1,愚蠢,i,,,,,,,,,,,,
,,,,,,,,,,,,,,1,001,2024-08-24_21h34.38.073,IAT(Formal),2021.2.3,Win32,60.0024001,,,,,,,,,,,,,,,,,,,,,,,,,,,,,,,,,,,,,,,,,,,,i,1,1.0535,0,36,36,34,1,悲观,i,,,,,,,,,,,,
,,,,,,,,,,,,,,1,001,2024-08-24_21h34.38.073,IAT(Formal),2021.2.3,Win32,60.0024001,,,,,,,,,,,,,,,,,,,,,,,,,,,,,,,,,,,,,,,,,,,,e,1,0.5516,0,37,37,15,1,诚实,e,,,,,,,,,,,,
,,,,,,,,,,,,,,1,001,2024-08-24_21h34.38.073,IAT(Formal),2021.2.3,Win32,60.0024001,,,,,,,,,,,,,,,,,,,,,,,,,,,,,,,,,,,,,,,,,,,,e,1,0.7721,0,38,38,56,1,他们,e,,,,,,,,,,,,
,,,,,,,,,,,,,,1,001,2024-08-24_21h34.38.073,IAT(Formal),2021.2.3,Win32,60.0024001,,,,,,,,,,,,,,,,,,,,,,,,,,,,,,,,,,,,,,,,,,,,e,1,0.5003,0,39,39,67,1,他的,e,,,,,,,,,,,,
,,,,,,,,,,,,,,1,001,2024-08-24_21h34.38.073,IAT(Formal),2021.2.3,Win32,60.0024001,,,,,,,,,,,,,,,,,,,,,,,,,,,,,,,,,,,,,,,,,,,,e,1,1.0955,0,40,40,17,1,勇敢,e,,,,,,,,,,,,
,,,,,,,,,,,,,,1,001,2024-08-24_21h34.38.073,IAT(Formal),2021.2.3,Win32,60.0024001,,,,,,,,,,,,,,,,,,,,,,,,,,,,,,,,,,,,,,,,,,,,e,1,0.4746,0,41,41,78,1,他人,e,,,,,,,,,,,,
,,,,,,,,,,,,,,1,001,2024-08-24_21h34.38.073,IAT(Formal),2021.2.3,Win32,60.0024001,,,,,,,,,,,,,,,,,,,,,,,,,,,,,,,,,,,,,,,,,,,,e,1,0.4634,0,42,42,58,1,他人,e,,,,,,,,,,,,
,,,,,,,,,,,,,,1,001,2024-08-24_21h34.38.073,IAT(Formal),2021.2.3,Win32,60.0024001,,,,,,,,,,,,,,,,,,,,,,,,,,,,,,,,,,,,,,,,,,,,i,1,0.5438,0,43,43,71,1,我的,i,,,,,,,,,,,,
,,,,,,,,,,,,,,1,001,2024-08-24_21h34.38.073,IAT(Formal),2021.2.3,Win32,60.0024001,,,,,,,,,,,,,,,,,,,,,,,,,,,,,,,,,,,,,,,,,,,,i,1,0.5403,0,44,44,47,1,固执,i,,,,,,,,,,,,
,,,,,,,,,,,,,,1,001,2024-08-24_21h34.38.073,IAT(Formal),2021.2.3,Win32,60.0024001,,,,,,,,,,,,,,,,,,,,,,,,,,,,,,,,,,,,,,,,,,,,i,1,0.5448,0,45,45,48,1,轻率,i,,,,,,,,,,,,
,,,,,,,,,,,,,,1,001,2024-08-24_21h34.38.073,IAT(Formal),2021.2.3,Win32,60.0024001,,,,,,,,,,,,,,,,,,,,,,,,,,,,,,,,,,,,,,,,,,,,e,1,0.773,0,46,46,24,1,朴实,e,,,,,,,,,,,,
,,,,,,,,,,,,,,1,001,2024-08-24_21h34.38.073,IAT(Formal),2021.2.3,Win32,60.0024001,,,,,,,,,,,,,,,,,,,,,,,,,,,,,,,,,,,,,,,,,,,,e,1,0.8073,0,47,47,21,1,稳重,e,,,,,,,,,,,,
,,,,,,,,,,,,,,1,001,2024-08-24_21h34.38.073,IAT(Formal),2021.2.3,Win32,60.0024001,,,,,,,,,,,,,,,,,,,,,,,,,,,,,,,,,,,,,,,,,,,,e,1,0.8468,0,48,48,9,1,其他,e,,,,,,,,,,,,
,,,,,,,,,,,,,,1,001,2024-08-24_21h34.38.073,IAT(Formal),2021.2.3,Win32,60.0024001,,,,,,,,,,,,,,,,,,,,,,,,,,,,,,,,,,,,,,,,,,,,i,1,0.8006,0,49,49,31,1,虚伪,i,,,,,,,,,,,,
,,,,,,,,,,,,,,1,001,2024-08-24_21h34.38.073,IAT(Formal),2021.2.3,Win32,60.0024001,,,,,,,,,,,,,,,,,,,,,,,,,,,,,,,,,,,,,,,,,,,,i,1,0.5625,0,50,50,36,1,自卑,i,,,,,,,,,,,,
,,,,,,,,,,,,,,1,001,2024-08-24_21h34.38.073,IAT(Formal),2021.2.3,Win32,60.0024001,,,,,,,,,,,,,,,,,,,,,,,,,,,,,,,,,,,,,,,,,,,,i,1,0.7278,0,51,51,62,1,我们,i,,,,,,,,,,,,
,,,,,,,,,,,,,,1,001,2024-08-24_21h34.38.073,IAT(Formal),2021.2.3,Win32,60.0024001,,,,,,,,,,,,,,,,,,,,,,,,,,,,,,,,,,,,,,,,,,,,e,1,0.6344,0,52,52,8,1,他人,e,,,,,,,,,,,,
,,,,,,,,,,,,,,1,001,2024-08-24_21h34.38.073,IAT(Formal),2021.2.3,Win32,60.0024001,,,,,,,,,,,,,,,,,,,,,,,,,,,,,,,,,,,,,,,,,,,,e,1,0.4934,0,53,53,66,1,他们,e,,,,,,,,,,,,
,,,,,,,,,,,,,,1,001,2024-08-24_21h34.38.073,IAT(Formal),2021.2.3,Win32,60.0024001,,,,,,,,,,,,,,,,,,,,,,,,,,,,,,,,,,,,,,,,,,,,e,1,0.4232,0,54,54,68,1,他人,e,,,,,,,,,,,,
,,,,,,,,,,,,,,1,001,2024-08-24_21h34.38.073,IAT(Formal),2021.2.3,Win32,60.0024001,,,,,,,,,,,,,,,,,,,,,,,,,,,,,,,,,,,,,,,,,,,,i,1,0.7851,0,55,55,70,1,我,i,,,,,,,,,,,,
,,,,,,,,,,,,,,1,001,2024-08-24_21h34.38.073,IAT(Formal),2021.2.3,Win32,60.0024001,,,,,,,,,,,,,,,,,,,,,,,,,,,,,,,,,,,,,,,,,,,,i,1,0.4708,0,56,56,53,1,自己,i,,,,,,,,,,,,
,,,,,,,,,,,,,,1,001,2024-08-24_21h34.38.073,IAT(Formal),2021.2.3,Win32,60.0024001,,,,,,,,,,,,,,,,,,,,,,,,,,,,,,,,,,,,,,,,,,,,i,1,0.688,0,57,57,42,1,凶狠,i,,,,,,,,,,,,
,,,,,,,,,,,,,,1,001,2024-08-24_21h34.38.073,IAT(Formal),2021.2.3,Win32,60.0024001,,,,,,,,,,,,,,,,,,,,,,,,,,,,,,,,,,,,,,,,,,,,i,1,0.9838,0,58,58,40,1,执拗,i,,,,,,,,,,,,
,,,,,,,,,,,,,,1,001,2024-08-24_21h34.38.073,IAT(Formal),2021.2.3,Win32,60.0024001,,,,,,,,,,,,,,,,,,,,,,,,,,,,,,,,,,,,,,,,,,,,e,1,0.6168,0,59,59,7,1,他的,e,,,,,,,,,,,,
,,,,,,,,,,,,,,1,001,2024-08-24_21h34.38.073,IAT(Formal),2021.2.3,Win32,60.0024001,,,,,,,,,,,,,,,,,,,,,,,,,,,,,,,,,,,,,,,,,,,,e,1,0.9677,0,60,60,6,1,他们,e,,,,,,,,,,,,
,,,,,,,,,,,,,,1,001,2024-08-24_21h34.38.073,IAT(Formal),2021.2.3,Win32,60.0024001,,,,,,,,,,,,,,,,,,,,,,,,,,,,,,,,,,,,,,,,,,,,e,1,0.534,0,61,61,57,1,他的,e,,,,,,,,,,,,
,,,,,,,,,,,,,,1,001,2024-08-24_21h34.38.073,IAT(Formal),2021.2.3,Win32,60.0024001,,,,,,,,,,,,,,,,,,,,,,,,,,,,,,,,,,,,,,,,,,,,e,1,0.928,0,62,62,19,1,机智,e,,,,,,,,,,,,
,,,,,,,,,,,,,,1,001,2024-08-24_21h34.38.073,IAT(Formal),2021.2.3,Win32,60.0024001,,,,,,,,,,,,,,,,,,,,,,,,,,,,,,,,,,,,,,,,,,,,e,1,0.5191,0,63,63,77,1,他的,e,,,,,,,,,,,,
,,,,,,,,,,,,,,1,001,2024-08-24_21h34.38.073,IAT(Formal),2021.2.3,Win32,60.0024001,,,,,,,,,,,,,,,,,,,,,,,,,,,,,,,,,,,,,,,,,,,,i,1,0.6722,0,64,64,38,1,鲁莽,i,,,,,,,,,,,,
,,,,,,,,,,,,,,1,001,2024-08-24_21h34.38.073,IAT(Formal),2021.2.3,Win32,60.0024001,,,,,,,,,,,,,,,,,,,,,,,,,,,,,,,,,,,,,,,,,,,,e,1,0.6459,0,65,65,10,1,优秀,e,,,,,,,,,,,,
,,,,,,,,,,,,,,1,001,2024-08-24_21h34.38.073,IAT(Formal),2021.2.3,Win32,60.0024001,,,,,,,,,,,,,,,,,,,,,,,,,,,,,,,,,,,,,,,,,,,,e,1,0.7737,0,66,66,14,1,乐观,e,,,,,,,,,,,,
,,,,,,,,,,,,,,1,001,2024-08-24_21h34.38.073,IAT(Formal),2021.2.3,Win32,60.0024001,,,,,,,,,,,,,,,,,,,,,,,,,,,,,,,,,,,,,,,,,,,,i,1,0.5436,0,67,67,0,1,我,i,,,,,,,,,,,,
,,,,,,,,,,,,,,1,001,2024-08-24_21h34.38.073,IAT(Formal),2021.2.3,Win32,60.0024001,,,,,,,,,,,,,,,,,,,,,,,,,,,,,,,,,,,,,,,,,,,,e,1,0.852,0,68,68,22,1,无私,e,,,,,,,,,,,,
,,,,,,,,,,,,,,1,001,2024-08-24_21h34.38.073,IAT(Formal),2021.2.3,Win32,60.0024001,,,,,,,,,,,,,,,,,,,,,,,,,,,,,,,,,,,,,,,,,,,,i,1,0.8461,0,69,69,41,1,散漫,i,,,,,,,,,,,,
,,,,,,,,,,,,,,1,001,2024-08-24_21h34.38.073,IAT(Formal),2021.2.3,Win32,60.0024001,,,,,,,,,,,,,,,,,,,,,,,,,,,,,,,,,,,,,,,,,,,,i,1,0.5209,0,70,70,46,1,野蛮,i,,,,,,,,,,,,
,,,,,,,,,,,,,,1,001,2024-08-24_21h34.38.073,IAT(Formal),2021.2.3,Win32,60.0024001,,,,,,,,,,,,,,,,,,,,,,,,,,,,,,,,,,,,,,,,,,,,i,1,0.6032,0,71,71,60,1,我,i,,,,,,,,,,,,
,,,,,,,,,,,,,,1,001,2024-08-24_21h34.38.073,IAT(Formal),2021.2.3,Win32,60.0024001,,,,,,,,,,,,,,,,,,,,,,,,,,,,,,,,,,,,,,,,,,,,e,1,0.7894,0,72,72,27,1,热情,e,,,,,,,,,,,,
,,,,,,,,,,,,,,1,001,2024-08-24_21h34.38.073,IAT(Formal),2021.2.3,Win32,60.0024001,,,,,,,,,,,,,,,,,,,,,,,,,,,,,,,,,,,,,,,,,,,,i,1,0.5438,0,73,73,63,1,自己,i,,,,,,,,,,,,
,,,,,,,,,,,,,,1,001,2024-08-24_21h34.38.073,IAT(Formal),2021.2.3,Win32,60.0024001,,,,,,,,,,,,,,,,,,,,,,,,,,,,,,,,,,,,,,,,,,,,i,1,0.6269,0,74,74,61,1,我的,i,,,,,,,,,,,,
,,,,,,,,,,,,,,1,001,2024-08-24_21h34.38.073,IAT(Formal),2021.2.3,Win32,60.0024001,,,,,,,,,,,,,,,,,,,,,,,,,,,,,,,,,,,,,,,,,,,,i,1,0.4618,0,75,75,3,1,自己,i,,,,,,,,,,,,
,,,,,,,,,,,,,,1,001,2024-08-24_21h34.38.073,IAT(Formal),2021.2.3,Win32,60.0024001,,,,,,,,,,,,,,,,,,,,,,,,,,,,,,,,,,,,,,,,,,,,i,1,0.688,0,76,76,37,1,傲慢,i,,,,,,,,,,,,
,,,,,,,,,,,,,,1,001,2024-08-24_21h34.38.073,IAT(Formal),2021.2.3,Win32,60.0024001,,,,,,,,,,,,,,,,,,,,,,,,,,,,,,,,,,,,,,,,,,,,e,1,0.6342,0,77,77,55,1,他,e,,,,,,,,,,,,
,,,,,,,,,,,,,,1,001,2024-08-24_21h34.38.073,IAT(Formal),2021.2.3,Win32,60.0024001,,,,,,,,,,,,,,,,,,,,,,,,,,,,,,,,,,,,,,,,,,,,i,1,1.0568,0,78,78,43,1,自私,i,,,,,,,,,,,,
,,,,,,,,,,,,,,1,001,2024-08-24_21h34.38.073,IAT(Formal),2021.2.3,Win32,60.0024001,,,,,,,,,,,,,,,,,,,,,,,,,,,,,,,,,,,,,,,,,,,,e,1,0.7576,0,79,79,25,1,细腻,e,,,,,,,,,,,,
,,,,,,,,,,,,,,1,001,2024-08-24_21h34.38.073,IAT(Formal),2021.2.3,Win32,60.0024001,,,,,,,,,,,,,,,,,,,,,,,,,,,,,,,,,,,,,,,,,,,,,,,,,,,,细腻,e,space,10.0464,e,1,1.1819,0,0,0,25,1,,
,,,,,,,,,,,,,,1,001,2024-08-24_21h34.38.073,IAT(Formal),2021.2.3,Win32,60.0024001,,,,,,,,,,,,,,,,,,,,,,,,,,,,,,,,,,,,,,,,,,,,,,,,,,,,热情,e,,,e,1,0.6062,0,1,1,27,1,,
,,,,,,,,,,,,,,1,001,2024-08-24_21h34.38.073,IAT(Formal),2021.2.3,Win32,60.0024001,,,,,,,,,,,,,,,,,,,,,,,,,,,,,,,,,,,,,,,,,,,,,,,,,,,,他的,e,,,e,1,0.6681,0,2,2,67,1,,
,,,,,,,,,,,,,,1,001,2024-08-24_21h34.38.073,IAT(Formal),2021.2.3,Win32,60.0024001,,,,,,,,,,,,,,,,,,,,,,,,,,,,,,,,,,,,,,,,,,,,,,,,,,,,自己,i,,,i,1,0.5249,0,3,3,53,1,,
,,,,,,,,,,,,,,1,001,2024-08-24_21h34.38.073,IAT(Formal),2021.2.3,Win32,60.0024001,,,,,,,,,,,,,,,,,,,,,,,,,,,,,,,,,,,,,,,,,,,,,,,,,,,,他,e,,,e,1,0.6233,0,4,4,55,1,,
,,,,,,,,,,,,,,1,001,2024-08-24_21h34.38.073,IAT(Formal),2021.2.3,Win32,60.0024001,,,,,,,,,,,,,,,,,,,,,,,,,,,,,,,,,,,,,,,,,,,,,,,,,,,,朴实,e,,,e,1,0.889,0,5,5,24,1,,
,,,,,,,,,,,,,,1,001,2024-08-24_21h34.38.073,IAT(Formal),2021.2.3,Win32,60.0024001,,,,,,,,,,,,,,,,,,,,,,,,,,,,,,,,,,,,,,,,,,,,,,,,,,,,我们,i,,,i,1,0.4828,0,6,6,52,1,,
,,,,,,,,,,,,,,1,001,2024-08-24_21h34.38.073,IAT(Formal),2021.2.3,Win32,60.0024001,,,,,,,,,,,,,,,,,,,,,,,,,,,,,,,,,,,,,,,,,,,,,,,,,,,,他人,e,,,e,1,0.7993,0,7,7,78,1,,
,,,,,,,,,,,,,,1,001,2024-08-24_21h34.38.073,IAT(Formal),2021.2.3,Win32,60.0024001,,,,,,,,,,,,,,,,,,,,,,,,,,,,,,,,,,,,,,,,,,,,,,,,,,,,俺,i,,,i,1,0.6688,0,8,8,4,1,,
,,,,,,,,,,,,,,1,001,2024-08-24_21h34.38.073,IAT(Formal),2021.2.3,Win32,60.0024001,,,,,,,,,,,,,,,,,,,,,,,,,,,,,,,,,,,,,,,,,,,,,,,,,,,,他,e,,,e,1,0.5627,0,9,9,65,1,,
,,,,,,,,,,,,,,1,001,2024-08-24_21h34.38.073,IAT(Formal),2021.2.3,Win32,60.0024001,,,,,,,,,,,,,,,,,,,,,,,,,,,,,,,,,,,,,,,,,,,,,,,,,,,,认真,e,,,e,1,0.7867,0,10,10,20,1,,
,,,,,,,,,,,,,,1,001,2024-08-24_21h34.38.073,IAT(Formal),2021.2.3,Win32,60.0024001,,,,,,,,,,,,,,,,,,,,,,,,,,,,,,,,,,,,,,,,,,,,,,,,,,,,诚恳,e,,,e,1,0.4784,0,11,11,29,1,,
,,,,,,,,,,,,,,1,001,2024-08-24_21h34.38.073,IAT(Formal),2021.2.3,Win32,60.0024001,,,,,,,,,,,,,,,,,,,,,,,,,,,,,,,,,,,,,,,,,,,,,,,,,,,,他人,e,,,e,1,0.4757,0,12,12,8,1,,
,,,,,,,,,,,,,,1,001,2024-08-24_21h34.38.073,IAT(Formal),2021.2.3,Win32,60.0024001,,,,,,,,,,,,,,,,,,,,,,,,,,,,,,,,,,,,,,,,,,,,,,,,,,,,诚实,e,,,e,1,0.5328,0,13,13,15,1,,
,,,,,,,,,,,,,,1,001,2024-08-24_21h34.38.073,IAT(Formal),2021.2.3,Win32,60.0024001,,,,,,,,,,,,,,,,,,,,,,,,,,,,,,,,,,,,,,,,,,,,,,,,,,,,下贱,i,,,i,1,0.6988,0,14,14,49,1,,
,,,,,,,,,,,,,,1,001,2024-08-24_21h34.38.073,IAT(Formal),2021.2.3,Win32,60.0024001,,,,,,,,,,,,,,,,,,,,,,,,,,,,,,,,,,,,,,,,,,,,,,,,,,,,他的,e,,,e,1,0.6224,0,15,15,77,1,,
,,,,,,,,,,,,,,1,001,2024-08-24_21h34.38.073,IAT(Formal),2021.2.3,Win32,60.0024001,,,,,,,,,,,,,,,,,,,,,,,,,,,,,,,,,,,,,,,,,,,,,,,,,,,,稳重,e,,,e,1,0.6751,0,16,16,21,1,,
,,,,,,,,,,,,,,1,001,2024-08-24_21h34.38.073,IAT(Formal),2021.2.3,Win32,60.0024001,,,,,,,,,,,,,,,,,,,,,,,,,,,,,,,,,,,,,,,,,,,,,,,,,,,,虚伪,i,,,i,1,0.5952,0,17,17,31,1,,
,,,,,,,,,,,,,,1,001,2024-08-24_21h34.38.073,IAT(Formal),2021.2.3,Win32,60.0024001,,,,,,,,,,,,,,,,,,,,,,,,,,,,,,,,,,,,,,,,,,,,,,,,,,,,鲁莽,i,,,i,1,0.6003,0,18,18,38,1,,
,,,,,,,,,,,,,,1,001,2024-08-24_21h34.38.073,IAT(Formal),2021.2.3,Win32,60.0024001,,,,,,,,,,,,,,,,,,,,,,,,,,,,,,,,,,,,,,,,,,,,,,,,,,,,我,i,,,i,1,0.587,0,19,19,50,1,,
,,,,,,,,,,,,,,1,001,2024-08-24_21h34.38.073,IAT(Formal),2021.2.3,Win32,60.0024001,,,,,,,,,,,,,,,,,,,,,,,,,,,,,,,,,,,,,,,,,,,,,,,,,,,,他们,e,,,e,1,0.6158,0,20,20,76,1,,
,,,,,,,,,,,,,,1,001,2024-08-24_21h34.38.073,IAT(Formal),2021.2.3,Win32,60.0024001,,,,,,,,,,,,,,,,,,,,,,,,,,,,,,,,,,,,,,,,,,,,,,,,,,,,活泼,e,,,e,1,0.6048,0,21,21,28,1,,
,,,,,,,,,,,,,,1,001,2024-08-24_21h34.38.073,IAT(Formal),2021.2.3,Win32,60.0024001,,,,,,,,,,,,,,,,,,,,,,,,,,,,,,,,,,,,,,,,,,,,,,,,,,,,我的,i,,,i,1,0.5504,0,22,22,61,1,,
,,,,,,,,,,,,,,1,001,2024-08-24_21h34.38.073,IAT(Formal),2021.2.3,Win32,60.0024001,,,,,,,,,,,,,,,,,,,,,,,,,,,,,,,,,,,,,,,,,,,,,,,,,,,,冒失,i,,,i,1,0.5929,0,23,23,39,1,,
,,,,,,,,,,,,,,1,001,2024-08-24_21h34.38.073,IAT(Formal),2021.2.3,Win32,60.0024001,,,,,,,,,,,,,,,,,,,,,,,,,,,,,,,,,,,,,,,,,,,,,,,,,,,,执拗,i,,,i,1,0.6535,0,24,24,40,1,,
,,,,,,,,,,,,,,1,001,2024-08-24_21h34.38.073,IAT(Formal),2021.2.3,Win32,60.0024001,,,,,,,,,,,,,,,,,,,,,,,,,,,,,,,,,,,,,,,,,,,,,,,,,,,,自己,i,,,i,1,0.6546,0,25,25,3,1,,
,,,,,,,,,,,,,,1,001,2024-08-24_21h34.38.073,IAT(Formal),2021.2.3,Win32,60.0024001,,,,,,,,,,,,,,,,,,,,,,,,,,,,,,,,,,,,,,,,,,,,,,,,,,,,无私,e,,,e,1,0.6742,0,26,26,22,1,,
,,,,,,,,,,,,,,1,001,2024-08-24_21h34.38.073,IAT(Formal),2021.2.3,Win32,60.0024001,,,,,,,,,,,,,,,,,,,,,,,,,,,,,,,,,,,,,,,,,,,,,,,,,,,,猖狂,i,,,i,1,1.3974,0,27,27,45,1,,
,,,,,,,,,,,,,,1,001,2024-08-24_21h34.38.073,IAT(Formal),2021.2.3,Win32,60.0024001,,,,,,,,,,,,,,,,,,,,,,,,,,,,,,,,,,,,,,,,,,,,,,,,,,,,暴躁,i,,,i,1,0.5983,0,28,28,44,1,,
,,,,,,,,,,,,,,1,001,2024-08-24_21h34.38.073,IAT(Formal),2021.2.3,Win32,60.0024001,,,,,,,,,,,,,,,,,,,,,,,,,,,,,,,,,,,,,,,,,,,,,,,,,,,,勤奋,e,,,e,1,0.6816,0,29,29,18,1,,
,,,,,,,,,,,,,,1,001,2024-08-24_21h34.38.073,IAT(Formal),2021.2.3,Win32,60.0024001,,,,,,,,,,,,,,,,,,,,,,,,,,,,,,,,,,,,,,,,,,,,,,,,,,,,机智,e,,,e,1,0.5857,0,30,30,19,1,,
,,,,,,,,,,,,,,1,001,2024-08-24_21h34.38.073,IAT(Formal),2021.2.3,Win32,60.0024001,,,,,,,,,,,,,,,,,,,,,,,,,,,,,,,,,,,,,,,,,,,,,,,,,,,,消极,i,,,i,1,0.7661,0,31,31,35,1,,
,,,,,,,,,,,,,,1,001,2024-08-24_21h34.38.073,IAT(Formal),2021.2.3,Win32,60.0024001,,,,,,,,,,,,,,,,,,,,,,,,,,,,,,,,,,,,,,,,,,,,,,,,,,,,我,i,,,i,1,0.6077,0,32,32,0,1,,
,,,,,,,,,,,,,,1,001,2024-08-24_21h34.38.073,IAT(Formal),2021.2.3,Win32,60.0024001,,,,,,,,,,,,,,,,,,,,,,,,,,,,,,,,,,,,,,,,,,,,,,,,,,,,其他,e,,,e,1,0.5739,0,33,33,69,1,,
,,,,,,,,,,,,,,1,001,2024-08-24_21h34.38.073,IAT(Formal),2021.2.3,Win32,60.0024001,,,,,,,,,,,,,,,,,,,,,,,,,,,,,,,,,,,,,,,,,,,,,,,,,,,,我们,i,,,i,1,0.5577,0,34,34,62,1,,
,,,,,,,,,,,,,,1,001,2024-08-24_21h34.38.073,IAT(Formal),2021.2.3,Win32,60.0024001,,,,,,,,,,,,,,,,,,,,,,,,,,,,,,,,,,,,,,,,,,,,,,,,,,,,崇高,e,,,e,1,0.7655,0,35,35,11,1,,
,,,,,,,,,,,,,,1,001,2024-08-24_21h34.38.073,IAT(Formal),2021.2.3,Win32,60.0024001,,,,,,,,,,,,,,,,,,,,,,,,,,,,,,,,,,,,,,,,,,,,,,,,,,,,他人,e,,,e,1,1.1218,0,36,36,68,1,,
,,,,,,,,,,,,,,1,001,2024-08-24_21h34.38.073,IAT(Formal),2021.2.3,Win32,60.0024001,,,,,,,,,,,,,,,,,,,,,,,,,,,,,,,,,,,,,,,,,,,,,,,,,,,,我,i,,,i,1,0.566,0,37,37,70,1,,
,,,,,,,,,,,,,,1,001,2024-08-24_21h34.38.073,IAT(Formal),2021.2.3,Win32,60.0024001,,,,,,,,,,,,,,,,,,,,,,,,,,,,,,,,,,,,,,,,,,,,,,,,,,,,其他,e,,,e,1,0.7827,0,38,38,59,1,,
,,,,,,,,,,,,,,1,001,2024-08-24_21h34.38.073,IAT(Formal),2021.2.3,Win32,60.0024001,,,,,,,,,,,,,,,,,,,,,,,,,,,,,,,,,,,,,,,,,,,,,,,,,,,,野蛮,i,,,i,1,0.8398,0,39,39,46,1,,
,,,,,,,,,,,,,,1,001,2024-08-24_21h34.38.073,IAT(Formal),2021.2.3,Win32,60.0024001,,,,,,,,,,,,,,,,,,,,,,,,,,,,,,,,,,,,,,,,,,,,,,,,,,,,刻薄,i,,,,0,,0,40,40,33,1,,
,,,,,,,,,,,,,,1,001,2024-08-24_21h34.38.073,IAT(Formal),2021.2.3,Win32,60.0024001,,,,,,,,,,,,,,,,,,,,,,,,,,,,,,,,,,,,,,,,,,,,,,,,,,,,他的,e,,,e,1,0.6994,0,41,41,7,1,,
,,,,,,,,,,,,,,1,001,2024-08-24_21h34.38.073,IAT(Formal),2021.2.3,Win32,60.0024001,,,,,,,,,,,,,,,,,,,,,,,,,,,,,,,,,,,,,,,,,,,,,,,,,,,,他们,e,,,e,1,0.6005,0,42,42,66,1,,
,,,,,,,,,,,,,,1,001,2024-08-24_21h34.38.073,IAT(Formal),2021.2.3,Win32,60.0024001,,,,,,,,,,,,,,,,,,,,,,,,,,,,,,,,,,,,,,,,,,,,,,,,,,,,我的,i,,,i,1,0.8533,0,43,43,71,1,,
,,,,,,,,,,,,,,1,001,2024-08-24_21h34.38.073,IAT(Formal),2021.2.3,Win32,60.0024001,,,,,,,,,,,,,,,,,,,,,,,,,,,,,,,,,,,,,,,,,,,,,,,,,,,,公正,e,,,e,1,0.6998,0,44,44,23,1,,
,,,,,,,,,,,,,,1,001,2024-08-24_21h34.38.073,IAT(Formal),2021.2.3,Win32,60.0024001,,,,,,,,,,,,,,,,,,,,,,,,,,,,,,,,,,,,,,,,,,,,,,,,,,,,他们,e,,,e,1,0.7004,0,45,45,6,1,,
,,,,,,,,,,,,,,1,001,2024-08-24_21h34.38.073,IAT(Formal),2021.2.3,Win32,60.0024001,,,,,,,,,,,,,,,,,,,,,,,,,,,,,,,,,,,,,,,,,,,,,,,,,,,,俺,i,,,i,1,0.5494,0,46,46,54,1,,
,,,,,,,,,,,,,,1,001,2024-08-24_21h34.38.073,IAT(Formal),2021.2.3,Win32,60.0024001,,,,,,,,,,,,,,,,,,,,,,,,,,,,,,,,,,,,,,,,,,,,,,,,,,,,傲慢,i,,,i,1,1.2656,0,47,47,37,1,,
,,,,,,,,,,,,,,1,001,2024-08-24_21h34.38.073,IAT(Formal),2021.2.3,Win32,60.0024001,,,,,,,,,,,,,,,,,,,,,,,,,,,,,,,,,,,,,,,,,,,,,,,,,,,,他的,e,,,e,1,0.6456,0,48,48,57,1,,
,,,,,,,,,,,,,,1,001,2024-08-24_21h34.38.073,IAT(Formal),2021.2.3,Win32,60.0024001,,,,,,,,,,,,,,,,,,,,,,,,,,,,,,,,,,,,,,,,,,,,,,,,,,,,俺,i,,,i,1,0.499,0,49,49,74,1,,
,,,,,,,,,,,,,,1,001,2024-08-24_21h34.38.073,IAT(Formal),2021.2.3,Win32,60.0024001,,,,,,,,,,,,,,,,,,,,,,,,,,,,,,,,,,,,,,,,,,,,,,,,,,,,杰出,e,,,e,1,0.8234,0,50,50,13,1,,
,,,,,,,,,,,,,,1,001,2024-08-24_21h34.38.073,IAT(Formal),2021.2.3,Win32,60.0024001,,,,,,,,,,,,,,,,,,,,,,,,,,,,,,,,,,,,,,,,,,,,,,,,,,,,悲观,i,,,i,1,0.5202,0,51,51,34,1,,
,,,,,,,,,,,,,,1,001,2024-08-24_21h34.38.073,IAT(Formal),2021.2.3,Win32,60.0024001,,,,,,,,,,,,,,,,,,,,,,,,,,,,,,,,,,,,,,,,,,,,,,,,,,,,我,i,,,i,1,0.4434,0,52,52,60,1,,
,,,,,,,,,,,,,,1,001,2024-08-24_21h34.38.073,IAT(Formal),2021.2.3,Win32,60.0024001,,,,,,,,,,,,,,,,,,,,,,,,,,,,,,,,,,,,,,,,,,,,,,,,,,,,愚蠢,i,,,i,1,0.8656,0,53,53,32,1,,
,,,,,,,,,,,,,,1,001,2024-08-24_21h34.38.073,IAT(Formal),2021.2.3,Win32,60.0024001,,,,,,,,,,,,,,,,,,,,,,,,,,,,,,,,,,,,,,,,,,,,,,,,,,,,其他,e,,,e,1,0.7878,0,54,54,9,1,,
,,,,,,,,,,,,,,1,001,2024-08-24_21h34.38.073,IAT(Formal),2021.2.3,Win32,60.0024001,,,,,,,,,,,,,,,,,,,,,,,,,,,,,,,,,,,,,,,,,,,,,,,,,,,,轻率,i,,,i,1,0.7036,0,55,55,48,1,,
,,,,,,,,,,,,,,1,001,2024-08-24_21h34.38.073,IAT(Formal),2021.2.3,Win32,60.0024001,,,,,,,,,,,,,,,,,,,,,,,,,,,,,,,,,,,,,,,,,,,,,,,,,,,,散漫,i,,,i,1,0.6787,0,56,56,41,1,,
,,,,,,,,,,,,,,1,001,2024-08-24_21h34.38.073,IAT(Formal),2021.2.3,Win32,60.0024001,,,,,,,,,,,,,,,,,,,,,,,,,,,,,,,,,,,,,,,,,,,,,,,,,,,,他人,e,,,e,1,0.5377,0,57,57,58,1,,
,,,,,,,,,,,,,,1,001,2024-08-24_21h34.38.073,IAT(Formal),2021.2.3,Win32,60.0024001,,,,,,,,,,,,,,,,,,,,,,,,,,,,,,,,,,,,,,,,,,,,,,,,,,,,其他,e,,,e,1,0.6263,0,58,58,79,1,,
,,,,,,,,,,,,,,1,001,2024-08-24_21h34.38.073,IAT(Formal),2021.2.3,Win32,60.0024001,,,,,,,,,,,,,,,,,,,,,,,,,,,,,,,,,,,,,,,,,,,,,,,,,,,,自卑,i,,,i,1,0.9655,0,59,59,36,1,,
,,,,,,,,,,,,,,1,001,2024-08-24_21h34.38.073,IAT(Formal),2021.2.3,Win32,60.0024001,,,,,,,,,,,,,,,,,,,,,,,,,,,,,,,,,,,,,,,,,,,,,,,,,,,,勇敢,e,,,e,1,0.5539,0,60,60,17,1,,
,,,,,,,,,,,,,,1,001,2024-08-24_21h34.38.073,IAT(Formal),2021.2.3,Win32,60.0024001,,,,,,,,,,,,,,,,,,,,,,,,,,,,,,,,,,,,,,,,,,,,,,,,,,,,他,e,,,e,1,0.6043,0,61,61,75,1,,
,,,,,,,,,,,,,,1,001,2024-08-24_21h34.38.073,IAT(Formal),2021.2.3,Win32,60.0024001,,,,,,,,,,,,,,,,,,,,,,,,,,,,,,,,,,,,,,,,,,,,,,,,,,,,凶狠,i,,,i,1,0.6111,0,62,62,42,1,,
,,,,,,,,,,,,,,1,001,2024-08-24_21h34.38.073,IAT(Formal),2021.2.3,Win32,60.0024001,,,,,,,,,,,,,,,,,,,,,,,,,,,,,,,,,,,,,,,,,,,,,,,,,,,,他们,e,,,e,1,0.4757,0,63,63,56,1,,
,,,,,,,,,,,,,,1,001,2024-08-24_21h34.38.073,IAT(Formal),2021.2.3,Win32,60.0024001,,,,,,,,,,,,,,,,,,,,,,,,,,,,,,,,,,,,,,,,,,,,,,,,,,,,聪明,e,,,e,1,0.5767,0,64,64,12,1,,
,,,,,,,,,,,,,,1,001,2024-08-24_21h34.38.073,IAT(Formal),2021.2.3,Win32,60.0024001,,,,,,,,,,,,,,,,,,,,,,,,,,,,,,,,,,,,,,,,,,,,,,,,,,,,乐观,e,,,e,1,0.9042,0,65,65,14,1,,
,,,,,,,,,,,,,,1,001,2024-08-24_21h34.38.073,IAT(Formal),2021.2.3,Win32,60.0024001,,,,,,,,,,,,,,,,,,,,,,,,,,,,,,,,,,,,,,,,,,,,,,,,,,,,自私,i,,,e,0,0.3994,0,66,66,43,1,,
,,,,,,,,,,,,,,1,001,2024-08-24_21h34.38.073,IAT(Formal),2021.2.3,Win32,60.0024001,,,,,,,,,,,,,,,,,,,,,,,,,,,,,,,,,,,,,,,,,,,,,,,,,,,,优秀,e,,,e,1,0.4831,0,67,67,10,1,,
,,,,,,,,,,,,,,1,001,2024-08-24_21h34.38.073,IAT(Formal),2021.2.3,Win32,60.0024001,,,,,,,,,,,,,,,,,,,,,,,,,,,,,,,,,,,,,,,,,,,,,,,,,,,,我的,i,,,e,0,0.4352,0,68,68,1,1,,
,,,,,,,,,,,,,,1,001,2024-08-24_21h34.38.073,IAT(Formal),2021.2.3,Win32,60.0024001,,,,,,,,,,,,,,,,,,,,,,,,,,,,,,,,,,,,,,,,,,,,,,,,,,,,卑鄙,i,,,i,1,0.7454,0,69,69,30,1,,
,,,,,,,,,,,,,,1,001,2024-08-24_21h34.38.073,IAT(Formal),2021.2.3,Win32,60.0024001,,,,,,,,,,,,,,,,,,,,,,,,,,,,,,,,,,,,,,,,,,,,,,,,,,,,自己,i,,,i,1,0.5229,0,70,70,63,1,,
,,,,,,,,,,,,,,1,001,2024-08-24_21h34.38.073,IAT(Formal),2021.2.3,Win32,60.0024001,,,,,,,,,,,,,,,,,,,,,,,,,,,,,,,,,,,,,,,,,,,,,,,,,,,,固执,i,,,i,1,1.0876,0,71,71,47,1,,
,,,,,,,,,,,,,,1,001,2024-08-24_21h34.38.073,IAT(Formal),2021.2.3,Win32,60.0024001,,,,,,,,,,,,,,,,,,,,,,,,,,,,,,,,,,,,,,,,,,,,,,,,,,,,冷静,e,,,e,1,0.643,0,72,72,26,1,,
,,,,,,,,,,,,,,1,001,2024-08-24_21h34.38.073,IAT(Formal),2021.2.3,Win32,60.0024001,,,,,,,,,,,,,,,,,,,,,,,,,,,,,,,,,,,,,,,,,,,,,,,,,,,,正直,e,,,e,1,0.5935,0,73,73,16,1,,
,,,,,,,,,,,,,,1,001,2024-08-24_21h34.38.073,IAT(Formal),2021.2.3,Win32,60.0024001,,,,,,,,,,,,,,,,,,,,,,,,,,,,,,,,,,,,,,,,,,,,,,,,,,,,俺,i,,,i,1,0.7509,0,74,74,64,1,,
,,,,,,,,,,,,,,1,001,2024-08-24_21h34.38.073,IAT(Formal),2021.2.3,Win32,60.0024001,,,,,,,,,,,,,,,,,,,,,,,,,,,,,,,,,,,,,,,,,,,,,,,,,,,,他,e,,,e,1,0.5663,0,75,75,5,1,,
,,,,,,,,,,,,,,1,001,2024-08-24_21h34.38.073,IAT(Formal),2021.2.3,Win32,60.0024001,,,,,,,,,,,,,,,,,,,,,,,,,,,,,,,,,,,,,,,,,,,,,,,,,,,,我的,i,,,i,1,0.4966,0,76,76,51,1,,
,,,,,,,,,,,,,,1,001,2024-08-24_21h34.38.073,IAT(Formal),2021.2.3,Win32,60.0024001,,,,,,,,,,,,,,,,,,,,,,,,,,,,,,,,,,,,,,,,,,,,,,,,,,,,自己,i,,,i,1,0.4827,0,77,77,73,1,,
,,,,,,,,,,,,,,1,001,2024-08-24_21h34.38.073,IAT(Formal),2021.2.3,Win32,60.0024001,,,,,,,,,,,,,,,,,,,,,,,,,,,,,,,,,,,,,,,,,,,,,,,,,,,,我们,i,,,i,1,0.6586,0,78,78,72,1,,
,,,,,,,,,,,,,,1,001,2024-08-24_21h34.38.073,IAT(Formal),2021.2.3,Win32,60.0024001,,,,,,,,,,,,,,,,,,,,,,,,,,,,,,,,,,,,,,,,,,,,,,,,,,,,我们,i,,,i,1,0.4457,0,79,79,2,1,,
,,,,,,,,,,,,,,1,001,2024-08-24_21h34.38.073,IAT(Formal),2021.2.3,Win32,60.0024001,,,,,,,,,,,,,,,,,,,,,,,,,,,,,,,,,,,,,,,,,,,,,,,,,,,,消极,i,,,i,1,0.6182,1,0,80,35,1,,
,,,,,,,,,,,,,,1,001,2024-08-24_21h34.38.073,IAT(Formal),2021.2.3,Win32,60.0024001,,,,,,,,,,,,,,,,,,,,,,,,,,,,,,,,,,,,,,,,,,,,,,,,,,,,崇高,e,,,e,1,0.6332,1,1,81,11,1,,
,,,,,,,,,,,,,,1,001,2024-08-24_21h34.38.073,IAT(Formal),2021.2.3,Win32,60.0024001,,,,,,,,,,,,,,,,,,,,,,,,,,,,,,,,,,,,,,,,,,,,,,,,,,,,他,e,,,e,1,0.6824,1,2,82,75,1,,
,,,,,,,,,,,,,,1,001,2024-08-24_21h34.38.073,IAT(Formal),2021.2.3,Win32,60.0024001,,,,,,,,,,,,,,,,,,,,,,,,,,,,,,,,,,,,,,,,,,,,,,,,,,,,固执,i,,,i,1,0.5657,1,3,83,47,1,,
,,,,,,,,,,,,,,1,001,2024-08-24_21h34.38.073,IAT(Formal),2021.2.3,Win32,60.0024001,,,,,,,,,,,,,,,,,,,,,,,,,,,,,,,,,,,,,,,,,,,,,,,,,,,,他的,e,,,e,1,0.6726,1,4,84,77,1,,
,,,,,,,,,,,,,,1,001,2024-08-24_21h34.38.073,IAT(Formal),2021.2.3,Win32,60.0024001,,,,,,,,,,,,,,,,,,,,,,,,,,,,,,,,,,,,,,,,,,,,,,,,,,,,诚实,e,,,e,1,0.6831,1,5,85,15,1,,
,,,,,,,,,,,,,,1,001,2024-08-24_21h34.38.073,IAT(Formal),2021.2.3,Win32,60.0024001,,,,,,,,,,,,,,,,,,,,,,,,,,,,,,,,,,,,,,,,,,,,,,,,,,,,自己,i,,,i,1,0.5824,1,6,86,63,1,,
,,,,,,,,,,,,,,1,001,2024-08-24_21h34.38.073,IAT(Formal),2021.2.3,Win32,60.0024001,,,,,,,,,,,,,,,,,,,,,,,,,,,,,,,,,,,,,,,,,,,,,,,,,,,,自己,i,,,i,1,0.4854,1,7,87,3,1,,
,,,,,,,,,,,,,,1,001,2024-08-24_21h34.38.073,IAT(Formal),2021.2.3,Win32,60.0024001,,,,,,,,,,,,,,,,,,,,,,,,,,,,,,,,,,,,,,,,,,,,,,,,,,,,优秀,e,,,e,1,0.8657,1,8,88,10,1,,
,,,,,,,,,,,,,,1,001,2024-08-24_21h34.38.073,IAT(Formal),2021.2.3,Win32,60.0024001,,,,,,,,,,,,,,,,,,,,,,,,,,,,,,,,,,,,,,,,,,,,,,,,,,,,我,i,,,i,1,0.655,1,9,89,0,1,,
,,,,,,,,,,,,,,1,001,2024-08-24_21h34.38.073,IAT(Formal),2021.2.3,Win32,60.0024001,,,,,,,,,,,,,,,,,,,,,,,,,,,,,,,,,,,,,,,,,,,,,,,,,,,,他们,e,,,e,1,0.574,1,10,90,66,1,,
,,,,,,,,,,,,,,1,001,2024-08-24_21h34.38.073,IAT(Formal),2021.2.3,Win32,60.0024001,,,,,,,,,,,,,,,,,,,,,,,,,,,,,,,,,,,,,,,,,,,,,,,,,,,,悲观,i,,,i,1,0.5025,1,11,91,34,1,,
,,,,,,,,,,,,,,1,001,2024-08-24_21h34.38.073,IAT(Formal),2021.2.3,Win32,60.0024001,,,,,,,,,,,,,,,,,,,,,,,,,,,,,,,,,,,,,,,,,,,,,,,,,,,,冒失,i,,,i,1,0.62,1,12,92,39,1,,
,,,,,,,,,,,,,,1,001,2024-08-24_21h34.38.073,IAT(Formal),2021.2.3,Win32,60.0024001,,,,,,,,,,,,,,,,,,,,,,,,,,,,,,,,,,,,,,,,,,,,,,,,,,,,我,i,,,i,1,0.5885,1,13,93,70,1,,
,,,,,,,,,,,,,,1,001,2024-08-24_21h34.38.073,IAT(Formal),2021.2.3,Win32,60.0024001,,,,,,,,,,,,,,,,,,,,,,,,,,,,,,,,,,,,,,,,,,,,,,,,,,,,傲慢,i,,,i,1,0.5657,1,14,94,37,1,,
,,,,,,,,,,,,,,1,001,2024-08-24_21h34.38.073,IAT(Formal),2021.2.3,Win32,60.0024001,,,,,,,,,,,,,,,,,,,,,,,,,,,,,,,,,,,,,,,,,,,,,,,,,,,,自卑,i,,,i,1,0.5598,1,15,95,36,1,,
,,,,,,,,,,,,,,1,001,2024-08-24_21h34.38.073,IAT(Formal),2021.2.3,Win32,60.0024001,,,,,,,,,,,,,,,,,,,,,,,,,,,,,,,,,,,,,,,,,,,,,,,,,,,,野蛮,i,,,i,1,0.5688,1,16,96,46,1,,
,,,,,,,,,,,,,,1,001,2024-08-24_21h34.38.073,IAT(Formal),2021.2.3,Win32,60.0024001,,,,,,,,,,,,,,,,,,,,,,,,,,,,,,,,,,,,,,,,,,,,,,,,,,,,勇敢,e,,,e,1,1.2994,1,17,97,17,1,,
,,,,,,,,,,,,,,1,001,2024-08-24_21h34.38.073,IAT(Formal),2021.2.3,Win32,60.0024001,,,,,,,,,,,,,,,,,,,,,,,,,,,,,,,,,,,,,,,,,,,,,,,,,,,,我,i,,,i,1,0.6622,1,18,98,50,1,,
,,,,,,,,,,,,,,1,001,2024-08-24_21h34.38.073,IAT(Formal),2021.2.3,Win32,60.0024001,,,,,,,,,,,,,,,,,,,,,,,,,,,,,,,,,,,,,,,,,,,,,,,,,,,,自己,i,,,i,1,0.4573,1,19,99,73,1,,
,,,,,,,,,,,,,,1,001,2024-08-24_21h34.38.073,IAT(Formal),2021.2.3,Win32,60.0024001,,,,,,,,,,,,,,,,,,,,,,,,,,,,,,,,,,,,,,,,,,,,,,,,,,,,他的,e,,,e,1,1.1947,1,20,100,57,1,,
,,,,,,,,,,,,,,1,001,2024-08-24_21h34.38.073,IAT(Formal),2021.2.3,Win32,60.0024001,,,,,,,,,,,,,,,,,,,,,,,,,,,,,,,,,,,,,,,,,,,,,,,,,,,,俺,i,,,i,1,0.6303,1,21,101,4,1,,
,,,,,,,,,,,,,,1,001,2024-08-24_21h34.38.073,IAT(Formal),2021.2.3,Win32,60.0024001,,,,,,,,,,,,,,,,,,,,,,,,,,,,,,,,,,,,,,,,,,,,,,,,,,,,俺,i,,,i,1,0.4736,1,22,102,54,1,,
,,,,,,,,,,,,,,1,001,2024-08-24_21h34.38.073,IAT(Formal),2021.2.3,Win32,60.0024001,,,,,,,,,,,,,,,,,,,,,,,,,,,,,,,,,,,,,,,,,,,,,,,,,,,,勤奋,e,,,e,1,0.8235,1,23,103,18,1,,
,,,,,,,,,,,,,,1,001,2024-08-24_21h34.38.073,IAT(Formal),2021.2.3,Win32,60.0024001,,,,,,,,,,,,,,,,,,,,,,,,,,,,,,,,,,,,,,,,,,,,,,,,,,,,我的,i,,,i,1,0.4498,1,24,104,1,1,,
,,,,,,,,,,,,,,1,001,2024-08-24_21h34.38.073,IAT(Formal),2021.2.3,Win32,60.0024001,,,,,,,,,,,,,,,,,,,,,,,,,,,,,,,,,,,,,,,,,,,,,,,,,,,,细腻,e,,,e,1,0.4198,1,25,105,25,1,,
,,,,,,,,,,,,,,1,001,2024-08-24_21h34.38.073,IAT(Formal),2021.2.3,Win32,60.0024001,,,,,,,,,,,,,,,,,,,,,,,,,,,,,,,,,,,,,,,,,,,,,,,,,,,,机智,e,,,e,1,0.5498,1,26,106,19,1,,
,,,,,,,,,,,,,,1,001,2024-08-24_21h34.38.073,IAT(Formal),2021.2.3,Win32,60.0024001,,,,,,,,,,,,,,,,,,,,,,,,,,,,,,,,,,,,,,,,,,,,,,,,,,,,散漫,i,,,e,0,0.6054,1,27,107,41,1,,
,,,,,,,,,,,,,,1,001,2024-08-24_21h34.38.073,IAT(Formal),2021.2.3,Win32,60.0024001,,,,,,,,,,,,,,,,,,,,,,,,,,,,,,,,,,,,,,,,,,,,,,,,,,,,他,e,,,e,1,0.7657,1,28,108,65,1,,
,,,,,,,,,,,,,,1,001,2024-08-24_21h34.38.073,IAT(Formal),2021.2.3,Win32,60.0024001,,,,,,,,,,,,,,,,,,,,,,,,,,,,,,,,,,,,,,,,,,,,,,,,,,,,活泼,e,,,e,1,0.8708,1,29,109,28,1,,
,,,,,,,,,,,,,,1,001,2024-08-24_21h34.38.073,IAT(Formal),2021.2.3,Win32,60.0024001,,,,,,,,,,,,,,,,,,,,,,,,,,,,,,,,,,,,,,,,,,,,,,,,,,,,轻率,i,,,i,1,0.8334,1,30,110,48,1,,
,,,,,,,,,,,,,,1,001,2024-08-24_21h34.38.073,IAT(Formal),2021.2.3,Win32,60.0024001,,,,,,,,,,,,,,,,,,,,,,,,,,,,,,,,,,,,,,,,,,,,,,,,,,,,其他,e,,,e,1,0.9047,1,31,111,79,1,,
,,,,,,,,,,,,,,1,001,2024-08-24_21h34.38.073,IAT(Formal),2021.2.3,Win32,60.0024001,,,,,,,,,,,,,,,,,,,,,,,,,,,,,,,,,,,,,,,,,,,,,,,,,,,,俺,i,,,i,1,0.5848,1,32,112,64,1,,
,,,,,,,,,,,,,,1,001,2024-08-24_21h34.38.073,IAT(Formal),2021.2.3,Win32,60.0024001,,,,,,,,,,,,,,,,,,,,,,,,,,,,,,,,,,,,,,,,,,,,,,,,,,,,他,e,,,e,1,0.5822,1,33,113,55,1,,
,,,,,,,,,,,,,,1,001,2024-08-24_21h34.38.073,IAT(Formal),2021.2.3,Win32,60.0024001,,,,,,,,,,,,,,,,,,,,,,,,,,,,,,,,,,,,,,,,,,,,,,,,,,,,虚伪,i,,,i,1,0.9737,1,34,114,31,1,,
,,,,,,,,,,,,,,1,001,2024-08-24_21h34.38.073,IAT(Formal),2021.2.3,Win32,60.0024001,,,,,,,,,,,,,,,,,,,,,,,,,,,,,,,,,,,,,,,,,,,,,,,,,,,,他,e,,,e,1,0.5871,1,35,115,5,1,,
,,,,,,,,,,,,,,1,001,2024-08-24_21h34.38.073,IAT(Formal),2021.2.3,Win32,60.0024001,,,,,,,,,,,,,,,,,,,,,,,,,,,,,,,,,,,,,,,,,,,,,,,,,,,,无私,e,,,e,1,1.1234,1,36,116,22,1,,
,,,,,,,,,,,,,,1,001,2024-08-24_21h34.38.073,IAT(Formal),2021.2.3,Win32,60.0024001,,,,,,,,,,,,,,,,,,,,,,,,,,,,,,,,,,,,,,,,,,,,,,,,,,,,其他,e,,,e,1,0.7908,1,37,117,9,1,,
,,,,,,,,,,,,,,1,001,2024-08-24_21h34.38.073,IAT(Formal),2021.2.3,Win32,60.0024001,,,,,,,,,,,,,,,,,,,,,,,,,,,,,,,,,,,,,,,,,,,,,,,,,,,,认真,e,,,e,1,0.503,1,38,118,20,1,,
,,,,,,,,,,,,,,1,001,2024-08-24_21h34.38.073,IAT(Formal),2021.2.3,Win32,60.0024001,,,,,,,,,,,,,,,,,,,,,,,,,,,,,,,,,,,,,,,,,,,,,,,,,,,,稳重,e,,,e,1,0.7779,1,39,119,21,1,,
,,,,,,,,,,,,,,1,001,2024-08-24_21h34.38.073,IAT(Formal),2021.2.3,Win32,60.0024001,,,,,,,,,,,,,,,,,,,,,,,,,,,,,,,,,,,,,,,,,,,,,,,,,,,,卑鄙,i,,,i,1,0.538,1,40,120,30,1,,
,,,,,,,,,,,,,,1,001,2024-08-24_21h34.38.073,IAT(Formal),2021.2.3,Win32,60.0024001,,,,,,,,,,,,,,,,,,,,,,,,,,,,,,,,,,,,,,,,,,,,,,,,,,,,猖狂,i,,,i,1,0.6992,1,41,121,45,1,,
,,,,,,,,,,,,,,1,001,2024-08-24_21h34.38.073,IAT(Formal),2021.2.3,Win32,60.0024001,,,,,,,,,,,,,,,,,,,,,,,,,,,,,,,,,,,,,,,,,,,,,,,,,,,,他人,e,,,e,1,0.7324,1,42,122,68,1,,
,,,,,,,,,,,,,,1,001,2024-08-24_21h34.38.073,IAT(Formal),2021.2.3,Win32,60.0024001,,,,,,,,,,,,,,,,,,,,,,,,,,,,,,,,,,,,,,,,,,,,,,,,,,,,公正,e,,,e,1,0.5929,1,43,123,23,1,,
,,,,,,,,,,,,,,1,001,2024-08-24_21h34.38.073,IAT(Formal),2021.2.3,Win32,60.0024001,,,,,,,,,,,,,,,,,,,,,,,,,,,,,,,,,,,,,,,,,,,,,,,,,,,,我,i,,,i,1,0.8604,1,44,124,60,1,,
,,,,,,,,,,,,,,1,001,2024-08-24_21h34.38.073,IAT(Formal),2021.2.3,Win32,60.0024001,,,,,,,,,,,,,,,,,,,,,,,,,,,,,,,,,,,,,,,,,,,,,,,,,,,,朴实,e,,,e,1,0.6885,1,45,125,24,1,,
,,,,,,,,,,,,,,1,001,2024-08-24_21h34.38.073,IAT(Formal),2021.2.3,Win32,60.0024001,,,,,,,,,,,,,,,,,,,,,,,,,,,,,,,,,,,,,,,,,,,,,,,,,,,,我们,i,,,i,1,0.6163,1,46,126,62,1,,
,,,,,,,,,,,,,,1,001,2024-08-24_21h34.38.073,IAT(Formal),2021.2.3,Win32,60.0024001,,,,,,,,,,,,,,,,,,,,,,,,,,,,,,,,,,,,,,,,,,,,,,,,,,,,执拗,i,,,i,1,0.57,1,47,127,40,1,,
,,,,,,,,,,,,,,1,001,2024-08-24_21h34.38.073,IAT(Formal),2021.2.3,Win32,60.0024001,,,,,,,,,,,,,,,,,,,,,,,,,,,,,,,,,,,,,,,,,,,,,,,,,,,,他的,e,,,e,1,0.7007,1,48,128,67,1,,
,,,,,,,,,,,,,,1,001,2024-08-24_21h34.38.073,IAT(Formal),2021.2.3,Win32,60.0024001,,,,,,,,,,,,,,,,,,,,,,,,,,,,,,,,,,,,,,,,,,,,,,,,,,,,下贱,i,,,i,1,0.6335,1,49,129,49,1,,
,,,,,,,,,,,,,,1,001,2024-08-24_21h34.38.073,IAT(Formal),2021.2.3,Win32,60.0024001,,,,,,,,,,,,,,,,,,,,,,,,,,,,,,,,,,,,,,,,,,,,,,,,,,,,其他,e,,,e,1,0.8391,1,50,130,69,1,,
,,,,,,,,,,,,,,1,001,2024-08-24_21h34.38.073,IAT(Formal),2021.2.3,Win32,60.0024001,,,,,,,,,,,,,,,,,,,,,,,,,,,,,,,,,,,,,,,,,,,,,,,,,,,,自私,i,,,i,1,0.8859,1,51,131,43,1,,
,,,,,,,,,,,,,,1,001,2024-08-24_21h34.38.073,IAT(Formal),2021.2.3,Win32,60.0024001,,,,,,,,,,,,,,,,,,,,,,,,,,,,,,,,,,,,,,,,,,,,,,,,,,,,他的,e,,,e,1,0.4862,1,52,132,7,1,,
,,,,,,,,,,,,,,1,001,2024-08-24_21h34.38.073,IAT(Formal),2021.2.3,Win32,60.0024001,,,,,,,,,,,,,,,,,,,,,,,,,,,,,,,,,,,,,,,,,,,,,,,,,,,,我们,i,,,i,1,0.6655,1,53,133,72,1,,
,,,,,,,,,,,,,,1,001,2024-08-24_21h34.38.073,IAT(Formal),2021.2.3,Win32,60.0024001,,,,,,,,,,,,,,,,,,,,,,,,,,,,,,,,,,,,,,,,,,,,,,,,,,,,我们,i,,,i,1,0.5715,1,54,134,2,1,,
,,,,,,,,,,,,,,1,001,2024-08-24_21h34.38.073,IAT(Formal),2021.2.3,Win32,60.0024001,,,,,,,,,,,,,,,,,,,,,,,,,,,,,,,,,,,,,,,,,,,,,,,,,,,,他人,e,,,e,1,0.5827,1,55,135,8,1,,
,,,,,,,,,,,,,,1,001,2024-08-24_21h34.38.073,IAT(Formal),2021.2.3,Win32,60.0024001,,,,,,,,,,,,,,,,,,,,,,,,,,,,,,,,,,,,,,,,,,,,,,,,,,,,其他,e,,,e,1,0.6657,1,56,136,59,1,,
,,,,,,,,,,,,,,1,001,2024-08-24_21h34.38.073,IAT(Formal),2021.2.3,Win32,60.0024001,,,,,,,,,,,,,,,,,,,,,,,,,,,,,,,,,,,,,,,,,,,,,,,,,,,,诚恳,e,,,e,1,1.2603,1,57,137,29,1,,
,,,,,,,,,,,,,,1,001,2024-08-24_21h34.38.073,IAT(Formal),2021.2.3,Win32,60.0024001,,,,,,,,,,,,,,,,,,,,,,,,,,,,,,,,,,,,,,,,,,,,,,,,,,,,愚蠢,i,,,i,1,0.7541,1,58,138,32,1,,
,,,,,,,,,,,,,,1,001,2024-08-24_21h34.38.073,IAT(Formal),2021.2.3,Win32,60.0024001,,,,,,,,,,,,,,,,,,,,,,,,,,,,,,,,,,,,,,,,,,,,,,,,,,,,乐观,e,,,e,1,0.6916,1,59,139,14,1,,
,,,,,,,,,,,,,,1,001,2024-08-24_21h34.38.073,IAT(Formal),2021.2.3,Win32,60.0024001,,,,,,,,,,,,,,,,,,,,,,,,,,,,,,,,,,,,,,,,,,,,,,,,,,,,他们,e,,,e,1,1.1162,1,60,140,56,1,,
,,,,,,,,,,,,,,1,001,2024-08-24_21h34.38.073,IAT(Formal),2021.2.3,Win32,60.0024001,,,,,,,,,,,,,,,,,,,,,,,,,,,,,,,,,,,,,,,,,,,,,,,,,,,,他人,e,,,e,1,0.5005,1,61,141,58,1,,
,,,,,,,,,,,,,,1,001,2024-08-24_21h34.38.073,IAT(Formal),2021.2.3,Win32,60.0024001,,,,,,,,,,,,,,,,,,,,,,,,,,,,,,,,,,,,,,,,,,,,,,,,,,,,我的,i,,,i,1,0.5312,1,62,142,71,1,,
,,,,,,,,,,,,,,1,001,2024-08-24_21h34.38.073,IAT(Formal),2021.2.3,Win32,60.0024001,,,,,,,,,,,,,,,,,,,,,,,,,,,,,,,,,,,,,,,,,,,,,,,,,,,,他们,e,,,e,1,0.6396,1,63,143,6,1,,
,,,,,,,,,,,,,,1,001,2024-08-24_21h34.38.073,IAT(Formal),2021.2.3,Win32,60.0024001,,,,,,,,,,,,,,,,,,,,,,,,,,,,,,,,,,,,,,,,,,,,,,,,,,,,我的,i,,,i,1,0.6341,1,64,144,61,1,,
,,,,,,,,,,,,,,1,001,2024-08-24_21h34.38.073,IAT(Formal),2021.2.3,Win32,60.0024001,,,,,,,,,,,,,,,,,,,,,,,,,,,,,,,,,,,,,,,,,,,,,,,,,,,,我的,i,,,i,1,0.5117,1,65,145,51,1,,
,,,,,,,,,,,,,,1,001,2024-08-24_21h34.38.073,IAT(Formal),2021.2.3,Win32,60.0024001,,,,,,,,,,,,,,,,,,,,,,,,,,,,,,,,,,,,,,,,,,,,,,,,,,,,他们,e,,,e,1,0.8038,1,66,146,76,1,,
,,,,,,,,,,,,,,1,001,2024-08-24_21h34.38.073,IAT(Formal),2021.2.3,Win32,60.0024001,,,,,,,,,,,,,,,,,,,,,,,,,,,,,,,,,,,,,,,,,,,,,,,,,,,,刻薄,i,,,i,1,0.6197,1,67,147,33,1,,
,,,,,,,,,,,,,,1,001,2024-08-24_21h34.38.073,IAT(Formal),2021.2.3,Win32,60.0024001,,,,,,,,,,,,,,,,,,,,,,,,,,,,,,,,,,,,,,,,,,,,,,,,,,,,暴躁,i,,,i,1,0.4858,1,68,148,44,1,,
,,,,,,,,,,,,,,1,001,2024-08-24_21h34.38.073,IAT(Formal),2021.2.3,Win32,60.0024001,,,,,,,,,,,,,,,,,,,,,,,,,,,,,,,,,,,,,,,,,,,,,,,,,,,,鲁莽,i,,,i,1,0.6188,1,69,149,38,1,,
,,,,,,,,,,,,,,1,001,2024-08-24_21h34.38.073,IAT(Formal),2021.2.3,Win32,60.0024001,,,,,,,,,,,,,,,,,,,,,,,,,,,,,,,,,,,,,,,,,,,,,,,,,,,,杰出,e,,,e,1,1.0015,1,70,150,13,1,,
,,,,,,,,,,,,,,1,001,2024-08-24_21h34.38.073,IAT(Formal),2021.2.3,Win32,60.0024001,,,,,,,,,,,,,,,,,,,,,,,,,,,,,,,,,,,,,,,,,,,,,,,,,,,,正直,e,,,e,1,0.6396,1,71,151,16,1,,
,,,,,,,,,,,,,,1,001,2024-08-24_21h34.38.073,IAT(Formal),2021.2.3,Win32,60.0024001,,,,,,,,,,,,,,,,,,,,,,,,,,,,,,,,,,,,,,,,,,,,,,,,,,,,热情,e,,,e,1,0.8554,1,72,152,27,1,,
,,,,,,,,,,,,,,1,001,2024-08-24_21h34.38.073,IAT(Formal),2021.2.3,Win32,60.0024001,,,,,,,,,,,,,,,,,,,,,,,,,,,,,,,,,,,,,,,,,,,,,,,,,,,,我们,i,,,i,1,0.8438,1,73,153,52,1,,
,,,,,,,,,,,,,,1,001,2024-08-24_21h34.38.073,IAT(Formal),2021.2.3,Win32,60.0024001,,,,,,,,,,,,,,,,,,,,,,,,,,,,,,,,,,,,,,,,,,,,,,,,,,,,俺,i,,,e,0,0.6026,1,74,154,74,1,,
,,,,,,,,,,,,,,1,001,2024-08-24_21h34.38.073,IAT(Formal),2021.2.3,Win32,60.0024001,,,,,,,,,,,,,,,,,,,,,,,,,,,,,,,,,,,,,,,,,,,,,,,,,,,,冷静,e,,,e,1,1.1167,1,75,155,26,1,,
,,,,,,,,,,,,,,1,001,2024-08-24_21h34.38.073,IAT(Formal),2021.2.3,Win32,60.0024001,,,,,,,,,,,,,,,,,,,,,,,,,,,,,,,,,,,,,,,,,,,,,,,,,,,,凶狠,i,,,i,1,0.583,1,76,156,42,1,,
,,,,,,,,,,,,,,1,001,2024-08-24_21h34.38.073,IAT(Formal),2021.2.3,Win32,60.0024001,,,,,,,,,,,,,,,,,,,,,,,,,,,,,,,,,,,,,,,,,,,,,,,,,,,,他人,e,,,e,1,0.6337,1,77,157,78,1,,
,,,,,,,,,,,,,,1,001,2024-08-24_21h34.38.073,IAT(Formal),2021.2.3,Win32,60.0024001,,,,,,,,,,,,,,,,,,,,,,,,,,,,,,,,,,,,,,,,,,,,,,,,,,,,自己,i,,,i,1,0.5928,1,78,158,53,1,,
,,,,,,,,,,,,,,1,001,2024-08-24_21h34.38.073,IAT(Formal),2021.2.3,Win32,60.0024001,,,,,,,,,,,,,,,,,,,,,,,,,,,,,,,,,,,,,,,,,,,,,,,,,,,,聪明,e,,,e,1,1.0929,1,79,159,12,1,,
,,,,,,,,,,,,,,1,001,2024-08-24_21h34.38.073,IAT(Formal),2021.2.3,Win32,60.0024001,,,,,,,,,,,,,,,,,,,,,,,,,,,,,,,,,,,,,,,,,,,,,,,,,,,,,,,,,,,,,,,,space,2.1427