"X.Instruction1.keys","Instruction1.rt","Instruction2.keys","Instruction2.rt","key_resp_iso.keys","key_resp_iso.corr","key_resp_iso.rt","Practice_01.thisRepN","Practice_01.thisTrialN","Practice_01.thisN","Practice_01.thisIndex","Practice_01.ran","Words","ans","participant","session","date","expName","psychopyVersion","OS","frameRate","key_resp_3.keys","key_resp_3.rt","key_resp_ipn.keys","key_resp_ipn.corr","key_resp_ipn.rt","Practice_02.thisRepN","Practice_02.thisTrialN","Practice_02.thisN","Practice_02.thisIndex","Practice_02.ran","Words_ipn","ans_ipn","key_resp_4.keys","key_resp_4.rt","key_resp_t1.keys","key_resp_t1.corr","key_resp_t1.rt","Practice_T1.thisRepN","Practice_T1.thisTrialN","Practice_T1.thisN","Practice_T1.thisIndex","Practice_T1.ran","Words_t1","ans_t1","key_resp_5.keys","key_resp_5.rt","Formal_T1.thisRepN","Formal_T1.thisTrialN","Formal_T1.thisN","Formal_T1.thisIndex","Formal_T1.ran","key_resp_6.keys","key_resp_6.rt","key_resp_iso_reverse.keys","key_resp_iso_reverse.corr","key_resp_iso_reverse.rt","Practice_iso_Reverse.thisRepN","Practice_iso_Reverse.thisTrialN","Practice_iso_Reverse.thisN","Practice_iso_Reverse.thisIndex","Practice_iso_Reverse.ran","key_resp_7.keys","key_resp_7.rt","key_resp_t2_Practice.keys","key_resp_t2_Practice.corr","key_resp_t2_Practice.rt","Practice_t2_Reverse.thisRepN","Practice_t2_Reverse.thisTrialN","Practice_t2_Reverse.thisN","Practice_t2_Reverse.thisIndex","Practice_t2_Reverse.ran","Words_t2","ans_t2","key_resp_8.keys","key_resp_8.rt","key_resp_t2.keys","key_resp_t2.corr","key_resp_t2.rt","Formal_t2_reverse.thisRepN","Formal_t2_reverse.thisTrialN","Formal_t2_reverse.thisN","Formal_t2_reverse.thisIndex","Formal_t2_reverse.ran","key_instruct.keys","key_instruct.rt","Subject"
"space",6.2877,"space",10.2567,"i",1,1.0594,0,0,0,5,1,"他","i",1,1,"2024-08-25_11h16.55.004","IAT(Formal)","2021.2.3","Win32",60.24096386,"",NA,"",NA,NA,NA,NA,NA,NA,NA,"","","",NA,"",NA,NA,NA,NA,NA,NA,NA,"","","",NA,NA,NA,NA,NA,NA,"",NA,"",NA,NA,NA,NA,NA,NA,NA,"",NA,"",NA,NA,NA,NA,NA,NA,NA,"","","",NA,"",NA,NA,NA,NA,NA,NA,NA,"",NA,"27"
"",NA,"",NA,"e",1,0.713,0,1,1,0,1,"我","e",1,1,"2024-08-25_11h16.55.004","IAT(Formal)","2021.2.3","Win32",60.24096386,"",NA,"",NA,NA,NA,NA,NA,NA,NA,"","","",NA,"",NA,NA,NA,NA,NA,NA,NA,"","","",NA,NA,NA,NA,NA,NA,"",NA,"",NA,NA,NA,NA,NA,NA,NA,"",NA,"",NA,NA,NA,NA,NA,NA,NA,"","","",NA,"",NA,NA,NA,NA,NA,NA,NA,"",NA,"27"
"",NA,"",NA,"e",1,0.5109,0,2,2,1,1,"我的","e",1,1,"2024-08-25_11h16.55.004","IAT(Formal)","2021.2.3","Win32",60.24096386,"",NA,"",NA,NA,NA,NA,NA,NA,NA,"","","",NA,"",NA,NA,NA,NA,NA,NA,NA,"","","",NA,NA,NA,NA,NA,NA,"",NA,"",NA,NA,NA,NA,NA,NA,NA,"",NA,"",NA,NA,NA,NA,NA,NA,NA,"","","",NA,"",NA,NA,NA,NA,NA,NA,NA,"",NA,"27"
"",NA,"",NA,"e",1,0.4305,0,3,3,2,1,"我们","e",1,1,"2024-08-25_11h16.55.004","IAT(Formal)","2021.2.3","Win32",60.24096386,"",NA,"",NA,NA,NA,NA,NA,NA,NA,"","","",NA,"",NA,NA,NA,NA,NA,NA,NA,"","","",NA,NA,NA,NA,NA,NA,"",NA,"",NA,NA,NA,NA,NA,NA,NA,"",NA,"",NA,NA,NA,NA,NA,NA,NA,"","","",NA,"",NA,NA,NA,NA,NA,NA,NA,"",NA,"27"
"",NA,"",NA,"i",1,0.482,0,4,4,8,1,"他人","i",1,1,"2024-08-25_11h16.55.004","IAT(Formal)","2021.2.3","Win32",60.24096386,"",NA,"",NA,NA,NA,NA,NA,NA,NA,"","","",NA,"",NA,NA,NA,NA,NA,NA,NA,"","","",NA,NA,NA,NA,NA,NA,"",NA,"",NA,NA,NA,NA,NA,NA,NA,"",NA,"",NA,NA,NA,NA,NA,NA,NA,"","","",NA,"",NA,NA,NA,NA,NA,NA,NA,"",NA,"27"
"",NA,"",NA,"i",1,0.4662,0,5,5,7,1,"他的","i",1,1,"2024-08-25_11h16.55.004","IAT(Formal)","2021.2.3","Win32",60.24096386,"",NA,"",NA,NA,NA,NA,NA,NA,NA,"","","",NA,"",NA,NA,NA,NA,NA,NA,NA,"","","",NA,NA,NA,NA,NA,NA,"",NA,"",NA,NA,NA,NA,NA,NA,NA,"",NA,"",NA,NA,NA,NA,NA,NA,NA,"","","",NA,"",NA,NA,NA,NA,NA,NA,NA,"",NA,"27"
"",NA,"",NA,"i",1,0.3909,0,6,6,6,1,"他们","i",1,1,"2024-08-25_11h16.55.004","IAT(Formal)","2021.2.3","Win32",60.24096386,"",NA,"",NA,NA,NA,NA,NA,NA,NA,"","","",NA,"",NA,NA,NA,NA,NA,NA,NA,"","","",NA,NA,NA,NA,NA,NA,"",NA,"",NA,NA,NA,NA,NA,NA,NA,"",NA,"",NA,NA,NA,NA,NA,NA,NA,"","","",NA,"",NA,NA,NA,NA,NA,NA,NA,"",NA,"27"
"",NA,"",NA,"e",1,0.548,0,7,7,3,1,"自己","e",1,1,"2024-08-25_11h16.55.004","IAT(Formal)","2021.2.3","Win32",60.24096386,"",NA,"",NA,NA,NA,NA,NA,NA,NA,"","","",NA,"",NA,NA,NA,NA,NA,NA,NA,"","","",NA,NA,NA,NA,NA,NA,"",NA,"",NA,NA,NA,NA,NA,NA,NA,"",NA,"",NA,NA,NA,NA,NA,NA,NA,"","","",NA,"",NA,NA,NA,NA,NA,NA,NA,"",NA,"27"
"",NA,"",NA,"e",1,0.6784,0,8,8,4,1,"俺","e",1,1,"2024-08-25_11h16.55.004","IAT(Formal)","2021.2.3","Win32",60.24096386,"",NA,"",NA,NA,NA,NA,NA,NA,NA,"","","",NA,"",NA,NA,NA,NA,NA,NA,NA,"","","",NA,NA,NA,NA,NA,NA,"",NA,"",NA,NA,NA,NA,NA,NA,NA,"",NA,"",NA,NA,NA,NA,NA,NA,NA,"","","",NA,"",NA,NA,NA,NA,NA,NA,NA,"",NA,"27"
"",NA,"",NA,"i",1,0.5558,0,9,9,9,1,"其他","i",1,1,"2024-08-25_11h16.55.004","IAT(Formal)","2021.2.3","Win32",60.24096386,"",NA,"",NA,NA,NA,NA,NA,NA,NA,"","","",NA,"",NA,NA,NA,NA,NA,NA,NA,"","","",NA,NA,NA,NA,NA,NA,"",NA,"",NA,NA,NA,NA,NA,NA,NA,"",NA,"",NA,NA,NA,NA,NA,NA,NA,"","","",NA,"",NA,NA,NA,NA,NA,NA,NA,"",NA,"27"
"",NA,"",NA,"",NA,NA,NA,NA,NA,NA,NA,"","",1,1,"2024-08-25_11h16.55.004","IAT(Formal)","2021.2.3","Win32",60.24096386,"space",9.6371,"i",1,0.6344,0,0,0,31,1,"散漫","i","",NA,"",NA,NA,NA,NA,NA,NA,NA,"","","",NA,NA,NA,NA,NA,NA,"",NA,"",NA,NA,NA,NA,NA,NA,NA,"",NA,"",NA,NA,NA,NA,NA,NA,NA,"","","",NA,"",NA,NA,NA,NA,NA,NA,NA,"",NA,"27"
"",NA,"",NA,"",NA,NA,NA,NA,NA,NA,NA,"","",1,1,"2024-08-25_11h16.55.004","IAT(Formal)","2021.2.3","Win32",60.24096386,"",NA,"e",1,0.606,0,1,1,11,1,"稳重","e","",NA,"",NA,NA,NA,NA,NA,NA,NA,"","","",NA,NA,NA,NA,NA,NA,"",NA,"",NA,NA,NA,NA,NA,NA,NA,"",NA,"",NA,NA,NA,NA,NA,NA,NA,"","","",NA,"",NA,NA,NA,NA,NA,NA,NA,"",NA,"27"
"",NA,"",NA,"",NA,NA,NA,NA,NA,NA,NA,"","",1,1,"2024-08-25_11h16.55.004","IAT(Formal)","2021.2.3","Win32",60.24096386,"",NA,"i",1,0.6182,0,2,2,32,1,"凶狠","i","",NA,"",NA,NA,NA,NA,NA,NA,NA,"","","",NA,NA,NA,NA,NA,NA,"",NA,"",NA,NA,NA,NA,NA,NA,NA,"",NA,"",NA,NA,NA,NA,NA,NA,NA,"","","",NA,"",NA,NA,NA,NA,NA,NA,NA,"",NA,"27"
"",NA,"",NA,"",NA,NA,NA,NA,NA,NA,NA,"","",1,1,"2024-08-25_11h16.55.004","IAT(Formal)","2021.2.3","Win32",60.24096386,"",NA,"i",1,0.6186,0,3,3,36,1,"野蛮","i","",NA,"",NA,NA,NA,NA,NA,NA,NA,"","","",NA,NA,NA,NA,NA,NA,"",NA,"",NA,NA,NA,NA,NA,NA,NA,"",NA,"",NA,NA,NA,NA,NA,NA,NA,"","","",NA,"",NA,NA,NA,NA,NA,NA,NA,"",NA,"27"
"",NA,"",NA,"",NA,NA,NA,NA,NA,NA,NA,"","",1,1,"2024-08-25_11h16.55.004","IAT(Formal)","2021.2.3","Win32",60.24096386,"",NA,"e",1,0.5467,0,4,4,4,1,"乐观","e","",NA,"",NA,NA,NA,NA,NA,NA,NA,"","","",NA,NA,NA,NA,NA,NA,"",NA,"",NA,NA,NA,NA,NA,NA,NA,"",NA,"",NA,NA,NA,NA,NA,NA,NA,"","","",NA,"",NA,NA,NA,NA,NA,NA,NA,"",NA,"27"
"",NA,"",NA,"",NA,NA,NA,NA,NA,NA,NA,"","",1,1,"2024-08-25_11h16.55.004","IAT(Formal)","2021.2.3","Win32",60.24096386,"",NA,"e",1,0.577,0,5,5,10,1,"认真","e","",NA,"",NA,NA,NA,NA,NA,NA,NA,"","","",NA,NA,NA,NA,NA,NA,"",NA,"",NA,NA,NA,NA,NA,NA,NA,"",NA,"",NA,NA,NA,NA,NA,NA,NA,"","","",NA,"",NA,NA,NA,NA,NA,NA,NA,"",NA,"27"
"",NA,"",NA,"",NA,NA,NA,NA,NA,NA,NA,"","",1,1,"2024-08-25_11h16.55.004","IAT(Formal)","2021.2.3","Win32",60.24096386,"",NA,"e",1,0.6263,0,6,6,0,1,"优秀","e","",NA,"",NA,NA,NA,NA,NA,NA,NA,"","","",NA,NA,NA,NA,NA,NA,"",NA,"",NA,NA,NA,NA,NA,NA,NA,"",NA,"",NA,NA,NA,NA,NA,NA,NA,"","","",NA,"",NA,NA,NA,NA,NA,NA,NA,"",NA,"27"
"",NA,"",NA,"",NA,NA,NA,NA,NA,NA,NA,"","",1,1,"2024-08-25_11h16.55.004","IAT(Formal)","2021.2.3","Win32",60.24096386,"",NA,"i",1,0.5788,0,7,7,26,1,"自卑","i","",NA,"",NA,NA,NA,NA,NA,NA,NA,"","","",NA,NA,NA,NA,NA,NA,"",NA,"",NA,NA,NA,NA,NA,NA,NA,"",NA,"",NA,NA,NA,NA,NA,NA,NA,"","","",NA,"",NA,NA,NA,NA,NA,NA,NA,"",NA,"27"
"",NA,"",NA,"",NA,NA,NA,NA,NA,NA,NA,"","",1,1,"2024-08-25_11h16.55.004","IAT(Formal)","2021.2.3","Win32",60.24096386,"",NA,"i",1,0.6802,0,8,8,21,1,"虚伪","i","",NA,"",NA,NA,NA,NA,NA,NA,NA,"","","",NA,NA,NA,NA,NA,NA,"",NA,"",NA,NA,NA,NA,NA,NA,NA,"",NA,"",NA,NA,NA,NA,NA,NA,NA,"","","",NA,"",NA,NA,NA,NA,NA,NA,NA,"",NA,"27"
"",NA,"",NA,"",NA,NA,NA,NA,NA,NA,NA,"","",1,1,"2024-08-25_11h16.55.004","IAT(Formal)","2021.2.3","Win32",60.24096386,"",NA,"i",1,0.6579,0,9,9,24,1,"悲观","i","",NA,"",NA,NA,NA,NA,NA,NA,NA,"","","",NA,NA,NA,NA,NA,NA,"",NA,"",NA,NA,NA,NA,NA,NA,NA,"",NA,"",NA,NA,NA,NA,NA,NA,NA,"","","",NA,"",NA,NA,NA,NA,NA,NA,NA,"",NA,"27"
"",NA,"",NA,"",NA,NA,NA,NA,NA,NA,NA,"","",1,1,"2024-08-25_11h16.55.004","IAT(Formal)","2021.2.3","Win32",60.24096386,"",NA,"e",1,0.5265,0,10,10,2,1,"聪明","e","",NA,"",NA,NA,NA,NA,NA,NA,NA,"","","",NA,NA,NA,NA,NA,NA,"",NA,"",NA,NA,NA,NA,NA,NA,NA,"",NA,"",NA,NA,NA,NA,NA,NA,NA,"","","",NA,"",NA,NA,NA,NA,NA,NA,NA,"",NA,"27"
"",NA,"",NA,"",NA,NA,NA,NA,NA,NA,NA,"","",1,1,"2024-08-25_11h16.55.004","IAT(Formal)","2021.2.3","Win32",60.24096386,"",NA,"e",1,0.6105,0,11,11,8,1,"勤奋","e","",NA,"",NA,NA,NA,NA,NA,NA,NA,"","","",NA,NA,NA,NA,NA,NA,"",NA,"",NA,NA,NA,NA,NA,NA,NA,"",NA,"",NA,NA,NA,NA,NA,NA,NA,"","","",NA,"",NA,NA,NA,NA,NA,NA,NA,"",NA,"27"
"",NA,"",NA,"",NA,NA,NA,NA,NA,NA,NA,"","",1,1,"2024-08-25_11h16.55.004","IAT(Formal)","2021.2.3","Win32",60.24096386,"",NA,"e",1,0.4707,0,12,12,18,1,"活泼","e","",NA,"",NA,NA,NA,NA,NA,NA,NA,"","","",NA,NA,NA,NA,NA,NA,"",NA,"",NA,NA,NA,NA,NA,NA,NA,"",NA,"",NA,NA,NA,NA,NA,NA,NA,"","","",NA,"",NA,NA,NA,NA,NA,NA,NA,"",NA,"27"
"",NA,"",NA,"",NA,NA,NA,NA,NA,NA,NA,"","",1,1,"2024-08-25_11h16.55.004","IAT(Formal)","2021.2.3","Win32",60.24096386,"",NA,"e",1,0.5577,0,13,13,15,1,"细腻","e","",NA,"",NA,NA,NA,NA,NA,NA,NA,"","","",NA,NA,NA,NA,NA,NA,"",NA,"",NA,NA,NA,NA,NA,NA,NA,"",NA,"",NA,NA,NA,NA,NA,NA,NA,"","","",NA,"",NA,NA,NA,NA,NA,NA,NA,"",NA,"27"
"",NA,"",NA,"",NA,NA,NA,NA,NA,NA,NA,"","",1,1,"2024-08-25_11h16.55.004","IAT(Formal)","2021.2.3","Win32",60.24096386,"",NA,"e",1,0.5094,0,14,14,9,1,"机智","e","",NA,"",NA,NA,NA,NA,NA,NA,NA,"","","",NA,NA,NA,NA,NA,NA,"",NA,"",NA,NA,NA,NA,NA,NA,NA,"",NA,"",NA,NA,NA,NA,NA,NA,NA,"","","",NA,"",NA,NA,NA,NA,NA,NA,NA,"",NA,"27"
"",NA,"",NA,"",NA,NA,NA,NA,NA,NA,NA,"","",1,1,"2024-08-25_11h16.55.004","IAT(Formal)","2021.2.3","Win32",60.24096386,"",NA,"e",1,0.6508,0,15,15,12,1,"无私","e","",NA,"",NA,NA,NA,NA,NA,NA,NA,"","","",NA,NA,NA,NA,NA,NA,"",NA,"",NA,NA,NA,NA,NA,NA,NA,"",NA,"",NA,NA,NA,NA,NA,NA,NA,"","","",NA,"",NA,NA,NA,NA,NA,NA,NA,"",NA,"27"
"",NA,"",NA,"",NA,NA,NA,NA,NA,NA,NA,"","",1,1,"2024-08-25_11h16.55.004","IAT(Formal)","2021.2.3","Win32",60.24096386,"",NA,"e",1,0.5404,0,16,16,13,1,"公正","e","",NA,"",NA,NA,NA,NA,NA,NA,NA,"","","",NA,NA,NA,NA,NA,NA,"",NA,"",NA,NA,NA,NA,NA,NA,NA,"",NA,"",NA,NA,NA,NA,NA,NA,NA,"","","",NA,"",NA,NA,NA,NA,NA,NA,NA,"",NA,"27"
"",NA,"",NA,"",NA,NA,NA,NA,NA,NA,NA,"","",1,1,"2024-08-25_11h16.55.004","IAT(Formal)","2021.2.3","Win32",60.24096386,"",NA,"e",1,0.5103,0,17,17,1,1,"崇高","e","",NA,"",NA,NA,NA,NA,NA,NA,NA,"","","",NA,NA,NA,NA,NA,NA,"",NA,"",NA,NA,NA,NA,NA,NA,NA,"",NA,"",NA,NA,NA,NA,NA,NA,NA,"","","",NA,"",NA,NA,NA,NA,NA,NA,NA,"",NA,"27"
"",NA,"",NA,"",NA,NA,NA,NA,NA,NA,NA,"","",1,1,"2024-08-25_11h16.55.004","IAT(Formal)","2021.2.3","Win32",60.24096386,"",NA,"i",1,0.5354,0,18,18,39,1,"下贱","i","",NA,"",NA,NA,NA,NA,NA,NA,NA,"","","",NA,NA,NA,NA,NA,NA,"",NA,"",NA,NA,NA,NA,NA,NA,NA,"",NA,"",NA,NA,NA,NA,NA,NA,NA,"","","",NA,"",NA,NA,NA,NA,NA,NA,NA,"",NA,"27"
"",NA,"",NA,"",NA,NA,NA,NA,NA,NA,NA,"","",1,1,"2024-08-25_11h16.55.004","IAT(Formal)","2021.2.3","Win32",60.24096386,"",NA,"e",1,0.5426,0,19,19,14,1,"朴实","e","",NA,"",NA,NA,NA,NA,NA,NA,NA,"","","",NA,NA,NA,NA,NA,NA,"",NA,"",NA,NA,NA,NA,NA,NA,NA,"",NA,"",NA,NA,NA,NA,NA,NA,NA,"","","",NA,"",NA,NA,NA,NA,NA,NA,NA,"",NA,"27"
"",NA,"",NA,"",NA,NA,NA,NA,NA,NA,NA,"","",1,1,"2024-08-25_11h16.55.004","IAT(Formal)","2021.2.3","Win32",60.24096386,"",NA,"i",1,0.6435,0,20,20,27,1,"傲慢","i","",NA,"",NA,NA,NA,NA,NA,NA,NA,"","","",NA,NA,NA,NA,NA,NA,"",NA,"",NA,NA,NA,NA,NA,NA,NA,"",NA,"",NA,NA,NA,NA,NA,NA,NA,"","","",NA,"",NA,NA,NA,NA,NA,NA,NA,"",NA,"27"
"",NA,"",NA,"",NA,NA,NA,NA,NA,NA,NA,"","",1,1,"2024-08-25_11h16.55.004","IAT(Formal)","2021.2.3","Win32",60.24096386,"",NA,"e",1,0.6103,0,21,21,5,1,"诚实","e","",NA,"",NA,NA,NA,NA,NA,NA,NA,"","","",NA,NA,NA,NA,NA,NA,"",NA,"",NA,NA,NA,NA,NA,NA,NA,"",NA,"",NA,NA,NA,NA,NA,NA,NA,"","","",NA,"",NA,NA,NA,NA,NA,NA,NA,"",NA,"27"
"",NA,"",NA,"",NA,NA,NA,NA,NA,NA,NA,"","",1,1,"2024-08-25_11h16.55.004","IAT(Formal)","2021.2.3","Win32",60.24096386,"",NA,"i",1,0.6147,0,22,22,20,1,"卑鄙","i","",NA,"",NA,NA,NA,NA,NA,NA,NA,"","","",NA,NA,NA,NA,NA,NA,"",NA,"",NA,NA,NA,NA,NA,NA,NA,"",NA,"",NA,NA,NA,NA,NA,NA,NA,"","","",NA,"",NA,NA,NA,NA,NA,NA,NA,"",NA,"27"
"",NA,"",NA,"",NA,NA,NA,NA,NA,NA,NA,"","",1,1,"2024-08-25_11h16.55.004","IAT(Formal)","2021.2.3","Win32",60.24096386,"",NA,"i",1,0.6404,0,23,23,22,1,"愚蠢","i","",NA,"",NA,NA,NA,NA,NA,NA,NA,"","","",NA,NA,NA,NA,NA,NA,"",NA,"",NA,NA,NA,NA,NA,NA,NA,"",NA,"",NA,NA,NA,NA,NA,NA,NA,"","","",NA,"",NA,NA,NA,NA,NA,NA,NA,"",NA,"27"
"",NA,"",NA,"",NA,NA,NA,NA,NA,NA,NA,"","",1,1,"2024-08-25_11h16.55.004","IAT(Formal)","2021.2.3","Win32",60.24096386,"",NA,"i",1,0.6411,0,24,24,33,1,"自私","i","",NA,"",NA,NA,NA,NA,NA,NA,NA,"","","",NA,NA,NA,NA,NA,NA,"",NA,"",NA,NA,NA,NA,NA,NA,NA,"",NA,"",NA,NA,NA,NA,NA,NA,NA,"","","",NA,"",NA,NA,NA,NA,NA,NA,NA,"",NA,"27"
"",NA,"",NA,"",NA,NA,NA,NA,NA,NA,NA,"","",1,1,"2024-08-25_11h16.55.004","IAT(Formal)","2021.2.3","Win32",60.24096386,"",NA,"i",1,0.6482,0,25,25,25,1,"消极","i","",NA,"",NA,NA,NA,NA,NA,NA,NA,"","","",NA,NA,NA,NA,NA,NA,"",NA,"",NA,NA,NA,NA,NA,NA,NA,"",NA,"",NA,NA,NA,NA,NA,NA,NA,"","","",NA,"",NA,NA,NA,NA,NA,NA,NA,"",NA,"27"
"",NA,"",NA,"",NA,NA,NA,NA,NA,NA,NA,"","",1,1,"2024-08-25_11h16.55.004","IAT(Formal)","2021.2.3","Win32",60.24096386,"",NA,"e",1,0.5738,0,26,26,6,1,"正直","e","",NA,"",NA,NA,NA,NA,NA,NA,NA,"","","",NA,NA,NA,NA,NA,NA,"",NA,"",NA,NA,NA,NA,NA,NA,NA,"",NA,"",NA,NA,NA,NA,NA,NA,NA,"","","",NA,"",NA,NA,NA,NA,NA,NA,NA,"",NA,"27"
"",NA,"",NA,"",NA,NA,NA,NA,NA,NA,NA,"","",1,1,"2024-08-25_11h16.55.004","IAT(Formal)","2021.2.3","Win32",60.24096386,"",NA,"i",1,0.6311,0,27,27,34,1,"暴躁","i","",NA,"",NA,NA,NA,NA,NA,NA,NA,"","","",NA,NA,NA,NA,NA,NA,"",NA,"",NA,NA,NA,NA,NA,NA,NA,"",NA,"",NA,NA,NA,NA,NA,NA,NA,"","","",NA,"",NA,NA,NA,NA,NA,NA,NA,"",NA,"27"
"",NA,"",NA,"",NA,NA,NA,NA,NA,NA,NA,"","",1,1,"2024-08-25_11h16.55.004","IAT(Formal)","2021.2.3","Win32",60.24096386,"",NA,"e",0,1.0759,0,28,28,30,1,"执拗","i","",NA,"",NA,NA,NA,NA,NA,NA,NA,"","","",NA,NA,NA,NA,NA,NA,"",NA,"",NA,NA,NA,NA,NA,NA,NA,"",NA,"",NA,NA,NA,NA,NA,NA,NA,"","","",NA,"",NA,NA,NA,NA,NA,NA,NA,"",NA,"27"
"",NA,"",NA,"",NA,NA,NA,NA,NA,NA,NA,"","",1,1,"2024-08-25_11h16.55.004","IAT(Formal)","2021.2.3","Win32",60.24096386,"",NA,"i",1,0.757,0,29,29,37,1,"固执","i","",NA,"",NA,NA,NA,NA,NA,NA,NA,"","","",NA,NA,NA,NA,NA,NA,"",NA,"",NA,NA,NA,NA,NA,NA,NA,"",NA,"",NA,NA,NA,NA,NA,NA,NA,"","","",NA,"",NA,NA,NA,NA,NA,NA,NA,"",NA,"27"
"",NA,"",NA,"",NA,NA,NA,NA,NA,NA,NA,"","",1,1,"2024-08-25_11h16.55.004","IAT(Formal)","2021.2.3","Win32",60.24096386,"",NA,"e",1,0.5854,0,30,30,7,1,"勇敢","e","",NA,"",NA,NA,NA,NA,NA,NA,NA,"","","",NA,NA,NA,NA,NA,NA,"",NA,"",NA,NA,NA,NA,NA,NA,NA,"",NA,"",NA,NA,NA,NA,NA,NA,NA,"","","",NA,"",NA,NA,NA,NA,NA,NA,NA,"",NA,"27"
"",NA,"",NA,"",NA,NA,NA,NA,NA,NA,NA,"","",1,1,"2024-08-25_11h16.55.004","IAT(Formal)","2021.2.3","Win32",60.24096386,"",NA,"e",1,0.5887,0,31,31,3,1,"杰出","e","",NA,"",NA,NA,NA,NA,NA,NA,NA,"","","",NA,NA,NA,NA,NA,NA,"",NA,"",NA,NA,NA,NA,NA,NA,NA,"",NA,"",NA,NA,NA,NA,NA,NA,NA,"","","",NA,"",NA,NA,NA,NA,NA,NA,NA,"",NA,"27"
"",NA,"",NA,"",NA,NA,NA,NA,NA,NA,NA,"","",1,1,"2024-08-25_11h16.55.004","IAT(Formal)","2021.2.3","Win32",60.24096386,"",NA,"e",1,0.568,0,32,32,17,1,"热情","e","",NA,"",NA,NA,NA,NA,NA,NA,NA,"","","",NA,NA,NA,NA,NA,NA,"",NA,"",NA,NA,NA,NA,NA,NA,NA,"",NA,"",NA,NA,NA,NA,NA,NA,NA,"","","",NA,"",NA,NA,NA,NA,NA,NA,NA,"",NA,"27"
"",NA,"",NA,"",NA,NA,NA,NA,NA,NA,NA,"","",1,1,"2024-08-25_11h16.55.004","IAT(Formal)","2021.2.3","Win32",60.24096386,"",NA,"i",1,0.4936,0,33,33,23,1,"刻薄","i","",NA,"",NA,NA,NA,NA,NA,NA,NA,"","","",NA,NA,NA,NA,NA,NA,"",NA,"",NA,NA,NA,NA,NA,NA,NA,"",NA,"",NA,NA,NA,NA,NA,NA,NA,"","","",NA,"",NA,NA,NA,NA,NA,NA,NA,"",NA,"27"
"",NA,"",NA,"",NA,NA,NA,NA,NA,NA,NA,"","",1,1,"2024-08-25_11h16.55.004","IAT(Formal)","2021.2.3","Win32",60.24096386,"",NA,"e",1,0.6368,0,34,34,16,1,"冷静","e","",NA,"",NA,NA,NA,NA,NA,NA,NA,"","","",NA,NA,NA,NA,NA,NA,"",NA,"",NA,NA,NA,NA,NA,NA,NA,"",NA,"",NA,NA,NA,NA,NA,NA,NA,"","","",NA,"",NA,NA,NA,NA,NA,NA,NA,"",NA,"27"
"",NA,"",NA,"",NA,NA,NA,NA,NA,NA,NA,"","",1,1,"2024-08-25_11h16.55.004","IAT(Formal)","2021.2.3","Win32",60.24096386,"",NA,"i",1,0.8993,0,35,35,38,1,"轻率","i","",NA,"",NA,NA,NA,NA,NA,NA,NA,"","","",NA,NA,NA,NA,NA,NA,"",NA,"",NA,NA,NA,NA,NA,NA,NA,"",NA,"",NA,NA,NA,NA,NA,NA,NA,"","","",NA,"",NA,NA,NA,NA,NA,NA,NA,"",NA,"27"
"",NA,"",NA,"",NA,NA,NA,NA,NA,NA,NA,"","",1,1,"2024-08-25_11h16.55.004","IAT(Formal)","2021.2.3","Win32",60.24096386,"",NA,"i",1,0.6722,0,36,36,29,1,"冒失","i","",NA,"",NA,NA,NA,NA,NA,NA,NA,"","","",NA,NA,NA,NA,NA,NA,"",NA,"",NA,NA,NA,NA,NA,NA,NA,"",NA,"",NA,NA,NA,NA,NA,NA,NA,"","","",NA,"",NA,NA,NA,NA,NA,NA,NA,"",NA,"27"
"",NA,"",NA,"",NA,NA,NA,NA,NA,NA,NA,"","",1,1,"2024-08-25_11h16.55.004","IAT(Formal)","2021.2.3","Win32",60.24096386,"",NA,"i",1,0.7693,0,37,37,28,1,"鲁莽","i","",NA,"",NA,NA,NA,NA,NA,NA,NA,"","","",NA,NA,NA,NA,NA,NA,"",NA,"",NA,NA,NA,NA,NA,NA,NA,"",NA,"",NA,NA,NA,NA,NA,NA,NA,"","","",NA,"",NA,NA,NA,NA,NA,NA,NA,"",NA,"27"
"",NA,"",NA,"",NA,NA,NA,NA,NA,NA,NA,"","",1,1,"2024-08-25_11h16.55.004","IAT(Formal)","2021.2.3","Win32",60.24096386,"",NA,"i",1,0.5871,0,38,38,35,1,"猖狂","i","",NA,"",NA,NA,NA,NA,NA,NA,NA,"","","",NA,NA,NA,NA,NA,NA,"",NA,"",NA,NA,NA,NA,NA,NA,NA,"",NA,"",NA,NA,NA,NA,NA,NA,NA,"","","",NA,"",NA,NA,NA,NA,NA,NA,NA,"",NA,"27"
"",NA,"",NA,"",NA,NA,NA,NA,NA,NA,NA,"","",1,1,"2024-08-25_11h16.55.004","IAT(Formal)","2021.2.3","Win32",60.24096386,"",NA,"e",1,0.591,0,39,39,19,1,"诚恳","e","",NA,"",NA,NA,NA,NA,NA,NA,NA,"","","",NA,NA,NA,NA,NA,NA,"",NA,"",NA,NA,NA,NA,NA,NA,NA,"",NA,"",NA,NA,NA,NA,NA,NA,NA,"","","",NA,"",NA,NA,NA,NA,NA,NA,NA,"",NA,"27"
"",NA,"",NA,"",NA,NA,NA,NA,NA,NA,NA,"","",1,1,"2024-08-25_11h16.55.004","IAT(Formal)","2021.2.3","Win32",60.24096386,"",NA,"",NA,NA,NA,NA,NA,NA,NA,"","","space",11.1233,"e",1,0.7865,0,0,0,62,1,"我们","e","",NA,NA,NA,NA,NA,NA,"",NA,"",NA,NA,NA,NA,NA,NA,NA,"",NA,"",NA,NA,NA,NA,NA,NA,NA,"","","",NA,"",NA,NA,NA,NA,NA,NA,NA,"",NA,"27"
"",NA,"",NA,"",NA,NA,NA,NA,NA,NA,NA,"","",1,1,"2024-08-25_11h16.55.004","IAT(Formal)","2021.2.3","Win32",60.24096386,"",NA,"",NA,NA,NA,NA,NA,NA,NA,"","","",NA,"i",1,0.5834,0,1,1,58,1,"他人","i","",NA,NA,NA,NA,NA,NA,"",NA,"",NA,NA,NA,NA,NA,NA,NA,"",NA,"",NA,NA,NA,NA,NA,NA,NA,"","","",NA,"",NA,NA,NA,NA,NA,NA,NA,"",NA,"27"
"",NA,"",NA,"",NA,NA,NA,NA,NA,NA,NA,"","",1,1,"2024-08-25_11h16.55.004","IAT(Formal)","2021.2.3","Win32",60.24096386,"",NA,"",NA,NA,NA,NA,NA,NA,NA,"","","",NA,"i",1,0.4806,0,2,2,44,1,"暴躁","i","",NA,NA,NA,NA,NA,NA,"",NA,"",NA,NA,NA,NA,NA,NA,NA,"",NA,"",NA,NA,NA,NA,NA,NA,NA,"","","",NA,"",NA,NA,NA,NA,NA,NA,NA,"",NA,"27"
"",NA,"",NA,"",NA,NA,NA,NA,NA,NA,NA,"","",1,1,"2024-08-25_11h16.55.004","IAT(Formal)","2021.2.3","Win32",60.24096386,"",NA,"",NA,NA,NA,NA,NA,NA,NA,"","","",NA,"e",1,0.66,0,3,3,72,1,"我们","e","",NA,NA,NA,NA,NA,NA,"",NA,"",NA,NA,NA,NA,NA,NA,NA,"",NA,"",NA,NA,NA,NA,NA,NA,NA,"","","",NA,"",NA,NA,NA,NA,NA,NA,NA,"",NA,"27"
"",NA,"",NA,"",NA,NA,NA,NA,NA,NA,NA,"","",1,1,"2024-08-25_11h16.55.004","IAT(Formal)","2021.2.3","Win32",60.24096386,"",NA,"",NA,NA,NA,NA,NA,NA,NA,"","","",NA,"e",1,0.4531,0,4,4,2,1,"我们","e","",NA,NA,NA,NA,NA,NA,"",NA,"",NA,NA,NA,NA,NA,NA,NA,"",NA,"",NA,NA,NA,NA,NA,NA,NA,"","","",NA,"",NA,NA,NA,NA,NA,NA,NA,"",NA,"27"
"",NA,"",NA,"",NA,NA,NA,NA,NA,NA,NA,"","",1,1,"2024-08-25_11h16.55.004","IAT(Formal)","2021.2.3","Win32",60.24096386,"",NA,"",NA,NA,NA,NA,NA,NA,NA,"","","",NA,"e",1,0.4716,0,5,5,61,1,"我的","e","",NA,NA,NA,NA,NA,NA,"",NA,"",NA,NA,NA,NA,NA,NA,NA,"",NA,"",NA,NA,NA,NA,NA,NA,NA,"","","",NA,"",NA,NA,NA,NA,NA,NA,NA,"",NA,"27"
"",NA,"",NA,"",NA,NA,NA,NA,NA,NA,NA,"","",1,1,"2024-08-25_11h16.55.004","IAT(Formal)","2021.2.3","Win32",60.24096386,"",NA,"",NA,NA,NA,NA,NA,NA,NA,"","","",NA,"i",1,0.5299,0,6,6,31,1,"虚伪","i","",NA,NA,NA,NA,NA,NA,"",NA,"",NA,NA,NA,NA,NA,NA,NA,"",NA,"",NA,NA,NA,NA,NA,NA,NA,"","","",NA,"",NA,NA,NA,NA,NA,NA,NA,"",NA,"27"
"",NA,"",NA,"",NA,NA,NA,NA,NA,NA,NA,"","",1,1,"2024-08-25_11h16.55.004","IAT(Formal)","2021.2.3","Win32",60.24096386,"",NA,"",NA,NA,NA,NA,NA,NA,NA,"","","",NA,"i",1,0.6799,0,7,7,56,1,"他们","i","",NA,NA,NA,NA,NA,NA,"",NA,"",NA,NA,NA,NA,NA,NA,NA,"",NA,"",NA,NA,NA,NA,NA,NA,NA,"","","",NA,"",NA,NA,NA,NA,NA,NA,NA,"",NA,"27"
"",NA,"",NA,"",NA,NA,NA,NA,NA,NA,NA,"","",1,1,"2024-08-25_11h16.55.004","IAT(Formal)","2021.2.3","Win32",60.24096386,"",NA,"",NA,NA,NA,NA,NA,NA,NA,"","","",NA,"e",1,0.6185,0,8,8,0,1,"我","e","",NA,NA,NA,NA,NA,NA,"",NA,"",NA,NA,NA,NA,NA,NA,NA,"",NA,"",NA,NA,NA,NA,NA,NA,NA,"","","",NA,"",NA,NA,NA,NA,NA,NA,NA,"",NA,"27"
"",NA,"",NA,"",NA,NA,NA,NA,NA,NA,NA,"","",1,1,"2024-08-25_11h16.55.004","IAT(Formal)","2021.2.3","Win32",60.24096386,"",NA,"",NA,NA,NA,NA,NA,NA,NA,"","","",NA,"e",1,0.6406,0,9,9,73,1,"自己","e","",NA,NA,NA,NA,NA,NA,"",NA,"",NA,NA,NA,NA,NA,NA,NA,"",NA,"",NA,NA,NA,NA,NA,NA,NA,"","","",NA,"",NA,NA,NA,NA,NA,NA,NA,"",NA,"27"
"",NA,"",NA,"",NA,NA,NA,NA,NA,NA,NA,"","",1,1,"2024-08-25_11h16.55.004","IAT(Formal)","2021.2.3","Win32",60.24096386,"",NA,"",NA,NA,NA,NA,NA,NA,NA,"","","",NA,"i",1,0.5951,0,10,10,78,1,"他人","i","",NA,NA,NA,NA,NA,NA,"",NA,"",NA,NA,NA,NA,NA,NA,NA,"",NA,"",NA,NA,NA,NA,NA,NA,NA,"","","",NA,"",NA,NA,NA,NA,NA,NA,NA,"",NA,"27"
"",NA,"",NA,"",NA,NA,NA,NA,NA,NA,NA,"","",1,1,"2024-08-25_11h16.55.004","IAT(Formal)","2021.2.3","Win32",60.24096386,"",NA,"",NA,NA,NA,NA,NA,NA,NA,"","","",NA,"i",1,0.5679,0,11,11,46,1,"野蛮","i","",NA,NA,NA,NA,NA,NA,"",NA,"",NA,NA,NA,NA,NA,NA,NA,"",NA,"",NA,NA,NA,NA,NA,NA,NA,"","","",NA,"",NA,NA,NA,NA,NA,NA,NA,"",NA,"27"
"",NA,"",NA,"",NA,NA,NA,NA,NA,NA,NA,"","",1,1,"2024-08-25_11h16.55.004","IAT(Formal)","2021.2.3","Win32",60.24096386,"",NA,"",NA,NA,NA,NA,NA,NA,NA,"","","",NA,"e",1,0.372,0,12,12,71,1,"我的","e","",NA,NA,NA,NA,NA,NA,"",NA,"",NA,NA,NA,NA,NA,NA,NA,"",NA,"",NA,NA,NA,NA,NA,NA,NA,"","","",NA,"",NA,NA,NA,NA,NA,NA,NA,"",NA,"27"
"",NA,"",NA,"",NA,NA,NA,NA,NA,NA,NA,"","",1,1,"2024-08-25_11h16.55.004","IAT(Formal)","2021.2.3","Win32",60.24096386,"",NA,"",NA,NA,NA,NA,NA,NA,NA,"","","",NA,"i",1,0.5852,0,13,13,39,1,"冒失","i","",NA,NA,NA,NA,NA,NA,"",NA,"",NA,NA,NA,NA,NA,NA,NA,"",NA,"",NA,NA,NA,NA,NA,NA,NA,"","","",NA,"",NA,NA,NA,NA,NA,NA,NA,"",NA,"27"
"",NA,"",NA,"",NA,NA,NA,NA,NA,NA,NA,"","",1,1,"2024-08-25_11h16.55.004","IAT(Formal)","2021.2.3","Win32",60.24096386,"",NA,"",NA,NA,NA,NA,NA,NA,NA,"","","",NA,"i",1,0.9368,0,14,14,32,1,"愚蠢","i","",NA,NA,NA,NA,NA,NA,"",NA,"",NA,NA,NA,NA,NA,NA,NA,"",NA,"",NA,NA,NA,NA,NA,NA,NA,"","","",NA,"",NA,NA,NA,NA,NA,NA,NA,"",NA,"27"
"",NA,"",NA,"",NA,NA,NA,NA,NA,NA,NA,"","",1,1,"2024-08-25_11h16.55.004","IAT(Formal)","2021.2.3","Win32",60.24096386,"",NA,"",NA,NA,NA,NA,NA,NA,NA,"","","",NA,"e",1,0.5116,0,15,15,16,1,"正直","e","",NA,NA,NA,NA,NA,NA,"",NA,"",NA,NA,NA,NA,NA,NA,NA,"",NA,"",NA,NA,NA,NA,NA,NA,NA,"","","",NA,"",NA,NA,NA,NA,NA,NA,NA,"",NA,"27"
"",NA,"",NA,"",NA,NA,NA,NA,NA,NA,NA,"","",1,1,"2024-08-25_11h16.55.004","IAT(Formal)","2021.2.3","Win32",60.24096386,"",NA,"",NA,NA,NA,NA,NA,NA,NA,"","","",NA,"e",1,0.5772,0,16,16,54,1,"俺","e","",NA,NA,NA,NA,NA,NA,"",NA,"",NA,NA,NA,NA,NA,NA,NA,"",NA,"",NA,NA,NA,NA,NA,NA,NA,"","","",NA,"",NA,NA,NA,NA,NA,NA,NA,"",NA,"27"
"",NA,"",NA,"",NA,NA,NA,NA,NA,NA,NA,"","",1,1,"2024-08-25_11h16.55.004","IAT(Formal)","2021.2.3","Win32",60.24096386,"",NA,"",NA,NA,NA,NA,NA,NA,NA,"","","",NA,"e",1,0.6846,0,17,17,24,1,"朴实","e","",NA,NA,NA,NA,NA,NA,"",NA,"",NA,NA,NA,NA,NA,NA,NA,"",NA,"",NA,NA,NA,NA,NA,NA,NA,"","","",NA,"",NA,NA,NA,NA,NA,NA,NA,"",NA,"27"
"",NA,"",NA,"",NA,NA,NA,NA,NA,NA,NA,"","",1,1,"2024-08-25_11h16.55.004","IAT(Formal)","2021.2.3","Win32",60.24096386,"",NA,"",NA,NA,NA,NA,NA,NA,NA,"","","",NA,"e",1,0.3961,0,18,18,60,1,"我","e","",NA,NA,NA,NA,NA,NA,"",NA,"",NA,NA,NA,NA,NA,NA,NA,"",NA,"",NA,NA,NA,NA,NA,NA,NA,"","","",NA,"",NA,NA,NA,NA,NA,NA,NA,"",NA,"27"
"",NA,"",NA,"",NA,NA,NA,NA,NA,NA,NA,"","",1,1,"2024-08-25_11h16.55.004","IAT(Formal)","2021.2.3","Win32",60.24096386,"",NA,"",NA,NA,NA,NA,NA,NA,NA,"","","",NA,"e",1,0.5011,0,19,19,28,1,"活泼","e","",NA,NA,NA,NA,NA,NA,"",NA,"",NA,NA,NA,NA,NA,NA,NA,"",NA,"",NA,NA,NA,NA,NA,NA,NA,"","","",NA,"",NA,NA,NA,NA,NA,NA,NA,"",NA,"27"
"",NA,"",NA,"",NA,NA,NA,NA,NA,NA,NA,"","",1,1,"2024-08-25_11h16.55.004","IAT(Formal)","2021.2.3","Win32",60.24096386,"",NA,"",NA,NA,NA,NA,NA,NA,NA,"","","",NA,"e",1,0.5361,0,20,20,25,1,"细腻","e","",NA,NA,NA,NA,NA,NA,"",NA,"",NA,NA,NA,NA,NA,NA,NA,"",NA,"",NA,NA,NA,NA,NA,NA,NA,"","","",NA,"",NA,NA,NA,NA,NA,NA,NA,"",NA,"27"
"",NA,"",NA,"",NA,NA,NA,NA,NA,NA,NA,"","",1,1,"2024-08-25_11h16.55.004","IAT(Formal)","2021.2.3","Win32",60.24096386,"",NA,"",NA,NA,NA,NA,NA,NA,NA,"","","",NA,"e",1,0.3636,0,21,21,52,1,"我们","e","",NA,NA,NA,NA,NA,NA,"",NA,"",NA,NA,NA,NA,NA,NA,NA,"",NA,"",NA,NA,NA,NA,NA,NA,NA,"","","",NA,"",NA,NA,NA,NA,NA,NA,NA,"",NA,"27"
"",NA,"",NA,"",NA,NA,NA,NA,NA,NA,NA,"","",1,1,"2024-08-25_11h16.55.004","IAT(Formal)","2021.2.3","Win32",60.24096386,"",NA,"",NA,NA,NA,NA,NA,NA,NA,"","","",NA,"e",1,0.4948,0,22,22,27,1,"热情","e","",NA,NA,NA,NA,NA,NA,"",NA,"",NA,NA,NA,NA,NA,NA,NA,"",NA,"",NA,NA,NA,NA,NA,NA,NA,"","","",NA,"",NA,NA,NA,NA,NA,NA,NA,"",NA,"27"
"",NA,"",NA,"",NA,NA,NA,NA,NA,NA,NA,"","",1,1,"2024-08-25_11h16.55.004","IAT(Formal)","2021.2.3","Win32",60.24096386,"",NA,"",NA,NA,NA,NA,NA,NA,NA,"","","",NA,"e",1,1.0048,0,23,23,22,1,"无私","e","",NA,NA,NA,NA,NA,NA,"",NA,"",NA,NA,NA,NA,NA,NA,NA,"",NA,"",NA,NA,NA,NA,NA,NA,NA,"","","",NA,"",NA,NA,NA,NA,NA,NA,NA,"",NA,"27"
"",NA,"",NA,"",NA,NA,NA,NA,NA,NA,NA,"","",1,1,"2024-08-25_11h16.55.004","IAT(Formal)","2021.2.3","Win32",60.24096386,"",NA,"",NA,NA,NA,NA,NA,NA,NA,"","","",NA,"i",1,0.7369,0,24,24,69,1,"其他","i","",NA,NA,NA,NA,NA,NA,"",NA,"",NA,NA,NA,NA,NA,NA,NA,"",NA,"",NA,NA,NA,NA,NA,NA,NA,"","","",NA,"",NA,NA,NA,NA,NA,NA,NA,"",NA,"27"
"",NA,"",NA,"",NA,NA,NA,NA,NA,NA,NA,"","",1,1,"2024-08-25_11h16.55.004","IAT(Formal)","2021.2.3","Win32",60.24096386,"",NA,"",NA,NA,NA,NA,NA,NA,NA,"","","",NA,"e",1,0.5869,0,25,25,74,1,"俺","e","",NA,NA,NA,NA,NA,NA,"",NA,"",NA,NA,NA,NA,NA,NA,NA,"",NA,"",NA,NA,NA,NA,NA,NA,NA,"","","",NA,"",NA,NA,NA,NA,NA,NA,NA,"",NA,"27"
"",NA,"",NA,"",NA,NA,NA,NA,NA,NA,NA,"","",1,1,"2024-08-25_11h16.55.004","IAT(Formal)","2021.2.3","Win32",60.24096386,"",NA,"",NA,NA,NA,NA,NA,NA,NA,"","","",NA,"e",1,0.5445,0,26,26,23,1,"公正","e","",NA,NA,NA,NA,NA,NA,"",NA,"",NA,NA,NA,NA,NA,NA,NA,"",NA,"",NA,NA,NA,NA,NA,NA,NA,"","","",NA,"",NA,NA,NA,NA,NA,NA,NA,"",NA,"27"
"",NA,"",NA,"",NA,NA,NA,NA,NA,NA,NA,"","",1,1,"2024-08-25_11h16.55.004","IAT(Formal)","2021.2.3","Win32",60.24096386,"",NA,"",NA,NA,NA,NA,NA,NA,NA,"","","",NA,"i",1,0.6388,0,27,27,42,1,"凶狠","i","",NA,NA,NA,NA,NA,NA,"",NA,"",NA,NA,NA,NA,NA,NA,NA,"",NA,"",NA,NA,NA,NA,NA,NA,NA,"","","",NA,"",NA,NA,NA,NA,NA,NA,NA,"",NA,"27"
"",NA,"",NA,"",NA,NA,NA,NA,NA,NA,NA,"","",1,1,"2024-08-25_11h16.55.004","IAT(Formal)","2021.2.3","Win32",60.24096386,"",NA,"",NA,NA,NA,NA,NA,NA,NA,"","","",NA,"e",1,0.4867,0,28,28,19,1,"机智","e","",NA,NA,NA,NA,NA,NA,"",NA,"",NA,NA,NA,NA,NA,NA,NA,"",NA,"",NA,NA,NA,NA,NA,NA,NA,"","","",NA,"",NA,NA,NA,NA,NA,NA,NA,"",NA,"27"
"",NA,"",NA,"",NA,NA,NA,NA,NA,NA,NA,"","",1,1,"2024-08-25_11h16.55.004","IAT(Formal)","2021.2.3","Win32",60.24096386,"",NA,"",NA,NA,NA,NA,NA,NA,NA,"","","",NA,"e",1,0.51,0,29,29,18,1,"勤奋","e","",NA,NA,NA,NA,NA,NA,"",NA,"",NA,NA,NA,NA,NA,NA,NA,"",NA,"",NA,NA,NA,NA,NA,NA,NA,"","","",NA,"",NA,NA,NA,NA,NA,NA,NA,"",NA,"27"
"",NA,"",NA,"",NA,NA,NA,NA,NA,NA,NA,"","",1,1,"2024-08-25_11h16.55.004","IAT(Formal)","2021.2.3","Win32",60.24096386,"",NA,"",NA,NA,NA,NA,NA,NA,NA,"","","",NA,"e",1,0.4622,0,30,30,26,1,"冷静","e","",NA,NA,NA,NA,NA,NA,"",NA,"",NA,NA,NA,NA,NA,NA,NA,"",NA,"",NA,NA,NA,NA,NA,NA,NA,"","","",NA,"",NA,NA,NA,NA,NA,NA,NA,"",NA,"27"
"",NA,"",NA,"",NA,NA,NA,NA,NA,NA,NA,"","",1,1,"2024-08-25_11h16.55.004","IAT(Formal)","2021.2.3","Win32",60.24096386,"",NA,"",NA,NA,NA,NA,NA,NA,NA,"","","",NA,"i",1,0.6644,0,31,31,48,1,"轻率","i","",NA,NA,NA,NA,NA,NA,"",NA,"",NA,NA,NA,NA,NA,NA,NA,"",NA,"",NA,NA,NA,NA,NA,NA,NA,"","","",NA,"",NA,NA,NA,NA,NA,NA,NA,"",NA,"27"
"",NA,"",NA,"",NA,NA,NA,NA,NA,NA,NA,"","",1,1,"2024-08-25_11h16.55.004","IAT(Formal)","2021.2.3","Win32",60.24096386,"",NA,"",NA,NA,NA,NA,NA,NA,NA,"","","",NA,"e",1,0.495,0,32,32,12,1,"聪明","e","",NA,NA,NA,NA,NA,NA,"",NA,"",NA,NA,NA,NA,NA,NA,NA,"",NA,"",NA,NA,NA,NA,NA,NA,NA,"","","",NA,"",NA,NA,NA,NA,NA,NA,NA,"",NA,"27"
"",NA,"",NA,"",NA,NA,NA,NA,NA,NA,NA,"","",1,1,"2024-08-25_11h16.55.004","IAT(Formal)","2021.2.3","Win32",60.24096386,"",NA,"",NA,NA,NA,NA,NA,NA,NA,"","","",NA,"e",1,0.5744,0,33,33,1,1,"我的","e","",NA,NA,NA,NA,NA,NA,"",NA,"",NA,NA,NA,NA,NA,NA,NA,"",NA,"",NA,NA,NA,NA,NA,NA,NA,"","","",NA,"",NA,NA,NA,NA,NA,NA,NA,"",NA,"27"
"",NA,"",NA,"",NA,NA,NA,NA,NA,NA,NA,"","",1,1,"2024-08-25_11h16.55.004","IAT(Formal)","2021.2.3","Win32",60.24096386,"",NA,"",NA,NA,NA,NA,NA,NA,NA,"","","",NA,"e",1,0.5005,0,34,34,15,1,"诚实","e","",NA,NA,NA,NA,NA,NA,"",NA,"",NA,NA,NA,NA,NA,NA,NA,"",NA,"",NA,NA,NA,NA,NA,NA,NA,"","","",NA,"",NA,NA,NA,NA,NA,NA,NA,"",NA,"27"
"",NA,"",NA,"",NA,NA,NA,NA,NA,NA,NA,"","",1,1,"2024-08-25_11h16.55.004","IAT(Formal)","2021.2.3","Win32",60.24096386,"",NA,"",NA,NA,NA,NA,NA,NA,NA,"","","",NA,"i",1,0.5412,0,35,35,37,1,"傲慢","i","",NA,NA,NA,NA,NA,NA,"",NA,"",NA,NA,NA,NA,NA,NA,NA,"",NA,"",NA,NA,NA,NA,NA,NA,NA,"","","",NA,"",NA,NA,NA,NA,NA,NA,NA,"",NA,"27"
"",NA,"",NA,"",NA,NA,NA,NA,NA,NA,NA,"","",1,1,"2024-08-25_11h16.55.004","IAT(Formal)","2021.2.3","Win32",60.24096386,"",NA,"",NA,NA,NA,NA,NA,NA,NA,"","","",NA,"e",1,0.5013,0,36,36,11,1,"崇高","e","",NA,NA,NA,NA,NA,NA,"",NA,"",NA,NA,NA,NA,NA,NA,NA,"",NA,"",NA,NA,NA,NA,NA,NA,NA,"","","",NA,"",NA,NA,NA,NA,NA,NA,NA,"",NA,"27"
"",NA,"",NA,"",NA,NA,NA,NA,NA,NA,NA,"","",1,1,"2024-08-25_11h16.55.004","IAT(Formal)","2021.2.3","Win32",60.24096386,"",NA,"",NA,NA,NA,NA,NA,NA,NA,"","","",NA,"e",1,0.4621,0,37,37,3,1,"自己","e","",NA,NA,NA,NA,NA,NA,"",NA,"",NA,NA,NA,NA,NA,NA,NA,"",NA,"",NA,NA,NA,NA,NA,NA,NA,"","","",NA,"",NA,NA,NA,NA,NA,NA,NA,"",NA,"27"
"",NA,"",NA,"",NA,NA,NA,NA,NA,NA,NA,"","",1,1,"2024-08-25_11h16.55.004","IAT(Formal)","2021.2.3","Win32",60.24096386,"",NA,"",NA,NA,NA,NA,NA,NA,NA,"","","",NA,"i",1,0.4736,0,38,38,68,1,"他人","i","",NA,NA,NA,NA,NA,NA,"",NA,"",NA,NA,NA,NA,NA,NA,NA,"",NA,"",NA,NA,NA,NA,NA,NA,NA,"","","",NA,"",NA,NA,NA,NA,NA,NA,NA,"",NA,"27"
"",NA,"",NA,"",NA,NA,NA,NA,NA,NA,NA,"","",1,1,"2024-08-25_11h16.55.004","IAT(Formal)","2021.2.3","Win32",60.24096386,"",NA,"",NA,NA,NA,NA,NA,NA,NA,"","","",NA,"i",1,0.6095,0,39,39,77,1,"他的","i","",NA,NA,NA,NA,NA,NA,"",NA,"",NA,NA,NA,NA,NA,NA,NA,"",NA,"",NA,NA,NA,NA,NA,NA,NA,"","","",NA,"",NA,NA,NA,NA,NA,NA,NA,"",NA,"27"
"",NA,"",NA,"",NA,NA,NA,NA,NA,NA,NA,"","",1,1,"2024-08-25_11h16.55.004","IAT(Formal)","2021.2.3","Win32",60.24096386,"",NA,"",NA,NA,NA,NA,NA,NA,NA,"","","",NA,"i",1,0.3859,0,40,40,76,1,"他们","i","",NA,NA,NA,NA,NA,NA,"",NA,"",NA,NA,NA,NA,NA,NA,NA,"",NA,"",NA,NA,NA,NA,NA,NA,NA,"","","",NA,"",NA,NA,NA,NA,NA,NA,NA,"",NA,"27"
"",NA,"",NA,"",NA,NA,NA,NA,NA,NA,NA,"","",1,1,"2024-08-25_11h16.55.004","IAT(Formal)","2021.2.3","Win32",60.24096386,"",NA,"",NA,NA,NA,NA,NA,NA,NA,"","","",NA,"e",1,0.6174,0,41,41,17,1,"勇敢","e","",NA,NA,NA,NA,NA,NA,"",NA,"",NA,NA,NA,NA,NA,NA,NA,"",NA,"",NA,NA,NA,NA,NA,NA,NA,"","","",NA,"",NA,NA,NA,NA,NA,NA,NA,"",NA,"27"
"",NA,"",NA,"",NA,NA,NA,NA,NA,NA,NA,"","",1,1,"2024-08-25_11h16.55.004","IAT(Formal)","2021.2.3","Win32",60.24096386,"",NA,"",NA,NA,NA,NA,NA,NA,NA,"","","",NA,"e",1,0.4303,0,42,42,10,1,"优秀","e","",NA,NA,NA,NA,NA,NA,"",NA,"",NA,NA,NA,NA,NA,NA,NA,"",NA,"",NA,NA,NA,NA,NA,NA,NA,"","","",NA,"",NA,NA,NA,NA,NA,NA,NA,"",NA,"27"
"",NA,"",NA,"",NA,NA,NA,NA,NA,NA,NA,"","",1,1,"2024-08-25_11h16.55.004","IAT(Formal)","2021.2.3","Win32",60.24096386,"",NA,"",NA,NA,NA,NA,NA,NA,NA,"","","",NA,"i",1,0.5176,0,43,43,79,1,"其他","i","",NA,NA,NA,NA,NA,NA,"",NA,"",NA,NA,NA,NA,NA,NA,NA,"",NA,"",NA,NA,NA,NA,NA,NA,NA,"","","",NA,"",NA,NA,NA,NA,NA,NA,NA,"",NA,"27"
"",NA,"",NA,"",NA,NA,NA,NA,NA,NA,NA,"","",1,1,"2024-08-25_11h16.55.004","IAT(Formal)","2021.2.3","Win32",60.24096386,"",NA,"",NA,NA,NA,NA,NA,NA,NA,"","","",NA,"e",1,0.6058,0,44,44,64,1,"俺","e","",NA,NA,NA,NA,NA,NA,"",NA,"",NA,NA,NA,NA,NA,NA,NA,"",NA,"",NA,NA,NA,NA,NA,NA,NA,"","","",NA,"",NA,NA,NA,NA,NA,NA,NA,"",NA,"27"
"",NA,"",NA,"",NA,NA,NA,NA,NA,NA,NA,"","",1,1,"2024-08-25_11h16.55.004","IAT(Formal)","2021.2.3","Win32",60.24096386,"",NA,"",NA,NA,NA,NA,NA,NA,NA,"","","",NA,"i",1,0.5669,0,45,45,7,1,"他的","i","",NA,NA,NA,NA,NA,NA,"",NA,"",NA,NA,NA,NA,NA,NA,NA,"",NA,"",NA,NA,NA,NA,NA,NA,NA,"","","",NA,"",NA,NA,NA,NA,NA,NA,NA,"",NA,"27"
"",NA,"",NA,"",NA,NA,NA,NA,NA,NA,NA,"","",1,1,"2024-08-25_11h16.55.004","IAT(Formal)","2021.2.3","Win32",60.24096386,"",NA,"",NA,NA,NA,NA,NA,NA,NA,"","","",NA,"i",1,0.4205,0,46,46,67,1,"他的","i","",NA,NA,NA,NA,NA,NA,"",NA,"",NA,NA,NA,NA,NA,NA,NA,"",NA,"",NA,NA,NA,NA,NA,NA,NA,"","","",NA,"",NA,NA,NA,NA,NA,NA,NA,"",NA,"27"
"",NA,"",NA,"",NA,NA,NA,NA,NA,NA,NA,"","",1,1,"2024-08-25_11h16.55.004","IAT(Formal)","2021.2.3","Win32",60.24096386,"",NA,"",NA,NA,NA,NA,NA,NA,NA,"","","",NA,"e",1,0.5217,0,47,47,14,1,"乐观","e","",NA,NA,NA,NA,NA,NA,"",NA,"",NA,NA,NA,NA,NA,NA,NA,"",NA,"",NA,NA,NA,NA,NA,NA,NA,"","","",NA,"",NA,NA,NA,NA,NA,NA,NA,"",NA,"27"
"",NA,"",NA,"",NA,NA,NA,NA,NA,NA,NA,"","",1,1,"2024-08-25_11h16.55.004","IAT(Formal)","2021.2.3","Win32",60.24096386,"",NA,"",NA,NA,NA,NA,NA,NA,NA,"","","",NA,"e",1,0.5833,0,48,48,50,1,"我","e","",NA,NA,NA,NA,NA,NA,"",NA,"",NA,NA,NA,NA,NA,NA,NA,"",NA,"",NA,NA,NA,NA,NA,NA,NA,"","","",NA,"",NA,NA,NA,NA,NA,NA,NA,"",NA,"27"
"",NA,"",NA,"",NA,NA,NA,NA,NA,NA,NA,"","",1,1,"2024-08-25_11h16.55.004","IAT(Formal)","2021.2.3","Win32",60.24096386,"",NA,"",NA,NA,NA,NA,NA,NA,NA,"","","",NA,"i",1,0.5716,0,49,49,45,1,"猖狂","i","",NA,NA,NA,NA,NA,NA,"",NA,"",NA,NA,NA,NA,NA,NA,NA,"",NA,"",NA,NA,NA,NA,NA,NA,NA,"","","",NA,"",NA,NA,NA,NA,NA,NA,NA,"",NA,"27"
"",NA,"",NA,"",NA,NA,NA,NA,NA,NA,NA,"","",1,1,"2024-08-25_11h16.55.004","IAT(Formal)","2021.2.3","Win32",60.24096386,"",NA,"",NA,NA,NA,NA,NA,NA,NA,"","","",NA,"e",1,0.535,0,50,50,63,1,"自己","e","",NA,NA,NA,NA,NA,NA,"",NA,"",NA,NA,NA,NA,NA,NA,NA,"",NA,"",NA,NA,NA,NA,NA,NA,NA,"","","",NA,"",NA,NA,NA,NA,NA,NA,NA,"",NA,"27"
"",NA,"",NA,"",NA,NA,NA,NA,NA,NA,NA,"","",1,1,"2024-08-25_11h16.55.004","IAT(Formal)","2021.2.3","Win32",60.24096386,"",NA,"",NA,NA,NA,NA,NA,NA,NA,"","","",NA,"e",1,0.4219,0,51,51,53,1,"自己","e","",NA,NA,NA,NA,NA,NA,"",NA,"",NA,NA,NA,NA,NA,NA,NA,"",NA,"",NA,NA,NA,NA,NA,NA,NA,"","","",NA,"",NA,NA,NA,NA,NA,NA,NA,"",NA,"27"
"",NA,"",NA,"",NA,NA,NA,NA,NA,NA,NA,"","",1,1,"2024-08-25_11h16.55.004","IAT(Formal)","2021.2.3","Win32",60.24096386,"",NA,"",NA,NA,NA,NA,NA,NA,NA,"","","",NA,"i",1,0.4839,0,52,52,33,1,"刻薄","i","",NA,NA,NA,NA,NA,NA,"",NA,"",NA,NA,NA,NA,NA,NA,NA,"",NA,"",NA,NA,NA,NA,NA,NA,NA,"","","",NA,"",NA,NA,NA,NA,NA,NA,NA,"",NA,"27"
"",NA,"",NA,"",NA,NA,NA,NA,NA,NA,NA,"","",1,1,"2024-08-25_11h16.55.004","IAT(Formal)","2021.2.3","Win32",60.24096386,"",NA,"",NA,NA,NA,NA,NA,NA,NA,"","","",NA,"e",0,0.4905,0,53,53,43,1,"自私","i","",NA,NA,NA,NA,NA,NA,"",NA,"",NA,NA,NA,NA,NA,NA,NA,"",NA,"",NA,NA,NA,NA,NA,NA,NA,"","","",NA,"",NA,NA,NA,NA,NA,NA,NA,"",NA,"27"
"",NA,"",NA,"",NA,NA,NA,NA,NA,NA,NA,"","",1,1,"2024-08-25_11h16.55.004","IAT(Formal)","2021.2.3","Win32",60.24096386,"",NA,"",NA,NA,NA,NA,NA,NA,NA,"","","",NA,"e",1,0.5444,0,54,54,4,1,"俺","e","",NA,NA,NA,NA,NA,NA,"",NA,"",NA,NA,NA,NA,NA,NA,NA,"",NA,"",NA,NA,NA,NA,NA,NA,NA,"","","",NA,"",NA,NA,NA,NA,NA,NA,NA,"",NA,"27"
"",NA,"",NA,"",NA,NA,NA,NA,NA,NA,NA,"","",1,1,"2024-08-25_11h16.55.004","IAT(Formal)","2021.2.3","Win32",60.24096386,"",NA,"",NA,NA,NA,NA,NA,NA,NA,"","","",NA,"i",1,0.5733,0,55,55,66,1,"他们","i","",NA,NA,NA,NA,NA,NA,"",NA,"",NA,NA,NA,NA,NA,NA,NA,"",NA,"",NA,NA,NA,NA,NA,NA,NA,"","","",NA,"",NA,NA,NA,NA,NA,NA,NA,"",NA,"27"
"",NA,"",NA,"",NA,NA,NA,NA,NA,NA,NA,"","",1,1,"2024-08-25_11h16.55.004","IAT(Formal)","2021.2.3","Win32",60.24096386,"",NA,"",NA,NA,NA,NA,NA,NA,NA,"","","",NA,"e",1,0.6675,0,56,56,21,1,"稳重","e","",NA,NA,NA,NA,NA,NA,"",NA,"",NA,NA,NA,NA,NA,NA,NA,"",NA,"",NA,NA,NA,NA,NA,NA,NA,"","","",NA,"",NA,NA,NA,NA,NA,NA,NA,"",NA,"27"
"",NA,"",NA,"",NA,NA,NA,NA,NA,NA,NA,"","",1,1,"2024-08-25_11h16.55.004","IAT(Formal)","2021.2.3","Win32",60.24096386,"",NA,"",NA,NA,NA,NA,NA,NA,NA,"","","",NA,"i",1,0.5194,0,57,57,75,1,"他","i","",NA,NA,NA,NA,NA,NA,"",NA,"",NA,NA,NA,NA,NA,NA,NA,"",NA,"",NA,NA,NA,NA,NA,NA,NA,"","","",NA,"",NA,NA,NA,NA,NA,NA,NA,"",NA,"27"
"",NA,"",NA,"",NA,NA,NA,NA,NA,NA,NA,"","",1,1,"2024-08-25_11h16.55.004","IAT(Formal)","2021.2.3","Win32",60.24096386,"",NA,"",NA,NA,NA,NA,NA,NA,NA,"","","",NA,"i",1,0.6182,0,58,58,36,1,"自卑","i","",NA,NA,NA,NA,NA,NA,"",NA,"",NA,NA,NA,NA,NA,NA,NA,"",NA,"",NA,NA,NA,NA,NA,NA,NA,"","","",NA,"",NA,NA,NA,NA,NA,NA,NA,"",NA,"27"
"",NA,"",NA,"",NA,NA,NA,NA,NA,NA,NA,"","",1,1,"2024-08-25_11h16.55.004","IAT(Formal)","2021.2.3","Win32",60.24096386,"",NA,"",NA,NA,NA,NA,NA,NA,NA,"","","",NA,"i",1,0.7015,0,59,59,57,1,"他的","i","",NA,NA,NA,NA,NA,NA,"",NA,"",NA,NA,NA,NA,NA,NA,NA,"",NA,"",NA,NA,NA,NA,NA,NA,NA,"","","",NA,"",NA,NA,NA,NA,NA,NA,NA,"",NA,"27"
"",NA,"",NA,"",NA,NA,NA,NA,NA,NA,NA,"","",1,1,"2024-08-25_11h16.55.004","IAT(Formal)","2021.2.3","Win32",60.24096386,"",NA,"",NA,NA,NA,NA,NA,NA,NA,"","","",NA,"e",1,0.5777,0,60,60,29,1,"诚恳","e","",NA,NA,NA,NA,NA,NA,"",NA,"",NA,NA,NA,NA,NA,NA,NA,"",NA,"",NA,NA,NA,NA,NA,NA,NA,"","","",NA,"",NA,NA,NA,NA,NA,NA,NA,"",NA,"27"
"",NA,"",NA,"",NA,NA,NA,NA,NA,NA,NA,"","",1,1,"2024-08-25_11h16.55.004","IAT(Formal)","2021.2.3","Win32",60.24096386,"",NA,"",NA,NA,NA,NA,NA,NA,NA,"","","",NA,"i",1,0.5011,0,61,61,5,1,"他","i","",NA,NA,NA,NA,NA,NA,"",NA,"",NA,NA,NA,NA,NA,NA,NA,"",NA,"",NA,NA,NA,NA,NA,NA,NA,"","","",NA,"",NA,NA,NA,NA,NA,NA,NA,"",NA,"27"
"",NA,"",NA,"",NA,NA,NA,NA,NA,NA,NA,"","",1,1,"2024-08-25_11h16.55.004","IAT(Formal)","2021.2.3","Win32",60.24096386,"",NA,"",NA,NA,NA,NA,NA,NA,NA,"","","",NA,"i",1,0.4844,0,62,62,65,1,"他","i","",NA,NA,NA,NA,NA,NA,"",NA,"",NA,NA,NA,NA,NA,NA,NA,"",NA,"",NA,NA,NA,NA,NA,NA,NA,"","","",NA,"",NA,NA,NA,NA,NA,NA,NA,"",NA,"27"
"",NA,"",NA,"",NA,NA,NA,NA,NA,NA,NA,"","",1,1,"2024-08-25_11h16.55.004","IAT(Formal)","2021.2.3","Win32",60.24096386,"",NA,"",NA,NA,NA,NA,NA,NA,NA,"","","",NA,"i",1,0.6219,0,63,63,47,1,"固执","i","",NA,NA,NA,NA,NA,NA,"",NA,"",NA,NA,NA,NA,NA,NA,NA,"",NA,"",NA,NA,NA,NA,NA,NA,NA,"","","",NA,"",NA,NA,NA,NA,NA,NA,NA,"",NA,"27"
"",NA,"",NA,"",NA,NA,NA,NA,NA,NA,NA,"","",1,1,"2024-08-25_11h16.55.004","IAT(Formal)","2021.2.3","Win32",60.24096386,"",NA,"",NA,NA,NA,NA,NA,NA,NA,"","","",NA,"e",1,0.5918,0,64,64,51,1,"我的","e","",NA,NA,NA,NA,NA,NA,"",NA,"",NA,NA,NA,NA,NA,NA,NA,"",NA,"",NA,NA,NA,NA,NA,NA,NA,"","","",NA,"",NA,NA,NA,NA,NA,NA,NA,"",NA,"27"
"",NA,"",NA,"",NA,NA,NA,NA,NA,NA,NA,"","",1,1,"2024-08-25_11h16.55.004","IAT(Formal)","2021.2.3","Win32",60.24096386,"",NA,"",NA,NA,NA,NA,NA,NA,NA,"","","",NA,"i",1,0.6348,0,65,65,35,1,"消极","i","",NA,NA,NA,NA,NA,NA,"",NA,"",NA,NA,NA,NA,NA,NA,NA,"",NA,"",NA,NA,NA,NA,NA,NA,NA,"","","",NA,"",NA,NA,NA,NA,NA,NA,NA,"",NA,"27"
"",NA,"",NA,"",NA,NA,NA,NA,NA,NA,NA,"","",1,1,"2024-08-25_11h16.55.004","IAT(Formal)","2021.2.3","Win32",60.24096386,"",NA,"",NA,NA,NA,NA,NA,NA,NA,"","","",NA,"i",1,0.4958,0,66,66,30,1,"卑鄙","i","",NA,NA,NA,NA,NA,NA,"",NA,"",NA,NA,NA,NA,NA,NA,NA,"",NA,"",NA,NA,NA,NA,NA,NA,NA,"","","",NA,"",NA,NA,NA,NA,NA,NA,NA,"",NA,"27"
"",NA,"",NA,"",NA,NA,NA,NA,NA,NA,NA,"","",1,1,"2024-08-25_11h16.55.004","IAT(Formal)","2021.2.3","Win32",60.24096386,"",NA,"",NA,NA,NA,NA,NA,NA,NA,"","","",NA,"i",1,0.5038,0,67,67,8,1,"他人","i","",NA,NA,NA,NA,NA,NA,"",NA,"",NA,NA,NA,NA,NA,NA,NA,"",NA,"",NA,NA,NA,NA,NA,NA,NA,"","","",NA,"",NA,NA,NA,NA,NA,NA,NA,"",NA,"27"
"",NA,"",NA,"",NA,NA,NA,NA,NA,NA,NA,"","",1,1,"2024-08-25_11h16.55.004","IAT(Formal)","2021.2.3","Win32",60.24096386,"",NA,"",NA,NA,NA,NA,NA,NA,NA,"","","",NA,"i",1,0.4247,0,68,68,6,1,"他们","i","",NA,NA,NA,NA,NA,NA,"",NA,"",NA,NA,NA,NA,NA,NA,NA,"",NA,"",NA,NA,NA,NA,NA,NA,NA,"","","",NA,"",NA,NA,NA,NA,NA,NA,NA,"",NA,"27"
"",NA,"",NA,"",NA,NA,NA,NA,NA,NA,NA,"","",1,1,"2024-08-25_11h16.55.004","IAT(Formal)","2021.2.3","Win32",60.24096386,"",NA,"",NA,NA,NA,NA,NA,NA,NA,"","","",NA,"i",1,0.5512,0,69,69,49,1,"下贱","i","",NA,NA,NA,NA,NA,NA,"",NA,"",NA,NA,NA,NA,NA,NA,NA,"",NA,"",NA,NA,NA,NA,NA,NA,NA,"","","",NA,"",NA,NA,NA,NA,NA,NA,NA,"",NA,"27"
"",NA,"",NA,"",NA,NA,NA,NA,NA,NA,NA,"","",1,1,"2024-08-25_11h16.55.004","IAT(Formal)","2021.2.3","Win32",60.24096386,"",NA,"",NA,NA,NA,NA,NA,NA,NA,"","","",NA,"i",1,0.5524,0,70,70,38,1,"鲁莽","i","",NA,NA,NA,NA,NA,NA,"",NA,"",NA,NA,NA,NA,NA,NA,NA,"",NA,"",NA,NA,NA,NA,NA,NA,NA,"","","",NA,"",NA,NA,NA,NA,NA,NA,NA,"",NA,"27"
"",NA,"",NA,"",NA,NA,NA,NA,NA,NA,NA,"","",1,1,"2024-08-25_11h16.55.004","IAT(Formal)","2021.2.3","Win32",60.24096386,"",NA,"",NA,NA,NA,NA,NA,NA,NA,"","","",NA,"e",1,0.601,0,71,71,20,1,"认真","e","",NA,NA,NA,NA,NA,NA,"",NA,"",NA,NA,NA,NA,NA,NA,NA,"",NA,"",NA,NA,NA,NA,NA,NA,NA,"","","",NA,"",NA,NA,NA,NA,NA,NA,NA,"",NA,"27"
"",NA,"",NA,"",NA,NA,NA,NA,NA,NA,NA,"","",1,1,"2024-08-25_11h16.55.004","IAT(Formal)","2021.2.3","Win32",60.24096386,"",NA,"",NA,NA,NA,NA,NA,NA,NA,"","","",NA,"i",1,0.6564,0,72,72,9,1,"其他","i","",NA,NA,NA,NA,NA,NA,"",NA,"",NA,NA,NA,NA,NA,NA,NA,"",NA,"",NA,NA,NA,NA,NA,NA,NA,"","","",NA,"",NA,NA,NA,NA,NA,NA,NA,"",NA,"27"
"",NA,"",NA,"",NA,NA,NA,NA,NA,NA,NA,"","",1,1,"2024-08-25_11h16.55.004","IAT(Formal)","2021.2.3","Win32",60.24096386,"",NA,"",NA,NA,NA,NA,NA,NA,NA,"","","",NA,"i",1,0.6342,0,73,73,41,1,"散漫","i","",NA,NA,NA,NA,NA,NA,"",NA,"",NA,NA,NA,NA,NA,NA,NA,"",NA,"",NA,NA,NA,NA,NA,NA,NA,"","","",NA,"",NA,NA,NA,NA,NA,NA,NA,"",NA,"27"
"",NA,"",NA,"",NA,NA,NA,NA,NA,NA,NA,"","",1,1,"2024-08-25_11h16.55.004","IAT(Formal)","2021.2.3","Win32",60.24096386,"",NA,"",NA,NA,NA,NA,NA,NA,NA,"","","",NA,"i",1,0.5923,0,74,74,40,1,"执拗","i","",NA,NA,NA,NA,NA,NA,"",NA,"",NA,NA,NA,NA,NA,NA,NA,"",NA,"",NA,NA,NA,NA,NA,NA,NA,"","","",NA,"",NA,NA,NA,NA,NA,NA,NA,"",NA,"27"
"",NA,"",NA,"",NA,NA,NA,NA,NA,NA,NA,"","",1,1,"2024-08-25_11h16.55.004","IAT(Formal)","2021.2.3","Win32",60.24096386,"",NA,"",NA,NA,NA,NA,NA,NA,NA,"","","",NA,"e",1,0.5213,0,75,75,70,1,"我","e","",NA,NA,NA,NA,NA,NA,"",NA,"",NA,NA,NA,NA,NA,NA,NA,"",NA,"",NA,NA,NA,NA,NA,NA,NA,"","","",NA,"",NA,NA,NA,NA,NA,NA,NA,"",NA,"27"
"",NA,"",NA,"",NA,NA,NA,NA,NA,NA,NA,"","",1,1,"2024-08-25_11h16.55.004","IAT(Formal)","2021.2.3","Win32",60.24096386,"",NA,"",NA,NA,NA,NA,NA,NA,NA,"","","",NA,"e",1,0.6681,0,76,76,13,1,"杰出","e","",NA,NA,NA,NA,NA,NA,"",NA,"",NA,NA,NA,NA,NA,NA,NA,"",NA,"",NA,NA,NA,NA,NA,NA,NA,"","","",NA,"",NA,NA,NA,NA,NA,NA,NA,"",NA,"27"
"",NA,"",NA,"",NA,NA,NA,NA,NA,NA,NA,"","",1,1,"2024-08-25_11h16.55.004","IAT(Formal)","2021.2.3","Win32",60.24096386,"",NA,"",NA,NA,NA,NA,NA,NA,NA,"","","",NA,"i",1,0.4456,0,77,77,59,1,"其他","i","",NA,NA,NA,NA,NA,NA,"",NA,"",NA,NA,NA,NA,NA,NA,NA,"",NA,"",NA,NA,NA,NA,NA,NA,NA,"","","",NA,"",NA,NA,NA,NA,NA,NA,NA,"",NA,"27"
"",NA,"",NA,"",NA,NA,NA,NA,NA,NA,NA,"","",1,1,"2024-08-25_11h16.55.004","IAT(Formal)","2021.2.3","Win32",60.24096386,"",NA,"",NA,NA,NA,NA,NA,NA,NA,"","","",NA,"i",1,0.5289,0,78,78,55,1,"他","i","",NA,NA,NA,NA,NA,NA,"",NA,"",NA,NA,NA,NA,NA,NA,NA,"",NA,"",NA,NA,NA,NA,NA,NA,NA,"","","",NA,"",NA,NA,NA,NA,NA,NA,NA,"",NA,"27"
"",NA,"",NA,"",NA,NA,NA,NA,NA,NA,NA,"","",1,1,"2024-08-25_11h16.55.004","IAT(Formal)","2021.2.3","Win32",60.24096386,"",NA,"",NA,NA,NA,NA,NA,NA,NA,"","","",NA,"i",1,0.6297,0,79,79,34,1,"悲观","i","",NA,NA,NA,NA,NA,NA,"",NA,"",NA,NA,NA,NA,NA,NA,NA,"",NA,"",NA,NA,NA,NA,NA,NA,NA,"","","",NA,"",NA,NA,NA,NA,NA,NA,NA,"",NA,"27"
"",NA,"",NA,"",NA,NA,NA,NA,NA,NA,NA,"","",1,1,"2024-08-25_11h16.55.004","IAT(Formal)","2021.2.3","Win32",60.24096386,"",NA,"",NA,NA,NA,NA,NA,NA,NA,"","","",NA,"e",1,0.7423,NA,NA,NA,NA,NA,"我的","e","space",17.1519,0,0,0,1,1,"",NA,"",NA,NA,NA,NA,NA,NA,NA,"",NA,"",NA,NA,NA,NA,NA,NA,NA,"","","",NA,"",NA,NA,NA,NA,NA,NA,NA,"",NA,"27"
"",NA,"",NA,"",NA,NA,NA,NA,NA,NA,NA,"","",1,1,"2024-08-25_11h16.55.004","IAT(Formal)","2021.2.3","Win32",60.24096386,"",NA,"",NA,NA,NA,NA,NA,NA,NA,"","","",NA,"e",1,0.5308,NA,NA,NA,NA,NA,"勇敢","e","",NA,0,1,1,17,1,"",NA,"",NA,NA,NA,NA,NA,NA,NA,"",NA,"",NA,NA,NA,NA,NA,NA,NA,"","","",NA,"",NA,NA,NA,NA,NA,NA,NA,"",NA,"27"
"",NA,"",NA,"",NA,NA,NA,NA,NA,NA,NA,"","",1,1,"2024-08-25_11h16.55.004","IAT(Formal)","2021.2.3","Win32",60.24096386,"",NA,"",NA,NA,NA,NA,NA,NA,NA,"","","",NA,"i",1,0.5981,NA,NA,NA,NA,NA,"傲慢","i","",NA,0,2,2,37,1,"",NA,"",NA,NA,NA,NA,NA,NA,NA,"",NA,"",NA,NA,NA,NA,NA,NA,NA,"","","",NA,"",NA,NA,NA,NA,NA,NA,NA,"",NA,"27"
"",NA,"",NA,"",NA,NA,NA,NA,NA,NA,NA,"","",1,1,"2024-08-25_11h16.55.004","IAT(Formal)","2021.2.3","Win32",60.24096386,"",NA,"",NA,NA,NA,NA,NA,NA,NA,"","","",NA,"i",1,0.4245,NA,NA,NA,NA,NA,"卑鄙","i","",NA,0,3,3,30,1,"",NA,"",NA,NA,NA,NA,NA,NA,NA,"",NA,"",NA,NA,NA,NA,NA,NA,NA,"","","",NA,"",NA,NA,NA,NA,NA,NA,NA,"",NA,"27"
"",NA,"",NA,"",NA,NA,NA,NA,NA,NA,NA,"","",1,1,"2024-08-25_11h16.55.004","IAT(Formal)","2021.2.3","Win32",60.24096386,"",NA,"",NA,NA,NA,NA,NA,NA,NA,"","","",NA,"e",1,0.4986,NA,NA,NA,NA,NA,"我的","e","",NA,0,4,4,51,1,"",NA,"",NA,NA,NA,NA,NA,NA,NA,"",NA,"",NA,NA,NA,NA,NA,NA,NA,"","","",NA,"",NA,NA,NA,NA,NA,NA,NA,"",NA,"27"
"",NA,"",NA,"",NA,NA,NA,NA,NA,NA,NA,"","",1,1,"2024-08-25_11h16.55.004","IAT(Formal)","2021.2.3","Win32",60.24096386,"",NA,"",NA,NA,NA,NA,NA,NA,NA,"","","",NA,"e",1,0.4509,NA,NA,NA,NA,NA,"优秀","e","",NA,0,5,5,10,1,"",NA,"",NA,NA,NA,NA,NA,NA,NA,"",NA,"",NA,NA,NA,NA,NA,NA,NA,"","","",NA,"",NA,NA,NA,NA,NA,NA,NA,"",NA,"27"
"",NA,"",NA,"",NA,NA,NA,NA,NA,NA,NA,"","",1,1,"2024-08-25_11h16.55.004","IAT(Formal)","2021.2.3","Win32",60.24096386,"",NA,"",NA,NA,NA,NA,NA,NA,NA,"","","",NA,"e",1,0.5435,NA,NA,NA,NA,NA,"俺","e","",NA,0,6,6,4,1,"",NA,"",NA,NA,NA,NA,NA,NA,NA,"",NA,"",NA,NA,NA,NA,NA,NA,NA,"","","",NA,"",NA,NA,NA,NA,NA,NA,NA,"",NA,"27"
"",NA,"",NA,"",NA,NA,NA,NA,NA,NA,NA,"","",1,1,"2024-08-25_11h16.55.004","IAT(Formal)","2021.2.3","Win32",60.24096386,"",NA,"",NA,NA,NA,NA,NA,NA,NA,"","","",NA,"e",1,0.5535,NA,NA,NA,NA,NA,"稳重","e","",NA,0,7,7,21,1,"",NA,"",NA,NA,NA,NA,NA,NA,NA,"",NA,"",NA,NA,NA,NA,NA,NA,NA,"","","",NA,"",NA,NA,NA,NA,NA,NA,NA,"",NA,"27"
"",NA,"",NA,"",NA,NA,NA,NA,NA,NA,NA,"","",1,1,"2024-08-25_11h16.55.004","IAT(Formal)","2021.2.3","Win32",60.24096386,"",NA,"",NA,NA,NA,NA,NA,NA,NA,"","","",NA,"e",1,0.457,NA,NA,NA,NA,NA,"诚实","e","",NA,0,8,8,15,1,"",NA,"",NA,NA,NA,NA,NA,NA,NA,"",NA,"",NA,NA,NA,NA,NA,NA,NA,"","","",NA,"",NA,NA,NA,NA,NA,NA,NA,"",NA,"27"
"",NA,"",NA,"",NA,NA,NA,NA,NA,NA,NA,"","",1,1,"2024-08-25_11h16.55.004","IAT(Formal)","2021.2.3","Win32",60.24096386,"",NA,"",NA,NA,NA,NA,NA,NA,NA,"","","",NA,"i",1,0.5206,NA,NA,NA,NA,NA,"他的","i","",NA,0,9,9,7,1,"",NA,"",NA,NA,NA,NA,NA,NA,NA,"",NA,"",NA,NA,NA,NA,NA,NA,NA,"","","",NA,"",NA,NA,NA,NA,NA,NA,NA,"",NA,"27"
"",NA,"",NA,"",NA,NA,NA,NA,NA,NA,NA,"","",1,1,"2024-08-25_11h16.55.004","IAT(Formal)","2021.2.3","Win32",60.24096386,"",NA,"",NA,NA,NA,NA,NA,NA,NA,"","","",NA,"i",1,0.5678,NA,NA,NA,NA,NA,"散漫","i","",NA,0,10,10,41,1,"",NA,"",NA,NA,NA,NA,NA,NA,NA,"",NA,"",NA,NA,NA,NA,NA,NA,NA,"","","",NA,"",NA,NA,NA,NA,NA,NA,NA,"",NA,"27"
"",NA,"",NA,"",NA,NA,NA,NA,NA,NA,NA,"","",1,1,"2024-08-25_11h16.55.004","IAT(Formal)","2021.2.3","Win32",60.24096386,"",NA,"",NA,NA,NA,NA,NA,NA,NA,"","","",NA,"i",1,0.4073,NA,NA,NA,NA,NA,"他的","i","",NA,0,11,11,57,1,"",NA,"",NA,NA,NA,NA,NA,NA,NA,"",NA,"",NA,NA,NA,NA,NA,NA,NA,"","","",NA,"",NA,NA,NA,NA,NA,NA,NA,"",NA,"27"
"",NA,"",NA,"",NA,NA,NA,NA,NA,NA,NA,"","",1,1,"2024-08-25_11h16.55.004","IAT(Formal)","2021.2.3","Win32",60.24096386,"",NA,"",NA,NA,NA,NA,NA,NA,NA,"","","",NA,"e",1,0.6482,NA,NA,NA,NA,NA,"俺","e","",NA,0,12,12,54,1,"",NA,"",NA,NA,NA,NA,NA,NA,NA,"",NA,"",NA,NA,NA,NA,NA,NA,NA,"","","",NA,"",NA,NA,NA,NA,NA,NA,NA,"",NA,"27"
"",NA,"",NA,"",NA,NA,NA,NA,NA,NA,NA,"","",1,1,"2024-08-25_11h16.55.004","IAT(Formal)","2021.2.3","Win32",60.24096386,"",NA,"",NA,NA,NA,NA,NA,NA,NA,"","","",NA,"i",1,0.6233,NA,NA,NA,NA,NA,"自卑","i","",NA,0,13,13,36,1,"",NA,"",NA,NA,NA,NA,NA,NA,NA,"",NA,"",NA,NA,NA,NA,NA,NA,NA,"","","",NA,"",NA,NA,NA,NA,NA,NA,NA,"",NA,"27"
"",NA,"",NA,"",NA,NA,NA,NA,NA,NA,NA,"","",1,1,"2024-08-25_11h16.55.004","IAT(Formal)","2021.2.3","Win32",60.24096386,"",NA,"",NA,NA,NA,NA,NA,NA,NA,"","","",NA,"e",1,0.6324,NA,NA,NA,NA,NA,"细腻","e","",NA,0,14,14,25,1,"",NA,"",NA,NA,NA,NA,NA,NA,NA,"",NA,"",NA,NA,NA,NA,NA,NA,NA,"","","",NA,"",NA,NA,NA,NA,NA,NA,NA,"",NA,"27"
"",NA,"",NA,"",NA,NA,NA,NA,NA,NA,NA,"","",1,1,"2024-08-25_11h16.55.004","IAT(Formal)","2021.2.3","Win32",60.24096386,"",NA,"",NA,NA,NA,NA,NA,NA,NA,"","","",NA,"i",1,0.5228,NA,NA,NA,NA,NA,"他们","i","",NA,0,15,15,66,1,"",NA,"",NA,NA,NA,NA,NA,NA,NA,"",NA,"",NA,NA,NA,NA,NA,NA,NA,"","","",NA,"",NA,NA,NA,NA,NA,NA,NA,"",NA,"27"
"",NA,"",NA,"",NA,NA,NA,NA,NA,NA,NA,"","",1,1,"2024-08-25_11h16.55.004","IAT(Formal)","2021.2.3","Win32",60.24096386,"",NA,"",NA,NA,NA,NA,NA,NA,NA,"","","",NA,"i",1,0.5246,NA,NA,NA,NA,NA,"下贱","i","",NA,0,16,16,49,1,"",NA,"",NA,NA,NA,NA,NA,NA,NA,"",NA,"",NA,NA,NA,NA,NA,NA,NA,"","","",NA,"",NA,NA,NA,NA,NA,NA,NA,"",NA,"27"
"",NA,"",NA,"",NA,NA,NA,NA,NA,NA,NA,"","",1,1,"2024-08-25_11h16.55.004","IAT(Formal)","2021.2.3","Win32",60.24096386,"",NA,"",NA,NA,NA,NA,NA,NA,NA,"","","",NA,"i",1,0.5578,NA,NA,NA,NA,NA,"轻率","i","",NA,0,17,17,48,1,"",NA,"",NA,NA,NA,NA,NA,NA,NA,"",NA,"",NA,NA,NA,NA,NA,NA,NA,"","","",NA,"",NA,NA,NA,NA,NA,NA,NA,"",NA,"27"
"",NA,"",NA,"",NA,NA,NA,NA,NA,NA,NA,"","",1,1,"2024-08-25_11h16.55.004","IAT(Formal)","2021.2.3","Win32",60.24096386,"",NA,"",NA,NA,NA,NA,NA,NA,NA,"","","",NA,"e",1,0.706,NA,NA,NA,NA,NA,"俺","e","",NA,0,18,18,74,1,"",NA,"",NA,NA,NA,NA,NA,NA,NA,"",NA,"",NA,NA,NA,NA,NA,NA,NA,"","","",NA,"",NA,NA,NA,NA,NA,NA,NA,"",NA,"27"
"",NA,"",NA,"",NA,NA,NA,NA,NA,NA,NA,"","",1,1,"2024-08-25_11h16.55.004","IAT(Formal)","2021.2.3","Win32",60.24096386,"",NA,"",NA,NA,NA,NA,NA,NA,NA,"","","",NA,"i",1,0.6744,NA,NA,NA,NA,NA,"他们","i","",NA,0,19,19,6,1,"",NA,"",NA,NA,NA,NA,NA,NA,NA,"",NA,"",NA,NA,NA,NA,NA,NA,NA,"","","",NA,"",NA,NA,NA,NA,NA,NA,NA,"",NA,"27"
"",NA,"",NA,"",NA,NA,NA,NA,NA,NA,NA,"","",1,1,"2024-08-25_11h16.55.004","IAT(Formal)","2021.2.3","Win32",60.24096386,"",NA,"",NA,NA,NA,NA,NA,NA,NA,"","","",NA,"i",1,0.623,NA,NA,NA,NA,NA,"虚伪","i","",NA,0,20,20,31,1,"",NA,"",NA,NA,NA,NA,NA,NA,NA,"",NA,"",NA,NA,NA,NA,NA,NA,NA,"","","",NA,"",NA,NA,NA,NA,NA,NA,NA,"",NA,"27"
"",NA,"",NA,"",NA,NA,NA,NA,NA,NA,NA,"","",1,1,"2024-08-25_11h16.55.004","IAT(Formal)","2021.2.3","Win32",60.24096386,"",NA,"",NA,NA,NA,NA,NA,NA,NA,"","","",NA,"e",1,0.5331,NA,NA,NA,NA,NA,"机智","e","",NA,0,21,21,19,1,"",NA,"",NA,NA,NA,NA,NA,NA,NA,"",NA,"",NA,NA,NA,NA,NA,NA,NA,"","","",NA,"",NA,NA,NA,NA,NA,NA,NA,"",NA,"27"
"",NA,"",NA,"",NA,NA,NA,NA,NA,NA,NA,"","",1,1,"2024-08-25_11h16.55.004","IAT(Formal)","2021.2.3","Win32",60.24096386,"",NA,"",NA,NA,NA,NA,NA,NA,NA,"","","",NA,"i",1,0.4978,NA,NA,NA,NA,NA,"他","i","",NA,0,22,22,65,1,"",NA,"",NA,NA,NA,NA,NA,NA,NA,"",NA,"",NA,NA,NA,NA,NA,NA,NA,"","","",NA,"",NA,NA,NA,NA,NA,NA,NA,"",NA,"27"
"",NA,"",NA,"",NA,NA,NA,NA,NA,NA,NA,"","",1,1,"2024-08-25_11h16.55.004","IAT(Formal)","2021.2.3","Win32",60.24096386,"",NA,"",NA,NA,NA,NA,NA,NA,NA,"","","",NA,"i",1,0.5073,NA,NA,NA,NA,NA,"鲁莽","i","",NA,0,23,23,38,1,"",NA,"",NA,NA,NA,NA,NA,NA,NA,"",NA,"",NA,NA,NA,NA,NA,NA,NA,"","","",NA,"",NA,NA,NA,NA,NA,NA,NA,"",NA,"27"
"",NA,"",NA,"",NA,NA,NA,NA,NA,NA,NA,"","",1,1,"2024-08-25_11h16.55.004","IAT(Formal)","2021.2.3","Win32",60.24096386,"",NA,"",NA,NA,NA,NA,NA,NA,NA,"","","",NA,"i",1,0.5651,NA,NA,NA,NA,NA,"执拗","i","",NA,0,24,24,40,1,"",NA,"",NA,NA,NA,NA,NA,NA,NA,"",NA,"",NA,NA,NA,NA,NA,NA,NA,"","","",NA,"",NA,NA,NA,NA,NA,NA,NA,"",NA,"27"
"",NA,"",NA,"",NA,NA,NA,NA,NA,NA,NA,"","",1,1,"2024-08-25_11h16.55.004","IAT(Formal)","2021.2.3","Win32",60.24096386,"",NA,"",NA,NA,NA,NA,NA,NA,NA,"","","",NA,"i",1,0.5229,NA,NA,NA,NA,NA,"刻薄","i","",NA,0,25,25,33,1,"",NA,"",NA,NA,NA,NA,NA,NA,NA,"",NA,"",NA,NA,NA,NA,NA,NA,NA,"","","",NA,"",NA,NA,NA,NA,NA,NA,NA,"",NA,"27"
"",NA,"",NA,"",NA,NA,NA,NA,NA,NA,NA,"","",1,1,"2024-08-25_11h16.55.004","IAT(Formal)","2021.2.3","Win32",60.24096386,"",NA,"",NA,NA,NA,NA,NA,NA,NA,"","","",NA,"i",1,0.488,NA,NA,NA,NA,NA,"他","i","",NA,0,26,26,75,1,"",NA,"",NA,NA,NA,NA,NA,NA,NA,"",NA,"",NA,NA,NA,NA,NA,NA,NA,"","","",NA,"",NA,NA,NA,NA,NA,NA,NA,"",NA,"27"
"",NA,"",NA,"",NA,NA,NA,NA,NA,NA,NA,"","",1,1,"2024-08-25_11h16.55.004","IAT(Formal)","2021.2.3","Win32",60.24096386,"",NA,"",NA,NA,NA,NA,NA,NA,NA,"","","",NA,"e",1,0.5695,NA,NA,NA,NA,NA,"热情","e","",NA,0,27,27,27,1,"",NA,"",NA,NA,NA,NA,NA,NA,NA,"",NA,"",NA,NA,NA,NA,NA,NA,NA,"","","",NA,"",NA,NA,NA,NA,NA,NA,NA,"",NA,"27"
"",NA,"",NA,"",NA,NA,NA,NA,NA,NA,NA,"","",1,1,"2024-08-25_11h16.55.004","IAT(Formal)","2021.2.3","Win32",60.24096386,"",NA,"",NA,NA,NA,NA,NA,NA,NA,"","","",NA,"e",1,0.5859,NA,NA,NA,NA,NA,"我的","e","",NA,0,28,28,61,1,"",NA,"",NA,NA,NA,NA,NA,NA,NA,"",NA,"",NA,NA,NA,NA,NA,NA,NA,"","","",NA,"",NA,NA,NA,NA,NA,NA,NA,"",NA,"27"
"",NA,"",NA,"",NA,NA,NA,NA,NA,NA,NA,"","",1,1,"2024-08-25_11h16.55.004","IAT(Formal)","2021.2.3","Win32",60.24096386,"",NA,"",NA,NA,NA,NA,NA,NA,NA,"","","",NA,"e",1,0.4966,NA,NA,NA,NA,NA,"诚恳","e","",NA,0,29,29,29,1,"",NA,"",NA,NA,NA,NA,NA,NA,NA,"",NA,"",NA,NA,NA,NA,NA,NA,NA,"","","",NA,"",NA,NA,NA,NA,NA,NA,NA,"",NA,"27"
"",NA,"",NA,"",NA,NA,NA,NA,NA,NA,NA,"","",1,1,"2024-08-25_11h16.55.004","IAT(Formal)","2021.2.3","Win32",60.24096386,"",NA,"",NA,NA,NA,NA,NA,NA,NA,"","","",NA,"e",1,0.6354,NA,NA,NA,NA,NA,"无私","e","",NA,0,30,30,22,1,"",NA,"",NA,NA,NA,NA,NA,NA,NA,"",NA,"",NA,NA,NA,NA,NA,NA,NA,"","","",NA,"",NA,NA,NA,NA,NA,NA,NA,"",NA,"27"
"",NA,"",NA,"",NA,NA,NA,NA,NA,NA,NA,"","",1,1,"2024-08-25_11h16.55.004","IAT(Formal)","2021.2.3","Win32",60.24096386,"",NA,"",NA,NA,NA,NA,NA,NA,NA,"","","",NA,"i",1,0.5503,NA,NA,NA,NA,NA,"消极","i","",NA,0,31,31,35,1,"",NA,"",NA,NA,NA,NA,NA,NA,NA,"",NA,"",NA,NA,NA,NA,NA,NA,NA,"","","",NA,"",NA,NA,NA,NA,NA,NA,NA,"",NA,"27"
"",NA,"",NA,"",NA,NA,NA,NA,NA,NA,NA,"","",1,1,"2024-08-25_11h16.55.004","IAT(Formal)","2021.2.3","Win32",60.24096386,"",NA,"",NA,NA,NA,NA,NA,NA,NA,"","","",NA,"e",1,0.8796,NA,NA,NA,NA,NA,"冷静","e","",NA,0,32,32,26,1,"",NA,"",NA,NA,NA,NA,NA,NA,NA,"",NA,"",NA,NA,NA,NA,NA,NA,NA,"","","",NA,"",NA,NA,NA,NA,NA,NA,NA,"",NA,"27"
"",NA,"",NA,"",NA,NA,NA,NA,NA,NA,NA,"","",1,1,"2024-08-25_11h16.55.004","IAT(Formal)","2021.2.3","Win32",60.24096386,"",NA,"",NA,NA,NA,NA,NA,NA,NA,"","","",NA,"i",1,0.624,NA,NA,NA,NA,NA,"悲观","i","",NA,0,33,33,34,1,"",NA,"",NA,NA,NA,NA,NA,NA,NA,"",NA,"",NA,NA,NA,NA,NA,NA,NA,"","","",NA,"",NA,NA,NA,NA,NA,NA,NA,"",NA,"27"
"",NA,"",NA,"",NA,NA,NA,NA,NA,NA,NA,"","",1,1,"2024-08-25_11h16.55.004","IAT(Formal)","2021.2.3","Win32",60.24096386,"",NA,"",NA,NA,NA,NA,NA,NA,NA,"","","",NA,"e",1,0.4909,NA,NA,NA,NA,NA,"我的","e","",NA,0,34,34,71,1,"",NA,"",NA,NA,NA,NA,NA,NA,NA,"",NA,"",NA,NA,NA,NA,NA,NA,NA,"","","",NA,"",NA,NA,NA,NA,NA,NA,NA,"",NA,"27"
"",NA,"",NA,"",NA,NA,NA,NA,NA,NA,NA,"","",1,1,"2024-08-25_11h16.55.004","IAT(Formal)","2021.2.3","Win32",60.24096386,"",NA,"",NA,NA,NA,NA,NA,NA,NA,"","","",NA,"e",1,0.4982,NA,NA,NA,NA,NA,"我","e","",NA,0,35,35,60,1,"",NA,"",NA,NA,NA,NA,NA,NA,NA,"",NA,"",NA,NA,NA,NA,NA,NA,NA,"","","",NA,"",NA,NA,NA,NA,NA,NA,NA,"",NA,"27"
"",NA,"",NA,"",NA,NA,NA,NA,NA,NA,NA,"","",1,1,"2024-08-25_11h16.55.004","IAT(Formal)","2021.2.3","Win32",60.24096386,"",NA,"",NA,NA,NA,NA,NA,NA,NA,"","","",NA,"i",1,0.6258,NA,NA,NA,NA,NA,"他们","i","",NA,0,36,36,56,1,"",NA,"",NA,NA,NA,NA,NA,NA,NA,"",NA,"",NA,NA,NA,NA,NA,NA,NA,"","","",NA,"",NA,NA,NA,NA,NA,NA,NA,"",NA,"27"
"",NA,"",NA,"",NA,NA,NA,NA,NA,NA,NA,"","",1,1,"2024-08-25_11h16.55.004","IAT(Formal)","2021.2.3","Win32",60.24096386,"",NA,"",NA,NA,NA,NA,NA,NA,NA,"","","",NA,"e",1,0.5966,NA,NA,NA,NA,NA,"杰出","e","",NA,0,37,37,13,1,"",NA,"",NA,NA,NA,NA,NA,NA,NA,"",NA,"",NA,NA,NA,NA,NA,NA,NA,"","","",NA,"",NA,NA,NA,NA,NA,NA,NA,"",NA,"27"
"",NA,"",NA,"",NA,NA,NA,NA,NA,NA,NA,"","",1,1,"2024-08-25_11h16.55.004","IAT(Formal)","2021.2.3","Win32",60.24096386,"",NA,"",NA,NA,NA,NA,NA,NA,NA,"","","",NA,"e",1,0.4498,NA,NA,NA,NA,NA,"勤奋","e","",NA,0,38,38,18,1,"",NA,"",NA,NA,NA,NA,NA,NA,NA,"",NA,"",NA,NA,NA,NA,NA,NA,NA,"","","",NA,"",NA,NA,NA,NA,NA,NA,NA,"",NA,"27"
"",NA,"",NA,"",NA,NA,NA,NA,NA,NA,NA,"","",1,1,"2024-08-25_11h16.55.004","IAT(Formal)","2021.2.3","Win32",60.24096386,"",NA,"",NA,NA,NA,NA,NA,NA,NA,"","","",NA,"e",1,0.4544,NA,NA,NA,NA,NA,"乐观","e","",NA,0,39,39,14,1,"",NA,"",NA,NA,NA,NA,NA,NA,NA,"",NA,"",NA,NA,NA,NA,NA,NA,NA,"","","",NA,"",NA,NA,NA,NA,NA,NA,NA,"",NA,"27"
"",NA,"",NA,"",NA,NA,NA,NA,NA,NA,NA,"","",1,1,"2024-08-25_11h16.55.004","IAT(Formal)","2021.2.3","Win32",60.24096386,"",NA,"",NA,NA,NA,NA,NA,NA,NA,"","","",NA,"e",1,0.4662,NA,NA,NA,NA,NA,"我","e","",NA,0,40,40,70,1,"",NA,"",NA,NA,NA,NA,NA,NA,NA,"",NA,"",NA,NA,NA,NA,NA,NA,NA,"","","",NA,"",NA,NA,NA,NA,NA,NA,NA,"",NA,"27"
"",NA,"",NA,"",NA,NA,NA,NA,NA,NA,NA,"","",1,1,"2024-08-25_11h16.55.004","IAT(Formal)","2021.2.3","Win32",60.24096386,"",NA,"",NA,NA,NA,NA,NA,NA,NA,"","","",NA,"e",1,0.6091,NA,NA,NA,NA,NA,"朴实","e","",NA,0,41,41,24,1,"",NA,"",NA,NA,NA,NA,NA,NA,NA,"",NA,"",NA,NA,NA,NA,NA,NA,NA,"","","",NA,"",NA,NA,NA,NA,NA,NA,NA,"",NA,"27"
"",NA,"",NA,"",NA,NA,NA,NA,NA,NA,NA,"","",1,1,"2024-08-25_11h16.55.004","IAT(Formal)","2021.2.3","Win32",60.24096386,"",NA,"",NA,NA,NA,NA,NA,NA,NA,"","","",NA,"i",1,0.5831,NA,NA,NA,NA,NA,"冒失","i","",NA,0,42,42,39,1,"",NA,"",NA,NA,NA,NA,NA,NA,NA,"",NA,"",NA,NA,NA,NA,NA,NA,NA,"","","",NA,"",NA,NA,NA,NA,NA,NA,NA,"",NA,"27"
"",NA,"",NA,"",NA,NA,NA,NA,NA,NA,NA,"","",1,1,"2024-08-25_11h16.55.004","IAT(Formal)","2021.2.3","Win32",60.24096386,"",NA,"",NA,NA,NA,NA,NA,NA,NA,"","","",NA,"i",1,0.5027,NA,NA,NA,NA,NA,"暴躁","i","",NA,0,43,43,44,1,"",NA,"",NA,NA,NA,NA,NA,NA,NA,"",NA,"",NA,NA,NA,NA,NA,NA,NA,"","","",NA,"",NA,NA,NA,NA,NA,NA,NA,"",NA,"27"
"",NA,"",NA,"",NA,NA,NA,NA,NA,NA,NA,"","",1,1,"2024-08-25_11h16.55.004","IAT(Formal)","2021.2.3","Win32",60.24096386,"",NA,"",NA,NA,NA,NA,NA,NA,NA,"","","",NA,"i",1,0.4902,NA,NA,NA,NA,NA,"其他","i","",NA,0,44,44,69,1,"",NA,"",NA,NA,NA,NA,NA,NA,NA,"",NA,"",NA,NA,NA,NA,NA,NA,NA,"","","",NA,"",NA,NA,NA,NA,NA,NA,NA,"",NA,"27"
"",NA,"",NA,"",NA,NA,NA,NA,NA,NA,NA,"","",1,1,"2024-08-25_11h16.55.004","IAT(Formal)","2021.2.3","Win32",60.24096386,"",NA,"",NA,NA,NA,NA,NA,NA,NA,"","","",NA,"e",1,0.5934,NA,NA,NA,NA,NA,"我们","e","",NA,0,45,45,62,1,"",NA,"",NA,NA,NA,NA,NA,NA,NA,"",NA,"",NA,NA,NA,NA,NA,NA,NA,"","","",NA,"",NA,NA,NA,NA,NA,NA,NA,"",NA,"27"
"",NA,"",NA,"",NA,NA,NA,NA,NA,NA,NA,"","",1,1,"2024-08-25_11h16.55.004","IAT(Formal)","2021.2.3","Win32",60.24096386,"",NA,"",NA,NA,NA,NA,NA,NA,NA,"","","",NA,"e",1,0.6159,NA,NA,NA,NA,NA,"认真","e","",NA,0,46,46,20,1,"",NA,"",NA,NA,NA,NA,NA,NA,NA,"",NA,"",NA,NA,NA,NA,NA,NA,NA,"","","",NA,"",NA,NA,NA,NA,NA,NA,NA,"",NA,"27"
"",NA,"",NA,"",NA,NA,NA,NA,NA,NA,NA,"","",1,1,"2024-08-25_11h16.55.004","IAT(Formal)","2021.2.3","Win32",60.24096386,"",NA,"",NA,NA,NA,NA,NA,NA,NA,"","","",NA,"e",1,0.4579,NA,NA,NA,NA,NA,"自己","e","",NA,0,47,47,3,1,"",NA,"",NA,NA,NA,NA,NA,NA,NA,"",NA,"",NA,NA,NA,NA,NA,NA,NA,"","","",NA,"",NA,NA,NA,NA,NA,NA,NA,"",NA,"27"
"",NA,"",NA,"",NA,NA,NA,NA,NA,NA,NA,"","",1,1,"2024-08-25_11h16.55.004","IAT(Formal)","2021.2.3","Win32",60.24096386,"",NA,"",NA,NA,NA,NA,NA,NA,NA,"","","",NA,"e",1,0.4146,NA,NA,NA,NA,NA,"我","e","",NA,0,48,48,50,1,"",NA,"",NA,NA,NA,NA,NA,NA,NA,"",NA,"",NA,NA,NA,NA,NA,NA,NA,"","","",NA,"",NA,NA,NA,NA,NA,NA,NA,"",NA,"27"
"",NA,"",NA,"",NA,NA,NA,NA,NA,NA,NA,"","",1,1,"2024-08-25_11h16.55.004","IAT(Formal)","2021.2.3","Win32",60.24096386,"",NA,"",NA,NA,NA,NA,NA,NA,NA,"","","",NA,"i",1,0.4386,NA,NA,NA,NA,NA,"他","i","",NA,0,49,49,5,1,"",NA,"",NA,NA,NA,NA,NA,NA,NA,"",NA,"",NA,NA,NA,NA,NA,NA,NA,"","","",NA,"",NA,NA,NA,NA,NA,NA,NA,"",NA,"27"
"",NA,"",NA,"",NA,NA,NA,NA,NA,NA,NA,"","",1,1,"2024-08-25_11h16.55.004","IAT(Formal)","2021.2.3","Win32",60.24096386,"",NA,"",NA,NA,NA,NA,NA,NA,NA,"","","",NA,"i",1,0.4825,NA,NA,NA,NA,NA,"他人","i","",NA,0,50,50,68,1,"",NA,"",NA,NA,NA,NA,NA,NA,NA,"",NA,"",NA,NA,NA,NA,NA,NA,NA,"","","",NA,"",NA,NA,NA,NA,NA,NA,NA,"",NA,"27"
"",NA,"",NA,"",NA,NA,NA,NA,NA,NA,NA,"","",1,1,"2024-08-25_11h16.55.004","IAT(Formal)","2021.2.3","Win32",60.24096386,"",NA,"",NA,NA,NA,NA,NA,NA,NA,"","","",NA,"i",1,0.3842,NA,NA,NA,NA,NA,"他人","i","",NA,0,51,51,8,1,"",NA,"",NA,NA,NA,NA,NA,NA,NA,"",NA,"",NA,NA,NA,NA,NA,NA,NA,"","","",NA,"",NA,NA,NA,NA,NA,NA,NA,"",NA,"27"
"",NA,"",NA,"",NA,NA,NA,NA,NA,NA,NA,"","",1,1,"2024-08-25_11h16.55.004","IAT(Formal)","2021.2.3","Win32",60.24096386,"",NA,"",NA,NA,NA,NA,NA,NA,NA,"","","",NA,"i",1,0.421,NA,NA,NA,NA,NA,"他的","i","",NA,0,52,52,77,1,"",NA,"",NA,NA,NA,NA,NA,NA,NA,"",NA,"",NA,NA,NA,NA,NA,NA,NA,"","","",NA,"",NA,NA,NA,NA,NA,NA,NA,"",NA,"27"
"",NA,"",NA,"",NA,NA,NA,NA,NA,NA,NA,"","",1,1,"2024-08-25_11h16.55.004","IAT(Formal)","2021.2.3","Win32",60.24096386,"",NA,"",NA,NA,NA,NA,NA,NA,NA,"","","",NA,"e",1,0.5468,NA,NA,NA,NA,NA,"崇高","e","",NA,0,53,53,11,1,"",NA,"",NA,NA,NA,NA,NA,NA,NA,"",NA,"",NA,NA,NA,NA,NA,NA,NA,"","","",NA,"",NA,NA,NA,NA,NA,NA,NA,"",NA,"27"
"",NA,"",NA,"",NA,NA,NA,NA,NA,NA,NA,"","",1,1,"2024-08-25_11h16.55.004","IAT(Formal)","2021.2.3","Win32",60.24096386,"",NA,"",NA,NA,NA,NA,NA,NA,NA,"","","",NA,"e",1,0.5024,NA,NA,NA,NA,NA,"我们","e","",NA,0,54,54,52,1,"",NA,"",NA,NA,NA,NA,NA,NA,NA,"",NA,"",NA,NA,NA,NA,NA,NA,NA,"","","",NA,"",NA,NA,NA,NA,NA,NA,NA,"",NA,"27"
"",NA,"",NA,"",NA,NA,NA,NA,NA,NA,NA,"","",1,1,"2024-08-25_11h16.55.004","IAT(Formal)","2021.2.3","Win32",60.24096386,"",NA,"",NA,NA,NA,NA,NA,NA,NA,"","","",NA,"e",0,0.4209,NA,NA,NA,NA,NA,"他的","i","",NA,0,55,55,67,1,"",NA,"",NA,NA,NA,NA,NA,NA,NA,"",NA,"",NA,NA,NA,NA,NA,NA,NA,"","","",NA,"",NA,NA,NA,NA,NA,NA,NA,"",NA,"27"
"",NA,"",NA,"",NA,NA,NA,NA,NA,NA,NA,"","",1,1,"2024-08-25_11h16.55.004","IAT(Formal)","2021.2.3","Win32",60.24096386,"",NA,"",NA,NA,NA,NA,NA,NA,NA,"","","",NA,"i",1,0.6038,NA,NA,NA,NA,NA,"其他","i","",NA,0,56,56,9,1,"",NA,"",NA,NA,NA,NA,NA,NA,NA,"",NA,"",NA,NA,NA,NA,NA,NA,NA,"","","",NA,"",NA,NA,NA,NA,NA,NA,NA,"",NA,"27"
"",NA,"",NA,"",NA,NA,NA,NA,NA,NA,NA,"","",1,1,"2024-08-25_11h16.55.004","IAT(Formal)","2021.2.3","Win32",60.24096386,"",NA,"",NA,NA,NA,NA,NA,NA,NA,"","","",NA,"i",1,0.6054,NA,NA,NA,NA,NA,"野蛮","i","",NA,0,57,57,46,1,"",NA,"",NA,NA,NA,NA,NA,NA,NA,"",NA,"",NA,NA,NA,NA,NA,NA,NA,"","","",NA,"",NA,NA,NA,NA,NA,NA,NA,"",NA,"27"
"",NA,"",NA,"",NA,NA,NA,NA,NA,NA,NA,"","",1,1,"2024-08-25_11h16.55.004","IAT(Formal)","2021.2.3","Win32",60.24096386,"",NA,"",NA,NA,NA,NA,NA,NA,NA,"","","",NA,"e",1,0.5487,NA,NA,NA,NA,NA,"自己","e","",NA,0,58,58,63,1,"",NA,"",NA,NA,NA,NA,NA,NA,NA,"",NA,"",NA,NA,NA,NA,NA,NA,NA,"","","",NA,"",NA,NA,NA,NA,NA,NA,NA,"",NA,"27"
"",NA,"",NA,"",NA,NA,NA,NA,NA,NA,NA,"","",1,1,"2024-08-25_11h16.55.004","IAT(Formal)","2021.2.3","Win32",60.24096386,"",NA,"",NA,NA,NA,NA,NA,NA,NA,"","","",NA,"i",1,0.6027,NA,NA,NA,NA,NA,"愚蠢","i","",NA,0,59,59,32,1,"",NA,"",NA,NA,NA,NA,NA,NA,NA,"",NA,"",NA,NA,NA,NA,NA,NA,NA,"","","",NA,"",NA,NA,NA,NA,NA,NA,NA,"",NA,"27"
"",NA,"",NA,"",NA,NA,NA,NA,NA,NA,NA,"","",1,1,"2024-08-25_11h16.55.004","IAT(Formal)","2021.2.3","Win32",60.24096386,"",NA,"",NA,NA,NA,NA,NA,NA,NA,"","","",NA,"e",1,0.581,NA,NA,NA,NA,NA,"自己","e","",NA,0,60,60,73,1,"",NA,"",NA,NA,NA,NA,NA,NA,NA,"",NA,"",NA,NA,NA,NA,NA,NA,NA,"","","",NA,"",NA,NA,NA,NA,NA,NA,NA,"",NA,"27"
"",NA,"",NA,"",NA,NA,NA,NA,NA,NA,NA,"","",1,1,"2024-08-25_11h16.55.004","IAT(Formal)","2021.2.3","Win32",60.24096386,"",NA,"",NA,NA,NA,NA,NA,NA,NA,"","","",NA,"e",1,0.5978,NA,NA,NA,NA,NA,"俺","e","",NA,0,61,61,64,1,"",NA,"",NA,NA,NA,NA,NA,NA,NA,"",NA,"",NA,NA,NA,NA,NA,NA,NA,"","","",NA,"",NA,NA,NA,NA,NA,NA,NA,"",NA,"27"
"",NA,"",NA,"",NA,NA,NA,NA,NA,NA,NA,"","",1,1,"2024-08-25_11h16.55.004","IAT(Formal)","2021.2.3","Win32",60.24096386,"",NA,"",NA,NA,NA,NA,NA,NA,NA,"","","",NA,"i",1,0.4843,NA,NA,NA,NA,NA,"他人","i","",NA,0,62,62,58,1,"",NA,"",NA,NA,NA,NA,NA,NA,NA,"",NA,"",NA,NA,NA,NA,NA,NA,NA,"","","",NA,"",NA,NA,NA,NA,NA,NA,NA,"",NA,"27"
"",NA,"",NA,"",NA,NA,NA,NA,NA,NA,NA,"","",1,1,"2024-08-25_11h16.55.004","IAT(Formal)","2021.2.3","Win32",60.24096386,"",NA,"",NA,NA,NA,NA,NA,NA,NA,"","","",NA,"i",1,0.4503,NA,NA,NA,NA,NA,"他","i","",NA,0,63,63,55,1,"",NA,"",NA,NA,NA,NA,NA,NA,NA,"",NA,"",NA,NA,NA,NA,NA,NA,NA,"","","",NA,"",NA,NA,NA,NA,NA,NA,NA,"",NA,"27"
"",NA,"",NA,"",NA,NA,NA,NA,NA,NA,NA,"","",1,1,"2024-08-25_11h16.55.004","IAT(Formal)","2021.2.3","Win32",60.24096386,"",NA,"",NA,NA,NA,NA,NA,NA,NA,"","","",NA,"e",1,0.5097,NA,NA,NA,NA,NA,"聪明","e","",NA,0,64,64,12,1,"",NA,"",NA,NA,NA,NA,NA,NA,NA,"",NA,"",NA,NA,NA,NA,NA,NA,NA,"","","",NA,"",NA,NA,NA,NA,NA,NA,NA,"",NA,"27"
"",NA,"",NA,"",NA,NA,NA,NA,NA,NA,NA,"","",1,1,"2024-08-25_11h16.55.004","IAT(Formal)","2021.2.3","Win32",60.24096386,"",NA,"",NA,NA,NA,NA,NA,NA,NA,"","","",NA,"e",1,0.8739,NA,NA,NA,NA,NA,"我们","e","",NA,0,65,65,2,1,"",NA,"",NA,NA,NA,NA,NA,NA,NA,"",NA,"",NA,NA,NA,NA,NA,NA,NA,"","","",NA,"",NA,NA,NA,NA,NA,NA,NA,"",NA,"27"
"",NA,"",NA,"",NA,NA,NA,NA,NA,NA,NA,"","",1,1,"2024-08-25_11h16.55.004","IAT(Formal)","2021.2.3","Win32",60.24096386,"",NA,"",NA,NA,NA,NA,NA,NA,NA,"","","",NA,"e",1,0.5709,NA,NA,NA,NA,NA,"正直","e","",NA,0,66,66,16,1,"",NA,"",NA,NA,NA,NA,NA,NA,NA,"",NA,"",NA,NA,NA,NA,NA,NA,NA,"","","",NA,"",NA,NA,NA,NA,NA,NA,NA,"",NA,"27"
"",NA,"",NA,"",NA,NA,NA,NA,NA,NA,NA,"","",1,1,"2024-08-25_11h16.55.004","IAT(Formal)","2021.2.3","Win32",60.24096386,"",NA,"",NA,NA,NA,NA,NA,NA,NA,"","","",NA,"e",1,0.4566,NA,NA,NA,NA,NA,"我","e","",NA,0,67,67,0,1,"",NA,"",NA,NA,NA,NA,NA,NA,NA,"",NA,"",NA,NA,NA,NA,NA,NA,NA,"","","",NA,"",NA,NA,NA,NA,NA,NA,NA,"",NA,"27"
"",NA,"",NA,"",NA,NA,NA,NA,NA,NA,NA,"","",1,1,"2024-08-25_11h16.55.004","IAT(Formal)","2021.2.3","Win32",60.24096386,"",NA,"",NA,NA,NA,NA,NA,NA,NA,"","","",NA,"i",1,0.5475,NA,NA,NA,NA,NA,"猖狂","i","",NA,0,68,68,45,1,"",NA,"",NA,NA,NA,NA,NA,NA,NA,"",NA,"",NA,NA,NA,NA,NA,NA,NA,"","","",NA,"",NA,NA,NA,NA,NA,NA,NA,"",NA,"27"
"",NA,"",NA,"",NA,NA,NA,NA,NA,NA,NA,"","",1,1,"2024-08-25_11h16.55.004","IAT(Formal)","2021.2.3","Win32",60.24096386,"",NA,"",NA,NA,NA,NA,NA,NA,NA,"","","",NA,"i",1,1.0546,NA,NA,NA,NA,NA,"其他","i","",NA,0,69,69,79,1,"",NA,"",NA,NA,NA,NA,NA,NA,NA,"",NA,"",NA,NA,NA,NA,NA,NA,NA,"","","",NA,"",NA,NA,NA,NA,NA,NA,NA,"",NA,"27"
"",NA,"",NA,"",NA,NA,NA,NA,NA,NA,NA,"","",1,1,"2024-08-25_11h16.55.004","IAT(Formal)","2021.2.3","Win32",60.24096386,"",NA,"",NA,NA,NA,NA,NA,NA,NA,"","","",NA,"i",1,0.4436,NA,NA,NA,NA,NA,"他们","i","",NA,0,70,70,76,1,"",NA,"",NA,NA,NA,NA,NA,NA,NA,"",NA,"",NA,NA,NA,NA,NA,NA,NA,"","","",NA,"",NA,NA,NA,NA,NA,NA,NA,"",NA,"27"
"",NA,"",NA,"",NA,NA,NA,NA,NA,NA,NA,"","",1,1,"2024-08-25_11h16.55.004","IAT(Formal)","2021.2.3","Win32",60.24096386,"",NA,"",NA,NA,NA,NA,NA,NA,NA,"","","",NA,"e",1,0.5046,NA,NA,NA,NA,NA,"我们","e","",NA,0,71,71,72,1,"",NA,"",NA,NA,NA,NA,NA,NA,NA,"",NA,"",NA,NA,NA,NA,NA,NA,NA,"","","",NA,"",NA,NA,NA,NA,NA,NA,NA,"",NA,"27"
"",NA,"",NA,"",NA,NA,NA,NA,NA,NA,NA,"","",1,1,"2024-08-25_11h16.55.004","IAT(Formal)","2021.2.3","Win32",60.24096386,"",NA,"",NA,NA,NA,NA,NA,NA,NA,"","","",NA,"e",1,0.6012,NA,NA,NA,NA,NA,"公正","e","",NA,0,72,72,23,1,"",NA,"",NA,NA,NA,NA,NA,NA,NA,"",NA,"",NA,NA,NA,NA,NA,NA,NA,"","","",NA,"",NA,NA,NA,NA,NA,NA,NA,"",NA,"27"
"",NA,"",NA,"",NA,NA,NA,NA,NA,NA,NA,"","",1,1,"2024-08-25_11h16.55.004","IAT(Formal)","2021.2.3","Win32",60.24096386,"",NA,"",NA,NA,NA,NA,NA,NA,NA,"","","",NA,"i",1,0.7911,NA,NA,NA,NA,NA,"固执","i","",NA,0,73,73,47,1,"",NA,"",NA,NA,NA,NA,NA,NA,NA,"",NA,"",NA,NA,NA,NA,NA,NA,NA,"","","",NA,"",NA,NA,NA,NA,NA,NA,NA,"",NA,"27"
"",NA,"",NA,"",NA,NA,NA,NA,NA,NA,NA,"","",1,1,"2024-08-25_11h16.55.004","IAT(Formal)","2021.2.3","Win32",60.24096386,"",NA,"",NA,NA,NA,NA,NA,NA,NA,"","","",NA,"e",1,0.5719,NA,NA,NA,NA,NA,"活泼","e","",NA,0,74,74,28,1,"",NA,"",NA,NA,NA,NA,NA,NA,NA,"",NA,"",NA,NA,NA,NA,NA,NA,NA,"","","",NA,"",NA,NA,NA,NA,NA,NA,NA,"",NA,"27"
"",NA,"",NA,"",NA,NA,NA,NA,NA,NA,NA,"","",1,1,"2024-08-25_11h16.55.004","IAT(Formal)","2021.2.3","Win32",60.24096386,"",NA,"",NA,NA,NA,NA,NA,NA,NA,"","","",NA,"e",1,0.5305,NA,NA,NA,NA,NA,"自己","e","",NA,0,75,75,53,1,"",NA,"",NA,NA,NA,NA,NA,NA,NA,"",NA,"",NA,NA,NA,NA,NA,NA,NA,"","","",NA,"",NA,NA,NA,NA,NA,NA,NA,"",NA,"27"
"",NA,"",NA,"",NA,NA,NA,NA,NA,NA,NA,"","",1,1,"2024-08-25_11h16.55.004","IAT(Formal)","2021.2.3","Win32",60.24096386,"",NA,"",NA,NA,NA,NA,NA,NA,NA,"","","",NA,"i",1,0.5802,NA,NA,NA,NA,NA,"他人","i","",NA,0,76,76,78,1,"",NA,"",NA,NA,NA,NA,NA,NA,NA,"",NA,"",NA,NA,NA,NA,NA,NA,NA,"","","",NA,"",NA,NA,NA,NA,NA,NA,NA,"",NA,"27"
"",NA,"",NA,"",NA,NA,NA,NA,NA,NA,NA,"","",1,1,"2024-08-25_11h16.55.004","IAT(Formal)","2021.2.3","Win32",60.24096386,"",NA,"",NA,NA,NA,NA,NA,NA,NA,"","","",NA,"i",1,0.4818,NA,NA,NA,NA,NA,"其他","i","",NA,0,77,77,59,1,"",NA,"",NA,NA,NA,NA,NA,NA,NA,"",NA,"",NA,NA,NA,NA,NA,NA,NA,"","","",NA,"",NA,NA,NA,NA,NA,NA,NA,"",NA,"27"
"",NA,"",NA,"",NA,NA,NA,NA,NA,NA,NA,"","",1,1,"2024-08-25_11h16.55.004","IAT(Formal)","2021.2.3","Win32",60.24096386,"",NA,"",NA,NA,NA,NA,NA,NA,NA,"","","",NA,"i",1,0.5675,NA,NA,NA,NA,NA,"凶狠","i","",NA,0,78,78,42,1,"",NA,"",NA,NA,NA,NA,NA,NA,NA,"",NA,"",NA,NA,NA,NA,NA,NA,NA,"","","",NA,"",NA,NA,NA,NA,NA,NA,NA,"",NA,"27"
"",NA,"",NA,"",NA,NA,NA,NA,NA,NA,NA,"","",1,1,"2024-08-25_11h16.55.004","IAT(Formal)","2021.2.3","Win32",60.24096386,"",NA,"",NA,NA,NA,NA,NA,NA,NA,"","","",NA,"i",1,0.7597,NA,NA,NA,NA,NA,"自私","i","",NA,0,79,79,43,1,"",NA,"",NA,NA,NA,NA,NA,NA,NA,"",NA,"",NA,NA,NA,NA,NA,NA,NA,"","","",NA,"",NA,NA,NA,NA,NA,NA,NA,"",NA,"27"
"",NA,"",NA,"",NA,NA,NA,NA,NA,NA,NA,"","",1,1,"2024-08-25_11h16.55.004","IAT(Formal)","2021.2.3","Win32",60.24096386,"",NA,"",NA,NA,NA,NA,NA,NA,NA,"","","",NA,"i",1,0.4574,NA,NA,NA,NA,NA,"野蛮","i","",NA,1,0,80,46,1,"",NA,"",NA,NA,NA,NA,NA,NA,NA,"",NA,"",NA,NA,NA,NA,NA,NA,NA,"","","",NA,"",NA,NA,NA,NA,NA,NA,NA,"",NA,"27"
"",NA,"",NA,"",NA,NA,NA,NA,NA,NA,NA,"","",1,1,"2024-08-25_11h16.55.004","IAT(Formal)","2021.2.3","Win32",60.24096386,"",NA,"",NA,NA,NA,NA,NA,NA,NA,"","","",NA,"i",1,0.5472,NA,NA,NA,NA,NA,"他的","i","",NA,1,1,81,77,1,"",NA,"",NA,NA,NA,NA,NA,NA,NA,"",NA,"",NA,NA,NA,NA,NA,NA,NA,"","","",NA,"",NA,NA,NA,NA,NA,NA,NA,"",NA,"27"
"",NA,"",NA,"",NA,NA,NA,NA,NA,NA,NA,"","",1,1,"2024-08-25_11h16.55.004","IAT(Formal)","2021.2.3","Win32",60.24096386,"",NA,"",NA,NA,NA,NA,NA,NA,NA,"","","",NA,"e",1,0.4994,NA,NA,NA,NA,NA,"俺","e","",NA,1,2,82,64,1,"",NA,"",NA,NA,NA,NA,NA,NA,NA,"",NA,"",NA,NA,NA,NA,NA,NA,NA,"","","",NA,"",NA,NA,NA,NA,NA,NA,NA,"",NA,"27"
"",NA,"",NA,"",NA,NA,NA,NA,NA,NA,NA,"","",1,1,"2024-08-25_11h16.55.004","IAT(Formal)","2021.2.3","Win32",60.24096386,"",NA,"",NA,NA,NA,NA,NA,NA,NA,"","","",NA,"e",1,0.3732,NA,NA,NA,NA,NA,"我","e","",NA,1,3,83,60,1,"",NA,"",NA,NA,NA,NA,NA,NA,NA,"",NA,"",NA,NA,NA,NA,NA,NA,NA,"","","",NA,"",NA,NA,NA,NA,NA,NA,NA,"",NA,"27"
"",NA,"",NA,"",NA,NA,NA,NA,NA,NA,NA,"","",1,1,"2024-08-25_11h16.55.004","IAT(Formal)","2021.2.3","Win32",60.24096386,"",NA,"",NA,NA,NA,NA,NA,NA,NA,"","","",NA,"e",1,0.7409,NA,NA,NA,NA,NA,"我们","e","",NA,1,4,84,62,1,"",NA,"",NA,NA,NA,NA,NA,NA,NA,"",NA,"",NA,NA,NA,NA,NA,NA,NA,"","","",NA,"",NA,NA,NA,NA,NA,NA,NA,"",NA,"27"
"",NA,"",NA,"",NA,NA,NA,NA,NA,NA,NA,"","",1,1,"2024-08-25_11h16.55.004","IAT(Formal)","2021.2.3","Win32",60.24096386,"",NA,"",NA,NA,NA,NA,NA,NA,NA,"","","",NA,"e",1,0.4382,NA,NA,NA,NA,NA,"我的","e","",NA,1,5,85,71,1,"",NA,"",NA,NA,NA,NA,NA,NA,NA,"",NA,"",NA,NA,NA,NA,NA,NA,NA,"","","",NA,"",NA,NA,NA,NA,NA,NA,NA,"",NA,"27"
"",NA,"",NA,"",NA,NA,NA,NA,NA,NA,NA,"","",1,1,"2024-08-25_11h16.55.004","IAT(Formal)","2021.2.3","Win32",60.24096386,"",NA,"",NA,NA,NA,NA,NA,NA,NA,"","","",NA,"e",1,0.4074,NA,NA,NA,NA,NA,"自己","e","",NA,1,6,86,3,1,"",NA,"",NA,NA,NA,NA,NA,NA,NA,"",NA,"",NA,NA,NA,NA,NA,NA,NA,"","","",NA,"",NA,NA,NA,NA,NA,NA,NA,"",NA,"27"
"",NA,"",NA,"",NA,NA,NA,NA,NA,NA,NA,"","",1,1,"2024-08-25_11h16.55.004","IAT(Formal)","2021.2.3","Win32",60.24096386,"",NA,"",NA,NA,NA,NA,NA,NA,NA,"","","",NA,"e",1,0.4855,NA,NA,NA,NA,NA,"无私","e","",NA,1,7,87,22,1,"",NA,"",NA,NA,NA,NA,NA,NA,NA,"",NA,"",NA,NA,NA,NA,NA,NA,NA,"","","",NA,"",NA,NA,NA,NA,NA,NA,NA,"",NA,"27"
"",NA,"",NA,"",NA,NA,NA,NA,NA,NA,NA,"","",1,1,"2024-08-25_11h16.55.004","IAT(Formal)","2021.2.3","Win32",60.24096386,"",NA,"",NA,NA,NA,NA,NA,NA,NA,"","","",NA,"e",1,0.5307,NA,NA,NA,NA,NA,"我的","e","",NA,1,8,88,61,1,"",NA,"",NA,NA,NA,NA,NA,NA,NA,"",NA,"",NA,NA,NA,NA,NA,NA,NA,"","","",NA,"",NA,NA,NA,NA,NA,NA,NA,"",NA,"27"
"",NA,"",NA,"",NA,NA,NA,NA,NA,NA,NA,"","",1,1,"2024-08-25_11h16.55.004","IAT(Formal)","2021.2.3","Win32",60.24096386,"",NA,"",NA,NA,NA,NA,NA,NA,NA,"","","",NA,"i",1,0.5649,NA,NA,NA,NA,NA,"鲁莽","i","",NA,1,9,89,38,1,"",NA,"",NA,NA,NA,NA,NA,NA,NA,"",NA,"",NA,NA,NA,NA,NA,NA,NA,"","","",NA,"",NA,NA,NA,NA,NA,NA,NA,"",NA,"27"
"",NA,"",NA,"",NA,NA,NA,NA,NA,NA,NA,"","",1,1,"2024-08-25_11h16.55.004","IAT(Formal)","2021.2.3","Win32",60.24096386,"",NA,"",NA,NA,NA,NA,NA,NA,NA,"","","",NA,"e",1,0.5516,NA,NA,NA,NA,NA,"机智","e","",NA,1,10,90,19,1,"",NA,"",NA,NA,NA,NA,NA,NA,NA,"",NA,"",NA,NA,NA,NA,NA,NA,NA,"","","",NA,"",NA,NA,NA,NA,NA,NA,NA,"",NA,"27"
"",NA,"",NA,"",NA,NA,NA,NA,NA,NA,NA,"","",1,1,"2024-08-25_11h16.55.004","IAT(Formal)","2021.2.3","Win32",60.24096386,"",NA,"",NA,NA,NA,NA,NA,NA,NA,"","","",NA,"e",1,0.5064,NA,NA,NA,NA,NA,"活泼","e","",NA,1,11,91,28,1,"",NA,"",NA,NA,NA,NA,NA,NA,NA,"",NA,"",NA,NA,NA,NA,NA,NA,NA,"","","",NA,"",NA,NA,NA,NA,NA,NA,NA,"",NA,"27"
"",NA,"",NA,"",NA,NA,NA,NA,NA,NA,NA,"","",1,1,"2024-08-25_11h16.55.004","IAT(Formal)","2021.2.3","Win32",60.24096386,"",NA,"",NA,NA,NA,NA,NA,NA,NA,"","","",NA,"i",1,0.5873,NA,NA,NA,NA,NA,"散漫","i","",NA,1,12,92,41,1,"",NA,"",NA,NA,NA,NA,NA,NA,NA,"",NA,"",NA,NA,NA,NA,NA,NA,NA,"","","",NA,"",NA,NA,NA,NA,NA,NA,NA,"",NA,"27"
"",NA,"",NA,"",NA,NA,NA,NA,NA,NA,NA,"","",1,1,"2024-08-25_11h16.55.004","IAT(Formal)","2021.2.3","Win32",60.24096386,"",NA,"",NA,NA,NA,NA,NA,NA,NA,"","","",NA,"i",1,0.6319,NA,NA,NA,NA,NA,"轻率","i","",NA,1,13,93,48,1,"",NA,"",NA,NA,NA,NA,NA,NA,NA,"",NA,"",NA,NA,NA,NA,NA,NA,NA,"","","",NA,"",NA,NA,NA,NA,NA,NA,NA,"",NA,"27"
"",NA,"",NA,"",NA,NA,NA,NA,NA,NA,NA,"","",1,1,"2024-08-25_11h16.55.004","IAT(Formal)","2021.2.3","Win32",60.24096386,"",NA,"",NA,NA,NA,NA,NA,NA,NA,"","","",NA,"i",1,0.8042,NA,NA,NA,NA,NA,"他","i","",NA,1,14,94,75,1,"",NA,"",NA,NA,NA,NA,NA,NA,NA,"",NA,"",NA,NA,NA,NA,NA,NA,NA,"","","",NA,"",NA,NA,NA,NA,NA,NA,NA,"",NA,"27"
"",NA,"",NA,"",NA,NA,NA,NA,NA,NA,NA,"","",1,1,"2024-08-25_11h16.55.004","IAT(Formal)","2021.2.3","Win32",60.24096386,"",NA,"",NA,NA,NA,NA,NA,NA,NA,"","","",NA,"e",1,1.375,NA,NA,NA,NA,NA,"认真","e","",NA,1,15,95,20,1,"",NA,"",NA,NA,NA,NA,NA,NA,NA,"",NA,"",NA,NA,NA,NA,NA,NA,NA,"","","",NA,"",NA,NA,NA,NA,NA,NA,NA,"",NA,"27"
"",NA,"",NA,"",NA,NA,NA,NA,NA,NA,NA,"","",1,1,"2024-08-25_11h16.55.004","IAT(Formal)","2021.2.3","Win32",60.24096386,"",NA,"",NA,NA,NA,NA,NA,NA,NA,"","","",NA,"e",1,0.7437,NA,NA,NA,NA,NA,"稳重","e","",NA,1,16,96,21,1,"",NA,"",NA,NA,NA,NA,NA,NA,NA,"",NA,"",NA,NA,NA,NA,NA,NA,NA,"","","",NA,"",NA,NA,NA,NA,NA,NA,NA,"",NA,"27"
"",NA,"",NA,"",NA,NA,NA,NA,NA,NA,NA,"","",1,1,"2024-08-25_11h16.55.004","IAT(Formal)","2021.2.3","Win32",60.24096386,"",NA,"",NA,NA,NA,NA,NA,NA,NA,"","","",NA,"i",1,0.5708,NA,NA,NA,NA,NA,"执拗","i","",NA,1,17,97,40,1,"",NA,"",NA,NA,NA,NA,NA,NA,NA,"",NA,"",NA,NA,NA,NA,NA,NA,NA,"","","",NA,"",NA,NA,NA,NA,NA,NA,NA,"",NA,"27"
"",NA,"",NA,"",NA,NA,NA,NA,NA,NA,NA,"","",1,1,"2024-08-25_11h16.55.004","IAT(Formal)","2021.2.3","Win32",60.24096386,"",NA,"",NA,NA,NA,NA,NA,NA,NA,"","","",NA,"e",1,0.7148,NA,NA,NA,NA,NA,"俺","e","",NA,1,18,98,74,1,"",NA,"",NA,NA,NA,NA,NA,NA,NA,"",NA,"",NA,NA,NA,NA,NA,NA,NA,"","","",NA,"",NA,NA,NA,NA,NA,NA,NA,"",NA,"27"
"",NA,"",NA,"",NA,NA,NA,NA,NA,NA,NA,"","",1,1,"2024-08-25_11h16.55.004","IAT(Formal)","2021.2.3","Win32",60.24096386,"",NA,"",NA,NA,NA,NA,NA,NA,NA,"","","",NA,"i",1,0.7329,NA,NA,NA,NA,NA,"他人","i","",NA,1,19,99,78,1,"",NA,"",NA,NA,NA,NA,NA,NA,NA,"",NA,"",NA,NA,NA,NA,NA,NA,NA,"","","",NA,"",NA,NA,NA,NA,NA,NA,NA,"",NA,"27"
"",NA,"",NA,"",NA,NA,NA,NA,NA,NA,NA,"","",1,1,"2024-08-25_11h16.55.004","IAT(Formal)","2021.2.3","Win32",60.24096386,"",NA,"",NA,NA,NA,NA,NA,NA,NA,"","","",NA,"e",1,0.5871,NA,NA,NA,NA,NA,"细腻","e","",NA,1,20,100,25,1,"",NA,"",NA,NA,NA,NA,NA,NA,NA,"",NA,"",NA,NA,NA,NA,NA,NA,NA,"","","",NA,"",NA,NA,NA,NA,NA,NA,NA,"",NA,"27"
"",NA,"",NA,"",NA,NA,NA,NA,NA,NA,NA,"","",1,1,"2024-08-25_11h16.55.004","IAT(Formal)","2021.2.3","Win32",60.24096386,"",NA,"",NA,NA,NA,NA,NA,NA,NA,"","","",NA,"i",1,0.5967,NA,NA,NA,NA,NA,"卑鄙","i","",NA,1,21,101,30,1,"",NA,"",NA,NA,NA,NA,NA,NA,NA,"",NA,"",NA,NA,NA,NA,NA,NA,NA,"","","",NA,"",NA,NA,NA,NA,NA,NA,NA,"",NA,"27"
"",NA,"",NA,"",NA,NA,NA,NA,NA,NA,NA,"","",1,1,"2024-08-25_11h16.55.004","IAT(Formal)","2021.2.3","Win32",60.24096386,"",NA,"",NA,NA,NA,NA,NA,NA,NA,"","","",NA,"i",1,0.7307,NA,NA,NA,NA,NA,"他的","i","",NA,1,22,102,67,1,"",NA,"",NA,NA,NA,NA,NA,NA,NA,"",NA,"",NA,NA,NA,NA,NA,NA,NA,"","","",NA,"",NA,NA,NA,NA,NA,NA,NA,"",NA,"27"
"",NA,"",NA,"",NA,NA,NA,NA,NA,NA,NA,"","",1,1,"2024-08-25_11h16.55.004","IAT(Formal)","2021.2.3","Win32",60.24096386,"",NA,"",NA,NA,NA,NA,NA,NA,NA,"","","",NA,"i",1,0.4557,NA,NA,NA,NA,NA,"他","i","",NA,1,23,103,55,1,"",NA,"",NA,NA,NA,NA,NA,NA,NA,"",NA,"",NA,NA,NA,NA,NA,NA,NA,"","","",NA,"",NA,NA,NA,NA,NA,NA,NA,"",NA,"27"
"",NA,"",NA,"",NA,NA,NA,NA,NA,NA,NA,"","",1,1,"2024-08-25_11h16.55.004","IAT(Formal)","2021.2.3","Win32",60.24096386,"",NA,"",NA,NA,NA,NA,NA,NA,NA,"","","",NA,"i",1,0.5023,NA,NA,NA,NA,NA,"固执","i","",NA,1,24,104,47,1,"",NA,"",NA,NA,NA,NA,NA,NA,NA,"",NA,"",NA,NA,NA,NA,NA,NA,NA,"","","",NA,"",NA,NA,NA,NA,NA,NA,NA,"",NA,"27"
"",NA,"",NA,"",NA,NA,NA,NA,NA,NA,NA,"","",1,1,"2024-08-25_11h16.55.004","IAT(Formal)","2021.2.3","Win32",60.24096386,"",NA,"",NA,NA,NA,NA,NA,NA,NA,"","","",NA,"e",1,0.7896,NA,NA,NA,NA,NA,"自己","e","",NA,1,25,105,73,1,"",NA,"",NA,NA,NA,NA,NA,NA,NA,"",NA,"",NA,NA,NA,NA,NA,NA,NA,"","","",NA,"",NA,NA,NA,NA,NA,NA,NA,"",NA,"27"
"",NA,"",NA,"",NA,NA,NA,NA,NA,NA,NA,"","",1,1,"2024-08-25_11h16.55.004","IAT(Formal)","2021.2.3","Win32",60.24096386,"",NA,"",NA,NA,NA,NA,NA,NA,NA,"","","",NA,"e",1,0.5318,NA,NA,NA,NA,NA,"诚恳","e","",NA,1,26,106,29,1,"",NA,"",NA,NA,NA,NA,NA,NA,NA,"",NA,"",NA,NA,NA,NA,NA,NA,NA,"","","",NA,"",NA,NA,NA,NA,NA,NA,NA,"",NA,"27"
"",NA,"",NA,"",NA,NA,NA,NA,NA,NA,NA,"","",1,1,"2024-08-25_11h16.55.004","IAT(Formal)","2021.2.3","Win32",60.24096386,"",NA,"",NA,NA,NA,NA,NA,NA,NA,"","","",NA,"i",1,0.4882,NA,NA,NA,NA,NA,"下贱","i","",NA,1,27,107,49,1,"",NA,"",NA,NA,NA,NA,NA,NA,NA,"",NA,"",NA,NA,NA,NA,NA,NA,NA,"","","",NA,"",NA,NA,NA,NA,NA,NA,NA,"",NA,"27"
"",NA,"",NA,"",NA,NA,NA,NA,NA,NA,NA,"","",1,1,"2024-08-25_11h16.55.004","IAT(Formal)","2021.2.3","Win32",60.24096386,"",NA,"",NA,NA,NA,NA,NA,NA,NA,"","","",NA,"i",1,0.7277,NA,NA,NA,NA,NA,"其他","i","",NA,1,28,108,59,1,"",NA,"",NA,NA,NA,NA,NA,NA,NA,"",NA,"",NA,NA,NA,NA,NA,NA,NA,"","","",NA,"",NA,NA,NA,NA,NA,NA,NA,"",NA,"27"
"",NA,"",NA,"",NA,NA,NA,NA,NA,NA,NA,"","",1,1,"2024-08-25_11h16.55.004","IAT(Formal)","2021.2.3","Win32",60.24096386,"",NA,"",NA,NA,NA,NA,NA,NA,NA,"","","",NA,"i",1,0.5295,NA,NA,NA,NA,NA,"其他","i","",NA,1,29,109,69,1,"",NA,"",NA,NA,NA,NA,NA,NA,NA,"",NA,"",NA,NA,NA,NA,NA,NA,NA,"","","",NA,"",NA,NA,NA,NA,NA,NA,NA,"",NA,"27"
"",NA,"",NA,"",NA,NA,NA,NA,NA,NA,NA,"","",1,1,"2024-08-25_11h16.55.004","IAT(Formal)","2021.2.3","Win32",60.24096386,"",NA,"",NA,NA,NA,NA,NA,NA,NA,"","","",NA,"i",1,0.7941,NA,NA,NA,NA,NA,"猖狂","i","",NA,1,30,110,45,1,"",NA,"",NA,NA,NA,NA,NA,NA,NA,"",NA,"",NA,NA,NA,NA,NA,NA,NA,"","","",NA,"",NA,NA,NA,NA,NA,NA,NA,"",NA,"27"
"",NA,"",NA,"",NA,NA,NA,NA,NA,NA,NA,"","",1,1,"2024-08-25_11h16.55.004","IAT(Formal)","2021.2.3","Win32",60.24096386,"",NA,"",NA,NA,NA,NA,NA,NA,NA,"","","",NA,"i",1,0.4998,NA,NA,NA,NA,NA,"其他","i","",NA,1,31,111,79,1,"",NA,"",NA,NA,NA,NA,NA,NA,NA,"",NA,"",NA,NA,NA,NA,NA,NA,NA,"","","",NA,"",NA,NA,NA,NA,NA,NA,NA,"",NA,"27"
"",NA,"",NA,"",NA,NA,NA,NA,NA,NA,NA,"","",1,1,"2024-08-25_11h16.55.004","IAT(Formal)","2021.2.3","Win32",60.24096386,"",NA,"",NA,NA,NA,NA,NA,NA,NA,"","","",NA,"i",0,0.4504,NA,NA,NA,NA,NA,"俺","e","",NA,1,32,112,54,1,"",NA,"",NA,NA,NA,NA,NA,NA,NA,"",NA,"",NA,NA,NA,NA,NA,NA,NA,"","","",NA,"",NA,NA,NA,NA,NA,NA,NA,"",NA,"27"
"",NA,"",NA,"",NA,NA,NA,NA,NA,NA,NA,"","",1,1,"2024-08-25_11h16.55.004","IAT(Formal)","2021.2.3","Win32",60.24096386,"",NA,"",NA,NA,NA,NA,NA,NA,NA,"","","",NA,"i",1,0.4594,NA,NA,NA,NA,NA,"刻薄","i","",NA,1,33,113,33,1,"",NA,"",NA,NA,NA,NA,NA,NA,NA,"",NA,"",NA,NA,NA,NA,NA,NA,NA,"","","",NA,"",NA,NA,NA,NA,NA,NA,NA,"",NA,"27"
"",NA,"",NA,"",NA,NA,NA,NA,NA,NA,NA,"","",1,1,"2024-08-25_11h16.55.004","IAT(Formal)","2021.2.3","Win32",60.24096386,"",NA,"",NA,NA,NA,NA,NA,NA,NA,"","","",NA,"i",1,0.4344,NA,NA,NA,NA,NA,"其他","i","",NA,1,34,114,9,1,"",NA,"",NA,NA,NA,NA,NA,NA,NA,"",NA,"",NA,NA,NA,NA,NA,NA,NA,"","","",NA,"",NA,NA,NA,NA,NA,NA,NA,"",NA,"27"
"",NA,"",NA,"",NA,NA,NA,NA,NA,NA,NA,"","",1,1,"2024-08-25_11h16.55.004","IAT(Formal)","2021.2.3","Win32",60.24096386,"",NA,"",NA,NA,NA,NA,NA,NA,NA,"","","",NA,"i",1,0.411,NA,NA,NA,NA,NA,"他人","i","",NA,1,35,115,8,1,"",NA,"",NA,NA,NA,NA,NA,NA,NA,"",NA,"",NA,NA,NA,NA,NA,NA,NA,"","","",NA,"",NA,NA,NA,NA,NA,NA,NA,"",NA,"27"
"",NA,"",NA,"",NA,NA,NA,NA,NA,NA,NA,"","",1,1,"2024-08-25_11h16.55.004","IAT(Formal)","2021.2.3","Win32",60.24096386,"",NA,"",NA,NA,NA,NA,NA,NA,NA,"","","",NA,"e",1,0.5682,NA,NA,NA,NA,NA,"冷静","e","",NA,1,36,116,26,1,"",NA,"",NA,NA,NA,NA,NA,NA,NA,"",NA,"",NA,NA,NA,NA,NA,NA,NA,"","","",NA,"",NA,NA,NA,NA,NA,NA,NA,"",NA,"27"
"",NA,"",NA,"",NA,NA,NA,NA,NA,NA,NA,"","",1,1,"2024-08-25_11h16.55.004","IAT(Formal)","2021.2.3","Win32",60.24096386,"",NA,"",NA,NA,NA,NA,NA,NA,NA,"","","",NA,"e",1,0.4227,NA,NA,NA,NA,NA,"热情","e","",NA,1,37,117,27,1,"",NA,"",NA,NA,NA,NA,NA,NA,NA,"",NA,"",NA,NA,NA,NA,NA,NA,NA,"","","",NA,"",NA,NA,NA,NA,NA,NA,NA,"",NA,"27"
"",NA,"",NA,"",NA,NA,NA,NA,NA,NA,NA,"","",1,1,"2024-08-25_11h16.55.004","IAT(Formal)","2021.2.3","Win32",60.24096386,"",NA,"",NA,NA,NA,NA,NA,NA,NA,"","","",NA,"i",1,0.646,NA,NA,NA,NA,NA,"悲观","i","",NA,1,38,118,34,1,"",NA,"",NA,NA,NA,NA,NA,NA,NA,"",NA,"",NA,NA,NA,NA,NA,NA,NA,"","","",NA,"",NA,NA,NA,NA,NA,NA,NA,"",NA,"27"
"",NA,"",NA,"",NA,NA,NA,NA,NA,NA,NA,"","",1,1,"2024-08-25_11h16.55.004","IAT(Formal)","2021.2.3","Win32",60.24096386,"",NA,"",NA,NA,NA,NA,NA,NA,NA,"","","",NA,"i",1,0.5562,NA,NA,NA,NA,NA,"傲慢","i","",NA,1,39,119,37,1,"",NA,"",NA,NA,NA,NA,NA,NA,NA,"",NA,"",NA,NA,NA,NA,NA,NA,NA,"","","",NA,"",NA,NA,NA,NA,NA,NA,NA,"",NA,"27"
"",NA,"",NA,"",NA,NA,NA,NA,NA,NA,NA,"","",1,1,"2024-08-25_11h16.55.004","IAT(Formal)","2021.2.3","Win32",60.24096386,"",NA,"",NA,NA,NA,NA,NA,NA,NA,"","","",NA,"i",1,0.4069,NA,NA,NA,NA,NA,"他们","i","",NA,1,40,120,76,1,"",NA,"",NA,NA,NA,NA,NA,NA,NA,"",NA,"",NA,NA,NA,NA,NA,NA,NA,"","","",NA,"",NA,NA,NA,NA,NA,NA,NA,"",NA,"27"
"",NA,"",NA,"",NA,NA,NA,NA,NA,NA,NA,"","",1,1,"2024-08-25_11h16.55.004","IAT(Formal)","2021.2.3","Win32",60.24096386,"",NA,"",NA,NA,NA,NA,NA,NA,NA,"","","",NA,"i",1,0.4534,NA,NA,NA,NA,NA,"暴躁","i","",NA,1,41,121,44,1,"",NA,"",NA,NA,NA,NA,NA,NA,NA,"",NA,"",NA,NA,NA,NA,NA,NA,NA,"","","",NA,"",NA,NA,NA,NA,NA,NA,NA,"",NA,"27"
"",NA,"",NA,"",NA,NA,NA,NA,NA,NA,NA,"","",1,1,"2024-08-25_11h16.55.004","IAT(Formal)","2021.2.3","Win32",60.24096386,"",NA,"",NA,NA,NA,NA,NA,NA,NA,"","","",NA,"e",1,0.6788,NA,NA,NA,NA,NA,"正直","e","",NA,1,42,122,16,1,"",NA,"",NA,NA,NA,NA,NA,NA,NA,"",NA,"",NA,NA,NA,NA,NA,NA,NA,"","","",NA,"",NA,NA,NA,NA,NA,NA,NA,"",NA,"27"
"",NA,"",NA,"",NA,NA,NA,NA,NA,NA,NA,"","",1,1,"2024-08-25_11h16.55.004","IAT(Formal)","2021.2.3","Win32",60.24096386,"",NA,"",NA,NA,NA,NA,NA,NA,NA,"","","",NA,"i",1,0.8847,NA,NA,NA,NA,NA,"他","i","",NA,1,43,123,65,1,"",NA,"",NA,NA,NA,NA,NA,NA,NA,"",NA,"",NA,NA,NA,NA,NA,NA,NA,"","","",NA,"",NA,NA,NA,NA,NA,NA,NA,"",NA,"27"
"",NA,"",NA,"",NA,NA,NA,NA,NA,NA,NA,"","",1,1,"2024-08-25_11h16.55.004","IAT(Formal)","2021.2.3","Win32",60.24096386,"",NA,"",NA,NA,NA,NA,NA,NA,NA,"","","",NA,"e",1,0.5958,NA,NA,NA,NA,NA,"我的","e","",NA,1,44,124,51,1,"",NA,"",NA,NA,NA,NA,NA,NA,NA,"",NA,"",NA,NA,NA,NA,NA,NA,NA,"","","",NA,"",NA,NA,NA,NA,NA,NA,NA,"",NA,"27"
"",NA,"",NA,"",NA,NA,NA,NA,NA,NA,NA,"","",1,1,"2024-08-25_11h16.55.004","IAT(Formal)","2021.2.3","Win32",60.24096386,"",NA,"",NA,NA,NA,NA,NA,NA,NA,"","","",NA,"e",1,0.4243,NA,NA,NA,NA,NA,"我","e","",NA,1,45,125,0,1,"",NA,"",NA,NA,NA,NA,NA,NA,NA,"",NA,"",NA,NA,NA,NA,NA,NA,NA,"","","",NA,"",NA,NA,NA,NA,NA,NA,NA,"",NA,"27"
"",NA,"",NA,"",NA,NA,NA,NA,NA,NA,NA,"","",1,1,"2024-08-25_11h16.55.004","IAT(Formal)","2021.2.3","Win32",60.24096386,"",NA,"",NA,NA,NA,NA,NA,NA,NA,"","","",NA,"i",1,0.504,NA,NA,NA,NA,NA,"他们","i","",NA,1,46,126,66,1,"",NA,"",NA,NA,NA,NA,NA,NA,NA,"",NA,"",NA,NA,NA,NA,NA,NA,NA,"","","",NA,"",NA,NA,NA,NA,NA,NA,NA,"",NA,"27"
"",NA,"",NA,"",NA,NA,NA,NA,NA,NA,NA,"","",1,1,"2024-08-25_11h16.55.004","IAT(Formal)","2021.2.3","Win32",60.24096386,"",NA,"",NA,NA,NA,NA,NA,NA,NA,"","","",NA,"i",1,0.47,NA,NA,NA,NA,NA,"他","i","",NA,1,47,127,5,1,"",NA,"",NA,NA,NA,NA,NA,NA,NA,"",NA,"",NA,NA,NA,NA,NA,NA,NA,"","","",NA,"",NA,NA,NA,NA,NA,NA,NA,"",NA,"27"
"",NA,"",NA,"",NA,NA,NA,NA,NA,NA,NA,"","",1,1,"2024-08-25_11h16.55.004","IAT(Formal)","2021.2.3","Win32",60.24096386,"",NA,"",NA,NA,NA,NA,NA,NA,NA,"","","",NA,"i",1,0.5508,NA,NA,NA,NA,NA,"凶狠","i","",NA,1,48,128,42,1,"",NA,"",NA,NA,NA,NA,NA,NA,NA,"",NA,"",NA,NA,NA,NA,NA,NA,NA,"","","",NA,"",NA,NA,NA,NA,NA,NA,NA,"",NA,"27"
"",NA,"",NA,"",NA,NA,NA,NA,NA,NA,NA,"","",1,1,"2024-08-25_11h16.55.004","IAT(Formal)","2021.2.3","Win32",60.24096386,"",NA,"",NA,NA,NA,NA,NA,NA,NA,"","","",NA,"e",1,0.5176,NA,NA,NA,NA,NA,"我们","e","",NA,1,49,129,2,1,"",NA,"",NA,NA,NA,NA,NA,NA,NA,"",NA,"",NA,NA,NA,NA,NA,NA,NA,"","","",NA,"",NA,NA,NA,NA,NA,NA,NA,"",NA,"27"
"",NA,"",NA,"",NA,NA,NA,NA,NA,NA,NA,"","",1,1,"2024-08-25_11h16.55.004","IAT(Formal)","2021.2.3","Win32",60.24096386,"",NA,"",NA,NA,NA,NA,NA,NA,NA,"","","",NA,"e",1,0.6674,NA,NA,NA,NA,NA,"诚实","e","",NA,1,50,130,15,1,"",NA,"",NA,NA,NA,NA,NA,NA,NA,"",NA,"",NA,NA,NA,NA,NA,NA,NA,"","","",NA,"",NA,NA,NA,NA,NA,NA,NA,"",NA,"27"
"",NA,"",NA,"",NA,NA,NA,NA,NA,NA,NA,"","",1,1,"2024-08-25_11h16.55.004","IAT(Formal)","2021.2.3","Win32",60.24096386,"",NA,"",NA,NA,NA,NA,NA,NA,NA,"","","",NA,"e",1,0.4674,NA,NA,NA,NA,NA,"崇高","e","",NA,1,51,131,11,1,"",NA,"",NA,NA,NA,NA,NA,NA,NA,"",NA,"",NA,NA,NA,NA,NA,NA,NA,"","","",NA,"",NA,NA,NA,NA,NA,NA,NA,"",NA,"27"
"",NA,"",NA,"",NA,NA,NA,NA,NA,NA,NA,"","",1,1,"2024-08-25_11h16.55.004","IAT(Formal)","2021.2.3","Win32",60.24096386,"",NA,"",NA,NA,NA,NA,NA,NA,NA,"","","",NA,"e",1,0.4222,NA,NA,NA,NA,NA,"自己","e","",NA,1,52,132,63,1,"",NA,"",NA,NA,NA,NA,NA,NA,NA,"",NA,"",NA,NA,NA,NA,NA,NA,NA,"","","",NA,"",NA,NA,NA,NA,NA,NA,NA,"",NA,"27"
"",NA,"",NA,"",NA,NA,NA,NA,NA,NA,NA,"","",1,1,"2024-08-25_11h16.55.004","IAT(Formal)","2021.2.3","Win32",60.24096386,"",NA,"",NA,NA,NA,NA,NA,NA,NA,"","","",NA,"i",1,0.6178,NA,NA,NA,NA,NA,"他们","i","",NA,1,53,133,6,1,"",NA,"",NA,NA,NA,NA,NA,NA,NA,"",NA,"",NA,NA,NA,NA,NA,NA,NA,"","","",NA,"",NA,NA,NA,NA,NA,NA,NA,"",NA,"27"
"",NA,"",NA,"",NA,NA,NA,NA,NA,NA,NA,"","",1,1,"2024-08-25_11h16.55.004","IAT(Formal)","2021.2.3","Win32",60.24096386,"",NA,"",NA,NA,NA,NA,NA,NA,NA,"","","",NA,"i",1,0.9177,NA,NA,NA,NA,NA,"自卑","i","",NA,1,54,134,36,1,"",NA,"",NA,NA,NA,NA,NA,NA,NA,"",NA,"",NA,NA,NA,NA,NA,NA,NA,"","","",NA,"",NA,NA,NA,NA,NA,NA,NA,"",NA,"27"
"",NA,"",NA,"",NA,NA,NA,NA,NA,NA,NA,"","",1,1,"2024-08-25_11h16.55.004","IAT(Formal)","2021.2.3","Win32",60.24096386,"",NA,"",NA,NA,NA,NA,NA,NA,NA,"","","",NA,"e",1,0.6938,NA,NA,NA,NA,NA,"自己","e","",NA,1,55,135,53,1,"",NA,"",NA,NA,NA,NA,NA,NA,NA,"",NA,"",NA,NA,NA,NA,NA,NA,NA,"","","",NA,"",NA,NA,NA,NA,NA,NA,NA,"",NA,"27"
"",NA,"",NA,"",NA,NA,NA,NA,NA,NA,NA,"","",1,1,"2024-08-25_11h16.55.004","IAT(Formal)","2021.2.3","Win32",60.24096386,"",NA,"",NA,NA,NA,NA,NA,NA,NA,"","","",NA,"e",1,0.6178,NA,NA,NA,NA,NA,"朴实","e","",NA,1,56,136,24,1,"",NA,"",NA,NA,NA,NA,NA,NA,NA,"",NA,"",NA,NA,NA,NA,NA,NA,NA,"","","",NA,"",NA,NA,NA,NA,NA,NA,NA,"",NA,"27"
"",NA,"",NA,"",NA,NA,NA,NA,NA,NA,NA,"","",1,1,"2024-08-25_11h16.55.004","IAT(Formal)","2021.2.3","Win32",60.24096386,"",NA,"",NA,NA,NA,NA,NA,NA,NA,"","","",NA,"i",1,0.5188,NA,NA,NA,NA,NA,"虚伪","i","",NA,1,57,137,31,1,"",NA,"",NA,NA,NA,NA,NA,NA,NA,"",NA,"",NA,NA,NA,NA,NA,NA,NA,"","","",NA,"",NA,NA,NA,NA,NA,NA,NA,"",NA,"27"
"",NA,"",NA,"",NA,NA,NA,NA,NA,NA,NA,"","",1,1,"2024-08-25_11h16.55.004","IAT(Formal)","2021.2.3","Win32",60.24096386,"",NA,"",NA,NA,NA,NA,NA,NA,NA,"","","",NA,"i",1,0.5041,NA,NA,NA,NA,NA,"他人","i","",NA,1,58,138,68,1,"",NA,"",NA,NA,NA,NA,NA,NA,NA,"",NA,"",NA,NA,NA,NA,NA,NA,NA,"","","",NA,"",NA,NA,NA,NA,NA,NA,NA,"",NA,"27"
"",NA,"",NA,"",NA,NA,NA,NA,NA,NA,NA,"","",1,1,"2024-08-25_11h16.55.004","IAT(Formal)","2021.2.3","Win32",60.24096386,"",NA,"",NA,NA,NA,NA,NA,NA,NA,"","","",NA,"e",1,0.5684,NA,NA,NA,NA,NA,"俺","e","",NA,1,59,139,4,1,"",NA,"",NA,NA,NA,NA,NA,NA,NA,"",NA,"",NA,NA,NA,NA,NA,NA,NA,"","","",NA,"",NA,NA,NA,NA,NA,NA,NA,"",NA,"27"
"",NA,"",NA,"",NA,NA,NA,NA,NA,NA,NA,"","",1,1,"2024-08-25_11h16.55.004","IAT(Formal)","2021.2.3","Win32",60.24096386,"",NA,"",NA,NA,NA,NA,NA,NA,NA,"","","",NA,"e",1,0.5684,NA,NA,NA,NA,NA,"乐观","e","",NA,1,60,140,14,1,"",NA,"",NA,NA,NA,NA,NA,NA,NA,"",NA,"",NA,NA,NA,NA,NA,NA,NA,"","","",NA,"",NA,NA,NA,NA,NA,NA,NA,"",NA,"27"
"",NA,"",NA,"",NA,NA,NA,NA,NA,NA,NA,"","",1,1,"2024-08-25_11h16.55.004","IAT(Formal)","2021.2.3","Win32",60.24096386,"",NA,"",NA,NA,NA,NA,NA,NA,NA,"","","",NA,"i",1,0.4652,NA,NA,NA,NA,NA,"他人","i","",NA,1,61,141,58,1,"",NA,"",NA,NA,NA,NA,NA,NA,NA,"",NA,"",NA,NA,NA,NA,NA,NA,NA,"","","",NA,"",NA,NA,NA,NA,NA,NA,NA,"",NA,"27"
"",NA,"",NA,"",NA,NA,NA,NA,NA,NA,NA,"","",1,1,"2024-08-25_11h16.55.004","IAT(Formal)","2021.2.3","Win32",60.24096386,"",NA,"",NA,NA,NA,NA,NA,NA,NA,"","","",NA,"e",1,0.4996,NA,NA,NA,NA,NA,"聪明","e","",NA,1,62,142,12,1,"",NA,"",NA,NA,NA,NA,NA,NA,NA,"",NA,"",NA,NA,NA,NA,NA,NA,NA,"","","",NA,"",NA,NA,NA,NA,NA,NA,NA,"",NA,"27"
"",NA,"",NA,"",NA,NA,NA,NA,NA,NA,NA,"","",1,1,"2024-08-25_11h16.55.004","IAT(Formal)","2021.2.3","Win32",60.24096386,"",NA,"",NA,NA,NA,NA,NA,NA,NA,"","","",NA,"i",1,0.5431,NA,NA,NA,NA,NA,"自私","i","",NA,1,63,143,43,1,"",NA,"",NA,NA,NA,NA,NA,NA,NA,"",NA,"",NA,NA,NA,NA,NA,NA,NA,"","","",NA,"",NA,NA,NA,NA,NA,NA,NA,"",NA,"27"
"",NA,"",NA,"",NA,NA,NA,NA,NA,NA,NA,"","",1,1,"2024-08-25_11h16.55.004","IAT(Formal)","2021.2.3","Win32",60.24096386,"",NA,"",NA,NA,NA,NA,NA,NA,NA,"","","",NA,"i",1,0.6321,NA,NA,NA,NA,NA,"冒失","i","",NA,1,64,144,39,1,"",NA,"",NA,NA,NA,NA,NA,NA,NA,"",NA,"",NA,NA,NA,NA,NA,NA,NA,"","","",NA,"",NA,NA,NA,NA,NA,NA,NA,"",NA,"27"
"",NA,"",NA,"",NA,NA,NA,NA,NA,NA,NA,"","",1,1,"2024-08-25_11h16.55.004","IAT(Formal)","2021.2.3","Win32",60.24096386,"",NA,"",NA,NA,NA,NA,NA,NA,NA,"","","",NA,"e",1,0.6233,NA,NA,NA,NA,NA,"勤奋","e","",NA,1,65,145,18,1,"",NA,"",NA,NA,NA,NA,NA,NA,NA,"",NA,"",NA,NA,NA,NA,NA,NA,NA,"","","",NA,"",NA,NA,NA,NA,NA,NA,NA,"",NA,"27"
"",NA,"",NA,"",NA,NA,NA,NA,NA,NA,NA,"","",1,1,"2024-08-25_11h16.55.004","IAT(Formal)","2021.2.3","Win32",60.24096386,"",NA,"",NA,NA,NA,NA,NA,NA,NA,"","","",NA,"e",1,0.4959,NA,NA,NA,NA,NA,"优秀","e","",NA,1,66,146,10,1,"",NA,"",NA,NA,NA,NA,NA,NA,NA,"",NA,"",NA,NA,NA,NA,NA,NA,NA,"","","",NA,"",NA,NA,NA,NA,NA,NA,NA,"",NA,"27"
"",NA,"",NA,"",NA,NA,NA,NA,NA,NA,NA,"","",1,1,"2024-08-25_11h16.55.004","IAT(Formal)","2021.2.3","Win32",60.24096386,"",NA,"",NA,NA,NA,NA,NA,NA,NA,"","","",NA,"i",1,0.6451,NA,NA,NA,NA,NA,"愚蠢","i","",NA,1,67,147,32,1,"",NA,"",NA,NA,NA,NA,NA,NA,NA,"",NA,"",NA,NA,NA,NA,NA,NA,NA,"","","",NA,"",NA,NA,NA,NA,NA,NA,NA,"",NA,"27"
"",NA,"",NA,"",NA,NA,NA,NA,NA,NA,NA,"","",1,1,"2024-08-25_11h16.55.004","IAT(Formal)","2021.2.3","Win32",60.24096386,"",NA,"",NA,NA,NA,NA,NA,NA,NA,"","","",NA,"e",1,0.5157,NA,NA,NA,NA,NA,"我们","e","",NA,1,68,148,52,1,"",NA,"",NA,NA,NA,NA,NA,NA,NA,"",NA,"",NA,NA,NA,NA,NA,NA,NA,"","","",NA,"",NA,NA,NA,NA,NA,NA,NA,"",NA,"27"
"",NA,"",NA,"",NA,NA,NA,NA,NA,NA,NA,"","",1,1,"2024-08-25_11h16.55.004","IAT(Formal)","2021.2.3","Win32",60.24096386,"",NA,"",NA,NA,NA,NA,NA,NA,NA,"","","",NA,"i",1,0.5987,NA,NA,NA,NA,NA,"他们","i","",NA,1,69,149,56,1,"",NA,"",NA,NA,NA,NA,NA,NA,NA,"",NA,"",NA,NA,NA,NA,NA,NA,NA,"","","",NA,"",NA,NA,NA,NA,NA,NA,NA,"",NA,"27"
"",NA,"",NA,"",NA,NA,NA,NA,NA,NA,NA,"","",1,1,"2024-08-25_11h16.55.004","IAT(Formal)","2021.2.3","Win32",60.24096386,"",NA,"",NA,NA,NA,NA,NA,NA,NA,"","","",NA,"i",1,0.6961,NA,NA,NA,NA,NA,"消极","i","",NA,1,70,150,35,1,"",NA,"",NA,NA,NA,NA,NA,NA,NA,"",NA,"",NA,NA,NA,NA,NA,NA,NA,"","","",NA,"",NA,NA,NA,NA,NA,NA,NA,"",NA,"27"
"",NA,"",NA,"",NA,NA,NA,NA,NA,NA,NA,"","",1,1,"2024-08-25_11h16.55.004","IAT(Formal)","2021.2.3","Win32",60.24096386,"",NA,"",NA,NA,NA,NA,NA,NA,NA,"","","",NA,"e",1,0.5005,NA,NA,NA,NA,NA,"我们","e","",NA,1,71,151,72,1,"",NA,"",NA,NA,NA,NA,NA,NA,NA,"",NA,"",NA,NA,NA,NA,NA,NA,NA,"","","",NA,"",NA,NA,NA,NA,NA,NA,NA,"",NA,"27"
"",NA,"",NA,"",NA,NA,NA,NA,NA,NA,NA,"","",1,1,"2024-08-25_11h16.55.004","IAT(Formal)","2021.2.3","Win32",60.24096386,"",NA,"",NA,NA,NA,NA,NA,NA,NA,"","","",NA,"e",1,0.5746,NA,NA,NA,NA,NA,"公正","e","",NA,1,72,152,23,1,"",NA,"",NA,NA,NA,NA,NA,NA,NA,"",NA,"",NA,NA,NA,NA,NA,NA,NA,"","","",NA,"",NA,NA,NA,NA,NA,NA,NA,"",NA,"27"
"",NA,"",NA,"",NA,NA,NA,NA,NA,NA,NA,"","",1,1,"2024-08-25_11h16.55.004","IAT(Formal)","2021.2.3","Win32",60.24096386,"",NA,"",NA,NA,NA,NA,NA,NA,NA,"","","",NA,"i",1,0.7811,NA,NA,NA,NA,NA,"他的","i","",NA,1,73,153,7,1,"",NA,"",NA,NA,NA,NA,NA,NA,NA,"",NA,"",NA,NA,NA,NA,NA,NA,NA,"","","",NA,"",NA,NA,NA,NA,NA,NA,NA,"",NA,"27"
"",NA,"",NA,"",NA,NA,NA,NA,NA,NA,NA,"","",1,1,"2024-08-25_11h16.55.004","IAT(Formal)","2021.2.3","Win32",60.24096386,"",NA,"",NA,NA,NA,NA,NA,NA,NA,"","","",NA,"e",1,0.4919,NA,NA,NA,NA,NA,"我的","e","",NA,1,74,154,1,1,"",NA,"",NA,NA,NA,NA,NA,NA,NA,"",NA,"",NA,NA,NA,NA,NA,NA,NA,"","","",NA,"",NA,NA,NA,NA,NA,NA,NA,"",NA,"27"
"",NA,"",NA,"",NA,NA,NA,NA,NA,NA,NA,"","",1,1,"2024-08-25_11h16.55.004","IAT(Formal)","2021.2.3","Win32",60.24096386,"",NA,"",NA,NA,NA,NA,NA,NA,NA,"","","",NA,"e",1,0.4966,NA,NA,NA,NA,NA,"勇敢","e","",NA,1,75,155,17,1,"",NA,"",NA,NA,NA,NA,NA,NA,NA,"",NA,"",NA,NA,NA,NA,NA,NA,NA,"","","",NA,"",NA,NA,NA,NA,NA,NA,NA,"",NA,"27"
"",NA,"",NA,"",NA,NA,NA,NA,NA,NA,NA,"","",1,1,"2024-08-25_11h16.55.004","IAT(Formal)","2021.2.3","Win32",60.24096386,"",NA,"",NA,NA,NA,NA,NA,NA,NA,"","","",NA,"e",1,0.574,NA,NA,NA,NA,NA,"杰出","e","",NA,1,76,156,13,1,"",NA,"",NA,NA,NA,NA,NA,NA,NA,"",NA,"",NA,NA,NA,NA,NA,NA,NA,"","","",NA,"",NA,NA,NA,NA,NA,NA,NA,"",NA,"27"
"",NA,"",NA,"",NA,NA,NA,NA,NA,NA,NA,"","",1,1,"2024-08-25_11h16.55.004","IAT(Formal)","2021.2.3","Win32",60.24096386,"",NA,"",NA,NA,NA,NA,NA,NA,NA,"","","",NA,"e",1,0.4748,NA,NA,NA,NA,NA,"我","e","",NA,1,77,157,70,1,"",NA,"",NA,NA,NA,NA,NA,NA,NA,"",NA,"",NA,NA,NA,NA,NA,NA,NA,"","","",NA,"",NA,NA,NA,NA,NA,NA,NA,"",NA,"27"
"",NA,"",NA,"",NA,NA,NA,NA,NA,NA,NA,"","",1,1,"2024-08-25_11h16.55.004","IAT(Formal)","2021.2.3","Win32",60.24096386,"",NA,"",NA,NA,NA,NA,NA,NA,NA,"","","",NA,"e",1,0.4015,NA,NA,NA,NA,NA,"我","e","",NA,1,78,158,50,1,"",NA,"",NA,NA,NA,NA,NA,NA,NA,"",NA,"",NA,NA,NA,NA,NA,NA,NA,"","","",NA,"",NA,NA,NA,NA,NA,NA,NA,"",NA,"27"
"",NA,"",NA,"",NA,NA,NA,NA,NA,NA,NA,"","",1,1,"2024-08-25_11h16.55.004","IAT(Formal)","2021.2.3","Win32",60.24096386,"",NA,"",NA,NA,NA,NA,NA,NA,NA,"","","",NA,"i",1,0.5523,NA,NA,NA,NA,NA,"他的","i","",NA,1,79,159,57,1,"",NA,"",NA,NA,NA,NA,NA,NA,NA,"",NA,"",NA,NA,NA,NA,NA,NA,NA,"","","",NA,"",NA,NA,NA,NA,NA,NA,NA,"",NA,"27"
"",NA,"",NA,"",NA,NA,NA,NA,NA,NA,NA,"他的","e",1,1,"2024-08-25_11h16.55.004","IAT(Formal)","2021.2.3","Win32",60.24096386,"",NA,"",NA,NA,NA,NA,NA,NA,NA,"","","",NA,"",NA,NA,NA,NA,NA,NA,NA,"","","",NA,NA,NA,NA,NA,NA,"space",24.1284,"e",1,0.7807,0,0,0,7,1,"",NA,"",NA,NA,NA,NA,NA,NA,NA,"","","",NA,"",NA,NA,NA,NA,NA,NA,NA,"",NA,"27"
"",NA,"",NA,"",NA,NA,NA,NA,NA,NA,NA,"俺","i",1,1,"2024-08-25_11h16.55.004","IAT(Formal)","2021.2.3","Win32",60.24096386,"",NA,"",NA,NA,NA,NA,NA,NA,NA,"","","",NA,"",NA,NA,NA,NA,NA,NA,NA,"","","",NA,NA,NA,NA,NA,NA,"",NA,"i",1,0.6302,0,1,1,4,1,"",NA,"",NA,NA,NA,NA,NA,NA,NA,"","","",NA,"",NA,NA,NA,NA,NA,NA,NA,"",NA,"27"
"",NA,"",NA,"",NA,NA,NA,NA,NA,NA,NA,"我","i",1,1,"2024-08-25_11h16.55.004","IAT(Formal)","2021.2.3","Win32",60.24096386,"",NA,"",NA,NA,NA,NA,NA,NA,NA,"","","",NA,"",NA,NA,NA,NA,NA,NA,NA,"","","",NA,NA,NA,NA,NA,NA,"",NA,"i",1,0.5201,0,2,2,0,1,"",NA,"",NA,NA,NA,NA,NA,NA,NA,"","","",NA,"",NA,NA,NA,NA,NA,NA,NA,"",NA,"27"
"",NA,"",NA,"",NA,NA,NA,NA,NA,NA,NA,"我们","i",1,1,"2024-08-25_11h16.55.004","IAT(Formal)","2021.2.3","Win32",60.24096386,"",NA,"",NA,NA,NA,NA,NA,NA,NA,"","","",NA,"",NA,NA,NA,NA,NA,NA,NA,"","","",NA,NA,NA,NA,NA,NA,"",NA,"i",1,0.5153,0,3,3,2,1,"",NA,"",NA,NA,NA,NA,NA,NA,NA,"","","",NA,"",NA,NA,NA,NA,NA,NA,NA,"",NA,"27"
"",NA,"",NA,"",NA,NA,NA,NA,NA,NA,NA,"他们","e",1,1,"2024-08-25_11h16.55.004","IAT(Formal)","2021.2.3","Win32",60.24096386,"",NA,"",NA,NA,NA,NA,NA,NA,NA,"","","",NA,"",NA,NA,NA,NA,NA,NA,NA,"","","",NA,NA,NA,NA,NA,NA,"",NA,"e",1,0.6322,0,4,4,6,1,"",NA,"",NA,NA,NA,NA,NA,NA,NA,"","","",NA,"",NA,NA,NA,NA,NA,NA,NA,"",NA,"27"
"",NA,"",NA,"",NA,NA,NA,NA,NA,NA,NA,"他人","e",1,1,"2024-08-25_11h16.55.004","IAT(Formal)","2021.2.3","Win32",60.24096386,"",NA,"",NA,NA,NA,NA,NA,NA,NA,"","","",NA,"",NA,NA,NA,NA,NA,NA,NA,"","","",NA,NA,NA,NA,NA,NA,"",NA,"i",0,0.5375,0,5,5,8,1,"",NA,"",NA,NA,NA,NA,NA,NA,NA,"","","",NA,"",NA,NA,NA,NA,NA,NA,NA,"",NA,"27"
"",NA,"",NA,"",NA,NA,NA,NA,NA,NA,NA,"我的","i",1,1,"2024-08-25_11h16.55.004","IAT(Formal)","2021.2.3","Win32",60.24096386,"",NA,"",NA,NA,NA,NA,NA,NA,NA,"","","",NA,"",NA,NA,NA,NA,NA,NA,NA,"","","",NA,NA,NA,NA,NA,NA,"",NA,"i",1,1.2179,0,6,6,1,1,"",NA,"",NA,NA,NA,NA,NA,NA,NA,"","","",NA,"",NA,NA,NA,NA,NA,NA,NA,"",NA,"27"
"",NA,"",NA,"",NA,NA,NA,NA,NA,NA,NA,"其他","e",1,1,"2024-08-25_11h16.55.004","IAT(Formal)","2021.2.3","Win32",60.24096386,"",NA,"",NA,NA,NA,NA,NA,NA,NA,"","","",NA,"",NA,NA,NA,NA,NA,NA,NA,"","","",NA,NA,NA,NA,NA,NA,"",NA,"e",1,0.6308,0,7,7,9,1,"",NA,"",NA,NA,NA,NA,NA,NA,NA,"","","",NA,"",NA,NA,NA,NA,NA,NA,NA,"",NA,"27"
"",NA,"",NA,"",NA,NA,NA,NA,NA,NA,NA,"他","e",1,1,"2024-08-25_11h16.55.004","IAT(Formal)","2021.2.3","Win32",60.24096386,"",NA,"",NA,NA,NA,NA,NA,NA,NA,"","","",NA,"",NA,NA,NA,NA,NA,NA,NA,"","","",NA,NA,NA,NA,NA,NA,"",NA,"e",1,0.6217,0,8,8,5,1,"",NA,"",NA,NA,NA,NA,NA,NA,NA,"","","",NA,"",NA,NA,NA,NA,NA,NA,NA,"",NA,"27"
"",NA,"",NA,"",NA,NA,NA,NA,NA,NA,NA,"自己","i",1,1,"2024-08-25_11h16.55.004","IAT(Formal)","2021.2.3","Win32",60.24096386,"",NA,"",NA,NA,NA,NA,NA,NA,NA,"","","",NA,"",NA,NA,NA,NA,NA,NA,NA,"","","",NA,NA,NA,NA,NA,NA,"",NA,"i",1,0.6474,0,9,9,3,1,"",NA,"",NA,NA,NA,NA,NA,NA,NA,"","","",NA,"",NA,NA,NA,NA,NA,NA,NA,"",NA,"27"
"",NA,"",NA,"",NA,NA,NA,NA,NA,NA,NA,"","",1,1,"2024-08-25_11h16.55.004","IAT(Formal)","2021.2.3","Win32",60.24096386,"",NA,"",NA,NA,NA,NA,NA,NA,NA,"","","",NA,"",NA,NA,NA,NA,NA,NA,NA,"","","",NA,NA,NA,NA,NA,NA,"",NA,"",NA,NA,NA,NA,NA,NA,NA,"space",11.8125,"i",0,0.8987,0,0,0,27,1,"热情","e","",NA,"",NA,NA,NA,NA,NA,NA,NA,"",NA,"27"
"",NA,"",NA,"",NA,NA,NA,NA,NA,NA,NA,"","",1,1,"2024-08-25_11h16.55.004","IAT(Formal)","2021.2.3","Win32",60.24096386,"",NA,"",NA,NA,NA,NA,NA,NA,NA,"","","",NA,"",NA,NA,NA,NA,NA,NA,NA,"","","",NA,NA,NA,NA,NA,NA,"",NA,"",NA,NA,NA,NA,NA,NA,NA,"",NA,"e",1,0.7992,0,1,1,24,1,"朴实","e","",NA,"",NA,NA,NA,NA,NA,NA,NA,"",NA,"27"
"",NA,"",NA,"",NA,NA,NA,NA,NA,NA,NA,"","",1,1,"2024-08-25_11h16.55.004","IAT(Formal)","2021.2.3","Win32",60.24096386,"",NA,"",NA,NA,NA,NA,NA,NA,NA,"","","",NA,"",NA,NA,NA,NA,NA,NA,NA,"","","",NA,NA,NA,NA,NA,NA,"",NA,"",NA,NA,NA,NA,NA,NA,NA,"",NA,"i",1,1.1078,0,2,2,32,1,"愚蠢","i","",NA,"",NA,NA,NA,NA,NA,NA,NA,"",NA,"27"
"",NA,"",NA,"",NA,NA,NA,NA,NA,NA,NA,"","",1,1,"2024-08-25_11h16.55.004","IAT(Formal)","2021.2.3","Win32",60.24096386,"",NA,"",NA,NA,NA,NA,NA,NA,NA,"","","",NA,"",NA,NA,NA,NA,NA,NA,NA,"","","",NA,NA,NA,NA,NA,NA,"",NA,"",NA,NA,NA,NA,NA,NA,NA,"",NA,"e",1,0.6672,0,3,3,13,1,"杰出","e","",NA,"",NA,NA,NA,NA,NA,NA,NA,"",NA,"27"
"",NA,"",NA,"",NA,NA,NA,NA,NA,NA,NA,"","",1,1,"2024-08-25_11h16.55.004","IAT(Formal)","2021.2.3","Win32",60.24096386,"",NA,"",NA,NA,NA,NA,NA,NA,NA,"","","",NA,"",NA,NA,NA,NA,NA,NA,NA,"","","",NA,NA,NA,NA,NA,NA,"",NA,"",NA,NA,NA,NA,NA,NA,NA,"",NA,"e",1,0.8378,0,4,4,5,1,"他","e","",NA,"",NA,NA,NA,NA,NA,NA,NA,"",NA,"27"
