"X.Instruction1.keys","Instruction1.rt","Instruction2.keys","Instruction2.rt","key_resp_iso.keys","key_resp_iso.corr","key_resp_iso.rt","Practice_01.thisRepN","Practice_01.thisTrialN","Practice_01.thisN","Practice_01.thisIndex","Practice_01.ran","Words","ans","participant","session","date","expName","psychopyVersion","OS","frameRate","key_resp_3.keys","key_resp_3.rt","key_resp_ipn.keys","key_resp_ipn.corr","key_resp_ipn.rt","Practice_02.thisRepN","Practice_02.thisTrialN","Practice_02.thisN","Practice_02.thisIndex","Practice_02.ran","Words_ipn","ans_ipn","key_resp_4.keys","key_resp_4.rt","key_resp_t1.keys","key_resp_t1.corr","key_resp_t1.rt","Practice_T1.thisRepN","Practice_T1.thisTrialN","Practice_T1.thisN","Practice_T1.thisIndex","Practice_T1.ran","Words_t1","ans_t1","key_resp_5.keys","key_resp_5.rt","Formal_T1.thisRepN","Formal_T1.thisTrialN","Formal_T1.thisN","Formal_T1.thisIndex","Formal_T1.ran","key_resp_6.keys","key_resp_6.rt","key_resp_iso_reverse.keys","key_resp_iso_reverse.corr","key_resp_iso_reverse.rt","Practice_iso_Reverse.thisRepN","Practice_iso_Reverse.thisTrialN","Practice_iso_Reverse.thisN","Practice_iso_Reverse.thisIndex","Practice_iso_Reverse.ran","key_resp_7.keys","key_resp_7.rt","key_resp_t2_Practice.keys","key_resp_t2_Practice.corr","key_resp_t2_Practice.rt","Practice_t2_Reverse.thisRepN","Practice_t2_Reverse.thisTrialN","Practice_t2_Reverse.thisN","Practice_t2_Reverse.thisIndex","Practice_t2_Reverse.ran","Words_t2","ans_t2","key_resp_8.keys","key_resp_8.rt","key_resp_t2.keys","key_resp_t2.corr","key_resp_t2.rt","Formal_t2_reverse.thisRepN","Formal_t2_reverse.thisTrialN","Formal_t2_reverse.thisN","Formal_t2_reverse.thisIndex","Formal_t2_reverse.ran","key_instruct.keys","key_instruct.rt","Subject"
"space",6.3144,"space",10.732,"i",1,0.8435,0,0,0,9,1,"其他","i",1,1,"2024-08-25_15h00.14.666","IAT(Formal)","2021.2.3","Win32",59.88023952,"",NA,"",NA,NA,NA,NA,NA,NA,NA,"","","",NA,"",NA,NA,NA,NA,NA,NA,NA,"","","",NA,NA,NA,NA,NA,NA,"",NA,"",NA,NA,NA,NA,NA,NA,NA,"",NA,"",NA,NA,NA,NA,NA,NA,NA,"","","",NA,"",NA,NA,NA,NA,NA,NA,NA,"",NA,"28"
"",NA,"",NA,"i",1,0.6389,0,1,1,6,1,"他们","i",1,1,"2024-08-25_15h00.14.666","IAT(Formal)","2021.2.3","Win32",59.88023952,"",NA,"",NA,NA,NA,NA,NA,NA,NA,"","","",NA,"",NA,NA,NA,NA,NA,NA,NA,"","","",NA,NA,NA,NA,NA,NA,"",NA,"",NA,NA,NA,NA,NA,NA,NA,"",NA,"",NA,NA,NA,NA,NA,NA,NA,"","","",NA,"",NA,NA,NA,NA,NA,NA,NA,"",NA,"28"
"",NA,"",NA,"i",1,0.3845,0,2,2,8,1,"他人","i",1,1,"2024-08-25_15h00.14.666","IAT(Formal)","2021.2.3","Win32",59.88023952,"",NA,"",NA,NA,NA,NA,NA,NA,NA,"","","",NA,"",NA,NA,NA,NA,NA,NA,NA,"","","",NA,NA,NA,NA,NA,NA,"",NA,"",NA,NA,NA,NA,NA,NA,NA,"",NA,"",NA,NA,NA,NA,NA,NA,NA,"","","",NA,"",NA,NA,NA,NA,NA,NA,NA,"",NA,"28"
"",NA,"",NA,"i",1,0.4666,0,3,3,5,1,"他","i",1,1,"2024-08-25_15h00.14.666","IAT(Formal)","2021.2.3","Win32",59.88023952,"",NA,"",NA,NA,NA,NA,NA,NA,NA,"","","",NA,"",NA,NA,NA,NA,NA,NA,NA,"","","",NA,NA,NA,NA,NA,NA,"",NA,"",NA,NA,NA,NA,NA,NA,NA,"",NA,"",NA,NA,NA,NA,NA,NA,NA,"","","",NA,"",NA,NA,NA,NA,NA,NA,NA,"",NA,"28"
"",NA,"",NA,"e",1,0.5892,0,4,4,2,1,"我们","e",1,1,"2024-08-25_15h00.14.666","IAT(Formal)","2021.2.3","Win32",59.88023952,"",NA,"",NA,NA,NA,NA,NA,NA,NA,"","","",NA,"",NA,NA,NA,NA,NA,NA,NA,"","","",NA,NA,NA,NA,NA,NA,"",NA,"",NA,NA,NA,NA,NA,NA,NA,"",NA,"",NA,NA,NA,NA,NA,NA,NA,"","","",NA,"",NA,NA,NA,NA,NA,NA,NA,"",NA,"28"
"",NA,"",NA,"e",1,0.7882,0,5,5,0,1,"我","e",1,1,"2024-08-25_15h00.14.666","IAT(Formal)","2021.2.3","Win32",59.88023952,"",NA,"",NA,NA,NA,NA,NA,NA,NA,"","","",NA,"",NA,NA,NA,NA,NA,NA,NA,"","","",NA,NA,NA,NA,NA,NA,"",NA,"",NA,NA,NA,NA,NA,NA,NA,"",NA,"",NA,NA,NA,NA,NA,NA,NA,"","","",NA,"",NA,NA,NA,NA,NA,NA,NA,"",NA,"28"
"",NA,"",NA,"e",1,0.5713,0,6,6,4,1,"俺","e",1,1,"2024-08-25_15h00.14.666","IAT(Formal)","2021.2.3","Win32",59.88023952,"",NA,"",NA,NA,NA,NA,NA,NA,NA,"","","",NA,"",NA,NA,NA,NA,NA,NA,NA,"","","",NA,NA,NA,NA,NA,NA,"",NA,"",NA,NA,NA,NA,NA,NA,NA,"",NA,"",NA,NA,NA,NA,NA,NA,NA,"","","",NA,"",NA,NA,NA,NA,NA,NA,NA,"",NA,"28"
"",NA,"",NA,"e",1,0.455,0,7,7,1,1,"我的","e",1,1,"2024-08-25_15h00.14.666","IAT(Formal)","2021.2.3","Win32",59.88023952,"",NA,"",NA,NA,NA,NA,NA,NA,NA,"","","",NA,"",NA,NA,NA,NA,NA,NA,NA,"","","",NA,NA,NA,NA,NA,NA,"",NA,"",NA,NA,NA,NA,NA,NA,NA,"",NA,"",NA,NA,NA,NA,NA,NA,NA,"","","",NA,"",NA,NA,NA,NA,NA,NA,NA,"",NA,"28"
"",NA,"",NA,"e",1,0.5529,0,8,8,3,1,"自己","e",1,1,"2024-08-25_15h00.14.666","IAT(Formal)","2021.2.3","Win32",59.88023952,"",NA,"",NA,NA,NA,NA,NA,NA,NA,"","","",NA,"",NA,NA,NA,NA,NA,NA,NA,"","","",NA,NA,NA,NA,NA,NA,"",NA,"",NA,NA,NA,NA,NA,NA,NA,"",NA,"",NA,NA,NA,NA,NA,NA,NA,"","","",NA,"",NA,NA,NA,NA,NA,NA,NA,"",NA,"28"
"",NA,"",NA,"i",1,0.4386,0,9,9,7,1,"他的","i",1,1,"2024-08-25_15h00.14.666","IAT(Formal)","2021.2.3","Win32",59.88023952,"",NA,"",NA,NA,NA,NA,NA,NA,NA,"","","",NA,"",NA,NA,NA,NA,NA,NA,NA,"","","",NA,NA,NA,NA,NA,NA,"",NA,"",NA,NA,NA,NA,NA,NA,NA,"",NA,"",NA,NA,NA,NA,NA,NA,NA,"","","",NA,"",NA,NA,NA,NA,NA,NA,NA,"",NA,"28"
"",NA,"",NA,"",NA,NA,NA,NA,NA,NA,NA,"","",1,1,"2024-08-25_15h00.14.666","IAT(Formal)","2021.2.3","Win32",59.88023952,"space",5.8354,"i",1,1.1282,0,0,0,28,1,"鲁莽","i","",NA,"",NA,NA,NA,NA,NA,NA,NA,"","","",NA,NA,NA,NA,NA,NA,"",NA,"",NA,NA,NA,NA,NA,NA,NA,"",NA,"",NA,NA,NA,NA,NA,NA,NA,"","","",NA,"",NA,NA,NA,NA,NA,NA,NA,"",NA,"28"
"",NA,"",NA,"",NA,NA,NA,NA,NA,NA,NA,"","",1,1,"2024-08-25_15h00.14.666","IAT(Formal)","2021.2.3","Win32",59.88023952,"",NA,"e",1,0.6138,0,1,1,19,1,"诚恳","e","",NA,"",NA,NA,NA,NA,NA,NA,NA,"","","",NA,NA,NA,NA,NA,NA,"",NA,"",NA,NA,NA,NA,NA,NA,NA,"",NA,"",NA,NA,NA,NA,NA,NA,NA,"","","",NA,"",NA,NA,NA,NA,NA,NA,NA,"",NA,"28"
"",NA,"",NA,"",NA,NA,NA,NA,NA,NA,NA,"","",1,1,"2024-08-25_15h00.14.666","IAT(Formal)","2021.2.3","Win32",59.88023952,"",NA,"i",1,0.8905,0,2,2,26,1,"自卑","i","",NA,"",NA,NA,NA,NA,NA,NA,NA,"","","",NA,NA,NA,NA,NA,NA,"",NA,"",NA,NA,NA,NA,NA,NA,NA,"",NA,"",NA,NA,NA,NA,NA,NA,NA,"","","",NA,"",NA,NA,NA,NA,NA,NA,NA,"",NA,"28"
"",NA,"",NA,"",NA,NA,NA,NA,NA,NA,NA,"","",1,1,"2024-08-25_15h00.14.666","IAT(Formal)","2021.2.3","Win32",59.88023952,"",NA,"e",1,0.5375,0,3,3,2,1,"聪明","e","",NA,"",NA,NA,NA,NA,NA,NA,NA,"","","",NA,NA,NA,NA,NA,NA,"",NA,"",NA,NA,NA,NA,NA,NA,NA,"",NA,"",NA,NA,NA,NA,NA,NA,NA,"","","",NA,"",NA,NA,NA,NA,NA,NA,NA,"",NA,"28"
"",NA,"",NA,"",NA,NA,NA,NA,NA,NA,NA,"","",1,1,"2024-08-25_15h00.14.666","IAT(Formal)","2021.2.3","Win32",59.88023952,"",NA,"e",1,0.6129,0,4,4,17,1,"热情","e","",NA,"",NA,NA,NA,NA,NA,NA,NA,"","","",NA,NA,NA,NA,NA,NA,"",NA,"",NA,NA,NA,NA,NA,NA,NA,"",NA,"",NA,NA,NA,NA,NA,NA,NA,"","","",NA,"",NA,NA,NA,NA,NA,NA,NA,"",NA,"28"
"",NA,"",NA,"",NA,NA,NA,NA,NA,NA,NA,"","",1,1,"2024-08-25_15h00.14.666","IAT(Formal)","2021.2.3","Win32",59.88023952,"",NA,"e",1,0.5014,0,5,5,7,1,"勇敢","e","",NA,"",NA,NA,NA,NA,NA,NA,NA,"","","",NA,NA,NA,NA,NA,NA,"",NA,"",NA,NA,NA,NA,NA,NA,NA,"",NA,"",NA,NA,NA,NA,NA,NA,NA,"","","",NA,"",NA,NA,NA,NA,NA,NA,NA,"",NA,"28"
"",NA,"",NA,"",NA,NA,NA,NA,NA,NA,NA,"","",1,1,"2024-08-25_15h00.14.666","IAT(Formal)","2021.2.3","Win32",59.88023952,"",NA,"e",1,0.6457,0,6,6,14,1,"朴实","e","",NA,"",NA,NA,NA,NA,NA,NA,NA,"","","",NA,NA,NA,NA,NA,NA,"",NA,"",NA,NA,NA,NA,NA,NA,NA,"",NA,"",NA,NA,NA,NA,NA,NA,NA,"","","",NA,"",NA,NA,NA,NA,NA,NA,NA,"",NA,"28"
"",NA,"",NA,"",NA,NA,NA,NA,NA,NA,NA,"","",1,1,"2024-08-25_15h00.14.666","IAT(Formal)","2021.2.3","Win32",59.88023952,"",NA,"i",1,0.6748,0,7,7,38,1,"轻率","i","",NA,"",NA,NA,NA,NA,NA,NA,NA,"","","",NA,NA,NA,NA,NA,NA,"",NA,"",NA,NA,NA,NA,NA,NA,NA,"",NA,"",NA,NA,NA,NA,NA,NA,NA,"","","",NA,"",NA,NA,NA,NA,NA,NA,NA,"",NA,"28"
"",NA,"",NA,"",NA,NA,NA,NA,NA,NA,NA,"","",1,1,"2024-08-25_15h00.14.666","IAT(Formal)","2021.2.3","Win32",59.88023952,"",NA,"i",1,0.5315,0,8,8,29,1,"冒失","i","",NA,"",NA,NA,NA,NA,NA,NA,NA,"","","",NA,NA,NA,NA,NA,NA,"",NA,"",NA,NA,NA,NA,NA,NA,NA,"",NA,"",NA,NA,NA,NA,NA,NA,NA,"","","",NA,"",NA,NA,NA,NA,NA,NA,NA,"",NA,"28"
"",NA,"",NA,"",NA,NA,NA,NA,NA,NA,NA,"","",1,1,"2024-08-25_15h00.14.666","IAT(Formal)","2021.2.3","Win32",59.88023952,"",NA,"i",1,0.5904,0,9,9,39,1,"下贱","i","",NA,"",NA,NA,NA,NA,NA,NA,NA,"","","",NA,NA,NA,NA,NA,NA,"",NA,"",NA,NA,NA,NA,NA,NA,NA,"",NA,"",NA,NA,NA,NA,NA,NA,NA,"","","",NA,"",NA,NA,NA,NA,NA,NA,NA,"",NA,"28"
"",NA,"",NA,"",NA,NA,NA,NA,NA,NA,NA,"","",1,1,"2024-08-25_15h00.14.666","IAT(Formal)","2021.2.3","Win32",59.88023952,"",NA,"e",1,0.5195,0,10,10,10,1,"认真","e","",NA,"",NA,NA,NA,NA,NA,NA,NA,"","","",NA,NA,NA,NA,NA,NA,"",NA,"",NA,NA,NA,NA,NA,NA,NA,"",NA,"",NA,NA,NA,NA,NA,NA,NA,"","","",NA,"",NA,NA,NA,NA,NA,NA,NA,"",NA,"28"
"",NA,"",NA,"",NA,NA,NA,NA,NA,NA,NA,"","",1,1,"2024-08-25_15h00.14.666","IAT(Formal)","2021.2.3","Win32",59.88023952,"",NA,"i",1,0.6018,0,11,11,27,1,"傲慢","i","",NA,"",NA,NA,NA,NA,NA,NA,NA,"","","",NA,NA,NA,NA,NA,NA,"",NA,"",NA,NA,NA,NA,NA,NA,NA,"",NA,"",NA,NA,NA,NA,NA,NA,NA,"","","",NA,"",NA,NA,NA,NA,NA,NA,NA,"",NA,"28"
"",NA,"",NA,"",NA,NA,NA,NA,NA,NA,NA,"","",1,1,"2024-08-25_15h00.14.666","IAT(Formal)","2021.2.3","Win32",59.88023952,"",NA,"e",1,0.6108,0,12,12,13,1,"公正","e","",NA,"",NA,NA,NA,NA,NA,NA,NA,"","","",NA,NA,NA,NA,NA,NA,"",NA,"",NA,NA,NA,NA,NA,NA,NA,"",NA,"",NA,NA,NA,NA,NA,NA,NA,"","","",NA,"",NA,NA,NA,NA,NA,NA,NA,"",NA,"28"
"",NA,"",NA,"",NA,NA,NA,NA,NA,NA,NA,"","",1,1,"2024-08-25_15h00.14.666","IAT(Formal)","2021.2.3","Win32",59.88023952,"",NA,"e",1,0.567,0,13,13,18,1,"活泼","e","",NA,"",NA,NA,NA,NA,NA,NA,NA,"","","",NA,NA,NA,NA,NA,NA,"",NA,"",NA,NA,NA,NA,NA,NA,NA,"",NA,"",NA,NA,NA,NA,NA,NA,NA,"","","",NA,"",NA,NA,NA,NA,NA,NA,NA,"",NA,"28"
"",NA,"",NA,"",NA,NA,NA,NA,NA,NA,NA,"","",1,1,"2024-08-25_15h00.14.666","IAT(Formal)","2021.2.3","Win32",59.88023952,"",NA,"i",1,0.9179,0,14,14,31,1,"散漫","i","",NA,"",NA,NA,NA,NA,NA,NA,NA,"","","",NA,NA,NA,NA,NA,NA,"",NA,"",NA,NA,NA,NA,NA,NA,NA,"",NA,"",NA,NA,NA,NA,NA,NA,NA,"","","",NA,"",NA,NA,NA,NA,NA,NA,NA,"",NA,"28"
"",NA,"",NA,"",NA,NA,NA,NA,NA,NA,NA,"","",1,1,"2024-08-25_15h00.14.666","IAT(Formal)","2021.2.3","Win32",59.88023952,"",NA,"i",1,0.597,0,15,15,20,1,"卑鄙","i","",NA,"",NA,NA,NA,NA,NA,NA,NA,"","","",NA,NA,NA,NA,NA,NA,"",NA,"",NA,NA,NA,NA,NA,NA,NA,"",NA,"",NA,NA,NA,NA,NA,NA,NA,"","","",NA,"",NA,NA,NA,NA,NA,NA,NA,"",NA,"28"
"",NA,"",NA,"",NA,NA,NA,NA,NA,NA,NA,"","",1,1,"2024-08-25_15h00.14.666","IAT(Formal)","2021.2.3","Win32",59.88023952,"",NA,"i",1,0.5999,0,16,16,21,1,"虚伪","i","",NA,"",NA,NA,NA,NA,NA,NA,NA,"","","",NA,NA,NA,NA,NA,NA,"",NA,"",NA,NA,NA,NA,NA,NA,NA,"",NA,"",NA,NA,NA,NA,NA,NA,NA,"","","",NA,"",NA,NA,NA,NA,NA,NA,NA,"",NA,"28"
"",NA,"",NA,"",NA,NA,NA,NA,NA,NA,NA,"","",1,1,"2024-08-25_15h00.14.666","IAT(Formal)","2021.2.3","Win32",59.88023952,"",NA,"i",1,0.5303,0,17,17,23,1,"刻薄","i","",NA,"",NA,NA,NA,NA,NA,NA,NA,"","","",NA,NA,NA,NA,NA,NA,"",NA,"",NA,NA,NA,NA,NA,NA,NA,"",NA,"",NA,NA,NA,NA,NA,NA,NA,"","","",NA,"",NA,NA,NA,NA,NA,NA,NA,"",NA,"28"
"",NA,"",NA,"",NA,NA,NA,NA,NA,NA,NA,"","",1,1,"2024-08-25_15h00.14.666","IAT(Formal)","2021.2.3","Win32",59.88023952,"",NA,"e",1,0.8426,0,18,18,16,1,"冷静","e","",NA,"",NA,NA,NA,NA,NA,NA,NA,"","","",NA,NA,NA,NA,NA,NA,"",NA,"",NA,NA,NA,NA,NA,NA,NA,"",NA,"",NA,NA,NA,NA,NA,NA,NA,"","","",NA,"",NA,NA,NA,NA,NA,NA,NA,"",NA,"28"
"",NA,"",NA,"",NA,NA,NA,NA,NA,NA,NA,"","",1,1,"2024-08-25_15h00.14.666","IAT(Formal)","2021.2.3","Win32",59.88023952,"",NA,"e",1,0.7267,0,19,19,8,1,"勤奋","e","",NA,"",NA,NA,NA,NA,NA,NA,NA,"","","",NA,NA,NA,NA,NA,NA,"",NA,"",NA,NA,NA,NA,NA,NA,NA,"",NA,"",NA,NA,NA,NA,NA,NA,NA,"","","",NA,"",NA,NA,NA,NA,NA,NA,NA,"",NA,"28"
"",NA,"",NA,"",NA,NA,NA,NA,NA,NA,NA,"","",1,1,"2024-08-25_15h00.14.666","IAT(Formal)","2021.2.3","Win32",59.88023952,"",NA,"i",1,0.5789,0,20,20,34,1,"暴躁","i","",NA,"",NA,NA,NA,NA,NA,NA,NA,"","","",NA,NA,NA,NA,NA,NA,"",NA,"",NA,NA,NA,NA,NA,NA,NA,"",NA,"",NA,NA,NA,NA,NA,NA,NA,"","","",NA,"",NA,NA,NA,NA,NA,NA,NA,"",NA,"28"
"",NA,"",NA,"",NA,NA,NA,NA,NA,NA,NA,"","",1,1,"2024-08-25_15h00.14.666","IAT(Formal)","2021.2.3","Win32",59.88023952,"",NA,"e",1,0.9823,0,21,21,9,1,"机智","e","",NA,"",NA,NA,NA,NA,NA,NA,NA,"","","",NA,NA,NA,NA,NA,NA,"",NA,"",NA,NA,NA,NA,NA,NA,NA,"",NA,"",NA,NA,NA,NA,NA,NA,NA,"","","",NA,"",NA,NA,NA,NA,NA,NA,NA,"",NA,"28"
"",NA,"",NA,"",NA,NA,NA,NA,NA,NA,NA,"","",1,1,"2024-08-25_15h00.14.666","IAT(Formal)","2021.2.3","Win32",59.88023952,"",NA,"e",1,1.174,0,22,22,1,1,"崇高","e","",NA,"",NA,NA,NA,NA,NA,NA,NA,"","","",NA,NA,NA,NA,NA,NA,"",NA,"",NA,NA,NA,NA,NA,NA,NA,"",NA,"",NA,NA,NA,NA,NA,NA,NA,"","","",NA,"",NA,NA,NA,NA,NA,NA,NA,"",NA,"28"
"",NA,"",NA,"",NA,NA,NA,NA,NA,NA,NA,"","",1,1,"2024-08-25_15h00.14.666","IAT(Formal)","2021.2.3","Win32",59.88023952,"",NA,"e",1,0.6174,0,23,23,5,1,"诚实","e","",NA,"",NA,NA,NA,NA,NA,NA,NA,"","","",NA,NA,NA,NA,NA,NA,"",NA,"",NA,NA,NA,NA,NA,NA,NA,"",NA,"",NA,NA,NA,NA,NA,NA,NA,"","","",NA,"",NA,NA,NA,NA,NA,NA,NA,"",NA,"28"
"",NA,"",NA,"",NA,NA,NA,NA,NA,NA,NA,"","",1,1,"2024-08-25_15h00.14.666","IAT(Formal)","2021.2.3","Win32",59.88023952,"",NA,"e",1,0.4973,0,24,24,3,1,"杰出","e","",NA,"",NA,NA,NA,NA,NA,NA,NA,"","","",NA,NA,NA,NA,NA,NA,"",NA,"",NA,NA,NA,NA,NA,NA,NA,"",NA,"",NA,NA,NA,NA,NA,NA,NA,"","","",NA,"",NA,NA,NA,NA,NA,NA,NA,"",NA,"28"
"",NA,"",NA,"",NA,NA,NA,NA,NA,NA,NA,"","",1,1,"2024-08-25_15h00.14.666","IAT(Formal)","2021.2.3","Win32",59.88023952,"",NA,"i",1,0.8387,0,25,25,22,1,"愚蠢","i","",NA,"",NA,NA,NA,NA,NA,NA,NA,"","","",NA,NA,NA,NA,NA,NA,"",NA,"",NA,NA,NA,NA,NA,NA,NA,"",NA,"",NA,NA,NA,NA,NA,NA,NA,"","","",NA,"",NA,NA,NA,NA,NA,NA,NA,"",NA,"28"
"",NA,"",NA,"",NA,NA,NA,NA,NA,NA,NA,"","",1,1,"2024-08-25_15h00.14.666","IAT(Formal)","2021.2.3","Win32",59.88023952,"",NA,"e",1,0.5476,0,26,26,6,1,"正直","e","",NA,"",NA,NA,NA,NA,NA,NA,NA,"","","",NA,NA,NA,NA,NA,NA,"",NA,"",NA,NA,NA,NA,NA,NA,NA,"",NA,"",NA,NA,NA,NA,NA,NA,NA,"","","",NA,"",NA,NA,NA,NA,NA,NA,NA,"",NA,"28"
"",NA,"",NA,"",NA,NA,NA,NA,NA,NA,NA,"","",1,1,"2024-08-25_15h00.14.666","IAT(Formal)","2021.2.3","Win32",59.88023952,"",NA,"e",1,0.6378,0,27,27,11,1,"稳重","e","",NA,"",NA,NA,NA,NA,NA,NA,NA,"","","",NA,NA,NA,NA,NA,NA,"",NA,"",NA,NA,NA,NA,NA,NA,NA,"",NA,"",NA,NA,NA,NA,NA,NA,NA,"","","",NA,"",NA,NA,NA,NA,NA,NA,NA,"",NA,"28"
"",NA,"",NA,"",NA,NA,NA,NA,NA,NA,NA,"","",1,1,"2024-08-25_15h00.14.666","IAT(Formal)","2021.2.3","Win32",59.88023952,"",NA,"i",1,0.5331,0,28,28,24,1,"悲观","i","",NA,"",NA,NA,NA,NA,NA,NA,NA,"","","",NA,NA,NA,NA,NA,NA,"",NA,"",NA,NA,NA,NA,NA,NA,NA,"",NA,"",NA,NA,NA,NA,NA,NA,NA,"","","",NA,"",NA,NA,NA,NA,NA,NA,NA,"",NA,"28"
"",NA,"",NA,"",NA,NA,NA,NA,NA,NA,NA,"","",1,1,"2024-08-25_15h00.14.666","IAT(Formal)","2021.2.3","Win32",59.88023952,"",NA,"e",1,0.7477,0,29,29,12,1,"无私","e","",NA,"",NA,NA,NA,NA,NA,NA,NA,"","","",NA,NA,NA,NA,NA,NA,"",NA,"",NA,NA,NA,NA,NA,NA,NA,"",NA,"",NA,NA,NA,NA,NA,NA,NA,"","","",NA,"",NA,NA,NA,NA,NA,NA,NA,"",NA,"28"
"",NA,"",NA,"",NA,NA,NA,NA,NA,NA,NA,"","",1,1,"2024-08-25_15h00.14.666","IAT(Formal)","2021.2.3","Win32",59.88023952,"",NA,"e",1,0.5455,0,30,30,0,1,"优秀","e","",NA,"",NA,NA,NA,NA,NA,NA,NA,"","","",NA,NA,NA,NA,NA,NA,"",NA,"",NA,NA,NA,NA,NA,NA,NA,"",NA,"",NA,NA,NA,NA,NA,NA,NA,"","","",NA,"",NA,NA,NA,NA,NA,NA,NA,"",NA,"28"
"",NA,"",NA,"",NA,NA,NA,NA,NA,NA,NA,"","",1,1,"2024-08-25_15h00.14.666","IAT(Formal)","2021.2.3","Win32",59.88023952,"",NA,"i",1,0.865,0,31,31,30,1,"执拗","i","",NA,"",NA,NA,NA,NA,NA,NA,NA,"","","",NA,NA,NA,NA,NA,NA,"",NA,"",NA,NA,NA,NA,NA,NA,NA,"",NA,"",NA,NA,NA,NA,NA,NA,NA,"","","",NA,"",NA,NA,NA,NA,NA,NA,NA,"",NA,"28"
"",NA,"",NA,"",NA,NA,NA,NA,NA,NA,NA,"","",1,1,"2024-08-25_15h00.14.666","IAT(Formal)","2021.2.3","Win32",59.88023952,"",NA,"i",1,0.6926,0,32,32,25,1,"消极","i","",NA,"",NA,NA,NA,NA,NA,NA,NA,"","","",NA,NA,NA,NA,NA,NA,"",NA,"",NA,NA,NA,NA,NA,NA,NA,"",NA,"",NA,NA,NA,NA,NA,NA,NA,"","","",NA,"",NA,NA,NA,NA,NA,NA,NA,"",NA,"28"
"",NA,"",NA,"",NA,NA,NA,NA,NA,NA,NA,"","",1,1,"2024-08-25_15h00.14.666","IAT(Formal)","2021.2.3","Win32",59.88023952,"",NA,"i",1,1.183,0,33,33,37,1,"固执","i","",NA,"",NA,NA,NA,NA,NA,NA,NA,"","","",NA,NA,NA,NA,NA,NA,"",NA,"",NA,NA,NA,NA,NA,NA,NA,"",NA,"",NA,NA,NA,NA,NA,NA,NA,"","","",NA,"",NA,NA,NA,NA,NA,NA,NA,"",NA,"28"
"",NA,"",NA,"",NA,NA,NA,NA,NA,NA,NA,"","",1,1,"2024-08-25_15h00.14.666","IAT(Formal)","2021.2.3","Win32",59.88023952,"",NA,"i",1,0.7455,0,34,34,32,1,"凶狠","i","",NA,"",NA,NA,NA,NA,NA,NA,NA,"","","",NA,NA,NA,NA,NA,NA,"",NA,"",NA,NA,NA,NA,NA,NA,NA,"",NA,"",NA,NA,NA,NA,NA,NA,NA,"","","",NA,"",NA,NA,NA,NA,NA,NA,NA,"",NA,"28"
"",NA,"",NA,"",NA,NA,NA,NA,NA,NA,NA,"","",1,1,"2024-08-25_15h00.14.666","IAT(Formal)","2021.2.3","Win32",59.88023952,"",NA,"i",1,0.7303,0,35,35,35,1,"猖狂","i","",NA,"",NA,NA,NA,NA,NA,NA,NA,"","","",NA,NA,NA,NA,NA,NA,"",NA,"",NA,NA,NA,NA,NA,NA,NA,"",NA,"",NA,NA,NA,NA,NA,NA,NA,"","","",NA,"",NA,NA,NA,NA,NA,NA,NA,"",NA,"28"
"",NA,"",NA,"",NA,NA,NA,NA,NA,NA,NA,"","",1,1,"2024-08-25_15h00.14.666","IAT(Formal)","2021.2.3","Win32",59.88023952,"",NA,"e",1,0.72,0,36,36,15,1,"细腻","e","",NA,"",NA,NA,NA,NA,NA,NA,NA,"","","",NA,NA,NA,NA,NA,NA,"",NA,"",NA,NA,NA,NA,NA,NA,NA,"",NA,"",NA,NA,NA,NA,NA,NA,NA,"","","",NA,"",NA,NA,NA,NA,NA,NA,NA,"",NA,"28"
"",NA,"",NA,"",NA,NA,NA,NA,NA,NA,NA,"","",1,1,"2024-08-25_15h00.14.666","IAT(Formal)","2021.2.3","Win32",59.88023952,"",NA,"e",1,0.5759,0,37,37,4,1,"乐观","e","",NA,"",NA,NA,NA,NA,NA,NA,NA,"","","",NA,NA,NA,NA,NA,NA,"",NA,"",NA,NA,NA,NA,NA,NA,NA,"",NA,"",NA,NA,NA,NA,NA,NA,NA,"","","",NA,"",NA,NA,NA,NA,NA,NA,NA,"",NA,"28"
"",NA,"",NA,"",NA,NA,NA,NA,NA,NA,NA,"","",1,1,"2024-08-25_15h00.14.666","IAT(Formal)","2021.2.3","Win32",59.88023952,"",NA,"i",1,0.7074,0,38,38,33,1,"自私","i","",NA,"",NA,NA,NA,NA,NA,NA,NA,"","","",NA,NA,NA,NA,NA,NA,"",NA,"",NA,NA,NA,NA,NA,NA,NA,"",NA,"",NA,NA,NA,NA,NA,NA,NA,"","","",NA,"",NA,NA,NA,NA,NA,NA,NA,"",NA,"28"
"",NA,"",NA,"",NA,NA,NA,NA,NA,NA,NA,"","",1,1,"2024-08-25_15h00.14.666","IAT(Formal)","2021.2.3","Win32",59.88023952,"",NA,"i",1,0.9303,0,39,39,36,1,"野蛮","i","",NA,"",NA,NA,NA,NA,NA,NA,NA,"","","",NA,NA,NA,NA,NA,NA,"",NA,"",NA,NA,NA,NA,NA,NA,NA,"",NA,"",NA,NA,NA,NA,NA,NA,NA,"","","",NA,"",NA,NA,NA,NA,NA,NA,NA,"",NA,"28"
"",NA,"",NA,"",NA,NA,NA,NA,NA,NA,NA,"","",1,1,"2024-08-25_15h00.14.666","IAT(Formal)","2021.2.3","Win32",59.88023952,"",NA,"",NA,NA,NA,NA,NA,NA,NA,"","","space",8.3395,"i",1,0.6774,0,0,0,32,1,"愚蠢","i","",NA,NA,NA,NA,NA,NA,"",NA,"",NA,NA,NA,NA,NA,NA,NA,"",NA,"",NA,NA,NA,NA,NA,NA,NA,"","","",NA,"",NA,NA,NA,NA,NA,NA,NA,"",NA,"28"
"",NA,"",NA,"",NA,NA,NA,NA,NA,NA,NA,"","",1,1,"2024-08-25_15h00.14.666","IAT(Formal)","2021.2.3","Win32",59.88023952,"",NA,"",NA,NA,NA,NA,NA,NA,NA,"","","",NA,"i",1,0.9239,0,1,1,78,1,"他人","i","",NA,NA,NA,NA,NA,NA,"",NA,"",NA,NA,NA,NA,NA,NA,NA,"",NA,"",NA,NA,NA,NA,NA,NA,NA,"","","",NA,"",NA,NA,NA,NA,NA,NA,NA,"",NA,"28"
"",NA,"",NA,"",NA,NA,NA,NA,NA,NA,NA,"","",1,1,"2024-08-25_15h00.14.666","IAT(Formal)","2021.2.3","Win32",59.88023952,"",NA,"",NA,NA,NA,NA,NA,NA,NA,"","","",NA,"i",1,0.755,0,2,2,48,1,"轻率","i","",NA,NA,NA,NA,NA,NA,"",NA,"",NA,NA,NA,NA,NA,NA,NA,"",NA,"",NA,NA,NA,NA,NA,NA,NA,"","","",NA,"",NA,NA,NA,NA,NA,NA,NA,"",NA,"28"
"",NA,"",NA,"",NA,NA,NA,NA,NA,NA,NA,"","",1,1,"2024-08-25_15h00.14.666","IAT(Formal)","2021.2.3","Win32",59.88023952,"",NA,"",NA,NA,NA,NA,NA,NA,NA,"","","",NA,"e",1,0.7453,0,3,3,74,1,"俺","e","",NA,NA,NA,NA,NA,NA,"",NA,"",NA,NA,NA,NA,NA,NA,NA,"",NA,"",NA,NA,NA,NA,NA,NA,NA,"","","",NA,"",NA,NA,NA,NA,NA,NA,NA,"",NA,"28"
"",NA,"",NA,"",NA,NA,NA,NA,NA,NA,NA,"","",1,1,"2024-08-25_15h00.14.666","IAT(Formal)","2021.2.3","Win32",59.88023952,"",NA,"",NA,NA,NA,NA,NA,NA,NA,"","","",NA,"i",1,0.8712,0,4,4,31,1,"虚伪","i","",NA,NA,NA,NA,NA,NA,"",NA,"",NA,NA,NA,NA,NA,NA,NA,"",NA,"",NA,NA,NA,NA,NA,NA,NA,"","","",NA,"",NA,NA,NA,NA,NA,NA,NA,"",NA,"28"
"",NA,"",NA,"",NA,NA,NA,NA,NA,NA,NA,"","",1,1,"2024-08-25_15h00.14.666","IAT(Formal)","2021.2.3","Win32",59.88023952,"",NA,"",NA,NA,NA,NA,NA,NA,NA,"","","",NA,"e",1,0.6997,0,5,5,27,1,"热情","e","",NA,NA,NA,NA,NA,NA,"",NA,"",NA,NA,NA,NA,NA,NA,NA,"",NA,"",NA,NA,NA,NA,NA,NA,NA,"","","",NA,"",NA,NA,NA,NA,NA,NA,NA,"",NA,"28"
"",NA,"",NA,"",NA,NA,NA,NA,NA,NA,NA,"","",1,1,"2024-08-25_15h00.14.666","IAT(Formal)","2021.2.3","Win32",59.88023952,"",NA,"",NA,NA,NA,NA,NA,NA,NA,"","","",NA,"i",1,0.5513,0,6,6,8,1,"他人","i","",NA,NA,NA,NA,NA,NA,"",NA,"",NA,NA,NA,NA,NA,NA,NA,"",NA,"",NA,NA,NA,NA,NA,NA,NA,"","","",NA,"",NA,NA,NA,NA,NA,NA,NA,"",NA,"28"
"",NA,"",NA,"",NA,NA,NA,NA,NA,NA,NA,"","",1,1,"2024-08-25_15h00.14.666","IAT(Formal)","2021.2.3","Win32",59.88023952,"",NA,"",NA,NA,NA,NA,NA,NA,NA,"","","",NA,"i",1,0.7272,0,7,7,36,1,"自卑","i","",NA,NA,NA,NA,NA,NA,"",NA,"",NA,NA,NA,NA,NA,NA,NA,"",NA,"",NA,NA,NA,NA,NA,NA,NA,"","","",NA,"",NA,NA,NA,NA,NA,NA,NA,"",NA,"28"
"",NA,"",NA,"",NA,NA,NA,NA,NA,NA,NA,"","",1,1,"2024-08-25_15h00.14.666","IAT(Formal)","2021.2.3","Win32",59.88023952,"",NA,"",NA,NA,NA,NA,NA,NA,NA,"","","",NA,"i",1,0.6057,0,8,8,40,1,"执拗","i","",NA,NA,NA,NA,NA,NA,"",NA,"",NA,NA,NA,NA,NA,NA,NA,"",NA,"",NA,NA,NA,NA,NA,NA,NA,"","","",NA,"",NA,NA,NA,NA,NA,NA,NA,"",NA,"28"
"",NA,"",NA,"",NA,NA,NA,NA,NA,NA,NA,"","",1,1,"2024-08-25_15h00.14.666","IAT(Formal)","2021.2.3","Win32",59.88023952,"",NA,"",NA,NA,NA,NA,NA,NA,NA,"","","",NA,"e",1,0.5167,0,9,9,60,1,"我","e","",NA,NA,NA,NA,NA,NA,"",NA,"",NA,NA,NA,NA,NA,NA,NA,"",NA,"",NA,NA,NA,NA,NA,NA,NA,"","","",NA,"",NA,NA,NA,NA,NA,NA,NA,"",NA,"28"
"",NA,"",NA,"",NA,NA,NA,NA,NA,NA,NA,"","",1,1,"2024-08-25_15h00.14.666","IAT(Formal)","2021.2.3","Win32",59.88023952,"",NA,"",NA,NA,NA,NA,NA,NA,NA,"","","",NA,"i",1,0.7847,0,10,10,77,1,"他的","i","",NA,NA,NA,NA,NA,NA,"",NA,"",NA,NA,NA,NA,NA,NA,NA,"",NA,"",NA,NA,NA,NA,NA,NA,NA,"","","",NA,"",NA,NA,NA,NA,NA,NA,NA,"",NA,"28"
"",NA,"",NA,"",NA,NA,NA,NA,NA,NA,NA,"","",1,1,"2024-08-25_15h00.14.666","IAT(Formal)","2021.2.3","Win32",59.88023952,"",NA,"",NA,NA,NA,NA,NA,NA,NA,"","","",NA,"i",1,0.607,0,11,11,58,1,"他人","i","",NA,NA,NA,NA,NA,NA,"",NA,"",NA,NA,NA,NA,NA,NA,NA,"",NA,"",NA,NA,NA,NA,NA,NA,NA,"","","",NA,"",NA,NA,NA,NA,NA,NA,NA,"",NA,"28"
"",NA,"",NA,"",NA,NA,NA,NA,NA,NA,NA,"","",1,1,"2024-08-25_15h00.14.666","IAT(Formal)","2021.2.3","Win32",59.88023952,"",NA,"",NA,NA,NA,NA,NA,NA,NA,"","","",NA,"e",1,0.7177,0,12,12,72,1,"我们","e","",NA,NA,NA,NA,NA,NA,"",NA,"",NA,NA,NA,NA,NA,NA,NA,"",NA,"",NA,NA,NA,NA,NA,NA,NA,"","","",NA,"",NA,NA,NA,NA,NA,NA,NA,"",NA,"28"
"",NA,"",NA,"",NA,NA,NA,NA,NA,NA,NA,"","",1,1,"2024-08-25_15h00.14.666","IAT(Formal)","2021.2.3","Win32",59.88023952,"",NA,"",NA,NA,NA,NA,NA,NA,NA,"","","",NA,"e",1,0.5405,0,13,13,18,1,"勤奋","e","",NA,NA,NA,NA,NA,NA,"",NA,"",NA,NA,NA,NA,NA,NA,NA,"",NA,"",NA,NA,NA,NA,NA,NA,NA,"","","",NA,"",NA,NA,NA,NA,NA,NA,NA,"",NA,"28"
"",NA,"",NA,"",NA,NA,NA,NA,NA,NA,NA,"","",1,1,"2024-08-25_15h00.14.666","IAT(Formal)","2021.2.3","Win32",59.88023952,"",NA,"",NA,NA,NA,NA,NA,NA,NA,"","","",NA,"e",1,0.5201,0,14,14,17,1,"勇敢","e","",NA,NA,NA,NA,NA,NA,"",NA,"",NA,NA,NA,NA,NA,NA,NA,"",NA,"",NA,NA,NA,NA,NA,NA,NA,"","","",NA,"",NA,NA,NA,NA,NA,NA,NA,"",NA,"28"
"",NA,"",NA,"",NA,NA,NA,NA,NA,NA,NA,"","",1,1,"2024-08-25_15h00.14.666","IAT(Formal)","2021.2.3","Win32",59.88023952,"",NA,"",NA,NA,NA,NA,NA,NA,NA,"","","",NA,"i",1,0.5786,0,15,15,59,1,"其他","i","",NA,NA,NA,NA,NA,NA,"",NA,"",NA,NA,NA,NA,NA,NA,NA,"",NA,"",NA,NA,NA,NA,NA,NA,NA,"","","",NA,"",NA,NA,NA,NA,NA,NA,NA,"",NA,"28"
"",NA,"",NA,"",NA,NA,NA,NA,NA,NA,NA,"","",1,1,"2024-08-25_15h00.14.666","IAT(Formal)","2021.2.3","Win32",59.88023952,"",NA,"",NA,NA,NA,NA,NA,NA,NA,"","","",NA,"i",1,0.4937,0,16,16,9,1,"其他","i","",NA,NA,NA,NA,NA,NA,"",NA,"",NA,NA,NA,NA,NA,NA,NA,"",NA,"",NA,NA,NA,NA,NA,NA,NA,"","","",NA,"",NA,NA,NA,NA,NA,NA,NA,"",NA,"28"
"",NA,"",NA,"",NA,NA,NA,NA,NA,NA,NA,"","",1,1,"2024-08-25_15h00.14.666","IAT(Formal)","2021.2.3","Win32",59.88023952,"",NA,"",NA,NA,NA,NA,NA,NA,NA,"","","",NA,"e",1,0.7738,0,17,17,28,1,"活泼","e","",NA,NA,NA,NA,NA,NA,"",NA,"",NA,NA,NA,NA,NA,NA,NA,"",NA,"",NA,NA,NA,NA,NA,NA,NA,"","","",NA,"",NA,NA,NA,NA,NA,NA,NA,"",NA,"28"
"",NA,"",NA,"",NA,NA,NA,NA,NA,NA,NA,"","",1,1,"2024-08-25_15h00.14.666","IAT(Formal)","2021.2.3","Win32",59.88023952,"",NA,"",NA,NA,NA,NA,NA,NA,NA,"","","",NA,"i",1,0.795,0,18,18,47,1,"固执","i","",NA,NA,NA,NA,NA,NA,"",NA,"",NA,NA,NA,NA,NA,NA,NA,"",NA,"",NA,NA,NA,NA,NA,NA,NA,"","","",NA,"",NA,NA,NA,NA,NA,NA,NA,"",NA,"28"
"",NA,"",NA,"",NA,NA,NA,NA,NA,NA,NA,"","",1,1,"2024-08-25_15h00.14.666","IAT(Formal)","2021.2.3","Win32",59.88023952,"",NA,"",NA,NA,NA,NA,NA,NA,NA,"","","",NA,"e",1,0.5671,0,19,19,13,1,"杰出","e","",NA,NA,NA,NA,NA,NA,"",NA,"",NA,NA,NA,NA,NA,NA,NA,"",NA,"",NA,NA,NA,NA,NA,NA,NA,"","","",NA,"",NA,NA,NA,NA,NA,NA,NA,"",NA,"28"
"",NA,"",NA,"",NA,NA,NA,NA,NA,NA,NA,"","",1,1,"2024-08-25_15h00.14.666","IAT(Formal)","2021.2.3","Win32",59.88023952,"",NA,"",NA,NA,NA,NA,NA,NA,NA,"","","",NA,"i",1,0.5292,0,20,20,68,1,"他人","i","",NA,NA,NA,NA,NA,NA,"",NA,"",NA,NA,NA,NA,NA,NA,NA,"",NA,"",NA,NA,NA,NA,NA,NA,NA,"","","",NA,"",NA,NA,NA,NA,NA,NA,NA,"",NA,"28"
"",NA,"",NA,"",NA,NA,NA,NA,NA,NA,NA,"","",1,1,"2024-08-25_15h00.14.666","IAT(Formal)","2021.2.3","Win32",59.88023952,"",NA,"",NA,NA,NA,NA,NA,NA,NA,"","","",NA,"i",1,0.5098,0,21,21,79,1,"其他","i","",NA,NA,NA,NA,NA,NA,"",NA,"",NA,NA,NA,NA,NA,NA,NA,"",NA,"",NA,NA,NA,NA,NA,NA,NA,"","","",NA,"",NA,NA,NA,NA,NA,NA,NA,"",NA,"28"
"",NA,"",NA,"",NA,NA,NA,NA,NA,NA,NA,"","",1,1,"2024-08-25_15h00.14.666","IAT(Formal)","2021.2.3","Win32",59.88023952,"",NA,"",NA,NA,NA,NA,NA,NA,NA,"","","",NA,"i",1,0.4436,0,22,22,5,1,"他","i","",NA,NA,NA,NA,NA,NA,"",NA,"",NA,NA,NA,NA,NA,NA,NA,"",NA,"",NA,NA,NA,NA,NA,NA,NA,"","","",NA,"",NA,NA,NA,NA,NA,NA,NA,"",NA,"28"
"",NA,"",NA,"",NA,NA,NA,NA,NA,NA,NA,"","",1,1,"2024-08-25_15h00.14.666","IAT(Formal)","2021.2.3","Win32",59.88023952,"",NA,"",NA,NA,NA,NA,NA,NA,NA,"","","",NA,"e",1,0.5514,0,23,23,53,1,"自己","e","",NA,NA,NA,NA,NA,NA,"",NA,"",NA,NA,NA,NA,NA,NA,NA,"",NA,"",NA,NA,NA,NA,NA,NA,NA,"","","",NA,"",NA,NA,NA,NA,NA,NA,NA,"",NA,"28"
"",NA,"",NA,"",NA,NA,NA,NA,NA,NA,NA,"","",1,1,"2024-08-25_15h00.14.666","IAT(Formal)","2021.2.3","Win32",59.88023952,"",NA,"",NA,NA,NA,NA,NA,NA,NA,"","","",NA,"e",1,0.595,0,24,24,29,1,"诚恳","e","",NA,NA,NA,NA,NA,NA,"",NA,"",NA,NA,NA,NA,NA,NA,NA,"",NA,"",NA,NA,NA,NA,NA,NA,NA,"","","",NA,"",NA,NA,NA,NA,NA,NA,NA,"",NA,"28"
"",NA,"",NA,"",NA,NA,NA,NA,NA,NA,NA,"","",1,1,"2024-08-25_15h00.14.666","IAT(Formal)","2021.2.3","Win32",59.88023952,"",NA,"",NA,NA,NA,NA,NA,NA,NA,"","","",NA,"e",1,1.0534,0,25,25,25,1,"细腻","e","",NA,NA,NA,NA,NA,NA,"",NA,"",NA,NA,NA,NA,NA,NA,NA,"",NA,"",NA,NA,NA,NA,NA,NA,NA,"","","",NA,"",NA,NA,NA,NA,NA,NA,NA,"",NA,"28"
"",NA,"",NA,"",NA,NA,NA,NA,NA,NA,NA,"","",1,1,"2024-08-25_15h00.14.666","IAT(Formal)","2021.2.3","Win32",59.88023952,"",NA,"",NA,NA,NA,NA,NA,NA,NA,"","","",NA,"i",1,0.667,0,26,26,66,1,"他们","i","",NA,NA,NA,NA,NA,NA,"",NA,"",NA,NA,NA,NA,NA,NA,NA,"",NA,"",NA,NA,NA,NA,NA,NA,NA,"","","",NA,"",NA,NA,NA,NA,NA,NA,NA,"",NA,"28"
"",NA,"",NA,"",NA,NA,NA,NA,NA,NA,NA,"","",1,1,"2024-08-25_15h00.14.666","IAT(Formal)","2021.2.3","Win32",59.88023952,"",NA,"",NA,NA,NA,NA,NA,NA,NA,"","","",NA,"i",1,0.6,0,27,27,65,1,"他","i","",NA,NA,NA,NA,NA,NA,"",NA,"",NA,NA,NA,NA,NA,NA,NA,"",NA,"",NA,NA,NA,NA,NA,NA,NA,"","","",NA,"",NA,NA,NA,NA,NA,NA,NA,"",NA,"28"
"",NA,"",NA,"",NA,NA,NA,NA,NA,NA,NA,"","",1,1,"2024-08-25_15h00.14.666","IAT(Formal)","2021.2.3","Win32",59.88023952,"",NA,"",NA,NA,NA,NA,NA,NA,NA,"","","",NA,"i",1,0.438,0,28,28,6,1,"他们","i","",NA,NA,NA,NA,NA,NA,"",NA,"",NA,NA,NA,NA,NA,NA,NA,"",NA,"",NA,NA,NA,NA,NA,NA,NA,"","","",NA,"",NA,NA,NA,NA,NA,NA,NA,"",NA,"28"
"",NA,"",NA,"",NA,NA,NA,NA,NA,NA,NA,"","",1,1,"2024-08-25_15h00.14.666","IAT(Formal)","2021.2.3","Win32",59.88023952,"",NA,"",NA,NA,NA,NA,NA,NA,NA,"","","",NA,"i",1,1.1068,0,29,29,46,1,"野蛮","i","",NA,NA,NA,NA,NA,NA,"",NA,"",NA,NA,NA,NA,NA,NA,NA,"",NA,"",NA,NA,NA,NA,NA,NA,NA,"","","",NA,"",NA,NA,NA,NA,NA,NA,NA,"",NA,"28"
"",NA,"",NA,"",NA,NA,NA,NA,NA,NA,NA,"","",1,1,"2024-08-25_15h00.14.666","IAT(Formal)","2021.2.3","Win32",59.88023952,"",NA,"",NA,NA,NA,NA,NA,NA,NA,"","","",NA,"e",1,0.5786,0,30,30,19,1,"机智","e","",NA,NA,NA,NA,NA,NA,"",NA,"",NA,NA,NA,NA,NA,NA,NA,"",NA,"",NA,NA,NA,NA,NA,NA,NA,"","","",NA,"",NA,NA,NA,NA,NA,NA,NA,"",NA,"28"
"",NA,"",NA,"",NA,NA,NA,NA,NA,NA,NA,"","",1,1,"2024-08-25_15h00.14.666","IAT(Formal)","2021.2.3","Win32",59.88023952,"",NA,"",NA,NA,NA,NA,NA,NA,NA,"","","",NA,"e",1,0.6084,0,31,31,61,1,"我的","e","",NA,NA,NA,NA,NA,NA,"",NA,"",NA,NA,NA,NA,NA,NA,NA,"",NA,"",NA,NA,NA,NA,NA,NA,NA,"","","",NA,"",NA,NA,NA,NA,NA,NA,NA,"",NA,"28"
"",NA,"",NA,"",NA,NA,NA,NA,NA,NA,NA,"","",1,1,"2024-08-25_15h00.14.666","IAT(Formal)","2021.2.3","Win32",59.88023952,"",NA,"",NA,NA,NA,NA,NA,NA,NA,"","","",NA,"i",1,0.5851,0,32,32,35,1,"消极","i","",NA,NA,NA,NA,NA,NA,"",NA,"",NA,NA,NA,NA,NA,NA,NA,"",NA,"",NA,NA,NA,NA,NA,NA,NA,"","","",NA,"",NA,NA,NA,NA,NA,NA,NA,"",NA,"28"
"",NA,"",NA,"",NA,NA,NA,NA,NA,NA,NA,"","",1,1,"2024-08-25_15h00.14.666","IAT(Formal)","2021.2.3","Win32",59.88023952,"",NA,"",NA,NA,NA,NA,NA,NA,NA,"","","",NA,"e",1,0.5666,0,33,33,62,1,"我们","e","",NA,NA,NA,NA,NA,NA,"",NA,"",NA,NA,NA,NA,NA,NA,NA,"",NA,"",NA,NA,NA,NA,NA,NA,NA,"","","",NA,"",NA,NA,NA,NA,NA,NA,NA,"",NA,"28"
"",NA,"",NA,"",NA,NA,NA,NA,NA,NA,NA,"","",1,1,"2024-08-25_15h00.14.666","IAT(Formal)","2021.2.3","Win32",59.88023952,"",NA,"",NA,NA,NA,NA,NA,NA,NA,"","","",NA,"e",1,0.5689,0,34,34,4,1,"俺","e","",NA,NA,NA,NA,NA,NA,"",NA,"",NA,NA,NA,NA,NA,NA,NA,"",NA,"",NA,NA,NA,NA,NA,NA,NA,"","","",NA,"",NA,NA,NA,NA,NA,NA,NA,"",NA,"28"
"",NA,"",NA,"",NA,NA,NA,NA,NA,NA,NA,"","",1,1,"2024-08-25_15h00.14.666","IAT(Formal)","2021.2.3","Win32",59.88023952,"",NA,"",NA,NA,NA,NA,NA,NA,NA,"","","",NA,"e",1,0.5559,0,35,35,15,1,"诚实","e","",NA,NA,NA,NA,NA,NA,"",NA,"",NA,NA,NA,NA,NA,NA,NA,"",NA,"",NA,NA,NA,NA,NA,NA,NA,"","","",NA,"",NA,NA,NA,NA,NA,NA,NA,"",NA,"28"
"",NA,"",NA,"",NA,NA,NA,NA,NA,NA,NA,"","",1,1,"2024-08-25_15h00.14.666","IAT(Formal)","2021.2.3","Win32",59.88023952,"",NA,"",NA,NA,NA,NA,NA,NA,NA,"","","",NA,"e",1,0.5703,0,36,36,73,1,"自己","e","",NA,NA,NA,NA,NA,NA,"",NA,"",NA,NA,NA,NA,NA,NA,NA,"",NA,"",NA,NA,NA,NA,NA,NA,NA,"","","",NA,"",NA,NA,NA,NA,NA,NA,NA,"",NA,"28"
"",NA,"",NA,"",NA,NA,NA,NA,NA,NA,NA,"","",1,1,"2024-08-25_15h00.14.666","IAT(Formal)","2021.2.3","Win32",59.88023952,"",NA,"",NA,NA,NA,NA,NA,NA,NA,"","","",NA,"i",1,0.6299,0,37,37,7,1,"他的","i","",NA,NA,NA,NA,NA,NA,"",NA,"",NA,NA,NA,NA,NA,NA,NA,"",NA,"",NA,NA,NA,NA,NA,NA,NA,"","","",NA,"",NA,NA,NA,NA,NA,NA,NA,"",NA,"28"
"",NA,"",NA,"",NA,NA,NA,NA,NA,NA,NA,"","",1,1,"2024-08-25_15h00.14.666","IAT(Formal)","2021.2.3","Win32",59.88023952,"",NA,"",NA,NA,NA,NA,NA,NA,NA,"","","",NA,"i",1,1.3218,0,38,38,41,1,"散漫","i","",NA,NA,NA,NA,NA,NA,"",NA,"",NA,NA,NA,NA,NA,NA,NA,"",NA,"",NA,NA,NA,NA,NA,NA,NA,"","","",NA,"",NA,NA,NA,NA,NA,NA,NA,"",NA,"28"
"",NA,"",NA,"",NA,NA,NA,NA,NA,NA,NA,"","",1,1,"2024-08-25_15h00.14.666","IAT(Formal)","2021.2.3","Win32",59.88023952,"",NA,"",NA,NA,NA,NA,NA,NA,NA,"","","",NA,"i",1,0.5843,0,39,39,67,1,"他的","i","",NA,NA,NA,NA,NA,NA,"",NA,"",NA,NA,NA,NA,NA,NA,NA,"",NA,"",NA,NA,NA,NA,NA,NA,NA,"","","",NA,"",NA,NA,NA,NA,NA,NA,NA,"",NA,"28"
"",NA,"",NA,"",NA,NA,NA,NA,NA,NA,NA,"","",1,1,"2024-08-25_15h00.14.666","IAT(Formal)","2021.2.3","Win32",59.88023952,"",NA,"",NA,NA,NA,NA,NA,NA,NA,"","","",NA,"i",1,0.4667,0,40,40,57,1,"他的","i","",NA,NA,NA,NA,NA,NA,"",NA,"",NA,NA,NA,NA,NA,NA,NA,"",NA,"",NA,NA,NA,NA,NA,NA,NA,"","","",NA,"",NA,NA,NA,NA,NA,NA,NA,"",NA,"28"
"",NA,"",NA,"",NA,NA,NA,NA,NA,NA,NA,"","",1,1,"2024-08-25_15h00.14.666","IAT(Formal)","2021.2.3","Win32",59.88023952,"",NA,"",NA,NA,NA,NA,NA,NA,NA,"","","",NA,"e",1,0.5381,0,41,41,63,1,"自己","e","",NA,NA,NA,NA,NA,NA,"",NA,"",NA,NA,NA,NA,NA,NA,NA,"",NA,"",NA,NA,NA,NA,NA,NA,NA,"","","",NA,"",NA,NA,NA,NA,NA,NA,NA,"",NA,"28"
"",NA,"",NA,"",NA,NA,NA,NA,NA,NA,NA,"","",1,1,"2024-08-25_15h00.14.666","IAT(Formal)","2021.2.3","Win32",59.88023952,"",NA,"",NA,NA,NA,NA,NA,NA,NA,"","","",NA,"e",1,0.683,0,42,42,22,1,"无私","e","",NA,NA,NA,NA,NA,NA,"",NA,"",NA,NA,NA,NA,NA,NA,NA,"",NA,"",NA,NA,NA,NA,NA,NA,NA,"","","",NA,"",NA,NA,NA,NA,NA,NA,NA,"",NA,"28"
"",NA,"",NA,"",NA,NA,NA,NA,NA,NA,NA,"","",1,1,"2024-08-25_15h00.14.666","IAT(Formal)","2021.2.3","Win32",59.88023952,"",NA,"",NA,NA,NA,NA,NA,NA,NA,"","","",NA,"i",1,0.6381,0,43,43,38,1,"鲁莽","i","",NA,NA,NA,NA,NA,NA,"",NA,"",NA,NA,NA,NA,NA,NA,NA,"",NA,"",NA,NA,NA,NA,NA,NA,NA,"","","",NA,"",NA,NA,NA,NA,NA,NA,NA,"",NA,"28"
"",NA,"",NA,"",NA,NA,NA,NA,NA,NA,NA,"","",1,1,"2024-08-25_15h00.14.666","IAT(Formal)","2021.2.3","Win32",59.88023952,"",NA,"",NA,NA,NA,NA,NA,NA,NA,"","","",NA,"i",1,0.7404,0,44,44,75,1,"他","i","",NA,NA,NA,NA,NA,NA,"",NA,"",NA,NA,NA,NA,NA,NA,NA,"",NA,"",NA,NA,NA,NA,NA,NA,NA,"","","",NA,"",NA,NA,NA,NA,NA,NA,NA,"",NA,"28"
"",NA,"",NA,"",NA,NA,NA,NA,NA,NA,NA,"","",1,1,"2024-08-25_15h00.14.666","IAT(Formal)","2021.2.3","Win32",59.88023952,"",NA,"",NA,NA,NA,NA,NA,NA,NA,"","","",NA,"e",1,0.5672,0,45,45,64,1,"俺","e","",NA,NA,NA,NA,NA,NA,"",NA,"",NA,NA,NA,NA,NA,NA,NA,"",NA,"",NA,NA,NA,NA,NA,NA,NA,"","","",NA,"",NA,NA,NA,NA,NA,NA,NA,"",NA,"28"
"",NA,"",NA,"",NA,NA,NA,NA,NA,NA,NA,"","",1,1,"2024-08-25_15h00.14.666","IAT(Formal)","2021.2.3","Win32",59.88023952,"",NA,"",NA,NA,NA,NA,NA,NA,NA,"","","",NA,"e",1,0.6005,0,46,46,71,1,"我的","e","",NA,NA,NA,NA,NA,NA,"",NA,"",NA,NA,NA,NA,NA,NA,NA,"",NA,"",NA,NA,NA,NA,NA,NA,NA,"","","",NA,"",NA,NA,NA,NA,NA,NA,NA,"",NA,"28"
"",NA,"",NA,"",NA,NA,NA,NA,NA,NA,NA,"","",1,1,"2024-08-25_15h00.14.666","IAT(Formal)","2021.2.3","Win32",59.88023952,"",NA,"",NA,NA,NA,NA,NA,NA,NA,"","","",NA,"i",1,0.5881,0,47,47,43,1,"自私","i","",NA,NA,NA,NA,NA,NA,"",NA,"",NA,NA,NA,NA,NA,NA,NA,"",NA,"",NA,NA,NA,NA,NA,NA,NA,"","","",NA,"",NA,NA,NA,NA,NA,NA,NA,"",NA,"28"
"",NA,"",NA,"",NA,NA,NA,NA,NA,NA,NA,"","",1,1,"2024-08-25_15h00.14.666","IAT(Formal)","2021.2.3","Win32",59.88023952,"",NA,"",NA,NA,NA,NA,NA,NA,NA,"","","",NA,"i",1,0.5355,0,48,48,69,1,"其他","i","",NA,NA,NA,NA,NA,NA,"",NA,"",NA,NA,NA,NA,NA,NA,NA,"",NA,"",NA,NA,NA,NA,NA,NA,NA,"","","",NA,"",NA,NA,NA,NA,NA,NA,NA,"",NA,"28"
"",NA,"",NA,"",NA,NA,NA,NA,NA,NA,NA,"","",1,1,"2024-08-25_15h00.14.666","IAT(Formal)","2021.2.3","Win32",59.88023952,"",NA,"",NA,NA,NA,NA,NA,NA,NA,"","","",NA,"i",1,0.5194,0,49,49,49,1,"下贱","i","",NA,NA,NA,NA,NA,NA,"",NA,"",NA,NA,NA,NA,NA,NA,NA,"",NA,"",NA,NA,NA,NA,NA,NA,NA,"","","",NA,"",NA,NA,NA,NA,NA,NA,NA,"",NA,"28"
"",NA,"",NA,"",NA,NA,NA,NA,NA,NA,NA,"","",1,1,"2024-08-25_15h00.14.666","IAT(Formal)","2021.2.3","Win32",59.88023952,"",NA,"",NA,NA,NA,NA,NA,NA,NA,"","","",NA,"i",1,0.4879,0,50,50,39,1,"冒失","i","",NA,NA,NA,NA,NA,NA,"",NA,"",NA,NA,NA,NA,NA,NA,NA,"",NA,"",NA,NA,NA,NA,NA,NA,NA,"","","",NA,"",NA,NA,NA,NA,NA,NA,NA,"",NA,"28"
"",NA,"",NA,"",NA,NA,NA,NA,NA,NA,NA,"","",1,1,"2024-08-25_15h00.14.666","IAT(Formal)","2021.2.3","Win32",59.88023952,"",NA,"",NA,NA,NA,NA,NA,NA,NA,"","","",NA,"i",1,0.653,0,51,51,33,1,"刻薄","i","",NA,NA,NA,NA,NA,NA,"",NA,"",NA,NA,NA,NA,NA,NA,NA,"",NA,"",NA,NA,NA,NA,NA,NA,NA,"","","",NA,"",NA,NA,NA,NA,NA,NA,NA,"",NA,"28"
"",NA,"",NA,"",NA,NA,NA,NA,NA,NA,NA,"","",1,1,"2024-08-25_15h00.14.666","IAT(Formal)","2021.2.3","Win32",59.88023952,"",NA,"",NA,NA,NA,NA,NA,NA,NA,"","","",NA,"e",1,0.451,0,52,52,12,1,"聪明","e","",NA,NA,NA,NA,NA,NA,"",NA,"",NA,NA,NA,NA,NA,NA,NA,"",NA,"",NA,NA,NA,NA,NA,NA,NA,"","","",NA,"",NA,NA,NA,NA,NA,NA,NA,"",NA,"28"
"",NA,"",NA,"",NA,NA,NA,NA,NA,NA,NA,"","",1,1,"2024-08-25_15h00.14.666","IAT(Formal)","2021.2.3","Win32",59.88023952,"",NA,"",NA,NA,NA,NA,NA,NA,NA,"","","",NA,"i",1,0.5884,0,53,53,45,1,"猖狂","i","",NA,NA,NA,NA,NA,NA,"",NA,"",NA,NA,NA,NA,NA,NA,NA,"",NA,"",NA,NA,NA,NA,NA,NA,NA,"","","",NA,"",NA,NA,NA,NA,NA,NA,NA,"",NA,"28"
"",NA,"",NA,"",NA,NA,NA,NA,NA,NA,NA,"","",1,1,"2024-08-25_15h00.14.666","IAT(Formal)","2021.2.3","Win32",59.88023952,"",NA,"",NA,NA,NA,NA,NA,NA,NA,"","","",NA,"i",0,0.7445,0,54,54,26,1,"冷静","e","",NA,NA,NA,NA,NA,NA,"",NA,"",NA,NA,NA,NA,NA,NA,NA,"",NA,"",NA,NA,NA,NA,NA,NA,NA,"","","",NA,"",NA,NA,NA,NA,NA,NA,NA,"",NA,"28"
"",NA,"",NA,"",NA,NA,NA,NA,NA,NA,NA,"","",1,1,"2024-08-25_15h00.14.666","IAT(Formal)","2021.2.3","Win32",59.88023952,"",NA,"",NA,NA,NA,NA,NA,NA,NA,"","","",NA,"e",1,0.5502,0,55,55,10,1,"优秀","e","",NA,NA,NA,NA,NA,NA,"",NA,"",NA,NA,NA,NA,NA,NA,NA,"",NA,"",NA,NA,NA,NA,NA,NA,NA,"","","",NA,"",NA,NA,NA,NA,NA,NA,NA,"",NA,"28"
"",NA,"",NA,"",NA,NA,NA,NA,NA,NA,NA,"","",1,1,"2024-08-25_15h00.14.666","IAT(Formal)","2021.2.3","Win32",59.88023952,"",NA,"",NA,NA,NA,NA,NA,NA,NA,"","","",NA,"i",1,0.788,0,56,56,56,1,"他们","i","",NA,NA,NA,NA,NA,NA,"",NA,"",NA,NA,NA,NA,NA,NA,NA,"",NA,"",NA,NA,NA,NA,NA,NA,NA,"","","",NA,"",NA,NA,NA,NA,NA,NA,NA,"",NA,"28"
"",NA,"",NA,"",NA,NA,NA,NA,NA,NA,NA,"","",1,1,"2024-08-25_15h00.14.666","IAT(Formal)","2021.2.3","Win32",59.88023952,"",NA,"",NA,NA,NA,NA,NA,NA,NA,"","","",NA,"e",1,0.6219,0,57,57,50,1,"我","e","",NA,NA,NA,NA,NA,NA,"",NA,"",NA,NA,NA,NA,NA,NA,NA,"",NA,"",NA,NA,NA,NA,NA,NA,NA,"","","",NA,"",NA,NA,NA,NA,NA,NA,NA,"",NA,"28"
"",NA,"",NA,"",NA,NA,NA,NA,NA,NA,NA,"","",1,1,"2024-08-25_15h00.14.666","IAT(Formal)","2021.2.3","Win32",59.88023952,"",NA,"",NA,NA,NA,NA,NA,NA,NA,"","","",NA,"e",1,0.6017,0,58,58,54,1,"俺","e","",NA,NA,NA,NA,NA,NA,"",NA,"",NA,NA,NA,NA,NA,NA,NA,"",NA,"",NA,NA,NA,NA,NA,NA,NA,"","","",NA,"",NA,NA,NA,NA,NA,NA,NA,"",NA,"28"
"",NA,"",NA,"",NA,NA,NA,NA,NA,NA,NA,"","",1,1,"2024-08-25_15h00.14.666","IAT(Formal)","2021.2.3","Win32",59.88023952,"",NA,"",NA,NA,NA,NA,NA,NA,NA,"","","",NA,"e",1,0.9748,0,59,59,11,1,"崇高","e","",NA,NA,NA,NA,NA,NA,"",NA,"",NA,NA,NA,NA,NA,NA,NA,"",NA,"",NA,NA,NA,NA,NA,NA,NA,"","","",NA,"",NA,NA,NA,NA,NA,NA,NA,"",NA,"28"
"",NA,"",NA,"",NA,NA,NA,NA,NA,NA,NA,"","",1,1,"2024-08-25_15h00.14.666","IAT(Formal)","2021.2.3","Win32",59.88023952,"",NA,"",NA,NA,NA,NA,NA,NA,NA,"","","",NA,"i",1,1.0024,0,60,60,37,1,"傲慢","i","",NA,NA,NA,NA,NA,NA,"",NA,"",NA,NA,NA,NA,NA,NA,NA,"",NA,"",NA,NA,NA,NA,NA,NA,NA,"","","",NA,"",NA,NA,NA,NA,NA,NA,NA,"",NA,"28"
"",NA,"",NA,"",NA,NA,NA,NA,NA,NA,NA,"","",1,1,"2024-08-25_15h00.14.666","IAT(Formal)","2021.2.3","Win32",59.88023952,"",NA,"",NA,NA,NA,NA,NA,NA,NA,"","","",NA,"e",1,0.8001,0,61,61,21,1,"稳重","e","",NA,NA,NA,NA,NA,NA,"",NA,"",NA,NA,NA,NA,NA,NA,NA,"",NA,"",NA,NA,NA,NA,NA,NA,NA,"","","",NA,"",NA,NA,NA,NA,NA,NA,NA,"",NA,"28"
"",NA,"",NA,"",NA,NA,NA,NA,NA,NA,NA,"","",1,1,"2024-08-25_15h00.14.666","IAT(Formal)","2021.2.3","Win32",59.88023952,"",NA,"",NA,NA,NA,NA,NA,NA,NA,"","","",NA,"i",1,0.5665,0,62,62,30,1,"卑鄙","i","",NA,NA,NA,NA,NA,NA,"",NA,"",NA,NA,NA,NA,NA,NA,NA,"",NA,"",NA,NA,NA,NA,NA,NA,NA,"","","",NA,"",NA,NA,NA,NA,NA,NA,NA,"",NA,"28"
"",NA,"",NA,"",NA,NA,NA,NA,NA,NA,NA,"","",1,1,"2024-08-25_15h00.14.666","IAT(Formal)","2021.2.3","Win32",59.88023952,"",NA,"",NA,NA,NA,NA,NA,NA,NA,"","","",NA,"e",0,0.4926,0,63,63,55,1,"他","i","",NA,NA,NA,NA,NA,NA,"",NA,"",NA,NA,NA,NA,NA,NA,NA,"",NA,"",NA,NA,NA,NA,NA,NA,NA,"","","",NA,"",NA,NA,NA,NA,NA,NA,NA,"",NA,"28"
"",NA,"",NA,"",NA,NA,NA,NA,NA,NA,NA,"","",1,1,"2024-08-25_15h00.14.666","IAT(Formal)","2021.2.3","Win32",59.88023952,"",NA,"",NA,NA,NA,NA,NA,NA,NA,"","","",NA,"i",1,0.7,0,64,64,34,1,"悲观","i","",NA,NA,NA,NA,NA,NA,"",NA,"",NA,NA,NA,NA,NA,NA,NA,"",NA,"",NA,NA,NA,NA,NA,NA,NA,"","","",NA,"",NA,NA,NA,NA,NA,NA,NA,"",NA,"28"
"",NA,"",NA,"",NA,NA,NA,NA,NA,NA,NA,"","",1,1,"2024-08-25_15h00.14.666","IAT(Formal)","2021.2.3","Win32",59.88023952,"",NA,"",NA,NA,NA,NA,NA,NA,NA,"","","",NA,"e",1,0.5349,0,65,65,24,1,"朴实","e","",NA,NA,NA,NA,NA,NA,"",NA,"",NA,NA,NA,NA,NA,NA,NA,"",NA,"",NA,NA,NA,NA,NA,NA,NA,"","","",NA,"",NA,NA,NA,NA,NA,NA,NA,"",NA,"28"
"",NA,"",NA,"",NA,NA,NA,NA,NA,NA,NA,"","",1,1,"2024-08-25_15h00.14.666","IAT(Formal)","2021.2.3","Win32",59.88023952,"",NA,"",NA,NA,NA,NA,NA,NA,NA,"","","",NA,"e",1,0.558,0,66,66,2,1,"我们","e","",NA,NA,NA,NA,NA,NA,"",NA,"",NA,NA,NA,NA,NA,NA,NA,"",NA,"",NA,NA,NA,NA,NA,NA,NA,"","","",NA,"",NA,NA,NA,NA,NA,NA,NA,"",NA,"28"
"",NA,"",NA,"",NA,NA,NA,NA,NA,NA,NA,"","",1,1,"2024-08-25_15h00.14.666","IAT(Formal)","2021.2.3","Win32",59.88023952,"",NA,"",NA,NA,NA,NA,NA,NA,NA,"","","",NA,"e",1,0.5004,0,67,67,0,1,"我","e","",NA,NA,NA,NA,NA,NA,"",NA,"",NA,NA,NA,NA,NA,NA,NA,"",NA,"",NA,NA,NA,NA,NA,NA,NA,"","","",NA,"",NA,NA,NA,NA,NA,NA,NA,"",NA,"28"
"",NA,"",NA,"",NA,NA,NA,NA,NA,NA,NA,"","",1,1,"2024-08-25_15h00.14.666","IAT(Formal)","2021.2.3","Win32",59.88023952,"",NA,"",NA,NA,NA,NA,NA,NA,NA,"","","",NA,"e",1,0.6504,0,68,68,23,1,"公正","e","",NA,NA,NA,NA,NA,NA,"",NA,"",NA,NA,NA,NA,NA,NA,NA,"",NA,"",NA,NA,NA,NA,NA,NA,NA,"","","",NA,"",NA,NA,NA,NA,NA,NA,NA,"",NA,"28"
"",NA,"",NA,"",NA,NA,NA,NA,NA,NA,NA,"","",1,1,"2024-08-25_15h00.14.666","IAT(Formal)","2021.2.3","Win32",59.88023952,"",NA,"",NA,NA,NA,NA,NA,NA,NA,"","","",NA,"e",1,0.6832,0,69,69,3,1,"自己","e","",NA,NA,NA,NA,NA,NA,"",NA,"",NA,NA,NA,NA,NA,NA,NA,"",NA,"",NA,NA,NA,NA,NA,NA,NA,"","","",NA,"",NA,NA,NA,NA,NA,NA,NA,"",NA,"28"
"",NA,"",NA,"",NA,NA,NA,NA,NA,NA,NA,"","",1,1,"2024-08-25_15h00.14.666","IAT(Formal)","2021.2.3","Win32",59.88023952,"",NA,"",NA,NA,NA,NA,NA,NA,NA,"","","",NA,"i",1,0.695,0,70,70,42,1,"凶狠","i","",NA,NA,NA,NA,NA,NA,"",NA,"",NA,NA,NA,NA,NA,NA,NA,"",NA,"",NA,NA,NA,NA,NA,NA,NA,"","","",NA,"",NA,NA,NA,NA,NA,NA,NA,"",NA,"28"
"",NA,"",NA,"",NA,NA,NA,NA,NA,NA,NA,"","",1,1,"2024-08-25_15h00.14.666","IAT(Formal)","2021.2.3","Win32",59.88023952,"",NA,"",NA,NA,NA,NA,NA,NA,NA,"","","",NA,"e",1,0.5623,0,71,71,16,1,"正直","e","",NA,NA,NA,NA,NA,NA,"",NA,"",NA,NA,NA,NA,NA,NA,NA,"",NA,"",NA,NA,NA,NA,NA,NA,NA,"","","",NA,"",NA,NA,NA,NA,NA,NA,NA,"",NA,"28"
"",NA,"",NA,"",NA,NA,NA,NA,NA,NA,NA,"","",1,1,"2024-08-25_15h00.14.666","IAT(Formal)","2021.2.3","Win32",59.88023952,"",NA,"",NA,NA,NA,NA,NA,NA,NA,"","","",NA,"e",1,0.6311,0,72,72,14,1,"乐观","e","",NA,NA,NA,NA,NA,NA,"",NA,"",NA,NA,NA,NA,NA,NA,NA,"",NA,"",NA,NA,NA,NA,NA,NA,NA,"","","",NA,"",NA,NA,NA,NA,NA,NA,NA,"",NA,"28"
"",NA,"",NA,"",NA,NA,NA,NA,NA,NA,NA,"","",1,1,"2024-08-25_15h00.14.666","IAT(Formal)","2021.2.3","Win32",59.88023952,"",NA,"",NA,NA,NA,NA,NA,NA,NA,"","","",NA,"e",1,0.5945,0,73,73,20,1,"认真","e","",NA,NA,NA,NA,NA,NA,"",NA,"",NA,NA,NA,NA,NA,NA,NA,"",NA,"",NA,NA,NA,NA,NA,NA,NA,"","","",NA,"",NA,NA,NA,NA,NA,NA,NA,"",NA,"28"
"",NA,"",NA,"",NA,NA,NA,NA,NA,NA,NA,"","",1,1,"2024-08-25_15h00.14.666","IAT(Formal)","2021.2.3","Win32",59.88023952,"",NA,"",NA,NA,NA,NA,NA,NA,NA,"","","",NA,"i",1,0.6262,0,74,74,44,1,"暴躁","i","",NA,NA,NA,NA,NA,NA,"",NA,"",NA,NA,NA,NA,NA,NA,NA,"",NA,"",NA,NA,NA,NA,NA,NA,NA,"","","",NA,"",NA,NA,NA,NA,NA,NA,NA,"",NA,"28"
"",NA,"",NA,"",NA,NA,NA,NA,NA,NA,NA,"","",1,1,"2024-08-25_15h00.14.666","IAT(Formal)","2021.2.3","Win32",59.88023952,"",NA,"",NA,NA,NA,NA,NA,NA,NA,"","","",NA,"e",1,0.519,0,75,75,70,1,"我","e","",NA,NA,NA,NA,NA,NA,"",NA,"",NA,NA,NA,NA,NA,NA,NA,"",NA,"",NA,NA,NA,NA,NA,NA,NA,"","","",NA,"",NA,NA,NA,NA,NA,NA,NA,"",NA,"28"
"",NA,"",NA,"",NA,NA,NA,NA,NA,NA,NA,"","",1,1,"2024-08-25_15h00.14.666","IAT(Formal)","2021.2.3","Win32",59.88023952,"",NA,"",NA,NA,NA,NA,NA,NA,NA,"","","",NA,"e",1,0.5967,0,76,76,51,1,"我的","e","",NA,NA,NA,NA,NA,NA,"",NA,"",NA,NA,NA,NA,NA,NA,NA,"",NA,"",NA,NA,NA,NA,NA,NA,NA,"","","",NA,"",NA,NA,NA,NA,NA,NA,NA,"",NA,"28"
"",NA,"",NA,"",NA,NA,NA,NA,NA,NA,NA,"","",1,1,"2024-08-25_15h00.14.666","IAT(Formal)","2021.2.3","Win32",59.88023952,"",NA,"",NA,NA,NA,NA,NA,NA,NA,"","","",NA,"e",1,0.6235,0,77,77,52,1,"我们","e","",NA,NA,NA,NA,NA,NA,"",NA,"",NA,NA,NA,NA,NA,NA,NA,"",NA,"",NA,NA,NA,NA,NA,NA,NA,"","","",NA,"",NA,NA,NA,NA,NA,NA,NA,"",NA,"28"
"",NA,"",NA,"",NA,NA,NA,NA,NA,NA,NA,"","",1,1,"2024-08-25_15h00.14.666","IAT(Formal)","2021.2.3","Win32",59.88023952,"",NA,"",NA,NA,NA,NA,NA,NA,NA,"","","",NA,"i",1,0.6291,0,78,78,76,1,"他们","i","",NA,NA,NA,NA,NA,NA,"",NA,"",NA,NA,NA,NA,NA,NA,NA,"",NA,"",NA,NA,NA,NA,NA,NA,NA,"","","",NA,"",NA,NA,NA,NA,NA,NA,NA,"",NA,"28"
"",NA,"",NA,"",NA,NA,NA,NA,NA,NA,NA,"","",1,1,"2024-08-25_15h00.14.666","IAT(Formal)","2021.2.3","Win32",59.88023952,"",NA,"",NA,NA,NA,NA,NA,NA,NA,"","","",NA,"e",1,0.5501,0,79,79,1,1,"我的","e","",NA,NA,NA,NA,NA,NA,"",NA,"",NA,NA,NA,NA,NA,NA,NA,"",NA,"",NA,NA,NA,NA,NA,NA,NA,"","","",NA,"",NA,NA,NA,NA,NA,NA,NA,"",NA,"28"
"",NA,"",NA,"",NA,NA,NA,NA,NA,NA,NA,"","",1,1,"2024-08-25_15h00.14.666","IAT(Formal)","2021.2.3","Win32",59.88023952,"",NA,"",NA,NA,NA,NA,NA,NA,NA,"","","",NA,"i",1,0.6673,NA,NA,NA,NA,NA,"他们","i","space",8.2216,0,0,0,56,1,"",NA,"",NA,NA,NA,NA,NA,NA,NA,"",NA,"",NA,NA,NA,NA,NA,NA,NA,"","","",NA,"",NA,NA,NA,NA,NA,NA,NA,"",NA,"28"
"",NA,"",NA,"",NA,NA,NA,NA,NA,NA,NA,"","",1,1,"2024-08-25_15h00.14.666","IAT(Formal)","2021.2.3","Win32",59.88023952,"",NA,"",NA,NA,NA,NA,NA,NA,NA,"","","",NA,"i",1,0.4503,NA,NA,NA,NA,NA,"他人","i","",NA,0,1,1,78,1,"",NA,"",NA,NA,NA,NA,NA,NA,NA,"",NA,"",NA,NA,NA,NA,NA,NA,NA,"","","",NA,"",NA,NA,NA,NA,NA,NA,NA,"",NA,"28"
"",NA,"",NA,"",NA,NA,NA,NA,NA,NA,NA,"","",1,1,"2024-08-25_15h00.14.666","IAT(Formal)","2021.2.3","Win32",59.88023952,"",NA,"",NA,NA,NA,NA,NA,NA,NA,"","","",NA,"e",1,0.4248,NA,NA,NA,NA,NA,"我的","e","",NA,0,2,2,1,1,"",NA,"",NA,NA,NA,NA,NA,NA,NA,"",NA,"",NA,NA,NA,NA,NA,NA,NA,"","","",NA,"",NA,NA,NA,NA,NA,NA,NA,"",NA,"28"
"",NA,"",NA,"",NA,NA,NA,NA,NA,NA,NA,"","",1,1,"2024-08-25_15h00.14.666","IAT(Formal)","2021.2.3","Win32",59.88023952,"",NA,"",NA,NA,NA,NA,NA,NA,NA,"","","",NA,"i",1,0.5851,NA,NA,NA,NA,NA,"他人","i","",NA,0,3,3,58,1,"",NA,"",NA,NA,NA,NA,NA,NA,NA,"",NA,"",NA,NA,NA,NA,NA,NA,NA,"","","",NA,"",NA,NA,NA,NA,NA,NA,NA,"",NA,"28"
"",NA,"",NA,"",NA,NA,NA,NA,NA,NA,NA,"","",1,1,"2024-08-25_15h00.14.666","IAT(Formal)","2021.2.3","Win32",59.88023952,"",NA,"",NA,NA,NA,NA,NA,NA,NA,"","","",NA,"i",1,0.575,NA,NA,NA,NA,NA,"执拗","i","",NA,0,4,4,40,1,"",NA,"",NA,NA,NA,NA,NA,NA,NA,"",NA,"",NA,NA,NA,NA,NA,NA,NA,"","","",NA,"",NA,NA,NA,NA,NA,NA,NA,"",NA,"28"
"",NA,"",NA,"",NA,NA,NA,NA,NA,NA,NA,"","",1,1,"2024-08-25_15h00.14.666","IAT(Formal)","2021.2.3","Win32",59.88023952,"",NA,"",NA,NA,NA,NA,NA,NA,NA,"","","",NA,"e",1,0.5509,NA,NA,NA,NA,NA,"诚恳","e","",NA,0,5,5,29,1,"",NA,"",NA,NA,NA,NA,NA,NA,NA,"",NA,"",NA,NA,NA,NA,NA,NA,NA,"","","",NA,"",NA,NA,NA,NA,NA,NA,NA,"",NA,"28"
"",NA,"",NA,"",NA,NA,NA,NA,NA,NA,NA,"","",1,1,"2024-08-25_15h00.14.666","IAT(Formal)","2021.2.3","Win32",59.88023952,"",NA,"",NA,NA,NA,NA,NA,NA,NA,"","","",NA,"i",1,0.5073,NA,NA,NA,NA,NA,"他们","i","",NA,0,6,6,66,1,"",NA,"",NA,NA,NA,NA,NA,NA,NA,"",NA,"",NA,NA,NA,NA,NA,NA,NA,"","","",NA,"",NA,NA,NA,NA,NA,NA,NA,"",NA,"28"
"",NA,"",NA,"",NA,NA,NA,NA,NA,NA,NA,"","",1,1,"2024-08-25_15h00.14.666","IAT(Formal)","2021.2.3","Win32",59.88023952,"",NA,"",NA,NA,NA,NA,NA,NA,NA,"","","",NA,"i",1,0.4689,NA,NA,NA,NA,NA,"他人","i","",NA,0,7,7,68,1,"",NA,"",NA,NA,NA,NA,NA,NA,NA,"",NA,"",NA,NA,NA,NA,NA,NA,NA,"","","",NA,"",NA,NA,NA,NA,NA,NA,NA,"",NA,"28"
"",NA,"",NA,"",NA,NA,NA,NA,NA,NA,NA,"","",1,1,"2024-08-25_15h00.14.666","IAT(Formal)","2021.2.3","Win32",59.88023952,"",NA,"",NA,NA,NA,NA,NA,NA,NA,"","","",NA,"e",1,0.5196,NA,NA,NA,NA,NA,"我","e","",NA,0,8,8,0,1,"",NA,"",NA,NA,NA,NA,NA,NA,NA,"",NA,"",NA,NA,NA,NA,NA,NA,NA,"","","",NA,"",NA,NA,NA,NA,NA,NA,NA,"",NA,"28"
"",NA,"",NA,"",NA,NA,NA,NA,NA,NA,NA,"","",1,1,"2024-08-25_15h00.14.666","IAT(Formal)","2021.2.3","Win32",59.88023952,"",NA,"",NA,NA,NA,NA,NA,NA,NA,"","","",NA,"i",1,0.7535,NA,NA,NA,NA,NA,"自私","i","",NA,0,9,9,43,1,"",NA,"",NA,NA,NA,NA,NA,NA,NA,"",NA,"",NA,NA,NA,NA,NA,NA,NA,"","","",NA,"",NA,NA,NA,NA,NA,NA,NA,"",NA,"28"
"",NA,"",NA,"",NA,NA,NA,NA,NA,NA,NA,"","",1,1,"2024-08-25_15h00.14.666","IAT(Formal)","2021.2.3","Win32",59.88023952,"",NA,"",NA,NA,NA,NA,NA,NA,NA,"","","",NA,"i",1,0.5785,NA,NA,NA,NA,NA,"其他","i","",NA,0,10,10,69,1,"",NA,"",NA,NA,NA,NA,NA,NA,NA,"",NA,"",NA,NA,NA,NA,NA,NA,NA,"","","",NA,"",NA,NA,NA,NA,NA,NA,NA,"",NA,"28"
"",NA,"",NA,"",NA,NA,NA,NA,NA,NA,NA,"","",1,1,"2024-08-25_15h00.14.666","IAT(Formal)","2021.2.3","Win32",59.88023952,"",NA,"",NA,NA,NA,NA,NA,NA,NA,"","","",NA,"e",0,0.6904,NA,NA,NA,NA,NA,"自卑","i","",NA,0,11,11,36,1,"",NA,"",NA,NA,NA,NA,NA,NA,NA,"",NA,"",NA,NA,NA,NA,NA,NA,NA,"","","",NA,"",NA,NA,NA,NA,NA,NA,NA,"",NA,"28"
"",NA,"",NA,"",NA,NA,NA,NA,NA,NA,NA,"","",1,1,"2024-08-25_15h00.14.666","IAT(Formal)","2021.2.3","Win32",59.88023952,"",NA,"",NA,NA,NA,NA,NA,NA,NA,"","","",NA,"e",1,0.5335,NA,NA,NA,NA,NA,"我","e","",NA,0,12,12,60,1,"",NA,"",NA,NA,NA,NA,NA,NA,NA,"",NA,"",NA,NA,NA,NA,NA,NA,NA,"","","",NA,"",NA,NA,NA,NA,NA,NA,NA,"",NA,"28"
"",NA,"",NA,"",NA,NA,NA,NA,NA,NA,NA,"","",1,1,"2024-08-25_15h00.14.666","IAT(Formal)","2021.2.3","Win32",59.88023952,"",NA,"",NA,NA,NA,NA,NA,NA,NA,"","","",NA,"i",1,0.6954,NA,NA,NA,NA,NA,"卑鄙","i","",NA,0,13,13,30,1,"",NA,"",NA,NA,NA,NA,NA,NA,NA,"",NA,"",NA,NA,NA,NA,NA,NA,NA,"","","",NA,"",NA,NA,NA,NA,NA,NA,NA,"",NA,"28"
"",NA,"",NA,"",NA,NA,NA,NA,NA,NA,NA,"","",1,1,"2024-08-25_15h00.14.666","IAT(Formal)","2021.2.3","Win32",59.88023952,"",NA,"",NA,NA,NA,NA,NA,NA,NA,"","","",NA,"i",1,0.5628,NA,NA,NA,NA,NA,"愚蠢","i","",NA,0,14,14,32,1,"",NA,"",NA,NA,NA,NA,NA,NA,NA,"",NA,"",NA,NA,NA,NA,NA,NA,NA,"","","",NA,"",NA,NA,NA,NA,NA,NA,NA,"",NA,"28"
"",NA,"",NA,"",NA,NA,NA,NA,NA,NA,NA,"","",1,1,"2024-08-25_15h00.14.666","IAT(Formal)","2021.2.3","Win32",59.88023952,"",NA,"",NA,NA,NA,NA,NA,NA,NA,"","","",NA,"",0,NA,NA,NA,NA,NA,NA,"他的","i","",NA,0,15,15,67,1,"",NA,"",NA,NA,NA,NA,NA,NA,NA,"",NA,"",NA,NA,NA,NA,NA,NA,NA,"","","",NA,"",NA,NA,NA,NA,NA,NA,NA,"",NA,"28"
"",NA,"",NA,"",NA,NA,NA,NA,NA,NA,NA,"","",1,1,"2024-08-25_15h00.14.666","IAT(Formal)","2021.2.3","Win32",59.88023952,"",NA,"",NA,NA,NA,NA,NA,NA,NA,"","","",NA,"i",1,0.5173,NA,NA,NA,NA,NA,"他","i","",NA,0,16,16,65,1,"",NA,"",NA,NA,NA,NA,NA,NA,NA,"",NA,"",NA,NA,NA,NA,NA,NA,NA,"","","",NA,"",NA,NA,NA,NA,NA,NA,NA,"",NA,"28"
"",NA,"",NA,"",NA,NA,NA,NA,NA,NA,NA,"","",1,1,"2024-08-25_15h00.14.666","IAT(Formal)","2021.2.3","Win32",59.88023952,"",NA,"",NA,NA,NA,NA,NA,NA,NA,"","","",NA,"e",1,0.8084,NA,NA,NA,NA,NA,"冷静","e","",NA,0,17,17,26,1,"",NA,"",NA,NA,NA,NA,NA,NA,NA,"",NA,"",NA,NA,NA,NA,NA,NA,NA,"","","",NA,"",NA,NA,NA,NA,NA,NA,NA,"",NA,"28"
"",NA,"",NA,"",NA,NA,NA,NA,NA,NA,NA,"","",1,1,"2024-08-25_15h00.14.666","IAT(Formal)","2021.2.3","Win32",59.88023952,"",NA,"",NA,NA,NA,NA,NA,NA,NA,"","","",NA,"i",1,0.657,NA,NA,NA,NA,NA,"他的","i","",NA,0,18,18,77,1,"",NA,"",NA,NA,NA,NA,NA,NA,NA,"",NA,"",NA,NA,NA,NA,NA,NA,NA,"","","",NA,"",NA,NA,NA,NA,NA,NA,NA,"",NA,"28"
"",NA,"",NA,"",NA,NA,NA,NA,NA,NA,NA,"","",1,1,"2024-08-25_15h00.14.666","IAT(Formal)","2021.2.3","Win32",59.88023952,"",NA,"",NA,NA,NA,NA,NA,NA,NA,"","","",NA,"e",1,0.49,NA,NA,NA,NA,NA,"俺","e","",NA,0,19,19,54,1,"",NA,"",NA,NA,NA,NA,NA,NA,NA,"",NA,"",NA,NA,NA,NA,NA,NA,NA,"","","",NA,"",NA,NA,NA,NA,NA,NA,NA,"",NA,"28"
"",NA,"",NA,"",NA,NA,NA,NA,NA,NA,NA,"","",1,1,"2024-08-25_15h00.14.666","IAT(Formal)","2021.2.3","Win32",59.88023952,"",NA,"",NA,NA,NA,NA,NA,NA,NA,"","","",NA,"i",1,0.5994,NA,NA,NA,NA,NA,"其他","i","",NA,0,20,20,79,1,"",NA,"",NA,NA,NA,NA,NA,NA,NA,"",NA,"",NA,NA,NA,NA,NA,NA,NA,"","","",NA,"",NA,NA,NA,NA,NA,NA,NA,"",NA,"28"
"",NA,"",NA,"",NA,NA,NA,NA,NA,NA,NA,"","",1,1,"2024-08-25_15h00.14.666","IAT(Formal)","2021.2.3","Win32",59.88023952,"",NA,"",NA,NA,NA,NA,NA,NA,NA,"","","",NA,"i",1,0.6344,NA,NA,NA,NA,NA,"他们","i","",NA,0,21,21,76,1,"",NA,"",NA,NA,NA,NA,NA,NA,NA,"",NA,"",NA,NA,NA,NA,NA,NA,NA,"","","",NA,"",NA,NA,NA,NA,NA,NA,NA,"",NA,"28"
"",NA,"",NA,"",NA,NA,NA,NA,NA,NA,NA,"","",1,1,"2024-08-25_15h00.14.666","IAT(Formal)","2021.2.3","Win32",59.88023952,"",NA,"",NA,NA,NA,NA,NA,NA,NA,"","","",NA,"i",1,0.5172,NA,NA,NA,NA,NA,"他们","i","",NA,0,22,22,6,1,"",NA,"",NA,NA,NA,NA,NA,NA,NA,"",NA,"",NA,NA,NA,NA,NA,NA,NA,"","","",NA,"",NA,NA,NA,NA,NA,NA,NA,"",NA,"28"
"",NA,"",NA,"",NA,NA,NA,NA,NA,NA,NA,"","",1,1,"2024-08-25_15h00.14.666","IAT(Formal)","2021.2.3","Win32",59.88023952,"",NA,"",NA,NA,NA,NA,NA,NA,NA,"","","",NA,"e",1,0.4466,NA,NA,NA,NA,NA,"我的","e","",NA,0,23,23,71,1,"",NA,"",NA,NA,NA,NA,NA,NA,NA,"",NA,"",NA,NA,NA,NA,NA,NA,NA,"","","",NA,"",NA,NA,NA,NA,NA,NA,NA,"",NA,"28"
"",NA,"",NA,"",NA,NA,NA,NA,NA,NA,NA,"","",1,1,"2024-08-25_15h00.14.666","IAT(Formal)","2021.2.3","Win32",59.88023952,"",NA,"",NA,NA,NA,NA,NA,NA,NA,"","","",NA,"e",1,0.5673,NA,NA,NA,NA,NA,"我们","e","",NA,0,24,24,2,1,"",NA,"",NA,NA,NA,NA,NA,NA,NA,"",NA,"",NA,NA,NA,NA,NA,NA,NA,"","","",NA,"",NA,NA,NA,NA,NA,NA,NA,"",NA,"28"
"",NA,"",NA,"",NA,NA,NA,NA,NA,NA,NA,"","",1,1,"2024-08-25_15h00.14.666","IAT(Formal)","2021.2.3","Win32",59.88023952,"",NA,"",NA,NA,NA,NA,NA,NA,NA,"","","",NA,"i",1,0.5768,NA,NA,NA,NA,NA,"凶狠","i","",NA,0,25,25,42,1,"",NA,"",NA,NA,NA,NA,NA,NA,NA,"",NA,"",NA,NA,NA,NA,NA,NA,NA,"","","",NA,"",NA,NA,NA,NA,NA,NA,NA,"",NA,"28"
"",NA,"",NA,"",NA,NA,NA,NA,NA,NA,NA,"","",1,1,"2024-08-25_15h00.14.666","IAT(Formal)","2021.2.3","Win32",59.88023952,"",NA,"",NA,NA,NA,NA,NA,NA,NA,"","","",NA,"e",1,0.554,NA,NA,NA,NA,NA,"自己","e","",NA,0,26,26,63,1,"",NA,"",NA,NA,NA,NA,NA,NA,NA,"",NA,"",NA,NA,NA,NA,NA,NA,NA,"","","",NA,"",NA,NA,NA,NA,NA,NA,NA,"",NA,"28"
"",NA,"",NA,"",NA,NA,NA,NA,NA,NA,NA,"","",1,1,"2024-08-25_15h00.14.666","IAT(Formal)","2021.2.3","Win32",59.88023952,"",NA,"",NA,NA,NA,NA,NA,NA,NA,"","","",NA,"i",1,0.5357,NA,NA,NA,NA,NA,"下贱","i","",NA,0,27,27,49,1,"",NA,"",NA,NA,NA,NA,NA,NA,NA,"",NA,"",NA,NA,NA,NA,NA,NA,NA,"","","",NA,"",NA,NA,NA,NA,NA,NA,NA,"",NA,"28"
"",NA,"",NA,"",NA,NA,NA,NA,NA,NA,NA,"","",1,1,"2024-08-25_15h00.14.666","IAT(Formal)","2021.2.3","Win32",59.88023952,"",NA,"",NA,NA,NA,NA,NA,NA,NA,"","","",NA,"i",1,0.6861,NA,NA,NA,NA,NA,"他","i","",NA,0,28,28,5,1,"",NA,"",NA,NA,NA,NA,NA,NA,NA,"",NA,"",NA,NA,NA,NA,NA,NA,NA,"","","",NA,"",NA,NA,NA,NA,NA,NA,NA,"",NA,"28"
"",NA,"",NA,"",NA,NA,NA,NA,NA,NA,NA,"","",1,1,"2024-08-25_15h00.14.666","IAT(Formal)","2021.2.3","Win32",59.88023952,"",NA,"",NA,NA,NA,NA,NA,NA,NA,"","","",NA,"e",1,0.5176,NA,NA,NA,NA,NA,"自己","e","",NA,0,29,29,73,1,"",NA,"",NA,NA,NA,NA,NA,NA,NA,"",NA,"",NA,NA,NA,NA,NA,NA,NA,"","","",NA,"",NA,NA,NA,NA,NA,NA,NA,"",NA,"28"
"",NA,"",NA,"",NA,NA,NA,NA,NA,NA,NA,"","",1,1,"2024-08-25_15h00.14.666","IAT(Formal)","2021.2.3","Win32",59.88023952,"",NA,"",NA,NA,NA,NA,NA,NA,NA,"","","",NA,"e",1,1.1276,NA,NA,NA,NA,NA,"我们","e","",NA,0,30,30,72,1,"",NA,"",NA,NA,NA,NA,NA,NA,NA,"",NA,"",NA,NA,NA,NA,NA,NA,NA,"","","",NA,"",NA,NA,NA,NA,NA,NA,NA,"",NA,"28"
"",NA,"",NA,"",NA,NA,NA,NA,NA,NA,NA,"","",1,1,"2024-08-25_15h00.14.666","IAT(Formal)","2021.2.3","Win32",59.88023952,"",NA,"",NA,NA,NA,NA,NA,NA,NA,"","","",NA,"e",1,0.6288,NA,NA,NA,NA,NA,"活泼","e","",NA,0,31,31,28,1,"",NA,"",NA,NA,NA,NA,NA,NA,NA,"",NA,"",NA,NA,NA,NA,NA,NA,NA,"","","",NA,"",NA,NA,NA,NA,NA,NA,NA,"",NA,"28"
"",NA,"",NA,"",NA,NA,NA,NA,NA,NA,NA,"","",1,1,"2024-08-25_15h00.14.666","IAT(Formal)","2021.2.3","Win32",59.88023952,"",NA,"",NA,NA,NA,NA,NA,NA,NA,"","","",NA,"i",1,0.568,NA,NA,NA,NA,NA,"他","i","",NA,0,32,32,75,1,"",NA,"",NA,NA,NA,NA,NA,NA,NA,"",NA,"",NA,NA,NA,NA,NA,NA,NA,"","","",NA,"",NA,NA,NA,NA,NA,NA,NA,"",NA,"28"
"",NA,"",NA,"",NA,NA,NA,NA,NA,NA,NA,"","",1,1,"2024-08-25_15h00.14.666","IAT(Formal)","2021.2.3","Win32",59.88023952,"",NA,"",NA,NA,NA,NA,NA,NA,NA,"","","",NA,"e",1,0.438,NA,NA,NA,NA,NA,"我的","e","",NA,0,33,33,51,1,"",NA,"",NA,NA,NA,NA,NA,NA,NA,"",NA,"",NA,NA,NA,NA,NA,NA,NA,"","","",NA,"",NA,NA,NA,NA,NA,NA,NA,"",NA,"28"
"",NA,"",NA,"",NA,NA,NA,NA,NA,NA,NA,"","",1,1,"2024-08-25_15h00.14.666","IAT(Formal)","2021.2.3","Win32",59.88023952,"",NA,"",NA,NA,NA,NA,NA,NA,NA,"","","",NA,"i",1,0.5888,NA,NA,NA,NA,NA,"他","i","",NA,0,34,34,55,1,"",NA,"",NA,NA,NA,NA,NA,NA,NA,"",NA,"",NA,NA,NA,NA,NA,NA,NA,"","","",NA,"",NA,NA,NA,NA,NA,NA,NA,"",NA,"28"
"",NA,"",NA,"",NA,NA,NA,NA,NA,NA,NA,"","",1,1,"2024-08-25_15h00.14.666","IAT(Formal)","2021.2.3","Win32",59.88023952,"",NA,"",NA,NA,NA,NA,NA,NA,NA,"","","",NA,"e",1,0.6003,NA,NA,NA,NA,NA,"优秀","e","",NA,0,35,35,10,1,"",NA,"",NA,NA,NA,NA,NA,NA,NA,"",NA,"",NA,NA,NA,NA,NA,NA,NA,"","","",NA,"",NA,NA,NA,NA,NA,NA,NA,"",NA,"28"
"",NA,"",NA,"",NA,NA,NA,NA,NA,NA,NA,"","",1,1,"2024-08-25_15h00.14.666","IAT(Formal)","2021.2.3","Win32",59.88023952,"",NA,"",NA,NA,NA,NA,NA,NA,NA,"","","",NA,"e",1,0.5883,NA,NA,NA,NA,NA,"正直","e","",NA,0,36,36,16,1,"",NA,"",NA,NA,NA,NA,NA,NA,NA,"",NA,"",NA,NA,NA,NA,NA,NA,NA,"","","",NA,"",NA,NA,NA,NA,NA,NA,NA,"",NA,"28"
"",NA,"",NA,"",NA,NA,NA,NA,NA,NA,NA,"","",1,1,"2024-08-25_15h00.14.666","IAT(Formal)","2021.2.3","Win32",59.88023952,"",NA,"",NA,NA,NA,NA,NA,NA,NA,"","","",NA,"e",1,0.4862,NA,NA,NA,NA,NA,"乐观","e","",NA,0,37,37,14,1,"",NA,"",NA,NA,NA,NA,NA,NA,NA,"",NA,"",NA,NA,NA,NA,NA,NA,NA,"","","",NA,"",NA,NA,NA,NA,NA,NA,NA,"",NA,"28"
"",NA,"",NA,"",NA,NA,NA,NA,NA,NA,NA,"","",1,1,"2024-08-25_15h00.14.666","IAT(Formal)","2021.2.3","Win32",59.88023952,"",NA,"",NA,NA,NA,NA,NA,NA,NA,"","","",NA,"e",1,0.534,NA,NA,NA,NA,NA,"认真","e","",NA,0,38,38,20,1,"",NA,"",NA,NA,NA,NA,NA,NA,NA,"",NA,"",NA,NA,NA,NA,NA,NA,NA,"","","",NA,"",NA,NA,NA,NA,NA,NA,NA,"",NA,"28"
"",NA,"",NA,"",NA,NA,NA,NA,NA,NA,NA,"","",1,1,"2024-08-25_15h00.14.666","IAT(Formal)","2021.2.3","Win32",59.88023952,"",NA,"",NA,NA,NA,NA,NA,NA,NA,"","","",NA,"i",0,0.6069,NA,NA,NA,NA,NA,"无私","e","",NA,0,39,39,22,1,"",NA,"",NA,NA,NA,NA,NA,NA,NA,"",NA,"",NA,NA,NA,NA,NA,NA,NA,"","","",NA,"",NA,NA,NA,NA,NA,NA,NA,"",NA,"28"
"",NA,"",NA,"",NA,NA,NA,NA,NA,NA,NA,"","",1,1,"2024-08-25_15h00.14.666","IAT(Formal)","2021.2.3","Win32",59.88023952,"",NA,"",NA,NA,NA,NA,NA,NA,NA,"","","",NA,"i",1,0.5233,NA,NA,NA,NA,NA,"野蛮","i","",NA,0,40,40,46,1,"",NA,"",NA,NA,NA,NA,NA,NA,NA,"",NA,"",NA,NA,NA,NA,NA,NA,NA,"","","",NA,"",NA,NA,NA,NA,NA,NA,NA,"",NA,"28"
"",NA,"",NA,"",NA,NA,NA,NA,NA,NA,NA,"","",1,1,"2024-08-25_15h00.14.666","IAT(Formal)","2021.2.3","Win32",59.88023952,"",NA,"",NA,NA,NA,NA,NA,NA,NA,"","","",NA,"e",1,0.5452,NA,NA,NA,NA,NA,"公正","e","",NA,0,41,41,23,1,"",NA,"",NA,NA,NA,NA,NA,NA,NA,"",NA,"",NA,NA,NA,NA,NA,NA,NA,"","","",NA,"",NA,NA,NA,NA,NA,NA,NA,"",NA,"28"
"",NA,"",NA,"",NA,NA,NA,NA,NA,NA,NA,"","",1,1,"2024-08-25_15h00.14.666","IAT(Formal)","2021.2.3","Win32",59.88023952,"",NA,"",NA,NA,NA,NA,NA,NA,NA,"","","",NA,"e",1,0.5793,NA,NA,NA,NA,NA,"机智","e","",NA,0,42,42,19,1,"",NA,"",NA,NA,NA,NA,NA,NA,NA,"",NA,"",NA,NA,NA,NA,NA,NA,NA,"","","",NA,"",NA,NA,NA,NA,NA,NA,NA,"",NA,"28"
"",NA,"",NA,"",NA,NA,NA,NA,NA,NA,NA,"","",1,1,"2024-08-25_15h00.14.666","IAT(Formal)","2021.2.3","Win32",59.88023952,"",NA,"",NA,NA,NA,NA,NA,NA,NA,"","","",NA,"e",1,0.5239,NA,NA,NA,NA,NA,"自己","e","",NA,0,43,43,3,1,"",NA,"",NA,NA,NA,NA,NA,NA,NA,"",NA,"",NA,NA,NA,NA,NA,NA,NA,"","","",NA,"",NA,NA,NA,NA,NA,NA,NA,"",NA,"28"
"",NA,"",NA,"",NA,NA,NA,NA,NA,NA,NA,"","",1,1,"2024-08-25_15h00.14.666","IAT(Formal)","2021.2.3","Win32",59.88023952,"",NA,"",NA,NA,NA,NA,NA,NA,NA,"","","",NA,"i",1,0.6501,NA,NA,NA,NA,NA,"其他","i","",NA,0,44,44,59,1,"",NA,"",NA,NA,NA,NA,NA,NA,NA,"",NA,"",NA,NA,NA,NA,NA,NA,NA,"","","",NA,"",NA,NA,NA,NA,NA,NA,NA,"",NA,"28"
"",NA,"",NA,"",NA,NA,NA,NA,NA,NA,NA,"","",1,1,"2024-08-25_15h00.14.666","IAT(Formal)","2021.2.3","Win32",59.88023952,"",NA,"",NA,NA,NA,NA,NA,NA,NA,"","","",NA,"i",1,1.0175,NA,NA,NA,NA,NA,"消极","i","",NA,0,45,45,35,1,"",NA,"",NA,NA,NA,NA,NA,NA,NA,"",NA,"",NA,NA,NA,NA,NA,NA,NA,"","","",NA,"",NA,NA,NA,NA,NA,NA,NA,"",NA,"28"
"",NA,"",NA,"",NA,NA,NA,NA,NA,NA,NA,"","",1,1,"2024-08-25_15h00.14.666","IAT(Formal)","2021.2.3","Win32",59.88023952,"",NA,"",NA,NA,NA,NA,NA,NA,NA,"","","",NA,"i",1,0.589,NA,NA,NA,NA,NA,"鲁莽","i","",NA,0,46,46,38,1,"",NA,"",NA,NA,NA,NA,NA,NA,NA,"",NA,"",NA,NA,NA,NA,NA,NA,NA,"","","",NA,"",NA,NA,NA,NA,NA,NA,NA,"",NA,"28"
"",NA,"",NA,"",NA,NA,NA,NA,NA,NA,NA,"","",1,1,"2024-08-25_15h00.14.666","IAT(Formal)","2021.2.3","Win32",59.88023952,"",NA,"",NA,NA,NA,NA,NA,NA,NA,"","","",NA,"i",1,0.741,NA,NA,NA,NA,NA,"散漫","i","",NA,0,47,47,41,1,"",NA,"",NA,NA,NA,NA,NA,NA,NA,"",NA,"",NA,NA,NA,NA,NA,NA,NA,"","","",NA,"",NA,NA,NA,NA,NA,NA,NA,"",NA,"28"
"",NA,"",NA,"",NA,NA,NA,NA,NA,NA,NA,"","",1,1,"2024-08-25_15h00.14.666","IAT(Formal)","2021.2.3","Win32",59.88023952,"",NA,"",NA,NA,NA,NA,NA,NA,NA,"","","",NA,"e",1,0.4715,NA,NA,NA,NA,NA,"我","e","",NA,0,48,48,50,1,"",NA,"",NA,NA,NA,NA,NA,NA,NA,"",NA,"",NA,NA,NA,NA,NA,NA,NA,"","","",NA,"",NA,NA,NA,NA,NA,NA,NA,"",NA,"28"
"",NA,"",NA,"",NA,NA,NA,NA,NA,NA,NA,"","",1,1,"2024-08-25_15h00.14.666","IAT(Formal)","2021.2.3","Win32",59.88023952,"",NA,"",NA,NA,NA,NA,NA,NA,NA,"","","",NA,"i",1,0.8872,NA,NA,NA,NA,NA,"悲观","i","",NA,0,49,49,34,1,"",NA,"",NA,NA,NA,NA,NA,NA,NA,"",NA,"",NA,NA,NA,NA,NA,NA,NA,"","","",NA,"",NA,NA,NA,NA,NA,NA,NA,"",NA,"28"
"",NA,"",NA,"",NA,NA,NA,NA,NA,NA,NA,"","",1,1,"2024-08-25_15h00.14.666","IAT(Formal)","2021.2.3","Win32",59.88023952,"",NA,"",NA,NA,NA,NA,NA,NA,NA,"","","",NA,"e",1,0.5369,NA,NA,NA,NA,NA,"俺","e","",NA,0,50,50,74,1,"",NA,"",NA,NA,NA,NA,NA,NA,NA,"",NA,"",NA,NA,NA,NA,NA,NA,NA,"","","",NA,"",NA,NA,NA,NA,NA,NA,NA,"",NA,"28"
"",NA,"",NA,"",NA,NA,NA,NA,NA,NA,NA,"","",1,1,"2024-08-25_15h00.14.666","IAT(Formal)","2021.2.3","Win32",59.88023952,"",NA,"",NA,NA,NA,NA,NA,NA,NA,"","","",NA,"e",1,0.6175,NA,NA,NA,NA,NA,"勤奋","e","",NA,0,51,51,18,1,"",NA,"",NA,NA,NA,NA,NA,NA,NA,"",NA,"",NA,NA,NA,NA,NA,NA,NA,"","","",NA,"",NA,NA,NA,NA,NA,NA,NA,"",NA,"28"
"",NA,"",NA,"",NA,NA,NA,NA,NA,NA,NA,"","",1,1,"2024-08-25_15h00.14.666","IAT(Formal)","2021.2.3","Win32",59.88023952,"",NA,"",NA,NA,NA,NA,NA,NA,NA,"","","",NA,"i",1,0.4877,NA,NA,NA,NA,NA,"猖狂","i","",NA,0,52,52,45,1,"",NA,"",NA,NA,NA,NA,NA,NA,NA,"",NA,"",NA,NA,NA,NA,NA,NA,NA,"","","",NA,"",NA,NA,NA,NA,NA,NA,NA,"",NA,"28"
"",NA,"",NA,"",NA,NA,NA,NA,NA,NA,NA,"","",1,1,"2024-08-25_15h00.14.666","IAT(Formal)","2021.2.3","Win32",59.88023952,"",NA,"",NA,NA,NA,NA,NA,NA,NA,"","","",NA,"e",1,0.4006,NA,NA,NA,NA,NA,"俺","e","",NA,0,53,53,64,1,"",NA,"",NA,NA,NA,NA,NA,NA,NA,"",NA,"",NA,NA,NA,NA,NA,NA,NA,"","","",NA,"",NA,NA,NA,NA,NA,NA,NA,"",NA,"28"
"",NA,"",NA,"",NA,NA,NA,NA,NA,NA,NA,"","",1,1,"2024-08-25_15h00.14.666","IAT(Formal)","2021.2.3","Win32",59.88023952,"",NA,"",NA,NA,NA,NA,NA,NA,NA,"","","",NA,"e",1,0.5022,NA,NA,NA,NA,NA,"俺","e","",NA,0,54,54,4,1,"",NA,"",NA,NA,NA,NA,NA,NA,NA,"",NA,"",NA,NA,NA,NA,NA,NA,NA,"","","",NA,"",NA,NA,NA,NA,NA,NA,NA,"",NA,"28"
"",NA,"",NA,"",NA,NA,NA,NA,NA,NA,NA,"","",1,1,"2024-08-25_15h00.14.666","IAT(Formal)","2021.2.3","Win32",59.88023952,"",NA,"",NA,NA,NA,NA,NA,NA,NA,"","","",NA,"e",1,0.5294,NA,NA,NA,NA,NA,"热情","e","",NA,0,55,55,27,1,"",NA,"",NA,NA,NA,NA,NA,NA,NA,"",NA,"",NA,NA,NA,NA,NA,NA,NA,"","","",NA,"",NA,NA,NA,NA,NA,NA,NA,"",NA,"28"
"",NA,"",NA,"",NA,NA,NA,NA,NA,NA,NA,"","",1,1,"2024-08-25_15h00.14.666","IAT(Formal)","2021.2.3","Win32",59.88023952,"",NA,"",NA,NA,NA,NA,NA,NA,NA,"","","",NA,"i",1,0.6365,NA,NA,NA,NA,NA,"他的","i","",NA,0,56,56,57,1,"",NA,"",NA,NA,NA,NA,NA,NA,NA,"",NA,"",NA,NA,NA,NA,NA,NA,NA,"","","",NA,"",NA,NA,NA,NA,NA,NA,NA,"",NA,"28"
"",NA,"",NA,"",NA,NA,NA,NA,NA,NA,NA,"","",1,1,"2024-08-25_15h00.14.666","IAT(Formal)","2021.2.3","Win32",59.88023952,"",NA,"",NA,NA,NA,NA,NA,NA,NA,"","","",NA,"e",1,0.556,NA,NA,NA,NA,NA,"杰出","e","",NA,0,57,57,13,1,"",NA,"",NA,NA,NA,NA,NA,NA,NA,"",NA,"",NA,NA,NA,NA,NA,NA,NA,"","","",NA,"",NA,NA,NA,NA,NA,NA,NA,"",NA,"28"
"",NA,"",NA,"",NA,NA,NA,NA,NA,NA,NA,"","",1,1,"2024-08-25_15h00.14.666","IAT(Formal)","2021.2.3","Win32",59.88023952,"",NA,"",NA,NA,NA,NA,NA,NA,NA,"","","",NA,"e",1,0.6085,NA,NA,NA,NA,NA,"自己","e","",NA,0,58,58,53,1,"",NA,"",NA,NA,NA,NA,NA,NA,NA,"",NA,"",NA,NA,NA,NA,NA,NA,NA,"","","",NA,"",NA,NA,NA,NA,NA,NA,NA,"",NA,"28"
"",NA,"",NA,"",NA,NA,NA,NA,NA,NA,NA,"","",1,1,"2024-08-25_15h00.14.666","IAT(Formal)","2021.2.3","Win32",59.88023952,"",NA,"",NA,NA,NA,NA,NA,NA,NA,"","","",NA,"e",1,0.7129,NA,NA,NA,NA,NA,"稳重","e","",NA,0,59,59,21,1,"",NA,"",NA,NA,NA,NA,NA,NA,NA,"",NA,"",NA,NA,NA,NA,NA,NA,NA,"","","",NA,"",NA,NA,NA,NA,NA,NA,NA,"",NA,"28"
"",NA,"",NA,"",NA,NA,NA,NA,NA,NA,NA,"","",1,1,"2024-08-25_15h00.14.666","IAT(Formal)","2021.2.3","Win32",59.88023952,"",NA,"",NA,NA,NA,NA,NA,NA,NA,"","","",NA,"i",1,0.6331,NA,NA,NA,NA,NA,"虚伪","i","",NA,0,60,60,31,1,"",NA,"",NA,NA,NA,NA,NA,NA,NA,"",NA,"",NA,NA,NA,NA,NA,NA,NA,"","","",NA,"",NA,NA,NA,NA,NA,NA,NA,"",NA,"28"
"",NA,"",NA,"",NA,NA,NA,NA,NA,NA,NA,"","",1,1,"2024-08-25_15h00.14.666","IAT(Formal)","2021.2.3","Win32",59.88023952,"",NA,"",NA,NA,NA,NA,NA,NA,NA,"","","",NA,"e",1,0.6166,NA,NA,NA,NA,NA,"诚实","e","",NA,0,61,61,15,1,"",NA,"",NA,NA,NA,NA,NA,NA,NA,"",NA,"",NA,NA,NA,NA,NA,NA,NA,"","","",NA,"",NA,NA,NA,NA,NA,NA,NA,"",NA,"28"
"",NA,"",NA,"",NA,NA,NA,NA,NA,NA,NA,"","",1,1,"2024-08-25_15h00.14.666","IAT(Formal)","2021.2.3","Win32",59.88023952,"",NA,"",NA,NA,NA,NA,NA,NA,NA,"","","",NA,"i",1,0.9188,NA,NA,NA,NA,NA,"轻率","i","",NA,0,62,62,48,1,"",NA,"",NA,NA,NA,NA,NA,NA,NA,"",NA,"",NA,NA,NA,NA,NA,NA,NA,"","","",NA,"",NA,NA,NA,NA,NA,NA,NA,"",NA,"28"
"",NA,"",NA,"",NA,NA,NA,NA,NA,NA,NA,"","",1,1,"2024-08-25_15h00.14.666","IAT(Formal)","2021.2.3","Win32",59.88023952,"",NA,"",NA,NA,NA,NA,NA,NA,NA,"","","",NA,"e",1,0.5424,NA,NA,NA,NA,NA,"勇敢","e","",NA,0,63,63,17,1,"",NA,"",NA,NA,NA,NA,NA,NA,NA,"",NA,"",NA,NA,NA,NA,NA,NA,NA,"","","",NA,"",NA,NA,NA,NA,NA,NA,NA,"",NA,"28"
"",NA,"",NA,"",NA,NA,NA,NA,NA,NA,NA,"","",1,1,"2024-08-25_15h00.14.666","IAT(Formal)","2021.2.3","Win32",59.88023952,"",NA,"",NA,NA,NA,NA,NA,NA,NA,"","","",NA,"e",1,0.4833,NA,NA,NA,NA,NA,"我的","e","",NA,0,64,64,61,1,"",NA,"",NA,NA,NA,NA,NA,NA,NA,"",NA,"",NA,NA,NA,NA,NA,NA,NA,"","","",NA,"",NA,NA,NA,NA,NA,NA,NA,"",NA,"28"
"",NA,"",NA,"",NA,NA,NA,NA,NA,NA,NA,"","",1,1,"2024-08-25_15h00.14.666","IAT(Formal)","2021.2.3","Win32",59.88023952,"",NA,"",NA,NA,NA,NA,NA,NA,NA,"","","",NA,"i",1,0.6351,NA,NA,NA,NA,NA,"他的","i","",NA,0,65,65,7,1,"",NA,"",NA,NA,NA,NA,NA,NA,NA,"",NA,"",NA,NA,NA,NA,NA,NA,NA,"","","",NA,"",NA,NA,NA,NA,NA,NA,NA,"",NA,"28"
"",NA,"",NA,"",NA,NA,NA,NA,NA,NA,NA,"","",1,1,"2024-08-25_15h00.14.666","IAT(Formal)","2021.2.3","Win32",59.88023952,"",NA,"",NA,NA,NA,NA,NA,NA,NA,"","","",NA,"i",1,0.593,NA,NA,NA,NA,NA,"他人","i","",NA,0,66,66,8,1,"",NA,"",NA,NA,NA,NA,NA,NA,NA,"",NA,"",NA,NA,NA,NA,NA,NA,NA,"","","",NA,"",NA,NA,NA,NA,NA,NA,NA,"",NA,"28"
"",NA,"",NA,"",NA,NA,NA,NA,NA,NA,NA,"","",1,1,"2024-08-25_15h00.14.666","IAT(Formal)","2021.2.3","Win32",59.88023952,"",NA,"",NA,NA,NA,NA,NA,NA,NA,"","","",NA,"e",1,0.5383,NA,NA,NA,NA,NA,"我们","e","",NA,0,67,67,52,1,"",NA,"",NA,NA,NA,NA,NA,NA,NA,"",NA,"",NA,NA,NA,NA,NA,NA,NA,"","","",NA,"",NA,NA,NA,NA,NA,NA,NA,"",NA,"28"
"",NA,"",NA,"",NA,NA,NA,NA,NA,NA,NA,"","",1,1,"2024-08-25_15h00.14.666","IAT(Formal)","2021.2.3","Win32",59.88023952,"",NA,"",NA,NA,NA,NA,NA,NA,NA,"","","",NA,"i",1,0.8098,NA,NA,NA,NA,NA,"固执","i","",NA,0,68,68,47,1,"",NA,"",NA,NA,NA,NA,NA,NA,NA,"",NA,"",NA,NA,NA,NA,NA,NA,NA,"","","",NA,"",NA,NA,NA,NA,NA,NA,NA,"",NA,"28"
"",NA,"",NA,"",NA,NA,NA,NA,NA,NA,NA,"","",1,1,"2024-08-25_15h00.14.666","IAT(Formal)","2021.2.3","Win32",59.88023952,"",NA,"",NA,NA,NA,NA,NA,NA,NA,"","","",NA,"e",1,0.4707,NA,NA,NA,NA,NA,"聪明","e","",NA,0,69,69,12,1,"",NA,"",NA,NA,NA,NA,NA,NA,NA,"",NA,"",NA,NA,NA,NA,NA,NA,NA,"","","",NA,"",NA,NA,NA,NA,NA,NA,NA,"",NA,"28"
"",NA,"",NA,"",NA,NA,NA,NA,NA,NA,NA,"","",1,1,"2024-08-25_15h00.14.666","IAT(Formal)","2021.2.3","Win32",59.88023952,"",NA,"",NA,NA,NA,NA,NA,NA,NA,"","","",NA,"e",1,0.5433,NA,NA,NA,NA,NA,"崇高","e","",NA,0,70,70,11,1,"",NA,"",NA,NA,NA,NA,NA,NA,NA,"",NA,"",NA,NA,NA,NA,NA,NA,NA,"","","",NA,"",NA,NA,NA,NA,NA,NA,NA,"",NA,"28"
"",NA,"",NA,"",NA,NA,NA,NA,NA,NA,NA,"","",1,1,"2024-08-25_15h00.14.666","IAT(Formal)","2021.2.3","Win32",59.88023952,"",NA,"",NA,NA,NA,NA,NA,NA,NA,"","","",NA,"i",1,0.6122,NA,NA,NA,NA,NA,"暴躁","i","",NA,0,71,71,44,1,"",NA,"",NA,NA,NA,NA,NA,NA,NA,"",NA,"",NA,NA,NA,NA,NA,NA,NA,"","","",NA,"",NA,NA,NA,NA,NA,NA,NA,"",NA,"28"
"",NA,"",NA,"",NA,NA,NA,NA,NA,NA,NA,"","",1,1,"2024-08-25_15h00.14.666","IAT(Formal)","2021.2.3","Win32",59.88023952,"",NA,"",NA,NA,NA,NA,NA,NA,NA,"","","",NA,"i",1,0.5671,NA,NA,NA,NA,NA,"刻薄","i","",NA,0,72,72,33,1,"",NA,"",NA,NA,NA,NA,NA,NA,NA,"",NA,"",NA,NA,NA,NA,NA,NA,NA,"","","",NA,"",NA,NA,NA,NA,NA,NA,NA,"",NA,"28"
"",NA,"",NA,"",NA,NA,NA,NA,NA,NA,NA,"","",1,1,"2024-08-25_15h00.14.666","IAT(Formal)","2021.2.3","Win32",59.88023952,"",NA,"",NA,NA,NA,NA,NA,NA,NA,"","","",NA,"e",1,0.5185,NA,NA,NA,NA,NA,"我们","e","",NA,0,73,73,62,1,"",NA,"",NA,NA,NA,NA,NA,NA,NA,"",NA,"",NA,NA,NA,NA,NA,NA,NA,"","","",NA,"",NA,NA,NA,NA,NA,NA,NA,"",NA,"28"
"",NA,"",NA,"",NA,NA,NA,NA,NA,NA,NA,"","",1,1,"2024-08-25_15h00.14.666","IAT(Formal)","2021.2.3","Win32",59.88023952,"",NA,"",NA,NA,NA,NA,NA,NA,NA,"","","",NA,"e",1,0.5042,NA,NA,NA,NA,NA,"我","e","",NA,0,74,74,70,1,"",NA,"",NA,NA,NA,NA,NA,NA,NA,"",NA,"",NA,NA,NA,NA,NA,NA,NA,"","","",NA,"",NA,NA,NA,NA,NA,NA,NA,"",NA,"28"
"",NA,"",NA,"",NA,NA,NA,NA,NA,NA,NA,"","",1,1,"2024-08-25_15h00.14.666","IAT(Formal)","2021.2.3","Win32",59.88023952,"",NA,"",NA,NA,NA,NA,NA,NA,NA,"","","",NA,"e",1,0.6446,NA,NA,NA,NA,NA,"朴实","e","",NA,0,75,75,24,1,"",NA,"",NA,NA,NA,NA,NA,NA,NA,"",NA,"",NA,NA,NA,NA,NA,NA,NA,"","","",NA,"",NA,NA,NA,NA,NA,NA,NA,"",NA,"28"
"",NA,"",NA,"",NA,NA,NA,NA,NA,NA,NA,"","",1,1,"2024-08-25_15h00.14.666","IAT(Formal)","2021.2.3","Win32",59.88023952,"",NA,"",NA,NA,NA,NA,NA,NA,NA,"","","",NA,"i",1,0.4868,NA,NA,NA,NA,NA,"冒失","i","",NA,0,76,76,39,1,"",NA,"",NA,NA,NA,NA,NA,NA,NA,"",NA,"",NA,NA,NA,NA,NA,NA,NA,"","","",NA,"",NA,NA,NA,NA,NA,NA,NA,"",NA,"28"
"",NA,"",NA,"",NA,NA,NA,NA,NA,NA,NA,"","",1,1,"2024-08-25_15h00.14.666","IAT(Formal)","2021.2.3","Win32",59.88023952,"",NA,"",NA,NA,NA,NA,NA,NA,NA,"","","",NA,"i",1,0.8045,NA,NA,NA,NA,NA,"傲慢","i","",NA,0,77,77,37,1,"",NA,"",NA,NA,NA,NA,NA,NA,NA,"",NA,"",NA,NA,NA,NA,NA,NA,NA,"","","",NA,"",NA,NA,NA,NA,NA,NA,NA,"",NA,"28"
"",NA,"",NA,"",NA,NA,NA,NA,NA,NA,NA,"","",1,1,"2024-08-25_15h00.14.666","IAT(Formal)","2021.2.3","Win32",59.88023952,"",NA,"",NA,NA,NA,NA,NA,NA,NA,"","","",NA,"e",1,0.5843,NA,NA,NA,NA,NA,"细腻","e","",NA,0,78,78,25,1,"",NA,"",NA,NA,NA,NA,NA,NA,NA,"",NA,"",NA,NA,NA,NA,NA,NA,NA,"","","",NA,"",NA,NA,NA,NA,NA,NA,NA,"",NA,"28"
"",NA,"",NA,"",NA,NA,NA,NA,NA,NA,NA,"","",1,1,"2024-08-25_15h00.14.666","IAT(Formal)","2021.2.3","Win32",59.88023952,"",NA,"",NA,NA,NA,NA,NA,NA,NA,"","","",NA,"i",1,0.5248,NA,NA,NA,NA,NA,"其他","i","",NA,0,79,79,9,1,"",NA,"",NA,NA,NA,NA,NA,NA,NA,"",NA,"",NA,NA,NA,NA,NA,NA,NA,"","","",NA,"",NA,NA,NA,NA,NA,NA,NA,"",NA,"28"
"",NA,"",NA,"",NA,NA,NA,NA,NA,NA,NA,"","",1,1,"2024-08-25_15h00.14.666","IAT(Formal)","2021.2.3","Win32",59.88023952,"",NA,"",NA,NA,NA,NA,NA,NA,NA,"","","",NA,"e",1,0.5663,NA,NA,NA,NA,NA,"聪明","e","",NA,1,0,80,12,1,"",NA,"",NA,NA,NA,NA,NA,NA,NA,"",NA,"",NA,NA,NA,NA,NA,NA,NA,"","","",NA,"",NA,NA,NA,NA,NA,NA,NA,"",NA,"28"
"",NA,"",NA,"",NA,NA,NA,NA,NA,NA,NA,"","",1,1,"2024-08-25_15h00.14.666","IAT(Formal)","2021.2.3","Win32",59.88023952,"",NA,"",NA,NA,NA,NA,NA,NA,NA,"","","",NA,"i",1,0.5564,NA,NA,NA,NA,NA,"他的","i","",NA,1,1,81,67,1,"",NA,"",NA,NA,NA,NA,NA,NA,NA,"",NA,"",NA,NA,NA,NA,NA,NA,NA,"","","",NA,"",NA,NA,NA,NA,NA,NA,NA,"",NA,"28"
"",NA,"",NA,"",NA,NA,NA,NA,NA,NA,NA,"","",1,1,"2024-08-25_15h00.14.666","IAT(Formal)","2021.2.3","Win32",59.88023952,"",NA,"",NA,NA,NA,NA,NA,NA,NA,"","","",NA,"i",1,0.5976,NA,NA,NA,NA,NA,"其他","i","",NA,1,2,82,59,1,"",NA,"",NA,NA,NA,NA,NA,NA,NA,"",NA,"",NA,NA,NA,NA,NA,NA,NA,"","","",NA,"",NA,NA,NA,NA,NA,NA,NA,"",NA,"28"
"",NA,"",NA,"",NA,NA,NA,NA,NA,NA,NA,"","",1,1,"2024-08-25_15h00.14.666","IAT(Formal)","2021.2.3","Win32",59.88023952,"",NA,"",NA,NA,NA,NA,NA,NA,NA,"","","",NA,"i",1,0.574,NA,NA,NA,NA,NA,"虚伪","i","",NA,1,3,83,31,1,"",NA,"",NA,NA,NA,NA,NA,NA,NA,"",NA,"",NA,NA,NA,NA,NA,NA,NA,"","","",NA,"",NA,NA,NA,NA,NA,NA,NA,"",NA,"28"
"",NA,"",NA,"",NA,NA,NA,NA,NA,NA,NA,"","",1,1,"2024-08-25_15h00.14.666","IAT(Formal)","2021.2.3","Win32",59.88023952,"",NA,"",NA,NA,NA,NA,NA,NA,NA,"","","",NA,"i",1,0.5623,NA,NA,NA,NA,NA,"鲁莽","i","",NA,1,4,84,38,1,"",NA,"",NA,NA,NA,NA,NA,NA,NA,"",NA,"",NA,NA,NA,NA,NA,NA,NA,"","","",NA,"",NA,NA,NA,NA,NA,NA,NA,"",NA,"28"
"",NA,"",NA,"",NA,NA,NA,NA,NA,NA,NA,"","",1,1,"2024-08-25_15h00.14.666","IAT(Formal)","2021.2.3","Win32",59.88023952,"",NA,"",NA,NA,NA,NA,NA,NA,NA,"","","",NA,"i",1,0.5963,NA,NA,NA,NA,NA,"其他","i","",NA,1,5,85,69,1,"",NA,"",NA,NA,NA,NA,NA,NA,NA,"",NA,"",NA,NA,NA,NA,NA,NA,NA,"","","",NA,"",NA,NA,NA,NA,NA,NA,NA,"",NA,"28"
"",NA,"",NA,"",NA,NA,NA,NA,NA,NA,NA,"","",1,1,"2024-08-25_15h00.14.666","IAT(Formal)","2021.2.3","Win32",59.88023952,"",NA,"",NA,NA,NA,NA,NA,NA,NA,"","","",NA,"i",1,0.5864,NA,NA,NA,NA,NA,"消极","i","",NA,1,6,86,35,1,"",NA,"",NA,NA,NA,NA,NA,NA,NA,"",NA,"",NA,NA,NA,NA,NA,NA,NA,"","","",NA,"",NA,NA,NA,NA,NA,NA,NA,"",NA,"28"
"",NA,"",NA,"",NA,NA,NA,NA,NA,NA,NA,"","",1,1,"2024-08-25_15h00.14.666","IAT(Formal)","2021.2.3","Win32",59.88023952,"",NA,"",NA,NA,NA,NA,NA,NA,NA,"","","",NA,"e",1,0.4612,NA,NA,NA,NA,NA,"我们","e","",NA,1,7,87,52,1,"",NA,"",NA,NA,NA,NA,NA,NA,NA,"",NA,"",NA,NA,NA,NA,NA,NA,NA,"","","",NA,"",NA,NA,NA,NA,NA,NA,NA,"",NA,"28"
"",NA,"",NA,"",NA,NA,NA,NA,NA,NA,NA,"","",1,1,"2024-08-25_15h00.14.666","IAT(Formal)","2021.2.3","Win32",59.88023952,"",NA,"",NA,NA,NA,NA,NA,NA,NA,"","","",NA,"e",1,0.6498,NA,NA,NA,NA,NA,"我们","e","",NA,1,8,88,62,1,"",NA,"",NA,NA,NA,NA,NA,NA,NA,"",NA,"",NA,NA,NA,NA,NA,NA,NA,"","","",NA,"",NA,NA,NA,NA,NA,NA,NA,"",NA,"28"
"",NA,"",NA,"",NA,NA,NA,NA,NA,NA,NA,"","",1,1,"2024-08-25_15h00.14.666","IAT(Formal)","2021.2.3","Win32",59.88023952,"",NA,"",NA,NA,NA,NA,NA,NA,NA,"","","",NA,"i",1,0.5087,NA,NA,NA,NA,NA,"他人","i","",NA,1,9,89,58,1,"",NA,"",NA,NA,NA,NA,NA,NA,NA,"",NA,"",NA,NA,NA,NA,NA,NA,NA,"","","",NA,"",NA,NA,NA,NA,NA,NA,NA,"",NA,"28"
"",NA,"",NA,"",NA,NA,NA,NA,NA,NA,NA,"","",1,1,"2024-08-25_15h00.14.666","IAT(Formal)","2021.2.3","Win32",59.88023952,"",NA,"",NA,NA,NA,NA,NA,NA,NA,"","","",NA,"e",1,0.4408,NA,NA,NA,NA,NA,"俺","e","",NA,1,10,90,4,1,"",NA,"",NA,NA,NA,NA,NA,NA,NA,"",NA,"",NA,NA,NA,NA,NA,NA,NA,"","","",NA,"",NA,NA,NA,NA,NA,NA,NA,"",NA,"28"
"",NA,"",NA,"",NA,NA,NA,NA,NA,NA,NA,"","",1,1,"2024-08-25_15h00.14.666","IAT(Formal)","2021.2.3","Win32",59.88023952,"",NA,"",NA,NA,NA,NA,NA,NA,NA,"","","",NA,"e",1,0.455,NA,NA,NA,NA,NA,"诚恳","e","",NA,1,11,91,29,1,"",NA,"",NA,NA,NA,NA,NA,NA,NA,"",NA,"",NA,NA,NA,NA,NA,NA,NA,"","","",NA,"",NA,NA,NA,NA,NA,NA,NA,"",NA,"28"
"",NA,"",NA,"",NA,NA,NA,NA,NA,NA,NA,"","",1,1,"2024-08-25_15h00.14.666","IAT(Formal)","2021.2.3","Win32",59.88023952,"",NA,"",NA,NA,NA,NA,NA,NA,NA,"","","",NA,"e",1,0.4847,NA,NA,NA,NA,NA,"我的","e","",NA,1,12,92,61,1,"",NA,"",NA,NA,NA,NA,NA,NA,NA,"",NA,"",NA,NA,NA,NA,NA,NA,NA,"","","",NA,"",NA,NA,NA,NA,NA,NA,NA,"",NA,"28"
"",NA,"",NA,"",NA,NA,NA,NA,NA,NA,NA,"","",1,1,"2024-08-25_15h00.14.666","IAT(Formal)","2021.2.3","Win32",59.88023952,"",NA,"",NA,NA,NA,NA,NA,NA,NA,"","","",NA,"e",1,0.5553,NA,NA,NA,NA,NA,"我","e","",NA,1,13,93,60,1,"",NA,"",NA,NA,NA,NA,NA,NA,NA,"",NA,"",NA,NA,NA,NA,NA,NA,NA,"","","",NA,"",NA,NA,NA,NA,NA,NA,NA,"",NA,"28"
"",NA,"",NA,"",NA,NA,NA,NA,NA,NA,NA,"","",1,1,"2024-08-25_15h00.14.666","IAT(Formal)","2021.2.3","Win32",59.88023952,"",NA,"",NA,NA,NA,NA,NA,NA,NA,"","","",NA,"i",1,0.5416,NA,NA,NA,NA,NA,"他的","i","",NA,1,14,94,7,1,"",NA,"",NA,NA,NA,NA,NA,NA,NA,"",NA,"",NA,NA,NA,NA,NA,NA,NA,"","","",NA,"",NA,NA,NA,NA,NA,NA,NA,"",NA,"28"
"",NA,"",NA,"",NA,NA,NA,NA,NA,NA,NA,"","",1,1,"2024-08-25_15h00.14.666","IAT(Formal)","2021.2.3","Win32",59.88023952,"",NA,"",NA,NA,NA,NA,NA,NA,NA,"","","",NA,"i",1,0.5341,NA,NA,NA,NA,NA,"野蛮","i","",NA,1,15,95,46,1,"",NA,"",NA,NA,NA,NA,NA,NA,NA,"",NA,"",NA,NA,NA,NA,NA,NA,NA,"","","",NA,"",NA,NA,NA,NA,NA,NA,NA,"",NA,"28"
"",NA,"",NA,"",NA,NA,NA,NA,NA,NA,NA,"","",1,1,"2024-08-25_15h00.14.666","IAT(Formal)","2021.2.3","Win32",59.88023952,"",NA,"",NA,NA,NA,NA,NA,NA,NA,"","","",NA,"i",1,0.5169,NA,NA,NA,NA,NA,"傲慢","i","",NA,1,16,96,37,1,"",NA,"",NA,NA,NA,NA,NA,NA,NA,"",NA,"",NA,NA,NA,NA,NA,NA,NA,"","","",NA,"",NA,NA,NA,NA,NA,NA,NA,"",NA,"28"
"",NA,"",NA,"",NA,NA,NA,NA,NA,NA,NA,"","",1,1,"2024-08-25_15h00.14.666","IAT(Formal)","2021.2.3","Win32",59.88023952,"",NA,"",NA,NA,NA,NA,NA,NA,NA,"","","",NA,"i",1,0.4967,NA,NA,NA,NA,NA,"他","i","",NA,1,17,97,75,1,"",NA,"",NA,NA,NA,NA,NA,NA,NA,"",NA,"",NA,NA,NA,NA,NA,NA,NA,"","","",NA,"",NA,NA,NA,NA,NA,NA,NA,"",NA,"28"
"",NA,"",NA,"",NA,NA,NA,NA,NA,NA,NA,"","",1,1,"2024-08-25_15h00.14.666","IAT(Formal)","2021.2.3","Win32",59.88023952,"",NA,"",NA,NA,NA,NA,NA,NA,NA,"","","",NA,"i",1,0.5092,NA,NA,NA,NA,NA,"其他","i","",NA,1,18,98,79,1,"",NA,"",NA,NA,NA,NA,NA,NA,NA,"",NA,"",NA,NA,NA,NA,NA,NA,NA,"","","",NA,"",NA,NA,NA,NA,NA,NA,NA,"",NA,"28"
"",NA,"",NA,"",NA,NA,NA,NA,NA,NA,NA,"","",1,1,"2024-08-25_15h00.14.666","IAT(Formal)","2021.2.3","Win32",59.88023952,"",NA,"",NA,NA,NA,NA,NA,NA,NA,"","","",NA,"i",1,0.639,NA,NA,NA,NA,NA,"轻率","i","",NA,1,19,99,48,1,"",NA,"",NA,NA,NA,NA,NA,NA,NA,"",NA,"",NA,NA,NA,NA,NA,NA,NA,"","","",NA,"",NA,NA,NA,NA,NA,NA,NA,"",NA,"28"
"",NA,"",NA,"",NA,NA,NA,NA,NA,NA,NA,"","",1,1,"2024-08-25_15h00.14.666","IAT(Formal)","2021.2.3","Win32",59.88023952,"",NA,"",NA,NA,NA,NA,NA,NA,NA,"","","",NA,"e",1,0.5791,NA,NA,NA,NA,NA,"自己","e","",NA,1,20,100,53,1,"",NA,"",NA,NA,NA,NA,NA,NA,NA,"",NA,"",NA,NA,NA,NA,NA,NA,NA,"","","",NA,"",NA,NA,NA,NA,NA,NA,NA,"",NA,"28"
"",NA,"",NA,"",NA,NA,NA,NA,NA,NA,NA,"","",1,1,"2024-08-25_15h00.14.666","IAT(Formal)","2021.2.3","Win32",59.88023952,"",NA,"",NA,NA,NA,NA,NA,NA,NA,"","","",NA,"e",1,0.6763,NA,NA,NA,NA,NA,"自己","e","",NA,1,21,101,3,1,"",NA,"",NA,NA,NA,NA,NA,NA,NA,"",NA,"",NA,NA,NA,NA,NA,NA,NA,"","","",NA,"",NA,NA,NA,NA,NA,NA,NA,"",NA,"28"
"",NA,"",NA,"",NA,NA,NA,NA,NA,NA,NA,"","",1,1,"2024-08-25_15h00.14.666","IAT(Formal)","2021.2.3","Win32",59.88023952,"",NA,"",NA,NA,NA,NA,NA,NA,NA,"","","",NA,"e",1,0.4888,NA,NA,NA,NA,NA,"我的","e","",NA,1,22,102,1,1,"",NA,"",NA,NA,NA,NA,NA,NA,NA,"",NA,"",NA,NA,NA,NA,NA,NA,NA,"","","",NA,"",NA,NA,NA,NA,NA,NA,NA,"",NA,"28"
"",NA,"",NA,"",NA,NA,NA,NA,NA,NA,NA,"","",1,1,"2024-08-25_15h00.14.666","IAT(Formal)","2021.2.3","Win32",59.88023952,"",NA,"",NA,NA,NA,NA,NA,NA,NA,"","","",NA,"i",1,0.5088,NA,NA,NA,NA,NA,"猖狂","i","",NA,1,23,103,45,1,"",NA,"",NA,NA,NA,NA,NA,NA,NA,"",NA,"",NA,NA,NA,NA,NA,NA,NA,"","","",NA,"",NA,NA,NA,NA,NA,NA,NA,"",NA,"28"
"",NA,"",NA,"",NA,NA,NA,NA,NA,NA,NA,"","",1,1,"2024-08-25_15h00.14.666","IAT(Formal)","2021.2.3","Win32",59.88023952,"",NA,"",NA,NA,NA,NA,NA,NA,NA,"","","",NA,"i",1,0.5334,NA,NA,NA,NA,NA,"他","i","",NA,1,24,104,65,1,"",NA,"",NA,NA,NA,NA,NA,NA,NA,"",NA,"",NA,NA,NA,NA,NA,NA,NA,"","","",NA,"",NA,NA,NA,NA,NA,NA,NA,"",NA,"28"
"",NA,"",NA,"",NA,NA,NA,NA,NA,NA,NA,"","",1,1,"2024-08-25_15h00.14.666","IAT(Formal)","2021.2.3","Win32",59.88023952,"",NA,"",NA,NA,NA,NA,NA,NA,NA,"","","",NA,"e",1,0.5671,NA,NA,NA,NA,NA,"公正","e","",NA,1,25,105,23,1,"",NA,"",NA,NA,NA,NA,NA,NA,NA,"",NA,"",NA,NA,NA,NA,NA,NA,NA,"","","",NA,"",NA,NA,NA,NA,NA,NA,NA,"",NA,"28"
"",NA,"",NA,"",NA,NA,NA,NA,NA,NA,NA,"","",1,1,"2024-08-25_15h00.14.666","IAT(Formal)","2021.2.3","Win32",59.88023952,"",NA,"",NA,NA,NA,NA,NA,NA,NA,"","","",NA,"i",1,0.5283,NA,NA,NA,NA,NA,"他人","i","",NA,1,26,106,8,1,"",NA,"",NA,NA,NA,NA,NA,NA,NA,"",NA,"",NA,NA,NA,NA,NA,NA,NA,"","","",NA,"",NA,NA,NA,NA,NA,NA,NA,"",NA,"28"
"",NA,"",NA,"",NA,NA,NA,NA,NA,NA,NA,"","",1,1,"2024-08-25_15h00.14.666","IAT(Formal)","2021.2.3","Win32",59.88023952,"",NA,"",NA,NA,NA,NA,NA,NA,NA,"","","",NA,"e",1,0.5432,NA,NA,NA,NA,NA,"乐观","e","",NA,1,27,107,14,1,"",NA,"",NA,NA,NA,NA,NA,NA,NA,"",NA,"",NA,NA,NA,NA,NA,NA,NA,"","","",NA,"",NA,NA,NA,NA,NA,NA,NA,"",NA,"28"
"",NA,"",NA,"",NA,NA,NA,NA,NA,NA,NA,"","",1,1,"2024-08-25_15h00.14.666","IAT(Formal)","2021.2.3","Win32",59.88023952,"",NA,"",NA,NA,NA,NA,NA,NA,NA,"","","",NA,"e",1,0.5032,NA,NA,NA,NA,NA,"勇敢","e","",NA,1,28,108,17,1,"",NA,"",NA,NA,NA,NA,NA,NA,NA,"",NA,"",NA,NA,NA,NA,NA,NA,NA,"","","",NA,"",NA,NA,NA,NA,NA,NA,NA,"",NA,"28"
"",NA,"",NA,"",NA,NA,NA,NA,NA,NA,NA,"","",1,1,"2024-08-25_15h00.14.666","IAT(Formal)","2021.2.3","Win32",59.88023952,"",NA,"",NA,NA,NA,NA,NA,NA,NA,"","","",NA,"i",1,0.4903,NA,NA,NA,NA,NA,"他","i","",NA,1,29,109,5,1,"",NA,"",NA,NA,NA,NA,NA,NA,NA,"",NA,"",NA,NA,NA,NA,NA,NA,NA,"","","",NA,"",NA,NA,NA,NA,NA,NA,NA,"",NA,"28"
"",NA,"",NA,"",NA,NA,NA,NA,NA,NA,NA,"","",1,1,"2024-08-25_15h00.14.666","IAT(Formal)","2021.2.3","Win32",59.88023952,"",NA,"",NA,NA,NA,NA,NA,NA,NA,"","","",NA,"e",1,0.6834,NA,NA,NA,NA,NA,"正直","e","",NA,1,30,110,16,1,"",NA,"",NA,NA,NA,NA,NA,NA,NA,"",NA,"",NA,NA,NA,NA,NA,NA,NA,"","","",NA,"",NA,NA,NA,NA,NA,NA,NA,"",NA,"28"
"",NA,"",NA,"",NA,NA,NA,NA,NA,NA,NA,"","",1,1,"2024-08-25_15h00.14.666","IAT(Formal)","2021.2.3","Win32",59.88023952,"",NA,"",NA,NA,NA,NA,NA,NA,NA,"","","",NA,"e",1,0.5209,NA,NA,NA,NA,NA,"我","e","",NA,1,31,111,70,1,"",NA,"",NA,NA,NA,NA,NA,NA,NA,"",NA,"",NA,NA,NA,NA,NA,NA,NA,"","","",NA,"",NA,NA,NA,NA,NA,NA,NA,"",NA,"28"
"",NA,"",NA,"",NA,NA,NA,NA,NA,NA,NA,"","",1,1,"2024-08-25_15h00.14.666","IAT(Formal)","2021.2.3","Win32",59.88023952,"",NA,"",NA,NA,NA,NA,NA,NA,NA,"","","",NA,"e",1,0.5771,NA,NA,NA,NA,NA,"我","e","",NA,1,32,112,50,1,"",NA,"",NA,NA,NA,NA,NA,NA,NA,"",NA,"",NA,NA,NA,NA,NA,NA,NA,"","","",NA,"",NA,NA,NA,NA,NA,NA,NA,"",NA,"28"
"",NA,"",NA,"",NA,NA,NA,NA,NA,NA,NA,"","",1,1,"2024-08-25_15h00.14.666","IAT(Formal)","2021.2.3","Win32",59.88023952,"",NA,"",NA,NA,NA,NA,NA,NA,NA,"","","",NA,"i",1,0.4294,NA,NA,NA,NA,NA,"他的","i","",NA,1,33,113,77,1,"",NA,"",NA,NA,NA,NA,NA,NA,NA,"",NA,"",NA,NA,NA,NA,NA,NA,NA,"","","",NA,"",NA,NA,NA,NA,NA,NA,NA,"",NA,"28"
"",NA,"",NA,"",NA,NA,NA,NA,NA,NA,NA,"","",1,1,"2024-08-25_15h00.14.666","IAT(Formal)","2021.2.3","Win32",59.88023952,"",NA,"",NA,NA,NA,NA,NA,NA,NA,"","","",NA,"e",1,0.5207,NA,NA,NA,NA,NA,"细腻","e","",NA,1,34,114,25,1,"",NA,"",NA,NA,NA,NA,NA,NA,NA,"",NA,"",NA,NA,NA,NA,NA,NA,NA,"","","",NA,"",NA,NA,NA,NA,NA,NA,NA,"",NA,"28"
"",NA,"",NA,"",NA,NA,NA,NA,NA,NA,NA,"","",1,1,"2024-08-25_15h00.14.666","IAT(Formal)","2021.2.3","Win32",59.88023952,"",NA,"",NA,NA,NA,NA,NA,NA,NA,"","","",NA,"e",1,0.4788,NA,NA,NA,NA,NA,"俺","e","",NA,1,35,115,64,1,"",NA,"",NA,NA,NA,NA,NA,NA,NA,"",NA,"",NA,NA,NA,NA,NA,NA,NA,"","","",NA,"",NA,NA,NA,NA,NA,NA,NA,"",NA,"28"
"",NA,"",NA,"",NA,NA,NA,NA,NA,NA,NA,"","",1,1,"2024-08-25_15h00.14.666","IAT(Formal)","2021.2.3","Win32",59.88023952,"",NA,"",NA,NA,NA,NA,NA,NA,NA,"","","",NA,"e",1,0.6769,NA,NA,NA,NA,NA,"冷静","e","",NA,1,36,116,26,1,"",NA,"",NA,NA,NA,NA,NA,NA,NA,"",NA,"",NA,NA,NA,NA,NA,NA,NA,"","","",NA,"",NA,NA,NA,NA,NA,NA,NA,"",NA,"28"
"",NA,"",NA,"",NA,NA,NA,NA,NA,NA,NA,"","",1,1,"2024-08-25_15h00.14.666","IAT(Formal)","2021.2.3","Win32",59.88023952,"",NA,"",NA,NA,NA,NA,NA,NA,NA,"","","",NA,"i",1,0.585,NA,NA,NA,NA,NA,"卑鄙","i","",NA,1,37,117,30,1,"",NA,"",NA,NA,NA,NA,NA,NA,NA,"",NA,"",NA,NA,NA,NA,NA,NA,NA,"","","",NA,"",NA,NA,NA,NA,NA,NA,NA,"",NA,"28"
"",NA,"",NA,"",NA,NA,NA,NA,NA,NA,NA,"","",1,1,"2024-08-25_15h00.14.666","IAT(Formal)","2021.2.3","Win32",59.88023952,"",NA,"",NA,NA,NA,NA,NA,NA,NA,"","","",NA,"e",1,0.5024,NA,NA,NA,NA,NA,"俺","e","",NA,1,38,118,54,1,"",NA,"",NA,NA,NA,NA,NA,NA,NA,"",NA,"",NA,NA,NA,NA,NA,NA,NA,"","","",NA,"",NA,NA,NA,NA,NA,NA,NA,"",NA,"28"
"",NA,"",NA,"",NA,NA,NA,NA,NA,NA,NA,"","",1,1,"2024-08-25_15h00.14.666","IAT(Formal)","2021.2.3","Win32",59.88023952,"",NA,"",NA,NA,NA,NA,NA,NA,NA,"","","",NA,"i",0,0.546,NA,NA,NA,NA,NA,"诚实","e","",NA,1,39,119,15,1,"",NA,"",NA,NA,NA,NA,NA,NA,NA,"",NA,"",NA,NA,NA,NA,NA,NA,NA,"","","",NA,"",NA,NA,NA,NA,NA,NA,NA,"",NA,"28"
"",NA,"",NA,"",NA,NA,NA,NA,NA,NA,NA,"","",1,1,"2024-08-25_15h00.14.666","IAT(Formal)","2021.2.3","Win32",59.88023952,"",NA,"",NA,NA,NA,NA,NA,NA,NA,"","","",NA,"e",1,0.4717,NA,NA,NA,NA,NA,"优秀","e","",NA,1,40,120,10,1,"",NA,"",NA,NA,NA,NA,NA,NA,NA,"",NA,"",NA,NA,NA,NA,NA,NA,NA,"","","",NA,"",NA,NA,NA,NA,NA,NA,NA,"",NA,"28"
"",NA,"",NA,"",NA,NA,NA,NA,NA,NA,NA,"","",1,1,"2024-08-25_15h00.14.666","IAT(Formal)","2021.2.3","Win32",59.88023952,"",NA,"",NA,NA,NA,NA,NA,NA,NA,"","","",NA,"i",1,0.5689,NA,NA,NA,NA,NA,"他们","i","",NA,1,41,121,6,1,"",NA,"",NA,NA,NA,NA,NA,NA,NA,"",NA,"",NA,NA,NA,NA,NA,NA,NA,"","","",NA,"",NA,NA,NA,NA,NA,NA,NA,"",NA,"28"
"",NA,"",NA,"",NA,NA,NA,NA,NA,NA,NA,"","",1,1,"2024-08-25_15h00.14.666","IAT(Formal)","2021.2.3","Win32",59.88023952,"",NA,"",NA,NA,NA,NA,NA,NA,NA,"","","",NA,"e",1,0.4901,NA,NA,NA,NA,NA,"热情","e","",NA,1,42,122,27,1,"",NA,"",NA,NA,NA,NA,NA,NA,NA,"",NA,"",NA,NA,NA,NA,NA,NA,NA,"","","",NA,"",NA,NA,NA,NA,NA,NA,NA,"",NA,"28"
"",NA,"",NA,"",NA,NA,NA,NA,NA,NA,NA,"","",1,1,"2024-08-25_15h00.14.666","IAT(Formal)","2021.2.3","Win32",59.88023952,"",NA,"",NA,NA,NA,NA,NA,NA,NA,"","","",NA,"e",1,0.5242,NA,NA,NA,NA,NA,"自己","e","",NA,1,43,123,73,1,"",NA,"",NA,NA,NA,NA,NA,NA,NA,"",NA,"",NA,NA,NA,NA,NA,NA,NA,"","","",NA,"",NA,NA,NA,NA,NA,NA,NA,"",NA,"28"
"",NA,"",NA,"",NA,NA,NA,NA,NA,NA,NA,"","",1,1,"2024-08-25_15h00.14.666","IAT(Formal)","2021.2.3","Win32",59.88023952,"",NA,"",NA,NA,NA,NA,NA,NA,NA,"","","",NA,"i",1,0.6966,NA,NA,NA,NA,NA,"散漫","i","",NA,1,44,124,41,1,"",NA,"",NA,NA,NA,NA,NA,NA,NA,"",NA,"",NA,NA,NA,NA,NA,NA,NA,"","","",NA,"",NA,NA,NA,NA,NA,NA,NA,"",NA,"28"
"",NA,"",NA,"",NA,NA,NA,NA,NA,NA,NA,"","",1,1,"2024-08-25_15h00.14.666","IAT(Formal)","2021.2.3","Win32",59.88023952,"",NA,"",NA,NA,NA,NA,NA,NA,NA,"","","",NA,"e",1,0.539,NA,NA,NA,NA,NA,"自己","e","",NA,1,45,125,63,1,"",NA,"",NA,NA,NA,NA,NA,NA,NA,"",NA,"",NA,NA,NA,NA,NA,NA,NA,"","","",NA,"",NA,NA,NA,NA,NA,NA,NA,"",NA,"28"
"",NA,"",NA,"",NA,NA,NA,NA,NA,NA,NA,"","",1,1,"2024-08-25_15h00.14.666","IAT(Formal)","2021.2.3","Win32",59.88023952,"",NA,"",NA,NA,NA,NA,NA,NA,NA,"","","",NA,"e",1,0.5683,NA,NA,NA,NA,NA,"活泼","e","",NA,1,46,126,28,1,"",NA,"",NA,NA,NA,NA,NA,NA,NA,"",NA,"",NA,NA,NA,NA,NA,NA,NA,"","","",NA,"",NA,NA,NA,NA,NA,NA,NA,"",NA,"28"
"",NA,"",NA,"",NA,NA,NA,NA,NA,NA,NA,"","",1,1,"2024-08-25_15h00.14.666","IAT(Formal)","2021.2.3","Win32",59.88023952,"",NA,"",NA,NA,NA,NA,NA,NA,NA,"","","",NA,"i",1,0.6393,NA,NA,NA,NA,NA,"他们","i","",NA,1,47,127,66,1,"",NA,"",NA,NA,NA,NA,NA,NA,NA,"",NA,"",NA,NA,NA,NA,NA,NA,NA,"","","",NA,"",NA,NA,NA,NA,NA,NA,NA,"",NA,"28"
"",NA,"",NA,"",NA,NA,NA,NA,NA,NA,NA,"","",1,1,"2024-08-25_15h00.14.666","IAT(Formal)","2021.2.3","Win32",59.88023952,"",NA,"",NA,NA,NA,NA,NA,NA,NA,"","","",NA,"e",1,0.5679,NA,NA,NA,NA,NA,"朴实","e","",NA,1,48,128,24,1,"",NA,"",NA,NA,NA,NA,NA,NA,NA,"",NA,"",NA,NA,NA,NA,NA,NA,NA,"","","",NA,"",NA,NA,NA,NA,NA,NA,NA,"",NA,"28"
"",NA,"",NA,"",NA,NA,NA,NA,NA,NA,NA,"","",1,1,"2024-08-25_15h00.14.666","IAT(Formal)","2021.2.3","Win32",59.88023952,"",NA,"",NA,NA,NA,NA,NA,NA,NA,"","","",NA,"i",1,0.593,NA,NA,NA,NA,NA,"刻薄","i","",NA,1,49,129,33,1,"",NA,"",NA,NA,NA,NA,NA,NA,NA,"",NA,"",NA,NA,NA,NA,NA,NA,NA,"","","",NA,"",NA,NA,NA,NA,NA,NA,NA,"",NA,"28"
"",NA,"",NA,"",NA,NA,NA,NA,NA,NA,NA,"","",1,1,"2024-08-25_15h00.14.666","IAT(Formal)","2021.2.3","Win32",59.88023952,"",NA,"",NA,NA,NA,NA,NA,NA,NA,"","","",NA,"i",1,1.0718,NA,NA,NA,NA,NA,"自私","i","",NA,1,50,130,43,1,"",NA,"",NA,NA,NA,NA,NA,NA,NA,"",NA,"",NA,NA,NA,NA,NA,NA,NA,"","","",NA,"",NA,NA,NA,NA,NA,NA,NA,"",NA,"28"
"",NA,"",NA,"",NA,NA,NA,NA,NA,NA,NA,"","",1,1,"2024-08-25_15h00.14.666","IAT(Formal)","2021.2.3","Win32",59.88023952,"",NA,"",NA,NA,NA,NA,NA,NA,NA,"","","",NA,"e",1,0.9887,NA,NA,NA,NA,NA,"认真","e","",NA,1,51,131,20,1,"",NA,"",NA,NA,NA,NA,NA,NA,NA,"",NA,"",NA,NA,NA,NA,NA,NA,NA,"","","",NA,"",NA,NA,NA,NA,NA,NA,NA,"",NA,"28"
"",NA,"",NA,"",NA,NA,NA,NA,NA,NA,NA,"","",1,1,"2024-08-25_15h00.14.666","IAT(Formal)","2021.2.3","Win32",59.88023952,"",NA,"",NA,NA,NA,NA,NA,NA,NA,"","","",NA,"e",1,0.4545,NA,NA,NA,NA,NA,"杰出","e","",NA,1,52,132,13,1,"",NA,"",NA,NA,NA,NA,NA,NA,NA,"",NA,"",NA,NA,NA,NA,NA,NA,NA,"","","",NA,"",NA,NA,NA,NA,NA,NA,NA,"",NA,"28"
"",NA,"",NA,"",NA,NA,NA,NA,NA,NA,NA,"","",1,1,"2024-08-25_15h00.14.666","IAT(Formal)","2021.2.3","Win32",59.88023952,"",NA,"",NA,NA,NA,NA,NA,NA,NA,"","","",NA,"i",1,0.5536,NA,NA,NA,NA,NA,"执拗","i","",NA,1,53,133,40,1,"",NA,"",NA,NA,NA,NA,NA,NA,NA,"",NA,"",NA,NA,NA,NA,NA,NA,NA,"","","",NA,"",NA,NA,NA,NA,NA,NA,NA,"",NA,"28"
"",NA,"",NA,"",NA,NA,NA,NA,NA,NA,NA,"","",1,1,"2024-08-25_15h00.14.666","IAT(Formal)","2021.2.3","Win32",59.88023952,"",NA,"",NA,NA,NA,NA,NA,NA,NA,"","","",NA,"e",1,0.6505,NA,NA,NA,NA,NA,"稳重","e","",NA,1,54,134,21,1,"",NA,"",NA,NA,NA,NA,NA,NA,NA,"",NA,"",NA,NA,NA,NA,NA,NA,NA,"","","",NA,"",NA,NA,NA,NA,NA,NA,NA,"",NA,"28"
"",NA,"",NA,"",NA,NA,NA,NA,NA,NA,NA,"","",1,1,"2024-08-25_15h00.14.666","IAT(Formal)","2021.2.3","Win32",59.88023952,"",NA,"",NA,NA,NA,NA,NA,NA,NA,"","","",NA,"i",1,0.5247,NA,NA,NA,NA,NA,"下贱","i","",NA,1,55,135,49,1,"",NA,"",NA,NA,NA,NA,NA,NA,NA,"",NA,"",NA,NA,NA,NA,NA,NA,NA,"","","",NA,"",NA,NA,NA,NA,NA,NA,NA,"",NA,"28"
"",NA,"",NA,"",NA,NA,NA,NA,NA,NA,NA,"","",1,1,"2024-08-25_15h00.14.666","IAT(Formal)","2021.2.3","Win32",59.88023952,"",NA,"",NA,NA,NA,NA,NA,NA,NA,"","","",NA,"i",1,0.628,NA,NA,NA,NA,NA,"他","i","",NA,1,56,136,55,1,"",NA,"",NA,NA,NA,NA,NA,NA,NA,"",NA,"",NA,NA,NA,NA,NA,NA,NA,"","","",NA,"",NA,NA,NA,NA,NA,NA,NA,"",NA,"28"
"",NA,"",NA,"",NA,NA,NA,NA,NA,NA,NA,"","",1,1,"2024-08-25_15h00.14.666","IAT(Formal)","2021.2.3","Win32",59.88023952,"",NA,"",NA,NA,NA,NA,NA,NA,NA,"","","",NA,"e",1,0.5407,NA,NA,NA,NA,NA,"我们","e","",NA,1,57,137,2,1,"",NA,"",NA,NA,NA,NA,NA,NA,NA,"",NA,"",NA,NA,NA,NA,NA,NA,NA,"","","",NA,"",NA,NA,NA,NA,NA,NA,NA,"",NA,"28"
"",NA,"",NA,"",NA,NA,NA,NA,NA,NA,NA,"","",1,1,"2024-08-25_15h00.14.666","IAT(Formal)","2021.2.3","Win32",59.88023952,"",NA,"",NA,NA,NA,NA,NA,NA,NA,"","","",NA,"i",1,0.6141,NA,NA,NA,NA,NA,"凶狠","i","",NA,1,58,138,42,1,"",NA,"",NA,NA,NA,NA,NA,NA,NA,"",NA,"",NA,NA,NA,NA,NA,NA,NA,"","","",NA,"",NA,NA,NA,NA,NA,NA,NA,"",NA,"28"
"",NA,"",NA,"",NA,NA,NA,NA,NA,NA,NA,"","",1,1,"2024-08-25_15h00.14.666","IAT(Formal)","2021.2.3","Win32",59.88023952,"",NA,"",NA,NA,NA,NA,NA,NA,NA,"","","",NA,"i",1,0.5888,NA,NA,NA,NA,NA,"其他","i","",NA,1,59,139,9,1,"",NA,"",NA,NA,NA,NA,NA,NA,NA,"",NA,"",NA,NA,NA,NA,NA,NA,NA,"","","",NA,"",NA,NA,NA,NA,NA,NA,NA,"",NA,"28"
"",NA,"",NA,"",NA,NA,NA,NA,NA,NA,NA,"","",1,1,"2024-08-25_15h00.14.666","IAT(Formal)","2021.2.3","Win32",59.88023952,"",NA,"",NA,NA,NA,NA,NA,NA,NA,"","","",NA,"e",1,0.5095,NA,NA,NA,NA,NA,"我的","e","",NA,1,60,140,71,1,"",NA,"",NA,NA,NA,NA,NA,NA,NA,"",NA,"",NA,NA,NA,NA,NA,NA,NA,"","","",NA,"",NA,NA,NA,NA,NA,NA,NA,"",NA,"28"
"",NA,"",NA,"",NA,NA,NA,NA,NA,NA,NA,"","",1,1,"2024-08-25_15h00.14.666","IAT(Formal)","2021.2.3","Win32",59.88023952,"",NA,"",NA,NA,NA,NA,NA,NA,NA,"","","",NA,"i",1,0.4769,NA,NA,NA,NA,NA,"固执","i","",NA,1,61,141,47,1,"",NA,"",NA,NA,NA,NA,NA,NA,NA,"",NA,"",NA,NA,NA,NA,NA,NA,NA,"","","",NA,"",NA,NA,NA,NA,NA,NA,NA,"",NA,"28"
"",NA,"",NA,"",NA,NA,NA,NA,NA,NA,NA,"","",1,1,"2024-08-25_15h00.14.666","IAT(Formal)","2021.2.3","Win32",59.88023952,"",NA,"",NA,NA,NA,NA,NA,NA,NA,"","","",NA,"i",1,0.7573,NA,NA,NA,NA,NA,"他人","i","",NA,1,62,142,68,1,"",NA,"",NA,NA,NA,NA,NA,NA,NA,"",NA,"",NA,NA,NA,NA,NA,NA,NA,"","","",NA,"",NA,NA,NA,NA,NA,NA,NA,"",NA,"28"
"",NA,"",NA,"",NA,NA,NA,NA,NA,NA,NA,"","",1,1,"2024-08-25_15h00.14.666","IAT(Formal)","2021.2.3","Win32",59.88023952,"",NA,"",NA,NA,NA,NA,NA,NA,NA,"","","",NA,"e",1,0.6292,NA,NA,NA,NA,NA,"我的","e","",NA,1,63,143,51,1,"",NA,"",NA,NA,NA,NA,NA,NA,NA,"",NA,"",NA,NA,NA,NA,NA,NA,NA,"","","",NA,"",NA,NA,NA,NA,NA,NA,NA,"",NA,"28"
"",NA,"",NA,"",NA,NA,NA,NA,NA,NA,NA,"","",1,1,"2024-08-25_15h00.14.666","IAT(Formal)","2021.2.3","Win32",59.88023952,"",NA,"",NA,NA,NA,NA,NA,NA,NA,"","","",NA,"e",1,0.5264,NA,NA,NA,NA,NA,"俺","e","",NA,1,64,144,74,1,"",NA,"",NA,NA,NA,NA,NA,NA,NA,"",NA,"",NA,NA,NA,NA,NA,NA,NA,"","","",NA,"",NA,NA,NA,NA,NA,NA,NA,"",NA,"28"
"",NA,"",NA,"",NA,NA,NA,NA,NA,NA,NA,"","",1,1,"2024-08-25_15h00.14.666","IAT(Formal)","2021.2.3","Win32",59.88023952,"",NA,"",NA,NA,NA,NA,NA,NA,NA,"","","",NA,"i",1,0.4845,NA,NA,NA,NA,NA,"他人","i","",NA,1,65,145,78,1,"",NA,"",NA,NA,NA,NA,NA,NA,NA,"",NA,"",NA,NA,NA,NA,NA,NA,NA,"","","",NA,"",NA,NA,NA,NA,NA,NA,NA,"",NA,"28"
"",NA,"",NA,"",NA,NA,NA,NA,NA,NA,NA,"","",1,1,"2024-08-25_15h00.14.666","IAT(Formal)","2021.2.3","Win32",59.88023952,"",NA,"",NA,NA,NA,NA,NA,NA,NA,"","","",NA,"i",1,0.6057,NA,NA,NA,NA,NA,"他的","i","",NA,1,66,146,57,1,"",NA,"",NA,NA,NA,NA,NA,NA,NA,"",NA,"",NA,NA,NA,NA,NA,NA,NA,"","","",NA,"",NA,NA,NA,NA,NA,NA,NA,"",NA,"28"
"",NA,"",NA,"",NA,NA,NA,NA,NA,NA,NA,"","",1,1,"2024-08-25_15h00.14.666","IAT(Formal)","2021.2.3","Win32",59.88023952,"",NA,"",NA,NA,NA,NA,NA,NA,NA,"","","",NA,"i",1,0.6674,NA,NA,NA,NA,NA,"自卑","i","",NA,1,67,147,36,1,"",NA,"",NA,NA,NA,NA,NA,NA,NA,"",NA,"",NA,NA,NA,NA,NA,NA,NA,"","","",NA,"",NA,NA,NA,NA,NA,NA,NA,"",NA,"28"
"",NA,"",NA,"",NA,NA,NA,NA,NA,NA,NA,"","",1,1,"2024-08-25_15h00.14.666","IAT(Formal)","2021.2.3","Win32",59.88023952,"",NA,"",NA,NA,NA,NA,NA,NA,NA,"","","",NA,"e",1,0.6022,NA,NA,NA,NA,NA,"勤奋","e","",NA,1,68,148,18,1,"",NA,"",NA,NA,NA,NA,NA,NA,NA,"",NA,"",NA,NA,NA,NA,NA,NA,NA,"","","",NA,"",NA,NA,NA,NA,NA,NA,NA,"",NA,"28"
"",NA,"",NA,"",NA,NA,NA,NA,NA,NA,NA,"","",1,1,"2024-08-25_15h00.14.666","IAT(Formal)","2021.2.3","Win32",59.88023952,"",NA,"",NA,NA,NA,NA,NA,NA,NA,"","","",NA,"i",1,0.6029,NA,NA,NA,NA,NA,"冒失","i","",NA,1,69,149,39,1,"",NA,"",NA,NA,NA,NA,NA,NA,NA,"",NA,"",NA,NA,NA,NA,NA,NA,NA,"","","",NA,"",NA,NA,NA,NA,NA,NA,NA,"",NA,"28"
"",NA,"",NA,"",NA,NA,NA,NA,NA,NA,NA,"","",1,1,"2024-08-25_15h00.14.666","IAT(Formal)","2021.2.3","Win32",59.88023952,"",NA,"",NA,NA,NA,NA,NA,NA,NA,"","","",NA,"e",1,0.6385,NA,NA,NA,NA,NA,"崇高","e","",NA,1,70,150,11,1,"",NA,"",NA,NA,NA,NA,NA,NA,NA,"",NA,"",NA,NA,NA,NA,NA,NA,NA,"","","",NA,"",NA,NA,NA,NA,NA,NA,NA,"",NA,"28"
"",NA,"",NA,"",NA,NA,NA,NA,NA,NA,NA,"","",1,1,"2024-08-25_15h00.14.666","IAT(Formal)","2021.2.3","Win32",59.88023952,"",NA,"",NA,NA,NA,NA,NA,NA,NA,"","","",NA,"e",1,0.5289,NA,NA,NA,NA,NA,"机智","e","",NA,1,71,151,19,1,"",NA,"",NA,NA,NA,NA,NA,NA,NA,"",NA,"",NA,NA,NA,NA,NA,NA,NA,"","","",NA,"",NA,NA,NA,NA,NA,NA,NA,"",NA,"28"
"",NA,"",NA,"",NA,NA,NA,NA,NA,NA,NA,"","",1,1,"2024-08-25_15h00.14.666","IAT(Formal)","2021.2.3","Win32",59.88023952,"",NA,"",NA,NA,NA,NA,NA,NA,NA,"","","",NA,"i",1,0.5824,NA,NA,NA,NA,NA,"他们","i","",NA,1,72,152,76,1,"",NA,"",NA,NA,NA,NA,NA,NA,NA,"",NA,"",NA,NA,NA,NA,NA,NA,NA,"","","",NA,"",NA,NA,NA,NA,NA,NA,NA,"",NA,"28"
"",NA,"",NA,"",NA,NA,NA,NA,NA,NA,NA,"","",1,1,"2024-08-25_15h00.14.666","IAT(Formal)","2021.2.3","Win32",59.88023952,"",NA,"",NA,NA,NA,NA,NA,NA,NA,"","","",NA,"i",1,0.5835,NA,NA,NA,NA,NA,"愚蠢","i","",NA,1,73,153,32,1,"",NA,"",NA,NA,NA,NA,NA,NA,NA,"",NA,"",NA,NA,NA,NA,NA,NA,NA,"","","",NA,"",NA,NA,NA,NA,NA,NA,NA,"",NA,"28"
"",NA,"",NA,"",NA,NA,NA,NA,NA,NA,NA,"","",1,1,"2024-08-25_15h00.14.666","IAT(Formal)","2021.2.3","Win32",59.88023952,"",NA,"",NA,NA,NA,NA,NA,NA,NA,"","","",NA,"i",1,0.6432,NA,NA,NA,NA,NA,"悲观","i","",NA,1,74,154,34,1,"",NA,"",NA,NA,NA,NA,NA,NA,NA,"",NA,"",NA,NA,NA,NA,NA,NA,NA,"","","",NA,"",NA,NA,NA,NA,NA,NA,NA,"",NA,"28"
"",NA,"",NA,"",NA,NA,NA,NA,NA,NA,NA,"","",1,1,"2024-08-25_15h00.14.666","IAT(Formal)","2021.2.3","Win32",59.88023952,"",NA,"",NA,NA,NA,NA,NA,NA,NA,"","","",NA,"i",1,0.5517,NA,NA,NA,NA,NA,"暴躁","i","",NA,1,75,155,44,1,"",NA,"",NA,NA,NA,NA,NA,NA,NA,"",NA,"",NA,NA,NA,NA,NA,NA,NA,"","","",NA,"",NA,NA,NA,NA,NA,NA,NA,"",NA,"28"
"",NA,"",NA,"",NA,NA,NA,NA,NA,NA,NA,"","",1,1,"2024-08-25_15h00.14.666","IAT(Formal)","2021.2.3","Win32",59.88023952,"",NA,"",NA,NA,NA,NA,NA,NA,NA,"","","",NA,"i",1,0.6668,NA,NA,NA,NA,NA,"他们","i","",NA,1,76,156,56,1,"",NA,"",NA,NA,NA,NA,NA,NA,NA,"",NA,"",NA,NA,NA,NA,NA,NA,NA,"","","",NA,"",NA,NA,NA,NA,NA,NA,NA,"",NA,"28"
"",NA,"",NA,"",NA,NA,NA,NA,NA,NA,NA,"","",1,1,"2024-08-25_15h00.14.666","IAT(Formal)","2021.2.3","Win32",59.88023952,"",NA,"",NA,NA,NA,NA,NA,NA,NA,"","","",NA,"i",0,0.5062,NA,NA,NA,NA,NA,"无私","e","",NA,1,77,157,22,1,"",NA,"",NA,NA,NA,NA,NA,NA,NA,"",NA,"",NA,NA,NA,NA,NA,NA,NA,"","","",NA,"",NA,NA,NA,NA,NA,NA,NA,"",NA,"28"
"",NA,"",NA,"",NA,NA,NA,NA,NA,NA,NA,"","",1,1,"2024-08-25_15h00.14.666","IAT(Formal)","2021.2.3","Win32",59.88023952,"",NA,"",NA,NA,NA,NA,NA,NA,NA,"","","",NA,"e",1,0.5267,NA,NA,NA,NA,NA,"我们","e","",NA,1,78,158,72,1,"",NA,"",NA,NA,NA,NA,NA,NA,NA,"",NA,"",NA,NA,NA,NA,NA,NA,NA,"","","",NA,"",NA,NA,NA,NA,NA,NA,NA,"",NA,"28"
"",NA,"",NA,"",NA,NA,NA,NA,NA,NA,NA,"","",1,1,"2024-08-25_15h00.14.666","IAT(Formal)","2021.2.3","Win32",59.88023952,"",NA,"",NA,NA,NA,NA,NA,NA,NA,"","","",NA,"e",1,0.4176,NA,NA,NA,NA,NA,"我","e","",NA,1,79,159,0,1,"",NA,"",NA,NA,NA,NA,NA,NA,NA,"",NA,"",NA,NA,NA,NA,NA,NA,NA,"","","",NA,"",NA,NA,NA,NA,NA,NA,NA,"",NA,"28"
"",NA,"",NA,"",NA,NA,NA,NA,NA,NA,NA,"自己","i",1,1,"2024-08-25_15h00.14.666","IAT(Formal)","2021.2.3","Win32",59.88023952,"",NA,"",NA,NA,NA,NA,NA,NA,NA,"","","",NA,"",NA,NA,NA,NA,NA,NA,NA,"","","",NA,NA,NA,NA,NA,NA,"space",8.0286,"e",0,0.8594,0,0,0,3,1,"",NA,"",NA,NA,NA,NA,NA,NA,NA,"","","",NA,"",NA,NA,NA,NA,NA,NA,NA,"",NA,"28"
"",NA,"",NA,"",NA,NA,NA,NA,NA,NA,NA,"他们","e",1,1,"2024-08-25_15h00.14.666","IAT(Formal)","2021.2.3","Win32",59.88023952,"",NA,"",NA,NA,NA,NA,NA,NA,NA,"","","",NA,"",NA,NA,NA,NA,NA,NA,NA,"","","",NA,NA,NA,NA,NA,NA,"",NA,"e",1,0.7001,0,1,1,6,1,"",NA,"",NA,NA,NA,NA,NA,NA,NA,"","","",NA,"",NA,NA,NA,NA,NA,NA,NA,"",NA,"28"
"",NA,"",NA,"",NA,NA,NA,NA,NA,NA,NA,"我的","i",1,1,"2024-08-25_15h00.14.666","IAT(Formal)","2021.2.3","Win32",59.88023952,"",NA,"",NA,NA,NA,NA,NA,NA,NA,"","","",NA,"",NA,NA,NA,NA,NA,NA,NA,"","","",NA,NA,NA,NA,NA,NA,"",NA,"i",1,0.3861,0,2,2,1,1,"",NA,"",NA,NA,NA,NA,NA,NA,NA,"","","",NA,"",NA,NA,NA,NA,NA,NA,NA,"",NA,"28"
"",NA,"",NA,"",NA,NA,NA,NA,NA,NA,NA,"他的","e",1,1,"2024-08-25_15h00.14.666","IAT(Formal)","2021.2.3","Win32",59.88023952,"",NA,"",NA,NA,NA,NA,NA,NA,NA,"","","",NA,"",NA,NA,NA,NA,NA,NA,NA,"","","",NA,NA,NA,NA,NA,NA,"",NA,"e",1,0.5548,0,3,3,7,1,"",NA,"",NA,NA,NA,NA,NA,NA,NA,"","","",NA,"",NA,NA,NA,NA,NA,NA,NA,"",NA,"28"
"",NA,"",NA,"",NA,NA,NA,NA,NA,NA,NA,"他","e",1,1,"2024-08-25_15h00.14.666","IAT(Formal)","2021.2.3","Win32",59.88023952,"",NA,"",NA,NA,NA,NA,NA,NA,NA,"","","",NA,"",NA,NA,NA,NA,NA,NA,NA,"","","",NA,NA,NA,NA,NA,NA,"",NA,"e",1,0.7161,0,4,4,5,1,"",NA,"",NA,NA,NA,NA,NA,NA,NA,"","","",NA,"",NA,NA,NA,NA,NA,NA,NA,"",NA,"28"
"",NA,"",NA,"",NA,NA,NA,NA,NA,NA,NA,"其他","e",1,1,"2024-08-25_15h00.14.666","IAT(Formal)","2021.2.3","Win32",59.88023952,"",NA,"",NA,NA,NA,NA,NA,NA,NA,"","","",NA,"",NA,NA,NA,NA,NA,NA,NA,"","","",NA,NA,NA,NA,NA,NA,"",NA,"e",1,0.6335,0,5,5,9,1,"",NA,"",NA,NA,NA,NA,NA,NA,NA,"","","",NA,"",NA,NA,NA,NA,NA,NA,NA,"",NA,"28"
"",NA,"",NA,"",NA,NA,NA,NA,NA,NA,NA,"俺","i",1,1,"2024-08-25_15h00.14.666","IAT(Formal)","2021.2.3","Win32",59.88023952,"",NA,"",NA,NA,NA,NA,NA,NA,NA,"","","",NA,"",NA,NA,NA,NA,NA,NA,NA,"","","",NA,NA,NA,NA,NA,NA,"",NA,"i",1,0.5064,0,6,6,4,1,"",NA,"",NA,NA,NA,NA,NA,NA,NA,"","","",NA,"",NA,NA,NA,NA,NA,NA,NA,"",NA,"28"
"",NA,"",NA,"",NA,NA,NA,NA,NA,NA,NA,"他人","e",1,1,"2024-08-25_15h00.14.666","IAT(Formal)","2021.2.3","Win32",59.88023952,"",NA,"",NA,NA,NA,NA,NA,NA,NA,"","","",NA,"",NA,NA,NA,NA,NA,NA,NA,"","","",NA,NA,NA,NA,NA,NA,"",NA,"e",1,0.6669,0,7,7,8,1,"",NA,"",NA,NA,NA,NA,NA,NA,NA,"","","",NA,"",NA,NA,NA,NA,NA,NA,NA,"",NA,"28"
"",NA,"",NA,"",NA,NA,NA,NA,NA,NA,NA,"我们","i",1,1,"2024-08-25_15h00.14.666","IAT(Formal)","2021.2.3","Win32",59.88023952,"",NA,"",NA,NA,NA,NA,NA,NA,NA,"","","",NA,"",NA,NA,NA,NA,NA,NA,NA,"","","",NA,NA,NA,NA,NA,NA,"",NA,"i",1,0.9194,0,8,8,2,1,"",NA,"",NA,NA,NA,NA,NA,NA,NA,"","","",NA,"",NA,NA,NA,NA,NA,NA,NA,"",NA,"28"
"",NA,"",NA,"",NA,NA,NA,NA,NA,NA,NA,"我","i",1,1,"2024-08-25_15h00.14.666","IAT(Formal)","2021.2.3","Win32",59.88023952,"",NA,"",NA,NA,NA,NA,NA,NA,NA,"","","",NA,"",NA,NA,NA,NA,NA,NA,NA,"","","",NA,NA,NA,NA,NA,NA,"",NA,"i",1,0.6379,0,9,9,0,1,"",NA,"",NA,NA,NA,NA,NA,NA,NA,"","","",NA,"",NA,NA,NA,NA,NA,NA,NA,"",NA,"28"
"",NA,"",NA,"",NA,NA,NA,NA,NA,NA,NA,"","",1,1,"2024-08-25_15h00.14.666","IAT(Formal)","2021.2.3","Win32",59.88023952,"",NA,"",NA,NA,NA,NA,NA,NA,NA,"","","",NA,"",NA,NA,NA,NA,NA,NA,NA,"","","",NA,NA,NA,NA,NA,NA,"",NA,"",NA,NA,NA,NA,NA,NA,NA,"space",16.3063,"i",1,0.6762,0,0,0,70,1,"我","i","",NA,"",NA,NA,NA,NA,NA,NA,NA,"",NA,"28"
"",NA,"",NA,"",NA,NA,NA,NA,NA,NA,NA,"","",1,1,"2024-08-25_15h00.14.666","IAT(Formal)","2021.2.3","Win32",59.88023952,"",NA,"",NA,NA,NA,NA,NA,NA,NA,"","","",NA,"",NA,NA,NA,NA,NA,NA,NA,"","","",NA,NA,NA,NA,NA,NA,"",NA,"",NA,NA,NA,NA,NA,NA,NA,"",NA,"i",1,0.5293,0,1,1,3,1,"自己","i","",NA,"",NA,NA,NA,NA,NA,NA,NA,"",NA,"28"
"",NA,"",NA,"",NA,NA,NA,NA,NA,NA,NA,"","",1,1,"2024-08-25_15h00.14.666","IAT(Formal)","2021.2.3","Win32",59.88023952,"",NA,"",NA,NA,NA,NA,NA,NA,NA,"","","",NA,"",NA,NA,NA,NA,NA,NA,NA,"","","",NA,NA,NA,NA,NA,NA,"",NA,"",NA,NA,NA,NA,NA,NA,NA,"",NA,"e",1,0.4523,0,2,2,57,1,"他的","e","",NA,"",NA,NA,NA,NA,NA,NA,NA,"",NA,"28"
"",NA,"",NA,"",NA,NA,NA,NA,NA,NA,NA,"","",1,1,"2024-08-25_15h00.14.666","IAT(Formal)","2021.2.3","Win32",59.88023952,"",NA,"",NA,NA,NA,NA,NA,NA,NA,"","","",NA,"",NA,NA,NA,NA,NA,NA,NA,"","","",NA,NA,NA,NA,NA,NA,"",NA,"",NA,NA,NA,NA,NA,NA,NA,"",NA,"i",1,0.4066,0,3,3,60,1,"我","i","",NA,"",NA,NA,NA,NA,NA,NA,NA,"",NA,"28"
"",NA,"",NA,"",NA,NA,NA,NA,NA,NA,NA,"","",1,1,"2024-08-25_15h00.14.666","IAT(Formal)","2021.2.3","Win32",59.88023952,"",NA,"",NA,NA,NA,NA,NA,NA,NA,"","","",NA,"",NA,NA,NA,NA,NA,NA,NA,"","","",NA,NA,NA,NA,NA,NA,"",NA,"",NA,NA,NA,NA,NA,NA,NA,"",NA,"e",1,0.3936,0,4,4,58,1,"他人","e","",NA,"",NA,NA,NA,NA,NA,NA,NA,"",NA,"28"
