﻿Instruction1.keys,Instruction1.rt,Instruction2.keys,Instruction2.rt,key_resp_iso.keys,key_resp_iso.corr,key_resp_iso.rt,Practice_01.thisRepN,Practice_01.thisTrialN,Practice_01.thisN,Practice_01.thisIndex,Practice_01.ran,Words,ans,participant,session,date,expName,psychopyVersion,OS,frameRate,key_resp_3.keys,key_resp_3.rt,key_resp_ipn.keys,key_resp_ipn.corr,key_resp_ipn.rt,Practice_02.thisRepN,Practice_02.thisTrialN,Practice_02.thisN,Practice_02.thisIndex,Practice_02.ran,Words_ipn,ans_ipn,key_resp_4.keys,key_resp_4.rt,key_resp_t1.keys,key_resp_t1.corr,key_resp_t1.rt,Practice_T1.thisRepN,Practice_T1.thisTrialN,Practice_T1.thisN,Practice_T1.thisIndex,Practice_T1.ran,Words_t1,ans_t1,key_resp_5.keys,key_resp_5.rt,Formal_T1.thisRepN,Formal_T1.thisTrialN,Formal_T1.thisN,Formal_T1.thisIndex,Formal_T1.ran,key_resp_6.keys,key_resp_6.rt,key_resp_iso_reverse.keys,key_resp_iso_reverse.corr,key_resp_iso_reverse.rt,Practice_iso_Reverse.thisRepN,Practice_iso_Reverse.thisTrialN,Practice_iso_Reverse.thisN,Practice_iso_Reverse.thisIndex,Practice_iso_Reverse.ran,key_resp_7.keys,key_resp_7.rt,key_resp_t2_Practice.keys,key_resp_t2_Practice.corr,key_resp_t2_Practice.rt,Practice_t2_Reverse.thisRepN,Practice_t2_Reverse.thisTrialN,Practice_t2_Reverse.thisN,Practice_t2_Reverse.thisIndex,Practice_t2_Reverse.ran,Words_t2,ans_t2,key_resp_8.keys,key_resp_8.rt,key_resp_t2.keys,key_resp_t2.corr,key_resp_t2.rt,Formal_t2_reverse.thisRepN,Formal_t2_reverse.thisTrialN,Formal_t2_reverse.thisN,Formal_t2_reverse.thisIndex,Formal_t2_reverse.ran,key_instruct.keys,key_instruct.rt
space,6.3144,space,10.732,i,1,0.8435,0,0,0,9,1,其他,i,1,001,2024-08-25_15h00.14.666,IAT(Formal),2021.2.3,Win32,59.88023952,,,,,,,,,,,,,,,,,,,,,,,,,,,,,,,,,,,,,,,,,,,,,,,,,,,,,,,,,,,,,,,,,
,,,,i,1,0.6389,0,1,1,6,1,他们,i,1,001,2024-08-25_15h00.14.666,IAT(Formal),2021.2.3,Win32,59.88023952,,,,,,,,,,,,,,,,,,,,,,,,,,,,,,,,,,,,,,,,,,,,,,,,,,,,,,,,,,,,,,,,,
,,,,i,1,0.3845,0,2,2,8,1,他人,i,1,001,2024-08-25_15h00.14.666,IAT(Formal),2021.2.3,Win32,59.88023952,,,,,,,,,,,,,,,,,,,,,,,,,,,,,,,,,,,,,,,,,,,,,,,,,,,,,,,,,,,,,,,,,
,,,,i,1,0.4666,0,3,3,5,1,他,i,1,001,2024-08-25_15h00.14.666,IAT(Formal),2021.2.3,Win32,59.88023952,,,,,,,,,,,,,,,,,,,,,,,,,,,,,,,,,,,,,,,,,,,,,,,,,,,,,,,,,,,,,,,,,
,,,,e,1,0.5892,0,4,4,2,1,我们,e,1,001,2024-08-25_15h00.14.666,IAT(Formal),2021.2.3,Win32,59.88023952,,,,,,,,,,,,,,,,,,,,,,,,,,,,,,,,,,,,,,,,,,,,,,,,,,,,,,,,,,,,,,,,,
,,,,e,1,0.7882,0,5,5,0,1,我,e,1,001,2024-08-25_15h00.14.666,IAT(Formal),2021.2.3,Win32,59.88023952,,,,,,,,,,,,,,,,,,,,,,,,,,,,,,,,,,,,,,,,,,,,,,,,,,,,,,,,,,,,,,,,,
,,,,e,1,0.5713,0,6,6,4,1,俺,e,1,001,2024-08-25_15h00.14.666,IAT(Formal),2021.2.3,Win32,59.88023952,,,,,,,,,,,,,,,,,,,,,,,,,,,,,,,,,,,,,,,,,,,,,,,,,,,,,,,,,,,,,,,,,
,,,,e,1,0.455,0,7,7,1,1,我的,e,1,001,2024-08-25_15h00.14.666,IAT(Formal),2021.2.3,Win32,59.88023952,,,,,,,,,,,,,,,,,,,,,,,,,,,,,,,,,,,,,,,,,,,,,,,,,,,,,,,,,,,,,,,,,
,,,,e,1,0.5529,0,8,8,3,1,自己,e,1,001,2024-08-25_15h00.14.666,IAT(Formal),2021.2.3,Win32,59.88023952,,,,,,,,,,,,,,,,,,,,,,,,,,,,,,,,,,,,,,,,,,,,,,,,,,,,,,,,,,,,,,,,,
,,,,i,1,0.4386,0,9,9,7,1,他的,i,1,001,2024-08-25_15h00.14.666,IAT(Formal),2021.2.3,Win32,59.88023952,,,,,,,,,,,,,,,,,,,,,,,,,,,,,,,,,,,,,,,,,,,,,,,,,,,,,,,,,,,,,,,,,
,,,,,,,,,,,,,,1,001,2024-08-25_15h00.14.666,IAT(Formal),2021.2.3,Win32,59.88023952,space,5.8354,i,1,1.1282,0,0,0,28,1,鲁莽,i,,,,,,,,,,,,,,,,,,,,,,,,,,,,,,,,,,,,,,,,,,,,,,,,,,,,,
,,,,,,,,,,,,,,1,001,2024-08-25_15h00.14.666,IAT(Formal),2021.2.3,Win32,59.88023952,,,e,1,0.6138,0,1,1,19,1,诚恳,e,,,,,,,,,,,,,,,,,,,,,,,,,,,,,,,,,,,,,,,,,,,,,,,,,,,,,
,,,,,,,,,,,,,,1,001,2024-08-25_15h00.14.666,IAT(Formal),2021.2.3,Win32,59.88023952,,,i,1,0.8905,0,2,2,26,1,自卑,i,,,,,,,,,,,,,,,,,,,,,,,,,,,,,,,,,,,,,,,,,,,,,,,,,,,,,
,,,,,,,,,,,,,,1,001,2024-08-25_15h00.14.666,IAT(Formal),2021.2.3,Win32,59.88023952,,,e,1,0.5375,0,3,3,2,1,聪明,e,,,,,,,,,,,,,,,,,,,,,,,,,,,,,,,,,,,,,,,,,,,,,,,,,,,,,
,,,,,,,,,,,,,,1,001,2024-08-25_15h00.14.666,IAT(Formal),2021.2.3,Win32,59.88023952,,,e,1,0.6129,0,4,4,17,1,热情,e,,,,,,,,,,,,,,,,,,,,,,,,,,,,,,,,,,,,,,,,,,,,,,,,,,,,,
,,,,,,,,,,,,,,1,001,2024-08-25_15h00.14.666,IAT(Formal),2021.2.3,Win32,59.88023952,,,e,1,0.5014,0,5,5,7,1,勇敢,e,,,,,,,,,,,,,,,,,,,,,,,,,,,,,,,,,,,,,,,,,,,,,,,,,,,,,
,,,,,,,,,,,,,,1,001,2024-08-25_15h00.14.666,IAT(Formal),2021.2.3,Win32,59.88023952,,,e,1,0.6457,0,6,6,14,1,朴实,e,,,,,,,,,,,,,,,,,,,,,,,,,,,,,,,,,,,,,,,,,,,,,,,,,,,,,
,,,,,,,,,,,,,,1,001,2024-08-25_15h00.14.666,IAT(Formal),2021.2.3,Win32,59.88023952,,,i,1,0.6748,0,7,7,38,1,轻率,i,,,,,,,,,,,,,,,,,,,,,,,,,,,,,,,,,,,,,,,,,,,,,,,,,,,,,
,,,,,,,,,,,,,,1,001,2024-08-25_15h00.14.666,IAT(Formal),2021.2.3,Win32,59.88023952,,,i,1,0.5315,0,8,8,29,1,冒失,i,,,,,,,,,,,,,,,,,,,,,,,,,,,,,,,,,,,,,,,,,,,,,,,,,,,,,
,,,,,,,,,,,,,,1,001,2024-08-25_15h00.14.666,IAT(Formal),2021.2.3,Win32,59.88023952,,,i,1,0.5904,0,9,9,39,1,下贱,i,,,,,,,,,,,,,,,,,,,,,,,,,,,,,,,,,,,,,,,,,,,,,,,,,,,,,
,,,,,,,,,,,,,,1,001,2024-08-25_15h00.14.666,IAT(Formal),2021.2.3,Win32,59.88023952,,,e,1,0.5195,0,10,10,10,1,认真,e,,,,,,,,,,,,,,,,,,,,,,,,,,,,,,,,,,,,,,,,,,,,,,,,,,,,,
,,,,,,,,,,,,,,1,001,2024-08-25_15h00.14.666,IAT(Formal),2021.2.3,Win32,59.88023952,,,i,1,0.6018,0,11,11,27,1,傲慢,i,,,,,,,,,,,,,,,,,,,,,,,,,,,,,,,,,,,,,,,,,,,,,,,,,,,,,
,,,,,,,,,,,,,,1,001,2024-08-25_15h00.14.666,IAT(Formal),2021.2.3,Win32,59.88023952,,,e,1,0.6108,0,12,12,13,1,公正,e,,,,,,,,,,,,,,,,,,,,,,,,,,,,,,,,,,,,,,,,,,,,,,,,,,,,,
,,,,,,,,,,,,,,1,001,2024-08-25_15h00.14.666,IAT(Formal),2021.2.3,Win32,59.88023952,,,e,1,0.567,0,13,13,18,1,活泼,e,,,,,,,,,,,,,,,,,,,,,,,,,,,,,,,,,,,,,,,,,,,,,,,,,,,,,
,,,,,,,,,,,,,,1,001,2024-08-25_15h00.14.666,IAT(Formal),2021.2.3,Win32,59.88023952,,,i,1,0.9179,0,14,14,31,1,散漫,i,,,,,,,,,,,,,,,,,,,,,,,,,,,,,,,,,,,,,,,,,,,,,,,,,,,,,
,,,,,,,,,,,,,,1,001,2024-08-25_15h00.14.666,IAT(Formal),2021.2.3,Win32,59.88023952,,,i,1,0.597,0,15,15,20,1,卑鄙,i,,,,,,,,,,,,,,,,,,,,,,,,,,,,,,,,,,,,,,,,,,,,,,,,,,,,,
,,,,,,,,,,,,,,1,001,2024-08-25_15h00.14.666,IAT(Formal),2021.2.3,Win32,59.88023952,,,i,1,0.5999,0,16,16,21,1,虚伪,i,,,,,,,,,,,,,,,,,,,,,,,,,,,,,,,,,,,,,,,,,,,,,,,,,,,,,
,,,,,,,,,,,,,,1,001,2024-08-25_15h00.14.666,IAT(Formal),2021.2.3,Win32,59.88023952,,,i,1,0.5303,0,17,17,23,1,刻薄,i,,,,,,,,,,,,,,,,,,,,,,,,,,,,,,,,,,,,,,,,,,,,,,,,,,,,,
,,,,,,,,,,,,,,1,001,2024-08-25_15h00.14.666,IAT(Formal),2021.2.3,Win32,59.88023952,,,e,1,0.8426,0,18,18,16,1,冷静,e,,,,,,,,,,,,,,,,,,,,,,,,,,,,,,,,,,,,,,,,,,,,,,,,,,,,,
,,,,,,,,,,,,,,1,001,2024-08-25_15h00.14.666,IAT(Formal),2021.2.3,Win32,59.88023952,,,e,1,0.7267,0,19,19,8,1,勤奋,e,,,,,,,,,,,,,,,,,,,,,,,,,,,,,,,,,,,,,,,,,,,,,,,,,,,,,
,,,,,,,,,,,,,,1,001,2024-08-25_15h00.14.666,IAT(Formal),2021.2.3,Win32,59.88023952,,,i,1,0.5789,0,20,20,34,1,暴躁,i,,,,,,,,,,,,,,,,,,,,,,,,,,,,,,,,,,,,,,,,,,,,,,,,,,,,,
,,,,,,,,,,,,,,1,001,2024-08-25_15h00.14.666,IAT(Formal),2021.2.3,Win32,59.88023952,,,e,1,0.9823,0,21,21,9,1,机智,e,,,,,,,,,,,,,,,,,,,,,,,,,,,,,,,,,,,,,,,,,,,,,,,,,,,,,
,,,,,,,,,,,,,,1,001,2024-08-25_15h00.14.666,IAT(Formal),2021.2.3,Win32,59.88023952,,,e,1,1.174,0,22,22,1,1,崇高,e,,,,,,,,,,,,,,,,,,,,,,,,,,,,,,,,,,,,,,,,,,,,,,,,,,,,,
,,,,,,,,,,,,,,1,001,2024-08-25_15h00.14.666,IAT(Formal),2021.2.3,Win32,59.88023952,,,e,1,0.6174,0,23,23,5,1,诚实,e,,,,,,,,,,,,,,,,,,,,,,,,,,,,,,,,,,,,,,,,,,,,,,,,,,,,,
,,,,,,,,,,,,,,1,001,2024-08-25_15h00.14.666,IAT(Formal),2021.2.3,Win32,59.88023952,,,e,1,0.4973,0,24,24,3,1,杰出,e,,,,,,,,,,,,,,,,,,,,,,,,,,,,,,,,,,,,,,,,,,,,,,,,,,,,,
,,,,,,,,,,,,,,1,001,2024-08-25_15h00.14.666,IAT(Formal),2021.2.3,Win32,59.88023952,,,i,1,0.8387,0,25,25,22,1,愚蠢,i,,,,,,,,,,,,,,,,,,,,,,,,,,,,,,,,,,,,,,,,,,,,,,,,,,,,,
,,,,,,,,,,,,,,1,001,2024-08-25_15h00.14.666,IAT(Formal),2021.2.3,Win32,59.88023952,,,e,1,0.5476,0,26,26,6,1,正直,e,,,,,,,,,,,,,,,,,,,,,,,,,,,,,,,,,,,,,,,,,,,,,,,,,,,,,
,,,,,,,,,,,,,,1,001,2024-08-25_15h00.14.666,IAT(Formal),2021.2.3,Win32,59.88023952,,,e,1,0.6378,0,27,27,11,1,稳重,e,,,,,,,,,,,,,,,,,,,,,,,,,,,,,,,,,,,,,,,,,,,,,,,,,,,,,
,,,,,,,,,,,,,,1,001,2024-08-25_15h00.14.666,IAT(Formal),2021.2.3,Win32,59.88023952,,,i,1,0.5331,0,28,28,24,1,悲观,i,,,,,,,,,,,,,,,,,,,,,,,,,,,,,,,,,,,,,,,,,,,,,,,,,,,,,
,,,,,,,,,,,,,,1,001,2024-08-25_15h00.14.666,IAT(Formal),2021.2.3,Win32,59.88023952,,,e,1,0.7477,0,29,29,12,1,无私,e,,,,,,,,,,,,,,,,,,,,,,,,,,,,,,,,,,,,,,,,,,,,,,,,,,,,,
,,,,,,,,,,,,,,1,001,2024-08-25_15h00.14.666,IAT(Formal),2021.2.3,Win32,59.88023952,,,e,1,0.5455,0,30,30,0,1,优秀,e,,,,,,,,,,,,,,,,,,,,,,,,,,,,,,,,,,,,,,,,,,,,,,,,,,,,,
,,,,,,,,,,,,,,1,001,2024-08-25_15h00.14.666,IAT(Formal),2021.2.3,Win32,59.88023952,,,i,1,0.865,0,31,31,30,1,执拗,i,,,,,,,,,,,,,,,,,,,,,,,,,,,,,,,,,,,,,,,,,,,,,,,,,,,,,
,,,,,,,,,,,,,,1,001,2024-08-25_15h00.14.666,IAT(Formal),2021.2.3,Win32,59.88023952,,,i,1,0.6926,0,32,32,25,1,消极,i,,,,,,,,,,,,,,,,,,,,,,,,,,,,,,,,,,,,,,,,,,,,,,,,,,,,,
,,,,,,,,,,,,,,1,001,2024-08-25_15h00.14.666,IAT(Formal),2021.2.3,Win32,59.88023952,,,i,1,1.183,0,33,33,37,1,固执,i,,,,,,,,,,,,,,,,,,,,,,,,,,,,,,,,,,,,,,,,,,,,,,,,,,,,,
,,,,,,,,,,,,,,1,001,2024-08-25_15h00.14.666,IAT(Formal),2021.2.3,Win32,59.88023952,,,i,1,0.7455,0,34,34,32,1,凶狠,i,,,,,,,,,,,,,,,,,,,,,,,,,,,,,,,,,,,,,,,,,,,,,,,,,,,,,
,,,,,,,,,,,,,,1,001,2024-08-25_15h00.14.666,IAT(Formal),2021.2.3,Win32,59.88023952,,,i,1,0.7303,0,35,35,35,1,猖狂,i,,,,,,,,,,,,,,,,,,,,,,,,,,,,,,,,,,,,,,,,,,,,,,,,,,,,,
,,,,,,,,,,,,,,1,001,2024-08-25_15h00.14.666,IAT(Formal),2021.2.3,Win32,59.88023952,,,e,1,0.72,0,36,36,15,1,细腻,e,,,,,,,,,,,,,,,,,,,,,,,,,,,,,,,,,,,,,,,,,,,,,,,,,,,,,
,,,,,,,,,,,,,,1,001,2024-08-25_15h00.14.666,IAT(Formal),2021.2.3,Win32,59.88023952,,,e,1,0.5759,0,37,37,4,1,乐观,e,,,,,,,,,,,,,,,,,,,,,,,,,,,,,,,,,,,,,,,,,,,,,,,,,,,,,
,,,,,,,,,,,,,,1,001,2024-08-25_15h00.14.666,IAT(Formal),2021.2.3,Win32,59.88023952,,,i,1,0.7074,0,38,38,33,1,自私,i,,,,,,,,,,,,,,,,,,,,,,,,,,,,,,,,,,,,,,,,,,,,,,,,,,,,,
,,,,,,,,,,,,,,1,001,2024-08-25_15h00.14.666,IAT(Formal),2021.2.3,Win32,59.88023952,,,i,1,0.9303,0,39,39,36,1,野蛮,i,,,,,,,,,,,,,,,,,,,,,,,,,,,,,,,,,,,,,,,,,,,,,,,,,,,,,
,,,,,,,,,,,,,,1,001,2024-08-25_15h00.14.666,IAT(Formal),2021.2.3,Win32,59.88023952,,,,,,,,,,,,,space,8.3395,i,1,0.6774,0,0,0,32,1,愚蠢,i,,,,,,,,,,,,,,,,,,,,,,,,,,,,,,,,,,,,,,,,,
,,,,,,,,,,,,,,1,001,2024-08-25_15h00.14.666,IAT(Formal),2021.2.3,Win32,59.88023952,,,,,,,,,,,,,,,i,1,0.9239,0,1,1,78,1,他人,i,,,,,,,,,,,,,,,,,,,,,,,,,,,,,,,,,,,,,,,,,
,,,,,,,,,,,,,,1,001,2024-08-25_15h00.14.666,IAT(Formal),2021.2.3,Win32,59.88023952,,,,,,,,,,,,,,,i,1,0.755,0,2,2,48,1,轻率,i,,,,,,,,,,,,,,,,,,,,,,,,,,,,,,,,,,,,,,,,,
,,,,,,,,,,,,,,1,001,2024-08-25_15h00.14.666,IAT(Formal),2021.2.3,Win32,59.88023952,,,,,,,,,,,,,,,e,1,0.7453,0,3,3,74,1,俺,e,,,,,,,,,,,,,,,,,,,,,,,,,,,,,,,,,,,,,,,,,
,,,,,,,,,,,,,,1,001,2024-08-25_15h00.14.666,IAT(Formal),2021.2.3,Win32,59.88023952,,,,,,,,,,,,,,,i,1,0.8712,0,4,4,31,1,虚伪,i,,,,,,,,,,,,,,,,,,,,,,,,,,,,,,,,,,,,,,,,,
,,,,,,,,,,,,,,1,001,2024-08-25_15h00.14.666,IAT(Formal),2021.2.3,Win32,59.88023952,,,,,,,,,,,,,,,e,1,0.6997,0,5,5,27,1,热情,e,,,,,,,,,,,,,,,,,,,,,,,,,,,,,,,,,,,,,,,,,
,,,,,,,,,,,,,,1,001,2024-08-25_15h00.14.666,IAT(Formal),2021.2.3,Win32,59.88023952,,,,,,,,,,,,,,,i,1,0.5513,0,6,6,8,1,他人,i,,,,,,,,,,,,,,,,,,,,,,,,,,,,,,,,,,,,,,,,,
,,,,,,,,,,,,,,1,001,2024-08-25_15h00.14.666,IAT(Formal),2021.2.3,Win32,59.88023952,,,,,,,,,,,,,,,i,1,0.7272,0,7,7,36,1,自卑,i,,,,,,,,,,,,,,,,,,,,,,,,,,,,,,,,,,,,,,,,,
,,,,,,,,,,,,,,1,001,2024-08-25_15h00.14.666,IAT(Formal),2021.2.3,Win32,59.88023952,,,,,,,,,,,,,,,i,1,0.6057,0,8,8,40,1,执拗,i,,,,,,,,,,,,,,,,,,,,,,,,,,,,,,,,,,,,,,,,,
,,,,,,,,,,,,,,1,001,2024-08-25_15h00.14.666,IAT(Formal),2021.2.3,Win32,59.88023952,,,,,,,,,,,,,,,e,1,0.5167,0,9,9,60,1,我,e,,,,,,,,,,,,,,,,,,,,,,,,,,,,,,,,,,,,,,,,,
,,,,,,,,,,,,,,1,001,2024-08-25_15h00.14.666,IAT(Formal),2021.2.3,Win32,59.88023952,,,,,,,,,,,,,,,i,1,0.7847,0,10,10,77,1,他的,i,,,,,,,,,,,,,,,,,,,,,,,,,,,,,,,,,,,,,,,,,
,,,,,,,,,,,,,,1,001,2024-08-25_15h00.14.666,IAT(Formal),2021.2.3,Win32,59.88023952,,,,,,,,,,,,,,,i,1,0.607,0,11,11,58,1,他人,i,,,,,,,,,,,,,,,,,,,,,,,,,,,,,,,,,,,,,,,,,
,,,,,,,,,,,,,,1,001,2024-08-25_15h00.14.666,IAT(Formal),2021.2.3,Win32,59.88023952,,,,,,,,,,,,,,,e,1,0.7177,0,12,12,72,1,我们,e,,,,,,,,,,,,,,,,,,,,,,,,,,,,,,,,,,,,,,,,,
,,,,,,,,,,,,,,1,001,2024-08-25_15h00.14.666,IAT(Formal),2021.2.3,Win32,59.88023952,,,,,,,,,,,,,,,e,1,0.5405,0,13,13,18,1,勤奋,e,,,,,,,,,,,,,,,,,,,,,,,,,,,,,,,,,,,,,,,,,
,,,,,,,,,,,,,,1,001,2024-08-25_15h00.14.666,IAT(Formal),2021.2.3,Win32,59.88023952,,,,,,,,,,,,,,,e,1,0.5201,0,14,14,17,1,勇敢,e,,,,,,,,,,,,,,,,,,,,,,,,,,,,,,,,,,,,,,,,,
,,,,,,,,,,,,,,1,001,2024-08-25_15h00.14.666,IAT(Formal),2021.2.3,Win32,59.88023952,,,,,,,,,,,,,,,i,1,0.5786,0,15,15,59,1,其他,i,,,,,,,,,,,,,,,,,,,,,,,,,,,,,,,,,,,,,,,,,
,,,,,,,,,,,,,,1,001,2024-08-25_15h00.14.666,IAT(Formal),2021.2.3,Win32,59.88023952,,,,,,,,,,,,,,,i,1,0.4937,0,16,16,9,1,其他,i,,,,,,,,,,,,,,,,,,,,,,,,,,,,,,,,,,,,,,,,,
,,,,,,,,,,,,,,1,001,2024-08-25_15h00.14.666,IAT(Formal),2021.2.3,Win32,59.88023952,,,,,,,,,,,,,,,e,1,0.7738,0,17,17,28,1,活泼,e,,,,,,,,,,,,,,,,,,,,,,,,,,,,,,,,,,,,,,,,,
,,,,,,,,,,,,,,1,001,2024-08-25_15h00.14.666,IAT(Formal),2021.2.3,Win32,59.88023952,,,,,,,,,,,,,,,i,1,0.795,0,18,18,47,1,固执,i,,,,,,,,,,,,,,,,,,,,,,,,,,,,,,,,,,,,,,,,,
,,,,,,,,,,,,,,1,001,2024-08-25_15h00.14.666,IAT(Formal),2021.2.3,Win32,59.88023952,,,,,,,,,,,,,,,e,1,0.5671,0,19,19,13,1,杰出,e,,,,,,,,,,,,,,,,,,,,,,,,,,,,,,,,,,,,,,,,,
,,,,,,,,,,,,,,1,001,2024-08-25_15h00.14.666,IAT(Formal),2021.2.3,Win32,59.88023952,,,,,,,,,,,,,,,i,1,0.5292,0,20,20,68,1,他人,i,,,,,,,,,,,,,,,,,,,,,,,,,,,,,,,,,,,,,,,,,
,,,,,,,,,,,,,,1,001,2024-08-25_15h00.14.666,IAT(Formal),2021.2.3,Win32,59.88023952,,,,,,,,,,,,,,,i,1,0.5098,0,21,21,79,1,其他,i,,,,,,,,,,,,,,,,,,,,,,,,,,,,,,,,,,,,,,,,,
,,,,,,,,,,,,,,1,001,2024-08-25_15h00.14.666,IAT(Formal),2021.2.3,Win32,59.88023952,,,,,,,,,,,,,,,i,1,0.4436,0,22,22,5,1,他,i,,,,,,,,,,,,,,,,,,,,,,,,,,,,,,,,,,,,,,,,,
,,,,,,,,,,,,,,1,001,2024-08-25_15h00.14.666,IAT(Formal),2021.2.3,Win32,59.88023952,,,,,,,,,,,,,,,e,1,0.5514,0,23,23,53,1,自己,e,,,,,,,,,,,,,,,,,,,,,,,,,,,,,,,,,,,,,,,,,
,,,,,,,,,,,,,,1,001,2024-08-25_15h00.14.666,IAT(Formal),2021.2.3,Win32,59.88023952,,,,,,,,,,,,,,,e,1,0.595,0,24,24,29,1,诚恳,e,,,,,,,,,,,,,,,,,,,,,,,,,,,,,,,,,,,,,,,,,
,,,,,,,,,,,,,,1,001,2024-08-25_15h00.14.666,IAT(Formal),2021.2.3,Win32,59.88023952,,,,,,,,,,,,,,,e,1,1.0534,0,25,25,25,1,细腻,e,,,,,,,,,,,,,,,,,,,,,,,,,,,,,,,,,,,,,,,,,
,,,,,,,,,,,,,,1,001,2024-08-25_15h00.14.666,IAT(Formal),2021.2.3,Win32,59.88023952,,,,,,,,,,,,,,,i,1,0.667,0,26,26,66,1,他们,i,,,,,,,,,,,,,,,,,,,,,,,,,,,,,,,,,,,,,,,,,
,,,,,,,,,,,,,,1,001,2024-08-25_15h00.14.666,IAT(Formal),2021.2.3,Win32,59.88023952,,,,,,,,,,,,,,,i,1,0.6,0,27,27,65,1,他,i,,,,,,,,,,,,,,,,,,,,,,,,,,,,,,,,,,,,,,,,,
,,,,,,,,,,,,,,1,001,2024-08-25_15h00.14.666,IAT(Formal),2021.2.3,Win32,59.88023952,,,,,,,,,,,,,,,i,1,0.438,0,28,28,6,1,他们,i,,,,,,,,,,,,,,,,,,,,,,,,,,,,,,,,,,,,,,,,,
,,,,,,,,,,,,,,1,001,2024-08-25_15h00.14.666,IAT(Formal),2021.2.3,Win32,59.88023952,,,,,,,,,,,,,,,i,1,1.1068,0,29,29,46,1,野蛮,i,,,,,,,,,,,,,,,,,,,,,,,,,,,,,,,,,,,,,,,,,
,,,,,,,,,,,,,,1,001,2024-08-25_15h00.14.666,IAT(Formal),2021.2.3,Win32,59.88023952,,,,,,,,,,,,,,,e,1,0.5786,0,30,30,19,1,机智,e,,,,,,,,,,,,,,,,,,,,,,,,,,,,,,,,,,,,,,,,,
,,,,,,,,,,,,,,1,001,2024-08-25_15h00.14.666,IAT(Formal),2021.2.3,Win32,59.88023952,,,,,,,,,,,,,,,e,1,0.6084,0,31,31,61,1,我的,e,,,,,,,,,,,,,,,,,,,,,,,,,,,,,,,,,,,,,,,,,
,,,,,,,,,,,,,,1,001,2024-08-25_15h00.14.666,IAT(Formal),2021.2.3,Win32,59.88023952,,,,,,,,,,,,,,,i,1,0.5851,0,32,32,35,1,消极,i,,,,,,,,,,,,,,,,,,,,,,,,,,,,,,,,,,,,,,,,,
,,,,,,,,,,,,,,1,001,2024-08-25_15h00.14.666,IAT(Formal),2021.2.3,Win32,59.88023952,,,,,,,,,,,,,,,e,1,0.5666,0,33,33,62,1,我们,e,,,,,,,,,,,,,,,,,,,,,,,,,,,,,,,,,,,,,,,,,
,,,,,,,,,,,,,,1,001,2024-08-25_15h00.14.666,IAT(Formal),2021.2.3,Win32,59.88023952,,,,,,,,,,,,,,,e,1,0.5689,0,34,34,4,1,俺,e,,,,,,,,,,,,,,,,,,,,,,,,,,,,,,,,,,,,,,,,,
,,,,,,,,,,,,,,1,001,2024-08-25_15h00.14.666,IAT(Formal),2021.2.3,Win32,59.88023952,,,,,,,,,,,,,,,e,1,0.5559,0,35,35,15,1,诚实,e,,,,,,,,,,,,,,,,,,,,,,,,,,,,,,,,,,,,,,,,,
,,,,,,,,,,,,,,1,001,2024-08-25_15h00.14.666,IAT(Formal),2021.2.3,Win32,59.88023952,,,,,,,,,,,,,,,e,1,0.5703,0,36,36,73,1,自己,e,,,,,,,,,,,,,,,,,,,,,,,,,,,,,,,,,,,,,,,,,
,,,,,,,,,,,,,,1,001,2024-08-25_15h00.14.666,IAT(Formal),2021.2.3,Win32,59.88023952,,,,,,,,,,,,,,,i,1,0.6299,0,37,37,7,1,他的,i,,,,,,,,,,,,,,,,,,,,,,,,,,,,,,,,,,,,,,,,,
,,,,,,,,,,,,,,1,001,2024-08-25_15h00.14.666,IAT(Formal),2021.2.3,Win32,59.88023952,,,,,,,,,,,,,,,i,1,1.3218,0,38,38,41,1,散漫,i,,,,,,,,,,,,,,,,,,,,,,,,,,,,,,,,,,,,,,,,,
,,,,,,,,,,,,,,1,001,2024-08-25_15h00.14.666,IAT(Formal),2021.2.3,Win32,59.88023952,,,,,,,,,,,,,,,i,1,0.5843,0,39,39,67,1,他的,i,,,,,,,,,,,,,,,,,,,,,,,,,,,,,,,,,,,,,,,,,
,,,,,,,,,,,,,,1,001,2024-08-25_15h00.14.666,IAT(Formal),2021.2.3,Win32,59.88023952,,,,,,,,,,,,,,,i,1,0.4667,0,40,40,57,1,他的,i,,,,,,,,,,,,,,,,,,,,,,,,,,,,,,,,,,,,,,,,,
,,,,,,,,,,,,,,1,001,2024-08-25_15h00.14.666,IAT(Formal),2021.2.3,Win32,59.88023952,,,,,,,,,,,,,,,e,1,0.5381,0,41,41,63,1,自己,e,,,,,,,,,,,,,,,,,,,,,,,,,,,,,,,,,,,,,,,,,
,,,,,,,,,,,,,,1,001,2024-08-25_15h00.14.666,IAT(Formal),2021.2.3,Win32,59.88023952,,,,,,,,,,,,,,,e,1,0.683,0,42,42,22,1,无私,e,,,,,,,,,,,,,,,,,,,,,,,,,,,,,,,,,,,,,,,,,
,,,,,,,,,,,,,,1,001,2024-08-25_15h00.14.666,IAT(Formal),2021.2.3,Win32,59.88023952,,,,,,,,,,,,,,,i,1,0.6381,0,43,43,38,1,鲁莽,i,,,,,,,,,,,,,,,,,,,,,,,,,,,,,,,,,,,,,,,,,
,,,,,,,,,,,,,,1,001,2024-08-25_15h00.14.666,IAT(Formal),2021.2.3,Win32,59.88023952,,,,,,,,,,,,,,,i,1,0.7404,0,44,44,75,1,他,i,,,,,,,,,,,,,,,,,,,,,,,,,,,,,,,,,,,,,,,,,
,,,,,,,,,,,,,,1,001,2024-08-25_15h00.14.666,IAT(Formal),2021.2.3,Win32,59.88023952,,,,,,,,,,,,,,,e,1,0.5672,0,45,45,64,1,俺,e,,,,,,,,,,,,,,,,,,,,,,,,,,,,,,,,,,,,,,,,,
,,,,,,,,,,,,,,1,001,2024-08-25_15h00.14.666,IAT(Formal),2021.2.3,Win32,59.88023952,,,,,,,,,,,,,,,e,1,0.6005,0,46,46,71,1,我的,e,,,,,,,,,,,,,,,,,,,,,,,,,,,,,,,,,,,,,,,,,
,,,,,,,,,,,,,,1,001,2024-08-25_15h00.14.666,IAT(Formal),2021.2.3,Win32,59.88023952,,,,,,,,,,,,,,,i,1,0.5881,0,47,47,43,1,自私,i,,,,,,,,,,,,,,,,,,,,,,,,,,,,,,,,,,,,,,,,,
,,,,,,,,,,,,,,1,001,2024-08-25_15h00.14.666,IAT(Formal),2021.2.3,Win32,59.88023952,,,,,,,,,,,,,,,i,1,0.5355,0,48,48,69,1,其他,i,,,,,,,,,,,,,,,,,,,,,,,,,,,,,,,,,,,,,,,,,
,,,,,,,,,,,,,,1,001,2024-08-25_15h00.14.666,IAT(Formal),2021.2.3,Win32,59.88023952,,,,,,,,,,,,,,,i,1,0.5194,0,49,49,49,1,下贱,i,,,,,,,,,,,,,,,,,,,,,,,,,,,,,,,,,,,,,,,,,
,,,,,,,,,,,,,,1,001,2024-08-25_15h00.14.666,IAT(Formal),2021.2.3,Win32,59.88023952,,,,,,,,,,,,,,,i,1,0.4879,0,50,50,39,1,冒失,i,,,,,,,,,,,,,,,,,,,,,,,,,,,,,,,,,,,,,,,,,
,,,,,,,,,,,,,,1,001,2024-08-25_15h00.14.666,IAT(Formal),2021.2.3,Win32,59.88023952,,,,,,,,,,,,,,,i,1,0.653,0,51,51,33,1,刻薄,i,,,,,,,,,,,,,,,,,,,,,,,,,,,,,,,,,,,,,,,,,
,,,,,,,,,,,,,,1,001,2024-08-25_15h00.14.666,IAT(Formal),2021.2.3,Win32,59.88023952,,,,,,,,,,,,,,,e,1,0.451,0,52,52,12,1,聪明,e,,,,,,,,,,,,,,,,,,,,,,,,,,,,,,,,,,,,,,,,,
,,,,,,,,,,,,,,1,001,2024-08-25_15h00.14.666,IAT(Formal),2021.2.3,Win32,59.88023952,,,,,,,,,,,,,,,i,1,0.5884,0,53,53,45,1,猖狂,i,,,,,,,,,,,,,,,,,,,,,,,,,,,,,,,,,,,,,,,,,
,,,,,,,,,,,,,,1,001,2024-08-25_15h00.14.666,IAT(Formal),2021.2.3,Win32,59.88023952,,,,,,,,,,,,,,,i,0,0.7445,0,54,54,26,1,冷静,e,,,,,,,,,,,,,,,,,,,,,,,,,,,,,,,,,,,,,,,,,
,,,,,,,,,,,,,,1,001,2024-08-25_15h00.14.666,IAT(Formal),2021.2.3,Win32,59.88023952,,,,,,,,,,,,,,,e,1,0.5502,0,55,55,10,1,优秀,e,,,,,,,,,,,,,,,,,,,,,,,,,,,,,,,,,,,,,,,,,
,,,,,,,,,,,,,,1,001,2024-08-25_15h00.14.666,IAT(Formal),2021.2.3,Win32,59.88023952,,,,,,,,,,,,,,,i,1,0.788,0,56,56,56,1,他们,i,,,,,,,,,,,,,,,,,,,,,,,,,,,,,,,,,,,,,,,,,
,,,,,,,,,,,,,,1,001,2024-08-25_15h00.14.666,IAT(Formal),2021.2.3,Win32,59.88023952,,,,,,,,,,,,,,,e,1,0.6219,0,57,57,50,1,我,e,,,,,,,,,,,,,,,,,,,,,,,,,,,,,,,,,,,,,,,,,
,,,,,,,,,,,,,,1,001,2024-08-25_15h00.14.666,IAT(Formal),2021.2.3,Win32,59.88023952,,,,,,,,,,,,,,,e,1,0.6017,0,58,58,54,1,俺,e,,,,,,,,,,,,,,,,,,,,,,,,,,,,,,,,,,,,,,,,,
,,,,,,,,,,,,,,1,001,2024-08-25_15h00.14.666,IAT(Formal),2021.2.3,Win32,59.88023952,,,,,,,,,,,,,,,e,1,0.9748,0,59,59,11,1,崇高,e,,,,,,,,,,,,,,,,,,,,,,,,,,,,,,,,,,,,,,,,,
,,,,,,,,,,,,,,1,001,2024-08-25_15h00.14.666,IAT(Formal),2021.2.3,Win32,59.88023952,,,,,,,,,,,,,,,i,1,1.0024,0,60,60,37,1,傲慢,i,,,,,,,,,,,,,,,,,,,,,,,,,,,,,,,,,,,,,,,,,
,,,,,,,,,,,,,,1,001,2024-08-25_15h00.14.666,IAT(Formal),2021.2.3,Win32,59.88023952,,,,,,,,,,,,,,,e,1,0.8001,0,61,61,21,1,稳重,e,,,,,,,,,,,,,,,,,,,,,,,,,,,,,,,,,,,,,,,,,
,,,,,,,,,,,,,,1,001,2024-08-25_15h00.14.666,IAT(Formal),2021.2.3,Win32,59.88023952,,,,,,,,,,,,,,,i,1,0.5665,0,62,62,30,1,卑鄙,i,,,,,,,,,,,,,,,,,,,,,,,,,,,,,,,,,,,,,,,,,
,,,,,,,,,,,,,,1,001,2024-08-25_15h00.14.666,IAT(Formal),2021.2.3,Win32,59.88023952,,,,,,,,,,,,,,,e,0,0.4926,0,63,63,55,1,他,i,,,,,,,,,,,,,,,,,,,,,,,,,,,,,,,,,,,,,,,,,
,,,,,,,,,,,,,,1,001,2024-08-25_15h00.14.666,IAT(Formal),2021.2.3,Win32,59.88023952,,,,,,,,,,,,,,,i,1,0.7,0,64,64,34,1,悲观,i,,,,,,,,,,,,,,,,,,,,,,,,,,,,,,,,,,,,,,,,,
,,,,,,,,,,,,,,1,001,2024-08-25_15h00.14.666,IAT(Formal),2021.2.3,Win32,59.88023952,,,,,,,,,,,,,,,e,1,0.5349,0,65,65,24,1,朴实,e,,,,,,,,,,,,,,,,,,,,,,,,,,,,,,,,,,,,,,,,,
,,,,,,,,,,,,,,1,001,2024-08-25_15h00.14.666,IAT(Formal),2021.2.3,Win32,59.88023952,,,,,,,,,,,,,,,e,1,0.558,0,66,66,2,1,我们,e,,,,,,,,,,,,,,,,,,,,,,,,,,,,,,,,,,,,,,,,,
,,,,,,,,,,,,,,1,001,2024-08-25_15h00.14.666,IAT(Formal),2021.2.3,Win32,59.88023952,,,,,,,,,,,,,,,e,1,0.5004,0,67,67,0,1,我,e,,,,,,,,,,,,,,,,,,,,,,,,,,,,,,,,,,,,,,,,,
,,,,,,,,,,,,,,1,001,2024-08-25_15h00.14.666,IAT(Formal),2021.2.3,Win32,59.88023952,,,,,,,,,,,,,,,e,1,0.6504,0,68,68,23,1,公正,e,,,,,,,,,,,,,,,,,,,,,,,,,,,,,,,,,,,,,,,,,
,,,,,,,,,,,,,,1,001,2024-08-25_15h00.14.666,IAT(Formal),2021.2.3,Win32,59.88023952,,,,,,,,,,,,,,,e,1,0.6832,0,69,69,3,1,自己,e,,,,,,,,,,,,,,,,,,,,,,,,,,,,,,,,,,,,,,,,,
,,,,,,,,,,,,,,1,001,2024-08-25_15h00.14.666,IAT(Formal),2021.2.3,Win32,59.88023952,,,,,,,,,,,,,,,i,1,0.695,0,70,70,42,1,凶狠,i,,,,,,,,,,,,,,,,,,,,,,,,,,,,,,,,,,,,,,,,,
,,,,,,,,,,,,,,1,001,2024-08-25_15h00.14.666,IAT(Formal),2021.2.3,Win32,59.88023952,,,,,,,,,,,,,,,e,1,0.5623,0,71,71,16,1,正直,e,,,,,,,,,,,,,,,,,,,,,,,,,,,,,,,,,,,,,,,,,
,,,,,,,,,,,,,,1,001,2024-08-25_15h00.14.666,IAT(Formal),2021.2.3,Win32,59.88023952,,,,,,,,,,,,,,,e,1,0.6311,0,72,72,14,1,乐观,e,,,,,,,,,,,,,,,,,,,,,,,,,,,,,,,,,,,,,,,,,
,,,,,,,,,,,,,,1,001,2024-08-25_15h00.14.666,IAT(Formal),2021.2.3,Win32,59.88023952,,,,,,,,,,,,,,,e,1,0.5945,0,73,73,20,1,认真,e,,,,,,,,,,,,,,,,,,,,,,,,,,,,,,,,,,,,,,,,,
,,,,,,,,,,,,,,1,001,2024-08-25_15h00.14.666,IAT(Formal),2021.2.3,Win32,59.88023952,,,,,,,,,,,,,,,i,1,0.6262,0,74,74,44,1,暴躁,i,,,,,,,,,,,,,,,,,,,,,,,,,,,,,,,,,,,,,,,,,
,,,,,,,,,,,,,,1,001,2024-08-25_15h00.14.666,IAT(Formal),2021.2.3,Win32,59.88023952,,,,,,,,,,,,,,,e,1,0.519,0,75,75,70,1,我,e,,,,,,,,,,,,,,,,,,,,,,,,,,,,,,,,,,,,,,,,,
,,,,,,,,,,,,,,1,001,2024-08-25_15h00.14.666,IAT(Formal),2021.2.3,Win32,59.88023952,,,,,,,,,,,,,,,e,1,0.5967,0,76,76,51,1,我的,e,,,,,,,,,,,,,,,,,,,,,,,,,,,,,,,,,,,,,,,,,
,,,,,,,,,,,,,,1,001,2024-08-25_15h00.14.666,IAT(Formal),2021.2.3,Win32,59.88023952,,,,,,,,,,,,,,,e,1,0.6235,0,77,77,52,1,我们,e,,,,,,,,,,,,,,,,,,,,,,,,,,,,,,,,,,,,,,,,,
,,,,,,,,,,,,,,1,001,2024-08-25_15h00.14.666,IAT(Formal),2021.2.3,Win32,59.88023952,,,,,,,,,,,,,,,i,1,0.6291,0,78,78,76,1,他们,i,,,,,,,,,,,,,,,,,,,,,,,,,,,,,,,,,,,,,,,,,
,,,,,,,,,,,,,,1,001,2024-08-25_15h00.14.666,IAT(Formal),2021.2.3,Win32,59.88023952,,,,,,,,,,,,,,,e,1,0.5501,0,79,79,1,1,我的,e,,,,,,,,,,,,,,,,,,,,,,,,,,,,,,,,,,,,,,,,,
,,,,,,,,,,,,,,1,001,2024-08-25_15h00.14.666,IAT(Formal),2021.2.3,Win32,59.88023952,,,,,,,,,,,,,,,i,1,0.6673,,,,,,他们,i,space,8.2216,0,0,0,56,1,,,,,,,,,,,,,,,,,,,,,,,,,,,,,,,,,,
,,,,,,,,,,,,,,1,001,2024-08-25_15h00.14.666,IAT(Formal),2021.2.3,Win32,59.88023952,,,,,,,,,,,,,,,i,1,0.4503,,,,,,他人,i,,,0,1,1,78,1,,,,,,,,,,,,,,,,,,,,,,,,,,,,,,,,,,
,,,,,,,,,,,,,,1,001,2024-08-25_15h00.14.666,IAT(Formal),2021.2.3,Win32,59.88023952,,,,,,,,,,,,,,,e,1,0.4248,,,,,,我的,e,,,0,2,2,1,1,,,,,,,,,,,,,,,,,,,,,,,,,,,,,,,,,,
,,,,,,,,,,,,,,1,001,2024-08-25_15h00.14.666,IAT(Formal),2021.2.3,Win32,59.88023952,,,,,,,,,,,,,,,i,1,0.5851,,,,,,他人,i,,,0,3,3,58,1,,,,,,,,,,,,,,,,,,,,,,,,,,,,,,,,,,
,,,,,,,,,,,,,,1,001,2024-08-25_15h00.14.666,IAT(Formal),2021.2.3,Win32,59.88023952,,,,,,,,,,,,,,,i,1,0.575,,,,,,执拗,i,,,0,4,4,40,1,,,,,,,,,,,,,,,,,,,,,,,,,,,,,,,,,,
,,,,,,,,,,,,,,1,001,2024-08-25_15h00.14.666,IAT(Formal),2021.2.3,Win32,59.88023952,,,,,,,,,,,,,,,e,1,0.5509,,,,,,诚恳,e,,,0,5,5,29,1,,,,,,,,,,,,,,,,,,,,,,,,,,,,,,,,,,
,,,,,,,,,,,,,,1,001,2024-08-25_15h00.14.666,IAT(Formal),2021.2.3,Win32,59.88023952,,,,,,,,,,,,,,,i,1,0.5073,,,,,,他们,i,,,0,6,6,66,1,,,,,,,,,,,,,,,,,,,,,,,,,,,,,,,,,,
,,,,,,,,,,,,,,1,001,2024-08-25_15h00.14.666,IAT(Formal),2021.2.3,Win32,59.88023952,,,,,,,,,,,,,,,i,1,0.4689,,,,,,他人,i,,,0,7,7,68,1,,,,,,,,,,,,,,,,,,,,,,,,,,,,,,,,,,
,,,,,,,,,,,,,,1,001,2024-08-25_15h00.14.666,IAT(Formal),2021.2.3,Win32,59.88023952,,,,,,,,,,,,,,,e,1,0.5196,,,,,,我,e,,,0,8,8,0,1,,,,,,,,,,,,,,,,,,,,,,,,,,,,,,,,,,
,,,,,,,,,,,,,,1,001,2024-08-25_15h00.14.666,IAT(Formal),2021.2.3,Win32,59.88023952,,,,,,,,,,,,,,,i,1,0.7535,,,,,,自私,i,,,0,9,9,43,1,,,,,,,,,,,,,,,,,,,,,,,,,,,,,,,,,,
,,,,,,,,,,,,,,1,001,2024-08-25_15h00.14.666,IAT(Formal),2021.2.3,Win32,59.88023952,,,,,,,,,,,,,,,i,1,0.5785,,,,,,其他,i,,,0,10,10,69,1,,,,,,,,,,,,,,,,,,,,,,,,,,,,,,,,,,
,,,,,,,,,,,,,,1,001,2024-08-25_15h00.14.666,IAT(Formal),2021.2.3,Win32,59.88023952,,,,,,,,,,,,,,,e,0,0.6904,,,,,,自卑,i,,,0,11,11,36,1,,,,,,,,,,,,,,,,,,,,,,,,,,,,,,,,,,
,,,,,,,,,,,,,,1,001,2024-08-25_15h00.14.666,IAT(Formal),2021.2.3,Win32,59.88023952,,,,,,,,,,,,,,,e,1,0.5335,,,,,,我,e,,,0,12,12,60,1,,,,,,,,,,,,,,,,,,,,,,,,,,,,,,,,,,
,,,,,,,,,,,,,,1,001,2024-08-25_15h00.14.666,IAT(Formal),2021.2.3,Win32,59.88023952,,,,,,,,,,,,,,,i,1,0.6954,,,,,,卑鄙,i,,,0,13,13,30,1,,,,,,,,,,,,,,,,,,,,,,,,,,,,,,,,,,
,,,,,,,,,,,,,,1,001,2024-08-25_15h00.14.666,IAT(Formal),2021.2.3,Win32,59.88023952,,,,,,,,,,,,,,,i,1,0.5628,,,,,,愚蠢,i,,,0,14,14,32,1,,,,,,,,,,,,,,,,,,,,,,,,,,,,,,,,,,
,,,,,,,,,,,,,,1,001,2024-08-25_15h00.14.666,IAT(Formal),2021.2.3,Win32,59.88023952,,,,,,,,,,,,,,,,0,,,,,,,他的,i,,,0,15,15,67,1,,,,,,,,,,,,,,,,,,,,,,,,,,,,,,,,,,
,,,,,,,,,,,,,,1,001,2024-08-25_15h00.14.666,IAT(Formal),2021.2.3,Win32,59.88023952,,,,,,,,,,,,,,,i,1,0.5173,,,,,,他,i,,,0,16,16,65,1,,,,,,,,,,,,,,,,,,,,,,,,,,,,,,,,,,
,,,,,,,,,,,,,,1,001,2024-08-25_15h00.14.666,IAT(Formal),2021.2.3,Win32,59.88023952,,,,,,,,,,,,,,,e,1,0.8084,,,,,,冷静,e,,,0,17,17,26,1,,,,,,,,,,,,,,,,,,,,,,,,,,,,,,,,,,
,,,,,,,,,,,,,,1,001,2024-08-25_15h00.14.666,IAT(Formal),2021.2.3,Win32,59.88023952,,,,,,,,,,,,,,,i,1,0.657,,,,,,他的,i,,,0,18,18,77,1,,,,,,,,,,,,,,,,,,,,,,,,,,,,,,,,,,
,,,,,,,,,,,,,,1,001,2024-08-25_15h00.14.666,IAT(Formal),2021.2.3,Win32,59.88023952,,,,,,,,,,,,,,,e,1,0.49,,,,,,俺,e,,,0,19,19,54,1,,,,,,,,,,,,,,,,,,,,,,,,,,,,,,,,,,
,,,,,,,,,,,,,,1,001,2024-08-25_15h00.14.666,IAT(Formal),2021.2.3,Win32,59.88023952,,,,,,,,,,,,,,,i,1,0.5994,,,,,,其他,i,,,0,20,20,79,1,,,,,,,,,,,,,,,,,,,,,,,,,,,,,,,,,,
,,,,,,,,,,,,,,1,001,2024-08-25_15h00.14.666,IAT(Formal),2021.2.3,Win32,59.88023952,,,,,,,,,,,,,,,i,1,0.6344,,,,,,他们,i,,,0,21,21,76,1,,,,,,,,,,,,,,,,,,,,,,,,,,,,,,,,,,
,,,,,,,,,,,,,,1,001,2024-08-25_15h00.14.666,IAT(Formal),2021.2.3,Win32,59.88023952,,,,,,,,,,,,,,,i,1,0.5172,,,,,,他们,i,,,0,22,22,6,1,,,,,,,,,,,,,,,,,,,,,,,,,,,,,,,,,,
,,,,,,,,,,,,,,1,001,2024-08-25_15h00.14.666,IAT(Formal),2021.2.3,Win32,59.88023952,,,,,,,,,,,,,,,e,1,0.4466,,,,,,我的,e,,,0,23,23,71,1,,,,,,,,,,,,,,,,,,,,,,,,,,,,,,,,,,
,,,,,,,,,,,,,,1,001,2024-08-25_15h00.14.666,IAT(Formal),2021.2.3,Win32,59.88023952,,,,,,,,,,,,,,,e,1,0.5673,,,,,,我们,e,,,0,24,24,2,1,,,,,,,,,,,,,,,,,,,,,,,,,,,,,,,,,,
,,,,,,,,,,,,,,1,001,2024-08-25_15h00.14.666,IAT(Formal),2021.2.3,Win32,59.88023952,,,,,,,,,,,,,,,i,1,0.5768,,,,,,凶狠,i,,,0,25,25,42,1,,,,,,,,,,,,,,,,,,,,,,,,,,,,,,,,,,
,,,,,,,,,,,,,,1,001,2024-08-25_15h00.14.666,IAT(Formal),2021.2.3,Win32,59.88023952,,,,,,,,,,,,,,,e,1,0.554,,,,,,自己,e,,,0,26,26,63,1,,,,,,,,,,,,,,,,,,,,,,,,,,,,,,,,,,
,,,,,,,,,,,,,,1,001,2024-08-25_15h00.14.666,IAT(Formal),2021.2.3,Win32,59.88023952,,,,,,,,,,,,,,,i,1,0.5357,,,,,,下贱,i,,,0,27,27,49,1,,,,,,,,,,,,,,,,,,,,,,,,,,,,,,,,,,
,,,,,,,,,,,,,,1,001,2024-08-25_15h00.14.666,IAT(Formal),2021.2.3,Win32,59.88023952,,,,,,,,,,,,,,,i,1,0.6861,,,,,,他,i,,,0,28,28,5,1,,,,,,,,,,,,,,,,,,,,,,,,,,,,,,,,,,
,,,,,,,,,,,,,,1,001,2024-08-25_15h00.14.666,IAT(Formal),2021.2.3,Win32,59.88023952,,,,,,,,,,,,,,,e,1,0.5176,,,,,,自己,e,,,0,29,29,73,1,,,,,,,,,,,,,,,,,,,,,,,,,,,,,,,,,,
,,,,,,,,,,,,,,1,001,2024-08-25_15h00.14.666,IAT(Formal),2021.2.3,Win32,59.88023952,,,,,,,,,,,,,,,e,1,1.1276,,,,,,我们,e,,,0,30,30,72,1,,,,,,,,,,,,,,,,,,,,,,,,,,,,,,,,,,
,,,,,,,,,,,,,,1,001,2024-08-25_15h00.14.666,IAT(Formal),2021.2.3,Win32,59.88023952,,,,,,,,,,,,,,,e,1,0.6288,,,,,,活泼,e,,,0,31,31,28,1,,,,,,,,,,,,,,,,,,,,,,,,,,,,,,,,,,
,,,,,,,,,,,,,,1,001,2024-08-25_15h00.14.666,IAT(Formal),2021.2.3,Win32,59.88023952,,,,,,,,,,,,,,,i,1,0.568,,,,,,他,i,,,0,32,32,75,1,,,,,,,,,,,,,,,,,,,,,,,,,,,,,,,,,,
,,,,,,,,,,,,,,1,001,2024-08-25_15h00.14.666,IAT(Formal),2021.2.3,Win32,59.88023952,,,,,,,,,,,,,,,e,1,0.438,,,,,,我的,e,,,0,33,33,51,1,,,,,,,,,,,,,,,,,,,,,,,,,,,,,,,,,,
,,,,,,,,,,,,,,1,001,2024-08-25_15h00.14.666,IAT(Formal),2021.2.3,Win32,59.88023952,,,,,,,,,,,,,,,i,1,0.5888,,,,,,他,i,,,0,34,34,55,1,,,,,,,,,,,,,,,,,,,,,,,,,,,,,,,,,,
,,,,,,,,,,,,,,1,001,2024-08-25_15h00.14.666,IAT(Formal),2021.2.3,Win32,59.88023952,,,,,,,,,,,,,,,e,1,0.6003,,,,,,优秀,e,,,0,35,35,10,1,,,,,,,,,,,,,,,,,,,,,,,,,,,,,,,,,,
,,,,,,,,,,,,,,1,001,2024-08-25_15h00.14.666,IAT(Formal),2021.2.3,Win32,59.88023952,,,,,,,,,,,,,,,e,1,0.5883,,,,,,正直,e,,,0,36,36,16,1,,,,,,,,,,,,,,,,,,,,,,,,,,,,,,,,,,
,,,,,,,,,,,,,,1,001,2024-08-25_15h00.14.666,IAT(Formal),2021.2.3,Win32,59.88023952,,,,,,,,,,,,,,,e,1,0.4862,,,,,,乐观,e,,,0,37,37,14,1,,,,,,,,,,,,,,,,,,,,,,,,,,,,,,,,,,
,,,,,,,,,,,,,,1,001,2024-08-25_15h00.14.666,IAT(Formal),2021.2.3,Win32,59.88023952,,,,,,,,,,,,,,,e,1,0.534,,,,,,认真,e,,,0,38,38,20,1,,,,,,,,,,,,,,,,,,,,,,,,,,,,,,,,,,
,,,,,,,,,,,,,,1,001,2024-08-25_15h00.14.666,IAT(Formal),2021.2.3,Win32,59.88023952,,,,,,,,,,,,,,,i,0,0.6069,,,,,,无私,e,,,0,39,39,22,1,,,,,,,,,,,,,,,,,,,,,,,,,,,,,,,,,,
,,,,,,,,,,,,,,1,001,2024-08-25_15h00.14.666,IAT(Formal),2021.2.3,Win32,59.88023952,,,,,,,,,,,,,,,i,1,0.5233,,,,,,野蛮,i,,,0,40,40,46,1,,,,,,,,,,,,,,,,,,,,,,,,,,,,,,,,,,
,,,,,,,,,,,,,,1,001,2024-08-25_15h00.14.666,IAT(Formal),2021.2.3,Win32,59.88023952,,,,,,,,,,,,,,,e,1,0.5452,,,,,,公正,e,,,0,41,41,23,1,,,,,,,,,,,,,,,,,,,,,,,,,,,,,,,,,,
,,,,,,,,,,,,,,1,001,2024-08-25_15h00.14.666,IAT(Formal),2021.2.3,Win32,59.88023952,,,,,,,,,,,,,,,e,1,0.5793,,,,,,机智,e,,,0,42,42,19,1,,,,,,,,,,,,,,,,,,,,,,,,,,,,,,,,,,
,,,,,,,,,,,,,,1,001,2024-08-25_15h00.14.666,IAT(Formal),2021.2.3,Win32,59.88023952,,,,,,,,,,,,,,,e,1,0.5239,,,,,,自己,e,,,0,43,43,3,1,,,,,,,,,,,,,,,,,,,,,,,,,,,,,,,,,,
,,,,,,,,,,,,,,1,001,2024-08-25_15h00.14.666,IAT(Formal),2021.2.3,Win32,59.88023952,,,,,,,,,,,,,,,i,1,0.6501,,,,,,其他,i,,,0,44,44,59,1,,,,,,,,,,,,,,,,,,,,,,,,,,,,,,,,,,
,,,,,,,,,,,,,,1,001,2024-08-25_15h00.14.666,IAT(Formal),2021.2.3,Win32,59.88023952,,,,,,,,,,,,,,,i,1,1.0175,,,,,,消极,i,,,0,45,45,35,1,,,,,,,,,,,,,,,,,,,,,,,,,,,,,,,,,,
,,,,,,,,,,,,,,1,001,2024-08-25_15h00.14.666,IAT(Formal),2021.2.3,Win32,59.88023952,,,,,,,,,,,,,,,i,1,0.589,,,,,,鲁莽,i,,,0,46,46,38,1,,,,,,,,,,,,,,,,,,,,,,,,,,,,,,,,,,
,,,,,,,,,,,,,,1,001,2024-08-25_15h00.14.666,IAT(Formal),2021.2.3,Win32,59.88023952,,,,,,,,,,,,,,,i,1,0.741,,,,,,散漫,i,,,0,47,47,41,1,,,,,,,,,,,,,,,,,,,,,,,,,,,,,,,,,,
,,,,,,,,,,,,,,1,001,2024-08-25_15h00.14.666,IAT(Formal),2021.2.3,Win32,59.88023952,,,,,,,,,,,,,,,e,1,0.4715,,,,,,我,e,,,0,48,48,50,1,,,,,,,,,,,,,,,,,,,,,,,,,,,,,,,,,,
,,,,,,,,,,,,,,1,001,2024-08-25_15h00.14.666,IAT(Formal),2021.2.3,Win32,59.88023952,,,,,,,,,,,,,,,i,1,0.8872,,,,,,悲观,i,,,0,49,49,34,1,,,,,,,,,,,,,,,,,,,,,,,,,,,,,,,,,,
,,,,,,,,,,,,,,1,001,2024-08-25_15h00.14.666,IAT(Formal),2021.2.3,Win32,59.88023952,,,,,,,,,,,,,,,e,1,0.5369,,,,,,俺,e,,,0,50,50,74,1,,,,,,,,,,,,,,,,,,,,,,,,,,,,,,,,,,
,,,,,,,,,,,,,,1,001,2024-08-25_15h00.14.666,IAT(Formal),2021.2.3,Win32,59.88023952,,,,,,,,,,,,,,,e,1,0.6175,,,,,,勤奋,e,,,0,51,51,18,1,,,,,,,,,,,,,,,,,,,,,,,,,,,,,,,,,,
,,,,,,,,,,,,,,1,001,2024-08-25_15h00.14.666,IAT(Formal),2021.2.3,Win32,59.88023952,,,,,,,,,,,,,,,i,1,0.4877,,,,,,猖狂,i,,,0,52,52,45,1,,,,,,,,,,,,,,,,,,,,,,,,,,,,,,,,,,
,,,,,,,,,,,,,,1,001,2024-08-25_15h00.14.666,IAT(Formal),2021.2.3,Win32,59.88023952,,,,,,,,,,,,,,,e,1,0.4006,,,,,,俺,e,,,0,53,53,64,1,,,,,,,,,,,,,,,,,,,,,,,,,,,,,,,,,,
,,,,,,,,,,,,,,1,001,2024-08-25_15h00.14.666,IAT(Formal),2021.2.3,Win32,59.88023952,,,,,,,,,,,,,,,e,1,0.5022,,,,,,俺,e,,,0,54,54,4,1,,,,,,,,,,,,,,,,,,,,,,,,,,,,,,,,,,
,,,,,,,,,,,,,,1,001,2024-08-25_15h00.14.666,IAT(Formal),2021.2.3,Win32,59.88023952,,,,,,,,,,,,,,,e,1,0.5294,,,,,,热情,e,,,0,55,55,27,1,,,,,,,,,,,,,,,,,,,,,,,,,,,,,,,,,,
,,,,,,,,,,,,,,1,001,2024-08-25_15h00.14.666,IAT(Formal),2021.2.3,Win32,59.88023952,,,,,,,,,,,,,,,i,1,0.6365,,,,,,他的,i,,,0,56,56,57,1,,,,,,,,,,,,,,,,,,,,,,,,,,,,,,,,,,
,,,,,,,,,,,,,,1,001,2024-08-25_15h00.14.666,IAT(Formal),2021.2.3,Win32,59.88023952,,,,,,,,,,,,,,,e,1,0.556,,,,,,杰出,e,,,0,57,57,13,1,,,,,,,,,,,,,,,,,,,,,,,,,,,,,,,,,,
,,,,,,,,,,,,,,1,001,2024-08-25_15h00.14.666,IAT(Formal),2021.2.3,Win32,59.88023952,,,,,,,,,,,,,,,e,1,0.6085,,,,,,自己,e,,,0,58,58,53,1,,,,,,,,,,,,,,,,,,,,,,,,,,,,,,,,,,
,,,,,,,,,,,,,,1,001,2024-08-25_15h00.14.666,IAT(Formal),2021.2.3,Win32,59.88023952,,,,,,,,,,,,,,,e,1,0.7129,,,,,,稳重,e,,,0,59,59,21,1,,,,,,,,,,,,,,,,,,,,,,,,,,,,,,,,,,
,,,,,,,,,,,,,,1,001,2024-08-25_15h00.14.666,IAT(Formal),2021.2.3,Win32,59.88023952,,,,,,,,,,,,,,,i,1,0.6331,,,,,,虚伪,i,,,0,60,60,31,1,,,,,,,,,,,,,,,,,,,,,,,,,,,,,,,,,,
,,,,,,,,,,,,,,1,001,2024-08-25_15h00.14.666,IAT(Formal),2021.2.3,Win32,59.88023952,,,,,,,,,,,,,,,e,1,0.6166,,,,,,诚实,e,,,0,61,61,15,1,,,,,,,,,,,,,,,,,,,,,,,,,,,,,,,,,,
,,,,,,,,,,,,,,1,001,2024-08-25_15h00.14.666,IAT(Formal),2021.2.3,Win32,59.88023952,,,,,,,,,,,,,,,i,1,0.9188,,,,,,轻率,i,,,0,62,62,48,1,,,,,,,,,,,,,,,,,,,,,,,,,,,,,,,,,,
,,,,,,,,,,,,,,1,001,2024-08-25_15h00.14.666,IAT(Formal),2021.2.3,Win32,59.88023952,,,,,,,,,,,,,,,e,1,0.5424,,,,,,勇敢,e,,,0,63,63,17,1,,,,,,,,,,,,,,,,,,,,,,,,,,,,,,,,,,
,,,,,,,,,,,,,,1,001,2024-08-25_15h00.14.666,IAT(Formal),2021.2.3,Win32,59.88023952,,,,,,,,,,,,,,,e,1,0.4833,,,,,,我的,e,,,0,64,64,61,1,,,,,,,,,,,,,,,,,,,,,,,,,,,,,,,,,,
,,,,,,,,,,,,,,1,001,2024-08-25_15h00.14.666,IAT(Formal),2021.2.3,Win32,59.88023952,,,,,,,,,,,,,,,i,1,0.6351,,,,,,他的,i,,,0,65,65,7,1,,,,,,,,,,,,,,,,,,,,,,,,,,,,,,,,,,
,,,,,,,,,,,,,,1,001,2024-08-25_15h00.14.666,IAT(Formal),2021.2.3,Win32,59.88023952,,,,,,,,,,,,,,,i,1,0.593,,,,,,他人,i,,,0,66,66,8,1,,,,,,,,,,,,,,,,,,,,,,,,,,,,,,,,,,
,,,,,,,,,,,,,,1,001,2024-08-25_15h00.14.666,IAT(Formal),2021.2.3,Win32,59.88023952,,,,,,,,,,,,,,,e,1,0.5383,,,,,,我们,e,,,0,67,67,52,1,,,,,,,,,,,,,,,,,,,,,,,,,,,,,,,,,,
,,,,,,,,,,,,,,1,001,2024-08-25_15h00.14.666,IAT(Formal),2021.2.3,Win32,59.88023952,,,,,,,,,,,,,,,i,1,0.8098,,,,,,固执,i,,,0,68,68,47,1,,,,,,,,,,,,,,,,,,,,,,,,,,,,,,,,,,
,,,,,,,,,,,,,,1,001,2024-08-25_15h00.14.666,IAT(Formal),2021.2.3,Win32,59.88023952,,,,,,,,,,,,,,,e,1,0.4707,,,,,,聪明,e,,,0,69,69,12,1,,,,,,,,,,,,,,,,,,,,,,,,,,,,,,,,,,
,,,,,,,,,,,,,,1,001,2024-08-25_15h00.14.666,IAT(Formal),2021.2.3,Win32,59.88023952,,,,,,,,,,,,,,,e,1,0.5433,,,,,,崇高,e,,,0,70,70,11,1,,,,,,,,,,,,,,,,,,,,,,,,,,,,,,,,,,
,,,,,,,,,,,,,,1,001,2024-08-25_15h00.14.666,IAT(Formal),2021.2.3,Win32,59.88023952,,,,,,,,,,,,,,,i,1,0.6122,,,,,,暴躁,i,,,0,71,71,44,1,,,,,,,,,,,,,,,,,,,,,,,,,,,,,,,,,,
,,,,,,,,,,,,,,1,001,2024-08-25_15h00.14.666,IAT(Formal),2021.2.3,Win32,59.88023952,,,,,,,,,,,,,,,i,1,0.5671,,,,,,刻薄,i,,,0,72,72,33,1,,,,,,,,,,,,,,,,,,,,,,,,,,,,,,,,,,
,,,,,,,,,,,,,,1,001,2024-08-25_15h00.14.666,IAT(Formal),2021.2.3,Win32,59.88023952,,,,,,,,,,,,,,,e,1,0.5185,,,,,,我们,e,,,0,73,73,62,1,,,,,,,,,,,,,,,,,,,,,,,,,,,,,,,,,,
,,,,,,,,,,,,,,1,001,2024-08-25_15h00.14.666,IAT(Formal),2021.2.3,Win32,59.88023952,,,,,,,,,,,,,,,e,1,0.5042,,,,,,我,e,,,0,74,74,70,1,,,,,,,,,,,,,,,,,,,,,,,,,,,,,,,,,,
,,,,,,,,,,,,,,1,001,2024-08-25_15h00.14.666,IAT(Formal),2021.2.3,Win32,59.88023952,,,,,,,,,,,,,,,e,1,0.6446,,,,,,朴实,e,,,0,75,75,24,1,,,,,,,,,,,,,,,,,,,,,,,,,,,,,,,,,,
,,,,,,,,,,,,,,1,001,2024-08-25_15h00.14.666,IAT(Formal),2021.2.3,Win32,59.88023952,,,,,,,,,,,,,,,i,1,0.4868,,,,,,冒失,i,,,0,76,76,39,1,,,,,,,,,,,,,,,,,,,,,,,,,,,,,,,,,,
,,,,,,,,,,,,,,1,001,2024-08-25_15h00.14.666,IAT(Formal),2021.2.3,Win32,59.88023952,,,,,,,,,,,,,,,i,1,0.8045,,,,,,傲慢,i,,,0,77,77,37,1,,,,,,,,,,,,,,,,,,,,,,,,,,,,,,,,,,
,,,,,,,,,,,,,,1,001,2024-08-25_15h00.14.666,IAT(Formal),2021.2.3,Win32,59.88023952,,,,,,,,,,,,,,,e,1,0.5843,,,,,,细腻,e,,,0,78,78,25,1,,,,,,,,,,,,,,,,,,,,,,,,,,,,,,,,,,
,,,,,,,,,,,,,,1,001,2024-08-25_15h00.14.666,IAT(Formal),2021.2.3,Win32,59.88023952,,,,,,,,,,,,,,,i,1,0.5248,,,,,,其他,i,,,0,79,79,9,1,,,,,,,,,,,,,,,,,,,,,,,,,,,,,,,,,,
,,,,,,,,,,,,,,1,001,2024-08-25_15h00.14.666,IAT(Formal),2021.2.3,Win32,59.88023952,,,,,,,,,,,,,,,e,1,0.5663,,,,,,聪明,e,,,1,0,80,12,1,,,,,,,,,,,,,,,,,,,,,,,,,,,,,,,,,,
,,,,,,,,,,,,,,1,001,2024-08-25_15h00.14.666,IAT(Formal),2021.2.3,Win32,59.88023952,,,,,,,,,,,,,,,i,1,0.5564,,,,,,他的,i,,,1,1,81,67,1,,,,,,,,,,,,,,,,,,,,,,,,,,,,,,,,,,
,,,,,,,,,,,,,,1,001,2024-08-25_15h00.14.666,IAT(Formal),2021.2.3,Win32,59.88023952,,,,,,,,,,,,,,,i,1,0.5976,,,,,,其他,i,,,1,2,82,59,1,,,,,,,,,,,,,,,,,,,,,,,,,,,,,,,,,,
,,,,,,,,,,,,,,1,001,2024-08-25_15h00.14.666,IAT(Formal),2021.2.3,Win32,59.88023952,,,,,,,,,,,,,,,i,1,0.574,,,,,,虚伪,i,,,1,3,83,31,1,,,,,,,,,,,,,,,,,,,,,,,,,,,,,,,,,,
,,,,,,,,,,,,,,1,001,2024-08-25_15h00.14.666,IAT(Formal),2021.2.3,Win32,59.88023952,,,,,,,,,,,,,,,i,1,0.5623,,,,,,鲁莽,i,,,1,4,84,38,1,,,,,,,,,,,,,,,,,,,,,,,,,,,,,,,,,,
,,,,,,,,,,,,,,1,001,2024-08-25_15h00.14.666,IAT(Formal),2021.2.3,Win32,59.88023952,,,,,,,,,,,,,,,i,1,0.5963,,,,,,其他,i,,,1,5,85,69,1,,,,,,,,,,,,,,,,,,,,,,,,,,,,,,,,,,
,,,,,,,,,,,,,,1,001,2024-08-25_15h00.14.666,IAT(Formal),2021.2.3,Win32,59.88023952,,,,,,,,,,,,,,,i,1,0.5864,,,,,,消极,i,,,1,6,86,35,1,,,,,,,,,,,,,,,,,,,,,,,,,,,,,,,,,,
,,,,,,,,,,,,,,1,001,2024-08-25_15h00.14.666,IAT(Formal),2021.2.3,Win32,59.88023952,,,,,,,,,,,,,,,e,1,0.4612,,,,,,我们,e,,,1,7,87,52,1,,,,,,,,,,,,,,,,,,,,,,,,,,,,,,,,,,
,,,,,,,,,,,,,,1,001,2024-08-25_15h00.14.666,IAT(Formal),2021.2.3,Win32,59.88023952,,,,,,,,,,,,,,,e,1,0.6498,,,,,,我们,e,,,1,8,88,62,1,,,,,,,,,,,,,,,,,,,,,,,,,,,,,,,,,,
,,,,,,,,,,,,,,1,001,2024-08-25_15h00.14.666,IAT(Formal),2021.2.3,Win32,59.88023952,,,,,,,,,,,,,,,i,1,0.5087,,,,,,他人,i,,,1,9,89,58,1,,,,,,,,,,,,,,,,,,,,,,,,,,,,,,,,,,
,,,,,,,,,,,,,,1,001,2024-08-25_15h00.14.666,IAT(Formal),2021.2.3,Win32,59.88023952,,,,,,,,,,,,,,,e,1,0.4408,,,,,,俺,e,,,1,10,90,4,1,,,,,,,,,,,,,,,,,,,,,,,,,,,,,,,,,,
,,,,,,,,,,,,,,1,001,2024-08-25_15h00.14.666,IAT(Formal),2021.2.3,Win32,59.88023952,,,,,,,,,,,,,,,e,1,0.455,,,,,,诚恳,e,,,1,11,91,29,1,,,,,,,,,,,,,,,,,,,,,,,,,,,,,,,,,,
,,,,,,,,,,,,,,1,001,2024-08-25_15h00.14.666,IAT(Formal),2021.2.3,Win32,59.88023952,,,,,,,,,,,,,,,e,1,0.4847,,,,,,我的,e,,,1,12,92,61,1,,,,,,,,,,,,,,,,,,,,,,,,,,,,,,,,,,
,,,,,,,,,,,,,,1,001,2024-08-25_15h00.14.666,IAT(Formal),2021.2.3,Win32,59.88023952,,,,,,,,,,,,,,,e,1,0.5553,,,,,,我,e,,,1,13,93,60,1,,,,,,,,,,,,,,,,,,,,,,,,,,,,,,,,,,
,,,,,,,,,,,,,,1,001,2024-08-25_15h00.14.666,IAT(Formal),2021.2.3,Win32,59.88023952,,,,,,,,,,,,,,,i,1,0.5416,,,,,,他的,i,,,1,14,94,7,1,,,,,,,,,,,,,,,,,,,,,,,,,,,,,,,,,,
,,,,,,,,,,,,,,1,001,2024-08-25_15h00.14.666,IAT(Formal),2021.2.3,Win32,59.88023952,,,,,,,,,,,,,,,i,1,0.5341,,,,,,野蛮,i,,,1,15,95,46,1,,,,,,,,,,,,,,,,,,,,,,,,,,,,,,,,,,
,,,,,,,,,,,,,,1,001,2024-08-25_15h00.14.666,IAT(Formal),2021.2.3,Win32,59.88023952,,,,,,,,,,,,,,,i,1,0.5169,,,,,,傲慢,i,,,1,16,96,37,1,,,,,,,,,,,,,,,,,,,,,,,,,,,,,,,,,,
,,,,,,,,,,,,,,1,001,2024-08-25_15h00.14.666,IAT(Formal),2021.2.3,Win32,59.88023952,,,,,,,,,,,,,,,i,1,0.4967,,,,,,他,i,,,1,17,97,75,1,,,,,,,,,,,,,,,,,,,,,,,,,,,,,,,,,,
,,,,,,,,,,,,,,1,001,2024-08-25_15h00.14.666,IAT(Formal),2021.2.3,Win32,59.88023952,,,,,,,,,,,,,,,i,1,0.5092,,,,,,其他,i,,,1,18,98,79,1,,,,,,,,,,,,,,,,,,,,,,,,,,,,,,,,,,
,,,,,,,,,,,,,,1,001,2024-08-25_15h00.14.666,IAT(Formal),2021.2.3,Win32,59.88023952,,,,,,,,,,,,,,,i,1,0.639,,,,,,轻率,i,,,1,19,99,48,1,,,,,,,,,,,,,,,,,,,,,,,,,,,,,,,,,,
,,,,,,,,,,,,,,1,001,2024-08-25_15h00.14.666,IAT(Formal),2021.2.3,Win32,59.88023952,,,,,,,,,,,,,,,e,1,0.5791,,,,,,自己,e,,,1,20,100,53,1,,,,,,,,,,,,,,,,,,,,,,,,,,,,,,,,,,
,,,,,,,,,,,,,,1,001,2024-08-25_15h00.14.666,IAT(Formal),2021.2.3,Win32,59.88023952,,,,,,,,,,,,,,,e,1,0.6763,,,,,,自己,e,,,1,21,101,3,1,,,,,,,,,,,,,,,,,,,,,,,,,,,,,,,,,,
,,,,,,,,,,,,,,1,001,2024-08-25_15h00.14.666,IAT(Formal),2021.2.3,Win32,59.88023952,,,,,,,,,,,,,,,e,1,0.4888,,,,,,我的,e,,,1,22,102,1,1,,,,,,,,,,,,,,,,,,,,,,,,,,,,,,,,,,
,,,,,,,,,,,,,,1,001,2024-08-25_15h00.14.666,IAT(Formal),2021.2.3,Win32,59.88023952,,,,,,,,,,,,,,,i,1,0.5088,,,,,,猖狂,i,,,1,23,103,45,1,,,,,,,,,,,,,,,,,,,,,,,,,,,,,,,,,,
,,,,,,,,,,,,,,1,001,2024-08-25_15h00.14.666,IAT(Formal),2021.2.3,Win32,59.88023952,,,,,,,,,,,,,,,i,1,0.5334,,,,,,他,i,,,1,24,104,65,1,,,,,,,,,,,,,,,,,,,,,,,,,,,,,,,,,,
,,,,,,,,,,,,,,1,001,2024-08-25_15h00.14.666,IAT(Formal),2021.2.3,Win32,59.88023952,,,,,,,,,,,,,,,e,1,0.5671,,,,,,公正,e,,,1,25,105,23,1,,,,,,,,,,,,,,,,,,,,,,,,,,,,,,,,,,
,,,,,,,,,,,,,,1,001,2024-08-25_15h00.14.666,IAT(Formal),2021.2.3,Win32,59.88023952,,,,,,,,,,,,,,,i,1,0.5283,,,,,,他人,i,,,1,26,106,8,1,,,,,,,,,,,,,,,,,,,,,,,,,,,,,,,,,,
,,,,,,,,,,,,,,1,001,2024-08-25_15h00.14.666,IAT(Formal),2021.2.3,Win32,59.88023952,,,,,,,,,,,,,,,e,1,0.5432,,,,,,乐观,e,,,1,27,107,14,1,,,,,,,,,,,,,,,,,,,,,,,,,,,,,,,,,,
,,,,,,,,,,,,,,1,001,2024-08-25_15h00.14.666,IAT(Formal),2021.2.3,Win32,59.88023952,,,,,,,,,,,,,,,e,1,0.5032,,,,,,勇敢,e,,,1,28,108,17,1,,,,,,,,,,,,,,,,,,,,,,,,,,,,,,,,,,
,,,,,,,,,,,,,,1,001,2024-08-25_15h00.14.666,IAT(Formal),2021.2.3,Win32,59.88023952,,,,,,,,,,,,,,,i,1,0.4903,,,,,,他,i,,,1,29,109,5,1,,,,,,,,,,,,,,,,,,,,,,,,,,,,,,,,,,
,,,,,,,,,,,,,,1,001,2024-08-25_15h00.14.666,IAT(Formal),2021.2.3,Win32,59.88023952,,,,,,,,,,,,,,,e,1,0.6834,,,,,,正直,e,,,1,30,110,16,1,,,,,,,,,,,,,,,,,,,,,,,,,,,,,,,,,,
,,,,,,,,,,,,,,1,001,2024-08-25_15h00.14.666,IAT(Formal),2021.2.3,Win32,59.88023952,,,,,,,,,,,,,,,e,1,0.5209,,,,,,我,e,,,1,31,111,70,1,,,,,,,,,,,,,,,,,,,,,,,,,,,,,,,,,,
,,,,,,,,,,,,,,1,001,2024-08-25_15h00.14.666,IAT(Formal),2021.2.3,Win32,59.88023952,,,,,,,,,,,,,,,e,1,0.5771,,,,,,我,e,,,1,32,112,50,1,,,,,,,,,,,,,,,,,,,,,,,,,,,,,,,,,,
,,,,,,,,,,,,,,1,001,2024-08-25_15h00.14.666,IAT(Formal),2021.2.3,Win32,59.88023952,,,,,,,,,,,,,,,i,1,0.4294,,,,,,他的,i,,,1,33,113,77,1,,,,,,,,,,,,,,,,,,,,,,,,,,,,,,,,,,
,,,,,,,,,,,,,,1,001,2024-08-25_15h00.14.666,IAT(Formal),2021.2.3,Win32,59.88023952,,,,,,,,,,,,,,,e,1,0.5207,,,,,,细腻,e,,,1,34,114,25,1,,,,,,,,,,,,,,,,,,,,,,,,,,,,,,,,,,
,,,,,,,,,,,,,,1,001,2024-08-25_15h00.14.666,IAT(Formal),2021.2.3,Win32,59.88023952,,,,,,,,,,,,,,,e,1,0.4788,,,,,,俺,e,,,1,35,115,64,1,,,,,,,,,,,,,,,,,,,,,,,,,,,,,,,,,,
,,,,,,,,,,,,,,1,001,2024-08-25_15h00.14.666,IAT(Formal),2021.2.3,Win32,59.88023952,,,,,,,,,,,,,,,e,1,0.6769,,,,,,冷静,e,,,1,36,116,26,1,,,,,,,,,,,,,,,,,,,,,,,,,,,,,,,,,,
,,,,,,,,,,,,,,1,001,2024-08-25_15h00.14.666,IAT(Formal),2021.2.3,Win32,59.88023952,,,,,,,,,,,,,,,i,1,0.585,,,,,,卑鄙,i,,,1,37,117,30,1,,,,,,,,,,,,,,,,,,,,,,,,,,,,,,,,,,
,,,,,,,,,,,,,,1,001,2024-08-25_15h00.14.666,IAT(Formal),2021.2.3,Win32,59.88023952,,,,,,,,,,,,,,,e,1,0.5024,,,,,,俺,e,,,1,38,118,54,1,,,,,,,,,,,,,,,,,,,,,,,,,,,,,,,,,,
,,,,,,,,,,,,,,1,001,2024-08-25_15h00.14.666,IAT(Formal),2021.2.3,Win32,59.88023952,,,,,,,,,,,,,,,i,0,0.546,,,,,,诚实,e,,,1,39,119,15,1,,,,,,,,,,,,,,,,,,,,,,,,,,,,,,,,,,
,,,,,,,,,,,,,,1,001,2024-08-25_15h00.14.666,IAT(Formal),2021.2.3,Win32,59.88023952,,,,,,,,,,,,,,,e,1,0.4717,,,,,,优秀,e,,,1,40,120,10,1,,,,,,,,,,,,,,,,,,,,,,,,,,,,,,,,,,
,,,,,,,,,,,,,,1,001,2024-08-25_15h00.14.666,IAT(Formal),2021.2.3,Win32,59.88023952,,,,,,,,,,,,,,,i,1,0.5689,,,,,,他们,i,,,1,41,121,6,1,,,,,,,,,,,,,,,,,,,,,,,,,,,,,,,,,,
,,,,,,,,,,,,,,1,001,2024-08-25_15h00.14.666,IAT(Formal),2021.2.3,Win32,59.88023952,,,,,,,,,,,,,,,e,1,0.4901,,,,,,热情,e,,,1,42,122,27,1,,,,,,,,,,,,,,,,,,,,,,,,,,,,,,,,,,
,,,,,,,,,,,,,,1,001,2024-08-25_15h00.14.666,IAT(Formal),2021.2.3,Win32,59.88023952,,,,,,,,,,,,,,,e,1,0.5242,,,,,,自己,e,,,1,43,123,73,1,,,,,,,,,,,,,,,,,,,,,,,,,,,,,,,,,,
,,,,,,,,,,,,,,1,001,2024-08-25_15h00.14.666,IAT(Formal),2021.2.3,Win32,59.88023952,,,,,,,,,,,,,,,i,1,0.6966,,,,,,散漫,i,,,1,44,124,41,1,,,,,,,,,,,,,,,,,,,,,,,,,,,,,,,,,,
,,,,,,,,,,,,,,1,001,2024-08-25_15h00.14.666,IAT(Formal),2021.2.3,Win32,59.88023952,,,,,,,,,,,,,,,e,1,0.539,,,,,,自己,e,,,1,45,125,63,1,,,,,,,,,,,,,,,,,,,,,,,,,,,,,,,,,,
,,,,,,,,,,,,,,1,001,2024-08-25_15h00.14.666,IAT(Formal),2021.2.3,Win32,59.88023952,,,,,,,,,,,,,,,e,1,0.5683,,,,,,活泼,e,,,1,46,126,28,1,,,,,,,,,,,,,,,,,,,,,,,,,,,,,,,,,,
,,,,,,,,,,,,,,1,001,2024-08-25_15h00.14.666,IAT(Formal),2021.2.3,Win32,59.88023952,,,,,,,,,,,,,,,i,1,0.6393,,,,,,他们,i,,,1,47,127,66,1,,,,,,,,,,,,,,,,,,,,,,,,,,,,,,,,,,
,,,,,,,,,,,,,,1,001,2024-08-25_15h00.14.666,IAT(Formal),2021.2.3,Win32,59.88023952,,,,,,,,,,,,,,,e,1,0.5679,,,,,,朴实,e,,,1,48,128,24,1,,,,,,,,,,,,,,,,,,,,,,,,,,,,,,,,,,
,,,,,,,,,,,,,,1,001,2024-08-25_15h00.14.666,IAT(Formal),2021.2.3,Win32,59.88023952,,,,,,,,,,,,,,,i,1,0.593,,,,,,刻薄,i,,,1,49,129,33,1,,,,,,,,,,,,,,,,,,,,,,,,,,,,,,,,,,
,,,,,,,,,,,,,,1,001,2024-08-25_15h00.14.666,IAT(Formal),2021.2.3,Win32,59.88023952,,,,,,,,,,,,,,,i,1,1.0718,,,,,,自私,i,,,1,50,130,43,1,,,,,,,,,,,,,,,,,,,,,,,,,,,,,,,,,,
,,,,,,,,,,,,,,1,001,2024-08-25_15h00.14.666,IAT(Formal),2021.2.3,Win32,59.88023952,,,,,,,,,,,,,,,e,1,0.9887,,,,,,认真,e,,,1,51,131,20,1,,,,,,,,,,,,,,,,,,,,,,,,,,,,,,,,,,
,,,,,,,,,,,,,,1,001,2024-08-25_15h00.14.666,IAT(Formal),2021.2.3,Win32,59.88023952,,,,,,,,,,,,,,,e,1,0.4545,,,,,,杰出,e,,,1,52,132,13,1,,,,,,,,,,,,,,,,,,,,,,,,,,,,,,,,,,
,,,,,,,,,,,,,,1,001,2024-08-25_15h00.14.666,IAT(Formal),2021.2.3,Win32,59.88023952,,,,,,,,,,,,,,,i,1,0.5536,,,,,,执拗,i,,,1,53,133,40,1,,,,,,,,,,,,,,,,,,,,,,,,,,,,,,,,,,
,,,,,,,,,,,,,,1,001,2024-08-25_15h00.14.666,IAT(Formal),2021.2.3,Win32,59.88023952,,,,,,,,,,,,,,,e,1,0.6505,,,,,,稳重,e,,,1,54,134,21,1,,,,,,,,,,,,,,,,,,,,,,,,,,,,,,,,,,
,,,,,,,,,,,,,,1,001,2024-08-25_15h00.14.666,IAT(Formal),2021.2.3,Win32,59.88023952,,,,,,,,,,,,,,,i,1,0.5247,,,,,,下贱,i,,,1,55,135,49,1,,,,,,,,,,,,,,,,,,,,,,,,,,,,,,,,,,
,,,,,,,,,,,,,,1,001,2024-08-25_15h00.14.666,IAT(Formal),2021.2.3,Win32,59.88023952,,,,,,,,,,,,,,,i,1,0.628,,,,,,他,i,,,1,56,136,55,1,,,,,,,,,,,,,,,,,,,,,,,,,,,,,,,,,,
,,,,,,,,,,,,,,1,001,2024-08-25_15h00.14.666,IAT(Formal),2021.2.3,Win32,59.88023952,,,,,,,,,,,,,,,e,1,0.5407,,,,,,我们,e,,,1,57,137,2,1,,,,,,,,,,,,,,,,,,,,,,,,,,,,,,,,,,
,,,,,,,,,,,,,,1,001,2024-08-25_15h00.14.666,IAT(Formal),2021.2.3,Win32,59.88023952,,,,,,,,,,,,,,,i,1,0.6141,,,,,,凶狠,i,,,1,58,138,42,1,,,,,,,,,,,,,,,,,,,,,,,,,,,,,,,,,,
,,,,,,,,,,,,,,1,001,2024-08-25_15h00.14.666,IAT(Formal),2021.2.3,Win32,59.88023952,,,,,,,,,,,,,,,i,1,0.5888,,,,,,其他,i,,,1,59,139,9,1,,,,,,,,,,,,,,,,,,,,,,,,,,,,,,,,,,
,,,,,,,,,,,,,,1,001,2024-08-25_15h00.14.666,IAT(Formal),2021.2.3,Win32,59.88023952,,,,,,,,,,,,,,,e,1,0.5095,,,,,,我的,e,,,1,60,140,71,1,,,,,,,,,,,,,,,,,,,,,,,,,,,,,,,,,,
,,,,,,,,,,,,,,1,001,2024-08-25_15h00.14.666,IAT(Formal),2021.2.3,Win32,59.88023952,,,,,,,,,,,,,,,i,1,0.4769,,,,,,固执,i,,,1,61,141,47,1,,,,,,,,,,,,,,,,,,,,,,,,,,,,,,,,,,
,,,,,,,,,,,,,,1,001,2024-08-25_15h00.14.666,IAT(Formal),2021.2.3,Win32,59.88023952,,,,,,,,,,,,,,,i,1,0.7573,,,,,,他人,i,,,1,62,142,68,1,,,,,,,,,,,,,,,,,,,,,,,,,,,,,,,,,,
,,,,,,,,,,,,,,1,001,2024-08-25_15h00.14.666,IAT(Formal),2021.2.3,Win32,59.88023952,,,,,,,,,,,,,,,e,1,0.6292,,,,,,我的,e,,,1,63,143,51,1,,,,,,,,,,,,,,,,,,,,,,,,,,,,,,,,,,
,,,,,,,,,,,,,,1,001,2024-08-25_15h00.14.666,IAT(Formal),2021.2.3,Win32,59.88023952,,,,,,,,,,,,,,,e,1,0.5264,,,,,,俺,e,,,1,64,144,74,1,,,,,,,,,,,,,,,,,,,,,,,,,,,,,,,,,,
,,,,,,,,,,,,,,1,001,2024-08-25_15h00.14.666,IAT(Formal),2021.2.3,Win32,59.88023952,,,,,,,,,,,,,,,i,1,0.4845,,,,,,他人,i,,,1,65,145,78,1,,,,,,,,,,,,,,,,,,,,,,,,,,,,,,,,,,
,,,,,,,,,,,,,,1,001,2024-08-25_15h00.14.666,IAT(Formal),2021.2.3,Win32,59.88023952,,,,,,,,,,,,,,,i,1,0.6057,,,,,,他的,i,,,1,66,146,57,1,,,,,,,,,,,,,,,,,,,,,,,,,,,,,,,,,,
,,,,,,,,,,,,,,1,001,2024-08-25_15h00.14.666,IAT(Formal),2021.2.3,Win32,59.88023952,,,,,,,,,,,,,,,i,1,0.6674,,,,,,自卑,i,,,1,67,147,36,1,,,,,,,,,,,,,,,,,,,,,,,,,,,,,,,,,,
,,,,,,,,,,,,,,1,001,2024-08-25_15h00.14.666,IAT(Formal),2021.2.3,Win32,59.88023952,,,,,,,,,,,,,,,e,1,0.6022,,,,,,勤奋,e,,,1,68,148,18,1,,,,,,,,,,,,,,,,,,,,,,,,,,,,,,,,,,
,,,,,,,,,,,,,,1,001,2024-08-25_15h00.14.666,IAT(Formal),2021.2.3,Win32,59.88023952,,,,,,,,,,,,,,,i,1,0.6029,,,,,,冒失,i,,,1,69,149,39,1,,,,,,,,,,,,,,,,,,,,,,,,,,,,,,,,,,
,,,,,,,,,,,,,,1,001,2024-08-25_15h00.14.666,IAT(Formal),2021.2.3,Win32,59.88023952,,,,,,,,,,,,,,,e,1,0.6385,,,,,,崇高,e,,,1,70,150,11,1,,,,,,,,,,,,,,,,,,,,,,,,,,,,,,,,,,
,,,,,,,,,,,,,,1,001,2024-08-25_15h00.14.666,IAT(Formal),2021.2.3,Win32,59.88023952,,,,,,,,,,,,,,,e,1,0.5289,,,,,,机智,e,,,1,71,151,19,1,,,,,,,,,,,,,,,,,,,,,,,,,,,,,,,,,,
,,,,,,,,,,,,,,1,001,2024-08-25_15h00.14.666,IAT(Formal),2021.2.3,Win32,59.88023952,,,,,,,,,,,,,,,i,1,0.5824,,,,,,他们,i,,,1,72,152,76,1,,,,,,,,,,,,,,,,,,,,,,,,,,,,,,,,,,
,,,,,,,,,,,,,,1,001,2024-08-25_15h00.14.666,IAT(Formal),2021.2.3,Win32,59.88023952,,,,,,,,,,,,,,,i,1,0.5835,,,,,,愚蠢,i,,,1,73,153,32,1,,,,,,,,,,,,,,,,,,,,,,,,,,,,,,,,,,
,,,,,,,,,,,,,,1,001,2024-08-25_15h00.14.666,IAT(Formal),2021.2.3,Win32,59.88023952,,,,,,,,,,,,,,,i,1,0.6432,,,,,,悲观,i,,,1,74,154,34,1,,,,,,,,,,,,,,,,,,,,,,,,,,,,,,,,,,
,,,,,,,,,,,,,,1,001,2024-08-25_15h00.14.666,IAT(Formal),2021.2.3,Win32,59.88023952,,,,,,,,,,,,,,,i,1,0.5517,,,,,,暴躁,i,,,1,75,155,44,1,,,,,,,,,,,,,,,,,,,,,,,,,,,,,,,,,,
,,,,,,,,,,,,,,1,001,2024-08-25_15h00.14.666,IAT(Formal),2021.2.3,Win32,59.88023952,,,,,,,,,,,,,,,i,1,0.6668,,,,,,他们,i,,,1,76,156,56,1,,,,,,,,,,,,,,,,,,,,,,,,,,,,,,,,,,
,,,,,,,,,,,,,,1,001,2024-08-25_15h00.14.666,IAT(Formal),2021.2.3,Win32,59.88023952,,,,,,,,,,,,,,,i,0,0.5062,,,,,,无私,e,,,1,77,157,22,1,,,,,,,,,,,,,,,,,,,,,,,,,,,,,,,,,,
,,,,,,,,,,,,,,1,001,2024-08-25_15h00.14.666,IAT(Formal),2021.2.3,Win32,59.88023952,,,,,,,,,,,,,,,e,1,0.5267,,,,,,我们,e,,,1,78,158,72,1,,,,,,,,,,,,,,,,,,,,,,,,,,,,,,,,,,
,,,,,,,,,,,,,,1,001,2024-08-25_15h00.14.666,IAT(Formal),2021.2.3,Win32,59.88023952,,,,,,,,,,,,,,,e,1,0.4176,,,,,,我,e,,,1,79,159,0,1,,,,,,,,,,,,,,,,,,,,,,,,,,,,,,,,,,
,,,,,,,,,,,,自己,i,1,001,2024-08-25_15h00.14.666,IAT(Formal),2021.2.3,Win32,59.88023952,,,,,,,,,,,,,,,,,,,,,,,,,,,,,,,,space,8.0286,e,0,0.8594,0,0,0,3,1,,,,,,,,,,,,,,,,,,,,,,,,
,,,,,,,,,,,,他们,e,1,001,2024-08-25_15h00.14.666,IAT(Formal),2021.2.3,Win32,59.88023952,,,,,,,,,,,,,,,,,,,,,,,,,,,,,,,,,,e,1,0.7001,0,1,1,6,1,,,,,,,,,,,,,,,,,,,,,,,,
,,,,,,,,,,,,我的,i,1,001,2024-08-25_15h00.14.666,IAT(Formal),2021.2.3,Win32,59.88023952,,,,,,,,,,,,,,,,,,,,,,,,,,,,,,,,,,i,1,0.3861,0,2,2,1,1,,,,,,,,,,,,,,,,,,,,,,,,
,,,,,,,,,,,,他的,e,1,001,2024-08-25_15h00.14.666,IAT(Formal),2021.2.3,Win32,59.88023952,,,,,,,,,,,,,,,,,,,,,,,,,,,,,,,,,,e,1,0.5548,0,3,3,7,1,,,,,,,,,,,,,,,,,,,,,,,,
,,,,,,,,,,,,他,e,1,001,2024-08-25_15h00.14.666,IAT(Formal),2021.2.3,Win32,59.88023952,,,,,,,,,,,,,,,,,,,,,,,,,,,,,,,,,,e,1,0.7161,0,4,4,5,1,,,,,,,,,,,,,,,,,,,,,,,,
,,,,,,,,,,,,其他,e,1,001,2024-08-25_15h00.14.666,IAT(Formal),2021.2.3,Win32,59.88023952,,,,,,,,,,,,,,,,,,,,,,,,,,,,,,,,,,e,1,0.6335,0,5,5,9,1,,,,,,,,,,,,,,,,,,,,,,,,
,,,,,,,,,,,,俺,i,1,001,2024-08-25_15h00.14.666,IAT(Formal),2021.2.3,Win32,59.88023952,,,,,,,,,,,,,,,,,,,,,,,,,,,,,,,,,,i,1,0.5064,0,6,6,4,1,,,,,,,,,,,,,,,,,,,,,,,,
,,,,,,,,,,,,他人,e,1,001,2024-08-25_15h00.14.666,IAT(Formal),2021.2.3,Win32,59.88023952,,,,,,,,,,,,,,,,,,,,,,,,,,,,,,,,,,e,1,0.6669,0,7,7,8,1,,,,,,,,,,,,,,,,,,,,,,,,
,,,,,,,,,,,,我们,i,1,001,2024-08-25_15h00.14.666,IAT(Formal),2021.2.3,Win32,59.88023952,,,,,,,,,,,,,,,,,,,,,,,,,,,,,,,,,,i,1,0.9194,0,8,8,2,1,,,,,,,,,,,,,,,,,,,,,,,,
,,,,,,,,,,,,我,i,1,001,2024-08-25_15h00.14.666,IAT(Formal),2021.2.3,Win32,59.88023952,,,,,,,,,,,,,,,,,,,,,,,,,,,,,,,,,,i,1,0.6379,0,9,9,0,1,,,,,,,,,,,,,,,,,,,,,,,,
,,,,,,,,,,,,,,1,001,2024-08-25_15h00.14.666,IAT(Formal),2021.2.3,Win32,59.88023952,,,,,,,,,,,,,,,,,,,,,,,,,,,,,,,,,,,,,,,,,,space,16.3063,i,1,0.6762,0,0,0,70,1,我,i,,,,,,,,,,,,
,,,,,,,,,,,,,,1,001,2024-08-25_15h00.14.666,IAT(Formal),2021.2.3,Win32,59.88023952,,,,,,,,,,,,,,,,,,,,,,,,,,,,,,,,,,,,,,,,,,,,i,1,0.5293,0,1,1,3,1,自己,i,,,,,,,,,,,,
,,,,,,,,,,,,,,1,001,2024-08-25_15h00.14.666,IAT(Formal),2021.2.3,Win32,59.88023952,,,,,,,,,,,,,,,,,,,,,,,,,,,,,,,,,,,,,,,,,,,,e,1,0.4523,0,2,2,57,1,他的,e,,,,,,,,,,,,
,,,,,,,,,,,,,,1,001,2024-08-25_15h00.14.666,IAT(Formal),2021.2.3,Win32,59.88023952,,,,,,,,,,,,,,,,,,,,,,,,,,,,,,,,,,,,,,,,,,,,i,1,0.4066,0,3,3,60,1,我,i,,,,,,,,,,,,
,,,,,,,,,,,,,,1,001,2024-08-25_15h00.14.666,IAT(Formal),2021.2.3,Win32,59.88023952,,,,,,,,,,,,,,,,,,,,,,,,,,,,,,,,,,,,,,,,,,,,e,1,0.3936,0,4,4,58,1,他人,e,,,,,,,,,,,,
,,,,,,,,,,,,,,1,001,2024-08-25_15h00.14.666,IAT(Formal),2021.2.3,Win32,59.88023952,,,,,,,,,,,,,,,,,,,,,,,,,,,,,,,,,,,,,,,,,,,,i,1,0.6336,0,5,5,62,1,我们,i,,,,,,,,,,,,
,,,,,,,,,,,,,,1,001,2024-08-25_15h00.14.666,IAT(Formal),2021.2.3,Win32,59.88023952,,,,,,,,,,,,,,,,,,,,,,,,,,,,,,,,,,,,,,,,,,,,i,1,0.5273,0,6,6,53,1,自己,i,,,,,,,,,,,,
,,,,,,,,,,,,,,1,001,2024-08-25_15h00.14.666,IAT(Formal),2021.2.3,Win32,59.88023952,,,,,,,,,,,,,,,,,,,,,,,,,,,,,,,,,,,,,,,,,,,,e,0,0.8227,0,7,7,36,1,自卑,i,,,,,,,,,,,,
,,,,,,,,,,,,,,1,001,2024-08-25_15h00.14.666,IAT(Formal),2021.2.3,Win32,59.88023952,,,,,,,,,,,,,,,,,,,,,,,,,,,,,,,,,,,,,,,,,,,,i,0,0.6935,0,8,8,77,1,他的,e,,,,,,,,,,,,
,,,,,,,,,,,,,,1,001,2024-08-25_15h00.14.666,IAT(Formal),2021.2.3,Win32,59.88023952,,,,,,,,,,,,,,,,,,,,,,,,,,,,,,,,,,,,,,,,,,,,e,1,0.9669,0,9,9,20,1,认真,e,,,,,,,,,,,,
,,,,,,,,,,,,,,1,001,2024-08-25_15h00.14.666,IAT(Formal),2021.2.3,Win32,59.88023952,,,,,,,,,,,,,,,,,,,,,,,,,,,,,,,,,,,,,,,,,,,,i,0,0.7931,0,10,10,79,1,其他,e,,,,,,,,,,,,
,,,,,,,,,,,,,,1,001,2024-08-25_15h00.14.666,IAT(Formal),2021.2.3,Win32,59.88023952,,,,,,,,,,,,,,,,,,,,,,,,,,,,,,,,,,,,,,,,,,,,e,1,1.1753,0,11,11,18,1,勤奋,e,,,,,,,,,,,,
,,,,,,,,,,,,,,1,001,2024-08-25_15h00.14.666,IAT(Formal),2021.2.3,Win32,59.88023952,,,,,,,,,,,,,,,,,,,,,,,,,,,,,,,,,,,,,,,,,,,,i,0,0.7837,0,12,12,66,1,他们,e,,,,,,,,,,,,
,,,,,,,,,,,,,,1,001,2024-08-25_15h00.14.666,IAT(Formal),2021.2.3,Win32,59.88023952,,,,,,,,,,,,,,,,,,,,,,,,,,,,,,,,,,,,,,,,,,,,i,1,0.7502,0,13,13,54,1,俺,i,,,,,,,,,,,,
,,,,,,,,,,,,,,1,001,2024-08-25_15h00.14.666,IAT(Formal),2021.2.3,Win32,59.88023952,,,,,,,,,,,,,,,,,,,,,,,,,,,,,,,,,,,,,,,,,,,,i,1,0.5501,0,14,14,61,1,我的,i,,,,,,,,,,,,
,,,,,,,,,,,,,,1,001,2024-08-25_15h00.14.666,IAT(Formal),2021.2.3,Win32,59.88023952,,,,,,,,,,,,,,,,,,,,,,,,,,,,,,,,,,,,,,,,,,,,e,1,0.6587,0,15,15,28,1,活泼,e,,,,,,,,,,,,
,,,,,,,,,,,,,,1,001,2024-08-25_15h00.14.666,IAT(Formal),2021.2.3,Win32,59.88023952,,,,,,,,,,,,,,,,,,,,,,,,,,,,,,,,,,,,,,,,,,,,e,1,0.7352,0,16,16,22,1,无私,e,,,,,,,,,,,,
,,,,,,,,,,,,,,1,001,2024-08-25_15h00.14.666,IAT(Formal),2021.2.3,Win32,59.88023952,,,,,,,,,,,,,,,,,,,,,,,,,,,,,,,,,,,,,,,,,,,,i,1,0.7609,0,17,17,64,1,俺,i,,,,,,,,,,,,
,,,,,,,,,,,,,,1,001,2024-08-25_15h00.14.666,IAT(Formal),2021.2.3,Win32,59.88023952,,,,,,,,,,,,,,,,,,,,,,,,,,,,,,,,,,,,,,,,,,,,i,1,0.5723,0,18,18,74,1,俺,i,,,,,,,,,,,,
,,,,,,,,,,,,,,1,001,2024-08-25_15h00.14.666,IAT(Formal),2021.2.3,Win32,59.88023952,,,,,,,,,,,,,,,,,,,,,,,,,,,,,,,,,,,,,,,,,,,,i,1,1.0832,0,19,19,71,1,我的,i,,,,,,,,,,,,
,,,,,,,,,,,,,,1,001,2024-08-25_15h00.14.666,IAT(Formal),2021.2.3,Win32,59.88023952,,,,,,,,,,,,,,,,,,,,,,,,,,,,,,,,,,,,,,,,,,,,i,1,0.7365,0,20,20,49,1,下贱,i,,,,,,,,,,,,
,,,,,,,,,,,,,,1,001,2024-08-25_15h00.14.666,IAT(Formal),2021.2.3,Win32,59.88023952,,,,,,,,,,,,,,,,,,,,,,,,,,,,,,,,,,,,,,,,,,,,i,1,0.7668,0,21,21,1,1,我的,i,,,,,,,,,,,,
,,,,,,,,,,,,,,1,001,2024-08-25_15h00.14.666,IAT(Formal),2021.2.3,Win32,59.88023952,,,,,,,,,,,,,,,,,,,,,,,,,,,,,,,,,,,,,,,,,,,,e,1,1.3288,0,22,22,26,1,冷静,e,,,,,,,,,,,,
,,,,,,,,,,,,,,1,001,2024-08-25_15h00.14.666,IAT(Formal),2021.2.3,Win32,59.88023952,,,,,,,,,,,,,,,,,,,,,,,,,,,,,,,,,,,,,,,,,,,,e,1,1.0686,0,23,23,78,1,他人,e,,,,,,,,,,,,
,,,,,,,,,,,,,,1,001,2024-08-25_15h00.14.666,IAT(Formal),2021.2.3,Win32,59.88023952,,,,,,,,,,,,,,,,,,,,,,,,,,,,,,,,,,,,,,,,,,,,e,1,1.3025,0,24,24,59,1,其他,e,,,,,,,,,,,,
,,,,,,,,,,,,,,1,001,2024-08-25_15h00.14.666,IAT(Formal),2021.2.3,Win32,59.88023952,,,,,,,,,,,,,,,,,,,,,,,,,,,,,,,,,,,,,,,,,,,,i,1,0.8785,0,25,25,52,1,我们,i,,,,,,,,,,,,
,,,,,,,,,,,,,,1,001,2024-08-25_15h00.14.666,IAT(Formal),2021.2.3,Win32,59.88023952,,,,,,,,,,,,,,,,,,,,,,,,,,,,,,,,,,,,,,,,,,,,e,0,0.9945,0,26,26,42,1,凶狠,i,,,,,,,,,,,,
,,,,,,,,,,,,,,1,001,2024-08-25_15h00.14.666,IAT(Formal),2021.2.3,Win32,59.88023952,,,,,,,,,,,,,,,,,,,,,,,,,,,,,,,,,,,,,,,,,,,,i,0,0.6696,0,27,27,75,1,他,e,,,,,,,,,,,,
,,,,,,,,,,,,,,1,001,2024-08-25_15h00.14.666,IAT(Formal),2021.2.3,Win32,59.88023952,,,,,,,,,,,,,,,,,,,,,,,,,,,,,,,,,,,,,,,,,,,,e,1,0.4188,0,28,28,76,1,他们,e,,,,,,,,,,,,
,,,,,,,,,,,,,,1,001,2024-08-25_15h00.14.666,IAT(Formal),2021.2.3,Win32,59.88023952,,,,,,,,,,,,,,,,,,,,,,,,,,,,,,,,,,,,,,,,,,,,i,1,0.7609,0,29,29,35,1,消极,i,,,,,,,,,,,,
,,,,,,,,,,,,,,1,001,2024-08-25_15h00.14.666,IAT(Formal),2021.2.3,Win32,59.88023952,,,,,,,,,,,,,,,,,,,,,,,,,,,,,,,,,,,,,,,,,,,,e,1,0.6512,0,30,30,16,1,正直,e,,,,,,,,,,,,
,,,,,,,,,,,,,,1,001,2024-08-25_15h00.14.666,IAT(Formal),2021.2.3,Win32,59.88023952,,,,,,,,,,,,,,,,,,,,,,,,,,,,,,,,,,,,,,,,,,,,e,0,0.9767,0,31,31,44,1,暴躁,i,,,,,,,,,,,,
,,,,,,,,,,,,,,1,001,2024-08-25_15h00.14.666,IAT(Formal),2021.2.3,Win32,59.88023952,,,,,,,,,,,,,,,,,,,,,,,,,,,,,,,,,,,,,,,,,,,,,0,,0,32,32,72,1,我们,i,,,,,,,,,,,,
,,,,,,,,,,,,,,1,001,2024-08-25_15h00.14.666,IAT(Formal),2021.2.3,Win32,59.88023952,,,,,,,,,,,,,,,,,,,,,,,,,,,,,,,,,,,,,,,,,,,,e,0,0.6697,0,33,33,45,1,猖狂,i,,,,,,,,,,,,
,,,,,,,,,,,,,,1,001,2024-08-25_15h00.14.666,IAT(Formal),2021.2.3,Win32,59.88023952,,,,,,,,,,,,,,,,,,,,,,,,,,,,,,,,,,,,,,,,,,,,i,1,0.5748,0,34,34,43,1,自私,i,,,,,,,,,,,,
,,,,,,,,,,,,,,1,001,2024-08-25_15h00.14.666,IAT(Formal),2021.2.3,Win32,59.88023952,,,,,,,,,,,,,,,,,,,,,,,,,,,,,,,,,,,,,,,,,,,,e,1,0.8001,0,35,35,10,1,优秀,e,,,,,,,,,,,,
,,,,,,,,,,,,,,1,001,2024-08-25_15h00.14.666,IAT(Formal),2021.2.3,Win32,59.88023952,,,,,,,,,,,,,,,,,,,,,,,,,,,,,,,,,,,,,,,,,,,,e,1,0.7943,0,36,36,55,1,他,e,,,,,,,,,,,,
,,,,,,,,,,,,,,1,001,2024-08-25_15h00.14.666,IAT(Formal),2021.2.3,Win32,59.88023952,,,,,,,,,,,,,,,,,,,,,,,,,,,,,,,,,,,,,,,,,,,,e,1,0.5365,0,37,37,65,1,他,e,,,,,,,,,,,,
,,,,,,,,,,,,,,1,001,2024-08-25_15h00.14.666,IAT(Formal),2021.2.3,Win32,59.88023952,,,,,,,,,,,,,,,,,,,,,,,,,,,,,,,,,,,,,,,,,,,,i,0,0.8422,0,38,38,12,1,聪明,e,,,,,,,,,,,,
,,,,,,,,,,,,,,1,001,2024-08-25_15h00.14.666,IAT(Formal),2021.2.3,Win32,59.88023952,,,,,,,,,,,,,,,,,,,,,,,,,,,,,,,,,,,,,,,,,,,,i,1,0.884,0,39,39,30,1,卑鄙,i,,,,,,,,,,,,
,,,,,,,,,,,,,,1,001,2024-08-25_15h00.14.666,IAT(Formal),2021.2.3,Win32,59.88023952,,,,,,,,,,,,,,,,,,,,,,,,,,,,,,,,,,,,,,,,,,,,e,1,1.1172,0,40,40,21,1,稳重,e,,,,,,,,,,,,
,,,,,,,,,,,,,,1,001,2024-08-25_15h00.14.666,IAT(Formal),2021.2.3,Win32,59.88023952,,,,,,,,,,,,,,,,,,,,,,,,,,,,,,,,,,,,,,,,,,,,e,1,0.5947,0,41,41,11,1,崇高,e,,,,,,,,,,,,
,,,,,,,,,,,,,,1,001,2024-08-25_15h00.14.666,IAT(Formal),2021.2.3,Win32,59.88023952,,,,,,,,,,,,,,,,,,,,,,,,,,,,,,,,,,,,,,,,,,,,e,1,0.4507,0,42,42,15,1,诚实,e,,,,,,,,,,,,
,,,,,,,,,,,,,,1,001,2024-08-25_15h00.14.666,IAT(Formal),2021.2.3,Win32,59.88023952,,,,,,,,,,,,,,,,,,,,,,,,,,,,,,,,,,,,,,,,,,,,e,1,0.5001,0,43,43,27,1,热情,e,,,,,,,,,,,,
,,,,,,,,,,,,,,1,001,2024-08-25_15h00.14.666,IAT(Formal),2021.2.3,Win32,59.88023952,,,,,,,,,,,,,,,,,,,,,,,,,,,,,,,,,,,,,,,,,,,,e,0,0.5533,0,44,44,37,1,傲慢,i,,,,,,,,,,,,
,,,,,,,,,,,,,,1,001,2024-08-25_15h00.14.666,IAT(Formal),2021.2.3,Win32,59.88023952,,,,,,,,,,,,,,,,,,,,,,,,,,,,,,,,,,,,,,,,,,,,e,1,0.8663,0,45,45,68,1,他人,e,,,,,,,,,,,,
,,,,,,,,,,,,,,1,001,2024-08-25_15h00.14.666,IAT(Formal),2021.2.3,Win32,59.88023952,,,,,,,,,,,,,,,,,,,,,,,,,,,,,,,,,,,,,,,,,,,,i,1,0.6851,0,46,46,0,1,我,i,,,,,,,,,,,,
,,,,,,,,,,,,,,1,001,2024-08-25_15h00.14.666,IAT(Formal),2021.2.3,Win32,59.88023952,,,,,,,,,,,,,,,,,,,,,,,,,,,,,,,,,,,,,,,,,,,,e,1,0.8056,0,47,47,19,1,机智,e,,,,,,,,,,,,
,,,,,,,,,,,,,,1,001,2024-08-25_15h00.14.666,IAT(Formal),2021.2.3,Win32,59.88023952,,,,,,,,,,,,,,,,,,,,,,,,,,,,,,,,,,,,,,,,,,,,i,1,0.7879,0,48,48,46,1,野蛮,i,,,,,,,,,,,,
,,,,,,,,,,,,,,1,001,2024-08-25_15h00.14.666,IAT(Formal),2021.2.3,Win32,59.88023952,,,,,,,,,,,,,,,,,,,,,,,,,,,,,,,,,,,,,,,,,,,,e,1,0.813,0,49,49,56,1,他们,e,,,,,,,,,,,,
,,,,,,,,,,,,,,1,001,2024-08-25_15h00.14.666,IAT(Formal),2021.2.3,Win32,59.88023952,,,,,,,,,,,,,,,,,,,,,,,,,,,,,,,,,,,,,,,,,,,,e,0,1.1204,0,50,50,32,1,愚蠢,i,,,,,,,,,,,,
,,,,,,,,,,,,,,1,001,2024-08-25_15h00.14.666,IAT(Formal),2021.2.3,Win32,59.88023952,,,,,,,,,,,,,,,,,,,,,,,,,,,,,,,,,,,,,,,,,,,,i,1,1.3335,0,51,51,41,1,散漫,i,,,,,,,,,,,,
,,,,,,,,,,,,,,1,001,2024-08-25_15h00.14.666,IAT(Formal),2021.2.3,Win32,59.88023952,,,,,,,,,,,,,,,,,,,,,,,,,,,,,,,,,,,,,,,,,,,,e,1,1.0333,0,52,52,67,1,他的,e,,,,,,,,,,,,
,,,,,,,,,,,,,,1,001,2024-08-25_15h00.14.666,IAT(Formal),2021.2.3,Win32,59.88023952,,,,,,,,,,,,,,,,,,,,,,,,,,,,,,,,,,,,,,,,,,,,i,1,0.6045,0,53,53,39,1,冒失,i,,,,,,,,,,,,
,,,,,,,,,,,,,,1,001,2024-08-25_15h00.14.666,IAT(Formal),2021.2.3,Win32,59.88023952,,,,,,,,,,,,,,,,,,,,,,,,,,,,,,,,,,,,,,,,,,,,e,1,0.6444,0,54,54,8,1,他人,e,,,,,,,,,,,,
,,,,,,,,,,,,,,1,001,2024-08-25_15h00.14.666,IAT(Formal),2021.2.3,Win32,59.88023952,,,,,,,,,,,,,,,,,,,,,,,,,,,,,,,,,,,,,,,,,,,,i,1,0.5243,0,55,55,48,1,轻率,i,,,,,,,,,,,,
,,,,,,,,,,,,,,1,001,2024-08-25_15h00.14.666,IAT(Formal),2021.2.3,Win32,59.88023952,,,,,,,,,,,,,,,,,,,,,,,,,,,,,,,,,,,,,,,,,,,,i,1,0.7084,0,56,56,33,1,刻薄,i,,,,,,,,,,,,
,,,,,,,,,,,,,,1,001,2024-08-25_15h00.14.666,IAT(Formal),2021.2.3,Win32,59.88023952,,,,,,,,,,,,,,,,,,,,,,,,,,,,,,,,,,,,,,,,,,,,i,1,1.3954,0,57,57,34,1,悲观,i,,,,,,,,,,,,
,,,,,,,,,,,,,,1,001,2024-08-25_15h00.14.666,IAT(Formal),2021.2.3,Win32,59.88023952,,,,,,,,,,,,,,,,,,,,,,,,,,,,,,,,,,,,,,,,,,,,i,1,1.1577,0,58,58,4,1,俺,i,,,,,,,,,,,,
,,,,,,,,,,,,,,1,001,2024-08-25_15h00.14.666,IAT(Formal),2021.2.3,Win32,59.88023952,,,,,,,,,,,,,,,,,,,,,,,,,,,,,,,,,,,,,,,,,,,,e,1,0.8344,0,59,59,17,1,勇敢,e,,,,,,,,,,,,
,,,,,,,,,,,,,,1,001,2024-08-25_15h00.14.666,IAT(Formal),2021.2.3,Win32,59.88023952,,,,,,,,,,,,,,,,,,,,,,,,,,,,,,,,,,,,,,,,,,,,i,1,0.588,0,60,60,2,1,我们,i,,,,,,,,,,,,
,,,,,,,,,,,,,,1,001,2024-08-25_15h00.14.666,IAT(Formal),2021.2.3,Win32,59.88023952,,,,,,,,,,,,,,,,,,,,,,,,,,,,,,,,,,,,,,,,,,,,i,1,0.7535,0,61,61,73,1,自己,i,,,,,,,,,,,,
,,,,,,,,,,,,,,1,001,2024-08-25_15h00.14.666,IAT(Formal),2021.2.3,Win32,59.88023952,,,,,,,,,,,,,,,,,,,,,,,,,,,,,,,,,,,,,,,,,,,,e,1,0.571,0,62,62,6,1,他们,e,,,,,,,,,,,,
,,,,,,,,,,,,,,1,001,2024-08-25_15h00.14.666,IAT(Formal),2021.2.3,Win32,59.88023952,,,,,,,,,,,,,,,,,,,,,,,,,,,,,,,,,,,,,,,,,,,,i,1,1.0085,0,63,63,50,1,我,i,,,,,,,,,,,,
,,,,,,,,,,,,,,1,001,2024-08-25_15h00.14.666,IAT(Formal),2021.2.3,Win32,59.88023952,,,,,,,,,,,,,,,,,,,,,,,,,,,,,,,,,,,,,,,,,,,,e,1,0.9353,0,64,64,29,1,诚恳,e,,,,,,,,,,,,
,,,,,,,,,,,,,,1,001,2024-08-25_15h00.14.666,IAT(Formal),2021.2.3,Win32,59.88023952,,,,,,,,,,,,,,,,,,,,,,,,,,,,,,,,,,,,,,,,,,,,e,1,0.5236,0,65,65,24,1,朴实,e,,,,,,,,,,,,
,,,,,,,,,,,,,,1,001,2024-08-25_15h00.14.666,IAT(Formal),2021.2.3,Win32,59.88023952,,,,,,,,,,,,,,,,,,,,,,,,,,,,,,,,,,,,,,,,,,,,i,0,0.6334,0,66,66,5,1,他,e,,,,,,,,,,,,
,,,,,,,,,,,,,,1,001,2024-08-25_15h00.14.666,IAT(Formal),2021.2.3,Win32,59.88023952,,,,,,,,,,,,,,,,,,,,,,,,,,,,,,,,,,,,,,,,,,,,e,0,0.6501,0,67,67,47,1,固执,i,,,,,,,,,,,,
,,,,,,,,,,,,,,1,001,2024-08-25_15h00.14.666,IAT(Formal),2021.2.3,Win32,59.88023952,,,,,,,,,,,,,,,,,,,,,,,,,,,,,,,,,,,,,,,,,,,,i,1,0.6277,0,68,68,40,1,执拗,i,,,,,,,,,,,,
,,,,,,,,,,,,,,1,001,2024-08-25_15h00.14.666,IAT(Formal),2021.2.3,Win32,59.88023952,,,,,,,,,,,,,,,,,,,,,,,,,,,,,,,,,,,,,,,,,,,,e,1,0.6361,0,69,69,7,1,他的,e,,,,,,,,,,,,
,,,,,,,,,,,,,,1,001,2024-08-25_15h00.14.666,IAT(Formal),2021.2.3,Win32,59.88023952,,,,,,,,,,,,,,,,,,,,,,,,,,,,,,,,,,,,,,,,,,,,e,1,0.6502,0,70,70,23,1,公正,e,,,,,,,,,,,,
,,,,,,,,,,,,,,1,001,2024-08-25_15h00.14.666,IAT(Formal),2021.2.3,Win32,59.88023952,,,,,,,,,,,,,,,,,,,,,,,,,,,,,,,,,,,,,,,,,,,,e,1,0.4839,0,71,71,13,1,杰出,e,,,,,,,,,,,,
,,,,,,,,,,,,,,1,001,2024-08-25_15h00.14.666,IAT(Formal),2021.2.3,Win32,59.88023952,,,,,,,,,,,,,,,,,,,,,,,,,,,,,,,,,,,,,,,,,,,,e,1,1.3563,0,72,72,69,1,其他,e,,,,,,,,,,,,
,,,,,,,,,,,,,,1,001,2024-08-25_15h00.14.666,IAT(Formal),2021.2.3,Win32,59.88023952,,,,,,,,,,,,,,,,,,,,,,,,,,,,,,,,,,,,,,,,,,,,e,1,0.6054,0,73,73,25,1,细腻,e,,,,,,,,,,,,
,,,,,,,,,,,,,,1,001,2024-08-25_15h00.14.666,IAT(Formal),2021.2.3,Win32,59.88023952,,,,,,,,,,,,,,,,,,,,,,,,,,,,,,,,,,,,,,,,,,,,e,1,0.7235,0,74,74,9,1,其他,e,,,,,,,,,,,,
,,,,,,,,,,,,,,1,001,2024-08-25_15h00.14.666,IAT(Formal),2021.2.3,Win32,59.88023952,,,,,,,,,,,,,,,,,,,,,,,,,,,,,,,,,,,,,,,,,,,,i,1,0.4954,0,75,75,31,1,虚伪,i,,,,,,,,,,,,
,,,,,,,,,,,,,,1,001,2024-08-25_15h00.14.666,IAT(Formal),2021.2.3,Win32,59.88023952,,,,,,,,,,,,,,,,,,,,,,,,,,,,,,,,,,,,,,,,,,,,e,1,0.5546,0,76,76,14,1,乐观,e,,,,,,,,,,,,
,,,,,,,,,,,,,,1,001,2024-08-25_15h00.14.666,IAT(Formal),2021.2.3,Win32,59.88023952,,,,,,,,,,,,,,,,,,,,,,,,,,,,,,,,,,,,,,,,,,,,i,1,1.1509,0,77,77,63,1,自己,i,,,,,,,,,,,,
,,,,,,,,,,,,,,1,001,2024-08-25_15h00.14.666,IAT(Formal),2021.2.3,Win32,59.88023952,,,,,,,,,,,,,,,,,,,,,,,,,,,,,,,,,,,,,,,,,,,,i,1,0.5579,0,78,78,51,1,我的,i,,,,,,,,,,,,
,,,,,,,,,,,,,,1,001,2024-08-25_15h00.14.666,IAT(Formal),2021.2.3,Win32,59.88023952,,,,,,,,,,,,,,,,,,,,,,,,,,,,,,,,,,,,,,,,,,,,e,0,1.1414,0,79,79,38,1,鲁莽,i,,,,,,,,,,,,
,,,,,,,,,,,,,,1,001,2024-08-25_15h00.14.666,IAT(Formal),2021.2.3,Win32,59.88023952,,,,,,,,,,,,,,,,,,,,,,,,,,,,,,,,,,,,,,,,,,,,,,,,,,,,其他,e,space,18.0378,e,1,0.9278,0,0,0,79,1,,
,,,,,,,,,,,,,,1,001,2024-08-25_15h00.14.666,IAT(Formal),2021.2.3,Win32,59.88023952,,,,,,,,,,,,,,,,,,,,,,,,,,,,,,,,,,,,,,,,,,,,,,,,,,,,自己,i,,,i,1,0.5888,0,1,1,3,1,,
,,,,,,,,,,,,,,1,001,2024-08-25_15h00.14.666,IAT(Formal),2021.2.3,Win32,59.88023952,,,,,,,,,,,,,,,,,,,,,,,,,,,,,,,,,,,,,,,,,,,,,,,,,,,,他们,e,,,e,1,0.4904,0,2,2,76,1,,
,,,,,,,,,,,,,,1,001,2024-08-25_15h00.14.666,IAT(Formal),2021.2.3,Win32,59.88023952,,,,,,,,,,,,,,,,,,,,,,,,,,,,,,,,,,,,,,,,,,,,,,,,,,,,我,i,,,i,1,0.4069,0,3,3,60,1,,
,,,,,,,,,,,,,,1,001,2024-08-25_15h00.14.666,IAT(Formal),2021.2.3,Win32,59.88023952,,,,,,,,,,,,,,,,,,,,,,,,,,,,,,,,,,,,,,,,,,,,,,,,,,,,热情,e,,,e,1,1.2231,0,4,4,27,1,,
,,,,,,,,,,,,,,1,001,2024-08-25_15h00.14.666,IAT(Formal),2021.2.3,Win32,59.88023952,,,,,,,,,,,,,,,,,,,,,,,,,,,,,,,,,,,,,,,,,,,,,,,,,,,,俺,i,,,i,1,0.5822,0,5,5,74,1,,
,,,,,,,,,,,,,,1,001,2024-08-25_15h00.14.666,IAT(Formal),2021.2.3,Win32,59.88023952,,,,,,,,,,,,,,,,,,,,,,,,,,,,,,,,,,,,,,,,,,,,,,,,,,,,我们,i,,,i,1,0.6252,0,6,6,72,1,,
,,,,,,,,,,,,,,1,001,2024-08-25_15h00.14.666,IAT(Formal),2021.2.3,Win32,59.88023952,,,,,,,,,,,,,,,,,,,,,,,,,,,,,,,,,,,,,,,,,,,,,,,,,,,,机智,e,,,e,1,0.7275,0,7,7,19,1,,
,,,,,,,,,,,,,,1,001,2024-08-25_15h00.14.666,IAT(Formal),2021.2.3,Win32,59.88023952,,,,,,,,,,,,,,,,,,,,,,,,,,,,,,,,,,,,,,,,,,,,,,,,,,,,暴躁,i,,,i,1,0.4623,0,8,8,44,1,,
,,,,,,,,,,,,,,1,001,2024-08-25_15h00.14.666,IAT(Formal),2021.2.3,Win32,59.88023952,,,,,,,,,,,,,,,,,,,,,,,,,,,,,,,,,,,,,,,,,,,,,,,,,,,,他人,e,,,e,1,0.4748,0,9,9,58,1,,
,,,,,,,,,,,,,,1,001,2024-08-25_15h00.14.666,IAT(Formal),2021.2.3,Win32,59.88023952,,,,,,,,,,,,,,,,,,,,,,,,,,,,,,,,,,,,,,,,,,,,,,,,,,,,自己,i,,,i,1,0.5659,0,10,10,63,1,,
,,,,,,,,,,,,,,1,001,2024-08-25_15h00.14.666,IAT(Formal),2021.2.3,Win32,59.88023952,,,,,,,,,,,,,,,,,,,,,,,,,,,,,,,,,,,,,,,,,,,,,,,,,,,,诚恳,e,,,e,1,0.6352,0,11,11,29,1,,
,,,,,,,,,,,,,,1,001,2024-08-25_15h00.14.666,IAT(Formal),2021.2.3,Win32,59.88023952,,,,,,,,,,,,,,,,,,,,,,,,,,,,,,,,,,,,,,,,,,,,,,,,,,,,他人,e,,,i,0,0.6785,0,12,12,78,1,,
,,,,,,,,,,,,,,1,001,2024-08-25_15h00.14.666,IAT(Formal),2021.2.3,Win32,59.88023952,,,,,,,,,,,,,,,,,,,,,,,,,,,,,,,,,,,,,,,,,,,,,,,,,,,,他们,e,,,e,1,0.5016,0,13,13,6,1,,
,,,,,,,,,,,,,,1,001,2024-08-25_15h00.14.666,IAT(Formal),2021.2.3,Win32,59.88023952,,,,,,,,,,,,,,,,,,,,,,,,,,,,,,,,,,,,,,,,,,,,,,,,,,,,自卑,i,,,i,1,1.2649,0,14,14,36,1,,
,,,,,,,,,,,,,,1,001,2024-08-25_15h00.14.666,IAT(Formal),2021.2.3,Win32,59.88023952,,,,,,,,,,,,,,,,,,,,,,,,,,,,,,,,,,,,,,,,,,,,,,,,,,,,愚蠢,i,,,i,1,0.6394,0,15,15,32,1,,
,,,,,,,,,,,,,,1,001,2024-08-25_15h00.14.666,IAT(Formal),2021.2.3,Win32,59.88023952,,,,,,,,,,,,,,,,,,,,,,,,,,,,,,,,,,,,,,,,,,,,,,,,,,,,其他,e,,,e,1,0.6391,0,16,16,9,1,,
,,,,,,,,,,,,,,1,001,2024-08-25_15h00.14.666,IAT(Formal),2021.2.3,Win32,59.88023952,,,,,,,,,,,,,,,,,,,,,,,,,,,,,,,,,,,,,,,,,,,,,,,,,,,,认真,e,,,e,1,1.1951,0,17,17,20,1,,
,,,,,,,,,,,,,,1,001,2024-08-25_15h00.14.666,IAT(Formal),2021.2.3,Win32,59.88023952,,,,,,,,,,,,,,,,,,,,,,,,,,,,,,,,,,,,,,,,,,,,,,,,,,,,他,e,,,i,0,0.5343,0,18,18,75,1,,
,,,,,,,,,,,,,,1,001,2024-08-25_15h00.14.666,IAT(Formal),2021.2.3,Win32,59.88023952,,,,,,,,,,,,,,,,,,,,,,,,,,,,,,,,,,,,,,,,,,,,,,,,,,,,冒失,i,,,i,1,0.9171,0,19,19,39,1,,
,,,,,,,,,,,,,,1,001,2024-08-25_15h00.14.666,IAT(Formal),2021.2.3,Win32,59.88023952,,,,,,,,,,,,,,,,,,,,,,,,,,,,,,,,,,,,,,,,,,,,,,,,,,,,稳重,e,,,e,1,0.717,0,20,20,21,1,,
,,,,,,,,,,,,,,1,001,2024-08-25_15h00.14.666,IAT(Formal),2021.2.3,Win32,59.88023952,,,,,,,,,,,,,,,,,,,,,,,,,,,,,,,,,,,,,,,,,,,,,,,,,,,,优秀,e,,,e,1,0.5242,0,21,21,10,1,,
,,,,,,,,,,,,,,1,001,2024-08-25_15h00.14.666,IAT(Formal),2021.2.3,Win32,59.88023952,,,,,,,,,,,,,,,,,,,,,,,,,,,,,,,,,,,,,,,,,,,,,,,,,,,,俺,i,,,i,1,0.6929,0,22,22,64,1,,
,,,,,,,,,,,,,,1,001,2024-08-25_15h00.14.666,IAT(Formal),2021.2.3,Win32,59.88023952,,,,,,,,,,,,,,,,,,,,,,,,,,,,,,,,,,,,,,,,,,,,,,,,,,,,消极,i,,,i,1,0.7061,0,23,23,35,1,,
,,,,,,,,,,,,,,1,001,2024-08-25_15h00.14.666,IAT(Formal),2021.2.3,Win32,59.88023952,,,,,,,,,,,,,,,,,,,,,,,,,,,,,,,,,,,,,,,,,,,,,,,,,,,,刻薄,i,,,i,1,0.9139,0,24,24,33,1,,
,,,,,,,,,,,,,,1,001,2024-08-25_15h00.14.666,IAT(Formal),2021.2.3,Win32,59.88023952,,,,,,,,,,,,,,,,,,,,,,,,,,,,,,,,,,,,,,,,,,,,,,,,,,,,他,e,,,e,1,0.7754,0,25,25,65,1,,
,,,,,,,,,,,,,,1,001,2024-08-25_15h00.14.666,IAT(Formal),2021.2.3,Win32,59.88023952,,,,,,,,,,,,,,,,,,,,,,,,,,,,,,,,,,,,,,,,,,,,,,,,,,,,傲慢,i,,,i,1,0.7594,0,26,26,37,1,,
,,,,,,,,,,,,,,1,001,2024-08-25_15h00.14.666,IAT(Formal),2021.2.3,Win32,59.88023952,,,,,,,,,,,,,,,,,,,,,,,,,,,,,,,,,,,,,,,,,,,,,,,,,,,,他人,e,,,e,1,0.6257,0,27,27,68,1,,
,,,,,,,,,,,,,,1,001,2024-08-25_15h00.14.666,IAT(Formal),2021.2.3,Win32,59.88023952,,,,,,,,,,,,,,,,,,,,,,,,,,,,,,,,,,,,,,,,,,,,,,,,,,,,活泼,e,,,e,1,0.6104,0,28,28,28,1,,
,,,,,,,,,,,,,,1,001,2024-08-25_15h00.14.666,IAT(Formal),2021.2.3,Win32,59.88023952,,,,,,,,,,,,,,,,,,,,,,,,,,,,,,,,,,,,,,,,,,,,,,,,,,,,我的,i,,,i,1,0.6522,0,29,29,71,1,,
,,,,,,,,,,,,,,1,001,2024-08-25_15h00.14.666,IAT(Formal),2021.2.3,Win32,59.88023952,,,,,,,,,,,,,,,,,,,,,,,,,,,,,,,,,,,,,,,,,,,,,,,,,,,,杰出,e,,,e,1,0.5608,0,30,30,13,1,,
,,,,,,,,,,,,,,1,001,2024-08-25_15h00.14.666,IAT(Formal),2021.2.3,Win32,59.88023952,,,,,,,,,,,,,,,,,,,,,,,,,,,,,,,,,,,,,,,,,,,,,,,,,,,,我们,i,,,i,1,1.2085,0,31,31,62,1,,
,,,,,,,,,,,,,,1,001,2024-08-25_15h00.14.666,IAT(Formal),2021.2.3,Win32,59.88023952,,,,,,,,,,,,,,,,,,,,,,,,,,,,,,,,,,,,,,,,,,,,,,,,,,,,他们,e,,,e,1,0.6197,0,32,32,66,1,,
,,,,,,,,,,,,,,1,001,2024-08-25_15h00.14.666,IAT(Formal),2021.2.3,Win32,59.88023952,,,,,,,,,,,,,,,,,,,,,,,,,,,,,,,,,,,,,,,,,,,,,,,,,,,,他,e,,,e,1,0.8448,0,33,33,55,1,,
,,,,,,,,,,,,,,1,001,2024-08-25_15h00.14.666,IAT(Formal),2021.2.3,Win32,59.88023952,,,,,,,,,,,,,,,,,,,,,,,,,,,,,,,,,,,,,,,,,,,,,,,,,,,,我的,i,,,i,1,0.6821,0,34,34,1,1,,
,,,,,,,,,,,,,,1,001,2024-08-25_15h00.14.666,IAT(Formal),2021.2.3,Win32,59.88023952,,,,,,,,,,,,,,,,,,,,,,,,,,,,,,,,,,,,,,,,,,,,,,,,,,,,细腻,e,,,e,1,0.7957,0,35,35,25,1,,
,,,,,,,,,,,,,,1,001,2024-08-25_15h00.14.666,IAT(Formal),2021.2.3,Win32,59.88023952,,,,,,,,,,,,,,,,,,,,,,,,,,,,,,,,,,,,,,,,,,,,,,,,,,,,我的,i,,,i,1,0.8093,0,36,36,51,1,,
,,,,,,,,,,,,,,1,001,2024-08-25_15h00.14.666,IAT(Formal),2021.2.3,Win32,59.88023952,,,,,,,,,,,,,,,,,,,,,,,,,,,,,,,,,,,,,,,,,,,,,,,,,,,,崇高,e,,,e,1,0.6095,0,37,37,11,1,,
,,,,,,,,,,,,,,1,001,2024-08-25_15h00.14.666,IAT(Formal),2021.2.3,Win32,59.88023952,,,,,,,,,,,,,,,,,,,,,,,,,,,,,,,,,,,,,,,,,,,,,,,,,,,,勤奋,e,,,e,1,0.526,0,38,38,18,1,,
,,,,,,,,,,,,,,1,001,2024-08-25_15h00.14.666,IAT(Formal),2021.2.3,Win32,59.88023952,,,,,,,,,,,,,,,,,,,,,,,,,,,,,,,,,,,,,,,,,,,,,,,,,,,,散漫,i,,,i,1,0.6775,0,39,39,41,1,,
,,,,,,,,,,,,,,1,001,2024-08-25_15h00.14.666,IAT(Formal),2021.2.3,Win32,59.88023952,,,,,,,,,,,,,,,,,,,,,,,,,,,,,,,,,,,,,,,,,,,,,,,,,,,,无私,e,,,e,1,0.7582,0,40,40,22,1,,
,,,,,,,,,,,,,,1,001,2024-08-25_15h00.14.666,IAT(Formal),2021.2.3,Win32,59.88023952,,,,,,,,,,,,,,,,,,,,,,,,,,,,,,,,,,,,,,,,,,,,,,,,,,,,执拗,i,,,i,1,0.566,0,41,41,40,1,,
,,,,,,,,,,,,,,1,001,2024-08-25_15h00.14.666,IAT(Formal),2021.2.3,Win32,59.88023952,,,,,,,,,,,,,,,,,,,,,,,,,,,,,,,,,,,,,,,,,,,,,,,,,,,,他,e,,,e,1,0.4824,0,42,42,5,1,,
,,,,,,,,,,,,,,1,001,2024-08-25_15h00.14.666,IAT(Formal),2021.2.3,Win32,59.88023952,,,,,,,,,,,,,,,,,,,,,,,,,,,,,,,,,,,,,,,,,,,,,,,,,,,,他人,e,,,e,1,0.7278,0,43,43,8,1,,
,,,,,,,,,,,,,,1,001,2024-08-25_15h00.14.666,IAT(Formal),2021.2.3,Win32,59.88023952,,,,,,,,,,,,,,,,,,,,,,,,,,,,,,,,,,,,,,,,,,,,,,,,,,,,他的,e,,,e,1,0.4809,0,44,44,7,1,,
,,,,,,,,,,,,,,1,001,2024-08-25_15h00.14.666,IAT(Formal),2021.2.3,Win32,59.88023952,,,,,,,,,,,,,,,,,,,,,,,,,,,,,,,,,,,,,,,,,,,,,,,,,,,,其他,e,,,e,1,0.6766,0,45,45,59,1,,
,,,,,,,,,,,,,,1,001,2024-08-25_15h00.14.666,IAT(Formal),2021.2.3,Win32,59.88023952,,,,,,,,,,,,,,,,,,,,,,,,,,,,,,,,,,,,,,,,,,,,,,,,,,,,我,i,,,i,1,0.5992,0,46,46,0,1,,
,,,,,,,,,,,,,,1,001,2024-08-25_15h00.14.666,IAT(Formal),2021.2.3,Win32,59.88023952,,,,,,,,,,,,,,,,,,,,,,,,,,,,,,,,,,,,,,,,,,,,,,,,,,,,我,i,,,i,1,0.6671,0,47,47,70,1,,
,,,,,,,,,,,,,,1,001,2024-08-25_15h00.14.666,IAT(Formal),2021.2.3,Win32,59.88023952,,,,,,,,,,,,,,,,,,,,,,,,,,,,,,,,,,,,,,,,,,,,,,,,,,,,我们,i,,,i,1,0.5867,0,48,48,52,1,,
,,,,,,,,,,,,,,1,001,2024-08-25_15h00.14.666,IAT(Formal),2021.2.3,Win32,59.88023952,,,,,,,,,,,,,,,,,,,,,,,,,,,,,,,,,,,,,,,,,,,,,,,,,,,,公正,e,,,e,1,0.623,0,49,49,23,1,,
,,,,,,,,,,,,,,1,001,2024-08-25_15h00.14.666,IAT(Formal),2021.2.3,Win32,59.88023952,,,,,,,,,,,,,,,,,,,,,,,,,,,,,,,,,,,,,,,,,,,,,,,,,,,,乐观,e,,,e,1,1.1756,0,50,50,14,1,,
,,,,,,,,,,,,,,1,001,2024-08-25_15h00.14.666,IAT(Formal),2021.2.3,Win32,59.88023952,,,,,,,,,,,,,,,,,,,,,,,,,,,,,,,,,,,,,,,,,,,,,,,,,,,,猖狂,i,,,i,1,0.5392,0,51,51,45,1,,
,,,,,,,,,,,,,,1,001,2024-08-25_15h00.14.666,IAT(Formal),2021.2.3,Win32,59.88023952,,,,,,,,,,,,,,,,,,,,,,,,,,,,,,,,,,,,,,,,,,,,,,,,,,,,聪明,e,,,e,1,0.6842,0,52,52,12,1,,
,,,,,,,,,,,,,,1,001,2024-08-25_15h00.14.666,IAT(Formal),2021.2.3,Win32,59.88023952,,,,,,,,,,,,,,,,,,,,,,,,,,,,,,,,,,,,,,,,,,,,,,,,,,,,诚实,e,,,e,1,0.6017,0,53,53,15,1,,
,,,,,,,,,,,,,,1,001,2024-08-25_15h00.14.666,IAT(Formal),2021.2.3,Win32,59.88023952,,,,,,,,,,,,,,,,,,,,,,,,,,,,,,,,,,,,,,,,,,,,,,,,,,,,他的,e,,,e,1,0.4583,0,54,54,77,1,,
,,,,,,,,,,,,,,1,001,2024-08-25_15h00.14.666,IAT(Formal),2021.2.3,Win32,59.88023952,,,,,,,,,,,,,,,,,,,,,,,,,,,,,,,,,,,,,,,,,,,,,,,,,,,,固执,i,,,i,1,0.6081,0,55,55,47,1,,
,,,,,,,,,,,,,,1,001,2024-08-25_15h00.14.666,IAT(Formal),2021.2.3,Win32,59.88023952,,,,,,,,,,,,,,,,,,,,,,,,,,,,,,,,,,,,,,,,,,,,,,,,,,,,悲观,i,,,e,0,0.5758,0,56,56,34,1,,
,,,,,,,,,,,,,,1,001,2024-08-25_15h00.14.666,IAT(Formal),2021.2.3,Win32,59.88023952,,,,,,,,,,,,,,,,,,,,,,,,,,,,,,,,,,,,,,,,,,,,,,,,,,,,朴实,e,,,e,1,0.5058,0,57,57,24,1,,
,,,,,,,,,,,,,,1,001,2024-08-25_15h00.14.666,IAT(Formal),2021.2.3,Win32,59.88023952,,,,,,,,,,,,,,,,,,,,,,,,,,,,,,,,,,,,,,,,,,,,,,,,,,,,野蛮,i,,,i,1,0.6581,0,58,58,46,1,,
,,,,,,,,,,,,,,1,001,2024-08-25_15h00.14.666,IAT(Formal),2021.2.3,Win32,59.88023952,,,,,,,,,,,,,,,,,,,,,,,,,,,,,,,,,,,,,,,,,,,,,,,,,,,,俺,i,,,i,1,0.7893,0,59,59,54,1,,
,,,,,,,,,,,,,,1,001,2024-08-25_15h00.14.666,IAT(Formal),2021.2.3,Win32,59.88023952,,,,,,,,,,,,,,,,,,,,,,,,,,,,,,,,,,,,,,,,,,,,,,,,,,,,自己,i,,,i,1,0.5694,0,60,60,73,1,,
,,,,,,,,,,,,,,1,001,2024-08-25_15h00.14.666,IAT(Formal),2021.2.3,Win32,59.88023952,,,,,,,,,,,,,,,,,,,,,,,,,,,,,,,,,,,,,,,,,,,,,,,,,,,,轻率,i,,,i,1,0.5801,0,61,61,48,1,,
,,,,,,,,,,,,,,1,001,2024-08-25_15h00.14.666,IAT(Formal),2021.2.3,Win32,59.88023952,,,,,,,,,,,,,,,,,,,,,,,,,,,,,,,,,,,,,,,,,,,,,,,,,,,,他的,e,,,e,1,0.7765,0,62,62,67,1,,
,,,,,,,,,,,,,,1,001,2024-08-25_15h00.14.666,IAT(Formal),2021.2.3,Win32,59.88023952,,,,,,,,,,,,,,,,,,,,,,,,,,,,,,,,,,,,,,,,,,,,,,,,,,,,正直,e,,,e,1,0.6026,0,63,63,16,1,,
,,,,,,,,,,,,,,1,001,2024-08-25_15h00.14.666,IAT(Formal),2021.2.3,Win32,59.88023952,,,,,,,,,,,,,,,,,,,,,,,,,,,,,,,,,,,,,,,,,,,,,,,,,,,,下贱,i,,,i,1,0.7503,0,64,64,49,1,,
,,,,,,,,,,,,,,1,001,2024-08-25_15h00.14.666,IAT(Formal),2021.2.3,Win32,59.88023952,,,,,,,,,,,,,,,,,,,,,,,,,,,,,,,,,,,,,,,,,,,,,,,,,,,,鲁莽,i,,,i,1,0.5919,0,65,65,38,1,,
,,,,,,,,,,,,,,1,001,2024-08-25_15h00.14.666,IAT(Formal),2021.2.3,Win32,59.88023952,,,,,,,,,,,,,,,,,,,,,,,,,,,,,,,,,,,,,,,,,,,,,,,,,,,,冷静,e,,,e,1,0.6658,0,66,66,26,1,,
,,,,,,,,,,,,,,1,001,2024-08-25_15h00.14.666,IAT(Formal),2021.2.3,Win32,59.88023952,,,,,,,,,,,,,,,,,,,,,,,,,,,,,,,,,,,,,,,,,,,,,,,,,,,,凶狠,i,,,i,1,0.5806,0,67,67,42,1,,
,,,,,,,,,,,,,,1,001,2024-08-25_15h00.14.666,IAT(Formal),2021.2.3,Win32,59.88023952,,,,,,,,,,,,,,,,,,,,,,,,,,,,,,,,,,,,,,,,,,,,,,,,,,,,虚伪,i,,,i,1,0.6219,0,68,68,31,1,,
,,,,,,,,,,,,,,1,001,2024-08-25_15h00.14.666,IAT(Formal),2021.2.3,Win32,59.88023952,,,,,,,,,,,,,,,,,,,,,,,,,,,,,,,,,,,,,,,,,,,,,,,,,,,,俺,i,,,i,1,0.677,0,69,69,4,1,,
,,,,,,,,,,,,,,1,001,2024-08-25_15h00.14.666,IAT(Formal),2021.2.3,Win32,59.88023952,,,,,,,,,,,,,,,,,,,,,,,,,,,,,,,,,,,,,,,,,,,,,,,,,,,,其他,e,,,e,1,0.6591,0,70,70,69,1,,
,,,,,,,,,,,,,,1,001,2024-08-25_15h00.14.666,IAT(Formal),2021.2.3,Win32,59.88023952,,,,,,,,,,,,,,,,,,,,,,,,,,,,,,,,,,,,,,,,,,,,,,,,,,,,我们,i,,,i,1,0.9008,0,71,71,2,1,,
,,,,,,,,,,,,,,1,001,2024-08-25_15h00.14.666,IAT(Formal),2021.2.3,Win32,59.88023952,,,,,,,,,,,,,,,,,,,,,,,,,,,,,,,,,,,,,,,,,,,,,,,,,,,,卑鄙,i,,,i,1,0.5817,0,72,72,30,1,,
,,,,,,,,,,,,,,1,001,2024-08-25_15h00.14.666,IAT(Formal),2021.2.3,Win32,59.88023952,,,,,,,,,,,,,,,,,,,,,,,,,,,,,,,,,,,,,,,,,,,,,,,,,,,,他们,e,,,e,1,0.7247,0,73,73,56,1,,
,,,,,,,,,,,,,,1,001,2024-08-25_15h00.14.666,IAT(Formal),2021.2.3,Win32,59.88023952,,,,,,,,,,,,,,,,,,,,,,,,,,,,,,,,,,,,,,,,,,,,,,,,,,,,勇敢,e,,,e,1,0.6445,0,74,74,17,1,,
,,,,,,,,,,,,,,1,001,2024-08-25_15h00.14.666,IAT(Formal),2021.2.3,Win32,59.88023952,,,,,,,,,,,,,,,,,,,,,,,,,,,,,,,,,,,,,,,,,,,,,,,,,,,,我,i,,,i,1,0.5466,0,75,75,50,1,,
,,,,,,,,,,,,,,1,001,2024-08-25_15h00.14.666,IAT(Formal),2021.2.3,Win32,59.88023952,,,,,,,,,,,,,,,,,,,,,,,,,,,,,,,,,,,,,,,,,,,,,,,,,,,,他的,e,,,e,1,1.3073,0,76,76,57,1,,
,,,,,,,,,,,,,,1,001,2024-08-25_15h00.14.666,IAT(Formal),2021.2.3,Win32,59.88023952,,,,,,,,,,,,,,,,,,,,,,,,,,,,,,,,,,,,,,,,,,,,,,,,,,,,我的,i,,,i,1,0.4994,0,77,77,61,1,,
,,,,,,,,,,,,,,1,001,2024-08-25_15h00.14.666,IAT(Formal),2021.2.3,Win32,59.88023952,,,,,,,,,,,,,,,,,,,,,,,,,,,,,,,,,,,,,,,,,,,,,,,,,,,,自私,i,,,i,1,1.4499,0,78,78,43,1,,
,,,,,,,,,,,,,,1,001,2024-08-25_15h00.14.666,IAT(Formal),2021.2.3,Win32,59.88023952,,,,,,,,,,,,,,,,,,,,,,,,,,,,,,,,,,,,,,,,,,,,,,,,,,,,自己,i,,,i,1,0.7834,0,79,79,53,1,,
,,,,,,,,,,,,,,1,001,2024-08-25_15h00.14.666,IAT(Formal),2021.2.3,Win32,59.88023952,,,,,,,,,,,,,,,,,,,,,,,,,,,,,,,,,,,,,,,,,,,,,,,,,,,,优秀,e,,,e,1,0.5248,1,0,80,10,1,,
,,,,,,,,,,,,,,1,001,2024-08-25_15h00.14.666,IAT(Formal),2021.2.3,Win32,59.88023952,,,,,,,,,,,,,,,,,,,,,,,,,,,,,,,,,,,,,,,,,,,,,,,,,,,,冒失,i,,,i,1,0.4997,1,1,81,39,1,,
,,,,,,,,,,,,,,1,001,2024-08-25_15h00.14.666,IAT(Formal),2021.2.3,Win32,59.88023952,,,,,,,,,,,,,,,,,,,,,,,,,,,,,,,,,,,,,,,,,,,,,,,,,,,,认真,e,,,e,1,0.5848,1,2,82,20,1,,
,,,,,,,,,,,,,,1,001,2024-08-25_15h00.14.666,IAT(Formal),2021.2.3,Win32,59.88023952,,,,,,,,,,,,,,,,,,,,,,,,,,,,,,,,,,,,,,,,,,,,,,,,,,,,我,i,,,i,1,0.5486,1,3,83,70,1,,
,,,,,,,,,,,,,,1,001,2024-08-25_15h00.14.666,IAT(Formal),2021.2.3,Win32,59.88023952,,,,,,,,,,,,,,,,,,,,,,,,,,,,,,,,,,,,,,,,,,,,,,,,,,,,刻薄,i,,,i,1,0.5754,1,4,84,33,1,,
,,,,,,,,,,,,,,1,001,2024-08-25_15h00.14.666,IAT(Formal),2021.2.3,Win32,59.88023952,,,,,,,,,,,,,,,,,,,,,,,,,,,,,,,,,,,,,,,,,,,,,,,,,,,,他,e,,,e,1,0.4373,1,5,85,75,1,,
,,,,,,,,,,,,,,1,001,2024-08-25_15h00.14.666,IAT(Formal),2021.2.3,Win32,59.88023952,,,,,,,,,,,,,,,,,,,,,,,,,,,,,,,,,,,,,,,,,,,,,,,,,,,,俺,i,,,i,1,0.5633,1,6,86,54,1,,
,,,,,,,,,,,,,,1,001,2024-08-25_15h00.14.666,IAT(Formal),2021.2.3,Win32,59.88023952,,,,,,,,,,,,,,,,,,,,,,,,,,,,,,,,,,,,,,,,,,,,,,,,,,,,他的,e,,,e,1,0.6636,1,7,87,77,1,,
,,,,,,,,,,,,,,1,001,2024-08-25_15h00.14.666,IAT(Formal),2021.2.3,Win32,59.88023952,,,,,,,,,,,,,,,,,,,,,,,,,,,,,,,,,,,,,,,,,,,,,,,,,,,,他的,e,,,e,1,0.4798,1,8,88,7,1,,
,,,,,,,,,,,,,,1,001,2024-08-25_15h00.14.666,IAT(Formal),2021.2.3,Win32,59.88023952,,,,,,,,,,,,,,,,,,,,,,,,,,,,,,,,,,,,,,,,,,,,,,,,,,,,轻率,i,,,i,1,0.7216,1,9,89,48,1,,
,,,,,,,,,,,,,,1,001,2024-08-25_15h00.14.666,IAT(Formal),2021.2.3,Win32,59.88023952,,,,,,,,,,,,,,,,,,,,,,,,,,,,,,,,,,,,,,,,,,,,,,,,,,,,我,i,,,i,1,0.6817,1,10,90,50,1,,
,,,,,,,,,,,,,,1,001,2024-08-25_15h00.14.666,IAT(Formal),2021.2.3,Win32,59.88023952,,,,,,,,,,,,,,,,,,,,,,,,,,,,,,,,,,,,,,,,,,,,,,,,,,,,其他,e,,,e,1,0.5164,1,11,91,79,1,,
,,,,,,,,,,,,,,1,001,2024-08-25_15h00.14.666,IAT(Formal),2021.2.3,Win32,59.88023952,,,,,,,,,,,,,,,,,,,,,,,,,,,,,,,,,,,,,,,,,,,,,,,,,,,,我,i,,,i,1,0.584,1,12,92,0,1,,
,,,,,,,,,,,,,,1,001,2024-08-25_15h00.14.666,IAT(Formal),2021.2.3,Win32,59.88023952,,,,,,,,,,,,,,,,,,,,,,,,,,,,,,,,,,,,,,,,,,,,,,,,,,,,我的,i,,,i,1,0.6585,1,13,93,51,1,,
,,,,,,,,,,,,,,1,001,2024-08-25_15h00.14.666,IAT(Formal),2021.2.3,Win32,59.88023952,,,,,,,,,,,,,,,,,,,,,,,,,,,,,,,,,,,,,,,,,,,,,,,,,,,,散漫,i,,,i,1,0.826,1,14,94,41,1,,
,,,,,,,,,,,,,,1,001,2024-08-25_15h00.14.666,IAT(Formal),2021.2.3,Win32,59.88023952,,,,,,,,,,,,,,,,,,,,,,,,,,,,,,,,,,,,,,,,,,,,,,,,,,,,公正,e,,,e,1,0.6489,1,15,95,23,1,,
,,,,,,,,,,,,,,1,001,2024-08-25_15h00.14.666,IAT(Formal),2021.2.3,Win32,59.88023952,,,,,,,,,,,,,,,,,,,,,,,,,,,,,,,,,,,,,,,,,,,,,,,,,,,,下贱,i,,,i,1,0.4535,1,16,96,49,1,,
,,,,,,,,,,,,,,1,001,2024-08-25_15h00.14.666,IAT(Formal),2021.2.3,Win32,59.88023952,,,,,,,,,,,,,,,,,,,,,,,,,,,,,,,,,,,,,,,,,,,,,,,,,,,,自卑,i,,,i,1,0.5318,1,17,97,36,1,,
,,,,,,,,,,,,,,1,001,2024-08-25_15h00.14.666,IAT(Formal),2021.2.3,Win32,59.88023952,,,,,,,,,,,,,,,,,,,,,,,,,,,,,,,,,,,,,,,,,,,,,,,,,,,,我的,i,,,i,1,0.702,1,18,98,71,1,,
,,,,,,,,,,,,,,1,001,2024-08-25_15h00.14.666,IAT(Formal),2021.2.3,Win32,59.88023952,,,,,,,,,,,,,,,,,,,,,,,,,,,,,,,,,,,,,,,,,,,,,,,,,,,,活泼,e,,,e,1,0.6345,1,19,99,28,1,,
,,,,,,,,,,,,,,1,001,2024-08-25_15h00.14.666,IAT(Formal),2021.2.3,Win32,59.88023952,,,,,,,,,,,,,,,,,,,,,,,,,,,,,,,,,,,,,,,,,,,,,,,,,,,,暴躁,i,,,i,1,0.5322,1,20,100,44,1,,
,,,,,,,,,,,,,,1,001,2024-08-25_15h00.14.666,IAT(Formal),2021.2.3,Win32,59.88023952,,,,,,,,,,,,,,,,,,,,,,,,,,,,,,,,,,,,,,,,,,,,,,,,,,,,虚伪,i,,,i,1,0.621,1,21,101,31,1,,
,,,,,,,,,,,,,,1,001,2024-08-25_15h00.14.666,IAT(Formal),2021.2.3,Win32,59.88023952,,,,,,,,,,,,,,,,,,,,,,,,,,,,,,,,,,,,,,,,,,,,,,,,,,,,他人,e,,,e,1,0.632,1,22,102,68,1,,
,,,,,,,,,,,,,,1,001,2024-08-25_15h00.14.666,IAT(Formal),2021.2.3,Win32,59.88023952,,,,,,,,,,,,,,,,,,,,,,,,,,,,,,,,,,,,,,,,,,,,,,,,,,,,无私,e,,,e,1,0.6911,1,23,103,22,1,,
,,,,,,,,,,,,,,1,001,2024-08-25_15h00.14.666,IAT(Formal),2021.2.3,Win32,59.88023952,,,,,,,,,,,,,,,,,,,,,,,,,,,,,,,,,,,,,,,,,,,,,,,,,,,,我的,i,,,i,1,0.5584,1,24,104,61,1,,
,,,,,,,,,,,,,,1,001,2024-08-25_15h00.14.666,IAT(Formal),2021.2.3,Win32,59.88023952,,,,,,,,,,,,,,,,,,,,,,,,,,,,,,,,,,,,,,,,,,,,,,,,,,,,野蛮,i,,,i,1,0.6177,1,25,105,46,1,,
,,,,,,,,,,,,,,1,001,2024-08-25_15h00.14.666,IAT(Formal),2021.2.3,Win32,59.88023952,,,,,,,,,,,,,,,,,,,,,,,,,,,,,,,,,,,,,,,,,,,,,,,,,,,,我们,i,,,i,1,0.9241,1,26,106,62,1,,
,,,,,,,,,,,,,,1,001,2024-08-25_15h00.14.666,IAT(Formal),2021.2.3,Win32,59.88023952,,,,,,,,,,,,,,,,,,,,,,,,,,,,,,,,,,,,,,,,,,,,,,,,,,,,消极,i,,,i,1,0.6598,1,27,107,35,1,,
,,,,,,,,,,,,,,1,001,2024-08-25_15h00.14.666,IAT(Formal),2021.2.3,Win32,59.88023952,,,,,,,,,,,,,,,,,,,,,,,,,,,,,,,,,,,,,,,,,,,,,,,,,,,,他人,e,,,e,1,0.8647,1,28,108,58,1,,
,,,,,,,,,,,,,,1,001,2024-08-25_15h00.14.666,IAT(Formal),2021.2.3,Win32,59.88023952,,,,,,,,,,,,,,,,,,,,,,,,,,,,,,,,,,,,,,,,,,,,,,,,,,,,执拗,i,,,i,1,0.5454,1,29,109,40,1,,
,,,,,,,,,,,,,,1,001,2024-08-25_15h00.14.666,IAT(Formal),2021.2.3,Win32,59.88023952,,,,,,,,,,,,,,,,,,,,,,,,,,,,,,,,,,,,,,,,,,,,,,,,,,,,我们,i,,,e,0,0.582,1,30,110,72,1,,
,,,,,,,,,,,,,,1,001,2024-08-25_15h00.14.666,IAT(Formal),2021.2.3,Win32,59.88023952,,,,,,,,,,,,,,,,,,,,,,,,,,,,,,,,,,,,,,,,,,,,,,,,,,,,崇高,e,,,e,1,0.5649,1,31,111,11,1,,
,,,,,,,,,,,,,,1,001,2024-08-25_15h00.14.666,IAT(Formal),2021.2.3,Win32,59.88023952,,,,,,,,,,,,,,,,,,,,,,,,,,,,,,,,,,,,,,,,,,,,,,,,,,,,猖狂,i,,,i,1,0.5578,1,32,112,45,1,,
,,,,,,,,,,,,,,1,001,2024-08-25_15h00.14.666,IAT(Formal),2021.2.3,Win32,59.88023952,,,,,,,,,,,,,,,,,,,,,,,,,,,,,,,,,,,,,,,,,,,,,,,,,,,,自己,i,,,i,1,0.7266,1,33,113,3,1,,
,,,,,,,,,,,,,,1,001,2024-08-25_15h00.14.666,IAT(Formal),2021.2.3,Win32,59.88023952,,,,,,,,,,,,,,,,,,,,,,,,,,,,,,,,,,,,,,,,,,,,,,,,,,,,他人,e,,,i,0,0.494,1,34,114,78,1,,
,,,,,,,,,,,,,,1,001,2024-08-25_15h00.14.666,IAT(Formal),2021.2.3,Win32,59.88023952,,,,,,,,,,,,,,,,,,,,,,,,,,,,,,,,,,,,,,,,,,,,,,,,,,,,稳重,e,,,e,1,0.6156,1,35,115,21,1,,
,,,,,,,,,,,,,,1,001,2024-08-25_15h00.14.666,IAT(Formal),2021.2.3,Win32,59.88023952,,,,,,,,,,,,,,,,,,,,,,,,,,,,,,,,,,,,,,,,,,,,,,,,,,,,他们,e,,,e,1,0.4312,1,36,116,66,1,,
,,,,,,,,,,,,,,1,001,2024-08-25_15h00.14.666,IAT(Formal),2021.2.3,Win32,59.88023952,,,,,,,,,,,,,,,,,,,,,,,,,,,,,,,,,,,,,,,,,,,,,,,,,,,,机智,e,,,e,1,0.9985,1,37,117,19,1,,
,,,,,,,,,,,,,,1,001,2024-08-25_15h00.14.666,IAT(Formal),2021.2.3,Win32,59.88023952,,,,,,,,,,,,,,,,,,,,,,,,,,,,,,,,,,,,,,,,,,,,,,,,,,,,他,e,,,e,1,0.4322,1,38,118,5,1,,
,,,,,,,,,,,,,,1,001,2024-08-25_15h00.14.666,IAT(Formal),2021.2.3,Win32,59.88023952,,,,,,,,,,,,,,,,,,,,,,,,,,,,,,,,,,,,,,,,,,,,,,,,,,,,悲观,i,,,i,1,0.4751,1,39,119,34,1,,
,,,,,,,,,,,,,,1,001,2024-08-25_15h00.14.666,IAT(Formal),2021.2.3,Win32,59.88023952,,,,,,,,,,,,,,,,,,,,,,,,,,,,,,,,,,,,,,,,,,,,,,,,,,,,他,e,,,e,1,0.4224,1,40,120,65,1,,
,,,,,,,,,,,,,,1,001,2024-08-25_15h00.14.666,IAT(Formal),2021.2.3,Win32,59.88023952,,,,,,,,,,,,,,,,,,,,,,,,,,,,,,,,,,,,,,,,,,,,,,,,,,,,杰出,e,,,e,1,0.5737,1,41,121,13,1,,
,,,,,,,,,,,,,,1,001,2024-08-25_15h00.14.666,IAT(Formal),2021.2.3,Win32,59.88023952,,,,,,,,,,,,,,,,,,,,,,,,,,,,,,,,,,,,,,,,,,,,,,,,,,,,俺,i,,,i,1,0.6798,1,42,122,64,1,,
,,,,,,,,,,,,,,1,001,2024-08-25_15h00.14.666,IAT(Formal),2021.2.3,Win32,59.88023952,,,,,,,,,,,,,,,,,,,,,,,,,,,,,,,,,,,,,,,,,,,,,,,,,,,,俺,i,,,i,1,0.8104,1,43,123,4,1,,
,,,,,,,,,,,,,,1,001,2024-08-25_15h00.14.666,IAT(Formal),2021.2.3,Win32,59.88023952,,,,,,,,,,,,,,,,,,,,,,,,,,,,,,,,,,,,,,,,,,,,,,,,,,,,他们,e,,,e,1,0.6368,1,44,124,76,1,,
,,,,,,,,,,,,,,1,001,2024-08-25_15h00.14.666,IAT(Formal),2021.2.3,Win32,59.88023952,,,,,,,,,,,,,,,,,,,,,,,,,,,,,,,,,,,,,,,,,,,,,,,,,,,,我们,i,,,i,1,0.5897,1,45,125,52,1,,
,,,,,,,,,,,,,,1,001,2024-08-25_15h00.14.666,IAT(Formal),2021.2.3,Win32,59.88023952,,,,,,,,,,,,,,,,,,,,,,,,,,,,,,,,,,,,,,,,,,,,,,,,,,,,自己,i,,,i,1,0.5326,1,46,126,63,1,,
,,,,,,,,,,,,,,1,001,2024-08-25_15h00.14.666,IAT(Formal),2021.2.3,Win32,59.88023952,,,,,,,,,,,,,,,,,,,,,,,,,,,,,,,,,,,,,,,,,,,,,,,,,,,,冷静,e,,,e,1,0.6244,1,47,127,26,1,,
,,,,,,,,,,,,,,1,001,2024-08-25_15h00.14.666,IAT(Formal),2021.2.3,Win32,59.88023952,,,,,,,,,,,,,,,,,,,,,,,,,,,,,,,,,,,,,,,,,,,,,,,,,,,,他们,e,,,e,1,0.5985,1,48,128,6,1,,
,,,,,,,,,,,,,,1,001,2024-08-25_15h00.14.666,IAT(Formal),2021.2.3,Win32,59.88023952,,,,,,,,,,,,,,,,,,,,,,,,,,,,,,,,,,,,,,,,,,,,,,,,,,,,诚恳,e,,,e,1,0.5931,1,49,129,29,1,,
,,,,,,,,,,,,,,1,001,2024-08-25_15h00.14.666,IAT(Formal),2021.2.3,Win32,59.88023952,,,,,,,,,,,,,,,,,,,,,,,,,,,,,,,,,,,,,,,,,,,,,,,,,,,,我,i,,,i,1,0.5334,1,50,130,60,1,,
,,,,,,,,,,,,,,1,001,2024-08-25_15h00.14.666,IAT(Formal),2021.2.3,Win32,59.88023952,,,,,,,,,,,,,,,,,,,,,,,,,,,,,,,,,,,,,,,,,,,,,,,,,,,,他的,e,,,e,1,0.7916,1,51,131,57,1,,
,,,,,,,,,,,,,,1,001,2024-08-25_15h00.14.666,IAT(Formal),2021.2.3,Win32,59.88023952,,,,,,,,,,,,,,,,,,,,,,,,,,,,,,,,,,,,,,,,,,,,,,,,,,,,热情,e,,,e,1,0.6464,1,52,132,27,1,,
,,,,,,,,,,,,,,1,001,2024-08-25_15h00.14.666,IAT(Formal),2021.2.3,Win32,59.88023952,,,,,,,,,,,,,,,,,,,,,,,,,,,,,,,,,,,,,,,,,,,,,,,,,,,,正直,e,,,e,1,0.4586,1,53,133,16,1,,
,,,,,,,,,,,,,,1,001,2024-08-25_15h00.14.666,IAT(Formal),2021.2.3,Win32,59.88023952,,,,,,,,,,,,,,,,,,,,,,,,,,,,,,,,,,,,,,,,,,,,,,,,,,,,自己,i,,,i,1,0.5484,1,54,134,53,1,,
,,,,,,,,,,,,,,1,001,2024-08-25_15h00.14.666,IAT(Formal),2021.2.3,Win32,59.88023952,,,,,,,,,,,,,,,,,,,,,,,,,,,,,,,,,,,,,,,,,,,,,,,,,,,,我们,i,,,i,1,0.71,1,55,135,2,1,,
,,,,,,,,,,,,,,1,001,2024-08-25_15h00.14.666,IAT(Formal),2021.2.3,Win32,59.88023952,,,,,,,,,,,,,,,,,,,,,,,,,,,,,,,,,,,,,,,,,,,,,,,,,,,,他人,e,,,e,1,0.5443,1,56,136,8,1,,
,,,,,,,,,,,,,,1,001,2024-08-25_15h00.14.666,IAT(Formal),2021.2.3,Win32,59.88023952,,,,,,,,,,,,,,,,,,,,,,,,,,,,,,,,,,,,,,,,,,,,,,,,,,,,卑鄙,i,,,i,1,0.6149,1,57,137,30,1,,
,,,,,,,,,,,,,,1,001,2024-08-25_15h00.14.666,IAT(Formal),2021.2.3,Win32,59.88023952,,,,,,,,,,,,,,,,,,,,,,,,,,,,,,,,,,,,,,,,,,,,,,,,,,,,愚蠢,i,,,i,1,0.5729,1,58,138,32,1,,
,,,,,,,,,,,,,,1,001,2024-08-25_15h00.14.666,IAT(Formal),2021.2.3,Win32,59.88023952,,,,,,,,,,,,,,,,,,,,,,,,,,,,,,,,,,,,,,,,,,,,,,,,,,,,凶狠,i,,,i,1,0.5269,1,59,139,42,1,,
,,,,,,,,,,,,,,1,001,2024-08-25_15h00.14.666,IAT(Formal),2021.2.3,Win32,59.88023952,,,,,,,,,,,,,,,,,,,,,,,,,,,,,,,,,,,,,,,,,,,,,,,,,,,,固执,i,,,i,1,0.587,1,60,140,47,1,,
,,,,,,,,,,,,,,1,001,2024-08-25_15h00.14.666,IAT(Formal),2021.2.3,Win32,59.88023952,,,,,,,,,,,,,,,,,,,,,,,,,,,,,,,,,,,,,,,,,,,,,,,,,,,,聪明,e,,,e,1,0.7147,1,61,141,12,1,,
,,,,,,,,,,,,,,1,001,2024-08-25_15h00.14.666,IAT(Formal),2021.2.3,Win32,59.88023952,,,,,,,,,,,,,,,,,,,,,,,,,,,,,,,,,,,,,,,,,,,,,,,,,,,,勤奋,e,,,e,1,0.6005,1,62,142,18,1,,
,,,,,,,,,,,,,,1,001,2024-08-25_15h00.14.666,IAT(Formal),2021.2.3,Win32,59.88023952,,,,,,,,,,,,,,,,,,,,,,,,,,,,,,,,,,,,,,,,,,,,,,,,,,,,我的,i,,,i,1,0.621,1,63,143,1,1,,
,,,,,,,,,,,,,,1,001,2024-08-25_15h00.14.666,IAT(Formal),2021.2.3,Win32,59.88023952,,,,,,,,,,,,,,,,,,,,,,,,,,,,,,,,,,,,,,,,,,,,,,,,,,,,俺,i,,,i,1,0.8112,1,64,144,74,1,,
,,,,,,,,,,,,,,1,001,2024-08-25_15h00.14.666,IAT(Formal),2021.2.3,Win32,59.88023952,,,,,,,,,,,,,,,,,,,,,,,,,,,,,,,,,,,,,,,,,,,,,,,,,,,,勇敢,e,,,e,1,0.682,1,65,145,17,1,,
,,,,,,,,,,,,,,1,001,2024-08-25_15h00.14.666,IAT(Formal),2021.2.3,Win32,59.88023952,,,,,,,,,,,,,,,,,,,,,,,,,,,,,,,,,,,,,,,,,,,,,,,,,,,,他的,e,,,i,0,0.5765,1,66,146,67,1,,
,,,,,,,,,,,,,,1,001,2024-08-25_15h00.14.666,IAT(Formal),2021.2.3,Win32,59.88023952,,,,,,,,,,,,,,,,,,,,,,,,,,,,,,,,,,,,,,,,,,,,,,,,,,,,朴实,e,,,e,1,0.6258,1,67,147,24,1,,
,,,,,,,,,,,,,,1,001,2024-08-25_15h00.14.666,IAT(Formal),2021.2.3,Win32,59.88023952,,,,,,,,,,,,,,,,,,,,,,,,,,,,,,,,,,,,,,,,,,,,,,,,,,,,他们,e,,,e,1,0.4494,1,68,148,56,1,,
,,,,,,,,,,,,,,1,001,2024-08-25_15h00.14.666,IAT(Formal),2021.2.3,Win32,59.88023952,,,,,,,,,,,,,,,,,,,,,,,,,,,,,,,,,,,,,,,,,,,,,,,,,,,,细腻,e,,,e,1,0.5954,1,69,149,25,1,,
,,,,,,,,,,,,,,1,001,2024-08-25_15h00.14.666,IAT(Formal),2021.2.3,Win32,59.88023952,,,,,,,,,,,,,,,,,,,,,,,,,,,,,,,,,,,,,,,,,,,,,,,,,,,,乐观,e,,,e,1,0.6344,1,70,150,14,1,,
,,,,,,,,,,,,,,1,001,2024-08-25_15h00.14.666,IAT(Formal),2021.2.3,Win32,59.88023952,,,,,,,,,,,,,,,,,,,,,,,,,,,,,,,,,,,,,,,,,,,,,,,,,,,,自己,i,,,i,1,0.5554,1,71,151,73,1,,
,,,,,,,,,,,,,,1,001,2024-08-25_15h00.14.666,IAT(Formal),2021.2.3,Win32,59.88023952,,,,,,,,,,,,,,,,,,,,,,,,,,,,,,,,,,,,,,,,,,,,,,,,,,,,他,e,,,e,1,0.4729,1,72,152,55,1,,
,,,,,,,,,,,,,,1,001,2024-08-25_15h00.14.666,IAT(Formal),2021.2.3,Win32,59.88023952,,,,,,,,,,,,,,,,,,,,,,,,,,,,,,,,,,,,,,,,,,,,,,,,,,,,其他,e,,,e,1,0.7526,1,73,153,69,1,,
,,,,,,,,,,,,,,1,001,2024-08-25_15h00.14.666,IAT(Formal),2021.2.3,Win32,59.88023952,,,,,,,,,,,,,,,,,,,,,,,,,,,,,,,,,,,,,,,,,,,,,,,,,,,,自私,i,,,e,0,0.7815,1,74,154,43,1,,
,,,,,,,,,,,,,,1,001,2024-08-25_15h00.14.666,IAT(Formal),2021.2.3,Win32,59.88023952,,,,,,,,,,,,,,,,,,,,,,,,,,,,,,,,,,,,,,,,,,,,,,,,,,,,其他,e,,,e,1,0.4965,1,75,155,9,1,,
,,,,,,,,,,,,,,1,001,2024-08-25_15h00.14.666,IAT(Formal),2021.2.3,Win32,59.88023952,,,,,,,,,,,,,,,,,,,,,,,,,,,,,,,,,,,,,,,,,,,,,,,,,,,,诚实,e,,,e,1,0.6488,1,76,156,15,1,,
,,,,,,,,,,,,,,1,001,2024-08-25_15h00.14.666,IAT(Formal),2021.2.3,Win32,59.88023952,,,,,,,,,,,,,,,,,,,,,,,,,,,,,,,,,,,,,,,,,,,,,,,,,,,,傲慢,i,,,i,1,0.6204,1,77,157,37,1,,
,,,,,,,,,,,,,,1,001,2024-08-25_15h00.14.666,IAT(Formal),2021.2.3,Win32,59.88023952,,,,,,,,,,,,,,,,,,,,,,,,,,,,,,,,,,,,,,,,,,,,,,,,,,,,其他,e,,,e,1,0.7839,1,78,158,59,1,,
,,,,,,,,,,,,,,1,001,2024-08-25_15h00.14.666,IAT(Formal),2021.2.3,Win32,59.88023952,,,,,,,,,,,,,,,,,,,,,,,,,,,,,,,,,,,,,,,,,,,,,,,,,,,,鲁莽,i,,,i,1,0.5533,1,79,159,38,1,,
,,,,,,,,,,,,,,1,001,2024-08-25_15h00.14.666,IAT(Formal),2021.2.3,Win32,59.88023952,,,,,,,,,,,,,,,,,,,,,,,,,,,,,,,,,,,,,,,,,,,,,,,,,,,,,,,,,,,,,,,,space,1.4952