"X.Instruction1.keys","Instruction1.rt","Instruction2.keys","Instruction2.rt","key_resp_iso.keys","key_resp_iso.corr","key_resp_iso.rt","Practice_01.thisRepN","Practice_01.thisTrialN","Practice_01.thisN","Practice_01.thisIndex","Practice_01.ran","Words","ans","participant","session","date","expName","psychopyVersion","OS","frameRate","key_resp_3.keys","key_resp_3.rt","key_resp_ipn.keys","key_resp_ipn.corr","Practice_02.thisRepN","Practice_02.thisTrialN","Practice_02.thisN","Practice_02.thisIndex","Practice_02.ran","Words_ipn","ans_ipn","key_resp_ipn.rt","key_resp_4.keys","key_resp_4.rt","key_resp_t1.keys","key_resp_t1.corr","key_resp_t1.rt","Practice_T1.thisRepN","Practice_T1.thisTrialN","Practice_T1.thisN","Practice_T1.thisIndex","Practice_T1.ran","Words_t1","ans_t1","key_resp_5.keys","key_resp_5.rt","Formal_T1.thisRepN","Formal_T1.thisTrialN","Formal_T1.thisN","Formal_T1.thisIndex","Formal_T1.ran","key_resp_6.keys","key_resp_6.rt","key_resp_iso_reverse.keys","key_resp_iso_reverse.corr","key_resp_iso_reverse.rt","Practice_iso_Reverse.thisRepN","Practice_iso_Reverse.thisTrialN","Practice_iso_Reverse.thisN","Practice_iso_Reverse.thisIndex","Practice_iso_Reverse.ran","key_resp_7.keys","key_resp_7.rt","key_resp_t2_Practice.keys","key_resp_t2_Practice.corr","key_resp_t2_Practice.rt","Practice_t2_Reverse.thisRepN","Practice_t2_Reverse.thisTrialN","Practice_t2_Reverse.thisN","Practice_t2_Reverse.thisIndex","Practice_t2_Reverse.ran","Words_t2","ans_t2","key_resp_8.keys","key_resp_8.rt","key_resp_t2.keys","key_resp_t2.corr","key_resp_t2.rt","Formal_t2_reverse.thisRepN","Formal_t2_reverse.thisTrialN","Formal_t2_reverse.thisN","Formal_t2_reverse.thisIndex","Formal_t2_reverse.ran","key_instruct.keys","key_instruct.rt","Subject"
"space",1.7939,"space",11.4787,"e",0,1.3329,0,0,0,5,1,"他","i",1,1,"2024-08-23_13h21.31.714","IAT(Formal)","2021.2.3","Win32",60.24096386,"",NA,"",NA,NA,NA,NA,NA,NA,"","",NA,"",NA,"",NA,NA,NA,NA,NA,NA,NA,"","","",NA,NA,NA,NA,NA,NA,"",NA,"",NA,NA,NA,NA,NA,NA,NA,"",NA,"",NA,NA,NA,NA,NA,NA,NA,"","","",NA,"",NA,NA,NA,NA,NA,NA,NA,"",NA,"3"
"",NA,"",NA,"i",0,0.906,0,1,1,3,1,"自己","e",1,1,"2024-08-23_13h21.31.714","IAT(Formal)","2021.2.3","Win32",60.24096386,"",NA,"",NA,NA,NA,NA,NA,NA,"","",NA,"",NA,"",NA,NA,NA,NA,NA,NA,NA,"","","",NA,NA,NA,NA,NA,NA,"",NA,"",NA,NA,NA,NA,NA,NA,NA,"",NA,"",NA,NA,NA,NA,NA,NA,NA,"","","",NA,"",NA,NA,NA,NA,NA,NA,NA,"",NA,"3"
"",NA,"",NA,"e",1,0.6024,0,2,2,1,1,"我的","e",1,1,"2024-08-23_13h21.31.714","IAT(Formal)","2021.2.3","Win32",60.24096386,"",NA,"",NA,NA,NA,NA,NA,NA,"","",NA,"",NA,"",NA,NA,NA,NA,NA,NA,NA,"","","",NA,NA,NA,NA,NA,NA,"",NA,"",NA,NA,NA,NA,NA,NA,NA,"",NA,"",NA,NA,NA,NA,NA,NA,NA,"","","",NA,"",NA,NA,NA,NA,NA,NA,NA,"",NA,"3"
"",NA,"",NA,"i",1,0.558,0,3,3,7,1,"他的","i",1,1,"2024-08-23_13h21.31.714","IAT(Formal)","2021.2.3","Win32",60.24096386,"",NA,"",NA,NA,NA,NA,NA,NA,"","",NA,"",NA,"",NA,NA,NA,NA,NA,NA,NA,"","","",NA,NA,NA,NA,NA,NA,"",NA,"",NA,NA,NA,NA,NA,NA,NA,"",NA,"",NA,NA,NA,NA,NA,NA,NA,"","","",NA,"",NA,NA,NA,NA,NA,NA,NA,"",NA,"3"
"",NA,"",NA,"i",1,0.8435,0,4,4,9,1,"其他","i",1,1,"2024-08-23_13h21.31.714","IAT(Formal)","2021.2.3","Win32",60.24096386,"",NA,"",NA,NA,NA,NA,NA,NA,"","",NA,"",NA,"",NA,NA,NA,NA,NA,NA,NA,"","","",NA,NA,NA,NA,NA,NA,"",NA,"",NA,NA,NA,NA,NA,NA,NA,"",NA,"",NA,NA,NA,NA,NA,NA,NA,"","","",NA,"",NA,NA,NA,NA,NA,NA,NA,"",NA,"3"
"",NA,"",NA,"i",1,0.5437,0,5,5,6,1,"他们","i",1,1,"2024-08-23_13h21.31.714","IAT(Formal)","2021.2.3","Win32",60.24096386,"",NA,"",NA,NA,NA,NA,NA,NA,"","",NA,"",NA,"",NA,NA,NA,NA,NA,NA,NA,"","","",NA,NA,NA,NA,NA,NA,"",NA,"",NA,NA,NA,NA,NA,NA,NA,"",NA,"",NA,NA,NA,NA,NA,NA,NA,"","","",NA,"",NA,NA,NA,NA,NA,NA,NA,"",NA,"3"
"",NA,"",NA,"i",1,0.6649,0,6,6,8,1,"他人","i",1,1,"2024-08-23_13h21.31.714","IAT(Formal)","2021.2.3","Win32",60.24096386,"",NA,"",NA,NA,NA,NA,NA,NA,"","",NA,"",NA,"",NA,NA,NA,NA,NA,NA,NA,"","","",NA,NA,NA,NA,NA,NA,"",NA,"",NA,NA,NA,NA,NA,NA,NA,"",NA,"",NA,NA,NA,NA,NA,NA,NA,"","","",NA,"",NA,NA,NA,NA,NA,NA,NA,"",NA,"3"
"",NA,"",NA,"e",1,0.7112,0,7,7,4,1,"俺","e",1,1,"2024-08-23_13h21.31.714","IAT(Formal)","2021.2.3","Win32",60.24096386,"",NA,"",NA,NA,NA,NA,NA,NA,"","",NA,"",NA,"",NA,NA,NA,NA,NA,NA,NA,"","","",NA,NA,NA,NA,NA,NA,"",NA,"",NA,NA,NA,NA,NA,NA,NA,"",NA,"",NA,NA,NA,NA,NA,NA,NA,"","","",NA,"",NA,NA,NA,NA,NA,NA,NA,"",NA,"3"
"",NA,"",NA,"e",1,0.5839,0,8,8,0,1,"我","e",1,1,"2024-08-23_13h21.31.714","IAT(Formal)","2021.2.3","Win32",60.24096386,"",NA,"",NA,NA,NA,NA,NA,NA,"","",NA,"",NA,"",NA,NA,NA,NA,NA,NA,NA,"","","",NA,NA,NA,NA,NA,NA,"",NA,"",NA,NA,NA,NA,NA,NA,NA,"",NA,"",NA,NA,NA,NA,NA,NA,NA,"","","",NA,"",NA,NA,NA,NA,NA,NA,NA,"",NA,"3"
"",NA,"",NA,"e",1,0.5512,0,9,9,2,1,"我们","e",1,1,"2024-08-23_13h21.31.714","IAT(Formal)","2021.2.3","Win32",60.24096386,"",NA,"",NA,NA,NA,NA,NA,NA,"","",NA,"",NA,"",NA,NA,NA,NA,NA,NA,NA,"","","",NA,NA,NA,NA,NA,NA,"",NA,"",NA,NA,NA,NA,NA,NA,NA,"",NA,"",NA,NA,NA,NA,NA,NA,NA,"","","",NA,"",NA,NA,NA,NA,NA,NA,NA,"",NA,"3"
"",NA,"",NA,"",NA,NA,NA,NA,NA,NA,NA,"","",1,1,"2024-08-23_13h21.31.714","IAT(Formal)","2021.2.3","Win32",60.24096386,"space",1.257,"",0,0,0,0,14,1,"朴实","e",NA,"",NA,"",NA,NA,NA,NA,NA,NA,NA,"","","",NA,NA,NA,NA,NA,NA,"",NA,"",NA,NA,NA,NA,NA,NA,NA,"",NA,"",NA,NA,NA,NA,NA,NA,NA,"","","",NA,"",NA,NA,NA,NA,NA,NA,NA,"",NA,"3"
"",NA,"",NA,"",NA,NA,NA,NA,NA,NA,NA,"","",1,1,"2024-08-23_13h21.31.714","IAT(Formal)","2021.2.3","Win32",60.24096386,"",NA,"i",1,0,1,1,22,1,"愚蠢","i",0.7195,"",NA,"",NA,NA,NA,NA,NA,NA,NA,"","","",NA,NA,NA,NA,NA,NA,"",NA,"",NA,NA,NA,NA,NA,NA,NA,"",NA,"",NA,NA,NA,NA,NA,NA,NA,"","","",NA,"",NA,NA,NA,NA,NA,NA,NA,"",NA,"3"
"",NA,"",NA,"",NA,NA,NA,NA,NA,NA,NA,"","",1,1,"2024-08-23_13h21.31.714","IAT(Formal)","2021.2.3","Win32",60.24096386,"",NA,"i",1,0,2,2,36,1,"野蛮","i",0.5598,"",NA,"",NA,NA,NA,NA,NA,NA,NA,"","","",NA,NA,NA,NA,NA,NA,"",NA,"",NA,NA,NA,NA,NA,NA,NA,"",NA,"",NA,NA,NA,NA,NA,NA,NA,"","","",NA,"",NA,NA,NA,NA,NA,NA,NA,"",NA,"3"
"",NA,"",NA,"",NA,NA,NA,NA,NA,NA,NA,"","",1,1,"2024-08-23_13h21.31.714","IAT(Formal)","2021.2.3","Win32",60.24096386,"",NA,"e",1,0,3,3,18,1,"活泼","e",0.6887,"",NA,"",NA,NA,NA,NA,NA,NA,NA,"","","",NA,NA,NA,NA,NA,NA,"",NA,"",NA,NA,NA,NA,NA,NA,NA,"",NA,"",NA,NA,NA,NA,NA,NA,NA,"","","",NA,"",NA,NA,NA,NA,NA,NA,NA,"",NA,"3"
"",NA,"",NA,"",NA,NA,NA,NA,NA,NA,NA,"","",1,1,"2024-08-23_13h21.31.714","IAT(Formal)","2021.2.3","Win32",60.24096386,"",NA,"e",1,0,4,4,8,1,"勤奋","e",0.6832,"",NA,"",NA,NA,NA,NA,NA,NA,NA,"","","",NA,NA,NA,NA,NA,NA,"",NA,"",NA,NA,NA,NA,NA,NA,NA,"",NA,"",NA,NA,NA,NA,NA,NA,NA,"","","",NA,"",NA,NA,NA,NA,NA,NA,NA,"",NA,"3"
"",NA,"",NA,"",NA,NA,NA,NA,NA,NA,NA,"","",1,1,"2024-08-23_13h21.31.714","IAT(Formal)","2021.2.3","Win32",60.24096386,"",NA,"i",1,0,5,5,33,1,"自私","i",0.5423,"",NA,"",NA,NA,NA,NA,NA,NA,NA,"","","",NA,NA,NA,NA,NA,NA,"",NA,"",NA,NA,NA,NA,NA,NA,NA,"",NA,"",NA,NA,NA,NA,NA,NA,NA,"","","",NA,"",NA,NA,NA,NA,NA,NA,NA,"",NA,"3"
"",NA,"",NA,"",NA,NA,NA,NA,NA,NA,NA,"","",1,1,"2024-08-23_13h21.31.714","IAT(Formal)","2021.2.3","Win32",60.24096386,"",NA,"i",1,0,6,6,26,1,"自卑","i",0.7541,"",NA,"",NA,NA,NA,NA,NA,NA,NA,"","","",NA,NA,NA,NA,NA,NA,"",NA,"",NA,NA,NA,NA,NA,NA,NA,"",NA,"",NA,NA,NA,NA,NA,NA,NA,"","","",NA,"",NA,NA,NA,NA,NA,NA,NA,"",NA,"3"
"",NA,"",NA,"",NA,NA,NA,NA,NA,NA,NA,"","",1,1,"2024-08-23_13h21.31.714","IAT(Formal)","2021.2.3","Win32",60.24096386,"",NA,"e",1,0,7,7,9,1,"机智","e",0.6202,"",NA,"",NA,NA,NA,NA,NA,NA,NA,"","","",NA,NA,NA,NA,NA,NA,"",NA,"",NA,NA,NA,NA,NA,NA,NA,"",NA,"",NA,NA,NA,NA,NA,NA,NA,"","","",NA,"",NA,NA,NA,NA,NA,NA,NA,"",NA,"3"
"",NA,"",NA,"",NA,NA,NA,NA,NA,NA,NA,"","",1,1,"2024-08-23_13h21.31.714","IAT(Formal)","2021.2.3","Win32",60.24096386,"",NA,"e",1,0,8,8,16,1,"冷静","e",0.6903,"",NA,"",NA,NA,NA,NA,NA,NA,NA,"","","",NA,NA,NA,NA,NA,NA,"",NA,"",NA,NA,NA,NA,NA,NA,NA,"",NA,"",NA,NA,NA,NA,NA,NA,NA,"","","",NA,"",NA,NA,NA,NA,NA,NA,NA,"",NA,"3"
"",NA,"",NA,"",NA,NA,NA,NA,NA,NA,NA,"","",1,1,"2024-08-23_13h21.31.714","IAT(Formal)","2021.2.3","Win32",60.24096386,"",NA,"i",1,0,9,9,38,1,"轻率","i",0.8228,"",NA,"",NA,NA,NA,NA,NA,NA,NA,"","","",NA,NA,NA,NA,NA,NA,"",NA,"",NA,NA,NA,NA,NA,NA,NA,"",NA,"",NA,NA,NA,NA,NA,NA,NA,"","","",NA,"",NA,NA,NA,NA,NA,NA,NA,"",NA,"3"
"",NA,"",NA,"",NA,NA,NA,NA,NA,NA,NA,"","",1,1,"2024-08-23_13h21.31.714","IAT(Formal)","2021.2.3","Win32",60.24096386,"",NA,"e",1,0,10,10,1,1,"崇高","e",0.6213,"",NA,"",NA,NA,NA,NA,NA,NA,NA,"","","",NA,NA,NA,NA,NA,NA,"",NA,"",NA,NA,NA,NA,NA,NA,NA,"",NA,"",NA,NA,NA,NA,NA,NA,NA,"","","",NA,"",NA,NA,NA,NA,NA,NA,NA,"",NA,"3"
"",NA,"",NA,"",NA,NA,NA,NA,NA,NA,NA,"","",1,1,"2024-08-23_13h21.31.714","IAT(Formal)","2021.2.3","Win32",60.24096386,"",NA,"e",1,0,11,11,19,1,"诚恳","e",0.6262,"",NA,"",NA,NA,NA,NA,NA,NA,NA,"","","",NA,NA,NA,NA,NA,NA,"",NA,"",NA,NA,NA,NA,NA,NA,NA,"",NA,"",NA,NA,NA,NA,NA,NA,NA,"","","",NA,"",NA,NA,NA,NA,NA,NA,NA,"",NA,"3"
"",NA,"",NA,"",NA,NA,NA,NA,NA,NA,NA,"","",1,1,"2024-08-23_13h21.31.714","IAT(Formal)","2021.2.3","Win32",60.24096386,"",NA,"i",1,0,12,12,32,1,"凶狠","i",0.555,"",NA,"",NA,NA,NA,NA,NA,NA,NA,"","","",NA,NA,NA,NA,NA,NA,"",NA,"",NA,NA,NA,NA,NA,NA,NA,"",NA,"",NA,NA,NA,NA,NA,NA,NA,"","","",NA,"",NA,NA,NA,NA,NA,NA,NA,"",NA,"3"
"",NA,"",NA,"",NA,NA,NA,NA,NA,NA,NA,"","",1,1,"2024-08-23_13h21.31.714","IAT(Formal)","2021.2.3","Win32",60.24096386,"",NA,"e",1,0,13,13,10,1,"认真","e",0.6631,"",NA,"",NA,NA,NA,NA,NA,NA,NA,"","","",NA,NA,NA,NA,NA,NA,"",NA,"",NA,NA,NA,NA,NA,NA,NA,"",NA,"",NA,NA,NA,NA,NA,NA,NA,"","","",NA,"",NA,NA,NA,NA,NA,NA,NA,"",NA,"3"
"",NA,"",NA,"",NA,NA,NA,NA,NA,NA,NA,"","",1,1,"2024-08-23_13h21.31.714","IAT(Formal)","2021.2.3","Win32",60.24096386,"",NA,"i",1,0,14,14,29,1,"冒失","i",0.7029,"",NA,"",NA,NA,NA,NA,NA,NA,NA,"","","",NA,NA,NA,NA,NA,NA,"",NA,"",NA,NA,NA,NA,NA,NA,NA,"",NA,"",NA,NA,NA,NA,NA,NA,NA,"","","",NA,"",NA,NA,NA,NA,NA,NA,NA,"",NA,"3"
"",NA,"",NA,"",NA,NA,NA,NA,NA,NA,NA,"","",1,1,"2024-08-23_13h21.31.714","IAT(Formal)","2021.2.3","Win32",60.24096386,"",NA,"i",1,0,15,15,39,1,"下贱","i",0.65,"",NA,"",NA,NA,NA,NA,NA,NA,NA,"","","",NA,NA,NA,NA,NA,NA,"",NA,"",NA,NA,NA,NA,NA,NA,NA,"",NA,"",NA,NA,NA,NA,NA,NA,NA,"","","",NA,"",NA,NA,NA,NA,NA,NA,NA,"",NA,"3"
"",NA,"",NA,"",NA,NA,NA,NA,NA,NA,NA,"","",1,1,"2024-08-23_13h21.31.714","IAT(Formal)","2021.2.3","Win32",60.24096386,"",NA,"i",1,0,16,16,30,1,"执拗","i",0.4938,"",NA,"",NA,NA,NA,NA,NA,NA,NA,"","","",NA,NA,NA,NA,NA,NA,"",NA,"",NA,NA,NA,NA,NA,NA,NA,"",NA,"",NA,NA,NA,NA,NA,NA,NA,"","","",NA,"",NA,NA,NA,NA,NA,NA,NA,"",NA,"3"
"",NA,"",NA,"",NA,NA,NA,NA,NA,NA,NA,"","",1,1,"2024-08-23_13h21.31.714","IAT(Formal)","2021.2.3","Win32",60.24096386,"",NA,"e",1,0,17,17,17,1,"热情","e",0.5472,"",NA,"",NA,NA,NA,NA,NA,NA,NA,"","","",NA,NA,NA,NA,NA,NA,"",NA,"",NA,NA,NA,NA,NA,NA,NA,"",NA,"",NA,NA,NA,NA,NA,NA,NA,"","","",NA,"",NA,NA,NA,NA,NA,NA,NA,"",NA,"3"
"",NA,"",NA,"",NA,NA,NA,NA,NA,NA,NA,"","",1,1,"2024-08-23_13h21.31.714","IAT(Formal)","2021.2.3","Win32",60.24096386,"",NA,"i",1,0,18,18,31,1,"散漫","i",0.73,"",NA,"",NA,NA,NA,NA,NA,NA,NA,"","","",NA,NA,NA,NA,NA,NA,"",NA,"",NA,NA,NA,NA,NA,NA,NA,"",NA,"",NA,NA,NA,NA,NA,NA,NA,"","","",NA,"",NA,NA,NA,NA,NA,NA,NA,"",NA,"3"
"",NA,"",NA,"",NA,NA,NA,NA,NA,NA,NA,"","",1,1,"2024-08-23_13h21.31.714","IAT(Formal)","2021.2.3","Win32",60.24096386,"",NA,"i",1,0,19,19,34,1,"暴躁","i",0.6596,"",NA,"",NA,NA,NA,NA,NA,NA,NA,"","","",NA,NA,NA,NA,NA,NA,"",NA,"",NA,NA,NA,NA,NA,NA,NA,"",NA,"",NA,NA,NA,NA,NA,NA,NA,"","","",NA,"",NA,NA,NA,NA,NA,NA,NA,"",NA,"3"
"",NA,"",NA,"",NA,NA,NA,NA,NA,NA,NA,"","",1,1,"2024-08-23_13h21.31.714","IAT(Formal)","2021.2.3","Win32",60.24096386,"",NA,"e",1,0,20,20,15,1,"细腻","e",0.9588,"",NA,"",NA,NA,NA,NA,NA,NA,NA,"","","",NA,NA,NA,NA,NA,NA,"",NA,"",NA,NA,NA,NA,NA,NA,NA,"",NA,"",NA,NA,NA,NA,NA,NA,NA,"","","",NA,"",NA,NA,NA,NA,NA,NA,NA,"",NA,"3"
"",NA,"",NA,"",NA,NA,NA,NA,NA,NA,NA,"","",1,1,"2024-08-23_13h21.31.714","IAT(Formal)","2021.2.3","Win32",60.24096386,"",NA,"e",1,0,21,21,2,1,"聪明","e",1.0405,"",NA,"",NA,NA,NA,NA,NA,NA,NA,"","","",NA,NA,NA,NA,NA,NA,"",NA,"",NA,NA,NA,NA,NA,NA,NA,"",NA,"",NA,NA,NA,NA,NA,NA,NA,"","","",NA,"",NA,NA,NA,NA,NA,NA,NA,"",NA,"3"
"",NA,"",NA,"",NA,NA,NA,NA,NA,NA,NA,"","",1,1,"2024-08-23_13h21.31.714","IAT(Formal)","2021.2.3","Win32",60.24096386,"",NA,"e",1,0,22,22,11,1,"稳重","e",0.6304,"",NA,"",NA,NA,NA,NA,NA,NA,NA,"","","",NA,NA,NA,NA,NA,NA,"",NA,"",NA,NA,NA,NA,NA,NA,NA,"",NA,"",NA,NA,NA,NA,NA,NA,NA,"","","",NA,"",NA,NA,NA,NA,NA,NA,NA,"",NA,"3"
"",NA,"",NA,"",NA,NA,NA,NA,NA,NA,NA,"","",1,1,"2024-08-23_13h21.31.714","IAT(Formal)","2021.2.3","Win32",60.24096386,"",NA,"e",0,0,23,23,35,1,"猖狂","i",0.7818,"",NA,"",NA,NA,NA,NA,NA,NA,NA,"","","",NA,NA,NA,NA,NA,NA,"",NA,"",NA,NA,NA,NA,NA,NA,NA,"",NA,"",NA,NA,NA,NA,NA,NA,NA,"","","",NA,"",NA,NA,NA,NA,NA,NA,NA,"",NA,"3"
"",NA,"",NA,"",NA,NA,NA,NA,NA,NA,NA,"","",1,1,"2024-08-23_13h21.31.714","IAT(Formal)","2021.2.3","Win32",60.24096386,"",NA,"i",1,0,24,24,25,1,"消极","i",0.5414,"",NA,"",NA,NA,NA,NA,NA,NA,NA,"","","",NA,NA,NA,NA,NA,NA,"",NA,"",NA,NA,NA,NA,NA,NA,NA,"",NA,"",NA,NA,NA,NA,NA,NA,NA,"","","",NA,"",NA,NA,NA,NA,NA,NA,NA,"",NA,"3"
"",NA,"",NA,"",NA,NA,NA,NA,NA,NA,NA,"","",1,1,"2024-08-23_13h21.31.714","IAT(Formal)","2021.2.3","Win32",60.24096386,"",NA,"e",1,0,25,25,5,1,"诚实","e",0.5979,"",NA,"",NA,NA,NA,NA,NA,NA,NA,"","","",NA,NA,NA,NA,NA,NA,"",NA,"",NA,NA,NA,NA,NA,NA,NA,"",NA,"",NA,NA,NA,NA,NA,NA,NA,"","","",NA,"",NA,NA,NA,NA,NA,NA,NA,"",NA,"3"
"",NA,"",NA,"",NA,NA,NA,NA,NA,NA,NA,"","",1,1,"2024-08-23_13h21.31.714","IAT(Formal)","2021.2.3","Win32",60.24096386,"",NA,"i",1,0,26,26,24,1,"悲观","i",0.6389,"",NA,"",NA,NA,NA,NA,NA,NA,NA,"","","",NA,NA,NA,NA,NA,NA,"",NA,"",NA,NA,NA,NA,NA,NA,NA,"",NA,"",NA,NA,NA,NA,NA,NA,NA,"","","",NA,"",NA,NA,NA,NA,NA,NA,NA,"",NA,"3"
"",NA,"",NA,"",NA,NA,NA,NA,NA,NA,NA,"","",1,1,"2024-08-23_13h21.31.714","IAT(Formal)","2021.2.3","Win32",60.24096386,"",NA,"i",1,0,27,27,37,1,"固执","i",0.6253,"",NA,"",NA,NA,NA,NA,NA,NA,NA,"","","",NA,NA,NA,NA,NA,NA,"",NA,"",NA,NA,NA,NA,NA,NA,NA,"",NA,"",NA,NA,NA,NA,NA,NA,NA,"","","",NA,"",NA,NA,NA,NA,NA,NA,NA,"",NA,"3"
"",NA,"",NA,"",NA,NA,NA,NA,NA,NA,NA,"","",1,1,"2024-08-23_13h21.31.714","IAT(Formal)","2021.2.3","Win32",60.24096386,"",NA,"i",0,0,28,28,7,1,"勇敢","e",0.4071,"",NA,"",NA,NA,NA,NA,NA,NA,NA,"","","",NA,NA,NA,NA,NA,NA,"",NA,"",NA,NA,NA,NA,NA,NA,NA,"",NA,"",NA,NA,NA,NA,NA,NA,NA,"","","",NA,"",NA,NA,NA,NA,NA,NA,NA,"",NA,"3"
"",NA,"",NA,"",NA,NA,NA,NA,NA,NA,NA,"","",1,1,"2024-08-23_13h21.31.714","IAT(Formal)","2021.2.3","Win32",60.24096386,"",NA,"e",1,0,29,29,4,1,"乐观","e",0.5833,"",NA,"",NA,NA,NA,NA,NA,NA,NA,"","","",NA,NA,NA,NA,NA,NA,"",NA,"",NA,NA,NA,NA,NA,NA,NA,"",NA,"",NA,NA,NA,NA,NA,NA,NA,"","","",NA,"",NA,NA,NA,NA,NA,NA,NA,"",NA,"3"
"",NA,"",NA,"",NA,NA,NA,NA,NA,NA,NA,"","",1,1,"2024-08-23_13h21.31.714","IAT(Formal)","2021.2.3","Win32",60.24096386,"",NA,"i",1,0,30,30,21,1,"虚伪","i",0.6492,"",NA,"",NA,NA,NA,NA,NA,NA,NA,"","","",NA,NA,NA,NA,NA,NA,"",NA,"",NA,NA,NA,NA,NA,NA,NA,"",NA,"",NA,NA,NA,NA,NA,NA,NA,"","","",NA,"",NA,NA,NA,NA,NA,NA,NA,"",NA,"3"
"",NA,"",NA,"",NA,NA,NA,NA,NA,NA,NA,"","",1,1,"2024-08-23_13h21.31.714","IAT(Formal)","2021.2.3","Win32",60.24096386,"",NA,"i",1,0,31,31,23,1,"刻薄","i",0.5275,"",NA,"",NA,NA,NA,NA,NA,NA,NA,"","","",NA,NA,NA,NA,NA,NA,"",NA,"",NA,NA,NA,NA,NA,NA,NA,"",NA,"",NA,NA,NA,NA,NA,NA,NA,"","","",NA,"",NA,NA,NA,NA,NA,NA,NA,"",NA,"3"
"",NA,"",NA,"",NA,NA,NA,NA,NA,NA,NA,"","",1,1,"2024-08-23_13h21.31.714","IAT(Formal)","2021.2.3","Win32",60.24096386,"",NA,"i",1,0,32,32,27,1,"傲慢","i",0.493,"",NA,"",NA,NA,NA,NA,NA,NA,NA,"","","",NA,NA,NA,NA,NA,NA,"",NA,"",NA,NA,NA,NA,NA,NA,NA,"",NA,"",NA,NA,NA,NA,NA,NA,NA,"","","",NA,"",NA,NA,NA,NA,NA,NA,NA,"",NA,"3"
"",NA,"",NA,"",NA,NA,NA,NA,NA,NA,NA,"","",1,1,"2024-08-23_13h21.31.714","IAT(Formal)","2021.2.3","Win32",60.24096386,"",NA,"e",1,0,33,33,3,1,"杰出","e",0.5759,"",NA,"",NA,NA,NA,NA,NA,NA,NA,"","","",NA,NA,NA,NA,NA,NA,"",NA,"",NA,NA,NA,NA,NA,NA,NA,"",NA,"",NA,NA,NA,NA,NA,NA,NA,"","","",NA,"",NA,NA,NA,NA,NA,NA,NA,"",NA,"3"
"",NA,"",NA,"",NA,NA,NA,NA,NA,NA,NA,"","",1,1,"2024-08-23_13h21.31.714","IAT(Formal)","2021.2.3","Win32",60.24096386,"",NA,"e",1,0,34,34,0,1,"优秀","e",0.5603,"",NA,"",NA,NA,NA,NA,NA,NA,NA,"","","",NA,NA,NA,NA,NA,NA,"",NA,"",NA,NA,NA,NA,NA,NA,NA,"",NA,"",NA,NA,NA,NA,NA,NA,NA,"","","",NA,"",NA,NA,NA,NA,NA,NA,NA,"",NA,"3"
"",NA,"",NA,"",NA,NA,NA,NA,NA,NA,NA,"","",1,1,"2024-08-23_13h21.31.714","IAT(Formal)","2021.2.3","Win32",60.24096386,"",NA,"i",1,0,35,35,28,1,"鲁莽","i",0.5114,"",NA,"",NA,NA,NA,NA,NA,NA,NA,"","","",NA,NA,NA,NA,NA,NA,"",NA,"",NA,NA,NA,NA,NA,NA,NA,"",NA,"",NA,NA,NA,NA,NA,NA,NA,"","","",NA,"",NA,NA,NA,NA,NA,NA,NA,"",NA,"3"
"",NA,"",NA,"",NA,NA,NA,NA,NA,NA,NA,"","",1,1,"2024-08-23_13h21.31.714","IAT(Formal)","2021.2.3","Win32",60.24096386,"",NA,"e",1,0,36,36,13,1,"公正","e",0.4956,"",NA,"",NA,NA,NA,NA,NA,NA,NA,"","","",NA,NA,NA,NA,NA,NA,"",NA,"",NA,NA,NA,NA,NA,NA,NA,"",NA,"",NA,NA,NA,NA,NA,NA,NA,"","","",NA,"",NA,NA,NA,NA,NA,NA,NA,"",NA,"3"
"",NA,"",NA,"",NA,NA,NA,NA,NA,NA,NA,"","",1,1,"2024-08-23_13h21.31.714","IAT(Formal)","2021.2.3","Win32",60.24096386,"",NA,"i",1,0,37,37,20,1,"卑鄙","i",0.5587,"",NA,"",NA,NA,NA,NA,NA,NA,NA,"","","",NA,NA,NA,NA,NA,NA,"",NA,"",NA,NA,NA,NA,NA,NA,NA,"",NA,"",NA,NA,NA,NA,NA,NA,NA,"","","",NA,"",NA,NA,NA,NA,NA,NA,NA,"",NA,"3"
"",NA,"",NA,"",NA,NA,NA,NA,NA,NA,NA,"","",1,1,"2024-08-23_13h21.31.714","IAT(Formal)","2021.2.3","Win32",60.24096386,"",NA,"e",1,0,38,38,6,1,"正直","e",0.4576,"",NA,"",NA,NA,NA,NA,NA,NA,NA,"","","",NA,NA,NA,NA,NA,NA,"",NA,"",NA,NA,NA,NA,NA,NA,NA,"",NA,"",NA,NA,NA,NA,NA,NA,NA,"","","",NA,"",NA,NA,NA,NA,NA,NA,NA,"",NA,"3"
"",NA,"",NA,"",NA,NA,NA,NA,NA,NA,NA,"","",1,1,"2024-08-23_13h21.31.714","IAT(Formal)","2021.2.3","Win32",60.24096386,"",NA,"e",1,0,39,39,12,1,"无私","e",0.7122,"",NA,"",NA,NA,NA,NA,NA,NA,NA,"","","",NA,NA,NA,NA,NA,NA,"",NA,"",NA,NA,NA,NA,NA,NA,NA,"",NA,"",NA,NA,NA,NA,NA,NA,NA,"","","",NA,"",NA,NA,NA,NA,NA,NA,NA,"",NA,"3"
"",NA,"",NA,"",NA,NA,NA,NA,NA,NA,NA,"","",1,1,"2024-08-23_13h21.31.714","IAT(Formal)","2021.2.3","Win32",60.24096386,"",NA,"",NA,NA,NA,NA,NA,NA,"","",NA,"space",5.6796,"e",1,0.6835,0,0,0,29,1,"诚恳","e","",NA,NA,NA,NA,NA,NA,"",NA,"",NA,NA,NA,NA,NA,NA,NA,"",NA,"",NA,NA,NA,NA,NA,NA,NA,"","","",NA,"",NA,NA,NA,NA,NA,NA,NA,"",NA,"3"
"",NA,"",NA,"",NA,NA,NA,NA,NA,NA,NA,"","",1,1,"2024-08-23_13h21.31.714","IAT(Formal)","2021.2.3","Win32",60.24096386,"",NA,"",NA,NA,NA,NA,NA,NA,"","",NA,"",NA,"e",0,0.4342,0,1,1,68,1,"他人","i","",NA,NA,NA,NA,NA,NA,"",NA,"",NA,NA,NA,NA,NA,NA,NA,"",NA,"",NA,NA,NA,NA,NA,NA,NA,"","","",NA,"",NA,NA,NA,NA,NA,NA,NA,"",NA,"3"
"",NA,"",NA,"",NA,NA,NA,NA,NA,NA,NA,"","",1,1,"2024-08-23_13h21.31.714","IAT(Formal)","2021.2.3","Win32",60.24096386,"",NA,"",NA,NA,NA,NA,NA,NA,"","",NA,"",NA,"i",1,0.6786,0,2,2,48,1,"轻率","i","",NA,NA,NA,NA,NA,NA,"",NA,"",NA,NA,NA,NA,NA,NA,NA,"",NA,"",NA,NA,NA,NA,NA,NA,NA,"","","",NA,"",NA,NA,NA,NA,NA,NA,NA,"",NA,"3"
"",NA,"",NA,"",NA,NA,NA,NA,NA,NA,NA,"","",1,1,"2024-08-23_13h21.31.714","IAT(Formal)","2021.2.3","Win32",60.24096386,"",NA,"",NA,NA,NA,NA,NA,NA,"","",NA,"",NA,"e",1,0.7472,0,3,3,28,1,"活泼","e","",NA,NA,NA,NA,NA,NA,"",NA,"",NA,NA,NA,NA,NA,NA,NA,"",NA,"",NA,NA,NA,NA,NA,NA,NA,"","","",NA,"",NA,NA,NA,NA,NA,NA,NA,"",NA,"3"
"",NA,"",NA,"",NA,NA,NA,NA,NA,NA,NA,"","",1,1,"2024-08-23_13h21.31.714","IAT(Formal)","2021.2.3","Win32",60.24096386,"",NA,"",NA,NA,NA,NA,NA,NA,"","",NA,"",NA,"i",1,0.6312,0,4,4,32,1,"愚蠢","i","",NA,NA,NA,NA,NA,NA,"",NA,"",NA,NA,NA,NA,NA,NA,NA,"",NA,"",NA,NA,NA,NA,NA,NA,NA,"","","",NA,"",NA,NA,NA,NA,NA,NA,NA,"",NA,"3"
"",NA,"",NA,"",NA,NA,NA,NA,NA,NA,NA,"","",1,1,"2024-08-23_13h21.31.714","IAT(Formal)","2021.2.3","Win32",60.24096386,"",NA,"",NA,NA,NA,NA,NA,NA,"","",NA,"",NA,"i",1,0.729,0,5,5,56,1,"他们","i","",NA,NA,NA,NA,NA,NA,"",NA,"",NA,NA,NA,NA,NA,NA,NA,"",NA,"",NA,NA,NA,NA,NA,NA,NA,"","","",NA,"",NA,NA,NA,NA,NA,NA,NA,"",NA,"3"
"",NA,"",NA,"",NA,NA,NA,NA,NA,NA,NA,"","",1,1,"2024-08-23_13h21.31.714","IAT(Formal)","2021.2.3","Win32",60.24096386,"",NA,"",NA,NA,NA,NA,NA,NA,"","",NA,"",NA,"e",1,0.8327,0,6,6,27,1,"热情","e","",NA,NA,NA,NA,NA,NA,"",NA,"",NA,NA,NA,NA,NA,NA,NA,"",NA,"",NA,NA,NA,NA,NA,NA,NA,"","","",NA,"",NA,NA,NA,NA,NA,NA,NA,"",NA,"3"
"",NA,"",NA,"",NA,NA,NA,NA,NA,NA,NA,"","",1,1,"2024-08-23_13h21.31.714","IAT(Formal)","2021.2.3","Win32",60.24096386,"",NA,"",NA,NA,NA,NA,NA,NA,"","",NA,"",NA,"e",1,0.5345,0,7,7,4,1,"俺","e","",NA,NA,NA,NA,NA,NA,"",NA,"",NA,NA,NA,NA,NA,NA,NA,"",NA,"",NA,NA,NA,NA,NA,NA,NA,"","","",NA,"",NA,NA,NA,NA,NA,NA,NA,"",NA,"3"
"",NA,"",NA,"",NA,NA,NA,NA,NA,NA,NA,"","",1,1,"2024-08-23_13h21.31.714","IAT(Formal)","2021.2.3","Win32",60.24096386,"",NA,"",NA,NA,NA,NA,NA,NA,"","",NA,"",NA,"i",1,0.6042,0,8,8,66,1,"他们","i","",NA,NA,NA,NA,NA,NA,"",NA,"",NA,NA,NA,NA,NA,NA,NA,"",NA,"",NA,NA,NA,NA,NA,NA,NA,"","","",NA,"",NA,NA,NA,NA,NA,NA,NA,"",NA,"3"
"",NA,"",NA,"",NA,NA,NA,NA,NA,NA,NA,"","",1,1,"2024-08-23_13h21.31.714","IAT(Formal)","2021.2.3","Win32",60.24096386,"",NA,"",NA,NA,NA,NA,NA,NA,"","",NA,"",NA,"i",1,0.5573,0,9,9,9,1,"其他","i","",NA,NA,NA,NA,NA,NA,"",NA,"",NA,NA,NA,NA,NA,NA,NA,"",NA,"",NA,NA,NA,NA,NA,NA,NA,"","","",NA,"",NA,NA,NA,NA,NA,NA,NA,"",NA,"3"
"",NA,"",NA,"",NA,NA,NA,NA,NA,NA,NA,"","",1,1,"2024-08-23_13h21.31.714","IAT(Formal)","2021.2.3","Win32",60.24096386,"",NA,"",NA,NA,NA,NA,NA,NA,"","",NA,"",NA,"e",1,0.6013,0,10,10,16,1,"正直","e","",NA,NA,NA,NA,NA,NA,"",NA,"",NA,NA,NA,NA,NA,NA,NA,"",NA,"",NA,NA,NA,NA,NA,NA,NA,"","","",NA,"",NA,NA,NA,NA,NA,NA,NA,"",NA,"3"
"",NA,"",NA,"",NA,NA,NA,NA,NA,NA,NA,"","",1,1,"2024-08-23_13h21.31.714","IAT(Formal)","2021.2.3","Win32",60.24096386,"",NA,"",NA,NA,NA,NA,NA,NA,"","",NA,"",NA,"e",1,0.431,0,11,11,61,1,"我的","e","",NA,NA,NA,NA,NA,NA,"",NA,"",NA,NA,NA,NA,NA,NA,NA,"",NA,"",NA,NA,NA,NA,NA,NA,NA,"","","",NA,"",NA,NA,NA,NA,NA,NA,NA,"",NA,"3"
"",NA,"",NA,"",NA,NA,NA,NA,NA,NA,NA,"","",1,1,"2024-08-23_13h21.31.714","IAT(Formal)","2021.2.3","Win32",60.24096386,"",NA,"",NA,NA,NA,NA,NA,NA,"","",NA,"",NA,"i",1,0.5331,0,12,12,34,1,"悲观","i","",NA,NA,NA,NA,NA,NA,"",NA,"",NA,NA,NA,NA,NA,NA,NA,"",NA,"",NA,NA,NA,NA,NA,NA,NA,"","","",NA,"",NA,NA,NA,NA,NA,NA,NA,"",NA,"3"
"",NA,"",NA,"",NA,NA,NA,NA,NA,NA,NA,"","",1,1,"2024-08-23_13h21.31.714","IAT(Formal)","2021.2.3","Win32",60.24096386,"",NA,"",NA,NA,NA,NA,NA,NA,"","",NA,"",NA,"i",1,0.5791,0,13,13,46,1,"野蛮","i","",NA,NA,NA,NA,NA,NA,"",NA,"",NA,NA,NA,NA,NA,NA,NA,"",NA,"",NA,NA,NA,NA,NA,NA,NA,"","","",NA,"",NA,NA,NA,NA,NA,NA,NA,"",NA,"3"
"",NA,"",NA,"",NA,NA,NA,NA,NA,NA,NA,"","",1,1,"2024-08-23_13h21.31.714","IAT(Formal)","2021.2.3","Win32",60.24096386,"",NA,"",NA,NA,NA,NA,NA,NA,"","",NA,"",NA,"e",0,0.5496,0,14,14,57,1,"他的","i","",NA,NA,NA,NA,NA,NA,"",NA,"",NA,NA,NA,NA,NA,NA,NA,"",NA,"",NA,NA,NA,NA,NA,NA,NA,"","","",NA,"",NA,NA,NA,NA,NA,NA,NA,"",NA,"3"
"",NA,"",NA,"",NA,NA,NA,NA,NA,NA,NA,"","",1,1,"2024-08-23_13h21.31.714","IAT(Formal)","2021.2.3","Win32",60.24096386,"",NA,"",NA,NA,NA,NA,NA,NA,"","",NA,"",NA,"e",1,0.8782,0,15,15,54,1,"俺","e","",NA,NA,NA,NA,NA,NA,"",NA,"",NA,NA,NA,NA,NA,NA,NA,"",NA,"",NA,NA,NA,NA,NA,NA,NA,"","","",NA,"",NA,NA,NA,NA,NA,NA,NA,"",NA,"3"
"",NA,"",NA,"",NA,NA,NA,NA,NA,NA,NA,"","",1,1,"2024-08-23_13h21.31.714","IAT(Formal)","2021.2.3","Win32",60.24096386,"",NA,"",NA,NA,NA,NA,NA,NA,"","",NA,"",NA,"i",1,1.3458,0,16,16,79,1,"其他","i","",NA,NA,NA,NA,NA,NA,"",NA,"",NA,NA,NA,NA,NA,NA,NA,"",NA,"",NA,NA,NA,NA,NA,NA,NA,"","","",NA,"",NA,NA,NA,NA,NA,NA,NA,"",NA,"3"
"",NA,"",NA,"",NA,NA,NA,NA,NA,NA,NA,"","",1,1,"2024-08-23_13h21.31.714","IAT(Formal)","2021.2.3","Win32",60.24096386,"",NA,"",NA,NA,NA,NA,NA,NA,"","",NA,"",NA,"e",1,0.6176,0,17,17,12,1,"聪明","e","",NA,NA,NA,NA,NA,NA,"",NA,"",NA,NA,NA,NA,NA,NA,NA,"",NA,"",NA,NA,NA,NA,NA,NA,NA,"","","",NA,"",NA,NA,NA,NA,NA,NA,NA,"",NA,"3"
"",NA,"",NA,"",NA,NA,NA,NA,NA,NA,NA,"","",1,1,"2024-08-23_13h21.31.714","IAT(Formal)","2021.2.3","Win32",60.24096386,"",NA,"",NA,NA,NA,NA,NA,NA,"","",NA,"",NA,"e",1,0.6213,0,18,18,25,1,"细腻","e","",NA,NA,NA,NA,NA,NA,"",NA,"",NA,NA,NA,NA,NA,NA,NA,"",NA,"",NA,NA,NA,NA,NA,NA,NA,"","","",NA,"",NA,NA,NA,NA,NA,NA,NA,"",NA,"3"
"",NA,"",NA,"",NA,NA,NA,NA,NA,NA,NA,"","",1,1,"2024-08-23_13h21.31.714","IAT(Formal)","2021.2.3","Win32",60.24096386,"",NA,"",NA,NA,NA,NA,NA,NA,"","",NA,"",NA,"i",1,0.5657,0,19,19,78,1,"他人","i","",NA,NA,NA,NA,NA,NA,"",NA,"",NA,NA,NA,NA,NA,NA,NA,"",NA,"",NA,NA,NA,NA,NA,NA,NA,"","","",NA,"",NA,NA,NA,NA,NA,NA,NA,"",NA,"3"
"",NA,"",NA,"",NA,NA,NA,NA,NA,NA,NA,"","",1,1,"2024-08-23_13h21.31.714","IAT(Formal)","2021.2.3","Win32",60.24096386,"",NA,"",NA,NA,NA,NA,NA,NA,"","",NA,"",NA,"e",1,0.7237,0,20,20,11,1,"崇高","e","",NA,NA,NA,NA,NA,NA,"",NA,"",NA,NA,NA,NA,NA,NA,NA,"",NA,"",NA,NA,NA,NA,NA,NA,NA,"","","",NA,"",NA,NA,NA,NA,NA,NA,NA,"",NA,"3"
"",NA,"",NA,"",NA,NA,NA,NA,NA,NA,NA,"","",1,1,"2024-08-23_13h21.31.714","IAT(Formal)","2021.2.3","Win32",60.24096386,"",NA,"",NA,NA,NA,NA,NA,NA,"","",NA,"",NA,"e",1,0.6524,0,21,21,63,1,"自己","e","",NA,NA,NA,NA,NA,NA,"",NA,"",NA,NA,NA,NA,NA,NA,NA,"",NA,"",NA,NA,NA,NA,NA,NA,NA,"","","",NA,"",NA,NA,NA,NA,NA,NA,NA,"",NA,"3"
"",NA,"",NA,"",NA,NA,NA,NA,NA,NA,NA,"","",1,1,"2024-08-23_13h21.31.714","IAT(Formal)","2021.2.3","Win32",60.24096386,"",NA,"",NA,NA,NA,NA,NA,NA,"","",NA,"",NA,"i",1,0.5894,0,22,22,65,1,"他","i","",NA,NA,NA,NA,NA,NA,"",NA,"",NA,NA,NA,NA,NA,NA,NA,"",NA,"",NA,NA,NA,NA,NA,NA,NA,"","","",NA,"",NA,NA,NA,NA,NA,NA,NA,"",NA,"3"
"",NA,"",NA,"",NA,NA,NA,NA,NA,NA,NA,"","",1,1,"2024-08-23_13h21.31.714","IAT(Formal)","2021.2.3","Win32",60.24096386,"",NA,"",NA,NA,NA,NA,NA,NA,"","",NA,"",NA,"e",1,0.779,0,23,23,20,1,"认真","e","",NA,NA,NA,NA,NA,NA,"",NA,"",NA,NA,NA,NA,NA,NA,NA,"",NA,"",NA,NA,NA,NA,NA,NA,NA,"","","",NA,"",NA,NA,NA,NA,NA,NA,NA,"",NA,"3"
"",NA,"",NA,"",NA,NA,NA,NA,NA,NA,NA,"","",1,1,"2024-08-23_13h21.31.714","IAT(Formal)","2021.2.3","Win32",60.24096386,"",NA,"",NA,NA,NA,NA,NA,NA,"","",NA,"",NA,"i",1,0.6362,0,24,24,42,1,"凶狠","i","",NA,NA,NA,NA,NA,NA,"",NA,"",NA,NA,NA,NA,NA,NA,NA,"",NA,"",NA,NA,NA,NA,NA,NA,NA,"","","",NA,"",NA,NA,NA,NA,NA,NA,NA,"",NA,"3"
"",NA,"",NA,"",NA,NA,NA,NA,NA,NA,NA,"","",1,1,"2024-08-23_13h21.31.714","IAT(Formal)","2021.2.3","Win32",60.24096386,"",NA,"",NA,NA,NA,NA,NA,NA,"","",NA,"",NA,"i",1,0.5165,0,25,25,33,1,"刻薄","i","",NA,NA,NA,NA,NA,NA,"",NA,"",NA,NA,NA,NA,NA,NA,NA,"",NA,"",NA,NA,NA,NA,NA,NA,NA,"","","",NA,"",NA,NA,NA,NA,NA,NA,NA,"",NA,"3"
"",NA,"",NA,"",NA,NA,NA,NA,NA,NA,NA,"","",1,1,"2024-08-23_13h21.31.714","IAT(Formal)","2021.2.3","Win32",60.24096386,"",NA,"",NA,NA,NA,NA,NA,NA,"","",NA,"",NA,"i",1,0.6466,0,26,26,40,1,"执拗","i","",NA,NA,NA,NA,NA,NA,"",NA,"",NA,NA,NA,NA,NA,NA,NA,"",NA,"",NA,NA,NA,NA,NA,NA,NA,"","","",NA,"",NA,NA,NA,NA,NA,NA,NA,"",NA,"3"
"",NA,"",NA,"",NA,NA,NA,NA,NA,NA,NA,"","",1,1,"2024-08-23_13h21.31.714","IAT(Formal)","2021.2.3","Win32",60.24096386,"",NA,"",NA,NA,NA,NA,NA,NA,"","",NA,"",NA,"e",1,0.4994,0,27,27,70,1,"我","e","",NA,NA,NA,NA,NA,NA,"",NA,"",NA,NA,NA,NA,NA,NA,NA,"",NA,"",NA,NA,NA,NA,NA,NA,NA,"","","",NA,"",NA,NA,NA,NA,NA,NA,NA,"",NA,"3"
"",NA,"",NA,"",NA,NA,NA,NA,NA,NA,NA,"","",1,1,"2024-08-23_13h21.31.714","IAT(Formal)","2021.2.3","Win32",60.24096386,"",NA,"",NA,NA,NA,NA,NA,NA,"","",NA,"",NA,"i",1,0.4791,0,28,28,6,1,"他们","i","",NA,NA,NA,NA,NA,NA,"",NA,"",NA,NA,NA,NA,NA,NA,NA,"",NA,"",NA,NA,NA,NA,NA,NA,NA,"","","",NA,"",NA,NA,NA,NA,NA,NA,NA,"",NA,"3"
"",NA,"",NA,"",NA,NA,NA,NA,NA,NA,NA,"","",1,1,"2024-08-23_13h21.31.714","IAT(Formal)","2021.2.3","Win32",60.24096386,"",NA,"",NA,NA,NA,NA,NA,NA,"","",NA,"",NA,"e",1,0.4893,0,29,29,72,1,"我们","e","",NA,NA,NA,NA,NA,NA,"",NA,"",NA,NA,NA,NA,NA,NA,NA,"",NA,"",NA,NA,NA,NA,NA,NA,NA,"","","",NA,"",NA,NA,NA,NA,NA,NA,NA,"",NA,"3"
"",NA,"",NA,"",NA,NA,NA,NA,NA,NA,NA,"","",1,1,"2024-08-23_13h21.31.714","IAT(Formal)","2021.2.3","Win32",60.24096386,"",NA,"",NA,NA,NA,NA,NA,NA,"","",NA,"",NA,"e",0,0.4554,0,30,30,76,1,"他们","i","",NA,NA,NA,NA,NA,NA,"",NA,"",NA,NA,NA,NA,NA,NA,NA,"",NA,"",NA,NA,NA,NA,NA,NA,NA,"","","",NA,"",NA,NA,NA,NA,NA,NA,NA,"",NA,"3"
"",NA,"",NA,"",NA,NA,NA,NA,NA,NA,NA,"","",1,1,"2024-08-23_13h21.31.714","IAT(Formal)","2021.2.3","Win32",60.24096386,"",NA,"",NA,NA,NA,NA,NA,NA,"","",NA,"",NA,"e",1,0.5808,0,31,31,15,1,"诚实","e","",NA,NA,NA,NA,NA,NA,"",NA,"",NA,NA,NA,NA,NA,NA,NA,"",NA,"",NA,NA,NA,NA,NA,NA,NA,"","","",NA,"",NA,NA,NA,NA,NA,NA,NA,"",NA,"3"
"",NA,"",NA,"",NA,NA,NA,NA,NA,NA,NA,"","",1,1,"2024-08-23_13h21.31.714","IAT(Formal)","2021.2.3","Win32",60.24096386,"",NA,"",NA,NA,NA,NA,NA,NA,"","",NA,"",NA,"e",1,0.5628,0,32,32,50,1,"我","e","",NA,NA,NA,NA,NA,NA,"",NA,"",NA,NA,NA,NA,NA,NA,NA,"",NA,"",NA,NA,NA,NA,NA,NA,NA,"","","",NA,"",NA,NA,NA,NA,NA,NA,NA,"",NA,"3"
"",NA,"",NA,"",NA,NA,NA,NA,NA,NA,NA,"","",1,1,"2024-08-23_13h21.31.714","IAT(Formal)","2021.2.3","Win32",60.24096386,"",NA,"",NA,NA,NA,NA,NA,NA,"","",NA,"",NA,"i",0,0.5476,0,33,33,17,1,"勇敢","e","",NA,NA,NA,NA,NA,NA,"",NA,"",NA,NA,NA,NA,NA,NA,NA,"",NA,"",NA,NA,NA,NA,NA,NA,NA,"","","",NA,"",NA,NA,NA,NA,NA,NA,NA,"",NA,"3"
"",NA,"",NA,"",NA,NA,NA,NA,NA,NA,NA,"","",1,1,"2024-08-23_13h21.31.714","IAT(Formal)","2021.2.3","Win32",60.24096386,"",NA,"",NA,NA,NA,NA,NA,NA,"","",NA,"",NA,"i",1,0.8019,0,34,34,5,1,"他","i","",NA,NA,NA,NA,NA,NA,"",NA,"",NA,NA,NA,NA,NA,NA,NA,"",NA,"",NA,NA,NA,NA,NA,NA,NA,"","","",NA,"",NA,NA,NA,NA,NA,NA,NA,"",NA,"3"
"",NA,"",NA,"",NA,NA,NA,NA,NA,NA,NA,"","",1,1,"2024-08-23_13h21.31.714","IAT(Formal)","2021.2.3","Win32",60.24096386,"",NA,"",NA,NA,NA,NA,NA,NA,"","",NA,"",NA,"i",1,0.6043,0,35,35,75,1,"他","i","",NA,NA,NA,NA,NA,NA,"",NA,"",NA,NA,NA,NA,NA,NA,NA,"",NA,"",NA,NA,NA,NA,NA,NA,NA,"","","",NA,"",NA,NA,NA,NA,NA,NA,NA,"",NA,"3"
"",NA,"",NA,"",NA,NA,NA,NA,NA,NA,NA,"","",1,1,"2024-08-23_13h21.31.714","IAT(Formal)","2021.2.3","Win32",60.24096386,"",NA,"",NA,NA,NA,NA,NA,NA,"","",NA,"",NA,"e",1,0.5858,0,36,36,74,1,"俺","e","",NA,NA,NA,NA,NA,NA,"",NA,"",NA,NA,NA,NA,NA,NA,NA,"",NA,"",NA,NA,NA,NA,NA,NA,NA,"","","",NA,"",NA,NA,NA,NA,NA,NA,NA,"",NA,"3"
"",NA,"",NA,"",NA,NA,NA,NA,NA,NA,NA,"","",1,1,"2024-08-23_13h21.31.714","IAT(Formal)","2021.2.3","Win32",60.24096386,"",NA,"",NA,NA,NA,NA,NA,NA,"","",NA,"",NA,"i",1,0.6993,0,37,37,77,1,"他的","i","",NA,NA,NA,NA,NA,NA,"",NA,"",NA,NA,NA,NA,NA,NA,NA,"",NA,"",NA,NA,NA,NA,NA,NA,NA,"","","",NA,"",NA,NA,NA,NA,NA,NA,NA,"",NA,"3"
"",NA,"",NA,"",NA,NA,NA,NA,NA,NA,NA,"","",1,1,"2024-08-23_13h21.31.714","IAT(Formal)","2021.2.3","Win32",60.24096386,"",NA,"",NA,NA,NA,NA,NA,NA,"","",NA,"",NA,"e",1,0.6138,0,38,38,64,1,"俺","e","",NA,NA,NA,NA,NA,NA,"",NA,"",NA,NA,NA,NA,NA,NA,NA,"",NA,"",NA,NA,NA,NA,NA,NA,NA,"","","",NA,"",NA,NA,NA,NA,NA,NA,NA,"",NA,"3"
"",NA,"",NA,"",NA,NA,NA,NA,NA,NA,NA,"","",1,1,"2024-08-23_13h21.31.714","IAT(Formal)","2021.2.3","Win32",60.24096386,"",NA,"",NA,NA,NA,NA,NA,NA,"","",NA,"",NA,"i",1,0.6998,0,39,39,36,1,"自卑","i","",NA,NA,NA,NA,NA,NA,"",NA,"",NA,NA,NA,NA,NA,NA,NA,"",NA,"",NA,NA,NA,NA,NA,NA,NA,"","","",NA,"",NA,NA,NA,NA,NA,NA,NA,"",NA,"3"
"",NA,"",NA,"",NA,NA,NA,NA,NA,NA,NA,"","",1,1,"2024-08-23_13h21.31.714","IAT(Formal)","2021.2.3","Win32",60.24096386,"",NA,"",NA,NA,NA,NA,NA,NA,"","",NA,"",NA,"i",1,0.5337,0,40,40,44,1,"暴躁","i","",NA,NA,NA,NA,NA,NA,"",NA,"",NA,NA,NA,NA,NA,NA,NA,"",NA,"",NA,NA,NA,NA,NA,NA,NA,"","","",NA,"",NA,NA,NA,NA,NA,NA,NA,"",NA,"3"
"",NA,"",NA,"",NA,NA,NA,NA,NA,NA,NA,"","",1,1,"2024-08-23_13h21.31.714","IAT(Formal)","2021.2.3","Win32",60.24096386,"",NA,"",NA,NA,NA,NA,NA,NA,"","",NA,"",NA,"e",1,0.5051,0,41,41,62,1,"我们","e","",NA,NA,NA,NA,NA,NA,"",NA,"",NA,NA,NA,NA,NA,NA,NA,"",NA,"",NA,NA,NA,NA,NA,NA,NA,"","","",NA,"",NA,NA,NA,NA,NA,NA,NA,"",NA,"3"
"",NA,"",NA,"",NA,NA,NA,NA,NA,NA,NA,"","",1,1,"2024-08-23_13h21.31.714","IAT(Formal)","2021.2.3","Win32",60.24096386,"",NA,"",NA,NA,NA,NA,NA,NA,"","",NA,"",NA,"e",1,0.5364,0,42,42,2,1,"我们","e","",NA,NA,NA,NA,NA,NA,"",NA,"",NA,NA,NA,NA,NA,NA,NA,"",NA,"",NA,NA,NA,NA,NA,NA,NA,"","","",NA,"",NA,NA,NA,NA,NA,NA,NA,"",NA,"3"
"",NA,"",NA,"",NA,NA,NA,NA,NA,NA,NA,"","",1,1,"2024-08-23_13h21.31.714","IAT(Formal)","2021.2.3","Win32",60.24096386,"",NA,"",NA,NA,NA,NA,NA,NA,"","",NA,"",NA,"e",1,0.6303,0,43,43,14,1,"乐观","e","",NA,NA,NA,NA,NA,NA,"",NA,"",NA,NA,NA,NA,NA,NA,NA,"",NA,"",NA,NA,NA,NA,NA,NA,NA,"","","",NA,"",NA,NA,NA,NA,NA,NA,NA,"",NA,"3"
"",NA,"",NA,"",NA,NA,NA,NA,NA,NA,NA,"","",1,1,"2024-08-23_13h21.31.714","IAT(Formal)","2021.2.3","Win32",60.24096386,"",NA,"",NA,NA,NA,NA,NA,NA,"","",NA,"",NA,"i",1,0.598,0,44,44,58,1,"他人","i","",NA,NA,NA,NA,NA,NA,"",NA,"",NA,NA,NA,NA,NA,NA,NA,"",NA,"",NA,NA,NA,NA,NA,NA,NA,"","","",NA,"",NA,NA,NA,NA,NA,NA,NA,"",NA,"3"
"",NA,"",NA,"",NA,NA,NA,NA,NA,NA,NA,"","",1,1,"2024-08-23_13h21.31.714","IAT(Formal)","2021.2.3","Win32",60.24096386,"",NA,"",NA,NA,NA,NA,NA,NA,"","",NA,"",NA,"i",0,0.7865,0,45,45,52,1,"我们","e","",NA,NA,NA,NA,NA,NA,"",NA,"",NA,NA,NA,NA,NA,NA,NA,"",NA,"",NA,NA,NA,NA,NA,NA,NA,"","","",NA,"",NA,NA,NA,NA,NA,NA,NA,"",NA,"3"
"",NA,"",NA,"",NA,NA,NA,NA,NA,NA,NA,"","",1,1,"2024-08-23_13h21.31.714","IAT(Formal)","2021.2.3","Win32",60.24096386,"",NA,"",NA,NA,NA,NA,NA,NA,"","",NA,"",NA,"i",1,0.7145,0,46,46,47,1,"固执","i","",NA,NA,NA,NA,NA,NA,"",NA,"",NA,NA,NA,NA,NA,NA,NA,"",NA,"",NA,NA,NA,NA,NA,NA,NA,"","","",NA,"",NA,NA,NA,NA,NA,NA,NA,"",NA,"3"
"",NA,"",NA,"",NA,NA,NA,NA,NA,NA,NA,"","",1,1,"2024-08-23_13h21.31.714","IAT(Formal)","2021.2.3","Win32",60.24096386,"",NA,"",NA,NA,NA,NA,NA,NA,"","",NA,"",NA,"i",0,0.5296,0,47,47,13,1,"杰出","e","",NA,NA,NA,NA,NA,NA,"",NA,"",NA,NA,NA,NA,NA,NA,NA,"",NA,"",NA,NA,NA,NA,NA,NA,NA,"","","",NA,"",NA,NA,NA,NA,NA,NA,NA,"",NA,"3"
"",NA,"",NA,"",NA,NA,NA,NA,NA,NA,NA,"","",1,1,"2024-08-23_13h21.31.714","IAT(Formal)","2021.2.3","Win32",60.24096386,"",NA,"",NA,NA,NA,NA,NA,NA,"","",NA,"",NA,"e",0,0.5182,0,48,48,55,1,"他","i","",NA,NA,NA,NA,NA,NA,"",NA,"",NA,NA,NA,NA,NA,NA,NA,"",NA,"",NA,NA,NA,NA,NA,NA,NA,"","","",NA,"",NA,NA,NA,NA,NA,NA,NA,"",NA,"3"
"",NA,"",NA,"",NA,NA,NA,NA,NA,NA,NA,"","",1,1,"2024-08-23_13h21.31.714","IAT(Formal)","2021.2.3","Win32",60.24096386,"",NA,"",NA,NA,NA,NA,NA,NA,"","",NA,"",NA,"i",1,0.6294,0,49,49,38,1,"鲁莽","i","",NA,NA,NA,NA,NA,NA,"",NA,"",NA,NA,NA,NA,NA,NA,NA,"",NA,"",NA,NA,NA,NA,NA,NA,NA,"","","",NA,"",NA,NA,NA,NA,NA,NA,NA,"",NA,"3"
"",NA,"",NA,"",NA,NA,NA,NA,NA,NA,NA,"","",1,1,"2024-08-23_13h21.31.714","IAT(Formal)","2021.2.3","Win32",60.24096386,"",NA,"",NA,NA,NA,NA,NA,NA,"","",NA,"",NA,"e",1,0.6222,0,50,50,51,1,"我的","e","",NA,NA,NA,NA,NA,NA,"",NA,"",NA,NA,NA,NA,NA,NA,NA,"",NA,"",NA,NA,NA,NA,NA,NA,NA,"","","",NA,"",NA,NA,NA,NA,NA,NA,NA,"",NA,"3"
"",NA,"",NA,"",NA,NA,NA,NA,NA,NA,NA,"","",1,1,"2024-08-23_13h21.31.714","IAT(Formal)","2021.2.3","Win32",60.24096386,"",NA,"",NA,NA,NA,NA,NA,NA,"","",NA,"",NA,"e",1,1.133,0,51,51,10,1,"优秀","e","",NA,NA,NA,NA,NA,NA,"",NA,"",NA,NA,NA,NA,NA,NA,NA,"",NA,"",NA,NA,NA,NA,NA,NA,NA,"","","",NA,"",NA,NA,NA,NA,NA,NA,NA,"",NA,"3"
"",NA,"",NA,"",NA,NA,NA,NA,NA,NA,NA,"","",1,1,"2024-08-23_13h21.31.714","IAT(Formal)","2021.2.3","Win32",60.24096386,"",NA,"",NA,NA,NA,NA,NA,NA,"","",NA,"",NA,"i",1,0.5871,0,52,52,69,1,"其他","i","",NA,NA,NA,NA,NA,NA,"",NA,"",NA,NA,NA,NA,NA,NA,NA,"",NA,"",NA,NA,NA,NA,NA,NA,NA,"","","",NA,"",NA,NA,NA,NA,NA,NA,NA,"",NA,"3"
"",NA,"",NA,"",NA,NA,NA,NA,NA,NA,NA,"","",1,1,"2024-08-23_13h21.31.714","IAT(Formal)","2021.2.3","Win32",60.24096386,"",NA,"",NA,NA,NA,NA,NA,NA,"","",NA,"",NA,"i",1,0.5574,0,53,53,39,1,"冒失","i","",NA,NA,NA,NA,NA,NA,"",NA,"",NA,NA,NA,NA,NA,NA,NA,"",NA,"",NA,NA,NA,NA,NA,NA,NA,"","","",NA,"",NA,NA,NA,NA,NA,NA,NA,"",NA,"3"
"",NA,"",NA,"",NA,NA,NA,NA,NA,NA,NA,"","",1,1,"2024-08-23_13h21.31.714","IAT(Formal)","2021.2.3","Win32",60.24096386,"",NA,"",NA,NA,NA,NA,NA,NA,"","",NA,"",NA,"e",1,0.5673,0,54,54,18,1,"勤奋","e","",NA,NA,NA,NA,NA,NA,"",NA,"",NA,NA,NA,NA,NA,NA,NA,"",NA,"",NA,NA,NA,NA,NA,NA,NA,"","","",NA,"",NA,NA,NA,NA,NA,NA,NA,"",NA,"3"
"",NA,"",NA,"",NA,NA,NA,NA,NA,NA,NA,"","",1,1,"2024-08-23_13h21.31.714","IAT(Formal)","2021.2.3","Win32",60.24096386,"",NA,"",NA,NA,NA,NA,NA,NA,"","",NA,"",NA,"i",1,0.552,0,55,55,41,1,"散漫","i","",NA,NA,NA,NA,NA,NA,"",NA,"",NA,NA,NA,NA,NA,NA,NA,"",NA,"",NA,NA,NA,NA,NA,NA,NA,"","","",NA,"",NA,NA,NA,NA,NA,NA,NA,"",NA,"3"
"",NA,"",NA,"",NA,NA,NA,NA,NA,NA,NA,"","",1,1,"2024-08-23_13h21.31.714","IAT(Formal)","2021.2.3","Win32",60.24096386,"",NA,"",NA,NA,NA,NA,NA,NA,"","",NA,"",NA,"i",1,0.6512,0,56,56,8,1,"他人","i","",NA,NA,NA,NA,NA,NA,"",NA,"",NA,NA,NA,NA,NA,NA,NA,"",NA,"",NA,NA,NA,NA,NA,NA,NA,"","","",NA,"",NA,NA,NA,NA,NA,NA,NA,"",NA,"3"
"",NA,"",NA,"",NA,NA,NA,NA,NA,NA,NA,"","",1,1,"2024-08-23_13h21.31.714","IAT(Formal)","2021.2.3","Win32",60.24096386,"",NA,"",NA,NA,NA,NA,NA,NA,"","",NA,"",NA,"i",1,0.5486,0,57,57,43,1,"自私","i","",NA,NA,NA,NA,NA,NA,"",NA,"",NA,NA,NA,NA,NA,NA,NA,"",NA,"",NA,NA,NA,NA,NA,NA,NA,"","","",NA,"",NA,NA,NA,NA,NA,NA,NA,"",NA,"3"
"",NA,"",NA,"",NA,NA,NA,NA,NA,NA,NA,"","",1,1,"2024-08-23_13h21.31.714","IAT(Formal)","2021.2.3","Win32",60.24096386,"",NA,"",NA,NA,NA,NA,NA,NA,"","",NA,"",NA,"e",1,0.5309,0,58,58,53,1,"自己","e","",NA,NA,NA,NA,NA,NA,"",NA,"",NA,NA,NA,NA,NA,NA,NA,"",NA,"",NA,NA,NA,NA,NA,NA,NA,"","","",NA,"",NA,NA,NA,NA,NA,NA,NA,"",NA,"3"
"",NA,"",NA,"",NA,NA,NA,NA,NA,NA,NA,"","",1,1,"2024-08-23_13h21.31.714","IAT(Formal)","2021.2.3","Win32",60.24096386,"",NA,"",NA,NA,NA,NA,NA,NA,"","",NA,"",NA,"i",1,0.562,0,59,59,45,1,"猖狂","i","",NA,NA,NA,NA,NA,NA,"",NA,"",NA,NA,NA,NA,NA,NA,NA,"",NA,"",NA,NA,NA,NA,NA,NA,NA,"","","",NA,"",NA,NA,NA,NA,NA,NA,NA,"",NA,"3"
"",NA,"",NA,"",NA,NA,NA,NA,NA,NA,NA,"","",1,1,"2024-08-23_13h21.31.714","IAT(Formal)","2021.2.3","Win32",60.24096386,"",NA,"",NA,NA,NA,NA,NA,NA,"","",NA,"",NA,"i",1,0.5395,0,60,60,7,1,"他的","i","",NA,NA,NA,NA,NA,NA,"",NA,"",NA,NA,NA,NA,NA,NA,NA,"",NA,"",NA,NA,NA,NA,NA,NA,NA,"","","",NA,"",NA,NA,NA,NA,NA,NA,NA,"",NA,"3"
"",NA,"",NA,"",NA,NA,NA,NA,NA,NA,NA,"","",1,1,"2024-08-23_13h21.31.714","IAT(Formal)","2021.2.3","Win32",60.24096386,"",NA,"",NA,NA,NA,NA,NA,NA,"","",NA,"",NA,"e",1,0.6416,0,61,61,60,1,"我","e","",NA,NA,NA,NA,NA,NA,"",NA,"",NA,NA,NA,NA,NA,NA,NA,"",NA,"",NA,NA,NA,NA,NA,NA,NA,"","","",NA,"",NA,NA,NA,NA,NA,NA,NA,"",NA,"3"
"",NA,"",NA,"",NA,NA,NA,NA,NA,NA,NA,"","",1,1,"2024-08-23_13h21.31.714","IAT(Formal)","2021.2.3","Win32",60.24096386,"",NA,"",NA,NA,NA,NA,NA,NA,"","",NA,"",NA,"i",0,0.4061,0,62,62,3,1,"自己","e","",NA,NA,NA,NA,NA,NA,"",NA,"",NA,NA,NA,NA,NA,NA,NA,"",NA,"",NA,NA,NA,NA,NA,NA,NA,"","","",NA,"",NA,NA,NA,NA,NA,NA,NA,"",NA,"3"
"",NA,"",NA,"",NA,NA,NA,NA,NA,NA,NA,"","",1,1,"2024-08-23_13h21.31.714","IAT(Formal)","2021.2.3","Win32",60.24096386,"",NA,"",NA,NA,NA,NA,NA,NA,"","",NA,"",NA,"i",1,0.8003,0,63,63,31,1,"虚伪","i","",NA,NA,NA,NA,NA,NA,"",NA,"",NA,NA,NA,NA,NA,NA,NA,"",NA,"",NA,NA,NA,NA,NA,NA,NA,"","","",NA,"",NA,NA,NA,NA,NA,NA,NA,"",NA,"3"
"",NA,"",NA,"",NA,NA,NA,NA,NA,NA,NA,"","",1,1,"2024-08-23_13h21.31.714","IAT(Formal)","2021.2.3","Win32",60.24096386,"",NA,"",NA,NA,NA,NA,NA,NA,"","",NA,"",NA,"i",1,0.6712,0,64,64,35,1,"消极","i","",NA,NA,NA,NA,NA,NA,"",NA,"",NA,NA,NA,NA,NA,NA,NA,"",NA,"",NA,NA,NA,NA,NA,NA,NA,"","","",NA,"",NA,NA,NA,NA,NA,NA,NA,"",NA,"3"
"",NA,"",NA,"",NA,NA,NA,NA,NA,NA,NA,"","",1,1,"2024-08-23_13h21.31.714","IAT(Formal)","2021.2.3","Win32",60.24096386,"",NA,"",NA,NA,NA,NA,NA,NA,"","",NA,"",NA,"e",1,0.55,0,65,65,23,1,"公正","e","",NA,NA,NA,NA,NA,NA,"",NA,"",NA,NA,NA,NA,NA,NA,NA,"",NA,"",NA,NA,NA,NA,NA,NA,NA,"","","",NA,"",NA,NA,NA,NA,NA,NA,NA,"",NA,"3"
"",NA,"",NA,"",NA,NA,NA,NA,NA,NA,NA,"","",1,1,"2024-08-23_13h21.31.714","IAT(Formal)","2021.2.3","Win32",60.24096386,"",NA,"",NA,NA,NA,NA,NA,NA,"","",NA,"",NA,"i",1,0.6191,0,66,66,37,1,"傲慢","i","",NA,NA,NA,NA,NA,NA,"",NA,"",NA,NA,NA,NA,NA,NA,NA,"",NA,"",NA,NA,NA,NA,NA,NA,NA,"","","",NA,"",NA,NA,NA,NA,NA,NA,NA,"",NA,"3"
"",NA,"",NA,"",NA,NA,NA,NA,NA,NA,NA,"","",1,1,"2024-08-23_13h21.31.714","IAT(Formal)","2021.2.3","Win32",60.24096386,"",NA,"",NA,NA,NA,NA,NA,NA,"","",NA,"",NA,"i",1,0.5628,0,67,67,30,1,"卑鄙","i","",NA,NA,NA,NA,NA,NA,"",NA,"",NA,NA,NA,NA,NA,NA,NA,"",NA,"",NA,NA,NA,NA,NA,NA,NA,"","","",NA,"",NA,NA,NA,NA,NA,NA,NA,"",NA,"3"
"",NA,"",NA,"",NA,NA,NA,NA,NA,NA,NA,"","",1,1,"2024-08-23_13h21.31.714","IAT(Formal)","2021.2.3","Win32",60.24096386,"",NA,"",NA,NA,NA,NA,NA,NA,"","",NA,"",NA,"e",1,1.0863,0,68,68,73,1,"自己","e","",NA,NA,NA,NA,NA,NA,"",NA,"",NA,NA,NA,NA,NA,NA,NA,"",NA,"",NA,NA,NA,NA,NA,NA,NA,"","","",NA,"",NA,NA,NA,NA,NA,NA,NA,"",NA,"3"
"",NA,"",NA,"",NA,NA,NA,NA,NA,NA,NA,"","",1,1,"2024-08-23_13h21.31.714","IAT(Formal)","2021.2.3","Win32",60.24096386,"",NA,"",NA,NA,NA,NA,NA,NA,"","",NA,"",NA,"e",1,0.7659,0,69,69,21,1,"稳重","e","",NA,NA,NA,NA,NA,NA,"",NA,"",NA,NA,NA,NA,NA,NA,NA,"",NA,"",NA,NA,NA,NA,NA,NA,NA,"","","",NA,"",NA,NA,NA,NA,NA,NA,NA,"",NA,"3"
"",NA,"",NA,"",NA,NA,NA,NA,NA,NA,NA,"","",1,1,"2024-08-23_13h21.31.714","IAT(Formal)","2021.2.3","Win32",60.24096386,"",NA,"",NA,NA,NA,NA,NA,NA,"","",NA,"",NA,"e",1,0.6498,0,70,70,71,1,"我的","e","",NA,NA,NA,NA,NA,NA,"",NA,"",NA,NA,NA,NA,NA,NA,NA,"",NA,"",NA,NA,NA,NA,NA,NA,NA,"","","",NA,"",NA,NA,NA,NA,NA,NA,NA,"",NA,"3"
"",NA,"",NA,"",NA,NA,NA,NA,NA,NA,NA,"","",1,1,"2024-08-23_13h21.31.714","IAT(Formal)","2021.2.3","Win32",60.24096386,"",NA,"",NA,NA,NA,NA,NA,NA,"","",NA,"",NA,"e",1,0.6229,0,71,71,19,1,"机智","e","",NA,NA,NA,NA,NA,NA,"",NA,"",NA,NA,NA,NA,NA,NA,NA,"",NA,"",NA,NA,NA,NA,NA,NA,NA,"","","",NA,"",NA,NA,NA,NA,NA,NA,NA,"",NA,"3"
"",NA,"",NA,"",NA,NA,NA,NA,NA,NA,NA,"","",1,1,"2024-08-23_13h21.31.714","IAT(Formal)","2021.2.3","Win32",60.24096386,"",NA,"",NA,NA,NA,NA,NA,NA,"","",NA,"",NA,"e",1,0.8006,0,72,72,24,1,"朴实","e","",NA,NA,NA,NA,NA,NA,"",NA,"",NA,NA,NA,NA,NA,NA,NA,"",NA,"",NA,NA,NA,NA,NA,NA,NA,"","","",NA,"",NA,NA,NA,NA,NA,NA,NA,"",NA,"3"
"",NA,"",NA,"",NA,NA,NA,NA,NA,NA,NA,"","",1,1,"2024-08-23_13h21.31.714","IAT(Formal)","2021.2.3","Win32",60.24096386,"",NA,"",NA,NA,NA,NA,NA,NA,"","",NA,"",NA,"i",1,0.6656,0,73,73,49,1,"下贱","i","",NA,NA,NA,NA,NA,NA,"",NA,"",NA,NA,NA,NA,NA,NA,NA,"",NA,"",NA,NA,NA,NA,NA,NA,NA,"","","",NA,"",NA,NA,NA,NA,NA,NA,NA,"",NA,"3"
"",NA,"",NA,"",NA,NA,NA,NA,NA,NA,NA,"","",1,1,"2024-08-23_13h21.31.714","IAT(Formal)","2021.2.3","Win32",60.24096386,"",NA,"",NA,NA,NA,NA,NA,NA,"","",NA,"",NA,"i",0,0.622,0,74,74,26,1,"冷静","e","",NA,NA,NA,NA,NA,NA,"",NA,"",NA,NA,NA,NA,NA,NA,NA,"",NA,"",NA,NA,NA,NA,NA,NA,NA,"","","",NA,"",NA,NA,NA,NA,NA,NA,NA,"",NA,"3"
"",NA,"",NA,"",NA,NA,NA,NA,NA,NA,NA,"","",1,1,"2024-08-23_13h21.31.714","IAT(Formal)","2021.2.3","Win32",60.24096386,"",NA,"",NA,NA,NA,NA,NA,NA,"","",NA,"",NA,"i",1,1.4607,0,75,75,67,1,"他的","i","",NA,NA,NA,NA,NA,NA,"",NA,"",NA,NA,NA,NA,NA,NA,NA,"",NA,"",NA,NA,NA,NA,NA,NA,NA,"","","",NA,"",NA,NA,NA,NA,NA,NA,NA,"",NA,"3"
"",NA,"",NA,"",NA,NA,NA,NA,NA,NA,NA,"","",1,1,"2024-08-23_13h21.31.714","IAT(Formal)","2021.2.3","Win32",60.24096386,"",NA,"",NA,NA,NA,NA,NA,NA,"","",NA,"",NA,"e",1,0.9196,0,76,76,22,1,"无私","e","",NA,NA,NA,NA,NA,NA,"",NA,"",NA,NA,NA,NA,NA,NA,NA,"",NA,"",NA,NA,NA,NA,NA,NA,NA,"","","",NA,"",NA,NA,NA,NA,NA,NA,NA,"",NA,"3"
"",NA,"",NA,"",NA,NA,NA,NA,NA,NA,NA,"","",1,1,"2024-08-23_13h21.31.714","IAT(Formal)","2021.2.3","Win32",60.24096386,"",NA,"",NA,NA,NA,NA,NA,NA,"","",NA,"",NA,"e",1,1.0816,0,77,77,0,1,"我","e","",NA,NA,NA,NA,NA,NA,"",NA,"",NA,NA,NA,NA,NA,NA,NA,"",NA,"",NA,NA,NA,NA,NA,NA,NA,"","","",NA,"",NA,NA,NA,NA,NA,NA,NA,"",NA,"3"
"",NA,"",NA,"",NA,NA,NA,NA,NA,NA,NA,"","",1,1,"2024-08-23_13h21.31.714","IAT(Formal)","2021.2.3","Win32",60.24096386,"",NA,"",NA,NA,NA,NA,NA,NA,"","",NA,"",NA,"",0,NA,0,78,78,59,1,"其他","i","",NA,NA,NA,NA,NA,NA,"",NA,"",NA,NA,NA,NA,NA,NA,NA,"",NA,"",NA,NA,NA,NA,NA,NA,NA,"","","",NA,"",NA,NA,NA,NA,NA,NA,NA,"",NA,"3"
"",NA,"",NA,"",NA,NA,NA,NA,NA,NA,NA,"","",1,1,"2024-08-23_13h21.31.714","IAT(Formal)","2021.2.3","Win32",60.24096386,"",NA,"",NA,NA,NA,NA,NA,NA,"","",NA,"",NA,"e",1,0.6793,0,79,79,1,1,"我的","e","",NA,NA,NA,NA,NA,NA,"",NA,"",NA,NA,NA,NA,NA,NA,NA,"",NA,"",NA,NA,NA,NA,NA,NA,NA,"","","",NA,"",NA,NA,NA,NA,NA,NA,NA,"",NA,"3"
"",NA,"",NA,"",NA,NA,NA,NA,NA,NA,NA,"","",1,1,"2024-08-23_13h21.31.714","IAT(Formal)","2021.2.3","Win32",60.24096386,"",NA,"",NA,NA,NA,NA,NA,NA,"","",NA,"",NA,"e",1,0.6351,NA,NA,NA,NA,NA,"细腻","e","space",11.4012,0,0,0,25,1,"",NA,"",NA,NA,NA,NA,NA,NA,NA,"",NA,"",NA,NA,NA,NA,NA,NA,NA,"","","",NA,"",NA,NA,NA,NA,NA,NA,NA,"",NA,"3"
"",NA,"",NA,"",NA,NA,NA,NA,NA,NA,NA,"","",1,1,"2024-08-23_13h21.31.714","IAT(Formal)","2021.2.3","Win32",60.24096386,"",NA,"",NA,NA,NA,NA,NA,NA,"","",NA,"",NA,"i",1,0.9489,NA,NA,NA,NA,NA,"猖狂","i","",NA,0,1,1,45,1,"",NA,"",NA,NA,NA,NA,NA,NA,NA,"",NA,"",NA,NA,NA,NA,NA,NA,NA,"","","",NA,"",NA,NA,NA,NA,NA,NA,NA,"",NA,"3"
"",NA,"",NA,"",NA,NA,NA,NA,NA,NA,NA,"","",1,1,"2024-08-23_13h21.31.714","IAT(Formal)","2021.2.3","Win32",60.24096386,"",NA,"",NA,NA,NA,NA,NA,NA,"","",NA,"",NA,"i",1,0.7006,NA,NA,NA,NA,NA,"他人","i","",NA,0,2,2,68,1,"",NA,"",NA,NA,NA,NA,NA,NA,NA,"",NA,"",NA,NA,NA,NA,NA,NA,NA,"","","",NA,"",NA,NA,NA,NA,NA,NA,NA,"",NA,"3"
"",NA,"",NA,"",NA,NA,NA,NA,NA,NA,NA,"","",1,1,"2024-08-23_13h21.31.714","IAT(Formal)","2021.2.3","Win32",60.24096386,"",NA,"",NA,NA,NA,NA,NA,NA,"","",NA,"",NA,"e",1,0.5665,NA,NA,NA,NA,NA,"我","e","",NA,0,3,3,70,1,"",NA,"",NA,NA,NA,NA,NA,NA,NA,"",NA,"",NA,NA,NA,NA,NA,NA,NA,"","","",NA,"",NA,NA,NA,NA,NA,NA,NA,"",NA,"3"
"",NA,"",NA,"",NA,NA,NA,NA,NA,NA,NA,"","",1,1,"2024-08-23_13h21.31.714","IAT(Formal)","2021.2.3","Win32",60.24096386,"",NA,"",NA,NA,NA,NA,NA,NA,"","",NA,"",NA,"i",1,0.6186,NA,NA,NA,NA,NA,"他的","i","",NA,0,4,4,67,1,"",NA,"",NA,NA,NA,NA,NA,NA,NA,"",NA,"",NA,NA,NA,NA,NA,NA,NA,"","","",NA,"",NA,NA,NA,NA,NA,NA,NA,"",NA,"3"
"",NA,"",NA,"",NA,NA,NA,NA,NA,NA,NA,"","",1,1,"2024-08-23_13h21.31.714","IAT(Formal)","2021.2.3","Win32",60.24096386,"",NA,"",NA,NA,NA,NA,NA,NA,"","",NA,"",NA,"i",0,0.4655,NA,NA,NA,NA,NA,"无私","e","",NA,0,5,5,22,1,"",NA,"",NA,NA,NA,NA,NA,NA,NA,"",NA,"",NA,NA,NA,NA,NA,NA,NA,"","","",NA,"",NA,NA,NA,NA,NA,NA,NA,"",NA,"3"
"",NA,"",NA,"",NA,NA,NA,NA,NA,NA,NA,"","",1,1,"2024-08-23_13h21.31.714","IAT(Formal)","2021.2.3","Win32",60.24096386,"",NA,"",NA,NA,NA,NA,NA,NA,"","",NA,"",NA,"i",1,0.6699,NA,NA,NA,NA,NA,"他","i","",NA,0,6,6,5,1,"",NA,"",NA,NA,NA,NA,NA,NA,NA,"",NA,"",NA,NA,NA,NA,NA,NA,NA,"","","",NA,"",NA,NA,NA,NA,NA,NA,NA,"",NA,"3"
"",NA,"",NA,"",NA,NA,NA,NA,NA,NA,NA,"","",1,1,"2024-08-23_13h21.31.714","IAT(Formal)","2021.2.3","Win32",60.24096386,"",NA,"",NA,NA,NA,NA,NA,NA,"","",NA,"",NA,"i",1,0.4808,NA,NA,NA,NA,NA,"他的","i","",NA,0,7,7,57,1,"",NA,"",NA,NA,NA,NA,NA,NA,NA,"",NA,"",NA,NA,NA,NA,NA,NA,NA,"","","",NA,"",NA,NA,NA,NA,NA,NA,NA,"",NA,"3"
"",NA,"",NA,"",NA,NA,NA,NA,NA,NA,NA,"","",1,1,"2024-08-23_13h21.31.714","IAT(Formal)","2021.2.3","Win32",60.24096386,"",NA,"",NA,NA,NA,NA,NA,NA,"","",NA,"",NA,"i",1,0.6134,NA,NA,NA,NA,NA,"散漫","i","",NA,0,8,8,41,1,"",NA,"",NA,NA,NA,NA,NA,NA,NA,"",NA,"",NA,NA,NA,NA,NA,NA,NA,"","","",NA,"",NA,NA,NA,NA,NA,NA,NA,"",NA,"3"
"",NA,"",NA,"",NA,NA,NA,NA,NA,NA,NA,"","",1,1,"2024-08-23_13h21.31.714","IAT(Formal)","2021.2.3","Win32",60.24096386,"",NA,"",NA,NA,NA,NA,NA,NA,"","",NA,"",NA,"i",0,0.4826,NA,NA,NA,NA,NA,"活泼","e","",NA,0,9,9,28,1,"",NA,"",NA,NA,NA,NA,NA,NA,NA,"",NA,"",NA,NA,NA,NA,NA,NA,NA,"","","",NA,"",NA,NA,NA,NA,NA,NA,NA,"",NA,"3"
"",NA,"",NA,"",NA,NA,NA,NA,NA,NA,NA,"","",1,1,"2024-08-23_13h21.31.714","IAT(Formal)","2021.2.3","Win32",60.24096386,"",NA,"",NA,NA,NA,NA,NA,NA,"","",NA,"",NA,"i",0,0.6283,NA,NA,NA,NA,NA,"冷静","e","",NA,0,10,10,26,1,"",NA,"",NA,NA,NA,NA,NA,NA,NA,"",NA,"",NA,NA,NA,NA,NA,NA,NA,"","","",NA,"",NA,NA,NA,NA,NA,NA,NA,"",NA,"3"
"",NA,"",NA,"",NA,NA,NA,NA,NA,NA,NA,"","",1,1,"2024-08-23_13h21.31.714","IAT(Formal)","2021.2.3","Win32",60.24096386,"",NA,"",NA,NA,NA,NA,NA,NA,"","",NA,"",NA,"e",1,0.9596,NA,NA,NA,NA,NA,"我们","e","",NA,0,11,11,62,1,"",NA,"",NA,NA,NA,NA,NA,NA,NA,"",NA,"",NA,NA,NA,NA,NA,NA,NA,"","","",NA,"",NA,NA,NA,NA,NA,NA,NA,"",NA,"3"
"",NA,"",NA,"",NA,NA,NA,NA,NA,NA,NA,"","",1,1,"2024-08-23_13h21.31.714","IAT(Formal)","2021.2.3","Win32",60.24096386,"",NA,"",NA,NA,NA,NA,NA,NA,"","",NA,"",NA,"i",1,0.699,NA,NA,NA,NA,NA,"其他","i","",NA,0,12,12,9,1,"",NA,"",NA,NA,NA,NA,NA,NA,NA,"",NA,"",NA,NA,NA,NA,NA,NA,NA,"","","",NA,"",NA,NA,NA,NA,NA,NA,NA,"",NA,"3"
"",NA,"",NA,"",NA,NA,NA,NA,NA,NA,NA,"","",1,1,"2024-08-23_13h21.31.714","IAT(Formal)","2021.2.3","Win32",60.24096386,"",NA,"",NA,NA,NA,NA,NA,NA,"","",NA,"",NA,"e",1,0.5481,NA,NA,NA,NA,NA,"聪明","e","",NA,0,13,13,12,1,"",NA,"",NA,NA,NA,NA,NA,NA,NA,"",NA,"",NA,NA,NA,NA,NA,NA,NA,"","","",NA,"",NA,NA,NA,NA,NA,NA,NA,"",NA,"3"
"",NA,"",NA,"",NA,NA,NA,NA,NA,NA,NA,"","",1,1,"2024-08-23_13h21.31.714","IAT(Formal)","2021.2.3","Win32",60.24096386,"",NA,"",NA,NA,NA,NA,NA,NA,"","",NA,"",NA,"e",1,0.5169,NA,NA,NA,NA,NA,"自己","e","",NA,0,14,14,3,1,"",NA,"",NA,NA,NA,NA,NA,NA,NA,"",NA,"",NA,NA,NA,NA,NA,NA,NA,"","","",NA,"",NA,NA,NA,NA,NA,NA,NA,"",NA,"3"
"",NA,"",NA,"",NA,NA,NA,NA,NA,NA,NA,"","",1,1,"2024-08-23_13h21.31.714","IAT(Formal)","2021.2.3","Win32",60.24096386,"",NA,"",NA,NA,NA,NA,NA,NA,"","",NA,"",NA,"i",1,0.6823,NA,NA,NA,NA,NA,"他","i","",NA,0,15,15,75,1,"",NA,"",NA,NA,NA,NA,NA,NA,NA,"",NA,"",NA,NA,NA,NA,NA,NA,NA,"","","",NA,"",NA,NA,NA,NA,NA,NA,NA,"",NA,"3"
"",NA,"",NA,"",NA,NA,NA,NA,NA,NA,NA,"","",1,1,"2024-08-23_13h21.31.714","IAT(Formal)","2021.2.3","Win32",60.24096386,"",NA,"",NA,NA,NA,NA,NA,NA,"","",NA,"",NA,"e",1,0.5885,NA,NA,NA,NA,NA,"俺","e","",NA,0,16,16,64,1,"",NA,"",NA,NA,NA,NA,NA,NA,NA,"",NA,"",NA,NA,NA,NA,NA,NA,NA,"","","",NA,"",NA,NA,NA,NA,NA,NA,NA,"",NA,"3"
"",NA,"",NA,"",NA,NA,NA,NA,NA,NA,NA,"","",1,1,"2024-08-23_13h21.31.714","IAT(Formal)","2021.2.3","Win32",60.24096386,"",NA,"",NA,NA,NA,NA,NA,NA,"","",NA,"",NA,"i",1,0.4961,NA,NA,NA,NA,NA,"冒失","i","",NA,0,17,17,39,1,"",NA,"",NA,NA,NA,NA,NA,NA,NA,"",NA,"",NA,NA,NA,NA,NA,NA,NA,"","","",NA,"",NA,NA,NA,NA,NA,NA,NA,"",NA,"3"
"",NA,"",NA,"",NA,NA,NA,NA,NA,NA,NA,"","",1,1,"2024-08-23_13h21.31.714","IAT(Formal)","2021.2.3","Win32",60.24096386,"",NA,"",NA,NA,NA,NA,NA,NA,"","",NA,"",NA,"i",1,0.5115,NA,NA,NA,NA,NA,"下贱","i","",NA,0,18,18,49,1,"",NA,"",NA,NA,NA,NA,NA,NA,NA,"",NA,"",NA,NA,NA,NA,NA,NA,NA,"","","",NA,"",NA,NA,NA,NA,NA,NA,NA,"",NA,"3"
"",NA,"",NA,"",NA,NA,NA,NA,NA,NA,NA,"","",1,1,"2024-08-23_13h21.31.714","IAT(Formal)","2021.2.3","Win32",60.24096386,"",NA,"",NA,NA,NA,NA,NA,NA,"","",NA,"",NA,"e",1,0.5136,NA,NA,NA,NA,NA,"我的","e","",NA,0,19,19,51,1,"",NA,"",NA,NA,NA,NA,NA,NA,NA,"",NA,"",NA,NA,NA,NA,NA,NA,NA,"","","",NA,"",NA,NA,NA,NA,NA,NA,NA,"",NA,"3"
"",NA,"",NA,"",NA,NA,NA,NA,NA,NA,NA,"","",1,1,"2024-08-23_13h21.31.714","IAT(Formal)","2021.2.3","Win32",60.24096386,"",NA,"",NA,NA,NA,NA,NA,NA,"","",NA,"",NA,"i",1,0.4967,NA,NA,NA,NA,NA,"鲁莽","i","",NA,0,20,20,38,1,"",NA,"",NA,NA,NA,NA,NA,NA,NA,"",NA,"",NA,NA,NA,NA,NA,NA,NA,"","","",NA,"",NA,NA,NA,NA,NA,NA,NA,"",NA,"3"
"",NA,"",NA,"",NA,NA,NA,NA,NA,NA,NA,"","",1,1,"2024-08-23_13h21.31.714","IAT(Formal)","2021.2.3","Win32",60.24096386,"",NA,"",NA,NA,NA,NA,NA,NA,"","",NA,"",NA,"e",1,0.5063,NA,NA,NA,NA,NA,"机智","e","",NA,0,21,21,19,1,"",NA,"",NA,NA,NA,NA,NA,NA,NA,"",NA,"",NA,NA,NA,NA,NA,NA,NA,"","","",NA,"",NA,NA,NA,NA,NA,NA,NA,"",NA,"3"
"",NA,"",NA,"",NA,NA,NA,NA,NA,NA,NA,"","",1,1,"2024-08-23_13h21.31.714","IAT(Formal)","2021.2.3","Win32",60.24096386,"",NA,"",NA,NA,NA,NA,NA,NA,"","",NA,"",NA,"i",1,0.5284,NA,NA,NA,NA,NA,"他人","i","",NA,0,22,22,58,1,"",NA,"",NA,NA,NA,NA,NA,NA,NA,"",NA,"",NA,NA,NA,NA,NA,NA,NA,"","","",NA,"",NA,NA,NA,NA,NA,NA,NA,"",NA,"3"
"",NA,"",NA,"",NA,NA,NA,NA,NA,NA,NA,"","",1,1,"2024-08-23_13h21.31.714","IAT(Formal)","2021.2.3","Win32",60.24096386,"",NA,"",NA,NA,NA,NA,NA,NA,"","",NA,"",NA,"i",1,0.5298,NA,NA,NA,NA,NA,"他们","i","",NA,0,23,23,76,1,"",NA,"",NA,NA,NA,NA,NA,NA,NA,"",NA,"",NA,NA,NA,NA,NA,NA,NA,"","","",NA,"",NA,NA,NA,NA,NA,NA,NA,"",NA,"3"
"",NA,"",NA,"",NA,NA,NA,NA,NA,NA,NA,"","",1,1,"2024-08-23_13h21.31.714","IAT(Formal)","2021.2.3","Win32",60.24096386,"",NA,"",NA,NA,NA,NA,NA,NA,"","",NA,"",NA,"e",1,0.619,NA,NA,NA,NA,NA,"自己","e","",NA,0,24,24,73,1,"",NA,"",NA,NA,NA,NA,NA,NA,NA,"",NA,"",NA,NA,NA,NA,NA,NA,NA,"","","",NA,"",NA,NA,NA,NA,NA,NA,NA,"",NA,"3"
"",NA,"",NA,"",NA,NA,NA,NA,NA,NA,NA,"","",1,1,"2024-08-23_13h21.31.714","IAT(Formal)","2021.2.3","Win32",60.24096386,"",NA,"",NA,NA,NA,NA,NA,NA,"","",NA,"",NA,"i",1,0.6007,NA,NA,NA,NA,NA,"他们","i","",NA,0,25,25,66,1,"",NA,"",NA,NA,NA,NA,NA,NA,NA,"",NA,"",NA,NA,NA,NA,NA,NA,NA,"","","",NA,"",NA,NA,NA,NA,NA,NA,NA,"",NA,"3"
"",NA,"",NA,"",NA,NA,NA,NA,NA,NA,NA,"","",1,1,"2024-08-23_13h21.31.714","IAT(Formal)","2021.2.3","Win32",60.24096386,"",NA,"",NA,NA,NA,NA,NA,NA,"","",NA,"",NA,"e",1,0.5318,NA,NA,NA,NA,NA,"我","e","",NA,0,26,26,50,1,"",NA,"",NA,NA,NA,NA,NA,NA,NA,"",NA,"",NA,NA,NA,NA,NA,NA,NA,"","","",NA,"",NA,NA,NA,NA,NA,NA,NA,"",NA,"3"
"",NA,"",NA,"",NA,NA,NA,NA,NA,NA,NA,"","",1,1,"2024-08-23_13h21.31.714","IAT(Formal)","2021.2.3","Win32",60.24096386,"",NA,"",NA,NA,NA,NA,NA,NA,"","",NA,"",NA,"i",1,0.7601,NA,NA,NA,NA,NA,"他人","i","",NA,0,27,27,8,1,"",NA,"",NA,NA,NA,NA,NA,NA,NA,"",NA,"",NA,NA,NA,NA,NA,NA,NA,"","","",NA,"",NA,NA,NA,NA,NA,NA,NA,"",NA,"3"
"",NA,"",NA,"",NA,NA,NA,NA,NA,NA,NA,"","",1,1,"2024-08-23_13h21.31.714","IAT(Formal)","2021.2.3","Win32",60.24096386,"",NA,"",NA,NA,NA,NA,NA,NA,"","",NA,"",NA,"i",1,1.0148,NA,NA,NA,NA,NA,"愚蠢","i","",NA,0,28,28,32,1,"",NA,"",NA,NA,NA,NA,NA,NA,NA,"",NA,"",NA,NA,NA,NA,NA,NA,NA,"","","",NA,"",NA,NA,NA,NA,NA,NA,NA,"",NA,"3"
"",NA,"",NA,"",NA,NA,NA,NA,NA,NA,NA,"","",1,1,"2024-08-23_13h21.31.714","IAT(Formal)","2021.2.3","Win32",60.24096386,"",NA,"",NA,NA,NA,NA,NA,NA,"","",NA,"",NA,"i",1,0.5989,NA,NA,NA,NA,NA,"固执","i","",NA,0,29,29,47,1,"",NA,"",NA,NA,NA,NA,NA,NA,NA,"",NA,"",NA,NA,NA,NA,NA,NA,NA,"","","",NA,"",NA,NA,NA,NA,NA,NA,NA,"",NA,"3"
"",NA,"",NA,"",NA,NA,NA,NA,NA,NA,NA,"","",1,1,"2024-08-23_13h21.31.714","IAT(Formal)","2021.2.3","Win32",60.24096386,"",NA,"",NA,NA,NA,NA,NA,NA,"","",NA,"",NA,"e",1,0.5157,NA,NA,NA,NA,NA,"我","e","",NA,0,30,30,0,1,"",NA,"",NA,NA,NA,NA,NA,NA,NA,"",NA,"",NA,NA,NA,NA,NA,NA,NA,"","","",NA,"",NA,NA,NA,NA,NA,NA,NA,"",NA,"3"
"",NA,"",NA,"",NA,NA,NA,NA,NA,NA,NA,"","",1,1,"2024-08-23_13h21.31.714","IAT(Formal)","2021.2.3","Win32",60.24096386,"",NA,"",NA,NA,NA,NA,NA,NA,"","",NA,"",NA,"i",1,0.858,NA,NA,NA,NA,NA,"自卑","i","",NA,0,31,31,36,1,"",NA,"",NA,NA,NA,NA,NA,NA,NA,"",NA,"",NA,NA,NA,NA,NA,NA,NA,"","","",NA,"",NA,NA,NA,NA,NA,NA,NA,"",NA,"3"
"",NA,"",NA,"",NA,NA,NA,NA,NA,NA,NA,"","",1,1,"2024-08-23_13h21.31.714","IAT(Formal)","2021.2.3","Win32",60.24096386,"",NA,"",NA,NA,NA,NA,NA,NA,"","",NA,"",NA,"e",1,0.8798,NA,NA,NA,NA,NA,"正直","e","",NA,0,32,32,16,1,"",NA,"",NA,NA,NA,NA,NA,NA,NA,"",NA,"",NA,NA,NA,NA,NA,NA,NA,"","","",NA,"",NA,NA,NA,NA,NA,NA,NA,"",NA,"3"
"",NA,"",NA,"",NA,NA,NA,NA,NA,NA,NA,"","",1,1,"2024-08-23_13h21.31.714","IAT(Formal)","2021.2.3","Win32",60.24096386,"",NA,"",NA,NA,NA,NA,NA,NA,"","",NA,"",NA,"i",1,0.8847,NA,NA,NA,NA,NA,"其他","i","",NA,0,33,33,79,1,"",NA,"",NA,NA,NA,NA,NA,NA,NA,"",NA,"",NA,NA,NA,NA,NA,NA,NA,"","","",NA,"",NA,NA,NA,NA,NA,NA,NA,"",NA,"3"
"",NA,"",NA,"",NA,NA,NA,NA,NA,NA,NA,"","",1,1,"2024-08-23_13h21.31.714","IAT(Formal)","2021.2.3","Win32",60.24096386,"",NA,"",NA,NA,NA,NA,NA,NA,"","",NA,"",NA,"e",1,0.8004,NA,NA,NA,NA,NA,"勇敢","e","",NA,0,34,34,17,1,"",NA,"",NA,NA,NA,NA,NA,NA,NA,"",NA,"",NA,NA,NA,NA,NA,NA,NA,"","","",NA,"",NA,NA,NA,NA,NA,NA,NA,"",NA,"3"
"",NA,"",NA,"",NA,NA,NA,NA,NA,NA,NA,"","",1,1,"2024-08-23_13h21.31.714","IAT(Formal)","2021.2.3","Win32",60.24096386,"",NA,"",NA,NA,NA,NA,NA,NA,"","",NA,"",NA,"e",1,0.7302,NA,NA,NA,NA,NA,"勤奋","e","",NA,0,35,35,18,1,"",NA,"",NA,NA,NA,NA,NA,NA,NA,"",NA,"",NA,NA,NA,NA,NA,NA,NA,"","","",NA,"",NA,NA,NA,NA,NA,NA,NA,"",NA,"3"
"",NA,"",NA,"",NA,NA,NA,NA,NA,NA,NA,"","",1,1,"2024-08-23_13h21.31.714","IAT(Formal)","2021.2.3","Win32",60.24096386,"",NA,"",NA,NA,NA,NA,NA,NA,"","",NA,"",NA,"i",1,0.6452,NA,NA,NA,NA,NA,"他们","i","",NA,0,36,36,56,1,"",NA,"",NA,NA,NA,NA,NA,NA,NA,"",NA,"",NA,NA,NA,NA,NA,NA,NA,"","","",NA,"",NA,NA,NA,NA,NA,NA,NA,"",NA,"3"
"",NA,"",NA,"",NA,NA,NA,NA,NA,NA,NA,"","",1,1,"2024-08-23_13h21.31.714","IAT(Formal)","2021.2.3","Win32",60.24096386,"",NA,"",NA,NA,NA,NA,NA,NA,"","",NA,"",NA,"i",1,0.9184,NA,NA,NA,NA,NA,"轻率","i","",NA,0,37,37,48,1,"",NA,"",NA,NA,NA,NA,NA,NA,NA,"",NA,"",NA,NA,NA,NA,NA,NA,NA,"","","",NA,"",NA,NA,NA,NA,NA,NA,NA,"",NA,"3"
"",NA,"",NA,"",NA,NA,NA,NA,NA,NA,NA,"","",1,1,"2024-08-23_13h21.31.714","IAT(Formal)","2021.2.3","Win32",60.24096386,"",NA,"",NA,NA,NA,NA,NA,NA,"","",NA,"",NA,"i",1,0.9151,NA,NA,NA,NA,NA,"他人","i","",NA,0,38,38,78,1,"",NA,"",NA,NA,NA,NA,NA,NA,NA,"",NA,"",NA,NA,NA,NA,NA,NA,NA,"","","",NA,"",NA,NA,NA,NA,NA,NA,NA,"",NA,"3"
"",NA,"",NA,"",NA,NA,NA,NA,NA,NA,NA,"","",1,1,"2024-08-23_13h21.31.714","IAT(Formal)","2021.2.3","Win32",60.24096386,"",NA,"",NA,NA,NA,NA,NA,NA,"","",NA,"",NA,"i",1,0.751,NA,NA,NA,NA,NA,"虚伪","i","",NA,0,39,39,31,1,"",NA,"",NA,NA,NA,NA,NA,NA,NA,"",NA,"",NA,NA,NA,NA,NA,NA,NA,"","","",NA,"",NA,NA,NA,NA,NA,NA,NA,"",NA,"3"
"",NA,"",NA,"",NA,NA,NA,NA,NA,NA,NA,"","",1,1,"2024-08-23_13h21.31.714","IAT(Formal)","2021.2.3","Win32",60.24096386,"",NA,"",NA,NA,NA,NA,NA,NA,"","",NA,"",NA,"",0,NA,NA,NA,NA,NA,NA,"他","i","",NA,0,40,40,55,1,"",NA,"",NA,NA,NA,NA,NA,NA,NA,"",NA,"",NA,NA,NA,NA,NA,NA,NA,"","","",NA,"",NA,NA,NA,NA,NA,NA,NA,"",NA,"3"
"",NA,"",NA,"",NA,NA,NA,NA,NA,NA,NA,"","",1,1,"2024-08-23_13h21.31.714","IAT(Formal)","2021.2.3","Win32",60.24096386,"",NA,"",NA,NA,NA,NA,NA,NA,"","",NA,"",NA,"e",1,1.2665,NA,NA,NA,NA,NA,"崇高","e","",NA,0,41,41,11,1,"",NA,"",NA,NA,NA,NA,NA,NA,NA,"",NA,"",NA,NA,NA,NA,NA,NA,NA,"","","",NA,"",NA,NA,NA,NA,NA,NA,NA,"",NA,"3"
"",NA,"",NA,"",NA,NA,NA,NA,NA,NA,NA,"","",1,1,"2024-08-23_13h21.31.714","IAT(Formal)","2021.2.3","Win32",60.24096386,"",NA,"",NA,NA,NA,NA,NA,NA,"","",NA,"",NA,"i",1,0.6975,NA,NA,NA,NA,NA,"刻薄","i","",NA,0,42,42,33,1,"",NA,"",NA,NA,NA,NA,NA,NA,NA,"",NA,"",NA,NA,NA,NA,NA,NA,NA,"","","",NA,"",NA,NA,NA,NA,NA,NA,NA,"",NA,"3"
"",NA,"",NA,"",NA,NA,NA,NA,NA,NA,NA,"","",1,1,"2024-08-23_13h21.31.714","IAT(Formal)","2021.2.3","Win32",60.24096386,"",NA,"",NA,NA,NA,NA,NA,NA,"","",NA,"",NA,"e",1,0.6619,NA,NA,NA,NA,NA,"俺","e","",NA,0,43,43,54,1,"",NA,"",NA,NA,NA,NA,NA,NA,NA,"",NA,"",NA,NA,NA,NA,NA,NA,NA,"","","",NA,"",NA,NA,NA,NA,NA,NA,NA,"",NA,"3"
"",NA,"",NA,"",NA,NA,NA,NA,NA,NA,NA,"","",1,1,"2024-08-23_13h21.31.714","IAT(Formal)","2021.2.3","Win32",60.24096386,"",NA,"",NA,NA,NA,NA,NA,NA,"","",NA,"",NA,"i",1,0.6356,NA,NA,NA,NA,NA,"消极","i","",NA,0,44,44,35,1,"",NA,"",NA,NA,NA,NA,NA,NA,NA,"",NA,"",NA,NA,NA,NA,NA,NA,NA,"","","",NA,"",NA,NA,NA,NA,NA,NA,NA,"",NA,"3"
"",NA,"",NA,"",NA,NA,NA,NA,NA,NA,NA,"","",1,1,"2024-08-23_13h21.31.714","IAT(Formal)","2021.2.3","Win32",60.24096386,"",NA,"",NA,NA,NA,NA,NA,NA,"","",NA,"",NA,"i",1,0.5798,NA,NA,NA,NA,NA,"凶狠","i","",NA,0,45,45,42,1,"",NA,"",NA,NA,NA,NA,NA,NA,NA,"",NA,"",NA,NA,NA,NA,NA,NA,NA,"","","",NA,"",NA,NA,NA,NA,NA,NA,NA,"",NA,"3"
"",NA,"",NA,"",NA,NA,NA,NA,NA,NA,NA,"","",1,1,"2024-08-23_13h21.31.714","IAT(Formal)","2021.2.3","Win32",60.24096386,"",NA,"",NA,NA,NA,NA,NA,NA,"","",NA,"",NA,"i",1,0.6871,NA,NA,NA,NA,NA,"暴躁","i","",NA,0,46,46,44,1,"",NA,"",NA,NA,NA,NA,NA,NA,NA,"",NA,"",NA,NA,NA,NA,NA,NA,NA,"","","",NA,"",NA,NA,NA,NA,NA,NA,NA,"",NA,"3"
"",NA,"",NA,"",NA,NA,NA,NA,NA,NA,NA,"","",1,1,"2024-08-23_13h21.31.714","IAT(Formal)","2021.2.3","Win32",60.24096386,"",NA,"",NA,NA,NA,NA,NA,NA,"","",NA,"",NA,"e",1,0.8556,NA,NA,NA,NA,NA,"我们","e","",NA,0,47,47,72,1,"",NA,"",NA,NA,NA,NA,NA,NA,NA,"",NA,"",NA,NA,NA,NA,NA,NA,NA,"","","",NA,"",NA,NA,NA,NA,NA,NA,NA,"",NA,"3"
"",NA,"",NA,"",NA,NA,NA,NA,NA,NA,NA,"","",1,1,"2024-08-23_13h21.31.714","IAT(Formal)","2021.2.3","Win32",60.24096386,"",NA,"",NA,NA,NA,NA,NA,NA,"","",NA,"",NA,"i",1,1.1035,NA,NA,NA,NA,NA,"执拗","i","",NA,0,48,48,40,1,"",NA,"",NA,NA,NA,NA,NA,NA,NA,"",NA,"",NA,NA,NA,NA,NA,NA,NA,"","","",NA,"",NA,NA,NA,NA,NA,NA,NA,"",NA,"3"
"",NA,"",NA,"",NA,NA,NA,NA,NA,NA,NA,"","",1,1,"2024-08-23_13h21.31.714","IAT(Formal)","2021.2.3","Win32",60.24096386,"",NA,"",NA,NA,NA,NA,NA,NA,"","",NA,"",NA,"e",1,0.83,NA,NA,NA,NA,NA,"乐观","e","",NA,0,49,49,14,1,"",NA,"",NA,NA,NA,NA,NA,NA,NA,"",NA,"",NA,NA,NA,NA,NA,NA,NA,"","","",NA,"",NA,NA,NA,NA,NA,NA,NA,"",NA,"3"
"",NA,"",NA,"",NA,NA,NA,NA,NA,NA,NA,"","",1,1,"2024-08-23_13h21.31.714","IAT(Formal)","2021.2.3","Win32",60.24096386,"",NA,"",NA,NA,NA,NA,NA,NA,"","",NA,"",NA,"e",1,0.7556,NA,NA,NA,NA,NA,"俺","e","",NA,0,50,50,74,1,"",NA,"",NA,NA,NA,NA,NA,NA,NA,"",NA,"",NA,NA,NA,NA,NA,NA,NA,"","","",NA,"",NA,NA,NA,NA,NA,NA,NA,"",NA,"3"
"",NA,"",NA,"",NA,NA,NA,NA,NA,NA,NA,"","",1,1,"2024-08-23_13h21.31.714","IAT(Formal)","2021.2.3","Win32",60.24096386,"",NA,"",NA,NA,NA,NA,NA,NA,"","",NA,"",NA,"i",1,0.815,NA,NA,NA,NA,NA,"他们","i","",NA,0,51,51,6,1,"",NA,"",NA,NA,NA,NA,NA,NA,NA,"",NA,"",NA,NA,NA,NA,NA,NA,NA,"","","",NA,"",NA,NA,NA,NA,NA,NA,NA,"",NA,"3"
"",NA,"",NA,"",NA,NA,NA,NA,NA,NA,NA,"","",1,1,"2024-08-23_13h21.31.714","IAT(Formal)","2021.2.3","Win32",60.24096386,"",NA,"",NA,NA,NA,NA,NA,NA,"","",NA,"",NA,"i",1,0.8216,NA,NA,NA,NA,NA,"傲慢","i","",NA,0,52,52,37,1,"",NA,"",NA,NA,NA,NA,NA,NA,NA,"",NA,"",NA,NA,NA,NA,NA,NA,NA,"","","",NA,"",NA,NA,NA,NA,NA,NA,NA,"",NA,"3"
"",NA,"",NA,"",NA,NA,NA,NA,NA,NA,NA,"","",1,1,"2024-08-23_13h21.31.714","IAT(Formal)","2021.2.3","Win32",60.24096386,"",NA,"",NA,NA,NA,NA,NA,NA,"","",NA,"",NA,"e",1,0.7613,NA,NA,NA,NA,NA,"我们","e","",NA,0,53,53,52,1,"",NA,"",NA,NA,NA,NA,NA,NA,NA,"",NA,"",NA,NA,NA,NA,NA,NA,NA,"","","",NA,"",NA,NA,NA,NA,NA,NA,NA,"",NA,"3"
"",NA,"",NA,"",NA,NA,NA,NA,NA,NA,NA,"","",1,1,"2024-08-23_13h21.31.714","IAT(Formal)","2021.2.3","Win32",60.24096386,"",NA,"",NA,NA,NA,NA,NA,NA,"","",NA,"",NA,"e",1,0.8993,NA,NA,NA,NA,NA,"自己","e","",NA,0,54,54,63,1,"",NA,"",NA,NA,NA,NA,NA,NA,NA,"",NA,"",NA,NA,NA,NA,NA,NA,NA,"","","",NA,"",NA,NA,NA,NA,NA,NA,NA,"",NA,"3"
"",NA,"",NA,"",NA,NA,NA,NA,NA,NA,NA,"","",1,1,"2024-08-23_13h21.31.714","IAT(Formal)","2021.2.3","Win32",60.24096386,"",NA,"",NA,NA,NA,NA,NA,NA,"","",NA,"",NA,"e",1,0.6184,NA,NA,NA,NA,NA,"自己","e","",NA,0,55,55,53,1,"",NA,"",NA,NA,NA,NA,NA,NA,NA,"",NA,"",NA,NA,NA,NA,NA,NA,NA,"","","",NA,"",NA,NA,NA,NA,NA,NA,NA,"",NA,"3"
"",NA,"",NA,"",NA,NA,NA,NA,NA,NA,NA,"","",1,1,"2024-08-23_13h21.31.714","IAT(Formal)","2021.2.3","Win32",60.24096386,"",NA,"",NA,NA,NA,NA,NA,NA,"","",NA,"",NA,"e",1,0.5738,NA,NA,NA,NA,NA,"我的","e","",NA,0,56,56,1,1,"",NA,"",NA,NA,NA,NA,NA,NA,NA,"",NA,"",NA,NA,NA,NA,NA,NA,NA,"","","",NA,"",NA,NA,NA,NA,NA,NA,NA,"",NA,"3"
"",NA,"",NA,"",NA,NA,NA,NA,NA,NA,NA,"","",1,1,"2024-08-23_13h21.31.714","IAT(Formal)","2021.2.3","Win32",60.24096386,"",NA,"",NA,NA,NA,NA,NA,NA,"","",NA,"",NA,"e",1,0.4796,NA,NA,NA,NA,NA,"我的","e","",NA,0,57,57,71,1,"",NA,"",NA,NA,NA,NA,NA,NA,NA,"",NA,"",NA,NA,NA,NA,NA,NA,NA,"","","",NA,"",NA,NA,NA,NA,NA,NA,NA,"",NA,"3"
"",NA,"",NA,"",NA,NA,NA,NA,NA,NA,NA,"","",1,1,"2024-08-23_13h21.31.714","IAT(Formal)","2021.2.3","Win32",60.24096386,"",NA,"",NA,NA,NA,NA,NA,NA,"","",NA,"",NA,"e",1,0.7644,NA,NA,NA,NA,NA,"俺","e","",NA,0,58,58,4,1,"",NA,"",NA,NA,NA,NA,NA,NA,NA,"",NA,"",NA,NA,NA,NA,NA,NA,NA,"","","",NA,"",NA,NA,NA,NA,NA,NA,NA,"",NA,"3"
"",NA,"",NA,"",NA,NA,NA,NA,NA,NA,NA,"","",1,1,"2024-08-23_13h21.31.714","IAT(Formal)","2021.2.3","Win32",60.24096386,"",NA,"",NA,NA,NA,NA,NA,NA,"","",NA,"",NA,"i",1,0.8484,NA,NA,NA,NA,NA,"他的","i","",NA,0,59,59,7,1,"",NA,"",NA,NA,NA,NA,NA,NA,NA,"",NA,"",NA,NA,NA,NA,NA,NA,NA,"","","",NA,"",NA,NA,NA,NA,NA,NA,NA,"",NA,"3"
"",NA,"",NA,"",NA,NA,NA,NA,NA,NA,NA,"","",1,1,"2024-08-23_13h21.31.714","IAT(Formal)","2021.2.3","Win32",60.24096386,"",NA,"",NA,NA,NA,NA,NA,NA,"","",NA,"",NA,"e",1,0.7461,NA,NA,NA,NA,NA,"优秀","e","",NA,0,60,60,10,1,"",NA,"",NA,NA,NA,NA,NA,NA,NA,"",NA,"",NA,NA,NA,NA,NA,NA,NA,"","","",NA,"",NA,NA,NA,NA,NA,NA,NA,"",NA,"3"
"",NA,"",NA,"",NA,NA,NA,NA,NA,NA,NA,"","",1,1,"2024-08-23_13h21.31.714","IAT(Formal)","2021.2.3","Win32",60.24096386,"",NA,"",NA,NA,NA,NA,NA,NA,"","",NA,"",NA,"e",0,0.5306,NA,NA,NA,NA,NA,"他","i","",NA,0,61,61,65,1,"",NA,"",NA,NA,NA,NA,NA,NA,NA,"",NA,"",NA,NA,NA,NA,NA,NA,NA,"","","",NA,"",NA,NA,NA,NA,NA,NA,NA,"",NA,"3"
"",NA,"",NA,"",NA,NA,NA,NA,NA,NA,NA,"","",1,1,"2024-08-23_13h21.31.714","IAT(Formal)","2021.2.3","Win32",60.24096386,"",NA,"",NA,NA,NA,NA,NA,NA,"","",NA,"",NA,"i",1,0.6806,NA,NA,NA,NA,NA,"其他","i","",NA,0,62,62,59,1,"",NA,"",NA,NA,NA,NA,NA,NA,NA,"",NA,"",NA,NA,NA,NA,NA,NA,NA,"","","",NA,"",NA,NA,NA,NA,NA,NA,NA,"",NA,"3"
"",NA,"",NA,"",NA,NA,NA,NA,NA,NA,NA,"","",1,1,"2024-08-23_13h21.31.714","IAT(Formal)","2021.2.3","Win32",60.24096386,"",NA,"",NA,NA,NA,NA,NA,NA,"","",NA,"",NA,"e",1,0.538,NA,NA,NA,NA,NA,"我","e","",NA,0,63,63,60,1,"",NA,"",NA,NA,NA,NA,NA,NA,NA,"",NA,"",NA,NA,NA,NA,NA,NA,NA,"","","",NA,"",NA,NA,NA,NA,NA,NA,NA,"",NA,"3"
"",NA,"",NA,"",NA,NA,NA,NA,NA,NA,NA,"","",1,1,"2024-08-23_13h21.31.714","IAT(Formal)","2021.2.3","Win32",60.24096386,"",NA,"",NA,NA,NA,NA,NA,NA,"","",NA,"",NA,"i",1,0.5684,NA,NA,NA,NA,NA,"卑鄙","i","",NA,0,64,64,30,1,"",NA,"",NA,NA,NA,NA,NA,NA,NA,"",NA,"",NA,NA,NA,NA,NA,NA,NA,"","","",NA,"",NA,NA,NA,NA,NA,NA,NA,"",NA,"3"
"",NA,"",NA,"",NA,NA,NA,NA,NA,NA,NA,"","",1,1,"2024-08-23_13h21.31.714","IAT(Formal)","2021.2.3","Win32",60.24096386,"",NA,"",NA,NA,NA,NA,NA,NA,"","",NA,"",NA,"e",1,0.6667,NA,NA,NA,NA,NA,"公正","e","",NA,0,65,65,23,1,"",NA,"",NA,NA,NA,NA,NA,NA,NA,"",NA,"",NA,NA,NA,NA,NA,NA,NA,"","","",NA,"",NA,NA,NA,NA,NA,NA,NA,"",NA,"3"
"",NA,"",NA,"",NA,NA,NA,NA,NA,NA,NA,"","",1,1,"2024-08-23_13h21.31.714","IAT(Formal)","2021.2.3","Win32",60.24096386,"",NA,"",NA,NA,NA,NA,NA,NA,"","",NA,"",NA,"i",0,0.9823,NA,NA,NA,NA,NA,"朴实","e","",NA,0,66,66,24,1,"",NA,"",NA,NA,NA,NA,NA,NA,NA,"",NA,"",NA,NA,NA,NA,NA,NA,NA,"","","",NA,"",NA,NA,NA,NA,NA,NA,NA,"",NA,"3"
"",NA,"",NA,"",NA,NA,NA,NA,NA,NA,NA,"","",1,1,"2024-08-23_13h21.31.714","IAT(Formal)","2021.2.3","Win32",60.24096386,"",NA,"",NA,NA,NA,NA,NA,NA,"","",NA,"",NA,"e",1,0.573,NA,NA,NA,NA,NA,"认真","e","",NA,0,67,67,20,1,"",NA,"",NA,NA,NA,NA,NA,NA,NA,"",NA,"",NA,NA,NA,NA,NA,NA,NA,"","","",NA,"",NA,NA,NA,NA,NA,NA,NA,"",NA,"3"
"",NA,"",NA,"",NA,NA,NA,NA,NA,NA,NA,"","",1,1,"2024-08-23_13h21.31.714","IAT(Formal)","2021.2.3","Win32",60.24096386,"",NA,"",NA,NA,NA,NA,NA,NA,"","",NA,"",NA,"i",1,0.6847,NA,NA,NA,NA,NA,"自私","i","",NA,0,68,68,43,1,"",NA,"",NA,NA,NA,NA,NA,NA,NA,"",NA,"",NA,NA,NA,NA,NA,NA,NA,"","","",NA,"",NA,NA,NA,NA,NA,NA,NA,"",NA,"3"
"",NA,"",NA,"",NA,NA,NA,NA,NA,NA,NA,"","",1,1,"2024-08-23_13h21.31.714","IAT(Formal)","2021.2.3","Win32",60.24096386,"",NA,"",NA,NA,NA,NA,NA,NA,"","",NA,"",NA,"e",1,0.8204,NA,NA,NA,NA,NA,"热情","e","",NA,0,69,69,27,1,"",NA,"",NA,NA,NA,NA,NA,NA,NA,"",NA,"",NA,NA,NA,NA,NA,NA,NA,"","","",NA,"",NA,NA,NA,NA,NA,NA,NA,"",NA,"3"
"",NA,"",NA,"",NA,NA,NA,NA,NA,NA,NA,"","",1,1,"2024-08-23_13h21.31.714","IAT(Formal)","2021.2.3","Win32",60.24096386,"",NA,"",NA,NA,NA,NA,NA,NA,"","",NA,"",NA,"e",1,0.5461,NA,NA,NA,NA,NA,"稳重","e","",NA,0,70,70,21,1,"",NA,"",NA,NA,NA,NA,NA,NA,NA,"",NA,"",NA,NA,NA,NA,NA,NA,NA,"","","",NA,"",NA,NA,NA,NA,NA,NA,NA,"",NA,"3"
"",NA,"",NA,"",NA,NA,NA,NA,NA,NA,NA,"","",1,1,"2024-08-23_13h21.31.714","IAT(Formal)","2021.2.3","Win32",60.24096386,"",NA,"",NA,NA,NA,NA,NA,NA,"","",NA,"",NA,"e",1,0.6465,NA,NA,NA,NA,NA,"诚恳","e","",NA,0,71,71,29,1,"",NA,"",NA,NA,NA,NA,NA,NA,NA,"",NA,"",NA,NA,NA,NA,NA,NA,NA,"","","",NA,"",NA,NA,NA,NA,NA,NA,NA,"",NA,"3"
"",NA,"",NA,"",NA,NA,NA,NA,NA,NA,NA,"","",1,1,"2024-08-23_13h21.31.714","IAT(Formal)","2021.2.3","Win32",60.24096386,"",NA,"",NA,NA,NA,NA,NA,NA,"","",NA,"",NA,"i",1,1.4459,NA,NA,NA,NA,NA,"他的","i","",NA,0,72,72,77,1,"",NA,"",NA,NA,NA,NA,NA,NA,NA,"",NA,"",NA,NA,NA,NA,NA,NA,NA,"","","",NA,"",NA,NA,NA,NA,NA,NA,NA,"",NA,"3"
"",NA,"",NA,"",NA,NA,NA,NA,NA,NA,NA,"","",1,1,"2024-08-23_13h21.31.714","IAT(Formal)","2021.2.3","Win32",60.24096386,"",NA,"",NA,NA,NA,NA,NA,NA,"","",NA,"",NA,"e",1,1.1823,NA,NA,NA,NA,NA,"杰出","e","",NA,0,73,73,13,1,"",NA,"",NA,NA,NA,NA,NA,NA,NA,"",NA,"",NA,NA,NA,NA,NA,NA,NA,"","","",NA,"",NA,NA,NA,NA,NA,NA,NA,"",NA,"3"
"",NA,"",NA,"",NA,NA,NA,NA,NA,NA,NA,"","",1,1,"2024-08-23_13h21.31.714","IAT(Formal)","2021.2.3","Win32",60.24096386,"",NA,"",NA,NA,NA,NA,NA,NA,"","",NA,"",NA,"e",1,0.784,NA,NA,NA,NA,NA,"我的","e","",NA,0,74,74,61,1,"",NA,"",NA,NA,NA,NA,NA,NA,NA,"",NA,"",NA,NA,NA,NA,NA,NA,NA,"","","",NA,"",NA,NA,NA,NA,NA,NA,NA,"",NA,"3"
"",NA,"",NA,"",NA,NA,NA,NA,NA,NA,NA,"","",1,1,"2024-08-23_13h21.31.714","IAT(Formal)","2021.2.3","Win32",60.24096386,"",NA,"",NA,NA,NA,NA,NA,NA,"","",NA,"",NA,"i",1,0.7705,NA,NA,NA,NA,NA,"其他","i","",NA,0,75,75,69,1,"",NA,"",NA,NA,NA,NA,NA,NA,NA,"",NA,"",NA,NA,NA,NA,NA,NA,NA,"","","",NA,"",NA,NA,NA,NA,NA,NA,NA,"",NA,"3"
"",NA,"",NA,"",NA,NA,NA,NA,NA,NA,NA,"","",1,1,"2024-08-23_13h21.31.714","IAT(Formal)","2021.2.3","Win32",60.24096386,"",NA,"",NA,NA,NA,NA,NA,NA,"","",NA,"",NA,"e",1,0.7526,NA,NA,NA,NA,NA,"诚实","e","",NA,0,76,76,15,1,"",NA,"",NA,NA,NA,NA,NA,NA,NA,"",NA,"",NA,NA,NA,NA,NA,NA,NA,"","","",NA,"",NA,NA,NA,NA,NA,NA,NA,"",NA,"3"
"",NA,"",NA,"",NA,NA,NA,NA,NA,NA,NA,"","",1,1,"2024-08-23_13h21.31.714","IAT(Formal)","2021.2.3","Win32",60.24096386,"",NA,"",NA,NA,NA,NA,NA,NA,"","",NA,"",NA,"i",1,0.6058,NA,NA,NA,NA,NA,"野蛮","i","",NA,0,77,77,46,1,"",NA,"",NA,NA,NA,NA,NA,NA,NA,"",NA,"",NA,NA,NA,NA,NA,NA,NA,"","","",NA,"",NA,NA,NA,NA,NA,NA,NA,"",NA,"3"
"",NA,"",NA,"",NA,NA,NA,NA,NA,NA,NA,"","",1,1,"2024-08-23_13h21.31.714","IAT(Formal)","2021.2.3","Win32",60.24096386,"",NA,"",NA,NA,NA,NA,NA,NA,"","",NA,"",NA,"i",1,0.5355,NA,NA,NA,NA,NA,"悲观","i","",NA,0,78,78,34,1,"",NA,"",NA,NA,NA,NA,NA,NA,NA,"",NA,"",NA,NA,NA,NA,NA,NA,NA,"","","",NA,"",NA,NA,NA,NA,NA,NA,NA,"",NA,"3"
"",NA,"",NA,"",NA,NA,NA,NA,NA,NA,NA,"","",1,1,"2024-08-23_13h21.31.714","IAT(Formal)","2021.2.3","Win32",60.24096386,"",NA,"",NA,NA,NA,NA,NA,NA,"","",NA,"",NA,"e",1,0.7502,NA,NA,NA,NA,NA,"我们","e","",NA,0,79,79,2,1,"",NA,"",NA,NA,NA,NA,NA,NA,NA,"",NA,"",NA,NA,NA,NA,NA,NA,NA,"","","",NA,"",NA,NA,NA,NA,NA,NA,NA,"",NA,"3"
"",NA,"",NA,"",NA,NA,NA,NA,NA,NA,NA,"","",1,1,"2024-08-23_13h21.31.714","IAT(Formal)","2021.2.3","Win32",60.24096386,"",NA,"",NA,NA,NA,NA,NA,NA,"","",NA,"",NA,"e",1,0.5706,NA,NA,NA,NA,NA,"我们","e","",NA,1,0,80,72,1,"",NA,"",NA,NA,NA,NA,NA,NA,NA,"",NA,"",NA,NA,NA,NA,NA,NA,NA,"","","",NA,"",NA,NA,NA,NA,NA,NA,NA,"",NA,"3"
"",NA,"",NA,"",NA,NA,NA,NA,NA,NA,NA,"","",1,1,"2024-08-23_13h21.31.714","IAT(Formal)","2021.2.3","Win32",60.24096386,"",NA,"",NA,NA,NA,NA,NA,NA,"","",NA,"",NA,"i",0,0.5475,NA,NA,NA,NA,NA,"诚恳","e","",NA,1,1,81,29,1,"",NA,"",NA,NA,NA,NA,NA,NA,NA,"",NA,"",NA,NA,NA,NA,NA,NA,NA,"","","",NA,"",NA,NA,NA,NA,NA,NA,NA,"",NA,"3"
"",NA,"",NA,"",NA,NA,NA,NA,NA,NA,NA,"","",1,1,"2024-08-23_13h21.31.714","IAT(Formal)","2021.2.3","Win32",60.24096386,"",NA,"",NA,NA,NA,NA,NA,NA,"","",NA,"",NA,"i",1,0.716,NA,NA,NA,NA,NA,"刻薄","i","",NA,1,2,82,33,1,"",NA,"",NA,NA,NA,NA,NA,NA,NA,"",NA,"",NA,NA,NA,NA,NA,NA,NA,"","","",NA,"",NA,NA,NA,NA,NA,NA,NA,"",NA,"3"
"",NA,"",NA,"",NA,NA,NA,NA,NA,NA,NA,"","",1,1,"2024-08-23_13h21.31.714","IAT(Formal)","2021.2.3","Win32",60.24096386,"",NA,"",NA,NA,NA,NA,NA,NA,"","",NA,"",NA,"e",1,0.7672,NA,NA,NA,NA,NA,"俺","e","",NA,1,3,83,4,1,"",NA,"",NA,NA,NA,NA,NA,NA,NA,"",NA,"",NA,NA,NA,NA,NA,NA,NA,"","","",NA,"",NA,NA,NA,NA,NA,NA,NA,"",NA,"3"
"",NA,"",NA,"",NA,NA,NA,NA,NA,NA,NA,"","",1,1,"2024-08-23_13h21.31.714","IAT(Formal)","2021.2.3","Win32",60.24096386,"",NA,"",NA,NA,NA,NA,NA,NA,"","",NA,"",NA,"i",1,0.6638,NA,NA,NA,NA,NA,"自私","i","",NA,1,4,84,43,1,"",NA,"",NA,NA,NA,NA,NA,NA,NA,"",NA,"",NA,NA,NA,NA,NA,NA,NA,"","","",NA,"",NA,NA,NA,NA,NA,NA,NA,"",NA,"3"
"",NA,"",NA,"",NA,NA,NA,NA,NA,NA,NA,"","",1,1,"2024-08-23_13h21.31.714","IAT(Formal)","2021.2.3","Win32",60.24096386,"",NA,"",NA,NA,NA,NA,NA,NA,"","",NA,"",NA,"i",1,0.6983,NA,NA,NA,NA,NA,"其他","i","",NA,1,5,85,79,1,"",NA,"",NA,NA,NA,NA,NA,NA,NA,"",NA,"",NA,NA,NA,NA,NA,NA,NA,"","","",NA,"",NA,NA,NA,NA,NA,NA,NA,"",NA,"3"
"",NA,"",NA,"",NA,NA,NA,NA,NA,NA,NA,"","",1,1,"2024-08-23_13h21.31.714","IAT(Formal)","2021.2.3","Win32",60.24096386,"",NA,"",NA,NA,NA,NA,NA,NA,"","",NA,"",NA,"e",1,0.651,NA,NA,NA,NA,NA,"俺","e","",NA,1,6,86,54,1,"",NA,"",NA,NA,NA,NA,NA,NA,NA,"",NA,"",NA,NA,NA,NA,NA,NA,NA,"","","",NA,"",NA,NA,NA,NA,NA,NA,NA,"",NA,"3"
"",NA,"",NA,"",NA,NA,NA,NA,NA,NA,NA,"","",1,1,"2024-08-23_13h21.31.714","IAT(Formal)","2021.2.3","Win32",60.24096386,"",NA,"",NA,NA,NA,NA,NA,NA,"","",NA,"",NA,"e",1,0.5729,NA,NA,NA,NA,NA,"我","e","",NA,1,7,87,60,1,"",NA,"",NA,NA,NA,NA,NA,NA,NA,"",NA,"",NA,NA,NA,NA,NA,NA,NA,"","","",NA,"",NA,NA,NA,NA,NA,NA,NA,"",NA,"3"
"",NA,"",NA,"",NA,NA,NA,NA,NA,NA,NA,"","",1,1,"2024-08-23_13h21.31.714","IAT(Formal)","2021.2.3","Win32",60.24096386,"",NA,"",NA,NA,NA,NA,NA,NA,"","",NA,"",NA,"i",1,0.5377,NA,NA,NA,NA,NA,"卑鄙","i","",NA,1,8,88,30,1,"",NA,"",NA,NA,NA,NA,NA,NA,NA,"",NA,"",NA,NA,NA,NA,NA,NA,NA,"","","",NA,"",NA,NA,NA,NA,NA,NA,NA,"",NA,"3"
"",NA,"",NA,"",NA,NA,NA,NA,NA,NA,NA,"","",1,1,"2024-08-23_13h21.31.714","IAT(Formal)","2021.2.3","Win32",60.24096386,"",NA,"",NA,NA,NA,NA,NA,NA,"","",NA,"",NA,"i",1,1.3857,NA,NA,NA,NA,NA,"他人","i","",NA,1,9,89,78,1,"",NA,"",NA,NA,NA,NA,NA,NA,NA,"",NA,"",NA,NA,NA,NA,NA,NA,NA,"","","",NA,"",NA,NA,NA,NA,NA,NA,NA,"",NA,"3"
"",NA,"",NA,"",NA,NA,NA,NA,NA,NA,NA,"","",1,1,"2024-08-23_13h21.31.714","IAT(Formal)","2021.2.3","Win32",60.24096386,"",NA,"",NA,NA,NA,NA,NA,NA,"","",NA,"",NA,"e",1,0.8837,NA,NA,NA,NA,NA,"热情","e","",NA,1,10,90,27,1,"",NA,"",NA,NA,NA,NA,NA,NA,NA,"",NA,"",NA,NA,NA,NA,NA,NA,NA,"","","",NA,"",NA,NA,NA,NA,NA,NA,NA,"",NA,"3"
"",NA,"",NA,"",NA,NA,NA,NA,NA,NA,NA,"","",1,1,"2024-08-23_13h21.31.714","IAT(Formal)","2021.2.3","Win32",60.24096386,"",NA,"",NA,NA,NA,NA,NA,NA,"","",NA,"",NA,"e",1,0.7173,NA,NA,NA,NA,NA,"我","e","",NA,1,11,91,0,1,"",NA,"",NA,NA,NA,NA,NA,NA,NA,"",NA,"",NA,NA,NA,NA,NA,NA,NA,"","","",NA,"",NA,NA,NA,NA,NA,NA,NA,"",NA,"3"
"",NA,"",NA,"",NA,NA,NA,NA,NA,NA,NA,"","",1,1,"2024-08-23_13h21.31.714","IAT(Formal)","2021.2.3","Win32",60.24096386,"",NA,"",NA,NA,NA,NA,NA,NA,"","",NA,"",NA,"i",1,0.8784,NA,NA,NA,NA,NA,"暴躁","i","",NA,1,12,92,44,1,"",NA,"",NA,NA,NA,NA,NA,NA,NA,"",NA,"",NA,NA,NA,NA,NA,NA,NA,"","","",NA,"",NA,NA,NA,NA,NA,NA,NA,"",NA,"3"
"",NA,"",NA,"",NA,NA,NA,NA,NA,NA,NA,"","",1,1,"2024-08-23_13h21.31.714","IAT(Formal)","2021.2.3","Win32",60.24096386,"",NA,"",NA,NA,NA,NA,NA,NA,"","",NA,"",NA,"e",1,0.6828,NA,NA,NA,NA,NA,"聪明","e","",NA,1,13,93,12,1,"",NA,"",NA,NA,NA,NA,NA,NA,NA,"",NA,"",NA,NA,NA,NA,NA,NA,NA,"","","",NA,"",NA,NA,NA,NA,NA,NA,NA,"",NA,"3"
"",NA,"",NA,"",NA,NA,NA,NA,NA,NA,NA,"","",1,1,"2024-08-23_13h21.31.714","IAT(Formal)","2021.2.3","Win32",60.24096386,"",NA,"",NA,NA,NA,NA,NA,NA,"","",NA,"",NA,"e",1,1.1959,NA,NA,NA,NA,NA,"优秀","e","",NA,1,14,94,10,1,"",NA,"",NA,NA,NA,NA,NA,NA,NA,"",NA,"",NA,NA,NA,NA,NA,NA,NA,"","","",NA,"",NA,NA,NA,NA,NA,NA,NA,"",NA,"3"
"",NA,"",NA,"",NA,NA,NA,NA,NA,NA,NA,"","",1,1,"2024-08-23_13h21.31.714","IAT(Formal)","2021.2.3","Win32",60.24096386,"",NA,"",NA,NA,NA,NA,NA,NA,"","",NA,"",NA,"e",0,1.0001,NA,NA,NA,NA,NA,"他的","i","",NA,1,15,95,67,1,"",NA,"",NA,NA,NA,NA,NA,NA,NA,"",NA,"",NA,NA,NA,NA,NA,NA,NA,"","","",NA,"",NA,NA,NA,NA,NA,NA,NA,"",NA,"3"
"",NA,"",NA,"",NA,NA,NA,NA,NA,NA,NA,"","",1,1,"2024-08-23_13h21.31.714","IAT(Formal)","2021.2.3","Win32",60.24096386,"",NA,"",NA,NA,NA,NA,NA,NA,"","",NA,"",NA,"i",1,0.7502,NA,NA,NA,NA,NA,"他们","i","",NA,1,16,96,76,1,"",NA,"",NA,NA,NA,NA,NA,NA,NA,"",NA,"",NA,NA,NA,NA,NA,NA,NA,"","","",NA,"",NA,NA,NA,NA,NA,NA,NA,"",NA,"3"
"",NA,"",NA,"",NA,NA,NA,NA,NA,NA,NA,"","",1,1,"2024-08-23_13h21.31.714","IAT(Formal)","2021.2.3","Win32",60.24096386,"",NA,"",NA,NA,NA,NA,NA,NA,"","",NA,"",NA,"e",1,1.3216,NA,NA,NA,NA,NA,"勤奋","e","",NA,1,17,97,18,1,"",NA,"",NA,NA,NA,NA,NA,NA,NA,"",NA,"",NA,NA,NA,NA,NA,NA,NA,"","","",NA,"",NA,NA,NA,NA,NA,NA,NA,"",NA,"3"
"",NA,"",NA,"",NA,NA,NA,NA,NA,NA,NA,"","",1,1,"2024-08-23_13h21.31.714","IAT(Formal)","2021.2.3","Win32",60.24096386,"",NA,"",NA,NA,NA,NA,NA,NA,"","",NA,"",NA,"i",1,0.6028,NA,NA,NA,NA,NA,"执拗","i","",NA,1,18,98,40,1,"",NA,"",NA,NA,NA,NA,NA,NA,NA,"",NA,"",NA,NA,NA,NA,NA,NA,NA,"","","",NA,"",NA,NA,NA,NA,NA,NA,NA,"",NA,"3"
"",NA,"",NA,"",NA,NA,NA,NA,NA,NA,NA,"","",1,1,"2024-08-23_13h21.31.714","IAT(Formal)","2021.2.3","Win32",60.24096386,"",NA,"",NA,NA,NA,NA,NA,NA,"","",NA,"",NA,"e",1,0.88,NA,NA,NA,NA,NA,"崇高","e","",NA,1,19,99,11,1,"",NA,"",NA,NA,NA,NA,NA,NA,NA,"",NA,"",NA,NA,NA,NA,NA,NA,NA,"","","",NA,"",NA,NA,NA,NA,NA,NA,NA,"",NA,"3"
"",NA,"",NA,"",NA,NA,NA,NA,NA,NA,NA,"","",1,1,"2024-08-23_13h21.31.714","IAT(Formal)","2021.2.3","Win32",60.24096386,"",NA,"",NA,NA,NA,NA,NA,NA,"","",NA,"",NA,"i",1,0.7303,NA,NA,NA,NA,NA,"他人","i","",NA,1,20,100,8,1,"",NA,"",NA,NA,NA,NA,NA,NA,NA,"",NA,"",NA,NA,NA,NA,NA,NA,NA,"","","",NA,"",NA,NA,NA,NA,NA,NA,NA,"",NA,"3"
"",NA,"",NA,"",NA,NA,NA,NA,NA,NA,NA,"","",1,1,"2024-08-23_13h21.31.714","IAT(Formal)","2021.2.3","Win32",60.24096386,"",NA,"",NA,NA,NA,NA,NA,NA,"","",NA,"",NA,"i",1,0.7323,NA,NA,NA,NA,NA,"凶狠","i","",NA,1,21,101,42,1,"",NA,"",NA,NA,NA,NA,NA,NA,NA,"",NA,"",NA,NA,NA,NA,NA,NA,NA,"","","",NA,"",NA,NA,NA,NA,NA,NA,NA,"",NA,"3"
"",NA,"",NA,"",NA,NA,NA,NA,NA,NA,NA,"","",1,1,"2024-08-23_13h21.31.714","IAT(Formal)","2021.2.3","Win32",60.24096386,"",NA,"",NA,NA,NA,NA,NA,NA,"","",NA,"",NA,"i",1,0.6152,NA,NA,NA,NA,NA,"他们","i","",NA,1,22,102,6,1,"",NA,"",NA,NA,NA,NA,NA,NA,NA,"",NA,"",NA,NA,NA,NA,NA,NA,NA,"","","",NA,"",NA,NA,NA,NA,NA,NA,NA,"",NA,"3"
"",NA,"",NA,"",NA,NA,NA,NA,NA,NA,NA,"","",1,1,"2024-08-23_13h21.31.714","IAT(Formal)","2021.2.3","Win32",60.24096386,"",NA,"",NA,NA,NA,NA,NA,NA,"","",NA,"",NA,"i",1,0.6632,NA,NA,NA,NA,NA,"他","i","",NA,1,23,103,65,1,"",NA,"",NA,NA,NA,NA,NA,NA,NA,"",NA,"",NA,NA,NA,NA,NA,NA,NA,"","","",NA,"",NA,NA,NA,NA,NA,NA,NA,"",NA,"3"
"",NA,"",NA,"",NA,NA,NA,NA,NA,NA,NA,"","",1,1,"2024-08-23_13h21.31.714","IAT(Formal)","2021.2.3","Win32",60.24096386,"",NA,"",NA,NA,NA,NA,NA,NA,"","",NA,"",NA,"e",1,0.5174,NA,NA,NA,NA,NA,"勇敢","e","",NA,1,24,104,17,1,"",NA,"",NA,NA,NA,NA,NA,NA,NA,"",NA,"",NA,NA,NA,NA,NA,NA,NA,"","","",NA,"",NA,NA,NA,NA,NA,NA,NA,"",NA,"3"
"",NA,"",NA,"",NA,NA,NA,NA,NA,NA,NA,"","",1,1,"2024-08-23_13h21.31.714","IAT(Formal)","2021.2.3","Win32",60.24096386,"",NA,"",NA,NA,NA,NA,NA,NA,"","",NA,"",NA,"e",1,0.5183,NA,NA,NA,NA,NA,"自己","e","",NA,1,25,105,53,1,"",NA,"",NA,NA,NA,NA,NA,NA,NA,"",NA,"",NA,NA,NA,NA,NA,NA,NA,"","","",NA,"",NA,NA,NA,NA,NA,NA,NA,"",NA,"3"
"",NA,"",NA,"",NA,NA,NA,NA,NA,NA,NA,"","",1,1,"2024-08-23_13h21.31.714","IAT(Formal)","2021.2.3","Win32",60.24096386,"",NA,"",NA,NA,NA,NA,NA,NA,"","",NA,"",NA,"i",1,0.7361,NA,NA,NA,NA,NA,"他","i","",NA,1,26,106,55,1,"",NA,"",NA,NA,NA,NA,NA,NA,NA,"",NA,"",NA,NA,NA,NA,NA,NA,NA,"","","",NA,"",NA,NA,NA,NA,NA,NA,NA,"",NA,"3"
"",NA,"",NA,"",NA,NA,NA,NA,NA,NA,NA,"","",1,1,"2024-08-23_13h21.31.714","IAT(Formal)","2021.2.3","Win32",60.24096386,"",NA,"",NA,NA,NA,NA,NA,NA,"","",NA,"",NA,"i",1,0.8158,NA,NA,NA,NA,NA,"散漫","i","",NA,1,27,107,41,1,"",NA,"",NA,NA,NA,NA,NA,NA,NA,"",NA,"",NA,NA,NA,NA,NA,NA,NA,"","","",NA,"",NA,NA,NA,NA,NA,NA,NA,"",NA,"3"
"",NA,"",NA,"",NA,NA,NA,NA,NA,NA,NA,"","",1,1,"2024-08-23_13h21.31.714","IAT(Formal)","2021.2.3","Win32",60.24096386,"",NA,"",NA,NA,NA,NA,NA,NA,"","",NA,"",NA,"i",1,0.6316,NA,NA,NA,NA,NA,"愚蠢","i","",NA,1,28,108,32,1,"",NA,"",NA,NA,NA,NA,NA,NA,NA,"",NA,"",NA,NA,NA,NA,NA,NA,NA,"","","",NA,"",NA,NA,NA,NA,NA,NA,NA,"",NA,"3"
"",NA,"",NA,"",NA,NA,NA,NA,NA,NA,NA,"","",1,1,"2024-08-23_13h21.31.714","IAT(Formal)","2021.2.3","Win32",60.24096386,"",NA,"",NA,NA,NA,NA,NA,NA,"","",NA,"",NA,"i",1,0.7811,NA,NA,NA,NA,NA,"傲慢","i","",NA,1,29,109,37,1,"",NA,"",NA,NA,NA,NA,NA,NA,NA,"",NA,"",NA,NA,NA,NA,NA,NA,NA,"","","",NA,"",NA,NA,NA,NA,NA,NA,NA,"",NA,"3"
"",NA,"",NA,"",NA,NA,NA,NA,NA,NA,NA,"","",1,1,"2024-08-23_13h21.31.714","IAT(Formal)","2021.2.3","Win32",60.24096386,"",NA,"",NA,NA,NA,NA,NA,NA,"","",NA,"",NA,"i",0,0.5039,NA,NA,NA,NA,NA,"自己","e","",NA,1,30,110,73,1,"",NA,"",NA,NA,NA,NA,NA,NA,NA,"",NA,"",NA,NA,NA,NA,NA,NA,NA,"","","",NA,"",NA,NA,NA,NA,NA,NA,NA,"",NA,"3"
"",NA,"",NA,"",NA,NA,NA,NA,NA,NA,NA,"","",1,1,"2024-08-23_13h21.31.714","IAT(Formal)","2021.2.3","Win32",60.24096386,"",NA,"",NA,NA,NA,NA,NA,NA,"","",NA,"",NA,"i",1,0.7527,NA,NA,NA,NA,NA,"鲁莽","i","",NA,1,31,111,38,1,"",NA,"",NA,NA,NA,NA,NA,NA,NA,"",NA,"",NA,NA,NA,NA,NA,NA,NA,"","","",NA,"",NA,NA,NA,NA,NA,NA,NA,"",NA,"3"
"",NA,"",NA,"",NA,NA,NA,NA,NA,NA,NA,"","",1,1,"2024-08-23_13h21.31.714","IAT(Formal)","2021.2.3","Win32",60.24096386,"",NA,"",NA,NA,NA,NA,NA,NA,"","",NA,"",NA,"i",1,0.8277,NA,NA,NA,NA,NA,"其他","i","",NA,1,32,112,69,1,"",NA,"",NA,NA,NA,NA,NA,NA,NA,"",NA,"",NA,NA,NA,NA,NA,NA,NA,"","","",NA,"",NA,NA,NA,NA,NA,NA,NA,"",NA,"3"
"",NA,"",NA,"",NA,NA,NA,NA,NA,NA,NA,"","",1,1,"2024-08-23_13h21.31.714","IAT(Formal)","2021.2.3","Win32",60.24096386,"",NA,"",NA,NA,NA,NA,NA,NA,"","",NA,"",NA,"i",1,0.5835,NA,NA,NA,NA,NA,"悲观","i","",NA,1,33,113,34,1,"",NA,"",NA,NA,NA,NA,NA,NA,NA,"",NA,"",NA,NA,NA,NA,NA,NA,NA,"","","",NA,"",NA,NA,NA,NA,NA,NA,NA,"",NA,"3"
"",NA,"",NA,"",NA,NA,NA,NA,NA,NA,NA,"","",1,1,"2024-08-23_13h21.31.714","IAT(Formal)","2021.2.3","Win32",60.24096386,"",NA,"",NA,NA,NA,NA,NA,NA,"","",NA,"",NA,"e",1,0.6838,NA,NA,NA,NA,NA,"朴实","e","",NA,1,34,114,24,1,"",NA,"",NA,NA,NA,NA,NA,NA,NA,"",NA,"",NA,NA,NA,NA,NA,NA,NA,"","","",NA,"",NA,NA,NA,NA,NA,NA,NA,"",NA,"3"
"",NA,"",NA,"",NA,NA,NA,NA,NA,NA,NA,"","",1,1,"2024-08-23_13h21.31.714","IAT(Formal)","2021.2.3","Win32",60.24096386,"",NA,"",NA,NA,NA,NA,NA,NA,"","",NA,"",NA,"e",1,0.7356,NA,NA,NA,NA,NA,"俺","e","",NA,1,35,115,64,1,"",NA,"",NA,NA,NA,NA,NA,NA,NA,"",NA,"",NA,NA,NA,NA,NA,NA,NA,"","","",NA,"",NA,NA,NA,NA,NA,NA,NA,"",NA,"3"
"",NA,"",NA,"",NA,NA,NA,NA,NA,NA,NA,"","",1,1,"2024-08-23_13h21.31.714","IAT(Formal)","2021.2.3","Win32",60.24096386,"",NA,"",NA,NA,NA,NA,NA,NA,"","",NA,"",NA,"e",1,0.7824,NA,NA,NA,NA,NA,"我的","e","",NA,1,36,116,71,1,"",NA,"",NA,NA,NA,NA,NA,NA,NA,"",NA,"",NA,NA,NA,NA,NA,NA,NA,"","","",NA,"",NA,NA,NA,NA,NA,NA,NA,"",NA,"3"
"",NA,"",NA,"",NA,NA,NA,NA,NA,NA,NA,"","",1,1,"2024-08-23_13h21.31.714","IAT(Formal)","2021.2.3","Win32",60.24096386,"",NA,"",NA,NA,NA,NA,NA,NA,"","",NA,"",NA,"i",1,0.6392,NA,NA,NA,NA,NA,"野蛮","i","",NA,1,37,117,46,1,"",NA,"",NA,NA,NA,NA,NA,NA,NA,"",NA,"",NA,NA,NA,NA,NA,NA,NA,"","","",NA,"",NA,NA,NA,NA,NA,NA,NA,"",NA,"3"
"",NA,"",NA,"",NA,NA,NA,NA,NA,NA,NA,"","",1,1,"2024-08-23_13h21.31.714","IAT(Formal)","2021.2.3","Win32",60.24096386,"",NA,"",NA,NA,NA,NA,NA,NA,"","",NA,"",NA,"e",1,0.7663,NA,NA,NA,NA,NA,"机智","e","",NA,1,38,118,19,1,"",NA,"",NA,NA,NA,NA,NA,NA,NA,"",NA,"",NA,NA,NA,NA,NA,NA,NA,"","","",NA,"",NA,NA,NA,NA,NA,NA,NA,"",NA,"3"
"",NA,"",NA,"",NA,NA,NA,NA,NA,NA,NA,"","",1,1,"2024-08-23_13h21.31.714","IAT(Formal)","2021.2.3","Win32",60.24096386,"",NA,"",NA,NA,NA,NA,NA,NA,"","",NA,"",NA,"i",1,0.8181,NA,NA,NA,NA,NA,"他的","i","",NA,1,39,119,57,1,"",NA,"",NA,NA,NA,NA,NA,NA,NA,"",NA,"",NA,NA,NA,NA,NA,NA,NA,"","","",NA,"",NA,NA,NA,NA,NA,NA,NA,"",NA,"3"
"",NA,"",NA,"",NA,NA,NA,NA,NA,NA,NA,"","",1,1,"2024-08-23_13h21.31.714","IAT(Formal)","2021.2.3","Win32",60.24096386,"",NA,"",NA,NA,NA,NA,NA,NA,"","",NA,"",NA,"e",1,0.7646,NA,NA,NA,NA,NA,"诚实","e","",NA,1,40,120,15,1,"",NA,"",NA,NA,NA,NA,NA,NA,NA,"",NA,"",NA,NA,NA,NA,NA,NA,NA,"","","",NA,"",NA,NA,NA,NA,NA,NA,NA,"",NA,"3"
"",NA,"",NA,"",NA,NA,NA,NA,NA,NA,NA,"","",1,1,"2024-08-23_13h21.31.714","IAT(Formal)","2021.2.3","Win32",60.24096386,"",NA,"",NA,NA,NA,NA,NA,NA,"","",NA,"",NA,"e",1,0.5312,NA,NA,NA,NA,NA,"我们","e","",NA,1,41,121,52,1,"",NA,"",NA,NA,NA,NA,NA,NA,NA,"",NA,"",NA,NA,NA,NA,NA,NA,NA,"","","",NA,"",NA,NA,NA,NA,NA,NA,NA,"",NA,"3"
"",NA,"",NA,"",NA,NA,NA,NA,NA,NA,NA,"","",1,1,"2024-08-23_13h21.31.714","IAT(Formal)","2021.2.3","Win32",60.24096386,"",NA,"",NA,NA,NA,NA,NA,NA,"","",NA,"",NA,"e",1,0.5384,NA,NA,NA,NA,NA,"我","e","",NA,1,42,122,70,1,"",NA,"",NA,NA,NA,NA,NA,NA,NA,"",NA,"",NA,NA,NA,NA,NA,NA,NA,"","","",NA,"",NA,NA,NA,NA,NA,NA,NA,"",NA,"3"
"",NA,"",NA,"",NA,NA,NA,NA,NA,NA,NA,"","",1,1,"2024-08-23_13h21.31.714","IAT(Formal)","2021.2.3","Win32",60.24096386,"",NA,"",NA,NA,NA,NA,NA,NA,"","",NA,"",NA,"e",1,0.5976,NA,NA,NA,NA,NA,"乐观","e","",NA,1,43,123,14,1,"",NA,"",NA,NA,NA,NA,NA,NA,NA,"",NA,"",NA,NA,NA,NA,NA,NA,NA,"","","",NA,"",NA,NA,NA,NA,NA,NA,NA,"",NA,"3"
"",NA,"",NA,"",NA,NA,NA,NA,NA,NA,NA,"","",1,1,"2024-08-23_13h21.31.714","IAT(Formal)","2021.2.3","Win32",60.24096386,"",NA,"",NA,NA,NA,NA,NA,NA,"","",NA,"",NA,"i",1,0.5466,NA,NA,NA,NA,NA,"他的","i","",NA,1,44,124,7,1,"",NA,"",NA,NA,NA,NA,NA,NA,NA,"",NA,"",NA,NA,NA,NA,NA,NA,NA,"","","",NA,"",NA,NA,NA,NA,NA,NA,NA,"",NA,"3"
"",NA,"",NA,"",NA,NA,NA,NA,NA,NA,NA,"","",1,1,"2024-08-23_13h21.31.714","IAT(Formal)","2021.2.3","Win32",60.24096386,"",NA,"",NA,NA,NA,NA,NA,NA,"","",NA,"",NA,"e",1,0.5357,NA,NA,NA,NA,NA,"我们","e","",NA,1,45,125,62,1,"",NA,"",NA,NA,NA,NA,NA,NA,NA,"",NA,"",NA,NA,NA,NA,NA,NA,NA,"","","",NA,"",NA,NA,NA,NA,NA,NA,NA,"",NA,"3"
"",NA,"",NA,"",NA,NA,NA,NA,NA,NA,NA,"","",1,1,"2024-08-23_13h21.31.714","IAT(Formal)","2021.2.3","Win32",60.24096386,"",NA,"",NA,NA,NA,NA,NA,NA,"","",NA,"",NA,"e",1,0.4554,NA,NA,NA,NA,NA,"我们","e","",NA,1,46,126,2,1,"",NA,"",NA,NA,NA,NA,NA,NA,NA,"",NA,"",NA,NA,NA,NA,NA,NA,NA,"","","",NA,"",NA,NA,NA,NA,NA,NA,NA,"",NA,"3"
"",NA,"",NA,"",NA,NA,NA,NA,NA,NA,NA,"","",1,1,"2024-08-23_13h21.31.714","IAT(Formal)","2021.2.3","Win32",60.24096386,"",NA,"",NA,NA,NA,NA,NA,NA,"","",NA,"",NA,"e",1,0.5612,NA,NA,NA,NA,NA,"自己","e","",NA,1,47,127,63,1,"",NA,"",NA,NA,NA,NA,NA,NA,NA,"",NA,"",NA,NA,NA,NA,NA,NA,NA,"","","",NA,"",NA,NA,NA,NA,NA,NA,NA,"",NA,"3"
"",NA,"",NA,"",NA,NA,NA,NA,NA,NA,NA,"","",1,1,"2024-08-23_13h21.31.714","IAT(Formal)","2021.2.3","Win32",60.24096386,"",NA,"",NA,NA,NA,NA,NA,NA,"","",NA,"",NA,"e",1,0.7852,NA,NA,NA,NA,NA,"稳重","e","",NA,1,48,128,21,1,"",NA,"",NA,NA,NA,NA,NA,NA,NA,"",NA,"",NA,NA,NA,NA,NA,NA,NA,"","","",NA,"",NA,NA,NA,NA,NA,NA,NA,"",NA,"3"
"",NA,"",NA,"",NA,NA,NA,NA,NA,NA,NA,"","",1,1,"2024-08-23_13h21.31.714","IAT(Formal)","2021.2.3","Win32",60.24096386,"",NA,"",NA,NA,NA,NA,NA,NA,"","",NA,"",NA,"e",1,0.4717,NA,NA,NA,NA,NA,"公正","e","",NA,1,49,129,23,1,"",NA,"",NA,NA,NA,NA,NA,NA,NA,"",NA,"",NA,NA,NA,NA,NA,NA,NA,"","","",NA,"",NA,NA,NA,NA,NA,NA,NA,"",NA,"3"
"",NA,"",NA,"",NA,NA,NA,NA,NA,NA,NA,"","",1,1,"2024-08-23_13h21.31.714","IAT(Formal)","2021.2.3","Win32",60.24096386,"",NA,"",NA,NA,NA,NA,NA,NA,"","",NA,"",NA,"e",1,0.4742,NA,NA,NA,NA,NA,"我","e","",NA,1,50,130,50,1,"",NA,"",NA,NA,NA,NA,NA,NA,NA,"",NA,"",NA,NA,NA,NA,NA,NA,NA,"","","",NA,"",NA,NA,NA,NA,NA,NA,NA,"",NA,"3"
"",NA,"",NA,"",NA,NA,NA,NA,NA,NA,NA,"","",1,1,"2024-08-23_13h21.31.714","IAT(Formal)","2021.2.3","Win32",60.24096386,"",NA,"",NA,NA,NA,NA,NA,NA,"","",NA,"",NA,"e",1,0.7676,NA,NA,NA,NA,NA,"无私","e","",NA,1,51,131,22,1,"",NA,"",NA,NA,NA,NA,NA,NA,NA,"",NA,"",NA,NA,NA,NA,NA,NA,NA,"","","",NA,"",NA,NA,NA,NA,NA,NA,NA,"",NA,"3"
"",NA,"",NA,"",NA,NA,NA,NA,NA,NA,NA,"","",1,1,"2024-08-23_13h21.31.714","IAT(Formal)","2021.2.3","Win32",60.24096386,"",NA,"",NA,NA,NA,NA,NA,NA,"","",NA,"",NA,"e",0,0.4611,NA,NA,NA,NA,NA,"固执","i","",NA,1,52,132,47,1,"",NA,"",NA,NA,NA,NA,NA,NA,NA,"",NA,"",NA,NA,NA,NA,NA,NA,NA,"","","",NA,"",NA,NA,NA,NA,NA,NA,NA,"",NA,"3"
"",NA,"",NA,"",NA,NA,NA,NA,NA,NA,NA,"","",1,1,"2024-08-23_13h21.31.714","IAT(Formal)","2021.2.3","Win32",60.24096386,"",NA,"",NA,NA,NA,NA,NA,NA,"","",NA,"",NA,"e",1,0.7259,NA,NA,NA,NA,NA,"正直","e","",NA,1,53,133,16,1,"",NA,"",NA,NA,NA,NA,NA,NA,NA,"",NA,"",NA,NA,NA,NA,NA,NA,NA,"","","",NA,"",NA,NA,NA,NA,NA,NA,NA,"",NA,"3"
"",NA,"",NA,"",NA,NA,NA,NA,NA,NA,NA,"","",1,1,"2024-08-23_13h21.31.714","IAT(Formal)","2021.2.3","Win32",60.24096386,"",NA,"",NA,NA,NA,NA,NA,NA,"","",NA,"",NA,"i",1,0.6311,NA,NA,NA,NA,NA,"猖狂","i","",NA,1,54,134,45,1,"",NA,"",NA,NA,NA,NA,NA,NA,NA,"",NA,"",NA,NA,NA,NA,NA,NA,NA,"","","",NA,"",NA,NA,NA,NA,NA,NA,NA,"",NA,"3"
"",NA,"",NA,"",NA,NA,NA,NA,NA,NA,NA,"","",1,1,"2024-08-23_13h21.31.714","IAT(Formal)","2021.2.3","Win32",60.24096386,"",NA,"",NA,NA,NA,NA,NA,NA,"","",NA,"",NA,"i",1,0.8355,NA,NA,NA,NA,NA,"冒失","i","",NA,1,55,135,39,1,"",NA,"",NA,NA,NA,NA,NA,NA,NA,"",NA,"",NA,NA,NA,NA,NA,NA,NA,"","","",NA,"",NA,NA,NA,NA,NA,NA,NA,"",NA,"3"
"",NA,"",NA,"",NA,NA,NA,NA,NA,NA,NA,"","",1,1,"2024-08-23_13h21.31.714","IAT(Formal)","2021.2.3","Win32",60.24096386,"",NA,"",NA,NA,NA,NA,NA,NA,"","",NA,"",NA,"i",1,0.6631,NA,NA,NA,NA,NA,"下贱","i","",NA,1,56,136,49,1,"",NA,"",NA,NA,NA,NA,NA,NA,NA,"",NA,"",NA,NA,NA,NA,NA,NA,NA,"","","",NA,"",NA,NA,NA,NA,NA,NA,NA,"",NA,"3"
"",NA,"",NA,"",NA,NA,NA,NA,NA,NA,NA,"","",1,1,"2024-08-23_13h21.31.714","IAT(Formal)","2021.2.3","Win32",60.24096386,"",NA,"",NA,NA,NA,NA,NA,NA,"","",NA,"",NA,"i",1,0.7217,NA,NA,NA,NA,NA,"虚伪","i","",NA,1,57,137,31,1,"",NA,"",NA,NA,NA,NA,NA,NA,NA,"",NA,"",NA,NA,NA,NA,NA,NA,NA,"","","",NA,"",NA,NA,NA,NA,NA,NA,NA,"",NA,"3"
"",NA,"",NA,"",NA,NA,NA,NA,NA,NA,NA,"","",1,1,"2024-08-23_13h21.31.714","IAT(Formal)","2021.2.3","Win32",60.24096386,"",NA,"",NA,NA,NA,NA,NA,NA,"","",NA,"",NA,"e",1,0.9213,NA,NA,NA,NA,NA,"杰出","e","",NA,1,58,138,13,1,"",NA,"",NA,NA,NA,NA,NA,NA,NA,"",NA,"",NA,NA,NA,NA,NA,NA,NA,"","","",NA,"",NA,NA,NA,NA,NA,NA,NA,"",NA,"3"
"",NA,"",NA,"",NA,NA,NA,NA,NA,NA,NA,"","",1,1,"2024-08-23_13h21.31.714","IAT(Formal)","2021.2.3","Win32",60.24096386,"",NA,"",NA,NA,NA,NA,NA,NA,"","",NA,"",NA,"e",1,0.5134,NA,NA,NA,NA,NA,"我的","e","",NA,1,59,139,61,1,"",NA,"",NA,NA,NA,NA,NA,NA,NA,"",NA,"",NA,NA,NA,NA,NA,NA,NA,"","","",NA,"",NA,NA,NA,NA,NA,NA,NA,"",NA,"3"
"",NA,"",NA,"",NA,NA,NA,NA,NA,NA,NA,"","",1,1,"2024-08-23_13h21.31.714","IAT(Formal)","2021.2.3","Win32",60.24096386,"",NA,"",NA,NA,NA,NA,NA,NA,"","",NA,"",NA,"e",1,0.5157,NA,NA,NA,NA,NA,"冷静","e","",NA,1,60,140,26,1,"",NA,"",NA,NA,NA,NA,NA,NA,NA,"",NA,"",NA,NA,NA,NA,NA,NA,NA,"","","",NA,"",NA,NA,NA,NA,NA,NA,NA,"",NA,"3"
"",NA,"",NA,"",NA,NA,NA,NA,NA,NA,NA,"","",1,1,"2024-08-23_13h21.31.714","IAT(Formal)","2021.2.3","Win32",60.24096386,"",NA,"",NA,NA,NA,NA,NA,NA,"","",NA,"",NA,"i",1,0.5151,NA,NA,NA,NA,NA,"消极","i","",NA,1,61,141,35,1,"",NA,"",NA,NA,NA,NA,NA,NA,NA,"",NA,"",NA,NA,NA,NA,NA,NA,NA,"","","",NA,"",NA,NA,NA,NA,NA,NA,NA,"",NA,"3"
"",NA,"",NA,"",NA,NA,NA,NA,NA,NA,NA,"","",1,1,"2024-08-23_13h21.31.714","IAT(Formal)","2021.2.3","Win32",60.24096386,"",NA,"",NA,NA,NA,NA,NA,NA,"","",NA,"",NA,"e",1,0.6162,NA,NA,NA,NA,NA,"活泼","e","",NA,1,62,142,28,1,"",NA,"",NA,NA,NA,NA,NA,NA,NA,"",NA,"",NA,NA,NA,NA,NA,NA,NA,"","","",NA,"",NA,NA,NA,NA,NA,NA,NA,"",NA,"3"
"",NA,"",NA,"",NA,NA,NA,NA,NA,NA,NA,"","",1,1,"2024-08-23_13h21.31.714","IAT(Formal)","2021.2.3","Win32",60.24096386,"",NA,"",NA,NA,NA,NA,NA,NA,"","",NA,"",NA,"e",1,0.5533,NA,NA,NA,NA,NA,"自己","e","",NA,1,63,143,3,1,"",NA,"",NA,NA,NA,NA,NA,NA,NA,"",NA,"",NA,NA,NA,NA,NA,NA,NA,"","","",NA,"",NA,NA,NA,NA,NA,NA,NA,"",NA,"3"
"",NA,"",NA,"",NA,NA,NA,NA,NA,NA,NA,"","",1,1,"2024-08-23_13h21.31.714","IAT(Formal)","2021.2.3","Win32",60.24096386,"",NA,"",NA,NA,NA,NA,NA,NA,"","",NA,"",NA,"e",0,0.4985,NA,NA,NA,NA,NA,"他的","i","",NA,1,64,144,77,1,"",NA,"",NA,NA,NA,NA,NA,NA,NA,"",NA,"",NA,NA,NA,NA,NA,NA,NA,"","","",NA,"",NA,NA,NA,NA,NA,NA,NA,"",NA,"3"
"",NA,"",NA,"",NA,NA,NA,NA,NA,NA,NA,"","",1,1,"2024-08-23_13h21.31.714","IAT(Formal)","2021.2.3","Win32",60.24096386,"",NA,"",NA,NA,NA,NA,NA,NA,"","",NA,"",NA,"e",1,0.4997,NA,NA,NA,NA,NA,"认真","e","",NA,1,65,145,20,1,"",NA,"",NA,NA,NA,NA,NA,NA,NA,"",NA,"",NA,NA,NA,NA,NA,NA,NA,"","","",NA,"",NA,NA,NA,NA,NA,NA,NA,"",NA,"3"
"",NA,"",NA,"",NA,NA,NA,NA,NA,NA,NA,"","",1,1,"2024-08-23_13h21.31.714","IAT(Formal)","2021.2.3","Win32",60.24096386,"",NA,"",NA,NA,NA,NA,NA,NA,"","",NA,"",NA,"i",1,0.663,NA,NA,NA,NA,NA,"自卑","i","",NA,1,66,146,36,1,"",NA,"",NA,NA,NA,NA,NA,NA,NA,"",NA,"",NA,NA,NA,NA,NA,NA,NA,"","","",NA,"",NA,NA,NA,NA,NA,NA,NA,"",NA,"3"
"",NA,"",NA,"",NA,NA,NA,NA,NA,NA,NA,"","",1,1,"2024-08-23_13h21.31.714","IAT(Formal)","2021.2.3","Win32",60.24096386,"",NA,"",NA,NA,NA,NA,NA,NA,"","",NA,"",NA,"e",0,0.6128,NA,NA,NA,NA,NA,"他","i","",NA,1,67,147,75,1,"",NA,"",NA,NA,NA,NA,NA,NA,NA,"",NA,"",NA,NA,NA,NA,NA,NA,NA,"","","",NA,"",NA,NA,NA,NA,NA,NA,NA,"",NA,"3"
"",NA,"",NA,"",NA,NA,NA,NA,NA,NA,NA,"","",1,1,"2024-08-23_13h21.31.714","IAT(Formal)","2021.2.3","Win32",60.24096386,"",NA,"",NA,NA,NA,NA,NA,NA,"","",NA,"",NA,"i",1,0.5533,NA,NA,NA,NA,NA,"他人","i","",NA,1,68,148,58,1,"",NA,"",NA,NA,NA,NA,NA,NA,NA,"",NA,"",NA,NA,NA,NA,NA,NA,NA,"","","",NA,"",NA,NA,NA,NA,NA,NA,NA,"",NA,"3"
"",NA,"",NA,"",NA,NA,NA,NA,NA,NA,NA,"","",1,1,"2024-08-23_13h21.31.714","IAT(Formal)","2021.2.3","Win32",60.24096386,"",NA,"",NA,NA,NA,NA,NA,NA,"","",NA,"",NA,"e",1,0.5661,NA,NA,NA,NA,NA,"细腻","e","",NA,1,69,149,25,1,"",NA,"",NA,NA,NA,NA,NA,NA,NA,"",NA,"",NA,NA,NA,NA,NA,NA,NA,"","","",NA,"",NA,NA,NA,NA,NA,NA,NA,"",NA,"3"
"",NA,"",NA,"",NA,NA,NA,NA,NA,NA,NA,"","",1,1,"2024-08-23_13h21.31.714","IAT(Formal)","2021.2.3","Win32",60.24096386,"",NA,"",NA,NA,NA,NA,NA,NA,"","",NA,"",NA,"i",1,0.6448,NA,NA,NA,NA,NA,"他们","i","",NA,1,70,150,56,1,"",NA,"",NA,NA,NA,NA,NA,NA,NA,"",NA,"",NA,NA,NA,NA,NA,NA,NA,"","","",NA,"",NA,NA,NA,NA,NA,NA,NA,"",NA,"3"
"",NA,"",NA,"",NA,NA,NA,NA,NA,NA,NA,"","",1,1,"2024-08-23_13h21.31.714","IAT(Formal)","2021.2.3","Win32",60.24096386,"",NA,"",NA,NA,NA,NA,NA,NA,"","",NA,"",NA,"i",1,0.5343,NA,NA,NA,NA,NA,"他人","i","",NA,1,71,151,68,1,"",NA,"",NA,NA,NA,NA,NA,NA,NA,"",NA,"",NA,NA,NA,NA,NA,NA,NA,"","","",NA,"",NA,NA,NA,NA,NA,NA,NA,"",NA,"3"
"",NA,"",NA,"",NA,NA,NA,NA,NA,NA,NA,"","",1,1,"2024-08-23_13h21.31.714","IAT(Formal)","2021.2.3","Win32",60.24096386,"",NA,"",NA,NA,NA,NA,NA,NA,"","",NA,"",NA,"i",1,0.5038,NA,NA,NA,NA,NA,"他","i","",NA,1,72,152,5,1,"",NA,"",NA,NA,NA,NA,NA,NA,NA,"",NA,"",NA,NA,NA,NA,NA,NA,NA,"","","",NA,"",NA,NA,NA,NA,NA,NA,NA,"",NA,"3"
"",NA,"",NA,"",NA,NA,NA,NA,NA,NA,NA,"","",1,1,"2024-08-23_13h21.31.714","IAT(Formal)","2021.2.3","Win32",60.24096386,"",NA,"",NA,NA,NA,NA,NA,NA,"","",NA,"",NA,"e",1,0.6193,NA,NA,NA,NA,NA,"俺","e","",NA,1,73,153,74,1,"",NA,"",NA,NA,NA,NA,NA,NA,NA,"",NA,"",NA,NA,NA,NA,NA,NA,NA,"","","",NA,"",NA,NA,NA,NA,NA,NA,NA,"",NA,"3"
"",NA,"",NA,"",NA,NA,NA,NA,NA,NA,NA,"","",1,1,"2024-08-23_13h21.31.714","IAT(Formal)","2021.2.3","Win32",60.24096386,"",NA,"",NA,NA,NA,NA,NA,NA,"","",NA,"",NA,"i",1,0.6462,NA,NA,NA,NA,NA,"他们","i","",NA,1,74,154,66,1,"",NA,"",NA,NA,NA,NA,NA,NA,NA,"",NA,"",NA,NA,NA,NA,NA,NA,NA,"","","",NA,"",NA,NA,NA,NA,NA,NA,NA,"",NA,"3"
"",NA,"",NA,"",NA,NA,NA,NA,NA,NA,NA,"","",1,1,"2024-08-23_13h21.31.714","IAT(Formal)","2021.2.3","Win32",60.24096386,"",NA,"",NA,NA,NA,NA,NA,NA,"","",NA,"",NA,"e",1,0.59,NA,NA,NA,NA,NA,"我的","e","",NA,1,75,155,51,1,"",NA,"",NA,NA,NA,NA,NA,NA,NA,"",NA,"",NA,NA,NA,NA,NA,NA,NA,"","","",NA,"",NA,NA,NA,NA,NA,NA,NA,"",NA,"3"
"",NA,"",NA,"",NA,NA,NA,NA,NA,NA,NA,"","",1,1,"2024-08-23_13h21.31.714","IAT(Formal)","2021.2.3","Win32",60.24096386,"",NA,"",NA,NA,NA,NA,NA,NA,"","",NA,"",NA,"e",0,1.1725,NA,NA,NA,NA,NA,"其他","i","",NA,1,76,156,59,1,"",NA,"",NA,NA,NA,NA,NA,NA,NA,"",NA,"",NA,NA,NA,NA,NA,NA,NA,"","","",NA,"",NA,NA,NA,NA,NA,NA,NA,"",NA,"3"
"",NA,"",NA,"",NA,NA,NA,NA,NA,NA,NA,"","",1,1,"2024-08-23_13h21.31.714","IAT(Formal)","2021.2.3","Win32",60.24096386,"",NA,"",NA,NA,NA,NA,NA,NA,"","",NA,"",NA,"i",1,0.5485,NA,NA,NA,NA,NA,"其他","i","",NA,1,77,157,9,1,"",NA,"",NA,NA,NA,NA,NA,NA,NA,"",NA,"",NA,NA,NA,NA,NA,NA,NA,"","","",NA,"",NA,NA,NA,NA,NA,NA,NA,"",NA,"3"
"",NA,"",NA,"",NA,NA,NA,NA,NA,NA,NA,"","",1,1,"2024-08-23_13h21.31.714","IAT(Formal)","2021.2.3","Win32",60.24096386,"",NA,"",NA,NA,NA,NA,NA,NA,"","",NA,"",NA,"e",1,0.5342,NA,NA,NA,NA,NA,"我的","e","",NA,1,78,158,1,1,"",NA,"",NA,NA,NA,NA,NA,NA,NA,"",NA,"",NA,NA,NA,NA,NA,NA,NA,"","","",NA,"",NA,NA,NA,NA,NA,NA,NA,"",NA,"3"
"",NA,"",NA,"",NA,NA,NA,NA,NA,NA,NA,"","",1,1,"2024-08-23_13h21.31.714","IAT(Formal)","2021.2.3","Win32",60.24096386,"",NA,"",NA,NA,NA,NA,NA,NA,"","",NA,"",NA,"i",1,0.7277,NA,NA,NA,NA,NA,"轻率","i","",NA,1,79,159,48,1,"",NA,"",NA,NA,NA,NA,NA,NA,NA,"",NA,"",NA,NA,NA,NA,NA,NA,NA,"","","",NA,"",NA,NA,NA,NA,NA,NA,NA,"",NA,"3"
"",NA,"",NA,"",NA,NA,NA,NA,NA,NA,NA,"我","i",1,1,"2024-08-23_13h21.31.714","IAT(Formal)","2021.2.3","Win32",60.24096386,"",NA,"",NA,NA,NA,NA,NA,NA,"","",NA,"",NA,"",NA,NA,NA,NA,NA,NA,NA,"","","",NA,NA,NA,NA,NA,NA,"space",20.102,"i",1,0.9865,0,0,0,0,1,"",NA,"",NA,NA,NA,NA,NA,NA,NA,"","","",NA,"",NA,NA,NA,NA,NA,NA,NA,"",NA,"3"
"",NA,"",NA,"",NA,NA,NA,NA,NA,NA,NA,"俺","i",1,1,"2024-08-23_13h21.31.714","IAT(Formal)","2021.2.3","Win32",60.24096386,"",NA,"",NA,NA,NA,NA,NA,NA,"","",NA,"",NA,"",NA,NA,NA,NA,NA,NA,NA,"","","",NA,NA,NA,NA,NA,NA,"",NA,"i",1,0.5844,0,1,1,4,1,"",NA,"",NA,NA,NA,NA,NA,NA,NA,"","","",NA,"",NA,NA,NA,NA,NA,NA,NA,"",NA,"3"
"",NA,"",NA,"",NA,NA,NA,NA,NA,NA,NA,"他人","e",1,1,"2024-08-23_13h21.31.714","IAT(Formal)","2021.2.3","Win32",60.24096386,"",NA,"",NA,NA,NA,NA,NA,NA,"","",NA,"",NA,"",NA,NA,NA,NA,NA,NA,NA,"","","",NA,NA,NA,NA,NA,NA,"",NA,"e",1,0.6703,0,2,2,8,1,"",NA,"",NA,NA,NA,NA,NA,NA,NA,"","","",NA,"",NA,NA,NA,NA,NA,NA,NA,"",NA,"3"
"",NA,"",NA,"",NA,NA,NA,NA,NA,NA,NA,"其他","e",1,1,"2024-08-23_13h21.31.714","IAT(Formal)","2021.2.3","Win32",60.24096386,"",NA,"",NA,NA,NA,NA,NA,NA,"","",NA,"",NA,"",NA,NA,NA,NA,NA,NA,NA,"","","",NA,NA,NA,NA,NA,NA,"",NA,"e",1,0.4551,0,3,3,9,1,"",NA,"",NA,NA,NA,NA,NA,NA,NA,"","","",NA,"",NA,NA,NA,NA,NA,NA,NA,"",NA,"3"
"",NA,"",NA,"",NA,NA,NA,NA,NA,NA,NA,"他","e",1,1,"2024-08-23_13h21.31.714","IAT(Formal)","2021.2.3","Win32",60.24096386,"",NA,"",NA,NA,NA,NA,NA,NA,"","",NA,"",NA,"",NA,NA,NA,NA,NA,NA,NA,"","","",NA,NA,NA,NA,NA,NA,"",NA,"e",1,0.528,0,4,4,5,1,"",NA,"",NA,NA,NA,NA,NA,NA,NA,"","","",NA,"",NA,NA,NA,NA,NA,NA,NA,"",NA,"3"
"",NA,"",NA,"",NA,NA,NA,NA,NA,NA,NA,"他的","e",1,1,"2024-08-23_13h21.31.714","IAT(Formal)","2021.2.3","Win32",60.24096386,"",NA,"",NA,NA,NA,NA,NA,NA,"","",NA,"",NA,"",NA,NA,NA,NA,NA,NA,NA,"","","",NA,NA,NA,NA,NA,NA,"",NA,"e",1,0.6584,0,5,5,7,1,"",NA,"",NA,NA,NA,NA,NA,NA,NA,"","","",NA,"",NA,NA,NA,NA,NA,NA,NA,"",NA,"3"
"",NA,"",NA,"",NA,NA,NA,NA,NA,NA,NA,"自己","i",1,1,"2024-08-23_13h21.31.714","IAT(Formal)","2021.2.3","Win32",60.24096386,"",NA,"",NA,NA,NA,NA,NA,NA,"","",NA,"",NA,"",NA,NA,NA,NA,NA,NA,NA,"","","",NA,NA,NA,NA,NA,NA,"",NA,"i",1,0.7174,0,6,6,3,1,"",NA,"",NA,NA,NA,NA,NA,NA,NA,"","","",NA,"",NA,NA,NA,NA,NA,NA,NA,"",NA,"3"
"",NA,"",NA,"",NA,NA,NA,NA,NA,NA,NA,"我的","i",1,1,"2024-08-23_13h21.31.714","IAT(Formal)","2021.2.3","Win32",60.24096386,"",NA,"",NA,NA,NA,NA,NA,NA,"","",NA,"",NA,"",NA,NA,NA,NA,NA,NA,NA,"","","",NA,NA,NA,NA,NA,NA,"",NA,"i",1,0.8197,0,7,7,1,1,"",NA,"",NA,NA,NA,NA,NA,NA,NA,"","","",NA,"",NA,NA,NA,NA,NA,NA,NA,"",NA,"3"
"",NA,"",NA,"",NA,NA,NA,NA,NA,NA,NA,"我们","i",1,1,"2024-08-23_13h21.31.714","IAT(Formal)","2021.2.3","Win32",60.24096386,"",NA,"",NA,NA,NA,NA,NA,NA,"","",NA,"",NA,"",NA,NA,NA,NA,NA,NA,NA,"","","",NA,NA,NA,NA,NA,NA,"",NA,"i",1,1.1102,0,8,8,2,1,"",NA,"",NA,NA,NA,NA,NA,NA,NA,"","","",NA,"",NA,NA,NA,NA,NA,NA,NA,"",NA,"3"
"",NA,"",NA,"",NA,NA,NA,NA,NA,NA,NA,"他们","e",1,1,"2024-08-23_13h21.31.714","IAT(Formal)","2021.2.3","Win32",60.24096386,"",NA,"",NA,NA,NA,NA,NA,NA,"","",NA,"",NA,"",NA,NA,NA,NA,NA,NA,NA,"","","",NA,NA,NA,NA,NA,NA,"",NA,"e",1,0.8729,0,9,9,6,1,"",NA,"",NA,NA,NA,NA,NA,NA,NA,"","","",NA,"",NA,NA,NA,NA,NA,NA,NA,"",NA,"3"
"",NA,"",NA,"",NA,NA,NA,NA,NA,NA,NA,"","",1,1,"2024-08-23_13h21.31.714","IAT(Formal)","2021.2.3","Win32",60.24096386,"",NA,"",NA,NA,NA,NA,NA,NA,"","",NA,"",NA,"",NA,NA,NA,NA,NA,NA,NA,"","","",NA,NA,NA,NA,NA,NA,"",NA,"",NA,NA,NA,NA,NA,NA,NA,"space",7.7803,"i",1,0.7391,0,0,0,61,1,"我的","i","",NA,"",NA,NA,NA,NA,NA,NA,NA,"",NA,"3"
"",NA,"",NA,"",NA,NA,NA,NA,NA,NA,NA,"","",1,1,"2024-08-23_13h21.31.714","IAT(Formal)","2021.2.3","Win32",60.24096386,"",NA,"",NA,NA,NA,NA,NA,NA,"","",NA,"",NA,"",NA,NA,NA,NA,NA,NA,NA,"","","",NA,NA,NA,NA,NA,NA,"",NA,"",NA,NA,NA,NA,NA,NA,NA,"",NA,"i",0,0.4145,0,1,1,25,1,"细腻","e","",NA,"",NA,NA,NA,NA,NA,NA,NA,"",NA,"3"
"",NA,"",NA,"",NA,NA,NA,NA,NA,NA,NA,"","",1,1,"2024-08-23_13h21.31.714","IAT(Formal)","2021.2.3","Win32",60.24096386,"",NA,"",NA,NA,NA,NA,NA,NA,"","",NA,"",NA,"",NA,NA,NA,NA,NA,NA,NA,"","","",NA,NA,NA,NA,NA,NA,"",NA,"",NA,NA,NA,NA,NA,NA,NA,"",NA,"e",1,0.8333,0,2,2,27,1,"热情","e","",NA,"",NA,NA,NA,NA,NA,NA,NA,"",NA,"3"
"",NA,"",NA,"",NA,NA,NA,NA,NA,NA,NA,"","",1,1,"2024-08-23_13h21.31.714","IAT(Formal)","2021.2.3","Win32",60.24096386,"",NA,"",NA,NA,NA,NA,NA,NA,"","",NA,"",NA,"",NA,NA,NA,NA,NA,NA,NA,"","","",NA,NA,NA,NA,NA,NA,"",NA,"",NA,NA,NA,NA,NA,NA,NA,"",NA,"e",1,1.2395,0,3,3,67,1,"他的","e","",NA,"",NA,NA,NA,NA,NA,NA,NA,"",NA,"3"
"",NA,"",NA,"",NA,NA,NA,NA,NA,NA,NA,"","",1,1,"2024-08-23_13h21.31.714","IAT(Formal)","2021.2.3","Win32",60.24096386,"",NA,"",NA,NA,NA,NA,NA,NA,"","",NA,"",NA,"",NA,NA,NA,NA,NA,NA,NA,"","","",NA,NA,NA,NA,NA,NA,"",NA,"",NA,NA,NA,NA,NA,NA,NA,"",NA,"e",1,0.8568,0,4,4,15,1,"诚实","e","",NA,"",NA,NA,NA,NA,NA,NA,NA,"",NA,"3"
"",NA,"",NA,"",NA,NA,NA,NA,NA,NA,NA,"","",1,1,"2024-08-23_13h21.31.714","IAT(Formal)","2021.2.3","Win32",60.24096386,"",NA,"",NA,NA,NA,NA,NA,NA,"","",NA,"",NA,"",NA,NA,NA,NA,NA,NA,NA,"","","",NA,NA,NA,NA,NA,NA,"",NA,"",NA,NA,NA,NA,NA,NA,NA,"",NA,"i",1,0.8648,0,5,5,37,1,"傲慢","i","",NA,"",NA,NA,NA,NA,NA,NA,NA,"",NA,"3"
