"X.Instruction1.keys","Instruction1.rt","Instruction2.keys","Instruction2.rt","key_resp_iso.keys","key_resp_iso.corr","key_resp_iso.rt","Practice_01.thisRepN","Practice_01.thisTrialN","Practice_01.thisN","Practice_01.thisIndex","Practice_01.ran","Words","ans","participant","session","date","expName","psychopyVersion","OS","frameRate","key_resp_3.keys","key_resp_3.rt","key_resp_ipn.keys","key_resp_ipn.corr","key_resp_ipn.rt","Practice_02.thisRepN","Practice_02.thisTrialN","Practice_02.thisN","Practice_02.thisIndex","Practice_02.ran","Words_ipn","ans_ipn","key_resp_4.keys","key_resp_4.rt","key_resp_t1.keys","key_resp_t1.corr","key_resp_t1.rt","Practice_T1.thisRepN","Practice_T1.thisTrialN","Practice_T1.thisN","Practice_T1.thisIndex","Practice_T1.ran","Words_t1","ans_t1","key_resp_5.keys","key_resp_5.rt","Formal_T1.thisRepN","Formal_T1.thisTrialN","Formal_T1.thisN","Formal_T1.thisIndex","Formal_T1.ran","key_resp_6.keys","key_resp_6.rt","key_resp_iso_reverse.keys","key_resp_iso_reverse.corr","key_resp_iso_reverse.rt","Practice_iso_Reverse.thisRepN","Practice_iso_Reverse.thisTrialN","Practice_iso_Reverse.thisN","Practice_iso_Reverse.thisIndex","Practice_iso_Reverse.ran","key_resp_7.keys","key_resp_7.rt","key_resp_t2_Practice.keys","key_resp_t2_Practice.corr","key_resp_t2_Practice.rt","Practice_t2_Reverse.thisRepN","Practice_t2_Reverse.thisTrialN","Practice_t2_Reverse.thisN","Practice_t2_Reverse.thisIndex","Practice_t2_Reverse.ran","Words_t2","ans_t2","key_resp_8.keys","key_resp_8.rt","key_resp_t2.keys","key_resp_t2.corr","key_resp_t2.rt","Formal_t2_reverse.thisRepN","Formal_t2_reverse.thisTrialN","Formal_t2_reverse.thisN","Formal_t2_reverse.thisIndex","Formal_t2_reverse.ran","key_instruct.keys","key_instruct.rt","Subject"
"space",3.704,"space",14.56,"i",1,0.743,0,0,0,6,1,"他们","i",1,1,"2024-08-25_17h06.09.608","IAT(Formal)","2021.2.3","Win32",60.0240096,"",NA,"",NA,NA,NA,NA,NA,NA,NA,"","","",NA,"",NA,NA,NA,NA,NA,NA,NA,"","","",NA,NA,NA,NA,NA,NA,"",NA,"",NA,NA,NA,NA,NA,NA,NA,"",NA,"",NA,NA,NA,NA,NA,NA,NA,"","","",NA,"",NA,NA,NA,NA,NA,NA,NA,"",NA,"30"
"",NA,"",NA,"i",1,0.729,0,1,1,9,1,"其他","i",1,1,"2024-08-25_17h06.09.608","IAT(Formal)","2021.2.3","Win32",60.0240096,"",NA,"",NA,NA,NA,NA,NA,NA,NA,"","","",NA,"",NA,NA,NA,NA,NA,NA,NA,"","","",NA,NA,NA,NA,NA,NA,"",NA,"",NA,NA,NA,NA,NA,NA,NA,"",NA,"",NA,NA,NA,NA,NA,NA,NA,"","","",NA,"",NA,NA,NA,NA,NA,NA,NA,"",NA,"30"
"",NA,"",NA,"e",1,0.646,0,2,2,2,1,"我们","e",1,1,"2024-08-25_17h06.09.608","IAT(Formal)","2021.2.3","Win32",60.0240096,"",NA,"",NA,NA,NA,NA,NA,NA,NA,"","","",NA,"",NA,NA,NA,NA,NA,NA,NA,"","","",NA,NA,NA,NA,NA,NA,"",NA,"",NA,NA,NA,NA,NA,NA,NA,"",NA,"",NA,NA,NA,NA,NA,NA,NA,"","","",NA,"",NA,NA,NA,NA,NA,NA,NA,"",NA,"30"
"",NA,"",NA,"e",1,0.713,0,3,3,4,1,"俺","e",1,1,"2024-08-25_17h06.09.608","IAT(Formal)","2021.2.3","Win32",60.0240096,"",NA,"",NA,NA,NA,NA,NA,NA,NA,"","","",NA,"",NA,NA,NA,NA,NA,NA,NA,"","","",NA,NA,NA,NA,NA,NA,"",NA,"",NA,NA,NA,NA,NA,NA,NA,"",NA,"",NA,NA,NA,NA,NA,NA,NA,"","","",NA,"",NA,NA,NA,NA,NA,NA,NA,"",NA,"30"
"",NA,"",NA,"e",1,0.587,0,4,4,3,1,"自己","e",1,1,"2024-08-25_17h06.09.608","IAT(Formal)","2021.2.3","Win32",60.0240096,"",NA,"",NA,NA,NA,NA,NA,NA,NA,"","","",NA,"",NA,NA,NA,NA,NA,NA,NA,"","","",NA,NA,NA,NA,NA,NA,"",NA,"",NA,NA,NA,NA,NA,NA,NA,"",NA,"",NA,NA,NA,NA,NA,NA,NA,"","","",NA,"",NA,NA,NA,NA,NA,NA,NA,"",NA,"30"
"",NA,"",NA,"i",1,0.652,0,5,5,7,1,"他的","i",1,1,"2024-08-25_17h06.09.608","IAT(Formal)","2021.2.3","Win32",60.0240096,"",NA,"",NA,NA,NA,NA,NA,NA,NA,"","","",NA,"",NA,NA,NA,NA,NA,NA,NA,"","","",NA,NA,NA,NA,NA,NA,"",NA,"",NA,NA,NA,NA,NA,NA,NA,"",NA,"",NA,NA,NA,NA,NA,NA,NA,"","","",NA,"",NA,NA,NA,NA,NA,NA,NA,"",NA,"30"
"",NA,"",NA,"i",1,0.619,0,6,6,5,1,"他","i",1,1,"2024-08-25_17h06.09.608","IAT(Formal)","2021.2.3","Win32",60.0240096,"",NA,"",NA,NA,NA,NA,NA,NA,NA,"","","",NA,"",NA,NA,NA,NA,NA,NA,NA,"","","",NA,NA,NA,NA,NA,NA,"",NA,"",NA,NA,NA,NA,NA,NA,NA,"",NA,"",NA,NA,NA,NA,NA,NA,NA,"","","",NA,"",NA,NA,NA,NA,NA,NA,NA,"",NA,"30"
"",NA,"",NA,"e",1,0.498,0,7,7,0,1,"我","e",1,1,"2024-08-25_17h06.09.608","IAT(Formal)","2021.2.3","Win32",60.0240096,"",NA,"",NA,NA,NA,NA,NA,NA,NA,"","","",NA,"",NA,NA,NA,NA,NA,NA,NA,"","","",NA,NA,NA,NA,NA,NA,"",NA,"",NA,NA,NA,NA,NA,NA,NA,"",NA,"",NA,NA,NA,NA,NA,NA,NA,"","","",NA,"",NA,NA,NA,NA,NA,NA,NA,"",NA,"30"
"",NA,"",NA,"e",1,0.583,0,8,8,1,1,"我的","e",1,1,"2024-08-25_17h06.09.608","IAT(Formal)","2021.2.3","Win32",60.0240096,"",NA,"",NA,NA,NA,NA,NA,NA,NA,"","","",NA,"",NA,NA,NA,NA,NA,NA,NA,"","","",NA,NA,NA,NA,NA,NA,"",NA,"",NA,NA,NA,NA,NA,NA,NA,"",NA,"",NA,NA,NA,NA,NA,NA,NA,"","","",NA,"",NA,NA,NA,NA,NA,NA,NA,"",NA,"30"
"",NA,"",NA,"i",1,0.565,0,9,9,8,1,"他人","i",1,1,"2024-08-25_17h06.09.608","IAT(Formal)","2021.2.3","Win32",60.0240096,"",NA,"",NA,NA,NA,NA,NA,NA,NA,"","","",NA,"",NA,NA,NA,NA,NA,NA,NA,"","","",NA,NA,NA,NA,NA,NA,"",NA,"",NA,NA,NA,NA,NA,NA,NA,"",NA,"",NA,NA,NA,NA,NA,NA,NA,"","","",NA,"",NA,NA,NA,NA,NA,NA,NA,"",NA,"30"
"",NA,"",NA,"",NA,NA,NA,NA,NA,NA,NA,"","",1,1,"2024-08-25_17h06.09.608","IAT(Formal)","2021.2.3","Win32",60.0240096,"space",5.776,"e",1,0.564,0,0,0,6,1,"正直","e","",NA,"",NA,NA,NA,NA,NA,NA,NA,"","","",NA,NA,NA,NA,NA,NA,"",NA,"",NA,NA,NA,NA,NA,NA,NA,"",NA,"",NA,NA,NA,NA,NA,NA,NA,"","","",NA,"",NA,NA,NA,NA,NA,NA,NA,"",NA,"30"
"",NA,"",NA,"",NA,NA,NA,NA,NA,NA,NA,"","",1,1,"2024-08-25_17h06.09.608","IAT(Formal)","2021.2.3","Win32",60.0240096,"",NA,"i",1,0.552,0,1,1,39,1,"下贱","i","",NA,"",NA,NA,NA,NA,NA,NA,NA,"","","",NA,NA,NA,NA,NA,NA,"",NA,"",NA,NA,NA,NA,NA,NA,NA,"",NA,"",NA,NA,NA,NA,NA,NA,NA,"","","",NA,"",NA,NA,NA,NA,NA,NA,NA,"",NA,"30"
"",NA,"",NA,"",NA,NA,NA,NA,NA,NA,NA,"","",1,1,"2024-08-25_17h06.09.608","IAT(Formal)","2021.2.3","Win32",60.0240096,"",NA,"e",1,0.482,0,2,2,1,1,"崇高","e","",NA,"",NA,NA,NA,NA,NA,NA,NA,"","","",NA,NA,NA,NA,NA,NA,"",NA,"",NA,NA,NA,NA,NA,NA,NA,"",NA,"",NA,NA,NA,NA,NA,NA,NA,"","","",NA,"",NA,NA,NA,NA,NA,NA,NA,"",NA,"30"
"",NA,"",NA,"",NA,NA,NA,NA,NA,NA,NA,"","",1,1,"2024-08-25_17h06.09.608","IAT(Formal)","2021.2.3","Win32",60.0240096,"",NA,"i",0,0.636,0,3,3,16,1,"冷静","e","",NA,"",NA,NA,NA,NA,NA,NA,NA,"","","",NA,NA,NA,NA,NA,NA,"",NA,"",NA,NA,NA,NA,NA,NA,NA,"",NA,"",NA,NA,NA,NA,NA,NA,NA,"","","",NA,"",NA,NA,NA,NA,NA,NA,NA,"",NA,"30"
"",NA,"",NA,"",NA,NA,NA,NA,NA,NA,NA,"","",1,1,"2024-08-25_17h06.09.608","IAT(Formal)","2021.2.3","Win32",60.0240096,"",NA,"i",1,1.065,0,4,4,37,1,"固执","i","",NA,"",NA,NA,NA,NA,NA,NA,NA,"","","",NA,NA,NA,NA,NA,NA,"",NA,"",NA,NA,NA,NA,NA,NA,NA,"",NA,"",NA,NA,NA,NA,NA,NA,NA,"","","",NA,"",NA,NA,NA,NA,NA,NA,NA,"",NA,"30"
"",NA,"",NA,"",NA,NA,NA,NA,NA,NA,NA,"","",1,1,"2024-08-25_17h06.09.608","IAT(Formal)","2021.2.3","Win32",60.0240096,"",NA,"i",1,0.771,0,5,5,25,1,"消极","i","",NA,"",NA,NA,NA,NA,NA,NA,NA,"","","",NA,NA,NA,NA,NA,NA,"",NA,"",NA,NA,NA,NA,NA,NA,NA,"",NA,"",NA,NA,NA,NA,NA,NA,NA,"","","",NA,"",NA,NA,NA,NA,NA,NA,NA,"",NA,"30"
"",NA,"",NA,"",NA,NA,NA,NA,NA,NA,NA,"","",1,1,"2024-08-25_17h06.09.608","IAT(Formal)","2021.2.3","Win32",60.0240096,"",NA,"e",1,0.572,0,6,6,8,1,"勤奋","e","",NA,"",NA,NA,NA,NA,NA,NA,NA,"","","",NA,NA,NA,NA,NA,NA,"",NA,"",NA,NA,NA,NA,NA,NA,NA,"",NA,"",NA,NA,NA,NA,NA,NA,NA,"","","",NA,"",NA,NA,NA,NA,NA,NA,NA,"",NA,"30"
"",NA,"",NA,"",NA,NA,NA,NA,NA,NA,NA,"","",1,1,"2024-08-25_17h06.09.608","IAT(Formal)","2021.2.3","Win32",60.0240096,"",NA,"e",1,0.516,0,7,7,0,1,"优秀","e","",NA,"",NA,NA,NA,NA,NA,NA,NA,"","","",NA,NA,NA,NA,NA,NA,"",NA,"",NA,NA,NA,NA,NA,NA,NA,"",NA,"",NA,NA,NA,NA,NA,NA,NA,"","","",NA,"",NA,NA,NA,NA,NA,NA,NA,"",NA,"30"
"",NA,"",NA,"",NA,NA,NA,NA,NA,NA,NA,"","",1,1,"2024-08-25_17h06.09.608","IAT(Formal)","2021.2.3","Win32",60.0240096,"",NA,"i",1,0.69,0,8,8,22,1,"愚蠢","i","",NA,"",NA,NA,NA,NA,NA,NA,NA,"","","",NA,NA,NA,NA,NA,NA,"",NA,"",NA,NA,NA,NA,NA,NA,NA,"",NA,"",NA,NA,NA,NA,NA,NA,NA,"","","",NA,"",NA,NA,NA,NA,NA,NA,NA,"",NA,"30"
"",NA,"",NA,"",NA,NA,NA,NA,NA,NA,NA,"","",1,1,"2024-08-25_17h06.09.608","IAT(Formal)","2021.2.3","Win32",60.0240096,"",NA,"i",1,0.804,0,9,9,36,1,"野蛮","i","",NA,"",NA,NA,NA,NA,NA,NA,NA,"","","",NA,NA,NA,NA,NA,NA,"",NA,"",NA,NA,NA,NA,NA,NA,NA,"",NA,"",NA,NA,NA,NA,NA,NA,NA,"","","",NA,"",NA,NA,NA,NA,NA,NA,NA,"",NA,"30"
"",NA,"",NA,"",NA,NA,NA,NA,NA,NA,NA,"","",1,1,"2024-08-25_17h06.09.608","IAT(Formal)","2021.2.3","Win32",60.0240096,"",NA,"i",1,0.748,0,10,10,26,1,"自卑","i","",NA,"",NA,NA,NA,NA,NA,NA,NA,"","","",NA,NA,NA,NA,NA,NA,"",NA,"",NA,NA,NA,NA,NA,NA,NA,"",NA,"",NA,NA,NA,NA,NA,NA,NA,"","","",NA,"",NA,NA,NA,NA,NA,NA,NA,"",NA,"30"
"",NA,"",NA,"",NA,NA,NA,NA,NA,NA,NA,"","",1,1,"2024-08-25_17h06.09.608","IAT(Formal)","2021.2.3","Win32",60.0240096,"",NA,"e",1,0.579,0,11,11,4,1,"乐观","e","",NA,"",NA,NA,NA,NA,NA,NA,NA,"","","",NA,NA,NA,NA,NA,NA,"",NA,"",NA,NA,NA,NA,NA,NA,NA,"",NA,"",NA,NA,NA,NA,NA,NA,NA,"","","",NA,"",NA,NA,NA,NA,NA,NA,NA,"",NA,"30"
"",NA,"",NA,"",NA,NA,NA,NA,NA,NA,NA,"","",1,1,"2024-08-25_17h06.09.608","IAT(Formal)","2021.2.3","Win32",60.0240096,"",NA,"i",1,0.719,0,12,12,33,1,"自私","i","",NA,"",NA,NA,NA,NA,NA,NA,NA,"","","",NA,NA,NA,NA,NA,NA,"",NA,"",NA,NA,NA,NA,NA,NA,NA,"",NA,"",NA,NA,NA,NA,NA,NA,NA,"","","",NA,"",NA,NA,NA,NA,NA,NA,NA,"",NA,"30"
"",NA,"",NA,"",NA,NA,NA,NA,NA,NA,NA,"","",1,1,"2024-08-25_17h06.09.608","IAT(Formal)","2021.2.3","Win32",60.0240096,"",NA,"e",1,0.714,0,13,13,9,1,"机智","e","",NA,"",NA,NA,NA,NA,NA,NA,NA,"","","",NA,NA,NA,NA,NA,NA,"",NA,"",NA,NA,NA,NA,NA,NA,NA,"",NA,"",NA,NA,NA,NA,NA,NA,NA,"","","",NA,"",NA,NA,NA,NA,NA,NA,NA,"",NA,"30"
"",NA,"",NA,"",NA,NA,NA,NA,NA,NA,NA,"","",1,1,"2024-08-25_17h06.09.608","IAT(Formal)","2021.2.3","Win32",60.0240096,"",NA,"i",1,0.615,0,14,14,21,1,"虚伪","i","",NA,"",NA,NA,NA,NA,NA,NA,NA,"","","",NA,NA,NA,NA,NA,NA,"",NA,"",NA,NA,NA,NA,NA,NA,NA,"",NA,"",NA,NA,NA,NA,NA,NA,NA,"","","",NA,"",NA,NA,NA,NA,NA,NA,NA,"",NA,"30"
"",NA,"",NA,"",NA,NA,NA,NA,NA,NA,NA,"","",1,1,"2024-08-25_17h06.09.608","IAT(Formal)","2021.2.3","Win32",60.0240096,"",NA,"i",1,0.812,0,15,15,34,1,"暴躁","i","",NA,"",NA,NA,NA,NA,NA,NA,NA,"","","",NA,NA,NA,NA,NA,NA,"",NA,"",NA,NA,NA,NA,NA,NA,NA,"",NA,"",NA,NA,NA,NA,NA,NA,NA,"","","",NA,"",NA,NA,NA,NA,NA,NA,NA,"",NA,"30"
"",NA,"",NA,"",NA,NA,NA,NA,NA,NA,NA,"","",1,1,"2024-08-25_17h06.09.608","IAT(Formal)","2021.2.3","Win32",60.0240096,"",NA,"e",1,0.802,0,16,16,3,1,"杰出","e","",NA,"",NA,NA,NA,NA,NA,NA,NA,"","","",NA,NA,NA,NA,NA,NA,"",NA,"",NA,NA,NA,NA,NA,NA,NA,"",NA,"",NA,NA,NA,NA,NA,NA,NA,"","","",NA,"",NA,NA,NA,NA,NA,NA,NA,"",NA,"30"
"",NA,"",NA,"",NA,NA,NA,NA,NA,NA,NA,"","",1,1,"2024-08-25_17h06.09.608","IAT(Formal)","2021.2.3","Win32",60.0240096,"",NA,"i",1,0.719,0,17,17,20,1,"卑鄙","i","",NA,"",NA,NA,NA,NA,NA,NA,NA,"","","",NA,NA,NA,NA,NA,NA,"",NA,"",NA,NA,NA,NA,NA,NA,NA,"",NA,"",NA,NA,NA,NA,NA,NA,NA,"","","",NA,"",NA,NA,NA,NA,NA,NA,NA,"",NA,"30"
"",NA,"",NA,"",NA,NA,NA,NA,NA,NA,NA,"","",1,1,"2024-08-25_17h06.09.608","IAT(Formal)","2021.2.3","Win32",60.0240096,"",NA,"i",1,0.586,0,18,18,35,1,"猖狂","i","",NA,"",NA,NA,NA,NA,NA,NA,NA,"","","",NA,NA,NA,NA,NA,NA,"",NA,"",NA,NA,NA,NA,NA,NA,NA,"",NA,"",NA,NA,NA,NA,NA,NA,NA,"","","",NA,"",NA,NA,NA,NA,NA,NA,NA,"",NA,"30"
"",NA,"",NA,"",NA,NA,NA,NA,NA,NA,NA,"","",1,1,"2024-08-25_17h06.09.608","IAT(Formal)","2021.2.3","Win32",60.0240096,"",NA,"i",1,0.616,0,19,19,23,1,"刻薄","i","",NA,"",NA,NA,NA,NA,NA,NA,NA,"","","",NA,NA,NA,NA,NA,NA,"",NA,"",NA,NA,NA,NA,NA,NA,NA,"",NA,"",NA,NA,NA,NA,NA,NA,NA,"","","",NA,"",NA,NA,NA,NA,NA,NA,NA,"",NA,"30"
"",NA,"",NA,"",NA,NA,NA,NA,NA,NA,NA,"","",1,1,"2024-08-25_17h06.09.608","IAT(Formal)","2021.2.3","Win32",60.0240096,"",NA,"i",1,0.619,0,20,20,28,1,"鲁莽","i","",NA,"",NA,NA,NA,NA,NA,NA,NA,"","","",NA,NA,NA,NA,NA,NA,"",NA,"",NA,NA,NA,NA,NA,NA,NA,"",NA,"",NA,NA,NA,NA,NA,NA,NA,"","","",NA,"",NA,NA,NA,NA,NA,NA,NA,"",NA,"30"
"",NA,"",NA,"",NA,NA,NA,NA,NA,NA,NA,"","",1,1,"2024-08-25_17h06.09.608","IAT(Formal)","2021.2.3","Win32",60.0240096,"",NA,"e",1,0.616,0,21,21,2,1,"聪明","e","",NA,"",NA,NA,NA,NA,NA,NA,NA,"","","",NA,NA,NA,NA,NA,NA,"",NA,"",NA,NA,NA,NA,NA,NA,NA,"",NA,"",NA,NA,NA,NA,NA,NA,NA,"","","",NA,"",NA,NA,NA,NA,NA,NA,NA,"",NA,"30"
"",NA,"",NA,"",NA,NA,NA,NA,NA,NA,NA,"","",1,1,"2024-08-25_17h06.09.608","IAT(Formal)","2021.2.3","Win32",60.0240096,"",NA,"i",1,0.667,0,22,22,24,1,"悲观","i","",NA,"",NA,NA,NA,NA,NA,NA,NA,"","","",NA,NA,NA,NA,NA,NA,"",NA,"",NA,NA,NA,NA,NA,NA,NA,"",NA,"",NA,NA,NA,NA,NA,NA,NA,"","","",NA,"",NA,NA,NA,NA,NA,NA,NA,"",NA,"30"
"",NA,"",NA,"",NA,NA,NA,NA,NA,NA,NA,"","",1,1,"2024-08-25_17h06.09.608","IAT(Formal)","2021.2.3","Win32",60.0240096,"",NA,"e",1,0.832,0,23,23,17,1,"热情","e","",NA,"",NA,NA,NA,NA,NA,NA,NA,"","","",NA,NA,NA,NA,NA,NA,"",NA,"",NA,NA,NA,NA,NA,NA,NA,"",NA,"",NA,NA,NA,NA,NA,NA,NA,"","","",NA,"",NA,NA,NA,NA,NA,NA,NA,"",NA,"30"
"",NA,"",NA,"",NA,NA,NA,NA,NA,NA,NA,"","",1,1,"2024-08-25_17h06.09.608","IAT(Formal)","2021.2.3","Win32",60.0240096,"",NA,"i",0,1.018,0,24,24,12,1,"无私","e","",NA,"",NA,NA,NA,NA,NA,NA,NA,"","","",NA,NA,NA,NA,NA,NA,"",NA,"",NA,NA,NA,NA,NA,NA,NA,"",NA,"",NA,NA,NA,NA,NA,NA,NA,"","","",NA,"",NA,NA,NA,NA,NA,NA,NA,"",NA,"30"
"",NA,"",NA,"",NA,NA,NA,NA,NA,NA,NA,"","",1,1,"2024-08-25_17h06.09.608","IAT(Formal)","2021.2.3","Win32",60.0240096,"",NA,"e",1,0.704,0,25,25,15,1,"细腻","e","",NA,"",NA,NA,NA,NA,NA,NA,NA,"","","",NA,NA,NA,NA,NA,NA,"",NA,"",NA,NA,NA,NA,NA,NA,NA,"",NA,"",NA,NA,NA,NA,NA,NA,NA,"","","",NA,"",NA,NA,NA,NA,NA,NA,NA,"",NA,"30"
"",NA,"",NA,"",NA,NA,NA,NA,NA,NA,NA,"","",1,1,"2024-08-25_17h06.09.608","IAT(Formal)","2021.2.3","Win32",60.0240096,"",NA,"i",1,0.654,0,26,26,38,1,"轻率","i","",NA,"",NA,NA,NA,NA,NA,NA,NA,"","","",NA,NA,NA,NA,NA,NA,"",NA,"",NA,NA,NA,NA,NA,NA,NA,"",NA,"",NA,NA,NA,NA,NA,NA,NA,"","","",NA,"",NA,NA,NA,NA,NA,NA,NA,"",NA,"30"
"",NA,"",NA,"",NA,NA,NA,NA,NA,NA,NA,"","",1,1,"2024-08-25_17h06.09.608","IAT(Formal)","2021.2.3","Win32",60.0240096,"",NA,"i",1,0.581,0,27,27,27,1,"傲慢","i","",NA,"",NA,NA,NA,NA,NA,NA,NA,"","","",NA,NA,NA,NA,NA,NA,"",NA,"",NA,NA,NA,NA,NA,NA,NA,"",NA,"",NA,NA,NA,NA,NA,NA,NA,"","","",NA,"",NA,NA,NA,NA,NA,NA,NA,"",NA,"30"
"",NA,"",NA,"",NA,NA,NA,NA,NA,NA,NA,"","",1,1,"2024-08-25_17h06.09.608","IAT(Formal)","2021.2.3","Win32",60.0240096,"",NA,"e",1,0.63,0,28,28,5,1,"诚实","e","",NA,"",NA,NA,NA,NA,NA,NA,NA,"","","",NA,NA,NA,NA,NA,NA,"",NA,"",NA,NA,NA,NA,NA,NA,NA,"",NA,"",NA,NA,NA,NA,NA,NA,NA,"","","",NA,"",NA,NA,NA,NA,NA,NA,NA,"",NA,"30"
"",NA,"",NA,"",NA,NA,NA,NA,NA,NA,NA,"","",1,1,"2024-08-25_17h06.09.608","IAT(Formal)","2021.2.3","Win32",60.0240096,"",NA,"e",1,0.555,0,29,29,11,1,"稳重","e","",NA,"",NA,NA,NA,NA,NA,NA,NA,"","","",NA,NA,NA,NA,NA,NA,"",NA,"",NA,NA,NA,NA,NA,NA,NA,"",NA,"",NA,NA,NA,NA,NA,NA,NA,"","","",NA,"",NA,NA,NA,NA,NA,NA,NA,"",NA,"30"
"",NA,"",NA,"",NA,NA,NA,NA,NA,NA,NA,"","",1,1,"2024-08-25_17h06.09.608","IAT(Formal)","2021.2.3","Win32",60.0240096,"",NA,"i",1,0.753,0,30,30,31,1,"散漫","i","",NA,"",NA,NA,NA,NA,NA,NA,NA,"","","",NA,NA,NA,NA,NA,NA,"",NA,"",NA,NA,NA,NA,NA,NA,NA,"",NA,"",NA,NA,NA,NA,NA,NA,NA,"","","",NA,"",NA,NA,NA,NA,NA,NA,NA,"",NA,"30"
"",NA,"",NA,"",NA,NA,NA,NA,NA,NA,NA,"","",1,1,"2024-08-25_17h06.09.608","IAT(Formal)","2021.2.3","Win32",60.0240096,"",NA,"e",1,0.658,0,31,31,10,1,"认真","e","",NA,"",NA,NA,NA,NA,NA,NA,NA,"","","",NA,NA,NA,NA,NA,NA,"",NA,"",NA,NA,NA,NA,NA,NA,NA,"",NA,"",NA,NA,NA,NA,NA,NA,NA,"","","",NA,"",NA,NA,NA,NA,NA,NA,NA,"",NA,"30"
"",NA,"",NA,"",NA,NA,NA,NA,NA,NA,NA,"","",1,1,"2024-08-25_17h06.09.608","IAT(Formal)","2021.2.3","Win32",60.0240096,"",NA,"e",1,0.548,0,32,32,13,1,"公正","e","",NA,"",NA,NA,NA,NA,NA,NA,NA,"","","",NA,NA,NA,NA,NA,NA,"",NA,"",NA,NA,NA,NA,NA,NA,NA,"",NA,"",NA,NA,NA,NA,NA,NA,NA,"","","",NA,"",NA,NA,NA,NA,NA,NA,NA,"",NA,"30"
"",NA,"",NA,"",NA,NA,NA,NA,NA,NA,NA,"","",1,1,"2024-08-25_17h06.09.608","IAT(Formal)","2021.2.3","Win32",60.0240096,"",NA,"e",1,0.612,0,33,33,7,1,"勇敢","e","",NA,"",NA,NA,NA,NA,NA,NA,NA,"","","",NA,NA,NA,NA,NA,NA,"",NA,"",NA,NA,NA,NA,NA,NA,NA,"",NA,"",NA,NA,NA,NA,NA,NA,NA,"","","",NA,"",NA,NA,NA,NA,NA,NA,NA,"",NA,"30"
"",NA,"",NA,"",NA,NA,NA,NA,NA,NA,NA,"","",1,1,"2024-08-25_17h06.09.608","IAT(Formal)","2021.2.3","Win32",60.0240096,"",NA,"i",1,0.651,0,34,34,29,1,"冒失","i","",NA,"",NA,NA,NA,NA,NA,NA,NA,"","","",NA,NA,NA,NA,NA,NA,"",NA,"",NA,NA,NA,NA,NA,NA,NA,"",NA,"",NA,NA,NA,NA,NA,NA,NA,"","","",NA,"",NA,NA,NA,NA,NA,NA,NA,"",NA,"30"
"",NA,"",NA,"",NA,NA,NA,NA,NA,NA,NA,"","",1,1,"2024-08-25_17h06.09.608","IAT(Formal)","2021.2.3","Win32",60.0240096,"",NA,"e",1,0.627,0,35,35,18,1,"活泼","e","",NA,"",NA,NA,NA,NA,NA,NA,NA,"","","",NA,NA,NA,NA,NA,NA,"",NA,"",NA,NA,NA,NA,NA,NA,NA,"",NA,"",NA,NA,NA,NA,NA,NA,NA,"","","",NA,"",NA,NA,NA,NA,NA,NA,NA,"",NA,"30"
"",NA,"",NA,"",NA,NA,NA,NA,NA,NA,NA,"","",1,1,"2024-08-25_17h06.09.608","IAT(Formal)","2021.2.3","Win32",60.0240096,"",NA,"e",1,0.641,0,36,36,14,1,"朴实","e","",NA,"",NA,NA,NA,NA,NA,NA,NA,"","","",NA,NA,NA,NA,NA,NA,"",NA,"",NA,NA,NA,NA,NA,NA,NA,"",NA,"",NA,NA,NA,NA,NA,NA,NA,"","","",NA,"",NA,NA,NA,NA,NA,NA,NA,"",NA,"30"
"",NA,"",NA,"",NA,NA,NA,NA,NA,NA,NA,"","",1,1,"2024-08-25_17h06.09.608","IAT(Formal)","2021.2.3","Win32",60.0240096,"",NA,"e",1,0.649,0,37,37,19,1,"诚恳","e","",NA,"",NA,NA,NA,NA,NA,NA,NA,"","","",NA,NA,NA,NA,NA,NA,"",NA,"",NA,NA,NA,NA,NA,NA,NA,"",NA,"",NA,NA,NA,NA,NA,NA,NA,"","","",NA,"",NA,NA,NA,NA,NA,NA,NA,"",NA,"30"
"",NA,"",NA,"",NA,NA,NA,NA,NA,NA,NA,"","",1,1,"2024-08-25_17h06.09.608","IAT(Formal)","2021.2.3","Win32",60.0240096,"",NA,"i",1,0.586,0,38,38,32,1,"凶狠","i","",NA,"",NA,NA,NA,NA,NA,NA,NA,"","","",NA,NA,NA,NA,NA,NA,"",NA,"",NA,NA,NA,NA,NA,NA,NA,"",NA,"",NA,NA,NA,NA,NA,NA,NA,"","","",NA,"",NA,NA,NA,NA,NA,NA,NA,"",NA,"30"
"",NA,"",NA,"",NA,NA,NA,NA,NA,NA,NA,"","",1,1,"2024-08-25_17h06.09.608","IAT(Formal)","2021.2.3","Win32",60.0240096,"",NA,"i",1,0.819,0,39,39,30,1,"执拗","i","",NA,"",NA,NA,NA,NA,NA,NA,NA,"","","",NA,NA,NA,NA,NA,NA,"",NA,"",NA,NA,NA,NA,NA,NA,NA,"",NA,"",NA,NA,NA,NA,NA,NA,NA,"","","",NA,"",NA,NA,NA,NA,NA,NA,NA,"",NA,"30"
"",NA,"",NA,"",NA,NA,NA,NA,NA,NA,NA,"","",1,1,"2024-08-25_17h06.09.608","IAT(Formal)","2021.2.3","Win32",60.0240096,"",NA,"",NA,NA,NA,NA,NA,NA,NA,"","","space",7.433,"i",1,0.667,0,0,0,9,1,"其他","i","",NA,NA,NA,NA,NA,NA,"",NA,"",NA,NA,NA,NA,NA,NA,NA,"",NA,"",NA,NA,NA,NA,NA,NA,NA,"","","",NA,"",NA,NA,NA,NA,NA,NA,NA,"",NA,"30"
"",NA,"",NA,"",NA,NA,NA,NA,NA,NA,NA,"","",1,1,"2024-08-25_17h06.09.608","IAT(Formal)","2021.2.3","Win32",60.0240096,"",NA,"",NA,NA,NA,NA,NA,NA,NA,"","","",NA,"i",1,0.698,0,1,1,69,1,"其他","i","",NA,NA,NA,NA,NA,NA,"",NA,"",NA,NA,NA,NA,NA,NA,NA,"",NA,"",NA,NA,NA,NA,NA,NA,NA,"","","",NA,"",NA,NA,NA,NA,NA,NA,NA,"",NA,"30"
"",NA,"",NA,"",NA,NA,NA,NA,NA,NA,NA,"","",1,1,"2024-08-25_17h06.09.608","IAT(Formal)","2021.2.3","Win32",60.0240096,"",NA,"",NA,NA,NA,NA,NA,NA,NA,"","","",NA,"e",1,0.684,0,2,2,12,1,"聪明","e","",NA,NA,NA,NA,NA,NA,"",NA,"",NA,NA,NA,NA,NA,NA,NA,"",NA,"",NA,NA,NA,NA,NA,NA,NA,"","","",NA,"",NA,NA,NA,NA,NA,NA,NA,"",NA,"30"
"",NA,"",NA,"",NA,NA,NA,NA,NA,NA,NA,"","",1,1,"2024-08-25_17h06.09.608","IAT(Formal)","2021.2.3","Win32",60.0240096,"",NA,"",NA,NA,NA,NA,NA,NA,NA,"","","",NA,"e",1,0.668,0,3,3,21,1,"稳重","e","",NA,NA,NA,NA,NA,NA,"",NA,"",NA,NA,NA,NA,NA,NA,NA,"",NA,"",NA,NA,NA,NA,NA,NA,NA,"","","",NA,"",NA,NA,NA,NA,NA,NA,NA,"",NA,"30"
"",NA,"",NA,"",NA,NA,NA,NA,NA,NA,NA,"","",1,1,"2024-08-25_17h06.09.608","IAT(Formal)","2021.2.3","Win32",60.0240096,"",NA,"",NA,NA,NA,NA,NA,NA,NA,"","","",NA,"i",1,0.653,0,4,4,43,1,"自私","i","",NA,NA,NA,NA,NA,NA,"",NA,"",NA,NA,NA,NA,NA,NA,NA,"",NA,"",NA,NA,NA,NA,NA,NA,NA,"","","",NA,"",NA,NA,NA,NA,NA,NA,NA,"",NA,"30"
"",NA,"",NA,"",NA,NA,NA,NA,NA,NA,NA,"","",1,1,"2024-08-25_17h06.09.608","IAT(Formal)","2021.2.3","Win32",60.0240096,"",NA,"",NA,NA,NA,NA,NA,NA,NA,"","","",NA,"e",1,0.656,0,5,5,27,1,"热情","e","",NA,NA,NA,NA,NA,NA,"",NA,"",NA,NA,NA,NA,NA,NA,NA,"",NA,"",NA,NA,NA,NA,NA,NA,NA,"","","",NA,"",NA,NA,NA,NA,NA,NA,NA,"",NA,"30"
"",NA,"",NA,"",NA,NA,NA,NA,NA,NA,NA,"","",1,1,"2024-08-25_17h06.09.608","IAT(Formal)","2021.2.3","Win32",60.0240096,"",NA,"",NA,NA,NA,NA,NA,NA,NA,"","","",NA,"e",1,0.561,0,6,6,29,1,"诚恳","e","",NA,NA,NA,NA,NA,NA,"",NA,"",NA,NA,NA,NA,NA,NA,NA,"",NA,"",NA,NA,NA,NA,NA,NA,NA,"","","",NA,"",NA,NA,NA,NA,NA,NA,NA,"",NA,"30"
"",NA,"",NA,"",NA,NA,NA,NA,NA,NA,NA,"","",1,1,"2024-08-25_17h06.09.608","IAT(Formal)","2021.2.3","Win32",60.0240096,"",NA,"",NA,NA,NA,NA,NA,NA,NA,"","","",NA,"e",1,0.514,0,7,7,18,1,"勤奋","e","",NA,NA,NA,NA,NA,NA,"",NA,"",NA,NA,NA,NA,NA,NA,NA,"",NA,"",NA,NA,NA,NA,NA,NA,NA,"","","",NA,"",NA,NA,NA,NA,NA,NA,NA,"",NA,"30"
"",NA,"",NA,"",NA,NA,NA,NA,NA,NA,NA,"","",1,1,"2024-08-25_17h06.09.608","IAT(Formal)","2021.2.3","Win32",60.0240096,"",NA,"",NA,NA,NA,NA,NA,NA,NA,"","","",NA,"e",1,0.776,0,8,8,54,1,"俺","e","",NA,NA,NA,NA,NA,NA,"",NA,"",NA,NA,NA,NA,NA,NA,NA,"",NA,"",NA,NA,NA,NA,NA,NA,NA,"","","",NA,"",NA,NA,NA,NA,NA,NA,NA,"",NA,"30"
"",NA,"",NA,"",NA,NA,NA,NA,NA,NA,NA,"","",1,1,"2024-08-25_17h06.09.608","IAT(Formal)","2021.2.3","Win32",60.0240096,"",NA,"",NA,NA,NA,NA,NA,NA,NA,"","","",NA,"e",1,0.482,0,9,9,60,1,"我","e","",NA,NA,NA,NA,NA,NA,"",NA,"",NA,NA,NA,NA,NA,NA,NA,"",NA,"",NA,NA,NA,NA,NA,NA,NA,"","","",NA,"",NA,NA,NA,NA,NA,NA,NA,"",NA,"30"
"",NA,"",NA,"",NA,NA,NA,NA,NA,NA,NA,"","",1,1,"2024-08-25_17h06.09.608","IAT(Formal)","2021.2.3","Win32",60.0240096,"",NA,"",NA,NA,NA,NA,NA,NA,NA,"","","",NA,"i",1,0.753,0,10,10,5,1,"他","i","",NA,NA,NA,NA,NA,NA,"",NA,"",NA,NA,NA,NA,NA,NA,NA,"",NA,"",NA,NA,NA,NA,NA,NA,NA,"","","",NA,"",NA,NA,NA,NA,NA,NA,NA,"",NA,"30"
"",NA,"",NA,"",NA,NA,NA,NA,NA,NA,NA,"","",1,1,"2024-08-25_17h06.09.608","IAT(Formal)","2021.2.3","Win32",60.0240096,"",NA,"",NA,NA,NA,NA,NA,NA,NA,"","","",NA,"i",1,0.515,0,11,11,67,1,"他的","i","",NA,NA,NA,NA,NA,NA,"",NA,"",NA,NA,NA,NA,NA,NA,NA,"",NA,"",NA,NA,NA,NA,NA,NA,NA,"","","",NA,"",NA,NA,NA,NA,NA,NA,NA,"",NA,"30"
"",NA,"",NA,"",NA,NA,NA,NA,NA,NA,NA,"","",1,1,"2024-08-25_17h06.09.608","IAT(Formal)","2021.2.3","Win32",60.0240096,"",NA,"",NA,NA,NA,NA,NA,NA,NA,"","","",NA,"e",1,0.554,0,12,12,52,1,"我们","e","",NA,NA,NA,NA,NA,NA,"",NA,"",NA,NA,NA,NA,NA,NA,NA,"",NA,"",NA,NA,NA,NA,NA,NA,NA,"","","",NA,"",NA,NA,NA,NA,NA,NA,NA,"",NA,"30"
"",NA,"",NA,"",NA,NA,NA,NA,NA,NA,NA,"","",1,1,"2024-08-25_17h06.09.608","IAT(Formal)","2021.2.3","Win32",60.0240096,"",NA,"",NA,NA,NA,NA,NA,NA,NA,"","","",NA,"i",1,0.599,0,13,13,8,1,"他人","i","",NA,NA,NA,NA,NA,NA,"",NA,"",NA,NA,NA,NA,NA,NA,NA,"",NA,"",NA,NA,NA,NA,NA,NA,NA,"","","",NA,"",NA,NA,NA,NA,NA,NA,NA,"",NA,"30"
"",NA,"",NA,"",NA,NA,NA,NA,NA,NA,NA,"","",1,1,"2024-08-25_17h06.09.608","IAT(Formal)","2021.2.3","Win32",60.0240096,"",NA,"",NA,NA,NA,NA,NA,NA,NA,"","","",NA,"i",1,0.548,0,14,14,7,1,"他的","i","",NA,NA,NA,NA,NA,NA,"",NA,"",NA,NA,NA,NA,NA,NA,NA,"",NA,"",NA,NA,NA,NA,NA,NA,NA,"","","",NA,"",NA,NA,NA,NA,NA,NA,NA,"",NA,"30"
"",NA,"",NA,"",NA,NA,NA,NA,NA,NA,NA,"","",1,1,"2024-08-25_17h06.09.608","IAT(Formal)","2021.2.3","Win32",60.0240096,"",NA,"",NA,NA,NA,NA,NA,NA,NA,"","","",NA,"e",1,0.482,0,15,15,70,1,"我","e","",NA,NA,NA,NA,NA,NA,"",NA,"",NA,NA,NA,NA,NA,NA,NA,"",NA,"",NA,NA,NA,NA,NA,NA,NA,"","","",NA,"",NA,NA,NA,NA,NA,NA,NA,"",NA,"30"
"",NA,"",NA,"",NA,NA,NA,NA,NA,NA,NA,"","",1,1,"2024-08-25_17h06.09.608","IAT(Formal)","2021.2.3","Win32",60.0240096,"",NA,"",NA,NA,NA,NA,NA,NA,NA,"","","",NA,"i",1,0.784,0,16,16,38,1,"鲁莽","i","",NA,NA,NA,NA,NA,NA,"",NA,"",NA,NA,NA,NA,NA,NA,NA,"",NA,"",NA,NA,NA,NA,NA,NA,NA,"","","",NA,"",NA,NA,NA,NA,NA,NA,NA,"",NA,"30"
"",NA,"",NA,"",NA,NA,NA,NA,NA,NA,NA,"","",1,1,"2024-08-25_17h06.09.608","IAT(Formal)","2021.2.3","Win32",60.0240096,"",NA,"",NA,NA,NA,NA,NA,NA,NA,"","","",NA,"e",1,0.786,0,17,17,0,1,"我","e","",NA,NA,NA,NA,NA,NA,"",NA,"",NA,NA,NA,NA,NA,NA,NA,"",NA,"",NA,NA,NA,NA,NA,NA,NA,"","","",NA,"",NA,NA,NA,NA,NA,NA,NA,"",NA,"30"
"",NA,"",NA,"",NA,NA,NA,NA,NA,NA,NA,"","",1,1,"2024-08-25_17h06.09.608","IAT(Formal)","2021.2.3","Win32",60.0240096,"",NA,"",NA,NA,NA,NA,NA,NA,NA,"","","",NA,"i",1,0.694,0,18,18,32,1,"愚蠢","i","",NA,NA,NA,NA,NA,NA,"",NA,"",NA,NA,NA,NA,NA,NA,NA,"",NA,"",NA,NA,NA,NA,NA,NA,NA,"","","",NA,"",NA,NA,NA,NA,NA,NA,NA,"",NA,"30"
"",NA,"",NA,"",NA,NA,NA,NA,NA,NA,NA,"","",1,1,"2024-08-25_17h06.09.608","IAT(Formal)","2021.2.3","Win32",60.0240096,"",NA,"",NA,NA,NA,NA,NA,NA,NA,"","","",NA,"i",1,0.675,0,19,19,42,1,"凶狠","i","",NA,NA,NA,NA,NA,NA,"",NA,"",NA,NA,NA,NA,NA,NA,NA,"",NA,"",NA,NA,NA,NA,NA,NA,NA,"","","",NA,"",NA,NA,NA,NA,NA,NA,NA,"",NA,"30"
"",NA,"",NA,"",NA,NA,NA,NA,NA,NA,NA,"","",1,1,"2024-08-25_17h06.09.608","IAT(Formal)","2021.2.3","Win32",60.0240096,"",NA,"",NA,NA,NA,NA,NA,NA,NA,"","","",NA,"i",1,0.604,0,20,20,31,1,"虚伪","i","",NA,NA,NA,NA,NA,NA,"",NA,"",NA,NA,NA,NA,NA,NA,NA,"",NA,"",NA,NA,NA,NA,NA,NA,NA,"","","",NA,"",NA,NA,NA,NA,NA,NA,NA,"",NA,"30"
"",NA,"",NA,"",NA,NA,NA,NA,NA,NA,NA,"","",1,1,"2024-08-25_17h06.09.608","IAT(Formal)","2021.2.3","Win32",60.0240096,"",NA,"",NA,NA,NA,NA,NA,NA,NA,"","","",NA,"i",1,0.633,0,21,21,59,1,"其他","i","",NA,NA,NA,NA,NA,NA,"",NA,"",NA,NA,NA,NA,NA,NA,NA,"",NA,"",NA,NA,NA,NA,NA,NA,NA,"","","",NA,"",NA,NA,NA,NA,NA,NA,NA,"",NA,"30"
"",NA,"",NA,"",NA,NA,NA,NA,NA,NA,NA,"","",1,1,"2024-08-25_17h06.09.608","IAT(Formal)","2021.2.3","Win32",60.0240096,"",NA,"",NA,NA,NA,NA,NA,NA,NA,"","","",NA,"e",1,0.569,0,22,22,74,1,"俺","e","",NA,NA,NA,NA,NA,NA,"",NA,"",NA,NA,NA,NA,NA,NA,NA,"",NA,"",NA,NA,NA,NA,NA,NA,NA,"","","",NA,"",NA,NA,NA,NA,NA,NA,NA,"",NA,"30"
"",NA,"",NA,"",NA,NA,NA,NA,NA,NA,NA,"","",1,1,"2024-08-25_17h06.09.608","IAT(Formal)","2021.2.3","Win32",60.0240096,"",NA,"",NA,NA,NA,NA,NA,NA,NA,"","","",NA,"i",1,0.888,0,23,23,44,1,"暴躁","i","",NA,NA,NA,NA,NA,NA,"",NA,"",NA,NA,NA,NA,NA,NA,NA,"",NA,"",NA,NA,NA,NA,NA,NA,NA,"","","",NA,"",NA,NA,NA,NA,NA,NA,NA,"",NA,"30"
"",NA,"",NA,"",NA,NA,NA,NA,NA,NA,NA,"","",1,1,"2024-08-25_17h06.09.608","IAT(Formal)","2021.2.3","Win32",60.0240096,"",NA,"",NA,NA,NA,NA,NA,NA,NA,"","","",NA,"e",1,0.635,0,24,24,4,1,"俺","e","",NA,NA,NA,NA,NA,NA,"",NA,"",NA,NA,NA,NA,NA,NA,NA,"",NA,"",NA,NA,NA,NA,NA,NA,NA,"","","",NA,"",NA,NA,NA,NA,NA,NA,NA,"",NA,"30"
"",NA,"",NA,"",NA,NA,NA,NA,NA,NA,NA,"","",1,1,"2024-08-25_17h06.09.608","IAT(Formal)","2021.2.3","Win32",60.0240096,"",NA,"",NA,NA,NA,NA,NA,NA,NA,"","","",NA,"i",1,0.595,0,25,25,65,1,"他","i","",NA,NA,NA,NA,NA,NA,"",NA,"",NA,NA,NA,NA,NA,NA,NA,"",NA,"",NA,NA,NA,NA,NA,NA,NA,"","","",NA,"",NA,NA,NA,NA,NA,NA,NA,"",NA,"30"
"",NA,"",NA,"",NA,NA,NA,NA,NA,NA,NA,"","",1,1,"2024-08-25_17h06.09.608","IAT(Formal)","2021.2.3","Win32",60.0240096,"",NA,"",NA,NA,NA,NA,NA,NA,NA,"","","",NA,"i",1,0.582,0,26,26,56,1,"他们","i","",NA,NA,NA,NA,NA,NA,"",NA,"",NA,NA,NA,NA,NA,NA,NA,"",NA,"",NA,NA,NA,NA,NA,NA,NA,"","","",NA,"",NA,NA,NA,NA,NA,NA,NA,"",NA,"30"
"",NA,"",NA,"",NA,NA,NA,NA,NA,NA,NA,"","",1,1,"2024-08-25_17h06.09.608","IAT(Formal)","2021.2.3","Win32",60.0240096,"",NA,"",NA,NA,NA,NA,NA,NA,NA,"","","",NA,"i",1,0.677,0,27,27,34,1,"悲观","i","",NA,NA,NA,NA,NA,NA,"",NA,"",NA,NA,NA,NA,NA,NA,NA,"",NA,"",NA,NA,NA,NA,NA,NA,NA,"","","",NA,"",NA,NA,NA,NA,NA,NA,NA,"",NA,"30"
"",NA,"",NA,"",NA,NA,NA,NA,NA,NA,NA,"","",1,1,"2024-08-25_17h06.09.608","IAT(Formal)","2021.2.3","Win32",60.0240096,"",NA,"",NA,NA,NA,NA,NA,NA,NA,"","","",NA,"e",1,0.72,0,28,28,19,1,"机智","e","",NA,NA,NA,NA,NA,NA,"",NA,"",NA,NA,NA,NA,NA,NA,NA,"",NA,"",NA,NA,NA,NA,NA,NA,NA,"","","",NA,"",NA,NA,NA,NA,NA,NA,NA,"",NA,"30"
"",NA,"",NA,"",NA,NA,NA,NA,NA,NA,NA,"","",1,1,"2024-08-25_17h06.09.608","IAT(Formal)","2021.2.3","Win32",60.0240096,"",NA,"",NA,NA,NA,NA,NA,NA,NA,"","","",NA,"i",1,0.692,0,29,29,30,1,"卑鄙","i","",NA,NA,NA,NA,NA,NA,"",NA,"",NA,NA,NA,NA,NA,NA,NA,"",NA,"",NA,NA,NA,NA,NA,NA,NA,"","","",NA,"",NA,NA,NA,NA,NA,NA,NA,"",NA,"30"
"",NA,"",NA,"",NA,NA,NA,NA,NA,NA,NA,"","",1,1,"2024-08-25_17h06.09.608","IAT(Formal)","2021.2.3","Win32",60.0240096,"",NA,"",NA,NA,NA,NA,NA,NA,NA,"","","",NA,"i",1,0.723,0,30,30,57,1,"他的","i","",NA,NA,NA,NA,NA,NA,"",NA,"",NA,NA,NA,NA,NA,NA,NA,"",NA,"",NA,NA,NA,NA,NA,NA,NA,"","","",NA,"",NA,NA,NA,NA,NA,NA,NA,"",NA,"30"
"",NA,"",NA,"",NA,NA,NA,NA,NA,NA,NA,"","",1,1,"2024-08-25_17h06.09.608","IAT(Formal)","2021.2.3","Win32",60.0240096,"",NA,"",NA,NA,NA,NA,NA,NA,NA,"","","",NA,"i",1,0.849,0,31,31,76,1,"他们","i","",NA,NA,NA,NA,NA,NA,"",NA,"",NA,NA,NA,NA,NA,NA,NA,"",NA,"",NA,NA,NA,NA,NA,NA,NA,"","","",NA,"",NA,NA,NA,NA,NA,NA,NA,"",NA,"30"
"",NA,"",NA,"",NA,NA,NA,NA,NA,NA,NA,"","",1,1,"2024-08-25_17h06.09.608","IAT(Formal)","2021.2.3","Win32",60.0240096,"",NA,"",NA,NA,NA,NA,NA,NA,NA,"","","",NA,"e",1,0.52,0,32,32,72,1,"我们","e","",NA,NA,NA,NA,NA,NA,"",NA,"",NA,NA,NA,NA,NA,NA,NA,"",NA,"",NA,NA,NA,NA,NA,NA,NA,"","","",NA,"",NA,NA,NA,NA,NA,NA,NA,"",NA,"30"
"",NA,"",NA,"",NA,NA,NA,NA,NA,NA,NA,"","",1,1,"2024-08-25_17h06.09.608","IAT(Formal)","2021.2.3","Win32",60.0240096,"",NA,"",NA,NA,NA,NA,NA,NA,NA,"","","",NA,"i",1,0.703,0,33,33,37,1,"傲慢","i","",NA,NA,NA,NA,NA,NA,"",NA,"",NA,NA,NA,NA,NA,NA,NA,"",NA,"",NA,NA,NA,NA,NA,NA,NA,"","","",NA,"",NA,NA,NA,NA,NA,NA,NA,"",NA,"30"
"",NA,"",NA,"",NA,NA,NA,NA,NA,NA,NA,"","",1,1,"2024-08-25_17h06.09.608","IAT(Formal)","2021.2.3","Win32",60.0240096,"",NA,"",NA,NA,NA,NA,NA,NA,NA,"","","",NA,"i",1,0.816,0,34,34,79,1,"其他","i","",NA,NA,NA,NA,NA,NA,"",NA,"",NA,NA,NA,NA,NA,NA,NA,"",NA,"",NA,NA,NA,NA,NA,NA,NA,"","","",NA,"",NA,NA,NA,NA,NA,NA,NA,"",NA,"30"
"",NA,"",NA,"",NA,NA,NA,NA,NA,NA,NA,"","",1,1,"2024-08-25_17h06.09.608","IAT(Formal)","2021.2.3","Win32",60.0240096,"",NA,"",NA,NA,NA,NA,NA,NA,NA,"","","",NA,"e",1,0.777,0,35,35,71,1,"我的","e","",NA,NA,NA,NA,NA,NA,"",NA,"",NA,NA,NA,NA,NA,NA,NA,"",NA,"",NA,NA,NA,NA,NA,NA,NA,"","","",NA,"",NA,NA,NA,NA,NA,NA,NA,"",NA,"30"
"",NA,"",NA,"",NA,NA,NA,NA,NA,NA,NA,"","",1,1,"2024-08-25_17h06.09.608","IAT(Formal)","2021.2.3","Win32",60.0240096,"",NA,"",NA,NA,NA,NA,NA,NA,NA,"","","",NA,"e",1,1.115,0,36,36,73,1,"自己","e","",NA,NA,NA,NA,NA,NA,"",NA,"",NA,NA,NA,NA,NA,NA,NA,"",NA,"",NA,NA,NA,NA,NA,NA,NA,"","","",NA,"",NA,NA,NA,NA,NA,NA,NA,"",NA,"30"
"",NA,"",NA,"",NA,NA,NA,NA,NA,NA,NA,"","",1,1,"2024-08-25_17h06.09.608","IAT(Formal)","2021.2.3","Win32",60.0240096,"",NA,"",NA,NA,NA,NA,NA,NA,NA,"","","",NA,"e",1,0.579,0,37,37,15,1,"诚实","e","",NA,NA,NA,NA,NA,NA,"",NA,"",NA,NA,NA,NA,NA,NA,NA,"",NA,"",NA,NA,NA,NA,NA,NA,NA,"","","",NA,"",NA,NA,NA,NA,NA,NA,NA,"",NA,"30"
"",NA,"",NA,"",NA,NA,NA,NA,NA,NA,NA,"","",1,1,"2024-08-25_17h06.09.608","IAT(Formal)","2021.2.3","Win32",60.0240096,"",NA,"",NA,NA,NA,NA,NA,NA,NA,"","","",NA,"i",1,0.618,0,38,38,36,1,"自卑","i","",NA,NA,NA,NA,NA,NA,"",NA,"",NA,NA,NA,NA,NA,NA,NA,"",NA,"",NA,NA,NA,NA,NA,NA,NA,"","","",NA,"",NA,NA,NA,NA,NA,NA,NA,"",NA,"30"
"",NA,"",NA,"",NA,NA,NA,NA,NA,NA,NA,"","",1,1,"2024-08-25_17h06.09.608","IAT(Formal)","2021.2.3","Win32",60.0240096,"",NA,"",NA,NA,NA,NA,NA,NA,NA,"","","",NA,"e",1,0.95,0,39,39,24,1,"朴实","e","",NA,NA,NA,NA,NA,NA,"",NA,"",NA,NA,NA,NA,NA,NA,NA,"",NA,"",NA,NA,NA,NA,NA,NA,NA,"","","",NA,"",NA,NA,NA,NA,NA,NA,NA,"",NA,"30"
"",NA,"",NA,"",NA,NA,NA,NA,NA,NA,NA,"","",1,1,"2024-08-25_17h06.09.608","IAT(Formal)","2021.2.3","Win32",60.0240096,"",NA,"",NA,NA,NA,NA,NA,NA,NA,"","","",NA,"e",1,0.549,0,40,40,51,1,"我的","e","",NA,NA,NA,NA,NA,NA,"",NA,"",NA,NA,NA,NA,NA,NA,NA,"",NA,"",NA,NA,NA,NA,NA,NA,NA,"","","",NA,"",NA,NA,NA,NA,NA,NA,NA,"",NA,"30"
"",NA,"",NA,"",NA,NA,NA,NA,NA,NA,NA,"","",1,1,"2024-08-25_17h06.09.608","IAT(Formal)","2021.2.3","Win32",60.0240096,"",NA,"",NA,NA,NA,NA,NA,NA,NA,"","","",NA,"i",1,0.601,0,41,41,58,1,"他人","i","",NA,NA,NA,NA,NA,NA,"",NA,"",NA,NA,NA,NA,NA,NA,NA,"",NA,"",NA,NA,NA,NA,NA,NA,NA,"","","",NA,"",NA,NA,NA,NA,NA,NA,NA,"",NA,"30"
"",NA,"",NA,"",NA,NA,NA,NA,NA,NA,NA,"","",1,1,"2024-08-25_17h06.09.608","IAT(Formal)","2021.2.3","Win32",60.0240096,"",NA,"",NA,NA,NA,NA,NA,NA,NA,"","","",NA,"e",1,0.703,0,42,42,61,1,"我的","e","",NA,NA,NA,NA,NA,NA,"",NA,"",NA,NA,NA,NA,NA,NA,NA,"",NA,"",NA,NA,NA,NA,NA,NA,NA,"","","",NA,"",NA,NA,NA,NA,NA,NA,NA,"",NA,"30"
"",NA,"",NA,"",NA,NA,NA,NA,NA,NA,NA,"","",1,1,"2024-08-25_17h06.09.608","IAT(Formal)","2021.2.3","Win32",60.0240096,"",NA,"",NA,NA,NA,NA,NA,NA,NA,"","","",NA,"e",1,0.633,0,43,43,11,1,"崇高","e","",NA,NA,NA,NA,NA,NA,"",NA,"",NA,NA,NA,NA,NA,NA,NA,"",NA,"",NA,NA,NA,NA,NA,NA,NA,"","","",NA,"",NA,NA,NA,NA,NA,NA,NA,"",NA,"30"
"",NA,"",NA,"",NA,NA,NA,NA,NA,NA,NA,"","",1,1,"2024-08-25_17h06.09.608","IAT(Formal)","2021.2.3","Win32",60.0240096,"",NA,"",NA,NA,NA,NA,NA,NA,NA,"","","",NA,"i",1,0.718,0,44,44,39,1,"冒失","i","",NA,NA,NA,NA,NA,NA,"",NA,"",NA,NA,NA,NA,NA,NA,NA,"",NA,"",NA,NA,NA,NA,NA,NA,NA,"","","",NA,"",NA,NA,NA,NA,NA,NA,NA,"",NA,"30"
"",NA,"",NA,"",NA,NA,NA,NA,NA,NA,NA,"","",1,1,"2024-08-25_17h06.09.608","IAT(Formal)","2021.2.3","Win32",60.0240096,"",NA,"",NA,NA,NA,NA,NA,NA,NA,"","","",NA,"i",1,0.764,0,45,45,6,1,"他们","i","",NA,NA,NA,NA,NA,NA,"",NA,"",NA,NA,NA,NA,NA,NA,NA,"",NA,"",NA,NA,NA,NA,NA,NA,NA,"","","",NA,"",NA,NA,NA,NA,NA,NA,NA,"",NA,"30"
"",NA,"",NA,"",NA,NA,NA,NA,NA,NA,NA,"","",1,1,"2024-08-25_17h06.09.608","IAT(Formal)","2021.2.3","Win32",60.0240096,"",NA,"",NA,NA,NA,NA,NA,NA,NA,"","","",NA,"e",1,0.584,0,46,46,13,1,"杰出","e","",NA,NA,NA,NA,NA,NA,"",NA,"",NA,NA,NA,NA,NA,NA,NA,"",NA,"",NA,NA,NA,NA,NA,NA,NA,"","","",NA,"",NA,NA,NA,NA,NA,NA,NA,"",NA,"30"
"",NA,"",NA,"",NA,NA,NA,NA,NA,NA,NA,"","",1,1,"2024-08-25_17h06.09.608","IAT(Formal)","2021.2.3","Win32",60.0240096,"",NA,"",NA,NA,NA,NA,NA,NA,NA,"","","",NA,"e",1,0.557,0,47,47,23,1,"公正","e","",NA,NA,NA,NA,NA,NA,"",NA,"",NA,NA,NA,NA,NA,NA,NA,"",NA,"",NA,NA,NA,NA,NA,NA,NA,"","","",NA,"",NA,NA,NA,NA,NA,NA,NA,"",NA,"30"
"",NA,"",NA,"",NA,NA,NA,NA,NA,NA,NA,"","",1,1,"2024-08-25_17h06.09.608","IAT(Formal)","2021.2.3","Win32",60.0240096,"",NA,"",NA,NA,NA,NA,NA,NA,NA,"","","",NA,"e",1,0.584,0,48,48,62,1,"我们","e","",NA,NA,NA,NA,NA,NA,"",NA,"",NA,NA,NA,NA,NA,NA,NA,"",NA,"",NA,NA,NA,NA,NA,NA,NA,"","","",NA,"",NA,NA,NA,NA,NA,NA,NA,"",NA,"30"
"",NA,"",NA,"",NA,NA,NA,NA,NA,NA,NA,"","",1,1,"2024-08-25_17h06.09.608","IAT(Formal)","2021.2.3","Win32",60.0240096,"",NA,"",NA,NA,NA,NA,NA,NA,NA,"","","",NA,"i",1,0.52,0,49,49,35,1,"消极","i","",NA,NA,NA,NA,NA,NA,"",NA,"",NA,NA,NA,NA,NA,NA,NA,"",NA,"",NA,NA,NA,NA,NA,NA,NA,"","","",NA,"",NA,NA,NA,NA,NA,NA,NA,"",NA,"30"
"",NA,"",NA,"",NA,NA,NA,NA,NA,NA,NA,"","",1,1,"2024-08-25_17h06.09.608","IAT(Formal)","2021.2.3","Win32",60.0240096,"",NA,"",NA,NA,NA,NA,NA,NA,NA,"","","",NA,"i",1,0.595,0,50,50,75,1,"他","i","",NA,NA,NA,NA,NA,NA,"",NA,"",NA,NA,NA,NA,NA,NA,NA,"",NA,"",NA,NA,NA,NA,NA,NA,NA,"","","",NA,"",NA,NA,NA,NA,NA,NA,NA,"",NA,"30"
"",NA,"",NA,"",NA,NA,NA,NA,NA,NA,NA,"","",1,1,"2024-08-25_17h06.09.608","IAT(Formal)","2021.2.3","Win32",60.0240096,"",NA,"",NA,NA,NA,NA,NA,NA,NA,"","","",NA,"i",1,0.649,0,51,51,78,1,"他人","i","",NA,NA,NA,NA,NA,NA,"",NA,"",NA,NA,NA,NA,NA,NA,NA,"",NA,"",NA,NA,NA,NA,NA,NA,NA,"","","",NA,"",NA,NA,NA,NA,NA,NA,NA,"",NA,"30"
"",NA,"",NA,"",NA,NA,NA,NA,NA,NA,NA,"","",1,1,"2024-08-25_17h06.09.608","IAT(Formal)","2021.2.3","Win32",60.0240096,"",NA,"",NA,NA,NA,NA,NA,NA,NA,"","","",NA,"e",1,0.516,0,52,52,50,1,"我","e","",NA,NA,NA,NA,NA,NA,"",NA,"",NA,NA,NA,NA,NA,NA,NA,"",NA,"",NA,NA,NA,NA,NA,NA,NA,"","","",NA,"",NA,NA,NA,NA,NA,NA,NA,"",NA,"30"
"",NA,"",NA,"",NA,NA,NA,NA,NA,NA,NA,"","",1,1,"2024-08-25_17h06.09.608","IAT(Formal)","2021.2.3","Win32",60.0240096,"",NA,"",NA,NA,NA,NA,NA,NA,NA,"","","",NA,"e",1,0.649,0,53,53,16,1,"正直","e","",NA,NA,NA,NA,NA,NA,"",NA,"",NA,NA,NA,NA,NA,NA,NA,"",NA,"",NA,NA,NA,NA,NA,NA,NA,"","","",NA,"",NA,NA,NA,NA,NA,NA,NA,"",NA,"30"
"",NA,"",NA,"",NA,NA,NA,NA,NA,NA,NA,"","",1,1,"2024-08-25_17h06.09.608","IAT(Formal)","2021.2.3","Win32",60.0240096,"",NA,"",NA,NA,NA,NA,NA,NA,NA,"","","",NA,"e",1,0.819,0,54,54,26,1,"冷静","e","",NA,NA,NA,NA,NA,NA,"",NA,"",NA,NA,NA,NA,NA,NA,NA,"",NA,"",NA,NA,NA,NA,NA,NA,NA,"","","",NA,"",NA,NA,NA,NA,NA,NA,NA,"",NA,"30"
"",NA,"",NA,"",NA,NA,NA,NA,NA,NA,NA,"","",1,1,"2024-08-25_17h06.09.608","IAT(Formal)","2021.2.3","Win32",60.0240096,"",NA,"",NA,NA,NA,NA,NA,NA,NA,"","","",NA,"i",1,0.532,0,55,55,49,1,"下贱","i","",NA,NA,NA,NA,NA,NA,"",NA,"",NA,NA,NA,NA,NA,NA,NA,"",NA,"",NA,NA,NA,NA,NA,NA,NA,"","","",NA,"",NA,NA,NA,NA,NA,NA,NA,"",NA,"30"
"",NA,"",NA,"",NA,NA,NA,NA,NA,NA,NA,"","",1,1,"2024-08-25_17h06.09.608","IAT(Formal)","2021.2.3","Win32",60.0240096,"",NA,"",NA,NA,NA,NA,NA,NA,NA,"","","",NA,"e",1,0.701,0,56,56,53,1,"自己","e","",NA,NA,NA,NA,NA,NA,"",NA,"",NA,NA,NA,NA,NA,NA,NA,"",NA,"",NA,NA,NA,NA,NA,NA,NA,"","","",NA,"",NA,NA,NA,NA,NA,NA,NA,"",NA,"30"
"",NA,"",NA,"",NA,NA,NA,NA,NA,NA,NA,"","",1,1,"2024-08-25_17h06.09.608","IAT(Formal)","2021.2.3","Win32",60.0240096,"",NA,"",NA,NA,NA,NA,NA,NA,NA,"","","",NA,"e",1,0.615,0,57,57,10,1,"优秀","e","",NA,NA,NA,NA,NA,NA,"",NA,"",NA,NA,NA,NA,NA,NA,NA,"",NA,"",NA,NA,NA,NA,NA,NA,NA,"","","",NA,"",NA,NA,NA,NA,NA,NA,NA,"",NA,"30"
"",NA,"",NA,"",NA,NA,NA,NA,NA,NA,NA,"","",1,1,"2024-08-25_17h06.09.608","IAT(Formal)","2021.2.3","Win32",60.0240096,"",NA,"",NA,NA,NA,NA,NA,NA,NA,"","","",NA,"i",1,0.748,0,58,58,77,1,"他的","i","",NA,NA,NA,NA,NA,NA,"",NA,"",NA,NA,NA,NA,NA,NA,NA,"",NA,"",NA,NA,NA,NA,NA,NA,NA,"","","",NA,"",NA,NA,NA,NA,NA,NA,NA,"",NA,"30"
"",NA,"",NA,"",NA,NA,NA,NA,NA,NA,NA,"","",1,1,"2024-08-25_17h06.09.608","IAT(Formal)","2021.2.3","Win32",60.0240096,"",NA,"",NA,NA,NA,NA,NA,NA,NA,"","","",NA,"e",1,0.574,0,59,59,64,1,"俺","e","",NA,NA,NA,NA,NA,NA,"",NA,"",NA,NA,NA,NA,NA,NA,NA,"",NA,"",NA,NA,NA,NA,NA,NA,NA,"","","",NA,"",NA,NA,NA,NA,NA,NA,NA,"",NA,"30"
"",NA,"",NA,"",NA,NA,NA,NA,NA,NA,NA,"","",1,1,"2024-08-25_17h06.09.608","IAT(Formal)","2021.2.3","Win32",60.0240096,"",NA,"",NA,NA,NA,NA,NA,NA,NA,"","","",NA,"i",1,0.664,0,60,60,46,1,"野蛮","i","",NA,NA,NA,NA,NA,NA,"",NA,"",NA,NA,NA,NA,NA,NA,NA,"",NA,"",NA,NA,NA,NA,NA,NA,NA,"","","",NA,"",NA,NA,NA,NA,NA,NA,NA,"",NA,"30"
"",NA,"",NA,"",NA,NA,NA,NA,NA,NA,NA,"","",1,1,"2024-08-25_17h06.09.608","IAT(Formal)","2021.2.3","Win32",60.0240096,"",NA,"",NA,NA,NA,NA,NA,NA,NA,"","","",NA,"e",1,0.851,0,61,61,14,1,"乐观","e","",NA,NA,NA,NA,NA,NA,"",NA,"",NA,NA,NA,NA,NA,NA,NA,"",NA,"",NA,NA,NA,NA,NA,NA,NA,"","","",NA,"",NA,NA,NA,NA,NA,NA,NA,"",NA,"30"
"",NA,"",NA,"",NA,NA,NA,NA,NA,NA,NA,"","",1,1,"2024-08-25_17h06.09.608","IAT(Formal)","2021.2.3","Win32",60.0240096,"",NA,"",NA,NA,NA,NA,NA,NA,NA,"","","",NA,"e",1,0.483,0,62,62,2,1,"我们","e","",NA,NA,NA,NA,NA,NA,"",NA,"",NA,NA,NA,NA,NA,NA,NA,"",NA,"",NA,NA,NA,NA,NA,NA,NA,"","","",NA,"",NA,NA,NA,NA,NA,NA,NA,"",NA,"30"
"",NA,"",NA,"",NA,NA,NA,NA,NA,NA,NA,"","",1,1,"2024-08-25_17h06.09.608","IAT(Formal)","2021.2.3","Win32",60.0240096,"",NA,"",NA,NA,NA,NA,NA,NA,NA,"","","",NA,"e",1,0.465,0,63,63,63,1,"自己","e","",NA,NA,NA,NA,NA,NA,"",NA,"",NA,NA,NA,NA,NA,NA,NA,"",NA,"",NA,NA,NA,NA,NA,NA,NA,"","","",NA,"",NA,NA,NA,NA,NA,NA,NA,"",NA,"30"
"",NA,"",NA,"",NA,NA,NA,NA,NA,NA,NA,"","",1,1,"2024-08-25_17h06.09.608","IAT(Formal)","2021.2.3","Win32",60.0240096,"",NA,"",NA,NA,NA,NA,NA,NA,NA,"","","",NA,"e",1,0.502,0,64,64,3,1,"自己","e","",NA,NA,NA,NA,NA,NA,"",NA,"",NA,NA,NA,NA,NA,NA,NA,"",NA,"",NA,NA,NA,NA,NA,NA,NA,"","","",NA,"",NA,NA,NA,NA,NA,NA,NA,"",NA,"30"
"",NA,"",NA,"",NA,NA,NA,NA,NA,NA,NA,"","",1,1,"2024-08-25_17h06.09.608","IAT(Formal)","2021.2.3","Win32",60.0240096,"",NA,"",NA,NA,NA,NA,NA,NA,NA,"","","",NA,"e",1,0.715,0,65,65,28,1,"活泼","e","",NA,NA,NA,NA,NA,NA,"",NA,"",NA,NA,NA,NA,NA,NA,NA,"",NA,"",NA,NA,NA,NA,NA,NA,NA,"","","",NA,"",NA,NA,NA,NA,NA,NA,NA,"",NA,"30"
"",NA,"",NA,"",NA,NA,NA,NA,NA,NA,NA,"","",1,1,"2024-08-25_17h06.09.608","IAT(Formal)","2021.2.3","Win32",60.0240096,"",NA,"",NA,NA,NA,NA,NA,NA,NA,"","","",NA,"i",1,0.699,0,66,66,48,1,"轻率","i","",NA,NA,NA,NA,NA,NA,"",NA,"",NA,NA,NA,NA,NA,NA,NA,"",NA,"",NA,NA,NA,NA,NA,NA,NA,"","","",NA,"",NA,NA,NA,NA,NA,NA,NA,"",NA,"30"
"",NA,"",NA,"",NA,NA,NA,NA,NA,NA,NA,"","",1,1,"2024-08-25_17h06.09.608","IAT(Formal)","2021.2.3","Win32",60.0240096,"",NA,"",NA,NA,NA,NA,NA,NA,NA,"","","",NA,"i",1,0.69,0,67,67,47,1,"固执","i","",NA,NA,NA,NA,NA,NA,"",NA,"",NA,NA,NA,NA,NA,NA,NA,"",NA,"",NA,NA,NA,NA,NA,NA,NA,"","","",NA,"",NA,NA,NA,NA,NA,NA,NA,"",NA,"30"
"",NA,"",NA,"",NA,NA,NA,NA,NA,NA,NA,"","",1,1,"2024-08-25_17h06.09.608","IAT(Formal)","2021.2.3","Win32",60.0240096,"",NA,"",NA,NA,NA,NA,NA,NA,NA,"","","",NA,"e",1,0.747,0,68,68,25,1,"细腻","e","",NA,NA,NA,NA,NA,NA,"",NA,"",NA,NA,NA,NA,NA,NA,NA,"",NA,"",NA,NA,NA,NA,NA,NA,NA,"","","",NA,"",NA,NA,NA,NA,NA,NA,NA,"",NA,"30"
"",NA,"",NA,"",NA,NA,NA,NA,NA,NA,NA,"","",1,1,"2024-08-25_17h06.09.608","IAT(Formal)","2021.2.3","Win32",60.0240096,"",NA,"",NA,NA,NA,NA,NA,NA,NA,"","","",NA,"i",1,0.554,0,69,69,33,1,"刻薄","i","",NA,NA,NA,NA,NA,NA,"",NA,"",NA,NA,NA,NA,NA,NA,NA,"",NA,"",NA,NA,NA,NA,NA,NA,NA,"","","",NA,"",NA,NA,NA,NA,NA,NA,NA,"",NA,"30"
"",NA,"",NA,"",NA,NA,NA,NA,NA,NA,NA,"","",1,1,"2024-08-25_17h06.09.608","IAT(Formal)","2021.2.3","Win32",60.0240096,"",NA,"",NA,NA,NA,NA,NA,NA,NA,"","","",NA,"e",1,0.621,0,70,70,17,1,"勇敢","e","",NA,NA,NA,NA,NA,NA,"",NA,"",NA,NA,NA,NA,NA,NA,NA,"",NA,"",NA,NA,NA,NA,NA,NA,NA,"","","",NA,"",NA,NA,NA,NA,NA,NA,NA,"",NA,"30"
"",NA,"",NA,"",NA,NA,NA,NA,NA,NA,NA,"","",1,1,"2024-08-25_17h06.09.608","IAT(Formal)","2021.2.3","Win32",60.0240096,"",NA,"",NA,NA,NA,NA,NA,NA,NA,"","","",NA,"i",1,0.762,0,71,71,66,1,"他们","i","",NA,NA,NA,NA,NA,NA,"",NA,"",NA,NA,NA,NA,NA,NA,NA,"",NA,"",NA,NA,NA,NA,NA,NA,NA,"","","",NA,"",NA,NA,NA,NA,NA,NA,NA,"",NA,"30"
"",NA,"",NA,"",NA,NA,NA,NA,NA,NA,NA,"","",1,1,"2024-08-25_17h06.09.608","IAT(Formal)","2021.2.3","Win32",60.0240096,"",NA,"",NA,NA,NA,NA,NA,NA,NA,"","","",NA,"i",1,0.456,0,72,72,55,1,"他","i","",NA,NA,NA,NA,NA,NA,"",NA,"",NA,NA,NA,NA,NA,NA,NA,"",NA,"",NA,NA,NA,NA,NA,NA,NA,"","","",NA,"",NA,NA,NA,NA,NA,NA,NA,"",NA,"30"
"",NA,"",NA,"",NA,NA,NA,NA,NA,NA,NA,"","",1,1,"2024-08-25_17h06.09.608","IAT(Formal)","2021.2.3","Win32",60.0240096,"",NA,"",NA,NA,NA,NA,NA,NA,NA,"","","",NA,"e",1,0.598,0,73,73,20,1,"认真","e","",NA,NA,NA,NA,NA,NA,"",NA,"",NA,NA,NA,NA,NA,NA,NA,"",NA,"",NA,NA,NA,NA,NA,NA,NA,"","","",NA,"",NA,NA,NA,NA,NA,NA,NA,"",NA,"30"
"",NA,"",NA,"",NA,NA,NA,NA,NA,NA,NA,"","",1,1,"2024-08-25_17h06.09.608","IAT(Formal)","2021.2.3","Win32",60.0240096,"",NA,"",NA,NA,NA,NA,NA,NA,NA,"","","",NA,"i",1,0.62,0,74,74,45,1,"猖狂","i","",NA,NA,NA,NA,NA,NA,"",NA,"",NA,NA,NA,NA,NA,NA,NA,"",NA,"",NA,NA,NA,NA,NA,NA,NA,"","","",NA,"",NA,NA,NA,NA,NA,NA,NA,"",NA,"30"
"",NA,"",NA,"",NA,NA,NA,NA,NA,NA,NA,"","",1,1,"2024-08-25_17h06.09.608","IAT(Formal)","2021.2.3","Win32",60.0240096,"",NA,"",NA,NA,NA,NA,NA,NA,NA,"","","",NA,"i",1,0.696,0,75,75,68,1,"他人","i","",NA,NA,NA,NA,NA,NA,"",NA,"",NA,NA,NA,NA,NA,NA,NA,"",NA,"",NA,NA,NA,NA,NA,NA,NA,"","","",NA,"",NA,NA,NA,NA,NA,NA,NA,"",NA,"30"
"",NA,"",NA,"",NA,NA,NA,NA,NA,NA,NA,"","",1,1,"2024-08-25_17h06.09.608","IAT(Formal)","2021.2.3","Win32",60.0240096,"",NA,"",NA,NA,NA,NA,NA,NA,NA,"","","",NA,"i",1,0.649,0,76,76,41,1,"散漫","i","",NA,NA,NA,NA,NA,NA,"",NA,"",NA,NA,NA,NA,NA,NA,NA,"",NA,"",NA,NA,NA,NA,NA,NA,NA,"","","",NA,"",NA,NA,NA,NA,NA,NA,NA,"",NA,"30"
"",NA,"",NA,"",NA,NA,NA,NA,NA,NA,NA,"","",1,1,"2024-08-25_17h06.09.608","IAT(Formal)","2021.2.3","Win32",60.0240096,"",NA,"",NA,NA,NA,NA,NA,NA,NA,"","","",NA,"e",1,0.816,0,77,77,22,1,"无私","e","",NA,NA,NA,NA,NA,NA,"",NA,"",NA,NA,NA,NA,NA,NA,NA,"",NA,"",NA,NA,NA,NA,NA,NA,NA,"","","",NA,"",NA,NA,NA,NA,NA,NA,NA,"",NA,"30"
"",NA,"",NA,"",NA,NA,NA,NA,NA,NA,NA,"","",1,1,"2024-08-25_17h06.09.608","IAT(Formal)","2021.2.3","Win32",60.0240096,"",NA,"",NA,NA,NA,NA,NA,NA,NA,"","","",NA,"e",1,0.549,0,78,78,1,1,"我的","e","",NA,NA,NA,NA,NA,NA,"",NA,"",NA,NA,NA,NA,NA,NA,NA,"",NA,"",NA,NA,NA,NA,NA,NA,NA,"","","",NA,"",NA,NA,NA,NA,NA,NA,NA,"",NA,"30"
"",NA,"",NA,"",NA,NA,NA,NA,NA,NA,NA,"","",1,1,"2024-08-25_17h06.09.608","IAT(Formal)","2021.2.3","Win32",60.0240096,"",NA,"",NA,NA,NA,NA,NA,NA,NA,"","","",NA,"i",1,0.619,0,79,79,40,1,"执拗","i","",NA,NA,NA,NA,NA,NA,"",NA,"",NA,NA,NA,NA,NA,NA,NA,"",NA,"",NA,NA,NA,NA,NA,NA,NA,"","","",NA,"",NA,NA,NA,NA,NA,NA,NA,"",NA,"30"
"",NA,"",NA,"",NA,NA,NA,NA,NA,NA,NA,"","",1,1,"2024-08-25_17h06.09.608","IAT(Formal)","2021.2.3","Win32",60.0240096,"",NA,"",NA,NA,NA,NA,NA,NA,NA,"","","",NA,"e",1,0.655,NA,NA,NA,NA,NA,"聪明","e","space",7.869,0,0,0,12,1,"",NA,"",NA,NA,NA,NA,NA,NA,NA,"",NA,"",NA,NA,NA,NA,NA,NA,NA,"","","",NA,"",NA,NA,NA,NA,NA,NA,NA,"",NA,"30"
"",NA,"",NA,"",NA,NA,NA,NA,NA,NA,NA,"","",1,1,"2024-08-25_17h06.09.608","IAT(Formal)","2021.2.3","Win32",60.0240096,"",NA,"",NA,NA,NA,NA,NA,NA,NA,"","","",NA,"i",1,0.62,NA,NA,NA,NA,NA,"猖狂","i","",NA,0,1,1,45,1,"",NA,"",NA,NA,NA,NA,NA,NA,NA,"",NA,"",NA,NA,NA,NA,NA,NA,NA,"","","",NA,"",NA,NA,NA,NA,NA,NA,NA,"",NA,"30"
"",NA,"",NA,"",NA,NA,NA,NA,NA,NA,NA,"","",1,1,"2024-08-25_17h06.09.608","IAT(Formal)","2021.2.3","Win32",60.0240096,"",NA,"",NA,NA,NA,NA,NA,NA,NA,"","","",NA,"e",1,0.664,NA,NA,NA,NA,NA,"正直","e","",NA,0,2,2,16,1,"",NA,"",NA,NA,NA,NA,NA,NA,NA,"",NA,"",NA,NA,NA,NA,NA,NA,NA,"","","",NA,"",NA,NA,NA,NA,NA,NA,NA,"",NA,"30"
"",NA,"",NA,"",NA,NA,NA,NA,NA,NA,NA,"","",1,1,"2024-08-25_17h06.09.608","IAT(Formal)","2021.2.3","Win32",60.0240096,"",NA,"",NA,NA,NA,NA,NA,NA,NA,"","","",NA,"e",1,0.512,NA,NA,NA,NA,NA,"我的","e","",NA,0,3,3,1,1,"",NA,"",NA,NA,NA,NA,NA,NA,NA,"",NA,"",NA,NA,NA,NA,NA,NA,NA,"","","",NA,"",NA,NA,NA,NA,NA,NA,NA,"",NA,"30"
"",NA,"",NA,"",NA,NA,NA,NA,NA,NA,NA,"","",1,1,"2024-08-25_17h06.09.608","IAT(Formal)","2021.2.3","Win32",60.0240096,"",NA,"",NA,NA,NA,NA,NA,NA,NA,"","","",NA,"e",1,0.582,NA,NA,NA,NA,NA,"我","e","",NA,0,4,4,50,1,"",NA,"",NA,NA,NA,NA,NA,NA,NA,"",NA,"",NA,NA,NA,NA,NA,NA,NA,"","","",NA,"",NA,NA,NA,NA,NA,NA,NA,"",NA,"30"
"",NA,"",NA,"",NA,NA,NA,NA,NA,NA,NA,"","",1,1,"2024-08-25_17h06.09.608","IAT(Formal)","2021.2.3","Win32",60.0240096,"",NA,"",NA,NA,NA,NA,NA,NA,NA,"","","",NA,"i",1,0.666,NA,NA,NA,NA,NA,"他的","i","",NA,0,5,5,57,1,"",NA,"",NA,NA,NA,NA,NA,NA,NA,"",NA,"",NA,NA,NA,NA,NA,NA,NA,"","","",NA,"",NA,NA,NA,NA,NA,NA,NA,"",NA,"30"
"",NA,"",NA,"",NA,NA,NA,NA,NA,NA,NA,"","",1,1,"2024-08-25_17h06.09.608","IAT(Formal)","2021.2.3","Win32",60.0240096,"",NA,"",NA,NA,NA,NA,NA,NA,NA,"","","",NA,"i",1,0.538,NA,NA,NA,NA,NA,"他人","i","",NA,0,6,6,78,1,"",NA,"",NA,NA,NA,NA,NA,NA,NA,"",NA,"",NA,NA,NA,NA,NA,NA,NA,"","","",NA,"",NA,NA,NA,NA,NA,NA,NA,"",NA,"30"
"",NA,"",NA,"",NA,NA,NA,NA,NA,NA,NA,"","",1,1,"2024-08-25_17h06.09.608","IAT(Formal)","2021.2.3","Win32",60.0240096,"",NA,"",NA,NA,NA,NA,NA,NA,NA,"","","",NA,"e",1,0.581,NA,NA,NA,NA,NA,"自己","e","",NA,0,7,7,73,1,"",NA,"",NA,NA,NA,NA,NA,NA,NA,"",NA,"",NA,NA,NA,NA,NA,NA,NA,"","","",NA,"",NA,NA,NA,NA,NA,NA,NA,"",NA,"30"
"",NA,"",NA,"",NA,NA,NA,NA,NA,NA,NA,"","",1,1,"2024-08-25_17h06.09.608","IAT(Formal)","2021.2.3","Win32",60.0240096,"",NA,"",NA,NA,NA,NA,NA,NA,NA,"","","",NA,"e",1,0.633,NA,NA,NA,NA,NA,"认真","e","",NA,0,8,8,20,1,"",NA,"",NA,NA,NA,NA,NA,NA,NA,"",NA,"",NA,NA,NA,NA,NA,NA,NA,"","","",NA,"",NA,NA,NA,NA,NA,NA,NA,"",NA,"30"
"",NA,"",NA,"",NA,NA,NA,NA,NA,NA,NA,"","",1,1,"2024-08-25_17h06.09.608","IAT(Formal)","2021.2.3","Win32",60.0240096,"",NA,"",NA,NA,NA,NA,NA,NA,NA,"","","",NA,"e",1,0.685,NA,NA,NA,NA,NA,"俺","e","",NA,0,9,9,74,1,"",NA,"",NA,NA,NA,NA,NA,NA,NA,"",NA,"",NA,NA,NA,NA,NA,NA,NA,"","","",NA,"",NA,NA,NA,NA,NA,NA,NA,"",NA,"30"
"",NA,"",NA,"",NA,NA,NA,NA,NA,NA,NA,"","",1,1,"2024-08-25_17h06.09.608","IAT(Formal)","2021.2.3","Win32",60.0240096,"",NA,"",NA,NA,NA,NA,NA,NA,NA,"","","",NA,"i",1,0.766,NA,NA,NA,NA,NA,"固执","i","",NA,0,10,10,47,1,"",NA,"",NA,NA,NA,NA,NA,NA,NA,"",NA,"",NA,NA,NA,NA,NA,NA,NA,"","","",NA,"",NA,NA,NA,NA,NA,NA,NA,"",NA,"30"
"",NA,"",NA,"",NA,NA,NA,NA,NA,NA,NA,"","",1,1,"2024-08-25_17h06.09.608","IAT(Formal)","2021.2.3","Win32",60.0240096,"",NA,"",NA,NA,NA,NA,NA,NA,NA,"","","",NA,"e",1,0.727,NA,NA,NA,NA,NA,"俺","e","",NA,0,11,11,64,1,"",NA,"",NA,NA,NA,NA,NA,NA,NA,"",NA,"",NA,NA,NA,NA,NA,NA,NA,"","","",NA,"",NA,NA,NA,NA,NA,NA,NA,"",NA,"30"
"",NA,"",NA,"",NA,NA,NA,NA,NA,NA,NA,"","",1,1,"2024-08-25_17h06.09.608","IAT(Formal)","2021.2.3","Win32",60.0240096,"",NA,"",NA,NA,NA,NA,NA,NA,NA,"","","",NA,"e",1,0.544,NA,NA,NA,NA,NA,"我的","e","",NA,0,12,12,61,1,"",NA,"",NA,NA,NA,NA,NA,NA,NA,"",NA,"",NA,NA,NA,NA,NA,NA,NA,"","","",NA,"",NA,NA,NA,NA,NA,NA,NA,"",NA,"30"
"",NA,"",NA,"",NA,NA,NA,NA,NA,NA,NA,"","",1,1,"2024-08-25_17h06.09.608","IAT(Formal)","2021.2.3","Win32",60.0240096,"",NA,"",NA,NA,NA,NA,NA,NA,NA,"","","",NA,"i",1,0.585,NA,NA,NA,NA,NA,"他们","i","",NA,0,13,13,6,1,"",NA,"",NA,NA,NA,NA,NA,NA,NA,"",NA,"",NA,NA,NA,NA,NA,NA,NA,"","","",NA,"",NA,NA,NA,NA,NA,NA,NA,"",NA,"30"
"",NA,"",NA,"",NA,NA,NA,NA,NA,NA,NA,"","",1,1,"2024-08-25_17h06.09.608","IAT(Formal)","2021.2.3","Win32",60.0240096,"",NA,"",NA,NA,NA,NA,NA,NA,NA,"","","",NA,"i",1,0.6,NA,NA,NA,NA,NA,"其他","i","",NA,0,14,14,9,1,"",NA,"",NA,NA,NA,NA,NA,NA,NA,"",NA,"",NA,NA,NA,NA,NA,NA,NA,"","","",NA,"",NA,NA,NA,NA,NA,NA,NA,"",NA,"30"
"",NA,"",NA,"",NA,NA,NA,NA,NA,NA,NA,"","",1,1,"2024-08-25_17h06.09.608","IAT(Formal)","2021.2.3","Win32",60.0240096,"",NA,"",NA,NA,NA,NA,NA,NA,NA,"","","",NA,"e",1,0.697,NA,NA,NA,NA,NA,"细腻","e","",NA,0,15,15,25,1,"",NA,"",NA,NA,NA,NA,NA,NA,NA,"",NA,"",NA,NA,NA,NA,NA,NA,NA,"","","",NA,"",NA,NA,NA,NA,NA,NA,NA,"",NA,"30"
"",NA,"",NA,"",NA,NA,NA,NA,NA,NA,NA,"","",1,1,"2024-08-25_17h06.09.608","IAT(Formal)","2021.2.3","Win32",60.0240096,"",NA,"",NA,NA,NA,NA,NA,NA,NA,"","","",NA,"e",1,0.536,NA,NA,NA,NA,NA,"我","e","",NA,0,16,16,0,1,"",NA,"",NA,NA,NA,NA,NA,NA,NA,"",NA,"",NA,NA,NA,NA,NA,NA,NA,"","","",NA,"",NA,NA,NA,NA,NA,NA,NA,"",NA,"30"
"",NA,"",NA,"",NA,NA,NA,NA,NA,NA,NA,"","",1,1,"2024-08-25_17h06.09.608","IAT(Formal)","2021.2.3","Win32",60.0240096,"",NA,"",NA,NA,NA,NA,NA,NA,NA,"","","",NA,"e",1,0.472,NA,NA,NA,NA,NA,"我","e","",NA,0,17,17,70,1,"",NA,"",NA,NA,NA,NA,NA,NA,NA,"",NA,"",NA,NA,NA,NA,NA,NA,NA,"","","",NA,"",NA,NA,NA,NA,NA,NA,NA,"",NA,"30"
"",NA,"",NA,"",NA,NA,NA,NA,NA,NA,NA,"","",1,1,"2024-08-25_17h06.09.608","IAT(Formal)","2021.2.3","Win32",60.0240096,"",NA,"",NA,NA,NA,NA,NA,NA,NA,"","","",NA,"i",1,0.682,NA,NA,NA,NA,NA,"他","i","",NA,0,18,18,65,1,"",NA,"",NA,NA,NA,NA,NA,NA,NA,"",NA,"",NA,NA,NA,NA,NA,NA,NA,"","","",NA,"",NA,NA,NA,NA,NA,NA,NA,"",NA,"30"
"",NA,"",NA,"",NA,NA,NA,NA,NA,NA,NA,"","",1,1,"2024-08-25_17h06.09.608","IAT(Formal)","2021.2.3","Win32",60.0240096,"",NA,"",NA,NA,NA,NA,NA,NA,NA,"","","",NA,"e",1,0.519,NA,NA,NA,NA,NA,"我们","e","",NA,0,19,19,2,1,"",NA,"",NA,NA,NA,NA,NA,NA,NA,"",NA,"",NA,NA,NA,NA,NA,NA,NA,"","","",NA,"",NA,NA,NA,NA,NA,NA,NA,"",NA,"30"
"",NA,"",NA,"",NA,NA,NA,NA,NA,NA,NA,"","",1,1,"2024-08-25_17h06.09.608","IAT(Formal)","2021.2.3","Win32",60.0240096,"",NA,"",NA,NA,NA,NA,NA,NA,NA,"","","",NA,"i",1,0.58,NA,NA,NA,NA,NA,"其他","i","",NA,0,20,20,79,1,"",NA,"",NA,NA,NA,NA,NA,NA,NA,"",NA,"",NA,NA,NA,NA,NA,NA,NA,"","","",NA,"",NA,NA,NA,NA,NA,NA,NA,"",NA,"30"
"",NA,"",NA,"",NA,NA,NA,NA,NA,NA,NA,"","",1,1,"2024-08-25_17h06.09.608","IAT(Formal)","2021.2.3","Win32",60.0240096,"",NA,"",NA,NA,NA,NA,NA,NA,NA,"","","",NA,"e",1,0.619,NA,NA,NA,NA,NA,"杰出","e","",NA,0,21,21,13,1,"",NA,"",NA,NA,NA,NA,NA,NA,NA,"",NA,"",NA,NA,NA,NA,NA,NA,NA,"","","",NA,"",NA,NA,NA,NA,NA,NA,NA,"",NA,"30"
"",NA,"",NA,"",NA,NA,NA,NA,NA,NA,NA,"","",1,1,"2024-08-25_17h06.09.608","IAT(Formal)","2021.2.3","Win32",60.0240096,"",NA,"",NA,NA,NA,NA,NA,NA,NA,"","","",NA,"i",1,0.728,NA,NA,NA,NA,NA,"虚伪","i","",NA,0,22,22,31,1,"",NA,"",NA,NA,NA,NA,NA,NA,NA,"",NA,"",NA,NA,NA,NA,NA,NA,NA,"","","",NA,"",NA,NA,NA,NA,NA,NA,NA,"",NA,"30"
"",NA,"",NA,"",NA,NA,NA,NA,NA,NA,NA,"","",1,1,"2024-08-25_17h06.09.608","IAT(Formal)","2021.2.3","Win32",60.0240096,"",NA,"",NA,NA,NA,NA,NA,NA,NA,"","","",NA,"i",1,0.574,NA,NA,NA,NA,NA,"轻率","i","",NA,0,23,23,48,1,"",NA,"",NA,NA,NA,NA,NA,NA,NA,"",NA,"",NA,NA,NA,NA,NA,NA,NA,"","","",NA,"",NA,NA,NA,NA,NA,NA,NA,"",NA,"30"
"",NA,"",NA,"",NA,NA,NA,NA,NA,NA,NA,"","",1,1,"2024-08-25_17h06.09.608","IAT(Formal)","2021.2.3","Win32",60.0240096,"",NA,"",NA,NA,NA,NA,NA,NA,NA,"","","",NA,"i",1,0.624,NA,NA,NA,NA,NA,"暴躁","i","",NA,0,24,24,44,1,"",NA,"",NA,NA,NA,NA,NA,NA,NA,"",NA,"",NA,NA,NA,NA,NA,NA,NA,"","","",NA,"",NA,NA,NA,NA,NA,NA,NA,"",NA,"30"
"",NA,"",NA,"",NA,NA,NA,NA,NA,NA,NA,"","",1,1,"2024-08-25_17h06.09.608","IAT(Formal)","2021.2.3","Win32",60.0240096,"",NA,"",NA,NA,NA,NA,NA,NA,NA,"","","",NA,"i",1,0.731,NA,NA,NA,NA,NA,"自私","i","",NA,0,25,25,43,1,"",NA,"",NA,NA,NA,NA,NA,NA,NA,"",NA,"",NA,NA,NA,NA,NA,NA,NA,"","","",NA,"",NA,NA,NA,NA,NA,NA,NA,"",NA,"30"
"",NA,"",NA,"",NA,NA,NA,NA,NA,NA,NA,"","",1,1,"2024-08-25_17h06.09.608","IAT(Formal)","2021.2.3","Win32",60.0240096,"",NA,"",NA,NA,NA,NA,NA,NA,NA,"","","",NA,"e",1,0.636,NA,NA,NA,NA,NA,"优秀","e","",NA,0,26,26,10,1,"",NA,"",NA,NA,NA,NA,NA,NA,NA,"",NA,"",NA,NA,NA,NA,NA,NA,NA,"","","",NA,"",NA,NA,NA,NA,NA,NA,NA,"",NA,"30"
"",NA,"",NA,"",NA,NA,NA,NA,NA,NA,NA,"","",1,1,"2024-08-25_17h06.09.608","IAT(Formal)","2021.2.3","Win32",60.0240096,"",NA,"",NA,NA,NA,NA,NA,NA,NA,"","","",NA,"e",1,0.668,NA,NA,NA,NA,NA,"自己","e","",NA,0,27,27,53,1,"",NA,"",NA,NA,NA,NA,NA,NA,NA,"",NA,"",NA,NA,NA,NA,NA,NA,NA,"","","",NA,"",NA,NA,NA,NA,NA,NA,NA,"",NA,"30"
"",NA,"",NA,"",NA,NA,NA,NA,NA,NA,NA,"","",1,1,"2024-08-25_17h06.09.608","IAT(Formal)","2021.2.3","Win32",60.0240096,"",NA,"",NA,NA,NA,NA,NA,NA,NA,"","","",NA,"e",1,0.645,NA,NA,NA,NA,NA,"诚实","e","",NA,0,28,28,15,1,"",NA,"",NA,NA,NA,NA,NA,NA,NA,"",NA,"",NA,NA,NA,NA,NA,NA,NA,"","","",NA,"",NA,NA,NA,NA,NA,NA,NA,"",NA,"30"
"",NA,"",NA,"",NA,NA,NA,NA,NA,NA,NA,"","",1,1,"2024-08-25_17h06.09.608","IAT(Formal)","2021.2.3","Win32",60.0240096,"",NA,"",NA,NA,NA,NA,NA,NA,NA,"","","",NA,"i",1,0.653,NA,NA,NA,NA,NA,"傲慢","i","",NA,0,29,29,37,1,"",NA,"",NA,NA,NA,NA,NA,NA,NA,"",NA,"",NA,NA,NA,NA,NA,NA,NA,"","","",NA,"",NA,NA,NA,NA,NA,NA,NA,"",NA,"30"
"",NA,"",NA,"",NA,NA,NA,NA,NA,NA,NA,"","",1,1,"2024-08-25_17h06.09.608","IAT(Formal)","2021.2.3","Win32",60.0240096,"",NA,"",NA,NA,NA,NA,NA,NA,NA,"","","",NA,"e",1,0.601,NA,NA,NA,NA,NA,"我的","e","",NA,0,30,30,51,1,"",NA,"",NA,NA,NA,NA,NA,NA,NA,"",NA,"",NA,NA,NA,NA,NA,NA,NA,"","","",NA,"",NA,NA,NA,NA,NA,NA,NA,"",NA,"30"
"",NA,"",NA,"",NA,NA,NA,NA,NA,NA,NA,"","",1,1,"2024-08-25_17h06.09.608","IAT(Formal)","2021.2.3","Win32",60.0240096,"",NA,"",NA,NA,NA,NA,NA,NA,NA,"","","",NA,"e",1,0.55,NA,NA,NA,NA,NA,"我们","e","",NA,0,31,31,62,1,"",NA,"",NA,NA,NA,NA,NA,NA,NA,"",NA,"",NA,NA,NA,NA,NA,NA,NA,"","","",NA,"",NA,NA,NA,NA,NA,NA,NA,"",NA,"30"
"",NA,"",NA,"",NA,NA,NA,NA,NA,NA,NA,"","",1,1,"2024-08-25_17h06.09.608","IAT(Formal)","2021.2.3","Win32",60.0240096,"",NA,"",NA,NA,NA,NA,NA,NA,NA,"","","",NA,"i",1,0.604,NA,NA,NA,NA,NA,"他们","i","",NA,0,32,32,76,1,"",NA,"",NA,NA,NA,NA,NA,NA,NA,"",NA,"",NA,NA,NA,NA,NA,NA,NA,"","","",NA,"",NA,NA,NA,NA,NA,NA,NA,"",NA,"30"
"",NA,"",NA,"",NA,NA,NA,NA,NA,NA,NA,"","",1,1,"2024-08-25_17h06.09.608","IAT(Formal)","2021.2.3","Win32",60.0240096,"",NA,"",NA,NA,NA,NA,NA,NA,NA,"","","",NA,"i",1,0.682,NA,NA,NA,NA,NA,"他","i","",NA,0,33,33,5,1,"",NA,"",NA,NA,NA,NA,NA,NA,NA,"",NA,"",NA,NA,NA,NA,NA,NA,NA,"","","",NA,"",NA,NA,NA,NA,NA,NA,NA,"",NA,"30"
"",NA,"",NA,"",NA,NA,NA,NA,NA,NA,NA,"","",1,1,"2024-08-25_17h06.09.608","IAT(Formal)","2021.2.3","Win32",60.0240096,"",NA,"",NA,NA,NA,NA,NA,NA,NA,"","","",NA,"e",1,0.614,NA,NA,NA,NA,NA,"热情","e","",NA,0,34,34,27,1,"",NA,"",NA,NA,NA,NA,NA,NA,NA,"",NA,"",NA,NA,NA,NA,NA,NA,NA,"","","",NA,"",NA,NA,NA,NA,NA,NA,NA,"",NA,"30"
"",NA,"",NA,"",NA,NA,NA,NA,NA,NA,NA,"","",1,1,"2024-08-25_17h06.09.608","IAT(Formal)","2021.2.3","Win32",60.0240096,"",NA,"",NA,NA,NA,NA,NA,NA,NA,"","","",NA,"i",1,0.616,NA,NA,NA,NA,NA,"他人","i","",NA,0,35,35,8,1,"",NA,"",NA,NA,NA,NA,NA,NA,NA,"",NA,"",NA,NA,NA,NA,NA,NA,NA,"","","",NA,"",NA,NA,NA,NA,NA,NA,NA,"",NA,"30"
"",NA,"",NA,"",NA,NA,NA,NA,NA,NA,NA,"","",1,1,"2024-08-25_17h06.09.608","IAT(Formal)","2021.2.3","Win32",60.0240096,"",NA,"",NA,NA,NA,NA,NA,NA,NA,"","","",NA,"e",1,0.699,NA,NA,NA,NA,NA,"活泼","e","",NA,0,36,36,28,1,"",NA,"",NA,NA,NA,NA,NA,NA,NA,"",NA,"",NA,NA,NA,NA,NA,NA,NA,"","","",NA,"",NA,NA,NA,NA,NA,NA,NA,"",NA,"30"
"",NA,"",NA,"",NA,NA,NA,NA,NA,NA,NA,"","",1,1,"2024-08-25_17h06.09.608","IAT(Formal)","2021.2.3","Win32",60.0240096,"",NA,"",NA,NA,NA,NA,NA,NA,NA,"","","",NA,"e",1,0.567,NA,NA,NA,NA,NA,"我们","e","",NA,0,37,37,72,1,"",NA,"",NA,NA,NA,NA,NA,NA,NA,"",NA,"",NA,NA,NA,NA,NA,NA,NA,"","","",NA,"",NA,NA,NA,NA,NA,NA,NA,"",NA,"30"
"",NA,"",NA,"",NA,NA,NA,NA,NA,NA,NA,"","",1,1,"2024-08-25_17h06.09.608","IAT(Formal)","2021.2.3","Win32",60.0240096,"",NA,"",NA,NA,NA,NA,NA,NA,NA,"","","",NA,"e",1,0.703,NA,NA,NA,NA,NA,"朴实","e","",NA,0,38,38,24,1,"",NA,"",NA,NA,NA,NA,NA,NA,NA,"",NA,"",NA,NA,NA,NA,NA,NA,NA,"","","",NA,"",NA,NA,NA,NA,NA,NA,NA,"",NA,"30"
"",NA,"",NA,"",NA,NA,NA,NA,NA,NA,NA,"","",1,1,"2024-08-25_17h06.09.608","IAT(Formal)","2021.2.3","Win32",60.0240096,"",NA,"",NA,NA,NA,NA,NA,NA,NA,"","","",NA,"e",1,0.508,NA,NA,NA,NA,NA,"我们","e","",NA,0,39,39,52,1,"",NA,"",NA,NA,NA,NA,NA,NA,NA,"",NA,"",NA,NA,NA,NA,NA,NA,NA,"","","",NA,"",NA,NA,NA,NA,NA,NA,NA,"",NA,"30"
"",NA,"",NA,"",NA,NA,NA,NA,NA,NA,NA,"","",1,1,"2024-08-25_17h06.09.608","IAT(Formal)","2021.2.3","Win32",60.0240096,"",NA,"",NA,NA,NA,NA,NA,NA,NA,"","","",NA,"i",1,0.704,NA,NA,NA,NA,NA,"他们","i","",NA,0,40,40,56,1,"",NA,"",NA,NA,NA,NA,NA,NA,NA,"",NA,"",NA,NA,NA,NA,NA,NA,NA,"","","",NA,"",NA,NA,NA,NA,NA,NA,NA,"",NA,"30"
"",NA,"",NA,"",NA,NA,NA,NA,NA,NA,NA,"","",1,1,"2024-08-25_17h06.09.608","IAT(Formal)","2021.2.3","Win32",60.0240096,"",NA,"",NA,NA,NA,NA,NA,NA,NA,"","","",NA,"e",1,0.599,NA,NA,NA,NA,NA,"俺","e","",NA,0,41,41,54,1,"",NA,"",NA,NA,NA,NA,NA,NA,NA,"",NA,"",NA,NA,NA,NA,NA,NA,NA,"","","",NA,"",NA,NA,NA,NA,NA,NA,NA,"",NA,"30"
"",NA,"",NA,"",NA,NA,NA,NA,NA,NA,NA,"","",1,1,"2024-08-25_17h06.09.608","IAT(Formal)","2021.2.3","Win32",60.0240096,"",NA,"",NA,NA,NA,NA,NA,NA,NA,"","","",NA,"e",1,0.622,NA,NA,NA,NA,NA,"诚恳","e","",NA,0,42,42,29,1,"",NA,"",NA,NA,NA,NA,NA,NA,NA,"",NA,"",NA,NA,NA,NA,NA,NA,NA,"","","",NA,"",NA,NA,NA,NA,NA,NA,NA,"",NA,"30"
"",NA,"",NA,"",NA,NA,NA,NA,NA,NA,NA,"","",1,1,"2024-08-25_17h06.09.608","IAT(Formal)","2021.2.3","Win32",60.0240096,"",NA,"",NA,NA,NA,NA,NA,NA,NA,"","","",NA,"i",1,0.601,NA,NA,NA,NA,NA,"其他","i","",NA,0,43,43,69,1,"",NA,"",NA,NA,NA,NA,NA,NA,NA,"",NA,"",NA,NA,NA,NA,NA,NA,NA,"","","",NA,"",NA,NA,NA,NA,NA,NA,NA,"",NA,"30"
"",NA,"",NA,"",NA,NA,NA,NA,NA,NA,NA,"","",1,1,"2024-08-25_17h06.09.608","IAT(Formal)","2021.2.3","Win32",60.0240096,"",NA,"",NA,NA,NA,NA,NA,NA,NA,"","","",NA,"i",1,0.637,NA,NA,NA,NA,NA,"自卑","i","",NA,0,44,44,36,1,"",NA,"",NA,NA,NA,NA,NA,NA,NA,"",NA,"",NA,NA,NA,NA,NA,NA,NA,"","","",NA,"",NA,NA,NA,NA,NA,NA,NA,"",NA,"30"
"",NA,"",NA,"",NA,NA,NA,NA,NA,NA,NA,"","",1,1,"2024-08-25_17h06.09.608","IAT(Formal)","2021.2.3","Win32",60.0240096,"",NA,"",NA,NA,NA,NA,NA,NA,NA,"","","",NA,"e",1,0.771,NA,NA,NA,NA,NA,"无私","e","",NA,0,45,45,22,1,"",NA,"",NA,NA,NA,NA,NA,NA,NA,"",NA,"",NA,NA,NA,NA,NA,NA,NA,"","","",NA,"",NA,NA,NA,NA,NA,NA,NA,"",NA,"30"
"",NA,"",NA,"",NA,NA,NA,NA,NA,NA,NA,"","",1,1,"2024-08-25_17h06.09.608","IAT(Formal)","2021.2.3","Win32",60.0240096,"",NA,"",NA,NA,NA,NA,NA,NA,NA,"","","",NA,"i",1,0.582,NA,NA,NA,NA,NA,"悲观","i","",NA,0,46,46,34,1,"",NA,"",NA,NA,NA,NA,NA,NA,NA,"",NA,"",NA,NA,NA,NA,NA,NA,NA,"","","",NA,"",NA,NA,NA,NA,NA,NA,NA,"",NA,"30"
"",NA,"",NA,"",NA,NA,NA,NA,NA,NA,NA,"","",1,1,"2024-08-25_17h06.09.608","IAT(Formal)","2021.2.3","Win32",60.0240096,"",NA,"",NA,NA,NA,NA,NA,NA,NA,"","","",NA,"e",1,0.697,NA,NA,NA,NA,NA,"公正","e","",NA,0,47,47,23,1,"",NA,"",NA,NA,NA,NA,NA,NA,NA,"",NA,"",NA,NA,NA,NA,NA,NA,NA,"","","",NA,"",NA,NA,NA,NA,NA,NA,NA,"",NA,"30"
"",NA,"",NA,"",NA,NA,NA,NA,NA,NA,NA,"","",1,1,"2024-08-25_17h06.09.608","IAT(Formal)","2021.2.3","Win32",60.0240096,"",NA,"",NA,NA,NA,NA,NA,NA,NA,"","","",NA,"i",1,0.665,NA,NA,NA,NA,NA,"他们","i","",NA,0,48,48,66,1,"",NA,"",NA,NA,NA,NA,NA,NA,NA,"",NA,"",NA,NA,NA,NA,NA,NA,NA,"","","",NA,"",NA,NA,NA,NA,NA,NA,NA,"",NA,"30"
"",NA,"",NA,"",NA,NA,NA,NA,NA,NA,NA,"","",1,1,"2024-08-25_17h06.09.608","IAT(Formal)","2021.2.3","Win32",60.0240096,"",NA,"",NA,NA,NA,NA,NA,NA,NA,"","","",NA,"e",1,0.713,NA,NA,NA,NA,NA,"机智","e","",NA,0,49,49,19,1,"",NA,"",NA,NA,NA,NA,NA,NA,NA,"",NA,"",NA,NA,NA,NA,NA,NA,NA,"","","",NA,"",NA,NA,NA,NA,NA,NA,NA,"",NA,"30"
"",NA,"",NA,"",NA,NA,NA,NA,NA,NA,NA,"","",1,1,"2024-08-25_17h06.09.608","IAT(Formal)","2021.2.3","Win32",60.0240096,"",NA,"",NA,NA,NA,NA,NA,NA,NA,"","","",NA,"e",1,0.735,NA,NA,NA,NA,NA,"乐观","e","",NA,0,50,50,14,1,"",NA,"",NA,NA,NA,NA,NA,NA,NA,"",NA,"",NA,NA,NA,NA,NA,NA,NA,"","","",NA,"",NA,NA,NA,NA,NA,NA,NA,"",NA,"30"
"",NA,"",NA,"",NA,NA,NA,NA,NA,NA,NA,"","",1,1,"2024-08-25_17h06.09.608","IAT(Formal)","2021.2.3","Win32",60.0240096,"",NA,"",NA,NA,NA,NA,NA,NA,NA,"","","",NA,"i",1,0.529,NA,NA,NA,NA,NA,"野蛮","i","",NA,0,51,51,46,1,"",NA,"",NA,NA,NA,NA,NA,NA,NA,"",NA,"",NA,NA,NA,NA,NA,NA,NA,"","","",NA,"",NA,NA,NA,NA,NA,NA,NA,"",NA,"30"
"",NA,"",NA,"",NA,NA,NA,NA,NA,NA,NA,"","",1,1,"2024-08-25_17h06.09.608","IAT(Formal)","2021.2.3","Win32",60.0240096,"",NA,"",NA,NA,NA,NA,NA,NA,NA,"","","",NA,"i",1,0.699,NA,NA,NA,NA,NA,"他的","i","",NA,0,52,52,67,1,"",NA,"",NA,NA,NA,NA,NA,NA,NA,"",NA,"",NA,NA,NA,NA,NA,NA,NA,"","","",NA,"",NA,NA,NA,NA,NA,NA,NA,"",NA,"30"
"",NA,"",NA,"",NA,NA,NA,NA,NA,NA,NA,"","",1,1,"2024-08-25_17h06.09.608","IAT(Formal)","2021.2.3","Win32",60.0240096,"",NA,"",NA,NA,NA,NA,NA,NA,NA,"","","",NA,"i",1,0.553,NA,NA,NA,NA,NA,"其他","i","",NA,0,53,53,59,1,"",NA,"",NA,NA,NA,NA,NA,NA,NA,"",NA,"",NA,NA,NA,NA,NA,NA,NA,"","","",NA,"",NA,NA,NA,NA,NA,NA,NA,"",NA,"30"
"",NA,"",NA,"",NA,NA,NA,NA,NA,NA,NA,"","",1,1,"2024-08-25_17h06.09.608","IAT(Formal)","2021.2.3","Win32",60.0240096,"",NA,"",NA,NA,NA,NA,NA,NA,NA,"","","",NA,"e",1,0.493,NA,NA,NA,NA,NA,"自己","e","",NA,0,54,54,63,1,"",NA,"",NA,NA,NA,NA,NA,NA,NA,"",NA,"",NA,NA,NA,NA,NA,NA,NA,"","","",NA,"",NA,NA,NA,NA,NA,NA,NA,"",NA,"30"
"",NA,"",NA,"",NA,NA,NA,NA,NA,NA,NA,"","",1,1,"2024-08-25_17h06.09.608","IAT(Formal)","2021.2.3","Win32",60.0240096,"",NA,"",NA,NA,NA,NA,NA,NA,NA,"","","",NA,"i",1,0.537,NA,NA,NA,NA,NA,"他的","i","",NA,0,55,55,7,1,"",NA,"",NA,NA,NA,NA,NA,NA,NA,"",NA,"",NA,NA,NA,NA,NA,NA,NA,"","","",NA,"",NA,NA,NA,NA,NA,NA,NA,"",NA,"30"
"",NA,"",NA,"",NA,NA,NA,NA,NA,NA,NA,"","",1,1,"2024-08-25_17h06.09.608","IAT(Formal)","2021.2.3","Win32",60.0240096,"",NA,"",NA,NA,NA,NA,NA,NA,NA,"","","",NA,"e",1,0.683,NA,NA,NA,NA,NA,"勤奋","e","",NA,0,56,56,18,1,"",NA,"",NA,NA,NA,NA,NA,NA,NA,"",NA,"",NA,NA,NA,NA,NA,NA,NA,"","","",NA,"",NA,NA,NA,NA,NA,NA,NA,"",NA,"30"
"",NA,"",NA,"",NA,NA,NA,NA,NA,NA,NA,"","",1,1,"2024-08-25_17h06.09.608","IAT(Formal)","2021.2.3","Win32",60.0240096,"",NA,"",NA,NA,NA,NA,NA,NA,NA,"","","",NA,"i",1,0.547,NA,NA,NA,NA,NA,"下贱","i","",NA,0,57,57,49,1,"",NA,"",NA,NA,NA,NA,NA,NA,NA,"",NA,"",NA,NA,NA,NA,NA,NA,NA,"","","",NA,"",NA,NA,NA,NA,NA,NA,NA,"",NA,"30"
"",NA,"",NA,"",NA,NA,NA,NA,NA,NA,NA,"","",1,1,"2024-08-25_17h06.09.608","IAT(Formal)","2021.2.3","Win32",60.0240096,"",NA,"",NA,NA,NA,NA,NA,NA,NA,"","","",NA,"i",1,0.621,NA,NA,NA,NA,NA,"他的","i","",NA,0,58,58,77,1,"",NA,"",NA,NA,NA,NA,NA,NA,NA,"",NA,"",NA,NA,NA,NA,NA,NA,NA,"","","",NA,"",NA,NA,NA,NA,NA,NA,NA,"",NA,"30"
"",NA,"",NA,"",NA,NA,NA,NA,NA,NA,NA,"","",1,1,"2024-08-25_17h06.09.608","IAT(Formal)","2021.2.3","Win32",60.0240096,"",NA,"",NA,NA,NA,NA,NA,NA,NA,"","","",NA,"i",1,0.683,NA,NA,NA,NA,NA,"消极","i","",NA,0,59,59,35,1,"",NA,"",NA,NA,NA,NA,NA,NA,NA,"",NA,"",NA,NA,NA,NA,NA,NA,NA,"","","",NA,"",NA,NA,NA,NA,NA,NA,NA,"",NA,"30"
"",NA,"",NA,"",NA,NA,NA,NA,NA,NA,NA,"","",1,1,"2024-08-25_17h06.09.608","IAT(Formal)","2021.2.3","Win32",60.0240096,"",NA,"",NA,NA,NA,NA,NA,NA,NA,"","","",NA,"i",1,0.504,NA,NA,NA,NA,NA,"冒失","i","",NA,0,60,60,39,1,"",NA,"",NA,NA,NA,NA,NA,NA,NA,"",NA,"",NA,NA,NA,NA,NA,NA,NA,"","","",NA,"",NA,NA,NA,NA,NA,NA,NA,"",NA,"30"
"",NA,"",NA,"",NA,NA,NA,NA,NA,NA,NA,"","",1,1,"2024-08-25_17h06.09.608","IAT(Formal)","2021.2.3","Win32",60.0240096,"",NA,"",NA,NA,NA,NA,NA,NA,NA,"","","",NA,"e",1,0.666,NA,NA,NA,NA,NA,"稳重","e","",NA,0,61,61,21,1,"",NA,"",NA,NA,NA,NA,NA,NA,NA,"",NA,"",NA,NA,NA,NA,NA,NA,NA,"","","",NA,"",NA,NA,NA,NA,NA,NA,NA,"",NA,"30"
"",NA,"",NA,"",NA,NA,NA,NA,NA,NA,NA,"","",1,1,"2024-08-25_17h06.09.608","IAT(Formal)","2021.2.3","Win32",60.0240096,"",NA,"",NA,NA,NA,NA,NA,NA,NA,"","","",NA,"i",1,0.595,NA,NA,NA,NA,NA,"凶狠","i","",NA,0,62,62,42,1,"",NA,"",NA,NA,NA,NA,NA,NA,NA,"",NA,"",NA,NA,NA,NA,NA,NA,NA,"","","",NA,"",NA,NA,NA,NA,NA,NA,NA,"",NA,"30"
"",NA,"",NA,"",NA,NA,NA,NA,NA,NA,NA,"","",1,1,"2024-08-25_17h06.09.608","IAT(Formal)","2021.2.3","Win32",60.0240096,"",NA,"",NA,NA,NA,NA,NA,NA,NA,"","","",NA,"e",1,0.835,NA,NA,NA,NA,NA,"俺","e","",NA,0,63,63,4,1,"",NA,"",NA,NA,NA,NA,NA,NA,NA,"",NA,"",NA,NA,NA,NA,NA,NA,NA,"","","",NA,"",NA,NA,NA,NA,NA,NA,NA,"",NA,"30"
"",NA,"",NA,"",NA,NA,NA,NA,NA,NA,NA,"","",1,1,"2024-08-25_17h06.09.608","IAT(Formal)","2021.2.3","Win32",60.0240096,"",NA,"",NA,NA,NA,NA,NA,NA,NA,"","","",NA,"e",1,0.55,NA,NA,NA,NA,NA,"自己","e","",NA,0,64,64,3,1,"",NA,"",NA,NA,NA,NA,NA,NA,NA,"",NA,"",NA,NA,NA,NA,NA,NA,NA,"","","",NA,"",NA,NA,NA,NA,NA,NA,NA,"",NA,"30"
"",NA,"",NA,"",NA,NA,NA,NA,NA,NA,NA,"","",1,1,"2024-08-25_17h06.09.608","IAT(Formal)","2021.2.3","Win32",60.0240096,"",NA,"",NA,NA,NA,NA,NA,NA,NA,"","","",NA,"e",1,0.547,NA,NA,NA,NA,NA,"勇敢","e","",NA,0,65,65,17,1,"",NA,"",NA,NA,NA,NA,NA,NA,NA,"",NA,"",NA,NA,NA,NA,NA,NA,NA,"","","",NA,"",NA,NA,NA,NA,NA,NA,NA,"",NA,"30"
"",NA,"",NA,"",NA,NA,NA,NA,NA,NA,NA,"","",1,1,"2024-08-25_17h06.09.608","IAT(Formal)","2021.2.3","Win32",60.0240096,"",NA,"",NA,NA,NA,NA,NA,NA,NA,"","","",NA,"i",1,0.75,NA,NA,NA,NA,NA,"他","i","",NA,0,66,66,75,1,"",NA,"",NA,NA,NA,NA,NA,NA,NA,"",NA,"",NA,NA,NA,NA,NA,NA,NA,"","","",NA,"",NA,NA,NA,NA,NA,NA,NA,"",NA,"30"
"",NA,"",NA,"",NA,NA,NA,NA,NA,NA,NA,"","",1,1,"2024-08-25_17h06.09.608","IAT(Formal)","2021.2.3","Win32",60.0240096,"",NA,"",NA,NA,NA,NA,NA,NA,NA,"","","",NA,"e",1,0.596,NA,NA,NA,NA,NA,"我","e","",NA,0,67,67,60,1,"",NA,"",NA,NA,NA,NA,NA,NA,NA,"",NA,"",NA,NA,NA,NA,NA,NA,NA,"","","",NA,"",NA,NA,NA,NA,NA,NA,NA,"",NA,"30"
"",NA,"",NA,"",NA,NA,NA,NA,NA,NA,NA,"","",1,1,"2024-08-25_17h06.09.608","IAT(Formal)","2021.2.3","Win32",60.0240096,"",NA,"",NA,NA,NA,NA,NA,NA,NA,"","","",NA,"i",1,0.727,NA,NA,NA,NA,NA,"他人","i","",NA,0,68,68,58,1,"",NA,"",NA,NA,NA,NA,NA,NA,NA,"",NA,"",NA,NA,NA,NA,NA,NA,NA,"","","",NA,"",NA,NA,NA,NA,NA,NA,NA,"",NA,"30"
"",NA,"",NA,"",NA,NA,NA,NA,NA,NA,NA,"","",1,1,"2024-08-25_17h06.09.608","IAT(Formal)","2021.2.3","Win32",60.0240096,"",NA,"",NA,NA,NA,NA,NA,NA,NA,"","","",NA,"i",1,0.716,NA,NA,NA,NA,NA,"刻薄","i","",NA,0,69,69,33,1,"",NA,"",NA,NA,NA,NA,NA,NA,NA,"",NA,"",NA,NA,NA,NA,NA,NA,NA,"","","",NA,"",NA,NA,NA,NA,NA,NA,NA,"",NA,"30"
"",NA,"",NA,"",NA,NA,NA,NA,NA,NA,NA,"","",1,1,"2024-08-25_17h06.09.608","IAT(Formal)","2021.2.3","Win32",60.0240096,"",NA,"",NA,NA,NA,NA,NA,NA,NA,"","","",NA,"i",1,0.553,NA,NA,NA,NA,NA,"他","i","",NA,0,70,70,55,1,"",NA,"",NA,NA,NA,NA,NA,NA,NA,"",NA,"",NA,NA,NA,NA,NA,NA,NA,"","","",NA,"",NA,NA,NA,NA,NA,NA,NA,"",NA,"30"
"",NA,"",NA,"",NA,NA,NA,NA,NA,NA,NA,"","",1,1,"2024-08-25_17h06.09.608","IAT(Formal)","2021.2.3","Win32",60.0240096,"",NA,"",NA,NA,NA,NA,NA,NA,NA,"","","",NA,"e",1,0.576,NA,NA,NA,NA,NA,"崇高","e","",NA,0,71,71,11,1,"",NA,"",NA,NA,NA,NA,NA,NA,NA,"",NA,"",NA,NA,NA,NA,NA,NA,NA,"","","",NA,"",NA,NA,NA,NA,NA,NA,NA,"",NA,"30"
"",NA,"",NA,"",NA,NA,NA,NA,NA,NA,NA,"","",1,1,"2024-08-25_17h06.09.608","IAT(Formal)","2021.2.3","Win32",60.0240096,"",NA,"",NA,NA,NA,NA,NA,NA,NA,"","","",NA,"i",1,0.582,NA,NA,NA,NA,NA,"他人","i","",NA,0,72,72,68,1,"",NA,"",NA,NA,NA,NA,NA,NA,NA,"",NA,"",NA,NA,NA,NA,NA,NA,NA,"","","",NA,"",NA,NA,NA,NA,NA,NA,NA,"",NA,"30"
"",NA,"",NA,"",NA,NA,NA,NA,NA,NA,NA,"","",1,1,"2024-08-25_17h06.09.608","IAT(Formal)","2021.2.3","Win32",60.0240096,"",NA,"",NA,NA,NA,NA,NA,NA,NA,"","","",NA,"e",1,0.695,NA,NA,NA,NA,NA,"我的","e","",NA,0,73,73,71,1,"",NA,"",NA,NA,NA,NA,NA,NA,NA,"",NA,"",NA,NA,NA,NA,NA,NA,NA,"","","",NA,"",NA,NA,NA,NA,NA,NA,NA,"",NA,"30"
"",NA,"",NA,"",NA,NA,NA,NA,NA,NA,NA,"","",1,1,"2024-08-25_17h06.09.608","IAT(Formal)","2021.2.3","Win32",60.0240096,"",NA,"",NA,NA,NA,NA,NA,NA,NA,"","","",NA,"i",1,0.721,NA,NA,NA,NA,NA,"执拗","i","",NA,0,74,74,40,1,"",NA,"",NA,NA,NA,NA,NA,NA,NA,"",NA,"",NA,NA,NA,NA,NA,NA,NA,"","","",NA,"",NA,NA,NA,NA,NA,NA,NA,"",NA,"30"
"",NA,"",NA,"",NA,NA,NA,NA,NA,NA,NA,"","",1,1,"2024-08-25_17h06.09.608","IAT(Formal)","2021.2.3","Win32",60.0240096,"",NA,"",NA,NA,NA,NA,NA,NA,NA,"","","",NA,"e",1,0.971,NA,NA,NA,NA,NA,"冷静","e","",NA,0,75,75,26,1,"",NA,"",NA,NA,NA,NA,NA,NA,NA,"",NA,"",NA,NA,NA,NA,NA,NA,NA,"","","",NA,"",NA,NA,NA,NA,NA,NA,NA,"",NA,"30"
"",NA,"",NA,"",NA,NA,NA,NA,NA,NA,NA,"","",1,1,"2024-08-25_17h06.09.608","IAT(Formal)","2021.2.3","Win32",60.0240096,"",NA,"",NA,NA,NA,NA,NA,NA,NA,"","","",NA,"i",1,0.633,NA,NA,NA,NA,NA,"鲁莽","i","",NA,0,76,76,38,1,"",NA,"",NA,NA,NA,NA,NA,NA,NA,"",NA,"",NA,NA,NA,NA,NA,NA,NA,"","","",NA,"",NA,NA,NA,NA,NA,NA,NA,"",NA,"30"
"",NA,"",NA,"",NA,NA,NA,NA,NA,NA,NA,"","",1,1,"2024-08-25_17h06.09.608","IAT(Formal)","2021.2.3","Win32",60.0240096,"",NA,"",NA,NA,NA,NA,NA,NA,NA,"","","",NA,"i",1,0.616,NA,NA,NA,NA,NA,"散漫","i","",NA,0,77,77,41,1,"",NA,"",NA,NA,NA,NA,NA,NA,NA,"",NA,"",NA,NA,NA,NA,NA,NA,NA,"","","",NA,"",NA,NA,NA,NA,NA,NA,NA,"",NA,"30"
"",NA,"",NA,"",NA,NA,NA,NA,NA,NA,NA,"","",1,1,"2024-08-25_17h06.09.608","IAT(Formal)","2021.2.3","Win32",60.0240096,"",NA,"",NA,NA,NA,NA,NA,NA,NA,"","","",NA,"i",1,0.531,NA,NA,NA,NA,NA,"卑鄙","i","",NA,0,78,78,30,1,"",NA,"",NA,NA,NA,NA,NA,NA,NA,"",NA,"",NA,NA,NA,NA,NA,NA,NA,"","","",NA,"",NA,NA,NA,NA,NA,NA,NA,"",NA,"30"
"",NA,"",NA,"",NA,NA,NA,NA,NA,NA,NA,"","",1,1,"2024-08-25_17h06.09.608","IAT(Formal)","2021.2.3","Win32",60.0240096,"",NA,"",NA,NA,NA,NA,NA,NA,NA,"","","",NA,"i",1,0.5,NA,NA,NA,NA,NA,"愚蠢","i","",NA,0,79,79,32,1,"",NA,"",NA,NA,NA,NA,NA,NA,NA,"",NA,"",NA,NA,NA,NA,NA,NA,NA,"","","",NA,"",NA,NA,NA,NA,NA,NA,NA,"",NA,"30"
"",NA,"",NA,"",NA,NA,NA,NA,NA,NA,NA,"","",1,1,"2024-08-25_17h06.09.608","IAT(Formal)","2021.2.3","Win32",60.0240096,"",NA,"",NA,NA,NA,NA,NA,NA,NA,"","","",NA,"e",1,0.498,NA,NA,NA,NA,NA,"自己","e","",NA,1,0,80,3,1,"",NA,"",NA,NA,NA,NA,NA,NA,NA,"",NA,"",NA,NA,NA,NA,NA,NA,NA,"","","",NA,"",NA,NA,NA,NA,NA,NA,NA,"",NA,"30"
"",NA,"",NA,"",NA,NA,NA,NA,NA,NA,NA,"","",1,1,"2024-08-25_17h06.09.608","IAT(Formal)","2021.2.3","Win32",60.0240096,"",NA,"",NA,NA,NA,NA,NA,NA,NA,"","","",NA,"e",1,0.501,NA,NA,NA,NA,NA,"我的","e","",NA,1,1,81,71,1,"",NA,"",NA,NA,NA,NA,NA,NA,NA,"",NA,"",NA,NA,NA,NA,NA,NA,NA,"","","",NA,"",NA,NA,NA,NA,NA,NA,NA,"",NA,"30"
"",NA,"",NA,"",NA,NA,NA,NA,NA,NA,NA,"","",1,1,"2024-08-25_17h06.09.608","IAT(Formal)","2021.2.3","Win32",60.0240096,"",NA,"",NA,NA,NA,NA,NA,NA,NA,"","","",NA,"e",0,0.465,NA,NA,NA,NA,NA,"他人","i","",NA,1,2,82,78,1,"",NA,"",NA,NA,NA,NA,NA,NA,NA,"",NA,"",NA,NA,NA,NA,NA,NA,NA,"","","",NA,"",NA,NA,NA,NA,NA,NA,NA,"",NA,"30"
"",NA,"",NA,"",NA,NA,NA,NA,NA,NA,NA,"","",1,1,"2024-08-25_17h06.09.608","IAT(Formal)","2021.2.3","Win32",60.0240096,"",NA,"",NA,NA,NA,NA,NA,NA,NA,"","","",NA,"i",1,0.916,NA,NA,NA,NA,NA,"卑鄙","i","",NA,1,3,83,30,1,"",NA,"",NA,NA,NA,NA,NA,NA,NA,"",NA,"",NA,NA,NA,NA,NA,NA,NA,"","","",NA,"",NA,NA,NA,NA,NA,NA,NA,"",NA,"30"
"",NA,"",NA,"",NA,NA,NA,NA,NA,NA,NA,"","",1,1,"2024-08-25_17h06.09.608","IAT(Formal)","2021.2.3","Win32",60.0240096,"",NA,"",NA,NA,NA,NA,NA,NA,NA,"","","",NA,"e",1,0.614,NA,NA,NA,NA,NA,"聪明","e","",NA,1,4,84,12,1,"",NA,"",NA,NA,NA,NA,NA,NA,NA,"",NA,"",NA,NA,NA,NA,NA,NA,NA,"","","",NA,"",NA,NA,NA,NA,NA,NA,NA,"",NA,"30"
"",NA,"",NA,"",NA,NA,NA,NA,NA,NA,NA,"","",1,1,"2024-08-25_17h06.09.608","IAT(Formal)","2021.2.3","Win32",60.0240096,"",NA,"",NA,NA,NA,NA,NA,NA,NA,"","","",NA,"e",1,0.712,NA,NA,NA,NA,NA,"我","e","",NA,1,5,85,0,1,"",NA,"",NA,NA,NA,NA,NA,NA,NA,"",NA,"",NA,NA,NA,NA,NA,NA,NA,"","","",NA,"",NA,NA,NA,NA,NA,NA,NA,"",NA,"30"
"",NA,"",NA,"",NA,NA,NA,NA,NA,NA,NA,"","",1,1,"2024-08-25_17h06.09.608","IAT(Formal)","2021.2.3","Win32",60.0240096,"",NA,"",NA,NA,NA,NA,NA,NA,NA,"","","",NA,"e",1,0.767,NA,NA,NA,NA,NA,"认真","e","",NA,1,6,86,20,1,"",NA,"",NA,NA,NA,NA,NA,NA,NA,"",NA,"",NA,NA,NA,NA,NA,NA,NA,"","","",NA,"",NA,NA,NA,NA,NA,NA,NA,"",NA,"30"
"",NA,"",NA,"",NA,NA,NA,NA,NA,NA,NA,"","",1,1,"2024-08-25_17h06.09.608","IAT(Formal)","2021.2.3","Win32",60.0240096,"",NA,"",NA,NA,NA,NA,NA,NA,NA,"","","",NA,"e",1,0.551,NA,NA,NA,NA,NA,"自己","e","",NA,1,7,87,53,1,"",NA,"",NA,NA,NA,NA,NA,NA,NA,"",NA,"",NA,NA,NA,NA,NA,NA,NA,"","","",NA,"",NA,NA,NA,NA,NA,NA,NA,"",NA,"30"
"",NA,"",NA,"",NA,NA,NA,NA,NA,NA,NA,"","",1,1,"2024-08-25_17h06.09.608","IAT(Formal)","2021.2.3","Win32",60.0240096,"",NA,"",NA,NA,NA,NA,NA,NA,NA,"","","",NA,"i",1,0.564,NA,NA,NA,NA,NA,"鲁莽","i","",NA,1,8,88,38,1,"",NA,"",NA,NA,NA,NA,NA,NA,NA,"",NA,"",NA,NA,NA,NA,NA,NA,NA,"","","",NA,"",NA,NA,NA,NA,NA,NA,NA,"",NA,"30"
"",NA,"",NA,"",NA,NA,NA,NA,NA,NA,NA,"","",1,1,"2024-08-25_17h06.09.608","IAT(Formal)","2021.2.3","Win32",60.0240096,"",NA,"",NA,NA,NA,NA,NA,NA,NA,"","","",NA,"e",1,0.515,NA,NA,NA,NA,NA,"我","e","",NA,1,9,89,50,1,"",NA,"",NA,NA,NA,NA,NA,NA,NA,"",NA,"",NA,NA,NA,NA,NA,NA,NA,"","","",NA,"",NA,NA,NA,NA,NA,NA,NA,"",NA,"30"
"",NA,"",NA,"",NA,NA,NA,NA,NA,NA,NA,"","",1,1,"2024-08-25_17h06.09.608","IAT(Formal)","2021.2.3","Win32",60.0240096,"",NA,"",NA,NA,NA,NA,NA,NA,NA,"","","",NA,"e",1,0.682,NA,NA,NA,NA,NA,"我们","e","",NA,1,10,90,2,1,"",NA,"",NA,NA,NA,NA,NA,NA,NA,"",NA,"",NA,NA,NA,NA,NA,NA,NA,"","","",NA,"",NA,NA,NA,NA,NA,NA,NA,"",NA,"30"
"",NA,"",NA,"",NA,NA,NA,NA,NA,NA,NA,"","",1,1,"2024-08-25_17h06.09.608","IAT(Formal)","2021.2.3","Win32",60.0240096,"",NA,"",NA,NA,NA,NA,NA,NA,NA,"","","",NA,"i",1,0.582,NA,NA,NA,NA,NA,"他","i","",NA,1,11,91,75,1,"",NA,"",NA,NA,NA,NA,NA,NA,NA,"",NA,"",NA,NA,NA,NA,NA,NA,NA,"","","",NA,"",NA,NA,NA,NA,NA,NA,NA,"",NA,"30"
"",NA,"",NA,"",NA,NA,NA,NA,NA,NA,NA,"","",1,1,"2024-08-25_17h06.09.608","IAT(Formal)","2021.2.3","Win32",60.0240096,"",NA,"",NA,NA,NA,NA,NA,NA,NA,"","","",NA,"i",1,0.711,NA,NA,NA,NA,NA,"其他","i","",NA,1,12,92,59,1,"",NA,"",NA,NA,NA,NA,NA,NA,NA,"",NA,"",NA,NA,NA,NA,NA,NA,NA,"","","",NA,"",NA,NA,NA,NA,NA,NA,NA,"",NA,"30"
"",NA,"",NA,"",NA,NA,NA,NA,NA,NA,NA,"","",1,1,"2024-08-25_17h06.09.608","IAT(Formal)","2021.2.3","Win32",60.0240096,"",NA,"",NA,NA,NA,NA,NA,NA,NA,"","","",NA,"e",1,0.601,NA,NA,NA,NA,NA,"诚实","e","",NA,1,13,93,15,1,"",NA,"",NA,NA,NA,NA,NA,NA,NA,"",NA,"",NA,NA,NA,NA,NA,NA,NA,"","","",NA,"",NA,NA,NA,NA,NA,NA,NA,"",NA,"30"
"",NA,"",NA,"",NA,NA,NA,NA,NA,NA,NA,"","",1,1,"2024-08-25_17h06.09.608","IAT(Formal)","2021.2.3","Win32",60.0240096,"",NA,"",NA,NA,NA,NA,NA,NA,NA,"","","",NA,"i",1,0.547,NA,NA,NA,NA,NA,"下贱","i","",NA,1,14,94,49,1,"",NA,"",NA,NA,NA,NA,NA,NA,NA,"",NA,"",NA,NA,NA,NA,NA,NA,NA,"","","",NA,"",NA,NA,NA,NA,NA,NA,NA,"",NA,"30"
"",NA,"",NA,"",NA,NA,NA,NA,NA,NA,NA,"","",1,1,"2024-08-25_17h06.09.608","IAT(Formal)","2021.2.3","Win32",60.0240096,"",NA,"",NA,NA,NA,NA,NA,NA,NA,"","","",NA,"e",1,0.652,NA,NA,NA,NA,NA,"勇敢","e","",NA,1,15,95,17,1,"",NA,"",NA,NA,NA,NA,NA,NA,NA,"",NA,"",NA,NA,NA,NA,NA,NA,NA,"","","",NA,"",NA,NA,NA,NA,NA,NA,NA,"",NA,"30"
"",NA,"",NA,"",NA,NA,NA,NA,NA,NA,NA,"","",1,1,"2024-08-25_17h06.09.608","IAT(Formal)","2021.2.3","Win32",60.0240096,"",NA,"",NA,NA,NA,NA,NA,NA,NA,"","","",NA,"i",1,0.555,NA,NA,NA,NA,NA,"他的","i","",NA,1,16,96,67,1,"",NA,"",NA,NA,NA,NA,NA,NA,NA,"",NA,"",NA,NA,NA,NA,NA,NA,NA,"","","",NA,"",NA,NA,NA,NA,NA,NA,NA,"",NA,"30"
"",NA,"",NA,"",NA,NA,NA,NA,NA,NA,NA,"","",1,1,"2024-08-25_17h06.09.608","IAT(Formal)","2021.2.3","Win32",60.0240096,"",NA,"",NA,NA,NA,NA,NA,NA,NA,"","","",NA,"e",1,0.632,NA,NA,NA,NA,NA,"我的","e","",NA,1,17,97,1,1,"",NA,"",NA,NA,NA,NA,NA,NA,NA,"",NA,"",NA,NA,NA,NA,NA,NA,NA,"","","",NA,"",NA,NA,NA,NA,NA,NA,NA,"",NA,"30"
"",NA,"",NA,"",NA,NA,NA,NA,NA,NA,NA,"","",1,1,"2024-08-25_17h06.09.608","IAT(Formal)","2021.2.3","Win32",60.0240096,"",NA,"",NA,NA,NA,NA,NA,NA,NA,"","","",NA,"i",1,0.582,NA,NA,NA,NA,NA,"冒失","i","",NA,1,18,98,39,1,"",NA,"",NA,NA,NA,NA,NA,NA,NA,"",NA,"",NA,NA,NA,NA,NA,NA,NA,"","","",NA,"",NA,NA,NA,NA,NA,NA,NA,"",NA,"30"
"",NA,"",NA,"",NA,NA,NA,NA,NA,NA,NA,"","",1,1,"2024-08-25_17h06.09.608","IAT(Formal)","2021.2.3","Win32",60.0240096,"",NA,"",NA,NA,NA,NA,NA,NA,NA,"","","",NA,"e",1,0.569,NA,NA,NA,NA,NA,"我们","e","",NA,1,19,99,52,1,"",NA,"",NA,NA,NA,NA,NA,NA,NA,"",NA,"",NA,NA,NA,NA,NA,NA,NA,"","","",NA,"",NA,NA,NA,NA,NA,NA,NA,"",NA,"30"
"",NA,"",NA,"",NA,NA,NA,NA,NA,NA,NA,"","",1,1,"2024-08-25_17h06.09.608","IAT(Formal)","2021.2.3","Win32",60.0240096,"",NA,"",NA,NA,NA,NA,NA,NA,NA,"","","",NA,"i",1,0.55,NA,NA,NA,NA,NA,"他","i","",NA,1,20,100,55,1,"",NA,"",NA,NA,NA,NA,NA,NA,NA,"",NA,"",NA,NA,NA,NA,NA,NA,NA,"","","",NA,"",NA,NA,NA,NA,NA,NA,NA,"",NA,"30"
"",NA,"",NA,"",NA,NA,NA,NA,NA,NA,NA,"","",1,1,"2024-08-25_17h06.09.608","IAT(Formal)","2021.2.3","Win32",60.0240096,"",NA,"",NA,NA,NA,NA,NA,NA,NA,"","","",NA,"e",1,0.569,NA,NA,NA,NA,NA,"我","e","",NA,1,21,101,60,1,"",NA,"",NA,NA,NA,NA,NA,NA,NA,"",NA,"",NA,NA,NA,NA,NA,NA,NA,"","","",NA,"",NA,NA,NA,NA,NA,NA,NA,"",NA,"30"
"",NA,"",NA,"",NA,NA,NA,NA,NA,NA,NA,"","",1,1,"2024-08-25_17h06.09.608","IAT(Formal)","2021.2.3","Win32",60.0240096,"",NA,"",NA,NA,NA,NA,NA,NA,NA,"","","",NA,"e",1,0.652,NA,NA,NA,NA,NA,"公正","e","",NA,1,22,102,23,1,"",NA,"",NA,NA,NA,NA,NA,NA,NA,"",NA,"",NA,NA,NA,NA,NA,NA,NA,"","","",NA,"",NA,NA,NA,NA,NA,NA,NA,"",NA,"30"
"",NA,"",NA,"",NA,NA,NA,NA,NA,NA,NA,"","",1,1,"2024-08-25_17h06.09.608","IAT(Formal)","2021.2.3","Win32",60.0240096,"",NA,"",NA,NA,NA,NA,NA,NA,NA,"","","",NA,"e",1,0.582,NA,NA,NA,NA,NA,"我的","e","",NA,1,23,103,61,1,"",NA,"",NA,NA,NA,NA,NA,NA,NA,"",NA,"",NA,NA,NA,NA,NA,NA,NA,"","","",NA,"",NA,NA,NA,NA,NA,NA,NA,"",NA,"30"
"",NA,"",NA,"",NA,NA,NA,NA,NA,NA,NA,"","",1,1,"2024-08-25_17h06.09.608","IAT(Formal)","2021.2.3","Win32",60.0240096,"",NA,"",NA,NA,NA,NA,NA,NA,NA,"","","",NA,"e",1,0.882,NA,NA,NA,NA,NA,"无私","e","",NA,1,24,104,22,1,"",NA,"",NA,NA,NA,NA,NA,NA,NA,"",NA,"",NA,NA,NA,NA,NA,NA,NA,"","","",NA,"",NA,NA,NA,NA,NA,NA,NA,"",NA,"30"
"",NA,"",NA,"",NA,NA,NA,NA,NA,NA,NA,"","",1,1,"2024-08-25_17h06.09.608","IAT(Formal)","2021.2.3","Win32",60.0240096,"",NA,"",NA,NA,NA,NA,NA,NA,NA,"","","",NA,"e",1,0.598,NA,NA,NA,NA,NA,"稳重","e","",NA,1,25,105,21,1,"",NA,"",NA,NA,NA,NA,NA,NA,NA,"",NA,"",NA,NA,NA,NA,NA,NA,NA,"","","",NA,"",NA,NA,NA,NA,NA,NA,NA,"",NA,"30"
"",NA,"",NA,"",NA,NA,NA,NA,NA,NA,NA,"","",1,1,"2024-08-25_17h06.09.608","IAT(Formal)","2021.2.3","Win32",60.0240096,"",NA,"",NA,NA,NA,NA,NA,NA,NA,"","","",NA,"i",1,0.639,NA,NA,NA,NA,NA,"他","i","",NA,1,26,106,65,1,"",NA,"",NA,NA,NA,NA,NA,NA,NA,"",NA,"",NA,NA,NA,NA,NA,NA,NA,"","","",NA,"",NA,NA,NA,NA,NA,NA,NA,"",NA,"30"
"",NA,"",NA,"",NA,NA,NA,NA,NA,NA,NA,"","",1,1,"2024-08-25_17h06.09.608","IAT(Formal)","2021.2.3","Win32",60.0240096,"",NA,"",NA,NA,NA,NA,NA,NA,NA,"","","",NA,"i",1,0.68,NA,NA,NA,NA,NA,"悲观","i","",NA,1,27,107,34,1,"",NA,"",NA,NA,NA,NA,NA,NA,NA,"",NA,"",NA,NA,NA,NA,NA,NA,NA,"","","",NA,"",NA,NA,NA,NA,NA,NA,NA,"",NA,"30"
"",NA,"",NA,"",NA,NA,NA,NA,NA,NA,NA,"","",1,1,"2024-08-25_17h06.09.608","IAT(Formal)","2021.2.3","Win32",60.0240096,"",NA,"",NA,NA,NA,NA,NA,NA,NA,"","","",NA,"i",1,0.598,NA,NA,NA,NA,NA,"凶狠","i","",NA,1,28,108,42,1,"",NA,"",NA,NA,NA,NA,NA,NA,NA,"",NA,"",NA,NA,NA,NA,NA,NA,NA,"","","",NA,"",NA,NA,NA,NA,NA,NA,NA,"",NA,"30"
"",NA,"",NA,"",NA,NA,NA,NA,NA,NA,NA,"","",1,1,"2024-08-25_17h06.09.608","IAT(Formal)","2021.2.3","Win32",60.0240096,"",NA,"",NA,NA,NA,NA,NA,NA,NA,"","","",NA,"i",1,0.638,NA,NA,NA,NA,NA,"愚蠢","i","",NA,1,29,109,32,1,"",NA,"",NA,NA,NA,NA,NA,NA,NA,"",NA,"",NA,NA,NA,NA,NA,NA,NA,"","","",NA,"",NA,NA,NA,NA,NA,NA,NA,"",NA,"30"
"",NA,"",NA,"",NA,NA,NA,NA,NA,NA,NA,"","",1,1,"2024-08-25_17h06.09.608","IAT(Formal)","2021.2.3","Win32",60.0240096,"",NA,"",NA,NA,NA,NA,NA,NA,NA,"","","",NA,"i",1,0.809,NA,NA,NA,NA,NA,"他们","i","",NA,1,30,110,66,1,"",NA,"",NA,NA,NA,NA,NA,NA,NA,"",NA,"",NA,NA,NA,NA,NA,NA,NA,"","","",NA,"",NA,NA,NA,NA,NA,NA,NA,"",NA,"30"
"",NA,"",NA,"",NA,NA,NA,NA,NA,NA,NA,"","",1,1,"2024-08-25_17h06.09.608","IAT(Formal)","2021.2.3","Win32",60.0240096,"",NA,"",NA,NA,NA,NA,NA,NA,NA,"","","",NA,"e",0,0.809,NA,NA,NA,NA,NA,"轻率","i","",NA,1,31,111,48,1,"",NA,"",NA,NA,NA,NA,NA,NA,NA,"",NA,"",NA,NA,NA,NA,NA,NA,NA,"","","",NA,"",NA,NA,NA,NA,NA,NA,NA,"",NA,"30"
"",NA,"",NA,"",NA,NA,NA,NA,NA,NA,NA,"","",1,1,"2024-08-25_17h06.09.608","IAT(Formal)","2021.2.3","Win32",60.0240096,"",NA,"",NA,NA,NA,NA,NA,NA,NA,"","","",NA,"e",1,0.715,NA,NA,NA,NA,NA,"俺","e","",NA,1,32,112,64,1,"",NA,"",NA,NA,NA,NA,NA,NA,NA,"",NA,"",NA,NA,NA,NA,NA,NA,NA,"","","",NA,"",NA,NA,NA,NA,NA,NA,NA,"",NA,"30"
"",NA,"",NA,"",NA,NA,NA,NA,NA,NA,NA,"","",1,1,"2024-08-25_17h06.09.608","IAT(Formal)","2021.2.3","Win32",60.0240096,"",NA,"",NA,NA,NA,NA,NA,NA,NA,"","","",NA,"i",1,0.722,NA,NA,NA,NA,NA,"他们","i","",NA,1,33,113,76,1,"",NA,"",NA,NA,NA,NA,NA,NA,NA,"",NA,"",NA,NA,NA,NA,NA,NA,NA,"","","",NA,"",NA,NA,NA,NA,NA,NA,NA,"",NA,"30"
"",NA,"",NA,"",NA,NA,NA,NA,NA,NA,NA,"","",1,1,"2024-08-25_17h06.09.608","IAT(Formal)","2021.2.3","Win32",60.0240096,"",NA,"",NA,NA,NA,NA,NA,NA,NA,"","","",NA,"e",1,0.749,NA,NA,NA,NA,NA,"活泼","e","",NA,1,34,114,28,1,"",NA,"",NA,NA,NA,NA,NA,NA,NA,"",NA,"",NA,NA,NA,NA,NA,NA,NA,"","","",NA,"",NA,NA,NA,NA,NA,NA,NA,"",NA,"30"
"",NA,"",NA,"",NA,NA,NA,NA,NA,NA,NA,"","",1,1,"2024-08-25_17h06.09.608","IAT(Formal)","2021.2.3","Win32",60.0240096,"",NA,"",NA,NA,NA,NA,NA,NA,NA,"","","",NA,"e",1,0.636,NA,NA,NA,NA,NA,"俺","e","",NA,1,35,115,4,1,"",NA,"",NA,NA,NA,NA,NA,NA,NA,"",NA,"",NA,NA,NA,NA,NA,NA,NA,"","","",NA,"",NA,NA,NA,NA,NA,NA,NA,"",NA,"30"
"",NA,"",NA,"",NA,NA,NA,NA,NA,NA,NA,"","",1,1,"2024-08-25_17h06.09.608","IAT(Formal)","2021.2.3","Win32",60.0240096,"",NA,"",NA,NA,NA,NA,NA,NA,NA,"","","",NA,"i",1,0.864,NA,NA,NA,NA,NA,"他们","i","",NA,1,36,116,56,1,"",NA,"",NA,NA,NA,NA,NA,NA,NA,"",NA,"",NA,NA,NA,NA,NA,NA,NA,"","","",NA,"",NA,NA,NA,NA,NA,NA,NA,"",NA,"30"
"",NA,"",NA,"",NA,NA,NA,NA,NA,NA,NA,"","",1,1,"2024-08-25_17h06.09.608","IAT(Formal)","2021.2.3","Win32",60.0240096,"",NA,"",NA,NA,NA,NA,NA,NA,NA,"","","",NA,"i",1,0.716,NA,NA,NA,NA,NA,"他人","i","",NA,1,37,117,68,1,"",NA,"",NA,NA,NA,NA,NA,NA,NA,"",NA,"",NA,NA,NA,NA,NA,NA,NA,"","","",NA,"",NA,NA,NA,NA,NA,NA,NA,"",NA,"30"
"",NA,"",NA,"",NA,NA,NA,NA,NA,NA,NA,"","",1,1,"2024-08-25_17h06.09.608","IAT(Formal)","2021.2.3","Win32",60.0240096,"",NA,"",NA,NA,NA,NA,NA,NA,NA,"","","",NA,"e",1,0.768,NA,NA,NA,NA,NA,"俺","e","",NA,1,38,118,74,1,"",NA,"",NA,NA,NA,NA,NA,NA,NA,"",NA,"",NA,NA,NA,NA,NA,NA,NA,"","","",NA,"",NA,NA,NA,NA,NA,NA,NA,"",NA,"30"
"",NA,"",NA,"",NA,NA,NA,NA,NA,NA,NA,"","",1,1,"2024-08-25_17h06.09.608","IAT(Formal)","2021.2.3","Win32",60.0240096,"",NA,"",NA,NA,NA,NA,NA,NA,NA,"","","",NA,"e",1,0.504,NA,NA,NA,NA,NA,"俺","e","",NA,1,39,119,54,1,"",NA,"",NA,NA,NA,NA,NA,NA,NA,"",NA,"",NA,NA,NA,NA,NA,NA,NA,"","","",NA,"",NA,NA,NA,NA,NA,NA,NA,"",NA,"30"
"",NA,"",NA,"",NA,NA,NA,NA,NA,NA,NA,"","",1,1,"2024-08-25_17h06.09.608","IAT(Formal)","2021.2.3","Win32",60.0240096,"",NA,"",NA,NA,NA,NA,NA,NA,NA,"","","",NA,"i",1,0.6,NA,NA,NA,NA,NA,"他的","i","",NA,1,40,120,77,1,"",NA,"",NA,NA,NA,NA,NA,NA,NA,"",NA,"",NA,NA,NA,NA,NA,NA,NA,"","","",NA,"",NA,NA,NA,NA,NA,NA,NA,"",NA,"30"
"",NA,"",NA,"",NA,NA,NA,NA,NA,NA,NA,"","",1,1,"2024-08-25_17h06.09.608","IAT(Formal)","2021.2.3","Win32",60.0240096,"",NA,"",NA,NA,NA,NA,NA,NA,NA,"","","",NA,"i",1,0.726,NA,NA,NA,NA,NA,"固执","i","",NA,1,41,121,47,1,"",NA,"",NA,NA,NA,NA,NA,NA,NA,"",NA,"",NA,NA,NA,NA,NA,NA,NA,"","","",NA,"",NA,NA,NA,NA,NA,NA,NA,"",NA,"30"
"",NA,"",NA,"",NA,NA,NA,NA,NA,NA,NA,"","",1,1,"2024-08-25_17h06.09.608","IAT(Formal)","2021.2.3","Win32",60.0240096,"",NA,"",NA,NA,NA,NA,NA,NA,NA,"","","",NA,"i",1,0.664,NA,NA,NA,NA,NA,"猖狂","i","",NA,1,42,122,45,1,"",NA,"",NA,NA,NA,NA,NA,NA,NA,"",NA,"",NA,NA,NA,NA,NA,NA,NA,"","","",NA,"",NA,NA,NA,NA,NA,NA,NA,"",NA,"30"
"",NA,"",NA,"",NA,NA,NA,NA,NA,NA,NA,"","",1,1,"2024-08-25_17h06.09.608","IAT(Formal)","2021.2.3","Win32",60.0240096,"",NA,"",NA,NA,NA,NA,NA,NA,NA,"","","",NA,"i",1,0.822,NA,NA,NA,NA,NA,"自卑","i","",NA,1,43,123,36,1,"",NA,"",NA,NA,NA,NA,NA,NA,NA,"",NA,"",NA,NA,NA,NA,NA,NA,NA,"","","",NA,"",NA,NA,NA,NA,NA,NA,NA,"",NA,"30"
"",NA,"",NA,"",NA,NA,NA,NA,NA,NA,NA,"","",1,1,"2024-08-25_17h06.09.608","IAT(Formal)","2021.2.3","Win32",60.0240096,"",NA,"",NA,NA,NA,NA,NA,NA,NA,"","","",NA,"i",1,0.762,NA,NA,NA,NA,NA,"他的","i","",NA,1,44,124,57,1,"",NA,"",NA,NA,NA,NA,NA,NA,NA,"",NA,"",NA,NA,NA,NA,NA,NA,NA,"","","",NA,"",NA,NA,NA,NA,NA,NA,NA,"",NA,"30"
"",NA,"",NA,"",NA,NA,NA,NA,NA,NA,NA,"","",1,1,"2024-08-25_17h06.09.608","IAT(Formal)","2021.2.3","Win32",60.0240096,"",NA,"",NA,NA,NA,NA,NA,NA,NA,"","","",NA,"e",1,0.781,NA,NA,NA,NA,NA,"我","e","",NA,1,45,125,70,1,"",NA,"",NA,NA,NA,NA,NA,NA,NA,"",NA,"",NA,NA,NA,NA,NA,NA,NA,"","","",NA,"",NA,NA,NA,NA,NA,NA,NA,"",NA,"30"
"",NA,"",NA,"",NA,NA,NA,NA,NA,NA,NA,"","",1,1,"2024-08-25_17h06.09.608","IAT(Formal)","2021.2.3","Win32",60.0240096,"",NA,"",NA,NA,NA,NA,NA,NA,NA,"","","",NA,"e",1,0.738,NA,NA,NA,NA,NA,"冷静","e","",NA,1,46,126,26,1,"",NA,"",NA,NA,NA,NA,NA,NA,NA,"",NA,"",NA,NA,NA,NA,NA,NA,NA,"","","",NA,"",NA,NA,NA,NA,NA,NA,NA,"",NA,"30"
"",NA,"",NA,"",NA,NA,NA,NA,NA,NA,NA,"","",1,1,"2024-08-25_17h06.09.608","IAT(Formal)","2021.2.3","Win32",60.0240096,"",NA,"",NA,NA,NA,NA,NA,NA,NA,"","","",NA,"e",1,0.566,NA,NA,NA,NA,NA,"细腻","e","",NA,1,47,127,25,1,"",NA,"",NA,NA,NA,NA,NA,NA,NA,"",NA,"",NA,NA,NA,NA,NA,NA,NA,"","","",NA,"",NA,NA,NA,NA,NA,NA,NA,"",NA,"30"
"",NA,"",NA,"",NA,NA,NA,NA,NA,NA,NA,"","",1,1,"2024-08-25_17h06.09.608","IAT(Formal)","2021.2.3","Win32",60.0240096,"",NA,"",NA,NA,NA,NA,NA,NA,NA,"","","",NA,"i",1,0.69,NA,NA,NA,NA,NA,"虚伪","i","",NA,1,48,128,31,1,"",NA,"",NA,NA,NA,NA,NA,NA,NA,"",NA,"",NA,NA,NA,NA,NA,NA,NA,"","","",NA,"",NA,NA,NA,NA,NA,NA,NA,"",NA,"30"
"",NA,"",NA,"",NA,NA,NA,NA,NA,NA,NA,"","",1,1,"2024-08-25_17h06.09.608","IAT(Formal)","2021.2.3","Win32",60.0240096,"",NA,"",NA,NA,NA,NA,NA,NA,NA,"","","",NA,"e",1,0.767,NA,NA,NA,NA,NA,"杰出","e","",NA,1,49,129,13,1,"",NA,"",NA,NA,NA,NA,NA,NA,NA,"",NA,"",NA,NA,NA,NA,NA,NA,NA,"","","",NA,"",NA,NA,NA,NA,NA,NA,NA,"",NA,"30"
"",NA,"",NA,"",NA,NA,NA,NA,NA,NA,NA,"","",1,1,"2024-08-25_17h06.09.608","IAT(Formal)","2021.2.3","Win32",60.0240096,"",NA,"",NA,NA,NA,NA,NA,NA,NA,"","","",NA,"i",1,0.652,NA,NA,NA,NA,NA,"他们","i","",NA,1,50,130,6,1,"",NA,"",NA,NA,NA,NA,NA,NA,NA,"",NA,"",NA,NA,NA,NA,NA,NA,NA,"","","",NA,"",NA,NA,NA,NA,NA,NA,NA,"",NA,"30"
"",NA,"",NA,"",NA,NA,NA,NA,NA,NA,NA,"","",1,1,"2024-08-25_17h06.09.608","IAT(Formal)","2021.2.3","Win32",60.0240096,"",NA,"",NA,NA,NA,NA,NA,NA,NA,"","","",NA,"e",1,0.864,NA,NA,NA,NA,NA,"优秀","e","",NA,1,51,131,10,1,"",NA,"",NA,NA,NA,NA,NA,NA,NA,"",NA,"",NA,NA,NA,NA,NA,NA,NA,"","","",NA,"",NA,NA,NA,NA,NA,NA,NA,"",NA,"30"
"",NA,"",NA,"",NA,NA,NA,NA,NA,NA,NA,"","",1,1,"2024-08-25_17h06.09.608","IAT(Formal)","2021.2.3","Win32",60.0240096,"",NA,"",NA,NA,NA,NA,NA,NA,NA,"","","",NA,"e",1,0.54,NA,NA,NA,NA,NA,"我们","e","",NA,1,52,132,62,1,"",NA,"",NA,NA,NA,NA,NA,NA,NA,"",NA,"",NA,NA,NA,NA,NA,NA,NA,"","","",NA,"",NA,NA,NA,NA,NA,NA,NA,"",NA,"30"
"",NA,"",NA,"",NA,NA,NA,NA,NA,NA,NA,"","",1,1,"2024-08-25_17h06.09.608","IAT(Formal)","2021.2.3","Win32",60.0240096,"",NA,"",NA,NA,NA,NA,NA,NA,NA,"","","",NA,"i",1,0.833,NA,NA,NA,NA,NA,"散漫","i","",NA,1,53,133,41,1,"",NA,"",NA,NA,NA,NA,NA,NA,NA,"",NA,"",NA,NA,NA,NA,NA,NA,NA,"","","",NA,"",NA,NA,NA,NA,NA,NA,NA,"",NA,"30"
"",NA,"",NA,"",NA,NA,NA,NA,NA,NA,NA,"","",1,1,"2024-08-25_17h06.09.608","IAT(Formal)","2021.2.3","Win32",60.0240096,"",NA,"",NA,NA,NA,NA,NA,NA,NA,"","","",NA,"i",1,0.665,NA,NA,NA,NA,NA,"执拗","i","",NA,1,54,134,40,1,"",NA,"",NA,NA,NA,NA,NA,NA,NA,"",NA,"",NA,NA,NA,NA,NA,NA,NA,"","","",NA,"",NA,NA,NA,NA,NA,NA,NA,"",NA,"30"
"",NA,"",NA,"",NA,NA,NA,NA,NA,NA,NA,"","",1,1,"2024-08-25_17h06.09.608","IAT(Formal)","2021.2.3","Win32",60.0240096,"",NA,"",NA,NA,NA,NA,NA,NA,NA,"","","",NA,"i",1,0.937,NA,NA,NA,NA,NA,"其他","i","",NA,1,55,135,79,1,"",NA,"",NA,NA,NA,NA,NA,NA,NA,"",NA,"",NA,NA,NA,NA,NA,NA,NA,"","","",NA,"",NA,NA,NA,NA,NA,NA,NA,"",NA,"30"
"",NA,"",NA,"",NA,NA,NA,NA,NA,NA,NA,"","",1,1,"2024-08-25_17h06.09.608","IAT(Formal)","2021.2.3","Win32",60.0240096,"",NA,"",NA,NA,NA,NA,NA,NA,NA,"","","",NA,"i",1,0.5,NA,NA,NA,NA,NA,"他的","i","",NA,1,56,136,7,1,"",NA,"",NA,NA,NA,NA,NA,NA,NA,"",NA,"",NA,NA,NA,NA,NA,NA,NA,"","","",NA,"",NA,NA,NA,NA,NA,NA,NA,"",NA,"30"
"",NA,"",NA,"",NA,NA,NA,NA,NA,NA,NA,"","",1,1,"2024-08-25_17h06.09.608","IAT(Formal)","2021.2.3","Win32",60.0240096,"",NA,"",NA,NA,NA,NA,NA,NA,NA,"","","",NA,"e",1,0.569,NA,NA,NA,NA,NA,"乐观","e","",NA,1,57,137,14,1,"",NA,"",NA,NA,NA,NA,NA,NA,NA,"",NA,"",NA,NA,NA,NA,NA,NA,NA,"","","",NA,"",NA,NA,NA,NA,NA,NA,NA,"",NA,"30"
"",NA,"",NA,"",NA,NA,NA,NA,NA,NA,NA,"","",1,1,"2024-08-25_17h06.09.608","IAT(Formal)","2021.2.3","Win32",60.0240096,"",NA,"",NA,NA,NA,NA,NA,NA,NA,"","","",NA,"i",1,0.569,NA,NA,NA,NA,NA,"傲慢","i","",NA,1,58,138,37,1,"",NA,"",NA,NA,NA,NA,NA,NA,NA,"",NA,"",NA,NA,NA,NA,NA,NA,NA,"","","",NA,"",NA,NA,NA,NA,NA,NA,NA,"",NA,"30"
"",NA,"",NA,"",NA,NA,NA,NA,NA,NA,NA,"","",1,1,"2024-08-25_17h06.09.608","IAT(Formal)","2021.2.3","Win32",60.0240096,"",NA,"",NA,NA,NA,NA,NA,NA,NA,"","","",NA,"e",1,0.58,NA,NA,NA,NA,NA,"自己","e","",NA,1,59,139,63,1,"",NA,"",NA,NA,NA,NA,NA,NA,NA,"",NA,"",NA,NA,NA,NA,NA,NA,NA,"","","",NA,"",NA,NA,NA,NA,NA,NA,NA,"",NA,"30"
"",NA,"",NA,"",NA,NA,NA,NA,NA,NA,NA,"","",1,1,"2024-08-25_17h06.09.608","IAT(Formal)","2021.2.3","Win32",60.0240096,"",NA,"",NA,NA,NA,NA,NA,NA,NA,"","","",NA,"e",1,0.525,NA,NA,NA,NA,NA,"我的","e","",NA,1,60,140,51,1,"",NA,"",NA,NA,NA,NA,NA,NA,NA,"",NA,"",NA,NA,NA,NA,NA,NA,NA,"","","",NA,"",NA,NA,NA,NA,NA,NA,NA,"",NA,"30"
"",NA,"",NA,"",NA,NA,NA,NA,NA,NA,NA,"","",1,1,"2024-08-25_17h06.09.608","IAT(Formal)","2021.2.3","Win32",60.0240096,"",NA,"",NA,NA,NA,NA,NA,NA,NA,"","","",NA,"i",1,0.568,NA,NA,NA,NA,NA,"其他","i","",NA,1,61,141,69,1,"",NA,"",NA,NA,NA,NA,NA,NA,NA,"",NA,"",NA,NA,NA,NA,NA,NA,NA,"","","",NA,"",NA,NA,NA,NA,NA,NA,NA,"",NA,"30"
"",NA,"",NA,"",NA,NA,NA,NA,NA,NA,NA,"","",1,1,"2024-08-25_17h06.09.608","IAT(Formal)","2021.2.3","Win32",60.0240096,"",NA,"",NA,NA,NA,NA,NA,NA,NA,"","","",NA,"i",1,0.603,NA,NA,NA,NA,NA,"刻薄","i","",NA,1,62,142,33,1,"",NA,"",NA,NA,NA,NA,NA,NA,NA,"",NA,"",NA,NA,NA,NA,NA,NA,NA,"","","",NA,"",NA,NA,NA,NA,NA,NA,NA,"",NA,"30"
"",NA,"",NA,"",NA,NA,NA,NA,NA,NA,NA,"","",1,1,"2024-08-25_17h06.09.608","IAT(Formal)","2021.2.3","Win32",60.0240096,"",NA,"",NA,NA,NA,NA,NA,NA,NA,"","","",NA,"e",1,0.651,NA,NA,NA,NA,NA,"机智","e","",NA,1,63,143,19,1,"",NA,"",NA,NA,NA,NA,NA,NA,NA,"",NA,"",NA,NA,NA,NA,NA,NA,NA,"","","",NA,"",NA,NA,NA,NA,NA,NA,NA,"",NA,"30"
"",NA,"",NA,"",NA,NA,NA,NA,NA,NA,NA,"","",1,1,"2024-08-25_17h06.09.608","IAT(Formal)","2021.2.3","Win32",60.0240096,"",NA,"",NA,NA,NA,NA,NA,NA,NA,"","","",NA,"e",1,0.616,NA,NA,NA,NA,NA,"自己","e","",NA,1,64,144,73,1,"",NA,"",NA,NA,NA,NA,NA,NA,NA,"",NA,"",NA,NA,NA,NA,NA,NA,NA,"","","",NA,"",NA,NA,NA,NA,NA,NA,NA,"",NA,"30"
"",NA,"",NA,"",NA,NA,NA,NA,NA,NA,NA,"","",1,1,"2024-08-25_17h06.09.608","IAT(Formal)","2021.2.3","Win32",60.0240096,"",NA,"",NA,NA,NA,NA,NA,NA,NA,"","","",NA,"e",1,0.45,NA,NA,NA,NA,NA,"正直","e","",NA,1,65,145,16,1,"",NA,"",NA,NA,NA,NA,NA,NA,NA,"",NA,"",NA,NA,NA,NA,NA,NA,NA,"","","",NA,"",NA,NA,NA,NA,NA,NA,NA,"",NA,"30"
"",NA,"",NA,"",NA,NA,NA,NA,NA,NA,NA,"","",1,1,"2024-08-25_17h06.09.608","IAT(Formal)","2021.2.3","Win32",60.0240096,"",NA,"",NA,NA,NA,NA,NA,NA,NA,"","","",NA,"i",1,0.655,NA,NA,NA,NA,NA,"其他","i","",NA,1,66,146,9,1,"",NA,"",NA,NA,NA,NA,NA,NA,NA,"",NA,"",NA,NA,NA,NA,NA,NA,NA,"","","",NA,"",NA,NA,NA,NA,NA,NA,NA,"",NA,"30"
"",NA,"",NA,"",NA,NA,NA,NA,NA,NA,NA,"","",1,1,"2024-08-25_17h06.09.608","IAT(Formal)","2021.2.3","Win32",60.0240096,"",NA,"",NA,NA,NA,NA,NA,NA,NA,"","","",NA,"e",1,0.597,NA,NA,NA,NA,NA,"勤奋","e","",NA,1,67,147,18,1,"",NA,"",NA,NA,NA,NA,NA,NA,NA,"",NA,"",NA,NA,NA,NA,NA,NA,NA,"","","",NA,"",NA,NA,NA,NA,NA,NA,NA,"",NA,"30"
"",NA,"",NA,"",NA,NA,NA,NA,NA,NA,NA,"","",1,1,"2024-08-25_17h06.09.608","IAT(Formal)","2021.2.3","Win32",60.0240096,"",NA,"",NA,NA,NA,NA,NA,NA,NA,"","","",NA,"i",1,0.735,NA,NA,NA,NA,NA,"他人","i","",NA,1,68,148,8,1,"",NA,"",NA,NA,NA,NA,NA,NA,NA,"",NA,"",NA,NA,NA,NA,NA,NA,NA,"","","",NA,"",NA,NA,NA,NA,NA,NA,NA,"",NA,"30"
"",NA,"",NA,"",NA,NA,NA,NA,NA,NA,NA,"","",1,1,"2024-08-25_17h06.09.608","IAT(Formal)","2021.2.3","Win32",60.0240096,"",NA,"",NA,NA,NA,NA,NA,NA,NA,"","","",NA,"i",1,0.447,NA,NA,NA,NA,NA,"他人","i","",NA,1,69,149,58,1,"",NA,"",NA,NA,NA,NA,NA,NA,NA,"",NA,"",NA,NA,NA,NA,NA,NA,NA,"","","",NA,"",NA,NA,NA,NA,NA,NA,NA,"",NA,"30"
"",NA,"",NA,"",NA,NA,NA,NA,NA,NA,NA,"","",1,1,"2024-08-25_17h06.09.608","IAT(Formal)","2021.2.3","Win32",60.0240096,"",NA,"",NA,NA,NA,NA,NA,NA,NA,"","","",NA,"i",1,0.697,NA,NA,NA,NA,NA,"野蛮","i","",NA,1,70,150,46,1,"",NA,"",NA,NA,NA,NA,NA,NA,NA,"",NA,"",NA,NA,NA,NA,NA,NA,NA,"","","",NA,"",NA,NA,NA,NA,NA,NA,NA,"",NA,"30"
"",NA,"",NA,"",NA,NA,NA,NA,NA,NA,NA,"","",1,1,"2024-08-25_17h06.09.608","IAT(Formal)","2021.2.3","Win32",60.0240096,"",NA,"",NA,NA,NA,NA,NA,NA,NA,"","","",NA,"i",1,0.578,NA,NA,NA,NA,NA,"消极","i","",NA,1,71,151,35,1,"",NA,"",NA,NA,NA,NA,NA,NA,NA,"",NA,"",NA,NA,NA,NA,NA,NA,NA,"","","",NA,"",NA,NA,NA,NA,NA,NA,NA,"",NA,"30"
"",NA,"",NA,"",NA,NA,NA,NA,NA,NA,NA,"","",1,1,"2024-08-25_17h06.09.608","IAT(Formal)","2021.2.3","Win32",60.0240096,"",NA,"",NA,NA,NA,NA,NA,NA,NA,"","","",NA,"e",1,0.57,NA,NA,NA,NA,NA,"崇高","e","",NA,1,72,152,11,1,"",NA,"",NA,NA,NA,NA,NA,NA,NA,"",NA,"",NA,NA,NA,NA,NA,NA,NA,"","","",NA,"",NA,NA,NA,NA,NA,NA,NA,"",NA,"30"
"",NA,"",NA,"",NA,NA,NA,NA,NA,NA,NA,"","",1,1,"2024-08-25_17h06.09.608","IAT(Formal)","2021.2.3","Win32",60.0240096,"",NA,"",NA,NA,NA,NA,NA,NA,NA,"","","",NA,"e",1,0.604,NA,NA,NA,NA,NA,"热情","e","",NA,1,73,153,27,1,"",NA,"",NA,NA,NA,NA,NA,NA,NA,"",NA,"",NA,NA,NA,NA,NA,NA,NA,"","","",NA,"",NA,NA,NA,NA,NA,NA,NA,"",NA,"30"
"",NA,"",NA,"",NA,NA,NA,NA,NA,NA,NA,"","",1,1,"2024-08-25_17h06.09.608","IAT(Formal)","2021.2.3","Win32",60.0240096,"",NA,"",NA,NA,NA,NA,NA,NA,NA,"","","",NA,"i",1,0.569,NA,NA,NA,NA,NA,"暴躁","i","",NA,1,74,154,44,1,"",NA,"",NA,NA,NA,NA,NA,NA,NA,"",NA,"",NA,NA,NA,NA,NA,NA,NA,"","","",NA,"",NA,NA,NA,NA,NA,NA,NA,"",NA,"30"
"",NA,"",NA,"",NA,NA,NA,NA,NA,NA,NA,"","",1,1,"2024-08-25_17h06.09.608","IAT(Formal)","2021.2.3","Win32",60.0240096,"",NA,"",NA,NA,NA,NA,NA,NA,NA,"","","",NA,"e",1,0.575,NA,NA,NA,NA,NA,"我们","e","",NA,1,75,155,72,1,"",NA,"",NA,NA,NA,NA,NA,NA,NA,"",NA,"",NA,NA,NA,NA,NA,NA,NA,"","","",NA,"",NA,NA,NA,NA,NA,NA,NA,"",NA,"30"
"",NA,"",NA,"",NA,NA,NA,NA,NA,NA,NA,"","",1,1,"2024-08-25_17h06.09.608","IAT(Formal)","2021.2.3","Win32",60.0240096,"",NA,"",NA,NA,NA,NA,NA,NA,NA,"","","",NA,"i",1,0.665,NA,NA,NA,NA,NA,"自私","i","",NA,1,76,156,43,1,"",NA,"",NA,NA,NA,NA,NA,NA,NA,"",NA,"",NA,NA,NA,NA,NA,NA,NA,"","","",NA,"",NA,NA,NA,NA,NA,NA,NA,"",NA,"30"
"",NA,"",NA,"",NA,NA,NA,NA,NA,NA,NA,"","",1,1,"2024-08-25_17h06.09.608","IAT(Formal)","2021.2.3","Win32",60.0240096,"",NA,"",NA,NA,NA,NA,NA,NA,NA,"","","",NA,"i",1,0.669,NA,NA,NA,NA,NA,"他","i","",NA,1,77,157,5,1,"",NA,"",NA,NA,NA,NA,NA,NA,NA,"",NA,"",NA,NA,NA,NA,NA,NA,NA,"","","",NA,"",NA,NA,NA,NA,NA,NA,NA,"",NA,"30"
"",NA,"",NA,"",NA,NA,NA,NA,NA,NA,NA,"","",1,1,"2024-08-25_17h06.09.608","IAT(Formal)","2021.2.3","Win32",60.0240096,"",NA,"",NA,NA,NA,NA,NA,NA,NA,"","","",NA,"e",1,0.796,NA,NA,NA,NA,NA,"诚恳","e","",NA,1,78,158,29,1,"",NA,"",NA,NA,NA,NA,NA,NA,NA,"",NA,"",NA,NA,NA,NA,NA,NA,NA,"","","",NA,"",NA,NA,NA,NA,NA,NA,NA,"",NA,"30"
"",NA,"",NA,"",NA,NA,NA,NA,NA,NA,NA,"","",1,1,"2024-08-25_17h06.09.608","IAT(Formal)","2021.2.3","Win32",60.0240096,"",NA,"",NA,NA,NA,NA,NA,NA,NA,"","","",NA,"e",1,0.809,NA,NA,NA,NA,NA,"朴实","e","",NA,1,79,159,24,1,"",NA,"",NA,NA,NA,NA,NA,NA,NA,"",NA,"",NA,NA,NA,NA,NA,NA,NA,"","","",NA,"",NA,NA,NA,NA,NA,NA,NA,"",NA,"30"
"",NA,"",NA,"",NA,NA,NA,NA,NA,NA,NA,"他的","e",1,1,"2024-08-25_17h06.09.608","IAT(Formal)","2021.2.3","Win32",60.0240096,"",NA,"",NA,NA,NA,NA,NA,NA,NA,"","","",NA,"",NA,NA,NA,NA,NA,NA,NA,"","","",NA,NA,NA,NA,NA,NA,"space",27.897,"e",1,1.064,0,0,0,7,1,"",NA,"",NA,NA,NA,NA,NA,NA,NA,"","","",NA,"",NA,NA,NA,NA,NA,NA,NA,"",NA,"30"
"",NA,"",NA,"",NA,NA,NA,NA,NA,NA,NA,"他们","e",1,1,"2024-08-25_17h06.09.608","IAT(Formal)","2021.2.3","Win32",60.0240096,"",NA,"",NA,NA,NA,NA,NA,NA,NA,"","","",NA,"",NA,NA,NA,NA,NA,NA,NA,"","","",NA,NA,NA,NA,NA,NA,"",NA,"e",1,0.637,0,1,1,6,1,"",NA,"",NA,NA,NA,NA,NA,NA,NA,"","","",NA,"",NA,NA,NA,NA,NA,NA,NA,"",NA,"30"
"",NA,"",NA,"",NA,NA,NA,NA,NA,NA,NA,"自己","i",1,1,"2024-08-25_17h06.09.608","IAT(Formal)","2021.2.3","Win32",60.0240096,"",NA,"",NA,NA,NA,NA,NA,NA,NA,"","","",NA,"",NA,NA,NA,NA,NA,NA,NA,"","","",NA,NA,NA,NA,NA,NA,"",NA,"i",1,0.548,0,2,2,3,1,"",NA,"",NA,NA,NA,NA,NA,NA,NA,"","","",NA,"",NA,NA,NA,NA,NA,NA,NA,"",NA,"30"
"",NA,"",NA,"",NA,NA,NA,NA,NA,NA,NA,"我的","i",1,1,"2024-08-25_17h06.09.608","IAT(Formal)","2021.2.3","Win32",60.0240096,"",NA,"",NA,NA,NA,NA,NA,NA,NA,"","","",NA,"",NA,NA,NA,NA,NA,NA,NA,"","","",NA,NA,NA,NA,NA,NA,"",NA,"i",1,0.516,0,3,3,1,1,"",NA,"",NA,NA,NA,NA,NA,NA,NA,"","","",NA,"",NA,NA,NA,NA,NA,NA,NA,"",NA,"30"
"",NA,"",NA,"",NA,NA,NA,NA,NA,NA,NA,"我们","i",1,1,"2024-08-25_17h06.09.608","IAT(Formal)","2021.2.3","Win32",60.0240096,"",NA,"",NA,NA,NA,NA,NA,NA,NA,"","","",NA,"",NA,NA,NA,NA,NA,NA,NA,"","","",NA,NA,NA,NA,NA,NA,"",NA,"i",1,0.519,0,4,4,2,1,"",NA,"",NA,NA,NA,NA,NA,NA,NA,"","","",NA,"",NA,NA,NA,NA,NA,NA,NA,"",NA,"30"
"",NA,"",NA,"",NA,NA,NA,NA,NA,NA,NA,"俺","i",1,1,"2024-08-25_17h06.09.608","IAT(Formal)","2021.2.3","Win32",60.0240096,"",NA,"",NA,NA,NA,NA,NA,NA,NA,"","","",NA,"",NA,NA,NA,NA,NA,NA,NA,"","","",NA,NA,NA,NA,NA,NA,"",NA,"i",1,0.649,0,5,5,4,1,"",NA,"",NA,NA,NA,NA,NA,NA,NA,"","","",NA,"",NA,NA,NA,NA,NA,NA,NA,"",NA,"30"
"",NA,"",NA,"",NA,NA,NA,NA,NA,NA,NA,"他","e",1,1,"2024-08-25_17h06.09.608","IAT(Formal)","2021.2.3","Win32",60.0240096,"",NA,"",NA,NA,NA,NA,NA,NA,NA,"","","",NA,"",NA,NA,NA,NA,NA,NA,NA,"","","",NA,NA,NA,NA,NA,NA,"",NA,"e",1,0.55,0,6,6,5,1,"",NA,"",NA,NA,NA,NA,NA,NA,NA,"","","",NA,"",NA,NA,NA,NA,NA,NA,NA,"",NA,"30"
"",NA,"",NA,"",NA,NA,NA,NA,NA,NA,NA,"他人","e",1,1,"2024-08-25_17h06.09.608","IAT(Formal)","2021.2.3","Win32",60.0240096,"",NA,"",NA,NA,NA,NA,NA,NA,NA,"","","",NA,"",NA,NA,NA,NA,NA,NA,NA,"","","",NA,NA,NA,NA,NA,NA,"",NA,"e",1,0.605,0,7,7,8,1,"",NA,"",NA,NA,NA,NA,NA,NA,NA,"","","",NA,"",NA,NA,NA,NA,NA,NA,NA,"",NA,"30"
"",NA,"",NA,"",NA,NA,NA,NA,NA,NA,NA,"我","i",1,1,"2024-08-25_17h06.09.608","IAT(Formal)","2021.2.3","Win32",60.0240096,"",NA,"",NA,NA,NA,NA,NA,NA,NA,"","","",NA,"",NA,NA,NA,NA,NA,NA,NA,"","","",NA,NA,NA,NA,NA,NA,"",NA,"i",1,0.515,0,8,8,0,1,"",NA,"",NA,NA,NA,NA,NA,NA,NA,"","","",NA,"",NA,NA,NA,NA,NA,NA,NA,"",NA,"30"
"",NA,"",NA,"",NA,NA,NA,NA,NA,NA,NA,"其他","e",1,1,"2024-08-25_17h06.09.608","IAT(Formal)","2021.2.3","Win32",60.0240096,"",NA,"",NA,NA,NA,NA,NA,NA,NA,"","","",NA,"",NA,NA,NA,NA,NA,NA,NA,"","","",NA,NA,NA,NA,NA,NA,"",NA,"e",1,0.57,0,9,9,9,1,"",NA,"",NA,NA,NA,NA,NA,NA,NA,"","","",NA,"",NA,NA,NA,NA,NA,NA,NA,"",NA,"30"
"",NA,"",NA,"",NA,NA,NA,NA,NA,NA,NA,"","",1,1,"2024-08-25_17h06.09.608","IAT(Formal)","2021.2.3","Win32",60.0240096,"",NA,"",NA,NA,NA,NA,NA,NA,NA,"","","",NA,"",NA,NA,NA,NA,NA,NA,NA,"","","",NA,NA,NA,NA,NA,NA,"",NA,"",NA,NA,NA,NA,NA,NA,NA,"space",13.308,"e",1,1.068,0,0,0,68,1,"他人","e","",NA,"",NA,NA,NA,NA,NA,NA,NA,"",NA,"30"
"",NA,"",NA,"",NA,NA,NA,NA,NA,NA,NA,"","",1,1,"2024-08-25_17h06.09.608","IAT(Formal)","2021.2.3","Win32",60.0240096,"",NA,"",NA,NA,NA,NA,NA,NA,NA,"","","",NA,"",NA,NA,NA,NA,NA,NA,NA,"","","",NA,NA,NA,NA,NA,NA,"",NA,"",NA,NA,NA,NA,NA,NA,NA,"",NA,"i",1,0.565,0,1,1,2,1,"我们","i","",NA,"",NA,NA,NA,NA,NA,NA,NA,"",NA,"30"
"",NA,"",NA,"",NA,NA,NA,NA,NA,NA,NA,"","",1,1,"2024-08-25_17h06.09.608","IAT(Formal)","2021.2.3","Win32",60.0240096,"",NA,"",NA,NA,NA,NA,NA,NA,NA,"","","",NA,"",NA,NA,NA,NA,NA,NA,NA,"","","",NA,NA,NA,NA,NA,NA,"",NA,"",NA,NA,NA,NA,NA,NA,NA,"",NA,"i",0,1.105,0,2,2,22,1,"无私","e","",NA,"",NA,NA,NA,NA,NA,NA,NA,"",NA,"30"
"",NA,"",NA,"",NA,NA,NA,NA,NA,NA,NA,"","",1,1,"2024-08-25_17h06.09.608","IAT(Formal)","2021.2.3","Win32",60.0240096,"",NA,"",NA,NA,NA,NA,NA,NA,NA,"","","",NA,"",NA,NA,NA,NA,NA,NA,NA,"","","",NA,NA,NA,NA,NA,NA,"",NA,"",NA,NA,NA,NA,NA,NA,NA,"",NA,"e",1,0.785,0,3,3,58,1,"他人","e","",NA,"",NA,NA,NA,NA,NA,NA,NA,"",NA,"30"
"",NA,"",NA,"",NA,NA,NA,NA,NA,NA,NA,"","",1,1,"2024-08-25_17h06.09.608","IAT(Formal)","2021.2.3","Win32",60.0240096,"",NA,"",NA,NA,NA,NA,NA,NA,NA,"","","",NA,"",NA,NA,NA,NA,NA,NA,NA,"","","",NA,NA,NA,NA,NA,NA,"",NA,"",NA,NA,NA,NA,NA,NA,NA,"",NA,"e",1,0.734,0,4,4,7,1,"他的","e","",NA,"",NA,NA,NA,NA,NA,NA,NA,"",NA,"30"
"",NA,"",NA,"",NA,NA,NA,NA,NA,NA,NA,"","",1,1,"2024-08-25_17h06.09.608","IAT(Formal)","2021.2.3","Win32",60.0240096,"",NA,"",NA,NA,NA,NA,NA,NA,NA,"","","",NA,"",NA,NA,NA,NA,NA,NA,NA,"","","",NA,NA,NA,NA,NA,NA,"",NA,"",NA,NA,NA,NA,NA,NA,NA,"",NA,"",0,NA,0,5,5,23,1,"公正","e","",NA,"",NA,NA,NA,NA,NA,NA,NA,"",NA,"30"
"",NA,"",NA,"",NA,NA,NA,NA,NA,NA,NA,"","",1,1,"2024-08-25_17h06.09.608","IAT(Formal)","2021.2.3","Win32",60.0240096,"",NA,"",NA,NA,NA,NA,NA,NA,NA,"","","",NA,"",NA,NA,NA,NA,NA,NA,NA,"","","",NA,NA,NA,NA,NA,NA,"",NA,"",NA,NA,NA,NA,NA,NA,NA,"",NA,"i",1,0.912,0,6,6,74,1,"俺","i","",NA,"",NA,NA,NA,NA,NA,NA,NA,"",NA,"30"
