﻿Instruction1.keys,Instruction1.rt,Instruction2.keys,Instruction2.rt,key_resp_iso.keys,key_resp_iso.corr,key_resp_iso.rt,Practice_01.thisRepN,Practice_01.thisTrialN,Practice_01.thisN,Practice_01.thisIndex,Practice_01.ran,Words,ans,participant,session,date,expName,psychopyVersion,OS,frameRate,key_resp_3.keys,key_resp_3.rt,key_resp_ipn.keys,key_resp_ipn.corr,key_resp_ipn.rt,Practice_02.thisRepN,Practice_02.thisTrialN,Practice_02.thisN,Practice_02.thisIndex,Practice_02.ran,Words_ipn,ans_ipn,key_resp_4.keys,key_resp_4.rt,key_resp_t1.keys,key_resp_t1.corr,key_resp_t1.rt,Practice_T1.thisRepN,Practice_T1.thisTrialN,Practice_T1.thisN,Practice_T1.thisIndex,Practice_T1.ran,Words_t1,ans_t1,key_resp_5.keys,key_resp_5.rt,Formal_T1.thisRepN,Formal_T1.thisTrialN,Formal_T1.thisN,Formal_T1.thisIndex,Formal_T1.ran,key_resp_6.keys,key_resp_6.rt,key_resp_iso_reverse.keys,key_resp_iso_reverse.corr,key_resp_iso_reverse.rt,Practice_iso_Reverse.thisRepN,Practice_iso_Reverse.thisTrialN,Practice_iso_Reverse.thisN,Practice_iso_Reverse.thisIndex,Practice_iso_Reverse.ran,key_resp_7.keys,key_resp_7.rt,key_resp_t2_Practice.keys,key_resp_t2_Practice.corr,key_resp_t2_Practice.rt,Practice_t2_Reverse.thisRepN,Practice_t2_Reverse.thisTrialN,Practice_t2_Reverse.thisN,Practice_t2_Reverse.thisIndex,Practice_t2_Reverse.ran,Words_t2,ans_t2,key_resp_8.keys,key_resp_8.rt,key_resp_t2.keys,key_resp_t2.corr,key_resp_t2.rt,Formal_t2_reverse.thisRepN,Formal_t2_reverse.thisTrialN,Formal_t2_reverse.thisN,Formal_t2_reverse.thisIndex,Formal_t2_reverse.ran,key_instruct.keys,key_instruct.rt
space,3.704,space,14.56,i,1,0.743,0,0,0,6,1,他们,i,1,001,2024-08-25_17h06.09.608,IAT(Formal),2021.2.3,Win32,60.0240096,,,,,,,,,,,,,,,,,,,,,,,,,,,,,,,,,,,,,,,,,,,,,,,,,,,,,,,,,,,,,,,,,
,,,,i,1,0.729,0,1,1,9,1,其他,i,1,001,2024-08-25_17h06.09.608,IAT(Formal),2021.2.3,Win32,60.0240096,,,,,,,,,,,,,,,,,,,,,,,,,,,,,,,,,,,,,,,,,,,,,,,,,,,,,,,,,,,,,,,,,
,,,,e,1,0.646,0,2,2,2,1,我们,e,1,001,2024-08-25_17h06.09.608,IAT(Formal),2021.2.3,Win32,60.0240096,,,,,,,,,,,,,,,,,,,,,,,,,,,,,,,,,,,,,,,,,,,,,,,,,,,,,,,,,,,,,,,,,
,,,,e,1,0.713,0,3,3,4,1,俺,e,1,001,2024-08-25_17h06.09.608,IAT(Formal),2021.2.3,Win32,60.0240096,,,,,,,,,,,,,,,,,,,,,,,,,,,,,,,,,,,,,,,,,,,,,,,,,,,,,,,,,,,,,,,,,
,,,,e,1,0.587,0,4,4,3,1,自己,e,1,001,2024-08-25_17h06.09.608,IAT(Formal),2021.2.3,Win32,60.0240096,,,,,,,,,,,,,,,,,,,,,,,,,,,,,,,,,,,,,,,,,,,,,,,,,,,,,,,,,,,,,,,,,
,,,,i,1,0.652,0,5,5,7,1,他的,i,1,001,2024-08-25_17h06.09.608,IAT(Formal),2021.2.3,Win32,60.0240096,,,,,,,,,,,,,,,,,,,,,,,,,,,,,,,,,,,,,,,,,,,,,,,,,,,,,,,,,,,,,,,,,
,,,,i,1,0.619,0,6,6,5,1,他,i,1,001,2024-08-25_17h06.09.608,IAT(Formal),2021.2.3,Win32,60.0240096,,,,,,,,,,,,,,,,,,,,,,,,,,,,,,,,,,,,,,,,,,,,,,,,,,,,,,,,,,,,,,,,,
,,,,e,1,0.498,0,7,7,0,1,我,e,1,001,2024-08-25_17h06.09.608,IAT(Formal),2021.2.3,Win32,60.0240096,,,,,,,,,,,,,,,,,,,,,,,,,,,,,,,,,,,,,,,,,,,,,,,,,,,,,,,,,,,,,,,,,
,,,,e,1,0.583,0,8,8,1,1,我的,e,1,001,2024-08-25_17h06.09.608,IAT(Formal),2021.2.3,Win32,60.0240096,,,,,,,,,,,,,,,,,,,,,,,,,,,,,,,,,,,,,,,,,,,,,,,,,,,,,,,,,,,,,,,,,
,,,,i,1,0.565,0,9,9,8,1,他人,i,1,001,2024-08-25_17h06.09.608,IAT(Formal),2021.2.3,Win32,60.0240096,,,,,,,,,,,,,,,,,,,,,,,,,,,,,,,,,,,,,,,,,,,,,,,,,,,,,,,,,,,,,,,,,
,,,,,,,,,,,,,,1,001,2024-08-25_17h06.09.608,IAT(Formal),2021.2.3,Win32,60.0240096,space,5.776,e,1,0.564,0,0,0,6,1,正直,e,,,,,,,,,,,,,,,,,,,,,,,,,,,,,,,,,,,,,,,,,,,,,,,,,,,,,
,,,,,,,,,,,,,,1,001,2024-08-25_17h06.09.608,IAT(Formal),2021.2.3,Win32,60.0240096,,,i,1,0.552,0,1,1,39,1,下贱,i,,,,,,,,,,,,,,,,,,,,,,,,,,,,,,,,,,,,,,,,,,,,,,,,,,,,,
,,,,,,,,,,,,,,1,001,2024-08-25_17h06.09.608,IAT(Formal),2021.2.3,Win32,60.0240096,,,e,1,0.482,0,2,2,1,1,崇高,e,,,,,,,,,,,,,,,,,,,,,,,,,,,,,,,,,,,,,,,,,,,,,,,,,,,,,
,,,,,,,,,,,,,,1,001,2024-08-25_17h06.09.608,IAT(Formal),2021.2.3,Win32,60.0240096,,,i,0,0.636,0,3,3,16,1,冷静,e,,,,,,,,,,,,,,,,,,,,,,,,,,,,,,,,,,,,,,,,,,,,,,,,,,,,,
,,,,,,,,,,,,,,1,001,2024-08-25_17h06.09.608,IAT(Formal),2021.2.3,Win32,60.0240096,,,i,1,1.065,0,4,4,37,1,固执,i,,,,,,,,,,,,,,,,,,,,,,,,,,,,,,,,,,,,,,,,,,,,,,,,,,,,,
,,,,,,,,,,,,,,1,001,2024-08-25_17h06.09.608,IAT(Formal),2021.2.3,Win32,60.0240096,,,i,1,0.771,0,5,5,25,1,消极,i,,,,,,,,,,,,,,,,,,,,,,,,,,,,,,,,,,,,,,,,,,,,,,,,,,,,,
,,,,,,,,,,,,,,1,001,2024-08-25_17h06.09.608,IAT(Formal),2021.2.3,Win32,60.0240096,,,e,1,0.572,0,6,6,8,1,勤奋,e,,,,,,,,,,,,,,,,,,,,,,,,,,,,,,,,,,,,,,,,,,,,,,,,,,,,,
,,,,,,,,,,,,,,1,001,2024-08-25_17h06.09.608,IAT(Formal),2021.2.3,Win32,60.0240096,,,e,1,0.516,0,7,7,0,1,优秀,e,,,,,,,,,,,,,,,,,,,,,,,,,,,,,,,,,,,,,,,,,,,,,,,,,,,,,
,,,,,,,,,,,,,,1,001,2024-08-25_17h06.09.608,IAT(Formal),2021.2.3,Win32,60.0240096,,,i,1,0.69,0,8,8,22,1,愚蠢,i,,,,,,,,,,,,,,,,,,,,,,,,,,,,,,,,,,,,,,,,,,,,,,,,,,,,,
,,,,,,,,,,,,,,1,001,2024-08-25_17h06.09.608,IAT(Formal),2021.2.3,Win32,60.0240096,,,i,1,0.804,0,9,9,36,1,野蛮,i,,,,,,,,,,,,,,,,,,,,,,,,,,,,,,,,,,,,,,,,,,,,,,,,,,,,,
,,,,,,,,,,,,,,1,001,2024-08-25_17h06.09.608,IAT(Formal),2021.2.3,Win32,60.0240096,,,i,1,0.748,0,10,10,26,1,自卑,i,,,,,,,,,,,,,,,,,,,,,,,,,,,,,,,,,,,,,,,,,,,,,,,,,,,,,
,,,,,,,,,,,,,,1,001,2024-08-25_17h06.09.608,IAT(Formal),2021.2.3,Win32,60.0240096,,,e,1,0.579,0,11,11,4,1,乐观,e,,,,,,,,,,,,,,,,,,,,,,,,,,,,,,,,,,,,,,,,,,,,,,,,,,,,,
,,,,,,,,,,,,,,1,001,2024-08-25_17h06.09.608,IAT(Formal),2021.2.3,Win32,60.0240096,,,i,1,0.719,0,12,12,33,1,自私,i,,,,,,,,,,,,,,,,,,,,,,,,,,,,,,,,,,,,,,,,,,,,,,,,,,,,,
,,,,,,,,,,,,,,1,001,2024-08-25_17h06.09.608,IAT(Formal),2021.2.3,Win32,60.0240096,,,e,1,0.714,0,13,13,9,1,机智,e,,,,,,,,,,,,,,,,,,,,,,,,,,,,,,,,,,,,,,,,,,,,,,,,,,,,,
,,,,,,,,,,,,,,1,001,2024-08-25_17h06.09.608,IAT(Formal),2021.2.3,Win32,60.0240096,,,i,1,0.615,0,14,14,21,1,虚伪,i,,,,,,,,,,,,,,,,,,,,,,,,,,,,,,,,,,,,,,,,,,,,,,,,,,,,,
,,,,,,,,,,,,,,1,001,2024-08-25_17h06.09.608,IAT(Formal),2021.2.3,Win32,60.0240096,,,i,1,0.812,0,15,15,34,1,暴躁,i,,,,,,,,,,,,,,,,,,,,,,,,,,,,,,,,,,,,,,,,,,,,,,,,,,,,,
,,,,,,,,,,,,,,1,001,2024-08-25_17h06.09.608,IAT(Formal),2021.2.3,Win32,60.0240096,,,e,1,0.802,0,16,16,3,1,杰出,e,,,,,,,,,,,,,,,,,,,,,,,,,,,,,,,,,,,,,,,,,,,,,,,,,,,,,
,,,,,,,,,,,,,,1,001,2024-08-25_17h06.09.608,IAT(Formal),2021.2.3,Win32,60.0240096,,,i,1,0.719,0,17,17,20,1,卑鄙,i,,,,,,,,,,,,,,,,,,,,,,,,,,,,,,,,,,,,,,,,,,,,,,,,,,,,,
,,,,,,,,,,,,,,1,001,2024-08-25_17h06.09.608,IAT(Formal),2021.2.3,Win32,60.0240096,,,i,1,0.586,0,18,18,35,1,猖狂,i,,,,,,,,,,,,,,,,,,,,,,,,,,,,,,,,,,,,,,,,,,,,,,,,,,,,,
,,,,,,,,,,,,,,1,001,2024-08-25_17h06.09.608,IAT(Formal),2021.2.3,Win32,60.0240096,,,i,1,0.616,0,19,19,23,1,刻薄,i,,,,,,,,,,,,,,,,,,,,,,,,,,,,,,,,,,,,,,,,,,,,,,,,,,,,,
,,,,,,,,,,,,,,1,001,2024-08-25_17h06.09.608,IAT(Formal),2021.2.3,Win32,60.0240096,,,i,1,0.619,0,20,20,28,1,鲁莽,i,,,,,,,,,,,,,,,,,,,,,,,,,,,,,,,,,,,,,,,,,,,,,,,,,,,,,
,,,,,,,,,,,,,,1,001,2024-08-25_17h06.09.608,IAT(Formal),2021.2.3,Win32,60.0240096,,,e,1,0.616,0,21,21,2,1,聪明,e,,,,,,,,,,,,,,,,,,,,,,,,,,,,,,,,,,,,,,,,,,,,,,,,,,,,,
,,,,,,,,,,,,,,1,001,2024-08-25_17h06.09.608,IAT(Formal),2021.2.3,Win32,60.0240096,,,i,1,0.667,0,22,22,24,1,悲观,i,,,,,,,,,,,,,,,,,,,,,,,,,,,,,,,,,,,,,,,,,,,,,,,,,,,,,
,,,,,,,,,,,,,,1,001,2024-08-25_17h06.09.608,IAT(Formal),2021.2.3,Win32,60.0240096,,,e,1,0.832,0,23,23,17,1,热情,e,,,,,,,,,,,,,,,,,,,,,,,,,,,,,,,,,,,,,,,,,,,,,,,,,,,,,
,,,,,,,,,,,,,,1,001,2024-08-25_17h06.09.608,IAT(Formal),2021.2.3,Win32,60.0240096,,,i,0,1.018,0,24,24,12,1,无私,e,,,,,,,,,,,,,,,,,,,,,,,,,,,,,,,,,,,,,,,,,,,,,,,,,,,,,
,,,,,,,,,,,,,,1,001,2024-08-25_17h06.09.608,IAT(Formal),2021.2.3,Win32,60.0240096,,,e,1,0.704,0,25,25,15,1,细腻,e,,,,,,,,,,,,,,,,,,,,,,,,,,,,,,,,,,,,,,,,,,,,,,,,,,,,,
,,,,,,,,,,,,,,1,001,2024-08-25_17h06.09.608,IAT(Formal),2021.2.3,Win32,60.0240096,,,i,1,0.654,0,26,26,38,1,轻率,i,,,,,,,,,,,,,,,,,,,,,,,,,,,,,,,,,,,,,,,,,,,,,,,,,,,,,
,,,,,,,,,,,,,,1,001,2024-08-25_17h06.09.608,IAT(Formal),2021.2.3,Win32,60.0240096,,,i,1,0.581,0,27,27,27,1,傲慢,i,,,,,,,,,,,,,,,,,,,,,,,,,,,,,,,,,,,,,,,,,,,,,,,,,,,,,
,,,,,,,,,,,,,,1,001,2024-08-25_17h06.09.608,IAT(Formal),2021.2.3,Win32,60.0240096,,,e,1,0.63,0,28,28,5,1,诚实,e,,,,,,,,,,,,,,,,,,,,,,,,,,,,,,,,,,,,,,,,,,,,,,,,,,,,,
,,,,,,,,,,,,,,1,001,2024-08-25_17h06.09.608,IAT(Formal),2021.2.3,Win32,60.0240096,,,e,1,0.555,0,29,29,11,1,稳重,e,,,,,,,,,,,,,,,,,,,,,,,,,,,,,,,,,,,,,,,,,,,,,,,,,,,,,
,,,,,,,,,,,,,,1,001,2024-08-25_17h06.09.608,IAT(Formal),2021.2.3,Win32,60.0240096,,,i,1,0.753,0,30,30,31,1,散漫,i,,,,,,,,,,,,,,,,,,,,,,,,,,,,,,,,,,,,,,,,,,,,,,,,,,,,,
,,,,,,,,,,,,,,1,001,2024-08-25_17h06.09.608,IAT(Formal),2021.2.3,Win32,60.0240096,,,e,1,0.658,0,31,31,10,1,认真,e,,,,,,,,,,,,,,,,,,,,,,,,,,,,,,,,,,,,,,,,,,,,,,,,,,,,,
,,,,,,,,,,,,,,1,001,2024-08-25_17h06.09.608,IAT(Formal),2021.2.3,Win32,60.0240096,,,e,1,0.548,0,32,32,13,1,公正,e,,,,,,,,,,,,,,,,,,,,,,,,,,,,,,,,,,,,,,,,,,,,,,,,,,,,,
,,,,,,,,,,,,,,1,001,2024-08-25_17h06.09.608,IAT(Formal),2021.2.3,Win32,60.0240096,,,e,1,0.612,0,33,33,7,1,勇敢,e,,,,,,,,,,,,,,,,,,,,,,,,,,,,,,,,,,,,,,,,,,,,,,,,,,,,,
,,,,,,,,,,,,,,1,001,2024-08-25_17h06.09.608,IAT(Formal),2021.2.3,Win32,60.0240096,,,i,1,0.651,0,34,34,29,1,冒失,i,,,,,,,,,,,,,,,,,,,,,,,,,,,,,,,,,,,,,,,,,,,,,,,,,,,,,
,,,,,,,,,,,,,,1,001,2024-08-25_17h06.09.608,IAT(Formal),2021.2.3,Win32,60.0240096,,,e,1,0.627,0,35,35,18,1,活泼,e,,,,,,,,,,,,,,,,,,,,,,,,,,,,,,,,,,,,,,,,,,,,,,,,,,,,,
,,,,,,,,,,,,,,1,001,2024-08-25_17h06.09.608,IAT(Formal),2021.2.3,Win32,60.0240096,,,e,1,0.641,0,36,36,14,1,朴实,e,,,,,,,,,,,,,,,,,,,,,,,,,,,,,,,,,,,,,,,,,,,,,,,,,,,,,
,,,,,,,,,,,,,,1,001,2024-08-25_17h06.09.608,IAT(Formal),2021.2.3,Win32,60.0240096,,,e,1,0.649,0,37,37,19,1,诚恳,e,,,,,,,,,,,,,,,,,,,,,,,,,,,,,,,,,,,,,,,,,,,,,,,,,,,,,
,,,,,,,,,,,,,,1,001,2024-08-25_17h06.09.608,IAT(Formal),2021.2.3,Win32,60.0240096,,,i,1,0.586,0,38,38,32,1,凶狠,i,,,,,,,,,,,,,,,,,,,,,,,,,,,,,,,,,,,,,,,,,,,,,,,,,,,,,
,,,,,,,,,,,,,,1,001,2024-08-25_17h06.09.608,IAT(Formal),2021.2.3,Win32,60.0240096,,,i,1,0.819,0,39,39,30,1,执拗,i,,,,,,,,,,,,,,,,,,,,,,,,,,,,,,,,,,,,,,,,,,,,,,,,,,,,,
,,,,,,,,,,,,,,1,001,2024-08-25_17h06.09.608,IAT(Formal),2021.2.3,Win32,60.0240096,,,,,,,,,,,,,space,7.433,i,1,0.667,0,0,0,9,1,其他,i,,,,,,,,,,,,,,,,,,,,,,,,,,,,,,,,,,,,,,,,,
,,,,,,,,,,,,,,1,001,2024-08-25_17h06.09.608,IAT(Formal),2021.2.3,Win32,60.0240096,,,,,,,,,,,,,,,i,1,0.698,0,1,1,69,1,其他,i,,,,,,,,,,,,,,,,,,,,,,,,,,,,,,,,,,,,,,,,,
,,,,,,,,,,,,,,1,001,2024-08-25_17h06.09.608,IAT(Formal),2021.2.3,Win32,60.0240096,,,,,,,,,,,,,,,e,1,0.684,0,2,2,12,1,聪明,e,,,,,,,,,,,,,,,,,,,,,,,,,,,,,,,,,,,,,,,,,
,,,,,,,,,,,,,,1,001,2024-08-25_17h06.09.608,IAT(Formal),2021.2.3,Win32,60.0240096,,,,,,,,,,,,,,,e,1,0.668,0,3,3,21,1,稳重,e,,,,,,,,,,,,,,,,,,,,,,,,,,,,,,,,,,,,,,,,,
,,,,,,,,,,,,,,1,001,2024-08-25_17h06.09.608,IAT(Formal),2021.2.3,Win32,60.0240096,,,,,,,,,,,,,,,i,1,0.653,0,4,4,43,1,自私,i,,,,,,,,,,,,,,,,,,,,,,,,,,,,,,,,,,,,,,,,,
,,,,,,,,,,,,,,1,001,2024-08-25_17h06.09.608,IAT(Formal),2021.2.3,Win32,60.0240096,,,,,,,,,,,,,,,e,1,0.656,0,5,5,27,1,热情,e,,,,,,,,,,,,,,,,,,,,,,,,,,,,,,,,,,,,,,,,,
,,,,,,,,,,,,,,1,001,2024-08-25_17h06.09.608,IAT(Formal),2021.2.3,Win32,60.0240096,,,,,,,,,,,,,,,e,1,0.561,0,6,6,29,1,诚恳,e,,,,,,,,,,,,,,,,,,,,,,,,,,,,,,,,,,,,,,,,,
,,,,,,,,,,,,,,1,001,2024-08-25_17h06.09.608,IAT(Formal),2021.2.3,Win32,60.0240096,,,,,,,,,,,,,,,e,1,0.514,0,7,7,18,1,勤奋,e,,,,,,,,,,,,,,,,,,,,,,,,,,,,,,,,,,,,,,,,,
,,,,,,,,,,,,,,1,001,2024-08-25_17h06.09.608,IAT(Formal),2021.2.3,Win32,60.0240096,,,,,,,,,,,,,,,e,1,0.776,0,8,8,54,1,俺,e,,,,,,,,,,,,,,,,,,,,,,,,,,,,,,,,,,,,,,,,,
,,,,,,,,,,,,,,1,001,2024-08-25_17h06.09.608,IAT(Formal),2021.2.3,Win32,60.0240096,,,,,,,,,,,,,,,e,1,0.482,0,9,9,60,1,我,e,,,,,,,,,,,,,,,,,,,,,,,,,,,,,,,,,,,,,,,,,
,,,,,,,,,,,,,,1,001,2024-08-25_17h06.09.608,IAT(Formal),2021.2.3,Win32,60.0240096,,,,,,,,,,,,,,,i,1,0.753,0,10,10,5,1,他,i,,,,,,,,,,,,,,,,,,,,,,,,,,,,,,,,,,,,,,,,,
,,,,,,,,,,,,,,1,001,2024-08-25_17h06.09.608,IAT(Formal),2021.2.3,Win32,60.0240096,,,,,,,,,,,,,,,i,1,0.515,0,11,11,67,1,他的,i,,,,,,,,,,,,,,,,,,,,,,,,,,,,,,,,,,,,,,,,,
,,,,,,,,,,,,,,1,001,2024-08-25_17h06.09.608,IAT(Formal),2021.2.3,Win32,60.0240096,,,,,,,,,,,,,,,e,1,0.554,0,12,12,52,1,我们,e,,,,,,,,,,,,,,,,,,,,,,,,,,,,,,,,,,,,,,,,,
,,,,,,,,,,,,,,1,001,2024-08-25_17h06.09.608,IAT(Formal),2021.2.3,Win32,60.0240096,,,,,,,,,,,,,,,i,1,0.599,0,13,13,8,1,他人,i,,,,,,,,,,,,,,,,,,,,,,,,,,,,,,,,,,,,,,,,,
,,,,,,,,,,,,,,1,001,2024-08-25_17h06.09.608,IAT(Formal),2021.2.3,Win32,60.0240096,,,,,,,,,,,,,,,i,1,0.548,0,14,14,7,1,他的,i,,,,,,,,,,,,,,,,,,,,,,,,,,,,,,,,,,,,,,,,,
,,,,,,,,,,,,,,1,001,2024-08-25_17h06.09.608,IAT(Formal),2021.2.3,Win32,60.0240096,,,,,,,,,,,,,,,e,1,0.482,0,15,15,70,1,我,e,,,,,,,,,,,,,,,,,,,,,,,,,,,,,,,,,,,,,,,,,
,,,,,,,,,,,,,,1,001,2024-08-25_17h06.09.608,IAT(Formal),2021.2.3,Win32,60.0240096,,,,,,,,,,,,,,,i,1,0.784,0,16,16,38,1,鲁莽,i,,,,,,,,,,,,,,,,,,,,,,,,,,,,,,,,,,,,,,,,,
,,,,,,,,,,,,,,1,001,2024-08-25_17h06.09.608,IAT(Formal),2021.2.3,Win32,60.0240096,,,,,,,,,,,,,,,e,1,0.786,0,17,17,0,1,我,e,,,,,,,,,,,,,,,,,,,,,,,,,,,,,,,,,,,,,,,,,
,,,,,,,,,,,,,,1,001,2024-08-25_17h06.09.608,IAT(Formal),2021.2.3,Win32,60.0240096,,,,,,,,,,,,,,,i,1,0.694,0,18,18,32,1,愚蠢,i,,,,,,,,,,,,,,,,,,,,,,,,,,,,,,,,,,,,,,,,,
,,,,,,,,,,,,,,1,001,2024-08-25_17h06.09.608,IAT(Formal),2021.2.3,Win32,60.0240096,,,,,,,,,,,,,,,i,1,0.675,0,19,19,42,1,凶狠,i,,,,,,,,,,,,,,,,,,,,,,,,,,,,,,,,,,,,,,,,,
,,,,,,,,,,,,,,1,001,2024-08-25_17h06.09.608,IAT(Formal),2021.2.3,Win32,60.0240096,,,,,,,,,,,,,,,i,1,0.604,0,20,20,31,1,虚伪,i,,,,,,,,,,,,,,,,,,,,,,,,,,,,,,,,,,,,,,,,,
,,,,,,,,,,,,,,1,001,2024-08-25_17h06.09.608,IAT(Formal),2021.2.3,Win32,60.0240096,,,,,,,,,,,,,,,i,1,0.633,0,21,21,59,1,其他,i,,,,,,,,,,,,,,,,,,,,,,,,,,,,,,,,,,,,,,,,,
,,,,,,,,,,,,,,1,001,2024-08-25_17h06.09.608,IAT(Formal),2021.2.3,Win32,60.0240096,,,,,,,,,,,,,,,e,1,0.569,0,22,22,74,1,俺,e,,,,,,,,,,,,,,,,,,,,,,,,,,,,,,,,,,,,,,,,,
,,,,,,,,,,,,,,1,001,2024-08-25_17h06.09.608,IAT(Formal),2021.2.3,Win32,60.0240096,,,,,,,,,,,,,,,i,1,0.888,0,23,23,44,1,暴躁,i,,,,,,,,,,,,,,,,,,,,,,,,,,,,,,,,,,,,,,,,,
,,,,,,,,,,,,,,1,001,2024-08-25_17h06.09.608,IAT(Formal),2021.2.3,Win32,60.0240096,,,,,,,,,,,,,,,e,1,0.635,0,24,24,4,1,俺,e,,,,,,,,,,,,,,,,,,,,,,,,,,,,,,,,,,,,,,,,,
,,,,,,,,,,,,,,1,001,2024-08-25_17h06.09.608,IAT(Formal),2021.2.3,Win32,60.0240096,,,,,,,,,,,,,,,i,1,0.595,0,25,25,65,1,他,i,,,,,,,,,,,,,,,,,,,,,,,,,,,,,,,,,,,,,,,,,
,,,,,,,,,,,,,,1,001,2024-08-25_17h06.09.608,IAT(Formal),2021.2.3,Win32,60.0240096,,,,,,,,,,,,,,,i,1,0.582,0,26,26,56,1,他们,i,,,,,,,,,,,,,,,,,,,,,,,,,,,,,,,,,,,,,,,,,
,,,,,,,,,,,,,,1,001,2024-08-25_17h06.09.608,IAT(Formal),2021.2.3,Win32,60.0240096,,,,,,,,,,,,,,,i,1,0.677,0,27,27,34,1,悲观,i,,,,,,,,,,,,,,,,,,,,,,,,,,,,,,,,,,,,,,,,,
,,,,,,,,,,,,,,1,001,2024-08-25_17h06.09.608,IAT(Formal),2021.2.3,Win32,60.0240096,,,,,,,,,,,,,,,e,1,0.72,0,28,28,19,1,机智,e,,,,,,,,,,,,,,,,,,,,,,,,,,,,,,,,,,,,,,,,,
,,,,,,,,,,,,,,1,001,2024-08-25_17h06.09.608,IAT(Formal),2021.2.3,Win32,60.0240096,,,,,,,,,,,,,,,i,1,0.692,0,29,29,30,1,卑鄙,i,,,,,,,,,,,,,,,,,,,,,,,,,,,,,,,,,,,,,,,,,
,,,,,,,,,,,,,,1,001,2024-08-25_17h06.09.608,IAT(Formal),2021.2.3,Win32,60.0240096,,,,,,,,,,,,,,,i,1,0.723,0,30,30,57,1,他的,i,,,,,,,,,,,,,,,,,,,,,,,,,,,,,,,,,,,,,,,,,
,,,,,,,,,,,,,,1,001,2024-08-25_17h06.09.608,IAT(Formal),2021.2.3,Win32,60.0240096,,,,,,,,,,,,,,,i,1,0.849,0,31,31,76,1,他们,i,,,,,,,,,,,,,,,,,,,,,,,,,,,,,,,,,,,,,,,,,
,,,,,,,,,,,,,,1,001,2024-08-25_17h06.09.608,IAT(Formal),2021.2.3,Win32,60.0240096,,,,,,,,,,,,,,,e,1,0.52,0,32,32,72,1,我们,e,,,,,,,,,,,,,,,,,,,,,,,,,,,,,,,,,,,,,,,,,
,,,,,,,,,,,,,,1,001,2024-08-25_17h06.09.608,IAT(Formal),2021.2.3,Win32,60.0240096,,,,,,,,,,,,,,,i,1,0.703,0,33,33,37,1,傲慢,i,,,,,,,,,,,,,,,,,,,,,,,,,,,,,,,,,,,,,,,,,
,,,,,,,,,,,,,,1,001,2024-08-25_17h06.09.608,IAT(Formal),2021.2.3,Win32,60.0240096,,,,,,,,,,,,,,,i,1,0.816,0,34,34,79,1,其他,i,,,,,,,,,,,,,,,,,,,,,,,,,,,,,,,,,,,,,,,,,
,,,,,,,,,,,,,,1,001,2024-08-25_17h06.09.608,IAT(Formal),2021.2.3,Win32,60.0240096,,,,,,,,,,,,,,,e,1,0.777,0,35,35,71,1,我的,e,,,,,,,,,,,,,,,,,,,,,,,,,,,,,,,,,,,,,,,,,
,,,,,,,,,,,,,,1,001,2024-08-25_17h06.09.608,IAT(Formal),2021.2.3,Win32,60.0240096,,,,,,,,,,,,,,,e,1,1.115,0,36,36,73,1,自己,e,,,,,,,,,,,,,,,,,,,,,,,,,,,,,,,,,,,,,,,,,
,,,,,,,,,,,,,,1,001,2024-08-25_17h06.09.608,IAT(Formal),2021.2.3,Win32,60.0240096,,,,,,,,,,,,,,,e,1,0.579,0,37,37,15,1,诚实,e,,,,,,,,,,,,,,,,,,,,,,,,,,,,,,,,,,,,,,,,,
,,,,,,,,,,,,,,1,001,2024-08-25_17h06.09.608,IAT(Formal),2021.2.3,Win32,60.0240096,,,,,,,,,,,,,,,i,1,0.618,0,38,38,36,1,自卑,i,,,,,,,,,,,,,,,,,,,,,,,,,,,,,,,,,,,,,,,,,
,,,,,,,,,,,,,,1,001,2024-08-25_17h06.09.608,IAT(Formal),2021.2.3,Win32,60.0240096,,,,,,,,,,,,,,,e,1,0.95,0,39,39,24,1,朴实,e,,,,,,,,,,,,,,,,,,,,,,,,,,,,,,,,,,,,,,,,,
,,,,,,,,,,,,,,1,001,2024-08-25_17h06.09.608,IAT(Formal),2021.2.3,Win32,60.0240096,,,,,,,,,,,,,,,e,1,0.549,0,40,40,51,1,我的,e,,,,,,,,,,,,,,,,,,,,,,,,,,,,,,,,,,,,,,,,,
,,,,,,,,,,,,,,1,001,2024-08-25_17h06.09.608,IAT(Formal),2021.2.3,Win32,60.0240096,,,,,,,,,,,,,,,i,1,0.601,0,41,41,58,1,他人,i,,,,,,,,,,,,,,,,,,,,,,,,,,,,,,,,,,,,,,,,,
,,,,,,,,,,,,,,1,001,2024-08-25_17h06.09.608,IAT(Formal),2021.2.3,Win32,60.0240096,,,,,,,,,,,,,,,e,1,0.703,0,42,42,61,1,我的,e,,,,,,,,,,,,,,,,,,,,,,,,,,,,,,,,,,,,,,,,,
,,,,,,,,,,,,,,1,001,2024-08-25_17h06.09.608,IAT(Formal),2021.2.3,Win32,60.0240096,,,,,,,,,,,,,,,e,1,0.633,0,43,43,11,1,崇高,e,,,,,,,,,,,,,,,,,,,,,,,,,,,,,,,,,,,,,,,,,
,,,,,,,,,,,,,,1,001,2024-08-25_17h06.09.608,IAT(Formal),2021.2.3,Win32,60.0240096,,,,,,,,,,,,,,,i,1,0.718,0,44,44,39,1,冒失,i,,,,,,,,,,,,,,,,,,,,,,,,,,,,,,,,,,,,,,,,,
,,,,,,,,,,,,,,1,001,2024-08-25_17h06.09.608,IAT(Formal),2021.2.3,Win32,60.0240096,,,,,,,,,,,,,,,i,1,0.764,0,45,45,6,1,他们,i,,,,,,,,,,,,,,,,,,,,,,,,,,,,,,,,,,,,,,,,,
,,,,,,,,,,,,,,1,001,2024-08-25_17h06.09.608,IAT(Formal),2021.2.3,Win32,60.0240096,,,,,,,,,,,,,,,e,1,0.584,0,46,46,13,1,杰出,e,,,,,,,,,,,,,,,,,,,,,,,,,,,,,,,,,,,,,,,,,
,,,,,,,,,,,,,,1,001,2024-08-25_17h06.09.608,IAT(Formal),2021.2.3,Win32,60.0240096,,,,,,,,,,,,,,,e,1,0.557,0,47,47,23,1,公正,e,,,,,,,,,,,,,,,,,,,,,,,,,,,,,,,,,,,,,,,,,
,,,,,,,,,,,,,,1,001,2024-08-25_17h06.09.608,IAT(Formal),2021.2.3,Win32,60.0240096,,,,,,,,,,,,,,,e,1,0.584,0,48,48,62,1,我们,e,,,,,,,,,,,,,,,,,,,,,,,,,,,,,,,,,,,,,,,,,
,,,,,,,,,,,,,,1,001,2024-08-25_17h06.09.608,IAT(Formal),2021.2.3,Win32,60.0240096,,,,,,,,,,,,,,,i,1,0.52,0,49,49,35,1,消极,i,,,,,,,,,,,,,,,,,,,,,,,,,,,,,,,,,,,,,,,,,
,,,,,,,,,,,,,,1,001,2024-08-25_17h06.09.608,IAT(Formal),2021.2.3,Win32,60.0240096,,,,,,,,,,,,,,,i,1,0.595,0,50,50,75,1,他,i,,,,,,,,,,,,,,,,,,,,,,,,,,,,,,,,,,,,,,,,,
,,,,,,,,,,,,,,1,001,2024-08-25_17h06.09.608,IAT(Formal),2021.2.3,Win32,60.0240096,,,,,,,,,,,,,,,i,1,0.649,0,51,51,78,1,他人,i,,,,,,,,,,,,,,,,,,,,,,,,,,,,,,,,,,,,,,,,,
,,,,,,,,,,,,,,1,001,2024-08-25_17h06.09.608,IAT(Formal),2021.2.3,Win32,60.0240096,,,,,,,,,,,,,,,e,1,0.516,0,52,52,50,1,我,e,,,,,,,,,,,,,,,,,,,,,,,,,,,,,,,,,,,,,,,,,
,,,,,,,,,,,,,,1,001,2024-08-25_17h06.09.608,IAT(Formal),2021.2.3,Win32,60.0240096,,,,,,,,,,,,,,,e,1,0.649,0,53,53,16,1,正直,e,,,,,,,,,,,,,,,,,,,,,,,,,,,,,,,,,,,,,,,,,
,,,,,,,,,,,,,,1,001,2024-08-25_17h06.09.608,IAT(Formal),2021.2.3,Win32,60.0240096,,,,,,,,,,,,,,,e,1,0.819,0,54,54,26,1,冷静,e,,,,,,,,,,,,,,,,,,,,,,,,,,,,,,,,,,,,,,,,,
,,,,,,,,,,,,,,1,001,2024-08-25_17h06.09.608,IAT(Formal),2021.2.3,Win32,60.0240096,,,,,,,,,,,,,,,i,1,0.532,0,55,55,49,1,下贱,i,,,,,,,,,,,,,,,,,,,,,,,,,,,,,,,,,,,,,,,,,
,,,,,,,,,,,,,,1,001,2024-08-25_17h06.09.608,IAT(Formal),2021.2.3,Win32,60.0240096,,,,,,,,,,,,,,,e,1,0.701,0,56,56,53,1,自己,e,,,,,,,,,,,,,,,,,,,,,,,,,,,,,,,,,,,,,,,,,
,,,,,,,,,,,,,,1,001,2024-08-25_17h06.09.608,IAT(Formal),2021.2.3,Win32,60.0240096,,,,,,,,,,,,,,,e,1,0.615,0,57,57,10,1,优秀,e,,,,,,,,,,,,,,,,,,,,,,,,,,,,,,,,,,,,,,,,,
,,,,,,,,,,,,,,1,001,2024-08-25_17h06.09.608,IAT(Formal),2021.2.3,Win32,60.0240096,,,,,,,,,,,,,,,i,1,0.748,0,58,58,77,1,他的,i,,,,,,,,,,,,,,,,,,,,,,,,,,,,,,,,,,,,,,,,,
,,,,,,,,,,,,,,1,001,2024-08-25_17h06.09.608,IAT(Formal),2021.2.3,Win32,60.0240096,,,,,,,,,,,,,,,e,1,0.574,0,59,59,64,1,俺,e,,,,,,,,,,,,,,,,,,,,,,,,,,,,,,,,,,,,,,,,,
,,,,,,,,,,,,,,1,001,2024-08-25_17h06.09.608,IAT(Formal),2021.2.3,Win32,60.0240096,,,,,,,,,,,,,,,i,1,0.664,0,60,60,46,1,野蛮,i,,,,,,,,,,,,,,,,,,,,,,,,,,,,,,,,,,,,,,,,,
,,,,,,,,,,,,,,1,001,2024-08-25_17h06.09.608,IAT(Formal),2021.2.3,Win32,60.0240096,,,,,,,,,,,,,,,e,1,0.851,0,61,61,14,1,乐观,e,,,,,,,,,,,,,,,,,,,,,,,,,,,,,,,,,,,,,,,,,
,,,,,,,,,,,,,,1,001,2024-08-25_17h06.09.608,IAT(Formal),2021.2.3,Win32,60.0240096,,,,,,,,,,,,,,,e,1,0.483,0,62,62,2,1,我们,e,,,,,,,,,,,,,,,,,,,,,,,,,,,,,,,,,,,,,,,,,
,,,,,,,,,,,,,,1,001,2024-08-25_17h06.09.608,IAT(Formal),2021.2.3,Win32,60.0240096,,,,,,,,,,,,,,,e,1,0.465,0,63,63,63,1,自己,e,,,,,,,,,,,,,,,,,,,,,,,,,,,,,,,,,,,,,,,,,
,,,,,,,,,,,,,,1,001,2024-08-25_17h06.09.608,IAT(Formal),2021.2.3,Win32,60.0240096,,,,,,,,,,,,,,,e,1,0.502,0,64,64,3,1,自己,e,,,,,,,,,,,,,,,,,,,,,,,,,,,,,,,,,,,,,,,,,
,,,,,,,,,,,,,,1,001,2024-08-25_17h06.09.608,IAT(Formal),2021.2.3,Win32,60.0240096,,,,,,,,,,,,,,,e,1,0.715,0,65,65,28,1,活泼,e,,,,,,,,,,,,,,,,,,,,,,,,,,,,,,,,,,,,,,,,,
,,,,,,,,,,,,,,1,001,2024-08-25_17h06.09.608,IAT(Formal),2021.2.3,Win32,60.0240096,,,,,,,,,,,,,,,i,1,0.699,0,66,66,48,1,轻率,i,,,,,,,,,,,,,,,,,,,,,,,,,,,,,,,,,,,,,,,,,
,,,,,,,,,,,,,,1,001,2024-08-25_17h06.09.608,IAT(Formal),2021.2.3,Win32,60.0240096,,,,,,,,,,,,,,,i,1,0.69,0,67,67,47,1,固执,i,,,,,,,,,,,,,,,,,,,,,,,,,,,,,,,,,,,,,,,,,
,,,,,,,,,,,,,,1,001,2024-08-25_17h06.09.608,IAT(Formal),2021.2.3,Win32,60.0240096,,,,,,,,,,,,,,,e,1,0.747,0,68,68,25,1,细腻,e,,,,,,,,,,,,,,,,,,,,,,,,,,,,,,,,,,,,,,,,,
,,,,,,,,,,,,,,1,001,2024-08-25_17h06.09.608,IAT(Formal),2021.2.3,Win32,60.0240096,,,,,,,,,,,,,,,i,1,0.554,0,69,69,33,1,刻薄,i,,,,,,,,,,,,,,,,,,,,,,,,,,,,,,,,,,,,,,,,,
,,,,,,,,,,,,,,1,001,2024-08-25_17h06.09.608,IAT(Formal),2021.2.3,Win32,60.0240096,,,,,,,,,,,,,,,e,1,0.621,0,70,70,17,1,勇敢,e,,,,,,,,,,,,,,,,,,,,,,,,,,,,,,,,,,,,,,,,,
,,,,,,,,,,,,,,1,001,2024-08-25_17h06.09.608,IAT(Formal),2021.2.3,Win32,60.0240096,,,,,,,,,,,,,,,i,1,0.762,0,71,71,66,1,他们,i,,,,,,,,,,,,,,,,,,,,,,,,,,,,,,,,,,,,,,,,,
,,,,,,,,,,,,,,1,001,2024-08-25_17h06.09.608,IAT(Formal),2021.2.3,Win32,60.0240096,,,,,,,,,,,,,,,i,1,0.456,0,72,72,55,1,他,i,,,,,,,,,,,,,,,,,,,,,,,,,,,,,,,,,,,,,,,,,
,,,,,,,,,,,,,,1,001,2024-08-25_17h06.09.608,IAT(Formal),2021.2.3,Win32,60.0240096,,,,,,,,,,,,,,,e,1,0.598,0,73,73,20,1,认真,e,,,,,,,,,,,,,,,,,,,,,,,,,,,,,,,,,,,,,,,,,
,,,,,,,,,,,,,,1,001,2024-08-25_17h06.09.608,IAT(Formal),2021.2.3,Win32,60.0240096,,,,,,,,,,,,,,,i,1,0.62,0,74,74,45,1,猖狂,i,,,,,,,,,,,,,,,,,,,,,,,,,,,,,,,,,,,,,,,,,
,,,,,,,,,,,,,,1,001,2024-08-25_17h06.09.608,IAT(Formal),2021.2.3,Win32,60.0240096,,,,,,,,,,,,,,,i,1,0.696,0,75,75,68,1,他人,i,,,,,,,,,,,,,,,,,,,,,,,,,,,,,,,,,,,,,,,,,
,,,,,,,,,,,,,,1,001,2024-08-25_17h06.09.608,IAT(Formal),2021.2.3,Win32,60.0240096,,,,,,,,,,,,,,,i,1,0.649,0,76,76,41,1,散漫,i,,,,,,,,,,,,,,,,,,,,,,,,,,,,,,,,,,,,,,,,,
,,,,,,,,,,,,,,1,001,2024-08-25_17h06.09.608,IAT(Formal),2021.2.3,Win32,60.0240096,,,,,,,,,,,,,,,e,1,0.816,0,77,77,22,1,无私,e,,,,,,,,,,,,,,,,,,,,,,,,,,,,,,,,,,,,,,,,,
,,,,,,,,,,,,,,1,001,2024-08-25_17h06.09.608,IAT(Formal),2021.2.3,Win32,60.0240096,,,,,,,,,,,,,,,e,1,0.549,0,78,78,1,1,我的,e,,,,,,,,,,,,,,,,,,,,,,,,,,,,,,,,,,,,,,,,,
,,,,,,,,,,,,,,1,001,2024-08-25_17h06.09.608,IAT(Formal),2021.2.3,Win32,60.0240096,,,,,,,,,,,,,,,i,1,0.619,0,79,79,40,1,执拗,i,,,,,,,,,,,,,,,,,,,,,,,,,,,,,,,,,,,,,,,,,
,,,,,,,,,,,,,,1,001,2024-08-25_17h06.09.608,IAT(Formal),2021.2.3,Win32,60.0240096,,,,,,,,,,,,,,,e,1,0.655,,,,,,聪明,e,space,7.869,0,0,0,12,1,,,,,,,,,,,,,,,,,,,,,,,,,,,,,,,,,,
,,,,,,,,,,,,,,1,001,2024-08-25_17h06.09.608,IAT(Formal),2021.2.3,Win32,60.0240096,,,,,,,,,,,,,,,i,1,0.62,,,,,,猖狂,i,,,0,1,1,45,1,,,,,,,,,,,,,,,,,,,,,,,,,,,,,,,,,,
,,,,,,,,,,,,,,1,001,2024-08-25_17h06.09.608,IAT(Formal),2021.2.3,Win32,60.0240096,,,,,,,,,,,,,,,e,1,0.664,,,,,,正直,e,,,0,2,2,16,1,,,,,,,,,,,,,,,,,,,,,,,,,,,,,,,,,,
,,,,,,,,,,,,,,1,001,2024-08-25_17h06.09.608,IAT(Formal),2021.2.3,Win32,60.0240096,,,,,,,,,,,,,,,e,1,0.512,,,,,,我的,e,,,0,3,3,1,1,,,,,,,,,,,,,,,,,,,,,,,,,,,,,,,,,,
,,,,,,,,,,,,,,1,001,2024-08-25_17h06.09.608,IAT(Formal),2021.2.3,Win32,60.0240096,,,,,,,,,,,,,,,e,1,0.582,,,,,,我,e,,,0,4,4,50,1,,,,,,,,,,,,,,,,,,,,,,,,,,,,,,,,,,
,,,,,,,,,,,,,,1,001,2024-08-25_17h06.09.608,IAT(Formal),2021.2.3,Win32,60.0240096,,,,,,,,,,,,,,,i,1,0.666,,,,,,他的,i,,,0,5,5,57,1,,,,,,,,,,,,,,,,,,,,,,,,,,,,,,,,,,
,,,,,,,,,,,,,,1,001,2024-08-25_17h06.09.608,IAT(Formal),2021.2.3,Win32,60.0240096,,,,,,,,,,,,,,,i,1,0.538,,,,,,他人,i,,,0,6,6,78,1,,,,,,,,,,,,,,,,,,,,,,,,,,,,,,,,,,
,,,,,,,,,,,,,,1,001,2024-08-25_17h06.09.608,IAT(Formal),2021.2.3,Win32,60.0240096,,,,,,,,,,,,,,,e,1,0.581,,,,,,自己,e,,,0,7,7,73,1,,,,,,,,,,,,,,,,,,,,,,,,,,,,,,,,,,
,,,,,,,,,,,,,,1,001,2024-08-25_17h06.09.608,IAT(Formal),2021.2.3,Win32,60.0240096,,,,,,,,,,,,,,,e,1,0.633,,,,,,认真,e,,,0,8,8,20,1,,,,,,,,,,,,,,,,,,,,,,,,,,,,,,,,,,
,,,,,,,,,,,,,,1,001,2024-08-25_17h06.09.608,IAT(Formal),2021.2.3,Win32,60.0240096,,,,,,,,,,,,,,,e,1,0.685,,,,,,俺,e,,,0,9,9,74,1,,,,,,,,,,,,,,,,,,,,,,,,,,,,,,,,,,
,,,,,,,,,,,,,,1,001,2024-08-25_17h06.09.608,IAT(Formal),2021.2.3,Win32,60.0240096,,,,,,,,,,,,,,,i,1,0.766,,,,,,固执,i,,,0,10,10,47,1,,,,,,,,,,,,,,,,,,,,,,,,,,,,,,,,,,
,,,,,,,,,,,,,,1,001,2024-08-25_17h06.09.608,IAT(Formal),2021.2.3,Win32,60.0240096,,,,,,,,,,,,,,,e,1,0.727,,,,,,俺,e,,,0,11,11,64,1,,,,,,,,,,,,,,,,,,,,,,,,,,,,,,,,,,
,,,,,,,,,,,,,,1,001,2024-08-25_17h06.09.608,IAT(Formal),2021.2.3,Win32,60.0240096,,,,,,,,,,,,,,,e,1,0.544,,,,,,我的,e,,,0,12,12,61,1,,,,,,,,,,,,,,,,,,,,,,,,,,,,,,,,,,
,,,,,,,,,,,,,,1,001,2024-08-25_17h06.09.608,IAT(Formal),2021.2.3,Win32,60.0240096,,,,,,,,,,,,,,,i,1,0.585,,,,,,他们,i,,,0,13,13,6,1,,,,,,,,,,,,,,,,,,,,,,,,,,,,,,,,,,
,,,,,,,,,,,,,,1,001,2024-08-25_17h06.09.608,IAT(Formal),2021.2.3,Win32,60.0240096,,,,,,,,,,,,,,,i,1,0.6,,,,,,其他,i,,,0,14,14,9,1,,,,,,,,,,,,,,,,,,,,,,,,,,,,,,,,,,
,,,,,,,,,,,,,,1,001,2024-08-25_17h06.09.608,IAT(Formal),2021.2.3,Win32,60.0240096,,,,,,,,,,,,,,,e,1,0.697,,,,,,细腻,e,,,0,15,15,25,1,,,,,,,,,,,,,,,,,,,,,,,,,,,,,,,,,,
,,,,,,,,,,,,,,1,001,2024-08-25_17h06.09.608,IAT(Formal),2021.2.3,Win32,60.0240096,,,,,,,,,,,,,,,e,1,0.536,,,,,,我,e,,,0,16,16,0,1,,,,,,,,,,,,,,,,,,,,,,,,,,,,,,,,,,
,,,,,,,,,,,,,,1,001,2024-08-25_17h06.09.608,IAT(Formal),2021.2.3,Win32,60.0240096,,,,,,,,,,,,,,,e,1,0.472,,,,,,我,e,,,0,17,17,70,1,,,,,,,,,,,,,,,,,,,,,,,,,,,,,,,,,,
,,,,,,,,,,,,,,1,001,2024-08-25_17h06.09.608,IAT(Formal),2021.2.3,Win32,60.0240096,,,,,,,,,,,,,,,i,1,0.682,,,,,,他,i,,,0,18,18,65,1,,,,,,,,,,,,,,,,,,,,,,,,,,,,,,,,,,
,,,,,,,,,,,,,,1,001,2024-08-25_17h06.09.608,IAT(Formal),2021.2.3,Win32,60.0240096,,,,,,,,,,,,,,,e,1,0.519,,,,,,我们,e,,,0,19,19,2,1,,,,,,,,,,,,,,,,,,,,,,,,,,,,,,,,,,
,,,,,,,,,,,,,,1,001,2024-08-25_17h06.09.608,IAT(Formal),2021.2.3,Win32,60.0240096,,,,,,,,,,,,,,,i,1,0.58,,,,,,其他,i,,,0,20,20,79,1,,,,,,,,,,,,,,,,,,,,,,,,,,,,,,,,,,
,,,,,,,,,,,,,,1,001,2024-08-25_17h06.09.608,IAT(Formal),2021.2.3,Win32,60.0240096,,,,,,,,,,,,,,,e,1,0.619,,,,,,杰出,e,,,0,21,21,13,1,,,,,,,,,,,,,,,,,,,,,,,,,,,,,,,,,,
,,,,,,,,,,,,,,1,001,2024-08-25_17h06.09.608,IAT(Formal),2021.2.3,Win32,60.0240096,,,,,,,,,,,,,,,i,1,0.728,,,,,,虚伪,i,,,0,22,22,31,1,,,,,,,,,,,,,,,,,,,,,,,,,,,,,,,,,,
,,,,,,,,,,,,,,1,001,2024-08-25_17h06.09.608,IAT(Formal),2021.2.3,Win32,60.0240096,,,,,,,,,,,,,,,i,1,0.574,,,,,,轻率,i,,,0,23,23,48,1,,,,,,,,,,,,,,,,,,,,,,,,,,,,,,,,,,
,,,,,,,,,,,,,,1,001,2024-08-25_17h06.09.608,IAT(Formal),2021.2.3,Win32,60.0240096,,,,,,,,,,,,,,,i,1,0.624,,,,,,暴躁,i,,,0,24,24,44,1,,,,,,,,,,,,,,,,,,,,,,,,,,,,,,,,,,
,,,,,,,,,,,,,,1,001,2024-08-25_17h06.09.608,IAT(Formal),2021.2.3,Win32,60.0240096,,,,,,,,,,,,,,,i,1,0.731,,,,,,自私,i,,,0,25,25,43,1,,,,,,,,,,,,,,,,,,,,,,,,,,,,,,,,,,
,,,,,,,,,,,,,,1,001,2024-08-25_17h06.09.608,IAT(Formal),2021.2.3,Win32,60.0240096,,,,,,,,,,,,,,,e,1,0.636,,,,,,优秀,e,,,0,26,26,10,1,,,,,,,,,,,,,,,,,,,,,,,,,,,,,,,,,,
,,,,,,,,,,,,,,1,001,2024-08-25_17h06.09.608,IAT(Formal),2021.2.3,Win32,60.0240096,,,,,,,,,,,,,,,e,1,0.668,,,,,,自己,e,,,0,27,27,53,1,,,,,,,,,,,,,,,,,,,,,,,,,,,,,,,,,,
,,,,,,,,,,,,,,1,001,2024-08-25_17h06.09.608,IAT(Formal),2021.2.3,Win32,60.0240096,,,,,,,,,,,,,,,e,1,0.645,,,,,,诚实,e,,,0,28,28,15,1,,,,,,,,,,,,,,,,,,,,,,,,,,,,,,,,,,
,,,,,,,,,,,,,,1,001,2024-08-25_17h06.09.608,IAT(Formal),2021.2.3,Win32,60.0240096,,,,,,,,,,,,,,,i,1,0.653,,,,,,傲慢,i,,,0,29,29,37,1,,,,,,,,,,,,,,,,,,,,,,,,,,,,,,,,,,
,,,,,,,,,,,,,,1,001,2024-08-25_17h06.09.608,IAT(Formal),2021.2.3,Win32,60.0240096,,,,,,,,,,,,,,,e,1,0.601,,,,,,我的,e,,,0,30,30,51,1,,,,,,,,,,,,,,,,,,,,,,,,,,,,,,,,,,
,,,,,,,,,,,,,,1,001,2024-08-25_17h06.09.608,IAT(Formal),2021.2.3,Win32,60.0240096,,,,,,,,,,,,,,,e,1,0.55,,,,,,我们,e,,,0,31,31,62,1,,,,,,,,,,,,,,,,,,,,,,,,,,,,,,,,,,
,,,,,,,,,,,,,,1,001,2024-08-25_17h06.09.608,IAT(Formal),2021.2.3,Win32,60.0240096,,,,,,,,,,,,,,,i,1,0.604,,,,,,他们,i,,,0,32,32,76,1,,,,,,,,,,,,,,,,,,,,,,,,,,,,,,,,,,
,,,,,,,,,,,,,,1,001,2024-08-25_17h06.09.608,IAT(Formal),2021.2.3,Win32,60.0240096,,,,,,,,,,,,,,,i,1,0.682,,,,,,他,i,,,0,33,33,5,1,,,,,,,,,,,,,,,,,,,,,,,,,,,,,,,,,,
,,,,,,,,,,,,,,1,001,2024-08-25_17h06.09.608,IAT(Formal),2021.2.3,Win32,60.0240096,,,,,,,,,,,,,,,e,1,0.614,,,,,,热情,e,,,0,34,34,27,1,,,,,,,,,,,,,,,,,,,,,,,,,,,,,,,,,,
,,,,,,,,,,,,,,1,001,2024-08-25_17h06.09.608,IAT(Formal),2021.2.3,Win32,60.0240096,,,,,,,,,,,,,,,i,1,0.616,,,,,,他人,i,,,0,35,35,8,1,,,,,,,,,,,,,,,,,,,,,,,,,,,,,,,,,,
,,,,,,,,,,,,,,1,001,2024-08-25_17h06.09.608,IAT(Formal),2021.2.3,Win32,60.0240096,,,,,,,,,,,,,,,e,1,0.699,,,,,,活泼,e,,,0,36,36,28,1,,,,,,,,,,,,,,,,,,,,,,,,,,,,,,,,,,
,,,,,,,,,,,,,,1,001,2024-08-25_17h06.09.608,IAT(Formal),2021.2.3,Win32,60.0240096,,,,,,,,,,,,,,,e,1,0.567,,,,,,我们,e,,,0,37,37,72,1,,,,,,,,,,,,,,,,,,,,,,,,,,,,,,,,,,
,,,,,,,,,,,,,,1,001,2024-08-25_17h06.09.608,IAT(Formal),2021.2.3,Win32,60.0240096,,,,,,,,,,,,,,,e,1,0.703,,,,,,朴实,e,,,0,38,38,24,1,,,,,,,,,,,,,,,,,,,,,,,,,,,,,,,,,,
,,,,,,,,,,,,,,1,001,2024-08-25_17h06.09.608,IAT(Formal),2021.2.3,Win32,60.0240096,,,,,,,,,,,,,,,e,1,0.508,,,,,,我们,e,,,0,39,39,52,1,,,,,,,,,,,,,,,,,,,,,,,,,,,,,,,,,,
,,,,,,,,,,,,,,1,001,2024-08-25_17h06.09.608,IAT(Formal),2021.2.3,Win32,60.0240096,,,,,,,,,,,,,,,i,1,0.704,,,,,,他们,i,,,0,40,40,56,1,,,,,,,,,,,,,,,,,,,,,,,,,,,,,,,,,,
,,,,,,,,,,,,,,1,001,2024-08-25_17h06.09.608,IAT(Formal),2021.2.3,Win32,60.0240096,,,,,,,,,,,,,,,e,1,0.599,,,,,,俺,e,,,0,41,41,54,1,,,,,,,,,,,,,,,,,,,,,,,,,,,,,,,,,,
,,,,,,,,,,,,,,1,001,2024-08-25_17h06.09.608,IAT(Formal),2021.2.3,Win32,60.0240096,,,,,,,,,,,,,,,e,1,0.622,,,,,,诚恳,e,,,0,42,42,29,1,,,,,,,,,,,,,,,,,,,,,,,,,,,,,,,,,,
,,,,,,,,,,,,,,1,001,2024-08-25_17h06.09.608,IAT(Formal),2021.2.3,Win32,60.0240096,,,,,,,,,,,,,,,i,1,0.601,,,,,,其他,i,,,0,43,43,69,1,,,,,,,,,,,,,,,,,,,,,,,,,,,,,,,,,,
,,,,,,,,,,,,,,1,001,2024-08-25_17h06.09.608,IAT(Formal),2021.2.3,Win32,60.0240096,,,,,,,,,,,,,,,i,1,0.637,,,,,,自卑,i,,,0,44,44,36,1,,,,,,,,,,,,,,,,,,,,,,,,,,,,,,,,,,
,,,,,,,,,,,,,,1,001,2024-08-25_17h06.09.608,IAT(Formal),2021.2.3,Win32,60.0240096,,,,,,,,,,,,,,,e,1,0.771,,,,,,无私,e,,,0,45,45,22,1,,,,,,,,,,,,,,,,,,,,,,,,,,,,,,,,,,
,,,,,,,,,,,,,,1,001,2024-08-25_17h06.09.608,IAT(Formal),2021.2.3,Win32,60.0240096,,,,,,,,,,,,,,,i,1,0.582,,,,,,悲观,i,,,0,46,46,34,1,,,,,,,,,,,,,,,,,,,,,,,,,,,,,,,,,,
,,,,,,,,,,,,,,1,001,2024-08-25_17h06.09.608,IAT(Formal),2021.2.3,Win32,60.0240096,,,,,,,,,,,,,,,e,1,0.697,,,,,,公正,e,,,0,47,47,23,1,,,,,,,,,,,,,,,,,,,,,,,,,,,,,,,,,,
,,,,,,,,,,,,,,1,001,2024-08-25_17h06.09.608,IAT(Formal),2021.2.3,Win32,60.0240096,,,,,,,,,,,,,,,i,1,0.665,,,,,,他们,i,,,0,48,48,66,1,,,,,,,,,,,,,,,,,,,,,,,,,,,,,,,,,,
,,,,,,,,,,,,,,1,001,2024-08-25_17h06.09.608,IAT(Formal),2021.2.3,Win32,60.0240096,,,,,,,,,,,,,,,e,1,0.713,,,,,,机智,e,,,0,49,49,19,1,,,,,,,,,,,,,,,,,,,,,,,,,,,,,,,,,,
,,,,,,,,,,,,,,1,001,2024-08-25_17h06.09.608,IAT(Formal),2021.2.3,Win32,60.0240096,,,,,,,,,,,,,,,e,1,0.735,,,,,,乐观,e,,,0,50,50,14,1,,,,,,,,,,,,,,,,,,,,,,,,,,,,,,,,,,
,,,,,,,,,,,,,,1,001,2024-08-25_17h06.09.608,IAT(Formal),2021.2.3,Win32,60.0240096,,,,,,,,,,,,,,,i,1,0.529,,,,,,野蛮,i,,,0,51,51,46,1,,,,,,,,,,,,,,,,,,,,,,,,,,,,,,,,,,
,,,,,,,,,,,,,,1,001,2024-08-25_17h06.09.608,IAT(Formal),2021.2.3,Win32,60.0240096,,,,,,,,,,,,,,,i,1,0.699,,,,,,他的,i,,,0,52,52,67,1,,,,,,,,,,,,,,,,,,,,,,,,,,,,,,,,,,
,,,,,,,,,,,,,,1,001,2024-08-25_17h06.09.608,IAT(Formal),2021.2.3,Win32,60.0240096,,,,,,,,,,,,,,,i,1,0.553,,,,,,其他,i,,,0,53,53,59,1,,,,,,,,,,,,,,,,,,,,,,,,,,,,,,,,,,
,,,,,,,,,,,,,,1,001,2024-08-25_17h06.09.608,IAT(Formal),2021.2.3,Win32,60.0240096,,,,,,,,,,,,,,,e,1,0.493,,,,,,自己,e,,,0,54,54,63,1,,,,,,,,,,,,,,,,,,,,,,,,,,,,,,,,,,
,,,,,,,,,,,,,,1,001,2024-08-25_17h06.09.608,IAT(Formal),2021.2.3,Win32,60.0240096,,,,,,,,,,,,,,,i,1,0.537,,,,,,他的,i,,,0,55,55,7,1,,,,,,,,,,,,,,,,,,,,,,,,,,,,,,,,,,
,,,,,,,,,,,,,,1,001,2024-08-25_17h06.09.608,IAT(Formal),2021.2.3,Win32,60.0240096,,,,,,,,,,,,,,,e,1,0.683,,,,,,勤奋,e,,,0,56,56,18,1,,,,,,,,,,,,,,,,,,,,,,,,,,,,,,,,,,
,,,,,,,,,,,,,,1,001,2024-08-25_17h06.09.608,IAT(Formal),2021.2.3,Win32,60.0240096,,,,,,,,,,,,,,,i,1,0.547,,,,,,下贱,i,,,0,57,57,49,1,,,,,,,,,,,,,,,,,,,,,,,,,,,,,,,,,,
,,,,,,,,,,,,,,1,001,2024-08-25_17h06.09.608,IAT(Formal),2021.2.3,Win32,60.0240096,,,,,,,,,,,,,,,i,1,0.621,,,,,,他的,i,,,0,58,58,77,1,,,,,,,,,,,,,,,,,,,,,,,,,,,,,,,,,,
,,,,,,,,,,,,,,1,001,2024-08-25_17h06.09.608,IAT(Formal),2021.2.3,Win32,60.0240096,,,,,,,,,,,,,,,i,1,0.683,,,,,,消极,i,,,0,59,59,35,1,,,,,,,,,,,,,,,,,,,,,,,,,,,,,,,,,,
,,,,,,,,,,,,,,1,001,2024-08-25_17h06.09.608,IAT(Formal),2021.2.3,Win32,60.0240096,,,,,,,,,,,,,,,i,1,0.504,,,,,,冒失,i,,,0,60,60,39,1,,,,,,,,,,,,,,,,,,,,,,,,,,,,,,,,,,
,,,,,,,,,,,,,,1,001,2024-08-25_17h06.09.608,IAT(Formal),2021.2.3,Win32,60.0240096,,,,,,,,,,,,,,,e,1,0.666,,,,,,稳重,e,,,0,61,61,21,1,,,,,,,,,,,,,,,,,,,,,,,,,,,,,,,,,,
,,,,,,,,,,,,,,1,001,2024-08-25_17h06.09.608,IAT(Formal),2021.2.3,Win32,60.0240096,,,,,,,,,,,,,,,i,1,0.595,,,,,,凶狠,i,,,0,62,62,42,1,,,,,,,,,,,,,,,,,,,,,,,,,,,,,,,,,,
,,,,,,,,,,,,,,1,001,2024-08-25_17h06.09.608,IAT(Formal),2021.2.3,Win32,60.0240096,,,,,,,,,,,,,,,e,1,0.835,,,,,,俺,e,,,0,63,63,4,1,,,,,,,,,,,,,,,,,,,,,,,,,,,,,,,,,,
,,,,,,,,,,,,,,1,001,2024-08-25_17h06.09.608,IAT(Formal),2021.2.3,Win32,60.0240096,,,,,,,,,,,,,,,e,1,0.55,,,,,,自己,e,,,0,64,64,3,1,,,,,,,,,,,,,,,,,,,,,,,,,,,,,,,,,,
,,,,,,,,,,,,,,1,001,2024-08-25_17h06.09.608,IAT(Formal),2021.2.3,Win32,60.0240096,,,,,,,,,,,,,,,e,1,0.547,,,,,,勇敢,e,,,0,65,65,17,1,,,,,,,,,,,,,,,,,,,,,,,,,,,,,,,,,,
,,,,,,,,,,,,,,1,001,2024-08-25_17h06.09.608,IAT(Formal),2021.2.3,Win32,60.0240096,,,,,,,,,,,,,,,i,1,0.75,,,,,,他,i,,,0,66,66,75,1,,,,,,,,,,,,,,,,,,,,,,,,,,,,,,,,,,
,,,,,,,,,,,,,,1,001,2024-08-25_17h06.09.608,IAT(Formal),2021.2.3,Win32,60.0240096,,,,,,,,,,,,,,,e,1,0.596,,,,,,我,e,,,0,67,67,60,1,,,,,,,,,,,,,,,,,,,,,,,,,,,,,,,,,,
,,,,,,,,,,,,,,1,001,2024-08-25_17h06.09.608,IAT(Formal),2021.2.3,Win32,60.0240096,,,,,,,,,,,,,,,i,1,0.727,,,,,,他人,i,,,0,68,68,58,1,,,,,,,,,,,,,,,,,,,,,,,,,,,,,,,,,,
,,,,,,,,,,,,,,1,001,2024-08-25_17h06.09.608,IAT(Formal),2021.2.3,Win32,60.0240096,,,,,,,,,,,,,,,i,1,0.716,,,,,,刻薄,i,,,0,69,69,33,1,,,,,,,,,,,,,,,,,,,,,,,,,,,,,,,,,,
,,,,,,,,,,,,,,1,001,2024-08-25_17h06.09.608,IAT(Formal),2021.2.3,Win32,60.0240096,,,,,,,,,,,,,,,i,1,0.553,,,,,,他,i,,,0,70,70,55,1,,,,,,,,,,,,,,,,,,,,,,,,,,,,,,,,,,
,,,,,,,,,,,,,,1,001,2024-08-25_17h06.09.608,IAT(Formal),2021.2.3,Win32,60.0240096,,,,,,,,,,,,,,,e,1,0.576,,,,,,崇高,e,,,0,71,71,11,1,,,,,,,,,,,,,,,,,,,,,,,,,,,,,,,,,,
,,,,,,,,,,,,,,1,001,2024-08-25_17h06.09.608,IAT(Formal),2021.2.3,Win32,60.0240096,,,,,,,,,,,,,,,i,1,0.582,,,,,,他人,i,,,0,72,72,68,1,,,,,,,,,,,,,,,,,,,,,,,,,,,,,,,,,,
,,,,,,,,,,,,,,1,001,2024-08-25_17h06.09.608,IAT(Formal),2021.2.3,Win32,60.0240096,,,,,,,,,,,,,,,e,1,0.695,,,,,,我的,e,,,0,73,73,71,1,,,,,,,,,,,,,,,,,,,,,,,,,,,,,,,,,,
,,,,,,,,,,,,,,1,001,2024-08-25_17h06.09.608,IAT(Formal),2021.2.3,Win32,60.0240096,,,,,,,,,,,,,,,i,1,0.721,,,,,,执拗,i,,,0,74,74,40,1,,,,,,,,,,,,,,,,,,,,,,,,,,,,,,,,,,
,,,,,,,,,,,,,,1,001,2024-08-25_17h06.09.608,IAT(Formal),2021.2.3,Win32,60.0240096,,,,,,,,,,,,,,,e,1,0.971,,,,,,冷静,e,,,0,75,75,26,1,,,,,,,,,,,,,,,,,,,,,,,,,,,,,,,,,,
,,,,,,,,,,,,,,1,001,2024-08-25_17h06.09.608,IAT(Formal),2021.2.3,Win32,60.0240096,,,,,,,,,,,,,,,i,1,0.633,,,,,,鲁莽,i,,,0,76,76,38,1,,,,,,,,,,,,,,,,,,,,,,,,,,,,,,,,,,
,,,,,,,,,,,,,,1,001,2024-08-25_17h06.09.608,IAT(Formal),2021.2.3,Win32,60.0240096,,,,,,,,,,,,,,,i,1,0.616,,,,,,散漫,i,,,0,77,77,41,1,,,,,,,,,,,,,,,,,,,,,,,,,,,,,,,,,,
,,,,,,,,,,,,,,1,001,2024-08-25_17h06.09.608,IAT(Formal),2021.2.3,Win32,60.0240096,,,,,,,,,,,,,,,i,1,0.531,,,,,,卑鄙,i,,,0,78,78,30,1,,,,,,,,,,,,,,,,,,,,,,,,,,,,,,,,,,
,,,,,,,,,,,,,,1,001,2024-08-25_17h06.09.608,IAT(Formal),2021.2.3,Win32,60.0240096,,,,,,,,,,,,,,,i,1,0.5,,,,,,愚蠢,i,,,0,79,79,32,1,,,,,,,,,,,,,,,,,,,,,,,,,,,,,,,,,,
,,,,,,,,,,,,,,1,001,2024-08-25_17h06.09.608,IAT(Formal),2021.2.3,Win32,60.0240096,,,,,,,,,,,,,,,e,1,0.498,,,,,,自己,e,,,1,0,80,3,1,,,,,,,,,,,,,,,,,,,,,,,,,,,,,,,,,,
,,,,,,,,,,,,,,1,001,2024-08-25_17h06.09.608,IAT(Formal),2021.2.3,Win32,60.0240096,,,,,,,,,,,,,,,e,1,0.501,,,,,,我的,e,,,1,1,81,71,1,,,,,,,,,,,,,,,,,,,,,,,,,,,,,,,,,,
,,,,,,,,,,,,,,1,001,2024-08-25_17h06.09.608,IAT(Formal),2021.2.3,Win32,60.0240096,,,,,,,,,,,,,,,e,0,0.465,,,,,,他人,i,,,1,2,82,78,1,,,,,,,,,,,,,,,,,,,,,,,,,,,,,,,,,,
,,,,,,,,,,,,,,1,001,2024-08-25_17h06.09.608,IAT(Formal),2021.2.3,Win32,60.0240096,,,,,,,,,,,,,,,i,1,0.916,,,,,,卑鄙,i,,,1,3,83,30,1,,,,,,,,,,,,,,,,,,,,,,,,,,,,,,,,,,
,,,,,,,,,,,,,,1,001,2024-08-25_17h06.09.608,IAT(Formal),2021.2.3,Win32,60.0240096,,,,,,,,,,,,,,,e,1,0.614,,,,,,聪明,e,,,1,4,84,12,1,,,,,,,,,,,,,,,,,,,,,,,,,,,,,,,,,,
,,,,,,,,,,,,,,1,001,2024-08-25_17h06.09.608,IAT(Formal),2021.2.3,Win32,60.0240096,,,,,,,,,,,,,,,e,1,0.712,,,,,,我,e,,,1,5,85,0,1,,,,,,,,,,,,,,,,,,,,,,,,,,,,,,,,,,
,,,,,,,,,,,,,,1,001,2024-08-25_17h06.09.608,IAT(Formal),2021.2.3,Win32,60.0240096,,,,,,,,,,,,,,,e,1,0.767,,,,,,认真,e,,,1,6,86,20,1,,,,,,,,,,,,,,,,,,,,,,,,,,,,,,,,,,
,,,,,,,,,,,,,,1,001,2024-08-25_17h06.09.608,IAT(Formal),2021.2.3,Win32,60.0240096,,,,,,,,,,,,,,,e,1,0.551,,,,,,自己,e,,,1,7,87,53,1,,,,,,,,,,,,,,,,,,,,,,,,,,,,,,,,,,
,,,,,,,,,,,,,,1,001,2024-08-25_17h06.09.608,IAT(Formal),2021.2.3,Win32,60.0240096,,,,,,,,,,,,,,,i,1,0.564,,,,,,鲁莽,i,,,1,8,88,38,1,,,,,,,,,,,,,,,,,,,,,,,,,,,,,,,,,,
,,,,,,,,,,,,,,1,001,2024-08-25_17h06.09.608,IAT(Formal),2021.2.3,Win32,60.0240096,,,,,,,,,,,,,,,e,1,0.515,,,,,,我,e,,,1,9,89,50,1,,,,,,,,,,,,,,,,,,,,,,,,,,,,,,,,,,
,,,,,,,,,,,,,,1,001,2024-08-25_17h06.09.608,IAT(Formal),2021.2.3,Win32,60.0240096,,,,,,,,,,,,,,,e,1,0.682,,,,,,我们,e,,,1,10,90,2,1,,,,,,,,,,,,,,,,,,,,,,,,,,,,,,,,,,
,,,,,,,,,,,,,,1,001,2024-08-25_17h06.09.608,IAT(Formal),2021.2.3,Win32,60.0240096,,,,,,,,,,,,,,,i,1,0.582,,,,,,他,i,,,1,11,91,75,1,,,,,,,,,,,,,,,,,,,,,,,,,,,,,,,,,,
,,,,,,,,,,,,,,1,001,2024-08-25_17h06.09.608,IAT(Formal),2021.2.3,Win32,60.0240096,,,,,,,,,,,,,,,i,1,0.711,,,,,,其他,i,,,1,12,92,59,1,,,,,,,,,,,,,,,,,,,,,,,,,,,,,,,,,,
,,,,,,,,,,,,,,1,001,2024-08-25_17h06.09.608,IAT(Formal),2021.2.3,Win32,60.0240096,,,,,,,,,,,,,,,e,1,0.601,,,,,,诚实,e,,,1,13,93,15,1,,,,,,,,,,,,,,,,,,,,,,,,,,,,,,,,,,
,,,,,,,,,,,,,,1,001,2024-08-25_17h06.09.608,IAT(Formal),2021.2.3,Win32,60.0240096,,,,,,,,,,,,,,,i,1,0.547,,,,,,下贱,i,,,1,14,94,49,1,,,,,,,,,,,,,,,,,,,,,,,,,,,,,,,,,,
,,,,,,,,,,,,,,1,001,2024-08-25_17h06.09.608,IAT(Formal),2021.2.3,Win32,60.0240096,,,,,,,,,,,,,,,e,1,0.652,,,,,,勇敢,e,,,1,15,95,17,1,,,,,,,,,,,,,,,,,,,,,,,,,,,,,,,,,,
,,,,,,,,,,,,,,1,001,2024-08-25_17h06.09.608,IAT(Formal),2021.2.3,Win32,60.0240096,,,,,,,,,,,,,,,i,1,0.555,,,,,,他的,i,,,1,16,96,67,1,,,,,,,,,,,,,,,,,,,,,,,,,,,,,,,,,,
,,,,,,,,,,,,,,1,001,2024-08-25_17h06.09.608,IAT(Formal),2021.2.3,Win32,60.0240096,,,,,,,,,,,,,,,e,1,0.632,,,,,,我的,e,,,1,17,97,1,1,,,,,,,,,,,,,,,,,,,,,,,,,,,,,,,,,,
,,,,,,,,,,,,,,1,001,2024-08-25_17h06.09.608,IAT(Formal),2021.2.3,Win32,60.0240096,,,,,,,,,,,,,,,i,1,0.582,,,,,,冒失,i,,,1,18,98,39,1,,,,,,,,,,,,,,,,,,,,,,,,,,,,,,,,,,
,,,,,,,,,,,,,,1,001,2024-08-25_17h06.09.608,IAT(Formal),2021.2.3,Win32,60.0240096,,,,,,,,,,,,,,,e,1,0.569,,,,,,我们,e,,,1,19,99,52,1,,,,,,,,,,,,,,,,,,,,,,,,,,,,,,,,,,
,,,,,,,,,,,,,,1,001,2024-08-25_17h06.09.608,IAT(Formal),2021.2.3,Win32,60.0240096,,,,,,,,,,,,,,,i,1,0.55,,,,,,他,i,,,1,20,100,55,1,,,,,,,,,,,,,,,,,,,,,,,,,,,,,,,,,,
,,,,,,,,,,,,,,1,001,2024-08-25_17h06.09.608,IAT(Formal),2021.2.3,Win32,60.0240096,,,,,,,,,,,,,,,e,1,0.569,,,,,,我,e,,,1,21,101,60,1,,,,,,,,,,,,,,,,,,,,,,,,,,,,,,,,,,
,,,,,,,,,,,,,,1,001,2024-08-25_17h06.09.608,IAT(Formal),2021.2.3,Win32,60.0240096,,,,,,,,,,,,,,,e,1,0.652,,,,,,公正,e,,,1,22,102,23,1,,,,,,,,,,,,,,,,,,,,,,,,,,,,,,,,,,
,,,,,,,,,,,,,,1,001,2024-08-25_17h06.09.608,IAT(Formal),2021.2.3,Win32,60.0240096,,,,,,,,,,,,,,,e,1,0.582,,,,,,我的,e,,,1,23,103,61,1,,,,,,,,,,,,,,,,,,,,,,,,,,,,,,,,,,
,,,,,,,,,,,,,,1,001,2024-08-25_17h06.09.608,IAT(Formal),2021.2.3,Win32,60.0240096,,,,,,,,,,,,,,,e,1,0.882,,,,,,无私,e,,,1,24,104,22,1,,,,,,,,,,,,,,,,,,,,,,,,,,,,,,,,,,
,,,,,,,,,,,,,,1,001,2024-08-25_17h06.09.608,IAT(Formal),2021.2.3,Win32,60.0240096,,,,,,,,,,,,,,,e,1,0.598,,,,,,稳重,e,,,1,25,105,21,1,,,,,,,,,,,,,,,,,,,,,,,,,,,,,,,,,,
,,,,,,,,,,,,,,1,001,2024-08-25_17h06.09.608,IAT(Formal),2021.2.3,Win32,60.0240096,,,,,,,,,,,,,,,i,1,0.639,,,,,,他,i,,,1,26,106,65,1,,,,,,,,,,,,,,,,,,,,,,,,,,,,,,,,,,
,,,,,,,,,,,,,,1,001,2024-08-25_17h06.09.608,IAT(Formal),2021.2.3,Win32,60.0240096,,,,,,,,,,,,,,,i,1,0.68,,,,,,悲观,i,,,1,27,107,34,1,,,,,,,,,,,,,,,,,,,,,,,,,,,,,,,,,,
,,,,,,,,,,,,,,1,001,2024-08-25_17h06.09.608,IAT(Formal),2021.2.3,Win32,60.0240096,,,,,,,,,,,,,,,i,1,0.598,,,,,,凶狠,i,,,1,28,108,42,1,,,,,,,,,,,,,,,,,,,,,,,,,,,,,,,,,,
,,,,,,,,,,,,,,1,001,2024-08-25_17h06.09.608,IAT(Formal),2021.2.3,Win32,60.0240096,,,,,,,,,,,,,,,i,1,0.638,,,,,,愚蠢,i,,,1,29,109,32,1,,,,,,,,,,,,,,,,,,,,,,,,,,,,,,,,,,
,,,,,,,,,,,,,,1,001,2024-08-25_17h06.09.608,IAT(Formal),2021.2.3,Win32,60.0240096,,,,,,,,,,,,,,,i,1,0.809,,,,,,他们,i,,,1,30,110,66,1,,,,,,,,,,,,,,,,,,,,,,,,,,,,,,,,,,
,,,,,,,,,,,,,,1,001,2024-08-25_17h06.09.608,IAT(Formal),2021.2.3,Win32,60.0240096,,,,,,,,,,,,,,,e,0,0.809,,,,,,轻率,i,,,1,31,111,48,1,,,,,,,,,,,,,,,,,,,,,,,,,,,,,,,,,,
,,,,,,,,,,,,,,1,001,2024-08-25_17h06.09.608,IAT(Formal),2021.2.3,Win32,60.0240096,,,,,,,,,,,,,,,e,1,0.715,,,,,,俺,e,,,1,32,112,64,1,,,,,,,,,,,,,,,,,,,,,,,,,,,,,,,,,,
,,,,,,,,,,,,,,1,001,2024-08-25_17h06.09.608,IAT(Formal),2021.2.3,Win32,60.0240096,,,,,,,,,,,,,,,i,1,0.722,,,,,,他们,i,,,1,33,113,76,1,,,,,,,,,,,,,,,,,,,,,,,,,,,,,,,,,,
,,,,,,,,,,,,,,1,001,2024-08-25_17h06.09.608,IAT(Formal),2021.2.3,Win32,60.0240096,,,,,,,,,,,,,,,e,1,0.749,,,,,,活泼,e,,,1,34,114,28,1,,,,,,,,,,,,,,,,,,,,,,,,,,,,,,,,,,
,,,,,,,,,,,,,,1,001,2024-08-25_17h06.09.608,IAT(Formal),2021.2.3,Win32,60.0240096,,,,,,,,,,,,,,,e,1,0.636,,,,,,俺,e,,,1,35,115,4,1,,,,,,,,,,,,,,,,,,,,,,,,,,,,,,,,,,
,,,,,,,,,,,,,,1,001,2024-08-25_17h06.09.608,IAT(Formal),2021.2.3,Win32,60.0240096,,,,,,,,,,,,,,,i,1,0.864,,,,,,他们,i,,,1,36,116,56,1,,,,,,,,,,,,,,,,,,,,,,,,,,,,,,,,,,
,,,,,,,,,,,,,,1,001,2024-08-25_17h06.09.608,IAT(Formal),2021.2.3,Win32,60.0240096,,,,,,,,,,,,,,,i,1,0.716,,,,,,他人,i,,,1,37,117,68,1,,,,,,,,,,,,,,,,,,,,,,,,,,,,,,,,,,
,,,,,,,,,,,,,,1,001,2024-08-25_17h06.09.608,IAT(Formal),2021.2.3,Win32,60.0240096,,,,,,,,,,,,,,,e,1,0.768,,,,,,俺,e,,,1,38,118,74,1,,,,,,,,,,,,,,,,,,,,,,,,,,,,,,,,,,
,,,,,,,,,,,,,,1,001,2024-08-25_17h06.09.608,IAT(Formal),2021.2.3,Win32,60.0240096,,,,,,,,,,,,,,,e,1,0.504,,,,,,俺,e,,,1,39,119,54,1,,,,,,,,,,,,,,,,,,,,,,,,,,,,,,,,,,
,,,,,,,,,,,,,,1,001,2024-08-25_17h06.09.608,IAT(Formal),2021.2.3,Win32,60.0240096,,,,,,,,,,,,,,,i,1,0.6,,,,,,他的,i,,,1,40,120,77,1,,,,,,,,,,,,,,,,,,,,,,,,,,,,,,,,,,
,,,,,,,,,,,,,,1,001,2024-08-25_17h06.09.608,IAT(Formal),2021.2.3,Win32,60.0240096,,,,,,,,,,,,,,,i,1,0.726,,,,,,固执,i,,,1,41,121,47,1,,,,,,,,,,,,,,,,,,,,,,,,,,,,,,,,,,
,,,,,,,,,,,,,,1,001,2024-08-25_17h06.09.608,IAT(Formal),2021.2.3,Win32,60.0240096,,,,,,,,,,,,,,,i,1,0.664,,,,,,猖狂,i,,,1,42,122,45,1,,,,,,,,,,,,,,,,,,,,,,,,,,,,,,,,,,
,,,,,,,,,,,,,,1,001,2024-08-25_17h06.09.608,IAT(Formal),2021.2.3,Win32,60.0240096,,,,,,,,,,,,,,,i,1,0.822,,,,,,自卑,i,,,1,43,123,36,1,,,,,,,,,,,,,,,,,,,,,,,,,,,,,,,,,,
,,,,,,,,,,,,,,1,001,2024-08-25_17h06.09.608,IAT(Formal),2021.2.3,Win32,60.0240096,,,,,,,,,,,,,,,i,1,0.762,,,,,,他的,i,,,1,44,124,57,1,,,,,,,,,,,,,,,,,,,,,,,,,,,,,,,,,,
,,,,,,,,,,,,,,1,001,2024-08-25_17h06.09.608,IAT(Formal),2021.2.3,Win32,60.0240096,,,,,,,,,,,,,,,e,1,0.781,,,,,,我,e,,,1,45,125,70,1,,,,,,,,,,,,,,,,,,,,,,,,,,,,,,,,,,
,,,,,,,,,,,,,,1,001,2024-08-25_17h06.09.608,IAT(Formal),2021.2.3,Win32,60.0240096,,,,,,,,,,,,,,,e,1,0.738,,,,,,冷静,e,,,1,46,126,26,1,,,,,,,,,,,,,,,,,,,,,,,,,,,,,,,,,,
,,,,,,,,,,,,,,1,001,2024-08-25_17h06.09.608,IAT(Formal),2021.2.3,Win32,60.0240096,,,,,,,,,,,,,,,e,1,0.566,,,,,,细腻,e,,,1,47,127,25,1,,,,,,,,,,,,,,,,,,,,,,,,,,,,,,,,,,
,,,,,,,,,,,,,,1,001,2024-08-25_17h06.09.608,IAT(Formal),2021.2.3,Win32,60.0240096,,,,,,,,,,,,,,,i,1,0.69,,,,,,虚伪,i,,,1,48,128,31,1,,,,,,,,,,,,,,,,,,,,,,,,,,,,,,,,,,
,,,,,,,,,,,,,,1,001,2024-08-25_17h06.09.608,IAT(Formal),2021.2.3,Win32,60.0240096,,,,,,,,,,,,,,,e,1,0.767,,,,,,杰出,e,,,1,49,129,13,1,,,,,,,,,,,,,,,,,,,,,,,,,,,,,,,,,,
,,,,,,,,,,,,,,1,001,2024-08-25_17h06.09.608,IAT(Formal),2021.2.3,Win32,60.0240096,,,,,,,,,,,,,,,i,1,0.652,,,,,,他们,i,,,1,50,130,6,1,,,,,,,,,,,,,,,,,,,,,,,,,,,,,,,,,,
,,,,,,,,,,,,,,1,001,2024-08-25_17h06.09.608,IAT(Formal),2021.2.3,Win32,60.0240096,,,,,,,,,,,,,,,e,1,0.864,,,,,,优秀,e,,,1,51,131,10,1,,,,,,,,,,,,,,,,,,,,,,,,,,,,,,,,,,
,,,,,,,,,,,,,,1,001,2024-08-25_17h06.09.608,IAT(Formal),2021.2.3,Win32,60.0240096,,,,,,,,,,,,,,,e,1,0.54,,,,,,我们,e,,,1,52,132,62,1,,,,,,,,,,,,,,,,,,,,,,,,,,,,,,,,,,
,,,,,,,,,,,,,,1,001,2024-08-25_17h06.09.608,IAT(Formal),2021.2.3,Win32,60.0240096,,,,,,,,,,,,,,,i,1,0.833,,,,,,散漫,i,,,1,53,133,41,1,,,,,,,,,,,,,,,,,,,,,,,,,,,,,,,,,,
,,,,,,,,,,,,,,1,001,2024-08-25_17h06.09.608,IAT(Formal),2021.2.3,Win32,60.0240096,,,,,,,,,,,,,,,i,1,0.665,,,,,,执拗,i,,,1,54,134,40,1,,,,,,,,,,,,,,,,,,,,,,,,,,,,,,,,,,
,,,,,,,,,,,,,,1,001,2024-08-25_17h06.09.608,IAT(Formal),2021.2.3,Win32,60.0240096,,,,,,,,,,,,,,,i,1,0.937,,,,,,其他,i,,,1,55,135,79,1,,,,,,,,,,,,,,,,,,,,,,,,,,,,,,,,,,
,,,,,,,,,,,,,,1,001,2024-08-25_17h06.09.608,IAT(Formal),2021.2.3,Win32,60.0240096,,,,,,,,,,,,,,,i,1,0.5,,,,,,他的,i,,,1,56,136,7,1,,,,,,,,,,,,,,,,,,,,,,,,,,,,,,,,,,
,,,,,,,,,,,,,,1,001,2024-08-25_17h06.09.608,IAT(Formal),2021.2.3,Win32,60.0240096,,,,,,,,,,,,,,,e,1,0.569,,,,,,乐观,e,,,1,57,137,14,1,,,,,,,,,,,,,,,,,,,,,,,,,,,,,,,,,,
,,,,,,,,,,,,,,1,001,2024-08-25_17h06.09.608,IAT(Formal),2021.2.3,Win32,60.0240096,,,,,,,,,,,,,,,i,1,0.569,,,,,,傲慢,i,,,1,58,138,37,1,,,,,,,,,,,,,,,,,,,,,,,,,,,,,,,,,,
,,,,,,,,,,,,,,1,001,2024-08-25_17h06.09.608,IAT(Formal),2021.2.3,Win32,60.0240096,,,,,,,,,,,,,,,e,1,0.58,,,,,,自己,e,,,1,59,139,63,1,,,,,,,,,,,,,,,,,,,,,,,,,,,,,,,,,,
,,,,,,,,,,,,,,1,001,2024-08-25_17h06.09.608,IAT(Formal),2021.2.3,Win32,60.0240096,,,,,,,,,,,,,,,e,1,0.525,,,,,,我的,e,,,1,60,140,51,1,,,,,,,,,,,,,,,,,,,,,,,,,,,,,,,,,,
,,,,,,,,,,,,,,1,001,2024-08-25_17h06.09.608,IAT(Formal),2021.2.3,Win32,60.0240096,,,,,,,,,,,,,,,i,1,0.568,,,,,,其他,i,,,1,61,141,69,1,,,,,,,,,,,,,,,,,,,,,,,,,,,,,,,,,,
,,,,,,,,,,,,,,1,001,2024-08-25_17h06.09.608,IAT(Formal),2021.2.3,Win32,60.0240096,,,,,,,,,,,,,,,i,1,0.603,,,,,,刻薄,i,,,1,62,142,33,1,,,,,,,,,,,,,,,,,,,,,,,,,,,,,,,,,,
,,,,,,,,,,,,,,1,001,2024-08-25_17h06.09.608,IAT(Formal),2021.2.3,Win32,60.0240096,,,,,,,,,,,,,,,e,1,0.651,,,,,,机智,e,,,1,63,143,19,1,,,,,,,,,,,,,,,,,,,,,,,,,,,,,,,,,,
,,,,,,,,,,,,,,1,001,2024-08-25_17h06.09.608,IAT(Formal),2021.2.3,Win32,60.0240096,,,,,,,,,,,,,,,e,1,0.616,,,,,,自己,e,,,1,64,144,73,1,,,,,,,,,,,,,,,,,,,,,,,,,,,,,,,,,,
,,,,,,,,,,,,,,1,001,2024-08-25_17h06.09.608,IAT(Formal),2021.2.3,Win32,60.0240096,,,,,,,,,,,,,,,e,1,0.45,,,,,,正直,e,,,1,65,145,16,1,,,,,,,,,,,,,,,,,,,,,,,,,,,,,,,,,,
,,,,,,,,,,,,,,1,001,2024-08-25_17h06.09.608,IAT(Formal),2021.2.3,Win32,60.0240096,,,,,,,,,,,,,,,i,1,0.655,,,,,,其他,i,,,1,66,146,9,1,,,,,,,,,,,,,,,,,,,,,,,,,,,,,,,,,,
,,,,,,,,,,,,,,1,001,2024-08-25_17h06.09.608,IAT(Formal),2021.2.3,Win32,60.0240096,,,,,,,,,,,,,,,e,1,0.597,,,,,,勤奋,e,,,1,67,147,18,1,,,,,,,,,,,,,,,,,,,,,,,,,,,,,,,,,,
,,,,,,,,,,,,,,1,001,2024-08-25_17h06.09.608,IAT(Formal),2021.2.3,Win32,60.0240096,,,,,,,,,,,,,,,i,1,0.735,,,,,,他人,i,,,1,68,148,8,1,,,,,,,,,,,,,,,,,,,,,,,,,,,,,,,,,,
,,,,,,,,,,,,,,1,001,2024-08-25_17h06.09.608,IAT(Formal),2021.2.3,Win32,60.0240096,,,,,,,,,,,,,,,i,1,0.447,,,,,,他人,i,,,1,69,149,58,1,,,,,,,,,,,,,,,,,,,,,,,,,,,,,,,,,,
,,,,,,,,,,,,,,1,001,2024-08-25_17h06.09.608,IAT(Formal),2021.2.3,Win32,60.0240096,,,,,,,,,,,,,,,i,1,0.697,,,,,,野蛮,i,,,1,70,150,46,1,,,,,,,,,,,,,,,,,,,,,,,,,,,,,,,,,,
,,,,,,,,,,,,,,1,001,2024-08-25_17h06.09.608,IAT(Formal),2021.2.3,Win32,60.0240096,,,,,,,,,,,,,,,i,1,0.578,,,,,,消极,i,,,1,71,151,35,1,,,,,,,,,,,,,,,,,,,,,,,,,,,,,,,,,,
,,,,,,,,,,,,,,1,001,2024-08-25_17h06.09.608,IAT(Formal),2021.2.3,Win32,60.0240096,,,,,,,,,,,,,,,e,1,0.57,,,,,,崇高,e,,,1,72,152,11,1,,,,,,,,,,,,,,,,,,,,,,,,,,,,,,,,,,
,,,,,,,,,,,,,,1,001,2024-08-25_17h06.09.608,IAT(Formal),2021.2.3,Win32,60.0240096,,,,,,,,,,,,,,,e,1,0.604,,,,,,热情,e,,,1,73,153,27,1,,,,,,,,,,,,,,,,,,,,,,,,,,,,,,,,,,
,,,,,,,,,,,,,,1,001,2024-08-25_17h06.09.608,IAT(Formal),2021.2.3,Win32,60.0240096,,,,,,,,,,,,,,,i,1,0.569,,,,,,暴躁,i,,,1,74,154,44,1,,,,,,,,,,,,,,,,,,,,,,,,,,,,,,,,,,
,,,,,,,,,,,,,,1,001,2024-08-25_17h06.09.608,IAT(Formal),2021.2.3,Win32,60.0240096,,,,,,,,,,,,,,,e,1,0.575,,,,,,我们,e,,,1,75,155,72,1,,,,,,,,,,,,,,,,,,,,,,,,,,,,,,,,,,
,,,,,,,,,,,,,,1,001,2024-08-25_17h06.09.608,IAT(Formal),2021.2.3,Win32,60.0240096,,,,,,,,,,,,,,,i,1,0.665,,,,,,自私,i,,,1,76,156,43,1,,,,,,,,,,,,,,,,,,,,,,,,,,,,,,,,,,
,,,,,,,,,,,,,,1,001,2024-08-25_17h06.09.608,IAT(Formal),2021.2.3,Win32,60.0240096,,,,,,,,,,,,,,,i,1,0.669,,,,,,他,i,,,1,77,157,5,1,,,,,,,,,,,,,,,,,,,,,,,,,,,,,,,,,,
,,,,,,,,,,,,,,1,001,2024-08-25_17h06.09.608,IAT(Formal),2021.2.3,Win32,60.0240096,,,,,,,,,,,,,,,e,1,0.796,,,,,,诚恳,e,,,1,78,158,29,1,,,,,,,,,,,,,,,,,,,,,,,,,,,,,,,,,,
,,,,,,,,,,,,,,1,001,2024-08-25_17h06.09.608,IAT(Formal),2021.2.3,Win32,60.0240096,,,,,,,,,,,,,,,e,1,0.809,,,,,,朴实,e,,,1,79,159,24,1,,,,,,,,,,,,,,,,,,,,,,,,,,,,,,,,,,
,,,,,,,,,,,,他的,e,1,001,2024-08-25_17h06.09.608,IAT(Formal),2021.2.3,Win32,60.0240096,,,,,,,,,,,,,,,,,,,,,,,,,,,,,,,,space,27.897,e,1,1.064,0,0,0,7,1,,,,,,,,,,,,,,,,,,,,,,,,
,,,,,,,,,,,,他们,e,1,001,2024-08-25_17h06.09.608,IAT(Formal),2021.2.3,Win32,60.0240096,,,,,,,,,,,,,,,,,,,,,,,,,,,,,,,,,,e,1,0.637,0,1,1,6,1,,,,,,,,,,,,,,,,,,,,,,,,
,,,,,,,,,,,,自己,i,1,001,2024-08-25_17h06.09.608,IAT(Formal),2021.2.3,Win32,60.0240096,,,,,,,,,,,,,,,,,,,,,,,,,,,,,,,,,,i,1,0.548,0,2,2,3,1,,,,,,,,,,,,,,,,,,,,,,,,
,,,,,,,,,,,,我的,i,1,001,2024-08-25_17h06.09.608,IAT(Formal),2021.2.3,Win32,60.0240096,,,,,,,,,,,,,,,,,,,,,,,,,,,,,,,,,,i,1,0.516,0,3,3,1,1,,,,,,,,,,,,,,,,,,,,,,,,
,,,,,,,,,,,,我们,i,1,001,2024-08-25_17h06.09.608,IAT(Formal),2021.2.3,Win32,60.0240096,,,,,,,,,,,,,,,,,,,,,,,,,,,,,,,,,,i,1,0.519,0,4,4,2,1,,,,,,,,,,,,,,,,,,,,,,,,
,,,,,,,,,,,,俺,i,1,001,2024-08-25_17h06.09.608,IAT(Formal),2021.2.3,Win32,60.0240096,,,,,,,,,,,,,,,,,,,,,,,,,,,,,,,,,,i,1,0.649,0,5,5,4,1,,,,,,,,,,,,,,,,,,,,,,,,
,,,,,,,,,,,,他,e,1,001,2024-08-25_17h06.09.608,IAT(Formal),2021.2.3,Win32,60.0240096,,,,,,,,,,,,,,,,,,,,,,,,,,,,,,,,,,e,1,0.55,0,6,6,5,1,,,,,,,,,,,,,,,,,,,,,,,,
,,,,,,,,,,,,他人,e,1,001,2024-08-25_17h06.09.608,IAT(Formal),2021.2.3,Win32,60.0240096,,,,,,,,,,,,,,,,,,,,,,,,,,,,,,,,,,e,1,0.605,0,7,7,8,1,,,,,,,,,,,,,,,,,,,,,,,,
,,,,,,,,,,,,我,i,1,001,2024-08-25_17h06.09.608,IAT(Formal),2021.2.3,Win32,60.0240096,,,,,,,,,,,,,,,,,,,,,,,,,,,,,,,,,,i,1,0.515,0,8,8,0,1,,,,,,,,,,,,,,,,,,,,,,,,
,,,,,,,,,,,,其他,e,1,001,2024-08-25_17h06.09.608,IAT(Formal),2021.2.3,Win32,60.0240096,,,,,,,,,,,,,,,,,,,,,,,,,,,,,,,,,,e,1,0.57,0,9,9,9,1,,,,,,,,,,,,,,,,,,,,,,,,
,,,,,,,,,,,,,,1,001,2024-08-25_17h06.09.608,IAT(Formal),2021.2.3,Win32,60.0240096,,,,,,,,,,,,,,,,,,,,,,,,,,,,,,,,,,,,,,,,,,space,13.308,e,1,1.068,0,0,0,68,1,他人,e,,,,,,,,,,,,
,,,,,,,,,,,,,,1,001,2024-08-25_17h06.09.608,IAT(Formal),2021.2.3,Win32,60.0240096,,,,,,,,,,,,,,,,,,,,,,,,,,,,,,,,,,,,,,,,,,,,i,1,0.565,0,1,1,2,1,我们,i,,,,,,,,,,,,
,,,,,,,,,,,,,,1,001,2024-08-25_17h06.09.608,IAT(Formal),2021.2.3,Win32,60.0240096,,,,,,,,,,,,,,,,,,,,,,,,,,,,,,,,,,,,,,,,,,,,i,0,1.105,0,2,2,22,1,无私,e,,,,,,,,,,,,
,,,,,,,,,,,,,,1,001,2024-08-25_17h06.09.608,IAT(Formal),2021.2.3,Win32,60.0240096,,,,,,,,,,,,,,,,,,,,,,,,,,,,,,,,,,,,,,,,,,,,e,1,0.785,0,3,3,58,1,他人,e,,,,,,,,,,,,
,,,,,,,,,,,,,,1,001,2024-08-25_17h06.09.608,IAT(Formal),2021.2.3,Win32,60.0240096,,,,,,,,,,,,,,,,,,,,,,,,,,,,,,,,,,,,,,,,,,,,e,1,0.734,0,4,4,7,1,他的,e,,,,,,,,,,,,
,,,,,,,,,,,,,,1,001,2024-08-25_17h06.09.608,IAT(Formal),2021.2.3,Win32,60.0240096,,,,,,,,,,,,,,,,,,,,,,,,,,,,,,,,,,,,,,,,,,,,,0,,0,5,5,23,1,公正,e,,,,,,,,,,,,
,,,,,,,,,,,,,,1,001,2024-08-25_17h06.09.608,IAT(Formal),2021.2.3,Win32,60.0240096,,,,,,,,,,,,,,,,,,,,,,,,,,,,,,,,,,,,,,,,,,,,i,1,0.912,0,6,6,74,1,俺,i,,,,,,,,,,,,
,,,,,,,,,,,,,,1,001,2024-08-25_17h06.09.608,IAT(Formal),2021.2.3,Win32,60.0240096,,,,,,,,,,,,,,,,,,,,,,,,,,,,,,,,,,,,,,,,,,,,i,1,0.851,0,7,7,47,1,固执,i,,,,,,,,,,,,
,,,,,,,,,,,,,,1,001,2024-08-25_17h06.09.608,IAT(Formal),2021.2.3,Win32,60.0240096,,,,,,,,,,,,,,,,,,,,,,,,,,,,,,,,,,,,,,,,,,,,e,1,0.802,0,8,8,9,1,其他,e,,,,,,,,,,,,
,,,,,,,,,,,,,,1,001,2024-08-25_17h06.09.608,IAT(Formal),2021.2.3,Win32,60.0240096,,,,,,,,,,,,,,,,,,,,,,,,,,,,,,,,,,,,,,,,,,,,i,0,1.453,0,9,9,24,1,朴实,e,,,,,,,,,,,,
,,,,,,,,,,,,,,1,001,2024-08-25_17h06.09.608,IAT(Formal),2021.2.3,Win32,60.0240096,,,,,,,,,,,,,,,,,,,,,,,,,,,,,,,,,,,,,,,,,,,,i,1,0.721,0,10,10,60,1,我,i,,,,,,,,,,,,
,,,,,,,,,,,,,,1,001,2024-08-25_17h06.09.608,IAT(Formal),2021.2.3,Win32,60.0240096,,,,,,,,,,,,,,,,,,,,,,,,,,,,,,,,,,,,,,,,,,,,i,1,0.67,0,11,11,51,1,我的,i,,,,,,,,,,,,
,,,,,,,,,,,,,,1,001,2024-08-25_17h06.09.608,IAT(Formal),2021.2.3,Win32,60.0240096,,,,,,,,,,,,,,,,,,,,,,,,,,,,,,,,,,,,,,,,,,,,e,1,0.698,0,12,12,14,1,乐观,e,,,,,,,,,,,,
,,,,,,,,,,,,,,1,001,2024-08-25_17h06.09.608,IAT(Formal),2021.2.3,Win32,60.0240096,,,,,,,,,,,,,,,,,,,,,,,,,,,,,,,,,,,,,,,,,,,,i,1,1.242,0,13,13,39,1,冒失,i,,,,,,,,,,,,
,,,,,,,,,,,,,,1,001,2024-08-25_17h06.09.608,IAT(Formal),2021.2.3,Win32,60.0240096,,,,,,,,,,,,,,,,,,,,,,,,,,,,,,,,,,,,,,,,,,,,e,0,0.621,0,14,14,42,1,凶狠,i,,,,,,,,,,,,
,,,,,,,,,,,,,,1,001,2024-08-25_17h06.09.608,IAT(Formal),2021.2.3,Win32,60.0240096,,,,,,,,,,,,,,,,,,,,,,,,,,,,,,,,,,,,,,,,,,,,e,1,0.972,0,15,15,28,1,活泼,e,,,,,,,,,,,,
,,,,,,,,,,,,,,1,001,2024-08-25_17h06.09.608,IAT(Formal),2021.2.3,Win32,60.0240096,,,,,,,,,,,,,,,,,,,,,,,,,,,,,,,,,,,,,,,,,,,,i,1,0.966,0,16,16,61,1,我的,i,,,,,,,,,,,,
,,,,,,,,,,,,,,1,001,2024-08-25_17h06.09.608,IAT(Formal),2021.2.3,Win32,60.0240096,,,,,,,,,,,,,,,,,,,,,,,,,,,,,,,,,,,,,,,,,,,,i,1,0.853,0,17,17,73,1,自己,i,,,,,,,,,,,,
,,,,,,,,,,,,,,1,001,2024-08-25_17h06.09.608,IAT(Formal),2021.2.3,Win32,60.0240096,,,,,,,,,,,,,,,,,,,,,,,,,,,,,,,,,,,,,,,,,,,,e,1,1.119,0,18,18,29,1,诚恳,e,,,,,,,,,,,,
,,,,,,,,,,,,,,1,001,2024-08-25_17h06.09.608,IAT(Formal),2021.2.3,Win32,60.0240096,,,,,,,,,,,,,,,,,,,,,,,,,,,,,,,,,,,,,,,,,,,,i,1,0.634,0,19,19,54,1,俺,i,,,,,,,,,,,,
,,,,,,,,,,,,,,1,001,2024-08-25_17h06.09.608,IAT(Formal),2021.2.3,Win32,60.0240096,,,,,,,,,,,,,,,,,,,,,,,,,,,,,,,,,,,,,,,,,,,,i,1,1.184,0,20,20,48,1,轻率,i,,,,,,,,,,,,
,,,,,,,,,,,,,,1,001,2024-08-25_17h06.09.608,IAT(Formal),2021.2.3,Win32,60.0240096,,,,,,,,,,,,,,,,,,,,,,,,,,,,,,,,,,,,,,,,,,,,i,1,0.571,0,21,21,50,1,我,i,,,,,,,,,,,,
,,,,,,,,,,,,,,1,001,2024-08-25_17h06.09.608,IAT(Formal),2021.2.3,Win32,60.0240096,,,,,,,,,,,,,,,,,,,,,,,,,,,,,,,,,,,,,,,,,,,,e,1,0.681,0,22,22,66,1,他们,e,,,,,,,,,,,,
,,,,,,,,,,,,,,1,001,2024-08-25_17h06.09.608,IAT(Formal),2021.2.3,Win32,60.0240096,,,,,,,,,,,,,,,,,,,,,,,,,,,,,,,,,,,,,,,,,,,,e,1,0.564,0,23,23,56,1,他们,e,,,,,,,,,,,,
,,,,,,,,,,,,,,1,001,2024-08-25_17h06.09.608,IAT(Formal),2021.2.3,Win32,60.0240096,,,,,,,,,,,,,,,,,,,,,,,,,,,,,,,,,,,,,,,,,,,,,0,,0,24,24,37,1,傲慢,i,,,,,,,,,,,,
,,,,,,,,,,,,,,1,001,2024-08-25_17h06.09.608,IAT(Formal),2021.2.3,Win32,60.0240096,,,,,,,,,,,,,,,,,,,,,,,,,,,,,,,,,,,,,,,,,,,,i,1,0.784,0,25,25,38,1,鲁莽,i,,,,,,,,,,,,
,,,,,,,,,,,,,,1,001,2024-08-25_17h06.09.608,IAT(Formal),2021.2.3,Win32,60.0240096,,,,,,,,,,,,,,,,,,,,,,,,,,,,,,,,,,,,,,,,,,,,i,1,0.618,0,26,26,30,1,卑鄙,i,,,,,,,,,,,,
,,,,,,,,,,,,,,1,001,2024-08-25_17h06.09.608,IAT(Formal),2021.2.3,Win32,60.0240096,,,,,,,,,,,,,,,,,,,,,,,,,,,,,,,,,,,,,,,,,,,,e,1,0.843,0,27,27,10,1,优秀,e,,,,,,,,,,,,
,,,,,,,,,,,,,,1,001,2024-08-25_17h06.09.608,IAT(Formal),2021.2.3,Win32,60.0240096,,,,,,,,,,,,,,,,,,,,,,,,,,,,,,,,,,,,,,,,,,,,i,1,0.965,0,28,28,34,1,悲观,i,,,,,,,,,,,,
,,,,,,,,,,,,,,1,001,2024-08-25_17h06.09.608,IAT(Formal),2021.2.3,Win32,60.0240096,,,,,,,,,,,,,,,,,,,,,,,,,,,,,,,,,,,,,,,,,,,,i,1,0.822,0,29,29,46,1,野蛮,i,,,,,,,,,,,,
,,,,,,,,,,,,,,1,001,2024-08-25_17h06.09.608,IAT(Formal),2021.2.3,Win32,60.0240096,,,,,,,,,,,,,,,,,,,,,,,,,,,,,,,,,,,,,,,,,,,,e,1,0.825,0,30,30,18,1,勤奋,e,,,,,,,,,,,,
,,,,,,,,,,,,,,1,001,2024-08-25_17h06.09.608,IAT(Formal),2021.2.3,Win32,60.0240096,,,,,,,,,,,,,,,,,,,,,,,,,,,,,,,,,,,,,,,,,,,,i,1,0.649,0,31,31,1,1,我的,i,,,,,,,,,,,,
,,,,,,,,,,,,,,1,001,2024-08-25_17h06.09.608,IAT(Formal),2021.2.3,Win32,60.0240096,,,,,,,,,,,,,,,,,,,,,,,,,,,,,,,,,,,,,,,,,,,,e,1,0.71,0,32,32,65,1,他,e,,,,,,,,,,,,
,,,,,,,,,,,,,,1,001,2024-08-25_17h06.09.608,IAT(Formal),2021.2.3,Win32,60.0240096,,,,,,,,,,,,,,,,,,,,,,,,,,,,,,,,,,,,,,,,,,,,e,1,0.982,0,33,33,17,1,勇敢,e,,,,,,,,,,,,
,,,,,,,,,,,,,,1,001,2024-08-25_17h06.09.608,IAT(Formal),2021.2.3,Win32,60.0240096,,,,,,,,,,,,,,,,,,,,,,,,,,,,,,,,,,,,,,,,,,,,i,1,0.922,0,34,34,4,1,俺,i,,,,,,,,,,,,
,,,,,,,,,,,,,,1,001,2024-08-25_17h06.09.608,IAT(Formal),2021.2.3,Win32,60.0240096,,,,,,,,,,,,,,,,,,,,,,,,,,,,,,,,,,,,,,,,,,,,i,1,0.781,0,35,35,41,1,散漫,i,,,,,,,,,,,,
,,,,,,,,,,,,,,1,001,2024-08-25_17h06.09.608,IAT(Formal),2021.2.3,Win32,60.0240096,,,,,,,,,,,,,,,,,,,,,,,,,,,,,,,,,,,,,,,,,,,,i,1,0.913,0,36,36,31,1,虚伪,i,,,,,,,,,,,,
,,,,,,,,,,,,,,1,001,2024-08-25_17h06.09.608,IAT(Formal),2021.2.3,Win32,60.0240096,,,,,,,,,,,,,,,,,,,,,,,,,,,,,,,,,,,,,,,,,,,,e,1,0.699,0,37,37,12,1,聪明,e,,,,,,,,,,,,
,,,,,,,,,,,,,,1,001,2024-08-25_17h06.09.608,IAT(Formal),2021.2.3,Win32,60.0240096,,,,,,,,,,,,,,,,,,,,,,,,,,,,,,,,,,,,,,,,,,,,e,1,0.799,0,38,38,16,1,正直,e,,,,,,,,,,,,
,,,,,,,,,,,,,,1,001,2024-08-25_17h06.09.608,IAT(Formal),2021.2.3,Win32,60.0240096,,,,,,,,,,,,,,,,,,,,,,,,,,,,,,,,,,,,,,,,,,,,i,1,0.573,0,39,39,62,1,我们,i,,,,,,,,,,,,
,,,,,,,,,,,,,,1,001,2024-08-25_17h06.09.608,IAT(Formal),2021.2.3,Win32,60.0240096,,,,,,,,,,,,,,,,,,,,,,,,,,,,,,,,,,,,,,,,,,,,e,1,1.172,0,40,40,19,1,机智,e,,,,,,,,,,,,
,,,,,,,,,,,,,,1,001,2024-08-25_17h06.09.608,IAT(Formal),2021.2.3,Win32,60.0240096,,,,,,,,,,,,,,,,,,,,,,,,,,,,,,,,,,,,,,,,,,,,e,1,0.616,0,41,41,77,1,他的,e,,,,,,,,,,,,
,,,,,,,,,,,,,,1,001,2024-08-25_17h06.09.608,IAT(Formal),2021.2.3,Win32,60.0240096,,,,,,,,,,,,,,,,,,,,,,,,,,,,,,,,,,,,,,,,,,,,e,1,0.737,0,42,42,59,1,其他,e,,,,,,,,,,,,
,,,,,,,,,,,,,,1,001,2024-08-25_17h06.09.608,IAT(Formal),2021.2.3,Win32,60.0240096,,,,,,,,,,,,,,,,,,,,,,,,,,,,,,,,,,,,,,,,,,,,e,1,1.216,0,43,43,26,1,冷静,e,,,,,,,,,,,,
,,,,,,,,,,,,,,1,001,2024-08-25_17h06.09.608,IAT(Formal),2021.2.3,Win32,60.0240096,,,,,,,,,,,,,,,,,,,,,,,,,,,,,,,,,,,,,,,,,,,,i,1,0.776,0,44,44,45,1,猖狂,i,,,,,,,,,,,,
,,,,,,,,,,,,,,1,001,2024-08-25_17h06.09.608,IAT(Formal),2021.2.3,Win32,60.0240096,,,,,,,,,,,,,,,,,,,,,,,,,,,,,,,,,,,,,,,,,,,,e,1,0.752,0,45,45,78,1,他人,e,,,,,,,,,,,,
,,,,,,,,,,,,,,1,001,2024-08-25_17h06.09.608,IAT(Formal),2021.2.3,Win32,60.0240096,,,,,,,,,,,,,,,,,,,,,,,,,,,,,,,,,,,,,,,,,,,,e,1,0.665,0,46,46,67,1,他的,e,,,,,,,,,,,,
,,,,,,,,,,,,,,1,001,2024-08-25_17h06.09.608,IAT(Formal),2021.2.3,Win32,60.0240096,,,,,,,,,,,,,,,,,,,,,,,,,,,,,,,,,,,,,,,,,,,,i,1,0.956,0,47,47,32,1,愚蠢,i,,,,,,,,,,,,
,,,,,,,,,,,,,,1,001,2024-08-25_17h06.09.608,IAT(Formal),2021.2.3,Win32,60.0240096,,,,,,,,,,,,,,,,,,,,,,,,,,,,,,,,,,,,,,,,,,,,i,1,0.508,0,48,48,72,1,我们,i,,,,,,,,,,,,
,,,,,,,,,,,,,,1,001,2024-08-25_17h06.09.608,IAT(Formal),2021.2.3,Win32,60.0240096,,,,,,,,,,,,,,,,,,,,,,,,,,,,,,,,,,,,,,,,,,,,e,1,0.985,0,49,49,20,1,认真,e,,,,,,,,,,,,
,,,,,,,,,,,,,,1,001,2024-08-25_17h06.09.608,IAT(Formal),2021.2.3,Win32,60.0240096,,,,,,,,,,,,,,,,,,,,,,,,,,,,,,,,,,,,,,,,,,,,e,1,0.798,0,50,50,76,1,他们,e,,,,,,,,,,,,
,,,,,,,,,,,,,,1,001,2024-08-25_17h06.09.608,IAT(Formal),2021.2.3,Win32,60.0240096,,,,,,,,,,,,,,,,,,,,,,,,,,,,,,,,,,,,,,,,,,,,e,1,0.752,0,51,51,15,1,诚实,e,,,,,,,,,,,,
,,,,,,,,,,,,,,1,001,2024-08-25_17h06.09.608,IAT(Formal),2021.2.3,Win32,60.0240096,,,,,,,,,,,,,,,,,,,,,,,,,,,,,,,,,,,,,,,,,,,,i,1,0.618,0,52,52,33,1,刻薄,i,,,,,,,,,,,,
,,,,,,,,,,,,,,1,001,2024-08-25_17h06.09.608,IAT(Formal),2021.2.3,Win32,60.0240096,,,,,,,,,,,,,,,,,,,,,,,,,,,,,,,,,,,,,,,,,,,,i,1,0.898,0,53,53,70,1,我,i,,,,,,,,,,,,
,,,,,,,,,,,,,,1,001,2024-08-25_17h06.09.608,IAT(Formal),2021.2.3,Win32,60.0240096,,,,,,,,,,,,,,,,,,,,,,,,,,,,,,,,,,,,,,,,,,,,i,1,0.649,0,54,54,49,1,下贱,i,,,,,,,,,,,,
,,,,,,,,,,,,,,1,001,2024-08-25_17h06.09.608,IAT(Formal),2021.2.3,Win32,60.0240096,,,,,,,,,,,,,,,,,,,,,,,,,,,,,,,,,,,,,,,,,,,,i,1,0.819,0,55,55,43,1,自私,i,,,,,,,,,,,,
,,,,,,,,,,,,,,1,001,2024-08-25_17h06.09.608,IAT(Formal),2021.2.3,Win32,60.0240096,,,,,,,,,,,,,,,,,,,,,,,,,,,,,,,,,,,,,,,,,,,,e,1,0.65,0,56,56,79,1,其他,e,,,,,,,,,,,,
,,,,,,,,,,,,,,1,001,2024-08-25_17h06.09.608,IAT(Formal),2021.2.3,Win32,60.0240096,,,,,,,,,,,,,,,,,,,,,,,,,,,,,,,,,,,,,,,,,,,,i,1,0.72,0,57,57,52,1,我们,i,,,,,,,,,,,,
,,,,,,,,,,,,,,1,001,2024-08-25_17h06.09.608,IAT(Formal),2021.2.3,Win32,60.0240096,,,,,,,,,,,,,,,,,,,,,,,,,,,,,,,,,,,,,,,,,,,,e,1,0.902,0,58,58,27,1,热情,e,,,,,,,,,,,,
,,,,,,,,,,,,,,1,001,2024-08-25_17h06.09.608,IAT(Formal),2021.2.3,Win32,60.0240096,,,,,,,,,,,,,,,,,,,,,,,,,,,,,,,,,,,,,,,,,,,,e,1,0.704,0,59,59,21,1,稳重,e,,,,,,,,,,,,
,,,,,,,,,,,,,,1,001,2024-08-25_17h06.09.608,IAT(Formal),2021.2.3,Win32,60.0240096,,,,,,,,,,,,,,,,,,,,,,,,,,,,,,,,,,,,,,,,,,,,i,1,0.619,0,60,60,44,1,暴躁,i,,,,,,,,,,,,
,,,,,,,,,,,,,,1,001,2024-08-25_17h06.09.608,IAT(Formal),2021.2.3,Win32,60.0240096,,,,,,,,,,,,,,,,,,,,,,,,,,,,,,,,,,,,,,,,,,,,i,1,0.72,0,61,61,64,1,俺,i,,,,,,,,,,,,
,,,,,,,,,,,,,,1,001,2024-08-25_17h06.09.608,IAT(Formal),2021.2.3,Win32,60.0240096,,,,,,,,,,,,,,,,,,,,,,,,,,,,,,,,,,,,,,,,,,,,e,1,1.3,0,62,62,55,1,他,e,,,,,,,,,,,,
,,,,,,,,,,,,,,1,001,2024-08-25_17h06.09.608,IAT(Formal),2021.2.3,Win32,60.0240096,,,,,,,,,,,,,,,,,,,,,,,,,,,,,,,,,,,,,,,,,,,,e,1,0.548,0,63,63,6,1,他们,e,,,,,,,,,,,,
,,,,,,,,,,,,,,1,001,2024-08-25_17h06.09.608,IAT(Formal),2021.2.3,Win32,60.0240096,,,,,,,,,,,,,,,,,,,,,,,,,,,,,,,,,,,,,,,,,,,,i,1,0.749,0,64,64,53,1,自己,i,,,,,,,,,,,,
,,,,,,,,,,,,,,1,001,2024-08-25_17h06.09.608,IAT(Formal),2021.2.3,Win32,60.0240096,,,,,,,,,,,,,,,,,,,,,,,,,,,,,,,,,,,,,,,,,,,,e,1,0.766,0,65,65,57,1,他的,e,,,,,,,,,,,,
,,,,,,,,,,,,,,1,001,2024-08-25_17h06.09.608,IAT(Formal),2021.2.3,Win32,60.0240096,,,,,,,,,,,,,,,,,,,,,,,,,,,,,,,,,,,,,,,,,,,,e,1,0.567,0,66,66,75,1,他,e,,,,,,,,,,,,
,,,,,,,,,,,,,,1,001,2024-08-25_17h06.09.608,IAT(Formal),2021.2.3,Win32,60.0240096,,,,,,,,,,,,,,,,,,,,,,,,,,,,,,,,,,,,,,,,,,,,i,1,0.688,0,67,67,40,1,执拗,i,,,,,,,,,,,,
,,,,,,,,,,,,,,1,001,2024-08-25_17h06.09.608,IAT(Formal),2021.2.3,Win32,60.0240096,,,,,,,,,,,,,,,,,,,,,,,,,,,,,,,,,,,,,,,,,,,,e,1,0.882,0,68,68,25,1,细腻,e,,,,,,,,,,,,
,,,,,,,,,,,,,,1,001,2024-08-25_17h06.09.608,IAT(Formal),2021.2.3,Win32,60.0240096,,,,,,,,,,,,,,,,,,,,,,,,,,,,,,,,,,,,,,,,,,,,e,1,0.714,0,69,69,13,1,杰出,e,,,,,,,,,,,,
,,,,,,,,,,,,,,1,001,2024-08-25_17h06.09.608,IAT(Formal),2021.2.3,Win32,60.0240096,,,,,,,,,,,,,,,,,,,,,,,,,,,,,,,,,,,,,,,,,,,,i,1,0.671,0,70,70,35,1,消极,i,,,,,,,,,,,,
,,,,,,,,,,,,,,1,001,2024-08-25_17h06.09.608,IAT(Formal),2021.2.3,Win32,60.0240096,,,,,,,,,,,,,,,,,,,,,,,,,,,,,,,,,,,,,,,,,,,,i,1,0.63,0,71,71,3,1,自己,i,,,,,,,,,,,,
,,,,,,,,,,,,,,1,001,2024-08-25_17h06.09.608,IAT(Formal),2021.2.3,Win32,60.0240096,,,,,,,,,,,,,,,,,,,,,,,,,,,,,,,,,,,,,,,,,,,,i,1,0.984,0,72,72,36,1,自卑,i,,,,,,,,,,,,
,,,,,,,,,,,,,,1,001,2024-08-25_17h06.09.608,IAT(Formal),2021.2.3,Win32,60.0240096,,,,,,,,,,,,,,,,,,,,,,,,,,,,,,,,,,,,,,,,,,,,e,1,1.17,0,73,73,69,1,其他,e,,,,,,,,,,,,
,,,,,,,,,,,,,,1,001,2024-08-25_17h06.09.608,IAT(Formal),2021.2.3,Win32,60.0240096,,,,,,,,,,,,,,,,,,,,,,,,,,,,,,,,,,,,,,,,,,,,i,1,0.618,0,74,74,71,1,我的,i,,,,,,,,,,,,
,,,,,,,,,,,,,,1,001,2024-08-25_17h06.09.608,IAT(Formal),2021.2.3,Win32,60.0240096,,,,,,,,,,,,,,,,,,,,,,,,,,,,,,,,,,,,,,,,,,,,i,0,0.57,0,75,75,8,1,他人,e,,,,,,,,,,,,
,,,,,,,,,,,,,,1,001,2024-08-25_17h06.09.608,IAT(Formal),2021.2.3,Win32,60.0240096,,,,,,,,,,,,,,,,,,,,,,,,,,,,,,,,,,,,,,,,,,,,i,1,0.68,0,76,76,0,1,我,i,,,,,,,,,,,,
,,,,,,,,,,,,,,1,001,2024-08-25_17h06.09.608,IAT(Formal),2021.2.3,Win32,60.0240096,,,,,,,,,,,,,,,,,,,,,,,,,,,,,,,,,,,,,,,,,,,,e,1,0.611,0,77,77,5,1,他,e,,,,,,,,,,,,
,,,,,,,,,,,,,,1,001,2024-08-25_17h06.09.608,IAT(Formal),2021.2.3,Win32,60.0240096,,,,,,,,,,,,,,,,,,,,,,,,,,,,,,,,,,,,,,,,,,,,i,1,0.783,0,78,78,63,1,自己,i,,,,,,,,,,,,
,,,,,,,,,,,,,,1,001,2024-08-25_17h06.09.608,IAT(Formal),2021.2.3,Win32,60.0240096,,,,,,,,,,,,,,,,,,,,,,,,,,,,,,,,,,,,,,,,,,,,e,1,0.902,0,79,79,11,1,崇高,e,,,,,,,,,,,,
,,,,,,,,,,,,,,1,001,2024-08-25_17h06.09.608,IAT(Formal),2021.2.3,Win32,60.0240096,,,,,,,,,,,,,,,,,,,,,,,,,,,,,,,,,,,,,,,,,,,,,,,,,,,,我的,i,space,12.319,i,1,0.606,0,0,0,1,1,,
,,,,,,,,,,,,,,1,001,2024-08-25_17h06.09.608,IAT(Formal),2021.2.3,Win32,60.0240096,,,,,,,,,,,,,,,,,,,,,,,,,,,,,,,,,,,,,,,,,,,,,,,,,,,,优秀,e,,,e,1,0.785,0,1,1,10,1,,
,,,,,,,,,,,,,,1,001,2024-08-25_17h06.09.608,IAT(Formal),2021.2.3,Win32,60.0240096,,,,,,,,,,,,,,,,,,,,,,,,,,,,,,,,,,,,,,,,,,,,,,,,,,,,他,e,,,e,1,0.58,0,2,2,5,1,,
,,,,,,,,,,,,,,1,001,2024-08-25_17h06.09.608,IAT(Formal),2021.2.3,Win32,60.0240096,,,,,,,,,,,,,,,,,,,,,,,,,,,,,,,,,,,,,,,,,,,,,,,,,,,,细腻,e,,,e,1,0.811,0,3,3,25,1,,
,,,,,,,,,,,,,,1,001,2024-08-25_17h06.09.608,IAT(Formal),2021.2.3,Win32,60.0240096,,,,,,,,,,,,,,,,,,,,,,,,,,,,,,,,,,,,,,,,,,,,,,,,,,,,自卑,i,,,i,1,0.972,0,4,4,36,1,,
,,,,,,,,,,,,,,1,001,2024-08-25_17h06.09.608,IAT(Formal),2021.2.3,Win32,60.0240096,,,,,,,,,,,,,,,,,,,,,,,,,,,,,,,,,,,,,,,,,,,,,,,,,,,,稳重,e,,,e,1,0.746,0,5,5,21,1,,
,,,,,,,,,,,,,,1,001,2024-08-25_17h06.09.608,IAT(Formal),2021.2.3,Win32,60.0240096,,,,,,,,,,,,,,,,,,,,,,,,,,,,,,,,,,,,,,,,,,,,,,,,,,,,诚恳,e,,,e,1,0.747,0,6,6,29,1,,
,,,,,,,,,,,,,,1,001,2024-08-25_17h06.09.608,IAT(Formal),2021.2.3,Win32,60.0240096,,,,,,,,,,,,,,,,,,,,,,,,,,,,,,,,,,,,,,,,,,,,,,,,,,,,我们,i,,,i,1,0.568,0,7,7,2,1,,
,,,,,,,,,,,,,,1,001,2024-08-25_17h06.09.608,IAT(Formal),2021.2.3,Win32,60.0240096,,,,,,,,,,,,,,,,,,,,,,,,,,,,,,,,,,,,,,,,,,,,,,,,,,,,他们,e,,,e,1,0.565,0,8,8,56,1,,
,,,,,,,,,,,,,,1,001,2024-08-25_17h06.09.608,IAT(Formal),2021.2.3,Win32,60.0240096,,,,,,,,,,,,,,,,,,,,,,,,,,,,,,,,,,,,,,,,,,,,,,,,,,,,他,e,,,e,1,0.602,0,9,9,65,1,,
,,,,,,,,,,,,,,1,001,2024-08-25_17h06.09.608,IAT(Formal),2021.2.3,Win32,60.0240096,,,,,,,,,,,,,,,,,,,,,,,,,,,,,,,,,,,,,,,,,,,,,,,,,,,,自己,i,,,i,1,0.587,0,10,10,73,1,,
,,,,,,,,,,,,,,1,001,2024-08-25_17h06.09.608,IAT(Formal),2021.2.3,Win32,60.0240096,,,,,,,,,,,,,,,,,,,,,,,,,,,,,,,,,,,,,,,,,,,,,,,,,,,,散漫,i,,,i,1,0.555,0,11,11,41,1,,
,,,,,,,,,,,,,,1,001,2024-08-25_17h06.09.608,IAT(Formal),2021.2.3,Win32,60.0240096,,,,,,,,,,,,,,,,,,,,,,,,,,,,,,,,,,,,,,,,,,,,,,,,,,,,卑鄙,i,,,i,1,0.865,0,12,12,30,1,,
,,,,,,,,,,,,,,1,001,2024-08-25_17h06.09.608,IAT(Formal),2021.2.3,Win32,60.0240096,,,,,,,,,,,,,,,,,,,,,,,,,,,,,,,,,,,,,,,,,,,,,,,,,,,,固执,i,,,i,1,0.754,0,13,13,47,1,,
,,,,,,,,,,,,,,1,001,2024-08-25_17h06.09.608,IAT(Formal),2021.2.3,Win32,60.0240096,,,,,,,,,,,,,,,,,,,,,,,,,,,,,,,,,,,,,,,,,,,,,,,,,,,,他,e,,,e,1,0.585,0,14,14,55,1,,
,,,,,,,,,,,,,,1,001,2024-08-25_17h06.09.608,IAT(Formal),2021.2.3,Win32,60.0240096,,,,,,,,,,,,,,,,,,,,,,,,,,,,,,,,,,,,,,,,,,,,,,,,,,,,俺,i,,,i,1,0.738,0,15,15,4,1,,
,,,,,,,,,,,,,,1,001,2024-08-25_17h06.09.608,IAT(Formal),2021.2.3,Win32,60.0240096,,,,,,,,,,,,,,,,,,,,,,,,,,,,,,,,,,,,,,,,,,,,,,,,,,,,冷静,e,,,e,1,0.773,0,16,16,26,1,,
,,,,,,,,,,,,,,1,001,2024-08-25_17h06.09.608,IAT(Formal),2021.2.3,Win32,60.0240096,,,,,,,,,,,,,,,,,,,,,,,,,,,,,,,,,,,,,,,,,,,,,,,,,,,,他,e,,,e,1,0.71,0,17,17,75,1,,
,,,,,,,,,,,,,,1,001,2024-08-25_17h06.09.608,IAT(Formal),2021.2.3,Win32,60.0240096,,,,,,,,,,,,,,,,,,,,,,,,,,,,,,,,,,,,,,,,,,,,,,,,,,,,我的,i,,,i,1,0.637,0,18,18,71,1,,
,,,,,,,,,,,,,,1,001,2024-08-25_17h06.09.608,IAT(Formal),2021.2.3,Win32,60.0240096,,,,,,,,,,,,,,,,,,,,,,,,,,,,,,,,,,,,,,,,,,,,,,,,,,,,他人,e,,,e,1,0.612,0,19,19,8,1,,
,,,,,,,,,,,,,,1,001,2024-08-25_17h06.09.608,IAT(Formal),2021.2.3,Win32,60.0240096,,,,,,,,,,,,,,,,,,,,,,,,,,,,,,,,,,,,,,,,,,,,,,,,,,,,朴实,e,,,e,1,0.866,0,20,20,24,1,,
,,,,,,,,,,,,,,1,001,2024-08-25_17h06.09.608,IAT(Formal),2021.2.3,Win32,60.0240096,,,,,,,,,,,,,,,,,,,,,,,,,,,,,,,,,,,,,,,,,,,,,,,,,,,,他人,e,,,e,1,0.582,0,21,21,58,1,,
,,,,,,,,,,,,,,1,001,2024-08-25_17h06.09.608,IAT(Formal),2021.2.3,Win32,60.0240096,,,,,,,,,,,,,,,,,,,,,,,,,,,,,,,,,,,,,,,,,,,,,,,,,,,,自私,i,,,i,1,0.927,0,22,22,43,1,,
,,,,,,,,,,,,,,1,001,2024-08-25_17h06.09.608,IAT(Formal),2021.2.3,Win32,60.0240096,,,,,,,,,,,,,,,,,,,,,,,,,,,,,,,,,,,,,,,,,,,,,,,,,,,,猖狂,i,,,i,1,0.731,0,23,23,45,1,,
,,,,,,,,,,,,,,1,001,2024-08-25_17h06.09.608,IAT(Formal),2021.2.3,Win32,60.0240096,,,,,,,,,,,,,,,,,,,,,,,,,,,,,,,,,,,,,,,,,,,,,,,,,,,,我们,i,,,i,1,0.814,0,24,24,52,1,,
,,,,,,,,,,,,,,1,001,2024-08-25_17h06.09.608,IAT(Formal),2021.2.3,Win32,60.0240096,,,,,,,,,,,,,,,,,,,,,,,,,,,,,,,,,,,,,,,,,,,,,,,,,,,,鲁莽,i,,,i,1,1.066,0,25,25,38,1,,
,,,,,,,,,,,,,,1,001,2024-08-25_17h06.09.608,IAT(Formal),2021.2.3,Win32,60.0240096,,,,,,,,,,,,,,,,,,,,,,,,,,,,,,,,,,,,,,,,,,,,,,,,,,,,刻薄,i,,,i,1,0.595,0,26,26,33,1,,
,,,,,,,,,,,,,,1,001,2024-08-25_17h06.09.608,IAT(Formal),2021.2.3,Win32,60.0240096,,,,,,,,,,,,,,,,,,,,,,,,,,,,,,,,,,,,,,,,,,,,,,,,,,,,我,i,,,i,1,0.5,0,27,27,70,1,,
,,,,,,,,,,,,,,1,001,2024-08-25_17h06.09.608,IAT(Formal),2021.2.3,Win32,60.0240096,,,,,,,,,,,,,,,,,,,,,,,,,,,,,,,,,,,,,,,,,,,,,,,,,,,,俺,i,,,i,1,0.822,0,28,28,54,1,,
,,,,,,,,,,,,,,1,001,2024-08-25_17h06.09.608,IAT(Formal),2021.2.3,Win32,60.0240096,,,,,,,,,,,,,,,,,,,,,,,,,,,,,,,,,,,,,,,,,,,,,,,,,,,,野蛮,i,,,i,1,0.663,0,29,29,46,1,,
,,,,,,,,,,,,,,1,001,2024-08-25_17h06.09.608,IAT(Formal),2021.2.3,Win32,60.0240096,,,,,,,,,,,,,,,,,,,,,,,,,,,,,,,,,,,,,,,,,,,,,,,,,,,,我,i,,,i,1,0.599,0,30,30,0,1,,
,,,,,,,,,,,,,,1,001,2024-08-25_17h06.09.608,IAT(Formal),2021.2.3,Win32,60.0240096,,,,,,,,,,,,,,,,,,,,,,,,,,,,,,,,,,,,,,,,,,,,,,,,,,,,俺,i,,,i,1,0.982,0,31,31,74,1,,
,,,,,,,,,,,,,,1,001,2024-08-25_17h06.09.608,IAT(Formal),2021.2.3,Win32,60.0240096,,,,,,,,,,,,,,,,,,,,,,,,,,,,,,,,,,,,,,,,,,,,,,,,,,,,认真,e,,,e,1,0.755,0,32,32,20,1,,
,,,,,,,,,,,,,,1,001,2024-08-25_17h06.09.608,IAT(Formal),2021.2.3,Win32,60.0240096,,,,,,,,,,,,,,,,,,,,,,,,,,,,,,,,,,,,,,,,,,,,,,,,,,,,下贱,i,,,i,1,0.746,0,33,33,49,1,,
,,,,,,,,,,,,,,1,001,2024-08-25_17h06.09.608,IAT(Formal),2021.2.3,Win32,60.0240096,,,,,,,,,,,,,,,,,,,,,,,,,,,,,,,,,,,,,,,,,,,,,,,,,,,,机智,e,,,e,1,0.815,0,34,34,19,1,,
,,,,,,,,,,,,,,1,001,2024-08-25_17h06.09.608,IAT(Formal),2021.2.3,Win32,60.0240096,,,,,,,,,,,,,,,,,,,,,,,,,,,,,,,,,,,,,,,,,,,,,,,,,,,,他们,e,,,i,0,0.85,0,35,35,76,1,,
,,,,,,,,,,,,,,1,001,2024-08-25_17h06.09.608,IAT(Formal),2021.2.3,Win32,60.0240096,,,,,,,,,,,,,,,,,,,,,,,,,,,,,,,,,,,,,,,,,,,,,,,,,,,,我们,i,,,i,1,0.585,0,36,36,72,1,,
,,,,,,,,,,,,,,1,001,2024-08-25_17h06.09.608,IAT(Formal),2021.2.3,Win32,60.0240096,,,,,,,,,,,,,,,,,,,,,,,,,,,,,,,,,,,,,,,,,,,,,,,,,,,,虚伪,i,,,i,1,0.716,0,37,37,31,1,,
,,,,,,,,,,,,,,1,001,2024-08-25_17h06.09.608,IAT(Formal),2021.2.3,Win32,60.0240096,,,,,,,,,,,,,,,,,,,,,,,,,,,,,,,,,,,,,,,,,,,,,,,,,,,,自己,i,,,i,1,0.671,0,38,38,53,1,,
,,,,,,,,,,,,,,1,001,2024-08-25_17h06.09.608,IAT(Formal),2021.2.3,Win32,60.0240096,,,,,,,,,,,,,,,,,,,,,,,,,,,,,,,,,,,,,,,,,,,,,,,,,,,,公正,e,,,e,1,1.018,0,39,39,23,1,,
,,,,,,,,,,,,,,1,001,2024-08-25_17h06.09.608,IAT(Formal),2021.2.3,Win32,60.0240096,,,,,,,,,,,,,,,,,,,,,,,,,,,,,,,,,,,,,,,,,,,,,,,,,,,,自己,i,,,i,1,0.667,0,40,40,3,1,,
,,,,,,,,,,,,,,1,001,2024-08-25_17h06.09.608,IAT(Formal),2021.2.3,Win32,60.0240096,,,,,,,,,,,,,,,,,,,,,,,,,,,,,,,,,,,,,,,,,,,,,,,,,,,,冒失,i,,,i,1,1.015,0,41,41,39,1,,
,,,,,,,,,,,,,,1,001,2024-08-25_17h06.09.608,IAT(Formal),2021.2.3,Win32,60.0240096,,,,,,,,,,,,,,,,,,,,,,,,,,,,,,,,,,,,,,,,,,,,,,,,,,,,消极,i,,,i,1,0.601,0,42,42,35,1,,
,,,,,,,,,,,,,,1,001,2024-08-25_17h06.09.608,IAT(Formal),2021.2.3,Win32,60.0240096,,,,,,,,,,,,,,,,,,,,,,,,,,,,,,,,,,,,,,,,,,,,,,,,,,,,自己,i,,,i,1,0.637,0,43,43,63,1,,
,,,,,,,,,,,,,,1,001,2024-08-25_17h06.09.608,IAT(Formal),2021.2.3,Win32,60.0240096,,,,,,,,,,,,,,,,,,,,,,,,,,,,,,,,,,,,,,,,,,,,,,,,,,,,我们,i,,,i,1,1.011,0,44,44,62,1,,
,,,,,,,,,,,,,,1,001,2024-08-25_17h06.09.608,IAT(Formal),2021.2.3,Win32,60.0240096,,,,,,,,,,,,,,,,,,,,,,,,,,,,,,,,,,,,,,,,,,,,,,,,,,,,聪明,e,,,e,1,1.005,0,45,45,12,1,,
,,,,,,,,,,,,,,1,001,2024-08-25_17h06.09.608,IAT(Formal),2021.2.3,Win32,60.0240096,,,,,,,,,,,,,,,,,,,,,,,,,,,,,,,,,,,,,,,,,,,,,,,,,,,,诚实,e,,,e,1,0.663,0,46,46,15,1,,
,,,,,,,,,,,,,,1,001,2024-08-25_17h06.09.608,IAT(Formal),2021.2.3,Win32,60.0240096,,,,,,,,,,,,,,,,,,,,,,,,,,,,,,,,,,,,,,,,,,,,,,,,,,,,他们,e,,,i,0,0.588,0,47,47,66,1,,
,,,,,,,,,,,,,,1,001,2024-08-25_17h06.09.608,IAT(Formal),2021.2.3,Win32,60.0240096,,,,,,,,,,,,,,,,,,,,,,,,,,,,,,,,,,,,,,,,,,,,,,,,,,,,轻率,i,,,i,1,0.694,0,48,48,48,1,,
,,,,,,,,,,,,,,1,001,2024-08-25_17h06.09.608,IAT(Formal),2021.2.3,Win32,60.0240096,,,,,,,,,,,,,,,,,,,,,,,,,,,,,,,,,,,,,,,,,,,,,,,,,,,,执拗,i,,,i,1,0.703,0,49,49,40,1,,
,,,,,,,,,,,,,,1,001,2024-08-25_17h06.09.608,IAT(Formal),2021.2.3,Win32,60.0240096,,,,,,,,,,,,,,,,,,,,,,,,,,,,,,,,,,,,,,,,,,,,,,,,,,,,他的,e,,,e,1,0.956,0,50,50,7,1,,
,,,,,,,,,,,,,,1,001,2024-08-25_17h06.09.608,IAT(Formal),2021.2.3,Win32,60.0240096,,,,,,,,,,,,,,,,,,,,,,,,,,,,,,,,,,,,,,,,,,,,,,,,,,,,暴躁,i,,,i,1,0.682,0,51,51,44,1,,
,,,,,,,,,,,,,,1,001,2024-08-25_17h06.09.608,IAT(Formal),2021.2.3,Win32,60.0240096,,,,,,,,,,,,,,,,,,,,,,,,,,,,,,,,,,,,,,,,,,,,,,,,,,,,我,i,,,i,1,0.82,0,52,52,50,1,,
,,,,,,,,,,,,,,1,001,2024-08-25_17h06.09.608,IAT(Formal),2021.2.3,Win32,60.0240096,,,,,,,,,,,,,,,,,,,,,,,,,,,,,,,,,,,,,,,,,,,,,,,,,,,,他的,e,,,e,1,0.783,0,53,53,67,1,,
,,,,,,,,,,,,,,1,001,2024-08-25_17h06.09.608,IAT(Formal),2021.2.3,Win32,60.0240096,,,,,,,,,,,,,,,,,,,,,,,,,,,,,,,,,,,,,,,,,,,,,,,,,,,,他们,e,,,e,1,0.485,0,54,54,6,1,,
,,,,,,,,,,,,,,1,001,2024-08-25_17h06.09.608,IAT(Formal),2021.2.3,Win32,60.0240096,,,,,,,,,,,,,,,,,,,,,,,,,,,,,,,,,,,,,,,,,,,,,,,,,,,,勤奋,e,,,e,1,1.098,0,55,55,18,1,,
,,,,,,,,,,,,,,1,001,2024-08-25_17h06.09.608,IAT(Formal),2021.2.3,Win32,60.0240096,,,,,,,,,,,,,,,,,,,,,,,,,,,,,,,,,,,,,,,,,,,,,,,,,,,,杰出,e,,,e,1,0.779,0,56,56,13,1,,
,,,,,,,,,,,,,,1,001,2024-08-25_17h06.09.608,IAT(Formal),2021.2.3,Win32,60.0240096,,,,,,,,,,,,,,,,,,,,,,,,,,,,,,,,,,,,,,,,,,,,,,,,,,,,我的,i,,,i,1,0.705,0,57,57,51,1,,
,,,,,,,,,,,,,,1,001,2024-08-25_17h06.09.608,IAT(Formal),2021.2.3,Win32,60.0240096,,,,,,,,,,,,,,,,,,,,,,,,,,,,,,,,,,,,,,,,,,,,,,,,,,,,悲观,i,,,i,1,0.703,0,58,58,34,1,,
,,,,,,,,,,,,,,1,001,2024-08-25_17h06.09.608,IAT(Formal),2021.2.3,Win32,60.0240096,,,,,,,,,,,,,,,,,,,,,,,,,,,,,,,,,,,,,,,,,,,,,,,,,,,,崇高,e,,,e,1,0.888,0,59,59,11,1,,
,,,,,,,,,,,,,,1,001,2024-08-25_17h06.09.608,IAT(Formal),2021.2.3,Win32,60.0240096,,,,,,,,,,,,,,,,,,,,,,,,,,,,,,,,,,,,,,,,,,,,,,,,,,,,他人,e,,,e,1,0.787,0,60,60,78,1,,
,,,,,,,,,,,,,,1,001,2024-08-25_17h06.09.608,IAT(Formal),2021.2.3,Win32,60.0240096,,,,,,,,,,,,,,,,,,,,,,,,,,,,,,,,,,,,,,,,,,,,,,,,,,,,他的,e,,,e,1,0.57,0,61,61,77,1,,
,,,,,,,,,,,,,,1,001,2024-08-25_17h06.09.608,IAT(Formal),2021.2.3,Win32,60.0240096,,,,,,,,,,,,,,,,,,,,,,,,,,,,,,,,,,,,,,,,,,,,,,,,,,,,愚蠢,i,,,i,1,0.831,0,62,62,32,1,,
,,,,,,,,,,,,,,1,001,2024-08-25_17h06.09.608,IAT(Formal),2021.2.3,Win32,60.0240096,,,,,,,,,,,,,,,,,,,,,,,,,,,,,,,,,,,,,,,,,,,,,,,,,,,,我,i,,,i,1,0.7,0,63,63,60,1,,
,,,,,,,,,,,,,,1,001,2024-08-25_17h06.09.608,IAT(Formal),2021.2.3,Win32,60.0240096,,,,,,,,,,,,,,,,,,,,,,,,,,,,,,,,,,,,,,,,,,,,,,,,,,,,其他,e,,,e,1,0.764,0,64,64,69,1,,
,,,,,,,,,,,,,,1,001,2024-08-25_17h06.09.608,IAT(Formal),2021.2.3,Win32,60.0240096,,,,,,,,,,,,,,,,,,,,,,,,,,,,,,,,,,,,,,,,,,,,,,,,,,,,傲慢,i,,,i,1,0.664,0,65,65,37,1,,
,,,,,,,,,,,,,,1,001,2024-08-25_17h06.09.608,IAT(Formal),2021.2.3,Win32,60.0240096,,,,,,,,,,,,,,,,,,,,,,,,,,,,,,,,,,,,,,,,,,,,,,,,,,,,其他,e,,,e,1,0.887,0,66,66,79,1,,
,,,,,,,,,,,,,,1,001,2024-08-25_17h06.09.608,IAT(Formal),2021.2.3,Win32,60.0240096,,,,,,,,,,,,,,,,,,,,,,,,,,,,,,,,,,,,,,,,,,,,,,,,,,,,热情,e,,,e,1,1.051,0,67,67,27,1,,
,,,,,,,,,,,,,,1,001,2024-08-25_17h06.09.608,IAT(Formal),2021.2.3,Win32,60.0240096,,,,,,,,,,,,,,,,,,,,,,,,,,,,,,,,,,,,,,,,,,,,,,,,,,,,正直,e,,,e,1,0.95,0,68,68,16,1,,
,,,,,,,,,,,,,,1,001,2024-08-25_17h06.09.608,IAT(Formal),2021.2.3,Win32,60.0240096,,,,,,,,,,,,,,,,,,,,,,,,,,,,,,,,,,,,,,,,,,,,,,,,,,,,我的,i,,,i,1,0.57,0,69,69,61,1,,
,,,,,,,,,,,,,,1,001,2024-08-25_17h06.09.608,IAT(Formal),2021.2.3,Win32,60.0240096,,,,,,,,,,,,,,,,,,,,,,,,,,,,,,,,,,,,,,,,,,,,,,,,,,,,无私,e,,,e,1,1.439,0,70,70,22,1,,
,,,,,,,,,,,,,,1,001,2024-08-25_17h06.09.608,IAT(Formal),2021.2.3,Win32,60.0240096,,,,,,,,,,,,,,,,,,,,,,,,,,,,,,,,,,,,,,,,,,,,,,,,,,,,俺,i,,,i,1,0.786,0,71,71,64,1,,
,,,,,,,,,,,,,,1,001,2024-08-25_17h06.09.608,IAT(Formal),2021.2.3,Win32,60.0240096,,,,,,,,,,,,,,,,,,,,,,,,,,,,,,,,,,,,,,,,,,,,,,,,,,,,活泼,e,,,e,1,0.791,0,72,72,28,1,,
,,,,,,,,,,,,,,1,001,2024-08-25_17h06.09.608,IAT(Formal),2021.2.3,Win32,60.0240096,,,,,,,,,,,,,,,,,,,,,,,,,,,,,,,,,,,,,,,,,,,,,,,,,,,,其他,e,,,e,1,0.769,0,73,73,9,1,,
,,,,,,,,,,,,,,1,001,2024-08-25_17h06.09.608,IAT(Formal),2021.2.3,Win32,60.0240096,,,,,,,,,,,,,,,,,,,,,,,,,,,,,,,,,,,,,,,,,,,,,,,,,,,,凶狠,i,,,i,1,0.615,0,74,74,42,1,,
,,,,,,,,,,,,,,1,001,2024-08-25_17h06.09.608,IAT(Formal),2021.2.3,Win32,60.0240096,,,,,,,,,,,,,,,,,,,,,,,,,,,,,,,,,,,,,,,,,,,,,,,,,,,,他人,e,,,e,1,0.685,0,75,75,68,1,,
,,,,,,,,,,,,,,1,001,2024-08-25_17h06.09.608,IAT(Formal),2021.2.3,Win32,60.0240096,,,,,,,,,,,,,,,,,,,,,,,,,,,,,,,,,,,,,,,,,,,,,,,,,,,,他的,e,,,e,1,0.565,0,76,76,57,1,,
,,,,,,,,,,,,,,1,001,2024-08-25_17h06.09.608,IAT(Formal),2021.2.3,Win32,60.0240096,,,,,,,,,,,,,,,,,,,,,,,,,,,,,,,,,,,,,,,,,,,,,,,,,,,,乐观,e,,,e,1,0.749,0,77,77,14,1,,
,,,,,,,,,,,,,,1,001,2024-08-25_17h06.09.608,IAT(Formal),2021.2.3,Win32,60.0240096,,,,,,,,,,,,,,,,,,,,,,,,,,,,,,,,,,,,,,,,,,,,,,,,,,,,其他,e,,,e,1,0.567,0,78,78,59,1,,
,,,,,,,,,,,,,,1,001,2024-08-25_17h06.09.608,IAT(Formal),2021.2.3,Win32,60.0240096,,,,,,,,,,,,,,,,,,,,,,,,,,,,,,,,,,,,,,,,,,,,,,,,,,,,勇敢,e,,,e,1,0.86,0,79,79,17,1,,
,,,,,,,,,,,,,,1,001,2024-08-25_17h06.09.608,IAT(Formal),2021.2.3,Win32,60.0240096,,,,,,,,,,,,,,,,,,,,,,,,,,,,,,,,,,,,,,,,,,,,,,,,,,,,俺,i,,,i,1,0.701,1,0,80,4,1,,
,,,,,,,,,,,,,,1,001,2024-08-25_17h06.09.608,IAT(Formal),2021.2.3,Win32,60.0240096,,,,,,,,,,,,,,,,,,,,,,,,,,,,,,,,,,,,,,,,,,,,,,,,,,,,公正,e,,,e,1,0.631,1,1,81,23,1,,
,,,,,,,,,,,,,,1,001,2024-08-25_17h06.09.608,IAT(Formal),2021.2.3,Win32,60.0240096,,,,,,,,,,,,,,,,,,,,,,,,,,,,,,,,,,,,,,,,,,,,,,,,,,,,活泼,e,,,e,1,0.712,1,2,82,28,1,,
,,,,,,,,,,,,,,1,001,2024-08-25_17h06.09.608,IAT(Formal),2021.2.3,Win32,60.0240096,,,,,,,,,,,,,,,,,,,,,,,,,,,,,,,,,,,,,,,,,,,,,,,,,,,,虚伪,i,,,i,1,0.753,1,3,83,31,1,,
,,,,,,,,,,,,,,1,001,2024-08-25_17h06.09.608,IAT(Formal),2021.2.3,Win32,60.0240096,,,,,,,,,,,,,,,,,,,,,,,,,,,,,,,,,,,,,,,,,,,,,,,,,,,,自己,i,,,i,1,0.779,1,4,84,53,1,,
,,,,,,,,,,,,,,1,001,2024-08-25_17h06.09.608,IAT(Formal),2021.2.3,Win32,60.0240096,,,,,,,,,,,,,,,,,,,,,,,,,,,,,,,,,,,,,,,,,,,,,,,,,,,,优秀,e,,,e,1,0.802,1,5,85,10,1,,
,,,,,,,,,,,,,,1,001,2024-08-25_17h06.09.608,IAT(Formal),2021.2.3,Win32,60.0240096,,,,,,,,,,,,,,,,,,,,,,,,,,,,,,,,,,,,,,,,,,,,,,,,,,,,暴躁,i,,,i,1,0.913,1,6,86,44,1,,
,,,,,,,,,,,,,,1,001,2024-08-25_17h06.09.608,IAT(Formal),2021.2.3,Win32,60.0240096,,,,,,,,,,,,,,,,,,,,,,,,,,,,,,,,,,,,,,,,,,,,,,,,,,,,他的,e,,,e,1,0.682,1,7,87,7,1,,
,,,,,,,,,,,,,,1,001,2024-08-25_17h06.09.608,IAT(Formal),2021.2.3,Win32,60.0240096,,,,,,,,,,,,,,,,,,,,,,,,,,,,,,,,,,,,,,,,,,,,,,,,,,,,下贱,i,,,i,1,0.631,1,8,88,49,1,,
,,,,,,,,,,,,,,1,001,2024-08-25_17h06.09.608,IAT(Formal),2021.2.3,Win32,60.0240096,,,,,,,,,,,,,,,,,,,,,,,,,,,,,,,,,,,,,,,,,,,,,,,,,,,,自私,i,,,e,0,0.999,1,9,89,43,1,,
,,,,,,,,,,,,,,1,001,2024-08-25_17h06.09.608,IAT(Formal),2021.2.3,Win32,60.0240096,,,,,,,,,,,,,,,,,,,,,,,,,,,,,,,,,,,,,,,,,,,,,,,,,,,,勇敢,e,,,e,1,0.751,1,10,90,17,1,,
,,,,,,,,,,,,,,1,001,2024-08-25_17h06.09.608,IAT(Formal),2021.2.3,Win32,60.0240096,,,,,,,,,,,,,,,,,,,,,,,,,,,,,,,,,,,,,,,,,,,,,,,,,,,,他,e,,,e,1,0.901,1,11,91,75,1,,
,,,,,,,,,,,,,,1,001,2024-08-25_17h06.09.608,IAT(Formal),2021.2.3,Win32,60.0240096,,,,,,,,,,,,,,,,,,,,,,,,,,,,,,,,,,,,,,,,,,,,,,,,,,,,杰出,e,,,e,1,0.695,1,12,92,13,1,,
,,,,,,,,,,,,,,1,001,2024-08-25_17h06.09.608,IAT(Formal),2021.2.3,Win32,60.0240096,,,,,,,,,,,,,,,,,,,,,,,,,,,,,,,,,,,,,,,,,,,,,,,,,,,,其他,e,,,e,1,0.737,1,13,93,9,1,,
,,,,,,,,,,,,,,1,001,2024-08-25_17h06.09.608,IAT(Formal),2021.2.3,Win32,60.0240096,,,,,,,,,,,,,,,,,,,,,,,,,,,,,,,,,,,,,,,,,,,,,,,,,,,,我,i,,,i,1,0.627,1,14,94,60,1,,
,,,,,,,,,,,,,,1,001,2024-08-25_17h06.09.608,IAT(Formal),2021.2.3,Win32,60.0240096,,,,,,,,,,,,,,,,,,,,,,,,,,,,,,,,,,,,,,,,,,,,,,,,,,,,其他,e,,,e,1,0.603,1,15,95,79,1,,
,,,,,,,,,,,,,,1,001,2024-08-25_17h06.09.608,IAT(Formal),2021.2.3,Win32,60.0240096,,,,,,,,,,,,,,,,,,,,,,,,,,,,,,,,,,,,,,,,,,,,,,,,,,,,我的,i,,,i,1,0.508,1,16,96,61,1,,
,,,,,,,,,,,,,,1,001,2024-08-25_17h06.09.608,IAT(Formal),2021.2.3,Win32,60.0240096,,,,,,,,,,,,,,,,,,,,,,,,,,,,,,,,,,,,,,,,,,,,,,,,,,,,正直,e,,,e,1,0.804,1,17,97,16,1,,
,,,,,,,,,,,,,,1,001,2024-08-25_17h06.09.608,IAT(Formal),2021.2.3,Win32,60.0240096,,,,,,,,,,,,,,,,,,,,,,,,,,,,,,,,,,,,,,,,,,,,,,,,,,,,我,i,,,i,1,0.531,1,18,98,70,1,,
,,,,,,,,,,,,,,1,001,2024-08-25_17h06.09.608,IAT(Formal),2021.2.3,Win32,60.0240096,,,,,,,,,,,,,,,,,,,,,,,,,,,,,,,,,,,,,,,,,,,,,,,,,,,,他们,e,,,e,1,0.683,1,19,99,76,1,,
,,,,,,,,,,,,,,1,001,2024-08-25_17h06.09.608,IAT(Formal),2021.2.3,Win32,60.0240096,,,,,,,,,,,,,,,,,,,,,,,,,,,,,,,,,,,,,,,,,,,,,,,,,,,,他人,e,,,e,1,0.773,1,20,100,58,1,,
,,,,,,,,,,,,,,1,001,2024-08-25_17h06.09.608,IAT(Formal),2021.2.3,Win32,60.0240096,,,,,,,,,,,,,,,,,,,,,,,,,,,,,,,,,,,,,,,,,,,,,,,,,,,,他人,e,,,e,1,0.586,1,21,101,68,1,,
,,,,,,,,,,,,,,1,001,2024-08-25_17h06.09.608,IAT(Formal),2021.2.3,Win32,60.0240096,,,,,,,,,,,,,,,,,,,,,,,,,,,,,,,,,,,,,,,,,,,,,,,,,,,,他人,e,,,e,1,0.485,1,22,102,78,1,,
,,,,,,,,,,,,,,1,001,2024-08-25_17h06.09.608,IAT(Formal),2021.2.3,Win32,60.0240096,,,,,,,,,,,,,,,,,,,,,,,,,,,,,,,,,,,,,,,,,,,,,,,,,,,,他的,e,,,e,1,0.449,1,23,103,67,1,,
,,,,,,,,,,,,,,1,001,2024-08-25_17h06.09.608,IAT(Formal),2021.2.3,Win32,60.0240096,,,,,,,,,,,,,,,,,,,,,,,,,,,,,,,,,,,,,,,,,,,,,,,,,,,,他,e,,,e,1,0.449,1,24,104,55,1,,
,,,,,,,,,,,,,,1,001,2024-08-25_17h06.09.608,IAT(Formal),2021.2.3,Win32,60.0240096,,,,,,,,,,,,,,,,,,,,,,,,,,,,,,,,,,,,,,,,,,,,,,,,,,,,我们,i,,,i,1,0.566,1,25,105,72,1,,
,,,,,,,,,,,,,,1,001,2024-08-25_17h06.09.608,IAT(Formal),2021.2.3,Win32,60.0240096,,,,,,,,,,,,,,,,,,,,,,,,,,,,,,,,,,,,,,,,,,,,,,,,,,,,他们,e,,,e,1,0.766,1,26,106,6,1,,
,,,,,,,,,,,,,,1,001,2024-08-25_17h06.09.608,IAT(Formal),2021.2.3,Win32,60.0240096,,,,,,,,,,,,,,,,,,,,,,,,,,,,,,,,,,,,,,,,,,,,,,,,,,,,我们,i,,,i,1,0.551,1,27,107,62,1,,
,,,,,,,,,,,,,,1,001,2024-08-25_17h06.09.608,IAT(Formal),2021.2.3,Win32,60.0240096,,,,,,,,,,,,,,,,,,,,,,,,,,,,,,,,,,,,,,,,,,,,,,,,,,,,无私,e,,,e,1,1.171,1,28,108,22,1,,
,,,,,,,,,,,,,,1,001,2024-08-25_17h06.09.608,IAT(Formal),2021.2.3,Win32,60.0240096,,,,,,,,,,,,,,,,,,,,,,,,,,,,,,,,,,,,,,,,,,,,,,,,,,,,消极,i,,,i,1,0.648,1,29,109,35,1,,
,,,,,,,,,,,,,,1,001,2024-08-25_17h06.09.608,IAT(Formal),2021.2.3,Win32,60.0240096,,,,,,,,,,,,,,,,,,,,,,,,,,,,,,,,,,,,,,,,,,,,,,,,,,,,聪明,e,,,e,1,0.69,1,30,110,12,1,,
,,,,,,,,,,,,,,1,001,2024-08-25_17h06.09.608,IAT(Formal),2021.2.3,Win32,60.0240096,,,,,,,,,,,,,,,,,,,,,,,,,,,,,,,,,,,,,,,,,,,,,,,,,,,,我们,i,,,i,1,0.778,1,31,111,52,1,,
,,,,,,,,,,,,,,1,001,2024-08-25_17h06.09.608,IAT(Formal),2021.2.3,Win32,60.0240096,,,,,,,,,,,,,,,,,,,,,,,,,,,,,,,,,,,,,,,,,,,,,,,,,,,,自己,i,,,i,1,0.731,1,32,112,3,1,,
,,,,,,,,,,,,,,1,001,2024-08-25_17h06.09.608,IAT(Formal),2021.2.3,Win32,60.0240096,,,,,,,,,,,,,,,,,,,,,,,,,,,,,,,,,,,,,,,,,,,,,,,,,,,,我的,i,,,i,1,0.564,1,33,113,51,1,,
,,,,,,,,,,,,,,1,001,2024-08-25_17h06.09.608,IAT(Formal),2021.2.3,Win32,60.0240096,,,,,,,,,,,,,,,,,,,,,,,,,,,,,,,,,,,,,,,,,,,,,,,,,,,,诚实,e,,,e,1,0.631,1,34,114,15,1,,
,,,,,,,,,,,,,,1,001,2024-08-25_17h06.09.608,IAT(Formal),2021.2.3,Win32,60.0240096,,,,,,,,,,,,,,,,,,,,,,,,,,,,,,,,,,,,,,,,,,,,,,,,,,,,他们,e,,,e,1,0.904,1,35,115,56,1,,
,,,,,,,,,,,,,,1,001,2024-08-25_17h06.09.608,IAT(Formal),2021.2.3,Win32,60.0240096,,,,,,,,,,,,,,,,,,,,,,,,,,,,,,,,,,,,,,,,,,,,,,,,,,,,我,i,,,i,1,0.564,1,36,116,0,1,,
,,,,,,,,,,,,,,1,001,2024-08-25_17h06.09.608,IAT(Formal),2021.2.3,Win32,60.0240096,,,,,,,,,,,,,,,,,,,,,,,,,,,,,,,,,,,,,,,,,,,,,,,,,,,,热情,e,,,e,1,0.837,1,37,117,27,1,,
,,,,,,,,,,,,,,1,001,2024-08-25_17h06.09.608,IAT(Formal),2021.2.3,Win32,60.0240096,,,,,,,,,,,,,,,,,,,,,,,,,,,,,,,,,,,,,,,,,,,,,,,,,,,,野蛮,i,,,i,1,0.705,1,38,118,46,1,,
,,,,,,,,,,,,,,1,001,2024-08-25_17h06.09.608,IAT(Formal),2021.2.3,Win32,60.0240096,,,,,,,,,,,,,,,,,,,,,,,,,,,,,,,,,,,,,,,,,,,,,,,,,,,,凶狠,i,,,i,1,1.085,1,39,119,42,1,,
,,,,,,,,,,,,,,1,001,2024-08-25_17h06.09.608,IAT(Formal),2021.2.3,Win32,60.0240096,,,,,,,,,,,,,,,,,,,,,,,,,,,,,,,,,,,,,,,,,,,,,,,,,,,,乐观,e,,,e,1,1.029,1,40,120,14,1,,
,,,,,,,,,,,,,,1,001,2024-08-25_17h06.09.608,IAT(Formal),2021.2.3,Win32,60.0240096,,,,,,,,,,,,,,,,,,,,,,,,,,,,,,,,,,,,,,,,,,,,,,,,,,,,我,i,,,i,1,0.734,1,41,121,50,1,,
,,,,,,,,,,,,,,1,001,2024-08-25_17h06.09.608,IAT(Formal),2021.2.3,Win32,60.0240096,,,,,,,,,,,,,,,,,,,,,,,,,,,,,,,,,,,,,,,,,,,,,,,,,,,,自己,i,,,i,1,0.614,1,42,122,73,1,,
,,,,,,,,,,,,,,1,001,2024-08-25_17h06.09.608,IAT(Formal),2021.2.3,Win32,60.0240096,,,,,,,,,,,,,,,,,,,,,,,,,,,,,,,,,,,,,,,,,,,,,,,,,,,,勤奋,e,,,i,0,0.749,1,43,123,18,1,,
,,,,,,,,,,,,,,1,001,2024-08-25_17h06.09.608,IAT(Formal),2021.2.3,Win32,60.0240096,,,,,,,,,,,,,,,,,,,,,,,,,,,,,,,,,,,,,,,,,,,,,,,,,,,,固执,i,,,i,1,0.777,1,44,124,47,1,,
,,,,,,,,,,,,,,1,001,2024-08-25_17h06.09.608,IAT(Formal),2021.2.3,Win32,60.0240096,,,,,,,,,,,,,,,,,,,,,,,,,,,,,,,,,,,,,,,,,,,,,,,,,,,,散漫,i,,,i,1,1.259,1,45,125,41,1,,
,,,,,,,,,,,,,,1,001,2024-08-25_17h06.09.608,IAT(Formal),2021.2.3,Win32,60.0240096,,,,,,,,,,,,,,,,,,,,,,,,,,,,,,,,,,,,,,,,,,,,,,,,,,,,他人,e,,,e,1,0.701,1,46,126,8,1,,
,,,,,,,,,,,,,,1,001,2024-08-25_17h06.09.608,IAT(Formal),2021.2.3,Win32,60.0240096,,,,,,,,,,,,,,,,,,,,,,,,,,,,,,,,,,,,,,,,,,,,,,,,,,,,细腻,e,,,e,1,0.817,1,47,127,25,1,,
,,,,,,,,,,,,,,1,001,2024-08-25_17h06.09.608,IAT(Formal),2021.2.3,Win32,60.0240096,,,,,,,,,,,,,,,,,,,,,,,,,,,,,,,,,,,,,,,,,,,,,,,,,,,,诚恳,e,,,e,1,0.631,1,48,128,29,1,,
,,,,,,,,,,,,,,1,001,2024-08-25_17h06.09.608,IAT(Formal),2021.2.3,Win32,60.0240096,,,,,,,,,,,,,,,,,,,,,,,,,,,,,,,,,,,,,,,,,,,,,,,,,,,,冷静,e,,,e,1,1.049,1,49,129,26,1,,
,,,,,,,,,,,,,,1,001,2024-08-25_17h06.09.608,IAT(Formal),2021.2.3,Win32,60.0240096,,,,,,,,,,,,,,,,,,,,,,,,,,,,,,,,,,,,,,,,,,,,,,,,,,,,我们,i,,,i,1,0.682,1,50,130,2,1,,
,,,,,,,,,,,,,,1,001,2024-08-25_17h06.09.608,IAT(Formal),2021.2.3,Win32,60.0240096,,,,,,,,,,,,,,,,,,,,,,,,,,,,,,,,,,,,,,,,,,,,,,,,,,,,鲁莽,i,,,i,1,0.979,1,51,131,38,1,,
,,,,,,,,,,,,,,1,001,2024-08-25_17h06.09.608,IAT(Formal),2021.2.3,Win32,60.0240096,,,,,,,,,,,,,,,,,,,,,,,,,,,,,,,,,,,,,,,,,,,,,,,,,,,,自卑,i,,,i,1,0.632,1,52,132,36,1,,
,,,,,,,,,,,,,,1,001,2024-08-25_17h06.09.608,IAT(Formal),2021.2.3,Win32,60.0240096,,,,,,,,,,,,,,,,,,,,,,,,,,,,,,,,,,,,,,,,,,,,,,,,,,,,悲观,i,,,i,1,0.731,1,53,133,34,1,,
,,,,,,,,,,,,,,1,001,2024-08-25_17h06.09.608,IAT(Formal),2021.2.3,Win32,60.0240096,,,,,,,,,,,,,,,,,,,,,,,,,,,,,,,,,,,,,,,,,,,,,,,,,,,,他的,e,,,e,1,0.819,1,54,134,77,1,,
,,,,,,,,,,,,,,1,001,2024-08-25_17h06.09.608,IAT(Formal),2021.2.3,Win32,60.0240096,,,,,,,,,,,,,,,,,,,,,,,,,,,,,,,,,,,,,,,,,,,,,,,,,,,,其他,e,,,e,1,0.466,1,55,135,69,1,,
,,,,,,,,,,,,,,1,001,2024-08-25_17h06.09.608,IAT(Formal),2021.2.3,Win32,60.0240096,,,,,,,,,,,,,,,,,,,,,,,,,,,,,,,,,,,,,,,,,,,,,,,,,,,,稳重,e,,,e,1,0.729,1,56,136,21,1,,
,,,,,,,,,,,,,,1,001,2024-08-25_17h06.09.608,IAT(Formal),2021.2.3,Win32,60.0240096,,,,,,,,,,,,,,,,,,,,,,,,,,,,,,,,,,,,,,,,,,,,,,,,,,,,冒失,i,,,i,1,0.669,1,57,137,39,1,,
,,,,,,,,,,,,,,1,001,2024-08-25_17h06.09.608,IAT(Formal),2021.2.3,Win32,60.0240096,,,,,,,,,,,,,,,,,,,,,,,,,,,,,,,,,,,,,,,,,,,,,,,,,,,,卑鄙,i,,,i,1,0.654,1,58,138,30,1,,
,,,,,,,,,,,,,,1,001,2024-08-25_17h06.09.608,IAT(Formal),2021.2.3,Win32,60.0240096,,,,,,,,,,,,,,,,,,,,,,,,,,,,,,,,,,,,,,,,,,,,,,,,,,,,自己,i,,,i,1,1.116,1,59,139,63,1,,
,,,,,,,,,,,,,,1,001,2024-08-25_17h06.09.608,IAT(Formal),2021.2.3,Win32,60.0240096,,,,,,,,,,,,,,,,,,,,,,,,,,,,,,,,,,,,,,,,,,,,,,,,,,,,认真,e,,,e,1,0.918,1,60,140,20,1,,
,,,,,,,,,,,,,,1,001,2024-08-25_17h06.09.608,IAT(Formal),2021.2.3,Win32,60.0240096,,,,,,,,,,,,,,,,,,,,,,,,,,,,,,,,,,,,,,,,,,,,,,,,,,,,我的,i,,,i,1,0.654,1,61,141,71,1,,
,,,,,,,,,,,,,,1,001,2024-08-25_17h06.09.608,IAT(Formal),2021.2.3,Win32,60.0240096,,,,,,,,,,,,,,,,,,,,,,,,,,,,,,,,,,,,,,,,,,,,,,,,,,,,俺,i,,,i,1,0.75,1,62,142,54,1,,
,,,,,,,,,,,,,,1,001,2024-08-25_17h06.09.608,IAT(Formal),2021.2.3,Win32,60.0240096,,,,,,,,,,,,,,,,,,,,,,,,,,,,,,,,,,,,,,,,,,,,,,,,,,,,刻薄,i,,,i,1,0.931,1,63,143,33,1,,
,,,,,,,,,,,,,,1,001,2024-08-25_17h06.09.608,IAT(Formal),2021.2.3,Win32,60.0240096,,,,,,,,,,,,,,,,,,,,,,,,,,,,,,,,,,,,,,,,,,,,,,,,,,,,傲慢,i,,,i,1,0.628,1,64,144,37,1,,
,,,,,,,,,,,,,,1,001,2024-08-25_17h06.09.608,IAT(Formal),2021.2.3,Win32,60.0240096,,,,,,,,,,,,,,,,,,,,,,,,,,,,,,,,,,,,,,,,,,,,,,,,,,,,轻率,i,,,i,1,0.752,1,65,145,48,1,,
,,,,,,,,,,,,,,1,001,2024-08-25_17h06.09.608,IAT(Formal),2021.2.3,Win32,60.0240096,,,,,,,,,,,,,,,,,,,,,,,,,,,,,,,,,,,,,,,,,,,,,,,,,,,,机智,e,,,e,1,0.637,1,66,146,19,1,,
,,,,,,,,,,,,,,1,001,2024-08-25_17h06.09.608,IAT(Formal),2021.2.3,Win32,60.0240096,,,,,,,,,,,,,,,,,,,,,,,,,,,,,,,,,,,,,,,,,,,,,,,,,,,,朴实,e,,,e,1,0.52,1,67,147,24,1,,
,,,,,,,,,,,,,,1,001,2024-08-25_17h06.09.608,IAT(Formal),2021.2.3,Win32,60.0240096,,,,,,,,,,,,,,,,,,,,,,,,,,,,,,,,,,,,,,,,,,,,,,,,,,,,他的,e,,,e,1,0.783,1,68,148,57,1,,
,,,,,,,,,,,,,,1,001,2024-08-25_17h06.09.608,IAT(Formal),2021.2.3,Win32,60.0240096,,,,,,,,,,,,,,,,,,,,,,,,,,,,,,,,,,,,,,,,,,,,,,,,,,,,执拗,i,,,i,1,0.681,1,69,149,40,1,,
,,,,,,,,,,,,,,1,001,2024-08-25_17h06.09.608,IAT(Formal),2021.2.3,Win32,60.0240096,,,,,,,,,,,,,,,,,,,,,,,,,,,,,,,,,,,,,,,,,,,,,,,,,,,,俺,i,,,i,1,0.699,1,70,150,74,1,,
,,,,,,,,,,,,,,1,001,2024-08-25_17h06.09.608,IAT(Formal),2021.2.3,Win32,60.0240096,,,,,,,,,,,,,,,,,,,,,,,,,,,,,,,,,,,,,,,,,,,,,,,,,,,,猖狂,i,,,i,1,0.833,1,71,151,45,1,,
,,,,,,,,,,,,,,1,001,2024-08-25_17h06.09.608,IAT(Formal),2021.2.3,Win32,60.0240096,,,,,,,,,,,,,,,,,,,,,,,,,,,,,,,,,,,,,,,,,,,,,,,,,,,,我的,i,,,i,1,0.683,1,72,152,1,1,,
,,,,,,,,,,,,,,1,001,2024-08-25_17h06.09.608,IAT(Formal),2021.2.3,Win32,60.0240096,,,,,,,,,,,,,,,,,,,,,,,,,,,,,,,,,,,,,,,,,,,,,,,,,,,,崇高,e,,,e,1,1.016,1,73,153,11,1,,
,,,,,,,,,,,,,,1,001,2024-08-25_17h06.09.608,IAT(Formal),2021.2.3,Win32,60.0240096,,,,,,,,,,,,,,,,,,,,,,,,,,,,,,,,,,,,,,,,,,,,,,,,,,,,其他,e,,,e,1,0.945,1,74,154,59,1,,
,,,,,,,,,,,,,,1,001,2024-08-25_17h06.09.608,IAT(Formal),2021.2.3,Win32,60.0240096,,,,,,,,,,,,,,,,,,,,,,,,,,,,,,,,,,,,,,,,,,,,,,,,,,,,他,e,,,e,1,0.484,1,75,155,65,1,,
,,,,,,,,,,,,,,1,001,2024-08-25_17h06.09.608,IAT(Formal),2021.2.3,Win32,60.0240096,,,,,,,,,,,,,,,,,,,,,,,,,,,,,,,,,,,,,,,,,,,,,,,,,,,,愚蠢,i,,,i,1,0.866,1,76,156,32,1,,
,,,,,,,,,,,,,,1,001,2024-08-25_17h06.09.608,IAT(Formal),2021.2.3,Win32,60.0240096,,,,,,,,,,,,,,,,,,,,,,,,,,,,,,,,,,,,,,,,,,,,,,,,,,,,他,e,,,e,1,0.651,1,77,157,5,1,,
,,,,,,,,,,,,,,1,001,2024-08-25_17h06.09.608,IAT(Formal),2021.2.3,Win32,60.0240096,,,,,,,,,,,,,,,,,,,,,,,,,,,,,,,,,,,,,,,,,,,,,,,,,,,,俺,i,,,i,1,1.206,1,78,158,64,1,,
,,,,,,,,,,,,,,1,001,2024-08-25_17h06.09.608,IAT(Formal),2021.2.3,Win32,60.0240096,,,,,,,,,,,,,,,,,,,,,,,,,,,,,,,,,,,,,,,,,,,,,,,,,,,,他们,e,,,e,1,0.728,1,79,159,66,1,,
,,,,,,,,,,,,,,1,001,2024-08-25_17h06.09.608,IAT(Formal),2021.2.3,Win32,60.0240096,,,,,,,,,,,,,,,,,,,,,,,,,,,,,,,,,,,,,,,,,,,,,,,,,,,,,,,,,,,,,,,,space,2.196