﻿Instruction1.keys,Instruction1.rt,Instruction2.keys,Instruction2.rt,key_resp_iso.keys,key_resp_iso.corr,Practice_01.thisRepN,Practice_01.thisTrialN,Practice_01.thisN,Practice_01.thisIndex,Practice_01.ran,Words,ans,participant,session,date,expName,psychopyVersion,OS,frameRate,key_resp_iso.rt,key_resp_3.keys,key_resp_3.rt,key_resp_ipn.keys,key_resp_ipn.corr,Practice_02.thisRepN,Practice_02.thisTrialN,Practice_02.thisN,Practice_02.thisIndex,Practice_02.ran,Words_ipn,ans_ipn,key_resp_ipn.rt,key_resp_4.keys,key_resp_4.rt,key_resp_t1.keys,key_resp_t1.corr,key_resp_t1.rt,Practice_T1.thisRepN,Practice_T1.thisTrialN,Practice_T1.thisN,Practice_T1.thisIndex,Practice_T1.ran,Words_t1,ans_t1,key_resp_5.keys,key_resp_5.rt,Formal_T1.thisRepN,Formal_T1.thisTrialN,Formal_T1.thisN,Formal_T1.thisIndex,Formal_T1.ran,key_resp_6.keys,key_resp_6.rt,key_resp_iso_reverse.keys,key_resp_iso_reverse.corr,key_resp_iso_reverse.rt,Practice_iso_Reverse.thisRepN,Practice_iso_Reverse.thisTrialN,Practice_iso_Reverse.thisN,Practice_iso_Reverse.thisIndex,Practice_iso_Reverse.ran,key_resp_7.keys,key_resp_7.rt,key_resp_t2_Practice.keys,key_resp_t2_Practice.corr,Practice_t2_Reverse.thisRepN,Practice_t2_Reverse.thisTrialN,Practice_t2_Reverse.thisN,Practice_t2_Reverse.thisIndex,Practice_t2_Reverse.ran,Words_t2,ans_t2,key_resp_t2_Practice.rt,key_resp_8.keys,key_resp_8.rt,key_resp_t2.keys,key_resp_t2.corr,key_resp_t2.rt,Formal_t2_reverse.thisRepN,Formal_t2_reverse.thisTrialN,Formal_t2_reverse.thisN,Formal_t2_reverse.thisIndex,Formal_t2_reverse.ran,key_instruct.keys,key_instruct.rt
space,11.718,space,37.8355,,0,0,0,0,6,1,他们,i,1,001,2024-08-25_22h04.39.309,IAT(Formal),2021.2.3,Win32,59.88023952,,,,,,,,,,,,,,,,,,,,,,,,,,,,,,,,,,,,,,,,,,,,,,,,,,,,,,,,,,,,,,,,,,
,,,,,0,0,1,1,2,1,我们,e,1,001,2024-08-25_22h04.39.309,IAT(Formal),2021.2.3,Win32,59.88023952,,,,,,,,,,,,,,,,,,,,,,,,,,,,,,,,,,,,,,,,,,,,,,,,,,,,,,,,,,,,,,,,,,
,,,,,0,0,2,2,1,1,我的,e,1,001,2024-08-25_22h04.39.309,IAT(Formal),2021.2.3,Win32,59.88023952,,,,,,,,,,,,,,,,,,,,,,,,,,,,,,,,,,,,,,,,,,,,,,,,,,,,,,,,,,,,,,,,,,
,,,,,0,0,3,3,3,1,自己,e,1,001,2024-08-25_22h04.39.309,IAT(Formal),2021.2.3,Win32,59.88023952,,,,,,,,,,,,,,,,,,,,,,,,,,,,,,,,,,,,,,,,,,,,,,,,,,,,,,,,,,,,,,,,,,
,,,,,0,0,4,4,8,1,他人,i,1,001,2024-08-25_22h04.39.309,IAT(Formal),2021.2.3,Win32,59.88023952,,,,,,,,,,,,,,,,,,,,,,,,,,,,,,,,,,,,,,,,,,,,,,,,,,,,,,,,,,,,,,,,,,
,,,,i,0,0,5,5,4,1,俺,e,1,001,2024-08-25_22h04.39.309,IAT(Formal),2021.2.3,Win32,59.88023952,0.3847,,,,,,,,,,,,,,,,,,,,,,,,,,,,,,,,,,,,,,,,,,,,,,,,,,,,,,,,,,,,,,,,,
,,,,i,1,0,6,6,5,1,他,i,1,001,2024-08-25_22h04.39.309,IAT(Formal),2021.2.3,Win32,59.88023952,0.9192,,,,,,,,,,,,,,,,,,,,,,,,,,,,,,,,,,,,,,,,,,,,,,,,,,,,,,,,,,,,,,,,,
,,,,i,1,0,7,7,9,1,其他,i,1,001,2024-08-25_22h04.39.309,IAT(Formal),2021.2.3,Win32,59.88023952,1.1077,,,,,,,,,,,,,,,,,,,,,,,,,,,,,,,,,,,,,,,,,,,,,,,,,,,,,,,,,,,,,,,,,
,,,,i,1,0,8,8,7,1,他的,i,1,001,2024-08-25_22h04.39.309,IAT(Formal),2021.2.3,Win32,59.88023952,0.7894,,,,,,,,,,,,,,,,,,,,,,,,,,,,,,,,,,,,,,,,,,,,,,,,,,,,,,,,,,,,,,,,,
,,,,e,1,0,9,9,0,1,我,e,1,001,2024-08-25_22h04.39.309,IAT(Formal),2021.2.3,Win32,59.88023952,1.143,,,,,,,,,,,,,,,,,,,,,,,,,,,,,,,,,,,,,,,,,,,,,,,,,,,,,,,,,,,,,,,,,
,,,,,,,,,,,,,1,001,2024-08-25_22h04.39.309,IAT(Formal),2021.2.3,Win32,59.88023952,,space,15.1053,,0,0,0,0,4,1,乐观,e,,,,,,,,,,,,,,,,,,,,,,,,,,,,,,,,,,,,,,,,,,,,,,,,,,,,,,
,,,,,,,,,,,,,1,001,2024-08-25_22h04.39.309,IAT(Formal),2021.2.3,Win32,59.88023952,,,,i,1,0,1,1,20,1,卑鄙,i,0.9338,,,,,,,,,,,,,,,,,,,,,,,,,,,,,,,,,,,,,,,,,,,,,,,,,,,,,
,,,,,,,,,,,,,1,001,2024-08-25_22h04.39.309,IAT(Formal),2021.2.3,Win32,59.88023952,,,,e,1,0,2,2,8,1,勤奋,e,0.8724,,,,,,,,,,,,,,,,,,,,,,,,,,,,,,,,,,,,,,,,,,,,,,,,,,,,,
,,,,,,,,,,,,,1,001,2024-08-25_22h04.39.309,IAT(Formal),2021.2.3,Win32,59.88023952,,,,e,1,0,3,3,15,1,细腻,e,1.1051,,,,,,,,,,,,,,,,,,,,,,,,,,,,,,,,,,,,,,,,,,,,,,,,,,,,,
,,,,,,,,,,,,,1,001,2024-08-25_22h04.39.309,IAT(Formal),2021.2.3,Win32,59.88023952,,,,i,1,0,4,4,21,1,虚伪,i,1.1114,,,,,,,,,,,,,,,,,,,,,,,,,,,,,,,,,,,,,,,,,,,,,,,,,,,,,
,,,,,,,,,,,,,1,001,2024-08-25_22h04.39.309,IAT(Formal),2021.2.3,Win32,59.88023952,,,,i,1,0,5,5,35,1,猖狂,i,1.2933,,,,,,,,,,,,,,,,,,,,,,,,,,,,,,,,,,,,,,,,,,,,,,,,,,,,,
,,,,,,,,,,,,,1,001,2024-08-25_22h04.39.309,IAT(Formal),2021.2.3,Win32,59.88023952,,,,i,1,0,6,6,25,1,消极,i,1.2013,,,,,,,,,,,,,,,,,,,,,,,,,,,,,,,,,,,,,,,,,,,,,,,,,,,,,
,,,,,,,,,,,,,1,001,2024-08-25_22h04.39.309,IAT(Formal),2021.2.3,Win32,59.88023952,,,,e,0,0,7,7,37,1,固执,i,1.3559,,,,,,,,,,,,,,,,,,,,,,,,,,,,,,,,,,,,,,,,,,,,,,,,,,,,,
,,,,,,,,,,,,,1,001,2024-08-25_22h04.39.309,IAT(Formal),2021.2.3,Win32,59.88023952,,,,e,1,0,8,8,19,1,诚恳,e,1.0723,,,,,,,,,,,,,,,,,,,,,,,,,,,,,,,,,,,,,,,,,,,,,,,,,,,,,
,,,,,,,,,,,,,1,001,2024-08-25_22h04.39.309,IAT(Formal),2021.2.3,Win32,59.88023952,,,,e,1,0,9,9,2,1,聪明,e,0.9737,,,,,,,,,,,,,,,,,,,,,,,,,,,,,,,,,,,,,,,,,,,,,,,,,,,,,
,,,,,,,,,,,,,1,001,2024-08-25_22h04.39.309,IAT(Formal),2021.2.3,Win32,59.88023952,,,,e,1,0,10,10,9,1,机智,e,0.9419,,,,,,,,,,,,,,,,,,,,,,,,,,,,,,,,,,,,,,,,,,,,,,,,,,,,,
,,,,,,,,,,,,,1,001,2024-08-25_22h04.39.309,IAT(Formal),2021.2.3,Win32,59.88023952,,,,i,1,0,11,11,26,1,自卑,i,1.004,,,,,,,,,,,,,,,,,,,,,,,,,,,,,,,,,,,,,,,,,,,,,,,,,,,,,
,,,,,,,,,,,,,1,001,2024-08-25_22h04.39.309,IAT(Formal),2021.2.3,Win32,59.88023952,,,,i,1,0,12,12,23,1,刻薄,i,1.0186,,,,,,,,,,,,,,,,,,,,,,,,,,,,,,,,,,,,,,,,,,,,,,,,,,,,,
,,,,,,,,,,,,,1,001,2024-08-25_22h04.39.309,IAT(Formal),2021.2.3,Win32,59.88023952,,,,e,1,0,13,13,6,1,正直,e,0.8572,,,,,,,,,,,,,,,,,,,,,,,,,,,,,,,,,,,,,,,,,,,,,,,,,,,,,
,,,,,,,,,,,,,1,001,2024-08-25_22h04.39.309,IAT(Formal),2021.2.3,Win32,59.88023952,,,,e,1,0,14,14,7,1,勇敢,e,1.4201,,,,,,,,,,,,,,,,,,,,,,,,,,,,,,,,,,,,,,,,,,,,,,,,,,,,,
,,,,,,,,,,,,,1,001,2024-08-25_22h04.39.309,IAT(Formal),2021.2.3,Win32,59.88023952,,,,,0,0,15,15,30,1,执拗,i,,,,,,,,,,,,,,,,,,,,,,,,,,,,,,,,,,,,,,,,,,,,,,,,,,,,,,
,,,,,,,,,,,,,1,001,2024-08-25_22h04.39.309,IAT(Formal),2021.2.3,Win32,59.88023952,,,,i,1,0,16,16,38,1,轻率,i,1.3015,,,,,,,,,,,,,,,,,,,,,,,,,,,,,,,,,,,,,,,,,,,,,,,,,,,,,
,,,,,,,,,,,,,1,001,2024-08-25_22h04.39.309,IAT(Formal),2021.2.3,Win32,59.88023952,,,,i,1,0,17,17,24,1,悲观,i,1.0086,,,,,,,,,,,,,,,,,,,,,,,,,,,,,,,,,,,,,,,,,,,,,,,,,,,,,
,,,,,,,,,,,,,1,001,2024-08-25_22h04.39.309,IAT(Formal),2021.2.3,Win32,59.88023952,,,,i,1,0,18,18,27,1,傲慢,i,0.9348,,,,,,,,,,,,,,,,,,,,,,,,,,,,,,,,,,,,,,,,,,,,,,,,,,,,,
,,,,,,,,,,,,,1,001,2024-08-25_22h04.39.309,IAT(Formal),2021.2.3,Win32,59.88023952,,,,e,1,0,19,19,18,1,活泼,e,0.8505,,,,,,,,,,,,,,,,,,,,,,,,,,,,,,,,,,,,,,,,,,,,,,,,,,,,,
,,,,,,,,,,,,,1,001,2024-08-25_22h04.39.309,IAT(Formal),2021.2.3,Win32,59.88023952,,,,i,1,0,20,20,22,1,愚蠢,i,0.9697,,,,,,,,,,,,,,,,,,,,,,,,,,,,,,,,,,,,,,,,,,,,,,,,,,,,,
,,,,,,,,,,,,,1,001,2024-08-25_22h04.39.309,IAT(Formal),2021.2.3,Win32,59.88023952,,,,e,1,0,21,21,0,1,优秀,e,0.9239,,,,,,,,,,,,,,,,,,,,,,,,,,,,,,,,,,,,,,,,,,,,,,,,,,,,,
,,,,,,,,,,,,,1,001,2024-08-25_22h04.39.309,IAT(Formal),2021.2.3,Win32,59.88023952,,,,i,1,0,22,22,33,1,自私,i,0.9519,,,,,,,,,,,,,,,,,,,,,,,,,,,,,,,,,,,,,,,,,,,,,,,,,,,,,
,,,,,,,,,,,,,1,001,2024-08-25_22h04.39.309,IAT(Formal),2021.2.3,Win32,59.88023952,,,,i,1,0,23,23,31,1,散漫,i,0.8917,,,,,,,,,,,,,,,,,,,,,,,,,,,,,,,,,,,,,,,,,,,,,,,,,,,,,
,,,,,,,,,,,,,1,001,2024-08-25_22h04.39.309,IAT(Formal),2021.2.3,Win32,59.88023952,,,,,0,0,24,24,16,1,冷静,e,,,,,,,,,,,,,,,,,,,,,,,,,,,,,,,,,,,,,,,,,,,,,,,,,,,,,,
,,,,,,,,,,,,,1,001,2024-08-25_22h04.39.309,IAT(Formal),2021.2.3,Win32,59.88023952,,,,e,1,0,25,25,11,1,稳重,e,0.9175,,,,,,,,,,,,,,,,,,,,,,,,,,,,,,,,,,,,,,,,,,,,,,,,,,,,,
,,,,,,,,,,,,,1,001,2024-08-25_22h04.39.309,IAT(Formal),2021.2.3,Win32,59.88023952,,,,i,1,0,26,26,29,1,冒失,i,0.9408,,,,,,,,,,,,,,,,,,,,,,,,,,,,,,,,,,,,,,,,,,,,,,,,,,,,,
,,,,,,,,,,,,,1,001,2024-08-25_22h04.39.309,IAT(Formal),2021.2.3,Win32,59.88023952,,,,i,1,0,27,27,39,1,下贱,i,0.8561,,,,,,,,,,,,,,,,,,,,,,,,,,,,,,,,,,,,,,,,,,,,,,,,,,,,,
,,,,,,,,,,,,,1,001,2024-08-25_22h04.39.309,IAT(Formal),2021.2.3,Win32,59.88023952,,,,i,1,0,28,28,28,1,鲁莽,i,1.0856,,,,,,,,,,,,,,,,,,,,,,,,,,,,,,,,,,,,,,,,,,,,,,,,,,,,,
,,,,,,,,,,,,,1,001,2024-08-25_22h04.39.309,IAT(Formal),2021.2.3,Win32,59.88023952,,,,e,1,0,29,29,14,1,朴实,e,1.1508,,,,,,,,,,,,,,,,,,,,,,,,,,,,,,,,,,,,,,,,,,,,,,,,,,,,,
,,,,,,,,,,,,,1,001,2024-08-25_22h04.39.309,IAT(Formal),2021.2.3,Win32,59.88023952,,,,e,1,0,30,30,12,1,无私,e,1.2089,,,,,,,,,,,,,,,,,,,,,,,,,,,,,,,,,,,,,,,,,,,,,,,,,,,,,
,,,,,,,,,,,,,1,001,2024-08-25_22h04.39.309,IAT(Formal),2021.2.3,Win32,59.88023952,,,,e,1,0,31,31,17,1,热情,e,0.9365,,,,,,,,,,,,,,,,,,,,,,,,,,,,,,,,,,,,,,,,,,,,,,,,,,,,,
,,,,,,,,,,,,,1,001,2024-08-25_22h04.39.309,IAT(Formal),2021.2.3,Win32,59.88023952,,,,i,1,0,32,32,32,1,凶狠,i,1.0059,,,,,,,,,,,,,,,,,,,,,,,,,,,,,,,,,,,,,,,,,,,,,,,,,,,,,
,,,,,,,,,,,,,1,001,2024-08-25_22h04.39.309,IAT(Formal),2021.2.3,Win32,59.88023952,,,,e,1,0,33,33,1,1,崇高,e,0.8586,,,,,,,,,,,,,,,,,,,,,,,,,,,,,,,,,,,,,,,,,,,,,,,,,,,,,
,,,,,,,,,,,,,1,001,2024-08-25_22h04.39.309,IAT(Formal),2021.2.3,Win32,59.88023952,,,,e,1,0,34,34,13,1,公正,e,0.8746,,,,,,,,,,,,,,,,,,,,,,,,,,,,,,,,,,,,,,,,,,,,,,,,,,,,,
,,,,,,,,,,,,,1,001,2024-08-25_22h04.39.309,IAT(Formal),2021.2.3,Win32,59.88023952,,,,e,1,0,35,35,10,1,认真,e,0.8015,,,,,,,,,,,,,,,,,,,,,,,,,,,,,,,,,,,,,,,,,,,,,,,,,,,,,
,,,,,,,,,,,,,1,001,2024-08-25_22h04.39.309,IAT(Formal),2021.2.3,Win32,59.88023952,,,,e,1,0,36,36,3,1,杰出,e,0.9739,,,,,,,,,,,,,,,,,,,,,,,,,,,,,,,,,,,,,,,,,,,,,,,,,,,,,
,,,,,,,,,,,,,1,001,2024-08-25_22h04.39.309,IAT(Formal),2021.2.3,Win32,59.88023952,,,,i,1,0,37,37,34,1,暴躁,i,0.9695,,,,,,,,,,,,,,,,,,,,,,,,,,,,,,,,,,,,,,,,,,,,,,,,,,,,,
,,,,,,,,,,,,,1,001,2024-08-25_22h04.39.309,IAT(Formal),2021.2.3,Win32,59.88023952,,,,e,1,0,38,38,5,1,诚实,e,0.7688,,,,,,,,,,,,,,,,,,,,,,,,,,,,,,,,,,,,,,,,,,,,,,,,,,,,,
,,,,,,,,,,,,,1,001,2024-08-25_22h04.39.309,IAT(Formal),2021.2.3,Win32,59.88023952,,,,i,1,0,39,39,36,1,野蛮,i,1.055,,,,,,,,,,,,,,,,,,,,,,,,,,,,,,,,,,,,,,,,,,,,,,,,,,,,,
,,,,,,,,,,,,,1,001,2024-08-25_22h04.39.309,IAT(Formal),2021.2.3,Win32,59.88023952,,,,,,,,,,,,,,space,10.1348,e,1,1.0424,0,0,0,16,1,正直,e,,,,,,,,,,,,,,,,,,,,,,,,,,,,,,,,,,,,,,,,,
,,,,,,,,,,,,,1,001,2024-08-25_22h04.39.309,IAT(Formal),2021.2.3,Win32,59.88023952,,,,,,,,,,,,,,,,i,1,1.0959,0,1,1,39,1,冒失,i,,,,,,,,,,,,,,,,,,,,,,,,,,,,,,,,,,,,,,,,,
,,,,,,,,,,,,,1,001,2024-08-25_22h04.39.309,IAT(Formal),2021.2.3,Win32,59.88023952,,,,,,,,,,,,,,,,e,1,1.0166,0,2,2,50,1,我,e,,,,,,,,,,,,,,,,,,,,,,,,,,,,,,,,,,,,,,,,,
,,,,,,,,,,,,,1,001,2024-08-25_22h04.39.309,IAT(Formal),2021.2.3,Win32,59.88023952,,,,,,,,,,,,,,,,e,1,0.8508,0,3,3,51,1,我的,e,,,,,,,,,,,,,,,,,,,,,,,,,,,,,,,,,,,,,,,,,
,,,,,,,,,,,,,1,001,2024-08-25_22h04.39.309,IAT(Formal),2021.2.3,Win32,59.88023952,,,,,,,,,,,,,,,,i,1,0.8651,0,4,4,59,1,其他,i,,,,,,,,,,,,,,,,,,,,,,,,,,,,,,,,,,,,,,,,,
,,,,,,,,,,,,,1,001,2024-08-25_22h04.39.309,IAT(Formal),2021.2.3,Win32,59.88023952,,,,,,,,,,,,,,,,e,1,0.9878,0,5,5,23,1,公正,e,,,,,,,,,,,,,,,,,,,,,,,,,,,,,,,,,,,,,,,,,
,,,,,,,,,,,,,1,001,2024-08-25_22h04.39.309,IAT(Formal),2021.2.3,Win32,59.88023952,,,,,,,,,,,,,,,,i,1,0.9021,0,6,6,31,1,虚伪,i,,,,,,,,,,,,,,,,,,,,,,,,,,,,,,,,,,,,,,,,,
,,,,,,,,,,,,,1,001,2024-08-25_22h04.39.309,IAT(Formal),2021.2.3,Win32,59.88023952,,,,,,,,,,,,,,,,i,1,0.9126,0,7,7,55,1,他,i,,,,,,,,,,,,,,,,,,,,,,,,,,,,,,,,,,,,,,,,,
,,,,,,,,,,,,,1,001,2024-08-25_22h04.39.309,IAT(Formal),2021.2.3,Win32,59.88023952,,,,,,,,,,,,,,,,e,1,0.852,0,8,8,10,1,优秀,e,,,,,,,,,,,,,,,,,,,,,,,,,,,,,,,,,,,,,,,,,
,,,,,,,,,,,,,1,001,2024-08-25_22h04.39.309,IAT(Formal),2021.2.3,Win32,59.88023952,,,,,,,,,,,,,,,,i,1,0.8982,0,9,9,8,1,他人,i,,,,,,,,,,,,,,,,,,,,,,,,,,,,,,,,,,,,,,,,,
,,,,,,,,,,,,,1,001,2024-08-25_22h04.39.309,IAT(Formal),2021.2.3,Win32,59.88023952,,,,,,,,,,,,,,,,i,1,1.1497,0,10,10,37,1,傲慢,i,,,,,,,,,,,,,,,,,,,,,,,,,,,,,,,,,,,,,,,,,
,,,,,,,,,,,,,1,001,2024-08-25_22h04.39.309,IAT(Formal),2021.2.3,Win32,59.88023952,,,,,,,,,,,,,,,,e,1,0.877,0,11,11,14,1,乐观,e,,,,,,,,,,,,,,,,,,,,,,,,,,,,,,,,,,,,,,,,,
,,,,,,,,,,,,,1,001,2024-08-25_22h04.39.309,IAT(Formal),2021.2.3,Win32,59.88023952,,,,,,,,,,,,,,,,e,1,0.914,0,12,12,13,1,杰出,e,,,,,,,,,,,,,,,,,,,,,,,,,,,,,,,,,,,,,,,,,
,,,,,,,,,,,,,1,001,2024-08-25_22h04.39.309,IAT(Formal),2021.2.3,Win32,59.88023952,,,,,,,,,,,,,,,,e,1,0.8165,0,13,13,20,1,认真,e,,,,,,,,,,,,,,,,,,,,,,,,,,,,,,,,,,,,,,,,,
,,,,,,,,,,,,,1,001,2024-08-25_22h04.39.309,IAT(Formal),2021.2.3,Win32,59.88023952,,,,,,,,,,,,,,,,e,1,1.0506,0,14,14,54,1,俺,e,,,,,,,,,,,,,,,,,,,,,,,,,,,,,,,,,,,,,,,,,
,,,,,,,,,,,,,1,001,2024-08-25_22h04.39.309,IAT(Formal),2021.2.3,Win32,59.88023952,,,,,,,,,,,,,,,,i,1,0.9625,0,15,15,34,1,悲观,i,,,,,,,,,,,,,,,,,,,,,,,,,,,,,,,,,,,,,,,,,
,,,,,,,,,,,,,1,001,2024-08-25_22h04.39.309,IAT(Formal),2021.2.3,Win32,59.88023952,,,,,,,,,,,,,,,,i,1,0.7772,0,16,16,32,1,愚蠢,i,,,,,,,,,,,,,,,,,,,,,,,,,,,,,,,,,,,,,,,,,
,,,,,,,,,,,,,1,001,2024-08-25_22h04.39.309,IAT(Formal),2021.2.3,Win32,59.88023952,,,,,,,,,,,,,,,,e,1,0.8845,0,17,17,62,1,我们,e,,,,,,,,,,,,,,,,,,,,,,,,,,,,,,,,,,,,,,,,,
,,,,,,,,,,,,,1,001,2024-08-25_22h04.39.309,IAT(Formal),2021.2.3,Win32,59.88023952,,,,,,,,,,,,,,,,i,1,0.9657,0,18,18,56,1,他们,i,,,,,,,,,,,,,,,,,,,,,,,,,,,,,,,,,,,,,,,,,
,,,,,,,,,,,,,1,001,2024-08-25_22h04.39.309,IAT(Formal),2021.2.3,Win32,59.88023952,,,,,,,,,,,,,,,,e,1,0.8471,0,19,19,25,1,细腻,e,,,,,,,,,,,,,,,,,,,,,,,,,,,,,,,,,,,,,,,,,
,,,,,,,,,,,,,1,001,2024-08-25_22h04.39.309,IAT(Formal),2021.2.3,Win32,59.88023952,,,,,,,,,,,,,,,,e,1,0.9673,0,20,20,1,1,我的,e,,,,,,,,,,,,,,,,,,,,,,,,,,,,,,,,,,,,,,,,,
,,,,,,,,,,,,,1,001,2024-08-25_22h04.39.309,IAT(Formal),2021.2.3,Win32,59.88023952,,,,,,,,,,,,,,,,i,1,0.8507,0,21,21,69,1,其他,i,,,,,,,,,,,,,,,,,,,,,,,,,,,,,,,,,,,,,,,,,
,,,,,,,,,,,,,1,001,2024-08-25_22h04.39.309,IAT(Formal),2021.2.3,Win32,59.88023952,,,,,,,,,,,,,,,,i,1,1.4575,0,22,22,45,1,猖狂,i,,,,,,,,,,,,,,,,,,,,,,,,,,,,,,,,,,,,,,,,,
,,,,,,,,,,,,,1,001,2024-08-25_22h04.39.309,IAT(Formal),2021.2.3,Win32,59.88023952,,,,,,,,,,,,,,,,i,1,0.9333,0,23,23,58,1,他人,i,,,,,,,,,,,,,,,,,,,,,,,,,,,,,,,,,,,,,,,,,
,,,,,,,,,,,,,1,001,2024-08-25_22h04.39.309,IAT(Formal),2021.2.3,Win32,59.88023952,,,,,,,,,,,,,,,,e,1,0.8675,0,24,24,3,1,自己,e,,,,,,,,,,,,,,,,,,,,,,,,,,,,,,,,,,,,,,,,,
,,,,,,,,,,,,,1,001,2024-08-25_22h04.39.309,IAT(Formal),2021.2.3,Win32,59.88023952,,,,,,,,,,,,,,,,e,1,1.1945,0,25,25,22,1,无私,e,,,,,,,,,,,,,,,,,,,,,,,,,,,,,,,,,,,,,,,,,
,,,,,,,,,,,,,1,001,2024-08-25_22h04.39.309,IAT(Formal),2021.2.3,Win32,59.88023952,,,,,,,,,,,,,,,,e,1,0.8315,0,26,26,0,1,我,e,,,,,,,,,,,,,,,,,,,,,,,,,,,,,,,,,,,,,,,,,
,,,,,,,,,,,,,1,001,2024-08-25_22h04.39.309,IAT(Formal),2021.2.3,Win32,59.88023952,,,,,,,,,,,,,,,,i,1,0.782,0,27,27,66,1,他们,i,,,,,,,,,,,,,,,,,,,,,,,,,,,,,,,,,,,,,,,,,
,,,,,,,,,,,,,1,001,2024-08-25_22h04.39.309,IAT(Formal),2021.2.3,Win32,59.88023952,,,,,,,,,,,,,,,,e,1,0.8516,0,28,28,70,1,我,e,,,,,,,,,,,,,,,,,,,,,,,,,,,,,,,,,,,,,,,,,
,,,,,,,,,,,,,1,001,2024-08-25_22h04.39.309,IAT(Formal),2021.2.3,Win32,59.88023952,,,,,,,,,,,,,,,,e,1,0.8232,0,29,29,12,1,聪明,e,,,,,,,,,,,,,,,,,,,,,,,,,,,,,,,,,,,,,,,,,
,,,,,,,,,,,,,1,001,2024-08-25_22h04.39.309,IAT(Formal),2021.2.3,Win32,59.88023952,,,,,,,,,,,,,,,,i,1,1.1093,0,30,30,33,1,刻薄,i,,,,,,,,,,,,,,,,,,,,,,,,,,,,,,,,,,,,,,,,,
,,,,,,,,,,,,,1,001,2024-08-25_22h04.39.309,IAT(Formal),2021.2.3,Win32,59.88023952,,,,,,,,,,,,,,,,e,1,0.7849,0,31,31,24,1,朴实,e,,,,,,,,,,,,,,,,,,,,,,,,,,,,,,,,,,,,,,,,,
,,,,,,,,,,,,,1,001,2024-08-25_22h04.39.309,IAT(Formal),2021.2.3,Win32,59.88023952,,,,,,,,,,,,,,,,i,1,0.966,0,32,32,6,1,他们,i,,,,,,,,,,,,,,,,,,,,,,,,,,,,,,,,,,,,,,,,,
,,,,,,,,,,,,,1,001,2024-08-25_22h04.39.309,IAT(Formal),2021.2.3,Win32,59.88023952,,,,,,,,,,,,,,,,e,1,0.8747,0,33,33,29,1,诚恳,e,,,,,,,,,,,,,,,,,,,,,,,,,,,,,,,,,,,,,,,,,
,,,,,,,,,,,,,1,001,2024-08-25_22h04.39.309,IAT(Formal),2021.2.3,Win32,59.88023952,,,,,,,,,,,,,,,,e,1,0.7712,0,34,34,73,1,自己,e,,,,,,,,,,,,,,,,,,,,,,,,,,,,,,,,,,,,,,,,,
,,,,,,,,,,,,,1,001,2024-08-25_22h04.39.309,IAT(Formal),2021.2.3,Win32,59.88023952,,,,,,,,,,,,,,,,i,1,0.8165,0,35,35,68,1,他人,i,,,,,,,,,,,,,,,,,,,,,,,,,,,,,,,,,,,,,,,,,
,,,,,,,,,,,,,1,001,2024-08-25_22h04.39.309,IAT(Formal),2021.2.3,Win32,59.88023952,,,,,,,,,,,,,,,,e,1,0.7994,0,36,36,71,1,我的,e,,,,,,,,,,,,,,,,,,,,,,,,,,,,,,,,,,,,,,,,,
,,,,,,,,,,,,,1,001,2024-08-25_22h04.39.309,IAT(Formal),2021.2.3,Win32,59.88023952,,,,,,,,,,,,,,,,e,1,0.836,0,37,37,21,1,稳重,e,,,,,,,,,,,,,,,,,,,,,,,,,,,,,,,,,,,,,,,,,
,,,,,,,,,,,,,1,001,2024-08-25_22h04.39.309,IAT(Formal),2021.2.3,Win32,59.88023952,,,,,,,,,,,,,,,,e,1,0.8045,0,38,38,63,1,自己,e,,,,,,,,,,,,,,,,,,,,,,,,,,,,,,,,,,,,,,,,,
,,,,,,,,,,,,,1,001,2024-08-25_22h04.39.309,IAT(Formal),2021.2.3,Win32,59.88023952,,,,,,,,,,,,,,,,e,1,0.8226,0,39,39,64,1,俺,e,,,,,,,,,,,,,,,,,,,,,,,,,,,,,,,,,,,,,,,,,
,,,,,,,,,,,,,1,001,2024-08-25_22h04.39.309,IAT(Formal),2021.2.3,Win32,59.88023952,,,,,,,,,,,,,,,,e,1,0.8185,0,40,40,52,1,我们,e,,,,,,,,,,,,,,,,,,,,,,,,,,,,,,,,,,,,,,,,,
,,,,,,,,,,,,,1,001,2024-08-25_22h04.39.309,IAT(Formal),2021.2.3,Win32,59.88023952,,,,,,,,,,,,,,,,i,1,0.8567,0,41,41,41,1,散漫,i,,,,,,,,,,,,,,,,,,,,,,,,,,,,,,,,,,,,,,,,,
,,,,,,,,,,,,,1,001,2024-08-25_22h04.39.309,IAT(Formal),2021.2.3,Win32,59.88023952,,,,,,,,,,,,,,,,e,1,1.1845,0,42,42,53,1,自己,e,,,,,,,,,,,,,,,,,,,,,,,,,,,,,,,,,,,,,,,,,
,,,,,,,,,,,,,1,001,2024-08-25_22h04.39.309,IAT(Formal),2021.2.3,Win32,59.88023952,,,,,,,,,,,,,,,,i,1,0.9394,0,43,43,42,1,凶狠,i,,,,,,,,,,,,,,,,,,,,,,,,,,,,,,,,,,,,,,,,,
,,,,,,,,,,,,,1,001,2024-08-25_22h04.39.309,IAT(Formal),2021.2.3,Win32,59.88023952,,,,,,,,,,,,,,,,i,1,1.0851,0,44,44,75,1,他,i,,,,,,,,,,,,,,,,,,,,,,,,,,,,,,,,,,,,,,,,,
,,,,,,,,,,,,,1,001,2024-08-25_22h04.39.309,IAT(Formal),2021.2.3,Win32,59.88023952,,,,,,,,,,,,,,,,i,1,0.7889,0,45,45,7,1,他的,i,,,,,,,,,,,,,,,,,,,,,,,,,,,,,,,,,,,,,,,,,
,,,,,,,,,,,,,1,001,2024-08-25_22h04.39.309,IAT(Formal),2021.2.3,Win32,59.88023952,,,,,,,,,,,,,,,,i,1,0.9075,0,46,46,36,1,自卑,i,,,,,,,,,,,,,,,,,,,,,,,,,,,,,,,,,,,,,,,,,
,,,,,,,,,,,,,1,001,2024-08-25_22h04.39.309,IAT(Formal),2021.2.3,Win32,59.88023952,,,,,,,,,,,,,,,,i,1,0.7358,0,47,47,49,1,下贱,i,,,,,,,,,,,,,,,,,,,,,,,,,,,,,,,,,,,,,,,,,
,,,,,,,,,,,,,1,001,2024-08-25_22h04.39.309,IAT(Formal),2021.2.3,Win32,59.88023952,,,,,,,,,,,,,,,,e,1,1.0409,0,48,48,18,1,勤奋,e,,,,,,,,,,,,,,,,,,,,,,,,,,,,,,,,,,,,,,,,,
,,,,,,,,,,,,,1,001,2024-08-25_22h04.39.309,IAT(Formal),2021.2.3,Win32,59.88023952,,,,,,,,,,,,,,,,e,1,0.8562,0,49,49,60,1,我,e,,,,,,,,,,,,,,,,,,,,,,,,,,,,,,,,,,,,,,,,,
,,,,,,,,,,,,,1,001,2024-08-25_22h04.39.309,IAT(Formal),2021.2.3,Win32,59.88023952,,,,,,,,,,,,,,,,e,1,0.9852,0,50,50,15,1,诚实,e,,,,,,,,,,,,,,,,,,,,,,,,,,,,,,,,,,,,,,,,,
,,,,,,,,,,,,,1,001,2024-08-25_22h04.39.309,IAT(Formal),2021.2.3,Win32,59.88023952,,,,,,,,,,,,,,,,,0,,0,51,51,47,1,固执,i,,,,,,,,,,,,,,,,,,,,,,,,,,,,,,,,,,,,,,,,,
,,,,,,,,,,,,,1,001,2024-08-25_22h04.39.309,IAT(Formal),2021.2.3,Win32,59.88023952,,,,,,,,,,,,,,,,i,1,1.1381,0,52,52,57,1,他的,i,,,,,,,,,,,,,,,,,,,,,,,,,,,,,,,,,,,,,,,,,
,,,,,,,,,,,,,1,001,2024-08-25_22h04.39.309,IAT(Formal),2021.2.3,Win32,59.88023952,,,,,,,,,,,,,,,,i,1,0.7395,0,53,53,5,1,他,i,,,,,,,,,,,,,,,,,,,,,,,,,,,,,,,,,,,,,,,,,
,,,,,,,,,,,,,1,001,2024-08-25_22h04.39.309,IAT(Formal),2021.2.3,Win32,59.88023952,,,,,,,,,,,,,,,,i,1,0.8562,0,54,54,44,1,暴躁,i,,,,,,,,,,,,,,,,,,,,,,,,,,,,,,,,,,,,,,,,,
,,,,,,,,,,,,,1,001,2024-08-25_22h04.39.309,IAT(Formal),2021.2.3,Win32,59.88023952,,,,,,,,,,,,,,,,e,1,0.9415,0,55,55,19,1,机智,e,,,,,,,,,,,,,,,,,,,,,,,,,,,,,,,,,,,,,,,,,
,,,,,,,,,,,,,1,001,2024-08-25_22h04.39.309,IAT(Formal),2021.2.3,Win32,59.88023952,,,,,,,,,,,,,,,,e,1,1.0345,0,56,56,72,1,我们,e,,,,,,,,,,,,,,,,,,,,,,,,,,,,,,,,,,,,,,,,,
,,,,,,,,,,,,,1,001,2024-08-25_22h04.39.309,IAT(Formal),2021.2.3,Win32,59.88023952,,,,,,,,,,,,,,,,i,1,1.0058,0,57,57,65,1,他,i,,,,,,,,,,,,,,,,,,,,,,,,,,,,,,,,,,,,,,,,,
,,,,,,,,,,,,,1,001,2024-08-25_22h04.39.309,IAT(Formal),2021.2.3,Win32,59.88023952,,,,,,,,,,,,,,,,i,1,0.7866,0,58,58,78,1,他人,i,,,,,,,,,,,,,,,,,,,,,,,,,,,,,,,,,,,,,,,,,
,,,,,,,,,,,,,1,001,2024-08-25_22h04.39.309,IAT(Formal),2021.2.3,Win32,59.88023952,,,,,,,,,,,,,,,,e,1,0.9563,0,59,59,27,1,热情,e,,,,,,,,,,,,,,,,,,,,,,,,,,,,,,,,,,,,,,,,,
,,,,,,,,,,,,,1,001,2024-08-25_22h04.39.309,IAT(Formal),2021.2.3,Win32,59.88023952,,,,,,,,,,,,,,,,e,1,0.853,0,60,60,74,1,俺,e,,,,,,,,,,,,,,,,,,,,,,,,,,,,,,,,,,,,,,,,,
,,,,,,,,,,,,,1,001,2024-08-25_22h04.39.309,IAT(Formal),2021.2.3,Win32,59.88023952,,,,,,,,,,,,,,,,e,1,0.8739,0,61,61,28,1,活泼,e,,,,,,,,,,,,,,,,,,,,,,,,,,,,,,,,,,,,,,,,,
,,,,,,,,,,,,,1,001,2024-08-25_22h04.39.309,IAT(Formal),2021.2.3,Win32,59.88023952,,,,,,,,,,,,,,,,i,1,1.0079,0,62,62,35,1,消极,i,,,,,,,,,,,,,,,,,,,,,,,,,,,,,,,,,,,,,,,,,
,,,,,,,,,,,,,1,001,2024-08-25_22h04.39.309,IAT(Formal),2021.2.3,Win32,59.88023952,,,,,,,,,,,,,,,,i,1,1.0396,0,63,63,67,1,他的,i,,,,,,,,,,,,,,,,,,,,,,,,,,,,,,,,,,,,,,,,,
,,,,,,,,,,,,,1,001,2024-08-25_22h04.39.309,IAT(Formal),2021.2.3,Win32,59.88023952,,,,,,,,,,,,,,,,e,1,1.035,0,64,64,17,1,勇敢,e,,,,,,,,,,,,,,,,,,,,,,,,,,,,,,,,,,,,,,,,,
,,,,,,,,,,,,,1,001,2024-08-25_22h04.39.309,IAT(Formal),2021.2.3,Win32,59.88023952,,,,,,,,,,,,,,,,i,1,0.828,0,65,65,76,1,他们,i,,,,,,,,,,,,,,,,,,,,,,,,,,,,,,,,,,,,,,,,,
,,,,,,,,,,,,,1,001,2024-08-25_22h04.39.309,IAT(Formal),2021.2.3,Win32,59.88023952,,,,,,,,,,,,,,,,i,1,1.0026,0,66,66,40,1,执拗,i,,,,,,,,,,,,,,,,,,,,,,,,,,,,,,,,,,,,,,,,,
,,,,,,,,,,,,,1,001,2024-08-25_22h04.39.309,IAT(Formal),2021.2.3,Win32,59.88023952,,,,,,,,,,,,,,,,i,1,0.901,0,67,67,77,1,他的,i,,,,,,,,,,,,,,,,,,,,,,,,,,,,,,,,,,,,,,,,,
,,,,,,,,,,,,,1,001,2024-08-25_22h04.39.309,IAT(Formal),2021.2.3,Win32,59.88023952,,,,,,,,,,,,,,,,i,1,0.8892,0,68,68,48,1,轻率,i,,,,,,,,,,,,,,,,,,,,,,,,,,,,,,,,,,,,,,,,,
,,,,,,,,,,,,,1,001,2024-08-25_22h04.39.309,IAT(Formal),2021.2.3,Win32,59.88023952,,,,,,,,,,,,,,,,i,1,0.908,0,69,69,46,1,野蛮,i,,,,,,,,,,,,,,,,,,,,,,,,,,,,,,,,,,,,,,,,,
,,,,,,,,,,,,,1,001,2024-08-25_22h04.39.309,IAT(Formal),2021.2.3,Win32,59.88023952,,,,,,,,,,,,,,,,i,1,0.6848,0,70,70,79,1,其他,i,,,,,,,,,,,,,,,,,,,,,,,,,,,,,,,,,,,,,,,,,
,,,,,,,,,,,,,1,001,2024-08-25_22h04.39.309,IAT(Formal),2021.2.3,Win32,59.88023952,,,,,,,,,,,,,,,,i,1,0.6745,0,71,71,9,1,其他,i,,,,,,,,,,,,,,,,,,,,,,,,,,,,,,,,,,,,,,,,,
,,,,,,,,,,,,,1,001,2024-08-25_22h04.39.309,IAT(Formal),2021.2.3,Win32,59.88023952,,,,,,,,,,,,,,,,e,1,1.4251,0,72,72,26,1,冷静,e,,,,,,,,,,,,,,,,,,,,,,,,,,,,,,,,,,,,,,,,,
,,,,,,,,,,,,,1,001,2024-08-25_22h04.39.309,IAT(Formal),2021.2.3,Win32,59.88023952,,,,,,,,,,,,,,,,e,1,0.8074,0,73,73,4,1,俺,e,,,,,,,,,,,,,,,,,,,,,,,,,,,,,,,,,,,,,,,,,
,,,,,,,,,,,,,1,001,2024-08-25_22h04.39.309,IAT(Formal),2021.2.3,Win32,59.88023952,,,,,,,,,,,,,,,,e,1,0.8184,0,74,74,2,1,我们,e,,,,,,,,,,,,,,,,,,,,,,,,,,,,,,,,,,,,,,,,,
,,,,,,,,,,,,,1,001,2024-08-25_22h04.39.309,IAT(Formal),2021.2.3,Win32,59.88023952,,,,,,,,,,,,,,,,e,1,0.5678,0,75,75,61,1,我的,e,,,,,,,,,,,,,,,,,,,,,,,,,,,,,,,,,,,,,,,,,
,,,,,,,,,,,,,1,001,2024-08-25_22h04.39.309,IAT(Formal),2021.2.3,Win32,59.88023952,,,,,,,,,,,,,,,,i,1,0.9407,0,76,76,30,1,卑鄙,i,,,,,,,,,,,,,,,,,,,,,,,,,,,,,,,,,,,,,,,,,
,,,,,,,,,,,,,1,001,2024-08-25_22h04.39.309,IAT(Formal),2021.2.3,Win32,59.88023952,,,,,,,,,,,,,,,,i,1,0.7247,0,77,77,38,1,鲁莽,i,,,,,,,,,,,,,,,,,,,,,,,,,,,,,,,,,,,,,,,,,
,,,,,,,,,,,,,1,001,2024-08-25_22h04.39.309,IAT(Formal),2021.2.3,Win32,59.88023952,,,,,,,,,,,,,,,,i,1,0.705,0,78,78,43,1,自私,i,,,,,,,,,,,,,,,,,,,,,,,,,,,,,,,,,,,,,,,,,
,,,,,,,,,,,,,1,001,2024-08-25_22h04.39.309,IAT(Formal),2021.2.3,Win32,59.88023952,,,,,,,,,,,,,,,,e,1,1.039,0,79,79,11,1,崇高,e,,,,,,,,,,,,,,,,,,,,,,,,,,,,,,,,,,,,,,,,,
,,,,,,,,,,,,,1,001,2024-08-25_22h04.39.309,IAT(Formal),2021.2.3,Win32,59.88023952,,,,,,,,,,,,,,,,e,1,1.259,,,,,,朴实,e,space,11.1356,0,0,0,24,1,,,,,,,,,,,,,,,,,,,,,,,,,,,,,,,,,,
,,,,,,,,,,,,,1,001,2024-08-25_22h04.39.309,IAT(Formal),2021.2.3,Win32,59.88023952,,,,,,,,,,,,,,,,i,1,1.0681,,,,,,其他,i,,,0,1,1,69,1,,,,,,,,,,,,,,,,,,,,,,,,,,,,,,,,,,
,,,,,,,,,,,,,1,001,2024-08-25_22h04.39.309,IAT(Formal),2021.2.3,Win32,59.88023952,,,,,,,,,,,,,,,,i,1,1.1088,,,,,,他的,i,,,0,2,2,67,1,,,,,,,,,,,,,,,,,,,,,,,,,,,,,,,,,,
,,,,,,,,,,,,,1,001,2024-08-25_22h04.39.309,IAT(Formal),2021.2.3,Win32,59.88023952,,,,,,,,,,,,,,,,e,1,1.3285,,,,,,我们,e,,,0,3,3,52,1,,,,,,,,,,,,,,,,,,,,,,,,,,,,,,,,,,
,,,,,,,,,,,,,1,001,2024-08-25_22h04.39.309,IAT(Formal),2021.2.3,Win32,59.88023952,,,,,,,,,,,,,,,,i,1,0.9347,,,,,,猖狂,i,,,0,4,4,45,1,,,,,,,,,,,,,,,,,,,,,,,,,,,,,,,,,,
,,,,,,,,,,,,,1,001,2024-08-25_22h04.39.309,IAT(Formal),2021.2.3,Win32,59.88023952,,,,,,,,,,,,,,,,i,1,0.6236,,,,,,他们,i,,,0,5,5,66,1,,,,,,,,,,,,,,,,,,,,,,,,,,,,,,,,,,
,,,,,,,,,,,,,1,001,2024-08-25_22h04.39.309,IAT(Formal),2021.2.3,Win32,59.88023952,,,,,,,,,,,,,,,,e,1,0.6341,,,,,,俺,e,,,0,6,6,4,1,,,,,,,,,,,,,,,,,,,,,,,,,,,,,,,,,,
,,,,,,,,,,,,,1,001,2024-08-25_22h04.39.309,IAT(Formal),2021.2.3,Win32,59.88023952,,,,,,,,,,,,,,,,i,1,0.6254,,,,,,野蛮,i,,,0,7,7,46,1,,,,,,,,,,,,,,,,,,,,,,,,,,,,,,,,,,
,,,,,,,,,,,,,1,001,2024-08-25_22h04.39.309,IAT(Formal),2021.2.3,Win32,59.88023952,,,,,,,,,,,,,,,,e,1,0.6242,,,,,,机智,e,,,0,8,8,19,1,,,,,,,,,,,,,,,,,,,,,,,,,,,,,,,,,,
,,,,,,,,,,,,,1,001,2024-08-25_22h04.39.309,IAT(Formal),2021.2.3,Win32,59.88023952,,,,,,,,,,,,,,,,e,1,0.6853,,,,,,勇敢,e,,,0,9,9,17,1,,,,,,,,,,,,,,,,,,,,,,,,,,,,,,,,,,
,,,,,,,,,,,,,1,001,2024-08-25_22h04.39.309,IAT(Formal),2021.2.3,Win32,59.88023952,,,,,,,,,,,,,,,,i,1,0.6751,,,,,,凶狠,i,,,0,10,10,42,1,,,,,,,,,,,,,,,,,,,,,,,,,,,,,,,,,,
,,,,,,,,,,,,,1,001,2024-08-25_22h04.39.309,IAT(Formal),2021.2.3,Win32,59.88023952,,,,,,,,,,,,,,,,e,1,0.6103,,,,,,正直,e,,,0,11,11,16,1,,,,,,,,,,,,,,,,,,,,,,,,,,,,,,,,,,
,,,,,,,,,,,,,1,001,2024-08-25_22h04.39.309,IAT(Formal),2021.2.3,Win32,59.88023952,,,,,,,,,,,,,,,,i,1,0.7345,,,,,,执拗,i,,,0,12,12,40,1,,,,,,,,,,,,,,,,,,,,,,,,,,,,,,,,,,
,,,,,,,,,,,,,1,001,2024-08-25_22h04.39.309,IAT(Formal),2021.2.3,Win32,59.88023952,,,,,,,,,,,,,,,,e,1,0.5185,,,,,,自己,e,,,0,13,13,53,1,,,,,,,,,,,,,,,,,,,,,,,,,,,,,,,,,,
,,,,,,,,,,,,,1,001,2024-08-25_22h04.39.309,IAT(Formal),2021.2.3,Win32,59.88023952,,,,,,,,,,,,,,,,i,1,0.6188,,,,,,他人,i,,,0,14,14,8,1,,,,,,,,,,,,,,,,,,,,,,,,,,,,,,,,,,
,,,,,,,,,,,,,1,001,2024-08-25_22h04.39.309,IAT(Formal),2021.2.3,Win32,59.88023952,,,,,,,,,,,,,,,,e,1,0.5593,,,,,,自己,e,,,0,15,15,73,1,,,,,,,,,,,,,,,,,,,,,,,,,,,,,,,,,,
,,,,,,,,,,,,,1,001,2024-08-25_22h04.39.309,IAT(Formal),2021.2.3,Win32,59.88023952,,,,,,,,,,,,,,,,e,1,0.4847,,,,,,我的,e,,,0,16,16,71,1,,,,,,,,,,,,,,,,,,,,,,,,,,,,,,,,,,
,,,,,,,,,,,,,1,001,2024-08-25_22h04.39.309,IAT(Formal),2021.2.3,Win32,59.88023952,,,,,,,,,,,,,,,,e,1,0.5599,,,,,,自己,e,,,0,17,17,3,1,,,,,,,,,,,,,,,,,,,,,,,,,,,,,,,,,,
,,,,,,,,,,,,,1,001,2024-08-25_22h04.39.309,IAT(Formal),2021.2.3,Win32,59.88023952,,,,,,,,,,,,,,,,i,1,0.5565,,,,,,其他,i,,,0,18,18,59,1,,,,,,,,,,,,,,,,,,,,,,,,,,,,,,,,,,
,,,,,,,,,,,,,1,001,2024-08-25_22h04.39.309,IAT(Formal),2021.2.3,Win32,59.88023952,,,,,,,,,,,,,,,,e,1,0.6164,,,,,,热情,e,,,0,19,19,27,1,,,,,,,,,,,,,,,,,,,,,,,,,,,,,,,,,,
,,,,,,,,,,,,,1,001,2024-08-25_22h04.39.309,IAT(Formal),2021.2.3,Win32,59.88023952,,,,,,,,,,,,,,,,e,1,0.6749,,,,,,稳重,e,,,0,20,20,21,1,,,,,,,,,,,,,,,,,,,,,,,,,,,,,,,,,,
,,,,,,,,,,,,,1,001,2024-08-25_22h04.39.309,IAT(Formal),2021.2.3,Win32,59.88023952,,,,,,,,,,,,,,,,i,1,0.6561,,,,,,下贱,i,,,0,21,21,49,1,,,,,,,,,,,,,,,,,,,,,,,,,,,,,,,,,,
,,,,,,,,,,,,,1,001,2024-08-25_22h04.39.309,IAT(Formal),2021.2.3,Win32,59.88023952,,,,,,,,,,,,,,,,i,1,0.7487,,,,,,其他,i,,,0,22,22,79,1,,,,,,,,,,,,,,,,,,,,,,,,,,,,,,,,,,
,,,,,,,,,,,,,1,001,2024-08-25_22h04.39.309,IAT(Formal),2021.2.3,Win32,59.88023952,,,,,,,,,,,,,,,,i,1,0.6008,,,,,,他人,i,,,0,23,23,78,1,,,,,,,,,,,,,,,,,,,,,,,,,,,,,,,,,,
,,,,,,,,,,,,,1,001,2024-08-25_22h04.39.309,IAT(Formal),2021.2.3,Win32,59.88023952,,,,,,,,,,,,,,,,e,1,0.6252,,,,,,我,e,,,0,24,24,70,1,,,,,,,,,,,,,,,,,,,,,,,,,,,,,,,,,,
,,,,,,,,,,,,,1,001,2024-08-25_22h04.39.309,IAT(Formal),2021.2.3,Win32,59.88023952,,,,,,,,,,,,,,,,e,1,0.6416,,,,,,诚实,e,,,0,25,25,15,1,,,,,,,,,,,,,,,,,,,,,,,,,,,,,,,,,,
,,,,,,,,,,,,,1,001,2024-08-25_22h04.39.309,IAT(Formal),2021.2.3,Win32,59.88023952,,,,,,,,,,,,,,,,e,1,0.585,,,,,,我,e,,,0,26,26,60,1,,,,,,,,,,,,,,,,,,,,,,,,,,,,,,,,,,
,,,,,,,,,,,,,1,001,2024-08-25_22h04.39.309,IAT(Formal),2021.2.3,Win32,59.88023952,,,,,,,,,,,,,,,,e,1,0.5558,,,,,,活泼,e,,,0,27,27,28,1,,,,,,,,,,,,,,,,,,,,,,,,,,,,,,,,,,
,,,,,,,,,,,,,1,001,2024-08-25_22h04.39.309,IAT(Formal),2021.2.3,Win32,59.88023952,,,,,,,,,,,,,,,,i,1,0.7025,,,,,,他人,i,,,0,28,28,58,1,,,,,,,,,,,,,,,,,,,,,,,,,,,,,,,,,,
,,,,,,,,,,,,,1,001,2024-08-25_22h04.39.309,IAT(Formal),2021.2.3,Win32,59.88023952,,,,,,,,,,,,,,,,e,1,0.7402,,,,,,杰出,e,,,0,29,29,13,1,,,,,,,,,,,,,,,,,,,,,,,,,,,,,,,,,,
,,,,,,,,,,,,,1,001,2024-08-25_22h04.39.309,IAT(Formal),2021.2.3,Win32,59.88023952,,,,,,,,,,,,,,,,i,1,0.7013,,,,,,虚伪,i,,,0,30,30,31,1,,,,,,,,,,,,,,,,,,,,,,,,,,,,,,,,,,
,,,,,,,,,,,,,1,001,2024-08-25_22h04.39.309,IAT(Formal),2021.2.3,Win32,59.88023952,,,,,,,,,,,,,,,,e,1,0.7085,,,,,,无私,e,,,0,31,31,22,1,,,,,,,,,,,,,,,,,,,,,,,,,,,,,,,,,,
,,,,,,,,,,,,,1,001,2024-08-25_22h04.39.309,IAT(Formal),2021.2.3,Win32,59.88023952,,,,,,,,,,,,,,,,e,1,0.5578,,,,,,我的,e,,,0,32,32,51,1,,,,,,,,,,,,,,,,,,,,,,,,,,,,,,,,,,
,,,,,,,,,,,,,1,001,2024-08-25_22h04.39.309,IAT(Formal),2021.2.3,Win32,59.88023952,,,,,,,,,,,,,,,,i,1,0.6743,,,,,,他们,i,,,0,33,33,56,1,,,,,,,,,,,,,,,,,,,,,,,,,,,,,,,,,,
,,,,,,,,,,,,,1,001,2024-08-25_22h04.39.309,IAT(Formal),2021.2.3,Win32,59.88023952,,,,,,,,,,,,,,,,e,1,0.6064,,,,,,优秀,e,,,0,34,34,10,1,,,,,,,,,,,,,,,,,,,,,,,,,,,,,,,,,,
,,,,,,,,,,,,,1,001,2024-08-25_22h04.39.309,IAT(Formal),2021.2.3,Win32,59.88023952,,,,,,,,,,,,,,,,i,1,1.0432,,,,,,他的,i,,,0,35,35,7,1,,,,,,,,,,,,,,,,,,,,,,,,,,,,,,,,,,
,,,,,,,,,,,,,1,001,2024-08-25_22h04.39.309,IAT(Formal),2021.2.3,Win32,59.88023952,,,,,,,,,,,,,,,,,0,,,,,,,卑鄙,i,,,0,36,36,30,1,,,,,,,,,,,,,,,,,,,,,,,,,,,,,,,,,,
,,,,,,,,,,,,,1,001,2024-08-25_22h04.39.309,IAT(Formal),2021.2.3,Win32,59.88023952,,,,,,,,,,,,,,,,i,1,0.7689,,,,,,他的,i,,,0,37,37,57,1,,,,,,,,,,,,,,,,,,,,,,,,,,,,,,,,,,
,,,,,,,,,,,,,1,001,2024-08-25_22h04.39.309,IAT(Formal),2021.2.3,Win32,59.88023952,,,,,,,,,,,,,,,,e,1,0.6267,,,,,,崇高,e,,,0,38,38,11,1,,,,,,,,,,,,,,,,,,,,,,,,,,,,,,,,,,
,,,,,,,,,,,,,1,001,2024-08-25_22h04.39.309,IAT(Formal),2021.2.3,Win32,59.88023952,,,,,,,,,,,,,,,,i,1,0.708,,,,,,刻薄,i,,,0,39,39,33,1,,,,,,,,,,,,,,,,,,,,,,,,,,,,,,,,,,
,,,,,,,,,,,,,1,001,2024-08-25_22h04.39.309,IAT(Formal),2021.2.3,Win32,59.88023952,,,,,,,,,,,,,,,,e,0,0.5585,,,,,,他的,i,,,0,40,40,77,1,,,,,,,,,,,,,,,,,,,,,,,,,,,,,,,,,,
,,,,,,,,,,,,,1,001,2024-08-25_22h04.39.309,IAT(Formal),2021.2.3,Win32,59.88023952,,,,,,,,,,,,,,,,e,1,0.7355,,,,,,乐观,e,,,0,41,41,14,1,,,,,,,,,,,,,,,,,,,,,,,,,,,,,,,,,,
,,,,,,,,,,,,,1,001,2024-08-25_22h04.39.309,IAT(Formal),2021.2.3,Win32,59.88023952,,,,,,,,,,,,,,,,e,1,0.6516,,,,,,聪明,e,,,0,42,42,12,1,,,,,,,,,,,,,,,,,,,,,,,,,,,,,,,,,,
,,,,,,,,,,,,,1,001,2024-08-25_22h04.39.309,IAT(Formal),2021.2.3,Win32,59.88023952,,,,,,,,,,,,,,,,e,1,0.5402,,,,,,自己,e,,,0,43,43,63,1,,,,,,,,,,,,,,,,,,,,,,,,,,,,,,,,,,
,,,,,,,,,,,,,1,001,2024-08-25_22h04.39.309,IAT(Formal),2021.2.3,Win32,59.88023952,,,,,,,,,,,,,,,,e,1,0.5422,,,,,,公正,e,,,0,44,44,23,1,,,,,,,,,,,,,,,,,,,,,,,,,,,,,,,,,,
,,,,,,,,,,,,,1,001,2024-08-25_22h04.39.309,IAT(Formal),2021.2.3,Win32,59.88023952,,,,,,,,,,,,,,,,e,1,0.5775,,,,,,我们,e,,,0,45,45,62,1,,,,,,,,,,,,,,,,,,,,,,,,,,,,,,,,,,
,,,,,,,,,,,,,1,001,2024-08-25_22h04.39.309,IAT(Formal),2021.2.3,Win32,59.88023952,,,,,,,,,,,,,,,,i,1,0.8184,,,,,,暴躁,i,,,0,46,46,44,1,,,,,,,,,,,,,,,,,,,,,,,,,,,,,,,,,,
,,,,,,,,,,,,,1,001,2024-08-25_22h04.39.309,IAT(Formal),2021.2.3,Win32,59.88023952,,,,,,,,,,,,,,,,i,1,1.1081,,,,,,他人,i,,,0,47,47,68,1,,,,,,,,,,,,,,,,,,,,,,,,,,,,,,,,,,
,,,,,,,,,,,,,1,001,2024-08-25_22h04.39.309,IAT(Formal),2021.2.3,Win32,59.88023952,,,,,,,,,,,,,,,,e,1,1.4377,,,,,,冷静,e,,,0,48,48,26,1,,,,,,,,,,,,,,,,,,,,,,,,,,,,,,,,,,
,,,,,,,,,,,,,1,001,2024-08-25_22h04.39.309,IAT(Formal),2021.2.3,Win32,59.88023952,,,,,,,,,,,,,,,,i,1,1.0717,,,,,,他,i,,,0,49,49,5,1,,,,,,,,,,,,,,,,,,,,,,,,,,,,,,,,,,
,,,,,,,,,,,,,1,001,2024-08-25_22h04.39.309,IAT(Formal),2021.2.3,Win32,59.88023952,,,,,,,,,,,,,,,,,0,,,,,,,俺,e,,,0,50,50,74,1,,,,,,,,,,,,,,,,,,,,,,,,,,,,,,,,,,
,,,,,,,,,,,,,1,001,2024-08-25_22h04.39.309,IAT(Formal),2021.2.3,Win32,59.88023952,,,,,,,,,,,,,,,,e,0,1.2202,,,,,,傲慢,i,,,0,51,51,37,1,,,,,,,,,,,,,,,,,,,,,,,,,,,,,,,,,,
,,,,,,,,,,,,,1,001,2024-08-25_22h04.39.309,IAT(Formal),2021.2.3,Win32,59.88023952,,,,,,,,,,,,,,,,e,1,0.669,,,,,,俺,e,,,0,52,52,54,1,,,,,,,,,,,,,,,,,,,,,,,,,,,,,,,,,,
,,,,,,,,,,,,,1,001,2024-08-25_22h04.39.309,IAT(Formal),2021.2.3,Win32,59.88023952,,,,,,,,,,,,,,,,i,1,0.8186,,,,,,悲观,i,,,0,53,53,34,1,,,,,,,,,,,,,,,,,,,,,,,,,,,,,,,,,,
,,,,,,,,,,,,,1,001,2024-08-25_22h04.39.309,IAT(Formal),2021.2.3,Win32,59.88023952,,,,,,,,,,,,,,,,e,1,0.5265,,,,,,我们,e,,,0,54,54,2,1,,,,,,,,,,,,,,,,,,,,,,,,,,,,,,,,,,
,,,,,,,,,,,,,1,001,2024-08-25_22h04.39.309,IAT(Formal),2021.2.3,Win32,59.88023952,,,,,,,,,,,,,,,,e,0,0.7345,,,,,,自私,i,,,0,55,55,43,1,,,,,,,,,,,,,,,,,,,,,,,,,,,,,,,,,,
,,,,,,,,,,,,,1,001,2024-08-25_22h04.39.309,IAT(Formal),2021.2.3,Win32,59.88023952,,,,,,,,,,,,,,,,i,1,0.825,,,,,,自卑,i,,,0,56,56,36,1,,,,,,,,,,,,,,,,,,,,,,,,,,,,,,,,,,
,,,,,,,,,,,,,1,001,2024-08-25_22h04.39.309,IAT(Formal),2021.2.3,Win32,59.88023952,,,,,,,,,,,,,,,,e,0,1.4277,,,,,,散漫,i,,,0,57,57,41,1,,,,,,,,,,,,,,,,,,,,,,,,,,,,,,,,,,
,,,,,,,,,,,,,1,001,2024-08-25_22h04.39.309,IAT(Formal),2021.2.3,Win32,59.88023952,,,,,,,,,,,,,,,,e,1,0.8682,,,,,,我,e,,,0,58,58,50,1,,,,,,,,,,,,,,,,,,,,,,,,,,,,,,,,,,
,,,,,,,,,,,,,1,001,2024-08-25_22h04.39.309,IAT(Formal),2021.2.3,Win32,59.88023952,,,,,,,,,,,,,,,,i,1,1.0517,,,,,,他们,i,,,0,59,59,6,1,,,,,,,,,,,,,,,,,,,,,,,,,,,,,,,,,,
,,,,,,,,,,,,,1,001,2024-08-25_22h04.39.309,IAT(Formal),2021.2.3,Win32,59.88023952,,,,,,,,,,,,,,,,e,0,1.3853,,,,,,固执,i,,,0,60,60,47,1,,,,,,,,,,,,,,,,,,,,,,,,,,,,,,,,,,
,,,,,,,,,,,,,1,001,2024-08-25_22h04.39.309,IAT(Formal),2021.2.3,Win32,59.88023952,,,,,,,,,,,,,,,,,0,,,,,,,愚蠢,i,,,0,61,61,32,1,,,,,,,,,,,,,,,,,,,,,,,,,,,,,,,,,,
,,,,,,,,,,,,,1,001,2024-08-25_22h04.39.309,IAT(Formal),2021.2.3,Win32,59.88023952,,,,,,,,,,,,,,,,e,1,0.9356,,,,,,细腻,e,,,0,62,62,25,1,,,,,,,,,,,,,,,,,,,,,,,,,,,,,,,,,,
,,,,,,,,,,,,,1,001,2024-08-25_22h04.39.309,IAT(Formal),2021.2.3,Win32,59.88023952,,,,,,,,,,,,,,,,i,1,1.0067,,,,,,消极,i,,,0,63,63,35,1,,,,,,,,,,,,,,,,,,,,,,,,,,,,,,,,,,
,,,,,,,,,,,,,1,001,2024-08-25_22h04.39.309,IAT(Formal),2021.2.3,Win32,59.88023952,,,,,,,,,,,,,,,,i,1,0.927,,,,,,鲁莽,i,,,0,64,64,38,1,,,,,,,,,,,,,,,,,,,,,,,,,,,,,,,,,,
,,,,,,,,,,,,,1,001,2024-08-25_22h04.39.309,IAT(Formal),2021.2.3,Win32,59.88023952,,,,,,,,,,,,,,,,e,1,0.9071,,,,,,我,e,,,0,65,65,0,1,,,,,,,,,,,,,,,,,,,,,,,,,,,,,,,,,,
,,,,,,,,,,,,,1,001,2024-08-25_22h04.39.309,IAT(Formal),2021.2.3,Win32,59.88023952,,,,,,,,,,,,,,,,i,1,0.8099,,,,,,其他,i,,,0,66,66,9,1,,,,,,,,,,,,,,,,,,,,,,,,,,,,,,,,,,
,,,,,,,,,,,,,1,001,2024-08-25_22h04.39.309,IAT(Formal),2021.2.3,Win32,59.88023952,,,,,,,,,,,,,,,,e,1,0.8696,,,,,,俺,e,,,0,67,67,64,1,,,,,,,,,,,,,,,,,,,,,,,,,,,,,,,,,,
,,,,,,,,,,,,,1,001,2024-08-25_22h04.39.309,IAT(Formal),2021.2.3,Win32,59.88023952,,,,,,,,,,,,,,,,i,1,0.8588,,,,,,他,i,,,0,68,68,65,1,,,,,,,,,,,,,,,,,,,,,,,,,,,,,,,,,,
,,,,,,,,,,,,,1,001,2024-08-25_22h04.39.309,IAT(Formal),2021.2.3,Win32,59.88023952,,,,,,,,,,,,,,,,,0,,,,,,,轻率,i,,,0,69,69,48,1,,,,,,,,,,,,,,,,,,,,,,,,,,,,,,,,,,
,,,,,,,,,,,,,1,001,2024-08-25_22h04.39.309,IAT(Formal),2021.2.3,Win32,59.88023952,,,,,,,,,,,,,,,,e,1,0.8844,,,,,,诚恳,e,,,0,70,70,29,1,,,,,,,,,,,,,,,,,,,,,,,,,,,,,,,,,,
,,,,,,,,,,,,,1,001,2024-08-25_22h04.39.309,IAT(Formal),2021.2.3,Win32,59.88023952,,,,,,,,,,,,,,,,e,1,0.784,,,,,,我们,e,,,0,71,71,72,1,,,,,,,,,,,,,,,,,,,,,,,,,,,,,,,,,,
,,,,,,,,,,,,,1,001,2024-08-25_22h04.39.309,IAT(Formal),2021.2.3,Win32,59.88023952,,,,,,,,,,,,,,,,e,1,0.5893,,,,,,勤奋,e,,,0,72,72,18,1,,,,,,,,,,,,,,,,,,,,,,,,,,,,,,,,,,
,,,,,,,,,,,,,1,001,2024-08-25_22h04.39.309,IAT(Formal),2021.2.3,Win32,59.88023952,,,,,,,,,,,,,,,,e,1,0.7567,,,,,,我的,e,,,0,73,73,61,1,,,,,,,,,,,,,,,,,,,,,,,,,,,,,,,,,,
,,,,,,,,,,,,,1,001,2024-08-25_22h04.39.309,IAT(Formal),2021.2.3,Win32,59.88023952,,,,,,,,,,,,,,,,e,1,0.5681,,,,,,认真,e,,,0,74,74,20,1,,,,,,,,,,,,,,,,,,,,,,,,,,,,,,,,,,
,,,,,,,,,,,,,1,001,2024-08-25_22h04.39.309,IAT(Formal),2021.2.3,Win32,59.88023952,,,,,,,,,,,,,,,,e,0,0.6559,,,,,,冒失,i,,,0,75,75,39,1,,,,,,,,,,,,,,,,,,,,,,,,,,,,,,,,,,
,,,,,,,,,,,,,1,001,2024-08-25_22h04.39.309,IAT(Formal),2021.2.3,Win32,59.88023952,,,,,,,,,,,,,,,,i,1,0.9229,,,,,,他,i,,,0,76,76,75,1,,,,,,,,,,,,,,,,,,,,,,,,,,,,,,,,,,
,,,,,,,,,,,,,1,001,2024-08-25_22h04.39.309,IAT(Formal),2021.2.3,Win32,59.88023952,,,,,,,,,,,,,,,,i,1,0.8385,,,,,,他,i,,,0,77,77,55,1,,,,,,,,,,,,,,,,,,,,,,,,,,,,,,,,,,
,,,,,,,,,,,,,1,001,2024-08-25_22h04.39.309,IAT(Formal),2021.2.3,Win32,59.88023952,,,,,,,,,,,,,,,,i,1,1.0399,,,,,,他们,i,,,0,78,78,76,1,,,,,,,,,,,,,,,,,,,,,,,,,,,,,,,,,,
,,,,,,,,,,,,,1,001,2024-08-25_22h04.39.309,IAT(Formal),2021.2.3,Win32,59.88023952,,,,,,,,,,,,,,,,e,1,0.9358,,,,,,我的,e,,,0,79,79,1,1,,,,,,,,,,,,,,,,,,,,,,,,,,,,,,,,,,
,,,,,,,,,,,,,1,001,2024-08-25_22h04.39.309,IAT(Formal),2021.2.3,Win32,59.88023952,,,,,,,,,,,,,,,,e,1,0.8553,,,,,,我的,e,,,1,0,80,51,1,,,,,,,,,,,,,,,,,,,,,,,,,,,,,,,,,,
,,,,,,,,,,,,,1,001,2024-08-25_22h04.39.309,IAT(Formal),2021.2.3,Win32,59.88023952,,,,,,,,,,,,,,,,e,1,0.8193,,,,,,自己,e,,,1,1,81,3,1,,,,,,,,,,,,,,,,,,,,,,,,,,,,,,,,,,
,,,,,,,,,,,,,1,001,2024-08-25_22h04.39.309,IAT(Formal),2021.2.3,Win32,59.88023952,,,,,,,,,,,,,,,,i,1,0.675,,,,,,他人,i,,,1,2,82,58,1,,,,,,,,,,,,,,,,,,,,,,,,,,,,,,,,,,
,,,,,,,,,,,,,1,001,2024-08-25_22h04.39.309,IAT(Formal),2021.2.3,Win32,59.88023952,,,,,,,,,,,,,,,,i,1,0.8738,,,,,,他,i,,,1,3,83,55,1,,,,,,,,,,,,,,,,,,,,,,,,,,,,,,,,,,
,,,,,,,,,,,,,1,001,2024-08-25_22h04.39.309,IAT(Formal),2021.2.3,Win32,59.88023952,,,,,,,,,,,,,,,,i,1,1.2727,,,,,,傲慢,i,,,1,4,84,37,1,,,,,,,,,,,,,,,,,,,,,,,,,,,,,,,,,,
,,,,,,,,,,,,,1,001,2024-08-25_22h04.39.309,IAT(Formal),2021.2.3,Win32,59.88023952,,,,,,,,,,,,,,,,e,1,0.9417,,,,,,诚实,e,,,1,5,85,15,1,,,,,,,,,,,,,,,,,,,,,,,,,,,,,,,,,,
,,,,,,,,,,,,,1,001,2024-08-25_22h04.39.309,IAT(Formal),2021.2.3,Win32,59.88023952,,,,,,,,,,,,,,,,i,1,1.0704,,,,,,虚伪,i,,,1,6,86,31,1,,,,,,,,,,,,,,,,,,,,,,,,,,,,,,,,,,
,,,,,,,,,,,,,1,001,2024-08-25_22h04.39.309,IAT(Formal),2021.2.3,Win32,59.88023952,,,,,,,,,,,,,,,,e,1,0.9281,,,,,,俺,e,,,1,7,87,74,1,,,,,,,,,,,,,,,,,,,,,,,,,,,,,,,,,,
,,,,,,,,,,,,,1,001,2024-08-25_22h04.39.309,IAT(Formal),2021.2.3,Win32,59.88023952,,,,,,,,,,,,,,,,i,1,0.818,,,,,,他人,i,,,1,8,88,68,1,,,,,,,,,,,,,,,,,,,,,,,,,,,,,,,,,,
,,,,,,,,,,,,,1,001,2024-08-25_22h04.39.309,IAT(Formal),2021.2.3,Win32,59.88023952,,,,,,,,,,,,,,,,i,1,1.123,,,,,,其他,i,,,1,9,89,59,1,,,,,,,,,,,,,,,,,,,,,,,,,,,,,,,,,,
,,,,,,,,,,,,,1,001,2024-08-25_22h04.39.309,IAT(Formal),2021.2.3,Win32,59.88023952,,,,,,,,,,,,,,,,e,1,0.9564,,,,,,乐观,e,,,1,10,90,14,1,,,,,,,,,,,,,,,,,,,,,,,,,,,,,,,,,,
,,,,,,,,,,,,,1,001,2024-08-25_22h04.39.309,IAT(Formal),2021.2.3,Win32,59.88023952,,,,,,,,,,,,,,,,i,1,0.8026,,,,,,下贱,i,,,1,11,91,49,1,,,,,,,,,,,,,,,,,,,,,,,,,,,,,,,,,,
,,,,,,,,,,,,,1,001,2024-08-25_22h04.39.309,IAT(Formal),2021.2.3,Win32,59.88023952,,,,,,,,,,,,,,,,e,1,1.0261,,,,,,俺,e,,,1,12,92,4,1,,,,,,,,,,,,,,,,,,,,,,,,,,,,,,,,,,
,,,,,,,,,,,,,1,001,2024-08-25_22h04.39.309,IAT(Formal),2021.2.3,Win32,59.88023952,,,,,,,,,,,,,,,,e,1,1.2068,,,,,,自己,e,,,1,13,93,73,1,,,,,,,,,,,,,,,,,,,,,,,,,,,,,,,,,,
,,,,,,,,,,,,,1,001,2024-08-25_22h04.39.309,IAT(Formal),2021.2.3,Win32,59.88023952,,,,,,,,,,,,,,,,e,1,0.9342,,,,,,俺,e,,,1,14,94,64,1,,,,,,,,,,,,,,,,,,,,,,,,,,,,,,,,,,
,,,,,,,,,,,,,1,001,2024-08-25_22h04.39.309,IAT(Formal),2021.2.3,Win32,59.88023952,,,,,,,,,,,,,,,,e,1,1.0577,,,,,,正直,e,,,1,15,95,16,1,,,,,,,,,,,,,,,,,,,,,,,,,,,,,,,,,,
,,,,,,,,,,,,,1,001,2024-08-25_22h04.39.309,IAT(Formal),2021.2.3,Win32,59.88023952,,,,,,,,,,,,,,,,i,1,1.4516,,,,,,自卑,i,,,1,16,96,36,1,,,,,,,,,,,,,,,,,,,,,,,,,,,,,,,,,,
,,,,,,,,,,,,,1,001,2024-08-25_22h04.39.309,IAT(Formal),2021.2.3,Win32,59.88023952,,,,,,,,,,,,,,,,i,1,1.141,,,,,,他的,i,,,1,17,97,67,1,,,,,,,,,,,,,,,,,,,,,,,,,,,,,,,,,,
,,,,,,,,,,,,,1,001,2024-08-25_22h04.39.309,IAT(Formal),2021.2.3,Win32,59.88023952,,,,,,,,,,,,,,,,e,1,0.857,,,,,,自己,e,,,1,18,98,53,1,,,,,,,,,,,,,,,,,,,,,,,,,,,,,,,,,,
,,,,,,,,,,,,,1,001,2024-08-25_22h04.39.309,IAT(Formal),2021.2.3,Win32,59.88023952,,,,,,,,,,,,,,,,e,1,0.855,,,,,,活泼,e,,,1,19,99,28,1,,,,,,,,,,,,,,,,,,,,,,,,,,,,,,,,,,
,,,,,,,,,,,,,1,001,2024-08-25_22h04.39.309,IAT(Formal),2021.2.3,Win32,59.88023952,,,,,,,,,,,,,,,,e,1,0.9249,,,,,,机智,e,,,1,20,100,19,1,,,,,,,,,,,,,,,,,,,,,,,,,,,,,,,,,,
,,,,,,,,,,,,,1,001,2024-08-25_22h04.39.309,IAT(Formal),2021.2.3,Win32,59.88023952,,,,,,,,,,,,,,,,i,1,1.1918,,,,,,其他,i,,,1,21,101,69,1,,,,,,,,,,,,,,,,,,,,,,,,,,,,,,,,,,
,,,,,,,,,,,,,1,001,2024-08-25_22h04.39.309,IAT(Formal),2021.2.3,Win32,59.88023952,,,,,,,,,,,,,,,,e,1,0.9239,,,,,,俺,e,,,1,22,102,54,1,,,,,,,,,,,,,,,,,,,,,,,,,,,,,,,,,,
,,,,,,,,,,,,,1,001,2024-08-25_22h04.39.309,IAT(Formal),2021.2.3,Win32,59.88023952,,,,,,,,,,,,,,,,e,1,1.373,,,,,,热情,e,,,1,23,103,27,1,,,,,,,,,,,,,,,,,,,,,,,,,,,,,,,,,,
,,,,,,,,,,,,,1,001,2024-08-25_22h04.39.309,IAT(Formal),2021.2.3,Win32,59.88023952,,,,,,,,,,,,,,,,e,1,1.0036,,,,,,诚恳,e,,,1,24,104,29,1,,,,,,,,,,,,,,,,,,,,,,,,,,,,,,,,,,
,,,,,,,,,,,,,1,001,2024-08-25_22h04.39.309,IAT(Formal),2021.2.3,Win32,59.88023952,,,,,,,,,,,,,,,,i,1,1.0019,,,,,,凶狠,i,,,1,25,105,42,1,,,,,,,,,,,,,,,,,,,,,,,,,,,,,,,,,,
,,,,,,,,,,,,,1,001,2024-08-25_22h04.39.309,IAT(Formal),2021.2.3,Win32,59.88023952,,,,,,,,,,,,,,,,i,1,0.9855,,,,,,他们,i,,,1,26,106,6,1,,,,,,,,,,,,,,,,,,,,,,,,,,,,,,,,,,
,,,,,,,,,,,,,1,001,2024-08-25_22h04.39.309,IAT(Formal),2021.2.3,Win32,59.88023952,,,,,,,,,,,,,,,,i,1,0.7894,,,,,,他的,i,,,1,27,107,57,1,,,,,,,,,,,,,,,,,,,,,,,,,,,,,,,,,,
,,,,,,,,,,,,,1,001,2024-08-25_22h04.39.309,IAT(Formal),2021.2.3,Win32,59.88023952,,,,,,,,,,,,,,,,i,1,0.7927,,,,,,他,i,,,1,28,108,5,1,,,,,,,,,,,,,,,,,,,,,,,,,,,,,,,,,,
,,,,,,,,,,,,,1,001,2024-08-25_22h04.39.309,IAT(Formal),2021.2.3,Win32,59.88023952,,,,,,,,,,,,,,,,i,1,1.0398,,,,,,鲁莽,i,,,1,29,109,38,1,,,,,,,,,,,,,,,,,,,,,,,,,,,,,,,,,,
,,,,,,,,,,,,,1,001,2024-08-25_22h04.39.309,IAT(Formal),2021.2.3,Win32,59.88023952,,,,,,,,,,,,,,,,i,1,0.7841,,,,,,他们,i,,,1,30,110,66,1,,,,,,,,,,,,,,,,,,,,,,,,,,,,,,,,,,
,,,,,,,,,,,,,1,001,2024-08-25_22h04.39.309,IAT(Formal),2021.2.3,Win32,59.88023952,,,,,,,,,,,,,,,,i,1,1.1728,,,,,,固执,i,,,1,31,111,47,1,,,,,,,,,,,,,,,,,,,,,,,,,,,,,,,,,,
,,,,,,,,,,,,,1,001,2024-08-25_22h04.39.309,IAT(Formal),2021.2.3,Win32,59.88023952,,,,,,,,,,,,,,,,i,1,0.8098,,,,,,他人,i,,,1,32,112,78,1,,,,,,,,,,,,,,,,,,,,,,,,,,,,,,,,,,
,,,,,,,,,,,,,1,001,2024-08-25_22h04.39.309,IAT(Formal),2021.2.3,Win32,59.88023952,,,,,,,,,,,,,,,,i,1,0.8021,,,,,,暴躁,i,,,1,33,113,44,1,,,,,,,,,,,,,,,,,,,,,,,,,,,,,,,,,,
,,,,,,,,,,,,,1,001,2024-08-25_22h04.39.309,IAT(Formal),2021.2.3,Win32,59.88023952,,,,,,,,,,,,,,,,e,1,1.1926,,,,,,我的,e,,,1,34,114,61,1,,,,,,,,,,,,,,,,,,,,,,,,,,,,,,,,,,
,,,,,,,,,,,,,1,001,2024-08-25_22h04.39.309,IAT(Formal),2021.2.3,Win32,59.88023952,,,,,,,,,,,,,,,,e,1,0.9539,,,,,,我们,e,,,1,35,115,52,1,,,,,,,,,,,,,,,,,,,,,,,,,,,,,,,,,,
,,,,,,,,,,,,,1,001,2024-08-25_22h04.39.309,IAT(Formal),2021.2.3,Win32,59.88023952,,,,,,,,,,,,,,,,e,1,0.9896,,,,,,我的,e,,,1,36,116,1,1,,,,,,,,,,,,,,,,,,,,,,,,,,,,,,,,,,
,,,,,,,,,,,,,1,001,2024-08-25_22h04.39.309,IAT(Formal),2021.2.3,Win32,59.88023952,,,,,,,,,,,,,,,,e,1,1.0072,,,,,,自己,e,,,1,37,117,63,1,,,,,,,,,,,,,,,,,,,,,,,,,,,,,,,,,,
,,,,,,,,,,,,,1,001,2024-08-25_22h04.39.309,IAT(Formal),2021.2.3,Win32,59.88023952,,,,,,,,,,,,,,,,,0,,,,,,,勇敢,e,,,1,38,118,17,1,,,,,,,,,,,,,,,,,,,,,,,,,,,,,,,,,,
,,,,,,,,,,,,,1,001,2024-08-25_22h04.39.309,IAT(Formal),2021.2.3,Win32,59.88023952,,,,,,,,,,,,,,,,e,1,0.9848,,,,,,朴实,e,,,1,39,119,24,1,,,,,,,,,,,,,,,,,,,,,,,,,,,,,,,,,,
,,,,,,,,,,,,,1,001,2024-08-25_22h04.39.309,IAT(Formal),2021.2.3,Win32,59.88023952,,,,,,,,,,,,,,,,i,1,1.1393,,,,,,冒失,i,,,1,40,120,39,1,,,,,,,,,,,,,,,,,,,,,,,,,,,,,,,,,,
,,,,,,,,,,,,,1,001,2024-08-25_22h04.39.309,IAT(Formal),2021.2.3,Win32,59.88023952,,,,,,,,,,,,,,,,i,1,1.0836,,,,,,执拗,i,,,1,41,121,40,1,,,,,,,,,,,,,,,,,,,,,,,,,,,,,,,,,,
,,,,,,,,,,,,,1,001,2024-08-25_22h04.39.309,IAT(Formal),2021.2.3,Win32,59.88023952,,,,,,,,,,,,,,,,i,1,0.9235,,,,,,刻薄,i,,,1,42,122,33,1,,,,,,,,,,,,,,,,,,,,,,,,,,,,,,,,,,
,,,,,,,,,,,,,1,001,2024-08-25_22h04.39.309,IAT(Formal),2021.2.3,Win32,59.88023952,,,,,,,,,,,,,,,,i,1,0.8017,,,,,,卑鄙,i,,,1,43,123,30,1,,,,,,,,,,,,,,,,,,,,,,,,,,,,,,,,,,
,,,,,,,,,,,,,1,001,2024-08-25_22h04.39.309,IAT(Formal),2021.2.3,Win32,59.88023952,,,,,,,,,,,,,,,,i,1,0.9892,,,,,,散漫,i,,,1,44,124,41,1,,,,,,,,,,,,,,,,,,,,,,,,,,,,,,,,,,
,,,,,,,,,,,,,1,001,2024-08-25_22h04.39.309,IAT(Formal),2021.2.3,Win32,59.88023952,,,,,,,,,,,,,,,,e,1,1.1064,,,,,,杰出,e,,,1,45,125,13,1,,,,,,,,,,,,,,,,,,,,,,,,,,,,,,,,,,
,,,,,,,,,,,,,1,001,2024-08-25_22h04.39.309,IAT(Formal),2021.2.3,Win32,59.88023952,,,,,,,,,,,,,,,,i,1,0.9719,,,,,,他的,i,,,1,46,126,7,1,,,,,,,,,,,,,,,,,,,,,,,,,,,,,,,,,,
,,,,,,,,,,,,,1,001,2024-08-25_22h04.39.309,IAT(Formal),2021.2.3,Win32,59.88023952,,,,,,,,,,,,,,,,i,1,0.8592,,,,,,消极,i,,,1,47,127,35,1,,,,,,,,,,,,,,,,,,,,,,,,,,,,,,,,,,
,,,,,,,,,,,,,1,001,2024-08-25_22h04.39.309,IAT(Formal),2021.2.3,Win32,59.88023952,,,,,,,,,,,,,,,,e,1,0.9433,,,,,,我们,e,,,1,48,128,72,1,,,,,,,,,,,,,,,,,,,,,,,,,,,,,,,,,,
,,,,,,,,,,,,,1,001,2024-08-25_22h04.39.309,IAT(Formal),2021.2.3,Win32,59.88023952,,,,,,,,,,,,,,,,i,1,0.9411,,,,,,他们,i,,,1,49,129,76,1,,,,,,,,,,,,,,,,,,,,,,,,,,,,,,,,,,
,,,,,,,,,,,,,1,001,2024-08-25_22h04.39.309,IAT(Formal),2021.2.3,Win32,59.88023952,,,,,,,,,,,,,,,,i,1,0.855,,,,,,轻率,i,,,1,50,130,48,1,,,,,,,,,,,,,,,,,,,,,,,,,,,,,,,,,,
,,,,,,,,,,,,,1,001,2024-08-25_22h04.39.309,IAT(Formal),2021.2.3,Win32,59.88023952,,,,,,,,,,,,,,,,,0,,,,,,,自私,i,,,1,51,131,43,1,,,,,,,,,,,,,,,,,,,,,,,,,,,,,,,,,,
,,,,,,,,,,,,,1,001,2024-08-25_22h04.39.309,IAT(Formal),2021.2.3,Win32,59.88023952,,,,,,,,,,,,,,,,e,1,0.9351,,,,,,我,e,,,1,52,132,60,1,,,,,,,,,,,,,,,,,,,,,,,,,,,,,,,,,,
,,,,,,,,,,,,,1,001,2024-08-25_22h04.39.309,IAT(Formal),2021.2.3,Win32,59.88023952,,,,,,,,,,,,,,,,e,1,0.8392,,,,,,我,e,,,1,53,133,70,1,,,,,,,,,,,,,,,,,,,,,,,,,,,,,,,,,,
,,,,,,,,,,,,,1,001,2024-08-25_22h04.39.309,IAT(Formal),2021.2.3,Win32,59.88023952,,,,,,,,,,,,,,,,i,1,0.8059,,,,,,他,i,,,1,54,134,75,1,,,,,,,,,,,,,,,,,,,,,,,,,,,,,,,,,,
,,,,,,,,,,,,,1,001,2024-08-25_22h04.39.309,IAT(Formal),2021.2.3,Win32,59.88023952,,,,,,,,,,,,,,,,i,1,0.7843,,,,,,他的,i,,,1,55,135,77,1,,,,,,,,,,,,,,,,,,,,,,,,,,,,,,,,,,
,,,,,,,,,,,,,1,001,2024-08-25_22h04.39.309,IAT(Formal),2021.2.3,Win32,59.88023952,,,,,,,,,,,,,,,,e,1,0.951,,,,,,勤奋,e,,,1,56,136,18,1,,,,,,,,,,,,,,,,,,,,,,,,,,,,,,,,,,
,,,,,,,,,,,,,1,001,2024-08-25_22h04.39.309,IAT(Formal),2021.2.3,Win32,59.88023952,,,,,,,,,,,,,,,,e,1,0.8766,,,,,,优秀,e,,,1,57,137,10,1,,,,,,,,,,,,,,,,,,,,,,,,,,,,,,,,,,
,,,,,,,,,,,,,1,001,2024-08-25_22h04.39.309,IAT(Formal),2021.2.3,Win32,59.88023952,,,,,,,,,,,,,,,,i,1,0.9234,,,,,,他们,i,,,1,58,138,56,1,,,,,,,,,,,,,,,,,,,,,,,,,,,,,,,,,,
,,,,,,,,,,,,,1,001,2024-08-25_22h04.39.309,IAT(Formal),2021.2.3,Win32,59.88023952,,,,,,,,,,,,,,,,e,1,0.9395,,,,,,公正,e,,,1,59,139,23,1,,,,,,,,,,,,,,,,,,,,,,,,,,,,,,,,,,
,,,,,,,,,,,,,1,001,2024-08-25_22h04.39.309,IAT(Formal),2021.2.3,Win32,59.88023952,,,,,,,,,,,,,,,,i,1,1.0852,,,,,,悲观,i,,,1,60,140,34,1,,,,,,,,,,,,,,,,,,,,,,,,,,,,,,,,,,
,,,,,,,,,,,,,1,001,2024-08-25_22h04.39.309,IAT(Formal),2021.2.3,Win32,59.88023952,,,,,,,,,,,,,,,,e,1,0.8693,,,,,,我们,e,,,1,61,141,2,1,,,,,,,,,,,,,,,,,,,,,,,,,,,,,,,,,,
,,,,,,,,,,,,,1,001,2024-08-25_22h04.39.309,IAT(Formal),2021.2.3,Win32,59.88023952,,,,,,,,,,,,,,,,e,1,0.9437,,,,,,冷静,e,,,1,62,142,26,1,,,,,,,,,,,,,,,,,,,,,,,,,,,,,,,,,,
,,,,,,,,,,,,,1,001,2024-08-25_22h04.39.309,IAT(Formal),2021.2.3,Win32,59.88023952,,,,,,,,,,,,,,,,e,1,0.8581,,,,,,细腻,e,,,1,63,143,25,1,,,,,,,,,,,,,,,,,,,,,,,,,,,,,,,,,,
,,,,,,,,,,,,,1,001,2024-08-25_22h04.39.309,IAT(Formal),2021.2.3,Win32,59.88023952,,,,,,,,,,,,,,,,e,1,0.8125,,,,,,稳重,e,,,1,64,144,21,1,,,,,,,,,,,,,,,,,,,,,,,,,,,,,,,,,,
,,,,,,,,,,,,,1,001,2024-08-25_22h04.39.309,IAT(Formal),2021.2.3,Win32,59.88023952,,,,,,,,,,,,,,,,e,1,0.9018,,,,,,崇高,e,,,1,65,145,11,1,,,,,,,,,,,,,,,,,,,,,,,,,,,,,,,,,,
,,,,,,,,,,,,,1,001,2024-08-25_22h04.39.309,IAT(Formal),2021.2.3,Win32,59.88023952,,,,,,,,,,,,,,,,i,1,0.9863,,,,,,愚蠢,i,,,1,66,146,32,1,,,,,,,,,,,,,,,,,,,,,,,,,,,,,,,,,,
,,,,,,,,,,,,,1,001,2024-08-25_22h04.39.309,IAT(Formal),2021.2.3,Win32,59.88023952,,,,,,,,,,,,,,,,e,1,0.8514,,,,,,我的,e,,,1,67,147,71,1,,,,,,,,,,,,,,,,,,,,,,,,,,,,,,,,,,
,,,,,,,,,,,,,1,001,2024-08-25_22h04.39.309,IAT(Formal),2021.2.3,Win32,59.88023952,,,,,,,,,,,,,,,,e,1,0.7849,,,,,,我,e,,,1,68,148,0,1,,,,,,,,,,,,,,,,,,,,,,,,,,,,,,,,,,
,,,,,,,,,,,,,1,001,2024-08-25_22h04.39.309,IAT(Formal),2021.2.3,Win32,59.88023952,,,,,,,,,,,,,,,,e,1,0.7922,,,,,,认真,e,,,1,69,149,20,1,,,,,,,,,,,,,,,,,,,,,,,,,,,,,,,,,,
,,,,,,,,,,,,,1,001,2024-08-25_22h04.39.309,IAT(Formal),2021.2.3,Win32,59.88023952,,,,,,,,,,,,,,,,e,1,0.752,,,,,,我,e,,,1,70,150,50,1,,,,,,,,,,,,,,,,,,,,,,,,,,,,,,,,,,
,,,,,,,,,,,,,1,001,2024-08-25_22h04.39.309,IAT(Formal),2021.2.3,Win32,59.88023952,,,,,,,,,,,,,,,,e,1,0.7402,,,,,,聪明,e,,,1,71,151,12,1,,,,,,,,,,,,,,,,,,,,,,,,,,,,,,,,,,
,,,,,,,,,,,,,1,001,2024-08-25_22h04.39.309,IAT(Formal),2021.2.3,Win32,59.88023952,,,,,,,,,,,,,,,,i,1,1.0431,,,,,,他人,i,,,1,72,152,8,1,,,,,,,,,,,,,,,,,,,,,,,,,,,,,,,,,,
,,,,,,,,,,,,,1,001,2024-08-25_22h04.39.309,IAT(Formal),2021.2.3,Win32,59.88023952,,,,,,,,,,,,,,,,e,1,0.7897,,,,,,我们,e,,,1,73,153,62,1,,,,,,,,,,,,,,,,,,,,,,,,,,,,,,,,,,
,,,,,,,,,,,,,1,001,2024-08-25_22h04.39.309,IAT(Formal),2021.2.3,Win32,59.88023952,,,,,,,,,,,,,,,,i,1,0.9222,,,,,,其他,i,,,1,74,154,9,1,,,,,,,,,,,,,,,,,,,,,,,,,,,,,,,,,,
,,,,,,,,,,,,,1,001,2024-08-25_22h04.39.309,IAT(Formal),2021.2.3,Win32,59.88023952,,,,,,,,,,,,,,,,i,1,1.0722,,,,,,其他,i,,,1,75,155,79,1,,,,,,,,,,,,,,,,,,,,,,,,,,,,,,,,,,
,,,,,,,,,,,,,1,001,2024-08-25_22h04.39.309,IAT(Formal),2021.2.3,Win32,59.88023952,,,,,,,,,,,,,,,,i,1,1.104,,,,,,猖狂,i,,,1,76,156,45,1,,,,,,,,,,,,,,,,,,,,,,,,,,,,,,,,,,
,,,,,,,,,,,,,1,001,2024-08-25_22h04.39.309,IAT(Formal),2021.2.3,Win32,59.88023952,,,,,,,,,,,,,,,,,0,,,,,,,无私,e,,,1,77,157,22,1,,,,,,,,,,,,,,,,,,,,,,,,,,,,,,,,,,
,,,,,,,,,,,,,1,001,2024-08-25_22h04.39.309,IAT(Formal),2021.2.3,Win32,59.88023952,,,,,,,,,,,,,,,,i,1,1.1911,,,,,,野蛮,i,,,1,78,158,46,1,,,,,,,,,,,,,,,,,,,,,,,,,,,,,,,,,,
,,,,,,,,,,,,,1,001,2024-08-25_22h04.39.309,IAT(Formal),2021.2.3,Win32,59.88023952,,,,,,,,,,,,,,,,i,1,0.826,,,,,,他,i,,,1,79,159,65,1,,,,,,,,,,,,,,,,,,,,,,,,,,,,,,,,,,
,,,,,,,,,,,他们,e,1,001,2024-08-25_22h04.39.309,IAT(Formal),2021.2.3,Win32,59.88023952,,,,,,,,,,,,,,,,,,,,,,,,,,,,,,,,,space,20.7102,e,1,0.9689,0,0,0,6,1,,,,,,,,,,,,,,,,,,,,,,,,
,,,,,,,,,,,我的,i,1,001,2024-08-25_22h04.39.309,IAT(Formal),2021.2.3,Win32,59.88023952,,,,,,,,,,,,,,,,,,,,,,,,,,,,,,,,,,,i,1,0.9228,0,1,1,1,1,,,,,,,,,,,,,,,,,,,,,,,,
,,,,,,,,,,,他,e,1,001,2024-08-25_22h04.39.309,IAT(Formal),2021.2.3,Win32,59.88023952,,,,,,,,,,,,,,,,,,,,,,,,,,,,,,,,,,,e,1,0.5065,0,2,2,5,1,,,,,,,,,,,,,,,,,,,,,,,,
,,,,,,,,,,,他人,e,1,001,2024-08-25_22h04.39.309,IAT(Formal),2021.2.3,Win32,59.88023952,,,,,,,,,,,,,,,,,,,,,,,,,,,,,,,,,,,e,1,0.5725,0,3,3,8,1,,,,,,,,,,,,,,,,,,,,,,,,
,,,,,,,,,,,其他,e,1,001,2024-08-25_22h04.39.309,IAT(Formal),2021.2.3,Win32,59.88023952,,,,,,,,,,,,,,,,,,,,,,,,,,,,,,,,,,,e,1,0.5728,0,4,4,9,1,,,,,,,,,,,,,,,,,,,,,,,,
,,,,,,,,,,,我们,i,1,001,2024-08-25_22h04.39.309,IAT(Formal),2021.2.3,Win32,59.88023952,,,,,,,,,,,,,,,,,,,,,,,,,,,,,,,,,,,i,1,0.6677,0,5,5,2,1,,,,,,,,,,,,,,,,,,,,,,,,
,,,,,,,,,,,我,i,1,001,2024-08-25_22h04.39.309,IAT(Formal),2021.2.3,Win32,59.88023952,,,,,,,,,,,,,,,,,,,,,,,,,,,,,,,,,,,i,1,0.7892,0,6,6,0,1,,,,,,,,,,,,,,,,,,,,,,,,
,,,,,,,,,,,俺,i,1,001,2024-08-25_22h04.39.309,IAT(Formal),2021.2.3,Win32,59.88023952,,,,,,,,,,,,,,,,,,,,,,,,,,,,,,,,,,,i,1,0.6693,0,7,7,4,1,,,,,,,,,,,,,,,,,,,,,,,,
,,,,,,,,,,,他的,e,1,001,2024-08-25_22h04.39.309,IAT(Formal),2021.2.3,Win32,59.88023952,,,,,,,,,,,,,,,,,,,,,,,,,,,,,,,,,,,e,1,0.4682,0,8,8,7,1,,,,,,,,,,,,,,,,,,,,,,,,
,,,,,,,,,,,自己,i,1,001,2024-08-25_22h04.39.309,IAT(Formal),2021.2.3,Win32,59.88023952,,,,,,,,,,,,,,,,,,,,,,,,,,,,,,,,,,,i,1,0.7884,0,9,9,3,1,,,,,,,,,,,,,,,,,,,,,,,,
,,,,,,,,,,,,,1,001,2024-08-25_22h04.39.309,IAT(Formal),2021.2.3,Win32,59.88023952,,,,,,,,,,,,,,,,,,,,,,,,,,,,,,,,,,,,,,,,,,,space,22.6182,,0,0,0,0,32,1,愚蠢,i,,,,,,,,,,,,,
,,,,,,,,,,,,,1,001,2024-08-25_22h04.39.309,IAT(Formal),2021.2.3,Win32,59.88023952,,,,,,,,,,,,,,,,,,,,,,,,,,,,,,,,,,,,,,,,,,,,,i,1,0,1,1,34,1,悲观,i,0.8265,,,,,,,,,,,,
,,,,,,,,,,,,,1,001,2024-08-25_22h04.39.309,IAT(Formal),2021.2.3,Win32,59.88023952,,,,,,,,,,,,,,,,,,,,,,,,,,,,,,,,,,,,,,,,,,,,,e,1,0,2,2,15,1,诚实,e,0.7422,,,,,,,,,,,,
,,,,,,,,,,,,,1,001,2024-08-25_22h04.39.309,IAT(Formal),2021.2.3,Win32,59.88023952,,,,,,,,,,,,,,,,,,,,,,,,,,,,,,,,,,,,,,,,,,,,,i,0,0,3,3,56,1,他们,e,1.1516,,,,,,,,,,,,
,,,,,,,,,,,,,1,001,2024-08-25_22h04.39.309,IAT(Formal),2021.2.3,Win32,59.88023952,,,,,,,,,,,,,,,,,,,,,,,,,,,,,,,,,,,,,,,,,,,,,e,0,0,4,4,61,1,我的,i,0.9177,,,,,,,,,,,,
,,,,,,,,,,,,,1,001,2024-08-25_22h04.39.309,IAT(Formal),2021.2.3,Win32,59.88023952,,,,,,,,,,,,,,,,,,,,,,,,,,,,,,,,,,,,,,,,,,,,,i,1,0,5,5,45,1,猖狂,i,1.0063,,,,,,,,,,,,
,,,,,,,,,,,,,1,001,2024-08-25_22h04.39.309,IAT(Formal),2021.2.3,Win32,59.88023952,,,,,,,,,,,,,,,,,,,,,,,,,,,,,,,,,,,,,,,,,,,,,i,0,0,6,6,69,1,其他,e,0.8391,,,,,,,,,,,,
,,,,,,,,,,,,,1,001,2024-08-25_22h04.39.309,IAT(Formal),2021.2.3,Win32,59.88023952,,,,,,,,,,,,,,,,,,,,,,,,,,,,,,,,,,,,,,,,,,,,,i,1,0,7,7,42,1,凶狠,i,0.9885,,,,,,,,,,,,
,,,,,,,,,,,,,1,001,2024-08-25_22h04.39.309,IAT(Formal),2021.2.3,Win32,59.88023952,,,,,,,,,,,,,,,,,,,,,,,,,,,,,,,,,,,,,,,,,,,,,e,1,0,8,8,58,1,他人,e,0.9881,,,,,,,,,,,,
,,,,,,,,,,,,,1,001,2024-08-25_22h04.39.309,IAT(Formal),2021.2.3,Win32,59.88023952,,,,,,,,,,,,,,,,,,,,,,,,,,,,,,,,,,,,,,,,,,,,,i,1,0,9,9,72,1,我们,i,0.7905,,,,,,,,,,,,
,,,,,,,,,,,,,1,001,2024-08-25_22h04.39.309,IAT(Formal),2021.2.3,Win32,59.88023952,,,,,,,,,,,,,,,,,,,,,,,,,,,,,,,,,,,,,,,,,,,,,e,1,0,10,10,55,1,他,e,0.8568,,,,,,,,,,,,
,,,,,,,,,,,,,1,001,2024-08-25_22h04.39.309,IAT(Formal),2021.2.3,Win32,59.88023952,,,,,,,,,,,,,,,,,,,,,,,,,,,,,,,,,,,,,,,,,,,,,i,1,0,11,11,33,1,刻薄,i,1.044,,,,,,,,,,,,
,,,,,,,,,,,,,1,001,2024-08-25_22h04.39.309,IAT(Formal),2021.2.3,Win32,59.88023952,,,,,,,,,,,,,,,,,,,,,,,,,,,,,,,,,,,,,,,,,,,,,e,1,0,12,12,23,1,公正,e,0.9023,,,,,,,,,,,,
,,,,,,,,,,,,,1,001,2024-08-25_22h04.39.309,IAT(Formal),2021.2.3,Win32,59.88023952,,,,,,,,,,,,,,,,,,,,,,,,,,,,,,,,,,,,,,,,,,,,,i,1,0,13,13,35,1,消极,i,0.8414,,,,,,,,,,,,
,,,,,,,,,,,,,1,001,2024-08-25_22h04.39.309,IAT(Formal),2021.2.3,Win32,59.88023952,,,,,,,,,,,,,,,,,,,,,,,,,,,,,,,,,,,,,,,,,,,,,i,1,0,14,14,74,1,俺,i,0.8851,,,,,,,,,,,,
,,,,,,,,,,,,,1,001,2024-08-25_22h04.39.309,IAT(Formal),2021.2.3,Win32,59.88023952,,,,,,,,,,,,,,,,,,,,,,,,,,,,,,,,,,,,,,,,,,,,,e,1,0,15,15,6,1,他们,e,0.76,,,,,,,,,,,,
,,,,,,,,,,,,,1,001,2024-08-25_22h04.39.309,IAT(Formal),2021.2.3,Win32,59.88023952,,,,,,,,,,,,,,,,,,,,,,,,,,,,,,,,,,,,,,,,,,,,,e,1,0,16,16,65,1,他,e,0.885,,,,,,,,,,,,
,,,,,,,,,,,,,1,001,2024-08-25_22h04.39.309,IAT(Formal),2021.2.3,Win32,59.88023952,,,,,,,,,,,,,,,,,,,,,,,,,,,,,,,,,,,,,,,,,,,,,i,1,0,17,17,51,1,我的,i,0.7406,,,,,,,,,,,,
,,,,,,,,,,,,,1,001,2024-08-25_22h04.39.309,IAT(Formal),2021.2.3,Win32,59.88023952,,,,,,,,,,,,,,,,,,,,,,,,,,,,,,,,,,,,,,,,,,,,,i,1,0,18,18,73,1,自己,i,1.0175,,,,,,,,,,,,
,,,,,,,,,,,,,1,001,2024-08-25_22h04.39.309,IAT(Formal),2021.2.3,Win32,59.88023952,,,,,,,,,,,,,,,,,,,,,,,,,,,,,,,,,,,,,,,,,,,,,e,1,0,19,19,8,1,他人,e,0.7559,,,,,,,,,,,,
,,,,,,,,,,,,,1,001,2024-08-25_22h04.39.309,IAT(Formal),2021.2.3,Win32,59.88023952,,,,,,,,,,,,,,,,,,,,,,,,,,,,,,,,,,,,,,,,,,,,,i,0,0,20,20,13,1,杰出,e,1.07,,,,,,,,,,,,
,,,,,,,,,,,,,1,001,2024-08-25_22h04.39.309,IAT(Formal),2021.2.3,Win32,59.88023952,,,,,,,,,,,,,,,,,,,,,,,,,,,,,,,,,,,,,,,,,,,,,e,1,0,21,21,57,1,他的,e,0.7354,,,,,,,,,,,,
,,,,,,,,,,,,,1,001,2024-08-25_22h04.39.309,IAT(Formal),2021.2.3,Win32,59.88023952,,,,,,,,,,,,,,,,,,,,,,,,,,,,,,,,,,,,,,,,,,,,,i,1,0,22,22,70,1,我,i,0.5018,,,,,,,,,,,,
,,,,,,,,,,,,,1,001,2024-08-25_22h04.39.309,IAT(Formal),2021.2.3,Win32,59.88023952,,,,,,,,,,,,,,,,,,,,,,,,,,,,,,,,,,,,,,,,,,,,,e,0,0,23,23,39,1,冒失,i,0.9732,,,,,,,,,,,,
,,,,,,,,,,,,,1,001,2024-08-25_22h04.39.309,IAT(Formal),2021.2.3,Win32,59.88023952,,,,,,,,,,,,,,,,,,,,,,,,,,,,,,,,,,,,,,,,,,,,,i,0,0,24,24,7,1,他的,e,0.6202,,,,,,,,,,,,
,,,,,,,,,,,,,1,001,2024-08-25_22h04.39.309,IAT(Formal),2021.2.3,Win32,59.88023952,,,,,,,,,,,,,,,,,,,,,,,,,,,,,,,,,,,,,,,,,,,,,i,1,0,25,25,3,1,自己,i,0.8573,,,,,,,,,,,,
,,,,,,,,,,,,,1,001,2024-08-25_22h04.39.309,IAT(Formal),2021.2.3,Win32,59.88023952,,,,,,,,,,,,,,,,,,,,,,,,,,,,,,,,,,,,,,,,,,,,,i,0,0,26,26,16,1,正直,e,0.9843,,,,,,,,,,,,
,,,,,,,,,,,,,1,001,2024-08-25_22h04.39.309,IAT(Formal),2021.2.3,Win32,59.88023952,,,,,,,,,,,,,,,,,,,,,,,,,,,,,,,,,,,,,,,,,,,,,e,1,0,27,27,77,1,他的,e,0.623,,,,,,,,,,,,
,,,,,,,,,,,,,1,001,2024-08-25_22h04.39.309,IAT(Formal),2021.2.3,Win32,59.88023952,,,,,,,,,,,,,,,,,,,,,,,,,,,,,,,,,,,,,,,,,,,,,e,0,0,28,28,46,1,野蛮,i,0.8531,,,,,,,,,,,,
,,,,,,,,,,,,,1,001,2024-08-25_22h04.39.309,IAT(Formal),2021.2.3,Win32,59.88023952,,,,,,,,,,,,,,,,,,,,,,,,,,,,,,,,,,,,,,,,,,,,,i,0,0,29,29,26,1,冷静,e,0.6578,,,,,,,,,,,,
,,,,,,,,,,,,,1,001,2024-08-25_22h04.39.309,IAT(Formal),2021.2.3,Win32,59.88023952,,,,,,,,,,,,,,,,,,,,,,,,,,,,,,,,,,,,,,,,,,,,,i,0,0,30,30,9,1,其他,e,0.7515,,,,,,,,,,,,
,,,,,,,,,,,,,1,001,2024-08-25_22h04.39.309,IAT(Formal),2021.2.3,Win32,59.88023952,,,,,,,,,,,,,,,,,,,,,,,,,,,,,,,,,,,,,,,,,,,,,e,0,0,31,31,40,1,执拗,i,0.4388,,,,,,,,,,,,
,,,,,,,,,,,,,1,001,2024-08-25_22h04.39.309,IAT(Formal),2021.2.3,Win32,59.88023952,,,,,,,,,,,,,,,,,,,,,,,,,,,,,,,,,,,,,,,,,,,,,i,1,0,32,32,1,1,我的,i,0.6907,,,,,,,,,,,,
,,,,,,,,,,,,,1,001,2024-08-25_22h04.39.309,IAT(Formal),2021.2.3,Win32,59.88023952,,,,,,,,,,,,,,,,,,,,,,,,,,,,,,,,,,,,,,,,,,,,,i,0,0,33,33,10,1,优秀,e,0.8192,,,,,,,,,,,,
,,,,,,,,,,,,,1,001,2024-08-25_22h04.39.309,IAT(Formal),2021.2.3,Win32,59.88023952,,,,,,,,,,,,,,,,,,,,,,,,,,,,,,,,,,,,,,,,,,,,,e,0,0,34,34,43,1,自私,i,1.1181,,,,,,,,,,,,
,,,,,,,,,,,,,1,001,2024-08-25_22h04.39.309,IAT(Formal),2021.2.3,Win32,59.88023952,,,,,,,,,,,,,,,,,,,,,,,,,,,,,,,,,,,,,,,,,,,,,i,0,0,35,35,19,1,机智,e,0.718,,,,,,,,,,,,
,,,,,,,,,,,,,1,001,2024-08-25_22h04.39.309,IAT(Formal),2021.2.3,Win32,59.88023952,,,,,,,,,,,,,,,,,,,,,,,,,,,,,,,,,,,,,,,,,,,,,i,1,0,36,36,63,1,自己,i,0.9392,,,,,,,,,,,,
,,,,,,,,,,,,,1,001,2024-08-25_22h04.39.309,IAT(Formal),2021.2.3,Win32,59.88023952,,,,,,,,,,,,,,,,,,,,,,,,,,,,,,,,,,,,,,,,,,,,,e,0,0,37,37,71,1,我的,i,0.534,,,,,,,,,,,,
,,,,,,,,,,,,,1,001,2024-08-25_22h04.39.309,IAT(Formal),2021.2.3,Win32,59.88023952,,,,,,,,,,,,,,,,,,,,,,,,,,,,,,,,,,,,,,,,,,,,,i,0,0,38,38,14,1,乐观,e,0.9232,,,,,,,,,,,,
,,,,,,,,,,,,,1,001,2024-08-25_22h04.39.309,IAT(Formal),2021.2.3,Win32,59.88023952,,,,,,,,,,,,,,,,,,,,,,,,,,,,,,,,,,,,,,,,,,,,,i,1,0,39,39,4,1,俺,i,0.9357,,,,,,,,,,,,
,,,,,,,,,,,,,1,001,2024-08-25_22h04.39.309,IAT(Formal),2021.2.3,Win32,59.88023952,,,,,,,,,,,,,,,,,,,,,,,,,,,,,,,,,,,,,,,,,,,,,i,1,0,40,40,38,1,鲁莽,i,1.2246,,,,,,,,,,,,
,,,,,,,,,,,,,1,001,2024-08-25_22h04.39.309,IAT(Formal),2021.2.3,Win32,59.88023952,,,,,,,,,,,,,,,,,,,,,,,,,,,,,,,,,,,,,,,,,,,,,i,1,0,41,41,60,1,我,i,0.951,,,,,,,,,,,,
,,,,,,,,,,,,,1,001,2024-08-25_22h04.39.309,IAT(Formal),2021.2.3,Win32,59.88023952,,,,,,,,,,,,,,,,,,,,,,,,,,,,,,,,,,,,,,,,,,,,,i,1,0,42,42,53,1,自己,i,0.7004,,,,,,,,,,,,
,,,,,,,,,,,,,1,001,2024-08-25_22h04.39.309,IAT(Formal),2021.2.3,Win32,59.88023952,,,,,,,,,,,,,,,,,,,,,,,,,,,,,,,,,,,,,,,,,,,,,i,1,0,43,43,36,1,自卑,i,1.1351,,,,,,,,,,,,
,,,,,,,,,,,,,1,001,2024-08-25_22h04.39.309,IAT(Formal),2021.2.3,Win32,59.88023952,,,,,,,,,,,,,,,,,,,,,,,,,,,,,,,,,,,,,,,,,,,,,i,1,0,44,44,50,1,我,i,0.9161,,,,,,,,,,,,
,,,,,,,,,,,,,1,001,2024-08-25_22h04.39.309,IAT(Formal),2021.2.3,Win32,59.88023952,,,,,,,,,,,,,,,,,,,,,,,,,,,,,,,,,,,,,,,,,,,,,i,0,0,45,45,79,1,其他,e,0.8015,,,,,,,,,,,,
,,,,,,,,,,,,,1,001,2024-08-25_22h04.39.309,IAT(Formal),2021.2.3,Win32,59.88023952,,,,,,,,,,,,,,,,,,,,,,,,,,,,,,,,,,,,,,,,,,,,,e,1,0,46,46,75,1,他,e,1.1557,,,,,,,,,,,,
,,,,,,,,,,,,,1,001,2024-08-25_22h04.39.309,IAT(Formal),2021.2.3,Win32,59.88023952,,,,,,,,,,,,,,,,,,,,,,,,,,,,,,,,,,,,,,,,,,,,,e,1,0,47,47,76,1,他们,e,0.6178,,,,,,,,,,,,
,,,,,,,,,,,,,1,001,2024-08-25_22h04.39.309,IAT(Formal),2021.2.3,Win32,59.88023952,,,,,,,,,,,,,,,,,,,,,,,,,,,,,,,,,,,,,,,,,,,,,e,1,0,48,48,11,1,崇高,e,0.773,,,,,,,,,,,,
,,,,,,,,,,,,,1,001,2024-08-25_22h04.39.309,IAT(Formal),2021.2.3,Win32,59.88023952,,,,,,,,,,,,,,,,,,,,,,,,,,,,,,,,,,,,,,,,,,,,,i,1,0,49,49,2,1,我们,i,0.9189,,,,,,,,,,,,
,,,,,,,,,,,,,1,001,2024-08-25_22h04.39.309,IAT(Formal),2021.2.3,Win32,59.88023952,,,,,,,,,,,,,,,,,,,,,,,,,,,,,,,,,,,,,,,,,,,,,i,0,0,50,50,22,1,无私,e,1.1515,,,,,,,,,,,,
,,,,,,,,,,,,,1,001,2024-08-25_22h04.39.309,IAT(Formal),2021.2.3,Win32,59.88023952,,,,,,,,,,,,,,,,,,,,,,,,,,,,,,,,,,,,,,,,,,,,,i,1,0,51,51,30,1,卑鄙,i,1.0515,,,,,,,,,,,,
,,,,,,,,,,,,,1,001,2024-08-25_22h04.39.309,IAT(Formal),2021.2.3,Win32,59.88023952,,,,,,,,,,,,,,,,,,,,,,,,,,,,,,,,,,,,,,,,,,,,,e,1,0,52,52,20,1,认真,e,0.9581,,,,,,,,,,,,
,,,,,,,,,,,,,1,001,2024-08-25_22h04.39.309,IAT(Formal),2021.2.3,Win32,59.88023952,,,,,,,,,,,,,,,,,,,,,,,,,,,,,,,,,,,,,,,,,,,,,i,1,0,53,53,54,1,俺,i,0.741,,,,,,,,,,,,
,,,,,,,,,,,,,1,001,2024-08-25_22h04.39.309,IAT(Formal),2021.2.3,Win32,59.88023952,,,,,,,,,,,,,,,,,,,,,,,,,,,,,,,,,,,,,,,,,,,,,e,1,0,54,54,5,1,他,e,1.1924,,,,,,,,,,,,
,,,,,,,,,,,,,1,001,2024-08-25_22h04.39.309,IAT(Formal),2021.2.3,Win32,59.88023952,,,,,,,,,,,,,,,,,,,,,,,,,,,,,,,,,,,,,,,,,,,,,i,1,0,55,55,48,1,轻率,i,0.9911,,,,,,,,,,,,
,,,,,,,,,,,,,1,001,2024-08-25_22h04.39.309,IAT(Formal),2021.2.3,Win32,59.88023952,,,,,,,,,,,,,,,,,,,,,,,,,,,,,,,,,,,,,,,,,,,,,e,1,0,56,56,12,1,聪明,e,0.7765,,,,,,,,,,,,
,,,,,,,,,,,,,1,001,2024-08-25_22h04.39.309,IAT(Formal),2021.2.3,Win32,59.88023952,,,,,,,,,,,,,,,,,,,,,,,,,,,,,,,,,,,,,,,,,,,,,e,1,0,57,57,17,1,勇敢,e,0.7071,,,,,,,,,,,,
,,,,,,,,,,,,,1,001,2024-08-25_22h04.39.309,IAT(Formal),2021.2.3,Win32,59.88023952,,,,,,,,,,,,,,,,,,,,,,,,,,,,,,,,,,,,,,,,,,,,,e,1,0,58,58,68,1,他人,e,1.0093,,,,,,,,,,,,
,,,,,,,,,,,,,1,001,2024-08-25_22h04.39.309,IAT(Formal),2021.2.3,Win32,59.88023952,,,,,,,,,,,,,,,,,,,,,,,,,,,,,,,,,,,,,,,,,,,,,i,1,0,59,59,47,1,固执,i,0.9405,,,,,,,,,,,,
,,,,,,,,,,,,,1,001,2024-08-25_22h04.39.309,IAT(Formal),2021.2.3,Win32,59.88023952,,,,,,,,,,,,,,,,,,,,,,,,,,,,,,,,,,,,,,,,,,,,,e,1,0,60,60,29,1,诚恳,e,0.7679,,,,,,,,,,,,
,,,,,,,,,,,,,1,001,2024-08-25_22h04.39.309,IAT(Formal),2021.2.3,Win32,59.88023952,,,,,,,,,,,,,,,,,,,,,,,,,,,,,,,,,,,,,,,,,,,,,e,1,0,61,61,28,1,活泼,e,0.6857,,,,,,,,,,,,
,,,,,,,,,,,,,1,001,2024-08-25_22h04.39.309,IAT(Formal),2021.2.3,Win32,59.88023952,,,,,,,,,,,,,,,,,,,,,,,,,,,,,,,,,,,,,,,,,,,,,i,1,0,62,62,64,1,俺,i,0.719,,,,,,,,,,,,
,,,,,,,,,,,,,1,001,2024-08-25_22h04.39.309,IAT(Formal),2021.2.3,Win32,59.88023952,,,,,,,,,,,,,,,,,,,,,,,,,,,,,,,,,,,,,,,,,,,,,i,0,0,63,63,18,1,勤奋,e,0.9529,,,,,,,,,,,,
,,,,,,,,,,,,,1,001,2024-08-25_22h04.39.309,IAT(Formal),2021.2.3,Win32,59.88023952,,,,,,,,,,,,,,,,,,,,,,,,,,,,,,,,,,,,,,,,,,,,,e,1,0,64,64,25,1,细腻,e,0.8531,,,,,,,,,,,,
,,,,,,,,,,,,,1,001,2024-08-25_22h04.39.309,IAT(Formal),2021.2.3,Win32,59.88023952,,,,,,,,,,,,,,,,,,,,,,,,,,,,,,,,,,,,,,,,,,,,,i,1,0,65,65,0,1,我,i,0.7251,,,,,,,,,,,,
,,,,,,,,,,,,,1,001,2024-08-25_22h04.39.309,IAT(Formal),2021.2.3,Win32,59.88023952,,,,,,,,,,,,,,,,,,,,,,,,,,,,,,,,,,,,,,,,,,,,,e,1,0,66,66,21,1,稳重,e,0.9351,,,,,,,,,,,,
,,,,,,,,,,,,,1,001,2024-08-25_22h04.39.309,IAT(Formal),2021.2.3,Win32,59.88023952,,,,,,,,,,,,,,,,,,,,,,,,,,,,,,,,,,,,,,,,,,,,,i,1,0,67,67,37,1,傲慢,i,1.0853,,,,,,,,,,,,
,,,,,,,,,,,,,1,001,2024-08-25_22h04.39.309,IAT(Formal),2021.2.3,Win32,59.88023952,,,,,,,,,,,,,,,,,,,,,,,,,,,,,,,,,,,,,,,,,,,,,e,1,0,68,68,66,1,他们,e,0.8234,,,,,,,,,,,,
,,,,,,,,,,,,,1,001,2024-08-25_22h04.39.309,IAT(Formal),2021.2.3,Win32,59.88023952,,,,,,,,,,,,,,,,,,,,,,,,,,,,,,,,,,,,,,,,,,,,,e,1,0,69,69,24,1,朴实,e,1.0835,,,,,,,,,,,,
,,,,,,,,,,,,,1,001,2024-08-25_22h04.39.309,IAT(Formal),2021.2.3,Win32,59.88023952,,,,,,,,,,,,,,,,,,,,,,,,,,,,,,,,,,,,,,,,,,,,,e,1,0,70,70,27,1,热情,e,0.6448,,,,,,,,,,,,
,,,,,,,,,,,,,1,001,2024-08-25_22h04.39.309,IAT(Formal),2021.2.3,Win32,59.88023952,,,,,,,,,,,,,,,,,,,,,,,,,,,,,,,,,,,,,,,,,,,,,i,1,0,71,71,41,1,散漫,i,0.6848,,,,,,,,,,,,
,,,,,,,,,,,,,1,001,2024-08-25_22h04.39.309,IAT(Formal),2021.2.3,Win32,59.88023952,,,,,,,,,,,,,,,,,,,,,,,,,,,,,,,,,,,,,,,,,,,,,i,0,0,72,72,67,1,他的,e,0.857,,,,,,,,,,,,
,,,,,,,,,,,,,1,001,2024-08-25_22h04.39.309,IAT(Formal),2021.2.3,Win32,59.88023952,,,,,,,,,,,,,,,,,,,,,,,,,,,,,,,,,,,,,,,,,,,,,i,1,0,73,73,52,1,我们,i,0.8018,,,,,,,,,,,,
,,,,,,,,,,,,,1,001,2024-08-25_22h04.39.309,IAT(Formal),2021.2.3,Win32,59.88023952,,,,,,,,,,,,,,,,,,,,,,,,,,,,,,,,,,,,,,,,,,,,,i,1,0,74,74,49,1,下贱,i,1.1012,,,,,,,,,,,,
,,,,,,,,,,,,,1,001,2024-08-25_22h04.39.309,IAT(Formal),2021.2.3,Win32,59.88023952,,,,,,,,,,,,,,,,,,,,,,,,,,,,,,,,,,,,,,,,,,,,,i,1,0,75,75,31,1,虚伪,i,0.8416,,,,,,,,,,,,
,,,,,,,,,,,,,1,001,2024-08-25_22h04.39.309,IAT(Formal),2021.2.3,Win32,59.88023952,,,,,,,,,,,,,,,,,,,,,,,,,,,,,,,,,,,,,,,,,,,,,e,1,0,76,76,78,1,他人,e,0.8514,,,,,,,,,,,,
,,,,,,,,,,,,,1,001,2024-08-25_22h04.39.309,IAT(Formal),2021.2.3,Win32,59.88023952,,,,,,,,,,,,,,,,,,,,,,,,,,,,,,,,,,,,,,,,,,,,,i,1,0,77,77,62,1,我们,i,0.636,,,,,,,,,,,,
,,,,,,,,,,,,,1,001,2024-08-25_22h04.39.309,IAT(Formal),2021.2.3,Win32,59.88023952,,,,,,,,,,,,,,,,,,,,,,,,,,,,,,,,,,,,,,,,,,,,,i,1,0,78,78,44,1,暴躁,i,1.072,,,,,,,,,,,,
,,,,,,,,,,,,,1,001,2024-08-25_22h04.39.309,IAT(Formal),2021.2.3,Win32,59.88023952,,,,,,,,,,,,,,,,,,,,,,,,,,,,,,,,,,,,,,,,,,,,,i,0,0,79,79,59,1,其他,e,0.7083,,,,,,,,,,,,
,,,,,,,,,,,,,1,001,2024-08-25_22h04.39.309,IAT(Formal),2021.2.3,Win32,59.88023952,,,,,,,,,,,,,,,,,,,,,,,,,,,,,,,,,,,,,,,,,,,,,,,,,,,,卑鄙,i,,space,22.1,i,1,0.7395,0,0,0,30,1,,
,,,,,,,,,,,,,1,001,2024-08-25_22h04.39.309,IAT(Formal),2021.2.3,Win32,59.88023952,,,,,,,,,,,,,,,,,,,,,,,,,,,,,,,,,,,,,,,,,,,,,,,,,,,,热情,e,,,,e,1,0.9069,0,1,1,27,1,,
,,,,,,,,,,,,,1,001,2024-08-25_22h04.39.309,IAT(Formal),2021.2.3,Win32,59.88023952,,,,,,,,,,,,,,,,,,,,,,,,,,,,,,,,,,,,,,,,,,,,,,,,,,,,他,e,,,,e,1,0.891,0,2,2,65,1,,
,,,,,,,,,,,,,1,001,2024-08-25_22h04.39.309,IAT(Formal),2021.2.3,Win32,59.88023952,,,,,,,,,,,,,,,,,,,,,,,,,,,,,,,,,,,,,,,,,,,,,,,,,,,,诚实,e,,,,e,1,0.8574,0,3,3,15,1,,
,,,,,,,,,,,,,1,001,2024-08-25_22h04.39.309,IAT(Formal),2021.2.3,Win32,59.88023952,,,,,,,,,,,,,,,,,,,,,,,,,,,,,,,,,,,,,,,,,,,,,,,,,,,,他的,e,,,,e,1,0.5419,0,4,4,57,1,,
,,,,,,,,,,,,,1,001,2024-08-25_22h04.39.309,IAT(Formal),2021.2.3,Win32,59.88023952,,,,,,,,,,,,,,,,,,,,,,,,,,,,,,,,,,,,,,,,,,,,,,,,,,,,其他,e,,,,e,1,0.7353,0,5,5,79,1,,
,,,,,,,,,,,,,1,001,2024-08-25_22h04.39.309,IAT(Formal),2021.2.3,Win32,59.88023952,,,,,,,,,,,,,,,,,,,,,,,,,,,,,,,,,,,,,,,,,,,,,,,,,,,,他们,e,,,,e,1,0.5895,0,6,6,76,1,,
,,,,,,,,,,,,,1,001,2024-08-25_22h04.39.309,IAT(Formal),2021.2.3,Win32,59.88023952,,,,,,,,,,,,,,,,,,,,,,,,,,,,,,,,,,,,,,,,,,,,,,,,,,,,他们,e,,,,e,1,0.5076,0,7,7,66,1,,
,,,,,,,,,,,,,1,001,2024-08-25_22h04.39.309,IAT(Formal),2021.2.3,Win32,59.88023952,,,,,,,,,,,,,,,,,,,,,,,,,,,,,,,,,,,,,,,,,,,,,,,,,,,,自己,i,,,,i,1,0.6599,0,8,8,63,1,,
,,,,,,,,,,,,,1,001,2024-08-25_22h04.39.309,IAT(Formal),2021.2.3,Win32,59.88023952,,,,,,,,,,,,,,,,,,,,,,,,,,,,,,,,,,,,,,,,,,,,,,,,,,,,他们,e,,,,e,1,0.7917,0,9,9,6,1,,
,,,,,,,,,,,,,1,001,2024-08-25_22h04.39.309,IAT(Formal),2021.2.3,Win32,59.88023952,,,,,,,,,,,,,,,,,,,,,,,,,,,,,,,,,,,,,,,,,,,,,,,,,,,,傲慢,i,,,,i,1,1.0078,0,10,10,37,1,,
,,,,,,,,,,,,,1,001,2024-08-25_22h04.39.309,IAT(Formal),2021.2.3,Win32,59.88023952,,,,,,,,,,,,,,,,,,,,,,,,,,,,,,,,,,,,,,,,,,,,,,,,,,,,俺,i,,,,e,0,1.1393,0,11,11,64,1,,
,,,,,,,,,,,,,1,001,2024-08-25_22h04.39.309,IAT(Formal),2021.2.3,Win32,59.88023952,,,,,,,,,,,,,,,,,,,,,,,,,,,,,,,,,,,,,,,,,,,,,,,,,,,,自己,i,,,,i,1,0.8908,0,12,12,53,1,,
,,,,,,,,,,,,,1,001,2024-08-25_22h04.39.309,IAT(Formal),2021.2.3,Win32,59.88023952,,,,,,,,,,,,,,,,,,,,,,,,,,,,,,,,,,,,,,,,,,,,,,,,,,,,勇敢,e,,,,e,1,1.1582,0,13,13,17,1,,
,,,,,,,,,,,,,1,001,2024-08-25_22h04.39.309,IAT(Formal),2021.2.3,Win32,59.88023952,,,,,,,,,,,,,,,,,,,,,,,,,,,,,,,,,,,,,,,,,,,,,,,,,,,,无私,e,,,,i,0,1.2259,0,14,14,22,1,,
,,,,,,,,,,,,,1,001,2024-08-25_22h04.39.309,IAT(Formal),2021.2.3,Win32,59.88023952,,,,,,,,,,,,,,,,,,,,,,,,,,,,,,,,,,,,,,,,,,,,,,,,,,,,暴躁,i,,,,i,1,0.8406,0,15,15,44,1,,
,,,,,,,,,,,,,1,001,2024-08-25_22h04.39.309,IAT(Formal),2021.2.3,Win32,59.88023952,,,,,,,,,,,,,,,,,,,,,,,,,,,,,,,,,,,,,,,,,,,,,,,,,,,,俺,i,,,,e,0,1.4407,0,16,16,74,1,,
,,,,,,,,,,,,,1,001,2024-08-25_22h04.39.309,IAT(Formal),2021.2.3,Win32,59.88023952,,,,,,,,,,,,,,,,,,,,,,,,,,,,,,,,,,,,,,,,,,,,,,,,,,,,自私,i,,,,,0,,0,17,17,43,1,,
,,,,,,,,,,,,,1,001,2024-08-25_22h04.39.309,IAT(Formal),2021.2.3,Win32,59.88023952,,,,,,,,,,,,,,,,,,,,,,,,,,,,,,,,,,,,,,,,,,,,,,,,,,,,机智,e,,,,e,1,0.9347,0,18,18,19,1,,
,,,,,,,,,,,,,1,001,2024-08-25_22h04.39.309,IAT(Formal),2021.2.3,Win32,59.88023952,,,,,,,,,,,,,,,,,,,,,,,,,,,,,,,,,,,,,,,,,,,,,,,,,,,,他,e,,,,i,0,0.7523,0,19,19,5,1,,
,,,,,,,,,,,,,1,001,2024-08-25_22h04.39.309,IAT(Formal),2021.2.3,Win32,59.88023952,,,,,,,,,,,,,,,,,,,,,,,,,,,,,,,,,,,,,,,,,,,,,,,,,,,,我们,i,,,,i,1,0.6747,0,20,20,52,1,,
,,,,,,,,,,,,,1,001,2024-08-25_22h04.39.309,IAT(Formal),2021.2.3,Win32,59.88023952,,,,,,,,,,,,,,,,,,,,,,,,,,,,,,,,,,,,,,,,,,,,,,,,,,,,愚蠢,i,,,,i,1,0.9568,0,21,21,32,1,,
,,,,,,,,,,,,,1,001,2024-08-25_22h04.39.309,IAT(Formal),2021.2.3,Win32,59.88023952,,,,,,,,,,,,,,,,,,,,,,,,,,,,,,,,,,,,,,,,,,,,,,,,,,,,自己,i,,,,e,0,0.7898,0,22,22,73,1,,
,,,,,,,,,,,,,1,001,2024-08-25_22h04.39.309,IAT(Formal),2021.2.3,Win32,59.88023952,,,,,,,,,,,,,,,,,,,,,,,,,,,,,,,,,,,,,,,,,,,,,,,,,,,,俺,i,,,,i,1,0.7182,0,23,23,54,1,,
,,,,,,,,,,,,,1,001,2024-08-25_22h04.39.309,IAT(Formal),2021.2.3,Win32,59.88023952,,,,,,,,,,,,,,,,,,,,,,,,,,,,,,,,,,,,,,,,,,,,,,,,,,,,正直,e,,,,e,1,0.9681,0,24,24,16,1,,
,,,,,,,,,,,,,1,001,2024-08-25_22h04.39.309,IAT(Formal),2021.2.3,Win32,59.88023952,,,,,,,,,,,,,,,,,,,,,,,,,,,,,,,,,,,,,,,,,,,,,,,,,,,,活泼,e,,,,e,1,0.7576,0,25,25,28,1,,
,,,,,,,,,,,,,1,001,2024-08-25_22h04.39.309,IAT(Formal),2021.2.3,Win32,59.88023952,,,,,,,,,,,,,,,,,,,,,,,,,,,,,,,,,,,,,,,,,,,,,,,,,,,,悲观,i,,,,i,1,0.7419,0,26,26,34,1,,
,,,,,,,,,,,,,1,001,2024-08-25_22h04.39.309,IAT(Formal),2021.2.3,Win32,59.88023952,,,,,,,,,,,,,,,,,,,,,,,,,,,,,,,,,,,,,,,,,,,,,,,,,,,,其他,e,,,,e,1,1.0575,0,27,27,59,1,,
,,,,,,,,,,,,,1,001,2024-08-25_22h04.39.309,IAT(Formal),2021.2.3,Win32,59.88023952,,,,,,,,,,,,,,,,,,,,,,,,,,,,,,,,,,,,,,,,,,,,,,,,,,,,朴实,e,,,,e,1,1.0242,0,28,28,24,1,,
,,,,,,,,,,,,,1,001,2024-08-25_22h04.39.309,IAT(Formal),2021.2.3,Win32,59.88023952,,,,,,,,,,,,,,,,,,,,,,,,,,,,,,,,,,,,,,,,,,,,,,,,,,,,认真,e,,,,e,1,0.7551,0,29,29,20,1,,
,,,,,,,,,,,,,1,001,2024-08-25_22h04.39.309,IAT(Formal),2021.2.3,Win32,59.88023952,,,,,,,,,,,,,,,,,,,,,,,,,,,,,,,,,,,,,,,,,,,,,,,,,,,,下贱,i,,,,i,1,0.7734,0,30,30,49,1,,
,,,,,,,,,,,,,1,001,2024-08-25_22h04.39.309,IAT(Formal),2021.2.3,Win32,59.88023952,,,,,,,,,,,,,,,,,,,,,,,,,,,,,,,,,,,,,,,,,,,,,,,,,,,,自卑,i,,,,i,1,1.2317,0,31,31,36,1,,
,,,,,,,,,,,,,1,001,2024-08-25_22h04.39.309,IAT(Formal),2021.2.3,Win32,59.88023952,,,,,,,,,,,,,,,,,,,,,,,,,,,,,,,,,,,,,,,,,,,,,,,,,,,,他人,e,,,,e,1,0.6727,0,32,32,58,1,,
,,,,,,,,,,,,,1,001,2024-08-25_22h04.39.309,IAT(Formal),2021.2.3,Win32,59.88023952,,,,,,,,,,,,,,,,,,,,,,,,,,,,,,,,,,,,,,,,,,,,,,,,,,,,轻率,i,,,,,0,,0,33,33,48,1,,
,,,,,,,,,,,,,1,001,2024-08-25_22h04.39.309,IAT(Formal),2021.2.3,Win32,59.88023952,,,,,,,,,,,,,,,,,,,,,,,,,,,,,,,,,,,,,,,,,,,,,,,,,,,,他人,e,,,,e,1,1.1576,0,34,34,8,1,,
,,,,,,,,,,,,,1,001,2024-08-25_22h04.39.309,IAT(Formal),2021.2.3,Win32,59.88023952,,,,,,,,,,,,,,,,,,,,,,,,,,,,,,,,,,,,,,,,,,,,,,,,,,,,优秀,e,,,,i,0,1.1833,0,35,35,10,1,,
,,,,,,,,,,,,,1,001,2024-08-25_22h04.39.309,IAT(Formal),2021.2.3,Win32,59.88023952,,,,,,,,,,,,,,,,,,,,,,,,,,,,,,,,,,,,,,,,,,,,,,,,,,,,乐观,e,,,,e,1,1.2233,0,36,36,14,1,,
,,,,,,,,,,,,,1,001,2024-08-25_22h04.39.309,IAT(Formal),2021.2.3,Win32,59.88023952,,,,,,,,,,,,,,,,,,,,,,,,,,,,,,,,,,,,,,,,,,,,,,,,,,,,我,i,,,,i,1,0.8077,0,37,37,50,1,,
,,,,,,,,,,,,,1,001,2024-08-25_22h04.39.309,IAT(Formal),2021.2.3,Win32,59.88023952,,,,,,,,,,,,,,,,,,,,,,,,,,,,,,,,,,,,,,,,,,,,,,,,,,,,野蛮,i,,,,i,1,1.1842,0,38,38,46,1,,
,,,,,,,,,,,,,1,001,2024-08-25_22h04.39.309,IAT(Formal),2021.2.3,Win32,59.88023952,,,,,,,,,,,,,,,,,,,,,,,,,,,,,,,,,,,,,,,,,,,,,,,,,,,,聪明,e,,,,e,1,0.7588,0,39,39,12,1,,
,,,,,,,,,,,,,1,001,2024-08-25_22h04.39.309,IAT(Formal),2021.2.3,Win32,59.88023952,,,,,,,,,,,,,,,,,,,,,,,,,,,,,,,,,,,,,,,,,,,,,,,,,,,,冷静,e,,,,e,1,0.7569,0,40,40,26,1,,
,,,,,,,,,,,,,1,001,2024-08-25_22h04.39.309,IAT(Formal),2021.2.3,Win32,59.88023952,,,,,,,,,,,,,,,,,,,,,,,,,,,,,,,,,,,,,,,,,,,,,,,,,,,,他,e,,,,e,1,0.8529,0,41,41,55,1,,
,,,,,,,,,,,,,1,001,2024-08-25_22h04.39.309,IAT(Formal),2021.2.3,Win32,59.88023952,,,,,,,,,,,,,,,,,,,,,,,,,,,,,,,,,,,,,,,,,,,,,,,,,,,,其他,e,,,,e,1,1.1408,0,42,42,69,1,,
,,,,,,,,,,,,,1,001,2024-08-25_22h04.39.309,IAT(Formal),2021.2.3,Win32,59.88023952,,,,,,,,,,,,,,,,,,,,,,,,,,,,,,,,,,,,,,,,,,,,,,,,,,,,崇高,e,,,,e,1,1.1427,0,43,43,11,1,,
,,,,,,,,,,,,,1,001,2024-08-25_22h04.39.309,IAT(Formal),2021.2.3,Win32,59.88023952,,,,,,,,,,,,,,,,,,,,,,,,,,,,,,,,,,,,,,,,,,,,,,,,,,,,他人,e,,,,i,0,0.8059,0,44,44,78,1,,
,,,,,,,,,,,,,1,001,2024-08-25_22h04.39.309,IAT(Formal),2021.2.3,Win32,59.88023952,,,,,,,,,,,,,,,,,,,,,,,,,,,,,,,,,,,,,,,,,,,,,,,,,,,,他人,e,,,,e,1,0.5857,0,45,45,68,1,,
,,,,,,,,,,,,,1,001,2024-08-25_22h04.39.309,IAT(Formal),2021.2.3,Win32,59.88023952,,,,,,,,,,,,,,,,,,,,,,,,,,,,,,,,,,,,,,,,,,,,,,,,,,,,冒失,i,,,,i,1,0.9736,0,46,46,39,1,,
,,,,,,,,,,,,,1,001,2024-08-25_22h04.39.309,IAT(Formal),2021.2.3,Win32,59.88023952,,,,,,,,,,,,,,,,,,,,,,,,,,,,,,,,,,,,,,,,,,,,,,,,,,,,俺,i,,,,i,1,1.0917,0,47,47,4,1,,
,,,,,,,,,,,,,1,001,2024-08-25_22h04.39.309,IAT(Formal),2021.2.3,Win32,59.88023952,,,,,,,,,,,,,,,,,,,,,,,,,,,,,,,,,,,,,,,,,,,,,,,,,,,,杰出,e,,,,e,1,0.973,0,48,48,13,1,,
,,,,,,,,,,,,,1,001,2024-08-25_22h04.39.309,IAT(Formal),2021.2.3,Win32,59.88023952,,,,,,,,,,,,,,,,,,,,,,,,,,,,,,,,,,,,,,,,,,,,,,,,,,,,他,e,,,,e,1,1.4056,0,49,49,75,1,,
,,,,,,,,,,,,,1,001,2024-08-25_22h04.39.309,IAT(Formal),2021.2.3,Win32,59.88023952,,,,,,,,,,,,,,,,,,,,,,,,,,,,,,,,,,,,,,,,,,,,,,,,,,,,我,i,,,,i,1,0.6248,0,50,50,70,1,,
,,,,,,,,,,,,,1,001,2024-08-25_22h04.39.309,IAT(Formal),2021.2.3,Win32,59.88023952,,,,,,,,,,,,,,,,,,,,,,,,,,,,,,,,,,,,,,,,,,,,,,,,,,,,他的,e,,,,e,1,0.8931,0,51,51,67,1,,
,,,,,,,,,,,,,1,001,2024-08-25_22h04.39.309,IAT(Formal),2021.2.3,Win32,59.88023952,,,,,,,,,,,,,,,,,,,,,,,,,,,,,,,,,,,,,,,,,,,,,,,,,,,,我们,i,,,,i,1,0.9018,0,52,52,2,1,,
,,,,,,,,,,,,,1,001,2024-08-25_22h04.39.309,IAT(Formal),2021.2.3,Win32,59.88023952,,,,,,,,,,,,,,,,,,,,,,,,,,,,,,,,,,,,,,,,,,,,,,,,,,,,诚恳,e,,,,e,1,1.0515,0,53,53,29,1,,
,,,,,,,,,,,,,1,001,2024-08-25_22h04.39.309,IAT(Formal),2021.2.3,Win32,59.88023952,,,,,,,,,,,,,,,,,,,,,,,,,,,,,,,,,,,,,,,,,,,,,,,,,,,,我的,i,,,,i,1,0.5562,0,54,54,1,1,,
,,,,,,,,,,,,,1,001,2024-08-25_22h04.39.309,IAT(Formal),2021.2.3,Win32,59.88023952,,,,,,,,,,,,,,,,,,,,,,,,,,,,,,,,,,,,,,,,,,,,,,,,,,,,我们,i,,,,i,1,0.5685,0,55,55,72,1,,
,,,,,,,,,,,,,1,001,2024-08-25_22h04.39.309,IAT(Formal),2021.2.3,Win32,59.88023952,,,,,,,,,,,,,,,,,,,,,,,,,,,,,,,,,,,,,,,,,,,,,,,,,,,,我们,i,,,,i,1,0.5532,0,56,56,62,1,,
,,,,,,,,,,,,,1,001,2024-08-25_22h04.39.309,IAT(Formal),2021.2.3,Win32,59.88023952,,,,,,,,,,,,,,,,,,,,,,,,,,,,,,,,,,,,,,,,,,,,,,,,,,,,散漫,i,,,,i,1,0.9854,0,57,57,41,1,,
,,,,,,,,,,,,,1,001,2024-08-25_22h04.39.309,IAT(Formal),2021.2.3,Win32,59.88023952,,,,,,,,,,,,,,,,,,,,,,,,,,,,,,,,,,,,,,,,,,,,,,,,,,,,他的,e,,,,e,1,0.9027,0,58,58,77,1,,
,,,,,,,,,,,,,1,001,2024-08-25_22h04.39.309,IAT(Formal),2021.2.3,Win32,59.88023952,,,,,,,,,,,,,,,,,,,,,,,,,,,,,,,,,,,,,,,,,,,,,,,,,,,,消极,i,,,,i,1,0.8516,0,59,59,35,1,,
,,,,,,,,,,,,,1,001,2024-08-25_22h04.39.309,IAT(Formal),2021.2.3,Win32,59.88023952,,,,,,,,,,,,,,,,,,,,,,,,,,,,,,,,,,,,,,,,,,,,,,,,,,,,其他,e,,,,e,1,1.1901,0,60,60,9,1,,
,,,,,,,,,,,,,1,001,2024-08-25_22h04.39.309,IAT(Formal),2021.2.3,Win32,59.88023952,,,,,,,,,,,,,,,,,,,,,,,,,,,,,,,,,,,,,,,,,,,,,,,,,,,,我,i,,,,i,1,0.8424,0,61,61,0,1,,
,,,,,,,,,,,,,1,001,2024-08-25_22h04.39.309,IAT(Formal),2021.2.3,Win32,59.88023952,,,,,,,,,,,,,,,,,,,,,,,,,,,,,,,,,,,,,,,,,,,,,,,,,,,,我的,i,,,,i,1,0.744,0,62,62,51,1,,
,,,,,,,,,,,,,1,001,2024-08-25_22h04.39.309,IAT(Formal),2021.2.3,Win32,59.88023952,,,,,,,,,,,,,,,,,,,,,,,,,,,,,,,,,,,,,,,,,,,,,,,,,,,,我,i,,,,i,1,0.9404,0,63,63,60,1,,
,,,,,,,,,,,,,1,001,2024-08-25_22h04.39.309,IAT(Formal),2021.2.3,Win32,59.88023952,,,,,,,,,,,,,,,,,,,,,,,,,,,,,,,,,,,,,,,,,,,,,,,,,,,,他们,e,,,,e,1,0.7515,0,64,64,56,1,,
,,,,,,,,,,,,,1,001,2024-08-25_22h04.39.309,IAT(Formal),2021.2.3,Win32,59.88023952,,,,,,,,,,,,,,,,,,,,,,,,,,,,,,,,,,,,,,,,,,,,,,,,,,,,虚伪,i,,,,i,1,0.7072,0,65,65,31,1,,
,,,,,,,,,,,,,1,001,2024-08-25_22h04.39.309,IAT(Formal),2021.2.3,Win32,59.88023952,,,,,,,,,,,,,,,,,,,,,,,,,,,,,,,,,,,,,,,,,,,,,,,,,,,,勤奋,e,,,,e,1,0.7547,0,66,66,18,1,,
,,,,,,,,,,,,,1,001,2024-08-25_22h04.39.309,IAT(Formal),2021.2.3,Win32,59.88023952,,,,,,,,,,,,,,,,,,,,,,,,,,,,,,,,,,,,,,,,,,,,,,,,,,,,固执,i,,,,e,0,1.3407,0,67,67,47,1,,
,,,,,,,,,,,,,1,001,2024-08-25_22h04.39.309,IAT(Formal),2021.2.3,Win32,59.88023952,,,,,,,,,,,,,,,,,,,,,,,,,,,,,,,,,,,,,,,,,,,,,,,,,,,,我的,i,,,,e,0,0.8173,0,68,68,61,1,,
,,,,,,,,,,,,,1,001,2024-08-25_22h04.39.309,IAT(Formal),2021.2.3,Win32,59.88023952,,,,,,,,,,,,,,,,,,,,,,,,,,,,,,,,,,,,,,,,,,,,,,,,,,,,执拗,i,,,,i,1,1.0918,0,69,69,40,1,,
,,,,,,,,,,,,,1,001,2024-08-25_22h04.39.309,IAT(Formal),2021.2.3,Win32,59.88023952,,,,,,,,,,,,,,,,,,,,,,,,,,,,,,,,,,,,,,,,,,,,,,,,,,,,凶狠,i,,,,i,1,1.0014,0,70,70,42,1,,
,,,,,,,,,,,,,1,001,2024-08-25_22h04.39.309,IAT(Formal),2021.2.3,Win32,59.88023952,,,,,,,,,,,,,,,,,,,,,,,,,,,,,,,,,,,,,,,,,,,,,,,,,,,,公正,e,,,,e,1,0.6588,0,71,71,23,1,,
,,,,,,,,,,,,,1,001,2024-08-25_22h04.39.309,IAT(Formal),2021.2.3,Win32,59.88023952,,,,,,,,,,,,,,,,,,,,,,,,,,,,,,,,,,,,,,,,,,,,,,,,,,,,猖狂,i,,,,i,1,0.7445,0,72,72,45,1,,
,,,,,,,,,,,,,1,001,2024-08-25_22h04.39.309,IAT(Formal),2021.2.3,Win32,59.88023952,,,,,,,,,,,,,,,,,,,,,,,,,,,,,,,,,,,,,,,,,,,,,,,,,,,,稳重,e,,,,e,1,0.6916,0,73,73,21,1,,
,,,,,,,,,,,,,1,001,2024-08-25_22h04.39.309,IAT(Formal),2021.2.3,Win32,59.88023952,,,,,,,,,,,,,,,,,,,,,,,,,,,,,,,,,,,,,,,,,,,,,,,,,,,,鲁莽,i,,,,i,1,0.6822,0,74,74,38,1,,
,,,,,,,,,,,,,1,001,2024-08-25_22h04.39.309,IAT(Formal),2021.2.3,Win32,59.88023952,,,,,,,,,,,,,,,,,,,,,,,,,,,,,,,,,,,,,,,,,,,,,,,,,,,,细腻,e,,,,e,1,0.7515,0,75,75,25,1,,
,,,,,,,,,,,,,1,001,2024-08-25_22h04.39.309,IAT(Formal),2021.2.3,Win32,59.88023952,,,,,,,,,,,,,,,,,,,,,,,,,,,,,,,,,,,,,,,,,,,,,,,,,,,,刻薄,i,,,,i,1,0.6905,0,76,76,33,1,,
,,,,,,,,,,,,,1,001,2024-08-25_22h04.39.309,IAT(Formal),2021.2.3,Win32,59.88023952,,,,,,,,,,,,,,,,,,,,,,,,,,,,,,,,,,,,,,,,,,,,,,,,,,,,他的,e,,,,e,1,0.8065,0,77,77,7,1,,
,,,,,,,,,,,,,1,001,2024-08-25_22h04.39.309,IAT(Formal),2021.2.3,Win32,59.88023952,,,,,,,,,,,,,,,,,,,,,,,,,,,,,,,,,,,,,,,,,,,,,,,,,,,,我的,i,,,,i,1,0.9049,0,78,78,71,1,,
,,,,,,,,,,,,,1,001,2024-08-25_22h04.39.309,IAT(Formal),2021.2.3,Win32,59.88023952,,,,,,,,,,,,,,,,,,,,,,,,,,,,,,,,,,,,,,,,,,,,,,,,,,,,自己,i,,,,i,1,0.569,0,79,79,3,1,,
,,,,,,,,,,,,,1,001,2024-08-25_22h04.39.309,IAT(Formal),2021.2.3,Win32,59.88023952,,,,,,,,,,,,,,,,,,,,,,,,,,,,,,,,,,,,,,,,,,,,,,,,,,,,我的,i,,,,e,0,0.4985,1,0,80,71,1,,
,,,,,,,,,,,,,1,001,2024-08-25_22h04.39.309,IAT(Formal),2021.2.3,Win32,59.88023952,,,,,,,,,,,,,,,,,,,,,,,,,,,,,,,,,,,,,,,,,,,,,,,,,,,,我,i,,,,i,1,0.6909,1,1,81,50,1,,
,,,,,,,,,,,,,1,001,2024-08-25_22h04.39.309,IAT(Formal),2021.2.3,Win32,59.88023952,,,,,,,,,,,,,,,,,,,,,,,,,,,,,,,,,,,,,,,,,,,,,,,,,,,,我们,i,,,,i,1,0.6911,1,2,82,2,1,,
,,,,,,,,,,,,,1,001,2024-08-25_22h04.39.309,IAT(Formal),2021.2.3,Win32,59.88023952,,,,,,,,,,,,,,,,,,,,,,,,,,,,,,,,,,,,,,,,,,,,,,,,,,,,朴实,e,,,,e,1,0.789,1,3,83,24,1,,
,,,,,,,,,,,,,1,001,2024-08-25_22h04.39.309,IAT(Formal),2021.2.3,Win32,59.88023952,,,,,,,,,,,,,,,,,,,,,,,,,,,,,,,,,,,,,,,,,,,,,,,,,,,,我,i,,,,e,0,1.124,1,4,84,60,1,,
,,,,,,,,,,,,,1,001,2024-08-25_22h04.39.309,IAT(Formal),2021.2.3,Win32,59.88023952,,,,,,,,,,,,,,,,,,,,,,,,,,,,,,,,,,,,,,,,,,,,,,,,,,,,聪明,e,,,,e,1,0.6902,1,5,85,12,1,,
,,,,,,,,,,,,,1,001,2024-08-25_22h04.39.309,IAT(Formal),2021.2.3,Win32,59.88023952,,,,,,,,,,,,,,,,,,,,,,,,,,,,,,,,,,,,,,,,,,,,,,,,,,,,悲观,i,,,,i,1,0.8054,1,6,86,34,1,,
,,,,,,,,,,,,,1,001,2024-08-25_22h04.39.309,IAT(Formal),2021.2.3,Win32,59.88023952,,,,,,,,,,,,,,,,,,,,,,,,,,,,,,,,,,,,,,,,,,,,,,,,,,,,其他,e,,,,i,0,0.8729,1,7,87,9,1,,
,,,,,,,,,,,,,1,001,2024-08-25_22h04.39.309,IAT(Formal),2021.2.3,Win32,59.88023952,,,,,,,,,,,,,,,,,,,,,,,,,,,,,,,,,,,,,,,,,,,,,,,,,,,,他人,e,,,,e,1,0.6177,1,8,88,58,1,,
,,,,,,,,,,,,,1,001,2024-08-25_22h04.39.309,IAT(Formal),2021.2.3,Win32,59.88023952,,,,,,,,,,,,,,,,,,,,,,,,,,,,,,,,,,,,,,,,,,,,,,,,,,,,俺,i,,,,i,1,0.6856,1,9,89,4,1,,
,,,,,,,,,,,,,1,001,2024-08-25_22h04.39.309,IAT(Formal),2021.2.3,Win32,59.88023952,,,,,,,,,,,,,,,,,,,,,,,,,,,,,,,,,,,,,,,,,,,,,,,,,,,,他们,e,,,,e,1,0.6344,1,10,90,56,1,,
,,,,,,,,,,,,,1,001,2024-08-25_22h04.39.309,IAT(Formal),2021.2.3,Win32,59.88023952,,,,,,,,,,,,,,,,,,,,,,,,,,,,,,,,,,,,,,,,,,,,,,,,,,,,冒失,i,,,,e,0,0.9514,1,11,91,39,1,,
,,,,,,,,,,,,,1,001,2024-08-25_22h04.39.309,IAT(Formal),2021.2.3,Win32,59.88023952,,,,,,,,,,,,,,,,,,,,,,,,,,,,,,,,,,,,,,,,,,,,,,,,,,,,他的,e,,,,e,1,0.8176,1,12,92,57,1,,
,,,,,,,,,,,,,1,001,2024-08-25_22h04.39.309,IAT(Formal),2021.2.3,Win32,59.88023952,,,,,,,,,,,,,,,,,,,,,,,,,,,,,,,,,,,,,,,,,,,,,,,,,,,,他们,e,,,,e,1,1.2523,1,13,93,76,1,,
,,,,,,,,,,,,,1,001,2024-08-25_22h04.39.309,IAT(Formal),2021.2.3,Win32,59.88023952,,,,,,,,,,,,,,,,,,,,,,,,,,,,,,,,,,,,,,,,,,,,,,,,,,,,散漫,i,,,,i,1,0.8413,1,14,94,41,1,,
,,,,,,,,,,,,,1,001,2024-08-25_22h04.39.309,IAT(Formal),2021.2.3,Win32,59.88023952,,,,,,,,,,,,,,,,,,,,,,,,,,,,,,,,,,,,,,,,,,,,,,,,,,,,我们,i,,,,i,1,0.9768,1,15,95,62,1,,
,,,,,,,,,,,,,1,001,2024-08-25_22h04.39.309,IAT(Formal),2021.2.3,Win32,59.88023952,,,,,,,,,,,,,,,,,,,,,,,,,,,,,,,,,,,,,,,,,,,,,,,,,,,,我,i,,,,i,1,0.5552,1,16,96,0,1,,
,,,,,,,,,,,,,1,001,2024-08-25_22h04.39.309,IAT(Formal),2021.2.3,Win32,59.88023952,,,,,,,,,,,,,,,,,,,,,,,,,,,,,,,,,,,,,,,,,,,,,,,,,,,,傲慢,i,,,,e,0,0.7819,1,17,97,37,1,,
,,,,,,,,,,,,,1,001,2024-08-25_22h04.39.309,IAT(Formal),2021.2.3,Win32,59.88023952,,,,,,,,,,,,,,,,,,,,,,,,,,,,,,,,,,,,,,,,,,,,,,,,,,,,热情,e,,,,e,1,0.7856,1,18,98,27,1,,
,,,,,,,,,,,,,1,001,2024-08-25_22h04.39.309,IAT(Formal),2021.2.3,Win32,59.88023952,,,,,,,,,,,,,,,,,,,,,,,,,,,,,,,,,,,,,,,,,,,,,,,,,,,,其他,e,,,,i,0,0.8563,1,19,99,79,1,,
,,,,,,,,,,,,,1,001,2024-08-25_22h04.39.309,IAT(Formal),2021.2.3,Win32,59.88023952,,,,,,,,,,,,,,,,,,,,,,,,,,,,,,,,,,,,,,,,,,,,,,,,,,,,他人,e,,,,e,1,0.822,1,20,100,78,1,,
,,,,,,,,,,,,,1,001,2024-08-25_22h04.39.309,IAT(Formal),2021.2.3,Win32,59.88023952,,,,,,,,,,,,,,,,,,,,,,,,,,,,,,,,,,,,,,,,,,,,,,,,,,,,鲁莽,i,,,,i,1,0.8063,1,21,101,38,1,,
,,,,,,,,,,,,,1,001,2024-08-25_22h04.39.309,IAT(Formal),2021.2.3,Win32,59.88023952,,,,,,,,,,,,,,,,,,,,,,,,,,,,,,,,,,,,,,,,,,,,,,,,,,,,活泼,e,,,,e,1,0.9414,1,22,102,28,1,,
,,,,,,,,,,,,,1,001,2024-08-25_22h04.39.309,IAT(Formal),2021.2.3,Win32,59.88023952,,,,,,,,,,,,,,,,,,,,,,,,,,,,,,,,,,,,,,,,,,,,,,,,,,,,自私,i,,,,e,0,1.0855,1,23,103,43,1,,
,,,,,,,,,,,,,1,001,2024-08-25_22h04.39.309,IAT(Formal),2021.2.3,Win32,59.88023952,,,,,,,,,,,,,,,,,,,,,,,,,,,,,,,,,,,,,,,,,,,,,,,,,,,,无私,e,,,,e,1,1.1735,1,24,104,22,1,,
,,,,,,,,,,,,,1,001,2024-08-25_22h04.39.309,IAT(Formal),2021.2.3,Win32,59.88023952,,,,,,,,,,,,,,,,,,,,,,,,,,,,,,,,,,,,,,,,,,,,,,,,,,,,优秀,e,,,,e,1,0.8343,1,25,105,10,1,,
,,,,,,,,,,,,,1,001,2024-08-25_22h04.39.309,IAT(Formal),2021.2.3,Win32,59.88023952,,,,,,,,,,,,,,,,,,,,,,,,,,,,,,,,,,,,,,,,,,,,,,,,,,,,他的,e,,,,e,1,1.3688,1,26,106,67,1,,
,,,,,,,,,,,,,1,001,2024-08-25_22h04.39.309,IAT(Formal),2021.2.3,Win32,59.88023952,,,,,,,,,,,,,,,,,,,,,,,,,,,,,,,,,,,,,,,,,,,,,,,,,,,,固执,i,,,,,0,,1,27,107,47,1,,
,,,,,,,,,,,,,1,001,2024-08-25_22h04.39.309,IAT(Formal),2021.2.3,Win32,59.88023952,,,,,,,,,,,,,,,,,,,,,,,,,,,,,,,,,,,,,,,,,,,,,,,,,,,,细腻,e,,,,e,1,1.2898,1,28,108,25,1,,
,,,,,,,,,,,,,1,001,2024-08-25_22h04.39.309,IAT(Formal),2021.2.3,Win32,59.88023952,,,,,,,,,,,,,,,,,,,,,,,,,,,,,,,,,,,,,,,,,,,,,,,,,,,,俺,i,,,,i,1,0.9095,1,29,109,64,1,,
,,,,,,,,,,,,,1,001,2024-08-25_22h04.39.309,IAT(Formal),2021.2.3,Win32,59.88023952,,,,,,,,,,,,,,,,,,,,,,,,,,,,,,,,,,,,,,,,,,,,,,,,,,,,他的,e,,,,e,1,0.7011,1,30,110,77,1,,
,,,,,,,,,,,,,1,001,2024-08-25_22h04.39.309,IAT(Formal),2021.2.3,Win32,59.88023952,,,,,,,,,,,,,,,,,,,,,,,,,,,,,,,,,,,,,,,,,,,,,,,,,,,,他人,e,,,,e,1,0.7031,1,31,111,68,1,,
,,,,,,,,,,,,,1,001,2024-08-25_22h04.39.309,IAT(Formal),2021.2.3,Win32,59.88023952,,,,,,,,,,,,,,,,,,,,,,,,,,,,,,,,,,,,,,,,,,,,,,,,,,,,暴躁,i,,,,i,1,0.9013,1,32,112,44,1,,
,,,,,,,,,,,,,1,001,2024-08-25_22h04.39.309,IAT(Formal),2021.2.3,Win32,59.88023952,,,,,,,,,,,,,,,,,,,,,,,,,,,,,,,,,,,,,,,,,,,,,,,,,,,,轻率,i,,,,i,1,0.8852,1,33,113,48,1,,
,,,,,,,,,,,,,1,001,2024-08-25_22h04.39.309,IAT(Formal),2021.2.3,Win32,59.88023952,,,,,,,,,,,,,,,,,,,,,,,,,,,,,,,,,,,,,,,,,,,,,,,,,,,,正直,e,,,,e,1,0.6073,1,34,114,16,1,,
,,,,,,,,,,,,,1,001,2024-08-25_22h04.39.309,IAT(Formal),2021.2.3,Win32,59.88023952,,,,,,,,,,,,,,,,,,,,,,,,,,,,,,,,,,,,,,,,,,,,,,,,,,,,勤奋,e,,,,e,1,0.6727,1,35,115,18,1,,
,,,,,,,,,,,,,1,001,2024-08-25_22h04.39.309,IAT(Formal),2021.2.3,Win32,59.88023952,,,,,,,,,,,,,,,,,,,,,,,,,,,,,,,,,,,,,,,,,,,,,,,,,,,,我,i,,,,i,1,0.7032,1,36,116,70,1,,
,,,,,,,,,,,,,1,001,2024-08-25_22h04.39.309,IAT(Formal),2021.2.3,Win32,59.88023952,,,,,,,,,,,,,,,,,,,,,,,,,,,,,,,,,,,,,,,,,,,,,,,,,,,,机智,e,,,,e,1,0.6576,1,37,117,19,1,,
,,,,,,,,,,,,,1,001,2024-08-25_22h04.39.309,IAT(Formal),2021.2.3,Win32,59.88023952,,,,,,,,,,,,,,,,,,,,,,,,,,,,,,,,,,,,,,,,,,,,,,,,,,,,他的,e,,,,i,0,0.6867,1,38,118,7,1,,
,,,,,,,,,,,,,1,001,2024-08-25_22h04.39.309,IAT(Formal),2021.2.3,Win32,59.88023952,,,,,,,,,,,,,,,,,,,,,,,,,,,,,,,,,,,,,,,,,,,,,,,,,,,,我们,i,,,,i,1,0.7904,1,39,119,72,1,,
,,,,,,,,,,,,,1,001,2024-08-25_22h04.39.309,IAT(Formal),2021.2.3,Win32,59.88023952,,,,,,,,,,,,,,,,,,,,,,,,,,,,,,,,,,,,,,,,,,,,,,,,,,,,俺,i,,,,i,1,0.6885,1,40,120,54,1,,
,,,,,,,,,,,,,1,001,2024-08-25_22h04.39.309,IAT(Formal),2021.2.3,Win32,59.88023952,,,,,,,,,,,,,,,,,,,,,,,,,,,,,,,,,,,,,,,,,,,,,,,,,,,,自己,i,,,,e,0,0.8053,1,41,121,3,1,,
,,,,,,,,,,,,,1,001,2024-08-25_22h04.39.309,IAT(Formal),2021.2.3,Win32,59.88023952,,,,,,,,,,,,,,,,,,,,,,,,,,,,,,,,,,,,,,,,,,,,,,,,,,,,崇高,e,,,,e,1,0.8065,1,42,122,11,1,,
,,,,,,,,,,,,,1,001,2024-08-25_22h04.39.309,IAT(Formal),2021.2.3,Win32,59.88023952,,,,,,,,,,,,,,,,,,,,,,,,,,,,,,,,,,,,,,,,,,,,,,,,,,,,他们,e,,,,i,0,0.7746,1,43,123,66,1,,
,,,,,,,,,,,,,1,001,2024-08-25_22h04.39.309,IAT(Formal),2021.2.3,Win32,59.88023952,,,,,,,,,,,,,,,,,,,,,,,,,,,,,,,,,,,,,,,,,,,,,,,,,,,,凶狠,i,,,,i,1,0.8244,1,44,124,42,1,,
,,,,,,,,,,,,,1,001,2024-08-25_22h04.39.309,IAT(Formal),2021.2.3,Win32,59.88023952,,,,,,,,,,,,,,,,,,,,,,,,,,,,,,,,,,,,,,,,,,,,,,,,,,,,勇敢,e,,,,e,1,0.8077,1,45,125,17,1,,
,,,,,,,,,,,,,1,001,2024-08-25_22h04.39.309,IAT(Formal),2021.2.3,Win32,59.88023952,,,,,,,,,,,,,,,,,,,,,,,,,,,,,,,,,,,,,,,,,,,,,,,,,,,,杰出,e,,,,e,1,0.7562,1,46,126,13,1,,
,,,,,,,,,,,,,1,001,2024-08-25_22h04.39.309,IAT(Formal),2021.2.3,Win32,59.88023952,,,,,,,,,,,,,,,,,,,,,,,,,,,,,,,,,,,,,,,,,,,,,,,,,,,,其他,e,,,,,0,,1,47,127,59,1,,
,,,,,,,,,,,,,1,001,2024-08-25_22h04.39.309,IAT(Formal),2021.2.3,Win32,59.88023952,,,,,,,,,,,,,,,,,,,,,,,,,,,,,,,,,,,,,,,,,,,,,,,,,,,,自己,i,,,,i,1,1.0652,1,48,128,73,1,,
,,,,,,,,,,,,,1,001,2024-08-25_22h04.39.309,IAT(Formal),2021.2.3,Win32,59.88023952,,,,,,,,,,,,,,,,,,,,,,,,,,,,,,,,,,,,,,,,,,,,,,,,,,,,自卑,i,,,,i,1,0.7742,1,49,129,36,1,,
,,,,,,,,,,,,,1,001,2024-08-25_22h04.39.309,IAT(Formal),2021.2.3,Win32,59.88023952,,,,,,,,,,,,,,,,,,,,,,,,,,,,,,,,,,,,,,,,,,,,,,,,,,,,自己,i,,,,i,1,1.0211,1,50,130,53,1,,
,,,,,,,,,,,,,1,001,2024-08-25_22h04.39.309,IAT(Formal),2021.2.3,Win32,59.88023952,,,,,,,,,,,,,,,,,,,,,,,,,,,,,,,,,,,,,,,,,,,,,,,,,,,,我的,i,,,,i,1,0.6009,1,51,131,1,1,,
,,,,,,,,,,,,,1,001,2024-08-25_22h04.39.309,IAT(Formal),2021.2.3,Win32,59.88023952,,,,,,,,,,,,,,,,,,,,,,,,,,,,,,,,,,,,,,,,,,,,,,,,,,,,自己,i,,,,i,1,0.5444,1,52,132,63,1,,
,,,,,,,,,,,,,1,001,2024-08-25_22h04.39.309,IAT(Formal),2021.2.3,Win32,59.88023952,,,,,,,,,,,,,,,,,,,,,,,,,,,,,,,,,,,,,,,,,,,,,,,,,,,,愚蠢,i,,,,e,0,0.9263,1,53,133,32,1,,
,,,,,,,,,,,,,1,001,2024-08-25_22h04.39.309,IAT(Formal),2021.2.3,Win32,59.88023952,,,,,,,,,,,,,,,,,,,,,,,,,,,,,,,,,,,,,,,,,,,,,,,,,,,,野蛮,i,,,,i,1,0.9848,1,54,134,46,1,,
,,,,,,,,,,,,,1,001,2024-08-25_22h04.39.309,IAT(Formal),2021.2.3,Win32,59.88023952,,,,,,,,,,,,,,,,,,,,,,,,,,,,,,,,,,,,,,,,,,,,,,,,,,,,乐观,e,,,,e,1,0.6978,1,55,135,14,1,,
,,,,,,,,,,,,,1,001,2024-08-25_22h04.39.309,IAT(Formal),2021.2.3,Win32,59.88023952,,,,,,,,,,,,,,,,,,,,,,,,,,,,,,,,,,,,,,,,,,,,,,,,,,,,卑鄙,i,,,,i,1,0.5901,1,56,136,30,1,,
,,,,,,,,,,,,,1,001,2024-08-25_22h04.39.309,IAT(Formal),2021.2.3,Win32,59.88023952,,,,,,,,,,,,,,,,,,,,,,,,,,,,,,,,,,,,,,,,,,,,,,,,,,,,诚恳,e,,,,e,1,0.7723,1,57,137,29,1,,
,,,,,,,,,,,,,1,001,2024-08-25_22h04.39.309,IAT(Formal),2021.2.3,Win32,59.88023952,,,,,,,,,,,,,,,,,,,,,,,,,,,,,,,,,,,,,,,,,,,,,,,,,,,,他,e,,,,i,0,0.6675,1,58,138,65,1,,
,,,,,,,,,,,,,1,001,2024-08-25_22h04.39.309,IAT(Formal),2021.2.3,Win32,59.88023952,,,,,,,,,,,,,,,,,,,,,,,,,,,,,,,,,,,,,,,,,,,,,,,,,,,,虚伪,i,,,,i,1,0.7884,1,59,139,31,1,,
,,,,,,,,,,,,,1,001,2024-08-25_22h04.39.309,IAT(Formal),2021.2.3,Win32,59.88023952,,,,,,,,,,,,,,,,,,,,,,,,,,,,,,,,,,,,,,,,,,,,,,,,,,,,其他,e,,,,i,0,0.9437,1,60,140,69,1,,
,,,,,,,,,,,,,1,001,2024-08-25_22h04.39.309,IAT(Formal),2021.2.3,Win32,59.88023952,,,,,,,,,,,,,,,,,,,,,,,,,,,,,,,,,,,,,,,,,,,,,,,,,,,,下贱,i,,,,i,1,0.6414,1,61,141,49,1,,
,,,,,,,,,,,,,1,001,2024-08-25_22h04.39.309,IAT(Formal),2021.2.3,Win32,59.88023952,,,,,,,,,,,,,,,,,,,,,,,,,,,,,,,,,,,,,,,,,,,,,,,,,,,,刻薄,i,,,,i,1,0.8057,1,62,142,33,1,,
,,,,,,,,,,,,,1,001,2024-08-25_22h04.39.309,IAT(Formal),2021.2.3,Win32,59.88023952,,,,,,,,,,,,,,,,,,,,,,,,,,,,,,,,,,,,,,,,,,,,,,,,,,,,消极,i,,,,i,1,0.6859,1,63,143,35,1,,
,,,,,,,,,,,,,1,001,2024-08-25_22h04.39.309,IAT(Formal),2021.2.3,Win32,59.88023952,,,,,,,,,,,,,,,,,,,,,,,,,,,,,,,,,,,,,,,,,,,,,,,,,,,,冷静,e,,,,e,1,0.9509,1,64,144,26,1,,
,,,,,,,,,,,,,1,001,2024-08-25_22h04.39.309,IAT(Formal),2021.2.3,Win32,59.88023952,,,,,,,,,,,,,,,,,,,,,,,,,,,,,,,,,,,,,,,,,,,,,,,,,,,,他,e,,,,e,1,0.8085,1,65,145,75,1,,
,,,,,,,,,,,,,1,001,2024-08-25_22h04.39.309,IAT(Formal),2021.2.3,Win32,59.88023952,,,,,,,,,,,,,,,,,,,,,,,,,,,,,,,,,,,,,,,,,,,,,,,,,,,,诚实,e,,,,e,1,0.6659,1,66,146,15,1,,
,,,,,,,,,,,,,1,001,2024-08-25_22h04.39.309,IAT(Formal),2021.2.3,Win32,59.88023952,,,,,,,,,,,,,,,,,,,,,,,,,,,,,,,,,,,,,,,,,,,,,,,,,,,,公正,e,,,,e,1,0.5855,1,67,147,23,1,,
,,,,,,,,,,,,,1,001,2024-08-25_22h04.39.309,IAT(Formal),2021.2.3,Win32,59.88023952,,,,,,,,,,,,,,,,,,,,,,,,,,,,,,,,,,,,,,,,,,,,,,,,,,,,俺,i,,,,i,1,0.6567,1,68,148,74,1,,
,,,,,,,,,,,,,1,001,2024-08-25_22h04.39.309,IAT(Formal),2021.2.3,Win32,59.88023952,,,,,,,,,,,,,,,,,,,,,,,,,,,,,,,,,,,,,,,,,,,,,,,,,,,,他人,e,,,,e,1,0.6347,1,69,149,8,1,,
,,,,,,,,,,,,,1,001,2024-08-25_22h04.39.309,IAT(Formal),2021.2.3,Win32,59.88023952,,,,,,,,,,,,,,,,,,,,,,,,,,,,,,,,,,,,,,,,,,,,,,,,,,,,执拗,i,,,,i,1,0.9742,1,70,150,40,1,,
,,,,,,,,,,,,,1,001,2024-08-25_22h04.39.309,IAT(Formal),2021.2.3,Win32,59.88023952,,,,,,,,,,,,,,,,,,,,,,,,,,,,,,,,,,,,,,,,,,,,,,,,,,,,认真,e,,,,e,1,0.6681,1,71,151,20,1,,
,,,,,,,,,,,,,1,001,2024-08-25_22h04.39.309,IAT(Formal),2021.2.3,Win32,59.88023952,,,,,,,,,,,,,,,,,,,,,,,,,,,,,,,,,,,,,,,,,,,,,,,,,,,,我的,i,,,,i,1,0.8177,1,72,152,61,1,,
,,,,,,,,,,,,,1,001,2024-08-25_22h04.39.309,IAT(Formal),2021.2.3,Win32,59.88023952,,,,,,,,,,,,,,,,,,,,,,,,,,,,,,,,,,,,,,,,,,,,,,,,,,,,他们,e,,,,e,1,0.6688,1,73,153,6,1,,
,,,,,,,,,,,,,1,001,2024-08-25_22h04.39.309,IAT(Formal),2021.2.3,Win32,59.88023952,,,,,,,,,,,,,,,,,,,,,,,,,,,,,,,,,,,,,,,,,,,,,,,,,,,,猖狂,i,,,,i,1,0.9373,1,74,154,45,1,,
,,,,,,,,,,,,,1,001,2024-08-25_22h04.39.309,IAT(Formal),2021.2.3,Win32,59.88023952,,,,,,,,,,,,,,,,,,,,,,,,,,,,,,,,,,,,,,,,,,,,,,,,,,,,他,e,,,,e,1,1.0171,1,75,155,55,1,,
,,,,,,,,,,,,,1,001,2024-08-25_22h04.39.309,IAT(Formal),2021.2.3,Win32,59.88023952,,,,,,,,,,,,,,,,,,,,,,,,,,,,,,,,,,,,,,,,,,,,,,,,,,,,我们,i,,,,i,1,0.7759,1,76,156,52,1,,
,,,,,,,,,,,,,1,001,2024-08-25_22h04.39.309,IAT(Formal),2021.2.3,Win32,59.88023952,,,,,,,,,,,,,,,,,,,,,,,,,,,,,,,,,,,,,,,,,,,,,,,,,,,,稳重,e,,,,e,1,0.7447,1,77,157,21,1,,
,,,,,,,,,,,,,1,001,2024-08-25_22h04.39.309,IAT(Formal),2021.2.3,Win32,59.88023952,,,,,,,,,,,,,,,,,,,,,,,,,,,,,,,,,,,,,,,,,,,,,,,,,,,,他,e,,,,e,1,0.9576,1,78,158,5,1,,
,,,,,,,,,,,,,1,001,2024-08-25_22h04.39.309,IAT(Formal),2021.2.3,Win32,59.88023952,,,,,,,,,,,,,,,,,,,,,,,,,,,,,,,,,,,,,,,,,,,,,,,,,,,,我的,i,,,,i,1,0.6595,1,79,159,51,1,,
,,,,,,,,,,,,,1,001,2024-08-25_22h04.39.309,IAT(Formal),2021.2.3,Win32,59.88023952,,,,,,,,,,,,,,,,,,,,,,,,,,,,,,,,,,,,,,,,,,,,,,,,,,,,,,,,,,,,,,,,,space,1.8577