"X.Instruction1.keys","Instruction1.rt","Instruction2.keys","Instruction2.rt","key_resp_iso.keys","key_resp_iso.corr","Practice_01.thisRepN","Practice_01.thisTrialN","Practice_01.thisN","Practice_01.thisIndex","Practice_01.ran","Words","ans","participant","session","date","expName","psychopyVersion","OS","frameRate","key_resp_iso.rt","key_resp_3.keys","key_resp_3.rt","key_resp_ipn.keys","key_resp_ipn.corr","Practice_02.thisRepN","Practice_02.thisTrialN","Practice_02.thisN","Practice_02.thisIndex","Practice_02.ran","Words_ipn","ans_ipn","key_resp_ipn.rt","key_resp_4.keys","key_resp_4.rt","key_resp_t1.keys","key_resp_t1.corr","key_resp_t1.rt","Practice_T1.thisRepN","Practice_T1.thisTrialN","Practice_T1.thisN","Practice_T1.thisIndex","Practice_T1.ran","Words_t1","ans_t1","key_resp_5.keys","key_resp_5.rt","Formal_T1.thisRepN","Formal_T1.thisTrialN","Formal_T1.thisN","Formal_T1.thisIndex","Formal_T1.ran","key_resp_6.keys","key_resp_6.rt","key_resp_iso_reverse.keys","key_resp_iso_reverse.corr","key_resp_iso_reverse.rt","Practice_iso_Reverse.thisRepN","Practice_iso_Reverse.thisTrialN","Practice_iso_Reverse.thisN","Practice_iso_Reverse.thisIndex","Practice_iso_Reverse.ran","key_resp_7.keys","key_resp_7.rt","key_resp_t2_Practice.keys","key_resp_t2_Practice.corr","Practice_t2_Reverse.thisRepN","Practice_t2_Reverse.thisTrialN","Practice_t2_Reverse.thisN","Practice_t2_Reverse.thisIndex","Practice_t2_Reverse.ran","Words_t2","ans_t2","key_resp_t2_Practice.rt","key_resp_8.keys","key_resp_8.rt","key_resp_t2.keys","key_resp_t2.corr","key_resp_t2.rt","Formal_t2_reverse.thisRepN","Formal_t2_reverse.thisTrialN","Formal_t2_reverse.thisN","Formal_t2_reverse.thisIndex","Formal_t2_reverse.ran","key_instruct.keys","key_instruct.rt","Subject"
"space",11.718,"space",37.8355,"",0,0,0,0,6,1,"他们","i",1,1,"2024-08-25_22h04.39.309","IAT(Formal)","2021.2.3","Win32",59.88023952,NA,"",NA,"",NA,NA,NA,NA,NA,NA,"","",NA,"",NA,"",NA,NA,NA,NA,NA,NA,NA,"","","",NA,NA,NA,NA,NA,NA,"",NA,"",NA,NA,NA,NA,NA,NA,NA,"",NA,"",NA,NA,NA,NA,NA,NA,"","",NA,"",NA,"",NA,NA,NA,NA,NA,NA,NA,"",NA,"32"
"",NA,"",NA,"",0,0,1,1,2,1,"我们","e",1,1,"2024-08-25_22h04.39.309","IAT(Formal)","2021.2.3","Win32",59.88023952,NA,"",NA,"",NA,NA,NA,NA,NA,NA,"","",NA,"",NA,"",NA,NA,NA,NA,NA,NA,NA,"","","",NA,NA,NA,NA,NA,NA,"",NA,"",NA,NA,NA,NA,NA,NA,NA,"",NA,"",NA,NA,NA,NA,NA,NA,"","",NA,"",NA,"",NA,NA,NA,NA,NA,NA,NA,"",NA,"32"
"",NA,"",NA,"",0,0,2,2,1,1,"我的","e",1,1,"2024-08-25_22h04.39.309","IAT(Formal)","2021.2.3","Win32",59.88023952,NA,"",NA,"",NA,NA,NA,NA,NA,NA,"","",NA,"",NA,"",NA,NA,NA,NA,NA,NA,NA,"","","",NA,NA,NA,NA,NA,NA,"",NA,"",NA,NA,NA,NA,NA,NA,NA,"",NA,"",NA,NA,NA,NA,NA,NA,"","",NA,"",NA,"",NA,NA,NA,NA,NA,NA,NA,"",NA,"32"
"",NA,"",NA,"",0,0,3,3,3,1,"自己","e",1,1,"2024-08-25_22h04.39.309","IAT(Formal)","2021.2.3","Win32",59.88023952,NA,"",NA,"",NA,NA,NA,NA,NA,NA,"","",NA,"",NA,"",NA,NA,NA,NA,NA,NA,NA,"","","",NA,NA,NA,NA,NA,NA,"",NA,"",NA,NA,NA,NA,NA,NA,NA,"",NA,"",NA,NA,NA,NA,NA,NA,"","",NA,"",NA,"",NA,NA,NA,NA,NA,NA,NA,"",NA,"32"
"",NA,"",NA,"",0,0,4,4,8,1,"他人","i",1,1,"2024-08-25_22h04.39.309","IAT(Formal)","2021.2.3","Win32",59.88023952,NA,"",NA,"",NA,NA,NA,NA,NA,NA,"","",NA,"",NA,"",NA,NA,NA,NA,NA,NA,NA,"","","",NA,NA,NA,NA,NA,NA,"",NA,"",NA,NA,NA,NA,NA,NA,NA,"",NA,"",NA,NA,NA,NA,NA,NA,"","",NA,"",NA,"",NA,NA,NA,NA,NA,NA,NA,"",NA,"32"
"",NA,"",NA,"i",0,0,5,5,4,1,"俺","e",1,1,"2024-08-25_22h04.39.309","IAT(Formal)","2021.2.3","Win32",59.88023952,0.3847,"",NA,"",NA,NA,NA,NA,NA,NA,"","",NA,"",NA,"",NA,NA,NA,NA,NA,NA,NA,"","","",NA,NA,NA,NA,NA,NA,"",NA,"",NA,NA,NA,NA,NA,NA,NA,"",NA,"",NA,NA,NA,NA,NA,NA,"","",NA,"",NA,"",NA,NA,NA,NA,NA,NA,NA,"",NA,"32"
"",NA,"",NA,"i",1,0,6,6,5,1,"他","i",1,1,"2024-08-25_22h04.39.309","IAT(Formal)","2021.2.3","Win32",59.88023952,0.9192,"",NA,"",NA,NA,NA,NA,NA,NA,"","",NA,"",NA,"",NA,NA,NA,NA,NA,NA,NA,"","","",NA,NA,NA,NA,NA,NA,"",NA,"",NA,NA,NA,NA,NA,NA,NA,"",NA,"",NA,NA,NA,NA,NA,NA,"","",NA,"",NA,"",NA,NA,NA,NA,NA,NA,NA,"",NA,"32"
"",NA,"",NA,"i",1,0,7,7,9,1,"其他","i",1,1,"2024-08-25_22h04.39.309","IAT(Formal)","2021.2.3","Win32",59.88023952,1.1077,"",NA,"",NA,NA,NA,NA,NA,NA,"","",NA,"",NA,"",NA,NA,NA,NA,NA,NA,NA,"","","",NA,NA,NA,NA,NA,NA,"",NA,"",NA,NA,NA,NA,NA,NA,NA,"",NA,"",NA,NA,NA,NA,NA,NA,"","",NA,"",NA,"",NA,NA,NA,NA,NA,NA,NA,"",NA,"32"
"",NA,"",NA,"i",1,0,8,8,7,1,"他的","i",1,1,"2024-08-25_22h04.39.309","IAT(Formal)","2021.2.3","Win32",59.88023952,0.7894,"",NA,"",NA,NA,NA,NA,NA,NA,"","",NA,"",NA,"",NA,NA,NA,NA,NA,NA,NA,"","","",NA,NA,NA,NA,NA,NA,"",NA,"",NA,NA,NA,NA,NA,NA,NA,"",NA,"",NA,NA,NA,NA,NA,NA,"","",NA,"",NA,"",NA,NA,NA,NA,NA,NA,NA,"",NA,"32"
"",NA,"",NA,"e",1,0,9,9,0,1,"我","e",1,1,"2024-08-25_22h04.39.309","IAT(Formal)","2021.2.3","Win32",59.88023952,1.143,"",NA,"",NA,NA,NA,NA,NA,NA,"","",NA,"",NA,"",NA,NA,NA,NA,NA,NA,NA,"","","",NA,NA,NA,NA,NA,NA,"",NA,"",NA,NA,NA,NA,NA,NA,NA,"",NA,"",NA,NA,NA,NA,NA,NA,"","",NA,"",NA,"",NA,NA,NA,NA,NA,NA,NA,"",NA,"32"
"",NA,"",NA,"",NA,NA,NA,NA,NA,NA,"","",1,1,"2024-08-25_22h04.39.309","IAT(Formal)","2021.2.3","Win32",59.88023952,NA,"space",15.1053,"",0,0,0,0,4,1,"乐观","e",NA,"",NA,"",NA,NA,NA,NA,NA,NA,NA,"","","",NA,NA,NA,NA,NA,NA,"",NA,"",NA,NA,NA,NA,NA,NA,NA,"",NA,"",NA,NA,NA,NA,NA,NA,"","",NA,"",NA,"",NA,NA,NA,NA,NA,NA,NA,"",NA,"32"
"",NA,"",NA,"",NA,NA,NA,NA,NA,NA,"","",1,1,"2024-08-25_22h04.39.309","IAT(Formal)","2021.2.3","Win32",59.88023952,NA,"",NA,"i",1,0,1,1,20,1,"卑鄙","i",0.9338,"",NA,"",NA,NA,NA,NA,NA,NA,NA,"","","",NA,NA,NA,NA,NA,NA,"",NA,"",NA,NA,NA,NA,NA,NA,NA,"",NA,"",NA,NA,NA,NA,NA,NA,"","",NA,"",NA,"",NA,NA,NA,NA,NA,NA,NA,"",NA,"32"
"",NA,"",NA,"",NA,NA,NA,NA,NA,NA,"","",1,1,"2024-08-25_22h04.39.309","IAT(Formal)","2021.2.3","Win32",59.88023952,NA,"",NA,"e",1,0,2,2,8,1,"勤奋","e",0.8724,"",NA,"",NA,NA,NA,NA,NA,NA,NA,"","","",NA,NA,NA,NA,NA,NA,"",NA,"",NA,NA,NA,NA,NA,NA,NA,"",NA,"",NA,NA,NA,NA,NA,NA,"","",NA,"",NA,"",NA,NA,NA,NA,NA,NA,NA,"",NA,"32"
"",NA,"",NA,"",NA,NA,NA,NA,NA,NA,"","",1,1,"2024-08-25_22h04.39.309","IAT(Formal)","2021.2.3","Win32",59.88023952,NA,"",NA,"e",1,0,3,3,15,1,"细腻","e",1.1051,"",NA,"",NA,NA,NA,NA,NA,NA,NA,"","","",NA,NA,NA,NA,NA,NA,"",NA,"",NA,NA,NA,NA,NA,NA,NA,"",NA,"",NA,NA,NA,NA,NA,NA,"","",NA,"",NA,"",NA,NA,NA,NA,NA,NA,NA,"",NA,"32"
"",NA,"",NA,"",NA,NA,NA,NA,NA,NA,"","",1,1,"2024-08-25_22h04.39.309","IAT(Formal)","2021.2.3","Win32",59.88023952,NA,"",NA,"i",1,0,4,4,21,1,"虚伪","i",1.1114,"",NA,"",NA,NA,NA,NA,NA,NA,NA,"","","",NA,NA,NA,NA,NA,NA,"",NA,"",NA,NA,NA,NA,NA,NA,NA,"",NA,"",NA,NA,NA,NA,NA,NA,"","",NA,"",NA,"",NA,NA,NA,NA,NA,NA,NA,"",NA,"32"
"",NA,"",NA,"",NA,NA,NA,NA,NA,NA,"","",1,1,"2024-08-25_22h04.39.309","IAT(Formal)","2021.2.3","Win32",59.88023952,NA,"",NA,"i",1,0,5,5,35,1,"猖狂","i",1.2933,"",NA,"",NA,NA,NA,NA,NA,NA,NA,"","","",NA,NA,NA,NA,NA,NA,"",NA,"",NA,NA,NA,NA,NA,NA,NA,"",NA,"",NA,NA,NA,NA,NA,NA,"","",NA,"",NA,"",NA,NA,NA,NA,NA,NA,NA,"",NA,"32"
"",NA,"",NA,"",NA,NA,NA,NA,NA,NA,"","",1,1,"2024-08-25_22h04.39.309","IAT(Formal)","2021.2.3","Win32",59.88023952,NA,"",NA,"i",1,0,6,6,25,1,"消极","i",1.2013,"",NA,"",NA,NA,NA,NA,NA,NA,NA,"","","",NA,NA,NA,NA,NA,NA,"",NA,"",NA,NA,NA,NA,NA,NA,NA,"",NA,"",NA,NA,NA,NA,NA,NA,"","",NA,"",NA,"",NA,NA,NA,NA,NA,NA,NA,"",NA,"32"
"",NA,"",NA,"",NA,NA,NA,NA,NA,NA,"","",1,1,"2024-08-25_22h04.39.309","IAT(Formal)","2021.2.3","Win32",59.88023952,NA,"",NA,"e",0,0,7,7,37,1,"固执","i",1.3559,"",NA,"",NA,NA,NA,NA,NA,NA,NA,"","","",NA,NA,NA,NA,NA,NA,"",NA,"",NA,NA,NA,NA,NA,NA,NA,"",NA,"",NA,NA,NA,NA,NA,NA,"","",NA,"",NA,"",NA,NA,NA,NA,NA,NA,NA,"",NA,"32"
"",NA,"",NA,"",NA,NA,NA,NA,NA,NA,"","",1,1,"2024-08-25_22h04.39.309","IAT(Formal)","2021.2.3","Win32",59.88023952,NA,"",NA,"e",1,0,8,8,19,1,"诚恳","e",1.0723,"",NA,"",NA,NA,NA,NA,NA,NA,NA,"","","",NA,NA,NA,NA,NA,NA,"",NA,"",NA,NA,NA,NA,NA,NA,NA,"",NA,"",NA,NA,NA,NA,NA,NA,"","",NA,"",NA,"",NA,NA,NA,NA,NA,NA,NA,"",NA,"32"
"",NA,"",NA,"",NA,NA,NA,NA,NA,NA,"","",1,1,"2024-08-25_22h04.39.309","IAT(Formal)","2021.2.3","Win32",59.88023952,NA,"",NA,"e",1,0,9,9,2,1,"聪明","e",0.9737,"",NA,"",NA,NA,NA,NA,NA,NA,NA,"","","",NA,NA,NA,NA,NA,NA,"",NA,"",NA,NA,NA,NA,NA,NA,NA,"",NA,"",NA,NA,NA,NA,NA,NA,"","",NA,"",NA,"",NA,NA,NA,NA,NA,NA,NA,"",NA,"32"
"",NA,"",NA,"",NA,NA,NA,NA,NA,NA,"","",1,1,"2024-08-25_22h04.39.309","IAT(Formal)","2021.2.3","Win32",59.88023952,NA,"",NA,"e",1,0,10,10,9,1,"机智","e",0.9419,"",NA,"",NA,NA,NA,NA,NA,NA,NA,"","","",NA,NA,NA,NA,NA,NA,"",NA,"",NA,NA,NA,NA,NA,NA,NA,"",NA,"",NA,NA,NA,NA,NA,NA,"","",NA,"",NA,"",NA,NA,NA,NA,NA,NA,NA,"",NA,"32"
"",NA,"",NA,"",NA,NA,NA,NA,NA,NA,"","",1,1,"2024-08-25_22h04.39.309","IAT(Formal)","2021.2.3","Win32",59.88023952,NA,"",NA,"i",1,0,11,11,26,1,"自卑","i",1.004,"",NA,"",NA,NA,NA,NA,NA,NA,NA,"","","",NA,NA,NA,NA,NA,NA,"",NA,"",NA,NA,NA,NA,NA,NA,NA,"",NA,"",NA,NA,NA,NA,NA,NA,"","",NA,"",NA,"",NA,NA,NA,NA,NA,NA,NA,"",NA,"32"
"",NA,"",NA,"",NA,NA,NA,NA,NA,NA,"","",1,1,"2024-08-25_22h04.39.309","IAT(Formal)","2021.2.3","Win32",59.88023952,NA,"",NA,"i",1,0,12,12,23,1,"刻薄","i",1.0186,"",NA,"",NA,NA,NA,NA,NA,NA,NA,"","","",NA,NA,NA,NA,NA,NA,"",NA,"",NA,NA,NA,NA,NA,NA,NA,"",NA,"",NA,NA,NA,NA,NA,NA,"","",NA,"",NA,"",NA,NA,NA,NA,NA,NA,NA,"",NA,"32"
"",NA,"",NA,"",NA,NA,NA,NA,NA,NA,"","",1,1,"2024-08-25_22h04.39.309","IAT(Formal)","2021.2.3","Win32",59.88023952,NA,"",NA,"e",1,0,13,13,6,1,"正直","e",0.8572,"",NA,"",NA,NA,NA,NA,NA,NA,NA,"","","",NA,NA,NA,NA,NA,NA,"",NA,"",NA,NA,NA,NA,NA,NA,NA,"",NA,"",NA,NA,NA,NA,NA,NA,"","",NA,"",NA,"",NA,NA,NA,NA,NA,NA,NA,"",NA,"32"
"",NA,"",NA,"",NA,NA,NA,NA,NA,NA,"","",1,1,"2024-08-25_22h04.39.309","IAT(Formal)","2021.2.3","Win32",59.88023952,NA,"",NA,"e",1,0,14,14,7,1,"勇敢","e",1.4201,"",NA,"",NA,NA,NA,NA,NA,NA,NA,"","","",NA,NA,NA,NA,NA,NA,"",NA,"",NA,NA,NA,NA,NA,NA,NA,"",NA,"",NA,NA,NA,NA,NA,NA,"","",NA,"",NA,"",NA,NA,NA,NA,NA,NA,NA,"",NA,"32"
"",NA,"",NA,"",NA,NA,NA,NA,NA,NA,"","",1,1,"2024-08-25_22h04.39.309","IAT(Formal)","2021.2.3","Win32",59.88023952,NA,"",NA,"",0,0,15,15,30,1,"执拗","i",NA,"",NA,"",NA,NA,NA,NA,NA,NA,NA,"","","",NA,NA,NA,NA,NA,NA,"",NA,"",NA,NA,NA,NA,NA,NA,NA,"",NA,"",NA,NA,NA,NA,NA,NA,"","",NA,"",NA,"",NA,NA,NA,NA,NA,NA,NA,"",NA,"32"
"",NA,"",NA,"",NA,NA,NA,NA,NA,NA,"","",1,1,"2024-08-25_22h04.39.309","IAT(Formal)","2021.2.3","Win32",59.88023952,NA,"",NA,"i",1,0,16,16,38,1,"轻率","i",1.3015,"",NA,"",NA,NA,NA,NA,NA,NA,NA,"","","",NA,NA,NA,NA,NA,NA,"",NA,"",NA,NA,NA,NA,NA,NA,NA,"",NA,"",NA,NA,NA,NA,NA,NA,"","",NA,"",NA,"",NA,NA,NA,NA,NA,NA,NA,"",NA,"32"
"",NA,"",NA,"",NA,NA,NA,NA,NA,NA,"","",1,1,"2024-08-25_22h04.39.309","IAT(Formal)","2021.2.3","Win32",59.88023952,NA,"",NA,"i",1,0,17,17,24,1,"悲观","i",1.0086,"",NA,"",NA,NA,NA,NA,NA,NA,NA,"","","",NA,NA,NA,NA,NA,NA,"",NA,"",NA,NA,NA,NA,NA,NA,NA,"",NA,"",NA,NA,NA,NA,NA,NA,"","",NA,"",NA,"",NA,NA,NA,NA,NA,NA,NA,"",NA,"32"
"",NA,"",NA,"",NA,NA,NA,NA,NA,NA,"","",1,1,"2024-08-25_22h04.39.309","IAT(Formal)","2021.2.3","Win32",59.88023952,NA,"",NA,"i",1,0,18,18,27,1,"傲慢","i",0.9348,"",NA,"",NA,NA,NA,NA,NA,NA,NA,"","","",NA,NA,NA,NA,NA,NA,"",NA,"",NA,NA,NA,NA,NA,NA,NA,"",NA,"",NA,NA,NA,NA,NA,NA,"","",NA,"",NA,"",NA,NA,NA,NA,NA,NA,NA,"",NA,"32"
"",NA,"",NA,"",NA,NA,NA,NA,NA,NA,"","",1,1,"2024-08-25_22h04.39.309","IAT(Formal)","2021.2.3","Win32",59.88023952,NA,"",NA,"e",1,0,19,19,18,1,"活泼","e",0.8505,"",NA,"",NA,NA,NA,NA,NA,NA,NA,"","","",NA,NA,NA,NA,NA,NA,"",NA,"",NA,NA,NA,NA,NA,NA,NA,"",NA,"",NA,NA,NA,NA,NA,NA,"","",NA,"",NA,"",NA,NA,NA,NA,NA,NA,NA,"",NA,"32"
"",NA,"",NA,"",NA,NA,NA,NA,NA,NA,"","",1,1,"2024-08-25_22h04.39.309","IAT(Formal)","2021.2.3","Win32",59.88023952,NA,"",NA,"i",1,0,20,20,22,1,"愚蠢","i",0.9697,"",NA,"",NA,NA,NA,NA,NA,NA,NA,"","","",NA,NA,NA,NA,NA,NA,"",NA,"",NA,NA,NA,NA,NA,NA,NA,"",NA,"",NA,NA,NA,NA,NA,NA,"","",NA,"",NA,"",NA,NA,NA,NA,NA,NA,NA,"",NA,"32"
"",NA,"",NA,"",NA,NA,NA,NA,NA,NA,"","",1,1,"2024-08-25_22h04.39.309","IAT(Formal)","2021.2.3","Win32",59.88023952,NA,"",NA,"e",1,0,21,21,0,1,"优秀","e",0.9239,"",NA,"",NA,NA,NA,NA,NA,NA,NA,"","","",NA,NA,NA,NA,NA,NA,"",NA,"",NA,NA,NA,NA,NA,NA,NA,"",NA,"",NA,NA,NA,NA,NA,NA,"","",NA,"",NA,"",NA,NA,NA,NA,NA,NA,NA,"",NA,"32"
"",NA,"",NA,"",NA,NA,NA,NA,NA,NA,"","",1,1,"2024-08-25_22h04.39.309","IAT(Formal)","2021.2.3","Win32",59.88023952,NA,"",NA,"i",1,0,22,22,33,1,"自私","i",0.9519,"",NA,"",NA,NA,NA,NA,NA,NA,NA,"","","",NA,NA,NA,NA,NA,NA,"",NA,"",NA,NA,NA,NA,NA,NA,NA,"",NA,"",NA,NA,NA,NA,NA,NA,"","",NA,"",NA,"",NA,NA,NA,NA,NA,NA,NA,"",NA,"32"
"",NA,"",NA,"",NA,NA,NA,NA,NA,NA,"","",1,1,"2024-08-25_22h04.39.309","IAT(Formal)","2021.2.3","Win32",59.88023952,NA,"",NA,"i",1,0,23,23,31,1,"散漫","i",0.8917,"",NA,"",NA,NA,NA,NA,NA,NA,NA,"","","",NA,NA,NA,NA,NA,NA,"",NA,"",NA,NA,NA,NA,NA,NA,NA,"",NA,"",NA,NA,NA,NA,NA,NA,"","",NA,"",NA,"",NA,NA,NA,NA,NA,NA,NA,"",NA,"32"
"",NA,"",NA,"",NA,NA,NA,NA,NA,NA,"","",1,1,"2024-08-25_22h04.39.309","IAT(Formal)","2021.2.3","Win32",59.88023952,NA,"",NA,"",0,0,24,24,16,1,"冷静","e",NA,"",NA,"",NA,NA,NA,NA,NA,NA,NA,"","","",NA,NA,NA,NA,NA,NA,"",NA,"",NA,NA,NA,NA,NA,NA,NA,"",NA,"",NA,NA,NA,NA,NA,NA,"","",NA,"",NA,"",NA,NA,NA,NA,NA,NA,NA,"",NA,"32"
"",NA,"",NA,"",NA,NA,NA,NA,NA,NA,"","",1,1,"2024-08-25_22h04.39.309","IAT(Formal)","2021.2.3","Win32",59.88023952,NA,"",NA,"e",1,0,25,25,11,1,"稳重","e",0.9175,"",NA,"",NA,NA,NA,NA,NA,NA,NA,"","","",NA,NA,NA,NA,NA,NA,"",NA,"",NA,NA,NA,NA,NA,NA,NA,"",NA,"",NA,NA,NA,NA,NA,NA,"","",NA,"",NA,"",NA,NA,NA,NA,NA,NA,NA,"",NA,"32"
"",NA,"",NA,"",NA,NA,NA,NA,NA,NA,"","",1,1,"2024-08-25_22h04.39.309","IAT(Formal)","2021.2.3","Win32",59.88023952,NA,"",NA,"i",1,0,26,26,29,1,"冒失","i",0.9408,"",NA,"",NA,NA,NA,NA,NA,NA,NA,"","","",NA,NA,NA,NA,NA,NA,"",NA,"",NA,NA,NA,NA,NA,NA,NA,"",NA,"",NA,NA,NA,NA,NA,NA,"","",NA,"",NA,"",NA,NA,NA,NA,NA,NA,NA,"",NA,"32"
"",NA,"",NA,"",NA,NA,NA,NA,NA,NA,"","",1,1,"2024-08-25_22h04.39.309","IAT(Formal)","2021.2.3","Win32",59.88023952,NA,"",NA,"i",1,0,27,27,39,1,"下贱","i",0.8561,"",NA,"",NA,NA,NA,NA,NA,NA,NA,"","","",NA,NA,NA,NA,NA,NA,"",NA,"",NA,NA,NA,NA,NA,NA,NA,"",NA,"",NA,NA,NA,NA,NA,NA,"","",NA,"",NA,"",NA,NA,NA,NA,NA,NA,NA,"",NA,"32"
"",NA,"",NA,"",NA,NA,NA,NA,NA,NA,"","",1,1,"2024-08-25_22h04.39.309","IAT(Formal)","2021.2.3","Win32",59.88023952,NA,"",NA,"i",1,0,28,28,28,1,"鲁莽","i",1.0856,"",NA,"",NA,NA,NA,NA,NA,NA,NA,"","","",NA,NA,NA,NA,NA,NA,"",NA,"",NA,NA,NA,NA,NA,NA,NA,"",NA,"",NA,NA,NA,NA,NA,NA,"","",NA,"",NA,"",NA,NA,NA,NA,NA,NA,NA,"",NA,"32"
"",NA,"",NA,"",NA,NA,NA,NA,NA,NA,"","",1,1,"2024-08-25_22h04.39.309","IAT(Formal)","2021.2.3","Win32",59.88023952,NA,"",NA,"e",1,0,29,29,14,1,"朴实","e",1.1508,"",NA,"",NA,NA,NA,NA,NA,NA,NA,"","","",NA,NA,NA,NA,NA,NA,"",NA,"",NA,NA,NA,NA,NA,NA,NA,"",NA,"",NA,NA,NA,NA,NA,NA,"","",NA,"",NA,"",NA,NA,NA,NA,NA,NA,NA,"",NA,"32"
"",NA,"",NA,"",NA,NA,NA,NA,NA,NA,"","",1,1,"2024-08-25_22h04.39.309","IAT(Formal)","2021.2.3","Win32",59.88023952,NA,"",NA,"e",1,0,30,30,12,1,"无私","e",1.2089,"",NA,"",NA,NA,NA,NA,NA,NA,NA,"","","",NA,NA,NA,NA,NA,NA,"",NA,"",NA,NA,NA,NA,NA,NA,NA,"",NA,"",NA,NA,NA,NA,NA,NA,"","",NA,"",NA,"",NA,NA,NA,NA,NA,NA,NA,"",NA,"32"
"",NA,"",NA,"",NA,NA,NA,NA,NA,NA,"","",1,1,"2024-08-25_22h04.39.309","IAT(Formal)","2021.2.3","Win32",59.88023952,NA,"",NA,"e",1,0,31,31,17,1,"热情","e",0.9365,"",NA,"",NA,NA,NA,NA,NA,NA,NA,"","","",NA,NA,NA,NA,NA,NA,"",NA,"",NA,NA,NA,NA,NA,NA,NA,"",NA,"",NA,NA,NA,NA,NA,NA,"","",NA,"",NA,"",NA,NA,NA,NA,NA,NA,NA,"",NA,"32"
"",NA,"",NA,"",NA,NA,NA,NA,NA,NA,"","",1,1,"2024-08-25_22h04.39.309","IAT(Formal)","2021.2.3","Win32",59.88023952,NA,"",NA,"i",1,0,32,32,32,1,"凶狠","i",1.0059,"",NA,"",NA,NA,NA,NA,NA,NA,NA,"","","",NA,NA,NA,NA,NA,NA,"",NA,"",NA,NA,NA,NA,NA,NA,NA,"",NA,"",NA,NA,NA,NA,NA,NA,"","",NA,"",NA,"",NA,NA,NA,NA,NA,NA,NA,"",NA,"32"
"",NA,"",NA,"",NA,NA,NA,NA,NA,NA,"","",1,1,"2024-08-25_22h04.39.309","IAT(Formal)","2021.2.3","Win32",59.88023952,NA,"",NA,"e",1,0,33,33,1,1,"崇高","e",0.8586,"",NA,"",NA,NA,NA,NA,NA,NA,NA,"","","",NA,NA,NA,NA,NA,NA,"",NA,"",NA,NA,NA,NA,NA,NA,NA,"",NA,"",NA,NA,NA,NA,NA,NA,"","",NA,"",NA,"",NA,NA,NA,NA,NA,NA,NA,"",NA,"32"
"",NA,"",NA,"",NA,NA,NA,NA,NA,NA,"","",1,1,"2024-08-25_22h04.39.309","IAT(Formal)","2021.2.3","Win32",59.88023952,NA,"",NA,"e",1,0,34,34,13,1,"公正","e",0.8746,"",NA,"",NA,NA,NA,NA,NA,NA,NA,"","","",NA,NA,NA,NA,NA,NA,"",NA,"",NA,NA,NA,NA,NA,NA,NA,"",NA,"",NA,NA,NA,NA,NA,NA,"","",NA,"",NA,"",NA,NA,NA,NA,NA,NA,NA,"",NA,"32"
"",NA,"",NA,"",NA,NA,NA,NA,NA,NA,"","",1,1,"2024-08-25_22h04.39.309","IAT(Formal)","2021.2.3","Win32",59.88023952,NA,"",NA,"e",1,0,35,35,10,1,"认真","e",0.8015,"",NA,"",NA,NA,NA,NA,NA,NA,NA,"","","",NA,NA,NA,NA,NA,NA,"",NA,"",NA,NA,NA,NA,NA,NA,NA,"",NA,"",NA,NA,NA,NA,NA,NA,"","",NA,"",NA,"",NA,NA,NA,NA,NA,NA,NA,"",NA,"32"
"",NA,"",NA,"",NA,NA,NA,NA,NA,NA,"","",1,1,"2024-08-25_22h04.39.309","IAT(Formal)","2021.2.3","Win32",59.88023952,NA,"",NA,"e",1,0,36,36,3,1,"杰出","e",0.9739,"",NA,"",NA,NA,NA,NA,NA,NA,NA,"","","",NA,NA,NA,NA,NA,NA,"",NA,"",NA,NA,NA,NA,NA,NA,NA,"",NA,"",NA,NA,NA,NA,NA,NA,"","",NA,"",NA,"",NA,NA,NA,NA,NA,NA,NA,"",NA,"32"
"",NA,"",NA,"",NA,NA,NA,NA,NA,NA,"","",1,1,"2024-08-25_22h04.39.309","IAT(Formal)","2021.2.3","Win32",59.88023952,NA,"",NA,"i",1,0,37,37,34,1,"暴躁","i",0.9695,"",NA,"",NA,NA,NA,NA,NA,NA,NA,"","","",NA,NA,NA,NA,NA,NA,"",NA,"",NA,NA,NA,NA,NA,NA,NA,"",NA,"",NA,NA,NA,NA,NA,NA,"","",NA,"",NA,"",NA,NA,NA,NA,NA,NA,NA,"",NA,"32"
"",NA,"",NA,"",NA,NA,NA,NA,NA,NA,"","",1,1,"2024-08-25_22h04.39.309","IAT(Formal)","2021.2.3","Win32",59.88023952,NA,"",NA,"e",1,0,38,38,5,1,"诚实","e",0.7688,"",NA,"",NA,NA,NA,NA,NA,NA,NA,"","","",NA,NA,NA,NA,NA,NA,"",NA,"",NA,NA,NA,NA,NA,NA,NA,"",NA,"",NA,NA,NA,NA,NA,NA,"","",NA,"",NA,"",NA,NA,NA,NA,NA,NA,NA,"",NA,"32"
"",NA,"",NA,"",NA,NA,NA,NA,NA,NA,"","",1,1,"2024-08-25_22h04.39.309","IAT(Formal)","2021.2.3","Win32",59.88023952,NA,"",NA,"i",1,0,39,39,36,1,"野蛮","i",1.055,"",NA,"",NA,NA,NA,NA,NA,NA,NA,"","","",NA,NA,NA,NA,NA,NA,"",NA,"",NA,NA,NA,NA,NA,NA,NA,"",NA,"",NA,NA,NA,NA,NA,NA,"","",NA,"",NA,"",NA,NA,NA,NA,NA,NA,NA,"",NA,"32"
"",NA,"",NA,"",NA,NA,NA,NA,NA,NA,"","",1,1,"2024-08-25_22h04.39.309","IAT(Formal)","2021.2.3","Win32",59.88023952,NA,"",NA,"",NA,NA,NA,NA,NA,NA,"","",NA,"space",10.1348,"e",1,1.0424,0,0,0,16,1,"正直","e","",NA,NA,NA,NA,NA,NA,"",NA,"",NA,NA,NA,NA,NA,NA,NA,"",NA,"",NA,NA,NA,NA,NA,NA,"","",NA,"",NA,"",NA,NA,NA,NA,NA,NA,NA,"",NA,"32"
"",NA,"",NA,"",NA,NA,NA,NA,NA,NA,"","",1,1,"2024-08-25_22h04.39.309","IAT(Formal)","2021.2.3","Win32",59.88023952,NA,"",NA,"",NA,NA,NA,NA,NA,NA,"","",NA,"",NA,"i",1,1.0959,0,1,1,39,1,"冒失","i","",NA,NA,NA,NA,NA,NA,"",NA,"",NA,NA,NA,NA,NA,NA,NA,"",NA,"",NA,NA,NA,NA,NA,NA,"","",NA,"",NA,"",NA,NA,NA,NA,NA,NA,NA,"",NA,"32"
"",NA,"",NA,"",NA,NA,NA,NA,NA,NA,"","",1,1,"2024-08-25_22h04.39.309","IAT(Formal)","2021.2.3","Win32",59.88023952,NA,"",NA,"",NA,NA,NA,NA,NA,NA,"","",NA,"",NA,"e",1,1.0166,0,2,2,50,1,"我","e","",NA,NA,NA,NA,NA,NA,"",NA,"",NA,NA,NA,NA,NA,NA,NA,"",NA,"",NA,NA,NA,NA,NA,NA,"","",NA,"",NA,"",NA,NA,NA,NA,NA,NA,NA,"",NA,"32"
"",NA,"",NA,"",NA,NA,NA,NA,NA,NA,"","",1,1,"2024-08-25_22h04.39.309","IAT(Formal)","2021.2.3","Win32",59.88023952,NA,"",NA,"",NA,NA,NA,NA,NA,NA,"","",NA,"",NA,"e",1,0.8508,0,3,3,51,1,"我的","e","",NA,NA,NA,NA,NA,NA,"",NA,"",NA,NA,NA,NA,NA,NA,NA,"",NA,"",NA,NA,NA,NA,NA,NA,"","",NA,"",NA,"",NA,NA,NA,NA,NA,NA,NA,"",NA,"32"
"",NA,"",NA,"",NA,NA,NA,NA,NA,NA,"","",1,1,"2024-08-25_22h04.39.309","IAT(Formal)","2021.2.3","Win32",59.88023952,NA,"",NA,"",NA,NA,NA,NA,NA,NA,"","",NA,"",NA,"i",1,0.8651,0,4,4,59,1,"其他","i","",NA,NA,NA,NA,NA,NA,"",NA,"",NA,NA,NA,NA,NA,NA,NA,"",NA,"",NA,NA,NA,NA,NA,NA,"","",NA,"",NA,"",NA,NA,NA,NA,NA,NA,NA,"",NA,"32"
"",NA,"",NA,"",NA,NA,NA,NA,NA,NA,"","",1,1,"2024-08-25_22h04.39.309","IAT(Formal)","2021.2.3","Win32",59.88023952,NA,"",NA,"",NA,NA,NA,NA,NA,NA,"","",NA,"",NA,"e",1,0.9878,0,5,5,23,1,"公正","e","",NA,NA,NA,NA,NA,NA,"",NA,"",NA,NA,NA,NA,NA,NA,NA,"",NA,"",NA,NA,NA,NA,NA,NA,"","",NA,"",NA,"",NA,NA,NA,NA,NA,NA,NA,"",NA,"32"
"",NA,"",NA,"",NA,NA,NA,NA,NA,NA,"","",1,1,"2024-08-25_22h04.39.309","IAT(Formal)","2021.2.3","Win32",59.88023952,NA,"",NA,"",NA,NA,NA,NA,NA,NA,"","",NA,"",NA,"i",1,0.9021,0,6,6,31,1,"虚伪","i","",NA,NA,NA,NA,NA,NA,"",NA,"",NA,NA,NA,NA,NA,NA,NA,"",NA,"",NA,NA,NA,NA,NA,NA,"","",NA,"",NA,"",NA,NA,NA,NA,NA,NA,NA,"",NA,"32"
"",NA,"",NA,"",NA,NA,NA,NA,NA,NA,"","",1,1,"2024-08-25_22h04.39.309","IAT(Formal)","2021.2.3","Win32",59.88023952,NA,"",NA,"",NA,NA,NA,NA,NA,NA,"","",NA,"",NA,"i",1,0.9126,0,7,7,55,1,"他","i","",NA,NA,NA,NA,NA,NA,"",NA,"",NA,NA,NA,NA,NA,NA,NA,"",NA,"",NA,NA,NA,NA,NA,NA,"","",NA,"",NA,"",NA,NA,NA,NA,NA,NA,NA,"",NA,"32"
"",NA,"",NA,"",NA,NA,NA,NA,NA,NA,"","",1,1,"2024-08-25_22h04.39.309","IAT(Formal)","2021.2.3","Win32",59.88023952,NA,"",NA,"",NA,NA,NA,NA,NA,NA,"","",NA,"",NA,"e",1,0.852,0,8,8,10,1,"优秀","e","",NA,NA,NA,NA,NA,NA,"",NA,"",NA,NA,NA,NA,NA,NA,NA,"",NA,"",NA,NA,NA,NA,NA,NA,"","",NA,"",NA,"",NA,NA,NA,NA,NA,NA,NA,"",NA,"32"
"",NA,"",NA,"",NA,NA,NA,NA,NA,NA,"","",1,1,"2024-08-25_22h04.39.309","IAT(Formal)","2021.2.3","Win32",59.88023952,NA,"",NA,"",NA,NA,NA,NA,NA,NA,"","",NA,"",NA,"i",1,0.8982,0,9,9,8,1,"他人","i","",NA,NA,NA,NA,NA,NA,"",NA,"",NA,NA,NA,NA,NA,NA,NA,"",NA,"",NA,NA,NA,NA,NA,NA,"","",NA,"",NA,"",NA,NA,NA,NA,NA,NA,NA,"",NA,"32"
"",NA,"",NA,"",NA,NA,NA,NA,NA,NA,"","",1,1,"2024-08-25_22h04.39.309","IAT(Formal)","2021.2.3","Win32",59.88023952,NA,"",NA,"",NA,NA,NA,NA,NA,NA,"","",NA,"",NA,"i",1,1.1497,0,10,10,37,1,"傲慢","i","",NA,NA,NA,NA,NA,NA,"",NA,"",NA,NA,NA,NA,NA,NA,NA,"",NA,"",NA,NA,NA,NA,NA,NA,"","",NA,"",NA,"",NA,NA,NA,NA,NA,NA,NA,"",NA,"32"
"",NA,"",NA,"",NA,NA,NA,NA,NA,NA,"","",1,1,"2024-08-25_22h04.39.309","IAT(Formal)","2021.2.3","Win32",59.88023952,NA,"",NA,"",NA,NA,NA,NA,NA,NA,"","",NA,"",NA,"e",1,0.877,0,11,11,14,1,"乐观","e","",NA,NA,NA,NA,NA,NA,"",NA,"",NA,NA,NA,NA,NA,NA,NA,"",NA,"",NA,NA,NA,NA,NA,NA,"","",NA,"",NA,"",NA,NA,NA,NA,NA,NA,NA,"",NA,"32"
"",NA,"",NA,"",NA,NA,NA,NA,NA,NA,"","",1,1,"2024-08-25_22h04.39.309","IAT(Formal)","2021.2.3","Win32",59.88023952,NA,"",NA,"",NA,NA,NA,NA,NA,NA,"","",NA,"",NA,"e",1,0.914,0,12,12,13,1,"杰出","e","",NA,NA,NA,NA,NA,NA,"",NA,"",NA,NA,NA,NA,NA,NA,NA,"",NA,"",NA,NA,NA,NA,NA,NA,"","",NA,"",NA,"",NA,NA,NA,NA,NA,NA,NA,"",NA,"32"
"",NA,"",NA,"",NA,NA,NA,NA,NA,NA,"","",1,1,"2024-08-25_22h04.39.309","IAT(Formal)","2021.2.3","Win32",59.88023952,NA,"",NA,"",NA,NA,NA,NA,NA,NA,"","",NA,"",NA,"e",1,0.8165,0,13,13,20,1,"认真","e","",NA,NA,NA,NA,NA,NA,"",NA,"",NA,NA,NA,NA,NA,NA,NA,"",NA,"",NA,NA,NA,NA,NA,NA,"","",NA,"",NA,"",NA,NA,NA,NA,NA,NA,NA,"",NA,"32"
"",NA,"",NA,"",NA,NA,NA,NA,NA,NA,"","",1,1,"2024-08-25_22h04.39.309","IAT(Formal)","2021.2.3","Win32",59.88023952,NA,"",NA,"",NA,NA,NA,NA,NA,NA,"","",NA,"",NA,"e",1,1.0506,0,14,14,54,1,"俺","e","",NA,NA,NA,NA,NA,NA,"",NA,"",NA,NA,NA,NA,NA,NA,NA,"",NA,"",NA,NA,NA,NA,NA,NA,"","",NA,"",NA,"",NA,NA,NA,NA,NA,NA,NA,"",NA,"32"
"",NA,"",NA,"",NA,NA,NA,NA,NA,NA,"","",1,1,"2024-08-25_22h04.39.309","IAT(Formal)","2021.2.3","Win32",59.88023952,NA,"",NA,"",NA,NA,NA,NA,NA,NA,"","",NA,"",NA,"i",1,0.9625,0,15,15,34,1,"悲观","i","",NA,NA,NA,NA,NA,NA,"",NA,"",NA,NA,NA,NA,NA,NA,NA,"",NA,"",NA,NA,NA,NA,NA,NA,"","",NA,"",NA,"",NA,NA,NA,NA,NA,NA,NA,"",NA,"32"
"",NA,"",NA,"",NA,NA,NA,NA,NA,NA,"","",1,1,"2024-08-25_22h04.39.309","IAT(Formal)","2021.2.3","Win32",59.88023952,NA,"",NA,"",NA,NA,NA,NA,NA,NA,"","",NA,"",NA,"i",1,0.7772,0,16,16,32,1,"愚蠢","i","",NA,NA,NA,NA,NA,NA,"",NA,"",NA,NA,NA,NA,NA,NA,NA,"",NA,"",NA,NA,NA,NA,NA,NA,"","",NA,"",NA,"",NA,NA,NA,NA,NA,NA,NA,"",NA,"32"
"",NA,"",NA,"",NA,NA,NA,NA,NA,NA,"","",1,1,"2024-08-25_22h04.39.309","IAT(Formal)","2021.2.3","Win32",59.88023952,NA,"",NA,"",NA,NA,NA,NA,NA,NA,"","",NA,"",NA,"e",1,0.8845,0,17,17,62,1,"我们","e","",NA,NA,NA,NA,NA,NA,"",NA,"",NA,NA,NA,NA,NA,NA,NA,"",NA,"",NA,NA,NA,NA,NA,NA,"","",NA,"",NA,"",NA,NA,NA,NA,NA,NA,NA,"",NA,"32"
"",NA,"",NA,"",NA,NA,NA,NA,NA,NA,"","",1,1,"2024-08-25_22h04.39.309","IAT(Formal)","2021.2.3","Win32",59.88023952,NA,"",NA,"",NA,NA,NA,NA,NA,NA,"","",NA,"",NA,"i",1,0.9657,0,18,18,56,1,"他们","i","",NA,NA,NA,NA,NA,NA,"",NA,"",NA,NA,NA,NA,NA,NA,NA,"",NA,"",NA,NA,NA,NA,NA,NA,"","",NA,"",NA,"",NA,NA,NA,NA,NA,NA,NA,"",NA,"32"
"",NA,"",NA,"",NA,NA,NA,NA,NA,NA,"","",1,1,"2024-08-25_22h04.39.309","IAT(Formal)","2021.2.3","Win32",59.88023952,NA,"",NA,"",NA,NA,NA,NA,NA,NA,"","",NA,"",NA,"e",1,0.8471,0,19,19,25,1,"细腻","e","",NA,NA,NA,NA,NA,NA,"",NA,"",NA,NA,NA,NA,NA,NA,NA,"",NA,"",NA,NA,NA,NA,NA,NA,"","",NA,"",NA,"",NA,NA,NA,NA,NA,NA,NA,"",NA,"32"
"",NA,"",NA,"",NA,NA,NA,NA,NA,NA,"","",1,1,"2024-08-25_22h04.39.309","IAT(Formal)","2021.2.3","Win32",59.88023952,NA,"",NA,"",NA,NA,NA,NA,NA,NA,"","",NA,"",NA,"e",1,0.9673,0,20,20,1,1,"我的","e","",NA,NA,NA,NA,NA,NA,"",NA,"",NA,NA,NA,NA,NA,NA,NA,"",NA,"",NA,NA,NA,NA,NA,NA,"","",NA,"",NA,"",NA,NA,NA,NA,NA,NA,NA,"",NA,"32"
"",NA,"",NA,"",NA,NA,NA,NA,NA,NA,"","",1,1,"2024-08-25_22h04.39.309","IAT(Formal)","2021.2.3","Win32",59.88023952,NA,"",NA,"",NA,NA,NA,NA,NA,NA,"","",NA,"",NA,"i",1,0.8507,0,21,21,69,1,"其他","i","",NA,NA,NA,NA,NA,NA,"",NA,"",NA,NA,NA,NA,NA,NA,NA,"",NA,"",NA,NA,NA,NA,NA,NA,"","",NA,"",NA,"",NA,NA,NA,NA,NA,NA,NA,"",NA,"32"
"",NA,"",NA,"",NA,NA,NA,NA,NA,NA,"","",1,1,"2024-08-25_22h04.39.309","IAT(Formal)","2021.2.3","Win32",59.88023952,NA,"",NA,"",NA,NA,NA,NA,NA,NA,"","",NA,"",NA,"i",1,1.4575,0,22,22,45,1,"猖狂","i","",NA,NA,NA,NA,NA,NA,"",NA,"",NA,NA,NA,NA,NA,NA,NA,"",NA,"",NA,NA,NA,NA,NA,NA,"","",NA,"",NA,"",NA,NA,NA,NA,NA,NA,NA,"",NA,"32"
"",NA,"",NA,"",NA,NA,NA,NA,NA,NA,"","",1,1,"2024-08-25_22h04.39.309","IAT(Formal)","2021.2.3","Win32",59.88023952,NA,"",NA,"",NA,NA,NA,NA,NA,NA,"","",NA,"",NA,"i",1,0.9333,0,23,23,58,1,"他人","i","",NA,NA,NA,NA,NA,NA,"",NA,"",NA,NA,NA,NA,NA,NA,NA,"",NA,"",NA,NA,NA,NA,NA,NA,"","",NA,"",NA,"",NA,NA,NA,NA,NA,NA,NA,"",NA,"32"
"",NA,"",NA,"",NA,NA,NA,NA,NA,NA,"","",1,1,"2024-08-25_22h04.39.309","IAT(Formal)","2021.2.3","Win32",59.88023952,NA,"",NA,"",NA,NA,NA,NA,NA,NA,"","",NA,"",NA,"e",1,0.8675,0,24,24,3,1,"自己","e","",NA,NA,NA,NA,NA,NA,"",NA,"",NA,NA,NA,NA,NA,NA,NA,"",NA,"",NA,NA,NA,NA,NA,NA,"","",NA,"",NA,"",NA,NA,NA,NA,NA,NA,NA,"",NA,"32"
"",NA,"",NA,"",NA,NA,NA,NA,NA,NA,"","",1,1,"2024-08-25_22h04.39.309","IAT(Formal)","2021.2.3","Win32",59.88023952,NA,"",NA,"",NA,NA,NA,NA,NA,NA,"","",NA,"",NA,"e",1,1.1945,0,25,25,22,1,"无私","e","",NA,NA,NA,NA,NA,NA,"",NA,"",NA,NA,NA,NA,NA,NA,NA,"",NA,"",NA,NA,NA,NA,NA,NA,"","",NA,"",NA,"",NA,NA,NA,NA,NA,NA,NA,"",NA,"32"
"",NA,"",NA,"",NA,NA,NA,NA,NA,NA,"","",1,1,"2024-08-25_22h04.39.309","IAT(Formal)","2021.2.3","Win32",59.88023952,NA,"",NA,"",NA,NA,NA,NA,NA,NA,"","",NA,"",NA,"e",1,0.8315,0,26,26,0,1,"我","e","",NA,NA,NA,NA,NA,NA,"",NA,"",NA,NA,NA,NA,NA,NA,NA,"",NA,"",NA,NA,NA,NA,NA,NA,"","",NA,"",NA,"",NA,NA,NA,NA,NA,NA,NA,"",NA,"32"
"",NA,"",NA,"",NA,NA,NA,NA,NA,NA,"","",1,1,"2024-08-25_22h04.39.309","IAT(Formal)","2021.2.3","Win32",59.88023952,NA,"",NA,"",NA,NA,NA,NA,NA,NA,"","",NA,"",NA,"i",1,0.782,0,27,27,66,1,"他们","i","",NA,NA,NA,NA,NA,NA,"",NA,"",NA,NA,NA,NA,NA,NA,NA,"",NA,"",NA,NA,NA,NA,NA,NA,"","",NA,"",NA,"",NA,NA,NA,NA,NA,NA,NA,"",NA,"32"
"",NA,"",NA,"",NA,NA,NA,NA,NA,NA,"","",1,1,"2024-08-25_22h04.39.309","IAT(Formal)","2021.2.3","Win32",59.88023952,NA,"",NA,"",NA,NA,NA,NA,NA,NA,"","",NA,"",NA,"e",1,0.8516,0,28,28,70,1,"我","e","",NA,NA,NA,NA,NA,NA,"",NA,"",NA,NA,NA,NA,NA,NA,NA,"",NA,"",NA,NA,NA,NA,NA,NA,"","",NA,"",NA,"",NA,NA,NA,NA,NA,NA,NA,"",NA,"32"
"",NA,"",NA,"",NA,NA,NA,NA,NA,NA,"","",1,1,"2024-08-25_22h04.39.309","IAT(Formal)","2021.2.3","Win32",59.88023952,NA,"",NA,"",NA,NA,NA,NA,NA,NA,"","",NA,"",NA,"e",1,0.8232,0,29,29,12,1,"聪明","e","",NA,NA,NA,NA,NA,NA,"",NA,"",NA,NA,NA,NA,NA,NA,NA,"",NA,"",NA,NA,NA,NA,NA,NA,"","",NA,"",NA,"",NA,NA,NA,NA,NA,NA,NA,"",NA,"32"
"",NA,"",NA,"",NA,NA,NA,NA,NA,NA,"","",1,1,"2024-08-25_22h04.39.309","IAT(Formal)","2021.2.3","Win32",59.88023952,NA,"",NA,"",NA,NA,NA,NA,NA,NA,"","",NA,"",NA,"i",1,1.1093,0,30,30,33,1,"刻薄","i","",NA,NA,NA,NA,NA,NA,"",NA,"",NA,NA,NA,NA,NA,NA,NA,"",NA,"",NA,NA,NA,NA,NA,NA,"","",NA,"",NA,"",NA,NA,NA,NA,NA,NA,NA,"",NA,"32"
"",NA,"",NA,"",NA,NA,NA,NA,NA,NA,"","",1,1,"2024-08-25_22h04.39.309","IAT(Formal)","2021.2.3","Win32",59.88023952,NA,"",NA,"",NA,NA,NA,NA,NA,NA,"","",NA,"",NA,"e",1,0.7849,0,31,31,24,1,"朴实","e","",NA,NA,NA,NA,NA,NA,"",NA,"",NA,NA,NA,NA,NA,NA,NA,"",NA,"",NA,NA,NA,NA,NA,NA,"","",NA,"",NA,"",NA,NA,NA,NA,NA,NA,NA,"",NA,"32"
"",NA,"",NA,"",NA,NA,NA,NA,NA,NA,"","",1,1,"2024-08-25_22h04.39.309","IAT(Formal)","2021.2.3","Win32",59.88023952,NA,"",NA,"",NA,NA,NA,NA,NA,NA,"","",NA,"",NA,"i",1,0.966,0,32,32,6,1,"他们","i","",NA,NA,NA,NA,NA,NA,"",NA,"",NA,NA,NA,NA,NA,NA,NA,"",NA,"",NA,NA,NA,NA,NA,NA,"","",NA,"",NA,"",NA,NA,NA,NA,NA,NA,NA,"",NA,"32"
"",NA,"",NA,"",NA,NA,NA,NA,NA,NA,"","",1,1,"2024-08-25_22h04.39.309","IAT(Formal)","2021.2.3","Win32",59.88023952,NA,"",NA,"",NA,NA,NA,NA,NA,NA,"","",NA,"",NA,"e",1,0.8747,0,33,33,29,1,"诚恳","e","",NA,NA,NA,NA,NA,NA,"",NA,"",NA,NA,NA,NA,NA,NA,NA,"",NA,"",NA,NA,NA,NA,NA,NA,"","",NA,"",NA,"",NA,NA,NA,NA,NA,NA,NA,"",NA,"32"
"",NA,"",NA,"",NA,NA,NA,NA,NA,NA,"","",1,1,"2024-08-25_22h04.39.309","IAT(Formal)","2021.2.3","Win32",59.88023952,NA,"",NA,"",NA,NA,NA,NA,NA,NA,"","",NA,"",NA,"e",1,0.7712,0,34,34,73,1,"自己","e","",NA,NA,NA,NA,NA,NA,"",NA,"",NA,NA,NA,NA,NA,NA,NA,"",NA,"",NA,NA,NA,NA,NA,NA,"","",NA,"",NA,"",NA,NA,NA,NA,NA,NA,NA,"",NA,"32"
"",NA,"",NA,"",NA,NA,NA,NA,NA,NA,"","",1,1,"2024-08-25_22h04.39.309","IAT(Formal)","2021.2.3","Win32",59.88023952,NA,"",NA,"",NA,NA,NA,NA,NA,NA,"","",NA,"",NA,"i",1,0.8165,0,35,35,68,1,"他人","i","",NA,NA,NA,NA,NA,NA,"",NA,"",NA,NA,NA,NA,NA,NA,NA,"",NA,"",NA,NA,NA,NA,NA,NA,"","",NA,"",NA,"",NA,NA,NA,NA,NA,NA,NA,"",NA,"32"
"",NA,"",NA,"",NA,NA,NA,NA,NA,NA,"","",1,1,"2024-08-25_22h04.39.309","IAT(Formal)","2021.2.3","Win32",59.88023952,NA,"",NA,"",NA,NA,NA,NA,NA,NA,"","",NA,"",NA,"e",1,0.7994,0,36,36,71,1,"我的","e","",NA,NA,NA,NA,NA,NA,"",NA,"",NA,NA,NA,NA,NA,NA,NA,"",NA,"",NA,NA,NA,NA,NA,NA,"","",NA,"",NA,"",NA,NA,NA,NA,NA,NA,NA,"",NA,"32"
"",NA,"",NA,"",NA,NA,NA,NA,NA,NA,"","",1,1,"2024-08-25_22h04.39.309","IAT(Formal)","2021.2.3","Win32",59.88023952,NA,"",NA,"",NA,NA,NA,NA,NA,NA,"","",NA,"",NA,"e",1,0.836,0,37,37,21,1,"稳重","e","",NA,NA,NA,NA,NA,NA,"",NA,"",NA,NA,NA,NA,NA,NA,NA,"",NA,"",NA,NA,NA,NA,NA,NA,"","",NA,"",NA,"",NA,NA,NA,NA,NA,NA,NA,"",NA,"32"
"",NA,"",NA,"",NA,NA,NA,NA,NA,NA,"","",1,1,"2024-08-25_22h04.39.309","IAT(Formal)","2021.2.3","Win32",59.88023952,NA,"",NA,"",NA,NA,NA,NA,NA,NA,"","",NA,"",NA,"e",1,0.8045,0,38,38,63,1,"自己","e","",NA,NA,NA,NA,NA,NA,"",NA,"",NA,NA,NA,NA,NA,NA,NA,"",NA,"",NA,NA,NA,NA,NA,NA,"","",NA,"",NA,"",NA,NA,NA,NA,NA,NA,NA,"",NA,"32"
"",NA,"",NA,"",NA,NA,NA,NA,NA,NA,"","",1,1,"2024-08-25_22h04.39.309","IAT(Formal)","2021.2.3","Win32",59.88023952,NA,"",NA,"",NA,NA,NA,NA,NA,NA,"","",NA,"",NA,"e",1,0.8226,0,39,39,64,1,"俺","e","",NA,NA,NA,NA,NA,NA,"",NA,"",NA,NA,NA,NA,NA,NA,NA,"",NA,"",NA,NA,NA,NA,NA,NA,"","",NA,"",NA,"",NA,NA,NA,NA,NA,NA,NA,"",NA,"32"
"",NA,"",NA,"",NA,NA,NA,NA,NA,NA,"","",1,1,"2024-08-25_22h04.39.309","IAT(Formal)","2021.2.3","Win32",59.88023952,NA,"",NA,"",NA,NA,NA,NA,NA,NA,"","",NA,"",NA,"e",1,0.8185,0,40,40,52,1,"我们","e","",NA,NA,NA,NA,NA,NA,"",NA,"",NA,NA,NA,NA,NA,NA,NA,"",NA,"",NA,NA,NA,NA,NA,NA,"","",NA,"",NA,"",NA,NA,NA,NA,NA,NA,NA,"",NA,"32"
"",NA,"",NA,"",NA,NA,NA,NA,NA,NA,"","",1,1,"2024-08-25_22h04.39.309","IAT(Formal)","2021.2.3","Win32",59.88023952,NA,"",NA,"",NA,NA,NA,NA,NA,NA,"","",NA,"",NA,"i",1,0.8567,0,41,41,41,1,"散漫","i","",NA,NA,NA,NA,NA,NA,"",NA,"",NA,NA,NA,NA,NA,NA,NA,"",NA,"",NA,NA,NA,NA,NA,NA,"","",NA,"",NA,"",NA,NA,NA,NA,NA,NA,NA,"",NA,"32"
"",NA,"",NA,"",NA,NA,NA,NA,NA,NA,"","",1,1,"2024-08-25_22h04.39.309","IAT(Formal)","2021.2.3","Win32",59.88023952,NA,"",NA,"",NA,NA,NA,NA,NA,NA,"","",NA,"",NA,"e",1,1.1845,0,42,42,53,1,"自己","e","",NA,NA,NA,NA,NA,NA,"",NA,"",NA,NA,NA,NA,NA,NA,NA,"",NA,"",NA,NA,NA,NA,NA,NA,"","",NA,"",NA,"",NA,NA,NA,NA,NA,NA,NA,"",NA,"32"
"",NA,"",NA,"",NA,NA,NA,NA,NA,NA,"","",1,1,"2024-08-25_22h04.39.309","IAT(Formal)","2021.2.3","Win32",59.88023952,NA,"",NA,"",NA,NA,NA,NA,NA,NA,"","",NA,"",NA,"i",1,0.9394,0,43,43,42,1,"凶狠","i","",NA,NA,NA,NA,NA,NA,"",NA,"",NA,NA,NA,NA,NA,NA,NA,"",NA,"",NA,NA,NA,NA,NA,NA,"","",NA,"",NA,"",NA,NA,NA,NA,NA,NA,NA,"",NA,"32"
"",NA,"",NA,"",NA,NA,NA,NA,NA,NA,"","",1,1,"2024-08-25_22h04.39.309","IAT(Formal)","2021.2.3","Win32",59.88023952,NA,"",NA,"",NA,NA,NA,NA,NA,NA,"","",NA,"",NA,"i",1,1.0851,0,44,44,75,1,"他","i","",NA,NA,NA,NA,NA,NA,"",NA,"",NA,NA,NA,NA,NA,NA,NA,"",NA,"",NA,NA,NA,NA,NA,NA,"","",NA,"",NA,"",NA,NA,NA,NA,NA,NA,NA,"",NA,"32"
"",NA,"",NA,"",NA,NA,NA,NA,NA,NA,"","",1,1,"2024-08-25_22h04.39.309","IAT(Formal)","2021.2.3","Win32",59.88023952,NA,"",NA,"",NA,NA,NA,NA,NA,NA,"","",NA,"",NA,"i",1,0.7889,0,45,45,7,1,"他的","i","",NA,NA,NA,NA,NA,NA,"",NA,"",NA,NA,NA,NA,NA,NA,NA,"",NA,"",NA,NA,NA,NA,NA,NA,"","",NA,"",NA,"",NA,NA,NA,NA,NA,NA,NA,"",NA,"32"
"",NA,"",NA,"",NA,NA,NA,NA,NA,NA,"","",1,1,"2024-08-25_22h04.39.309","IAT(Formal)","2021.2.3","Win32",59.88023952,NA,"",NA,"",NA,NA,NA,NA,NA,NA,"","",NA,"",NA,"i",1,0.9075,0,46,46,36,1,"自卑","i","",NA,NA,NA,NA,NA,NA,"",NA,"",NA,NA,NA,NA,NA,NA,NA,"",NA,"",NA,NA,NA,NA,NA,NA,"","",NA,"",NA,"",NA,NA,NA,NA,NA,NA,NA,"",NA,"32"
"",NA,"",NA,"",NA,NA,NA,NA,NA,NA,"","",1,1,"2024-08-25_22h04.39.309","IAT(Formal)","2021.2.3","Win32",59.88023952,NA,"",NA,"",NA,NA,NA,NA,NA,NA,"","",NA,"",NA,"i",1,0.7358,0,47,47,49,1,"下贱","i","",NA,NA,NA,NA,NA,NA,"",NA,"",NA,NA,NA,NA,NA,NA,NA,"",NA,"",NA,NA,NA,NA,NA,NA,"","",NA,"",NA,"",NA,NA,NA,NA,NA,NA,NA,"",NA,"32"
"",NA,"",NA,"",NA,NA,NA,NA,NA,NA,"","",1,1,"2024-08-25_22h04.39.309","IAT(Formal)","2021.2.3","Win32",59.88023952,NA,"",NA,"",NA,NA,NA,NA,NA,NA,"","",NA,"",NA,"e",1,1.0409,0,48,48,18,1,"勤奋","e","",NA,NA,NA,NA,NA,NA,"",NA,"",NA,NA,NA,NA,NA,NA,NA,"",NA,"",NA,NA,NA,NA,NA,NA,"","",NA,"",NA,"",NA,NA,NA,NA,NA,NA,NA,"",NA,"32"
"",NA,"",NA,"",NA,NA,NA,NA,NA,NA,"","",1,1,"2024-08-25_22h04.39.309","IAT(Formal)","2021.2.3","Win32",59.88023952,NA,"",NA,"",NA,NA,NA,NA,NA,NA,"","",NA,"",NA,"e",1,0.8562,0,49,49,60,1,"我","e","",NA,NA,NA,NA,NA,NA,"",NA,"",NA,NA,NA,NA,NA,NA,NA,"",NA,"",NA,NA,NA,NA,NA,NA,"","",NA,"",NA,"",NA,NA,NA,NA,NA,NA,NA,"",NA,"32"
"",NA,"",NA,"",NA,NA,NA,NA,NA,NA,"","",1,1,"2024-08-25_22h04.39.309","IAT(Formal)","2021.2.3","Win32",59.88023952,NA,"",NA,"",NA,NA,NA,NA,NA,NA,"","",NA,"",NA,"e",1,0.9852,0,50,50,15,1,"诚实","e","",NA,NA,NA,NA,NA,NA,"",NA,"",NA,NA,NA,NA,NA,NA,NA,"",NA,"",NA,NA,NA,NA,NA,NA,"","",NA,"",NA,"",NA,NA,NA,NA,NA,NA,NA,"",NA,"32"
"",NA,"",NA,"",NA,NA,NA,NA,NA,NA,"","",1,1,"2024-08-25_22h04.39.309","IAT(Formal)","2021.2.3","Win32",59.88023952,NA,"",NA,"",NA,NA,NA,NA,NA,NA,"","",NA,"",NA,"",0,NA,0,51,51,47,1,"固执","i","",NA,NA,NA,NA,NA,NA,"",NA,"",NA,NA,NA,NA,NA,NA,NA,"",NA,"",NA,NA,NA,NA,NA,NA,"","",NA,"",NA,"",NA,NA,NA,NA,NA,NA,NA,"",NA,"32"
"",NA,"",NA,"",NA,NA,NA,NA,NA,NA,"","",1,1,"2024-08-25_22h04.39.309","IAT(Formal)","2021.2.3","Win32",59.88023952,NA,"",NA,"",NA,NA,NA,NA,NA,NA,"","",NA,"",NA,"i",1,1.1381,0,52,52,57,1,"他的","i","",NA,NA,NA,NA,NA,NA,"",NA,"",NA,NA,NA,NA,NA,NA,NA,"",NA,"",NA,NA,NA,NA,NA,NA,"","",NA,"",NA,"",NA,NA,NA,NA,NA,NA,NA,"",NA,"32"
"",NA,"",NA,"",NA,NA,NA,NA,NA,NA,"","",1,1,"2024-08-25_22h04.39.309","IAT(Formal)","2021.2.3","Win32",59.88023952,NA,"",NA,"",NA,NA,NA,NA,NA,NA,"","",NA,"",NA,"i",1,0.7395,0,53,53,5,1,"他","i","",NA,NA,NA,NA,NA,NA,"",NA,"",NA,NA,NA,NA,NA,NA,NA,"",NA,"",NA,NA,NA,NA,NA,NA,"","",NA,"",NA,"",NA,NA,NA,NA,NA,NA,NA,"",NA,"32"
"",NA,"",NA,"",NA,NA,NA,NA,NA,NA,"","",1,1,"2024-08-25_22h04.39.309","IAT(Formal)","2021.2.3","Win32",59.88023952,NA,"",NA,"",NA,NA,NA,NA,NA,NA,"","",NA,"",NA,"i",1,0.8562,0,54,54,44,1,"暴躁","i","",NA,NA,NA,NA,NA,NA,"",NA,"",NA,NA,NA,NA,NA,NA,NA,"",NA,"",NA,NA,NA,NA,NA,NA,"","",NA,"",NA,"",NA,NA,NA,NA,NA,NA,NA,"",NA,"32"
"",NA,"",NA,"",NA,NA,NA,NA,NA,NA,"","",1,1,"2024-08-25_22h04.39.309","IAT(Formal)","2021.2.3","Win32",59.88023952,NA,"",NA,"",NA,NA,NA,NA,NA,NA,"","",NA,"",NA,"e",1,0.9415,0,55,55,19,1,"机智","e","",NA,NA,NA,NA,NA,NA,"",NA,"",NA,NA,NA,NA,NA,NA,NA,"",NA,"",NA,NA,NA,NA,NA,NA,"","",NA,"",NA,"",NA,NA,NA,NA,NA,NA,NA,"",NA,"32"
"",NA,"",NA,"",NA,NA,NA,NA,NA,NA,"","",1,1,"2024-08-25_22h04.39.309","IAT(Formal)","2021.2.3","Win32",59.88023952,NA,"",NA,"",NA,NA,NA,NA,NA,NA,"","",NA,"",NA,"e",1,1.0345,0,56,56,72,1,"我们","e","",NA,NA,NA,NA,NA,NA,"",NA,"",NA,NA,NA,NA,NA,NA,NA,"",NA,"",NA,NA,NA,NA,NA,NA,"","",NA,"",NA,"",NA,NA,NA,NA,NA,NA,NA,"",NA,"32"
"",NA,"",NA,"",NA,NA,NA,NA,NA,NA,"","",1,1,"2024-08-25_22h04.39.309","IAT(Formal)","2021.2.3","Win32",59.88023952,NA,"",NA,"",NA,NA,NA,NA,NA,NA,"","",NA,"",NA,"i",1,1.0058,0,57,57,65,1,"他","i","",NA,NA,NA,NA,NA,NA,"",NA,"",NA,NA,NA,NA,NA,NA,NA,"",NA,"",NA,NA,NA,NA,NA,NA,"","",NA,"",NA,"",NA,NA,NA,NA,NA,NA,NA,"",NA,"32"
"",NA,"",NA,"",NA,NA,NA,NA,NA,NA,"","",1,1,"2024-08-25_22h04.39.309","IAT(Formal)","2021.2.3","Win32",59.88023952,NA,"",NA,"",NA,NA,NA,NA,NA,NA,"","",NA,"",NA,"i",1,0.7866,0,58,58,78,1,"他人","i","",NA,NA,NA,NA,NA,NA,"",NA,"",NA,NA,NA,NA,NA,NA,NA,"",NA,"",NA,NA,NA,NA,NA,NA,"","",NA,"",NA,"",NA,NA,NA,NA,NA,NA,NA,"",NA,"32"
"",NA,"",NA,"",NA,NA,NA,NA,NA,NA,"","",1,1,"2024-08-25_22h04.39.309","IAT(Formal)","2021.2.3","Win32",59.88023952,NA,"",NA,"",NA,NA,NA,NA,NA,NA,"","",NA,"",NA,"e",1,0.9563,0,59,59,27,1,"热情","e","",NA,NA,NA,NA,NA,NA,"",NA,"",NA,NA,NA,NA,NA,NA,NA,"",NA,"",NA,NA,NA,NA,NA,NA,"","",NA,"",NA,"",NA,NA,NA,NA,NA,NA,NA,"",NA,"32"
"",NA,"",NA,"",NA,NA,NA,NA,NA,NA,"","",1,1,"2024-08-25_22h04.39.309","IAT(Formal)","2021.2.3","Win32",59.88023952,NA,"",NA,"",NA,NA,NA,NA,NA,NA,"","",NA,"",NA,"e",1,0.853,0,60,60,74,1,"俺","e","",NA,NA,NA,NA,NA,NA,"",NA,"",NA,NA,NA,NA,NA,NA,NA,"",NA,"",NA,NA,NA,NA,NA,NA,"","",NA,"",NA,"",NA,NA,NA,NA,NA,NA,NA,"",NA,"32"
"",NA,"",NA,"",NA,NA,NA,NA,NA,NA,"","",1,1,"2024-08-25_22h04.39.309","IAT(Formal)","2021.2.3","Win32",59.88023952,NA,"",NA,"",NA,NA,NA,NA,NA,NA,"","",NA,"",NA,"e",1,0.8739,0,61,61,28,1,"活泼","e","",NA,NA,NA,NA,NA,NA,"",NA,"",NA,NA,NA,NA,NA,NA,NA,"",NA,"",NA,NA,NA,NA,NA,NA,"","",NA,"",NA,"",NA,NA,NA,NA,NA,NA,NA,"",NA,"32"
"",NA,"",NA,"",NA,NA,NA,NA,NA,NA,"","",1,1,"2024-08-25_22h04.39.309","IAT(Formal)","2021.2.3","Win32",59.88023952,NA,"",NA,"",NA,NA,NA,NA,NA,NA,"","",NA,"",NA,"i",1,1.0079,0,62,62,35,1,"消极","i","",NA,NA,NA,NA,NA,NA,"",NA,"",NA,NA,NA,NA,NA,NA,NA,"",NA,"",NA,NA,NA,NA,NA,NA,"","",NA,"",NA,"",NA,NA,NA,NA,NA,NA,NA,"",NA,"32"
"",NA,"",NA,"",NA,NA,NA,NA,NA,NA,"","",1,1,"2024-08-25_22h04.39.309","IAT(Formal)","2021.2.3","Win32",59.88023952,NA,"",NA,"",NA,NA,NA,NA,NA,NA,"","",NA,"",NA,"i",1,1.0396,0,63,63,67,1,"他的","i","",NA,NA,NA,NA,NA,NA,"",NA,"",NA,NA,NA,NA,NA,NA,NA,"",NA,"",NA,NA,NA,NA,NA,NA,"","",NA,"",NA,"",NA,NA,NA,NA,NA,NA,NA,"",NA,"32"
"",NA,"",NA,"",NA,NA,NA,NA,NA,NA,"","",1,1,"2024-08-25_22h04.39.309","IAT(Formal)","2021.2.3","Win32",59.88023952,NA,"",NA,"",NA,NA,NA,NA,NA,NA,"","",NA,"",NA,"e",1,1.035,0,64,64,17,1,"勇敢","e","",NA,NA,NA,NA,NA,NA,"",NA,"",NA,NA,NA,NA,NA,NA,NA,"",NA,"",NA,NA,NA,NA,NA,NA,"","",NA,"",NA,"",NA,NA,NA,NA,NA,NA,NA,"",NA,"32"
"",NA,"",NA,"",NA,NA,NA,NA,NA,NA,"","",1,1,"2024-08-25_22h04.39.309","IAT(Formal)","2021.2.3","Win32",59.88023952,NA,"",NA,"",NA,NA,NA,NA,NA,NA,"","",NA,"",NA,"i",1,0.828,0,65,65,76,1,"他们","i","",NA,NA,NA,NA,NA,NA,"",NA,"",NA,NA,NA,NA,NA,NA,NA,"",NA,"",NA,NA,NA,NA,NA,NA,"","",NA,"",NA,"",NA,NA,NA,NA,NA,NA,NA,"",NA,"32"
"",NA,"",NA,"",NA,NA,NA,NA,NA,NA,"","",1,1,"2024-08-25_22h04.39.309","IAT(Formal)","2021.2.3","Win32",59.88023952,NA,"",NA,"",NA,NA,NA,NA,NA,NA,"","",NA,"",NA,"i",1,1.0026,0,66,66,40,1,"执拗","i","",NA,NA,NA,NA,NA,NA,"",NA,"",NA,NA,NA,NA,NA,NA,NA,"",NA,"",NA,NA,NA,NA,NA,NA,"","",NA,"",NA,"",NA,NA,NA,NA,NA,NA,NA,"",NA,"32"
"",NA,"",NA,"",NA,NA,NA,NA,NA,NA,"","",1,1,"2024-08-25_22h04.39.309","IAT(Formal)","2021.2.3","Win32",59.88023952,NA,"",NA,"",NA,NA,NA,NA,NA,NA,"","",NA,"",NA,"i",1,0.901,0,67,67,77,1,"他的","i","",NA,NA,NA,NA,NA,NA,"",NA,"",NA,NA,NA,NA,NA,NA,NA,"",NA,"",NA,NA,NA,NA,NA,NA,"","",NA,"",NA,"",NA,NA,NA,NA,NA,NA,NA,"",NA,"32"
"",NA,"",NA,"",NA,NA,NA,NA,NA,NA,"","",1,1,"2024-08-25_22h04.39.309","IAT(Formal)","2021.2.3","Win32",59.88023952,NA,"",NA,"",NA,NA,NA,NA,NA,NA,"","",NA,"",NA,"i",1,0.8892,0,68,68,48,1,"轻率","i","",NA,NA,NA,NA,NA,NA,"",NA,"",NA,NA,NA,NA,NA,NA,NA,"",NA,"",NA,NA,NA,NA,NA,NA,"","",NA,"",NA,"",NA,NA,NA,NA,NA,NA,NA,"",NA,"32"
"",NA,"",NA,"",NA,NA,NA,NA,NA,NA,"","",1,1,"2024-08-25_22h04.39.309","IAT(Formal)","2021.2.3","Win32",59.88023952,NA,"",NA,"",NA,NA,NA,NA,NA,NA,"","",NA,"",NA,"i",1,0.908,0,69,69,46,1,"野蛮","i","",NA,NA,NA,NA,NA,NA,"",NA,"",NA,NA,NA,NA,NA,NA,NA,"",NA,"",NA,NA,NA,NA,NA,NA,"","",NA,"",NA,"",NA,NA,NA,NA,NA,NA,NA,"",NA,"32"
"",NA,"",NA,"",NA,NA,NA,NA,NA,NA,"","",1,1,"2024-08-25_22h04.39.309","IAT(Formal)","2021.2.3","Win32",59.88023952,NA,"",NA,"",NA,NA,NA,NA,NA,NA,"","",NA,"",NA,"i",1,0.6848,0,70,70,79,1,"其他","i","",NA,NA,NA,NA,NA,NA,"",NA,"",NA,NA,NA,NA,NA,NA,NA,"",NA,"",NA,NA,NA,NA,NA,NA,"","",NA,"",NA,"",NA,NA,NA,NA,NA,NA,NA,"",NA,"32"
"",NA,"",NA,"",NA,NA,NA,NA,NA,NA,"","",1,1,"2024-08-25_22h04.39.309","IAT(Formal)","2021.2.3","Win32",59.88023952,NA,"",NA,"",NA,NA,NA,NA,NA,NA,"","",NA,"",NA,"i",1,0.6745,0,71,71,9,1,"其他","i","",NA,NA,NA,NA,NA,NA,"",NA,"",NA,NA,NA,NA,NA,NA,NA,"",NA,"",NA,NA,NA,NA,NA,NA,"","",NA,"",NA,"",NA,NA,NA,NA,NA,NA,NA,"",NA,"32"
"",NA,"",NA,"",NA,NA,NA,NA,NA,NA,"","",1,1,"2024-08-25_22h04.39.309","IAT(Formal)","2021.2.3","Win32",59.88023952,NA,"",NA,"",NA,NA,NA,NA,NA,NA,"","",NA,"",NA,"e",1,1.4251,0,72,72,26,1,"冷静","e","",NA,NA,NA,NA,NA,NA,"",NA,"",NA,NA,NA,NA,NA,NA,NA,"",NA,"",NA,NA,NA,NA,NA,NA,"","",NA,"",NA,"",NA,NA,NA,NA,NA,NA,NA,"",NA,"32"
"",NA,"",NA,"",NA,NA,NA,NA,NA,NA,"","",1,1,"2024-08-25_22h04.39.309","IAT(Formal)","2021.2.3","Win32",59.88023952,NA,"",NA,"",NA,NA,NA,NA,NA,NA,"","",NA,"",NA,"e",1,0.8074,0,73,73,4,1,"俺","e","",NA,NA,NA,NA,NA,NA,"",NA,"",NA,NA,NA,NA,NA,NA,NA,"",NA,"",NA,NA,NA,NA,NA,NA,"","",NA,"",NA,"",NA,NA,NA,NA,NA,NA,NA,"",NA,"32"
"",NA,"",NA,"",NA,NA,NA,NA,NA,NA,"","",1,1,"2024-08-25_22h04.39.309","IAT(Formal)","2021.2.3","Win32",59.88023952,NA,"",NA,"",NA,NA,NA,NA,NA,NA,"","",NA,"",NA,"e",1,0.8184,0,74,74,2,1,"我们","e","",NA,NA,NA,NA,NA,NA,"",NA,"",NA,NA,NA,NA,NA,NA,NA,"",NA,"",NA,NA,NA,NA,NA,NA,"","",NA,"",NA,"",NA,NA,NA,NA,NA,NA,NA,"",NA,"32"
"",NA,"",NA,"",NA,NA,NA,NA,NA,NA,"","",1,1,"2024-08-25_22h04.39.309","IAT(Formal)","2021.2.3","Win32",59.88023952,NA,"",NA,"",NA,NA,NA,NA,NA,NA,"","",NA,"",NA,"e",1,0.5678,0,75,75,61,1,"我的","e","",NA,NA,NA,NA,NA,NA,"",NA,"",NA,NA,NA,NA,NA,NA,NA,"",NA,"",NA,NA,NA,NA,NA,NA,"","",NA,"",NA,"",NA,NA,NA,NA,NA,NA,NA,"",NA,"32"
"",NA,"",NA,"",NA,NA,NA,NA,NA,NA,"","",1,1,"2024-08-25_22h04.39.309","IAT(Formal)","2021.2.3","Win32",59.88023952,NA,"",NA,"",NA,NA,NA,NA,NA,NA,"","",NA,"",NA,"i",1,0.9407,0,76,76,30,1,"卑鄙","i","",NA,NA,NA,NA,NA,NA,"",NA,"",NA,NA,NA,NA,NA,NA,NA,"",NA,"",NA,NA,NA,NA,NA,NA,"","",NA,"",NA,"",NA,NA,NA,NA,NA,NA,NA,"",NA,"32"
"",NA,"",NA,"",NA,NA,NA,NA,NA,NA,"","",1,1,"2024-08-25_22h04.39.309","IAT(Formal)","2021.2.3","Win32",59.88023952,NA,"",NA,"",NA,NA,NA,NA,NA,NA,"","",NA,"",NA,"i",1,0.7247,0,77,77,38,1,"鲁莽","i","",NA,NA,NA,NA,NA,NA,"",NA,"",NA,NA,NA,NA,NA,NA,NA,"",NA,"",NA,NA,NA,NA,NA,NA,"","",NA,"",NA,"",NA,NA,NA,NA,NA,NA,NA,"",NA,"32"
"",NA,"",NA,"",NA,NA,NA,NA,NA,NA,"","",1,1,"2024-08-25_22h04.39.309","IAT(Formal)","2021.2.3","Win32",59.88023952,NA,"",NA,"",NA,NA,NA,NA,NA,NA,"","",NA,"",NA,"i",1,0.705,0,78,78,43,1,"自私","i","",NA,NA,NA,NA,NA,NA,"",NA,"",NA,NA,NA,NA,NA,NA,NA,"",NA,"",NA,NA,NA,NA,NA,NA,"","",NA,"",NA,"",NA,NA,NA,NA,NA,NA,NA,"",NA,"32"
"",NA,"",NA,"",NA,NA,NA,NA,NA,NA,"","",1,1,"2024-08-25_22h04.39.309","IAT(Formal)","2021.2.3","Win32",59.88023952,NA,"",NA,"",NA,NA,NA,NA,NA,NA,"","",NA,"",NA,"e",1,1.039,0,79,79,11,1,"崇高","e","",NA,NA,NA,NA,NA,NA,"",NA,"",NA,NA,NA,NA,NA,NA,NA,"",NA,"",NA,NA,NA,NA,NA,NA,"","",NA,"",NA,"",NA,NA,NA,NA,NA,NA,NA,"",NA,"32"
"",NA,"",NA,"",NA,NA,NA,NA,NA,NA,"","",1,1,"2024-08-25_22h04.39.309","IAT(Formal)","2021.2.3","Win32",59.88023952,NA,"",NA,"",NA,NA,NA,NA,NA,NA,"","",NA,"",NA,"e",1,1.259,NA,NA,NA,NA,NA,"朴实","e","space",11.1356,0,0,0,24,1,"",NA,"",NA,NA,NA,NA,NA,NA,NA,"",NA,"",NA,NA,NA,NA,NA,NA,"","",NA,"",NA,"",NA,NA,NA,NA,NA,NA,NA,"",NA,"32"
"",NA,"",NA,"",NA,NA,NA,NA,NA,NA,"","",1,1,"2024-08-25_22h04.39.309","IAT(Formal)","2021.2.3","Win32",59.88023952,NA,"",NA,"",NA,NA,NA,NA,NA,NA,"","",NA,"",NA,"i",1,1.0681,NA,NA,NA,NA,NA,"其他","i","",NA,0,1,1,69,1,"",NA,"",NA,NA,NA,NA,NA,NA,NA,"",NA,"",NA,NA,NA,NA,NA,NA,"","",NA,"",NA,"",NA,NA,NA,NA,NA,NA,NA,"",NA,"32"
"",NA,"",NA,"",NA,NA,NA,NA,NA,NA,"","",1,1,"2024-08-25_22h04.39.309","IAT(Formal)","2021.2.3","Win32",59.88023952,NA,"",NA,"",NA,NA,NA,NA,NA,NA,"","",NA,"",NA,"i",1,1.1088,NA,NA,NA,NA,NA,"他的","i","",NA,0,2,2,67,1,"",NA,"",NA,NA,NA,NA,NA,NA,NA,"",NA,"",NA,NA,NA,NA,NA,NA,"","",NA,"",NA,"",NA,NA,NA,NA,NA,NA,NA,"",NA,"32"
"",NA,"",NA,"",NA,NA,NA,NA,NA,NA,"","",1,1,"2024-08-25_22h04.39.309","IAT(Formal)","2021.2.3","Win32",59.88023952,NA,"",NA,"",NA,NA,NA,NA,NA,NA,"","",NA,"",NA,"e",1,1.3285,NA,NA,NA,NA,NA,"我们","e","",NA,0,3,3,52,1,"",NA,"",NA,NA,NA,NA,NA,NA,NA,"",NA,"",NA,NA,NA,NA,NA,NA,"","",NA,"",NA,"",NA,NA,NA,NA,NA,NA,NA,"",NA,"32"
"",NA,"",NA,"",NA,NA,NA,NA,NA,NA,"","",1,1,"2024-08-25_22h04.39.309","IAT(Formal)","2021.2.3","Win32",59.88023952,NA,"",NA,"",NA,NA,NA,NA,NA,NA,"","",NA,"",NA,"i",1,0.9347,NA,NA,NA,NA,NA,"猖狂","i","",NA,0,4,4,45,1,"",NA,"",NA,NA,NA,NA,NA,NA,NA,"",NA,"",NA,NA,NA,NA,NA,NA,"","",NA,"",NA,"",NA,NA,NA,NA,NA,NA,NA,"",NA,"32"
"",NA,"",NA,"",NA,NA,NA,NA,NA,NA,"","",1,1,"2024-08-25_22h04.39.309","IAT(Formal)","2021.2.3","Win32",59.88023952,NA,"",NA,"",NA,NA,NA,NA,NA,NA,"","",NA,"",NA,"i",1,0.6236,NA,NA,NA,NA,NA,"他们","i","",NA,0,5,5,66,1,"",NA,"",NA,NA,NA,NA,NA,NA,NA,"",NA,"",NA,NA,NA,NA,NA,NA,"","",NA,"",NA,"",NA,NA,NA,NA,NA,NA,NA,"",NA,"32"
"",NA,"",NA,"",NA,NA,NA,NA,NA,NA,"","",1,1,"2024-08-25_22h04.39.309","IAT(Formal)","2021.2.3","Win32",59.88023952,NA,"",NA,"",NA,NA,NA,NA,NA,NA,"","",NA,"",NA,"e",1,0.6341,NA,NA,NA,NA,NA,"俺","e","",NA,0,6,6,4,1,"",NA,"",NA,NA,NA,NA,NA,NA,NA,"",NA,"",NA,NA,NA,NA,NA,NA,"","",NA,"",NA,"",NA,NA,NA,NA,NA,NA,NA,"",NA,"32"
"",NA,"",NA,"",NA,NA,NA,NA,NA,NA,"","",1,1,"2024-08-25_22h04.39.309","IAT(Formal)","2021.2.3","Win32",59.88023952,NA,"",NA,"",NA,NA,NA,NA,NA,NA,"","",NA,"",NA,"i",1,0.6254,NA,NA,NA,NA,NA,"野蛮","i","",NA,0,7,7,46,1,"",NA,"",NA,NA,NA,NA,NA,NA,NA,"",NA,"",NA,NA,NA,NA,NA,NA,"","",NA,"",NA,"",NA,NA,NA,NA,NA,NA,NA,"",NA,"32"
"",NA,"",NA,"",NA,NA,NA,NA,NA,NA,"","",1,1,"2024-08-25_22h04.39.309","IAT(Formal)","2021.2.3","Win32",59.88023952,NA,"",NA,"",NA,NA,NA,NA,NA,NA,"","",NA,"",NA,"e",1,0.6242,NA,NA,NA,NA,NA,"机智","e","",NA,0,8,8,19,1,"",NA,"",NA,NA,NA,NA,NA,NA,NA,"",NA,"",NA,NA,NA,NA,NA,NA,"","",NA,"",NA,"",NA,NA,NA,NA,NA,NA,NA,"",NA,"32"
"",NA,"",NA,"",NA,NA,NA,NA,NA,NA,"","",1,1,"2024-08-25_22h04.39.309","IAT(Formal)","2021.2.3","Win32",59.88023952,NA,"",NA,"",NA,NA,NA,NA,NA,NA,"","",NA,"",NA,"e",1,0.6853,NA,NA,NA,NA,NA,"勇敢","e","",NA,0,9,9,17,1,"",NA,"",NA,NA,NA,NA,NA,NA,NA,"",NA,"",NA,NA,NA,NA,NA,NA,"","",NA,"",NA,"",NA,NA,NA,NA,NA,NA,NA,"",NA,"32"
"",NA,"",NA,"",NA,NA,NA,NA,NA,NA,"","",1,1,"2024-08-25_22h04.39.309","IAT(Formal)","2021.2.3","Win32",59.88023952,NA,"",NA,"",NA,NA,NA,NA,NA,NA,"","",NA,"",NA,"i",1,0.6751,NA,NA,NA,NA,NA,"凶狠","i","",NA,0,10,10,42,1,"",NA,"",NA,NA,NA,NA,NA,NA,NA,"",NA,"",NA,NA,NA,NA,NA,NA,"","",NA,"",NA,"",NA,NA,NA,NA,NA,NA,NA,"",NA,"32"
"",NA,"",NA,"",NA,NA,NA,NA,NA,NA,"","",1,1,"2024-08-25_22h04.39.309","IAT(Formal)","2021.2.3","Win32",59.88023952,NA,"",NA,"",NA,NA,NA,NA,NA,NA,"","",NA,"",NA,"e",1,0.6103,NA,NA,NA,NA,NA,"正直","e","",NA,0,11,11,16,1,"",NA,"",NA,NA,NA,NA,NA,NA,NA,"",NA,"",NA,NA,NA,NA,NA,NA,"","",NA,"",NA,"",NA,NA,NA,NA,NA,NA,NA,"",NA,"32"
"",NA,"",NA,"",NA,NA,NA,NA,NA,NA,"","",1,1,"2024-08-25_22h04.39.309","IAT(Formal)","2021.2.3","Win32",59.88023952,NA,"",NA,"",NA,NA,NA,NA,NA,NA,"","",NA,"",NA,"i",1,0.7345,NA,NA,NA,NA,NA,"执拗","i","",NA,0,12,12,40,1,"",NA,"",NA,NA,NA,NA,NA,NA,NA,"",NA,"",NA,NA,NA,NA,NA,NA,"","",NA,"",NA,"",NA,NA,NA,NA,NA,NA,NA,"",NA,"32"
"",NA,"",NA,"",NA,NA,NA,NA,NA,NA,"","",1,1,"2024-08-25_22h04.39.309","IAT(Formal)","2021.2.3","Win32",59.88023952,NA,"",NA,"",NA,NA,NA,NA,NA,NA,"","",NA,"",NA,"e",1,0.5185,NA,NA,NA,NA,NA,"自己","e","",NA,0,13,13,53,1,"",NA,"",NA,NA,NA,NA,NA,NA,NA,"",NA,"",NA,NA,NA,NA,NA,NA,"","",NA,"",NA,"",NA,NA,NA,NA,NA,NA,NA,"",NA,"32"
"",NA,"",NA,"",NA,NA,NA,NA,NA,NA,"","",1,1,"2024-08-25_22h04.39.309","IAT(Formal)","2021.2.3","Win32",59.88023952,NA,"",NA,"",NA,NA,NA,NA,NA,NA,"","",NA,"",NA,"i",1,0.6188,NA,NA,NA,NA,NA,"他人","i","",NA,0,14,14,8,1,"",NA,"",NA,NA,NA,NA,NA,NA,NA,"",NA,"",NA,NA,NA,NA,NA,NA,"","",NA,"",NA,"",NA,NA,NA,NA,NA,NA,NA,"",NA,"32"
"",NA,"",NA,"",NA,NA,NA,NA,NA,NA,"","",1,1,"2024-08-25_22h04.39.309","IAT(Formal)","2021.2.3","Win32",59.88023952,NA,"",NA,"",NA,NA,NA,NA,NA,NA,"","",NA,"",NA,"e",1,0.5593,NA,NA,NA,NA,NA,"自己","e","",NA,0,15,15,73,1,"",NA,"",NA,NA,NA,NA,NA,NA,NA,"",NA,"",NA,NA,NA,NA,NA,NA,"","",NA,"",NA,"",NA,NA,NA,NA,NA,NA,NA,"",NA,"32"
"",NA,"",NA,"",NA,NA,NA,NA,NA,NA,"","",1,1,"2024-08-25_22h04.39.309","IAT(Formal)","2021.2.3","Win32",59.88023952,NA,"",NA,"",NA,NA,NA,NA,NA,NA,"","",NA,"",NA,"e",1,0.4847,NA,NA,NA,NA,NA,"我的","e","",NA,0,16,16,71,1,"",NA,"",NA,NA,NA,NA,NA,NA,NA,"",NA,"",NA,NA,NA,NA,NA,NA,"","",NA,"",NA,"",NA,NA,NA,NA,NA,NA,NA,"",NA,"32"
"",NA,"",NA,"",NA,NA,NA,NA,NA,NA,"","",1,1,"2024-08-25_22h04.39.309","IAT(Formal)","2021.2.3","Win32",59.88023952,NA,"",NA,"",NA,NA,NA,NA,NA,NA,"","",NA,"",NA,"e",1,0.5599,NA,NA,NA,NA,NA,"自己","e","",NA,0,17,17,3,1,"",NA,"",NA,NA,NA,NA,NA,NA,NA,"",NA,"",NA,NA,NA,NA,NA,NA,"","",NA,"",NA,"",NA,NA,NA,NA,NA,NA,NA,"",NA,"32"
"",NA,"",NA,"",NA,NA,NA,NA,NA,NA,"","",1,1,"2024-08-25_22h04.39.309","IAT(Formal)","2021.2.3","Win32",59.88023952,NA,"",NA,"",NA,NA,NA,NA,NA,NA,"","",NA,"",NA,"i",1,0.5565,NA,NA,NA,NA,NA,"其他","i","",NA,0,18,18,59,1,"",NA,"",NA,NA,NA,NA,NA,NA,NA,"",NA,"",NA,NA,NA,NA,NA,NA,"","",NA,"",NA,"",NA,NA,NA,NA,NA,NA,NA,"",NA,"32"
"",NA,"",NA,"",NA,NA,NA,NA,NA,NA,"","",1,1,"2024-08-25_22h04.39.309","IAT(Formal)","2021.2.3","Win32",59.88023952,NA,"",NA,"",NA,NA,NA,NA,NA,NA,"","",NA,"",NA,"e",1,0.6164,NA,NA,NA,NA,NA,"热情","e","",NA,0,19,19,27,1,"",NA,"",NA,NA,NA,NA,NA,NA,NA,"",NA,"",NA,NA,NA,NA,NA,NA,"","",NA,"",NA,"",NA,NA,NA,NA,NA,NA,NA,"",NA,"32"
"",NA,"",NA,"",NA,NA,NA,NA,NA,NA,"","",1,1,"2024-08-25_22h04.39.309","IAT(Formal)","2021.2.3","Win32",59.88023952,NA,"",NA,"",NA,NA,NA,NA,NA,NA,"","",NA,"",NA,"e",1,0.6749,NA,NA,NA,NA,NA,"稳重","e","",NA,0,20,20,21,1,"",NA,"",NA,NA,NA,NA,NA,NA,NA,"",NA,"",NA,NA,NA,NA,NA,NA,"","",NA,"",NA,"",NA,NA,NA,NA,NA,NA,NA,"",NA,"32"
"",NA,"",NA,"",NA,NA,NA,NA,NA,NA,"","",1,1,"2024-08-25_22h04.39.309","IAT(Formal)","2021.2.3","Win32",59.88023952,NA,"",NA,"",NA,NA,NA,NA,NA,NA,"","",NA,"",NA,"i",1,0.6561,NA,NA,NA,NA,NA,"下贱","i","",NA,0,21,21,49,1,"",NA,"",NA,NA,NA,NA,NA,NA,NA,"",NA,"",NA,NA,NA,NA,NA,NA,"","",NA,"",NA,"",NA,NA,NA,NA,NA,NA,NA,"",NA,"32"
"",NA,"",NA,"",NA,NA,NA,NA,NA,NA,"","",1,1,"2024-08-25_22h04.39.309","IAT(Formal)","2021.2.3","Win32",59.88023952,NA,"",NA,"",NA,NA,NA,NA,NA,NA,"","",NA,"",NA,"i",1,0.7487,NA,NA,NA,NA,NA,"其他","i","",NA,0,22,22,79,1,"",NA,"",NA,NA,NA,NA,NA,NA,NA,"",NA,"",NA,NA,NA,NA,NA,NA,"","",NA,"",NA,"",NA,NA,NA,NA,NA,NA,NA,"",NA,"32"
"",NA,"",NA,"",NA,NA,NA,NA,NA,NA,"","",1,1,"2024-08-25_22h04.39.309","IAT(Formal)","2021.2.3","Win32",59.88023952,NA,"",NA,"",NA,NA,NA,NA,NA,NA,"","",NA,"",NA,"i",1,0.6008,NA,NA,NA,NA,NA,"他人","i","",NA,0,23,23,78,1,"",NA,"",NA,NA,NA,NA,NA,NA,NA,"",NA,"",NA,NA,NA,NA,NA,NA,"","",NA,"",NA,"",NA,NA,NA,NA,NA,NA,NA,"",NA,"32"
"",NA,"",NA,"",NA,NA,NA,NA,NA,NA,"","",1,1,"2024-08-25_22h04.39.309","IAT(Formal)","2021.2.3","Win32",59.88023952,NA,"",NA,"",NA,NA,NA,NA,NA,NA,"","",NA,"",NA,"e",1,0.6252,NA,NA,NA,NA,NA,"我","e","",NA,0,24,24,70,1,"",NA,"",NA,NA,NA,NA,NA,NA,NA,"",NA,"",NA,NA,NA,NA,NA,NA,"","",NA,"",NA,"",NA,NA,NA,NA,NA,NA,NA,"",NA,"32"
"",NA,"",NA,"",NA,NA,NA,NA,NA,NA,"","",1,1,"2024-08-25_22h04.39.309","IAT(Formal)","2021.2.3","Win32",59.88023952,NA,"",NA,"",NA,NA,NA,NA,NA,NA,"","",NA,"",NA,"e",1,0.6416,NA,NA,NA,NA,NA,"诚实","e","",NA,0,25,25,15,1,"",NA,"",NA,NA,NA,NA,NA,NA,NA,"",NA,"",NA,NA,NA,NA,NA,NA,"","",NA,"",NA,"",NA,NA,NA,NA,NA,NA,NA,"",NA,"32"
"",NA,"",NA,"",NA,NA,NA,NA,NA,NA,"","",1,1,"2024-08-25_22h04.39.309","IAT(Formal)","2021.2.3","Win32",59.88023952,NA,"",NA,"",NA,NA,NA,NA,NA,NA,"","",NA,"",NA,"e",1,0.585,NA,NA,NA,NA,NA,"我","e","",NA,0,26,26,60,1,"",NA,"",NA,NA,NA,NA,NA,NA,NA,"",NA,"",NA,NA,NA,NA,NA,NA,"","",NA,"",NA,"",NA,NA,NA,NA,NA,NA,NA,"",NA,"32"
"",NA,"",NA,"",NA,NA,NA,NA,NA,NA,"","",1,1,"2024-08-25_22h04.39.309","IAT(Formal)","2021.2.3","Win32",59.88023952,NA,"",NA,"",NA,NA,NA,NA,NA,NA,"","",NA,"",NA,"e",1,0.5558,NA,NA,NA,NA,NA,"活泼","e","",NA,0,27,27,28,1,"",NA,"",NA,NA,NA,NA,NA,NA,NA,"",NA,"",NA,NA,NA,NA,NA,NA,"","",NA,"",NA,"",NA,NA,NA,NA,NA,NA,NA,"",NA,"32"
"",NA,"",NA,"",NA,NA,NA,NA,NA,NA,"","",1,1,"2024-08-25_22h04.39.309","IAT(Formal)","2021.2.3","Win32",59.88023952,NA,"",NA,"",NA,NA,NA,NA,NA,NA,"","",NA,"",NA,"i",1,0.7025,NA,NA,NA,NA,NA,"他人","i","",NA,0,28,28,58,1,"",NA,"",NA,NA,NA,NA,NA,NA,NA,"",NA,"",NA,NA,NA,NA,NA,NA,"","",NA,"",NA,"",NA,NA,NA,NA,NA,NA,NA,"",NA,"32"
"",NA,"",NA,"",NA,NA,NA,NA,NA,NA,"","",1,1,"2024-08-25_22h04.39.309","IAT(Formal)","2021.2.3","Win32",59.88023952,NA,"",NA,"",NA,NA,NA,NA,NA,NA,"","",NA,"",NA,"e",1,0.7402,NA,NA,NA,NA,NA,"杰出","e","",NA,0,29,29,13,1,"",NA,"",NA,NA,NA,NA,NA,NA,NA,"",NA,"",NA,NA,NA,NA,NA,NA,"","",NA,"",NA,"",NA,NA,NA,NA,NA,NA,NA,"",NA,"32"
"",NA,"",NA,"",NA,NA,NA,NA,NA,NA,"","",1,1,"2024-08-25_22h04.39.309","IAT(Formal)","2021.2.3","Win32",59.88023952,NA,"",NA,"",NA,NA,NA,NA,NA,NA,"","",NA,"",NA,"i",1,0.7013,NA,NA,NA,NA,NA,"虚伪","i","",NA,0,30,30,31,1,"",NA,"",NA,NA,NA,NA,NA,NA,NA,"",NA,"",NA,NA,NA,NA,NA,NA,"","",NA,"",NA,"",NA,NA,NA,NA,NA,NA,NA,"",NA,"32"
"",NA,"",NA,"",NA,NA,NA,NA,NA,NA,"","",1,1,"2024-08-25_22h04.39.309","IAT(Formal)","2021.2.3","Win32",59.88023952,NA,"",NA,"",NA,NA,NA,NA,NA,NA,"","",NA,"",NA,"e",1,0.7085,NA,NA,NA,NA,NA,"无私","e","",NA,0,31,31,22,1,"",NA,"",NA,NA,NA,NA,NA,NA,NA,"",NA,"",NA,NA,NA,NA,NA,NA,"","",NA,"",NA,"",NA,NA,NA,NA,NA,NA,NA,"",NA,"32"
"",NA,"",NA,"",NA,NA,NA,NA,NA,NA,"","",1,1,"2024-08-25_22h04.39.309","IAT(Formal)","2021.2.3","Win32",59.88023952,NA,"",NA,"",NA,NA,NA,NA,NA,NA,"","",NA,"",NA,"e",1,0.5578,NA,NA,NA,NA,NA,"我的","e","",NA,0,32,32,51,1,"",NA,"",NA,NA,NA,NA,NA,NA,NA,"",NA,"",NA,NA,NA,NA,NA,NA,"","",NA,"",NA,"",NA,NA,NA,NA,NA,NA,NA,"",NA,"32"
"",NA,"",NA,"",NA,NA,NA,NA,NA,NA,"","",1,1,"2024-08-25_22h04.39.309","IAT(Formal)","2021.2.3","Win32",59.88023952,NA,"",NA,"",NA,NA,NA,NA,NA,NA,"","",NA,"",NA,"i",1,0.6743,NA,NA,NA,NA,NA,"他们","i","",NA,0,33,33,56,1,"",NA,"",NA,NA,NA,NA,NA,NA,NA,"",NA,"",NA,NA,NA,NA,NA,NA,"","",NA,"",NA,"",NA,NA,NA,NA,NA,NA,NA,"",NA,"32"
"",NA,"",NA,"",NA,NA,NA,NA,NA,NA,"","",1,1,"2024-08-25_22h04.39.309","IAT(Formal)","2021.2.3","Win32",59.88023952,NA,"",NA,"",NA,NA,NA,NA,NA,NA,"","",NA,"",NA,"e",1,0.6064,NA,NA,NA,NA,NA,"优秀","e","",NA,0,34,34,10,1,"",NA,"",NA,NA,NA,NA,NA,NA,NA,"",NA,"",NA,NA,NA,NA,NA,NA,"","",NA,"",NA,"",NA,NA,NA,NA,NA,NA,NA,"",NA,"32"
"",NA,"",NA,"",NA,NA,NA,NA,NA,NA,"","",1,1,"2024-08-25_22h04.39.309","IAT(Formal)","2021.2.3","Win32",59.88023952,NA,"",NA,"",NA,NA,NA,NA,NA,NA,"","",NA,"",NA,"i",1,1.0432,NA,NA,NA,NA,NA,"他的","i","",NA,0,35,35,7,1,"",NA,"",NA,NA,NA,NA,NA,NA,NA,"",NA,"",NA,NA,NA,NA,NA,NA,"","",NA,"",NA,"",NA,NA,NA,NA,NA,NA,NA,"",NA,"32"
"",NA,"",NA,"",NA,NA,NA,NA,NA,NA,"","",1,1,"2024-08-25_22h04.39.309","IAT(Formal)","2021.2.3","Win32",59.88023952,NA,"",NA,"",NA,NA,NA,NA,NA,NA,"","",NA,"",NA,"",0,NA,NA,NA,NA,NA,NA,"卑鄙","i","",NA,0,36,36,30,1,"",NA,"",NA,NA,NA,NA,NA,NA,NA,"",NA,"",NA,NA,NA,NA,NA,NA,"","",NA,"",NA,"",NA,NA,NA,NA,NA,NA,NA,"",NA,"32"
"",NA,"",NA,"",NA,NA,NA,NA,NA,NA,"","",1,1,"2024-08-25_22h04.39.309","IAT(Formal)","2021.2.3","Win32",59.88023952,NA,"",NA,"",NA,NA,NA,NA,NA,NA,"","",NA,"",NA,"i",1,0.7689,NA,NA,NA,NA,NA,"他的","i","",NA,0,37,37,57,1,"",NA,"",NA,NA,NA,NA,NA,NA,NA,"",NA,"",NA,NA,NA,NA,NA,NA,"","",NA,"",NA,"",NA,NA,NA,NA,NA,NA,NA,"",NA,"32"
"",NA,"",NA,"",NA,NA,NA,NA,NA,NA,"","",1,1,"2024-08-25_22h04.39.309","IAT(Formal)","2021.2.3","Win32",59.88023952,NA,"",NA,"",NA,NA,NA,NA,NA,NA,"","",NA,"",NA,"e",1,0.6267,NA,NA,NA,NA,NA,"崇高","e","",NA,0,38,38,11,1,"",NA,"",NA,NA,NA,NA,NA,NA,NA,"",NA,"",NA,NA,NA,NA,NA,NA,"","",NA,"",NA,"",NA,NA,NA,NA,NA,NA,NA,"",NA,"32"
"",NA,"",NA,"",NA,NA,NA,NA,NA,NA,"","",1,1,"2024-08-25_22h04.39.309","IAT(Formal)","2021.2.3","Win32",59.88023952,NA,"",NA,"",NA,NA,NA,NA,NA,NA,"","",NA,"",NA,"i",1,0.708,NA,NA,NA,NA,NA,"刻薄","i","",NA,0,39,39,33,1,"",NA,"",NA,NA,NA,NA,NA,NA,NA,"",NA,"",NA,NA,NA,NA,NA,NA,"","",NA,"",NA,"",NA,NA,NA,NA,NA,NA,NA,"",NA,"32"
"",NA,"",NA,"",NA,NA,NA,NA,NA,NA,"","",1,1,"2024-08-25_22h04.39.309","IAT(Formal)","2021.2.3","Win32",59.88023952,NA,"",NA,"",NA,NA,NA,NA,NA,NA,"","",NA,"",NA,"e",0,0.5585,NA,NA,NA,NA,NA,"他的","i","",NA,0,40,40,77,1,"",NA,"",NA,NA,NA,NA,NA,NA,NA,"",NA,"",NA,NA,NA,NA,NA,NA,"","",NA,"",NA,"",NA,NA,NA,NA,NA,NA,NA,"",NA,"32"
"",NA,"",NA,"",NA,NA,NA,NA,NA,NA,"","",1,1,"2024-08-25_22h04.39.309","IAT(Formal)","2021.2.3","Win32",59.88023952,NA,"",NA,"",NA,NA,NA,NA,NA,NA,"","",NA,"",NA,"e",1,0.7355,NA,NA,NA,NA,NA,"乐观","e","",NA,0,41,41,14,1,"",NA,"",NA,NA,NA,NA,NA,NA,NA,"",NA,"",NA,NA,NA,NA,NA,NA,"","",NA,"",NA,"",NA,NA,NA,NA,NA,NA,NA,"",NA,"32"
"",NA,"",NA,"",NA,NA,NA,NA,NA,NA,"","",1,1,"2024-08-25_22h04.39.309","IAT(Formal)","2021.2.3","Win32",59.88023952,NA,"",NA,"",NA,NA,NA,NA,NA,NA,"","",NA,"",NA,"e",1,0.6516,NA,NA,NA,NA,NA,"聪明","e","",NA,0,42,42,12,1,"",NA,"",NA,NA,NA,NA,NA,NA,NA,"",NA,"",NA,NA,NA,NA,NA,NA,"","",NA,"",NA,"",NA,NA,NA,NA,NA,NA,NA,"",NA,"32"
"",NA,"",NA,"",NA,NA,NA,NA,NA,NA,"","",1,1,"2024-08-25_22h04.39.309","IAT(Formal)","2021.2.3","Win32",59.88023952,NA,"",NA,"",NA,NA,NA,NA,NA,NA,"","",NA,"",NA,"e",1,0.5402,NA,NA,NA,NA,NA,"自己","e","",NA,0,43,43,63,1,"",NA,"",NA,NA,NA,NA,NA,NA,NA,"",NA,"",NA,NA,NA,NA,NA,NA,"","",NA,"",NA,"",NA,NA,NA,NA,NA,NA,NA,"",NA,"32"
"",NA,"",NA,"",NA,NA,NA,NA,NA,NA,"","",1,1,"2024-08-25_22h04.39.309","IAT(Formal)","2021.2.3","Win32",59.88023952,NA,"",NA,"",NA,NA,NA,NA,NA,NA,"","",NA,"",NA,"e",1,0.5422,NA,NA,NA,NA,NA,"公正","e","",NA,0,44,44,23,1,"",NA,"",NA,NA,NA,NA,NA,NA,NA,"",NA,"",NA,NA,NA,NA,NA,NA,"","",NA,"",NA,"",NA,NA,NA,NA,NA,NA,NA,"",NA,"32"
"",NA,"",NA,"",NA,NA,NA,NA,NA,NA,"","",1,1,"2024-08-25_22h04.39.309","IAT(Formal)","2021.2.3","Win32",59.88023952,NA,"",NA,"",NA,NA,NA,NA,NA,NA,"","",NA,"",NA,"e",1,0.5775,NA,NA,NA,NA,NA,"我们","e","",NA,0,45,45,62,1,"",NA,"",NA,NA,NA,NA,NA,NA,NA,"",NA,"",NA,NA,NA,NA,NA,NA,"","",NA,"",NA,"",NA,NA,NA,NA,NA,NA,NA,"",NA,"32"
"",NA,"",NA,"",NA,NA,NA,NA,NA,NA,"","",1,1,"2024-08-25_22h04.39.309","IAT(Formal)","2021.2.3","Win32",59.88023952,NA,"",NA,"",NA,NA,NA,NA,NA,NA,"","",NA,"",NA,"i",1,0.8184,NA,NA,NA,NA,NA,"暴躁","i","",NA,0,46,46,44,1,"",NA,"",NA,NA,NA,NA,NA,NA,NA,"",NA,"",NA,NA,NA,NA,NA,NA,"","",NA,"",NA,"",NA,NA,NA,NA,NA,NA,NA,"",NA,"32"
"",NA,"",NA,"",NA,NA,NA,NA,NA,NA,"","",1,1,"2024-08-25_22h04.39.309","IAT(Formal)","2021.2.3","Win32",59.88023952,NA,"",NA,"",NA,NA,NA,NA,NA,NA,"","",NA,"",NA,"i",1,1.1081,NA,NA,NA,NA,NA,"他人","i","",NA,0,47,47,68,1,"",NA,"",NA,NA,NA,NA,NA,NA,NA,"",NA,"",NA,NA,NA,NA,NA,NA,"","",NA,"",NA,"",NA,NA,NA,NA,NA,NA,NA,"",NA,"32"
"",NA,"",NA,"",NA,NA,NA,NA,NA,NA,"","",1,1,"2024-08-25_22h04.39.309","IAT(Formal)","2021.2.3","Win32",59.88023952,NA,"",NA,"",NA,NA,NA,NA,NA,NA,"","",NA,"",NA,"e",1,1.4377,NA,NA,NA,NA,NA,"冷静","e","",NA,0,48,48,26,1,"",NA,"",NA,NA,NA,NA,NA,NA,NA,"",NA,"",NA,NA,NA,NA,NA,NA,"","",NA,"",NA,"",NA,NA,NA,NA,NA,NA,NA,"",NA,"32"
"",NA,"",NA,"",NA,NA,NA,NA,NA,NA,"","",1,1,"2024-08-25_22h04.39.309","IAT(Formal)","2021.2.3","Win32",59.88023952,NA,"",NA,"",NA,NA,NA,NA,NA,NA,"","",NA,"",NA,"i",1,1.0717,NA,NA,NA,NA,NA,"他","i","",NA,0,49,49,5,1,"",NA,"",NA,NA,NA,NA,NA,NA,NA,"",NA,"",NA,NA,NA,NA,NA,NA,"","",NA,"",NA,"",NA,NA,NA,NA,NA,NA,NA,"",NA,"32"
"",NA,"",NA,"",NA,NA,NA,NA,NA,NA,"","",1,1,"2024-08-25_22h04.39.309","IAT(Formal)","2021.2.3","Win32",59.88023952,NA,"",NA,"",NA,NA,NA,NA,NA,NA,"","",NA,"",NA,"",0,NA,NA,NA,NA,NA,NA,"俺","e","",NA,0,50,50,74,1,"",NA,"",NA,NA,NA,NA,NA,NA,NA,"",NA,"",NA,NA,NA,NA,NA,NA,"","",NA,"",NA,"",NA,NA,NA,NA,NA,NA,NA,"",NA,"32"
"",NA,"",NA,"",NA,NA,NA,NA,NA,NA,"","",1,1,"2024-08-25_22h04.39.309","IAT(Formal)","2021.2.3","Win32",59.88023952,NA,"",NA,"",NA,NA,NA,NA,NA,NA,"","",NA,"",NA,"e",0,1.2202,NA,NA,NA,NA,NA,"傲慢","i","",NA,0,51,51,37,1,"",NA,"",NA,NA,NA,NA,NA,NA,NA,"",NA,"",NA,NA,NA,NA,NA,NA,"","",NA,"",NA,"",NA,NA,NA,NA,NA,NA,NA,"",NA,"32"
"",NA,"",NA,"",NA,NA,NA,NA,NA,NA,"","",1,1,"2024-08-25_22h04.39.309","IAT(Formal)","2021.2.3","Win32",59.88023952,NA,"",NA,"",NA,NA,NA,NA,NA,NA,"","",NA,"",NA,"e",1,0.669,NA,NA,NA,NA,NA,"俺","e","",NA,0,52,52,54,1,"",NA,"",NA,NA,NA,NA,NA,NA,NA,"",NA,"",NA,NA,NA,NA,NA,NA,"","",NA,"",NA,"",NA,NA,NA,NA,NA,NA,NA,"",NA,"32"
"",NA,"",NA,"",NA,NA,NA,NA,NA,NA,"","",1,1,"2024-08-25_22h04.39.309","IAT(Formal)","2021.2.3","Win32",59.88023952,NA,"",NA,"",NA,NA,NA,NA,NA,NA,"","",NA,"",NA,"i",1,0.8186,NA,NA,NA,NA,NA,"悲观","i","",NA,0,53,53,34,1,"",NA,"",NA,NA,NA,NA,NA,NA,NA,"",NA,"",NA,NA,NA,NA,NA,NA,"","",NA,"",NA,"",NA,NA,NA,NA,NA,NA,NA,"",NA,"32"
"",NA,"",NA,"",NA,NA,NA,NA,NA,NA,"","",1,1,"2024-08-25_22h04.39.309","IAT(Formal)","2021.2.3","Win32",59.88023952,NA,"",NA,"",NA,NA,NA,NA,NA,NA,"","",NA,"",NA,"e",1,0.5265,NA,NA,NA,NA,NA,"我们","e","",NA,0,54,54,2,1,"",NA,"",NA,NA,NA,NA,NA,NA,NA,"",NA,"",NA,NA,NA,NA,NA,NA,"","",NA,"",NA,"",NA,NA,NA,NA,NA,NA,NA,"",NA,"32"
"",NA,"",NA,"",NA,NA,NA,NA,NA,NA,"","",1,1,"2024-08-25_22h04.39.309","IAT(Formal)","2021.2.3","Win32",59.88023952,NA,"",NA,"",NA,NA,NA,NA,NA,NA,"","",NA,"",NA,"e",0,0.7345,NA,NA,NA,NA,NA,"自私","i","",NA,0,55,55,43,1,"",NA,"",NA,NA,NA,NA,NA,NA,NA,"",NA,"",NA,NA,NA,NA,NA,NA,"","",NA,"",NA,"",NA,NA,NA,NA,NA,NA,NA,"",NA,"32"
"",NA,"",NA,"",NA,NA,NA,NA,NA,NA,"","",1,1,"2024-08-25_22h04.39.309","IAT(Formal)","2021.2.3","Win32",59.88023952,NA,"",NA,"",NA,NA,NA,NA,NA,NA,"","",NA,"",NA,"i",1,0.825,NA,NA,NA,NA,NA,"自卑","i","",NA,0,56,56,36,1,"",NA,"",NA,NA,NA,NA,NA,NA,NA,"",NA,"",NA,NA,NA,NA,NA,NA,"","",NA,"",NA,"",NA,NA,NA,NA,NA,NA,NA,"",NA,"32"
"",NA,"",NA,"",NA,NA,NA,NA,NA,NA,"","",1,1,"2024-08-25_22h04.39.309","IAT(Formal)","2021.2.3","Win32",59.88023952,NA,"",NA,"",NA,NA,NA,NA,NA,NA,"","",NA,"",NA,"e",0,1.4277,NA,NA,NA,NA,NA,"散漫","i","",NA,0,57,57,41,1,"",NA,"",NA,NA,NA,NA,NA,NA,NA,"",NA,"",NA,NA,NA,NA,NA,NA,"","",NA,"",NA,"",NA,NA,NA,NA,NA,NA,NA,"",NA,"32"
"",NA,"",NA,"",NA,NA,NA,NA,NA,NA,"","",1,1,"2024-08-25_22h04.39.309","IAT(Formal)","2021.2.3","Win32",59.88023952,NA,"",NA,"",NA,NA,NA,NA,NA,NA,"","",NA,"",NA,"e",1,0.8682,NA,NA,NA,NA,NA,"我","e","",NA,0,58,58,50,1,"",NA,"",NA,NA,NA,NA,NA,NA,NA,"",NA,"",NA,NA,NA,NA,NA,NA,"","",NA,"",NA,"",NA,NA,NA,NA,NA,NA,NA,"",NA,"32"
"",NA,"",NA,"",NA,NA,NA,NA,NA,NA,"","",1,1,"2024-08-25_22h04.39.309","IAT(Formal)","2021.2.3","Win32",59.88023952,NA,"",NA,"",NA,NA,NA,NA,NA,NA,"","",NA,"",NA,"i",1,1.0517,NA,NA,NA,NA,NA,"他们","i","",NA,0,59,59,6,1,"",NA,"",NA,NA,NA,NA,NA,NA,NA,"",NA,"",NA,NA,NA,NA,NA,NA,"","",NA,"",NA,"",NA,NA,NA,NA,NA,NA,NA,"",NA,"32"
"",NA,"",NA,"",NA,NA,NA,NA,NA,NA,"","",1,1,"2024-08-25_22h04.39.309","IAT(Formal)","2021.2.3","Win32",59.88023952,NA,"",NA,"",NA,NA,NA,NA,NA,NA,"","",NA,"",NA,"e",0,1.3853,NA,NA,NA,NA,NA,"固执","i","",NA,0,60,60,47,1,"",NA,"",NA,NA,NA,NA,NA,NA,NA,"",NA,"",NA,NA,NA,NA,NA,NA,"","",NA,"",NA,"",NA,NA,NA,NA,NA,NA,NA,"",NA,"32"
"",NA,"",NA,"",NA,NA,NA,NA,NA,NA,"","",1,1,"2024-08-25_22h04.39.309","IAT(Formal)","2021.2.3","Win32",59.88023952,NA,"",NA,"",NA,NA,NA,NA,NA,NA,"","",NA,"",NA,"",0,NA,NA,NA,NA,NA,NA,"愚蠢","i","",NA,0,61,61,32,1,"",NA,"",NA,NA,NA,NA,NA,NA,NA,"",NA,"",NA,NA,NA,NA,NA,NA,"","",NA,"",NA,"",NA,NA,NA,NA,NA,NA,NA,"",NA,"32"
"",NA,"",NA,"",NA,NA,NA,NA,NA,NA,"","",1,1,"2024-08-25_22h04.39.309","IAT(Formal)","2021.2.3","Win32",59.88023952,NA,"",NA,"",NA,NA,NA,NA,NA,NA,"","",NA,"",NA,"e",1,0.9356,NA,NA,NA,NA,NA,"细腻","e","",NA,0,62,62,25,1,"",NA,"",NA,NA,NA,NA,NA,NA,NA,"",NA,"",NA,NA,NA,NA,NA,NA,"","",NA,"",NA,"",NA,NA,NA,NA,NA,NA,NA,"",NA,"32"
"",NA,"",NA,"",NA,NA,NA,NA,NA,NA,"","",1,1,"2024-08-25_22h04.39.309","IAT(Formal)","2021.2.3","Win32",59.88023952,NA,"",NA,"",NA,NA,NA,NA,NA,NA,"","",NA,"",NA,"i",1,1.0067,NA,NA,NA,NA,NA,"消极","i","",NA,0,63,63,35,1,"",NA,"",NA,NA,NA,NA,NA,NA,NA,"",NA,"",NA,NA,NA,NA,NA,NA,"","",NA,"",NA,"",NA,NA,NA,NA,NA,NA,NA,"",NA,"32"
"",NA,"",NA,"",NA,NA,NA,NA,NA,NA,"","",1,1,"2024-08-25_22h04.39.309","IAT(Formal)","2021.2.3","Win32",59.88023952,NA,"",NA,"",NA,NA,NA,NA,NA,NA,"","",NA,"",NA,"i",1,0.927,NA,NA,NA,NA,NA,"鲁莽","i","",NA,0,64,64,38,1,"",NA,"",NA,NA,NA,NA,NA,NA,NA,"",NA,"",NA,NA,NA,NA,NA,NA,"","",NA,"",NA,"",NA,NA,NA,NA,NA,NA,NA,"",NA,"32"
"",NA,"",NA,"",NA,NA,NA,NA,NA,NA,"","",1,1,"2024-08-25_22h04.39.309","IAT(Formal)","2021.2.3","Win32",59.88023952,NA,"",NA,"",NA,NA,NA,NA,NA,NA,"","",NA,"",NA,"e",1,0.9071,NA,NA,NA,NA,NA,"我","e","",NA,0,65,65,0,1,"",NA,"",NA,NA,NA,NA,NA,NA,NA,"",NA,"",NA,NA,NA,NA,NA,NA,"","",NA,"",NA,"",NA,NA,NA,NA,NA,NA,NA,"",NA,"32"
"",NA,"",NA,"",NA,NA,NA,NA,NA,NA,"","",1,1,"2024-08-25_22h04.39.309","IAT(Formal)","2021.2.3","Win32",59.88023952,NA,"",NA,"",NA,NA,NA,NA,NA,NA,"","",NA,"",NA,"i",1,0.8099,NA,NA,NA,NA,NA,"其他","i","",NA,0,66,66,9,1,"",NA,"",NA,NA,NA,NA,NA,NA,NA,"",NA,"",NA,NA,NA,NA,NA,NA,"","",NA,"",NA,"",NA,NA,NA,NA,NA,NA,NA,"",NA,"32"
"",NA,"",NA,"",NA,NA,NA,NA,NA,NA,"","",1,1,"2024-08-25_22h04.39.309","IAT(Formal)","2021.2.3","Win32",59.88023952,NA,"",NA,"",NA,NA,NA,NA,NA,NA,"","",NA,"",NA,"e",1,0.8696,NA,NA,NA,NA,NA,"俺","e","",NA,0,67,67,64,1,"",NA,"",NA,NA,NA,NA,NA,NA,NA,"",NA,"",NA,NA,NA,NA,NA,NA,"","",NA,"",NA,"",NA,NA,NA,NA,NA,NA,NA,"",NA,"32"
"",NA,"",NA,"",NA,NA,NA,NA,NA,NA,"","",1,1,"2024-08-25_22h04.39.309","IAT(Formal)","2021.2.3","Win32",59.88023952,NA,"",NA,"",NA,NA,NA,NA,NA,NA,"","",NA,"",NA,"i",1,0.8588,NA,NA,NA,NA,NA,"他","i","",NA,0,68,68,65,1,"",NA,"",NA,NA,NA,NA,NA,NA,NA,"",NA,"",NA,NA,NA,NA,NA,NA,"","",NA,"",NA,"",NA,NA,NA,NA,NA,NA,NA,"",NA,"32"
"",NA,"",NA,"",NA,NA,NA,NA,NA,NA,"","",1,1,"2024-08-25_22h04.39.309","IAT(Formal)","2021.2.3","Win32",59.88023952,NA,"",NA,"",NA,NA,NA,NA,NA,NA,"","",NA,"",NA,"",0,NA,NA,NA,NA,NA,NA,"轻率","i","",NA,0,69,69,48,1,"",NA,"",NA,NA,NA,NA,NA,NA,NA,"",NA,"",NA,NA,NA,NA,NA,NA,"","",NA,"",NA,"",NA,NA,NA,NA,NA,NA,NA,"",NA,"32"
"",NA,"",NA,"",NA,NA,NA,NA,NA,NA,"","",1,1,"2024-08-25_22h04.39.309","IAT(Formal)","2021.2.3","Win32",59.88023952,NA,"",NA,"",NA,NA,NA,NA,NA,NA,"","",NA,"",NA,"e",1,0.8844,NA,NA,NA,NA,NA,"诚恳","e","",NA,0,70,70,29,1,"",NA,"",NA,NA,NA,NA,NA,NA,NA,"",NA,"",NA,NA,NA,NA,NA,NA,"","",NA,"",NA,"",NA,NA,NA,NA,NA,NA,NA,"",NA,"32"
"",NA,"",NA,"",NA,NA,NA,NA,NA,NA,"","",1,1,"2024-08-25_22h04.39.309","IAT(Formal)","2021.2.3","Win32",59.88023952,NA,"",NA,"",NA,NA,NA,NA,NA,NA,"","",NA,"",NA,"e",1,0.784,NA,NA,NA,NA,NA,"我们","e","",NA,0,71,71,72,1,"",NA,"",NA,NA,NA,NA,NA,NA,NA,"",NA,"",NA,NA,NA,NA,NA,NA,"","",NA,"",NA,"",NA,NA,NA,NA,NA,NA,NA,"",NA,"32"
"",NA,"",NA,"",NA,NA,NA,NA,NA,NA,"","",1,1,"2024-08-25_22h04.39.309","IAT(Formal)","2021.2.3","Win32",59.88023952,NA,"",NA,"",NA,NA,NA,NA,NA,NA,"","",NA,"",NA,"e",1,0.5893,NA,NA,NA,NA,NA,"勤奋","e","",NA,0,72,72,18,1,"",NA,"",NA,NA,NA,NA,NA,NA,NA,"",NA,"",NA,NA,NA,NA,NA,NA,"","",NA,"",NA,"",NA,NA,NA,NA,NA,NA,NA,"",NA,"32"
"",NA,"",NA,"",NA,NA,NA,NA,NA,NA,"","",1,1,"2024-08-25_22h04.39.309","IAT(Formal)","2021.2.3","Win32",59.88023952,NA,"",NA,"",NA,NA,NA,NA,NA,NA,"","",NA,"",NA,"e",1,0.7567,NA,NA,NA,NA,NA,"我的","e","",NA,0,73,73,61,1,"",NA,"",NA,NA,NA,NA,NA,NA,NA,"",NA,"",NA,NA,NA,NA,NA,NA,"","",NA,"",NA,"",NA,NA,NA,NA,NA,NA,NA,"",NA,"32"
"",NA,"",NA,"",NA,NA,NA,NA,NA,NA,"","",1,1,"2024-08-25_22h04.39.309","IAT(Formal)","2021.2.3","Win32",59.88023952,NA,"",NA,"",NA,NA,NA,NA,NA,NA,"","",NA,"",NA,"e",1,0.5681,NA,NA,NA,NA,NA,"认真","e","",NA,0,74,74,20,1,"",NA,"",NA,NA,NA,NA,NA,NA,NA,"",NA,"",NA,NA,NA,NA,NA,NA,"","",NA,"",NA,"",NA,NA,NA,NA,NA,NA,NA,"",NA,"32"
"",NA,"",NA,"",NA,NA,NA,NA,NA,NA,"","",1,1,"2024-08-25_22h04.39.309","IAT(Formal)","2021.2.3","Win32",59.88023952,NA,"",NA,"",NA,NA,NA,NA,NA,NA,"","",NA,"",NA,"e",0,0.6559,NA,NA,NA,NA,NA,"冒失","i","",NA,0,75,75,39,1,"",NA,"",NA,NA,NA,NA,NA,NA,NA,"",NA,"",NA,NA,NA,NA,NA,NA,"","",NA,"",NA,"",NA,NA,NA,NA,NA,NA,NA,"",NA,"32"
"",NA,"",NA,"",NA,NA,NA,NA,NA,NA,"","",1,1,"2024-08-25_22h04.39.309","IAT(Formal)","2021.2.3","Win32",59.88023952,NA,"",NA,"",NA,NA,NA,NA,NA,NA,"","",NA,"",NA,"i",1,0.9229,NA,NA,NA,NA,NA,"他","i","",NA,0,76,76,75,1,"",NA,"",NA,NA,NA,NA,NA,NA,NA,"",NA,"",NA,NA,NA,NA,NA,NA,"","",NA,"",NA,"",NA,NA,NA,NA,NA,NA,NA,"",NA,"32"
"",NA,"",NA,"",NA,NA,NA,NA,NA,NA,"","",1,1,"2024-08-25_22h04.39.309","IAT(Formal)","2021.2.3","Win32",59.88023952,NA,"",NA,"",NA,NA,NA,NA,NA,NA,"","",NA,"",NA,"i",1,0.8385,NA,NA,NA,NA,NA,"他","i","",NA,0,77,77,55,1,"",NA,"",NA,NA,NA,NA,NA,NA,NA,"",NA,"",NA,NA,NA,NA,NA,NA,"","",NA,"",NA,"",NA,NA,NA,NA,NA,NA,NA,"",NA,"32"
"",NA,"",NA,"",NA,NA,NA,NA,NA,NA,"","",1,1,"2024-08-25_22h04.39.309","IAT(Formal)","2021.2.3","Win32",59.88023952,NA,"",NA,"",NA,NA,NA,NA,NA,NA,"","",NA,"",NA,"i",1,1.0399,NA,NA,NA,NA,NA,"他们","i","",NA,0,78,78,76,1,"",NA,"",NA,NA,NA,NA,NA,NA,NA,"",NA,"",NA,NA,NA,NA,NA,NA,"","",NA,"",NA,"",NA,NA,NA,NA,NA,NA,NA,"",NA,"32"
"",NA,"",NA,"",NA,NA,NA,NA,NA,NA,"","",1,1,"2024-08-25_22h04.39.309","IAT(Formal)","2021.2.3","Win32",59.88023952,NA,"",NA,"",NA,NA,NA,NA,NA,NA,"","",NA,"",NA,"e",1,0.9358,NA,NA,NA,NA,NA,"我的","e","",NA,0,79,79,1,1,"",NA,"",NA,NA,NA,NA,NA,NA,NA,"",NA,"",NA,NA,NA,NA,NA,NA,"","",NA,"",NA,"",NA,NA,NA,NA,NA,NA,NA,"",NA,"32"
"",NA,"",NA,"",NA,NA,NA,NA,NA,NA,"","",1,1,"2024-08-25_22h04.39.309","IAT(Formal)","2021.2.3","Win32",59.88023952,NA,"",NA,"",NA,NA,NA,NA,NA,NA,"","",NA,"",NA,"e",1,0.8553,NA,NA,NA,NA,NA,"我的","e","",NA,1,0,80,51,1,"",NA,"",NA,NA,NA,NA,NA,NA,NA,"",NA,"",NA,NA,NA,NA,NA,NA,"","",NA,"",NA,"",NA,NA,NA,NA,NA,NA,NA,"",NA,"32"
"",NA,"",NA,"",NA,NA,NA,NA,NA,NA,"","",1,1,"2024-08-25_22h04.39.309","IAT(Formal)","2021.2.3","Win32",59.88023952,NA,"",NA,"",NA,NA,NA,NA,NA,NA,"","",NA,"",NA,"e",1,0.8193,NA,NA,NA,NA,NA,"自己","e","",NA,1,1,81,3,1,"",NA,"",NA,NA,NA,NA,NA,NA,NA,"",NA,"",NA,NA,NA,NA,NA,NA,"","",NA,"",NA,"",NA,NA,NA,NA,NA,NA,NA,"",NA,"32"
"",NA,"",NA,"",NA,NA,NA,NA,NA,NA,"","",1,1,"2024-08-25_22h04.39.309","IAT(Formal)","2021.2.3","Win32",59.88023952,NA,"",NA,"",NA,NA,NA,NA,NA,NA,"","",NA,"",NA,"i",1,0.675,NA,NA,NA,NA,NA,"他人","i","",NA,1,2,82,58,1,"",NA,"",NA,NA,NA,NA,NA,NA,NA,"",NA,"",NA,NA,NA,NA,NA,NA,"","",NA,"",NA,"",NA,NA,NA,NA,NA,NA,NA,"",NA,"32"
"",NA,"",NA,"",NA,NA,NA,NA,NA,NA,"","",1,1,"2024-08-25_22h04.39.309","IAT(Formal)","2021.2.3","Win32",59.88023952,NA,"",NA,"",NA,NA,NA,NA,NA,NA,"","",NA,"",NA,"i",1,0.8738,NA,NA,NA,NA,NA,"他","i","",NA,1,3,83,55,1,"",NA,"",NA,NA,NA,NA,NA,NA,NA,"",NA,"",NA,NA,NA,NA,NA,NA,"","",NA,"",NA,"",NA,NA,NA,NA,NA,NA,NA,"",NA,"32"
"",NA,"",NA,"",NA,NA,NA,NA,NA,NA,"","",1,1,"2024-08-25_22h04.39.309","IAT(Formal)","2021.2.3","Win32",59.88023952,NA,"",NA,"",NA,NA,NA,NA,NA,NA,"","",NA,"",NA,"i",1,1.2727,NA,NA,NA,NA,NA,"傲慢","i","",NA,1,4,84,37,1,"",NA,"",NA,NA,NA,NA,NA,NA,NA,"",NA,"",NA,NA,NA,NA,NA,NA,"","",NA,"",NA,"",NA,NA,NA,NA,NA,NA,NA,"",NA,"32"
"",NA,"",NA,"",NA,NA,NA,NA,NA,NA,"","",1,1,"2024-08-25_22h04.39.309","IAT(Formal)","2021.2.3","Win32",59.88023952,NA,"",NA,"",NA,NA,NA,NA,NA,NA,"","",NA,"",NA,"e",1,0.9417,NA,NA,NA,NA,NA,"诚实","e","",NA,1,5,85,15,1,"",NA,"",NA,NA,NA,NA,NA,NA,NA,"",NA,"",NA,NA,NA,NA,NA,NA,"","",NA,"",NA,"",NA,NA,NA,NA,NA,NA,NA,"",NA,"32"
"",NA,"",NA,"",NA,NA,NA,NA,NA,NA,"","",1,1,"2024-08-25_22h04.39.309","IAT(Formal)","2021.2.3","Win32",59.88023952,NA,"",NA,"",NA,NA,NA,NA,NA,NA,"","",NA,"",NA,"i",1,1.0704,NA,NA,NA,NA,NA,"虚伪","i","",NA,1,6,86,31,1,"",NA,"",NA,NA,NA,NA,NA,NA,NA,"",NA,"",NA,NA,NA,NA,NA,NA,"","",NA,"",NA,"",NA,NA,NA,NA,NA,NA,NA,"",NA,"32"
"",NA,"",NA,"",NA,NA,NA,NA,NA,NA,"","",1,1,"2024-08-25_22h04.39.309","IAT(Formal)","2021.2.3","Win32",59.88023952,NA,"",NA,"",NA,NA,NA,NA,NA,NA,"","",NA,"",NA,"e",1,0.9281,NA,NA,NA,NA,NA,"俺","e","",NA,1,7,87,74,1,"",NA,"",NA,NA,NA,NA,NA,NA,NA,"",NA,"",NA,NA,NA,NA,NA,NA,"","",NA,"",NA,"",NA,NA,NA,NA,NA,NA,NA,"",NA,"32"
"",NA,"",NA,"",NA,NA,NA,NA,NA,NA,"","",1,1,"2024-08-25_22h04.39.309","IAT(Formal)","2021.2.3","Win32",59.88023952,NA,"",NA,"",NA,NA,NA,NA,NA,NA,"","",NA,"",NA,"i",1,0.818,NA,NA,NA,NA,NA,"他人","i","",NA,1,8,88,68,1,"",NA,"",NA,NA,NA,NA,NA,NA,NA,"",NA,"",NA,NA,NA,NA,NA,NA,"","",NA,"",NA,"",NA,NA,NA,NA,NA,NA,NA,"",NA,"32"
"",NA,"",NA,"",NA,NA,NA,NA,NA,NA,"","",1,1,"2024-08-25_22h04.39.309","IAT(Formal)","2021.2.3","Win32",59.88023952,NA,"",NA,"",NA,NA,NA,NA,NA,NA,"","",NA,"",NA,"i",1,1.123,NA,NA,NA,NA,NA,"其他","i","",NA,1,9,89,59,1,"",NA,"",NA,NA,NA,NA,NA,NA,NA,"",NA,"",NA,NA,NA,NA,NA,NA,"","",NA,"",NA,"",NA,NA,NA,NA,NA,NA,NA,"",NA,"32"
"",NA,"",NA,"",NA,NA,NA,NA,NA,NA,"","",1,1,"2024-08-25_22h04.39.309","IAT(Formal)","2021.2.3","Win32",59.88023952,NA,"",NA,"",NA,NA,NA,NA,NA,NA,"","",NA,"",NA,"e",1,0.9564,NA,NA,NA,NA,NA,"乐观","e","",NA,1,10,90,14,1,"",NA,"",NA,NA,NA,NA,NA,NA,NA,"",NA,"",NA,NA,NA,NA,NA,NA,"","",NA,"",NA,"",NA,NA,NA,NA,NA,NA,NA,"",NA,"32"
"",NA,"",NA,"",NA,NA,NA,NA,NA,NA,"","",1,1,"2024-08-25_22h04.39.309","IAT(Formal)","2021.2.3","Win32",59.88023952,NA,"",NA,"",NA,NA,NA,NA,NA,NA,"","",NA,"",NA,"i",1,0.8026,NA,NA,NA,NA,NA,"下贱","i","",NA,1,11,91,49,1,"",NA,"",NA,NA,NA,NA,NA,NA,NA,"",NA,"",NA,NA,NA,NA,NA,NA,"","",NA,"",NA,"",NA,NA,NA,NA,NA,NA,NA,"",NA,"32"
"",NA,"",NA,"",NA,NA,NA,NA,NA,NA,"","",1,1,"2024-08-25_22h04.39.309","IAT(Formal)","2021.2.3","Win32",59.88023952,NA,"",NA,"",NA,NA,NA,NA,NA,NA,"","",NA,"",NA,"e",1,1.0261,NA,NA,NA,NA,NA,"俺","e","",NA,1,12,92,4,1,"",NA,"",NA,NA,NA,NA,NA,NA,NA,"",NA,"",NA,NA,NA,NA,NA,NA,"","",NA,"",NA,"",NA,NA,NA,NA,NA,NA,NA,"",NA,"32"
"",NA,"",NA,"",NA,NA,NA,NA,NA,NA,"","",1,1,"2024-08-25_22h04.39.309","IAT(Formal)","2021.2.3","Win32",59.88023952,NA,"",NA,"",NA,NA,NA,NA,NA,NA,"","",NA,"",NA,"e",1,1.2068,NA,NA,NA,NA,NA,"自己","e","",NA,1,13,93,73,1,"",NA,"",NA,NA,NA,NA,NA,NA,NA,"",NA,"",NA,NA,NA,NA,NA,NA,"","",NA,"",NA,"",NA,NA,NA,NA,NA,NA,NA,"",NA,"32"
"",NA,"",NA,"",NA,NA,NA,NA,NA,NA,"","",1,1,"2024-08-25_22h04.39.309","IAT(Formal)","2021.2.3","Win32",59.88023952,NA,"",NA,"",NA,NA,NA,NA,NA,NA,"","",NA,"",NA,"e",1,0.9342,NA,NA,NA,NA,NA,"俺","e","",NA,1,14,94,64,1,"",NA,"",NA,NA,NA,NA,NA,NA,NA,"",NA,"",NA,NA,NA,NA,NA,NA,"","",NA,"",NA,"",NA,NA,NA,NA,NA,NA,NA,"",NA,"32"
"",NA,"",NA,"",NA,NA,NA,NA,NA,NA,"","",1,1,"2024-08-25_22h04.39.309","IAT(Formal)","2021.2.3","Win32",59.88023952,NA,"",NA,"",NA,NA,NA,NA,NA,NA,"","",NA,"",NA,"e",1,1.0577,NA,NA,NA,NA,NA,"正直","e","",NA,1,15,95,16,1,"",NA,"",NA,NA,NA,NA,NA,NA,NA,"",NA,"",NA,NA,NA,NA,NA,NA,"","",NA,"",NA,"",NA,NA,NA,NA,NA,NA,NA,"",NA,"32"
"",NA,"",NA,"",NA,NA,NA,NA,NA,NA,"","",1,1,"2024-08-25_22h04.39.309","IAT(Formal)","2021.2.3","Win32",59.88023952,NA,"",NA,"",NA,NA,NA,NA,NA,NA,"","",NA,"",NA,"i",1,1.4516,NA,NA,NA,NA,NA,"自卑","i","",NA,1,16,96,36,1,"",NA,"",NA,NA,NA,NA,NA,NA,NA,"",NA,"",NA,NA,NA,NA,NA,NA,"","",NA,"",NA,"",NA,NA,NA,NA,NA,NA,NA,"",NA,"32"
"",NA,"",NA,"",NA,NA,NA,NA,NA,NA,"","",1,1,"2024-08-25_22h04.39.309","IAT(Formal)","2021.2.3","Win32",59.88023952,NA,"",NA,"",NA,NA,NA,NA,NA,NA,"","",NA,"",NA,"i",1,1.141,NA,NA,NA,NA,NA,"他的","i","",NA,1,17,97,67,1,"",NA,"",NA,NA,NA,NA,NA,NA,NA,"",NA,"",NA,NA,NA,NA,NA,NA,"","",NA,"",NA,"",NA,NA,NA,NA,NA,NA,NA,"",NA,"32"
"",NA,"",NA,"",NA,NA,NA,NA,NA,NA,"","",1,1,"2024-08-25_22h04.39.309","IAT(Formal)","2021.2.3","Win32",59.88023952,NA,"",NA,"",NA,NA,NA,NA,NA,NA,"","",NA,"",NA,"e",1,0.857,NA,NA,NA,NA,NA,"自己","e","",NA,1,18,98,53,1,"",NA,"",NA,NA,NA,NA,NA,NA,NA,"",NA,"",NA,NA,NA,NA,NA,NA,"","",NA,"",NA,"",NA,NA,NA,NA,NA,NA,NA,"",NA,"32"
"",NA,"",NA,"",NA,NA,NA,NA,NA,NA,"","",1,1,"2024-08-25_22h04.39.309","IAT(Formal)","2021.2.3","Win32",59.88023952,NA,"",NA,"",NA,NA,NA,NA,NA,NA,"","",NA,"",NA,"e",1,0.855,NA,NA,NA,NA,NA,"活泼","e","",NA,1,19,99,28,1,"",NA,"",NA,NA,NA,NA,NA,NA,NA,"",NA,"",NA,NA,NA,NA,NA,NA,"","",NA,"",NA,"",NA,NA,NA,NA,NA,NA,NA,"",NA,"32"
"",NA,"",NA,"",NA,NA,NA,NA,NA,NA,"","",1,1,"2024-08-25_22h04.39.309","IAT(Formal)","2021.2.3","Win32",59.88023952,NA,"",NA,"",NA,NA,NA,NA,NA,NA,"","",NA,"",NA,"e",1,0.9249,NA,NA,NA,NA,NA,"机智","e","",NA,1,20,100,19,1,"",NA,"",NA,NA,NA,NA,NA,NA,NA,"",NA,"",NA,NA,NA,NA,NA,NA,"","",NA,"",NA,"",NA,NA,NA,NA,NA,NA,NA,"",NA,"32"
"",NA,"",NA,"",NA,NA,NA,NA,NA,NA,"","",1,1,"2024-08-25_22h04.39.309","IAT(Formal)","2021.2.3","Win32",59.88023952,NA,"",NA,"",NA,NA,NA,NA,NA,NA,"","",NA,"",NA,"i",1,1.1918,NA,NA,NA,NA,NA,"其他","i","",NA,1,21,101,69,1,"",NA,"",NA,NA,NA,NA,NA,NA,NA,"",NA,"",NA,NA,NA,NA,NA,NA,"","",NA,"",NA,"",NA,NA,NA,NA,NA,NA,NA,"",NA,"32"
"",NA,"",NA,"",NA,NA,NA,NA,NA,NA,"","",1,1,"2024-08-25_22h04.39.309","IAT(Formal)","2021.2.3","Win32",59.88023952,NA,"",NA,"",NA,NA,NA,NA,NA,NA,"","",NA,"",NA,"e",1,0.9239,NA,NA,NA,NA,NA,"俺","e","",NA,1,22,102,54,1,"",NA,"",NA,NA,NA,NA,NA,NA,NA,"",NA,"",NA,NA,NA,NA,NA,NA,"","",NA,"",NA,"",NA,NA,NA,NA,NA,NA,NA,"",NA,"32"
"",NA,"",NA,"",NA,NA,NA,NA,NA,NA,"","",1,1,"2024-08-25_22h04.39.309","IAT(Formal)","2021.2.3","Win32",59.88023952,NA,"",NA,"",NA,NA,NA,NA,NA,NA,"","",NA,"",NA,"e",1,1.373,NA,NA,NA,NA,NA,"热情","e","",NA,1,23,103,27,1,"",NA,"",NA,NA,NA,NA,NA,NA,NA,"",NA,"",NA,NA,NA,NA,NA,NA,"","",NA,"",NA,"",NA,NA,NA,NA,NA,NA,NA,"",NA,"32"
"",NA,"",NA,"",NA,NA,NA,NA,NA,NA,"","",1,1,"2024-08-25_22h04.39.309","IAT(Formal)","2021.2.3","Win32",59.88023952,NA,"",NA,"",NA,NA,NA,NA,NA,NA,"","",NA,"",NA,"e",1,1.0036,NA,NA,NA,NA,NA,"诚恳","e","",NA,1,24,104,29,1,"",NA,"",NA,NA,NA,NA,NA,NA,NA,"",NA,"",NA,NA,NA,NA,NA,NA,"","",NA,"",NA,"",NA,NA,NA,NA,NA,NA,NA,"",NA,"32"
"",NA,"",NA,"",NA,NA,NA,NA,NA,NA,"","",1,1,"2024-08-25_22h04.39.309","IAT(Formal)","2021.2.3","Win32",59.88023952,NA,"",NA,"",NA,NA,NA,NA,NA,NA,"","",NA,"",NA,"i",1,1.0019,NA,NA,NA,NA,NA,"凶狠","i","",NA,1,25,105,42,1,"",NA,"",NA,NA,NA,NA,NA,NA,NA,"",NA,"",NA,NA,NA,NA,NA,NA,"","",NA,"",NA,"",NA,NA,NA,NA,NA,NA,NA,"",NA,"32"
"",NA,"",NA,"",NA,NA,NA,NA,NA,NA,"","",1,1,"2024-08-25_22h04.39.309","IAT(Formal)","2021.2.3","Win32",59.88023952,NA,"",NA,"",NA,NA,NA,NA,NA,NA,"","",NA,"",NA,"i",1,0.9855,NA,NA,NA,NA,NA,"他们","i","",NA,1,26,106,6,1,"",NA,"",NA,NA,NA,NA,NA,NA,NA,"",NA,"",NA,NA,NA,NA,NA,NA,"","",NA,"",NA,"",NA,NA,NA,NA,NA,NA,NA,"",NA,"32"
"",NA,"",NA,"",NA,NA,NA,NA,NA,NA,"","",1,1,"2024-08-25_22h04.39.309","IAT(Formal)","2021.2.3","Win32",59.88023952,NA,"",NA,"",NA,NA,NA,NA,NA,NA,"","",NA,"",NA,"i",1,0.7894,NA,NA,NA,NA,NA,"他的","i","",NA,1,27,107,57,1,"",NA,"",NA,NA,NA,NA,NA,NA,NA,"",NA,"",NA,NA,NA,NA,NA,NA,"","",NA,"",NA,"",NA,NA,NA,NA,NA,NA,NA,"",NA,"32"
"",NA,"",NA,"",NA,NA,NA,NA,NA,NA,"","",1,1,"2024-08-25_22h04.39.309","IAT(Formal)","2021.2.3","Win32",59.88023952,NA,"",NA,"",NA,NA,NA,NA,NA,NA,"","",NA,"",NA,"i",1,0.7927,NA,NA,NA,NA,NA,"他","i","",NA,1,28,108,5,1,"",NA,"",NA,NA,NA,NA,NA,NA,NA,"",NA,"",NA,NA,NA,NA,NA,NA,"","",NA,"",NA,"",NA,NA,NA,NA,NA,NA,NA,"",NA,"32"
"",NA,"",NA,"",NA,NA,NA,NA,NA,NA,"","",1,1,"2024-08-25_22h04.39.309","IAT(Formal)","2021.2.3","Win32",59.88023952,NA,"",NA,"",NA,NA,NA,NA,NA,NA,"","",NA,"",NA,"i",1,1.0398,NA,NA,NA,NA,NA,"鲁莽","i","",NA,1,29,109,38,1,"",NA,"",NA,NA,NA,NA,NA,NA,NA,"",NA,"",NA,NA,NA,NA,NA,NA,"","",NA,"",NA,"",NA,NA,NA,NA,NA,NA,NA,"",NA,"32"
"",NA,"",NA,"",NA,NA,NA,NA,NA,NA,"","",1,1,"2024-08-25_22h04.39.309","IAT(Formal)","2021.2.3","Win32",59.88023952,NA,"",NA,"",NA,NA,NA,NA,NA,NA,"","",NA,"",NA,"i",1,0.7841,NA,NA,NA,NA,NA,"他们","i","",NA,1,30,110,66,1,"",NA,"",NA,NA,NA,NA,NA,NA,NA,"",NA,"",NA,NA,NA,NA,NA,NA,"","",NA,"",NA,"",NA,NA,NA,NA,NA,NA,NA,"",NA,"32"
"",NA,"",NA,"",NA,NA,NA,NA,NA,NA,"","",1,1,"2024-08-25_22h04.39.309","IAT(Formal)","2021.2.3","Win32",59.88023952,NA,"",NA,"",NA,NA,NA,NA,NA,NA,"","",NA,"",NA,"i",1,1.1728,NA,NA,NA,NA,NA,"固执","i","",NA,1,31,111,47,1,"",NA,"",NA,NA,NA,NA,NA,NA,NA,"",NA,"",NA,NA,NA,NA,NA,NA,"","",NA,"",NA,"",NA,NA,NA,NA,NA,NA,NA,"",NA,"32"
"",NA,"",NA,"",NA,NA,NA,NA,NA,NA,"","",1,1,"2024-08-25_22h04.39.309","IAT(Formal)","2021.2.3","Win32",59.88023952,NA,"",NA,"",NA,NA,NA,NA,NA,NA,"","",NA,"",NA,"i",1,0.8098,NA,NA,NA,NA,NA,"他人","i","",NA,1,32,112,78,1,"",NA,"",NA,NA,NA,NA,NA,NA,NA,"",NA,"",NA,NA,NA,NA,NA,NA,"","",NA,"",NA,"",NA,NA,NA,NA,NA,NA,NA,"",NA,"32"
"",NA,"",NA,"",NA,NA,NA,NA,NA,NA,"","",1,1,"2024-08-25_22h04.39.309","IAT(Formal)","2021.2.3","Win32",59.88023952,NA,"",NA,"",NA,NA,NA,NA,NA,NA,"","",NA,"",NA,"i",1,0.8021,NA,NA,NA,NA,NA,"暴躁","i","",NA,1,33,113,44,1,"",NA,"",NA,NA,NA,NA,NA,NA,NA,"",NA,"",NA,NA,NA,NA,NA,NA,"","",NA,"",NA,"",NA,NA,NA,NA,NA,NA,NA,"",NA,"32"
"",NA,"",NA,"",NA,NA,NA,NA,NA,NA,"","",1,1,"2024-08-25_22h04.39.309","IAT(Formal)","2021.2.3","Win32",59.88023952,NA,"",NA,"",NA,NA,NA,NA,NA,NA,"","",NA,"",NA,"e",1,1.1926,NA,NA,NA,NA,NA,"我的","e","",NA,1,34,114,61,1,"",NA,"",NA,NA,NA,NA,NA,NA,NA,"",NA,"",NA,NA,NA,NA,NA,NA,"","",NA,"",NA,"",NA,NA,NA,NA,NA,NA,NA,"",NA,"32"
"",NA,"",NA,"",NA,NA,NA,NA,NA,NA,"","",1,1,"2024-08-25_22h04.39.309","IAT(Formal)","2021.2.3","Win32",59.88023952,NA,"",NA,"",NA,NA,NA,NA,NA,NA,"","",NA,"",NA,"e",1,0.9539,NA,NA,NA,NA,NA,"我们","e","",NA,1,35,115,52,1,"",NA,"",NA,NA,NA,NA,NA,NA,NA,"",NA,"",NA,NA,NA,NA,NA,NA,"","",NA,"",NA,"",NA,NA,NA,NA,NA,NA,NA,"",NA,"32"
"",NA,"",NA,"",NA,NA,NA,NA,NA,NA,"","",1,1,"2024-08-25_22h04.39.309","IAT(Formal)","2021.2.3","Win32",59.88023952,NA,"",NA,"",NA,NA,NA,NA,NA,NA,"","",NA,"",NA,"e",1,0.9896,NA,NA,NA,NA,NA,"我的","e","",NA,1,36,116,1,1,"",NA,"",NA,NA,NA,NA,NA,NA,NA,"",NA,"",NA,NA,NA,NA,NA,NA,"","",NA,"",NA,"",NA,NA,NA,NA,NA,NA,NA,"",NA,"32"
"",NA,"",NA,"",NA,NA,NA,NA,NA,NA,"","",1,1,"2024-08-25_22h04.39.309","IAT(Formal)","2021.2.3","Win32",59.88023952,NA,"",NA,"",NA,NA,NA,NA,NA,NA,"","",NA,"",NA,"e",1,1.0072,NA,NA,NA,NA,NA,"自己","e","",NA,1,37,117,63,1,"",NA,"",NA,NA,NA,NA,NA,NA,NA,"",NA,"",NA,NA,NA,NA,NA,NA,"","",NA,"",NA,"",NA,NA,NA,NA,NA,NA,NA,"",NA,"32"
"",NA,"",NA,"",NA,NA,NA,NA,NA,NA,"","",1,1,"2024-08-25_22h04.39.309","IAT(Formal)","2021.2.3","Win32",59.88023952,NA,"",NA,"",NA,NA,NA,NA,NA,NA,"","",NA,"",NA,"",0,NA,NA,NA,NA,NA,NA,"勇敢","e","",NA,1,38,118,17,1,"",NA,"",NA,NA,NA,NA,NA,NA,NA,"",NA,"",NA,NA,NA,NA,NA,NA,"","",NA,"",NA,"",NA,NA,NA,NA,NA,NA,NA,"",NA,"32"
"",NA,"",NA,"",NA,NA,NA,NA,NA,NA,"","",1,1,"2024-08-25_22h04.39.309","IAT(Formal)","2021.2.3","Win32",59.88023952,NA,"",NA,"",NA,NA,NA,NA,NA,NA,"","",NA,"",NA,"e",1,0.9848,NA,NA,NA,NA,NA,"朴实","e","",NA,1,39,119,24,1,"",NA,"",NA,NA,NA,NA,NA,NA,NA,"",NA,"",NA,NA,NA,NA,NA,NA,"","",NA,"",NA,"",NA,NA,NA,NA,NA,NA,NA,"",NA,"32"
"",NA,"",NA,"",NA,NA,NA,NA,NA,NA,"","",1,1,"2024-08-25_22h04.39.309","IAT(Formal)","2021.2.3","Win32",59.88023952,NA,"",NA,"",NA,NA,NA,NA,NA,NA,"","",NA,"",NA,"i",1,1.1393,NA,NA,NA,NA,NA,"冒失","i","",NA,1,40,120,39,1,"",NA,"",NA,NA,NA,NA,NA,NA,NA,"",NA,"",NA,NA,NA,NA,NA,NA,"","",NA,"",NA,"",NA,NA,NA,NA,NA,NA,NA,"",NA,"32"
"",NA,"",NA,"",NA,NA,NA,NA,NA,NA,"","",1,1,"2024-08-25_22h04.39.309","IAT(Formal)","2021.2.3","Win32",59.88023952,NA,"",NA,"",NA,NA,NA,NA,NA,NA,"","",NA,"",NA,"i",1,1.0836,NA,NA,NA,NA,NA,"执拗","i","",NA,1,41,121,40,1,"",NA,"",NA,NA,NA,NA,NA,NA,NA,"",NA,"",NA,NA,NA,NA,NA,NA,"","",NA,"",NA,"",NA,NA,NA,NA,NA,NA,NA,"",NA,"32"
"",NA,"",NA,"",NA,NA,NA,NA,NA,NA,"","",1,1,"2024-08-25_22h04.39.309","IAT(Formal)","2021.2.3","Win32",59.88023952,NA,"",NA,"",NA,NA,NA,NA,NA,NA,"","",NA,"",NA,"i",1,0.9235,NA,NA,NA,NA,NA,"刻薄","i","",NA,1,42,122,33,1,"",NA,"",NA,NA,NA,NA,NA,NA,NA,"",NA,"",NA,NA,NA,NA,NA,NA,"","",NA,"",NA,"",NA,NA,NA,NA,NA,NA,NA,"",NA,"32"
"",NA,"",NA,"",NA,NA,NA,NA,NA,NA,"","",1,1,"2024-08-25_22h04.39.309","IAT(Formal)","2021.2.3","Win32",59.88023952,NA,"",NA,"",NA,NA,NA,NA,NA,NA,"","",NA,"",NA,"i",1,0.8017,NA,NA,NA,NA,NA,"卑鄙","i","",NA,1,43,123,30,1,"",NA,"",NA,NA,NA,NA,NA,NA,NA,"",NA,"",NA,NA,NA,NA,NA,NA,"","",NA,"",NA,"",NA,NA,NA,NA,NA,NA,NA,"",NA,"32"
"",NA,"",NA,"",NA,NA,NA,NA,NA,NA,"","",1,1,"2024-08-25_22h04.39.309","IAT(Formal)","2021.2.3","Win32",59.88023952,NA,"",NA,"",NA,NA,NA,NA,NA,NA,"","",NA,"",NA,"i",1,0.9892,NA,NA,NA,NA,NA,"散漫","i","",NA,1,44,124,41,1,"",NA,"",NA,NA,NA,NA,NA,NA,NA,"",NA,"",NA,NA,NA,NA,NA,NA,"","",NA,"",NA,"",NA,NA,NA,NA,NA,NA,NA,"",NA,"32"
"",NA,"",NA,"",NA,NA,NA,NA,NA,NA,"","",1,1,"2024-08-25_22h04.39.309","IAT(Formal)","2021.2.3","Win32",59.88023952,NA,"",NA,"",NA,NA,NA,NA,NA,NA,"","",NA,"",NA,"e",1,1.1064,NA,NA,NA,NA,NA,"杰出","e","",NA,1,45,125,13,1,"",NA,"",NA,NA,NA,NA,NA,NA,NA,"",NA,"",NA,NA,NA,NA,NA,NA,"","",NA,"",NA,"",NA,NA,NA,NA,NA,NA,NA,"",NA,"32"
"",NA,"",NA,"",NA,NA,NA,NA,NA,NA,"","",1,1,"2024-08-25_22h04.39.309","IAT(Formal)","2021.2.3","Win32",59.88023952,NA,"",NA,"",NA,NA,NA,NA,NA,NA,"","",NA,"",NA,"i",1,0.9719,NA,NA,NA,NA,NA,"他的","i","",NA,1,46,126,7,1,"",NA,"",NA,NA,NA,NA,NA,NA,NA,"",NA,"",NA,NA,NA,NA,NA,NA,"","",NA,"",NA,"",NA,NA,NA,NA,NA,NA,NA,"",NA,"32"
"",NA,"",NA,"",NA,NA,NA,NA,NA,NA,"","",1,1,"2024-08-25_22h04.39.309","IAT(Formal)","2021.2.3","Win32",59.88023952,NA,"",NA,"",NA,NA,NA,NA,NA,NA,"","",NA,"",NA,"i",1,0.8592,NA,NA,NA,NA,NA,"消极","i","",NA,1,47,127,35,1,"",NA,"",NA,NA,NA,NA,NA,NA,NA,"",NA,"",NA,NA,NA,NA,NA,NA,"","",NA,"",NA,"",NA,NA,NA,NA,NA,NA,NA,"",NA,"32"
"",NA,"",NA,"",NA,NA,NA,NA,NA,NA,"","",1,1,"2024-08-25_22h04.39.309","IAT(Formal)","2021.2.3","Win32",59.88023952,NA,"",NA,"",NA,NA,NA,NA,NA,NA,"","",NA,"",NA,"e",1,0.9433,NA,NA,NA,NA,NA,"我们","e","",NA,1,48,128,72,1,"",NA,"",NA,NA,NA,NA,NA,NA,NA,"",NA,"",NA,NA,NA,NA,NA,NA,"","",NA,"",NA,"",NA,NA,NA,NA,NA,NA,NA,"",NA,"32"
"",NA,"",NA,"",NA,NA,NA,NA,NA,NA,"","",1,1,"2024-08-25_22h04.39.309","IAT(Formal)","2021.2.3","Win32",59.88023952,NA,"",NA,"",NA,NA,NA,NA,NA,NA,"","",NA,"",NA,"i",1,0.9411,NA,NA,NA,NA,NA,"他们","i","",NA,1,49,129,76,1,"",NA,"",NA,NA,NA,NA,NA,NA,NA,"",NA,"",NA,NA,NA,NA,NA,NA,"","",NA,"",NA,"",NA,NA,NA,NA,NA,NA,NA,"",NA,"32"
"",NA,"",NA,"",NA,NA,NA,NA,NA,NA,"","",1,1,"2024-08-25_22h04.39.309","IAT(Formal)","2021.2.3","Win32",59.88023952,NA,"",NA,"",NA,NA,NA,NA,NA,NA,"","",NA,"",NA,"i",1,0.855,NA,NA,NA,NA,NA,"轻率","i","",NA,1,50,130,48,1,"",NA,"",NA,NA,NA,NA,NA,NA,NA,"",NA,"",NA,NA,NA,NA,NA,NA,"","",NA,"",NA,"",NA,NA,NA,NA,NA,NA,NA,"",NA,"32"
"",NA,"",NA,"",NA,NA,NA,NA,NA,NA,"","",1,1,"2024-08-25_22h04.39.309","IAT(Formal)","2021.2.3","Win32",59.88023952,NA,"",NA,"",NA,NA,NA,NA,NA,NA,"","",NA,"",NA,"",0,NA,NA,NA,NA,NA,NA,"自私","i","",NA,1,51,131,43,1,"",NA,"",NA,NA,NA,NA,NA,NA,NA,"",NA,"",NA,NA,NA,NA,NA,NA,"","",NA,"",NA,"",NA,NA,NA,NA,NA,NA,NA,"",NA,"32"
"",NA,"",NA,"",NA,NA,NA,NA,NA,NA,"","",1,1,"2024-08-25_22h04.39.309","IAT(Formal)","2021.2.3","Win32",59.88023952,NA,"",NA,"",NA,NA,NA,NA,NA,NA,"","",NA,"",NA,"e",1,0.9351,NA,NA,NA,NA,NA,"我","e","",NA,1,52,132,60,1,"",NA,"",NA,NA,NA,NA,NA,NA,NA,"",NA,"",NA,NA,NA,NA,NA,NA,"","",NA,"",NA,"",NA,NA,NA,NA,NA,NA,NA,"",NA,"32"
"",NA,"",NA,"",NA,NA,NA,NA,NA,NA,"","",1,1,"2024-08-25_22h04.39.309","IAT(Formal)","2021.2.3","Win32",59.88023952,NA,"",NA,"",NA,NA,NA,NA,NA,NA,"","",NA,"",NA,"e",1,0.8392,NA,NA,NA,NA,NA,"我","e","",NA,1,53,133,70,1,"",NA,"",NA,NA,NA,NA,NA,NA,NA,"",NA,"",NA,NA,NA,NA,NA,NA,"","",NA,"",NA,"",NA,NA,NA,NA,NA,NA,NA,"",NA,"32"
"",NA,"",NA,"",NA,NA,NA,NA,NA,NA,"","",1,1,"2024-08-25_22h04.39.309","IAT(Formal)","2021.2.3","Win32",59.88023952,NA,"",NA,"",NA,NA,NA,NA,NA,NA,"","",NA,"",NA,"i",1,0.8059,NA,NA,NA,NA,NA,"他","i","",NA,1,54,134,75,1,"",NA,"",NA,NA,NA,NA,NA,NA,NA,"",NA,"",NA,NA,NA,NA,NA,NA,"","",NA,"",NA,"",NA,NA,NA,NA,NA,NA,NA,"",NA,"32"
"",NA,"",NA,"",NA,NA,NA,NA,NA,NA,"","",1,1,"2024-08-25_22h04.39.309","IAT(Formal)","2021.2.3","Win32",59.88023952,NA,"",NA,"",NA,NA,NA,NA,NA,NA,"","",NA,"",NA,"i",1,0.7843,NA,NA,NA,NA,NA,"他的","i","",NA,1,55,135,77,1,"",NA,"",NA,NA,NA,NA,NA,NA,NA,"",NA,"",NA,NA,NA,NA,NA,NA,"","",NA,"",NA,"",NA,NA,NA,NA,NA,NA,NA,"",NA,"32"
"",NA,"",NA,"",NA,NA,NA,NA,NA,NA,"","",1,1,"2024-08-25_22h04.39.309","IAT(Formal)","2021.2.3","Win32",59.88023952,NA,"",NA,"",NA,NA,NA,NA,NA,NA,"","",NA,"",NA,"e",1,0.951,NA,NA,NA,NA,NA,"勤奋","e","",NA,1,56,136,18,1,"",NA,"",NA,NA,NA,NA,NA,NA,NA,"",NA,"",NA,NA,NA,NA,NA,NA,"","",NA,"",NA,"",NA,NA,NA,NA,NA,NA,NA,"",NA,"32"
"",NA,"",NA,"",NA,NA,NA,NA,NA,NA,"","",1,1,"2024-08-25_22h04.39.309","IAT(Formal)","2021.2.3","Win32",59.88023952,NA,"",NA,"",NA,NA,NA,NA,NA,NA,"","",NA,"",NA,"e",1,0.8766,NA,NA,NA,NA,NA,"优秀","e","",NA,1,57,137,10,1,"",NA,"",NA,NA,NA,NA,NA,NA,NA,"",NA,"",NA,NA,NA,NA,NA,NA,"","",NA,"",NA,"",NA,NA,NA,NA,NA,NA,NA,"",NA,"32"
"",NA,"",NA,"",NA,NA,NA,NA,NA,NA,"","",1,1,"2024-08-25_22h04.39.309","IAT(Formal)","2021.2.3","Win32",59.88023952,NA,"",NA,"",NA,NA,NA,NA,NA,NA,"","",NA,"",NA,"i",1,0.9234,NA,NA,NA,NA,NA,"他们","i","",NA,1,58,138,56,1,"",NA,"",NA,NA,NA,NA,NA,NA,NA,"",NA,"",NA,NA,NA,NA,NA,NA,"","",NA,"",NA,"",NA,NA,NA,NA,NA,NA,NA,"",NA,"32"
"",NA,"",NA,"",NA,NA,NA,NA,NA,NA,"","",1,1,"2024-08-25_22h04.39.309","IAT(Formal)","2021.2.3","Win32",59.88023952,NA,"",NA,"",NA,NA,NA,NA,NA,NA,"","",NA,"",NA,"e",1,0.9395,NA,NA,NA,NA,NA,"公正","e","",NA,1,59,139,23,1,"",NA,"",NA,NA,NA,NA,NA,NA,NA,"",NA,"",NA,NA,NA,NA,NA,NA,"","",NA,"",NA,"",NA,NA,NA,NA,NA,NA,NA,"",NA,"32"
"",NA,"",NA,"",NA,NA,NA,NA,NA,NA,"","",1,1,"2024-08-25_22h04.39.309","IAT(Formal)","2021.2.3","Win32",59.88023952,NA,"",NA,"",NA,NA,NA,NA,NA,NA,"","",NA,"",NA,"i",1,1.0852,NA,NA,NA,NA,NA,"悲观","i","",NA,1,60,140,34,1,"",NA,"",NA,NA,NA,NA,NA,NA,NA,"",NA,"",NA,NA,NA,NA,NA,NA,"","",NA,"",NA,"",NA,NA,NA,NA,NA,NA,NA,"",NA,"32"
"",NA,"",NA,"",NA,NA,NA,NA,NA,NA,"","",1,1,"2024-08-25_22h04.39.309","IAT(Formal)","2021.2.3","Win32",59.88023952,NA,"",NA,"",NA,NA,NA,NA,NA,NA,"","",NA,"",NA,"e",1,0.8693,NA,NA,NA,NA,NA,"我们","e","",NA,1,61,141,2,1,"",NA,"",NA,NA,NA,NA,NA,NA,NA,"",NA,"",NA,NA,NA,NA,NA,NA,"","",NA,"",NA,"",NA,NA,NA,NA,NA,NA,NA,"",NA,"32"
"",NA,"",NA,"",NA,NA,NA,NA,NA,NA,"","",1,1,"2024-08-25_22h04.39.309","IAT(Formal)","2021.2.3","Win32",59.88023952,NA,"",NA,"",NA,NA,NA,NA,NA,NA,"","",NA,"",NA,"e",1,0.9437,NA,NA,NA,NA,NA,"冷静","e","",NA,1,62,142,26,1,"",NA,"",NA,NA,NA,NA,NA,NA,NA,"",NA,"",NA,NA,NA,NA,NA,NA,"","",NA,"",NA,"",NA,NA,NA,NA,NA,NA,NA,"",NA,"32"
"",NA,"",NA,"",NA,NA,NA,NA,NA,NA,"","",1,1,"2024-08-25_22h04.39.309","IAT(Formal)","2021.2.3","Win32",59.88023952,NA,"",NA,"",NA,NA,NA,NA,NA,NA,"","",NA,"",NA,"e",1,0.8581,NA,NA,NA,NA,NA,"细腻","e","",NA,1,63,143,25,1,"",NA,"",NA,NA,NA,NA,NA,NA,NA,"",NA,"",NA,NA,NA,NA,NA,NA,"","",NA,"",NA,"",NA,NA,NA,NA,NA,NA,NA,"",NA,"32"
"",NA,"",NA,"",NA,NA,NA,NA,NA,NA,"","",1,1,"2024-08-25_22h04.39.309","IAT(Formal)","2021.2.3","Win32",59.88023952,NA,"",NA,"",NA,NA,NA,NA,NA,NA,"","",NA,"",NA,"e",1,0.8125,NA,NA,NA,NA,NA,"稳重","e","",NA,1,64,144,21,1,"",NA,"",NA,NA,NA,NA,NA,NA,NA,"",NA,"",NA,NA,NA,NA,NA,NA,"","",NA,"",NA,"",NA,NA,NA,NA,NA,NA,NA,"",NA,"32"
"",NA,"",NA,"",NA,NA,NA,NA,NA,NA,"","",1,1,"2024-08-25_22h04.39.309","IAT(Formal)","2021.2.3","Win32",59.88023952,NA,"",NA,"",NA,NA,NA,NA,NA,NA,"","",NA,"",NA,"e",1,0.9018,NA,NA,NA,NA,NA,"崇高","e","",NA,1,65,145,11,1,"",NA,"",NA,NA,NA,NA,NA,NA,NA,"",NA,"",NA,NA,NA,NA,NA,NA,"","",NA,"",NA,"",NA,NA,NA,NA,NA,NA,NA,"",NA,"32"
"",NA,"",NA,"",NA,NA,NA,NA,NA,NA,"","",1,1,"2024-08-25_22h04.39.309","IAT(Formal)","2021.2.3","Win32",59.88023952,NA,"",NA,"",NA,NA,NA,NA,NA,NA,"","",NA,"",NA,"i",1,0.9863,NA,NA,NA,NA,NA,"愚蠢","i","",NA,1,66,146,32,1,"",NA,"",NA,NA,NA,NA,NA,NA,NA,"",NA,"",NA,NA,NA,NA,NA,NA,"","",NA,"",NA,"",NA,NA,NA,NA,NA,NA,NA,"",NA,"32"
"",NA,"",NA,"",NA,NA,NA,NA,NA,NA,"","",1,1,"2024-08-25_22h04.39.309","IAT(Formal)","2021.2.3","Win32",59.88023952,NA,"",NA,"",NA,NA,NA,NA,NA,NA,"","",NA,"",NA,"e",1,0.8514,NA,NA,NA,NA,NA,"我的","e","",NA,1,67,147,71,1,"",NA,"",NA,NA,NA,NA,NA,NA,NA,"",NA,"",NA,NA,NA,NA,NA,NA,"","",NA,"",NA,"",NA,NA,NA,NA,NA,NA,NA,"",NA,"32"
"",NA,"",NA,"",NA,NA,NA,NA,NA,NA,"","",1,1,"2024-08-25_22h04.39.309","IAT(Formal)","2021.2.3","Win32",59.88023952,NA,"",NA,"",NA,NA,NA,NA,NA,NA,"","",NA,"",NA,"e",1,0.7849,NA,NA,NA,NA,NA,"我","e","",NA,1,68,148,0,1,"",NA,"",NA,NA,NA,NA,NA,NA,NA,"",NA,"",NA,NA,NA,NA,NA,NA,"","",NA,"",NA,"",NA,NA,NA,NA,NA,NA,NA,"",NA,"32"
"",NA,"",NA,"",NA,NA,NA,NA,NA,NA,"","",1,1,"2024-08-25_22h04.39.309","IAT(Formal)","2021.2.3","Win32",59.88023952,NA,"",NA,"",NA,NA,NA,NA,NA,NA,"","",NA,"",NA,"e",1,0.7922,NA,NA,NA,NA,NA,"认真","e","",NA,1,69,149,20,1,"",NA,"",NA,NA,NA,NA,NA,NA,NA,"",NA,"",NA,NA,NA,NA,NA,NA,"","",NA,"",NA,"",NA,NA,NA,NA,NA,NA,NA,"",NA,"32"
"",NA,"",NA,"",NA,NA,NA,NA,NA,NA,"","",1,1,"2024-08-25_22h04.39.309","IAT(Formal)","2021.2.3","Win32",59.88023952,NA,"",NA,"",NA,NA,NA,NA,NA,NA,"","",NA,"",NA,"e",1,0.752,NA,NA,NA,NA,NA,"我","e","",NA,1,70,150,50,1,"",NA,"",NA,NA,NA,NA,NA,NA,NA,"",NA,"",NA,NA,NA,NA,NA,NA,"","",NA,"",NA,"",NA,NA,NA,NA,NA,NA,NA,"",NA,"32"
"",NA,"",NA,"",NA,NA,NA,NA,NA,NA,"","",1,1,"2024-08-25_22h04.39.309","IAT(Formal)","2021.2.3","Win32",59.88023952,NA,"",NA,"",NA,NA,NA,NA,NA,NA,"","",NA,"",NA,"e",1,0.7402,NA,NA,NA,NA,NA,"聪明","e","",NA,1,71,151,12,1,"",NA,"",NA,NA,NA,NA,NA,NA,NA,"",NA,"",NA,NA,NA,NA,NA,NA,"","",NA,"",NA,"",NA,NA,NA,NA,NA,NA,NA,"",NA,"32"
"",NA,"",NA,"",NA,NA,NA,NA,NA,NA,"","",1,1,"2024-08-25_22h04.39.309","IAT(Formal)","2021.2.3","Win32",59.88023952,NA,"",NA,"",NA,NA,NA,NA,NA,NA,"","",NA,"",NA,"i",1,1.0431,NA,NA,NA,NA,NA,"他人","i","",NA,1,72,152,8,1,"",NA,"",NA,NA,NA,NA,NA,NA,NA,"",NA,"",NA,NA,NA,NA,NA,NA,"","",NA,"",NA,"",NA,NA,NA,NA,NA,NA,NA,"",NA,"32"
"",NA,"",NA,"",NA,NA,NA,NA,NA,NA,"","",1,1,"2024-08-25_22h04.39.309","IAT(Formal)","2021.2.3","Win32",59.88023952,NA,"",NA,"",NA,NA,NA,NA,NA,NA,"","",NA,"",NA,"e",1,0.7897,NA,NA,NA,NA,NA,"我们","e","",NA,1,73,153,62,1,"",NA,"",NA,NA,NA,NA,NA,NA,NA,"",NA,"",NA,NA,NA,NA,NA,NA,"","",NA,"",NA,"",NA,NA,NA,NA,NA,NA,NA,"",NA,"32"
"",NA,"",NA,"",NA,NA,NA,NA,NA,NA,"","",1,1,"2024-08-25_22h04.39.309","IAT(Formal)","2021.2.3","Win32",59.88023952,NA,"",NA,"",NA,NA,NA,NA,NA,NA,"","",NA,"",NA,"i",1,0.9222,NA,NA,NA,NA,NA,"其他","i","",NA,1,74,154,9,1,"",NA,"",NA,NA,NA,NA,NA,NA,NA,"",NA,"",NA,NA,NA,NA,NA,NA,"","",NA,"",NA,"",NA,NA,NA,NA,NA,NA,NA,"",NA,"32"
"",NA,"",NA,"",NA,NA,NA,NA,NA,NA,"","",1,1,"2024-08-25_22h04.39.309","IAT(Formal)","2021.2.3","Win32",59.88023952,NA,"",NA,"",NA,NA,NA,NA,NA,NA,"","",NA,"",NA,"i",1,1.0722,NA,NA,NA,NA,NA,"其他","i","",NA,1,75,155,79,1,"",NA,"",NA,NA,NA,NA,NA,NA,NA,"",NA,"",NA,NA,NA,NA,NA,NA,"","",NA,"",NA,"",NA,NA,NA,NA,NA,NA,NA,"",NA,"32"
"",NA,"",NA,"",NA,NA,NA,NA,NA,NA,"","",1,1,"2024-08-25_22h04.39.309","IAT(Formal)","2021.2.3","Win32",59.88023952,NA,"",NA,"",NA,NA,NA,NA,NA,NA,"","",NA,"",NA,"i",1,1.104,NA,NA,NA,NA,NA,"猖狂","i","",NA,1,76,156,45,1,"",NA,"",NA,NA,NA,NA,NA,NA,NA,"",NA,"",NA,NA,NA,NA,NA,NA,"","",NA,"",NA,"",NA,NA,NA,NA,NA,NA,NA,"",NA,"32"
"",NA,"",NA,"",NA,NA,NA,NA,NA,NA,"","",1,1,"2024-08-25_22h04.39.309","IAT(Formal)","2021.2.3","Win32",59.88023952,NA,"",NA,"",NA,NA,NA,NA,NA,NA,"","",NA,"",NA,"",0,NA,NA,NA,NA,NA,NA,"无私","e","",NA,1,77,157,22,1,"",NA,"",NA,NA,NA,NA,NA,NA,NA,"",NA,"",NA,NA,NA,NA,NA,NA,"","",NA,"",NA,"",NA,NA,NA,NA,NA,NA,NA,"",NA,"32"
"",NA,"",NA,"",NA,NA,NA,NA,NA,NA,"","",1,1,"2024-08-25_22h04.39.309","IAT(Formal)","2021.2.3","Win32",59.88023952,NA,"",NA,"",NA,NA,NA,NA,NA,NA,"","",NA,"",NA,"i",1,1.1911,NA,NA,NA,NA,NA,"野蛮","i","",NA,1,78,158,46,1,"",NA,"",NA,NA,NA,NA,NA,NA,NA,"",NA,"",NA,NA,NA,NA,NA,NA,"","",NA,"",NA,"",NA,NA,NA,NA,NA,NA,NA,"",NA,"32"
"",NA,"",NA,"",NA,NA,NA,NA,NA,NA,"","",1,1,"2024-08-25_22h04.39.309","IAT(Formal)","2021.2.3","Win32",59.88023952,NA,"",NA,"",NA,NA,NA,NA,NA,NA,"","",NA,"",NA,"i",1,0.826,NA,NA,NA,NA,NA,"他","i","",NA,1,79,159,65,1,"",NA,"",NA,NA,NA,NA,NA,NA,NA,"",NA,"",NA,NA,NA,NA,NA,NA,"","",NA,"",NA,"",NA,NA,NA,NA,NA,NA,NA,"",NA,"32"
"",NA,"",NA,"",NA,NA,NA,NA,NA,NA,"他们","e",1,1,"2024-08-25_22h04.39.309","IAT(Formal)","2021.2.3","Win32",59.88023952,NA,"",NA,"",NA,NA,NA,NA,NA,NA,"","",NA,"",NA,"",NA,NA,NA,NA,NA,NA,NA,"","","",NA,NA,NA,NA,NA,NA,"space",20.7102,"e",1,0.9689,0,0,0,6,1,"",NA,"",NA,NA,NA,NA,NA,NA,"","",NA,"",NA,"",NA,NA,NA,NA,NA,NA,NA,"",NA,"32"
"",NA,"",NA,"",NA,NA,NA,NA,NA,NA,"我的","i",1,1,"2024-08-25_22h04.39.309","IAT(Formal)","2021.2.3","Win32",59.88023952,NA,"",NA,"",NA,NA,NA,NA,NA,NA,"","",NA,"",NA,"",NA,NA,NA,NA,NA,NA,NA,"","","",NA,NA,NA,NA,NA,NA,"",NA,"i",1,0.9228,0,1,1,1,1,"",NA,"",NA,NA,NA,NA,NA,NA,"","",NA,"",NA,"",NA,NA,NA,NA,NA,NA,NA,"",NA,"32"
"",NA,"",NA,"",NA,NA,NA,NA,NA,NA,"他","e",1,1,"2024-08-25_22h04.39.309","IAT(Formal)","2021.2.3","Win32",59.88023952,NA,"",NA,"",NA,NA,NA,NA,NA,NA,"","",NA,"",NA,"",NA,NA,NA,NA,NA,NA,NA,"","","",NA,NA,NA,NA,NA,NA,"",NA,"e",1,0.5065,0,2,2,5,1,"",NA,"",NA,NA,NA,NA,NA,NA,"","",NA,"",NA,"",NA,NA,NA,NA,NA,NA,NA,"",NA,"32"
"",NA,"",NA,"",NA,NA,NA,NA,NA,NA,"他人","e",1,1,"2024-08-25_22h04.39.309","IAT(Formal)","2021.2.3","Win32",59.88023952,NA,"",NA,"",NA,NA,NA,NA,NA,NA,"","",NA,"",NA,"",NA,NA,NA,NA,NA,NA,NA,"","","",NA,NA,NA,NA,NA,NA,"",NA,"e",1,0.5725,0,3,3,8,1,"",NA,"",NA,NA,NA,NA,NA,NA,"","",NA,"",NA,"",NA,NA,NA,NA,NA,NA,NA,"",NA,"32"
"",NA,"",NA,"",NA,NA,NA,NA,NA,NA,"其他","e",1,1,"2024-08-25_22h04.39.309","IAT(Formal)","2021.2.3","Win32",59.88023952,NA,"",NA,"",NA,NA,NA,NA,NA,NA,"","",NA,"",NA,"",NA,NA,NA,NA,NA,NA,NA,"","","",NA,NA,NA,NA,NA,NA,"",NA,"e",1,0.5728,0,4,4,9,1,"",NA,"",NA,NA,NA,NA,NA,NA,"","",NA,"",NA,"",NA,NA,NA,NA,NA,NA,NA,"",NA,"32"
"",NA,"",NA,"",NA,NA,NA,NA,NA,NA,"我们","i",1,1,"2024-08-25_22h04.39.309","IAT(Formal)","2021.2.3","Win32",59.88023952,NA,"",NA,"",NA,NA,NA,NA,NA,NA,"","",NA,"",NA,"",NA,NA,NA,NA,NA,NA,NA,"","","",NA,NA,NA,NA,NA,NA,"",NA,"i",1,0.6677,0,5,5,2,1,"",NA,"",NA,NA,NA,NA,NA,NA,"","",NA,"",NA,"",NA,NA,NA,NA,NA,NA,NA,"",NA,"32"
"",NA,"",NA,"",NA,NA,NA,NA,NA,NA,"我","i",1,1,"2024-08-25_22h04.39.309","IAT(Formal)","2021.2.3","Win32",59.88023952,NA,"",NA,"",NA,NA,NA,NA,NA,NA,"","",NA,"",NA,"",NA,NA,NA,NA,NA,NA,NA,"","","",NA,NA,NA,NA,NA,NA,"",NA,"i",1,0.7892,0,6,6,0,1,"",NA,"",NA,NA,NA,NA,NA,NA,"","",NA,"",NA,"",NA,NA,NA,NA,NA,NA,NA,"",NA,"32"
"",NA,"",NA,"",NA,NA,NA,NA,NA,NA,"俺","i",1,1,"2024-08-25_22h04.39.309","IAT(Formal)","2021.2.3","Win32",59.88023952,NA,"",NA,"",NA,NA,NA,NA,NA,NA,"","",NA,"",NA,"",NA,NA,NA,NA,NA,NA,NA,"","","",NA,NA,NA,NA,NA,NA,"",NA,"i",1,0.6693,0,7,7,4,1,"",NA,"",NA,NA,NA,NA,NA,NA,"","",NA,"",NA,"",NA,NA,NA,NA,NA,NA,NA,"",NA,"32"
"",NA,"",NA,"",NA,NA,NA,NA,NA,NA,"他的","e",1,1,"2024-08-25_22h04.39.309","IAT(Formal)","2021.2.3","Win32",59.88023952,NA,"",NA,"",NA,NA,NA,NA,NA,NA,"","",NA,"",NA,"",NA,NA,NA,NA,NA,NA,NA,"","","",NA,NA,NA,NA,NA,NA,"",NA,"e",1,0.4682,0,8,8,7,1,"",NA,"",NA,NA,NA,NA,NA,NA,"","",NA,"",NA,"",NA,NA,NA,NA,NA,NA,NA,"",NA,"32"
"",NA,"",NA,"",NA,NA,NA,NA,NA,NA,"自己","i",1,1,"2024-08-25_22h04.39.309","IAT(Formal)","2021.2.3","Win32",59.88023952,NA,"",NA,"",NA,NA,NA,NA,NA,NA,"","",NA,"",NA,"",NA,NA,NA,NA,NA,NA,NA,"","","",NA,NA,NA,NA,NA,NA,"",NA,"i",1,0.7884,0,9,9,3,1,"",NA,"",NA,NA,NA,NA,NA,NA,"","",NA,"",NA,"",NA,NA,NA,NA,NA,NA,NA,"",NA,"32"
"",NA,"",NA,"",NA,NA,NA,NA,NA,NA,"","",1,1,"2024-08-25_22h04.39.309","IAT(Formal)","2021.2.3","Win32",59.88023952,NA,"",NA,"",NA,NA,NA,NA,NA,NA,"","",NA,"",NA,"",NA,NA,NA,NA,NA,NA,NA,"","","",NA,NA,NA,NA,NA,NA,"",NA,"",NA,NA,NA,NA,NA,NA,NA,"space",22.6182,"",0,0,0,0,32,1,"愚蠢","i",NA,"",NA,"",NA,NA,NA,NA,NA,NA,NA,"",NA,"32"
"",NA,"",NA,"",NA,NA,NA,NA,NA,NA,"","",1,1,"2024-08-25_22h04.39.309","IAT(Formal)","2021.2.3","Win32",59.88023952,NA,"",NA,"",NA,NA,NA,NA,NA,NA,"","",NA,"",NA,"",NA,NA,NA,NA,NA,NA,NA,"","","",NA,NA,NA,NA,NA,NA,"",NA,"",NA,NA,NA,NA,NA,NA,NA,"",NA,"i",1,0,1,1,34,1,"悲观","i",0.8265,"",NA,"",NA,NA,NA,NA,NA,NA,NA,"",NA,"32"
"",NA,"",NA,"",NA,NA,NA,NA,NA,NA,"","",1,1,"2024-08-25_22h04.39.309","IAT(Formal)","2021.2.3","Win32",59.88023952,NA,"",NA,"",NA,NA,NA,NA,NA,NA,"","",NA,"",NA,"",NA,NA,NA,NA,NA,NA,NA,"","","",NA,NA,NA,NA,NA,NA,"",NA,"",NA,NA,NA,NA,NA,NA,NA,"",NA,"e",1,0,2,2,15,1,"诚实","e",0.7422,"",NA,"",NA,NA,NA,NA,NA,NA,NA,"",NA,"32"
"",NA,"",NA,"",NA,NA,NA,NA,NA,NA,"","",1,1,"2024-08-25_22h04.39.309","IAT(Formal)","2021.2.3","Win32",59.88023952,NA,"",NA,"",NA,NA,NA,NA,NA,NA,"","",NA,"",NA,"",NA,NA,NA,NA,NA,NA,NA,"","","",NA,NA,NA,NA,NA,NA,"",NA,"",NA,NA,NA,NA,NA,NA,NA,"",NA,"i",0,0,3,3,56,1,"他们","e",1.1516,"",NA,"",NA,NA,NA,NA,NA,NA,NA,"",NA,"32"
"",NA,"",NA,"",NA,NA,NA,NA,NA,NA,"","",1,1,"2024-08-25_22h04.39.309","IAT(Formal)","2021.2.3","Win32",59.88023952,NA,"",NA,"",NA,NA,NA,NA,NA,NA,"","",NA,"",NA,"",NA,NA,NA,NA,NA,NA,NA,"","","",NA,NA,NA,NA,NA,NA,"",NA,"",NA,NA,NA,NA,NA,NA,NA,"",NA,"e",0,0,4,4,61,1,"我的","i",0.9177,"",NA,"",NA,NA,NA,NA,NA,NA,NA,"",NA,"32"
