﻿Instruction1.keys,Instruction1.rt,Instruction2.keys,Instruction2.rt,key_resp_iso.keys,key_resp_iso.corr,key_resp_iso.rt,Practice_01.thisRepN,Practice_01.thisTrialN,Practice_01.thisN,Practice_01.thisIndex,Practice_01.ran,Words,ans,participant,session,date,expName,psychopyVersion,OS,frameRate,key_resp_3.keys,key_resp_3.rt,key_resp_ipn.keys,key_resp_ipn.corr,key_resp_ipn.rt,Practice_02.thisRepN,Practice_02.thisTrialN,Practice_02.thisN,Practice_02.thisIndex,Practice_02.ran,Words_ipn,ans_ipn,key_resp_4.keys,key_resp_4.rt,key_resp_t1.keys,key_resp_t1.corr,key_resp_t1.rt,Practice_T1.thisRepN,Practice_T1.thisTrialN,Practice_T1.thisN,Practice_T1.thisIndex,Practice_T1.ran,Words_t1,ans_t1,key_resp_5.keys,key_resp_5.rt,Formal_T1.thisRepN,Formal_T1.thisTrialN,Formal_T1.thisN,Formal_T1.thisIndex,Formal_T1.ran,key_resp_6.keys,key_resp_6.rt,key_resp_iso_reverse.keys,key_resp_iso_reverse.corr,key_resp_iso_reverse.rt,Practice_iso_Reverse.thisRepN,Practice_iso_Reverse.thisTrialN,Practice_iso_Reverse.thisN,Practice_iso_Reverse.thisIndex,Practice_iso_Reverse.ran,key_resp_7.keys,key_resp_7.rt,key_resp_t2_Practice.keys,key_resp_t2_Practice.corr,key_resp_t2_Practice.rt,Practice_t2_Reverse.thisRepN,Practice_t2_Reverse.thisTrialN,Practice_t2_Reverse.thisN,Practice_t2_Reverse.thisIndex,Practice_t2_Reverse.ran,Words_t2,ans_t2,key_resp_8.keys,key_resp_8.rt,key_resp_t2.keys,key_resp_t2.corr,key_resp_t2.rt,Formal_t2_reverse.thisRepN,Formal_t2_reverse.thisTrialN,Formal_t2_reverse.thisN,Formal_t2_reverse.thisIndex,Formal_t2_reverse.ran,key_instruct.keys,key_instruct.rt
space,8.5804,space,23.2941,e,1,1.0664,0,0,0,4,1,俺,e,1,001,2024-08-26_00h15.17.792,IAT(Formal),2021.2.3,Win32,60.60606061,,,,,,,,,,,,,,,,,,,,,,,,,,,,,,,,,,,,,,,,,,,,,,,,,,,,,,,,,,,,,,,,,
,,,,i,1,0.0002,0,1,1,8,1,他人,i,1,001,2024-08-26_00h15.17.792,IAT(Formal),2021.2.3,Win32,60.60606061,,,,,,,,,,,,,,,,,,,,,,,,,,,,,,,,,,,,,,,,,,,,,,,,,,,,,,,,,,,,,,,,,
,,,,i,1,0.009,0,2,2,9,1,其他,i,1,001,2024-08-26_00h15.17.792,IAT(Formal),2021.2.3,Win32,60.60606061,,,,,,,,,,,,,,,,,,,,,,,,,,,,,,,,,,,,,,,,,,,,,,,,,,,,,,,,,,,,,,,,,
,,,,e,1,0.6505,0,3,3,1,1,我的,e,1,001,2024-08-26_00h15.17.792,IAT(Formal),2021.2.3,Win32,60.60606061,,,,,,,,,,,,,,,,,,,,,,,,,,,,,,,,,,,,,,,,,,,,,,,,,,,,,,,,,,,,,,,,,
,,,,e,0,1.0334,0,4,4,6,1,他们,i,1,001,2024-08-26_00h15.17.792,IAT(Formal),2021.2.3,Win32,60.60606061,,,,,,,,,,,,,,,,,,,,,,,,,,,,,,,,,,,,,,,,,,,,,,,,,,,,,,,,,,,,,,,,,
,,,,e,1,1.1583,0,5,5,3,1,自己,e,1,001,2024-08-26_00h15.17.792,IAT(Formal),2021.2.3,Win32,60.60606061,,,,,,,,,,,,,,,,,,,,,,,,,,,,,,,,,,,,,,,,,,,,,,,,,,,,,,,,,,,,,,,,,
,,,,i,1,0.7587,0,6,6,7,1,他的,i,1,001,2024-08-26_00h15.17.792,IAT(Formal),2021.2.3,Win32,60.60606061,,,,,,,,,,,,,,,,,,,,,,,,,,,,,,,,,,,,,,,,,,,,,,,,,,,,,,,,,,,,,,,,,
,,,,i,1,0.8357,0,7,7,5,1,他,i,1,001,2024-08-26_00h15.17.792,IAT(Formal),2021.2.3,Win32,60.60606061,,,,,,,,,,,,,,,,,,,,,,,,,,,,,,,,,,,,,,,,,,,,,,,,,,,,,,,,,,,,,,,,,
,,,,e,1,0.503,0,8,8,0,1,我,e,1,001,2024-08-26_00h15.17.792,IAT(Formal),2021.2.3,Win32,60.60606061,,,,,,,,,,,,,,,,,,,,,,,,,,,,,,,,,,,,,,,,,,,,,,,,,,,,,,,,,,,,,,,,,
,,,,e,1,0.7445,0,9,9,2,1,我们,e,1,001,2024-08-26_00h15.17.792,IAT(Formal),2021.2.3,Win32,60.60606061,,,,,,,,,,,,,,,,,,,,,,,,,,,,,,,,,,,,,,,,,,,,,,,,,,,,,,,,,,,,,,,,,
,,,,,,,,,,,,,,1,001,2024-08-26_00h15.17.792,IAT(Formal),2021.2.3,Win32,60.60606061,space,3.5238,i,0,1.218,0,0,0,12,1,无私,e,,,,,,,,,,,,,,,,,,,,,,,,,,,,,,,,,,,,,,,,,,,,,,,,,,,,,
,,,,,,,,,,,,,,1,001,2024-08-26_00h15.17.792,IAT(Formal),2021.2.3,Win32,60.60606061,,,i,1,0.8815,0,1,1,36,1,野蛮,i,,,,,,,,,,,,,,,,,,,,,,,,,,,,,,,,,,,,,,,,,,,,,,,,,,,,,
,,,,,,,,,,,,,,1,001,2024-08-26_00h15.17.792,IAT(Formal),2021.2.3,Win32,60.60606061,,,e,0,1.0197,0,2,2,31,1,散漫,i,,,,,,,,,,,,,,,,,,,,,,,,,,,,,,,,,,,,,,,,,,,,,,,,,,,,,
,,,,,,,,,,,,,,1,001,2024-08-26_00h15.17.792,IAT(Formal),2021.2.3,Win32,60.60606061,,,e,1,1.0342,0,3,3,4,1,乐观,e,,,,,,,,,,,,,,,,,,,,,,,,,,,,,,,,,,,,,,,,,,,,,,,,,,,,,
,,,,,,,,,,,,,,1,001,2024-08-26_00h15.17.792,IAT(Formal),2021.2.3,Win32,60.60606061,,,e,1,0.7585,0,4,4,2,1,聪明,e,,,,,,,,,,,,,,,,,,,,,,,,,,,,,,,,,,,,,,,,,,,,,,,,,,,,,
,,,,,,,,,,,,,,1,001,2024-08-26_00h15.17.792,IAT(Formal),2021.2.3,Win32,60.60606061,,,e,1,0.7075,0,5,5,15,1,细腻,e,,,,,,,,,,,,,,,,,,,,,,,,,,,,,,,,,,,,,,,,,,,,,,,,,,,,,
,,,,,,,,,,,,,,1,001,2024-08-26_00h15.17.792,IAT(Formal),2021.2.3,Win32,60.60606061,,,i,0,0.7503,0,6,6,18,1,活泼,e,,,,,,,,,,,,,,,,,,,,,,,,,,,,,,,,,,,,,,,,,,,,,,,,,,,,,
,,,,,,,,,,,,,,1,001,2024-08-26_00h15.17.792,IAT(Formal),2021.2.3,Win32,60.60606061,,,i,0,0.8697,0,7,7,17,1,热情,e,,,,,,,,,,,,,,,,,,,,,,,,,,,,,,,,,,,,,,,,,,,,,,,,,,,,,
,,,,,,,,,,,,,,1,001,2024-08-26_00h15.17.792,IAT(Formal),2021.2.3,Win32,60.60606061,,,e,0,0.732,0,8,8,26,1,自卑,i,,,,,,,,,,,,,,,,,,,,,,,,,,,,,,,,,,,,,,,,,,,,,,,,,,,,,
,,,,,,,,,,,,,,1,001,2024-08-26_00h15.17.792,IAT(Formal),2021.2.3,Win32,60.60606061,,,i,1,1.0306,0,9,9,35,1,猖狂,i,,,,,,,,,,,,,,,,,,,,,,,,,,,,,,,,,,,,,,,,,,,,,,,,,,,,,
,,,,,,,,,,,,,,1,001,2024-08-26_00h15.17.792,IAT(Formal),2021.2.3,Win32,60.60606061,,,e,1,1.12,0,10,10,11,1,稳重,e,,,,,,,,,,,,,,,,,,,,,,,,,,,,,,,,,,,,,,,,,,,,,,,,,,,,,
,,,,,,,,,,,,,,1,001,2024-08-26_00h15.17.792,IAT(Formal),2021.2.3,Win32,60.60606061,,,e,1,0.7478,0,11,11,19,1,诚恳,e,,,,,,,,,,,,,,,,,,,,,,,,,,,,,,,,,,,,,,,,,,,,,,,,,,,,,
,,,,,,,,,,,,,,1,001,2024-08-26_00h15.17.792,IAT(Formal),2021.2.3,Win32,60.60606061,,,e,0,0.5992,0,12,12,27,1,傲慢,i,,,,,,,,,,,,,,,,,,,,,,,,,,,,,,,,,,,,,,,,,,,,,,,,,,,,,
,,,,,,,,,,,,,,1,001,2024-08-26_00h15.17.792,IAT(Formal),2021.2.3,Win32,60.60606061,,,i,1,0.8027,0,13,13,29,1,冒失,i,,,,,,,,,,,,,,,,,,,,,,,,,,,,,,,,,,,,,,,,,,,,,,,,,,,,,
,,,,,,,,,,,,,,1,001,2024-08-26_00h15.17.792,IAT(Formal),2021.2.3,Win32,60.60606061,,,e,1,0.9715,0,14,14,7,1,勇敢,e,,,,,,,,,,,,,,,,,,,,,,,,,,,,,,,,,,,,,,,,,,,,,,,,,,,,,
,,,,,,,,,,,,,,1,001,2024-08-26_00h15.17.792,IAT(Formal),2021.2.3,Win32,60.60606061,,,i,1,0.6944,0,15,15,28,1,鲁莽,i,,,,,,,,,,,,,,,,,,,,,,,,,,,,,,,,,,,,,,,,,,,,,,,,,,,,,
,,,,,,,,,,,,,,1,001,2024-08-26_00h15.17.792,IAT(Formal),2021.2.3,Win32,60.60606061,,,e,1,0.6809,0,16,16,14,1,朴实,e,,,,,,,,,,,,,,,,,,,,,,,,,,,,,,,,,,,,,,,,,,,,,,,,,,,,,
,,,,,,,,,,,,,,1,001,2024-08-26_00h15.17.792,IAT(Formal),2021.2.3,Win32,60.60606061,,,i,1,1.0198,0,17,17,32,1,凶狠,i,,,,,,,,,,,,,,,,,,,,,,,,,,,,,,,,,,,,,,,,,,,,,,,,,,,,,
,,,,,,,,,,,,,,1,001,2024-08-26_00h15.17.792,IAT(Formal),2021.2.3,Win32,60.60606061,,,i,0,0.5499,0,18,18,3,1,杰出,e,,,,,,,,,,,,,,,,,,,,,,,,,,,,,,,,,,,,,,,,,,,,,,,,,,,,,
,,,,,,,,,,,,,,1,001,2024-08-26_00h15.17.792,IAT(Formal),2021.2.3,Win32,60.60606061,,,i,1,0.913,0,19,19,30,1,执拗,i,,,,,,,,,,,,,,,,,,,,,,,,,,,,,,,,,,,,,,,,,,,,,,,,,,,,,
,,,,,,,,,,,,,,1,001,2024-08-26_00h15.17.792,IAT(Formal),2021.2.3,Win32,60.60606061,,,e,0,0.8352,0,20,20,34,1,暴躁,i,,,,,,,,,,,,,,,,,,,,,,,,,,,,,,,,,,,,,,,,,,,,,,,,,,,,,
,,,,,,,,,,,,,,1,001,2024-08-26_00h15.17.792,IAT(Formal),2021.2.3,Win32,60.60606061,,,e,1,0.7692,0,21,21,8,1,勤奋,e,,,,,,,,,,,,,,,,,,,,,,,,,,,,,,,,,,,,,,,,,,,,,,,,,,,,,
,,,,,,,,,,,,,,1,001,2024-08-26_00h15.17.792,IAT(Formal),2021.2.3,Win32,60.60606061,,,i,1,0.6969,0,22,22,39,1,下贱,i,,,,,,,,,,,,,,,,,,,,,,,,,,,,,,,,,,,,,,,,,,,,,,,,,,,,,
,,,,,,,,,,,,,,1,001,2024-08-26_00h15.17.792,IAT(Formal),2021.2.3,Win32,60.60606061,,,i,1,0.6693,0,23,23,20,1,卑鄙,i,,,,,,,,,,,,,,,,,,,,,,,,,,,,,,,,,,,,,,,,,,,,,,,,,,,,,
,,,,,,,,,,,,,,1,001,2024-08-26_00h15.17.792,IAT(Formal),2021.2.3,Win32,60.60606061,,,e,0,1.0993,0,24,24,33,1,自私,i,,,,,,,,,,,,,,,,,,,,,,,,,,,,,,,,,,,,,,,,,,,,,,,,,,,,,
,,,,,,,,,,,,,,1,001,2024-08-26_00h15.17.792,IAT(Formal),2021.2.3,Win32,60.60606061,,,e,1,0.7198,0,25,25,6,1,正直,e,,,,,,,,,,,,,,,,,,,,,,,,,,,,,,,,,,,,,,,,,,,,,,,,,,,,,
,,,,,,,,,,,,,,1,001,2024-08-26_00h15.17.792,IAT(Formal),2021.2.3,Win32,60.60606061,,,e,0,0.7305,0,26,26,24,1,悲观,i,,,,,,,,,,,,,,,,,,,,,,,,,,,,,,,,,,,,,,,,,,,,,,,,,,,,,
,,,,,,,,,,,,,,1,001,2024-08-26_00h15.17.792,IAT(Formal),2021.2.3,Win32,60.60606061,,,e,0,0.8551,0,27,27,25,1,消极,i,,,,,,,,,,,,,,,,,,,,,,,,,,,,,,,,,,,,,,,,,,,,,,,,,,,,,
,,,,,,,,,,,,,,1,001,2024-08-26_00h15.17.792,IAT(Formal),2021.2.3,Win32,60.60606061,,,i,1,0.8402,0,28,28,37,1,固执,i,,,,,,,,,,,,,,,,,,,,,,,,,,,,,,,,,,,,,,,,,,,,,,,,,,,,,
,,,,,,,,,,,,,,1,001,2024-08-26_00h15.17.792,IAT(Formal),2021.2.3,Win32,60.60606061,,,i,0,1.1808,0,29,29,0,1,优秀,e,,,,,,,,,,,,,,,,,,,,,,,,,,,,,,,,,,,,,,,,,,,,,,,,,,,,,
,,,,,,,,,,,,,,1,001,2024-08-26_00h15.17.792,IAT(Formal),2021.2.3,Win32,60.60606061,,,e,1,0.7517,0,30,30,9,1,机智,e,,,,,,,,,,,,,,,,,,,,,,,,,,,,,,,,,,,,,,,,,,,,,,,,,,,,,
,,,,,,,,,,,,,,1,001,2024-08-26_00h15.17.792,IAT(Formal),2021.2.3,Win32,60.60606061,,,e,0,0.7151,0,31,31,38,1,轻率,i,,,,,,,,,,,,,,,,,,,,,,,,,,,,,,,,,,,,,,,,,,,,,,,,,,,,,
,,,,,,,,,,,,,,1,001,2024-08-26_00h15.17.792,IAT(Formal),2021.2.3,Win32,60.60606061,,,e,1,0.6302,0,32,32,1,1,崇高,e,,,,,,,,,,,,,,,,,,,,,,,,,,,,,,,,,,,,,,,,,,,,,,,,,,,,,
,,,,,,,,,,,,,,1,001,2024-08-26_00h15.17.792,IAT(Formal),2021.2.3,Win32,60.60606061,,,i,1,0.7432,0,33,33,22,1,愚蠢,i,,,,,,,,,,,,,,,,,,,,,,,,,,,,,,,,,,,,,,,,,,,,,,,,,,,,,
,,,,,,,,,,,,,,1,001,2024-08-26_00h15.17.792,IAT(Formal),2021.2.3,Win32,60.60606061,,,i,0,0.6648,0,34,34,16,1,冷静,e,,,,,,,,,,,,,,,,,,,,,,,,,,,,,,,,,,,,,,,,,,,,,,,,,,,,,
,,,,,,,,,,,,,,1,001,2024-08-26_00h15.17.792,IAT(Formal),2021.2.3,Win32,60.60606061,,,i,0,0.5852,0,35,35,13,1,公正,e,,,,,,,,,,,,,,,,,,,,,,,,,,,,,,,,,,,,,,,,,,,,,,,,,,,,,
,,,,,,,,,,,,,,1,001,2024-08-26_00h15.17.792,IAT(Formal),2021.2.3,Win32,60.60606061,,,i,1,0.941,0,36,36,21,1,虚伪,i,,,,,,,,,,,,,,,,,,,,,,,,,,,,,,,,,,,,,,,,,,,,,,,,,,,,,
,,,,,,,,,,,,,,1,001,2024-08-26_00h15.17.792,IAT(Formal),2021.2.3,Win32,60.60606061,,,e,1,0.832,0,37,37,5,1,诚实,e,,,,,,,,,,,,,,,,,,,,,,,,,,,,,,,,,,,,,,,,,,,,,,,,,,,,,
,,,,,,,,,,,,,,1,001,2024-08-26_00h15.17.792,IAT(Formal),2021.2.3,Win32,60.60606061,,,i,1,1.1991,0,38,38,23,1,刻薄,i,,,,,,,,,,,,,,,,,,,,,,,,,,,,,,,,,,,,,,,,,,,,,,,,,,,,,
,,,,,,,,,,,,,,1,001,2024-08-26_00h15.17.792,IAT(Formal),2021.2.3,Win32,60.60606061,,,e,1,0.8782,0,39,39,10,1,认真,e,,,,,,,,,,,,,,,,,,,,,,,,,,,,,,,,,,,,,,,,,,,,,,,,,,,,,
,,,,,,,,,,,,,,1,001,2024-08-26_00h15.17.792,IAT(Formal),2021.2.3,Win32,60.60606061,,,,,,,,,,,,,space,17.6772,e,1,0.9004,0,0,0,63,1,自己,e,,,,,,,,,,,,,,,,,,,,,,,,,,,,,,,,,,,,,,,,,
,,,,,,,,,,,,,,1,001,2024-08-26_00h15.17.792,IAT(Formal),2021.2.3,Win32,60.60606061,,,,,,,,,,,,,,,e,1,0.7486,0,1,1,52,1,我们,e,,,,,,,,,,,,,,,,,,,,,,,,,,,,,,,,,,,,,,,,,
,,,,,,,,,,,,,,1,001,2024-08-26_00h15.17.792,IAT(Formal),2021.2.3,Win32,60.60606061,,,,,,,,,,,,,,,e,1,0.651,0,2,2,64,1,俺,e,,,,,,,,,,,,,,,,,,,,,,,,,,,,,,,,,,,,,,,,,
,,,,,,,,,,,,,,1,001,2024-08-26_00h15.17.792,IAT(Formal),2021.2.3,Win32,60.60606061,,,,,,,,,,,,,,,e,1,0.5036,0,3,3,3,1,自己,e,,,,,,,,,,,,,,,,,,,,,,,,,,,,,,,,,,,,,,,,,
,,,,,,,,,,,,,,1,001,2024-08-26_00h15.17.792,IAT(Formal),2021.2.3,Win32,60.60606061,,,,,,,,,,,,,,,i,1,0.6194,0,4,4,66,1,他们,i,,,,,,,,,,,,,,,,,,,,,,,,,,,,,,,,,,,,,,,,,
,,,,,,,,,,,,,,1,001,2024-08-26_00h15.17.792,IAT(Formal),2021.2.3,Win32,60.60606061,,,,,,,,,,,,,,,i,0,0.5073,0,5,5,27,1,热情,e,,,,,,,,,,,,,,,,,,,,,,,,,,,,,,,,,,,,,,,,,
,,,,,,,,,,,,,,1,001,2024-08-26_00h15.17.792,IAT(Formal),2021.2.3,Win32,60.60606061,,,,,,,,,,,,,,,e,1,0.8763,0,6,6,17,1,勇敢,e,,,,,,,,,,,,,,,,,,,,,,,,,,,,,,,,,,,,,,,,,
,,,,,,,,,,,,,,1,001,2024-08-26_00h15.17.792,IAT(Formal),2021.2.3,Win32,60.60606061,,,,,,,,,,,,,,,e,1,0.6055,0,7,7,0,1,我,e,,,,,,,,,,,,,,,,,,,,,,,,,,,,,,,,,,,,,,,,,
,,,,,,,,,,,,,,1,001,2024-08-26_00h15.17.792,IAT(Formal),2021.2.3,Win32,60.60606061,,,,,,,,,,,,,,,e,1,0.53,0,8,8,2,1,我们,e,,,,,,,,,,,,,,,,,,,,,,,,,,,,,,,,,,,,,,,,,
,,,,,,,,,,,,,,1,001,2024-08-26_00h15.17.792,IAT(Formal),2021.2.3,Win32,60.60606061,,,,,,,,,,,,,,,i,1,1.2737,0,9,9,41,1,散漫,i,,,,,,,,,,,,,,,,,,,,,,,,,,,,,,,,,,,,,,,,,
,,,,,,,,,,,,,,1,001,2024-08-26_00h15.17.792,IAT(Formal),2021.2.3,Win32,60.60606061,,,,,,,,,,,,,,,i,1,0.6838,0,10,10,5,1,他,i,,,,,,,,,,,,,,,,,,,,,,,,,,,,,,,,,,,,,,,,,
,,,,,,,,,,,,,,1,001,2024-08-26_00h15.17.792,IAT(Formal),2021.2.3,Win32,60.60606061,,,,,,,,,,,,,,,i,1,0.7301,0,11,11,32,1,愚蠢,i,,,,,,,,,,,,,,,,,,,,,,,,,,,,,,,,,,,,,,,,,
,,,,,,,,,,,,,,1,001,2024-08-26_00h15.17.792,IAT(Formal),2021.2.3,Win32,60.60606061,,,,,,,,,,,,,,,e,1,1.2319,0,12,12,26,1,冷静,e,,,,,,,,,,,,,,,,,,,,,,,,,,,,,,,,,,,,,,,,,
,,,,,,,,,,,,,,1,001,2024-08-26_00h15.17.792,IAT(Formal),2021.2.3,Win32,60.60606061,,,,,,,,,,,,,,,i,1,0.6241,0,13,13,49,1,下贱,i,,,,,,,,,,,,,,,,,,,,,,,,,,,,,,,,,,,,,,,,,
,,,,,,,,,,,,,,1,001,2024-08-26_00h15.17.792,IAT(Formal),2021.2.3,Win32,60.60606061,,,,,,,,,,,,,,,i,1,0.782,0,14,14,78,1,他人,i,,,,,,,,,,,,,,,,,,,,,,,,,,,,,,,,,,,,,,,,,
,,,,,,,,,,,,,,1,001,2024-08-26_00h15.17.792,IAT(Formal),2021.2.3,Win32,60.60606061,,,,,,,,,,,,,,,e,1,0.9755,0,15,15,19,1,机智,e,,,,,,,,,,,,,,,,,,,,,,,,,,,,,,,,,,,,,,,,,
,,,,,,,,,,,,,,1,001,2024-08-26_00h15.17.792,IAT(Formal),2021.2.3,Win32,60.60606061,,,,,,,,,,,,,,,e,1,0.5874,0,16,16,10,1,优秀,e,,,,,,,,,,,,,,,,,,,,,,,,,,,,,,,,,,,,,,,,,
,,,,,,,,,,,,,,1,001,2024-08-26_00h15.17.792,IAT(Formal),2021.2.3,Win32,60.60606061,,,,,,,,,,,,,,,i,1,0.6843,0,17,17,7,1,他的,i,,,,,,,,,,,,,,,,,,,,,,,,,,,,,,,,,,,,,,,,,
,,,,,,,,,,,,,,1,001,2024-08-26_00h15.17.792,IAT(Formal),2021.2.3,Win32,60.60606061,,,,,,,,,,,,,,,i,1,0.5326,0,18,18,68,1,他人,i,,,,,,,,,,,,,,,,,,,,,,,,,,,,,,,,,,,,,,,,,
,,,,,,,,,,,,,,1,001,2024-08-26_00h15.17.792,IAT(Formal),2021.2.3,Win32,60.60606061,,,,,,,,,,,,,,,e,1,0.8189,0,19,19,29,1,诚恳,e,,,,,,,,,,,,,,,,,,,,,,,,,,,,,,,,,,,,,,,,,
,,,,,,,,,,,,,,1,001,2024-08-26_00h15.17.792,IAT(Formal),2021.2.3,Win32,60.60606061,,,,,,,,,,,,,,,e,1,0.4772,0,20,20,61,1,我的,e,,,,,,,,,,,,,,,,,,,,,,,,,,,,,,,,,,,,,,,,,
,,,,,,,,,,,,,,1,001,2024-08-26_00h15.17.792,IAT(Formal),2021.2.3,Win32,60.60606061,,,,,,,,,,,,,,,e,1,0.6419,0,21,21,12,1,聪明,e,,,,,,,,,,,,,,,,,,,,,,,,,,,,,,,,,,,,,,,,,
,,,,,,,,,,,,,,1,001,2024-08-26_00h15.17.792,IAT(Formal),2021.2.3,Win32,60.60606061,,,,,,,,,,,,,,,e,1,0.5502,0,22,22,72,1,我们,e,,,,,,,,,,,,,,,,,,,,,,,,,,,,,,,,,,,,,,,,,
,,,,,,,,,,,,,,1,001,2024-08-26_00h15.17.792,IAT(Formal),2021.2.3,Win32,60.60606061,,,,,,,,,,,,,,,i,1,0.9229,0,23,23,48,1,轻率,i,,,,,,,,,,,,,,,,,,,,,,,,,,,,,,,,,,,,,,,,,
,,,,,,,,,,,,,,1,001,2024-08-26_00h15.17.792,IAT(Formal),2021.2.3,Win32,60.60606061,,,,,,,,,,,,,,,i,1,0.5383,0,24,24,56,1,他们,i,,,,,,,,,,,,,,,,,,,,,,,,,,,,,,,,,,,,,,,,,
,,,,,,,,,,,,,,1,001,2024-08-26_00h15.17.792,IAT(Formal),2021.2.3,Win32,60.60606061,,,,,,,,,,,,,,,i,1,0.4537,0,25,25,57,1,他的,i,,,,,,,,,,,,,,,,,,,,,,,,,,,,,,,,,,,,,,,,,
,,,,,,,,,,,,,,1,001,2024-08-26_00h15.17.792,IAT(Formal),2021.2.3,Win32,60.60606061,,,,,,,,,,,,,,,e,1,0.7318,0,26,26,16,1,正直,e,,,,,,,,,,,,,,,,,,,,,,,,,,,,,,,,,,,,,,,,,
,,,,,,,,,,,,,,1,001,2024-08-26_00h15.17.792,IAT(Formal),2021.2.3,Win32,60.60606061,,,,,,,,,,,,,,,e,1,0.6959,0,27,27,53,1,自己,e,,,,,,,,,,,,,,,,,,,,,,,,,,,,,,,,,,,,,,,,,
,,,,,,,,,,,,,,1,001,2024-08-26_00h15.17.792,IAT(Formal),2021.2.3,Win32,60.60606061,,,,,,,,,,,,,,,i,1,0.6109,0,28,28,59,1,其他,i,,,,,,,,,,,,,,,,,,,,,,,,,,,,,,,,,,,,,,,,,
,,,,,,,,,,,,,,1,001,2024-08-26_00h15.17.792,IAT(Formal),2021.2.3,Win32,60.60606061,,,,,,,,,,,,,,,e,1,0.6112,0,29,29,74,1,俺,e,,,,,,,,,,,,,,,,,,,,,,,,,,,,,,,,,,,,,,,,,
,,,,,,,,,,,,,,1,001,2024-08-26_00h15.17.792,IAT(Formal),2021.2.3,Win32,60.60606061,,,,,,,,,,,,,,,i,1,0.8,0,30,30,34,1,悲观,i,,,,,,,,,,,,,,,,,,,,,,,,,,,,,,,,,,,,,,,,,
,,,,,,,,,,,,,,1,001,2024-08-26_00h15.17.792,IAT(Formal),2021.2.3,Win32,60.60606061,,,,,,,,,,,,,,,e,1,0.7441,0,31,31,51,1,我的,e,,,,,,,,,,,,,,,,,,,,,,,,,,,,,,,,,,,,,,,,,
,,,,,,,,,,,,,,1,001,2024-08-26_00h15.17.792,IAT(Formal),2021.2.3,Win32,60.60606061,,,,,,,,,,,,,,,i,1,0.5673,0,32,32,77,1,他的,i,,,,,,,,,,,,,,,,,,,,,,,,,,,,,,,,,,,,,,,,,
,,,,,,,,,,,,,,1,001,2024-08-26_00h15.17.792,IAT(Formal),2021.2.3,Win32,60.60606061,,,,,,,,,,,,,,,e,1,0.4853,0,33,33,50,1,我,e,,,,,,,,,,,,,,,,,,,,,,,,,,,,,,,,,,,,,,,,,
,,,,,,,,,,,,,,1,001,2024-08-26_00h15.17.792,IAT(Formal),2021.2.3,Win32,60.60606061,,,,,,,,,,,,,,,i,1,0.3919,0,34,34,55,1,他,i,,,,,,,,,,,,,,,,,,,,,,,,,,,,,,,,,,,,,,,,,
,,,,,,,,,,,,,,1,001,2024-08-26_00h15.17.792,IAT(Formal),2021.2.3,Win32,60.60606061,,,,,,,,,,,,,,,i,1,1.0323,0,35,35,39,1,冒失,i,,,,,,,,,,,,,,,,,,,,,,,,,,,,,,,,,,,,,,,,,
,,,,,,,,,,,,,,1,001,2024-08-26_00h15.17.792,IAT(Formal),2021.2.3,Win32,60.60606061,,,,,,,,,,,,,,,i,1,0.8638,0,36,36,8,1,他人,i,,,,,,,,,,,,,,,,,,,,,,,,,,,,,,,,,,,,,,,,,
,,,,,,,,,,,,,,1,001,2024-08-26_00h15.17.792,IAT(Formal),2021.2.3,Win32,60.60606061,,,,,,,,,,,,,,,i,1,0.8578,0,37,37,31,1,虚伪,i,,,,,,,,,,,,,,,,,,,,,,,,,,,,,,,,,,,,,,,,,
,,,,,,,,,,,,,,1,001,2024-08-26_00h15.17.792,IAT(Formal),2021.2.3,Win32,60.60606061,,,,,,,,,,,,,,,e,1,0.5034,0,38,38,60,1,我,e,,,,,,,,,,,,,,,,,,,,,,,,,,,,,,,,,,,,,,,,,
,,,,,,,,,,,,,,1,001,2024-08-26_00h15.17.792,IAT(Formal),2021.2.3,Win32,60.60606061,,,,,,,,,,,,,,,i,1,0.951,0,39,39,36,1,自卑,i,,,,,,,,,,,,,,,,,,,,,,,,,,,,,,,,,,,,,,,,,
,,,,,,,,,,,,,,1,001,2024-08-26_00h15.17.792,IAT(Formal),2021.2.3,Win32,60.60606061,,,,,,,,,,,,,,,i,0,0.5816,0,40,40,22,1,无私,e,,,,,,,,,,,,,,,,,,,,,,,,,,,,,,,,,,,,,,,,,
,,,,,,,,,,,,,,1,001,2024-08-26_00h15.17.792,IAT(Formal),2021.2.3,Win32,60.60606061,,,,,,,,,,,,,,,e,1,0.7329,0,41,41,24,1,朴实,e,,,,,,,,,,,,,,,,,,,,,,,,,,,,,,,,,,,,,,,,,
,,,,,,,,,,,,,,1,001,2024-08-26_00h15.17.792,IAT(Formal),2021.2.3,Win32,60.60606061,,,,,,,,,,,,,,,e,1,1.0042,0,42,42,25,1,细腻,e,,,,,,,,,,,,,,,,,,,,,,,,,,,,,,,,,,,,,,,,,
,,,,,,,,,,,,,,1,001,2024-08-26_00h15.17.792,IAT(Formal),2021.2.3,Win32,60.60606061,,,,,,,,,,,,,,,i,1,0.5661,0,43,43,58,1,他人,i,,,,,,,,,,,,,,,,,,,,,,,,,,,,,,,,,,,,,,,,,
,,,,,,,,,,,,,,1,001,2024-08-26_00h15.17.792,IAT(Formal),2021.2.3,Win32,60.60606061,,,,,,,,,,,,,,,e,1,0.7831,0,44,44,14,1,乐观,e,,,,,,,,,,,,,,,,,,,,,,,,,,,,,,,,,,,,,,,,,
,,,,,,,,,,,,,,1,001,2024-08-26_00h15.17.792,IAT(Formal),2021.2.3,Win32,60.60606061,,,,,,,,,,,,,,,i,1,0.8025,0,45,45,37,1,傲慢,i,,,,,,,,,,,,,,,,,,,,,,,,,,,,,,,,,,,,,,,,,
,,,,,,,,,,,,,,1,001,2024-08-26_00h15.17.792,IAT(Formal),2021.2.3,Win32,60.60606061,,,,,,,,,,,,,,,i,1,0.9263,0,46,46,42,1,凶狠,i,,,,,,,,,,,,,,,,,,,,,,,,,,,,,,,,,,,,,,,,,
,,,,,,,,,,,,,,1,001,2024-08-26_00h15.17.792,IAT(Formal),2021.2.3,Win32,60.60606061,,,,,,,,,,,,,,,i,1,0.6722,0,47,47,47,1,固执,i,,,,,,,,,,,,,,,,,,,,,,,,,,,,,,,,,,,,,,,,,
,,,,,,,,,,,,,,1,001,2024-08-26_00h15.17.792,IAT(Formal),2021.2.3,Win32,60.60606061,,,,,,,,,,,,,,,i,1,1.2911,0,48,48,43,1,自私,i,,,,,,,,,,,,,,,,,,,,,,,,,,,,,,,,,,,,,,,,,
,,,,,,,,,,,,,,1,001,2024-08-26_00h15.17.792,IAT(Formal),2021.2.3,Win32,60.60606061,,,,,,,,,,,,,,,i,1,0.6992,0,49,49,79,1,其他,i,,,,,,,,,,,,,,,,,,,,,,,,,,,,,,,,,,,,,,,,,
,,,,,,,,,,,,,,1,001,2024-08-26_00h15.17.792,IAT(Formal),2021.2.3,Win32,60.60606061,,,,,,,,,,,,,,,e,1,0.5564,0,50,50,70,1,我,e,,,,,,,,,,,,,,,,,,,,,,,,,,,,,,,,,,,,,,,,,
,,,,,,,,,,,,,,1,001,2024-08-26_00h15.17.792,IAT(Formal),2021.2.3,Win32,60.60606061,,,,,,,,,,,,,,,e,1,0.8648,0,51,51,28,1,活泼,e,,,,,,,,,,,,,,,,,,,,,,,,,,,,,,,,,,,,,,,,,
,,,,,,,,,,,,,,1,001,2024-08-26_00h15.17.792,IAT(Formal),2021.2.3,Win32,60.60606061,,,,,,,,,,,,,,,e,1,0.6483,0,52,52,15,1,诚实,e,,,,,,,,,,,,,,,,,,,,,,,,,,,,,,,,,,,,,,,,,
,,,,,,,,,,,,,,1,001,2024-08-26_00h15.17.792,IAT(Formal),2021.2.3,Win32,60.60606061,,,,,,,,,,,,,,,e,1,0.7983,0,53,53,62,1,我们,e,,,,,,,,,,,,,,,,,,,,,,,,,,,,,,,,,,,,,,,,,
,,,,,,,,,,,,,,1,001,2024-08-26_00h15.17.792,IAT(Formal),2021.2.3,Win32,60.60606061,,,,,,,,,,,,,,,i,1,0.6415,0,54,54,6,1,他们,i,,,,,,,,,,,,,,,,,,,,,,,,,,,,,,,,,,,,,,,,,
,,,,,,,,,,,,,,1,001,2024-08-26_00h15.17.792,IAT(Formal),2021.2.3,Win32,60.60606061,,,,,,,,,,,,,,,e,1,0.8149,0,55,55,23,1,公正,e,,,,,,,,,,,,,,,,,,,,,,,,,,,,,,,,,,,,,,,,,
,,,,,,,,,,,,,,1,001,2024-08-26_00h15.17.792,IAT(Formal),2021.2.3,Win32,60.60606061,,,,,,,,,,,,,,,e,1,0.5487,0,56,56,54,1,俺,e,,,,,,,,,,,,,,,,,,,,,,,,,,,,,,,,,,,,,,,,,
,,,,,,,,,,,,,,1,001,2024-08-26_00h15.17.792,IAT(Formal),2021.2.3,Win32,60.60606061,,,,,,,,,,,,,,,i,1,0.5327,0,57,57,75,1,他,i,,,,,,,,,,,,,,,,,,,,,,,,,,,,,,,,,,,,,,,,,
,,,,,,,,,,,,,,1,001,2024-08-26_00h15.17.792,IAT(Formal),2021.2.3,Win32,60.60606061,,,,,,,,,,,,,,,e,1,0.6382,0,58,58,71,1,我的,e,,,,,,,,,,,,,,,,,,,,,,,,,,,,,,,,,,,,,,,,,
,,,,,,,,,,,,,,1,001,2024-08-26_00h15.17.792,IAT(Formal),2021.2.3,Win32,60.60606061,,,,,,,,,,,,,,,e,1,0.5844,0,59,59,4,1,俺,e,,,,,,,,,,,,,,,,,,,,,,,,,,,,,,,,,,,,,,,,,
,,,,,,,,,,,,,,1,001,2024-08-26_00h15.17.792,IAT(Formal),2021.2.3,Win32,60.60606061,,,,,,,,,,,,,,,e,1,0.651,0,60,60,1,1,我的,e,,,,,,,,,,,,,,,,,,,,,,,,,,,,,,,,,,,,,,,,,
,,,,,,,,,,,,,,1,001,2024-08-26_00h15.17.792,IAT(Formal),2021.2.3,Win32,60.60606061,,,,,,,,,,,,,,,i,1,0.577,0,61,61,9,1,其他,i,,,,,,,,,,,,,,,,,,,,,,,,,,,,,,,,,,,,,,,,,
,,,,,,,,,,,,,,1,001,2024-08-26_00h15.17.792,IAT(Formal),2021.2.3,Win32,60.60606061,,,,,,,,,,,,,,,i,1,0.6823,0,62,62,30,1,卑鄙,i,,,,,,,,,,,,,,,,,,,,,,,,,,,,,,,,,,,,,,,,,
,,,,,,,,,,,,,,1,001,2024-08-26_00h15.17.792,IAT(Formal),2021.2.3,Win32,60.60606061,,,,,,,,,,,,,,,i,1,0.568,0,63,63,69,1,其他,i,,,,,,,,,,,,,,,,,,,,,,,,,,,,,,,,,,,,,,,,,
,,,,,,,,,,,,,,1,001,2024-08-26_00h15.17.792,IAT(Formal),2021.2.3,Win32,60.60606061,,,,,,,,,,,,,,,i,1,0.6108,0,64,64,44,1,暴躁,i,,,,,,,,,,,,,,,,,,,,,,,,,,,,,,,,,,,,,,,,,
,,,,,,,,,,,,,,1,001,2024-08-26_00h15.17.792,IAT(Formal),2021.2.3,Win32,60.60606061,,,,,,,,,,,,,,,e,1,0.85,0,65,65,11,1,崇高,e,,,,,,,,,,,,,,,,,,,,,,,,,,,,,,,,,,,,,,,,,
,,,,,,,,,,,,,,1,001,2024-08-26_00h15.17.792,IAT(Formal),2021.2.3,Win32,60.60606061,,,,,,,,,,,,,,,i,1,0.6154,0,66,66,45,1,猖狂,i,,,,,,,,,,,,,,,,,,,,,,,,,,,,,,,,,,,,,,,,,
,,,,,,,,,,,,,,1,001,2024-08-26_00h15.17.792,IAT(Formal),2021.2.3,Win32,60.60606061,,,,,,,,,,,,,,,e,1,0.625,0,67,67,20,1,认真,e,,,,,,,,,,,,,,,,,,,,,,,,,,,,,,,,,,,,,,,,,
,,,,,,,,,,,,,,1,001,2024-08-26_00h15.17.792,IAT(Formal),2021.2.3,Win32,60.60606061,,,,,,,,,,,,,,,i,1,0.6496,0,68,68,65,1,他,i,,,,,,,,,,,,,,,,,,,,,,,,,,,,,,,,,,,,,,,,,
,,,,,,,,,,,,,,1,001,2024-08-26_00h15.17.792,IAT(Formal),2021.2.3,Win32,60.60606061,,,,,,,,,,,,,,,e,1,0.7263,0,69,69,13,1,杰出,e,,,,,,,,,,,,,,,,,,,,,,,,,,,,,,,,,,,,,,,,,
,,,,,,,,,,,,,,1,001,2024-08-26_00h15.17.792,IAT(Formal),2021.2.3,Win32,60.60606061,,,,,,,,,,,,,,,i,1,0.6499,0,70,70,40,1,执拗,i,,,,,,,,,,,,,,,,,,,,,,,,,,,,,,,,,,,,,,,,,
,,,,,,,,,,,,,,1,001,2024-08-26_00h15.17.792,IAT(Formal),2021.2.3,Win32,60.60606061,,,,,,,,,,,,,,,i,1,0.6335,0,71,71,33,1,刻薄,i,,,,,,,,,,,,,,,,,,,,,,,,,,,,,,,,,,,,,,,,,
,,,,,,,,,,,,,,1,001,2024-08-26_00h15.17.792,IAT(Formal),2021.2.3,Win32,60.60606061,,,,,,,,,,,,,,,i,1,0.6654,0,72,72,35,1,消极,i,,,,,,,,,,,,,,,,,,,,,,,,,,,,,,,,,,,,,,,,,
,,,,,,,,,,,,,,1,001,2024-08-26_00h15.17.792,IAT(Formal),2021.2.3,Win32,60.60606061,,,,,,,,,,,,,,,i,1,0.6561,0,73,73,67,1,他的,i,,,,,,,,,,,,,,,,,,,,,,,,,,,,,,,,,,,,,,,,,
,,,,,,,,,,,,,,1,001,2024-08-26_00h15.17.792,IAT(Formal),2021.2.3,Win32,60.60606061,,,,,,,,,,,,,,,e,1,0.5985,0,74,74,18,1,勤奋,e,,,,,,,,,,,,,,,,,,,,,,,,,,,,,,,,,,,,,,,,,
,,,,,,,,,,,,,,1,001,2024-08-26_00h15.17.792,IAT(Formal),2021.2.3,Win32,60.60606061,,,,,,,,,,,,,,,i,1,0.6193,0,75,75,46,1,野蛮,i,,,,,,,,,,,,,,,,,,,,,,,,,,,,,,,,,,,,,,,,,
,,,,,,,,,,,,,,1,001,2024-08-26_00h15.17.792,IAT(Formal),2021.2.3,Win32,60.60606061,,,,,,,,,,,,,,,i,1,0.7498,0,76,76,76,1,他们,i,,,,,,,,,,,,,,,,,,,,,,,,,,,,,,,,,,,,,,,,,
,,,,,,,,,,,,,,1,001,2024-08-26_00h15.17.792,IAT(Formal),2021.2.3,Win32,60.60606061,,,,,,,,,,,,,,,i,1,0.7382,0,77,77,38,1,鲁莽,i,,,,,,,,,,,,,,,,,,,,,,,,,,,,,,,,,,,,,,,,,
,,,,,,,,,,,,,,1,001,2024-08-26_00h15.17.792,IAT(Formal),2021.2.3,Win32,60.60606061,,,,,,,,,,,,,,,e,1,0.856,0,78,78,21,1,稳重,e,,,,,,,,,,,,,,,,,,,,,,,,,,,,,,,,,,,,,,,,,
,,,,,,,,,,,,,,1,001,2024-08-26_00h15.17.792,IAT(Formal),2021.2.3,Win32,60.60606061,,,,,,,,,,,,,,,e,1,0.6828,0,79,79,73,1,自己,e,,,,,,,,,,,,,,,,,,,,,,,,,,,,,,,,,,,,,,,,,
,,,,,,,,,,,,,,1,001,2024-08-26_00h15.17.792,IAT(Formal),2021.2.3,Win32,60.60606061,,,,,,,,,,,,,,,e,1,0.8525,,,,,,杰出,e,space,7.9113,0,0,0,13,1,,,,,,,,,,,,,,,,,,,,,,,,,,,,,,,,,,
,,,,,,,,,,,,,,1,001,2024-08-26_00h15.17.792,IAT(Formal),2021.2.3,Win32,60.60606061,,,,,,,,,,,,,,,e,1,0.9012,,,,,,崇高,e,,,0,1,1,11,1,,,,,,,,,,,,,,,,,,,,,,,,,,,,,,,,,,
,,,,,,,,,,,,,,1,001,2024-08-26_00h15.17.792,IAT(Formal),2021.2.3,Win32,60.60606061,,,,,,,,,,,,,,,i,1,0.7059,,,,,,轻率,i,,,0,2,2,48,1,,,,,,,,,,,,,,,,,,,,,,,,,,,,,,,,,,
,,,,,,,,,,,,,,1,001,2024-08-26_00h15.17.792,IAT(Formal),2021.2.3,Win32,60.60606061,,,,,,,,,,,,,,,e,1,0.6145,,,,,,俺,e,,,0,3,3,64,1,,,,,,,,,,,,,,,,,,,,,,,,,,,,,,,,,,
,,,,,,,,,,,,,,1,001,2024-08-26_00h15.17.792,IAT(Formal),2021.2.3,Win32,60.60606061,,,,,,,,,,,,,,,i,1,0.7069,,,,,,他们,i,,,0,4,4,6,1,,,,,,,,,,,,,,,,,,,,,,,,,,,,,,,,,,
,,,,,,,,,,,,,,1,001,2024-08-26_00h15.17.792,IAT(Formal),2021.2.3,Win32,60.60606061,,,,,,,,,,,,,,,e,1,0.5955,,,,,,俺,e,,,0,5,5,54,1,,,,,,,,,,,,,,,,,,,,,,,,,,,,,,,,,,
,,,,,,,,,,,,,,1,001,2024-08-26_00h15.17.792,IAT(Formal),2021.2.3,Win32,60.60606061,,,,,,,,,,,,,,,i,1,0.7168,,,,,,猖狂,i,,,0,6,6,45,1,,,,,,,,,,,,,,,,,,,,,,,,,,,,,,,,,,
,,,,,,,,,,,,,,1,001,2024-08-26_00h15.17.792,IAT(Formal),2021.2.3,Win32,60.60606061,,,,,,,,,,,,,,,i,1,0.6849,,,,,,卑鄙,i,,,0,7,7,30,1,,,,,,,,,,,,,,,,,,,,,,,,,,,,,,,,,,
,,,,,,,,,,,,,,1,001,2024-08-26_00h15.17.792,IAT(Formal),2021.2.3,Win32,60.60606061,,,,,,,,,,,,,,,i,1,0.4837,,,,,,暴躁,i,,,0,8,8,44,1,,,,,,,,,,,,,,,,,,,,,,,,,,,,,,,,,,
,,,,,,,,,,,,,,1,001,2024-08-26_00h15.17.792,IAT(Formal),2021.2.3,Win32,60.60606061,,,,,,,,,,,,,,,e,1,0.5335,,,,,,自己,e,,,0,9,9,63,1,,,,,,,,,,,,,,,,,,,,,,,,,,,,,,,,,,
,,,,,,,,,,,,,,1,001,2024-08-26_00h15.17.792,IAT(Formal),2021.2.3,Win32,60.60606061,,,,,,,,,,,,,,,i,1,0.6609,,,,,,消极,i,,,0,10,10,35,1,,,,,,,,,,,,,,,,,,,,,,,,,,,,,,,,,,
,,,,,,,,,,,,,,1,001,2024-08-26_00h15.17.792,IAT(Formal),2021.2.3,Win32,60.60606061,,,,,,,,,,,,,,,e,1,0.5839,,,,,,俺,e,,,0,11,11,4,1,,,,,,,,,,,,,,,,,,,,,,,,,,,,,,,,,,
,,,,,,,,,,,,,,1,001,2024-08-26_00h15.17.792,IAT(Formal),2021.2.3,Win32,60.60606061,,,,,,,,,,,,,,,i,1,0.7176,,,,,,散漫,i,,,0,12,12,41,1,,,,,,,,,,,,,,,,,,,,,,,,,,,,,,,,,,
,,,,,,,,,,,,,,1,001,2024-08-26_00h15.17.792,IAT(Formal),2021.2.3,Win32,60.60606061,,,,,,,,,,,,,,,i,1,0.584,,,,,,傲慢,i,,,0,13,13,37,1,,,,,,,,,,,,,,,,,,,,,,,,,,,,,,,,,,
,,,,,,,,,,,,,,1,001,2024-08-26_00h15.17.792,IAT(Formal),2021.2.3,Win32,60.60606061,,,,,,,,,,,,,,,e,1,0.6239,,,,,,诚实,e,,,0,14,14,15,1,,,,,,,,,,,,,,,,,,,,,,,,,,,,,,,,,,
,,,,,,,,,,,,,,1,001,2024-08-26_00h15.17.792,IAT(Formal),2021.2.3,Win32,60.60606061,,,,,,,,,,,,,,,i,1,0.5408,,,,,,其他,i,,,0,15,15,79,1,,,,,,,,,,,,,,,,,,,,,,,,,,,,,,,,,,
,,,,,,,,,,,,,,1,001,2024-08-26_00h15.17.792,IAT(Formal),2021.2.3,Win32,60.60606061,,,,,,,,,,,,,,,e,1,0.5491,,,,,,自己,e,,,0,16,16,73,1,,,,,,,,,,,,,,,,,,,,,,,,,,,,,,,,,,
,,,,,,,,,,,,,,1,001,2024-08-26_00h15.17.792,IAT(Formal),2021.2.3,Win32,60.60606061,,,,,,,,,,,,,,,e,1,0.6815,,,,,,勤奋,e,,,0,17,17,18,1,,,,,,,,,,,,,,,,,,,,,,,,,,,,,,,,,,
,,,,,,,,,,,,,,1,001,2024-08-26_00h15.17.792,IAT(Formal),2021.2.3,Win32,60.60606061,,,,,,,,,,,,,,,i,1,0.5847,,,,,,其他,i,,,0,18,18,69,1,,,,,,,,,,,,,,,,,,,,,,,,,,,,,,,,,,
,,,,,,,,,,,,,,1,001,2024-08-26_00h15.17.792,IAT(Formal),2021.2.3,Win32,60.60606061,,,,,,,,,,,,,,,i,1,0.5492,,,,,,鲁莽,i,,,0,19,19,38,1,,,,,,,,,,,,,,,,,,,,,,,,,,,,,,,,,,
,,,,,,,,,,,,,,1,001,2024-08-26_00h15.17.792,IAT(Formal),2021.2.3,Win32,60.60606061,,,,,,,,,,,,,,,e,1,0.5851,,,,,,我,e,,,0,20,20,70,1,,,,,,,,,,,,,,,,,,,,,,,,,,,,,,,,,,
,,,,,,,,,,,,,,1,001,2024-08-26_00h15.17.792,IAT(Formal),2021.2.3,Win32,60.60606061,,,,,,,,,,,,,,,i,0,0.3998,,,,,,我们,e,,,0,21,21,62,1,,,,,,,,,,,,,,,,,,,,,,,,,,,,,,,,,,
,,,,,,,,,,,,,,1,001,2024-08-26_00h15.17.792,IAT(Formal),2021.2.3,Win32,60.60606061,,,,,,,,,,,,,,,i,1,0.7341,,,,,,悲观,i,,,0,22,22,34,1,,,,,,,,,,,,,,,,,,,,,,,,,,,,,,,,,,
,,,,,,,,,,,,,,1,001,2024-08-26_00h15.17.792,IAT(Formal),2021.2.3,Win32,60.60606061,,,,,,,,,,,,,,,i,1,0.6506,,,,,,凶狠,i,,,0,23,23,42,1,,,,,,,,,,,,,,,,,,,,,,,,,,,,,,,,,,
,,,,,,,,,,,,,,1,001,2024-08-26_00h15.17.792,IAT(Formal),2021.2.3,Win32,60.60606061,,,,,,,,,,,,,,,e,1,0.7298,,,,,,正直,e,,,0,24,24,16,1,,,,,,,,,,,,,,,,,,,,,,,,,,,,,,,,,,
,,,,,,,,,,,,,,1,001,2024-08-26_00h15.17.792,IAT(Formal),2021.2.3,Win32,60.60606061,,,,,,,,,,,,,,,i,1,0.7817,,,,,,他的,i,,,0,25,25,7,1,,,,,,,,,,,,,,,,,,,,,,,,,,,,,,,,,,
,,,,,,,,,,,,,,1,001,2024-08-26_00h15.17.792,IAT(Formal),2021.2.3,Win32,60.60606061,,,,,,,,,,,,,,,e,1,0.4753,,,,,,我的,e,,,0,26,26,61,1,,,,,,,,,,,,,,,,,,,,,,,,,,,,,,,,,,
,,,,,,,,,,,,,,1,001,2024-08-26_00h15.17.792,IAT(Formal),2021.2.3,Win32,60.60606061,,,,,,,,,,,,,,,e,1,0.8817,,,,,,稳重,e,,,0,27,27,21,1,,,,,,,,,,,,,,,,,,,,,,,,,,,,,,,,,,
,,,,,,,,,,,,,,1,001,2024-08-26_00h15.17.792,IAT(Formal),2021.2.3,Win32,60.60606061,,,,,,,,,,,,,,,i,1,0.6326,,,,,,他,i,,,0,28,28,55,1,,,,,,,,,,,,,,,,,,,,,,,,,,,,,,,,,,
,,,,,,,,,,,,,,1,001,2024-08-26_00h15.17.792,IAT(Formal),2021.2.3,Win32,60.60606061,,,,,,,,,,,,,,,i,1,0.6578,,,,,,下贱,i,,,0,29,29,49,1,,,,,,,,,,,,,,,,,,,,,,,,,,,,,,,,,,
,,,,,,,,,,,,,,1,001,2024-08-26_00h15.17.792,IAT(Formal),2021.2.3,Win32,60.60606061,,,,,,,,,,,,,,,i,1,0.833,,,,,,自私,i,,,0,30,30,43,1,,,,,,,,,,,,,,,,,,,,,,,,,,,,,,,,,,
,,,,,,,,,,,,,,1,001,2024-08-26_00h15.17.792,IAT(Formal),2021.2.3,Win32,60.60606061,,,,,,,,,,,,,,,e,1,0.6668,,,,,,勇敢,e,,,0,31,31,17,1,,,,,,,,,,,,,,,,,,,,,,,,,,,,,,,,,,
,,,,,,,,,,,,,,1,001,2024-08-26_00h15.17.792,IAT(Formal),2021.2.3,Win32,60.60606061,,,,,,,,,,,,,,,i,1,0.8826,,,,,,刻薄,i,,,0,32,32,33,1,,,,,,,,,,,,,,,,,,,,,,,,,,,,,,,,,,
,,,,,,,,,,,,,,1,001,2024-08-26_00h15.17.792,IAT(Formal),2021.2.3,Win32,60.60606061,,,,,,,,,,,,,,,i,1,0.5565,,,,,,执拗,i,,,0,33,33,40,1,,,,,,,,,,,,,,,,,,,,,,,,,,,,,,,,,,
,,,,,,,,,,,,,,1,001,2024-08-26_00h15.17.792,IAT(Formal),2021.2.3,Win32,60.60606061,,,,,,,,,,,,,,,i,1,0.6369,,,,,,他人,i,,,0,34,34,68,1,,,,,,,,,,,,,,,,,,,,,,,,,,,,,,,,,,
,,,,,,,,,,,,,,1,001,2024-08-26_00h15.17.792,IAT(Formal),2021.2.3,Win32,60.60606061,,,,,,,,,,,,,,,e,1,0.7768,,,,,,认真,e,,,0,35,35,20,1,,,,,,,,,,,,,,,,,,,,,,,,,,,,,,,,,,
,,,,,,,,,,,,,,1,001,2024-08-26_00h15.17.792,IAT(Formal),2021.2.3,Win32,60.60606061,,,,,,,,,,,,,,,e,1,0.6668,,,,,,优秀,e,,,0,36,36,10,1,,,,,,,,,,,,,,,,,,,,,,,,,,,,,,,,,,
,,,,,,,,,,,,,,1,001,2024-08-26_00h15.17.792,IAT(Formal),2021.2.3,Win32,60.60606061,,,,,,,,,,,,,,,e,1,0.6347,,,,,,热情,e,,,0,37,37,27,1,,,,,,,,,,,,,,,,,,,,,,,,,,,,,,,,,,
,,,,,,,,,,,,,,1,001,2024-08-26_00h15.17.792,IAT(Formal),2021.2.3,Win32,60.60606061,,,,,,,,,,,,,,,i,1,0.7082,,,,,,他,i,,,0,38,38,65,1,,,,,,,,,,,,,,,,,,,,,,,,,,,,,,,,,,
,,,,,,,,,,,,,,1,001,2024-08-26_00h15.17.792,IAT(Formal),2021.2.3,Win32,60.60606061,,,,,,,,,,,,,,,e,1,0.6528,,,,,,公正,e,,,0,39,39,23,1,,,,,,,,,,,,,,,,,,,,,,,,,,,,,,,,,,
,,,,,,,,,,,,,,1,001,2024-08-26_00h15.17.792,IAT(Formal),2021.2.3,Win32,60.60606061,,,,,,,,,,,,,,,i,1,0.7203,,,,,,虚伪,i,,,0,40,40,31,1,,,,,,,,,,,,,,,,,,,,,,,,,,,,,,,,,,
,,,,,,,,,,,,,,1,001,2024-08-26_00h15.17.792,IAT(Formal),2021.2.3,Win32,60.60606061,,,,,,,,,,,,,,,e,1,0.8871,,,,,,朴实,e,,,0,41,41,24,1,,,,,,,,,,,,,,,,,,,,,,,,,,,,,,,,,,
,,,,,,,,,,,,,,1,001,2024-08-26_00h15.17.792,IAT(Formal),2021.2.3,Win32,60.60606061,,,,,,,,,,,,,,,i,1,0.6026,,,,,,其他,i,,,0,42,42,9,1,,,,,,,,,,,,,,,,,,,,,,,,,,,,,,,,,,
,,,,,,,,,,,,,,1,001,2024-08-26_00h15.17.792,IAT(Formal),2021.2.3,Win32,60.60606061,,,,,,,,,,,,,,,i,1,0.7592,,,,,,自卑,i,,,0,43,43,36,1,,,,,,,,,,,,,,,,,,,,,,,,,,,,,,,,,,
,,,,,,,,,,,,,,1,001,2024-08-26_00h15.17.792,IAT(Formal),2021.2.3,Win32,60.60606061,,,,,,,,,,,,,,,e,1,0.8974,,,,,,无私,e,,,0,44,44,22,1,,,,,,,,,,,,,,,,,,,,,,,,,,,,,,,,,,
,,,,,,,,,,,,,,1,001,2024-08-26_00h15.17.792,IAT(Formal),2021.2.3,Win32,60.60606061,,,,,,,,,,,,,,,e,1,0.8951,,,,,,我的,e,,,0,45,45,1,1,,,,,,,,,,,,,,,,,,,,,,,,,,,,,,,,,,
,,,,,,,,,,,,,,1,001,2024-08-26_00h15.17.792,IAT(Formal),2021.2.3,Win32,60.60606061,,,,,,,,,,,,,,,i,1,0.7506,,,,,,野蛮,i,,,0,46,46,46,1,,,,,,,,,,,,,,,,,,,,,,,,,,,,,,,,,,
,,,,,,,,,,,,,,1,001,2024-08-26_00h15.17.792,IAT(Formal),2021.2.3,Win32,60.60606061,,,,,,,,,,,,,,,i,1,0.7092,,,,,,他的,i,,,0,47,47,67,1,,,,,,,,,,,,,,,,,,,,,,,,,,,,,,,,,,
,,,,,,,,,,,,,,1,001,2024-08-26_00h15.17.792,IAT(Formal),2021.2.3,Win32,60.60606061,,,,,,,,,,,,,,,e,1,0.61,,,,,,我们,e,,,0,48,48,2,1,,,,,,,,,,,,,,,,,,,,,,,,,,,,,,,,,,
,,,,,,,,,,,,,,1,001,2024-08-26_00h15.17.792,IAT(Formal),2021.2.3,Win32,60.60606061,,,,,,,,,,,,,,,i,1,0.6215,,,,,,他们,i,,,0,49,49,56,1,,,,,,,,,,,,,,,,,,,,,,,,,,,,,,,,,,
,,,,,,,,,,,,,,1,001,2024-08-26_00h15.17.792,IAT(Formal),2021.2.3,Win32,60.60606061,,,,,,,,,,,,,,,e,1,0.8328,,,,,,我,e,,,0,50,50,60,1,,,,,,,,,,,,,,,,,,,,,,,,,,,,,,,,,,
,,,,,,,,,,,,,,1,001,2024-08-26_00h15.17.792,IAT(Formal),2021.2.3,Win32,60.60606061,,,,,,,,,,,,,,,i,1,1.1481,,,,,,愚蠢,i,,,0,51,51,32,1,,,,,,,,,,,,,,,,,,,,,,,,,,,,,,,,,,
,,,,,,,,,,,,,,1,001,2024-08-26_00h15.17.792,IAT(Formal),2021.2.3,Win32,60.60606061,,,,,,,,,,,,,,,e,1,0.6695,,,,,,我的,e,,,0,52,52,51,1,,,,,,,,,,,,,,,,,,,,,,,,,,,,,,,,,,
,,,,,,,,,,,,,,1,001,2024-08-26_00h15.17.792,IAT(Formal),2021.2.3,Win32,60.60606061,,,,,,,,,,,,,,,i,1,0.6843,,,,,,固执,i,,,0,53,53,47,1,,,,,,,,,,,,,,,,,,,,,,,,,,,,,,,,,,
,,,,,,,,,,,,,,1,001,2024-08-26_00h15.17.792,IAT(Formal),2021.2.3,Win32,60.60606061,,,,,,,,,,,,,,,e,1,0.8237,,,,,,机智,e,,,0,54,54,19,1,,,,,,,,,,,,,,,,,,,,,,,,,,,,,,,,,,
,,,,,,,,,,,,,,1,001,2024-08-26_00h15.17.792,IAT(Formal),2021.2.3,Win32,60.60606061,,,,,,,,,,,,,,,i,1,0.7501,,,,,,他的,i,,,0,55,55,77,1,,,,,,,,,,,,,,,,,,,,,,,,,,,,,,,,,,
,,,,,,,,,,,,,,1,001,2024-08-26_00h15.17.792,IAT(Formal),2021.2.3,Win32,60.60606061,,,,,,,,,,,,,,,e,1,0.5244,,,,,,我的,e,,,0,56,56,71,1,,,,,,,,,,,,,,,,,,,,,,,,,,,,,,,,,,
,,,,,,,,,,,,,,1,001,2024-08-26_00h15.17.792,IAT(Formal),2021.2.3,Win32,60.60606061,,,,,,,,,,,,,,,i,1,0.6804,,,,,,他人,i,,,0,57,57,8,1,,,,,,,,,,,,,,,,,,,,,,,,,,,,,,,,,,
,,,,,,,,,,,,,,1,001,2024-08-26_00h15.17.792,IAT(Formal),2021.2.3,Win32,60.60606061,,,,,,,,,,,,,,,e,1,0.5651,,,,,,自己,e,,,0,58,58,53,1,,,,,,,,,,,,,,,,,,,,,,,,,,,,,,,,,,
,,,,,,,,,,,,,,1,001,2024-08-26_00h15.17.792,IAT(Formal),2021.2.3,Win32,60.60606061,,,,,,,,,,,,,,,e,1,0.7568,,,,,,诚恳,e,,,0,59,59,29,1,,,,,,,,,,,,,,,,,,,,,,,,,,,,,,,,,,
,,,,,,,,,,,,,,1,001,2024-08-26_00h15.17.792,IAT(Formal),2021.2.3,Win32,60.60606061,,,,,,,,,,,,,,,e,1,0.5499,,,,,,我们,e,,,0,60,60,72,1,,,,,,,,,,,,,,,,,,,,,,,,,,,,,,,,,,
,,,,,,,,,,,,,,1,001,2024-08-26_00h15.17.792,IAT(Formal),2021.2.3,Win32,60.60606061,,,,,,,,,,,,,,,e,1,0.6676,,,,,,自己,e,,,0,61,61,3,1,,,,,,,,,,,,,,,,,,,,,,,,,,,,,,,,,,
,,,,,,,,,,,,,,1,001,2024-08-26_00h15.17.792,IAT(Formal),2021.2.3,Win32,60.60606061,,,,,,,,,,,,,,,e,1,0.4711,,,,,,我,e,,,0,62,62,0,1,,,,,,,,,,,,,,,,,,,,,,,,,,,,,,,,,,
,,,,,,,,,,,,,,1,001,2024-08-26_00h15.17.792,IAT(Formal),2021.2.3,Win32,60.60606061,,,,,,,,,,,,,,,e,1,0.6415,,,,,,细腻,e,,,0,63,63,25,1,,,,,,,,,,,,,,,,,,,,,,,,,,,,,,,,,,
,,,,,,,,,,,,,,1,001,2024-08-26_00h15.17.792,IAT(Formal),2021.2.3,Win32,60.60606061,,,,,,,,,,,,,,,i,1,0.6833,,,,,,他们,i,,,0,64,64,76,1,,,,,,,,,,,,,,,,,,,,,,,,,,,,,,,,,,
,,,,,,,,,,,,,,1,001,2024-08-26_00h15.17.792,IAT(Formal),2021.2.3,Win32,60.60606061,,,,,,,,,,,,,,,e,1,1.0495,,,,,,乐观,e,,,0,65,65,14,1,,,,,,,,,,,,,,,,,,,,,,,,,,,,,,,,,,
,,,,,,,,,,,,,,1,001,2024-08-26_00h15.17.792,IAT(Formal),2021.2.3,Win32,60.60606061,,,,,,,,,,,,,,,i,1,0.7169,,,,,,冒失,i,,,0,66,66,39,1,,,,,,,,,,,,,,,,,,,,,,,,,,,,,,,,,,
,,,,,,,,,,,,,,1,001,2024-08-26_00h15.17.792,IAT(Formal),2021.2.3,Win32,60.60606061,,,,,,,,,,,,,,,e,1,0.5343,,,,,,活泼,e,,,0,67,67,28,1,,,,,,,,,,,,,,,,,,,,,,,,,,,,,,,,,,
,,,,,,,,,,,,,,1,001,2024-08-26_00h15.17.792,IAT(Formal),2021.2.3,Win32,60.60606061,,,,,,,,,,,,,,,i,1,0.6198,,,,,,他人,i,,,0,68,68,78,1,,,,,,,,,,,,,,,,,,,,,,,,,,,,,,,,,,
,,,,,,,,,,,,,,1,001,2024-08-26_00h15.17.792,IAT(Formal),2021.2.3,Win32,60.60606061,,,,,,,,,,,,,,,e,1,0.899,,,,,,冷静,e,,,0,69,69,26,1,,,,,,,,,,,,,,,,,,,,,,,,,,,,,,,,,,
,,,,,,,,,,,,,,1,001,2024-08-26_00h15.17.792,IAT(Formal),2021.2.3,Win32,60.60606061,,,,,,,,,,,,,,,i,1,0.7502,,,,,,他人,i,,,0,70,70,58,1,,,,,,,,,,,,,,,,,,,,,,,,,,,,,,,,,,
,,,,,,,,,,,,,,1,001,2024-08-26_00h15.17.792,IAT(Formal),2021.2.3,Win32,60.60606061,,,,,,,,,,,,,,,e,1,0.6185,,,,,,俺,e,,,0,71,71,74,1,,,,,,,,,,,,,,,,,,,,,,,,,,,,,,,,,,
,,,,,,,,,,,,,,1,001,2024-08-26_00h15.17.792,IAT(Formal),2021.2.3,Win32,60.60606061,,,,,,,,,,,,,,,e,1,0.6166,,,,,,我们,e,,,0,72,72,52,1,,,,,,,,,,,,,,,,,,,,,,,,,,,,,,,,,,
,,,,,,,,,,,,,,1,001,2024-08-26_00h15.17.792,IAT(Formal),2021.2.3,Win32,60.60606061,,,,,,,,,,,,,,,e,0,0.5264,,,,,,他们,i,,,0,73,73,66,1,,,,,,,,,,,,,,,,,,,,,,,,,,,,,,,,,,
,,,,,,,,,,,,,,1,001,2024-08-26_00h15.17.792,IAT(Formal),2021.2.3,Win32,60.60606061,,,,,,,,,,,,,,,i,1,0.588,,,,,,他的,i,,,0,74,74,57,1,,,,,,,,,,,,,,,,,,,,,,,,,,,,,,,,,,
,,,,,,,,,,,,,,1,001,2024-08-26_00h15.17.792,IAT(Formal),2021.2.3,Win32,60.60606061,,,,,,,,,,,,,,,e,1,0.6546,,,,,,聪明,e,,,0,75,75,12,1,,,,,,,,,,,,,,,,,,,,,,,,,,,,,,,,,,
,,,,,,,,,,,,,,1,001,2024-08-26_00h15.17.792,IAT(Formal),2021.2.3,Win32,60.60606061,,,,,,,,,,,,,,,e,1,0.6039,,,,,,我,e,,,0,76,76,50,1,,,,,,,,,,,,,,,,,,,,,,,,,,,,,,,,,,
,,,,,,,,,,,,,,1,001,2024-08-26_00h15.17.792,IAT(Formal),2021.2.3,Win32,60.60606061,,,,,,,,,,,,,,,i,1,0.6504,,,,,,其他,i,,,0,77,77,59,1,,,,,,,,,,,,,,,,,,,,,,,,,,,,,,,,,,
,,,,,,,,,,,,,,1,001,2024-08-26_00h15.17.792,IAT(Formal),2021.2.3,Win32,60.60606061,,,,,,,,,,,,,,,i,1,0.7526,,,,,,他,i,,,0,78,78,75,1,,,,,,,,,,,,,,,,,,,,,,,,,,,,,,,,,,
,,,,,,,,,,,,,,1,001,2024-08-26_00h15.17.792,IAT(Formal),2021.2.3,Win32,60.60606061,,,,,,,,,,,,,,,i,1,0.736,,,,,,他,i,,,0,79,79,5,1,,,,,,,,,,,,,,,,,,,,,,,,,,,,,,,,,,
,,,,,,,,,,,,,,1,001,2024-08-26_00h15.17.792,IAT(Formal),2021.2.3,Win32,60.60606061,,,,,,,,,,,,,,,e,1,0.6581,,,,,,我的,e,,,1,0,80,61,1,,,,,,,,,,,,,,,,,,,,,,,,,,,,,,,,,,
,,,,,,,,,,,,,,1,001,2024-08-26_00h15.17.792,IAT(Formal),2021.2.3,Win32,60.60606061,,,,,,,,,,,,,,,i,1,0.7158,,,,,,轻率,i,,,1,1,81,48,1,,,,,,,,,,,,,,,,,,,,,,,,,,,,,,,,,,
,,,,,,,,,,,,,,1,001,2024-08-26_00h15.17.792,IAT(Formal),2021.2.3,Win32,60.60606061,,,,,,,,,,,,,,,i,1,0.5725,,,,,,他人,i,,,1,2,82,68,1,,,,,,,,,,,,,,,,,,,,,,,,,,,,,,,,,,
,,,,,,,,,,,,,,1,001,2024-08-26_00h15.17.792,IAT(Formal),2021.2.3,Win32,60.60606061,,,,,,,,,,,,,,,e,1,1.2421,,,,,,乐观,e,,,1,3,83,14,1,,,,,,,,,,,,,,,,,,,,,,,,,,,,,,,,,,
,,,,,,,,,,,,,,1,001,2024-08-26_00h15.17.792,IAT(Formal),2021.2.3,Win32,60.60606061,,,,,,,,,,,,,,,e,1,0.6809,,,,,,俺,e,,,1,4,84,74,1,,,,,,,,,,,,,,,,,,,,,,,,,,,,,,,,,,
,,,,,,,,,,,,,,1,001,2024-08-26_00h15.17.792,IAT(Formal),2021.2.3,Win32,60.60606061,,,,,,,,,,,,,,,e,1,1.0078,,,,,,优秀,e,,,1,5,85,10,1,,,,,,,,,,,,,,,,,,,,,,,,,,,,,,,,,,
,,,,,,,,,,,,,,1,001,2024-08-26_00h15.17.792,IAT(Formal),2021.2.3,Win32,60.60606061,,,,,,,,,,,,,,,i,1,0.5329,,,,,,野蛮,i,,,1,6,86,46,1,,,,,,,,,,,,,,,,,,,,,,,,,,,,,,,,,,
,,,,,,,,,,,,,,1,001,2024-08-26_00h15.17.792,IAT(Formal),2021.2.3,Win32,60.60606061,,,,,,,,,,,,,,,e,1,0.5564,,,,,,我们,e,,,1,7,87,72,1,,,,,,,,,,,,,,,,,,,,,,,,,,,,,,,,,,
,,,,,,,,,,,,,,1,001,2024-08-26_00h15.17.792,IAT(Formal),2021.2.3,Win32,60.60606061,,,,,,,,,,,,,,,e,1,0.6016,,,,,,勇敢,e,,,1,8,88,17,1,,,,,,,,,,,,,,,,,,,,,,,,,,,,,,,,,,
,,,,,,,,,,,,,,1,001,2024-08-26_00h15.17.792,IAT(Formal),2021.2.3,Win32,60.60606061,,,,,,,,,,,,,,,e,1,0.7161,,,,,,公正,e,,,1,9,89,23,1,,,,,,,,,,,,,,,,,,,,,,,,,,,,,,,,,,
,,,,,,,,,,,,,,1,001,2024-08-26_00h15.17.792,IAT(Formal),2021.2.3,Win32,60.60606061,,,,,,,,,,,,,,,e,1,0.6347,,,,,,俺,e,,,1,10,90,64,1,,,,,,,,,,,,,,,,,,,,,,,,,,,,,,,,,,
,,,,,,,,,,,,,,1,001,2024-08-26_00h15.17.792,IAT(Formal),2021.2.3,Win32,60.60606061,,,,,,,,,,,,,,,e,1,0.4579,,,,,,我的,e,,,1,11,91,71,1,,,,,,,,,,,,,,,,,,,,,,,,,,,,,,,,,,
,,,,,,,,,,,,,,1,001,2024-08-26_00h15.17.792,IAT(Formal),2021.2.3,Win32,60.60606061,,,,,,,,,,,,,,,i,1,0.6343,,,,,,他人,i,,,1,12,92,78,1,,,,,,,,,,,,,,,,,,,,,,,,,,,,,,,,,,
,,,,,,,,,,,,,,1,001,2024-08-26_00h15.17.792,IAT(Formal),2021.2.3,Win32,60.60606061,,,,,,,,,,,,,,,e,1,0.5662,,,,,,聪明,e,,,1,13,93,12,1,,,,,,,,,,,,,,,,,,,,,,,,,,,,,,,,,,
,,,,,,,,,,,,,,1,001,2024-08-26_00h15.17.792,IAT(Formal),2021.2.3,Win32,60.60606061,,,,,,,,,,,,,,,e,1,0.7226,,,,,,机智,e,,,1,14,94,19,1,,,,,,,,,,,,,,,,,,,,,,,,,,,,,,,,,,
,,,,,,,,,,,,,,1,001,2024-08-26_00h15.17.792,IAT(Formal),2021.2.3,Win32,60.60606061,,,,,,,,,,,,,,,i,1,0.6888,,,,,,他,i,,,1,15,95,75,1,,,,,,,,,,,,,,,,,,,,,,,,,,,,,,,,,,
,,,,,,,,,,,,,,1,001,2024-08-26_00h15.17.792,IAT(Formal),2021.2.3,Win32,60.60606061,,,,,,,,,,,,,,,e,1,0.6216,,,,,,杰出,e,,,1,16,96,13,1,,,,,,,,,,,,,,,,,,,,,,,,,,,,,,,,,,
,,,,,,,,,,,,,,1,001,2024-08-26_00h15.17.792,IAT(Formal),2021.2.3,Win32,60.60606061,,,,,,,,,,,,,,,i,1,0.5812,,,,,,悲观,i,,,1,17,97,34,1,,,,,,,,,,,,,,,,,,,,,,,,,,,,,,,,,,
,,,,,,,,,,,,,,1,001,2024-08-26_00h15.17.792,IAT(Formal),2021.2.3,Win32,60.60606061,,,,,,,,,,,,,,,i,1,0.5973,,,,,,鲁莽,i,,,1,18,98,38,1,,,,,,,,,,,,,,,,,,,,,,,,,,,,,,,,,,
,,,,,,,,,,,,,,1,001,2024-08-26_00h15.17.792,IAT(Formal),2021.2.3,Win32,60.60606061,,,,,,,,,,,,,,,e,1,0.6422,,,,,,勤奋,e,,,1,19,99,18,1,,,,,,,,,,,,,,,,,,,,,,,,,,,,,,,,,,
,,,,,,,,,,,,,,1,001,2024-08-26_00h15.17.792,IAT(Formal),2021.2.3,Win32,60.60606061,,,,,,,,,,,,,,,e,1,0.5816,,,,,,自己,e,,,1,20,100,73,1,,,,,,,,,,,,,,,,,,,,,,,,,,,,,,,,,,
,,,,,,,,,,,,,,1,001,2024-08-26_00h15.17.792,IAT(Formal),2021.2.3,Win32,60.60606061,,,,,,,,,,,,,,,e,1,0.6313,,,,,,正直,e,,,1,21,101,16,1,,,,,,,,,,,,,,,,,,,,,,,,,,,,,,,,,,
,,,,,,,,,,,,,,1,001,2024-08-26_00h15.17.792,IAT(Formal),2021.2.3,Win32,60.60606061,,,,,,,,,,,,,,,e,0,0.4668,,,,,,他,i,,,1,22,102,65,1,,,,,,,,,,,,,,,,,,,,,,,,,,,,,,,,,,
,,,,,,,,,,,,,,1,001,2024-08-26_00h15.17.792,IAT(Formal),2021.2.3,Win32,60.60606061,,,,,,,,,,,,,,,e,1,0.6145,,,,,,我的,e,,,1,23,103,51,1,,,,,,,,,,,,,,,,,,,,,,,,,,,,,,,,,,
,,,,,,,,,,,,,,1,001,2024-08-26_00h15.17.792,IAT(Formal),2021.2.3,Win32,60.60606061,,,,,,,,,,,,,,,i,1,0.5355,,,,,,散漫,i,,,1,24,104,41,1,,,,,,,,,,,,,,,,,,,,,,,,,,,,,,,,,,
,,,,,,,,,,,,,,1,001,2024-08-26_00h15.17.792,IAT(Formal),2021.2.3,Win32,60.60606061,,,,,,,,,,,,,,,i,1,0.6312,,,,,,愚蠢,i,,,1,25,105,32,1,,,,,,,,,,,,,,,,,,,,,,,,,,,,,,,,,,
,,,,,,,,,,,,,,1,001,2024-08-26_00h15.17.792,IAT(Formal),2021.2.3,Win32,60.60606061,,,,,,,,,,,,,,,i,1,0.5876,,,,,,暴躁,i,,,1,26,106,44,1,,,,,,,,,,,,,,,,,,,,,,,,,,,,,,,,,,
,,,,,,,,,,,,,,1,001,2024-08-26_00h15.17.792,IAT(Formal),2021.2.3,Win32,60.60606061,,,,,,,,,,,,,,,i,1,0.4623,,,,,,虚伪,i,,,1,27,107,31,1,,,,,,,,,,,,,,,,,,,,,,,,,,,,,,,,,,
,,,,,,,,,,,,,,1,001,2024-08-26_00h15.17.792,IAT(Formal),2021.2.3,Win32,60.60606061,,,,,,,,,,,,,,,i,1,0.5998,,,,,,凶狠,i,,,1,28,108,42,1,,,,,,,,,,,,,,,,,,,,,,,,,,,,,,,,,,
,,,,,,,,,,,,,,1,001,2024-08-26_00h15.17.792,IAT(Formal),2021.2.3,Win32,60.60606061,,,,,,,,,,,,,,,e,1,0.7606,,,,,,热情,e,,,1,29,109,27,1,,,,,,,,,,,,,,,,,,,,,,,,,,,,,,,,,,
,,,,,,,,,,,,,,1,001,2024-08-26_00h15.17.792,IAT(Formal),2021.2.3,Win32,60.60606061,,,,,,,,,,,,,,,i,1,0.6359,,,,,,傲慢,i,,,1,30,110,37,1,,,,,,,,,,,,,,,,,,,,,,,,,,,,,,,,,,
,,,,,,,,,,,,,,1,001,2024-08-26_00h15.17.792,IAT(Formal),2021.2.3,Win32,60.60606061,,,,,,,,,,,,,,,e,1,0.6212,,,,,,自己,e,,,1,31,111,63,1,,,,,,,,,,,,,,,,,,,,,,,,,,,,,,,,,,
,,,,,,,,,,,,,,1,001,2024-08-26_00h15.17.792,IAT(Formal),2021.2.3,Win32,60.60606061,,,,,,,,,,,,,,,e,1,0.5475,,,,,,认真,e,,,1,32,112,20,1,,,,,,,,,,,,,,,,,,,,,,,,,,,,,,,,,,
,,,,,,,,,,,,,,1,001,2024-08-26_00h15.17.792,IAT(Formal),2021.2.3,Win32,60.60606061,,,,,,,,,,,,,,,i,1,0.5653,,,,,,其他,i,,,1,33,113,59,1,,,,,,,,,,,,,,,,,,,,,,,,,,,,,,,,,,
,,,,,,,,,,,,,,1,001,2024-08-26_00h15.17.792,IAT(Formal),2021.2.3,Win32,60.60606061,,,,,,,,,,,,,,,i,1,0.688,,,,,,猖狂,i,,,1,34,114,45,1,,,,,,,,,,,,,,,,,,,,,,,,,,,,,,,,,,
,,,,,,,,,,,,,,1,001,2024-08-26_00h15.17.792,IAT(Formal),2021.2.3,Win32,60.60606061,,,,,,,,,,,,,,,e,1,0.6324,,,,,,冷静,e,,,1,35,115,26,1,,,,,,,,,,,,,,,,,,,,,,,,,,,,,,,,,,
,,,,,,,,,,,,,,1,001,2024-08-26_00h15.17.792,IAT(Formal),2021.2.3,Win32,60.60606061,,,,,,,,,,,,,,,i,1,0.6334,,,,,,其他,i,,,1,36,116,9,1,,,,,,,,,,,,,,,,,,,,,,,,,,,,,,,,,,
,,,,,,,,,,,,,,1,001,2024-08-26_00h15.17.792,IAT(Formal),2021.2.3,Win32,60.60606061,,,,,,,,,,,,,,,e,1,0.6425,,,,,,俺,e,,,1,37,117,4,1,,,,,,,,,,,,,,,,,,,,,,,,,,,,,,,,,,
,,,,,,,,,,,,,,1,001,2024-08-26_00h15.17.792,IAT(Formal),2021.2.3,Win32,60.60606061,,,,,,,,,,,,,,,e,1,1.3411,,,,,,无私,e,,,1,38,118,22,1,,,,,,,,,,,,,,,,,,,,,,,,,,,,,,,,,,
,,,,,,,,,,,,,,1,001,2024-08-26_00h15.17.792,IAT(Formal),2021.2.3,Win32,60.60606061,,,,,,,,,,,,,,,e,1,0.5934,,,,,,我的,e,,,1,39,119,1,1,,,,,,,,,,,,,,,,,,,,,,,,,,,,,,,,,,
,,,,,,,,,,,,,,1,001,2024-08-26_00h15.17.792,IAT(Formal),2021.2.3,Win32,60.60606061,,,,,,,,,,,,,,,i,1,0.6675,,,,,,他,i,,,1,40,120,55,1,,,,,,,,,,,,,,,,,,,,,,,,,,,,,,,,,,
,,,,,,,,,,,,,,1,001,2024-08-26_00h15.17.792,IAT(Formal),2021.2.3,Win32,60.60606061,,,,,,,,,,,,,,,e,0,0.6824,,,,,,自卑,i,,,1,41,121,36,1,,,,,,,,,,,,,,,,,,,,,,,,,,,,,,,,,,
,,,,,,,,,,,,,,1,001,2024-08-26_00h15.17.792,IAT(Formal),2021.2.3,Win32,60.60606061,,,,,,,,,,,,,,,,0,,,,,,,冒失,i,,,1,42,122,39,1,,,,,,,,,,,,,,,,,,,,,,,,,,,,,,,,,,
,,,,,,,,,,,,,,1,001,2024-08-26_00h15.17.792,IAT(Formal),2021.2.3,Win32,60.60606061,,,,,,,,,,,,,,,i,1,1.3097,,,,,,他们,i,,,1,43,123,66,1,,,,,,,,,,,,,,,,,,,,,,,,,,,,,,,,,,
,,,,,,,,,,,,,,1,001,2024-08-26_00h15.17.792,IAT(Formal),2021.2.3,Win32,60.60606061,,,,,,,,,,,,,,,i,1,0.6833,,,,,,他人,i,,,1,44,124,8,1,,,,,,,,,,,,,,,,,,,,,,,,,,,,,,,,,,
,,,,,,,,,,,,,,1,001,2024-08-26_00h15.17.792,IAT(Formal),2021.2.3,Win32,60.60606061,,,,,,,,,,,,,,,e,1,0.6004,,,,,,细腻,e,,,1,45,125,25,1,,,,,,,,,,,,,,,,,,,,,,,,,,,,,,,,,,
,,,,,,,,,,,,,,1,001,2024-08-26_00h15.17.792,IAT(Formal),2021.2.3,Win32,60.60606061,,,,,,,,,,,,,,,e,1,0.5576,,,,,,我们,e,,,1,46,126,62,1,,,,,,,,,,,,,,,,,,,,,,,,,,,,,,,,,,
,,,,,,,,,,,,,,1,001,2024-08-26_00h15.17.792,IAT(Formal),2021.2.3,Win32,60.60606061,,,,,,,,,,,,,,,e,1,0.7056,,,,,,稳重,e,,,1,47,127,21,1,,,,,,,,,,,,,,,,,,,,,,,,,,,,,,,,,,
,,,,,,,,,,,,,,1,001,2024-08-26_00h15.17.792,IAT(Formal),2021.2.3,Win32,60.60606061,,,,,,,,,,,,,,,e,1,0.4504,,,,,,我,e,,,1,48,128,0,1,,,,,,,,,,,,,,,,,,,,,,,,,,,,,,,,,,
,,,,,,,,,,,,,,1,001,2024-08-26_00h15.17.792,IAT(Formal),2021.2.3,Win32,60.60606061,,,,,,,,,,,,,,,i,1,0.5317,,,,,,其他,i,,,1,49,129,69,1,,,,,,,,,,,,,,,,,,,,,,,,,,,,,,,,,,
,,,,,,,,,,,,,,1,001,2024-08-26_00h15.17.792,IAT(Formal),2021.2.3,Win32,60.60606061,,,,,,,,,,,,,,,i,1,0.6498,,,,,,他的,i,,,1,50,130,57,1,,,,,,,,,,,,,,,,,,,,,,,,,,,,,,,,,,
,,,,,,,,,,,,,,1,001,2024-08-26_00h15.17.792,IAT(Formal),2021.2.3,Win32,60.60606061,,,,,,,,,,,,,,,e,1,0.6727,,,,,,诚恳,e,,,1,51,131,29,1,,,,,,,,,,,,,,,,,,,,,,,,,,,,,,,,,,
,,,,,,,,,,,,,,1,001,2024-08-26_00h15.17.792,IAT(Formal),2021.2.3,Win32,60.60606061,,,,,,,,,,,,,,,e,1,0.7343,,,,,,我们,e,,,1,52,132,2,1,,,,,,,,,,,,,,,,,,,,,,,,,,,,,,,,,,
,,,,,,,,,,,,,,1,001,2024-08-26_00h15.17.792,IAT(Formal),2021.2.3,Win32,60.60606061,,,,,,,,,,,,,,,i,1,0.5865,,,,,,卑鄙,i,,,1,53,133,30,1,,,,,,,,,,,,,,,,,,,,,,,,,,,,,,,,,,
,,,,,,,,,,,,,,1,001,2024-08-26_00h15.17.792,IAT(Formal),2021.2.3,Win32,60.60606061,,,,,,,,,,,,,,,e,1,0.5277,,,,,,自己,e,,,1,54,134,53,1,,,,,,,,,,,,,,,,,,,,,,,,,,,,,,,,,,
,,,,,,,,,,,,,,1,001,2024-08-26_00h15.17.792,IAT(Formal),2021.2.3,Win32,60.60606061,,,,,,,,,,,,,,,e,1,0.5404,,,,,,我,e,,,1,55,135,70,1,,,,,,,,,,,,,,,,,,,,,,,,,,,,,,,,,,
,,,,,,,,,,,,,,1,001,2024-08-26_00h15.17.792,IAT(Formal),2021.2.3,Win32,60.60606061,,,,,,,,,,,,,,,i,1,0.4984,,,,,,他人,i,,,1,56,136,58,1,,,,,,,,,,,,,,,,,,,,,,,,,,,,,,,,,,
,,,,,,,,,,,,,,1,001,2024-08-26_00h15.17.792,IAT(Formal),2021.2.3,Win32,60.60606061,,,,,,,,,,,,,,,i,1,0.7009,,,,,,刻薄,i,,,1,57,137,33,1,,,,,,,,,,,,,,,,,,,,,,,,,,,,,,,,,,
,,,,,,,,,,,,,,1,001,2024-08-26_00h15.17.792,IAT(Formal),2021.2.3,Win32,60.60606061,,,,,,,,,,,,,,,e,1,0.9831,,,,,,崇高,e,,,1,58,138,11,1,,,,,,,,,,,,,,,,,,,,,,,,,,,,,,,,,,
,,,,,,,,,,,,,,1,001,2024-08-26_00h15.17.792,IAT(Formal),2021.2.3,Win32,60.60606061,,,,,,,,,,,,,,,i,1,0.6462,,,,,,他的,i,,,1,59,139,67,1,,,,,,,,,,,,,,,,,,,,,,,,,,,,,,,,,,
,,,,,,,,,,,,,,1,001,2024-08-26_00h15.17.792,IAT(Formal),2021.2.3,Win32,60.60606061,,,,,,,,,,,,,,,i,1,1.0711,,,,,,消极,i,,,1,60,140,35,1,,,,,,,,,,,,,,,,,,,,,,,,,,,,,,,,,,
,,,,,,,,,,,,,,1,001,2024-08-26_00h15.17.792,IAT(Formal),2021.2.3,Win32,60.60606061,,,,,,,,,,,,,,,i,1,0.6832,,,,,,他,i,,,1,61,141,5,1,,,,,,,,,,,,,,,,,,,,,,,,,,,,,,,,,,
,,,,,,,,,,,,,,1,001,2024-08-26_00h15.17.792,IAT(Formal),2021.2.3,Win32,60.60606061,,,,,,,,,,,,,,,i,1,0.5657,,,,,,下贱,i,,,1,62,142,49,1,,,,,,,,,,,,,,,,,,,,,,,,,,,,,,,,,,
,,,,,,,,,,,,,,1,001,2024-08-26_00h15.17.792,IAT(Formal),2021.2.3,Win32,60.60606061,,,,,,,,,,,,,,,i,1,0.6338,,,,,,他的,i,,,1,63,143,7,1,,,,,,,,,,,,,,,,,,,,,,,,,,,,,,,,,,
,,,,,,,,,,,,,,1,001,2024-08-26_00h15.17.792,IAT(Formal),2021.2.3,Win32,60.60606061,,,,,,,,,,,,,,,,0,,,,,,,我,e,,,1,64,144,60,1,,,,,,,,,,,,,,,,,,,,,,,,,,,,,,,,,,
,,,,,,,,,,,,,,1,001,2024-08-26_00h15.17.792,IAT(Formal),2021.2.3,Win32,60.60606061,,,,,,,,,,,,,,,e,1,1.0989,,,,,,俺,e,,,1,65,145,54,1,,,,,,,,,,,,,,,,,,,,,,,,,,,,,,,,,,
,,,,,,,,,,,,,,1,001,2024-08-26_00h15.17.792,IAT(Formal),2021.2.3,Win32,60.60606061,,,,,,,,,,,,,,,e,1,1.0152,,,,,,诚实,e,,,1,66,146,15,1,,,,,,,,,,,,,,,,,,,,,,,,,,,,,,,,,,
,,,,,,,,,,,,,,1,001,2024-08-26_00h15.17.792,IAT(Formal),2021.2.3,Win32,60.60606061,,,,,,,,,,,,,,,e,1,0.6792,,,,,,我,e,,,1,67,147,50,1,,,,,,,,,,,,,,,,,,,,,,,,,,,,,,,,,,
,,,,,,,,,,,,,,1,001,2024-08-26_00h15.17.792,IAT(Formal),2021.2.3,Win32,60.60606061,,,,,,,,,,,,,,,e,1,0.5675,,,,,,活泼,e,,,1,68,148,28,1,,,,,,,,,,,,,,,,,,,,,,,,,,,,,,,,,,
,,,,,,,,,,,,,,1,001,2024-08-26_00h15.17.792,IAT(Formal),2021.2.3,Win32,60.60606061,,,,,,,,,,,,,,,e,1,0.716,,,,,,朴实,e,,,1,69,149,24,1,,,,,,,,,,,,,,,,,,,,,,,,,,,,,,,,,,
,,,,,,,,,,,,,,1,001,2024-08-26_00h15.17.792,IAT(Formal),2021.2.3,Win32,60.60606061,,,,,,,,,,,,,,,e,0,1.099,,,,,,自私,i,,,1,70,150,43,1,,,,,,,,,,,,,,,,,,,,,,,,,,,,,,,,,,
,,,,,,,,,,,,,,1,001,2024-08-26_00h15.17.792,IAT(Formal),2021.2.3,Win32,60.60606061,,,,,,,,,,,,,,,i,1,0.7324,,,,,,他们,i,,,1,71,151,76,1,,,,,,,,,,,,,,,,,,,,,,,,,,,,,,,,,,
,,,,,,,,,,,,,,1,001,2024-08-26_00h15.17.792,IAT(Formal),2021.2.3,Win32,60.60606061,,,,,,,,,,,,,,,i,1,0.4286,,,,,,他的,i,,,1,72,152,77,1,,,,,,,,,,,,,,,,,,,,,,,,,,,,,,,,,,
,,,,,,,,,,,,,,1,001,2024-08-26_00h15.17.792,IAT(Formal),2021.2.3,Win32,60.60606061,,,,,,,,,,,,,,,i,1,0.6177,,,,,,其他,i,,,1,73,153,79,1,,,,,,,,,,,,,,,,,,,,,,,,,,,,,,,,,,
,,,,,,,,,,,,,,1,001,2024-08-26_00h15.17.792,IAT(Formal),2021.2.3,Win32,60.60606061,,,,,,,,,,,,,,,i,1,0.4871,,,,,,他们,i,,,1,74,154,6,1,,,,,,,,,,,,,,,,,,,,,,,,,,,,,,,,,,
,,,,,,,,,,,,,,1,001,2024-08-26_00h15.17.792,IAT(Formal),2021.2.3,Win32,60.60606061,,,,,,,,,,,,,,,i,1,0.6558,,,,,,执拗,i,,,1,75,155,40,1,,,,,,,,,,,,,,,,,,,,,,,,,,,,,,,,,,
,,,,,,,,,,,,,,1,001,2024-08-26_00h15.17.792,IAT(Formal),2021.2.3,Win32,60.60606061,,,,,,,,,,,,,,,e,1,0.732,,,,,,我们,e,,,1,76,156,52,1,,,,,,,,,,,,,,,,,,,,,,,,,,,,,,,,,,
,,,,,,,,,,,,,,1,001,2024-08-26_00h15.17.792,IAT(Formal),2021.2.3,Win32,60.60606061,,,,,,,,,,,,,,,i,1,0.5758,,,,,,他们,i,,,1,77,157,56,1,,,,,,,,,,,,,,,,,,,,,,,,,,,,,,,,,,
,,,,,,,,,,,,,,1,001,2024-08-26_00h15.17.792,IAT(Formal),2021.2.3,Win32,60.60606061,,,,,,,,,,,,,,,e,1,1.0542,,,,,,自己,e,,,1,78,158,3,1,,,,,,,,,,,,,,,,,,,,,,,,,,,,,,,,,,
,,,,,,,,,,,,,,1,001,2024-08-26_00h15.17.792,IAT(Formal),2021.2.3,Win32,60.60606061,,,,,,,,,,,,,,,i,1,0.5028,,,,,,固执,i,,,1,79,159,47,1,,,,,,,,,,,,,,,,,,,,,,,,,,,,,,,,,,
,,,,,,,,,,,,俺,i,1,001,2024-08-26_00h15.17.792,IAT(Formal),2021.2.3,Win32,60.60606061,,,,,,,,,,,,,,,,,,,,,,,,,,,,,,,,space,24.1463,i,1,0.7324,0,0,0,4,1,,,,,,,,,,,,,,,,,,,,,,,,
,,,,,,,,,,,,他,e,1,001,2024-08-26_00h15.17.792,IAT(Formal),2021.2.3,Win32,60.60606061,,,,,,,,,,,,,,,,,,,,,,,,,,,,,,,,,,e,1,0.7406,0,1,1,5,1,,,,,,,,,,,,,,,,,,,,,,,,
,,,,,,,,,,,,我的,i,1,001,2024-08-26_00h15.17.792,IAT(Formal),2021.2.3,Win32,60.60606061,,,,,,,,,,,,,,,,,,,,,,,,,,,,,,,,,,i,1,0.6507,0,2,2,1,1,,,,,,,,,,,,,,,,,,,,,,,,
,,,,,,,,,,,,他人,e,1,001,2024-08-26_00h15.17.792,IAT(Formal),2021.2.3,Win32,60.60606061,,,,,,,,,,,,,,,,,,,,,,,,,,,,,,,,,,e,1,0.531,0,3,3,8,1,,,,,,,,,,,,,,,,,,,,,,,,
,,,,,,,,,,,,他的,e,1,001,2024-08-26_00h15.17.792,IAT(Formal),2021.2.3,Win32,60.60606061,,,,,,,,,,,,,,,,,,,,,,,,,,,,,,,,,,e,1,1.1766,0,4,4,7,1,,,,,,,,,,,,,,,,,,,,,,,,
,,,,,,,,,,,,他们,e,1,001,2024-08-26_00h15.17.792,IAT(Formal),2021.2.3,Win32,60.60606061,,,,,,,,,,,,,,,,,,,,,,,,,,,,,,,,,,e,1,0.6425,0,5,5,6,1,,,,,,,,,,,,,,,,,,,,,,,,
,,,,,,,,,,,,自己,i,1,001,2024-08-26_00h15.17.792,IAT(Formal),2021.2.3,Win32,60.60606061,,,,,,,,,,,,,,,,,,,,,,,,,,,,,,,,,,i,1,0.6519,0,6,6,3,1,,,,,,,,,,,,,,,,,,,,,,,,
,,,,,,,,,,,,其他,e,1,001,2024-08-26_00h15.17.792,IAT(Formal),2021.2.3,Win32,60.60606061,,,,,,,,,,,,,,,,,,,,,,,,,,,,,,,,,,e,1,1.4095,0,7,7,9,1,,,,,,,,,,,,,,,,,,,,,,,,
,,,,,,,,,,,,我,i,1,001,2024-08-26_00h15.17.792,IAT(Formal),2021.2.3,Win32,60.60606061,,,,,,,,,,,,,,,,,,,,,,,,,,,,,,,,,,i,1,0.974,0,8,8,0,1,,,,,,,,,,,,,,,,,,,,,,,,
,,,,,,,,,,,,我们,i,1,001,2024-08-26_00h15.17.792,IAT(Formal),2021.2.3,Win32,60.60606061,,,,,,,,,,,,,,,,,,,,,,,,,,,,,,,,,,i,1,0.7731,0,9,9,2,1,,,,,,,,,,,,,,,,,,,,,,,,
,,,,,,,,,,,,,,1,001,2024-08-26_00h15.17.792,IAT(Formal),2021.2.3,Win32,60.60606061,,,,,,,,,,,,,,,,,,,,,,,,,,,,,,,,,,,,,,,,,,space,13.0247,i,1,1.3743,0,0,0,32,1,愚蠢,i,,,,,,,,,,,,
,,,,,,,,,,,,,,1,001,2024-08-26_00h15.17.792,IAT(Formal),2021.2.3,Win32,60.60606061,,,,,,,,,,,,,,,,,,,,,,,,,,,,,,,,,,,,,,,,,,,,i,1,0.6189,0,1,1,73,1,自己,i,,,,,,,,,,,,
,,,,,,,,,,,,,,1,001,2024-08-26_00h15.17.792,IAT(Formal),2021.2.3,Win32,60.60606061,,,,,,,,,,,,,,,,,,,,,,,,,,,,,,,,,,,,,,,,,,,,i,1,0.5781,0,2,2,63,1,自己,i,,,,,,,,,,,,
,,,,,,,,,,,,,,1,001,2024-08-26_00h15.17.792,IAT(Formal),2021.2.3,Win32,60.60606061,,,,,,,,,,,,,,,,,,,,,,,,,,,,,,,,,,,,,,,,,,,,i,1,0.6279,0,3,3,52,1,我们,i,,,,,,,,,,,,
,,,,,,,,,,,,,,1,001,2024-08-26_00h15.17.792,IAT(Formal),2021.2.3,Win32,60.60606061,,,,,,,,,,,,,,,,,,,,,,,,,,,,,,,,,,,,,,,,,,,,,0,,0,4,4,29,1,诚恳,e,,,,,,,,,,,,
,,,,,,,,,,,,,,1,001,2024-08-26_00h15.17.792,IAT(Formal),2021.2.3,Win32,60.60606061,,,,,,,,,,,,,,,,,,,,,,,,,,,,,,,,,,,,,,,,,,,,e,1,1.0005,0,5,5,67,1,他的,e,,,,,,,,,,,,
,,,,,,,,,,,,,,1,001,2024-08-26_00h15.17.792,IAT(Formal),2021.2.3,Win32,60.60606061,,,,,,,,,,,,,,,,,,,,,,,,,,,,,,,,,,,,,,,,,,,,e,0,1.0994,0,6,6,45,1,猖狂,i,,,,,,,,,,,,
,,,,,,,,,,,,,,1,001,2024-08-26_00h15.17.792,IAT(Formal),2021.2.3,Win32,60.60606061,,,,,,,,,,,,,,,,,,,,,,,,,,,,,,,,,,,,,,,,,,,,i,1,0.9028,0,7,7,41,1,散漫,i,,,,,,,,,,,,
,,,,,,,,,,,,,,1,001,2024-08-26_00h15.17.792,IAT(Formal),2021.2.3,Win32,60.60606061,,,,,,,,,,,,,,,,,,,,,,,,,,,,,,,,,,,,,,,,,,,,e,1,0.555,0,8,8,57,1,他的,e,,,,,,,,,,,,
,,,,,,,,,,,,,,1,001,2024-08-26_00h15.17.792,IAT(Formal),2021.2.3,Win32,60.60606061,,,,,,,,,,,,,,,,,,,,,,,,,,,,,,,,,,,,,,,,,,,,e,1,0.583,0,9,9,77,1,他的,e,,,,,,,,,,,,
,,,,,,,,,,,,,,1,001,2024-08-26_00h15.17.792,IAT(Formal),2021.2.3,Win32,60.60606061,,,,,,,,,,,,,,,,,,,,,,,,,,,,,,,,,,,,,,,,,,,,e,0,0.467,0,10,10,0,1,我,i,,,,,,,,,,,,
,,,,,,,,,,,,,,1,001,2024-08-26_00h15.17.792,IAT(Formal),2021.2.3,Win32,60.60606061,,,,,,,,,,,,,,,,,,,,,,,,,,,,,,,,,,,,,,,,,,,,e,1,0.4042,0,11,11,55,1,他,e,,,,,,,,,,,,
,,,,,,,,,,,,,,1,001,2024-08-26_00h15.17.792,IAT(Formal),2021.2.3,Win32,60.60606061,,,,,,,,,,,,,,,,,,,,,,,,,,,,,,,,,,,,,,,,,,,,i,0,0.8671,0,12,12,24,1,朴实,e,,,,,,,,,,,,
,,,,,,,,,,,,,,1,001,2024-08-26_00h15.17.792,IAT(Formal),2021.2.3,Win32,60.60606061,,,,,,,,,,,,,,,,,,,,,,,,,,,,,,,,,,,,,,,,,,,,e,1,0.8841,0,13,13,18,1,勤奋,e,,,,,,,,,,,,
,,,,,,,,,,,,,,1,001,2024-08-26_00h15.17.792,IAT(Formal),2021.2.3,Win32,60.60606061,,,,,,,,,,,,,,,,,,,,,,,,,,,,,,,,,,,,,,,,,,,,i,0,1.2005,0,14,14,21,1,稳重,e,,,,,,,,,,,,
,,,,,,,,,,,,,,1,001,2024-08-26_00h15.17.792,IAT(Formal),2021.2.3,Win32,60.60606061,,,,,,,,,,,,,,,,,,,,,,,,,,,,,,,,,,,,,,,,,,,,e,0,0.9908,0,15,15,74,1,俺,i,,,,,,,,,,,,
,,,,,,,,,,,,,,1,001,2024-08-26_00h15.17.792,IAT(Formal),2021.2.3,Win32,60.60606061,,,,,,,,,,,,,,,,,,,,,,,,,,,,,,,,,,,,,,,,,,,,i,1,1.2829,0,16,16,36,1,自卑,i,,,,,,,,,,,,
,,,,,,,,,,,,,,1,001,2024-08-26_00h15.17.792,IAT(Formal),2021.2.3,Win32,60.60606061,,,,,,,,,,,,,,,,,,,,,,,,,,,,,,,,,,,,,,,,,,,,e,1,0.7725,0,17,17,66,1,他们,e,,,,,,,,,,,,
,,,,,,,,,,,,,,1,001,2024-08-26_00h15.17.792,IAT(Formal),2021.2.3,Win32,60.60606061,,,,,,,,,,,,,,,,,,,,,,,,,,,,,,,,,,,,,,,,,,,,i,0,1.0012,0,18,18,14,1,乐观,e,,,,,,,,,,,,
,,,,,,,,,,,,,,1,001,2024-08-26_00h15.17.792,IAT(Formal),2021.2.3,Win32,60.60606061,,,,,,,,,,,,,,,,,,,,,,,,,,,,,,,,,,,,,,,,,,,,i,1,0.8333,0,19,19,60,1,我,i,,,,,,,,,,,,
,,,,,,,,,,,,,,1,001,2024-08-26_00h15.17.792,IAT(Formal),2021.2.3,Win32,60.60606061,,,,,,,,,,,,,,,,,,,,,,,,,,,,,,,,,,,,,,,,,,,,e,1,1.3353,0,20,20,22,1,无私,e,,,,,,,,,,,,
,,,,,,,,,,,,,,1,001,2024-08-26_00h15.17.792,IAT(Formal),2021.2.3,Win32,60.60606061,,,,,,,,,,,,,,,,,,,,,,,,,,,,,,,,,,,,,,,,,,,,e,0,0.5029,0,21,21,40,1,执拗,i,,,,,,,,,,,,
,,,,,,,,,,,,,,1,001,2024-08-26_00h15.17.792,IAT(Formal),2021.2.3,Win32,60.60606061,,,,,,,,,,,,,,,,,,,,,,,,,,,,,,,,,,,,,,,,,,,,i,1,1.0714,0,22,22,64,1,俺,i,,,,,,,,,,,,
,,,,,,,,,,,,,,1,001,2024-08-26_00h15.17.792,IAT(Formal),2021.2.3,Win32,60.60606061,,,,,,,,,,,,,,,,,,,,,,,,,,,,,,,,,,,,,,,,,,,,i,1,1.3338,0,23,23,35,1,消极,i,,,,,,,,,,,,
,,,,,,,,,,,,,,1,001,2024-08-26_00h15.17.792,IAT(Formal),2021.2.3,Win32,60.60606061,,,,,,,,,,,,,,,,,,,,,,,,,,,,,,,,,,,,,,,,,,,,e,0,1.2005,0,24,24,2,1,我们,i,,,,,,,,,,,,
,,,,,,,,,,,,,,1,001,2024-08-26_00h15.17.792,IAT(Formal),2021.2.3,Win32,60.60606061,,,,,,,,,,,,,,,,,,,,,,,,,,,,,,,,,,,,,,,,,,,,i,1,0.7668,0,25,25,54,1,俺,i,,,,,,,,,,,,
,,,,,,,,,,,,,,1,001,2024-08-26_00h15.17.792,IAT(Formal),2021.2.3,Win32,60.60606061,,,,,,,,,,,,,,,,,,,,,,,,,,,,,,,,,,,,,,,,,,,,e,1,1.1298,0,26,26,76,1,他们,e,,,,,,,,,,,,
,,,,,,,,,,,,,,1,001,2024-08-26_00h15.17.792,IAT(Formal),2021.2.3,Win32,60.60606061,,,,,,,,,,,,,,,,,,,,,,,,,,,,,,,,,,,,,,,,,,,,i,1,0.6582,0,27,27,3,1,自己,i,,,,,,,,,,,,
,,,,,,,,,,,,,,1,001,2024-08-26_00h15.17.792,IAT(Formal),2021.2.3,Win32,60.60606061,,,,,,,,,,,,,,,,,,,,,,,,,,,,,,,,,,,,,,,,,,,,e,1,0.9003,0,28,28,68,1,他人,e,,,,,,,,,,,,
,,,,,,,,,,,,,,1,001,2024-08-26_00h15.17.792,IAT(Formal),2021.2.3,Win32,60.60606061,,,,,,,,,,,,,,,,,,,,,,,,,,,,,,,,,,,,,,,,,,,,e,1,0.5836,0,29,29,8,1,他人,e,,,,,,,,,,,,
,,,,,,,,,,,,,,1,001,2024-08-26_00h15.17.792,IAT(Formal),2021.2.3,Win32,60.60606061,,,,,,,,,,,,,,,,,,,,,,,,,,,,,,,,,,,,,,,,,,,,i,1,0.9285,0,30,30,46,1,野蛮,i,,,,,,,,,,,,
,,,,,,,,,,,,,,1,001,2024-08-26_00h15.17.792,IAT(Formal),2021.2.3,Win32,60.60606061,,,,,,,,,,,,,,,,,,,,,,,,,,,,,,,,,,,,,,,,,,,,e,1,0.7169,0,31,31,16,1,正直,e,,,,,,,,,,,,
,,,,,,,,,,,,,,1,001,2024-08-26_00h15.17.792,IAT(Formal),2021.2.3,Win32,60.60606061,,,,,,,,,,,,,,,,,,,,,,,,,,,,,,,,,,,,,,,,,,,,e,1,0.5298,0,32,32,7,1,他的,e,,,,,,,,,,,,
,,,,,,,,,,,,,,1,001,2024-08-26_00h15.17.792,IAT(Formal),2021.2.3,Win32,60.60606061,,,,,,,,,,,,,,,,,,,,,,,,,,,,,,,,,,,,,,,,,,,,e,1,1.2669,0,33,33,25,1,细腻,e,,,,,,,,,,,,
,,,,,,,,,,,,,,1,001,2024-08-26_00h15.17.792,IAT(Formal),2021.2.3,Win32,60.60606061,,,,,,,,,,,,,,,,,,,,,,,,,,,,,,,,,,,,,,,,,,,,e,1,1.0362,0,34,34,12,1,聪明,e,,,,,,,,,,,,
,,,,,,,,,,,,,,1,001,2024-08-26_00h15.17.792,IAT(Formal),2021.2.3,Win32,60.60606061,,,,,,,,,,,,,,,,,,,,,,,,,,,,,,,,,,,,,,,,,,,,e,0,0.3835,0,35,35,71,1,我的,i,,,,,,,,,,,,
,,,,,,,,,,,,,,1,001,2024-08-26_00h15.17.792,IAT(Formal),2021.2.3,Win32,60.60606061,,,,,,,,,,,,,,,,,,,,,,,,,,,,,,,,,,,,,,,,,,,,e,1,0.8668,0,36,36,23,1,公正,e,,,,,,,,,,,,
,,,,,,,,,,,,,,1,001,2024-08-26_00h15.17.792,IAT(Formal),2021.2.3,Win32,60.60606061,,,,,,,,,,,,,,,,,,,,,,,,,,,,,,,,,,,,,,,,,,,,i,1,0.5686,0,37,37,50,1,我,i,,,,,,,,,,,,
,,,,,,,,,,,,,,1,001,2024-08-26_00h15.17.792,IAT(Formal),2021.2.3,Win32,60.60606061,,,,,,,,,,,,,,,,,,,,,,,,,,,,,,,,,,,,,,,,,,,,i,1,0.9191,0,38,38,34,1,悲观,i,,,,,,,,,,,,
,,,,,,,,,,,,,,1,001,2024-08-26_00h15.17.792,IAT(Formal),2021.2.3,Win32,60.60606061,,,,,,,,,,,,,,,,,,,,,,,,,,,,,,,,,,,,,,,,,,,,e,1,0.951,0,39,39,78,1,他人,e,,,,,,,,,,,,
,,,,,,,,,,,,,,1,001,2024-08-26_00h15.17.792,IAT(Formal),2021.2.3,Win32,60.60606061,,,,,,,,,,,,,,,,,,,,,,,,,,,,,,,,,,,,,,,,,,,,i,0,0.6224,0,40,40,69,1,其他,e,,,,,,,,,,,,
,,,,,,,,,,,,,,1,001,2024-08-26_00h15.17.792,IAT(Formal),2021.2.3,Win32,60.60606061,,,,,,,,,,,,,,,,,,,,,,,,,,,,,,,,,,,,,,,,,,,,i,1,0.9337,0,41,41,4,1,俺,i,,,,,,,,,,,,
,,,,,,,,,,,,,,1,001,2024-08-26_00h15.17.792,IAT(Formal),2021.2.3,Win32,60.60606061,,,,,,,,,,,,,,,,,,,,,,,,,,,,,,,,,,,,,,,,,,,,i,1,0.9004,0,42,42,43,1,自私,i,,,,,,,,,,,,
,,,,,,,,,,,,,,1,001,2024-08-26_00h15.17.792,IAT(Formal),2021.2.3,Win32,60.60606061,,,,,,,,,,,,,,,,,,,,,,,,,,,,,,,,,,,,,,,,,,,,i,1,0.5452,0,43,43,30,1,卑鄙,i,,,,,,,,,,,,
,,,,,,,,,,,,,,1,001,2024-08-26_00h15.17.792,IAT(Formal),2021.2.3,Win32,60.60606061,,,,,,,,,,,,,,,,,,,,,,,,,,,,,,,,,,,,,,,,,,,,i,1,0.7335,0,44,44,48,1,轻率,i,,,,,,,,,,,,
,,,,,,,,,,,,,,1,001,2024-08-26_00h15.17.792,IAT(Formal),2021.2.3,Win32,60.60606061,,,,,,,,,,,,,,,,,,,,,,,,,,,,,,,,,,,,,,,,,,,,e,1,0.7098,0,45,45,19,1,机智,e,,,,,,,,,,,,
,,,,,,,,,,,,,,1,001,2024-08-26_00h15.17.792,IAT(Formal),2021.2.3,Win32,60.60606061,,,,,,,,,,,,,,,,,,,,,,,,,,,,,,,,,,,,,,,,,,,,e,1,0.8197,0,46,46,65,1,他,e,,,,,,,,,,,,
,,,,,,,,,,,,,,1,001,2024-08-26_00h15.17.792,IAT(Formal),2021.2.3,Win32,60.60606061,,,,,,,,,,,,,,,,,,,,,,,,,,,,,,,,,,,,,,,,,,,,i,1,1.3031,0,47,47,33,1,刻薄,i,,,,,,,,,,,,
,,,,,,,,,,,,,,1,001,2024-08-26_00h15.17.792,IAT(Formal),2021.2.3,Win32,60.60606061,,,,,,,,,,,,,,,,,,,,,,,,,,,,,,,,,,,,,,,,,,,,i,1,0.5555,0,48,48,39,1,冒失,i,,,,,,,,,,,,
,,,,,,,,,,,,,,1,001,2024-08-26_00h15.17.792,IAT(Formal),2021.2.3,Win32,60.60606061,,,,,,,,,,,,,,,,,,,,,,,,,,,,,,,,,,,,,,,,,,,,e,1,0.7873,0,49,49,11,1,崇高,e,,,,,,,,,,,,
,,,,,,,,,,,,,,1,001,2024-08-26_00h15.17.792,IAT(Formal),2021.2.3,Win32,60.60606061,,,,,,,,,,,,,,,,,,,,,,,,,,,,,,,,,,,,,,,,,,,,i,1,0.683,0,50,50,42,1,凶狠,i,,,,,,,,,,,,
,,,,,,,,,,,,,,1,001,2024-08-26_00h15.17.792,IAT(Formal),2021.2.3,Win32,60.60606061,,,,,,,,,,,,,,,,,,,,,,,,,,,,,,,,,,,,,,,,,,,,i,0,0.5667,0,51,51,17,1,勇敢,e,,,,,,,,,,,,
,,,,,,,,,,,,,,1,001,2024-08-26_00h15.17.792,IAT(Formal),2021.2.3,Win32,60.60606061,,,,,,,,,,,,,,,,,,,,,,,,,,,,,,,,,,,,,,,,,,,,i,0,0.7586,0,52,52,58,1,他人,e,,,,,,,,,,,,
,,,,,,,,,,,,,,1,001,2024-08-26_00h15.17.792,IAT(Formal),2021.2.3,Win32,60.60606061,,,,,,,,,,,,,,,,,,,,,,,,,,,,,,,,,,,,,,,,,,,,e,1,0.6845,0,53,53,75,1,他,e,,,,,,,,,,,,
,,,,,,,,,,,,,,1,001,2024-08-26_00h15.17.792,IAT(Formal),2021.2.3,Win32,60.60606061,,,,,,,,,,,,,,,,,,,,,,,,,,,,,,,,,,,,,,,,,,,,e,1,0.5163,0,54,54,6,1,他们,e,,,,,,,,,,,,
,,,,,,,,,,,,,,1,001,2024-08-26_00h15.17.792,IAT(Formal),2021.2.3,Win32,60.60606061,,,,,,,,,,,,,,,,,,,,,,,,,,,,,,,,,,,,,,,,,,,,e,0,0.4992,0,55,55,61,1,我的,i,,,,,,,,,,,,
,,,,,,,,,,,,,,1,001,2024-08-26_00h15.17.792,IAT(Formal),2021.2.3,Win32,60.60606061,,,,,,,,,,,,,,,,,,,,,,,,,,,,,,,,,,,,,,,,,,,,i,1,0.9244,0,56,56,62,1,我们,i,,,,,,,,,,,,
,,,,,,,,,,,,,,1,001,2024-08-26_00h15.17.792,IAT(Formal),2021.2.3,Win32,60.60606061,,,,,,,,,,,,,,,,,,,,,,,,,,,,,,,,,,,,,,,,,,,,e,1,1.0872,0,57,57,10,1,优秀,e,,,,,,,,,,,,
,,,,,,,,,,,,,,1,001,2024-08-26_00h15.17.792,IAT(Formal),2021.2.3,Win32,60.60606061,,,,,,,,,,,,,,,,,,,,,,,,,,,,,,,,,,,,,,,,,,,,i,1,0.6196,0,58,58,31,1,虚伪,i,,,,,,,,,,,,
,,,,,,,,,,,,,,1,001,2024-08-26_00h15.17.792,IAT(Formal),2021.2.3,Win32,60.60606061,,,,,,,,,,,,,,,,,,,,,,,,,,,,,,,,,,,,,,,,,,,,i,1,1.3674,0,59,59,53,1,自己,i,,,,,,,,,,,,
,,,,,,,,,,,,,,1,001,2024-08-26_00h15.17.792,IAT(Formal),2021.2.3,Win32,60.60606061,,,,,,,,,,,,,,,,,,,,,,,,,,,,,,,,,,,,,,,,,,,,i,0,0.667,0,60,60,28,1,活泼,e,,,,,,,,,,,,
,,,,,,,,,,,,,,1,001,2024-08-26_00h15.17.792,IAT(Formal),2021.2.3,Win32,60.60606061,,,,,,,,,,,,,,,,,,,,,,,,,,,,,,,,,,,,,,,,,,,,e,1,0.5333,0,61,61,20,1,认真,e,,,,,,,,,,,,
,,,,,,,,,,,,,,1,001,2024-08-26_00h15.17.792,IAT(Formal),2021.2.3,Win32,60.60606061,,,,,,,,,,,,,,,,,,,,,,,,,,,,,,,,,,,,,,,,,,,,i,1,0.763,0,62,62,70,1,我,i,,,,,,,,,,,,
,,,,,,,,,,,,,,1,001,2024-08-26_00h15.17.792,IAT(Formal),2021.2.3,Win32,60.60606061,,,,,,,,,,,,,,,,,,,,,,,,,,,,,,,,,,,,,,,,,,,,i,1,0.5536,0,63,63,1,1,我的,i,,,,,,,,,,,,
,,,,,,,,,,,,,,1,001,2024-08-26_00h15.17.792,IAT(Formal),2021.2.3,Win32,60.60606061,,,,,,,,,,,,,,,,,,,,,,,,,,,,,,,,,,,,,,,,,,,,e,1,0.8502,0,64,64,27,1,热情,e,,,,,,,,,,,,
,,,,,,,,,,,,,,1,001,2024-08-26_00h15.17.792,IAT(Formal),2021.2.3,Win32,60.60606061,,,,,,,,,,,,,,,,,,,,,,,,,,,,,,,,,,,,,,,,,,,,i,1,0.8729,0,65,65,38,1,鲁莽,i,,,,,,,,,,,,
,,,,,,,,,,,,,,1,001,2024-08-26_00h15.17.792,IAT(Formal),2021.2.3,Win32,60.60606061,,,,,,,,,,,,,,,,,,,,,,,,,,,,,,,,,,,,,,,,,,,,i,1,0.6439,0,66,66,47,1,固执,i,,,,,,,,,,,,
,,,,,,,,,,,,,,1,001,2024-08-26_00h15.17.792,IAT(Formal),2021.2.3,Win32,60.60606061,,,,,,,,,,,,,,,,,,,,,,,,,,,,,,,,,,,,,,,,,,,,i,1,0.7129,0,67,67,49,1,下贱,i,,,,,,,,,,,,
,,,,,,,,,,,,,,1,001,2024-08-26_00h15.17.792,IAT(Formal),2021.2.3,Win32,60.60606061,,,,,,,,,,,,,,,,,,,,,,,,,,,,,,,,,,,,,,,,,,,,e,1,0.9692,0,68,68,5,1,他,e,,,,,,,,,,,,
,,,,,,,,,,,,,,1,001,2024-08-26_00h15.17.792,IAT(Formal),2021.2.3,Win32,60.60606061,,,,,,,,,,,,,,,,,,,,,,,,,,,,,,,,,,,,,,,,,,,,i,1,0.733,0,69,69,72,1,我们,i,,,,,,,,,,,,
,,,,,,,,,,,,,,1,001,2024-08-26_00h15.17.792,IAT(Formal),2021.2.3,Win32,60.60606061,,,,,,,,,,,,,,,,,,,,,,,,,,,,,,,,,,,,,,,,,,,,e,1,0.9273,0,70,70,9,1,其他,e,,,,,,,,,,,,
,,,,,,,,,,,,,,1,001,2024-08-26_00h15.17.792,IAT(Formal),2021.2.3,Win32,60.60606061,,,,,,,,,,,,,,,,,,,,,,,,,,,,,,,,,,,,,,,,,,,,e,1,0.571,0,71,71,56,1,他们,e,,,,,,,,,,,,
,,,,,,,,,,,,,,1,001,2024-08-26_00h15.17.792,IAT(Formal),2021.2.3,Win32,60.60606061,,,,,,,,,,,,,,,,,,,,,,,,,,,,,,,,,,,,,,,,,,,,i,1,0.985,0,72,72,37,1,傲慢,i,,,,,,,,,,,,
,,,,,,,,,,,,,,1,001,2024-08-26_00h15.17.792,IAT(Formal),2021.2.3,Win32,60.60606061,,,,,,,,,,,,,,,,,,,,,,,,,,,,,,,,,,,,,,,,,,,,e,0,0.9866,0,73,73,51,1,我的,i,,,,,,,,,,,,
,,,,,,,,,,,,,,1,001,2024-08-26_00h15.17.792,IAT(Formal),2021.2.3,Win32,60.60606061,,,,,,,,,,,,,,,,,,,,,,,,,,,,,,,,,,,,,,,,,,,,e,1,0.8579,0,74,74,79,1,其他,e,,,,,,,,,,,,
,,,,,,,,,,,,,,1,001,2024-08-26_00h15.17.792,IAT(Formal),2021.2.3,Win32,60.60606061,,,,,,,,,,,,,,,,,,,,,,,,,,,,,,,,,,,,,,,,,,,,e,1,1.1505,0,75,75,26,1,冷静,e,,,,,,,,,,,,
,,,,,,,,,,,,,,1,001,2024-08-26_00h15.17.792,IAT(Formal),2021.2.3,Win32,60.60606061,,,,,,,,,,,,,,,,,,,,,,,,,,,,,,,,,,,,,,,,,,,,e,1,0.7165,0,76,76,15,1,诚实,e,,,,,,,,,,,,
,,,,,,,,,,,,,,1,001,2024-08-26_00h15.17.792,IAT(Formal),2021.2.3,Win32,60.60606061,,,,,,,,,,,,,,,,,,,,,,,,,,,,,,,,,,,,,,,,,,,,i,0,1.1047,0,77,77,13,1,杰出,e,,,,,,,,,,,,
,,,,,,,,,,,,,,1,001,2024-08-26_00h15.17.792,IAT(Formal),2021.2.3,Win32,60.60606061,,,,,,,,,,,,,,,,,,,,,,,,,,,,,,,,,,,,,,,,,,,,i,0,0.6502,0,78,78,59,1,其他,e,,,,,,,,,,,,
,,,,,,,,,,,,,,1,001,2024-08-26_00h15.17.792,IAT(Formal),2021.2.3,Win32,60.60606061,,,,,,,,,,,,,,,,,,,,,,,,,,,,,,,,,,,,,,,,,,,,i,1,0.6411,0,79,79,44,1,暴躁,i,,,,,,,,,,,,
,,,,,,,,,,,,,,1,001,2024-08-26_00h15.17.792,IAT(Formal),2021.2.3,Win32,60.60606061,,,,,,,,,,,,,,,,,,,,,,,,,,,,,,,,,,,,,,,,,,,,,,,,,,,,他,e,space,8.3855,e,1,0.8996,0,0,0,5,1,,
,,,,,,,,,,,,,,1,001,2024-08-26_00h15.17.792,IAT(Formal),2021.2.3,Win32,60.60606061,,,,,,,,,,,,,,,,,,,,,,,,,,,,,,,,,,,,,,,,,,,,,,,,,,,,他的,e,,,e,1,0.7019,0,1,1,57,1,,
,,,,,,,,,,,,,,1,001,2024-08-26_00h15.17.792,IAT(Formal),2021.2.3,Win32,60.60606061,,,,,,,,,,,,,,,,,,,,,,,,,,,,,,,,,,,,,,,,,,,,,,,,,,,,稳重,e,,,e,1,0.542,0,2,2,21,1,,
,,,,,,,,,,,,,,1,001,2024-08-26_00h15.17.792,IAT(Formal),2021.2.3,Win32,60.60606061,,,,,,,,,,,,,,,,,,,,,,,,,,,,,,,,,,,,,,,,,,,,,,,,,,,,机智,e,,,e,1,0.4839,0,3,3,19,1,,
,,,,,,,,,,,,,,1,001,2024-08-26_00h15.17.792,IAT(Formal),2021.2.3,Win32,60.60606061,,,,,,,,,,,,,,,,,,,,,,,,,,,,,,,,,,,,,,,,,,,,,,,,,,,,优秀,e,,,e,1,0.7046,0,4,4,10,1,,
,,,,,,,,,,,,,,1,001,2024-08-26_00h15.17.792,IAT(Formal),2021.2.3,Win32,60.60606061,,,,,,,,,,,,,,,,,,,,,,,,,,,,,,,,,,,,,,,,,,,,,,,,,,,,朴实,e,,,e,1,0.5069,0,5,5,24,1,,
,,,,,,,,,,,,,,1,001,2024-08-26_00h15.17.792,IAT(Formal),2021.2.3,Win32,60.60606061,,,,,,,,,,,,,,,,,,,,,,,,,,,,,,,,,,,,,,,,,,,,,,,,,,,,我,i,,,i,1,0.6259,0,6,6,0,1,,
,,,,,,,,,,,,,,1,001,2024-08-26_00h15.17.792,IAT(Formal),2021.2.3,Win32,60.60606061,,,,,,,,,,,,,,,,,,,,,,,,,,,,,,,,,,,,,,,,,,,,,,,,,,,,细腻,e,,,i,0,0.8166,0,7,7,25,1,,
,,,,,,,,,,,,,,1,001,2024-08-26_00h15.17.792,IAT(Formal),2021.2.3,Win32,60.60606061,,,,,,,,,,,,,,,,,,,,,,,,,,,,,,,,,,,,,,,,,,,,,,,,,,,,虚伪,i,,,i,1,0.6532,0,8,8,31,1,,
,,,,,,,,,,,,,,1,001,2024-08-26_00h15.17.792,IAT(Formal),2021.2.3,Win32,60.60606061,,,,,,,,,,,,,,,,,,,,,,,,,,,,,,,,,,,,,,,,,,,,,,,,,,,,热情,e,,,e,1,0.6832,0,9,9,27,1,,
,,,,,,,,,,,,,,1,001,2024-08-26_00h15.17.792,IAT(Formal),2021.2.3,Win32,60.60606061,,,,,,,,,,,,,,,,,,,,,,,,,,,,,,,,,,,,,,,,,,,,,,,,,,,,固执,i,,,i,1,0.7736,0,10,10,47,1,,
,,,,,,,,,,,,,,1,001,2024-08-26_00h15.17.792,IAT(Formal),2021.2.3,Win32,60.60606061,,,,,,,,,,,,,,,,,,,,,,,,,,,,,,,,,,,,,,,,,,,,,,,,,,,,无私,e,,,e,1,1.4369,0,11,11,22,1,,
,,,,,,,,,,,,,,1,001,2024-08-26_00h15.17.792,IAT(Formal),2021.2.3,Win32,60.60606061,,,,,,,,,,,,,,,,,,,,,,,,,,,,,,,,,,,,,,,,,,,,,,,,,,,,冷静,e,,,e,1,0.9333,0,12,12,26,1,,
,,,,,,,,,,,,,,1,001,2024-08-26_00h15.17.792,IAT(Formal),2021.2.3,Win32,60.60606061,,,,,,,,,,,,,,,,,,,,,,,,,,,,,,,,,,,,,,,,,,,,,,,,,,,,我,i,,,i,1,1.0925,0,13,13,50,1,,
,,,,,,,,,,,,,,1,001,2024-08-26_00h15.17.792,IAT(Formal),2021.2.3,Win32,60.60606061,,,,,,,,,,,,,,,,,,,,,,,,,,,,,,,,,,,,,,,,,,,,,,,,,,,,自卑,i,,,i,1,1.0538,0,14,14,36,1,,
,,,,,,,,,,,,,,1,001,2024-08-26_00h15.17.792,IAT(Formal),2021.2.3,Win32,60.60606061,,,,,,,,,,,,,,,,,,,,,,,,,,,,,,,,,,,,,,,,,,,,,,,,,,,,俺,i,,,i,1,0.8235,0,15,15,54,1,,
,,,,,,,,,,,,,,1,001,2024-08-26_00h15.17.792,IAT(Formal),2021.2.3,Win32,60.60606061,,,,,,,,,,,,,,,,,,,,,,,,,,,,,,,,,,,,,,,,,,,,,,,,,,,,俺,i,,,i,1,0.5666,0,16,16,64,1,,
,,,,,,,,,,,,,,1,001,2024-08-26_00h15.17.792,IAT(Formal),2021.2.3,Win32,60.60606061,,,,,,,,,,,,,,,,,,,,,,,,,,,,,,,,,,,,,,,,,,,,,,,,,,,,刻薄,i,,,i,1,0.7021,0,17,17,33,1,,
,,,,,,,,,,,,,,1,001,2024-08-26_00h15.17.792,IAT(Formal),2021.2.3,Win32,60.60606061,,,,,,,,,,,,,,,,,,,,,,,,,,,,,,,,,,,,,,,,,,,,,,,,,,,,他们,e,,,e,1,0.5692,0,18,18,56,1,,
,,,,,,,,,,,,,,1,001,2024-08-26_00h15.17.792,IAT(Formal),2021.2.3,Win32,60.60606061,,,,,,,,,,,,,,,,,,,,,,,,,,,,,,,,,,,,,,,,,,,,,,,,,,,,活泼,e,,,e,1,0.767,0,19,19,28,1,,
,,,,,,,,,,,,,,1,001,2024-08-26_00h15.17.792,IAT(Formal),2021.2.3,Win32,60.60606061,,,,,,,,,,,,,,,,,,,,,,,,,,,,,,,,,,,,,,,,,,,,,,,,,,,,崇高,e,,,e,1,0.6002,0,20,20,11,1,,
,,,,,,,,,,,,,,1,001,2024-08-26_00h15.17.792,IAT(Formal),2021.2.3,Win32,60.60606061,,,,,,,,,,,,,,,,,,,,,,,,,,,,,,,,,,,,,,,,,,,,,,,,,,,,其他,e,,,e,1,0.7739,0,21,21,9,1,,
,,,,,,,,,,,,,,1,001,2024-08-26_00h15.17.792,IAT(Formal),2021.2.3,Win32,60.60606061,,,,,,,,,,,,,,,,,,,,,,,,,,,,,,,,,,,,,,,,,,,,,,,,,,,,其他,e,,,e,1,0.4337,0,22,22,69,1,,
,,,,,,,,,,,,,,1,001,2024-08-26_00h15.17.792,IAT(Formal),2021.2.3,Win32,60.60606061,,,,,,,,,,,,,,,,,,,,,,,,,,,,,,,,,,,,,,,,,,,,,,,,,,,,散漫,i,,,i,1,0.8208,0,23,23,41,1,,
,,,,,,,,,,,,,,1,001,2024-08-26_00h15.17.792,IAT(Formal),2021.2.3,Win32,60.60606061,,,,,,,,,,,,,,,,,,,,,,,,,,,,,,,,,,,,,,,,,,,,,,,,,,,,我的,i,,,i,1,0.4941,0,24,24,61,1,,
,,,,,,,,,,,,,,1,001,2024-08-26_00h15.17.792,IAT(Formal),2021.2.3,Win32,60.60606061,,,,,,,,,,,,,,,,,,,,,,,,,,,,,,,,,,,,,,,,,,,,,,,,,,,,自己,i,,,i,1,0.9118,0,25,25,53,1,,
,,,,,,,,,,,,,,1,001,2024-08-26_00h15.17.792,IAT(Formal),2021.2.3,Win32,60.60606061,,,,,,,,,,,,,,,,,,,,,,,,,,,,,,,,,,,,,,,,,,,,,,,,,,,,自己,i,,,i,1,0.5665,0,26,26,63,1,,
,,,,,,,,,,,,,,1,001,2024-08-26_00h15.17.792,IAT(Formal),2021.2.3,Win32,60.60606061,,,,,,,,,,,,,,,,,,,,,,,,,,,,,,,,,,,,,,,,,,,,,,,,,,,,凶狠,i,,,i,1,1.0057,0,27,27,42,1,,
,,,,,,,,,,,,,,1,001,2024-08-26_00h15.17.792,IAT(Formal),2021.2.3,Win32,60.60606061,,,,,,,,,,,,,,,,,,,,,,,,,,,,,,,,,,,,,,,,,,,,,,,,,,,,自己,i,,,i,1,0.7335,0,28,28,3,1,,
,,,,,,,,,,,,,,1,001,2024-08-26_00h15.17.792,IAT(Formal),2021.2.3,Win32,60.60606061,,,,,,,,,,,,,,,,,,,,,,,,,,,,,,,,,,,,,,,,,,,,,,,,,,,,他人,e,,,e,1,0.6999,0,29,29,78,1,,
,,,,,,,,,,,,,,1,001,2024-08-26_00h15.17.792,IAT(Formal),2021.2.3,Win32,60.60606061,,,,,,,,,,,,,,,,,,,,,,,,,,,,,,,,,,,,,,,,,,,,,,,,,,,,乐观,e,,,,0,,0,30,30,14,1,,
,,,,,,,,,,,,,,1,001,2024-08-26_00h15.17.792,IAT(Formal),2021.2.3,Win32,60.60606061,,,,,,,,,,,,,,,,,,,,,,,,,,,,,,,,,,,,,,,,,,,,,,,,,,,,其他,e,,,i,0,0.65,0,31,31,59,1,,
,,,,,,,,,,,,,,1,001,2024-08-26_00h15.17.792,IAT(Formal),2021.2.3,Win32,60.60606061,,,,,,,,,,,,,,,,,,,,,,,,,,,,,,,,,,,,,,,,,,,,,,,,,,,,轻率,i,,,i,1,0.8773,0,32,32,48,1,,
,,,,,,,,,,,,,,1,001,2024-08-26_00h15.17.792,IAT(Formal),2021.2.3,Win32,60.60606061,,,,,,,,,,,,,,,,,,,,,,,,,,,,,,,,,,,,,,,,,,,,,,,,,,,,冒失,i,,,i,1,0.9764,0,33,33,39,1,,
,,,,,,,,,,,,,,1,001,2024-08-26_00h15.17.792,IAT(Formal),2021.2.3,Win32,60.60606061,,,,,,,,,,,,,,,,,,,,,,,,,,,,,,,,,,,,,,,,,,,,,,,,,,,,其他,e,,,e,1,0.713,0,34,34,79,1,,
,,,,,,,,,,,,,,1,001,2024-08-26_00h15.17.792,IAT(Formal),2021.2.3,Win32,60.60606061,,,,,,,,,,,,,,,,,,,,,,,,,,,,,,,,,,,,,,,,,,,,,,,,,,,,猖狂,i,,,i,1,0.7829,0,35,35,45,1,,
,,,,,,,,,,,,,,1,001,2024-08-26_00h15.17.792,IAT(Formal),2021.2.3,Win32,60.60606061,,,,,,,,,,,,,,,,,,,,,,,,,,,,,,,,,,,,,,,,,,,,,,,,,,,,我们,i,,,i,1,0.8328,0,36,36,62,1,,
,,,,,,,,,,,,,,1,001,2024-08-26_00h15.17.792,IAT(Formal),2021.2.3,Win32,60.60606061,,,,,,,,,,,,,,,,,,,,,,,,,,,,,,,,,,,,,,,,,,,,,,,,,,,,自私,i,,,e,0,1.1738,0,37,37,43,1,,
,,,,,,,,,,,,,,1,001,2024-08-26_00h15.17.792,IAT(Formal),2021.2.3,Win32,60.60606061,,,,,,,,,,,,,,,,,,,,,,,,,,,,,,,,,,,,,,,,,,,,,,,,,,,,聪明,e,,,e,1,0.6179,0,38,38,12,1,,
,,,,,,,,,,,,,,1,001,2024-08-26_00h15.17.792,IAT(Formal),2021.2.3,Win32,60.60606061,,,,,,,,,,,,,,,,,,,,,,,,,,,,,,,,,,,,,,,,,,,,,,,,,,,,他人,e,,,e,1,0.5995,0,39,39,58,1,,
,,,,,,,,,,,,,,1,001,2024-08-26_00h15.17.792,IAT(Formal),2021.2.3,Win32,60.60606061,,,,,,,,,,,,,,,,,,,,,,,,,,,,,,,,,,,,,,,,,,,,,,,,,,,,自己,i,,,i,1,1.086,0,40,40,73,1,,
,,,,,,,,,,,,,,1,001,2024-08-26_00h15.17.792,IAT(Formal),2021.2.3,Win32,60.60606061,,,,,,,,,,,,,,,,,,,,,,,,,,,,,,,,,,,,,,,,,,,,,,,,,,,,我,i,,,i,1,1.1827,0,41,41,60,1,,
,,,,,,,,,,,,,,1,001,2024-08-26_00h15.17.792,IAT(Formal),2021.2.3,Win32,60.60606061,,,,,,,,,,,,,,,,,,,,,,,,,,,,,,,,,,,,,,,,,,,,,,,,,,,,正直,e,,,e,1,0.5521,0,42,42,16,1,,
,,,,,,,,,,,,,,1,001,2024-08-26_00h15.17.792,IAT(Formal),2021.2.3,Win32,60.60606061,,,,,,,,,,,,,,,,,,,,,,,,,,,,,,,,,,,,,,,,,,,,,,,,,,,,俺,i,,,i,1,0.8324,0,43,43,74,1,,
,,,,,,,,,,,,,,1,001,2024-08-26_00h15.17.792,IAT(Formal),2021.2.3,Win32,60.60606061,,,,,,,,,,,,,,,,,,,,,,,,,,,,,,,,,,,,,,,,,,,,,,,,,,,,卑鄙,i,,,i,1,0.5883,0,44,44,30,1,,
,,,,,,,,,,,,,,1,001,2024-08-26_00h15.17.792,IAT(Formal),2021.2.3,Win32,60.60606061,,,,,,,,,,,,,,,,,,,,,,,,,,,,,,,,,,,,,,,,,,,,,,,,,,,,杰出,e,,,e,1,0.6673,0,45,45,13,1,,
,,,,,,,,,,,,,,1,001,2024-08-26_00h15.17.792,IAT(Formal),2021.2.3,Win32,60.60606061,,,,,,,,,,,,,,,,,,,,,,,,,,,,,,,,,,,,,,,,,,,,,,,,,,,,野蛮,i,,,i,1,0.5897,0,46,46,46,1,,
,,,,,,,,,,,,,,1,001,2024-08-26_00h15.17.792,IAT(Formal),2021.2.3,Win32,60.60606061,,,,,,,,,,,,,,,,,,,,,,,,,,,,,,,,,,,,,,,,,,,,,,,,,,,,鲁莽,i,,,i,1,0.6167,0,47,47,38,1,,
,,,,,,,,,,,,,,1,001,2024-08-26_00h15.17.792,IAT(Formal),2021.2.3,Win32,60.60606061,,,,,,,,,,,,,,,,,,,,,,,,,,,,,,,,,,,,,,,,,,,,,,,,,,,,他人,e,,,e,1,0.6284,0,48,48,8,1,,
,,,,,,,,,,,,,,1,001,2024-08-26_00h15.17.792,IAT(Formal),2021.2.3,Win32,60.60606061,,,,,,,,,,,,,,,,,,,,,,,,,,,,,,,,,,,,,,,,,,,,,,,,,,,,他,e,,,e,1,1.2004,0,49,49,55,1,,
,,,,,,,,,,,,,,1,001,2024-08-26_00h15.17.792,IAT(Formal),2021.2.3,Win32,60.60606061,,,,,,,,,,,,,,,,,,,,,,,,,,,,,,,,,,,,,,,,,,,,,,,,,,,,他们,e,,,e,1,0.4211,0,50,50,66,1,,
,,,,,,,,,,,,,,1,001,2024-08-26_00h15.17.792,IAT(Formal),2021.2.3,Win32,60.60606061,,,,,,,,,,,,,,,,,,,,,,,,,,,,,,,,,,,,,,,,,,,,,,,,,,,,悲观,i,,,i,1,0.6331,0,51,51,34,1,,
,,,,,,,,,,,,,,1,001,2024-08-26_00h15.17.792,IAT(Formal),2021.2.3,Win32,60.60606061,,,,,,,,,,,,,,,,,,,,,,,,,,,,,,,,,,,,,,,,,,,,,,,,,,,,他,e,,,e,1,0.4505,0,52,52,65,1,,
,,,,,,,,,,,,,,1,001,2024-08-26_00h15.17.792,IAT(Formal),2021.2.3,Win32,60.60606061,,,,,,,,,,,,,,,,,,,,,,,,,,,,,,,,,,,,,,,,,,,,,,,,,,,,他们,e,,,e,1,0.4291,0,53,53,76,1,,
,,,,,,,,,,,,,,1,001,2024-08-26_00h15.17.792,IAT(Formal),2021.2.3,Win32,60.60606061,,,,,,,,,,,,,,,,,,,,,,,,,,,,,,,,,,,,,,,,,,,,,,,,,,,,认真,e,,,e,1,1.166,0,54,54,20,1,,
,,,,,,,,,,,,,,1,001,2024-08-26_00h15.17.792,IAT(Formal),2021.2.3,Win32,60.60606061,,,,,,,,,,,,,,,,,,,,,,,,,,,,,,,,,,,,,,,,,,,,,,,,,,,,执拗,i,,,i,1,0.6107,0,55,55,40,1,,
,,,,,,,,,,,,,,1,001,2024-08-26_00h15.17.792,IAT(Formal),2021.2.3,Win32,60.60606061,,,,,,,,,,,,,,,,,,,,,,,,,,,,,,,,,,,,,,,,,,,,,,,,,,,,我的,i,,,e,0,0.4265,0,56,56,51,1,,
,,,,,,,,,,,,,,1,001,2024-08-26_00h15.17.792,IAT(Formal),2021.2.3,Win32,60.60606061,,,,,,,,,,,,,,,,,,,,,,,,,,,,,,,,,,,,,,,,,,,,,,,,,,,,傲慢,i,,,i,1,0.7025,0,57,57,37,1,,
,,,,,,,,,,,,,,1,001,2024-08-26_00h15.17.792,IAT(Formal),2021.2.3,Win32,60.60606061,,,,,,,,,,,,,,,,,,,,,,,,,,,,,,,,,,,,,,,,,,,,,,,,,,,,勤奋,e,,,e,1,0.7666,0,58,58,18,1,,
,,,,,,,,,,,,,,1,001,2024-08-26_00h15.17.792,IAT(Formal),2021.2.3,Win32,60.60606061,,,,,,,,,,,,,,,,,,,,,,,,,,,,,,,,,,,,,,,,,,,,,,,,,,,,我的,i,,,i,1,0.9591,0,59,59,71,1,,
,,,,,,,,,,,,,,1,001,2024-08-26_00h15.17.792,IAT(Formal),2021.2.3,Win32,60.60606061,,,,,,,,,,,,,,,,,,,,,,,,,,,,,,,,,,,,,,,,,,,,,,,,,,,,愚蠢,i,,,i,1,0.603,0,60,60,32,1,,
,,,,,,,,,,,,,,1,001,2024-08-26_00h15.17.792,IAT(Formal),2021.2.3,Win32,60.60606061,,,,,,,,,,,,,,,,,,,,,,,,,,,,,,,,,,,,,,,,,,,,,,,,,,,,俺,i,,,i,1,0.721,0,61,61,4,1,,
,,,,,,,,,,,,,,1,001,2024-08-26_00h15.17.792,IAT(Formal),2021.2.3,Win32,60.60606061,,,,,,,,,,,,,,,,,,,,,,,,,,,,,,,,,,,,,,,,,,,,,,,,,,,,消极,i,,,i,1,0.5514,0,62,62,35,1,,
,,,,,,,,,,,,,,1,001,2024-08-26_00h15.17.792,IAT(Formal),2021.2.3,Win32,60.60606061,,,,,,,,,,,,,,,,,,,,,,,,,,,,,,,,,,,,,,,,,,,,,,,,,,,,诚实,e,,,i,0,0.7484,0,63,63,15,1,,
,,,,,,,,,,,,,,1,001,2024-08-26_00h15.17.792,IAT(Formal),2021.2.3,Win32,60.60606061,,,,,,,,,,,,,,,,,,,,,,,,,,,,,,,,,,,,,,,,,,,,,,,,,,,,下贱,i,,,i,1,0.7685,0,64,64,49,1,,
,,,,,,,,,,,,,,1,001,2024-08-26_00h15.17.792,IAT(Formal),2021.2.3,Win32,60.60606061,,,,,,,,,,,,,,,,,,,,,,,,,,,,,,,,,,,,,,,,,,,,,,,,,,,,我们,i,,,i,1,0.8833,0,65,65,52,1,,
,,,,,,,,,,,,,,1,001,2024-08-26_00h15.17.792,IAT(Formal),2021.2.3,Win32,60.60606061,,,,,,,,,,,,,,,,,,,,,,,,,,,,,,,,,,,,,,,,,,,,,,,,,,,,我,i,,,i,1,1.0251,0,66,66,70,1,,
,,,,,,,,,,,,,,1,001,2024-08-26_00h15.17.792,IAT(Formal),2021.2.3,Win32,60.60606061,,,,,,,,,,,,,,,,,,,,,,,,,,,,,,,,,,,,,,,,,,,,,,,,,,,,他的,e,,,e,1,0.9111,0,67,67,7,1,,
,,,,,,,,,,,,,,1,001,2024-08-26_00h15.17.792,IAT(Formal),2021.2.3,Win32,60.60606061,,,,,,,,,,,,,,,,,,,,,,,,,,,,,,,,,,,,,,,,,,,,,,,,,,,,公正,e,,,e,1,0.7354,0,68,68,23,1,,
,,,,,,,,,,,,,,1,001,2024-08-26_00h15.17.792,IAT(Formal),2021.2.3,Win32,60.60606061,,,,,,,,,,,,,,,,,,,,,,,,,,,,,,,,,,,,,,,,,,,,,,,,,,,,我们,i,,,e,0,0.4463,0,69,69,2,1,,
,,,,,,,,,,,,,,1,001,2024-08-26_00h15.17.792,IAT(Formal),2021.2.3,Win32,60.60606061,,,,,,,,,,,,,,,,,,,,,,,,,,,,,,,,,,,,,,,,,,,,,,,,,,,,他,e,,,e,1,0.6833,0,70,70,75,1,,
,,,,,,,,,,,,,,1,001,2024-08-26_00h15.17.792,IAT(Formal),2021.2.3,Win32,60.60606061,,,,,,,,,,,,,,,,,,,,,,,,,,,,,,,,,,,,,,,,,,,,,,,,,,,,他的,e,,,e,1,0.6711,0,71,71,67,1,,
,,,,,,,,,,,,,,1,001,2024-08-26_00h15.17.792,IAT(Formal),2021.2.3,Win32,60.60606061,,,,,,,,,,,,,,,,,,,,,,,,,,,,,,,,,,,,,,,,,,,,,,,,,,,,诚恳,e,,,e,1,0.6365,0,72,72,29,1,,
,,,,,,,,,,,,,,1,001,2024-08-26_00h15.17.792,IAT(Formal),2021.2.3,Win32,60.60606061,,,,,,,,,,,,,,,,,,,,,,,,,,,,,,,,,,,,,,,,,,,,,,,,,,,,勇敢,e,,,e,1,0.5115,0,73,73,17,1,,
,,,,,,,,,,,,,,1,001,2024-08-26_00h15.17.792,IAT(Formal),2021.2.3,Win32,60.60606061,,,,,,,,,,,,,,,,,,,,,,,,,,,,,,,,,,,,,,,,,,,,,,,,,,,,他们,e,,,e,1,0.4501,0,74,74,6,1,,
,,,,,,,,,,,,,,1,001,2024-08-26_00h15.17.792,IAT(Formal),2021.2.3,Win32,60.60606061,,,,,,,,,,,,,,,,,,,,,,,,,,,,,,,,,,,,,,,,,,,,,,,,,,,,他的,e,,,i,0,0.4829,0,75,75,77,1,,
,,,,,,,,,,,,,,1,001,2024-08-26_00h15.17.792,IAT(Formal),2021.2.3,Win32,60.60606061,,,,,,,,,,,,,,,,,,,,,,,,,,,,,,,,,,,,,,,,,,,,,,,,,,,,他人,e,,,e,1,0.6004,0,76,76,68,1,,
,,,,,,,,,,,,,,1,001,2024-08-26_00h15.17.792,IAT(Formal),2021.2.3,Win32,60.60606061,,,,,,,,,,,,,,,,,,,,,,,,,,,,,,,,,,,,,,,,,,,,,,,,,,,,我们,i,,,i,1,0.717,0,77,77,72,1,,
,,,,,,,,,,,,,,1,001,2024-08-26_00h15.17.792,IAT(Formal),2021.2.3,Win32,60.60606061,,,,,,,,,,,,,,,,,,,,,,,,,,,,,,,,,,,,,,,,,,,,,,,,,,,,我的,i,,,i,1,0.4333,0,78,78,1,1,,
,,,,,,,,,,,,,,1,001,2024-08-26_00h15.17.792,IAT(Formal),2021.2.3,Win32,60.60606061,,,,,,,,,,,,,,,,,,,,,,,,,,,,,,,,,,,,,,,,,,,,,,,,,,,,暴躁,i,,,i,1,0.6992,0,79,79,44,1,,
,,,,,,,,,,,,,,1,001,2024-08-26_00h15.17.792,IAT(Formal),2021.2.3,Win32,60.60606061,,,,,,,,,,,,,,,,,,,,,,,,,,,,,,,,,,,,,,,,,,,,,,,,,,,,自卑,i,,,i,1,0.5831,1,0,80,36,1,,
,,,,,,,,,,,,,,1,001,2024-08-26_00h15.17.792,IAT(Formal),2021.2.3,Win32,60.60606061,,,,,,,,,,,,,,,,,,,,,,,,,,,,,,,,,,,,,,,,,,,,,,,,,,,,我的,i,,,i,1,0.5339,1,1,81,61,1,,
,,,,,,,,,,,,,,1,001,2024-08-26_00h15.17.792,IAT(Formal),2021.2.3,Win32,60.60606061,,,,,,,,,,,,,,,,,,,,,,,,,,,,,,,,,,,,,,,,,,,,,,,,,,,,他们,e,,,e,1,0.8175,1,2,82,76,1,,
,,,,,,,,,,,,,,1,001,2024-08-26_00h15.17.792,IAT(Formal),2021.2.3,Win32,60.60606061,,,,,,,,,,,,,,,,,,,,,,,,,,,,,,,,,,,,,,,,,,,,,,,,,,,,我们,i,,,i,1,0.6534,1,3,83,62,1,,
,,,,,,,,,,,,,,1,001,2024-08-26_00h15.17.792,IAT(Formal),2021.2.3,Win32,60.60606061,,,,,,,,,,,,,,,,,,,,,,,,,,,,,,,,,,,,,,,,,,,,,,,,,,,,机智,e,,,e,1,0.4751,1,4,84,19,1,,
,,,,,,,,,,,,,,1,001,2024-08-26_00h15.17.792,IAT(Formal),2021.2.3,Win32,60.60606061,,,,,,,,,,,,,,,,,,,,,,,,,,,,,,,,,,,,,,,,,,,,,,,,,,,,诚实,e,,,e,1,0.6023,1,5,85,15,1,,
,,,,,,,,,,,,,,1,001,2024-08-26_00h15.17.792,IAT(Formal),2021.2.3,Win32,60.60606061,,,,,,,,,,,,,,,,,,,,,,,,,,,,,,,,,,,,,,,,,,,,,,,,,,,,公正,e,,,e,1,0.5503,1,6,86,23,1,,
,,,,,,,,,,,,,,1,001,2024-08-26_00h15.17.792,IAT(Formal),2021.2.3,Win32,60.60606061,,,,,,,,,,,,,,,,,,,,,,,,,,,,,,,,,,,,,,,,,,,,,,,,,,,,冷静,e,,,e,1,1.0945,1,7,87,26,1,,
,,,,,,,,,,,,,,1,001,2024-08-26_00h15.17.792,IAT(Formal),2021.2.3,Win32,60.60606061,,,,,,,,,,,,,,,,,,,,,,,,,,,,,,,,,,,,,,,,,,,,,,,,,,,,我,i,,,i,1,0.7208,1,8,88,0,1,,
,,,,,,,,,,,,,,1,001,2024-08-26_00h15.17.792,IAT(Formal),2021.2.3,Win32,60.60606061,,,,,,,,,,,,,,,,,,,,,,,,,,,,,,,,,,,,,,,,,,,,,,,,,,,,乐观,e,,,e,1,0.7698,1,9,89,14,1,,
,,,,,,,,,,,,,,1,001,2024-08-26_00h15.17.792,IAT(Formal),2021.2.3,Win32,60.60606061,,,,,,,,,,,,,,,,,,,,,,,,,,,,,,,,,,,,,,,,,,,,,,,,,,,,崇高,e,,,e,1,0.5671,1,10,90,11,1,,
,,,,,,,,,,,,,,1,001,2024-08-26_00h15.17.792,IAT(Formal),2021.2.3,Win32,60.60606061,,,,,,,,,,,,,,,,,,,,,,,,,,,,,,,,,,,,,,,,,,,,,,,,,,,,我的,i,,,i,1,0.633,1,11,91,1,1,,
,,,,,,,,,,,,,,1,001,2024-08-26_00h15.17.792,IAT(Formal),2021.2.3,Win32,60.60606061,,,,,,,,,,,,,,,,,,,,,,,,,,,,,,,,,,,,,,,,,,,,,,,,,,,,稳重,e,,,e,1,0.749,1,12,92,21,1,,
,,,,,,,,,,,,,,1,001,2024-08-26_00h15.17.792,IAT(Formal),2021.2.3,Win32,60.60606061,,,,,,,,,,,,,,,,,,,,,,,,,,,,,,,,,,,,,,,,,,,,,,,,,,,,冒失,i,,,i,1,0.7861,1,13,93,39,1,,
,,,,,,,,,,,,,,1,001,2024-08-26_00h15.17.792,IAT(Formal),2021.2.3,Win32,60.60606061,,,,,,,,,,,,,,,,,,,,,,,,,,,,,,,,,,,,,,,,,,,,,,,,,,,,鲁莽,i,,,i,1,0.7007,1,14,94,38,1,,
,,,,,,,,,,,,,,1,001,2024-08-26_00h15.17.792,IAT(Formal),2021.2.3,Win32,60.60606061,,,,,,,,,,,,,,,,,,,,,,,,,,,,,,,,,,,,,,,,,,,,,,,,,,,,我们,i,,,i,1,0.5837,1,15,95,72,1,,
,,,,,,,,,,,,,,1,001,2024-08-26_00h15.17.792,IAT(Formal),2021.2.3,Win32,60.60606061,,,,,,,,,,,,,,,,,,,,,,,,,,,,,,,,,,,,,,,,,,,,,,,,,,,,他的,e,,,e,1,0.637,1,16,96,77,1,,
,,,,,,,,,,,,,,1,001,2024-08-26_00h15.17.792,IAT(Formal),2021.2.3,Win32,60.60606061,,,,,,,,,,,,,,,,,,,,,,,,,,,,,,,,,,,,,,,,,,,,,,,,,,,,执拗,i,,,i,1,0.4997,1,17,97,40,1,,
,,,,,,,,,,,,,,1,001,2024-08-26_00h15.17.792,IAT(Formal),2021.2.3,Win32,60.60606061,,,,,,,,,,,,,,,,,,,,,,,,,,,,,,,,,,,,,,,,,,,,,,,,,,,,自己,i,,,i,1,0.583,1,18,98,63,1,,
,,,,,,,,,,,,,,1,001,2024-08-26_00h15.17.792,IAT(Formal),2021.2.3,Win32,60.60606061,,,,,,,,,,,,,,,,,,,,,,,,,,,,,,,,,,,,,,,,,,,,,,,,,,,,自己,i,,,i,1,0.7,1,19,99,3,1,,
,,,,,,,,,,,,,,1,001,2024-08-26_00h15.17.792,IAT(Formal),2021.2.3,Win32,60.60606061,,,,,,,,,,,,,,,,,,,,,,,,,,,,,,,,,,,,,,,,,,,,,,,,,,,,凶狠,i,,,i,1,0.6999,1,20,100,42,1,,
,,,,,,,,,,,,,,1,001,2024-08-26_00h15.17.792,IAT(Formal),2021.2.3,Win32,60.60606061,,,,,,,,,,,,,,,,,,,,,,,,,,,,,,,,,,,,,,,,,,,,,,,,,,,,卑鄙,i,,,i,1,0.5839,1,21,101,30,1,,
,,,,,,,,,,,,,,1,001,2024-08-26_00h15.17.792,IAT(Formal),2021.2.3,Win32,60.60606061,,,,,,,,,,,,,,,,,,,,,,,,,,,,,,,,,,,,,,,,,,,,,,,,,,,,我们,i,,,i,1,0.7336,1,22,102,2,1,,
,,,,,,,,,,,,,,1,001,2024-08-26_00h15.17.792,IAT(Formal),2021.2.3,Win32,60.60606061,,,,,,,,,,,,,,,,,,,,,,,,,,,,,,,,,,,,,,,,,,,,,,,,,,,,他,e,,,e,1,0.5859,1,23,103,55,1,,
,,,,,,,,,,,,,,1,001,2024-08-26_00h15.17.792,IAT(Formal),2021.2.3,Win32,60.60606061,,,,,,,,,,,,,,,,,,,,,,,,,,,,,,,,,,,,,,,,,,,,,,,,,,,,暴躁,i,,,i,1,0.6051,1,24,104,44,1,,
,,,,,,,,,,,,,,1,001,2024-08-26_00h15.17.792,IAT(Formal),2021.2.3,Win32,60.60606061,,,,,,,,,,,,,,,,,,,,,,,,,,,,,,,,,,,,,,,,,,,,,,,,,,,,我们,i,,,i,1,0.5491,1,25,105,52,1,,
,,,,,,,,,,,,,,1,001,2024-08-26_00h15.17.792,IAT(Formal),2021.2.3,Win32,60.60606061,,,,,,,,,,,,,,,,,,,,,,,,,,,,,,,,,,,,,,,,,,,,,,,,,,,,无私,e,,,i,0,0.6335,1,26,106,22,1,,
,,,,,,,,,,,,,,1,001,2024-08-26_00h15.17.792,IAT(Formal),2021.2.3,Win32,60.60606061,,,,,,,,,,,,,,,,,,,,,,,,,,,,,,,,,,,,,,,,,,,,,,,,,,,,俺,i,,,i,1,0.7519,1,27,107,4,1,,
,,,,,,,,,,,,,,1,001,2024-08-26_00h15.17.792,IAT(Formal),2021.2.3,Win32,60.60606061,,,,,,,,,,,,,,,,,,,,,,,,,,,,,,,,,,,,,,,,,,,,,,,,,,,,俺,i,,,i,1,0.6254,1,28,108,54,1,,
,,,,,,,,,,,,,,1,001,2024-08-26_00h15.17.792,IAT(Formal),2021.2.3,Win32,60.60606061,,,,,,,,,,,,,,,,,,,,,,,,,,,,,,,,,,,,,,,,,,,,,,,,,,,,他的,e,,,e,1,0.6636,1,29,109,7,1,,
,,,,,,,,,,,,,,1,001,2024-08-26_00h15.17.792,IAT(Formal),2021.2.3,Win32,60.60606061,,,,,,,,,,,,,,,,,,,,,,,,,,,,,,,,,,,,,,,,,,,,,,,,,,,,其他,e,,,i,0,0.5297,1,30,110,69,1,,
,,,,,,,,,,,,,,1,001,2024-08-26_00h15.17.792,IAT(Formal),2021.2.3,Win32,60.60606061,,,,,,,,,,,,,,,,,,,,,,,,,,,,,,,,,,,,,,,,,,,,,,,,,,,,朴实,e,,,e,1,0.6784,1,31,111,24,1,,
,,,,,,,,,,,,,,1,001,2024-08-26_00h15.17.792,IAT(Formal),2021.2.3,Win32,60.60606061,,,,,,,,,,,,,,,,,,,,,,,,,,,,,,,,,,,,,,,,,,,,,,,,,,,,轻率,i,,,i,1,0.704,1,32,112,48,1,,
,,,,,,,,,,,,,,1,001,2024-08-26_00h15.17.792,IAT(Formal),2021.2.3,Win32,60.60606061,,,,,,,,,,,,,,,,,,,,,,,,,,,,,,,,,,,,,,,,,,,,,,,,,,,,傲慢,i,,,i,1,0.5233,1,33,113,37,1,,
,,,,,,,,,,,,,,1,001,2024-08-26_00h15.17.792,IAT(Formal),2021.2.3,Win32,60.60606061,,,,,,,,,,,,,,,,,,,,,,,,,,,,,,,,,,,,,,,,,,,,,,,,,,,,他的,e,,,e,1,0.4668,1,34,114,57,1,,
,,,,,,,,,,,,,,1,001,2024-08-26_00h15.17.792,IAT(Formal),2021.2.3,Win32,60.60606061,,,,,,,,,,,,,,,,,,,,,,,,,,,,,,,,,,,,,,,,,,,,,,,,,,,,下贱,i,,,i,1,0.6003,1,35,115,49,1,,
,,,,,,,,,,,,,,1,001,2024-08-26_00h15.17.792,IAT(Formal),2021.2.3,Win32,60.60606061,,,,,,,,,,,,,,,,,,,,,,,,,,,,,,,,,,,,,,,,,,,,,,,,,,,,他人,e,,,e,1,0.7709,1,36,116,8,1,,
,,,,,,,,,,,,,,1,001,2024-08-26_00h15.17.792,IAT(Formal),2021.2.3,Win32,60.60606061,,,,,,,,,,,,,,,,,,,,,,,,,,,,,,,,,,,,,,,,,,,,,,,,,,,,固执,i,,,i,1,0.4512,1,37,117,47,1,,
,,,,,,,,,,,,,,1,001,2024-08-26_00h15.17.792,IAT(Formal),2021.2.3,Win32,60.60606061,,,,,,,,,,,,,,,,,,,,,,,,,,,,,,,,,,,,,,,,,,,,,,,,,,,,勤奋,e,,,e,1,0.6013,1,38,118,18,1,,
,,,,,,,,,,,,,,1,001,2024-08-26_00h15.17.792,IAT(Formal),2021.2.3,Win32,60.60606061,,,,,,,,,,,,,,,,,,,,,,,,,,,,,,,,,,,,,,,,,,,,,,,,,,,,他,e,,,e,1,0.6378,1,39,119,75,1,,
,,,,,,,,,,,,,,1,001,2024-08-26_00h15.17.792,IAT(Formal),2021.2.3,Win32,60.60606061,,,,,,,,,,,,,,,,,,,,,,,,,,,,,,,,,,,,,,,,,,,,,,,,,,,,俺,i,,,i,1,0.5828,1,40,120,64,1,,
,,,,,,,,,,,,,,1,001,2024-08-26_00h15.17.792,IAT(Formal),2021.2.3,Win32,60.60606061,,,,,,,,,,,,,,,,,,,,,,,,,,,,,,,,,,,,,,,,,,,,,,,,,,,,自己,i,,,i,1,0.6503,1,41,121,73,1,,
,,,,,,,,,,,,,,1,001,2024-08-26_00h15.17.792,IAT(Formal),2021.2.3,Win32,60.60606061,,,,,,,,,,,,,,,,,,,,,,,,,,,,,,,,,,,,,,,,,,,,,,,,,,,,他们,e,,,e,1,0.6873,1,42,122,6,1,,
,,,,,,,,,,,,,,1,001,2024-08-26_00h15.17.792,IAT(Formal),2021.2.3,Win32,60.60606061,,,,,,,,,,,,,,,,,,,,,,,,,,,,,,,,,,,,,,,,,,,,,,,,,,,,他人,e,,,e,1,0.9496,1,43,123,78,1,,
,,,,,,,,,,,,,,1,001,2024-08-26_00h15.17.792,IAT(Formal),2021.2.3,Win32,60.60606061,,,,,,,,,,,,,,,,,,,,,,,,,,,,,,,,,,,,,,,,,,,,,,,,,,,,热情,e,,,e,1,0.8496,1,44,124,27,1,,
,,,,,,,,,,,,,,1,001,2024-08-26_00h15.17.792,IAT(Formal),2021.2.3,Win32,60.60606061,,,,,,,,,,,,,,,,,,,,,,,,,,,,,,,,,,,,,,,,,,,,,,,,,,,,正直,e,,,e,1,0.5497,1,45,125,16,1,,
,,,,,,,,,,,,,,1,001,2024-08-26_00h15.17.792,IAT(Formal),2021.2.3,Win32,60.60606061,,,,,,,,,,,,,,,,,,,,,,,,,,,,,,,,,,,,,,,,,,,,,,,,,,,,我的,i,,,i,1,0.5898,1,46,126,71,1,,
,,,,,,,,,,,,,,1,001,2024-08-26_00h15.17.792,IAT(Formal),2021.2.3,Win32,60.60606061,,,,,,,,,,,,,,,,,,,,,,,,,,,,,,,,,,,,,,,,,,,,,,,,,,,,我,i,,,e,0,0.8168,1,47,127,70,1,,
,,,,,,,,,,,,,,1,001,2024-08-26_00h15.17.792,IAT(Formal),2021.2.3,Win32,60.60606061,,,,,,,,,,,,,,,,,,,,,,,,,,,,,,,,,,,,,,,,,,,,,,,,,,,,杰出,e,,,e,1,0.5336,1,48,128,13,1,,
,,,,,,,,,,,,,,1,001,2024-08-26_00h15.17.792,IAT(Formal),2021.2.3,Win32,60.60606061,,,,,,,,,,,,,,,,,,,,,,,,,,,,,,,,,,,,,,,,,,,,,,,,,,,,野蛮,i,,,i,1,0.9167,1,49,129,46,1,,
,,,,,,,,,,,,,,1,001,2024-08-26_00h15.17.792,IAT(Formal),2021.2.3,Win32,60.60606061,,,,,,,,,,,,,,,,,,,,,,,,,,,,,,,,,,,,,,,,,,,,,,,,,,,,我的,i,,,i,1,0.8399,1,50,130,51,1,,
,,,,,,,,,,,,,,1,001,2024-08-26_00h15.17.792,IAT(Formal),2021.2.3,Win32,60.60606061,,,,,,,,,,,,,,,,,,,,,,,,,,,,,,,,,,,,,,,,,,,,,,,,,,,,虚伪,i,,,i,1,0.6536,1,51,131,31,1,,
,,,,,,,,,,,,,,1,001,2024-08-26_00h15.17.792,IAT(Formal),2021.2.3,Win32,60.60606061,,,,,,,,,,,,,,,,,,,,,,,,,,,,,,,,,,,,,,,,,,,,,,,,,,,,他人,e,,,e,1,0.603,1,52,132,58,1,,
,,,,,,,,,,,,,,1,001,2024-08-26_00h15.17.792,IAT(Formal),2021.2.3,Win32,60.60606061,,,,,,,,,,,,,,,,,,,,,,,,,,,,,,,,,,,,,,,,,,,,,,,,,,,,他,e,,,e,1,0.451,1,53,133,65,1,,
,,,,,,,,,,,,,,1,001,2024-08-26_00h15.17.792,IAT(Formal),2021.2.3,Win32,60.60606061,,,,,,,,,,,,,,,,,,,,,,,,,,,,,,,,,,,,,,,,,,,,,,,,,,,,他人,e,,,e,1,0.4337,1,54,134,68,1,,
,,,,,,,,,,,,,,1,001,2024-08-26_00h15.17.792,IAT(Formal),2021.2.3,Win32,60.60606061,,,,,,,,,,,,,,,,,,,,,,,,,,,,,,,,,,,,,,,,,,,,,,,,,,,,细腻,e,,,e,1,0.7257,1,55,135,25,1,,
,,,,,,,,,,,,,,1,001,2024-08-26_00h15.17.792,IAT(Formal),2021.2.3,Win32,60.60606061,,,,,,,,,,,,,,,,,,,,,,,,,,,,,,,,,,,,,,,,,,,,,,,,,,,,他,e,,,e,1,0.5097,1,56,136,5,1,,
,,,,,,,,,,,,,,1,001,2024-08-26_00h15.17.792,IAT(Formal),2021.2.3,Win32,60.60606061,,,,,,,,,,,,,,,,,,,,,,,,,,,,,,,,,,,,,,,,,,,,,,,,,,,,勇敢,e,,,e,1,0.6167,1,57,137,17,1,,
,,,,,,,,,,,,,,1,001,2024-08-26_00h15.17.792,IAT(Formal),2021.2.3,Win32,60.60606061,,,,,,,,,,,,,,,,,,,,,,,,,,,,,,,,,,,,,,,,,,,,,,,,,,,,我,i,,,i,1,0.8096,1,58,138,60,1,,
,,,,,,,,,,,,,,1,001,2024-08-26_00h15.17.792,IAT(Formal),2021.2.3,Win32,60.60606061,,,,,,,,,,,,,,,,,,,,,,,,,,,,,,,,,,,,,,,,,,,,,,,,,,,,散漫,i,,,i,1,0.9678,1,59,139,41,1,,
,,,,,,,,,,,,,,1,001,2024-08-26_00h15.17.792,IAT(Formal),2021.2.3,Win32,60.60606061,,,,,,,,,,,,,,,,,,,,,,,,,,,,,,,,,,,,,,,,,,,,,,,,,,,,消极,i,,,i,1,0.4668,1,60,140,35,1,,
,,,,,,,,,,,,,,1,001,2024-08-26_00h15.17.792,IAT(Formal),2021.2.3,Win32,60.60606061,,,,,,,,,,,,,,,,,,,,,,,,,,,,,,,,,,,,,,,,,,,,,,,,,,,,自私,i,,,i,1,0.9229,1,61,141,43,1,,
,,,,,,,,,,,,,,1,001,2024-08-26_00h15.17.792,IAT(Formal),2021.2.3,Win32,60.60606061,,,,,,,,,,,,,,,,,,,,,,,,,,,,,,,,,,,,,,,,,,,,,,,,,,,,自己,i,,,i,1,0.6668,1,62,142,53,1,,
,,,,,,,,,,,,,,1,001,2024-08-26_00h15.17.792,IAT(Formal),2021.2.3,Win32,60.60606061,,,,,,,,,,,,,,,,,,,,,,,,,,,,,,,,,,,,,,,,,,,,,,,,,,,,悲观,i,,,i,1,0.5371,1,63,143,34,1,,
,,,,,,,,,,,,,,1,001,2024-08-26_00h15.17.792,IAT(Formal),2021.2.3,Win32,60.60606061,,,,,,,,,,,,,,,,,,,,,,,,,,,,,,,,,,,,,,,,,,,,,,,,,,,,他们,e,,,e,1,0.5935,1,64,144,56,1,,
,,,,,,,,,,,,,,1,001,2024-08-26_00h15.17.792,IAT(Formal),2021.2.3,Win32,60.60606061,,,,,,,,,,,,,,,,,,,,,,,,,,,,,,,,,,,,,,,,,,,,,,,,,,,,他的,e,,,e,1,0.5833,1,65,145,67,1,,
,,,,,,,,,,,,,,1,001,2024-08-26_00h15.17.792,IAT(Formal),2021.2.3,Win32,60.60606061,,,,,,,,,,,,,,,,,,,,,,,,,,,,,,,,,,,,,,,,,,,,,,,,,,,,其他,e,,,e,1,0.7517,1,66,146,79,1,,
,,,,,,,,,,,,,,1,001,2024-08-26_00h15.17.792,IAT(Formal),2021.2.3,Win32,60.60606061,,,,,,,,,,,,,,,,,,,,,,,,,,,,,,,,,,,,,,,,,,,,,,,,,,,,刻薄,i,,,i,1,0.8335,1,67,147,33,1,,
,,,,,,,,,,,,,,1,001,2024-08-26_00h15.17.792,IAT(Formal),2021.2.3,Win32,60.60606061,,,,,,,,,,,,,,,,,,,,,,,,,,,,,,,,,,,,,,,,,,,,,,,,,,,,我,i,,,i,1,0.7263,1,68,148,50,1,,
,,,,,,,,,,,,,,1,001,2024-08-26_00h15.17.792,IAT(Formal),2021.2.3,Win32,60.60606061,,,,,,,,,,,,,,,,,,,,,,,,,,,,,,,,,,,,,,,,,,,,,,,,,,,,愚蠢,i,,,i,1,0.6703,1,69,149,32,1,,
,,,,,,,,,,,,,,1,001,2024-08-26_00h15.17.792,IAT(Formal),2021.2.3,Win32,60.60606061,,,,,,,,,,,,,,,,,,,,,,,,,,,,,,,,,,,,,,,,,,,,,,,,,,,,聪明,e,,,e,1,0.7715,1,70,150,12,1,,
,,,,,,,,,,,,,,1,001,2024-08-26_00h15.17.792,IAT(Formal),2021.2.3,Win32,60.60606061,,,,,,,,,,,,,,,,,,,,,,,,,,,,,,,,,,,,,,,,,,,,,,,,,,,,活泼,e,,,e,1,0.8427,1,71,151,28,1,,
,,,,,,,,,,,,,,1,001,2024-08-26_00h15.17.792,IAT(Formal),2021.2.3,Win32,60.60606061,,,,,,,,,,,,,,,,,,,,,,,,,,,,,,,,,,,,,,,,,,,,,,,,,,,,优秀,e,,,e,1,0.8664,1,72,152,10,1,,
,,,,,,,,,,,,,,1,001,2024-08-26_00h15.17.792,IAT(Formal),2021.2.3,Win32,60.60606061,,,,,,,,,,,,,,,,,,,,,,,,,,,,,,,,,,,,,,,,,,,,,,,,,,,,猖狂,i,,,i,1,0.634,1,73,153,45,1,,
,,,,,,,,,,,,,,1,001,2024-08-26_00h15.17.792,IAT(Formal),2021.2.3,Win32,60.60606061,,,,,,,,,,,,,,,,,,,,,,,,,,,,,,,,,,,,,,,,,,,,,,,,,,,,其他,e,,,e,1,0.6011,1,74,154,59,1,,
,,,,,,,,,,,,,,1,001,2024-08-26_00h15.17.792,IAT(Formal),2021.2.3,Win32,60.60606061,,,,,,,,,,,,,,,,,,,,,,,,,,,,,,,,,,,,,,,,,,,,,,,,,,,,认真,e,,,e,1,0.4832,1,75,155,20,1,,
,,,,,,,,,,,,,,1,001,2024-08-26_00h15.17.792,IAT(Formal),2021.2.3,Win32,60.60606061,,,,,,,,,,,,,,,,,,,,,,,,,,,,,,,,,,,,,,,,,,,,,,,,,,,,其他,e,,,e,1,0.5858,1,76,156,9,1,,
,,,,,,,,,,,,,,1,001,2024-08-26_00h15.17.792,IAT(Formal),2021.2.3,Win32,60.60606061,,,,,,,,,,,,,,,,,,,,,,,,,,,,,,,,,,,,,,,,,,,,,,,,,,,,诚恳,e,,,e,1,0.6015,1,77,157,29,1,,
,,,,,,,,,,,,,,1,001,2024-08-26_00h15.17.792,IAT(Formal),2021.2.3,Win32,60.60606061,,,,,,,,,,,,,,,,,,,,,,,,,,,,,,,,,,,,,,,,,,,,,,,,,,,,俺,i,,,i,1,0.689,1,78,158,74,1,,
,,,,,,,,,,,,,,1,001,2024-08-26_00h15.17.792,IAT(Formal),2021.2.3,Win32,60.60606061,,,,,,,,,,,,,,,,,,,,,,,,,,,,,,,,,,,,,,,,,,,,,,,,,,,,他们,e,,,e,1,0.5723,1,79,159,66,1,,
,,,,,,,,,,,,,,1,001,2024-08-26_00h15.17.792,IAT(Formal),2021.2.3,Win32,60.60606061,,,,,,,,,,,,,,,,,,,,,,,,,,,,,,,,,,,,,,,,,,,,,,,,,,,,,,,,,,,,,,,,space,1.3997