"X.Instruction1.keys","Instruction1.rt","Instruction2.keys","Instruction2.rt","key_resp_iso.keys","key_resp_iso.corr","key_resp_iso.rt","Practice_01.thisRepN","Practice_01.thisTrialN","Practice_01.thisN","Practice_01.thisIndex","Practice_01.ran","Words","ans","participant","session","date","expName","psychopyVersion","OS","frameRate","key_resp_3.keys","key_resp_3.rt","key_resp_ipn.keys","key_resp_ipn.corr","key_resp_ipn.rt","Practice_02.thisRepN","Practice_02.thisTrialN","Practice_02.thisN","Practice_02.thisIndex","Practice_02.ran","Words_ipn","ans_ipn","key_resp_4.keys","key_resp_4.rt","key_resp_t1.keys","key_resp_t1.corr","key_resp_t1.rt","Practice_T1.thisRepN","Practice_T1.thisTrialN","Practice_T1.thisN","Practice_T1.thisIndex","Practice_T1.ran","Words_t1","ans_t1","key_resp_5.keys","key_resp_5.rt","Formal_T1.thisRepN","Formal_T1.thisTrialN","Formal_T1.thisN","Formal_T1.thisIndex","Formal_T1.ran","key_resp_6.keys","key_resp_6.rt","key_resp_iso_reverse.keys","key_resp_iso_reverse.corr","key_resp_iso_reverse.rt","Practice_iso_Reverse.thisRepN","Practice_iso_Reverse.thisTrialN","Practice_iso_Reverse.thisN","Practice_iso_Reverse.thisIndex","Practice_iso_Reverse.ran","key_resp_7.keys","key_resp_7.rt","key_resp_t2_Practice.keys","key_resp_t2_Practice.corr","key_resp_t2_Practice.rt","Practice_t2_Reverse.thisRepN","Practice_t2_Reverse.thisTrialN","Practice_t2_Reverse.thisN","Practice_t2_Reverse.thisIndex","Practice_t2_Reverse.ran","Words_t2","ans_t2","key_resp_8.keys","key_resp_8.rt","key_resp_t2.keys","key_resp_t2.corr","key_resp_t2.rt","Formal_t2_reverse.thisRepN","Formal_t2_reverse.thisTrialN","Formal_t2_reverse.thisN","Formal_t2_reverse.thisIndex","Formal_t2_reverse.ran","key_instruct.keys","key_instruct.rt","Subject"
"space",8.5804,"space",23.2941,"e",1,1.0664,0,0,0,4,1,"俺","e",1,1,"2024-08-26_00h15.17.792","IAT(Formal)","2021.2.3","Win32",60.60606061,"",NA,"",NA,NA,NA,NA,NA,NA,NA,"","","",NA,"",NA,NA,NA,NA,NA,NA,NA,"","","",NA,NA,NA,NA,NA,NA,"",NA,"",NA,NA,NA,NA,NA,NA,NA,"",NA,"",NA,NA,NA,NA,NA,NA,NA,"","","",NA,"",NA,NA,NA,NA,NA,NA,NA,"",NA,"33"
"",NA,"",NA,"i",1,2e-04,0,1,1,8,1,"他人","i",1,1,"2024-08-26_00h15.17.792","IAT(Formal)","2021.2.3","Win32",60.60606061,"",NA,"",NA,NA,NA,NA,NA,NA,NA,"","","",NA,"",NA,NA,NA,NA,NA,NA,NA,"","","",NA,NA,NA,NA,NA,NA,"",NA,"",NA,NA,NA,NA,NA,NA,NA,"",NA,"",NA,NA,NA,NA,NA,NA,NA,"","","",NA,"",NA,NA,NA,NA,NA,NA,NA,"",NA,"33"
"",NA,"",NA,"i",1,0.009,0,2,2,9,1,"其他","i",1,1,"2024-08-26_00h15.17.792","IAT(Formal)","2021.2.3","Win32",60.60606061,"",NA,"",NA,NA,NA,NA,NA,NA,NA,"","","",NA,"",NA,NA,NA,NA,NA,NA,NA,"","","",NA,NA,NA,NA,NA,NA,"",NA,"",NA,NA,NA,NA,NA,NA,NA,"",NA,"",NA,NA,NA,NA,NA,NA,NA,"","","",NA,"",NA,NA,NA,NA,NA,NA,NA,"",NA,"33"
"",NA,"",NA,"e",1,0.6505,0,3,3,1,1,"我的","e",1,1,"2024-08-26_00h15.17.792","IAT(Formal)","2021.2.3","Win32",60.60606061,"",NA,"",NA,NA,NA,NA,NA,NA,NA,"","","",NA,"",NA,NA,NA,NA,NA,NA,NA,"","","",NA,NA,NA,NA,NA,NA,"",NA,"",NA,NA,NA,NA,NA,NA,NA,"",NA,"",NA,NA,NA,NA,NA,NA,NA,"","","",NA,"",NA,NA,NA,NA,NA,NA,NA,"",NA,"33"
"",NA,"",NA,"e",0,1.0334,0,4,4,6,1,"他们","i",1,1,"2024-08-26_00h15.17.792","IAT(Formal)","2021.2.3","Win32",60.60606061,"",NA,"",NA,NA,NA,NA,NA,NA,NA,"","","",NA,"",NA,NA,NA,NA,NA,NA,NA,"","","",NA,NA,NA,NA,NA,NA,"",NA,"",NA,NA,NA,NA,NA,NA,NA,"",NA,"",NA,NA,NA,NA,NA,NA,NA,"","","",NA,"",NA,NA,NA,NA,NA,NA,NA,"",NA,"33"
"",NA,"",NA,"e",1,1.1583,0,5,5,3,1,"自己","e",1,1,"2024-08-26_00h15.17.792","IAT(Formal)","2021.2.3","Win32",60.60606061,"",NA,"",NA,NA,NA,NA,NA,NA,NA,"","","",NA,"",NA,NA,NA,NA,NA,NA,NA,"","","",NA,NA,NA,NA,NA,NA,"",NA,"",NA,NA,NA,NA,NA,NA,NA,"",NA,"",NA,NA,NA,NA,NA,NA,NA,"","","",NA,"",NA,NA,NA,NA,NA,NA,NA,"",NA,"33"
"",NA,"",NA,"i",1,0.7587,0,6,6,7,1,"他的","i",1,1,"2024-08-26_00h15.17.792","IAT(Formal)","2021.2.3","Win32",60.60606061,"",NA,"",NA,NA,NA,NA,NA,NA,NA,"","","",NA,"",NA,NA,NA,NA,NA,NA,NA,"","","",NA,NA,NA,NA,NA,NA,"",NA,"",NA,NA,NA,NA,NA,NA,NA,"",NA,"",NA,NA,NA,NA,NA,NA,NA,"","","",NA,"",NA,NA,NA,NA,NA,NA,NA,"",NA,"33"
"",NA,"",NA,"i",1,0.8357,0,7,7,5,1,"他","i",1,1,"2024-08-26_00h15.17.792","IAT(Formal)","2021.2.3","Win32",60.60606061,"",NA,"",NA,NA,NA,NA,NA,NA,NA,"","","",NA,"",NA,NA,NA,NA,NA,NA,NA,"","","",NA,NA,NA,NA,NA,NA,"",NA,"",NA,NA,NA,NA,NA,NA,NA,"",NA,"",NA,NA,NA,NA,NA,NA,NA,"","","",NA,"",NA,NA,NA,NA,NA,NA,NA,"",NA,"33"
"",NA,"",NA,"e",1,0.503,0,8,8,0,1,"我","e",1,1,"2024-08-26_00h15.17.792","IAT(Formal)","2021.2.3","Win32",60.60606061,"",NA,"",NA,NA,NA,NA,NA,NA,NA,"","","",NA,"",NA,NA,NA,NA,NA,NA,NA,"","","",NA,NA,NA,NA,NA,NA,"",NA,"",NA,NA,NA,NA,NA,NA,NA,"",NA,"",NA,NA,NA,NA,NA,NA,NA,"","","",NA,"",NA,NA,NA,NA,NA,NA,NA,"",NA,"33"
"",NA,"",NA,"e",1,0.7445,0,9,9,2,1,"我们","e",1,1,"2024-08-26_00h15.17.792","IAT(Formal)","2021.2.3","Win32",60.60606061,"",NA,"",NA,NA,NA,NA,NA,NA,NA,"","","",NA,"",NA,NA,NA,NA,NA,NA,NA,"","","",NA,NA,NA,NA,NA,NA,"",NA,"",NA,NA,NA,NA,NA,NA,NA,"",NA,"",NA,NA,NA,NA,NA,NA,NA,"","","",NA,"",NA,NA,NA,NA,NA,NA,NA,"",NA,"33"
"",NA,"",NA,"",NA,NA,NA,NA,NA,NA,NA,"","",1,1,"2024-08-26_00h15.17.792","IAT(Formal)","2021.2.3","Win32",60.60606061,"space",3.5238,"i",0,1.218,0,0,0,12,1,"无私","e","",NA,"",NA,NA,NA,NA,NA,NA,NA,"","","",NA,NA,NA,NA,NA,NA,"",NA,"",NA,NA,NA,NA,NA,NA,NA,"",NA,"",NA,NA,NA,NA,NA,NA,NA,"","","",NA,"",NA,NA,NA,NA,NA,NA,NA,"",NA,"33"
"",NA,"",NA,"",NA,NA,NA,NA,NA,NA,NA,"","",1,1,"2024-08-26_00h15.17.792","IAT(Formal)","2021.2.3","Win32",60.60606061,"",NA,"i",1,0.8815,0,1,1,36,1,"野蛮","i","",NA,"",NA,NA,NA,NA,NA,NA,NA,"","","",NA,NA,NA,NA,NA,NA,"",NA,"",NA,NA,NA,NA,NA,NA,NA,"",NA,"",NA,NA,NA,NA,NA,NA,NA,"","","",NA,"",NA,NA,NA,NA,NA,NA,NA,"",NA,"33"
"",NA,"",NA,"",NA,NA,NA,NA,NA,NA,NA,"","",1,1,"2024-08-26_00h15.17.792","IAT(Formal)","2021.2.3","Win32",60.60606061,"",NA,"e",0,1.0197,0,2,2,31,1,"散漫","i","",NA,"",NA,NA,NA,NA,NA,NA,NA,"","","",NA,NA,NA,NA,NA,NA,"",NA,"",NA,NA,NA,NA,NA,NA,NA,"",NA,"",NA,NA,NA,NA,NA,NA,NA,"","","",NA,"",NA,NA,NA,NA,NA,NA,NA,"",NA,"33"
"",NA,"",NA,"",NA,NA,NA,NA,NA,NA,NA,"","",1,1,"2024-08-26_00h15.17.792","IAT(Formal)","2021.2.3","Win32",60.60606061,"",NA,"e",1,1.0342,0,3,3,4,1,"乐观","e","",NA,"",NA,NA,NA,NA,NA,NA,NA,"","","",NA,NA,NA,NA,NA,NA,"",NA,"",NA,NA,NA,NA,NA,NA,NA,"",NA,"",NA,NA,NA,NA,NA,NA,NA,"","","",NA,"",NA,NA,NA,NA,NA,NA,NA,"",NA,"33"
"",NA,"",NA,"",NA,NA,NA,NA,NA,NA,NA,"","",1,1,"2024-08-26_00h15.17.792","IAT(Formal)","2021.2.3","Win32",60.60606061,"",NA,"e",1,0.7585,0,4,4,2,1,"聪明","e","",NA,"",NA,NA,NA,NA,NA,NA,NA,"","","",NA,NA,NA,NA,NA,NA,"",NA,"",NA,NA,NA,NA,NA,NA,NA,"",NA,"",NA,NA,NA,NA,NA,NA,NA,"","","",NA,"",NA,NA,NA,NA,NA,NA,NA,"",NA,"33"
"",NA,"",NA,"",NA,NA,NA,NA,NA,NA,NA,"","",1,1,"2024-08-26_00h15.17.792","IAT(Formal)","2021.2.3","Win32",60.60606061,"",NA,"e",1,0.7075,0,5,5,15,1,"细腻","e","",NA,"",NA,NA,NA,NA,NA,NA,NA,"","","",NA,NA,NA,NA,NA,NA,"",NA,"",NA,NA,NA,NA,NA,NA,NA,"",NA,"",NA,NA,NA,NA,NA,NA,NA,"","","",NA,"",NA,NA,NA,NA,NA,NA,NA,"",NA,"33"
"",NA,"",NA,"",NA,NA,NA,NA,NA,NA,NA,"","",1,1,"2024-08-26_00h15.17.792","IAT(Formal)","2021.2.3","Win32",60.60606061,"",NA,"i",0,0.7503,0,6,6,18,1,"活泼","e","",NA,"",NA,NA,NA,NA,NA,NA,NA,"","","",NA,NA,NA,NA,NA,NA,"",NA,"",NA,NA,NA,NA,NA,NA,NA,"",NA,"",NA,NA,NA,NA,NA,NA,NA,"","","",NA,"",NA,NA,NA,NA,NA,NA,NA,"",NA,"33"
"",NA,"",NA,"",NA,NA,NA,NA,NA,NA,NA,"","",1,1,"2024-08-26_00h15.17.792","IAT(Formal)","2021.2.3","Win32",60.60606061,"",NA,"i",0,0.8697,0,7,7,17,1,"热情","e","",NA,"",NA,NA,NA,NA,NA,NA,NA,"","","",NA,NA,NA,NA,NA,NA,"",NA,"",NA,NA,NA,NA,NA,NA,NA,"",NA,"",NA,NA,NA,NA,NA,NA,NA,"","","",NA,"",NA,NA,NA,NA,NA,NA,NA,"",NA,"33"
"",NA,"",NA,"",NA,NA,NA,NA,NA,NA,NA,"","",1,1,"2024-08-26_00h15.17.792","IAT(Formal)","2021.2.3","Win32",60.60606061,"",NA,"e",0,0.732,0,8,8,26,1,"自卑","i","",NA,"",NA,NA,NA,NA,NA,NA,NA,"","","",NA,NA,NA,NA,NA,NA,"",NA,"",NA,NA,NA,NA,NA,NA,NA,"",NA,"",NA,NA,NA,NA,NA,NA,NA,"","","",NA,"",NA,NA,NA,NA,NA,NA,NA,"",NA,"33"
"",NA,"",NA,"",NA,NA,NA,NA,NA,NA,NA,"","",1,1,"2024-08-26_00h15.17.792","IAT(Formal)","2021.2.3","Win32",60.60606061,"",NA,"i",1,1.0306,0,9,9,35,1,"猖狂","i","",NA,"",NA,NA,NA,NA,NA,NA,NA,"","","",NA,NA,NA,NA,NA,NA,"",NA,"",NA,NA,NA,NA,NA,NA,NA,"",NA,"",NA,NA,NA,NA,NA,NA,NA,"","","",NA,"",NA,NA,NA,NA,NA,NA,NA,"",NA,"33"
"",NA,"",NA,"",NA,NA,NA,NA,NA,NA,NA,"","",1,1,"2024-08-26_00h15.17.792","IAT(Formal)","2021.2.3","Win32",60.60606061,"",NA,"e",1,1.12,0,10,10,11,1,"稳重","e","",NA,"",NA,NA,NA,NA,NA,NA,NA,"","","",NA,NA,NA,NA,NA,NA,"",NA,"",NA,NA,NA,NA,NA,NA,NA,"",NA,"",NA,NA,NA,NA,NA,NA,NA,"","","",NA,"",NA,NA,NA,NA,NA,NA,NA,"",NA,"33"
"",NA,"",NA,"",NA,NA,NA,NA,NA,NA,NA,"","",1,1,"2024-08-26_00h15.17.792","IAT(Formal)","2021.2.3","Win32",60.60606061,"",NA,"e",1,0.7478,0,11,11,19,1,"诚恳","e","",NA,"",NA,NA,NA,NA,NA,NA,NA,"","","",NA,NA,NA,NA,NA,NA,"",NA,"",NA,NA,NA,NA,NA,NA,NA,"",NA,"",NA,NA,NA,NA,NA,NA,NA,"","","",NA,"",NA,NA,NA,NA,NA,NA,NA,"",NA,"33"
"",NA,"",NA,"",NA,NA,NA,NA,NA,NA,NA,"","",1,1,"2024-08-26_00h15.17.792","IAT(Formal)","2021.2.3","Win32",60.60606061,"",NA,"e",0,0.5992,0,12,12,27,1,"傲慢","i","",NA,"",NA,NA,NA,NA,NA,NA,NA,"","","",NA,NA,NA,NA,NA,NA,"",NA,"",NA,NA,NA,NA,NA,NA,NA,"",NA,"",NA,NA,NA,NA,NA,NA,NA,"","","",NA,"",NA,NA,NA,NA,NA,NA,NA,"",NA,"33"
"",NA,"",NA,"",NA,NA,NA,NA,NA,NA,NA,"","",1,1,"2024-08-26_00h15.17.792","IAT(Formal)","2021.2.3","Win32",60.60606061,"",NA,"i",1,0.8027,0,13,13,29,1,"冒失","i","",NA,"",NA,NA,NA,NA,NA,NA,NA,"","","",NA,NA,NA,NA,NA,NA,"",NA,"",NA,NA,NA,NA,NA,NA,NA,"",NA,"",NA,NA,NA,NA,NA,NA,NA,"","","",NA,"",NA,NA,NA,NA,NA,NA,NA,"",NA,"33"
"",NA,"",NA,"",NA,NA,NA,NA,NA,NA,NA,"","",1,1,"2024-08-26_00h15.17.792","IAT(Formal)","2021.2.3","Win32",60.60606061,"",NA,"e",1,0.9715,0,14,14,7,1,"勇敢","e","",NA,"",NA,NA,NA,NA,NA,NA,NA,"","","",NA,NA,NA,NA,NA,NA,"",NA,"",NA,NA,NA,NA,NA,NA,NA,"",NA,"",NA,NA,NA,NA,NA,NA,NA,"","","",NA,"",NA,NA,NA,NA,NA,NA,NA,"",NA,"33"
"",NA,"",NA,"",NA,NA,NA,NA,NA,NA,NA,"","",1,1,"2024-08-26_00h15.17.792","IAT(Formal)","2021.2.3","Win32",60.60606061,"",NA,"i",1,0.6944,0,15,15,28,1,"鲁莽","i","",NA,"",NA,NA,NA,NA,NA,NA,NA,"","","",NA,NA,NA,NA,NA,NA,"",NA,"",NA,NA,NA,NA,NA,NA,NA,"",NA,"",NA,NA,NA,NA,NA,NA,NA,"","","",NA,"",NA,NA,NA,NA,NA,NA,NA,"",NA,"33"
"",NA,"",NA,"",NA,NA,NA,NA,NA,NA,NA,"","",1,1,"2024-08-26_00h15.17.792","IAT(Formal)","2021.2.3","Win32",60.60606061,"",NA,"e",1,0.6809,0,16,16,14,1,"朴实","e","",NA,"",NA,NA,NA,NA,NA,NA,NA,"","","",NA,NA,NA,NA,NA,NA,"",NA,"",NA,NA,NA,NA,NA,NA,NA,"",NA,"",NA,NA,NA,NA,NA,NA,NA,"","","",NA,"",NA,NA,NA,NA,NA,NA,NA,"",NA,"33"
"",NA,"",NA,"",NA,NA,NA,NA,NA,NA,NA,"","",1,1,"2024-08-26_00h15.17.792","IAT(Formal)","2021.2.3","Win32",60.60606061,"",NA,"i",1,1.0198,0,17,17,32,1,"凶狠","i","",NA,"",NA,NA,NA,NA,NA,NA,NA,"","","",NA,NA,NA,NA,NA,NA,"",NA,"",NA,NA,NA,NA,NA,NA,NA,"",NA,"",NA,NA,NA,NA,NA,NA,NA,"","","",NA,"",NA,NA,NA,NA,NA,NA,NA,"",NA,"33"
"",NA,"",NA,"",NA,NA,NA,NA,NA,NA,NA,"","",1,1,"2024-08-26_00h15.17.792","IAT(Formal)","2021.2.3","Win32",60.60606061,"",NA,"i",0,0.5499,0,18,18,3,1,"杰出","e","",NA,"",NA,NA,NA,NA,NA,NA,NA,"","","",NA,NA,NA,NA,NA,NA,"",NA,"",NA,NA,NA,NA,NA,NA,NA,"",NA,"",NA,NA,NA,NA,NA,NA,NA,"","","",NA,"",NA,NA,NA,NA,NA,NA,NA,"",NA,"33"
"",NA,"",NA,"",NA,NA,NA,NA,NA,NA,NA,"","",1,1,"2024-08-26_00h15.17.792","IAT(Formal)","2021.2.3","Win32",60.60606061,"",NA,"i",1,0.913,0,19,19,30,1,"执拗","i","",NA,"",NA,NA,NA,NA,NA,NA,NA,"","","",NA,NA,NA,NA,NA,NA,"",NA,"",NA,NA,NA,NA,NA,NA,NA,"",NA,"",NA,NA,NA,NA,NA,NA,NA,"","","",NA,"",NA,NA,NA,NA,NA,NA,NA,"",NA,"33"
"",NA,"",NA,"",NA,NA,NA,NA,NA,NA,NA,"","",1,1,"2024-08-26_00h15.17.792","IAT(Formal)","2021.2.3","Win32",60.60606061,"",NA,"e",0,0.8352,0,20,20,34,1,"暴躁","i","",NA,"",NA,NA,NA,NA,NA,NA,NA,"","","",NA,NA,NA,NA,NA,NA,"",NA,"",NA,NA,NA,NA,NA,NA,NA,"",NA,"",NA,NA,NA,NA,NA,NA,NA,"","","",NA,"",NA,NA,NA,NA,NA,NA,NA,"",NA,"33"
"",NA,"",NA,"",NA,NA,NA,NA,NA,NA,NA,"","",1,1,"2024-08-26_00h15.17.792","IAT(Formal)","2021.2.3","Win32",60.60606061,"",NA,"e",1,0.7692,0,21,21,8,1,"勤奋","e","",NA,"",NA,NA,NA,NA,NA,NA,NA,"","","",NA,NA,NA,NA,NA,NA,"",NA,"",NA,NA,NA,NA,NA,NA,NA,"",NA,"",NA,NA,NA,NA,NA,NA,NA,"","","",NA,"",NA,NA,NA,NA,NA,NA,NA,"",NA,"33"
"",NA,"",NA,"",NA,NA,NA,NA,NA,NA,NA,"","",1,1,"2024-08-26_00h15.17.792","IAT(Formal)","2021.2.3","Win32",60.60606061,"",NA,"i",1,0.6969,0,22,22,39,1,"下贱","i","",NA,"",NA,NA,NA,NA,NA,NA,NA,"","","",NA,NA,NA,NA,NA,NA,"",NA,"",NA,NA,NA,NA,NA,NA,NA,"",NA,"",NA,NA,NA,NA,NA,NA,NA,"","","",NA,"",NA,NA,NA,NA,NA,NA,NA,"",NA,"33"
"",NA,"",NA,"",NA,NA,NA,NA,NA,NA,NA,"","",1,1,"2024-08-26_00h15.17.792","IAT(Formal)","2021.2.3","Win32",60.60606061,"",NA,"i",1,0.6693,0,23,23,20,1,"卑鄙","i","",NA,"",NA,NA,NA,NA,NA,NA,NA,"","","",NA,NA,NA,NA,NA,NA,"",NA,"",NA,NA,NA,NA,NA,NA,NA,"",NA,"",NA,NA,NA,NA,NA,NA,NA,"","","",NA,"",NA,NA,NA,NA,NA,NA,NA,"",NA,"33"
"",NA,"",NA,"",NA,NA,NA,NA,NA,NA,NA,"","",1,1,"2024-08-26_00h15.17.792","IAT(Formal)","2021.2.3","Win32",60.60606061,"",NA,"e",0,1.0993,0,24,24,33,1,"自私","i","",NA,"",NA,NA,NA,NA,NA,NA,NA,"","","",NA,NA,NA,NA,NA,NA,"",NA,"",NA,NA,NA,NA,NA,NA,NA,"",NA,"",NA,NA,NA,NA,NA,NA,NA,"","","",NA,"",NA,NA,NA,NA,NA,NA,NA,"",NA,"33"
"",NA,"",NA,"",NA,NA,NA,NA,NA,NA,NA,"","",1,1,"2024-08-26_00h15.17.792","IAT(Formal)","2021.2.3","Win32",60.60606061,"",NA,"e",1,0.7198,0,25,25,6,1,"正直","e","",NA,"",NA,NA,NA,NA,NA,NA,NA,"","","",NA,NA,NA,NA,NA,NA,"",NA,"",NA,NA,NA,NA,NA,NA,NA,"",NA,"",NA,NA,NA,NA,NA,NA,NA,"","","",NA,"",NA,NA,NA,NA,NA,NA,NA,"",NA,"33"
"",NA,"",NA,"",NA,NA,NA,NA,NA,NA,NA,"","",1,1,"2024-08-26_00h15.17.792","IAT(Formal)","2021.2.3","Win32",60.60606061,"",NA,"e",0,0.7305,0,26,26,24,1,"悲观","i","",NA,"",NA,NA,NA,NA,NA,NA,NA,"","","",NA,NA,NA,NA,NA,NA,"",NA,"",NA,NA,NA,NA,NA,NA,NA,"",NA,"",NA,NA,NA,NA,NA,NA,NA,"","","",NA,"",NA,NA,NA,NA,NA,NA,NA,"",NA,"33"
"",NA,"",NA,"",NA,NA,NA,NA,NA,NA,NA,"","",1,1,"2024-08-26_00h15.17.792","IAT(Formal)","2021.2.3","Win32",60.60606061,"",NA,"e",0,0.8551,0,27,27,25,1,"消极","i","",NA,"",NA,NA,NA,NA,NA,NA,NA,"","","",NA,NA,NA,NA,NA,NA,"",NA,"",NA,NA,NA,NA,NA,NA,NA,"",NA,"",NA,NA,NA,NA,NA,NA,NA,"","","",NA,"",NA,NA,NA,NA,NA,NA,NA,"",NA,"33"
"",NA,"",NA,"",NA,NA,NA,NA,NA,NA,NA,"","",1,1,"2024-08-26_00h15.17.792","IAT(Formal)","2021.2.3","Win32",60.60606061,"",NA,"i",1,0.8402,0,28,28,37,1,"固执","i","",NA,"",NA,NA,NA,NA,NA,NA,NA,"","","",NA,NA,NA,NA,NA,NA,"",NA,"",NA,NA,NA,NA,NA,NA,NA,"",NA,"",NA,NA,NA,NA,NA,NA,NA,"","","",NA,"",NA,NA,NA,NA,NA,NA,NA,"",NA,"33"
"",NA,"",NA,"",NA,NA,NA,NA,NA,NA,NA,"","",1,1,"2024-08-26_00h15.17.792","IAT(Formal)","2021.2.3","Win32",60.60606061,"",NA,"i",0,1.1808,0,29,29,0,1,"优秀","e","",NA,"",NA,NA,NA,NA,NA,NA,NA,"","","",NA,NA,NA,NA,NA,NA,"",NA,"",NA,NA,NA,NA,NA,NA,NA,"",NA,"",NA,NA,NA,NA,NA,NA,NA,"","","",NA,"",NA,NA,NA,NA,NA,NA,NA,"",NA,"33"
"",NA,"",NA,"",NA,NA,NA,NA,NA,NA,NA,"","",1,1,"2024-08-26_00h15.17.792","IAT(Formal)","2021.2.3","Win32",60.60606061,"",NA,"e",1,0.7517,0,30,30,9,1,"机智","e","",NA,"",NA,NA,NA,NA,NA,NA,NA,"","","",NA,NA,NA,NA,NA,NA,"",NA,"",NA,NA,NA,NA,NA,NA,NA,"",NA,"",NA,NA,NA,NA,NA,NA,NA,"","","",NA,"",NA,NA,NA,NA,NA,NA,NA,"",NA,"33"
"",NA,"",NA,"",NA,NA,NA,NA,NA,NA,NA,"","",1,1,"2024-08-26_00h15.17.792","IAT(Formal)","2021.2.3","Win32",60.60606061,"",NA,"e",0,0.7151,0,31,31,38,1,"轻率","i","",NA,"",NA,NA,NA,NA,NA,NA,NA,"","","",NA,NA,NA,NA,NA,NA,"",NA,"",NA,NA,NA,NA,NA,NA,NA,"",NA,"",NA,NA,NA,NA,NA,NA,NA,"","","",NA,"",NA,NA,NA,NA,NA,NA,NA,"",NA,"33"
"",NA,"",NA,"",NA,NA,NA,NA,NA,NA,NA,"","",1,1,"2024-08-26_00h15.17.792","IAT(Formal)","2021.2.3","Win32",60.60606061,"",NA,"e",1,0.6302,0,32,32,1,1,"崇高","e","",NA,"",NA,NA,NA,NA,NA,NA,NA,"","","",NA,NA,NA,NA,NA,NA,"",NA,"",NA,NA,NA,NA,NA,NA,NA,"",NA,"",NA,NA,NA,NA,NA,NA,NA,"","","",NA,"",NA,NA,NA,NA,NA,NA,NA,"",NA,"33"
"",NA,"",NA,"",NA,NA,NA,NA,NA,NA,NA,"","",1,1,"2024-08-26_00h15.17.792","IAT(Formal)","2021.2.3","Win32",60.60606061,"",NA,"i",1,0.7432,0,33,33,22,1,"愚蠢","i","",NA,"",NA,NA,NA,NA,NA,NA,NA,"","","",NA,NA,NA,NA,NA,NA,"",NA,"",NA,NA,NA,NA,NA,NA,NA,"",NA,"",NA,NA,NA,NA,NA,NA,NA,"","","",NA,"",NA,NA,NA,NA,NA,NA,NA,"",NA,"33"
"",NA,"",NA,"",NA,NA,NA,NA,NA,NA,NA,"","",1,1,"2024-08-26_00h15.17.792","IAT(Formal)","2021.2.3","Win32",60.60606061,"",NA,"i",0,0.6648,0,34,34,16,1,"冷静","e","",NA,"",NA,NA,NA,NA,NA,NA,NA,"","","",NA,NA,NA,NA,NA,NA,"",NA,"",NA,NA,NA,NA,NA,NA,NA,"",NA,"",NA,NA,NA,NA,NA,NA,NA,"","","",NA,"",NA,NA,NA,NA,NA,NA,NA,"",NA,"33"
"",NA,"",NA,"",NA,NA,NA,NA,NA,NA,NA,"","",1,1,"2024-08-26_00h15.17.792","IAT(Formal)","2021.2.3","Win32",60.60606061,"",NA,"i",0,0.5852,0,35,35,13,1,"公正","e","",NA,"",NA,NA,NA,NA,NA,NA,NA,"","","",NA,NA,NA,NA,NA,NA,"",NA,"",NA,NA,NA,NA,NA,NA,NA,"",NA,"",NA,NA,NA,NA,NA,NA,NA,"","","",NA,"",NA,NA,NA,NA,NA,NA,NA,"",NA,"33"
"",NA,"",NA,"",NA,NA,NA,NA,NA,NA,NA,"","",1,1,"2024-08-26_00h15.17.792","IAT(Formal)","2021.2.3","Win32",60.60606061,"",NA,"i",1,0.941,0,36,36,21,1,"虚伪","i","",NA,"",NA,NA,NA,NA,NA,NA,NA,"","","",NA,NA,NA,NA,NA,NA,"",NA,"",NA,NA,NA,NA,NA,NA,NA,"",NA,"",NA,NA,NA,NA,NA,NA,NA,"","","",NA,"",NA,NA,NA,NA,NA,NA,NA,"",NA,"33"
"",NA,"",NA,"",NA,NA,NA,NA,NA,NA,NA,"","",1,1,"2024-08-26_00h15.17.792","IAT(Formal)","2021.2.3","Win32",60.60606061,"",NA,"e",1,0.832,0,37,37,5,1,"诚实","e","",NA,"",NA,NA,NA,NA,NA,NA,NA,"","","",NA,NA,NA,NA,NA,NA,"",NA,"",NA,NA,NA,NA,NA,NA,NA,"",NA,"",NA,NA,NA,NA,NA,NA,NA,"","","",NA,"",NA,NA,NA,NA,NA,NA,NA,"",NA,"33"
"",NA,"",NA,"",NA,NA,NA,NA,NA,NA,NA,"","",1,1,"2024-08-26_00h15.17.792","IAT(Formal)","2021.2.3","Win32",60.60606061,"",NA,"i",1,1.1991,0,38,38,23,1,"刻薄","i","",NA,"",NA,NA,NA,NA,NA,NA,NA,"","","",NA,NA,NA,NA,NA,NA,"",NA,"",NA,NA,NA,NA,NA,NA,NA,"",NA,"",NA,NA,NA,NA,NA,NA,NA,"","","",NA,"",NA,NA,NA,NA,NA,NA,NA,"",NA,"33"
"",NA,"",NA,"",NA,NA,NA,NA,NA,NA,NA,"","",1,1,"2024-08-26_00h15.17.792","IAT(Formal)","2021.2.3","Win32",60.60606061,"",NA,"e",1,0.8782,0,39,39,10,1,"认真","e","",NA,"",NA,NA,NA,NA,NA,NA,NA,"","","",NA,NA,NA,NA,NA,NA,"",NA,"",NA,NA,NA,NA,NA,NA,NA,"",NA,"",NA,NA,NA,NA,NA,NA,NA,"","","",NA,"",NA,NA,NA,NA,NA,NA,NA,"",NA,"33"
"",NA,"",NA,"",NA,NA,NA,NA,NA,NA,NA,"","",1,1,"2024-08-26_00h15.17.792","IAT(Formal)","2021.2.3","Win32",60.60606061,"",NA,"",NA,NA,NA,NA,NA,NA,NA,"","","space",17.6772,"e",1,0.9004,0,0,0,63,1,"自己","e","",NA,NA,NA,NA,NA,NA,"",NA,"",NA,NA,NA,NA,NA,NA,NA,"",NA,"",NA,NA,NA,NA,NA,NA,NA,"","","",NA,"",NA,NA,NA,NA,NA,NA,NA,"",NA,"33"
"",NA,"",NA,"",NA,NA,NA,NA,NA,NA,NA,"","",1,1,"2024-08-26_00h15.17.792","IAT(Formal)","2021.2.3","Win32",60.60606061,"",NA,"",NA,NA,NA,NA,NA,NA,NA,"","","",NA,"e",1,0.7486,0,1,1,52,1,"我们","e","",NA,NA,NA,NA,NA,NA,"",NA,"",NA,NA,NA,NA,NA,NA,NA,"",NA,"",NA,NA,NA,NA,NA,NA,NA,"","","",NA,"",NA,NA,NA,NA,NA,NA,NA,"",NA,"33"
"",NA,"",NA,"",NA,NA,NA,NA,NA,NA,NA,"","",1,1,"2024-08-26_00h15.17.792","IAT(Formal)","2021.2.3","Win32",60.60606061,"",NA,"",NA,NA,NA,NA,NA,NA,NA,"","","",NA,"e",1,0.651,0,2,2,64,1,"俺","e","",NA,NA,NA,NA,NA,NA,"",NA,"",NA,NA,NA,NA,NA,NA,NA,"",NA,"",NA,NA,NA,NA,NA,NA,NA,"","","",NA,"",NA,NA,NA,NA,NA,NA,NA,"",NA,"33"
"",NA,"",NA,"",NA,NA,NA,NA,NA,NA,NA,"","",1,1,"2024-08-26_00h15.17.792","IAT(Formal)","2021.2.3","Win32",60.60606061,"",NA,"",NA,NA,NA,NA,NA,NA,NA,"","","",NA,"e",1,0.5036,0,3,3,3,1,"自己","e","",NA,NA,NA,NA,NA,NA,"",NA,"",NA,NA,NA,NA,NA,NA,NA,"",NA,"",NA,NA,NA,NA,NA,NA,NA,"","","",NA,"",NA,NA,NA,NA,NA,NA,NA,"",NA,"33"
"",NA,"",NA,"",NA,NA,NA,NA,NA,NA,NA,"","",1,1,"2024-08-26_00h15.17.792","IAT(Formal)","2021.2.3","Win32",60.60606061,"",NA,"",NA,NA,NA,NA,NA,NA,NA,"","","",NA,"i",1,0.6194,0,4,4,66,1,"他们","i","",NA,NA,NA,NA,NA,NA,"",NA,"",NA,NA,NA,NA,NA,NA,NA,"",NA,"",NA,NA,NA,NA,NA,NA,NA,"","","",NA,"",NA,NA,NA,NA,NA,NA,NA,"",NA,"33"
"",NA,"",NA,"",NA,NA,NA,NA,NA,NA,NA,"","",1,1,"2024-08-26_00h15.17.792","IAT(Formal)","2021.2.3","Win32",60.60606061,"",NA,"",NA,NA,NA,NA,NA,NA,NA,"","","",NA,"i",0,0.5073,0,5,5,27,1,"热情","e","",NA,NA,NA,NA,NA,NA,"",NA,"",NA,NA,NA,NA,NA,NA,NA,"",NA,"",NA,NA,NA,NA,NA,NA,NA,"","","",NA,"",NA,NA,NA,NA,NA,NA,NA,"",NA,"33"
"",NA,"",NA,"",NA,NA,NA,NA,NA,NA,NA,"","",1,1,"2024-08-26_00h15.17.792","IAT(Formal)","2021.2.3","Win32",60.60606061,"",NA,"",NA,NA,NA,NA,NA,NA,NA,"","","",NA,"e",1,0.8763,0,6,6,17,1,"勇敢","e","",NA,NA,NA,NA,NA,NA,"",NA,"",NA,NA,NA,NA,NA,NA,NA,"",NA,"",NA,NA,NA,NA,NA,NA,NA,"","","",NA,"",NA,NA,NA,NA,NA,NA,NA,"",NA,"33"
"",NA,"",NA,"",NA,NA,NA,NA,NA,NA,NA,"","",1,1,"2024-08-26_00h15.17.792","IAT(Formal)","2021.2.3","Win32",60.60606061,"",NA,"",NA,NA,NA,NA,NA,NA,NA,"","","",NA,"e",1,0.6055,0,7,7,0,1,"我","e","",NA,NA,NA,NA,NA,NA,"",NA,"",NA,NA,NA,NA,NA,NA,NA,"",NA,"",NA,NA,NA,NA,NA,NA,NA,"","","",NA,"",NA,NA,NA,NA,NA,NA,NA,"",NA,"33"
"",NA,"",NA,"",NA,NA,NA,NA,NA,NA,NA,"","",1,1,"2024-08-26_00h15.17.792","IAT(Formal)","2021.2.3","Win32",60.60606061,"",NA,"",NA,NA,NA,NA,NA,NA,NA,"","","",NA,"e",1,0.53,0,8,8,2,1,"我们","e","",NA,NA,NA,NA,NA,NA,"",NA,"",NA,NA,NA,NA,NA,NA,NA,"",NA,"",NA,NA,NA,NA,NA,NA,NA,"","","",NA,"",NA,NA,NA,NA,NA,NA,NA,"",NA,"33"
"",NA,"",NA,"",NA,NA,NA,NA,NA,NA,NA,"","",1,1,"2024-08-26_00h15.17.792","IAT(Formal)","2021.2.3","Win32",60.60606061,"",NA,"",NA,NA,NA,NA,NA,NA,NA,"","","",NA,"i",1,1.2737,0,9,9,41,1,"散漫","i","",NA,NA,NA,NA,NA,NA,"",NA,"",NA,NA,NA,NA,NA,NA,NA,"",NA,"",NA,NA,NA,NA,NA,NA,NA,"","","",NA,"",NA,NA,NA,NA,NA,NA,NA,"",NA,"33"
"",NA,"",NA,"",NA,NA,NA,NA,NA,NA,NA,"","",1,1,"2024-08-26_00h15.17.792","IAT(Formal)","2021.2.3","Win32",60.60606061,"",NA,"",NA,NA,NA,NA,NA,NA,NA,"","","",NA,"i",1,0.6838,0,10,10,5,1,"他","i","",NA,NA,NA,NA,NA,NA,"",NA,"",NA,NA,NA,NA,NA,NA,NA,"",NA,"",NA,NA,NA,NA,NA,NA,NA,"","","",NA,"",NA,NA,NA,NA,NA,NA,NA,"",NA,"33"
"",NA,"",NA,"",NA,NA,NA,NA,NA,NA,NA,"","",1,1,"2024-08-26_00h15.17.792","IAT(Formal)","2021.2.3","Win32",60.60606061,"",NA,"",NA,NA,NA,NA,NA,NA,NA,"","","",NA,"i",1,0.7301,0,11,11,32,1,"愚蠢","i","",NA,NA,NA,NA,NA,NA,"",NA,"",NA,NA,NA,NA,NA,NA,NA,"",NA,"",NA,NA,NA,NA,NA,NA,NA,"","","",NA,"",NA,NA,NA,NA,NA,NA,NA,"",NA,"33"
"",NA,"",NA,"",NA,NA,NA,NA,NA,NA,NA,"","",1,1,"2024-08-26_00h15.17.792","IAT(Formal)","2021.2.3","Win32",60.60606061,"",NA,"",NA,NA,NA,NA,NA,NA,NA,"","","",NA,"e",1,1.2319,0,12,12,26,1,"冷静","e","",NA,NA,NA,NA,NA,NA,"",NA,"",NA,NA,NA,NA,NA,NA,NA,"",NA,"",NA,NA,NA,NA,NA,NA,NA,"","","",NA,"",NA,NA,NA,NA,NA,NA,NA,"",NA,"33"
"",NA,"",NA,"",NA,NA,NA,NA,NA,NA,NA,"","",1,1,"2024-08-26_00h15.17.792","IAT(Formal)","2021.2.3","Win32",60.60606061,"",NA,"",NA,NA,NA,NA,NA,NA,NA,"","","",NA,"i",1,0.6241,0,13,13,49,1,"下贱","i","",NA,NA,NA,NA,NA,NA,"",NA,"",NA,NA,NA,NA,NA,NA,NA,"",NA,"",NA,NA,NA,NA,NA,NA,NA,"","","",NA,"",NA,NA,NA,NA,NA,NA,NA,"",NA,"33"
"",NA,"",NA,"",NA,NA,NA,NA,NA,NA,NA,"","",1,1,"2024-08-26_00h15.17.792","IAT(Formal)","2021.2.3","Win32",60.60606061,"",NA,"",NA,NA,NA,NA,NA,NA,NA,"","","",NA,"i",1,0.782,0,14,14,78,1,"他人","i","",NA,NA,NA,NA,NA,NA,"",NA,"",NA,NA,NA,NA,NA,NA,NA,"",NA,"",NA,NA,NA,NA,NA,NA,NA,"","","",NA,"",NA,NA,NA,NA,NA,NA,NA,"",NA,"33"
"",NA,"",NA,"",NA,NA,NA,NA,NA,NA,NA,"","",1,1,"2024-08-26_00h15.17.792","IAT(Formal)","2021.2.3","Win32",60.60606061,"",NA,"",NA,NA,NA,NA,NA,NA,NA,"","","",NA,"e",1,0.9755,0,15,15,19,1,"机智","e","",NA,NA,NA,NA,NA,NA,"",NA,"",NA,NA,NA,NA,NA,NA,NA,"",NA,"",NA,NA,NA,NA,NA,NA,NA,"","","",NA,"",NA,NA,NA,NA,NA,NA,NA,"",NA,"33"
"",NA,"",NA,"",NA,NA,NA,NA,NA,NA,NA,"","",1,1,"2024-08-26_00h15.17.792","IAT(Formal)","2021.2.3","Win32",60.60606061,"",NA,"",NA,NA,NA,NA,NA,NA,NA,"","","",NA,"e",1,0.5874,0,16,16,10,1,"优秀","e","",NA,NA,NA,NA,NA,NA,"",NA,"",NA,NA,NA,NA,NA,NA,NA,"",NA,"",NA,NA,NA,NA,NA,NA,NA,"","","",NA,"",NA,NA,NA,NA,NA,NA,NA,"",NA,"33"
"",NA,"",NA,"",NA,NA,NA,NA,NA,NA,NA,"","",1,1,"2024-08-26_00h15.17.792","IAT(Formal)","2021.2.3","Win32",60.60606061,"",NA,"",NA,NA,NA,NA,NA,NA,NA,"","","",NA,"i",1,0.6843,0,17,17,7,1,"他的","i","",NA,NA,NA,NA,NA,NA,"",NA,"",NA,NA,NA,NA,NA,NA,NA,"",NA,"",NA,NA,NA,NA,NA,NA,NA,"","","",NA,"",NA,NA,NA,NA,NA,NA,NA,"",NA,"33"
"",NA,"",NA,"",NA,NA,NA,NA,NA,NA,NA,"","",1,1,"2024-08-26_00h15.17.792","IAT(Formal)","2021.2.3","Win32",60.60606061,"",NA,"",NA,NA,NA,NA,NA,NA,NA,"","","",NA,"i",1,0.5326,0,18,18,68,1,"他人","i","",NA,NA,NA,NA,NA,NA,"",NA,"",NA,NA,NA,NA,NA,NA,NA,"",NA,"",NA,NA,NA,NA,NA,NA,NA,"","","",NA,"",NA,NA,NA,NA,NA,NA,NA,"",NA,"33"
"",NA,"",NA,"",NA,NA,NA,NA,NA,NA,NA,"","",1,1,"2024-08-26_00h15.17.792","IAT(Formal)","2021.2.3","Win32",60.60606061,"",NA,"",NA,NA,NA,NA,NA,NA,NA,"","","",NA,"e",1,0.8189,0,19,19,29,1,"诚恳","e","",NA,NA,NA,NA,NA,NA,"",NA,"",NA,NA,NA,NA,NA,NA,NA,"",NA,"",NA,NA,NA,NA,NA,NA,NA,"","","",NA,"",NA,NA,NA,NA,NA,NA,NA,"",NA,"33"
"",NA,"",NA,"",NA,NA,NA,NA,NA,NA,NA,"","",1,1,"2024-08-26_00h15.17.792","IAT(Formal)","2021.2.3","Win32",60.60606061,"",NA,"",NA,NA,NA,NA,NA,NA,NA,"","","",NA,"e",1,0.4772,0,20,20,61,1,"我的","e","",NA,NA,NA,NA,NA,NA,"",NA,"",NA,NA,NA,NA,NA,NA,NA,"",NA,"",NA,NA,NA,NA,NA,NA,NA,"","","",NA,"",NA,NA,NA,NA,NA,NA,NA,"",NA,"33"
"",NA,"",NA,"",NA,NA,NA,NA,NA,NA,NA,"","",1,1,"2024-08-26_00h15.17.792","IAT(Formal)","2021.2.3","Win32",60.60606061,"",NA,"",NA,NA,NA,NA,NA,NA,NA,"","","",NA,"e",1,0.6419,0,21,21,12,1,"聪明","e","",NA,NA,NA,NA,NA,NA,"",NA,"",NA,NA,NA,NA,NA,NA,NA,"",NA,"",NA,NA,NA,NA,NA,NA,NA,"","","",NA,"",NA,NA,NA,NA,NA,NA,NA,"",NA,"33"
"",NA,"",NA,"",NA,NA,NA,NA,NA,NA,NA,"","",1,1,"2024-08-26_00h15.17.792","IAT(Formal)","2021.2.3","Win32",60.60606061,"",NA,"",NA,NA,NA,NA,NA,NA,NA,"","","",NA,"e",1,0.5502,0,22,22,72,1,"我们","e","",NA,NA,NA,NA,NA,NA,"",NA,"",NA,NA,NA,NA,NA,NA,NA,"",NA,"",NA,NA,NA,NA,NA,NA,NA,"","","",NA,"",NA,NA,NA,NA,NA,NA,NA,"",NA,"33"
"",NA,"",NA,"",NA,NA,NA,NA,NA,NA,NA,"","",1,1,"2024-08-26_00h15.17.792","IAT(Formal)","2021.2.3","Win32",60.60606061,"",NA,"",NA,NA,NA,NA,NA,NA,NA,"","","",NA,"i",1,0.9229,0,23,23,48,1,"轻率","i","",NA,NA,NA,NA,NA,NA,"",NA,"",NA,NA,NA,NA,NA,NA,NA,"",NA,"",NA,NA,NA,NA,NA,NA,NA,"","","",NA,"",NA,NA,NA,NA,NA,NA,NA,"",NA,"33"
"",NA,"",NA,"",NA,NA,NA,NA,NA,NA,NA,"","",1,1,"2024-08-26_00h15.17.792","IAT(Formal)","2021.2.3","Win32",60.60606061,"",NA,"",NA,NA,NA,NA,NA,NA,NA,"","","",NA,"i",1,0.5383,0,24,24,56,1,"他们","i","",NA,NA,NA,NA,NA,NA,"",NA,"",NA,NA,NA,NA,NA,NA,NA,"",NA,"",NA,NA,NA,NA,NA,NA,NA,"","","",NA,"",NA,NA,NA,NA,NA,NA,NA,"",NA,"33"
"",NA,"",NA,"",NA,NA,NA,NA,NA,NA,NA,"","",1,1,"2024-08-26_00h15.17.792","IAT(Formal)","2021.2.3","Win32",60.60606061,"",NA,"",NA,NA,NA,NA,NA,NA,NA,"","","",NA,"i",1,0.4537,0,25,25,57,1,"他的","i","",NA,NA,NA,NA,NA,NA,"",NA,"",NA,NA,NA,NA,NA,NA,NA,"",NA,"",NA,NA,NA,NA,NA,NA,NA,"","","",NA,"",NA,NA,NA,NA,NA,NA,NA,"",NA,"33"
"",NA,"",NA,"",NA,NA,NA,NA,NA,NA,NA,"","",1,1,"2024-08-26_00h15.17.792","IAT(Formal)","2021.2.3","Win32",60.60606061,"",NA,"",NA,NA,NA,NA,NA,NA,NA,"","","",NA,"e",1,0.7318,0,26,26,16,1,"正直","e","",NA,NA,NA,NA,NA,NA,"",NA,"",NA,NA,NA,NA,NA,NA,NA,"",NA,"",NA,NA,NA,NA,NA,NA,NA,"","","",NA,"",NA,NA,NA,NA,NA,NA,NA,"",NA,"33"
"",NA,"",NA,"",NA,NA,NA,NA,NA,NA,NA,"","",1,1,"2024-08-26_00h15.17.792","IAT(Formal)","2021.2.3","Win32",60.60606061,"",NA,"",NA,NA,NA,NA,NA,NA,NA,"","","",NA,"e",1,0.6959,0,27,27,53,1,"自己","e","",NA,NA,NA,NA,NA,NA,"",NA,"",NA,NA,NA,NA,NA,NA,NA,"",NA,"",NA,NA,NA,NA,NA,NA,NA,"","","",NA,"",NA,NA,NA,NA,NA,NA,NA,"",NA,"33"
"",NA,"",NA,"",NA,NA,NA,NA,NA,NA,NA,"","",1,1,"2024-08-26_00h15.17.792","IAT(Formal)","2021.2.3","Win32",60.60606061,"",NA,"",NA,NA,NA,NA,NA,NA,NA,"","","",NA,"i",1,0.6109,0,28,28,59,1,"其他","i","",NA,NA,NA,NA,NA,NA,"",NA,"",NA,NA,NA,NA,NA,NA,NA,"",NA,"",NA,NA,NA,NA,NA,NA,NA,"","","",NA,"",NA,NA,NA,NA,NA,NA,NA,"",NA,"33"
"",NA,"",NA,"",NA,NA,NA,NA,NA,NA,NA,"","",1,1,"2024-08-26_00h15.17.792","IAT(Formal)","2021.2.3","Win32",60.60606061,"",NA,"",NA,NA,NA,NA,NA,NA,NA,"","","",NA,"e",1,0.6112,0,29,29,74,1,"俺","e","",NA,NA,NA,NA,NA,NA,"",NA,"",NA,NA,NA,NA,NA,NA,NA,"",NA,"",NA,NA,NA,NA,NA,NA,NA,"","","",NA,"",NA,NA,NA,NA,NA,NA,NA,"",NA,"33"
"",NA,"",NA,"",NA,NA,NA,NA,NA,NA,NA,"","",1,1,"2024-08-26_00h15.17.792","IAT(Formal)","2021.2.3","Win32",60.60606061,"",NA,"",NA,NA,NA,NA,NA,NA,NA,"","","",NA,"i",1,0.8,0,30,30,34,1,"悲观","i","",NA,NA,NA,NA,NA,NA,"",NA,"",NA,NA,NA,NA,NA,NA,NA,"",NA,"",NA,NA,NA,NA,NA,NA,NA,"","","",NA,"",NA,NA,NA,NA,NA,NA,NA,"",NA,"33"
"",NA,"",NA,"",NA,NA,NA,NA,NA,NA,NA,"","",1,1,"2024-08-26_00h15.17.792","IAT(Formal)","2021.2.3","Win32",60.60606061,"",NA,"",NA,NA,NA,NA,NA,NA,NA,"","","",NA,"e",1,0.7441,0,31,31,51,1,"我的","e","",NA,NA,NA,NA,NA,NA,"",NA,"",NA,NA,NA,NA,NA,NA,NA,"",NA,"",NA,NA,NA,NA,NA,NA,NA,"","","",NA,"",NA,NA,NA,NA,NA,NA,NA,"",NA,"33"
"",NA,"",NA,"",NA,NA,NA,NA,NA,NA,NA,"","",1,1,"2024-08-26_00h15.17.792","IAT(Formal)","2021.2.3","Win32",60.60606061,"",NA,"",NA,NA,NA,NA,NA,NA,NA,"","","",NA,"i",1,0.5673,0,32,32,77,1,"他的","i","",NA,NA,NA,NA,NA,NA,"",NA,"",NA,NA,NA,NA,NA,NA,NA,"",NA,"",NA,NA,NA,NA,NA,NA,NA,"","","",NA,"",NA,NA,NA,NA,NA,NA,NA,"",NA,"33"
"",NA,"",NA,"",NA,NA,NA,NA,NA,NA,NA,"","",1,1,"2024-08-26_00h15.17.792","IAT(Formal)","2021.2.3","Win32",60.60606061,"",NA,"",NA,NA,NA,NA,NA,NA,NA,"","","",NA,"e",1,0.4853,0,33,33,50,1,"我","e","",NA,NA,NA,NA,NA,NA,"",NA,"",NA,NA,NA,NA,NA,NA,NA,"",NA,"",NA,NA,NA,NA,NA,NA,NA,"","","",NA,"",NA,NA,NA,NA,NA,NA,NA,"",NA,"33"
"",NA,"",NA,"",NA,NA,NA,NA,NA,NA,NA,"","",1,1,"2024-08-26_00h15.17.792","IAT(Formal)","2021.2.3","Win32",60.60606061,"",NA,"",NA,NA,NA,NA,NA,NA,NA,"","","",NA,"i",1,0.3919,0,34,34,55,1,"他","i","",NA,NA,NA,NA,NA,NA,"",NA,"",NA,NA,NA,NA,NA,NA,NA,"",NA,"",NA,NA,NA,NA,NA,NA,NA,"","","",NA,"",NA,NA,NA,NA,NA,NA,NA,"",NA,"33"
"",NA,"",NA,"",NA,NA,NA,NA,NA,NA,NA,"","",1,1,"2024-08-26_00h15.17.792","IAT(Formal)","2021.2.3","Win32",60.60606061,"",NA,"",NA,NA,NA,NA,NA,NA,NA,"","","",NA,"i",1,1.0323,0,35,35,39,1,"冒失","i","",NA,NA,NA,NA,NA,NA,"",NA,"",NA,NA,NA,NA,NA,NA,NA,"",NA,"",NA,NA,NA,NA,NA,NA,NA,"","","",NA,"",NA,NA,NA,NA,NA,NA,NA,"",NA,"33"
"",NA,"",NA,"",NA,NA,NA,NA,NA,NA,NA,"","",1,1,"2024-08-26_00h15.17.792","IAT(Formal)","2021.2.3","Win32",60.60606061,"",NA,"",NA,NA,NA,NA,NA,NA,NA,"","","",NA,"i",1,0.8638,0,36,36,8,1,"他人","i","",NA,NA,NA,NA,NA,NA,"",NA,"",NA,NA,NA,NA,NA,NA,NA,"",NA,"",NA,NA,NA,NA,NA,NA,NA,"","","",NA,"",NA,NA,NA,NA,NA,NA,NA,"",NA,"33"
"",NA,"",NA,"",NA,NA,NA,NA,NA,NA,NA,"","",1,1,"2024-08-26_00h15.17.792","IAT(Formal)","2021.2.3","Win32",60.60606061,"",NA,"",NA,NA,NA,NA,NA,NA,NA,"","","",NA,"i",1,0.8578,0,37,37,31,1,"虚伪","i","",NA,NA,NA,NA,NA,NA,"",NA,"",NA,NA,NA,NA,NA,NA,NA,"",NA,"",NA,NA,NA,NA,NA,NA,NA,"","","",NA,"",NA,NA,NA,NA,NA,NA,NA,"",NA,"33"
"",NA,"",NA,"",NA,NA,NA,NA,NA,NA,NA,"","",1,1,"2024-08-26_00h15.17.792","IAT(Formal)","2021.2.3","Win32",60.60606061,"",NA,"",NA,NA,NA,NA,NA,NA,NA,"","","",NA,"e",1,0.5034,0,38,38,60,1,"我","e","",NA,NA,NA,NA,NA,NA,"",NA,"",NA,NA,NA,NA,NA,NA,NA,"",NA,"",NA,NA,NA,NA,NA,NA,NA,"","","",NA,"",NA,NA,NA,NA,NA,NA,NA,"",NA,"33"
"",NA,"",NA,"",NA,NA,NA,NA,NA,NA,NA,"","",1,1,"2024-08-26_00h15.17.792","IAT(Formal)","2021.2.3","Win32",60.60606061,"",NA,"",NA,NA,NA,NA,NA,NA,NA,"","","",NA,"i",1,0.951,0,39,39,36,1,"自卑","i","",NA,NA,NA,NA,NA,NA,"",NA,"",NA,NA,NA,NA,NA,NA,NA,"",NA,"",NA,NA,NA,NA,NA,NA,NA,"","","",NA,"",NA,NA,NA,NA,NA,NA,NA,"",NA,"33"
"",NA,"",NA,"",NA,NA,NA,NA,NA,NA,NA,"","",1,1,"2024-08-26_00h15.17.792","IAT(Formal)","2021.2.3","Win32",60.60606061,"",NA,"",NA,NA,NA,NA,NA,NA,NA,"","","",NA,"i",0,0.5816,0,40,40,22,1,"无私","e","",NA,NA,NA,NA,NA,NA,"",NA,"",NA,NA,NA,NA,NA,NA,NA,"",NA,"",NA,NA,NA,NA,NA,NA,NA,"","","",NA,"",NA,NA,NA,NA,NA,NA,NA,"",NA,"33"
"",NA,"",NA,"",NA,NA,NA,NA,NA,NA,NA,"","",1,1,"2024-08-26_00h15.17.792","IAT(Formal)","2021.2.3","Win32",60.60606061,"",NA,"",NA,NA,NA,NA,NA,NA,NA,"","","",NA,"e",1,0.7329,0,41,41,24,1,"朴实","e","",NA,NA,NA,NA,NA,NA,"",NA,"",NA,NA,NA,NA,NA,NA,NA,"",NA,"",NA,NA,NA,NA,NA,NA,NA,"","","",NA,"",NA,NA,NA,NA,NA,NA,NA,"",NA,"33"
"",NA,"",NA,"",NA,NA,NA,NA,NA,NA,NA,"","",1,1,"2024-08-26_00h15.17.792","IAT(Formal)","2021.2.3","Win32",60.60606061,"",NA,"",NA,NA,NA,NA,NA,NA,NA,"","","",NA,"e",1,1.0042,0,42,42,25,1,"细腻","e","",NA,NA,NA,NA,NA,NA,"",NA,"",NA,NA,NA,NA,NA,NA,NA,"",NA,"",NA,NA,NA,NA,NA,NA,NA,"","","",NA,"",NA,NA,NA,NA,NA,NA,NA,"",NA,"33"
"",NA,"",NA,"",NA,NA,NA,NA,NA,NA,NA,"","",1,1,"2024-08-26_00h15.17.792","IAT(Formal)","2021.2.3","Win32",60.60606061,"",NA,"",NA,NA,NA,NA,NA,NA,NA,"","","",NA,"i",1,0.5661,0,43,43,58,1,"他人","i","",NA,NA,NA,NA,NA,NA,"",NA,"",NA,NA,NA,NA,NA,NA,NA,"",NA,"",NA,NA,NA,NA,NA,NA,NA,"","","",NA,"",NA,NA,NA,NA,NA,NA,NA,"",NA,"33"
"",NA,"",NA,"",NA,NA,NA,NA,NA,NA,NA,"","",1,1,"2024-08-26_00h15.17.792","IAT(Formal)","2021.2.3","Win32",60.60606061,"",NA,"",NA,NA,NA,NA,NA,NA,NA,"","","",NA,"e",1,0.7831,0,44,44,14,1,"乐观","e","",NA,NA,NA,NA,NA,NA,"",NA,"",NA,NA,NA,NA,NA,NA,NA,"",NA,"",NA,NA,NA,NA,NA,NA,NA,"","","",NA,"",NA,NA,NA,NA,NA,NA,NA,"",NA,"33"
"",NA,"",NA,"",NA,NA,NA,NA,NA,NA,NA,"","",1,1,"2024-08-26_00h15.17.792","IAT(Formal)","2021.2.3","Win32",60.60606061,"",NA,"",NA,NA,NA,NA,NA,NA,NA,"","","",NA,"i",1,0.8025,0,45,45,37,1,"傲慢","i","",NA,NA,NA,NA,NA,NA,"",NA,"",NA,NA,NA,NA,NA,NA,NA,"",NA,"",NA,NA,NA,NA,NA,NA,NA,"","","",NA,"",NA,NA,NA,NA,NA,NA,NA,"",NA,"33"
"",NA,"",NA,"",NA,NA,NA,NA,NA,NA,NA,"","",1,1,"2024-08-26_00h15.17.792","IAT(Formal)","2021.2.3","Win32",60.60606061,"",NA,"",NA,NA,NA,NA,NA,NA,NA,"","","",NA,"i",1,0.9263,0,46,46,42,1,"凶狠","i","",NA,NA,NA,NA,NA,NA,"",NA,"",NA,NA,NA,NA,NA,NA,NA,"",NA,"",NA,NA,NA,NA,NA,NA,NA,"","","",NA,"",NA,NA,NA,NA,NA,NA,NA,"",NA,"33"
"",NA,"",NA,"",NA,NA,NA,NA,NA,NA,NA,"","",1,1,"2024-08-26_00h15.17.792","IAT(Formal)","2021.2.3","Win32",60.60606061,"",NA,"",NA,NA,NA,NA,NA,NA,NA,"","","",NA,"i",1,0.6722,0,47,47,47,1,"固执","i","",NA,NA,NA,NA,NA,NA,"",NA,"",NA,NA,NA,NA,NA,NA,NA,"",NA,"",NA,NA,NA,NA,NA,NA,NA,"","","",NA,"",NA,NA,NA,NA,NA,NA,NA,"",NA,"33"
"",NA,"",NA,"",NA,NA,NA,NA,NA,NA,NA,"","",1,1,"2024-08-26_00h15.17.792","IAT(Formal)","2021.2.3","Win32",60.60606061,"",NA,"",NA,NA,NA,NA,NA,NA,NA,"","","",NA,"i",1,1.2911,0,48,48,43,1,"自私","i","",NA,NA,NA,NA,NA,NA,"",NA,"",NA,NA,NA,NA,NA,NA,NA,"",NA,"",NA,NA,NA,NA,NA,NA,NA,"","","",NA,"",NA,NA,NA,NA,NA,NA,NA,"",NA,"33"
"",NA,"",NA,"",NA,NA,NA,NA,NA,NA,NA,"","",1,1,"2024-08-26_00h15.17.792","IAT(Formal)","2021.2.3","Win32",60.60606061,"",NA,"",NA,NA,NA,NA,NA,NA,NA,"","","",NA,"i",1,0.6992,0,49,49,79,1,"其他","i","",NA,NA,NA,NA,NA,NA,"",NA,"",NA,NA,NA,NA,NA,NA,NA,"",NA,"",NA,NA,NA,NA,NA,NA,NA,"","","",NA,"",NA,NA,NA,NA,NA,NA,NA,"",NA,"33"
"",NA,"",NA,"",NA,NA,NA,NA,NA,NA,NA,"","",1,1,"2024-08-26_00h15.17.792","IAT(Formal)","2021.2.3","Win32",60.60606061,"",NA,"",NA,NA,NA,NA,NA,NA,NA,"","","",NA,"e",1,0.5564,0,50,50,70,1,"我","e","",NA,NA,NA,NA,NA,NA,"",NA,"",NA,NA,NA,NA,NA,NA,NA,"",NA,"",NA,NA,NA,NA,NA,NA,NA,"","","",NA,"",NA,NA,NA,NA,NA,NA,NA,"",NA,"33"
"",NA,"",NA,"",NA,NA,NA,NA,NA,NA,NA,"","",1,1,"2024-08-26_00h15.17.792","IAT(Formal)","2021.2.3","Win32",60.60606061,"",NA,"",NA,NA,NA,NA,NA,NA,NA,"","","",NA,"e",1,0.8648,0,51,51,28,1,"活泼","e","",NA,NA,NA,NA,NA,NA,"",NA,"",NA,NA,NA,NA,NA,NA,NA,"",NA,"",NA,NA,NA,NA,NA,NA,NA,"","","",NA,"",NA,NA,NA,NA,NA,NA,NA,"",NA,"33"
"",NA,"",NA,"",NA,NA,NA,NA,NA,NA,NA,"","",1,1,"2024-08-26_00h15.17.792","IAT(Formal)","2021.2.3","Win32",60.60606061,"",NA,"",NA,NA,NA,NA,NA,NA,NA,"","","",NA,"e",1,0.6483,0,52,52,15,1,"诚实","e","",NA,NA,NA,NA,NA,NA,"",NA,"",NA,NA,NA,NA,NA,NA,NA,"",NA,"",NA,NA,NA,NA,NA,NA,NA,"","","",NA,"",NA,NA,NA,NA,NA,NA,NA,"",NA,"33"
"",NA,"",NA,"",NA,NA,NA,NA,NA,NA,NA,"","",1,1,"2024-08-26_00h15.17.792","IAT(Formal)","2021.2.3","Win32",60.60606061,"",NA,"",NA,NA,NA,NA,NA,NA,NA,"","","",NA,"e",1,0.7983,0,53,53,62,1,"我们","e","",NA,NA,NA,NA,NA,NA,"",NA,"",NA,NA,NA,NA,NA,NA,NA,"",NA,"",NA,NA,NA,NA,NA,NA,NA,"","","",NA,"",NA,NA,NA,NA,NA,NA,NA,"",NA,"33"
"",NA,"",NA,"",NA,NA,NA,NA,NA,NA,NA,"","",1,1,"2024-08-26_00h15.17.792","IAT(Formal)","2021.2.3","Win32",60.60606061,"",NA,"",NA,NA,NA,NA,NA,NA,NA,"","","",NA,"i",1,0.6415,0,54,54,6,1,"他们","i","",NA,NA,NA,NA,NA,NA,"",NA,"",NA,NA,NA,NA,NA,NA,NA,"",NA,"",NA,NA,NA,NA,NA,NA,NA,"","","",NA,"",NA,NA,NA,NA,NA,NA,NA,"",NA,"33"
"",NA,"",NA,"",NA,NA,NA,NA,NA,NA,NA,"","",1,1,"2024-08-26_00h15.17.792","IAT(Formal)","2021.2.3","Win32",60.60606061,"",NA,"",NA,NA,NA,NA,NA,NA,NA,"","","",NA,"e",1,0.8149,0,55,55,23,1,"公正","e","",NA,NA,NA,NA,NA,NA,"",NA,"",NA,NA,NA,NA,NA,NA,NA,"",NA,"",NA,NA,NA,NA,NA,NA,NA,"","","",NA,"",NA,NA,NA,NA,NA,NA,NA,"",NA,"33"
"",NA,"",NA,"",NA,NA,NA,NA,NA,NA,NA,"","",1,1,"2024-08-26_00h15.17.792","IAT(Formal)","2021.2.3","Win32",60.60606061,"",NA,"",NA,NA,NA,NA,NA,NA,NA,"","","",NA,"e",1,0.5487,0,56,56,54,1,"俺","e","",NA,NA,NA,NA,NA,NA,"",NA,"",NA,NA,NA,NA,NA,NA,NA,"",NA,"",NA,NA,NA,NA,NA,NA,NA,"","","",NA,"",NA,NA,NA,NA,NA,NA,NA,"",NA,"33"
"",NA,"",NA,"",NA,NA,NA,NA,NA,NA,NA,"","",1,1,"2024-08-26_00h15.17.792","IAT(Formal)","2021.2.3","Win32",60.60606061,"",NA,"",NA,NA,NA,NA,NA,NA,NA,"","","",NA,"i",1,0.5327,0,57,57,75,1,"他","i","",NA,NA,NA,NA,NA,NA,"",NA,"",NA,NA,NA,NA,NA,NA,NA,"",NA,"",NA,NA,NA,NA,NA,NA,NA,"","","",NA,"",NA,NA,NA,NA,NA,NA,NA,"",NA,"33"
"",NA,"",NA,"",NA,NA,NA,NA,NA,NA,NA,"","",1,1,"2024-08-26_00h15.17.792","IAT(Formal)","2021.2.3","Win32",60.60606061,"",NA,"",NA,NA,NA,NA,NA,NA,NA,"","","",NA,"e",1,0.6382,0,58,58,71,1,"我的","e","",NA,NA,NA,NA,NA,NA,"",NA,"",NA,NA,NA,NA,NA,NA,NA,"",NA,"",NA,NA,NA,NA,NA,NA,NA,"","","",NA,"",NA,NA,NA,NA,NA,NA,NA,"",NA,"33"
"",NA,"",NA,"",NA,NA,NA,NA,NA,NA,NA,"","",1,1,"2024-08-26_00h15.17.792","IAT(Formal)","2021.2.3","Win32",60.60606061,"",NA,"",NA,NA,NA,NA,NA,NA,NA,"","","",NA,"e",1,0.5844,0,59,59,4,1,"俺","e","",NA,NA,NA,NA,NA,NA,"",NA,"",NA,NA,NA,NA,NA,NA,NA,"",NA,"",NA,NA,NA,NA,NA,NA,NA,"","","",NA,"",NA,NA,NA,NA,NA,NA,NA,"",NA,"33"
"",NA,"",NA,"",NA,NA,NA,NA,NA,NA,NA,"","",1,1,"2024-08-26_00h15.17.792","IAT(Formal)","2021.2.3","Win32",60.60606061,"",NA,"",NA,NA,NA,NA,NA,NA,NA,"","","",NA,"e",1,0.651,0,60,60,1,1,"我的","e","",NA,NA,NA,NA,NA,NA,"",NA,"",NA,NA,NA,NA,NA,NA,NA,"",NA,"",NA,NA,NA,NA,NA,NA,NA,"","","",NA,"",NA,NA,NA,NA,NA,NA,NA,"",NA,"33"
"",NA,"",NA,"",NA,NA,NA,NA,NA,NA,NA,"","",1,1,"2024-08-26_00h15.17.792","IAT(Formal)","2021.2.3","Win32",60.60606061,"",NA,"",NA,NA,NA,NA,NA,NA,NA,"","","",NA,"i",1,0.577,0,61,61,9,1,"其他","i","",NA,NA,NA,NA,NA,NA,"",NA,"",NA,NA,NA,NA,NA,NA,NA,"",NA,"",NA,NA,NA,NA,NA,NA,NA,"","","",NA,"",NA,NA,NA,NA,NA,NA,NA,"",NA,"33"
"",NA,"",NA,"",NA,NA,NA,NA,NA,NA,NA,"","",1,1,"2024-08-26_00h15.17.792","IAT(Formal)","2021.2.3","Win32",60.60606061,"",NA,"",NA,NA,NA,NA,NA,NA,NA,"","","",NA,"i",1,0.6823,0,62,62,30,1,"卑鄙","i","",NA,NA,NA,NA,NA,NA,"",NA,"",NA,NA,NA,NA,NA,NA,NA,"",NA,"",NA,NA,NA,NA,NA,NA,NA,"","","",NA,"",NA,NA,NA,NA,NA,NA,NA,"",NA,"33"
"",NA,"",NA,"",NA,NA,NA,NA,NA,NA,NA,"","",1,1,"2024-08-26_00h15.17.792","IAT(Formal)","2021.2.3","Win32",60.60606061,"",NA,"",NA,NA,NA,NA,NA,NA,NA,"","","",NA,"i",1,0.568,0,63,63,69,1,"其他","i","",NA,NA,NA,NA,NA,NA,"",NA,"",NA,NA,NA,NA,NA,NA,NA,"",NA,"",NA,NA,NA,NA,NA,NA,NA,"","","",NA,"",NA,NA,NA,NA,NA,NA,NA,"",NA,"33"
"",NA,"",NA,"",NA,NA,NA,NA,NA,NA,NA,"","",1,1,"2024-08-26_00h15.17.792","IAT(Formal)","2021.2.3","Win32",60.60606061,"",NA,"",NA,NA,NA,NA,NA,NA,NA,"","","",NA,"i",1,0.6108,0,64,64,44,1,"暴躁","i","",NA,NA,NA,NA,NA,NA,"",NA,"",NA,NA,NA,NA,NA,NA,NA,"",NA,"",NA,NA,NA,NA,NA,NA,NA,"","","",NA,"",NA,NA,NA,NA,NA,NA,NA,"",NA,"33"
"",NA,"",NA,"",NA,NA,NA,NA,NA,NA,NA,"","",1,1,"2024-08-26_00h15.17.792","IAT(Formal)","2021.2.3","Win32",60.60606061,"",NA,"",NA,NA,NA,NA,NA,NA,NA,"","","",NA,"e",1,0.85,0,65,65,11,1,"崇高","e","",NA,NA,NA,NA,NA,NA,"",NA,"",NA,NA,NA,NA,NA,NA,NA,"",NA,"",NA,NA,NA,NA,NA,NA,NA,"","","",NA,"",NA,NA,NA,NA,NA,NA,NA,"",NA,"33"
"",NA,"",NA,"",NA,NA,NA,NA,NA,NA,NA,"","",1,1,"2024-08-26_00h15.17.792","IAT(Formal)","2021.2.3","Win32",60.60606061,"",NA,"",NA,NA,NA,NA,NA,NA,NA,"","","",NA,"i",1,0.6154,0,66,66,45,1,"猖狂","i","",NA,NA,NA,NA,NA,NA,"",NA,"",NA,NA,NA,NA,NA,NA,NA,"",NA,"",NA,NA,NA,NA,NA,NA,NA,"","","",NA,"",NA,NA,NA,NA,NA,NA,NA,"",NA,"33"
"",NA,"",NA,"",NA,NA,NA,NA,NA,NA,NA,"","",1,1,"2024-08-26_00h15.17.792","IAT(Formal)","2021.2.3","Win32",60.60606061,"",NA,"",NA,NA,NA,NA,NA,NA,NA,"","","",NA,"e",1,0.625,0,67,67,20,1,"认真","e","",NA,NA,NA,NA,NA,NA,"",NA,"",NA,NA,NA,NA,NA,NA,NA,"",NA,"",NA,NA,NA,NA,NA,NA,NA,"","","",NA,"",NA,NA,NA,NA,NA,NA,NA,"",NA,"33"
"",NA,"",NA,"",NA,NA,NA,NA,NA,NA,NA,"","",1,1,"2024-08-26_00h15.17.792","IAT(Formal)","2021.2.3","Win32",60.60606061,"",NA,"",NA,NA,NA,NA,NA,NA,NA,"","","",NA,"i",1,0.6496,0,68,68,65,1,"他","i","",NA,NA,NA,NA,NA,NA,"",NA,"",NA,NA,NA,NA,NA,NA,NA,"",NA,"",NA,NA,NA,NA,NA,NA,NA,"","","",NA,"",NA,NA,NA,NA,NA,NA,NA,"",NA,"33"
"",NA,"",NA,"",NA,NA,NA,NA,NA,NA,NA,"","",1,1,"2024-08-26_00h15.17.792","IAT(Formal)","2021.2.3","Win32",60.60606061,"",NA,"",NA,NA,NA,NA,NA,NA,NA,"","","",NA,"e",1,0.7263,0,69,69,13,1,"杰出","e","",NA,NA,NA,NA,NA,NA,"",NA,"",NA,NA,NA,NA,NA,NA,NA,"",NA,"",NA,NA,NA,NA,NA,NA,NA,"","","",NA,"",NA,NA,NA,NA,NA,NA,NA,"",NA,"33"
"",NA,"",NA,"",NA,NA,NA,NA,NA,NA,NA,"","",1,1,"2024-08-26_00h15.17.792","IAT(Formal)","2021.2.3","Win32",60.60606061,"",NA,"",NA,NA,NA,NA,NA,NA,NA,"","","",NA,"i",1,0.6499,0,70,70,40,1,"执拗","i","",NA,NA,NA,NA,NA,NA,"",NA,"",NA,NA,NA,NA,NA,NA,NA,"",NA,"",NA,NA,NA,NA,NA,NA,NA,"","","",NA,"",NA,NA,NA,NA,NA,NA,NA,"",NA,"33"
"",NA,"",NA,"",NA,NA,NA,NA,NA,NA,NA,"","",1,1,"2024-08-26_00h15.17.792","IAT(Formal)","2021.2.3","Win32",60.60606061,"",NA,"",NA,NA,NA,NA,NA,NA,NA,"","","",NA,"i",1,0.6335,0,71,71,33,1,"刻薄","i","",NA,NA,NA,NA,NA,NA,"",NA,"",NA,NA,NA,NA,NA,NA,NA,"",NA,"",NA,NA,NA,NA,NA,NA,NA,"","","",NA,"",NA,NA,NA,NA,NA,NA,NA,"",NA,"33"
"",NA,"",NA,"",NA,NA,NA,NA,NA,NA,NA,"","",1,1,"2024-08-26_00h15.17.792","IAT(Formal)","2021.2.3","Win32",60.60606061,"",NA,"",NA,NA,NA,NA,NA,NA,NA,"","","",NA,"i",1,0.6654,0,72,72,35,1,"消极","i","",NA,NA,NA,NA,NA,NA,"",NA,"",NA,NA,NA,NA,NA,NA,NA,"",NA,"",NA,NA,NA,NA,NA,NA,NA,"","","",NA,"",NA,NA,NA,NA,NA,NA,NA,"",NA,"33"
"",NA,"",NA,"",NA,NA,NA,NA,NA,NA,NA,"","",1,1,"2024-08-26_00h15.17.792","IAT(Formal)","2021.2.3","Win32",60.60606061,"",NA,"",NA,NA,NA,NA,NA,NA,NA,"","","",NA,"i",1,0.6561,0,73,73,67,1,"他的","i","",NA,NA,NA,NA,NA,NA,"",NA,"",NA,NA,NA,NA,NA,NA,NA,"",NA,"",NA,NA,NA,NA,NA,NA,NA,"","","",NA,"",NA,NA,NA,NA,NA,NA,NA,"",NA,"33"
"",NA,"",NA,"",NA,NA,NA,NA,NA,NA,NA,"","",1,1,"2024-08-26_00h15.17.792","IAT(Formal)","2021.2.3","Win32",60.60606061,"",NA,"",NA,NA,NA,NA,NA,NA,NA,"","","",NA,"e",1,0.5985,0,74,74,18,1,"勤奋","e","",NA,NA,NA,NA,NA,NA,"",NA,"",NA,NA,NA,NA,NA,NA,NA,"",NA,"",NA,NA,NA,NA,NA,NA,NA,"","","",NA,"",NA,NA,NA,NA,NA,NA,NA,"",NA,"33"
"",NA,"",NA,"",NA,NA,NA,NA,NA,NA,NA,"","",1,1,"2024-08-26_00h15.17.792","IAT(Formal)","2021.2.3","Win32",60.60606061,"",NA,"",NA,NA,NA,NA,NA,NA,NA,"","","",NA,"i",1,0.6193,0,75,75,46,1,"野蛮","i","",NA,NA,NA,NA,NA,NA,"",NA,"",NA,NA,NA,NA,NA,NA,NA,"",NA,"",NA,NA,NA,NA,NA,NA,NA,"","","",NA,"",NA,NA,NA,NA,NA,NA,NA,"",NA,"33"
"",NA,"",NA,"",NA,NA,NA,NA,NA,NA,NA,"","",1,1,"2024-08-26_00h15.17.792","IAT(Formal)","2021.2.3","Win32",60.60606061,"",NA,"",NA,NA,NA,NA,NA,NA,NA,"","","",NA,"i",1,0.7498,0,76,76,76,1,"他们","i","",NA,NA,NA,NA,NA,NA,"",NA,"",NA,NA,NA,NA,NA,NA,NA,"",NA,"",NA,NA,NA,NA,NA,NA,NA,"","","",NA,"",NA,NA,NA,NA,NA,NA,NA,"",NA,"33"
"",NA,"",NA,"",NA,NA,NA,NA,NA,NA,NA,"","",1,1,"2024-08-26_00h15.17.792","IAT(Formal)","2021.2.3","Win32",60.60606061,"",NA,"",NA,NA,NA,NA,NA,NA,NA,"","","",NA,"i",1,0.7382,0,77,77,38,1,"鲁莽","i","",NA,NA,NA,NA,NA,NA,"",NA,"",NA,NA,NA,NA,NA,NA,NA,"",NA,"",NA,NA,NA,NA,NA,NA,NA,"","","",NA,"",NA,NA,NA,NA,NA,NA,NA,"",NA,"33"
"",NA,"",NA,"",NA,NA,NA,NA,NA,NA,NA,"","",1,1,"2024-08-26_00h15.17.792","IAT(Formal)","2021.2.3","Win32",60.60606061,"",NA,"",NA,NA,NA,NA,NA,NA,NA,"","","",NA,"e",1,0.856,0,78,78,21,1,"稳重","e","",NA,NA,NA,NA,NA,NA,"",NA,"",NA,NA,NA,NA,NA,NA,NA,"",NA,"",NA,NA,NA,NA,NA,NA,NA,"","","",NA,"",NA,NA,NA,NA,NA,NA,NA,"",NA,"33"
"",NA,"",NA,"",NA,NA,NA,NA,NA,NA,NA,"","",1,1,"2024-08-26_00h15.17.792","IAT(Formal)","2021.2.3","Win32",60.60606061,"",NA,"",NA,NA,NA,NA,NA,NA,NA,"","","",NA,"e",1,0.6828,0,79,79,73,1,"自己","e","",NA,NA,NA,NA,NA,NA,"",NA,"",NA,NA,NA,NA,NA,NA,NA,"",NA,"",NA,NA,NA,NA,NA,NA,NA,"","","",NA,"",NA,NA,NA,NA,NA,NA,NA,"",NA,"33"
"",NA,"",NA,"",NA,NA,NA,NA,NA,NA,NA,"","",1,1,"2024-08-26_00h15.17.792","IAT(Formal)","2021.2.3","Win32",60.60606061,"",NA,"",NA,NA,NA,NA,NA,NA,NA,"","","",NA,"e",1,0.8525,NA,NA,NA,NA,NA,"杰出","e","space",7.9113,0,0,0,13,1,"",NA,"",NA,NA,NA,NA,NA,NA,NA,"",NA,"",NA,NA,NA,NA,NA,NA,NA,"","","",NA,"",NA,NA,NA,NA,NA,NA,NA,"",NA,"33"
"",NA,"",NA,"",NA,NA,NA,NA,NA,NA,NA,"","",1,1,"2024-08-26_00h15.17.792","IAT(Formal)","2021.2.3","Win32",60.60606061,"",NA,"",NA,NA,NA,NA,NA,NA,NA,"","","",NA,"e",1,0.9012,NA,NA,NA,NA,NA,"崇高","e","",NA,0,1,1,11,1,"",NA,"",NA,NA,NA,NA,NA,NA,NA,"",NA,"",NA,NA,NA,NA,NA,NA,NA,"","","",NA,"",NA,NA,NA,NA,NA,NA,NA,"",NA,"33"
"",NA,"",NA,"",NA,NA,NA,NA,NA,NA,NA,"","",1,1,"2024-08-26_00h15.17.792","IAT(Formal)","2021.2.3","Win32",60.60606061,"",NA,"",NA,NA,NA,NA,NA,NA,NA,"","","",NA,"i",1,0.7059,NA,NA,NA,NA,NA,"轻率","i","",NA,0,2,2,48,1,"",NA,"",NA,NA,NA,NA,NA,NA,NA,"",NA,"",NA,NA,NA,NA,NA,NA,NA,"","","",NA,"",NA,NA,NA,NA,NA,NA,NA,"",NA,"33"
"",NA,"",NA,"",NA,NA,NA,NA,NA,NA,NA,"","",1,1,"2024-08-26_00h15.17.792","IAT(Formal)","2021.2.3","Win32",60.60606061,"",NA,"",NA,NA,NA,NA,NA,NA,NA,"","","",NA,"e",1,0.6145,NA,NA,NA,NA,NA,"俺","e","",NA,0,3,3,64,1,"",NA,"",NA,NA,NA,NA,NA,NA,NA,"",NA,"",NA,NA,NA,NA,NA,NA,NA,"","","",NA,"",NA,NA,NA,NA,NA,NA,NA,"",NA,"33"
"",NA,"",NA,"",NA,NA,NA,NA,NA,NA,NA,"","",1,1,"2024-08-26_00h15.17.792","IAT(Formal)","2021.2.3","Win32",60.60606061,"",NA,"",NA,NA,NA,NA,NA,NA,NA,"","","",NA,"i",1,0.7069,NA,NA,NA,NA,NA,"他们","i","",NA,0,4,4,6,1,"",NA,"",NA,NA,NA,NA,NA,NA,NA,"",NA,"",NA,NA,NA,NA,NA,NA,NA,"","","",NA,"",NA,NA,NA,NA,NA,NA,NA,"",NA,"33"
"",NA,"",NA,"",NA,NA,NA,NA,NA,NA,NA,"","",1,1,"2024-08-26_00h15.17.792","IAT(Formal)","2021.2.3","Win32",60.60606061,"",NA,"",NA,NA,NA,NA,NA,NA,NA,"","","",NA,"e",1,0.5955,NA,NA,NA,NA,NA,"俺","e","",NA,0,5,5,54,1,"",NA,"",NA,NA,NA,NA,NA,NA,NA,"",NA,"",NA,NA,NA,NA,NA,NA,NA,"","","",NA,"",NA,NA,NA,NA,NA,NA,NA,"",NA,"33"
"",NA,"",NA,"",NA,NA,NA,NA,NA,NA,NA,"","",1,1,"2024-08-26_00h15.17.792","IAT(Formal)","2021.2.3","Win32",60.60606061,"",NA,"",NA,NA,NA,NA,NA,NA,NA,"","","",NA,"i",1,0.7168,NA,NA,NA,NA,NA,"猖狂","i","",NA,0,6,6,45,1,"",NA,"",NA,NA,NA,NA,NA,NA,NA,"",NA,"",NA,NA,NA,NA,NA,NA,NA,"","","",NA,"",NA,NA,NA,NA,NA,NA,NA,"",NA,"33"
"",NA,"",NA,"",NA,NA,NA,NA,NA,NA,NA,"","",1,1,"2024-08-26_00h15.17.792","IAT(Formal)","2021.2.3","Win32",60.60606061,"",NA,"",NA,NA,NA,NA,NA,NA,NA,"","","",NA,"i",1,0.6849,NA,NA,NA,NA,NA,"卑鄙","i","",NA,0,7,7,30,1,"",NA,"",NA,NA,NA,NA,NA,NA,NA,"",NA,"",NA,NA,NA,NA,NA,NA,NA,"","","",NA,"",NA,NA,NA,NA,NA,NA,NA,"",NA,"33"
"",NA,"",NA,"",NA,NA,NA,NA,NA,NA,NA,"","",1,1,"2024-08-26_00h15.17.792","IAT(Formal)","2021.2.3","Win32",60.60606061,"",NA,"",NA,NA,NA,NA,NA,NA,NA,"","","",NA,"i",1,0.4837,NA,NA,NA,NA,NA,"暴躁","i","",NA,0,8,8,44,1,"",NA,"",NA,NA,NA,NA,NA,NA,NA,"",NA,"",NA,NA,NA,NA,NA,NA,NA,"","","",NA,"",NA,NA,NA,NA,NA,NA,NA,"",NA,"33"
"",NA,"",NA,"",NA,NA,NA,NA,NA,NA,NA,"","",1,1,"2024-08-26_00h15.17.792","IAT(Formal)","2021.2.3","Win32",60.60606061,"",NA,"",NA,NA,NA,NA,NA,NA,NA,"","","",NA,"e",1,0.5335,NA,NA,NA,NA,NA,"自己","e","",NA,0,9,9,63,1,"",NA,"",NA,NA,NA,NA,NA,NA,NA,"",NA,"",NA,NA,NA,NA,NA,NA,NA,"","","",NA,"",NA,NA,NA,NA,NA,NA,NA,"",NA,"33"
"",NA,"",NA,"",NA,NA,NA,NA,NA,NA,NA,"","",1,1,"2024-08-26_00h15.17.792","IAT(Formal)","2021.2.3","Win32",60.60606061,"",NA,"",NA,NA,NA,NA,NA,NA,NA,"","","",NA,"i",1,0.6609,NA,NA,NA,NA,NA,"消极","i","",NA,0,10,10,35,1,"",NA,"",NA,NA,NA,NA,NA,NA,NA,"",NA,"",NA,NA,NA,NA,NA,NA,NA,"","","",NA,"",NA,NA,NA,NA,NA,NA,NA,"",NA,"33"
"",NA,"",NA,"",NA,NA,NA,NA,NA,NA,NA,"","",1,1,"2024-08-26_00h15.17.792","IAT(Formal)","2021.2.3","Win32",60.60606061,"",NA,"",NA,NA,NA,NA,NA,NA,NA,"","","",NA,"e",1,0.5839,NA,NA,NA,NA,NA,"俺","e","",NA,0,11,11,4,1,"",NA,"",NA,NA,NA,NA,NA,NA,NA,"",NA,"",NA,NA,NA,NA,NA,NA,NA,"","","",NA,"",NA,NA,NA,NA,NA,NA,NA,"",NA,"33"
"",NA,"",NA,"",NA,NA,NA,NA,NA,NA,NA,"","",1,1,"2024-08-26_00h15.17.792","IAT(Formal)","2021.2.3","Win32",60.60606061,"",NA,"",NA,NA,NA,NA,NA,NA,NA,"","","",NA,"i",1,0.7176,NA,NA,NA,NA,NA,"散漫","i","",NA,0,12,12,41,1,"",NA,"",NA,NA,NA,NA,NA,NA,NA,"",NA,"",NA,NA,NA,NA,NA,NA,NA,"","","",NA,"",NA,NA,NA,NA,NA,NA,NA,"",NA,"33"
"",NA,"",NA,"",NA,NA,NA,NA,NA,NA,NA,"","",1,1,"2024-08-26_00h15.17.792","IAT(Formal)","2021.2.3","Win32",60.60606061,"",NA,"",NA,NA,NA,NA,NA,NA,NA,"","","",NA,"i",1,0.584,NA,NA,NA,NA,NA,"傲慢","i","",NA,0,13,13,37,1,"",NA,"",NA,NA,NA,NA,NA,NA,NA,"",NA,"",NA,NA,NA,NA,NA,NA,NA,"","","",NA,"",NA,NA,NA,NA,NA,NA,NA,"",NA,"33"
"",NA,"",NA,"",NA,NA,NA,NA,NA,NA,NA,"","",1,1,"2024-08-26_00h15.17.792","IAT(Formal)","2021.2.3","Win32",60.60606061,"",NA,"",NA,NA,NA,NA,NA,NA,NA,"","","",NA,"e",1,0.6239,NA,NA,NA,NA,NA,"诚实","e","",NA,0,14,14,15,1,"",NA,"",NA,NA,NA,NA,NA,NA,NA,"",NA,"",NA,NA,NA,NA,NA,NA,NA,"","","",NA,"",NA,NA,NA,NA,NA,NA,NA,"",NA,"33"
"",NA,"",NA,"",NA,NA,NA,NA,NA,NA,NA,"","",1,1,"2024-08-26_00h15.17.792","IAT(Formal)","2021.2.3","Win32",60.60606061,"",NA,"",NA,NA,NA,NA,NA,NA,NA,"","","",NA,"i",1,0.5408,NA,NA,NA,NA,NA,"其他","i","",NA,0,15,15,79,1,"",NA,"",NA,NA,NA,NA,NA,NA,NA,"",NA,"",NA,NA,NA,NA,NA,NA,NA,"","","",NA,"",NA,NA,NA,NA,NA,NA,NA,"",NA,"33"
"",NA,"",NA,"",NA,NA,NA,NA,NA,NA,NA,"","",1,1,"2024-08-26_00h15.17.792","IAT(Formal)","2021.2.3","Win32",60.60606061,"",NA,"",NA,NA,NA,NA,NA,NA,NA,"","","",NA,"e",1,0.5491,NA,NA,NA,NA,NA,"自己","e","",NA,0,16,16,73,1,"",NA,"",NA,NA,NA,NA,NA,NA,NA,"",NA,"",NA,NA,NA,NA,NA,NA,NA,"","","",NA,"",NA,NA,NA,NA,NA,NA,NA,"",NA,"33"
"",NA,"",NA,"",NA,NA,NA,NA,NA,NA,NA,"","",1,1,"2024-08-26_00h15.17.792","IAT(Formal)","2021.2.3","Win32",60.60606061,"",NA,"",NA,NA,NA,NA,NA,NA,NA,"","","",NA,"e",1,0.6815,NA,NA,NA,NA,NA,"勤奋","e","",NA,0,17,17,18,1,"",NA,"",NA,NA,NA,NA,NA,NA,NA,"",NA,"",NA,NA,NA,NA,NA,NA,NA,"","","",NA,"",NA,NA,NA,NA,NA,NA,NA,"",NA,"33"
"",NA,"",NA,"",NA,NA,NA,NA,NA,NA,NA,"","",1,1,"2024-08-26_00h15.17.792","IAT(Formal)","2021.2.3","Win32",60.60606061,"",NA,"",NA,NA,NA,NA,NA,NA,NA,"","","",NA,"i",1,0.5847,NA,NA,NA,NA,NA,"其他","i","",NA,0,18,18,69,1,"",NA,"",NA,NA,NA,NA,NA,NA,NA,"",NA,"",NA,NA,NA,NA,NA,NA,NA,"","","",NA,"",NA,NA,NA,NA,NA,NA,NA,"",NA,"33"
"",NA,"",NA,"",NA,NA,NA,NA,NA,NA,NA,"","",1,1,"2024-08-26_00h15.17.792","IAT(Formal)","2021.2.3","Win32",60.60606061,"",NA,"",NA,NA,NA,NA,NA,NA,NA,"","","",NA,"i",1,0.5492,NA,NA,NA,NA,NA,"鲁莽","i","",NA,0,19,19,38,1,"",NA,"",NA,NA,NA,NA,NA,NA,NA,"",NA,"",NA,NA,NA,NA,NA,NA,NA,"","","",NA,"",NA,NA,NA,NA,NA,NA,NA,"",NA,"33"
"",NA,"",NA,"",NA,NA,NA,NA,NA,NA,NA,"","",1,1,"2024-08-26_00h15.17.792","IAT(Formal)","2021.2.3","Win32",60.60606061,"",NA,"",NA,NA,NA,NA,NA,NA,NA,"","","",NA,"e",1,0.5851,NA,NA,NA,NA,NA,"我","e","",NA,0,20,20,70,1,"",NA,"",NA,NA,NA,NA,NA,NA,NA,"",NA,"",NA,NA,NA,NA,NA,NA,NA,"","","",NA,"",NA,NA,NA,NA,NA,NA,NA,"",NA,"33"
"",NA,"",NA,"",NA,NA,NA,NA,NA,NA,NA,"","",1,1,"2024-08-26_00h15.17.792","IAT(Formal)","2021.2.3","Win32",60.60606061,"",NA,"",NA,NA,NA,NA,NA,NA,NA,"","","",NA,"i",0,0.3998,NA,NA,NA,NA,NA,"我们","e","",NA,0,21,21,62,1,"",NA,"",NA,NA,NA,NA,NA,NA,NA,"",NA,"",NA,NA,NA,NA,NA,NA,NA,"","","",NA,"",NA,NA,NA,NA,NA,NA,NA,"",NA,"33"
"",NA,"",NA,"",NA,NA,NA,NA,NA,NA,NA,"","",1,1,"2024-08-26_00h15.17.792","IAT(Formal)","2021.2.3","Win32",60.60606061,"",NA,"",NA,NA,NA,NA,NA,NA,NA,"","","",NA,"i",1,0.7341,NA,NA,NA,NA,NA,"悲观","i","",NA,0,22,22,34,1,"",NA,"",NA,NA,NA,NA,NA,NA,NA,"",NA,"",NA,NA,NA,NA,NA,NA,NA,"","","",NA,"",NA,NA,NA,NA,NA,NA,NA,"",NA,"33"
"",NA,"",NA,"",NA,NA,NA,NA,NA,NA,NA,"","",1,1,"2024-08-26_00h15.17.792","IAT(Formal)","2021.2.3","Win32",60.60606061,"",NA,"",NA,NA,NA,NA,NA,NA,NA,"","","",NA,"i",1,0.6506,NA,NA,NA,NA,NA,"凶狠","i","",NA,0,23,23,42,1,"",NA,"",NA,NA,NA,NA,NA,NA,NA,"",NA,"",NA,NA,NA,NA,NA,NA,NA,"","","",NA,"",NA,NA,NA,NA,NA,NA,NA,"",NA,"33"
"",NA,"",NA,"",NA,NA,NA,NA,NA,NA,NA,"","",1,1,"2024-08-26_00h15.17.792","IAT(Formal)","2021.2.3","Win32",60.60606061,"",NA,"",NA,NA,NA,NA,NA,NA,NA,"","","",NA,"e",1,0.7298,NA,NA,NA,NA,NA,"正直","e","",NA,0,24,24,16,1,"",NA,"",NA,NA,NA,NA,NA,NA,NA,"",NA,"",NA,NA,NA,NA,NA,NA,NA,"","","",NA,"",NA,NA,NA,NA,NA,NA,NA,"",NA,"33"
"",NA,"",NA,"",NA,NA,NA,NA,NA,NA,NA,"","",1,1,"2024-08-26_00h15.17.792","IAT(Formal)","2021.2.3","Win32",60.60606061,"",NA,"",NA,NA,NA,NA,NA,NA,NA,"","","",NA,"i",1,0.7817,NA,NA,NA,NA,NA,"他的","i","",NA,0,25,25,7,1,"",NA,"",NA,NA,NA,NA,NA,NA,NA,"",NA,"",NA,NA,NA,NA,NA,NA,NA,"","","",NA,"",NA,NA,NA,NA,NA,NA,NA,"",NA,"33"
"",NA,"",NA,"",NA,NA,NA,NA,NA,NA,NA,"","",1,1,"2024-08-26_00h15.17.792","IAT(Formal)","2021.2.3","Win32",60.60606061,"",NA,"",NA,NA,NA,NA,NA,NA,NA,"","","",NA,"e",1,0.4753,NA,NA,NA,NA,NA,"我的","e","",NA,0,26,26,61,1,"",NA,"",NA,NA,NA,NA,NA,NA,NA,"",NA,"",NA,NA,NA,NA,NA,NA,NA,"","","",NA,"",NA,NA,NA,NA,NA,NA,NA,"",NA,"33"
"",NA,"",NA,"",NA,NA,NA,NA,NA,NA,NA,"","",1,1,"2024-08-26_00h15.17.792","IAT(Formal)","2021.2.3","Win32",60.60606061,"",NA,"",NA,NA,NA,NA,NA,NA,NA,"","","",NA,"e",1,0.8817,NA,NA,NA,NA,NA,"稳重","e","",NA,0,27,27,21,1,"",NA,"",NA,NA,NA,NA,NA,NA,NA,"",NA,"",NA,NA,NA,NA,NA,NA,NA,"","","",NA,"",NA,NA,NA,NA,NA,NA,NA,"",NA,"33"
"",NA,"",NA,"",NA,NA,NA,NA,NA,NA,NA,"","",1,1,"2024-08-26_00h15.17.792","IAT(Formal)","2021.2.3","Win32",60.60606061,"",NA,"",NA,NA,NA,NA,NA,NA,NA,"","","",NA,"i",1,0.6326,NA,NA,NA,NA,NA,"他","i","",NA,0,28,28,55,1,"",NA,"",NA,NA,NA,NA,NA,NA,NA,"",NA,"",NA,NA,NA,NA,NA,NA,NA,"","","",NA,"",NA,NA,NA,NA,NA,NA,NA,"",NA,"33"
"",NA,"",NA,"",NA,NA,NA,NA,NA,NA,NA,"","",1,1,"2024-08-26_00h15.17.792","IAT(Formal)","2021.2.3","Win32",60.60606061,"",NA,"",NA,NA,NA,NA,NA,NA,NA,"","","",NA,"i",1,0.6578,NA,NA,NA,NA,NA,"下贱","i","",NA,0,29,29,49,1,"",NA,"",NA,NA,NA,NA,NA,NA,NA,"",NA,"",NA,NA,NA,NA,NA,NA,NA,"","","",NA,"",NA,NA,NA,NA,NA,NA,NA,"",NA,"33"
"",NA,"",NA,"",NA,NA,NA,NA,NA,NA,NA,"","",1,1,"2024-08-26_00h15.17.792","IAT(Formal)","2021.2.3","Win32",60.60606061,"",NA,"",NA,NA,NA,NA,NA,NA,NA,"","","",NA,"i",1,0.833,NA,NA,NA,NA,NA,"自私","i","",NA,0,30,30,43,1,"",NA,"",NA,NA,NA,NA,NA,NA,NA,"",NA,"",NA,NA,NA,NA,NA,NA,NA,"","","",NA,"",NA,NA,NA,NA,NA,NA,NA,"",NA,"33"
"",NA,"",NA,"",NA,NA,NA,NA,NA,NA,NA,"","",1,1,"2024-08-26_00h15.17.792","IAT(Formal)","2021.2.3","Win32",60.60606061,"",NA,"",NA,NA,NA,NA,NA,NA,NA,"","","",NA,"e",1,0.6668,NA,NA,NA,NA,NA,"勇敢","e","",NA,0,31,31,17,1,"",NA,"",NA,NA,NA,NA,NA,NA,NA,"",NA,"",NA,NA,NA,NA,NA,NA,NA,"","","",NA,"",NA,NA,NA,NA,NA,NA,NA,"",NA,"33"
"",NA,"",NA,"",NA,NA,NA,NA,NA,NA,NA,"","",1,1,"2024-08-26_00h15.17.792","IAT(Formal)","2021.2.3","Win32",60.60606061,"",NA,"",NA,NA,NA,NA,NA,NA,NA,"","","",NA,"i",1,0.8826,NA,NA,NA,NA,NA,"刻薄","i","",NA,0,32,32,33,1,"",NA,"",NA,NA,NA,NA,NA,NA,NA,"",NA,"",NA,NA,NA,NA,NA,NA,NA,"","","",NA,"",NA,NA,NA,NA,NA,NA,NA,"",NA,"33"
"",NA,"",NA,"",NA,NA,NA,NA,NA,NA,NA,"","",1,1,"2024-08-26_00h15.17.792","IAT(Formal)","2021.2.3","Win32",60.60606061,"",NA,"",NA,NA,NA,NA,NA,NA,NA,"","","",NA,"i",1,0.5565,NA,NA,NA,NA,NA,"执拗","i","",NA,0,33,33,40,1,"",NA,"",NA,NA,NA,NA,NA,NA,NA,"",NA,"",NA,NA,NA,NA,NA,NA,NA,"","","",NA,"",NA,NA,NA,NA,NA,NA,NA,"",NA,"33"
"",NA,"",NA,"",NA,NA,NA,NA,NA,NA,NA,"","",1,1,"2024-08-26_00h15.17.792","IAT(Formal)","2021.2.3","Win32",60.60606061,"",NA,"",NA,NA,NA,NA,NA,NA,NA,"","","",NA,"i",1,0.6369,NA,NA,NA,NA,NA,"他人","i","",NA,0,34,34,68,1,"",NA,"",NA,NA,NA,NA,NA,NA,NA,"",NA,"",NA,NA,NA,NA,NA,NA,NA,"","","",NA,"",NA,NA,NA,NA,NA,NA,NA,"",NA,"33"
"",NA,"",NA,"",NA,NA,NA,NA,NA,NA,NA,"","",1,1,"2024-08-26_00h15.17.792","IAT(Formal)","2021.2.3","Win32",60.60606061,"",NA,"",NA,NA,NA,NA,NA,NA,NA,"","","",NA,"e",1,0.7768,NA,NA,NA,NA,NA,"认真","e","",NA,0,35,35,20,1,"",NA,"",NA,NA,NA,NA,NA,NA,NA,"",NA,"",NA,NA,NA,NA,NA,NA,NA,"","","",NA,"",NA,NA,NA,NA,NA,NA,NA,"",NA,"33"
"",NA,"",NA,"",NA,NA,NA,NA,NA,NA,NA,"","",1,1,"2024-08-26_00h15.17.792","IAT(Formal)","2021.2.3","Win32",60.60606061,"",NA,"",NA,NA,NA,NA,NA,NA,NA,"","","",NA,"e",1,0.6668,NA,NA,NA,NA,NA,"优秀","e","",NA,0,36,36,10,1,"",NA,"",NA,NA,NA,NA,NA,NA,NA,"",NA,"",NA,NA,NA,NA,NA,NA,NA,"","","",NA,"",NA,NA,NA,NA,NA,NA,NA,"",NA,"33"
"",NA,"",NA,"",NA,NA,NA,NA,NA,NA,NA,"","",1,1,"2024-08-26_00h15.17.792","IAT(Formal)","2021.2.3","Win32",60.60606061,"",NA,"",NA,NA,NA,NA,NA,NA,NA,"","","",NA,"e",1,0.6347,NA,NA,NA,NA,NA,"热情","e","",NA,0,37,37,27,1,"",NA,"",NA,NA,NA,NA,NA,NA,NA,"",NA,"",NA,NA,NA,NA,NA,NA,NA,"","","",NA,"",NA,NA,NA,NA,NA,NA,NA,"",NA,"33"
"",NA,"",NA,"",NA,NA,NA,NA,NA,NA,NA,"","",1,1,"2024-08-26_00h15.17.792","IAT(Formal)","2021.2.3","Win32",60.60606061,"",NA,"",NA,NA,NA,NA,NA,NA,NA,"","","",NA,"i",1,0.7082,NA,NA,NA,NA,NA,"他","i","",NA,0,38,38,65,1,"",NA,"",NA,NA,NA,NA,NA,NA,NA,"",NA,"",NA,NA,NA,NA,NA,NA,NA,"","","",NA,"",NA,NA,NA,NA,NA,NA,NA,"",NA,"33"
"",NA,"",NA,"",NA,NA,NA,NA,NA,NA,NA,"","",1,1,"2024-08-26_00h15.17.792","IAT(Formal)","2021.2.3","Win32",60.60606061,"",NA,"",NA,NA,NA,NA,NA,NA,NA,"","","",NA,"e",1,0.6528,NA,NA,NA,NA,NA,"公正","e","",NA,0,39,39,23,1,"",NA,"",NA,NA,NA,NA,NA,NA,NA,"",NA,"",NA,NA,NA,NA,NA,NA,NA,"","","",NA,"",NA,NA,NA,NA,NA,NA,NA,"",NA,"33"
"",NA,"",NA,"",NA,NA,NA,NA,NA,NA,NA,"","",1,1,"2024-08-26_00h15.17.792","IAT(Formal)","2021.2.3","Win32",60.60606061,"",NA,"",NA,NA,NA,NA,NA,NA,NA,"","","",NA,"i",1,0.7203,NA,NA,NA,NA,NA,"虚伪","i","",NA,0,40,40,31,1,"",NA,"",NA,NA,NA,NA,NA,NA,NA,"",NA,"",NA,NA,NA,NA,NA,NA,NA,"","","",NA,"",NA,NA,NA,NA,NA,NA,NA,"",NA,"33"
"",NA,"",NA,"",NA,NA,NA,NA,NA,NA,NA,"","",1,1,"2024-08-26_00h15.17.792","IAT(Formal)","2021.2.3","Win32",60.60606061,"",NA,"",NA,NA,NA,NA,NA,NA,NA,"","","",NA,"e",1,0.8871,NA,NA,NA,NA,NA,"朴实","e","",NA,0,41,41,24,1,"",NA,"",NA,NA,NA,NA,NA,NA,NA,"",NA,"",NA,NA,NA,NA,NA,NA,NA,"","","",NA,"",NA,NA,NA,NA,NA,NA,NA,"",NA,"33"
"",NA,"",NA,"",NA,NA,NA,NA,NA,NA,NA,"","",1,1,"2024-08-26_00h15.17.792","IAT(Formal)","2021.2.3","Win32",60.60606061,"",NA,"",NA,NA,NA,NA,NA,NA,NA,"","","",NA,"i",1,0.6026,NA,NA,NA,NA,NA,"其他","i","",NA,0,42,42,9,1,"",NA,"",NA,NA,NA,NA,NA,NA,NA,"",NA,"",NA,NA,NA,NA,NA,NA,NA,"","","",NA,"",NA,NA,NA,NA,NA,NA,NA,"",NA,"33"
"",NA,"",NA,"",NA,NA,NA,NA,NA,NA,NA,"","",1,1,"2024-08-26_00h15.17.792","IAT(Formal)","2021.2.3","Win32",60.60606061,"",NA,"",NA,NA,NA,NA,NA,NA,NA,"","","",NA,"i",1,0.7592,NA,NA,NA,NA,NA,"自卑","i","",NA,0,43,43,36,1,"",NA,"",NA,NA,NA,NA,NA,NA,NA,"",NA,"",NA,NA,NA,NA,NA,NA,NA,"","","",NA,"",NA,NA,NA,NA,NA,NA,NA,"",NA,"33"
"",NA,"",NA,"",NA,NA,NA,NA,NA,NA,NA,"","",1,1,"2024-08-26_00h15.17.792","IAT(Formal)","2021.2.3","Win32",60.60606061,"",NA,"",NA,NA,NA,NA,NA,NA,NA,"","","",NA,"e",1,0.8974,NA,NA,NA,NA,NA,"无私","e","",NA,0,44,44,22,1,"",NA,"",NA,NA,NA,NA,NA,NA,NA,"",NA,"",NA,NA,NA,NA,NA,NA,NA,"","","",NA,"",NA,NA,NA,NA,NA,NA,NA,"",NA,"33"
"",NA,"",NA,"",NA,NA,NA,NA,NA,NA,NA,"","",1,1,"2024-08-26_00h15.17.792","IAT(Formal)","2021.2.3","Win32",60.60606061,"",NA,"",NA,NA,NA,NA,NA,NA,NA,"","","",NA,"e",1,0.8951,NA,NA,NA,NA,NA,"我的","e","",NA,0,45,45,1,1,"",NA,"",NA,NA,NA,NA,NA,NA,NA,"",NA,"",NA,NA,NA,NA,NA,NA,NA,"","","",NA,"",NA,NA,NA,NA,NA,NA,NA,"",NA,"33"
"",NA,"",NA,"",NA,NA,NA,NA,NA,NA,NA,"","",1,1,"2024-08-26_00h15.17.792","IAT(Formal)","2021.2.3","Win32",60.60606061,"",NA,"",NA,NA,NA,NA,NA,NA,NA,"","","",NA,"i",1,0.7506,NA,NA,NA,NA,NA,"野蛮","i","",NA,0,46,46,46,1,"",NA,"",NA,NA,NA,NA,NA,NA,NA,"",NA,"",NA,NA,NA,NA,NA,NA,NA,"","","",NA,"",NA,NA,NA,NA,NA,NA,NA,"",NA,"33"
"",NA,"",NA,"",NA,NA,NA,NA,NA,NA,NA,"","",1,1,"2024-08-26_00h15.17.792","IAT(Formal)","2021.2.3","Win32",60.60606061,"",NA,"",NA,NA,NA,NA,NA,NA,NA,"","","",NA,"i",1,0.7092,NA,NA,NA,NA,NA,"他的","i","",NA,0,47,47,67,1,"",NA,"",NA,NA,NA,NA,NA,NA,NA,"",NA,"",NA,NA,NA,NA,NA,NA,NA,"","","",NA,"",NA,NA,NA,NA,NA,NA,NA,"",NA,"33"
"",NA,"",NA,"",NA,NA,NA,NA,NA,NA,NA,"","",1,1,"2024-08-26_00h15.17.792","IAT(Formal)","2021.2.3","Win32",60.60606061,"",NA,"",NA,NA,NA,NA,NA,NA,NA,"","","",NA,"e",1,0.61,NA,NA,NA,NA,NA,"我们","e","",NA,0,48,48,2,1,"",NA,"",NA,NA,NA,NA,NA,NA,NA,"",NA,"",NA,NA,NA,NA,NA,NA,NA,"","","",NA,"",NA,NA,NA,NA,NA,NA,NA,"",NA,"33"
"",NA,"",NA,"",NA,NA,NA,NA,NA,NA,NA,"","",1,1,"2024-08-26_00h15.17.792","IAT(Formal)","2021.2.3","Win32",60.60606061,"",NA,"",NA,NA,NA,NA,NA,NA,NA,"","","",NA,"i",1,0.6215,NA,NA,NA,NA,NA,"他们","i","",NA,0,49,49,56,1,"",NA,"",NA,NA,NA,NA,NA,NA,NA,"",NA,"",NA,NA,NA,NA,NA,NA,NA,"","","",NA,"",NA,NA,NA,NA,NA,NA,NA,"",NA,"33"
"",NA,"",NA,"",NA,NA,NA,NA,NA,NA,NA,"","",1,1,"2024-08-26_00h15.17.792","IAT(Formal)","2021.2.3","Win32",60.60606061,"",NA,"",NA,NA,NA,NA,NA,NA,NA,"","","",NA,"e",1,0.8328,NA,NA,NA,NA,NA,"我","e","",NA,0,50,50,60,1,"",NA,"",NA,NA,NA,NA,NA,NA,NA,"",NA,"",NA,NA,NA,NA,NA,NA,NA,"","","",NA,"",NA,NA,NA,NA,NA,NA,NA,"",NA,"33"
"",NA,"",NA,"",NA,NA,NA,NA,NA,NA,NA,"","",1,1,"2024-08-26_00h15.17.792","IAT(Formal)","2021.2.3","Win32",60.60606061,"",NA,"",NA,NA,NA,NA,NA,NA,NA,"","","",NA,"i",1,1.1481,NA,NA,NA,NA,NA,"愚蠢","i","",NA,0,51,51,32,1,"",NA,"",NA,NA,NA,NA,NA,NA,NA,"",NA,"",NA,NA,NA,NA,NA,NA,NA,"","","",NA,"",NA,NA,NA,NA,NA,NA,NA,"",NA,"33"
"",NA,"",NA,"",NA,NA,NA,NA,NA,NA,NA,"","",1,1,"2024-08-26_00h15.17.792","IAT(Formal)","2021.2.3","Win32",60.60606061,"",NA,"",NA,NA,NA,NA,NA,NA,NA,"","","",NA,"e",1,0.6695,NA,NA,NA,NA,NA,"我的","e","",NA,0,52,52,51,1,"",NA,"",NA,NA,NA,NA,NA,NA,NA,"",NA,"",NA,NA,NA,NA,NA,NA,NA,"","","",NA,"",NA,NA,NA,NA,NA,NA,NA,"",NA,"33"
"",NA,"",NA,"",NA,NA,NA,NA,NA,NA,NA,"","",1,1,"2024-08-26_00h15.17.792","IAT(Formal)","2021.2.3","Win32",60.60606061,"",NA,"",NA,NA,NA,NA,NA,NA,NA,"","","",NA,"i",1,0.6843,NA,NA,NA,NA,NA,"固执","i","",NA,0,53,53,47,1,"",NA,"",NA,NA,NA,NA,NA,NA,NA,"",NA,"",NA,NA,NA,NA,NA,NA,NA,"","","",NA,"",NA,NA,NA,NA,NA,NA,NA,"",NA,"33"
"",NA,"",NA,"",NA,NA,NA,NA,NA,NA,NA,"","",1,1,"2024-08-26_00h15.17.792","IAT(Formal)","2021.2.3","Win32",60.60606061,"",NA,"",NA,NA,NA,NA,NA,NA,NA,"","","",NA,"e",1,0.8237,NA,NA,NA,NA,NA,"机智","e","",NA,0,54,54,19,1,"",NA,"",NA,NA,NA,NA,NA,NA,NA,"",NA,"",NA,NA,NA,NA,NA,NA,NA,"","","",NA,"",NA,NA,NA,NA,NA,NA,NA,"",NA,"33"
"",NA,"",NA,"",NA,NA,NA,NA,NA,NA,NA,"","",1,1,"2024-08-26_00h15.17.792","IAT(Formal)","2021.2.3","Win32",60.60606061,"",NA,"",NA,NA,NA,NA,NA,NA,NA,"","","",NA,"i",1,0.7501,NA,NA,NA,NA,NA,"他的","i","",NA,0,55,55,77,1,"",NA,"",NA,NA,NA,NA,NA,NA,NA,"",NA,"",NA,NA,NA,NA,NA,NA,NA,"","","",NA,"",NA,NA,NA,NA,NA,NA,NA,"",NA,"33"
"",NA,"",NA,"",NA,NA,NA,NA,NA,NA,NA,"","",1,1,"2024-08-26_00h15.17.792","IAT(Formal)","2021.2.3","Win32",60.60606061,"",NA,"",NA,NA,NA,NA,NA,NA,NA,"","","",NA,"e",1,0.5244,NA,NA,NA,NA,NA,"我的","e","",NA,0,56,56,71,1,"",NA,"",NA,NA,NA,NA,NA,NA,NA,"",NA,"",NA,NA,NA,NA,NA,NA,NA,"","","",NA,"",NA,NA,NA,NA,NA,NA,NA,"",NA,"33"
"",NA,"",NA,"",NA,NA,NA,NA,NA,NA,NA,"","",1,1,"2024-08-26_00h15.17.792","IAT(Formal)","2021.2.3","Win32",60.60606061,"",NA,"",NA,NA,NA,NA,NA,NA,NA,"","","",NA,"i",1,0.6804,NA,NA,NA,NA,NA,"他人","i","",NA,0,57,57,8,1,"",NA,"",NA,NA,NA,NA,NA,NA,NA,"",NA,"",NA,NA,NA,NA,NA,NA,NA,"","","",NA,"",NA,NA,NA,NA,NA,NA,NA,"",NA,"33"
"",NA,"",NA,"",NA,NA,NA,NA,NA,NA,NA,"","",1,1,"2024-08-26_00h15.17.792","IAT(Formal)","2021.2.3","Win32",60.60606061,"",NA,"",NA,NA,NA,NA,NA,NA,NA,"","","",NA,"e",1,0.5651,NA,NA,NA,NA,NA,"自己","e","",NA,0,58,58,53,1,"",NA,"",NA,NA,NA,NA,NA,NA,NA,"",NA,"",NA,NA,NA,NA,NA,NA,NA,"","","",NA,"",NA,NA,NA,NA,NA,NA,NA,"",NA,"33"
"",NA,"",NA,"",NA,NA,NA,NA,NA,NA,NA,"","",1,1,"2024-08-26_00h15.17.792","IAT(Formal)","2021.2.3","Win32",60.60606061,"",NA,"",NA,NA,NA,NA,NA,NA,NA,"","","",NA,"e",1,0.7568,NA,NA,NA,NA,NA,"诚恳","e","",NA,0,59,59,29,1,"",NA,"",NA,NA,NA,NA,NA,NA,NA,"",NA,"",NA,NA,NA,NA,NA,NA,NA,"","","",NA,"",NA,NA,NA,NA,NA,NA,NA,"",NA,"33"
"",NA,"",NA,"",NA,NA,NA,NA,NA,NA,NA,"","",1,1,"2024-08-26_00h15.17.792","IAT(Formal)","2021.2.3","Win32",60.60606061,"",NA,"",NA,NA,NA,NA,NA,NA,NA,"","","",NA,"e",1,0.5499,NA,NA,NA,NA,NA,"我们","e","",NA,0,60,60,72,1,"",NA,"",NA,NA,NA,NA,NA,NA,NA,"",NA,"",NA,NA,NA,NA,NA,NA,NA,"","","",NA,"",NA,NA,NA,NA,NA,NA,NA,"",NA,"33"
"",NA,"",NA,"",NA,NA,NA,NA,NA,NA,NA,"","",1,1,"2024-08-26_00h15.17.792","IAT(Formal)","2021.2.3","Win32",60.60606061,"",NA,"",NA,NA,NA,NA,NA,NA,NA,"","","",NA,"e",1,0.6676,NA,NA,NA,NA,NA,"自己","e","",NA,0,61,61,3,1,"",NA,"",NA,NA,NA,NA,NA,NA,NA,"",NA,"",NA,NA,NA,NA,NA,NA,NA,"","","",NA,"",NA,NA,NA,NA,NA,NA,NA,"",NA,"33"
"",NA,"",NA,"",NA,NA,NA,NA,NA,NA,NA,"","",1,1,"2024-08-26_00h15.17.792","IAT(Formal)","2021.2.3","Win32",60.60606061,"",NA,"",NA,NA,NA,NA,NA,NA,NA,"","","",NA,"e",1,0.4711,NA,NA,NA,NA,NA,"我","e","",NA,0,62,62,0,1,"",NA,"",NA,NA,NA,NA,NA,NA,NA,"",NA,"",NA,NA,NA,NA,NA,NA,NA,"","","",NA,"",NA,NA,NA,NA,NA,NA,NA,"",NA,"33"
"",NA,"",NA,"",NA,NA,NA,NA,NA,NA,NA,"","",1,1,"2024-08-26_00h15.17.792","IAT(Formal)","2021.2.3","Win32",60.60606061,"",NA,"",NA,NA,NA,NA,NA,NA,NA,"","","",NA,"e",1,0.6415,NA,NA,NA,NA,NA,"细腻","e","",NA,0,63,63,25,1,"",NA,"",NA,NA,NA,NA,NA,NA,NA,"",NA,"",NA,NA,NA,NA,NA,NA,NA,"","","",NA,"",NA,NA,NA,NA,NA,NA,NA,"",NA,"33"
"",NA,"",NA,"",NA,NA,NA,NA,NA,NA,NA,"","",1,1,"2024-08-26_00h15.17.792","IAT(Formal)","2021.2.3","Win32",60.60606061,"",NA,"",NA,NA,NA,NA,NA,NA,NA,"","","",NA,"i",1,0.6833,NA,NA,NA,NA,NA,"他们","i","",NA,0,64,64,76,1,"",NA,"",NA,NA,NA,NA,NA,NA,NA,"",NA,"",NA,NA,NA,NA,NA,NA,NA,"","","",NA,"",NA,NA,NA,NA,NA,NA,NA,"",NA,"33"
"",NA,"",NA,"",NA,NA,NA,NA,NA,NA,NA,"","",1,1,"2024-08-26_00h15.17.792","IAT(Formal)","2021.2.3","Win32",60.60606061,"",NA,"",NA,NA,NA,NA,NA,NA,NA,"","","",NA,"e",1,1.0495,NA,NA,NA,NA,NA,"乐观","e","",NA,0,65,65,14,1,"",NA,"",NA,NA,NA,NA,NA,NA,NA,"",NA,"",NA,NA,NA,NA,NA,NA,NA,"","","",NA,"",NA,NA,NA,NA,NA,NA,NA,"",NA,"33"
"",NA,"",NA,"",NA,NA,NA,NA,NA,NA,NA,"","",1,1,"2024-08-26_00h15.17.792","IAT(Formal)","2021.2.3","Win32",60.60606061,"",NA,"",NA,NA,NA,NA,NA,NA,NA,"","","",NA,"i",1,0.7169,NA,NA,NA,NA,NA,"冒失","i","",NA,0,66,66,39,1,"",NA,"",NA,NA,NA,NA,NA,NA,NA,"",NA,"",NA,NA,NA,NA,NA,NA,NA,"","","",NA,"",NA,NA,NA,NA,NA,NA,NA,"",NA,"33"
"",NA,"",NA,"",NA,NA,NA,NA,NA,NA,NA,"","",1,1,"2024-08-26_00h15.17.792","IAT(Formal)","2021.2.3","Win32",60.60606061,"",NA,"",NA,NA,NA,NA,NA,NA,NA,"","","",NA,"e",1,0.5343,NA,NA,NA,NA,NA,"活泼","e","",NA,0,67,67,28,1,"",NA,"",NA,NA,NA,NA,NA,NA,NA,"",NA,"",NA,NA,NA,NA,NA,NA,NA,"","","",NA,"",NA,NA,NA,NA,NA,NA,NA,"",NA,"33"
"",NA,"",NA,"",NA,NA,NA,NA,NA,NA,NA,"","",1,1,"2024-08-26_00h15.17.792","IAT(Formal)","2021.2.3","Win32",60.60606061,"",NA,"",NA,NA,NA,NA,NA,NA,NA,"","","",NA,"i",1,0.6198,NA,NA,NA,NA,NA,"他人","i","",NA,0,68,68,78,1,"",NA,"",NA,NA,NA,NA,NA,NA,NA,"",NA,"",NA,NA,NA,NA,NA,NA,NA,"","","",NA,"",NA,NA,NA,NA,NA,NA,NA,"",NA,"33"
"",NA,"",NA,"",NA,NA,NA,NA,NA,NA,NA,"","",1,1,"2024-08-26_00h15.17.792","IAT(Formal)","2021.2.3","Win32",60.60606061,"",NA,"",NA,NA,NA,NA,NA,NA,NA,"","","",NA,"e",1,0.899,NA,NA,NA,NA,NA,"冷静","e","",NA,0,69,69,26,1,"",NA,"",NA,NA,NA,NA,NA,NA,NA,"",NA,"",NA,NA,NA,NA,NA,NA,NA,"","","",NA,"",NA,NA,NA,NA,NA,NA,NA,"",NA,"33"
"",NA,"",NA,"",NA,NA,NA,NA,NA,NA,NA,"","",1,1,"2024-08-26_00h15.17.792","IAT(Formal)","2021.2.3","Win32",60.60606061,"",NA,"",NA,NA,NA,NA,NA,NA,NA,"","","",NA,"i",1,0.7502,NA,NA,NA,NA,NA,"他人","i","",NA,0,70,70,58,1,"",NA,"",NA,NA,NA,NA,NA,NA,NA,"",NA,"",NA,NA,NA,NA,NA,NA,NA,"","","",NA,"",NA,NA,NA,NA,NA,NA,NA,"",NA,"33"
"",NA,"",NA,"",NA,NA,NA,NA,NA,NA,NA,"","",1,1,"2024-08-26_00h15.17.792","IAT(Formal)","2021.2.3","Win32",60.60606061,"",NA,"",NA,NA,NA,NA,NA,NA,NA,"","","",NA,"e",1,0.6185,NA,NA,NA,NA,NA,"俺","e","",NA,0,71,71,74,1,"",NA,"",NA,NA,NA,NA,NA,NA,NA,"",NA,"",NA,NA,NA,NA,NA,NA,NA,"","","",NA,"",NA,NA,NA,NA,NA,NA,NA,"",NA,"33"
"",NA,"",NA,"",NA,NA,NA,NA,NA,NA,NA,"","",1,1,"2024-08-26_00h15.17.792","IAT(Formal)","2021.2.3","Win32",60.60606061,"",NA,"",NA,NA,NA,NA,NA,NA,NA,"","","",NA,"e",1,0.6166,NA,NA,NA,NA,NA,"我们","e","",NA,0,72,72,52,1,"",NA,"",NA,NA,NA,NA,NA,NA,NA,"",NA,"",NA,NA,NA,NA,NA,NA,NA,"","","",NA,"",NA,NA,NA,NA,NA,NA,NA,"",NA,"33"
"",NA,"",NA,"",NA,NA,NA,NA,NA,NA,NA,"","",1,1,"2024-08-26_00h15.17.792","IAT(Formal)","2021.2.3","Win32",60.60606061,"",NA,"",NA,NA,NA,NA,NA,NA,NA,"","","",NA,"e",0,0.5264,NA,NA,NA,NA,NA,"他们","i","",NA,0,73,73,66,1,"",NA,"",NA,NA,NA,NA,NA,NA,NA,"",NA,"",NA,NA,NA,NA,NA,NA,NA,"","","",NA,"",NA,NA,NA,NA,NA,NA,NA,"",NA,"33"
"",NA,"",NA,"",NA,NA,NA,NA,NA,NA,NA,"","",1,1,"2024-08-26_00h15.17.792","IAT(Formal)","2021.2.3","Win32",60.60606061,"",NA,"",NA,NA,NA,NA,NA,NA,NA,"","","",NA,"i",1,0.588,NA,NA,NA,NA,NA,"他的","i","",NA,0,74,74,57,1,"",NA,"",NA,NA,NA,NA,NA,NA,NA,"",NA,"",NA,NA,NA,NA,NA,NA,NA,"","","",NA,"",NA,NA,NA,NA,NA,NA,NA,"",NA,"33"
"",NA,"",NA,"",NA,NA,NA,NA,NA,NA,NA,"","",1,1,"2024-08-26_00h15.17.792","IAT(Formal)","2021.2.3","Win32",60.60606061,"",NA,"",NA,NA,NA,NA,NA,NA,NA,"","","",NA,"e",1,0.6546,NA,NA,NA,NA,NA,"聪明","e","",NA,0,75,75,12,1,"",NA,"",NA,NA,NA,NA,NA,NA,NA,"",NA,"",NA,NA,NA,NA,NA,NA,NA,"","","",NA,"",NA,NA,NA,NA,NA,NA,NA,"",NA,"33"
"",NA,"",NA,"",NA,NA,NA,NA,NA,NA,NA,"","",1,1,"2024-08-26_00h15.17.792","IAT(Formal)","2021.2.3","Win32",60.60606061,"",NA,"",NA,NA,NA,NA,NA,NA,NA,"","","",NA,"e",1,0.6039,NA,NA,NA,NA,NA,"我","e","",NA,0,76,76,50,1,"",NA,"",NA,NA,NA,NA,NA,NA,NA,"",NA,"",NA,NA,NA,NA,NA,NA,NA,"","","",NA,"",NA,NA,NA,NA,NA,NA,NA,"",NA,"33"
"",NA,"",NA,"",NA,NA,NA,NA,NA,NA,NA,"","",1,1,"2024-08-26_00h15.17.792","IAT(Formal)","2021.2.3","Win32",60.60606061,"",NA,"",NA,NA,NA,NA,NA,NA,NA,"","","",NA,"i",1,0.6504,NA,NA,NA,NA,NA,"其他","i","",NA,0,77,77,59,1,"",NA,"",NA,NA,NA,NA,NA,NA,NA,"",NA,"",NA,NA,NA,NA,NA,NA,NA,"","","",NA,"",NA,NA,NA,NA,NA,NA,NA,"",NA,"33"
"",NA,"",NA,"",NA,NA,NA,NA,NA,NA,NA,"","",1,1,"2024-08-26_00h15.17.792","IAT(Formal)","2021.2.3","Win32",60.60606061,"",NA,"",NA,NA,NA,NA,NA,NA,NA,"","","",NA,"i",1,0.7526,NA,NA,NA,NA,NA,"他","i","",NA,0,78,78,75,1,"",NA,"",NA,NA,NA,NA,NA,NA,NA,"",NA,"",NA,NA,NA,NA,NA,NA,NA,"","","",NA,"",NA,NA,NA,NA,NA,NA,NA,"",NA,"33"
"",NA,"",NA,"",NA,NA,NA,NA,NA,NA,NA,"","",1,1,"2024-08-26_00h15.17.792","IAT(Formal)","2021.2.3","Win32",60.60606061,"",NA,"",NA,NA,NA,NA,NA,NA,NA,"","","",NA,"i",1,0.736,NA,NA,NA,NA,NA,"他","i","",NA,0,79,79,5,1,"",NA,"",NA,NA,NA,NA,NA,NA,NA,"",NA,"",NA,NA,NA,NA,NA,NA,NA,"","","",NA,"",NA,NA,NA,NA,NA,NA,NA,"",NA,"33"
"",NA,"",NA,"",NA,NA,NA,NA,NA,NA,NA,"","",1,1,"2024-08-26_00h15.17.792","IAT(Formal)","2021.2.3","Win32",60.60606061,"",NA,"",NA,NA,NA,NA,NA,NA,NA,"","","",NA,"e",1,0.6581,NA,NA,NA,NA,NA,"我的","e","",NA,1,0,80,61,1,"",NA,"",NA,NA,NA,NA,NA,NA,NA,"",NA,"",NA,NA,NA,NA,NA,NA,NA,"","","",NA,"",NA,NA,NA,NA,NA,NA,NA,"",NA,"33"
"",NA,"",NA,"",NA,NA,NA,NA,NA,NA,NA,"","",1,1,"2024-08-26_00h15.17.792","IAT(Formal)","2021.2.3","Win32",60.60606061,"",NA,"",NA,NA,NA,NA,NA,NA,NA,"","","",NA,"i",1,0.7158,NA,NA,NA,NA,NA,"轻率","i","",NA,1,1,81,48,1,"",NA,"",NA,NA,NA,NA,NA,NA,NA,"",NA,"",NA,NA,NA,NA,NA,NA,NA,"","","",NA,"",NA,NA,NA,NA,NA,NA,NA,"",NA,"33"
"",NA,"",NA,"",NA,NA,NA,NA,NA,NA,NA,"","",1,1,"2024-08-26_00h15.17.792","IAT(Formal)","2021.2.3","Win32",60.60606061,"",NA,"",NA,NA,NA,NA,NA,NA,NA,"","","",NA,"i",1,0.5725,NA,NA,NA,NA,NA,"他人","i","",NA,1,2,82,68,1,"",NA,"",NA,NA,NA,NA,NA,NA,NA,"",NA,"",NA,NA,NA,NA,NA,NA,NA,"","","",NA,"",NA,NA,NA,NA,NA,NA,NA,"",NA,"33"
"",NA,"",NA,"",NA,NA,NA,NA,NA,NA,NA,"","",1,1,"2024-08-26_00h15.17.792","IAT(Formal)","2021.2.3","Win32",60.60606061,"",NA,"",NA,NA,NA,NA,NA,NA,NA,"","","",NA,"e",1,1.2421,NA,NA,NA,NA,NA,"乐观","e","",NA,1,3,83,14,1,"",NA,"",NA,NA,NA,NA,NA,NA,NA,"",NA,"",NA,NA,NA,NA,NA,NA,NA,"","","",NA,"",NA,NA,NA,NA,NA,NA,NA,"",NA,"33"
"",NA,"",NA,"",NA,NA,NA,NA,NA,NA,NA,"","",1,1,"2024-08-26_00h15.17.792","IAT(Formal)","2021.2.3","Win32",60.60606061,"",NA,"",NA,NA,NA,NA,NA,NA,NA,"","","",NA,"e",1,0.6809,NA,NA,NA,NA,NA,"俺","e","",NA,1,4,84,74,1,"",NA,"",NA,NA,NA,NA,NA,NA,NA,"",NA,"",NA,NA,NA,NA,NA,NA,NA,"","","",NA,"",NA,NA,NA,NA,NA,NA,NA,"",NA,"33"
"",NA,"",NA,"",NA,NA,NA,NA,NA,NA,NA,"","",1,1,"2024-08-26_00h15.17.792","IAT(Formal)","2021.2.3","Win32",60.60606061,"",NA,"",NA,NA,NA,NA,NA,NA,NA,"","","",NA,"e",1,1.0078,NA,NA,NA,NA,NA,"优秀","e","",NA,1,5,85,10,1,"",NA,"",NA,NA,NA,NA,NA,NA,NA,"",NA,"",NA,NA,NA,NA,NA,NA,NA,"","","",NA,"",NA,NA,NA,NA,NA,NA,NA,"",NA,"33"
"",NA,"",NA,"",NA,NA,NA,NA,NA,NA,NA,"","",1,1,"2024-08-26_00h15.17.792","IAT(Formal)","2021.2.3","Win32",60.60606061,"",NA,"",NA,NA,NA,NA,NA,NA,NA,"","","",NA,"i",1,0.5329,NA,NA,NA,NA,NA,"野蛮","i","",NA,1,6,86,46,1,"",NA,"",NA,NA,NA,NA,NA,NA,NA,"",NA,"",NA,NA,NA,NA,NA,NA,NA,"","","",NA,"",NA,NA,NA,NA,NA,NA,NA,"",NA,"33"
"",NA,"",NA,"",NA,NA,NA,NA,NA,NA,NA,"","",1,1,"2024-08-26_00h15.17.792","IAT(Formal)","2021.2.3","Win32",60.60606061,"",NA,"",NA,NA,NA,NA,NA,NA,NA,"","","",NA,"e",1,0.5564,NA,NA,NA,NA,NA,"我们","e","",NA,1,7,87,72,1,"",NA,"",NA,NA,NA,NA,NA,NA,NA,"",NA,"",NA,NA,NA,NA,NA,NA,NA,"","","",NA,"",NA,NA,NA,NA,NA,NA,NA,"",NA,"33"
"",NA,"",NA,"",NA,NA,NA,NA,NA,NA,NA,"","",1,1,"2024-08-26_00h15.17.792","IAT(Formal)","2021.2.3","Win32",60.60606061,"",NA,"",NA,NA,NA,NA,NA,NA,NA,"","","",NA,"e",1,0.6016,NA,NA,NA,NA,NA,"勇敢","e","",NA,1,8,88,17,1,"",NA,"",NA,NA,NA,NA,NA,NA,NA,"",NA,"",NA,NA,NA,NA,NA,NA,NA,"","","",NA,"",NA,NA,NA,NA,NA,NA,NA,"",NA,"33"
"",NA,"",NA,"",NA,NA,NA,NA,NA,NA,NA,"","",1,1,"2024-08-26_00h15.17.792","IAT(Formal)","2021.2.3","Win32",60.60606061,"",NA,"",NA,NA,NA,NA,NA,NA,NA,"","","",NA,"e",1,0.7161,NA,NA,NA,NA,NA,"公正","e","",NA,1,9,89,23,1,"",NA,"",NA,NA,NA,NA,NA,NA,NA,"",NA,"",NA,NA,NA,NA,NA,NA,NA,"","","",NA,"",NA,NA,NA,NA,NA,NA,NA,"",NA,"33"
"",NA,"",NA,"",NA,NA,NA,NA,NA,NA,NA,"","",1,1,"2024-08-26_00h15.17.792","IAT(Formal)","2021.2.3","Win32",60.60606061,"",NA,"",NA,NA,NA,NA,NA,NA,NA,"","","",NA,"e",1,0.6347,NA,NA,NA,NA,NA,"俺","e","",NA,1,10,90,64,1,"",NA,"",NA,NA,NA,NA,NA,NA,NA,"",NA,"",NA,NA,NA,NA,NA,NA,NA,"","","",NA,"",NA,NA,NA,NA,NA,NA,NA,"",NA,"33"
"",NA,"",NA,"",NA,NA,NA,NA,NA,NA,NA,"","",1,1,"2024-08-26_00h15.17.792","IAT(Formal)","2021.2.3","Win32",60.60606061,"",NA,"",NA,NA,NA,NA,NA,NA,NA,"","","",NA,"e",1,0.4579,NA,NA,NA,NA,NA,"我的","e","",NA,1,11,91,71,1,"",NA,"",NA,NA,NA,NA,NA,NA,NA,"",NA,"",NA,NA,NA,NA,NA,NA,NA,"","","",NA,"",NA,NA,NA,NA,NA,NA,NA,"",NA,"33"
"",NA,"",NA,"",NA,NA,NA,NA,NA,NA,NA,"","",1,1,"2024-08-26_00h15.17.792","IAT(Formal)","2021.2.3","Win32",60.60606061,"",NA,"",NA,NA,NA,NA,NA,NA,NA,"","","",NA,"i",1,0.6343,NA,NA,NA,NA,NA,"他人","i","",NA,1,12,92,78,1,"",NA,"",NA,NA,NA,NA,NA,NA,NA,"",NA,"",NA,NA,NA,NA,NA,NA,NA,"","","",NA,"",NA,NA,NA,NA,NA,NA,NA,"",NA,"33"
"",NA,"",NA,"",NA,NA,NA,NA,NA,NA,NA,"","",1,1,"2024-08-26_00h15.17.792","IAT(Formal)","2021.2.3","Win32",60.60606061,"",NA,"",NA,NA,NA,NA,NA,NA,NA,"","","",NA,"e",1,0.5662,NA,NA,NA,NA,NA,"聪明","e","",NA,1,13,93,12,1,"",NA,"",NA,NA,NA,NA,NA,NA,NA,"",NA,"",NA,NA,NA,NA,NA,NA,NA,"","","",NA,"",NA,NA,NA,NA,NA,NA,NA,"",NA,"33"
"",NA,"",NA,"",NA,NA,NA,NA,NA,NA,NA,"","",1,1,"2024-08-26_00h15.17.792","IAT(Formal)","2021.2.3","Win32",60.60606061,"",NA,"",NA,NA,NA,NA,NA,NA,NA,"","","",NA,"e",1,0.7226,NA,NA,NA,NA,NA,"机智","e","",NA,1,14,94,19,1,"",NA,"",NA,NA,NA,NA,NA,NA,NA,"",NA,"",NA,NA,NA,NA,NA,NA,NA,"","","",NA,"",NA,NA,NA,NA,NA,NA,NA,"",NA,"33"
"",NA,"",NA,"",NA,NA,NA,NA,NA,NA,NA,"","",1,1,"2024-08-26_00h15.17.792","IAT(Formal)","2021.2.3","Win32",60.60606061,"",NA,"",NA,NA,NA,NA,NA,NA,NA,"","","",NA,"i",1,0.6888,NA,NA,NA,NA,NA,"他","i","",NA,1,15,95,75,1,"",NA,"",NA,NA,NA,NA,NA,NA,NA,"",NA,"",NA,NA,NA,NA,NA,NA,NA,"","","",NA,"",NA,NA,NA,NA,NA,NA,NA,"",NA,"33"
"",NA,"",NA,"",NA,NA,NA,NA,NA,NA,NA,"","",1,1,"2024-08-26_00h15.17.792","IAT(Formal)","2021.2.3","Win32",60.60606061,"",NA,"",NA,NA,NA,NA,NA,NA,NA,"","","",NA,"e",1,0.6216,NA,NA,NA,NA,NA,"杰出","e","",NA,1,16,96,13,1,"",NA,"",NA,NA,NA,NA,NA,NA,NA,"",NA,"",NA,NA,NA,NA,NA,NA,NA,"","","",NA,"",NA,NA,NA,NA,NA,NA,NA,"",NA,"33"
"",NA,"",NA,"",NA,NA,NA,NA,NA,NA,NA,"","",1,1,"2024-08-26_00h15.17.792","IAT(Formal)","2021.2.3","Win32",60.60606061,"",NA,"",NA,NA,NA,NA,NA,NA,NA,"","","",NA,"i",1,0.5812,NA,NA,NA,NA,NA,"悲观","i","",NA,1,17,97,34,1,"",NA,"",NA,NA,NA,NA,NA,NA,NA,"",NA,"",NA,NA,NA,NA,NA,NA,NA,"","","",NA,"",NA,NA,NA,NA,NA,NA,NA,"",NA,"33"
"",NA,"",NA,"",NA,NA,NA,NA,NA,NA,NA,"","",1,1,"2024-08-26_00h15.17.792","IAT(Formal)","2021.2.3","Win32",60.60606061,"",NA,"",NA,NA,NA,NA,NA,NA,NA,"","","",NA,"i",1,0.5973,NA,NA,NA,NA,NA,"鲁莽","i","",NA,1,18,98,38,1,"",NA,"",NA,NA,NA,NA,NA,NA,NA,"",NA,"",NA,NA,NA,NA,NA,NA,NA,"","","",NA,"",NA,NA,NA,NA,NA,NA,NA,"",NA,"33"
"",NA,"",NA,"",NA,NA,NA,NA,NA,NA,NA,"","",1,1,"2024-08-26_00h15.17.792","IAT(Formal)","2021.2.3","Win32",60.60606061,"",NA,"",NA,NA,NA,NA,NA,NA,NA,"","","",NA,"e",1,0.6422,NA,NA,NA,NA,NA,"勤奋","e","",NA,1,19,99,18,1,"",NA,"",NA,NA,NA,NA,NA,NA,NA,"",NA,"",NA,NA,NA,NA,NA,NA,NA,"","","",NA,"",NA,NA,NA,NA,NA,NA,NA,"",NA,"33"
"",NA,"",NA,"",NA,NA,NA,NA,NA,NA,NA,"","",1,1,"2024-08-26_00h15.17.792","IAT(Formal)","2021.2.3","Win32",60.60606061,"",NA,"",NA,NA,NA,NA,NA,NA,NA,"","","",NA,"e",1,0.5816,NA,NA,NA,NA,NA,"自己","e","",NA,1,20,100,73,1,"",NA,"",NA,NA,NA,NA,NA,NA,NA,"",NA,"",NA,NA,NA,NA,NA,NA,NA,"","","",NA,"",NA,NA,NA,NA,NA,NA,NA,"",NA,"33"
"",NA,"",NA,"",NA,NA,NA,NA,NA,NA,NA,"","",1,1,"2024-08-26_00h15.17.792","IAT(Formal)","2021.2.3","Win32",60.60606061,"",NA,"",NA,NA,NA,NA,NA,NA,NA,"","","",NA,"e",1,0.6313,NA,NA,NA,NA,NA,"正直","e","",NA,1,21,101,16,1,"",NA,"",NA,NA,NA,NA,NA,NA,NA,"",NA,"",NA,NA,NA,NA,NA,NA,NA,"","","",NA,"",NA,NA,NA,NA,NA,NA,NA,"",NA,"33"
"",NA,"",NA,"",NA,NA,NA,NA,NA,NA,NA,"","",1,1,"2024-08-26_00h15.17.792","IAT(Formal)","2021.2.3","Win32",60.60606061,"",NA,"",NA,NA,NA,NA,NA,NA,NA,"","","",NA,"e",0,0.4668,NA,NA,NA,NA,NA,"他","i","",NA,1,22,102,65,1,"",NA,"",NA,NA,NA,NA,NA,NA,NA,"",NA,"",NA,NA,NA,NA,NA,NA,NA,"","","",NA,"",NA,NA,NA,NA,NA,NA,NA,"",NA,"33"
"",NA,"",NA,"",NA,NA,NA,NA,NA,NA,NA,"","",1,1,"2024-08-26_00h15.17.792","IAT(Formal)","2021.2.3","Win32",60.60606061,"",NA,"",NA,NA,NA,NA,NA,NA,NA,"","","",NA,"e",1,0.6145,NA,NA,NA,NA,NA,"我的","e","",NA,1,23,103,51,1,"",NA,"",NA,NA,NA,NA,NA,NA,NA,"",NA,"",NA,NA,NA,NA,NA,NA,NA,"","","",NA,"",NA,NA,NA,NA,NA,NA,NA,"",NA,"33"
"",NA,"",NA,"",NA,NA,NA,NA,NA,NA,NA,"","",1,1,"2024-08-26_00h15.17.792","IAT(Formal)","2021.2.3","Win32",60.60606061,"",NA,"",NA,NA,NA,NA,NA,NA,NA,"","","",NA,"i",1,0.5355,NA,NA,NA,NA,NA,"散漫","i","",NA,1,24,104,41,1,"",NA,"",NA,NA,NA,NA,NA,NA,NA,"",NA,"",NA,NA,NA,NA,NA,NA,NA,"","","",NA,"",NA,NA,NA,NA,NA,NA,NA,"",NA,"33"
"",NA,"",NA,"",NA,NA,NA,NA,NA,NA,NA,"","",1,1,"2024-08-26_00h15.17.792","IAT(Formal)","2021.2.3","Win32",60.60606061,"",NA,"",NA,NA,NA,NA,NA,NA,NA,"","","",NA,"i",1,0.6312,NA,NA,NA,NA,NA,"愚蠢","i","",NA,1,25,105,32,1,"",NA,"",NA,NA,NA,NA,NA,NA,NA,"",NA,"",NA,NA,NA,NA,NA,NA,NA,"","","",NA,"",NA,NA,NA,NA,NA,NA,NA,"",NA,"33"
"",NA,"",NA,"",NA,NA,NA,NA,NA,NA,NA,"","",1,1,"2024-08-26_00h15.17.792","IAT(Formal)","2021.2.3","Win32",60.60606061,"",NA,"",NA,NA,NA,NA,NA,NA,NA,"","","",NA,"i",1,0.5876,NA,NA,NA,NA,NA,"暴躁","i","",NA,1,26,106,44,1,"",NA,"",NA,NA,NA,NA,NA,NA,NA,"",NA,"",NA,NA,NA,NA,NA,NA,NA,"","","",NA,"",NA,NA,NA,NA,NA,NA,NA,"",NA,"33"
"",NA,"",NA,"",NA,NA,NA,NA,NA,NA,NA,"","",1,1,"2024-08-26_00h15.17.792","IAT(Formal)","2021.2.3","Win32",60.60606061,"",NA,"",NA,NA,NA,NA,NA,NA,NA,"","","",NA,"i",1,0.4623,NA,NA,NA,NA,NA,"虚伪","i","",NA,1,27,107,31,1,"",NA,"",NA,NA,NA,NA,NA,NA,NA,"",NA,"",NA,NA,NA,NA,NA,NA,NA,"","","",NA,"",NA,NA,NA,NA,NA,NA,NA,"",NA,"33"
"",NA,"",NA,"",NA,NA,NA,NA,NA,NA,NA,"","",1,1,"2024-08-26_00h15.17.792","IAT(Formal)","2021.2.3","Win32",60.60606061,"",NA,"",NA,NA,NA,NA,NA,NA,NA,"","","",NA,"i",1,0.5998,NA,NA,NA,NA,NA,"凶狠","i","",NA,1,28,108,42,1,"",NA,"",NA,NA,NA,NA,NA,NA,NA,"",NA,"",NA,NA,NA,NA,NA,NA,NA,"","","",NA,"",NA,NA,NA,NA,NA,NA,NA,"",NA,"33"
"",NA,"",NA,"",NA,NA,NA,NA,NA,NA,NA,"","",1,1,"2024-08-26_00h15.17.792","IAT(Formal)","2021.2.3","Win32",60.60606061,"",NA,"",NA,NA,NA,NA,NA,NA,NA,"","","",NA,"e",1,0.7606,NA,NA,NA,NA,NA,"热情","e","",NA,1,29,109,27,1,"",NA,"",NA,NA,NA,NA,NA,NA,NA,"",NA,"",NA,NA,NA,NA,NA,NA,NA,"","","",NA,"",NA,NA,NA,NA,NA,NA,NA,"",NA,"33"
"",NA,"",NA,"",NA,NA,NA,NA,NA,NA,NA,"","",1,1,"2024-08-26_00h15.17.792","IAT(Formal)","2021.2.3","Win32",60.60606061,"",NA,"",NA,NA,NA,NA,NA,NA,NA,"","","",NA,"i",1,0.6359,NA,NA,NA,NA,NA,"傲慢","i","",NA,1,30,110,37,1,"",NA,"",NA,NA,NA,NA,NA,NA,NA,"",NA,"",NA,NA,NA,NA,NA,NA,NA,"","","",NA,"",NA,NA,NA,NA,NA,NA,NA,"",NA,"33"
"",NA,"",NA,"",NA,NA,NA,NA,NA,NA,NA,"","",1,1,"2024-08-26_00h15.17.792","IAT(Formal)","2021.2.3","Win32",60.60606061,"",NA,"",NA,NA,NA,NA,NA,NA,NA,"","","",NA,"e",1,0.6212,NA,NA,NA,NA,NA,"自己","e","",NA,1,31,111,63,1,"",NA,"",NA,NA,NA,NA,NA,NA,NA,"",NA,"",NA,NA,NA,NA,NA,NA,NA,"","","",NA,"",NA,NA,NA,NA,NA,NA,NA,"",NA,"33"
"",NA,"",NA,"",NA,NA,NA,NA,NA,NA,NA,"","",1,1,"2024-08-26_00h15.17.792","IAT(Formal)","2021.2.3","Win32",60.60606061,"",NA,"",NA,NA,NA,NA,NA,NA,NA,"","","",NA,"e",1,0.5475,NA,NA,NA,NA,NA,"认真","e","",NA,1,32,112,20,1,"",NA,"",NA,NA,NA,NA,NA,NA,NA,"",NA,"",NA,NA,NA,NA,NA,NA,NA,"","","",NA,"",NA,NA,NA,NA,NA,NA,NA,"",NA,"33"
"",NA,"",NA,"",NA,NA,NA,NA,NA,NA,NA,"","",1,1,"2024-08-26_00h15.17.792","IAT(Formal)","2021.2.3","Win32",60.60606061,"",NA,"",NA,NA,NA,NA,NA,NA,NA,"","","",NA,"i",1,0.5653,NA,NA,NA,NA,NA,"其他","i","",NA,1,33,113,59,1,"",NA,"",NA,NA,NA,NA,NA,NA,NA,"",NA,"",NA,NA,NA,NA,NA,NA,NA,"","","",NA,"",NA,NA,NA,NA,NA,NA,NA,"",NA,"33"
"",NA,"",NA,"",NA,NA,NA,NA,NA,NA,NA,"","",1,1,"2024-08-26_00h15.17.792","IAT(Formal)","2021.2.3","Win32",60.60606061,"",NA,"",NA,NA,NA,NA,NA,NA,NA,"","","",NA,"i",1,0.688,NA,NA,NA,NA,NA,"猖狂","i","",NA,1,34,114,45,1,"",NA,"",NA,NA,NA,NA,NA,NA,NA,"",NA,"",NA,NA,NA,NA,NA,NA,NA,"","","",NA,"",NA,NA,NA,NA,NA,NA,NA,"",NA,"33"
"",NA,"",NA,"",NA,NA,NA,NA,NA,NA,NA,"","",1,1,"2024-08-26_00h15.17.792","IAT(Formal)","2021.2.3","Win32",60.60606061,"",NA,"",NA,NA,NA,NA,NA,NA,NA,"","","",NA,"e",1,0.6324,NA,NA,NA,NA,NA,"冷静","e","",NA,1,35,115,26,1,"",NA,"",NA,NA,NA,NA,NA,NA,NA,"",NA,"",NA,NA,NA,NA,NA,NA,NA,"","","",NA,"",NA,NA,NA,NA,NA,NA,NA,"",NA,"33"
"",NA,"",NA,"",NA,NA,NA,NA,NA,NA,NA,"","",1,1,"2024-08-26_00h15.17.792","IAT(Formal)","2021.2.3","Win32",60.60606061,"",NA,"",NA,NA,NA,NA,NA,NA,NA,"","","",NA,"i",1,0.6334,NA,NA,NA,NA,NA,"其他","i","",NA,1,36,116,9,1,"",NA,"",NA,NA,NA,NA,NA,NA,NA,"",NA,"",NA,NA,NA,NA,NA,NA,NA,"","","",NA,"",NA,NA,NA,NA,NA,NA,NA,"",NA,"33"
"",NA,"",NA,"",NA,NA,NA,NA,NA,NA,NA,"","",1,1,"2024-08-26_00h15.17.792","IAT(Formal)","2021.2.3","Win32",60.60606061,"",NA,"",NA,NA,NA,NA,NA,NA,NA,"","","",NA,"e",1,0.6425,NA,NA,NA,NA,NA,"俺","e","",NA,1,37,117,4,1,"",NA,"",NA,NA,NA,NA,NA,NA,NA,"",NA,"",NA,NA,NA,NA,NA,NA,NA,"","","",NA,"",NA,NA,NA,NA,NA,NA,NA,"",NA,"33"
"",NA,"",NA,"",NA,NA,NA,NA,NA,NA,NA,"","",1,1,"2024-08-26_00h15.17.792","IAT(Formal)","2021.2.3","Win32",60.60606061,"",NA,"",NA,NA,NA,NA,NA,NA,NA,"","","",NA,"e",1,1.3411,NA,NA,NA,NA,NA,"无私","e","",NA,1,38,118,22,1,"",NA,"",NA,NA,NA,NA,NA,NA,NA,"",NA,"",NA,NA,NA,NA,NA,NA,NA,"","","",NA,"",NA,NA,NA,NA,NA,NA,NA,"",NA,"33"
"",NA,"",NA,"",NA,NA,NA,NA,NA,NA,NA,"","",1,1,"2024-08-26_00h15.17.792","IAT(Formal)","2021.2.3","Win32",60.60606061,"",NA,"",NA,NA,NA,NA,NA,NA,NA,"","","",NA,"e",1,0.5934,NA,NA,NA,NA,NA,"我的","e","",NA,1,39,119,1,1,"",NA,"",NA,NA,NA,NA,NA,NA,NA,"",NA,"",NA,NA,NA,NA,NA,NA,NA,"","","",NA,"",NA,NA,NA,NA,NA,NA,NA,"",NA,"33"
"",NA,"",NA,"",NA,NA,NA,NA,NA,NA,NA,"","",1,1,"2024-08-26_00h15.17.792","IAT(Formal)","2021.2.3","Win32",60.60606061,"",NA,"",NA,NA,NA,NA,NA,NA,NA,"","","",NA,"i",1,0.6675,NA,NA,NA,NA,NA,"他","i","",NA,1,40,120,55,1,"",NA,"",NA,NA,NA,NA,NA,NA,NA,"",NA,"",NA,NA,NA,NA,NA,NA,NA,"","","",NA,"",NA,NA,NA,NA,NA,NA,NA,"",NA,"33"
"",NA,"",NA,"",NA,NA,NA,NA,NA,NA,NA,"","",1,1,"2024-08-26_00h15.17.792","IAT(Formal)","2021.2.3","Win32",60.60606061,"",NA,"",NA,NA,NA,NA,NA,NA,NA,"","","",NA,"e",0,0.6824,NA,NA,NA,NA,NA,"自卑","i","",NA,1,41,121,36,1,"",NA,"",NA,NA,NA,NA,NA,NA,NA,"",NA,"",NA,NA,NA,NA,NA,NA,NA,"","","",NA,"",NA,NA,NA,NA,NA,NA,NA,"",NA,"33"
"",NA,"",NA,"",NA,NA,NA,NA,NA,NA,NA,"","",1,1,"2024-08-26_00h15.17.792","IAT(Formal)","2021.2.3","Win32",60.60606061,"",NA,"",NA,NA,NA,NA,NA,NA,NA,"","","",NA,"",0,NA,NA,NA,NA,NA,NA,"冒失","i","",NA,1,42,122,39,1,"",NA,"",NA,NA,NA,NA,NA,NA,NA,"",NA,"",NA,NA,NA,NA,NA,NA,NA,"","","",NA,"",NA,NA,NA,NA,NA,NA,NA,"",NA,"33"
"",NA,"",NA,"",NA,NA,NA,NA,NA,NA,NA,"","",1,1,"2024-08-26_00h15.17.792","IAT(Formal)","2021.2.3","Win32",60.60606061,"",NA,"",NA,NA,NA,NA,NA,NA,NA,"","","",NA,"i",1,1.3097,NA,NA,NA,NA,NA,"他们","i","",NA,1,43,123,66,1,"",NA,"",NA,NA,NA,NA,NA,NA,NA,"",NA,"",NA,NA,NA,NA,NA,NA,NA,"","","",NA,"",NA,NA,NA,NA,NA,NA,NA,"",NA,"33"
"",NA,"",NA,"",NA,NA,NA,NA,NA,NA,NA,"","",1,1,"2024-08-26_00h15.17.792","IAT(Formal)","2021.2.3","Win32",60.60606061,"",NA,"",NA,NA,NA,NA,NA,NA,NA,"","","",NA,"i",1,0.6833,NA,NA,NA,NA,NA,"他人","i","",NA,1,44,124,8,1,"",NA,"",NA,NA,NA,NA,NA,NA,NA,"",NA,"",NA,NA,NA,NA,NA,NA,NA,"","","",NA,"",NA,NA,NA,NA,NA,NA,NA,"",NA,"33"
"",NA,"",NA,"",NA,NA,NA,NA,NA,NA,NA,"","",1,1,"2024-08-26_00h15.17.792","IAT(Formal)","2021.2.3","Win32",60.60606061,"",NA,"",NA,NA,NA,NA,NA,NA,NA,"","","",NA,"e",1,0.6004,NA,NA,NA,NA,NA,"细腻","e","",NA,1,45,125,25,1,"",NA,"",NA,NA,NA,NA,NA,NA,NA,"",NA,"",NA,NA,NA,NA,NA,NA,NA,"","","",NA,"",NA,NA,NA,NA,NA,NA,NA,"",NA,"33"
"",NA,"",NA,"",NA,NA,NA,NA,NA,NA,NA,"","",1,1,"2024-08-26_00h15.17.792","IAT(Formal)","2021.2.3","Win32",60.60606061,"",NA,"",NA,NA,NA,NA,NA,NA,NA,"","","",NA,"e",1,0.5576,NA,NA,NA,NA,NA,"我们","e","",NA,1,46,126,62,1,"",NA,"",NA,NA,NA,NA,NA,NA,NA,"",NA,"",NA,NA,NA,NA,NA,NA,NA,"","","",NA,"",NA,NA,NA,NA,NA,NA,NA,"",NA,"33"
"",NA,"",NA,"",NA,NA,NA,NA,NA,NA,NA,"","",1,1,"2024-08-26_00h15.17.792","IAT(Formal)","2021.2.3","Win32",60.60606061,"",NA,"",NA,NA,NA,NA,NA,NA,NA,"","","",NA,"e",1,0.7056,NA,NA,NA,NA,NA,"稳重","e","",NA,1,47,127,21,1,"",NA,"",NA,NA,NA,NA,NA,NA,NA,"",NA,"",NA,NA,NA,NA,NA,NA,NA,"","","",NA,"",NA,NA,NA,NA,NA,NA,NA,"",NA,"33"
"",NA,"",NA,"",NA,NA,NA,NA,NA,NA,NA,"","",1,1,"2024-08-26_00h15.17.792","IAT(Formal)","2021.2.3","Win32",60.60606061,"",NA,"",NA,NA,NA,NA,NA,NA,NA,"","","",NA,"e",1,0.4504,NA,NA,NA,NA,NA,"我","e","",NA,1,48,128,0,1,"",NA,"",NA,NA,NA,NA,NA,NA,NA,"",NA,"",NA,NA,NA,NA,NA,NA,NA,"","","",NA,"",NA,NA,NA,NA,NA,NA,NA,"",NA,"33"
"",NA,"",NA,"",NA,NA,NA,NA,NA,NA,NA,"","",1,1,"2024-08-26_00h15.17.792","IAT(Formal)","2021.2.3","Win32",60.60606061,"",NA,"",NA,NA,NA,NA,NA,NA,NA,"","","",NA,"i",1,0.5317,NA,NA,NA,NA,NA,"其他","i","",NA,1,49,129,69,1,"",NA,"",NA,NA,NA,NA,NA,NA,NA,"",NA,"",NA,NA,NA,NA,NA,NA,NA,"","","",NA,"",NA,NA,NA,NA,NA,NA,NA,"",NA,"33"
"",NA,"",NA,"",NA,NA,NA,NA,NA,NA,NA,"","",1,1,"2024-08-26_00h15.17.792","IAT(Formal)","2021.2.3","Win32",60.60606061,"",NA,"",NA,NA,NA,NA,NA,NA,NA,"","","",NA,"i",1,0.6498,NA,NA,NA,NA,NA,"他的","i","",NA,1,50,130,57,1,"",NA,"",NA,NA,NA,NA,NA,NA,NA,"",NA,"",NA,NA,NA,NA,NA,NA,NA,"","","",NA,"",NA,NA,NA,NA,NA,NA,NA,"",NA,"33"
"",NA,"",NA,"",NA,NA,NA,NA,NA,NA,NA,"","",1,1,"2024-08-26_00h15.17.792","IAT(Formal)","2021.2.3","Win32",60.60606061,"",NA,"",NA,NA,NA,NA,NA,NA,NA,"","","",NA,"e",1,0.6727,NA,NA,NA,NA,NA,"诚恳","e","",NA,1,51,131,29,1,"",NA,"",NA,NA,NA,NA,NA,NA,NA,"",NA,"",NA,NA,NA,NA,NA,NA,NA,"","","",NA,"",NA,NA,NA,NA,NA,NA,NA,"",NA,"33"
"",NA,"",NA,"",NA,NA,NA,NA,NA,NA,NA,"","",1,1,"2024-08-26_00h15.17.792","IAT(Formal)","2021.2.3","Win32",60.60606061,"",NA,"",NA,NA,NA,NA,NA,NA,NA,"","","",NA,"e",1,0.7343,NA,NA,NA,NA,NA,"我们","e","",NA,1,52,132,2,1,"",NA,"",NA,NA,NA,NA,NA,NA,NA,"",NA,"",NA,NA,NA,NA,NA,NA,NA,"","","",NA,"",NA,NA,NA,NA,NA,NA,NA,"",NA,"33"
"",NA,"",NA,"",NA,NA,NA,NA,NA,NA,NA,"","",1,1,"2024-08-26_00h15.17.792","IAT(Formal)","2021.2.3","Win32",60.60606061,"",NA,"",NA,NA,NA,NA,NA,NA,NA,"","","",NA,"i",1,0.5865,NA,NA,NA,NA,NA,"卑鄙","i","",NA,1,53,133,30,1,"",NA,"",NA,NA,NA,NA,NA,NA,NA,"",NA,"",NA,NA,NA,NA,NA,NA,NA,"","","",NA,"",NA,NA,NA,NA,NA,NA,NA,"",NA,"33"
"",NA,"",NA,"",NA,NA,NA,NA,NA,NA,NA,"","",1,1,"2024-08-26_00h15.17.792","IAT(Formal)","2021.2.3","Win32",60.60606061,"",NA,"",NA,NA,NA,NA,NA,NA,NA,"","","",NA,"e",1,0.5277,NA,NA,NA,NA,NA,"自己","e","",NA,1,54,134,53,1,"",NA,"",NA,NA,NA,NA,NA,NA,NA,"",NA,"",NA,NA,NA,NA,NA,NA,NA,"","","",NA,"",NA,NA,NA,NA,NA,NA,NA,"",NA,"33"
"",NA,"",NA,"",NA,NA,NA,NA,NA,NA,NA,"","",1,1,"2024-08-26_00h15.17.792","IAT(Formal)","2021.2.3","Win32",60.60606061,"",NA,"",NA,NA,NA,NA,NA,NA,NA,"","","",NA,"e",1,0.5404,NA,NA,NA,NA,NA,"我","e","",NA,1,55,135,70,1,"",NA,"",NA,NA,NA,NA,NA,NA,NA,"",NA,"",NA,NA,NA,NA,NA,NA,NA,"","","",NA,"",NA,NA,NA,NA,NA,NA,NA,"",NA,"33"
"",NA,"",NA,"",NA,NA,NA,NA,NA,NA,NA,"","",1,1,"2024-08-26_00h15.17.792","IAT(Formal)","2021.2.3","Win32",60.60606061,"",NA,"",NA,NA,NA,NA,NA,NA,NA,"","","",NA,"i",1,0.4984,NA,NA,NA,NA,NA,"他人","i","",NA,1,56,136,58,1,"",NA,"",NA,NA,NA,NA,NA,NA,NA,"",NA,"",NA,NA,NA,NA,NA,NA,NA,"","","",NA,"",NA,NA,NA,NA,NA,NA,NA,"",NA,"33"
"",NA,"",NA,"",NA,NA,NA,NA,NA,NA,NA,"","",1,1,"2024-08-26_00h15.17.792","IAT(Formal)","2021.2.3","Win32",60.60606061,"",NA,"",NA,NA,NA,NA,NA,NA,NA,"","","",NA,"i",1,0.7009,NA,NA,NA,NA,NA,"刻薄","i","",NA,1,57,137,33,1,"",NA,"",NA,NA,NA,NA,NA,NA,NA,"",NA,"",NA,NA,NA,NA,NA,NA,NA,"","","",NA,"",NA,NA,NA,NA,NA,NA,NA,"",NA,"33"
"",NA,"",NA,"",NA,NA,NA,NA,NA,NA,NA,"","",1,1,"2024-08-26_00h15.17.792","IAT(Formal)","2021.2.3","Win32",60.60606061,"",NA,"",NA,NA,NA,NA,NA,NA,NA,"","","",NA,"e",1,0.9831,NA,NA,NA,NA,NA,"崇高","e","",NA,1,58,138,11,1,"",NA,"",NA,NA,NA,NA,NA,NA,NA,"",NA,"",NA,NA,NA,NA,NA,NA,NA,"","","",NA,"",NA,NA,NA,NA,NA,NA,NA,"",NA,"33"
"",NA,"",NA,"",NA,NA,NA,NA,NA,NA,NA,"","",1,1,"2024-08-26_00h15.17.792","IAT(Formal)","2021.2.3","Win32",60.60606061,"",NA,"",NA,NA,NA,NA,NA,NA,NA,"","","",NA,"i",1,0.6462,NA,NA,NA,NA,NA,"他的","i","",NA,1,59,139,67,1,"",NA,"",NA,NA,NA,NA,NA,NA,NA,"",NA,"",NA,NA,NA,NA,NA,NA,NA,"","","",NA,"",NA,NA,NA,NA,NA,NA,NA,"",NA,"33"
"",NA,"",NA,"",NA,NA,NA,NA,NA,NA,NA,"","",1,1,"2024-08-26_00h15.17.792","IAT(Formal)","2021.2.3","Win32",60.60606061,"",NA,"",NA,NA,NA,NA,NA,NA,NA,"","","",NA,"i",1,1.0711,NA,NA,NA,NA,NA,"消极","i","",NA,1,60,140,35,1,"",NA,"",NA,NA,NA,NA,NA,NA,NA,"",NA,"",NA,NA,NA,NA,NA,NA,NA,"","","",NA,"",NA,NA,NA,NA,NA,NA,NA,"",NA,"33"
"",NA,"",NA,"",NA,NA,NA,NA,NA,NA,NA,"","",1,1,"2024-08-26_00h15.17.792","IAT(Formal)","2021.2.3","Win32",60.60606061,"",NA,"",NA,NA,NA,NA,NA,NA,NA,"","","",NA,"i",1,0.6832,NA,NA,NA,NA,NA,"他","i","",NA,1,61,141,5,1,"",NA,"",NA,NA,NA,NA,NA,NA,NA,"",NA,"",NA,NA,NA,NA,NA,NA,NA,"","","",NA,"",NA,NA,NA,NA,NA,NA,NA,"",NA,"33"
"",NA,"",NA,"",NA,NA,NA,NA,NA,NA,NA,"","",1,1,"2024-08-26_00h15.17.792","IAT(Formal)","2021.2.3","Win32",60.60606061,"",NA,"",NA,NA,NA,NA,NA,NA,NA,"","","",NA,"i",1,0.5657,NA,NA,NA,NA,NA,"下贱","i","",NA,1,62,142,49,1,"",NA,"",NA,NA,NA,NA,NA,NA,NA,"",NA,"",NA,NA,NA,NA,NA,NA,NA,"","","",NA,"",NA,NA,NA,NA,NA,NA,NA,"",NA,"33"
"",NA,"",NA,"",NA,NA,NA,NA,NA,NA,NA,"","",1,1,"2024-08-26_00h15.17.792","IAT(Formal)","2021.2.3","Win32",60.60606061,"",NA,"",NA,NA,NA,NA,NA,NA,NA,"","","",NA,"i",1,0.6338,NA,NA,NA,NA,NA,"他的","i","",NA,1,63,143,7,1,"",NA,"",NA,NA,NA,NA,NA,NA,NA,"",NA,"",NA,NA,NA,NA,NA,NA,NA,"","","",NA,"",NA,NA,NA,NA,NA,NA,NA,"",NA,"33"
"",NA,"",NA,"",NA,NA,NA,NA,NA,NA,NA,"","",1,1,"2024-08-26_00h15.17.792","IAT(Formal)","2021.2.3","Win32",60.60606061,"",NA,"",NA,NA,NA,NA,NA,NA,NA,"","","",NA,"",0,NA,NA,NA,NA,NA,NA,"我","e","",NA,1,64,144,60,1,"",NA,"",NA,NA,NA,NA,NA,NA,NA,"",NA,"",NA,NA,NA,NA,NA,NA,NA,"","","",NA,"",NA,NA,NA,NA,NA,NA,NA,"",NA,"33"
"",NA,"",NA,"",NA,NA,NA,NA,NA,NA,NA,"","",1,1,"2024-08-26_00h15.17.792","IAT(Formal)","2021.2.3","Win32",60.60606061,"",NA,"",NA,NA,NA,NA,NA,NA,NA,"","","",NA,"e",1,1.0989,NA,NA,NA,NA,NA,"俺","e","",NA,1,65,145,54,1,"",NA,"",NA,NA,NA,NA,NA,NA,NA,"",NA,"",NA,NA,NA,NA,NA,NA,NA,"","","",NA,"",NA,NA,NA,NA,NA,NA,NA,"",NA,"33"
"",NA,"",NA,"",NA,NA,NA,NA,NA,NA,NA,"","",1,1,"2024-08-26_00h15.17.792","IAT(Formal)","2021.2.3","Win32",60.60606061,"",NA,"",NA,NA,NA,NA,NA,NA,NA,"","","",NA,"e",1,1.0152,NA,NA,NA,NA,NA,"诚实","e","",NA,1,66,146,15,1,"",NA,"",NA,NA,NA,NA,NA,NA,NA,"",NA,"",NA,NA,NA,NA,NA,NA,NA,"","","",NA,"",NA,NA,NA,NA,NA,NA,NA,"",NA,"33"
"",NA,"",NA,"",NA,NA,NA,NA,NA,NA,NA,"","",1,1,"2024-08-26_00h15.17.792","IAT(Formal)","2021.2.3","Win32",60.60606061,"",NA,"",NA,NA,NA,NA,NA,NA,NA,"","","",NA,"e",1,0.6792,NA,NA,NA,NA,NA,"我","e","",NA,1,67,147,50,1,"",NA,"",NA,NA,NA,NA,NA,NA,NA,"",NA,"",NA,NA,NA,NA,NA,NA,NA,"","","",NA,"",NA,NA,NA,NA,NA,NA,NA,"",NA,"33"
"",NA,"",NA,"",NA,NA,NA,NA,NA,NA,NA,"","",1,1,"2024-08-26_00h15.17.792","IAT(Formal)","2021.2.3","Win32",60.60606061,"",NA,"",NA,NA,NA,NA,NA,NA,NA,"","","",NA,"e",1,0.5675,NA,NA,NA,NA,NA,"活泼","e","",NA,1,68,148,28,1,"",NA,"",NA,NA,NA,NA,NA,NA,NA,"",NA,"",NA,NA,NA,NA,NA,NA,NA,"","","",NA,"",NA,NA,NA,NA,NA,NA,NA,"",NA,"33"
"",NA,"",NA,"",NA,NA,NA,NA,NA,NA,NA,"","",1,1,"2024-08-26_00h15.17.792","IAT(Formal)","2021.2.3","Win32",60.60606061,"",NA,"",NA,NA,NA,NA,NA,NA,NA,"","","",NA,"e",1,0.716,NA,NA,NA,NA,NA,"朴实","e","",NA,1,69,149,24,1,"",NA,"",NA,NA,NA,NA,NA,NA,NA,"",NA,"",NA,NA,NA,NA,NA,NA,NA,"","","",NA,"",NA,NA,NA,NA,NA,NA,NA,"",NA,"33"
"",NA,"",NA,"",NA,NA,NA,NA,NA,NA,NA,"","",1,1,"2024-08-26_00h15.17.792","IAT(Formal)","2021.2.3","Win32",60.60606061,"",NA,"",NA,NA,NA,NA,NA,NA,NA,"","","",NA,"e",0,1.099,NA,NA,NA,NA,NA,"自私","i","",NA,1,70,150,43,1,"",NA,"",NA,NA,NA,NA,NA,NA,NA,"",NA,"",NA,NA,NA,NA,NA,NA,NA,"","","",NA,"",NA,NA,NA,NA,NA,NA,NA,"",NA,"33"
"",NA,"",NA,"",NA,NA,NA,NA,NA,NA,NA,"","",1,1,"2024-08-26_00h15.17.792","IAT(Formal)","2021.2.3","Win32",60.60606061,"",NA,"",NA,NA,NA,NA,NA,NA,NA,"","","",NA,"i",1,0.7324,NA,NA,NA,NA,NA,"他们","i","",NA,1,71,151,76,1,"",NA,"",NA,NA,NA,NA,NA,NA,NA,"",NA,"",NA,NA,NA,NA,NA,NA,NA,"","","",NA,"",NA,NA,NA,NA,NA,NA,NA,"",NA,"33"
"",NA,"",NA,"",NA,NA,NA,NA,NA,NA,NA,"","",1,1,"2024-08-26_00h15.17.792","IAT(Formal)","2021.2.3","Win32",60.60606061,"",NA,"",NA,NA,NA,NA,NA,NA,NA,"","","",NA,"i",1,0.4286,NA,NA,NA,NA,NA,"他的","i","",NA,1,72,152,77,1,"",NA,"",NA,NA,NA,NA,NA,NA,NA,"",NA,"",NA,NA,NA,NA,NA,NA,NA,"","","",NA,"",NA,NA,NA,NA,NA,NA,NA,"",NA,"33"
"",NA,"",NA,"",NA,NA,NA,NA,NA,NA,NA,"","",1,1,"2024-08-26_00h15.17.792","IAT(Formal)","2021.2.3","Win32",60.60606061,"",NA,"",NA,NA,NA,NA,NA,NA,NA,"","","",NA,"i",1,0.6177,NA,NA,NA,NA,NA,"其他","i","",NA,1,73,153,79,1,"",NA,"",NA,NA,NA,NA,NA,NA,NA,"",NA,"",NA,NA,NA,NA,NA,NA,NA,"","","",NA,"",NA,NA,NA,NA,NA,NA,NA,"",NA,"33"
"",NA,"",NA,"",NA,NA,NA,NA,NA,NA,NA,"","",1,1,"2024-08-26_00h15.17.792","IAT(Formal)","2021.2.3","Win32",60.60606061,"",NA,"",NA,NA,NA,NA,NA,NA,NA,"","","",NA,"i",1,0.4871,NA,NA,NA,NA,NA,"他们","i","",NA,1,74,154,6,1,"",NA,"",NA,NA,NA,NA,NA,NA,NA,"",NA,"",NA,NA,NA,NA,NA,NA,NA,"","","",NA,"",NA,NA,NA,NA,NA,NA,NA,"",NA,"33"
"",NA,"",NA,"",NA,NA,NA,NA,NA,NA,NA,"","",1,1,"2024-08-26_00h15.17.792","IAT(Formal)","2021.2.3","Win32",60.60606061,"",NA,"",NA,NA,NA,NA,NA,NA,NA,"","","",NA,"i",1,0.6558,NA,NA,NA,NA,NA,"执拗","i","",NA,1,75,155,40,1,"",NA,"",NA,NA,NA,NA,NA,NA,NA,"",NA,"",NA,NA,NA,NA,NA,NA,NA,"","","",NA,"",NA,NA,NA,NA,NA,NA,NA,"",NA,"33"
"",NA,"",NA,"",NA,NA,NA,NA,NA,NA,NA,"","",1,1,"2024-08-26_00h15.17.792","IAT(Formal)","2021.2.3","Win32",60.60606061,"",NA,"",NA,NA,NA,NA,NA,NA,NA,"","","",NA,"e",1,0.732,NA,NA,NA,NA,NA,"我们","e","",NA,1,76,156,52,1,"",NA,"",NA,NA,NA,NA,NA,NA,NA,"",NA,"",NA,NA,NA,NA,NA,NA,NA,"","","",NA,"",NA,NA,NA,NA,NA,NA,NA,"",NA,"33"
"",NA,"",NA,"",NA,NA,NA,NA,NA,NA,NA,"","",1,1,"2024-08-26_00h15.17.792","IAT(Formal)","2021.2.3","Win32",60.60606061,"",NA,"",NA,NA,NA,NA,NA,NA,NA,"","","",NA,"i",1,0.5758,NA,NA,NA,NA,NA,"他们","i","",NA,1,77,157,56,1,"",NA,"",NA,NA,NA,NA,NA,NA,NA,"",NA,"",NA,NA,NA,NA,NA,NA,NA,"","","",NA,"",NA,NA,NA,NA,NA,NA,NA,"",NA,"33"
"",NA,"",NA,"",NA,NA,NA,NA,NA,NA,NA,"","",1,1,"2024-08-26_00h15.17.792","IAT(Formal)","2021.2.3","Win32",60.60606061,"",NA,"",NA,NA,NA,NA,NA,NA,NA,"","","",NA,"e",1,1.0542,NA,NA,NA,NA,NA,"自己","e","",NA,1,78,158,3,1,"",NA,"",NA,NA,NA,NA,NA,NA,NA,"",NA,"",NA,NA,NA,NA,NA,NA,NA,"","","",NA,"",NA,NA,NA,NA,NA,NA,NA,"",NA,"33"
"",NA,"",NA,"",NA,NA,NA,NA,NA,NA,NA,"","",1,1,"2024-08-26_00h15.17.792","IAT(Formal)","2021.2.3","Win32",60.60606061,"",NA,"",NA,NA,NA,NA,NA,NA,NA,"","","",NA,"i",1,0.5028,NA,NA,NA,NA,NA,"固执","i","",NA,1,79,159,47,1,"",NA,"",NA,NA,NA,NA,NA,NA,NA,"",NA,"",NA,NA,NA,NA,NA,NA,NA,"","","",NA,"",NA,NA,NA,NA,NA,NA,NA,"",NA,"33"
"",NA,"",NA,"",NA,NA,NA,NA,NA,NA,NA,"俺","i",1,1,"2024-08-26_00h15.17.792","IAT(Formal)","2021.2.3","Win32",60.60606061,"",NA,"",NA,NA,NA,NA,NA,NA,NA,"","","",NA,"",NA,NA,NA,NA,NA,NA,NA,"","","",NA,NA,NA,NA,NA,NA,"space",24.1463,"i",1,0.7324,0,0,0,4,1,"",NA,"",NA,NA,NA,NA,NA,NA,NA,"","","",NA,"",NA,NA,NA,NA,NA,NA,NA,"",NA,"33"
"",NA,"",NA,"",NA,NA,NA,NA,NA,NA,NA,"他","e",1,1,"2024-08-26_00h15.17.792","IAT(Formal)","2021.2.3","Win32",60.60606061,"",NA,"",NA,NA,NA,NA,NA,NA,NA,"","","",NA,"",NA,NA,NA,NA,NA,NA,NA,"","","",NA,NA,NA,NA,NA,NA,"",NA,"e",1,0.7406,0,1,1,5,1,"",NA,"",NA,NA,NA,NA,NA,NA,NA,"","","",NA,"",NA,NA,NA,NA,NA,NA,NA,"",NA,"33"
"",NA,"",NA,"",NA,NA,NA,NA,NA,NA,NA,"我的","i",1,1,"2024-08-26_00h15.17.792","IAT(Formal)","2021.2.3","Win32",60.60606061,"",NA,"",NA,NA,NA,NA,NA,NA,NA,"","","",NA,"",NA,NA,NA,NA,NA,NA,NA,"","","",NA,NA,NA,NA,NA,NA,"",NA,"i",1,0.6507,0,2,2,1,1,"",NA,"",NA,NA,NA,NA,NA,NA,NA,"","","",NA,"",NA,NA,NA,NA,NA,NA,NA,"",NA,"33"
"",NA,"",NA,"",NA,NA,NA,NA,NA,NA,NA,"他人","e",1,1,"2024-08-26_00h15.17.792","IAT(Formal)","2021.2.3","Win32",60.60606061,"",NA,"",NA,NA,NA,NA,NA,NA,NA,"","","",NA,"",NA,NA,NA,NA,NA,NA,NA,"","","",NA,NA,NA,NA,NA,NA,"",NA,"e",1,0.531,0,3,3,8,1,"",NA,"",NA,NA,NA,NA,NA,NA,NA,"","","",NA,"",NA,NA,NA,NA,NA,NA,NA,"",NA,"33"
"",NA,"",NA,"",NA,NA,NA,NA,NA,NA,NA,"他的","e",1,1,"2024-08-26_00h15.17.792","IAT(Formal)","2021.2.3","Win32",60.60606061,"",NA,"",NA,NA,NA,NA,NA,NA,NA,"","","",NA,"",NA,NA,NA,NA,NA,NA,NA,"","","",NA,NA,NA,NA,NA,NA,"",NA,"e",1,1.1766,0,4,4,7,1,"",NA,"",NA,NA,NA,NA,NA,NA,NA,"","","",NA,"",NA,NA,NA,NA,NA,NA,NA,"",NA,"33"
"",NA,"",NA,"",NA,NA,NA,NA,NA,NA,NA,"他们","e",1,1,"2024-08-26_00h15.17.792","IAT(Formal)","2021.2.3","Win32",60.60606061,"",NA,"",NA,NA,NA,NA,NA,NA,NA,"","","",NA,"",NA,NA,NA,NA,NA,NA,NA,"","","",NA,NA,NA,NA,NA,NA,"",NA,"e",1,0.6425,0,5,5,6,1,"",NA,"",NA,NA,NA,NA,NA,NA,NA,"","","",NA,"",NA,NA,NA,NA,NA,NA,NA,"",NA,"33"
"",NA,"",NA,"",NA,NA,NA,NA,NA,NA,NA,"自己","i",1,1,"2024-08-26_00h15.17.792","IAT(Formal)","2021.2.3","Win32",60.60606061,"",NA,"",NA,NA,NA,NA,NA,NA,NA,"","","",NA,"",NA,NA,NA,NA,NA,NA,NA,"","","",NA,NA,NA,NA,NA,NA,"",NA,"i",1,0.6519,0,6,6,3,1,"",NA,"",NA,NA,NA,NA,NA,NA,NA,"","","",NA,"",NA,NA,NA,NA,NA,NA,NA,"",NA,"33"
"",NA,"",NA,"",NA,NA,NA,NA,NA,NA,NA,"其他","e",1,1,"2024-08-26_00h15.17.792","IAT(Formal)","2021.2.3","Win32",60.60606061,"",NA,"",NA,NA,NA,NA,NA,NA,NA,"","","",NA,"",NA,NA,NA,NA,NA,NA,NA,"","","",NA,NA,NA,NA,NA,NA,"",NA,"e",1,1.4095,0,7,7,9,1,"",NA,"",NA,NA,NA,NA,NA,NA,NA,"","","",NA,"",NA,NA,NA,NA,NA,NA,NA,"",NA,"33"
"",NA,"",NA,"",NA,NA,NA,NA,NA,NA,NA,"我","i",1,1,"2024-08-26_00h15.17.792","IAT(Formal)","2021.2.3","Win32",60.60606061,"",NA,"",NA,NA,NA,NA,NA,NA,NA,"","","",NA,"",NA,NA,NA,NA,NA,NA,NA,"","","",NA,NA,NA,NA,NA,NA,"",NA,"i",1,0.974,0,8,8,0,1,"",NA,"",NA,NA,NA,NA,NA,NA,NA,"","","",NA,"",NA,NA,NA,NA,NA,NA,NA,"",NA,"33"
"",NA,"",NA,"",NA,NA,NA,NA,NA,NA,NA,"我们","i",1,1,"2024-08-26_00h15.17.792","IAT(Formal)","2021.2.3","Win32",60.60606061,"",NA,"",NA,NA,NA,NA,NA,NA,NA,"","","",NA,"",NA,NA,NA,NA,NA,NA,NA,"","","",NA,NA,NA,NA,NA,NA,"",NA,"i",1,0.7731,0,9,9,2,1,"",NA,"",NA,NA,NA,NA,NA,NA,NA,"","","",NA,"",NA,NA,NA,NA,NA,NA,NA,"",NA,"33"
"",NA,"",NA,"",NA,NA,NA,NA,NA,NA,NA,"","",1,1,"2024-08-26_00h15.17.792","IAT(Formal)","2021.2.3","Win32",60.60606061,"",NA,"",NA,NA,NA,NA,NA,NA,NA,"","","",NA,"",NA,NA,NA,NA,NA,NA,NA,"","","",NA,NA,NA,NA,NA,NA,"",NA,"",NA,NA,NA,NA,NA,NA,NA,"space",13.0247,"i",1,1.3743,0,0,0,32,1,"愚蠢","i","",NA,"",NA,NA,NA,NA,NA,NA,NA,"",NA,"33"
"",NA,"",NA,"",NA,NA,NA,NA,NA,NA,NA,"","",1,1,"2024-08-26_00h15.17.792","IAT(Formal)","2021.2.3","Win32",60.60606061,"",NA,"",NA,NA,NA,NA,NA,NA,NA,"","","",NA,"",NA,NA,NA,NA,NA,NA,NA,"","","",NA,NA,NA,NA,NA,NA,"",NA,"",NA,NA,NA,NA,NA,NA,NA,"",NA,"i",1,0.6189,0,1,1,73,1,"自己","i","",NA,"",NA,NA,NA,NA,NA,NA,NA,"",NA,"33"
"",NA,"",NA,"",NA,NA,NA,NA,NA,NA,NA,"","",1,1,"2024-08-26_00h15.17.792","IAT(Formal)","2021.2.3","Win32",60.60606061,"",NA,"",NA,NA,NA,NA,NA,NA,NA,"","","",NA,"",NA,NA,NA,NA,NA,NA,NA,"","","",NA,NA,NA,NA,NA,NA,"",NA,"",NA,NA,NA,NA,NA,NA,NA,"",NA,"i",1,0.5781,0,2,2,63,1,"自己","i","",NA,"",NA,NA,NA,NA,NA,NA,NA,"",NA,"33"
"",NA,"",NA,"",NA,NA,NA,NA,NA,NA,NA,"","",1,1,"2024-08-26_00h15.17.792","IAT(Formal)","2021.2.3","Win32",60.60606061,"",NA,"",NA,NA,NA,NA,NA,NA,NA,"","","",NA,"",NA,NA,NA,NA,NA,NA,NA,"","","",NA,NA,NA,NA,NA,NA,"",NA,"",NA,NA,NA,NA,NA,NA,NA,"",NA,"i",1,0.6279,0,3,3,52,1,"我们","i","",NA,"",NA,NA,NA,NA,NA,NA,NA,"",NA,"33"
"",NA,"",NA,"",NA,NA,NA,NA,NA,NA,NA,"","",1,1,"2024-08-26_00h15.17.792","IAT(Formal)","2021.2.3","Win32",60.60606061,"",NA,"",NA,NA,NA,NA,NA,NA,NA,"","","",NA,"",NA,NA,NA,NA,NA,NA,NA,"","","",NA,NA,NA,NA,NA,NA,"",NA,"",NA,NA,NA,NA,NA,NA,NA,"",NA,"",0,NA,0,4,4,29,1,"诚恳","e","",NA,"",NA,NA,NA,NA,NA,NA,NA,"",NA,"33"
