"X.Instruction1.keys","Instruction1.rt","Instruction2.keys","Instruction2.rt","key_resp_iso.keys","key_resp_iso.corr","key_resp_iso.rt","Practice_01.thisRepN","Practice_01.thisTrialN","Practice_01.thisN","Practice_01.thisIndex","Practice_01.ran","Words","ans","participant","session","date","expName","psychopyVersion","OS","frameRate","key_resp_3.keys","key_resp_3.rt","key_resp_ipn.keys","key_resp_ipn.corr","key_resp_ipn.rt","Practice_02.thisRepN","Practice_02.thisTrialN","Practice_02.thisN","Practice_02.thisIndex","Practice_02.ran","Words_ipn","ans_ipn","key_resp_4.keys","key_resp_4.rt","key_resp_t1.keys","key_resp_t1.corr","key_resp_t1.rt","Practice_T1.thisRepN","Practice_T1.thisTrialN","Practice_T1.thisN","Practice_T1.thisIndex","Practice_T1.ran","Words_t1","ans_t1","key_resp_5.keys","key_resp_5.rt","Formal_T1.thisRepN","Formal_T1.thisTrialN","Formal_T1.thisN","Formal_T1.thisIndex","Formal_T1.ran","key_resp_6.keys","key_resp_6.rt","key_resp_iso_reverse.keys","key_resp_iso_reverse.corr","key_resp_iso_reverse.rt","Practice_iso_Reverse.thisRepN","Practice_iso_Reverse.thisTrialN","Practice_iso_Reverse.thisN","Practice_iso_Reverse.thisIndex","Practice_iso_Reverse.ran","key_resp_7.keys","key_resp_7.rt","key_resp_t2_Practice.keys","key_resp_t2_Practice.corr","key_resp_t2_Practice.rt","Practice_t2_Reverse.thisRepN","Practice_t2_Reverse.thisTrialN","Practice_t2_Reverse.thisN","Practice_t2_Reverse.thisIndex","Practice_t2_Reverse.ran","Words_t2","ans_t2","key_resp_8.keys","key_resp_8.rt","key_resp_t2.keys","key_resp_t2.corr","key_resp_t2.rt","Formal_t2_reverse.thisRepN","Formal_t2_reverse.thisTrialN","Formal_t2_reverse.thisN","Formal_t2_reverse.thisIndex","Formal_t2_reverse.ran","key_instruct.keys","key_instruct.rt","Subject"
"space",4.9044,"space",5.55749,"e",0,0.45813,0,0,0,8,1,"他人","i",1,1,"2024-08-26_22h40.26.551","IAT(Formal)","2021.2.3","Win32",59.73002031,"",NA,"",NA,NA,NA,NA,NA,NA,NA,"","","",NA,"",NA,NA,NA,NA,NA,NA,NA,"","","",NA,NA,NA,NA,NA,NA,"",NA,"",NA,NA,NA,NA,NA,NA,NA,"",NA,"",NA,NA,NA,NA,NA,NA,NA,"","","",NA,"",NA,NA,NA,NA,NA,NA,NA,"",NA,"34"
"",NA,"",NA,"i",0,0.03954,0,1,1,1,1,"我的","e",1,1,"2024-08-26_22h40.26.551","IAT(Formal)","2021.2.3","Win32",59.73002031,"",NA,"",NA,NA,NA,NA,NA,NA,NA,"","","",NA,"",NA,NA,NA,NA,NA,NA,NA,"","","",NA,NA,NA,NA,NA,NA,"",NA,"",NA,NA,NA,NA,NA,NA,NA,"",NA,"",NA,NA,NA,NA,NA,NA,NA,"","","",NA,"",NA,NA,NA,NA,NA,NA,NA,"",NA,"34"
"",NA,"",NA,"e",1,0.72226,0,2,2,4,1,"俺","e",1,1,"2024-08-26_22h40.26.551","IAT(Formal)","2021.2.3","Win32",59.73002031,"",NA,"",NA,NA,NA,NA,NA,NA,NA,"","","",NA,"",NA,NA,NA,NA,NA,NA,NA,"","","",NA,NA,NA,NA,NA,NA,"",NA,"",NA,NA,NA,NA,NA,NA,NA,"",NA,"",NA,NA,NA,NA,NA,NA,NA,"","","",NA,"",NA,NA,NA,NA,NA,NA,NA,"",NA,"34"
"",NA,"",NA,"i",1,0.664105,0,3,3,6,1,"他们","i",1,1,"2024-08-26_22h40.26.551","IAT(Formal)","2021.2.3","Win32",59.73002031,"",NA,"",NA,NA,NA,NA,NA,NA,NA,"","","",NA,"",NA,NA,NA,NA,NA,NA,NA,"","","",NA,NA,NA,NA,NA,NA,"",NA,"",NA,NA,NA,NA,NA,NA,NA,"",NA,"",NA,NA,NA,NA,NA,NA,NA,"","","",NA,"",NA,NA,NA,NA,NA,NA,NA,"",NA,"34"
"",NA,"",NA,"e",1,0.50811,0,4,4,0,1,"我","e",1,1,"2024-08-26_22h40.26.551","IAT(Formal)","2021.2.3","Win32",59.73002031,"",NA,"",NA,NA,NA,NA,NA,NA,NA,"","","",NA,"",NA,NA,NA,NA,NA,NA,NA,"","","",NA,NA,NA,NA,NA,NA,"",NA,"",NA,NA,NA,NA,NA,NA,NA,"",NA,"",NA,NA,NA,NA,NA,NA,NA,"","","",NA,"",NA,NA,NA,NA,NA,NA,NA,"",NA,"34"
"",NA,"",NA,"i",1,0.817305,0,5,5,5,1,"他","i",1,1,"2024-08-26_22h40.26.551","IAT(Formal)","2021.2.3","Win32",59.73002031,"",NA,"",NA,NA,NA,NA,NA,NA,NA,"","","",NA,"",NA,NA,NA,NA,NA,NA,NA,"","","",NA,NA,NA,NA,NA,NA,"",NA,"",NA,NA,NA,NA,NA,NA,NA,"",NA,"",NA,NA,NA,NA,NA,NA,NA,"","","",NA,"",NA,NA,NA,NA,NA,NA,NA,"",NA,"34"
"",NA,"",NA,"e",1,0.48928,0,6,6,3,1,"自己","e",1,1,"2024-08-26_22h40.26.551","IAT(Formal)","2021.2.3","Win32",59.73002031,"",NA,"",NA,NA,NA,NA,NA,NA,NA,"","","",NA,"",NA,NA,NA,NA,NA,NA,NA,"","","",NA,NA,NA,NA,NA,NA,"",NA,"",NA,NA,NA,NA,NA,NA,NA,"",NA,"",NA,NA,NA,NA,NA,NA,NA,"","","",NA,"",NA,NA,NA,NA,NA,NA,NA,"",NA,"34"
"",NA,"",NA,"i",1,0.486765,0,7,7,7,1,"他的","i",1,1,"2024-08-26_22h40.26.551","IAT(Formal)","2021.2.3","Win32",59.73002031,"",NA,"",NA,NA,NA,NA,NA,NA,NA,"","","",NA,"",NA,NA,NA,NA,NA,NA,NA,"","","",NA,NA,NA,NA,NA,NA,"",NA,"",NA,NA,NA,NA,NA,NA,NA,"",NA,"",NA,NA,NA,NA,NA,NA,NA,"","","",NA,"",NA,NA,NA,NA,NA,NA,NA,"",NA,"34"
"",NA,"",NA,"e",1,0.592285,0,8,8,2,1,"我们","e",1,1,"2024-08-26_22h40.26.551","IAT(Formal)","2021.2.3","Win32",59.73002031,"",NA,"",NA,NA,NA,NA,NA,NA,NA,"","","",NA,"",NA,NA,NA,NA,NA,NA,NA,"","","",NA,NA,NA,NA,NA,NA,"",NA,"",NA,NA,NA,NA,NA,NA,NA,"",NA,"",NA,NA,NA,NA,NA,NA,NA,"","","",NA,"",NA,NA,NA,NA,NA,NA,NA,"",NA,"34"
"",NA,"",NA,"i",1,0.43061,0,9,9,9,1,"其他","i",1,1,"2024-08-26_22h40.26.551","IAT(Formal)","2021.2.3","Win32",59.73002031,"",NA,"",NA,NA,NA,NA,NA,NA,NA,"","","",NA,"",NA,NA,NA,NA,NA,NA,NA,"","","",NA,NA,NA,NA,NA,NA,"",NA,"",NA,NA,NA,NA,NA,NA,NA,"",NA,"",NA,NA,NA,NA,NA,NA,NA,"","","",NA,"",NA,NA,NA,NA,NA,NA,NA,"",NA,"34"
"",NA,"",NA,"",NA,NA,NA,NA,NA,NA,NA,"","",1,1,"2024-08-26_22h40.26.551","IAT(Formal)","2021.2.3","Win32",59.73002031,"space",3.616055,"i",1,0.833045,0,0,0,37,1,"固执","i","",NA,"",NA,NA,NA,NA,NA,NA,NA,"","","",NA,NA,NA,NA,NA,NA,"",NA,"",NA,NA,NA,NA,NA,NA,NA,"",NA,"",NA,NA,NA,NA,NA,NA,NA,"","","",NA,"",NA,NA,NA,NA,NA,NA,NA,"",NA,"34"
"",NA,"",NA,"",NA,NA,NA,NA,NA,NA,NA,"","",1,1,"2024-08-26_22h40.26.551","IAT(Formal)","2021.2.3","Win32",59.73002031,"",NA,"i",1,0.558445,0,1,1,29,1,"冒失","i","",NA,"",NA,NA,NA,NA,NA,NA,NA,"","","",NA,NA,NA,NA,NA,NA,"",NA,"",NA,NA,NA,NA,NA,NA,NA,"",NA,"",NA,NA,NA,NA,NA,NA,NA,"","","",NA,"",NA,NA,NA,NA,NA,NA,NA,"",NA,"34"
"",NA,"",NA,"",NA,NA,NA,NA,NA,NA,NA,"","",1,1,"2024-08-26_22h40.26.551","IAT(Formal)","2021.2.3","Win32",59.73002031,"",NA,"i",1,0.686335,0,2,2,38,1,"轻率","i","",NA,"",NA,NA,NA,NA,NA,NA,NA,"","","",NA,NA,NA,NA,NA,NA,"",NA,"",NA,NA,NA,NA,NA,NA,NA,"",NA,"",NA,NA,NA,NA,NA,NA,NA,"","","",NA,"",NA,NA,NA,NA,NA,NA,NA,"",NA,"34"
"",NA,"",NA,"",NA,NA,NA,NA,NA,NA,NA,"","",1,1,"2024-08-26_22h40.26.551","IAT(Formal)","2021.2.3","Win32",59.73002031,"",NA,"e",1,0.642345,0,3,3,6,1,"正直","e","",NA,"",NA,NA,NA,NA,NA,NA,NA,"","","",NA,NA,NA,NA,NA,NA,"",NA,"",NA,NA,NA,NA,NA,NA,NA,"",NA,"",NA,NA,NA,NA,NA,NA,NA,"","","",NA,"",NA,NA,NA,NA,NA,NA,NA,"",NA,"34"
"",NA,"",NA,"",NA,NA,NA,NA,NA,NA,NA,"","",1,1,"2024-08-26_22h40.26.551","IAT(Formal)","2021.2.3","Win32",59.73002031,"",NA,"e",1,0.59341,0,4,4,10,1,"认真","e","",NA,"",NA,NA,NA,NA,NA,NA,NA,"","","",NA,NA,NA,NA,NA,NA,"",NA,"",NA,NA,NA,NA,NA,NA,NA,"",NA,"",NA,NA,NA,NA,NA,NA,NA,"","","",NA,"",NA,NA,NA,NA,NA,NA,NA,"",NA,"34"
"",NA,"",NA,"",NA,NA,NA,NA,NA,NA,NA,"","",1,1,"2024-08-26_22h40.26.551","IAT(Formal)","2021.2.3","Win32",59.73002031,"",NA,"e",0,0.609605,0,5,5,20,1,"卑鄙","i","",NA,"",NA,NA,NA,NA,NA,NA,NA,"","","",NA,NA,NA,NA,NA,NA,"",NA,"",NA,NA,NA,NA,NA,NA,NA,"",NA,"",NA,NA,NA,NA,NA,NA,NA,"","","",NA,"",NA,NA,NA,NA,NA,NA,NA,"",NA,"34"
"",NA,"",NA,"",NA,NA,NA,NA,NA,NA,NA,"","",1,1,"2024-08-26_22h40.26.551","IAT(Formal)","2021.2.3","Win32",59.73002031,"",NA,"e",1,0.61382,0,6,6,17,1,"热情","e","",NA,"",NA,NA,NA,NA,NA,NA,NA,"","","",NA,NA,NA,NA,NA,NA,"",NA,"",NA,NA,NA,NA,NA,NA,NA,"",NA,"",NA,NA,NA,NA,NA,NA,NA,"","","",NA,"",NA,NA,NA,NA,NA,NA,NA,"",NA,"34"
"",NA,"",NA,"",NA,NA,NA,NA,NA,NA,NA,"","",1,1,"2024-08-26_22h40.26.551","IAT(Formal)","2021.2.3","Win32",59.73002031,"",NA,"e",1,0.603485,0,7,7,9,1,"机智","e","",NA,"",NA,NA,NA,NA,NA,NA,NA,"","","",NA,NA,NA,NA,NA,NA,"",NA,"",NA,NA,NA,NA,NA,NA,NA,"",NA,"",NA,NA,NA,NA,NA,NA,NA,"","","",NA,"",NA,NA,NA,NA,NA,NA,NA,"",NA,"34"
"",NA,"",NA,"",NA,NA,NA,NA,NA,NA,NA,"","",1,1,"2024-08-26_22h40.26.551","IAT(Formal)","2021.2.3","Win32",59.73002031,"",NA,"i",1,0.511345,0,8,8,27,1,"傲慢","i","",NA,"",NA,NA,NA,NA,NA,NA,NA,"","","",NA,NA,NA,NA,NA,NA,"",NA,"",NA,NA,NA,NA,NA,NA,NA,"",NA,"",NA,NA,NA,NA,NA,NA,NA,"","","",NA,"",NA,NA,NA,NA,NA,NA,NA,"",NA,"34"
"",NA,"",NA,"",NA,NA,NA,NA,NA,NA,NA,"","",1,1,"2024-08-26_22h40.26.551","IAT(Formal)","2021.2.3","Win32",59.73002031,"",NA,"i",0,0.517725,0,9,9,13,1,"公正","e","",NA,"",NA,NA,NA,NA,NA,NA,NA,"","","",NA,NA,NA,NA,NA,NA,"",NA,"",NA,NA,NA,NA,NA,NA,NA,"",NA,"",NA,NA,NA,NA,NA,NA,NA,"","","",NA,"",NA,NA,NA,NA,NA,NA,NA,"",NA,"34"
"",NA,"",NA,"",NA,NA,NA,NA,NA,NA,NA,"","",1,1,"2024-08-26_22h40.26.551","IAT(Formal)","2021.2.3","Win32",59.73002031,"",NA,"e",1,0.86189,0,10,10,14,1,"朴实","e","",NA,"",NA,NA,NA,NA,NA,NA,NA,"","","",NA,NA,NA,NA,NA,NA,"",NA,"",NA,NA,NA,NA,NA,NA,NA,"",NA,"",NA,NA,NA,NA,NA,NA,NA,"","","",NA,"",NA,NA,NA,NA,NA,NA,NA,"",NA,"34"
"",NA,"",NA,"",NA,NA,NA,NA,NA,NA,NA,"","",1,1,"2024-08-26_22h40.26.551","IAT(Formal)","2021.2.3","Win32",59.73002031,"",NA,"e",1,0.65841,0,11,11,8,1,"勤奋","e","",NA,"",NA,NA,NA,NA,NA,NA,NA,"","","",NA,NA,NA,NA,NA,NA,"",NA,"",NA,NA,NA,NA,NA,NA,NA,"",NA,"",NA,NA,NA,NA,NA,NA,NA,"","","",NA,"",NA,NA,NA,NA,NA,NA,NA,"",NA,"34"
"",NA,"",NA,"",NA,NA,NA,NA,NA,NA,NA,"","",1,1,"2024-08-26_22h40.26.551","IAT(Formal)","2021.2.3","Win32",59.73002031,"",NA,"e",1,0.780355,0,12,12,16,1,"冷静","e","",NA,"",NA,NA,NA,NA,NA,NA,NA,"","","",NA,NA,NA,NA,NA,NA,"",NA,"",NA,NA,NA,NA,NA,NA,NA,"",NA,"",NA,NA,NA,NA,NA,NA,NA,"","","",NA,"",NA,NA,NA,NA,NA,NA,NA,"",NA,"34"
"",NA,"",NA,"",NA,NA,NA,NA,NA,NA,NA,"","",1,1,"2024-08-26_22h40.26.551","IAT(Formal)","2021.2.3","Win32",59.73002031,"",NA,"i",1,0.7325,0,13,13,23,1,"刻薄","i","",NA,"",NA,NA,NA,NA,NA,NA,NA,"","","",NA,NA,NA,NA,NA,NA,"",NA,"",NA,NA,NA,NA,NA,NA,NA,"",NA,"",NA,NA,NA,NA,NA,NA,NA,"","","",NA,"",NA,NA,NA,NA,NA,NA,NA,"",NA,"34"
"",NA,"",NA,"",NA,NA,NA,NA,NA,NA,NA,"","",1,1,"2024-08-26_22h40.26.551","IAT(Formal)","2021.2.3","Win32",59.73002031,"",NA,"e",1,0.895825,0,14,14,15,1,"细腻","e","",NA,"",NA,NA,NA,NA,NA,NA,NA,"","","",NA,NA,NA,NA,NA,NA,"",NA,"",NA,NA,NA,NA,NA,NA,NA,"",NA,"",NA,NA,NA,NA,NA,NA,NA,"","","",NA,"",NA,NA,NA,NA,NA,NA,NA,"",NA,"34"
"",NA,"",NA,"",NA,NA,NA,NA,NA,NA,NA,"","",1,1,"2024-08-26_22h40.26.551","IAT(Formal)","2021.2.3","Win32",59.73002031,"",NA,"i",1,0.880905,0,15,15,21,1,"虚伪","i","",NA,"",NA,NA,NA,NA,NA,NA,NA,"","","",NA,NA,NA,NA,NA,NA,"",NA,"",NA,NA,NA,NA,NA,NA,NA,"",NA,"",NA,NA,NA,NA,NA,NA,NA,"","","",NA,"",NA,NA,NA,NA,NA,NA,NA,"",NA,"34"
"",NA,"",NA,"",NA,NA,NA,NA,NA,NA,NA,"","",1,1,"2024-08-26_22h40.26.551","IAT(Formal)","2021.2.3","Win32",59.73002031,"",NA,"i",1,0.718005,0,16,16,25,1,"消极","i","",NA,"",NA,NA,NA,NA,NA,NA,NA,"","","",NA,NA,NA,NA,NA,NA,"",NA,"",NA,NA,NA,NA,NA,NA,NA,"",NA,"",NA,NA,NA,NA,NA,NA,NA,"","","",NA,"",NA,NA,NA,NA,NA,NA,NA,"",NA,"34"
"",NA,"",NA,"",NA,NA,NA,NA,NA,NA,NA,"","",1,1,"2024-08-26_22h40.26.551","IAT(Formal)","2021.2.3","Win32",59.73002031,"",NA,"e",1,0.49491,0,17,17,2,1,"聪明","e","",NA,"",NA,NA,NA,NA,NA,NA,NA,"","","",NA,NA,NA,NA,NA,NA,"",NA,"",NA,NA,NA,NA,NA,NA,NA,"",NA,"",NA,NA,NA,NA,NA,NA,NA,"","","",NA,"",NA,NA,NA,NA,NA,NA,NA,"",NA,"34"
"",NA,"",NA,"",NA,NA,NA,NA,NA,NA,NA,"","",1,1,"2024-08-26_22h40.26.551","IAT(Formal)","2021.2.3","Win32",59.73002031,"",NA,"i",1,0.54672,0,18,18,24,1,"悲观","i","",NA,"",NA,NA,NA,NA,NA,NA,NA,"","","",NA,NA,NA,NA,NA,NA,"",NA,"",NA,NA,NA,NA,NA,NA,NA,"",NA,"",NA,NA,NA,NA,NA,NA,NA,"","","",NA,"",NA,NA,NA,NA,NA,NA,NA,"",NA,"34"
"",NA,"",NA,"",NA,NA,NA,NA,NA,NA,NA,"","",1,1,"2024-08-26_22h40.26.551","IAT(Formal)","2021.2.3","Win32",59.73002031,"",NA,"e",1,0.73693,0,19,19,1,1,"崇高","e","",NA,"",NA,NA,NA,NA,NA,NA,NA,"","","",NA,NA,NA,NA,NA,NA,"",NA,"",NA,NA,NA,NA,NA,NA,NA,"",NA,"",NA,NA,NA,NA,NA,NA,NA,"","","",NA,"",NA,NA,NA,NA,NA,NA,NA,"",NA,"34"
"",NA,"",NA,"",NA,NA,NA,NA,NA,NA,NA,"","",1,1,"2024-08-26_22h40.26.551","IAT(Formal)","2021.2.3","Win32",59.73002031,"",NA,"e",1,0.84175,0,20,20,12,1,"无私","e","",NA,"",NA,NA,NA,NA,NA,NA,NA,"","","",NA,NA,NA,NA,NA,NA,"",NA,"",NA,NA,NA,NA,NA,NA,NA,"",NA,"",NA,NA,NA,NA,NA,NA,NA,"","","",NA,"",NA,NA,NA,NA,NA,NA,NA,"",NA,"34"
"",NA,"",NA,"",NA,NA,NA,NA,NA,NA,NA,"","",1,1,"2024-08-26_22h40.26.551","IAT(Formal)","2021.2.3","Win32",59.73002031,"",NA,"e",1,0.579645,0,21,21,4,1,"乐观","e","",NA,"",NA,NA,NA,NA,NA,NA,NA,"","","",NA,NA,NA,NA,NA,NA,"",NA,"",NA,NA,NA,NA,NA,NA,NA,"",NA,"",NA,NA,NA,NA,NA,NA,NA,"","","",NA,"",NA,NA,NA,NA,NA,NA,NA,"",NA,"34"
"",NA,"",NA,"",NA,NA,NA,NA,NA,NA,NA,"","",1,1,"2024-08-26_22h40.26.551","IAT(Formal)","2021.2.3","Win32",59.73002031,"",NA,"i",1,0.684155,0,22,22,34,1,"暴躁","i","",NA,"",NA,NA,NA,NA,NA,NA,NA,"","","",NA,NA,NA,NA,NA,NA,"",NA,"",NA,NA,NA,NA,NA,NA,NA,"",NA,"",NA,NA,NA,NA,NA,NA,NA,"","","",NA,"",NA,NA,NA,NA,NA,NA,NA,"",NA,"34"
"",NA,"",NA,"",NA,NA,NA,NA,NA,NA,NA,"","",1,1,"2024-08-26_22h40.26.551","IAT(Formal)","2021.2.3","Win32",59.73002031,"",NA,"i",1,0.79306,0,23,23,30,1,"执拗","i","",NA,"",NA,NA,NA,NA,NA,NA,NA,"","","",NA,NA,NA,NA,NA,NA,"",NA,"",NA,NA,NA,NA,NA,NA,NA,"",NA,"",NA,NA,NA,NA,NA,NA,NA,"","","",NA,"",NA,NA,NA,NA,NA,NA,NA,"",NA,"34"
"",NA,"",NA,"",NA,NA,NA,NA,NA,NA,NA,"","",1,1,"2024-08-26_22h40.26.551","IAT(Formal)","2021.2.3","Win32",59.73002031,"",NA,"i",1,0.85098,0,24,24,36,1,"野蛮","i","",NA,"",NA,NA,NA,NA,NA,NA,NA,"","","",NA,NA,NA,NA,NA,NA,"",NA,"",NA,NA,NA,NA,NA,NA,NA,"",NA,"",NA,NA,NA,NA,NA,NA,NA,"","","",NA,"",NA,NA,NA,NA,NA,NA,NA,"",NA,"34"
"",NA,"",NA,"",NA,NA,NA,NA,NA,NA,NA,"","",1,1,"2024-08-26_22h40.26.551","IAT(Formal)","2021.2.3","Win32",59.73002031,"",NA,"e",1,0.70816,0,25,25,3,1,"杰出","e","",NA,"",NA,NA,NA,NA,NA,NA,NA,"","","",NA,NA,NA,NA,NA,NA,"",NA,"",NA,NA,NA,NA,NA,NA,NA,"",NA,"",NA,NA,NA,NA,NA,NA,NA,"","","",NA,"",NA,NA,NA,NA,NA,NA,NA,"",NA,"34"
"",NA,"",NA,"",NA,NA,NA,NA,NA,NA,NA,"","",1,1,"2024-08-26_22h40.26.551","IAT(Formal)","2021.2.3","Win32",59.73002031,"",NA,"i",1,1.207985,0,26,26,26,1,"自卑","i","",NA,"",NA,NA,NA,NA,NA,NA,NA,"","","",NA,NA,NA,NA,NA,NA,"",NA,"",NA,NA,NA,NA,NA,NA,NA,"",NA,"",NA,NA,NA,NA,NA,NA,NA,"","","",NA,"",NA,NA,NA,NA,NA,NA,NA,"",NA,"34"
"",NA,"",NA,"",NA,NA,NA,NA,NA,NA,NA,"","",1,1,"2024-08-26_22h40.26.551","IAT(Formal)","2021.2.3","Win32",59.73002031,"",NA,"i",1,0.686585,0,27,27,39,1,"下贱","i","",NA,"",NA,NA,NA,NA,NA,NA,NA,"","","",NA,NA,NA,NA,NA,NA,"",NA,"",NA,NA,NA,NA,NA,NA,NA,"",NA,"",NA,NA,NA,NA,NA,NA,NA,"","","",NA,"",NA,NA,NA,NA,NA,NA,NA,"",NA,"34"
"",NA,"",NA,"",NA,NA,NA,NA,NA,NA,NA,"","",1,1,"2024-08-26_22h40.26.551","IAT(Formal)","2021.2.3","Win32",59.73002031,"",NA,"i",1,0.80357,0,28,28,32,1,"凶狠","i","",NA,"",NA,NA,NA,NA,NA,NA,NA,"","","",NA,NA,NA,NA,NA,NA,"",NA,"",NA,NA,NA,NA,NA,NA,NA,"",NA,"",NA,NA,NA,NA,NA,NA,NA,"","","",NA,"",NA,NA,NA,NA,NA,NA,NA,"",NA,"34"
"",NA,"",NA,"",NA,NA,NA,NA,NA,NA,NA,"","",1,1,"2024-08-26_22h40.26.551","IAT(Formal)","2021.2.3","Win32",59.73002031,"",NA,"i",0,0.45914,0,29,29,11,1,"稳重","e","",NA,"",NA,NA,NA,NA,NA,NA,NA,"","","",NA,NA,NA,NA,NA,NA,"",NA,"",NA,NA,NA,NA,NA,NA,NA,"",NA,"",NA,NA,NA,NA,NA,NA,NA,"","","",NA,"",NA,NA,NA,NA,NA,NA,NA,"",NA,"34"
"",NA,"",NA,"",NA,NA,NA,NA,NA,NA,NA,"","",1,1,"2024-08-26_22h40.26.551","IAT(Formal)","2021.2.3","Win32",59.73002031,"",NA,"i",1,0.71639,0,30,30,33,1,"自私","i","",NA,"",NA,NA,NA,NA,NA,NA,NA,"","","",NA,NA,NA,NA,NA,NA,"",NA,"",NA,NA,NA,NA,NA,NA,NA,"",NA,"",NA,NA,NA,NA,NA,NA,NA,"","","",NA,"",NA,NA,NA,NA,NA,NA,NA,"",NA,"34"
"",NA,"",NA,"",NA,NA,NA,NA,NA,NA,NA,"","",1,1,"2024-08-26_22h40.26.551","IAT(Formal)","2021.2.3","Win32",59.73002031,"",NA,"i",1,0.70169,0,31,31,35,1,"猖狂","i","",NA,"",NA,NA,NA,NA,NA,NA,NA,"","","",NA,NA,NA,NA,NA,NA,"",NA,"",NA,NA,NA,NA,NA,NA,NA,"",NA,"",NA,NA,NA,NA,NA,NA,NA,"","","",NA,"",NA,NA,NA,NA,NA,NA,NA,"",NA,"34"
"",NA,"",NA,"",NA,NA,NA,NA,NA,NA,NA,"","",1,1,"2024-08-26_22h40.26.551","IAT(Formal)","2021.2.3","Win32",59.73002031,"",NA,"e",1,0.514985,0,32,32,7,1,"勇敢","e","",NA,"",NA,NA,NA,NA,NA,NA,NA,"","","",NA,NA,NA,NA,NA,NA,"",NA,"",NA,NA,NA,NA,NA,NA,NA,"",NA,"",NA,NA,NA,NA,NA,NA,NA,"","","",NA,"",NA,NA,NA,NA,NA,NA,NA,"",NA,"34"
"",NA,"",NA,"",NA,NA,NA,NA,NA,NA,NA,"","",1,1,"2024-08-26_22h40.26.551","IAT(Formal)","2021.2.3","Win32",59.73002031,"",NA,"e",1,0.48025,0,33,33,19,1,"诚恳","e","",NA,"",NA,NA,NA,NA,NA,NA,NA,"","","",NA,NA,NA,NA,NA,NA,"",NA,"",NA,NA,NA,NA,NA,NA,NA,"",NA,"",NA,NA,NA,NA,NA,NA,NA,"","","",NA,"",NA,NA,NA,NA,NA,NA,NA,"",NA,"34"
"",NA,"",NA,"",NA,NA,NA,NA,NA,NA,NA,"","",1,1,"2024-08-26_22h40.26.551","IAT(Formal)","2021.2.3","Win32",59.73002031,"",NA,"i",1,0.644065,0,34,34,22,1,"愚蠢","i","",NA,"",NA,NA,NA,NA,NA,NA,NA,"","","",NA,NA,NA,NA,NA,NA,"",NA,"",NA,NA,NA,NA,NA,NA,NA,"",NA,"",NA,NA,NA,NA,NA,NA,NA,"","","",NA,"",NA,NA,NA,NA,NA,NA,NA,"",NA,"34"
"",NA,"",NA,"",NA,NA,NA,NA,NA,NA,NA,"","",1,1,"2024-08-26_22h40.26.551","IAT(Formal)","2021.2.3","Win32",59.73002031,"",NA,"e",1,0.54745,0,35,35,18,1,"活泼","e","",NA,"",NA,NA,NA,NA,NA,NA,NA,"","","",NA,NA,NA,NA,NA,NA,"",NA,"",NA,NA,NA,NA,NA,NA,NA,"",NA,"",NA,NA,NA,NA,NA,NA,NA,"","","",NA,"",NA,NA,NA,NA,NA,NA,NA,"",NA,"34"
"",NA,"",NA,"",NA,NA,NA,NA,NA,NA,NA,"","",1,1,"2024-08-26_22h40.26.551","IAT(Formal)","2021.2.3","Win32",59.73002031,"",NA,"i",1,0.87912,0,36,36,31,1,"散漫","i","",NA,"",NA,NA,NA,NA,NA,NA,NA,"","","",NA,NA,NA,NA,NA,NA,"",NA,"",NA,NA,NA,NA,NA,NA,NA,"",NA,"",NA,NA,NA,NA,NA,NA,NA,"","","",NA,"",NA,NA,NA,NA,NA,NA,NA,"",NA,"34"
"",NA,"",NA,"",NA,NA,NA,NA,NA,NA,NA,"","",1,1,"2024-08-26_22h40.26.551","IAT(Formal)","2021.2.3","Win32",59.73002031,"",NA,"e",1,0.688525,0,37,37,0,1,"优秀","e","",NA,"",NA,NA,NA,NA,NA,NA,NA,"","","",NA,NA,NA,NA,NA,NA,"",NA,"",NA,NA,NA,NA,NA,NA,NA,"",NA,"",NA,NA,NA,NA,NA,NA,NA,"","","",NA,"",NA,NA,NA,NA,NA,NA,NA,"",NA,"34"
"",NA,"",NA,"",NA,NA,NA,NA,NA,NA,NA,"","",1,1,"2024-08-26_22h40.26.551","IAT(Formal)","2021.2.3","Win32",59.73002031,"",NA,"e",1,0.539525,0,38,38,5,1,"诚实","e","",NA,"",NA,NA,NA,NA,NA,NA,NA,"","","",NA,NA,NA,NA,NA,NA,"",NA,"",NA,NA,NA,NA,NA,NA,NA,"",NA,"",NA,NA,NA,NA,NA,NA,NA,"","","",NA,"",NA,NA,NA,NA,NA,NA,NA,"",NA,"34"
"",NA,"",NA,"",NA,NA,NA,NA,NA,NA,NA,"","",1,1,"2024-08-26_22h40.26.551","IAT(Formal)","2021.2.3","Win32",59.73002031,"",NA,"e",0,0.62661,0,39,39,28,1,"鲁莽","i","",NA,"",NA,NA,NA,NA,NA,NA,NA,"","","",NA,NA,NA,NA,NA,NA,"",NA,"",NA,NA,NA,NA,NA,NA,NA,"",NA,"",NA,NA,NA,NA,NA,NA,NA,"","","",NA,"",NA,NA,NA,NA,NA,NA,NA,"",NA,"34"
"",NA,"",NA,"",NA,NA,NA,NA,NA,NA,NA,"","",1,1,"2024-08-26_22h40.26.551","IAT(Formal)","2021.2.3","Win32",59.73002031,"",NA,"",NA,NA,NA,NA,NA,NA,NA,"","","space",3.841255,"e",1,0.73478,0,0,0,62,1,"我们","e","",NA,NA,NA,NA,NA,NA,"",NA,"",NA,NA,NA,NA,NA,NA,NA,"",NA,"",NA,NA,NA,NA,NA,NA,NA,"","","",NA,"",NA,NA,NA,NA,NA,NA,NA,"",NA,"34"
"",NA,"",NA,"",NA,NA,NA,NA,NA,NA,NA,"","",1,1,"2024-08-26_22h40.26.551","IAT(Formal)","2021.2.3","Win32",59.73002031,"",NA,"",NA,NA,NA,NA,NA,NA,NA,"","","",NA,"i",1,0.83637,0,1,1,30,1,"卑鄙","i","",NA,NA,NA,NA,NA,NA,"",NA,"",NA,NA,NA,NA,NA,NA,NA,"",NA,"",NA,NA,NA,NA,NA,NA,NA,"","","",NA,"",NA,NA,NA,NA,NA,NA,NA,"",NA,"34"
"",NA,"",NA,"",NA,NA,NA,NA,NA,NA,NA,"","",1,1,"2024-08-26_22h40.26.551","IAT(Formal)","2021.2.3","Win32",59.73002031,"",NA,"",NA,NA,NA,NA,NA,NA,NA,"","","",NA,"e",1,0.621375,0,2,2,63,1,"自己","e","",NA,NA,NA,NA,NA,NA,"",NA,"",NA,NA,NA,NA,NA,NA,NA,"",NA,"",NA,NA,NA,NA,NA,NA,NA,"","","",NA,"",NA,NA,NA,NA,NA,NA,NA,"",NA,"34"
"",NA,"",NA,"",NA,NA,NA,NA,NA,NA,NA,"","",1,1,"2024-08-26_22h40.26.551","IAT(Formal)","2021.2.3","Win32",59.73002031,"",NA,"",NA,NA,NA,NA,NA,NA,NA,"","","",NA,"i",1,0.572225,0,3,3,42,1,"凶狠","i","",NA,NA,NA,NA,NA,NA,"",NA,"",NA,NA,NA,NA,NA,NA,NA,"",NA,"",NA,NA,NA,NA,NA,NA,NA,"","","",NA,"",NA,NA,NA,NA,NA,NA,NA,"",NA,"34"
"",NA,"",NA,"",NA,NA,NA,NA,NA,NA,NA,"","",1,1,"2024-08-26_22h40.26.551","IAT(Formal)","2021.2.3","Win32",59.73002031,"",NA,"",NA,NA,NA,NA,NA,NA,NA,"","","",NA,"i",1,0.70593,0,4,4,36,1,"自卑","i","",NA,NA,NA,NA,NA,NA,"",NA,"",NA,NA,NA,NA,NA,NA,NA,"",NA,"",NA,NA,NA,NA,NA,NA,NA,"","","",NA,"",NA,NA,NA,NA,NA,NA,NA,"",NA,"34"
"",NA,"",NA,"",NA,NA,NA,NA,NA,NA,NA,"","",1,1,"2024-08-26_22h40.26.551","IAT(Formal)","2021.2.3","Win32",59.73002031,"",NA,"",NA,NA,NA,NA,NA,NA,NA,"","","",NA,"e",1,0.64149,0,5,5,53,1,"自己","e","",NA,NA,NA,NA,NA,NA,"",NA,"",NA,NA,NA,NA,NA,NA,NA,"",NA,"",NA,NA,NA,NA,NA,NA,NA,"","","",NA,"",NA,NA,NA,NA,NA,NA,NA,"",NA,"34"
"",NA,"",NA,"",NA,NA,NA,NA,NA,NA,NA,"","",1,1,"2024-08-26_22h40.26.551","IAT(Formal)","2021.2.3","Win32",59.73002031,"",NA,"",NA,NA,NA,NA,NA,NA,NA,"","","",NA,"i",1,0.632765,0,6,6,68,1,"他人","i","",NA,NA,NA,NA,NA,NA,"",NA,"",NA,NA,NA,NA,NA,NA,NA,"",NA,"",NA,NA,NA,NA,NA,NA,NA,"","","",NA,"",NA,NA,NA,NA,NA,NA,NA,"",NA,"34"
"",NA,"",NA,"",NA,NA,NA,NA,NA,NA,NA,"","",1,1,"2024-08-26_22h40.26.551","IAT(Formal)","2021.2.3","Win32",59.73002031,"",NA,"",NA,NA,NA,NA,NA,NA,NA,"","","",NA,"e",1,0.708155,0,7,7,12,1,"聪明","e","",NA,NA,NA,NA,NA,NA,"",NA,"",NA,NA,NA,NA,NA,NA,NA,"",NA,"",NA,NA,NA,NA,NA,NA,NA,"","","",NA,"",NA,NA,NA,NA,NA,NA,NA,"",NA,"34"
"",NA,"",NA,"",NA,NA,NA,NA,NA,NA,NA,"","",1,1,"2024-08-26_22h40.26.551","IAT(Formal)","2021.2.3","Win32",59.73002031,"",NA,"",NA,NA,NA,NA,NA,NA,NA,"","","",NA,"e",1,0.695305,0,8,8,25,1,"细腻","e","",NA,NA,NA,NA,NA,NA,"",NA,"",NA,NA,NA,NA,NA,NA,NA,"",NA,"",NA,NA,NA,NA,NA,NA,NA,"","","",NA,"",NA,NA,NA,NA,NA,NA,NA,"",NA,"34"
"",NA,"",NA,"",NA,NA,NA,NA,NA,NA,NA,"","",1,1,"2024-08-26_22h40.26.551","IAT(Formal)","2021.2.3","Win32",59.73002031,"",NA,"",NA,NA,NA,NA,NA,NA,NA,"","","",NA,"e",1,0.573035,0,9,9,20,1,"认真","e","",NA,NA,NA,NA,NA,NA,"",NA,"",NA,NA,NA,NA,NA,NA,NA,"",NA,"",NA,NA,NA,NA,NA,NA,NA,"","","",NA,"",NA,NA,NA,NA,NA,NA,NA,"",NA,"34"
"",NA,"",NA,"",NA,NA,NA,NA,NA,NA,NA,"","",1,1,"2024-08-26_22h40.26.551","IAT(Formal)","2021.2.3","Win32",59.73002031,"",NA,"",NA,NA,NA,NA,NA,NA,NA,"","","",NA,"e",0,0.495235,0,10,10,66,1,"他们","i","",NA,NA,NA,NA,NA,NA,"",NA,"",NA,NA,NA,NA,NA,NA,NA,"",NA,"",NA,NA,NA,NA,NA,NA,NA,"","","",NA,"",NA,NA,NA,NA,NA,NA,NA,"",NA,"34"
"",NA,"",NA,"",NA,NA,NA,NA,NA,NA,NA,"","",1,1,"2024-08-26_22h40.26.551","IAT(Formal)","2021.2.3","Win32",59.73002031,"",NA,"",NA,NA,NA,NA,NA,NA,NA,"","","",NA,"i",1,0.650585,0,11,11,34,1,"悲观","i","",NA,NA,NA,NA,NA,NA,"",NA,"",NA,NA,NA,NA,NA,NA,NA,"",NA,"",NA,NA,NA,NA,NA,NA,NA,"","","",NA,"",NA,NA,NA,NA,NA,NA,NA,"",NA,"34"
"",NA,"",NA,"",NA,NA,NA,NA,NA,NA,NA,"","",1,1,"2024-08-26_22h40.26.551","IAT(Formal)","2021.2.3","Win32",59.73002031,"",NA,"",NA,NA,NA,NA,NA,NA,NA,"","","",NA,"i",1,0.644725,0,12,12,32,1,"愚蠢","i","",NA,NA,NA,NA,NA,NA,"",NA,"",NA,NA,NA,NA,NA,NA,NA,"",NA,"",NA,NA,NA,NA,NA,NA,NA,"","","",NA,"",NA,NA,NA,NA,NA,NA,NA,"",NA,"34"
"",NA,"",NA,"",NA,NA,NA,NA,NA,NA,NA,"","",1,1,"2024-08-26_22h40.26.551","IAT(Formal)","2021.2.3","Win32",59.73002031,"",NA,"",NA,NA,NA,NA,NA,NA,NA,"","","",NA,"i",1,0.73309,0,13,13,57,1,"他的","i","",NA,NA,NA,NA,NA,NA,"",NA,"",NA,NA,NA,NA,NA,NA,NA,"",NA,"",NA,NA,NA,NA,NA,NA,NA,"","","",NA,"",NA,NA,NA,NA,NA,NA,NA,"",NA,"34"
"",NA,"",NA,"",NA,NA,NA,NA,NA,NA,NA,"","",1,1,"2024-08-26_22h40.26.551","IAT(Formal)","2021.2.3","Win32",59.73002031,"",NA,"",NA,NA,NA,NA,NA,NA,NA,"","","",NA,"e",1,0.56281,0,14,14,27,1,"热情","e","",NA,NA,NA,NA,NA,NA,"",NA,"",NA,NA,NA,NA,NA,NA,NA,"",NA,"",NA,NA,NA,NA,NA,NA,NA,"","","",NA,"",NA,NA,NA,NA,NA,NA,NA,"",NA,"34"
"",NA,"",NA,"",NA,NA,NA,NA,NA,NA,NA,"","",1,1,"2024-08-26_22h40.26.551","IAT(Formal)","2021.2.3","Win32",59.73002031,"",NA,"",NA,NA,NA,NA,NA,NA,NA,"","","",NA,"i",1,0.68284,0,15,15,43,1,"自私","i","",NA,NA,NA,NA,NA,NA,"",NA,"",NA,NA,NA,NA,NA,NA,NA,"",NA,"",NA,NA,NA,NA,NA,NA,NA,"","","",NA,"",NA,NA,NA,NA,NA,NA,NA,"",NA,"34"
"",NA,"",NA,"",NA,NA,NA,NA,NA,NA,NA,"","",1,1,"2024-08-26_22h40.26.551","IAT(Formal)","2021.2.3","Win32",59.73002031,"",NA,"",NA,NA,NA,NA,NA,NA,NA,"","","",NA,"e",0,0.676325,0,16,16,47,1,"固执","i","",NA,NA,NA,NA,NA,NA,"",NA,"",NA,NA,NA,NA,NA,NA,NA,"",NA,"",NA,NA,NA,NA,NA,NA,NA,"","","",NA,"",NA,NA,NA,NA,NA,NA,NA,"",NA,"34"
"",NA,"",NA,"",NA,NA,NA,NA,NA,NA,NA,"","",1,1,"2024-08-26_22h40.26.551","IAT(Formal)","2021.2.3","Win32",59.73002031,"",NA,"",NA,NA,NA,NA,NA,NA,NA,"","","",NA,"e",1,0.653,0,17,17,1,1,"我的","e","",NA,NA,NA,NA,NA,NA,"",NA,"",NA,NA,NA,NA,NA,NA,NA,"",NA,"",NA,NA,NA,NA,NA,NA,NA,"","","",NA,"",NA,NA,NA,NA,NA,NA,NA,"",NA,"34"
"",NA,"",NA,"",NA,NA,NA,NA,NA,NA,NA,"","",1,1,"2024-08-26_22h40.26.551","IAT(Formal)","2021.2.3","Win32",59.73002031,"",NA,"",NA,NA,NA,NA,NA,NA,NA,"","","",NA,"e",1,0.51562,0,18,18,50,1,"我","e","",NA,NA,NA,NA,NA,NA,"",NA,"",NA,NA,NA,NA,NA,NA,NA,"",NA,"",NA,NA,NA,NA,NA,NA,NA,"","","",NA,"",NA,NA,NA,NA,NA,NA,NA,"",NA,"34"
"",NA,"",NA,"",NA,NA,NA,NA,NA,NA,NA,"","",1,1,"2024-08-26_22h40.26.551","IAT(Formal)","2021.2.3","Win32",59.73002031,"",NA,"",NA,NA,NA,NA,NA,NA,NA,"","","",NA,"i",1,0.63125,0,19,19,77,1,"他的","i","",NA,NA,NA,NA,NA,NA,"",NA,"",NA,NA,NA,NA,NA,NA,NA,"",NA,"",NA,NA,NA,NA,NA,NA,NA,"","","",NA,"",NA,NA,NA,NA,NA,NA,NA,"",NA,"34"
"",NA,"",NA,"",NA,NA,NA,NA,NA,NA,NA,"","",1,1,"2024-08-26_22h40.26.551","IAT(Formal)","2021.2.3","Win32",59.73002031,"",NA,"",NA,NA,NA,NA,NA,NA,NA,"","","",NA,"i",1,0.575615,0,20,20,67,1,"他的","i","",NA,NA,NA,NA,NA,NA,"",NA,"",NA,NA,NA,NA,NA,NA,NA,"",NA,"",NA,NA,NA,NA,NA,NA,NA,"","","",NA,"",NA,NA,NA,NA,NA,NA,NA,"",NA,"34"
"",NA,"",NA,"",NA,NA,NA,NA,NA,NA,NA,"","",1,1,"2024-08-26_22h40.26.551","IAT(Formal)","2021.2.3","Win32",59.73002031,"",NA,"",NA,NA,NA,NA,NA,NA,NA,"","","",NA,"e",1,0.629745,0,21,21,71,1,"我的","e","",NA,NA,NA,NA,NA,NA,"",NA,"",NA,NA,NA,NA,NA,NA,NA,"",NA,"",NA,NA,NA,NA,NA,NA,NA,"","","",NA,"",NA,NA,NA,NA,NA,NA,NA,"",NA,"34"
"",NA,"",NA,"",NA,NA,NA,NA,NA,NA,NA,"","",1,1,"2024-08-26_22h40.26.551","IAT(Formal)","2021.2.3","Win32",59.73002031,"",NA,"",NA,NA,NA,NA,NA,NA,NA,"","","",NA,"i",0,0.65444,0,22,22,26,1,"冷静","e","",NA,NA,NA,NA,NA,NA,"",NA,"",NA,NA,NA,NA,NA,NA,NA,"",NA,"",NA,NA,NA,NA,NA,NA,NA,"","","",NA,"",NA,NA,NA,NA,NA,NA,NA,"",NA,"34"
"",NA,"",NA,"",NA,NA,NA,NA,NA,NA,NA,"","",1,1,"2024-08-26_22h40.26.551","IAT(Formal)","2021.2.3","Win32",59.73002031,"",NA,"",NA,NA,NA,NA,NA,NA,NA,"","","",NA,"e",1,0.621255,0,23,23,51,1,"我的","e","",NA,NA,NA,NA,NA,NA,"",NA,"",NA,NA,NA,NA,NA,NA,NA,"",NA,"",NA,NA,NA,NA,NA,NA,NA,"","","",NA,"",NA,NA,NA,NA,NA,NA,NA,"",NA,"34"
"",NA,"",NA,"",NA,NA,NA,NA,NA,NA,NA,"","",1,1,"2024-08-26_22h40.26.551","IAT(Formal)","2021.2.3","Win32",59.73002031,"",NA,"",NA,NA,NA,NA,NA,NA,NA,"","","",NA,"e",1,0.726715,0,24,24,19,1,"机智","e","",NA,NA,NA,NA,NA,NA,"",NA,"",NA,NA,NA,NA,NA,NA,NA,"",NA,"",NA,NA,NA,NA,NA,NA,NA,"","","",NA,"",NA,NA,NA,NA,NA,NA,NA,"",NA,"34"
"",NA,"",NA,"",NA,NA,NA,NA,NA,NA,NA,"","",1,1,"2024-08-26_22h40.26.551","IAT(Formal)","2021.2.3","Win32",59.73002031,"",NA,"",NA,NA,NA,NA,NA,NA,NA,"","","",NA,"i",1,0.82722,0,25,25,35,1,"消极","i","",NA,NA,NA,NA,NA,NA,"",NA,"",NA,NA,NA,NA,NA,NA,NA,"",NA,"",NA,NA,NA,NA,NA,NA,NA,"","","",NA,"",NA,NA,NA,NA,NA,NA,NA,"",NA,"34"
"",NA,"",NA,"",NA,NA,NA,NA,NA,NA,NA,"","",1,1,"2024-08-26_22h40.26.551","IAT(Formal)","2021.2.3","Win32",59.73002031,"",NA,"",NA,NA,NA,NA,NA,NA,NA,"","","",NA,"i",1,0.711375,0,26,26,38,1,"鲁莽","i","",NA,NA,NA,NA,NA,NA,"",NA,"",NA,NA,NA,NA,NA,NA,NA,"",NA,"",NA,NA,NA,NA,NA,NA,NA,"","","",NA,"",NA,NA,NA,NA,NA,NA,NA,"",NA,"34"
"",NA,"",NA,"",NA,NA,NA,NA,NA,NA,NA,"","",1,1,"2024-08-26_22h40.26.551","IAT(Formal)","2021.2.3","Win32",59.73002031,"",NA,"",NA,NA,NA,NA,NA,NA,NA,"","","",NA,"e",1,0.606485,0,27,27,52,1,"我们","e","",NA,NA,NA,NA,NA,NA,"",NA,"",NA,NA,NA,NA,NA,NA,NA,"",NA,"",NA,NA,NA,NA,NA,NA,NA,"","","",NA,"",NA,NA,NA,NA,NA,NA,NA,"",NA,"34"
"",NA,"",NA,"",NA,NA,NA,NA,NA,NA,NA,"","",1,1,"2024-08-26_22h40.26.551","IAT(Formal)","2021.2.3","Win32",59.73002031,"",NA,"",NA,NA,NA,NA,NA,NA,NA,"","","",NA,"e",1,0.593805,0,28,28,16,1,"正直","e","",NA,NA,NA,NA,NA,NA,"",NA,"",NA,NA,NA,NA,NA,NA,NA,"",NA,"",NA,NA,NA,NA,NA,NA,NA,"","","",NA,"",NA,NA,NA,NA,NA,NA,NA,"",NA,"34"
"",NA,"",NA,"",NA,NA,NA,NA,NA,NA,NA,"","",1,1,"2024-08-26_22h40.26.551","IAT(Formal)","2021.2.3","Win32",59.73002031,"",NA,"",NA,NA,NA,NA,NA,NA,NA,"","","",NA,"i",1,0.6267,0,29,29,79,1,"其他","i","",NA,NA,NA,NA,NA,NA,"",NA,"",NA,NA,NA,NA,NA,NA,NA,"",NA,"",NA,NA,NA,NA,NA,NA,NA,"","","",NA,"",NA,NA,NA,NA,NA,NA,NA,"",NA,"34"
"",NA,"",NA,"",NA,NA,NA,NA,NA,NA,NA,"","",1,1,"2024-08-26_22h40.26.551","IAT(Formal)","2021.2.3","Win32",59.73002031,"",NA,"",NA,NA,NA,NA,NA,NA,NA,"","","",NA,"e",1,0.613355,0,30,30,15,1,"诚实","e","",NA,NA,NA,NA,NA,NA,"",NA,"",NA,NA,NA,NA,NA,NA,NA,"",NA,"",NA,NA,NA,NA,NA,NA,NA,"","","",NA,"",NA,NA,NA,NA,NA,NA,NA,"",NA,"34"
"",NA,"",NA,"",NA,NA,NA,NA,NA,NA,NA,"","",1,1,"2024-08-26_22h40.26.551","IAT(Formal)","2021.2.3","Win32",59.73002031,"",NA,"",NA,NA,NA,NA,NA,NA,NA,"","","",NA,"e",1,0.65426,0,31,31,21,1,"稳重","e","",NA,NA,NA,NA,NA,NA,"",NA,"",NA,NA,NA,NA,NA,NA,NA,"",NA,"",NA,NA,NA,NA,NA,NA,NA,"","","",NA,"",NA,NA,NA,NA,NA,NA,NA,"",NA,"34"
"",NA,"",NA,"",NA,NA,NA,NA,NA,NA,NA,"","",1,1,"2024-08-26_22h40.26.551","IAT(Formal)","2021.2.3","Win32",59.73002031,"",NA,"",NA,NA,NA,NA,NA,NA,NA,"","","",NA,"e",1,0.656925,0,32,32,72,1,"我们","e","",NA,NA,NA,NA,NA,NA,"",NA,"",NA,NA,NA,NA,NA,NA,NA,"",NA,"",NA,NA,NA,NA,NA,NA,NA,"","","",NA,"",NA,NA,NA,NA,NA,NA,NA,"",NA,"34"
"",NA,"",NA,"",NA,NA,NA,NA,NA,NA,NA,"","",1,1,"2024-08-26_22h40.26.551","IAT(Formal)","2021.2.3","Win32",59.73002031,"",NA,"",NA,NA,NA,NA,NA,NA,NA,"","","",NA,"i",1,0.6702,0,33,33,33,1,"刻薄","i","",NA,NA,NA,NA,NA,NA,"",NA,"",NA,NA,NA,NA,NA,NA,NA,"",NA,"",NA,NA,NA,NA,NA,NA,NA,"","","",NA,"",NA,NA,NA,NA,NA,NA,NA,"",NA,"34"
"",NA,"",NA,"",NA,NA,NA,NA,NA,NA,NA,"","",1,1,"2024-08-26_22h40.26.551","IAT(Formal)","2021.2.3","Win32",59.73002031,"",NA,"",NA,NA,NA,NA,NA,NA,NA,"","","",NA,"i",1,0.74219,0,34,34,41,1,"散漫","i","",NA,NA,NA,NA,NA,NA,"",NA,"",NA,NA,NA,NA,NA,NA,NA,"",NA,"",NA,NA,NA,NA,NA,NA,NA,"","","",NA,"",NA,NA,NA,NA,NA,NA,NA,"",NA,"34"
"",NA,"",NA,"",NA,NA,NA,NA,NA,NA,NA,"","",1,1,"2024-08-26_22h40.26.551","IAT(Formal)","2021.2.3","Win32",59.73002031,"",NA,"",NA,NA,NA,NA,NA,NA,NA,"","","",NA,"i",0,0.50173,0,35,35,2,1,"我们","e","",NA,NA,NA,NA,NA,NA,"",NA,"",NA,NA,NA,NA,NA,NA,NA,"",NA,"",NA,NA,NA,NA,NA,NA,NA,"","","",NA,"",NA,NA,NA,NA,NA,NA,NA,"",NA,"34"
"",NA,"",NA,"",NA,NA,NA,NA,NA,NA,NA,"","",1,1,"2024-08-26_22h40.26.551","IAT(Formal)","2021.2.3","Win32",59.73002031,"",NA,"",NA,NA,NA,NA,NA,NA,NA,"","","",NA,"i",0,0.50995,0,36,36,22,1,"无私","e","",NA,NA,NA,NA,NA,NA,"",NA,"",NA,NA,NA,NA,NA,NA,NA,"",NA,"",NA,NA,NA,NA,NA,NA,NA,"","","",NA,"",NA,NA,NA,NA,NA,NA,NA,"",NA,"34"
"",NA,"",NA,"",NA,NA,NA,NA,NA,NA,NA,"","",1,1,"2024-08-26_22h40.26.551","IAT(Formal)","2021.2.3","Win32",59.73002031,"",NA,"",NA,NA,NA,NA,NA,NA,NA,"","","",NA,"e",1,0.63131,0,37,37,28,1,"活泼","e","",NA,NA,NA,NA,NA,NA,"",NA,"",NA,NA,NA,NA,NA,NA,NA,"",NA,"",NA,NA,NA,NA,NA,NA,NA,"","","",NA,"",NA,NA,NA,NA,NA,NA,NA,"",NA,"34"
"",NA,"",NA,"",NA,NA,NA,NA,NA,NA,NA,"","",1,1,"2024-08-26_22h40.26.551","IAT(Formal)","2021.2.3","Win32",59.73002031,"",NA,"",NA,NA,NA,NA,NA,NA,NA,"","","",NA,"e",1,0.6213,0,38,38,17,1,"勇敢","e","",NA,NA,NA,NA,NA,NA,"",NA,"",NA,NA,NA,NA,NA,NA,NA,"",NA,"",NA,NA,NA,NA,NA,NA,NA,"","","",NA,"",NA,NA,NA,NA,NA,NA,NA,"",NA,"34"
"",NA,"",NA,"",NA,NA,NA,NA,NA,NA,NA,"","",1,1,"2024-08-26_22h40.26.551","IAT(Formal)","2021.2.3","Win32",59.73002031,"",NA,"",NA,NA,NA,NA,NA,NA,NA,"","","",NA,"e",0,0.654595,0,39,39,56,1,"他们","i","",NA,NA,NA,NA,NA,NA,"",NA,"",NA,NA,NA,NA,NA,NA,NA,"",NA,"",NA,NA,NA,NA,NA,NA,NA,"","","",NA,"",NA,NA,NA,NA,NA,NA,NA,"",NA,"34"
"",NA,"",NA,"",NA,NA,NA,NA,NA,NA,NA,"","",1,1,"2024-08-26_22h40.26.551","IAT(Formal)","2021.2.3","Win32",59.73002031,"",NA,"",NA,NA,NA,NA,NA,NA,NA,"","","",NA,"e",1,0.66003,0,40,40,29,1,"诚恳","e","",NA,NA,NA,NA,NA,NA,"",NA,"",NA,NA,NA,NA,NA,NA,NA,"",NA,"",NA,NA,NA,NA,NA,NA,NA,"","","",NA,"",NA,NA,NA,NA,NA,NA,NA,"",NA,"34"
"",NA,"",NA,"",NA,NA,NA,NA,NA,NA,NA,"","",1,1,"2024-08-26_22h40.26.551","IAT(Formal)","2021.2.3","Win32",59.73002031,"",NA,"",NA,NA,NA,NA,NA,NA,NA,"","","",NA,"i",1,0.59201,0,41,41,44,1,"暴躁","i","",NA,NA,NA,NA,NA,NA,"",NA,"",NA,NA,NA,NA,NA,NA,NA,"",NA,"",NA,NA,NA,NA,NA,NA,NA,"","","",NA,"",NA,NA,NA,NA,NA,NA,NA,"",NA,"34"
"",NA,"",NA,"",NA,NA,NA,NA,NA,NA,NA,"","",1,1,"2024-08-26_22h40.26.551","IAT(Formal)","2021.2.3","Win32",59.73002031,"",NA,"",NA,NA,NA,NA,NA,NA,NA,"","","",NA,"e",1,0.599865,0,42,42,73,1,"自己","e","",NA,NA,NA,NA,NA,NA,"",NA,"",NA,NA,NA,NA,NA,NA,NA,"",NA,"",NA,NA,NA,NA,NA,NA,NA,"","","",NA,"",NA,NA,NA,NA,NA,NA,NA,"",NA,"34"
"",NA,"",NA,"",NA,NA,NA,NA,NA,NA,NA,"","",1,1,"2024-08-26_22h40.26.551","IAT(Formal)","2021.2.3","Win32",59.73002031,"",NA,"",NA,NA,NA,NA,NA,NA,NA,"","","",NA,"e",1,0.87716,0,43,43,10,1,"优秀","e","",NA,NA,NA,NA,NA,NA,"",NA,"",NA,NA,NA,NA,NA,NA,NA,"",NA,"",NA,NA,NA,NA,NA,NA,NA,"","","",NA,"",NA,NA,NA,NA,NA,NA,NA,"",NA,"34"
"",NA,"",NA,"",NA,NA,NA,NA,NA,NA,NA,"","",1,1,"2024-08-26_22h40.26.551","IAT(Formal)","2021.2.3","Win32",59.73002031,"",NA,"",NA,NA,NA,NA,NA,NA,NA,"","","",NA,"e",1,0.628755,0,44,44,18,1,"勤奋","e","",NA,NA,NA,NA,NA,NA,"",NA,"",NA,NA,NA,NA,NA,NA,NA,"",NA,"",NA,NA,NA,NA,NA,NA,NA,"","","",NA,"",NA,NA,NA,NA,NA,NA,NA,"",NA,"34"
"",NA,"",NA,"",NA,NA,NA,NA,NA,NA,NA,"","",1,1,"2024-08-26_22h40.26.551","IAT(Formal)","2021.2.3","Win32",59.73002031,"",NA,"",NA,NA,NA,NA,NA,NA,NA,"","","",NA,"e",0,0.457105,0,45,45,46,1,"野蛮","i","",NA,NA,NA,NA,NA,NA,"",NA,"",NA,NA,NA,NA,NA,NA,NA,"",NA,"",NA,NA,NA,NA,NA,NA,NA,"","","",NA,"",NA,NA,NA,NA,NA,NA,NA,"",NA,"34"
"",NA,"",NA,"",NA,NA,NA,NA,NA,NA,NA,"","",1,1,"2024-08-26_22h40.26.551","IAT(Formal)","2021.2.3","Win32",59.73002031,"",NA,"",NA,NA,NA,NA,NA,NA,NA,"","","",NA,"e",1,0.49129,0,46,46,0,1,"我","e","",NA,NA,NA,NA,NA,NA,"",NA,"",NA,NA,NA,NA,NA,NA,NA,"",NA,"",NA,NA,NA,NA,NA,NA,NA,"","","",NA,"",NA,NA,NA,NA,NA,NA,NA,"",NA,"34"
"",NA,"",NA,"",NA,NA,NA,NA,NA,NA,NA,"","",1,1,"2024-08-26_22h40.26.551","IAT(Formal)","2021.2.3","Win32",59.73002031,"",NA,"",NA,NA,NA,NA,NA,NA,NA,"","","",NA,"i",1,0.52491,0,47,47,7,1,"他的","i","",NA,NA,NA,NA,NA,NA,"",NA,"",NA,NA,NA,NA,NA,NA,NA,"",NA,"",NA,NA,NA,NA,NA,NA,NA,"","","",NA,"",NA,NA,NA,NA,NA,NA,NA,"",NA,"34"
"",NA,"",NA,"",NA,NA,NA,NA,NA,NA,NA,"","",1,1,"2024-08-26_22h40.26.551","IAT(Formal)","2021.2.3","Win32",59.73002031,"",NA,"",NA,NA,NA,NA,NA,NA,NA,"","","",NA,"i",1,0.57524,0,48,48,76,1,"他们","i","",NA,NA,NA,NA,NA,NA,"",NA,"",NA,NA,NA,NA,NA,NA,NA,"",NA,"",NA,NA,NA,NA,NA,NA,NA,"","","",NA,"",NA,NA,NA,NA,NA,NA,NA,"",NA,"34"
"",NA,"",NA,"",NA,NA,NA,NA,NA,NA,NA,"","",1,1,"2024-08-26_22h40.26.551","IAT(Formal)","2021.2.3","Win32",59.73002031,"",NA,"",NA,NA,NA,NA,NA,NA,NA,"","","",NA,"i",1,0.5836,0,49,49,59,1,"其他","i","",NA,NA,NA,NA,NA,NA,"",NA,"",NA,NA,NA,NA,NA,NA,NA,"",NA,"",NA,NA,NA,NA,NA,NA,NA,"","","",NA,"",NA,NA,NA,NA,NA,NA,NA,"",NA,"34"
"",NA,"",NA,"",NA,NA,NA,NA,NA,NA,NA,"","",1,1,"2024-08-26_22h40.26.551","IAT(Formal)","2021.2.3","Win32",59.73002031,"",NA,"",NA,NA,NA,NA,NA,NA,NA,"","","",NA,"e",1,0.884765,0,50,50,24,1,"朴实","e","",NA,NA,NA,NA,NA,NA,"",NA,"",NA,NA,NA,NA,NA,NA,NA,"",NA,"",NA,NA,NA,NA,NA,NA,NA,"","","",NA,"",NA,NA,NA,NA,NA,NA,NA,"",NA,"34"
"",NA,"",NA,"",NA,NA,NA,NA,NA,NA,NA,"","",1,1,"2024-08-26_22h40.26.551","IAT(Formal)","2021.2.3","Win32",59.73002031,"",NA,"",NA,NA,NA,NA,NA,NA,NA,"","","",NA,"e",1,0.60926,0,51,51,70,1,"我","e","",NA,NA,NA,NA,NA,NA,"",NA,"",NA,NA,NA,NA,NA,NA,NA,"",NA,"",NA,NA,NA,NA,NA,NA,NA,"","","",NA,"",NA,NA,NA,NA,NA,NA,NA,"",NA,"34"
"",NA,"",NA,"",NA,NA,NA,NA,NA,NA,NA,"","",1,1,"2024-08-26_22h40.26.551","IAT(Formal)","2021.2.3","Win32",59.73002031,"",NA,"",NA,NA,NA,NA,NA,NA,NA,"","","",NA,"i",1,0.615875,0,52,52,78,1,"他人","i","",NA,NA,NA,NA,NA,NA,"",NA,"",NA,NA,NA,NA,NA,NA,NA,"",NA,"",NA,NA,NA,NA,NA,NA,NA,"","","",NA,"",NA,NA,NA,NA,NA,NA,NA,"",NA,"34"
"",NA,"",NA,"",NA,NA,NA,NA,NA,NA,NA,"","",1,1,"2024-08-26_22h40.26.551","IAT(Formal)","2021.2.3","Win32",59.73002031,"",NA,"",NA,NA,NA,NA,NA,NA,NA,"","","",NA,"i",1,0.466485,0,53,53,55,1,"他","i","",NA,NA,NA,NA,NA,NA,"",NA,"",NA,NA,NA,NA,NA,NA,NA,"",NA,"",NA,NA,NA,NA,NA,NA,NA,"","","",NA,"",NA,NA,NA,NA,NA,NA,NA,"",NA,"34"
"",NA,"",NA,"",NA,NA,NA,NA,NA,NA,NA,"","",1,1,"2024-08-26_22h40.26.551","IAT(Formal)","2021.2.3","Win32",59.73002031,"",NA,"",NA,NA,NA,NA,NA,NA,NA,"","","",NA,"e",1,0.58405,0,54,54,11,1,"崇高","e","",NA,NA,NA,NA,NA,NA,"",NA,"",NA,NA,NA,NA,NA,NA,NA,"",NA,"",NA,NA,NA,NA,NA,NA,NA,"","","",NA,"",NA,NA,NA,NA,NA,NA,NA,"",NA,"34"
"",NA,"",NA,"",NA,NA,NA,NA,NA,NA,NA,"","",1,1,"2024-08-26_22h40.26.551","IAT(Formal)","2021.2.3","Win32",59.73002031,"",NA,"",NA,NA,NA,NA,NA,NA,NA,"","","",NA,"i",1,0.63038,0,55,55,31,1,"虚伪","i","",NA,NA,NA,NA,NA,NA,"",NA,"",NA,NA,NA,NA,NA,NA,NA,"",NA,"",NA,NA,NA,NA,NA,NA,NA,"","","",NA,"",NA,NA,NA,NA,NA,NA,NA,"",NA,"34"
"",NA,"",NA,"",NA,NA,NA,NA,NA,NA,NA,"","",1,1,"2024-08-26_22h40.26.551","IAT(Formal)","2021.2.3","Win32",59.73002031,"",NA,"",NA,NA,NA,NA,NA,NA,NA,"","","",NA,"i",1,1.15439,0,56,56,75,1,"他","i","",NA,NA,NA,NA,NA,NA,"",NA,"",NA,NA,NA,NA,NA,NA,NA,"",NA,"",NA,NA,NA,NA,NA,NA,NA,"","","",NA,"",NA,NA,NA,NA,NA,NA,NA,"",NA,"34"
"",NA,"",NA,"",NA,NA,NA,NA,NA,NA,NA,"","",1,1,"2024-08-26_22h40.26.551","IAT(Formal)","2021.2.3","Win32",59.73002031,"",NA,"",NA,NA,NA,NA,NA,NA,NA,"","","",NA,"i",1,0.66434,0,57,57,58,1,"他人","i","",NA,NA,NA,NA,NA,NA,"",NA,"",NA,NA,NA,NA,NA,NA,NA,"",NA,"",NA,NA,NA,NA,NA,NA,NA,"","","",NA,"",NA,NA,NA,NA,NA,NA,NA,"",NA,"34"
"",NA,"",NA,"",NA,NA,NA,NA,NA,NA,NA,"","",1,1,"2024-08-26_22h40.26.551","IAT(Formal)","2021.2.3","Win32",59.73002031,"",NA,"",NA,NA,NA,NA,NA,NA,NA,"","","",NA,"e",1,0.57824,0,58,58,61,1,"我的","e","",NA,NA,NA,NA,NA,NA,"",NA,"",NA,NA,NA,NA,NA,NA,NA,"",NA,"",NA,NA,NA,NA,NA,NA,NA,"","","",NA,"",NA,NA,NA,NA,NA,NA,NA,"",NA,"34"
"",NA,"",NA,"",NA,NA,NA,NA,NA,NA,NA,"","",1,1,"2024-08-26_22h40.26.551","IAT(Formal)","2021.2.3","Win32",59.73002031,"",NA,"",NA,NA,NA,NA,NA,NA,NA,"","","",NA,"i",1,0.75373,0,59,59,39,1,"冒失","i","",NA,NA,NA,NA,NA,NA,"",NA,"",NA,NA,NA,NA,NA,NA,NA,"",NA,"",NA,NA,NA,NA,NA,NA,NA,"","","",NA,"",NA,NA,NA,NA,NA,NA,NA,"",NA,"34"
"",NA,"",NA,"",NA,NA,NA,NA,NA,NA,NA,"","",1,1,"2024-08-26_22h40.26.551","IAT(Formal)","2021.2.3","Win32",59.73002031,"",NA,"",NA,NA,NA,NA,NA,NA,NA,"","","",NA,"e",1,0.55443,0,60,60,23,1,"公正","e","",NA,NA,NA,NA,NA,NA,"",NA,"",NA,NA,NA,NA,NA,NA,NA,"",NA,"",NA,NA,NA,NA,NA,NA,NA,"","","",NA,"",NA,NA,NA,NA,NA,NA,NA,"",NA,"34"
"",NA,"",NA,"",NA,NA,NA,NA,NA,NA,NA,"","",1,1,"2024-08-26_22h40.26.551","IAT(Formal)","2021.2.3","Win32",59.73002031,"",NA,"",NA,NA,NA,NA,NA,NA,NA,"","","",NA,"i",1,0.67408,0,61,61,69,1,"其他","i","",NA,NA,NA,NA,NA,NA,"",NA,"",NA,NA,NA,NA,NA,NA,NA,"",NA,"",NA,NA,NA,NA,NA,NA,NA,"","","",NA,"",NA,NA,NA,NA,NA,NA,NA,"",NA,"34"
"",NA,"",NA,"",NA,NA,NA,NA,NA,NA,NA,"","",1,1,"2024-08-26_22h40.26.551","IAT(Formal)","2021.2.3","Win32",59.73002031,"",NA,"",NA,NA,NA,NA,NA,NA,NA,"","","",NA,"i",1,0.602915,0,62,62,5,1,"他","i","",NA,NA,NA,NA,NA,NA,"",NA,"",NA,NA,NA,NA,NA,NA,NA,"",NA,"",NA,NA,NA,NA,NA,NA,NA,"","","",NA,"",NA,NA,NA,NA,NA,NA,NA,"",NA,"34"
"",NA,"",NA,"",NA,NA,NA,NA,NA,NA,NA,"","",1,1,"2024-08-26_22h40.26.551","IAT(Formal)","2021.2.3","Win32",59.73002031,"",NA,"",NA,NA,NA,NA,NA,NA,NA,"","","",NA,"i",1,0.700165,0,63,63,8,1,"他人","i","",NA,NA,NA,NA,NA,NA,"",NA,"",NA,NA,NA,NA,NA,NA,NA,"",NA,"",NA,NA,NA,NA,NA,NA,NA,"","","",NA,"",NA,NA,NA,NA,NA,NA,NA,"",NA,"34"
"",NA,"",NA,"",NA,NA,NA,NA,NA,NA,NA,"","",1,1,"2024-08-26_22h40.26.551","IAT(Formal)","2021.2.3","Win32",59.73002031,"",NA,"",NA,NA,NA,NA,NA,NA,NA,"","","",NA,"e",1,0.65549,0,64,64,60,1,"我","e","",NA,NA,NA,NA,NA,NA,"",NA,"",NA,NA,NA,NA,NA,NA,NA,"",NA,"",NA,NA,NA,NA,NA,NA,NA,"","","",NA,"",NA,NA,NA,NA,NA,NA,NA,"",NA,"34"
"",NA,"",NA,"",NA,NA,NA,NA,NA,NA,NA,"","",1,1,"2024-08-26_22h40.26.551","IAT(Formal)","2021.2.3","Win32",59.73002031,"",NA,"",NA,NA,NA,NA,NA,NA,NA,"","","",NA,"i",1,0.621795,0,65,65,6,1,"他们","i","",NA,NA,NA,NA,NA,NA,"",NA,"",NA,NA,NA,NA,NA,NA,NA,"",NA,"",NA,NA,NA,NA,NA,NA,NA,"","","",NA,"",NA,NA,NA,NA,NA,NA,NA,"",NA,"34"
"",NA,"",NA,"",NA,NA,NA,NA,NA,NA,NA,"","",1,1,"2024-08-26_22h40.26.551","IAT(Formal)","2021.2.3","Win32",59.73002031,"",NA,"",NA,NA,NA,NA,NA,NA,NA,"","","",NA,"e",1,0.706565,0,66,66,4,1,"俺","e","",NA,NA,NA,NA,NA,NA,"",NA,"",NA,NA,NA,NA,NA,NA,NA,"",NA,"",NA,NA,NA,NA,NA,NA,NA,"","","",NA,"",NA,NA,NA,NA,NA,NA,NA,"",NA,"34"
"",NA,"",NA,"",NA,NA,NA,NA,NA,NA,NA,"","",1,1,"2024-08-26_22h40.26.551","IAT(Formal)","2021.2.3","Win32",59.73002031,"",NA,"",NA,NA,NA,NA,NA,NA,NA,"","","",NA,"i",1,0.559985,0,67,67,65,1,"他","i","",NA,NA,NA,NA,NA,NA,"",NA,"",NA,NA,NA,NA,NA,NA,NA,"",NA,"",NA,NA,NA,NA,NA,NA,NA,"","","",NA,"",NA,NA,NA,NA,NA,NA,NA,"",NA,"34"
"",NA,"",NA,"",NA,NA,NA,NA,NA,NA,NA,"","",1,1,"2024-08-26_22h40.26.551","IAT(Formal)","2021.2.3","Win32",59.73002031,"",NA,"",NA,NA,NA,NA,NA,NA,NA,"","","",NA,"e",1,0.513725,0,68,68,3,1,"自己","e","",NA,NA,NA,NA,NA,NA,"",NA,"",NA,NA,NA,NA,NA,NA,NA,"",NA,"",NA,NA,NA,NA,NA,NA,NA,"","","",NA,"",NA,NA,NA,NA,NA,NA,NA,"",NA,"34"
"",NA,"",NA,"",NA,NA,NA,NA,NA,NA,NA,"","",1,1,"2024-08-26_22h40.26.551","IAT(Formal)","2021.2.3","Win32",59.73002031,"",NA,"",NA,NA,NA,NA,NA,NA,NA,"","","",NA,"e",1,0.670115,0,69,69,54,1,"俺","e","",NA,NA,NA,NA,NA,NA,"",NA,"",NA,NA,NA,NA,NA,NA,NA,"",NA,"",NA,NA,NA,NA,NA,NA,NA,"","","",NA,"",NA,NA,NA,NA,NA,NA,NA,"",NA,"34"
"",NA,"",NA,"",NA,NA,NA,NA,NA,NA,NA,"","",1,1,"2024-08-26_22h40.26.551","IAT(Formal)","2021.2.3","Win32",59.73002031,"",NA,"",NA,NA,NA,NA,NA,NA,NA,"","","",NA,"e",1,0.690075,0,70,70,14,1,"乐观","e","",NA,NA,NA,NA,NA,NA,"",NA,"",NA,NA,NA,NA,NA,NA,NA,"",NA,"",NA,NA,NA,NA,NA,NA,NA,"","","",NA,"",NA,NA,NA,NA,NA,NA,NA,"",NA,"34"
"",NA,"",NA,"",NA,NA,NA,NA,NA,NA,NA,"","",1,1,"2024-08-26_22h40.26.551","IAT(Formal)","2021.2.3","Win32",59.73002031,"",NA,"",NA,NA,NA,NA,NA,NA,NA,"","","",NA,"i",1,0.64456,0,71,71,37,1,"傲慢","i","",NA,NA,NA,NA,NA,NA,"",NA,"",NA,NA,NA,NA,NA,NA,NA,"",NA,"",NA,NA,NA,NA,NA,NA,NA,"","","",NA,"",NA,NA,NA,NA,NA,NA,NA,"",NA,"34"
"",NA,"",NA,"",NA,NA,NA,NA,NA,NA,NA,"","",1,1,"2024-08-26_22h40.26.551","IAT(Formal)","2021.2.3","Win32",59.73002031,"",NA,"",NA,NA,NA,NA,NA,NA,NA,"","","",NA,"e",1,0.6443,0,72,72,64,1,"俺","e","",NA,NA,NA,NA,NA,NA,"",NA,"",NA,NA,NA,NA,NA,NA,NA,"",NA,"",NA,NA,NA,NA,NA,NA,NA,"","","",NA,"",NA,NA,NA,NA,NA,NA,NA,"",NA,"34"
"",NA,"",NA,"",NA,NA,NA,NA,NA,NA,NA,"","",1,1,"2024-08-26_22h40.26.551","IAT(Formal)","2021.2.3","Win32",59.73002031,"",NA,"",NA,NA,NA,NA,NA,NA,NA,"","","",NA,"i",1,0.640715,0,73,73,45,1,"猖狂","i","",NA,NA,NA,NA,NA,NA,"",NA,"",NA,NA,NA,NA,NA,NA,NA,"",NA,"",NA,NA,NA,NA,NA,NA,NA,"","","",NA,"",NA,NA,NA,NA,NA,NA,NA,"",NA,"34"
"",NA,"",NA,"",NA,NA,NA,NA,NA,NA,NA,"","",1,1,"2024-08-26_22h40.26.551","IAT(Formal)","2021.2.3","Win32",59.73002031,"",NA,"",NA,NA,NA,NA,NA,NA,NA,"","","",NA,"e",1,0.618,0,74,74,74,1,"俺","e","",NA,NA,NA,NA,NA,NA,"",NA,"",NA,NA,NA,NA,NA,NA,NA,"",NA,"",NA,NA,NA,NA,NA,NA,NA,"","","",NA,"",NA,NA,NA,NA,NA,NA,NA,"",NA,"34"
"",NA,"",NA,"",NA,NA,NA,NA,NA,NA,NA,"","",1,1,"2024-08-26_22h40.26.551","IAT(Formal)","2021.2.3","Win32",59.73002031,"",NA,"",NA,NA,NA,NA,NA,NA,NA,"","","",NA,"i",1,0.698425,0,75,75,49,1,"下贱","i","",NA,NA,NA,NA,NA,NA,"",NA,"",NA,NA,NA,NA,NA,NA,NA,"",NA,"",NA,NA,NA,NA,NA,NA,NA,"","","",NA,"",NA,NA,NA,NA,NA,NA,NA,"",NA,"34"
"",NA,"",NA,"",NA,NA,NA,NA,NA,NA,NA,"","",1,1,"2024-08-26_22h40.26.551","IAT(Formal)","2021.2.3","Win32",59.73002031,"",NA,"",NA,NA,NA,NA,NA,NA,NA,"","","",NA,"e",1,0.753925,0,76,76,13,1,"杰出","e","",NA,NA,NA,NA,NA,NA,"",NA,"",NA,NA,NA,NA,NA,NA,NA,"",NA,"",NA,NA,NA,NA,NA,NA,NA,"","","",NA,"",NA,NA,NA,NA,NA,NA,NA,"",NA,"34"
"",NA,"",NA,"",NA,NA,NA,NA,NA,NA,NA,"","",1,1,"2024-08-26_22h40.26.551","IAT(Formal)","2021.2.3","Win32",59.73002031,"",NA,"",NA,NA,NA,NA,NA,NA,NA,"","","",NA,"i",1,0.696155,0,77,77,40,1,"执拗","i","",NA,NA,NA,NA,NA,NA,"",NA,"",NA,NA,NA,NA,NA,NA,NA,"",NA,"",NA,NA,NA,NA,NA,NA,NA,"","","",NA,"",NA,NA,NA,NA,NA,NA,NA,"",NA,"34"
"",NA,"",NA,"",NA,NA,NA,NA,NA,NA,NA,"","",1,1,"2024-08-26_22h40.26.551","IAT(Formal)","2021.2.3","Win32",59.73002031,"",NA,"",NA,NA,NA,NA,NA,NA,NA,"","","",NA,"e",0,0.59412,0,78,78,48,1,"轻率","i","",NA,NA,NA,NA,NA,NA,"",NA,"",NA,NA,NA,NA,NA,NA,NA,"",NA,"",NA,NA,NA,NA,NA,NA,NA,"","","",NA,"",NA,NA,NA,NA,NA,NA,NA,"",NA,"34"
"",NA,"",NA,"",NA,NA,NA,NA,NA,NA,NA,"","",1,1,"2024-08-26_22h40.26.551","IAT(Formal)","2021.2.3","Win32",59.73002031,"",NA,"",NA,NA,NA,NA,NA,NA,NA,"","","",NA,"i",1,0.669265,0,79,79,9,1,"其他","i","",NA,NA,NA,NA,NA,NA,"",NA,"",NA,NA,NA,NA,NA,NA,NA,"",NA,"",NA,NA,NA,NA,NA,NA,NA,"","","",NA,"",NA,NA,NA,NA,NA,NA,NA,"",NA,"34"
"",NA,"",NA,"",NA,NA,NA,NA,NA,NA,NA,"","",1,1,"2024-08-26_22h40.26.551","IAT(Formal)","2021.2.3","Win32",59.73002031,"",NA,"",NA,NA,NA,NA,NA,NA,NA,"","","",NA,"e",1,1.06505,NA,NA,NA,NA,NA,"热情","e","space",3.803295,0,0,0,27,1,"",NA,"",NA,NA,NA,NA,NA,NA,NA,"",NA,"",NA,NA,NA,NA,NA,NA,NA,"","","",NA,"",NA,NA,NA,NA,NA,NA,NA,"",NA,"34"
"",NA,"",NA,"",NA,NA,NA,NA,NA,NA,NA,"","",1,1,"2024-08-26_22h40.26.551","IAT(Formal)","2021.2.3","Win32",59.73002031,"",NA,"",NA,NA,NA,NA,NA,NA,NA,"","","",NA,"e",1,0.652,NA,NA,NA,NA,NA,"我们","e","",NA,0,1,1,2,1,"",NA,"",NA,NA,NA,NA,NA,NA,NA,"",NA,"",NA,NA,NA,NA,NA,NA,NA,"","","",NA,"",NA,NA,NA,NA,NA,NA,NA,"",NA,"34"
"",NA,"",NA,"",NA,NA,NA,NA,NA,NA,NA,"","",1,1,"2024-08-26_22h40.26.551","IAT(Formal)","2021.2.3","Win32",59.73002031,"",NA,"",NA,NA,NA,NA,NA,NA,NA,"","","",NA,"e",1,0.56771,NA,NA,NA,NA,NA,"我的","e","",NA,0,2,2,71,1,"",NA,"",NA,NA,NA,NA,NA,NA,NA,"",NA,"",NA,NA,NA,NA,NA,NA,NA,"","","",NA,"",NA,NA,NA,NA,NA,NA,NA,"",NA,"34"
"",NA,"",NA,"",NA,NA,NA,NA,NA,NA,NA,"","",1,1,"2024-08-26_22h40.26.551","IAT(Formal)","2021.2.3","Win32",59.73002031,"",NA,"",NA,NA,NA,NA,NA,NA,NA,"","","",NA,"i",1,0.60875,NA,NA,NA,NA,NA,"他人","i","",NA,0,3,3,68,1,"",NA,"",NA,NA,NA,NA,NA,NA,NA,"",NA,"",NA,NA,NA,NA,NA,NA,NA,"","","",NA,"",NA,NA,NA,NA,NA,NA,NA,"",NA,"34"
"",NA,"",NA,"",NA,NA,NA,NA,NA,NA,NA,"","",1,1,"2024-08-26_22h40.26.551","IAT(Formal)","2021.2.3","Win32",59.73002031,"",NA,"",NA,NA,NA,NA,NA,NA,NA,"","","",NA,"i",1,0.464915,NA,NA,NA,NA,NA,"他","i","",NA,0,4,4,5,1,"",NA,"",NA,NA,NA,NA,NA,NA,NA,"",NA,"",NA,NA,NA,NA,NA,NA,NA,"","","",NA,"",NA,NA,NA,NA,NA,NA,NA,"",NA,"34"
"",NA,"",NA,"",NA,NA,NA,NA,NA,NA,NA,"","",1,1,"2024-08-26_22h40.26.551","IAT(Formal)","2021.2.3","Win32",59.73002031,"",NA,"",NA,NA,NA,NA,NA,NA,NA,"","","",NA,"i",1,0.460445,NA,NA,NA,NA,NA,"他的","i","",NA,0,5,5,77,1,"",NA,"",NA,NA,NA,NA,NA,NA,NA,"",NA,"",NA,NA,NA,NA,NA,NA,NA,"","","",NA,"",NA,NA,NA,NA,NA,NA,NA,"",NA,"34"
"",NA,"",NA,"",NA,NA,NA,NA,NA,NA,NA,"","",1,1,"2024-08-26_22h40.26.551","IAT(Formal)","2021.2.3","Win32",59.73002031,"",NA,"",NA,NA,NA,NA,NA,NA,NA,"","","",NA,"e",1,0.6109,NA,NA,NA,NA,NA,"聪明","e","",NA,0,6,6,12,1,"",NA,"",NA,NA,NA,NA,NA,NA,NA,"",NA,"",NA,NA,NA,NA,NA,NA,NA,"","","",NA,"",NA,NA,NA,NA,NA,NA,NA,"",NA,"34"
"",NA,"",NA,"",NA,NA,NA,NA,NA,NA,NA,"","",1,1,"2024-08-26_22h40.26.551","IAT(Formal)","2021.2.3","Win32",59.73002031,"",NA,"",NA,NA,NA,NA,NA,NA,NA,"","","",NA,"i",1,0.88904,NA,NA,NA,NA,NA,"悲观","i","",NA,0,7,7,34,1,"",NA,"",NA,NA,NA,NA,NA,NA,NA,"",NA,"",NA,NA,NA,NA,NA,NA,NA,"","","",NA,"",NA,NA,NA,NA,NA,NA,NA,"",NA,"34"
"",NA,"",NA,"",NA,NA,NA,NA,NA,NA,NA,"","",1,1,"2024-08-26_22h40.26.551","IAT(Formal)","2021.2.3","Win32",59.73002031,"",NA,"",NA,NA,NA,NA,NA,NA,NA,"","","",NA,"e",1,1.0287,NA,NA,NA,NA,NA,"冷静","e","",NA,0,8,8,26,1,"",NA,"",NA,NA,NA,NA,NA,NA,NA,"",NA,"",NA,NA,NA,NA,NA,NA,NA,"","","",NA,"",NA,NA,NA,NA,NA,NA,NA,"",NA,"34"
"",NA,"",NA,"",NA,NA,NA,NA,NA,NA,NA,"","",1,1,"2024-08-26_22h40.26.551","IAT(Formal)","2021.2.3","Win32",59.73002031,"",NA,"",NA,NA,NA,NA,NA,NA,NA,"","","",NA,"i",1,0.65756,NA,NA,NA,NA,NA,"虚伪","i","",NA,0,9,9,31,1,"",NA,"",NA,NA,NA,NA,NA,NA,NA,"",NA,"",NA,NA,NA,NA,NA,NA,NA,"","","",NA,"",NA,NA,NA,NA,NA,NA,NA,"",NA,"34"
"",NA,"",NA,"",NA,NA,NA,NA,NA,NA,NA,"","",1,1,"2024-08-26_22h40.26.551","IAT(Formal)","2021.2.3","Win32",59.73002031,"",NA,"",NA,NA,NA,NA,NA,NA,NA,"","","",NA,"i",1,0.58461,NA,NA,NA,NA,NA,"其他","i","",NA,0,10,10,59,1,"",NA,"",NA,NA,NA,NA,NA,NA,NA,"",NA,"",NA,NA,NA,NA,NA,NA,NA,"","","",NA,"",NA,NA,NA,NA,NA,NA,NA,"",NA,"34"
"",NA,"",NA,"",NA,NA,NA,NA,NA,NA,NA,"","",1,1,"2024-08-26_22h40.26.551","IAT(Formal)","2021.2.3","Win32",59.73002031,"",NA,"",NA,NA,NA,NA,NA,NA,NA,"","","",NA,"i",1,0.67813,NA,NA,NA,NA,NA,"其他","i","",NA,0,11,11,9,1,"",NA,"",NA,NA,NA,NA,NA,NA,NA,"",NA,"",NA,NA,NA,NA,NA,NA,NA,"","","",NA,"",NA,NA,NA,NA,NA,NA,NA,"",NA,"34"
"",NA,"",NA,"",NA,NA,NA,NA,NA,NA,NA,"","",1,1,"2024-08-26_22h40.26.551","IAT(Formal)","2021.2.3","Win32",59.73002031,"",NA,"",NA,NA,NA,NA,NA,NA,NA,"","","",NA,"i",1,0.45755,NA,NA,NA,NA,NA,"他的","i","",NA,0,12,12,57,1,"",NA,"",NA,NA,NA,NA,NA,NA,NA,"",NA,"",NA,NA,NA,NA,NA,NA,NA,"","","",NA,"",NA,NA,NA,NA,NA,NA,NA,"",NA,"34"
"",NA,"",NA,"",NA,NA,NA,NA,NA,NA,NA,"","",1,1,"2024-08-26_22h40.26.551","IAT(Formal)","2021.2.3","Win32",59.73002031,"",NA,"",NA,NA,NA,NA,NA,NA,NA,"","","",NA,"e",1,0.787615,NA,NA,NA,NA,NA,"诚恳","e","",NA,0,13,13,29,1,"",NA,"",NA,NA,NA,NA,NA,NA,NA,"",NA,"",NA,NA,NA,NA,NA,NA,NA,"","","",NA,"",NA,NA,NA,NA,NA,NA,NA,"",NA,"34"
"",NA,"",NA,"",NA,NA,NA,NA,NA,NA,NA,"","",1,1,"2024-08-26_22h40.26.551","IAT(Formal)","2021.2.3","Win32",59.73002031,"",NA,"",NA,NA,NA,NA,NA,NA,NA,"","","",NA,"i",1,0.571615,NA,NA,NA,NA,NA,"下贱","i","",NA,0,14,14,49,1,"",NA,"",NA,NA,NA,NA,NA,NA,NA,"",NA,"",NA,NA,NA,NA,NA,NA,NA,"","","",NA,"",NA,NA,NA,NA,NA,NA,NA,"",NA,"34"
"",NA,"",NA,"",NA,NA,NA,NA,NA,NA,NA,"","",1,1,"2024-08-26_22h40.26.551","IAT(Formal)","2021.2.3","Win32",59.73002031,"",NA,"",NA,NA,NA,NA,NA,NA,NA,"","","",NA,"i",1,0.586495,NA,NA,NA,NA,NA,"傲慢","i","",NA,0,15,15,37,1,"",NA,"",NA,NA,NA,NA,NA,NA,NA,"",NA,"",NA,NA,NA,NA,NA,NA,NA,"","","",NA,"",NA,NA,NA,NA,NA,NA,NA,"",NA,"34"
"",NA,"",NA,"",NA,NA,NA,NA,NA,NA,NA,"","",1,1,"2024-08-26_22h40.26.551","IAT(Formal)","2021.2.3","Win32",59.73002031,"",NA,"",NA,NA,NA,NA,NA,NA,NA,"","","",NA,"e",1,0.66064,NA,NA,NA,NA,NA,"稳重","e","",NA,0,16,16,21,1,"",NA,"",NA,NA,NA,NA,NA,NA,NA,"",NA,"",NA,NA,NA,NA,NA,NA,NA,"","","",NA,"",NA,NA,NA,NA,NA,NA,NA,"",NA,"34"
"",NA,"",NA,"",NA,NA,NA,NA,NA,NA,NA,"","",1,1,"2024-08-26_22h40.26.551","IAT(Formal)","2021.2.3","Win32",59.73002031,"",NA,"",NA,NA,NA,NA,NA,NA,NA,"","","",NA,"e",1,0.63116,NA,NA,NA,NA,NA,"崇高","e","",NA,0,17,17,11,1,"",NA,"",NA,NA,NA,NA,NA,NA,NA,"",NA,"",NA,NA,NA,NA,NA,NA,NA,"","","",NA,"",NA,NA,NA,NA,NA,NA,NA,"",NA,"34"
"",NA,"",NA,"",NA,NA,NA,NA,NA,NA,NA,"","",1,1,"2024-08-26_22h40.26.551","IAT(Formal)","2021.2.3","Win32",59.73002031,"",NA,"",NA,NA,NA,NA,NA,NA,NA,"","","",NA,"e",1,0.50853,NA,NA,NA,NA,NA,"勤奋","e","",NA,0,18,18,18,1,"",NA,"",NA,NA,NA,NA,NA,NA,NA,"",NA,"",NA,NA,NA,NA,NA,NA,NA,"","","",NA,"",NA,NA,NA,NA,NA,NA,NA,"",NA,"34"
"",NA,"",NA,"",NA,NA,NA,NA,NA,NA,NA,"","",1,1,"2024-08-26_22h40.26.551","IAT(Formal)","2021.2.3","Win32",59.73002031,"",NA,"",NA,NA,NA,NA,NA,NA,NA,"","","",NA,"i",1,0.604715,NA,NA,NA,NA,NA,"他们","i","",NA,0,19,19,6,1,"",NA,"",NA,NA,NA,NA,NA,NA,NA,"",NA,"",NA,NA,NA,NA,NA,NA,NA,"","","",NA,"",NA,NA,NA,NA,NA,NA,NA,"",NA,"34"
"",NA,"",NA,"",NA,NA,NA,NA,NA,NA,NA,"","",1,1,"2024-08-26_22h40.26.551","IAT(Formal)","2021.2.3","Win32",59.73002031,"",NA,"",NA,NA,NA,NA,NA,NA,NA,"","","",NA,"e",1,0.685945,NA,NA,NA,NA,NA,"我的","e","",NA,0,20,20,61,1,"",NA,"",NA,NA,NA,NA,NA,NA,NA,"",NA,"",NA,NA,NA,NA,NA,NA,NA,"","","",NA,"",NA,NA,NA,NA,NA,NA,NA,"",NA,"34"
"",NA,"",NA,"",NA,NA,NA,NA,NA,NA,NA,"","",1,1,"2024-08-26_22h40.26.551","IAT(Formal)","2021.2.3","Win32",59.73002031,"",NA,"",NA,NA,NA,NA,NA,NA,NA,"","","",NA,"i",1,0.572145,NA,NA,NA,NA,NA,"其他","i","",NA,0,21,21,69,1,"",NA,"",NA,NA,NA,NA,NA,NA,NA,"",NA,"",NA,NA,NA,NA,NA,NA,NA,"","","",NA,"",NA,NA,NA,NA,NA,NA,NA,"",NA,"34"
"",NA,"",NA,"",NA,NA,NA,NA,NA,NA,NA,"","",1,1,"2024-08-26_22h40.26.551","IAT(Formal)","2021.2.3","Win32",59.73002031,"",NA,"",NA,NA,NA,NA,NA,NA,NA,"","","",NA,"e",1,0.737205,NA,NA,NA,NA,NA,"机智","e","",NA,0,22,22,19,1,"",NA,"",NA,NA,NA,NA,NA,NA,NA,"",NA,"",NA,NA,NA,NA,NA,NA,NA,"","","",NA,"",NA,NA,NA,NA,NA,NA,NA,"",NA,"34"
"",NA,"",NA,"",NA,NA,NA,NA,NA,NA,NA,"","",1,1,"2024-08-26_22h40.26.551","IAT(Formal)","2021.2.3","Win32",59.73002031,"",NA,"",NA,NA,NA,NA,NA,NA,NA,"","","",NA,"i",1,0.55899,NA,NA,NA,NA,NA,"野蛮","i","",NA,0,23,23,46,1,"",NA,"",NA,NA,NA,NA,NA,NA,NA,"",NA,"",NA,NA,NA,NA,NA,NA,NA,"","","",NA,"",NA,NA,NA,NA,NA,NA,NA,"",NA,"34"
"",NA,"",NA,"",NA,NA,NA,NA,NA,NA,NA,"","",1,1,"2024-08-26_22h40.26.551","IAT(Formal)","2021.2.3","Win32",59.73002031,"",NA,"",NA,NA,NA,NA,NA,NA,NA,"","","",NA,"i",1,0.626445,NA,NA,NA,NA,NA,"愚蠢","i","",NA,0,24,24,32,1,"",NA,"",NA,NA,NA,NA,NA,NA,NA,"",NA,"",NA,NA,NA,NA,NA,NA,NA,"","","",NA,"",NA,NA,NA,NA,NA,NA,NA,"",NA,"34"
"",NA,"",NA,"",NA,NA,NA,NA,NA,NA,NA,"","",1,1,"2024-08-26_22h40.26.551","IAT(Formal)","2021.2.3","Win32",59.73002031,"",NA,"",NA,NA,NA,NA,NA,NA,NA,"","","",NA,"i",1,0.60927,NA,NA,NA,NA,NA,"他们","i","",NA,0,25,25,56,1,"",NA,"",NA,NA,NA,NA,NA,NA,NA,"",NA,"",NA,NA,NA,NA,NA,NA,NA,"","","",NA,"",NA,NA,NA,NA,NA,NA,NA,"",NA,"34"
"",NA,"",NA,"",NA,NA,NA,NA,NA,NA,NA,"","",1,1,"2024-08-26_22h40.26.551","IAT(Formal)","2021.2.3","Win32",59.73002031,"",NA,"",NA,NA,NA,NA,NA,NA,NA,"","","",NA,"e",0,0.553975,NA,NA,NA,NA,NA,"自卑","i","",NA,0,26,26,36,1,"",NA,"",NA,NA,NA,NA,NA,NA,NA,"",NA,"",NA,NA,NA,NA,NA,NA,NA,"","","",NA,"",NA,NA,NA,NA,NA,NA,NA,"",NA,"34"
"",NA,"",NA,"",NA,NA,NA,NA,NA,NA,NA,"","",1,1,"2024-08-26_22h40.26.551","IAT(Formal)","2021.2.3","Win32",59.73002031,"",NA,"",NA,NA,NA,NA,NA,NA,NA,"","","",NA,"i",1,1.216305,NA,NA,NA,NA,NA,"固执","i","",NA,0,27,27,47,1,"",NA,"",NA,NA,NA,NA,NA,NA,NA,"",NA,"",NA,NA,NA,NA,NA,NA,NA,"","","",NA,"",NA,NA,NA,NA,NA,NA,NA,"",NA,"34"
"",NA,"",NA,"",NA,NA,NA,NA,NA,NA,NA,"","",1,1,"2024-08-26_22h40.26.551","IAT(Formal)","2021.2.3","Win32",59.73002031,"",NA,"",NA,NA,NA,NA,NA,NA,NA,"","","",NA,"e",1,0.847565,NA,NA,NA,NA,NA,"认真","e","",NA,0,28,28,20,1,"",NA,"",NA,NA,NA,NA,NA,NA,NA,"",NA,"",NA,NA,NA,NA,NA,NA,NA,"","","",NA,"",NA,NA,NA,NA,NA,NA,NA,"",NA,"34"
"",NA,"",NA,"",NA,NA,NA,NA,NA,NA,NA,"","",1,1,"2024-08-26_22h40.26.551","IAT(Formal)","2021.2.3","Win32",59.73002031,"",NA,"",NA,NA,NA,NA,NA,NA,NA,"","","",NA,"e",1,0.55202,NA,NA,NA,NA,NA,"我的","e","",NA,0,29,29,1,1,"",NA,"",NA,NA,NA,NA,NA,NA,NA,"",NA,"",NA,NA,NA,NA,NA,NA,NA,"","","",NA,"",NA,NA,NA,NA,NA,NA,NA,"",NA,"34"
"",NA,"",NA,"",NA,NA,NA,NA,NA,NA,NA,"","",1,1,"2024-08-26_22h40.26.551","IAT(Formal)","2021.2.3","Win32",59.73002031,"",NA,"",NA,NA,NA,NA,NA,NA,NA,"","","",NA,"e",1,0.64965,NA,NA,NA,NA,NA,"诚实","e","",NA,0,30,30,15,1,"",NA,"",NA,NA,NA,NA,NA,NA,NA,"",NA,"",NA,NA,NA,NA,NA,NA,NA,"","","",NA,"",NA,NA,NA,NA,NA,NA,NA,"",NA,"34"
"",NA,"",NA,"",NA,NA,NA,NA,NA,NA,NA,"","",1,1,"2024-08-26_22h40.26.551","IAT(Formal)","2021.2.3","Win32",59.73002031,"",NA,"",NA,NA,NA,NA,NA,NA,NA,"","","",NA,"i",1,0.71695,NA,NA,NA,NA,NA,"他们","i","",NA,0,31,31,66,1,"",NA,"",NA,NA,NA,NA,NA,NA,NA,"",NA,"",NA,NA,NA,NA,NA,NA,NA,"","","",NA,"",NA,NA,NA,NA,NA,NA,NA,"",NA,"34"
"",NA,"",NA,"",NA,NA,NA,NA,NA,NA,NA,"","",1,1,"2024-08-26_22h40.26.551","IAT(Formal)","2021.2.3","Win32",59.73002031,"",NA,"",NA,NA,NA,NA,NA,NA,NA,"","","",NA,"i",1,0.560605,NA,NA,NA,NA,NA,"他的","i","",NA,0,32,32,67,1,"",NA,"",NA,NA,NA,NA,NA,NA,NA,"",NA,"",NA,NA,NA,NA,NA,NA,NA,"","","",NA,"",NA,NA,NA,NA,NA,NA,NA,"",NA,"34"
"",NA,"",NA,"",NA,NA,NA,NA,NA,NA,NA,"","",1,1,"2024-08-26_22h40.26.551","IAT(Formal)","2021.2.3","Win32",59.73002031,"",NA,"",NA,NA,NA,NA,NA,NA,NA,"","","",NA,"i",0,0.78381,NA,NA,NA,NA,NA,"无私","e","",NA,0,33,33,22,1,"",NA,"",NA,NA,NA,NA,NA,NA,NA,"",NA,"",NA,NA,NA,NA,NA,NA,NA,"","","",NA,"",NA,NA,NA,NA,NA,NA,NA,"",NA,"34"
"",NA,"",NA,"",NA,NA,NA,NA,NA,NA,NA,"","",1,1,"2024-08-26_22h40.26.551","IAT(Formal)","2021.2.3","Win32",59.73002031,"",NA,"",NA,NA,NA,NA,NA,NA,NA,"","","",NA,"e",1,0.575895,NA,NA,NA,NA,NA,"我的","e","",NA,0,34,34,51,1,"",NA,"",NA,NA,NA,NA,NA,NA,NA,"",NA,"",NA,NA,NA,NA,NA,NA,NA,"","","",NA,"",NA,NA,NA,NA,NA,NA,NA,"",NA,"34"
"",NA,"",NA,"",NA,NA,NA,NA,NA,NA,NA,"","",1,1,"2024-08-26_22h40.26.551","IAT(Formal)","2021.2.3","Win32",59.73002031,"",NA,"",NA,NA,NA,NA,NA,NA,NA,"","","",NA,"i",1,0.58984,NA,NA,NA,NA,NA,"其他","i","",NA,0,35,35,79,1,"",NA,"",NA,NA,NA,NA,NA,NA,NA,"",NA,"",NA,NA,NA,NA,NA,NA,NA,"","","",NA,"",NA,NA,NA,NA,NA,NA,NA,"",NA,"34"
"",NA,"",NA,"",NA,NA,NA,NA,NA,NA,NA,"","",1,1,"2024-08-26_22h40.26.551","IAT(Formal)","2021.2.3","Win32",59.73002031,"",NA,"",NA,NA,NA,NA,NA,NA,NA,"","","",NA,"e",1,1.33097,NA,NA,NA,NA,NA,"我们","e","",NA,0,36,36,52,1,"",NA,"",NA,NA,NA,NA,NA,NA,NA,"",NA,"",NA,NA,NA,NA,NA,NA,NA,"","","",NA,"",NA,NA,NA,NA,NA,NA,NA,"",NA,"34"
"",NA,"",NA,"",NA,NA,NA,NA,NA,NA,NA,"","",1,1,"2024-08-26_22h40.26.551","IAT(Formal)","2021.2.3","Win32",59.73002031,"",NA,"",NA,NA,NA,NA,NA,NA,NA,"","","",NA,"i",1,1.15239,NA,NA,NA,NA,NA,"他","i","",NA,0,37,37,65,1,"",NA,"",NA,NA,NA,NA,NA,NA,NA,"",NA,"",NA,NA,NA,NA,NA,NA,NA,"","","",NA,"",NA,NA,NA,NA,NA,NA,NA,"",NA,"34"
"",NA,"",NA,"",NA,NA,NA,NA,NA,NA,NA,"","",1,1,"2024-08-26_22h40.26.551","IAT(Formal)","2021.2.3","Win32",59.73002031,"",NA,"",NA,NA,NA,NA,NA,NA,NA,"","","",NA,"i",1,0.708755,NA,NA,NA,NA,NA,"鲁莽","i","",NA,0,38,38,38,1,"",NA,"",NA,NA,NA,NA,NA,NA,NA,"",NA,"",NA,NA,NA,NA,NA,NA,NA,"","","",NA,"",NA,NA,NA,NA,NA,NA,NA,"",NA,"34"
"",NA,"",NA,"",NA,NA,NA,NA,NA,NA,NA,"","",1,1,"2024-08-26_22h40.26.551","IAT(Formal)","2021.2.3","Win32",59.73002031,"",NA,"",NA,NA,NA,NA,NA,NA,NA,"","","",NA,"e",0,0.59998,NA,NA,NA,NA,NA,"自私","i","",NA,0,39,39,43,1,"",NA,"",NA,NA,NA,NA,NA,NA,NA,"",NA,"",NA,NA,NA,NA,NA,NA,NA,"","","",NA,"",NA,NA,NA,NA,NA,NA,NA,"",NA,"34"
"",NA,"",NA,"",NA,NA,NA,NA,NA,NA,NA,"","",1,1,"2024-08-26_22h40.26.551","IAT(Formal)","2021.2.3","Win32",59.73002031,"",NA,"",NA,NA,NA,NA,NA,NA,NA,"","","",NA,"i",1,0.604625,NA,NA,NA,NA,NA,"他们","i","",NA,0,40,40,76,1,"",NA,"",NA,NA,NA,NA,NA,NA,NA,"",NA,"",NA,NA,NA,NA,NA,NA,NA,"","","",NA,"",NA,NA,NA,NA,NA,NA,NA,"",NA,"34"
"",NA,"",NA,"",NA,NA,NA,NA,NA,NA,NA,"","",1,1,"2024-08-26_22h40.26.551","IAT(Formal)","2021.2.3","Win32",59.73002031,"",NA,"",NA,NA,NA,NA,NA,NA,NA,"","","",NA,"i",1,0.72344,NA,NA,NA,NA,NA,"卑鄙","i","",NA,0,41,41,30,1,"",NA,"",NA,NA,NA,NA,NA,NA,NA,"",NA,"",NA,NA,NA,NA,NA,NA,NA,"","","",NA,"",NA,NA,NA,NA,NA,NA,NA,"",NA,"34"
"",NA,"",NA,"",NA,NA,NA,NA,NA,NA,NA,"","",1,1,"2024-08-26_22h40.26.551","IAT(Formal)","2021.2.3","Win32",59.73002031,"",NA,"",NA,NA,NA,NA,NA,NA,NA,"","","",NA,"i",1,0.69877,NA,NA,NA,NA,NA,"凶狠","i","",NA,0,42,42,42,1,"",NA,"",NA,NA,NA,NA,NA,NA,NA,"",NA,"",NA,NA,NA,NA,NA,NA,NA,"","","",NA,"",NA,NA,NA,NA,NA,NA,NA,"",NA,"34"
"",NA,"",NA,"",NA,NA,NA,NA,NA,NA,NA,"","",1,1,"2024-08-26_22h40.26.551","IAT(Formal)","2021.2.3","Win32",59.73002031,"",NA,"",NA,NA,NA,NA,NA,NA,NA,"","","",NA,"e",1,1.12237,NA,NA,NA,NA,NA,"细腻","e","",NA,0,43,43,25,1,"",NA,"",NA,NA,NA,NA,NA,NA,NA,"",NA,"",NA,NA,NA,NA,NA,NA,NA,"","","",NA,"",NA,NA,NA,NA,NA,NA,NA,"",NA,"34"
"",NA,"",NA,"",NA,NA,NA,NA,NA,NA,NA,"","",1,1,"2024-08-26_22h40.26.551","IAT(Formal)","2021.2.3","Win32",59.73002031,"",NA,"",NA,NA,NA,NA,NA,NA,NA,"","","",NA,"e",1,0.693745,NA,NA,NA,NA,NA,"优秀","e","",NA,0,44,44,10,1,"",NA,"",NA,NA,NA,NA,NA,NA,NA,"",NA,"",NA,NA,NA,NA,NA,NA,NA,"","","",NA,"",NA,NA,NA,NA,NA,NA,NA,"",NA,"34"
"",NA,"",NA,"",NA,NA,NA,NA,NA,NA,NA,"","",1,1,"2024-08-26_22h40.26.551","IAT(Formal)","2021.2.3","Win32",59.73002031,"",NA,"",NA,NA,NA,NA,NA,NA,NA,"","","",NA,"i",1,0.535535,NA,NA,NA,NA,NA,"刻薄","i","",NA,0,45,45,33,1,"",NA,"",NA,NA,NA,NA,NA,NA,NA,"",NA,"",NA,NA,NA,NA,NA,NA,NA,"","","",NA,"",NA,NA,NA,NA,NA,NA,NA,"",NA,"34"
"",NA,"",NA,"",NA,NA,NA,NA,NA,NA,NA,"","",1,1,"2024-08-26_22h40.26.551","IAT(Formal)","2021.2.3","Win32",59.73002031,"",NA,"",NA,NA,NA,NA,NA,NA,NA,"","","",NA,"i",1,0.686305,NA,NA,NA,NA,NA,"消极","i","",NA,0,46,46,35,1,"",NA,"",NA,NA,NA,NA,NA,NA,NA,"",NA,"",NA,NA,NA,NA,NA,NA,NA,"","","",NA,"",NA,NA,NA,NA,NA,NA,NA,"",NA,"34"
"",NA,"",NA,"",NA,NA,NA,NA,NA,NA,NA,"","",1,1,"2024-08-26_22h40.26.551","IAT(Formal)","2021.2.3","Win32",59.73002031,"",NA,"",NA,NA,NA,NA,NA,NA,NA,"","","",NA,"i",1,0.617665,NA,NA,NA,NA,NA,"他人","i","",NA,0,47,47,78,1,"",NA,"",NA,NA,NA,NA,NA,NA,NA,"",NA,"",NA,NA,NA,NA,NA,NA,NA,"","","",NA,"",NA,NA,NA,NA,NA,NA,NA,"",NA,"34"
"",NA,"",NA,"",NA,NA,NA,NA,NA,NA,NA,"","",1,1,"2024-08-26_22h40.26.551","IAT(Formal)","2021.2.3","Win32",59.73002031,"",NA,"",NA,NA,NA,NA,NA,NA,NA,"","","",NA,"e",1,0.62022,NA,NA,NA,NA,NA,"俺","e","",NA,0,48,48,64,1,"",NA,"",NA,NA,NA,NA,NA,NA,NA,"",NA,"",NA,NA,NA,NA,NA,NA,NA,"","","",NA,"",NA,NA,NA,NA,NA,NA,NA,"",NA,"34"
"",NA,"",NA,"",NA,NA,NA,NA,NA,NA,NA,"","",1,1,"2024-08-26_22h40.26.551","IAT(Formal)","2021.2.3","Win32",59.73002031,"",NA,"",NA,NA,NA,NA,NA,NA,NA,"","","",NA,"i",1,0.656475,NA,NA,NA,NA,NA,"他","i","",NA,0,49,49,55,1,"",NA,"",NA,NA,NA,NA,NA,NA,NA,"",NA,"",NA,NA,NA,NA,NA,NA,NA,"","","",NA,"",NA,NA,NA,NA,NA,NA,NA,"",NA,"34"
"",NA,"",NA,"",NA,NA,NA,NA,NA,NA,NA,"","",1,1,"2024-08-26_22h40.26.551","IAT(Formal)","2021.2.3","Win32",59.73002031,"",NA,"",NA,NA,NA,NA,NA,NA,NA,"","","",NA,"i",1,0.42583,NA,NA,NA,NA,NA,"他的","i","",NA,0,50,50,7,1,"",NA,"",NA,NA,NA,NA,NA,NA,NA,"",NA,"",NA,NA,NA,NA,NA,NA,NA,"","","",NA,"",NA,NA,NA,NA,NA,NA,NA,"",NA,"34"
"",NA,"",NA,"",NA,NA,NA,NA,NA,NA,NA,"","",1,1,"2024-08-26_22h40.26.551","IAT(Formal)","2021.2.3","Win32",59.73002031,"",NA,"",NA,NA,NA,NA,NA,NA,NA,"","","",NA,"e",0,0.53621,NA,NA,NA,NA,NA,"暴躁","i","",NA,0,51,51,44,1,"",NA,"",NA,NA,NA,NA,NA,NA,NA,"",NA,"",NA,NA,NA,NA,NA,NA,NA,"","","",NA,"",NA,NA,NA,NA,NA,NA,NA,"",NA,"34"
"",NA,"",NA,"",NA,NA,NA,NA,NA,NA,NA,"","",1,1,"2024-08-26_22h40.26.551","IAT(Formal)","2021.2.3","Win32",59.73002031,"",NA,"",NA,NA,NA,NA,NA,NA,NA,"","","",NA,"e",1,0.637835,NA,NA,NA,NA,NA,"勇敢","e","",NA,0,52,52,17,1,"",NA,"",NA,NA,NA,NA,NA,NA,NA,"",NA,"",NA,NA,NA,NA,NA,NA,NA,"","","",NA,"",NA,NA,NA,NA,NA,NA,NA,"",NA,"34"
"",NA,"",NA,"",NA,NA,NA,NA,NA,NA,NA,"","",1,1,"2024-08-26_22h40.26.551","IAT(Formal)","2021.2.3","Win32",59.73002031,"",NA,"",NA,NA,NA,NA,NA,NA,NA,"","","",NA,"i",0,0.580415,NA,NA,NA,NA,NA,"我们","e","",NA,0,53,53,72,1,"",NA,"",NA,NA,NA,NA,NA,NA,NA,"",NA,"",NA,NA,NA,NA,NA,NA,NA,"","","",NA,"",NA,NA,NA,NA,NA,NA,NA,"",NA,"34"
"",NA,"",NA,"",NA,NA,NA,NA,NA,NA,NA,"","",1,1,"2024-08-26_22h40.26.551","IAT(Formal)","2021.2.3","Win32",59.73002031,"",NA,"",NA,NA,NA,NA,NA,NA,NA,"","","",NA,"e",1,0.600505,NA,NA,NA,NA,NA,"俺","e","",NA,0,54,54,74,1,"",NA,"",NA,NA,NA,NA,NA,NA,NA,"",NA,"",NA,NA,NA,NA,NA,NA,NA,"","","",NA,"",NA,NA,NA,NA,NA,NA,NA,"",NA,"34"
"",NA,"",NA,"",NA,NA,NA,NA,NA,NA,NA,"","",1,1,"2024-08-26_22h40.26.551","IAT(Formal)","2021.2.3","Win32",59.73002031,"",NA,"",NA,NA,NA,NA,NA,NA,NA,"","","",NA,"i",1,0.58283,NA,NA,NA,NA,NA,"他人","i","",NA,0,55,55,58,1,"",NA,"",NA,NA,NA,NA,NA,NA,NA,"",NA,"",NA,NA,NA,NA,NA,NA,NA,"","","",NA,"",NA,NA,NA,NA,NA,NA,NA,"",NA,"34"
"",NA,"",NA,"",NA,NA,NA,NA,NA,NA,NA,"","",1,1,"2024-08-26_22h40.26.551","IAT(Formal)","2021.2.3","Win32",59.73002031,"",NA,"",NA,NA,NA,NA,NA,NA,NA,"","","",NA,"i",1,0.670545,NA,NA,NA,NA,NA,"散漫","i","",NA,0,56,56,41,1,"",NA,"",NA,NA,NA,NA,NA,NA,NA,"",NA,"",NA,NA,NA,NA,NA,NA,NA,"","","",NA,"",NA,NA,NA,NA,NA,NA,NA,"",NA,"34"
"",NA,"",NA,"",NA,NA,NA,NA,NA,NA,NA,"","",1,1,"2024-08-26_22h40.26.551","IAT(Formal)","2021.2.3","Win32",59.73002031,"",NA,"",NA,NA,NA,NA,NA,NA,NA,"","","",NA,"e",1,0.532225,NA,NA,NA,NA,NA,"俺","e","",NA,0,57,57,4,1,"",NA,"",NA,NA,NA,NA,NA,NA,NA,"",NA,"",NA,NA,NA,NA,NA,NA,NA,"","","",NA,"",NA,NA,NA,NA,NA,NA,NA,"",NA,"34"
"",NA,"",NA,"",NA,NA,NA,NA,NA,NA,NA,"","",1,1,"2024-08-26_22h40.26.551","IAT(Formal)","2021.2.3","Win32",59.73002031,"",NA,"",NA,NA,NA,NA,NA,NA,NA,"","","",NA,"i",1,0.56203,NA,NA,NA,NA,NA,"猖狂","i","",NA,0,58,58,45,1,"",NA,"",NA,NA,NA,NA,NA,NA,NA,"",NA,"",NA,NA,NA,NA,NA,NA,NA,"","","",NA,"",NA,NA,NA,NA,NA,NA,NA,"",NA,"34"
"",NA,"",NA,"",NA,NA,NA,NA,NA,NA,NA,"","",1,1,"2024-08-26_22h40.26.551","IAT(Formal)","2021.2.3","Win32",59.73002031,"",NA,"",NA,NA,NA,NA,NA,NA,NA,"","","",NA,"i",1,0.59093,NA,NA,NA,NA,NA,"执拗","i","",NA,0,59,59,40,1,"",NA,"",NA,NA,NA,NA,NA,NA,NA,"",NA,"",NA,NA,NA,NA,NA,NA,NA,"","","",NA,"",NA,NA,NA,NA,NA,NA,NA,"",NA,"34"
"",NA,"",NA,"",NA,NA,NA,NA,NA,NA,NA,"","",1,1,"2024-08-26_22h40.26.551","IAT(Formal)","2021.2.3","Win32",59.73002031,"",NA,"",NA,NA,NA,NA,NA,NA,NA,"","","",NA,"i",1,0.631085,NA,NA,NA,NA,NA,"他人","i","",NA,0,60,60,8,1,"",NA,"",NA,NA,NA,NA,NA,NA,NA,"",NA,"",NA,NA,NA,NA,NA,NA,NA,"","","",NA,"",NA,NA,NA,NA,NA,NA,NA,"",NA,"34"
"",NA,"",NA,"",NA,NA,NA,NA,NA,NA,NA,"","",1,1,"2024-08-26_22h40.26.551","IAT(Formal)","2021.2.3","Win32",59.73002031,"",NA,"",NA,NA,NA,NA,NA,NA,NA,"","","",NA,"i",1,0.44378,NA,NA,NA,NA,NA,"他","i","",NA,0,61,61,75,1,"",NA,"",NA,NA,NA,NA,NA,NA,NA,"",NA,"",NA,NA,NA,NA,NA,NA,NA,"","","",NA,"",NA,NA,NA,NA,NA,NA,NA,"",NA,"34"
"",NA,"",NA,"",NA,NA,NA,NA,NA,NA,NA,"","",1,1,"2024-08-26_22h40.26.551","IAT(Formal)","2021.2.3","Win32",59.73002031,"",NA,"",NA,NA,NA,NA,NA,NA,NA,"","","",NA,"e",1,0.79055,NA,NA,NA,NA,NA,"杰出","e","",NA,0,62,62,13,1,"",NA,"",NA,NA,NA,NA,NA,NA,NA,"",NA,"",NA,NA,NA,NA,NA,NA,NA,"","","",NA,"",NA,NA,NA,NA,NA,NA,NA,"",NA,"34"
"",NA,"",NA,"",NA,NA,NA,NA,NA,NA,NA,"","",1,1,"2024-08-26_22h40.26.551","IAT(Formal)","2021.2.3","Win32",59.73002031,"",NA,"",NA,NA,NA,NA,NA,NA,NA,"","","",NA,"e",1,0.521485,NA,NA,NA,NA,NA,"活泼","e","",NA,0,63,63,28,1,"",NA,"",NA,NA,NA,NA,NA,NA,NA,"",NA,"",NA,NA,NA,NA,NA,NA,NA,"","","",NA,"",NA,NA,NA,NA,NA,NA,NA,"",NA,"34"
"",NA,"",NA,"",NA,NA,NA,NA,NA,NA,NA,"","",1,1,"2024-08-26_22h40.26.551","IAT(Formal)","2021.2.3","Win32",59.73002031,"",NA,"",NA,NA,NA,NA,NA,NA,NA,"","","",NA,"e",1,0.346885,NA,NA,NA,NA,NA,"我","e","",NA,0,64,64,60,1,"",NA,"",NA,NA,NA,NA,NA,NA,NA,"",NA,"",NA,NA,NA,NA,NA,NA,NA,"","","",NA,"",NA,NA,NA,NA,NA,NA,NA,"",NA,"34"
"",NA,"",NA,"",NA,NA,NA,NA,NA,NA,NA,"","",1,1,"2024-08-26_22h40.26.551","IAT(Formal)","2021.2.3","Win32",59.73002031,"",NA,"",NA,NA,NA,NA,NA,NA,NA,"","","",NA,"e",1,0.374495,NA,NA,NA,NA,NA,"自己","e","",NA,0,65,65,73,1,"",NA,"",NA,NA,NA,NA,NA,NA,NA,"",NA,"",NA,NA,NA,NA,NA,NA,NA,"","","",NA,"",NA,NA,NA,NA,NA,NA,NA,"",NA,"34"
"",NA,"",NA,"",NA,NA,NA,NA,NA,NA,NA,"","",1,1,"2024-08-26_22h40.26.551","IAT(Formal)","2021.2.3","Win32",59.73002031,"",NA,"",NA,NA,NA,NA,NA,NA,NA,"","","",NA,"i",1,0.983315,NA,NA,NA,NA,NA,"轻率","i","",NA,0,66,66,48,1,"",NA,"",NA,NA,NA,NA,NA,NA,NA,"",NA,"",NA,NA,NA,NA,NA,NA,NA,"","","",NA,"",NA,NA,NA,NA,NA,NA,NA,"",NA,"34"
"",NA,"",NA,"",NA,NA,NA,NA,NA,NA,NA,"","",1,1,"2024-08-26_22h40.26.551","IAT(Formal)","2021.2.3","Win32",59.73002031,"",NA,"",NA,NA,NA,NA,NA,NA,NA,"","","",NA,"e",1,0.527355,NA,NA,NA,NA,NA,"我","e","",NA,0,67,67,0,1,"",NA,"",NA,NA,NA,NA,NA,NA,NA,"",NA,"",NA,NA,NA,NA,NA,NA,NA,"","","",NA,"",NA,NA,NA,NA,NA,NA,NA,"",NA,"34"
"",NA,"",NA,"",NA,NA,NA,NA,NA,NA,NA,"","",1,1,"2024-08-26_22h40.26.551","IAT(Formal)","2021.2.3","Win32",59.73002031,"",NA,"",NA,NA,NA,NA,NA,NA,NA,"","","",NA,"i",0,0.49933,NA,NA,NA,NA,NA,"朴实","e","",NA,0,68,68,24,1,"",NA,"",NA,NA,NA,NA,NA,NA,NA,"",NA,"",NA,NA,NA,NA,NA,NA,NA,"","","",NA,"",NA,NA,NA,NA,NA,NA,NA,"",NA,"34"
"",NA,"",NA,"",NA,NA,NA,NA,NA,NA,NA,"","",1,1,"2024-08-26_22h40.26.551","IAT(Formal)","2021.2.3","Win32",59.73002031,"",NA,"",NA,NA,NA,NA,NA,NA,NA,"","","",NA,"e",1,0.4937,NA,NA,NA,NA,NA,"我们","e","",NA,0,69,69,62,1,"",NA,"",NA,NA,NA,NA,NA,NA,NA,"",NA,"",NA,NA,NA,NA,NA,NA,NA,"","","",NA,"",NA,NA,NA,NA,NA,NA,NA,"",NA,"34"
"",NA,"",NA,"",NA,NA,NA,NA,NA,NA,NA,"","",1,1,"2024-08-26_22h40.26.551","IAT(Formal)","2021.2.3","Win32",59.73002031,"",NA,"",NA,NA,NA,NA,NA,NA,NA,"","","",NA,"e",1,0.378935,NA,NA,NA,NA,NA,"我","e","",NA,0,70,70,70,1,"",NA,"",NA,NA,NA,NA,NA,NA,NA,"",NA,"",NA,NA,NA,NA,NA,NA,NA,"","","",NA,"",NA,NA,NA,NA,NA,NA,NA,"",NA,"34"
"",NA,"",NA,"",NA,NA,NA,NA,NA,NA,NA,"","",1,1,"2024-08-26_22h40.26.551","IAT(Formal)","2021.2.3","Win32",59.73002031,"",NA,"",NA,NA,NA,NA,NA,NA,NA,"","","",NA,"e",1,0.588315,NA,NA,NA,NA,NA,"乐观","e","",NA,0,71,71,14,1,"",NA,"",NA,NA,NA,NA,NA,NA,NA,"",NA,"",NA,NA,NA,NA,NA,NA,NA,"","","",NA,"",NA,NA,NA,NA,NA,NA,NA,"",NA,"34"
"",NA,"",NA,"",NA,NA,NA,NA,NA,NA,NA,"","",1,1,"2024-08-26_22h40.26.551","IAT(Formal)","2021.2.3","Win32",59.73002031,"",NA,"",NA,NA,NA,NA,NA,NA,NA,"","","",NA,"e",1,0.43979,NA,NA,NA,NA,NA,"自己","e","",NA,0,72,72,3,1,"",NA,"",NA,NA,NA,NA,NA,NA,NA,"",NA,"",NA,NA,NA,NA,NA,NA,NA,"","","",NA,"",NA,NA,NA,NA,NA,NA,NA,"",NA,"34"
"",NA,"",NA,"",NA,NA,NA,NA,NA,NA,NA,"","",1,1,"2024-08-26_22h40.26.551","IAT(Formal)","2021.2.3","Win32",59.73002031,"",NA,"",NA,NA,NA,NA,NA,NA,NA,"","","",NA,"e",0,0.307475,NA,NA,NA,NA,NA,"冒失","i","",NA,0,73,73,39,1,"",NA,"",NA,NA,NA,NA,NA,NA,NA,"",NA,"",NA,NA,NA,NA,NA,NA,NA,"","","",NA,"",NA,NA,NA,NA,NA,NA,NA,"",NA,"34"
"",NA,"",NA,"",NA,NA,NA,NA,NA,NA,NA,"","",1,1,"2024-08-26_22h40.26.551","IAT(Formal)","2021.2.3","Win32",59.73002031,"",NA,"",NA,NA,NA,NA,NA,NA,NA,"","","",NA,"e",1,0.434265,NA,NA,NA,NA,NA,"自己","e","",NA,0,74,74,63,1,"",NA,"",NA,NA,NA,NA,NA,NA,NA,"",NA,"",NA,NA,NA,NA,NA,NA,NA,"","","",NA,"",NA,NA,NA,NA,NA,NA,NA,"",NA,"34"
"",NA,"",NA,"",NA,NA,NA,NA,NA,NA,NA,"","",1,1,"2024-08-26_22h40.26.551","IAT(Formal)","2021.2.3","Win32",59.73002031,"",NA,"",NA,NA,NA,NA,NA,NA,NA,"","","",NA,"e",1,0.451585,NA,NA,NA,NA,NA,"正直","e","",NA,0,75,75,16,1,"",NA,"",NA,NA,NA,NA,NA,NA,NA,"",NA,"",NA,NA,NA,NA,NA,NA,NA,"","","",NA,"",NA,NA,NA,NA,NA,NA,NA,"",NA,"34"
"",NA,"",NA,"",NA,NA,NA,NA,NA,NA,NA,"","",1,1,"2024-08-26_22h40.26.551","IAT(Formal)","2021.2.3","Win32",59.73002031,"",NA,"",NA,NA,NA,NA,NA,NA,NA,"","","",NA,"e",1,0.43826,NA,NA,NA,NA,NA,"公正","e","",NA,0,76,76,23,1,"",NA,"",NA,NA,NA,NA,NA,NA,NA,"",NA,"",NA,NA,NA,NA,NA,NA,NA,"","","",NA,"",NA,NA,NA,NA,NA,NA,NA,"",NA,"34"
"",NA,"",NA,"",NA,NA,NA,NA,NA,NA,NA,"","",1,1,"2024-08-26_22h40.26.551","IAT(Formal)","2021.2.3","Win32",59.73002031,"",NA,"",NA,NA,NA,NA,NA,NA,NA,"","","",NA,"e",1,0.386495,NA,NA,NA,NA,NA,"自己","e","",NA,0,77,77,53,1,"",NA,"",NA,NA,NA,NA,NA,NA,NA,"",NA,"",NA,NA,NA,NA,NA,NA,NA,"","","",NA,"",NA,NA,NA,NA,NA,NA,NA,"",NA,"34"
"",NA,"",NA,"",NA,NA,NA,NA,NA,NA,NA,"","",1,1,"2024-08-26_22h40.26.551","IAT(Formal)","2021.2.3","Win32",59.73002031,"",NA,"",NA,NA,NA,NA,NA,NA,NA,"","","",NA,"e",1,0.551125,NA,NA,NA,NA,NA,"俺","e","",NA,0,78,78,54,1,"",NA,"",NA,NA,NA,NA,NA,NA,NA,"",NA,"",NA,NA,NA,NA,NA,NA,NA,"","","",NA,"",NA,NA,NA,NA,NA,NA,NA,"",NA,"34"
"",NA,"",NA,"",NA,NA,NA,NA,NA,NA,NA,"","",1,1,"2024-08-26_22h40.26.551","IAT(Formal)","2021.2.3","Win32",59.73002031,"",NA,"",NA,NA,NA,NA,NA,NA,NA,"","","",NA,"e",1,0.435625,NA,NA,NA,NA,NA,"我","e","",NA,0,79,79,50,1,"",NA,"",NA,NA,NA,NA,NA,NA,NA,"",NA,"",NA,NA,NA,NA,NA,NA,NA,"","","",NA,"",NA,NA,NA,NA,NA,NA,NA,"",NA,"34"
"",NA,"",NA,"",NA,NA,NA,NA,NA,NA,NA,"","",1,1,"2024-08-26_22h40.26.551","IAT(Formal)","2021.2.3","Win32",59.73002031,"",NA,"",NA,NA,NA,NA,NA,NA,NA,"","","",NA,"i",1,0.601915,NA,NA,NA,NA,NA,"悲观","i","",NA,1,0,80,34,1,"",NA,"",NA,NA,NA,NA,NA,NA,NA,"",NA,"",NA,NA,NA,NA,NA,NA,NA,"","","",NA,"",NA,NA,NA,NA,NA,NA,NA,"",NA,"34"
"",NA,"",NA,"",NA,NA,NA,NA,NA,NA,NA,"","",1,1,"2024-08-26_22h40.26.551","IAT(Formal)","2021.2.3","Win32",59.73002031,"",NA,"",NA,NA,NA,NA,NA,NA,NA,"","","",NA,"i",1,0.61733,NA,NA,NA,NA,NA,"他们","i","",NA,1,1,81,76,1,"",NA,"",NA,NA,NA,NA,NA,NA,NA,"",NA,"",NA,NA,NA,NA,NA,NA,NA,"","","",NA,"",NA,NA,NA,NA,NA,NA,NA,"",NA,"34"
"",NA,"",NA,"",NA,NA,NA,NA,NA,NA,NA,"","",1,1,"2024-08-26_22h40.26.551","IAT(Formal)","2021.2.3","Win32",59.73002031,"",NA,"",NA,NA,NA,NA,NA,NA,NA,"","","",NA,"i",1,0.564385,NA,NA,NA,NA,NA,"其他","i","",NA,1,2,82,59,1,"",NA,"",NA,NA,NA,NA,NA,NA,NA,"",NA,"",NA,NA,NA,NA,NA,NA,NA,"","","",NA,"",NA,NA,NA,NA,NA,NA,NA,"",NA,"34"
"",NA,"",NA,"",NA,NA,NA,NA,NA,NA,NA,"","",1,1,"2024-08-26_22h40.26.551","IAT(Formal)","2021.2.3","Win32",59.73002031,"",NA,"",NA,NA,NA,NA,NA,NA,NA,"","","",NA,"i",1,0.494015,NA,NA,NA,NA,NA,"他人","i","",NA,1,3,83,8,1,"",NA,"",NA,NA,NA,NA,NA,NA,NA,"",NA,"",NA,NA,NA,NA,NA,NA,NA,"","","",NA,"",NA,NA,NA,NA,NA,NA,NA,"",NA,"34"
"",NA,"",NA,"",NA,NA,NA,NA,NA,NA,NA,"","",1,1,"2024-08-26_22h40.26.551","IAT(Formal)","2021.2.3","Win32",59.73002031,"",NA,"",NA,NA,NA,NA,NA,NA,NA,"","","",NA,"i",1,0.64606,NA,NA,NA,NA,NA,"散漫","i","",NA,1,4,84,41,1,"",NA,"",NA,NA,NA,NA,NA,NA,NA,"",NA,"",NA,NA,NA,NA,NA,NA,NA,"","","",NA,"",NA,NA,NA,NA,NA,NA,NA,"",NA,"34"
"",NA,"",NA,"",NA,NA,NA,NA,NA,NA,NA,"","",1,1,"2024-08-26_22h40.26.551","IAT(Formal)","2021.2.3","Win32",59.73002031,"",NA,"",NA,NA,NA,NA,NA,NA,NA,"","","",NA,"i",1,0.585305,NA,NA,NA,NA,NA,"轻率","i","",NA,1,5,85,48,1,"",NA,"",NA,NA,NA,NA,NA,NA,NA,"",NA,"",NA,NA,NA,NA,NA,NA,NA,"","","",NA,"",NA,NA,NA,NA,NA,NA,NA,"",NA,"34"
"",NA,"",NA,"",NA,NA,NA,NA,NA,NA,NA,"","",1,1,"2024-08-26_22h40.26.551","IAT(Formal)","2021.2.3","Win32",59.73002031,"",NA,"",NA,NA,NA,NA,NA,NA,NA,"","","",NA,"e",1,0.608475,NA,NA,NA,NA,NA,"我们","e","",NA,1,6,86,52,1,"",NA,"",NA,NA,NA,NA,NA,NA,NA,"",NA,"",NA,NA,NA,NA,NA,NA,NA,"","","",NA,"",NA,NA,NA,NA,NA,NA,NA,"",NA,"34"
"",NA,"",NA,"",NA,NA,NA,NA,NA,NA,NA,"","",1,1,"2024-08-26_22h40.26.551","IAT(Formal)","2021.2.3","Win32",59.73002031,"",NA,"",NA,NA,NA,NA,NA,NA,NA,"","","",NA,"i",1,0.5332,NA,NA,NA,NA,NA,"他的","i","",NA,1,7,87,77,1,"",NA,"",NA,NA,NA,NA,NA,NA,NA,"",NA,"",NA,NA,NA,NA,NA,NA,NA,"","","",NA,"",NA,NA,NA,NA,NA,NA,NA,"",NA,"34"
"",NA,"",NA,"",NA,NA,NA,NA,NA,NA,NA,"","",1,1,"2024-08-26_22h40.26.551","IAT(Formal)","2021.2.3","Win32",59.73002031,"",NA,"",NA,NA,NA,NA,NA,NA,NA,"","","",NA,"e",1,0.878345,NA,NA,NA,NA,NA,"冷静","e","",NA,1,8,88,26,1,"",NA,"",NA,NA,NA,NA,NA,NA,NA,"",NA,"",NA,NA,NA,NA,NA,NA,NA,"","","",NA,"",NA,NA,NA,NA,NA,NA,NA,"",NA,"34"
"",NA,"",NA,"",NA,NA,NA,NA,NA,NA,NA,"","",1,1,"2024-08-26_22h40.26.551","IAT(Formal)","2021.2.3","Win32",59.73002031,"",NA,"",NA,NA,NA,NA,NA,NA,NA,"","","",NA,"e",1,0.44032,NA,NA,NA,NA,NA,"我们","e","",NA,1,9,89,62,1,"",NA,"",NA,NA,NA,NA,NA,NA,NA,"",NA,"",NA,NA,NA,NA,NA,NA,NA,"","","",NA,"",NA,NA,NA,NA,NA,NA,NA,"",NA,"34"
"",NA,"",NA,"",NA,NA,NA,NA,NA,NA,NA,"","",1,1,"2024-08-26_22h40.26.551","IAT(Formal)","2021.2.3","Win32",59.73002031,"",NA,"",NA,NA,NA,NA,NA,NA,NA,"","","",NA,"i",1,0.55937,NA,NA,NA,NA,NA,"他的","i","",NA,1,10,90,57,1,"",NA,"",NA,NA,NA,NA,NA,NA,NA,"",NA,"",NA,NA,NA,NA,NA,NA,NA,"","","",NA,"",NA,NA,NA,NA,NA,NA,NA,"",NA,"34"
"",NA,"",NA,"",NA,NA,NA,NA,NA,NA,NA,"","",1,1,"2024-08-26_22h40.26.551","IAT(Formal)","2021.2.3","Win32",59.73002031,"",NA,"",NA,NA,NA,NA,NA,NA,NA,"","","",NA,"e",1,0.812285,NA,NA,NA,NA,NA,"稳重","e","",NA,1,11,91,21,1,"",NA,"",NA,NA,NA,NA,NA,NA,NA,"",NA,"",NA,NA,NA,NA,NA,NA,NA,"","","",NA,"",NA,NA,NA,NA,NA,NA,NA,"",NA,"34"
"",NA,"",NA,"",NA,NA,NA,NA,NA,NA,NA,"","",1,1,"2024-08-26_22h40.26.551","IAT(Formal)","2021.2.3","Win32",59.73002031,"",NA,"",NA,NA,NA,NA,NA,NA,NA,"","","",NA,"e",1,0.634955,NA,NA,NA,NA,NA,"俺","e","",NA,1,12,92,4,1,"",NA,"",NA,NA,NA,NA,NA,NA,NA,"",NA,"",NA,NA,NA,NA,NA,NA,NA,"","","",NA,"",NA,NA,NA,NA,NA,NA,NA,"",NA,"34"
"",NA,"",NA,"",NA,NA,NA,NA,NA,NA,NA,"","",1,1,"2024-08-26_22h40.26.551","IAT(Formal)","2021.2.3","Win32",59.73002031,"",NA,"",NA,NA,NA,NA,NA,NA,NA,"","","",NA,"e",1,0.55025,NA,NA,NA,NA,NA,"正直","e","",NA,1,13,93,16,1,"",NA,"",NA,NA,NA,NA,NA,NA,NA,"",NA,"",NA,NA,NA,NA,NA,NA,NA,"","","",NA,"",NA,NA,NA,NA,NA,NA,NA,"",NA,"34"
"",NA,"",NA,"",NA,NA,NA,NA,NA,NA,NA,"","",1,1,"2024-08-26_22h40.26.551","IAT(Formal)","2021.2.3","Win32",59.73002031,"",NA,"",NA,NA,NA,NA,NA,NA,NA,"","","",NA,"e",0,0.53618,NA,NA,NA,NA,NA,"固执","i","",NA,1,14,94,47,1,"",NA,"",NA,NA,NA,NA,NA,NA,NA,"",NA,"",NA,NA,NA,NA,NA,NA,NA,"","","",NA,"",NA,NA,NA,NA,NA,NA,NA,"",NA,"34"
"",NA,"",NA,"",NA,NA,NA,NA,NA,NA,NA,"","",1,1,"2024-08-26_22h40.26.551","IAT(Formal)","2021.2.3","Win32",59.73002031,"",NA,"",NA,NA,NA,NA,NA,NA,NA,"","","",NA,"e",1,0.532915,NA,NA,NA,NA,NA,"自己","e","",NA,1,15,95,63,1,"",NA,"",NA,NA,NA,NA,NA,NA,NA,"",NA,"",NA,NA,NA,NA,NA,NA,NA,"","","",NA,"",NA,NA,NA,NA,NA,NA,NA,"",NA,"34"
"",NA,"",NA,"",NA,NA,NA,NA,NA,NA,NA,"","",1,1,"2024-08-26_22h40.26.551","IAT(Formal)","2021.2.3","Win32",59.73002031,"",NA,"",NA,NA,NA,NA,NA,NA,NA,"","","",NA,"i",1,0.53494,NA,NA,NA,NA,NA,"鲁莽","i","",NA,1,16,96,38,1,"",NA,"",NA,NA,NA,NA,NA,NA,NA,"",NA,"",NA,NA,NA,NA,NA,NA,NA,"","","",NA,"",NA,NA,NA,NA,NA,NA,NA,"",NA,"34"
"",NA,"",NA,"",NA,NA,NA,NA,NA,NA,NA,"","",1,1,"2024-08-26_22h40.26.551","IAT(Formal)","2021.2.3","Win32",59.73002031,"",NA,"",NA,NA,NA,NA,NA,NA,NA,"","","",NA,"e",1,0.97095,NA,NA,NA,NA,NA,"自己","e","",NA,1,17,97,3,1,"",NA,"",NA,NA,NA,NA,NA,NA,NA,"",NA,"",NA,NA,NA,NA,NA,NA,NA,"","","",NA,"",NA,NA,NA,NA,NA,NA,NA,"",NA,"34"
"",NA,"",NA,"",NA,NA,NA,NA,NA,NA,NA,"","",1,1,"2024-08-26_22h40.26.551","IAT(Formal)","2021.2.3","Win32",59.73002031,"",NA,"",NA,NA,NA,NA,NA,NA,NA,"","","",NA,"i",1,0.578925,NA,NA,NA,NA,NA,"下贱","i","",NA,1,18,98,49,1,"",NA,"",NA,NA,NA,NA,NA,NA,NA,"",NA,"",NA,NA,NA,NA,NA,NA,NA,"","","",NA,"",NA,NA,NA,NA,NA,NA,NA,"",NA,"34"
"",NA,"",NA,"",NA,NA,NA,NA,NA,NA,NA,"","",1,1,"2024-08-26_22h40.26.551","IAT(Formal)","2021.2.3","Win32",59.73002031,"",NA,"",NA,NA,NA,NA,NA,NA,NA,"","","",NA,"e",1,0.66325,NA,NA,NA,NA,NA,"我的","e","",NA,1,19,99,51,1,"",NA,"",NA,NA,NA,NA,NA,NA,NA,"",NA,"",NA,NA,NA,NA,NA,NA,NA,"","","",NA,"",NA,NA,NA,NA,NA,NA,NA,"",NA,"34"
"",NA,"",NA,"",NA,NA,NA,NA,NA,NA,NA,"","",1,1,"2024-08-26_22h40.26.551","IAT(Formal)","2021.2.3","Win32",59.73002031,"",NA,"",NA,NA,NA,NA,NA,NA,NA,"","","",NA,"e",1,0.46881,NA,NA,NA,NA,NA,"自己","e","",NA,1,20,100,73,1,"",NA,"",NA,NA,NA,NA,NA,NA,NA,"",NA,"",NA,NA,NA,NA,NA,NA,NA,"","","",NA,"",NA,NA,NA,NA,NA,NA,NA,"",NA,"34"
"",NA,"",NA,"",NA,NA,NA,NA,NA,NA,NA,"","",1,1,"2024-08-26_22h40.26.551","IAT(Formal)","2021.2.3","Win32",59.73002031,"",NA,"",NA,NA,NA,NA,NA,NA,NA,"","","",NA,"e",1,0.48687,NA,NA,NA,NA,NA,"俺","e","",NA,1,21,101,64,1,"",NA,"",NA,NA,NA,NA,NA,NA,NA,"",NA,"",NA,NA,NA,NA,NA,NA,NA,"","","",NA,"",NA,NA,NA,NA,NA,NA,NA,"",NA,"34"
"",NA,"",NA,"",NA,NA,NA,NA,NA,NA,NA,"","",1,1,"2024-08-26_22h40.26.551","IAT(Formal)","2021.2.3","Win32",59.73002031,"",NA,"",NA,NA,NA,NA,NA,NA,NA,"","","",NA,"i",1,0.58286,NA,NA,NA,NA,NA,"冒失","i","",NA,1,22,102,39,1,"",NA,"",NA,NA,NA,NA,NA,NA,NA,"",NA,"",NA,NA,NA,NA,NA,NA,NA,"","","",NA,"",NA,NA,NA,NA,NA,NA,NA,"",NA,"34"
"",NA,"",NA,"",NA,NA,NA,NA,NA,NA,NA,"","",1,1,"2024-08-26_22h40.26.551","IAT(Formal)","2021.2.3","Win32",59.73002031,"",NA,"",NA,NA,NA,NA,NA,NA,NA,"","","",NA,"i",1,0.607485,NA,NA,NA,NA,NA,"暴躁","i","",NA,1,23,103,44,1,"",NA,"",NA,NA,NA,NA,NA,NA,NA,"",NA,"",NA,NA,NA,NA,NA,NA,NA,"","","",NA,"",NA,NA,NA,NA,NA,NA,NA,"",NA,"34"
"",NA,"",NA,"",NA,NA,NA,NA,NA,NA,NA,"","",1,1,"2024-08-26_22h40.26.551","IAT(Formal)","2021.2.3","Win32",59.73002031,"",NA,"",NA,NA,NA,NA,NA,NA,NA,"","","",NA,"i",1,0.774775,NA,NA,NA,NA,NA,"执拗","i","",NA,1,24,104,40,1,"",NA,"",NA,NA,NA,NA,NA,NA,NA,"",NA,"",NA,NA,NA,NA,NA,NA,NA,"","","",NA,"",NA,NA,NA,NA,NA,NA,NA,"",NA,"34"
"",NA,"",NA,"",NA,NA,NA,NA,NA,NA,NA,"","",1,1,"2024-08-26_22h40.26.551","IAT(Formal)","2021.2.3","Win32",59.73002031,"",NA,"",NA,NA,NA,NA,NA,NA,NA,"","","",NA,"i",1,0.456965,NA,NA,NA,NA,NA,"他的","i","",NA,1,25,105,67,1,"",NA,"",NA,NA,NA,NA,NA,NA,NA,"",NA,"",NA,NA,NA,NA,NA,NA,NA,"","","",NA,"",NA,NA,NA,NA,NA,NA,NA,"",NA,"34"
"",NA,"",NA,"",NA,NA,NA,NA,NA,NA,NA,"","",1,1,"2024-08-26_22h40.26.551","IAT(Formal)","2021.2.3","Win32",59.73002031,"",NA,"",NA,NA,NA,NA,NA,NA,NA,"","","",NA,"i",0,0.418115,NA,NA,NA,NA,NA,"诚恳","e","",NA,1,26,106,29,1,"",NA,"",NA,NA,NA,NA,NA,NA,NA,"",NA,"",NA,NA,NA,NA,NA,NA,NA,"","","",NA,"",NA,NA,NA,NA,NA,NA,NA,"",NA,"34"
"",NA,"",NA,"",NA,NA,NA,NA,NA,NA,NA,"","",1,1,"2024-08-26_22h40.26.551","IAT(Formal)","2021.2.3","Win32",59.73002031,"",NA,"",NA,NA,NA,NA,NA,NA,NA,"","","",NA,"i",1,0.607745,NA,NA,NA,NA,NA,"愚蠢","i","",NA,1,27,107,32,1,"",NA,"",NA,NA,NA,NA,NA,NA,NA,"",NA,"",NA,NA,NA,NA,NA,NA,NA,"","","",NA,"",NA,NA,NA,NA,NA,NA,NA,"",NA,"34"
"",NA,"",NA,"",NA,NA,NA,NA,NA,NA,NA,"","",1,1,"2024-08-26_22h40.26.551","IAT(Formal)","2021.2.3","Win32",59.73002031,"",NA,"",NA,NA,NA,NA,NA,NA,NA,"","","",NA,"i",1,0.540475,NA,NA,NA,NA,NA,"卑鄙","i","",NA,1,28,108,30,1,"",NA,"",NA,NA,NA,NA,NA,NA,NA,"",NA,"",NA,NA,NA,NA,NA,NA,NA,"","","",NA,"",NA,NA,NA,NA,NA,NA,NA,"",NA,"34"
"",NA,"",NA,"",NA,NA,NA,NA,NA,NA,NA,"","",1,1,"2024-08-26_22h40.26.551","IAT(Formal)","2021.2.3","Win32",59.73002031,"",NA,"",NA,NA,NA,NA,NA,NA,NA,"","","",NA,"e",1,0.63356,NA,NA,NA,NA,NA,"俺","e","",NA,1,29,109,54,1,"",NA,"",NA,NA,NA,NA,NA,NA,NA,"",NA,"",NA,NA,NA,NA,NA,NA,NA,"","","",NA,"",NA,NA,NA,NA,NA,NA,NA,"",NA,"34"
"",NA,"",NA,"",NA,NA,NA,NA,NA,NA,NA,"","",1,1,"2024-08-26_22h40.26.551","IAT(Formal)","2021.2.3","Win32",59.73002031,"",NA,"",NA,NA,NA,NA,NA,NA,NA,"","","",NA,"i",1,0.599265,NA,NA,NA,NA,NA,"他们","i","",NA,1,30,110,6,1,"",NA,"",NA,NA,NA,NA,NA,NA,NA,"",NA,"",NA,NA,NA,NA,NA,NA,NA,"","","",NA,"",NA,NA,NA,NA,NA,NA,NA,"",NA,"34"
"",NA,"",NA,"",NA,NA,NA,NA,NA,NA,NA,"","",1,1,"2024-08-26_22h40.26.551","IAT(Formal)","2021.2.3","Win32",59.73002031,"",NA,"",NA,NA,NA,NA,NA,NA,NA,"","","",NA,"e",1,0.61533,NA,NA,NA,NA,NA,"我的","e","",NA,1,31,111,1,1,"",NA,"",NA,NA,NA,NA,NA,NA,NA,"",NA,"",NA,NA,NA,NA,NA,NA,NA,"","","",NA,"",NA,NA,NA,NA,NA,NA,NA,"",NA,"34"
"",NA,"",NA,"",NA,NA,NA,NA,NA,NA,NA,"","",1,1,"2024-08-26_22h40.26.551","IAT(Formal)","2021.2.3","Win32",59.73002031,"",NA,"",NA,NA,NA,NA,NA,NA,NA,"","","",NA,"e",1,0.67066,NA,NA,NA,NA,NA,"俺","e","",NA,1,32,112,74,1,"",NA,"",NA,NA,NA,NA,NA,NA,NA,"",NA,"",NA,NA,NA,NA,NA,NA,NA,"","","",NA,"",NA,NA,NA,NA,NA,NA,NA,"",NA,"34"
"",NA,"",NA,"",NA,NA,NA,NA,NA,NA,NA,"","",1,1,"2024-08-26_22h40.26.551","IAT(Formal)","2021.2.3","Win32",59.73002031,"",NA,"",NA,NA,NA,NA,NA,NA,NA,"","","",NA,"e",1,0.81345,NA,NA,NA,NA,NA,"自己","e","",NA,1,33,113,53,1,"",NA,"",NA,NA,NA,NA,NA,NA,NA,"",NA,"",NA,NA,NA,NA,NA,NA,NA,"","","",NA,"",NA,NA,NA,NA,NA,NA,NA,"",NA,"34"
"",NA,"",NA,"",NA,NA,NA,NA,NA,NA,NA,"","",1,1,"2024-08-26_22h40.26.551","IAT(Formal)","2021.2.3","Win32",59.73002031,"",NA,"",NA,NA,NA,NA,NA,NA,NA,"","","",NA,"e",1,0.51329,NA,NA,NA,NA,NA,"我们","e","",NA,1,34,114,72,1,"",NA,"",NA,NA,NA,NA,NA,NA,NA,"",NA,"",NA,NA,NA,NA,NA,NA,NA,"","","",NA,"",NA,NA,NA,NA,NA,NA,NA,"",NA,"34"
"",NA,"",NA,"",NA,NA,NA,NA,NA,NA,NA,"","",1,1,"2024-08-26_22h40.26.551","IAT(Formal)","2021.2.3","Win32",59.73002031,"",NA,"",NA,NA,NA,NA,NA,NA,NA,"","","",NA,"i",1,0.57117,NA,NA,NA,NA,NA,"他人","i","",NA,1,35,115,68,1,"",NA,"",NA,NA,NA,NA,NA,NA,NA,"",NA,"",NA,NA,NA,NA,NA,NA,NA,"","","",NA,"",NA,NA,NA,NA,NA,NA,NA,"",NA,"34"
"",NA,"",NA,"",NA,NA,NA,NA,NA,NA,NA,"","",1,1,"2024-08-26_22h40.26.551","IAT(Formal)","2021.2.3","Win32",59.73002031,"",NA,"",NA,NA,NA,NA,NA,NA,NA,"","","",NA,"e",1,0.62291,NA,NA,NA,NA,NA,"我","e","",NA,1,36,116,70,1,"",NA,"",NA,NA,NA,NA,NA,NA,NA,"",NA,"",NA,NA,NA,NA,NA,NA,NA,"","","",NA,"",NA,NA,NA,NA,NA,NA,NA,"",NA,"34"
"",NA,"",NA,"",NA,NA,NA,NA,NA,NA,NA,"","",1,1,"2024-08-26_22h40.26.551","IAT(Formal)","2021.2.3","Win32",59.73002031,"",NA,"",NA,NA,NA,NA,NA,NA,NA,"","","",NA,"e",1,0.4613,NA,NA,NA,NA,NA,"我","e","",NA,1,37,117,50,1,"",NA,"",NA,NA,NA,NA,NA,NA,NA,"",NA,"",NA,NA,NA,NA,NA,NA,NA,"","","",NA,"",NA,NA,NA,NA,NA,NA,NA,"",NA,"34"
"",NA,"",NA,"",NA,NA,NA,NA,NA,NA,NA,"","",1,1,"2024-08-26_22h40.26.551","IAT(Formal)","2021.2.3","Win32",59.73002031,"",NA,"",NA,NA,NA,NA,NA,NA,NA,"","","",NA,"i",1,0.61371,NA,NA,NA,NA,NA,"他的","i","",NA,1,38,118,7,1,"",NA,"",NA,NA,NA,NA,NA,NA,NA,"",NA,"",NA,NA,NA,NA,NA,NA,NA,"","","",NA,"",NA,NA,NA,NA,NA,NA,NA,"",NA,"34"
"",NA,"",NA,"",NA,NA,NA,NA,NA,NA,NA,"","",1,1,"2024-08-26_22h40.26.551","IAT(Formal)","2021.2.3","Win32",59.73002031,"",NA,"",NA,NA,NA,NA,NA,NA,NA,"","","",NA,"e",0,0.729385,NA,NA,NA,NA,NA,"他","i","",NA,1,39,119,75,1,"",NA,"",NA,NA,NA,NA,NA,NA,NA,"",NA,"",NA,NA,NA,NA,NA,NA,NA,"","","",NA,"",NA,NA,NA,NA,NA,NA,NA,"",NA,"34"
"",NA,"",NA,"",NA,NA,NA,NA,NA,NA,NA,"","",1,1,"2024-08-26_22h40.26.551","IAT(Formal)","2021.2.3","Win32",59.73002031,"",NA,"",NA,NA,NA,NA,NA,NA,NA,"","","",NA,"i",1,0.604175,NA,NA,NA,NA,NA,"虚伪","i","",NA,1,40,120,31,1,"",NA,"",NA,NA,NA,NA,NA,NA,NA,"",NA,"",NA,NA,NA,NA,NA,NA,NA,"","","",NA,"",NA,NA,NA,NA,NA,NA,NA,"",NA,"34"
"",NA,"",NA,"",NA,NA,NA,NA,NA,NA,NA,"","",1,1,"2024-08-26_22h40.26.551","IAT(Formal)","2021.2.3","Win32",59.73002031,"",NA,"",NA,NA,NA,NA,NA,NA,NA,"","","",NA,"e",1,0.66616,NA,NA,NA,NA,NA,"杰出","e","",NA,1,41,121,13,1,"",NA,"",NA,NA,NA,NA,NA,NA,NA,"",NA,"",NA,NA,NA,NA,NA,NA,NA,"","","",NA,"",NA,NA,NA,NA,NA,NA,NA,"",NA,"34"
"",NA,"",NA,"",NA,NA,NA,NA,NA,NA,NA,"","",1,1,"2024-08-26_22h40.26.551","IAT(Formal)","2021.2.3","Win32",59.73002031,"",NA,"",NA,NA,NA,NA,NA,NA,NA,"","","",NA,"e",1,0.6497,NA,NA,NA,NA,NA,"我的","e","",NA,1,42,122,71,1,"",NA,"",NA,NA,NA,NA,NA,NA,NA,"",NA,"",NA,NA,NA,NA,NA,NA,NA,"","","",NA,"",NA,NA,NA,NA,NA,NA,NA,"",NA,"34"
"",NA,"",NA,"",NA,NA,NA,NA,NA,NA,NA,"","",1,1,"2024-08-26_22h40.26.551","IAT(Formal)","2021.2.3","Win32",59.73002031,"",NA,"",NA,NA,NA,NA,NA,NA,NA,"","","",NA,"i",1,0.67417,NA,NA,NA,NA,NA,"猖狂","i","",NA,1,43,123,45,1,"",NA,"",NA,NA,NA,NA,NA,NA,NA,"",NA,"",NA,NA,NA,NA,NA,NA,NA,"","","",NA,"",NA,NA,NA,NA,NA,NA,NA,"",NA,"34"
"",NA,"",NA,"",NA,NA,NA,NA,NA,NA,NA,"","",1,1,"2024-08-26_22h40.26.551","IAT(Formal)","2021.2.3","Win32",59.73002031,"",NA,"",NA,NA,NA,NA,NA,NA,NA,"","","",NA,"e",1,0.577565,NA,NA,NA,NA,NA,"优秀","e","",NA,1,44,124,10,1,"",NA,"",NA,NA,NA,NA,NA,NA,NA,"",NA,"",NA,NA,NA,NA,NA,NA,NA,"","","",NA,"",NA,NA,NA,NA,NA,NA,NA,"",NA,"34"
"",NA,"",NA,"",NA,NA,NA,NA,NA,NA,NA,"","",1,1,"2024-08-26_22h40.26.551","IAT(Formal)","2021.2.3","Win32",59.73002031,"",NA,"",NA,NA,NA,NA,NA,NA,NA,"","","",NA,"e",1,0.598785,NA,NA,NA,NA,NA,"公正","e","",NA,1,45,125,23,1,"",NA,"",NA,NA,NA,NA,NA,NA,NA,"",NA,"",NA,NA,NA,NA,NA,NA,NA,"","","",NA,"",NA,NA,NA,NA,NA,NA,NA,"",NA,"34"
"",NA,"",NA,"",NA,NA,NA,NA,NA,NA,NA,"","",1,1,"2024-08-26_22h40.26.551","IAT(Formal)","2021.2.3","Win32",59.73002031,"",NA,"",NA,NA,NA,NA,NA,NA,NA,"","","",NA,"e",0,0.433085,NA,NA,NA,NA,NA,"他","i","",NA,1,46,126,5,1,"",NA,"",NA,NA,NA,NA,NA,NA,NA,"",NA,"",NA,NA,NA,NA,NA,NA,NA,"","","",NA,"",NA,NA,NA,NA,NA,NA,NA,"",NA,"34"
"",NA,"",NA,"",NA,NA,NA,NA,NA,NA,NA,"","",1,1,"2024-08-26_22h40.26.551","IAT(Formal)","2021.2.3","Win32",59.73002031,"",NA,"",NA,NA,NA,NA,NA,NA,NA,"","","",NA,"i",1,0.59765,NA,NA,NA,NA,NA,"他","i","",NA,1,47,127,65,1,"",NA,"",NA,NA,NA,NA,NA,NA,NA,"",NA,"",NA,NA,NA,NA,NA,NA,NA,"","","",NA,"",NA,NA,NA,NA,NA,NA,NA,"",NA,"34"
"",NA,"",NA,"",NA,NA,NA,NA,NA,NA,NA,"","",1,1,"2024-08-26_22h40.26.551","IAT(Formal)","2021.2.3","Win32",59.73002031,"",NA,"",NA,NA,NA,NA,NA,NA,NA,"","","",NA,"i",1,0.652335,NA,NA,NA,NA,NA,"自卑","i","",NA,1,48,128,36,1,"",NA,"",NA,NA,NA,NA,NA,NA,NA,"",NA,"",NA,NA,NA,NA,NA,NA,NA,"","","",NA,"",NA,NA,NA,NA,NA,NA,NA,"",NA,"34"
"",NA,"",NA,"",NA,NA,NA,NA,NA,NA,NA,"","",1,1,"2024-08-26_22h40.26.551","IAT(Formal)","2021.2.3","Win32",59.73002031,"",NA,"",NA,NA,NA,NA,NA,NA,NA,"","","",NA,"e",1,0.741215,NA,NA,NA,NA,NA,"认真","e","",NA,1,49,129,20,1,"",NA,"",NA,NA,NA,NA,NA,NA,NA,"",NA,"",NA,NA,NA,NA,NA,NA,NA,"","","",NA,"",NA,NA,NA,NA,NA,NA,NA,"",NA,"34"
"",NA,"",NA,"",NA,NA,NA,NA,NA,NA,NA,"","",1,1,"2024-08-26_22h40.26.551","IAT(Formal)","2021.2.3","Win32",59.73002031,"",NA,"",NA,NA,NA,NA,NA,NA,NA,"","","",NA,"i",1,0.58646,NA,NA,NA,NA,NA,"凶狠","i","",NA,1,50,130,42,1,"",NA,"",NA,NA,NA,NA,NA,NA,NA,"",NA,"",NA,NA,NA,NA,NA,NA,NA,"","","",NA,"",NA,NA,NA,NA,NA,NA,NA,"",NA,"34"
"",NA,"",NA,"",NA,NA,NA,NA,NA,NA,NA,"","",1,1,"2024-08-26_22h40.26.551","IAT(Formal)","2021.2.3","Win32",59.73002031,"",NA,"",NA,NA,NA,NA,NA,NA,NA,"","","",NA,"e",1,0.80594,NA,NA,NA,NA,NA,"机智","e","",NA,1,51,131,19,1,"",NA,"",NA,NA,NA,NA,NA,NA,NA,"",NA,"",NA,NA,NA,NA,NA,NA,NA,"","","",NA,"",NA,NA,NA,NA,NA,NA,NA,"",NA,"34"
"",NA,"",NA,"",NA,NA,NA,NA,NA,NA,NA,"","",1,1,"2024-08-26_22h40.26.551","IAT(Formal)","2021.2.3","Win32",59.73002031,"",NA,"",NA,NA,NA,NA,NA,NA,NA,"","","",NA,"e",1,0.5395,NA,NA,NA,NA,NA,"我","e","",NA,1,52,132,60,1,"",NA,"",NA,NA,NA,NA,NA,NA,NA,"",NA,"",NA,NA,NA,NA,NA,NA,NA,"","","",NA,"",NA,NA,NA,NA,NA,NA,NA,"",NA,"34"
"",NA,"",NA,"",NA,NA,NA,NA,NA,NA,NA,"","",1,1,"2024-08-26_22h40.26.551","IAT(Formal)","2021.2.3","Win32",59.73002031,"",NA,"",NA,NA,NA,NA,NA,NA,NA,"","","",NA,"i",1,0.84507,NA,NA,NA,NA,NA,"自私","i","",NA,1,53,133,43,1,"",NA,"",NA,NA,NA,NA,NA,NA,NA,"",NA,"",NA,NA,NA,NA,NA,NA,NA,"","","",NA,"",NA,NA,NA,NA,NA,NA,NA,"",NA,"34"
"",NA,"",NA,"",NA,NA,NA,NA,NA,NA,NA,"","",1,1,"2024-08-26_22h40.26.551","IAT(Formal)","2021.2.3","Win32",59.73002031,"",NA,"",NA,NA,NA,NA,NA,NA,NA,"","","",NA,"i",1,0.60536,NA,NA,NA,NA,NA,"他人","i","",NA,1,54,134,78,1,"",NA,"",NA,NA,NA,NA,NA,NA,NA,"",NA,"",NA,NA,NA,NA,NA,NA,NA,"","","",NA,"",NA,NA,NA,NA,NA,NA,NA,"",NA,"34"
"",NA,"",NA,"",NA,NA,NA,NA,NA,NA,NA,"","",1,1,"2024-08-26_22h40.26.551","IAT(Formal)","2021.2.3","Win32",59.73002031,"",NA,"",NA,NA,NA,NA,NA,NA,NA,"","","",NA,"i",1,0.65744,NA,NA,NA,NA,NA,"傲慢","i","",NA,1,55,135,37,1,"",NA,"",NA,NA,NA,NA,NA,NA,NA,"",NA,"",NA,NA,NA,NA,NA,NA,NA,"","","",NA,"",NA,NA,NA,NA,NA,NA,NA,"",NA,"34"
"",NA,"",NA,"",NA,NA,NA,NA,NA,NA,NA,"","",1,1,"2024-08-26_22h40.26.551","IAT(Formal)","2021.2.3","Win32",59.73002031,"",NA,"",NA,NA,NA,NA,NA,NA,NA,"","","",NA,"i",1,0.65315,NA,NA,NA,NA,NA,"他们","i","",NA,1,56,136,56,1,"",NA,"",NA,NA,NA,NA,NA,NA,NA,"",NA,"",NA,NA,NA,NA,NA,NA,NA,"","","",NA,"",NA,NA,NA,NA,NA,NA,NA,"",NA,"34"
"",NA,"",NA,"",NA,NA,NA,NA,NA,NA,NA,"","",1,1,"2024-08-26_22h40.26.551","IAT(Formal)","2021.2.3","Win32",59.73002031,"",NA,"",NA,NA,NA,NA,NA,NA,NA,"","","",NA,"i",0,0.437185,NA,NA,NA,NA,NA,"乐观","e","",NA,1,57,137,14,1,"",NA,"",NA,NA,NA,NA,NA,NA,NA,"",NA,"",NA,NA,NA,NA,NA,NA,NA,"","","",NA,"",NA,NA,NA,NA,NA,NA,NA,"",NA,"34"
"",NA,"",NA,"",NA,NA,NA,NA,NA,NA,NA,"","",1,1,"2024-08-26_22h40.26.551","IAT(Formal)","2021.2.3","Win32",59.73002031,"",NA,"",NA,NA,NA,NA,NA,NA,NA,"","","",NA,"i",1,0.519635,NA,NA,NA,NA,NA,"其他","i","",NA,1,58,138,9,1,"",NA,"",NA,NA,NA,NA,NA,NA,NA,"",NA,"",NA,NA,NA,NA,NA,NA,NA,"","","",NA,"",NA,NA,NA,NA,NA,NA,NA,"",NA,"34"
"",NA,"",NA,"",NA,NA,NA,NA,NA,NA,NA,"","",1,1,"2024-08-26_22h40.26.551","IAT(Formal)","2021.2.3","Win32",59.73002031,"",NA,"",NA,NA,NA,NA,NA,NA,NA,"","","",NA,"e",1,0.495745,NA,NA,NA,NA,NA,"我的","e","",NA,1,59,139,61,1,"",NA,"",NA,NA,NA,NA,NA,NA,NA,"",NA,"",NA,NA,NA,NA,NA,NA,NA,"","","",NA,"",NA,NA,NA,NA,NA,NA,NA,"",NA,"34"
"",NA,"",NA,"",NA,NA,NA,NA,NA,NA,NA,"","",1,1,"2024-08-26_22h40.26.551","IAT(Formal)","2021.2.3","Win32",59.73002031,"",NA,"",NA,NA,NA,NA,NA,NA,NA,"","","",NA,"e",1,0.878025,NA,NA,NA,NA,NA,"细腻","e","",NA,1,60,140,25,1,"",NA,"",NA,NA,NA,NA,NA,NA,NA,"",NA,"",NA,NA,NA,NA,NA,NA,NA,"","","",NA,"",NA,NA,NA,NA,NA,NA,NA,"",NA,"34"
"",NA,"",NA,"",NA,NA,NA,NA,NA,NA,NA,"","",1,1,"2024-08-26_22h40.26.551","IAT(Formal)","2021.2.3","Win32",59.73002031,"",NA,"",NA,NA,NA,NA,NA,NA,NA,"","","",NA,"e",0,0.417785,NA,NA,NA,NA,NA,"其他","i","",NA,1,61,141,79,1,"",NA,"",NA,NA,NA,NA,NA,NA,NA,"",NA,"",NA,NA,NA,NA,NA,NA,NA,"","","",NA,"",NA,NA,NA,NA,NA,NA,NA,"",NA,"34"
"",NA,"",NA,"",NA,NA,NA,NA,NA,NA,NA,"","",1,1,"2024-08-26_22h40.26.551","IAT(Formal)","2021.2.3","Win32",59.73002031,"",NA,"",NA,NA,NA,NA,NA,NA,NA,"","","",NA,"e",1,0.73446,NA,NA,NA,NA,NA,"勤奋","e","",NA,1,62,142,18,1,"",NA,"",NA,NA,NA,NA,NA,NA,NA,"",NA,"",NA,NA,NA,NA,NA,NA,NA,"","","",NA,"",NA,NA,NA,NA,NA,NA,NA,"",NA,"34"
"",NA,"",NA,"",NA,NA,NA,NA,NA,NA,NA,"","",1,1,"2024-08-26_22h40.26.551","IAT(Formal)","2021.2.3","Win32",59.73002031,"",NA,"",NA,NA,NA,NA,NA,NA,NA,"","","",NA,"e",1,0.56918,NA,NA,NA,NA,NA,"活泼","e","",NA,1,63,143,28,1,"",NA,"",NA,NA,NA,NA,NA,NA,NA,"",NA,"",NA,NA,NA,NA,NA,NA,NA,"","","",NA,"",NA,NA,NA,NA,NA,NA,NA,"",NA,"34"
"",NA,"",NA,"",NA,NA,NA,NA,NA,NA,NA,"","",1,1,"2024-08-26_22h40.26.551","IAT(Formal)","2021.2.3","Win32",59.73002031,"",NA,"",NA,NA,NA,NA,NA,NA,NA,"","","",NA,"i",1,0.90929,NA,NA,NA,NA,NA,"其他","i","",NA,1,64,144,69,1,"",NA,"",NA,NA,NA,NA,NA,NA,NA,"",NA,"",NA,NA,NA,NA,NA,NA,NA,"","","",NA,"",NA,NA,NA,NA,NA,NA,NA,"",NA,"34"
"",NA,"",NA,"",NA,NA,NA,NA,NA,NA,NA,"","",1,1,"2024-08-26_22h40.26.551","IAT(Formal)","2021.2.3","Win32",59.73002031,"",NA,"",NA,NA,NA,NA,NA,NA,NA,"","","",NA,"i",1,0.60212,NA,NA,NA,NA,NA,"他","i","",NA,1,65,145,55,1,"",NA,"",NA,NA,NA,NA,NA,NA,NA,"",NA,"",NA,NA,NA,NA,NA,NA,NA,"","","",NA,"",NA,NA,NA,NA,NA,NA,NA,"",NA,"34"
"",NA,"",NA,"",NA,NA,NA,NA,NA,NA,NA,"","",1,1,"2024-08-26_22h40.26.551","IAT(Formal)","2021.2.3","Win32",59.73002031,"",NA,"",NA,NA,NA,NA,NA,NA,NA,"","","",NA,"i",1,0.648665,NA,NA,NA,NA,NA,"野蛮","i","",NA,1,66,146,46,1,"",NA,"",NA,NA,NA,NA,NA,NA,NA,"",NA,"",NA,NA,NA,NA,NA,NA,NA,"","","",NA,"",NA,NA,NA,NA,NA,NA,NA,"",NA,"34"
"",NA,"",NA,"",NA,NA,NA,NA,NA,NA,NA,"","",1,1,"2024-08-26_22h40.26.551","IAT(Formal)","2021.2.3","Win32",59.73002031,"",NA,"",NA,NA,NA,NA,NA,NA,NA,"","","",NA,"e",1,0.767605,NA,NA,NA,NA,NA,"勇敢","e","",NA,1,67,147,17,1,"",NA,"",NA,NA,NA,NA,NA,NA,NA,"",NA,"",NA,NA,NA,NA,NA,NA,NA,"","","",NA,"",NA,NA,NA,NA,NA,NA,NA,"",NA,"34"
"",NA,"",NA,"",NA,NA,NA,NA,NA,NA,NA,"","",1,1,"2024-08-26_22h40.26.551","IAT(Formal)","2021.2.3","Win32",59.73002031,"",NA,"",NA,NA,NA,NA,NA,NA,NA,"","","",NA,"e",1,0.615775,NA,NA,NA,NA,NA,"崇高","e","",NA,1,68,148,11,1,"",NA,"",NA,NA,NA,NA,NA,NA,NA,"",NA,"",NA,NA,NA,NA,NA,NA,NA,"","","",NA,"",NA,NA,NA,NA,NA,NA,NA,"",NA,"34"
"",NA,"",NA,"",NA,NA,NA,NA,NA,NA,NA,"","",1,1,"2024-08-26_22h40.26.551","IAT(Formal)","2021.2.3","Win32",59.73002031,"",NA,"",NA,NA,NA,NA,NA,NA,NA,"","","",NA,"i",1,0.77556,NA,NA,NA,NA,NA,"消极","i","",NA,1,69,149,35,1,"",NA,"",NA,NA,NA,NA,NA,NA,NA,"",NA,"",NA,NA,NA,NA,NA,NA,NA,"","","",NA,"",NA,NA,NA,NA,NA,NA,NA,"",NA,"34"
"",NA,"",NA,"",NA,NA,NA,NA,NA,NA,NA,"","",1,1,"2024-08-26_22h40.26.551","IAT(Formal)","2021.2.3","Win32",59.73002031,"",NA,"",NA,NA,NA,NA,NA,NA,NA,"","","",NA,"e",1,0.86597,NA,NA,NA,NA,NA,"诚实","e","",NA,1,70,150,15,1,"",NA,"",NA,NA,NA,NA,NA,NA,NA,"",NA,"",NA,NA,NA,NA,NA,NA,NA,"","","",NA,"",NA,NA,NA,NA,NA,NA,NA,"",NA,"34"
"",NA,"",NA,"",NA,NA,NA,NA,NA,NA,NA,"","",1,1,"2024-08-26_22h40.26.551","IAT(Formal)","2021.2.3","Win32",59.73002031,"",NA,"",NA,NA,NA,NA,NA,NA,NA,"","","",NA,"e",0,0.600955,NA,NA,NA,NA,NA,"他们","i","",NA,1,71,151,66,1,"",NA,"",NA,NA,NA,NA,NA,NA,NA,"",NA,"",NA,NA,NA,NA,NA,NA,NA,"","","",NA,"",NA,NA,NA,NA,NA,NA,NA,"",NA,"34"
"",NA,"",NA,"",NA,NA,NA,NA,NA,NA,NA,"","",1,1,"2024-08-26_22h40.26.551","IAT(Formal)","2021.2.3","Win32",59.73002031,"",NA,"",NA,NA,NA,NA,NA,NA,NA,"","","",NA,"i",1,0.65754,NA,NA,NA,NA,NA,"刻薄","i","",NA,1,72,152,33,1,"",NA,"",NA,NA,NA,NA,NA,NA,NA,"",NA,"",NA,NA,NA,NA,NA,NA,NA,"","","",NA,"",NA,NA,NA,NA,NA,NA,NA,"",NA,"34"
"",NA,"",NA,"",NA,NA,NA,NA,NA,NA,NA,"","",1,1,"2024-08-26_22h40.26.551","IAT(Formal)","2021.2.3","Win32",59.73002031,"",NA,"",NA,NA,NA,NA,NA,NA,NA,"","","",NA,"i",1,0.512835,NA,NA,NA,NA,NA,"他人","i","",NA,1,73,153,58,1,"",NA,"",NA,NA,NA,NA,NA,NA,NA,"",NA,"",NA,NA,NA,NA,NA,NA,NA,"","","",NA,"",NA,NA,NA,NA,NA,NA,NA,"",NA,"34"
"",NA,"",NA,"",NA,NA,NA,NA,NA,NA,NA,"","",1,1,"2024-08-26_22h40.26.551","IAT(Formal)","2021.2.3","Win32",59.73002031,"",NA,"",NA,NA,NA,NA,NA,NA,NA,"","","",NA,"e",1,0.63938,NA,NA,NA,NA,NA,"聪明","e","",NA,1,74,154,12,1,"",NA,"",NA,NA,NA,NA,NA,NA,NA,"",NA,"",NA,NA,NA,NA,NA,NA,NA,"","","",NA,"",NA,NA,NA,NA,NA,NA,NA,"",NA,"34"
"",NA,"",NA,"",NA,NA,NA,NA,NA,NA,NA,"","",1,1,"2024-08-26_22h40.26.551","IAT(Formal)","2021.2.3","Win32",59.73002031,"",NA,"",NA,NA,NA,NA,NA,NA,NA,"","","",NA,"i",0,0.529855,NA,NA,NA,NA,NA,"无私","e","",NA,1,75,155,22,1,"",NA,"",NA,NA,NA,NA,NA,NA,NA,"",NA,"",NA,NA,NA,NA,NA,NA,NA,"","","",NA,"",NA,NA,NA,NA,NA,NA,NA,"",NA,"34"
"",NA,"",NA,"",NA,NA,NA,NA,NA,NA,NA,"","",1,1,"2024-08-26_22h40.26.551","IAT(Formal)","2021.2.3","Win32",59.73002031,"",NA,"",NA,NA,NA,NA,NA,NA,NA,"","","",NA,"e",1,0.527045,NA,NA,NA,NA,NA,"我们","e","",NA,1,76,156,2,1,"",NA,"",NA,NA,NA,NA,NA,NA,NA,"",NA,"",NA,NA,NA,NA,NA,NA,NA,"","","",NA,"",NA,NA,NA,NA,NA,NA,NA,"",NA,"34"
"",NA,"",NA,"",NA,NA,NA,NA,NA,NA,NA,"","",1,1,"2024-08-26_22h40.26.551","IAT(Formal)","2021.2.3","Win32",59.73002031,"",NA,"",NA,NA,NA,NA,NA,NA,NA,"","","",NA,"e",1,1.215885,NA,NA,NA,NA,NA,"我","e","",NA,1,77,157,0,1,"",NA,"",NA,NA,NA,NA,NA,NA,NA,"",NA,"",NA,NA,NA,NA,NA,NA,NA,"","","",NA,"",NA,NA,NA,NA,NA,NA,NA,"",NA,"34"
"",NA,"",NA,"",NA,NA,NA,NA,NA,NA,NA,"","",1,1,"2024-08-26_22h40.26.551","IAT(Formal)","2021.2.3","Win32",59.73002031,"",NA,"",NA,NA,NA,NA,NA,NA,NA,"","","",NA,"e",1,1.10502,NA,NA,NA,NA,NA,"热情","e","",NA,1,78,158,27,1,"",NA,"",NA,NA,NA,NA,NA,NA,NA,"",NA,"",NA,NA,NA,NA,NA,NA,NA,"","","",NA,"",NA,NA,NA,NA,NA,NA,NA,"",NA,"34"
"",NA,"",NA,"",NA,NA,NA,NA,NA,NA,NA,"","",1,1,"2024-08-26_22h40.26.551","IAT(Formal)","2021.2.3","Win32",59.73002031,"",NA,"",NA,NA,NA,NA,NA,NA,NA,"","","",NA,"e",1,0.768815,NA,NA,NA,NA,NA,"朴实","e","",NA,1,79,159,24,1,"",NA,"",NA,NA,NA,NA,NA,NA,NA,"",NA,"",NA,NA,NA,NA,NA,NA,NA,"","","",NA,"",NA,NA,NA,NA,NA,NA,NA,"",NA,"34"
"",NA,"",NA,"",NA,NA,NA,NA,NA,NA,NA,"他的","e",1,1,"2024-08-26_22h40.26.551","IAT(Formal)","2021.2.3","Win32",59.73002031,"",NA,"",NA,NA,NA,NA,NA,NA,NA,"","","",NA,"",NA,NA,NA,NA,NA,NA,NA,"","","",NA,NA,NA,NA,NA,NA,"space",21.010545,"e",1,1.345435,0,0,0,7,1,"",NA,"",NA,NA,NA,NA,NA,NA,NA,"","","",NA,"",NA,NA,NA,NA,NA,NA,NA,"",NA,"34"
"",NA,"",NA,"",NA,NA,NA,NA,NA,NA,NA,"我的","i",1,1,"2024-08-26_22h40.26.551","IAT(Formal)","2021.2.3","Win32",59.73002031,"",NA,"",NA,NA,NA,NA,NA,NA,NA,"","","",NA,"",NA,NA,NA,NA,NA,NA,NA,"","","",NA,NA,NA,NA,NA,NA,"",NA,"i",1,1.24942,0,1,1,1,1,"",NA,"",NA,NA,NA,NA,NA,NA,NA,"","","",NA,"",NA,NA,NA,NA,NA,NA,NA,"",NA,"34"
"",NA,"",NA,"",NA,NA,NA,NA,NA,NA,NA,"他人","e",1,1,"2024-08-26_22h40.26.551","IAT(Formal)","2021.2.3","Win32",59.73002031,"",NA,"",NA,NA,NA,NA,NA,NA,NA,"","","",NA,"",NA,NA,NA,NA,NA,NA,NA,"","","",NA,NA,NA,NA,NA,NA,"",NA,"e",1,0.700475,0,2,2,8,1,"",NA,"",NA,NA,NA,NA,NA,NA,NA,"","","",NA,"",NA,NA,NA,NA,NA,NA,NA,"",NA,"34"
"",NA,"",NA,"",NA,NA,NA,NA,NA,NA,NA,"我","i",1,1,"2024-08-26_22h40.26.551","IAT(Formal)","2021.2.3","Win32",59.73002031,"",NA,"",NA,NA,NA,NA,NA,NA,NA,"","","",NA,"",NA,NA,NA,NA,NA,NA,NA,"","","",NA,NA,NA,NA,NA,NA,"",NA,"e",0,0.56599,0,3,3,0,1,"",NA,"",NA,NA,NA,NA,NA,NA,NA,"","","",NA,"",NA,NA,NA,NA,NA,NA,NA,"",NA,"34"
"",NA,"",NA,"",NA,NA,NA,NA,NA,NA,NA,"他","e",1,1,"2024-08-26_22h40.26.551","IAT(Formal)","2021.2.3","Win32",59.73002031,"",NA,"",NA,NA,NA,NA,NA,NA,NA,"","","",NA,"",NA,NA,NA,NA,NA,NA,NA,"","","",NA,NA,NA,NA,NA,NA,"",NA,"e",1,0.76065,0,4,4,5,1,"",NA,"",NA,NA,NA,NA,NA,NA,NA,"","","",NA,"",NA,NA,NA,NA,NA,NA,NA,"",NA,"34"
"",NA,"",NA,"",NA,NA,NA,NA,NA,NA,NA,"其他","e",1,1,"2024-08-26_22h40.26.551","IAT(Formal)","2021.2.3","Win32",59.73002031,"",NA,"",NA,NA,NA,NA,NA,NA,NA,"","","",NA,"",NA,NA,NA,NA,NA,NA,NA,"","","",NA,NA,NA,NA,NA,NA,"",NA,"e",1,0.34318,0,5,5,9,1,"",NA,"",NA,NA,NA,NA,NA,NA,NA,"","","",NA,"",NA,NA,NA,NA,NA,NA,NA,"",NA,"34"
"",NA,"",NA,"",NA,NA,NA,NA,NA,NA,NA,"他们","e",1,1,"2024-08-26_22h40.26.551","IAT(Formal)","2021.2.3","Win32",59.73002031,"",NA,"",NA,NA,NA,NA,NA,NA,NA,"","","",NA,"",NA,NA,NA,NA,NA,NA,NA,"","","",NA,NA,NA,NA,NA,NA,"",NA,"e",1,0.327135,0,6,6,6,1,"",NA,"",NA,NA,NA,NA,NA,NA,NA,"","","",NA,"",NA,NA,NA,NA,NA,NA,NA,"",NA,"34"
"",NA,"",NA,"",NA,NA,NA,NA,NA,NA,NA,"自己","i",1,1,"2024-08-26_22h40.26.551","IAT(Formal)","2021.2.3","Win32",59.73002031,"",NA,"",NA,NA,NA,NA,NA,NA,NA,"","","",NA,"",NA,NA,NA,NA,NA,NA,NA,"","","",NA,NA,NA,NA,NA,NA,"",NA,"e",0,0.349555,0,7,7,3,1,"",NA,"",NA,NA,NA,NA,NA,NA,NA,"","","",NA,"",NA,NA,NA,NA,NA,NA,NA,"",NA,"34"
"",NA,"",NA,"",NA,NA,NA,NA,NA,NA,NA,"我们","i",1,1,"2024-08-26_22h40.26.551","IAT(Formal)","2021.2.3","Win32",59.73002031,"",NA,"",NA,NA,NA,NA,NA,NA,NA,"","","",NA,"",NA,NA,NA,NA,NA,NA,NA,"","","",NA,NA,NA,NA,NA,NA,"",NA,"i",1,0.428605,0,8,8,2,1,"",NA,"",NA,NA,NA,NA,NA,NA,NA,"","","",NA,"",NA,NA,NA,NA,NA,NA,NA,"",NA,"34"
"",NA,"",NA,"",NA,NA,NA,NA,NA,NA,NA,"俺","i",1,1,"2024-08-26_22h40.26.551","IAT(Formal)","2021.2.3","Win32",59.73002031,"",NA,"",NA,NA,NA,NA,NA,NA,NA,"","","",NA,"",NA,NA,NA,NA,NA,NA,NA,"","","",NA,NA,NA,NA,NA,NA,"",NA,"i",1,0.34174,0,9,9,4,1,"",NA,"",NA,NA,NA,NA,NA,NA,NA,"","","",NA,"",NA,NA,NA,NA,NA,NA,NA,"",NA,"34"
"",NA,"",NA,"",NA,NA,NA,NA,NA,NA,NA,"","",1,1,"2024-08-26_22h40.26.551","IAT(Formal)","2021.2.3","Win32",59.73002031,"",NA,"",NA,NA,NA,NA,NA,NA,NA,"","","",NA,"",NA,NA,NA,NA,NA,NA,NA,"","","",NA,NA,NA,NA,NA,NA,"",NA,"",NA,NA,NA,NA,NA,NA,NA,"space",1.28771,"e",0,0.427435,0,0,0,48,1,"轻率","i","",NA,"",NA,NA,NA,NA,NA,NA,NA,"",NA,"34"
"",NA,"",NA,"",NA,NA,NA,NA,NA,NA,NA,"","",1,1,"2024-08-26_22h40.26.551","IAT(Formal)","2021.2.3","Win32",59.73002031,"",NA,"",NA,NA,NA,NA,NA,NA,NA,"","","",NA,"",NA,NA,NA,NA,NA,NA,NA,"","","",NA,NA,NA,NA,NA,NA,"",NA,"",NA,NA,NA,NA,NA,NA,NA,"",NA,"i",1,0.81717,0,1,1,74,1,"俺","i","",NA,"",NA,NA,NA,NA,NA,NA,NA,"",NA,"34"
"",NA,"",NA,"",NA,NA,NA,NA,NA,NA,NA,"","",1,1,"2024-08-26_22h40.26.551","IAT(Formal)","2021.2.3","Win32",59.73002031,"",NA,"",NA,NA,NA,NA,NA,NA,NA,"","","",NA,"",NA,NA,NA,NA,NA,NA,NA,"","","",NA,NA,NA,NA,NA,NA,"",NA,"",NA,NA,NA,NA,NA,NA,NA,"",NA,"i",1,0.329575,0,2,2,60,1,"我","i","",NA,"",NA,NA,NA,NA,NA,NA,NA,"",NA,"34"
"",NA,"",NA,"",NA,NA,NA,NA,NA,NA,NA,"","",1,1,"2024-08-26_22h40.26.551","IAT(Formal)","2021.2.3","Win32",59.73002031,"",NA,"",NA,NA,NA,NA,NA,NA,NA,"","","",NA,"",NA,NA,NA,NA,NA,NA,NA,"","","",NA,NA,NA,NA,NA,NA,"",NA,"",NA,NA,NA,NA,NA,NA,NA,"",NA,"i",0,0.421355,0,3,3,58,1,"他人","e","",NA,"",NA,NA,NA,NA,NA,NA,NA,"",NA,"34"
