﻿Instruction1.keys,Instruction1.rt,Instruction2.keys,Instruction2.rt,key_resp_iso.keys,key_resp_iso.corr,key_resp_iso.rt,Practice_01.thisRepN,Practice_01.thisTrialN,Practice_01.thisN,Practice_01.thisIndex,Practice_01.ran,Words,ans,participant,session,date,expName,psychopyVersion,OS,frameRate,key_resp_3.keys,key_resp_3.rt,key_resp_ipn.keys,key_resp_ipn.corr,key_resp_ipn.rt,Practice_02.thisRepN,Practice_02.thisTrialN,Practice_02.thisN,Practice_02.thisIndex,Practice_02.ran,Words_ipn,ans_ipn,key_resp_4.keys,key_resp_4.rt,key_resp_t1.keys,key_resp_t1.corr,key_resp_t1.rt,Practice_T1.thisRepN,Practice_T1.thisTrialN,Practice_T1.thisN,Practice_T1.thisIndex,Practice_T1.ran,Words_t1,ans_t1,key_resp_5.keys,key_resp_5.rt,Formal_T1.thisRepN,Formal_T1.thisTrialN,Formal_T1.thisN,Formal_T1.thisIndex,Formal_T1.ran,key_resp_6.keys,key_resp_6.rt,key_resp_iso_reverse.keys,key_resp_iso_reverse.corr,key_resp_iso_reverse.rt,Practice_iso_Reverse.thisRepN,Practice_iso_Reverse.thisTrialN,Practice_iso_Reverse.thisN,Practice_iso_Reverse.thisIndex,Practice_iso_Reverse.ran,key_resp_7.keys,key_resp_7.rt,key_resp_t2_Practice.keys,key_resp_t2_Practice.corr,key_resp_t2_Practice.rt,Practice_t2_Reverse.thisRepN,Practice_t2_Reverse.thisTrialN,Practice_t2_Reverse.thisN,Practice_t2_Reverse.thisIndex,Practice_t2_Reverse.ran,Words_t2,ans_t2,key_resp_8.keys,key_resp_8.rt,key_resp_t2.keys,key_resp_t2.corr,key_resp_t2.rt,Formal_t2_reverse.thisRepN,Formal_t2_reverse.thisTrialN,Formal_t2_reverse.thisN,Formal_t2_reverse.thisIndex,Formal_t2_reverse.ran,key_instruct.keys,key_instruct.rt
space,4.9044,space,5.55749,e,0,0.45813,0,0,0,8,1,他人,i,1,001,2024-08-26_22h40.26.551,IAT(Formal),2021.2.3,Win32,59.73002031,,,,,,,,,,,,,,,,,,,,,,,,,,,,,,,,,,,,,,,,,,,,,,,,,,,,,,,,,,,,,,,,,
,,,,i,0,0.03954,0,1,1,1,1,我的,e,1,001,2024-08-26_22h40.26.551,IAT(Formal),2021.2.3,Win32,59.73002031,,,,,,,,,,,,,,,,,,,,,,,,,,,,,,,,,,,,,,,,,,,,,,,,,,,,,,,,,,,,,,,,,
,,,,e,1,0.72226,0,2,2,4,1,俺,e,1,001,2024-08-26_22h40.26.551,IAT(Formal),2021.2.3,Win32,59.73002031,,,,,,,,,,,,,,,,,,,,,,,,,,,,,,,,,,,,,,,,,,,,,,,,,,,,,,,,,,,,,,,,,
,,,,i,1,0.664105,0,3,3,6,1,他们,i,1,001,2024-08-26_22h40.26.551,IAT(Formal),2021.2.3,Win32,59.73002031,,,,,,,,,,,,,,,,,,,,,,,,,,,,,,,,,,,,,,,,,,,,,,,,,,,,,,,,,,,,,,,,,
,,,,e,1,0.50811,0,4,4,0,1,我,e,1,001,2024-08-26_22h40.26.551,IAT(Formal),2021.2.3,Win32,59.73002031,,,,,,,,,,,,,,,,,,,,,,,,,,,,,,,,,,,,,,,,,,,,,,,,,,,,,,,,,,,,,,,,,
,,,,i,1,0.817305,0,5,5,5,1,他,i,1,001,2024-08-26_22h40.26.551,IAT(Formal),2021.2.3,Win32,59.73002031,,,,,,,,,,,,,,,,,,,,,,,,,,,,,,,,,,,,,,,,,,,,,,,,,,,,,,,,,,,,,,,,,
,,,,e,1,0.48928,0,6,6,3,1,自己,e,1,001,2024-08-26_22h40.26.551,IAT(Formal),2021.2.3,Win32,59.73002031,,,,,,,,,,,,,,,,,,,,,,,,,,,,,,,,,,,,,,,,,,,,,,,,,,,,,,,,,,,,,,,,,
,,,,i,1,0.486765,0,7,7,7,1,他的,i,1,001,2024-08-26_22h40.26.551,IAT(Formal),2021.2.3,Win32,59.73002031,,,,,,,,,,,,,,,,,,,,,,,,,,,,,,,,,,,,,,,,,,,,,,,,,,,,,,,,,,,,,,,,,
,,,,e,1,0.592285,0,8,8,2,1,我们,e,1,001,2024-08-26_22h40.26.551,IAT(Formal),2021.2.3,Win32,59.73002031,,,,,,,,,,,,,,,,,,,,,,,,,,,,,,,,,,,,,,,,,,,,,,,,,,,,,,,,,,,,,,,,,
,,,,i,1,0.43061,0,9,9,9,1,其他,i,1,001,2024-08-26_22h40.26.551,IAT(Formal),2021.2.3,Win32,59.73002031,,,,,,,,,,,,,,,,,,,,,,,,,,,,,,,,,,,,,,,,,,,,,,,,,,,,,,,,,,,,,,,,,
,,,,,,,,,,,,,,1,001,2024-08-26_22h40.26.551,IAT(Formal),2021.2.3,Win32,59.73002031,space,3.616055,i,1,0.833045,0,0,0,37,1,固执,i,,,,,,,,,,,,,,,,,,,,,,,,,,,,,,,,,,,,,,,,,,,,,,,,,,,,,
,,,,,,,,,,,,,,1,001,2024-08-26_22h40.26.551,IAT(Formal),2021.2.3,Win32,59.73002031,,,i,1,0.558445,0,1,1,29,1,冒失,i,,,,,,,,,,,,,,,,,,,,,,,,,,,,,,,,,,,,,,,,,,,,,,,,,,,,,
,,,,,,,,,,,,,,1,001,2024-08-26_22h40.26.551,IAT(Formal),2021.2.3,Win32,59.73002031,,,i,1,0.686335,0,2,2,38,1,轻率,i,,,,,,,,,,,,,,,,,,,,,,,,,,,,,,,,,,,,,,,,,,,,,,,,,,,,,
,,,,,,,,,,,,,,1,001,2024-08-26_22h40.26.551,IAT(Formal),2021.2.3,Win32,59.73002031,,,e,1,0.642345,0,3,3,6,1,正直,e,,,,,,,,,,,,,,,,,,,,,,,,,,,,,,,,,,,,,,,,,,,,,,,,,,,,,
,,,,,,,,,,,,,,1,001,2024-08-26_22h40.26.551,IAT(Formal),2021.2.3,Win32,59.73002031,,,e,1,0.59341,0,4,4,10,1,认真,e,,,,,,,,,,,,,,,,,,,,,,,,,,,,,,,,,,,,,,,,,,,,,,,,,,,,,
,,,,,,,,,,,,,,1,001,2024-08-26_22h40.26.551,IAT(Formal),2021.2.3,Win32,59.73002031,,,e,0,0.609605,0,5,5,20,1,卑鄙,i,,,,,,,,,,,,,,,,,,,,,,,,,,,,,,,,,,,,,,,,,,,,,,,,,,,,,
,,,,,,,,,,,,,,1,001,2024-08-26_22h40.26.551,IAT(Formal),2021.2.3,Win32,59.73002031,,,e,1,0.61382,0,6,6,17,1,热情,e,,,,,,,,,,,,,,,,,,,,,,,,,,,,,,,,,,,,,,,,,,,,,,,,,,,,,
,,,,,,,,,,,,,,1,001,2024-08-26_22h40.26.551,IAT(Formal),2021.2.3,Win32,59.73002031,,,e,1,0.603485,0,7,7,9,1,机智,e,,,,,,,,,,,,,,,,,,,,,,,,,,,,,,,,,,,,,,,,,,,,,,,,,,,,,
,,,,,,,,,,,,,,1,001,2024-08-26_22h40.26.551,IAT(Formal),2021.2.3,Win32,59.73002031,,,i,1,0.511345,0,8,8,27,1,傲慢,i,,,,,,,,,,,,,,,,,,,,,,,,,,,,,,,,,,,,,,,,,,,,,,,,,,,,,
,,,,,,,,,,,,,,1,001,2024-08-26_22h40.26.551,IAT(Formal),2021.2.3,Win32,59.73002031,,,i,0,0.517725,0,9,9,13,1,公正,e,,,,,,,,,,,,,,,,,,,,,,,,,,,,,,,,,,,,,,,,,,,,,,,,,,,,,
,,,,,,,,,,,,,,1,001,2024-08-26_22h40.26.551,IAT(Formal),2021.2.3,Win32,59.73002031,,,e,1,0.86189,0,10,10,14,1,朴实,e,,,,,,,,,,,,,,,,,,,,,,,,,,,,,,,,,,,,,,,,,,,,,,,,,,,,,
,,,,,,,,,,,,,,1,001,2024-08-26_22h40.26.551,IAT(Formal),2021.2.3,Win32,59.73002031,,,e,1,0.65841,0,11,11,8,1,勤奋,e,,,,,,,,,,,,,,,,,,,,,,,,,,,,,,,,,,,,,,,,,,,,,,,,,,,,,
,,,,,,,,,,,,,,1,001,2024-08-26_22h40.26.551,IAT(Formal),2021.2.3,Win32,59.73002031,,,e,1,0.780355,0,12,12,16,1,冷静,e,,,,,,,,,,,,,,,,,,,,,,,,,,,,,,,,,,,,,,,,,,,,,,,,,,,,,
,,,,,,,,,,,,,,1,001,2024-08-26_22h40.26.551,IAT(Formal),2021.2.3,Win32,59.73002031,,,i,1,0.7325,0,13,13,23,1,刻薄,i,,,,,,,,,,,,,,,,,,,,,,,,,,,,,,,,,,,,,,,,,,,,,,,,,,,,,
,,,,,,,,,,,,,,1,001,2024-08-26_22h40.26.551,IAT(Formal),2021.2.3,Win32,59.73002031,,,e,1,0.895825,0,14,14,15,1,细腻,e,,,,,,,,,,,,,,,,,,,,,,,,,,,,,,,,,,,,,,,,,,,,,,,,,,,,,
,,,,,,,,,,,,,,1,001,2024-08-26_22h40.26.551,IAT(Formal),2021.2.3,Win32,59.73002031,,,i,1,0.880905,0,15,15,21,1,虚伪,i,,,,,,,,,,,,,,,,,,,,,,,,,,,,,,,,,,,,,,,,,,,,,,,,,,,,,
,,,,,,,,,,,,,,1,001,2024-08-26_22h40.26.551,IAT(Formal),2021.2.3,Win32,59.73002031,,,i,1,0.718005,0,16,16,25,1,消极,i,,,,,,,,,,,,,,,,,,,,,,,,,,,,,,,,,,,,,,,,,,,,,,,,,,,,,
,,,,,,,,,,,,,,1,001,2024-08-26_22h40.26.551,IAT(Formal),2021.2.3,Win32,59.73002031,,,e,1,0.49491,0,17,17,2,1,聪明,e,,,,,,,,,,,,,,,,,,,,,,,,,,,,,,,,,,,,,,,,,,,,,,,,,,,,,
,,,,,,,,,,,,,,1,001,2024-08-26_22h40.26.551,IAT(Formal),2021.2.3,Win32,59.73002031,,,i,1,0.54672,0,18,18,24,1,悲观,i,,,,,,,,,,,,,,,,,,,,,,,,,,,,,,,,,,,,,,,,,,,,,,,,,,,,,
,,,,,,,,,,,,,,1,001,2024-08-26_22h40.26.551,IAT(Formal),2021.2.3,Win32,59.73002031,,,e,1,0.73693,0,19,19,1,1,崇高,e,,,,,,,,,,,,,,,,,,,,,,,,,,,,,,,,,,,,,,,,,,,,,,,,,,,,,
,,,,,,,,,,,,,,1,001,2024-08-26_22h40.26.551,IAT(Formal),2021.2.3,Win32,59.73002031,,,e,1,0.84175,0,20,20,12,1,无私,e,,,,,,,,,,,,,,,,,,,,,,,,,,,,,,,,,,,,,,,,,,,,,,,,,,,,,
,,,,,,,,,,,,,,1,001,2024-08-26_22h40.26.551,IAT(Formal),2021.2.3,Win32,59.73002031,,,e,1,0.579645,0,21,21,4,1,乐观,e,,,,,,,,,,,,,,,,,,,,,,,,,,,,,,,,,,,,,,,,,,,,,,,,,,,,,
,,,,,,,,,,,,,,1,001,2024-08-26_22h40.26.551,IAT(Formal),2021.2.3,Win32,59.73002031,,,i,1,0.684155,0,22,22,34,1,暴躁,i,,,,,,,,,,,,,,,,,,,,,,,,,,,,,,,,,,,,,,,,,,,,,,,,,,,,,
,,,,,,,,,,,,,,1,001,2024-08-26_22h40.26.551,IAT(Formal),2021.2.3,Win32,59.73002031,,,i,1,0.79306,0,23,23,30,1,执拗,i,,,,,,,,,,,,,,,,,,,,,,,,,,,,,,,,,,,,,,,,,,,,,,,,,,,,,
,,,,,,,,,,,,,,1,001,2024-08-26_22h40.26.551,IAT(Formal),2021.2.3,Win32,59.73002031,,,i,1,0.85098,0,24,24,36,1,野蛮,i,,,,,,,,,,,,,,,,,,,,,,,,,,,,,,,,,,,,,,,,,,,,,,,,,,,,,
,,,,,,,,,,,,,,1,001,2024-08-26_22h40.26.551,IAT(Formal),2021.2.3,Win32,59.73002031,,,e,1,0.70816,0,25,25,3,1,杰出,e,,,,,,,,,,,,,,,,,,,,,,,,,,,,,,,,,,,,,,,,,,,,,,,,,,,,,
,,,,,,,,,,,,,,1,001,2024-08-26_22h40.26.551,IAT(Formal),2021.2.3,Win32,59.73002031,,,i,1,1.207985,0,26,26,26,1,自卑,i,,,,,,,,,,,,,,,,,,,,,,,,,,,,,,,,,,,,,,,,,,,,,,,,,,,,,
,,,,,,,,,,,,,,1,001,2024-08-26_22h40.26.551,IAT(Formal),2021.2.3,Win32,59.73002031,,,i,1,0.686585,0,27,27,39,1,下贱,i,,,,,,,,,,,,,,,,,,,,,,,,,,,,,,,,,,,,,,,,,,,,,,,,,,,,,
,,,,,,,,,,,,,,1,001,2024-08-26_22h40.26.551,IAT(Formal),2021.2.3,Win32,59.73002031,,,i,1,0.80357,0,28,28,32,1,凶狠,i,,,,,,,,,,,,,,,,,,,,,,,,,,,,,,,,,,,,,,,,,,,,,,,,,,,,,
,,,,,,,,,,,,,,1,001,2024-08-26_22h40.26.551,IAT(Formal),2021.2.3,Win32,59.73002031,,,i,0,0.45914,0,29,29,11,1,稳重,e,,,,,,,,,,,,,,,,,,,,,,,,,,,,,,,,,,,,,,,,,,,,,,,,,,,,,
,,,,,,,,,,,,,,1,001,2024-08-26_22h40.26.551,IAT(Formal),2021.2.3,Win32,59.73002031,,,i,1,0.71639,0,30,30,33,1,自私,i,,,,,,,,,,,,,,,,,,,,,,,,,,,,,,,,,,,,,,,,,,,,,,,,,,,,,
,,,,,,,,,,,,,,1,001,2024-08-26_22h40.26.551,IAT(Formal),2021.2.3,Win32,59.73002031,,,i,1,0.70169,0,31,31,35,1,猖狂,i,,,,,,,,,,,,,,,,,,,,,,,,,,,,,,,,,,,,,,,,,,,,,,,,,,,,,
,,,,,,,,,,,,,,1,001,2024-08-26_22h40.26.551,IAT(Formal),2021.2.3,Win32,59.73002031,,,e,1,0.514985,0,32,32,7,1,勇敢,e,,,,,,,,,,,,,,,,,,,,,,,,,,,,,,,,,,,,,,,,,,,,,,,,,,,,,
,,,,,,,,,,,,,,1,001,2024-08-26_22h40.26.551,IAT(Formal),2021.2.3,Win32,59.73002031,,,e,1,0.48025,0,33,33,19,1,诚恳,e,,,,,,,,,,,,,,,,,,,,,,,,,,,,,,,,,,,,,,,,,,,,,,,,,,,,,
,,,,,,,,,,,,,,1,001,2024-08-26_22h40.26.551,IAT(Formal),2021.2.3,Win32,59.73002031,,,i,1,0.644065,0,34,34,22,1,愚蠢,i,,,,,,,,,,,,,,,,,,,,,,,,,,,,,,,,,,,,,,,,,,,,,,,,,,,,,
,,,,,,,,,,,,,,1,001,2024-08-26_22h40.26.551,IAT(Formal),2021.2.3,Win32,59.73002031,,,e,1,0.54745,0,35,35,18,1,活泼,e,,,,,,,,,,,,,,,,,,,,,,,,,,,,,,,,,,,,,,,,,,,,,,,,,,,,,
,,,,,,,,,,,,,,1,001,2024-08-26_22h40.26.551,IAT(Formal),2021.2.3,Win32,59.73002031,,,i,1,0.87912,0,36,36,31,1,散漫,i,,,,,,,,,,,,,,,,,,,,,,,,,,,,,,,,,,,,,,,,,,,,,,,,,,,,,
,,,,,,,,,,,,,,1,001,2024-08-26_22h40.26.551,IAT(Formal),2021.2.3,Win32,59.73002031,,,e,1,0.688525,0,37,37,0,1,优秀,e,,,,,,,,,,,,,,,,,,,,,,,,,,,,,,,,,,,,,,,,,,,,,,,,,,,,,
,,,,,,,,,,,,,,1,001,2024-08-26_22h40.26.551,IAT(Formal),2021.2.3,Win32,59.73002031,,,e,1,0.539525,0,38,38,5,1,诚实,e,,,,,,,,,,,,,,,,,,,,,,,,,,,,,,,,,,,,,,,,,,,,,,,,,,,,,
,,,,,,,,,,,,,,1,001,2024-08-26_22h40.26.551,IAT(Formal),2021.2.3,Win32,59.73002031,,,e,0,0.62661,0,39,39,28,1,鲁莽,i,,,,,,,,,,,,,,,,,,,,,,,,,,,,,,,,,,,,,,,,,,,,,,,,,,,,,
,,,,,,,,,,,,,,1,001,2024-08-26_22h40.26.551,IAT(Formal),2021.2.3,Win32,59.73002031,,,,,,,,,,,,,space,3.841255,e,1,0.73478,0,0,0,62,1,我们,e,,,,,,,,,,,,,,,,,,,,,,,,,,,,,,,,,,,,,,,,,
,,,,,,,,,,,,,,1,001,2024-08-26_22h40.26.551,IAT(Formal),2021.2.3,Win32,59.73002031,,,,,,,,,,,,,,,i,1,0.83637,0,1,1,30,1,卑鄙,i,,,,,,,,,,,,,,,,,,,,,,,,,,,,,,,,,,,,,,,,,
,,,,,,,,,,,,,,1,001,2024-08-26_22h40.26.551,IAT(Formal),2021.2.3,Win32,59.73002031,,,,,,,,,,,,,,,e,1,0.621375,0,2,2,63,1,自己,e,,,,,,,,,,,,,,,,,,,,,,,,,,,,,,,,,,,,,,,,,
,,,,,,,,,,,,,,1,001,2024-08-26_22h40.26.551,IAT(Formal),2021.2.3,Win32,59.73002031,,,,,,,,,,,,,,,i,1,0.572225,0,3,3,42,1,凶狠,i,,,,,,,,,,,,,,,,,,,,,,,,,,,,,,,,,,,,,,,,,
,,,,,,,,,,,,,,1,001,2024-08-26_22h40.26.551,IAT(Formal),2021.2.3,Win32,59.73002031,,,,,,,,,,,,,,,i,1,0.70593,0,4,4,36,1,自卑,i,,,,,,,,,,,,,,,,,,,,,,,,,,,,,,,,,,,,,,,,,
,,,,,,,,,,,,,,1,001,2024-08-26_22h40.26.551,IAT(Formal),2021.2.3,Win32,59.73002031,,,,,,,,,,,,,,,e,1,0.64149,0,5,5,53,1,自己,e,,,,,,,,,,,,,,,,,,,,,,,,,,,,,,,,,,,,,,,,,
,,,,,,,,,,,,,,1,001,2024-08-26_22h40.26.551,IAT(Formal),2021.2.3,Win32,59.73002031,,,,,,,,,,,,,,,i,1,0.632765,0,6,6,68,1,他人,i,,,,,,,,,,,,,,,,,,,,,,,,,,,,,,,,,,,,,,,,,
,,,,,,,,,,,,,,1,001,2024-08-26_22h40.26.551,IAT(Formal),2021.2.3,Win32,59.73002031,,,,,,,,,,,,,,,e,1,0.708155,0,7,7,12,1,聪明,e,,,,,,,,,,,,,,,,,,,,,,,,,,,,,,,,,,,,,,,,,
,,,,,,,,,,,,,,1,001,2024-08-26_22h40.26.551,IAT(Formal),2021.2.3,Win32,59.73002031,,,,,,,,,,,,,,,e,1,0.695305,0,8,8,25,1,细腻,e,,,,,,,,,,,,,,,,,,,,,,,,,,,,,,,,,,,,,,,,,
,,,,,,,,,,,,,,1,001,2024-08-26_22h40.26.551,IAT(Formal),2021.2.3,Win32,59.73002031,,,,,,,,,,,,,,,e,1,0.573035,0,9,9,20,1,认真,e,,,,,,,,,,,,,,,,,,,,,,,,,,,,,,,,,,,,,,,,,
,,,,,,,,,,,,,,1,001,2024-08-26_22h40.26.551,IAT(Formal),2021.2.3,Win32,59.73002031,,,,,,,,,,,,,,,e,0,0.495235,0,10,10,66,1,他们,i,,,,,,,,,,,,,,,,,,,,,,,,,,,,,,,,,,,,,,,,,
,,,,,,,,,,,,,,1,001,2024-08-26_22h40.26.551,IAT(Formal),2021.2.3,Win32,59.73002031,,,,,,,,,,,,,,,i,1,0.650585,0,11,11,34,1,悲观,i,,,,,,,,,,,,,,,,,,,,,,,,,,,,,,,,,,,,,,,,,
,,,,,,,,,,,,,,1,001,2024-08-26_22h40.26.551,IAT(Formal),2021.2.3,Win32,59.73002031,,,,,,,,,,,,,,,i,1,0.644725,0,12,12,32,1,愚蠢,i,,,,,,,,,,,,,,,,,,,,,,,,,,,,,,,,,,,,,,,,,
,,,,,,,,,,,,,,1,001,2024-08-26_22h40.26.551,IAT(Formal),2021.2.3,Win32,59.73002031,,,,,,,,,,,,,,,i,1,0.73309,0,13,13,57,1,他的,i,,,,,,,,,,,,,,,,,,,,,,,,,,,,,,,,,,,,,,,,,
,,,,,,,,,,,,,,1,001,2024-08-26_22h40.26.551,IAT(Formal),2021.2.3,Win32,59.73002031,,,,,,,,,,,,,,,e,1,0.56281,0,14,14,27,1,热情,e,,,,,,,,,,,,,,,,,,,,,,,,,,,,,,,,,,,,,,,,,
,,,,,,,,,,,,,,1,001,2024-08-26_22h40.26.551,IAT(Formal),2021.2.3,Win32,59.73002031,,,,,,,,,,,,,,,i,1,0.68284,0,15,15,43,1,自私,i,,,,,,,,,,,,,,,,,,,,,,,,,,,,,,,,,,,,,,,,,
,,,,,,,,,,,,,,1,001,2024-08-26_22h40.26.551,IAT(Formal),2021.2.3,Win32,59.73002031,,,,,,,,,,,,,,,e,0,0.676325,0,16,16,47,1,固执,i,,,,,,,,,,,,,,,,,,,,,,,,,,,,,,,,,,,,,,,,,
,,,,,,,,,,,,,,1,001,2024-08-26_22h40.26.551,IAT(Formal),2021.2.3,Win32,59.73002031,,,,,,,,,,,,,,,e,1,0.653,0,17,17,1,1,我的,e,,,,,,,,,,,,,,,,,,,,,,,,,,,,,,,,,,,,,,,,,
,,,,,,,,,,,,,,1,001,2024-08-26_22h40.26.551,IAT(Formal),2021.2.3,Win32,59.73002031,,,,,,,,,,,,,,,e,1,0.51562,0,18,18,50,1,我,e,,,,,,,,,,,,,,,,,,,,,,,,,,,,,,,,,,,,,,,,,
,,,,,,,,,,,,,,1,001,2024-08-26_22h40.26.551,IAT(Formal),2021.2.3,Win32,59.73002031,,,,,,,,,,,,,,,i,1,0.63125,0,19,19,77,1,他的,i,,,,,,,,,,,,,,,,,,,,,,,,,,,,,,,,,,,,,,,,,
,,,,,,,,,,,,,,1,001,2024-08-26_22h40.26.551,IAT(Formal),2021.2.3,Win32,59.73002031,,,,,,,,,,,,,,,i,1,0.575615,0,20,20,67,1,他的,i,,,,,,,,,,,,,,,,,,,,,,,,,,,,,,,,,,,,,,,,,
,,,,,,,,,,,,,,1,001,2024-08-26_22h40.26.551,IAT(Formal),2021.2.3,Win32,59.73002031,,,,,,,,,,,,,,,e,1,0.629745,0,21,21,71,1,我的,e,,,,,,,,,,,,,,,,,,,,,,,,,,,,,,,,,,,,,,,,,
,,,,,,,,,,,,,,1,001,2024-08-26_22h40.26.551,IAT(Formal),2021.2.3,Win32,59.73002031,,,,,,,,,,,,,,,i,0,0.65444,0,22,22,26,1,冷静,e,,,,,,,,,,,,,,,,,,,,,,,,,,,,,,,,,,,,,,,,,
,,,,,,,,,,,,,,1,001,2024-08-26_22h40.26.551,IAT(Formal),2021.2.3,Win32,59.73002031,,,,,,,,,,,,,,,e,1,0.621255,0,23,23,51,1,我的,e,,,,,,,,,,,,,,,,,,,,,,,,,,,,,,,,,,,,,,,,,
,,,,,,,,,,,,,,1,001,2024-08-26_22h40.26.551,IAT(Formal),2021.2.3,Win32,59.73002031,,,,,,,,,,,,,,,e,1,0.726715,0,24,24,19,1,机智,e,,,,,,,,,,,,,,,,,,,,,,,,,,,,,,,,,,,,,,,,,
,,,,,,,,,,,,,,1,001,2024-08-26_22h40.26.551,IAT(Formal),2021.2.3,Win32,59.73002031,,,,,,,,,,,,,,,i,1,0.82722,0,25,25,35,1,消极,i,,,,,,,,,,,,,,,,,,,,,,,,,,,,,,,,,,,,,,,,,
,,,,,,,,,,,,,,1,001,2024-08-26_22h40.26.551,IAT(Formal),2021.2.3,Win32,59.73002031,,,,,,,,,,,,,,,i,1,0.711375,0,26,26,38,1,鲁莽,i,,,,,,,,,,,,,,,,,,,,,,,,,,,,,,,,,,,,,,,,,
,,,,,,,,,,,,,,1,001,2024-08-26_22h40.26.551,IAT(Formal),2021.2.3,Win32,59.73002031,,,,,,,,,,,,,,,e,1,0.606485,0,27,27,52,1,我们,e,,,,,,,,,,,,,,,,,,,,,,,,,,,,,,,,,,,,,,,,,
,,,,,,,,,,,,,,1,001,2024-08-26_22h40.26.551,IAT(Formal),2021.2.3,Win32,59.73002031,,,,,,,,,,,,,,,e,1,0.593805,0,28,28,16,1,正直,e,,,,,,,,,,,,,,,,,,,,,,,,,,,,,,,,,,,,,,,,,
,,,,,,,,,,,,,,1,001,2024-08-26_22h40.26.551,IAT(Formal),2021.2.3,Win32,59.73002031,,,,,,,,,,,,,,,i,1,0.6267,0,29,29,79,1,其他,i,,,,,,,,,,,,,,,,,,,,,,,,,,,,,,,,,,,,,,,,,
,,,,,,,,,,,,,,1,001,2024-08-26_22h40.26.551,IAT(Formal),2021.2.3,Win32,59.73002031,,,,,,,,,,,,,,,e,1,0.613355,0,30,30,15,1,诚实,e,,,,,,,,,,,,,,,,,,,,,,,,,,,,,,,,,,,,,,,,,
,,,,,,,,,,,,,,1,001,2024-08-26_22h40.26.551,IAT(Formal),2021.2.3,Win32,59.73002031,,,,,,,,,,,,,,,e,1,0.65426,0,31,31,21,1,稳重,e,,,,,,,,,,,,,,,,,,,,,,,,,,,,,,,,,,,,,,,,,
,,,,,,,,,,,,,,1,001,2024-08-26_22h40.26.551,IAT(Formal),2021.2.3,Win32,59.73002031,,,,,,,,,,,,,,,e,1,0.656925,0,32,32,72,1,我们,e,,,,,,,,,,,,,,,,,,,,,,,,,,,,,,,,,,,,,,,,,
,,,,,,,,,,,,,,1,001,2024-08-26_22h40.26.551,IAT(Formal),2021.2.3,Win32,59.73002031,,,,,,,,,,,,,,,i,1,0.6702,0,33,33,33,1,刻薄,i,,,,,,,,,,,,,,,,,,,,,,,,,,,,,,,,,,,,,,,,,
,,,,,,,,,,,,,,1,001,2024-08-26_22h40.26.551,IAT(Formal),2021.2.3,Win32,59.73002031,,,,,,,,,,,,,,,i,1,0.74219,0,34,34,41,1,散漫,i,,,,,,,,,,,,,,,,,,,,,,,,,,,,,,,,,,,,,,,,,
,,,,,,,,,,,,,,1,001,2024-08-26_22h40.26.551,IAT(Formal),2021.2.3,Win32,59.73002031,,,,,,,,,,,,,,,i,0,0.50173,0,35,35,2,1,我们,e,,,,,,,,,,,,,,,,,,,,,,,,,,,,,,,,,,,,,,,,,
,,,,,,,,,,,,,,1,001,2024-08-26_22h40.26.551,IAT(Formal),2021.2.3,Win32,59.73002031,,,,,,,,,,,,,,,i,0,0.50995,0,36,36,22,1,无私,e,,,,,,,,,,,,,,,,,,,,,,,,,,,,,,,,,,,,,,,,,
,,,,,,,,,,,,,,1,001,2024-08-26_22h40.26.551,IAT(Formal),2021.2.3,Win32,59.73002031,,,,,,,,,,,,,,,e,1,0.63131,0,37,37,28,1,活泼,e,,,,,,,,,,,,,,,,,,,,,,,,,,,,,,,,,,,,,,,,,
,,,,,,,,,,,,,,1,001,2024-08-26_22h40.26.551,IAT(Formal),2021.2.3,Win32,59.73002031,,,,,,,,,,,,,,,e,1,0.6213,0,38,38,17,1,勇敢,e,,,,,,,,,,,,,,,,,,,,,,,,,,,,,,,,,,,,,,,,,
,,,,,,,,,,,,,,1,001,2024-08-26_22h40.26.551,IAT(Formal),2021.2.3,Win32,59.73002031,,,,,,,,,,,,,,,e,0,0.654595,0,39,39,56,1,他们,i,,,,,,,,,,,,,,,,,,,,,,,,,,,,,,,,,,,,,,,,,
,,,,,,,,,,,,,,1,001,2024-08-26_22h40.26.551,IAT(Formal),2021.2.3,Win32,59.73002031,,,,,,,,,,,,,,,e,1,0.66003,0,40,40,29,1,诚恳,e,,,,,,,,,,,,,,,,,,,,,,,,,,,,,,,,,,,,,,,,,
,,,,,,,,,,,,,,1,001,2024-08-26_22h40.26.551,IAT(Formal),2021.2.3,Win32,59.73002031,,,,,,,,,,,,,,,i,1,0.59201,0,41,41,44,1,暴躁,i,,,,,,,,,,,,,,,,,,,,,,,,,,,,,,,,,,,,,,,,,
,,,,,,,,,,,,,,1,001,2024-08-26_22h40.26.551,IAT(Formal),2021.2.3,Win32,59.73002031,,,,,,,,,,,,,,,e,1,0.599865,0,42,42,73,1,自己,e,,,,,,,,,,,,,,,,,,,,,,,,,,,,,,,,,,,,,,,,,
,,,,,,,,,,,,,,1,001,2024-08-26_22h40.26.551,IAT(Formal),2021.2.3,Win32,59.73002031,,,,,,,,,,,,,,,e,1,0.87716,0,43,43,10,1,优秀,e,,,,,,,,,,,,,,,,,,,,,,,,,,,,,,,,,,,,,,,,,
,,,,,,,,,,,,,,1,001,2024-08-26_22h40.26.551,IAT(Formal),2021.2.3,Win32,59.73002031,,,,,,,,,,,,,,,e,1,0.628755,0,44,44,18,1,勤奋,e,,,,,,,,,,,,,,,,,,,,,,,,,,,,,,,,,,,,,,,,,
,,,,,,,,,,,,,,1,001,2024-08-26_22h40.26.551,IAT(Formal),2021.2.3,Win32,59.73002031,,,,,,,,,,,,,,,e,0,0.457105,0,45,45,46,1,野蛮,i,,,,,,,,,,,,,,,,,,,,,,,,,,,,,,,,,,,,,,,,,
,,,,,,,,,,,,,,1,001,2024-08-26_22h40.26.551,IAT(Formal),2021.2.3,Win32,59.73002031,,,,,,,,,,,,,,,e,1,0.49129,0,46,46,0,1,我,e,,,,,,,,,,,,,,,,,,,,,,,,,,,,,,,,,,,,,,,,,
,,,,,,,,,,,,,,1,001,2024-08-26_22h40.26.551,IAT(Formal),2021.2.3,Win32,59.73002031,,,,,,,,,,,,,,,i,1,0.52491,0,47,47,7,1,他的,i,,,,,,,,,,,,,,,,,,,,,,,,,,,,,,,,,,,,,,,,,
,,,,,,,,,,,,,,1,001,2024-08-26_22h40.26.551,IAT(Formal),2021.2.3,Win32,59.73002031,,,,,,,,,,,,,,,i,1,0.57524,0,48,48,76,1,他们,i,,,,,,,,,,,,,,,,,,,,,,,,,,,,,,,,,,,,,,,,,
,,,,,,,,,,,,,,1,001,2024-08-26_22h40.26.551,IAT(Formal),2021.2.3,Win32,59.73002031,,,,,,,,,,,,,,,i,1,0.5836,0,49,49,59,1,其他,i,,,,,,,,,,,,,,,,,,,,,,,,,,,,,,,,,,,,,,,,,
,,,,,,,,,,,,,,1,001,2024-08-26_22h40.26.551,IAT(Formal),2021.2.3,Win32,59.73002031,,,,,,,,,,,,,,,e,1,0.884765,0,50,50,24,1,朴实,e,,,,,,,,,,,,,,,,,,,,,,,,,,,,,,,,,,,,,,,,,
,,,,,,,,,,,,,,1,001,2024-08-26_22h40.26.551,IAT(Formal),2021.2.3,Win32,59.73002031,,,,,,,,,,,,,,,e,1,0.60926,0,51,51,70,1,我,e,,,,,,,,,,,,,,,,,,,,,,,,,,,,,,,,,,,,,,,,,
,,,,,,,,,,,,,,1,001,2024-08-26_22h40.26.551,IAT(Formal),2021.2.3,Win32,59.73002031,,,,,,,,,,,,,,,i,1,0.615875,0,52,52,78,1,他人,i,,,,,,,,,,,,,,,,,,,,,,,,,,,,,,,,,,,,,,,,,
,,,,,,,,,,,,,,1,001,2024-08-26_22h40.26.551,IAT(Formal),2021.2.3,Win32,59.73002031,,,,,,,,,,,,,,,i,1,0.466485,0,53,53,55,1,他,i,,,,,,,,,,,,,,,,,,,,,,,,,,,,,,,,,,,,,,,,,
,,,,,,,,,,,,,,1,001,2024-08-26_22h40.26.551,IAT(Formal),2021.2.3,Win32,59.73002031,,,,,,,,,,,,,,,e,1,0.58405,0,54,54,11,1,崇高,e,,,,,,,,,,,,,,,,,,,,,,,,,,,,,,,,,,,,,,,,,
,,,,,,,,,,,,,,1,001,2024-08-26_22h40.26.551,IAT(Formal),2021.2.3,Win32,59.73002031,,,,,,,,,,,,,,,i,1,0.63038,0,55,55,31,1,虚伪,i,,,,,,,,,,,,,,,,,,,,,,,,,,,,,,,,,,,,,,,,,
,,,,,,,,,,,,,,1,001,2024-08-26_22h40.26.551,IAT(Formal),2021.2.3,Win32,59.73002031,,,,,,,,,,,,,,,i,1,1.15439,0,56,56,75,1,他,i,,,,,,,,,,,,,,,,,,,,,,,,,,,,,,,,,,,,,,,,,
,,,,,,,,,,,,,,1,001,2024-08-26_22h40.26.551,IAT(Formal),2021.2.3,Win32,59.73002031,,,,,,,,,,,,,,,i,1,0.66434,0,57,57,58,1,他人,i,,,,,,,,,,,,,,,,,,,,,,,,,,,,,,,,,,,,,,,,,
,,,,,,,,,,,,,,1,001,2024-08-26_22h40.26.551,IAT(Formal),2021.2.3,Win32,59.73002031,,,,,,,,,,,,,,,e,1,0.57824,0,58,58,61,1,我的,e,,,,,,,,,,,,,,,,,,,,,,,,,,,,,,,,,,,,,,,,,
,,,,,,,,,,,,,,1,001,2024-08-26_22h40.26.551,IAT(Formal),2021.2.3,Win32,59.73002031,,,,,,,,,,,,,,,i,1,0.75373,0,59,59,39,1,冒失,i,,,,,,,,,,,,,,,,,,,,,,,,,,,,,,,,,,,,,,,,,
,,,,,,,,,,,,,,1,001,2024-08-26_22h40.26.551,IAT(Formal),2021.2.3,Win32,59.73002031,,,,,,,,,,,,,,,e,1,0.55443,0,60,60,23,1,公正,e,,,,,,,,,,,,,,,,,,,,,,,,,,,,,,,,,,,,,,,,,
,,,,,,,,,,,,,,1,001,2024-08-26_22h40.26.551,IAT(Formal),2021.2.3,Win32,59.73002031,,,,,,,,,,,,,,,i,1,0.67408,0,61,61,69,1,其他,i,,,,,,,,,,,,,,,,,,,,,,,,,,,,,,,,,,,,,,,,,
,,,,,,,,,,,,,,1,001,2024-08-26_22h40.26.551,IAT(Formal),2021.2.3,Win32,59.73002031,,,,,,,,,,,,,,,i,1,0.602915,0,62,62,5,1,他,i,,,,,,,,,,,,,,,,,,,,,,,,,,,,,,,,,,,,,,,,,
,,,,,,,,,,,,,,1,001,2024-08-26_22h40.26.551,IAT(Formal),2021.2.3,Win32,59.73002031,,,,,,,,,,,,,,,i,1,0.700165,0,63,63,8,1,他人,i,,,,,,,,,,,,,,,,,,,,,,,,,,,,,,,,,,,,,,,,,
,,,,,,,,,,,,,,1,001,2024-08-26_22h40.26.551,IAT(Formal),2021.2.3,Win32,59.73002031,,,,,,,,,,,,,,,e,1,0.65549,0,64,64,60,1,我,e,,,,,,,,,,,,,,,,,,,,,,,,,,,,,,,,,,,,,,,,,
,,,,,,,,,,,,,,1,001,2024-08-26_22h40.26.551,IAT(Formal),2021.2.3,Win32,59.73002031,,,,,,,,,,,,,,,i,1,0.621795,0,65,65,6,1,他们,i,,,,,,,,,,,,,,,,,,,,,,,,,,,,,,,,,,,,,,,,,
,,,,,,,,,,,,,,1,001,2024-08-26_22h40.26.551,IAT(Formal),2021.2.3,Win32,59.73002031,,,,,,,,,,,,,,,e,1,0.706565,0,66,66,4,1,俺,e,,,,,,,,,,,,,,,,,,,,,,,,,,,,,,,,,,,,,,,,,
,,,,,,,,,,,,,,1,001,2024-08-26_22h40.26.551,IAT(Formal),2021.2.3,Win32,59.73002031,,,,,,,,,,,,,,,i,1,0.559985,0,67,67,65,1,他,i,,,,,,,,,,,,,,,,,,,,,,,,,,,,,,,,,,,,,,,,,
,,,,,,,,,,,,,,1,001,2024-08-26_22h40.26.551,IAT(Formal),2021.2.3,Win32,59.73002031,,,,,,,,,,,,,,,e,1,0.513725,0,68,68,3,1,自己,e,,,,,,,,,,,,,,,,,,,,,,,,,,,,,,,,,,,,,,,,,
,,,,,,,,,,,,,,1,001,2024-08-26_22h40.26.551,IAT(Formal),2021.2.3,Win32,59.73002031,,,,,,,,,,,,,,,e,1,0.670115,0,69,69,54,1,俺,e,,,,,,,,,,,,,,,,,,,,,,,,,,,,,,,,,,,,,,,,,
,,,,,,,,,,,,,,1,001,2024-08-26_22h40.26.551,IAT(Formal),2021.2.3,Win32,59.73002031,,,,,,,,,,,,,,,e,1,0.690075,0,70,70,14,1,乐观,e,,,,,,,,,,,,,,,,,,,,,,,,,,,,,,,,,,,,,,,,,
,,,,,,,,,,,,,,1,001,2024-08-26_22h40.26.551,IAT(Formal),2021.2.3,Win32,59.73002031,,,,,,,,,,,,,,,i,1,0.64456,0,71,71,37,1,傲慢,i,,,,,,,,,,,,,,,,,,,,,,,,,,,,,,,,,,,,,,,,,
,,,,,,,,,,,,,,1,001,2024-08-26_22h40.26.551,IAT(Formal),2021.2.3,Win32,59.73002031,,,,,,,,,,,,,,,e,1,0.6443,0,72,72,64,1,俺,e,,,,,,,,,,,,,,,,,,,,,,,,,,,,,,,,,,,,,,,,,
,,,,,,,,,,,,,,1,001,2024-08-26_22h40.26.551,IAT(Formal),2021.2.3,Win32,59.73002031,,,,,,,,,,,,,,,i,1,0.640715,0,73,73,45,1,猖狂,i,,,,,,,,,,,,,,,,,,,,,,,,,,,,,,,,,,,,,,,,,
,,,,,,,,,,,,,,1,001,2024-08-26_22h40.26.551,IAT(Formal),2021.2.3,Win32,59.73002031,,,,,,,,,,,,,,,e,1,0.618,0,74,74,74,1,俺,e,,,,,,,,,,,,,,,,,,,,,,,,,,,,,,,,,,,,,,,,,
,,,,,,,,,,,,,,1,001,2024-08-26_22h40.26.551,IAT(Formal),2021.2.3,Win32,59.73002031,,,,,,,,,,,,,,,i,1,0.698425,0,75,75,49,1,下贱,i,,,,,,,,,,,,,,,,,,,,,,,,,,,,,,,,,,,,,,,,,
,,,,,,,,,,,,,,1,001,2024-08-26_22h40.26.551,IAT(Formal),2021.2.3,Win32,59.73002031,,,,,,,,,,,,,,,e,1,0.753925,0,76,76,13,1,杰出,e,,,,,,,,,,,,,,,,,,,,,,,,,,,,,,,,,,,,,,,,,
,,,,,,,,,,,,,,1,001,2024-08-26_22h40.26.551,IAT(Formal),2021.2.3,Win32,59.73002031,,,,,,,,,,,,,,,i,1,0.696155,0,77,77,40,1,执拗,i,,,,,,,,,,,,,,,,,,,,,,,,,,,,,,,,,,,,,,,,,
,,,,,,,,,,,,,,1,001,2024-08-26_22h40.26.551,IAT(Formal),2021.2.3,Win32,59.73002031,,,,,,,,,,,,,,,e,0,0.59412,0,78,78,48,1,轻率,i,,,,,,,,,,,,,,,,,,,,,,,,,,,,,,,,,,,,,,,,,
,,,,,,,,,,,,,,1,001,2024-08-26_22h40.26.551,IAT(Formal),2021.2.3,Win32,59.73002031,,,,,,,,,,,,,,,i,1,0.669265,0,79,79,9,1,其他,i,,,,,,,,,,,,,,,,,,,,,,,,,,,,,,,,,,,,,,,,,
,,,,,,,,,,,,,,1,001,2024-08-26_22h40.26.551,IAT(Formal),2021.2.3,Win32,59.73002031,,,,,,,,,,,,,,,e,1,1.06505,,,,,,热情,e,space,3.803295,0,0,0,27,1,,,,,,,,,,,,,,,,,,,,,,,,,,,,,,,,,,
,,,,,,,,,,,,,,1,001,2024-08-26_22h40.26.551,IAT(Formal),2021.2.3,Win32,59.73002031,,,,,,,,,,,,,,,e,1,0.652,,,,,,我们,e,,,0,1,1,2,1,,,,,,,,,,,,,,,,,,,,,,,,,,,,,,,,,,
,,,,,,,,,,,,,,1,001,2024-08-26_22h40.26.551,IAT(Formal),2021.2.3,Win32,59.73002031,,,,,,,,,,,,,,,e,1,0.56771,,,,,,我的,e,,,0,2,2,71,1,,,,,,,,,,,,,,,,,,,,,,,,,,,,,,,,,,
,,,,,,,,,,,,,,1,001,2024-08-26_22h40.26.551,IAT(Formal),2021.2.3,Win32,59.73002031,,,,,,,,,,,,,,,i,1,0.60875,,,,,,他人,i,,,0,3,3,68,1,,,,,,,,,,,,,,,,,,,,,,,,,,,,,,,,,,
,,,,,,,,,,,,,,1,001,2024-08-26_22h40.26.551,IAT(Formal),2021.2.3,Win32,59.73002031,,,,,,,,,,,,,,,i,1,0.464915,,,,,,他,i,,,0,4,4,5,1,,,,,,,,,,,,,,,,,,,,,,,,,,,,,,,,,,
,,,,,,,,,,,,,,1,001,2024-08-26_22h40.26.551,IAT(Formal),2021.2.3,Win32,59.73002031,,,,,,,,,,,,,,,i,1,0.460445,,,,,,他的,i,,,0,5,5,77,1,,,,,,,,,,,,,,,,,,,,,,,,,,,,,,,,,,
,,,,,,,,,,,,,,1,001,2024-08-26_22h40.26.551,IAT(Formal),2021.2.3,Win32,59.73002031,,,,,,,,,,,,,,,e,1,0.6109,,,,,,聪明,e,,,0,6,6,12,1,,,,,,,,,,,,,,,,,,,,,,,,,,,,,,,,,,
,,,,,,,,,,,,,,1,001,2024-08-26_22h40.26.551,IAT(Formal),2021.2.3,Win32,59.73002031,,,,,,,,,,,,,,,i,1,0.88904,,,,,,悲观,i,,,0,7,7,34,1,,,,,,,,,,,,,,,,,,,,,,,,,,,,,,,,,,
,,,,,,,,,,,,,,1,001,2024-08-26_22h40.26.551,IAT(Formal),2021.2.3,Win32,59.73002031,,,,,,,,,,,,,,,e,1,1.0287,,,,,,冷静,e,,,0,8,8,26,1,,,,,,,,,,,,,,,,,,,,,,,,,,,,,,,,,,
,,,,,,,,,,,,,,1,001,2024-08-26_22h40.26.551,IAT(Formal),2021.2.3,Win32,59.73002031,,,,,,,,,,,,,,,i,1,0.65756,,,,,,虚伪,i,,,0,9,9,31,1,,,,,,,,,,,,,,,,,,,,,,,,,,,,,,,,,,
,,,,,,,,,,,,,,1,001,2024-08-26_22h40.26.551,IAT(Formal),2021.2.3,Win32,59.73002031,,,,,,,,,,,,,,,i,1,0.58461,,,,,,其他,i,,,0,10,10,59,1,,,,,,,,,,,,,,,,,,,,,,,,,,,,,,,,,,
,,,,,,,,,,,,,,1,001,2024-08-26_22h40.26.551,IAT(Formal),2021.2.3,Win32,59.73002031,,,,,,,,,,,,,,,i,1,0.67813,,,,,,其他,i,,,0,11,11,9,1,,,,,,,,,,,,,,,,,,,,,,,,,,,,,,,,,,
,,,,,,,,,,,,,,1,001,2024-08-26_22h40.26.551,IAT(Formal),2021.2.3,Win32,59.73002031,,,,,,,,,,,,,,,i,1,0.45755,,,,,,他的,i,,,0,12,12,57,1,,,,,,,,,,,,,,,,,,,,,,,,,,,,,,,,,,
,,,,,,,,,,,,,,1,001,2024-08-26_22h40.26.551,IAT(Formal),2021.2.3,Win32,59.73002031,,,,,,,,,,,,,,,e,1,0.787615,,,,,,诚恳,e,,,0,13,13,29,1,,,,,,,,,,,,,,,,,,,,,,,,,,,,,,,,,,
,,,,,,,,,,,,,,1,001,2024-08-26_22h40.26.551,IAT(Formal),2021.2.3,Win32,59.73002031,,,,,,,,,,,,,,,i,1,0.571615,,,,,,下贱,i,,,0,14,14,49,1,,,,,,,,,,,,,,,,,,,,,,,,,,,,,,,,,,
,,,,,,,,,,,,,,1,001,2024-08-26_22h40.26.551,IAT(Formal),2021.2.3,Win32,59.73002031,,,,,,,,,,,,,,,i,1,0.586495,,,,,,傲慢,i,,,0,15,15,37,1,,,,,,,,,,,,,,,,,,,,,,,,,,,,,,,,,,
,,,,,,,,,,,,,,1,001,2024-08-26_22h40.26.551,IAT(Formal),2021.2.3,Win32,59.73002031,,,,,,,,,,,,,,,e,1,0.66064,,,,,,稳重,e,,,0,16,16,21,1,,,,,,,,,,,,,,,,,,,,,,,,,,,,,,,,,,
,,,,,,,,,,,,,,1,001,2024-08-26_22h40.26.551,IAT(Formal),2021.2.3,Win32,59.73002031,,,,,,,,,,,,,,,e,1,0.63116,,,,,,崇高,e,,,0,17,17,11,1,,,,,,,,,,,,,,,,,,,,,,,,,,,,,,,,,,
,,,,,,,,,,,,,,1,001,2024-08-26_22h40.26.551,IAT(Formal),2021.2.3,Win32,59.73002031,,,,,,,,,,,,,,,e,1,0.50853,,,,,,勤奋,e,,,0,18,18,18,1,,,,,,,,,,,,,,,,,,,,,,,,,,,,,,,,,,
,,,,,,,,,,,,,,1,001,2024-08-26_22h40.26.551,IAT(Formal),2021.2.3,Win32,59.73002031,,,,,,,,,,,,,,,i,1,0.604715,,,,,,他们,i,,,0,19,19,6,1,,,,,,,,,,,,,,,,,,,,,,,,,,,,,,,,,,
,,,,,,,,,,,,,,1,001,2024-08-26_22h40.26.551,IAT(Formal),2021.2.3,Win32,59.73002031,,,,,,,,,,,,,,,e,1,0.685945,,,,,,我的,e,,,0,20,20,61,1,,,,,,,,,,,,,,,,,,,,,,,,,,,,,,,,,,
,,,,,,,,,,,,,,1,001,2024-08-26_22h40.26.551,IAT(Formal),2021.2.3,Win32,59.73002031,,,,,,,,,,,,,,,i,1,0.572145,,,,,,其他,i,,,0,21,21,69,1,,,,,,,,,,,,,,,,,,,,,,,,,,,,,,,,,,
,,,,,,,,,,,,,,1,001,2024-08-26_22h40.26.551,IAT(Formal),2021.2.3,Win32,59.73002031,,,,,,,,,,,,,,,e,1,0.737205,,,,,,机智,e,,,0,22,22,19,1,,,,,,,,,,,,,,,,,,,,,,,,,,,,,,,,,,
,,,,,,,,,,,,,,1,001,2024-08-26_22h40.26.551,IAT(Formal),2021.2.3,Win32,59.73002031,,,,,,,,,,,,,,,i,1,0.55899,,,,,,野蛮,i,,,0,23,23,46,1,,,,,,,,,,,,,,,,,,,,,,,,,,,,,,,,,,
,,,,,,,,,,,,,,1,001,2024-08-26_22h40.26.551,IAT(Formal),2021.2.3,Win32,59.73002031,,,,,,,,,,,,,,,i,1,0.626445,,,,,,愚蠢,i,,,0,24,24,32,1,,,,,,,,,,,,,,,,,,,,,,,,,,,,,,,,,,
,,,,,,,,,,,,,,1,001,2024-08-26_22h40.26.551,IAT(Formal),2021.2.3,Win32,59.73002031,,,,,,,,,,,,,,,i,1,0.60927,,,,,,他们,i,,,0,25,25,56,1,,,,,,,,,,,,,,,,,,,,,,,,,,,,,,,,,,
,,,,,,,,,,,,,,1,001,2024-08-26_22h40.26.551,IAT(Formal),2021.2.3,Win32,59.73002031,,,,,,,,,,,,,,,e,0,0.553975,,,,,,自卑,i,,,0,26,26,36,1,,,,,,,,,,,,,,,,,,,,,,,,,,,,,,,,,,
,,,,,,,,,,,,,,1,001,2024-08-26_22h40.26.551,IAT(Formal),2021.2.3,Win32,59.73002031,,,,,,,,,,,,,,,i,1,1.216305,,,,,,固执,i,,,0,27,27,47,1,,,,,,,,,,,,,,,,,,,,,,,,,,,,,,,,,,
,,,,,,,,,,,,,,1,001,2024-08-26_22h40.26.551,IAT(Formal),2021.2.3,Win32,59.73002031,,,,,,,,,,,,,,,e,1,0.847565,,,,,,认真,e,,,0,28,28,20,1,,,,,,,,,,,,,,,,,,,,,,,,,,,,,,,,,,
,,,,,,,,,,,,,,1,001,2024-08-26_22h40.26.551,IAT(Formal),2021.2.3,Win32,59.73002031,,,,,,,,,,,,,,,e,1,0.55202,,,,,,我的,e,,,0,29,29,1,1,,,,,,,,,,,,,,,,,,,,,,,,,,,,,,,,,,
,,,,,,,,,,,,,,1,001,2024-08-26_22h40.26.551,IAT(Formal),2021.2.3,Win32,59.73002031,,,,,,,,,,,,,,,e,1,0.64965,,,,,,诚实,e,,,0,30,30,15,1,,,,,,,,,,,,,,,,,,,,,,,,,,,,,,,,,,
,,,,,,,,,,,,,,1,001,2024-08-26_22h40.26.551,IAT(Formal),2021.2.3,Win32,59.73002031,,,,,,,,,,,,,,,i,1,0.71695,,,,,,他们,i,,,0,31,31,66,1,,,,,,,,,,,,,,,,,,,,,,,,,,,,,,,,,,
,,,,,,,,,,,,,,1,001,2024-08-26_22h40.26.551,IAT(Formal),2021.2.3,Win32,59.73002031,,,,,,,,,,,,,,,i,1,0.560605,,,,,,他的,i,,,0,32,32,67,1,,,,,,,,,,,,,,,,,,,,,,,,,,,,,,,,,,
,,,,,,,,,,,,,,1,001,2024-08-26_22h40.26.551,IAT(Formal),2021.2.3,Win32,59.73002031,,,,,,,,,,,,,,,i,0,0.78381,,,,,,无私,e,,,0,33,33,22,1,,,,,,,,,,,,,,,,,,,,,,,,,,,,,,,,,,
,,,,,,,,,,,,,,1,001,2024-08-26_22h40.26.551,IAT(Formal),2021.2.3,Win32,59.73002031,,,,,,,,,,,,,,,e,1,0.575895,,,,,,我的,e,,,0,34,34,51,1,,,,,,,,,,,,,,,,,,,,,,,,,,,,,,,,,,
,,,,,,,,,,,,,,1,001,2024-08-26_22h40.26.551,IAT(Formal),2021.2.3,Win32,59.73002031,,,,,,,,,,,,,,,i,1,0.58984,,,,,,其他,i,,,0,35,35,79,1,,,,,,,,,,,,,,,,,,,,,,,,,,,,,,,,,,
,,,,,,,,,,,,,,1,001,2024-08-26_22h40.26.551,IAT(Formal),2021.2.3,Win32,59.73002031,,,,,,,,,,,,,,,e,1,1.33097,,,,,,我们,e,,,0,36,36,52,1,,,,,,,,,,,,,,,,,,,,,,,,,,,,,,,,,,
,,,,,,,,,,,,,,1,001,2024-08-26_22h40.26.551,IAT(Formal),2021.2.3,Win32,59.73002031,,,,,,,,,,,,,,,i,1,1.15239,,,,,,他,i,,,0,37,37,65,1,,,,,,,,,,,,,,,,,,,,,,,,,,,,,,,,,,
,,,,,,,,,,,,,,1,001,2024-08-26_22h40.26.551,IAT(Formal),2021.2.3,Win32,59.73002031,,,,,,,,,,,,,,,i,1,0.708755,,,,,,鲁莽,i,,,0,38,38,38,1,,,,,,,,,,,,,,,,,,,,,,,,,,,,,,,,,,
,,,,,,,,,,,,,,1,001,2024-08-26_22h40.26.551,IAT(Formal),2021.2.3,Win32,59.73002031,,,,,,,,,,,,,,,e,0,0.59998,,,,,,自私,i,,,0,39,39,43,1,,,,,,,,,,,,,,,,,,,,,,,,,,,,,,,,,,
,,,,,,,,,,,,,,1,001,2024-08-26_22h40.26.551,IAT(Formal),2021.2.3,Win32,59.73002031,,,,,,,,,,,,,,,i,1,0.604625,,,,,,他们,i,,,0,40,40,76,1,,,,,,,,,,,,,,,,,,,,,,,,,,,,,,,,,,
,,,,,,,,,,,,,,1,001,2024-08-26_22h40.26.551,IAT(Formal),2021.2.3,Win32,59.73002031,,,,,,,,,,,,,,,i,1,0.72344,,,,,,卑鄙,i,,,0,41,41,30,1,,,,,,,,,,,,,,,,,,,,,,,,,,,,,,,,,,
,,,,,,,,,,,,,,1,001,2024-08-26_22h40.26.551,IAT(Formal),2021.2.3,Win32,59.73002031,,,,,,,,,,,,,,,i,1,0.69877,,,,,,凶狠,i,,,0,42,42,42,1,,,,,,,,,,,,,,,,,,,,,,,,,,,,,,,,,,
,,,,,,,,,,,,,,1,001,2024-08-26_22h40.26.551,IAT(Formal),2021.2.3,Win32,59.73002031,,,,,,,,,,,,,,,e,1,1.12237,,,,,,细腻,e,,,0,43,43,25,1,,,,,,,,,,,,,,,,,,,,,,,,,,,,,,,,,,
,,,,,,,,,,,,,,1,001,2024-08-26_22h40.26.551,IAT(Formal),2021.2.3,Win32,59.73002031,,,,,,,,,,,,,,,e,1,0.693745,,,,,,优秀,e,,,0,44,44,10,1,,,,,,,,,,,,,,,,,,,,,,,,,,,,,,,,,,
,,,,,,,,,,,,,,1,001,2024-08-26_22h40.26.551,IAT(Formal),2021.2.3,Win32,59.73002031,,,,,,,,,,,,,,,i,1,0.535535,,,,,,刻薄,i,,,0,45,45,33,1,,,,,,,,,,,,,,,,,,,,,,,,,,,,,,,,,,
,,,,,,,,,,,,,,1,001,2024-08-26_22h40.26.551,IAT(Formal),2021.2.3,Win32,59.73002031,,,,,,,,,,,,,,,i,1,0.686305,,,,,,消极,i,,,0,46,46,35,1,,,,,,,,,,,,,,,,,,,,,,,,,,,,,,,,,,
,,,,,,,,,,,,,,1,001,2024-08-26_22h40.26.551,IAT(Formal),2021.2.3,Win32,59.73002031,,,,,,,,,,,,,,,i,1,0.617665,,,,,,他人,i,,,0,47,47,78,1,,,,,,,,,,,,,,,,,,,,,,,,,,,,,,,,,,
,,,,,,,,,,,,,,1,001,2024-08-26_22h40.26.551,IAT(Formal),2021.2.3,Win32,59.73002031,,,,,,,,,,,,,,,e,1,0.62022,,,,,,俺,e,,,0,48,48,64,1,,,,,,,,,,,,,,,,,,,,,,,,,,,,,,,,,,
,,,,,,,,,,,,,,1,001,2024-08-26_22h40.26.551,IAT(Formal),2021.2.3,Win32,59.73002031,,,,,,,,,,,,,,,i,1,0.656475,,,,,,他,i,,,0,49,49,55,1,,,,,,,,,,,,,,,,,,,,,,,,,,,,,,,,,,
,,,,,,,,,,,,,,1,001,2024-08-26_22h40.26.551,IAT(Formal),2021.2.3,Win32,59.73002031,,,,,,,,,,,,,,,i,1,0.42583,,,,,,他的,i,,,0,50,50,7,1,,,,,,,,,,,,,,,,,,,,,,,,,,,,,,,,,,
,,,,,,,,,,,,,,1,001,2024-08-26_22h40.26.551,IAT(Formal),2021.2.3,Win32,59.73002031,,,,,,,,,,,,,,,e,0,0.53621,,,,,,暴躁,i,,,0,51,51,44,1,,,,,,,,,,,,,,,,,,,,,,,,,,,,,,,,,,
,,,,,,,,,,,,,,1,001,2024-08-26_22h40.26.551,IAT(Formal),2021.2.3,Win32,59.73002031,,,,,,,,,,,,,,,e,1,0.637835,,,,,,勇敢,e,,,0,52,52,17,1,,,,,,,,,,,,,,,,,,,,,,,,,,,,,,,,,,
,,,,,,,,,,,,,,1,001,2024-08-26_22h40.26.551,IAT(Formal),2021.2.3,Win32,59.73002031,,,,,,,,,,,,,,,i,0,0.580415,,,,,,我们,e,,,0,53,53,72,1,,,,,,,,,,,,,,,,,,,,,,,,,,,,,,,,,,
,,,,,,,,,,,,,,1,001,2024-08-26_22h40.26.551,IAT(Formal),2021.2.3,Win32,59.73002031,,,,,,,,,,,,,,,e,1,0.600505,,,,,,俺,e,,,0,54,54,74,1,,,,,,,,,,,,,,,,,,,,,,,,,,,,,,,,,,
,,,,,,,,,,,,,,1,001,2024-08-26_22h40.26.551,IAT(Formal),2021.2.3,Win32,59.73002031,,,,,,,,,,,,,,,i,1,0.58283,,,,,,他人,i,,,0,55,55,58,1,,,,,,,,,,,,,,,,,,,,,,,,,,,,,,,,,,
,,,,,,,,,,,,,,1,001,2024-08-26_22h40.26.551,IAT(Formal),2021.2.3,Win32,59.73002031,,,,,,,,,,,,,,,i,1,0.670545,,,,,,散漫,i,,,0,56,56,41,1,,,,,,,,,,,,,,,,,,,,,,,,,,,,,,,,,,
,,,,,,,,,,,,,,1,001,2024-08-26_22h40.26.551,IAT(Formal),2021.2.3,Win32,59.73002031,,,,,,,,,,,,,,,e,1,0.532225,,,,,,俺,e,,,0,57,57,4,1,,,,,,,,,,,,,,,,,,,,,,,,,,,,,,,,,,
,,,,,,,,,,,,,,1,001,2024-08-26_22h40.26.551,IAT(Formal),2021.2.3,Win32,59.73002031,,,,,,,,,,,,,,,i,1,0.56203,,,,,,猖狂,i,,,0,58,58,45,1,,,,,,,,,,,,,,,,,,,,,,,,,,,,,,,,,,
,,,,,,,,,,,,,,1,001,2024-08-26_22h40.26.551,IAT(Formal),2021.2.3,Win32,59.73002031,,,,,,,,,,,,,,,i,1,0.59093,,,,,,执拗,i,,,0,59,59,40,1,,,,,,,,,,,,,,,,,,,,,,,,,,,,,,,,,,
,,,,,,,,,,,,,,1,001,2024-08-26_22h40.26.551,IAT(Formal),2021.2.3,Win32,59.73002031,,,,,,,,,,,,,,,i,1,0.631085,,,,,,他人,i,,,0,60,60,8,1,,,,,,,,,,,,,,,,,,,,,,,,,,,,,,,,,,
,,,,,,,,,,,,,,1,001,2024-08-26_22h40.26.551,IAT(Formal),2021.2.3,Win32,59.73002031,,,,,,,,,,,,,,,i,1,0.44378,,,,,,他,i,,,0,61,61,75,1,,,,,,,,,,,,,,,,,,,,,,,,,,,,,,,,,,
,,,,,,,,,,,,,,1,001,2024-08-26_22h40.26.551,IAT(Formal),2021.2.3,Win32,59.73002031,,,,,,,,,,,,,,,e,1,0.79055,,,,,,杰出,e,,,0,62,62,13,1,,,,,,,,,,,,,,,,,,,,,,,,,,,,,,,,,,
,,,,,,,,,,,,,,1,001,2024-08-26_22h40.26.551,IAT(Formal),2021.2.3,Win32,59.73002031,,,,,,,,,,,,,,,e,1,0.521485,,,,,,活泼,e,,,0,63,63,28,1,,,,,,,,,,,,,,,,,,,,,,,,,,,,,,,,,,
,,,,,,,,,,,,,,1,001,2024-08-26_22h40.26.551,IAT(Formal),2021.2.3,Win32,59.73002031,,,,,,,,,,,,,,,e,1,0.346885,,,,,,我,e,,,0,64,64,60,1,,,,,,,,,,,,,,,,,,,,,,,,,,,,,,,,,,
,,,,,,,,,,,,,,1,001,2024-08-26_22h40.26.551,IAT(Formal),2021.2.3,Win32,59.73002031,,,,,,,,,,,,,,,e,1,0.374495,,,,,,自己,e,,,0,65,65,73,1,,,,,,,,,,,,,,,,,,,,,,,,,,,,,,,,,,
,,,,,,,,,,,,,,1,001,2024-08-26_22h40.26.551,IAT(Formal),2021.2.3,Win32,59.73002031,,,,,,,,,,,,,,,i,1,0.983315,,,,,,轻率,i,,,0,66,66,48,1,,,,,,,,,,,,,,,,,,,,,,,,,,,,,,,,,,
,,,,,,,,,,,,,,1,001,2024-08-26_22h40.26.551,IAT(Formal),2021.2.3,Win32,59.73002031,,,,,,,,,,,,,,,e,1,0.527355,,,,,,我,e,,,0,67,67,0,1,,,,,,,,,,,,,,,,,,,,,,,,,,,,,,,,,,
,,,,,,,,,,,,,,1,001,2024-08-26_22h40.26.551,IAT(Formal),2021.2.3,Win32,59.73002031,,,,,,,,,,,,,,,i,0,0.49933,,,,,,朴实,e,,,0,68,68,24,1,,,,,,,,,,,,,,,,,,,,,,,,,,,,,,,,,,
,,,,,,,,,,,,,,1,001,2024-08-26_22h40.26.551,IAT(Formal),2021.2.3,Win32,59.73002031,,,,,,,,,,,,,,,e,1,0.4937,,,,,,我们,e,,,0,69,69,62,1,,,,,,,,,,,,,,,,,,,,,,,,,,,,,,,,,,
,,,,,,,,,,,,,,1,001,2024-08-26_22h40.26.551,IAT(Formal),2021.2.3,Win32,59.73002031,,,,,,,,,,,,,,,e,1,0.378935,,,,,,我,e,,,0,70,70,70,1,,,,,,,,,,,,,,,,,,,,,,,,,,,,,,,,,,
,,,,,,,,,,,,,,1,001,2024-08-26_22h40.26.551,IAT(Formal),2021.2.3,Win32,59.73002031,,,,,,,,,,,,,,,e,1,0.588315,,,,,,乐观,e,,,0,71,71,14,1,,,,,,,,,,,,,,,,,,,,,,,,,,,,,,,,,,
,,,,,,,,,,,,,,1,001,2024-08-26_22h40.26.551,IAT(Formal),2021.2.3,Win32,59.73002031,,,,,,,,,,,,,,,e,1,0.43979,,,,,,自己,e,,,0,72,72,3,1,,,,,,,,,,,,,,,,,,,,,,,,,,,,,,,,,,
,,,,,,,,,,,,,,1,001,2024-08-26_22h40.26.551,IAT(Formal),2021.2.3,Win32,59.73002031,,,,,,,,,,,,,,,e,0,0.307475,,,,,,冒失,i,,,0,73,73,39,1,,,,,,,,,,,,,,,,,,,,,,,,,,,,,,,,,,
,,,,,,,,,,,,,,1,001,2024-08-26_22h40.26.551,IAT(Formal),2021.2.3,Win32,59.73002031,,,,,,,,,,,,,,,e,1,0.434265,,,,,,自己,e,,,0,74,74,63,1,,,,,,,,,,,,,,,,,,,,,,,,,,,,,,,,,,
,,,,,,,,,,,,,,1,001,2024-08-26_22h40.26.551,IAT(Formal),2021.2.3,Win32,59.73002031,,,,,,,,,,,,,,,e,1,0.451585,,,,,,正直,e,,,0,75,75,16,1,,,,,,,,,,,,,,,,,,,,,,,,,,,,,,,,,,
,,,,,,,,,,,,,,1,001,2024-08-26_22h40.26.551,IAT(Formal),2021.2.3,Win32,59.73002031,,,,,,,,,,,,,,,e,1,0.43826,,,,,,公正,e,,,0,76,76,23,1,,,,,,,,,,,,,,,,,,,,,,,,,,,,,,,,,,
,,,,,,,,,,,,,,1,001,2024-08-26_22h40.26.551,IAT(Formal),2021.2.3,Win32,59.73002031,,,,,,,,,,,,,,,e,1,0.386495,,,,,,自己,e,,,0,77,77,53,1,,,,,,,,,,,,,,,,,,,,,,,,,,,,,,,,,,
,,,,,,,,,,,,,,1,001,2024-08-26_22h40.26.551,IAT(Formal),2021.2.3,Win32,59.73002031,,,,,,,,,,,,,,,e,1,0.551125,,,,,,俺,e,,,0,78,78,54,1,,,,,,,,,,,,,,,,,,,,,,,,,,,,,,,,,,
,,,,,,,,,,,,,,1,001,2024-08-26_22h40.26.551,IAT(Formal),2021.2.3,Win32,59.73002031,,,,,,,,,,,,,,,e,1,0.435625,,,,,,我,e,,,0,79,79,50,1,,,,,,,,,,,,,,,,,,,,,,,,,,,,,,,,,,
,,,,,,,,,,,,,,1,001,2024-08-26_22h40.26.551,IAT(Formal),2021.2.3,Win32,59.73002031,,,,,,,,,,,,,,,i,1,0.601915,,,,,,悲观,i,,,1,0,80,34,1,,,,,,,,,,,,,,,,,,,,,,,,,,,,,,,,,,
,,,,,,,,,,,,,,1,001,2024-08-26_22h40.26.551,IAT(Formal),2021.2.3,Win32,59.73002031,,,,,,,,,,,,,,,i,1,0.61733,,,,,,他们,i,,,1,1,81,76,1,,,,,,,,,,,,,,,,,,,,,,,,,,,,,,,,,,
,,,,,,,,,,,,,,1,001,2024-08-26_22h40.26.551,IAT(Formal),2021.2.3,Win32,59.73002031,,,,,,,,,,,,,,,i,1,0.564385,,,,,,其他,i,,,1,2,82,59,1,,,,,,,,,,,,,,,,,,,,,,,,,,,,,,,,,,
,,,,,,,,,,,,,,1,001,2024-08-26_22h40.26.551,IAT(Formal),2021.2.3,Win32,59.73002031,,,,,,,,,,,,,,,i,1,0.494015,,,,,,他人,i,,,1,3,83,8,1,,,,,,,,,,,,,,,,,,,,,,,,,,,,,,,,,,
,,,,,,,,,,,,,,1,001,2024-08-26_22h40.26.551,IAT(Formal),2021.2.3,Win32,59.73002031,,,,,,,,,,,,,,,i,1,0.64606,,,,,,散漫,i,,,1,4,84,41,1,,,,,,,,,,,,,,,,,,,,,,,,,,,,,,,,,,
,,,,,,,,,,,,,,1,001,2024-08-26_22h40.26.551,IAT(Formal),2021.2.3,Win32,59.73002031,,,,,,,,,,,,,,,i,1,0.585305,,,,,,轻率,i,,,1,5,85,48,1,,,,,,,,,,,,,,,,,,,,,,,,,,,,,,,,,,
,,,,,,,,,,,,,,1,001,2024-08-26_22h40.26.551,IAT(Formal),2021.2.3,Win32,59.73002031,,,,,,,,,,,,,,,e,1,0.608475,,,,,,我们,e,,,1,6,86,52,1,,,,,,,,,,,,,,,,,,,,,,,,,,,,,,,,,,
,,,,,,,,,,,,,,1,001,2024-08-26_22h40.26.551,IAT(Formal),2021.2.3,Win32,59.73002031,,,,,,,,,,,,,,,i,1,0.5332,,,,,,他的,i,,,1,7,87,77,1,,,,,,,,,,,,,,,,,,,,,,,,,,,,,,,,,,
,,,,,,,,,,,,,,1,001,2024-08-26_22h40.26.551,IAT(Formal),2021.2.3,Win32,59.73002031,,,,,,,,,,,,,,,e,1,0.878345,,,,,,冷静,e,,,1,8,88,26,1,,,,,,,,,,,,,,,,,,,,,,,,,,,,,,,,,,
,,,,,,,,,,,,,,1,001,2024-08-26_22h40.26.551,IAT(Formal),2021.2.3,Win32,59.73002031,,,,,,,,,,,,,,,e,1,0.44032,,,,,,我们,e,,,1,9,89,62,1,,,,,,,,,,,,,,,,,,,,,,,,,,,,,,,,,,
,,,,,,,,,,,,,,1,001,2024-08-26_22h40.26.551,IAT(Formal),2021.2.3,Win32,59.73002031,,,,,,,,,,,,,,,i,1,0.55937,,,,,,他的,i,,,1,10,90,57,1,,,,,,,,,,,,,,,,,,,,,,,,,,,,,,,,,,
,,,,,,,,,,,,,,1,001,2024-08-26_22h40.26.551,IAT(Formal),2021.2.3,Win32,59.73002031,,,,,,,,,,,,,,,e,1,0.812285,,,,,,稳重,e,,,1,11,91,21,1,,,,,,,,,,,,,,,,,,,,,,,,,,,,,,,,,,
,,,,,,,,,,,,,,1,001,2024-08-26_22h40.26.551,IAT(Formal),2021.2.3,Win32,59.73002031,,,,,,,,,,,,,,,e,1,0.634955,,,,,,俺,e,,,1,12,92,4,1,,,,,,,,,,,,,,,,,,,,,,,,,,,,,,,,,,
,,,,,,,,,,,,,,1,001,2024-08-26_22h40.26.551,IAT(Formal),2021.2.3,Win32,59.73002031,,,,,,,,,,,,,,,e,1,0.55025,,,,,,正直,e,,,1,13,93,16,1,,,,,,,,,,,,,,,,,,,,,,,,,,,,,,,,,,
,,,,,,,,,,,,,,1,001,2024-08-26_22h40.26.551,IAT(Formal),2021.2.3,Win32,59.73002031,,,,,,,,,,,,,,,e,0,0.53618,,,,,,固执,i,,,1,14,94,47,1,,,,,,,,,,,,,,,,,,,,,,,,,,,,,,,,,,
,,,,,,,,,,,,,,1,001,2024-08-26_22h40.26.551,IAT(Formal),2021.2.3,Win32,59.73002031,,,,,,,,,,,,,,,e,1,0.532915,,,,,,自己,e,,,1,15,95,63,1,,,,,,,,,,,,,,,,,,,,,,,,,,,,,,,,,,
,,,,,,,,,,,,,,1,001,2024-08-26_22h40.26.551,IAT(Formal),2021.2.3,Win32,59.73002031,,,,,,,,,,,,,,,i,1,0.53494,,,,,,鲁莽,i,,,1,16,96,38,1,,,,,,,,,,,,,,,,,,,,,,,,,,,,,,,,,,
,,,,,,,,,,,,,,1,001,2024-08-26_22h40.26.551,IAT(Formal),2021.2.3,Win32,59.73002031,,,,,,,,,,,,,,,e,1,0.97095,,,,,,自己,e,,,1,17,97,3,1,,,,,,,,,,,,,,,,,,,,,,,,,,,,,,,,,,
,,,,,,,,,,,,,,1,001,2024-08-26_22h40.26.551,IAT(Formal),2021.2.3,Win32,59.73002031,,,,,,,,,,,,,,,i,1,0.578925,,,,,,下贱,i,,,1,18,98,49,1,,,,,,,,,,,,,,,,,,,,,,,,,,,,,,,,,,
,,,,,,,,,,,,,,1,001,2024-08-26_22h40.26.551,IAT(Formal),2021.2.3,Win32,59.73002031,,,,,,,,,,,,,,,e,1,0.66325,,,,,,我的,e,,,1,19,99,51,1,,,,,,,,,,,,,,,,,,,,,,,,,,,,,,,,,,
,,,,,,,,,,,,,,1,001,2024-08-26_22h40.26.551,IAT(Formal),2021.2.3,Win32,59.73002031,,,,,,,,,,,,,,,e,1,0.46881,,,,,,自己,e,,,1,20,100,73,1,,,,,,,,,,,,,,,,,,,,,,,,,,,,,,,,,,
,,,,,,,,,,,,,,1,001,2024-08-26_22h40.26.551,IAT(Formal),2021.2.3,Win32,59.73002031,,,,,,,,,,,,,,,e,1,0.48687,,,,,,俺,e,,,1,21,101,64,1,,,,,,,,,,,,,,,,,,,,,,,,,,,,,,,,,,
,,,,,,,,,,,,,,1,001,2024-08-26_22h40.26.551,IAT(Formal),2021.2.3,Win32,59.73002031,,,,,,,,,,,,,,,i,1,0.58286,,,,,,冒失,i,,,1,22,102,39,1,,,,,,,,,,,,,,,,,,,,,,,,,,,,,,,,,,
,,,,,,,,,,,,,,1,001,2024-08-26_22h40.26.551,IAT(Formal),2021.2.3,Win32,59.73002031,,,,,,,,,,,,,,,i,1,0.607485,,,,,,暴躁,i,,,1,23,103,44,1,,,,,,,,,,,,,,,,,,,,,,,,,,,,,,,,,,
,,,,,,,,,,,,,,1,001,2024-08-26_22h40.26.551,IAT(Formal),2021.2.3,Win32,59.73002031,,,,,,,,,,,,,,,i,1,0.774775,,,,,,执拗,i,,,1,24,104,40,1,,,,,,,,,,,,,,,,,,,,,,,,,,,,,,,,,,
,,,,,,,,,,,,,,1,001,2024-08-26_22h40.26.551,IAT(Formal),2021.2.3,Win32,59.73002031,,,,,,,,,,,,,,,i,1,0.456965,,,,,,他的,i,,,1,25,105,67,1,,,,,,,,,,,,,,,,,,,,,,,,,,,,,,,,,,
,,,,,,,,,,,,,,1,001,2024-08-26_22h40.26.551,IAT(Formal),2021.2.3,Win32,59.73002031,,,,,,,,,,,,,,,i,0,0.418115,,,,,,诚恳,e,,,1,26,106,29,1,,,,,,,,,,,,,,,,,,,,,,,,,,,,,,,,,,
,,,,,,,,,,,,,,1,001,2024-08-26_22h40.26.551,IAT(Formal),2021.2.3,Win32,59.73002031,,,,,,,,,,,,,,,i,1,0.607745,,,,,,愚蠢,i,,,1,27,107,32,1,,,,,,,,,,,,,,,,,,,,,,,,,,,,,,,,,,
,,,,,,,,,,,,,,1,001,2024-08-26_22h40.26.551,IAT(Formal),2021.2.3,Win32,59.73002031,,,,,,,,,,,,,,,i,1,0.540475,,,,,,卑鄙,i,,,1,28,108,30,1,,,,,,,,,,,,,,,,,,,,,,,,,,,,,,,,,,
,,,,,,,,,,,,,,1,001,2024-08-26_22h40.26.551,IAT(Formal),2021.2.3,Win32,59.73002031,,,,,,,,,,,,,,,e,1,0.63356,,,,,,俺,e,,,1,29,109,54,1,,,,,,,,,,,,,,,,,,,,,,,,,,,,,,,,,,
,,,,,,,,,,,,,,1,001,2024-08-26_22h40.26.551,IAT(Formal),2021.2.3,Win32,59.73002031,,,,,,,,,,,,,,,i,1,0.599265,,,,,,他们,i,,,1,30,110,6,1,,,,,,,,,,,,,,,,,,,,,,,,,,,,,,,,,,
,,,,,,,,,,,,,,1,001,2024-08-26_22h40.26.551,IAT(Formal),2021.2.3,Win32,59.73002031,,,,,,,,,,,,,,,e,1,0.61533,,,,,,我的,e,,,1,31,111,1,1,,,,,,,,,,,,,,,,,,,,,,,,,,,,,,,,,,
,,,,,,,,,,,,,,1,001,2024-08-26_22h40.26.551,IAT(Formal),2021.2.3,Win32,59.73002031,,,,,,,,,,,,,,,e,1,0.67066,,,,,,俺,e,,,1,32,112,74,1,,,,,,,,,,,,,,,,,,,,,,,,,,,,,,,,,,
,,,,,,,,,,,,,,1,001,2024-08-26_22h40.26.551,IAT(Formal),2021.2.3,Win32,59.73002031,,,,,,,,,,,,,,,e,1,0.81345,,,,,,自己,e,,,1,33,113,53,1,,,,,,,,,,,,,,,,,,,,,,,,,,,,,,,,,,
,,,,,,,,,,,,,,1,001,2024-08-26_22h40.26.551,IAT(Formal),2021.2.3,Win32,59.73002031,,,,,,,,,,,,,,,e,1,0.51329,,,,,,我们,e,,,1,34,114,72,1,,,,,,,,,,,,,,,,,,,,,,,,,,,,,,,,,,
,,,,,,,,,,,,,,1,001,2024-08-26_22h40.26.551,IAT(Formal),2021.2.3,Win32,59.73002031,,,,,,,,,,,,,,,i,1,0.57117,,,,,,他人,i,,,1,35,115,68,1,,,,,,,,,,,,,,,,,,,,,,,,,,,,,,,,,,
,,,,,,,,,,,,,,1,001,2024-08-26_22h40.26.551,IAT(Formal),2021.2.3,Win32,59.73002031,,,,,,,,,,,,,,,e,1,0.62291,,,,,,我,e,,,1,36,116,70,1,,,,,,,,,,,,,,,,,,,,,,,,,,,,,,,,,,
,,,,,,,,,,,,,,1,001,2024-08-26_22h40.26.551,IAT(Formal),2021.2.3,Win32,59.73002031,,,,,,,,,,,,,,,e,1,0.4613,,,,,,我,e,,,1,37,117,50,1,,,,,,,,,,,,,,,,,,,,,,,,,,,,,,,,,,
,,,,,,,,,,,,,,1,001,2024-08-26_22h40.26.551,IAT(Formal),2021.2.3,Win32,59.73002031,,,,,,,,,,,,,,,i,1,0.61371,,,,,,他的,i,,,1,38,118,7,1,,,,,,,,,,,,,,,,,,,,,,,,,,,,,,,,,,
,,,,,,,,,,,,,,1,001,2024-08-26_22h40.26.551,IAT(Formal),2021.2.3,Win32,59.73002031,,,,,,,,,,,,,,,e,0,0.729385,,,,,,他,i,,,1,39,119,75,1,,,,,,,,,,,,,,,,,,,,,,,,,,,,,,,,,,
,,,,,,,,,,,,,,1,001,2024-08-26_22h40.26.551,IAT(Formal),2021.2.3,Win32,59.73002031,,,,,,,,,,,,,,,i,1,0.604175,,,,,,虚伪,i,,,1,40,120,31,1,,,,,,,,,,,,,,,,,,,,,,,,,,,,,,,,,,
,,,,,,,,,,,,,,1,001,2024-08-26_22h40.26.551,IAT(Formal),2021.2.3,Win32,59.73002031,,,,,,,,,,,,,,,e,1,0.66616,,,,,,杰出,e,,,1,41,121,13,1,,,,,,,,,,,,,,,,,,,,,,,,,,,,,,,,,,
,,,,,,,,,,,,,,1,001,2024-08-26_22h40.26.551,IAT(Formal),2021.2.3,Win32,59.73002031,,,,,,,,,,,,,,,e,1,0.6497,,,,,,我的,e,,,1,42,122,71,1,,,,,,,,,,,,,,,,,,,,,,,,,,,,,,,,,,
,,,,,,,,,,,,,,1,001,2024-08-26_22h40.26.551,IAT(Formal),2021.2.3,Win32,59.73002031,,,,,,,,,,,,,,,i,1,0.67417,,,,,,猖狂,i,,,1,43,123,45,1,,,,,,,,,,,,,,,,,,,,,,,,,,,,,,,,,,
,,,,,,,,,,,,,,1,001,2024-08-26_22h40.26.551,IAT(Formal),2021.2.3,Win32,59.73002031,,,,,,,,,,,,,,,e,1,0.577565,,,,,,优秀,e,,,1,44,124,10,1,,,,,,,,,,,,,,,,,,,,,,,,,,,,,,,,,,
,,,,,,,,,,,,,,1,001,2024-08-26_22h40.26.551,IAT(Formal),2021.2.3,Win32,59.73002031,,,,,,,,,,,,,,,e,1,0.598785,,,,,,公正,e,,,1,45,125,23,1,,,,,,,,,,,,,,,,,,,,,,,,,,,,,,,,,,
,,,,,,,,,,,,,,1,001,2024-08-26_22h40.26.551,IAT(Formal),2021.2.3,Win32,59.73002031,,,,,,,,,,,,,,,e,0,0.433085,,,,,,他,i,,,1,46,126,5,1,,,,,,,,,,,,,,,,,,,,,,,,,,,,,,,,,,
,,,,,,,,,,,,,,1,001,2024-08-26_22h40.26.551,IAT(Formal),2021.2.3,Win32,59.73002031,,,,,,,,,,,,,,,i,1,0.59765,,,,,,他,i,,,1,47,127,65,1,,,,,,,,,,,,,,,,,,,,,,,,,,,,,,,,,,
,,,,,,,,,,,,,,1,001,2024-08-26_22h40.26.551,IAT(Formal),2021.2.3,Win32,59.73002031,,,,,,,,,,,,,,,i,1,0.652335,,,,,,自卑,i,,,1,48,128,36,1,,,,,,,,,,,,,,,,,,,,,,,,,,,,,,,,,,
,,,,,,,,,,,,,,1,001,2024-08-26_22h40.26.551,IAT(Formal),2021.2.3,Win32,59.73002031,,,,,,,,,,,,,,,e,1,0.741215,,,,,,认真,e,,,1,49,129,20,1,,,,,,,,,,,,,,,,,,,,,,,,,,,,,,,,,,
,,,,,,,,,,,,,,1,001,2024-08-26_22h40.26.551,IAT(Formal),2021.2.3,Win32,59.73002031,,,,,,,,,,,,,,,i,1,0.58646,,,,,,凶狠,i,,,1,50,130,42,1,,,,,,,,,,,,,,,,,,,,,,,,,,,,,,,,,,
,,,,,,,,,,,,,,1,001,2024-08-26_22h40.26.551,IAT(Formal),2021.2.3,Win32,59.73002031,,,,,,,,,,,,,,,e,1,0.80594,,,,,,机智,e,,,1,51,131,19,1,,,,,,,,,,,,,,,,,,,,,,,,,,,,,,,,,,
,,,,,,,,,,,,,,1,001,2024-08-26_22h40.26.551,IAT(Formal),2021.2.3,Win32,59.73002031,,,,,,,,,,,,,,,e,1,0.5395,,,,,,我,e,,,1,52,132,60,1,,,,,,,,,,,,,,,,,,,,,,,,,,,,,,,,,,
,,,,,,,,,,,,,,1,001,2024-08-26_22h40.26.551,IAT(Formal),2021.2.3,Win32,59.73002031,,,,,,,,,,,,,,,i,1,0.84507,,,,,,自私,i,,,1,53,133,43,1,,,,,,,,,,,,,,,,,,,,,,,,,,,,,,,,,,
,,,,,,,,,,,,,,1,001,2024-08-26_22h40.26.551,IAT(Formal),2021.2.3,Win32,59.73002031,,,,,,,,,,,,,,,i,1,0.60536,,,,,,他人,i,,,1,54,134,78,1,,,,,,,,,,,,,,,,,,,,,,,,,,,,,,,,,,
,,,,,,,,,,,,,,1,001,2024-08-26_22h40.26.551,IAT(Formal),2021.2.3,Win32,59.73002031,,,,,,,,,,,,,,,i,1,0.65744,,,,,,傲慢,i,,,1,55,135,37,1,,,,,,,,,,,,,,,,,,,,,,,,,,,,,,,,,,
,,,,,,,,,,,,,,1,001,2024-08-26_22h40.26.551,IAT(Formal),2021.2.3,Win32,59.73002031,,,,,,,,,,,,,,,i,1,0.65315,,,,,,他们,i,,,1,56,136,56,1,,,,,,,,,,,,,,,,,,,,,,,,,,,,,,,,,,
,,,,,,,,,,,,,,1,001,2024-08-26_22h40.26.551,IAT(Formal),2021.2.3,Win32,59.73002031,,,,,,,,,,,,,,,i,0,0.437185,,,,,,乐观,e,,,1,57,137,14,1,,,,,,,,,,,,,,,,,,,,,,,,,,,,,,,,,,
,,,,,,,,,,,,,,1,001,2024-08-26_22h40.26.551,IAT(Formal),2021.2.3,Win32,59.73002031,,,,,,,,,,,,,,,i,1,0.519635,,,,,,其他,i,,,1,58,138,9,1,,,,,,,,,,,,,,,,,,,,,,,,,,,,,,,,,,
,,,,,,,,,,,,,,1,001,2024-08-26_22h40.26.551,IAT(Formal),2021.2.3,Win32,59.73002031,,,,,,,,,,,,,,,e,1,0.495745,,,,,,我的,e,,,1,59,139,61,1,,,,,,,,,,,,,,,,,,,,,,,,,,,,,,,,,,
,,,,,,,,,,,,,,1,001,2024-08-26_22h40.26.551,IAT(Formal),2021.2.3,Win32,59.73002031,,,,,,,,,,,,,,,e,1,0.878025,,,,,,细腻,e,,,1,60,140,25,1,,,,,,,,,,,,,,,,,,,,,,,,,,,,,,,,,,
,,,,,,,,,,,,,,1,001,2024-08-26_22h40.26.551,IAT(Formal),2021.2.3,Win32,59.73002031,,,,,,,,,,,,,,,e,0,0.417785,,,,,,其他,i,,,1,61,141,79,1,,,,,,,,,,,,,,,,,,,,,,,,,,,,,,,,,,
,,,,,,,,,,,,,,1,001,2024-08-26_22h40.26.551,IAT(Formal),2021.2.3,Win32,59.73002031,,,,,,,,,,,,,,,e,1,0.73446,,,,,,勤奋,e,,,1,62,142,18,1,,,,,,,,,,,,,,,,,,,,,,,,,,,,,,,,,,
,,,,,,,,,,,,,,1,001,2024-08-26_22h40.26.551,IAT(Formal),2021.2.3,Win32,59.73002031,,,,,,,,,,,,,,,e,1,0.56918,,,,,,活泼,e,,,1,63,143,28,1,,,,,,,,,,,,,,,,,,,,,,,,,,,,,,,,,,
,,,,,,,,,,,,,,1,001,2024-08-26_22h40.26.551,IAT(Formal),2021.2.3,Win32,59.73002031,,,,,,,,,,,,,,,i,1,0.90929,,,,,,其他,i,,,1,64,144,69,1,,,,,,,,,,,,,,,,,,,,,,,,,,,,,,,,,,
,,,,,,,,,,,,,,1,001,2024-08-26_22h40.26.551,IAT(Formal),2021.2.3,Win32,59.73002031,,,,,,,,,,,,,,,i,1,0.60212,,,,,,他,i,,,1,65,145,55,1,,,,,,,,,,,,,,,,,,,,,,,,,,,,,,,,,,
,,,,,,,,,,,,,,1,001,2024-08-26_22h40.26.551,IAT(Formal),2021.2.3,Win32,59.73002031,,,,,,,,,,,,,,,i,1,0.648665,,,,,,野蛮,i,,,1,66,146,46,1,,,,,,,,,,,,,,,,,,,,,,,,,,,,,,,,,,
,,,,,,,,,,,,,,1,001,2024-08-26_22h40.26.551,IAT(Formal),2021.2.3,Win32,59.73002031,,,,,,,,,,,,,,,e,1,0.767605,,,,,,勇敢,e,,,1,67,147,17,1,,,,,,,,,,,,,,,,,,,,,,,,,,,,,,,,,,
,,,,,,,,,,,,,,1,001,2024-08-26_22h40.26.551,IAT(Formal),2021.2.3,Win32,59.73002031,,,,,,,,,,,,,,,e,1,0.615775,,,,,,崇高,e,,,1,68,148,11,1,,,,,,,,,,,,,,,,,,,,,,,,,,,,,,,,,,
,,,,,,,,,,,,,,1,001,2024-08-26_22h40.26.551,IAT(Formal),2021.2.3,Win32,59.73002031,,,,,,,,,,,,,,,i,1,0.77556,,,,,,消极,i,,,1,69,149,35,1,,,,,,,,,,,,,,,,,,,,,,,,,,,,,,,,,,
,,,,,,,,,,,,,,1,001,2024-08-26_22h40.26.551,IAT(Formal),2021.2.3,Win32,59.73002031,,,,,,,,,,,,,,,e,1,0.86597,,,,,,诚实,e,,,1,70,150,15,1,,,,,,,,,,,,,,,,,,,,,,,,,,,,,,,,,,
,,,,,,,,,,,,,,1,001,2024-08-26_22h40.26.551,IAT(Formal),2021.2.3,Win32,59.73002031,,,,,,,,,,,,,,,e,0,0.600955,,,,,,他们,i,,,1,71,151,66,1,,,,,,,,,,,,,,,,,,,,,,,,,,,,,,,,,,
,,,,,,,,,,,,,,1,001,2024-08-26_22h40.26.551,IAT(Formal),2021.2.3,Win32,59.73002031,,,,,,,,,,,,,,,i,1,0.65754,,,,,,刻薄,i,,,1,72,152,33,1,,,,,,,,,,,,,,,,,,,,,,,,,,,,,,,,,,
,,,,,,,,,,,,,,1,001,2024-08-26_22h40.26.551,IAT(Formal),2021.2.3,Win32,59.73002031,,,,,,,,,,,,,,,i,1,0.512835,,,,,,他人,i,,,1,73,153,58,1,,,,,,,,,,,,,,,,,,,,,,,,,,,,,,,,,,
,,,,,,,,,,,,,,1,001,2024-08-26_22h40.26.551,IAT(Formal),2021.2.3,Win32,59.73002031,,,,,,,,,,,,,,,e,1,0.63938,,,,,,聪明,e,,,1,74,154,12,1,,,,,,,,,,,,,,,,,,,,,,,,,,,,,,,,,,
,,,,,,,,,,,,,,1,001,2024-08-26_22h40.26.551,IAT(Formal),2021.2.3,Win32,59.73002031,,,,,,,,,,,,,,,i,0,0.529855,,,,,,无私,e,,,1,75,155,22,1,,,,,,,,,,,,,,,,,,,,,,,,,,,,,,,,,,
,,,,,,,,,,,,,,1,001,2024-08-26_22h40.26.551,IAT(Formal),2021.2.3,Win32,59.73002031,,,,,,,,,,,,,,,e,1,0.527045,,,,,,我们,e,,,1,76,156,2,1,,,,,,,,,,,,,,,,,,,,,,,,,,,,,,,,,,
,,,,,,,,,,,,,,1,001,2024-08-26_22h40.26.551,IAT(Formal),2021.2.3,Win32,59.73002031,,,,,,,,,,,,,,,e,1,1.215885,,,,,,我,e,,,1,77,157,0,1,,,,,,,,,,,,,,,,,,,,,,,,,,,,,,,,,,
,,,,,,,,,,,,,,1,001,2024-08-26_22h40.26.551,IAT(Formal),2021.2.3,Win32,59.73002031,,,,,,,,,,,,,,,e,1,1.10502,,,,,,热情,e,,,1,78,158,27,1,,,,,,,,,,,,,,,,,,,,,,,,,,,,,,,,,,
,,,,,,,,,,,,,,1,001,2024-08-26_22h40.26.551,IAT(Formal),2021.2.3,Win32,59.73002031,,,,,,,,,,,,,,,e,1,0.768815,,,,,,朴实,e,,,1,79,159,24,1,,,,,,,,,,,,,,,,,,,,,,,,,,,,,,,,,,
,,,,,,,,,,,,他的,e,1,001,2024-08-26_22h40.26.551,IAT(Formal),2021.2.3,Win32,59.73002031,,,,,,,,,,,,,,,,,,,,,,,,,,,,,,,,space,21.010545,e,1,1.345435,0,0,0,7,1,,,,,,,,,,,,,,,,,,,,,,,,
,,,,,,,,,,,,我的,i,1,001,2024-08-26_22h40.26.551,IAT(Formal),2021.2.3,Win32,59.73002031,,,,,,,,,,,,,,,,,,,,,,,,,,,,,,,,,,i,1,1.24942,0,1,1,1,1,,,,,,,,,,,,,,,,,,,,,,,,
,,,,,,,,,,,,他人,e,1,001,2024-08-26_22h40.26.551,IAT(Formal),2021.2.3,Win32,59.73002031,,,,,,,,,,,,,,,,,,,,,,,,,,,,,,,,,,e,1,0.700475,0,2,2,8,1,,,,,,,,,,,,,,,,,,,,,,,,
,,,,,,,,,,,,我,i,1,001,2024-08-26_22h40.26.551,IAT(Formal),2021.2.3,Win32,59.73002031,,,,,,,,,,,,,,,,,,,,,,,,,,,,,,,,,,e,0,0.56599,0,3,3,0,1,,,,,,,,,,,,,,,,,,,,,,,,
,,,,,,,,,,,,他,e,1,001,2024-08-26_22h40.26.551,IAT(Formal),2021.2.3,Win32,59.73002031,,,,,,,,,,,,,,,,,,,,,,,,,,,,,,,,,,e,1,0.76065,0,4,4,5,1,,,,,,,,,,,,,,,,,,,,,,,,
,,,,,,,,,,,,其他,e,1,001,2024-08-26_22h40.26.551,IAT(Formal),2021.2.3,Win32,59.73002031,,,,,,,,,,,,,,,,,,,,,,,,,,,,,,,,,,e,1,0.34318,0,5,5,9,1,,,,,,,,,,,,,,,,,,,,,,,,
,,,,,,,,,,,,他们,e,1,001,2024-08-26_22h40.26.551,IAT(Formal),2021.2.3,Win32,59.73002031,,,,,,,,,,,,,,,,,,,,,,,,,,,,,,,,,,e,1,0.327135,0,6,6,6,1,,,,,,,,,,,,,,,,,,,,,,,,
,,,,,,,,,,,,自己,i,1,001,2024-08-26_22h40.26.551,IAT(Formal),2021.2.3,Win32,59.73002031,,,,,,,,,,,,,,,,,,,,,,,,,,,,,,,,,,e,0,0.349555,0,7,7,3,1,,,,,,,,,,,,,,,,,,,,,,,,
,,,,,,,,,,,,我们,i,1,001,2024-08-26_22h40.26.551,IAT(Formal),2021.2.3,Win32,59.73002031,,,,,,,,,,,,,,,,,,,,,,,,,,,,,,,,,,i,1,0.428605,0,8,8,2,1,,,,,,,,,,,,,,,,,,,,,,,,
,,,,,,,,,,,,俺,i,1,001,2024-08-26_22h40.26.551,IAT(Formal),2021.2.3,Win32,59.73002031,,,,,,,,,,,,,,,,,,,,,,,,,,,,,,,,,,i,1,0.34174,0,9,9,4,1,,,,,,,,,,,,,,,,,,,,,,,,
,,,,,,,,,,,,,,1,001,2024-08-26_22h40.26.551,IAT(Formal),2021.2.3,Win32,59.73002031,,,,,,,,,,,,,,,,,,,,,,,,,,,,,,,,,,,,,,,,,,space,1.28771,e,0,0.427435,0,0,0,48,1,轻率,i,,,,,,,,,,,,
,,,,,,,,,,,,,,1,001,2024-08-26_22h40.26.551,IAT(Formal),2021.2.3,Win32,59.73002031,,,,,,,,,,,,,,,,,,,,,,,,,,,,,,,,,,,,,,,,,,,,i,1,0.81717,0,1,1,74,1,俺,i,,,,,,,,,,,,
,,,,,,,,,,,,,,1,001,2024-08-26_22h40.26.551,IAT(Formal),2021.2.3,Win32,59.73002031,,,,,,,,,,,,,,,,,,,,,,,,,,,,,,,,,,,,,,,,,,,,i,1,0.329575,0,2,2,60,1,我,i,,,,,,,,,,,,
,,,,,,,,,,,,,,1,001,2024-08-26_22h40.26.551,IAT(Formal),2021.2.3,Win32,59.73002031,,,,,,,,,,,,,,,,,,,,,,,,,,,,,,,,,,,,,,,,,,,,i,0,0.421355,0,3,3,58,1,他人,e,,,,,,,,,,,,
,,,,,,,,,,,,,,1,001,2024-08-26_22h40.26.551,IAT(Formal),2021.2.3,Win32,59.73002031,,,,,,,,,,,,,,,,,,,,,,,,,,,,,,,,,,,,,,,,,,,,e,0,0.310895,0,4,4,38,1,鲁莽,i,,,,,,,,,,,,
,,,,,,,,,,,,,,1,001,2024-08-26_22h40.26.551,IAT(Formal),2021.2.3,Win32,59.73002031,,,,,,,,,,,,,,,,,,,,,,,,,,,,,,,,,,,,,,,,,,,,i,0,0.31825,0,5,5,8,1,他人,e,,,,,,,,,,,,
,,,,,,,,,,,,,,1,001,2024-08-26_22h40.26.551,IAT(Formal),2021.2.3,Win32,59.73002031,,,,,,,,,,,,,,,,,,,,,,,,,,,,,,,,,,,,,,,,,,,,i,0,0.30055,0,6,6,17,1,勇敢,e,,,,,,,,,,,,
,,,,,,,,,,,,,,1,001,2024-08-26_22h40.26.551,IAT(Formal),2021.2.3,Win32,59.73002031,,,,,,,,,,,,,,,,,,,,,,,,,,,,,,,,,,,,,,,,,,,,e,1,0.31006,0,7,7,75,1,他,e,,,,,,,,,,,,
,,,,,,,,,,,,,,1,001,2024-08-26_22h40.26.551,IAT(Formal),2021.2.3,Win32,59.73002031,,,,,,,,,,,,,,,,,,,,,,,,,,,,,,,,,,,,,,,,,,,,i,1,0.29916,0,8,8,39,1,冒失,i,,,,,,,,,,,,
,,,,,,,,,,,,,,1,001,2024-08-26_22h40.26.551,IAT(Formal),2021.2.3,Win32,59.73002031,,,,,,,,,,,,,,,,,,,,,,,,,,,,,,,,,,,,,,,,,,,,e,0,0.32545,0,9,9,70,1,我,i,,,,,,,,,,,,
,,,,,,,,,,,,,,1,001,2024-08-26_22h40.26.551,IAT(Formal),2021.2.3,Win32,59.73002031,,,,,,,,,,,,,,,,,,,,,,,,,,,,,,,,,,,,,,,,,,,,i,1,0.01021,0,10,10,46,1,野蛮,i,,,,,,,,,,,,
,,,,,,,,,,,,,,1,001,2024-08-26_22h40.26.551,IAT(Formal),2021.2.3,Win32,59.73002031,,,,,,,,,,,,,,,,,,,,,,,,,,,,,,,,,,,,,,,,,,,,i,0,0.250495,0,11,11,7,1,他的,e,,,,,,,,,,,,
,,,,,,,,,,,,,,1,001,2024-08-26_22h40.26.551,IAT(Formal),2021.2.3,Win32,59.73002031,,,,,,,,,,,,,,,,,,,,,,,,,,,,,,,,,,,,,,,,,,,,e,0,0.21619,0,12,12,31,1,虚伪,i,,,,,,,,,,,,
,,,,,,,,,,,,,,1,001,2024-08-26_22h40.26.551,IAT(Formal),2021.2.3,Win32,59.73002031,,,,,,,,,,,,,,,,,,,,,,,,,,,,,,,,,,,,,,,,,,,,e,1,0.138795,0,13,13,78,1,他人,e,,,,,,,,,,,,
,,,,,,,,,,,,,,1,001,2024-08-26_22h40.26.551,IAT(Formal),2021.2.3,Win32,59.73002031,,,,,,,,,,,,,,,,,,,,,,,,,,,,,,,,,,,,,,,,,,,,e,1,0.18663,0,14,14,19,1,机智,e,,,,,,,,,,,,
,,,,,,,,,,,,,,1,001,2024-08-26_22h40.26.551,IAT(Formal),2021.2.3,Win32,59.73002031,,,,,,,,,,,,,,,,,,,,,,,,,,,,,,,,,,,,,,,,,,,,e,0,0.33286,0,15,15,73,1,自己,i,,,,,,,,,,,,
,,,,,,,,,,,,,,1,001,2024-08-26_22h40.26.551,IAT(Formal),2021.2.3,Win32,59.73002031,,,,,,,,,,,,,,,,,,,,,,,,,,,,,,,,,,,,,,,,,,,,i,1,0.32789,0,16,16,30,1,卑鄙,i,,,,,,,,,,,,
,,,,,,,,,,,,,,1,001,2024-08-26_22h40.26.551,IAT(Formal),2021.2.3,Win32,59.73002031,,,,,,,,,,,,,,,,,,,,,,,,,,,,,,,,,,,,,,,,,,,,i,1,0.279755,0,17,17,1,1,我的,i,,,,,,,,,,,,
,,,,,,,,,,,,,,1,001,2024-08-26_22h40.26.551,IAT(Formal),2021.2.3,Win32,59.73002031,,,,,,,,,,,,,,,,,,,,,,,,,,,,,,,,,,,,,,,,,,,,i,0,0.22124,0,18,18,11,1,崇高,e,,,,,,,,,,,,
,,,,,,,,,,,,,,1,001,2024-08-26_22h40.26.551,IAT(Formal),2021.2.3,Win32,59.73002031,,,,,,,,,,,,,,,,,,,,,,,,,,,,,,,,,,,,,,,,,,,,e,0,0.079065,0,19,19,51,1,我的,i,,,,,,,,,,,,
,,,,,,,,,,,,,,1,001,2024-08-26_22h40.26.551,IAT(Formal),2021.2.3,Win32,59.73002031,,,,,,,,,,,,,,,,,,,,,,,,,,,,,,,,,,,,,,,,,,,,e,1,0.406955,0,20,20,65,1,他,e,,,,,,,,,,,,
,,,,,,,,,,,,,,1,001,2024-08-26_22h40.26.551,IAT(Formal),2021.2.3,Win32,59.73002031,,,,,,,,,,,,,,,,,,,,,,,,,,,,,,,,,,,,,,,,,,,,e,0,0.073355,0,21,21,63,1,自己,i,,,,,,,,,,,,
,,,,,,,,,,,,,,1,001,2024-08-26_22h40.26.551,IAT(Formal),2021.2.3,Win32,59.73002031,,,,,,,,,,,,,,,,,,,,,,,,,,,,,,,,,,,,,,,,,,,,i,1,0.24721,0,22,22,36,1,自卑,i,,,,,,,,,,,,
,,,,,,,,,,,,,,1,001,2024-08-26_22h40.26.551,IAT(Formal),2021.2.3,Win32,59.73002031,,,,,,,,,,,,,,,,,,,,,,,,,,,,,,,,,,,,,,,,,,,,i,1,0.31453,0,23,23,47,1,固执,i,,,,,,,,,,,,
,,,,,,,,,,,,,,1,001,2024-08-26_22h40.26.551,IAT(Formal),2021.2.3,Win32,59.73002031,,,,,,,,,,,,,,,,,,,,,,,,,,,,,,,,,,,,,,,,,,,,i,1,0.259845,0,24,24,34,1,悲观,i,,,,,,,,,,,,
,,,,,,,,,,,,,,1,001,2024-08-26_22h40.26.551,IAT(Formal),2021.2.3,Win32,59.73002031,,,,,,,,,,,,,,,,,,,,,,,,,,,,,,,,,,,,,,,,,,,,i,0,0.14286,0,25,25,5,1,他,e,,,,,,,,,,,,
,,,,,,,,,,,,,,1,001,2024-08-26_22h40.26.551,IAT(Formal),2021.2.3,Win32,59.73002031,,,,,,,,,,,,,,,,,,,,,,,,,,,,,,,,,,,,,,,,,,,,e,1,0.119115,0,26,26,76,1,他们,e,,,,,,,,,,,,
,,,,,,,,,,,,,,1,001,2024-08-26_22h40.26.551,IAT(Formal),2021.2.3,Win32,59.73002031,,,,,,,,,,,,,,,,,,,,,,,,,,,,,,,,,,,,,,,,,,,,e,1,0.47714,0,27,27,79,1,其他,e,,,,,,,,,,,,
,,,,,,,,,,,,,,1,001,2024-08-26_22h40.26.551,IAT(Formal),2021.2.3,Win32,59.73002031,,,,,,,,,,,,,,,,,,,,,,,,,,,,,,,,,,,,,,,,,,,,e,0,0.27014,0,28,28,54,1,俺,i,,,,,,,,,,,,
,,,,,,,,,,,,,,1,001,2024-08-26_22h40.26.551,IAT(Formal),2021.2.3,Win32,59.73002031,,,,,,,,,,,,,,,,,,,,,,,,,,,,,,,,,,,,,,,,,,,,e,1,0.01144,0,29,29,9,1,其他,e,,,,,,,,,,,,
,,,,,,,,,,,,,,1,001,2024-08-26_22h40.26.551,IAT(Formal),2021.2.3,Win32,59.73002031,,,,,,,,,,,,,,,,,,,,,,,,,,,,,,,,,,,,,,,,,,,,e,0,0.35049,0,30,30,40,1,执拗,i,,,,,,,,,,,,
,,,,,,,,,,,,,,1,001,2024-08-26_22h40.26.551,IAT(Formal),2021.2.3,Win32,59.73002031,,,,,,,,,,,,,,,,,,,,,,,,,,,,,,,,,,,,,,,,,,,,i,1,0.277595,0,31,31,61,1,我的,i,,,,,,,,,,,,
,,,,,,,,,,,,,,1,001,2024-08-26_22h40.26.551,IAT(Formal),2021.2.3,Win32,59.73002031,,,,,,,,,,,,,,,,,,,,,,,,,,,,,,,,,,,,,,,,,,,,i,1,0.316975,0,32,32,62,1,我们,i,,,,,,,,,,,,
,,,,,,,,,,,,,,1,001,2024-08-26_22h40.26.551,IAT(Formal),2021.2.3,Win32,59.73002031,,,,,,,,,,,,,,,,,,,,,,,,,,,,,,,,,,,,,,,,,,,,i,0,0.316415,0,33,33,26,1,冷静,e,,,,,,,,,,,,
,,,,,,,,,,,,,,1,001,2024-08-26_22h40.26.551,IAT(Formal),2021.2.3,Win32,59.73002031,,,,,,,,,,,,,,,,,,,,,,,,,,,,,,,,,,,,,,,,,,,,e,1,0.313995,0,34,34,69,1,其他,e,,,,,,,,,,,,
,,,,,,,,,,,,,,1,001,2024-08-26_22h40.26.551,IAT(Formal),2021.2.3,Win32,59.73002031,,,,,,,,,,,,,,,,,,,,,,,,,,,,,,,,,,,,,,,,,,,,e,0,0.300735,0,35,35,43,1,自私,i,,,,,,,,,,,,
,,,,,,,,,,,,,,1,001,2024-08-26_22h40.26.551,IAT(Formal),2021.2.3,Win32,59.73002031,,,,,,,,,,,,,,,,,,,,,,,,,,,,,,,,,,,,,,,,,,,,i,1,0.746735,0,36,36,49,1,下贱,i,,,,,,,,,,,,
,,,,,,,,,,,,,,1,001,2024-08-26_22h40.26.551,IAT(Formal),2021.2.3,Win32,59.73002031,,,,,,,,,,,,,,,,,,,,,,,,,,,,,,,,,,,,,,,,,,,,i,0,0.23829,0,37,37,77,1,他的,e,,,,,,,,,,,,
,,,,,,,,,,,,,,1,001,2024-08-26_22h40.26.551,IAT(Formal),2021.2.3,Win32,59.73002031,,,,,,,,,,,,,,,,,,,,,,,,,,,,,,,,,,,,,,,,,,,,e,1,0.21563,0,38,38,21,1,稳重,e,,,,,,,,,,,,
,,,,,,,,,,,,,,1,001,2024-08-26_22h40.26.551,IAT(Formal),2021.2.3,Win32,59.73002031,,,,,,,,,,,,,,,,,,,,,,,,,,,,,,,,,,,,,,,,,,,,i,0,0.03811,0,39,39,15,1,诚实,e,,,,,,,,,,,,
,,,,,,,,,,,,,,1,001,2024-08-26_22h40.26.551,IAT(Formal),2021.2.3,Win32,59.73002031,,,,,,,,,,,,,,,,,,,,,,,,,,,,,,,,,,,,,,,,,,,,i,0,1.00684,0,40,40,24,1,朴实,e,,,,,,,,,,,,
,,,,,,,,,,,,,,1,001,2024-08-26_22h40.26.551,IAT(Formal),2021.2.3,Win32,59.73002031,,,,,,,,,,,,,,,,,,,,,,,,,,,,,,,,,,,,,,,,,,,,e,1,0.27573,0,41,41,27,1,热情,e,,,,,,,,,,,,
,,,,,,,,,,,,,,1,001,2024-08-26_22h40.26.551,IAT(Formal),2021.2.3,Win32,59.73002031,,,,,,,,,,,,,,,,,,,,,,,,,,,,,,,,,,,,,,,,,,,,i,1,0.24509,0,42,42,64,1,俺,i,,,,,,,,,,,,
,,,,,,,,,,,,,,1,001,2024-08-26_22h40.26.551,IAT(Formal),2021.2.3,Win32,59.73002031,,,,,,,,,,,,,,,,,,,,,,,,,,,,,,,,,,,,,,,,,,,,e,0,0.09268,0,43,43,41,1,散漫,i,,,,,,,,,,,,
,,,,,,,,,,,,,,1,001,2024-08-26_22h40.26.551,IAT(Formal),2021.2.3,Win32,59.73002031,,,,,,,,,,,,,,,,,,,,,,,,,,,,,,,,,,,,,,,,,,,,i,1,0.346525,0,44,44,45,1,猖狂,i,,,,,,,,,,,,
,,,,,,,,,,,,,,1,001,2024-08-26_22h40.26.551,IAT(Formal),2021.2.3,Win32,59.73002031,,,,,,,,,,,,,,,,,,,,,,,,,,,,,,,,,,,,,,,,,,,,i,0,0.24967,0,45,45,13,1,杰出,e,,,,,,,,,,,,
,,,,,,,,,,,,,,1,001,2024-08-26_22h40.26.551,IAT(Formal),2021.2.3,Win32,59.73002031,,,,,,,,,,,,,,,,,,,,,,,,,,,,,,,,,,,,,,,,,,,,i,1,0.28396,0,46,46,4,1,俺,i,,,,,,,,,,,,
,,,,,,,,,,,,,,1,001,2024-08-26_22h40.26.551,IAT(Formal),2021.2.3,Win32,59.73002031,,,,,,,,,,,,,,,,,,,,,,,,,,,,,,,,,,,,,,,,,,,,e,1,0.498285,0,47,47,18,1,勤奋,e,,,,,,,,,,,,
,,,,,,,,,,,,,,1,001,2024-08-26_22h40.26.551,IAT(Formal),2021.2.3,Win32,59.73002031,,,,,,,,,,,,,,,,,,,,,,,,,,,,,,,,,,,,,,,,,,,,e,0,0.142975,0,48,48,32,1,愚蠢,i,,,,,,,,,,,,
,,,,,,,,,,,,,,1,001,2024-08-26_22h40.26.551,IAT(Formal),2021.2.3,Win32,59.73002031,,,,,,,,,,,,,,,,,,,,,,,,,,,,,,,,,,,,,,,,,,,,i,0,0.17494,0,49,49,6,1,他们,e,,,,,,,,,,,,
,,,,,,,,,,,,,,1,001,2024-08-26_22h40.26.551,IAT(Formal),2021.2.3,Win32,59.73002031,,,,,,,,,,,,,,,,,,,,,,,,,,,,,,,,,,,,,,,,,,,,e,1,0.495285,0,50,50,28,1,活泼,e,,,,,,,,,,,,
,,,,,,,,,,,,,,1,001,2024-08-26_22h40.26.551,IAT(Formal),2021.2.3,Win32,59.73002031,,,,,,,,,,,,,,,,,,,,,,,,,,,,,,,,,,,,,,,,,,,,e,0,0.312925,0,51,51,44,1,暴躁,i,,,,,,,,,,,,
,,,,,,,,,,,,,,1,001,2024-08-26_22h40.26.551,IAT(Formal),2021.2.3,Win32,59.73002031,,,,,,,,,,,,,,,,,,,,,,,,,,,,,,,,,,,,,,,,,,,,i,0,0.302375,0,52,52,16,1,正直,e,,,,,,,,,,,,
,,,,,,,,,,,,,,1,001,2024-08-26_22h40.26.551,IAT(Formal),2021.2.3,Win32,59.73002031,,,,,,,,,,,,,,,,,,,,,,,,,,,,,,,,,,,,,,,,,,,,e,0,0.270595,0,53,53,50,1,我,i,,,,,,,,,,,,
,,,,,,,,,,,,,,1,001,2024-08-26_22h40.26.551,IAT(Formal),2021.2.3,Win32,59.73002031,,,,,,,,,,,,,,,,,,,,,,,,,,,,,,,,,,,,,,,,,,,,e,1,0.925485,0,54,54,23,1,公正,e,,,,,,,,,,,,
,,,,,,,,,,,,,,1,001,2024-08-26_22h40.26.551,IAT(Formal),2021.2.3,Win32,59.73002031,,,,,,,,,,,,,,,,,,,,,,,,,,,,,,,,,,,,,,,,,,,,e,1,0.90687,0,55,55,68,1,他人,e,,,,,,,,,,,,
,,,,,,,,,,,,,,1,001,2024-08-26_22h40.26.551,IAT(Formal),2021.2.3,Win32,59.73002031,,,,,,,,,,,,,,,,,,,,,,,,,,,,,,,,,,,,,,,,,,,,e,1,0.29319,0,56,56,22,1,无私,e,,,,,,,,,,,,
,,,,,,,,,,,,,,1,001,2024-08-26_22h40.26.551,IAT(Formal),2021.2.3,Win32,59.73002031,,,,,,,,,,,,,,,,,,,,,,,,,,,,,,,,,,,,,,,,,,,,i,1,0.317805,0,57,57,52,1,我们,i,,,,,,,,,,,,
,,,,,,,,,,,,,,1,001,2024-08-26_22h40.26.551,IAT(Formal),2021.2.3,Win32,59.73002031,,,,,,,,,,,,,,,,,,,,,,,,,,,,,,,,,,,,,,,,,,,,i,0,0.146245,0,58,58,29,1,诚恳,e,,,,,,,,,,,,
,,,,,,,,,,,,,,1,001,2024-08-26_22h40.26.551,IAT(Formal),2021.2.3,Win32,59.73002031,,,,,,,,,,,,,,,,,,,,,,,,,,,,,,,,,,,,,,,,,,,,i,0,0.366535,0,59,59,20,1,认真,e,,,,,,,,,,,,
,,,,,,,,,,,,,,1,001,2024-08-26_22h40.26.551,IAT(Formal),2021.2.3,Win32,59.73002031,,,,,,,,,,,,,,,,,,,,,,,,,,,,,,,,,,,,,,,,,,,,i,0,0.147085,0,60,60,10,1,优秀,e,,,,,,,,,,,,
,,,,,,,,,,,,,,1,001,2024-08-26_22h40.26.551,IAT(Formal),2021.2.3,Win32,59.73002031,,,,,,,,,,,,,,,,,,,,,,,,,,,,,,,,,,,,,,,,,,,,e,1,0.30322,0,61,61,56,1,他们,e,,,,,,,,,,,,
,,,,,,,,,,,,,,1,001,2024-08-26_22h40.26.551,IAT(Formal),2021.2.3,Win32,59.73002031,,,,,,,,,,,,,,,,,,,,,,,,,,,,,,,,,,,,,,,,,,,,e,1,0.28656,0,62,62,59,1,其他,e,,,,,,,,,,,,
,,,,,,,,,,,,,,1,001,2024-08-26_22h40.26.551,IAT(Formal),2021.2.3,Win32,59.73002031,,,,,,,,,,,,,,,,,,,,,,,,,,,,,,,,,,,,,,,,,,,,e,0,0.316555,0,63,63,2,1,我们,i,,,,,,,,,,,,
,,,,,,,,,,,,,,1,001,2024-08-26_22h40.26.551,IAT(Formal),2021.2.3,Win32,59.73002031,,,,,,,,,,,,,,,,,,,,,,,,,,,,,,,,,,,,,,,,,,,,e,0,0.344505,0,64,64,72,1,我们,i,,,,,,,,,,,,
,,,,,,,,,,,,,,1,001,2024-08-26_22h40.26.551,IAT(Formal),2021.2.3,Win32,59.73002031,,,,,,,,,,,,,,,,,,,,,,,,,,,,,,,,,,,,,,,,,,,,,0,,0,65,65,37,1,傲慢,i,,,,,,,,,,,,
,,,,,,,,,,,,,,1,001,2024-08-26_22h40.26.551,IAT(Formal),2021.2.3,Win32,59.73002031,,,,,,,,,,,,,,,,,,,,,,,,,,,,,,,,,,,,,,,,,,,,e,1,0.96528,0,66,66,12,1,聪明,e,,,,,,,,,,,,
,,,,,,,,,,,,,,1,001,2024-08-26_22h40.26.551,IAT(Formal),2021.2.3,Win32,59.73002031,,,,,,,,,,,,,,,,,,,,,,,,,,,,,,,,,,,,,,,,,,,,,0,,0,67,67,55,1,他,e,,,,,,,,,,,,
,,,,,,,,,,,,,,1,001,2024-08-26_22h40.26.551,IAT(Formal),2021.2.3,Win32,59.73002031,,,,,,,,,,,,,,,,,,,,,,,,,,,,,,,,,,,,,,,,,,,,,0,,0,68,68,66,1,他们,e,,,,,,,,,,,,
,,,,,,,,,,,,,,1,001,2024-08-26_22h40.26.551,IAT(Formal),2021.2.3,Win32,59.73002031,,,,,,,,,,,,,,,,,,,,,,,,,,,,,,,,,,,,,,,,,,,,e,1,1.19278,0,69,69,57,1,他的,e,,,,,,,,,,,,
,,,,,,,,,,,,,,1,001,2024-08-26_22h40.26.551,IAT(Formal),2021.2.3,Win32,59.73002031,,,,,,,,,,,,,,,,,,,,,,,,,,,,,,,,,,,,,,,,,,,,i,1,1.35089,0,70,70,35,1,消极,i,,,,,,,,,,,,
,,,,,,,,,,,,,,1,001,2024-08-26_22h40.26.551,IAT(Formal),2021.2.3,Win32,59.73002031,,,,,,,,,,,,,,,,,,,,,,,,,,,,,,,,,,,,,,,,,,,,e,0,0.27919,0,71,71,53,1,自己,i,,,,,,,,,,,,
,,,,,,,,,,,,,,1,001,2024-08-26_22h40.26.551,IAT(Formal),2021.2.3,Win32,59.73002031,,,,,,,,,,,,,,,,,,,,,,,,,,,,,,,,,,,,,,,,,,,,i,1,0.31822,0,72,72,3,1,自己,i,,,,,,,,,,,,
,,,,,,,,,,,,,,1,001,2024-08-26_22h40.26.551,IAT(Formal),2021.2.3,Win32,59.73002031,,,,,,,,,,,,,,,,,,,,,,,,,,,,,,,,,,,,,,,,,,,,i,1,0.324225,0,73,73,42,1,凶狠,i,,,,,,,,,,,,
,,,,,,,,,,,,,,1,001,2024-08-26_22h40.26.551,IAT(Formal),2021.2.3,Win32,59.73002031,,,,,,,,,,,,,,,,,,,,,,,,,,,,,,,,,,,,,,,,,,,,i,1,0.30788,0,74,74,71,1,我的,i,,,,,,,,,,,,
,,,,,,,,,,,,,,1,001,2024-08-26_22h40.26.551,IAT(Formal),2021.2.3,Win32,59.73002031,,,,,,,,,,,,,,,,,,,,,,,,,,,,,,,,,,,,,,,,,,,,i,1,0.405265,0,75,75,33,1,刻薄,i,,,,,,,,,,,,
,,,,,,,,,,,,,,1,001,2024-08-26_22h40.26.551,IAT(Formal),2021.2.3,Win32,59.73002031,,,,,,,,,,,,,,,,,,,,,,,,,,,,,,,,,,,,,,,,,,,,i,0,0.14794,0,76,76,67,1,他的,e,,,,,,,,,,,,
,,,,,,,,,,,,,,1,001,2024-08-26_22h40.26.551,IAT(Formal),2021.2.3,Win32,59.73002031,,,,,,,,,,,,,,,,,,,,,,,,,,,,,,,,,,,,,,,,,,,,e,1,0.33915,0,77,77,25,1,细腻,e,,,,,,,,,,,,
,,,,,,,,,,,,,,1,001,2024-08-26_22h40.26.551,IAT(Formal),2021.2.3,Win32,59.73002031,,,,,,,,,,,,,,,,,,,,,,,,,,,,,,,,,,,,,,,,,,,,e,1,0.14532,0,78,78,14,1,乐观,e,,,,,,,,,,,,
,,,,,,,,,,,,,,1,001,2024-08-26_22h40.26.551,IAT(Formal),2021.2.3,Win32,59.73002031,,,,,,,,,,,,,,,,,,,,,,,,,,,,,,,,,,,,,,,,,,,,e,0,0.223,0,79,79,0,1,我,i,,,,,,,,,,,,
,,,,,,,,,,,,,,1,001,2024-08-26_22h40.26.551,IAT(Formal),2021.2.3,Win32,59.73002031,,,,,,,,,,,,,,,,,,,,,,,,,,,,,,,,,,,,,,,,,,,,,,,,,,,,他们,e,space,1.218515,i,0,0.349835,0,0,0,6,1,,
,,,,,,,,,,,,,,1,001,2024-08-26_22h40.26.551,IAT(Formal),2021.2.3,Win32,59.73002031,,,,,,,,,,,,,,,,,,,,,,,,,,,,,,,,,,,,,,,,,,,,,,,,,,,,卑鄙,i,,,e,0,0.27312,0,1,1,30,1,,
,,,,,,,,,,,,,,1,001,2024-08-26_22h40.26.551,IAT(Formal),2021.2.3,Win32,59.73002031,,,,,,,,,,,,,,,,,,,,,,,,,,,,,,,,,,,,,,,,,,,,,,,,,,,,朴实,e,,,e,1,0.29742,0,2,2,24,1,,
,,,,,,,,,,,,,,1,001,2024-08-26_22h40.26.551,IAT(Formal),2021.2.3,Win32,59.73002031,,,,,,,,,,,,,,,,,,,,,,,,,,,,,,,,,,,,,,,,,,,,,,,,,,,,稳重,e,,,e,1,0.310355,0,3,3,21,1,,
,,,,,,,,,,,,,,1,001,2024-08-26_22h40.26.551,IAT(Formal),2021.2.3,Win32,59.73002031,,,,,,,,,,,,,,,,,,,,,,,,,,,,,,,,,,,,,,,,,,,,,,,,,,,,他的,e,,,e,1,0.284305,0,4,4,67,1,,
,,,,,,,,,,,,,,1,001,2024-08-26_22h40.26.551,IAT(Formal),2021.2.3,Win32,59.73002031,,,,,,,,,,,,,,,,,,,,,,,,,,,,,,,,,,,,,,,,,,,,,,,,,,,,凶狠,i,,,i,1,0.35877,0,5,5,42,1,,
,,,,,,,,,,,,,,1,001,2024-08-26_22h40.26.551,IAT(Formal),2021.2.3,Win32,59.73002031,,,,,,,,,,,,,,,,,,,,,,,,,,,,,,,,,,,,,,,,,,,,,,,,,,,,他,e,,,i,0,0.38164,0,6,6,55,1,,
,,,,,,,,,,,,,,1,001,2024-08-26_22h40.26.551,IAT(Formal),2021.2.3,Win32,59.73002031,,,,,,,,,,,,,,,,,,,,,,,,,,,,,,,,,,,,,,,,,,,,,,,,,,,,野蛮,i,,,e,0,0.18471,0,7,7,46,1,,
,,,,,,,,,,,,,,1,001,2024-08-26_22h40.26.551,IAT(Formal),2021.2.3,Win32,59.73002031,,,,,,,,,,,,,,,,,,,,,,,,,,,,,,,,,,,,,,,,,,,,,,,,,,,,崇高,e,,,e,1,0.31537,0,8,8,11,1,,
,,,,,,,,,,,,,,1,001,2024-08-26_22h40.26.551,IAT(Formal),2021.2.3,Win32,59.73002031,,,,,,,,,,,,,,,,,,,,,,,,,,,,,,,,,,,,,,,,,,,,,,,,,,,,俺,i,,,i,1,0.374255,0,9,9,54,1,,
,,,,,,,,,,,,,,1,001,2024-08-26_22h40.26.551,IAT(Formal),2021.2.3,Win32,59.73002031,,,,,,,,,,,,,,,,,,,,,,,,,,,,,,,,,,,,,,,,,,,,,,,,,,,,勇敢,e,,,,0,,0,10,10,17,1,,
,,,,,,,,,,,,,,1,001,2024-08-26_22h40.26.551,IAT(Formal),2021.2.3,Win32,59.73002031,,,,,,,,,,,,,,,,,,,,,,,,,,,,,,,,,,,,,,,,,,,,,,,,,,,,我的,i,,,i,1,0.220365,0,11,11,71,1,,
,,,,,,,,,,,,,,1,001,2024-08-26_22h40.26.551,IAT(Formal),2021.2.3,Win32,59.73002031,,,,,,,,,,,,,,,,,,,,,,,,,,,,,,,,,,,,,,,,,,,,,,,,,,,,他的,e,,,e,1,0.2665,0,12,12,77,1,,
,,,,,,,,,,,,,,1,001,2024-08-26_22h40.26.551,IAT(Formal),2021.2.3,Win32,59.73002031,,,,,,,,,,,,,,,,,,,,,,,,,,,,,,,,,,,,,,,,,,,,,,,,,,,,固执,i,,,i,1,0.330735,0,13,13,47,1,,
,,,,,,,,,,,,,,1,001,2024-08-26_22h40.26.551,IAT(Formal),2021.2.3,Win32,59.73002031,,,,,,,,,,,,,,,,,,,,,,,,,,,,,,,,,,,,,,,,,,,,,,,,,,,,我,i,,,e,0,0.136595,0,14,14,0,1,,
,,,,,,,,,,,,,,1,001,2024-08-26_22h40.26.551,IAT(Formal),2021.2.3,Win32,59.73002031,,,,,,,,,,,,,,,,,,,,,,,,,,,,,,,,,,,,,,,,,,,,,,,,,,,,他的,e,,,i,0,0.221895,0,15,15,57,1,,
,,,,,,,,,,,,,,1,001,2024-08-26_22h40.26.551,IAT(Formal),2021.2.3,Win32,59.73002031,,,,,,,,,,,,,,,,,,,,,,,,,,,,,,,,,,,,,,,,,,,,,,,,,,,,我们,i,,,e,0,0.293395,0,16,16,62,1,,
,,,,,,,,,,,,,,1,001,2024-08-26_22h40.26.551,IAT(Formal),2021.2.3,Win32,59.73002031,,,,,,,,,,,,,,,,,,,,,,,,,,,,,,,,,,,,,,,,,,,,,,,,,,,,执拗,i,,,e,0,0.796545,0,17,17,40,1,,
,,,,,,,,,,,,,,1,001,2024-08-26_22h40.26.551,IAT(Formal),2021.2.3,Win32,59.73002031,,,,,,,,,,,,,,,,,,,,,,,,,,,,,,,,,,,,,,,,,,,,,,,,,,,,我的,i,,,i,1,0.365925,0,18,18,61,1,,
,,,,,,,,,,,,,,1,001,2024-08-26_22h40.26.551,IAT(Formal),2021.2.3,Win32,59.73002031,,,,,,,,,,,,,,,,,,,,,,,,,,,,,,,,,,,,,,,,,,,,,,,,,,,,无私,e,,,i,0,0.33148,0,19,19,22,1,,
,,,,,,,,,,,,,,1,001,2024-08-26_22h40.26.551,IAT(Formal),2021.2.3,Win32,59.73002031,,,,,,,,,,,,,,,,,,,,,,,,,,,,,,,,,,,,,,,,,,,,,,,,,,,,我,i,,,e,0,0.250995,0,20,20,60,1,,
,,,,,,,,,,,,,,1,001,2024-08-26_22h40.26.551,IAT(Formal),2021.2.3,Win32,59.73002031,,,,,,,,,,,,,,,,,,,,,,,,,,,,,,,,,,,,,,,,,,,,,,,,,,,,轻率,i,,,i,1,0.2401,0,21,21,48,1,,
,,,,,,,,,,,,,,1,001,2024-08-26_22h40.26.551,IAT(Formal),2021.2.3,Win32,59.73002031,,,,,,,,,,,,,,,,,,,,,,,,,,,,,,,,,,,,,,,,,,,,,,,,,,,,正直,e,,,i,0,0.425725,0,22,22,16,1,,
,,,,,,,,,,,,,,1,001,2024-08-26_22h40.26.551,IAT(Formal),2021.2.3,Win32,59.73002031,,,,,,,,,,,,,,,,,,,,,,,,,,,,,,,,,,,,,,,,,,,,,,,,,,,,散漫,i,,,e,0,0.354885,0,23,23,41,1,,
,,,,,,,,,,,,,,1,001,2024-08-26_22h40.26.551,IAT(Formal),2021.2.3,Win32,59.73002031,,,,,,,,,,,,,,,,,,,,,,,,,,,,,,,,,,,,,,,,,,,,,,,,,,,,我们,i,,,e,0,0.33298,0,24,24,2,1,,
,,,,,,,,,,,,,,1,001,2024-08-26_22h40.26.551,IAT(Formal),2021.2.3,Win32,59.73002031,,,,,,,,,,,,,,,,,,,,,,,,,,,,,,,,,,,,,,,,,,,,,,,,,,,,俺,i,,,i,1,0.353355,0,25,25,64,1,,
,,,,,,,,,,,,,,1,001,2024-08-26_22h40.26.551,IAT(Formal),2021.2.3,Win32,59.73002031,,,,,,,,,,,,,,,,,,,,,,,,,,,,,,,,,,,,,,,,,,,,,,,,,,,,自卑,i,,,i,1,0.645835,0,26,26,36,1,,
,,,,,,,,,,,,,,1,001,2024-08-26_22h40.26.551,IAT(Formal),2021.2.3,Win32,59.73002031,,,,,,,,,,,,,,,,,,,,,,,,,,,,,,,,,,,,,,,,,,,,,,,,,,,,其他,e,,,i,0,0.602705,0,27,27,9,1,,
,,,,,,,,,,,,,,1,001,2024-08-26_22h40.26.551,IAT(Formal),2021.2.3,Win32,59.73002031,,,,,,,,,,,,,,,,,,,,,,,,,,,,,,,,,,,,,,,,,,,,,,,,,,,,他,e,,,e,1,0.29266,0,28,28,5,1,,
,,,,,,,,,,,,,,1,001,2024-08-26_22h40.26.551,IAT(Formal),2021.2.3,Win32,59.73002031,,,,,,,,,,,,,,,,,,,,,,,,,,,,,,,,,,,,,,,,,,,,,,,,,,,,自己,i,,,e,0,0.33244,0,29,29,73,1,,
,,,,,,,,,,,,,,1,001,2024-08-26_22h40.26.551,IAT(Formal),2021.2.3,Win32,59.73002031,,,,,,,,,,,,,,,,,,,,,,,,,,,,,,,,,,,,,,,,,,,,,,,,,,,,他人,e,,,i,0,0.377435,0,30,30,78,1,,
,,,,,,,,,,,,,,1,001,2024-08-26_22h40.26.551,IAT(Formal),2021.2.3,Win32,59.73002031,,,,,,,,,,,,,,,,,,,,,,,,,,,,,,,,,,,,,,,,,,,,,,,,,,,,刻薄,i,,,e,0,0.07865,0,31,31,33,1,,
,,,,,,,,,,,,,,1,001,2024-08-26_22h40.26.551,IAT(Formal),2021.2.3,Win32,59.73002031,,,,,,,,,,,,,,,,,,,,,,,,,,,,,,,,,,,,,,,,,,,,,,,,,,,,他人,e,,,e,1,0.679135,0,32,32,58,1,,
,,,,,,,,,,,,,,1,001,2024-08-26_22h40.26.551,IAT(Formal),2021.2.3,Win32,59.73002031,,,,,,,,,,,,,,,,,,,,,,,,,,,,,,,,,,,,,,,,,,,,,,,,,,,,勤奋,e,,,e,1,0.743545,0,33,33,18,1,,
,,,,,,,,,,,,,,1,001,2024-08-26_22h40.26.551,IAT(Formal),2021.2.3,Win32,59.73002031,,,,,,,,,,,,,,,,,,,,,,,,,,,,,,,,,,,,,,,,,,,,,,,,,,,,俺,i,,,e,0,0.324335,0,34,34,4,1,,
,,,,,,,,,,,,,,1,001,2024-08-26_22h40.26.551,IAT(Formal),2021.2.3,Win32,59.73002031,,,,,,,,,,,,,,,,,,,,,,,,,,,,,,,,,,,,,,,,,,,,,,,,,,,,自私,i,,,i,1,0.2994,0,35,35,43,1,,
,,,,,,,,,,,,,,1,001,2024-08-26_22h40.26.551,IAT(Formal),2021.2.3,Win32,59.73002031,,,,,,,,,,,,,,,,,,,,,,,,,,,,,,,,,,,,,,,,,,,,,,,,,,,,鲁莽,i,,,i,1,0.392095,0,36,36,38,1,,
,,,,,,,,,,,,,,1,001,2024-08-26_22h40.26.551,IAT(Formal),2021.2.3,Win32,59.73002031,,,,,,,,,,,,,,,,,,,,,,,,,,,,,,,,,,,,,,,,,,,,,,,,,,,,悲观,i,,,,0,,0,37,37,34,1,,
,,,,,,,,,,,,,,1,001,2024-08-26_22h40.26.551,IAT(Formal),2021.2.3,Win32,59.73002031,,,,,,,,,,,,,,,,,,,,,,,,,,,,,,,,,,,,,,,,,,,,,,,,,,,,我的,i,,,e,0,0.631005,0,38,38,51,1,,
,,,,,,,,,,,,,,1,001,2024-08-26_22h40.26.551,IAT(Formal),2021.2.3,Win32,59.73002031,,,,,,,,,,,,,,,,,,,,,,,,,,,,,,,,,,,,,,,,,,,,,,,,,,,,优秀,e,,,i,0,0.047015,0,39,39,10,1,,
,,,,,,,,,,,,,,1,001,2024-08-26_22h40.26.551,IAT(Formal),2021.2.3,Win32,59.73002031,,,,,,,,,,,,,,,,,,,,,,,,,,,,,,,,,,,,,,,,,,,,,,,,,,,,其他,e,,,e,1,0.41191,0,40,40,59,1,,
,,,,,,,,,,,,,,1,001,2024-08-26_22h40.26.551,IAT(Formal),2021.2.3,Win32,59.73002031,,,,,,,,,,,,,,,,,,,,,,,,,,,,,,,,,,,,,,,,,,,,,,,,,,,,愚蠢,i,,,,0,,0,41,41,32,1,,
,,,,,,,,,,,,,,1,001,2024-08-26_22h40.26.551,IAT(Formal),2021.2.3,Win32,59.73002031,,,,,,,,,,,,,,,,,,,,,,,,,,,,,,,,,,,,,,,,,,,,,,,,,,,,暴躁,i,,,,0,,0,42,42,44,1,,
,,,,,,,,,,,,,,1,001,2024-08-26_22h40.26.551,IAT(Formal),2021.2.3,Win32,59.73002031,,,,,,,,,,,,,,,,,,,,,,,,,,,,,,,,,,,,,,,,,,,,,,,,,,,,其他,e,,,e,1,0.34377,0,43,43,79,1,,
,,,,,,,,,,,,,,1,001,2024-08-26_22h40.26.551,IAT(Formal),2021.2.3,Win32,59.73002031,,,,,,,,,,,,,,,,,,,,,,,,,,,,,,,,,,,,,,,,,,,,,,,,,,,,认真,e,,,i,0,0.485335,0,44,44,20,1,,
,,,,,,,,,,,,,,1,001,2024-08-26_22h40.26.551,IAT(Formal),2021.2.3,Win32,59.73002031,,,,,,,,,,,,,,,,,,,,,,,,,,,,,,,,,,,,,,,,,,,,,,,,,,,,其他,e,,,e,1,0.242085,0,45,45,69,1,,
,,,,,,,,,,,,,,1,001,2024-08-26_22h40.26.551,IAT(Formal),2021.2.3,Win32,59.73002031,,,,,,,,,,,,,,,,,,,,,,,,,,,,,,,,,,,,,,,,,,,,,,,,,,,,杰出,e,,,i,0,0.29001,0,46,46,13,1,,
,,,,,,,,,,,,,,1,001,2024-08-26_22h40.26.551,IAT(Formal),2021.2.3,Win32,59.73002031,,,,,,,,,,,,,,,,,,,,,,,,,,,,,,,,,,,,,,,,,,,,,,,,,,,,他,e,,,e,1,0.23982,0,47,47,75,1,,
,,,,,,,,,,,,,,1,001,2024-08-26_22h40.26.551,IAT(Formal),2021.2.3,Win32,59.73002031,,,,,,,,,,,,,,,,,,,,,,,,,,,,,,,,,,,,,,,,,,,,,,,,,,,,猖狂,i,,,,0,,0,48,48,45,1,,
,,,,,,,,,,,,,,1,001,2024-08-26_22h40.26.551,IAT(Formal),2021.2.3,Win32,59.73002031,,,,,,,,,,,,,,,,,,,,,,,,,,,,,,,,,,,,,,,,,,,,,,,,,,,,热情,e,,,e,1,0.338855,0,49,49,27,1,,
,,,,,,,,,,,,,,1,001,2024-08-26_22h40.26.551,IAT(Formal),2021.2.3,Win32,59.73002031,,,,,,,,,,,,,,,,,,,,,,,,,,,,,,,,,,,,,,,,,,,,,,,,,,,,我们,i,,,i,1,0.18922,0,50,50,72,1,,
,,,,,,,,,,,,,,1,001,2024-08-26_22h40.26.551,IAT(Formal),2021.2.3,Win32,59.73002031,,,,,,,,,,,,,,,,,,,,,,,,,,,,,,,,,,,,,,,,,,,,,,,,,,,,他,e,,,i,0,0.13169,0,51,51,65,1,,
,,,,,,,,,,,,,,1,001,2024-08-26_22h40.26.551,IAT(Formal),2021.2.3,Win32,59.73002031,,,,,,,,,,,,,,,,,,,,,,,,,,,,,,,,,,,,,,,,,,,,,,,,,,,,俺,i,,,e,0,0.195345,0,52,52,74,1,,
,,,,,,,,,,,,,,1,001,2024-08-26_22h40.26.551,IAT(Formal),2021.2.3,Win32,59.73002031,,,,,,,,,,,,,,,,,,,,,,,,,,,,,,,,,,,,,,,,,,,,,,,,,,,,我,i,,,e,0,0.046045,0,53,53,70,1,,
,,,,,,,,,,,,,,1,001,2024-08-26_22h40.26.551,IAT(Formal),2021.2.3,Win32,59.73002031,,,,,,,,,,,,,,,,,,,,,,,,,,,,,,,,,,,,,,,,,,,,,,,,,,,,他人,e,,,e,1,0.210865,0,54,54,8,1,,
,,,,,,,,,,,,,,1,001,2024-08-26_22h40.26.551,IAT(Formal),2021.2.3,Win32,59.73002031,,,,,,,,,,,,,,,,,,,,,,,,,,,,,,,,,,,,,,,,,,,,,,,,,,,,他们,e,,,i,0,0.30244,0,55,55,66,1,,
,,,,,,,,,,,,,,1,001,2024-08-26_22h40.26.551,IAT(Formal),2021.2.3,Win32,59.73002031,,,,,,,,,,,,,,,,,,,,,,,,,,,,,,,,,,,,,,,,,,,,,,,,,,,,他们,e,,,e,1,0.355335,0,56,56,76,1,,
,,,,,,,,,,,,,,1,001,2024-08-26_22h40.26.551,IAT(Formal),2021.2.3,Win32,59.73002031,,,,,,,,,,,,,,,,,,,,,,,,,,,,,,,,,,,,,,,,,,,,,,,,,,,,活泼,e,,,e,1,0.117075,0,57,57,28,1,,
,,,,,,,,,,,,,,1,001,2024-08-26_22h40.26.551,IAT(Formal),2021.2.3,Win32,59.73002031,,,,,,,,,,,,,,,,,,,,,,,,,,,,,,,,,,,,,,,,,,,,,,,,,,,,消极,i,,,e,0,0.03986,0,58,58,35,1,,
,,,,,,,,,,,,,,1,001,2024-08-26_22h40.26.551,IAT(Formal),2021.2.3,Win32,59.73002031,,,,,,,,,,,,,,,,,,,,,,,,,,,,,,,,,,,,,,,,,,,,,,,,,,,,冒失,i,,,i,1,0.072515,0,59,59,39,1,,
,,,,,,,,,,,,,,1,001,2024-08-26_22h40.26.551,IAT(Formal),2021.2.3,Win32,59.73002031,,,,,,,,,,,,,,,,,,,,,,,,,,,,,,,,,,,,,,,,,,,,,,,,,,,,下贱,i,,,i,1,0.09412,0,60,60,49,1,,
,,,,,,,,,,,,,,1,001,2024-08-26_22h40.26.551,IAT(Formal),2021.2.3,Win32,59.73002031,,,,,,,,,,,,,,,,,,,,,,,,,,,,,,,,,,,,,,,,,,,,,,,,,,,,机智,e,,,i,0,0.059655,0,61,61,19,1,,
,,,,,,,,,,,,,,1,001,2024-08-26_22h40.26.551,IAT(Formal),2021.2.3,Win32,59.73002031,,,,,,,,,,,,,,,,,,,,,,,,,,,,,,,,,,,,,,,,,,,,,,,,,,,,公正,e,,,e,1,0.295665,0,62,62,23,1,,
,,,,,,,,,,,,,,1,001,2024-08-26_22h40.26.551,IAT(Formal),2021.2.3,Win32,59.73002031,,,,,,,,,,,,,,,,,,,,,,,,,,,,,,,,,,,,,,,,,,,,,,,,,,,,他们,e,,,i,0,0.193585,0,63,63,56,1,,
,,,,,,,,,,,,,,1,001,2024-08-26_22h40.26.551,IAT(Formal),2021.2.3,Win32,59.73002031,,,,,,,,,,,,,,,,,,,,,,,,,,,,,,,,,,,,,,,,,,,,,,,,,,,,乐观,e,,,e,1,0.241025,0,64,64,14,1,,
,,,,,,,,,,,,,,1,001,2024-08-26_22h40.26.551,IAT(Formal),2021.2.3,Win32,59.73002031,,,,,,,,,,,,,,,,,,,,,,,,,,,,,,,,,,,,,,,,,,,,,,,,,,,,傲慢,i,,,i,1,0.06701,0,65,65,37,1,,
,,,,,,,,,,,,,,1,001,2024-08-26_22h40.26.551,IAT(Formal),2021.2.3,Win32,59.73002031,,,,,,,,,,,,,,,,,,,,,,,,,,,,,,,,,,,,,,,,,,,,,,,,,,,,诚实,e,,,e,1,0.0887,0,66,66,15,1,,
,,,,,,,,,,,,,,1,001,2024-08-26_22h40.26.551,IAT(Formal),2021.2.3,Win32,59.73002031,,,,,,,,,,,,,,,,,,,,,,,,,,,,,,,,,,,,,,,,,,,,,,,,,,,,我,i,,,i,1,0.00397,0,67,67,50,1,,
,,,,,,,,,,,,,,1,001,2024-08-26_22h40.26.551,IAT(Formal),2021.2.3,Win32,59.73002031,,,,,,,,,,,,,,,,,,,,,,,,,,,,,,,,,,,,,,,,,,,,,,,,,,,,细腻,e,,,e,1,0.144425,0,68,68,25,1,,
,,,,,,,,,,,,,,1,001,2024-08-26_22h40.26.551,IAT(Formal),2021.2.3,Win32,59.73002031,,,,,,,,,,,,,,,,,,,,,,,,,,,,,,,,,,,,,,,,,,,,,,,,,,,,他的,e,,,i,0,0.28295,0,69,69,7,1,,
,,,,,,,,,,,,,,1,001,2024-08-26_22h40.26.551,IAT(Formal),2021.2.3,Win32,59.73002031,,,,,,,,,,,,,,,,,,,,,,,,,,,,,,,,,,,,,,,,,,,,,,,,,,,,我们,i,,,e,0,0.19687,0,70,70,52,1,,
,,,,,,,,,,,,,,1,001,2024-08-26_22h40.26.551,IAT(Formal),2021.2.3,Win32,59.73002031,,,,,,,,,,,,,,,,,,,,,,,,,,,,,,,,,,,,,,,,,,,,,,,,,,,,聪明,e,,,i,0,0.071715,0,71,71,12,1,,
,,,,,,,,,,,,,,1,001,2024-08-26_22h40.26.551,IAT(Formal),2021.2.3,Win32,59.73002031,,,,,,,,,,,,,,,,,,,,,,,,,,,,,,,,,,,,,,,,,,,,,,,,,,,,自己,i,,,e,0,0.197325,0,72,72,63,1,,
,,,,,,,,,,,,,,1,001,2024-08-26_22h40.26.551,IAT(Formal),2021.2.3,Win32,59.73002031,,,,,,,,,,,,,,,,,,,,,,,,,,,,,,,,,,,,,,,,,,,,,,,,,,,,自己,i,,,e,0,0.23083,0,73,73,3,1,,
,,,,,,,,,,,,,,1,001,2024-08-26_22h40.26.551,IAT(Formal),2021.2.3,Win32,59.73002031,,,,,,,,,,,,,,,,,,,,,,,,,,,,,,,,,,,,,,,,,,,,,,,,,,,,诚恳,e,,,i,0,0.09858,0,74,74,29,1,,
,,,,,,,,,,,,,,1,001,2024-08-26_22h40.26.551,IAT(Formal),2021.2.3,Win32,59.73002031,,,,,,,,,,,,,,,,,,,,,,,,,,,,,,,,,,,,,,,,,,,,,,,,,,,,我的,i,,,i,1,0.35314,0,75,75,1,1,,
,,,,,,,,,,,,,,1,001,2024-08-26_22h40.26.551,IAT(Formal),2021.2.3,Win32,59.73002031,,,,,,,,,,,,,,,,,,,,,,,,,,,,,,,,,,,,,,,,,,,,,,,,,,,,冷静,e,,,i,0,0.323575,0,76,76,26,1,,
,,,,,,,,,,,,,,1,001,2024-08-26_22h40.26.551,IAT(Formal),2021.2.3,Win32,59.73002031,,,,,,,,,,,,,,,,,,,,,,,,,,,,,,,,,,,,,,,,,,,,,,,,,,,,虚伪,i,,,e,0,0.133285,0,77,77,31,1,,
,,,,,,,,,,,,,,1,001,2024-08-26_22h40.26.551,IAT(Formal),2021.2.3,Win32,59.73002031,,,,,,,,,,,,,,,,,,,,,,,,,,,,,,,,,,,,,,,,,,,,,,,,,,,,自己,i,,,e,0,0.088365,0,78,78,53,1,,
,,,,,,,,,,,,,,1,001,2024-08-26_22h40.26.551,IAT(Formal),2021.2.3,Win32,59.73002031,,,,,,,,,,,,,,,,,,,,,,,,,,,,,,,,,,,,,,,,,,,,,,,,,,,,他人,e,,,i,0,0.08153,0,79,79,68,1,,
,,,,,,,,,,,,,,1,001,2024-08-26_22h40.26.551,IAT(Formal),2021.2.3,Win32,59.73002031,,,,,,,,,,,,,,,,,,,,,,,,,,,,,,,,,,,,,,,,,,,,,,,,,,,,他人,e,,,i,0,0.133585,1,0,80,58,1,,
,,,,,,,,,,,,,,1,001,2024-08-26_22h40.26.551,IAT(Formal),2021.2.3,Win32,59.73002031,,,,,,,,,,,,,,,,,,,,,,,,,,,,,,,,,,,,,,,,,,,,,,,,,,,,我的,i,,,e,0,0.23226,1,1,81,1,1,,
,,,,,,,,,,,,,,1,001,2024-08-26_22h40.26.551,IAT(Formal),2021.2.3,Win32,59.73002031,,,,,,,,,,,,,,,,,,,,,,,,,,,,,,,,,,,,,,,,,,,,,,,,,,,,其他,e,,,e,1,0.571655,1,2,82,69,1,,
,,,,,,,,,,,,,,1,001,2024-08-26_22h40.26.551,IAT(Formal),2021.2.3,Win32,59.73002031,,,,,,,,,,,,,,,,,,,,,,,,,,,,,,,,,,,,,,,,,,,,,,,,,,,,自己,i,,,i,1,1.273895,1,3,83,63,1,,
,,,,,,,,,,,,,,1,001,2024-08-26_22h40.26.551,IAT(Formal),2021.2.3,Win32,59.73002031,,,,,,,,,,,,,,,,,,,,,,,,,,,,,,,,,,,,,,,,,,,,,,,,,,,,细腻,e,,,i,0,0.171025,1,4,84,25,1,,
,,,,,,,,,,,,,,1,001,2024-08-26_22h40.26.551,IAT(Formal),2021.2.3,Win32,59.73002031,,,,,,,,,,,,,,,,,,,,,,,,,,,,,,,,,,,,,,,,,,,,,,,,,,,,乐观,e,,,e,1,0.10713,1,5,85,14,1,,
,,,,,,,,,,,,,,1,001,2024-08-26_22h40.26.551,IAT(Formal),2021.2.3,Win32,59.73002031,,,,,,,,,,,,,,,,,,,,,,,,,,,,,,,,,,,,,,,,,,,,,,,,,,,,他的,e,,,e,1,0.132745,1,6,86,77,1,,
,,,,,,,,,,,,,,1,001,2024-08-26_22h40.26.551,IAT(Formal),2021.2.3,Win32,59.73002031,,,,,,,,,,,,,,,,,,,,,,,,,,,,,,,,,,,,,,,,,,,,,,,,,,,,我的,i,,,e,0,0.082515,1,7,87,71,1,,
,,,,,,,,,,,,,,1,001,2024-08-26_22h40.26.551,IAT(Formal),2021.2.3,Win32,59.73002031,,,,,,,,,,,,,,,,,,,,,,,,,,,,,,,,,,,,,,,,,,,,,,,,,,,,俺,i,,,i,1,0.100705,1,8,88,64,1,,
,,,,,,,,,,,,,,1,001,2024-08-26_22h40.26.551,IAT(Formal),2021.2.3,Win32,59.73002031,,,,,,,,,,,,,,,,,,,,,,,,,,,,,,,,,,,,,,,,,,,,,,,,,,,,其他,e,,,i,0,0.249955,1,9,89,9,1,,
,,,,,,,,,,,,,,1,001,2024-08-26_22h40.26.551,IAT(Formal),2021.2.3,Win32,59.73002031,,,,,,,,,,,,,,,,,,,,,,,,,,,,,,,,,,,,,,,,,,,,,,,,,,,,崇高,e,,,e,1,0.114345,1,10,90,11,1,,
,,,,,,,,,,,,,,1,001,2024-08-26_22h40.26.551,IAT(Formal),2021.2.3,Win32,59.73002031,,,,,,,,,,,,,,,,,,,,,,,,,,,,,,,,,,,,,,,,,,,,,,,,,,,,我们,i,,,e,0,0.15099,1,11,91,52,1,,
,,,,,,,,,,,,,,1,001,2024-08-26_22h40.26.551,IAT(Formal),2021.2.3,Win32,59.73002031,,,,,,,,,,,,,,,,,,,,,,,,,,,,,,,,,,,,,,,,,,,,,,,,,,,,活泼,e,,,e,1,0.02191,1,12,92,28,1,,
,,,,,,,,,,,,,,1,001,2024-08-26_22h40.26.551,IAT(Formal),2021.2.3,Win32,59.73002031,,,,,,,,,,,,,,,,,,,,,,,,,,,,,,,,,,,,,,,,,,,,,,,,,,,,他人,e,,,i,0,0.12671,1,13,93,8,1,,
,,,,,,,,,,,,,,1,001,2024-08-26_22h40.26.551,IAT(Formal),2021.2.3,Win32,59.73002031,,,,,,,,,,,,,,,,,,,,,,,,,,,,,,,,,,,,,,,,,,,,,,,,,,,,冷静,e,,,,0,,1,14,94,26,1,,
,,,,,,,,,,,,,,1,001,2024-08-26_22h40.26.551,IAT(Formal),2021.2.3,Win32,59.73002031,,,,,,,,,,,,,,,,,,,,,,,,,,,,,,,,,,,,,,,,,,,,,,,,,,,,他人,e,,,e,1,0.504085,1,15,95,68,1,,
,,,,,,,,,,,,,,1,001,2024-08-26_22h40.26.551,IAT(Formal),2021.2.3,Win32,59.73002031,,,,,,,,,,,,,,,,,,,,,,,,,,,,,,,,,,,,,,,,,,,,,,,,,,,,优秀,e,,,i,0,0.24524,1,16,96,10,1,,
,,,,,,,,,,,,,,1,001,2024-08-26_22h40.26.551,IAT(Formal),2021.2.3,Win32,59.73002031,,,,,,,,,,,,,,,,,,,,,,,,,,,,,,,,,,,,,,,,,,,,,,,,,,,,他,e,,,i,0,0.09935,1,17,97,55,1,,
,,,,,,,,,,,,,,1,001,2024-08-26_22h40.26.551,IAT(Formal),2021.2.3,Win32,59.73002031,,,,,,,,,,,,,,,,,,,,,,,,,,,,,,,,,,,,,,,,,,,,,,,,,,,,凶狠,i,,,i,1,0.018355,1,18,98,42,1,,
,,,,,,,,,,,,,,1,001,2024-08-26_22h40.26.551,IAT(Formal),2021.2.3,Win32,59.73002031,,,,,,,,,,,,,,,,,,,,,,,,,,,,,,,,,,,,,,,,,,,,,,,,,,,,我,i,,,e,0,0.24466,1,19,99,70,1,,
,,,,,,,,,,,,,,1,001,2024-08-26_22h40.26.551,IAT(Formal),2021.2.3,Win32,59.73002031,,,,,,,,,,,,,,,,,,,,,,,,,,,,,,,,,,,,,,,,,,,,,,,,,,,,愚蠢,i,,,e,0,0.294855,1,20,100,32,1,,
,,,,,,,,,,,,,,1,001,2024-08-26_22h40.26.551,IAT(Formal),2021.2.3,Win32,59.73002031,,,,,,,,,,,,,,,,,,,,,,,,,,,,,,,,,,,,,,,,,,,,,,,,,,,,野蛮,i,,,i,1,0.137835,1,21,101,46,1,,
,,,,,,,,,,,,,,1,001,2024-08-26_22h40.26.551,IAT(Formal),2021.2.3,Win32,59.73002031,,,,,,,,,,,,,,,,,,,,,,,,,,,,,,,,,,,,,,,,,,,,,,,,,,,,鲁莽,i,,,e,0,0.204315,1,22,102,38,1,,
,,,,,,,,,,,,,,1,001,2024-08-26_22h40.26.551,IAT(Formal),2021.2.3,Win32,59.73002031,,,,,,,,,,,,,,,,,,,,,,,,,,,,,,,,,,,,,,,,,,,,,,,,,,,,他们,e,,,i,0,0.259195,1,23,103,66,1,,
,,,,,,,,,,,,,,1,001,2024-08-26_22h40.26.551,IAT(Formal),2021.2.3,Win32,59.73002031,,,,,,,,,,,,,,,,,,,,,,,,,,,,,,,,,,,,,,,,,,,,,,,,,,,,他,e,,,i,0,0.09452,1,24,104,75,1,,
,,,,,,,,,,,,,,1,001,2024-08-26_22h40.26.551,IAT(Formal),2021.2.3,Win32,59.73002031,,,,,,,,,,,,,,,,,,,,,,,,,,,,,,,,,,,,,,,,,,,,,,,,,,,,我们,i,,,i,1,0.233015,1,25,105,72,1,,
,,,,,,,,,,,,,,1,001,2024-08-26_22h40.26.551,IAT(Formal),2021.2.3,Win32,59.73002031,,,,,,,,,,,,,,,,,,,,,,,,,,,,,,,,,,,,,,,,,,,,,,,,,,,,诚实,e,,,i,0,0.004465,1,26,106,15,1,,
,,,,,,,,,,,,,,1,001,2024-08-26_22h40.26.551,IAT(Formal),2021.2.3,Win32,59.73002031,,,,,,,,,,,,,,,,,,,,,,,,,,,,,,,,,,,,,,,,,,,,,,,,,,,,他,e,,,i,0,0.21881,1,27,107,65,1,,
,,,,,,,,,,,,,,1,001,2024-08-26_22h40.26.551,IAT(Formal),2021.2.3,Win32,59.73002031,,,,,,,,,,,,,,,,,,,,,,,,,,,,,,,,,,,,,,,,,,,,,,,,,,,,自己,i,,,i,1,0.17405,1,28,108,3,1,,
,,,,,,,,,,,,,,1,001,2024-08-26_22h40.26.551,IAT(Formal),2021.2.3,Win32,59.73002031,,,,,,,,,,,,,,,,,,,,,,,,,,,,,,,,,,,,,,,,,,,,,,,,,,,,卑鄙,i,,,i,1,0.006975,1,29,109,30,1,,
,,,,,,,,,,,,,,1,001,2024-08-26_22h40.26.551,IAT(Formal),2021.2.3,Win32,59.73002031,,,,,,,,,,,,,,,,,,,,,,,,,,,,,,,,,,,,,,,,,,,,,,,,,,,,消极,i,,,i,1,0.231045,1,30,110,35,1,,
,,,,,,,,,,,,,,1,001,2024-08-26_22h40.26.551,IAT(Formal),2021.2.3,Win32,59.73002031,,,,,,,,,,,,,,,,,,,,,,,,,,,,,,,,,,,,,,,,,,,,,,,,,,,,我的,i,,,i,1,0.21933,1,31,111,61,1,,
,,,,,,,,,,,,,,1,001,2024-08-26_22h40.26.551,IAT(Formal),2021.2.3,Win32,59.73002031,,,,,,,,,,,,,,,,,,,,,,,,,,,,,,,,,,,,,,,,,,,,,,,,,,,,自己,i,,,i,1,0.173925,1,32,112,73,1,,
,,,,,,,,,,,,,,1,001,2024-08-26_22h40.26.551,IAT(Formal),2021.2.3,Win32,59.73002031,,,,,,,,,,,,,,,,,,,,,,,,,,,,,,,,,,,,,,,,,,,,,,,,,,,,他,e,,,i,0,0.193115,1,33,113,5,1,,
,,,,,,,,,,,,,,1,001,2024-08-26_22h40.26.551,IAT(Formal),2021.2.3,Win32,59.73002031,,,,,,,,,,,,,,,,,,,,,,,,,,,,,,,,,,,,,,,,,,,,,,,,,,,,自己,i,,,e,0,0.225695,1,34,114,53,1,,
,,,,,,,,,,,,,,1,001,2024-08-26_22h40.26.551,IAT(Formal),2021.2.3,Win32,59.73002031,,,,,,,,,,,,,,,,,,,,,,,,,,,,,,,,,,,,,,,,,,,,,,,,,,,,我的,i,,,e,0,0.22773,1,35,115,51,1,,
,,,,,,,,,,,,,,1,001,2024-08-26_22h40.26.551,IAT(Formal),2021.2.3,Win32,59.73002031,,,,,,,,,,,,,,,,,,,,,,,,,,,,,,,,,,,,,,,,,,,,,,,,,,,,聪明,e,,,i,0,0.032775,1,36,116,12,1,,
,,,,,,,,,,,,,,1,001,2024-08-26_22h40.26.551,IAT(Formal),2021.2.3,Win32,59.73002031,,,,,,,,,,,,,,,,,,,,,,,,,,,,,,,,,,,,,,,,,,,,,,,,,,,,傲慢,i,,,i,1,0.150055,1,37,117,37,1,,
,,,,,,,,,,,,,,1,001,2024-08-26_22h40.26.551,IAT(Formal),2021.2.3,Win32,59.73002031,,,,,,,,,,,,,,,,,,,,,,,,,,,,,,,,,,,,,,,,,,,,,,,,,,,,杰出,e,,,i,0,0.17658,1,38,118,13,1,,
,,,,,,,,,,,,,,1,001,2024-08-26_22h40.26.551,IAT(Formal),2021.2.3,Win32,59.73002031,,,,,,,,,,,,,,,,,,,,,,,,,,,,,,,,,,,,,,,,,,,,,,,,,,,,固执,i,,,i,1,0.00362,1,39,119,47,1,,
,,,,,,,,,,,,,,1,001,2024-08-26_22h40.26.551,IAT(Formal),2021.2.3,Win32,59.73002031,,,,,,,,,,,,,,,,,,,,,,,,,,,,,,,,,,,,,,,,,,,,,,,,,,,,他的,e,,,i,0,0.17273,1,40,120,7,1,,
,,,,,,,,,,,,,,1,001,2024-08-26_22h40.26.551,IAT(Formal),2021.2.3,Win32,59.73002031,,,,,,,,,,,,,,,,,,,,,,,,,,,,,,,,,,,,,,,,,,,,,,,,,,,,我,i,,,i,1,0.076285,1,41,121,60,1,,
,,,,,,,,,,,,,,1,001,2024-08-26_22h40.26.551,IAT(Formal),2021.2.3,Win32,59.73002031,,,,,,,,,,,,,,,,,,,,,,,,,,,,,,,,,,,,,,,,,,,,,,,,,,,,散漫,i,,,e,0,0.118275,1,42,122,41,1,,
,,,,,,,,,,,,,,1,001,2024-08-26_22h40.26.551,IAT(Formal),2021.2.3,Win32,59.73002031,,,,,,,,,,,,,,,,,,,,,,,,,,,,,,,,,,,,,,,,,,,,,,,,,,,,他的,e,,,e,1,0.12033,1,43,123,67,1,,
,,,,,,,,,,,,,,1,001,2024-08-26_22h40.26.551,IAT(Formal),2021.2.3,Win32,59.73002031,,,,,,,,,,,,,,,,,,,,,,,,,,,,,,,,,,,,,,,,,,,,,,,,,,,,勇敢,e,,,e,1,0.195965,1,44,124,17,1,,
,,,,,,,,,,,,,,1,001,2024-08-26_22h40.26.551,IAT(Formal),2021.2.3,Win32,59.73002031,,,,,,,,,,,,,,,,,,,,,,,,,,,,,,,,,,,,,,,,,,,,,,,,,,,,公正,e,,,e,1,0.189115,1,45,125,23,1,,
,,,,,,,,,,,,,,1,001,2024-08-26_22h40.26.551,IAT(Formal),2021.2.3,Win32,59.73002031,,,,,,,,,,,,,,,,,,,,,,,,,,,,,,,,,,,,,,,,,,,,,,,,,,,,认真,e,,,e,1,0.20664,1,46,126,20,1,,
,,,,,,,,,,,,,,1,001,2024-08-26_22h40.26.551,IAT(Formal),2021.2.3,Win32,59.73002031,,,,,,,,,,,,,,,,,,,,,,,,,,,,,,,,,,,,,,,,,,,,,,,,,,,,他们,e,,,e,1,0.195535,1,47,127,56,1,,
,,,,,,,,,,,,,,1,001,2024-08-26_22h40.26.551,IAT(Formal),2021.2.3,Win32,59.73002031,,,,,,,,,,,,,,,,,,,,,,,,,,,,,,,,,,,,,,,,,,,,,,,,,,,,暴躁,i,,,e,0,1.44762,1,48,128,44,1,,
,,,,,,,,,,,,,,1,001,2024-08-26_22h40.26.551,IAT(Formal),2021.2.3,Win32,59.73002031,,,,,,,,,,,,,,,,,,,,,,,,,,,,,,,,,,,,,,,,,,,,,,,,,,,,俺,i,,,i,1,0.59103,1,49,129,74,1,,
,,,,,,,,,,,,,,1,001,2024-08-26_22h40.26.551,IAT(Formal),2021.2.3,Win32,59.73002031,,,,,,,,,,,,,,,,,,,,,,,,,,,,,,,,,,,,,,,,,,,,,,,,,,,,自卑,i,,,e,0,0.423925,1,50,130,36,1,,
,,,,,,,,,,,,,,1,001,2024-08-26_22h40.26.551,IAT(Formal),2021.2.3,Win32,59.73002031,,,,,,,,,,,,,,,,,,,,,,,,,,,,,,,,,,,,,,,,,,,,,,,,,,,,我,i,,,i,1,1.33898,1,51,131,50,1,,
,,,,,,,,,,,,,,1,001,2024-08-26_22h40.26.551,IAT(Formal),2021.2.3,Win32,59.73002031,,,,,,,,,,,,,,,,,,,,,,,,,,,,,,,,,,,,,,,,,,,,,,,,,,,,俺,i,,,,0,,1,52,132,54,1,,
,,,,,,,,,,,,,,1,001,2024-08-26_22h40.26.551,IAT(Formal),2021.2.3,Win32,59.73002031,,,,,,,,,,,,,,,,,,,,,,,,,,,,,,,,,,,,,,,,,,,,,,,,,,,,我们,i,,,,0,,1,53,133,2,1,,
,,,,,,,,,,,,,,1,001,2024-08-26_22h40.26.551,IAT(Formal),2021.2.3,Win32,59.73002031,,,,,,,,,,,,,,,,,,,,,,,,,,,,,,,,,,,,,,,,,,,,,,,,,,,,我们,i,,,,0,,1,54,134,62,1,,
,,,,,,,,,,,,,,1,001,2024-08-26_22h40.26.551,IAT(Formal),2021.2.3,Win32,59.73002031,,,,,,,,,,,,,,,,,,,,,,,,,,,,,,,,,,,,,,,,,,,,,,,,,,,,诚恳,e,,,,0,,1,55,135,29,1,,
,,,,,,,,,,,,,,1,001,2024-08-26_22h40.26.551,IAT(Formal),2021.2.3,Win32,59.73002031,,,,,,,,,,,,,,,,,,,,,,,,,,,,,,,,,,,,,,,,,,,,,,,,,,,,其他,e,,,,0,,1,56,136,59,1,,
,,,,,,,,,,,,,,1,001,2024-08-26_22h40.26.551,IAT(Formal),2021.2.3,Win32,59.73002031,,,,,,,,,,,,,,,,,,,,,,,,,,,,,,,,,,,,,,,,,,,,,,,,,,,,他们,e,,,,0,,1,57,137,76,1,,
,,,,,,,,,,,,,,1,001,2024-08-26_22h40.26.551,IAT(Formal),2021.2.3,Win32,59.73002031,,,,,,,,,,,,,,,,,,,,,,,,,,,,,,,,,,,,,,,,,,,,,,,,,,,,轻率,i,,,e,0,0.960845,1,58,138,48,1,,
,,,,,,,,,,,,,,1,001,2024-08-26_22h40.26.551,IAT(Formal),2021.2.3,Win32,59.73002031,,,,,,,,,,,,,,,,,,,,,,,,,,,,,,,,,,,,,,,,,,,,,,,,,,,,执拗,i,,,e,0,0.13422,1,59,139,40,1,,
,,,,,,,,,,,,,,1,001,2024-08-26_22h40.26.551,IAT(Formal),2021.2.3,Win32,59.73002031,,,,,,,,,,,,,,,,,,,,,,,,,,,,,,,,,,,,,,,,,,,,,,,,,,,,他们,e,,,i,0,0.18486,1,60,140,6,1,,
,,,,,,,,,,,,,,1,001,2024-08-26_22h40.26.551,IAT(Formal),2021.2.3,Win32,59.73002031,,,,,,,,,,,,,,,,,,,,,,,,,,,,,,,,,,,,,,,,,,,,,,,,,,,,自私,i,,,i,1,0.18842,1,61,141,43,1,,
,,,,,,,,,,,,,,1,001,2024-08-26_22h40.26.551,IAT(Formal),2021.2.3,Win32,59.73002031,,,,,,,,,,,,,,,,,,,,,,,,,,,,,,,,,,,,,,,,,,,,,,,,,,,,稳重,e,,,i,0,0.079,1,62,142,21,1,,
,,,,,,,,,,,,,,1,001,2024-08-26_22h40.26.551,IAT(Formal),2021.2.3,Win32,59.73002031,,,,,,,,,,,,,,,,,,,,,,,,,,,,,,,,,,,,,,,,,,,,,,,,,,,,朴实,e,,,i,0,0.09436,1,63,143,24,1,,
,,,,,,,,,,,,,,1,001,2024-08-26_22h40.26.551,IAT(Formal),2021.2.3,Win32,59.73002031,,,,,,,,,,,,,,,,,,,,,,,,,,,,,,,,,,,,,,,,,,,,,,,,,,,,他的,e,,,i,0,0.04415,1,64,144,57,1,,
,,,,,,,,,,,,,,1,001,2024-08-26_22h40.26.551,IAT(Formal),2021.2.3,Win32,59.73002031,,,,,,,,,,,,,,,,,,,,,,,,,,,,,,,,,,,,,,,,,,,,,,,,,,,,悲观,i,,,e,0,0.083945,1,65,145,34,1,,
,,,,,,,,,,,,,,1,001,2024-08-26_22h40.26.551,IAT(Formal),2021.2.3,Win32,59.73002031,,,,,,,,,,,,,,,,,,,,,,,,,,,,,,,,,,,,,,,,,,,,,,,,,,,,猖狂,i,,,i,1,0.142295,1,66,146,45,1,,
,,,,,,,,,,,,,,1,001,2024-08-26_22h40.26.551,IAT(Formal),2021.2.3,Win32,59.73002031,,,,,,,,,,,,,,,,,,,,,,,,,,,,,,,,,,,,,,,,,,,,,,,,,,,,其他,e,,,i,0,0.080185,1,67,147,79,1,,
,,,,,,,,,,,,,,1,001,2024-08-26_22h40.26.551,IAT(Formal),2021.2.3,Win32,59.73002031,,,,,,,,,,,,,,,,,,,,,,,,,,,,,,,,,,,,,,,,,,,,,,,,,,,,他人,e,,,e,1,0.007365,1,68,148,78,1,,
,,,,,,,,,,,,,,1,001,2024-08-26_22h40.26.551,IAT(Formal),2021.2.3,Win32,59.73002031,,,,,,,,,,,,,,,,,,,,,,,,,,,,,,,,,,,,,,,,,,,,,,,,,,,,无私,e,,,i,0,0.11064,1,69,149,22,1,,
,,,,,,,,,,,,,,1,001,2024-08-26_22h40.26.551,IAT(Formal),2021.2.3,Win32,59.73002031,,,,,,,,,,,,,,,,,,,,,,,,,,,,,,,,,,,,,,,,,,,,,,,,,,,,冒失,i,,,i,1,0.09083,1,70,150,39,1,,
,,,,,,,,,,,,,,1,001,2024-08-26_22h40.26.551,IAT(Formal),2021.2.3,Win32,59.73002031,,,,,,,,,,,,,,,,,,,,,,,,,,,,,,,,,,,,,,,,,,,,,,,,,,,,勤奋,e,,,e,1,0.09401,1,71,151,18,1,,
,,,,,,,,,,,,,,1,001,2024-08-26_22h40.26.551,IAT(Formal),2021.2.3,Win32,59.73002031,,,,,,,,,,,,,,,,,,,,,,,,,,,,,,,,,,,,,,,,,,,,,,,,,,,,虚伪,i,,,e,0,0.00135,1,72,152,31,1,,
,,,,,,,,,,,,,,1,001,2024-08-26_22h40.26.551,IAT(Formal),2021.2.3,Win32,59.73002031,,,,,,,,,,,,,,,,,,,,,,,,,,,,,,,,,,,,,,,,,,,,,,,,,,,,下贱,i,,,e,0,0.009575,1,73,153,49,1,,
,,,,,,,,,,,,,,1,001,2024-08-26_22h40.26.551,IAT(Formal),2021.2.3,Win32,59.73002031,,,,,,,,,,,,,,,,,,,,,,,,,,,,,,,,,,,,,,,,,,,,,,,,,,,,我,i,,,i,1,0.016045,1,74,154,0,1,,
,,,,,,,,,,,,,,1,001,2024-08-26_22h40.26.551,IAT(Formal),2021.2.3,Win32,59.73002031,,,,,,,,,,,,,,,,,,,,,,,,,,,,,,,,,,,,,,,,,,,,,,,,,,,,刻薄,i,,,i,1,0.072775,1,75,155,33,1,,
,,,,,,,,,,,,,,1,001,2024-08-26_22h40.26.551,IAT(Formal),2021.2.3,Win32,59.73002031,,,,,,,,,,,,,,,,,,,,,,,,,,,,,,,,,,,,,,,,,,,,,,,,,,,,机智,e,,,i,0,0.07975,1,76,156,19,1,,
,,,,,,,,,,,,,,1,001,2024-08-26_22h40.26.551,IAT(Formal),2021.2.3,Win32,59.73002031,,,,,,,,,,,,,,,,,,,,,,,,,,,,,,,,,,,,,,,,,,,,,,,,,,,,俺,i,,,i,1,0.06217,1,77,157,4,1,,
,,,,,,,,,,,,,,1,001,2024-08-26_22h40.26.551,IAT(Formal),2021.2.3,Win32,59.73002031,,,,,,,,,,,,,,,,,,,,,,,,,,,,,,,,,,,,,,,,,,,,,,,,,,,,正直,e,,,i,0,0.00415,1,78,158,16,1,,
,,,,,,,,,,,,,,1,001,2024-08-26_22h40.26.551,IAT(Formal),2021.2.3,Win32,59.73002031,,,,,,,,,,,,,,,,,,,,,,,,,,,,,,,,,,,,,,,,,,,,,,,,,,,,热情,e,,,e,1,0.236975,1,79,159,27,1,,
,,,,,,,,,,,,,,1,001,2024-08-26_22h40.26.551,IAT(Formal),2021.2.3,Win32,59.73002031,,,,,,,,,,,,,,,,,,,,,,,,,,,,,,,,,,,,,,,,,,,,,,,,,,,,,,,,,,,,,,,,space,2.17737