"X.Instruction1.keys","Instruction1.rt","Instruction2.keys","Instruction2.rt","key_resp_iso.keys","key_resp_iso.corr","key_resp_iso.rt","Practice_01.thisRepN","Practice_01.thisTrialN","Practice_01.thisN","Practice_01.thisIndex","Practice_01.ran","Words","ans","participant","session","date","expName","psychopyVersion","OS","frameRate","key_resp_3.keys","key_resp_3.rt","key_resp_ipn.keys","key_resp_ipn.corr","key_resp_ipn.rt","Practice_02.thisRepN","Practice_02.thisTrialN","Practice_02.thisN","Practice_02.thisIndex","Practice_02.ran","Words_ipn","ans_ipn","key_resp_4.keys","key_resp_4.rt","key_resp_t1.keys","key_resp_t1.corr","key_resp_t1.rt","Practice_T1.thisRepN","Practice_T1.thisTrialN","Practice_T1.thisN","Practice_T1.thisIndex","Practice_T1.ran","Words_t1","ans_t1","key_resp_5.keys","key_resp_5.rt","Formal_T1.thisRepN","Formal_T1.thisTrialN","Formal_T1.thisN","Formal_T1.thisIndex","Formal_T1.ran","key_resp_6.keys","key_resp_6.rt","key_resp_iso_reverse.keys","key_resp_iso_reverse.corr","key_resp_iso_reverse.rt","Practice_iso_Reverse.thisRepN","Practice_iso_Reverse.thisTrialN","Practice_iso_Reverse.thisN","Practice_iso_Reverse.thisIndex","Practice_iso_Reverse.ran","key_resp_7.keys","key_resp_7.rt","key_resp_t2_Practice.keys","key_resp_t2_Practice.corr","key_resp_t2_Practice.rt","Practice_t2_Reverse.thisRepN","Practice_t2_Reverse.thisTrialN","Practice_t2_Reverse.thisN","Practice_t2_Reverse.thisIndex","Practice_t2_Reverse.ran","Words_t2","ans_t2","key_resp_8.keys","key_resp_8.rt","key_resp_t2.keys","key_resp_t2.corr","key_resp_t2.rt","Formal_t2_reverse.thisRepN","Formal_t2_reverse.thisTrialN","Formal_t2_reverse.thisN","Formal_t2_reverse.thisIndex","Formal_t2_reverse.ran","key_instruct.keys","key_instruct.rt","Subject"
"space",21.6696,"space",3.1266,"e",1,0.4186,0,0,0,3,1,"自己","e",1,1,"2024-08-28_14h04.14.773","IAT(Formal)","2021.2.3","Win32",60.24096386,"",NA,"",NA,NA,NA,NA,NA,NA,NA,"","","",NA,"",NA,NA,NA,NA,NA,NA,NA,"","","",NA,NA,NA,NA,NA,NA,"",NA,"",NA,NA,NA,NA,NA,NA,NA,"",NA,"",NA,NA,NA,NA,NA,NA,NA,"","","",NA,"",NA,NA,NA,NA,NA,NA,NA,"",NA,"35"
"",NA,"",NA,"e",1,0.5737,0,1,1,4,1,"俺","e",1,1,"2024-08-28_14h04.14.773","IAT(Formal)","2021.2.3","Win32",60.24096386,"",NA,"",NA,NA,NA,NA,NA,NA,NA,"","","",NA,"",NA,NA,NA,NA,NA,NA,NA,"","","",NA,NA,NA,NA,NA,NA,"",NA,"",NA,NA,NA,NA,NA,NA,NA,"",NA,"",NA,NA,NA,NA,NA,NA,NA,"","","",NA,"",NA,NA,NA,NA,NA,NA,NA,"",NA,"35"
"",NA,"",NA,"i",1,0.4175,0,2,2,7,1,"他的","i",1,1,"2024-08-28_14h04.14.773","IAT(Formal)","2021.2.3","Win32",60.24096386,"",NA,"",NA,NA,NA,NA,NA,NA,NA,"","","",NA,"",NA,NA,NA,NA,NA,NA,NA,"","","",NA,NA,NA,NA,NA,NA,"",NA,"",NA,NA,NA,NA,NA,NA,NA,"",NA,"",NA,NA,NA,NA,NA,NA,NA,"","","",NA,"",NA,NA,NA,NA,NA,NA,NA,"",NA,"35"
"",NA,"",NA,"e",1,0.3845,0,3,3,1,1,"我的","e",1,1,"2024-08-28_14h04.14.773","IAT(Formal)","2021.2.3","Win32",60.24096386,"",NA,"",NA,NA,NA,NA,NA,NA,NA,"","","",NA,"",NA,NA,NA,NA,NA,NA,NA,"","","",NA,NA,NA,NA,NA,NA,"",NA,"",NA,NA,NA,NA,NA,NA,NA,"",NA,"",NA,NA,NA,NA,NA,NA,NA,"","","",NA,"",NA,NA,NA,NA,NA,NA,NA,"",NA,"35"
"",NA,"",NA,"e",1,0.4402,0,4,4,0,1,"我","e",1,1,"2024-08-28_14h04.14.773","IAT(Formal)","2021.2.3","Win32",60.24096386,"",NA,"",NA,NA,NA,NA,NA,NA,NA,"","","",NA,"",NA,NA,NA,NA,NA,NA,NA,"","","",NA,NA,NA,NA,NA,NA,"",NA,"",NA,NA,NA,NA,NA,NA,NA,"",NA,"",NA,NA,NA,NA,NA,NA,NA,"","","",NA,"",NA,NA,NA,NA,NA,NA,NA,"",NA,"35"
"",NA,"",NA,"i",1,0.4718,0,5,5,5,1,"他","i",1,1,"2024-08-28_14h04.14.773","IAT(Formal)","2021.2.3","Win32",60.24096386,"",NA,"",NA,NA,NA,NA,NA,NA,NA,"","","",NA,"",NA,NA,NA,NA,NA,NA,NA,"","","",NA,NA,NA,NA,NA,NA,"",NA,"",NA,NA,NA,NA,NA,NA,NA,"",NA,"",NA,NA,NA,NA,NA,NA,NA,"","","",NA,"",NA,NA,NA,NA,NA,NA,NA,"",NA,"35"
"",NA,"",NA,"i",1,0.5365,0,6,6,8,1,"他人","i",1,1,"2024-08-28_14h04.14.773","IAT(Formal)","2021.2.3","Win32",60.24096386,"",NA,"",NA,NA,NA,NA,NA,NA,NA,"","","",NA,"",NA,NA,NA,NA,NA,NA,NA,"","","",NA,NA,NA,NA,NA,NA,"",NA,"",NA,NA,NA,NA,NA,NA,NA,"",NA,"",NA,NA,NA,NA,NA,NA,NA,"","","",NA,"",NA,NA,NA,NA,NA,NA,NA,"",NA,"35"
"",NA,"",NA,"e",1,0.4934,0,7,7,2,1,"我们","e",1,1,"2024-08-28_14h04.14.773","IAT(Formal)","2021.2.3","Win32",60.24096386,"",NA,"",NA,NA,NA,NA,NA,NA,NA,"","","",NA,"",NA,NA,NA,NA,NA,NA,NA,"","","",NA,NA,NA,NA,NA,NA,"",NA,"",NA,NA,NA,NA,NA,NA,NA,"",NA,"",NA,NA,NA,NA,NA,NA,NA,"","","",NA,"",NA,NA,NA,NA,NA,NA,NA,"",NA,"35"
"",NA,"",NA,"i",1,0.418,0,8,8,6,1,"他们","i",1,1,"2024-08-28_14h04.14.773","IAT(Formal)","2021.2.3","Win32",60.24096386,"",NA,"",NA,NA,NA,NA,NA,NA,NA,"","","",NA,"",NA,NA,NA,NA,NA,NA,NA,"","","",NA,NA,NA,NA,NA,NA,"",NA,"",NA,NA,NA,NA,NA,NA,NA,"",NA,"",NA,NA,NA,NA,NA,NA,NA,"","","",NA,"",NA,NA,NA,NA,NA,NA,NA,"",NA,"35"
"",NA,"",NA,"i",1,0.5927,0,9,9,9,1,"其他","i",1,1,"2024-08-28_14h04.14.773","IAT(Formal)","2021.2.3","Win32",60.24096386,"",NA,"",NA,NA,NA,NA,NA,NA,NA,"","","",NA,"",NA,NA,NA,NA,NA,NA,NA,"","","",NA,NA,NA,NA,NA,NA,"",NA,"",NA,NA,NA,NA,NA,NA,NA,"",NA,"",NA,NA,NA,NA,NA,NA,NA,"","","",NA,"",NA,NA,NA,NA,NA,NA,NA,"",NA,"35"
"",NA,"",NA,"",NA,NA,NA,NA,NA,NA,NA,"","",1,1,"2024-08-28_14h04.14.773","IAT(Formal)","2021.2.3","Win32",60.24096386,"space",2.4585,"i",1,0.5372,0,0,0,30,1,"执拗","i","",NA,"",NA,NA,NA,NA,NA,NA,NA,"","","",NA,NA,NA,NA,NA,NA,"",NA,"",NA,NA,NA,NA,NA,NA,NA,"",NA,"",NA,NA,NA,NA,NA,NA,NA,"","","",NA,"",NA,NA,NA,NA,NA,NA,NA,"",NA,"35"
"",NA,"",NA,"",NA,NA,NA,NA,NA,NA,NA,"","",1,1,"2024-08-28_14h04.14.773","IAT(Formal)","2021.2.3","Win32",60.24096386,"",NA,"e",1,0.5305,0,1,1,14,1,"朴实","e","",NA,"",NA,NA,NA,NA,NA,NA,NA,"","","",NA,NA,NA,NA,NA,NA,"",NA,"",NA,NA,NA,NA,NA,NA,NA,"",NA,"",NA,NA,NA,NA,NA,NA,NA,"","","",NA,"",NA,NA,NA,NA,NA,NA,NA,"",NA,"35"
"",NA,"",NA,"",NA,NA,NA,NA,NA,NA,NA,"","",1,1,"2024-08-28_14h04.14.773","IAT(Formal)","2021.2.3","Win32",60.24096386,"",NA,"e",1,0.4529,0,2,2,4,1,"乐观","e","",NA,"",NA,NA,NA,NA,NA,NA,NA,"","","",NA,NA,NA,NA,NA,NA,"",NA,"",NA,NA,NA,NA,NA,NA,NA,"",NA,"",NA,NA,NA,NA,NA,NA,NA,"","","",NA,"",NA,NA,NA,NA,NA,NA,NA,"",NA,"35"
"",NA,"",NA,"",NA,NA,NA,NA,NA,NA,NA,"","",1,1,"2024-08-28_14h04.14.773","IAT(Formal)","2021.2.3","Win32",60.24096386,"",NA,"i",1,0.5361,0,3,3,37,1,"固执","i","",NA,"",NA,NA,NA,NA,NA,NA,NA,"","","",NA,NA,NA,NA,NA,NA,"",NA,"",NA,NA,NA,NA,NA,NA,NA,"",NA,"",NA,NA,NA,NA,NA,NA,NA,"","","",NA,"",NA,NA,NA,NA,NA,NA,NA,"",NA,"35"
"",NA,"",NA,"",NA,NA,NA,NA,NA,NA,NA,"","",1,1,"2024-08-28_14h04.14.773","IAT(Formal)","2021.2.3","Win32",60.24096386,"",NA,"i",1,0.5296,0,4,4,29,1,"冒失","i","",NA,"",NA,NA,NA,NA,NA,NA,NA,"","","",NA,NA,NA,NA,NA,NA,"",NA,"",NA,NA,NA,NA,NA,NA,NA,"",NA,"",NA,NA,NA,NA,NA,NA,NA,"","","",NA,"",NA,NA,NA,NA,NA,NA,NA,"",NA,"35"
"",NA,"",NA,"",NA,NA,NA,NA,NA,NA,NA,"","",1,1,"2024-08-28_14h04.14.773","IAT(Formal)","2021.2.3","Win32",60.24096386,"",NA,"i",1,0.6301,0,5,5,20,1,"卑鄙","i","",NA,"",NA,NA,NA,NA,NA,NA,NA,"","","",NA,NA,NA,NA,NA,NA,"",NA,"",NA,NA,NA,NA,NA,NA,NA,"",NA,"",NA,NA,NA,NA,NA,NA,NA,"","","",NA,"",NA,NA,NA,NA,NA,NA,NA,"",NA,"35"
"",NA,"",NA,"",NA,NA,NA,NA,NA,NA,NA,"","",1,1,"2024-08-28_14h04.14.773","IAT(Formal)","2021.2.3","Win32",60.24096386,"",NA,"i",1,0.4647,0,6,6,36,1,"野蛮","i","",NA,"",NA,NA,NA,NA,NA,NA,NA,"","","",NA,NA,NA,NA,NA,NA,"",NA,"",NA,NA,NA,NA,NA,NA,NA,"",NA,"",NA,NA,NA,NA,NA,NA,NA,"","","",NA,"",NA,NA,NA,NA,NA,NA,NA,"",NA,"35"
"",NA,"",NA,"",NA,NA,NA,NA,NA,NA,NA,"","",1,1,"2024-08-28_14h04.14.773","IAT(Formal)","2021.2.3","Win32",60.24096386,"",NA,"i",1,0.5304,0,7,7,27,1,"傲慢","i","",NA,"",NA,NA,NA,NA,NA,NA,NA,"","","",NA,NA,NA,NA,NA,NA,"",NA,"",NA,NA,NA,NA,NA,NA,NA,"",NA,"",NA,NA,NA,NA,NA,NA,NA,"","","",NA,"",NA,NA,NA,NA,NA,NA,NA,"",NA,"35"
"",NA,"",NA,"",NA,NA,NA,NA,NA,NA,NA,"","",1,1,"2024-08-28_14h04.14.773","IAT(Formal)","2021.2.3","Win32",60.24096386,"",NA,"e",1,0.5486,0,8,8,6,1,"正直","e","",NA,"",NA,NA,NA,NA,NA,NA,NA,"","","",NA,NA,NA,NA,NA,NA,"",NA,"",NA,NA,NA,NA,NA,NA,NA,"",NA,"",NA,NA,NA,NA,NA,NA,NA,"","","",NA,"",NA,NA,NA,NA,NA,NA,NA,"",NA,"35"
"",NA,"",NA,"",NA,NA,NA,NA,NA,NA,NA,"","",1,1,"2024-08-28_14h04.14.773","IAT(Formal)","2021.2.3","Win32",60.24096386,"",NA,"e",1,0.4504,0,9,9,3,1,"杰出","e","",NA,"",NA,NA,NA,NA,NA,NA,NA,"","","",NA,NA,NA,NA,NA,NA,"",NA,"",NA,NA,NA,NA,NA,NA,NA,"",NA,"",NA,NA,NA,NA,NA,NA,NA,"","","",NA,"",NA,NA,NA,NA,NA,NA,NA,"",NA,"35"
"",NA,"",NA,"",NA,NA,NA,NA,NA,NA,NA,"","",1,1,"2024-08-28_14h04.14.773","IAT(Formal)","2021.2.3","Win32",60.24096386,"",NA,"e",1,0.4151,0,10,10,10,1,"认真","e","",NA,"",NA,NA,NA,NA,NA,NA,NA,"","","",NA,NA,NA,NA,NA,NA,"",NA,"",NA,NA,NA,NA,NA,NA,NA,"",NA,"",NA,NA,NA,NA,NA,NA,NA,"","","",NA,"",NA,NA,NA,NA,NA,NA,NA,"",NA,"35"
"",NA,"",NA,"",NA,NA,NA,NA,NA,NA,NA,"","",1,1,"2024-08-28_14h04.14.773","IAT(Formal)","2021.2.3","Win32",60.24096386,"",NA,"i",1,0.5145,0,11,11,22,1,"愚蠢","i","",NA,"",NA,NA,NA,NA,NA,NA,NA,"","","",NA,NA,NA,NA,NA,NA,"",NA,"",NA,NA,NA,NA,NA,NA,NA,"",NA,"",NA,NA,NA,NA,NA,NA,NA,"","","",NA,"",NA,NA,NA,NA,NA,NA,NA,"",NA,"35"
"",NA,"",NA,"",NA,NA,NA,NA,NA,NA,NA,"","",1,1,"2024-08-28_14h04.14.773","IAT(Formal)","2021.2.3","Win32",60.24096386,"",NA,"e",1,0.3963,0,12,12,13,1,"公正","e","",NA,"",NA,NA,NA,NA,NA,NA,NA,"","","",NA,NA,NA,NA,NA,NA,"",NA,"",NA,NA,NA,NA,NA,NA,NA,"",NA,"",NA,NA,NA,NA,NA,NA,NA,"","","",NA,"",NA,NA,NA,NA,NA,NA,NA,"",NA,"35"
"",NA,"",NA,"",NA,NA,NA,NA,NA,NA,NA,"","",1,1,"2024-08-28_14h04.14.773","IAT(Formal)","2021.2.3","Win32",60.24096386,"",NA,"e",1,0.477,0,13,13,8,1,"勤奋","e","",NA,"",NA,NA,NA,NA,NA,NA,NA,"","","",NA,NA,NA,NA,NA,NA,"",NA,"",NA,NA,NA,NA,NA,NA,NA,"",NA,"",NA,NA,NA,NA,NA,NA,NA,"","","",NA,"",NA,NA,NA,NA,NA,NA,NA,"",NA,"35"
"",NA,"",NA,"",NA,NA,NA,NA,NA,NA,NA,"","",1,1,"2024-08-28_14h04.14.773","IAT(Formal)","2021.2.3","Win32",60.24096386,"",NA,"e",1,0.4832,0,14,14,16,1,"冷静","e","",NA,"",NA,NA,NA,NA,NA,NA,NA,"","","",NA,NA,NA,NA,NA,NA,"",NA,"",NA,NA,NA,NA,NA,NA,NA,"",NA,"",NA,NA,NA,NA,NA,NA,NA,"","","",NA,"",NA,NA,NA,NA,NA,NA,NA,"",NA,"35"
"",NA,"",NA,"",NA,NA,NA,NA,NA,NA,NA,"","",1,1,"2024-08-28_14h04.14.773","IAT(Formal)","2021.2.3","Win32",60.24096386,"",NA,"e",1,0.4963,0,15,15,15,1,"细腻","e","",NA,"",NA,NA,NA,NA,NA,NA,NA,"","","",NA,NA,NA,NA,NA,NA,"",NA,"",NA,NA,NA,NA,NA,NA,NA,"",NA,"",NA,NA,NA,NA,NA,NA,NA,"","","",NA,"",NA,NA,NA,NA,NA,NA,NA,"",NA,"35"
"",NA,"",NA,"",NA,NA,NA,NA,NA,NA,NA,"","",1,1,"2024-08-28_14h04.14.773","IAT(Formal)","2021.2.3","Win32",60.24096386,"",NA,"e",1,0.4428,0,16,16,19,1,"诚恳","e","",NA,"",NA,NA,NA,NA,NA,NA,NA,"","","",NA,NA,NA,NA,NA,NA,"",NA,"",NA,NA,NA,NA,NA,NA,NA,"",NA,"",NA,NA,NA,NA,NA,NA,NA,"","","",NA,"",NA,NA,NA,NA,NA,NA,NA,"",NA,"35"
"",NA,"",NA,"",NA,NA,NA,NA,NA,NA,NA,"","",1,1,"2024-08-28_14h04.14.773","IAT(Formal)","2021.2.3","Win32",60.24096386,"",NA,"i",1,0.5781,0,17,17,24,1,"悲观","i","",NA,"",NA,NA,NA,NA,NA,NA,NA,"","","",NA,NA,NA,NA,NA,NA,"",NA,"",NA,NA,NA,NA,NA,NA,NA,"",NA,"",NA,NA,NA,NA,NA,NA,NA,"","","",NA,"",NA,NA,NA,NA,NA,NA,NA,"",NA,"35"
"",NA,"",NA,"",NA,NA,NA,NA,NA,NA,NA,"","",1,1,"2024-08-28_14h04.14.773","IAT(Formal)","2021.2.3","Win32",60.24096386,"",NA,"e",1,0.4967,0,18,18,0,1,"优秀","e","",NA,"",NA,NA,NA,NA,NA,NA,NA,"","","",NA,NA,NA,NA,NA,NA,"",NA,"",NA,NA,NA,NA,NA,NA,NA,"",NA,"",NA,NA,NA,NA,NA,NA,NA,"","","",NA,"",NA,NA,NA,NA,NA,NA,NA,"",NA,"35"
"",NA,"",NA,"",NA,NA,NA,NA,NA,NA,NA,"","",1,1,"2024-08-28_14h04.14.773","IAT(Formal)","2021.2.3","Win32",60.24096386,"",NA,"e",1,0.474,0,19,19,7,1,"勇敢","e","",NA,"",NA,NA,NA,NA,NA,NA,NA,"","","",NA,NA,NA,NA,NA,NA,"",NA,"",NA,NA,NA,NA,NA,NA,NA,"",NA,"",NA,NA,NA,NA,NA,NA,NA,"","","",NA,"",NA,NA,NA,NA,NA,NA,NA,"",NA,"35"
"",NA,"",NA,"",NA,NA,NA,NA,NA,NA,NA,"","",1,1,"2024-08-28_14h04.14.773","IAT(Formal)","2021.2.3","Win32",60.24096386,"",NA,"i",1,0.753,0,20,20,23,1,"刻薄","i","",NA,"",NA,NA,NA,NA,NA,NA,NA,"","","",NA,NA,NA,NA,NA,NA,"",NA,"",NA,NA,NA,NA,NA,NA,NA,"",NA,"",NA,NA,NA,NA,NA,NA,NA,"","","",NA,"",NA,NA,NA,NA,NA,NA,NA,"",NA,"35"
"",NA,"",NA,"",NA,NA,NA,NA,NA,NA,NA,"","",1,1,"2024-08-28_14h04.14.773","IAT(Formal)","2021.2.3","Win32",60.24096386,"",NA,"e",1,0.3824,0,21,21,1,1,"崇高","e","",NA,"",NA,NA,NA,NA,NA,NA,NA,"","","",NA,NA,NA,NA,NA,NA,"",NA,"",NA,NA,NA,NA,NA,NA,NA,"",NA,"",NA,NA,NA,NA,NA,NA,NA,"","","",NA,"",NA,NA,NA,NA,NA,NA,NA,"",NA,"35"
"",NA,"",NA,"",NA,NA,NA,NA,NA,NA,NA,"","",1,1,"2024-08-28_14h04.14.773","IAT(Formal)","2021.2.3","Win32",60.24096386,"",NA,"i",1,0.4533,0,22,22,39,1,"下贱","i","",NA,"",NA,NA,NA,NA,NA,NA,NA,"","","",NA,NA,NA,NA,NA,NA,"",NA,"",NA,NA,NA,NA,NA,NA,NA,"",NA,"",NA,NA,NA,NA,NA,NA,NA,"","","",NA,"",NA,NA,NA,NA,NA,NA,NA,"",NA,"35"
"",NA,"",NA,"",NA,NA,NA,NA,NA,NA,NA,"","",1,1,"2024-08-28_14h04.14.773","IAT(Formal)","2021.2.3","Win32",60.24096386,"",NA,"e",1,0.3675,0,23,23,17,1,"热情","e","",NA,"",NA,NA,NA,NA,NA,NA,NA,"","","",NA,NA,NA,NA,NA,NA,"",NA,"",NA,NA,NA,NA,NA,NA,NA,"",NA,"",NA,NA,NA,NA,NA,NA,NA,"","","",NA,"",NA,NA,NA,NA,NA,NA,NA,"",NA,"35"
"",NA,"",NA,"",NA,NA,NA,NA,NA,NA,NA,"","",1,1,"2024-08-28_14h04.14.773","IAT(Formal)","2021.2.3","Win32",60.24096386,"",NA,"i",1,0.5658,0,24,24,31,1,"散漫","i","",NA,"",NA,NA,NA,NA,NA,NA,NA,"","","",NA,NA,NA,NA,NA,NA,"",NA,"",NA,NA,NA,NA,NA,NA,NA,"",NA,"",NA,NA,NA,NA,NA,NA,NA,"","","",NA,"",NA,NA,NA,NA,NA,NA,NA,"",NA,"35"
"",NA,"",NA,"",NA,NA,NA,NA,NA,NA,NA,"","",1,1,"2024-08-28_14h04.14.773","IAT(Formal)","2021.2.3","Win32",60.24096386,"",NA,"e",1,0.5482,0,25,25,12,1,"无私","e","",NA,"",NA,NA,NA,NA,NA,NA,NA,"","","",NA,NA,NA,NA,NA,NA,"",NA,"",NA,NA,NA,NA,NA,NA,NA,"",NA,"",NA,NA,NA,NA,NA,NA,NA,"","","",NA,"",NA,NA,NA,NA,NA,NA,NA,"",NA,"35"
"",NA,"",NA,"",NA,NA,NA,NA,NA,NA,NA,"","",1,1,"2024-08-28_14h04.14.773","IAT(Formal)","2021.2.3","Win32",60.24096386,"",NA,"e",1,0.5147,0,26,26,2,1,"聪明","e","",NA,"",NA,NA,NA,NA,NA,NA,NA,"","","",NA,NA,NA,NA,NA,NA,"",NA,"",NA,NA,NA,NA,NA,NA,NA,"",NA,"",NA,NA,NA,NA,NA,NA,NA,"","","",NA,"",NA,NA,NA,NA,NA,NA,NA,"",NA,"35"
"",NA,"",NA,"",NA,NA,NA,NA,NA,NA,NA,"","",1,1,"2024-08-28_14h04.14.773","IAT(Formal)","2021.2.3","Win32",60.24096386,"",NA,"i",1,0.4674,0,27,27,33,1,"自私","i","",NA,"",NA,NA,NA,NA,NA,NA,NA,"","","",NA,NA,NA,NA,NA,NA,"",NA,"",NA,NA,NA,NA,NA,NA,NA,"",NA,"",NA,NA,NA,NA,NA,NA,NA,"","","",NA,"",NA,NA,NA,NA,NA,NA,NA,"",NA,"35"
"",NA,"",NA,"",NA,NA,NA,NA,NA,NA,NA,"","",1,1,"2024-08-28_14h04.14.773","IAT(Formal)","2021.2.3","Win32",60.24096386,"",NA,"i",1,0.5108,0,28,28,32,1,"凶狠","i","",NA,"",NA,NA,NA,NA,NA,NA,NA,"","","",NA,NA,NA,NA,NA,NA,"",NA,"",NA,NA,NA,NA,NA,NA,NA,"",NA,"",NA,NA,NA,NA,NA,NA,NA,"","","",NA,"",NA,NA,NA,NA,NA,NA,NA,"",NA,"35"
"",NA,"",NA,"",NA,NA,NA,NA,NA,NA,NA,"","",1,1,"2024-08-28_14h04.14.773","IAT(Formal)","2021.2.3","Win32",60.24096386,"",NA,"i",1,0.4995,0,29,29,34,1,"暴躁","i","",NA,"",NA,NA,NA,NA,NA,NA,NA,"","","",NA,NA,NA,NA,NA,NA,"",NA,"",NA,NA,NA,NA,NA,NA,NA,"",NA,"",NA,NA,NA,NA,NA,NA,NA,"","","",NA,"",NA,NA,NA,NA,NA,NA,NA,"",NA,"35"
"",NA,"",NA,"",NA,NA,NA,NA,NA,NA,NA,"","",1,1,"2024-08-28_14h04.14.773","IAT(Formal)","2021.2.3","Win32",60.24096386,"",NA,"i",1,0.479,0,30,30,21,1,"虚伪","i","",NA,"",NA,NA,NA,NA,NA,NA,NA,"","","",NA,NA,NA,NA,NA,NA,"",NA,"",NA,NA,NA,NA,NA,NA,NA,"",NA,"",NA,NA,NA,NA,NA,NA,NA,"","","",NA,"",NA,NA,NA,NA,NA,NA,NA,"",NA,"35"
"",NA,"",NA,"",NA,NA,NA,NA,NA,NA,NA,"","",1,1,"2024-08-28_14h04.14.773","IAT(Formal)","2021.2.3","Win32",60.24096386,"",NA,"i",1,0.486,0,31,31,38,1,"轻率","i","",NA,"",NA,NA,NA,NA,NA,NA,NA,"","","",NA,NA,NA,NA,NA,NA,"",NA,"",NA,NA,NA,NA,NA,NA,NA,"",NA,"",NA,NA,NA,NA,NA,NA,NA,"","","",NA,"",NA,NA,NA,NA,NA,NA,NA,"",NA,"35"
"",NA,"",NA,"",NA,NA,NA,NA,NA,NA,NA,"","",1,1,"2024-08-28_14h04.14.773","IAT(Formal)","2021.2.3","Win32",60.24096386,"",NA,"i",1,0.6183,0,32,32,26,1,"自卑","i","",NA,"",NA,NA,NA,NA,NA,NA,NA,"","","",NA,NA,NA,NA,NA,NA,"",NA,"",NA,NA,NA,NA,NA,NA,NA,"",NA,"",NA,NA,NA,NA,NA,NA,NA,"","","",NA,"",NA,NA,NA,NA,NA,NA,NA,"",NA,"35"
"",NA,"",NA,"",NA,NA,NA,NA,NA,NA,NA,"","",1,1,"2024-08-28_14h04.14.773","IAT(Formal)","2021.2.3","Win32",60.24096386,"",NA,"e",1,0.4946,0,33,33,11,1,"稳重","e","",NA,"",NA,NA,NA,NA,NA,NA,NA,"","","",NA,NA,NA,NA,NA,NA,"",NA,"",NA,NA,NA,NA,NA,NA,NA,"",NA,"",NA,NA,NA,NA,NA,NA,NA,"","","",NA,"",NA,NA,NA,NA,NA,NA,NA,"",NA,"35"
"",NA,"",NA,"",NA,NA,NA,NA,NA,NA,NA,"","",1,1,"2024-08-28_14h04.14.773","IAT(Formal)","2021.2.3","Win32",60.24096386,"",NA,"i",1,0.8368,0,34,34,28,1,"鲁莽","i","",NA,"",NA,NA,NA,NA,NA,NA,NA,"","","",NA,NA,NA,NA,NA,NA,"",NA,"",NA,NA,NA,NA,NA,NA,NA,"",NA,"",NA,NA,NA,NA,NA,NA,NA,"","","",NA,"",NA,NA,NA,NA,NA,NA,NA,"",NA,"35"
"",NA,"",NA,"",NA,NA,NA,NA,NA,NA,NA,"","",1,1,"2024-08-28_14h04.14.773","IAT(Formal)","2021.2.3","Win32",60.24096386,"",NA,"i",1,0.6478,0,35,35,25,1,"消极","i","",NA,"",NA,NA,NA,NA,NA,NA,NA,"","","",NA,NA,NA,NA,NA,NA,"",NA,"",NA,NA,NA,NA,NA,NA,NA,"",NA,"",NA,NA,NA,NA,NA,NA,NA,"","","",NA,"",NA,NA,NA,NA,NA,NA,NA,"",NA,"35"
"",NA,"",NA,"",NA,NA,NA,NA,NA,NA,NA,"","",1,1,"2024-08-28_14h04.14.773","IAT(Formal)","2021.2.3","Win32",60.24096386,"",NA,"e",1,0.4029,0,36,36,18,1,"活泼","e","",NA,"",NA,NA,NA,NA,NA,NA,NA,"","","",NA,NA,NA,NA,NA,NA,"",NA,"",NA,NA,NA,NA,NA,NA,NA,"",NA,"",NA,NA,NA,NA,NA,NA,NA,"","","",NA,"",NA,NA,NA,NA,NA,NA,NA,"",NA,"35"
"",NA,"",NA,"",NA,NA,NA,NA,NA,NA,NA,"","",1,1,"2024-08-28_14h04.14.773","IAT(Formal)","2021.2.3","Win32",60.24096386,"",NA,"e",1,0.5574,0,37,37,5,1,"诚实","e","",NA,"",NA,NA,NA,NA,NA,NA,NA,"","","",NA,NA,NA,NA,NA,NA,"",NA,"",NA,NA,NA,NA,NA,NA,NA,"",NA,"",NA,NA,NA,NA,NA,NA,NA,"","","",NA,"",NA,NA,NA,NA,NA,NA,NA,"",NA,"35"
"",NA,"",NA,"",NA,NA,NA,NA,NA,NA,NA,"","",1,1,"2024-08-28_14h04.14.773","IAT(Formal)","2021.2.3","Win32",60.24096386,"",NA,"e",1,1.1139,0,38,38,9,1,"机智","e","",NA,"",NA,NA,NA,NA,NA,NA,NA,"","","",NA,NA,NA,NA,NA,NA,"",NA,"",NA,NA,NA,NA,NA,NA,NA,"",NA,"",NA,NA,NA,NA,NA,NA,NA,"","","",NA,"",NA,NA,NA,NA,NA,NA,NA,"",NA,"35"
"",NA,"",NA,"",NA,NA,NA,NA,NA,NA,NA,"","",1,1,"2024-08-28_14h04.14.773","IAT(Formal)","2021.2.3","Win32",60.24096386,"",NA,"i",1,0.4568,0,39,39,35,1,"猖狂","i","",NA,"",NA,NA,NA,NA,NA,NA,NA,"","","",NA,NA,NA,NA,NA,NA,"",NA,"",NA,NA,NA,NA,NA,NA,NA,"",NA,"",NA,NA,NA,NA,NA,NA,NA,"","","",NA,"",NA,NA,NA,NA,NA,NA,NA,"",NA,"35"
"",NA,"",NA,"",NA,NA,NA,NA,NA,NA,NA,"","",1,1,"2024-08-28_14h04.14.773","IAT(Formal)","2021.2.3","Win32",60.24096386,"",NA,"",NA,NA,NA,NA,NA,NA,NA,"","","space",2.7278,"e",1,0.3709,0,0,0,50,1,"我","e","",NA,NA,NA,NA,NA,NA,"",NA,"",NA,NA,NA,NA,NA,NA,NA,"",NA,"",NA,NA,NA,NA,NA,NA,NA,"","","",NA,"",NA,NA,NA,NA,NA,NA,NA,"",NA,"35"
"",NA,"",NA,"",NA,NA,NA,NA,NA,NA,NA,"","",1,1,"2024-08-28_14h04.14.773","IAT(Formal)","2021.2.3","Win32",60.24096386,"",NA,"",NA,NA,NA,NA,NA,NA,NA,"","","",NA,"e",1,0.4208,0,1,1,16,1,"正直","e","",NA,NA,NA,NA,NA,NA,"",NA,"",NA,NA,NA,NA,NA,NA,NA,"",NA,"",NA,NA,NA,NA,NA,NA,NA,"","","",NA,"",NA,NA,NA,NA,NA,NA,NA,"",NA,"35"
"",NA,"",NA,"",NA,NA,NA,NA,NA,NA,NA,"","",1,1,"2024-08-28_14h04.14.773","IAT(Formal)","2021.2.3","Win32",60.24096386,"",NA,"",NA,NA,NA,NA,NA,NA,NA,"","","",NA,"i",1,0.423,0,2,2,47,1,"固执","i","",NA,NA,NA,NA,NA,NA,"",NA,"",NA,NA,NA,NA,NA,NA,NA,"",NA,"",NA,NA,NA,NA,NA,NA,NA,"","","",NA,"",NA,NA,NA,NA,NA,NA,NA,"",NA,"35"
"",NA,"",NA,"",NA,NA,NA,NA,NA,NA,NA,"","",1,1,"2024-08-28_14h04.14.773","IAT(Formal)","2021.2.3","Win32",60.24096386,"",NA,"",NA,NA,NA,NA,NA,NA,NA,"","","",NA,"i",1,0.4683,0,3,3,41,1,"散漫","i","",NA,NA,NA,NA,NA,NA,"",NA,"",NA,NA,NA,NA,NA,NA,NA,"",NA,"",NA,NA,NA,NA,NA,NA,NA,"","","",NA,"",NA,NA,NA,NA,NA,NA,NA,"",NA,"35"
"",NA,"",NA,"",NA,NA,NA,NA,NA,NA,NA,"","",1,1,"2024-08-28_14h04.14.773","IAT(Formal)","2021.2.3","Win32",60.24096386,"",NA,"",NA,NA,NA,NA,NA,NA,NA,"","","",NA,"e",1,0.5223,0,4,4,71,1,"我的","e","",NA,NA,NA,NA,NA,NA,"",NA,"",NA,NA,NA,NA,NA,NA,NA,"",NA,"",NA,NA,NA,NA,NA,NA,NA,"","","",NA,"",NA,NA,NA,NA,NA,NA,NA,"",NA,"35"
"",NA,"",NA,"",NA,NA,NA,NA,NA,NA,NA,"","",1,1,"2024-08-28_14h04.14.773","IAT(Formal)","2021.2.3","Win32",60.24096386,"",NA,"",NA,NA,NA,NA,NA,NA,NA,"","","",NA,"e",1,0.5357,0,5,5,61,1,"我的","e","",NA,NA,NA,NA,NA,NA,"",NA,"",NA,NA,NA,NA,NA,NA,NA,"",NA,"",NA,NA,NA,NA,NA,NA,NA,"","","",NA,"",NA,NA,NA,NA,NA,NA,NA,"",NA,"35"
"",NA,"",NA,"",NA,NA,NA,NA,NA,NA,NA,"","",1,1,"2024-08-28_14h04.14.773","IAT(Formal)","2021.2.3","Win32",60.24096386,"",NA,"",NA,NA,NA,NA,NA,NA,NA,"","","",NA,"e",1,0.6521,0,6,6,24,1,"朴实","e","",NA,NA,NA,NA,NA,NA,"",NA,"",NA,NA,NA,NA,NA,NA,NA,"",NA,"",NA,NA,NA,NA,NA,NA,NA,"","","",NA,"",NA,NA,NA,NA,NA,NA,NA,"",NA,"35"
"",NA,"",NA,"",NA,NA,NA,NA,NA,NA,NA,"","",1,1,"2024-08-28_14h04.14.773","IAT(Formal)","2021.2.3","Win32",60.24096386,"",NA,"",NA,NA,NA,NA,NA,NA,NA,"","","",NA,"i",1,0.6364,0,7,7,57,1,"他的","i","",NA,NA,NA,NA,NA,NA,"",NA,"",NA,NA,NA,NA,NA,NA,NA,"",NA,"",NA,NA,NA,NA,NA,NA,NA,"","","",NA,"",NA,NA,NA,NA,NA,NA,NA,"",NA,"35"
"",NA,"",NA,"",NA,NA,NA,NA,NA,NA,NA,"","",1,1,"2024-08-28_14h04.14.773","IAT(Formal)","2021.2.3","Win32",60.24096386,"",NA,"",NA,NA,NA,NA,NA,NA,NA,"","","",NA,"i",1,0.4929,0,8,8,46,1,"野蛮","i","",NA,NA,NA,NA,NA,NA,"",NA,"",NA,NA,NA,NA,NA,NA,NA,"",NA,"",NA,NA,NA,NA,NA,NA,NA,"","","",NA,"",NA,NA,NA,NA,NA,NA,NA,"",NA,"35"
"",NA,"",NA,"",NA,NA,NA,NA,NA,NA,NA,"","",1,1,"2024-08-28_14h04.14.773","IAT(Formal)","2021.2.3","Win32",60.24096386,"",NA,"",NA,NA,NA,NA,NA,NA,NA,"","","",NA,"i",1,0.6338,0,9,9,76,1,"他们","i","",NA,NA,NA,NA,NA,NA,"",NA,"",NA,NA,NA,NA,NA,NA,NA,"",NA,"",NA,NA,NA,NA,NA,NA,NA,"","","",NA,"",NA,NA,NA,NA,NA,NA,NA,"",NA,"35"
"",NA,"",NA,"",NA,NA,NA,NA,NA,NA,NA,"","",1,1,"2024-08-28_14h04.14.773","IAT(Formal)","2021.2.3","Win32",60.24096386,"",NA,"",NA,NA,NA,NA,NA,NA,NA,"","","",NA,"i",1,0.6042,0,10,10,56,1,"他们","i","",NA,NA,NA,NA,NA,NA,"",NA,"",NA,NA,NA,NA,NA,NA,NA,"",NA,"",NA,NA,NA,NA,NA,NA,NA,"","","",NA,"",NA,NA,NA,NA,NA,NA,NA,"",NA,"35"
"",NA,"",NA,"",NA,NA,NA,NA,NA,NA,NA,"","",1,1,"2024-08-28_14h04.14.773","IAT(Formal)","2021.2.3","Win32",60.24096386,"",NA,"",NA,NA,NA,NA,NA,NA,NA,"","","",NA,"i",1,0.6673,0,11,11,39,1,"冒失","i","",NA,NA,NA,NA,NA,NA,"",NA,"",NA,NA,NA,NA,NA,NA,NA,"",NA,"",NA,NA,NA,NA,NA,NA,NA,"","","",NA,"",NA,NA,NA,NA,NA,NA,NA,"",NA,"35"
"",NA,"",NA,"",NA,NA,NA,NA,NA,NA,NA,"","",1,1,"2024-08-28_14h04.14.773","IAT(Formal)","2021.2.3","Win32",60.24096386,"",NA,"",NA,NA,NA,NA,NA,NA,NA,"","","",NA,"i",1,0.8177,0,12,12,9,1,"其他","i","",NA,NA,NA,NA,NA,NA,"",NA,"",NA,NA,NA,NA,NA,NA,NA,"",NA,"",NA,NA,NA,NA,NA,NA,NA,"","","",NA,"",NA,NA,NA,NA,NA,NA,NA,"",NA,"35"
"",NA,"",NA,"",NA,NA,NA,NA,NA,NA,NA,"","",1,1,"2024-08-28_14h04.14.773","IAT(Formal)","2021.2.3","Win32",60.24096386,"",NA,"",NA,NA,NA,NA,NA,NA,NA,"","","",NA,"e",1,0.645,0,13,13,53,1,"自己","e","",NA,NA,NA,NA,NA,NA,"",NA,"",NA,NA,NA,NA,NA,NA,NA,"",NA,"",NA,NA,NA,NA,NA,NA,NA,"","","",NA,"",NA,NA,NA,NA,NA,NA,NA,"",NA,"35"
"",NA,"",NA,"",NA,NA,NA,NA,NA,NA,NA,"","",1,1,"2024-08-28_14h04.14.773","IAT(Formal)","2021.2.3","Win32",60.24096386,"",NA,"",NA,NA,NA,NA,NA,NA,NA,"","","",NA,"e",1,0.6505,0,14,14,74,1,"俺","e","",NA,NA,NA,NA,NA,NA,"",NA,"",NA,NA,NA,NA,NA,NA,NA,"",NA,"",NA,NA,NA,NA,NA,NA,NA,"","","",NA,"",NA,NA,NA,NA,NA,NA,NA,"",NA,"35"
"",NA,"",NA,"",NA,NA,NA,NA,NA,NA,NA,"","",1,1,"2024-08-28_14h04.14.773","IAT(Formal)","2021.2.3","Win32",60.24096386,"",NA,"",NA,NA,NA,NA,NA,NA,NA,"","","",NA,"e",1,0.6398,0,15,15,21,1,"稳重","e","",NA,NA,NA,NA,NA,NA,"",NA,"",NA,NA,NA,NA,NA,NA,NA,"",NA,"",NA,NA,NA,NA,NA,NA,NA,"","","",NA,"",NA,NA,NA,NA,NA,NA,NA,"",NA,"35"
"",NA,"",NA,"",NA,NA,NA,NA,NA,NA,NA,"","",1,1,"2024-08-28_14h04.14.773","IAT(Formal)","2021.2.3","Win32",60.24096386,"",NA,"",NA,NA,NA,NA,NA,NA,NA,"","","",NA,"e",1,0.467,0,16,16,29,1,"诚恳","e","",NA,NA,NA,NA,NA,NA,"",NA,"",NA,NA,NA,NA,NA,NA,NA,"",NA,"",NA,NA,NA,NA,NA,NA,NA,"","","",NA,"",NA,NA,NA,NA,NA,NA,NA,"",NA,"35"
"",NA,"",NA,"",NA,NA,NA,NA,NA,NA,NA,"","",1,1,"2024-08-28_14h04.14.773","IAT(Formal)","2021.2.3","Win32",60.24096386,"",NA,"",NA,NA,NA,NA,NA,NA,NA,"","","",NA,"i",1,0.7044,0,17,17,55,1,"他","i","",NA,NA,NA,NA,NA,NA,"",NA,"",NA,NA,NA,NA,NA,NA,NA,"",NA,"",NA,NA,NA,NA,NA,NA,NA,"","","",NA,"",NA,NA,NA,NA,NA,NA,NA,"",NA,"35"
"",NA,"",NA,"",NA,NA,NA,NA,NA,NA,NA,"","",1,1,"2024-08-28_14h04.14.773","IAT(Formal)","2021.2.3","Win32",60.24096386,"",NA,"",NA,NA,NA,NA,NA,NA,NA,"","","",NA,"e",1,0.4771,0,18,18,60,1,"我","e","",NA,NA,NA,NA,NA,NA,"",NA,"",NA,NA,NA,NA,NA,NA,NA,"",NA,"",NA,NA,NA,NA,NA,NA,NA,"","","",NA,"",NA,NA,NA,NA,NA,NA,NA,"",NA,"35"
"",NA,"",NA,"",NA,NA,NA,NA,NA,NA,NA,"","",1,1,"2024-08-28_14h04.14.773","IAT(Formal)","2021.2.3","Win32",60.24096386,"",NA,"",NA,NA,NA,NA,NA,NA,NA,"","","",NA,"e",1,0.6317,0,19,19,18,1,"勤奋","e","",NA,NA,NA,NA,NA,NA,"",NA,"",NA,NA,NA,NA,NA,NA,NA,"",NA,"",NA,NA,NA,NA,NA,NA,NA,"","","",NA,"",NA,NA,NA,NA,NA,NA,NA,"",NA,"35"
"",NA,"",NA,"",NA,NA,NA,NA,NA,NA,NA,"","",1,1,"2024-08-28_14h04.14.773","IAT(Formal)","2021.2.3","Win32",60.24096386,"",NA,"",NA,NA,NA,NA,NA,NA,NA,"","","",NA,"e",1,0.5011,0,20,20,13,1,"杰出","e","",NA,NA,NA,NA,NA,NA,"",NA,"",NA,NA,NA,NA,NA,NA,NA,"",NA,"",NA,NA,NA,NA,NA,NA,NA,"","","",NA,"",NA,NA,NA,NA,NA,NA,NA,"",NA,"35"
"",NA,"",NA,"",NA,NA,NA,NA,NA,NA,NA,"","",1,1,"2024-08-28_14h04.14.773","IAT(Formal)","2021.2.3","Win32",60.24096386,"",NA,"",NA,NA,NA,NA,NA,NA,NA,"","","",NA,"e",1,0.4672,0,21,21,52,1,"我们","e","",NA,NA,NA,NA,NA,NA,"",NA,"",NA,NA,NA,NA,NA,NA,NA,"",NA,"",NA,NA,NA,NA,NA,NA,NA,"","","",NA,"",NA,NA,NA,NA,NA,NA,NA,"",NA,"35"
"",NA,"",NA,"",NA,NA,NA,NA,NA,NA,NA,"","",1,1,"2024-08-28_14h04.14.773","IAT(Formal)","2021.2.3","Win32",60.24096386,"",NA,"",NA,NA,NA,NA,NA,NA,NA,"","","",NA,"i",1,0.6593,0,22,22,79,1,"其他","i","",NA,NA,NA,NA,NA,NA,"",NA,"",NA,NA,NA,NA,NA,NA,NA,"",NA,"",NA,NA,NA,NA,NA,NA,NA,"","","",NA,"",NA,NA,NA,NA,NA,NA,NA,"",NA,"35"
"",NA,"",NA,"",NA,NA,NA,NA,NA,NA,NA,"","",1,1,"2024-08-28_14h04.14.773","IAT(Formal)","2021.2.3","Win32",60.24096386,"",NA,"",NA,NA,NA,NA,NA,NA,NA,"","","",NA,"i",1,0.7187,0,23,23,32,1,"愚蠢","i","",NA,NA,NA,NA,NA,NA,"",NA,"",NA,NA,NA,NA,NA,NA,NA,"",NA,"",NA,NA,NA,NA,NA,NA,NA,"","","",NA,"",NA,NA,NA,NA,NA,NA,NA,"",NA,"35"
"",NA,"",NA,"",NA,NA,NA,NA,NA,NA,NA,"","",1,1,"2024-08-28_14h04.14.773","IAT(Formal)","2021.2.3","Win32",60.24096386,"",NA,"",NA,NA,NA,NA,NA,NA,NA,"","","",NA,"i",1,0.5672,0,24,24,36,1,"自卑","i","",NA,NA,NA,NA,NA,NA,"",NA,"",NA,NA,NA,NA,NA,NA,NA,"",NA,"",NA,NA,NA,NA,NA,NA,NA,"","","",NA,"",NA,NA,NA,NA,NA,NA,NA,"",NA,"35"
"",NA,"",NA,"",NA,NA,NA,NA,NA,NA,NA,"","",1,1,"2024-08-28_14h04.14.773","IAT(Formal)","2021.2.3","Win32",60.24096386,"",NA,"",NA,NA,NA,NA,NA,NA,NA,"","","",NA,"i",1,0.6014,0,25,25,7,1,"他的","i","",NA,NA,NA,NA,NA,NA,"",NA,"",NA,NA,NA,NA,NA,NA,NA,"",NA,"",NA,NA,NA,NA,NA,NA,NA,"","","",NA,"",NA,NA,NA,NA,NA,NA,NA,"",NA,"35"
"",NA,"",NA,"",NA,NA,NA,NA,NA,NA,NA,"","",1,1,"2024-08-28_14h04.14.773","IAT(Formal)","2021.2.3","Win32",60.24096386,"",NA,"",NA,NA,NA,NA,NA,NA,NA,"","","",NA,"i",1,0.5589,0,26,26,5,1,"他","i","",NA,NA,NA,NA,NA,NA,"",NA,"",NA,NA,NA,NA,NA,NA,NA,"",NA,"",NA,NA,NA,NA,NA,NA,NA,"","","",NA,"",NA,NA,NA,NA,NA,NA,NA,"",NA,"35"
"",NA,"",NA,"",NA,NA,NA,NA,NA,NA,NA,"","",1,1,"2024-08-28_14h04.14.773","IAT(Formal)","2021.2.3","Win32",60.24096386,"",NA,"",NA,NA,NA,NA,NA,NA,NA,"","","",NA,"i",1,0.5681,0,27,27,43,1,"自私","i","",NA,NA,NA,NA,NA,NA,"",NA,"",NA,NA,NA,NA,NA,NA,NA,"",NA,"",NA,NA,NA,NA,NA,NA,NA,"","","",NA,"",NA,NA,NA,NA,NA,NA,NA,"",NA,"35"
"",NA,"",NA,"",NA,NA,NA,NA,NA,NA,NA,"","",1,1,"2024-08-28_14h04.14.773","IAT(Formal)","2021.2.3","Win32",60.24096386,"",NA,"",NA,NA,NA,NA,NA,NA,NA,"","","",NA,"e",1,0.6519,0,28,28,19,1,"机智","e","",NA,NA,NA,NA,NA,NA,"",NA,"",NA,NA,NA,NA,NA,NA,NA,"",NA,"",NA,NA,NA,NA,NA,NA,NA,"","","",NA,"",NA,NA,NA,NA,NA,NA,NA,"",NA,"35"
"",NA,"",NA,"",NA,NA,NA,NA,NA,NA,NA,"","",1,1,"2024-08-28_14h04.14.773","IAT(Formal)","2021.2.3","Win32",60.24096386,"",NA,"",NA,NA,NA,NA,NA,NA,NA,"","","",NA,"e",1,0.7511,0,29,29,54,1,"俺","e","",NA,NA,NA,NA,NA,NA,"",NA,"",NA,NA,NA,NA,NA,NA,NA,"",NA,"",NA,NA,NA,NA,NA,NA,NA,"","","",NA,"",NA,NA,NA,NA,NA,NA,NA,"",NA,"35"
"",NA,"",NA,"",NA,NA,NA,NA,NA,NA,NA,"","",1,1,"2024-08-28_14h04.14.773","IAT(Formal)","2021.2.3","Win32",60.24096386,"",NA,"",NA,NA,NA,NA,NA,NA,NA,"","","",NA,"i",1,0.7737,0,30,30,67,1,"他的","i","",NA,NA,NA,NA,NA,NA,"",NA,"",NA,NA,NA,NA,NA,NA,NA,"",NA,"",NA,NA,NA,NA,NA,NA,NA,"","","",NA,"",NA,NA,NA,NA,NA,NA,NA,"",NA,"35"
"",NA,"",NA,"",NA,NA,NA,NA,NA,NA,NA,"","",1,1,"2024-08-28_14h04.14.773","IAT(Formal)","2021.2.3","Win32",60.24096386,"",NA,"",NA,NA,NA,NA,NA,NA,NA,"","","",NA,"i",1,0.7691,0,31,31,77,1,"他的","i","",NA,NA,NA,NA,NA,NA,"",NA,"",NA,NA,NA,NA,NA,NA,NA,"",NA,"",NA,NA,NA,NA,NA,NA,NA,"","","",NA,"",NA,NA,NA,NA,NA,NA,NA,"",NA,"35"
"",NA,"",NA,"",NA,NA,NA,NA,NA,NA,NA,"","",1,1,"2024-08-28_14h04.14.773","IAT(Formal)","2021.2.3","Win32",60.24096386,"",NA,"",NA,NA,NA,NA,NA,NA,NA,"","","",NA,"i",1,0.5513,0,32,32,34,1,"悲观","i","",NA,NA,NA,NA,NA,NA,"",NA,"",NA,NA,NA,NA,NA,NA,NA,"",NA,"",NA,NA,NA,NA,NA,NA,NA,"","","",NA,"",NA,NA,NA,NA,NA,NA,NA,"",NA,"35"
"",NA,"",NA,"",NA,NA,NA,NA,NA,NA,NA,"","",1,1,"2024-08-28_14h04.14.773","IAT(Formal)","2021.2.3","Win32",60.24096386,"",NA,"",NA,NA,NA,NA,NA,NA,NA,"","","",NA,"e",1,0.5901,0,33,33,12,1,"聪明","e","",NA,NA,NA,NA,NA,NA,"",NA,"",NA,NA,NA,NA,NA,NA,NA,"",NA,"",NA,NA,NA,NA,NA,NA,NA,"","","",NA,"",NA,NA,NA,NA,NA,NA,NA,"",NA,"35"
"",NA,"",NA,"",NA,NA,NA,NA,NA,NA,NA,"","",1,1,"2024-08-28_14h04.14.773","IAT(Formal)","2021.2.3","Win32",60.24096386,"",NA,"",NA,NA,NA,NA,NA,NA,NA,"","","",NA,"e",1,0.5234,0,34,34,62,1,"我们","e","",NA,NA,NA,NA,NA,NA,"",NA,"",NA,NA,NA,NA,NA,NA,NA,"",NA,"",NA,NA,NA,NA,NA,NA,NA,"","","",NA,"",NA,NA,NA,NA,NA,NA,NA,"",NA,"35"
"",NA,"",NA,"",NA,NA,NA,NA,NA,NA,NA,"","",1,1,"2024-08-28_14h04.14.773","IAT(Formal)","2021.2.3","Win32",60.24096386,"",NA,"",NA,NA,NA,NA,NA,NA,NA,"","","",NA,"e",1,0.4417,0,35,35,11,1,"崇高","e","",NA,NA,NA,NA,NA,NA,"",NA,"",NA,NA,NA,NA,NA,NA,NA,"",NA,"",NA,NA,NA,NA,NA,NA,NA,"","","",NA,"",NA,NA,NA,NA,NA,NA,NA,"",NA,"35"
"",NA,"",NA,"",NA,NA,NA,NA,NA,NA,NA,"","",1,1,"2024-08-28_14h04.14.773","IAT(Formal)","2021.2.3","Win32",60.24096386,"",NA,"",NA,NA,NA,NA,NA,NA,NA,"","","",NA,"i",1,0.7009,0,36,36,31,1,"虚伪","i","",NA,NA,NA,NA,NA,NA,"",NA,"",NA,NA,NA,NA,NA,NA,NA,"",NA,"",NA,NA,NA,NA,NA,NA,NA,"","","",NA,"",NA,NA,NA,NA,NA,NA,NA,"",NA,"35"
"",NA,"",NA,"",NA,NA,NA,NA,NA,NA,NA,"","",1,1,"2024-08-28_14h04.14.773","IAT(Formal)","2021.2.3","Win32",60.24096386,"",NA,"",NA,NA,NA,NA,NA,NA,NA,"","","",NA,"e",1,0.7228,0,37,37,63,1,"自己","e","",NA,NA,NA,NA,NA,NA,"",NA,"",NA,NA,NA,NA,NA,NA,NA,"",NA,"",NA,NA,NA,NA,NA,NA,NA,"","","",NA,"",NA,NA,NA,NA,NA,NA,NA,"",NA,"35"
"",NA,"",NA,"",NA,NA,NA,NA,NA,NA,NA,"","",1,1,"2024-08-28_14h04.14.773","IAT(Formal)","2021.2.3","Win32",60.24096386,"",NA,"",NA,NA,NA,NA,NA,NA,NA,"","","",NA,"i",1,0.6546,0,38,38,48,1,"轻率","i","",NA,NA,NA,NA,NA,NA,"",NA,"",NA,NA,NA,NA,NA,NA,NA,"",NA,"",NA,NA,NA,NA,NA,NA,NA,"","","",NA,"",NA,NA,NA,NA,NA,NA,NA,"",NA,"35"
"",NA,"",NA,"",NA,NA,NA,NA,NA,NA,NA,"","",1,1,"2024-08-28_14h04.14.773","IAT(Formal)","2021.2.3","Win32",60.24096386,"",NA,"",NA,NA,NA,NA,NA,NA,NA,"","","",NA,"e",1,0.5515,0,39,39,51,1,"我的","e","",NA,NA,NA,NA,NA,NA,"",NA,"",NA,NA,NA,NA,NA,NA,NA,"",NA,"",NA,NA,NA,NA,NA,NA,NA,"","","",NA,"",NA,NA,NA,NA,NA,NA,NA,"",NA,"35"
"",NA,"",NA,"",NA,NA,NA,NA,NA,NA,NA,"","",1,1,"2024-08-28_14h04.14.773","IAT(Formal)","2021.2.3","Win32",60.24096386,"",NA,"",NA,NA,NA,NA,NA,NA,NA,"","","",NA,"i",1,0.8349,0,40,40,37,1,"傲慢","i","",NA,NA,NA,NA,NA,NA,"",NA,"",NA,NA,NA,NA,NA,NA,NA,"",NA,"",NA,NA,NA,NA,NA,NA,NA,"","","",NA,"",NA,NA,NA,NA,NA,NA,NA,"",NA,"35"
"",NA,"",NA,"",NA,NA,NA,NA,NA,NA,NA,"","",1,1,"2024-08-28_14h04.14.773","IAT(Formal)","2021.2.3","Win32",60.24096386,"",NA,"",NA,NA,NA,NA,NA,NA,NA,"","","",NA,"e",1,0.75,0,41,41,22,1,"无私","e","",NA,NA,NA,NA,NA,NA,"",NA,"",NA,NA,NA,NA,NA,NA,NA,"",NA,"",NA,NA,NA,NA,NA,NA,NA,"","","",NA,"",NA,NA,NA,NA,NA,NA,NA,"",NA,"35"
"",NA,"",NA,"",NA,NA,NA,NA,NA,NA,NA,"","",1,1,"2024-08-28_14h04.14.773","IAT(Formal)","2021.2.3","Win32",60.24096386,"",NA,"",NA,NA,NA,NA,NA,NA,NA,"","","",NA,"e",1,0.5023,0,42,42,70,1,"我","e","",NA,NA,NA,NA,NA,NA,"",NA,"",NA,NA,NA,NA,NA,NA,NA,"",NA,"",NA,NA,NA,NA,NA,NA,NA,"","","",NA,"",NA,NA,NA,NA,NA,NA,NA,"",NA,"35"
"",NA,"",NA,"",NA,NA,NA,NA,NA,NA,NA,"","",1,1,"2024-08-28_14h04.14.773","IAT(Formal)","2021.2.3","Win32",60.24096386,"",NA,"",NA,NA,NA,NA,NA,NA,NA,"","","",NA,"i",1,0.5684,0,43,43,40,1,"执拗","i","",NA,NA,NA,NA,NA,NA,"",NA,"",NA,NA,NA,NA,NA,NA,NA,"",NA,"",NA,NA,NA,NA,NA,NA,NA,"","","",NA,"",NA,NA,NA,NA,NA,NA,NA,"",NA,"35"
"",NA,"",NA,"",NA,NA,NA,NA,NA,NA,NA,"","",1,1,"2024-08-28_14h04.14.773","IAT(Formal)","2021.2.3","Win32",60.24096386,"",NA,"",NA,NA,NA,NA,NA,NA,NA,"","","",NA,"i",1,0.7263,0,44,44,59,1,"其他","i","",NA,NA,NA,NA,NA,NA,"",NA,"",NA,NA,NA,NA,NA,NA,NA,"",NA,"",NA,NA,NA,NA,NA,NA,NA,"","","",NA,"",NA,NA,NA,NA,NA,NA,NA,"",NA,"35"
"",NA,"",NA,"",NA,NA,NA,NA,NA,NA,NA,"","",1,1,"2024-08-28_14h04.14.773","IAT(Formal)","2021.2.3","Win32",60.24096386,"",NA,"",NA,NA,NA,NA,NA,NA,NA,"","","",NA,"i",1,0.7352,0,45,45,68,1,"他人","i","",NA,NA,NA,NA,NA,NA,"",NA,"",NA,NA,NA,NA,NA,NA,NA,"",NA,"",NA,NA,NA,NA,NA,NA,NA,"","","",NA,"",NA,NA,NA,NA,NA,NA,NA,"",NA,"35"
"",NA,"",NA,"",NA,NA,NA,NA,NA,NA,NA,"","",1,1,"2024-08-28_14h04.14.773","IAT(Formal)","2021.2.3","Win32",60.24096386,"",NA,"",NA,NA,NA,NA,NA,NA,NA,"","","",NA,"i",1,0.8954,0,46,46,6,1,"他们","i","",NA,NA,NA,NA,NA,NA,"",NA,"",NA,NA,NA,NA,NA,NA,NA,"",NA,"",NA,NA,NA,NA,NA,NA,NA,"","","",NA,"",NA,NA,NA,NA,NA,NA,NA,"",NA,"35"
"",NA,"",NA,"",NA,NA,NA,NA,NA,NA,NA,"","",1,1,"2024-08-28_14h04.14.773","IAT(Formal)","2021.2.3","Win32",60.24096386,"",NA,"",NA,NA,NA,NA,NA,NA,NA,"","","",NA,"e",1,0.5346,0,47,47,27,1,"热情","e","",NA,NA,NA,NA,NA,NA,"",NA,"",NA,NA,NA,NA,NA,NA,NA,"",NA,"",NA,NA,NA,NA,NA,NA,NA,"","","",NA,"",NA,NA,NA,NA,NA,NA,NA,"",NA,"35"
"",NA,"",NA,"",NA,NA,NA,NA,NA,NA,NA,"","",1,1,"2024-08-28_14h04.14.773","IAT(Formal)","2021.2.3","Win32",60.24096386,"",NA,"",NA,NA,NA,NA,NA,NA,NA,"","","",NA,"e",1,0.4407,0,48,48,72,1,"我们","e","",NA,NA,NA,NA,NA,NA,"",NA,"",NA,NA,NA,NA,NA,NA,NA,"",NA,"",NA,NA,NA,NA,NA,NA,NA,"","","",NA,"",NA,NA,NA,NA,NA,NA,NA,"",NA,"35"
"",NA,"",NA,"",NA,NA,NA,NA,NA,NA,NA,"","",1,1,"2024-08-28_14h04.14.773","IAT(Formal)","2021.2.3","Win32",60.24096386,"",NA,"",NA,NA,NA,NA,NA,NA,NA,"","","",NA,"e",1,0.5067,0,49,49,28,1,"活泼","e","",NA,NA,NA,NA,NA,NA,"",NA,"",NA,NA,NA,NA,NA,NA,NA,"",NA,"",NA,NA,NA,NA,NA,NA,NA,"","","",NA,"",NA,NA,NA,NA,NA,NA,NA,"",NA,"35"
"",NA,"",NA,"",NA,NA,NA,NA,NA,NA,NA,"","",1,1,"2024-08-28_14h04.14.773","IAT(Formal)","2021.2.3","Win32",60.24096386,"",NA,"",NA,NA,NA,NA,NA,NA,NA,"","","",NA,"e",1,0.5584,0,50,50,23,1,"公正","e","",NA,NA,NA,NA,NA,NA,"",NA,"",NA,NA,NA,NA,NA,NA,NA,"",NA,"",NA,NA,NA,NA,NA,NA,NA,"","","",NA,"",NA,NA,NA,NA,NA,NA,NA,"",NA,"35"
"",NA,"",NA,"",NA,NA,NA,NA,NA,NA,NA,"","",1,1,"2024-08-28_14h04.14.773","IAT(Formal)","2021.2.3","Win32",60.24096386,"",NA,"",NA,NA,NA,NA,NA,NA,NA,"","","",NA,"i",1,0.5618,0,51,51,75,1,"他","i","",NA,NA,NA,NA,NA,NA,"",NA,"",NA,NA,NA,NA,NA,NA,NA,"",NA,"",NA,NA,NA,NA,NA,NA,NA,"","","",NA,"",NA,NA,NA,NA,NA,NA,NA,"",NA,"35"
"",NA,"",NA,"",NA,NA,NA,NA,NA,NA,NA,"","",1,1,"2024-08-28_14h04.14.773","IAT(Formal)","2021.2.3","Win32",60.24096386,"",NA,"",NA,NA,NA,NA,NA,NA,NA,"","","",NA,"i",1,0.5735,0,52,52,33,1,"刻薄","i","",NA,NA,NA,NA,NA,NA,"",NA,"",NA,NA,NA,NA,NA,NA,NA,"",NA,"",NA,NA,NA,NA,NA,NA,NA,"","","",NA,"",NA,NA,NA,NA,NA,NA,NA,"",NA,"35"
"",NA,"",NA,"",NA,NA,NA,NA,NA,NA,NA,"","",1,1,"2024-08-28_14h04.14.773","IAT(Formal)","2021.2.3","Win32",60.24096386,"",NA,"",NA,NA,NA,NA,NA,NA,NA,"","","",NA,"i",1,0.568,0,53,53,69,1,"其他","i","",NA,NA,NA,NA,NA,NA,"",NA,"",NA,NA,NA,NA,NA,NA,NA,"",NA,"",NA,NA,NA,NA,NA,NA,NA,"","","",NA,"",NA,NA,NA,NA,NA,NA,NA,"",NA,"35"
"",NA,"",NA,"",NA,NA,NA,NA,NA,NA,NA,"","",1,1,"2024-08-28_14h04.14.773","IAT(Formal)","2021.2.3","Win32",60.24096386,"",NA,"",NA,NA,NA,NA,NA,NA,NA,"","","",NA,"i",1,0.5681,0,54,54,45,1,"猖狂","i","",NA,NA,NA,NA,NA,NA,"",NA,"",NA,NA,NA,NA,NA,NA,NA,"",NA,"",NA,NA,NA,NA,NA,NA,NA,"","","",NA,"",NA,NA,NA,NA,NA,NA,NA,"",NA,"35"
"",NA,"",NA,"",NA,NA,NA,NA,NA,NA,NA,"","",1,1,"2024-08-28_14h04.14.773","IAT(Formal)","2021.2.3","Win32",60.24096386,"",NA,"",NA,NA,NA,NA,NA,NA,NA,"","","",NA,"i",1,0.5705,0,55,55,8,1,"他人","i","",NA,NA,NA,NA,NA,NA,"",NA,"",NA,NA,NA,NA,NA,NA,NA,"",NA,"",NA,NA,NA,NA,NA,NA,NA,"","","",NA,"",NA,NA,NA,NA,NA,NA,NA,"",NA,"35"
"",NA,"",NA,"",NA,NA,NA,NA,NA,NA,NA,"","",1,1,"2024-08-28_14h04.14.773","IAT(Formal)","2021.2.3","Win32",60.24096386,"",NA,"",NA,NA,NA,NA,NA,NA,NA,"","","",NA,"i",1,0.5773,0,56,56,38,1,"鲁莽","i","",NA,NA,NA,NA,NA,NA,"",NA,"",NA,NA,NA,NA,NA,NA,NA,"",NA,"",NA,NA,NA,NA,NA,NA,NA,"","","",NA,"",NA,NA,NA,NA,NA,NA,NA,"",NA,"35"
"",NA,"",NA,"",NA,NA,NA,NA,NA,NA,NA,"","",1,1,"2024-08-28_14h04.14.773","IAT(Formal)","2021.2.3","Win32",60.24096386,"",NA,"",NA,NA,NA,NA,NA,NA,NA,"","","",NA,"i",1,0.6044,0,57,57,44,1,"暴躁","i","",NA,NA,NA,NA,NA,NA,"",NA,"",NA,NA,NA,NA,NA,NA,NA,"",NA,"",NA,NA,NA,NA,NA,NA,NA,"","","",NA,"",NA,NA,NA,NA,NA,NA,NA,"",NA,"35"
"",NA,"",NA,"",NA,NA,NA,NA,NA,NA,NA,"","",1,1,"2024-08-28_14h04.14.773","IAT(Formal)","2021.2.3","Win32",60.24096386,"",NA,"",NA,NA,NA,NA,NA,NA,NA,"","","",NA,"e",1,0.6858,0,58,58,4,1,"俺","e","",NA,NA,NA,NA,NA,NA,"",NA,"",NA,NA,NA,NA,NA,NA,NA,"",NA,"",NA,NA,NA,NA,NA,NA,NA,"","","",NA,"",NA,NA,NA,NA,NA,NA,NA,"",NA,"35"
"",NA,"",NA,"",NA,NA,NA,NA,NA,NA,NA,"","",1,1,"2024-08-28_14h04.14.773","IAT(Formal)","2021.2.3","Win32",60.24096386,"",NA,"",NA,NA,NA,NA,NA,NA,NA,"","","",NA,"e",1,0.6674,0,59,59,0,1,"我","e","",NA,NA,NA,NA,NA,NA,"",NA,"",NA,NA,NA,NA,NA,NA,NA,"",NA,"",NA,NA,NA,NA,NA,NA,NA,"","","",NA,"",NA,NA,NA,NA,NA,NA,NA,"",NA,"35"
"",NA,"",NA,"",NA,NA,NA,NA,NA,NA,NA,"","",1,1,"2024-08-28_14h04.14.773","IAT(Formal)","2021.2.3","Win32",60.24096386,"",NA,"",NA,NA,NA,NA,NA,NA,NA,"","","",NA,"e",1,0.4883,0,60,60,17,1,"勇敢","e","",NA,NA,NA,NA,NA,NA,"",NA,"",NA,NA,NA,NA,NA,NA,NA,"",NA,"",NA,NA,NA,NA,NA,NA,NA,"","","",NA,"",NA,NA,NA,NA,NA,NA,NA,"",NA,"35"
"",NA,"",NA,"",NA,NA,NA,NA,NA,NA,NA,"","",1,1,"2024-08-28_14h04.14.773","IAT(Formal)","2021.2.3","Win32",60.24096386,"",NA,"",NA,NA,NA,NA,NA,NA,NA,"","","",NA,"e",1,0.6278,0,61,61,10,1,"优秀","e","",NA,NA,NA,NA,NA,NA,"",NA,"",NA,NA,NA,NA,NA,NA,NA,"",NA,"",NA,NA,NA,NA,NA,NA,NA,"","","",NA,"",NA,NA,NA,NA,NA,NA,NA,"",NA,"35"
"",NA,"",NA,"",NA,NA,NA,NA,NA,NA,NA,"","",1,1,"2024-08-28_14h04.14.773","IAT(Formal)","2021.2.3","Win32",60.24096386,"",NA,"",NA,NA,NA,NA,NA,NA,NA,"","","",NA,"e",1,0.768,0,62,62,20,1,"认真","e","",NA,NA,NA,NA,NA,NA,"",NA,"",NA,NA,NA,NA,NA,NA,NA,"",NA,"",NA,NA,NA,NA,NA,NA,NA,"","","",NA,"",NA,NA,NA,NA,NA,NA,NA,"",NA,"35"
"",NA,"",NA,"",NA,NA,NA,NA,NA,NA,NA,"","",1,1,"2024-08-28_14h04.14.773","IAT(Formal)","2021.2.3","Win32",60.24096386,"",NA,"",NA,NA,NA,NA,NA,NA,NA,"","","",NA,"e",1,0.8007,0,63,63,26,1,"冷静","e","",NA,NA,NA,NA,NA,NA,"",NA,"",NA,NA,NA,NA,NA,NA,NA,"",NA,"",NA,NA,NA,NA,NA,NA,NA,"","","",NA,"",NA,NA,NA,NA,NA,NA,NA,"",NA,"35"
"",NA,"",NA,"",NA,NA,NA,NA,NA,NA,NA,"","",1,1,"2024-08-28_14h04.14.773","IAT(Formal)","2021.2.3","Win32",60.24096386,"",NA,"",NA,NA,NA,NA,NA,NA,NA,"","","",NA,"e",1,0.8184,0,64,64,64,1,"俺","e","",NA,NA,NA,NA,NA,NA,"",NA,"",NA,NA,NA,NA,NA,NA,NA,"",NA,"",NA,NA,NA,NA,NA,NA,NA,"","","",NA,"",NA,NA,NA,NA,NA,NA,NA,"",NA,"35"
"",NA,"",NA,"",NA,NA,NA,NA,NA,NA,NA,"","",1,1,"2024-08-28_14h04.14.773","IAT(Formal)","2021.2.3","Win32",60.24096386,"",NA,"",NA,NA,NA,NA,NA,NA,NA,"","","",NA,"e",1,0.6064,0,65,65,73,1,"自己","e","",NA,NA,NA,NA,NA,NA,"",NA,"",NA,NA,NA,NA,NA,NA,NA,"",NA,"",NA,NA,NA,NA,NA,NA,NA,"","","",NA,"",NA,NA,NA,NA,NA,NA,NA,"",NA,"35"
"",NA,"",NA,"",NA,NA,NA,NA,NA,NA,NA,"","",1,1,"2024-08-28_14h04.14.773","IAT(Formal)","2021.2.3","Win32",60.24096386,"",NA,"",NA,NA,NA,NA,NA,NA,NA,"","","",NA,"i",1,0.7015,0,66,66,49,1,"下贱","i","",NA,NA,NA,NA,NA,NA,"",NA,"",NA,NA,NA,NA,NA,NA,NA,"",NA,"",NA,NA,NA,NA,NA,NA,NA,"","","",NA,"",NA,NA,NA,NA,NA,NA,NA,"",NA,"35"
"",NA,"",NA,"",NA,NA,NA,NA,NA,NA,NA,"","",1,1,"2024-08-28_14h04.14.773","IAT(Formal)","2021.2.3","Win32",60.24096386,"",NA,"",NA,NA,NA,NA,NA,NA,NA,"","","",NA,"e",1,0.6091,0,67,67,15,1,"诚实","e","",NA,NA,NA,NA,NA,NA,"",NA,"",NA,NA,NA,NA,NA,NA,NA,"",NA,"",NA,NA,NA,NA,NA,NA,NA,"","","",NA,"",NA,NA,NA,NA,NA,NA,NA,"",NA,"35"
"",NA,"",NA,"",NA,NA,NA,NA,NA,NA,NA,"","",1,1,"2024-08-28_14h04.14.773","IAT(Formal)","2021.2.3","Win32",60.24096386,"",NA,"",NA,NA,NA,NA,NA,NA,NA,"","","",NA,"i",1,0.8049,0,68,68,42,1,"凶狠","i","",NA,NA,NA,NA,NA,NA,"",NA,"",NA,NA,NA,NA,NA,NA,NA,"",NA,"",NA,NA,NA,NA,NA,NA,NA,"","","",NA,"",NA,NA,NA,NA,NA,NA,NA,"",NA,"35"
"",NA,"",NA,"",NA,NA,NA,NA,NA,NA,NA,"","",1,1,"2024-08-28_14h04.14.773","IAT(Formal)","2021.2.3","Win32",60.24096386,"",NA,"",NA,NA,NA,NA,NA,NA,NA,"","","",NA,"i",1,1.3743,0,69,69,30,1,"卑鄙","i","",NA,NA,NA,NA,NA,NA,"",NA,"",NA,NA,NA,NA,NA,NA,NA,"",NA,"",NA,NA,NA,NA,NA,NA,NA,"","","",NA,"",NA,NA,NA,NA,NA,NA,NA,"",NA,"35"
"",NA,"",NA,"",NA,NA,NA,NA,NA,NA,NA,"","",1,1,"2024-08-28_14h04.14.773","IAT(Formal)","2021.2.3","Win32",60.24096386,"",NA,"",NA,NA,NA,NA,NA,NA,NA,"","","",NA,"e",1,1.4263,0,70,70,25,1,"细腻","e","",NA,NA,NA,NA,NA,NA,"",NA,"",NA,NA,NA,NA,NA,NA,NA,"",NA,"",NA,NA,NA,NA,NA,NA,NA,"","","",NA,"",NA,NA,NA,NA,NA,NA,NA,"",NA,"35"
"",NA,"",NA,"",NA,NA,NA,NA,NA,NA,NA,"","",1,1,"2024-08-28_14h04.14.773","IAT(Formal)","2021.2.3","Win32",60.24096386,"",NA,"",NA,NA,NA,NA,NA,NA,NA,"","","",NA,"e",1,0.6175,0,71,71,3,1,"自己","e","",NA,NA,NA,NA,NA,NA,"",NA,"",NA,NA,NA,NA,NA,NA,NA,"",NA,"",NA,NA,NA,NA,NA,NA,NA,"","","",NA,"",NA,NA,NA,NA,NA,NA,NA,"",NA,"35"
"",NA,"",NA,"",NA,NA,NA,NA,NA,NA,NA,"","",1,1,"2024-08-28_14h04.14.773","IAT(Formal)","2021.2.3","Win32",60.24096386,"",NA,"",NA,NA,NA,NA,NA,NA,NA,"","","",NA,"i",1,0.7236,0,72,72,65,1,"他","i","",NA,NA,NA,NA,NA,NA,"",NA,"",NA,NA,NA,NA,NA,NA,NA,"",NA,"",NA,NA,NA,NA,NA,NA,NA,"","","",NA,"",NA,NA,NA,NA,NA,NA,NA,"",NA,"35"
"",NA,"",NA,"",NA,NA,NA,NA,NA,NA,NA,"","",1,1,"2024-08-28_14h04.14.773","IAT(Formal)","2021.2.3","Win32",60.24096386,"",NA,"",NA,NA,NA,NA,NA,NA,NA,"","","",NA,"i",1,0.7014,0,73,73,66,1,"他们","i","",NA,NA,NA,NA,NA,NA,"",NA,"",NA,NA,NA,NA,NA,NA,NA,"",NA,"",NA,NA,NA,NA,NA,NA,NA,"","","",NA,"",NA,NA,NA,NA,NA,NA,NA,"",NA,"35"
"",NA,"",NA,"",NA,NA,NA,NA,NA,NA,NA,"","",1,1,"2024-08-28_14h04.14.773","IAT(Formal)","2021.2.3","Win32",60.24096386,"",NA,"",NA,NA,NA,NA,NA,NA,NA,"","","",NA,"i",1,0.6544,0,74,74,35,1,"消极","i","",NA,NA,NA,NA,NA,NA,"",NA,"",NA,NA,NA,NA,NA,NA,NA,"",NA,"",NA,NA,NA,NA,NA,NA,NA,"","","",NA,"",NA,NA,NA,NA,NA,NA,NA,"",NA,"35"
"",NA,"",NA,"",NA,NA,NA,NA,NA,NA,NA,"","",1,1,"2024-08-28_14h04.14.773","IAT(Formal)","2021.2.3","Win32",60.24096386,"",NA,"",NA,NA,NA,NA,NA,NA,NA,"","","",NA,"e",1,0.902,0,75,75,14,1,"乐观","e","",NA,NA,NA,NA,NA,NA,"",NA,"",NA,NA,NA,NA,NA,NA,NA,"",NA,"",NA,NA,NA,NA,NA,NA,NA,"","","",NA,"",NA,NA,NA,NA,NA,NA,NA,"",NA,"35"
"",NA,"",NA,"",NA,NA,NA,NA,NA,NA,NA,"","",1,1,"2024-08-28_14h04.14.773","IAT(Formal)","2021.2.3","Win32",60.24096386,"",NA,"",NA,NA,NA,NA,NA,NA,NA,"","","",NA,"i",1,0.6084,0,76,76,58,1,"他人","i","",NA,NA,NA,NA,NA,NA,"",NA,"",NA,NA,NA,NA,NA,NA,NA,"",NA,"",NA,NA,NA,NA,NA,NA,NA,"","","",NA,"",NA,NA,NA,NA,NA,NA,NA,"",NA,"35"
"",NA,"",NA,"",NA,NA,NA,NA,NA,NA,NA,"","",1,1,"2024-08-28_14h04.14.773","IAT(Formal)","2021.2.3","Win32",60.24096386,"",NA,"",NA,NA,NA,NA,NA,NA,NA,"","","",NA,"e",1,0.5819,0,77,77,2,1,"我们","e","",NA,NA,NA,NA,NA,NA,"",NA,"",NA,NA,NA,NA,NA,NA,NA,"",NA,"",NA,NA,NA,NA,NA,NA,NA,"","","",NA,"",NA,NA,NA,NA,NA,NA,NA,"",NA,"35"
"",NA,"",NA,"",NA,NA,NA,NA,NA,NA,NA,"","",1,1,"2024-08-28_14h04.14.773","IAT(Formal)","2021.2.3","Win32",60.24096386,"",NA,"",NA,NA,NA,NA,NA,NA,NA,"","","",NA,"i",1,0.4703,0,78,78,78,1,"他人","i","",NA,NA,NA,NA,NA,NA,"",NA,"",NA,NA,NA,NA,NA,NA,NA,"",NA,"",NA,NA,NA,NA,NA,NA,NA,"","","",NA,"",NA,NA,NA,NA,NA,NA,NA,"",NA,"35"
"",NA,"",NA,"",NA,NA,NA,NA,NA,NA,NA,"","",1,1,"2024-08-28_14h04.14.773","IAT(Formal)","2021.2.3","Win32",60.24096386,"",NA,"",NA,NA,NA,NA,NA,NA,NA,"","","",NA,"e",1,0.4241,0,79,79,1,1,"我的","e","",NA,NA,NA,NA,NA,NA,"",NA,"",NA,NA,NA,NA,NA,NA,NA,"",NA,"",NA,NA,NA,NA,NA,NA,NA,"","","",NA,"",NA,NA,NA,NA,NA,NA,NA,"",NA,"35"
"",NA,"",NA,"",NA,NA,NA,NA,NA,NA,NA,"","",1,1,"2024-08-28_14h04.14.773","IAT(Formal)","2021.2.3","Win32",60.24096386,"",NA,"",NA,NA,NA,NA,NA,NA,NA,"","","",NA,"e",1,0.6038,NA,NA,NA,NA,NA,"无私","e","space",7.9781,0,0,0,22,1,"",NA,"",NA,NA,NA,NA,NA,NA,NA,"",NA,"",NA,NA,NA,NA,NA,NA,NA,"","","",NA,"",NA,NA,NA,NA,NA,NA,NA,"",NA,"35"
"",NA,"",NA,"",NA,NA,NA,NA,NA,NA,NA,"","",1,1,"2024-08-28_14h04.14.773","IAT(Formal)","2021.2.3","Win32",60.24096386,"",NA,"",NA,NA,NA,NA,NA,NA,NA,"","","",NA,"i",1,0.5049,NA,NA,NA,NA,NA,"野蛮","i","",NA,0,1,1,46,1,"",NA,"",NA,NA,NA,NA,NA,NA,NA,"",NA,"",NA,NA,NA,NA,NA,NA,NA,"","","",NA,"",NA,NA,NA,NA,NA,NA,NA,"",NA,"35"
"",NA,"",NA,"",NA,NA,NA,NA,NA,NA,NA,"","",1,1,"2024-08-28_14h04.14.773","IAT(Formal)","2021.2.3","Win32",60.24096386,"",NA,"",NA,NA,NA,NA,NA,NA,NA,"","","",NA,"e",1,0.4407,NA,NA,NA,NA,NA,"我","e","",NA,0,2,2,70,1,"",NA,"",NA,NA,NA,NA,NA,NA,NA,"",NA,"",NA,NA,NA,NA,NA,NA,NA,"","","",NA,"",NA,NA,NA,NA,NA,NA,NA,"",NA,"35"
"",NA,"",NA,"",NA,NA,NA,NA,NA,NA,NA,"","",1,1,"2024-08-28_14h04.14.773","IAT(Formal)","2021.2.3","Win32",60.24096386,"",NA,"",NA,NA,NA,NA,NA,NA,NA,"","","",NA,"e",1,0.5862,NA,NA,NA,NA,NA,"诚实","e","",NA,0,3,3,15,1,"",NA,"",NA,NA,NA,NA,NA,NA,NA,"",NA,"",NA,NA,NA,NA,NA,NA,NA,"","","",NA,"",NA,NA,NA,NA,NA,NA,NA,"",NA,"35"
"",NA,"",NA,"",NA,NA,NA,NA,NA,NA,NA,"","",1,1,"2024-08-28_14h04.14.773","IAT(Formal)","2021.2.3","Win32",60.24096386,"",NA,"",NA,NA,NA,NA,NA,NA,NA,"","","",NA,"i",1,0.5452,NA,NA,NA,NA,NA,"冒失","i","",NA,0,4,4,39,1,"",NA,"",NA,NA,NA,NA,NA,NA,NA,"",NA,"",NA,NA,NA,NA,NA,NA,NA,"","","",NA,"",NA,NA,NA,NA,NA,NA,NA,"",NA,"35"
"",NA,"",NA,"",NA,NA,NA,NA,NA,NA,NA,"","",1,1,"2024-08-28_14h04.14.773","IAT(Formal)","2021.2.3","Win32",60.24096386,"",NA,"",NA,NA,NA,NA,NA,NA,NA,"","","",NA,"e",1,0.4596,NA,NA,NA,NA,NA,"机智","e","",NA,0,5,5,19,1,"",NA,"",NA,NA,NA,NA,NA,NA,NA,"",NA,"",NA,NA,NA,NA,NA,NA,NA,"","","",NA,"",NA,NA,NA,NA,NA,NA,NA,"",NA,"35"
"",NA,"",NA,"",NA,NA,NA,NA,NA,NA,NA,"","",1,1,"2024-08-28_14h04.14.773","IAT(Formal)","2021.2.3","Win32",60.24096386,"",NA,"",NA,NA,NA,NA,NA,NA,NA,"","","",NA,"e",0,0.5177,NA,NA,NA,NA,NA,"他们","i","",NA,0,6,6,76,1,"",NA,"",NA,NA,NA,NA,NA,NA,NA,"",NA,"",NA,NA,NA,NA,NA,NA,NA,"","","",NA,"",NA,NA,NA,NA,NA,NA,NA,"",NA,"35"
"",NA,"",NA,"",NA,NA,NA,NA,NA,NA,NA,"","",1,1,"2024-08-28_14h04.14.773","IAT(Formal)","2021.2.3","Win32",60.24096386,"",NA,"",NA,NA,NA,NA,NA,NA,NA,"","","",NA,"i",1,0.5279,NA,NA,NA,NA,NA,"他们","i","",NA,0,7,7,6,1,"",NA,"",NA,NA,NA,NA,NA,NA,NA,"",NA,"",NA,NA,NA,NA,NA,NA,NA,"","","",NA,"",NA,NA,NA,NA,NA,NA,NA,"",NA,"35"
"",NA,"",NA,"",NA,NA,NA,NA,NA,NA,NA,"","",1,1,"2024-08-28_14h04.14.773","IAT(Formal)","2021.2.3","Win32",60.24096386,"",NA,"",NA,NA,NA,NA,NA,NA,NA,"","","",NA,"e",1,0.5201,NA,NA,NA,NA,NA,"正直","e","",NA,0,8,8,16,1,"",NA,"",NA,NA,NA,NA,NA,NA,NA,"",NA,"",NA,NA,NA,NA,NA,NA,NA,"","","",NA,"",NA,NA,NA,NA,NA,NA,NA,"",NA,"35"
"",NA,"",NA,"",NA,NA,NA,NA,NA,NA,NA,"","",1,1,"2024-08-28_14h04.14.773","IAT(Formal)","2021.2.3","Win32",60.24096386,"",NA,"",NA,NA,NA,NA,NA,NA,NA,"","","",NA,"i",1,0.4515,NA,NA,NA,NA,NA,"他们","i","",NA,0,9,9,66,1,"",NA,"",NA,NA,NA,NA,NA,NA,NA,"",NA,"",NA,NA,NA,NA,NA,NA,NA,"","","",NA,"",NA,NA,NA,NA,NA,NA,NA,"",NA,"35"
"",NA,"",NA,"",NA,NA,NA,NA,NA,NA,NA,"","",1,1,"2024-08-28_14h04.14.773","IAT(Formal)","2021.2.3","Win32",60.24096386,"",NA,"",NA,NA,NA,NA,NA,NA,NA,"","","",NA,"i",1,0.5861,NA,NA,NA,NA,NA,"愚蠢","i","",NA,0,10,10,32,1,"",NA,"",NA,NA,NA,NA,NA,NA,NA,"",NA,"",NA,NA,NA,NA,NA,NA,NA,"","","",NA,"",NA,NA,NA,NA,NA,NA,NA,"",NA,"35"
"",NA,"",NA,"",NA,NA,NA,NA,NA,NA,NA,"","",1,1,"2024-08-28_14h04.14.773","IAT(Formal)","2021.2.3","Win32",60.24096386,"",NA,"",NA,NA,NA,NA,NA,NA,NA,"","","",NA,"i",1,0.6416,NA,NA,NA,NA,NA,"他","i","",NA,0,11,11,65,1,"",NA,"",NA,NA,NA,NA,NA,NA,NA,"",NA,"",NA,NA,NA,NA,NA,NA,NA,"","","",NA,"",NA,NA,NA,NA,NA,NA,NA,"",NA,"35"
"",NA,"",NA,"",NA,NA,NA,NA,NA,NA,NA,"","",1,1,"2024-08-28_14h04.14.773","IAT(Formal)","2021.2.3","Win32",60.24096386,"",NA,"",NA,NA,NA,NA,NA,NA,NA,"","","",NA,"e",1,0.4598,NA,NA,NA,NA,NA,"我们","e","",NA,0,12,12,72,1,"",NA,"",NA,NA,NA,NA,NA,NA,NA,"",NA,"",NA,NA,NA,NA,NA,NA,NA,"","","",NA,"",NA,NA,NA,NA,NA,NA,NA,"",NA,"35"
"",NA,"",NA,"",NA,NA,NA,NA,NA,NA,NA,"","",1,1,"2024-08-28_14h04.14.773","IAT(Formal)","2021.2.3","Win32",60.24096386,"",NA,"",NA,NA,NA,NA,NA,NA,NA,"","","",NA,"e",1,0.5973,NA,NA,NA,NA,NA,"诚恳","e","",NA,0,13,13,29,1,"",NA,"",NA,NA,NA,NA,NA,NA,NA,"",NA,"",NA,NA,NA,NA,NA,NA,NA,"","","",NA,"",NA,NA,NA,NA,NA,NA,NA,"",NA,"35"
"",NA,"",NA,"",NA,NA,NA,NA,NA,NA,NA,"","",1,1,"2024-08-28_14h04.14.773","IAT(Formal)","2021.2.3","Win32",60.24096386,"",NA,"",NA,NA,NA,NA,NA,NA,NA,"","","",NA,"i",1,0.5251,NA,NA,NA,NA,NA,"他的","i","",NA,0,14,14,7,1,"",NA,"",NA,NA,NA,NA,NA,NA,NA,"",NA,"",NA,NA,NA,NA,NA,NA,NA,"","","",NA,"",NA,NA,NA,NA,NA,NA,NA,"",NA,"35"
"",NA,"",NA,"",NA,NA,NA,NA,NA,NA,NA,"","",1,1,"2024-08-28_14h04.14.773","IAT(Formal)","2021.2.3","Win32",60.24096386,"",NA,"",NA,NA,NA,NA,NA,NA,NA,"","","",NA,"e",1,0.6086,NA,NA,NA,NA,NA,"自己","e","",NA,0,15,15,3,1,"",NA,"",NA,NA,NA,NA,NA,NA,NA,"",NA,"",NA,NA,NA,NA,NA,NA,NA,"","","",NA,"",NA,NA,NA,NA,NA,NA,NA,"",NA,"35"
"",NA,"",NA,"",NA,NA,NA,NA,NA,NA,NA,"","",1,1,"2024-08-28_14h04.14.773","IAT(Formal)","2021.2.3","Win32",60.24096386,"",NA,"",NA,NA,NA,NA,NA,NA,NA,"","","",NA,"e",1,0.9473,NA,NA,NA,NA,NA,"认真","e","",NA,0,16,16,20,1,"",NA,"",NA,NA,NA,NA,NA,NA,NA,"",NA,"",NA,NA,NA,NA,NA,NA,NA,"","","",NA,"",NA,NA,NA,NA,NA,NA,NA,"",NA,"35"
"",NA,"",NA,"",NA,NA,NA,NA,NA,NA,NA,"","",1,1,"2024-08-28_14h04.14.773","IAT(Formal)","2021.2.3","Win32",60.24096386,"",NA,"",NA,NA,NA,NA,NA,NA,NA,"","","",NA,"i",1,0.5694,NA,NA,NA,NA,NA,"其他","i","",NA,0,17,17,69,1,"",NA,"",NA,NA,NA,NA,NA,NA,NA,"",NA,"",NA,NA,NA,NA,NA,NA,NA,"","","",NA,"",NA,NA,NA,NA,NA,NA,NA,"",NA,"35"
"",NA,"",NA,"",NA,NA,NA,NA,NA,NA,NA,"","",1,1,"2024-08-28_14h04.14.773","IAT(Formal)","2021.2.3","Win32",60.24096386,"",NA,"",NA,NA,NA,NA,NA,NA,NA,"","","",NA,"i",1,0.5745,NA,NA,NA,NA,NA,"下贱","i","",NA,0,18,18,49,1,"",NA,"",NA,NA,NA,NA,NA,NA,NA,"",NA,"",NA,NA,NA,NA,NA,NA,NA,"","","",NA,"",NA,NA,NA,NA,NA,NA,NA,"",NA,"35"
"",NA,"",NA,"",NA,NA,NA,NA,NA,NA,NA,"","",1,1,"2024-08-28_14h04.14.773","IAT(Formal)","2021.2.3","Win32",60.24096386,"",NA,"",NA,NA,NA,NA,NA,NA,NA,"","","",NA,"e",1,0.7864,NA,NA,NA,NA,NA,"俺","e","",NA,0,19,19,74,1,"",NA,"",NA,NA,NA,NA,NA,NA,NA,"",NA,"",NA,NA,NA,NA,NA,NA,NA,"","","",NA,"",NA,NA,NA,NA,NA,NA,NA,"",NA,"35"
"",NA,"",NA,"",NA,NA,NA,NA,NA,NA,NA,"","",1,1,"2024-08-28_14h04.14.773","IAT(Formal)","2021.2.3","Win32",60.24096386,"",NA,"",NA,NA,NA,NA,NA,NA,NA,"","","",NA,"e",1,0.6914,NA,NA,NA,NA,NA,"乐观","e","",NA,0,20,20,14,1,"",NA,"",NA,NA,NA,NA,NA,NA,NA,"",NA,"",NA,NA,NA,NA,NA,NA,NA,"","","",NA,"",NA,NA,NA,NA,NA,NA,NA,"",NA,"35"
"",NA,"",NA,"",NA,NA,NA,NA,NA,NA,NA,"","",1,1,"2024-08-28_14h04.14.773","IAT(Formal)","2021.2.3","Win32",60.24096386,"",NA,"",NA,NA,NA,NA,NA,NA,NA,"","","",NA,"e",1,0.6453,NA,NA,NA,NA,NA,"优秀","e","",NA,0,21,21,10,1,"",NA,"",NA,NA,NA,NA,NA,NA,NA,"",NA,"",NA,NA,NA,NA,NA,NA,NA,"","","",NA,"",NA,NA,NA,NA,NA,NA,NA,"",NA,"35"
"",NA,"",NA,"",NA,NA,NA,NA,NA,NA,NA,"","",1,1,"2024-08-28_14h04.14.773","IAT(Formal)","2021.2.3","Win32",60.24096386,"",NA,"",NA,NA,NA,NA,NA,NA,NA,"","","",NA,"e",1,0.5686,NA,NA,NA,NA,NA,"我们","e","",NA,0,22,22,62,1,"",NA,"",NA,NA,NA,NA,NA,NA,NA,"",NA,"",NA,NA,NA,NA,NA,NA,NA,"","","",NA,"",NA,NA,NA,NA,NA,NA,NA,"",NA,"35"
"",NA,"",NA,"",NA,NA,NA,NA,NA,NA,NA,"","",1,1,"2024-08-28_14h04.14.773","IAT(Formal)","2021.2.3","Win32",60.24096386,"",NA,"",NA,NA,NA,NA,NA,NA,NA,"","","",NA,"e",1,0.652,NA,NA,NA,NA,NA,"聪明","e","",NA,0,23,23,12,1,"",NA,"",NA,NA,NA,NA,NA,NA,NA,"",NA,"",NA,NA,NA,NA,NA,NA,NA,"","","",NA,"",NA,NA,NA,NA,NA,NA,NA,"",NA,"35"
"",NA,"",NA,"",NA,NA,NA,NA,NA,NA,NA,"","",1,1,"2024-08-28_14h04.14.773","IAT(Formal)","2021.2.3","Win32",60.24096386,"",NA,"",NA,NA,NA,NA,NA,NA,NA,"","","",NA,"e",1,0.668,NA,NA,NA,NA,NA,"我的","e","",NA,0,24,24,1,1,"",NA,"",NA,NA,NA,NA,NA,NA,NA,"",NA,"",NA,NA,NA,NA,NA,NA,NA,"","","",NA,"",NA,NA,NA,NA,NA,NA,NA,"",NA,"35"
"",NA,"",NA,"",NA,NA,NA,NA,NA,NA,NA,"","",1,1,"2024-08-28_14h04.14.773","IAT(Formal)","2021.2.3","Win32",60.24096386,"",NA,"",NA,NA,NA,NA,NA,NA,NA,"","","",NA,"i",1,0.9839,NA,NA,NA,NA,NA,"他们","i","",NA,0,25,25,56,1,"",NA,"",NA,NA,NA,NA,NA,NA,NA,"",NA,"",NA,NA,NA,NA,NA,NA,NA,"","","",NA,"",NA,NA,NA,NA,NA,NA,NA,"",NA,"35"
"",NA,"",NA,"",NA,NA,NA,NA,NA,NA,NA,"","",1,1,"2024-08-28_14h04.14.773","IAT(Formal)","2021.2.3","Win32",60.24096386,"",NA,"",NA,NA,NA,NA,NA,NA,NA,"","","",NA,"e",1,0.5418,NA,NA,NA,NA,NA,"朴实","e","",NA,0,26,26,24,1,"",NA,"",NA,NA,NA,NA,NA,NA,NA,"",NA,"",NA,NA,NA,NA,NA,NA,NA,"","","",NA,"",NA,NA,NA,NA,NA,NA,NA,"",NA,"35"
"",NA,"",NA,"",NA,NA,NA,NA,NA,NA,NA,"","",1,1,"2024-08-28_14h04.14.773","IAT(Formal)","2021.2.3","Win32",60.24096386,"",NA,"",NA,NA,NA,NA,NA,NA,NA,"","","",NA,"i",1,1.0508,NA,NA,NA,NA,NA,"执拗","i","",NA,0,27,27,40,1,"",NA,"",NA,NA,NA,NA,NA,NA,NA,"",NA,"",NA,NA,NA,NA,NA,NA,NA,"","","",NA,"",NA,NA,NA,NA,NA,NA,NA,"",NA,"35"
"",NA,"",NA,"",NA,NA,NA,NA,NA,NA,NA,"","",1,1,"2024-08-28_14h04.14.773","IAT(Formal)","2021.2.3","Win32",60.24096386,"",NA,"",NA,NA,NA,NA,NA,NA,NA,"","","",NA,"i",1,0.601,NA,NA,NA,NA,NA,"猖狂","i","",NA,0,28,28,45,1,"",NA,"",NA,NA,NA,NA,NA,NA,NA,"",NA,"",NA,NA,NA,NA,NA,NA,NA,"","","",NA,"",NA,NA,NA,NA,NA,NA,NA,"",NA,"35"
"",NA,"",NA,"",NA,NA,NA,NA,NA,NA,NA,"","",1,1,"2024-08-28_14h04.14.773","IAT(Formal)","2021.2.3","Win32",60.24096386,"",NA,"",NA,NA,NA,NA,NA,NA,NA,"","","",NA,"e",1,0.5544,NA,NA,NA,NA,NA,"我","e","",NA,0,29,29,50,1,"",NA,"",NA,NA,NA,NA,NA,NA,NA,"",NA,"",NA,NA,NA,NA,NA,NA,NA,"","","",NA,"",NA,NA,NA,NA,NA,NA,NA,"",NA,"35"
"",NA,"",NA,"",NA,NA,NA,NA,NA,NA,NA,"","",1,1,"2024-08-28_14h04.14.773","IAT(Formal)","2021.2.3","Win32",60.24096386,"",NA,"",NA,NA,NA,NA,NA,NA,NA,"","","",NA,"i",1,1.0632,NA,NA,NA,NA,NA,"其他","i","",NA,0,30,30,59,1,"",NA,"",NA,NA,NA,NA,NA,NA,NA,"",NA,"",NA,NA,NA,NA,NA,NA,NA,"","","",NA,"",NA,NA,NA,NA,NA,NA,NA,"",NA,"35"
"",NA,"",NA,"",NA,NA,NA,NA,NA,NA,NA,"","",1,1,"2024-08-28_14h04.14.773","IAT(Formal)","2021.2.3","Win32",60.24096386,"",NA,"",NA,NA,NA,NA,NA,NA,NA,"","","",NA,"i",1,1.2878,NA,NA,NA,NA,NA,"他的","i","",NA,0,31,31,57,1,"",NA,"",NA,NA,NA,NA,NA,NA,NA,"",NA,"",NA,NA,NA,NA,NA,NA,NA,"","","",NA,"",NA,NA,NA,NA,NA,NA,NA,"",NA,"35"
"",NA,"",NA,"",NA,NA,NA,NA,NA,NA,NA,"","",1,1,"2024-08-28_14h04.14.773","IAT(Formal)","2021.2.3","Win32",60.24096386,"",NA,"",NA,NA,NA,NA,NA,NA,NA,"","","",NA,"i",1,1.1372,NA,NA,NA,NA,NA,"鲁莽","i","",NA,0,32,32,38,1,"",NA,"",NA,NA,NA,NA,NA,NA,NA,"",NA,"",NA,NA,NA,NA,NA,NA,NA,"","","",NA,"",NA,NA,NA,NA,NA,NA,NA,"",NA,"35"
"",NA,"",NA,"",NA,NA,NA,NA,NA,NA,NA,"","",1,1,"2024-08-28_14h04.14.773","IAT(Formal)","2021.2.3","Win32",60.24096386,"",NA,"",NA,NA,NA,NA,NA,NA,NA,"","","",NA,"i",1,0.9101,NA,NA,NA,NA,NA,"消极","i","",NA,0,33,33,35,1,"",NA,"",NA,NA,NA,NA,NA,NA,NA,"",NA,"",NA,NA,NA,NA,NA,NA,NA,"","","",NA,"",NA,NA,NA,NA,NA,NA,NA,"",NA,"35"
"",NA,"",NA,"",NA,NA,NA,NA,NA,NA,NA,"","",1,1,"2024-08-28_14h04.14.773","IAT(Formal)","2021.2.3","Win32",60.24096386,"",NA,"",NA,NA,NA,NA,NA,NA,NA,"","","",NA,"i",1,0.602,NA,NA,NA,NA,NA,"他","i","",NA,0,34,34,75,1,"",NA,"",NA,NA,NA,NA,NA,NA,NA,"",NA,"",NA,NA,NA,NA,NA,NA,NA,"","","",NA,"",NA,NA,NA,NA,NA,NA,NA,"",NA,"35"
"",NA,"",NA,"",NA,NA,NA,NA,NA,NA,NA,"","",1,1,"2024-08-28_14h04.14.773","IAT(Formal)","2021.2.3","Win32",60.24096386,"",NA,"",NA,NA,NA,NA,NA,NA,NA,"","","",NA,"e",1,0.7467,NA,NA,NA,NA,NA,"崇高","e","",NA,0,35,35,11,1,"",NA,"",NA,NA,NA,NA,NA,NA,NA,"",NA,"",NA,NA,NA,NA,NA,NA,NA,"","","",NA,"",NA,NA,NA,NA,NA,NA,NA,"",NA,"35"
"",NA,"",NA,"",NA,NA,NA,NA,NA,NA,NA,"","",1,1,"2024-08-28_14h04.14.773","IAT(Formal)","2021.2.3","Win32",60.24096386,"",NA,"",NA,NA,NA,NA,NA,NA,NA,"","","",NA,"i",1,0.7885,NA,NA,NA,NA,NA,"他的","i","",NA,0,36,36,77,1,"",NA,"",NA,NA,NA,NA,NA,NA,NA,"",NA,"",NA,NA,NA,NA,NA,NA,NA,"","","",NA,"",NA,NA,NA,NA,NA,NA,NA,"",NA,"35"
"",NA,"",NA,"",NA,NA,NA,NA,NA,NA,NA,"","",1,1,"2024-08-28_14h04.14.773","IAT(Formal)","2021.2.3","Win32",60.24096386,"",NA,"",NA,NA,NA,NA,NA,NA,NA,"","","",NA,"",0,NA,NA,NA,NA,NA,NA,"俺","e","",NA,0,37,37,64,1,"",NA,"",NA,NA,NA,NA,NA,NA,NA,"",NA,"",NA,NA,NA,NA,NA,NA,NA,"","","",NA,"",NA,NA,NA,NA,NA,NA,NA,"",NA,"35"
"",NA,"",NA,"",NA,NA,NA,NA,NA,NA,NA,"","",1,1,"2024-08-28_14h04.14.773","IAT(Formal)","2021.2.3","Win32",60.24096386,"",NA,"",NA,NA,NA,NA,NA,NA,NA,"","","",NA,"e",1,0.7031,NA,NA,NA,NA,NA,"我们","e","",NA,0,38,38,2,1,"",NA,"",NA,NA,NA,NA,NA,NA,NA,"",NA,"",NA,NA,NA,NA,NA,NA,NA,"","","",NA,"",NA,NA,NA,NA,NA,NA,NA,"",NA,"35"
"",NA,"",NA,"",NA,NA,NA,NA,NA,NA,NA,"","",1,1,"2024-08-28_14h04.14.773","IAT(Formal)","2021.2.3","Win32",60.24096386,"",NA,"",NA,NA,NA,NA,NA,NA,NA,"","","",NA,"e",1,0.6208,NA,NA,NA,NA,NA,"我的","e","",NA,0,39,39,61,1,"",NA,"",NA,NA,NA,NA,NA,NA,NA,"",NA,"",NA,NA,NA,NA,NA,NA,NA,"","","",NA,"",NA,NA,NA,NA,NA,NA,NA,"",NA,"35"
"",NA,"",NA,"",NA,NA,NA,NA,NA,NA,NA,"","",1,1,"2024-08-28_14h04.14.773","IAT(Formal)","2021.2.3","Win32",60.24096386,"",NA,"",NA,NA,NA,NA,NA,NA,NA,"","","",NA,"e",1,0.8782,NA,NA,NA,NA,NA,"勇敢","e","",NA,0,40,40,17,1,"",NA,"",NA,NA,NA,NA,NA,NA,NA,"",NA,"",NA,NA,NA,NA,NA,NA,NA,"","","",NA,"",NA,NA,NA,NA,NA,NA,NA,"",NA,"35"
"",NA,"",NA,"",NA,NA,NA,NA,NA,NA,NA,"","",1,1,"2024-08-28_14h04.14.773","IAT(Formal)","2021.2.3","Win32",60.24096386,"",NA,"",NA,NA,NA,NA,NA,NA,NA,"","","",NA,"e",1,0.6996,NA,NA,NA,NA,NA,"勤奋","e","",NA,0,41,41,18,1,"",NA,"",NA,NA,NA,NA,NA,NA,NA,"",NA,"",NA,NA,NA,NA,NA,NA,NA,"","","",NA,"",NA,NA,NA,NA,NA,NA,NA,"",NA,"35"
"",NA,"",NA,"",NA,NA,NA,NA,NA,NA,NA,"","",1,1,"2024-08-28_14h04.14.773","IAT(Formal)","2021.2.3","Win32",60.24096386,"",NA,"",NA,NA,NA,NA,NA,NA,NA,"","","",NA,"i",1,1.1377,NA,NA,NA,NA,NA,"凶狠","i","",NA,0,42,42,42,1,"",NA,"",NA,NA,NA,NA,NA,NA,NA,"",NA,"",NA,NA,NA,NA,NA,NA,NA,"","","",NA,"",NA,NA,NA,NA,NA,NA,NA,"",NA,"35"
"",NA,"",NA,"",NA,NA,NA,NA,NA,NA,NA,"","",1,1,"2024-08-28_14h04.14.773","IAT(Formal)","2021.2.3","Win32",60.24096386,"",NA,"",NA,NA,NA,NA,NA,NA,NA,"","","",NA,"e",1,0.5687,NA,NA,NA,NA,NA,"稳重","e","",NA,0,43,43,21,1,"",NA,"",NA,NA,NA,NA,NA,NA,NA,"",NA,"",NA,NA,NA,NA,NA,NA,NA,"","","",NA,"",NA,NA,NA,NA,NA,NA,NA,"",NA,"35"
"",NA,"",NA,"",NA,NA,NA,NA,NA,NA,NA,"","",1,1,"2024-08-28_14h04.14.773","IAT(Formal)","2021.2.3","Win32",60.24096386,"",NA,"",NA,NA,NA,NA,NA,NA,NA,"","","",NA,"e",1,0.42,NA,NA,NA,NA,NA,"自己","e","",NA,0,44,44,63,1,"",NA,"",NA,NA,NA,NA,NA,NA,NA,"",NA,"",NA,NA,NA,NA,NA,NA,NA,"","","",NA,"",NA,NA,NA,NA,NA,NA,NA,"",NA,"35"
"",NA,"",NA,"",NA,NA,NA,NA,NA,NA,NA,"","",1,1,"2024-08-28_14h04.14.773","IAT(Formal)","2021.2.3","Win32",60.24096386,"",NA,"",NA,NA,NA,NA,NA,NA,NA,"","","",NA,"i",1,0.591,NA,NA,NA,NA,NA,"卑鄙","i","",NA,0,45,45,30,1,"",NA,"",NA,NA,NA,NA,NA,NA,NA,"",NA,"",NA,NA,NA,NA,NA,NA,NA,"","","",NA,"",NA,NA,NA,NA,NA,NA,NA,"",NA,"35"
"",NA,"",NA,"",NA,NA,NA,NA,NA,NA,NA,"","",1,1,"2024-08-28_14h04.14.773","IAT(Formal)","2021.2.3","Win32",60.24096386,"",NA,"",NA,NA,NA,NA,NA,NA,NA,"","","",NA,"i",1,0.4626,NA,NA,NA,NA,NA,"自私","i","",NA,0,46,46,43,1,"",NA,"",NA,NA,NA,NA,NA,NA,NA,"",NA,"",NA,NA,NA,NA,NA,NA,NA,"","","",NA,"",NA,NA,NA,NA,NA,NA,NA,"",NA,"35"
"",NA,"",NA,"",NA,NA,NA,NA,NA,NA,NA,"","",1,1,"2024-08-28_14h04.14.773","IAT(Formal)","2021.2.3","Win32",60.24096386,"",NA,"",NA,NA,NA,NA,NA,NA,NA,"","","",NA,"e",1,0.5525,NA,NA,NA,NA,NA,"细腻","e","",NA,0,47,47,25,1,"",NA,"",NA,NA,NA,NA,NA,NA,NA,"",NA,"",NA,NA,NA,NA,NA,NA,NA,"","","",NA,"",NA,NA,NA,NA,NA,NA,NA,"",NA,"35"
"",NA,"",NA,"",NA,NA,NA,NA,NA,NA,NA,"","",1,1,"2024-08-28_14h04.14.773","IAT(Formal)","2021.2.3","Win32",60.24096386,"",NA,"",NA,NA,NA,NA,NA,NA,NA,"","","",NA,"e",1,0.5901,NA,NA,NA,NA,NA,"杰出","e","",NA,0,48,48,13,1,"",NA,"",NA,NA,NA,NA,NA,NA,NA,"",NA,"",NA,NA,NA,NA,NA,NA,NA,"","","",NA,"",NA,NA,NA,NA,NA,NA,NA,"",NA,"35"
"",NA,"",NA,"",NA,NA,NA,NA,NA,NA,NA,"","",1,1,"2024-08-28_14h04.14.773","IAT(Formal)","2021.2.3","Win32",60.24096386,"",NA,"",NA,NA,NA,NA,NA,NA,NA,"","","",NA,"i",1,0.5677,NA,NA,NA,NA,NA,"刻薄","i","",NA,0,49,49,33,1,"",NA,"",NA,NA,NA,NA,NA,NA,NA,"",NA,"",NA,NA,NA,NA,NA,NA,NA,"","","",NA,"",NA,NA,NA,NA,NA,NA,NA,"",NA,"35"
"",NA,"",NA,"",NA,NA,NA,NA,NA,NA,NA,"","",1,1,"2024-08-28_14h04.14.773","IAT(Formal)","2021.2.3","Win32",60.24096386,"",NA,"",NA,NA,NA,NA,NA,NA,NA,"","","",NA,"i",1,0.596,NA,NA,NA,NA,NA,"暴躁","i","",NA,0,50,50,44,1,"",NA,"",NA,NA,NA,NA,NA,NA,NA,"",NA,"",NA,NA,NA,NA,NA,NA,NA,"","","",NA,"",NA,NA,NA,NA,NA,NA,NA,"",NA,"35"
"",NA,"",NA,"",NA,NA,NA,NA,NA,NA,NA,"","",1,1,"2024-08-28_14h04.14.773","IAT(Formal)","2021.2.3","Win32",60.24096386,"",NA,"",NA,NA,NA,NA,NA,NA,NA,"","","",NA,"e",1,0.5372,NA,NA,NA,NA,NA,"俺","e","",NA,0,51,51,54,1,"",NA,"",NA,NA,NA,NA,NA,NA,NA,"",NA,"",NA,NA,NA,NA,NA,NA,NA,"","","",NA,"",NA,NA,NA,NA,NA,NA,NA,"",NA,"35"
"",NA,"",NA,"",NA,NA,NA,NA,NA,NA,NA,"","",1,1,"2024-08-28_14h04.14.773","IAT(Formal)","2021.2.3","Win32",60.24096386,"",NA,"",NA,NA,NA,NA,NA,NA,NA,"","","",NA,"i",1,0.5846,NA,NA,NA,NA,NA,"他","i","",NA,0,52,52,5,1,"",NA,"",NA,NA,NA,NA,NA,NA,NA,"",NA,"",NA,NA,NA,NA,NA,NA,NA,"","","",NA,"",NA,NA,NA,NA,NA,NA,NA,"",NA,"35"
"",NA,"",NA,"",NA,NA,NA,NA,NA,NA,NA,"","",1,1,"2024-08-28_14h04.14.773","IAT(Formal)","2021.2.3","Win32",60.24096386,"",NA,"",NA,NA,NA,NA,NA,NA,NA,"","","",NA,"i",1,0.6198,NA,NA,NA,NA,NA,"虚伪","i","",NA,0,53,53,31,1,"",NA,"",NA,NA,NA,NA,NA,NA,NA,"",NA,"",NA,NA,NA,NA,NA,NA,NA,"","","",NA,"",NA,NA,NA,NA,NA,NA,NA,"",NA,"35"
"",NA,"",NA,"",NA,NA,NA,NA,NA,NA,NA,"","",1,1,"2024-08-28_14h04.14.773","IAT(Formal)","2021.2.3","Win32",60.24096386,"",NA,"",NA,NA,NA,NA,NA,NA,NA,"","","",NA,"i",1,0.593,NA,NA,NA,NA,NA,"其他","i","",NA,0,54,54,9,1,"",NA,"",NA,NA,NA,NA,NA,NA,NA,"",NA,"",NA,NA,NA,NA,NA,NA,NA,"","","",NA,"",NA,NA,NA,NA,NA,NA,NA,"",NA,"35"
"",NA,"",NA,"",NA,NA,NA,NA,NA,NA,NA,"","",1,1,"2024-08-28_14h04.14.773","IAT(Formal)","2021.2.3","Win32",60.24096386,"",NA,"",NA,NA,NA,NA,NA,NA,NA,"","","",NA,"i",1,0.6043,NA,NA,NA,NA,NA,"他人","i","",NA,0,55,55,8,1,"",NA,"",NA,NA,NA,NA,NA,NA,NA,"",NA,"",NA,NA,NA,NA,NA,NA,NA,"","","",NA,"",NA,NA,NA,NA,NA,NA,NA,"",NA,"35"
"",NA,"",NA,"",NA,NA,NA,NA,NA,NA,NA,"","",1,1,"2024-08-28_14h04.14.773","IAT(Formal)","2021.2.3","Win32",60.24096386,"",NA,"",NA,NA,NA,NA,NA,NA,NA,"","","",NA,"i",1,0.544,NA,NA,NA,NA,NA,"固执","i","",NA,0,56,56,47,1,"",NA,"",NA,NA,NA,NA,NA,NA,NA,"",NA,"",NA,NA,NA,NA,NA,NA,NA,"","","",NA,"",NA,NA,NA,NA,NA,NA,NA,"",NA,"35"
"",NA,"",NA,"",NA,NA,NA,NA,NA,NA,NA,"","",1,1,"2024-08-28_14h04.14.773","IAT(Formal)","2021.2.3","Win32",60.24096386,"",NA,"",NA,NA,NA,NA,NA,NA,NA,"","","",NA,"i",1,0.6529,NA,NA,NA,NA,NA,"他人","i","",NA,0,57,57,78,1,"",NA,"",NA,NA,NA,NA,NA,NA,NA,"",NA,"",NA,NA,NA,NA,NA,NA,NA,"","","",NA,"",NA,NA,NA,NA,NA,NA,NA,"",NA,"35"
"",NA,"",NA,"",NA,NA,NA,NA,NA,NA,NA,"","",1,1,"2024-08-28_14h04.14.773","IAT(Formal)","2021.2.3","Win32",60.24096386,"",NA,"",NA,NA,NA,NA,NA,NA,NA,"","","",NA,"e",1,0.4347,NA,NA,NA,NA,NA,"我们","e","",NA,0,58,58,52,1,"",NA,"",NA,NA,NA,NA,NA,NA,NA,"",NA,"",NA,NA,NA,NA,NA,NA,NA,"","","",NA,"",NA,NA,NA,NA,NA,NA,NA,"",NA,"35"
"",NA,"",NA,"",NA,NA,NA,NA,NA,NA,NA,"","",1,1,"2024-08-28_14h04.14.773","IAT(Formal)","2021.2.3","Win32",60.24096386,"",NA,"",NA,NA,NA,NA,NA,NA,NA,"","","",NA,"e",1,0.5884,NA,NA,NA,NA,NA,"热情","e","",NA,0,59,59,27,1,"",NA,"",NA,NA,NA,NA,NA,NA,NA,"",NA,"",NA,NA,NA,NA,NA,NA,NA,"","","",NA,"",NA,NA,NA,NA,NA,NA,NA,"",NA,"35"
"",NA,"",NA,"",NA,NA,NA,NA,NA,NA,NA,"","",1,1,"2024-08-28_14h04.14.773","IAT(Formal)","2021.2.3","Win32",60.24096386,"",NA,"",NA,NA,NA,NA,NA,NA,NA,"","","",NA,"e",1,0.5365,NA,NA,NA,NA,NA,"我的","e","",NA,0,60,60,51,1,"",NA,"",NA,NA,NA,NA,NA,NA,NA,"",NA,"",NA,NA,NA,NA,NA,NA,NA,"","","",NA,"",NA,NA,NA,NA,NA,NA,NA,"",NA,"35"
"",NA,"",NA,"",NA,NA,NA,NA,NA,NA,NA,"","",1,1,"2024-08-28_14h04.14.773","IAT(Formal)","2021.2.3","Win32",60.24096386,"",NA,"",NA,NA,NA,NA,NA,NA,NA,"","","",NA,"e",1,0.5209,NA,NA,NA,NA,NA,"公正","e","",NA,0,61,61,23,1,"",NA,"",NA,NA,NA,NA,NA,NA,NA,"",NA,"",NA,NA,NA,NA,NA,NA,NA,"","","",NA,"",NA,NA,NA,NA,NA,NA,NA,"",NA,"35"
"",NA,"",NA,"",NA,NA,NA,NA,NA,NA,NA,"","",1,1,"2024-08-28_14h04.14.773","IAT(Formal)","2021.2.3","Win32",60.24096386,"",NA,"",NA,NA,NA,NA,NA,NA,NA,"","","",NA,"i",1,0.5885,NA,NA,NA,NA,NA,"傲慢","i","",NA,0,62,62,37,1,"",NA,"",NA,NA,NA,NA,NA,NA,NA,"",NA,"",NA,NA,NA,NA,NA,NA,NA,"","","",NA,"",NA,NA,NA,NA,NA,NA,NA,"",NA,"35"
"",NA,"",NA,"",NA,NA,NA,NA,NA,NA,NA,"","",1,1,"2024-08-28_14h04.14.773","IAT(Formal)","2021.2.3","Win32",60.24096386,"",NA,"",NA,NA,NA,NA,NA,NA,NA,"","","",NA,"i",1,0.5673,NA,NA,NA,NA,NA,"他人","i","",NA,0,63,63,68,1,"",NA,"",NA,NA,NA,NA,NA,NA,NA,"",NA,"",NA,NA,NA,NA,NA,NA,NA,"","","",NA,"",NA,NA,NA,NA,NA,NA,NA,"",NA,"35"
"",NA,"",NA,"",NA,NA,NA,NA,NA,NA,NA,"","",1,1,"2024-08-28_14h04.14.773","IAT(Formal)","2021.2.3","Win32",60.24096386,"",NA,"",NA,NA,NA,NA,NA,NA,NA,"","","",NA,"e",1,0.5176,NA,NA,NA,NA,NA,"自己","e","",NA,0,64,64,73,1,"",NA,"",NA,NA,NA,NA,NA,NA,NA,"",NA,"",NA,NA,NA,NA,NA,NA,NA,"","","",NA,"",NA,NA,NA,NA,NA,NA,NA,"",NA,"35"
"",NA,"",NA,"",NA,NA,NA,NA,NA,NA,NA,"","",1,1,"2024-08-28_14h04.14.773","IAT(Formal)","2021.2.3","Win32",60.24096386,"",NA,"",NA,NA,NA,NA,NA,NA,NA,"","","",NA,"e",1,0.5394,NA,NA,NA,NA,NA,"我","e","",NA,0,65,65,60,1,"",NA,"",NA,NA,NA,NA,NA,NA,NA,"",NA,"",NA,NA,NA,NA,NA,NA,NA,"","","",NA,"",NA,NA,NA,NA,NA,NA,NA,"",NA,"35"
"",NA,"",NA,"",NA,NA,NA,NA,NA,NA,NA,"","",1,1,"2024-08-28_14h04.14.773","IAT(Formal)","2021.2.3","Win32",60.24096386,"",NA,"",NA,NA,NA,NA,NA,NA,NA,"","","",NA,"e",1,0.5184,NA,NA,NA,NA,NA,"活泼","e","",NA,0,66,66,28,1,"",NA,"",NA,NA,NA,NA,NA,NA,NA,"",NA,"",NA,NA,NA,NA,NA,NA,NA,"","","",NA,"",NA,NA,NA,NA,NA,NA,NA,"",NA,"35"
"",NA,"",NA,"",NA,NA,NA,NA,NA,NA,NA,"","",1,1,"2024-08-28_14h04.14.773","IAT(Formal)","2021.2.3","Win32",60.24096386,"",NA,"",NA,NA,NA,NA,NA,NA,NA,"","","",NA,"i",1,0.8798,NA,NA,NA,NA,NA,"他","i","",NA,0,67,67,55,1,"",NA,"",NA,NA,NA,NA,NA,NA,NA,"",NA,"",NA,NA,NA,NA,NA,NA,NA,"","","",NA,"",NA,NA,NA,NA,NA,NA,NA,"",NA,"35"
"",NA,"",NA,"",NA,NA,NA,NA,NA,NA,NA,"","",1,1,"2024-08-28_14h04.14.773","IAT(Formal)","2021.2.3","Win32",60.24096386,"",NA,"",NA,NA,NA,NA,NA,NA,NA,"","","",NA,"e",1,0.4819,NA,NA,NA,NA,NA,"自己","e","",NA,0,68,68,53,1,"",NA,"",NA,NA,NA,NA,NA,NA,NA,"",NA,"",NA,NA,NA,NA,NA,NA,NA,"","","",NA,"",NA,NA,NA,NA,NA,NA,NA,"",NA,"35"
"",NA,"",NA,"",NA,NA,NA,NA,NA,NA,NA,"","",1,1,"2024-08-28_14h04.14.773","IAT(Formal)","2021.2.3","Win32",60.24096386,"",NA,"",NA,NA,NA,NA,NA,NA,NA,"","","",NA,"e",1,0.7784,NA,NA,NA,NA,NA,"俺","e","",NA,0,69,69,4,1,"",NA,"",NA,NA,NA,NA,NA,NA,NA,"",NA,"",NA,NA,NA,NA,NA,NA,NA,"","","",NA,"",NA,NA,NA,NA,NA,NA,NA,"",NA,"35"
"",NA,"",NA,"",NA,NA,NA,NA,NA,NA,NA,"","",1,1,"2024-08-28_14h04.14.773","IAT(Formal)","2021.2.3","Win32",60.24096386,"",NA,"",NA,NA,NA,NA,NA,NA,NA,"","","",NA,"i",1,0.6367,NA,NA,NA,NA,NA,"其他","i","",NA,0,70,70,79,1,"",NA,"",NA,NA,NA,NA,NA,NA,NA,"",NA,"",NA,NA,NA,NA,NA,NA,NA,"","","",NA,"",NA,NA,NA,NA,NA,NA,NA,"",NA,"35"
"",NA,"",NA,"",NA,NA,NA,NA,NA,NA,NA,"","",1,1,"2024-08-28_14h04.14.773","IAT(Formal)","2021.2.3","Win32",60.24096386,"",NA,"",NA,NA,NA,NA,NA,NA,NA,"","","",NA,"i",1,0.608,NA,NA,NA,NA,NA,"自卑","i","",NA,0,71,71,36,1,"",NA,"",NA,NA,NA,NA,NA,NA,NA,"",NA,"",NA,NA,NA,NA,NA,NA,NA,"","","",NA,"",NA,NA,NA,NA,NA,NA,NA,"",NA,"35"
"",NA,"",NA,"",NA,NA,NA,NA,NA,NA,NA,"","",1,1,"2024-08-28_14h04.14.773","IAT(Formal)","2021.2.3","Win32",60.24096386,"",NA,"",NA,NA,NA,NA,NA,NA,NA,"","","",NA,"i",1,0.5126,NA,NA,NA,NA,NA,"他人","i","",NA,0,72,72,58,1,"",NA,"",NA,NA,NA,NA,NA,NA,NA,"",NA,"",NA,NA,NA,NA,NA,NA,NA,"","","",NA,"",NA,NA,NA,NA,NA,NA,NA,"",NA,"35"
"",NA,"",NA,"",NA,NA,NA,NA,NA,NA,NA,"","",1,1,"2024-08-28_14h04.14.773","IAT(Formal)","2021.2.3","Win32",60.24096386,"",NA,"",NA,NA,NA,NA,NA,NA,NA,"","","",NA,"e",1,0.6072,NA,NA,NA,NA,NA,"冷静","e","",NA,0,73,73,26,1,"",NA,"",NA,NA,NA,NA,NA,NA,NA,"",NA,"",NA,NA,NA,NA,NA,NA,NA,"","","",NA,"",NA,NA,NA,NA,NA,NA,NA,"",NA,"35"
"",NA,"",NA,"",NA,NA,NA,NA,NA,NA,NA,"","",1,1,"2024-08-28_14h04.14.773","IAT(Formal)","2021.2.3","Win32",60.24096386,"",NA,"",NA,NA,NA,NA,NA,NA,NA,"","","",NA,"i",1,0.6224,NA,NA,NA,NA,NA,"散漫","i","",NA,0,74,74,41,1,"",NA,"",NA,NA,NA,NA,NA,NA,NA,"",NA,"",NA,NA,NA,NA,NA,NA,NA,"","","",NA,"",NA,NA,NA,NA,NA,NA,NA,"",NA,"35"
"",NA,"",NA,"",NA,NA,NA,NA,NA,NA,NA,"","",1,1,"2024-08-28_14h04.14.773","IAT(Formal)","2021.2.3","Win32",60.24096386,"",NA,"",NA,NA,NA,NA,NA,NA,NA,"","","",NA,"i",1,0.5197,NA,NA,NA,NA,NA,"他的","i","",NA,0,75,75,67,1,"",NA,"",NA,NA,NA,NA,NA,NA,NA,"",NA,"",NA,NA,NA,NA,NA,NA,NA,"","","",NA,"",NA,NA,NA,NA,NA,NA,NA,"",NA,"35"
"",NA,"",NA,"",NA,NA,NA,NA,NA,NA,NA,"","",1,1,"2024-08-28_14h04.14.773","IAT(Formal)","2021.2.3","Win32",60.24096386,"",NA,"",NA,NA,NA,NA,NA,NA,NA,"","","",NA,"i",1,0.605,NA,NA,NA,NA,NA,"轻率","i","",NA,0,76,76,48,1,"",NA,"",NA,NA,NA,NA,NA,NA,NA,"",NA,"",NA,NA,NA,NA,NA,NA,NA,"","","",NA,"",NA,NA,NA,NA,NA,NA,NA,"",NA,"35"
"",NA,"",NA,"",NA,NA,NA,NA,NA,NA,NA,"","",1,1,"2024-08-28_14h04.14.773","IAT(Formal)","2021.2.3","Win32",60.24096386,"",NA,"",NA,NA,NA,NA,NA,NA,NA,"","","",NA,"i",1,0.5493,NA,NA,NA,NA,NA,"悲观","i","",NA,0,77,77,34,1,"",NA,"",NA,NA,NA,NA,NA,NA,NA,"",NA,"",NA,NA,NA,NA,NA,NA,NA,"","","",NA,"",NA,NA,NA,NA,NA,NA,NA,"",NA,"35"
"",NA,"",NA,"",NA,NA,NA,NA,NA,NA,NA,"","",1,1,"2024-08-28_14h04.14.773","IAT(Formal)","2021.2.3","Win32",60.24096386,"",NA,"",NA,NA,NA,NA,NA,NA,NA,"","","",NA,"e",1,0.5509,NA,NA,NA,NA,NA,"我","e","",NA,0,78,78,0,1,"",NA,"",NA,NA,NA,NA,NA,NA,NA,"",NA,"",NA,NA,NA,NA,NA,NA,NA,"","","",NA,"",NA,NA,NA,NA,NA,NA,NA,"",NA,"35"
"",NA,"",NA,"",NA,NA,NA,NA,NA,NA,NA,"","",1,1,"2024-08-28_14h04.14.773","IAT(Formal)","2021.2.3","Win32",60.24096386,"",NA,"",NA,NA,NA,NA,NA,NA,NA,"","","",NA,"e",1,0.5643,NA,NA,NA,NA,NA,"我的","e","",NA,0,79,79,71,1,"",NA,"",NA,NA,NA,NA,NA,NA,NA,"",NA,"",NA,NA,NA,NA,NA,NA,NA,"","","",NA,"",NA,NA,NA,NA,NA,NA,NA,"",NA,"35"
"",NA,"",NA,"",NA,NA,NA,NA,NA,NA,NA,"","",1,1,"2024-08-28_14h04.14.773","IAT(Formal)","2021.2.3","Win32",60.24096386,"",NA,"",NA,NA,NA,NA,NA,NA,NA,"","","",NA,"i",1,0.6725,NA,NA,NA,NA,NA,"他们","i","",NA,1,0,80,6,1,"",NA,"",NA,NA,NA,NA,NA,NA,NA,"",NA,"",NA,NA,NA,NA,NA,NA,NA,"","","",NA,"",NA,NA,NA,NA,NA,NA,NA,"",NA,"35"
"",NA,"",NA,"",NA,NA,NA,NA,NA,NA,NA,"","",1,1,"2024-08-28_14h04.14.773","IAT(Formal)","2021.2.3","Win32",60.24096386,"",NA,"",NA,NA,NA,NA,NA,NA,NA,"","","",NA,"e",1,0.6023,NA,NA,NA,NA,NA,"俺","e","",NA,1,1,81,4,1,"",NA,"",NA,NA,NA,NA,NA,NA,NA,"",NA,"",NA,NA,NA,NA,NA,NA,NA,"","","",NA,"",NA,NA,NA,NA,NA,NA,NA,"",NA,"35"
"",NA,"",NA,"",NA,NA,NA,NA,NA,NA,NA,"","",1,1,"2024-08-28_14h04.14.773","IAT(Formal)","2021.2.3","Win32",60.24096386,"",NA,"",NA,NA,NA,NA,NA,NA,NA,"","","",NA,"i",1,0.5888,NA,NA,NA,NA,NA,"他的","i","",NA,1,2,82,77,1,"",NA,"",NA,NA,NA,NA,NA,NA,NA,"",NA,"",NA,NA,NA,NA,NA,NA,NA,"","","",NA,"",NA,NA,NA,NA,NA,NA,NA,"",NA,"35"
"",NA,"",NA,"",NA,NA,NA,NA,NA,NA,NA,"","",1,1,"2024-08-28_14h04.14.773","IAT(Formal)","2021.2.3","Win32",60.24096386,"",NA,"",NA,NA,NA,NA,NA,NA,NA,"","","",NA,"i",1,0.5573,NA,NA,NA,NA,NA,"悲观","i","",NA,1,3,83,34,1,"",NA,"",NA,NA,NA,NA,NA,NA,NA,"",NA,"",NA,NA,NA,NA,NA,NA,NA,"","","",NA,"",NA,NA,NA,NA,NA,NA,NA,"",NA,"35"
"",NA,"",NA,"",NA,NA,NA,NA,NA,NA,NA,"","",1,1,"2024-08-28_14h04.14.773","IAT(Formal)","2021.2.3","Win32",60.24096386,"",NA,"",NA,NA,NA,NA,NA,NA,NA,"","","",NA,"e",1,0.7793,NA,NA,NA,NA,NA,"活泼","e","",NA,1,4,84,28,1,"",NA,"",NA,NA,NA,NA,NA,NA,NA,"",NA,"",NA,NA,NA,NA,NA,NA,NA,"","","",NA,"",NA,NA,NA,NA,NA,NA,NA,"",NA,"35"
"",NA,"",NA,"",NA,NA,NA,NA,NA,NA,NA,"","",1,1,"2024-08-28_14h04.14.773","IAT(Formal)","2021.2.3","Win32",60.24096386,"",NA,"",NA,NA,NA,NA,NA,NA,NA,"","","",NA,"i",1,0.6516,NA,NA,NA,NA,NA,"他","i","",NA,1,5,85,75,1,"",NA,"",NA,NA,NA,NA,NA,NA,NA,"",NA,"",NA,NA,NA,NA,NA,NA,NA,"","","",NA,"",NA,NA,NA,NA,NA,NA,NA,"",NA,"35"
"",NA,"",NA,"",NA,NA,NA,NA,NA,NA,NA,"","",1,1,"2024-08-28_14h04.14.773","IAT(Formal)","2021.2.3","Win32",60.24096386,"",NA,"",NA,NA,NA,NA,NA,NA,NA,"","","",NA,"i",1,0.6902,NA,NA,NA,NA,NA,"消极","i","",NA,1,6,86,35,1,"",NA,"",NA,NA,NA,NA,NA,NA,NA,"",NA,"",NA,NA,NA,NA,NA,NA,NA,"","","",NA,"",NA,NA,NA,NA,NA,NA,NA,"",NA,"35"
"",NA,"",NA,"",NA,NA,NA,NA,NA,NA,NA,"","",1,1,"2024-08-28_14h04.14.773","IAT(Formal)","2021.2.3","Win32",60.24096386,"",NA,"",NA,NA,NA,NA,NA,NA,NA,"","","",NA,"e",1,0.6318,NA,NA,NA,NA,NA,"自己","e","",NA,1,7,87,63,1,"",NA,"",NA,NA,NA,NA,NA,NA,NA,"",NA,"",NA,NA,NA,NA,NA,NA,NA,"","","",NA,"",NA,NA,NA,NA,NA,NA,NA,"",NA,"35"
"",NA,"",NA,"",NA,NA,NA,NA,NA,NA,NA,"","",1,1,"2024-08-28_14h04.14.773","IAT(Formal)","2021.2.3","Win32",60.24096386,"",NA,"",NA,NA,NA,NA,NA,NA,NA,"","","",NA,"i",1,0.6394,NA,NA,NA,NA,NA,"他的","i","",NA,1,8,88,57,1,"",NA,"",NA,NA,NA,NA,NA,NA,NA,"",NA,"",NA,NA,NA,NA,NA,NA,NA,"","","",NA,"",NA,NA,NA,NA,NA,NA,NA,"",NA,"35"
"",NA,"",NA,"",NA,NA,NA,NA,NA,NA,NA,"","",1,1,"2024-08-28_14h04.14.773","IAT(Formal)","2021.2.3","Win32",60.24096386,"",NA,"",NA,NA,NA,NA,NA,NA,NA,"","","",NA,"i",1,0.6375,NA,NA,NA,NA,NA,"冒失","i","",NA,1,9,89,39,1,"",NA,"",NA,NA,NA,NA,NA,NA,NA,"",NA,"",NA,NA,NA,NA,NA,NA,NA,"","","",NA,"",NA,NA,NA,NA,NA,NA,NA,"",NA,"35"
"",NA,"",NA,"",NA,NA,NA,NA,NA,NA,NA,"","",1,1,"2024-08-28_14h04.14.773","IAT(Formal)","2021.2.3","Win32",60.24096386,"",NA,"",NA,NA,NA,NA,NA,NA,NA,"","","",NA,"i",1,0.6522,NA,NA,NA,NA,NA,"野蛮","i","",NA,1,10,90,46,1,"",NA,"",NA,NA,NA,NA,NA,NA,NA,"",NA,"",NA,NA,NA,NA,NA,NA,NA,"","","",NA,"",NA,NA,NA,NA,NA,NA,NA,"",NA,"35"
"",NA,"",NA,"",NA,NA,NA,NA,NA,NA,NA,"","",1,1,"2024-08-28_14h04.14.773","IAT(Formal)","2021.2.3","Win32",60.24096386,"",NA,"",NA,NA,NA,NA,NA,NA,NA,"","","",NA,"i",1,0.622,NA,NA,NA,NA,NA,"其他","i","",NA,1,11,91,69,1,"",NA,"",NA,NA,NA,NA,NA,NA,NA,"",NA,"",NA,NA,NA,NA,NA,NA,NA,"","","",NA,"",NA,NA,NA,NA,NA,NA,NA,"",NA,"35"
"",NA,"",NA,"",NA,NA,NA,NA,NA,NA,NA,"","",1,1,"2024-08-28_14h04.14.773","IAT(Formal)","2021.2.3","Win32",60.24096386,"",NA,"",NA,NA,NA,NA,NA,NA,NA,"","","",NA,"e",1,0.5505,NA,NA,NA,NA,NA,"我的","e","",NA,1,12,92,71,1,"",NA,"",NA,NA,NA,NA,NA,NA,NA,"",NA,"",NA,NA,NA,NA,NA,NA,NA,"","","",NA,"",NA,NA,NA,NA,NA,NA,NA,"",NA,"35"
"",NA,"",NA,"",NA,NA,NA,NA,NA,NA,NA,"","",1,1,"2024-08-28_14h04.14.773","IAT(Formal)","2021.2.3","Win32",60.24096386,"",NA,"",NA,NA,NA,NA,NA,NA,NA,"","","",NA,"e",1,0.8245,NA,NA,NA,NA,NA,"俺","e","",NA,1,13,93,74,1,"",NA,"",NA,NA,NA,NA,NA,NA,NA,"",NA,"",NA,NA,NA,NA,NA,NA,NA,"","","",NA,"",NA,NA,NA,NA,NA,NA,NA,"",NA,"35"
"",NA,"",NA,"",NA,NA,NA,NA,NA,NA,NA,"","",1,1,"2024-08-28_14h04.14.773","IAT(Formal)","2021.2.3","Win32",60.24096386,"",NA,"",NA,NA,NA,NA,NA,NA,NA,"","","",NA,"e",1,0.512,NA,NA,NA,NA,NA,"勇敢","e","",NA,1,14,94,17,1,"",NA,"",NA,NA,NA,NA,NA,NA,NA,"",NA,"",NA,NA,NA,NA,NA,NA,NA,"","","",NA,"",NA,NA,NA,NA,NA,NA,NA,"",NA,"35"
"",NA,"",NA,"",NA,NA,NA,NA,NA,NA,NA,"","",1,1,"2024-08-28_14h04.14.773","IAT(Formal)","2021.2.3","Win32",60.24096386,"",NA,"",NA,NA,NA,NA,NA,NA,NA,"","","",NA,"e",1,1.042,NA,NA,NA,NA,NA,"朴实","e","",NA,1,15,95,24,1,"",NA,"",NA,NA,NA,NA,NA,NA,NA,"",NA,"",NA,NA,NA,NA,NA,NA,NA,"","","",NA,"",NA,NA,NA,NA,NA,NA,NA,"",NA,"35"
"",NA,"",NA,"",NA,NA,NA,NA,NA,NA,NA,"","",1,1,"2024-08-28_14h04.14.773","IAT(Formal)","2021.2.3","Win32",60.24096386,"",NA,"",NA,NA,NA,NA,NA,NA,NA,"","","",NA,"e",1,0.8052,NA,NA,NA,NA,NA,"俺","e","",NA,1,16,96,54,1,"",NA,"",NA,NA,NA,NA,NA,NA,NA,"",NA,"",NA,NA,NA,NA,NA,NA,NA,"","","",NA,"",NA,NA,NA,NA,NA,NA,NA,"",NA,"35"
"",NA,"",NA,"",NA,NA,NA,NA,NA,NA,NA,"","",1,1,"2024-08-28_14h04.14.773","IAT(Formal)","2021.2.3","Win32",60.24096386,"",NA,"",NA,NA,NA,NA,NA,NA,NA,"","","",NA,"i",1,0.7595,NA,NA,NA,NA,NA,"傲慢","i","",NA,1,17,97,37,1,"",NA,"",NA,NA,NA,NA,NA,NA,NA,"",NA,"",NA,NA,NA,NA,NA,NA,NA,"","","",NA,"",NA,NA,NA,NA,NA,NA,NA,"",NA,"35"
"",NA,"",NA,"",NA,NA,NA,NA,NA,NA,NA,"","",1,1,"2024-08-28_14h04.14.773","IAT(Formal)","2021.2.3","Win32",60.24096386,"",NA,"",NA,NA,NA,NA,NA,NA,NA,"","","",NA,"i",1,0.6661,NA,NA,NA,NA,NA,"固执","i","",NA,1,18,98,47,1,"",NA,"",NA,NA,NA,NA,NA,NA,NA,"",NA,"",NA,NA,NA,NA,NA,NA,NA,"","","",NA,"",NA,NA,NA,NA,NA,NA,NA,"",NA,"35"
"",NA,"",NA,"",NA,NA,NA,NA,NA,NA,NA,"","",1,1,"2024-08-28_14h04.14.773","IAT(Formal)","2021.2.3","Win32",60.24096386,"",NA,"",NA,NA,NA,NA,NA,NA,NA,"","","",NA,"e",1,0.5578,NA,NA,NA,NA,NA,"崇高","e","",NA,1,19,99,11,1,"",NA,"",NA,NA,NA,NA,NA,NA,NA,"",NA,"",NA,NA,NA,NA,NA,NA,NA,"","","",NA,"",NA,NA,NA,NA,NA,NA,NA,"",NA,"35"
"",NA,"",NA,"",NA,NA,NA,NA,NA,NA,NA,"","",1,1,"2024-08-28_14h04.14.773","IAT(Formal)","2021.2.3","Win32",60.24096386,"",NA,"",NA,NA,NA,NA,NA,NA,NA,"","","",NA,"e",1,0.7457,NA,NA,NA,NA,NA,"热情","e","",NA,1,20,100,27,1,"",NA,"",NA,NA,NA,NA,NA,NA,NA,"",NA,"",NA,NA,NA,NA,NA,NA,NA,"","","",NA,"",NA,NA,NA,NA,NA,NA,NA,"",NA,"35"
"",NA,"",NA,"",NA,NA,NA,NA,NA,NA,NA,"","",1,1,"2024-08-28_14h04.14.773","IAT(Formal)","2021.2.3","Win32",60.24096386,"",NA,"",NA,NA,NA,NA,NA,NA,NA,"","","",NA,"i",1,0.6142,NA,NA,NA,NA,NA,"他人","i","",NA,1,21,101,58,1,"",NA,"",NA,NA,NA,NA,NA,NA,NA,"",NA,"",NA,NA,NA,NA,NA,NA,NA,"","","",NA,"",NA,NA,NA,NA,NA,NA,NA,"",NA,"35"
"",NA,"",NA,"",NA,NA,NA,NA,NA,NA,NA,"","",1,1,"2024-08-28_14h04.14.773","IAT(Formal)","2021.2.3","Win32",60.24096386,"",NA,"",NA,NA,NA,NA,NA,NA,NA,"","","",NA,"e",1,0.3701,NA,NA,NA,NA,NA,"我们","e","",NA,1,22,102,52,1,"",NA,"",NA,NA,NA,NA,NA,NA,NA,"",NA,"",NA,NA,NA,NA,NA,NA,NA,"","","",NA,"",NA,NA,NA,NA,NA,NA,NA,"",NA,"35"
"",NA,"",NA,"",NA,NA,NA,NA,NA,NA,NA,"","",1,1,"2024-08-28_14h04.14.773","IAT(Formal)","2021.2.3","Win32",60.24096386,"",NA,"",NA,NA,NA,NA,NA,NA,NA,"","","",NA,"i",1,0.6692,NA,NA,NA,NA,NA,"散漫","i","",NA,1,23,103,41,1,"",NA,"",NA,NA,NA,NA,NA,NA,NA,"",NA,"",NA,NA,NA,NA,NA,NA,NA,"","","",NA,"",NA,NA,NA,NA,NA,NA,NA,"",NA,"35"
"",NA,"",NA,"",NA,NA,NA,NA,NA,NA,NA,"","",1,1,"2024-08-28_14h04.14.773","IAT(Formal)","2021.2.3","Win32",60.24096386,"",NA,"",NA,NA,NA,NA,NA,NA,NA,"","","",NA,"e",1,0.5583,NA,NA,NA,NA,NA,"我们","e","",NA,1,24,104,2,1,"",NA,"",NA,NA,NA,NA,NA,NA,NA,"",NA,"",NA,NA,NA,NA,NA,NA,NA,"","","",NA,"",NA,NA,NA,NA,NA,NA,NA,"",NA,"35"
"",NA,"",NA,"",NA,NA,NA,NA,NA,NA,NA,"","",1,1,"2024-08-28_14h04.14.773","IAT(Formal)","2021.2.3","Win32",60.24096386,"",NA,"",NA,NA,NA,NA,NA,NA,NA,"","","",NA,"e",1,0.5875,NA,NA,NA,NA,NA,"杰出","e","",NA,1,25,105,13,1,"",NA,"",NA,NA,NA,NA,NA,NA,NA,"",NA,"",NA,NA,NA,NA,NA,NA,NA,"","","",NA,"",NA,NA,NA,NA,NA,NA,NA,"",NA,"35"
"",NA,"",NA,"",NA,NA,NA,NA,NA,NA,NA,"","",1,1,"2024-08-28_14h04.14.773","IAT(Formal)","2021.2.3","Win32",60.24096386,"",NA,"",NA,NA,NA,NA,NA,NA,NA,"","","",NA,"i",1,0.6063,NA,NA,NA,NA,NA,"愚蠢","i","",NA,1,26,106,32,1,"",NA,"",NA,NA,NA,NA,NA,NA,NA,"",NA,"",NA,NA,NA,NA,NA,NA,NA,"","","",NA,"",NA,NA,NA,NA,NA,NA,NA,"",NA,"35"
"",NA,"",NA,"",NA,NA,NA,NA,NA,NA,NA,"","",1,1,"2024-08-28_14h04.14.773","IAT(Formal)","2021.2.3","Win32",60.24096386,"",NA,"",NA,NA,NA,NA,NA,NA,NA,"","","",NA,"e",1,0.6456,NA,NA,NA,NA,NA,"我们","e","",NA,1,27,107,72,1,"",NA,"",NA,NA,NA,NA,NA,NA,NA,"",NA,"",NA,NA,NA,NA,NA,NA,NA,"","","",NA,"",NA,NA,NA,NA,NA,NA,NA,"",NA,"35"
"",NA,"",NA,"",NA,NA,NA,NA,NA,NA,NA,"","",1,1,"2024-08-28_14h04.14.773","IAT(Formal)","2021.2.3","Win32",60.24096386,"",NA,"",NA,NA,NA,NA,NA,NA,NA,"","","",NA,"i",1,0.5905,NA,NA,NA,NA,NA,"其他","i","",NA,1,28,108,79,1,"",NA,"",NA,NA,NA,NA,NA,NA,NA,"",NA,"",NA,NA,NA,NA,NA,NA,NA,"","","",NA,"",NA,NA,NA,NA,NA,NA,NA,"",NA,"35"
"",NA,"",NA,"",NA,NA,NA,NA,NA,NA,NA,"","",1,1,"2024-08-28_14h04.14.773","IAT(Formal)","2021.2.3","Win32",60.24096386,"",NA,"",NA,NA,NA,NA,NA,NA,NA,"","","",NA,"i",1,0.5013,NA,NA,NA,NA,NA,"卑鄙","i","",NA,1,29,109,30,1,"",NA,"",NA,NA,NA,NA,NA,NA,NA,"",NA,"",NA,NA,NA,NA,NA,NA,NA,"","","",NA,"",NA,NA,NA,NA,NA,NA,NA,"",NA,"35"
"",NA,"",NA,"",NA,NA,NA,NA,NA,NA,NA,"","",1,1,"2024-08-28_14h04.14.773","IAT(Formal)","2021.2.3","Win32",60.24096386,"",NA,"",NA,NA,NA,NA,NA,NA,NA,"","","",NA,"e",1,0.5972,NA,NA,NA,NA,NA,"乐观","e","",NA,1,30,110,14,1,"",NA,"",NA,NA,NA,NA,NA,NA,NA,"",NA,"",NA,NA,NA,NA,NA,NA,NA,"","","",NA,"",NA,NA,NA,NA,NA,NA,NA,"",NA,"35"
"",NA,"",NA,"",NA,NA,NA,NA,NA,NA,NA,"","",1,1,"2024-08-28_14h04.14.773","IAT(Formal)","2021.2.3","Win32",60.24096386,"",NA,"",NA,NA,NA,NA,NA,NA,NA,"","","",NA,"i",1,0.45,NA,NA,NA,NA,NA,"他人","i","",NA,1,31,111,8,1,"",NA,"",NA,NA,NA,NA,NA,NA,NA,"",NA,"",NA,NA,NA,NA,NA,NA,NA,"","","",NA,"",NA,NA,NA,NA,NA,NA,NA,"",NA,"35"
"",NA,"",NA,"",NA,NA,NA,NA,NA,NA,NA,"","",1,1,"2024-08-28_14h04.14.773","IAT(Formal)","2021.2.3","Win32",60.24096386,"",NA,"",NA,NA,NA,NA,NA,NA,NA,"","","",NA,"e",1,0.4919,NA,NA,NA,NA,NA,"正直","e","",NA,1,32,112,16,1,"",NA,"",NA,NA,NA,NA,NA,NA,NA,"",NA,"",NA,NA,NA,NA,NA,NA,NA,"","","",NA,"",NA,NA,NA,NA,NA,NA,NA,"",NA,"35"
"",NA,"",NA,"",NA,NA,NA,NA,NA,NA,NA,"","",1,1,"2024-08-28_14h04.14.773","IAT(Formal)","2021.2.3","Win32",60.24096386,"",NA,"",NA,NA,NA,NA,NA,NA,NA,"","","",NA,"e",1,0.6568,NA,NA,NA,NA,NA,"无私","e","",NA,1,33,113,22,1,"",NA,"",NA,NA,NA,NA,NA,NA,NA,"",NA,"",NA,NA,NA,NA,NA,NA,NA,"","","",NA,"",NA,NA,NA,NA,NA,NA,NA,"",NA,"35"
"",NA,"",NA,"",NA,NA,NA,NA,NA,NA,NA,"","",1,1,"2024-08-28_14h04.14.773","IAT(Formal)","2021.2.3","Win32",60.24096386,"",NA,"",NA,NA,NA,NA,NA,NA,NA,"","","",NA,"i",1,0.7414,NA,NA,NA,NA,NA,"自私","i","",NA,1,34,114,43,1,"",NA,"",NA,NA,NA,NA,NA,NA,NA,"",NA,"",NA,NA,NA,NA,NA,NA,NA,"","","",NA,"",NA,NA,NA,NA,NA,NA,NA,"",NA,"35"
"",NA,"",NA,"",NA,NA,NA,NA,NA,NA,NA,"","",1,1,"2024-08-28_14h04.14.773","IAT(Formal)","2021.2.3","Win32",60.24096386,"",NA,"",NA,NA,NA,NA,NA,NA,NA,"","","",NA,"",0,NA,NA,NA,NA,NA,NA,"我们","e","",NA,1,35,115,62,1,"",NA,"",NA,NA,NA,NA,NA,NA,NA,"",NA,"",NA,NA,NA,NA,NA,NA,NA,"","","",NA,"",NA,NA,NA,NA,NA,NA,NA,"",NA,"35"
"",NA,"",NA,"",NA,NA,NA,NA,NA,NA,NA,"","",1,1,"2024-08-28_14h04.14.773","IAT(Formal)","2021.2.3","Win32",60.24096386,"",NA,"",NA,NA,NA,NA,NA,NA,NA,"","","",NA,"i",1,0.7632,NA,NA,NA,NA,NA,"轻率","i","",NA,1,36,116,48,1,"",NA,"",NA,NA,NA,NA,NA,NA,NA,"",NA,"",NA,NA,NA,NA,NA,NA,NA,"","","",NA,"",NA,NA,NA,NA,NA,NA,NA,"",NA,"35"
"",NA,"",NA,"",NA,NA,NA,NA,NA,NA,NA,"","",1,1,"2024-08-28_14h04.14.773","IAT(Formal)","2021.2.3","Win32",60.24096386,"",NA,"",NA,NA,NA,NA,NA,NA,NA,"","","",NA,"i",1,0.7076,NA,NA,NA,NA,NA,"虚伪","i","",NA,1,37,117,31,1,"",NA,"",NA,NA,NA,NA,NA,NA,NA,"",NA,"",NA,NA,NA,NA,NA,NA,NA,"","","",NA,"",NA,NA,NA,NA,NA,NA,NA,"",NA,"35"
"",NA,"",NA,"",NA,NA,NA,NA,NA,NA,NA,"","",1,1,"2024-08-28_14h04.14.773","IAT(Formal)","2021.2.3","Win32",60.24096386,"",NA,"",NA,NA,NA,NA,NA,NA,NA,"","","",NA,"i",1,0.4696,NA,NA,NA,NA,NA,"凶狠","i","",NA,1,38,118,42,1,"",NA,"",NA,NA,NA,NA,NA,NA,NA,"",NA,"",NA,NA,NA,NA,NA,NA,NA,"","","",NA,"",NA,NA,NA,NA,NA,NA,NA,"",NA,"35"
"",NA,"",NA,"",NA,NA,NA,NA,NA,NA,NA,"","",1,1,"2024-08-28_14h04.14.773","IAT(Formal)","2021.2.3","Win32",60.24096386,"",NA,"",NA,NA,NA,NA,NA,NA,NA,"","","",NA,"e",1,0.4295,NA,NA,NA,NA,NA,"我","e","",NA,1,39,119,50,1,"",NA,"",NA,NA,NA,NA,NA,NA,NA,"",NA,"",NA,NA,NA,NA,NA,NA,NA,"","","",NA,"",NA,NA,NA,NA,NA,NA,NA,"",NA,"35"
"",NA,"",NA,"",NA,NA,NA,NA,NA,NA,NA,"","",1,1,"2024-08-28_14h04.14.773","IAT(Formal)","2021.2.3","Win32",60.24096386,"",NA,"",NA,NA,NA,NA,NA,NA,NA,"","","",NA,"i",1,0.5231,NA,NA,NA,NA,NA,"其他","i","",NA,1,40,120,9,1,"",NA,"",NA,NA,NA,NA,NA,NA,NA,"",NA,"",NA,NA,NA,NA,NA,NA,NA,"","","",NA,"",NA,NA,NA,NA,NA,NA,NA,"",NA,"35"
"",NA,"",NA,"",NA,NA,NA,NA,NA,NA,NA,"","",1,1,"2024-08-28_14h04.14.773","IAT(Formal)","2021.2.3","Win32",60.24096386,"",NA,"",NA,NA,NA,NA,NA,NA,NA,"","","",NA,"e",1,0.3583,NA,NA,NA,NA,NA,"我的","e","",NA,1,41,121,51,1,"",NA,"",NA,NA,NA,NA,NA,NA,NA,"",NA,"",NA,NA,NA,NA,NA,NA,NA,"","","",NA,"",NA,NA,NA,NA,NA,NA,NA,"",NA,"35"
"",NA,"",NA,"",NA,NA,NA,NA,NA,NA,NA,"","",1,1,"2024-08-28_14h04.14.773","IAT(Formal)","2021.2.3","Win32",60.24096386,"",NA,"",NA,NA,NA,NA,NA,NA,NA,"","","",NA,"i",1,1.0641,NA,NA,NA,NA,NA,"刻薄","i","",NA,1,42,122,33,1,"",NA,"",NA,NA,NA,NA,NA,NA,NA,"",NA,"",NA,NA,NA,NA,NA,NA,NA,"","","",NA,"",NA,NA,NA,NA,NA,NA,NA,"",NA,"35"
"",NA,"",NA,"",NA,NA,NA,NA,NA,NA,NA,"","",1,1,"2024-08-28_14h04.14.773","IAT(Formal)","2021.2.3","Win32",60.24096386,"",NA,"",NA,NA,NA,NA,NA,NA,NA,"","","",NA,"i",1,0.4534,NA,NA,NA,NA,NA,"执拗","i","",NA,1,43,123,40,1,"",NA,"",NA,NA,NA,NA,NA,NA,NA,"",NA,"",NA,NA,NA,NA,NA,NA,NA,"","","",NA,"",NA,NA,NA,NA,NA,NA,NA,"",NA,"35"
"",NA,"",NA,"",NA,NA,NA,NA,NA,NA,NA,"","",1,1,"2024-08-28_14h04.14.773","IAT(Formal)","2021.2.3","Win32",60.24096386,"",NA,"",NA,NA,NA,NA,NA,NA,NA,"","","",NA,"i",0,0.6008,NA,NA,NA,NA,NA,"我","e","",NA,1,44,124,70,1,"",NA,"",NA,NA,NA,NA,NA,NA,NA,"",NA,"",NA,NA,NA,NA,NA,NA,NA,"","","",NA,"",NA,NA,NA,NA,NA,NA,NA,"",NA,"35"
"",NA,"",NA,"",NA,NA,NA,NA,NA,NA,NA,"","",1,1,"2024-08-28_14h04.14.773","IAT(Formal)","2021.2.3","Win32",60.24096386,"",NA,"",NA,NA,NA,NA,NA,NA,NA,"","","",NA,"i",1,0.3903,NA,NA,NA,NA,NA,"下贱","i","",NA,1,45,125,49,1,"",NA,"",NA,NA,NA,NA,NA,NA,NA,"",NA,"",NA,NA,NA,NA,NA,NA,NA,"","","",NA,"",NA,NA,NA,NA,NA,NA,NA,"",NA,"35"
"",NA,"",NA,"",NA,NA,NA,NA,NA,NA,NA,"","",1,1,"2024-08-28_14h04.14.773","IAT(Formal)","2021.2.3","Win32",60.24096386,"",NA,"",NA,NA,NA,NA,NA,NA,NA,"","","",NA,"i",1,0.4865,NA,NA,NA,NA,NA,"暴躁","i","",NA,1,46,126,44,1,"",NA,"",NA,NA,NA,NA,NA,NA,NA,"",NA,"",NA,NA,NA,NA,NA,NA,NA,"","","",NA,"",NA,NA,NA,NA,NA,NA,NA,"",NA,"35"
"",NA,"",NA,"",NA,NA,NA,NA,NA,NA,NA,"","",1,1,"2024-08-28_14h04.14.773","IAT(Formal)","2021.2.3","Win32",60.24096386,"",NA,"",NA,NA,NA,NA,NA,NA,NA,"","","",NA,"i",1,0.5483,NA,NA,NA,NA,NA,"猖狂","i","",NA,1,47,127,45,1,"",NA,"",NA,NA,NA,NA,NA,NA,NA,"",NA,"",NA,NA,NA,NA,NA,NA,NA,"","","",NA,"",NA,NA,NA,NA,NA,NA,NA,"",NA,"35"
"",NA,"",NA,"",NA,NA,NA,NA,NA,NA,NA,"","",1,1,"2024-08-28_14h04.14.773","IAT(Formal)","2021.2.3","Win32",60.24096386,"",NA,"",NA,NA,NA,NA,NA,NA,NA,"","","",NA,"e",1,0.8059,NA,NA,NA,NA,NA,"细腻","e","",NA,1,48,128,25,1,"",NA,"",NA,NA,NA,NA,NA,NA,NA,"",NA,"",NA,NA,NA,NA,NA,NA,NA,"","","",NA,"",NA,NA,NA,NA,NA,NA,NA,"",NA,"35"
"",NA,"",NA,"",NA,NA,NA,NA,NA,NA,NA,"","",1,1,"2024-08-28_14h04.14.773","IAT(Formal)","2021.2.3","Win32",60.24096386,"",NA,"",NA,NA,NA,NA,NA,NA,NA,"","","",NA,"i",1,0.4346,NA,NA,NA,NA,NA,"他","i","",NA,1,49,129,55,1,"",NA,"",NA,NA,NA,NA,NA,NA,NA,"",NA,"",NA,NA,NA,NA,NA,NA,NA,"","","",NA,"",NA,NA,NA,NA,NA,NA,NA,"",NA,"35"
"",NA,"",NA,"",NA,NA,NA,NA,NA,NA,NA,"","",1,1,"2024-08-28_14h04.14.773","IAT(Formal)","2021.2.3","Win32",60.24096386,"",NA,"",NA,NA,NA,NA,NA,NA,NA,"","","",NA,"i",1,0.4879,NA,NA,NA,NA,NA,"他们","i","",NA,1,50,130,76,1,"",NA,"",NA,NA,NA,NA,NA,NA,NA,"",NA,"",NA,NA,NA,NA,NA,NA,NA,"","","",NA,"",NA,NA,NA,NA,NA,NA,NA,"",NA,"35"
"",NA,"",NA,"",NA,NA,NA,NA,NA,NA,NA,"","",1,1,"2024-08-28_14h04.14.773","IAT(Formal)","2021.2.3","Win32",60.24096386,"",NA,"",NA,NA,NA,NA,NA,NA,NA,"","","",NA,"i",1,0.5052,NA,NA,NA,NA,NA,"其他","i","",NA,1,51,131,59,1,"",NA,"",NA,NA,NA,NA,NA,NA,NA,"",NA,"",NA,NA,NA,NA,NA,NA,NA,"","","",NA,"",NA,NA,NA,NA,NA,NA,NA,"",NA,"35"
"",NA,"",NA,"",NA,NA,NA,NA,NA,NA,NA,"","",1,1,"2024-08-28_14h04.14.773","IAT(Formal)","2021.2.3","Win32",60.24096386,"",NA,"",NA,NA,NA,NA,NA,NA,NA,"","","",NA,"e",1,0.668,NA,NA,NA,NA,NA,"自己","e","",NA,1,52,132,73,1,"",NA,"",NA,NA,NA,NA,NA,NA,NA,"",NA,"",NA,NA,NA,NA,NA,NA,NA,"","","",NA,"",NA,NA,NA,NA,NA,NA,NA,"",NA,"35"
"",NA,"",NA,"",NA,NA,NA,NA,NA,NA,NA,"","",1,1,"2024-08-28_14h04.14.773","IAT(Formal)","2021.2.3","Win32",60.24096386,"",NA,"",NA,NA,NA,NA,NA,NA,NA,"","","",NA,"e",1,0.6125,NA,NA,NA,NA,NA,"冷静","e","",NA,1,53,133,26,1,"",NA,"",NA,NA,NA,NA,NA,NA,NA,"",NA,"",NA,NA,NA,NA,NA,NA,NA,"","","",NA,"",NA,NA,NA,NA,NA,NA,NA,"",NA,"35"
"",NA,"",NA,"",NA,NA,NA,NA,NA,NA,NA,"","",1,1,"2024-08-28_14h04.14.773","IAT(Formal)","2021.2.3","Win32",60.24096386,"",NA,"",NA,NA,NA,NA,NA,NA,NA,"","","",NA,"e",1,0.4348,NA,NA,NA,NA,NA,"我","e","",NA,1,54,134,0,1,"",NA,"",NA,NA,NA,NA,NA,NA,NA,"",NA,"",NA,NA,NA,NA,NA,NA,NA,"","","",NA,"",NA,NA,NA,NA,NA,NA,NA,"",NA,"35"
"",NA,"",NA,"",NA,NA,NA,NA,NA,NA,NA,"","",1,1,"2024-08-28_14h04.14.773","IAT(Formal)","2021.2.3","Win32",60.24096386,"",NA,"",NA,NA,NA,NA,NA,NA,NA,"","","",NA,"i",1,0.4835,NA,NA,NA,NA,NA,"他","i","",NA,1,55,135,65,1,"",NA,"",NA,NA,NA,NA,NA,NA,NA,"",NA,"",NA,NA,NA,NA,NA,NA,NA,"","","",NA,"",NA,NA,NA,NA,NA,NA,NA,"",NA,"35"
"",NA,"",NA,"",NA,NA,NA,NA,NA,NA,NA,"","",1,1,"2024-08-28_14h04.14.773","IAT(Formal)","2021.2.3","Win32",60.24096386,"",NA,"",NA,NA,NA,NA,NA,NA,NA,"","","",NA,"e",1,0.3948,NA,NA,NA,NA,NA,"诚恳","e","",NA,1,56,136,29,1,"",NA,"",NA,NA,NA,NA,NA,NA,NA,"",NA,"",NA,NA,NA,NA,NA,NA,NA,"","","",NA,"",NA,NA,NA,NA,NA,NA,NA,"",NA,"35"
"",NA,"",NA,"",NA,NA,NA,NA,NA,NA,NA,"","",1,1,"2024-08-28_14h04.14.773","IAT(Formal)","2021.2.3","Win32",60.24096386,"",NA,"",NA,NA,NA,NA,NA,NA,NA,"","","",NA,"e",1,0.4747,NA,NA,NA,NA,NA,"我的","e","",NA,1,57,137,1,1,"",NA,"",NA,NA,NA,NA,NA,NA,NA,"",NA,"",NA,NA,NA,NA,NA,NA,NA,"","","",NA,"",NA,NA,NA,NA,NA,NA,NA,"",NA,"35"
"",NA,"",NA,"",NA,NA,NA,NA,NA,NA,NA,"","",1,1,"2024-08-28_14h04.14.773","IAT(Formal)","2021.2.3","Win32",60.24096386,"",NA,"",NA,NA,NA,NA,NA,NA,NA,"","","",NA,"i",1,0.5051,NA,NA,NA,NA,NA,"他人","i","",NA,1,58,138,68,1,"",NA,"",NA,NA,NA,NA,NA,NA,NA,"",NA,"",NA,NA,NA,NA,NA,NA,NA,"","","",NA,"",NA,NA,NA,NA,NA,NA,NA,"",NA,"35"
"",NA,"",NA,"",NA,NA,NA,NA,NA,NA,NA,"","",1,1,"2024-08-28_14h04.14.773","IAT(Formal)","2021.2.3","Win32",60.24096386,"",NA,"",NA,NA,NA,NA,NA,NA,NA,"","","",NA,"e",1,0.518,NA,NA,NA,NA,NA,"俺","e","",NA,1,59,139,64,1,"",NA,"",NA,NA,NA,NA,NA,NA,NA,"",NA,"",NA,NA,NA,NA,NA,NA,NA,"","","",NA,"",NA,NA,NA,NA,NA,NA,NA,"",NA,"35"
"",NA,"",NA,"",NA,NA,NA,NA,NA,NA,NA,"","",1,1,"2024-08-28_14h04.14.773","IAT(Formal)","2021.2.3","Win32",60.24096386,"",NA,"",NA,NA,NA,NA,NA,NA,NA,"","","",NA,"e",1,0.4892,NA,NA,NA,NA,NA,"稳重","e","",NA,1,60,140,21,1,"",NA,"",NA,NA,NA,NA,NA,NA,NA,"",NA,"",NA,NA,NA,NA,NA,NA,NA,"","","",NA,"",NA,NA,NA,NA,NA,NA,NA,"",NA,"35"
"",NA,"",NA,"",NA,NA,NA,NA,NA,NA,NA,"","",1,1,"2024-08-28_14h04.14.773","IAT(Formal)","2021.2.3","Win32",60.24096386,"",NA,"",NA,NA,NA,NA,NA,NA,NA,"","","",NA,"e",1,0.5176,NA,NA,NA,NA,NA,"聪明","e","",NA,1,61,141,12,1,"",NA,"",NA,NA,NA,NA,NA,NA,NA,"",NA,"",NA,NA,NA,NA,NA,NA,NA,"","","",NA,"",NA,NA,NA,NA,NA,NA,NA,"",NA,"35"
"",NA,"",NA,"",NA,NA,NA,NA,NA,NA,NA,"","",1,1,"2024-08-28_14h04.14.773","IAT(Formal)","2021.2.3","Win32",60.24096386,"",NA,"",NA,NA,NA,NA,NA,NA,NA,"","","",NA,"i",1,0.5608,NA,NA,NA,NA,NA,"他的","i","",NA,1,62,142,67,1,"",NA,"",NA,NA,NA,NA,NA,NA,NA,"",NA,"",NA,NA,NA,NA,NA,NA,NA,"","","",NA,"",NA,NA,NA,NA,NA,NA,NA,"",NA,"35"
"",NA,"",NA,"",NA,NA,NA,NA,NA,NA,NA,"","",1,1,"2024-08-28_14h04.14.773","IAT(Formal)","2021.2.3","Win32",60.24096386,"",NA,"",NA,NA,NA,NA,NA,NA,NA,"","","",NA,"e",1,0.4249,NA,NA,NA,NA,NA,"自己","e","",NA,1,63,143,3,1,"",NA,"",NA,NA,NA,NA,NA,NA,NA,"",NA,"",NA,NA,NA,NA,NA,NA,NA,"","","",NA,"",NA,NA,NA,NA,NA,NA,NA,"",NA,"35"
"",NA,"",NA,"",NA,NA,NA,NA,NA,NA,NA,"","",1,1,"2024-08-28_14h04.14.773","IAT(Formal)","2021.2.3","Win32",60.24096386,"",NA,"",NA,NA,NA,NA,NA,NA,NA,"","","",NA,"e",1,0.4527,NA,NA,NA,NA,NA,"我","e","",NA,1,64,144,60,1,"",NA,"",NA,NA,NA,NA,NA,NA,NA,"",NA,"",NA,NA,NA,NA,NA,NA,NA,"","","",NA,"",NA,NA,NA,NA,NA,NA,NA,"",NA,"35"
"",NA,"",NA,"",NA,NA,NA,NA,NA,NA,NA,"","",1,1,"2024-08-28_14h04.14.773","IAT(Formal)","2021.2.3","Win32",60.24096386,"",NA,"",NA,NA,NA,NA,NA,NA,NA,"","","",NA,"e",1,0.4199,NA,NA,NA,NA,NA,"自己","e","",NA,1,65,145,53,1,"",NA,"",NA,NA,NA,NA,NA,NA,NA,"",NA,"",NA,NA,NA,NA,NA,NA,NA,"","","",NA,"",NA,NA,NA,NA,NA,NA,NA,"",NA,"35"
"",NA,"",NA,"",NA,NA,NA,NA,NA,NA,NA,"","",1,1,"2024-08-28_14h04.14.773","IAT(Formal)","2021.2.3","Win32",60.24096386,"",NA,"",NA,NA,NA,NA,NA,NA,NA,"","","",NA,"e",1,0.5181,NA,NA,NA,NA,NA,"机智","e","",NA,1,66,146,19,1,"",NA,"",NA,NA,NA,NA,NA,NA,NA,"",NA,"",NA,NA,NA,NA,NA,NA,NA,"","","",NA,"",NA,NA,NA,NA,NA,NA,NA,"",NA,"35"
"",NA,"",NA,"",NA,NA,NA,NA,NA,NA,NA,"","",1,1,"2024-08-28_14h04.14.773","IAT(Formal)","2021.2.3","Win32",60.24096386,"",NA,"",NA,NA,NA,NA,NA,NA,NA,"","","",NA,"i",1,0.4941,NA,NA,NA,NA,NA,"他的","i","",NA,1,67,147,7,1,"",NA,"",NA,NA,NA,NA,NA,NA,NA,"",NA,"",NA,NA,NA,NA,NA,NA,NA,"","","",NA,"",NA,NA,NA,NA,NA,NA,NA,"",NA,"35"
"",NA,"",NA,"",NA,NA,NA,NA,NA,NA,NA,"","",1,1,"2024-08-28_14h04.14.773","IAT(Formal)","2021.2.3","Win32",60.24096386,"",NA,"",NA,NA,NA,NA,NA,NA,NA,"","","",NA,"e",1,0.3916,NA,NA,NA,NA,NA,"认真","e","",NA,1,68,148,20,1,"",NA,"",NA,NA,NA,NA,NA,NA,NA,"",NA,"",NA,NA,NA,NA,NA,NA,NA,"","","",NA,"",NA,NA,NA,NA,NA,NA,NA,"",NA,"35"
"",NA,"",NA,"",NA,NA,NA,NA,NA,NA,NA,"","",1,1,"2024-08-28_14h04.14.773","IAT(Formal)","2021.2.3","Win32",60.24096386,"",NA,"",NA,NA,NA,NA,NA,NA,NA,"","","",NA,"i",1,0.4768,NA,NA,NA,NA,NA,"他们","i","",NA,1,69,149,66,1,"",NA,"",NA,NA,NA,NA,NA,NA,NA,"",NA,"",NA,NA,NA,NA,NA,NA,NA,"","","",NA,"",NA,NA,NA,NA,NA,NA,NA,"",NA,"35"
"",NA,"",NA,"",NA,NA,NA,NA,NA,NA,NA,"","",1,1,"2024-08-28_14h04.14.773","IAT(Formal)","2021.2.3","Win32",60.24096386,"",NA,"",NA,NA,NA,NA,NA,NA,NA,"","","",NA,"e",1,0.3444,NA,NA,NA,NA,NA,"我的","e","",NA,1,70,150,61,1,"",NA,"",NA,NA,NA,NA,NA,NA,NA,"",NA,"",NA,NA,NA,NA,NA,NA,NA,"","","",NA,"",NA,NA,NA,NA,NA,NA,NA,"",NA,"35"
"",NA,"",NA,"",NA,NA,NA,NA,NA,NA,NA,"","",1,1,"2024-08-28_14h04.14.773","IAT(Formal)","2021.2.3","Win32",60.24096386,"",NA,"",NA,NA,NA,NA,NA,NA,NA,"","","",NA,"e",1,0.5123,NA,NA,NA,NA,NA,"诚实","e","",NA,1,71,151,15,1,"",NA,"",NA,NA,NA,NA,NA,NA,NA,"",NA,"",NA,NA,NA,NA,NA,NA,NA,"","","",NA,"",NA,NA,NA,NA,NA,NA,NA,"",NA,"35"
"",NA,"",NA,"",NA,NA,NA,NA,NA,NA,NA,"","",1,1,"2024-08-28_14h04.14.773","IAT(Formal)","2021.2.3","Win32",60.24096386,"",NA,"",NA,NA,NA,NA,NA,NA,NA,"","","",NA,"e",1,0.5177,NA,NA,NA,NA,NA,"优秀","e","",NA,1,72,152,10,1,"",NA,"",NA,NA,NA,NA,NA,NA,NA,"",NA,"",NA,NA,NA,NA,NA,NA,NA,"","","",NA,"",NA,NA,NA,NA,NA,NA,NA,"",NA,"35"
"",NA,"",NA,"",NA,NA,NA,NA,NA,NA,NA,"","",1,1,"2024-08-28_14h04.14.773","IAT(Formal)","2021.2.3","Win32",60.24096386,"",NA,"",NA,NA,NA,NA,NA,NA,NA,"","","",NA,"i",1,0.5185,NA,NA,NA,NA,NA,"自卑","i","",NA,1,73,153,36,1,"",NA,"",NA,NA,NA,NA,NA,NA,NA,"",NA,"",NA,NA,NA,NA,NA,NA,NA,"","","",NA,"",NA,NA,NA,NA,NA,NA,NA,"",NA,"35"
"",NA,"",NA,"",NA,NA,NA,NA,NA,NA,NA,"","",1,1,"2024-08-28_14h04.14.773","IAT(Formal)","2021.2.3","Win32",60.24096386,"",NA,"",NA,NA,NA,NA,NA,NA,NA,"","","",NA,"e",1,0.4393,NA,NA,NA,NA,NA,"公正","e","",NA,1,74,154,23,1,"",NA,"",NA,NA,NA,NA,NA,NA,NA,"",NA,"",NA,NA,NA,NA,NA,NA,NA,"","","",NA,"",NA,NA,NA,NA,NA,NA,NA,"",NA,"35"
"",NA,"",NA,"",NA,NA,NA,NA,NA,NA,NA,"","",1,1,"2024-08-28_14h04.14.773","IAT(Formal)","2021.2.3","Win32",60.24096386,"",NA,"",NA,NA,NA,NA,NA,NA,NA,"","","",NA,"i",1,0.4679,NA,NA,NA,NA,NA,"他","i","",NA,1,75,155,5,1,"",NA,"",NA,NA,NA,NA,NA,NA,NA,"",NA,"",NA,NA,NA,NA,NA,NA,NA,"","","",NA,"",NA,NA,NA,NA,NA,NA,NA,"",NA,"35"
"",NA,"",NA,"",NA,NA,NA,NA,NA,NA,NA,"","",1,1,"2024-08-28_14h04.14.773","IAT(Formal)","2021.2.3","Win32",60.24096386,"",NA,"",NA,NA,NA,NA,NA,NA,NA,"","","",NA,"i",1,0.468,NA,NA,NA,NA,NA,"他们","i","",NA,1,76,156,56,1,"",NA,"",NA,NA,NA,NA,NA,NA,NA,"",NA,"",NA,NA,NA,NA,NA,NA,NA,"","","",NA,"",NA,NA,NA,NA,NA,NA,NA,"",NA,"35"
"",NA,"",NA,"",NA,NA,NA,NA,NA,NA,NA,"","",1,1,"2024-08-28_14h04.14.773","IAT(Formal)","2021.2.3","Win32",60.24096386,"",NA,"",NA,NA,NA,NA,NA,NA,NA,"","","",NA,"i",1,0.7019,NA,NA,NA,NA,NA,"鲁莽","i","",NA,1,77,157,38,1,"",NA,"",NA,NA,NA,NA,NA,NA,NA,"",NA,"",NA,NA,NA,NA,NA,NA,NA,"","","",NA,"",NA,NA,NA,NA,NA,NA,NA,"",NA,"35"
"",NA,"",NA,"",NA,NA,NA,NA,NA,NA,NA,"","",1,1,"2024-08-28_14h04.14.773","IAT(Formal)","2021.2.3","Win32",60.24096386,"",NA,"",NA,NA,NA,NA,NA,NA,NA,"","","",NA,"e",1,0.5275,NA,NA,NA,NA,NA,"勤奋","e","",NA,1,78,158,18,1,"",NA,"",NA,NA,NA,NA,NA,NA,NA,"",NA,"",NA,NA,NA,NA,NA,NA,NA,"","","",NA,"",NA,NA,NA,NA,NA,NA,NA,"",NA,"35"
"",NA,"",NA,"",NA,NA,NA,NA,NA,NA,NA,"","",1,1,"2024-08-28_14h04.14.773","IAT(Formal)","2021.2.3","Win32",60.24096386,"",NA,"",NA,NA,NA,NA,NA,NA,NA,"","","",NA,"i",1,0.6607,NA,NA,NA,NA,NA,"他人","i","",NA,1,79,159,78,1,"",NA,"",NA,NA,NA,NA,NA,NA,NA,"",NA,"",NA,NA,NA,NA,NA,NA,NA,"","","",NA,"",NA,NA,NA,NA,NA,NA,NA,"",NA,"35"
"",NA,"",NA,"",NA,NA,NA,NA,NA,NA,NA,"我们","i",1,1,"2024-08-28_14h04.14.773","IAT(Formal)","2021.2.3","Win32",60.24096386,"",NA,"",NA,NA,NA,NA,NA,NA,NA,"","","",NA,"",NA,NA,NA,NA,NA,NA,NA,"","","",NA,NA,NA,NA,NA,NA,"space",2.9829,"i",1,0.4245,0,0,0,2,1,"",NA,"",NA,NA,NA,NA,NA,NA,NA,"","","",NA,"",NA,NA,NA,NA,NA,NA,NA,"",NA,"35"
"",NA,"",NA,"",NA,NA,NA,NA,NA,NA,NA,"他人","e",1,1,"2024-08-28_14h04.14.773","IAT(Formal)","2021.2.3","Win32",60.24096386,"",NA,"",NA,NA,NA,NA,NA,NA,NA,"","","",NA,"",NA,NA,NA,NA,NA,NA,NA,"","","",NA,NA,NA,NA,NA,NA,"",NA,"e",1,0.4321,0,1,1,8,1,"",NA,"",NA,NA,NA,NA,NA,NA,NA,"","","",NA,"",NA,NA,NA,NA,NA,NA,NA,"",NA,"35"
"",NA,"",NA,"",NA,NA,NA,NA,NA,NA,NA,"我","i",1,1,"2024-08-28_14h04.14.773","IAT(Formal)","2021.2.3","Win32",60.24096386,"",NA,"",NA,NA,NA,NA,NA,NA,NA,"","","",NA,"",NA,NA,NA,NA,NA,NA,NA,"","","",NA,NA,NA,NA,NA,NA,"",NA,"i",1,0.5932,0,2,2,0,1,"",NA,"",NA,NA,NA,NA,NA,NA,NA,"","","",NA,"",NA,NA,NA,NA,NA,NA,NA,"",NA,"35"
"",NA,"",NA,"",NA,NA,NA,NA,NA,NA,NA,"自己","i",1,1,"2024-08-28_14h04.14.773","IAT(Formal)","2021.2.3","Win32",60.24096386,"",NA,"",NA,NA,NA,NA,NA,NA,NA,"","","",NA,"",NA,NA,NA,NA,NA,NA,NA,"","","",NA,NA,NA,NA,NA,NA,"",NA,"i",1,0.6557,0,3,3,3,1,"",NA,"",NA,NA,NA,NA,NA,NA,NA,"","","",NA,"",NA,NA,NA,NA,NA,NA,NA,"",NA,"35"
"",NA,"",NA,"",NA,NA,NA,NA,NA,NA,NA,"他的","e",1,1,"2024-08-28_14h04.14.773","IAT(Formal)","2021.2.3","Win32",60.24096386,"",NA,"",NA,NA,NA,NA,NA,NA,NA,"","","",NA,"",NA,NA,NA,NA,NA,NA,NA,"","","",NA,NA,NA,NA,NA,NA,"",NA,"e",1,0.4897,0,4,4,7,1,"",NA,"",NA,NA,NA,NA,NA,NA,NA,"","","",NA,"",NA,NA,NA,NA,NA,NA,NA,"",NA,"35"
"",NA,"",NA,"",NA,NA,NA,NA,NA,NA,NA,"我的","i",1,1,"2024-08-28_14h04.14.773","IAT(Formal)","2021.2.3","Win32",60.24096386,"",NA,"",NA,NA,NA,NA,NA,NA,NA,"","","",NA,"",NA,NA,NA,NA,NA,NA,NA,"","","",NA,NA,NA,NA,NA,NA,"",NA,"i",1,0.3322,0,5,5,1,1,"",NA,"",NA,NA,NA,NA,NA,NA,NA,"","","",NA,"",NA,NA,NA,NA,NA,NA,NA,"",NA,"35"
"",NA,"",NA,"",NA,NA,NA,NA,NA,NA,NA,"他","e",1,1,"2024-08-28_14h04.14.773","IAT(Formal)","2021.2.3","Win32",60.24096386,"",NA,"",NA,NA,NA,NA,NA,NA,NA,"","","",NA,"",NA,NA,NA,NA,NA,NA,NA,"","","",NA,NA,NA,NA,NA,NA,"",NA,"e",1,0.4033,0,6,6,5,1,"",NA,"",NA,NA,NA,NA,NA,NA,NA,"","","",NA,"",NA,NA,NA,NA,NA,NA,NA,"",NA,"35"
"",NA,"",NA,"",NA,NA,NA,NA,NA,NA,NA,"其他","e",1,1,"2024-08-28_14h04.14.773","IAT(Formal)","2021.2.3","Win32",60.24096386,"",NA,"",NA,NA,NA,NA,NA,NA,NA,"","","",NA,"",NA,NA,NA,NA,NA,NA,NA,"","","",NA,NA,NA,NA,NA,NA,"",NA,"e",1,0.4382,0,7,7,9,1,"",NA,"",NA,NA,NA,NA,NA,NA,NA,"","","",NA,"",NA,NA,NA,NA,NA,NA,NA,"",NA,"35"
"",NA,"",NA,"",NA,NA,NA,NA,NA,NA,NA,"他们","e",1,1,"2024-08-28_14h04.14.773","IAT(Formal)","2021.2.3","Win32",60.24096386,"",NA,"",NA,NA,NA,NA,NA,NA,NA,"","","",NA,"",NA,NA,NA,NA,NA,NA,NA,"","","",NA,NA,NA,NA,NA,NA,"",NA,"e",1,0.4492,0,8,8,6,1,"",NA,"",NA,NA,NA,NA,NA,NA,NA,"","","",NA,"",NA,NA,NA,NA,NA,NA,NA,"",NA,"35"
"",NA,"",NA,"",NA,NA,NA,NA,NA,NA,NA,"俺","i",1,1,"2024-08-28_14h04.14.773","IAT(Formal)","2021.2.3","Win32",60.24096386,"",NA,"",NA,NA,NA,NA,NA,NA,NA,"","","",NA,"",NA,NA,NA,NA,NA,NA,NA,"","","",NA,NA,NA,NA,NA,NA,"",NA,"i",1,0.599,0,9,9,4,1,"",NA,"",NA,NA,NA,NA,NA,NA,NA,"","","",NA,"",NA,NA,NA,NA,NA,NA,NA,"",NA,"35"
"",NA,"",NA,"",NA,NA,NA,NA,NA,NA,NA,"","",1,1,"2024-08-28_14h04.14.773","IAT(Formal)","2021.2.3","Win32",60.24096386,"",NA,"",NA,NA,NA,NA,NA,NA,NA,"","","",NA,"",NA,NA,NA,NA,NA,NA,NA,"","","",NA,NA,NA,NA,NA,NA,"",NA,"",NA,NA,NA,NA,NA,NA,NA,"space",8.2319,"e",0,0.6311,0,0,0,34,1,"悲观","i","",NA,"",NA,NA,NA,NA,NA,NA,NA,"",NA,"35"
"",NA,"",NA,"",NA,NA,NA,NA,NA,NA,NA,"","",1,1,"2024-08-28_14h04.14.773","IAT(Formal)","2021.2.3","Win32",60.24096386,"",NA,"",NA,NA,NA,NA,NA,NA,NA,"","","",NA,"",NA,NA,NA,NA,NA,NA,NA,"","","",NA,NA,NA,NA,NA,NA,"",NA,"",NA,NA,NA,NA,NA,NA,NA,"",NA,"e",1,0.7686,0,1,1,79,1,"其他","e","",NA,"",NA,NA,NA,NA,NA,NA,NA,"",NA,"35"
"",NA,"",NA,"",NA,NA,NA,NA,NA,NA,NA,"","",1,1,"2024-08-28_14h04.14.773","IAT(Formal)","2021.2.3","Win32",60.24096386,"",NA,"",NA,NA,NA,NA,NA,NA,NA,"","","",NA,"",NA,NA,NA,NA,NA,NA,NA,"","","",NA,NA,NA,NA,NA,NA,"",NA,"",NA,NA,NA,NA,NA,NA,NA,"",NA,"i",1,0.615,0,2,2,41,1,"散漫","i","",NA,"",NA,NA,NA,NA,NA,NA,NA,"",NA,"35"
"",NA,"",NA,"",NA,NA,NA,NA,NA,NA,NA,"","",1,1,"2024-08-28_14h04.14.773","IAT(Formal)","2021.2.3","Win32",60.24096386,"",NA,"",NA,NA,NA,NA,NA,NA,NA,"","","",NA,"",NA,NA,NA,NA,NA,NA,NA,"","","",NA,NA,NA,NA,NA,NA,"",NA,"",NA,NA,NA,NA,NA,NA,NA,"",NA,"i",1,0.4895,0,3,3,35,1,"消极","i","",NA,"",NA,NA,NA,NA,NA,NA,NA,"",NA,"35"
"",NA,"",NA,"",NA,NA,NA,NA,NA,NA,NA,"","",1,1,"2024-08-28_14h04.14.773","IAT(Formal)","2021.2.3","Win32",60.24096386,"",NA,"",NA,NA,NA,NA,NA,NA,NA,"","","",NA,"",NA,NA,NA,NA,NA,NA,NA,"","","",NA,NA,NA,NA,NA,NA,"",NA,"",NA,NA,NA,NA,NA,NA,NA,"",NA,"e",1,0.4903,0,4,4,8,1,"他人","e","",NA,"",NA,NA,NA,NA,NA,NA,NA,"",NA,"35"
