﻿Instruction1.keys,Instruction1.rt,Instruction2.keys,Instruction2.rt,key_resp_iso.keys,key_resp_iso.corr,key_resp_iso.rt,Practice_01.thisRepN,Practice_01.thisTrialN,Practice_01.thisN,Practice_01.thisIndex,Practice_01.ran,Words,ans,participant,session,date,expName,psychopyVersion,OS,frameRate,key_resp_3.keys,key_resp_3.rt,key_resp_ipn.keys,key_resp_ipn.corr,key_resp_ipn.rt,Practice_02.thisRepN,Practice_02.thisTrialN,Practice_02.thisN,Practice_02.thisIndex,Practice_02.ran,Words_ipn,ans_ipn,key_resp_4.keys,key_resp_4.rt,key_resp_t1.keys,key_resp_t1.corr,key_resp_t1.rt,Practice_T1.thisRepN,Practice_T1.thisTrialN,Practice_T1.thisN,Practice_T1.thisIndex,Practice_T1.ran,Words_t1,ans_t1,key_resp_5.keys,key_resp_5.rt,Formal_T1.thisRepN,Formal_T1.thisTrialN,Formal_T1.thisN,Formal_T1.thisIndex,Formal_T1.ran,key_resp_6.keys,key_resp_6.rt,key_resp_iso_reverse.keys,key_resp_iso_reverse.corr,key_resp_iso_reverse.rt,Practice_iso_Reverse.thisRepN,Practice_iso_Reverse.thisTrialN,Practice_iso_Reverse.thisN,Practice_iso_Reverse.thisIndex,Practice_iso_Reverse.ran,key_resp_7.keys,key_resp_7.rt,key_resp_t2_Practice.keys,key_resp_t2_Practice.corr,key_resp_t2_Practice.rt,Practice_t2_Reverse.thisRepN,Practice_t2_Reverse.thisTrialN,Practice_t2_Reverse.thisN,Practice_t2_Reverse.thisIndex,Practice_t2_Reverse.ran,Words_t2,ans_t2,key_resp_8.keys,key_resp_8.rt,key_resp_t2.keys,key_resp_t2.corr,key_resp_t2.rt,Formal_t2_reverse.thisRepN,Formal_t2_reverse.thisTrialN,Formal_t2_reverse.thisN,Formal_t2_reverse.thisIndex,Formal_t2_reverse.ran,key_instruct.keys,key_instruct.rt
space,6.8307,space,11.7607,i,1,1.3782,0,0,0,9,1,其他,i,1,001,2024-08-28_14h54.47.142,IAT(Formal),2021.2.3,Win32,59.52380952,,,,,,,,,,,,,,,,,,,,,,,,,,,,,,,,,,,,,,,,,,,,,,,,,,,,,,,,,,,,,,,,,
,,,,e,1,0.766,0,1,1,2,1,我们,e,1,001,2024-08-28_14h54.47.142,IAT(Formal),2021.2.3,Win32,59.52380952,,,,,,,,,,,,,,,,,,,,,,,,,,,,,,,,,,,,,,,,,,,,,,,,,,,,,,,,,,,,,,,,,
,,,,e,1,0.6002,0,2,2,3,1,自己,e,1,001,2024-08-28_14h54.47.142,IAT(Formal),2021.2.3,Win32,59.52380952,,,,,,,,,,,,,,,,,,,,,,,,,,,,,,,,,,,,,,,,,,,,,,,,,,,,,,,,,,,,,,,,,
,,,,e,1,0.5785,0,3,3,0,1,我,e,1,001,2024-08-28_14h54.47.142,IAT(Formal),2021.2.3,Win32,59.52380952,,,,,,,,,,,,,,,,,,,,,,,,,,,,,,,,,,,,,,,,,,,,,,,,,,,,,,,,,,,,,,,,,
,,,,i,1,0.5394,0,4,4,5,1,他,i,1,001,2024-08-28_14h54.47.142,IAT(Formal),2021.2.3,Win32,59.52380952,,,,,,,,,,,,,,,,,,,,,,,,,,,,,,,,,,,,,,,,,,,,,,,,,,,,,,,,,,,,,,,,,
,,,,i,1,0.5492,0,5,5,7,1,他的,i,1,001,2024-08-28_14h54.47.142,IAT(Formal),2021.2.3,Win32,59.52380952,,,,,,,,,,,,,,,,,,,,,,,,,,,,,,,,,,,,,,,,,,,,,,,,,,,,,,,,,,,,,,,,,
,,,,i,1,0.4505,0,6,6,6,1,他们,i,1,001,2024-08-28_14h54.47.142,IAT(Formal),2021.2.3,Win32,59.52380952,,,,,,,,,,,,,,,,,,,,,,,,,,,,,,,,,,,,,,,,,,,,,,,,,,,,,,,,,,,,,,,,,
,,,,i,1,0.4676,0,7,7,8,1,他人,i,1,001,2024-08-28_14h54.47.142,IAT(Formal),2021.2.3,Win32,59.52380952,,,,,,,,,,,,,,,,,,,,,,,,,,,,,,,,,,,,,,,,,,,,,,,,,,,,,,,,,,,,,,,,,
,,,,e,1,0.422,0,8,8,1,1,我的,e,1,001,2024-08-28_14h54.47.142,IAT(Formal),2021.2.3,Win32,59.52380952,,,,,,,,,,,,,,,,,,,,,,,,,,,,,,,,,,,,,,,,,,,,,,,,,,,,,,,,,,,,,,,,,
,,,,e,1,0.6888,0,9,9,4,1,俺,e,1,001,2024-08-28_14h54.47.142,IAT(Formal),2021.2.3,Win32,59.52380952,,,,,,,,,,,,,,,,,,,,,,,,,,,,,,,,,,,,,,,,,,,,,,,,,,,,,,,,,,,,,,,,,
,,,,,,,,,,,,,,1,001,2024-08-28_14h54.47.142,IAT(Formal),2021.2.3,Win32,59.52380952,space,8.2758,e,1,0.5646,0,0,0,0,1,优秀,e,,,,,,,,,,,,,,,,,,,,,,,,,,,,,,,,,,,,,,,,,,,,,,,,,,,,,
,,,,,,,,,,,,,,1,001,2024-08-28_14h54.47.142,IAT(Formal),2021.2.3,Win32,59.52380952,,,e,1,0.5693,0,1,1,17,1,热情,e,,,,,,,,,,,,,,,,,,,,,,,,,,,,,,,,,,,,,,,,,,,,,,,,,,,,,
,,,,,,,,,,,,,,1,001,2024-08-28_14h54.47.142,IAT(Formal),2021.2.3,Win32,59.52380952,,,i,1,0.5358,0,2,2,33,1,自私,i,,,,,,,,,,,,,,,,,,,,,,,,,,,,,,,,,,,,,,,,,,,,,,,,,,,,,
,,,,,,,,,,,,,,1,001,2024-08-28_14h54.47.142,IAT(Formal),2021.2.3,Win32,59.52380952,,,i,1,0.4695,0,3,3,38,1,轻率,i,,,,,,,,,,,,,,,,,,,,,,,,,,,,,,,,,,,,,,,,,,,,,,,,,,,,,
,,,,,,,,,,,,,,1,001,2024-08-28_14h54.47.142,IAT(Formal),2021.2.3,Win32,59.52380952,,,i,1,0.5934,0,4,4,23,1,刻薄,i,,,,,,,,,,,,,,,,,,,,,,,,,,,,,,,,,,,,,,,,,,,,,,,,,,,,,
,,,,,,,,,,,,,,1,001,2024-08-28_14h54.47.142,IAT(Formal),2021.2.3,Win32,59.52380952,,,i,1,1.2729,0,5,5,30,1,执拗,i,,,,,,,,,,,,,,,,,,,,,,,,,,,,,,,,,,,,,,,,,,,,,,,,,,,,,
,,,,,,,,,,,,,,1,001,2024-08-28_14h54.47.142,IAT(Formal),2021.2.3,Win32,59.52380952,,,e,1,0.488,0,6,6,8,1,勤奋,e,,,,,,,,,,,,,,,,,,,,,,,,,,,,,,,,,,,,,,,,,,,,,,,,,,,,,
,,,,,,,,,,,,,,1,001,2024-08-28_14h54.47.142,IAT(Formal),2021.2.3,Win32,59.52380952,,,e,1,0.5489,0,7,7,7,1,勇敢,e,,,,,,,,,,,,,,,,,,,,,,,,,,,,,,,,,,,,,,,,,,,,,,,,,,,,,
,,,,,,,,,,,,,,1,001,2024-08-28_14h54.47.142,IAT(Formal),2021.2.3,Win32,59.52380952,,,e,1,0.5192,0,8,8,4,1,乐观,e,,,,,,,,,,,,,,,,,,,,,,,,,,,,,,,,,,,,,,,,,,,,,,,,,,,,,
,,,,,,,,,,,,,,1,001,2024-08-28_14h54.47.142,IAT(Formal),2021.2.3,Win32,59.52380952,,,e,1,0.6572,0,9,9,14,1,朴实,e,,,,,,,,,,,,,,,,,,,,,,,,,,,,,,,,,,,,,,,,,,,,,,,,,,,,,
,,,,,,,,,,,,,,1,001,2024-08-28_14h54.47.142,IAT(Formal),2021.2.3,Win32,59.52380952,,,i,1,0.4818,0,10,10,32,1,凶狠,i,,,,,,,,,,,,,,,,,,,,,,,,,,,,,,,,,,,,,,,,,,,,,,,,,,,,,
,,,,,,,,,,,,,,1,001,2024-08-28_14h54.47.142,IAT(Formal),2021.2.3,Win32,59.52380952,,,e,1,0.7818,0,11,11,15,1,细腻,e,,,,,,,,,,,,,,,,,,,,,,,,,,,,,,,,,,,,,,,,,,,,,,,,,,,,,
,,,,,,,,,,,,,,1,001,2024-08-28_14h54.47.142,IAT(Formal),2021.2.3,Win32,59.52380952,,,e,1,0.4943,0,12,12,9,1,机智,e,,,,,,,,,,,,,,,,,,,,,,,,,,,,,,,,,,,,,,,,,,,,,,,,,,,,,
,,,,,,,,,,,,,,1,001,2024-08-28_14h54.47.142,IAT(Formal),2021.2.3,Win32,59.52380952,,,e,1,0.559,0,13,13,11,1,稳重,e,,,,,,,,,,,,,,,,,,,,,,,,,,,,,,,,,,,,,,,,,,,,,,,,,,,,,
,,,,,,,,,,,,,,1,001,2024-08-28_14h54.47.142,IAT(Formal),2021.2.3,Win32,59.52380952,,,e,1,0.5317,0,14,14,18,1,活泼,e,,,,,,,,,,,,,,,,,,,,,,,,,,,,,,,,,,,,,,,,,,,,,,,,,,,,,
,,,,,,,,,,,,,,1,001,2024-08-28_14h54.47.142,IAT(Formal),2021.2.3,Win32,59.52380952,,,i,1,0.5775,0,15,15,25,1,消极,i,,,,,,,,,,,,,,,,,,,,,,,,,,,,,,,,,,,,,,,,,,,,,,,,,,,,,
,,,,,,,,,,,,,,1,001,2024-08-28_14h54.47.142,IAT(Formal),2021.2.3,Win32,59.52380952,,,i,1,0.6543,0,16,16,36,1,野蛮,i,,,,,,,,,,,,,,,,,,,,,,,,,,,,,,,,,,,,,,,,,,,,,,,,,,,,,
,,,,,,,,,,,,,,1,001,2024-08-28_14h54.47.142,IAT(Formal),2021.2.3,Win32,59.52380952,,,i,1,0.4866,0,17,17,20,1,卑鄙,i,,,,,,,,,,,,,,,,,,,,,,,,,,,,,,,,,,,,,,,,,,,,,,,,,,,,,
,,,,,,,,,,,,,,1,001,2024-08-28_14h54.47.142,IAT(Formal),2021.2.3,Win32,59.52380952,,,i,1,0.5662,0,18,18,37,1,固执,i,,,,,,,,,,,,,,,,,,,,,,,,,,,,,,,,,,,,,,,,,,,,,,,,,,,,,
,,,,,,,,,,,,,,1,001,2024-08-28_14h54.47.142,IAT(Formal),2021.2.3,Win32,59.52380952,,,e,1,0.687,0,19,19,3,1,杰出,e,,,,,,,,,,,,,,,,,,,,,,,,,,,,,,,,,,,,,,,,,,,,,,,,,,,,,
,,,,,,,,,,,,,,1,001,2024-08-28_14h54.47.142,IAT(Formal),2021.2.3,Win32,59.52380952,,,e,1,0.617,0,20,20,16,1,冷静,e,,,,,,,,,,,,,,,,,,,,,,,,,,,,,,,,,,,,,,,,,,,,,,,,,,,,,
,,,,,,,,,,,,,,1,001,2024-08-28_14h54.47.142,IAT(Formal),2021.2.3,Win32,59.52380952,,,e,1,0.5607,0,21,21,13,1,公正,e,,,,,,,,,,,,,,,,,,,,,,,,,,,,,,,,,,,,,,,,,,,,,,,,,,,,,
,,,,,,,,,,,,,,1,001,2024-08-28_14h54.47.142,IAT(Formal),2021.2.3,Win32,59.52380952,,,i,1,0.639,0,22,22,22,1,愚蠢,i,,,,,,,,,,,,,,,,,,,,,,,,,,,,,,,,,,,,,,,,,,,,,,,,,,,,,
,,,,,,,,,,,,,,1,001,2024-08-28_14h54.47.142,IAT(Formal),2021.2.3,Win32,59.52380952,,,i,1,0.5186,0,23,23,28,1,鲁莽,i,,,,,,,,,,,,,,,,,,,,,,,,,,,,,,,,,,,,,,,,,,,,,,,,,,,,,
,,,,,,,,,,,,,,1,001,2024-08-28_14h54.47.142,IAT(Formal),2021.2.3,Win32,59.52380952,,,i,0,0.5356,0,24,24,12,1,无私,e,,,,,,,,,,,,,,,,,,,,,,,,,,,,,,,,,,,,,,,,,,,,,,,,,,,,,
,,,,,,,,,,,,,,1,001,2024-08-28_14h54.47.142,IAT(Formal),2021.2.3,Win32,59.52380952,,,e,1,0.552,0,25,25,6,1,正直,e,,,,,,,,,,,,,,,,,,,,,,,,,,,,,,,,,,,,,,,,,,,,,,,,,,,,,
,,,,,,,,,,,,,,1,001,2024-08-28_14h54.47.142,IAT(Formal),2021.2.3,Win32,59.52380952,,,e,1,0.4651,0,26,26,5,1,诚实,e,,,,,,,,,,,,,,,,,,,,,,,,,,,,,,,,,,,,,,,,,,,,,,,,,,,,,
,,,,,,,,,,,,,,1,001,2024-08-28_14h54.47.142,IAT(Formal),2021.2.3,Win32,59.52380952,,,i,1,0.5837,0,27,27,26,1,自卑,i,,,,,,,,,,,,,,,,,,,,,,,,,,,,,,,,,,,,,,,,,,,,,,,,,,,,,
,,,,,,,,,,,,,,1,001,2024-08-28_14h54.47.142,IAT(Formal),2021.2.3,Win32,59.52380952,,,i,1,0.6551,0,28,28,29,1,冒失,i,,,,,,,,,,,,,,,,,,,,,,,,,,,,,,,,,,,,,,,,,,,,,,,,,,,,,
,,,,,,,,,,,,,,1,001,2024-08-28_14h54.47.142,IAT(Formal),2021.2.3,Win32,59.52380952,,,e,1,0.5945,0,29,29,1,1,崇高,e,,,,,,,,,,,,,,,,,,,,,,,,,,,,,,,,,,,,,,,,,,,,,,,,,,,,,
,,,,,,,,,,,,,,1,001,2024-08-28_14h54.47.142,IAT(Formal),2021.2.3,Win32,59.52380952,,,i,1,0.7074,0,30,30,21,1,虚伪,i,,,,,,,,,,,,,,,,,,,,,,,,,,,,,,,,,,,,,,,,,,,,,,,,,,,,,
,,,,,,,,,,,,,,1,001,2024-08-28_14h54.47.142,IAT(Formal),2021.2.3,Win32,59.52380952,,,e,1,0.5418,0,31,31,19,1,诚恳,e,,,,,,,,,,,,,,,,,,,,,,,,,,,,,,,,,,,,,,,,,,,,,,,,,,,,,
,,,,,,,,,,,,,,1,001,2024-08-28_14h54.47.142,IAT(Formal),2021.2.3,Win32,59.52380952,,,i,1,0.5652,0,32,32,39,1,下贱,i,,,,,,,,,,,,,,,,,,,,,,,,,,,,,,,,,,,,,,,,,,,,,,,,,,,,,
,,,,,,,,,,,,,,1,001,2024-08-28_14h54.47.142,IAT(Formal),2021.2.3,Win32,59.52380952,,,i,1,0.5989,0,33,33,34,1,暴躁,i,,,,,,,,,,,,,,,,,,,,,,,,,,,,,,,,,,,,,,,,,,,,,,,,,,,,,
,,,,,,,,,,,,,,1,001,2024-08-28_14h54.47.142,IAT(Formal),2021.2.3,Win32,59.52380952,,,i,1,0.7194,0,34,34,24,1,悲观,i,,,,,,,,,,,,,,,,,,,,,,,,,,,,,,,,,,,,,,,,,,,,,,,,,,,,,
,,,,,,,,,,,,,,1,001,2024-08-28_14h54.47.142,IAT(Formal),2021.2.3,Win32,59.52380952,,,e,1,0.5671,0,35,35,2,1,聪明,e,,,,,,,,,,,,,,,,,,,,,,,,,,,,,,,,,,,,,,,,,,,,,,,,,,,,,
,,,,,,,,,,,,,,1,001,2024-08-28_14h54.47.142,IAT(Formal),2021.2.3,Win32,59.52380952,,,i,1,0.7872,0,36,36,31,1,散漫,i,,,,,,,,,,,,,,,,,,,,,,,,,,,,,,,,,,,,,,,,,,,,,,,,,,,,,
,,,,,,,,,,,,,,1,001,2024-08-28_14h54.47.142,IAT(Formal),2021.2.3,Win32,59.52380952,,,i,1,0.5671,0,37,37,35,1,猖狂,i,,,,,,,,,,,,,,,,,,,,,,,,,,,,,,,,,,,,,,,,,,,,,,,,,,,,,
,,,,,,,,,,,,,,1,001,2024-08-28_14h54.47.142,IAT(Formal),2021.2.3,Win32,59.52380952,,,i,1,0.5316,0,38,38,27,1,傲慢,i,,,,,,,,,,,,,,,,,,,,,,,,,,,,,,,,,,,,,,,,,,,,,,,,,,,,,
,,,,,,,,,,,,,,1,001,2024-08-28_14h54.47.142,IAT(Formal),2021.2.3,Win32,59.52380952,,,e,1,0.5337,0,39,39,10,1,认真,e,,,,,,,,,,,,,,,,,,,,,,,,,,,,,,,,,,,,,,,,,,,,,,,,,,,,,
,,,,,,,,,,,,,,1,001,2024-08-28_14h54.47.142,IAT(Formal),2021.2.3,Win32,59.52380952,,,,,,,,,,,,,space,7.4704,e,1,0.5838,0,0,0,12,1,聪明,e,,,,,,,,,,,,,,,,,,,,,,,,,,,,,,,,,,,,,,,,,
,,,,,,,,,,,,,,1,001,2024-08-28_14h54.47.142,IAT(Formal),2021.2.3,Win32,59.52380952,,,,,,,,,,,,,,,i,1,0.5604,0,1,1,68,1,他人,i,,,,,,,,,,,,,,,,,,,,,,,,,,,,,,,,,,,,,,,,,
,,,,,,,,,,,,,,1,001,2024-08-28_14h54.47.142,IAT(Formal),2021.2.3,Win32,59.52380952,,,,,,,,,,,,,,,i,1,0.4668,0,2,2,57,1,他的,i,,,,,,,,,,,,,,,,,,,,,,,,,,,,,,,,,,,,,,,,,
,,,,,,,,,,,,,,1,001,2024-08-28_14h54.47.142,IAT(Formal),2021.2.3,Win32,59.52380952,,,,,,,,,,,,,,,i,1,0.5467,0,3,3,67,1,他的,i,,,,,,,,,,,,,,,,,,,,,,,,,,,,,,,,,,,,,,,,,
,,,,,,,,,,,,,,1,001,2024-08-28_14h54.47.142,IAT(Formal),2021.2.3,Win32,59.52380952,,,,,,,,,,,,,,,i,1,0.6929,0,4,4,39,1,冒失,i,,,,,,,,,,,,,,,,,,,,,,,,,,,,,,,,,,,,,,,,,
,,,,,,,,,,,,,,1,001,2024-08-28_14h54.47.142,IAT(Formal),2021.2.3,Win32,59.52380952,,,,,,,,,,,,,,,e,1,0.4455,0,5,5,24,1,朴实,e,,,,,,,,,,,,,,,,,,,,,,,,,,,,,,,,,,,,,,,,,
,,,,,,,,,,,,,,1,001,2024-08-28_14h54.47.142,IAT(Formal),2021.2.3,Win32,59.52380952,,,,,,,,,,,,,,,i,1,0.4796,0,6,6,78,1,他人,i,,,,,,,,,,,,,,,,,,,,,,,,,,,,,,,,,,,,,,,,,
,,,,,,,,,,,,,,1,001,2024-08-28_14h54.47.142,IAT(Formal),2021.2.3,Win32,59.52380952,,,,,,,,,,,,,,,i,1,0.6274,0,7,7,32,1,愚蠢,i,,,,,,,,,,,,,,,,,,,,,,,,,,,,,,,,,,,,,,,,,
,,,,,,,,,,,,,,1,001,2024-08-28_14h54.47.142,IAT(Formal),2021.2.3,Win32,59.52380952,,,,,,,,,,,,,,,i,1,0.6499,0,8,8,69,1,其他,i,,,,,,,,,,,,,,,,,,,,,,,,,,,,,,,,,,,,,,,,,
,,,,,,,,,,,,,,1,001,2024-08-28_14h54.47.142,IAT(Formal),2021.2.3,Win32,59.52380952,,,,,,,,,,,,,,,e,1,0.4942,0,9,9,10,1,优秀,e,,,,,,,,,,,,,,,,,,,,,,,,,,,,,,,,,,,,,,,,,
,,,,,,,,,,,,,,1,001,2024-08-28_14h54.47.142,IAT(Formal),2021.2.3,Win32,59.52380952,,,,,,,,,,,,,,,i,1,0.5611,0,10,10,45,1,猖狂,i,,,,,,,,,,,,,,,,,,,,,,,,,,,,,,,,,,,,,,,,,
,,,,,,,,,,,,,,1,001,2024-08-28_14h54.47.142,IAT(Formal),2021.2.3,Win32,59.52380952,,,,,,,,,,,,,,,i,1,0.6449,0,11,11,6,1,他们,i,,,,,,,,,,,,,,,,,,,,,,,,,,,,,,,,,,,,,,,,,
,,,,,,,,,,,,,,1,001,2024-08-28_14h54.47.142,IAT(Formal),2021.2.3,Win32,59.52380952,,,,,,,,,,,,,,,e,1,0.4937,0,12,12,1,1,我的,e,,,,,,,,,,,,,,,,,,,,,,,,,,,,,,,,,,,,,,,,,
,,,,,,,,,,,,,,1,001,2024-08-28_14h54.47.142,IAT(Formal),2021.2.3,Win32,59.52380952,,,,,,,,,,,,,,,i,1,0.4443,0,13,13,77,1,他的,i,,,,,,,,,,,,,,,,,,,,,,,,,,,,,,,,,,,,,,,,,
,,,,,,,,,,,,,,1,001,2024-08-28_14h54.47.142,IAT(Formal),2021.2.3,Win32,59.52380952,,,,,,,,,,,,,,,i,1,0.5346,0,14,14,7,1,他的,i,,,,,,,,,,,,,,,,,,,,,,,,,,,,,,,,,,,,,,,,,
,,,,,,,,,,,,,,1,001,2024-08-28_14h54.47.142,IAT(Formal),2021.2.3,Win32,59.52380952,,,,,,,,,,,,,,,e,1,0.5668,0,15,15,28,1,活泼,e,,,,,,,,,,,,,,,,,,,,,,,,,,,,,,,,,,,,,,,,,
,,,,,,,,,,,,,,1,001,2024-08-28_14h54.47.142,IAT(Formal),2021.2.3,Win32,59.52380952,,,,,,,,,,,,,,,e,1,0.4775,0,16,16,71,1,我的,e,,,,,,,,,,,,,,,,,,,,,,,,,,,,,,,,,,,,,,,,,
,,,,,,,,,,,,,,1,001,2024-08-28_14h54.47.142,IAT(Formal),2021.2.3,Win32,59.52380952,,,,,,,,,,,,,,,i,1,0.4947,0,17,17,65,1,他,i,,,,,,,,,,,,,,,,,,,,,,,,,,,,,,,,,,,,,,,,,
,,,,,,,,,,,,,,1,001,2024-08-28_14h54.47.142,IAT(Formal),2021.2.3,Win32,59.52380952,,,,,,,,,,,,,,,e,1,0.5002,0,18,18,21,1,稳重,e,,,,,,,,,,,,,,,,,,,,,,,,,,,,,,,,,,,,,,,,,
,,,,,,,,,,,,,,1,001,2024-08-28_14h54.47.142,IAT(Formal),2021.2.3,Win32,59.52380952,,,,,,,,,,,,,,,e,1,0.517,0,19,19,64,1,俺,e,,,,,,,,,,,,,,,,,,,,,,,,,,,,,,,,,,,,,,,,,
,,,,,,,,,,,,,,1,001,2024-08-28_14h54.47.142,IAT(Formal),2021.2.3,Win32,59.52380952,,,,,,,,,,,,,,,i,1,0.6667,0,20,20,34,1,悲观,i,,,,,,,,,,,,,,,,,,,,,,,,,,,,,,,,,,,,,,,,,
,,,,,,,,,,,,,,1,001,2024-08-28_14h54.47.142,IAT(Formal),2021.2.3,Win32,59.52380952,,,,,,,,,,,,,,,e,1,0.5176,0,21,21,11,1,崇高,e,,,,,,,,,,,,,,,,,,,,,,,,,,,,,,,,,,,,,,,,,
,,,,,,,,,,,,,,1,001,2024-08-28_14h54.47.142,IAT(Formal),2021.2.3,Win32,59.52380952,,,,,,,,,,,,,,,e,1,0.5373,0,22,22,15,1,诚实,e,,,,,,,,,,,,,,,,,,,,,,,,,,,,,,,,,,,,,,,,,
,,,,,,,,,,,,,,1,001,2024-08-28_14h54.47.142,IAT(Formal),2021.2.3,Win32,59.52380952,,,,,,,,,,,,,,,i,1,0.5643,0,23,23,9,1,其他,i,,,,,,,,,,,,,,,,,,,,,,,,,,,,,,,,,,,,,,,,,
,,,,,,,,,,,,,,1,001,2024-08-28_14h54.47.142,IAT(Formal),2021.2.3,Win32,59.52380952,,,,,,,,,,,,,,,e,1,0.5943,0,24,24,73,1,自己,e,,,,,,,,,,,,,,,,,,,,,,,,,,,,,,,,,,,,,,,,,
,,,,,,,,,,,,,,1,001,2024-08-28_14h54.47.142,IAT(Formal),2021.2.3,Win32,59.52380952,,,,,,,,,,,,,,,e,1,0.5332,0,25,25,16,1,正直,e,,,,,,,,,,,,,,,,,,,,,,,,,,,,,,,,,,,,,,,,,
,,,,,,,,,,,,,,1,001,2024-08-28_14h54.47.142,IAT(Formal),2021.2.3,Win32,59.52380952,,,,,,,,,,,,,,,i,1,0.6669,0,26,26,41,1,散漫,i,,,,,,,,,,,,,,,,,,,,,,,,,,,,,,,,,,,,,,,,,
,,,,,,,,,,,,,,1,001,2024-08-28_14h54.47.142,IAT(Formal),2021.2.3,Win32,59.52380952,,,,,,,,,,,,,,,e,1,0.5945,0,27,27,29,1,诚恳,e,,,,,,,,,,,,,,,,,,,,,,,,,,,,,,,,,,,,,,,,,
,,,,,,,,,,,,,,1,001,2024-08-28_14h54.47.142,IAT(Formal),2021.2.3,Win32,59.52380952,,,,,,,,,,,,,,,i,1,0.5946,0,28,28,55,1,他,i,,,,,,,,,,,,,,,,,,,,,,,,,,,,,,,,,,,,,,,,,
,,,,,,,,,,,,,,1,001,2024-08-28_14h54.47.142,IAT(Formal),2021.2.3,Win32,59.52380952,,,,,,,,,,,,,,,e,1,0.5609,0,29,29,70,1,我,e,,,,,,,,,,,,,,,,,,,,,,,,,,,,,,,,,,,,,,,,,
,,,,,,,,,,,,,,1,001,2024-08-28_14h54.47.142,IAT(Formal),2021.2.3,Win32,59.52380952,,,,,,,,,,,,,,,e,1,0.6386,0,30,30,54,1,俺,e,,,,,,,,,,,,,,,,,,,,,,,,,,,,,,,,,,,,,,,,,
,,,,,,,,,,,,,,1,001,2024-08-28_14h54.47.142,IAT(Formal),2021.2.3,Win32,59.52380952,,,,,,,,,,,,,,,e,1,0.5898,0,31,31,61,1,我的,e,,,,,,,,,,,,,,,,,,,,,,,,,,,,,,,,,,,,,,,,,
,,,,,,,,,,,,,,1,001,2024-08-28_14h54.47.142,IAT(Formal),2021.2.3,Win32,59.52380952,,,,,,,,,,,,,,,i,1,0.6041,0,32,32,36,1,自卑,i,,,,,,,,,,,,,,,,,,,,,,,,,,,,,,,,,,,,,,,,,
,,,,,,,,,,,,,,1,001,2024-08-28_14h54.47.142,IAT(Formal),2021.2.3,Win32,59.52380952,,,,,,,,,,,,,,,i,1,0.5801,0,33,33,46,1,野蛮,i,,,,,,,,,,,,,,,,,,,,,,,,,,,,,,,,,,,,,,,,,
,,,,,,,,,,,,,,1,001,2024-08-28_14h54.47.142,IAT(Formal),2021.2.3,Win32,59.52380952,,,,,,,,,,,,,,,e,1,0.6606,0,34,34,62,1,我们,e,,,,,,,,,,,,,,,,,,,,,,,,,,,,,,,,,,,,,,,,,
,,,,,,,,,,,,,,1,001,2024-08-28_14h54.47.142,IAT(Formal),2021.2.3,Win32,59.52380952,,,,,,,,,,,,,,,e,1,0.5672,0,35,35,13,1,杰出,e,,,,,,,,,,,,,,,,,,,,,,,,,,,,,,,,,,,,,,,,,
,,,,,,,,,,,,,,1,001,2024-08-28_14h54.47.142,IAT(Formal),2021.2.3,Win32,59.52380952,,,,,,,,,,,,,,,i,1,0.5771,0,36,36,38,1,鲁莽,i,,,,,,,,,,,,,,,,,,,,,,,,,,,,,,,,,,,,,,,,,
,,,,,,,,,,,,,,1,001,2024-08-28_14h54.47.142,IAT(Formal),2021.2.3,Win32,59.52380952,,,,,,,,,,,,,,,i,1,0.5513,0,37,37,44,1,暴躁,i,,,,,,,,,,,,,,,,,,,,,,,,,,,,,,,,,,,,,,,,,
,,,,,,,,,,,,,,1,001,2024-08-28_14h54.47.142,IAT(Formal),2021.2.3,Win32,59.52380952,,,,,,,,,,,,,,,e,1,0.5619,0,38,38,63,1,自己,e,,,,,,,,,,,,,,,,,,,,,,,,,,,,,,,,,,,,,,,,,
,,,,,,,,,,,,,,1,001,2024-08-28_14h54.47.142,IAT(Formal),2021.2.3,Win32,59.52380952,,,,,,,,,,,,,,,e,1,0.5104,0,39,39,2,1,我们,e,,,,,,,,,,,,,,,,,,,,,,,,,,,,,,,,,,,,,,,,,
,,,,,,,,,,,,,,1,001,2024-08-28_14h54.47.142,IAT(Formal),2021.2.3,Win32,59.52380952,,,,,,,,,,,,,,,e,1,0.585,0,40,40,3,1,自己,e,,,,,,,,,,,,,,,,,,,,,,,,,,,,,,,,,,,,,,,,,
,,,,,,,,,,,,,,1,001,2024-08-28_14h54.47.142,IAT(Formal),2021.2.3,Win32,59.52380952,,,,,,,,,,,,,,,e,1,0.5497,0,41,41,17,1,勇敢,e,,,,,,,,,,,,,,,,,,,,,,,,,,,,,,,,,,,,,,,,,
,,,,,,,,,,,,,,1,001,2024-08-28_14h54.47.142,IAT(Formal),2021.2.3,Win32,59.52380952,,,,,,,,,,,,,,,e,1,0.5168,0,42,42,0,1,我,e,,,,,,,,,,,,,,,,,,,,,,,,,,,,,,,,,,,,,,,,,
,,,,,,,,,,,,,,1,001,2024-08-28_14h54.47.142,IAT(Formal),2021.2.3,Win32,59.52380952,,,,,,,,,,,,,,,e,1,0.4993,0,43,43,51,1,我的,e,,,,,,,,,,,,,,,,,,,,,,,,,,,,,,,,,,,,,,,,,
,,,,,,,,,,,,,,1,001,2024-08-28_14h54.47.142,IAT(Formal),2021.2.3,Win32,59.52380952,,,,,,,,,,,,,,,e,1,0.5059,0,44,44,19,1,机智,e,,,,,,,,,,,,,,,,,,,,,,,,,,,,,,,,,,,,,,,,,
,,,,,,,,,,,,,,1,001,2024-08-28_14h54.47.142,IAT(Formal),2021.2.3,Win32,59.52380952,,,,,,,,,,,,,,,e,1,0.5603,0,45,45,26,1,冷静,e,,,,,,,,,,,,,,,,,,,,,,,,,,,,,,,,,,,,,,,,,
,,,,,,,,,,,,,,1,001,2024-08-28_14h54.47.142,IAT(Formal),2021.2.3,Win32,59.52380952,,,,,,,,,,,,,,,i,1,0.6313,0,46,46,42,1,凶狠,i,,,,,,,,,,,,,,,,,,,,,,,,,,,,,,,,,,,,,,,,,
,,,,,,,,,,,,,,1,001,2024-08-28_14h54.47.142,IAT(Formal),2021.2.3,Win32,59.52380952,,,,,,,,,,,,,,,i,1,0.6001,0,47,47,48,1,轻率,i,,,,,,,,,,,,,,,,,,,,,,,,,,,,,,,,,,,,,,,,,
,,,,,,,,,,,,,,1,001,2024-08-28_14h54.47.142,IAT(Formal),2021.2.3,Win32,59.52380952,,,,,,,,,,,,,,,i,1,0.5667,0,48,48,49,1,下贱,i,,,,,,,,,,,,,,,,,,,,,,,,,,,,,,,,,,,,,,,,,
,,,,,,,,,,,,,,1,001,2024-08-28_14h54.47.142,IAT(Formal),2021.2.3,Win32,59.52380952,,,,,,,,,,,,,,,i,1,0.7288,0,49,49,66,1,他们,i,,,,,,,,,,,,,,,,,,,,,,,,,,,,,,,,,,,,,,,,,
,,,,,,,,,,,,,,1,001,2024-08-28_14h54.47.142,IAT(Formal),2021.2.3,Win32,59.52380952,,,,,,,,,,,,,,,i,1,0.504,0,50,50,58,1,他人,i,,,,,,,,,,,,,,,,,,,,,,,,,,,,,,,,,,,,,,,,,
,,,,,,,,,,,,,,1,001,2024-08-28_14h54.47.142,IAT(Formal),2021.2.3,Win32,59.52380952,,,,,,,,,,,,,,,e,1,0.5612,0,51,51,23,1,公正,e,,,,,,,,,,,,,,,,,,,,,,,,,,,,,,,,,,,,,,,,,
,,,,,,,,,,,,,,1,001,2024-08-28_14h54.47.142,IAT(Formal),2021.2.3,Win32,59.52380952,,,,,,,,,,,,,,,i,1,0.5335,0,52,52,37,1,傲慢,i,,,,,,,,,,,,,,,,,,,,,,,,,,,,,,,,,,,,,,,,,
,,,,,,,,,,,,,,1,001,2024-08-28_14h54.47.142,IAT(Formal),2021.2.3,Win32,59.52380952,,,,,,,,,,,,,,,i,1,0.4989,0,53,53,8,1,他人,i,,,,,,,,,,,,,,,,,,,,,,,,,,,,,,,,,,,,,,,,,
,,,,,,,,,,,,,,1,001,2024-08-28_14h54.47.142,IAT(Formal),2021.2.3,Win32,59.52380952,,,,,,,,,,,,,,,e,1,0.6328,0,54,54,4,1,俺,e,,,,,,,,,,,,,,,,,,,,,,,,,,,,,,,,,,,,,,,,,
,,,,,,,,,,,,,,1,001,2024-08-28_14h54.47.142,IAT(Formal),2021.2.3,Win32,59.52380952,,,,,,,,,,,,,,,i,1,0.5397,0,55,55,56,1,他们,i,,,,,,,,,,,,,,,,,,,,,,,,,,,,,,,,,,,,,,,,,
,,,,,,,,,,,,,,1,001,2024-08-28_14h54.47.142,IAT(Formal),2021.2.3,Win32,59.52380952,,,,,,,,,,,,,,,i,1,0.594,0,56,56,33,1,刻薄,i,,,,,,,,,,,,,,,,,,,,,,,,,,,,,,,,,,,,,,,,,
,,,,,,,,,,,,,,1,001,2024-08-28_14h54.47.142,IAT(Formal),2021.2.3,Win32,59.52380952,,,,,,,,,,,,,,,e,1,0.8435,0,57,57,22,1,无私,e,,,,,,,,,,,,,,,,,,,,,,,,,,,,,,,,,,,,,,,,,
,,,,,,,,,,,,,,1,001,2024-08-28_14h54.47.142,IAT(Formal),2021.2.3,Win32,59.52380952,,,,,,,,,,,,,,,e,1,0.5273,0,58,58,60,1,我,e,,,,,,,,,,,,,,,,,,,,,,,,,,,,,,,,,,,,,,,,,
,,,,,,,,,,,,,,1,001,2024-08-28_14h54.47.142,IAT(Formal),2021.2.3,Win32,59.52380952,,,,,,,,,,,,,,,i,1,0.4998,0,59,59,31,1,虚伪,i,,,,,,,,,,,,,,,,,,,,,,,,,,,,,,,,,,,,,,,,,
,,,,,,,,,,,,,,1,001,2024-08-28_14h54.47.142,IAT(Formal),2021.2.3,Win32,59.52380952,,,,,,,,,,,,,,,e,1,0.4329,0,60,60,50,1,我,e,,,,,,,,,,,,,,,,,,,,,,,,,,,,,,,,,,,,,,,,,
,,,,,,,,,,,,,,1,001,2024-08-28_14h54.47.142,IAT(Formal),2021.2.3,Win32,59.52380952,,,,,,,,,,,,,,,e,1,0.5441,0,61,61,25,1,细腻,e,,,,,,,,,,,,,,,,,,,,,,,,,,,,,,,,,,,,,,,,,
,,,,,,,,,,,,,,1,001,2024-08-28_14h54.47.142,IAT(Formal),2021.2.3,Win32,59.52380952,,,,,,,,,,,,,,,e,1,0.5331,0,62,62,74,1,俺,e,,,,,,,,,,,,,,,,,,,,,,,,,,,,,,,,,,,,,,,,,
,,,,,,,,,,,,,,1,001,2024-08-28_14h54.47.142,IAT(Formal),2021.2.3,Win32,59.52380952,,,,,,,,,,,,,,,i,1,0.5608,0,63,63,79,1,其他,i,,,,,,,,,,,,,,,,,,,,,,,,,,,,,,,,,,,,,,,,,
,,,,,,,,,,,,,,1,001,2024-08-28_14h54.47.142,IAT(Formal),2021.2.3,Win32,59.52380952,,,,,,,,,,,,,,,i,1,0.5675,0,64,64,30,1,卑鄙,i,,,,,,,,,,,,,,,,,,,,,,,,,,,,,,,,,,,,,,,,,
,,,,,,,,,,,,,,1,001,2024-08-28_14h54.47.142,IAT(Formal),2021.2.3,Win32,59.52380952,,,,,,,,,,,,,,,e,1,0.473,0,65,65,18,1,勤奋,e,,,,,,,,,,,,,,,,,,,,,,,,,,,,,,,,,,,,,,,,,
,,,,,,,,,,,,,,1,001,2024-08-28_14h54.47.142,IAT(Formal),2021.2.3,Win32,59.52380952,,,,,,,,,,,,,,,e,1,0.4847,0,66,66,72,1,我们,e,,,,,,,,,,,,,,,,,,,,,,,,,,,,,,,,,,,,,,,,,
,,,,,,,,,,,,,,1,001,2024-08-28_14h54.47.142,IAT(Formal),2021.2.3,Win32,59.52380952,,,,,,,,,,,,,,,i,1,0.5482,0,67,67,43,1,自私,i,,,,,,,,,,,,,,,,,,,,,,,,,,,,,,,,,,,,,,,,,
,,,,,,,,,,,,,,1,001,2024-08-28_14h54.47.142,IAT(Formal),2021.2.3,Win32,59.52380952,,,,,,,,,,,,,,,i,1,0.6479,0,68,68,40,1,执拗,i,,,,,,,,,,,,,,,,,,,,,,,,,,,,,,,,,,,,,,,,,
,,,,,,,,,,,,,,1,001,2024-08-28_14h54.47.142,IAT(Formal),2021.2.3,Win32,59.52380952,,,,,,,,,,,,,,,i,1,0.5873,0,69,69,35,1,消极,i,,,,,,,,,,,,,,,,,,,,,,,,,,,,,,,,,,,,,,,,,
,,,,,,,,,,,,,,1,001,2024-08-28_14h54.47.142,IAT(Formal),2021.2.3,Win32,59.52380952,,,,,,,,,,,,,,,e,1,0.4765,0,70,70,27,1,热情,e,,,,,,,,,,,,,,,,,,,,,,,,,,,,,,,,,,,,,,,,,
,,,,,,,,,,,,,,1,001,2024-08-28_14h54.47.142,IAT(Formal),2021.2.3,Win32,59.52380952,,,,,,,,,,,,,,,e,1,0.5099,0,71,71,52,1,我们,e,,,,,,,,,,,,,,,,,,,,,,,,,,,,,,,,,,,,,,,,,
,,,,,,,,,,,,,,1,001,2024-08-28_14h54.47.142,IAT(Formal),2021.2.3,Win32,59.52380952,,,,,,,,,,,,,,,e,1,0.5277,0,72,72,53,1,自己,e,,,,,,,,,,,,,,,,,,,,,,,,,,,,,,,,,,,,,,,,,
,,,,,,,,,,,,,,1,001,2024-08-28_14h54.47.142,IAT(Formal),2021.2.3,Win32,59.52380952,,,,,,,,,,,,,,,i,1,0.5012,0,73,73,75,1,他,i,,,,,,,,,,,,,,,,,,,,,,,,,,,,,,,,,,,,,,,,,
,,,,,,,,,,,,,,1,001,2024-08-28_14h54.47.142,IAT(Formal),2021.2.3,Win32,59.52380952,,,,,,,,,,,,,,,e,1,0.5336,0,74,74,14,1,乐观,e,,,,,,,,,,,,,,,,,,,,,,,,,,,,,,,,,,,,,,,,,
,,,,,,,,,,,,,,1,001,2024-08-28_14h54.47.142,IAT(Formal),2021.2.3,Win32,59.52380952,,,,,,,,,,,,,,,i,1,0.5027,0,75,75,76,1,他们,i,,,,,,,,,,,,,,,,,,,,,,,,,,,,,,,,,,,,,,,,,
,,,,,,,,,,,,,,1,001,2024-08-28_14h54.47.142,IAT(Formal),2021.2.3,Win32,59.52380952,,,,,,,,,,,,,,,i,1,0.5441,0,76,76,5,1,他,i,,,,,,,,,,,,,,,,,,,,,,,,,,,,,,,,,,,,,,,,,
,,,,,,,,,,,,,,1,001,2024-08-28_14h54.47.142,IAT(Formal),2021.2.3,Win32,59.52380952,,,,,,,,,,,,,,,i,1,0.5605,0,77,77,47,1,固执,i,,,,,,,,,,,,,,,,,,,,,,,,,,,,,,,,,,,,,,,,,
,,,,,,,,,,,,,,1,001,2024-08-28_14h54.47.142,IAT(Formal),2021.2.3,Win32,59.52380952,,,,,,,,,,,,,,,e,1,0.5604,0,78,78,20,1,认真,e,,,,,,,,,,,,,,,,,,,,,,,,,,,,,,,,,,,,,,,,,
,,,,,,,,,,,,,,1,001,2024-08-28_14h54.47.142,IAT(Formal),2021.2.3,Win32,59.52380952,,,,,,,,,,,,,,,i,1,0.5607,0,79,79,59,1,其他,i,,,,,,,,,,,,,,,,,,,,,,,,,,,,,,,,,,,,,,,,,
,,,,,,,,,,,,,,1,001,2024-08-28_14h54.47.142,IAT(Formal),2021.2.3,Win32,59.52380952,,,,,,,,,,,,,,,e,1,0.4552,,,,,,诚实,e,space,7.644,0,0,0,15,1,,,,,,,,,,,,,,,,,,,,,,,,,,,,,,,,,,
,,,,,,,,,,,,,,1,001,2024-08-28_14h54.47.142,IAT(Formal),2021.2.3,Win32,59.52380952,,,,,,,,,,,,,,,i,1,0.5122,,,,,,他人,i,,,0,1,1,58,1,,,,,,,,,,,,,,,,,,,,,,,,,,,,,,,,,,
,,,,,,,,,,,,,,1,001,2024-08-28_14h54.47.142,IAT(Formal),2021.2.3,Win32,59.52380952,,,,,,,,,,,,,,,e,1,0.499,,,,,,稳重,e,,,0,2,2,21,1,,,,,,,,,,,,,,,,,,,,,,,,,,,,,,,,,,
,,,,,,,,,,,,,,1,001,2024-08-28_14h54.47.142,IAT(Formal),2021.2.3,Win32,59.52380952,,,,,,,,,,,,,,,e,1,0.4536,,,,,,自己,e,,,0,3,3,73,1,,,,,,,,,,,,,,,,,,,,,,,,,,,,,,,,,,
,,,,,,,,,,,,,,1,001,2024-08-28_14h54.47.142,IAT(Formal),2021.2.3,Win32,59.52380952,,,,,,,,,,,,,,,e,1,0.4426,,,,,,我,e,,,0,4,4,50,1,,,,,,,,,,,,,,,,,,,,,,,,,,,,,,,,,,
,,,,,,,,,,,,,,1,001,2024-08-28_14h54.47.142,IAT(Formal),2021.2.3,Win32,59.52380952,,,,,,,,,,,,,,,i,1,0.5006,,,,,,他们,i,,,0,5,5,66,1,,,,,,,,,,,,,,,,,,,,,,,,,,,,,,,,,,
,,,,,,,,,,,,,,1,001,2024-08-28_14h54.47.142,IAT(Formal),2021.2.3,Win32,59.52380952,,,,,,,,,,,,,,,e,1,0.4246,,,,,,我的,e,,,0,6,6,1,1,,,,,,,,,,,,,,,,,,,,,,,,,,,,,,,,,,
,,,,,,,,,,,,,,1,001,2024-08-28_14h54.47.142,IAT(Formal),2021.2.3,Win32,59.52380952,,,,,,,,,,,,,,,e,1,0.4869,,,,,,活泼,e,,,0,7,7,28,1,,,,,,,,,,,,,,,,,,,,,,,,,,,,,,,,,,
,,,,,,,,,,,,,,1,001,2024-08-28_14h54.47.142,IAT(Formal),2021.2.3,Win32,59.52380952,,,,,,,,,,,,,,,e,1,0.4394,,,,,,聪明,e,,,0,8,8,12,1,,,,,,,,,,,,,,,,,,,,,,,,,,,,,,,,,,
,,,,,,,,,,,,,,1,001,2024-08-28_14h54.47.142,IAT(Formal),2021.2.3,Win32,59.52380952,,,,,,,,,,,,,,,i,1,0.6378,,,,,,卑鄙,i,,,0,9,9,30,1,,,,,,,,,,,,,,,,,,,,,,,,,,,,,,,,,,
,,,,,,,,,,,,,,1,001,2024-08-28_14h54.47.142,IAT(Formal),2021.2.3,Win32,59.52380952,,,,,,,,,,,,,,,i,1,0.4834,,,,,,他,i,,,0,10,10,5,1,,,,,,,,,,,,,,,,,,,,,,,,,,,,,,,,,,
,,,,,,,,,,,,,,1,001,2024-08-28_14h54.47.142,IAT(Formal),2021.2.3,Win32,59.52380952,,,,,,,,,,,,,,,i,1,0.4518,,,,,,他,i,,,0,11,11,75,1,,,,,,,,,,,,,,,,,,,,,,,,,,,,,,,,,,
,,,,,,,,,,,,,,1,001,2024-08-28_14h54.47.142,IAT(Formal),2021.2.3,Win32,59.52380952,,,,,,,,,,,,,,,i,1,0.5279,,,,,,自私,i,,,0,12,12,43,1,,,,,,,,,,,,,,,,,,,,,,,,,,,,,,,,,,
,,,,,,,,,,,,,,1,001,2024-08-28_14h54.47.142,IAT(Formal),2021.2.3,Win32,59.52380952,,,,,,,,,,,,,,,i,1,0.5904,,,,,,执拗,i,,,0,13,13,40,1,,,,,,,,,,,,,,,,,,,,,,,,,,,,,,,,,,
,,,,,,,,,,,,,,1,001,2024-08-28_14h54.47.142,IAT(Formal),2021.2.3,Win32,59.52380952,,,,,,,,,,,,,,,e,1,0.4668,,,,,,正直,e,,,0,14,14,16,1,,,,,,,,,,,,,,,,,,,,,,,,,,,,,,,,,,
,,,,,,,,,,,,,,1,001,2024-08-28_14h54.47.142,IAT(Formal),2021.2.3,Win32,59.52380952,,,,,,,,,,,,,,,i,1,0.5021,,,,,,他的,i,,,0,15,15,57,1,,,,,,,,,,,,,,,,,,,,,,,,,,,,,,,,,,
,,,,,,,,,,,,,,1,001,2024-08-28_14h54.47.142,IAT(Formal),2021.2.3,Win32,59.52380952,,,,,,,,,,,,,,,i,1,0.4837,,,,,,他人,i,,,0,16,16,68,1,,,,,,,,,,,,,,,,,,,,,,,,,,,,,,,,,,
,,,,,,,,,,,,,,1,001,2024-08-28_14h54.47.142,IAT(Formal),2021.2.3,Win32,59.52380952,,,,,,,,,,,,,,,e,1,0.7332,,,,,,无私,e,,,0,17,17,22,1,,,,,,,,,,,,,,,,,,,,,,,,,,,,,,,,,,
,,,,,,,,,,,,,,1,001,2024-08-28_14h54.47.142,IAT(Formal),2021.2.3,Win32,59.52380952,,,,,,,,,,,,,,,i,1,0.5746,,,,,,傲慢,i,,,0,18,18,37,1,,,,,,,,,,,,,,,,,,,,,,,,,,,,,,,,,,
,,,,,,,,,,,,,,1,001,2024-08-28_14h54.47.142,IAT(Formal),2021.2.3,Win32,59.52380952,,,,,,,,,,,,,,,e,1,0.5187,,,,,,俺,e,,,0,19,19,64,1,,,,,,,,,,,,,,,,,,,,,,,,,,,,,,,,,,
,,,,,,,,,,,,,,1,001,2024-08-28_14h54.47.142,IAT(Formal),2021.2.3,Win32,59.52380952,,,,,,,,,,,,,,,e,1,0.5518,,,,,,俺,e,,,0,20,20,4,1,,,,,,,,,,,,,,,,,,,,,,,,,,,,,,,,,,
,,,,,,,,,,,,,,1,001,2024-08-28_14h54.47.142,IAT(Formal),2021.2.3,Win32,59.52380952,,,,,,,,,,,,,,,i,1,0.537,,,,,,消极,i,,,0,21,21,35,1,,,,,,,,,,,,,,,,,,,,,,,,,,,,,,,,,,
,,,,,,,,,,,,,,1,001,2024-08-28_14h54.47.142,IAT(Formal),2021.2.3,Win32,59.52380952,,,,,,,,,,,,,,,i,1,0.5388,,,,,,他们,i,,,0,22,22,56,1,,,,,,,,,,,,,,,,,,,,,,,,,,,,,,,,,,
,,,,,,,,,,,,,,1,001,2024-08-28_14h54.47.142,IAT(Formal),2021.2.3,Win32,59.52380952,,,,,,,,,,,,,,,e,1,0.5448,,,,,,优秀,e,,,0,23,23,10,1,,,,,,,,,,,,,,,,,,,,,,,,,,,,,,,,,,
,,,,,,,,,,,,,,1,001,2024-08-28_14h54.47.142,IAT(Formal),2021.2.3,Win32,59.52380952,,,,,,,,,,,,,,,i,1,0.6067,,,,,,猖狂,i,,,0,24,24,45,1,,,,,,,,,,,,,,,,,,,,,,,,,,,,,,,,,,
,,,,,,,,,,,,,,1,001,2024-08-28_14h54.47.142,IAT(Formal),2021.2.3,Win32,59.52380952,,,,,,,,,,,,,,,e,1,0.5021,,,,,,俺,e,,,0,25,25,54,1,,,,,,,,,,,,,,,,,,,,,,,,,,,,,,,,,,
,,,,,,,,,,,,,,1,001,2024-08-28_14h54.47.142,IAT(Formal),2021.2.3,Win32,59.52380952,,,,,,,,,,,,,,,e,1,0.5354,,,,,,冷静,e,,,0,26,26,26,1,,,,,,,,,,,,,,,,,,,,,,,,,,,,,,,,,,
,,,,,,,,,,,,,,1,001,2024-08-28_14h54.47.142,IAT(Formal),2021.2.3,Win32,59.52380952,,,,,,,,,,,,,,,i,1,0.5348,,,,,,下贱,i,,,0,27,27,49,1,,,,,,,,,,,,,,,,,,,,,,,,,,,,,,,,,,
,,,,,,,,,,,,,,1,001,2024-08-28_14h54.47.142,IAT(Formal),2021.2.3,Win32,59.52380952,,,,,,,,,,,,,,,i,1,0.57,,,,,,其他,i,,,0,28,28,9,1,,,,,,,,,,,,,,,,,,,,,,,,,,,,,,,,,,
,,,,,,,,,,,,,,1,001,2024-08-28_14h54.47.142,IAT(Formal),2021.2.3,Win32,59.52380952,,,,,,,,,,,,,,,e,1,0.4835,,,,,,朴实,e,,,0,29,29,24,1,,,,,,,,,,,,,,,,,,,,,,,,,,,,,,,,,,
,,,,,,,,,,,,,,1,001,2024-08-28_14h54.47.142,IAT(Formal),2021.2.3,Win32,59.52380952,,,,,,,,,,,,,,,e,1,0.5019,,,,,,机智,e,,,0,30,30,19,1,,,,,,,,,,,,,,,,,,,,,,,,,,,,,,,,,,
,,,,,,,,,,,,,,1,001,2024-08-28_14h54.47.142,IAT(Formal),2021.2.3,Win32,59.52380952,,,,,,,,,,,,,,,i,1,0.5335,,,,,,其他,i,,,0,31,31,59,1,,,,,,,,,,,,,,,,,,,,,,,,,,,,,,,,,,
,,,,,,,,,,,,,,1,001,2024-08-28_14h54.47.142,IAT(Formal),2021.2.3,Win32,59.52380952,,,,,,,,,,,,,,,e,1,0.4853,,,,,,我,e,,,0,32,32,0,1,,,,,,,,,,,,,,,,,,,,,,,,,,,,,,,,,,
,,,,,,,,,,,,,,1,001,2024-08-28_14h54.47.142,IAT(Formal),2021.2.3,Win32,59.52380952,,,,,,,,,,,,,,,e,1,0.4878,,,,,,乐观,e,,,0,33,33,14,1,,,,,,,,,,,,,,,,,,,,,,,,,,,,,,,,,,
,,,,,,,,,,,,,,1,001,2024-08-28_14h54.47.142,IAT(Formal),2021.2.3,Win32,59.52380952,,,,,,,,,,,,,,,i,1,0.5454,,,,,,刻薄,i,,,0,34,34,33,1,,,,,,,,,,,,,,,,,,,,,,,,,,,,,,,,,,
,,,,,,,,,,,,,,1,001,2024-08-28_14h54.47.142,IAT(Formal),2021.2.3,Win32,59.52380952,,,,,,,,,,,,,,,e,1,0.4927,,,,,,我们,e,,,0,35,35,62,1,,,,,,,,,,,,,,,,,,,,,,,,,,,,,,,,,,
,,,,,,,,,,,,,,1,001,2024-08-28_14h54.47.142,IAT(Formal),2021.2.3,Win32,59.52380952,,,,,,,,,,,,,,,i,1,0.561,,,,,,其他,i,,,0,36,36,69,1,,,,,,,,,,,,,,,,,,,,,,,,,,,,,,,,,,
,,,,,,,,,,,,,,1,001,2024-08-28_14h54.47.142,IAT(Formal),2021.2.3,Win32,59.52380952,,,,,,,,,,,,,,,i,1,0.7262,,,,,,他的,i,,,0,37,37,7,1,,,,,,,,,,,,,,,,,,,,,,,,,,,,,,,,,,
,,,,,,,,,,,,,,1,001,2024-08-28_14h54.47.142,IAT(Formal),2021.2.3,Win32,59.52380952,,,,,,,,,,,,,,,i,1,0.5564,,,,,,自卑,i,,,0,38,38,36,1,,,,,,,,,,,,,,,,,,,,,,,,,,,,,,,,,,
,,,,,,,,,,,,,,1,001,2024-08-28_14h54.47.142,IAT(Formal),2021.2.3,Win32,59.52380952,,,,,,,,,,,,,,,i,1,0.5835,,,,,,他,i,,,0,39,39,65,1,,,,,,,,,,,,,,,,,,,,,,,,,,,,,,,,,,
,,,,,,,,,,,,,,1,001,2024-08-28_14h54.47.142,IAT(Formal),2021.2.3,Win32,59.52380952,,,,,,,,,,,,,,,e,1,0.5187,,,,,,我们,e,,,0,40,40,2,1,,,,,,,,,,,,,,,,,,,,,,,,,,,,,,,,,,
,,,,,,,,,,,,,,1,001,2024-08-28_14h54.47.142,IAT(Formal),2021.2.3,Win32,59.52380952,,,,,,,,,,,,,,,e,1,0.5389,,,,,,俺,e,,,0,41,41,74,1,,,,,,,,,,,,,,,,,,,,,,,,,,,,,,,,,,
,,,,,,,,,,,,,,1,001,2024-08-28_14h54.47.142,IAT(Formal),2021.2.3,Win32,59.52380952,,,,,,,,,,,,,,,e,1,0.5256,,,,,,勤奋,e,,,0,42,42,18,1,,,,,,,,,,,,,,,,,,,,,,,,,,,,,,,,,,
,,,,,,,,,,,,,,1,001,2024-08-28_14h54.47.142,IAT(Formal),2021.2.3,Win32,59.52380952,,,,,,,,,,,,,,,e,1,0.5157,,,,,,诚恳,e,,,0,43,43,29,1,,,,,,,,,,,,,,,,,,,,,,,,,,,,,,,,,,
,,,,,,,,,,,,,,1,001,2024-08-28_14h54.47.142,IAT(Formal),2021.2.3,Win32,59.52380952,,,,,,,,,,,,,,,e,1,0.5239,,,,,,杰出,e,,,0,44,44,13,1,,,,,,,,,,,,,,,,,,,,,,,,,,,,,,,,,,
,,,,,,,,,,,,,,1,001,2024-08-28_14h54.47.142,IAT(Formal),2021.2.3,Win32,59.52380952,,,,,,,,,,,,,,,e,1,0.5237,,,,,,崇高,e,,,0,45,45,11,1,,,,,,,,,,,,,,,,,,,,,,,,,,,,,,,,,,
,,,,,,,,,,,,,,1,001,2024-08-28_14h54.47.142,IAT(Formal),2021.2.3,Win32,59.52380952,,,,,,,,,,,,,,,i,1,0.5361,,,,,,冒失,i,,,0,46,46,39,1,,,,,,,,,,,,,,,,,,,,,,,,,,,,,,,,,,
,,,,,,,,,,,,,,1,001,2024-08-28_14h54.47.142,IAT(Formal),2021.2.3,Win32,59.52380952,,,,,,,,,,,,,,,e,1,0.4847,,,,,,认真,e,,,0,47,47,20,1,,,,,,,,,,,,,,,,,,,,,,,,,,,,,,,,,,
,,,,,,,,,,,,,,1,001,2024-08-28_14h54.47.142,IAT(Formal),2021.2.3,Win32,59.52380952,,,,,,,,,,,,,,,e,1,0.5169,,,,,,我的,e,,,0,48,48,71,1,,,,,,,,,,,,,,,,,,,,,,,,,,,,,,,,,,
,,,,,,,,,,,,,,1,001,2024-08-28_14h54.47.142,IAT(Formal),2021.2.3,Win32,59.52380952,,,,,,,,,,,,,,,i,1,0.5281,,,,,,他,i,,,0,49,49,55,1,,,,,,,,,,,,,,,,,,,,,,,,,,,,,,,,,,
,,,,,,,,,,,,,,1,001,2024-08-28_14h54.47.142,IAT(Formal),2021.2.3,Win32,59.52380952,,,,,,,,,,,,,,,e,1,0.5331,,,,,,热情,e,,,0,50,50,27,1,,,,,,,,,,,,,,,,,,,,,,,,,,,,,,,,,,
,,,,,,,,,,,,,,1,001,2024-08-28_14h54.47.142,IAT(Formal),2021.2.3,Win32,59.52380952,,,,,,,,,,,,,,,i,1,0.5491,,,,,,虚伪,i,,,0,51,51,31,1,,,,,,,,,,,,,,,,,,,,,,,,,,,,,,,,,,
,,,,,,,,,,,,,,1,001,2024-08-28_14h54.47.142,IAT(Formal),2021.2.3,Win32,59.52380952,,,,,,,,,,,,,,,e,1,0.4537,,,,,,我的,e,,,0,52,52,61,1,,,,,,,,,,,,,,,,,,,,,,,,,,,,,,,,,,
,,,,,,,,,,,,,,1,001,2024-08-28_14h54.47.142,IAT(Formal),2021.2.3,Win32,59.52380952,,,,,,,,,,,,,,,e,1,0.5,,,,,,我们,e,,,0,53,53,52,1,,,,,,,,,,,,,,,,,,,,,,,,,,,,,,,,,,
,,,,,,,,,,,,,,1,001,2024-08-28_14h54.47.142,IAT(Formal),2021.2.3,Win32,59.52380952,,,,,,,,,,,,,,,i,1,0.5214,,,,,,其他,i,,,0,54,54,79,1,,,,,,,,,,,,,,,,,,,,,,,,,,,,,,,,,,
,,,,,,,,,,,,,,1,001,2024-08-28_14h54.47.142,IAT(Formal),2021.2.3,Win32,59.52380952,,,,,,,,,,,,,,,i,1,0.5588,,,,,,鲁莽,i,,,0,55,55,38,1,,,,,,,,,,,,,,,,,,,,,,,,,,,,,,,,,,
,,,,,,,,,,,,,,1,001,2024-08-28_14h54.47.142,IAT(Formal),2021.2.3,Win32,59.52380952,,,,,,,,,,,,,,,i,1,0.5401,,,,,,他的,i,,,0,56,56,77,1,,,,,,,,,,,,,,,,,,,,,,,,,,,,,,,,,,
,,,,,,,,,,,,,,1,001,2024-08-28_14h54.47.142,IAT(Formal),2021.2.3,Win32,59.52380952,,,,,,,,,,,,,,,i,1,0.4505,,,,,,他的,i,,,0,57,57,67,1,,,,,,,,,,,,,,,,,,,,,,,,,,,,,,,,,,
,,,,,,,,,,,,,,1,001,2024-08-28_14h54.47.142,IAT(Formal),2021.2.3,Win32,59.52380952,,,,,,,,,,,,,,,i,1,0.4501,,,,,,他们,i,,,0,58,58,6,1,,,,,,,,,,,,,,,,,,,,,,,,,,,,,,,,,,
,,,,,,,,,,,,,,1,001,2024-08-28_14h54.47.142,IAT(Formal),2021.2.3,Win32,59.52380952,,,,,,,,,,,,,,,i,1,0.4878,,,,,,他人,i,,,0,59,59,78,1,,,,,,,,,,,,,,,,,,,,,,,,,,,,,,,,,,
,,,,,,,,,,,,,,1,001,2024-08-28_14h54.47.142,IAT(Formal),2021.2.3,Win32,59.52380952,,,,,,,,,,,,,,,i,1,0.521,,,,,,暴躁,i,,,0,60,60,44,1,,,,,,,,,,,,,,,,,,,,,,,,,,,,,,,,,,
,,,,,,,,,,,,,,1,001,2024-08-28_14h54.47.142,IAT(Formal),2021.2.3,Win32,59.52380952,,,,,,,,,,,,,,,e,1,0.5068,,,,,,公正,e,,,0,61,61,23,1,,,,,,,,,,,,,,,,,,,,,,,,,,,,,,,,,,
,,,,,,,,,,,,,,1,001,2024-08-28_14h54.47.142,IAT(Formal),2021.2.3,Win32,59.52380952,,,,,,,,,,,,,,,e,1,0.4668,,,,,,我,e,,,0,62,62,60,1,,,,,,,,,,,,,,,,,,,,,,,,,,,,,,,,,,
,,,,,,,,,,,,,,1,001,2024-08-28_14h54.47.142,IAT(Formal),2021.2.3,Win32,59.52380952,,,,,,,,,,,,,,,i,1,0.4673,,,,,,他人,i,,,0,63,63,8,1,,,,,,,,,,,,,,,,,,,,,,,,,,,,,,,,,,
,,,,,,,,,,,,,,1,001,2024-08-28_14h54.47.142,IAT(Formal),2021.2.3,Win32,59.52380952,,,,,,,,,,,,,,,e,1,0.5198,,,,,,我的,e,,,0,64,64,51,1,,,,,,,,,,,,,,,,,,,,,,,,,,,,,,,,,,
,,,,,,,,,,,,,,1,001,2024-08-28_14h54.47.142,IAT(Formal),2021.2.3,Win32,59.52380952,,,,,,,,,,,,,,,e,1,0.5708,,,,,,勇敢,e,,,0,65,65,17,1,,,,,,,,,,,,,,,,,,,,,,,,,,,,,,,,,,
,,,,,,,,,,,,,,1,001,2024-08-28_14h54.47.142,IAT(Formal),2021.2.3,Win32,59.52380952,,,,,,,,,,,,,,,i,1,0.5084,,,,,,他们,i,,,0,66,66,76,1,,,,,,,,,,,,,,,,,,,,,,,,,,,,,,,,,,
,,,,,,,,,,,,,,1,001,2024-08-28_14h54.47.142,IAT(Formal),2021.2.3,Win32,59.52380952,,,,,,,,,,,,,,,i,1,0.5849,,,,,,固执,i,,,0,67,67,47,1,,,,,,,,,,,,,,,,,,,,,,,,,,,,,,,,,,
,,,,,,,,,,,,,,1,001,2024-08-28_14h54.47.142,IAT(Formal),2021.2.3,Win32,59.52380952,,,,,,,,,,,,,,,e,1,0.4497,,,,,,自己,e,,,0,68,68,3,1,,,,,,,,,,,,,,,,,,,,,,,,,,,,,,,,,,
,,,,,,,,,,,,,,1,001,2024-08-28_14h54.47.142,IAT(Formal),2021.2.3,Win32,59.52380952,,,,,,,,,,,,,,,i,1,0.568,,,,,,轻率,i,,,0,69,69,48,1,,,,,,,,,,,,,,,,,,,,,,,,,,,,,,,,,,
,,,,,,,,,,,,,,1,001,2024-08-28_14h54.47.142,IAT(Formal),2021.2.3,Win32,59.52380952,,,,,,,,,,,,,,,i,1,0.8039,,,,,,悲观,i,,,0,70,70,34,1,,,,,,,,,,,,,,,,,,,,,,,,,,,,,,,,,,
,,,,,,,,,,,,,,1,001,2024-08-28_14h54.47.142,IAT(Formal),2021.2.3,Win32,59.52380952,,,,,,,,,,,,,,,e,1,0.5331,,,,,,自己,e,,,0,71,71,63,1,,,,,,,,,,,,,,,,,,,,,,,,,,,,,,,,,,
,,,,,,,,,,,,,,1,001,2024-08-28_14h54.47.142,IAT(Formal),2021.2.3,Win32,59.52380952,,,,,,,,,,,,,,,i,1,0.8678,,,,,,凶狠,i,,,0,72,72,42,1,,,,,,,,,,,,,,,,,,,,,,,,,,,,,,,,,,
,,,,,,,,,,,,,,1,001,2024-08-28_14h54.47.142,IAT(Formal),2021.2.3,Win32,59.52380952,,,,,,,,,,,,,,,e,1,0.4355,,,,,,自己,e,,,0,73,73,53,1,,,,,,,,,,,,,,,,,,,,,,,,,,,,,,,,,,
,,,,,,,,,,,,,,1,001,2024-08-28_14h54.47.142,IAT(Formal),2021.2.3,Win32,59.52380952,,,,,,,,,,,,,,,e,1,0.4694,,,,,,我,e,,,0,74,74,70,1,,,,,,,,,,,,,,,,,,,,,,,,,,,,,,,,,,
,,,,,,,,,,,,,,1,001,2024-08-28_14h54.47.142,IAT(Formal),2021.2.3,Win32,59.52380952,,,,,,,,,,,,,,,i,1,0.4833,,,,,,野蛮,i,,,0,75,75,46,1,,,,,,,,,,,,,,,,,,,,,,,,,,,,,,,,,,
,,,,,,,,,,,,,,1,001,2024-08-28_14h54.47.142,IAT(Formal),2021.2.3,Win32,59.52380952,,,,,,,,,,,,,,,i,1,0.5442,,,,,,散漫,i,,,0,76,76,41,1,,,,,,,,,,,,,,,,,,,,,,,,,,,,,,,,,,
,,,,,,,,,,,,,,1,001,2024-08-28_14h54.47.142,IAT(Formal),2021.2.3,Win32,59.52380952,,,,,,,,,,,,,,,e,1,0.4448,,,,,,我们,e,,,0,77,77,72,1,,,,,,,,,,,,,,,,,,,,,,,,,,,,,,,,,,
,,,,,,,,,,,,,,1,001,2024-08-28_14h54.47.142,IAT(Formal),2021.2.3,Win32,59.52380952,,,,,,,,,,,,,,,e,1,0.5553,,,,,,细腻,e,,,0,78,78,25,1,,,,,,,,,,,,,,,,,,,,,,,,,,,,,,,,,,
,,,,,,,,,,,,,,1,001,2024-08-28_14h54.47.142,IAT(Formal),2021.2.3,Win32,59.52380952,,,,,,,,,,,,,,,i,1,0.52,,,,,,愚蠢,i,,,0,79,79,32,1,,,,,,,,,,,,,,,,,,,,,,,,,,,,,,,,,,
,,,,,,,,,,,,,,1,001,2024-08-28_14h54.47.142,IAT(Formal),2021.2.3,Win32,59.52380952,,,,,,,,,,,,,,,i,1,0.5669,,,,,,自卑,i,,,1,0,80,36,1,,,,,,,,,,,,,,,,,,,,,,,,,,,,,,,,,,
,,,,,,,,,,,,,,1,001,2024-08-28_14h54.47.142,IAT(Formal),2021.2.3,Win32,59.52380952,,,,,,,,,,,,,,,e,1,0.4162,,,,,,公正,e,,,1,1,81,23,1,,,,,,,,,,,,,,,,,,,,,,,,,,,,,,,,,,
,,,,,,,,,,,,,,1,001,2024-08-28_14h54.47.142,IAT(Formal),2021.2.3,Win32,59.52380952,,,,,,,,,,,,,,,e,1,0.3836,,,,,,勤奋,e,,,1,2,82,18,1,,,,,,,,,,,,,,,,,,,,,,,,,,,,,,,,,,
,,,,,,,,,,,,,,1,001,2024-08-28_14h54.47.142,IAT(Formal),2021.2.3,Win32,59.52380952,,,,,,,,,,,,,,,i,1,0.5749,,,,,,他们,i,,,1,3,83,66,1,,,,,,,,,,,,,,,,,,,,,,,,,,,,,,,,,,
,,,,,,,,,,,,,,1,001,2024-08-28_14h54.47.142,IAT(Formal),2021.2.3,Win32,59.52380952,,,,,,,,,,,,,,,i,1,0.523,,,,,,卑鄙,i,,,1,4,84,30,1,,,,,,,,,,,,,,,,,,,,,,,,,,,,,,,,,,
,,,,,,,,,,,,,,1,001,2024-08-28_14h54.47.142,IAT(Formal),2021.2.3,Win32,59.52380952,,,,,,,,,,,,,,,i,1,0.4914,,,,,,愚蠢,i,,,1,5,85,32,1,,,,,,,,,,,,,,,,,,,,,,,,,,,,,,,,,,
,,,,,,,,,,,,,,1,001,2024-08-28_14h54.47.142,IAT(Formal),2021.2.3,Win32,59.52380952,,,,,,,,,,,,,,,i,1,0.4849,,,,,,猖狂,i,,,1,6,86,45,1,,,,,,,,,,,,,,,,,,,,,,,,,,,,,,,,,,
,,,,,,,,,,,,,,1,001,2024-08-28_14h54.47.142,IAT(Formal),2021.2.3,Win32,59.52380952,,,,,,,,,,,,,,,i,1,0.5524,,,,,,其他,i,,,1,7,87,9,1,,,,,,,,,,,,,,,,,,,,,,,,,,,,,,,,,,
,,,,,,,,,,,,,,1,001,2024-08-28_14h54.47.142,IAT(Formal),2021.2.3,Win32,59.52380952,,,,,,,,,,,,,,,e,1,0.4531,,,,,,我们,e,,,1,8,88,52,1,,,,,,,,,,,,,,,,,,,,,,,,,,,,,,,,,,
,,,,,,,,,,,,,,1,001,2024-08-28_14h54.47.142,IAT(Formal),2021.2.3,Win32,59.52380952,,,,,,,,,,,,,,,e,1,0.6902,,,,,,无私,e,,,1,9,89,22,1,,,,,,,,,,,,,,,,,,,,,,,,,,,,,,,,,,
,,,,,,,,,,,,,,1,001,2024-08-28_14h54.47.142,IAT(Formal),2021.2.3,Win32,59.52380952,,,,,,,,,,,,,,,e,1,0.4335,,,,,,我的,e,,,1,10,90,51,1,,,,,,,,,,,,,,,,,,,,,,,,,,,,,,,,,,
,,,,,,,,,,,,,,1,001,2024-08-28_14h54.47.142,IAT(Formal),2021.2.3,Win32,59.52380952,,,,,,,,,,,,,,,i,1,0.4933,,,,,,他人,i,,,1,11,91,78,1,,,,,,,,,,,,,,,,,,,,,,,,,,,,,,,,,,
,,,,,,,,,,,,,,1,001,2024-08-28_14h54.47.142,IAT(Formal),2021.2.3,Win32,59.52380952,,,,,,,,,,,,,,,e,1,0.5372,,,,,,勇敢,e,,,1,12,92,17,1,,,,,,,,,,,,,,,,,,,,,,,,,,,,,,,,,,
,,,,,,,,,,,,,,1,001,2024-08-28_14h54.47.142,IAT(Formal),2021.2.3,Win32,59.52380952,,,,,,,,,,,,,,,e,1,0.4733,,,,,,自己,e,,,1,13,93,53,1,,,,,,,,,,,,,,,,,,,,,,,,,,,,,,,,,,
,,,,,,,,,,,,,,1,001,2024-08-28_14h54.47.142,IAT(Formal),2021.2.3,Win32,59.52380952,,,,,,,,,,,,,,,e,1,0.4337,,,,,,我的,e,,,1,14,94,61,1,,,,,,,,,,,,,,,,,,,,,,,,,,,,,,,,,,
,,,,,,,,,,,,,,1,001,2024-08-28_14h54.47.142,IAT(Formal),2021.2.3,Win32,59.52380952,,,,,,,,,,,,,,,i,1,0.519,,,,,,野蛮,i,,,1,15,95,46,1,,,,,,,,,,,,,,,,,,,,,,,,,,,,,,,,,,
,,,,,,,,,,,,,,1,001,2024-08-28_14h54.47.142,IAT(Formal),2021.2.3,Win32,59.52380952,,,,,,,,,,,,,,,e,1,0.4915,,,,,,我的,e,,,1,16,96,1,1,,,,,,,,,,,,,,,,,,,,,,,,,,,,,,,,,,
,,,,,,,,,,,,,,1,001,2024-08-28_14h54.47.142,IAT(Formal),2021.2.3,Win32,59.52380952,,,,,,,,,,,,,,,i,1,0.5516,,,,,,其他,i,,,1,17,97,59,1,,,,,,,,,,,,,,,,,,,,,,,,,,,,,,,,,,
,,,,,,,,,,,,,,1,001,2024-08-28_14h54.47.142,IAT(Formal),2021.2.3,Win32,59.52380952,,,,,,,,,,,,,,,e,0,0.5617,,,,,,他的,i,,,1,18,98,57,1,,,,,,,,,,,,,,,,,,,,,,,,,,,,,,,,,,
,,,,,,,,,,,,,,1,001,2024-08-28_14h54.47.142,IAT(Formal),2021.2.3,Win32,59.52380952,,,,,,,,,,,,,,,i,1,0.766,,,,,,虚伪,i,,,1,19,99,31,1,,,,,,,,,,,,,,,,,,,,,,,,,,,,,,,,,,
,,,,,,,,,,,,,,1,001,2024-08-28_14h54.47.142,IAT(Formal),2021.2.3,Win32,59.52380952,,,,,,,,,,,,,,,i,1,0.5172,,,,,,固执,i,,,1,20,100,47,1,,,,,,,,,,,,,,,,,,,,,,,,,,,,,,,,,,
,,,,,,,,,,,,,,1,001,2024-08-28_14h54.47.142,IAT(Formal),2021.2.3,Win32,59.52380952,,,,,,,,,,,,,,,i,1,0.6669,,,,,,他,i,,,1,21,101,5,1,,,,,,,,,,,,,,,,,,,,,,,,,,,,,,,,,,
,,,,,,,,,,,,,,1,001,2024-08-28_14h54.47.142,IAT(Formal),2021.2.3,Win32,59.52380952,,,,,,,,,,,,,,,e,1,0.5459,,,,,,细腻,e,,,1,22,102,25,1,,,,,,,,,,,,,,,,,,,,,,,,,,,,,,,,,,
,,,,,,,,,,,,,,1,001,2024-08-28_14h54.47.142,IAT(Formal),2021.2.3,Win32,59.52380952,,,,,,,,,,,,,,,e,1,0.5859,,,,,,崇高,e,,,1,23,103,11,1,,,,,,,,,,,,,,,,,,,,,,,,,,,,,,,,,,
,,,,,,,,,,,,,,1,001,2024-08-28_14h54.47.142,IAT(Formal),2021.2.3,Win32,59.52380952,,,,,,,,,,,,,,,i,1,0.6019,,,,,,暴躁,i,,,1,24,104,44,1,,,,,,,,,,,,,,,,,,,,,,,,,,,,,,,,,,
,,,,,,,,,,,,,,1,001,2024-08-28_14h54.47.142,IAT(Formal),2021.2.3,Win32,59.52380952,,,,,,,,,,,,,,,e,1,0.4652,,,,,,认真,e,,,1,25,105,20,1,,,,,,,,,,,,,,,,,,,,,,,,,,,,,,,,,,
,,,,,,,,,,,,,,1,001,2024-08-28_14h54.47.142,IAT(Formal),2021.2.3,Win32,59.52380952,,,,,,,,,,,,,,,e,1,0.6015,,,,,,我们,e,,,1,26,106,2,1,,,,,,,,,,,,,,,,,,,,,,,,,,,,,,,,,,
,,,,,,,,,,,,,,1,001,2024-08-28_14h54.47.142,IAT(Formal),2021.2.3,Win32,59.52380952,,,,,,,,,,,,,,,i,1,0.9501,,,,,,他们,i,,,1,27,107,6,1,,,,,,,,,,,,,,,,,,,,,,,,,,,,,,,,,,
,,,,,,,,,,,,,,1,001,2024-08-28_14h54.47.142,IAT(Formal),2021.2.3,Win32,59.52380952,,,,,,,,,,,,,,,i,1,0.5659,,,,,,刻薄,i,,,1,28,108,33,1,,,,,,,,,,,,,,,,,,,,,,,,,,,,,,,,,,
,,,,,,,,,,,,,,1,001,2024-08-28_14h54.47.142,IAT(Formal),2021.2.3,Win32,59.52380952,,,,,,,,,,,,,,,i,1,0.5235,,,,,,他人,i,,,1,29,109,8,1,,,,,,,,,,,,,,,,,,,,,,,,,,,,,,,,,,
,,,,,,,,,,,,,,1,001,2024-08-28_14h54.47.142,IAT(Formal),2021.2.3,Win32,59.52380952,,,,,,,,,,,,,,,i,1,0.5502,,,,,,散漫,i,,,1,30,110,41,1,,,,,,,,,,,,,,,,,,,,,,,,,,,,,,,,,,
,,,,,,,,,,,,,,1,001,2024-08-28_14h54.47.142,IAT(Formal),2021.2.3,Win32,59.52380952,,,,,,,,,,,,,,,e,1,0.4852,,,,,,自己,e,,,1,31,111,3,1,,,,,,,,,,,,,,,,,,,,,,,,,,,,,,,,,,
,,,,,,,,,,,,,,1,001,2024-08-28_14h54.47.142,IAT(Formal),2021.2.3,Win32,59.52380952,,,,,,,,,,,,,,,e,1,0.4834,,,,,,我,e,,,1,32,112,0,1,,,,,,,,,,,,,,,,,,,,,,,,,,,,,,,,,,
,,,,,,,,,,,,,,1,001,2024-08-28_14h54.47.142,IAT(Formal),2021.2.3,Win32,59.52380952,,,,,,,,,,,,,,,e,1,0.4893,,,,,,我,e,,,1,33,113,70,1,,,,,,,,,,,,,,,,,,,,,,,,,,,,,,,,,,
,,,,,,,,,,,,,,1,001,2024-08-28_14h54.47.142,IAT(Formal),2021.2.3,Win32,59.52380952,,,,,,,,,,,,,,,i,1,0.4664,,,,,,鲁莽,i,,,1,34,114,38,1,,,,,,,,,,,,,,,,,,,,,,,,,,,,,,,,,,
,,,,,,,,,,,,,,1,001,2024-08-28_14h54.47.142,IAT(Formal),2021.2.3,Win32,59.52380952,,,,,,,,,,,,,,,i,1,0.7165,,,,,,他人,i,,,1,35,115,68,1,,,,,,,,,,,,,,,,,,,,,,,,,,,,,,,,,,
,,,,,,,,,,,,,,1,001,2024-08-28_14h54.47.142,IAT(Formal),2021.2.3,Win32,59.52380952,,,,,,,,,,,,,,,e,1,0.4715,,,,,,我们,e,,,1,36,116,72,1,,,,,,,,,,,,,,,,,,,,,,,,,,,,,,,,,,
,,,,,,,,,,,,,,1,001,2024-08-28_14h54.47.142,IAT(Formal),2021.2.3,Win32,59.52380952,,,,,,,,,,,,,,,e,1,0.4337,,,,,,我的,e,,,1,37,117,71,1,,,,,,,,,,,,,,,,,,,,,,,,,,,,,,,,,,
,,,,,,,,,,,,,,1,001,2024-08-28_14h54.47.142,IAT(Formal),2021.2.3,Win32,59.52380952,,,,,,,,,,,,,,,e,1,0.557,,,,,,俺,e,,,1,38,118,54,1,,,,,,,,,,,,,,,,,,,,,,,,,,,,,,,,,,
,,,,,,,,,,,,,,1,001,2024-08-28_14h54.47.142,IAT(Formal),2021.2.3,Win32,59.52380952,,,,,,,,,,,,,,,e,1,0.742,,,,,,诚恳,e,,,1,39,119,29,1,,,,,,,,,,,,,,,,,,,,,,,,,,,,,,,,,,
,,,,,,,,,,,,,,1,001,2024-08-28_14h54.47.142,IAT(Formal),2021.2.3,Win32,59.52380952,,,,,,,,,,,,,,,e,1,0.4227,,,,,,冷静,e,,,1,40,120,26,1,,,,,,,,,,,,,,,,,,,,,,,,,,,,,,,,,,
,,,,,,,,,,,,,,1,001,2024-08-28_14h54.47.142,IAT(Formal),2021.2.3,Win32,59.52380952,,,,,,,,,,,,,,,i,1,0.4836,,,,,,他,i,,,1,41,121,65,1,,,,,,,,,,,,,,,,,,,,,,,,,,,,,,,,,,
,,,,,,,,,,,,,,1,001,2024-08-28_14h54.47.142,IAT(Formal),2021.2.3,Win32,59.52380952,,,,,,,,,,,,,,,e,1,0.5244,,,,,,热情,e,,,1,42,122,27,1,,,,,,,,,,,,,,,,,,,,,,,,,,,,,,,,,,
,,,,,,,,,,,,,,1,001,2024-08-28_14h54.47.142,IAT(Formal),2021.2.3,Win32,59.52380952,,,,,,,,,,,,,,,i,1,0.495,,,,,,他们,i,,,1,43,123,56,1,,,,,,,,,,,,,,,,,,,,,,,,,,,,,,,,,,
,,,,,,,,,,,,,,1,001,2024-08-28_14h54.47.142,IAT(Formal),2021.2.3,Win32,59.52380952,,,,,,,,,,,,,,,e,1,0.4403,,,,,,机智,e,,,1,44,124,19,1,,,,,,,,,,,,,,,,,,,,,,,,,,,,,,,,,,
,,,,,,,,,,,,,,1,001,2024-08-28_14h54.47.142,IAT(Formal),2021.2.3,Win32,59.52380952,,,,,,,,,,,,,,,i,1,0.7018,,,,,,悲观,i,,,1,45,125,34,1,,,,,,,,,,,,,,,,,,,,,,,,,,,,,,,,,,
,,,,,,,,,,,,,,1,001,2024-08-28_14h54.47.142,IAT(Formal),2021.2.3,Win32,59.52380952,,,,,,,,,,,,,,,i,1,0.5336,,,,,,其他,i,,,1,46,126,69,1,,,,,,,,,,,,,,,,,,,,,,,,,,,,,,,,,,
,,,,,,,,,,,,,,1,001,2024-08-28_14h54.47.142,IAT(Formal),2021.2.3,Win32,59.52380952,,,,,,,,,,,,,,,e,1,0.5159,,,,,,自己,e,,,1,47,127,73,1,,,,,,,,,,,,,,,,,,,,,,,,,,,,,,,,,,
,,,,,,,,,,,,,,1,001,2024-08-28_14h54.47.142,IAT(Formal),2021.2.3,Win32,59.52380952,,,,,,,,,,,,,,,e,1,0.4828,,,,,,诚实,e,,,1,48,128,15,1,,,,,,,,,,,,,,,,,,,,,,,,,,,,,,,,,,
,,,,,,,,,,,,,,1,001,2024-08-28_14h54.47.142,IAT(Formal),2021.2.3,Win32,59.52380952,,,,,,,,,,,,,,,i,1,0.5385,,,,,,傲慢,i,,,1,49,129,37,1,,,,,,,,,,,,,,,,,,,,,,,,,,,,,,,,,,
,,,,,,,,,,,,,,1,001,2024-08-28_14h54.47.142,IAT(Formal),2021.2.3,Win32,59.52380952,,,,,,,,,,,,,,,i,1,0.5394,,,,,,其他,i,,,1,50,130,79,1,,,,,,,,,,,,,,,,,,,,,,,,,,,,,,,,,,
,,,,,,,,,,,,,,1,001,2024-08-28_14h54.47.142,IAT(Formal),2021.2.3,Win32,59.52380952,,,,,,,,,,,,,,,i,1,0.5167,,,,,,他的,i,,,1,51,131,67,1,,,,,,,,,,,,,,,,,,,,,,,,,,,,,,,,,,
,,,,,,,,,,,,,,1,001,2024-08-28_14h54.47.142,IAT(Formal),2021.2.3,Win32,59.52380952,,,,,,,,,,,,,,,i,1,0.5948,,,,,,下贱,i,,,1,52,132,49,1,,,,,,,,,,,,,,,,,,,,,,,,,,,,,,,,,,
,,,,,,,,,,,,,,1,001,2024-08-28_14h54.47.142,IAT(Formal),2021.2.3,Win32,59.52380952,,,,,,,,,,,,,,,e,1,0.5669,,,,,,俺,e,,,1,53,133,4,1,,,,,,,,,,,,,,,,,,,,,,,,,,,,,,,,,,
,,,,,,,,,,,,,,1,001,2024-08-28_14h54.47.142,IAT(Formal),2021.2.3,Win32,59.52380952,,,,,,,,,,,,,,,e,1,0.6182,,,,,,乐观,e,,,1,54,134,14,1,,,,,,,,,,,,,,,,,,,,,,,,,,,,,,,,,,
,,,,,,,,,,,,,,1,001,2024-08-28_14h54.47.142,IAT(Formal),2021.2.3,Win32,59.52380952,,,,,,,,,,,,,,,i,1,0.5098,,,,,,他人,i,,,1,55,135,58,1,,,,,,,,,,,,,,,,,,,,,,,,,,,,,,,,,,
,,,,,,,,,,,,,,1,001,2024-08-28_14h54.47.142,IAT(Formal),2021.2.3,Win32,59.52380952,,,,,,,,,,,,,,,i,1,0.5326,,,,,,消极,i,,,1,56,136,35,1,,,,,,,,,,,,,,,,,,,,,,,,,,,,,,,,,,
,,,,,,,,,,,,,,1,001,2024-08-28_14h54.47.142,IAT(Formal),2021.2.3,Win32,59.52380952,,,,,,,,,,,,,,,e,1,0.4531,,,,,,杰出,e,,,1,57,137,13,1,,,,,,,,,,,,,,,,,,,,,,,,,,,,,,,,,,
,,,,,,,,,,,,,,1,001,2024-08-28_14h54.47.142,IAT(Formal),2021.2.3,Win32,59.52380952,,,,,,,,,,,,,,,e,1,0.57,,,,,,俺,e,,,1,58,138,74,1,,,,,,,,,,,,,,,,,,,,,,,,,,,,,,,,,,
,,,,,,,,,,,,,,1,001,2024-08-28_14h54.47.142,IAT(Formal),2021.2.3,Win32,59.52380952,,,,,,,,,,,,,,,e,1,0.55,,,,,,我们,e,,,1,59,139,62,1,,,,,,,,,,,,,,,,,,,,,,,,,,,,,,,,,,
,,,,,,,,,,,,,,1,001,2024-08-28_14h54.47.142,IAT(Formal),2021.2.3,Win32,59.52380952,,,,,,,,,,,,,,,e,1,0.5505,,,,,,活泼,e,,,1,60,140,28,1,,,,,,,,,,,,,,,,,,,,,,,,,,,,,,,,,,
,,,,,,,,,,,,,,1,001,2024-08-28_14h54.47.142,IAT(Formal),2021.2.3,Win32,59.52380952,,,,,,,,,,,,,,,i,1,0.4859,,,,,,他们,i,,,1,61,141,76,1,,,,,,,,,,,,,,,,,,,,,,,,,,,,,,,,,,
,,,,,,,,,,,,,,1,001,2024-08-28_14h54.47.142,IAT(Formal),2021.2.3,Win32,59.52380952,,,,,,,,,,,,,,,e,1,0.5572,,,,,,朴实,e,,,1,62,142,24,1,,,,,,,,,,,,,,,,,,,,,,,,,,,,,,,,,,
,,,,,,,,,,,,,,1,001,2024-08-28_14h54.47.142,IAT(Formal),2021.2.3,Win32,59.52380952,,,,,,,,,,,,,,,e,1,0.5755,,,,,,稳重,e,,,1,63,143,21,1,,,,,,,,,,,,,,,,,,,,,,,,,,,,,,,,,,
,,,,,,,,,,,,,,1,001,2024-08-28_14h54.47.142,IAT(Formal),2021.2.3,Win32,59.52380952,,,,,,,,,,,,,,,i,1,0.6126,,,,,,自私,i,,,1,64,144,43,1,,,,,,,,,,,,,,,,,,,,,,,,,,,,,,,,,,
,,,,,,,,,,,,,,1,001,2024-08-28_14h54.47.142,IAT(Formal),2021.2.3,Win32,59.52380952,,,,,,,,,,,,,,,i,1,0.5255,,,,,,他的,i,,,1,65,145,77,1,,,,,,,,,,,,,,,,,,,,,,,,,,,,,,,,,,
,,,,,,,,,,,,,,1,001,2024-08-28_14h54.47.142,IAT(Formal),2021.2.3,Win32,59.52380952,,,,,,,,,,,,,,,e,1,0.4714,,,,,,优秀,e,,,1,66,146,10,1,,,,,,,,,,,,,,,,,,,,,,,,,,,,,,,,,,
,,,,,,,,,,,,,,1,001,2024-08-28_14h54.47.142,IAT(Formal),2021.2.3,Win32,59.52380952,,,,,,,,,,,,,,,i,1,1.0416,,,,,,轻率,i,,,1,67,147,48,1,,,,,,,,,,,,,,,,,,,,,,,,,,,,,,,,,,
,,,,,,,,,,,,,,1,001,2024-08-28_14h54.47.142,IAT(Formal),2021.2.3,Win32,59.52380952,,,,,,,,,,,,,,,i,1,1.2126,,,,,,他,i,,,1,68,148,75,1,,,,,,,,,,,,,,,,,,,,,,,,,,,,,,,,,,
,,,,,,,,,,,,,,1,001,2024-08-28_14h54.47.142,IAT(Formal),2021.2.3,Win32,59.52380952,,,,,,,,,,,,,,,e,1,0.7215,,,,,,自己,e,,,1,69,149,63,1,,,,,,,,,,,,,,,,,,,,,,,,,,,,,,,,,,
,,,,,,,,,,,,,,1,001,2024-08-28_14h54.47.142,IAT(Formal),2021.2.3,Win32,59.52380952,,,,,,,,,,,,,,,e,1,0.5328,,,,,,正直,e,,,1,70,150,16,1,,,,,,,,,,,,,,,,,,,,,,,,,,,,,,,,,,
,,,,,,,,,,,,,,1,001,2024-08-28_14h54.47.142,IAT(Formal),2021.2.3,Win32,59.52380952,,,,,,,,,,,,,,,i,1,0.6925,,,,,,冒失,i,,,1,71,151,39,1,,,,,,,,,,,,,,,,,,,,,,,,,,,,,,,,,,
,,,,,,,,,,,,,,1,001,2024-08-28_14h54.47.142,IAT(Formal),2021.2.3,Win32,59.52380952,,,,,,,,,,,,,,,i,1,0.7215,,,,,,执拗,i,,,1,72,152,40,1,,,,,,,,,,,,,,,,,,,,,,,,,,,,,,,,,,
,,,,,,,,,,,,,,1,001,2024-08-28_14h54.47.142,IAT(Formal),2021.2.3,Win32,59.52380952,,,,,,,,,,,,,,,e,1,0.5837,,,,,,我,e,,,1,73,153,50,1,,,,,,,,,,,,,,,,,,,,,,,,,,,,,,,,,,
,,,,,,,,,,,,,,1,001,2024-08-28_14h54.47.142,IAT(Formal),2021.2.3,Win32,59.52380952,,,,,,,,,,,,,,,e,1,0.5211,,,,,,我,e,,,1,74,154,60,1,,,,,,,,,,,,,,,,,,,,,,,,,,,,,,,,,,
,,,,,,,,,,,,,,1,001,2024-08-28_14h54.47.142,IAT(Formal),2021.2.3,Win32,59.52380952,,,,,,,,,,,,,,,i,1,0.752,,,,,,凶狠,i,,,1,75,155,42,1,,,,,,,,,,,,,,,,,,,,,,,,,,,,,,,,,,
,,,,,,,,,,,,,,1,001,2024-08-28_14h54.47.142,IAT(Formal),2021.2.3,Win32,59.52380952,,,,,,,,,,,,,,,e,1,0.4755,,,,,,聪明,e,,,1,76,156,12,1,,,,,,,,,,,,,,,,,,,,,,,,,,,,,,,,,,
,,,,,,,,,,,,,,1,001,2024-08-28_14h54.47.142,IAT(Formal),2021.2.3,Win32,59.52380952,,,,,,,,,,,,,,,e,1,0.5421,,,,,,俺,e,,,1,77,157,64,1,,,,,,,,,,,,,,,,,,,,,,,,,,,,,,,,,,
,,,,,,,,,,,,,,1,001,2024-08-28_14h54.47.142,IAT(Formal),2021.2.3,Win32,59.52380952,,,,,,,,,,,,,,,i,1,0.5338,,,,,,他,i,,,1,78,158,55,1,,,,,,,,,,,,,,,,,,,,,,,,,,,,,,,,,,
,,,,,,,,,,,,,,1,001,2024-08-28_14h54.47.142,IAT(Formal),2021.2.3,Win32,59.52380952,,,,,,,,,,,,,,,i,1,0.6264,,,,,,他的,i,,,1,79,159,7,1,,,,,,,,,,,,,,,,,,,,,,,,,,,,,,,,,,
,,,,,,,,,,,,我的,i,1,001,2024-08-28_14h54.47.142,IAT(Formal),2021.2.3,Win32,59.52380952,,,,,,,,,,,,,,,,,,,,,,,,,,,,,,,,space,13.0769,i,1,0.6062,0,0,0,1,1,,,,,,,,,,,,,,,,,,,,,,,,
,,,,,,,,,,,,他人,e,1,001,2024-08-28_14h54.47.142,IAT(Formal),2021.2.3,Win32,59.52380952,,,,,,,,,,,,,,,,,,,,,,,,,,,,,,,,,,e,1,0.4097,0,1,1,8,1,,,,,,,,,,,,,,,,,,,,,,,,
,,,,,,,,,,,,自己,i,1,001,2024-08-28_14h54.47.142,IAT(Formal),2021.2.3,Win32,59.52380952,,,,,,,,,,,,,,,,,,,,,,,,,,,,,,,,,,i,1,0.4393,0,2,2,3,1,,,,,,,,,,,,,,,,,,,,,,,,
,,,,,,,,,,,,他的,e,1,001,2024-08-28_14h54.47.142,IAT(Formal),2021.2.3,Win32,59.52380952,,,,,,,,,,,,,,,,,,,,,,,,,,,,,,,,,,e,1,0.4088,0,3,3,7,1,,,,,,,,,,,,,,,,,,,,,,,,
,,,,,,,,,,,,俺,i,1,001,2024-08-28_14h54.47.142,IAT(Formal),2021.2.3,Win32,59.52380952,,,,,,,,,,,,,,,,,,,,,,,,,,,,,,,,,,i,1,0.4791,0,4,4,4,1,,,,,,,,,,,,,,,,,,,,,,,,
,,,,,,,,,,,,我,i,1,001,2024-08-28_14h54.47.142,IAT(Formal),2021.2.3,Win32,59.52380952,,,,,,,,,,,,,,,,,,,,,,,,,,,,,,,,,,i,1,0.5337,0,5,5,0,1,,,,,,,,,,,,,,,,,,,,,,,,
,,,,,,,,,,,,其他,e,1,001,2024-08-28_14h54.47.142,IAT(Formal),2021.2.3,Win32,59.52380952,,,,,,,,,,,,,,,,,,,,,,,,,,,,,,,,,,e,1,0.4182,0,6,6,9,1,,,,,,,,,,,,,,,,,,,,,,,,
,,,,,,,,,,,,他们,e,1,001,2024-08-28_14h54.47.142,IAT(Formal),2021.2.3,Win32,59.52380952,,,,,,,,,,,,,,,,,,,,,,,,,,,,,,,,,,e,1,0.4757,0,7,7,6,1,,,,,,,,,,,,,,,,,,,,,,,,
,,,,,,,,,,,,我们,i,1,001,2024-08-28_14h54.47.142,IAT(Formal),2021.2.3,Win32,59.52380952,,,,,,,,,,,,,,,,,,,,,,,,,,,,,,,,,,i,1,0.4332,0,8,8,2,1,,,,,,,,,,,,,,,,,,,,,,,,
,,,,,,,,,,,,他,e,1,001,2024-08-28_14h54.47.142,IAT(Formal),2021.2.3,Win32,59.52380952,,,,,,,,,,,,,,,,,,,,,,,,,,,,,,,,,,e,1,0.5002,0,9,9,5,1,,,,,,,,,,,,,,,,,,,,,,,,
,,,,,,,,,,,,,,1,001,2024-08-28_14h54.47.142,IAT(Formal),2021.2.3,Win32,59.52380952,,,,,,,,,,,,,,,,,,,,,,,,,,,,,,,,,,,,,,,,,,space,13.8778,i,1,0.6582,0,0,0,51,1,我的,i,,,,,,,,,,,,
,,,,,,,,,,,,,,1,001,2024-08-28_14h54.47.142,IAT(Formal),2021.2.3,Win32,59.52380952,,,,,,,,,,,,,,,,,,,,,,,,,,,,,,,,,,,,,,,,,,,,e,0,0.7347,0,1,1,72,1,我们,i,,,,,,,,,,,,
,,,,,,,,,,,,,,1,001,2024-08-28_14h54.47.142,IAT(Formal),2021.2.3,Win32,59.52380952,,,,,,,,,,,,,,,,,,,,,,,,,,,,,,,,,,,,,,,,,,,,,0,,0,2,2,35,1,消极,i,,,,,,,,,,,,
,,,,,,,,,,,,,,1,001,2024-08-28_14h54.47.142,IAT(Formal),2021.2.3,Win32,59.52380952,,,,,,,,,,,,,,,,,,,,,,,,,,,,,,,,,,,,,,,,,,,,,0,,0,3,3,78,1,他人,e,,,,,,,,,,,,
,,,,,,,,,,,,,,1,001,2024-08-28_14h54.47.142,IAT(Formal),2021.2.3,Win32,59.52380952,,,,,,,,,,,,,,,,,,,,,,,,,,,,,,,,,,,,,,,,,,,,i,1,0.5791,0,4,4,36,1,自卑,i,,,,,,,,,,,,
,,,,,,,,,,,,,,1,001,2024-08-28_14h54.47.142,IAT(Formal),2021.2.3,Win32,59.52380952,,,,,,,,,,,,,,,,,,,,,,,,,,,,,,,,,,,,,,,,,,,,e,1,0.4455,0,5,5,10,1,优秀,e,,,,,,,,,,,,
,,,,,,,,,,,,,,1,001,2024-08-28_14h54.47.142,IAT(Formal),2021.2.3,Win32,59.52380952,,,,,,,,,,,,,,,,,,,,,,,,,,,,,,,,,,,,,,,,,,,,e,1,0.4446,0,6,6,5,1,他,e,,,,,,,,,,,,
,,,,,,,,,,,,,,1,001,2024-08-28_14h54.47.142,IAT(Formal),2021.2.3,Win32,59.52380952,,,,,,,,,,,,,,,,,,,,,,,,,,,,,,,,,,,,,,,,,,,,i,1,0.8844,0,7,7,48,1,轻率,i,,,,,,,,,,,,
,,,,,,,,,,,,,,1,001,2024-08-28_14h54.47.142,IAT(Formal),2021.2.3,Win32,59.52380952,,,,,,,,,,,,,,,,,,,,,,,,,,,,,,,,,,,,,,,,,,,,i,1,1.1843,0,8,8,62,1,我们,i,,,,,,,,,,,,
,,,,,,,,,,,,,,1,001,2024-08-28_14h54.47.142,IAT(Formal),2021.2.3,Win32,59.52380952,,,,,,,,,,,,,,,,,,,,,,,,,,,,,,,,,,,,,,,,,,,,e,1,0.7169,0,9,9,22,1,无私,e,,,,,,,,,,,,
,,,,,,,,,,,,,,1,001,2024-08-28_14h54.47.142,IAT(Formal),2021.2.3,Win32,59.52380952,,,,,,,,,,,,,,,,,,,,,,,,,,,,,,,,,,,,,,,,,,,,i,1,0.4692,0,10,10,60,1,我,i,,,,,,,,,,,,
,,,,,,,,,,,,,,1,001,2024-08-28_14h54.47.142,IAT(Formal),2021.2.3,Win32,59.52380952,,,,,,,,,,,,,,,,,,,,,,,,,,,,,,,,,,,,,,,,,,,,e,1,0.704,0,11,11,14,1,乐观,e,,,,,,,,,,,,
,,,,,,,,,,,,,,1,001,2024-08-28_14h54.47.142,IAT(Formal),2021.2.3,Win32,59.52380952,,,,,,,,,,,,,,,,,,,,,,,,,,,,,,,,,,,,,,,,,,,,i,1,0.6164,0,12,12,63,1,自己,i,,,,,,,,,,,,
,,,,,,,,,,,,,,1,001,2024-08-28_14h54.47.142,IAT(Formal),2021.2.3,Win32,59.52380952,,,,,,,,,,,,,,,,,,,,,,,,,,,,,,,,,,,,,,,,,,,,e,1,0.6337,0,13,13,7,1,他的,e,,,,,,,,,,,,
,,,,,,,,,,,,,,1,001,2024-08-28_14h54.47.142,IAT(Formal),2021.2.3,Win32,59.52380952,,,,,,,,,,,,,,,,,,,,,,,,,,,,,,,,,,,,,,,,,,,,e,1,0.8893,0,14,14,58,1,他人,e,,,,,,,,,,,,
,,,,,,,,,,,,,,1,001,2024-08-28_14h54.47.142,IAT(Formal),2021.2.3,Win32,59.52380952,,,,,,,,,,,,,,,,,,,,,,,,,,,,,,,,,,,,,,,,,,,,i,1,0.5727,0,15,15,41,1,散漫,i,,,,,,,,,,,,
,,,,,,,,,,,,,,1,001,2024-08-28_14h54.47.142,IAT(Formal),2021.2.3,Win32,59.52380952,,,,,,,,,,,,,,,,,,,,,,,,,,,,,,,,,,,,,,,,,,,,i,1,0.8399,0,16,16,44,1,暴躁,i,,,,,,,,,,,,
,,,,,,,,,,,,,,1,001,2024-08-28_14h54.47.142,IAT(Formal),2021.2.3,Win32,59.52380952,,,,,,,,,,,,,,,,,,,,,,,,,,,,,,,,,,,,,,,,,,,,e,1,0.5165,0,17,17,29,1,诚恳,e,,,,,,,,,,,,
,,,,,,,,,,,,,,1,001,2024-08-28_14h54.47.142,IAT(Formal),2021.2.3,Win32,59.52380952,,,,,,,,,,,,,,,,,,,,,,,,,,,,,,,,,,,,,,,,,,,,e,1,0.4502,0,18,18,16,1,正直,e,,,,,,,,,,,,
,,,,,,,,,,,,,,1,001,2024-08-28_14h54.47.142,IAT(Formal),2021.2.3,Win32,59.52380952,,,,,,,,,,,,,,,,,,,,,,,,,,,,,,,,,,,,,,,,,,,,e,1,0.8235,0,19,19,67,1,他的,e,,,,,,,,,,,,
,,,,,,,,,,,,,,1,001,2024-08-28_14h54.47.142,IAT(Formal),2021.2.3,Win32,59.52380952,,,,,,,,,,,,,,,,,,,,,,,,,,,,,,,,,,,,,,,,,,,,i,1,0.7184,0,20,20,45,1,猖狂,i,,,,,,,,,,,,
,,,,,,,,,,,,,,1,001,2024-08-28_14h54.47.142,IAT(Formal),2021.2.3,Win32,59.52380952,,,,,,,,,,,,,,,,,,,,,,,,,,,,,,,,,,,,,,,,,,,,i,1,0.5331,0,21,21,42,1,凶狠,i,,,,,,,,,,,,
,,,,,,,,,,,,,,1,001,2024-08-28_14h54.47.142,IAT(Formal),2021.2.3,Win32,59.52380952,,,,,,,,,,,,,,,,,,,,,,,,,,,,,,,,,,,,,,,,,,,,i,0,0.5498,0,22,22,19,1,机智,e,,,,,,,,,,,,
,,,,,,,,,,,,,,1,001,2024-08-28_14h54.47.142,IAT(Formal),2021.2.3,Win32,59.52380952,,,,,,,,,,,,,,,,,,,,,,,,,,,,,,,,,,,,,,,,,,,,e,1,0.6879,0,23,23,57,1,他的,e,,,,,,,,,,,,
,,,,,,,,,,,,,,1,001,2024-08-28_14h54.47.142,IAT(Formal),2021.2.3,Win32,59.52380952,,,,,,,,,,,,,,,,,,,,,,,,,,,,,,,,,,,,,,,,,,,,i,1,0.9898,0,24,24,43,1,自私,i,,,,,,,,,,,,
,,,,,,,,,,,,,,1,001,2024-08-28_14h54.47.142,IAT(Formal),2021.2.3,Win32,59.52380952,,,,,,,,,,,,,,,,,,,,,,,,,,,,,,,,,,,,,,,,,,,,e,1,0.9114,0,25,25,26,1,冷静,e,,,,,,,,,,,,
,,,,,,,,,,,,,,1,001,2024-08-28_14h54.47.142,IAT(Formal),2021.2.3,Win32,59.52380952,,,,,,,,,,,,,,,,,,,,,,,,,,,,,,,,,,,,,,,,,,,,e,1,0.7178,0,26,26,9,1,其他,e,,,,,,,,,,,,
,,,,,,,,,,,,,,1,001,2024-08-28_14h54.47.142,IAT(Formal),2021.2.3,Win32,59.52380952,,,,,,,,,,,,,,,,,,,,,,,,,,,,,,,,,,,,,,,,,,,,e,1,0.757,0,27,27,21,1,稳重,e,,,,,,,,,,,,
,,,,,,,,,,,,,,1,001,2024-08-28_14h54.47.142,IAT(Formal),2021.2.3,Win32,59.52380952,,,,,,,,,,,,,,,,,,,,,,,,,,,,,,,,,,,,,,,,,,,,e,1,0.6415,0,28,28,65,1,他,e,,,,,,,,,,,,
,,,,,,,,,,,,,,1,001,2024-08-28_14h54.47.142,IAT(Formal),2021.2.3,Win32,59.52380952,,,,,,,,,,,,,,,,,,,,,,,,,,,,,,,,,,,,,,,,,,,,i,1,0.4582,0,29,29,0,1,我,i,,,,,,,,,,,,
,,,,,,,,,,,,,,1,001,2024-08-28_14h54.47.142,IAT(Formal),2021.2.3,Win32,59.52380952,,,,,,,,,,,,,,,,,,,,,,,,,,,,,,,,,,,,,,,,,,,,e,1,0.6833,0,30,30,79,1,其他,e,,,,,,,,,,,,
,,,,,,,,,,,,,,1,001,2024-08-28_14h54.47.142,IAT(Formal),2021.2.3,Win32,59.52380952,,,,,,,,,,,,,,,,,,,,,,,,,,,,,,,,,,,,,,,,,,,,i,1,0.5535,0,31,31,47,1,固执,i,,,,,,,,,,,,
,,,,,,,,,,,,,,1,001,2024-08-28_14h54.47.142,IAT(Formal),2021.2.3,Win32,59.52380952,,,,,,,,,,,,,,,,,,,,,,,,,,,,,,,,,,,,,,,,,,,,i,1,0.5545,0,32,32,33,1,刻薄,i,,,,,,,,,,,,
,,,,,,,,,,,,,,1,001,2024-08-28_14h54.47.142,IAT(Formal),2021.2.3,Win32,59.52380952,,,,,,,,,,,,,,,,,,,,,,,,,,,,,,,,,,,,,,,,,,,,e,1,0.6113,0,33,33,13,1,杰出,e,,,,,,,,,,,,
,,,,,,,,,,,,,,1,001,2024-08-28_14h54.47.142,IAT(Formal),2021.2.3,Win32,59.52380952,,,,,,,,,,,,,,,,,,,,,,,,,,,,,,,,,,,,,,,,,,,,e,1,0.6393,0,34,34,17,1,勇敢,e,,,,,,,,,,,,
,,,,,,,,,,,,,,1,001,2024-08-28_14h54.47.142,IAT(Formal),2021.2.3,Win32,59.52380952,,,,,,,,,,,,,,,,,,,,,,,,,,,,,,,,,,,,,,,,,,,,e,1,0.653,0,35,35,69,1,其他,e,,,,,,,,,,,,
,,,,,,,,,,,,,,1,001,2024-08-28_14h54.47.142,IAT(Formal),2021.2.3,Win32,59.52380952,,,,,,,,,,,,,,,,,,,,,,,,,,,,,,,,,,,,,,,,,,,,i,1,0.7165,0,36,36,32,1,愚蠢,i,,,,,,,,,,,,
,,,,,,,,,,,,,,1,001,2024-08-28_14h54.47.142,IAT(Formal),2021.2.3,Win32,59.52380952,,,,,,,,,,,,,,,,,,,,,,,,,,,,,,,,,,,,,,,,,,,,i,1,0.7116,0,37,37,31,1,虚伪,i,,,,,,,,,,,,
,,,,,,,,,,,,,,1,001,2024-08-28_14h54.47.142,IAT(Formal),2021.2.3,Win32,59.52380952,,,,,,,,,,,,,,,,,,,,,,,,,,,,,,,,,,,,,,,,,,,,e,1,0.6005,0,38,38,25,1,细腻,e,,,,,,,,,,,,
,,,,,,,,,,,,,,1,001,2024-08-28_14h54.47.142,IAT(Formal),2021.2.3,Win32,59.52380952,,,,,,,,,,,,,,,,,,,,,,,,,,,,,,,,,,,,,,,,,,,,i,1,0.8414,0,39,39,71,1,我的,i,,,,,,,,,,,,
,,,,,,,,,,,,,,1,001,2024-08-28_14h54.47.142,IAT(Formal),2021.2.3,Win32,59.52380952,,,,,,,,,,,,,,,,,,,,,,,,,,,,,,,,,,,,,,,,,,,,i,1,0.5943,0,40,40,49,1,下贱,i,,,,,,,,,,,,
,,,,,,,,,,,,,,1,001,2024-08-28_14h54.47.142,IAT(Formal),2021.2.3,Win32,59.52380952,,,,,,,,,,,,,,,,,,,,,,,,,,,,,,,,,,,,,,,,,,,,i,1,0.7278,0,41,41,34,1,悲观,i,,,,,,,,,,,,
,,,,,,,,,,,,,,1,001,2024-08-28_14h54.47.142,IAT(Formal),2021.2.3,Win32,59.52380952,,,,,,,,,,,,,,,,,,,,,,,,,,,,,,,,,,,,,,,,,,,,i,1,0.7922,0,42,42,50,1,我,i,,,,,,,,,,,,
,,,,,,,,,,,,,,1,001,2024-08-28_14h54.47.142,IAT(Formal),2021.2.3,Win32,59.52380952,,,,,,,,,,,,,,,,,,,,,,,,,,,,,,,,,,,,,,,,,,,,e,1,0.4338,0,43,43,56,1,他们,e,,,,,,,,,,,,
,,,,,,,,,,,,,,1,001,2024-08-28_14h54.47.142,IAT(Formal),2021.2.3,Win32,59.52380952,,,,,,,,,,,,,,,,,,,,,,,,,,,,,,,,,,,,,,,,,,,,e,1,0.4734,0,44,44,66,1,他们,e,,,,,,,,,,,,
,,,,,,,,,,,,,,1,001,2024-08-28_14h54.47.142,IAT(Formal),2021.2.3,Win32,59.52380952,,,,,,,,,,,,,,,,,,,,,,,,,,,,,,,,,,,,,,,,,,,,i,1,0.7838,0,45,45,46,1,野蛮,i,,,,,,,,,,,,
,,,,,,,,,,,,,,1,001,2024-08-28_14h54.47.142,IAT(Formal),2021.2.3,Win32,59.52380952,,,,,,,,,,,,,,,,,,,,,,,,,,,,,,,,,,,,,,,,,,,,e,1,0.7167,0,46,46,68,1,他人,e,,,,,,,,,,,,
,,,,,,,,,,,,,,1,001,2024-08-28_14h54.47.142,IAT(Formal),2021.2.3,Win32,59.52380952,,,,,,,,,,,,,,,,,,,,,,,,,,,,,,,,,,,,,,,,,,,,i,1,0.7023,0,47,47,30,1,卑鄙,i,,,,,,,,,,,,
,,,,,,,,,,,,,,1,001,2024-08-28_14h54.47.142,IAT(Formal),2021.2.3,Win32,59.52380952,,,,,,,,,,,,,,,,,,,,,,,,,,,,,,,,,,,,,,,,,,,,i,1,0.583,0,48,48,40,1,执拗,i,,,,,,,,,,,,
,,,,,,,,,,,,,,1,001,2024-08-28_14h54.47.142,IAT(Formal),2021.2.3,Win32,59.52380952,,,,,,,,,,,,,,,,,,,,,,,,,,,,,,,,,,,,,,,,,,,,i,1,0.6013,0,49,49,73,1,自己,i,,,,,,,,,,,,
,,,,,,,,,,,,,,1,001,2024-08-28_14h54.47.142,IAT(Formal),2021.2.3,Win32,59.52380952,,,,,,,,,,,,,,,,,,,,,,,,,,,,,,,,,,,,,,,,,,,,i,1,0.7081,0,50,50,64,1,俺,i,,,,,,,,,,,,
,,,,,,,,,,,,,,1,001,2024-08-28_14h54.47.142,IAT(Formal),2021.2.3,Win32,59.52380952,,,,,,,,,,,,,,,,,,,,,,,,,,,,,,,,,,,,,,,,,,,,e,1,0.9572,0,51,51,15,1,诚实,e,,,,,,,,,,,,
,,,,,,,,,,,,,,1,001,2024-08-28_14h54.47.142,IAT(Formal),2021.2.3,Win32,59.52380952,,,,,,,,,,,,,,,,,,,,,,,,,,,,,,,,,,,,,,,,,,,,i,1,0.6181,0,52,52,38,1,鲁莽,i,,,,,,,,,,,,
,,,,,,,,,,,,,,1,001,2024-08-28_14h54.47.142,IAT(Formal),2021.2.3,Win32,59.52380952,,,,,,,,,,,,,,,,,,,,,,,,,,,,,,,,,,,,,,,,,,,,e,1,0.5327,0,53,53,23,1,公正,e,,,,,,,,,,,,
,,,,,,,,,,,,,,1,001,2024-08-28_14h54.47.142,IAT(Formal),2021.2.3,Win32,59.52380952,,,,,,,,,,,,,,,,,,,,,,,,,,,,,,,,,,,,,,,,,,,,e,1,0.5563,0,54,54,20,1,认真,e,,,,,,,,,,,,
,,,,,,,,,,,,,,1,001,2024-08-28_14h54.47.142,IAT(Formal),2021.2.3,Win32,59.52380952,,,,,,,,,,,,,,,,,,,,,,,,,,,,,,,,,,,,,,,,,,,,e,1,0.4055,0,55,55,8,1,他人,e,,,,,,,,,,,,
,,,,,,,,,,,,,,1,001,2024-08-28_14h54.47.142,IAT(Formal),2021.2.3,Win32,59.52380952,,,,,,,,,,,,,,,,,,,,,,,,,,,,,,,,,,,,,,,,,,,,e,1,0.5834,0,56,56,24,1,朴实,e,,,,,,,,,,,,
,,,,,,,,,,,,,,1,001,2024-08-28_14h54.47.142,IAT(Formal),2021.2.3,Win32,59.52380952,,,,,,,,,,,,,,,,,,,,,,,,,,,,,,,,,,,,,,,,,,,,i,1,0.5681,0,57,57,37,1,傲慢,i,,,,,,,,,,,,
,,,,,,,,,,,,,,1,001,2024-08-28_14h54.47.142,IAT(Formal),2021.2.3,Win32,59.52380952,,,,,,,,,,,,,,,,,,,,,,,,,,,,,,,,,,,,,,,,,,,,i,1,0.5007,0,58,58,54,1,俺,i,,,,,,,,,,,,
,,,,,,,,,,,,,,1,001,2024-08-28_14h54.47.142,IAT(Formal),2021.2.3,Win32,59.52380952,,,,,,,,,,,,,,,,,,,,,,,,,,,,,,,,,,,,,,,,,,,,i,1,0.4365,0,59,59,4,1,俺,i,,,,,,,,,,,,
,,,,,,,,,,,,,,1,001,2024-08-28_14h54.47.142,IAT(Formal),2021.2.3,Win32,59.52380952,,,,,,,,,,,,,,,,,,,,,,,,,,,,,,,,,,,,,,,,,,,,e,1,0.6044,0,60,60,27,1,热情,e,,,,,,,,,,,,
,,,,,,,,,,,,,,1,001,2024-08-28_14h54.47.142,IAT(Formal),2021.2.3,Win32,59.52380952,,,,,,,,,,,,,,,,,,,,,,,,,,,,,,,,,,,,,,,,,,,,i,1,0.6245,0,61,61,52,1,我们,i,,,,,,,,,,,,
,,,,,,,,,,,,,,1,001,2024-08-28_14h54.47.142,IAT(Formal),2021.2.3,Win32,59.52380952,,,,,,,,,,,,,,,,,,,,,,,,,,,,,,,,,,,,,,,,,,,,i,1,0.6844,0,62,62,53,1,自己,i,,,,,,,,,,,,
,,,,,,,,,,,,,,1,001,2024-08-28_14h54.47.142,IAT(Formal),2021.2.3,Win32,59.52380952,,,,,,,,,,,,,,,,,,,,,,,,,,,,,,,,,,,,,,,,,,,,e,1,0.7065,0,63,63,6,1,他们,e,,,,,,,,,,,,
,,,,,,,,,,,,,,1,001,2024-08-28_14h54.47.142,IAT(Formal),2021.2.3,Win32,59.52380952,,,,,,,,,,,,,,,,,,,,,,,,,,,,,,,,,,,,,,,,,,,,i,1,0.6218,0,64,64,1,1,我的,i,,,,,,,,,,,,
,,,,,,,,,,,,,,1,001,2024-08-28_14h54.47.142,IAT(Formal),2021.2.3,Win32,59.52380952,,,,,,,,,,,,,,,,,,,,,,,,,,,,,,,,,,,,,,,,,,,,i,1,0.6161,0,65,65,61,1,我的,i,,,,,,,,,,,,
,,,,,,,,,,,,,,1,001,2024-08-28_14h54.47.142,IAT(Formal),2021.2.3,Win32,59.52380952,,,,,,,,,,,,,,,,,,,,,,,,,,,,,,,,,,,,,,,,,,,,i,1,0.6866,0,66,66,74,1,俺,i,,,,,,,,,,,,
,,,,,,,,,,,,,,1,001,2024-08-28_14h54.47.142,IAT(Formal),2021.2.3,Win32,59.52380952,,,,,,,,,,,,,,,,,,,,,,,,,,,,,,,,,,,,,,,,,,,,e,1,0.7908,0,67,67,12,1,聪明,e,,,,,,,,,,,,
,,,,,,,,,,,,,,1,001,2024-08-28_14h54.47.142,IAT(Formal),2021.2.3,Win32,59.52380952,,,,,,,,,,,,,,,,,,,,,,,,,,,,,,,,,,,,,,,,,,,,e,1,0.6018,0,68,68,18,1,勤奋,e,,,,,,,,,,,,
,,,,,,,,,,,,,,1,001,2024-08-28_14h54.47.142,IAT(Formal),2021.2.3,Win32,59.52380952,,,,,,,,,,,,,,,,,,,,,,,,,,,,,,,,,,,,,,,,,,,,e,1,0.6494,0,69,69,11,1,崇高,e,,,,,,,,,,,,
,,,,,,,,,,,,,,1,001,2024-08-28_14h54.47.142,IAT(Formal),2021.2.3,Win32,59.52380952,,,,,,,,,,,,,,,,,,,,,,,,,,,,,,,,,,,,,,,,,,,,i,1,0.7125,0,70,70,70,1,我,i,,,,,,,,,,,,
,,,,,,,,,,,,,,1,001,2024-08-28_14h54.47.142,IAT(Formal),2021.2.3,Win32,59.52380952,,,,,,,,,,,,,,,,,,,,,,,,,,,,,,,,,,,,,,,,,,,,i,1,0.6051,0,71,71,39,1,冒失,i,,,,,,,,,,,,
,,,,,,,,,,,,,,1,001,2024-08-28_14h54.47.142,IAT(Formal),2021.2.3,Win32,59.52380952,,,,,,,,,,,,,,,,,,,,,,,,,,,,,,,,,,,,,,,,,,,,i,1,0.5915,0,72,72,3,1,自己,i,,,,,,,,,,,,
,,,,,,,,,,,,,,1,001,2024-08-28_14h54.47.142,IAT(Formal),2021.2.3,Win32,59.52380952,,,,,,,,,,,,,,,,,,,,,,,,,,,,,,,,,,,,,,,,,,,,i,1,0.5226,0,73,73,2,1,我们,i,,,,,,,,,,,,
,,,,,,,,,,,,,,1,001,2024-08-28_14h54.47.142,IAT(Formal),2021.2.3,Win32,59.52380952,,,,,,,,,,,,,,,,,,,,,,,,,,,,,,,,,,,,,,,,,,,,e,1,0.6519,0,74,74,77,1,他的,e,,,,,,,,,,,,
,,,,,,,,,,,,,,1,001,2024-08-28_14h54.47.142,IAT(Formal),2021.2.3,Win32,59.52380952,,,,,,,,,,,,,,,,,,,,,,,,,,,,,,,,,,,,,,,,,,,,e,1,0.667,0,75,75,75,1,他,e,,,,,,,,,,,,
,,,,,,,,,,,,,,1,001,2024-08-28_14h54.47.142,IAT(Formal),2021.2.3,Win32,59.52380952,,,,,,,,,,,,,,,,,,,,,,,,,,,,,,,,,,,,,,,,,,,,e,1,0.6283,0,76,76,76,1,他们,e,,,,,,,,,,,,
,,,,,,,,,,,,,,1,001,2024-08-28_14h54.47.142,IAT(Formal),2021.2.3,Win32,59.52380952,,,,,,,,,,,,,,,,,,,,,,,,,,,,,,,,,,,,,,,,,,,,e,1,0.6918,0,77,77,59,1,其他,e,,,,,,,,,,,,
,,,,,,,,,,,,,,1,001,2024-08-28_14h54.47.142,IAT(Formal),2021.2.3,Win32,59.52380952,,,,,,,,,,,,,,,,,,,,,,,,,,,,,,,,,,,,,,,,,,,,e,1,0.6693,0,78,78,28,1,活泼,e,,,,,,,,,,,,
,,,,,,,,,,,,,,1,001,2024-08-28_14h54.47.142,IAT(Formal),2021.2.3,Win32,59.52380952,,,,,,,,,,,,,,,,,,,,,,,,,,,,,,,,,,,,,,,,,,,,e,1,0.5685,0,79,79,55,1,他,e,,,,,,,,,,,,
,,,,,,,,,,,,,,1,001,2024-08-28_14h54.47.142,IAT(Formal),2021.2.3,Win32,59.52380952,,,,,,,,,,,,,,,,,,,,,,,,,,,,,,,,,,,,,,,,,,,,,,,,,,,,他人,e,space,10.7452,e,1,0.5526,0,0,0,68,1,,
,,,,,,,,,,,,,,1,001,2024-08-28_14h54.47.142,IAT(Formal),2021.2.3,Win32,59.52380952,,,,,,,,,,,,,,,,,,,,,,,,,,,,,,,,,,,,,,,,,,,,,,,,,,,,俺,i,,,i,1,0.6841,0,1,1,74,1,,
,,,,,,,,,,,,,,1,001,2024-08-28_14h54.47.142,IAT(Formal),2021.2.3,Win32,59.52380952,,,,,,,,,,,,,,,,,,,,,,,,,,,,,,,,,,,,,,,,,,,,,,,,,,,,勤奋,e,,,e,1,0.539,0,2,2,18,1,,
,,,,,,,,,,,,,,1,001,2024-08-28_14h54.47.142,IAT(Formal),2021.2.3,Win32,59.52380952,,,,,,,,,,,,,,,,,,,,,,,,,,,,,,,,,,,,,,,,,,,,,,,,,,,,自己,i,,,i,1,0.6352,0,3,3,63,1,,
,,,,,,,,,,,,,,1,001,2024-08-28_14h54.47.142,IAT(Formal),2021.2.3,Win32,59.52380952,,,,,,,,,,,,,,,,,,,,,,,,,,,,,,,,,,,,,,,,,,,,,,,,,,,,稳重,e,,,e,1,0.6702,0,4,4,21,1,,
,,,,,,,,,,,,,,1,001,2024-08-28_14h54.47.142,IAT(Formal),2021.2.3,Win32,59.52380952,,,,,,,,,,,,,,,,,,,,,,,,,,,,,,,,,,,,,,,,,,,,,,,,,,,,朴实,e,,,e,1,0.5573,0,5,5,24,1,,
,,,,,,,,,,,,,,1,001,2024-08-28_14h54.47.142,IAT(Formal),2021.2.3,Win32,59.52380952,,,,,,,,,,,,,,,,,,,,,,,,,,,,,,,,,,,,,,,,,,,,,,,,,,,,我的,i,,,i,1,0.4661,0,6,6,61,1,,
,,,,,,,,,,,,,,1,001,2024-08-28_14h54.47.142,IAT(Formal),2021.2.3,Win32,59.52380952,,,,,,,,,,,,,,,,,,,,,,,,,,,,,,,,,,,,,,,,,,,,,,,,,,,,其他,e,,,e,1,0.4961,0,7,7,69,1,,
,,,,,,,,,,,,,,1,001,2024-08-28_14h54.47.142,IAT(Formal),2021.2.3,Win32,59.52380952,,,,,,,,,,,,,,,,,,,,,,,,,,,,,,,,,,,,,,,,,,,,,,,,,,,,凶狠,i,,,i,1,0.5346,0,8,8,42,1,,
,,,,,,,,,,,,,,1,001,2024-08-28_14h54.47.142,IAT(Formal),2021.2.3,Win32,59.52380952,,,,,,,,,,,,,,,,,,,,,,,,,,,,,,,,,,,,,,,,,,,,,,,,,,,,自私,i,,,i,1,0.5497,0,9,9,43,1,,
,,,,,,,,,,,,,,1,001,2024-08-28_14h54.47.142,IAT(Formal),2021.2.3,Win32,59.52380952,,,,,,,,,,,,,,,,,,,,,,,,,,,,,,,,,,,,,,,,,,,,,,,,,,,,勇敢,e,,,e,1,0.5498,0,10,10,17,1,,
,,,,,,,,,,,,,,1,001,2024-08-28_14h54.47.142,IAT(Formal),2021.2.3,Win32,59.52380952,,,,,,,,,,,,,,,,,,,,,,,,,,,,,,,,,,,,,,,,,,,,,,,,,,,,认真,e,,,e,1,0.5373,0,11,11,20,1,,
,,,,,,,,,,,,,,1,001,2024-08-28_14h54.47.142,IAT(Formal),2021.2.3,Win32,59.52380952,,,,,,,,,,,,,,,,,,,,,,,,,,,,,,,,,,,,,,,,,,,,,,,,,,,,诚恳,e,,,e,1,0.505,0,12,12,29,1,,
,,,,,,,,,,,,,,1,001,2024-08-28_14h54.47.142,IAT(Formal),2021.2.3,Win32,59.52380952,,,,,,,,,,,,,,,,,,,,,,,,,,,,,,,,,,,,,,,,,,,,,,,,,,,,崇高,e,,,e,1,0.5008,0,13,13,11,1,,
,,,,,,,,,,,,,,1,001,2024-08-28_14h54.47.142,IAT(Formal),2021.2.3,Win32,59.52380952,,,,,,,,,,,,,,,,,,,,,,,,,,,,,,,,,,,,,,,,,,,,,,,,,,,,虚伪,i,,,i,1,0.5922,0,14,14,31,1,,
,,,,,,,,,,,,,,1,001,2024-08-28_14h54.47.142,IAT(Formal),2021.2.3,Win32,59.52380952,,,,,,,,,,,,,,,,,,,,,,,,,,,,,,,,,,,,,,,,,,,,,,,,,,,,乐观,e,,,e,1,0.4513,0,15,15,14,1,,
,,,,,,,,,,,,,,1,001,2024-08-28_14h54.47.142,IAT(Formal),2021.2.3,Win32,59.52380952,,,,,,,,,,,,,,,,,,,,,,,,,,,,,,,,,,,,,,,,,,,,,,,,,,,,我的,i,,,i,1,0.6588,0,16,16,51,1,,
,,,,,,,,,,,,,,1,001,2024-08-28_14h54.47.142,IAT(Formal),2021.2.3,Win32,59.52380952,,,,,,,,,,,,,,,,,,,,,,,,,,,,,,,,,,,,,,,,,,,,,,,,,,,,猖狂,i,,,i,1,0.5374,0,17,17,45,1,,
,,,,,,,,,,,,,,1,001,2024-08-28_14h54.47.142,IAT(Formal),2021.2.3,Win32,59.52380952,,,,,,,,,,,,,,,,,,,,,,,,,,,,,,,,,,,,,,,,,,,,,,,,,,,,我,i,,,i,1,0.5298,0,18,18,70,1,,
,,,,,,,,,,,,,,1,001,2024-08-28_14h54.47.142,IAT(Formal),2021.2.3,Win32,59.52380952,,,,,,,,,,,,,,,,,,,,,,,,,,,,,,,,,,,,,,,,,,,,,,,,,,,,他,e,,,e,1,0.4216,0,19,19,75,1,,
,,,,,,,,,,,,,,1,001,2024-08-28_14h54.47.142,IAT(Formal),2021.2.3,Win32,59.52380952,,,,,,,,,,,,,,,,,,,,,,,,,,,,,,,,,,,,,,,,,,,,,,,,,,,,我们,i,,,i,1,0.6573,0,20,20,2,1,,
,,,,,,,,,,,,,,1,001,2024-08-28_14h54.47.142,IAT(Formal),2021.2.3,Win32,59.52380952,,,,,,,,,,,,,,,,,,,,,,,,,,,,,,,,,,,,,,,,,,,,,,,,,,,,他,e,,,e,1,0.5602,0,21,21,65,1,,
,,,,,,,,,,,,,,1,001,2024-08-28_14h54.47.142,IAT(Formal),2021.2.3,Win32,59.52380952,,,,,,,,,,,,,,,,,,,,,,,,,,,,,,,,,,,,,,,,,,,,,,,,,,,,悲观,i,,,i,1,0.6577,0,22,22,34,1,,
,,,,,,,,,,,,,,1,001,2024-08-28_14h54.47.142,IAT(Formal),2021.2.3,Win32,59.52380952,,,,,,,,,,,,,,,,,,,,,,,,,,,,,,,,,,,,,,,,,,,,,,,,,,,,公正,e,,,e,1,0.554,0,23,23,23,1,,
,,,,,,,,,,,,,,1,001,2024-08-28_14h54.47.142,IAT(Formal),2021.2.3,Win32,59.52380952,,,,,,,,,,,,,,,,,,,,,,,,,,,,,,,,,,,,,,,,,,,,,,,,,,,,他,e,,,e,1,0.9165,0,24,24,5,1,,
,,,,,,,,,,,,,,1,001,2024-08-28_14h54.47.142,IAT(Formal),2021.2.3,Win32,59.52380952,,,,,,,,,,,,,,,,,,,,,,,,,,,,,,,,,,,,,,,,,,,,,,,,,,,,细腻,e,,,e,1,0.6237,0,25,25,25,1,,
,,,,,,,,,,,,,,1,001,2024-08-28_14h54.47.142,IAT(Formal),2021.2.3,Win32,59.52380952,,,,,,,,,,,,,,,,,,,,,,,,,,,,,,,,,,,,,,,,,,,,,,,,,,,,他的,e,,,e,1,0.726,0,26,26,77,1,,
,,,,,,,,,,,,,,1,001,2024-08-28_14h54.47.142,IAT(Formal),2021.2.3,Win32,59.52380952,,,,,,,,,,,,,,,,,,,,,,,,,,,,,,,,,,,,,,,,,,,,,,,,,,,,他人,e,,,e,1,0.4992,0,27,27,78,1,,
,,,,,,,,,,,,,,1,001,2024-08-28_14h54.47.142,IAT(Formal),2021.2.3,Win32,59.52380952,,,,,,,,,,,,,,,,,,,,,,,,,,,,,,,,,,,,,,,,,,,,,,,,,,,,俺,i,,,i,1,0.5997,0,28,28,64,1,,
,,,,,,,,,,,,,,1,001,2024-08-28_14h54.47.142,IAT(Formal),2021.2.3,Win32,59.52380952,,,,,,,,,,,,,,,,,,,,,,,,,,,,,,,,,,,,,,,,,,,,,,,,,,,,他的,e,,,e,1,0.8952,0,29,29,67,1,,
,,,,,,,,,,,,,,1,001,2024-08-28_14h54.47.142,IAT(Formal),2021.2.3,Win32,59.52380952,,,,,,,,,,,,,,,,,,,,,,,,,,,,,,,,,,,,,,,,,,,,,,,,,,,,俺,i,,,i,1,0.596,0,30,30,4,1,,
,,,,,,,,,,,,,,1,001,2024-08-28_14h54.47.142,IAT(Formal),2021.2.3,Win32,59.52380952,,,,,,,,,,,,,,,,,,,,,,,,,,,,,,,,,,,,,,,,,,,,,,,,,,,,他的,e,,,e,1,0.5013,0,31,31,57,1,,
,,,,,,,,,,,,,,1,001,2024-08-28_14h54.47.142,IAT(Formal),2021.2.3,Win32,59.52380952,,,,,,,,,,,,,,,,,,,,,,,,,,,,,,,,,,,,,,,,,,,,,,,,,,,,我,i,,,i,1,0.4913,0,32,32,60,1,,
,,,,,,,,,,,,,,1,001,2024-08-28_14h54.47.142,IAT(Formal),2021.2.3,Win32,59.52380952,,,,,,,,,,,,,,,,,,,,,,,,,,,,,,,,,,,,,,,,,,,,,,,,,,,,下贱,i,,,i,1,0.5994,0,33,33,49,1,,
,,,,,,,,,,,,,,1,001,2024-08-28_14h54.47.142,IAT(Formal),2021.2.3,Win32,59.52380952,,,,,,,,,,,,,,,,,,,,,,,,,,,,,,,,,,,,,,,,,,,,,,,,,,,,其他,e,,,e,1,0.7326,0,34,34,9,1,,
,,,,,,,,,,,,,,1,001,2024-08-28_14h54.47.142,IAT(Formal),2021.2.3,Win32,59.52380952,,,,,,,,,,,,,,,,,,,,,,,,,,,,,,,,,,,,,,,,,,,,,,,,,,,,固执,i,,,i,1,0.6496,0,35,35,47,1,,
,,,,,,,,,,,,,,1,001,2024-08-28_14h54.47.142,IAT(Formal),2021.2.3,Win32,59.52380952,,,,,,,,,,,,,,,,,,,,,,,,,,,,,,,,,,,,,,,,,,,,,,,,,,,,暴躁,i,,,i,1,0.536,0,36,36,44,1,,
,,,,,,,,,,,,,,1,001,2024-08-28_14h54.47.142,IAT(Formal),2021.2.3,Win32,59.52380952,,,,,,,,,,,,,,,,,,,,,,,,,,,,,,,,,,,,,,,,,,,,,,,,,,,,他们,e,,,e,1,0.6066,0,37,37,6,1,,
,,,,,,,,,,,,,,1,001,2024-08-28_14h54.47.142,IAT(Formal),2021.2.3,Win32,59.52380952,,,,,,,,,,,,,,,,,,,,,,,,,,,,,,,,,,,,,,,,,,,,,,,,,,,,他的,e,,,e,1,0.4998,0,38,38,7,1,,
,,,,,,,,,,,,,,1,001,2024-08-28_14h54.47.142,IAT(Formal),2021.2.3,Win32,59.52380952,,,,,,,,,,,,,,,,,,,,,,,,,,,,,,,,,,,,,,,,,,,,,,,,,,,,其他,e,,,e,1,0.5552,0,39,39,79,1,,
,,,,,,,,,,,,,,1,001,2024-08-28_14h54.47.142,IAT(Formal),2021.2.3,Win32,59.52380952,,,,,,,,,,,,,,,,,,,,,,,,,,,,,,,,,,,,,,,,,,,,,,,,,,,,机智,e,,,e,1,0.4513,0,40,40,19,1,,
,,,,,,,,,,,,,,1,001,2024-08-28_14h54.47.142,IAT(Formal),2021.2.3,Win32,59.52380952,,,,,,,,,,,,,,,,,,,,,,,,,,,,,,,,,,,,,,,,,,,,,,,,,,,,执拗,i,,,i,1,0.6697,0,41,41,40,1,,
,,,,,,,,,,,,,,1,001,2024-08-28_14h54.47.142,IAT(Formal),2021.2.3,Win32,59.52380952,,,,,,,,,,,,,,,,,,,,,,,,,,,,,,,,,,,,,,,,,,,,,,,,,,,,卑鄙,i,,,i,1,0.5786,0,42,42,30,1,,
,,,,,,,,,,,,,,1,001,2024-08-28_14h54.47.142,IAT(Formal),2021.2.3,Win32,59.52380952,,,,,,,,,,,,,,,,,,,,,,,,,,,,,,,,,,,,,,,,,,,,,,,,,,,,他,e,,,e,1,0.5662,0,43,43,55,1,,
,,,,,,,,,,,,,,1,001,2024-08-28_14h54.47.142,IAT(Formal),2021.2.3,Win32,59.52380952,,,,,,,,,,,,,,,,,,,,,,,,,,,,,,,,,,,,,,,,,,,,,,,,,,,,冒失,i,,,i,1,0.5687,0,44,44,39,1,,
,,,,,,,,,,,,,,1,001,2024-08-28_14h54.47.142,IAT(Formal),2021.2.3,Win32,59.52380952,,,,,,,,,,,,,,,,,,,,,,,,,,,,,,,,,,,,,,,,,,,,,,,,,,,,刻薄,i,,,i,1,0.5745,0,45,45,33,1,,
,,,,,,,,,,,,,,1,001,2024-08-28_14h54.47.142,IAT(Formal),2021.2.3,Win32,59.52380952,,,,,,,,,,,,,,,,,,,,,,,,,,,,,,,,,,,,,,,,,,,,,,,,,,,,热情,e,,,e,1,0.6109,0,46,46,27,1,,
,,,,,,,,,,,,,,1,001,2024-08-28_14h54.47.142,IAT(Formal),2021.2.3,Win32,59.52380952,,,,,,,,,,,,,,,,,,,,,,,,,,,,,,,,,,,,,,,,,,,,,,,,,,,,他们,e,,,e,1,0.6517,0,47,47,56,1,,
,,,,,,,,,,,,,,1,001,2024-08-28_14h54.47.142,IAT(Formal),2021.2.3,Win32,59.52380952,,,,,,,,,,,,,,,,,,,,,,,,,,,,,,,,,,,,,,,,,,,,,,,,,,,,聪明,e,,,e,1,0.5178,0,48,48,12,1,,
,,,,,,,,,,,,,,1,001,2024-08-28_14h54.47.142,IAT(Formal),2021.2.3,Win32,59.52380952,,,,,,,,,,,,,,,,,,,,,,,,,,,,,,,,,,,,,,,,,,,,,,,,,,,,活泼,e,,,e,1,0.6056,0,49,49,28,1,,
,,,,,,,,,,,,,,1,001,2024-08-28_14h54.47.142,IAT(Formal),2021.2.3,Win32,59.52380952,,,,,,,,,,,,,,,,,,,,,,,,,,,,,,,,,,,,,,,,,,,,,,,,,,,,消极,i,,,i,1,0.5202,0,50,50,35,1,,
,,,,,,,,,,,,,,1,001,2024-08-28_14h54.47.142,IAT(Formal),2021.2.3,Win32,59.52380952,,,,,,,,,,,,,,,,,,,,,,,,,,,,,,,,,,,,,,,,,,,,,,,,,,,,野蛮,i,,,i,1,0.6056,0,51,51,46,1,,
,,,,,,,,,,,,,,1,001,2024-08-28_14h54.47.142,IAT(Formal),2021.2.3,Win32,59.52380952,,,,,,,,,,,,,,,,,,,,,,,,,,,,,,,,,,,,,,,,,,,,,,,,,,,,我们,i,,,i,1,0.4239,0,52,52,72,1,,
,,,,,,,,,,,,,,1,001,2024-08-28_14h54.47.142,IAT(Formal),2021.2.3,Win32,59.52380952,,,,,,,,,,,,,,,,,,,,,,,,,,,,,,,,,,,,,,,,,,,,,,,,,,,,我们,i,,,i,1,0.5169,0,53,53,52,1,,
,,,,,,,,,,,,,,1,001,2024-08-28_14h54.47.142,IAT(Formal),2021.2.3,Win32,59.52380952,,,,,,,,,,,,,,,,,,,,,,,,,,,,,,,,,,,,,,,,,,,,,,,,,,,,他人,e,,,e,1,0.489,0,54,54,8,1,,
,,,,,,,,,,,,,,1,001,2024-08-28_14h54.47.142,IAT(Formal),2021.2.3,Win32,59.52380952,,,,,,,,,,,,,,,,,,,,,,,,,,,,,,,,,,,,,,,,,,,,,,,,,,,,他们,e,,,e,1,0.4203,0,55,55,76,1,,
,,,,,,,,,,,,,,1,001,2024-08-28_14h54.47.142,IAT(Formal),2021.2.3,Win32,59.52380952,,,,,,,,,,,,,,,,,,,,,,,,,,,,,,,,,,,,,,,,,,,,,,,,,,,,诚实,e,,,e,1,0.5826,0,56,56,15,1,,
,,,,,,,,,,,,,,1,001,2024-08-28_14h54.47.142,IAT(Formal),2021.2.3,Win32,59.52380952,,,,,,,,,,,,,,,,,,,,,,,,,,,,,,,,,,,,,,,,,,,,,,,,,,,,其他,e,,,e,1,0.5994,0,57,57,59,1,,
,,,,,,,,,,,,,,1,001,2024-08-28_14h54.47.142,IAT(Formal),2021.2.3,Win32,59.52380952,,,,,,,,,,,,,,,,,,,,,,,,,,,,,,,,,,,,,,,,,,,,,,,,,,,,无私,e,,,i,0,0.6041,0,58,58,22,1,,
,,,,,,,,,,,,,,1,001,2024-08-28_14h54.47.142,IAT(Formal),2021.2.3,Win32,59.52380952,,,,,,,,,,,,,,,,,,,,,,,,,,,,,,,,,,,,,,,,,,,,,,,,,,,,我们,i,,,i,1,0.5958,0,59,59,62,1,,
,,,,,,,,,,,,,,1,001,2024-08-28_14h54.47.142,IAT(Formal),2021.2.3,Win32,59.52380952,,,,,,,,,,,,,,,,,,,,,,,,,,,,,,,,,,,,,,,,,,,,,,,,,,,,冷静,e,,,e,1,0.5515,0,60,60,26,1,,
,,,,,,,,,,,,,,1,001,2024-08-28_14h54.47.142,IAT(Formal),2021.2.3,Win32,59.52380952,,,,,,,,,,,,,,,,,,,,,,,,,,,,,,,,,,,,,,,,,,,,,,,,,,,,优秀,e,,,e,1,0.5122,0,61,61,10,1,,
,,,,,,,,,,,,,,1,001,2024-08-28_14h54.47.142,IAT(Formal),2021.2.3,Win32,59.52380952,,,,,,,,,,,,,,,,,,,,,,,,,,,,,,,,,,,,,,,,,,,,,,,,,,,,我,i,,,i,1,0.6863,0,62,62,0,1,,
,,,,,,,,,,,,,,1,001,2024-08-28_14h54.47.142,IAT(Formal),2021.2.3,Win32,59.52380952,,,,,,,,,,,,,,,,,,,,,,,,,,,,,,,,,,,,,,,,,,,,,,,,,,,,杰出,e,,,e,1,0.5031,0,63,63,13,1,,
,,,,,,,,,,,,,,1,001,2024-08-28_14h54.47.142,IAT(Formal),2021.2.3,Win32,59.52380952,,,,,,,,,,,,,,,,,,,,,,,,,,,,,,,,,,,,,,,,,,,,,,,,,,,,他人,e,,,e,1,0.5892,0,64,64,58,1,,
,,,,,,,,,,,,,,1,001,2024-08-28_14h54.47.142,IAT(Formal),2021.2.3,Win32,59.52380952,,,,,,,,,,,,,,,,,,,,,,,,,,,,,,,,,,,,,,,,,,,,,,,,,,,,自己,i,,,i,1,0.5334,0,65,65,73,1,,
,,,,,,,,,,,,,,1,001,2024-08-28_14h54.47.142,IAT(Formal),2021.2.3,Win32,59.52380952,,,,,,,,,,,,,,,,,,,,,,,,,,,,,,,,,,,,,,,,,,,,,,,,,,,,我的,i,,,i,1,0.6209,0,66,66,1,1,,
,,,,,,,,,,,,,,1,001,2024-08-28_14h54.47.142,IAT(Formal),2021.2.3,Win32,59.52380952,,,,,,,,,,,,,,,,,,,,,,,,,,,,,,,,,,,,,,,,,,,,,,,,,,,,自卑,i,,,i,1,0.5826,0,67,67,36,1,,
,,,,,,,,,,,,,,1,001,2024-08-28_14h54.47.142,IAT(Formal),2021.2.3,Win32,59.52380952,,,,,,,,,,,,,,,,,,,,,,,,,,,,,,,,,,,,,,,,,,,,,,,,,,,,我的,i,,,i,1,0.6066,0,68,68,71,1,,
,,,,,,,,,,,,,,1,001,2024-08-28_14h54.47.142,IAT(Formal),2021.2.3,Win32,59.52380952,,,,,,,,,,,,,,,,,,,,,,,,,,,,,,,,,,,,,,,,,,,,,,,,,,,,傲慢,i,,,i,1,0.5434,0,69,69,37,1,,
,,,,,,,,,,,,,,1,001,2024-08-28_14h54.47.142,IAT(Formal),2021.2.3,Win32,59.52380952,,,,,,,,,,,,,,,,,,,,,,,,,,,,,,,,,,,,,,,,,,,,,,,,,,,,轻率,i,,,i,1,0.8027,0,70,70,48,1,,
,,,,,,,,,,,,,,1,001,2024-08-28_14h54.47.142,IAT(Formal),2021.2.3,Win32,59.52380952,,,,,,,,,,,,,,,,,,,,,,,,,,,,,,,,,,,,,,,,,,,,,,,,,,,,我,i,,,i,1,0.5832,0,71,71,50,1,,
,,,,,,,,,,,,,,1,001,2024-08-28_14h54.47.142,IAT(Formal),2021.2.3,Win32,59.52380952,,,,,,,,,,,,,,,,,,,,,,,,,,,,,,,,,,,,,,,,,,,,,,,,,,,,愚蠢,i,,,i,1,0.5458,0,72,72,32,1,,
,,,,,,,,,,,,,,1,001,2024-08-28_14h54.47.142,IAT(Formal),2021.2.3,Win32,59.52380952,,,,,,,,,,,,,,,,,,,,,,,,,,,,,,,,,,,,,,,,,,,,,,,,,,,,他们,e,,,e,1,0.523,0,73,73,66,1,,
,,,,,,,,,,,,,,1,001,2024-08-28_14h54.47.142,IAT(Formal),2021.2.3,Win32,59.52380952,,,,,,,,,,,,,,,,,,,,,,,,,,,,,,,,,,,,,,,,,,,,,,,,,,,,自己,i,,,i,1,0.6776,0,74,74,53,1,,
,,,,,,,,,,,,,,1,001,2024-08-28_14h54.47.142,IAT(Formal),2021.2.3,Win32,59.52380952,,,,,,,,,,,,,,,,,,,,,,,,,,,,,,,,,,,,,,,,,,,,,,,,,,,,自己,i,,,i,1,0.4924,0,75,75,3,1,,
,,,,,,,,,,,,,,1,001,2024-08-28_14h54.47.142,IAT(Formal),2021.2.3,Win32,59.52380952,,,,,,,,,,,,,,,,,,,,,,,,,,,,,,,,,,,,,,,,,,,,,,,,,,,,正直,e,,,e,1,0.6774,0,76,76,16,1,,
,,,,,,,,,,,,,,1,001,2024-08-28_14h54.47.142,IAT(Formal),2021.2.3,Win32,59.52380952,,,,,,,,,,,,,,,,,,,,,,,,,,,,,,,,,,,,,,,,,,,,,,,,,,,,俺,i,,,i,1,0.765,0,77,77,54,1,,
,,,,,,,,,,,,,,1,001,2024-08-28_14h54.47.142,IAT(Formal),2021.2.3,Win32,59.52380952,,,,,,,,,,,,,,,,,,,,,,,,,,,,,,,,,,,,,,,,,,,,,,,,,,,,鲁莽,i,,,i,1,0.5609,0,78,78,38,1,,
,,,,,,,,,,,,,,1,001,2024-08-28_14h54.47.142,IAT(Formal),2021.2.3,Win32,59.52380952,,,,,,,,,,,,,,,,,,,,,,,,,,,,,,,,,,,,,,,,,,,,,,,,,,,,散漫,i,,,i,1,0.6017,0,79,79,41,1,,
,,,,,,,,,,,,,,1,001,2024-08-28_14h54.47.142,IAT(Formal),2021.2.3,Win32,59.52380952,,,,,,,,,,,,,,,,,,,,,,,,,,,,,,,,,,,,,,,,,,,,,,,,,,,,细腻,e,,,e,1,0.6227,1,0,80,25,1,,
,,,,,,,,,,,,,,1,001,2024-08-28_14h54.47.142,IAT(Formal),2021.2.3,Win32,59.52380952,,,,,,,,,,,,,,,,,,,,,,,,,,,,,,,,,,,,,,,,,,,,,,,,,,,,冒失,i,,,i,1,0.5276,1,1,81,39,1,,
,,,,,,,,,,,,,,1,001,2024-08-28_14h54.47.142,IAT(Formal),2021.2.3,Win32,59.52380952,,,,,,,,,,,,,,,,,,,,,,,,,,,,,,,,,,,,,,,,,,,,,,,,,,,,自己,i,,,i,1,0.6002,1,2,82,53,1,,
,,,,,,,,,,,,,,1,001,2024-08-28_14h54.47.142,IAT(Formal),2021.2.3,Win32,59.52380952,,,,,,,,,,,,,,,,,,,,,,,,,,,,,,,,,,,,,,,,,,,,,,,,,,,,公正,e,,,e,1,0.4949,1,3,83,23,1,,
,,,,,,,,,,,,,,1,001,2024-08-28_14h54.47.142,IAT(Formal),2021.2.3,Win32,59.52380952,,,,,,,,,,,,,,,,,,,,,,,,,,,,,,,,,,,,,,,,,,,,,,,,,,,,自己,i,,,i,1,0.7,1,4,84,73,1,,
,,,,,,,,,,,,,,1,001,2024-08-28_14h54.47.142,IAT(Formal),2021.2.3,Win32,59.52380952,,,,,,,,,,,,,,,,,,,,,,,,,,,,,,,,,,,,,,,,,,,,,,,,,,,,卑鄙,i,,,i,1,0.5082,1,5,85,30,1,,
,,,,,,,,,,,,,,1,001,2024-08-28_14h54.47.142,IAT(Formal),2021.2.3,Win32,59.52380952,,,,,,,,,,,,,,,,,,,,,,,,,,,,,,,,,,,,,,,,,,,,,,,,,,,,他们,e,,,e,1,0.6941,1,6,86,56,1,,
,,,,,,,,,,,,,,1,001,2024-08-28_14h54.47.142,IAT(Formal),2021.2.3,Win32,59.52380952,,,,,,,,,,,,,,,,,,,,,,,,,,,,,,,,,,,,,,,,,,,,,,,,,,,,他人,e,,,e,1,0.522,1,7,87,58,1,,
,,,,,,,,,,,,,,1,001,2024-08-28_14h54.47.142,IAT(Formal),2021.2.3,Win32,59.52380952,,,,,,,,,,,,,,,,,,,,,,,,,,,,,,,,,,,,,,,,,,,,,,,,,,,,聪明,e,,,e,1,0.5338,1,8,88,12,1,,
,,,,,,,,,,,,,,1,001,2024-08-28_14h54.47.142,IAT(Formal),2021.2.3,Win32,59.52380952,,,,,,,,,,,,,,,,,,,,,,,,,,,,,,,,,,,,,,,,,,,,,,,,,,,,自己,i,,,i,1,0.4943,1,9,89,63,1,,
,,,,,,,,,,,,,,1,001,2024-08-28_14h54.47.142,IAT(Formal),2021.2.3,Win32,59.52380952,,,,,,,,,,,,,,,,,,,,,,,,,,,,,,,,,,,,,,,,,,,,,,,,,,,,傲慢,i,,,i,1,0.5093,1,10,90,37,1,,
,,,,,,,,,,,,,,1,001,2024-08-28_14h54.47.142,IAT(Formal),2021.2.3,Win32,59.52380952,,,,,,,,,,,,,,,,,,,,,,,,,,,,,,,,,,,,,,,,,,,,,,,,,,,,他的,e,,,e,1,0.9334,1,11,91,7,1,,
,,,,,,,,,,,,,,1,001,2024-08-28_14h54.47.142,IAT(Formal),2021.2.3,Win32,59.52380952,,,,,,,,,,,,,,,,,,,,,,,,,,,,,,,,,,,,,,,,,,,,,,,,,,,,我们,i,,,i,1,0.5611,1,12,92,52,1,,
,,,,,,,,,,,,,,1,001,2024-08-28_14h54.47.142,IAT(Formal),2021.2.3,Win32,59.52380952,,,,,,,,,,,,,,,,,,,,,,,,,,,,,,,,,,,,,,,,,,,,,,,,,,,,我,i,,,i,1,0.7121,1,13,93,60,1,,
,,,,,,,,,,,,,,1,001,2024-08-28_14h54.47.142,IAT(Formal),2021.2.3,Win32,59.52380952,,,,,,,,,,,,,,,,,,,,,,,,,,,,,,,,,,,,,,,,,,,,,,,,,,,,其他,e,,,e,1,0.5379,1,14,94,79,1,,
,,,,,,,,,,,,,,1,001,2024-08-28_14h54.47.142,IAT(Formal),2021.2.3,Win32,59.52380952,,,,,,,,,,,,,,,,,,,,,,,,,,,,,,,,,,,,,,,,,,,,,,,,,,,,俺,i,,,i,1,0.6716,1,15,95,4,1,,
,,,,,,,,,,,,,,1,001,2024-08-28_14h54.47.142,IAT(Formal),2021.2.3,Win32,59.52380952,,,,,,,,,,,,,,,,,,,,,,,,,,,,,,,,,,,,,,,,,,,,,,,,,,,,无私,e,,,e,1,0.9112,1,16,96,22,1,,
,,,,,,,,,,,,,,1,001,2024-08-28_14h54.47.142,IAT(Formal),2021.2.3,Win32,59.52380952,,,,,,,,,,,,,,,,,,,,,,,,,,,,,,,,,,,,,,,,,,,,,,,,,,,,他人,e,,,e,1,0.6352,1,17,97,8,1,,
,,,,,,,,,,,,,,1,001,2024-08-28_14h54.47.142,IAT(Formal),2021.2.3,Win32,59.52380952,,,,,,,,,,,,,,,,,,,,,,,,,,,,,,,,,,,,,,,,,,,,,,,,,,,,他们,e,,,e,1,0.5338,1,18,98,76,1,,
,,,,,,,,,,,,,,1,001,2024-08-28_14h54.47.142,IAT(Formal),2021.2.3,Win32,59.52380952,,,,,,,,,,,,,,,,,,,,,,,,,,,,,,,,,,,,,,,,,,,,,,,,,,,,勤奋,e,,,e,1,0.5601,1,19,99,18,1,,
,,,,,,,,,,,,,,1,001,2024-08-28_14h54.47.142,IAT(Formal),2021.2.3,Win32,59.52380952,,,,,,,,,,,,,,,,,,,,,,,,,,,,,,,,,,,,,,,,,,,,,,,,,,,,轻率,i,,,i,1,0.6189,1,20,100,48,1,,
,,,,,,,,,,,,,,1,001,2024-08-28_14h54.47.142,IAT(Formal),2021.2.3,Win32,59.52380952,,,,,,,,,,,,,,,,,,,,,,,,,,,,,,,,,,,,,,,,,,,,,,,,,,,,鲁莽,i,,,i,1,0.6003,1,21,101,38,1,,
,,,,,,,,,,,,,,1,001,2024-08-28_14h54.47.142,IAT(Formal),2021.2.3,Win32,59.52380952,,,,,,,,,,,,,,,,,,,,,,,,,,,,,,,,,,,,,,,,,,,,,,,,,,,,他人,e,,,e,1,0.6944,1,22,102,78,1,,
,,,,,,,,,,,,,,1,001,2024-08-28_14h54.47.142,IAT(Formal),2021.2.3,Win32,59.52380952,,,,,,,,,,,,,,,,,,,,,,,,,,,,,,,,,,,,,,,,,,,,,,,,,,,,活泼,e,,,e,1,0.5604,1,23,103,28,1,,
,,,,,,,,,,,,,,1,001,2024-08-28_14h54.47.142,IAT(Formal),2021.2.3,Win32,59.52380952,,,,,,,,,,,,,,,,,,,,,,,,,,,,,,,,,,,,,,,,,,,,,,,,,,,,他的,e,,,e,1,0.6602,1,24,104,77,1,,
,,,,,,,,,,,,,,1,001,2024-08-28_14h54.47.142,IAT(Formal),2021.2.3,Win32,59.52380952,,,,,,,,,,,,,,,,,,,,,,,,,,,,,,,,,,,,,,,,,,,,,,,,,,,,诚实,e,,,e,1,0.5649,1,25,105,15,1,,
,,,,,,,,,,,,,,1,001,2024-08-28_14h54.47.142,IAT(Formal),2021.2.3,Win32,59.52380952,,,,,,,,,,,,,,,,,,,,,,,,,,,,,,,,,,,,,,,,,,,,,,,,,,,,我们,i,,,i,1,0.7107,1,26,106,62,1,,
,,,,,,,,,,,,,,1,001,2024-08-28_14h54.47.142,IAT(Formal),2021.2.3,Win32,59.52380952,,,,,,,,,,,,,,,,,,,,,,,,,,,,,,,,,,,,,,,,,,,,,,,,,,,,其他,e,,,e,1,0.5105,1,27,107,9,1,,
,,,,,,,,,,,,,,1,001,2024-08-28_14h54.47.142,IAT(Formal),2021.2.3,Win32,59.52380952,,,,,,,,,,,,,,,,,,,,,,,,,,,,,,,,,,,,,,,,,,,,,,,,,,,,他,e,,,e,1,0.6064,1,28,108,5,1,,
,,,,,,,,,,,,,,1,001,2024-08-28_14h54.47.142,IAT(Formal),2021.2.3,Win32,59.52380952,,,,,,,,,,,,,,,,,,,,,,,,,,,,,,,,,,,,,,,,,,,,,,,,,,,,凶狠,i,,,i,1,0.7938,1,29,109,42,1,,
,,,,,,,,,,,,,,1,001,2024-08-28_14h54.47.142,IAT(Formal),2021.2.3,Win32,59.52380952,,,,,,,,,,,,,,,,,,,,,,,,,,,,,,,,,,,,,,,,,,,,,,,,,,,,勇敢,e,,,e,1,0.5002,1,30,110,17,1,,
,,,,,,,,,,,,,,1,001,2024-08-28_14h54.47.142,IAT(Formal),2021.2.3,Win32,59.52380952,,,,,,,,,,,,,,,,,,,,,,,,,,,,,,,,,,,,,,,,,,,,,,,,,,,,他们,e,,,e,1,0.5607,1,31,111,6,1,,
,,,,,,,,,,,,,,1,001,2024-08-28_14h54.47.142,IAT(Formal),2021.2.3,Win32,59.52380952,,,,,,,,,,,,,,,,,,,,,,,,,,,,,,,,,,,,,,,,,,,,,,,,,,,,乐观,e,,,e,1,0.5439,1,32,112,14,1,,
,,,,,,,,,,,,,,1,001,2024-08-28_14h54.47.142,IAT(Formal),2021.2.3,Win32,59.52380952,,,,,,,,,,,,,,,,,,,,,,,,,,,,,,,,,,,,,,,,,,,,,,,,,,,,自卑,i,,,i,1,0.5532,1,33,113,36,1,,
,,,,,,,,,,,,,,1,001,2024-08-28_14h54.47.142,IAT(Formal),2021.2.3,Win32,59.52380952,,,,,,,,,,,,,,,,,,,,,,,,,,,,,,,,,,,,,,,,,,,,,,,,,,,,他,e,,,e,1,0.4771,1,34,114,65,1,,
,,,,,,,,,,,,,,1,001,2024-08-28_14h54.47.142,IAT(Formal),2021.2.3,Win32,59.52380952,,,,,,,,,,,,,,,,,,,,,,,,,,,,,,,,,,,,,,,,,,,,,,,,,,,,悲观,i,,,i,1,0.6611,1,35,115,34,1,,
,,,,,,,,,,,,,,1,001,2024-08-28_14h54.47.142,IAT(Formal),2021.2.3,Win32,59.52380952,,,,,,,,,,,,,,,,,,,,,,,,,,,,,,,,,,,,,,,,,,,,,,,,,,,,其他,e,,,e,1,0.5703,1,36,116,69,1,,
,,,,,,,,,,,,,,1,001,2024-08-28_14h54.47.142,IAT(Formal),2021.2.3,Win32,59.52380952,,,,,,,,,,,,,,,,,,,,,,,,,,,,,,,,,,,,,,,,,,,,,,,,,,,,我,i,,,i,1,0.5611,1,37,117,50,1,,
,,,,,,,,,,,,,,1,001,2024-08-28_14h54.47.142,IAT(Formal),2021.2.3,Win32,59.52380952,,,,,,,,,,,,,,,,,,,,,,,,,,,,,,,,,,,,,,,,,,,,,,,,,,,,我的,i,,,i,1,0.6874,1,38,118,1,1,,
,,,,,,,,,,,,,,1,001,2024-08-28_14h54.47.142,IAT(Formal),2021.2.3,Win32,59.52380952,,,,,,,,,,,,,,,,,,,,,,,,,,,,,,,,,,,,,,,,,,,,,,,,,,,,散漫,i,,,i,1,0.5998,1,39,119,41,1,,
,,,,,,,,,,,,,,1,001,2024-08-28_14h54.47.142,IAT(Formal),2021.2.3,Win32,59.52380952,,,,,,,,,,,,,,,,,,,,,,,,,,,,,,,,,,,,,,,,,,,,,,,,,,,,他,e,,,e,1,0.7611,1,40,120,75,1,,
,,,,,,,,,,,,,,1,001,2024-08-28_14h54.47.142,IAT(Formal),2021.2.3,Win32,59.52380952,,,,,,,,,,,,,,,,,,,,,,,,,,,,,,,,,,,,,,,,,,,,,,,,,,,,他们,e,,,e,1,0.5669,1,41,121,66,1,,
,,,,,,,,,,,,,,1,001,2024-08-28_14h54.47.142,IAT(Formal),2021.2.3,Win32,59.52380952,,,,,,,,,,,,,,,,,,,,,,,,,,,,,,,,,,,,,,,,,,,,,,,,,,,,他的,e,,,e,1,0.4995,1,42,122,57,1,,
,,,,,,,,,,,,,,1,001,2024-08-28_14h54.47.142,IAT(Formal),2021.2.3,Win32,59.52380952,,,,,,,,,,,,,,,,,,,,,,,,,,,,,,,,,,,,,,,,,,,,,,,,,,,,优秀,e,,,e,1,0.5441,1,43,123,10,1,,
,,,,,,,,,,,,,,1,001,2024-08-28_14h54.47.142,IAT(Formal),2021.2.3,Win32,59.52380952,,,,,,,,,,,,,,,,,,,,,,,,,,,,,,,,,,,,,,,,,,,,,,,,,,,,正直,e,,,e,1,0.467,1,44,124,16,1,,
,,,,,,,,,,,,,,1,001,2024-08-28_14h54.47.142,IAT(Formal),2021.2.3,Win32,59.52380952,,,,,,,,,,,,,,,,,,,,,,,,,,,,,,,,,,,,,,,,,,,,,,,,,,,,热情,e,,,e,1,0.5325,1,45,125,27,1,,
,,,,,,,,,,,,,,1,001,2024-08-28_14h54.47.142,IAT(Formal),2021.2.3,Win32,59.52380952,,,,,,,,,,,,,,,,,,,,,,,,,,,,,,,,,,,,,,,,,,,,,,,,,,,,固执,i,,,i,1,0.5104,1,46,126,47,1,,
,,,,,,,,,,,,,,1,001,2024-08-28_14h54.47.142,IAT(Formal),2021.2.3,Win32,59.52380952,,,,,,,,,,,,,,,,,,,,,,,,,,,,,,,,,,,,,,,,,,,,,,,,,,,,自己,i,,,i,1,0.5503,1,47,127,3,1,,
,,,,,,,,,,,,,,1,001,2024-08-28_14h54.47.142,IAT(Formal),2021.2.3,Win32,59.52380952,,,,,,,,,,,,,,,,,,,,,,,,,,,,,,,,,,,,,,,,,,,,,,,,,,,,其他,e,,,e,1,0.6148,1,48,128,59,1,,
,,,,,,,,,,,,,,1,001,2024-08-28_14h54.47.142,IAT(Formal),2021.2.3,Win32,59.52380952,,,,,,,,,,,,,,,,,,,,,,,,,,,,,,,,,,,,,,,,,,,,,,,,,,,,野蛮,i,,,i,1,0.6104,1,49,129,46,1,,
,,,,,,,,,,,,,,1,001,2024-08-28_14h54.47.142,IAT(Formal),2021.2.3,Win32,59.52380952,,,,,,,,,,,,,,,,,,,,,,,,,,,,,,,,,,,,,,,,,,,,,,,,,,,,杰出,e,,,e,1,0.4503,1,50,130,13,1,,
,,,,,,,,,,,,,,1,001,2024-08-28_14h54.47.142,IAT(Formal),2021.2.3,Win32,59.52380952,,,,,,,,,,,,,,,,,,,,,,,,,,,,,,,,,,,,,,,,,,,,,,,,,,,,俺,i,,,i,1,0.6619,1,51,131,64,1,,
,,,,,,,,,,,,,,1,001,2024-08-28_14h54.47.142,IAT(Formal),2021.2.3,Win32,59.52380952,,,,,,,,,,,,,,,,,,,,,,,,,,,,,,,,,,,,,,,,,,,,,,,,,,,,我的,i,,,i,1,0.6055,1,52,132,51,1,,
,,,,,,,,,,,,,,1,001,2024-08-28_14h54.47.142,IAT(Formal),2021.2.3,Win32,59.52380952,,,,,,,,,,,,,,,,,,,,,,,,,,,,,,,,,,,,,,,,,,,,,,,,,,,,他的,e,,,e,1,0.5214,1,53,133,67,1,,
,,,,,,,,,,,,,,1,001,2024-08-28_14h54.47.142,IAT(Formal),2021.2.3,Win32,59.52380952,,,,,,,,,,,,,,,,,,,,,,,,,,,,,,,,,,,,,,,,,,,,,,,,,,,,冷静,e,,,e,1,0.627,1,54,134,26,1,,
,,,,,,,,,,,,,,1,001,2024-08-28_14h54.47.142,IAT(Formal),2021.2.3,Win32,59.52380952,,,,,,,,,,,,,,,,,,,,,,,,,,,,,,,,,,,,,,,,,,,,,,,,,,,,他,e,,,e,1,0.7004,1,55,135,55,1,,
,,,,,,,,,,,,,,1,001,2024-08-28_14h54.47.142,IAT(Formal),2021.2.3,Win32,59.52380952,,,,,,,,,,,,,,,,,,,,,,,,,,,,,,,,,,,,,,,,,,,,,,,,,,,,我,i,,,i,1,0.4684,1,56,136,0,1,,
,,,,,,,,,,,,,,1,001,2024-08-28_14h54.47.142,IAT(Formal),2021.2.3,Win32,59.52380952,,,,,,,,,,,,,,,,,,,,,,,,,,,,,,,,,,,,,,,,,,,,,,,,,,,,刻薄,i,,,i,1,0.5278,1,57,137,33,1,,
,,,,,,,,,,,,,,1,001,2024-08-28_14h54.47.142,IAT(Formal),2021.2.3,Win32,59.52380952,,,,,,,,,,,,,,,,,,,,,,,,,,,,,,,,,,,,,,,,,,,,,,,,,,,,机智,e,,,e,1,0.5093,1,58,138,19,1,,
,,,,,,,,,,,,,,1,001,2024-08-28_14h54.47.142,IAT(Formal),2021.2.3,Win32,59.52380952,,,,,,,,,,,,,,,,,,,,,,,,,,,,,,,,,,,,,,,,,,,,,,,,,,,,崇高,e,,,e,1,0.4989,1,59,139,11,1,,
,,,,,,,,,,,,,,1,001,2024-08-28_14h54.47.142,IAT(Formal),2021.2.3,Win32,59.52380952,,,,,,,,,,,,,,,,,,,,,,,,,,,,,,,,,,,,,,,,,,,,,,,,,,,,我的,i,,,i,1,0.652,1,60,140,71,1,,
,,,,,,,,,,,,,,1,001,2024-08-28_14h54.47.142,IAT(Formal),2021.2.3,Win32,59.52380952,,,,,,,,,,,,,,,,,,,,,,,,,,,,,,,,,,,,,,,,,,,,,,,,,,,,愚蠢,i,,,i,1,0.5336,1,61,141,32,1,,
,,,,,,,,,,,,,,1,001,2024-08-28_14h54.47.142,IAT(Formal),2021.2.3,Win32,59.52380952,,,,,,,,,,,,,,,,,,,,,,,,,,,,,,,,,,,,,,,,,,,,,,,,,,,,消极,i,,,e,0,0.5426,1,62,142,35,1,,
,,,,,,,,,,,,,,1,001,2024-08-28_14h54.47.142,IAT(Formal),2021.2.3,Win32,59.52380952,,,,,,,,,,,,,,,,,,,,,,,,,,,,,,,,,,,,,,,,,,,,,,,,,,,,认真,e,,,e,1,0.5337,1,63,143,20,1,,
,,,,,,,,,,,,,,1,001,2024-08-28_14h54.47.142,IAT(Formal),2021.2.3,Win32,59.52380952,,,,,,,,,,,,,,,,,,,,,,,,,,,,,,,,,,,,,,,,,,,,,,,,,,,,我们,i,,,i,1,0.5335,1,64,144,72,1,,
,,,,,,,,,,,,,,1,001,2024-08-28_14h54.47.142,IAT(Formal),2021.2.3,Win32,59.52380952,,,,,,,,,,,,,,,,,,,,,,,,,,,,,,,,,,,,,,,,,,,,,,,,,,,,俺,i,,,i,1,0.6295,1,65,145,54,1,,
,,,,,,,,,,,,,,1,001,2024-08-28_14h54.47.142,IAT(Formal),2021.2.3,Win32,59.52380952,,,,,,,,,,,,,,,,,,,,,,,,,,,,,,,,,,,,,,,,,,,,,,,,,,,,自私,i,,,i,1,0.6172,1,66,146,43,1,,
,,,,,,,,,,,,,,1,001,2024-08-28_14h54.47.142,IAT(Formal),2021.2.3,Win32,59.52380952,,,,,,,,,,,,,,,,,,,,,,,,,,,,,,,,,,,,,,,,,,,,,,,,,,,,他人,e,,,e,1,0.6139,1,67,147,68,1,,
,,,,,,,,,,,,,,1,001,2024-08-28_14h54.47.142,IAT(Formal),2021.2.3,Win32,59.52380952,,,,,,,,,,,,,,,,,,,,,,,,,,,,,,,,,,,,,,,,,,,,,,,,,,,,我们,i,,,i,1,0.5667,1,68,148,2,1,,
,,,,,,,,,,,,,,1,001,2024-08-28_14h54.47.142,IAT(Formal),2021.2.3,Win32,59.52380952,,,,,,,,,,,,,,,,,,,,,,,,,,,,,,,,,,,,,,,,,,,,,,,,,,,,猖狂,i,,,i,1,0.5604,1,69,149,45,1,,
,,,,,,,,,,,,,,1,001,2024-08-28_14h54.47.142,IAT(Formal),2021.2.3,Win32,59.52380952,,,,,,,,,,,,,,,,,,,,,,,,,,,,,,,,,,,,,,,,,,,,,,,,,,,,我的,i,,,i,1,0.6042,1,70,150,61,1,,
,,,,,,,,,,,,,,1,001,2024-08-28_14h54.47.142,IAT(Formal),2021.2.3,Win32,59.52380952,,,,,,,,,,,,,,,,,,,,,,,,,,,,,,,,,,,,,,,,,,,,,,,,,,,,暴躁,i,,,i,1,0.5938,1,71,151,44,1,,
,,,,,,,,,,,,,,1,001,2024-08-28_14h54.47.142,IAT(Formal),2021.2.3,Win32,59.52380952,,,,,,,,,,,,,,,,,,,,,,,,,,,,,,,,,,,,,,,,,,,,,,,,,,,,虚伪,i,,,i,1,0.5167,1,72,152,31,1,,
,,,,,,,,,,,,,,1,001,2024-08-28_14h54.47.142,IAT(Formal),2021.2.3,Win32,59.52380952,,,,,,,,,,,,,,,,,,,,,,,,,,,,,,,,,,,,,,,,,,,,,,,,,,,,执拗,i,,,i,1,0.5609,1,73,153,40,1,,
,,,,,,,,,,,,,,1,001,2024-08-28_14h54.47.142,IAT(Formal),2021.2.3,Win32,59.52380952,,,,,,,,,,,,,,,,,,,,,,,,,,,,,,,,,,,,,,,,,,,,,,,,,,,,我,i,,,i,1,0.5943,1,74,154,70,1,,
,,,,,,,,,,,,,,1,001,2024-08-28_14h54.47.142,IAT(Formal),2021.2.3,Win32,59.52380952,,,,,,,,,,,,,,,,,,,,,,,,,,,,,,,,,,,,,,,,,,,,,,,,,,,,下贱,i,,,i,1,0.4939,1,75,155,49,1,,
,,,,,,,,,,,,,,1,001,2024-08-28_14h54.47.142,IAT(Formal),2021.2.3,Win32,59.52380952,,,,,,,,,,,,,,,,,,,,,,,,,,,,,,,,,,,,,,,,,,,,,,,,,,,,朴实,e,,,e,1,0.5886,1,76,156,24,1,,
,,,,,,,,,,,,,,1,001,2024-08-28_14h54.47.142,IAT(Formal),2021.2.3,Win32,59.52380952,,,,,,,,,,,,,,,,,,,,,,,,,,,,,,,,,,,,,,,,,,,,,,,,,,,,诚恳,e,,,e,1,0.5272,1,77,157,29,1,,
,,,,,,,,,,,,,,1,001,2024-08-28_14h54.47.142,IAT(Formal),2021.2.3,Win32,59.52380952,,,,,,,,,,,,,,,,,,,,,,,,,,,,,,,,,,,,,,,,,,,,,,,,,,,,稳重,e,,,e,1,0.4308,1,78,158,21,1,,
,,,,,,,,,,,,,,1,001,2024-08-28_14h54.47.142,IAT(Formal),2021.2.3,Win32,59.52380952,,,,,,,,,,,,,,,,,,,,,,,,,,,,,,,,,,,,,,,,,,,,,,,,,,,,俺,i,,,i,1,0.6333,1,79,159,74,1,,
,,,,,,,,,,,,,,1,001,2024-08-28_14h54.47.142,IAT(Formal),2021.2.3,Win32,59.52380952,,,,,,,,,,,,,,,,,,,,,,,,,,,,,,,,,,,,,,,,,,,,,,,,,,,,,,,,,,,,,,,,space,1.5671