"X.Instruction1.keys","Instruction1.rt","Instruction2.keys","Instruction2.rt","key_resp_iso.keys","key_resp_iso.corr","key_resp_iso.rt","Practice_01.thisRepN","Practice_01.thisTrialN","Practice_01.thisN","Practice_01.thisIndex","Practice_01.ran","Words","ans","participant","session","date","expName","psychopyVersion","OS","frameRate","key_resp_3.keys","key_resp_3.rt","key_resp_ipn.keys","key_resp_ipn.corr","key_resp_ipn.rt","Practice_02.thisRepN","Practice_02.thisTrialN","Practice_02.thisN","Practice_02.thisIndex","Practice_02.ran","Words_ipn","ans_ipn","key_resp_4.keys","key_resp_4.rt","key_resp_t1.keys","key_resp_t1.corr","key_resp_t1.rt","Practice_T1.thisRepN","Practice_T1.thisTrialN","Practice_T1.thisN","Practice_T1.thisIndex","Practice_T1.ran","Words_t1","ans_t1","key_resp_5.keys","key_resp_5.rt","Formal_T1.thisRepN","Formal_T1.thisTrialN","Formal_T1.thisN","Formal_T1.thisIndex","Formal_T1.ran","key_resp_6.keys","key_resp_6.rt","key_resp_iso_reverse.keys","key_resp_iso_reverse.corr","key_resp_iso_reverse.rt","Practice_iso_Reverse.thisRepN","Practice_iso_Reverse.thisTrialN","Practice_iso_Reverse.thisN","Practice_iso_Reverse.thisIndex","Practice_iso_Reverse.ran","key_resp_7.keys","key_resp_7.rt","key_resp_t2_Practice.keys","key_resp_t2_Practice.corr","key_resp_t2_Practice.rt","Practice_t2_Reverse.thisRepN","Practice_t2_Reverse.thisTrialN","Practice_t2_Reverse.thisN","Practice_t2_Reverse.thisIndex","Practice_t2_Reverse.ran","Words_t2","ans_t2","key_resp_8.keys","key_resp_8.rt","key_resp_t2.keys","key_resp_t2.corr","Formal_t2_reverse.thisRepN","Formal_t2_reverse.thisTrialN","Formal_t2_reverse.thisN","Formal_t2_reverse.thisIndex","Formal_t2_reverse.ran","key_resp_t2.rt","key_instruct.keys","key_instruct.rt","Subject"
"space",1.973,"space",57.291,"i",1,1.101,0,0,0,6,1,"他们","i",1,1,"2024-08-30_12h38.18.860","IAT(Formal)","2021.2.3","MacIntel",58.82352941,"",NA,"",NA,NA,NA,NA,NA,NA,NA,"","","",NA,"",NA,NA,NA,NA,NA,NA,NA,"","","",NA,NA,NA,NA,NA,NA,"",NA,"",NA,NA,NA,NA,NA,NA,NA,"",NA,"",NA,NA,NA,NA,NA,NA,NA,"","","",NA,"",NA,NA,NA,NA,NA,NA,NA,"",NA,"37"
"",NA,"",NA,"e",1,0.799,0,1,1,4,1,"俺","e",1,1,"2024-08-30_12h38.18.860","IAT(Formal)","2021.2.3","MacIntel",58.82352941,"",NA,"",NA,NA,NA,NA,NA,NA,NA,"","","",NA,"",NA,NA,NA,NA,NA,NA,NA,"","","",NA,NA,NA,NA,NA,NA,"",NA,"",NA,NA,NA,NA,NA,NA,NA,"",NA,"",NA,NA,NA,NA,NA,NA,NA,"","","",NA,"",NA,NA,NA,NA,NA,NA,NA,"",NA,"37"
"",NA,"",NA,"i",1,0.763,0,2,2,9,1,"其他","i",1,1,"2024-08-30_12h38.18.860","IAT(Formal)","2021.2.3","MacIntel",58.82352941,"",NA,"",NA,NA,NA,NA,NA,NA,NA,"","","",NA,"",NA,NA,NA,NA,NA,NA,NA,"","","",NA,NA,NA,NA,NA,NA,"",NA,"",NA,NA,NA,NA,NA,NA,NA,"",NA,"",NA,NA,NA,NA,NA,NA,NA,"","","",NA,"",NA,NA,NA,NA,NA,NA,NA,"",NA,"37"
"",NA,"",NA,"e",1,0.717,0,3,3,1,1,"我的","e",1,1,"2024-08-30_12h38.18.860","IAT(Formal)","2021.2.3","MacIntel",58.82352941,"",NA,"",NA,NA,NA,NA,NA,NA,NA,"","","",NA,"",NA,NA,NA,NA,NA,NA,NA,"","","",NA,NA,NA,NA,NA,NA,"",NA,"",NA,NA,NA,NA,NA,NA,NA,"",NA,"",NA,NA,NA,NA,NA,NA,NA,"","","",NA,"",NA,NA,NA,NA,NA,NA,NA,"",NA,"37"
"",NA,"",NA,"i",1,0.623,0,4,4,5,1,"他","i",1,1,"2024-08-30_12h38.18.860","IAT(Formal)","2021.2.3","MacIntel",58.82352941,"",NA,"",NA,NA,NA,NA,NA,NA,NA,"","","",NA,"",NA,NA,NA,NA,NA,NA,NA,"","","",NA,NA,NA,NA,NA,NA,"",NA,"",NA,NA,NA,NA,NA,NA,NA,"",NA,"",NA,NA,NA,NA,NA,NA,NA,"","","",NA,"",NA,NA,NA,NA,NA,NA,NA,"",NA,"37"
"",NA,"",NA,"e",1,0.923,0,5,5,2,1,"我们","e",1,1,"2024-08-30_12h38.18.860","IAT(Formal)","2021.2.3","MacIntel",58.82352941,"",NA,"",NA,NA,NA,NA,NA,NA,NA,"","","",NA,"",NA,NA,NA,NA,NA,NA,NA,"","","",NA,NA,NA,NA,NA,NA,"",NA,"",NA,NA,NA,NA,NA,NA,NA,"",NA,"",NA,NA,NA,NA,NA,NA,NA,"","","",NA,"",NA,NA,NA,NA,NA,NA,NA,"",NA,"37"
"",NA,"",NA,"i",1,0.671,0,6,6,7,1,"他的","i",1,1,"2024-08-30_12h38.18.860","IAT(Formal)","2021.2.3","MacIntel",58.82352941,"",NA,"",NA,NA,NA,NA,NA,NA,NA,"","","",NA,"",NA,NA,NA,NA,NA,NA,NA,"","","",NA,NA,NA,NA,NA,NA,"",NA,"",NA,NA,NA,NA,NA,NA,NA,"",NA,"",NA,NA,NA,NA,NA,NA,NA,"","","",NA,"",NA,NA,NA,NA,NA,NA,NA,"",NA,"37"
"",NA,"",NA,"i",1,0.564,0,7,7,8,1,"他人","i",1,1,"2024-08-30_12h38.18.860","IAT(Formal)","2021.2.3","MacIntel",58.82352941,"",NA,"",NA,NA,NA,NA,NA,NA,NA,"","","",NA,"",NA,NA,NA,NA,NA,NA,NA,"","","",NA,NA,NA,NA,NA,NA,"",NA,"",NA,NA,NA,NA,NA,NA,NA,"",NA,"",NA,NA,NA,NA,NA,NA,NA,"","","",NA,"",NA,NA,NA,NA,NA,NA,NA,"",NA,"37"
"",NA,"",NA,"e",1,0.599,0,8,8,3,1,"自己","e",1,1,"2024-08-30_12h38.18.860","IAT(Formal)","2021.2.3","MacIntel",58.82352941,"",NA,"",NA,NA,NA,NA,NA,NA,NA,"","","",NA,"",NA,NA,NA,NA,NA,NA,NA,"","","",NA,NA,NA,NA,NA,NA,"",NA,"",NA,NA,NA,NA,NA,NA,NA,"",NA,"",NA,NA,NA,NA,NA,NA,NA,"","","",NA,"",NA,NA,NA,NA,NA,NA,NA,"",NA,"37"
"",NA,"",NA,"e",1,0.649,0,9,9,0,1,"我","e",1,1,"2024-08-30_12h38.18.860","IAT(Formal)","2021.2.3","MacIntel",58.82352941,"",NA,"",NA,NA,NA,NA,NA,NA,NA,"","","",NA,"",NA,NA,NA,NA,NA,NA,NA,"","","",NA,NA,NA,NA,NA,NA,"",NA,"",NA,NA,NA,NA,NA,NA,NA,"",NA,"",NA,NA,NA,NA,NA,NA,NA,"","","",NA,"",NA,NA,NA,NA,NA,NA,NA,"",NA,"37"
"",NA,"",NA,"",NA,NA,NA,NA,NA,NA,NA,"","",1,1,"2024-08-30_12h38.18.860","IAT(Formal)","2021.2.3","MacIntel",58.82352941,"space",8.802,"e",1,0.83,0,0,0,10,1,"认真","e","",NA,"",NA,NA,NA,NA,NA,NA,NA,"","","",NA,NA,NA,NA,NA,NA,"",NA,"",NA,NA,NA,NA,NA,NA,NA,"",NA,"",NA,NA,NA,NA,NA,NA,NA,"","","",NA,"",NA,NA,NA,NA,NA,NA,NA,"",NA,"37"
"",NA,"",NA,"",NA,NA,NA,NA,NA,NA,NA,"","",1,1,"2024-08-30_12h38.18.860","IAT(Formal)","2021.2.3","MacIntel",58.82352941,"",NA,"i",1,0.621,0,1,1,34,1,"暴躁","i","",NA,"",NA,NA,NA,NA,NA,NA,NA,"","","",NA,NA,NA,NA,NA,NA,"",NA,"",NA,NA,NA,NA,NA,NA,NA,"",NA,"",NA,NA,NA,NA,NA,NA,NA,"","","",NA,"",NA,NA,NA,NA,NA,NA,NA,"",NA,"37"
"",NA,"",NA,"",NA,NA,NA,NA,NA,NA,NA,"","",1,1,"2024-08-30_12h38.18.860","IAT(Formal)","2021.2.3","MacIntel",58.82352941,"",NA,"e",1,0.735,0,2,2,8,1,"勤奋","e","",NA,"",NA,NA,NA,NA,NA,NA,NA,"","","",NA,NA,NA,NA,NA,NA,"",NA,"",NA,NA,NA,NA,NA,NA,NA,"",NA,"",NA,NA,NA,NA,NA,NA,NA,"","","",NA,"",NA,NA,NA,NA,NA,NA,NA,"",NA,"37"
"",NA,"",NA,"",NA,NA,NA,NA,NA,NA,NA,"","",1,1,"2024-08-30_12h38.18.860","IAT(Formal)","2021.2.3","MacIntel",58.82352941,"",NA,"e",1,0.869,0,3,3,12,1,"无私","e","",NA,"",NA,NA,NA,NA,NA,NA,NA,"","","",NA,NA,NA,NA,NA,NA,"",NA,"",NA,NA,NA,NA,NA,NA,NA,"",NA,"",NA,NA,NA,NA,NA,NA,NA,"","","",NA,"",NA,NA,NA,NA,NA,NA,NA,"",NA,"37"
"",NA,"",NA,"",NA,NA,NA,NA,NA,NA,NA,"","",1,1,"2024-08-30_12h38.18.860","IAT(Formal)","2021.2.3","MacIntel",58.82352941,"",NA,"i",1,0.83,0,4,4,30,1,"执拗","i","",NA,"",NA,NA,NA,NA,NA,NA,NA,"","","",NA,NA,NA,NA,NA,NA,"",NA,"",NA,NA,NA,NA,NA,NA,NA,"",NA,"",NA,NA,NA,NA,NA,NA,NA,"","","",NA,"",NA,NA,NA,NA,NA,NA,NA,"",NA,"37"
"",NA,"",NA,"",NA,NA,NA,NA,NA,NA,NA,"","",1,1,"2024-08-30_12h38.18.860","IAT(Formal)","2021.2.3","MacIntel",58.82352941,"",NA,"i",1,0.717,0,5,5,35,1,"猖狂","i","",NA,"",NA,NA,NA,NA,NA,NA,NA,"","","",NA,NA,NA,NA,NA,NA,"",NA,"",NA,NA,NA,NA,NA,NA,NA,"",NA,"",NA,NA,NA,NA,NA,NA,NA,"","","",NA,"",NA,NA,NA,NA,NA,NA,NA,"",NA,"37"
"",NA,"",NA,"",NA,NA,NA,NA,NA,NA,NA,"","",1,1,"2024-08-30_12h38.18.860","IAT(Formal)","2021.2.3","MacIntel",58.82352941,"",NA,"i",1,0.627,0,6,6,28,1,"鲁莽","i","",NA,"",NA,NA,NA,NA,NA,NA,NA,"","","",NA,NA,NA,NA,NA,NA,"",NA,"",NA,NA,NA,NA,NA,NA,NA,"",NA,"",NA,NA,NA,NA,NA,NA,NA,"","","",NA,"",NA,NA,NA,NA,NA,NA,NA,"",NA,"37"
"",NA,"",NA,"",NA,NA,NA,NA,NA,NA,NA,"","",1,1,"2024-08-30_12h38.18.860","IAT(Formal)","2021.2.3","MacIntel",58.82352941,"",NA,"e",1,0.57,0,7,7,0,1,"优秀","e","",NA,"",NA,NA,NA,NA,NA,NA,NA,"","","",NA,NA,NA,NA,NA,NA,"",NA,"",NA,NA,NA,NA,NA,NA,NA,"",NA,"",NA,NA,NA,NA,NA,NA,NA,"","","",NA,"",NA,NA,NA,NA,NA,NA,NA,"",NA,"37"
"",NA,"",NA,"",NA,NA,NA,NA,NA,NA,NA,"","",1,1,"2024-08-30_12h38.18.860","IAT(Formal)","2021.2.3","MacIntel",58.82352941,"",NA,"e",1,0.819,0,8,8,11,1,"稳重","e","",NA,"",NA,NA,NA,NA,NA,NA,NA,"","","",NA,NA,NA,NA,NA,NA,"",NA,"",NA,NA,NA,NA,NA,NA,NA,"",NA,"",NA,NA,NA,NA,NA,NA,NA,"","","",NA,"",NA,NA,NA,NA,NA,NA,NA,"",NA,"37"
"",NA,"",NA,"",NA,NA,NA,NA,NA,NA,NA,"","",1,1,"2024-08-30_12h38.18.860","IAT(Formal)","2021.2.3","MacIntel",58.82352941,"",NA,"e",1,0.737,0,9,9,3,1,"杰出","e","",NA,"",NA,NA,NA,NA,NA,NA,NA,"","","",NA,NA,NA,NA,NA,NA,"",NA,"",NA,NA,NA,NA,NA,NA,NA,"",NA,"",NA,NA,NA,NA,NA,NA,NA,"","","",NA,"",NA,NA,NA,NA,NA,NA,NA,"",NA,"37"
"",NA,"",NA,"",NA,NA,NA,NA,NA,NA,NA,"","",1,1,"2024-08-30_12h38.18.860","IAT(Formal)","2021.2.3","MacIntel",58.82352941,"",NA,"i",1,0.635,0,10,10,25,1,"消极","i","",NA,"",NA,NA,NA,NA,NA,NA,NA,"","","",NA,NA,NA,NA,NA,NA,"",NA,"",NA,NA,NA,NA,NA,NA,NA,"",NA,"",NA,NA,NA,NA,NA,NA,NA,"","","",NA,"",NA,NA,NA,NA,NA,NA,NA,"",NA,"37"
"",NA,"",NA,"",NA,NA,NA,NA,NA,NA,NA,"","",1,1,"2024-08-30_12h38.18.860","IAT(Formal)","2021.2.3","MacIntel",58.82352941,"",NA,"e",1,0.698,0,11,11,7,1,"勇敢","e","",NA,"",NA,NA,NA,NA,NA,NA,NA,"","","",NA,NA,NA,NA,NA,NA,"",NA,"",NA,NA,NA,NA,NA,NA,NA,"",NA,"",NA,NA,NA,NA,NA,NA,NA,"","","",NA,"",NA,NA,NA,NA,NA,NA,NA,"",NA,"37"
"",NA,"",NA,"",NA,NA,NA,NA,NA,NA,NA,"","",1,1,"2024-08-30_12h38.18.860","IAT(Formal)","2021.2.3","MacIntel",58.82352941,"",NA,"i",1,0.789,0,12,12,31,1,"散漫","i","",NA,"",NA,NA,NA,NA,NA,NA,NA,"","","",NA,NA,NA,NA,NA,NA,"",NA,"",NA,NA,NA,NA,NA,NA,NA,"",NA,"",NA,NA,NA,NA,NA,NA,NA,"","","",NA,"",NA,NA,NA,NA,NA,NA,NA,"",NA,"37"
"",NA,"",NA,"",NA,NA,NA,NA,NA,NA,NA,"","",1,1,"2024-08-30_12h38.18.860","IAT(Formal)","2021.2.3","MacIntel",58.82352941,"",NA,"e",1,0.746,0,13,13,18,1,"活泼","e","",NA,"",NA,NA,NA,NA,NA,NA,NA,"","","",NA,NA,NA,NA,NA,NA,"",NA,"",NA,NA,NA,NA,NA,NA,NA,"",NA,"",NA,NA,NA,NA,NA,NA,NA,"","","",NA,"",NA,NA,NA,NA,NA,NA,NA,"",NA,"37"
"",NA,"",NA,"",NA,NA,NA,NA,NA,NA,NA,"","",1,1,"2024-08-30_12h38.18.860","IAT(Formal)","2021.2.3","MacIntel",58.82352941,"",NA,"i",1,0.765,0,14,14,37,1,"固执","i","",NA,"",NA,NA,NA,NA,NA,NA,NA,"","","",NA,NA,NA,NA,NA,NA,"",NA,"",NA,NA,NA,NA,NA,NA,NA,"",NA,"",NA,NA,NA,NA,NA,NA,NA,"","","",NA,"",NA,NA,NA,NA,NA,NA,NA,"",NA,"37"
"",NA,"",NA,"",NA,NA,NA,NA,NA,NA,NA,"","",1,1,"2024-08-30_12h38.18.860","IAT(Formal)","2021.2.3","MacIntel",58.82352941,"",NA,"e",1,0.7,0,15,15,6,1,"正直","e","",NA,"",NA,NA,NA,NA,NA,NA,NA,"","","",NA,NA,NA,NA,NA,NA,"",NA,"",NA,NA,NA,NA,NA,NA,NA,"",NA,"",NA,NA,NA,NA,NA,NA,NA,"","","",NA,"",NA,NA,NA,NA,NA,NA,NA,"",NA,"37"
"",NA,"",NA,"",NA,NA,NA,NA,NA,NA,NA,"","",1,1,"2024-08-30_12h38.18.860","IAT(Formal)","2021.2.3","MacIntel",58.82352941,"",NA,"i",1,0.662,0,16,16,29,1,"冒失","i","",NA,"",NA,NA,NA,NA,NA,NA,NA,"","","",NA,NA,NA,NA,NA,NA,"",NA,"",NA,NA,NA,NA,NA,NA,NA,"",NA,"",NA,NA,NA,NA,NA,NA,NA,"","","",NA,"",NA,NA,NA,NA,NA,NA,NA,"",NA,"37"
"",NA,"",NA,"",NA,NA,NA,NA,NA,NA,NA,"","",1,1,"2024-08-30_12h38.18.860","IAT(Formal)","2021.2.3","MacIntel",58.82352941,"",NA,"e",1,0.816,0,17,17,17,1,"热情","e","",NA,"",NA,NA,NA,NA,NA,NA,NA,"","","",NA,NA,NA,NA,NA,NA,"",NA,"",NA,NA,NA,NA,NA,NA,NA,"",NA,"",NA,NA,NA,NA,NA,NA,NA,"","","",NA,"",NA,NA,NA,NA,NA,NA,NA,"",NA,"37"
"",NA,"",NA,"",NA,NA,NA,NA,NA,NA,NA,"","",1,1,"2024-08-30_12h38.18.860","IAT(Formal)","2021.2.3","MacIntel",58.82352941,"",NA,"i",1,0.747,0,18,18,23,1,"刻薄","i","",NA,"",NA,NA,NA,NA,NA,NA,NA,"","","",NA,NA,NA,NA,NA,NA,"",NA,"",NA,NA,NA,NA,NA,NA,NA,"",NA,"",NA,NA,NA,NA,NA,NA,NA,"","","",NA,"",NA,NA,NA,NA,NA,NA,NA,"",NA,"37"
"",NA,"",NA,"",NA,NA,NA,NA,NA,NA,NA,"","",1,1,"2024-08-30_12h38.18.860","IAT(Formal)","2021.2.3","MacIntel",58.82352941,"",NA,"i",1,0.79,0,19,19,33,1,"自私","i","",NA,"",NA,NA,NA,NA,NA,NA,NA,"","","",NA,NA,NA,NA,NA,NA,"",NA,"",NA,NA,NA,NA,NA,NA,NA,"",NA,"",NA,NA,NA,NA,NA,NA,NA,"","","",NA,"",NA,NA,NA,NA,NA,NA,NA,"",NA,"37"
"",NA,"",NA,"",NA,NA,NA,NA,NA,NA,NA,"","",1,1,"2024-08-30_12h38.18.860","IAT(Formal)","2021.2.3","MacIntel",58.82352941,"",NA,"i",1,0.953,0,20,20,38,1,"轻率","i","",NA,"",NA,NA,NA,NA,NA,NA,NA,"","","",NA,NA,NA,NA,NA,NA,"",NA,"",NA,NA,NA,NA,NA,NA,NA,"",NA,"",NA,NA,NA,NA,NA,NA,NA,"","","",NA,"",NA,NA,NA,NA,NA,NA,NA,"",NA,"37"
"",NA,"",NA,"",NA,NA,NA,NA,NA,NA,NA,"","",1,1,"2024-08-30_12h38.18.860","IAT(Formal)","2021.2.3","MacIntel",58.82352941,"",NA,"i",1,0.655,0,21,21,27,1,"傲慢","i","",NA,"",NA,NA,NA,NA,NA,NA,NA,"","","",NA,NA,NA,NA,NA,NA,"",NA,"",NA,NA,NA,NA,NA,NA,NA,"",NA,"",NA,NA,NA,NA,NA,NA,NA,"","","",NA,"",NA,NA,NA,NA,NA,NA,NA,"",NA,"37"
"",NA,"",NA,"",NA,NA,NA,NA,NA,NA,NA,"","",1,1,"2024-08-30_12h38.18.860","IAT(Formal)","2021.2.3","MacIntel",58.82352941,"",NA,"e",1,0.681,0,22,22,14,1,"朴实","e","",NA,"",NA,NA,NA,NA,NA,NA,NA,"","","",NA,NA,NA,NA,NA,NA,"",NA,"",NA,NA,NA,NA,NA,NA,NA,"",NA,"",NA,NA,NA,NA,NA,NA,NA,"","","",NA,"",NA,NA,NA,NA,NA,NA,NA,"",NA,"37"
"",NA,"",NA,"",NA,NA,NA,NA,NA,NA,NA,"","",1,1,"2024-08-30_12h38.18.860","IAT(Formal)","2021.2.3","MacIntel",58.82352941,"",NA,"i",1,0.714,0,23,23,22,1,"愚蠢","i","",NA,"",NA,NA,NA,NA,NA,NA,NA,"","","",NA,NA,NA,NA,NA,NA,"",NA,"",NA,NA,NA,NA,NA,NA,NA,"",NA,"",NA,NA,NA,NA,NA,NA,NA,"","","",NA,"",NA,NA,NA,NA,NA,NA,NA,"",NA,"37"
"",NA,"",NA,"",NA,NA,NA,NA,NA,NA,NA,"","",1,1,"2024-08-30_12h38.18.860","IAT(Formal)","2021.2.3","MacIntel",58.82352941,"",NA,"e",1,0.719,0,24,24,15,1,"细腻","e","",NA,"",NA,NA,NA,NA,NA,NA,NA,"","","",NA,NA,NA,NA,NA,NA,"",NA,"",NA,NA,NA,NA,NA,NA,NA,"",NA,"",NA,NA,NA,NA,NA,NA,NA,"","","",NA,"",NA,NA,NA,NA,NA,NA,NA,"",NA,"37"
"",NA,"",NA,"",NA,NA,NA,NA,NA,NA,NA,"","",1,1,"2024-08-30_12h38.18.860","IAT(Formal)","2021.2.3","MacIntel",58.82352941,"",NA,"i",1,0.681,0,25,25,20,1,"卑鄙","i","",NA,"",NA,NA,NA,NA,NA,NA,NA,"","","",NA,NA,NA,NA,NA,NA,"",NA,"",NA,NA,NA,NA,NA,NA,NA,"",NA,"",NA,NA,NA,NA,NA,NA,NA,"","","",NA,"",NA,NA,NA,NA,NA,NA,NA,"",NA,"37"
"",NA,"",NA,"",NA,NA,NA,NA,NA,NA,NA,"","",1,1,"2024-08-30_12h38.18.860","IAT(Formal)","2021.2.3","MacIntel",58.82352941,"",NA,"e",1,0.783,0,26,26,19,1,"诚恳","e","",NA,"",NA,NA,NA,NA,NA,NA,NA,"","","",NA,NA,NA,NA,NA,NA,"",NA,"",NA,NA,NA,NA,NA,NA,NA,"",NA,"",NA,NA,NA,NA,NA,NA,NA,"","","",NA,"",NA,NA,NA,NA,NA,NA,NA,"",NA,"37"
"",NA,"",NA,"",NA,NA,NA,NA,NA,NA,NA,"","",1,1,"2024-08-30_12h38.18.860","IAT(Formal)","2021.2.3","MacIntel",58.82352941,"",NA,"e",1,0.703,0,27,27,5,1,"诚实","e","",NA,"",NA,NA,NA,NA,NA,NA,NA,"","","",NA,NA,NA,NA,NA,NA,"",NA,"",NA,NA,NA,NA,NA,NA,NA,"",NA,"",NA,NA,NA,NA,NA,NA,NA,"","","",NA,"",NA,NA,NA,NA,NA,NA,NA,"",NA,"37"
"",NA,"",NA,"",NA,NA,NA,NA,NA,NA,NA,"","",1,1,"2024-08-30_12h38.18.860","IAT(Formal)","2021.2.3","MacIntel",58.82352941,"",NA,"e",1,1.422,0,28,28,16,1,"冷静","e","",NA,"",NA,NA,NA,NA,NA,NA,NA,"","","",NA,NA,NA,NA,NA,NA,"",NA,"",NA,NA,NA,NA,NA,NA,NA,"",NA,"",NA,NA,NA,NA,NA,NA,NA,"","","",NA,"",NA,NA,NA,NA,NA,NA,NA,"",NA,"37"
"",NA,"",NA,"",NA,NA,NA,NA,NA,NA,NA,"","",1,1,"2024-08-30_12h38.18.860","IAT(Formal)","2021.2.3","MacIntel",58.82352941,"",NA,"e",1,0.655,0,29,29,4,1,"乐观","e","",NA,"",NA,NA,NA,NA,NA,NA,NA,"","","",NA,NA,NA,NA,NA,NA,"",NA,"",NA,NA,NA,NA,NA,NA,NA,"",NA,"",NA,NA,NA,NA,NA,NA,NA,"","","",NA,"",NA,NA,NA,NA,NA,NA,NA,"",NA,"37"
"",NA,"",NA,"",NA,NA,NA,NA,NA,NA,NA,"","",1,1,"2024-08-30_12h38.18.860","IAT(Formal)","2021.2.3","MacIntel",58.82352941,"",NA,"i",1,0.652,0,30,30,24,1,"悲观","i","",NA,"",NA,NA,NA,NA,NA,NA,NA,"","","",NA,NA,NA,NA,NA,NA,"",NA,"",NA,NA,NA,NA,NA,NA,NA,"",NA,"",NA,NA,NA,NA,NA,NA,NA,"","","",NA,"",NA,NA,NA,NA,NA,NA,NA,"",NA,"37"
"",NA,"",NA,"",NA,NA,NA,NA,NA,NA,NA,"","",1,1,"2024-08-30_12h38.18.860","IAT(Formal)","2021.2.3","MacIntel",58.82352941,"",NA,"i",1,0.619,0,31,31,21,1,"虚伪","i","",NA,"",NA,NA,NA,NA,NA,NA,NA,"","","",NA,NA,NA,NA,NA,NA,"",NA,"",NA,NA,NA,NA,NA,NA,NA,"",NA,"",NA,NA,NA,NA,NA,NA,NA,"","","",NA,"",NA,NA,NA,NA,NA,NA,NA,"",NA,"37"
"",NA,"",NA,"",NA,NA,NA,NA,NA,NA,NA,"","",1,1,"2024-08-30_12h38.18.860","IAT(Formal)","2021.2.3","MacIntel",58.82352941,"",NA,"e",1,0.668,0,32,32,2,1,"聪明","e","",NA,"",NA,NA,NA,NA,NA,NA,NA,"","","",NA,NA,NA,NA,NA,NA,"",NA,"",NA,NA,NA,NA,NA,NA,NA,"",NA,"",NA,NA,NA,NA,NA,NA,NA,"","","",NA,"",NA,NA,NA,NA,NA,NA,NA,"",NA,"37"
"",NA,"",NA,"",NA,NA,NA,NA,NA,NA,NA,"","",1,1,"2024-08-30_12h38.18.860","IAT(Formal)","2021.2.3","MacIntel",58.82352941,"",NA,"e",1,0.797,0,33,33,1,1,"崇高","e","",NA,"",NA,NA,NA,NA,NA,NA,NA,"","","",NA,NA,NA,NA,NA,NA,"",NA,"",NA,NA,NA,NA,NA,NA,NA,"",NA,"",NA,NA,NA,NA,NA,NA,NA,"","","",NA,"",NA,NA,NA,NA,NA,NA,NA,"",NA,"37"
"",NA,"",NA,"",NA,NA,NA,NA,NA,NA,NA,"","",1,1,"2024-08-30_12h38.18.860","IAT(Formal)","2021.2.3","MacIntel",58.82352941,"",NA,"e",1,0.817,0,34,34,13,1,"公正","e","",NA,"",NA,NA,NA,NA,NA,NA,NA,"","","",NA,NA,NA,NA,NA,NA,"",NA,"",NA,NA,NA,NA,NA,NA,NA,"",NA,"",NA,NA,NA,NA,NA,NA,NA,"","","",NA,"",NA,NA,NA,NA,NA,NA,NA,"",NA,"37"
"",NA,"",NA,"",NA,NA,NA,NA,NA,NA,NA,"","",1,1,"2024-08-30_12h38.18.860","IAT(Formal)","2021.2.3","MacIntel",58.82352941,"",NA,"e",1,0.703,0,35,35,9,1,"机智","e","",NA,"",NA,NA,NA,NA,NA,NA,NA,"","","",NA,NA,NA,NA,NA,NA,"",NA,"",NA,NA,NA,NA,NA,NA,NA,"",NA,"",NA,NA,NA,NA,NA,NA,NA,"","","",NA,"",NA,NA,NA,NA,NA,NA,NA,"",NA,"37"
"",NA,"",NA,"",NA,NA,NA,NA,NA,NA,NA,"","",1,1,"2024-08-30_12h38.18.860","IAT(Formal)","2021.2.3","MacIntel",58.82352941,"",NA,"i",1,0.647,0,36,36,39,1,"下贱","i","",NA,"",NA,NA,NA,NA,NA,NA,NA,"","","",NA,NA,NA,NA,NA,NA,"",NA,"",NA,NA,NA,NA,NA,NA,NA,"",NA,"",NA,NA,NA,NA,NA,NA,NA,"","","",NA,"",NA,NA,NA,NA,NA,NA,NA,"",NA,"37"
"",NA,"",NA,"",NA,NA,NA,NA,NA,NA,NA,"","",1,1,"2024-08-30_12h38.18.860","IAT(Formal)","2021.2.3","MacIntel",58.82352941,"",NA,"i",1,0.662,0,37,37,36,1,"野蛮","i","",NA,"",NA,NA,NA,NA,NA,NA,NA,"","","",NA,NA,NA,NA,NA,NA,"",NA,"",NA,NA,NA,NA,NA,NA,NA,"",NA,"",NA,NA,NA,NA,NA,NA,NA,"","","",NA,"",NA,NA,NA,NA,NA,NA,NA,"",NA,"37"
"",NA,"",NA,"",NA,NA,NA,NA,NA,NA,NA,"","",1,1,"2024-08-30_12h38.18.860","IAT(Formal)","2021.2.3","MacIntel",58.82352941,"",NA,"i",1,0.697,0,38,38,32,1,"凶狠","i","",NA,"",NA,NA,NA,NA,NA,NA,NA,"","","",NA,NA,NA,NA,NA,NA,"",NA,"",NA,NA,NA,NA,NA,NA,NA,"",NA,"",NA,NA,NA,NA,NA,NA,NA,"","","",NA,"",NA,NA,NA,NA,NA,NA,NA,"",NA,"37"
"",NA,"",NA,"",NA,NA,NA,NA,NA,NA,NA,"","",1,1,"2024-08-30_12h38.18.860","IAT(Formal)","2021.2.3","MacIntel",58.82352941,"",NA,"i",1,0.866,0,39,39,26,1,"自卑","i","",NA,"",NA,NA,NA,NA,NA,NA,NA,"","","",NA,NA,NA,NA,NA,NA,"",NA,"",NA,NA,NA,NA,NA,NA,NA,"",NA,"",NA,NA,NA,NA,NA,NA,NA,"","","",NA,"",NA,NA,NA,NA,NA,NA,NA,"",NA,"37"
"",NA,"",NA,"",NA,NA,NA,NA,NA,NA,NA,"","",1,1,"2024-08-30_12h38.18.860","IAT(Formal)","2021.2.3","MacIntel",58.82352941,"",NA,"",NA,NA,NA,NA,NA,NA,NA,"","","space",5.495,"i",1,0.85,0,0,0,8,1,"他人","i","",NA,NA,NA,NA,NA,NA,"",NA,"",NA,NA,NA,NA,NA,NA,NA,"",NA,"",NA,NA,NA,NA,NA,NA,NA,"","","",NA,"",NA,NA,NA,NA,NA,NA,NA,"",NA,"37"
"",NA,"",NA,"",NA,NA,NA,NA,NA,NA,NA,"","",1,1,"2024-08-30_12h38.18.860","IAT(Formal)","2021.2.3","MacIntel",58.82352941,"",NA,"",NA,NA,NA,NA,NA,NA,NA,"","","",NA,"i",1,0.785,0,1,1,39,1,"冒失","i","",NA,NA,NA,NA,NA,NA,"",NA,"",NA,NA,NA,NA,NA,NA,NA,"",NA,"",NA,NA,NA,NA,NA,NA,NA,"","","",NA,"",NA,NA,NA,NA,NA,NA,NA,"",NA,"37"
"",NA,"",NA,"",NA,NA,NA,NA,NA,NA,NA,"","",1,1,"2024-08-30_12h38.18.860","IAT(Formal)","2021.2.3","MacIntel",58.82352941,"",NA,"",NA,NA,NA,NA,NA,NA,NA,"","","",NA,"e",1,0.684,0,2,2,53,1,"自己","e","",NA,NA,NA,NA,NA,NA,"",NA,"",NA,NA,NA,NA,NA,NA,NA,"",NA,"",NA,NA,NA,NA,NA,NA,NA,"","","",NA,"",NA,NA,NA,NA,NA,NA,NA,"",NA,"37"
"",NA,"",NA,"",NA,NA,NA,NA,NA,NA,NA,"","",1,1,"2024-08-30_12h38.18.860","IAT(Formal)","2021.2.3","MacIntel",58.82352941,"",NA,"",NA,NA,NA,NA,NA,NA,NA,"","","",NA,"i",1,0.718,0,3,3,32,1,"愚蠢","i","",NA,NA,NA,NA,NA,NA,"",NA,"",NA,NA,NA,NA,NA,NA,NA,"",NA,"",NA,NA,NA,NA,NA,NA,NA,"","","",NA,"",NA,NA,NA,NA,NA,NA,NA,"",NA,"37"
"",NA,"",NA,"",NA,NA,NA,NA,NA,NA,NA,"","",1,1,"2024-08-30_12h38.18.860","IAT(Formal)","2021.2.3","MacIntel",58.82352941,"",NA,"",NA,NA,NA,NA,NA,NA,NA,"","","",NA,"i",1,0.839,0,4,4,40,1,"执拗","i","",NA,NA,NA,NA,NA,NA,"",NA,"",NA,NA,NA,NA,NA,NA,NA,"",NA,"",NA,NA,NA,NA,NA,NA,NA,"","","",NA,"",NA,NA,NA,NA,NA,NA,NA,"",NA,"37"
"",NA,"",NA,"",NA,NA,NA,NA,NA,NA,NA,"","",1,1,"2024-08-30_12h38.18.860","IAT(Formal)","2021.2.3","MacIntel",58.82352941,"",NA,"",NA,NA,NA,NA,NA,NA,NA,"","","",NA,"i",1,0.715,0,5,5,69,1,"其他","i","",NA,NA,NA,NA,NA,NA,"",NA,"",NA,NA,NA,NA,NA,NA,NA,"",NA,"",NA,NA,NA,NA,NA,NA,NA,"","","",NA,"",NA,NA,NA,NA,NA,NA,NA,"",NA,"37"
"",NA,"",NA,"",NA,NA,NA,NA,NA,NA,NA,"","",1,1,"2024-08-30_12h38.18.860","IAT(Formal)","2021.2.3","MacIntel",58.82352941,"",NA,"",NA,NA,NA,NA,NA,NA,NA,"","","",NA,"i",1,0.689,0,6,6,65,1,"他","i","",NA,NA,NA,NA,NA,NA,"",NA,"",NA,NA,NA,NA,NA,NA,NA,"",NA,"",NA,NA,NA,NA,NA,NA,NA,"","","",NA,"",NA,NA,NA,NA,NA,NA,NA,"",NA,"37"
"",NA,"",NA,"",NA,NA,NA,NA,NA,NA,NA,"","",1,1,"2024-08-30_12h38.18.860","IAT(Formal)","2021.2.3","MacIntel",58.82352941,"",NA,"",NA,NA,NA,NA,NA,NA,NA,"","","",NA,"i",1,0.683,0,7,7,68,1,"他人","i","",NA,NA,NA,NA,NA,NA,"",NA,"",NA,NA,NA,NA,NA,NA,NA,"",NA,"",NA,NA,NA,NA,NA,NA,NA,"","","",NA,"",NA,NA,NA,NA,NA,NA,NA,"",NA,"37"
"",NA,"",NA,"",NA,NA,NA,NA,NA,NA,NA,"","",1,1,"2024-08-30_12h38.18.860","IAT(Formal)","2021.2.3","MacIntel",58.82352941,"",NA,"",NA,NA,NA,NA,NA,NA,NA,"","","",NA,"e",1,0.715,0,8,8,70,1,"我","e","",NA,NA,NA,NA,NA,NA,"",NA,"",NA,NA,NA,NA,NA,NA,NA,"",NA,"",NA,NA,NA,NA,NA,NA,NA,"","","",NA,"",NA,NA,NA,NA,NA,NA,NA,"",NA,"37"
"",NA,"",NA,"",NA,NA,NA,NA,NA,NA,NA,"","",1,1,"2024-08-30_12h38.18.860","IAT(Formal)","2021.2.3","MacIntel",58.82352941,"",NA,"",NA,NA,NA,NA,NA,NA,NA,"","","",NA,"i",1,0.78,0,9,9,45,1,"猖狂","i","",NA,NA,NA,NA,NA,NA,"",NA,"",NA,NA,NA,NA,NA,NA,NA,"",NA,"",NA,NA,NA,NA,NA,NA,NA,"","","",NA,"",NA,NA,NA,NA,NA,NA,NA,"",NA,"37"
"",NA,"",NA,"",NA,NA,NA,NA,NA,NA,NA,"","",1,1,"2024-08-30_12h38.18.860","IAT(Formal)","2021.2.3","MacIntel",58.82352941,"",NA,"",NA,NA,NA,NA,NA,NA,NA,"","","",NA,"e",1,0.686,0,10,10,71,1,"我的","e","",NA,NA,NA,NA,NA,NA,"",NA,"",NA,NA,NA,NA,NA,NA,NA,"",NA,"",NA,NA,NA,NA,NA,NA,NA,"","","",NA,"",NA,NA,NA,NA,NA,NA,NA,"",NA,"37"
"",NA,"",NA,"",NA,NA,NA,NA,NA,NA,NA,"","",1,1,"2024-08-30_12h38.18.860","IAT(Formal)","2021.2.3","MacIntel",58.82352941,"",NA,"",NA,NA,NA,NA,NA,NA,NA,"","","",NA,"i",1,1.285,0,11,11,37,1,"傲慢","i","",NA,NA,NA,NA,NA,NA,"",NA,"",NA,NA,NA,NA,NA,NA,NA,"",NA,"",NA,NA,NA,NA,NA,NA,NA,"","","",NA,"",NA,NA,NA,NA,NA,NA,NA,"",NA,"37"
"",NA,"",NA,"",NA,NA,NA,NA,NA,NA,NA,"","",1,1,"2024-08-30_12h38.18.860","IAT(Formal)","2021.2.3","MacIntel",58.82352941,"",NA,"",NA,NA,NA,NA,NA,NA,NA,"","","",NA,"e",1,0.921,0,12,12,3,1,"自己","e","",NA,NA,NA,NA,NA,NA,"",NA,"",NA,NA,NA,NA,NA,NA,NA,"",NA,"",NA,NA,NA,NA,NA,NA,NA,"","","",NA,"",NA,NA,NA,NA,NA,NA,NA,"",NA,"37"
"",NA,"",NA,"",NA,NA,NA,NA,NA,NA,NA,"","",1,1,"2024-08-30_12h38.18.860","IAT(Formal)","2021.2.3","MacIntel",58.82352941,"",NA,"",NA,NA,NA,NA,NA,NA,NA,"","","",NA,"e",1,1.367,0,13,13,16,1,"正直","e","",NA,NA,NA,NA,NA,NA,"",NA,"",NA,NA,NA,NA,NA,NA,NA,"",NA,"",NA,NA,NA,NA,NA,NA,NA,"","","",NA,"",NA,NA,NA,NA,NA,NA,NA,"",NA,"37"
"",NA,"",NA,"",NA,NA,NA,NA,NA,NA,NA,"","",1,1,"2024-08-30_12h38.18.860","IAT(Formal)","2021.2.3","MacIntel",58.82352941,"",NA,"",NA,NA,NA,NA,NA,NA,NA,"","","",NA,"e",1,0.833,0,14,14,64,1,"俺","e","",NA,NA,NA,NA,NA,NA,"",NA,"",NA,NA,NA,NA,NA,NA,NA,"",NA,"",NA,NA,NA,NA,NA,NA,NA,"","","",NA,"",NA,NA,NA,NA,NA,NA,NA,"",NA,"37"
"",NA,"",NA,"",NA,NA,NA,NA,NA,NA,NA,"","",1,1,"2024-08-30_12h38.18.860","IAT(Formal)","2021.2.3","MacIntel",58.82352941,"",NA,"",NA,NA,NA,NA,NA,NA,NA,"","","",NA,"i",1,1.082,0,15,15,41,1,"散漫","i","",NA,NA,NA,NA,NA,NA,"",NA,"",NA,NA,NA,NA,NA,NA,NA,"",NA,"",NA,NA,NA,NA,NA,NA,NA,"","","",NA,"",NA,NA,NA,NA,NA,NA,NA,"",NA,"37"
"",NA,"",NA,"",NA,NA,NA,NA,NA,NA,NA,"","",1,1,"2024-08-30_12h38.18.860","IAT(Formal)","2021.2.3","MacIntel",58.82352941,"",NA,"",NA,NA,NA,NA,NA,NA,NA,"","","",NA,"i",1,0.899,0,16,16,76,1,"他们","i","",NA,NA,NA,NA,NA,NA,"",NA,"",NA,NA,NA,NA,NA,NA,NA,"",NA,"",NA,NA,NA,NA,NA,NA,NA,"","","",NA,"",NA,NA,NA,NA,NA,NA,NA,"",NA,"37"
"",NA,"",NA,"",NA,NA,NA,NA,NA,NA,NA,"","",1,1,"2024-08-30_12h38.18.860","IAT(Formal)","2021.2.3","MacIntel",58.82352941,"",NA,"",NA,NA,NA,NA,NA,NA,NA,"","","",NA,"i",1,0.801,0,17,17,78,1,"他人","i","",NA,NA,NA,NA,NA,NA,"",NA,"",NA,NA,NA,NA,NA,NA,NA,"",NA,"",NA,NA,NA,NA,NA,NA,NA,"","","",NA,"",NA,NA,NA,NA,NA,NA,NA,"",NA,"37"
"",NA,"",NA,"",NA,NA,NA,NA,NA,NA,NA,"","",1,1,"2024-08-30_12h38.18.860","IAT(Formal)","2021.2.3","MacIntel",58.82352941,"",NA,"",NA,NA,NA,NA,NA,NA,NA,"","","",NA,"i",1,0.922,0,18,18,48,1,"轻率","i","",NA,NA,NA,NA,NA,NA,"",NA,"",NA,NA,NA,NA,NA,NA,NA,"",NA,"",NA,NA,NA,NA,NA,NA,NA,"","","",NA,"",NA,NA,NA,NA,NA,NA,NA,"",NA,"37"
"",NA,"",NA,"",NA,NA,NA,NA,NA,NA,NA,"","",1,1,"2024-08-30_12h38.18.860","IAT(Formal)","2021.2.3","MacIntel",58.82352941,"",NA,"",NA,NA,NA,NA,NA,NA,NA,"","","",NA,"e",1,0.789,0,19,19,27,1,"热情","e","",NA,NA,NA,NA,NA,NA,"",NA,"",NA,NA,NA,NA,NA,NA,NA,"",NA,"",NA,NA,NA,NA,NA,NA,NA,"","","",NA,"",NA,NA,NA,NA,NA,NA,NA,"",NA,"37"
"",NA,"",NA,"",NA,NA,NA,NA,NA,NA,NA,"","",1,1,"2024-08-30_12h38.18.860","IAT(Formal)","2021.2.3","MacIntel",58.82352941,"",NA,"",NA,NA,NA,NA,NA,NA,NA,"","","",NA,"e",1,0.768,0,20,20,61,1,"我的","e","",NA,NA,NA,NA,NA,NA,"",NA,"",NA,NA,NA,NA,NA,NA,NA,"",NA,"",NA,NA,NA,NA,NA,NA,NA,"","","",NA,"",NA,NA,NA,NA,NA,NA,NA,"",NA,"37"
"",NA,"",NA,"",NA,NA,NA,NA,NA,NA,NA,"","",1,1,"2024-08-30_12h38.18.860","IAT(Formal)","2021.2.3","MacIntel",58.82352941,"",NA,"",NA,NA,NA,NA,NA,NA,NA,"","","",NA,"i",1,0.867,0,21,21,5,1,"他","i","",NA,NA,NA,NA,NA,NA,"",NA,"",NA,NA,NA,NA,NA,NA,NA,"",NA,"",NA,NA,NA,NA,NA,NA,NA,"","","",NA,"",NA,NA,NA,NA,NA,NA,NA,"",NA,"37"
"",NA,"",NA,"",NA,NA,NA,NA,NA,NA,NA,"","",1,1,"2024-08-30_12h38.18.860","IAT(Formal)","2021.2.3","MacIntel",58.82352941,"",NA,"",NA,NA,NA,NA,NA,NA,NA,"","","",NA,"e",1,0.838,0,22,22,50,1,"我","e","",NA,NA,NA,NA,NA,NA,"",NA,"",NA,NA,NA,NA,NA,NA,NA,"",NA,"",NA,NA,NA,NA,NA,NA,NA,"","","",NA,"",NA,NA,NA,NA,NA,NA,NA,"",NA,"37"
"",NA,"",NA,"",NA,NA,NA,NA,NA,NA,NA,"","",1,1,"2024-08-30_12h38.18.860","IAT(Formal)","2021.2.3","MacIntel",58.82352941,"",NA,"",NA,NA,NA,NA,NA,NA,NA,"","","",NA,"e",1,0.756,0,23,23,17,1,"勇敢","e","",NA,NA,NA,NA,NA,NA,"",NA,"",NA,NA,NA,NA,NA,NA,NA,"",NA,"",NA,NA,NA,NA,NA,NA,NA,"","","",NA,"",NA,NA,NA,NA,NA,NA,NA,"",NA,"37"
"",NA,"",NA,"",NA,NA,NA,NA,NA,NA,NA,"","",1,1,"2024-08-30_12h38.18.860","IAT(Formal)","2021.2.3","MacIntel",58.82352941,"",NA,"",NA,NA,NA,NA,NA,NA,NA,"","","",NA,"e",1,0.769,0,24,24,14,1,"乐观","e","",NA,NA,NA,NA,NA,NA,"",NA,"",NA,NA,NA,NA,NA,NA,NA,"",NA,"",NA,NA,NA,NA,NA,NA,NA,"","","",NA,"",NA,NA,NA,NA,NA,NA,NA,"",NA,"37"
"",NA,"",NA,"",NA,NA,NA,NA,NA,NA,NA,"","",1,1,"2024-08-30_12h38.18.860","IAT(Formal)","2021.2.3","MacIntel",58.82352941,"",NA,"",NA,NA,NA,NA,NA,NA,NA,"","","",NA,"e",1,0.663,0,25,25,62,1,"我们","e","",NA,NA,NA,NA,NA,NA,"",NA,"",NA,NA,NA,NA,NA,NA,NA,"",NA,"",NA,NA,NA,NA,NA,NA,NA,"","","",NA,"",NA,NA,NA,NA,NA,NA,NA,"",NA,"37"
"",NA,"",NA,"",NA,NA,NA,NA,NA,NA,NA,"","",1,1,"2024-08-30_12h38.18.860","IAT(Formal)","2021.2.3","MacIntel",58.82352941,"",NA,"",NA,NA,NA,NA,NA,NA,NA,"","","",NA,"e",1,0.816,0,26,26,74,1,"俺","e","",NA,NA,NA,NA,NA,NA,"",NA,"",NA,NA,NA,NA,NA,NA,NA,"",NA,"",NA,NA,NA,NA,NA,NA,NA,"","","",NA,"",NA,NA,NA,NA,NA,NA,NA,"",NA,"37"
"",NA,"",NA,"",NA,NA,NA,NA,NA,NA,NA,"","",1,1,"2024-08-30_12h38.18.860","IAT(Formal)","2021.2.3","MacIntel",58.82352941,"",NA,"",NA,NA,NA,NA,NA,NA,NA,"","","",NA,"e",1,0.699,0,27,27,0,1,"我","e","",NA,NA,NA,NA,NA,NA,"",NA,"",NA,NA,NA,NA,NA,NA,NA,"",NA,"",NA,NA,NA,NA,NA,NA,NA,"","","",NA,"",NA,NA,NA,NA,NA,NA,NA,"",NA,"37"
"",NA,"",NA,"",NA,NA,NA,NA,NA,NA,NA,"","",1,1,"2024-08-30_12h38.18.860","IAT(Formal)","2021.2.3","MacIntel",58.82352941,"",NA,"",NA,NA,NA,NA,NA,NA,NA,"","","",NA,"e",1,0.734,0,28,28,24,1,"朴实","e","",NA,NA,NA,NA,NA,NA,"",NA,"",NA,NA,NA,NA,NA,NA,NA,"",NA,"",NA,NA,NA,NA,NA,NA,NA,"","","",NA,"",NA,NA,NA,NA,NA,NA,NA,"",NA,"37"
"",NA,"",NA,"",NA,NA,NA,NA,NA,NA,NA,"","",1,1,"2024-08-30_12h38.18.860","IAT(Formal)","2021.2.3","MacIntel",58.82352941,"",NA,"",NA,NA,NA,NA,NA,NA,NA,"","","",NA,"i",1,0.701,0,29,29,34,1,"悲观","i","",NA,NA,NA,NA,NA,NA,"",NA,"",NA,NA,NA,NA,NA,NA,NA,"",NA,"",NA,NA,NA,NA,NA,NA,NA,"","","",NA,"",NA,NA,NA,NA,NA,NA,NA,"",NA,"37"
"",NA,"",NA,"",NA,NA,NA,NA,NA,NA,NA,"","",1,1,"2024-08-30_12h38.18.860","IAT(Formal)","2021.2.3","MacIntel",58.82352941,"",NA,"",NA,NA,NA,NA,NA,NA,NA,"","","",NA,"e",1,0.867,0,30,30,15,1,"诚实","e","",NA,NA,NA,NA,NA,NA,"",NA,"",NA,NA,NA,NA,NA,NA,NA,"",NA,"",NA,NA,NA,NA,NA,NA,NA,"","","",NA,"",NA,NA,NA,NA,NA,NA,NA,"",NA,"37"
"",NA,"",NA,"",NA,NA,NA,NA,NA,NA,NA,"","",1,1,"2024-08-30_12h38.18.860","IAT(Formal)","2021.2.3","MacIntel",58.82352941,"",NA,"",NA,NA,NA,NA,NA,NA,NA,"","","",NA,"i",1,1.029,0,31,31,31,1,"虚伪","i","",NA,NA,NA,NA,NA,NA,"",NA,"",NA,NA,NA,NA,NA,NA,NA,"",NA,"",NA,NA,NA,NA,NA,NA,NA,"","","",NA,"",NA,NA,NA,NA,NA,NA,NA,"",NA,"37"
"",NA,"",NA,"",NA,NA,NA,NA,NA,NA,NA,"","",1,1,"2024-08-30_12h38.18.860","IAT(Formal)","2021.2.3","MacIntel",58.82352941,"",NA,"",NA,NA,NA,NA,NA,NA,NA,"","","",NA,"i",1,0.936,0,32,32,58,1,"他人","i","",NA,NA,NA,NA,NA,NA,"",NA,"",NA,NA,NA,NA,NA,NA,NA,"",NA,"",NA,NA,NA,NA,NA,NA,NA,"","","",NA,"",NA,NA,NA,NA,NA,NA,NA,"",NA,"37"
"",NA,"",NA,"",NA,NA,NA,NA,NA,NA,NA,"","",1,1,"2024-08-30_12h38.18.860","IAT(Formal)","2021.2.3","MacIntel",58.82352941,"",NA,"",NA,NA,NA,NA,NA,NA,NA,"","","",NA,"",0,NA,0,33,33,60,1,"我","e","",NA,NA,NA,NA,NA,NA,"",NA,"",NA,NA,NA,NA,NA,NA,NA,"",NA,"",NA,NA,NA,NA,NA,NA,NA,"","","",NA,"",NA,NA,NA,NA,NA,NA,NA,"",NA,"37"
"",NA,"",NA,"",NA,NA,NA,NA,NA,NA,NA,"","",1,1,"2024-08-30_12h38.18.860","IAT(Formal)","2021.2.3","MacIntel",58.82352941,"",NA,"",NA,NA,NA,NA,NA,NA,NA,"","","",NA,"i",1,0.8,0,34,34,66,1,"他们","i","",NA,NA,NA,NA,NA,NA,"",NA,"",NA,NA,NA,NA,NA,NA,NA,"",NA,"",NA,NA,NA,NA,NA,NA,NA,"","","",NA,"",NA,NA,NA,NA,NA,NA,NA,"",NA,"37"
"",NA,"",NA,"",NA,NA,NA,NA,NA,NA,NA,"","",1,1,"2024-08-30_12h38.18.860","IAT(Formal)","2021.2.3","MacIntel",58.82352941,"",NA,"",NA,NA,NA,NA,NA,NA,NA,"","","",NA,"i",1,1.071,0,35,35,59,1,"其他","i","",NA,NA,NA,NA,NA,NA,"",NA,"",NA,NA,NA,NA,NA,NA,NA,"",NA,"",NA,NA,NA,NA,NA,NA,NA,"","","",NA,"",NA,NA,NA,NA,NA,NA,NA,"",NA,"37"
"",NA,"",NA,"",NA,NA,NA,NA,NA,NA,NA,"","",1,1,"2024-08-30_12h38.18.860","IAT(Formal)","2021.2.3","MacIntel",58.82352941,"",NA,"",NA,NA,NA,NA,NA,NA,NA,"","","",NA,"i",1,0.735,0,36,36,43,1,"自私","i","",NA,NA,NA,NA,NA,NA,"",NA,"",NA,NA,NA,NA,NA,NA,NA,"",NA,"",NA,NA,NA,NA,NA,NA,NA,"","","",NA,"",NA,NA,NA,NA,NA,NA,NA,"",NA,"37"
"",NA,"",NA,"",NA,NA,NA,NA,NA,NA,NA,"","",1,1,"2024-08-30_12h38.18.860","IAT(Formal)","2021.2.3","MacIntel",58.82352941,"",NA,"",NA,NA,NA,NA,NA,NA,NA,"","","",NA,"i",1,0.699,0,37,37,9,1,"其他","i","",NA,NA,NA,NA,NA,NA,"",NA,"",NA,NA,NA,NA,NA,NA,NA,"",NA,"",NA,NA,NA,NA,NA,NA,NA,"","","",NA,"",NA,NA,NA,NA,NA,NA,NA,"",NA,"37"
"",NA,"",NA,"",NA,NA,NA,NA,NA,NA,NA,"","",1,1,"2024-08-30_12h38.18.860","IAT(Formal)","2021.2.3","MacIntel",58.82352941,"",NA,"",NA,NA,NA,NA,NA,NA,NA,"","","",NA,"e",1,0.884,0,38,38,29,1,"诚恳","e","",NA,NA,NA,NA,NA,NA,"",NA,"",NA,NA,NA,NA,NA,NA,NA,"",NA,"",NA,NA,NA,NA,NA,NA,NA,"","","",NA,"",NA,NA,NA,NA,NA,NA,NA,"",NA,"37"
"",NA,"",NA,"",NA,NA,NA,NA,NA,NA,NA,"","",1,1,"2024-08-30_12h38.18.860","IAT(Formal)","2021.2.3","MacIntel",58.82352941,"",NA,"",NA,NA,NA,NA,NA,NA,NA,"","","",NA,"i",1,0.635,0,39,39,67,1,"他的","i","",NA,NA,NA,NA,NA,NA,"",NA,"",NA,NA,NA,NA,NA,NA,NA,"",NA,"",NA,NA,NA,NA,NA,NA,NA,"","","",NA,"",NA,NA,NA,NA,NA,NA,NA,"",NA,"37"
"",NA,"",NA,"",NA,NA,NA,NA,NA,NA,NA,"","",1,1,"2024-08-30_12h38.18.860","IAT(Formal)","2021.2.3","MacIntel",58.82352941,"",NA,"",NA,NA,NA,NA,NA,NA,NA,"","","",NA,"e",1,0.662,0,40,40,1,1,"我的","e","",NA,NA,NA,NA,NA,NA,"",NA,"",NA,NA,NA,NA,NA,NA,NA,"",NA,"",NA,NA,NA,NA,NA,NA,NA,"","","",NA,"",NA,NA,NA,NA,NA,NA,NA,"",NA,"37"
"",NA,"",NA,"",NA,NA,NA,NA,NA,NA,NA,"","",1,1,"2024-08-30_12h38.18.860","IAT(Formal)","2021.2.3","MacIntel",58.82352941,"",NA,"",NA,NA,NA,NA,NA,NA,NA,"","","",NA,"i",1,0.723,0,41,41,42,1,"凶狠","i","",NA,NA,NA,NA,NA,NA,"",NA,"",NA,NA,NA,NA,NA,NA,NA,"",NA,"",NA,NA,NA,NA,NA,NA,NA,"","","",NA,"",NA,NA,NA,NA,NA,NA,NA,"",NA,"37"
"",NA,"",NA,"",NA,NA,NA,NA,NA,NA,NA,"","",1,1,"2024-08-30_12h38.18.860","IAT(Formal)","2021.2.3","MacIntel",58.82352941,"",NA,"",NA,NA,NA,NA,NA,NA,NA,"","","",NA,"e",1,0.737,0,42,42,73,1,"自己","e","",NA,NA,NA,NA,NA,NA,"",NA,"",NA,NA,NA,NA,NA,NA,NA,"",NA,"",NA,NA,NA,NA,NA,NA,NA,"","","",NA,"",NA,NA,NA,NA,NA,NA,NA,"",NA,"37"
"",NA,"",NA,"",NA,NA,NA,NA,NA,NA,NA,"","",1,1,"2024-08-30_12h38.18.860","IAT(Formal)","2021.2.3","MacIntel",58.82352941,"",NA,"",NA,NA,NA,NA,NA,NA,NA,"","","",NA,"i",1,0.702,0,43,43,46,1,"野蛮","i","",NA,NA,NA,NA,NA,NA,"",NA,"",NA,NA,NA,NA,NA,NA,NA,"",NA,"",NA,NA,NA,NA,NA,NA,NA,"","","",NA,"",NA,NA,NA,NA,NA,NA,NA,"",NA,"37"
"",NA,"",NA,"",NA,NA,NA,NA,NA,NA,NA,"","",1,1,"2024-08-30_12h38.18.860","IAT(Formal)","2021.2.3","MacIntel",58.82352941,"",NA,"",NA,NA,NA,NA,NA,NA,NA,"","","",NA,"e",1,0.755,0,44,44,28,1,"活泼","e","",NA,NA,NA,NA,NA,NA,"",NA,"",NA,NA,NA,NA,NA,NA,NA,"",NA,"",NA,NA,NA,NA,NA,NA,NA,"","","",NA,"",NA,NA,NA,NA,NA,NA,NA,"",NA,"37"
"",NA,"",NA,"",NA,NA,NA,NA,NA,NA,NA,"","",1,1,"2024-08-30_12h38.18.860","IAT(Formal)","2021.2.3","MacIntel",58.82352941,"",NA,"",NA,NA,NA,NA,NA,NA,NA,"","","",NA,"e",1,0.786,0,45,45,54,1,"俺","e","",NA,NA,NA,NA,NA,NA,"",NA,"",NA,NA,NA,NA,NA,NA,NA,"",NA,"",NA,NA,NA,NA,NA,NA,NA,"","","",NA,"",NA,NA,NA,NA,NA,NA,NA,"",NA,"37"
"",NA,"",NA,"",NA,NA,NA,NA,NA,NA,NA,"","",1,1,"2024-08-30_12h38.18.860","IAT(Formal)","2021.2.3","MacIntel",58.82352941,"",NA,"",NA,NA,NA,NA,NA,NA,NA,"","","",NA,"e",1,0.599,0,46,46,51,1,"我的","e","",NA,NA,NA,NA,NA,NA,"",NA,"",NA,NA,NA,NA,NA,NA,NA,"",NA,"",NA,NA,NA,NA,NA,NA,NA,"","","",NA,"",NA,NA,NA,NA,NA,NA,NA,"",NA,"37"
"",NA,"",NA,"",NA,NA,NA,NA,NA,NA,NA,"","",1,1,"2024-08-30_12h38.18.860","IAT(Formal)","2021.2.3","MacIntel",58.82352941,"",NA,"",NA,NA,NA,NA,NA,NA,NA,"","","",NA,"i",1,0.683,0,47,47,49,1,"下贱","i","",NA,NA,NA,NA,NA,NA,"",NA,"",NA,NA,NA,NA,NA,NA,NA,"",NA,"",NA,NA,NA,NA,NA,NA,NA,"","","",NA,"",NA,NA,NA,NA,NA,NA,NA,"",NA,"37"
"",NA,"",NA,"",NA,NA,NA,NA,NA,NA,NA,"","",1,1,"2024-08-30_12h38.18.860","IAT(Formal)","2021.2.3","MacIntel",58.82352941,"",NA,"",NA,NA,NA,NA,NA,NA,NA,"","","",NA,"e",1,0.77,0,48,48,10,1,"优秀","e","",NA,NA,NA,NA,NA,NA,"",NA,"",NA,NA,NA,NA,NA,NA,NA,"",NA,"",NA,NA,NA,NA,NA,NA,NA,"","","",NA,"",NA,NA,NA,NA,NA,NA,NA,"",NA,"37"
"",NA,"",NA,"",NA,NA,NA,NA,NA,NA,NA,"","",1,1,"2024-08-30_12h38.18.860","IAT(Formal)","2021.2.3","MacIntel",58.82352941,"",NA,"",NA,NA,NA,NA,NA,NA,NA,"","","",NA,"e",1,0.762,0,49,49,23,1,"公正","e","",NA,NA,NA,NA,NA,NA,"",NA,"",NA,NA,NA,NA,NA,NA,NA,"",NA,"",NA,NA,NA,NA,NA,NA,NA,"","","",NA,"",NA,NA,NA,NA,NA,NA,NA,"",NA,"37"
"",NA,"",NA,"",NA,NA,NA,NA,NA,NA,NA,"","",1,1,"2024-08-30_12h38.18.860","IAT(Formal)","2021.2.3","MacIntel",58.82352941,"",NA,"",NA,NA,NA,NA,NA,NA,NA,"","","",NA,"e",1,0.8,0,50,50,25,1,"细腻","e","",NA,NA,NA,NA,NA,NA,"",NA,"",NA,NA,NA,NA,NA,NA,NA,"",NA,"",NA,NA,NA,NA,NA,NA,NA,"","","",NA,"",NA,NA,NA,NA,NA,NA,NA,"",NA,"37"
"",NA,"",NA,"",NA,NA,NA,NA,NA,NA,NA,"","",1,1,"2024-08-30_12h38.18.860","IAT(Formal)","2021.2.3","MacIntel",58.82352941,"",NA,"",NA,NA,NA,NA,NA,NA,NA,"","","",NA,"e",1,0.569,0,51,51,63,1,"自己","e","",NA,NA,NA,NA,NA,NA,"",NA,"",NA,NA,NA,NA,NA,NA,NA,"",NA,"",NA,NA,NA,NA,NA,NA,NA,"","","",NA,"",NA,NA,NA,NA,NA,NA,NA,"",NA,"37"
"",NA,"",NA,"",NA,NA,NA,NA,NA,NA,NA,"","",1,1,"2024-08-30_12h38.18.860","IAT(Formal)","2021.2.3","MacIntel",58.82352941,"",NA,"",NA,NA,NA,NA,NA,NA,NA,"","","",NA,"e",1,0.731,0,52,52,72,1,"我们","e","",NA,NA,NA,NA,NA,NA,"",NA,"",NA,NA,NA,NA,NA,NA,NA,"",NA,"",NA,NA,NA,NA,NA,NA,NA,"","","",NA,"",NA,NA,NA,NA,NA,NA,NA,"",NA,"37"
"",NA,"",NA,"",NA,NA,NA,NA,NA,NA,NA,"","",1,1,"2024-08-30_12h38.18.860","IAT(Formal)","2021.2.3","MacIntel",58.82352941,"",NA,"",NA,NA,NA,NA,NA,NA,NA,"","","",NA,"i",1,0.779,0,53,53,30,1,"卑鄙","i","",NA,NA,NA,NA,NA,NA,"",NA,"",NA,NA,NA,NA,NA,NA,NA,"",NA,"",NA,NA,NA,NA,NA,NA,NA,"","","",NA,"",NA,NA,NA,NA,NA,NA,NA,"",NA,"37"
"",NA,"",NA,"",NA,NA,NA,NA,NA,NA,NA,"","",1,1,"2024-08-30_12h38.18.860","IAT(Formal)","2021.2.3","MacIntel",58.82352941,"",NA,"",NA,NA,NA,NA,NA,NA,NA,"","","",NA,"i",1,0.851,0,54,54,57,1,"他的","i","",NA,NA,NA,NA,NA,NA,"",NA,"",NA,NA,NA,NA,NA,NA,NA,"",NA,"",NA,NA,NA,NA,NA,NA,NA,"","","",NA,"",NA,NA,NA,NA,NA,NA,NA,"",NA,"37"
"",NA,"",NA,"",NA,NA,NA,NA,NA,NA,NA,"","",1,1,"2024-08-30_12h38.18.860","IAT(Formal)","2021.2.3","MacIntel",58.82352941,"",NA,"",NA,NA,NA,NA,NA,NA,NA,"","","",NA,"i",1,0.658,0,55,55,44,1,"暴躁","i","",NA,NA,NA,NA,NA,NA,"",NA,"",NA,NA,NA,NA,NA,NA,NA,"",NA,"",NA,NA,NA,NA,NA,NA,NA,"","","",NA,"",NA,NA,NA,NA,NA,NA,NA,"",NA,"37"
"",NA,"",NA,"",NA,NA,NA,NA,NA,NA,NA,"","",1,1,"2024-08-30_12h38.18.860","IAT(Formal)","2021.2.3","MacIntel",58.82352941,"",NA,"",NA,NA,NA,NA,NA,NA,NA,"","","",NA,"i",1,0.637,0,56,56,33,1,"刻薄","i","",NA,NA,NA,NA,NA,NA,"",NA,"",NA,NA,NA,NA,NA,NA,NA,"",NA,"",NA,NA,NA,NA,NA,NA,NA,"","","",NA,"",NA,NA,NA,NA,NA,NA,NA,"",NA,"37"
"",NA,"",NA,"",NA,NA,NA,NA,NA,NA,NA,"","",1,1,"2024-08-30_12h38.18.860","IAT(Formal)","2021.2.3","MacIntel",58.82352941,"",NA,"",NA,NA,NA,NA,NA,NA,NA,"","","",NA,"e",1,0.716,0,57,57,20,1,"认真","e","",NA,NA,NA,NA,NA,NA,"",NA,"",NA,NA,NA,NA,NA,NA,NA,"",NA,"",NA,NA,NA,NA,NA,NA,NA,"","","",NA,"",NA,NA,NA,NA,NA,NA,NA,"",NA,"37"
"",NA,"",NA,"",NA,NA,NA,NA,NA,NA,NA,"","",1,1,"2024-08-30_12h38.18.860","IAT(Formal)","2021.2.3","MacIntel",58.82352941,"",NA,"",NA,NA,NA,NA,NA,NA,NA,"","","",NA,"i",1,0.729,0,58,58,55,1,"他","i","",NA,NA,NA,NA,NA,NA,"",NA,"",NA,NA,NA,NA,NA,NA,NA,"",NA,"",NA,NA,NA,NA,NA,NA,NA,"","","",NA,"",NA,NA,NA,NA,NA,NA,NA,"",NA,"37"
"",NA,"",NA,"",NA,NA,NA,NA,NA,NA,NA,"","",1,1,"2024-08-30_12h38.18.860","IAT(Formal)","2021.2.3","MacIntel",58.82352941,"",NA,"",NA,NA,NA,NA,NA,NA,NA,"","","",NA,"e",1,1.098,0,59,59,11,1,"崇高","e","",NA,NA,NA,NA,NA,NA,"",NA,"",NA,NA,NA,NA,NA,NA,NA,"",NA,"",NA,NA,NA,NA,NA,NA,NA,"","","",NA,"",NA,NA,NA,NA,NA,NA,NA,"",NA,"37"
"",NA,"",NA,"",NA,NA,NA,NA,NA,NA,NA,"","",1,1,"2024-08-30_12h38.18.860","IAT(Formal)","2021.2.3","MacIntel",58.82352941,"",NA,"",NA,NA,NA,NA,NA,NA,NA,"","","",NA,"e",1,0.847,0,60,60,22,1,"无私","e","",NA,NA,NA,NA,NA,NA,"",NA,"",NA,NA,NA,NA,NA,NA,NA,"",NA,"",NA,NA,NA,NA,NA,NA,NA,"","","",NA,"",NA,NA,NA,NA,NA,NA,NA,"",NA,"37"
"",NA,"",NA,"",NA,NA,NA,NA,NA,NA,NA,"","",1,1,"2024-08-30_12h38.18.860","IAT(Formal)","2021.2.3","MacIntel",58.82352941,"",NA,"",NA,NA,NA,NA,NA,NA,NA,"","","",NA,"e",1,0.702,0,61,61,21,1,"稳重","e","",NA,NA,NA,NA,NA,NA,"",NA,"",NA,NA,NA,NA,NA,NA,NA,"",NA,"",NA,NA,NA,NA,NA,NA,NA,"","","",NA,"",NA,NA,NA,NA,NA,NA,NA,"",NA,"37"
"",NA,"",NA,"",NA,NA,NA,NA,NA,NA,NA,"","",1,1,"2024-08-30_12h38.18.860","IAT(Formal)","2021.2.3","MacIntel",58.82352941,"",NA,"",NA,NA,NA,NA,NA,NA,NA,"","","",NA,"e",1,0.851,0,62,62,52,1,"我们","e","",NA,NA,NA,NA,NA,NA,"",NA,"",NA,NA,NA,NA,NA,NA,NA,"",NA,"",NA,NA,NA,NA,NA,NA,NA,"","","",NA,"",NA,NA,NA,NA,NA,NA,NA,"",NA,"37"
"",NA,"",NA,"",NA,NA,NA,NA,NA,NA,NA,"","",1,1,"2024-08-30_12h38.18.860","IAT(Formal)","2021.2.3","MacIntel",58.82352941,"",NA,"",NA,NA,NA,NA,NA,NA,NA,"","","",NA,"i",1,0.683,0,63,63,6,1,"他们","i","",NA,NA,NA,NA,NA,NA,"",NA,"",NA,NA,NA,NA,NA,NA,NA,"",NA,"",NA,NA,NA,NA,NA,NA,NA,"","","",NA,"",NA,NA,NA,NA,NA,NA,NA,"",NA,"37"
"",NA,"",NA,"",NA,NA,NA,NA,NA,NA,NA,"","",1,1,"2024-08-30_12h38.18.860","IAT(Formal)","2021.2.3","MacIntel",58.82352941,"",NA,"",NA,NA,NA,NA,NA,NA,NA,"","","",NA,"e",1,0.942,0,64,64,26,1,"冷静","e","",NA,NA,NA,NA,NA,NA,"",NA,"",NA,NA,NA,NA,NA,NA,NA,"",NA,"",NA,NA,NA,NA,NA,NA,NA,"","","",NA,"",NA,NA,NA,NA,NA,NA,NA,"",NA,"37"
"",NA,"",NA,"",NA,NA,NA,NA,NA,NA,NA,"","",1,1,"2024-08-30_12h38.18.860","IAT(Formal)","2021.2.3","MacIntel",58.82352941,"",NA,"",NA,NA,NA,NA,NA,NA,NA,"","","",NA,"i",1,1.07,0,65,65,38,1,"鲁莽","i","",NA,NA,NA,NA,NA,NA,"",NA,"",NA,NA,NA,NA,NA,NA,NA,"",NA,"",NA,NA,NA,NA,NA,NA,NA,"","","",NA,"",NA,NA,NA,NA,NA,NA,NA,"",NA,"37"
"",NA,"",NA,"",NA,NA,NA,NA,NA,NA,NA,"","",1,1,"2024-08-30_12h38.18.860","IAT(Formal)","2021.2.3","MacIntel",58.82352941,"",NA,"",NA,NA,NA,NA,NA,NA,NA,"","","",NA,"i",1,0.933,0,66,66,75,1,"他","i","",NA,NA,NA,NA,NA,NA,"",NA,"",NA,NA,NA,NA,NA,NA,NA,"",NA,"",NA,NA,NA,NA,NA,NA,NA,"","","",NA,"",NA,NA,NA,NA,NA,NA,NA,"",NA,"37"
"",NA,"",NA,"",NA,NA,NA,NA,NA,NA,NA,"","",1,1,"2024-08-30_12h38.18.860","IAT(Formal)","2021.2.3","MacIntel",58.82352941,"",NA,"",NA,NA,NA,NA,NA,NA,NA,"","","",NA,"e",1,0.79,0,67,67,2,1,"我们","e","",NA,NA,NA,NA,NA,NA,"",NA,"",NA,NA,NA,NA,NA,NA,NA,"",NA,"",NA,NA,NA,NA,NA,NA,NA,"","","",NA,"",NA,NA,NA,NA,NA,NA,NA,"",NA,"37"
"",NA,"",NA,"",NA,NA,NA,NA,NA,NA,NA,"","",1,1,"2024-08-30_12h38.18.860","IAT(Formal)","2021.2.3","MacIntel",58.82352941,"",NA,"",NA,NA,NA,NA,NA,NA,NA,"","","",NA,"i",1,1.152,0,68,68,47,1,"固执","i","",NA,NA,NA,NA,NA,NA,"",NA,"",NA,NA,NA,NA,NA,NA,NA,"",NA,"",NA,NA,NA,NA,NA,NA,NA,"","","",NA,"",NA,NA,NA,NA,NA,NA,NA,"",NA,"37"
"",NA,"",NA,"",NA,NA,NA,NA,NA,NA,NA,"","",1,1,"2024-08-30_12h38.18.860","IAT(Formal)","2021.2.3","MacIntel",58.82352941,"",NA,"",NA,NA,NA,NA,NA,NA,NA,"","","",NA,"e",1,0.724,0,69,69,13,1,"杰出","e","",NA,NA,NA,NA,NA,NA,"",NA,"",NA,NA,NA,NA,NA,NA,NA,"",NA,"",NA,NA,NA,NA,NA,NA,NA,"","","",NA,"",NA,NA,NA,NA,NA,NA,NA,"",NA,"37"
"",NA,"",NA,"",NA,NA,NA,NA,NA,NA,NA,"","",1,1,"2024-08-30_12h38.18.860","IAT(Formal)","2021.2.3","MacIntel",58.82352941,"",NA,"",NA,NA,NA,NA,NA,NA,NA,"","","",NA,"i",1,0.682,0,70,70,56,1,"他们","i","",NA,NA,NA,NA,NA,NA,"",NA,"",NA,NA,NA,NA,NA,NA,NA,"",NA,"",NA,NA,NA,NA,NA,NA,NA,"","","",NA,"",NA,NA,NA,NA,NA,NA,NA,"",NA,"37"
"",NA,"",NA,"",NA,NA,NA,NA,NA,NA,NA,"","",1,1,"2024-08-30_12h38.18.860","IAT(Formal)","2021.2.3","MacIntel",58.82352941,"",NA,"",NA,NA,NA,NA,NA,NA,NA,"","","",NA,"i",1,0.765,0,71,71,7,1,"他的","i","",NA,NA,NA,NA,NA,NA,"",NA,"",NA,NA,NA,NA,NA,NA,NA,"",NA,"",NA,NA,NA,NA,NA,NA,NA,"","","",NA,"",NA,NA,NA,NA,NA,NA,NA,"",NA,"37"
"",NA,"",NA,"",NA,NA,NA,NA,NA,NA,NA,"","",1,1,"2024-08-30_12h38.18.860","IAT(Formal)","2021.2.3","MacIntel",58.82352941,"",NA,"",NA,NA,NA,NA,NA,NA,NA,"","","",NA,"i",1,0.655,0,72,72,77,1,"他的","i","",NA,NA,NA,NA,NA,NA,"",NA,"",NA,NA,NA,NA,NA,NA,NA,"",NA,"",NA,NA,NA,NA,NA,NA,NA,"","","",NA,"",NA,NA,NA,NA,NA,NA,NA,"",NA,"37"
"",NA,"",NA,"",NA,NA,NA,NA,NA,NA,NA,"","",1,1,"2024-08-30_12h38.18.860","IAT(Formal)","2021.2.3","MacIntel",58.82352941,"",NA,"",NA,NA,NA,NA,NA,NA,NA,"","","",NA,"e",1,0.6,0,73,73,12,1,"聪明","e","",NA,NA,NA,NA,NA,NA,"",NA,"",NA,NA,NA,NA,NA,NA,NA,"",NA,"",NA,NA,NA,NA,NA,NA,NA,"","","",NA,"",NA,NA,NA,NA,NA,NA,NA,"",NA,"37"
"",NA,"",NA,"",NA,NA,NA,NA,NA,NA,NA,"","",1,1,"2024-08-30_12h38.18.860","IAT(Formal)","2021.2.3","MacIntel",58.82352941,"",NA,"",NA,NA,NA,NA,NA,NA,NA,"","","",NA,"e",0,1.064,0,74,74,79,1,"其他","i","",NA,NA,NA,NA,NA,NA,"",NA,"",NA,NA,NA,NA,NA,NA,NA,"",NA,"",NA,NA,NA,NA,NA,NA,NA,"","","",NA,"",NA,NA,NA,NA,NA,NA,NA,"",NA,"37"
"",NA,"",NA,"",NA,NA,NA,NA,NA,NA,NA,"","",1,1,"2024-08-30_12h38.18.860","IAT(Formal)","2021.2.3","MacIntel",58.82352941,"",NA,"",NA,NA,NA,NA,NA,NA,NA,"","","",NA,"",0,NA,0,75,75,36,1,"自卑","i","",NA,NA,NA,NA,NA,NA,"",NA,"",NA,NA,NA,NA,NA,NA,NA,"",NA,"",NA,NA,NA,NA,NA,NA,NA,"","","",NA,"",NA,NA,NA,NA,NA,NA,NA,"",NA,"37"
"",NA,"",NA,"",NA,NA,NA,NA,NA,NA,NA,"","",1,1,"2024-08-30_12h38.18.860","IAT(Formal)","2021.2.3","MacIntel",58.82352941,"",NA,"",NA,NA,NA,NA,NA,NA,NA,"","","",NA,"",0,NA,0,76,76,18,1,"勤奋","e","",NA,NA,NA,NA,NA,NA,"",NA,"",NA,NA,NA,NA,NA,NA,NA,"",NA,"",NA,NA,NA,NA,NA,NA,NA,"","","",NA,"",NA,NA,NA,NA,NA,NA,NA,"",NA,"37"
"",NA,"",NA,"",NA,NA,NA,NA,NA,NA,NA,"","",1,1,"2024-08-30_12h38.18.860","IAT(Formal)","2021.2.3","MacIntel",58.82352941,"",NA,"",NA,NA,NA,NA,NA,NA,NA,"","","",NA,"i",1,0.786,0,77,77,35,1,"消极","i","",NA,NA,NA,NA,NA,NA,"",NA,"",NA,NA,NA,NA,NA,NA,NA,"",NA,"",NA,NA,NA,NA,NA,NA,NA,"","","",NA,"",NA,NA,NA,NA,NA,NA,NA,"",NA,"37"
"",NA,"",NA,"",NA,NA,NA,NA,NA,NA,NA,"","",1,1,"2024-08-30_12h38.18.860","IAT(Formal)","2021.2.3","MacIntel",58.82352941,"",NA,"",NA,NA,NA,NA,NA,NA,NA,"","","",NA,"e",1,0.617,0,78,78,19,1,"机智","e","",NA,NA,NA,NA,NA,NA,"",NA,"",NA,NA,NA,NA,NA,NA,NA,"",NA,"",NA,NA,NA,NA,NA,NA,NA,"","","",NA,"",NA,NA,NA,NA,NA,NA,NA,"",NA,"37"
"",NA,"",NA,"",NA,NA,NA,NA,NA,NA,NA,"","",1,1,"2024-08-30_12h38.18.860","IAT(Formal)","2021.2.3","MacIntel",58.82352941,"",NA,"",NA,NA,NA,NA,NA,NA,NA,"","","",NA,"e",1,0.95,0,79,79,4,1,"俺","e","",NA,NA,NA,NA,NA,NA,"",NA,"",NA,NA,NA,NA,NA,NA,NA,"",NA,"",NA,NA,NA,NA,NA,NA,NA,"","","",NA,"",NA,NA,NA,NA,NA,NA,NA,"",NA,"37"
"",NA,"",NA,"",NA,NA,NA,NA,NA,NA,NA,"","",1,1,"2024-08-30_12h38.18.860","IAT(Formal)","2021.2.3","MacIntel",58.82352941,"",NA,"",NA,NA,NA,NA,NA,NA,NA,"","","",NA,"e",1,1.205,NA,NA,NA,NA,NA,"俺","e","space",14.006,0,0,0,4,1,"",NA,"",NA,NA,NA,NA,NA,NA,NA,"",NA,"",NA,NA,NA,NA,NA,NA,NA,"","","",NA,"",NA,NA,NA,NA,NA,NA,NA,"",NA,"37"
"",NA,"",NA,"",NA,NA,NA,NA,NA,NA,NA,"","",1,1,"2024-08-30_12h38.18.860","IAT(Formal)","2021.2.3","MacIntel",58.82352941,"",NA,"",NA,NA,NA,NA,NA,NA,NA,"","","",NA,"i",1,0.806,NA,NA,NA,NA,NA,"其他","i","",NA,0,1,1,69,1,"",NA,"",NA,NA,NA,NA,NA,NA,NA,"",NA,"",NA,NA,NA,NA,NA,NA,NA,"","","",NA,"",NA,NA,NA,NA,NA,NA,NA,"",NA,"37"
"",NA,"",NA,"",NA,NA,NA,NA,NA,NA,NA,"","",1,1,"2024-08-30_12h38.18.860","IAT(Formal)","2021.2.3","MacIntel",58.82352941,"",NA,"",NA,NA,NA,NA,NA,NA,NA,"","","",NA,"e",1,0.684,NA,NA,NA,NA,NA,"稳重","e","",NA,0,2,2,21,1,"",NA,"",NA,NA,NA,NA,NA,NA,NA,"",NA,"",NA,NA,NA,NA,NA,NA,NA,"","","",NA,"",NA,NA,NA,NA,NA,NA,NA,"",NA,"37"
"",NA,"",NA,"",NA,NA,NA,NA,NA,NA,NA,"","",1,1,"2024-08-30_12h38.18.860","IAT(Formal)","2021.2.3","MacIntel",58.82352941,"",NA,"",NA,NA,NA,NA,NA,NA,NA,"","","",NA,"i",1,0.69,NA,NA,NA,NA,NA,"他的","i","",NA,0,3,3,77,1,"",NA,"",NA,NA,NA,NA,NA,NA,NA,"",NA,"",NA,NA,NA,NA,NA,NA,NA,"","","",NA,"",NA,NA,NA,NA,NA,NA,NA,"",NA,"37"
"",NA,"",NA,"",NA,NA,NA,NA,NA,NA,NA,"","",1,1,"2024-08-30_12h38.18.860","IAT(Formal)","2021.2.3","MacIntel",58.82352941,"",NA,"",NA,NA,NA,NA,NA,NA,NA,"","","",NA,"i",1,0.669,NA,NA,NA,NA,NA,"凶狠","i","",NA,0,4,4,42,1,"",NA,"",NA,NA,NA,NA,NA,NA,NA,"",NA,"",NA,NA,NA,NA,NA,NA,NA,"","","",NA,"",NA,NA,NA,NA,NA,NA,NA,"",NA,"37"
"",NA,"",NA,"",NA,NA,NA,NA,NA,NA,NA,"","",1,1,"2024-08-30_12h38.18.860","IAT(Formal)","2021.2.3","MacIntel",58.82352941,"",NA,"",NA,NA,NA,NA,NA,NA,NA,"","","",NA,"e",1,0.582,NA,NA,NA,NA,NA,"正直","e","",NA,0,5,5,16,1,"",NA,"",NA,NA,NA,NA,NA,NA,NA,"",NA,"",NA,NA,NA,NA,NA,NA,NA,"","","",NA,"",NA,NA,NA,NA,NA,NA,NA,"",NA,"37"
"",NA,"",NA,"",NA,NA,NA,NA,NA,NA,NA,"","",1,1,"2024-08-30_12h38.18.860","IAT(Formal)","2021.2.3","MacIntel",58.82352941,"",NA,"",NA,NA,NA,NA,NA,NA,NA,"","","",NA,"e",1,0.614,NA,NA,NA,NA,NA,"我","e","",NA,0,6,6,0,1,"",NA,"",NA,NA,NA,NA,NA,NA,NA,"",NA,"",NA,NA,NA,NA,NA,NA,NA,"","","",NA,"",NA,NA,NA,NA,NA,NA,NA,"",NA,"37"
"",NA,"",NA,"",NA,NA,NA,NA,NA,NA,NA,"","",1,1,"2024-08-30_12h38.18.860","IAT(Formal)","2021.2.3","MacIntel",58.82352941,"",NA,"",NA,NA,NA,NA,NA,NA,NA,"","","",NA,"i",1,1.184,NA,NA,NA,NA,NA,"自卑","i","",NA,0,7,7,36,1,"",NA,"",NA,NA,NA,NA,NA,NA,NA,"",NA,"",NA,NA,NA,NA,NA,NA,NA,"","","",NA,"",NA,NA,NA,NA,NA,NA,NA,"",NA,"37"
"",NA,"",NA,"",NA,NA,NA,NA,NA,NA,NA,"","",1,1,"2024-08-30_12h38.18.860","IAT(Formal)","2021.2.3","MacIntel",58.82352941,"",NA,"",NA,NA,NA,NA,NA,NA,NA,"","","",NA,"e",1,0.756,NA,NA,NA,NA,NA,"诚恳","e","",NA,0,8,8,29,1,"",NA,"",NA,NA,NA,NA,NA,NA,NA,"",NA,"",NA,NA,NA,NA,NA,NA,NA,"","","",NA,"",NA,NA,NA,NA,NA,NA,NA,"",NA,"37"
"",NA,"",NA,"",NA,NA,NA,NA,NA,NA,NA,"","",1,1,"2024-08-30_12h38.18.860","IAT(Formal)","2021.2.3","MacIntel",58.82352941,"",NA,"",NA,NA,NA,NA,NA,NA,NA,"","","",NA,"i",1,0.765,NA,NA,NA,NA,NA,"他","i","",NA,0,9,9,55,1,"",NA,"",NA,NA,NA,NA,NA,NA,NA,"",NA,"",NA,NA,NA,NA,NA,NA,NA,"","","",NA,"",NA,NA,NA,NA,NA,NA,NA,"",NA,"37"
"",NA,"",NA,"",NA,NA,NA,NA,NA,NA,NA,"","",1,1,"2024-08-30_12h38.18.860","IAT(Formal)","2021.2.3","MacIntel",58.82352941,"",NA,"",NA,NA,NA,NA,NA,NA,NA,"","","",NA,"i",1,0.646,NA,NA,NA,NA,NA,"他们","i","",NA,0,10,10,66,1,"",NA,"",NA,NA,NA,NA,NA,NA,NA,"",NA,"",NA,NA,NA,NA,NA,NA,NA,"","","",NA,"",NA,NA,NA,NA,NA,NA,NA,"",NA,"37"
"",NA,"",NA,"",NA,NA,NA,NA,NA,NA,NA,"","",1,1,"2024-08-30_12h38.18.860","IAT(Formal)","2021.2.3","MacIntel",58.82352941,"",NA,"",NA,NA,NA,NA,NA,NA,NA,"","","",NA,"i",1,0.652,NA,NA,NA,NA,NA,"其他","i","",NA,0,11,11,9,1,"",NA,"",NA,NA,NA,NA,NA,NA,NA,"",NA,"",NA,NA,NA,NA,NA,NA,NA,"","","",NA,"",NA,NA,NA,NA,NA,NA,NA,"",NA,"37"
"",NA,"",NA,"",NA,NA,NA,NA,NA,NA,NA,"","",1,1,"2024-08-30_12h38.18.860","IAT(Formal)","2021.2.3","MacIntel",58.82352941,"",NA,"",NA,NA,NA,NA,NA,NA,NA,"","","",NA,"e",1,0.767,NA,NA,NA,NA,NA,"冷静","e","",NA,0,12,12,26,1,"",NA,"",NA,NA,NA,NA,NA,NA,NA,"",NA,"",NA,NA,NA,NA,NA,NA,NA,"","","",NA,"",NA,NA,NA,NA,NA,NA,NA,"",NA,"37"
"",NA,"",NA,"",NA,NA,NA,NA,NA,NA,NA,"","",1,1,"2024-08-30_12h38.18.860","IAT(Formal)","2021.2.3","MacIntel",58.82352941,"",NA,"",NA,NA,NA,NA,NA,NA,NA,"","","",NA,"i",1,0.606,NA,NA,NA,NA,NA,"下贱","i","",NA,0,13,13,49,1,"",NA,"",NA,NA,NA,NA,NA,NA,NA,"",NA,"",NA,NA,NA,NA,NA,NA,NA,"","","",NA,"",NA,NA,NA,NA,NA,NA,NA,"",NA,"37"
"",NA,"",NA,"",NA,NA,NA,NA,NA,NA,NA,"","",1,1,"2024-08-30_12h38.18.860","IAT(Formal)","2021.2.3","MacIntel",58.82352941,"",NA,"",NA,NA,NA,NA,NA,NA,NA,"","","",NA,"e",1,0.784,NA,NA,NA,NA,NA,"我们","e","",NA,0,14,14,2,1,"",NA,"",NA,NA,NA,NA,NA,NA,NA,"",NA,"",NA,NA,NA,NA,NA,NA,NA,"","","",NA,"",NA,NA,NA,NA,NA,NA,NA,"",NA,"37"
"",NA,"",NA,"",NA,NA,NA,NA,NA,NA,NA,"","",1,1,"2024-08-30_12h38.18.860","IAT(Formal)","2021.2.3","MacIntel",58.82352941,"",NA,"",NA,NA,NA,NA,NA,NA,NA,"","","",NA,"e",1,0.846,NA,NA,NA,NA,NA,"认真","e","",NA,0,15,15,20,1,"",NA,"",NA,NA,NA,NA,NA,NA,NA,"",NA,"",NA,NA,NA,NA,NA,NA,NA,"","","",NA,"",NA,NA,NA,NA,NA,NA,NA,"",NA,"37"
"",NA,"",NA,"",NA,NA,NA,NA,NA,NA,NA,"","",1,1,"2024-08-30_12h38.18.860","IAT(Formal)","2021.2.3","MacIntel",58.82352941,"",NA,"",NA,NA,NA,NA,NA,NA,NA,"","","",NA,"e",1,0.731,NA,NA,NA,NA,NA,"自己","e","",NA,0,16,16,53,1,"",NA,"",NA,NA,NA,NA,NA,NA,NA,"",NA,"",NA,NA,NA,NA,NA,NA,NA,"","","",NA,"",NA,NA,NA,NA,NA,NA,NA,"",NA,"37"
"",NA,"",NA,"",NA,NA,NA,NA,NA,NA,NA,"","",1,1,"2024-08-30_12h38.18.860","IAT(Formal)","2021.2.3","MacIntel",58.82352941,"",NA,"",NA,NA,NA,NA,NA,NA,NA,"","","",NA,"e",1,0.723,NA,NA,NA,NA,NA,"我们","e","",NA,0,17,17,52,1,"",NA,"",NA,NA,NA,NA,NA,NA,NA,"",NA,"",NA,NA,NA,NA,NA,NA,NA,"","","",NA,"",NA,NA,NA,NA,NA,NA,NA,"",NA,"37"
"",NA,"",NA,"",NA,NA,NA,NA,NA,NA,NA,"","",1,1,"2024-08-30_12h38.18.860","IAT(Formal)","2021.2.3","MacIntel",58.82352941,"",NA,"",NA,NA,NA,NA,NA,NA,NA,"","","",NA,"i",1,0.712,NA,NA,NA,NA,NA,"鲁莽","i","",NA,0,18,18,38,1,"",NA,"",NA,NA,NA,NA,NA,NA,NA,"",NA,"",NA,NA,NA,NA,NA,NA,NA,"","","",NA,"",NA,NA,NA,NA,NA,NA,NA,"",NA,"37"
"",NA,"",NA,"",NA,NA,NA,NA,NA,NA,NA,"","",1,1,"2024-08-30_12h38.18.860","IAT(Formal)","2021.2.3","MacIntel",58.82352941,"",NA,"",NA,NA,NA,NA,NA,NA,NA,"","","",NA,"e",1,1.047,NA,NA,NA,NA,NA,"勤奋","e","",NA,0,19,19,18,1,"",NA,"",NA,NA,NA,NA,NA,NA,NA,"",NA,"",NA,NA,NA,NA,NA,NA,NA,"","","",NA,"",NA,NA,NA,NA,NA,NA,NA,"",NA,"37"
"",NA,"",NA,"",NA,NA,NA,NA,NA,NA,NA,"","",1,1,"2024-08-30_12h38.18.860","IAT(Formal)","2021.2.3","MacIntel",58.82352941,"",NA,"",NA,NA,NA,NA,NA,NA,NA,"","","",NA,"i",1,1.131,NA,NA,NA,NA,NA,"他人","i","",NA,0,20,20,8,1,"",NA,"",NA,NA,NA,NA,NA,NA,NA,"",NA,"",NA,NA,NA,NA,NA,NA,NA,"","","",NA,"",NA,NA,NA,NA,NA,NA,NA,"",NA,"37"
"",NA,"",NA,"",NA,NA,NA,NA,NA,NA,NA,"","",1,1,"2024-08-30_12h38.18.860","IAT(Formal)","2021.2.3","MacIntel",58.82352941,"",NA,"",NA,NA,NA,NA,NA,NA,NA,"","","",NA,"e",1,0.683,NA,NA,NA,NA,NA,"我们","e","",NA,0,21,21,72,1,"",NA,"",NA,NA,NA,NA,NA,NA,NA,"",NA,"",NA,NA,NA,NA,NA,NA,NA,"","","",NA,"",NA,NA,NA,NA,NA,NA,NA,"",NA,"37"
"",NA,"",NA,"",NA,NA,NA,NA,NA,NA,NA,"","",1,1,"2024-08-30_12h38.18.860","IAT(Formal)","2021.2.3","MacIntel",58.82352941,"",NA,"",NA,NA,NA,NA,NA,NA,NA,"","","",NA,"i",1,0.773,NA,NA,NA,NA,NA,"他们","i","",NA,0,22,22,6,1,"",NA,"",NA,NA,NA,NA,NA,NA,NA,"",NA,"",NA,NA,NA,NA,NA,NA,NA,"","","",NA,"",NA,NA,NA,NA,NA,NA,NA,"",NA,"37"
"",NA,"",NA,"",NA,NA,NA,NA,NA,NA,NA,"","",1,1,"2024-08-30_12h38.18.860","IAT(Formal)","2021.2.3","MacIntel",58.82352941,"",NA,"",NA,NA,NA,NA,NA,NA,NA,"","","",NA,"i",1,0.716,NA,NA,NA,NA,NA,"暴躁","i","",NA,0,23,23,44,1,"",NA,"",NA,NA,NA,NA,NA,NA,NA,"",NA,"",NA,NA,NA,NA,NA,NA,NA,"","","",NA,"",NA,NA,NA,NA,NA,NA,NA,"",NA,"37"
"",NA,"",NA,"",NA,NA,NA,NA,NA,NA,NA,"","",1,1,"2024-08-30_12h38.18.860","IAT(Formal)","2021.2.3","MacIntel",58.82352941,"",NA,"",NA,NA,NA,NA,NA,NA,NA,"","","",NA,"i",1,0.671,NA,NA,NA,NA,NA,"他们","i","",NA,0,24,24,56,1,"",NA,"",NA,NA,NA,NA,NA,NA,NA,"",NA,"",NA,NA,NA,NA,NA,NA,NA,"","","",NA,"",NA,NA,NA,NA,NA,NA,NA,"",NA,"37"
"",NA,"",NA,"",NA,NA,NA,NA,NA,NA,NA,"","",1,1,"2024-08-30_12h38.18.860","IAT(Formal)","2021.2.3","MacIntel",58.82352941,"",NA,"",NA,NA,NA,NA,NA,NA,NA,"","","",NA,"e",1,0.645,NA,NA,NA,NA,NA,"我的","e","",NA,0,25,25,61,1,"",NA,"",NA,NA,NA,NA,NA,NA,NA,"",NA,"",NA,NA,NA,NA,NA,NA,NA,"","","",NA,"",NA,NA,NA,NA,NA,NA,NA,"",NA,"37"
"",NA,"",NA,"",NA,NA,NA,NA,NA,NA,NA,"","",1,1,"2024-08-30_12h38.18.860","IAT(Formal)","2021.2.3","MacIntel",58.82352941,"",NA,"",NA,NA,NA,NA,NA,NA,NA,"","","",NA,"i",1,1.065,NA,NA,NA,NA,NA,"傲慢","i","",NA,0,26,26,37,1,"",NA,"",NA,NA,NA,NA,NA,NA,NA,"",NA,"",NA,NA,NA,NA,NA,NA,NA,"","","",NA,"",NA,NA,NA,NA,NA,NA,NA,"",NA,"37"
"",NA,"",NA,"",NA,NA,NA,NA,NA,NA,NA,"","",1,1,"2024-08-30_12h38.18.860","IAT(Formal)","2021.2.3","MacIntel",58.82352941,"",NA,"",NA,NA,NA,NA,NA,NA,NA,"","","",NA,"i",1,0.671,NA,NA,NA,NA,NA,"虚伪","i","",NA,0,27,27,31,1,"",NA,"",NA,NA,NA,NA,NA,NA,NA,"",NA,"",NA,NA,NA,NA,NA,NA,NA,"","","",NA,"",NA,NA,NA,NA,NA,NA,NA,"",NA,"37"
"",NA,"",NA,"",NA,NA,NA,NA,NA,NA,NA,"","",1,1,"2024-08-30_12h38.18.860","IAT(Formal)","2021.2.3","MacIntel",58.82352941,"",NA,"",NA,NA,NA,NA,NA,NA,NA,"","","",NA,"i",1,0.6,NA,NA,NA,NA,NA,"刻薄","i","",NA,0,28,28,33,1,"",NA,"",NA,NA,NA,NA,NA,NA,NA,"",NA,"",NA,NA,NA,NA,NA,NA,NA,"","","",NA,"",NA,NA,NA,NA,NA,NA,NA,"",NA,"37"
"",NA,"",NA,"",NA,NA,NA,NA,NA,NA,NA,"","",1,1,"2024-08-30_12h38.18.860","IAT(Formal)","2021.2.3","MacIntel",58.82352941,"",NA,"",NA,NA,NA,NA,NA,NA,NA,"","","",NA,"e",1,0.897,NA,NA,NA,NA,NA,"我的","e","",NA,0,29,29,71,1,"",NA,"",NA,NA,NA,NA,NA,NA,NA,"",NA,"",NA,NA,NA,NA,NA,NA,NA,"","","",NA,"",NA,NA,NA,NA,NA,NA,NA,"",NA,"37"
"",NA,"",NA,"",NA,NA,NA,NA,NA,NA,NA,"","",1,1,"2024-08-30_12h38.18.860","IAT(Formal)","2021.2.3","MacIntel",58.82352941,"",NA,"",NA,NA,NA,NA,NA,NA,NA,"","","",NA,"e",1,0.918,NA,NA,NA,NA,NA,"崇高","e","",NA,0,30,30,11,1,"",NA,"",NA,NA,NA,NA,NA,NA,NA,"",NA,"",NA,NA,NA,NA,NA,NA,NA,"","","",NA,"",NA,NA,NA,NA,NA,NA,NA,"",NA,"37"
"",NA,"",NA,"",NA,NA,NA,NA,NA,NA,NA,"","",1,1,"2024-08-30_12h38.18.860","IAT(Formal)","2021.2.3","MacIntel",58.82352941,"",NA,"",NA,NA,NA,NA,NA,NA,NA,"","","",NA,"e",0,0.797,NA,NA,NA,NA,NA,"轻率","i","",NA,0,31,31,48,1,"",NA,"",NA,NA,NA,NA,NA,NA,NA,"",NA,"",NA,NA,NA,NA,NA,NA,NA,"","","",NA,"",NA,NA,NA,NA,NA,NA,NA,"",NA,"37"
"",NA,"",NA,"",NA,NA,NA,NA,NA,NA,NA,"","",1,1,"2024-08-30_12h38.18.860","IAT(Formal)","2021.2.3","MacIntel",58.82352941,"",NA,"",NA,NA,NA,NA,NA,NA,NA,"","","",NA,"i",1,0.815,NA,NA,NA,NA,NA,"他的","i","",NA,0,32,32,67,1,"",NA,"",NA,NA,NA,NA,NA,NA,NA,"",NA,"",NA,NA,NA,NA,NA,NA,NA,"","","",NA,"",NA,NA,NA,NA,NA,NA,NA,"",NA,"37"
"",NA,"",NA,"",NA,NA,NA,NA,NA,NA,NA,"","",1,1,"2024-08-30_12h38.18.860","IAT(Formal)","2021.2.3","MacIntel",58.82352941,"",NA,"",NA,NA,NA,NA,NA,NA,NA,"","","",NA,"e",1,0.683,NA,NA,NA,NA,NA,"机智","e","",NA,0,33,33,19,1,"",NA,"",NA,NA,NA,NA,NA,NA,NA,"",NA,"",NA,NA,NA,NA,NA,NA,NA,"","","",NA,"",NA,NA,NA,NA,NA,NA,NA,"",NA,"37"
"",NA,"",NA,"",NA,NA,NA,NA,NA,NA,NA,"","",1,1,"2024-08-30_12h38.18.860","IAT(Formal)","2021.2.3","MacIntel",58.82352941,"",NA,"",NA,NA,NA,NA,NA,NA,NA,"","","",NA,"i",1,0.791,NA,NA,NA,NA,NA,"野蛮","i","",NA,0,34,34,46,1,"",NA,"",NA,NA,NA,NA,NA,NA,NA,"",NA,"",NA,NA,NA,NA,NA,NA,NA,"","","",NA,"",NA,NA,NA,NA,NA,NA,NA,"",NA,"37"
"",NA,"",NA,"",NA,NA,NA,NA,NA,NA,NA,"","",1,1,"2024-08-30_12h38.18.860","IAT(Formal)","2021.2.3","MacIntel",58.82352941,"",NA,"",NA,NA,NA,NA,NA,NA,NA,"","","",NA,"e",1,1.023,NA,NA,NA,NA,NA,"无私","e","",NA,0,35,35,22,1,"",NA,"",NA,NA,NA,NA,NA,NA,NA,"",NA,"",NA,NA,NA,NA,NA,NA,NA,"","","",NA,"",NA,NA,NA,NA,NA,NA,NA,"",NA,"37"
"",NA,"",NA,"",NA,NA,NA,NA,NA,NA,NA,"","",1,1,"2024-08-30_12h38.18.860","IAT(Formal)","2021.2.3","MacIntel",58.82352941,"",NA,"",NA,NA,NA,NA,NA,NA,NA,"","","",NA,"e",1,0.681,NA,NA,NA,NA,NA,"诚实","e","",NA,0,36,36,15,1,"",NA,"",NA,NA,NA,NA,NA,NA,NA,"",NA,"",NA,NA,NA,NA,NA,NA,NA,"","","",NA,"",NA,NA,NA,NA,NA,NA,NA,"",NA,"37"
"",NA,"",NA,"",NA,NA,NA,NA,NA,NA,NA,"","",1,1,"2024-08-30_12h38.18.860","IAT(Formal)","2021.2.3","MacIntel",58.82352941,"",NA,"",NA,NA,NA,NA,NA,NA,NA,"","","",NA,"i",1,0.906,NA,NA,NA,NA,NA,"他人","i","",NA,0,37,37,78,1,"",NA,"",NA,NA,NA,NA,NA,NA,NA,"",NA,"",NA,NA,NA,NA,NA,NA,NA,"","","",NA,"",NA,NA,NA,NA,NA,NA,NA,"",NA,"37"
"",NA,"",NA,"",NA,NA,NA,NA,NA,NA,NA,"","",1,1,"2024-08-30_12h38.18.860","IAT(Formal)","2021.2.3","MacIntel",58.82352941,"",NA,"",NA,NA,NA,NA,NA,NA,NA,"","","",NA,"i",1,0.933,NA,NA,NA,NA,NA,"愚蠢","i","",NA,0,38,38,32,1,"",NA,"",NA,NA,NA,NA,NA,NA,NA,"",NA,"",NA,NA,NA,NA,NA,NA,NA,"","","",NA,"",NA,NA,NA,NA,NA,NA,NA,"",NA,"37"
"",NA,"",NA,"",NA,NA,NA,NA,NA,NA,NA,"","",1,1,"2024-08-30_12h38.18.860","IAT(Formal)","2021.2.3","MacIntel",58.82352941,"",NA,"",NA,NA,NA,NA,NA,NA,NA,"","","",NA,"e",1,0.917,NA,NA,NA,NA,NA,"我","e","",NA,0,39,39,70,1,"",NA,"",NA,NA,NA,NA,NA,NA,NA,"",NA,"",NA,NA,NA,NA,NA,NA,NA,"","","",NA,"",NA,NA,NA,NA,NA,NA,NA,"",NA,"37"
"",NA,"",NA,"",NA,NA,NA,NA,NA,NA,NA,"","",1,1,"2024-08-30_12h38.18.860","IAT(Formal)","2021.2.3","MacIntel",58.82352941,"",NA,"",NA,NA,NA,NA,NA,NA,NA,"","","",NA,"e",1,0.587,NA,NA,NA,NA,NA,"俺","e","",NA,0,40,40,64,1,"",NA,"",NA,NA,NA,NA,NA,NA,NA,"",NA,"",NA,NA,NA,NA,NA,NA,NA,"","","",NA,"",NA,NA,NA,NA,NA,NA,NA,"",NA,"37"
"",NA,"",NA,"",NA,NA,NA,NA,NA,NA,NA,"","",1,1,"2024-08-30_12h38.18.860","IAT(Formal)","2021.2.3","MacIntel",58.82352941,"",NA,"",NA,NA,NA,NA,NA,NA,NA,"","","",NA,"e",1,0.664,NA,NA,NA,NA,NA,"我","e","",NA,0,41,41,60,1,"",NA,"",NA,NA,NA,NA,NA,NA,NA,"",NA,"",NA,NA,NA,NA,NA,NA,NA,"","","",NA,"",NA,NA,NA,NA,NA,NA,NA,"",NA,"37"
"",NA,"",NA,"",NA,NA,NA,NA,NA,NA,NA,"","",1,1,"2024-08-30_12h38.18.860","IAT(Formal)","2021.2.3","MacIntel",58.82352941,"",NA,"",NA,NA,NA,NA,NA,NA,NA,"","","",NA,"e",1,0.591,NA,NA,NA,NA,NA,"自己","e","",NA,0,42,42,3,1,"",NA,"",NA,NA,NA,NA,NA,NA,NA,"",NA,"",NA,NA,NA,NA,NA,NA,NA,"","","",NA,"",NA,NA,NA,NA,NA,NA,NA,"",NA,"37"
"",NA,"",NA,"",NA,NA,NA,NA,NA,NA,NA,"","",1,1,"2024-08-30_12h38.18.860","IAT(Formal)","2021.2.3","MacIntel",58.82352941,"",NA,"",NA,NA,NA,NA,NA,NA,NA,"","","",NA,"i",1,0.767,NA,NA,NA,NA,NA,"卑鄙","i","",NA,0,43,43,30,1,"",NA,"",NA,NA,NA,NA,NA,NA,NA,"",NA,"",NA,NA,NA,NA,NA,NA,NA,"","","",NA,"",NA,NA,NA,NA,NA,NA,NA,"",NA,"37"
"",NA,"",NA,"",NA,NA,NA,NA,NA,NA,NA,"","",1,1,"2024-08-30_12h38.18.860","IAT(Formal)","2021.2.3","MacIntel",58.82352941,"",NA,"",NA,NA,NA,NA,NA,NA,NA,"","","",NA,"e",1,0.767,NA,NA,NA,NA,NA,"优秀","e","",NA,0,44,44,10,1,"",NA,"",NA,NA,NA,NA,NA,NA,NA,"",NA,"",NA,NA,NA,NA,NA,NA,NA,"","","",NA,"",NA,NA,NA,NA,NA,NA,NA,"",NA,"37"
"",NA,"",NA,"",NA,NA,NA,NA,NA,NA,NA,"","",1,1,"2024-08-30_12h38.18.860","IAT(Formal)","2021.2.3","MacIntel",58.82352941,"",NA,"",NA,NA,NA,NA,NA,NA,NA,"","","",NA,"e",1,0.535,NA,NA,NA,NA,NA,"俺","e","",NA,0,45,45,54,1,"",NA,"",NA,NA,NA,NA,NA,NA,NA,"",NA,"",NA,NA,NA,NA,NA,NA,NA,"","","",NA,"",NA,NA,NA,NA,NA,NA,NA,"",NA,"37"
"",NA,"",NA,"",NA,NA,NA,NA,NA,NA,NA,"","",1,1,"2024-08-30_12h38.18.860","IAT(Formal)","2021.2.3","MacIntel",58.82352941,"",NA,"",NA,NA,NA,NA,NA,NA,NA,"","","",NA,"i",1,0.769,NA,NA,NA,NA,NA,"其他","i","",NA,0,46,46,79,1,"",NA,"",NA,NA,NA,NA,NA,NA,NA,"",NA,"",NA,NA,NA,NA,NA,NA,NA,"","","",NA,"",NA,NA,NA,NA,NA,NA,NA,"",NA,"37"
"",NA,"",NA,"",NA,NA,NA,NA,NA,NA,NA,"","",1,1,"2024-08-30_12h38.18.860","IAT(Formal)","2021.2.3","MacIntel",58.82352941,"",NA,"",NA,NA,NA,NA,NA,NA,NA,"","","",NA,"i",1,0.749,NA,NA,NA,NA,NA,"猖狂","i","",NA,0,47,47,45,1,"",NA,"",NA,NA,NA,NA,NA,NA,NA,"",NA,"",NA,NA,NA,NA,NA,NA,NA,"","","",NA,"",NA,NA,NA,NA,NA,NA,NA,"",NA,"37"
"",NA,"",NA,"",NA,NA,NA,NA,NA,NA,NA,"","",1,1,"2024-08-30_12h38.18.860","IAT(Formal)","2021.2.3","MacIntel",58.82352941,"",NA,"",NA,NA,NA,NA,NA,NA,NA,"","","",NA,"i",1,0.932,NA,NA,NA,NA,NA,"悲观","i","",NA,0,48,48,34,1,"",NA,"",NA,NA,NA,NA,NA,NA,NA,"",NA,"",NA,NA,NA,NA,NA,NA,NA,"","","",NA,"",NA,NA,NA,NA,NA,NA,NA,"",NA,"37"
"",NA,"",NA,"",NA,NA,NA,NA,NA,NA,NA,"","",1,1,"2024-08-30_12h38.18.860","IAT(Formal)","2021.2.3","MacIntel",58.82352941,"",NA,"",NA,NA,NA,NA,NA,NA,NA,"","","",NA,"i",1,1.368,NA,NA,NA,NA,NA,"自私","i","",NA,0,49,49,43,1,"",NA,"",NA,NA,NA,NA,NA,NA,NA,"",NA,"",NA,NA,NA,NA,NA,NA,NA,"","","",NA,"",NA,NA,NA,NA,NA,NA,NA,"",NA,"37"
"",NA,"",NA,"",NA,NA,NA,NA,NA,NA,NA,"","",1,1,"2024-08-30_12h38.18.860","IAT(Formal)","2021.2.3","MacIntel",58.82352941,"",NA,"",NA,NA,NA,NA,NA,NA,NA,"","","",NA,"i",1,0.806,NA,NA,NA,NA,NA,"他们","i","",NA,0,50,50,76,1,"",NA,"",NA,NA,NA,NA,NA,NA,NA,"",NA,"",NA,NA,NA,NA,NA,NA,NA,"","","",NA,"",NA,NA,NA,NA,NA,NA,NA,"",NA,"37"
"",NA,"",NA,"",NA,NA,NA,NA,NA,NA,NA,"","",1,1,"2024-08-30_12h38.18.860","IAT(Formal)","2021.2.3","MacIntel",58.82352941,"",NA,"",NA,NA,NA,NA,NA,NA,NA,"","","",NA,"i",1,0.57,NA,NA,NA,NA,NA,"消极","i","",NA,0,51,51,35,1,"",NA,"",NA,NA,NA,NA,NA,NA,NA,"",NA,"",NA,NA,NA,NA,NA,NA,NA,"","","",NA,"",NA,NA,NA,NA,NA,NA,NA,"",NA,"37"
"",NA,"",NA,"",NA,NA,NA,NA,NA,NA,NA,"","",1,1,"2024-08-30_12h38.18.860","IAT(Formal)","2021.2.3","MacIntel",58.82352941,"",NA,"",NA,NA,NA,NA,NA,NA,NA,"","","",NA,"e",1,0.701,NA,NA,NA,NA,NA,"俺","e","",NA,0,52,52,74,1,"",NA,"",NA,NA,NA,NA,NA,NA,NA,"",NA,"",NA,NA,NA,NA,NA,NA,NA,"","","",NA,"",NA,NA,NA,NA,NA,NA,NA,"",NA,"37"
"",NA,"",NA,"",NA,NA,NA,NA,NA,NA,NA,"","",1,1,"2024-08-30_12h38.18.860","IAT(Formal)","2021.2.3","MacIntel",58.82352941,"",NA,"",NA,NA,NA,NA,NA,NA,NA,"","","",NA,"e",1,0.657,NA,NA,NA,NA,NA,"我的","e","",NA,0,53,53,51,1,"",NA,"",NA,NA,NA,NA,NA,NA,NA,"",NA,"",NA,NA,NA,NA,NA,NA,NA,"","","",NA,"",NA,NA,NA,NA,NA,NA,NA,"",NA,"37"
"",NA,"",NA,"",NA,NA,NA,NA,NA,NA,NA,"","",1,1,"2024-08-30_12h38.18.860","IAT(Formal)","2021.2.3","MacIntel",58.82352941,"",NA,"",NA,NA,NA,NA,NA,NA,NA,"","","",NA,"e",1,0.849,NA,NA,NA,NA,NA,"热情","e","",NA,0,54,54,27,1,"",NA,"",NA,NA,NA,NA,NA,NA,NA,"",NA,"",NA,NA,NA,NA,NA,NA,NA,"","","",NA,"",NA,NA,NA,NA,NA,NA,NA,"",NA,"37"
"",NA,"",NA,"",NA,NA,NA,NA,NA,NA,NA,"","",1,1,"2024-08-30_12h38.18.860","IAT(Formal)","2021.2.3","MacIntel",58.82352941,"",NA,"",NA,NA,NA,NA,NA,NA,NA,"","","",NA,"i",1,0.968,NA,NA,NA,NA,NA,"他人","i","",NA,0,55,55,68,1,"",NA,"",NA,NA,NA,NA,NA,NA,NA,"",NA,"",NA,NA,NA,NA,NA,NA,NA,"","","",NA,"",NA,NA,NA,NA,NA,NA,NA,"",NA,"37"
"",NA,"",NA,"",NA,NA,NA,NA,NA,NA,NA,"","",1,1,"2024-08-30_12h38.18.860","IAT(Formal)","2021.2.3","MacIntel",58.82352941,"",NA,"",NA,NA,NA,NA,NA,NA,NA,"","","",NA,"i",1,1.102,NA,NA,NA,NA,NA,"散漫","i","",NA,0,56,56,41,1,"",NA,"",NA,NA,NA,NA,NA,NA,NA,"",NA,"",NA,NA,NA,NA,NA,NA,NA,"","","",NA,"",NA,NA,NA,NA,NA,NA,NA,"",NA,"37"
"",NA,"",NA,"",NA,NA,NA,NA,NA,NA,NA,"","",1,1,"2024-08-30_12h38.18.860","IAT(Formal)","2021.2.3","MacIntel",58.82352941,"",NA,"",NA,NA,NA,NA,NA,NA,NA,"","","",NA,"e",1,1.417,NA,NA,NA,NA,NA,"朴实","e","",NA,0,57,57,24,1,"",NA,"",NA,NA,NA,NA,NA,NA,NA,"",NA,"",NA,NA,NA,NA,NA,NA,NA,"","","",NA,"",NA,NA,NA,NA,NA,NA,NA,"",NA,"37"
"",NA,"",NA,"",NA,NA,NA,NA,NA,NA,NA,"","",1,1,"2024-08-30_12h38.18.860","IAT(Formal)","2021.2.3","MacIntel",58.82352941,"",NA,"",NA,NA,NA,NA,NA,NA,NA,"","","",NA,"i",1,0.664,NA,NA,NA,NA,NA,"他","i","",NA,0,58,58,5,1,"",NA,"",NA,NA,NA,NA,NA,NA,NA,"",NA,"",NA,NA,NA,NA,NA,NA,NA,"","","",NA,"",NA,NA,NA,NA,NA,NA,NA,"",NA,"37"
"",NA,"",NA,"",NA,NA,NA,NA,NA,NA,NA,"","",1,1,"2024-08-30_12h38.18.860","IAT(Formal)","2021.2.3","MacIntel",58.82352941,"",NA,"",NA,NA,NA,NA,NA,NA,NA,"","","",NA,"e",1,0.497,NA,NA,NA,NA,NA,"自己","e","",NA,0,59,59,63,1,"",NA,"",NA,NA,NA,NA,NA,NA,NA,"",NA,"",NA,NA,NA,NA,NA,NA,NA,"","","",NA,"",NA,NA,NA,NA,NA,NA,NA,"",NA,"37"
"",NA,"",NA,"",NA,NA,NA,NA,NA,NA,NA,"","",1,1,"2024-08-30_12h38.18.860","IAT(Formal)","2021.2.3","MacIntel",58.82352941,"",NA,"",NA,NA,NA,NA,NA,NA,NA,"","","",NA,"i",1,0.549,NA,NA,NA,NA,NA,"他的","i","",NA,0,60,60,57,1,"",NA,"",NA,NA,NA,NA,NA,NA,NA,"",NA,"",NA,NA,NA,NA,NA,NA,NA,"","","",NA,"",NA,NA,NA,NA,NA,NA,NA,"",NA,"37"
"",NA,"",NA,"",NA,NA,NA,NA,NA,NA,NA,"","",1,1,"2024-08-30_12h38.18.860","IAT(Formal)","2021.2.3","MacIntel",58.82352941,"",NA,"",NA,NA,NA,NA,NA,NA,NA,"","","",NA,"i",1,0.588,NA,NA,NA,NA,NA,"其他","i","",NA,0,61,61,59,1,"",NA,"",NA,NA,NA,NA,NA,NA,NA,"",NA,"",NA,NA,NA,NA,NA,NA,NA,"","","",NA,"",NA,NA,NA,NA,NA,NA,NA,"",NA,"37"
"",NA,"",NA,"",NA,NA,NA,NA,NA,NA,NA,"","",1,1,"2024-08-30_12h38.18.860","IAT(Formal)","2021.2.3","MacIntel",58.82352941,"",NA,"",NA,NA,NA,NA,NA,NA,NA,"","","",NA,"i",1,1.143,NA,NA,NA,NA,NA,"冒失","i","",NA,0,62,62,39,1,"",NA,"",NA,NA,NA,NA,NA,NA,NA,"",NA,"",NA,NA,NA,NA,NA,NA,NA,"","","",NA,"",NA,NA,NA,NA,NA,NA,NA,"",NA,"37"
"",NA,"",NA,"",NA,NA,NA,NA,NA,NA,NA,"","",1,1,"2024-08-30_12h38.18.860","IAT(Formal)","2021.2.3","MacIntel",58.82352941,"",NA,"",NA,NA,NA,NA,NA,NA,NA,"","","",NA,"i",1,0.717,NA,NA,NA,NA,NA,"执拗","i","",NA,0,63,63,40,1,"",NA,"",NA,NA,NA,NA,NA,NA,NA,"",NA,"",NA,NA,NA,NA,NA,NA,NA,"","","",NA,"",NA,NA,NA,NA,NA,NA,NA,"",NA,"37"
"",NA,"",NA,"",NA,NA,NA,NA,NA,NA,NA,"","",1,1,"2024-08-30_12h38.18.860","IAT(Formal)","2021.2.3","MacIntel",58.82352941,"",NA,"",NA,NA,NA,NA,NA,NA,NA,"","","",NA,"e",1,1.084,NA,NA,NA,NA,NA,"活泼","e","",NA,0,64,64,28,1,"",NA,"",NA,NA,NA,NA,NA,NA,NA,"",NA,"",NA,NA,NA,NA,NA,NA,NA,"","","",NA,"",NA,NA,NA,NA,NA,NA,NA,"",NA,"37"
"",NA,"",NA,"",NA,NA,NA,NA,NA,NA,NA,"","",1,1,"2024-08-30_12h38.18.860","IAT(Formal)","2021.2.3","MacIntel",58.82352941,"",NA,"",NA,NA,NA,NA,NA,NA,NA,"","","",NA,"e",1,0.784,NA,NA,NA,NA,NA,"乐观","e","",NA,0,65,65,14,1,"",NA,"",NA,NA,NA,NA,NA,NA,NA,"",NA,"",NA,NA,NA,NA,NA,NA,NA,"","","",NA,"",NA,NA,NA,NA,NA,NA,NA,"",NA,"37"
"",NA,"",NA,"",NA,NA,NA,NA,NA,NA,NA,"","",1,1,"2024-08-30_12h38.18.860","IAT(Formal)","2021.2.3","MacIntel",58.82352941,"",NA,"",NA,NA,NA,NA,NA,NA,NA,"","","",NA,"e",1,0.781,NA,NA,NA,NA,NA,"我们","e","",NA,0,66,66,62,1,"",NA,"",NA,NA,NA,NA,NA,NA,NA,"",NA,"",NA,NA,NA,NA,NA,NA,NA,"","","",NA,"",NA,NA,NA,NA,NA,NA,NA,"",NA,"37"
"",NA,"",NA,"",NA,NA,NA,NA,NA,NA,NA,"","",1,1,"2024-08-30_12h38.18.860","IAT(Formal)","2021.2.3","MacIntel",58.82352941,"",NA,"",NA,NA,NA,NA,NA,NA,NA,"","","",NA,"i",1,1.136,NA,NA,NA,NA,NA,"固执","i","",NA,0,67,67,47,1,"",NA,"",NA,NA,NA,NA,NA,NA,NA,"",NA,"",NA,NA,NA,NA,NA,NA,NA,"","","",NA,"",NA,NA,NA,NA,NA,NA,NA,"",NA,"37"
"",NA,"",NA,"",NA,NA,NA,NA,NA,NA,NA,"","",1,1,"2024-08-30_12h38.18.860","IAT(Formal)","2021.2.3","MacIntel",58.82352941,"",NA,"",NA,NA,NA,NA,NA,NA,NA,"","","",NA,"e",1,0.616,NA,NA,NA,NA,NA,"公正","e","",NA,0,68,68,23,1,"",NA,"",NA,NA,NA,NA,NA,NA,NA,"",NA,"",NA,NA,NA,NA,NA,NA,NA,"","","",NA,"",NA,NA,NA,NA,NA,NA,NA,"",NA,"37"
"",NA,"",NA,"",NA,NA,NA,NA,NA,NA,NA,"","",1,1,"2024-08-30_12h38.18.860","IAT(Formal)","2021.2.3","MacIntel",58.82352941,"",NA,"",NA,NA,NA,NA,NA,NA,NA,"","","",NA,"i",1,1.003,NA,NA,NA,NA,NA,"他","i","",NA,0,69,69,65,1,"",NA,"",NA,NA,NA,NA,NA,NA,NA,"",NA,"",NA,NA,NA,NA,NA,NA,NA,"","","",NA,"",NA,NA,NA,NA,NA,NA,NA,"",NA,"37"
"",NA,"",NA,"",NA,NA,NA,NA,NA,NA,NA,"","",1,1,"2024-08-30_12h38.18.860","IAT(Formal)","2021.2.3","MacIntel",58.82352941,"",NA,"",NA,NA,NA,NA,NA,NA,NA,"","","",NA,"i",1,0.516,NA,NA,NA,NA,NA,"他人","i","",NA,0,70,70,58,1,"",NA,"",NA,NA,NA,NA,NA,NA,NA,"",NA,"",NA,NA,NA,NA,NA,NA,NA,"","","",NA,"",NA,NA,NA,NA,NA,NA,NA,"",NA,"37"
"",NA,"",NA,"",NA,NA,NA,NA,NA,NA,NA,"","",1,1,"2024-08-30_12h38.18.860","IAT(Formal)","2021.2.3","MacIntel",58.82352941,"",NA,"",NA,NA,NA,NA,NA,NA,NA,"","","",NA,"e",1,0.606,NA,NA,NA,NA,NA,"细腻","e","",NA,0,71,71,25,1,"",NA,"",NA,NA,NA,NA,NA,NA,NA,"",NA,"",NA,NA,NA,NA,NA,NA,NA,"","","",NA,"",NA,NA,NA,NA,NA,NA,NA,"",NA,"37"
"",NA,"",NA,"",NA,NA,NA,NA,NA,NA,NA,"","",1,1,"2024-08-30_12h38.18.860","IAT(Formal)","2021.2.3","MacIntel",58.82352941,"",NA,"",NA,NA,NA,NA,NA,NA,NA,"","","",NA,"i",1,0.717,NA,NA,NA,NA,NA,"他","i","",NA,0,72,72,75,1,"",NA,"",NA,NA,NA,NA,NA,NA,NA,"",NA,"",NA,NA,NA,NA,NA,NA,NA,"","","",NA,"",NA,NA,NA,NA,NA,NA,NA,"",NA,"37"
"",NA,"",NA,"",NA,NA,NA,NA,NA,NA,NA,"","",1,1,"2024-08-30_12h38.18.860","IAT(Formal)","2021.2.3","MacIntel",58.82352941,"",NA,"",NA,NA,NA,NA,NA,NA,NA,"","","",NA,"i",1,0.969,NA,NA,NA,NA,NA,"他的","i","",NA,0,73,73,7,1,"",NA,"",NA,NA,NA,NA,NA,NA,NA,"",NA,"",NA,NA,NA,NA,NA,NA,NA,"","","",NA,"",NA,NA,NA,NA,NA,NA,NA,"",NA,"37"
"",NA,"",NA,"",NA,NA,NA,NA,NA,NA,NA,"","",1,1,"2024-08-30_12h38.18.860","IAT(Formal)","2021.2.3","MacIntel",58.82352941,"",NA,"",NA,NA,NA,NA,NA,NA,NA,"","","",NA,"e",1,0.635,NA,NA,NA,NA,NA,"杰出","e","",NA,0,74,74,13,1,"",NA,"",NA,NA,NA,NA,NA,NA,NA,"",NA,"",NA,NA,NA,NA,NA,NA,NA,"","","",NA,"",NA,NA,NA,NA,NA,NA,NA,"",NA,"37"
"",NA,"",NA,"",NA,NA,NA,NA,NA,NA,NA,"","",1,1,"2024-08-30_12h38.18.860","IAT(Formal)","2021.2.3","MacIntel",58.82352941,"",NA,"",NA,NA,NA,NA,NA,NA,NA,"","","",NA,"e",1,0.73,NA,NA,NA,NA,NA,"勇敢","e","",NA,0,75,75,17,1,"",NA,"",NA,NA,NA,NA,NA,NA,NA,"",NA,"",NA,NA,NA,NA,NA,NA,NA,"","","",NA,"",NA,NA,NA,NA,NA,NA,NA,"",NA,"37"
"",NA,"",NA,"",NA,NA,NA,NA,NA,NA,NA,"","",1,1,"2024-08-30_12h38.18.860","IAT(Formal)","2021.2.3","MacIntel",58.82352941,"",NA,"",NA,NA,NA,NA,NA,NA,NA,"","","",NA,"e",1,0.581,NA,NA,NA,NA,NA,"我","e","",NA,0,76,76,50,1,"",NA,"",NA,NA,NA,NA,NA,NA,NA,"",NA,"",NA,NA,NA,NA,NA,NA,NA,"","","",NA,"",NA,NA,NA,NA,NA,NA,NA,"",NA,"37"
"",NA,"",NA,"",NA,NA,NA,NA,NA,NA,NA,"","",1,1,"2024-08-30_12h38.18.860","IAT(Formal)","2021.2.3","MacIntel",58.82352941,"",NA,"",NA,NA,NA,NA,NA,NA,NA,"","","",NA,"e",1,0.618,NA,NA,NA,NA,NA,"自己","e","",NA,0,77,77,73,1,"",NA,"",NA,NA,NA,NA,NA,NA,NA,"",NA,"",NA,NA,NA,NA,NA,NA,NA,"","","",NA,"",NA,NA,NA,NA,NA,NA,NA,"",NA,"37"
"",NA,"",NA,"",NA,NA,NA,NA,NA,NA,NA,"","",1,1,"2024-08-30_12h38.18.860","IAT(Formal)","2021.2.3","MacIntel",58.82352941,"",NA,"",NA,NA,NA,NA,NA,NA,NA,"","","",NA,"e",1,0.583,NA,NA,NA,NA,NA,"我的","e","",NA,0,78,78,1,1,"",NA,"",NA,NA,NA,NA,NA,NA,NA,"",NA,"",NA,NA,NA,NA,NA,NA,NA,"","","",NA,"",NA,NA,NA,NA,NA,NA,NA,"",NA,"37"
"",NA,"",NA,"",NA,NA,NA,NA,NA,NA,NA,"","",1,1,"2024-08-30_12h38.18.860","IAT(Formal)","2021.2.3","MacIntel",58.82352941,"",NA,"",NA,NA,NA,NA,NA,NA,NA,"","","",NA,"e",1,0.652,NA,NA,NA,NA,NA,"聪明","e","",NA,0,79,79,12,1,"",NA,"",NA,NA,NA,NA,NA,NA,NA,"",NA,"",NA,NA,NA,NA,NA,NA,NA,"","","",NA,"",NA,NA,NA,NA,NA,NA,NA,"",NA,"37"
"",NA,"",NA,"",NA,NA,NA,NA,NA,NA,NA,"","",1,1,"2024-08-30_12h38.18.860","IAT(Formal)","2021.2.3","MacIntel",58.82352941,"",NA,"",NA,NA,NA,NA,NA,NA,NA,"","","",NA,"e",1,0.585,NA,NA,NA,NA,NA,"自己","e","",NA,1,0,80,73,1,"",NA,"",NA,NA,NA,NA,NA,NA,NA,"",NA,"",NA,NA,NA,NA,NA,NA,NA,"","","",NA,"",NA,NA,NA,NA,NA,NA,NA,"",NA,"37"
"",NA,"",NA,"",NA,NA,NA,NA,NA,NA,NA,"","",1,1,"2024-08-30_12h38.18.860","IAT(Formal)","2021.2.3","MacIntel",58.82352941,"",NA,"",NA,NA,NA,NA,NA,NA,NA,"","","",NA,"e",1,0.565,NA,NA,NA,NA,NA,"公正","e","",NA,1,1,81,23,1,"",NA,"",NA,NA,NA,NA,NA,NA,NA,"",NA,"",NA,NA,NA,NA,NA,NA,NA,"","","",NA,"",NA,NA,NA,NA,NA,NA,NA,"",NA,"37"
"",NA,"",NA,"",NA,NA,NA,NA,NA,NA,NA,"","",1,1,"2024-08-30_12h38.18.860","IAT(Formal)","2021.2.3","MacIntel",58.82352941,"",NA,"",NA,NA,NA,NA,NA,NA,NA,"","","",NA,"e",1,0.597,NA,NA,NA,NA,NA,"崇高","e","",NA,1,2,82,11,1,"",NA,"",NA,NA,NA,NA,NA,NA,NA,"",NA,"",NA,NA,NA,NA,NA,NA,NA,"","","",NA,"",NA,NA,NA,NA,NA,NA,NA,"",NA,"37"
"",NA,"",NA,"",NA,NA,NA,NA,NA,NA,NA,"","",1,1,"2024-08-30_12h38.18.860","IAT(Formal)","2021.2.3","MacIntel",58.82352941,"",NA,"",NA,NA,NA,NA,NA,NA,NA,"","","",NA,"i",1,0.718,NA,NA,NA,NA,NA,"虚伪","i","",NA,1,3,83,31,1,"",NA,"",NA,NA,NA,NA,NA,NA,NA,"",NA,"",NA,NA,NA,NA,NA,NA,NA,"","","",NA,"",NA,NA,NA,NA,NA,NA,NA,"",NA,"37"
"",NA,"",NA,"",NA,NA,NA,NA,NA,NA,NA,"","",1,1,"2024-08-30_12h38.18.860","IAT(Formal)","2021.2.3","MacIntel",58.82352941,"",NA,"",NA,NA,NA,NA,NA,NA,NA,"","","",NA,"i",1,0.663,NA,NA,NA,NA,NA,"鲁莽","i","",NA,1,4,84,38,1,"",NA,"",NA,NA,NA,NA,NA,NA,NA,"",NA,"",NA,NA,NA,NA,NA,NA,NA,"","","",NA,"",NA,NA,NA,NA,NA,NA,NA,"",NA,"37"
"",NA,"",NA,"",NA,NA,NA,NA,NA,NA,NA,"","",1,1,"2024-08-30_12h38.18.860","IAT(Formal)","2021.2.3","MacIntel",58.82352941,"",NA,"",NA,NA,NA,NA,NA,NA,NA,"","","",NA,"i",1,0.951,NA,NA,NA,NA,NA,"其他","i","",NA,1,5,85,69,1,"",NA,"",NA,NA,NA,NA,NA,NA,NA,"",NA,"",NA,NA,NA,NA,NA,NA,NA,"","","",NA,"",NA,NA,NA,NA,NA,NA,NA,"",NA,"37"
"",NA,"",NA,"",NA,NA,NA,NA,NA,NA,NA,"","",1,1,"2024-08-30_12h38.18.860","IAT(Formal)","2021.2.3","MacIntel",58.82352941,"",NA,"",NA,NA,NA,NA,NA,NA,NA,"","","",NA,"e",1,0.656,NA,NA,NA,NA,NA,"活泼","e","",NA,1,6,86,28,1,"",NA,"",NA,NA,NA,NA,NA,NA,NA,"",NA,"",NA,NA,NA,NA,NA,NA,NA,"","","",NA,"",NA,NA,NA,NA,NA,NA,NA,"",NA,"37"
"",NA,"",NA,"",NA,NA,NA,NA,NA,NA,NA,"","",1,1,"2024-08-30_12h38.18.860","IAT(Formal)","2021.2.3","MacIntel",58.82352941,"",NA,"",NA,NA,NA,NA,NA,NA,NA,"","","",NA,"e",1,0.931,NA,NA,NA,NA,NA,"正直","e","",NA,1,7,87,16,1,"",NA,"",NA,NA,NA,NA,NA,NA,NA,"",NA,"",NA,NA,NA,NA,NA,NA,NA,"","","",NA,"",NA,NA,NA,NA,NA,NA,NA,"",NA,"37"
"",NA,"",NA,"",NA,NA,NA,NA,NA,NA,NA,"","",1,1,"2024-08-30_12h38.18.860","IAT(Formal)","2021.2.3","MacIntel",58.82352941,"",NA,"",NA,NA,NA,NA,NA,NA,NA,"","","",NA,"i",1,0.681,NA,NA,NA,NA,NA,"他们","i","",NA,1,8,88,66,1,"",NA,"",NA,NA,NA,NA,NA,NA,NA,"",NA,"",NA,NA,NA,NA,NA,NA,NA,"","","",NA,"",NA,NA,NA,NA,NA,NA,NA,"",NA,"37"
"",NA,"",NA,"",NA,NA,NA,NA,NA,NA,NA,"","",1,1,"2024-08-30_12h38.18.860","IAT(Formal)","2021.2.3","MacIntel",58.82352941,"",NA,"",NA,NA,NA,NA,NA,NA,NA,"","","",NA,"i",1,0.669,NA,NA,NA,NA,NA,"悲观","i","",NA,1,9,89,34,1,"",NA,"",NA,NA,NA,NA,NA,NA,NA,"",NA,"",NA,NA,NA,NA,NA,NA,NA,"","","",NA,"",NA,NA,NA,NA,NA,NA,NA,"",NA,"37"
"",NA,"",NA,"",NA,NA,NA,NA,NA,NA,NA,"","",1,1,"2024-08-30_12h38.18.860","IAT(Formal)","2021.2.3","MacIntel",58.82352941,"",NA,"",NA,NA,NA,NA,NA,NA,NA,"","","",NA,"e",1,0.73,NA,NA,NA,NA,NA,"俺","e","",NA,1,10,90,74,1,"",NA,"",NA,NA,NA,NA,NA,NA,NA,"",NA,"",NA,NA,NA,NA,NA,NA,NA,"","","",NA,"",NA,NA,NA,NA,NA,NA,NA,"",NA,"37"
"",NA,"",NA,"",NA,NA,NA,NA,NA,NA,NA,"","",1,1,"2024-08-30_12h38.18.860","IAT(Formal)","2021.2.3","MacIntel",58.82352941,"",NA,"",NA,NA,NA,NA,NA,NA,NA,"","","",NA,"e",1,0.905,NA,NA,NA,NA,NA,"诚恳","e","",NA,1,11,91,29,1,"",NA,"",NA,NA,NA,NA,NA,NA,NA,"",NA,"",NA,NA,NA,NA,NA,NA,NA,"","","",NA,"",NA,NA,NA,NA,NA,NA,NA,"",NA,"37"
"",NA,"",NA,"",NA,NA,NA,NA,NA,NA,NA,"","",1,1,"2024-08-30_12h38.18.860","IAT(Formal)","2021.2.3","MacIntel",58.82352941,"",NA,"",NA,NA,NA,NA,NA,NA,NA,"","","",NA,"i",1,0.655,NA,NA,NA,NA,NA,"其他","i","",NA,1,12,92,9,1,"",NA,"",NA,NA,NA,NA,NA,NA,NA,"",NA,"",NA,NA,NA,NA,NA,NA,NA,"","","",NA,"",NA,NA,NA,NA,NA,NA,NA,"",NA,"37"
"",NA,"",NA,"",NA,NA,NA,NA,NA,NA,NA,"","",1,1,"2024-08-30_12h38.18.860","IAT(Formal)","2021.2.3","MacIntel",58.82352941,"",NA,"",NA,NA,NA,NA,NA,NA,NA,"","","",NA,"i",1,0.903,NA,NA,NA,NA,NA,"其他","i","",NA,1,13,93,59,1,"",NA,"",NA,NA,NA,NA,NA,NA,NA,"",NA,"",NA,NA,NA,NA,NA,NA,NA,"","","",NA,"",NA,NA,NA,NA,NA,NA,NA,"",NA,"37"
"",NA,"",NA,"",NA,NA,NA,NA,NA,NA,NA,"","",1,1,"2024-08-30_12h38.18.860","IAT(Formal)","2021.2.3","MacIntel",58.82352941,"",NA,"",NA,NA,NA,NA,NA,NA,NA,"","","",NA,"e",1,0.872,NA,NA,NA,NA,NA,"自己","e","",NA,1,14,94,3,1,"",NA,"",NA,NA,NA,NA,NA,NA,NA,"",NA,"",NA,NA,NA,NA,NA,NA,NA,"","","",NA,"",NA,NA,NA,NA,NA,NA,NA,"",NA,"37"
"",NA,"",NA,"",NA,NA,NA,NA,NA,NA,NA,"","",1,1,"2024-08-30_12h38.18.860","IAT(Formal)","2021.2.3","MacIntel",58.82352941,"",NA,"",NA,NA,NA,NA,NA,NA,NA,"","","",NA,"e",1,0.935,NA,NA,NA,NA,NA,"俺","e","",NA,1,15,95,4,1,"",NA,"",NA,NA,NA,NA,NA,NA,NA,"",NA,"",NA,NA,NA,NA,NA,NA,NA,"","","",NA,"",NA,NA,NA,NA,NA,NA,NA,"",NA,"37"
"",NA,"",NA,"",NA,NA,NA,NA,NA,NA,NA,"","",1,1,"2024-08-30_12h38.18.860","IAT(Formal)","2021.2.3","MacIntel",58.82352941,"",NA,"",NA,NA,NA,NA,NA,NA,NA,"","","",NA,"e",1,1.033,NA,NA,NA,NA,NA,"我们","e","",NA,1,16,96,52,1,"",NA,"",NA,NA,NA,NA,NA,NA,NA,"",NA,"",NA,NA,NA,NA,NA,NA,NA,"","","",NA,"",NA,NA,NA,NA,NA,NA,NA,"",NA,"37"
"",NA,"",NA,"",NA,NA,NA,NA,NA,NA,NA,"","",1,1,"2024-08-30_12h38.18.860","IAT(Formal)","2021.2.3","MacIntel",58.82352941,"",NA,"",NA,NA,NA,NA,NA,NA,NA,"","","",NA,"e",1,0.657,NA,NA,NA,NA,NA,"朴实","e","",NA,1,17,97,24,1,"",NA,"",NA,NA,NA,NA,NA,NA,NA,"",NA,"",NA,NA,NA,NA,NA,NA,NA,"","","",NA,"",NA,NA,NA,NA,NA,NA,NA,"",NA,"37"
"",NA,"",NA,"",NA,NA,NA,NA,NA,NA,NA,"","",1,1,"2024-08-30_12h38.18.860","IAT(Formal)","2021.2.3","MacIntel",58.82352941,"",NA,"",NA,NA,NA,NA,NA,NA,NA,"","","",NA,"e",1,0.481,NA,NA,NA,NA,NA,"我的","e","",NA,1,18,98,61,1,"",NA,"",NA,NA,NA,NA,NA,NA,NA,"",NA,"",NA,NA,NA,NA,NA,NA,NA,"","","",NA,"",NA,NA,NA,NA,NA,NA,NA,"",NA,"37"
"",NA,"",NA,"",NA,NA,NA,NA,NA,NA,NA,"","",1,1,"2024-08-30_12h38.18.860","IAT(Formal)","2021.2.3","MacIntel",58.82352941,"",NA,"",NA,NA,NA,NA,NA,NA,NA,"","","",NA,"i",1,0.852,NA,NA,NA,NA,NA,"自卑","i","",NA,1,19,99,36,1,"",NA,"",NA,NA,NA,NA,NA,NA,NA,"",NA,"",NA,NA,NA,NA,NA,NA,NA,"","","",NA,"",NA,NA,NA,NA,NA,NA,NA,"",NA,"37"
"",NA,"",NA,"",NA,NA,NA,NA,NA,NA,NA,"","",1,1,"2024-08-30_12h38.18.860","IAT(Formal)","2021.2.3","MacIntel",58.82352941,"",NA,"",NA,NA,NA,NA,NA,NA,NA,"","","",NA,"e",1,0.591,NA,NA,NA,NA,NA,"诚实","e","",NA,1,20,100,15,1,"",NA,"",NA,NA,NA,NA,NA,NA,NA,"",NA,"",NA,NA,NA,NA,NA,NA,NA,"","","",NA,"",NA,NA,NA,NA,NA,NA,NA,"",NA,"37"
"",NA,"",NA,"",NA,NA,NA,NA,NA,NA,NA,"","",1,1,"2024-08-30_12h38.18.860","IAT(Formal)","2021.2.3","MacIntel",58.82352941,"",NA,"",NA,NA,NA,NA,NA,NA,NA,"","","",NA,"i",1,0.685,NA,NA,NA,NA,NA,"他的","i","",NA,1,21,101,7,1,"",NA,"",NA,NA,NA,NA,NA,NA,NA,"",NA,"",NA,NA,NA,NA,NA,NA,NA,"","","",NA,"",NA,NA,NA,NA,NA,NA,NA,"",NA,"37"
"",NA,"",NA,"",NA,NA,NA,NA,NA,NA,NA,"","",1,1,"2024-08-30_12h38.18.860","IAT(Formal)","2021.2.3","MacIntel",58.82352941,"",NA,"",NA,NA,NA,NA,NA,NA,NA,"","","",NA,"e",1,0.555,NA,NA,NA,NA,NA,"优秀","e","",NA,1,22,102,10,1,"",NA,"",NA,NA,NA,NA,NA,NA,NA,"",NA,"",NA,NA,NA,NA,NA,NA,NA,"","","",NA,"",NA,NA,NA,NA,NA,NA,NA,"",NA,"37"
"",NA,"",NA,"",NA,NA,NA,NA,NA,NA,NA,"","",1,1,"2024-08-30_12h38.18.860","IAT(Formal)","2021.2.3","MacIntel",58.82352941,"",NA,"",NA,NA,NA,NA,NA,NA,NA,"","","",NA,"e",1,0.719,NA,NA,NA,NA,NA,"机智","e","",NA,1,23,103,19,1,"",NA,"",NA,NA,NA,NA,NA,NA,NA,"",NA,"",NA,NA,NA,NA,NA,NA,NA,"","","",NA,"",NA,NA,NA,NA,NA,NA,NA,"",NA,"37"
"",NA,"",NA,"",NA,NA,NA,NA,NA,NA,NA,"","",1,1,"2024-08-30_12h38.18.860","IAT(Formal)","2021.2.3","MacIntel",58.82352941,"",NA,"",NA,NA,NA,NA,NA,NA,NA,"","","",NA,"i",1,0.868,NA,NA,NA,NA,NA,"他人","i","",NA,1,24,104,78,1,"",NA,"",NA,NA,NA,NA,NA,NA,NA,"",NA,"",NA,NA,NA,NA,NA,NA,NA,"","","",NA,"",NA,NA,NA,NA,NA,NA,NA,"",NA,"37"
"",NA,"",NA,"",NA,NA,NA,NA,NA,NA,NA,"","",1,1,"2024-08-30_12h38.18.860","IAT(Formal)","2021.2.3","MacIntel",58.82352941,"",NA,"",NA,NA,NA,NA,NA,NA,NA,"","","",NA,"e",1,0.702,NA,NA,NA,NA,NA,"稳重","e","",NA,1,25,105,21,1,"",NA,"",NA,NA,NA,NA,NA,NA,NA,"",NA,"",NA,NA,NA,NA,NA,NA,NA,"","","",NA,"",NA,NA,NA,NA,NA,NA,NA,"",NA,"37"
"",NA,"",NA,"",NA,NA,NA,NA,NA,NA,NA,"","",1,1,"2024-08-30_12h38.18.860","IAT(Formal)","2021.2.3","MacIntel",58.82352941,"",NA,"",NA,NA,NA,NA,NA,NA,NA,"","","",NA,"i",1,0.57,NA,NA,NA,NA,NA,"猖狂","i","",NA,1,26,106,45,1,"",NA,"",NA,NA,NA,NA,NA,NA,NA,"",NA,"",NA,NA,NA,NA,NA,NA,NA,"","","",NA,"",NA,NA,NA,NA,NA,NA,NA,"",NA,"37"
"",NA,"",NA,"",NA,NA,NA,NA,NA,NA,NA,"","",1,1,"2024-08-30_12h38.18.860","IAT(Formal)","2021.2.3","MacIntel",58.82352941,"",NA,"",NA,NA,NA,NA,NA,NA,NA,"","","",NA,"e",1,1.401,NA,NA,NA,NA,NA,"冷静","e","",NA,1,27,107,26,1,"",NA,"",NA,NA,NA,NA,NA,NA,NA,"",NA,"",NA,NA,NA,NA,NA,NA,NA,"","","",NA,"",NA,NA,NA,NA,NA,NA,NA,"",NA,"37"
"",NA,"",NA,"",NA,NA,NA,NA,NA,NA,NA,"","",1,1,"2024-08-30_12h38.18.860","IAT(Formal)","2021.2.3","MacIntel",58.82352941,"",NA,"",NA,NA,NA,NA,NA,NA,NA,"","","",NA,"i",1,0.769,NA,NA,NA,NA,NA,"他","i","",NA,1,28,108,55,1,"",NA,"",NA,NA,NA,NA,NA,NA,NA,"",NA,"",NA,NA,NA,NA,NA,NA,NA,"","","",NA,"",NA,NA,NA,NA,NA,NA,NA,"",NA,"37"
"",NA,"",NA,"",NA,NA,NA,NA,NA,NA,NA,"","",1,1,"2024-08-30_12h38.18.860","IAT(Formal)","2021.2.3","MacIntel",58.82352941,"",NA,"",NA,NA,NA,NA,NA,NA,NA,"","","",NA,"i",1,0.67,NA,NA,NA,NA,NA,"暴躁","i","",NA,1,29,109,44,1,"",NA,"",NA,NA,NA,NA,NA,NA,NA,"",NA,"",NA,NA,NA,NA,NA,NA,NA,"","","",NA,"",NA,NA,NA,NA,NA,NA,NA,"",NA,"37"
"",NA,"",NA,"",NA,NA,NA,NA,NA,NA,NA,"","",1,1,"2024-08-30_12h38.18.860","IAT(Formal)","2021.2.3","MacIntel",58.82352941,"",NA,"",NA,NA,NA,NA,NA,NA,NA,"","","",NA,"i",1,0.735,NA,NA,NA,NA,NA,"傲慢","i","",NA,1,30,110,37,1,"",NA,"",NA,NA,NA,NA,NA,NA,NA,"",NA,"",NA,NA,NA,NA,NA,NA,NA,"","","",NA,"",NA,NA,NA,NA,NA,NA,NA,"",NA,"37"
"",NA,"",NA,"",NA,NA,NA,NA,NA,NA,NA,"","",1,1,"2024-08-30_12h38.18.860","IAT(Formal)","2021.2.3","MacIntel",58.82352941,"",NA,"",NA,NA,NA,NA,NA,NA,NA,"","","",NA,"e",1,1.465,NA,NA,NA,NA,NA,"我","e","",NA,1,31,111,50,1,"",NA,"",NA,NA,NA,NA,NA,NA,NA,"",NA,"",NA,NA,NA,NA,NA,NA,NA,"","","",NA,"",NA,NA,NA,NA,NA,NA,NA,"",NA,"37"
"",NA,"",NA,"",NA,NA,NA,NA,NA,NA,NA,"","",1,1,"2024-08-30_12h38.18.860","IAT(Formal)","2021.2.3","MacIntel",58.82352941,"",NA,"",NA,NA,NA,NA,NA,NA,NA,"","","",NA,"i",1,0.685,NA,NA,NA,NA,NA,"他们","i","",NA,1,32,112,76,1,"",NA,"",NA,NA,NA,NA,NA,NA,NA,"",NA,"",NA,NA,NA,NA,NA,NA,NA,"","","",NA,"",NA,NA,NA,NA,NA,NA,NA,"",NA,"37"
"",NA,"",NA,"",NA,NA,NA,NA,NA,NA,NA,"","",1,1,"2024-08-30_12h38.18.860","IAT(Formal)","2021.2.3","MacIntel",58.82352941,"",NA,"",NA,NA,NA,NA,NA,NA,NA,"","","",NA,"e",1,0.657,NA,NA,NA,NA,NA,"热情","e","",NA,1,33,113,27,1,"",NA,"",NA,NA,NA,NA,NA,NA,NA,"",NA,"",NA,NA,NA,NA,NA,NA,NA,"","","",NA,"",NA,NA,NA,NA,NA,NA,NA,"",NA,"37"
"",NA,"",NA,"",NA,NA,NA,NA,NA,NA,NA,"","",1,1,"2024-08-30_12h38.18.860","IAT(Formal)","2021.2.3","MacIntel",58.82352941,"",NA,"",NA,NA,NA,NA,NA,NA,NA,"","","",NA,"e",1,0.631,NA,NA,NA,NA,NA,"聪明","e","",NA,1,34,114,12,1,"",NA,"",NA,NA,NA,NA,NA,NA,NA,"",NA,"",NA,NA,NA,NA,NA,NA,NA,"","","",NA,"",NA,NA,NA,NA,NA,NA,NA,"",NA,"37"
"",NA,"",NA,"",NA,NA,NA,NA,NA,NA,NA,"","",1,1,"2024-08-30_12h38.18.860","IAT(Formal)","2021.2.3","MacIntel",58.82352941,"",NA,"",NA,NA,NA,NA,NA,NA,NA,"","","",NA,"i",1,0.916,NA,NA,NA,NA,NA,"野蛮","i","",NA,1,35,115,46,1,"",NA,"",NA,NA,NA,NA,NA,NA,NA,"",NA,"",NA,NA,NA,NA,NA,NA,NA,"","","",NA,"",NA,NA,NA,NA,NA,NA,NA,"",NA,"37"
"",NA,"",NA,"",NA,NA,NA,NA,NA,NA,NA,"","",1,1,"2024-08-30_12h38.18.860","IAT(Formal)","2021.2.3","MacIntel",58.82352941,"",NA,"",NA,NA,NA,NA,NA,NA,NA,"","","",NA,"e",1,0.653,NA,NA,NA,NA,NA,"我们","e","",NA,1,36,116,2,1,"",NA,"",NA,NA,NA,NA,NA,NA,NA,"",NA,"",NA,NA,NA,NA,NA,NA,NA,"","","",NA,"",NA,NA,NA,NA,NA,NA,NA,"",NA,"37"
"",NA,"",NA,"",NA,NA,NA,NA,NA,NA,NA,"","",1,1,"2024-08-30_12h38.18.860","IAT(Formal)","2021.2.3","MacIntel",58.82352941,"",NA,"",NA,NA,NA,NA,NA,NA,NA,"","","",NA,"e",1,1.305,NA,NA,NA,NA,NA,"我的","e","",NA,1,37,117,1,1,"",NA,"",NA,NA,NA,NA,NA,NA,NA,"",NA,"",NA,NA,NA,NA,NA,NA,NA,"","","",NA,"",NA,NA,NA,NA,NA,NA,NA,"",NA,"37"
"",NA,"",NA,"",NA,NA,NA,NA,NA,NA,NA,"","",1,1,"2024-08-30_12h38.18.860","IAT(Formal)","2021.2.3","MacIntel",58.82352941,"",NA,"",NA,NA,NA,NA,NA,NA,NA,"","","",NA,"i",1,0.815,NA,NA,NA,NA,NA,"其他","i","",NA,1,38,118,79,1,"",NA,"",NA,NA,NA,NA,NA,NA,NA,"",NA,"",NA,NA,NA,NA,NA,NA,NA,"","","",NA,"",NA,NA,NA,NA,NA,NA,NA,"",NA,"37"
"",NA,"",NA,"",NA,NA,NA,NA,NA,NA,NA,"","",1,1,"2024-08-30_12h38.18.860","IAT(Formal)","2021.2.3","MacIntel",58.82352941,"",NA,"",NA,NA,NA,NA,NA,NA,NA,"","","",NA,"i",1,0.685,NA,NA,NA,NA,NA,"他人","i","",NA,1,39,119,58,1,"",NA,"",NA,NA,NA,NA,NA,NA,NA,"",NA,"",NA,NA,NA,NA,NA,NA,NA,"","","",NA,"",NA,NA,NA,NA,NA,NA,NA,"",NA,"37"
"",NA,"",NA,"",NA,NA,NA,NA,NA,NA,NA,"","",1,1,"2024-08-30_12h38.18.860","IAT(Formal)","2021.2.3","MacIntel",58.82352941,"",NA,"",NA,NA,NA,NA,NA,NA,NA,"","","",NA,"i",1,0.441,NA,NA,NA,NA,NA,"他们","i","",NA,1,40,120,56,1,"",NA,"",NA,NA,NA,NA,NA,NA,NA,"",NA,"",NA,NA,NA,NA,NA,NA,NA,"","","",NA,"",NA,NA,NA,NA,NA,NA,NA,"",NA,"37"
"",NA,"",NA,"",NA,NA,NA,NA,NA,NA,NA,"","",1,1,"2024-08-30_12h38.18.860","IAT(Formal)","2021.2.3","MacIntel",58.82352941,"",NA,"",NA,NA,NA,NA,NA,NA,NA,"","","",NA,"e",1,0.915,NA,NA,NA,NA,NA,"俺","e","",NA,1,41,121,64,1,"",NA,"",NA,NA,NA,NA,NA,NA,NA,"",NA,"",NA,NA,NA,NA,NA,NA,NA,"","","",NA,"",NA,NA,NA,NA,NA,NA,NA,"",NA,"37"
"",NA,"",NA,"",NA,NA,NA,NA,NA,NA,NA,"","",1,1,"2024-08-30_12h38.18.860","IAT(Formal)","2021.2.3","MacIntel",58.82352941,"",NA,"",NA,NA,NA,NA,NA,NA,NA,"","","",NA,"e",1,1.332,NA,NA,NA,NA,NA,"自己","e","",NA,1,42,122,53,1,"",NA,"",NA,NA,NA,NA,NA,NA,NA,"",NA,"",NA,NA,NA,NA,NA,NA,NA,"","","",NA,"",NA,NA,NA,NA,NA,NA,NA,"",NA,"37"
"",NA,"",NA,"",NA,NA,NA,NA,NA,NA,NA,"","",1,1,"2024-08-30_12h38.18.860","IAT(Formal)","2021.2.3","MacIntel",58.82352941,"",NA,"",NA,NA,NA,NA,NA,NA,NA,"","","",NA,"i",1,0.674,NA,NA,NA,NA,NA,"凶狠","i","",NA,1,43,123,42,1,"",NA,"",NA,NA,NA,NA,NA,NA,NA,"",NA,"",NA,NA,NA,NA,NA,NA,NA,"","","",NA,"",NA,NA,NA,NA,NA,NA,NA,"",NA,"37"
"",NA,"",NA,"",NA,NA,NA,NA,NA,NA,NA,"","",1,1,"2024-08-30_12h38.18.860","IAT(Formal)","2021.2.3","MacIntel",58.82352941,"",NA,"",NA,NA,NA,NA,NA,NA,NA,"","","",NA,"i",1,0.567,NA,NA,NA,NA,NA,"冒失","i","",NA,1,44,124,39,1,"",NA,"",NA,NA,NA,NA,NA,NA,NA,"",NA,"",NA,NA,NA,NA,NA,NA,NA,"","","",NA,"",NA,NA,NA,NA,NA,NA,NA,"",NA,"37"
"",NA,"",NA,"",NA,NA,NA,NA,NA,NA,NA,"","",1,1,"2024-08-30_12h38.18.860","IAT(Formal)","2021.2.3","MacIntel",58.82352941,"",NA,"",NA,NA,NA,NA,NA,NA,NA,"","","",NA,"i",1,0.569,NA,NA,NA,NA,NA,"下贱","i","",NA,1,45,125,49,1,"",NA,"",NA,NA,NA,NA,NA,NA,NA,"",NA,"",NA,NA,NA,NA,NA,NA,NA,"","","",NA,"",NA,NA,NA,NA,NA,NA,NA,"",NA,"37"
"",NA,"",NA,"",NA,NA,NA,NA,NA,NA,NA,"","",1,1,"2024-08-30_12h38.18.860","IAT(Formal)","2021.2.3","MacIntel",58.82352941,"",NA,"",NA,NA,NA,NA,NA,NA,NA,"","","",NA,"i",1,0.716,NA,NA,NA,NA,NA,"他人","i","",NA,1,46,126,68,1,"",NA,"",NA,NA,NA,NA,NA,NA,NA,"",NA,"",NA,NA,NA,NA,NA,NA,NA,"","","",NA,"",NA,NA,NA,NA,NA,NA,NA,"",NA,"37"
"",NA,"",NA,"",NA,NA,NA,NA,NA,NA,NA,"","",1,1,"2024-08-30_12h38.18.860","IAT(Formal)","2021.2.3","MacIntel",58.82352941,"",NA,"",NA,NA,NA,NA,NA,NA,NA,"","","",NA,"i",1,0.632,NA,NA,NA,NA,NA,"散漫","i","",NA,1,47,127,41,1,"",NA,"",NA,NA,NA,NA,NA,NA,NA,"",NA,"",NA,NA,NA,NA,NA,NA,NA,"","","",NA,"",NA,NA,NA,NA,NA,NA,NA,"",NA,"37"
"",NA,"",NA,"",NA,NA,NA,NA,NA,NA,NA,"","",1,1,"2024-08-30_12h38.18.860","IAT(Formal)","2021.2.3","MacIntel",58.82352941,"",NA,"",NA,NA,NA,NA,NA,NA,NA,"","","",NA,"i",0,1.069,NA,NA,NA,NA,NA,"无私","e","",NA,1,48,128,22,1,"",NA,"",NA,NA,NA,NA,NA,NA,NA,"",NA,"",NA,NA,NA,NA,NA,NA,NA,"","","",NA,"",NA,NA,NA,NA,NA,NA,NA,"",NA,"37"
"",NA,"",NA,"",NA,NA,NA,NA,NA,NA,NA,"","",1,1,"2024-08-30_12h38.18.860","IAT(Formal)","2021.2.3","MacIntel",58.82352941,"",NA,"",NA,NA,NA,NA,NA,NA,NA,"","","",NA,"i",1,1.107,NA,NA,NA,NA,NA,"自私","i","",NA,1,49,129,43,1,"",NA,"",NA,NA,NA,NA,NA,NA,NA,"",NA,"",NA,NA,NA,NA,NA,NA,NA,"","","",NA,"",NA,NA,NA,NA,NA,NA,NA,"",NA,"37"
"",NA,"",NA,"",NA,NA,NA,NA,NA,NA,NA,"","",1,1,"2024-08-30_12h38.18.860","IAT(Formal)","2021.2.3","MacIntel",58.82352941,"",NA,"",NA,NA,NA,NA,NA,NA,NA,"","","",NA,"e",1,0.621,NA,NA,NA,NA,NA,"我的","e","",NA,1,50,130,51,1,"",NA,"",NA,NA,NA,NA,NA,NA,NA,"",NA,"",NA,NA,NA,NA,NA,NA,NA,"","","",NA,"",NA,NA,NA,NA,NA,NA,NA,"",NA,"37"
"",NA,"",NA,"",NA,NA,NA,NA,NA,NA,NA,"","",1,1,"2024-08-30_12h38.18.860","IAT(Formal)","2021.2.3","MacIntel",58.82352941,"",NA,"",NA,NA,NA,NA,NA,NA,NA,"","","",NA,"i",1,0.668,NA,NA,NA,NA,NA,"愚蠢","i","",NA,1,51,131,32,1,"",NA,"",NA,NA,NA,NA,NA,NA,NA,"",NA,"",NA,NA,NA,NA,NA,NA,NA,"","","",NA,"",NA,NA,NA,NA,NA,NA,NA,"",NA,"37"
"",NA,"",NA,"",NA,NA,NA,NA,NA,NA,NA,"","",1,1,"2024-08-30_12h38.18.860","IAT(Formal)","2021.2.3","MacIntel",58.82352941,"",NA,"",NA,NA,NA,NA,NA,NA,NA,"","","",NA,"i",1,0.768,NA,NA,NA,NA,NA,"他的","i","",NA,1,52,132,67,1,"",NA,"",NA,NA,NA,NA,NA,NA,NA,"",NA,"",NA,NA,NA,NA,NA,NA,NA,"","","",NA,"",NA,NA,NA,NA,NA,NA,NA,"",NA,"37"
"",NA,"",NA,"",NA,NA,NA,NA,NA,NA,NA,"","",1,1,"2024-08-30_12h38.18.860","IAT(Formal)","2021.2.3","MacIntel",58.82352941,"",NA,"",NA,NA,NA,NA,NA,NA,NA,"","","",NA,"i",1,0.687,NA,NA,NA,NA,NA,"他","i","",NA,1,53,133,65,1,"",NA,"",NA,NA,NA,NA,NA,NA,NA,"",NA,"",NA,NA,NA,NA,NA,NA,NA,"","","",NA,"",NA,NA,NA,NA,NA,NA,NA,"",NA,"37"
"",NA,"",NA,"",NA,NA,NA,NA,NA,NA,NA,"","",1,1,"2024-08-30_12h38.18.860","IAT(Formal)","2021.2.3","MacIntel",58.82352941,"",NA,"",NA,NA,NA,NA,NA,NA,NA,"","","",NA,"e",1,0.774,NA,NA,NA,NA,NA,"我们","e","",NA,1,54,134,62,1,"",NA,"",NA,NA,NA,NA,NA,NA,NA,"",NA,"",NA,NA,NA,NA,NA,NA,NA,"","","",NA,"",NA,NA,NA,NA,NA,NA,NA,"",NA,"37"
"",NA,"",NA,"",NA,NA,NA,NA,NA,NA,NA,"","",1,1,"2024-08-30_12h38.18.860","IAT(Formal)","2021.2.3","MacIntel",58.82352941,"",NA,"",NA,NA,NA,NA,NA,NA,NA,"","","",NA,"e",1,0.734,NA,NA,NA,NA,NA,"勤奋","e","",NA,1,55,135,18,1,"",NA,"",NA,NA,NA,NA,NA,NA,NA,"",NA,"",NA,NA,NA,NA,NA,NA,NA,"","","",NA,"",NA,NA,NA,NA,NA,NA,NA,"",NA,"37"
"",NA,"",NA,"",NA,NA,NA,NA,NA,NA,NA,"","",1,1,"2024-08-30_12h38.18.860","IAT(Formal)","2021.2.3","MacIntel",58.82352941,"",NA,"",NA,NA,NA,NA,NA,NA,NA,"","","",NA,"i",1,0.851,NA,NA,NA,NA,NA,"轻率","i","",NA,1,56,136,48,1,"",NA,"",NA,NA,NA,NA,NA,NA,NA,"",NA,"",NA,NA,NA,NA,NA,NA,NA,"","","",NA,"",NA,NA,NA,NA,NA,NA,NA,"",NA,"37"
"",NA,"",NA,"",NA,NA,NA,NA,NA,NA,NA,"","",1,1,"2024-08-30_12h38.18.860","IAT(Formal)","2021.2.3","MacIntel",58.82352941,"",NA,"",NA,NA,NA,NA,NA,NA,NA,"","","",NA,"e",1,0.687,NA,NA,NA,NA,NA,"勇敢","e","",NA,1,57,137,17,1,"",NA,"",NA,NA,NA,NA,NA,NA,NA,"",NA,"",NA,NA,NA,NA,NA,NA,NA,"","","",NA,"",NA,NA,NA,NA,NA,NA,NA,"",NA,"37"
"",NA,"",NA,"",NA,NA,NA,NA,NA,NA,NA,"","",1,1,"2024-08-30_12h38.18.860","IAT(Formal)","2021.2.3","MacIntel",58.82352941,"",NA,"",NA,NA,NA,NA,NA,NA,NA,"","","",NA,"i",1,1.253,NA,NA,NA,NA,NA,"消极","i","",NA,1,58,138,35,1,"",NA,"",NA,NA,NA,NA,NA,NA,NA,"",NA,"",NA,NA,NA,NA,NA,NA,NA,"","","",NA,"",NA,NA,NA,NA,NA,NA,NA,"",NA,"37"
"",NA,"",NA,"",NA,NA,NA,NA,NA,NA,NA,"","",1,1,"2024-08-30_12h38.18.860","IAT(Formal)","2021.2.3","MacIntel",58.82352941,"",NA,"",NA,NA,NA,NA,NA,NA,NA,"","","",NA,"i",1,0.716,NA,NA,NA,NA,NA,"他的","i","",NA,1,59,139,77,1,"",NA,"",NA,NA,NA,NA,NA,NA,NA,"",NA,"",NA,NA,NA,NA,NA,NA,NA,"","","",NA,"",NA,NA,NA,NA,NA,NA,NA,"",NA,"37"
"",NA,"",NA,"",NA,NA,NA,NA,NA,NA,NA,"","",1,1,"2024-08-30_12h38.18.860","IAT(Formal)","2021.2.3","MacIntel",58.82352941,"",NA,"",NA,NA,NA,NA,NA,NA,NA,"","","",NA,"e",1,1.231,NA,NA,NA,NA,NA,"乐观","e","",NA,1,60,140,14,1,"",NA,"",NA,NA,NA,NA,NA,NA,NA,"",NA,"",NA,NA,NA,NA,NA,NA,NA,"","","",NA,"",NA,NA,NA,NA,NA,NA,NA,"",NA,"37"
"",NA,"",NA,"",NA,NA,NA,NA,NA,NA,NA,"","",1,1,"2024-08-30_12h38.18.860","IAT(Formal)","2021.2.3","MacIntel",58.82352941,"",NA,"",NA,NA,NA,NA,NA,NA,NA,"","","",NA,"i",1,0.878,NA,NA,NA,NA,NA,"固执","i","",NA,1,61,141,47,1,"",NA,"",NA,NA,NA,NA,NA,NA,NA,"",NA,"",NA,NA,NA,NA,NA,NA,NA,"","","",NA,"",NA,NA,NA,NA,NA,NA,NA,"",NA,"37"
"",NA,"",NA,"",NA,NA,NA,NA,NA,NA,NA,"","",1,1,"2024-08-30_12h38.18.860","IAT(Formal)","2021.2.3","MacIntel",58.82352941,"",NA,"",NA,NA,NA,NA,NA,NA,NA,"","","",NA,"e",1,0.738,NA,NA,NA,NA,NA,"我","e","",NA,1,62,142,0,1,"",NA,"",NA,NA,NA,NA,NA,NA,NA,"",NA,"",NA,NA,NA,NA,NA,NA,NA,"","","",NA,"",NA,NA,NA,NA,NA,NA,NA,"",NA,"37"
"",NA,"",NA,"",NA,NA,NA,NA,NA,NA,NA,"","",1,1,"2024-08-30_12h38.18.860","IAT(Formal)","2021.2.3","MacIntel",58.82352941,"",NA,"",NA,NA,NA,NA,NA,NA,NA,"","","",NA,"e",1,0.701,NA,NA,NA,NA,NA,"我们","e","",NA,1,63,143,72,1,"",NA,"",NA,NA,NA,NA,NA,NA,NA,"",NA,"",NA,NA,NA,NA,NA,NA,NA,"","","",NA,"",NA,NA,NA,NA,NA,NA,NA,"",NA,"37"
"",NA,"",NA,"",NA,NA,NA,NA,NA,NA,NA,"","",1,1,"2024-08-30_12h38.18.860","IAT(Formal)","2021.2.3","MacIntel",58.82352941,"",NA,"",NA,NA,NA,NA,NA,NA,NA,"","","",NA,"i",1,0.715,NA,NA,NA,NA,NA,"他","i","",NA,1,64,144,5,1,"",NA,"",NA,NA,NA,NA,NA,NA,NA,"",NA,"",NA,NA,NA,NA,NA,NA,NA,"","","",NA,"",NA,NA,NA,NA,NA,NA,NA,"",NA,"37"
"",NA,"",NA,"",NA,NA,NA,NA,NA,NA,NA,"","",1,1,"2024-08-30_12h38.18.860","IAT(Formal)","2021.2.3","MacIntel",58.82352941,"",NA,"",NA,NA,NA,NA,NA,NA,NA,"","","",NA,"i",1,0.587,NA,NA,NA,NA,NA,"卑鄙","i","",NA,1,65,145,30,1,"",NA,"",NA,NA,NA,NA,NA,NA,NA,"",NA,"",NA,NA,NA,NA,NA,NA,NA,"","","",NA,"",NA,NA,NA,NA,NA,NA,NA,"",NA,"37"
"",NA,"",NA,"",NA,NA,NA,NA,NA,NA,NA,"","",1,1,"2024-08-30_12h38.18.860","IAT(Formal)","2021.2.3","MacIntel",58.82352941,"",NA,"",NA,NA,NA,NA,NA,NA,NA,"","","",NA,"i",1,0.409,NA,NA,NA,NA,NA,"他的","i","",NA,1,66,146,57,1,"",NA,"",NA,NA,NA,NA,NA,NA,NA,"",NA,"",NA,NA,NA,NA,NA,NA,NA,"","","",NA,"",NA,NA,NA,NA,NA,NA,NA,"",NA,"37"
"",NA,"",NA,"",NA,NA,NA,NA,NA,NA,NA,"","",1,1,"2024-08-30_12h38.18.860","IAT(Formal)","2021.2.3","MacIntel",58.82352941,"",NA,"",NA,NA,NA,NA,NA,NA,NA,"","","",NA,"e",1,0.633,NA,NA,NA,NA,NA,"细腻","e","",NA,1,67,147,25,1,"",NA,"",NA,NA,NA,NA,NA,NA,NA,"",NA,"",NA,NA,NA,NA,NA,NA,NA,"","","",NA,"",NA,NA,NA,NA,NA,NA,NA,"",NA,"37"
"",NA,"",NA,"",NA,NA,NA,NA,NA,NA,NA,"","",1,1,"2024-08-30_12h38.18.860","IAT(Formal)","2021.2.3","MacIntel",58.82352941,"",NA,"",NA,NA,NA,NA,NA,NA,NA,"","","",NA,"e",1,0.588,NA,NA,NA,NA,NA,"俺","e","",NA,1,68,148,54,1,"",NA,"",NA,NA,NA,NA,NA,NA,NA,"",NA,"",NA,NA,NA,NA,NA,NA,NA,"","","",NA,"",NA,NA,NA,NA,NA,NA,NA,"",NA,"37"
"",NA,"",NA,"",NA,NA,NA,NA,NA,NA,NA,"","",1,1,"2024-08-30_12h38.18.860","IAT(Formal)","2021.2.3","MacIntel",58.82352941,"",NA,"",NA,NA,NA,NA,NA,NA,NA,"","","",NA,"i",1,0.766,NA,NA,NA,NA,NA,"他人","i","",NA,1,69,149,8,1,"",NA,"",NA,NA,NA,NA,NA,NA,NA,"",NA,"",NA,NA,NA,NA,NA,NA,NA,"","","",NA,"",NA,NA,NA,NA,NA,NA,NA,"",NA,"37"
"",NA,"",NA,"",NA,NA,NA,NA,NA,NA,NA,"","",1,1,"2024-08-30_12h38.18.860","IAT(Formal)","2021.2.3","MacIntel",58.82352941,"",NA,"",NA,NA,NA,NA,NA,NA,NA,"","","",NA,"e",1,0.557,NA,NA,NA,NA,NA,"我的","e","",NA,1,70,150,71,1,"",NA,"",NA,NA,NA,NA,NA,NA,NA,"",NA,"",NA,NA,NA,NA,NA,NA,NA,"","","",NA,"",NA,NA,NA,NA,NA,NA,NA,"",NA,"37"
"",NA,"",NA,"",NA,NA,NA,NA,NA,NA,NA,"","",1,1,"2024-08-30_12h38.18.860","IAT(Formal)","2021.2.3","MacIntel",58.82352941,"",NA,"",NA,NA,NA,NA,NA,NA,NA,"","","",NA,"i",1,0.833,NA,NA,NA,NA,NA,"刻薄","i","",NA,1,71,151,33,1,"",NA,"",NA,NA,NA,NA,NA,NA,NA,"",NA,"",NA,NA,NA,NA,NA,NA,NA,"","","",NA,"",NA,NA,NA,NA,NA,NA,NA,"",NA,"37"
"",NA,"",NA,"",NA,NA,NA,NA,NA,NA,NA,"","",1,1,"2024-08-30_12h38.18.860","IAT(Formal)","2021.2.3","MacIntel",58.82352941,"",NA,"",NA,NA,NA,NA,NA,NA,NA,"","","",NA,"i",1,0.798,NA,NA,NA,NA,NA,"他","i","",NA,1,72,152,75,1,"",NA,"",NA,NA,NA,NA,NA,NA,NA,"",NA,"",NA,NA,NA,NA,NA,NA,NA,"","","",NA,"",NA,NA,NA,NA,NA,NA,NA,"",NA,"37"
"",NA,"",NA,"",NA,NA,NA,NA,NA,NA,NA,"","",1,1,"2024-08-30_12h38.18.860","IAT(Formal)","2021.2.3","MacIntel",58.82352941,"",NA,"",NA,NA,NA,NA,NA,NA,NA,"","","",NA,"e",1,0.749,NA,NA,NA,NA,NA,"我","e","",NA,1,73,153,60,1,"",NA,"",NA,NA,NA,NA,NA,NA,NA,"",NA,"",NA,NA,NA,NA,NA,NA,NA,"","","",NA,"",NA,NA,NA,NA,NA,NA,NA,"",NA,"37"
"",NA,"",NA,"",NA,NA,NA,NA,NA,NA,NA,"","",1,1,"2024-08-30_12h38.18.860","IAT(Formal)","2021.2.3","MacIntel",58.82352941,"",NA,"",NA,NA,NA,NA,NA,NA,NA,"","","",NA,"e",1,0.753,NA,NA,NA,NA,NA,"杰出","e","",NA,1,74,154,13,1,"",NA,"",NA,NA,NA,NA,NA,NA,NA,"",NA,"",NA,NA,NA,NA,NA,NA,NA,"","","",NA,"",NA,NA,NA,NA,NA,NA,NA,"",NA,"37"
"",NA,"",NA,"",NA,NA,NA,NA,NA,NA,NA,"","",1,1,"2024-08-30_12h38.18.860","IAT(Formal)","2021.2.3","MacIntel",58.82352941,"",NA,"",NA,NA,NA,NA,NA,NA,NA,"","","",NA,"",0,NA,NA,NA,NA,NA,NA,"执拗","i","",NA,1,75,155,40,1,"",NA,"",NA,NA,NA,NA,NA,NA,NA,"",NA,"",NA,NA,NA,NA,NA,NA,NA,"","","",NA,"",NA,NA,NA,NA,NA,NA,NA,"",NA,"37"
"",NA,"",NA,"",NA,NA,NA,NA,NA,NA,NA,"","",1,1,"2024-08-30_12h38.18.860","IAT(Formal)","2021.2.3","MacIntel",58.82352941,"",NA,"",NA,NA,NA,NA,NA,NA,NA,"","","",NA,"e",1,0.803,NA,NA,NA,NA,NA,"认真","e","",NA,1,76,156,20,1,"",NA,"",NA,NA,NA,NA,NA,NA,NA,"",NA,"",NA,NA,NA,NA,NA,NA,NA,"","","",NA,"",NA,NA,NA,NA,NA,NA,NA,"",NA,"37"
"",NA,"",NA,"",NA,NA,NA,NA,NA,NA,NA,"","",1,1,"2024-08-30_12h38.18.860","IAT(Formal)","2021.2.3","MacIntel",58.82352941,"",NA,"",NA,NA,NA,NA,NA,NA,NA,"","","",NA,"e",1,0.599,NA,NA,NA,NA,NA,"自己","e","",NA,1,77,157,63,1,"",NA,"",NA,NA,NA,NA,NA,NA,NA,"",NA,"",NA,NA,NA,NA,NA,NA,NA,"","","",NA,"",NA,NA,NA,NA,NA,NA,NA,"",NA,"37"
"",NA,"",NA,"",NA,NA,NA,NA,NA,NA,NA,"","",1,1,"2024-08-30_12h38.18.860","IAT(Formal)","2021.2.3","MacIntel",58.82352941,"",NA,"",NA,NA,NA,NA,NA,NA,NA,"","","",NA,"e",1,0.933,NA,NA,NA,NA,NA,"我","e","",NA,1,78,158,70,1,"",NA,"",NA,NA,NA,NA,NA,NA,NA,"",NA,"",NA,NA,NA,NA,NA,NA,NA,"","","",NA,"",NA,NA,NA,NA,NA,NA,NA,"",NA,"37"
"",NA,"",NA,"",NA,NA,NA,NA,NA,NA,NA,"","",1,1,"2024-08-30_12h38.18.860","IAT(Formal)","2021.2.3","MacIntel",58.82352941,"",NA,"",NA,NA,NA,NA,NA,NA,NA,"","","",NA,"i",1,1.182,NA,NA,NA,NA,NA,"他们","i","",NA,1,79,159,6,1,"",NA,"",NA,NA,NA,NA,NA,NA,NA,"",NA,"",NA,NA,NA,NA,NA,NA,NA,"","","",NA,"",NA,NA,NA,NA,NA,NA,NA,"",NA,"37"
"",NA,"",NA,"",NA,NA,NA,NA,NA,NA,NA,"我","i",1,1,"2024-08-30_12h38.18.860","IAT(Formal)","2021.2.3","MacIntel",58.82352941,"",NA,"",NA,NA,NA,NA,NA,NA,NA,"","","",NA,"",NA,NA,NA,NA,NA,NA,NA,"","","",NA,NA,NA,NA,NA,NA,"space",48.975,"i",1,0.797,0,0,0,0,1,"",NA,"",NA,NA,NA,NA,NA,NA,NA,"","","",NA,"",NA,NA,NA,NA,NA,NA,NA,"",NA,"37"
"",NA,"",NA,"",NA,NA,NA,NA,NA,NA,NA,"他","e",1,1,"2024-08-30_12h38.18.860","IAT(Formal)","2021.2.3","MacIntel",58.82352941,"",NA,"",NA,NA,NA,NA,NA,NA,NA,"","","",NA,"",NA,NA,NA,NA,NA,NA,NA,"","","",NA,NA,NA,NA,NA,NA,"",NA,"e",1,0.715,0,1,1,5,1,"",NA,"",NA,NA,NA,NA,NA,NA,NA,"","","",NA,"",NA,NA,NA,NA,NA,NA,NA,"",NA,"37"
"",NA,"",NA,"",NA,NA,NA,NA,NA,NA,NA,"我的","i",1,1,"2024-08-30_12h38.18.860","IAT(Formal)","2021.2.3","MacIntel",58.82352941,"",NA,"",NA,NA,NA,NA,NA,NA,NA,"","","",NA,"",NA,NA,NA,NA,NA,NA,NA,"","","",NA,NA,NA,NA,NA,NA,"",NA,"i",1,0.589,0,2,2,1,1,"",NA,"",NA,NA,NA,NA,NA,NA,NA,"","","",NA,"",NA,NA,NA,NA,NA,NA,NA,"",NA,"37"
"",NA,"",NA,"",NA,NA,NA,NA,NA,NA,NA,"俺","i",1,1,"2024-08-30_12h38.18.860","IAT(Formal)","2021.2.3","MacIntel",58.82352941,"",NA,"",NA,NA,NA,NA,NA,NA,NA,"","","",NA,"",NA,NA,NA,NA,NA,NA,NA,"","","",NA,NA,NA,NA,NA,NA,"",NA,"i",1,0.569,0,3,3,4,1,"",NA,"",NA,NA,NA,NA,NA,NA,NA,"","","",NA,"",NA,NA,NA,NA,NA,NA,NA,"",NA,"37"
"",NA,"",NA,"",NA,NA,NA,NA,NA,NA,NA,"他的","e",1,1,"2024-08-30_12h38.18.860","IAT(Formal)","2021.2.3","MacIntel",58.82352941,"",NA,"",NA,NA,NA,NA,NA,NA,NA,"","","",NA,"",NA,NA,NA,NA,NA,NA,NA,"","","",NA,NA,NA,NA,NA,NA,"",NA,"e",1,0.514,0,4,4,7,1,"",NA,"",NA,NA,NA,NA,NA,NA,NA,"","","",NA,"",NA,NA,NA,NA,NA,NA,NA,"",NA,"37"
"",NA,"",NA,"",NA,NA,NA,NA,NA,NA,NA,"我们","i",1,1,"2024-08-30_12h38.18.860","IAT(Formal)","2021.2.3","MacIntel",58.82352941,"",NA,"",NA,NA,NA,NA,NA,NA,NA,"","","",NA,"",NA,NA,NA,NA,NA,NA,NA,"","","",NA,NA,NA,NA,NA,NA,"",NA,"i",1,0.847,0,5,5,2,1,"",NA,"",NA,NA,NA,NA,NA,NA,NA,"","","",NA,"",NA,NA,NA,NA,NA,NA,NA,"",NA,"37"
"",NA,"",NA,"",NA,NA,NA,NA,NA,NA,NA,"他们","e",1,1,"2024-08-30_12h38.18.860","IAT(Formal)","2021.2.3","MacIntel",58.82352941,"",NA,"",NA,NA,NA,NA,NA,NA,NA,"","","",NA,"",NA,NA,NA,NA,NA,NA,NA,"","","",NA,NA,NA,NA,NA,NA,"",NA,"e",1,0.753,0,6,6,6,1,"",NA,"",NA,NA,NA,NA,NA,NA,NA,"","","",NA,"",NA,NA,NA,NA,NA,NA,NA,"",NA,"37"
"",NA,"",NA,"",NA,NA,NA,NA,NA,NA,NA,"其他","e",1,1,"2024-08-30_12h38.18.860","IAT(Formal)","2021.2.3","MacIntel",58.82352941,"",NA,"",NA,NA,NA,NA,NA,NA,NA,"","","",NA,"",NA,NA,NA,NA,NA,NA,NA,"","","",NA,NA,NA,NA,NA,NA,"",NA,"e",1,0.995,0,7,7,9,1,"",NA,"",NA,NA,NA,NA,NA,NA,NA,"","","",NA,"",NA,NA,NA,NA,NA,NA,NA,"",NA,"37"
"",NA,"",NA,"",NA,NA,NA,NA,NA,NA,NA,"他人","e",1,1,"2024-08-30_12h38.18.860","IAT(Formal)","2021.2.3","MacIntel",58.82352941,"",NA,"",NA,NA,NA,NA,NA,NA,NA,"","","",NA,"",NA,NA,NA,NA,NA,NA,NA,"","","",NA,NA,NA,NA,NA,NA,"",NA,"e",1,0.483,0,8,8,8,1,"",NA,"",NA,NA,NA,NA,NA,NA,NA,"","","",NA,"",NA,NA,NA,NA,NA,NA,NA,"",NA,"37"
"",NA,"",NA,"",NA,NA,NA,NA,NA,NA,NA,"自己","i",1,1,"2024-08-30_12h38.18.860","IAT(Formal)","2021.2.3","MacIntel",58.82352941,"",NA,"",NA,NA,NA,NA,NA,NA,NA,"","","",NA,"",NA,NA,NA,NA,NA,NA,NA,"","","",NA,NA,NA,NA,NA,NA,"",NA,"i",1,0.546,0,9,9,3,1,"",NA,"",NA,NA,NA,NA,NA,NA,NA,"","","",NA,"",NA,NA,NA,NA,NA,NA,NA,"",NA,"37"
"",NA,"",NA,"",NA,NA,NA,NA,NA,NA,NA,"","",1,1,"2024-08-30_12h38.18.860","IAT(Formal)","2021.2.3","MacIntel",58.82352941,"",NA,"",NA,NA,NA,NA,NA,NA,NA,"","","",NA,"",NA,NA,NA,NA,NA,NA,NA,"","","",NA,NA,NA,NA,NA,NA,"",NA,"",NA,NA,NA,NA,NA,NA,NA,"space",8.806,"e",0,0.622,0,0,0,61,1,"我的","i","",NA,"",NA,NA,NA,NA,NA,NA,NA,"",NA,"37"
"",NA,"",NA,"",NA,NA,NA,NA,NA,NA,NA,"","",1,1,"2024-08-30_12h38.18.860","IAT(Formal)","2021.2.3","MacIntel",58.82352941,"",NA,"",NA,NA,NA,NA,NA,NA,NA,"","","",NA,"",NA,NA,NA,NA,NA,NA,NA,"","","",NA,NA,NA,NA,NA,NA,"",NA,"",NA,NA,NA,NA,NA,NA,NA,"",NA,"e",1,0.697,0,1,1,6,1,"他们","e","",NA,"",NA,NA,NA,NA,NA,NA,NA,"",NA,"37"
"",NA,"",NA,"",NA,NA,NA,NA,NA,NA,NA,"","",1,1,"2024-08-30_12h38.18.860","IAT(Formal)","2021.2.3","MacIntel",58.82352941,"",NA,"",NA,NA,NA,NA,NA,NA,NA,"","","",NA,"",NA,NA,NA,NA,NA,NA,NA,"","","",NA,NA,NA,NA,NA,NA,"",NA,"",NA,NA,NA,NA,NA,NA,NA,"",NA,"e",1,0.703,0,2,2,66,1,"他们","e","",NA,"",NA,NA,NA,NA,NA,NA,NA,"",NA,"37"
