﻿Instruction1.keys,Instruction1.rt,Instruction2.keys,Instruction2.rt,key_resp_iso.keys,key_resp_iso.corr,key_resp_iso.rt,Practice_01.thisRepN,Practice_01.thisTrialN,Practice_01.thisN,Practice_01.thisIndex,Practice_01.ran,Words,ans,participant,session,date,expName,psychopyVersion,OS,frameRate,key_resp_3.keys,key_resp_3.rt,key_resp_ipn.keys,key_resp_ipn.corr,key_resp_ipn.rt,Practice_02.thisRepN,Practice_02.thisTrialN,Practice_02.thisN,Practice_02.thisIndex,Practice_02.ran,Words_ipn,ans_ipn,key_resp_4.keys,key_resp_4.rt,key_resp_t1.keys,key_resp_t1.corr,key_resp_t1.rt,Practice_T1.thisRepN,Practice_T1.thisTrialN,Practice_T1.thisN,Practice_T1.thisIndex,Practice_T1.ran,Words_t1,ans_t1,key_resp_5.keys,key_resp_5.rt,Formal_T1.thisRepN,Formal_T1.thisTrialN,Formal_T1.thisN,Formal_T1.thisIndex,Formal_T1.ran,key_resp_6.keys,key_resp_6.rt,key_resp_iso_reverse.keys,key_resp_iso_reverse.corr,key_resp_iso_reverse.rt,Practice_iso_Reverse.thisRepN,Practice_iso_Reverse.thisTrialN,Practice_iso_Reverse.thisN,Practice_iso_Reverse.thisIndex,Practice_iso_Reverse.ran,key_resp_7.keys,key_resp_7.rt,key_resp_t2_Practice.keys,key_resp_t2_Practice.corr,key_resp_t2_Practice.rt,Practice_t2_Reverse.thisRepN,Practice_t2_Reverse.thisTrialN,Practice_t2_Reverse.thisN,Practice_t2_Reverse.thisIndex,Practice_t2_Reverse.ran,Words_t2,ans_t2,key_resp_8.keys,key_resp_8.rt,key_resp_t2.keys,key_resp_t2.corr,Formal_t2_reverse.thisRepN,Formal_t2_reverse.thisTrialN,Formal_t2_reverse.thisN,Formal_t2_reverse.thisIndex,Formal_t2_reverse.ran,key_resp_t2.rt,key_instruct.keys,key_instruct.rt
space,1.973,space,57.291,i,1,1.101,0,0,0,6,1,他们,i,1,001,2024-08-30_12h38.18.860,IAT(Formal),2021.2.3,MacIntel,58.82352941,,,,,,,,,,,,,,,,,,,,,,,,,,,,,,,,,,,,,,,,,,,,,,,,,,,,,,,,,,,,,,,,,
,,,,e,1,0.799,0,1,1,4,1,俺,e,1,001,2024-08-30_12h38.18.860,IAT(Formal),2021.2.3,MacIntel,58.82352941,,,,,,,,,,,,,,,,,,,,,,,,,,,,,,,,,,,,,,,,,,,,,,,,,,,,,,,,,,,,,,,,,
,,,,i,1,0.763,0,2,2,9,1,其他,i,1,001,2024-08-30_12h38.18.860,IAT(Formal),2021.2.3,MacIntel,58.82352941,,,,,,,,,,,,,,,,,,,,,,,,,,,,,,,,,,,,,,,,,,,,,,,,,,,,,,,,,,,,,,,,,
,,,,e,1,0.717,0,3,3,1,1,我的,e,1,001,2024-08-30_12h38.18.860,IAT(Formal),2021.2.3,MacIntel,58.82352941,,,,,,,,,,,,,,,,,,,,,,,,,,,,,,,,,,,,,,,,,,,,,,,,,,,,,,,,,,,,,,,,,
,,,,i,1,0.623,0,4,4,5,1,他,i,1,001,2024-08-30_12h38.18.860,IAT(Formal),2021.2.3,MacIntel,58.82352941,,,,,,,,,,,,,,,,,,,,,,,,,,,,,,,,,,,,,,,,,,,,,,,,,,,,,,,,,,,,,,,,,
,,,,e,1,0.923,0,5,5,2,1,我们,e,1,001,2024-08-30_12h38.18.860,IAT(Formal),2021.2.3,MacIntel,58.82352941,,,,,,,,,,,,,,,,,,,,,,,,,,,,,,,,,,,,,,,,,,,,,,,,,,,,,,,,,,,,,,,,,
,,,,i,1,0.671,0,6,6,7,1,他的,i,1,001,2024-08-30_12h38.18.860,IAT(Formal),2021.2.3,MacIntel,58.82352941,,,,,,,,,,,,,,,,,,,,,,,,,,,,,,,,,,,,,,,,,,,,,,,,,,,,,,,,,,,,,,,,,
,,,,i,1,0.564,0,7,7,8,1,他人,i,1,001,2024-08-30_12h38.18.860,IAT(Formal),2021.2.3,MacIntel,58.82352941,,,,,,,,,,,,,,,,,,,,,,,,,,,,,,,,,,,,,,,,,,,,,,,,,,,,,,,,,,,,,,,,,
,,,,e,1,0.599,0,8,8,3,1,自己,e,1,001,2024-08-30_12h38.18.860,IAT(Formal),2021.2.3,MacIntel,58.82352941,,,,,,,,,,,,,,,,,,,,,,,,,,,,,,,,,,,,,,,,,,,,,,,,,,,,,,,,,,,,,,,,,
,,,,e,1,0.649,0,9,9,0,1,我,e,1,001,2024-08-30_12h38.18.860,IAT(Formal),2021.2.3,MacIntel,58.82352941,,,,,,,,,,,,,,,,,,,,,,,,,,,,,,,,,,,,,,,,,,,,,,,,,,,,,,,,,,,,,,,,,
,,,,,,,,,,,,,,1,001,2024-08-30_12h38.18.860,IAT(Formal),2021.2.3,MacIntel,58.82352941,space,8.802,e,1,0.83,0,0,0,10,1,认真,e,,,,,,,,,,,,,,,,,,,,,,,,,,,,,,,,,,,,,,,,,,,,,,,,,,,,,
,,,,,,,,,,,,,,1,001,2024-08-30_12h38.18.860,IAT(Formal),2021.2.3,MacIntel,58.82352941,,,i,1,0.621,0,1,1,34,1,暴躁,i,,,,,,,,,,,,,,,,,,,,,,,,,,,,,,,,,,,,,,,,,,,,,,,,,,,,,
,,,,,,,,,,,,,,1,001,2024-08-30_12h38.18.860,IAT(Formal),2021.2.3,MacIntel,58.82352941,,,e,1,0.735,0,2,2,8,1,勤奋,e,,,,,,,,,,,,,,,,,,,,,,,,,,,,,,,,,,,,,,,,,,,,,,,,,,,,,
,,,,,,,,,,,,,,1,001,2024-08-30_12h38.18.860,IAT(Formal),2021.2.3,MacIntel,58.82352941,,,e,1,0.869,0,3,3,12,1,无私,e,,,,,,,,,,,,,,,,,,,,,,,,,,,,,,,,,,,,,,,,,,,,,,,,,,,,,
,,,,,,,,,,,,,,1,001,2024-08-30_12h38.18.860,IAT(Formal),2021.2.3,MacIntel,58.82352941,,,i,1,0.83,0,4,4,30,1,执拗,i,,,,,,,,,,,,,,,,,,,,,,,,,,,,,,,,,,,,,,,,,,,,,,,,,,,,,
,,,,,,,,,,,,,,1,001,2024-08-30_12h38.18.860,IAT(Formal),2021.2.3,MacIntel,58.82352941,,,i,1,0.717,0,5,5,35,1,猖狂,i,,,,,,,,,,,,,,,,,,,,,,,,,,,,,,,,,,,,,,,,,,,,,,,,,,,,,
,,,,,,,,,,,,,,1,001,2024-08-30_12h38.18.860,IAT(Formal),2021.2.3,MacIntel,58.82352941,,,i,1,0.627,0,6,6,28,1,鲁莽,i,,,,,,,,,,,,,,,,,,,,,,,,,,,,,,,,,,,,,,,,,,,,,,,,,,,,,
,,,,,,,,,,,,,,1,001,2024-08-30_12h38.18.860,IAT(Formal),2021.2.3,MacIntel,58.82352941,,,e,1,0.57,0,7,7,0,1,优秀,e,,,,,,,,,,,,,,,,,,,,,,,,,,,,,,,,,,,,,,,,,,,,,,,,,,,,,
,,,,,,,,,,,,,,1,001,2024-08-30_12h38.18.860,IAT(Formal),2021.2.3,MacIntel,58.82352941,,,e,1,0.819,0,8,8,11,1,稳重,e,,,,,,,,,,,,,,,,,,,,,,,,,,,,,,,,,,,,,,,,,,,,,,,,,,,,,
,,,,,,,,,,,,,,1,001,2024-08-30_12h38.18.860,IAT(Formal),2021.2.3,MacIntel,58.82352941,,,e,1,0.737,0,9,9,3,1,杰出,e,,,,,,,,,,,,,,,,,,,,,,,,,,,,,,,,,,,,,,,,,,,,,,,,,,,,,
,,,,,,,,,,,,,,1,001,2024-08-30_12h38.18.860,IAT(Formal),2021.2.3,MacIntel,58.82352941,,,i,1,0.635,0,10,10,25,1,消极,i,,,,,,,,,,,,,,,,,,,,,,,,,,,,,,,,,,,,,,,,,,,,,,,,,,,,,
,,,,,,,,,,,,,,1,001,2024-08-30_12h38.18.860,IAT(Formal),2021.2.3,MacIntel,58.82352941,,,e,1,0.698,0,11,11,7,1,勇敢,e,,,,,,,,,,,,,,,,,,,,,,,,,,,,,,,,,,,,,,,,,,,,,,,,,,,,,
,,,,,,,,,,,,,,1,001,2024-08-30_12h38.18.860,IAT(Formal),2021.2.3,MacIntel,58.82352941,,,i,1,0.789,0,12,12,31,1,散漫,i,,,,,,,,,,,,,,,,,,,,,,,,,,,,,,,,,,,,,,,,,,,,,,,,,,,,,
,,,,,,,,,,,,,,1,001,2024-08-30_12h38.18.860,IAT(Formal),2021.2.3,MacIntel,58.82352941,,,e,1,0.746,0,13,13,18,1,活泼,e,,,,,,,,,,,,,,,,,,,,,,,,,,,,,,,,,,,,,,,,,,,,,,,,,,,,,
,,,,,,,,,,,,,,1,001,2024-08-30_12h38.18.860,IAT(Formal),2021.2.3,MacIntel,58.82352941,,,i,1,0.765,0,14,14,37,1,固执,i,,,,,,,,,,,,,,,,,,,,,,,,,,,,,,,,,,,,,,,,,,,,,,,,,,,,,
,,,,,,,,,,,,,,1,001,2024-08-30_12h38.18.860,IAT(Formal),2021.2.3,MacIntel,58.82352941,,,e,1,0.7,0,15,15,6,1,正直,e,,,,,,,,,,,,,,,,,,,,,,,,,,,,,,,,,,,,,,,,,,,,,,,,,,,,,
,,,,,,,,,,,,,,1,001,2024-08-30_12h38.18.860,IAT(Formal),2021.2.3,MacIntel,58.82352941,,,i,1,0.662,0,16,16,29,1,冒失,i,,,,,,,,,,,,,,,,,,,,,,,,,,,,,,,,,,,,,,,,,,,,,,,,,,,,,
,,,,,,,,,,,,,,1,001,2024-08-30_12h38.18.860,IAT(Formal),2021.2.3,MacIntel,58.82352941,,,e,1,0.816,0,17,17,17,1,热情,e,,,,,,,,,,,,,,,,,,,,,,,,,,,,,,,,,,,,,,,,,,,,,,,,,,,,,
,,,,,,,,,,,,,,1,001,2024-08-30_12h38.18.860,IAT(Formal),2021.2.3,MacIntel,58.82352941,,,i,1,0.747,0,18,18,23,1,刻薄,i,,,,,,,,,,,,,,,,,,,,,,,,,,,,,,,,,,,,,,,,,,,,,,,,,,,,,
,,,,,,,,,,,,,,1,001,2024-08-30_12h38.18.860,IAT(Formal),2021.2.3,MacIntel,58.82352941,,,i,1,0.79,0,19,19,33,1,自私,i,,,,,,,,,,,,,,,,,,,,,,,,,,,,,,,,,,,,,,,,,,,,,,,,,,,,,
,,,,,,,,,,,,,,1,001,2024-08-30_12h38.18.860,IAT(Formal),2021.2.3,MacIntel,58.82352941,,,i,1,0.953,0,20,20,38,1,轻率,i,,,,,,,,,,,,,,,,,,,,,,,,,,,,,,,,,,,,,,,,,,,,,,,,,,,,,
,,,,,,,,,,,,,,1,001,2024-08-30_12h38.18.860,IAT(Formal),2021.2.3,MacIntel,58.82352941,,,i,1,0.655,0,21,21,27,1,傲慢,i,,,,,,,,,,,,,,,,,,,,,,,,,,,,,,,,,,,,,,,,,,,,,,,,,,,,,
,,,,,,,,,,,,,,1,001,2024-08-30_12h38.18.860,IAT(Formal),2021.2.3,MacIntel,58.82352941,,,e,1,0.681,0,22,22,14,1,朴实,e,,,,,,,,,,,,,,,,,,,,,,,,,,,,,,,,,,,,,,,,,,,,,,,,,,,,,
,,,,,,,,,,,,,,1,001,2024-08-30_12h38.18.860,IAT(Formal),2021.2.3,MacIntel,58.82352941,,,i,1,0.714,0,23,23,22,1,愚蠢,i,,,,,,,,,,,,,,,,,,,,,,,,,,,,,,,,,,,,,,,,,,,,,,,,,,,,,
,,,,,,,,,,,,,,1,001,2024-08-30_12h38.18.860,IAT(Formal),2021.2.3,MacIntel,58.82352941,,,e,1,0.719,0,24,24,15,1,细腻,e,,,,,,,,,,,,,,,,,,,,,,,,,,,,,,,,,,,,,,,,,,,,,,,,,,,,,
,,,,,,,,,,,,,,1,001,2024-08-30_12h38.18.860,IAT(Formal),2021.2.3,MacIntel,58.82352941,,,i,1,0.681,0,25,25,20,1,卑鄙,i,,,,,,,,,,,,,,,,,,,,,,,,,,,,,,,,,,,,,,,,,,,,,,,,,,,,,
,,,,,,,,,,,,,,1,001,2024-08-30_12h38.18.860,IAT(Formal),2021.2.3,MacIntel,58.82352941,,,e,1,0.783,0,26,26,19,1,诚恳,e,,,,,,,,,,,,,,,,,,,,,,,,,,,,,,,,,,,,,,,,,,,,,,,,,,,,,
,,,,,,,,,,,,,,1,001,2024-08-30_12h38.18.860,IAT(Formal),2021.2.3,MacIntel,58.82352941,,,e,1,0.703,0,27,27,5,1,诚实,e,,,,,,,,,,,,,,,,,,,,,,,,,,,,,,,,,,,,,,,,,,,,,,,,,,,,,
,,,,,,,,,,,,,,1,001,2024-08-30_12h38.18.860,IAT(Formal),2021.2.3,MacIntel,58.82352941,,,e,1,1.422,0,28,28,16,1,冷静,e,,,,,,,,,,,,,,,,,,,,,,,,,,,,,,,,,,,,,,,,,,,,,,,,,,,,,
,,,,,,,,,,,,,,1,001,2024-08-30_12h38.18.860,IAT(Formal),2021.2.3,MacIntel,58.82352941,,,e,1,0.655,0,29,29,4,1,乐观,e,,,,,,,,,,,,,,,,,,,,,,,,,,,,,,,,,,,,,,,,,,,,,,,,,,,,,
,,,,,,,,,,,,,,1,001,2024-08-30_12h38.18.860,IAT(Formal),2021.2.3,MacIntel,58.82352941,,,i,1,0.652,0,30,30,24,1,悲观,i,,,,,,,,,,,,,,,,,,,,,,,,,,,,,,,,,,,,,,,,,,,,,,,,,,,,,
,,,,,,,,,,,,,,1,001,2024-08-30_12h38.18.860,IAT(Formal),2021.2.3,MacIntel,58.82352941,,,i,1,0.619,0,31,31,21,1,虚伪,i,,,,,,,,,,,,,,,,,,,,,,,,,,,,,,,,,,,,,,,,,,,,,,,,,,,,,
,,,,,,,,,,,,,,1,001,2024-08-30_12h38.18.860,IAT(Formal),2021.2.3,MacIntel,58.82352941,,,e,1,0.668,0,32,32,2,1,聪明,e,,,,,,,,,,,,,,,,,,,,,,,,,,,,,,,,,,,,,,,,,,,,,,,,,,,,,
,,,,,,,,,,,,,,1,001,2024-08-30_12h38.18.860,IAT(Formal),2021.2.3,MacIntel,58.82352941,,,e,1,0.797,0,33,33,1,1,崇高,e,,,,,,,,,,,,,,,,,,,,,,,,,,,,,,,,,,,,,,,,,,,,,,,,,,,,,
,,,,,,,,,,,,,,1,001,2024-08-30_12h38.18.860,IAT(Formal),2021.2.3,MacIntel,58.82352941,,,e,1,0.817,0,34,34,13,1,公正,e,,,,,,,,,,,,,,,,,,,,,,,,,,,,,,,,,,,,,,,,,,,,,,,,,,,,,
,,,,,,,,,,,,,,1,001,2024-08-30_12h38.18.860,IAT(Formal),2021.2.3,MacIntel,58.82352941,,,e,1,0.703,0,35,35,9,1,机智,e,,,,,,,,,,,,,,,,,,,,,,,,,,,,,,,,,,,,,,,,,,,,,,,,,,,,,
,,,,,,,,,,,,,,1,001,2024-08-30_12h38.18.860,IAT(Formal),2021.2.3,MacIntel,58.82352941,,,i,1,0.647,0,36,36,39,1,下贱,i,,,,,,,,,,,,,,,,,,,,,,,,,,,,,,,,,,,,,,,,,,,,,,,,,,,,,
,,,,,,,,,,,,,,1,001,2024-08-30_12h38.18.860,IAT(Formal),2021.2.3,MacIntel,58.82352941,,,i,1,0.662,0,37,37,36,1,野蛮,i,,,,,,,,,,,,,,,,,,,,,,,,,,,,,,,,,,,,,,,,,,,,,,,,,,,,,
,,,,,,,,,,,,,,1,001,2024-08-30_12h38.18.860,IAT(Formal),2021.2.3,MacIntel,58.82352941,,,i,1,0.697,0,38,38,32,1,凶狠,i,,,,,,,,,,,,,,,,,,,,,,,,,,,,,,,,,,,,,,,,,,,,,,,,,,,,,
,,,,,,,,,,,,,,1,001,2024-08-30_12h38.18.860,IAT(Formal),2021.2.3,MacIntel,58.82352941,,,i,1,0.866,0,39,39,26,1,自卑,i,,,,,,,,,,,,,,,,,,,,,,,,,,,,,,,,,,,,,,,,,,,,,,,,,,,,,
,,,,,,,,,,,,,,1,001,2024-08-30_12h38.18.860,IAT(Formal),2021.2.3,MacIntel,58.82352941,,,,,,,,,,,,,space,5.495,i,1,0.85,0,0,0,8,1,他人,i,,,,,,,,,,,,,,,,,,,,,,,,,,,,,,,,,,,,,,,,,
,,,,,,,,,,,,,,1,001,2024-08-30_12h38.18.860,IAT(Formal),2021.2.3,MacIntel,58.82352941,,,,,,,,,,,,,,,i,1,0.785,0,1,1,39,1,冒失,i,,,,,,,,,,,,,,,,,,,,,,,,,,,,,,,,,,,,,,,,,
,,,,,,,,,,,,,,1,001,2024-08-30_12h38.18.860,IAT(Formal),2021.2.3,MacIntel,58.82352941,,,,,,,,,,,,,,,e,1,0.684,0,2,2,53,1,自己,e,,,,,,,,,,,,,,,,,,,,,,,,,,,,,,,,,,,,,,,,,
,,,,,,,,,,,,,,1,001,2024-08-30_12h38.18.860,IAT(Formal),2021.2.3,MacIntel,58.82352941,,,,,,,,,,,,,,,i,1,0.718,0,3,3,32,1,愚蠢,i,,,,,,,,,,,,,,,,,,,,,,,,,,,,,,,,,,,,,,,,,
,,,,,,,,,,,,,,1,001,2024-08-30_12h38.18.860,IAT(Formal),2021.2.3,MacIntel,58.82352941,,,,,,,,,,,,,,,i,1,0.839,0,4,4,40,1,执拗,i,,,,,,,,,,,,,,,,,,,,,,,,,,,,,,,,,,,,,,,,,
,,,,,,,,,,,,,,1,001,2024-08-30_12h38.18.860,IAT(Formal),2021.2.3,MacIntel,58.82352941,,,,,,,,,,,,,,,i,1,0.715,0,5,5,69,1,其他,i,,,,,,,,,,,,,,,,,,,,,,,,,,,,,,,,,,,,,,,,,
,,,,,,,,,,,,,,1,001,2024-08-30_12h38.18.860,IAT(Formal),2021.2.3,MacIntel,58.82352941,,,,,,,,,,,,,,,i,1,0.689,0,6,6,65,1,他,i,,,,,,,,,,,,,,,,,,,,,,,,,,,,,,,,,,,,,,,,,
,,,,,,,,,,,,,,1,001,2024-08-30_12h38.18.860,IAT(Formal),2021.2.3,MacIntel,58.82352941,,,,,,,,,,,,,,,i,1,0.683,0,7,7,68,1,他人,i,,,,,,,,,,,,,,,,,,,,,,,,,,,,,,,,,,,,,,,,,
,,,,,,,,,,,,,,1,001,2024-08-30_12h38.18.860,IAT(Formal),2021.2.3,MacIntel,58.82352941,,,,,,,,,,,,,,,e,1,0.715,0,8,8,70,1,我,e,,,,,,,,,,,,,,,,,,,,,,,,,,,,,,,,,,,,,,,,,
,,,,,,,,,,,,,,1,001,2024-08-30_12h38.18.860,IAT(Formal),2021.2.3,MacIntel,58.82352941,,,,,,,,,,,,,,,i,1,0.78,0,9,9,45,1,猖狂,i,,,,,,,,,,,,,,,,,,,,,,,,,,,,,,,,,,,,,,,,,
,,,,,,,,,,,,,,1,001,2024-08-30_12h38.18.860,IAT(Formal),2021.2.3,MacIntel,58.82352941,,,,,,,,,,,,,,,e,1,0.686,0,10,10,71,1,我的,e,,,,,,,,,,,,,,,,,,,,,,,,,,,,,,,,,,,,,,,,,
,,,,,,,,,,,,,,1,001,2024-08-30_12h38.18.860,IAT(Formal),2021.2.3,MacIntel,58.82352941,,,,,,,,,,,,,,,i,1,1.285,0,11,11,37,1,傲慢,i,,,,,,,,,,,,,,,,,,,,,,,,,,,,,,,,,,,,,,,,,
,,,,,,,,,,,,,,1,001,2024-08-30_12h38.18.860,IAT(Formal),2021.2.3,MacIntel,58.82352941,,,,,,,,,,,,,,,e,1,0.921,0,12,12,3,1,自己,e,,,,,,,,,,,,,,,,,,,,,,,,,,,,,,,,,,,,,,,,,
,,,,,,,,,,,,,,1,001,2024-08-30_12h38.18.860,IAT(Formal),2021.2.3,MacIntel,58.82352941,,,,,,,,,,,,,,,e,1,1.367,0,13,13,16,1,正直,e,,,,,,,,,,,,,,,,,,,,,,,,,,,,,,,,,,,,,,,,,
,,,,,,,,,,,,,,1,001,2024-08-30_12h38.18.860,IAT(Formal),2021.2.3,MacIntel,58.82352941,,,,,,,,,,,,,,,e,1,0.833,0,14,14,64,1,俺,e,,,,,,,,,,,,,,,,,,,,,,,,,,,,,,,,,,,,,,,,,
,,,,,,,,,,,,,,1,001,2024-08-30_12h38.18.860,IAT(Formal),2021.2.3,MacIntel,58.82352941,,,,,,,,,,,,,,,i,1,1.082,0,15,15,41,1,散漫,i,,,,,,,,,,,,,,,,,,,,,,,,,,,,,,,,,,,,,,,,,
,,,,,,,,,,,,,,1,001,2024-08-30_12h38.18.860,IAT(Formal),2021.2.3,MacIntel,58.82352941,,,,,,,,,,,,,,,i,1,0.899,0,16,16,76,1,他们,i,,,,,,,,,,,,,,,,,,,,,,,,,,,,,,,,,,,,,,,,,
,,,,,,,,,,,,,,1,001,2024-08-30_12h38.18.860,IAT(Formal),2021.2.3,MacIntel,58.82352941,,,,,,,,,,,,,,,i,1,0.801,0,17,17,78,1,他人,i,,,,,,,,,,,,,,,,,,,,,,,,,,,,,,,,,,,,,,,,,
,,,,,,,,,,,,,,1,001,2024-08-30_12h38.18.860,IAT(Formal),2021.2.3,MacIntel,58.82352941,,,,,,,,,,,,,,,i,1,0.922,0,18,18,48,1,轻率,i,,,,,,,,,,,,,,,,,,,,,,,,,,,,,,,,,,,,,,,,,
,,,,,,,,,,,,,,1,001,2024-08-30_12h38.18.860,IAT(Formal),2021.2.3,MacIntel,58.82352941,,,,,,,,,,,,,,,e,1,0.789,0,19,19,27,1,热情,e,,,,,,,,,,,,,,,,,,,,,,,,,,,,,,,,,,,,,,,,,
,,,,,,,,,,,,,,1,001,2024-08-30_12h38.18.860,IAT(Formal),2021.2.3,MacIntel,58.82352941,,,,,,,,,,,,,,,e,1,0.768,0,20,20,61,1,我的,e,,,,,,,,,,,,,,,,,,,,,,,,,,,,,,,,,,,,,,,,,
,,,,,,,,,,,,,,1,001,2024-08-30_12h38.18.860,IAT(Formal),2021.2.3,MacIntel,58.82352941,,,,,,,,,,,,,,,i,1,0.867,0,21,21,5,1,他,i,,,,,,,,,,,,,,,,,,,,,,,,,,,,,,,,,,,,,,,,,
,,,,,,,,,,,,,,1,001,2024-08-30_12h38.18.860,IAT(Formal),2021.2.3,MacIntel,58.82352941,,,,,,,,,,,,,,,e,1,0.838,0,22,22,50,1,我,e,,,,,,,,,,,,,,,,,,,,,,,,,,,,,,,,,,,,,,,,,
,,,,,,,,,,,,,,1,001,2024-08-30_12h38.18.860,IAT(Formal),2021.2.3,MacIntel,58.82352941,,,,,,,,,,,,,,,e,1,0.756,0,23,23,17,1,勇敢,e,,,,,,,,,,,,,,,,,,,,,,,,,,,,,,,,,,,,,,,,,
,,,,,,,,,,,,,,1,001,2024-08-30_12h38.18.860,IAT(Formal),2021.2.3,MacIntel,58.82352941,,,,,,,,,,,,,,,e,1,0.769,0,24,24,14,1,乐观,e,,,,,,,,,,,,,,,,,,,,,,,,,,,,,,,,,,,,,,,,,
,,,,,,,,,,,,,,1,001,2024-08-30_12h38.18.860,IAT(Formal),2021.2.3,MacIntel,58.82352941,,,,,,,,,,,,,,,e,1,0.663,0,25,25,62,1,我们,e,,,,,,,,,,,,,,,,,,,,,,,,,,,,,,,,,,,,,,,,,
,,,,,,,,,,,,,,1,001,2024-08-30_12h38.18.860,IAT(Formal),2021.2.3,MacIntel,58.82352941,,,,,,,,,,,,,,,e,1,0.816,0,26,26,74,1,俺,e,,,,,,,,,,,,,,,,,,,,,,,,,,,,,,,,,,,,,,,,,
,,,,,,,,,,,,,,1,001,2024-08-30_12h38.18.860,IAT(Formal),2021.2.3,MacIntel,58.82352941,,,,,,,,,,,,,,,e,1,0.699,0,27,27,0,1,我,e,,,,,,,,,,,,,,,,,,,,,,,,,,,,,,,,,,,,,,,,,
,,,,,,,,,,,,,,1,001,2024-08-30_12h38.18.860,IAT(Formal),2021.2.3,MacIntel,58.82352941,,,,,,,,,,,,,,,e,1,0.734,0,28,28,24,1,朴实,e,,,,,,,,,,,,,,,,,,,,,,,,,,,,,,,,,,,,,,,,,
,,,,,,,,,,,,,,1,001,2024-08-30_12h38.18.860,IAT(Formal),2021.2.3,MacIntel,58.82352941,,,,,,,,,,,,,,,i,1,0.701,0,29,29,34,1,悲观,i,,,,,,,,,,,,,,,,,,,,,,,,,,,,,,,,,,,,,,,,,
,,,,,,,,,,,,,,1,001,2024-08-30_12h38.18.860,IAT(Formal),2021.2.3,MacIntel,58.82352941,,,,,,,,,,,,,,,e,1,0.867,0,30,30,15,1,诚实,e,,,,,,,,,,,,,,,,,,,,,,,,,,,,,,,,,,,,,,,,,
,,,,,,,,,,,,,,1,001,2024-08-30_12h38.18.860,IAT(Formal),2021.2.3,MacIntel,58.82352941,,,,,,,,,,,,,,,i,1,1.029,0,31,31,31,1,虚伪,i,,,,,,,,,,,,,,,,,,,,,,,,,,,,,,,,,,,,,,,,,
,,,,,,,,,,,,,,1,001,2024-08-30_12h38.18.860,IAT(Formal),2021.2.3,MacIntel,58.82352941,,,,,,,,,,,,,,,i,1,0.936,0,32,32,58,1,他人,i,,,,,,,,,,,,,,,,,,,,,,,,,,,,,,,,,,,,,,,,,
,,,,,,,,,,,,,,1,001,2024-08-30_12h38.18.860,IAT(Formal),2021.2.3,MacIntel,58.82352941,,,,,,,,,,,,,,,,0,,0,33,33,60,1,我,e,,,,,,,,,,,,,,,,,,,,,,,,,,,,,,,,,,,,,,,,,
,,,,,,,,,,,,,,1,001,2024-08-30_12h38.18.860,IAT(Formal),2021.2.3,MacIntel,58.82352941,,,,,,,,,,,,,,,i,1,0.8,0,34,34,66,1,他们,i,,,,,,,,,,,,,,,,,,,,,,,,,,,,,,,,,,,,,,,,,
,,,,,,,,,,,,,,1,001,2024-08-30_12h38.18.860,IAT(Formal),2021.2.3,MacIntel,58.82352941,,,,,,,,,,,,,,,i,1,1.071,0,35,35,59,1,其他,i,,,,,,,,,,,,,,,,,,,,,,,,,,,,,,,,,,,,,,,,,
,,,,,,,,,,,,,,1,001,2024-08-30_12h38.18.860,IAT(Formal),2021.2.3,MacIntel,58.82352941,,,,,,,,,,,,,,,i,1,0.735,0,36,36,43,1,自私,i,,,,,,,,,,,,,,,,,,,,,,,,,,,,,,,,,,,,,,,,,
,,,,,,,,,,,,,,1,001,2024-08-30_12h38.18.860,IAT(Formal),2021.2.3,MacIntel,58.82352941,,,,,,,,,,,,,,,i,1,0.699,0,37,37,9,1,其他,i,,,,,,,,,,,,,,,,,,,,,,,,,,,,,,,,,,,,,,,,,
,,,,,,,,,,,,,,1,001,2024-08-30_12h38.18.860,IAT(Formal),2021.2.3,MacIntel,58.82352941,,,,,,,,,,,,,,,e,1,0.884,0,38,38,29,1,诚恳,e,,,,,,,,,,,,,,,,,,,,,,,,,,,,,,,,,,,,,,,,,
,,,,,,,,,,,,,,1,001,2024-08-30_12h38.18.860,IAT(Formal),2021.2.3,MacIntel,58.82352941,,,,,,,,,,,,,,,i,1,0.635,0,39,39,67,1,他的,i,,,,,,,,,,,,,,,,,,,,,,,,,,,,,,,,,,,,,,,,,
,,,,,,,,,,,,,,1,001,2024-08-30_12h38.18.860,IAT(Formal),2021.2.3,MacIntel,58.82352941,,,,,,,,,,,,,,,e,1,0.662,0,40,40,1,1,我的,e,,,,,,,,,,,,,,,,,,,,,,,,,,,,,,,,,,,,,,,,,
,,,,,,,,,,,,,,1,001,2024-08-30_12h38.18.860,IAT(Formal),2021.2.3,MacIntel,58.82352941,,,,,,,,,,,,,,,i,1,0.723,0,41,41,42,1,凶狠,i,,,,,,,,,,,,,,,,,,,,,,,,,,,,,,,,,,,,,,,,,
,,,,,,,,,,,,,,1,001,2024-08-30_12h38.18.860,IAT(Formal),2021.2.3,MacIntel,58.82352941,,,,,,,,,,,,,,,e,1,0.737,0,42,42,73,1,自己,e,,,,,,,,,,,,,,,,,,,,,,,,,,,,,,,,,,,,,,,,,
,,,,,,,,,,,,,,1,001,2024-08-30_12h38.18.860,IAT(Formal),2021.2.3,MacIntel,58.82352941,,,,,,,,,,,,,,,i,1,0.702,0,43,43,46,1,野蛮,i,,,,,,,,,,,,,,,,,,,,,,,,,,,,,,,,,,,,,,,,,
,,,,,,,,,,,,,,1,001,2024-08-30_12h38.18.860,IAT(Formal),2021.2.3,MacIntel,58.82352941,,,,,,,,,,,,,,,e,1,0.755,0,44,44,28,1,活泼,e,,,,,,,,,,,,,,,,,,,,,,,,,,,,,,,,,,,,,,,,,
,,,,,,,,,,,,,,1,001,2024-08-30_12h38.18.860,IAT(Formal),2021.2.3,MacIntel,58.82352941,,,,,,,,,,,,,,,e,1,0.786,0,45,45,54,1,俺,e,,,,,,,,,,,,,,,,,,,,,,,,,,,,,,,,,,,,,,,,,
,,,,,,,,,,,,,,1,001,2024-08-30_12h38.18.860,IAT(Formal),2021.2.3,MacIntel,58.82352941,,,,,,,,,,,,,,,e,1,0.599,0,46,46,51,1,我的,e,,,,,,,,,,,,,,,,,,,,,,,,,,,,,,,,,,,,,,,,,
,,,,,,,,,,,,,,1,001,2024-08-30_12h38.18.860,IAT(Formal),2021.2.3,MacIntel,58.82352941,,,,,,,,,,,,,,,i,1,0.683,0,47,47,49,1,下贱,i,,,,,,,,,,,,,,,,,,,,,,,,,,,,,,,,,,,,,,,,,
,,,,,,,,,,,,,,1,001,2024-08-30_12h38.18.860,IAT(Formal),2021.2.3,MacIntel,58.82352941,,,,,,,,,,,,,,,e,1,0.77,0,48,48,10,1,优秀,e,,,,,,,,,,,,,,,,,,,,,,,,,,,,,,,,,,,,,,,,,
,,,,,,,,,,,,,,1,001,2024-08-30_12h38.18.860,IAT(Formal),2021.2.3,MacIntel,58.82352941,,,,,,,,,,,,,,,e,1,0.762,0,49,49,23,1,公正,e,,,,,,,,,,,,,,,,,,,,,,,,,,,,,,,,,,,,,,,,,
,,,,,,,,,,,,,,1,001,2024-08-30_12h38.18.860,IAT(Formal),2021.2.3,MacIntel,58.82352941,,,,,,,,,,,,,,,e,1,0.8,0,50,50,25,1,细腻,e,,,,,,,,,,,,,,,,,,,,,,,,,,,,,,,,,,,,,,,,,
,,,,,,,,,,,,,,1,001,2024-08-30_12h38.18.860,IAT(Formal),2021.2.3,MacIntel,58.82352941,,,,,,,,,,,,,,,e,1,0.569,0,51,51,63,1,自己,e,,,,,,,,,,,,,,,,,,,,,,,,,,,,,,,,,,,,,,,,,
,,,,,,,,,,,,,,1,001,2024-08-30_12h38.18.860,IAT(Formal),2021.2.3,MacIntel,58.82352941,,,,,,,,,,,,,,,e,1,0.731,0,52,52,72,1,我们,e,,,,,,,,,,,,,,,,,,,,,,,,,,,,,,,,,,,,,,,,,
,,,,,,,,,,,,,,1,001,2024-08-30_12h38.18.860,IAT(Formal),2021.2.3,MacIntel,58.82352941,,,,,,,,,,,,,,,i,1,0.779,0,53,53,30,1,卑鄙,i,,,,,,,,,,,,,,,,,,,,,,,,,,,,,,,,,,,,,,,,,
,,,,,,,,,,,,,,1,001,2024-08-30_12h38.18.860,IAT(Formal),2021.2.3,MacIntel,58.82352941,,,,,,,,,,,,,,,i,1,0.851,0,54,54,57,1,他的,i,,,,,,,,,,,,,,,,,,,,,,,,,,,,,,,,,,,,,,,,,
,,,,,,,,,,,,,,1,001,2024-08-30_12h38.18.860,IAT(Formal),2021.2.3,MacIntel,58.82352941,,,,,,,,,,,,,,,i,1,0.658,0,55,55,44,1,暴躁,i,,,,,,,,,,,,,,,,,,,,,,,,,,,,,,,,,,,,,,,,,
,,,,,,,,,,,,,,1,001,2024-08-30_12h38.18.860,IAT(Formal),2021.2.3,MacIntel,58.82352941,,,,,,,,,,,,,,,i,1,0.637,0,56,56,33,1,刻薄,i,,,,,,,,,,,,,,,,,,,,,,,,,,,,,,,,,,,,,,,,,
,,,,,,,,,,,,,,1,001,2024-08-30_12h38.18.860,IAT(Formal),2021.2.3,MacIntel,58.82352941,,,,,,,,,,,,,,,e,1,0.716,0,57,57,20,1,认真,e,,,,,,,,,,,,,,,,,,,,,,,,,,,,,,,,,,,,,,,,,
,,,,,,,,,,,,,,1,001,2024-08-30_12h38.18.860,IAT(Formal),2021.2.3,MacIntel,58.82352941,,,,,,,,,,,,,,,i,1,0.729,0,58,58,55,1,他,i,,,,,,,,,,,,,,,,,,,,,,,,,,,,,,,,,,,,,,,,,
,,,,,,,,,,,,,,1,001,2024-08-30_12h38.18.860,IAT(Formal),2021.2.3,MacIntel,58.82352941,,,,,,,,,,,,,,,e,1,1.098,0,59,59,11,1,崇高,e,,,,,,,,,,,,,,,,,,,,,,,,,,,,,,,,,,,,,,,,,
,,,,,,,,,,,,,,1,001,2024-08-30_12h38.18.860,IAT(Formal),2021.2.3,MacIntel,58.82352941,,,,,,,,,,,,,,,e,1,0.847,0,60,60,22,1,无私,e,,,,,,,,,,,,,,,,,,,,,,,,,,,,,,,,,,,,,,,,,
,,,,,,,,,,,,,,1,001,2024-08-30_12h38.18.860,IAT(Formal),2021.2.3,MacIntel,58.82352941,,,,,,,,,,,,,,,e,1,0.702,0,61,61,21,1,稳重,e,,,,,,,,,,,,,,,,,,,,,,,,,,,,,,,,,,,,,,,,,
,,,,,,,,,,,,,,1,001,2024-08-30_12h38.18.860,IAT(Formal),2021.2.3,MacIntel,58.82352941,,,,,,,,,,,,,,,e,1,0.851,0,62,62,52,1,我们,e,,,,,,,,,,,,,,,,,,,,,,,,,,,,,,,,,,,,,,,,,
,,,,,,,,,,,,,,1,001,2024-08-30_12h38.18.860,IAT(Formal),2021.2.3,MacIntel,58.82352941,,,,,,,,,,,,,,,i,1,0.683,0,63,63,6,1,他们,i,,,,,,,,,,,,,,,,,,,,,,,,,,,,,,,,,,,,,,,,,
,,,,,,,,,,,,,,1,001,2024-08-30_12h38.18.860,IAT(Formal),2021.2.3,MacIntel,58.82352941,,,,,,,,,,,,,,,e,1,0.942,0,64,64,26,1,冷静,e,,,,,,,,,,,,,,,,,,,,,,,,,,,,,,,,,,,,,,,,,
,,,,,,,,,,,,,,1,001,2024-08-30_12h38.18.860,IAT(Formal),2021.2.3,MacIntel,58.82352941,,,,,,,,,,,,,,,i,1,1.07,0,65,65,38,1,鲁莽,i,,,,,,,,,,,,,,,,,,,,,,,,,,,,,,,,,,,,,,,,,
,,,,,,,,,,,,,,1,001,2024-08-30_12h38.18.860,IAT(Formal),2021.2.3,MacIntel,58.82352941,,,,,,,,,,,,,,,i,1,0.933,0,66,66,75,1,他,i,,,,,,,,,,,,,,,,,,,,,,,,,,,,,,,,,,,,,,,,,
,,,,,,,,,,,,,,1,001,2024-08-30_12h38.18.860,IAT(Formal),2021.2.3,MacIntel,58.82352941,,,,,,,,,,,,,,,e,1,0.79,0,67,67,2,1,我们,e,,,,,,,,,,,,,,,,,,,,,,,,,,,,,,,,,,,,,,,,,
,,,,,,,,,,,,,,1,001,2024-08-30_12h38.18.860,IAT(Formal),2021.2.3,MacIntel,58.82352941,,,,,,,,,,,,,,,i,1,1.152,0,68,68,47,1,固执,i,,,,,,,,,,,,,,,,,,,,,,,,,,,,,,,,,,,,,,,,,
,,,,,,,,,,,,,,1,001,2024-08-30_12h38.18.860,IAT(Formal),2021.2.3,MacIntel,58.82352941,,,,,,,,,,,,,,,e,1,0.724,0,69,69,13,1,杰出,e,,,,,,,,,,,,,,,,,,,,,,,,,,,,,,,,,,,,,,,,,
,,,,,,,,,,,,,,1,001,2024-08-30_12h38.18.860,IAT(Formal),2021.2.3,MacIntel,58.82352941,,,,,,,,,,,,,,,i,1,0.682,0,70,70,56,1,他们,i,,,,,,,,,,,,,,,,,,,,,,,,,,,,,,,,,,,,,,,,,
,,,,,,,,,,,,,,1,001,2024-08-30_12h38.18.860,IAT(Formal),2021.2.3,MacIntel,58.82352941,,,,,,,,,,,,,,,i,1,0.765,0,71,71,7,1,他的,i,,,,,,,,,,,,,,,,,,,,,,,,,,,,,,,,,,,,,,,,,
,,,,,,,,,,,,,,1,001,2024-08-30_12h38.18.860,IAT(Formal),2021.2.3,MacIntel,58.82352941,,,,,,,,,,,,,,,i,1,0.655,0,72,72,77,1,他的,i,,,,,,,,,,,,,,,,,,,,,,,,,,,,,,,,,,,,,,,,,
,,,,,,,,,,,,,,1,001,2024-08-30_12h38.18.860,IAT(Formal),2021.2.3,MacIntel,58.82352941,,,,,,,,,,,,,,,e,1,0.6,0,73,73,12,1,聪明,e,,,,,,,,,,,,,,,,,,,,,,,,,,,,,,,,,,,,,,,,,
,,,,,,,,,,,,,,1,001,2024-08-30_12h38.18.860,IAT(Formal),2021.2.3,MacIntel,58.82352941,,,,,,,,,,,,,,,e,0,1.064,0,74,74,79,1,其他,i,,,,,,,,,,,,,,,,,,,,,,,,,,,,,,,,,,,,,,,,,
,,,,,,,,,,,,,,1,001,2024-08-30_12h38.18.860,IAT(Formal),2021.2.3,MacIntel,58.82352941,,,,,,,,,,,,,,,,0,,0,75,75,36,1,自卑,i,,,,,,,,,,,,,,,,,,,,,,,,,,,,,,,,,,,,,,,,,
,,,,,,,,,,,,,,1,001,2024-08-30_12h38.18.860,IAT(Formal),2021.2.3,MacIntel,58.82352941,,,,,,,,,,,,,,,,0,,0,76,76,18,1,勤奋,e,,,,,,,,,,,,,,,,,,,,,,,,,,,,,,,,,,,,,,,,,
,,,,,,,,,,,,,,1,001,2024-08-30_12h38.18.860,IAT(Formal),2021.2.3,MacIntel,58.82352941,,,,,,,,,,,,,,,i,1,0.786,0,77,77,35,1,消极,i,,,,,,,,,,,,,,,,,,,,,,,,,,,,,,,,,,,,,,,,,
,,,,,,,,,,,,,,1,001,2024-08-30_12h38.18.860,IAT(Formal),2021.2.3,MacIntel,58.82352941,,,,,,,,,,,,,,,e,1,0.617,0,78,78,19,1,机智,e,,,,,,,,,,,,,,,,,,,,,,,,,,,,,,,,,,,,,,,,,
,,,,,,,,,,,,,,1,001,2024-08-30_12h38.18.860,IAT(Formal),2021.2.3,MacIntel,58.82352941,,,,,,,,,,,,,,,e,1,0.95,0,79,79,4,1,俺,e,,,,,,,,,,,,,,,,,,,,,,,,,,,,,,,,,,,,,,,,,
,,,,,,,,,,,,,,1,001,2024-08-30_12h38.18.860,IAT(Formal),2021.2.3,MacIntel,58.82352941,,,,,,,,,,,,,,,e,1,1.205,,,,,,俺,e,space,14.006,0,0,0,4,1,,,,,,,,,,,,,,,,,,,,,,,,,,,,,,,,,,
,,,,,,,,,,,,,,1,001,2024-08-30_12h38.18.860,IAT(Formal),2021.2.3,MacIntel,58.82352941,,,,,,,,,,,,,,,i,1,0.806,,,,,,其他,i,,,0,1,1,69,1,,,,,,,,,,,,,,,,,,,,,,,,,,,,,,,,,,
,,,,,,,,,,,,,,1,001,2024-08-30_12h38.18.860,IAT(Formal),2021.2.3,MacIntel,58.82352941,,,,,,,,,,,,,,,e,1,0.684,,,,,,稳重,e,,,0,2,2,21,1,,,,,,,,,,,,,,,,,,,,,,,,,,,,,,,,,,
,,,,,,,,,,,,,,1,001,2024-08-30_12h38.18.860,IAT(Formal),2021.2.3,MacIntel,58.82352941,,,,,,,,,,,,,,,i,1,0.69,,,,,,他的,i,,,0,3,3,77,1,,,,,,,,,,,,,,,,,,,,,,,,,,,,,,,,,,
,,,,,,,,,,,,,,1,001,2024-08-30_12h38.18.860,IAT(Formal),2021.2.3,MacIntel,58.82352941,,,,,,,,,,,,,,,i,1,0.669,,,,,,凶狠,i,,,0,4,4,42,1,,,,,,,,,,,,,,,,,,,,,,,,,,,,,,,,,,
,,,,,,,,,,,,,,1,001,2024-08-30_12h38.18.860,IAT(Formal),2021.2.3,MacIntel,58.82352941,,,,,,,,,,,,,,,e,1,0.582,,,,,,正直,e,,,0,5,5,16,1,,,,,,,,,,,,,,,,,,,,,,,,,,,,,,,,,,
,,,,,,,,,,,,,,1,001,2024-08-30_12h38.18.860,IAT(Formal),2021.2.3,MacIntel,58.82352941,,,,,,,,,,,,,,,e,1,0.614,,,,,,我,e,,,0,6,6,0,1,,,,,,,,,,,,,,,,,,,,,,,,,,,,,,,,,,
,,,,,,,,,,,,,,1,001,2024-08-30_12h38.18.860,IAT(Formal),2021.2.3,MacIntel,58.82352941,,,,,,,,,,,,,,,i,1,1.184,,,,,,自卑,i,,,0,7,7,36,1,,,,,,,,,,,,,,,,,,,,,,,,,,,,,,,,,,
,,,,,,,,,,,,,,1,001,2024-08-30_12h38.18.860,IAT(Formal),2021.2.3,MacIntel,58.82352941,,,,,,,,,,,,,,,e,1,0.756,,,,,,诚恳,e,,,0,8,8,29,1,,,,,,,,,,,,,,,,,,,,,,,,,,,,,,,,,,
,,,,,,,,,,,,,,1,001,2024-08-30_12h38.18.860,IAT(Formal),2021.2.3,MacIntel,58.82352941,,,,,,,,,,,,,,,i,1,0.765,,,,,,他,i,,,0,9,9,55,1,,,,,,,,,,,,,,,,,,,,,,,,,,,,,,,,,,
,,,,,,,,,,,,,,1,001,2024-08-30_12h38.18.860,IAT(Formal),2021.2.3,MacIntel,58.82352941,,,,,,,,,,,,,,,i,1,0.646,,,,,,他们,i,,,0,10,10,66,1,,,,,,,,,,,,,,,,,,,,,,,,,,,,,,,,,,
,,,,,,,,,,,,,,1,001,2024-08-30_12h38.18.860,IAT(Formal),2021.2.3,MacIntel,58.82352941,,,,,,,,,,,,,,,i,1,0.652,,,,,,其他,i,,,0,11,11,9,1,,,,,,,,,,,,,,,,,,,,,,,,,,,,,,,,,,
,,,,,,,,,,,,,,1,001,2024-08-30_12h38.18.860,IAT(Formal),2021.2.3,MacIntel,58.82352941,,,,,,,,,,,,,,,e,1,0.767,,,,,,冷静,e,,,0,12,12,26,1,,,,,,,,,,,,,,,,,,,,,,,,,,,,,,,,,,
,,,,,,,,,,,,,,1,001,2024-08-30_12h38.18.860,IAT(Formal),2021.2.3,MacIntel,58.82352941,,,,,,,,,,,,,,,i,1,0.606,,,,,,下贱,i,,,0,13,13,49,1,,,,,,,,,,,,,,,,,,,,,,,,,,,,,,,,,,
,,,,,,,,,,,,,,1,001,2024-08-30_12h38.18.860,IAT(Formal),2021.2.3,MacIntel,58.82352941,,,,,,,,,,,,,,,e,1,0.784,,,,,,我们,e,,,0,14,14,2,1,,,,,,,,,,,,,,,,,,,,,,,,,,,,,,,,,,
,,,,,,,,,,,,,,1,001,2024-08-30_12h38.18.860,IAT(Formal),2021.2.3,MacIntel,58.82352941,,,,,,,,,,,,,,,e,1,0.846,,,,,,认真,e,,,0,15,15,20,1,,,,,,,,,,,,,,,,,,,,,,,,,,,,,,,,,,
,,,,,,,,,,,,,,1,001,2024-08-30_12h38.18.860,IAT(Formal),2021.2.3,MacIntel,58.82352941,,,,,,,,,,,,,,,e,1,0.731,,,,,,自己,e,,,0,16,16,53,1,,,,,,,,,,,,,,,,,,,,,,,,,,,,,,,,,,
,,,,,,,,,,,,,,1,001,2024-08-30_12h38.18.860,IAT(Formal),2021.2.3,MacIntel,58.82352941,,,,,,,,,,,,,,,e,1,0.723,,,,,,我们,e,,,0,17,17,52,1,,,,,,,,,,,,,,,,,,,,,,,,,,,,,,,,,,
,,,,,,,,,,,,,,1,001,2024-08-30_12h38.18.860,IAT(Formal),2021.2.3,MacIntel,58.82352941,,,,,,,,,,,,,,,i,1,0.712,,,,,,鲁莽,i,,,0,18,18,38,1,,,,,,,,,,,,,,,,,,,,,,,,,,,,,,,,,,
,,,,,,,,,,,,,,1,001,2024-08-30_12h38.18.860,IAT(Formal),2021.2.3,MacIntel,58.82352941,,,,,,,,,,,,,,,e,1,1.047,,,,,,勤奋,e,,,0,19,19,18,1,,,,,,,,,,,,,,,,,,,,,,,,,,,,,,,,,,
,,,,,,,,,,,,,,1,001,2024-08-30_12h38.18.860,IAT(Formal),2021.2.3,MacIntel,58.82352941,,,,,,,,,,,,,,,i,1,1.131,,,,,,他人,i,,,0,20,20,8,1,,,,,,,,,,,,,,,,,,,,,,,,,,,,,,,,,,
,,,,,,,,,,,,,,1,001,2024-08-30_12h38.18.860,IAT(Formal),2021.2.3,MacIntel,58.82352941,,,,,,,,,,,,,,,e,1,0.683,,,,,,我们,e,,,0,21,21,72,1,,,,,,,,,,,,,,,,,,,,,,,,,,,,,,,,,,
,,,,,,,,,,,,,,1,001,2024-08-30_12h38.18.860,IAT(Formal),2021.2.3,MacIntel,58.82352941,,,,,,,,,,,,,,,i,1,0.773,,,,,,他们,i,,,0,22,22,6,1,,,,,,,,,,,,,,,,,,,,,,,,,,,,,,,,,,
,,,,,,,,,,,,,,1,001,2024-08-30_12h38.18.860,IAT(Formal),2021.2.3,MacIntel,58.82352941,,,,,,,,,,,,,,,i,1,0.716,,,,,,暴躁,i,,,0,23,23,44,1,,,,,,,,,,,,,,,,,,,,,,,,,,,,,,,,,,
,,,,,,,,,,,,,,1,001,2024-08-30_12h38.18.860,IAT(Formal),2021.2.3,MacIntel,58.82352941,,,,,,,,,,,,,,,i,1,0.671,,,,,,他们,i,,,0,24,24,56,1,,,,,,,,,,,,,,,,,,,,,,,,,,,,,,,,,,
,,,,,,,,,,,,,,1,001,2024-08-30_12h38.18.860,IAT(Formal),2021.2.3,MacIntel,58.82352941,,,,,,,,,,,,,,,e,1,0.645,,,,,,我的,e,,,0,25,25,61,1,,,,,,,,,,,,,,,,,,,,,,,,,,,,,,,,,,
,,,,,,,,,,,,,,1,001,2024-08-30_12h38.18.860,IAT(Formal),2021.2.3,MacIntel,58.82352941,,,,,,,,,,,,,,,i,1,1.065,,,,,,傲慢,i,,,0,26,26,37,1,,,,,,,,,,,,,,,,,,,,,,,,,,,,,,,,,,
,,,,,,,,,,,,,,1,001,2024-08-30_12h38.18.860,IAT(Formal),2021.2.3,MacIntel,58.82352941,,,,,,,,,,,,,,,i,1,0.671,,,,,,虚伪,i,,,0,27,27,31,1,,,,,,,,,,,,,,,,,,,,,,,,,,,,,,,,,,
,,,,,,,,,,,,,,1,001,2024-08-30_12h38.18.860,IAT(Formal),2021.2.3,MacIntel,58.82352941,,,,,,,,,,,,,,,i,1,0.6,,,,,,刻薄,i,,,0,28,28,33,1,,,,,,,,,,,,,,,,,,,,,,,,,,,,,,,,,,
,,,,,,,,,,,,,,1,001,2024-08-30_12h38.18.860,IAT(Formal),2021.2.3,MacIntel,58.82352941,,,,,,,,,,,,,,,e,1,0.897,,,,,,我的,e,,,0,29,29,71,1,,,,,,,,,,,,,,,,,,,,,,,,,,,,,,,,,,
,,,,,,,,,,,,,,1,001,2024-08-30_12h38.18.860,IAT(Formal),2021.2.3,MacIntel,58.82352941,,,,,,,,,,,,,,,e,1,0.918,,,,,,崇高,e,,,0,30,30,11,1,,,,,,,,,,,,,,,,,,,,,,,,,,,,,,,,,,
,,,,,,,,,,,,,,1,001,2024-08-30_12h38.18.860,IAT(Formal),2021.2.3,MacIntel,58.82352941,,,,,,,,,,,,,,,e,0,0.797,,,,,,轻率,i,,,0,31,31,48,1,,,,,,,,,,,,,,,,,,,,,,,,,,,,,,,,,,
,,,,,,,,,,,,,,1,001,2024-08-30_12h38.18.860,IAT(Formal),2021.2.3,MacIntel,58.82352941,,,,,,,,,,,,,,,i,1,0.815,,,,,,他的,i,,,0,32,32,67,1,,,,,,,,,,,,,,,,,,,,,,,,,,,,,,,,,,
,,,,,,,,,,,,,,1,001,2024-08-30_12h38.18.860,IAT(Formal),2021.2.3,MacIntel,58.82352941,,,,,,,,,,,,,,,e,1,0.683,,,,,,机智,e,,,0,33,33,19,1,,,,,,,,,,,,,,,,,,,,,,,,,,,,,,,,,,
,,,,,,,,,,,,,,1,001,2024-08-30_12h38.18.860,IAT(Formal),2021.2.3,MacIntel,58.82352941,,,,,,,,,,,,,,,i,1,0.791,,,,,,野蛮,i,,,0,34,34,46,1,,,,,,,,,,,,,,,,,,,,,,,,,,,,,,,,,,
,,,,,,,,,,,,,,1,001,2024-08-30_12h38.18.860,IAT(Formal),2021.2.3,MacIntel,58.82352941,,,,,,,,,,,,,,,e,1,1.023,,,,,,无私,e,,,0,35,35,22,1,,,,,,,,,,,,,,,,,,,,,,,,,,,,,,,,,,
,,,,,,,,,,,,,,1,001,2024-08-30_12h38.18.860,IAT(Formal),2021.2.3,MacIntel,58.82352941,,,,,,,,,,,,,,,e,1,0.681,,,,,,诚实,e,,,0,36,36,15,1,,,,,,,,,,,,,,,,,,,,,,,,,,,,,,,,,,
,,,,,,,,,,,,,,1,001,2024-08-30_12h38.18.860,IAT(Formal),2021.2.3,MacIntel,58.82352941,,,,,,,,,,,,,,,i,1,0.906,,,,,,他人,i,,,0,37,37,78,1,,,,,,,,,,,,,,,,,,,,,,,,,,,,,,,,,,
,,,,,,,,,,,,,,1,001,2024-08-30_12h38.18.860,IAT(Formal),2021.2.3,MacIntel,58.82352941,,,,,,,,,,,,,,,i,1,0.933,,,,,,愚蠢,i,,,0,38,38,32,1,,,,,,,,,,,,,,,,,,,,,,,,,,,,,,,,,,
,,,,,,,,,,,,,,1,001,2024-08-30_12h38.18.860,IAT(Formal),2021.2.3,MacIntel,58.82352941,,,,,,,,,,,,,,,e,1,0.917,,,,,,我,e,,,0,39,39,70,1,,,,,,,,,,,,,,,,,,,,,,,,,,,,,,,,,,
,,,,,,,,,,,,,,1,001,2024-08-30_12h38.18.860,IAT(Formal),2021.2.3,MacIntel,58.82352941,,,,,,,,,,,,,,,e,1,0.587,,,,,,俺,e,,,0,40,40,64,1,,,,,,,,,,,,,,,,,,,,,,,,,,,,,,,,,,
,,,,,,,,,,,,,,1,001,2024-08-30_12h38.18.860,IAT(Formal),2021.2.3,MacIntel,58.82352941,,,,,,,,,,,,,,,e,1,0.664,,,,,,我,e,,,0,41,41,60,1,,,,,,,,,,,,,,,,,,,,,,,,,,,,,,,,,,
,,,,,,,,,,,,,,1,001,2024-08-30_12h38.18.860,IAT(Formal),2021.2.3,MacIntel,58.82352941,,,,,,,,,,,,,,,e,1,0.591,,,,,,自己,e,,,0,42,42,3,1,,,,,,,,,,,,,,,,,,,,,,,,,,,,,,,,,,
,,,,,,,,,,,,,,1,001,2024-08-30_12h38.18.860,IAT(Formal),2021.2.3,MacIntel,58.82352941,,,,,,,,,,,,,,,i,1,0.767,,,,,,卑鄙,i,,,0,43,43,30,1,,,,,,,,,,,,,,,,,,,,,,,,,,,,,,,,,,
,,,,,,,,,,,,,,1,001,2024-08-30_12h38.18.860,IAT(Formal),2021.2.3,MacIntel,58.82352941,,,,,,,,,,,,,,,e,1,0.767,,,,,,优秀,e,,,0,44,44,10,1,,,,,,,,,,,,,,,,,,,,,,,,,,,,,,,,,,
,,,,,,,,,,,,,,1,001,2024-08-30_12h38.18.860,IAT(Formal),2021.2.3,MacIntel,58.82352941,,,,,,,,,,,,,,,e,1,0.535,,,,,,俺,e,,,0,45,45,54,1,,,,,,,,,,,,,,,,,,,,,,,,,,,,,,,,,,
,,,,,,,,,,,,,,1,001,2024-08-30_12h38.18.860,IAT(Formal),2021.2.3,MacIntel,58.82352941,,,,,,,,,,,,,,,i,1,0.769,,,,,,其他,i,,,0,46,46,79,1,,,,,,,,,,,,,,,,,,,,,,,,,,,,,,,,,,
,,,,,,,,,,,,,,1,001,2024-08-30_12h38.18.860,IAT(Formal),2021.2.3,MacIntel,58.82352941,,,,,,,,,,,,,,,i,1,0.749,,,,,,猖狂,i,,,0,47,47,45,1,,,,,,,,,,,,,,,,,,,,,,,,,,,,,,,,,,
,,,,,,,,,,,,,,1,001,2024-08-30_12h38.18.860,IAT(Formal),2021.2.3,MacIntel,58.82352941,,,,,,,,,,,,,,,i,1,0.932,,,,,,悲观,i,,,0,48,48,34,1,,,,,,,,,,,,,,,,,,,,,,,,,,,,,,,,,,
,,,,,,,,,,,,,,1,001,2024-08-30_12h38.18.860,IAT(Formal),2021.2.3,MacIntel,58.82352941,,,,,,,,,,,,,,,i,1,1.368,,,,,,自私,i,,,0,49,49,43,1,,,,,,,,,,,,,,,,,,,,,,,,,,,,,,,,,,
,,,,,,,,,,,,,,1,001,2024-08-30_12h38.18.860,IAT(Formal),2021.2.3,MacIntel,58.82352941,,,,,,,,,,,,,,,i,1,0.806,,,,,,他们,i,,,0,50,50,76,1,,,,,,,,,,,,,,,,,,,,,,,,,,,,,,,,,,
,,,,,,,,,,,,,,1,001,2024-08-30_12h38.18.860,IAT(Formal),2021.2.3,MacIntel,58.82352941,,,,,,,,,,,,,,,i,1,0.57,,,,,,消极,i,,,0,51,51,35,1,,,,,,,,,,,,,,,,,,,,,,,,,,,,,,,,,,
,,,,,,,,,,,,,,1,001,2024-08-30_12h38.18.860,IAT(Formal),2021.2.3,MacIntel,58.82352941,,,,,,,,,,,,,,,e,1,0.701,,,,,,俺,e,,,0,52,52,74,1,,,,,,,,,,,,,,,,,,,,,,,,,,,,,,,,,,
,,,,,,,,,,,,,,1,001,2024-08-30_12h38.18.860,IAT(Formal),2021.2.3,MacIntel,58.82352941,,,,,,,,,,,,,,,e,1,0.657,,,,,,我的,e,,,0,53,53,51,1,,,,,,,,,,,,,,,,,,,,,,,,,,,,,,,,,,
,,,,,,,,,,,,,,1,001,2024-08-30_12h38.18.860,IAT(Formal),2021.2.3,MacIntel,58.82352941,,,,,,,,,,,,,,,e,1,0.849,,,,,,热情,e,,,0,54,54,27,1,,,,,,,,,,,,,,,,,,,,,,,,,,,,,,,,,,
,,,,,,,,,,,,,,1,001,2024-08-30_12h38.18.860,IAT(Formal),2021.2.3,MacIntel,58.82352941,,,,,,,,,,,,,,,i,1,0.968,,,,,,他人,i,,,0,55,55,68,1,,,,,,,,,,,,,,,,,,,,,,,,,,,,,,,,,,
,,,,,,,,,,,,,,1,001,2024-08-30_12h38.18.860,IAT(Formal),2021.2.3,MacIntel,58.82352941,,,,,,,,,,,,,,,i,1,1.102,,,,,,散漫,i,,,0,56,56,41,1,,,,,,,,,,,,,,,,,,,,,,,,,,,,,,,,,,
,,,,,,,,,,,,,,1,001,2024-08-30_12h38.18.860,IAT(Formal),2021.2.3,MacIntel,58.82352941,,,,,,,,,,,,,,,e,1,1.417,,,,,,朴实,e,,,0,57,57,24,1,,,,,,,,,,,,,,,,,,,,,,,,,,,,,,,,,,
,,,,,,,,,,,,,,1,001,2024-08-30_12h38.18.860,IAT(Formal),2021.2.3,MacIntel,58.82352941,,,,,,,,,,,,,,,i,1,0.664,,,,,,他,i,,,0,58,58,5,1,,,,,,,,,,,,,,,,,,,,,,,,,,,,,,,,,,
,,,,,,,,,,,,,,1,001,2024-08-30_12h38.18.860,IAT(Formal),2021.2.3,MacIntel,58.82352941,,,,,,,,,,,,,,,e,1,0.497,,,,,,自己,e,,,0,59,59,63,1,,,,,,,,,,,,,,,,,,,,,,,,,,,,,,,,,,
,,,,,,,,,,,,,,1,001,2024-08-30_12h38.18.860,IAT(Formal),2021.2.3,MacIntel,58.82352941,,,,,,,,,,,,,,,i,1,0.549,,,,,,他的,i,,,0,60,60,57,1,,,,,,,,,,,,,,,,,,,,,,,,,,,,,,,,,,
,,,,,,,,,,,,,,1,001,2024-08-30_12h38.18.860,IAT(Formal),2021.2.3,MacIntel,58.82352941,,,,,,,,,,,,,,,i,1,0.588,,,,,,其他,i,,,0,61,61,59,1,,,,,,,,,,,,,,,,,,,,,,,,,,,,,,,,,,
,,,,,,,,,,,,,,1,001,2024-08-30_12h38.18.860,IAT(Formal),2021.2.3,MacIntel,58.82352941,,,,,,,,,,,,,,,i,1,1.143,,,,,,冒失,i,,,0,62,62,39,1,,,,,,,,,,,,,,,,,,,,,,,,,,,,,,,,,,
,,,,,,,,,,,,,,1,001,2024-08-30_12h38.18.860,IAT(Formal),2021.2.3,MacIntel,58.82352941,,,,,,,,,,,,,,,i,1,0.717,,,,,,执拗,i,,,0,63,63,40,1,,,,,,,,,,,,,,,,,,,,,,,,,,,,,,,,,,
,,,,,,,,,,,,,,1,001,2024-08-30_12h38.18.860,IAT(Formal),2021.2.3,MacIntel,58.82352941,,,,,,,,,,,,,,,e,1,1.084,,,,,,活泼,e,,,0,64,64,28,1,,,,,,,,,,,,,,,,,,,,,,,,,,,,,,,,,,
,,,,,,,,,,,,,,1,001,2024-08-30_12h38.18.860,IAT(Formal),2021.2.3,MacIntel,58.82352941,,,,,,,,,,,,,,,e,1,0.784,,,,,,乐观,e,,,0,65,65,14,1,,,,,,,,,,,,,,,,,,,,,,,,,,,,,,,,,,
,,,,,,,,,,,,,,1,001,2024-08-30_12h38.18.860,IAT(Formal),2021.2.3,MacIntel,58.82352941,,,,,,,,,,,,,,,e,1,0.781,,,,,,我们,e,,,0,66,66,62,1,,,,,,,,,,,,,,,,,,,,,,,,,,,,,,,,,,
,,,,,,,,,,,,,,1,001,2024-08-30_12h38.18.860,IAT(Formal),2021.2.3,MacIntel,58.82352941,,,,,,,,,,,,,,,i,1,1.136,,,,,,固执,i,,,0,67,67,47,1,,,,,,,,,,,,,,,,,,,,,,,,,,,,,,,,,,
,,,,,,,,,,,,,,1,001,2024-08-30_12h38.18.860,IAT(Formal),2021.2.3,MacIntel,58.82352941,,,,,,,,,,,,,,,e,1,0.616,,,,,,公正,e,,,0,68,68,23,1,,,,,,,,,,,,,,,,,,,,,,,,,,,,,,,,,,
,,,,,,,,,,,,,,1,001,2024-08-30_12h38.18.860,IAT(Formal),2021.2.3,MacIntel,58.82352941,,,,,,,,,,,,,,,i,1,1.003,,,,,,他,i,,,0,69,69,65,1,,,,,,,,,,,,,,,,,,,,,,,,,,,,,,,,,,
,,,,,,,,,,,,,,1,001,2024-08-30_12h38.18.860,IAT(Formal),2021.2.3,MacIntel,58.82352941,,,,,,,,,,,,,,,i,1,0.516,,,,,,他人,i,,,0,70,70,58,1,,,,,,,,,,,,,,,,,,,,,,,,,,,,,,,,,,
,,,,,,,,,,,,,,1,001,2024-08-30_12h38.18.860,IAT(Formal),2021.2.3,MacIntel,58.82352941,,,,,,,,,,,,,,,e,1,0.606,,,,,,细腻,e,,,0,71,71,25,1,,,,,,,,,,,,,,,,,,,,,,,,,,,,,,,,,,
,,,,,,,,,,,,,,1,001,2024-08-30_12h38.18.860,IAT(Formal),2021.2.3,MacIntel,58.82352941,,,,,,,,,,,,,,,i,1,0.717,,,,,,他,i,,,0,72,72,75,1,,,,,,,,,,,,,,,,,,,,,,,,,,,,,,,,,,
,,,,,,,,,,,,,,1,001,2024-08-30_12h38.18.860,IAT(Formal),2021.2.3,MacIntel,58.82352941,,,,,,,,,,,,,,,i,1,0.969,,,,,,他的,i,,,0,73,73,7,1,,,,,,,,,,,,,,,,,,,,,,,,,,,,,,,,,,
,,,,,,,,,,,,,,1,001,2024-08-30_12h38.18.860,IAT(Formal),2021.2.3,MacIntel,58.82352941,,,,,,,,,,,,,,,e,1,0.635,,,,,,杰出,e,,,0,74,74,13,1,,,,,,,,,,,,,,,,,,,,,,,,,,,,,,,,,,
,,,,,,,,,,,,,,1,001,2024-08-30_12h38.18.860,IAT(Formal),2021.2.3,MacIntel,58.82352941,,,,,,,,,,,,,,,e,1,0.73,,,,,,勇敢,e,,,0,75,75,17,1,,,,,,,,,,,,,,,,,,,,,,,,,,,,,,,,,,
,,,,,,,,,,,,,,1,001,2024-08-30_12h38.18.860,IAT(Formal),2021.2.3,MacIntel,58.82352941,,,,,,,,,,,,,,,e,1,0.581,,,,,,我,e,,,0,76,76,50,1,,,,,,,,,,,,,,,,,,,,,,,,,,,,,,,,,,
,,,,,,,,,,,,,,1,001,2024-08-30_12h38.18.860,IAT(Formal),2021.2.3,MacIntel,58.82352941,,,,,,,,,,,,,,,e,1,0.618,,,,,,自己,e,,,0,77,77,73,1,,,,,,,,,,,,,,,,,,,,,,,,,,,,,,,,,,
,,,,,,,,,,,,,,1,001,2024-08-30_12h38.18.860,IAT(Formal),2021.2.3,MacIntel,58.82352941,,,,,,,,,,,,,,,e,1,0.583,,,,,,我的,e,,,0,78,78,1,1,,,,,,,,,,,,,,,,,,,,,,,,,,,,,,,,,,
,,,,,,,,,,,,,,1,001,2024-08-30_12h38.18.860,IAT(Formal),2021.2.3,MacIntel,58.82352941,,,,,,,,,,,,,,,e,1,0.652,,,,,,聪明,e,,,0,79,79,12,1,,,,,,,,,,,,,,,,,,,,,,,,,,,,,,,,,,
,,,,,,,,,,,,,,1,001,2024-08-30_12h38.18.860,IAT(Formal),2021.2.3,MacIntel,58.82352941,,,,,,,,,,,,,,,e,1,0.585,,,,,,自己,e,,,1,0,80,73,1,,,,,,,,,,,,,,,,,,,,,,,,,,,,,,,,,,
,,,,,,,,,,,,,,1,001,2024-08-30_12h38.18.860,IAT(Formal),2021.2.3,MacIntel,58.82352941,,,,,,,,,,,,,,,e,1,0.565,,,,,,公正,e,,,1,1,81,23,1,,,,,,,,,,,,,,,,,,,,,,,,,,,,,,,,,,
,,,,,,,,,,,,,,1,001,2024-08-30_12h38.18.860,IAT(Formal),2021.2.3,MacIntel,58.82352941,,,,,,,,,,,,,,,e,1,0.597,,,,,,崇高,e,,,1,2,82,11,1,,,,,,,,,,,,,,,,,,,,,,,,,,,,,,,,,,
,,,,,,,,,,,,,,1,001,2024-08-30_12h38.18.860,IAT(Formal),2021.2.3,MacIntel,58.82352941,,,,,,,,,,,,,,,i,1,0.718,,,,,,虚伪,i,,,1,3,83,31,1,,,,,,,,,,,,,,,,,,,,,,,,,,,,,,,,,,
,,,,,,,,,,,,,,1,001,2024-08-30_12h38.18.860,IAT(Formal),2021.2.3,MacIntel,58.82352941,,,,,,,,,,,,,,,i,1,0.663,,,,,,鲁莽,i,,,1,4,84,38,1,,,,,,,,,,,,,,,,,,,,,,,,,,,,,,,,,,
,,,,,,,,,,,,,,1,001,2024-08-30_12h38.18.860,IAT(Formal),2021.2.3,MacIntel,58.82352941,,,,,,,,,,,,,,,i,1,0.951,,,,,,其他,i,,,1,5,85,69,1,,,,,,,,,,,,,,,,,,,,,,,,,,,,,,,,,,
,,,,,,,,,,,,,,1,001,2024-08-30_12h38.18.860,IAT(Formal),2021.2.3,MacIntel,58.82352941,,,,,,,,,,,,,,,e,1,0.656,,,,,,活泼,e,,,1,6,86,28,1,,,,,,,,,,,,,,,,,,,,,,,,,,,,,,,,,,
,,,,,,,,,,,,,,1,001,2024-08-30_12h38.18.860,IAT(Formal),2021.2.3,MacIntel,58.82352941,,,,,,,,,,,,,,,e,1,0.931,,,,,,正直,e,,,1,7,87,16,1,,,,,,,,,,,,,,,,,,,,,,,,,,,,,,,,,,
,,,,,,,,,,,,,,1,001,2024-08-30_12h38.18.860,IAT(Formal),2021.2.3,MacIntel,58.82352941,,,,,,,,,,,,,,,i,1,0.681,,,,,,他们,i,,,1,8,88,66,1,,,,,,,,,,,,,,,,,,,,,,,,,,,,,,,,,,
,,,,,,,,,,,,,,1,001,2024-08-30_12h38.18.860,IAT(Formal),2021.2.3,MacIntel,58.82352941,,,,,,,,,,,,,,,i,1,0.669,,,,,,悲观,i,,,1,9,89,34,1,,,,,,,,,,,,,,,,,,,,,,,,,,,,,,,,,,
,,,,,,,,,,,,,,1,001,2024-08-30_12h38.18.860,IAT(Formal),2021.2.3,MacIntel,58.82352941,,,,,,,,,,,,,,,e,1,0.73,,,,,,俺,e,,,1,10,90,74,1,,,,,,,,,,,,,,,,,,,,,,,,,,,,,,,,,,
,,,,,,,,,,,,,,1,001,2024-08-30_12h38.18.860,IAT(Formal),2021.2.3,MacIntel,58.82352941,,,,,,,,,,,,,,,e,1,0.905,,,,,,诚恳,e,,,1,11,91,29,1,,,,,,,,,,,,,,,,,,,,,,,,,,,,,,,,,,
,,,,,,,,,,,,,,1,001,2024-08-30_12h38.18.860,IAT(Formal),2021.2.3,MacIntel,58.82352941,,,,,,,,,,,,,,,i,1,0.655,,,,,,其他,i,,,1,12,92,9,1,,,,,,,,,,,,,,,,,,,,,,,,,,,,,,,,,,
,,,,,,,,,,,,,,1,001,2024-08-30_12h38.18.860,IAT(Formal),2021.2.3,MacIntel,58.82352941,,,,,,,,,,,,,,,i,1,0.903,,,,,,其他,i,,,1,13,93,59,1,,,,,,,,,,,,,,,,,,,,,,,,,,,,,,,,,,
,,,,,,,,,,,,,,1,001,2024-08-30_12h38.18.860,IAT(Formal),2021.2.3,MacIntel,58.82352941,,,,,,,,,,,,,,,e,1,0.872,,,,,,自己,e,,,1,14,94,3,1,,,,,,,,,,,,,,,,,,,,,,,,,,,,,,,,,,
,,,,,,,,,,,,,,1,001,2024-08-30_12h38.18.860,IAT(Formal),2021.2.3,MacIntel,58.82352941,,,,,,,,,,,,,,,e,1,0.935,,,,,,俺,e,,,1,15,95,4,1,,,,,,,,,,,,,,,,,,,,,,,,,,,,,,,,,,
,,,,,,,,,,,,,,1,001,2024-08-30_12h38.18.860,IAT(Formal),2021.2.3,MacIntel,58.82352941,,,,,,,,,,,,,,,e,1,1.033,,,,,,我们,e,,,1,16,96,52,1,,,,,,,,,,,,,,,,,,,,,,,,,,,,,,,,,,
,,,,,,,,,,,,,,1,001,2024-08-30_12h38.18.860,IAT(Formal),2021.2.3,MacIntel,58.82352941,,,,,,,,,,,,,,,e,1,0.657,,,,,,朴实,e,,,1,17,97,24,1,,,,,,,,,,,,,,,,,,,,,,,,,,,,,,,,,,
,,,,,,,,,,,,,,1,001,2024-08-30_12h38.18.860,IAT(Formal),2021.2.3,MacIntel,58.82352941,,,,,,,,,,,,,,,e,1,0.481,,,,,,我的,e,,,1,18,98,61,1,,,,,,,,,,,,,,,,,,,,,,,,,,,,,,,,,,
,,,,,,,,,,,,,,1,001,2024-08-30_12h38.18.860,IAT(Formal),2021.2.3,MacIntel,58.82352941,,,,,,,,,,,,,,,i,1,0.852,,,,,,自卑,i,,,1,19,99,36,1,,,,,,,,,,,,,,,,,,,,,,,,,,,,,,,,,,
,,,,,,,,,,,,,,1,001,2024-08-30_12h38.18.860,IAT(Formal),2021.2.3,MacIntel,58.82352941,,,,,,,,,,,,,,,e,1,0.591,,,,,,诚实,e,,,1,20,100,15,1,,,,,,,,,,,,,,,,,,,,,,,,,,,,,,,,,,
,,,,,,,,,,,,,,1,001,2024-08-30_12h38.18.860,IAT(Formal),2021.2.3,MacIntel,58.82352941,,,,,,,,,,,,,,,i,1,0.685,,,,,,他的,i,,,1,21,101,7,1,,,,,,,,,,,,,,,,,,,,,,,,,,,,,,,,,,
,,,,,,,,,,,,,,1,001,2024-08-30_12h38.18.860,IAT(Formal),2021.2.3,MacIntel,58.82352941,,,,,,,,,,,,,,,e,1,0.555,,,,,,优秀,e,,,1,22,102,10,1,,,,,,,,,,,,,,,,,,,,,,,,,,,,,,,,,,
,,,,,,,,,,,,,,1,001,2024-08-30_12h38.18.860,IAT(Formal),2021.2.3,MacIntel,58.82352941,,,,,,,,,,,,,,,e,1,0.719,,,,,,机智,e,,,1,23,103,19,1,,,,,,,,,,,,,,,,,,,,,,,,,,,,,,,,,,
,,,,,,,,,,,,,,1,001,2024-08-30_12h38.18.860,IAT(Formal),2021.2.3,MacIntel,58.82352941,,,,,,,,,,,,,,,i,1,0.868,,,,,,他人,i,,,1,24,104,78,1,,,,,,,,,,,,,,,,,,,,,,,,,,,,,,,,,,
,,,,,,,,,,,,,,1,001,2024-08-30_12h38.18.860,IAT(Formal),2021.2.3,MacIntel,58.82352941,,,,,,,,,,,,,,,e,1,0.702,,,,,,稳重,e,,,1,25,105,21,1,,,,,,,,,,,,,,,,,,,,,,,,,,,,,,,,,,
,,,,,,,,,,,,,,1,001,2024-08-30_12h38.18.860,IAT(Formal),2021.2.3,MacIntel,58.82352941,,,,,,,,,,,,,,,i,1,0.57,,,,,,猖狂,i,,,1,26,106,45,1,,,,,,,,,,,,,,,,,,,,,,,,,,,,,,,,,,
,,,,,,,,,,,,,,1,001,2024-08-30_12h38.18.860,IAT(Formal),2021.2.3,MacIntel,58.82352941,,,,,,,,,,,,,,,e,1,1.401,,,,,,冷静,e,,,1,27,107,26,1,,,,,,,,,,,,,,,,,,,,,,,,,,,,,,,,,,
,,,,,,,,,,,,,,1,001,2024-08-30_12h38.18.860,IAT(Formal),2021.2.3,MacIntel,58.82352941,,,,,,,,,,,,,,,i,1,0.769,,,,,,他,i,,,1,28,108,55,1,,,,,,,,,,,,,,,,,,,,,,,,,,,,,,,,,,
,,,,,,,,,,,,,,1,001,2024-08-30_12h38.18.860,IAT(Formal),2021.2.3,MacIntel,58.82352941,,,,,,,,,,,,,,,i,1,0.67,,,,,,暴躁,i,,,1,29,109,44,1,,,,,,,,,,,,,,,,,,,,,,,,,,,,,,,,,,
,,,,,,,,,,,,,,1,001,2024-08-30_12h38.18.860,IAT(Formal),2021.2.3,MacIntel,58.82352941,,,,,,,,,,,,,,,i,1,0.735,,,,,,傲慢,i,,,1,30,110,37,1,,,,,,,,,,,,,,,,,,,,,,,,,,,,,,,,,,
,,,,,,,,,,,,,,1,001,2024-08-30_12h38.18.860,IAT(Formal),2021.2.3,MacIntel,58.82352941,,,,,,,,,,,,,,,e,1,1.465,,,,,,我,e,,,1,31,111,50,1,,,,,,,,,,,,,,,,,,,,,,,,,,,,,,,,,,
,,,,,,,,,,,,,,1,001,2024-08-30_12h38.18.860,IAT(Formal),2021.2.3,MacIntel,58.82352941,,,,,,,,,,,,,,,i,1,0.685,,,,,,他们,i,,,1,32,112,76,1,,,,,,,,,,,,,,,,,,,,,,,,,,,,,,,,,,
,,,,,,,,,,,,,,1,001,2024-08-30_12h38.18.860,IAT(Formal),2021.2.3,MacIntel,58.82352941,,,,,,,,,,,,,,,e,1,0.657,,,,,,热情,e,,,1,33,113,27,1,,,,,,,,,,,,,,,,,,,,,,,,,,,,,,,,,,
,,,,,,,,,,,,,,1,001,2024-08-30_12h38.18.860,IAT(Formal),2021.2.3,MacIntel,58.82352941,,,,,,,,,,,,,,,e,1,0.631,,,,,,聪明,e,,,1,34,114,12,1,,,,,,,,,,,,,,,,,,,,,,,,,,,,,,,,,,
,,,,,,,,,,,,,,1,001,2024-08-30_12h38.18.860,IAT(Formal),2021.2.3,MacIntel,58.82352941,,,,,,,,,,,,,,,i,1,0.916,,,,,,野蛮,i,,,1,35,115,46,1,,,,,,,,,,,,,,,,,,,,,,,,,,,,,,,,,,
,,,,,,,,,,,,,,1,001,2024-08-30_12h38.18.860,IAT(Formal),2021.2.3,MacIntel,58.82352941,,,,,,,,,,,,,,,e,1,0.653,,,,,,我们,e,,,1,36,116,2,1,,,,,,,,,,,,,,,,,,,,,,,,,,,,,,,,,,
,,,,,,,,,,,,,,1,001,2024-08-30_12h38.18.860,IAT(Formal),2021.2.3,MacIntel,58.82352941,,,,,,,,,,,,,,,e,1,1.305,,,,,,我的,e,,,1,37,117,1,1,,,,,,,,,,,,,,,,,,,,,,,,,,,,,,,,,,
,,,,,,,,,,,,,,1,001,2024-08-30_12h38.18.860,IAT(Formal),2021.2.3,MacIntel,58.82352941,,,,,,,,,,,,,,,i,1,0.815,,,,,,其他,i,,,1,38,118,79,1,,,,,,,,,,,,,,,,,,,,,,,,,,,,,,,,,,
,,,,,,,,,,,,,,1,001,2024-08-30_12h38.18.860,IAT(Formal),2021.2.3,MacIntel,58.82352941,,,,,,,,,,,,,,,i,1,0.685,,,,,,他人,i,,,1,39,119,58,1,,,,,,,,,,,,,,,,,,,,,,,,,,,,,,,,,,
,,,,,,,,,,,,,,1,001,2024-08-30_12h38.18.860,IAT(Formal),2021.2.3,MacIntel,58.82352941,,,,,,,,,,,,,,,i,1,0.441,,,,,,他们,i,,,1,40,120,56,1,,,,,,,,,,,,,,,,,,,,,,,,,,,,,,,,,,
,,,,,,,,,,,,,,1,001,2024-08-30_12h38.18.860,IAT(Formal),2021.2.3,MacIntel,58.82352941,,,,,,,,,,,,,,,e,1,0.915,,,,,,俺,e,,,1,41,121,64,1,,,,,,,,,,,,,,,,,,,,,,,,,,,,,,,,,,
,,,,,,,,,,,,,,1,001,2024-08-30_12h38.18.860,IAT(Formal),2021.2.3,MacIntel,58.82352941,,,,,,,,,,,,,,,e,1,1.332,,,,,,自己,e,,,1,42,122,53,1,,,,,,,,,,,,,,,,,,,,,,,,,,,,,,,,,,
,,,,,,,,,,,,,,1,001,2024-08-30_12h38.18.860,IAT(Formal),2021.2.3,MacIntel,58.82352941,,,,,,,,,,,,,,,i,1,0.674,,,,,,凶狠,i,,,1,43,123,42,1,,,,,,,,,,,,,,,,,,,,,,,,,,,,,,,,,,
,,,,,,,,,,,,,,1,001,2024-08-30_12h38.18.860,IAT(Formal),2021.2.3,MacIntel,58.82352941,,,,,,,,,,,,,,,i,1,0.567,,,,,,冒失,i,,,1,44,124,39,1,,,,,,,,,,,,,,,,,,,,,,,,,,,,,,,,,,
,,,,,,,,,,,,,,1,001,2024-08-30_12h38.18.860,IAT(Formal),2021.2.3,MacIntel,58.82352941,,,,,,,,,,,,,,,i,1,0.569,,,,,,下贱,i,,,1,45,125,49,1,,,,,,,,,,,,,,,,,,,,,,,,,,,,,,,,,,
,,,,,,,,,,,,,,1,001,2024-08-30_12h38.18.860,IAT(Formal),2021.2.3,MacIntel,58.82352941,,,,,,,,,,,,,,,i,1,0.716,,,,,,他人,i,,,1,46,126,68,1,,,,,,,,,,,,,,,,,,,,,,,,,,,,,,,,,,
,,,,,,,,,,,,,,1,001,2024-08-30_12h38.18.860,IAT(Formal),2021.2.3,MacIntel,58.82352941,,,,,,,,,,,,,,,i,1,0.632,,,,,,散漫,i,,,1,47,127,41,1,,,,,,,,,,,,,,,,,,,,,,,,,,,,,,,,,,
,,,,,,,,,,,,,,1,001,2024-08-30_12h38.18.860,IAT(Formal),2021.2.3,MacIntel,58.82352941,,,,,,,,,,,,,,,i,0,1.069,,,,,,无私,e,,,1,48,128,22,1,,,,,,,,,,,,,,,,,,,,,,,,,,,,,,,,,,
,,,,,,,,,,,,,,1,001,2024-08-30_12h38.18.860,IAT(Formal),2021.2.3,MacIntel,58.82352941,,,,,,,,,,,,,,,i,1,1.107,,,,,,自私,i,,,1,49,129,43,1,,,,,,,,,,,,,,,,,,,,,,,,,,,,,,,,,,
,,,,,,,,,,,,,,1,001,2024-08-30_12h38.18.860,IAT(Formal),2021.2.3,MacIntel,58.82352941,,,,,,,,,,,,,,,e,1,0.621,,,,,,我的,e,,,1,50,130,51,1,,,,,,,,,,,,,,,,,,,,,,,,,,,,,,,,,,
,,,,,,,,,,,,,,1,001,2024-08-30_12h38.18.860,IAT(Formal),2021.2.3,MacIntel,58.82352941,,,,,,,,,,,,,,,i,1,0.668,,,,,,愚蠢,i,,,1,51,131,32,1,,,,,,,,,,,,,,,,,,,,,,,,,,,,,,,,,,
,,,,,,,,,,,,,,1,001,2024-08-30_12h38.18.860,IAT(Formal),2021.2.3,MacIntel,58.82352941,,,,,,,,,,,,,,,i,1,0.768,,,,,,他的,i,,,1,52,132,67,1,,,,,,,,,,,,,,,,,,,,,,,,,,,,,,,,,,
,,,,,,,,,,,,,,1,001,2024-08-30_12h38.18.860,IAT(Formal),2021.2.3,MacIntel,58.82352941,,,,,,,,,,,,,,,i,1,0.687,,,,,,他,i,,,1,53,133,65,1,,,,,,,,,,,,,,,,,,,,,,,,,,,,,,,,,,
,,,,,,,,,,,,,,1,001,2024-08-30_12h38.18.860,IAT(Formal),2021.2.3,MacIntel,58.82352941,,,,,,,,,,,,,,,e,1,0.774,,,,,,我们,e,,,1,54,134,62,1,,,,,,,,,,,,,,,,,,,,,,,,,,,,,,,,,,
,,,,,,,,,,,,,,1,001,2024-08-30_12h38.18.860,IAT(Formal),2021.2.3,MacIntel,58.82352941,,,,,,,,,,,,,,,e,1,0.734,,,,,,勤奋,e,,,1,55,135,18,1,,,,,,,,,,,,,,,,,,,,,,,,,,,,,,,,,,
,,,,,,,,,,,,,,1,001,2024-08-30_12h38.18.860,IAT(Formal),2021.2.3,MacIntel,58.82352941,,,,,,,,,,,,,,,i,1,0.851,,,,,,轻率,i,,,1,56,136,48,1,,,,,,,,,,,,,,,,,,,,,,,,,,,,,,,,,,
,,,,,,,,,,,,,,1,001,2024-08-30_12h38.18.860,IAT(Formal),2021.2.3,MacIntel,58.82352941,,,,,,,,,,,,,,,e,1,0.687,,,,,,勇敢,e,,,1,57,137,17,1,,,,,,,,,,,,,,,,,,,,,,,,,,,,,,,,,,
,,,,,,,,,,,,,,1,001,2024-08-30_12h38.18.860,IAT(Formal),2021.2.3,MacIntel,58.82352941,,,,,,,,,,,,,,,i,1,1.253,,,,,,消极,i,,,1,58,138,35,1,,,,,,,,,,,,,,,,,,,,,,,,,,,,,,,,,,
,,,,,,,,,,,,,,1,001,2024-08-30_12h38.18.860,IAT(Formal),2021.2.3,MacIntel,58.82352941,,,,,,,,,,,,,,,i,1,0.716,,,,,,他的,i,,,1,59,139,77,1,,,,,,,,,,,,,,,,,,,,,,,,,,,,,,,,,,
,,,,,,,,,,,,,,1,001,2024-08-30_12h38.18.860,IAT(Formal),2021.2.3,MacIntel,58.82352941,,,,,,,,,,,,,,,e,1,1.231,,,,,,乐观,e,,,1,60,140,14,1,,,,,,,,,,,,,,,,,,,,,,,,,,,,,,,,,,
,,,,,,,,,,,,,,1,001,2024-08-30_12h38.18.860,IAT(Formal),2021.2.3,MacIntel,58.82352941,,,,,,,,,,,,,,,i,1,0.878,,,,,,固执,i,,,1,61,141,47,1,,,,,,,,,,,,,,,,,,,,,,,,,,,,,,,,,,
,,,,,,,,,,,,,,1,001,2024-08-30_12h38.18.860,IAT(Formal),2021.2.3,MacIntel,58.82352941,,,,,,,,,,,,,,,e,1,0.738,,,,,,我,e,,,1,62,142,0,1,,,,,,,,,,,,,,,,,,,,,,,,,,,,,,,,,,
,,,,,,,,,,,,,,1,001,2024-08-30_12h38.18.860,IAT(Formal),2021.2.3,MacIntel,58.82352941,,,,,,,,,,,,,,,e,1,0.701,,,,,,我们,e,,,1,63,143,72,1,,,,,,,,,,,,,,,,,,,,,,,,,,,,,,,,,,
,,,,,,,,,,,,,,1,001,2024-08-30_12h38.18.860,IAT(Formal),2021.2.3,MacIntel,58.82352941,,,,,,,,,,,,,,,i,1,0.715,,,,,,他,i,,,1,64,144,5,1,,,,,,,,,,,,,,,,,,,,,,,,,,,,,,,,,,
,,,,,,,,,,,,,,1,001,2024-08-30_12h38.18.860,IAT(Formal),2021.2.3,MacIntel,58.82352941,,,,,,,,,,,,,,,i,1,0.587,,,,,,卑鄙,i,,,1,65,145,30,1,,,,,,,,,,,,,,,,,,,,,,,,,,,,,,,,,,
,,,,,,,,,,,,,,1,001,2024-08-30_12h38.18.860,IAT(Formal),2021.2.3,MacIntel,58.82352941,,,,,,,,,,,,,,,i,1,0.409,,,,,,他的,i,,,1,66,146,57,1,,,,,,,,,,,,,,,,,,,,,,,,,,,,,,,,,,
,,,,,,,,,,,,,,1,001,2024-08-30_12h38.18.860,IAT(Formal),2021.2.3,MacIntel,58.82352941,,,,,,,,,,,,,,,e,1,0.633,,,,,,细腻,e,,,1,67,147,25,1,,,,,,,,,,,,,,,,,,,,,,,,,,,,,,,,,,
,,,,,,,,,,,,,,1,001,2024-08-30_12h38.18.860,IAT(Formal),2021.2.3,MacIntel,58.82352941,,,,,,,,,,,,,,,e,1,0.588,,,,,,俺,e,,,1,68,148,54,1,,,,,,,,,,,,,,,,,,,,,,,,,,,,,,,,,,
,,,,,,,,,,,,,,1,001,2024-08-30_12h38.18.860,IAT(Formal),2021.2.3,MacIntel,58.82352941,,,,,,,,,,,,,,,i,1,0.766,,,,,,他人,i,,,1,69,149,8,1,,,,,,,,,,,,,,,,,,,,,,,,,,,,,,,,,,
,,,,,,,,,,,,,,1,001,2024-08-30_12h38.18.860,IAT(Formal),2021.2.3,MacIntel,58.82352941,,,,,,,,,,,,,,,e,1,0.557,,,,,,我的,e,,,1,70,150,71,1,,,,,,,,,,,,,,,,,,,,,,,,,,,,,,,,,,
,,,,,,,,,,,,,,1,001,2024-08-30_12h38.18.860,IAT(Formal),2021.2.3,MacIntel,58.82352941,,,,,,,,,,,,,,,i,1,0.833,,,,,,刻薄,i,,,1,71,151,33,1,,,,,,,,,,,,,,,,,,,,,,,,,,,,,,,,,,
,,,,,,,,,,,,,,1,001,2024-08-30_12h38.18.860,IAT(Formal),2021.2.3,MacIntel,58.82352941,,,,,,,,,,,,,,,i,1,0.798,,,,,,他,i,,,1,72,152,75,1,,,,,,,,,,,,,,,,,,,,,,,,,,,,,,,,,,
,,,,,,,,,,,,,,1,001,2024-08-30_12h38.18.860,IAT(Formal),2021.2.3,MacIntel,58.82352941,,,,,,,,,,,,,,,e,1,0.749,,,,,,我,e,,,1,73,153,60,1,,,,,,,,,,,,,,,,,,,,,,,,,,,,,,,,,,
,,,,,,,,,,,,,,1,001,2024-08-30_12h38.18.860,IAT(Formal),2021.2.3,MacIntel,58.82352941,,,,,,,,,,,,,,,e,1,0.753,,,,,,杰出,e,,,1,74,154,13,1,,,,,,,,,,,,,,,,,,,,,,,,,,,,,,,,,,
,,,,,,,,,,,,,,1,001,2024-08-30_12h38.18.860,IAT(Formal),2021.2.3,MacIntel,58.82352941,,,,,,,,,,,,,,,,0,,,,,,,执拗,i,,,1,75,155,40,1,,,,,,,,,,,,,,,,,,,,,,,,,,,,,,,,,,
,,,,,,,,,,,,,,1,001,2024-08-30_12h38.18.860,IAT(Formal),2021.2.3,MacIntel,58.82352941,,,,,,,,,,,,,,,e,1,0.803,,,,,,认真,e,,,1,76,156,20,1,,,,,,,,,,,,,,,,,,,,,,,,,,,,,,,,,,
,,,,,,,,,,,,,,1,001,2024-08-30_12h38.18.860,IAT(Formal),2021.2.3,MacIntel,58.82352941,,,,,,,,,,,,,,,e,1,0.599,,,,,,自己,e,,,1,77,157,63,1,,,,,,,,,,,,,,,,,,,,,,,,,,,,,,,,,,
,,,,,,,,,,,,,,1,001,2024-08-30_12h38.18.860,IAT(Formal),2021.2.3,MacIntel,58.82352941,,,,,,,,,,,,,,,e,1,0.933,,,,,,我,e,,,1,78,158,70,1,,,,,,,,,,,,,,,,,,,,,,,,,,,,,,,,,,
,,,,,,,,,,,,,,1,001,2024-08-30_12h38.18.860,IAT(Formal),2021.2.3,MacIntel,58.82352941,,,,,,,,,,,,,,,i,1,1.182,,,,,,他们,i,,,1,79,159,6,1,,,,,,,,,,,,,,,,,,,,,,,,,,,,,,,,,,
,,,,,,,,,,,,我,i,1,001,2024-08-30_12h38.18.860,IAT(Formal),2021.2.3,MacIntel,58.82352941,,,,,,,,,,,,,,,,,,,,,,,,,,,,,,,,space,48.975,i,1,0.797,0,0,0,0,1,,,,,,,,,,,,,,,,,,,,,,,,
,,,,,,,,,,,,他,e,1,001,2024-08-30_12h38.18.860,IAT(Formal),2021.2.3,MacIntel,58.82352941,,,,,,,,,,,,,,,,,,,,,,,,,,,,,,,,,,e,1,0.715,0,1,1,5,1,,,,,,,,,,,,,,,,,,,,,,,,
,,,,,,,,,,,,我的,i,1,001,2024-08-30_12h38.18.860,IAT(Formal),2021.2.3,MacIntel,58.82352941,,,,,,,,,,,,,,,,,,,,,,,,,,,,,,,,,,i,1,0.589,0,2,2,1,1,,,,,,,,,,,,,,,,,,,,,,,,
,,,,,,,,,,,,俺,i,1,001,2024-08-30_12h38.18.860,IAT(Formal),2021.2.3,MacIntel,58.82352941,,,,,,,,,,,,,,,,,,,,,,,,,,,,,,,,,,i,1,0.569,0,3,3,4,1,,,,,,,,,,,,,,,,,,,,,,,,
,,,,,,,,,,,,他的,e,1,001,2024-08-30_12h38.18.860,IAT(Formal),2021.2.3,MacIntel,58.82352941,,,,,,,,,,,,,,,,,,,,,,,,,,,,,,,,,,e,1,0.514,0,4,4,7,1,,,,,,,,,,,,,,,,,,,,,,,,
,,,,,,,,,,,,我们,i,1,001,2024-08-30_12h38.18.860,IAT(Formal),2021.2.3,MacIntel,58.82352941,,,,,,,,,,,,,,,,,,,,,,,,,,,,,,,,,,i,1,0.847,0,5,5,2,1,,,,,,,,,,,,,,,,,,,,,,,,
,,,,,,,,,,,,他们,e,1,001,2024-08-30_12h38.18.860,IAT(Formal),2021.2.3,MacIntel,58.82352941,,,,,,,,,,,,,,,,,,,,,,,,,,,,,,,,,,e,1,0.753,0,6,6,6,1,,,,,,,,,,,,,,,,,,,,,,,,
,,,,,,,,,,,,其他,e,1,001,2024-08-30_12h38.18.860,IAT(Formal),2021.2.3,MacIntel,58.82352941,,,,,,,,,,,,,,,,,,,,,,,,,,,,,,,,,,e,1,0.995,0,7,7,9,1,,,,,,,,,,,,,,,,,,,,,,,,
,,,,,,,,,,,,他人,e,1,001,2024-08-30_12h38.18.860,IAT(Formal),2021.2.3,MacIntel,58.82352941,,,,,,,,,,,,,,,,,,,,,,,,,,,,,,,,,,e,1,0.483,0,8,8,8,1,,,,,,,,,,,,,,,,,,,,,,,,
,,,,,,,,,,,,自己,i,1,001,2024-08-30_12h38.18.860,IAT(Formal),2021.2.3,MacIntel,58.82352941,,,,,,,,,,,,,,,,,,,,,,,,,,,,,,,,,,i,1,0.546,0,9,9,3,1,,,,,,,,,,,,,,,,,,,,,,,,
,,,,,,,,,,,,,,1,001,2024-08-30_12h38.18.860,IAT(Formal),2021.2.3,MacIntel,58.82352941,,,,,,,,,,,,,,,,,,,,,,,,,,,,,,,,,,,,,,,,,,space,8.806,e,0,0.622,0,0,0,61,1,我的,i,,,,,,,,,,,,
,,,,,,,,,,,,,,1,001,2024-08-30_12h38.18.860,IAT(Formal),2021.2.3,MacIntel,58.82352941,,,,,,,,,,,,,,,,,,,,,,,,,,,,,,,,,,,,,,,,,,,,e,1,0.697,0,1,1,6,1,他们,e,,,,,,,,,,,,
,,,,,,,,,,,,,,1,001,2024-08-30_12h38.18.860,IAT(Formal),2021.2.3,MacIntel,58.82352941,,,,,,,,,,,,,,,,,,,,,,,,,,,,,,,,,,,,,,,,,,,,e,1,0.703,0,2,2,66,1,他们,e,,,,,,,,,,,,
,,,,,,,,,,,,,,1,001,2024-08-30_12h38.18.860,IAT(Formal),2021.2.3,MacIntel,58.82352941,,,,,,,,,,,,,,,,,,,,,,,,,,,,,,,,,,,,,,,,,,,,i,1,0.85,0,3,3,47,1,固执,i,,,,,,,,,,,,
,,,,,,,,,,,,,,1,001,2024-08-30_12h38.18.860,IAT(Formal),2021.2.3,MacIntel,58.82352941,,,,,,,,,,,,,,,,,,,,,,,,,,,,,,,,,,,,,,,,,,,,i,1,1.153,0,4,4,48,1,轻率,i,,,,,,,,,,,,
,,,,,,,,,,,,,,1,001,2024-08-30_12h38.18.860,IAT(Formal),2021.2.3,MacIntel,58.82352941,,,,,,,,,,,,,,,,,,,,,,,,,,,,,,,,,,,,,,,,,,,,i,1,0.436,0,5,5,70,1,我,i,,,,,,,,,,,,
,,,,,,,,,,,,,,1,001,2024-08-30_12h38.18.860,IAT(Formal),2021.2.3,MacIntel,58.82352941,,,,,,,,,,,,,,,,,,,,,,,,,,,,,,,,,,,,,,,,,,,,i,1,0.655,0,6,6,74,1,俺,i,,,,,,,,,,,,
,,,,,,,,,,,,,,1,001,2024-08-30_12h38.18.860,IAT(Formal),2021.2.3,MacIntel,58.82352941,,,,,,,,,,,,,,,,,,,,,,,,,,,,,,,,,,,,,,,,,,,,e,1,0.567,0,7,7,59,1,其他,e,,,,,,,,,,,,
,,,,,,,,,,,,,,1,001,2024-08-30_12h38.18.860,IAT(Formal),2021.2.3,MacIntel,58.82352941,,,,,,,,,,,,,,,,,,,,,,,,,,,,,,,,,,,,,,,,,,,,e,0,0.953,0,8,8,46,1,野蛮,i,,,,,,,,,,,,
,,,,,,,,,,,,,,1,001,2024-08-30_12h38.18.860,IAT(Formal),2021.2.3,MacIntel,58.82352941,,,,,,,,,,,,,,,,,,,,,,,,,,,,,,,,,,,,,,,,,,,,i,1,0.766,0,9,9,39,1,冒失,i,,,,,,,,,,,,
,,,,,,,,,,,,,,1,001,2024-08-30_12h38.18.860,IAT(Formal),2021.2.3,MacIntel,58.82352941,,,,,,,,,,,,,,,,,,,,,,,,,,,,,,,,,,,,,,,,,,,,e,1,0.769,0,10,10,20,1,认真,e,,,,,,,,,,,,
,,,,,,,,,,,,,,1,001,2024-08-30_12h38.18.860,IAT(Formal),2021.2.3,MacIntel,58.82352941,,,,,,,,,,,,,,,,,,,,,,,,,,,,,,,,,,,,,,,,,,,,e,1,1.289,0,11,11,58,1,他人,e,,,,,,,,,,,,
,,,,,,,,,,,,,,1,001,2024-08-30_12h38.18.860,IAT(Formal),2021.2.3,MacIntel,58.82352941,,,,,,,,,,,,,,,,,,,,,,,,,,,,,,,,,,,,,,,,,,,,e,1,0.666,0,12,12,77,1,他的,e,,,,,,,,,,,,
,,,,,,,,,,,,,,1,001,2024-08-30_12h38.18.860,IAT(Formal),2021.2.3,MacIntel,58.82352941,,,,,,,,,,,,,,,,,,,,,,,,,,,,,,,,,,,,,,,,,,,,i,1,0.848,0,13,13,62,1,我们,i,,,,,,,,,,,,
,,,,,,,,,,,,,,1,001,2024-08-30_12h38.18.860,IAT(Formal),2021.2.3,MacIntel,58.82352941,,,,,,,,,,,,,,,,,,,,,,,,,,,,,,,,,,,,,,,,,,,,e,0,1.1,0,14,14,34,1,悲观,i,,,,,,,,,,,,
,,,,,,,,,,,,,,1,001,2024-08-30_12h38.18.860,IAT(Formal),2021.2.3,MacIntel,58.82352941,,,,,,,,,,,,,,,,,,,,,,,,,,,,,,,,,,,,,,,,,,,,e,1,1.116,0,15,15,9,1,其他,e,,,,,,,,,,,,
,,,,,,,,,,,,,,1,001,2024-08-30_12h38.18.860,IAT(Formal),2021.2.3,MacIntel,58.82352941,,,,,,,,,,,,,,,,,,,,,,,,,,,,,,,,,,,,,,,,,,,,e,1,0.583,0,16,16,15,1,诚实,e,,,,,,,,,,,,
,,,,,,,,,,,,,,1,001,2024-08-30_12h38.18.860,IAT(Formal),2021.2.3,MacIntel,58.82352941,,,,,,,,,,,,,,,,,,,,,,,,,,,,,,,,,,,,,,,,,,,,e,1,1.386,0,17,17,69,1,其他,e,,,,,,,,,,,,
,,,,,,,,,,,,,,1,001,2024-08-30_12h38.18.860,IAT(Formal),2021.2.3,MacIntel,58.82352941,,,,,,,,,,,,,,,,,,,,,,,,,,,,,,,,,,,,,,,,,,,,e,1,0.771,0,18,18,17,1,勇敢,e,,,,,,,,,,,,
,,,,,,,,,,,,,,1,001,2024-08-30_12h38.18.860,IAT(Formal),2021.2.3,MacIntel,58.82352941,,,,,,,,,,,,,,,,,,,,,,,,,,,,,,,,,,,,,,,,,,,,e,1,0.648,0,19,19,12,1,聪明,e,,,,,,,,,,,,
,,,,,,,,,,,,,,1,001,2024-08-30_12h38.18.860,IAT(Formal),2021.2.3,MacIntel,58.82352941,,,,,,,,,,,,,,,,,,,,,,,,,,,,,,,,,,,,,,,,,,,,e,1,0.618,0,20,20,65,1,他,e,,,,,,,,,,,,
,,,,,,,,,,,,,,1,001,2024-08-30_12h38.18.860,IAT(Formal),2021.2.3,MacIntel,58.82352941,,,,,,,,,,,,,,,,,,,,,,,,,,,,,,,,,,,,,,,,,,,,e,1,1.046,0,21,21,25,1,细腻,e,,,,,,,,,,,,
,,,,,,,,,,,,,,1,001,2024-08-30_12h38.18.860,IAT(Formal),2021.2.3,MacIntel,58.82352941,,,,,,,,,,,,,,,,,,,,,,,,,,,,,,,,,,,,,,,,,,,,e,0,0.746,0,22,22,53,1,自己,i,,,,,,,,,,,,
,,,,,,,,,,,,,,1,001,2024-08-30_12h38.18.860,IAT(Formal),2021.2.3,MacIntel,58.82352941,,,,,,,,,,,,,,,,,,,,,,,,,,,,,,,,,,,,,,,,,,,,e,1,0.935,0,23,23,23,1,公正,e,,,,,,,,,,,,
,,,,,,,,,,,,,,1,001,2024-08-30_12h38.18.860,IAT(Formal),2021.2.3,MacIntel,58.82352941,,,,,,,,,,,,,,,,,,,,,,,,,,,,,,,,,,,,,,,,,,,,e,1,1.115,0,24,24,76,1,他们,e,,,,,,,,,,,,
,,,,,,,,,,,,,,1,001,2024-08-30_12h38.18.860,IAT(Formal),2021.2.3,MacIntel,58.82352941,,,,,,,,,,,,,,,,,,,,,,,,,,,,,,,,,,,,,,,,,,,,i,1,0.684,0,25,25,40,1,执拗,i,,,,,,,,,,,,
,,,,,,,,,,,,,,1,001,2024-08-30_12h38.18.860,IAT(Formal),2021.2.3,MacIntel,58.82352941,,,,,,,,,,,,,,,,,,,,,,,,,,,,,,,,,,,,,,,,,,,,i,1,0.716,0,26,26,44,1,暴躁,i,,,,,,,,,,,,
,,,,,,,,,,,,,,1,001,2024-08-30_12h38.18.860,IAT(Formal),2021.2.3,MacIntel,58.82352941,,,,,,,,,,,,,,,,,,,,,,,,,,,,,,,,,,,,,,,,,,,,i,1,0.606,0,27,27,41,1,散漫,i,,,,,,,,,,,,
,,,,,,,,,,,,,,1,001,2024-08-30_12h38.18.860,IAT(Formal),2021.2.3,MacIntel,58.82352941,,,,,,,,,,,,,,,,,,,,,,,,,,,,,,,,,,,,,,,,,,,,i,1,0.631,0,28,28,72,1,我们,i,,,,,,,,,,,,
,,,,,,,,,,,,,,1,001,2024-08-30_12h38.18.860,IAT(Formal),2021.2.3,MacIntel,58.82352941,,,,,,,,,,,,,,,,,,,,,,,,,,,,,,,,,,,,,,,,,,,,i,1,0.468,0,29,29,60,1,我,i,,,,,,,,,,,,
,,,,,,,,,,,,,,1,001,2024-08-30_12h38.18.860,IAT(Formal),2021.2.3,MacIntel,58.82352941,,,,,,,,,,,,,,,,,,,,,,,,,,,,,,,,,,,,,,,,,,,,i,0,0.652,0,30,30,16,1,正直,e,,,,,,,,,,,,
,,,,,,,,,,,,,,1,001,2024-08-30_12h38.18.860,IAT(Formal),2021.2.3,MacIntel,58.82352941,,,,,,,,,,,,,,,,,,,,,,,,,,,,,,,,,,,,,,,,,,,,i,0,0.716,0,31,31,68,1,他人,e,,,,,,,,,,,,
,,,,,,,,,,,,,,1,001,2024-08-30_12h38.18.860,IAT(Formal),2021.2.3,MacIntel,58.82352941,,,,,,,,,,,,,,,,,,,,,,,,,,,,,,,,,,,,,,,,,,,,,0,,0,32,32,18,1,勤奋,e,,,,,,,,,,,,
,,,,,,,,,,,,,,1,001,2024-08-30_12h38.18.860,IAT(Formal),2021.2.3,MacIntel,58.82352941,,,,,,,,,,,,,,,,,,,,,,,,,,,,,,,,,,,,,,,,,,,,e,1,0.516,0,33,33,21,1,稳重,e,,,,,,,,,,,,
,,,,,,,,,,,,,,1,001,2024-08-30_12h38.18.860,IAT(Formal),2021.2.3,MacIntel,58.82352941,,,,,,,,,,,,,,,,,,,,,,,,,,,,,,,,,,,,,,,,,,,,e,1,0.583,0,34,34,28,1,活泼,e,,,,,,,,,,,,
,,,,,,,,,,,,,,1,001,2024-08-30_12h38.18.860,IAT(Formal),2021.2.3,MacIntel,58.82352941,,,,,,,,,,,,,,,,,,,,,,,,,,,,,,,,,,,,,,,,,,,,i,1,0.646,0,35,35,30,1,卑鄙,i,,,,,,,,,,,,
,,,,,,,,,,,,,,1,001,2024-08-30_12h38.18.860,IAT(Formal),2021.2.3,MacIntel,58.82352941,,,,,,,,,,,,,,,,,,,,,,,,,,,,,,,,,,,,,,,,,,,,e,1,0.622,0,36,36,14,1,乐观,e,,,,,,,,,,,,
,,,,,,,,,,,,,,1,001,2024-08-30_12h38.18.860,IAT(Formal),2021.2.3,MacIntel,58.82352941,,,,,,,,,,,,,,,,,,,,,,,,,,,,,,,,,,,,,,,,,,,,i,1,1.051,0,37,37,35,1,消极,i,,,,,,,,,,,,
,,,,,,,,,,,,,,1,001,2024-08-30_12h38.18.860,IAT(Formal),2021.2.3,MacIntel,58.82352941,,,,,,,,,,,,,,,,,,,,,,,,,,,,,,,,,,,,,,,,,,,,e,1,1.384,0,38,38,27,1,热情,e,,,,,,,,,,,,
,,,,,,,,,,,,,,1,001,2024-08-30_12h38.18.860,IAT(Formal),2021.2.3,MacIntel,58.82352941,,,,,,,,,,,,,,,,,,,,,,,,,,,,,,,,,,,,,,,,,,,,e,1,1.067,0,39,39,56,1,他们,e,,,,,,,,,,,,
,,,,,,,,,,,,,,1,001,2024-08-30_12h38.18.860,IAT(Formal),2021.2.3,MacIntel,58.82352941,,,,,,,,,,,,,,,,,,,,,,,,,,,,,,,,,,,,,,,,,,,,i,1,0.685,0,40,40,50,1,我,i,,,,,,,,,,,,
,,,,,,,,,,,,,,1,001,2024-08-30_12h38.18.860,IAT(Formal),2021.2.3,MacIntel,58.82352941,,,,,,,,,,,,,,,,,,,,,,,,,,,,,,,,,,,,,,,,,,,,e,1,0.966,0,41,41,24,1,朴实,e,,,,,,,,,,,,
,,,,,,,,,,,,,,1,001,2024-08-30_12h38.18.860,IAT(Formal),2021.2.3,MacIntel,58.82352941,,,,,,,,,,,,,,,,,,,,,,,,,,,,,,,,,,,,,,,,,,,,e,1,1.114,0,42,42,8,1,他人,e,,,,,,,,,,,,
,,,,,,,,,,,,,,1,001,2024-08-30_12h38.18.860,IAT(Formal),2021.2.3,MacIntel,58.82352941,,,,,,,,,,,,,,,,,,,,,,,,,,,,,,,,,,,,,,,,,,,,i,1,0.734,0,43,43,51,1,我的,i,,,,,,,,,,,,
,,,,,,,,,,,,,,1,001,2024-08-30_12h38.18.860,IAT(Formal),2021.2.3,MacIntel,58.82352941,,,,,,,,,,,,,,,,,,,,,,,,,,,,,,,,,,,,,,,,,,,,e,1,0.932,0,44,44,7,1,他的,e,,,,,,,,,,,,
,,,,,,,,,,,,,,1,001,2024-08-30_12h38.18.860,IAT(Formal),2021.2.3,MacIntel,58.82352941,,,,,,,,,,,,,,,,,,,,,,,,,,,,,,,,,,,,,,,,,,,,e,1,0.672,0,45,45,79,1,其他,e,,,,,,,,,,,,
,,,,,,,,,,,,,,1,001,2024-08-30_12h38.18.860,IAT(Formal),2021.2.3,MacIntel,58.82352941,,,,,,,,,,,,,,,,,,,,,,,,,,,,,,,,,,,,,,,,,,,,e,1,0.586,0,46,46,5,1,他,e,,,,,,,,,,,,
,,,,,,,,,,,,,,1,001,2024-08-30_12h38.18.860,IAT(Formal),2021.2.3,MacIntel,58.82352941,,,,,,,,,,,,,,,,,,,,,,,,,,,,,,,,,,,,,,,,,,,,i,1,0.752,0,47,47,4,1,俺,i,,,,,,,,,,,,
,,,,,,,,,,,,,,1,001,2024-08-30_12h38.18.860,IAT(Formal),2021.2.3,MacIntel,58.82352941,,,,,,,,,,,,,,,,,,,,,,,,,,,,,,,,,,,,,,,,,,,,,0,,0,48,48,36,1,自卑,i,,,,,,,,,,,,
,,,,,,,,,,,,,,1,001,2024-08-30_12h38.18.860,IAT(Formal),2021.2.3,MacIntel,58.82352941,,,,,,,,,,,,,,,,,,,,,,,,,,,,,,,,,,,,,,,,,,,,e,1,0.915,0,49,49,11,1,崇高,e,,,,,,,,,,,,
,,,,,,,,,,,,,,1,001,2024-08-30_12h38.18.860,IAT(Formal),2021.2.3,MacIntel,58.82352941,,,,,,,,,,,,,,,,,,,,,,,,,,,,,,,,,,,,,,,,,,,,i,1,0.7,0,50,50,38,1,鲁莽,i,,,,,,,,,,,,
,,,,,,,,,,,,,,1,001,2024-08-30_12h38.18.860,IAT(Formal),2021.2.3,MacIntel,58.82352941,,,,,,,,,,,,,,,,,,,,,,,,,,,,,,,,,,,,,,,,,,,,e,1,0.966,0,51,51,10,1,优秀,e,,,,,,,,,,,,
,,,,,,,,,,,,,,1,001,2024-08-30_12h38.18.860,IAT(Formal),2021.2.3,MacIntel,58.82352941,,,,,,,,,,,,,,,,,,,,,,,,,,,,,,,,,,,,,,,,,,,,e,1,0.732,0,52,52,57,1,他的,e,,,,,,,,,,,,
,,,,,,,,,,,,,,1,001,2024-08-30_12h38.18.860,IAT(Formal),2021.2.3,MacIntel,58.82352941,,,,,,,,,,,,,,,,,,,,,,,,,,,,,,,,,,,,,,,,,,,,i,1,0.997,0,53,53,42,1,凶狠,i,,,,,,,,,,,,
,,,,,,,,,,,,,,1,001,2024-08-30_12h38.18.860,IAT(Formal),2021.2.3,MacIntel,58.82352941,,,,,,,,,,,,,,,,,,,,,,,,,,,,,,,,,,,,,,,,,,,,e,0,0.616,0,54,54,71,1,我的,i,,,,,,,,,,,,
,,,,,,,,,,,,,,1,001,2024-08-30_12h38.18.860,IAT(Formal),2021.2.3,MacIntel,58.82352941,,,,,,,,,,,,,,,,,,,,,,,,,,,,,,,,,,,,,,,,,,,,e,1,0.632,0,55,55,78,1,他人,e,,,,,,,,,,,,
,,,,,,,,,,,,,,1,001,2024-08-30_12h38.18.860,IAT(Formal),2021.2.3,MacIntel,58.82352941,,,,,,,,,,,,,,,,,,,,,,,,,,,,,,,,,,,,,,,,,,,,i,1,1.015,0,56,56,37,1,傲慢,i,,,,,,,,,,,,
,,,,,,,,,,,,,,1,001,2024-08-30_12h38.18.860,IAT(Formal),2021.2.3,MacIntel,58.82352941,,,,,,,,,,,,,,,,,,,,,,,,,,,,,,,,,,,,,,,,,,,,e,1,0.998,0,57,57,55,1,他,e,,,,,,,,,,,,
,,,,,,,,,,,,,,1,001,2024-08-30_12h38.18.860,IAT(Formal),2021.2.3,MacIntel,58.82352941,,,,,,,,,,,,,,,,,,,,,,,,,,,,,,,,,,,,,,,,,,,,i,1,1.298,0,58,58,32,1,愚蠢,i,,,,,,,,,,,,
,,,,,,,,,,,,,,1,001,2024-08-30_12h38.18.860,IAT(Formal),2021.2.3,MacIntel,58.82352941,,,,,,,,,,,,,,,,,,,,,,,,,,,,,,,,,,,,,,,,,,,,i,1,0.6,0,59,59,2,1,我们,i,,,,,,,,,,,,
,,,,,,,,,,,,,,1,001,2024-08-30_12h38.18.860,IAT(Formal),2021.2.3,MacIntel,58.82352941,,,,,,,,,,,,,,,,,,,,,,,,,,,,,,,,,,,,,,,,,,,,i,1,0.839,0,60,60,0,1,我,i,,,,,,,,,,,,
,,,,,,,,,,,,,,1,001,2024-08-30_12h38.18.860,IAT(Formal),2021.2.3,MacIntel,58.82352941,,,,,,,,,,,,,,,,,,,,,,,,,,,,,,,,,,,,,,,,,,,,e,1,0.935,0,61,61,75,1,他,e,,,,,,,,,,,,
,,,,,,,,,,,,,,1,001,2024-08-30_12h38.18.860,IAT(Formal),2021.2.3,MacIntel,58.82352941,,,,,,,,,,,,,,,,,,,,,,,,,,,,,,,,,,,,,,,,,,,,i,1,0.601,0,62,62,64,1,俺,i,,,,,,,,,,,,
,,,,,,,,,,,,,,1,001,2024-08-30_12h38.18.860,IAT(Formal),2021.2.3,MacIntel,58.82352941,,,,,,,,,,,,,,,,,,,,,,,,,,,,,,,,,,,,,,,,,,,,i,1,0.631,0,63,63,49,1,下贱,i,,,,,,,,,,,,
,,,,,,,,,,,,,,1,001,2024-08-30_12h38.18.860,IAT(Formal),2021.2.3,MacIntel,58.82352941,,,,,,,,,,,,,,,,,,,,,,,,,,,,,,,,,,,,,,,,,,,,e,1,1.208,0,64,64,67,1,他的,e,,,,,,,,,,,,
,,,,,,,,,,,,,,1,001,2024-08-30_12h38.18.860,IAT(Formal),2021.2.3,MacIntel,58.82352941,,,,,,,,,,,,,,,,,,,,,,,,,,,,,,,,,,,,,,,,,,,,,0,,0,65,65,43,1,自私,i,,,,,,,,,,,,
,,,,,,,,,,,,,,1,001,2024-08-30_12h38.18.860,IAT(Formal),2021.2.3,MacIntel,58.82352941,,,,,,,,,,,,,,,,,,,,,,,,,,,,,,,,,,,,,,,,,,,,,0,,0,66,66,26,1,冷静,e,,,,,,,,,,,,
,,,,,,,,,,,,,,1,001,2024-08-30_12h38.18.860,IAT(Formal),2021.2.3,MacIntel,58.82352941,,,,,,,,,,,,,,,,,,,,,,,,,,,,,,,,,,,,,,,,,,,,,0,,0,67,67,52,1,我们,i,,,,,,,,,,,,
,,,,,,,,,,,,,,1,001,2024-08-30_12h38.18.860,IAT(Formal),2021.2.3,MacIntel,58.82352941,,,,,,,,,,,,,,,,,,,,,,,,,,,,,,,,,,,,,,,,,,,,i,1,0.719,0,68,68,1,1,我的,i,,,,,,,,,,,,
,,,,,,,,,,,,,,1,001,2024-08-30_12h38.18.860,IAT(Formal),2021.2.3,MacIntel,58.82352941,,,,,,,,,,,,,,,,,,,,,,,,,,,,,,,,,,,,,,,,,,,,i,1,0.997,0,69,69,33,1,刻薄,i,,,,,,,,,,,,
,,,,,,,,,,,,,,1,001,2024-08-30_12h38.18.860,IAT(Formal),2021.2.3,MacIntel,58.82352941,,,,,,,,,,,,,,,,,,,,,,,,,,,,,,,,,,,,,,,,,,,,i,1,0.784,0,70,70,31,1,虚伪,i,,,,,,,,,,,,
,,,,,,,,,,,,,,1,001,2024-08-30_12h38.18.860,IAT(Formal),2021.2.3,MacIntel,58.82352941,,,,,,,,,,,,,,,,,,,,,,,,,,,,,,,,,,,,,,,,,,,,e,1,0.933,0,71,71,13,1,杰出,e,,,,,,,,,,,,
,,,,,,,,,,,,,,1,001,2024-08-30_12h38.18.860,IAT(Formal),2021.2.3,MacIntel,58.82352941,,,,,,,,,,,,,,,,,,,,,,,,,,,,,,,,,,,,,,,,,,,,e,0,1.057,0,72,72,3,1,自己,i,,,,,,,,,,,,
,,,,,,,,,,,,,,1,001,2024-08-30_12h38.18.860,IAT(Formal),2021.2.3,MacIntel,58.82352941,,,,,,,,,,,,,,,,,,,,,,,,,,,,,,,,,,,,,,,,,,,,,0,,0,73,73,45,1,猖狂,i,,,,,,,,,,,,
,,,,,,,,,,,,,,1,001,2024-08-30_12h38.18.860,IAT(Formal),2021.2.3,MacIntel,58.82352941,,,,,,,,,,,,,,,,,,,,,,,,,,,,,,,,,,,,,,,,,,,,i,0,0.534,0,74,74,22,1,无私,e,,,,,,,,,,,,
,,,,,,,,,,,,,,1,001,2024-08-30_12h38.18.860,IAT(Formal),2021.2.3,MacIntel,58.82352941,,,,,,,,,,,,,,,,,,,,,,,,,,,,,,,,,,,,,,,,,,,,e,1,1.018,0,75,75,29,1,诚恳,e,,,,,,,,,,,,
,,,,,,,,,,,,,,1,001,2024-08-30_12h38.18.860,IAT(Formal),2021.2.3,MacIntel,58.82352941,,,,,,,,,,,,,,,,,,,,,,,,,,,,,,,,,,,,,,,,,,,,e,0,0.583,0,76,76,73,1,自己,i,,,,,,,,,,,,
,,,,,,,,,,,,,,1,001,2024-08-30_12h38.18.860,IAT(Formal),2021.2.3,MacIntel,58.82352941,,,,,,,,,,,,,,,,,,,,,,,,,,,,,,,,,,,,,,,,,,,,i,1,0.769,0,77,77,63,1,自己,i,,,,,,,,,,,,
,,,,,,,,,,,,,,1,001,2024-08-30_12h38.18.860,IAT(Formal),2021.2.3,MacIntel,58.82352941,,,,,,,,,,,,,,,,,,,,,,,,,,,,,,,,,,,,,,,,,,,,e,1,1.136,0,78,78,19,1,机智,e,,,,,,,,,,,,
,,,,,,,,,,,,,,1,001,2024-08-30_12h38.18.860,IAT(Formal),2021.2.3,MacIntel,58.82352941,,,,,,,,,,,,,,,,,,,,,,,,,,,,,,,,,,,,,,,,,,,,e,0,1.148,0,79,79,54,1,俺,i,,,,,,,,,,,,
,,,,,,,,,,,,,,1,001,2024-08-30_12h38.18.860,IAT(Formal),2021.2.3,MacIntel,58.82352941,,,,,,,,,,,,,,,,,,,,,,,,,,,,,,,,,,,,,,,,,,,,,,,,,,,,冷静,e,space,9.873,,0,0,0,0,26,1,,,
,,,,,,,,,,,,,,1,001,2024-08-30_12h38.18.860,IAT(Formal),2021.2.3,MacIntel,58.82352941,,,,,,,,,,,,,,,,,,,,,,,,,,,,,,,,,,,,,,,,,,,,,,,,,,,,正直,e,,,e,1,0,1,1,16,1,0.552,,
,,,,,,,,,,,,,,1,001,2024-08-30_12h38.18.860,IAT(Formal),2021.2.3,MacIntel,58.82352941,,,,,,,,,,,,,,,,,,,,,,,,,,,,,,,,,,,,,,,,,,,,,,,,,,,,他,e,,,e,1,0,2,2,5,1,0.868,,
,,,,,,,,,,,,,,1,001,2024-08-30_12h38.18.860,IAT(Formal),2021.2.3,MacIntel,58.82352941,,,,,,,,,,,,,,,,,,,,,,,,,,,,,,,,,,,,,,,,,,,,,,,,,,,,自己,i,,,i,1,0,3,3,73,1,0.797,,
,,,,,,,,,,,,,,1,001,2024-08-30_12h38.18.860,IAT(Formal),2021.2.3,MacIntel,58.82352941,,,,,,,,,,,,,,,,,,,,,,,,,,,,,,,,,,,,,,,,,,,,,,,,,,,,俺,i,,,i,1,0,4,4,74,1,0.567,,
,,,,,,,,,,,,,,1,001,2024-08-30_12h38.18.860,IAT(Formal),2021.2.3,MacIntel,58.82352941,,,,,,,,,,,,,,,,,,,,,,,,,,,,,,,,,,,,,,,,,,,,,,,,,,,,热情,e,,,e,1,0,5,5,27,1,0.801,,
,,,,,,,,,,,,,,1,001,2024-08-30_12h38.18.860,IAT(Formal),2021.2.3,MacIntel,58.82352941,,,,,,,,,,,,,,,,,,,,,,,,,,,,,,,,,,,,,,,,,,,,,,,,,,,,俺,i,,,i,1,0,6,6,4,1,0.867,,
,,,,,,,,,,,,,,1,001,2024-08-30_12h38.18.860,IAT(Formal),2021.2.3,MacIntel,58.82352941,,,,,,,,,,,,,,,,,,,,,,,,,,,,,,,,,,,,,,,,,,,,,,,,,,,,他,e,,,e,1,0,7,7,75,1,0.835,,
,,,,,,,,,,,,,,1,001,2024-08-30_12h38.18.860,IAT(Formal),2021.2.3,MacIntel,58.82352941,,,,,,,,,,,,,,,,,,,,,,,,,,,,,,,,,,,,,,,,,,,,,,,,,,,,消极,i,,,i,1,0,8,8,35,1,1.385,,
,,,,,,,,,,,,,,1,001,2024-08-30_12h38.18.860,IAT(Formal),2021.2.3,MacIntel,58.82352941,,,,,,,,,,,,,,,,,,,,,,,,,,,,,,,,,,,,,,,,,,,,,,,,,,,,我,i,,,i,1,0,9,9,70,1,0.649,,
,,,,,,,,,,,,,,1,001,2024-08-30_12h38.18.860,IAT(Formal),2021.2.3,MacIntel,58.82352941,,,,,,,,,,,,,,,,,,,,,,,,,,,,,,,,,,,,,,,,,,,,,,,,,,,,我,i,,,i,1,0,10,10,50,1,0.855,,
,,,,,,,,,,,,,,1,001,2024-08-30_12h38.18.860,IAT(Formal),2021.2.3,MacIntel,58.82352941,,,,,,,,,,,,,,,,,,,,,,,,,,,,,,,,,,,,,,,,,,,,,,,,,,,,杰出,e,,,e,1,0,11,11,13,1,1.016,,
,,,,,,,,,,,,,,1,001,2024-08-30_12h38.18.860,IAT(Formal),2021.2.3,MacIntel,58.82352941,,,,,,,,,,,,,,,,,,,,,,,,,,,,,,,,,,,,,,,,,,,,,,,,,,,,悲观,i,,,i,1,0,12,12,34,1,0.866,,
,,,,,,,,,,,,,,1,001,2024-08-30_12h38.18.860,IAT(Formal),2021.2.3,MacIntel,58.82352941,,,,,,,,,,,,,,,,,,,,,,,,,,,,,,,,,,,,,,,,,,,,,,,,,,,,冒失,i,,,i,1,0,13,13,39,1,1.216,,
,,,,,,,,,,,,,,1,001,2024-08-30_12h38.18.860,IAT(Formal),2021.2.3,MacIntel,58.82352941,,,,,,,,,,,,,,,,,,,,,,,,,,,,,,,,,,,,,,,,,,,,,,,,,,,,他人,e,,,e,1,0,14,14,78,1,0.799,,
,,,,,,,,,,,,,,1,001,2024-08-30_12h38.18.860,IAT(Formal),2021.2.3,MacIntel,58.82352941,,,,,,,,,,,,,,,,,,,,,,,,,,,,,,,,,,,,,,,,,,,,,,,,,,,,暴躁,i,,,i,1,0,15,15,44,1,0.815,,
,,,,,,,,,,,,,,1,001,2024-08-30_12h38.18.860,IAT(Formal),2021.2.3,MacIntel,58.82352941,,,,,,,,,,,,,,,,,,,,,,,,,,,,,,,,,,,,,,,,,,,,,,,,,,,,我的,i,,,,0,0,16,16,51,1,,,
,,,,,,,,,,,,,,1,001,2024-08-30_12h38.18.860,IAT(Formal),2021.2.3,MacIntel,58.82352941,,,,,,,,,,,,,,,,,,,,,,,,,,,,,,,,,,,,,,,,,,,,,,,,,,,,优秀,e,,,,0,0,17,17,10,1,,,
,,,,,,,,,,,,,,1,001,2024-08-30_12h38.18.860,IAT(Formal),2021.2.3,MacIntel,58.82352941,,,,,,,,,,,,,,,,,,,,,,,,,,,,,,,,,,,,,,,,,,,,,,,,,,,,俺,i,,,e,0,0,18,18,54,1,0.765,,
,,,,,,,,,,,,,,1,001,2024-08-30_12h38.18.860,IAT(Formal),2021.2.3,MacIntel,58.82352941,,,,,,,,,,,,,,,,,,,,,,,,,,,,,,,,,,,,,,,,,,,,,,,,,,,,执拗,i,,,i,1,0,19,19,40,1,1.262,,
,,,,,,,,,,,,,,1,001,2024-08-30_12h38.18.860,IAT(Formal),2021.2.3,MacIntel,58.82352941,,,,,,,,,,,,,,,,,,,,,,,,,,,,,,,,,,,,,,,,,,,,,,,,,,,,凶狠,i,,,i,1,0,20,20,42,1,0.85,,
,,,,,,,,,,,,,,1,001,2024-08-30_12h38.18.860,IAT(Formal),2021.2.3,MacIntel,58.82352941,,,,,,,,,,,,,,,,,,,,,,,,,,,,,,,,,,,,,,,,,,,,,,,,,,,,愚蠢,i,,,i,1,0,21,21,32,1,0.62,,
,,,,,,,,,,,,,,1,001,2024-08-30_12h38.18.860,IAT(Formal),2021.2.3,MacIntel,58.82352941,,,,,,,,,,,,,,,,,,,,,,,,,,,,,,,,,,,,,,,,,,,,,,,,,,,,勤奋,e,,,e,1,0,22,22,18,1,0.783,,
,,,,,,,,,,,,,,1,001,2024-08-30_12h38.18.860,IAT(Formal),2021.2.3,MacIntel,58.82352941,,,,,,,,,,,,,,,,,,,,,,,,,,,,,,,,,,,,,,,,,,,,,,,,,,,,朴实,e,,,e,1,0,23,23,24,1,0.884,,
,,,,,,,,,,,,,,1,001,2024-08-30_12h38.18.860,IAT(Formal),2021.2.3,MacIntel,58.82352941,,,,,,,,,,,,,,,,,,,,,,,,,,,,,,,,,,,,,,,,,,,,,,,,,,,,散漫,i,,,,0,0,24,24,41,1,,,
,,,,,,,,,,,,,,1,001,2024-08-30_12h38.18.860,IAT(Formal),2021.2.3,MacIntel,58.82352941,,,,,,,,,,,,,,,,,,,,,,,,,,,,,,,,,,,,,,,,,,,,,,,,,,,,我的,i,,,e,0,0,25,25,1,1,0.583,,
,,,,,,,,,,,,,,1,001,2024-08-30_12h38.18.860,IAT(Formal),2021.2.3,MacIntel,58.82352941,,,,,,,,,,,,,,,,,,,,,,,,,,,,,,,,,,,,,,,,,,,,,,,,,,,,他人,e,,,e,1,0,26,26,58,1,0.514,,
,,,,,,,,,,,,,,1,001,2024-08-30_12h38.18.860,IAT(Formal),2021.2.3,MacIntel,58.82352941,,,,,,,,,,,,,,,,,,,,,,,,,,,,,,,,,,,,,,,,,,,,,,,,,,,,其他,e,,,e,1,0,27,27,9,1,0.797,,
,,,,,,,,,,,,,,1,001,2024-08-30_12h38.18.860,IAT(Formal),2021.2.3,MacIntel,58.82352941,,,,,,,,,,,,,,,,,,,,,,,,,,,,,,,,,,,,,,,,,,,,,,,,,,,,他,e,,,e,1,0,28,28,65,1,0.693,,
,,,,,,,,,,,,,,1,001,2024-08-30_12h38.18.860,IAT(Formal),2021.2.3,MacIntel,58.82352941,,,,,,,,,,,,,,,,,,,,,,,,,,,,,,,,,,,,,,,,,,,,,,,,,,,,乐观,e,,,,0,0,29,29,14,1,,,
,,,,,,,,,,,,,,1,001,2024-08-30_12h38.18.860,IAT(Formal),2021.2.3,MacIntel,58.82352941,,,,,,,,,,,,,,,,,,,,,,,,,,,,,,,,,,,,,,,,,,,,,,,,,,,,固执,i,,,i,1,0,30,30,47,1,0.75,,
,,,,,,,,,,,,,,1,001,2024-08-30_12h38.18.860,IAT(Formal),2021.2.3,MacIntel,58.82352941,,,,,,,,,,,,,,,,,,,,,,,,,,,,,,,,,,,,,,,,,,,,,,,,,,,,他的,e,,,e,1,0,31,31,57,1,0.568,,
,,,,,,,,,,,,,,1,001,2024-08-30_12h38.18.860,IAT(Formal),2021.2.3,MacIntel,58.82352941,,,,,,,,,,,,,,,,,,,,,,,,,,,,,,,,,,,,,,,,,,,,,,,,,,,,诚恳,e,,,e,1,0,32,32,29,1,0.585,,
,,,,,,,,,,,,,,1,001,2024-08-30_12h38.18.860,IAT(Formal),2021.2.3,MacIntel,58.82352941,,,,,,,,,,,,,,,,,,,,,,,,,,,,,,,,,,,,,,,,,,,,,,,,,,,,虚伪,i,,,i,1,0,33,33,31,1,0.922,,
,,,,,,,,,,,,,,1,001,2024-08-30_12h38.18.860,IAT(Formal),2021.2.3,MacIntel,58.82352941,,,,,,,,,,,,,,,,,,,,,,,,,,,,,,,,,,,,,,,,,,,,,,,,,,,,他们,e,,,i,0,0,34,34,6,1,0.799,,
,,,,,,,,,,,,,,1,001,2024-08-30_12h38.18.860,IAT(Formal),2021.2.3,MacIntel,58.82352941,,,,,,,,,,,,,,,,,,,,,,,,,,,,,,,,,,,,,,,,,,,,,,,,,,,,勇敢,e,,,,0,0,35,35,17,1,,,
,,,,,,,,,,,,,,1,001,2024-08-30_12h38.18.860,IAT(Formal),2021.2.3,MacIntel,58.82352941,,,,,,,,,,,,,,,,,,,,,,,,,,,,,,,,,,,,,,,,,,,,,,,,,,,,卑鄙,i,,,,0,0,36,36,30,1,,,
,,,,,,,,,,,,,,1,001,2024-08-30_12h38.18.860,IAT(Formal),2021.2.3,MacIntel,58.82352941,,,,,,,,,,,,,,,,,,,,,,,,,,,,,,,,,,,,,,,,,,,,,,,,,,,,自己,i,,,i,1,0,37,37,53,1,0.916,,
,,,,,,,,,,,,,,1,001,2024-08-30_12h38.18.860,IAT(Formal),2021.2.3,MacIntel,58.82352941,,,,,,,,,,,,,,,,,,,,,,,,,,,,,,,,,,,,,,,,,,,,,,,,,,,,轻率,i,,,i,1,0,38,38,48,1,0.902,,
,,,,,,,,,,,,,,1,001,2024-08-30_12h38.18.860,IAT(Formal),2021.2.3,MacIntel,58.82352941,,,,,,,,,,,,,,,,,,,,,,,,,,,,,,,,,,,,,,,,,,,,,,,,,,,,自卑,i,,,i,1,0,39,39,36,1,0.835,,
,,,,,,,,,,,,,,1,001,2024-08-30_12h38.18.860,IAT(Formal),2021.2.3,MacIntel,58.82352941,,,,,,,,,,,,,,,,,,,,,,,,,,,,,,,,,,,,,,,,,,,,,,,,,,,,其他,e,,,e,1,0,40,40,59,1,0.887,,
,,,,,,,,,,,,,,1,001,2024-08-30_12h38.18.860,IAT(Formal),2021.2.3,MacIntel,58.82352941,,,,,,,,,,,,,,,,,,,,,,,,,,,,,,,,,,,,,,,,,,,,,,,,,,,,他的,e,,,e,1,0,41,41,77,1,0.751,,
,,,,,,,,,,,,,,1,001,2024-08-30_12h38.18.860,IAT(Formal),2021.2.3,MacIntel,58.82352941,,,,,,,,,,,,,,,,,,,,,,,,,,,,,,,,,,,,,,,,,,,,,,,,,,,,崇高,e,,,e,1,0,42,42,11,1,1.168,,
,,,,,,,,,,,,,,1,001,2024-08-30_12h38.18.860,IAT(Formal),2021.2.3,MacIntel,58.82352941,,,,,,,,,,,,,,,,,,,,,,,,,,,,,,,,,,,,,,,,,,,,,,,,,,,,他的,e,,,i,0,0,43,43,67,1,0.766,,
,,,,,,,,,,,,,,1,001,2024-08-30_12h38.18.860,IAT(Formal),2021.2.3,MacIntel,58.82352941,,,,,,,,,,,,,,,,,,,,,,,,,,,,,,,,,,,,,,,,,,,,,,,,,,,,公正,e,,,e,1,0,44,44,23,1,0.782,,
,,,,,,,,,,,,,,1,001,2024-08-30_12h38.18.860,IAT(Formal),2021.2.3,MacIntel,58.82352941,,,,,,,,,,,,,,,,,,,,,,,,,,,,,,,,,,,,,,,,,,,,,,,,,,,,机智,e,,,e,1,0,45,45,19,1,0.6,,
,,,,,,,,,,,,,,1,001,2024-08-30_12h38.18.860,IAT(Formal),2021.2.3,MacIntel,58.82352941,,,,,,,,,,,,,,,,,,,,,,,,,,,,,,,,,,,,,,,,,,,,,,,,,,,,傲慢,i,,,i,1,0,46,46,37,1,1.331,,
,,,,,,,,,,,,,,1,001,2024-08-30_12h38.18.860,IAT(Formal),2021.2.3,MacIntel,58.82352941,,,,,,,,,,,,,,,,,,,,,,,,,,,,,,,,,,,,,,,,,,,,,,,,,,,,我们,i,,,i,1,0,47,47,52,1,1.033,,
,,,,,,,,,,,,,,1,001,2024-08-30_12h38.18.860,IAT(Formal),2021.2.3,MacIntel,58.82352941,,,,,,,,,,,,,,,,,,,,,,,,,,,,,,,,,,,,,,,,,,,,,,,,,,,,下贱,i,,,i,1,0,48,48,49,1,1.09,,
,,,,,,,,,,,,,,1,001,2024-08-30_12h38.18.860,IAT(Formal),2021.2.3,MacIntel,58.82352941,,,,,,,,,,,,,,,,,,,,,,,,,,,,,,,,,,,,,,,,,,,,,,,,,,,,无私,e,,,e,1,0,49,49,22,1,1.056,,
,,,,,,,,,,,,,,1,001,2024-08-30_12h38.18.860,IAT(Formal),2021.2.3,MacIntel,58.82352941,,,,,,,,,,,,,,,,,,,,,,,,,,,,,,,,,,,,,,,,,,,,,,,,,,,,野蛮,i,,,,0,0,50,50,46,1,,,
,,,,,,,,,,,,,,1,001,2024-08-30_12h38.18.860,IAT(Formal),2021.2.3,MacIntel,58.82352941,,,,,,,,,,,,,,,,,,,,,,,,,,,,,,,,,,,,,,,,,,,,,,,,,,,,自己,i,,,e,0,0,51,51,63,1,0.587,,
,,,,,,,,,,,,,,1,001,2024-08-30_12h38.18.860,IAT(Formal),2021.2.3,MacIntel,58.82352941,,,,,,,,,,,,,,,,,,,,,,,,,,,,,,,,,,,,,,,,,,,,,,,,,,,,他的,e,,,e,1,0,52,52,7,1,0.717,,
,,,,,,,,,,,,,,1,001,2024-08-30_12h38.18.860,IAT(Formal),2021.2.3,MacIntel,58.82352941,,,,,,,,,,,,,,,,,,,,,,,,,,,,,,,,,,,,,,,,,,,,,,,,,,,,我,i,,,i,1,0,53,53,60,1,0.664,,
,,,,,,,,,,,,,,1,001,2024-08-30_12h38.18.860,IAT(Formal),2021.2.3,MacIntel,58.82352941,,,,,,,,,,,,,,,,,,,,,,,,,,,,,,,,,,,,,,,,,,,,,,,,,,,,我,i,,,i,1,0,54,54,0,1,0.603,,
,,,,,,,,,,,,,,1,001,2024-08-30_12h38.18.860,IAT(Formal),2021.2.3,MacIntel,58.82352941,,,,,,,,,,,,,,,,,,,,,,,,,,,,,,,,,,,,,,,,,,,,,,,,,,,,猖狂,i,,,i,1,0,55,55,45,1,0.988,,
,,,,,,,,,,,,,,1,001,2024-08-30_12h38.18.860,IAT(Formal),2021.2.3,MacIntel,58.82352941,,,,,,,,,,,,,,,,,,,,,,,,,,,,,,,,,,,,,,,,,,,,,,,,,,,,他们,e,,,i,0,0,56,56,56,1,0.623,,
,,,,,,,,,,,,,,1,001,2024-08-30_12h38.18.860,IAT(Formal),2021.2.3,MacIntel,58.82352941,,,,,,,,,,,,,,,,,,,,,,,,,,,,,,,,,,,,,,,,,,,,,,,,,,,,我的,i,,,i,1,0,57,57,71,1,0.826,,
,,,,,,,,,,,,,,1,001,2024-08-30_12h38.18.860,IAT(Formal),2021.2.3,MacIntel,58.82352941,,,,,,,,,,,,,,,,,,,,,,,,,,,,,,,,,,,,,,,,,,,,,,,,,,,,我们,i,,,i,1,0,58,58,62,1,0.632,,
,,,,,,,,,,,,,,1,001,2024-08-30_12h38.18.860,IAT(Formal),2021.2.3,MacIntel,58.82352941,,,,,,,,,,,,,,,,,,,,,,,,,,,,,,,,,,,,,,,,,,,,,,,,,,,,活泼,e,,,e,1,0,59,59,28,1,0.951,,
,,,,,,,,,,,,,,1,001,2024-08-30_12h38.18.860,IAT(Formal),2021.2.3,MacIntel,58.82352941,,,,,,,,,,,,,,,,,,,,,,,,,,,,,,,,,,,,,,,,,,,,,,,,,,,,他人,e,,,e,1,0,60,60,68,1,1.085,,
,,,,,,,,,,,,,,1,001,2024-08-30_12h38.18.860,IAT(Formal),2021.2.3,MacIntel,58.82352941,,,,,,,,,,,,,,,,,,,,,,,,,,,,,,,,,,,,,,,,,,,,,,,,,,,,稳重,e,,,e,1,0,61,61,21,1,1.218,,
,,,,,,,,,,,,,,1,001,2024-08-30_12h38.18.860,IAT(Formal),2021.2.3,MacIntel,58.82352941,,,,,,,,,,,,,,,,,,,,,,,,,,,,,,,,,,,,,,,,,,,,,,,,,,,,其他,e,,,e,1,0,62,62,79,1,1.083,,
,,,,,,,,,,,,,,1,001,2024-08-30_12h38.18.860,IAT(Formal),2021.2.3,MacIntel,58.82352941,,,,,,,,,,,,,,,,,,,,,,,,,,,,,,,,,,,,,,,,,,,,,,,,,,,,鲁莽,i,,,i,1,0,63,63,38,1,0.753,,
,,,,,,,,,,,,,,1,001,2024-08-30_12h38.18.860,IAT(Formal),2021.2.3,MacIntel,58.82352941,,,,,,,,,,,,,,,,,,,,,,,,,,,,,,,,,,,,,,,,,,,,,,,,,,,,我的,i,,,e,0,0,64,64,61,1,1.139,,
,,,,,,,,,,,,,,1,001,2024-08-30_12h38.18.860,IAT(Formal),2021.2.3,MacIntel,58.82352941,,,,,,,,,,,,,,,,,,,,,,,,,,,,,,,,,,,,,,,,,,,,,,,,,,,,他人,e,,,e,1,0,65,65,8,1,0.686,,
,,,,,,,,,,,,,,1,001,2024-08-30_12h38.18.860,IAT(Formal),2021.2.3,MacIntel,58.82352941,,,,,,,,,,,,,,,,,,,,,,,,,,,,,,,,,,,,,,,,,,,,,,,,,,,,诚实,e,,,e,1,0,66,66,15,1,0.688,,
,,,,,,,,,,,,,,1,001,2024-08-30_12h38.18.860,IAT(Formal),2021.2.3,MacIntel,58.82352941,,,,,,,,,,,,,,,,,,,,,,,,,,,,,,,,,,,,,,,,,,,,,,,,,,,,俺,i,,,i,1,0,67,67,64,1,0.97,,
,,,,,,,,,,,,,,1,001,2024-08-30_12h38.18.860,IAT(Formal),2021.2.3,MacIntel,58.82352941,,,,,,,,,,,,,,,,,,,,,,,,,,,,,,,,,,,,,,,,,,,,,,,,,,,,他,e,,,e,1,0,68,68,55,1,0.914,,
,,,,,,,,,,,,,,1,001,2024-08-30_12h38.18.860,IAT(Formal),2021.2.3,MacIntel,58.82352941,,,,,,,,,,,,,,,,,,,,,,,,,,,,,,,,,,,,,,,,,,,,,,,,,,,,我们,i,,,e,0,0,69,69,2,1,1.349,,
,,,,,,,,,,,,,,1,001,2024-08-30_12h38.18.860,IAT(Formal),2021.2.3,MacIntel,58.82352941,,,,,,,,,,,,,,,,,,,,,,,,,,,,,,,,,,,,,,,,,,,,,,,,,,,,认真,e,,,e,1,0,70,70,20,1,0.704,,
,,,,,,,,,,,,,,1,001,2024-08-30_12h38.18.860,IAT(Formal),2021.2.3,MacIntel,58.82352941,,,,,,,,,,,,,,,,,,,,,,,,,,,,,,,,,,,,,,,,,,,,,,,,,,,,我们,i,,,i,1,0,71,71,72,1,0.914,,
,,,,,,,,,,,,,,1,001,2024-08-30_12h38.18.860,IAT(Formal),2021.2.3,MacIntel,58.82352941,,,,,,,,,,,,,,,,,,,,,,,,,,,,,,,,,,,,,,,,,,,,,,,,,,,,他们,e,,,e,1,0,72,72,76,1,0.665,,
,,,,,,,,,,,,,,1,001,2024-08-30_12h38.18.860,IAT(Formal),2021.2.3,MacIntel,58.82352941,,,,,,,,,,,,,,,,,,,,,,,,,,,,,,,,,,,,,,,,,,,,,,,,,,,,其他,e,,,i,0,0,73,73,69,1,1.18,,
,,,,,,,,,,,,,,1,001,2024-08-30_12h38.18.860,IAT(Formal),2021.2.3,MacIntel,58.82352941,,,,,,,,,,,,,,,,,,,,,,,,,,,,,,,,,,,,,,,,,,,,,,,,,,,,自私,i,,,i,1,0,74,74,43,1,1.267,,
,,,,,,,,,,,,,,1,001,2024-08-30_12h38.18.860,IAT(Formal),2021.2.3,MacIntel,58.82352941,,,,,,,,,,,,,,,,,,,,,,,,,,,,,,,,,,,,,,,,,,,,,,,,,,,,刻薄,i,,,i,1,0,75,75,33,1,0.587,,
,,,,,,,,,,,,,,1,001,2024-08-30_12h38.18.860,IAT(Formal),2021.2.3,MacIntel,58.82352941,,,,,,,,,,,,,,,,,,,,,,,,,,,,,,,,,,,,,,,,,,,,,,,,,,,,他们,e,,,e,1,0,76,76,66,1,1.465,,
,,,,,,,,,,,,,,1,001,2024-08-30_12h38.18.860,IAT(Formal),2021.2.3,MacIntel,58.82352941,,,,,,,,,,,,,,,,,,,,,,,,,,,,,,,,,,,,,,,,,,,,,,,,,,,,自己,i,,,i,1,0,77,77,3,1,0.614,,
,,,,,,,,,,,,,,1,001,2024-08-30_12h38.18.860,IAT(Formal),2021.2.3,MacIntel,58.82352941,,,,,,,,,,,,,,,,,,,,,,,,,,,,,,,,,,,,,,,,,,,,,,,,,,,,聪明,e,,,,0,0,78,78,12,1,,,
,,,,,,,,,,,,,,1,001,2024-08-30_12h38.18.860,IAT(Formal),2021.2.3,MacIntel,58.82352941,,,,,,,,,,,,,,,,,,,,,,,,,,,,,,,,,,,,,,,,,,,,,,,,,,,,细腻,e,,,e,1,0,79,79,25,1,0.637,,
,,,,,,,,,,,,,,1,001,2024-08-30_12h38.18.860,IAT(Formal),2021.2.3,MacIntel,58.82352941,,,,,,,,,,,,,,,,,,,,,,,,,,,,,,,,,,,,,,,,,,,,,,,,,,,,他,e,,,i,0,1,0,80,65,1,0.683,,
,,,,,,,,,,,,,,1,001,2024-08-30_12h38.18.860,IAT(Formal),2021.2.3,MacIntel,58.82352941,,,,,,,,,,,,,,,,,,,,,,,,,,,,,,,,,,,,,,,,,,,,,,,,,,,,稳重,e,,,e,1,1,1,81,21,1,1.186,,
,,,,,,,,,,,,,,1,001,2024-08-30_12h38.18.860,IAT(Formal),2021.2.3,MacIntel,58.82352941,,,,,,,,,,,,,,,,,,,,,,,,,,,,,,,,,,,,,,,,,,,,,,,,,,,,勤奋,e,,,e,1,1,2,82,18,1,0.585,,
,,,,,,,,,,,,,,1,001,2024-08-30_12h38.18.860,IAT(Formal),2021.2.3,MacIntel,58.82352941,,,,,,,,,,,,,,,,,,,,,,,,,,,,,,,,,,,,,,,,,,,,,,,,,,,,暴躁,i,,,e,0,1,3,83,44,1,0.531,,
,,,,,,,,,,,,,,1,001,2024-08-30_12h38.18.860,IAT(Formal),2021.2.3,MacIntel,58.82352941,,,,,,,,,,,,,,,,,,,,,,,,,,,,,,,,,,,,,,,,,,,,,,,,,,,,悲观,i,,,i,1,1,4,84,34,1,0.737,,
,,,,,,,,,,,,,,1,001,2024-08-30_12h38.18.860,IAT(Formal),2021.2.3,MacIntel,58.82352941,,,,,,,,,,,,,,,,,,,,,,,,,,,,,,,,,,,,,,,,,,,,,,,,,,,,他,e,,,e,1,1,5,85,5,1,1.282,,
,,,,,,,,,,,,,,1,001,2024-08-30_12h38.18.860,IAT(Formal),2021.2.3,MacIntel,58.82352941,,,,,,,,,,,,,,,,,,,,,,,,,,,,,,,,,,,,,,,,,,,,,,,,,,,,冷静,e,,,,0,1,6,86,26,1,,,
,,,,,,,,,,,,,,1,001,2024-08-30_12h38.18.860,IAT(Formal),2021.2.3,MacIntel,58.82352941,,,,,,,,,,,,,,,,,,,,,,,,,,,,,,,,,,,,,,,,,,,,,,,,,,,,他的,e,,,e,1,1,7,87,57,1,1.1,,
,,,,,,,,,,,,,,1,001,2024-08-30_12h38.18.860,IAT(Formal),2021.2.3,MacIntel,58.82352941,,,,,,,,,,,,,,,,,,,,,,,,,,,,,,,,,,,,,,,,,,,,,,,,,,,,散漫,i,,,i,1,1,8,88,41,1,0.802,,
,,,,,,,,,,,,,,1,001,2024-08-30_12h38.18.860,IAT(Formal),2021.2.3,MacIntel,58.82352941,,,,,,,,,,,,,,,,,,,,,,,,,,,,,,,,,,,,,,,,,,,,,,,,,,,,他,e,,,,0,1,9,89,75,1,,,
,,,,,,,,,,,,,,1,001,2024-08-30_12h38.18.860,IAT(Formal),2021.2.3,MacIntel,58.82352941,,,,,,,,,,,,,,,,,,,,,,,,,,,,,,,,,,,,,,,,,,,,,,,,,,,,自卑,i,,,e,0,1,10,90,36,1,0.822,,
,,,,,,,,,,,,,,1,001,2024-08-30_12h38.18.860,IAT(Formal),2021.2.3,MacIntel,58.82352941,,,,,,,,,,,,,,,,,,,,,,,,,,,,,,,,,,,,,,,,,,,,,,,,,,,,他人,e,,,e,1,1,11,91,68,1,0.563,,
,,,,,,,,,,,,,,1,001,2024-08-30_12h38.18.860,IAT(Formal),2021.2.3,MacIntel,58.82352941,,,,,,,,,,,,,,,,,,,,,,,,,,,,,,,,,,,,,,,,,,,,,,,,,,,,他们,e,,,e,1,1,12,92,6,1,0.733,,
,,,,,,,,,,,,,,1,001,2024-08-30_12h38.18.860,IAT(Formal),2021.2.3,MacIntel,58.82352941,,,,,,,,,,,,,,,,,,,,,,,,,,,,,,,,,,,,,,,,,,,,,,,,,,,,自己,i,,,i,1,1,13,93,73,1,0.8,,
,,,,,,,,,,,,,,1,001,2024-08-30_12h38.18.860,IAT(Formal),2021.2.3,MacIntel,58.82352941,,,,,,,,,,,,,,,,,,,,,,,,,,,,,,,,,,,,,,,,,,,,,,,,,,,,细腻,e,,,,0,1,14,94,25,1,,,
,,,,,,,,,,,,,,1,001,2024-08-30_12h38.18.860,IAT(Formal),2021.2.3,MacIntel,58.82352941,,,,,,,,,,,,,,,,,,,,,,,,,,,,,,,,,,,,,,,,,,,,,,,,,,,,执拗,i,,,i,1,1,15,95,40,1,0.749,,
,,,,,,,,,,,,,,1,001,2024-08-30_12h38.18.860,IAT(Formal),2021.2.3,MacIntel,58.82352941,,,,,,,,,,,,,,,,,,,,,,,,,,,,,,,,,,,,,,,,,,,,,,,,,,,,他,e,,,e,1,1,16,96,55,1,0.639,,
,,,,,,,,,,,,,,1,001,2024-08-30_12h38.18.860,IAT(Formal),2021.2.3,MacIntel,58.82352941,,,,,,,,,,,,,,,,,,,,,,,,,,,,,,,,,,,,,,,,,,,,,,,,,,,,其他,e,,,e,1,1,17,97,59,1,0.769,,
,,,,,,,,,,,,,,1,001,2024-08-30_12h38.18.860,IAT(Formal),2021.2.3,MacIntel,58.82352941,,,,,,,,,,,,,,,,,,,,,,,,,,,,,,,,,,,,,,,,,,,,,,,,,,,,他们,e,,,e,1,1,18,98,66,1,0.846,,
,,,,,,,,,,,,,,1,001,2024-08-30_12h38.18.860,IAT(Formal),2021.2.3,MacIntel,58.82352941,,,,,,,,,,,,,,,,,,,,,,,,,,,,,,,,,,,,,,,,,,,,,,,,,,,,愚蠢,i,,,i,1,1,19,99,32,1,0.949,,
,,,,,,,,,,,,,,1,001,2024-08-30_12h38.18.860,IAT(Formal),2021.2.3,MacIntel,58.82352941,,,,,,,,,,,,,,,,,,,,,,,,,,,,,,,,,,,,,,,,,,,,,,,,,,,,我们,i,,,i,1,1,20,100,52,1,1.157,,
,,,,,,,,,,,,,,1,001,2024-08-30_12h38.18.860,IAT(Formal),2021.2.3,MacIntel,58.82352941,,,,,,,,,,,,,,,,,,,,,,,,,,,,,,,,,,,,,,,,,,,,,,,,,,,,其他,e,,,i,0,1,21,101,79,1,0.815,,
,,,,,,,,,,,,,,1,001,2024-08-30_12h38.18.860,IAT(Formal),2021.2.3,MacIntel,58.82352941,,,,,,,,,,,,,,,,,,,,,,,,,,,,,,,,,,,,,,,,,,,,,,,,,,,,他人,e,,,e,1,1,22,102,58,1,0.667,,
,,,,,,,,,,,,,,1,001,2024-08-30_12h38.18.860,IAT(Formal),2021.2.3,MacIntel,58.82352941,,,,,,,,,,,,,,,,,,,,,,,,,,,,,,,,,,,,,,,,,,,,,,,,,,,,俺,i,,,i,1,1,23,103,4,1,0.7,,
,,,,,,,,,,,,,,1,001,2024-08-30_12h38.18.860,IAT(Formal),2021.2.3,MacIntel,58.82352941,,,,,,,,,,,,,,,,,,,,,,,,,,,,,,,,,,,,,,,,,,,,,,,,,,,,自己,i,,,i,1,1,24,104,63,1,0.767,,
,,,,,,,,,,,,,,1,001,2024-08-30_12h38.18.860,IAT(Formal),2021.2.3,MacIntel,58.82352941,,,,,,,,,,,,,,,,,,,,,,,,,,,,,,,,,,,,,,,,,,,,,,,,,,,,我,i,,,i,1,1,25,105,70,1,0.519,,
,,,,,,,,,,,,,,1,001,2024-08-30_12h38.18.860,IAT(Formal),2021.2.3,MacIntel,58.82352941,,,,,,,,,,,,,,,,,,,,,,,,,,,,,,,,,,,,,,,,,,,,,,,,,,,,我们,i,,,i,1,1,26,106,72,1,0.716,,
,,,,,,,,,,,,,,1,001,2024-08-30_12h38.18.860,IAT(Formal),2021.2.3,MacIntel,58.82352941,,,,,,,,,,,,,,,,,,,,,,,,,,,,,,,,,,,,,,,,,,,,,,,,,,,,下贱,i,,,i,1,1,27,107,49,1,1.431,,
,,,,,,,,,,,,,,1,001,2024-08-30_12h38.18.860,IAT(Formal),2021.2.3,MacIntel,58.82352941,,,,,,,,,,,,,,,,,,,,,,,,,,,,,,,,,,,,,,,,,,,,,,,,,,,,勇敢,e,,,e,1,1,28,108,17,1,1.034,,
,,,,,,,,,,,,,,1,001,2024-08-30_12h38.18.860,IAT(Formal),2021.2.3,MacIntel,58.82352941,,,,,,,,,,,,,,,,,,,,,,,,,,,,,,,,,,,,,,,,,,,,,,,,,,,,其他,e,,,e,1,1,29,109,9,1,1.382,,
,,,,,,,,,,,,,,1,001,2024-08-30_12h38.18.860,IAT(Formal),2021.2.3,MacIntel,58.82352941,,,,,,,,,,,,,,,,,,,,,,,,,,,,,,,,,,,,,,,,,,,,,,,,,,,,我的,i,,,i,1,1,30,110,61,1,0.989,,
,,,,,,,,,,,,,,1,001,2024-08-30_12h38.18.860,IAT(Formal),2021.2.3,MacIntel,58.82352941,,,,,,,,,,,,,,,,,,,,,,,,,,,,,,,,,,,,,,,,,,,,,,,,,,,,我的,i,,,i,1,1,31,111,51,1,0.869,,
,,,,,,,,,,,,,,1,001,2024-08-30_12h38.18.860,IAT(Formal),2021.2.3,MacIntel,58.82352941,,,,,,,,,,,,,,,,,,,,,,,,,,,,,,,,,,,,,,,,,,,,,,,,,,,,优秀,e,,,e,1,1,32,112,10,1,0.773,,
,,,,,,,,,,,,,,1,001,2024-08-30_12h38.18.860,IAT(Formal),2021.2.3,MacIntel,58.82352941,,,,,,,,,,,,,,,,,,,,,,,,,,,,,,,,,,,,,,,,,,,,,,,,,,,,自己,i,,,,0,1,33,113,3,1,,,
,,,,,,,,,,,,,,1,001,2024-08-30_12h38.18.860,IAT(Formal),2021.2.3,MacIntel,58.82352941,,,,,,,,,,,,,,,,,,,,,,,,,,,,,,,,,,,,,,,,,,,,,,,,,,,,我,i,,,e,0,1,34,114,60,1,0.536,,
,,,,,,,,,,,,,,1,001,2024-08-30_12h38.18.860,IAT(Formal),2021.2.3,MacIntel,58.82352941,,,,,,,,,,,,,,,,,,,,,,,,,,,,,,,,,,,,,,,,,,,,,,,,,,,,我,i,,,i,1,1,35,115,50,1,0.509,,
,,,,,,,,,,,,,,1,001,2024-08-30_12h38.18.860,IAT(Formal),2021.2.3,MacIntel,58.82352941,,,,,,,,,,,,,,,,,,,,,,,,,,,,,,,,,,,,,,,,,,,,,,,,,,,,刻薄,i,,,i,1,1,36,116,33,1,0.615,,
,,,,,,,,,,,,,,1,001,2024-08-30_12h38.18.860,IAT(Formal),2021.2.3,MacIntel,58.82352941,,,,,,,,,,,,,,,,,,,,,,,,,,,,,,,,,,,,,,,,,,,,,,,,,,,,俺,i,,,i,1,1,37,117,74,1,1.116,,
,,,,,,,,,,,,,,1,001,2024-08-30_12h38.18.860,IAT(Formal),2021.2.3,MacIntel,58.82352941,,,,,,,,,,,,,,,,,,,,,,,,,,,,,,,,,,,,,,,,,,,,,,,,,,,,崇高,e,,,e,1,1,38,118,11,1,1.401,,
,,,,,,,,,,,,,,1,001,2024-08-30_12h38.18.860,IAT(Formal),2021.2.3,MacIntel,58.82352941,,,,,,,,,,,,,,,,,,,,,,,,,,,,,,,,,,,,,,,,,,,,,,,,,,,,虚伪,i,,,i,1,1,39,119,31,1,0.654,,
,,,,,,,,,,,,,,1,001,2024-08-30_12h38.18.860,IAT(Formal),2021.2.3,MacIntel,58.82352941,,,,,,,,,,,,,,,,,,,,,,,,,,,,,,,,,,,,,,,,,,,,,,,,,,,,活泼,e,,,e,1,1,40,120,28,1,0.933,,
,,,,,,,,,,,,,,1,001,2024-08-30_12h38.18.860,IAT(Formal),2021.2.3,MacIntel,58.82352941,,,,,,,,,,,,,,,,,,,,,,,,,,,,,,,,,,,,,,,,,,,,,,,,,,,,猖狂,i,,,i,1,1,41,121,45,1,0.73,,
,,,,,,,,,,,,,,1,001,2024-08-30_12h38.18.860,IAT(Formal),2021.2.3,MacIntel,58.82352941,,,,,,,,,,,,,,,,,,,,,,,,,,,,,,,,,,,,,,,,,,,,,,,,,,,,乐观,e,,,e,1,1,42,122,14,1,0.935,,
,,,,,,,,,,,,,,1,001,2024-08-30_12h38.18.860,IAT(Formal),2021.2.3,MacIntel,58.82352941,,,,,,,,,,,,,,,,,,,,,,,,,,,,,,,,,,,,,,,,,,,,,,,,,,,,他的,e,,,e,1,1,43,123,77,1,1.363,,
,,,,,,,,,,,,,,1,001,2024-08-30_12h38.18.860,IAT(Formal),2021.2.3,MacIntel,58.82352941,,,,,,,,,,,,,,,,,,,,,,,,,,,,,,,,,,,,,,,,,,,,,,,,,,,,聪明,e,,,e,1,1,44,124,12,1,0.62,,
,,,,,,,,,,,,,,1,001,2024-08-30_12h38.18.860,IAT(Formal),2021.2.3,MacIntel,58.82352941,,,,,,,,,,,,,,,,,,,,,,,,,,,,,,,,,,,,,,,,,,,,,,,,,,,,热情,e,,,e,1,1,45,125,27,1,1.066,,
,,,,,,,,,,,,,,1,001,2024-08-30_12h38.18.860,IAT(Formal),2021.2.3,MacIntel,58.82352941,,,,,,,,,,,,,,,,,,,,,,,,,,,,,,,,,,,,,,,,,,,,,,,,,,,,冒失,i,,,i,1,1,46,126,39,1,1.05,,
,,,,,,,,,,,,,,1,001,2024-08-30_12h38.18.860,IAT(Formal),2021.2.3,MacIntel,58.82352941,,,,,,,,,,,,,,,,,,,,,,,,,,,,,,,,,,,,,,,,,,,,,,,,,,,,他们,e,,,,0,1,47,127,56,1,,,
,,,,,,,,,,,,,,1,001,2024-08-30_12h38.18.860,IAT(Formal),2021.2.3,MacIntel,58.82352941,,,,,,,,,,,,,,,,,,,,,,,,,,,,,,,,,,,,,,,,,,,,,,,,,,,,俺,i,,,i,1,1,48,128,64,1,0.635,,
,,,,,,,,,,,,,,1,001,2024-08-30_12h38.18.860,IAT(Formal),2021.2.3,MacIntel,58.82352941,,,,,,,,,,,,,,,,,,,,,,,,,,,,,,,,,,,,,,,,,,,,,,,,,,,,我们,i,,,i,1,1,49,129,2,1,0.6,,
,,,,,,,,,,,,,,1,001,2024-08-30_12h38.18.860,IAT(Formal),2021.2.3,MacIntel,58.82352941,,,,,,,,,,,,,,,,,,,,,,,,,,,,,,,,,,,,,,,,,,,,,,,,,,,,我的,i,,,i,1,1,50,130,1,1,0.465,,
,,,,,,,,,,,,,,1,001,2024-08-30_12h38.18.860,IAT(Formal),2021.2.3,MacIntel,58.82352941,,,,,,,,,,,,,,,,,,,,,,,,,,,,,,,,,,,,,,,,,,,,,,,,,,,,无私,e,,,e,1,1,51,131,22,1,1.131,,
,,,,,,,,,,,,,,1,001,2024-08-30_12h38.18.860,IAT(Formal),2021.2.3,MacIntel,58.82352941,,,,,,,,,,,,,,,,,,,,,,,,,,,,,,,,,,,,,,,,,,,,,,,,,,,,正直,e,,,e,1,1,52,132,16,1,0.552,,
,,,,,,,,,,,,,,1,001,2024-08-30_12h38.18.860,IAT(Formal),2021.2.3,MacIntel,58.82352941,,,,,,,,,,,,,,,,,,,,,,,,,,,,,,,,,,,,,,,,,,,,,,,,,,,,他的,e,,,i,0,1,53,133,67,1,0.667,,
,,,,,,,,,,,,,,1,001,2024-08-30_12h38.18.860,IAT(Formal),2021.2.3,MacIntel,58.82352941,,,,,,,,,,,,,,,,,,,,,,,,,,,,,,,,,,,,,,,,,,,,,,,,,,,,朴实,e,,,e,1,1,54,134,24,1,0.602,,
,,,,,,,,,,,,,,1,001,2024-08-30_12h38.18.860,IAT(Formal),2021.2.3,MacIntel,58.82352941,,,,,,,,,,,,,,,,,,,,,,,,,,,,,,,,,,,,,,,,,,,,,,,,,,,,我们,i,,,i,1,1,55,135,62,1,0.733,,
,,,,,,,,,,,,,,1,001,2024-08-30_12h38.18.860,IAT(Formal),2021.2.3,MacIntel,58.82352941,,,,,,,,,,,,,,,,,,,,,,,,,,,,,,,,,,,,,,,,,,,,,,,,,,,,机智,e,,,e,1,1,56,136,19,1,0.886,,
,,,,,,,,,,,,,,1,001,2024-08-30_12h38.18.860,IAT(Formal),2021.2.3,MacIntel,58.82352941,,,,,,,,,,,,,,,,,,,,,,,,,,,,,,,,,,,,,,,,,,,,,,,,,,,,固执,i,,,i,1,1,57,137,47,1,1.269,,
,,,,,,,,,,,,,,1,001,2024-08-30_12h38.18.860,IAT(Formal),2021.2.3,MacIntel,58.82352941,,,,,,,,,,,,,,,,,,,,,,,,,,,,,,,,,,,,,,,,,,,,,,,,,,,,消极,i,,,i,1,1,58,138,35,1,0.788,,
,,,,,,,,,,,,,,1,001,2024-08-30_12h38.18.860,IAT(Formal),2021.2.3,MacIntel,58.82352941,,,,,,,,,,,,,,,,,,,,,,,,,,,,,,,,,,,,,,,,,,,,,,,,,,,,他的,e,,,e,1,1,59,139,7,1,1.419,,
,,,,,,,,,,,,,,1,001,2024-08-30_12h38.18.860,IAT(Formal),2021.2.3,MacIntel,58.82352941,,,,,,,,,,,,,,,,,,,,,,,,,,,,,,,,,,,,,,,,,,,,,,,,,,,,自私,i,,,i,1,1,60,140,43,1,1.033,,
,,,,,,,,,,,,,,1,001,2024-08-30_12h38.18.860,IAT(Formal),2021.2.3,MacIntel,58.82352941,,,,,,,,,,,,,,,,,,,,,,,,,,,,,,,,,,,,,,,,,,,,,,,,,,,,他人,e,,,e,1,1,61,141,78,1,1.202,,
,,,,,,,,,,,,,,1,001,2024-08-30_12h38.18.860,IAT(Formal),2021.2.3,MacIntel,58.82352941,,,,,,,,,,,,,,,,,,,,,,,,,,,,,,,,,,,,,,,,,,,,,,,,,,,,野蛮,i,,,i,1,1,62,142,46,1,0.632,,
,,,,,,,,,,,,,,1,001,2024-08-30_12h38.18.860,IAT(Formal),2021.2.3,MacIntel,58.82352941,,,,,,,,,,,,,,,,,,,,,,,,,,,,,,,,,,,,,,,,,,,,,,,,,,,,卑鄙,i,,,i,1,1,63,143,30,1,0.573,,
,,,,,,,,,,,,,,1,001,2024-08-30_12h38.18.860,IAT(Formal),2021.2.3,MacIntel,58.82352941,,,,,,,,,,,,,,,,,,,,,,,,,,,,,,,,,,,,,,,,,,,,,,,,,,,,凶狠,i,,,i,1,1,64,144,42,1,0.531,,
,,,,,,,,,,,,,,1,001,2024-08-30_12h38.18.860,IAT(Formal),2021.2.3,MacIntel,58.82352941,,,,,,,,,,,,,,,,,,,,,,,,,,,,,,,,,,,,,,,,,,,,,,,,,,,,我的,i,,,e,0,1,65,145,71,1,0.815,,
,,,,,,,,,,,,,,1,001,2024-08-30_12h38.18.860,IAT(Formal),2021.2.3,MacIntel,58.82352941,,,,,,,,,,,,,,,,,,,,,,,,,,,,,,,,,,,,,,,,,,,,,,,,,,,,诚恳,e,,,e,1,1,66,146,29,1,0.715,,
,,,,,,,,,,,,,,1,001,2024-08-30_12h38.18.860,IAT(Formal),2021.2.3,MacIntel,58.82352941,,,,,,,,,,,,,,,,,,,,,,,,,,,,,,,,,,,,,,,,,,,,,,,,,,,,认真,e,,,e,1,1,67,147,20,1,0.416,,
,,,,,,,,,,,,,,1,001,2024-08-30_12h38.18.860,IAT(Formal),2021.2.3,MacIntel,58.82352941,,,,,,,,,,,,,,,,,,,,,,,,,,,,,,,,,,,,,,,,,,,,,,,,,,,,公正,e,,,e,1,1,68,148,23,1,0.491,,
,,,,,,,,,,,,,,1,001,2024-08-30_12h38.18.860,IAT(Formal),2021.2.3,MacIntel,58.82352941,,,,,,,,,,,,,,,,,,,,,,,,,,,,,,,,,,,,,,,,,,,,,,,,,,,,轻率,i,,,i,1,1,69,149,48,1,0.851,,
,,,,,,,,,,,,,,1,001,2024-08-30_12h38.18.860,IAT(Formal),2021.2.3,MacIntel,58.82352941,,,,,,,,,,,,,,,,,,,,,,,,,,,,,,,,,,,,,,,,,,,,,,,,,,,,他们,e,,,e,1,1,70,150,76,1,0.698,,
,,,,,,,,,,,,,,1,001,2024-08-30_12h38.18.860,IAT(Formal),2021.2.3,MacIntel,58.82352941,,,,,,,,,,,,,,,,,,,,,,,,,,,,,,,,,,,,,,,,,,,,,,,,,,,,傲慢,i,,,e,0,1,71,151,37,1,1.163,,
,,,,,,,,,,,,,,1,001,2024-08-30_12h38.18.860,IAT(Formal),2021.2.3,MacIntel,58.82352941,,,,,,,,,,,,,,,,,,,,,,,,,,,,,,,,,,,,,,,,,,,,,,,,,,,,他人,e,,,e,1,1,72,152,8,1,0.797,,
,,,,,,,,,,,,,,1,001,2024-08-30_12h38.18.860,IAT(Formal),2021.2.3,MacIntel,58.82352941,,,,,,,,,,,,,,,,,,,,,,,,,,,,,,,,,,,,,,,,,,,,,,,,,,,,鲁莽,i,,,i,1,1,73,153,38,1,0.483,,
,,,,,,,,,,,,,,1,001,2024-08-30_12h38.18.860,IAT(Formal),2021.2.3,MacIntel,58.82352941,,,,,,,,,,,,,,,,,,,,,,,,,,,,,,,,,,,,,,,,,,,,,,,,,,,,杰出,e,,,e,1,1,74,154,13,1,0.687,,
,,,,,,,,,,,,,,1,001,2024-08-30_12h38.18.860,IAT(Formal),2021.2.3,MacIntel,58.82352941,,,,,,,,,,,,,,,,,,,,,,,,,,,,,,,,,,,,,,,,,,,,,,,,,,,,俺,i,,,i,1,1,75,155,54,1,0.701,,
,,,,,,,,,,,,,,1,001,2024-08-30_12h38.18.860,IAT(Formal),2021.2.3,MacIntel,58.82352941,,,,,,,,,,,,,,,,,,,,,,,,,,,,,,,,,,,,,,,,,,,,,,,,,,,,诚实,e,,,e,1,1,76,156,15,1,1.207,,
,,,,,,,,,,,,,,1,001,2024-08-30_12h38.18.860,IAT(Formal),2021.2.3,MacIntel,58.82352941,,,,,,,,,,,,,,,,,,,,,,,,,,,,,,,,,,,,,,,,,,,,,,,,,,,,其他,e,,,e,1,1,77,157,69,1,1.38,,
,,,,,,,,,,,,,,1,001,2024-08-30_12h38.18.860,IAT(Formal),2021.2.3,MacIntel,58.82352941,,,,,,,,,,,,,,,,,,,,,,,,,,,,,,,,,,,,,,,,,,,,,,,,,,,,自己,i,,,i,1,1,78,158,53,1,1.058,,
,,,,,,,,,,,,,,1,001,2024-08-30_12h38.18.860,IAT(Formal),2021.2.3,MacIntel,58.82352941,,,,,,,,,,,,,,,,,,,,,,,,,,,,,,,,,,,,,,,,,,,,,,,,,,,,我,i,,,i,1,1,79,159,0,1,0.614,,
,,,,,,,,,,,,,,1,001,2024-08-30_12h38.18.860,IAT(Formal),2021.2.3,MacIntel,58.82352941,,,,,,,,,,,,,,,,,,,,,,,,,,,,,,,,,,,,,,,,,,,,,,,,,,,,,,,,,,,,,,,,space,3.027