﻿Instruction1.keys,Instruction1.rt,Instruction2.keys,Instruction2.rt,key_resp_iso.keys,key_resp_iso.corr,Practice_01.thisRepN,Practice_01.thisTrialN,Practice_01.thisN,Practice_01.thisIndex,Practice_01.ran,Words,ans,participant,session,date,expName,psychopyVersion,OS,frameRate,key_resp_iso.rt,key_resp_3.keys,key_resp_3.rt,key_resp_ipn.keys,key_resp_ipn.corr,key_resp_ipn.rt,Practice_02.thisRepN,Practice_02.thisTrialN,Practice_02.thisN,Practice_02.thisIndex,Practice_02.ran,Words_ipn,ans_ipn,key_resp_4.keys,key_resp_4.rt,key_resp_t1.keys,key_resp_t1.corr,key_resp_t1.rt,Practice_T1.thisRepN,Practice_T1.thisTrialN,Practice_T1.thisN,Practice_T1.thisIndex,Practice_T1.ran,Words_t1,ans_t1,key_resp_5.keys,key_resp_5.rt,Formal_T1.thisRepN,Formal_T1.thisTrialN,Formal_T1.thisN,Formal_T1.thisIndex,Formal_T1.ran,key_resp_6.keys,key_resp_6.rt,key_resp_iso_reverse.keys,key_resp_iso_reverse.corr,key_resp_iso_reverse.rt,Practice_iso_Reverse.thisRepN,Practice_iso_Reverse.thisTrialN,Practice_iso_Reverse.thisN,Practice_iso_Reverse.thisIndex,Practice_iso_Reverse.ran,key_resp_7.keys,key_resp_7.rt,key_resp_t2_Practice.keys,key_resp_t2_Practice.corr,key_resp_t2_Practice.rt,Practice_t2_Reverse.thisRepN,Practice_t2_Reverse.thisTrialN,Practice_t2_Reverse.thisN,Practice_t2_Reverse.thisIndex,Practice_t2_Reverse.ran,Words_t2,ans_t2,key_resp_8.keys,key_resp_8.rt,key_resp_t2.keys,key_resp_t2.corr,key_resp_t2.rt,Formal_t2_reverse.thisRepN,Formal_t2_reverse.thisTrialN,Formal_t2_reverse.thisN,Formal_t2_reverse.thisIndex,Formal_t2_reverse.ran,key_instruct.keys,key_instruct.rt
space,7.8241,space,16.3978,,0,0,0,0,3,1,自己,e,1,001,2024-09-01_22h31.34.002,IAT(Formal),2021.2.3,Win32,19.81218053,,,,,,,,,,,,,,,,,,,,,,,,,,,,,,,,,,,,,,,,,,,,,,,,,,,,,,,,,,,,,,,,,,
,,,,e,1,0,1,1,1,1,我的,e,1,001,2024-09-01_22h31.34.002,IAT(Formal),2021.2.3,Win32,19.81218053,0.8931,,,,,,,,,,,,,,,,,,,,,,,,,,,,,,,,,,,,,,,,,,,,,,,,,,,,,,,,,,,,,,,,,
,,,,i,1,0,2,2,7,1,他的,i,1,001,2024-09-01_22h31.34.002,IAT(Formal),2021.2.3,Win32,19.81218053,0.7014,,,,,,,,,,,,,,,,,,,,,,,,,,,,,,,,,,,,,,,,,,,,,,,,,,,,,,,,,,,,,,,,,
,,,,i,1,0,3,3,8,1,他人,i,1,001,2024-09-01_22h31.34.002,IAT(Formal),2021.2.3,Win32,19.81218053,0.5953,,,,,,,,,,,,,,,,,,,,,,,,,,,,,,,,,,,,,,,,,,,,,,,,,,,,,,,,,,,,,,,,,
,,,,i,1,0,4,4,5,1,他,i,1,001,2024-09-01_22h31.34.002,IAT(Formal),2021.2.3,Win32,19.81218053,0.5351,,,,,,,,,,,,,,,,,,,,,,,,,,,,,,,,,,,,,,,,,,,,,,,,,,,,,,,,,,,,,,,,,
,,,,e,1,0,5,5,4,1,俺,e,1,001,2024-09-01_22h31.34.002,IAT(Formal),2021.2.3,Win32,19.81218053,0.6693,,,,,,,,,,,,,,,,,,,,,,,,,,,,,,,,,,,,,,,,,,,,,,,,,,,,,,,,,,,,,,,,,
,,,,e,1,0,6,6,0,1,我,e,1,001,2024-09-01_22h31.34.002,IAT(Formal),2021.2.3,Win32,19.81218053,0.5538,,,,,,,,,,,,,,,,,,,,,,,,,,,,,,,,,,,,,,,,,,,,,,,,,,,,,,,,,,,,,,,,,
,,,,i,1,0,7,7,9,1,其他,i,1,001,2024-09-01_22h31.34.002,IAT(Formal),2021.2.3,Win32,19.81218053,0.6223,,,,,,,,,,,,,,,,,,,,,,,,,,,,,,,,,,,,,,,,,,,,,,,,,,,,,,,,,,,,,,,,,
,,,,i,1,0,8,8,6,1,他们,i,1,001,2024-09-01_22h31.34.002,IAT(Formal),2021.2.3,Win32,19.81218053,0.6998,,,,,,,,,,,,,,,,,,,,,,,,,,,,,,,,,,,,,,,,,,,,,,,,,,,,,,,,,,,,,,,,,
,,,,e,1,0,9,9,2,1,我们,e,1,001,2024-09-01_22h31.34.002,IAT(Formal),2021.2.3,Win32,19.81218053,0.5515,,,,,,,,,,,,,,,,,,,,,,,,,,,,,,,,,,,,,,,,,,,,,,,,,,,,,,,,,,,,,,,,,
,,,,,,,,,,,,,1,001,2024-09-01_22h31.34.002,IAT(Formal),2021.2.3,Win32,19.81218053,,space,5.7749,i,1,0.7201,0,0,0,30,1,执拗,i,,,,,,,,,,,,,,,,,,,,,,,,,,,,,,,,,,,,,,,,,,,,,,,,,,,,,
,,,,,,,,,,,,,1,001,2024-09-01_22h31.34.002,IAT(Formal),2021.2.3,Win32,19.81218053,,,,e,1,0.5581,0,1,1,19,1,诚恳,e,,,,,,,,,,,,,,,,,,,,,,,,,,,,,,,,,,,,,,,,,,,,,,,,,,,,,
,,,,,,,,,,,,,1,001,2024-09-01_22h31.34.002,IAT(Formal),2021.2.3,Win32,19.81218053,,,,i,1,0.7636,0,2,2,39,1,下贱,i,,,,,,,,,,,,,,,,,,,,,,,,,,,,,,,,,,,,,,,,,,,,,,,,,,,,,
,,,,,,,,,,,,,1,001,2024-09-01_22h31.34.002,IAT(Formal),2021.2.3,Win32,19.81218053,,,,i,1,0.5733,0,3,3,23,1,刻薄,i,,,,,,,,,,,,,,,,,,,,,,,,,,,,,,,,,,,,,,,,,,,,,,,,,,,,,
,,,,,,,,,,,,,1,001,2024-09-01_22h31.34.002,IAT(Formal),2021.2.3,Win32,19.81218053,,,,e,1,0.4266,0,4,4,14,1,朴实,e,,,,,,,,,,,,,,,,,,,,,,,,,,,,,,,,,,,,,,,,,,,,,,,,,,,,,
,,,,,,,,,,,,,1,001,2024-09-01_22h31.34.002,IAT(Formal),2021.2.3,Win32,19.81218053,,,,e,1,0.5816,0,5,5,9,1,机智,e,,,,,,,,,,,,,,,,,,,,,,,,,,,,,,,,,,,,,,,,,,,,,,,,,,,,,
,,,,,,,,,,,,,1,001,2024-09-01_22h31.34.002,IAT(Formal),2021.2.3,Win32,19.81218053,,,,e,0,0.5138,0,6,6,27,1,傲慢,i,,,,,,,,,,,,,,,,,,,,,,,,,,,,,,,,,,,,,,,,,,,,,,,,,,,,,
,,,,,,,,,,,,,1,001,2024-09-01_22h31.34.002,IAT(Formal),2021.2.3,Win32,19.81218053,,,,e,1,0.6123,0,7,7,12,1,无私,e,,,,,,,,,,,,,,,,,,,,,,,,,,,,,,,,,,,,,,,,,,,,,,,,,,,,,
,,,,,,,,,,,,,1,001,2024-09-01_22h31.34.002,IAT(Formal),2021.2.3,Win32,19.81218053,,,,e,1,0.6081,0,8,8,11,1,稳重,e,,,,,,,,,,,,,,,,,,,,,,,,,,,,,,,,,,,,,,,,,,,,,,,,,,,,,
,,,,,,,,,,,,,1,001,2024-09-01_22h31.34.002,IAT(Formal),2021.2.3,Win32,19.81218053,,,,e,1,0.5292,0,9,9,2,1,聪明,e,,,,,,,,,,,,,,,,,,,,,,,,,,,,,,,,,,,,,,,,,,,,,,,,,,,,,
,,,,,,,,,,,,,1,001,2024-09-01_22h31.34.002,IAT(Formal),2021.2.3,Win32,19.81218053,,,,i,1,0.6399,0,10,10,36,1,野蛮,i,,,,,,,,,,,,,,,,,,,,,,,,,,,,,,,,,,,,,,,,,,,,,,,,,,,,,
,,,,,,,,,,,,,1,001,2024-09-01_22h31.34.002,IAT(Formal),2021.2.3,Win32,19.81218053,,,,e,1,0.6286,0,11,11,8,1,勤奋,e,,,,,,,,,,,,,,,,,,,,,,,,,,,,,,,,,,,,,,,,,,,,,,,,,,,,,
,,,,,,,,,,,,,1,001,2024-09-01_22h31.34.002,IAT(Formal),2021.2.3,Win32,19.81218053,,,,e,1,0.5839,0,12,12,6,1,正直,e,,,,,,,,,,,,,,,,,,,,,,,,,,,,,,,,,,,,,,,,,,,,,,,,,,,,,
,,,,,,,,,,,,,1,001,2024-09-01_22h31.34.002,IAT(Formal),2021.2.3,Win32,19.81218053,,,,e,1,0.5316,0,13,13,7,1,勇敢,e,,,,,,,,,,,,,,,,,,,,,,,,,,,,,,,,,,,,,,,,,,,,,,,,,,,,,
,,,,,,,,,,,,,1,001,2024-09-01_22h31.34.002,IAT(Formal),2021.2.3,Win32,19.81218053,,,,e,1,0.4899,0,14,14,10,1,认真,e,,,,,,,,,,,,,,,,,,,,,,,,,,,,,,,,,,,,,,,,,,,,,,,,,,,,,
,,,,,,,,,,,,,1,001,2024-09-01_22h31.34.002,IAT(Formal),2021.2.3,Win32,19.81218053,,,,i,1,0.5063,0,15,15,22,1,愚蠢,i,,,,,,,,,,,,,,,,,,,,,,,,,,,,,,,,,,,,,,,,,,,,,,,,,,,,,
,,,,,,,,,,,,,1,001,2024-09-01_22h31.34.002,IAT(Formal),2021.2.3,Win32,19.81218053,,,,e,1,0.5714,0,16,16,13,1,公正,e,,,,,,,,,,,,,,,,,,,,,,,,,,,,,,,,,,,,,,,,,,,,,,,,,,,,,
,,,,,,,,,,,,,1,001,2024-09-01_22h31.34.002,IAT(Formal),2021.2.3,Win32,19.81218053,,,,e,1,0.6602,0,17,17,16,1,冷静,e,,,,,,,,,,,,,,,,,,,,,,,,,,,,,,,,,,,,,,,,,,,,,,,,,,,,,
,,,,,,,,,,,,,1,001,2024-09-01_22h31.34.002,IAT(Formal),2021.2.3,Win32,19.81218053,,,,e,1,0.5297,0,18,18,4,1,乐观,e,,,,,,,,,,,,,,,,,,,,,,,,,,,,,,,,,,,,,,,,,,,,,,,,,,,,,
,,,,,,,,,,,,,1,001,2024-09-01_22h31.34.002,IAT(Formal),2021.2.3,Win32,19.81218053,,,,e,1,0.4929,0,19,19,18,1,活泼,e,,,,,,,,,,,,,,,,,,,,,,,,,,,,,,,,,,,,,,,,,,,,,,,,,,,,,
,,,,,,,,,,,,,1,001,2024-09-01_22h31.34.002,IAT(Formal),2021.2.3,Win32,19.81218053,,,,i,1,0.5751,0,20,20,24,1,悲观,i,,,,,,,,,,,,,,,,,,,,,,,,,,,,,,,,,,,,,,,,,,,,,,,,,,,,,
,,,,,,,,,,,,,1,001,2024-09-01_22h31.34.002,IAT(Formal),2021.2.3,Win32,19.81218053,,,,i,1,0.5442,0,21,21,34,1,暴躁,i,,,,,,,,,,,,,,,,,,,,,,,,,,,,,,,,,,,,,,,,,,,,,,,,,,,,,
,,,,,,,,,,,,,1,001,2024-09-01_22h31.34.002,IAT(Formal),2021.2.3,Win32,19.81218053,,,,i,1,0.4527,0,22,22,32,1,凶狠,i,,,,,,,,,,,,,,,,,,,,,,,,,,,,,,,,,,,,,,,,,,,,,,,,,,,,,
,,,,,,,,,,,,,1,001,2024-09-01_22h31.34.002,IAT(Formal),2021.2.3,Win32,19.81218053,,,,e,1,0.6041,0,23,23,5,1,诚实,e,,,,,,,,,,,,,,,,,,,,,,,,,,,,,,,,,,,,,,,,,,,,,,,,,,,,,
,,,,,,,,,,,,,1,001,2024-09-01_22h31.34.002,IAT(Formal),2021.2.3,Win32,19.81218053,,,,e,1,0.4827,0,24,24,15,1,细腻,e,,,,,,,,,,,,,,,,,,,,,,,,,,,,,,,,,,,,,,,,,,,,,,,,,,,,,
,,,,,,,,,,,,,1,001,2024-09-01_22h31.34.002,IAT(Formal),2021.2.3,Win32,19.81218053,,,,i,1,0.4983,0,25,25,25,1,消极,i,,,,,,,,,,,,,,,,,,,,,,,,,,,,,,,,,,,,,,,,,,,,,,,,,,,,,
,,,,,,,,,,,,,1,001,2024-09-01_22h31.34.002,IAT(Formal),2021.2.3,Win32,19.81218053,,,,e,1,0.7268,0,26,26,0,1,优秀,e,,,,,,,,,,,,,,,,,,,,,,,,,,,,,,,,,,,,,,,,,,,,,,,,,,,,,
,,,,,,,,,,,,,1,001,2024-09-01_22h31.34.002,IAT(Formal),2021.2.3,Win32,19.81218053,,,,i,1,0.6522,0,27,27,38,1,轻率,i,,,,,,,,,,,,,,,,,,,,,,,,,,,,,,,,,,,,,,,,,,,,,,,,,,,,,
,,,,,,,,,,,,,1,001,2024-09-01_22h31.34.002,IAT(Formal),2021.2.3,Win32,19.81218053,,,,i,1,0.4882,0,28,28,35,1,猖狂,i,,,,,,,,,,,,,,,,,,,,,,,,,,,,,,,,,,,,,,,,,,,,,,,,,,,,,
,,,,,,,,,,,,,1,001,2024-09-01_22h31.34.002,IAT(Formal),2021.2.3,Win32,19.81218053,,,,i,1,0.5614,0,29,29,37,1,固执,i,,,,,,,,,,,,,,,,,,,,,,,,,,,,,,,,,,,,,,,,,,,,,,,,,,,,,
,,,,,,,,,,,,,1,001,2024-09-01_22h31.34.002,IAT(Formal),2021.2.3,Win32,19.81218053,,,,i,1,0.7038,0,30,30,20,1,卑鄙,i,,,,,,,,,,,,,,,,,,,,,,,,,,,,,,,,,,,,,,,,,,,,,,,,,,,,,
,,,,,,,,,,,,,1,001,2024-09-01_22h31.34.002,IAT(Formal),2021.2.3,Win32,19.81218053,,,,e,1,0.561,0,31,31,17,1,热情,e,,,,,,,,,,,,,,,,,,,,,,,,,,,,,,,,,,,,,,,,,,,,,,,,,,,,,
,,,,,,,,,,,,,1,001,2024-09-01_22h31.34.002,IAT(Formal),2021.2.3,Win32,19.81218053,,,,i,1,0.5675,0,32,32,29,1,冒失,i,,,,,,,,,,,,,,,,,,,,,,,,,,,,,,,,,,,,,,,,,,,,,,,,,,,,,
,,,,,,,,,,,,,1,001,2024-09-01_22h31.34.002,IAT(Formal),2021.2.3,Win32,19.81218053,,,,i,1,0.6188,0,33,33,21,1,虚伪,i,,,,,,,,,,,,,,,,,,,,,,,,,,,,,,,,,,,,,,,,,,,,,,,,,,,,,
,,,,,,,,,,,,,1,001,2024-09-01_22h31.34.002,IAT(Formal),2021.2.3,Win32,19.81218053,,,,i,1,0.5509,0,34,34,26,1,自卑,i,,,,,,,,,,,,,,,,,,,,,,,,,,,,,,,,,,,,,,,,,,,,,,,,,,,,,
,,,,,,,,,,,,,1,001,2024-09-01_22h31.34.002,IAT(Formal),2021.2.3,Win32,19.81218053,,,,i,1,0.647,0,35,35,31,1,散漫,i,,,,,,,,,,,,,,,,,,,,,,,,,,,,,,,,,,,,,,,,,,,,,,,,,,,,,
,,,,,,,,,,,,,1,001,2024-09-01_22h31.34.002,IAT(Formal),2021.2.3,Win32,19.81218053,,,,i,1,0.5714,0,36,36,28,1,鲁莽,i,,,,,,,,,,,,,,,,,,,,,,,,,,,,,,,,,,,,,,,,,,,,,,,,,,,,,
,,,,,,,,,,,,,1,001,2024-09-01_22h31.34.002,IAT(Formal),2021.2.3,Win32,19.81218053,,,,e,1,0.7132,0,37,37,1,1,崇高,e,,,,,,,,,,,,,,,,,,,,,,,,,,,,,,,,,,,,,,,,,,,,,,,,,,,,,
,,,,,,,,,,,,,1,001,2024-09-01_22h31.34.002,IAT(Formal),2021.2.3,Win32,19.81218053,,,,i,1,0.5505,0,38,38,33,1,自私,i,,,,,,,,,,,,,,,,,,,,,,,,,,,,,,,,,,,,,,,,,,,,,,,,,,,,,
,,,,,,,,,,,,,1,001,2024-09-01_22h31.34.002,IAT(Formal),2021.2.3,Win32,19.81218053,,,,e,1,0.5255,0,39,39,3,1,杰出,e,,,,,,,,,,,,,,,,,,,,,,,,,,,,,,,,,,,,,,,,,,,,,,,,,,,,,
,,,,,,,,,,,,,1,001,2024-09-01_22h31.34.002,IAT(Formal),2021.2.3,Win32,19.81218053,,,,,,,,,,,,,,space,14.1427,e,1,0.5681,0,0,0,21,1,稳重,e,,,,,,,,,,,,,,,,,,,,,,,,,,,,,,,,,,,,,,,,,
,,,,,,,,,,,,,1,001,2024-09-01_22h31.34.002,IAT(Formal),2021.2.3,Win32,19.81218053,,,,,,,,,,,,,,,,e,1,0.4845,0,1,1,20,1,认真,e,,,,,,,,,,,,,,,,,,,,,,,,,,,,,,,,,,,,,,,,,
,,,,,,,,,,,,,1,001,2024-09-01_22h31.34.002,IAT(Formal),2021.2.3,Win32,19.81218053,,,,,,,,,,,,,,,,i,1,0.7236,0,2,2,69,1,其他,i,,,,,,,,,,,,,,,,,,,,,,,,,,,,,,,,,,,,,,,,,
,,,,,,,,,,,,,1,001,2024-09-01_22h31.34.002,IAT(Formal),2021.2.3,Win32,19.81218053,,,,,,,,,,,,,,,,i,1,0.7681,0,3,3,75,1,他,i,,,,,,,,,,,,,,,,,,,,,,,,,,,,,,,,,,,,,,,,,
,,,,,,,,,,,,,1,001,2024-09-01_22h31.34.002,IAT(Formal),2021.2.3,Win32,19.81218053,,,,,,,,,,,,,,,,i,1,0.7222,0,4,4,33,1,刻薄,i,,,,,,,,,,,,,,,,,,,,,,,,,,,,,,,,,,,,,,,,,
,,,,,,,,,,,,,1,001,2024-09-01_22h31.34.002,IAT(Formal),2021.2.3,Win32,19.81218053,,,,,,,,,,,,,,,,e,1,0.611,0,5,5,13,1,杰出,e,,,,,,,,,,,,,,,,,,,,,,,,,,,,,,,,,,,,,,,,,
,,,,,,,,,,,,,1,001,2024-09-01_22h31.34.002,IAT(Formal),2021.2.3,Win32,19.81218053,,,,,,,,,,,,,,,,i,1,0.6628,0,6,6,43,1,自私,i,,,,,,,,,,,,,,,,,,,,,,,,,,,,,,,,,,,,,,,,,
,,,,,,,,,,,,,1,001,2024-09-01_22h31.34.002,IAT(Formal),2021.2.3,Win32,19.81218053,,,,,,,,,,,,,,,,i,1,0.6412,0,7,7,30,1,卑鄙,i,,,,,,,,,,,,,,,,,,,,,,,,,,,,,,,,,,,,,,,,,
,,,,,,,,,,,,,1,001,2024-09-01_22h31.34.002,IAT(Formal),2021.2.3,Win32,19.81218053,,,,,,,,,,,,,,,,e,1,0.5913,0,8,8,14,1,乐观,e,,,,,,,,,,,,,,,,,,,,,,,,,,,,,,,,,,,,,,,,,
,,,,,,,,,,,,,1,001,2024-09-01_22h31.34.002,IAT(Formal),2021.2.3,Win32,19.81218053,,,,,,,,,,,,,,,,i,1,0.5954,0,9,9,42,1,凶狠,i,,,,,,,,,,,,,,,,,,,,,,,,,,,,,,,,,,,,,,,,,
,,,,,,,,,,,,,1,001,2024-09-01_22h31.34.002,IAT(Formal),2021.2.3,Win32,19.81218053,,,,,,,,,,,,,,,,i,1,0.6555,0,10,10,45,1,猖狂,i,,,,,,,,,,,,,,,,,,,,,,,,,,,,,,,,,,,,,,,,,
,,,,,,,,,,,,,1,001,2024-09-01_22h31.34.002,IAT(Formal),2021.2.3,Win32,19.81218053,,,,,,,,,,,,,,,,e,1,0.5423,0,11,11,11,1,崇高,e,,,,,,,,,,,,,,,,,,,,,,,,,,,,,,,,,,,,,,,,,
,,,,,,,,,,,,,1,001,2024-09-01_22h31.34.002,IAT(Formal),2021.2.3,Win32,19.81218053,,,,,,,,,,,,,,,,i,1,0.6086,0,12,12,55,1,他,i,,,,,,,,,,,,,,,,,,,,,,,,,,,,,,,,,,,,,,,,,
,,,,,,,,,,,,,1,001,2024-09-01_22h31.34.002,IAT(Formal),2021.2.3,Win32,19.81218053,,,,,,,,,,,,,,,,i,1,0.5698,0,13,13,49,1,下贱,i,,,,,,,,,,,,,,,,,,,,,,,,,,,,,,,,,,,,,,,,,
,,,,,,,,,,,,,1,001,2024-09-01_22h31.34.002,IAT(Formal),2021.2.3,Win32,19.81218053,,,,,,,,,,,,,,,,i,1,0.762,0,14,14,41,1,散漫,i,,,,,,,,,,,,,,,,,,,,,,,,,,,,,,,,,,,,,,,,,
,,,,,,,,,,,,,1,001,2024-09-01_22h31.34.002,IAT(Formal),2021.2.3,Win32,19.81218053,,,,,,,,,,,,,,,,i,1,0.8494,0,15,15,48,1,轻率,i,,,,,,,,,,,,,,,,,,,,,,,,,,,,,,,,,,,,,,,,,
,,,,,,,,,,,,,1,001,2024-09-01_22h31.34.002,IAT(Formal),2021.2.3,Win32,19.81218053,,,,,,,,,,,,,,,,e,1,0.5109,0,16,16,15,1,诚实,e,,,,,,,,,,,,,,,,,,,,,,,,,,,,,,,,,,,,,,,,,
,,,,,,,,,,,,,1,001,2024-09-01_22h31.34.002,IAT(Formal),2021.2.3,Win32,19.81218053,,,,,,,,,,,,,,,,i,1,0.5659,0,17,17,38,1,鲁莽,i,,,,,,,,,,,,,,,,,,,,,,,,,,,,,,,,,,,,,,,,,
,,,,,,,,,,,,,1,001,2024-09-01_22h31.34.002,IAT(Formal),2021.2.3,Win32,19.81218053,,,,,,,,,,,,,,,,i,1,0.6117,0,18,18,34,1,悲观,i,,,,,,,,,,,,,,,,,,,,,,,,,,,,,,,,,,,,,,,,,
,,,,,,,,,,,,,1,001,2024-09-01_22h31.34.002,IAT(Formal),2021.2.3,Win32,19.81218053,,,,,,,,,,,,,,,,e,1,1.0974,0,19,19,26,1,冷静,e,,,,,,,,,,,,,,,,,,,,,,,,,,,,,,,,,,,,,,,,,
,,,,,,,,,,,,,1,001,2024-09-01_22h31.34.002,IAT(Formal),2021.2.3,Win32,19.81218053,,,,,,,,,,,,,,,,i,1,0.6031,0,20,20,37,1,傲慢,i,,,,,,,,,,,,,,,,,,,,,,,,,,,,,,,,,,,,,,,,,
,,,,,,,,,,,,,1,001,2024-09-01_22h31.34.002,IAT(Formal),2021.2.3,Win32,19.81218053,,,,,,,,,,,,,,,,i,1,0.6878,0,21,21,8,1,他人,i,,,,,,,,,,,,,,,,,,,,,,,,,,,,,,,,,,,,,,,,,
,,,,,,,,,,,,,1,001,2024-09-01_22h31.34.002,IAT(Formal),2021.2.3,Win32,19.81218053,,,,,,,,,,,,,,,,i,1,0.5969,0,22,22,79,1,其他,i,,,,,,,,,,,,,,,,,,,,,,,,,,,,,,,,,,,,,,,,,
,,,,,,,,,,,,,1,001,2024-09-01_22h31.34.002,IAT(Formal),2021.2.3,Win32,19.81218053,,,,,,,,,,,,,,,,e,1,0.5825,0,23,23,70,1,我,e,,,,,,,,,,,,,,,,,,,,,,,,,,,,,,,,,,,,,,,,,
,,,,,,,,,,,,,1,001,2024-09-01_22h31.34.002,IAT(Formal),2021.2.3,Win32,19.81218053,,,,,,,,,,,,,,,,i,1,0.6671,0,24,24,31,1,虚伪,i,,,,,,,,,,,,,,,,,,,,,,,,,,,,,,,,,,,,,,,,,
,,,,,,,,,,,,,1,001,2024-09-01_22h31.34.002,IAT(Formal),2021.2.3,Win32,19.81218053,,,,,,,,,,,,,,,,e,1,0.6631,0,25,25,24,1,朴实,e,,,,,,,,,,,,,,,,,,,,,,,,,,,,,,,,,,,,,,,,,
,,,,,,,,,,,,,1,001,2024-09-01_22h31.34.002,IAT(Formal),2021.2.3,Win32,19.81218053,,,,,,,,,,,,,,,,e,1,0.5939,0,26,26,71,1,我的,e,,,,,,,,,,,,,,,,,,,,,,,,,,,,,,,,,,,,,,,,,
,,,,,,,,,,,,,1,001,2024-09-01_22h31.34.002,IAT(Formal),2021.2.3,Win32,19.81218053,,,,,,,,,,,,,,,,e,1,0.4711,0,27,27,50,1,我,e,,,,,,,,,,,,,,,,,,,,,,,,,,,,,,,,,,,,,,,,,
,,,,,,,,,,,,,1,001,2024-09-01_22h31.34.002,IAT(Formal),2021.2.3,Win32,19.81218053,,,,,,,,,,,,,,,,e,1,0.6379,0,28,28,27,1,热情,e,,,,,,,,,,,,,,,,,,,,,,,,,,,,,,,,,,,,,,,,,
,,,,,,,,,,,,,1,001,2024-09-01_22h31.34.002,IAT(Formal),2021.2.3,Win32,19.81218053,,,,,,,,,,,,,,,,i,1,0.5034,0,29,29,78,1,他人,i,,,,,,,,,,,,,,,,,,,,,,,,,,,,,,,,,,,,,,,,,
,,,,,,,,,,,,,1,001,2024-09-01_22h31.34.002,IAT(Formal),2021.2.3,Win32,19.81218053,,,,,,,,,,,,,,,,e,1,0.5813,0,30,30,53,1,自己,e,,,,,,,,,,,,,,,,,,,,,,,,,,,,,,,,,,,,,,,,,
,,,,,,,,,,,,,1,001,2024-09-01_22h31.34.002,IAT(Formal),2021.2.3,Win32,19.81218053,,,,,,,,,,,,,,,,e,1,0.5746,0,31,31,72,1,我们,e,,,,,,,,,,,,,,,,,,,,,,,,,,,,,,,,,,,,,,,,,
,,,,,,,,,,,,,1,001,2024-09-01_22h31.34.002,IAT(Formal),2021.2.3,Win32,19.81218053,,,,,,,,,,,,,,,,e,1,0.4837,0,32,32,51,1,我的,e,,,,,,,,,,,,,,,,,,,,,,,,,,,,,,,,,,,,,,,,,
,,,,,,,,,,,,,1,001,2024-09-01_22h31.34.002,IAT(Formal),2021.2.3,Win32,19.81218053,,,,,,,,,,,,,,,,e,1,0.5783,0,33,33,12,1,聪明,e,,,,,,,,,,,,,,,,,,,,,,,,,,,,,,,,,,,,,,,,,
,,,,,,,,,,,,,1,001,2024-09-01_22h31.34.002,IAT(Formal),2021.2.3,Win32,19.81218053,,,,,,,,,,,,,,,,e,1,0.5569,0,34,34,74,1,俺,e,,,,,,,,,,,,,,,,,,,,,,,,,,,,,,,,,,,,,,,,,
,,,,,,,,,,,,,1,001,2024-09-01_22h31.34.002,IAT(Formal),2021.2.3,Win32,19.81218053,,,,,,,,,,,,,,,,e,1,0.5319,0,35,35,10,1,优秀,e,,,,,,,,,,,,,,,,,,,,,,,,,,,,,,,,,,,,,,,,,
,,,,,,,,,,,,,1,001,2024-09-01_22h31.34.002,IAT(Formal),2021.2.3,Win32,19.81218053,,,,,,,,,,,,,,,,e,1,0.5836,0,36,36,18,1,勤奋,e,,,,,,,,,,,,,,,,,,,,,,,,,,,,,,,,,,,,,,,,,
,,,,,,,,,,,,,1,001,2024-09-01_22h31.34.002,IAT(Formal),2021.2.3,Win32,19.81218053,,,,,,,,,,,,,,,,i,1,0.594,0,37,37,67,1,他的,i,,,,,,,,,,,,,,,,,,,,,,,,,,,,,,,,,,,,,,,,,
,,,,,,,,,,,,,1,001,2024-09-01_22h31.34.002,IAT(Formal),2021.2.3,Win32,19.81218053,,,,,,,,,,,,,,,,e,1,0.5961,0,38,38,3,1,自己,e,,,,,,,,,,,,,,,,,,,,,,,,,,,,,,,,,,,,,,,,,
,,,,,,,,,,,,,1,001,2024-09-01_22h31.34.002,IAT(Formal),2021.2.3,Win32,19.81218053,,,,,,,,,,,,,,,,e,1,0.544,0,39,39,63,1,自己,e,,,,,,,,,,,,,,,,,,,,,,,,,,,,,,,,,,,,,,,,,
,,,,,,,,,,,,,1,001,2024-09-01_22h31.34.002,IAT(Formal),2021.2.3,Win32,19.81218053,,,,,,,,,,,,,,,,e,1,0.5312,0,40,40,22,1,无私,e,,,,,,,,,,,,,,,,,,,,,,,,,,,,,,,,,,,,,,,,,
,,,,,,,,,,,,,1,001,2024-09-01_22h31.34.002,IAT(Formal),2021.2.3,Win32,19.81218053,,,,,,,,,,,,,,,,i,1,0.6165,0,41,41,65,1,他,i,,,,,,,,,,,,,,,,,,,,,,,,,,,,,,,,,,,,,,,,,
,,,,,,,,,,,,,1,001,2024-09-01_22h31.34.002,IAT(Formal),2021.2.3,Win32,19.81218053,,,,,,,,,,,,,,,,e,1,0.489,0,42,42,52,1,我们,e,,,,,,,,,,,,,,,,,,,,,,,,,,,,,,,,,,,,,,,,,
,,,,,,,,,,,,,1,001,2024-09-01_22h31.34.002,IAT(Formal),2021.2.3,Win32,19.81218053,,,,,,,,,,,,,,,,i,1,0.6334,0,43,43,39,1,冒失,i,,,,,,,,,,,,,,,,,,,,,,,,,,,,,,,,,,,,,,,,,
,,,,,,,,,,,,,1,001,2024-09-01_22h31.34.002,IAT(Formal),2021.2.3,Win32,19.81218053,,,,,,,,,,,,,,,,i,1,0.576,0,44,44,46,1,野蛮,i,,,,,,,,,,,,,,,,,,,,,,,,,,,,,,,,,,,,,,,,,
,,,,,,,,,,,,,1,001,2024-09-01_22h31.34.002,IAT(Formal),2021.2.3,Win32,19.81218053,,,,,,,,,,,,,,,,e,0,0.5168,0,45,45,5,1,他,i,,,,,,,,,,,,,,,,,,,,,,,,,,,,,,,,,,,,,,,,,
,,,,,,,,,,,,,1,001,2024-09-01_22h31.34.002,IAT(Formal),2021.2.3,Win32,19.81218053,,,,,,,,,,,,,,,,i,1,0.677,0,46,46,66,1,他们,i,,,,,,,,,,,,,,,,,,,,,,,,,,,,,,,,,,,,,,,,,
,,,,,,,,,,,,,1,001,2024-09-01_22h31.34.002,IAT(Formal),2021.2.3,Win32,19.81218053,,,,,,,,,,,,,,,,i,1,0.6413,0,47,47,77,1,他的,i,,,,,,,,,,,,,,,,,,,,,,,,,,,,,,,,,,,,,,,,,
,,,,,,,,,,,,,1,001,2024-09-01_22h31.34.002,IAT(Formal),2021.2.3,Win32,19.81218053,,,,,,,,,,,,,,,,e,1,0.6506,0,48,48,2,1,我们,e,,,,,,,,,,,,,,,,,,,,,,,,,,,,,,,,,,,,,,,,,
,,,,,,,,,,,,,1,001,2024-09-01_22h31.34.002,IAT(Formal),2021.2.3,Win32,19.81218053,,,,,,,,,,,,,,,,i,1,0.6692,0,49,49,47,1,固执,i,,,,,,,,,,,,,,,,,,,,,,,,,,,,,,,,,,,,,,,,,
,,,,,,,,,,,,,1,001,2024-09-01_22h31.34.002,IAT(Formal),2021.2.3,Win32,19.81218053,,,,,,,,,,,,,,,,e,1,0.5798,0,50,50,54,1,俺,e,,,,,,,,,,,,,,,,,,,,,,,,,,,,,,,,,,,,,,,,,
,,,,,,,,,,,,,1,001,2024-09-01_22h31.34.002,IAT(Formal),2021.2.3,Win32,19.81218053,,,,,,,,,,,,,,,,i,1,0.643,0,51,51,44,1,暴躁,i,,,,,,,,,,,,,,,,,,,,,,,,,,,,,,,,,,,,,,,,,
,,,,,,,,,,,,,1,001,2024-09-01_22h31.34.002,IAT(Formal),2021.2.3,Win32,19.81218053,,,,,,,,,,,,,,,,e,1,0.5805,0,52,52,1,1,我的,e,,,,,,,,,,,,,,,,,,,,,,,,,,,,,,,,,,,,,,,,,
,,,,,,,,,,,,,1,001,2024-09-01_22h31.34.002,IAT(Formal),2021.2.3,Win32,19.81218053,,,,,,,,,,,,,,,,e,1,0.5691,0,53,53,62,1,我们,e,,,,,,,,,,,,,,,,,,,,,,,,,,,,,,,,,,,,,,,,,
,,,,,,,,,,,,,1,001,2024-09-01_22h31.34.002,IAT(Formal),2021.2.3,Win32,19.81218053,,,,,,,,,,,,,,,,i,1,0.6435,0,54,54,9,1,其他,i,,,,,,,,,,,,,,,,,,,,,,,,,,,,,,,,,,,,,,,,,
,,,,,,,,,,,,,1,001,2024-09-01_22h31.34.002,IAT(Formal),2021.2.3,Win32,19.81218053,,,,,,,,,,,,,,,,i,1,0.6348,0,55,55,76,1,他们,i,,,,,,,,,,,,,,,,,,,,,,,,,,,,,,,,,,,,,,,,,
,,,,,,,,,,,,,1,001,2024-09-01_22h31.34.002,IAT(Formal),2021.2.3,Win32,19.81218053,,,,,,,,,,,,,,,,e,1,0.588,0,56,56,61,1,我的,e,,,,,,,,,,,,,,,,,,,,,,,,,,,,,,,,,,,,,,,,,
,,,,,,,,,,,,,1,001,2024-09-01_22h31.34.002,IAT(Formal),2021.2.3,Win32,19.81218053,,,,,,,,,,,,,,,,i,1,0.5533,0,57,57,6,1,他们,i,,,,,,,,,,,,,,,,,,,,,,,,,,,,,,,,,,,,,,,,,
,,,,,,,,,,,,,1,001,2024-09-01_22h31.34.002,IAT(Formal),2021.2.3,Win32,19.81218053,,,,,,,,,,,,,,,,e,1,0.7261,0,58,58,29,1,诚恳,e,,,,,,,,,,,,,,,,,,,,,,,,,,,,,,,,,,,,,,,,,
,,,,,,,,,,,,,1,001,2024-09-01_22h31.34.002,IAT(Formal),2021.2.3,Win32,19.81218053,,,,,,,,,,,,,,,,e,1,0.4352,0,59,59,60,1,我,e,,,,,,,,,,,,,,,,,,,,,,,,,,,,,,,,,,,,,,,,,
,,,,,,,,,,,,,1,001,2024-09-01_22h31.34.002,IAT(Formal),2021.2.3,Win32,19.81218053,,,,,,,,,,,,,,,,i,1,0.5488,0,60,60,32,1,愚蠢,i,,,,,,,,,,,,,,,,,,,,,,,,,,,,,,,,,,,,,,,,,
,,,,,,,,,,,,,1,001,2024-09-01_22h31.34.002,IAT(Formal),2021.2.3,Win32,19.81218053,,,,,,,,,,,,,,,,i,1,0.5983,0,61,61,35,1,消极,i,,,,,,,,,,,,,,,,,,,,,,,,,,,,,,,,,,,,,,,,,
,,,,,,,,,,,,,1,001,2024-09-01_22h31.34.002,IAT(Formal),2021.2.3,Win32,19.81218053,,,,,,,,,,,,,,,,e,1,0.7597,0,62,62,23,1,公正,e,,,,,,,,,,,,,,,,,,,,,,,,,,,,,,,,,,,,,,,,,
,,,,,,,,,,,,,1,001,2024-09-01_22h31.34.002,IAT(Formal),2021.2.3,Win32,19.81218053,,,,,,,,,,,,,,,,e,1,0.5678,0,63,63,19,1,机智,e,,,,,,,,,,,,,,,,,,,,,,,,,,,,,,,,,,,,,,,,,
,,,,,,,,,,,,,1,001,2024-09-01_22h31.34.002,IAT(Formal),2021.2.3,Win32,19.81218053,,,,,,,,,,,,,,,,e,1,0.5715,0,64,64,73,1,自己,e,,,,,,,,,,,,,,,,,,,,,,,,,,,,,,,,,,,,,,,,,
,,,,,,,,,,,,,1,001,2024-09-01_22h31.34.002,IAT(Formal),2021.2.3,Win32,19.81218053,,,,,,,,,,,,,,,,i,1,0.5548,0,65,65,56,1,他们,i,,,,,,,,,,,,,,,,,,,,,,,,,,,,,,,,,,,,,,,,,
,,,,,,,,,,,,,1,001,2024-09-01_22h31.34.002,IAT(Formal),2021.2.3,Win32,19.81218053,,,,,,,,,,,,,,,,i,1,0.6286,0,66,66,40,1,执拗,i,,,,,,,,,,,,,,,,,,,,,,,,,,,,,,,,,,,,,,,,,
,,,,,,,,,,,,,1,001,2024-09-01_22h31.34.002,IAT(Formal),2021.2.3,Win32,19.81218053,,,,,,,,,,,,,,,,e,1,0.7727,0,67,67,17,1,勇敢,e,,,,,,,,,,,,,,,,,,,,,,,,,,,,,,,,,,,,,,,,,
,,,,,,,,,,,,,1,001,2024-09-01_22h31.34.002,IAT(Formal),2021.2.3,Win32,19.81218053,,,,,,,,,,,,,,,,i,1,0.6189,0,68,68,36,1,自卑,i,,,,,,,,,,,,,,,,,,,,,,,,,,,,,,,,,,,,,,,,,
,,,,,,,,,,,,,1,001,2024-09-01_22h31.34.002,IAT(Formal),2021.2.3,Win32,19.81218053,,,,,,,,,,,,,,,,i,1,0.7446,0,69,69,58,1,他人,i,,,,,,,,,,,,,,,,,,,,,,,,,,,,,,,,,,,,,,,,,
,,,,,,,,,,,,,1,001,2024-09-01_22h31.34.002,IAT(Formal),2021.2.3,Win32,19.81218053,,,,,,,,,,,,,,,,i,1,0.5733,0,70,70,57,1,他的,i,,,,,,,,,,,,,,,,,,,,,,,,,,,,,,,,,,,,,,,,,
,,,,,,,,,,,,,1,001,2024-09-01_22h31.34.002,IAT(Formal),2021.2.3,Win32,19.81218053,,,,,,,,,,,,,,,,e,1,0.4988,0,71,71,0,1,我,e,,,,,,,,,,,,,,,,,,,,,,,,,,,,,,,,,,,,,,,,,
,,,,,,,,,,,,,1,001,2024-09-01_22h31.34.002,IAT(Formal),2021.2.3,Win32,19.81218053,,,,,,,,,,,,,,,,e,1,0.6453,0,72,72,25,1,细腻,e,,,,,,,,,,,,,,,,,,,,,,,,,,,,,,,,,,,,,,,,,
,,,,,,,,,,,,,1,001,2024-09-01_22h31.34.002,IAT(Formal),2021.2.3,Win32,19.81218053,,,,,,,,,,,,,,,,e,1,0.6697,0,73,73,4,1,俺,e,,,,,,,,,,,,,,,,,,,,,,,,,,,,,,,,,,,,,,,,,
,,,,,,,,,,,,,1,001,2024-09-01_22h31.34.002,IAT(Formal),2021.2.3,Win32,19.81218053,,,,,,,,,,,,,,,,i,1,0.5051,0,74,74,59,1,其他,i,,,,,,,,,,,,,,,,,,,,,,,,,,,,,,,,,,,,,,,,,
,,,,,,,,,,,,,1,001,2024-09-01_22h31.34.002,IAT(Formal),2021.2.3,Win32,19.81218053,,,,,,,,,,,,,,,,e,1,0.571,0,75,75,28,1,活泼,e,,,,,,,,,,,,,,,,,,,,,,,,,,,,,,,,,,,,,,,,,
,,,,,,,,,,,,,1,001,2024-09-01_22h31.34.002,IAT(Formal),2021.2.3,Win32,19.81218053,,,,,,,,,,,,,,,,i,1,0.5257,0,76,76,7,1,他的,i,,,,,,,,,,,,,,,,,,,,,,,,,,,,,,,,,,,,,,,,,
,,,,,,,,,,,,,1,001,2024-09-01_22h31.34.002,IAT(Formal),2021.2.3,Win32,19.81218053,,,,,,,,,,,,,,,,i,1,0.5211,0,77,77,68,1,他人,i,,,,,,,,,,,,,,,,,,,,,,,,,,,,,,,,,,,,,,,,,
,,,,,,,,,,,,,1,001,2024-09-01_22h31.34.002,IAT(Formal),2021.2.3,Win32,19.81218053,,,,,,,,,,,,,,,,e,1,0.5982,0,78,78,64,1,俺,e,,,,,,,,,,,,,,,,,,,,,,,,,,,,,,,,,,,,,,,,,
,,,,,,,,,,,,,1,001,2024-09-01_22h31.34.002,IAT(Formal),2021.2.3,Win32,19.81218053,,,,,,,,,,,,,,,,e,1,0.5602,0,79,79,16,1,正直,e,,,,,,,,,,,,,,,,,,,,,,,,,,,,,,,,,,,,,,,,,
,,,,,,,,,,,,,1,001,2024-09-01_22h31.34.002,IAT(Formal),2021.2.3,Win32,19.81218053,,,,,,,,,,,,,,,,i,1,0.6105,,,,,,冒失,i,space,7.2622,0,0,0,39,1,,,,,,,,,,,,,,,,,,,,,,,,,,,,,,,,,,
,,,,,,,,,,,,,1,001,2024-09-01_22h31.34.002,IAT(Formal),2021.2.3,Win32,19.81218053,,,,,,,,,,,,,,,,i,1,0.5025,,,,,,猖狂,i,,,0,1,1,45,1,,,,,,,,,,,,,,,,,,,,,,,,,,,,,,,,,,
,,,,,,,,,,,,,1,001,2024-09-01_22h31.34.002,IAT(Formal),2021.2.3,Win32,19.81218053,,,,,,,,,,,,,,,,i,1,0.4507,,,,,,卑鄙,i,,,0,2,2,30,1,,,,,,,,,,,,,,,,,,,,,,,,,,,,,,,,,,
,,,,,,,,,,,,,1,001,2024-09-01_22h31.34.002,IAT(Formal),2021.2.3,Win32,19.81218053,,,,,,,,,,,,,,,,e,1,0.5697,,,,,,杰出,e,,,0,3,3,13,1,,,,,,,,,,,,,,,,,,,,,,,,,,,,,,,,,,
,,,,,,,,,,,,,1,001,2024-09-01_22h31.34.002,IAT(Formal),2021.2.3,Win32,19.81218053,,,,,,,,,,,,,,,,i,1,0.69,,,,,,他的,i,,,0,4,4,67,1,,,,,,,,,,,,,,,,,,,,,,,,,,,,,,,,,,
,,,,,,,,,,,,,1,001,2024-09-01_22h31.34.002,IAT(Formal),2021.2.3,Win32,19.81218053,,,,,,,,,,,,,,,,i,1,0.9432,,,,,,傲慢,i,,,0,5,5,37,1,,,,,,,,,,,,,,,,,,,,,,,,,,,,,,,,,,
,,,,,,,,,,,,,1,001,2024-09-01_22h31.34.002,IAT(Formal),2021.2.3,Win32,19.81218053,,,,,,,,,,,,,,,,e,1,0.572,,,,,,俺,e,,,0,6,6,74,1,,,,,,,,,,,,,,,,,,,,,,,,,,,,,,,,,,
,,,,,,,,,,,,,1,001,2024-09-01_22h31.34.002,IAT(Formal),2021.2.3,Win32,19.81218053,,,,,,,,,,,,,,,,i,1,0.5392,,,,,,他们,i,,,0,7,7,66,1,,,,,,,,,,,,,,,,,,,,,,,,,,,,,,,,,,
,,,,,,,,,,,,,1,001,2024-09-01_22h31.34.002,IAT(Formal),2021.2.3,Win32,19.81218053,,,,,,,,,,,,,,,,i,1,0.6702,,,,,,刻薄,i,,,0,8,8,33,1,,,,,,,,,,,,,,,,,,,,,,,,,,,,,,,,,,
,,,,,,,,,,,,,1,001,2024-09-01_22h31.34.002,IAT(Formal),2021.2.3,Win32,19.81218053,,,,,,,,,,,,,,,,i,1,0.5722,,,,,,悲观,i,,,0,9,9,34,1,,,,,,,,,,,,,,,,,,,,,,,,,,,,,,,,,,
,,,,,,,,,,,,,1,001,2024-09-01_22h31.34.002,IAT(Formal),2021.2.3,Win32,19.81218053,,,,,,,,,,,,,,,,e,1,0.5761,,,,,,我的,e,,,0,10,10,61,1,,,,,,,,,,,,,,,,,,,,,,,,,,,,,,,,,,
,,,,,,,,,,,,,1,001,2024-09-01_22h31.34.002,IAT(Formal),2021.2.3,Win32,19.81218053,,,,,,,,,,,,,,,,i,1,0.7391,,,,,,他人,i,,,0,11,11,78,1,,,,,,,,,,,,,,,,,,,,,,,,,,,,,,,,,,
,,,,,,,,,,,,,1,001,2024-09-01_22h31.34.002,IAT(Formal),2021.2.3,Win32,19.81218053,,,,,,,,,,,,,,,,i,1,0.6006,,,,,,固执,i,,,0,12,12,47,1,,,,,,,,,,,,,,,,,,,,,,,,,,,,,,,,,,
,,,,,,,,,,,,,1,001,2024-09-01_22h31.34.002,IAT(Formal),2021.2.3,Win32,19.81218053,,,,,,,,,,,,,,,,e,1,0.5803,,,,,,我们,e,,,0,13,13,2,1,,,,,,,,,,,,,,,,,,,,,,,,,,,,,,,,,,
,,,,,,,,,,,,,1,001,2024-09-01_22h31.34.002,IAT(Formal),2021.2.3,Win32,19.81218053,,,,,,,,,,,,,,,,e,1,0.5504,,,,,,聪明,e,,,0,14,14,12,1,,,,,,,,,,,,,,,,,,,,,,,,,,,,,,,,,,
,,,,,,,,,,,,,1,001,2024-09-01_22h31.34.002,IAT(Formal),2021.2.3,Win32,19.81218053,,,,,,,,,,,,,,,,e,1,0.4769,,,,,,我们,e,,,0,15,15,72,1,,,,,,,,,,,,,,,,,,,,,,,,,,,,,,,,,,
,,,,,,,,,,,,,1,001,2024-09-01_22h31.34.002,IAT(Formal),2021.2.3,Win32,19.81218053,,,,,,,,,,,,,,,,i,1,0.5103,,,,,,他们,i,,,0,16,16,6,1,,,,,,,,,,,,,,,,,,,,,,,,,,,,,,,,,,
,,,,,,,,,,,,,1,001,2024-09-01_22h31.34.002,IAT(Formal),2021.2.3,Win32,19.81218053,,,,,,,,,,,,,,,,e,1,0.7754,,,,,,乐观,e,,,0,17,17,14,1,,,,,,,,,,,,,,,,,,,,,,,,,,,,,,,,,,
,,,,,,,,,,,,,1,001,2024-09-01_22h31.34.002,IAT(Formal),2021.2.3,Win32,19.81218053,,,,,,,,,,,,,,,,i,1,0.5627,,,,,,其他,i,,,0,18,18,79,1,,,,,,,,,,,,,,,,,,,,,,,,,,,,,,,,,,
,,,,,,,,,,,,,1,001,2024-09-01_22h31.34.002,IAT(Formal),2021.2.3,Win32,19.81218053,,,,,,,,,,,,,,,,i,1,0.5499,,,,,,暴躁,i,,,0,19,19,44,1,,,,,,,,,,,,,,,,,,,,,,,,,,,,,,,,,,
,,,,,,,,,,,,,1,001,2024-09-01_22h31.34.002,IAT(Formal),2021.2.3,Win32,19.81218053,,,,,,,,,,,,,,,,e,1,0.5134,,,,,,自己,e,,,0,20,20,73,1,,,,,,,,,,,,,,,,,,,,,,,,,,,,,,,,,,
,,,,,,,,,,,,,1,001,2024-09-01_22h31.34.002,IAT(Formal),2021.2.3,Win32,19.81218053,,,,,,,,,,,,,,,,i,1,0.6326,,,,,,自卑,i,,,0,21,21,36,1,,,,,,,,,,,,,,,,,,,,,,,,,,,,,,,,,,
,,,,,,,,,,,,,1,001,2024-09-01_22h31.34.002,IAT(Formal),2021.2.3,Win32,19.81218053,,,,,,,,,,,,,,,,e,1,0.5195,,,,,,我们,e,,,0,22,22,62,1,,,,,,,,,,,,,,,,,,,,,,,,,,,,,,,,,,
,,,,,,,,,,,,,1,001,2024-09-01_22h31.34.002,IAT(Formal),2021.2.3,Win32,19.81218053,,,,,,,,,,,,,,,,e,1,0.6583,,,,,,稳重,e,,,0,23,23,21,1,,,,,,,,,,,,,,,,,,,,,,,,,,,,,,,,,,
,,,,,,,,,,,,,1,001,2024-09-01_22h31.34.002,IAT(Formal),2021.2.3,Win32,19.81218053,,,,,,,,,,,,,,,,i,1,0.7882,,,,,,他,i,,,0,24,24,65,1,,,,,,,,,,,,,,,,,,,,,,,,,,,,,,,,,,
,,,,,,,,,,,,,1,001,2024-09-01_22h31.34.002,IAT(Formal),2021.2.3,Win32,19.81218053,,,,,,,,,,,,,,,,i,1,0.5971,,,,,,他们,i,,,0,25,25,56,1,,,,,,,,,,,,,,,,,,,,,,,,,,,,,,,,,,
,,,,,,,,,,,,,1,001,2024-09-01_22h31.34.002,IAT(Formal),2021.2.3,Win32,19.81218053,,,,,,,,,,,,,,,,e,1,0.5008,,,,,,我,e,,,0,26,26,0,1,,,,,,,,,,,,,,,,,,,,,,,,,,,,,,,,,,
,,,,,,,,,,,,,1,001,2024-09-01_22h31.34.002,IAT(Formal),2021.2.3,Win32,19.81218053,,,,,,,,,,,,,,,,i,1,0.6536,,,,,,其他,i,,,0,27,27,69,1,,,,,,,,,,,,,,,,,,,,,,,,,,,,,,,,,,
,,,,,,,,,,,,,1,001,2024-09-01_22h31.34.002,IAT(Formal),2021.2.3,Win32,19.81218053,,,,,,,,,,,,,,,,i,1,0.648,,,,,,他,i,,,0,28,28,5,1,,,,,,,,,,,,,,,,,,,,,,,,,,,,,,,,,,
,,,,,,,,,,,,,1,001,2024-09-01_22h31.34.002,IAT(Formal),2021.2.3,Win32,19.81218053,,,,,,,,,,,,,,,,i,1,0.5632,,,,,,他人,i,,,0,29,29,58,1,,,,,,,,,,,,,,,,,,,,,,,,,,,,,,,,,,
,,,,,,,,,,,,,1,001,2024-09-01_22h31.34.002,IAT(Formal),2021.2.3,Win32,19.81218053,,,,,,,,,,,,,,,,i,1,0.5895,,,,,,他的,i,,,0,30,30,77,1,,,,,,,,,,,,,,,,,,,,,,,,,,,,,,,,,,
,,,,,,,,,,,,,1,001,2024-09-01_22h31.34.002,IAT(Formal),2021.2.3,Win32,19.81218053,,,,,,,,,,,,,,,,e,1,0.6486,,,,,,勇敢,e,,,0,31,31,17,1,,,,,,,,,,,,,,,,,,,,,,,,,,,,,,,,,,
,,,,,,,,,,,,,1,001,2024-09-01_22h31.34.002,IAT(Formal),2021.2.3,Win32,19.81218053,,,,,,,,,,,,,,,,e,1,0.5413,,,,,,我的,e,,,0,32,32,71,1,,,,,,,,,,,,,,,,,,,,,,,,,,,,,,,,,,
,,,,,,,,,,,,,1,001,2024-09-01_22h31.34.002,IAT(Formal),2021.2.3,Win32,19.81218053,,,,,,,,,,,,,,,,i,1,0.5723,,,,,,野蛮,i,,,0,33,33,46,1,,,,,,,,,,,,,,,,,,,,,,,,,,,,,,,,,,
,,,,,,,,,,,,,1,001,2024-09-01_22h31.34.002,IAT(Formal),2021.2.3,Win32,19.81218053,,,,,,,,,,,,,,,,e,1,0.7058,,,,,,朴实,e,,,0,34,34,24,1,,,,,,,,,,,,,,,,,,,,,,,,,,,,,,,,,,
,,,,,,,,,,,,,1,001,2024-09-01_22h31.34.002,IAT(Formal),2021.2.3,Win32,19.81218053,,,,,,,,,,,,,,,,i,1,0.7086,,,,,,鲁莽,i,,,0,35,35,38,1,,,,,,,,,,,,,,,,,,,,,,,,,,,,,,,,,,
,,,,,,,,,,,,,1,001,2024-09-01_22h31.34.002,IAT(Formal),2021.2.3,Win32,19.81218053,,,,,,,,,,,,,,,,e,1,0.5241,,,,,,我,e,,,0,36,36,70,1,,,,,,,,,,,,,,,,,,,,,,,,,,,,,,,,,,
,,,,,,,,,,,,,1,001,2024-09-01_22h31.34.002,IAT(Formal),2021.2.3,Win32,19.81218053,,,,,,,,,,,,,,,,i,1,0.6111,,,,,,他的,i,,,0,37,37,57,1,,,,,,,,,,,,,,,,,,,,,,,,,,,,,,,,,,
,,,,,,,,,,,,,1,001,2024-09-01_22h31.34.002,IAT(Formal),2021.2.3,Win32,19.81218053,,,,,,,,,,,,,,,,i,1,0.5817,,,,,,自私,i,,,0,38,38,43,1,,,,,,,,,,,,,,,,,,,,,,,,,,,,,,,,,,
,,,,,,,,,,,,,1,001,2024-09-01_22h31.34.002,IAT(Formal),2021.2.3,Win32,19.81218053,,,,,,,,,,,,,,,,i,1,0.6994,,,,,,他,i,,,0,39,39,55,1,,,,,,,,,,,,,,,,,,,,,,,,,,,,,,,,,,
,,,,,,,,,,,,,1,001,2024-09-01_22h31.34.002,IAT(Formal),2021.2.3,Win32,19.81218053,,,,,,,,,,,,,,,,i,1,0.5756,,,,,,愚蠢,i,,,0,40,40,32,1,,,,,,,,,,,,,,,,,,,,,,,,,,,,,,,,,,
,,,,,,,,,,,,,1,001,2024-09-01_22h31.34.002,IAT(Formal),2021.2.3,Win32,19.81218053,,,,,,,,,,,,,,,,e,1,0.5927,,,,,,俺,e,,,0,41,41,64,1,,,,,,,,,,,,,,,,,,,,,,,,,,,,,,,,,,
,,,,,,,,,,,,,1,001,2024-09-01_22h31.34.002,IAT(Formal),2021.2.3,Win32,19.81218053,,,,,,,,,,,,,,,,e,1,0.5058,,,,,,优秀,e,,,0,42,42,10,1,,,,,,,,,,,,,,,,,,,,,,,,,,,,,,,,,,
,,,,,,,,,,,,,1,001,2024-09-01_22h31.34.002,IAT(Formal),2021.2.3,Win32,19.81218053,,,,,,,,,,,,,,,,i,1,0.5206,,,,,,凶狠,i,,,0,43,43,42,1,,,,,,,,,,,,,,,,,,,,,,,,,,,,,,,,,,
,,,,,,,,,,,,,1,001,2024-09-01_22h31.34.002,IAT(Formal),2021.2.3,Win32,19.81218053,,,,,,,,,,,,,,,,e,1,0.5957,,,,,,我的,e,,,0,44,44,51,1,,,,,,,,,,,,,,,,,,,,,,,,,,,,,,,,,,
,,,,,,,,,,,,,1,001,2024-09-01_22h31.34.002,IAT(Formal),2021.2.3,Win32,19.81218053,,,,,,,,,,,,,,,,i,1,0.9352,,,,,,其他,i,,,0,45,45,9,1,,,,,,,,,,,,,,,,,,,,,,,,,,,,,,,,,,
,,,,,,,,,,,,,1,001,2024-09-01_22h31.34.002,IAT(Formal),2021.2.3,Win32,19.81218053,,,,,,,,,,,,,,,,e,1,0.8917,,,,,,无私,e,,,0,46,46,22,1,,,,,,,,,,,,,,,,,,,,,,,,,,,,,,,,,,
,,,,,,,,,,,,,1,001,2024-09-01_22h31.34.002,IAT(Formal),2021.2.3,Win32,19.81218053,,,,,,,,,,,,,,,,e,1,0.5366,,,,,,公正,e,,,0,47,47,23,1,,,,,,,,,,,,,,,,,,,,,,,,,,,,,,,,,,
,,,,,,,,,,,,,1,001,2024-09-01_22h31.34.002,IAT(Formal),2021.2.3,Win32,19.81218053,,,,,,,,,,,,,,,,e,1,0.6896,,,,,,崇高,e,,,0,48,48,11,1,,,,,,,,,,,,,,,,,,,,,,,,,,,,,,,,,,
,,,,,,,,,,,,,1,001,2024-09-01_22h31.34.002,IAT(Formal),2021.2.3,Win32,19.81218053,,,,,,,,,,,,,,,,i,1,0.4892,,,,,,他的,i,,,0,49,49,7,1,,,,,,,,,,,,,,,,,,,,,,,,,,,,,,,,,,
,,,,,,,,,,,,,1,001,2024-09-01_22h31.34.002,IAT(Formal),2021.2.3,Win32,19.81218053,,,,,,,,,,,,,,,,e,1,0.5908,,,,,,俺,e,,,0,50,50,4,1,,,,,,,,,,,,,,,,,,,,,,,,,,,,,,,,,,
,,,,,,,,,,,,,1,001,2024-09-01_22h31.34.002,IAT(Formal),2021.2.3,Win32,19.81218053,,,,,,,,,,,,,,,,i,1,0.4331,,,,,,其他,i,,,0,51,51,59,1,,,,,,,,,,,,,,,,,,,,,,,,,,,,,,,,,,
,,,,,,,,,,,,,1,001,2024-09-01_22h31.34.002,IAT(Formal),2021.2.3,Win32,19.81218053,,,,,,,,,,,,,,,,i,1,0.6944,,,,,,他人,i,,,0,52,52,8,1,,,,,,,,,,,,,,,,,,,,,,,,,,,,,,,,,,
,,,,,,,,,,,,,1,001,2024-09-01_22h31.34.002,IAT(Formal),2021.2.3,Win32,19.81218053,,,,,,,,,,,,,,,,e,1,0.5863,,,,,,认真,e,,,0,53,53,20,1,,,,,,,,,,,,,,,,,,,,,,,,,,,,,,,,,,
,,,,,,,,,,,,,1,001,2024-09-01_22h31.34.002,IAT(Formal),2021.2.3,Win32,19.81218053,,,,,,,,,,,,,,,,e,1,0.656,,,,,,冷静,e,,,0,54,54,26,1,,,,,,,,,,,,,,,,,,,,,,,,,,,,,,,,,,
,,,,,,,,,,,,,1,001,2024-09-01_22h31.34.002,IAT(Formal),2021.2.3,Win32,19.81218053,,,,,,,,,,,,,,,,i,1,0.6628,,,,,,他,i,,,0,55,55,75,1,,,,,,,,,,,,,,,,,,,,,,,,,,,,,,,,,,
,,,,,,,,,,,,,1,001,2024-09-01_22h31.34.002,IAT(Formal),2021.2.3,Win32,19.81218053,,,,,,,,,,,,,,,,e,1,0.661,,,,,,细腻,e,,,0,56,56,25,1,,,,,,,,,,,,,,,,,,,,,,,,,,,,,,,,,,
,,,,,,,,,,,,,1,001,2024-09-01_22h31.34.002,IAT(Formal),2021.2.3,Win32,19.81218053,,,,,,,,,,,,,,,,e,1,0.4774,,,,,,诚实,e,,,0,57,57,15,1,,,,,,,,,,,,,,,,,,,,,,,,,,,,,,,,,,
,,,,,,,,,,,,,1,001,2024-09-01_22h31.34.002,IAT(Formal),2021.2.3,Win32,19.81218053,,,,,,,,,,,,,,,,e,1,0.659,,,,,,热情,e,,,0,58,58,27,1,,,,,,,,,,,,,,,,,,,,,,,,,,,,,,,,,,
,,,,,,,,,,,,,1,001,2024-09-01_22h31.34.002,IAT(Formal),2021.2.3,Win32,19.81218053,,,,,,,,,,,,,,,,e,1,0.4984,,,,,,我,e,,,0,59,59,50,1,,,,,,,,,,,,,,,,,,,,,,,,,,,,,,,,,,
,,,,,,,,,,,,,1,001,2024-09-01_22h31.34.002,IAT(Formal),2021.2.3,Win32,19.81218053,,,,,,,,,,,,,,,,i,1,0.4708,,,,,,他们,i,,,0,60,60,76,1,,,,,,,,,,,,,,,,,,,,,,,,,,,,,,,,,,
,,,,,,,,,,,,,1,001,2024-09-01_22h31.34.002,IAT(Formal),2021.2.3,Win32,19.81218053,,,,,,,,,,,,,,,,e,1,0.5761,,,,,,活泼,e,,,0,61,61,28,1,,,,,,,,,,,,,,,,,,,,,,,,,,,,,,,,,,
,,,,,,,,,,,,,1,001,2024-09-01_22h31.34.002,IAT(Formal),2021.2.3,Win32,19.81218053,,,,,,,,,,,,,,,,e,1,0.6057,,,,,,我,e,,,0,62,62,60,1,,,,,,,,,,,,,,,,,,,,,,,,,,,,,,,,,,
,,,,,,,,,,,,,1,001,2024-09-01_22h31.34.002,IAT(Formal),2021.2.3,Win32,19.81218053,,,,,,,,,,,,,,,,e,1,0.548,,,,,,自己,e,,,0,63,63,53,1,,,,,,,,,,,,,,,,,,,,,,,,,,,,,,,,,,
,,,,,,,,,,,,,1,001,2024-09-01_22h31.34.002,IAT(Formal),2021.2.3,Win32,19.81218053,,,,,,,,,,,,,,,,e,1,0.5857,,,,,,自己,e,,,0,64,64,3,1,,,,,,,,,,,,,,,,,,,,,,,,,,,,,,,,,,
,,,,,,,,,,,,,1,001,2024-09-01_22h31.34.002,IAT(Formal),2021.2.3,Win32,19.81218053,,,,,,,,,,,,,,,,i,1,0.574,,,,,,散漫,i,,,0,65,65,41,1,,,,,,,,,,,,,,,,,,,,,,,,,,,,,,,,,,
,,,,,,,,,,,,,1,001,2024-09-01_22h31.34.002,IAT(Formal),2021.2.3,Win32,19.81218053,,,,,,,,,,,,,,,,e,1,1.0963,,,,,,我的,e,,,0,66,66,1,1,,,,,,,,,,,,,,,,,,,,,,,,,,,,,,,,,,
,,,,,,,,,,,,,1,001,2024-09-01_22h31.34.002,IAT(Formal),2021.2.3,Win32,19.81218053,,,,,,,,,,,,,,,,e,1,0.5366,,,,,,我们,e,,,0,67,67,52,1,,,,,,,,,,,,,,,,,,,,,,,,,,,,,,,,,,
,,,,,,,,,,,,,1,001,2024-09-01_22h31.34.002,IAT(Formal),2021.2.3,Win32,19.81218053,,,,,,,,,,,,,,,,e,1,0.5748,,,,,,诚恳,e,,,0,68,68,29,1,,,,,,,,,,,,,,,,,,,,,,,,,,,,,,,,,,
,,,,,,,,,,,,,1,001,2024-09-01_22h31.34.002,IAT(Formal),2021.2.3,Win32,19.81218053,,,,,,,,,,,,,,,,e,1,0.5098,,,,,,俺,e,,,0,69,69,54,1,,,,,,,,,,,,,,,,,,,,,,,,,,,,,,,,,,
,,,,,,,,,,,,,1,001,2024-09-01_22h31.34.002,IAT(Formal),2021.2.3,Win32,19.81218053,,,,,,,,,,,,,,,,i,1,0.5387,,,,,,虚伪,i,,,0,70,70,31,1,,,,,,,,,,,,,,,,,,,,,,,,,,,,,,,,,,
,,,,,,,,,,,,,1,001,2024-09-01_22h31.34.002,IAT(Formal),2021.2.3,Win32,19.81218053,,,,,,,,,,,,,,,,i,1,0.5368,,,,,,下贱,i,,,0,71,71,49,1,,,,,,,,,,,,,,,,,,,,,,,,,,,,,,,,,,
,,,,,,,,,,,,,1,001,2024-09-01_22h31.34.002,IAT(Formal),2021.2.3,Win32,19.81218053,,,,,,,,,,,,,,,,e,1,0.7337,,,,,,机智,e,,,0,72,72,19,1,,,,,,,,,,,,,,,,,,,,,,,,,,,,,,,,,,
,,,,,,,,,,,,,1,001,2024-09-01_22h31.34.002,IAT(Formal),2021.2.3,Win32,19.81218053,,,,,,,,,,,,,,,,e,1,0.6103,,,,,,正直,e,,,0,73,73,16,1,,,,,,,,,,,,,,,,,,,,,,,,,,,,,,,,,,
,,,,,,,,,,,,,1,001,2024-09-01_22h31.34.002,IAT(Formal),2021.2.3,Win32,19.81218053,,,,,,,,,,,,,,,,i,1,0.7034,,,,,,执拗,i,,,0,74,74,40,1,,,,,,,,,,,,,,,,,,,,,,,,,,,,,,,,,,
,,,,,,,,,,,,,1,001,2024-09-01_22h31.34.002,IAT(Formal),2021.2.3,Win32,19.81218053,,,,,,,,,,,,,,,,i,1,0.6867,,,,,,消极,i,,,0,75,75,35,1,,,,,,,,,,,,,,,,,,,,,,,,,,,,,,,,,,
,,,,,,,,,,,,,1,001,2024-09-01_22h31.34.002,IAT(Formal),2021.2.3,Win32,19.81218053,,,,,,,,,,,,,,,,e,1,0.6908,,,,,,勤奋,e,,,0,76,76,18,1,,,,,,,,,,,,,,,,,,,,,,,,,,,,,,,,,,
,,,,,,,,,,,,,1,001,2024-09-01_22h31.34.002,IAT(Formal),2021.2.3,Win32,19.81218053,,,,,,,,,,,,,,,,i,1,0.5725,,,,,,轻率,i,,,0,77,77,48,1,,,,,,,,,,,,,,,,,,,,,,,,,,,,,,,,,,
,,,,,,,,,,,,,1,001,2024-09-01_22h31.34.002,IAT(Formal),2021.2.3,Win32,19.81218053,,,,,,,,,,,,,,,,e,1,0.5517,,,,,,自己,e,,,0,78,78,63,1,,,,,,,,,,,,,,,,,,,,,,,,,,,,,,,,,,
,,,,,,,,,,,,,1,001,2024-09-01_22h31.34.002,IAT(Formal),2021.2.3,Win32,19.81218053,,,,,,,,,,,,,,,,i,1,0.6331,,,,,,他人,i,,,0,79,79,68,1,,,,,,,,,,,,,,,,,,,,,,,,,,,,,,,,,,
,,,,,,,,,,,,,1,001,2024-09-01_22h31.34.002,IAT(Formal),2021.2.3,Win32,19.81218053,,,,,,,,,,,,,,,,i,1,0.578,,,,,,他们,i,,,1,0,80,66,1,,,,,,,,,,,,,,,,,,,,,,,,,,,,,,,,,,
,,,,,,,,,,,,,1,001,2024-09-01_22h31.34.002,IAT(Formal),2021.2.3,Win32,19.81218053,,,,,,,,,,,,,,,,e,1,0.6439,,,,,,稳重,e,,,1,1,81,21,1,,,,,,,,,,,,,,,,,,,,,,,,,,,,,,,,,,
,,,,,,,,,,,,,1,001,2024-09-01_22h31.34.002,IAT(Formal),2021.2.3,Win32,19.81218053,,,,,,,,,,,,,,,,e,1,0.9343,,,,,,热情,e,,,1,2,82,27,1,,,,,,,,,,,,,,,,,,,,,,,,,,,,,,,,,,
,,,,,,,,,,,,,1,001,2024-09-01_22h31.34.002,IAT(Formal),2021.2.3,Win32,19.81218053,,,,,,,,,,,,,,,,i,1,0.6701,,,,,,他,i,,,1,3,83,75,1,,,,,,,,,,,,,,,,,,,,,,,,,,,,,,,,,,
,,,,,,,,,,,,,1,001,2024-09-01_22h31.34.002,IAT(Formal),2021.2.3,Win32,19.81218053,,,,,,,,,,,,,,,,i,1,0.8561,,,,,,轻率,i,,,1,4,84,48,1,,,,,,,,,,,,,,,,,,,,,,,,,,,,,,,,,,
,,,,,,,,,,,,,1,001,2024-09-01_22h31.34.002,IAT(Formal),2021.2.3,Win32,19.81218053,,,,,,,,,,,,,,,,e,1,0.6246,,,,,,细腻,e,,,1,5,85,25,1,,,,,,,,,,,,,,,,,,,,,,,,,,,,,,,,,,
,,,,,,,,,,,,,1,001,2024-09-01_22h31.34.002,IAT(Formal),2021.2.3,Win32,19.81218053,,,,,,,,,,,,,,,,e,1,0.7489,,,,,,诚恳,e,,,1,6,86,29,1,,,,,,,,,,,,,,,,,,,,,,,,,,,,,,,,,,
,,,,,,,,,,,,,1,001,2024-09-01_22h31.34.002,IAT(Formal),2021.2.3,Win32,19.81218053,,,,,,,,,,,,,,,,e,1,0.511,,,,,,勤奋,e,,,1,7,87,18,1,,,,,,,,,,,,,,,,,,,,,,,,,,,,,,,,,,
,,,,,,,,,,,,,1,001,2024-09-01_22h31.34.002,IAT(Formal),2021.2.3,Win32,19.81218053,,,,,,,,,,,,,,,,e,1,0.6501,,,,,,乐观,e,,,1,8,88,14,1,,,,,,,,,,,,,,,,,,,,,,,,,,,,,,,,,,
,,,,,,,,,,,,,1,001,2024-09-01_22h31.34.002,IAT(Formal),2021.2.3,Win32,19.81218053,,,,,,,,,,,,,,,,i,1,0.511,,,,,,他的,i,,,1,9,89,57,1,,,,,,,,,,,,,,,,,,,,,,,,,,,,,,,,,,
,,,,,,,,,,,,,1,001,2024-09-01_22h31.34.002,IAT(Formal),2021.2.3,Win32,19.81218053,,,,,,,,,,,,,,,,i,1,0.6571,,,,,,他,i,,,1,10,90,65,1,,,,,,,,,,,,,,,,,,,,,,,,,,,,,,,,,,
,,,,,,,,,,,,,1,001,2024-09-01_22h31.34.002,IAT(Formal),2021.2.3,Win32,19.81218053,,,,,,,,,,,,,,,,e,1,0.6122,,,,,,杰出,e,,,1,11,91,13,1,,,,,,,,,,,,,,,,,,,,,,,,,,,,,,,,,,
,,,,,,,,,,,,,1,001,2024-09-01_22h31.34.002,IAT(Formal),2021.2.3,Win32,19.81218053,,,,,,,,,,,,,,,,i,1,0.6771,,,,,,固执,i,,,1,12,92,47,1,,,,,,,,,,,,,,,,,,,,,,,,,,,,,,,,,,
,,,,,,,,,,,,,1,001,2024-09-01_22h31.34.002,IAT(Formal),2021.2.3,Win32,19.81218053,,,,,,,,,,,,,,,,e,1,0.6634,,,,,,无私,e,,,1,13,93,22,1,,,,,,,,,,,,,,,,,,,,,,,,,,,,,,,,,,
,,,,,,,,,,,,,1,001,2024-09-01_22h31.34.002,IAT(Formal),2021.2.3,Win32,19.81218053,,,,,,,,,,,,,,,,i,1,0.5759,,,,,,他,i,,,1,14,94,5,1,,,,,,,,,,,,,,,,,,,,,,,,,,,,,,,,,,
,,,,,,,,,,,,,1,001,2024-09-01_22h31.34.002,IAT(Formal),2021.2.3,Win32,19.81218053,,,,,,,,,,,,,,,,i,1,0.6483,,,,,,散漫,i,,,1,15,95,41,1,,,,,,,,,,,,,,,,,,,,,,,,,,,,,,,,,,
,,,,,,,,,,,,,1,001,2024-09-01_22h31.34.002,IAT(Formal),2021.2.3,Win32,19.81218053,,,,,,,,,,,,,,,,e,1,0.5972,,,,,,自己,e,,,1,16,96,63,1,,,,,,,,,,,,,,,,,,,,,,,,,,,,,,,,,,
,,,,,,,,,,,,,1,001,2024-09-01_22h31.34.002,IAT(Formal),2021.2.3,Win32,19.81218053,,,,,,,,,,,,,,,,e,1,0.5923,,,,,,我们,e,,,1,17,97,52,1,,,,,,,,,,,,,,,,,,,,,,,,,,,,,,,,,,
,,,,,,,,,,,,,1,001,2024-09-01_22h31.34.002,IAT(Formal),2021.2.3,Win32,19.81218053,,,,,,,,,,,,,,,,e,1,0.561,,,,,,我们,e,,,1,18,98,62,1,,,,,,,,,,,,,,,,,,,,,,,,,,,,,,,,,,
,,,,,,,,,,,,,1,001,2024-09-01_22h31.34.002,IAT(Formal),2021.2.3,Win32,19.81218053,,,,,,,,,,,,,,,,i,1,0.9699,,,,,,自私,i,,,1,19,99,43,1,,,,,,,,,,,,,,,,,,,,,,,,,,,,,,,,,,
,,,,,,,,,,,,,1,001,2024-09-01_22h31.34.002,IAT(Formal),2021.2.3,Win32,19.81218053,,,,,,,,,,,,,,,,e,1,0.7222,,,,,,冷静,e,,,1,20,100,26,1,,,,,,,,,,,,,,,,,,,,,,,,,,,,,,,,,,
,,,,,,,,,,,,,1,001,2024-09-01_22h31.34.002,IAT(Formal),2021.2.3,Win32,19.81218053,,,,,,,,,,,,,,,,i,1,0.5739,,,,,,他人,i,,,1,21,101,8,1,,,,,,,,,,,,,,,,,,,,,,,,,,,,,,,,,,
,,,,,,,,,,,,,1,001,2024-09-01_22h31.34.002,IAT(Formal),2021.2.3,Win32,19.81218053,,,,,,,,,,,,,,,,i,1,0.596,,,,,,其他,i,,,1,22,102,69,1,,,,,,,,,,,,,,,,,,,,,,,,,,,,,,,,,,
,,,,,,,,,,,,,1,001,2024-09-01_22h31.34.002,IAT(Formal),2021.2.3,Win32,19.81218053,,,,,,,,,,,,,,,,e,1,0.5436,,,,,,我的,e,,,1,23,103,61,1,,,,,,,,,,,,,,,,,,,,,,,,,,,,,,,,,,
,,,,,,,,,,,,,1,001,2024-09-01_22h31.34.002,IAT(Formal),2021.2.3,Win32,19.81218053,,,,,,,,,,,,,,,,e,1,0.587,,,,,,聪明,e,,,1,24,104,12,1,,,,,,,,,,,,,,,,,,,,,,,,,,,,,,,,,,
,,,,,,,,,,,,,1,001,2024-09-01_22h31.34.002,IAT(Formal),2021.2.3,Win32,19.81218053,,,,,,,,,,,,,,,,i,1,0.6006,,,,,,虚伪,i,,,1,25,105,31,1,,,,,,,,,,,,,,,,,,,,,,,,,,,,,,,,,,
,,,,,,,,,,,,,1,001,2024-09-01_22h31.34.002,IAT(Formal),2021.2.3,Win32,19.81218053,,,,,,,,,,,,,,,,e,1,0.5537,,,,,,公正,e,,,1,26,106,23,1,,,,,,,,,,,,,,,,,,,,,,,,,,,,,,,,,,
,,,,,,,,,,,,,1,001,2024-09-01_22h31.34.002,IAT(Formal),2021.2.3,Win32,19.81218053,,,,,,,,,,,,,,,,i,1,0.534,,,,,,其他,i,,,1,27,107,59,1,,,,,,,,,,,,,,,,,,,,,,,,,,,,,,,,,,
,,,,,,,,,,,,,1,001,2024-09-01_22h31.34.002,IAT(Formal),2021.2.3,Win32,19.81218053,,,,,,,,,,,,,,,,i,1,0.471,,,,,,凶狠,i,,,1,28,108,42,1,,,,,,,,,,,,,,,,,,,,,,,,,,,,,,,,,,
,,,,,,,,,,,,,1,001,2024-09-01_22h31.34.002,IAT(Formal),2021.2.3,Win32,19.81218053,,,,,,,,,,,,,,,,e,1,0.4967,,,,,,崇高,e,,,1,29,109,11,1,,,,,,,,,,,,,,,,,,,,,,,,,,,,,,,,,,
,,,,,,,,,,,,,1,001,2024-09-01_22h31.34.002,IAT(Formal),2021.2.3,Win32,19.81218053,,,,,,,,,,,,,,,,i,1,0.5771,,,,,,愚蠢,i,,,1,30,110,32,1,,,,,,,,,,,,,,,,,,,,,,,,,,,,,,,,,,
,,,,,,,,,,,,,1,001,2024-09-01_22h31.34.002,IAT(Formal),2021.2.3,Win32,19.81218053,,,,,,,,,,,,,,,,e,1,0.5309,,,,,,我,e,,,1,31,111,0,1,,,,,,,,,,,,,,,,,,,,,,,,,,,,,,,,,,
,,,,,,,,,,,,,1,001,2024-09-01_22h31.34.002,IAT(Formal),2021.2.3,Win32,19.81218053,,,,,,,,,,,,,,,,i,1,0.612,,,,,,猖狂,i,,,1,32,112,45,1,,,,,,,,,,,,,,,,,,,,,,,,,,,,,,,,,,
,,,,,,,,,,,,,1,001,2024-09-01_22h31.34.002,IAT(Formal),2021.2.3,Win32,19.81218053,,,,,,,,,,,,,,,,e,1,0.5512,,,,,,诚实,e,,,1,33,113,15,1,,,,,,,,,,,,,,,,,,,,,,,,,,,,,,,,,,
,,,,,,,,,,,,,1,001,2024-09-01_22h31.34.002,IAT(Formal),2021.2.3,Win32,19.81218053,,,,,,,,,,,,,,,,e,1,0.5358,,,,,,我们,e,,,1,34,114,72,1,,,,,,,,,,,,,,,,,,,,,,,,,,,,,,,,,,
,,,,,,,,,,,,,1,001,2024-09-01_22h31.34.002,IAT(Formal),2021.2.3,Win32,19.81218053,,,,,,,,,,,,,,,,e,1,0.5483,,,,,,我的,e,,,1,35,115,1,1,,,,,,,,,,,,,,,,,,,,,,,,,,,,,,,,,,
,,,,,,,,,,,,,1,001,2024-09-01_22h31.34.002,IAT(Formal),2021.2.3,Win32,19.81218053,,,,,,,,,,,,,,,,e,1,0.4924,,,,,,我的,e,,,1,36,116,71,1,,,,,,,,,,,,,,,,,,,,,,,,,,,,,,,,,,
,,,,,,,,,,,,,1,001,2024-09-01_22h31.34.002,IAT(Formal),2021.2.3,Win32,19.81218053,,,,,,,,,,,,,,,,e,1,0.6175,,,,,,俺,e,,,1,37,117,54,1,,,,,,,,,,,,,,,,,,,,,,,,,,,,,,,,,,
,,,,,,,,,,,,,1,001,2024-09-01_22h31.34.002,IAT(Formal),2021.2.3,Win32,19.81218053,,,,,,,,,,,,,,,,e,1,0.5467,,,,,,俺,e,,,1,38,118,4,1,,,,,,,,,,,,,,,,,,,,,,,,,,,,,,,,,,
,,,,,,,,,,,,,1,001,2024-09-01_22h31.34.002,IAT(Formal),2021.2.3,Win32,19.81218053,,,,,,,,,,,,,,,,e,1,0.5718,,,,,,优秀,e,,,1,39,119,10,1,,,,,,,,,,,,,,,,,,,,,,,,,,,,,,,,,,
,,,,,,,,,,,,,1,001,2024-09-01_22h31.34.002,IAT(Formal),2021.2.3,Win32,19.81218053,,,,,,,,,,,,,,,,e,1,0.5863,,,,,,正直,e,,,1,40,120,16,1,,,,,,,,,,,,,,,,,,,,,,,,,,,,,,,,,,
,,,,,,,,,,,,,1,001,2024-09-01_22h31.34.002,IAT(Formal),2021.2.3,Win32,19.81218053,,,,,,,,,,,,,,,,e,1,0.5124,,,,,,我,e,,,1,41,121,70,1,,,,,,,,,,,,,,,,,,,,,,,,,,,,,,,,,,
,,,,,,,,,,,,,1,001,2024-09-01_22h31.34.002,IAT(Formal),2021.2.3,Win32,19.81218053,,,,,,,,,,,,,,,,i,1,0.5378,,,,,,消极,i,,,1,42,122,35,1,,,,,,,,,,,,,,,,,,,,,,,,,,,,,,,,,,
,,,,,,,,,,,,,1,001,2024-09-01_22h31.34.002,IAT(Formal),2021.2.3,Win32,19.81218053,,,,,,,,,,,,,,,,e,1,0.5104,,,,,,我们,e,,,1,43,123,2,1,,,,,,,,,,,,,,,,,,,,,,,,,,,,,,,,,,
,,,,,,,,,,,,,1,001,2024-09-01_22h31.34.002,IAT(Formal),2021.2.3,Win32,19.81218053,,,,,,,,,,,,,,,,e,1,0.5917,,,,,,自己,e,,,1,44,124,3,1,,,,,,,,,,,,,,,,,,,,,,,,,,,,,,,,,,
,,,,,,,,,,,,,1,001,2024-09-01_22h31.34.002,IAT(Formal),2021.2.3,Win32,19.81218053,,,,,,,,,,,,,,,,e,1,0.9267,,,,,,我,e,,,1,45,125,50,1,,,,,,,,,,,,,,,,,,,,,,,,,,,,,,,,,,
,,,,,,,,,,,,,1,001,2024-09-01_22h31.34.002,IAT(Formal),2021.2.3,Win32,19.81218053,,,,,,,,,,,,,,,,i,1,0.658,,,,,,他的,i,,,1,46,126,77,1,,,,,,,,,,,,,,,,,,,,,,,,,,,,,,,,,,
,,,,,,,,,,,,,1,001,2024-09-01_22h31.34.002,IAT(Formal),2021.2.3,Win32,19.81218053,,,,,,,,,,,,,,,,e,1,0.5724,,,,,,机智,e,,,1,47,127,19,1,,,,,,,,,,,,,,,,,,,,,,,,,,,,,,,,,,
,,,,,,,,,,,,,1,001,2024-09-01_22h31.34.002,IAT(Formal),2021.2.3,Win32,19.81218053,,,,,,,,,,,,,,,,i,1,0.6591,,,,,,他人,i,,,1,48,128,68,1,,,,,,,,,,,,,,,,,,,,,,,,,,,,,,,,,,
,,,,,,,,,,,,,1,001,2024-09-01_22h31.34.002,IAT(Formal),2021.2.3,Win32,19.81218053,,,,,,,,,,,,,,,,i,1,0.6598,,,,,,刻薄,i,,,1,49,129,33,1,,,,,,,,,,,,,,,,,,,,,,,,,,,,,,,,,,
,,,,,,,,,,,,,1,001,2024-09-01_22h31.34.002,IAT(Formal),2021.2.3,Win32,19.81218053,,,,,,,,,,,,,,,,e,1,0.649,,,,,,认真,e,,,1,50,130,20,1,,,,,,,,,,,,,,,,,,,,,,,,,,,,,,,,,,
,,,,,,,,,,,,,1,001,2024-09-01_22h31.34.002,IAT(Formal),2021.2.3,Win32,19.81218053,,,,,,,,,,,,,,,,i,1,0.6271,,,,,,野蛮,i,,,1,51,131,46,1,,,,,,,,,,,,,,,,,,,,,,,,,,,,,,,,,,
,,,,,,,,,,,,,1,001,2024-09-01_22h31.34.002,IAT(Formal),2021.2.3,Win32,19.81218053,,,,,,,,,,,,,,,,i,1,0.9564,,,,,,冒失,i,,,1,52,132,39,1,,,,,,,,,,,,,,,,,,,,,,,,,,,,,,,,,,
,,,,,,,,,,,,,1,001,2024-09-01_22h31.34.002,IAT(Formal),2021.2.3,Win32,19.81218053,,,,,,,,,,,,,,,,i,1,0.7133,,,,,,他人,i,,,1,53,133,58,1,,,,,,,,,,,,,,,,,,,,,,,,,,,,,,,,,,
,,,,,,,,,,,,,1,001,2024-09-01_22h31.34.002,IAT(Formal),2021.2.3,Win32,19.81218053,,,,,,,,,,,,,,,,i,1,0.5799,,,,,,自卑,i,,,1,54,134,36,1,,,,,,,,,,,,,,,,,,,,,,,,,,,,,,,,,,
,,,,,,,,,,,,,1,001,2024-09-01_22h31.34.002,IAT(Formal),2021.2.3,Win32,19.81218053,,,,,,,,,,,,,,,,i,1,0.568,,,,,,暴躁,i,,,1,55,135,44,1,,,,,,,,,,,,,,,,,,,,,,,,,,,,,,,,,,
,,,,,,,,,,,,,1,001,2024-09-01_22h31.34.002,IAT(Formal),2021.2.3,Win32,19.81218053,,,,,,,,,,,,,,,,e,1,0.5365,,,,,,我的,e,,,1,56,136,51,1,,,,,,,,,,,,,,,,,,,,,,,,,,,,,,,,,,
,,,,,,,,,,,,,1,001,2024-09-01_22h31.34.002,IAT(Formal),2021.2.3,Win32,19.81218053,,,,,,,,,,,,,,,,e,1,0.6526,,,,,,俺,e,,,1,57,137,64,1,,,,,,,,,,,,,,,,,,,,,,,,,,,,,,,,,,
,,,,,,,,,,,,,1,001,2024-09-01_22h31.34.002,IAT(Formal),2021.2.3,Win32,19.81218053,,,,,,,,,,,,,,,,e,1,0.9123,,,,,,朴实,e,,,1,58,138,24,1,,,,,,,,,,,,,,,,,,,,,,,,,,,,,,,,,,
,,,,,,,,,,,,,1,001,2024-09-01_22h31.34.002,IAT(Formal),2021.2.3,Win32,19.81218053,,,,,,,,,,,,,,,,i,1,0.6231,,,,,,傲慢,i,,,1,59,139,37,1,,,,,,,,,,,,,,,,,,,,,,,,,,,,,,,,,,
,,,,,,,,,,,,,1,001,2024-09-01_22h31.34.002,IAT(Formal),2021.2.3,Win32,19.81218053,,,,,,,,,,,,,,,,i,1,0.5881,,,,,,其他,i,,,1,60,140,9,1,,,,,,,,,,,,,,,,,,,,,,,,,,,,,,,,,,
,,,,,,,,,,,,,1,001,2024-09-01_22h31.34.002,IAT(Formal),2021.2.3,Win32,19.81218053,,,,,,,,,,,,,,,,i,1,0.5456,,,,,,其他,i,,,1,61,141,79,1,,,,,,,,,,,,,,,,,,,,,,,,,,,,,,,,,,
,,,,,,,,,,,,,1,001,2024-09-01_22h31.34.002,IAT(Formal),2021.2.3,Win32,19.81218053,,,,,,,,,,,,,,,,i,1,0.5301,,,,,,卑鄙,i,,,1,62,142,30,1,,,,,,,,,,,,,,,,,,,,,,,,,,,,,,,,,,
,,,,,,,,,,,,,1,001,2024-09-01_22h31.34.002,IAT(Formal),2021.2.3,Win32,19.81218053,,,,,,,,,,,,,,,,i,1,0.868,,,,,,他,i,,,1,63,143,55,1,,,,,,,,,,,,,,,,,,,,,,,,,,,,,,,,,,
,,,,,,,,,,,,,1,001,2024-09-01_22h31.34.002,IAT(Formal),2021.2.3,Win32,19.81218053,,,,,,,,,,,,,,,,i,1,0.6397,,,,,,执拗,i,,,1,64,144,40,1,,,,,,,,,,,,,,,,,,,,,,,,,,,,,,,,,,
,,,,,,,,,,,,,1,001,2024-09-01_22h31.34.002,IAT(Formal),2021.2.3,Win32,19.81218053,,,,,,,,,,,,,,,,i,1,0.4623,,,,,,鲁莽,i,,,1,65,145,38,1,,,,,,,,,,,,,,,,,,,,,,,,,,,,,,,,,,
,,,,,,,,,,,,,1,001,2024-09-01_22h31.34.002,IAT(Formal),2021.2.3,Win32,19.81218053,,,,,,,,,,,,,,,,i,1,0.4675,,,,,,悲观,i,,,1,66,146,34,1,,,,,,,,,,,,,,,,,,,,,,,,,,,,,,,,,,
,,,,,,,,,,,,,1,001,2024-09-01_22h31.34.002,IAT(Formal),2021.2.3,Win32,19.81218053,,,,,,,,,,,,,,,,e,1,1.0109,,,,,,勇敢,e,,,1,67,147,17,1,,,,,,,,,,,,,,,,,,,,,,,,,,,,,,,,,,
,,,,,,,,,,,,,1,001,2024-09-01_22h31.34.002,IAT(Formal),2021.2.3,Win32,19.81218053,,,,,,,,,,,,,,,,i,1,1.3757,,,,,,他们,i,,,1,68,148,6,1,,,,,,,,,,,,,,,,,,,,,,,,,,,,,,,,,,
,,,,,,,,,,,,,1,001,2024-09-01_22h31.34.002,IAT(Formal),2021.2.3,Win32,19.81218053,,,,,,,,,,,,,,,,i,1,0.4261,,,,,,他们,i,,,1,69,149,56,1,,,,,,,,,,,,,,,,,,,,,,,,,,,,,,,,,,
,,,,,,,,,,,,,1,001,2024-09-01_22h31.34.002,IAT(Formal),2021.2.3,Win32,19.81218053,,,,,,,,,,,,,,,,i,1,0.4569,,,,,,他的,i,,,1,70,150,7,1,,,,,,,,,,,,,,,,,,,,,,,,,,,,,,,,,,
,,,,,,,,,,,,,1,001,2024-09-01_22h31.34.002,IAT(Formal),2021.2.3,Win32,19.81218053,,,,,,,,,,,,,,,,e,1,0.5868,,,,,,活泼,e,,,1,71,151,28,1,,,,,,,,,,,,,,,,,,,,,,,,,,,,,,,,,,
,,,,,,,,,,,,,1,001,2024-09-01_22h31.34.002,IAT(Formal),2021.2.3,Win32,19.81218053,,,,,,,,,,,,,,,,i,1,0.5294,,,,,,下贱,i,,,1,72,152,49,1,,,,,,,,,,,,,,,,,,,,,,,,,,,,,,,,,,
,,,,,,,,,,,,,1,001,2024-09-01_22h31.34.002,IAT(Formal),2021.2.3,Win32,19.81218053,,,,,,,,,,,,,,,,e,1,0.6735,,,,,,自己,e,,,1,73,153,53,1,,,,,,,,,,,,,,,,,,,,,,,,,,,,,,,,,,
,,,,,,,,,,,,,1,001,2024-09-01_22h31.34.002,IAT(Formal),2021.2.3,Win32,19.81218053,,,,,,,,,,,,,,,,i,1,0.6169,,,,,,他的,i,,,1,74,154,67,1,,,,,,,,,,,,,,,,,,,,,,,,,,,,,,,,,,
,,,,,,,,,,,,,1,001,2024-09-01_22h31.34.002,IAT(Formal),2021.2.3,Win32,19.81218053,,,,,,,,,,,,,,,,e,1,0.5368,,,,,,俺,e,,,1,75,155,74,1,,,,,,,,,,,,,,,,,,,,,,,,,,,,,,,,,,
,,,,,,,,,,,,,1,001,2024-09-01_22h31.34.002,IAT(Formal),2021.2.3,Win32,19.81218053,,,,,,,,,,,,,,,,i,1,0.5985,,,,,,他们,i,,,1,76,156,76,1,,,,,,,,,,,,,,,,,,,,,,,,,,,,,,,,,,
,,,,,,,,,,,,,1,001,2024-09-01_22h31.34.002,IAT(Formal),2021.2.3,Win32,19.81218053,,,,,,,,,,,,,,,,i,1,0.4414,,,,,,他人,i,,,1,77,157,78,1,,,,,,,,,,,,,,,,,,,,,,,,,,,,,,,,,,
,,,,,,,,,,,,,1,001,2024-09-01_22h31.34.002,IAT(Formal),2021.2.3,Win32,19.81218053,,,,,,,,,,,,,,,,e,1,0.7428,,,,,,自己,e,,,1,78,158,73,1,,,,,,,,,,,,,,,,,,,,,,,,,,,,,,,,,,
,,,,,,,,,,,,,1,001,2024-09-01_22h31.34.002,IAT(Formal),2021.2.3,Win32,19.81218053,,,,,,,,,,,,,,,,e,1,0.4893,,,,,,我,e,,,1,79,159,60,1,,,,,,,,,,,,,,,,,,,,,,,,,,,,,,,,,,
,,,,,,,,,,,我们,i,1,001,2024-09-01_22h31.34.002,IAT(Formal),2021.2.3,Win32,19.81218053,,,,,,,,,,,,,,,,,,,,,,,,,,,,,,,,,space,26.6451,i,1,0.8458,0,0,0,2,1,,,,,,,,,,,,,,,,,,,,,,,,
,,,,,,,,,,,自己,i,1,001,2024-09-01_22h31.34.002,IAT(Formal),2021.2.3,Win32,19.81218053,,,,,,,,,,,,,,,,,,,,,,,,,,,,,,,,,,,i,1,0.6401,0,1,1,3,1,,,,,,,,,,,,,,,,,,,,,,,,
,,,,,,,,,,,俺,i,1,001,2024-09-01_22h31.34.002,IAT(Formal),2021.2.3,Win32,19.81218053,,,,,,,,,,,,,,,,,,,,,,,,,,,,,,,,,,,i,1,0.5699,0,2,2,4,1,,,,,,,,,,,,,,,,,,,,,,,,
,,,,,,,,,,,我的,i,1,001,2024-09-01_22h31.34.002,IAT(Formal),2021.2.3,Win32,19.81218053,,,,,,,,,,,,,,,,,,,,,,,,,,,,,,,,,,,i,1,0.5437,0,3,3,1,1,,,,,,,,,,,,,,,,,,,,,,,,
,,,,,,,,,,,他,e,1,001,2024-09-01_22h31.34.002,IAT(Formal),2021.2.3,Win32,19.81218053,,,,,,,,,,,,,,,,,,,,,,,,,,,,,,,,,,,e,1,0.6195,0,4,4,5,1,,,,,,,,,,,,,,,,,,,,,,,,
,,,,,,,,,,,他人,e,1,001,2024-09-01_22h31.34.002,IAT(Formal),2021.2.3,Win32,19.81218053,,,,,,,,,,,,,,,,,,,,,,,,,,,,,,,,,,,e,1,0.8432,0,5,5,8,1,,,,,,,,,,,,,,,,,,,,,,,,
,,,,,,,,,,,他的,e,1,001,2024-09-01_22h31.34.002,IAT(Formal),2021.2.3,Win32,19.81218053,,,,,,,,,,,,,,,,,,,,,,,,,,,,,,,,,,,e,1,0.4065,0,6,6,7,1,,,,,,,,,,,,,,,,,,,,,,,,
,,,,,,,,,,,他们,e,1,001,2024-09-01_22h31.34.002,IAT(Formal),2021.2.3,Win32,19.81218053,,,,,,,,,,,,,,,,,,,,,,,,,,,,,,,,,,,e,1,0.5257,0,7,7,6,1,,,,,,,,,,,,,,,,,,,,,,,,
,,,,,,,,,,,我,i,1,001,2024-09-01_22h31.34.002,IAT(Formal),2021.2.3,Win32,19.81218053,,,,,,,,,,,,,,,,,,,,,,,,,,,,,,,,,,,i,1,0.6764,0,8,8,0,1,,,,,,,,,,,,,,,,,,,,,,,,
,,,,,,,,,,,其他,e,1,001,2024-09-01_22h31.34.002,IAT(Formal),2021.2.3,Win32,19.81218053,,,,,,,,,,,,,,,,,,,,,,,,,,,,,,,,,,,e,1,0.7212,0,9,9,9,1,,,,,,,,,,,,,,,,,,,,,,,,
,,,,,,,,,,,,,1,001,2024-09-01_22h31.34.002,IAT(Formal),2021.2.3,Win32,19.81218053,,,,,,,,,,,,,,,,,,,,,,,,,,,,,,,,,,,,,,,,,,,space,29.3174,e,1,1.1347,0,0,0,27,1,热情,e,,,,,,,,,,,,
,,,,,,,,,,,,,1,001,2024-09-01_22h31.34.002,IAT(Formal),2021.2.3,Win32,19.81218053,,,,,,,,,,,,,,,,,,,,,,,,,,,,,,,,,,,,,,,,,,,,,e,1,0.7197,0,1,1,23,1,公正,e,,,,,,,,,,,,
,,,,,,,,,,,,,1,001,2024-09-01_22h31.34.002,IAT(Formal),2021.2.3,Win32,19.81218053,,,,,,,,,,,,,,,,,,,,,,,,,,,,,,,,,,,,,,,,,,,,,e,1,0.7821,0,2,2,57,1,他的,e,,,,,,,,,,,,
,,,,,,,,,,,,,1,001,2024-09-01_22h31.34.002,IAT(Formal),2021.2.3,Win32,19.81218053,,,,,,,,,,,,,,,,,,,,,,,,,,,,,,,,,,,,,,,,,,,,,i,1,0.7901,0,3,3,45,1,猖狂,i,,,,,,,,,,,,
,,,,,,,,,,,,,1,001,2024-09-01_22h31.34.002,IAT(Formal),2021.2.3,Win32,19.81218053,,,,,,,,,,,,,,,,,,,,,,,,,,,,,,,,,,,,,,,,,,,,,i,1,1.3172,0,4,4,48,1,轻率,i,,,,,,,,,,,,
,,,,,,,,,,,,,1,001,2024-09-01_22h31.34.002,IAT(Formal),2021.2.3,Win32,19.81218053,,,,,,,,,,,,,,,,,,,,,,,,,,,,,,,,,,,,,,,,,,,,,i,1,1.0582,0,5,5,74,1,俺,i,,,,,,,,,,,,
,,,,,,,,,,,,,1,001,2024-09-01_22h31.34.002,IAT(Formal),2021.2.3,Win32,19.81218053,,,,,,,,,,,,,,,,,,,,,,,,,,,,,,,,,,,,,,,,,,,,,i,1,1.0957,0,6,6,31,1,虚伪,i,,,,,,,,,,,,
,,,,,,,,,,,,,1,001,2024-09-01_22h31.34.002,IAT(Formal),2021.2.3,Win32,19.81218053,,,,,,,,,,,,,,,,,,,,,,,,,,,,,,,,,,,,,,,,,,,,,i,1,1.0582,0,7,7,35,1,消极,i,,,,,,,,,,,,
,,,,,,,,,,,,,1,001,2024-09-01_22h31.34.002,IAT(Formal),2021.2.3,Win32,19.81218053,,,,,,,,,,,,,,,,,,,,,,,,,,,,,,,,,,,,,,,,,,,,,i,1,0.745,0,8,8,40,1,执拗,i,,,,,,,,,,,,
,,,,,,,,,,,,,1,001,2024-09-01_22h31.34.002,IAT(Formal),2021.2.3,Win32,19.81218053,,,,,,,,,,,,,,,,,,,,,,,,,,,,,,,,,,,,,,,,,,,,,i,1,1.1255,0,9,9,52,1,我们,i,,,,,,,,,,,,
,,,,,,,,,,,,,1,001,2024-09-01_22h31.34.002,IAT(Formal),2021.2.3,Win32,19.81218053,,,,,,,,,,,,,,,,,,,,,,,,,,,,,,,,,,,,,,,,,,,,,e,1,0.6689,0,10,10,79,1,其他,e,,,,,,,,,,,,
,,,,,,,,,,,,,1,001,2024-09-01_22h31.34.002,IAT(Formal),2021.2.3,Win32,19.81218053,,,,,,,,,,,,,,,,,,,,,,,,,,,,,,,,,,,,,,,,,,,,,i,1,0.9383,0,11,11,63,1,自己,i,,,,,,,,,,,,
,,,,,,,,,,,,,1,001,2024-09-01_22h31.34.002,IAT(Formal),2021.2.3,Win32,19.81218053,,,,,,,,,,,,,,,,,,,,,,,,,,,,,,,,,,,,,,,,,,,,,i,1,1.0127,0,12,12,36,1,自卑,i,,,,,,,,,,,,
,,,,,,,,,,,,,1,001,2024-09-01_22h31.34.002,IAT(Formal),2021.2.3,Win32,19.81218053,,,,,,,,,,,,,,,,,,,,,,,,,,,,,,,,,,,,,,,,,,,,,e,1,0.8668,0,13,13,6,1,他们,e,,,,,,,,,,,,
,,,,,,,,,,,,,1,001,2024-09-01_22h31.34.002,IAT(Formal),2021.2.3,Win32,19.81218053,,,,,,,,,,,,,,,,,,,,,,,,,,,,,,,,,,,,,,,,,,,,,i,1,0.7784,0,14,14,61,1,我的,i,,,,,,,,,,,,
,,,,,,,,,,,,,1,001,2024-09-01_22h31.34.002,IAT(Formal),2021.2.3,Win32,19.81218053,,,,,,,,,,,,,,,,,,,,,,,,,,,,,,,,,,,,,,,,,,,,,i,1,0.753,0,15,15,64,1,俺,i,,,,,,,,,,,,
,,,,,,,,,,,,,1,001,2024-09-01_22h31.34.002,IAT(Formal),2021.2.3,Win32,19.81218053,,,,,,,,,,,,,,,,,,,,,,,,,,,,,,,,,,,,,,,,,,,,,e,1,1.2101,0,16,16,7,1,他的,e,,,,,,,,,,,,
,,,,,,,,,,,,,1,001,2024-09-01_22h31.34.002,IAT(Formal),2021.2.3,Win32,19.81218053,,,,,,,,,,,,,,,,,,,,,,,,,,,,,,,,,,,,,,,,,,,,,,0,,0,17,17,21,1,稳重,e,,,,,,,,,,,,
,,,,,,,,,,,,,1,001,2024-09-01_22h31.34.002,IAT(Formal),2021.2.3,Win32,19.81218053,,,,,,,,,,,,,,,,,,,,,,,,,,,,,,,,,,,,,,,,,,,,,i,1,1.0029,0,18,18,33,1,刻薄,i,,,,,,,,,,,,
,,,,,,,,,,,,,1,001,2024-09-01_22h31.34.002,IAT(Formal),2021.2.3,Win32,19.81218053,,,,,,,,,,,,,,,,,,,,,,,,,,,,,,,,,,,,,,,,,,,,,i,1,0.6007,0,19,19,49,1,下贱,i,,,,,,,,,,,,
,,,,,,,,,,,,,1,001,2024-09-01_22h31.34.002,IAT(Formal),2021.2.3,Win32,19.81218053,,,,,,,,,,,,,,,,,,,,,,,,,,,,,,,,,,,,,,,,,,,,,i,1,0.5786,0,20,20,32,1,愚蠢,i,,,,,,,,,,,,
,,,,,,,,,,,,,1,001,2024-09-01_22h31.34.002,IAT(Formal),2021.2.3,Win32,19.81218053,,,,,,,,,,,,,,,,,,,,,,,,,,,,,,,,,,,,,,,,,,,,,i,0,0.5423,0,21,21,20,1,认真,e,,,,,,,,,,,,
,,,,,,,,,,,,,1,001,2024-09-01_22h31.34.002,IAT(Formal),2021.2.3,Win32,19.81218053,,,,,,,,,,,,,,,,,,,,,,,,,,,,,,,,,,,,,,,,,,,,,,0,,0,22,22,9,1,其他,e,,,,,,,,,,,,
,,,,,,,,,,,,,1,001,2024-09-01_22h31.34.002,IAT(Formal),2021.2.3,Win32,19.81218053,,,,,,,,,,,,,,,,,,,,,,,,,,,,,,,,,,,,,,,,,,,,,e,1,1.0315,0,23,23,55,1,他,e,,,,,,,,,,,,
,,,,,,,,,,,,,1,001,2024-09-01_22h31.34.002,IAT(Formal),2021.2.3,Win32,19.81218053,,,,,,,,,,,,,,,,,,,,,,,,,,,,,,,,,,,,,,,,,,,,,i,0,0.8469,0,24,24,10,1,优秀,e,,,,,,,,,,,,
,,,,,,,,,,,,,1,001,2024-09-01_22h31.34.002,IAT(Formal),2021.2.3,Win32,19.81218053,,,,,,,,,,,,,,,,,,,,,,,,,,,,,,,,,,,,,,,,,,,,,i,1,1.0593,0,25,25,1,1,我的,i,,,,,,,,,,,,
,,,,,,,,,,,,,1,001,2024-09-01_22h31.34.002,IAT(Formal),2021.2.3,Win32,19.81218053,,,,,,,,,,,,,,,,,,,,,,,,,,,,,,,,,,,,,,,,,,,,,e,1,0.7644,0,26,26,75,1,他,e,,,,,,,,,,,,
,,,,,,,,,,,,,1,001,2024-09-01_22h31.34.002,IAT(Formal),2021.2.3,Win32,19.81218053,,,,,,,,,,,,,,,,,,,,,,,,,,,,,,,,,,,,,,,,,,,,,e,0,1.1565,0,27,27,47,1,固执,i,,,,,,,,,,,,
,,,,,,,,,,,,,1,001,2024-09-01_22h31.34.002,IAT(Formal),2021.2.3,Win32,19.81218053,,,,,,,,,,,,,,,,,,,,,,,,,,,,,,,,,,,,,,,,,,,,,i,1,0.8273,0,28,28,41,1,散漫,i,,,,,,,,,,,,
,,,,,,,,,,,,,1,001,2024-09-01_22h31.34.002,IAT(Formal),2021.2.3,Win32,19.81218053,,,,,,,,,,,,,,,,,,,,,,,,,,,,,,,,,,,,,,,,,,,,,e,1,1.0094,0,29,29,66,1,他们,e,,,,,,,,,,,,
,,,,,,,,,,,,,1,001,2024-09-01_22h31.34.002,IAT(Formal),2021.2.3,Win32,19.81218053,,,,,,,,,,,,,,,,,,,,,,,,,,,,,,,,,,,,,,,,,,,,,i,0,1.135,0,30,30,18,1,勤奋,e,,,,,,,,,,,,
,,,,,,,,,,,,,1,001,2024-09-01_22h31.34.002,IAT(Formal),2021.2.3,Win32,19.81218053,,,,,,,,,,,,,,,,,,,,,,,,,,,,,,,,,,,,,,,,,,,,,i,1,1.1066,0,31,31,42,1,凶狠,i,,,,,,,,,,,,
,,,,,,,,,,,,,1,001,2024-09-01_22h31.34.002,IAT(Formal),2021.2.3,Win32,19.81218053,,,,,,,,,,,,,,,,,,,,,,,,,,,,,,,,,,,,,,,,,,,,,i,1,0.6565,0,32,32,46,1,野蛮,i,,,,,,,,,,,,
,,,,,,,,,,,,,1,001,2024-09-01_22h31.34.002,IAT(Formal),2021.2.3,Win32,19.81218053,,,,,,,,,,,,,,,,,,,,,,,,,,,,,,,,,,,,,,,,,,,,,i,1,1.0349,0,33,33,51,1,我的,i,,,,,,,,,,,,
,,,,,,,,,,,,,1,001,2024-09-01_22h31.34.002,IAT(Formal),2021.2.3,Win32,19.81218053,,,,,,,,,,,,,,,,,,,,,,,,,,,,,,,,,,,,,,,,,,,,,i,0,0.7086,0,34,34,14,1,乐观,e,,,,,,,,,,,,
,,,,,,,,,,,,,1,001,2024-09-01_22h31.34.002,IAT(Formal),2021.2.3,Win32,19.81218053,,,,,,,,,,,,,,,,,,,,,,,,,,,,,,,,,,,,,,,,,,,,,e,1,1.2349,0,35,35,16,1,正直,e,,,,,,,,,,,,
,,,,,,,,,,,,,1,001,2024-09-01_22h31.34.002,IAT(Formal),2021.2.3,Win32,19.81218053,,,,,,,,,,,,,,,,,,,,,,,,,,,,,,,,,,,,,,,,,,,,,i,1,1.0602,0,36,36,54,1,俺,i,,,,,,,,,,,,
,,,,,,,,,,,,,1,001,2024-09-01_22h31.34.002,IAT(Formal),2021.2.3,Win32,19.81218053,,,,,,,,,,,,,,,,,,,,,,,,,,,,,,,,,,,,,,,,,,,,,e,1,1.0617,0,37,37,26,1,冷静,e,,,,,,,,,,,,
,,,,,,,,,,,,,1,001,2024-09-01_22h31.34.002,IAT(Formal),2021.2.3,Win32,19.81218053,,,,,,,,,,,,,,,,,,,,,,,,,,,,,,,,,,,,,,,,,,,,,i,0,0.7974,0,38,38,76,1,他们,e,,,,,,,,,,,,
,,,,,,,,,,,,,1,001,2024-09-01_22h31.34.002,IAT(Formal),2021.2.3,Win32,19.81218053,,,,,,,,,,,,,,,,,,,,,,,,,,,,,,,,,,,,,,,,,,,,,i,1,0.7931,0,39,39,73,1,自己,i,,,,,,,,,,,,
,,,,,,,,,,,,,1,001,2024-09-01_22h31.34.002,IAT(Formal),2021.2.3,Win32,19.81218053,,,,,,,,,,,,,,,,,,,,,,,,,,,,,,,,,,,,,,,,,,,,,e,1,0.9155,0,40,40,65,1,他,e,,,,,,,,,,,,
,,,,,,,,,,,,,1,001,2024-09-01_22h31.34.002,IAT(Formal),2021.2.3,Win32,19.81218053,,,,,,,,,,,,,,,,,,,,,,,,,,,,,,,,,,,,,,,,,,,,,e,1,1.168,0,41,41,12,1,聪明,e,,,,,,,,,,,,
,,,,,,,,,,,,,1,001,2024-09-01_22h31.34.002,IAT(Formal),2021.2.3,Win32,19.81218053,,,,,,,,,,,,,,,,,,,,,,,,,,,,,,,,,,,,,,,,,,,,,i,1,1.0072,0,42,42,0,1,我,i,,,,,,,,,,,,
,,,,,,,,,,,,,1,001,2024-09-01_22h31.34.002,IAT(Formal),2021.2.3,Win32,19.81218053,,,,,,,,,,,,,,,,,,,,,,,,,,,,,,,,,,,,,,,,,,,,,i,1,0.8911,0,43,43,44,1,暴躁,i,,,,,,,,,,,,
,,,,,,,,,,,,,1,001,2024-09-01_22h31.34.002,IAT(Formal),2021.2.3,Win32,19.81218053,,,,,,,,,,,,,,,,,,,,,,,,,,,,,,,,,,,,,,,,,,,,,i,1,0.6275,0,44,44,53,1,自己,i,,,,,,,,,,,,
,,,,,,,,,,,,,1,001,2024-09-01_22h31.34.002,IAT(Formal),2021.2.3,Win32,19.81218053,,,,,,,,,,,,,,,,,,,,,,,,,,,,,,,,,,,,,,,,,,,,,i,1,0.5652,0,45,45,71,1,我的,i,,,,,,,,,,,,
,,,,,,,,,,,,,1,001,2024-09-01_22h31.34.002,IAT(Formal),2021.2.3,Win32,19.81218053,,,,,,,,,,,,,,,,,,,,,,,,,,,,,,,,,,,,,,,,,,,,,e,1,0.9202,0,46,46,19,1,机智,e,,,,,,,,,,,,
,,,,,,,,,,,,,1,001,2024-09-01_22h31.34.002,IAT(Formal),2021.2.3,Win32,19.81218053,,,,,,,,,,,,,,,,,,,,,,,,,,,,,,,,,,,,,,,,,,,,,i,1,0.6689,0,47,47,30,1,卑鄙,i,,,,,,,,,,,,
,,,,,,,,,,,,,1,001,2024-09-01_22h31.34.002,IAT(Formal),2021.2.3,Win32,19.81218053,,,,,,,,,,,,,,,,,,,,,,,,,,,,,,,,,,,,,,,,,,,,,e,0,0.9252,0,48,48,62,1,我们,i,,,,,,,,,,,,
,,,,,,,,,,,,,1,001,2024-09-01_22h31.34.002,IAT(Formal),2021.2.3,Win32,19.81218053,,,,,,,,,,,,,,,,,,,,,,,,,,,,,,,,,,,,,,,,,,,,,i,1,1.0271,0,49,49,43,1,自私,i,,,,,,,,,,,,
,,,,,,,,,,,,,1,001,2024-09-01_22h31.34.002,IAT(Formal),2021.2.3,Win32,19.81218053,,,,,,,,,,,,,,,,,,,,,,,,,,,,,,,,,,,,,,,,,,,,,,0,,0,50,50,3,1,自己,i,,,,,,,,,,,,
,,,,,,,,,,,,,1,001,2024-09-01_22h31.34.002,IAT(Formal),2021.2.3,Win32,19.81218053,,,,,,,,,,,,,,,,,,,,,,,,,,,,,,,,,,,,,,,,,,,,,e,1,0.9463,0,51,51,56,1,他们,e,,,,,,,,,,,,
,,,,,,,,,,,,,1,001,2024-09-01_22h31.34.002,IAT(Formal),2021.2.3,Win32,19.81218053,,,,,,,,,,,,,,,,,,,,,,,,,,,,,,,,,,,,,,,,,,,,,e,1,0.985,0,52,52,24,1,朴实,e,,,,,,,,,,,,
,,,,,,,,,,,,,1,001,2024-09-01_22h31.34.002,IAT(Formal),2021.2.3,Win32,19.81218053,,,,,,,,,,,,,,,,,,,,,,,,,,,,,,,,,,,,,,,,,,,,,i,0,0.6343,0,53,53,77,1,他的,e,,,,,,,,,,,,
,,,,,,,,,,,,,1,001,2024-09-01_22h31.34.002,IAT(Formal),2021.2.3,Win32,19.81218053,,,,,,,,,,,,,,,,,,,,,,,,,,,,,,,,,,,,,,,,,,,,,i,1,0.7992,0,54,54,70,1,我,i,,,,,,,,,,,,
,,,,,,,,,,,,,1,001,2024-09-01_22h31.34.002,IAT(Formal),2021.2.3,Win32,19.81218053,,,,,,,,,,,,,,,,,,,,,,,,,,,,,,,,,,,,,,,,,,,,,e,1,0.8967,0,55,55,25,1,细腻,e,,,,,,,,,,,,
,,,,,,,,,,,,,1,001,2024-09-01_22h31.34.002,IAT(Formal),2021.2.3,Win32,19.81218053,,,,,,,,,,,,,,,,,,,,,,,,,,,,,,,,,,,,,,,,,,,,,i,1,0.6421,0,56,56,34,1,悲观,i,,,,,,,,,,,,
,,,,,,,,,,,,,1,001,2024-09-01_22h31.34.002,IAT(Formal),2021.2.3,Win32,19.81218053,,,,,,,,,,,,,,,,,,,,,,,,,,,,,,,,,,,,,,,,,,,,,e,1,0.7937,0,57,57,11,1,崇高,e,,,,,,,,,,,,
,,,,,,,,,,,,,1,001,2024-09-01_22h31.34.002,IAT(Formal),2021.2.3,Win32,19.81218053,,,,,,,,,,,,,,,,,,,,,,,,,,,,,,,,,,,,,,,,,,,,,e,1,0.5211,0,58,58,13,1,杰出,e,,,,,,,,,,,,
,,,,,,,,,,,,,1,001,2024-09-01_22h31.34.002,IAT(Formal),2021.2.3,Win32,19.81218053,,,,,,,,,,,,,,,,,,,,,,,,,,,,,,,,,,,,,,,,,,,,,e,1,0.7099,0,59,59,15,1,诚实,e,,,,,,,,,,,,
,,,,,,,,,,,,,1,001,2024-09-01_22h31.34.002,IAT(Formal),2021.2.3,Win32,19.81218053,,,,,,,,,,,,,,,,,,,,,,,,,,,,,,,,,,,,,,,,,,,,,i,0,0.6118,0,60,60,67,1,他的,e,,,,,,,,,,,,
,,,,,,,,,,,,,1,001,2024-09-01_22h31.34.002,IAT(Formal),2021.2.3,Win32,19.81218053,,,,,,,,,,,,,,,,,,,,,,,,,,,,,,,,,,,,,,,,,,,,,i,1,0.8013,0,61,61,50,1,我,i,,,,,,,,,,,,
,,,,,,,,,,,,,1,001,2024-09-01_22h31.34.002,IAT(Formal),2021.2.3,Win32,19.81218053,,,,,,,,,,,,,,,,,,,,,,,,,,,,,,,,,,,,,,,,,,,,,i,1,0.4593,0,62,62,60,1,我,i,,,,,,,,,,,,
,,,,,,,,,,,,,1,001,2024-09-01_22h31.34.002,IAT(Formal),2021.2.3,Win32,19.81218053,,,,,,,,,,,,,,,,,,,,,,,,,,,,,,,,,,,,,,,,,,,,,e,1,0.6589,0,63,63,28,1,活泼,e,,,,,,,,,,,,
,,,,,,,,,,,,,1,001,2024-09-01_22h31.34.002,IAT(Formal),2021.2.3,Win32,19.81218053,,,,,,,,,,,,,,,,,,,,,,,,,,,,,,,,,,,,,,,,,,,,,e,1,0.5786,0,64,64,22,1,无私,e,,,,,,,,,,,,
,,,,,,,,,,,,,1,001,2024-09-01_22h31.34.002,IAT(Formal),2021.2.3,Win32,19.81218053,,,,,,,,,,,,,,,,,,,,,,,,,,,,,,,,,,,,,,,,,,,,,i,0,0.7498,0,65,65,59,1,其他,e,,,,,,,,,,,,
,,,,,,,,,,,,,1,001,2024-09-01_22h31.34.002,IAT(Formal),2021.2.3,Win32,19.81218053,,,,,,,,,,,,,,,,,,,,,,,,,,,,,,,,,,,,,,,,,,,,,i,1,0.9431,0,66,66,38,1,鲁莽,i,,,,,,,,,,,,
,,,,,,,,,,,,,1,001,2024-09-01_22h31.34.002,IAT(Formal),2021.2.3,Win32,19.81218053,,,,,,,,,,,,,,,,,,,,,,,,,,,,,,,,,,,,,,,,,,,,,e,1,0.7854,0,67,67,58,1,他人,e,,,,,,,,,,,,
,,,,,,,,,,,,,1,001,2024-09-01_22h31.34.002,IAT(Formal),2021.2.3,Win32,19.81218053,,,,,,,,,,,,,,,,,,,,,,,,,,,,,,,,,,,,,,,,,,,,,e,1,0.4678,0,68,68,68,1,他人,e,,,,,,,,,,,,
,,,,,,,,,,,,,1,001,2024-09-01_22h31.34.002,IAT(Formal),2021.2.3,Win32,19.81218053,,,,,,,,,,,,,,,,,,,,,,,,,,,,,,,,,,,,,,,,,,,,,i,1,0.5884,0,69,69,2,1,我们,i,,,,,,,,,,,,
,,,,,,,,,,,,,1,001,2024-09-01_22h31.34.002,IAT(Formal),2021.2.3,Win32,19.81218053,,,,,,,,,,,,,,,,,,,,,,,,,,,,,,,,,,,,,,,,,,,,,e,1,0.5564,0,70,70,69,1,其他,e,,,,,,,,,,,,
,,,,,,,,,,,,,1,001,2024-09-01_22h31.34.002,IAT(Formal),2021.2.3,Win32,19.81218053,,,,,,,,,,,,,,,,,,,,,,,,,,,,,,,,,,,,,,,,,,,,,i,1,0.7576,0,71,71,37,1,傲慢,i,,,,,,,,,,,,
,,,,,,,,,,,,,1,001,2024-09-01_22h31.34.002,IAT(Formal),2021.2.3,Win32,19.81218053,,,,,,,,,,,,,,,,,,,,,,,,,,,,,,,,,,,,,,,,,,,,,i,1,1.2286,0,72,72,4,1,俺,i,,,,,,,,,,,,
,,,,,,,,,,,,,1,001,2024-09-01_22h31.34.002,IAT(Formal),2021.2.3,Win32,19.81218053,,,,,,,,,,,,,,,,,,,,,,,,,,,,,,,,,,,,,,,,,,,,,e,1,0.6713,0,73,73,78,1,他人,e,,,,,,,,,,,,
,,,,,,,,,,,,,1,001,2024-09-01_22h31.34.002,IAT(Formal),2021.2.3,Win32,19.81218053,,,,,,,,,,,,,,,,,,,,,,,,,,,,,,,,,,,,,,,,,,,,,i,1,0.6773,0,74,74,72,1,我们,i,,,,,,,,,,,,
,,,,,,,,,,,,,1,001,2024-09-01_22h31.34.002,IAT(Formal),2021.2.3,Win32,19.81218053,,,,,,,,,,,,,,,,,,,,,,,,,,,,,,,,,,,,,,,,,,,,,e,1,0.6818,0,75,75,29,1,诚恳,e,,,,,,,,,,,,
,,,,,,,,,,,,,1,001,2024-09-01_22h31.34.002,IAT(Formal),2021.2.3,Win32,19.81218053,,,,,,,,,,,,,,,,,,,,,,,,,,,,,,,,,,,,,,,,,,,,,e,1,0.9075,0,76,76,8,1,他人,e,,,,,,,,,,,,
,,,,,,,,,,,,,1,001,2024-09-01_22h31.34.002,IAT(Formal),2021.2.3,Win32,19.81218053,,,,,,,,,,,,,,,,,,,,,,,,,,,,,,,,,,,,,,,,,,,,,e,1,0.6583,0,77,77,17,1,勇敢,e,,,,,,,,,,,,
,,,,,,,,,,,,,1,001,2024-09-01_22h31.34.002,IAT(Formal),2021.2.3,Win32,19.81218053,,,,,,,,,,,,,,,,,,,,,,,,,,,,,,,,,,,,,,,,,,,,,e,1,0.4552,0,78,78,5,1,他,e,,,,,,,,,,,,
,,,,,,,,,,,,,1,001,2024-09-01_22h31.34.002,IAT(Formal),2021.2.3,Win32,19.81218053,,,,,,,,,,,,,,,,,,,,,,,,,,,,,,,,,,,,,,,,,,,,,i,1,0.7053,0,79,79,39,1,冒失,i,,,,,,,,,,,,
,,,,,,,,,,,,,1,001,2024-09-01_22h31.34.002,IAT(Formal),2021.2.3,Win32,19.81218053,,,,,,,,,,,,,,,,,,,,,,,,,,,,,,,,,,,,,,,,,,,,,,,,,,,,,自己,i,space,8.228,e,0,1.112,0,0,0,53,1,,
,,,,,,,,,,,,,1,001,2024-09-01_22h31.34.002,IAT(Formal),2021.2.3,Win32,19.81218053,,,,,,,,,,,,,,,,,,,,,,,,,,,,,,,,,,,,,,,,,,,,,,,,,,,,,细腻,e,,,e,1,0.698,0,1,1,25,1,,
,,,,,,,,,,,,,1,001,2024-09-01_22h31.34.002,IAT(Formal),2021.2.3,Win32,19.81218053,,,,,,,,,,,,,,,,,,,,,,,,,,,,,,,,,,,,,,,,,,,,,,,,,,,,,他人,e,,,e,1,1.1437,0,2,2,58,1,,
,,,,,,,,,,,,,1,001,2024-09-01_22h31.34.002,IAT(Formal),2021.2.3,Win32,19.81218053,,,,,,,,,,,,,,,,,,,,,,,,,,,,,,,,,,,,,,,,,,,,,,,,,,,,,我们,i,,,i,1,0.651,0,3,3,52,1,,
,,,,,,,,,,,,,1,001,2024-09-01_22h31.34.002,IAT(Formal),2021.2.3,Win32,19.81218053,,,,,,,,,,,,,,,,,,,,,,,,,,,,,,,,,,,,,,,,,,,,,,,,,,,,,下贱,i,,,i,1,0.5941,0,4,4,49,1,,
,,,,,,,,,,,,,1,001,2024-09-01_22h31.34.002,IAT(Formal),2021.2.3,Win32,19.81218053,,,,,,,,,,,,,,,,,,,,,,,,,,,,,,,,,,,,,,,,,,,,,,,,,,,,,俺,i,,,i,1,0.6545,0,5,5,74,1,,
,,,,,,,,,,,,,1,001,2024-09-01_22h31.34.002,IAT(Formal),2021.2.3,Win32,19.81218053,,,,,,,,,,,,,,,,,,,,,,,,,,,,,,,,,,,,,,,,,,,,,,,,,,,,,他人,e,,,e,1,0.661,0,6,6,78,1,,
,,,,,,,,,,,,,1,001,2024-09-01_22h31.34.002,IAT(Formal),2021.2.3,Win32,19.81218053,,,,,,,,,,,,,,,,,,,,,,,,,,,,,,,,,,,,,,,,,,,,,,,,,,,,,公正,e,,,e,1,0.6133,0,7,7,23,1,,
,,,,,,,,,,,,,1,001,2024-09-01_22h31.34.002,IAT(Formal),2021.2.3,Win32,19.81218053,,,,,,,,,,,,,,,,,,,,,,,,,,,,,,,,,,,,,,,,,,,,,,,,,,,,,他人,e,,,e,1,1.0016,0,8,8,68,1,,
,,,,,,,,,,,,,1,001,2024-09-01_22h31.34.002,IAT(Formal),2021.2.3,Win32,19.81218053,,,,,,,,,,,,,,,,,,,,,,,,,,,,,,,,,,,,,,,,,,,,,,,,,,,,,自卑,i,,,i,1,0.8561,0,9,9,36,1,,
,,,,,,,,,,,,,1,001,2024-09-01_22h31.34.002,IAT(Formal),2021.2.3,Win32,19.81218053,,,,,,,,,,,,,,,,,,,,,,,,,,,,,,,,,,,,,,,,,,,,,,,,,,,,,散漫,i,,,i,1,0.6018,0,10,10,41,1,,
,,,,,,,,,,,,,1,001,2024-09-01_22h31.34.002,IAT(Formal),2021.2.3,Win32,19.81218053,,,,,,,,,,,,,,,,,,,,,,,,,,,,,,,,,,,,,,,,,,,,,,,,,,,,,刻薄,i,,,i,1,0.6621,0,11,11,33,1,,
,,,,,,,,,,,,,1,001,2024-09-01_22h31.34.002,IAT(Formal),2021.2.3,Win32,19.81218053,,,,,,,,,,,,,,,,,,,,,,,,,,,,,,,,,,,,,,,,,,,,,,,,,,,,,自私,i,,,i,1,0.5726,0,12,12,43,1,,
,,,,,,,,,,,,,1,001,2024-09-01_22h31.34.002,IAT(Formal),2021.2.3,Win32,19.81218053,,,,,,,,,,,,,,,,,,,,,,,,,,,,,,,,,,,,,,,,,,,,,,,,,,,,,杰出,e,,,e,1,0.5431,0,13,13,13,1,,
,,,,,,,,,,,,,1,001,2024-09-01_22h31.34.002,IAT(Formal),2021.2.3,Win32,19.81218053,,,,,,,,,,,,,,,,,,,,,,,,,,,,,,,,,,,,,,,,,,,,,,,,,,,,,认真,e,,,e,1,0.6016,0,14,14,20,1,,
,,,,,,,,,,,,,1,001,2024-09-01_22h31.34.002,IAT(Formal),2021.2.3,Win32,19.81218053,,,,,,,,,,,,,,,,,,,,,,,,,,,,,,,,,,,,,,,,,,,,,,,,,,,,,我的,i,,,i,1,0.7239,0,15,15,61,1,,
,,,,,,,,,,,,,1,001,2024-09-01_22h31.34.002,IAT(Formal),2021.2.3,Win32,19.81218053,,,,,,,,,,,,,,,,,,,,,,,,,,,,,,,,,,,,,,,,,,,,,,,,,,,,,愚蠢,i,,,i,1,0.7711,0,16,16,32,1,,
,,,,,,,,,,,,,1,001,2024-09-01_22h31.34.002,IAT(Formal),2021.2.3,Win32,19.81218053,,,,,,,,,,,,,,,,,,,,,,,,,,,,,,,,,,,,,,,,,,,,,,,,,,,,,他的,e,,,e,1,0.5641,0,17,17,77,1,,
,,,,,,,,,,,,,1,001,2024-09-01_22h31.34.002,IAT(Formal),2021.2.3,Win32,19.81218053,,,,,,,,,,,,,,,,,,,,,,,,,,,,,,,,,,,,,,,,,,,,,,,,,,,,,朴实,e,,,e,1,0.8109,0,18,18,24,1,,
,,,,,,,,,,,,,1,001,2024-09-01_22h31.34.002,IAT(Formal),2021.2.3,Win32,19.81218053,,,,,,,,,,,,,,,,,,,,,,,,,,,,,,,,,,,,,,,,,,,,,,,,,,,,,鲁莽,i,,,i,1,0.7632,0,19,19,38,1,,
,,,,,,,,,,,,,1,001,2024-09-01_22h31.34.002,IAT(Formal),2021.2.3,Win32,19.81218053,,,,,,,,,,,,,,,,,,,,,,,,,,,,,,,,,,,,,,,,,,,,,,,,,,,,,他,e,,,e,1,0.8292,0,20,20,5,1,,
,,,,,,,,,,,,,1,001,2024-09-01_22h31.34.002,IAT(Formal),2021.2.3,Win32,19.81218053,,,,,,,,,,,,,,,,,,,,,,,,,,,,,,,,,,,,,,,,,,,,,,,,,,,,,其他,e,,,e,1,0.5994,0,21,21,59,1,,
,,,,,,,,,,,,,1,001,2024-09-01_22h31.34.002,IAT(Formal),2021.2.3,Win32,19.81218053,,,,,,,,,,,,,,,,,,,,,,,,,,,,,,,,,,,,,,,,,,,,,,,,,,,,,傲慢,i,,,i,1,0.9355,0,22,22,37,1,,
,,,,,,,,,,,,,1,001,2024-09-01_22h31.34.002,IAT(Formal),2021.2.3,Win32,19.81218053,,,,,,,,,,,,,,,,,,,,,,,,,,,,,,,,,,,,,,,,,,,,,,,,,,,,,他们,e,,,e,1,0.8305,0,23,23,66,1,,
,,,,,,,,,,,,,1,001,2024-09-01_22h31.34.002,IAT(Formal),2021.2.3,Win32,19.81218053,,,,,,,,,,,,,,,,,,,,,,,,,,,,,,,,,,,,,,,,,,,,,,,,,,,,,正直,e,,,e,1,0.5723,0,24,24,16,1,,
,,,,,,,,,,,,,1,001,2024-09-01_22h31.34.002,IAT(Formal),2021.2.3,Win32,19.81218053,,,,,,,,,,,,,,,,,,,,,,,,,,,,,,,,,,,,,,,,,,,,,,,,,,,,,他的,e,,,i,0,1.0307,0,25,25,7,1,,
,,,,,,,,,,,,,1,001,2024-09-01_22h31.34.002,IAT(Formal),2021.2.3,Win32,19.81218053,,,,,,,,,,,,,,,,,,,,,,,,,,,,,,,,,,,,,,,,,,,,,,,,,,,,,机智,e,,,e,1,0.7254,0,26,26,19,1,,
,,,,,,,,,,,,,1,001,2024-09-01_22h31.34.002,IAT(Formal),2021.2.3,Win32,19.81218053,,,,,,,,,,,,,,,,,,,,,,,,,,,,,,,,,,,,,,,,,,,,,,,,,,,,,他人,e,,,e,1,0.7895,0,27,27,8,1,,
,,,,,,,,,,,,,1,001,2024-09-01_22h31.34.002,IAT(Formal),2021.2.3,Win32,19.81218053,,,,,,,,,,,,,,,,,,,,,,,,,,,,,,,,,,,,,,,,,,,,,,,,,,,,,其他,e,,,e,1,0.5335,0,28,28,9,1,,
,,,,,,,,,,,,,1,001,2024-09-01_22h31.34.002,IAT(Formal),2021.2.3,Win32,19.81218053,,,,,,,,,,,,,,,,,,,,,,,,,,,,,,,,,,,,,,,,,,,,,,,,,,,,,俺,i,,,i,1,0.6786,0,29,29,4,1,,
,,,,,,,,,,,,,1,001,2024-09-01_22h31.34.002,IAT(Formal),2021.2.3,Win32,19.81218053,,,,,,,,,,,,,,,,,,,,,,,,,,,,,,,,,,,,,,,,,,,,,,,,,,,,,我们,i,,,i,1,0.8373,0,30,30,2,1,,
,,,,,,,,,,,,,1,001,2024-09-01_22h31.34.002,IAT(Formal),2021.2.3,Win32,19.81218053,,,,,,,,,,,,,,,,,,,,,,,,,,,,,,,,,,,,,,,,,,,,,,,,,,,,,活泼,e,,,e,1,0.7518,0,31,31,28,1,,
,,,,,,,,,,,,,1,001,2024-09-01_22h31.34.002,IAT(Formal),2021.2.3,Win32,19.81218053,,,,,,,,,,,,,,,,,,,,,,,,,,,,,,,,,,,,,,,,,,,,,,,,,,,,,冷静,e,,,e,1,0.655,0,32,32,26,1,,
,,,,,,,,,,,,,1,001,2024-09-01_22h31.34.002,IAT(Formal),2021.2.3,Win32,19.81218053,,,,,,,,,,,,,,,,,,,,,,,,,,,,,,,,,,,,,,,,,,,,,,,,,,,,,诚恳,e,,,e,1,0.5521,0,33,33,29,1,,
,,,,,,,,,,,,,1,001,2024-09-01_22h31.34.002,IAT(Formal),2021.2.3,Win32,19.81218053,,,,,,,,,,,,,,,,,,,,,,,,,,,,,,,,,,,,,,,,,,,,,,,,,,,,,勤奋,e,,,e,1,0.5432,0,34,34,18,1,,
,,,,,,,,,,,,,1,001,2024-09-01_22h31.34.002,IAT(Formal),2021.2.3,Win32,19.81218053,,,,,,,,,,,,,,,,,,,,,,,,,,,,,,,,,,,,,,,,,,,,,,,,,,,,,自己,i,,,e,0,0.9829,0,35,35,3,1,,
,,,,,,,,,,,,,1,001,2024-09-01_22h31.34.002,IAT(Formal),2021.2.3,Win32,19.81218053,,,,,,,,,,,,,,,,,,,,,,,,,,,,,,,,,,,,,,,,,,,,,,,,,,,,,他,e,,,e,1,0.7677,0,36,36,75,1,,
,,,,,,,,,,,,,1,001,2024-09-01_22h31.34.002,IAT(Formal),2021.2.3,Win32,19.81218053,,,,,,,,,,,,,,,,,,,,,,,,,,,,,,,,,,,,,,,,,,,,,,,,,,,,,俺,i,,,i,1,0.6423,0,37,37,64,1,,
,,,,,,,,,,,,,1,001,2024-09-01_22h31.34.002,IAT(Formal),2021.2.3,Win32,19.81218053,,,,,,,,,,,,,,,,,,,,,,,,,,,,,,,,,,,,,,,,,,,,,,,,,,,,,热情,e,,,e,1,0.9099,0,38,38,27,1,,
,,,,,,,,,,,,,1,001,2024-09-01_22h31.34.002,IAT(Formal),2021.2.3,Win32,19.81218053,,,,,,,,,,,,,,,,,,,,,,,,,,,,,,,,,,,,,,,,,,,,,,,,,,,,,其他,e,,,e,1,1.169,0,39,39,79,1,,
,,,,,,,,,,,,,1,001,2024-09-01_22h31.34.002,IAT(Formal),2021.2.3,Win32,19.81218053,,,,,,,,,,,,,,,,,,,,,,,,,,,,,,,,,,,,,,,,,,,,,,,,,,,,,其他,e,,,e,1,0.4527,0,40,40,69,1,,
,,,,,,,,,,,,,1,001,2024-09-01_22h31.34.002,IAT(Formal),2021.2.3,Win32,19.81218053,,,,,,,,,,,,,,,,,,,,,,,,,,,,,,,,,,,,,,,,,,,,,,,,,,,,,野蛮,i,,,e,0,0.6919,0,41,41,46,1,,
,,,,,,,,,,,,,1,001,2024-09-01_22h31.34.002,IAT(Formal),2021.2.3,Win32,19.81218053,,,,,,,,,,,,,,,,,,,,,,,,,,,,,,,,,,,,,,,,,,,,,,,,,,,,,他们,e,,,e,1,0.8494,0,42,42,76,1,,
,,,,,,,,,,,,,1,001,2024-09-01_22h31.34.002,IAT(Formal),2021.2.3,Win32,19.81218053,,,,,,,,,,,,,,,,,,,,,,,,,,,,,,,,,,,,,,,,,,,,,,,,,,,,,执拗,i,,,i,1,0.9262,0,43,43,40,1,,
,,,,,,,,,,,,,1,001,2024-09-01_22h31.34.002,IAT(Formal),2021.2.3,Win32,19.81218053,,,,,,,,,,,,,,,,,,,,,,,,,,,,,,,,,,,,,,,,,,,,,,,,,,,,,我的,i,,,i,1,0.9345,0,44,44,71,1,,
,,,,,,,,,,,,,1,001,2024-09-01_22h31.34.002,IAT(Formal),2021.2.3,Win32,19.81218053,,,,,,,,,,,,,,,,,,,,,,,,,,,,,,,,,,,,,,,,,,,,,,,,,,,,,卑鄙,i,,,i,1,0.6711,0,45,45,30,1,,
,,,,,,,,,,,,,1,001,2024-09-01_22h31.34.002,IAT(Formal),2021.2.3,Win32,19.81218053,,,,,,,,,,,,,,,,,,,,,,,,,,,,,,,,,,,,,,,,,,,,,,,,,,,,,虚伪,i,,,i,1,0.627,0,46,46,31,1,,
,,,,,,,,,,,,,1,001,2024-09-01_22h31.34.002,IAT(Formal),2021.2.3,Win32,19.81218053,,,,,,,,,,,,,,,,,,,,,,,,,,,,,,,,,,,,,,,,,,,,,,,,,,,,,我,i,,,i,1,0.7522,0,47,47,70,1,,
,,,,,,,,,,,,,1,001,2024-09-01_22h31.34.002,IAT(Formal),2021.2.3,Win32,19.81218053,,,,,,,,,,,,,,,,,,,,,,,,,,,,,,,,,,,,,,,,,,,,,,,,,,,,,他的,e,,,e,1,0.7484,0,48,48,57,1,,
,,,,,,,,,,,,,1,001,2024-09-01_22h31.34.002,IAT(Formal),2021.2.3,Win32,19.81218053,,,,,,,,,,,,,,,,,,,,,,,,,,,,,,,,,,,,,,,,,,,,,,,,,,,,,他们,e,,,e,1,1.0368,0,49,49,6,1,,
,,,,,,,,,,,,,1,001,2024-09-01_22h31.34.002,IAT(Formal),2021.2.3,Win32,19.81218053,,,,,,,,,,,,,,,,,,,,,,,,,,,,,,,,,,,,,,,,,,,,,,,,,,,,,无私,e,,,e,1,0.6638,0,50,50,22,1,,
,,,,,,,,,,,,,1,001,2024-09-01_22h31.34.002,IAT(Formal),2021.2.3,Win32,19.81218053,,,,,,,,,,,,,,,,,,,,,,,,,,,,,,,,,,,,,,,,,,,,,,,,,,,,,聪明,e,,,e,1,0.5507,0,51,51,12,1,,
,,,,,,,,,,,,,1,001,2024-09-01_22h31.34.002,IAT(Formal),2021.2.3,Win32,19.81218053,,,,,,,,,,,,,,,,,,,,,,,,,,,,,,,,,,,,,,,,,,,,,,,,,,,,,自己,i,,,i,1,1.3814,0,52,52,63,1,,
,,,,,,,,,,,,,1,001,2024-09-01_22h31.34.002,IAT(Formal),2021.2.3,Win32,19.81218053,,,,,,,,,,,,,,,,,,,,,,,,,,,,,,,,,,,,,,,,,,,,,,,,,,,,,我的,i,,,i,1,0.4901,0,53,53,51,1,,
,,,,,,,,,,,,,1,001,2024-09-01_22h31.34.002,IAT(Formal),2021.2.3,Win32,19.81218053,,,,,,,,,,,,,,,,,,,,,,,,,,,,,,,,,,,,,,,,,,,,,,,,,,,,,我的,i,,,i,1,0.4182,0,54,54,1,1,,
,,,,,,,,,,,,,1,001,2024-09-01_22h31.34.002,IAT(Formal),2021.2.3,Win32,19.81218053,,,,,,,,,,,,,,,,,,,,,,,,,,,,,,,,,,,,,,,,,,,,,,,,,,,,,诚实,e,,,e,1,0.7051,0,55,55,15,1,,
,,,,,,,,,,,,,1,001,2024-09-01_22h31.34.002,IAT(Formal),2021.2.3,Win32,19.81218053,,,,,,,,,,,,,,,,,,,,,,,,,,,,,,,,,,,,,,,,,,,,,,,,,,,,,稳重,e,,,e,1,0.5386,0,56,56,21,1,,
,,,,,,,,,,,,,1,001,2024-09-01_22h31.34.002,IAT(Formal),2021.2.3,Win32,19.81218053,,,,,,,,,,,,,,,,,,,,,,,,,,,,,,,,,,,,,,,,,,,,,,,,,,,,,我们,i,,,i,1,0.8031,0,57,57,72,1,,
,,,,,,,,,,,,,1,001,2024-09-01_22h31.34.002,IAT(Formal),2021.2.3,Win32,19.81218053,,,,,,,,,,,,,,,,,,,,,,,,,,,,,,,,,,,,,,,,,,,,,,,,,,,,,轻率,i,,,e,0,0.8167,0,58,58,48,1,,
,,,,,,,,,,,,,1,001,2024-09-01_22h31.34.002,IAT(Formal),2021.2.3,Win32,19.81218053,,,,,,,,,,,,,,,,,,,,,,,,,,,,,,,,,,,,,,,,,,,,,,,,,,,,,我,i,,,i,1,0.7943,0,59,59,60,1,,
,,,,,,,,,,,,,1,001,2024-09-01_22h31.34.002,IAT(Formal),2021.2.3,Win32,19.81218053,,,,,,,,,,,,,,,,,,,,,,,,,,,,,,,,,,,,,,,,,,,,,,,,,,,,,优秀,e,,,e,1,0.6629,0,60,60,10,1,,
,,,,,,,,,,,,,1,001,2024-09-01_22h31.34.002,IAT(Formal),2021.2.3,Win32,19.81218053,,,,,,,,,,,,,,,,,,,,,,,,,,,,,,,,,,,,,,,,,,,,,,,,,,,,,勇敢,e,,,e,1,0.7314,0,61,61,17,1,,
,,,,,,,,,,,,,1,001,2024-09-01_22h31.34.002,IAT(Formal),2021.2.3,Win32,19.81218053,,,,,,,,,,,,,,,,,,,,,,,,,,,,,,,,,,,,,,,,,,,,,,,,,,,,,他的,e,,,i,0,0.7206,0,62,62,67,1,,
,,,,,,,,,,,,,1,001,2024-09-01_22h31.34.002,IAT(Formal),2021.2.3,Win32,19.81218053,,,,,,,,,,,,,,,,,,,,,,,,,,,,,,,,,,,,,,,,,,,,,,,,,,,,,冒失,i,,,i,1,0.8351,0,63,63,39,1,,
,,,,,,,,,,,,,1,001,2024-09-01_22h31.34.002,IAT(Formal),2021.2.3,Win32,19.81218053,,,,,,,,,,,,,,,,,,,,,,,,,,,,,,,,,,,,,,,,,,,,,,,,,,,,,俺,i,,,i,1,0.8749,0,64,64,54,1,,
,,,,,,,,,,,,,1,001,2024-09-01_22h31.34.002,IAT(Formal),2021.2.3,Win32,19.81218053,,,,,,,,,,,,,,,,,,,,,,,,,,,,,,,,,,,,,,,,,,,,,,,,,,,,,我,i,,,i,1,0.5037,0,65,65,0,1,,
,,,,,,,,,,,,,1,001,2024-09-01_22h31.34.002,IAT(Formal),2021.2.3,Win32,19.81218053,,,,,,,,,,,,,,,,,,,,,,,,,,,,,,,,,,,,,,,,,,,,,,,,,,,,,猖狂,i,,,i,1,0.853,0,66,66,45,1,,
,,,,,,,,,,,,,1,001,2024-09-01_22h31.34.002,IAT(Formal),2021.2.3,Win32,19.81218053,,,,,,,,,,,,,,,,,,,,,,,,,,,,,,,,,,,,,,,,,,,,,,,,,,,,,崇高,e,,,e,1,0.6471,0,67,67,11,1,,
,,,,,,,,,,,,,1,001,2024-09-01_22h31.34.002,IAT(Formal),2021.2.3,Win32,19.81218053,,,,,,,,,,,,,,,,,,,,,,,,,,,,,,,,,,,,,,,,,,,,,,,,,,,,,乐观,e,,,e,1,0.886,0,68,68,14,1,,
,,,,,,,,,,,,,1,001,2024-09-01_22h31.34.002,IAT(Formal),2021.2.3,Win32,19.81218053,,,,,,,,,,,,,,,,,,,,,,,,,,,,,,,,,,,,,,,,,,,,,,,,,,,,,自己,i,,,i,1,0.9062,0,69,69,73,1,,
,,,,,,,,,,,,,1,001,2024-09-01_22h31.34.002,IAT(Formal),2021.2.3,Win32,19.81218053,,,,,,,,,,,,,,,,,,,,,,,,,,,,,,,,,,,,,,,,,,,,,,,,,,,,,我,i,,,i,1,0.4377,0,70,70,50,1,,
,,,,,,,,,,,,,1,001,2024-09-01_22h31.34.002,IAT(Formal),2021.2.3,Win32,19.81218053,,,,,,,,,,,,,,,,,,,,,,,,,,,,,,,,,,,,,,,,,,,,,,,,,,,,,凶狠,i,,,i,1,1.0966,0,71,71,42,1,,
,,,,,,,,,,,,,1,001,2024-09-01_22h31.34.002,IAT(Formal),2021.2.3,Win32,19.81218053,,,,,,,,,,,,,,,,,,,,,,,,,,,,,,,,,,,,,,,,,,,,,,,,,,,,,他,e,,,e,1,0.742,0,72,72,65,1,,
,,,,,,,,,,,,,1,001,2024-09-01_22h31.34.002,IAT(Formal),2021.2.3,Win32,19.81218053,,,,,,,,,,,,,,,,,,,,,,,,,,,,,,,,,,,,,,,,,,,,,,,,,,,,,他们,e,,,e,1,0.71,0,73,73,56,1,,
,,,,,,,,,,,,,1,001,2024-09-01_22h31.34.002,IAT(Formal),2021.2.3,Win32,19.81218053,,,,,,,,,,,,,,,,,,,,,,,,,,,,,,,,,,,,,,,,,,,,,,,,,,,,,他,e,,,e,1,0.9498,0,74,74,55,1,,
,,,,,,,,,,,,,1,001,2024-09-01_22h31.34.002,IAT(Formal),2021.2.3,Win32,19.81218053,,,,,,,,,,,,,,,,,,,,,,,,,,,,,,,,,,,,,,,,,,,,,,,,,,,,,暴躁,i,,,i,1,0.9733,0,75,75,44,1,,
,,,,,,,,,,,,,1,001,2024-09-01_22h31.34.002,IAT(Formal),2021.2.3,Win32,19.81218053,,,,,,,,,,,,,,,,,,,,,,,,,,,,,,,,,,,,,,,,,,,,,,,,,,,,,我们,i,,,i,1,0.8073,0,76,76,62,1,,
,,,,,,,,,,,,,1,001,2024-09-01_22h31.34.002,IAT(Formal),2021.2.3,Win32,19.81218053,,,,,,,,,,,,,,,,,,,,,,,,,,,,,,,,,,,,,,,,,,,,,,,,,,,,,固执,i,,,i,1,0.6793,0,77,77,47,1,,
,,,,,,,,,,,,,1,001,2024-09-01_22h31.34.002,IAT(Formal),2021.2.3,Win32,19.81218053,,,,,,,,,,,,,,,,,,,,,,,,,,,,,,,,,,,,,,,,,,,,,,,,,,,,,消极,i,,,i,1,0.5492,0,78,78,35,1,,
,,,,,,,,,,,,,1,001,2024-09-01_22h31.34.002,IAT(Formal),2021.2.3,Win32,19.81218053,,,,,,,,,,,,,,,,,,,,,,,,,,,,,,,,,,,,,,,,,,,,,,,,,,,,,悲观,i,,,i,1,0.4999,0,79,79,34,1,,
,,,,,,,,,,,,,1,001,2024-09-01_22h31.34.002,IAT(Formal),2021.2.3,Win32,19.81218053,,,,,,,,,,,,,,,,,,,,,,,,,,,,,,,,,,,,,,,,,,,,,,,,,,,,,自己,i,,,e,0,1.3487,1,0,80,63,1,,
,,,,,,,,,,,,,1,001,2024-09-01_22h31.34.002,IAT(Formal),2021.2.3,Win32,19.81218053,,,,,,,,,,,,,,,,,,,,,,,,,,,,,,,,,,,,,,,,,,,,,,,,,,,,,他,e,,,e,1,0.699,1,1,81,55,1,,
,,,,,,,,,,,,,1,001,2024-09-01_22h31.34.002,IAT(Formal),2021.2.3,Win32,19.81218053,,,,,,,,,,,,,,,,,,,,,,,,,,,,,,,,,,,,,,,,,,,,,,,,,,,,,他人,e,,,e,1,0.7925,1,2,82,68,1,,
,,,,,,,,,,,,,1,001,2024-09-01_22h31.34.002,IAT(Formal),2021.2.3,Win32,19.81218053,,,,,,,,,,,,,,,,,,,,,,,,,,,,,,,,,,,,,,,,,,,,,,,,,,,,,我们,i,,,i,1,0.6118,1,3,83,2,1,,
,,,,,,,,,,,,,1,001,2024-09-01_22h31.34.002,IAT(Formal),2021.2.3,Win32,19.81218053,,,,,,,,,,,,,,,,,,,,,,,,,,,,,,,,,,,,,,,,,,,,,,,,,,,,,聪明,e,,,e,1,0.7421,1,4,84,12,1,,
,,,,,,,,,,,,,1,001,2024-09-01_22h31.34.002,IAT(Formal),2021.2.3,Win32,19.81218053,,,,,,,,,,,,,,,,,,,,,,,,,,,,,,,,,,,,,,,,,,,,,,,,,,,,,自卑,i,,,i,1,0.8189,1,5,85,36,1,,
,,,,,,,,,,,,,1,001,2024-09-01_22h31.34.002,IAT(Formal),2021.2.3,Win32,19.81218053,,,,,,,,,,,,,,,,,,,,,,,,,,,,,,,,,,,,,,,,,,,,,,,,,,,,,下贱,i,,,i,1,0.6116,1,6,86,49,1,,
,,,,,,,,,,,,,1,001,2024-09-01_22h31.34.002,IAT(Formal),2021.2.3,Win32,19.81218053,,,,,,,,,,,,,,,,,,,,,,,,,,,,,,,,,,,,,,,,,,,,,,,,,,,,,他的,e,,,e,1,1.2942,1,7,87,67,1,,
,,,,,,,,,,,,,1,001,2024-09-01_22h31.34.002,IAT(Formal),2021.2.3,Win32,19.81218053,,,,,,,,,,,,,,,,,,,,,,,,,,,,,,,,,,,,,,,,,,,,,,,,,,,,,凶狠,i,,,i,1,0.974,1,8,88,42,1,,
,,,,,,,,,,,,,1,001,2024-09-01_22h31.34.002,IAT(Formal),2021.2.3,Win32,19.81218053,,,,,,,,,,,,,,,,,,,,,,,,,,,,,,,,,,,,,,,,,,,,,,,,,,,,,我,i,,,i,1,0.6335,1,9,89,60,1,,
,,,,,,,,,,,,,1,001,2024-09-01_22h31.34.002,IAT(Formal),2021.2.3,Win32,19.81218053,,,,,,,,,,,,,,,,,,,,,,,,,,,,,,,,,,,,,,,,,,,,,,,,,,,,,他们,e,,,e,1,0.8211,1,10,90,56,1,,
,,,,,,,,,,,,,1,001,2024-09-01_22h31.34.002,IAT(Formal),2021.2.3,Win32,19.81218053,,,,,,,,,,,,,,,,,,,,,,,,,,,,,,,,,,,,,,,,,,,,,,,,,,,,,固执,i,,,i,1,0.7579,1,11,91,47,1,,
,,,,,,,,,,,,,1,001,2024-09-01_22h31.34.002,IAT(Formal),2021.2.3,Win32,19.81218053,,,,,,,,,,,,,,,,,,,,,,,,,,,,,,,,,,,,,,,,,,,,,,,,,,,,,我们,i,,,i,1,0.7575,1,12,92,72,1,,
,,,,,,,,,,,,,1,001,2024-09-01_22h31.34.002,IAT(Formal),2021.2.3,Win32,19.81218053,,,,,,,,,,,,,,,,,,,,,,,,,,,,,,,,,,,,,,,,,,,,,,,,,,,,,冷静,e,,,e,1,1.0384,1,13,93,26,1,,
,,,,,,,,,,,,,1,001,2024-09-01_22h31.34.002,IAT(Formal),2021.2.3,Win32,19.81218053,,,,,,,,,,,,,,,,,,,,,,,,,,,,,,,,,,,,,,,,,,,,,,,,,,,,,机智,e,,,e,1,0.6514,1,14,94,19,1,,
,,,,,,,,,,,,,1,001,2024-09-01_22h31.34.002,IAT(Formal),2021.2.3,Win32,19.81218053,,,,,,,,,,,,,,,,,,,,,,,,,,,,,,,,,,,,,,,,,,,,,,,,,,,,,自己,i,,,i,1,1.2347,1,15,95,73,1,,
,,,,,,,,,,,,,1,001,2024-09-01_22h31.34.002,IAT(Formal),2021.2.3,Win32,19.81218053,,,,,,,,,,,,,,,,,,,,,,,,,,,,,,,,,,,,,,,,,,,,,,,,,,,,,勇敢,e,,,e,1,0.6092,1,16,96,17,1,,
,,,,,,,,,,,,,1,001,2024-09-01_22h31.34.002,IAT(Formal),2021.2.3,Win32,19.81218053,,,,,,,,,,,,,,,,,,,,,,,,,,,,,,,,,,,,,,,,,,,,,,,,,,,,,自私,i,,,i,1,0.8773,1,17,97,43,1,,
,,,,,,,,,,,,,1,001,2024-09-01_22h31.34.002,IAT(Formal),2021.2.3,Win32,19.81218053,,,,,,,,,,,,,,,,,,,,,,,,,,,,,,,,,,,,,,,,,,,,,,,,,,,,,其他,e,,,e,1,0.7804,1,18,98,69,1,,
,,,,,,,,,,,,,1,001,2024-09-01_22h31.34.002,IAT(Formal),2021.2.3,Win32,19.81218053,,,,,,,,,,,,,,,,,,,,,,,,,,,,,,,,,,,,,,,,,,,,,,,,,,,,,他人,e,,,e,1,0.7668,1,19,99,8,1,,
,,,,,,,,,,,,,1,001,2024-09-01_22h31.34.002,IAT(Formal),2021.2.3,Win32,19.81218053,,,,,,,,,,,,,,,,,,,,,,,,,,,,,,,,,,,,,,,,,,,,,,,,,,,,,他们,e,,,e,1,0.7367,1,20,100,6,1,,
,,,,,,,,,,,,,1,001,2024-09-01_22h31.34.002,IAT(Formal),2021.2.3,Win32,19.81218053,,,,,,,,,,,,,,,,,,,,,,,,,,,,,,,,,,,,,,,,,,,,,,,,,,,,,悲观,i,,,i,1,0.7002,1,21,101,34,1,,
,,,,,,,,,,,,,1,001,2024-09-01_22h31.34.002,IAT(Formal),2021.2.3,Win32,19.81218053,,,,,,,,,,,,,,,,,,,,,,,,,,,,,,,,,,,,,,,,,,,,,,,,,,,,,散漫,i,,,i,1,0.6228,1,22,102,41,1,,
,,,,,,,,,,,,,1,001,2024-09-01_22h31.34.002,IAT(Formal),2021.2.3,Win32,19.81218053,,,,,,,,,,,,,,,,,,,,,,,,,,,,,,,,,,,,,,,,,,,,,,,,,,,,,鲁莽,i,,,i,1,0.578,1,23,103,38,1,,
,,,,,,,,,,,,,1,001,2024-09-01_22h31.34.002,IAT(Formal),2021.2.3,Win32,19.81218053,,,,,,,,,,,,,,,,,,,,,,,,,,,,,,,,,,,,,,,,,,,,,,,,,,,,,刻薄,i,,,i,1,0.5421,1,24,104,33,1,,
,,,,,,,,,,,,,1,001,2024-09-01_22h31.34.002,IAT(Formal),2021.2.3,Win32,19.81218053,,,,,,,,,,,,,,,,,,,,,,,,,,,,,,,,,,,,,,,,,,,,,,,,,,,,,其他,e,,,i,0,0.4853,1,25,105,79,1,,
,,,,,,,,,,,,,1,001,2024-09-01_22h31.34.002,IAT(Formal),2021.2.3,Win32,19.81218053,,,,,,,,,,,,,,,,,,,,,,,,,,,,,,,,,,,,,,,,,,,,,,,,,,,,,野蛮,i,,,i,1,0.7237,1,26,106,46,1,,
,,,,,,,,,,,,,1,001,2024-09-01_22h31.34.002,IAT(Formal),2021.2.3,Win32,19.81218053,,,,,,,,,,,,,,,,,,,,,,,,,,,,,,,,,,,,,,,,,,,,,,,,,,,,,轻率,i,,,i,1,0.5177,1,27,107,48,1,,
,,,,,,,,,,,,,1,001,2024-09-01_22h31.34.002,IAT(Formal),2021.2.3,Win32,19.81218053,,,,,,,,,,,,,,,,,,,,,,,,,,,,,,,,,,,,,,,,,,,,,,,,,,,,,其他,e,,,e,1,1.3784,1,28,108,59,1,,
,,,,,,,,,,,,,1,001,2024-09-01_22h31.34.002,IAT(Formal),2021.2.3,Win32,19.81218053,,,,,,,,,,,,,,,,,,,,,,,,,,,,,,,,,,,,,,,,,,,,,,,,,,,,,他,e,,,e,1,0.7014,1,29,109,65,1,,
,,,,,,,,,,,,,1,001,2024-09-01_22h31.34.002,IAT(Formal),2021.2.3,Win32,19.81218053,,,,,,,,,,,,,,,,,,,,,,,,,,,,,,,,,,,,,,,,,,,,,,,,,,,,,公正,e,,,e,1,0.5667,1,30,110,23,1,,
,,,,,,,,,,,,,1,001,2024-09-01_22h31.34.002,IAT(Formal),2021.2.3,Win32,19.81218053,,,,,,,,,,,,,,,,,,,,,,,,,,,,,,,,,,,,,,,,,,,,,,,,,,,,,崇高,e,,,e,1,0.5046,1,31,111,11,1,,
,,,,,,,,,,,,,1,001,2024-09-01_22h31.34.002,IAT(Formal),2021.2.3,Win32,19.81218053,,,,,,,,,,,,,,,,,,,,,,,,,,,,,,,,,,,,,,,,,,,,,,,,,,,,,我的,i,,,i,1,0.5582,1,32,112,61,1,,
,,,,,,,,,,,,,1,001,2024-09-01_22h31.34.002,IAT(Formal),2021.2.3,Win32,19.81218053,,,,,,,,,,,,,,,,,,,,,,,,,,,,,,,,,,,,,,,,,,,,,,,,,,,,,杰出,e,,,e,1,0.6214,1,33,113,13,1,,
,,,,,,,,,,,,,1,001,2024-09-01_22h31.34.002,IAT(Formal),2021.2.3,Win32,19.81218053,,,,,,,,,,,,,,,,,,,,,,,,,,,,,,,,,,,,,,,,,,,,,,,,,,,,,俺,i,,,i,1,1.1135,1,34,114,54,1,,
,,,,,,,,,,,,,1,001,2024-09-01_22h31.34.002,IAT(Formal),2021.2.3,Win32,19.81218053,,,,,,,,,,,,,,,,,,,,,,,,,,,,,,,,,,,,,,,,,,,,,,,,,,,,,虚伪,i,,,i,1,0.7763,1,35,115,31,1,,
,,,,,,,,,,,,,1,001,2024-09-01_22h31.34.002,IAT(Formal),2021.2.3,Win32,19.81218053,,,,,,,,,,,,,,,,,,,,,,,,,,,,,,,,,,,,,,,,,,,,,,,,,,,,,他们,e,,,e,1,0.6451,1,36,116,76,1,,
,,,,,,,,,,,,,1,001,2024-09-01_22h31.34.002,IAT(Formal),2021.2.3,Win32,19.81218053,,,,,,,,,,,,,,,,,,,,,,,,,,,,,,,,,,,,,,,,,,,,,,,,,,,,,俺,i,,,i,1,0.6765,1,37,117,4,1,,
,,,,,,,,,,,,,1,001,2024-09-01_22h31.34.002,IAT(Formal),2021.2.3,Win32,19.81218053,,,,,,,,,,,,,,,,,,,,,,,,,,,,,,,,,,,,,,,,,,,,,,,,,,,,,诚恳,e,,,e,1,0.5962,1,38,118,29,1,,
,,,,,,,,,,,,,1,001,2024-09-01_22h31.34.002,IAT(Formal),2021.2.3,Win32,19.81218053,,,,,,,,,,,,,,,,,,,,,,,,,,,,,,,,,,,,,,,,,,,,,,,,,,,,,我,i,,,i,1,0.7831,1,39,119,70,1,,
,,,,,,,,,,,,,1,001,2024-09-01_22h31.34.002,IAT(Formal),2021.2.3,Win32,19.81218053,,,,,,,,,,,,,,,,,,,,,,,,,,,,,,,,,,,,,,,,,,,,,,,,,,,,,我,i,,,i,1,0.4744,1,40,120,0,1,,
,,,,,,,,,,,,,1,001,2024-09-01_22h31.34.002,IAT(Formal),2021.2.3,Win32,19.81218053,,,,,,,,,,,,,,,,,,,,,,,,,,,,,,,,,,,,,,,,,,,,,,,,,,,,,俺,i,,,i,1,0.5602,1,41,121,64,1,,
,,,,,,,,,,,,,1,001,2024-09-01_22h31.34.002,IAT(Formal),2021.2.3,Win32,19.81218053,,,,,,,,,,,,,,,,,,,,,,,,,,,,,,,,,,,,,,,,,,,,,,,,,,,,,无私,e,,,e,1,0.7908,1,42,122,22,1,,
,,,,,,,,,,,,,1,001,2024-09-01_22h31.34.002,IAT(Formal),2021.2.3,Win32,19.81218053,,,,,,,,,,,,,,,,,,,,,,,,,,,,,,,,,,,,,,,,,,,,,,,,,,,,,热情,e,,,e,1,0.5589,1,43,123,27,1,,
,,,,,,,,,,,,,1,001,2024-09-01_22h31.34.002,IAT(Formal),2021.2.3,Win32,19.81218053,,,,,,,,,,,,,,,,,,,,,,,,,,,,,,,,,,,,,,,,,,,,,,,,,,,,,他的,e,,,e,1,0.8978,1,44,124,77,1,,
,,,,,,,,,,,,,1,001,2024-09-01_22h31.34.002,IAT(Formal),2021.2.3,Win32,19.81218053,,,,,,,,,,,,,,,,,,,,,,,,,,,,,,,,,,,,,,,,,,,,,,,,,,,,,他们,e,,,e,1,0.5226,1,45,125,66,1,,
,,,,,,,,,,,,,1,001,2024-09-01_22h31.34.002,IAT(Formal),2021.2.3,Win32,19.81218053,,,,,,,,,,,,,,,,,,,,,,,,,,,,,,,,,,,,,,,,,,,,,,,,,,,,,他人,e,,,e,1,0.4209,1,46,126,78,1,,
,,,,,,,,,,,,,1,001,2024-09-01_22h31.34.002,IAT(Formal),2021.2.3,Win32,19.81218053,,,,,,,,,,,,,,,,,,,,,,,,,,,,,,,,,,,,,,,,,,,,,,,,,,,,,暴躁,i,,,i,1,0.8431,1,47,127,44,1,,
,,,,,,,,,,,,,1,001,2024-09-01_22h31.34.002,IAT(Formal),2021.2.3,Win32,19.81218053,,,,,,,,,,,,,,,,,,,,,,,,,,,,,,,,,,,,,,,,,,,,,,,,,,,,,我的,i,,,i,1,0.9563,1,48,128,51,1,,
,,,,,,,,,,,,,1,001,2024-09-01_22h31.34.002,IAT(Formal),2021.2.3,Win32,19.81218053,,,,,,,,,,,,,,,,,,,,,,,,,,,,,,,,,,,,,,,,,,,,,,,,,,,,,他人,e,,,e,1,0.6,1,49,129,58,1,,
,,,,,,,,,,,,,1,001,2024-09-01_22h31.34.002,IAT(Formal),2021.2.3,Win32,19.81218053,,,,,,,,,,,,,,,,,,,,,,,,,,,,,,,,,,,,,,,,,,,,,,,,,,,,,细腻,e,,,e,1,0.651,1,50,130,25,1,,
,,,,,,,,,,,,,1,001,2024-09-01_22h31.34.002,IAT(Formal),2021.2.3,Win32,19.81218053,,,,,,,,,,,,,,,,,,,,,,,,,,,,,,,,,,,,,,,,,,,,,,,,,,,,,朴实,e,,,e,1,0.56,1,51,131,24,1,,
,,,,,,,,,,,,,1,001,2024-09-01_22h31.34.002,IAT(Formal),2021.2.3,Win32,19.81218053,,,,,,,,,,,,,,,,,,,,,,,,,,,,,,,,,,,,,,,,,,,,,,,,,,,,,他,e,,,e,1,1.2138,1,52,132,75,1,,
,,,,,,,,,,,,,1,001,2024-09-01_22h31.34.002,IAT(Formal),2021.2.3,Win32,19.81218053,,,,,,,,,,,,,,,,,,,,,,,,,,,,,,,,,,,,,,,,,,,,,,,,,,,,,勤奋,e,,,e,1,0.5791,1,53,133,18,1,,
,,,,,,,,,,,,,1,001,2024-09-01_22h31.34.002,IAT(Formal),2021.2.3,Win32,19.81218053,,,,,,,,,,,,,,,,,,,,,,,,,,,,,,,,,,,,,,,,,,,,,,,,,,,,,消极,i,,,i,1,0.6622,1,54,134,35,1,,
,,,,,,,,,,,,,1,001,2024-09-01_22h31.34.002,IAT(Formal),2021.2.3,Win32,19.81218053,,,,,,,,,,,,,,,,,,,,,,,,,,,,,,,,,,,,,,,,,,,,,,,,,,,,,他的,e,,,e,1,0.8597,1,55,135,7,1,,
,,,,,,,,,,,,,1,001,2024-09-01_22h31.34.002,IAT(Formal),2021.2.3,Win32,19.81218053,,,,,,,,,,,,,,,,,,,,,,,,,,,,,,,,,,,,,,,,,,,,,,,,,,,,,他,e,,,e,1,0.6243,1,56,136,5,1,,
,,,,,,,,,,,,,1,001,2024-09-01_22h31.34.002,IAT(Formal),2021.2.3,Win32,19.81218053,,,,,,,,,,,,,,,,,,,,,,,,,,,,,,,,,,,,,,,,,,,,,,,,,,,,,优秀,e,,,e,1,1.11,1,57,137,10,1,,
,,,,,,,,,,,,,1,001,2024-09-01_22h31.34.002,IAT(Formal),2021.2.3,Win32,19.81218053,,,,,,,,,,,,,,,,,,,,,,,,,,,,,,,,,,,,,,,,,,,,,,,,,,,,,乐观,e,,,e,1,0.5984,1,58,138,14,1,,
,,,,,,,,,,,,,1,001,2024-09-01_22h31.34.002,IAT(Formal),2021.2.3,Win32,19.81218053,,,,,,,,,,,,,,,,,,,,,,,,,,,,,,,,,,,,,,,,,,,,,,,,,,,,,我们,i,,,i,1,0.5113,1,59,139,52,1,,
,,,,,,,,,,,,,1,001,2024-09-01_22h31.34.002,IAT(Formal),2021.2.3,Win32,19.81218053,,,,,,,,,,,,,,,,,,,,,,,,,,,,,,,,,,,,,,,,,,,,,,,,,,,,,俺,i,,,i,1,0.5562,1,60,140,74,1,,
,,,,,,,,,,,,,1,001,2024-09-01_22h31.34.002,IAT(Formal),2021.2.3,Win32,19.81218053,,,,,,,,,,,,,,,,,,,,,,,,,,,,,,,,,,,,,,,,,,,,,,,,,,,,,我的,i,,,i,1,0.452,1,61,141,71,1,,
,,,,,,,,,,,,,1,001,2024-09-01_22h31.34.002,IAT(Formal),2021.2.3,Win32,19.81218053,,,,,,,,,,,,,,,,,,,,,,,,,,,,,,,,,,,,,,,,,,,,,,,,,,,,,自己,i,,,i,1,0.512,1,62,142,53,1,,
,,,,,,,,,,,,,1,001,2024-09-01_22h31.34.002,IAT(Formal),2021.2.3,Win32,19.81218053,,,,,,,,,,,,,,,,,,,,,,,,,,,,,,,,,,,,,,,,,,,,,,,,,,,,,执拗,i,,,i,1,0.8277,1,63,143,40,1,,
,,,,,,,,,,,,,1,001,2024-09-01_22h31.34.002,IAT(Formal),2021.2.3,Win32,19.81218053,,,,,,,,,,,,,,,,,,,,,,,,,,,,,,,,,,,,,,,,,,,,,,,,,,,,,我,i,,,i,1,0.5679,1,64,144,50,1,,
,,,,,,,,,,,,,1,001,2024-09-01_22h31.34.002,IAT(Formal),2021.2.3,Win32,19.81218053,,,,,,,,,,,,,,,,,,,,,,,,,,,,,,,,,,,,,,,,,,,,,,,,,,,,,正直,e,,,e,1,0.483,1,65,145,16,1,,
,,,,,,,,,,,,,1,001,2024-09-01_22h31.34.002,IAT(Formal),2021.2.3,Win32,19.81218053,,,,,,,,,,,,,,,,,,,,,,,,,,,,,,,,,,,,,,,,,,,,,,,,,,,,,自己,i,,,i,1,0.6844,1,66,146,3,1,,
,,,,,,,,,,,,,1,001,2024-09-01_22h31.34.002,IAT(Formal),2021.2.3,Win32,19.81218053,,,,,,,,,,,,,,,,,,,,,,,,,,,,,,,,,,,,,,,,,,,,,,,,,,,,,认真,e,,,e,1,0.6157,1,67,147,20,1,,
,,,,,,,,,,,,,1,001,2024-09-01_22h31.34.002,IAT(Formal),2021.2.3,Win32,19.81218053,,,,,,,,,,,,,,,,,,,,,,,,,,,,,,,,,,,,,,,,,,,,,,,,,,,,,冒失,i,,,i,1,0.8235,1,68,148,39,1,,
,,,,,,,,,,,,,1,001,2024-09-01_22h31.34.002,IAT(Formal),2021.2.3,Win32,19.81218053,,,,,,,,,,,,,,,,,,,,,,,,,,,,,,,,,,,,,,,,,,,,,,,,,,,,,愚蠢,i,,,i,1,0.6019,1,69,149,32,1,,
,,,,,,,,,,,,,1,001,2024-09-01_22h31.34.002,IAT(Formal),2021.2.3,Win32,19.81218053,,,,,,,,,,,,,,,,,,,,,,,,,,,,,,,,,,,,,,,,,,,,,,,,,,,,,活泼,e,,,e,1,0.5471,1,70,150,28,1,,
,,,,,,,,,,,,,1,001,2024-09-01_22h31.34.002,IAT(Formal),2021.2.3,Win32,19.81218053,,,,,,,,,,,,,,,,,,,,,,,,,,,,,,,,,,,,,,,,,,,,,,,,,,,,,傲慢,i,,,i,1,0.6423,1,71,151,37,1,,
,,,,,,,,,,,,,1,001,2024-09-01_22h31.34.002,IAT(Formal),2021.2.3,Win32,19.81218053,,,,,,,,,,,,,,,,,,,,,,,,,,,,,,,,,,,,,,,,,,,,,,,,,,,,,我们,i,,,i,1,0.632,1,72,152,62,1,,
,,,,,,,,,,,,,1,001,2024-09-01_22h31.34.002,IAT(Formal),2021.2.3,Win32,19.81218053,,,,,,,,,,,,,,,,,,,,,,,,,,,,,,,,,,,,,,,,,,,,,,,,,,,,,猖狂,i,,,i,1,0.8456,1,73,153,45,1,,
,,,,,,,,,,,,,1,001,2024-09-01_22h31.34.002,IAT(Formal),2021.2.3,Win32,19.81218053,,,,,,,,,,,,,,,,,,,,,,,,,,,,,,,,,,,,,,,,,,,,,,,,,,,,,我的,i,,,i,1,0.6671,1,74,154,1,1,,
,,,,,,,,,,,,,1,001,2024-09-01_22h31.34.002,IAT(Formal),2021.2.3,Win32,19.81218053,,,,,,,,,,,,,,,,,,,,,,,,,,,,,,,,,,,,,,,,,,,,,,,,,,,,,诚实,e,,,e,1,0.725,1,75,155,15,1,,
,,,,,,,,,,,,,1,001,2024-09-01_22h31.34.002,IAT(Formal),2021.2.3,Win32,19.81218053,,,,,,,,,,,,,,,,,,,,,,,,,,,,,,,,,,,,,,,,,,,,,,,,,,,,,其他,e,,,e,1,0.8063,1,76,156,9,1,,
,,,,,,,,,,,,,1,001,2024-09-01_22h31.34.002,IAT(Formal),2021.2.3,Win32,19.81218053,,,,,,,,,,,,,,,,,,,,,,,,,,,,,,,,,,,,,,,,,,,,,,,,,,,,,卑鄙,i,,,i,1,0.7819,1,77,157,30,1,,
,,,,,,,,,,,,,1,001,2024-09-01_22h31.34.002,IAT(Formal),2021.2.3,Win32,19.81218053,,,,,,,,,,,,,,,,,,,,,,,,,,,,,,,,,,,,,,,,,,,,,,,,,,,,,稳重,e,,,e,1,0.7587,1,78,158,21,1,,
,,,,,,,,,,,,,1,001,2024-09-01_22h31.34.002,IAT(Formal),2021.2.3,Win32,19.81218053,,,,,,,,,,,,,,,,,,,,,,,,,,,,,,,,,,,,,,,,,,,,,,,,,,,,,他的,e,,,e,1,1.2627,1,79,159,57,1,,
,,,,,,,,,,,,,1,001,2024-09-01_22h31.34.002,IAT(Formal),2021.2.3,Win32,19.81218053,,,,,,,,,,,,,,,,,,,,,,,,,,,,,,,,,,,,,,,,,,,,,,,,,,,,,,,,,,,,,,,,,space,1.7542