"X.Instruction1.keys","Instruction1.rt","Instruction2.keys","Instruction2.rt","key_resp_iso.keys","key_resp_iso.corr","Practice_01.thisRepN","Practice_01.thisTrialN","Practice_01.thisN","Practice_01.thisIndex","Practice_01.ran","Words","ans","participant","session","date","expName","psychopyVersion","OS","frameRate","key_resp_iso.rt","key_resp_3.keys","key_resp_3.rt","key_resp_ipn.keys","key_resp_ipn.corr","key_resp_ipn.rt","Practice_02.thisRepN","Practice_02.thisTrialN","Practice_02.thisN","Practice_02.thisIndex","Practice_02.ran","Words_ipn","ans_ipn","key_resp_4.keys","key_resp_4.rt","key_resp_t1.keys","key_resp_t1.corr","key_resp_t1.rt","Practice_T1.thisRepN","Practice_T1.thisTrialN","Practice_T1.thisN","Practice_T1.thisIndex","Practice_T1.ran","Words_t1","ans_t1","key_resp_5.keys","key_resp_5.rt","Formal_T1.thisRepN","Formal_T1.thisTrialN","Formal_T1.thisN","Formal_T1.thisIndex","Formal_T1.ran","key_resp_6.keys","key_resp_6.rt","key_resp_iso_reverse.keys","key_resp_iso_reverse.corr","key_resp_iso_reverse.rt","Practice_iso_Reverse.thisRepN","Practice_iso_Reverse.thisTrialN","Practice_iso_Reverse.thisN","Practice_iso_Reverse.thisIndex","Practice_iso_Reverse.ran","key_resp_7.keys","key_resp_7.rt","key_resp_t2_Practice.keys","key_resp_t2_Practice.corr","key_resp_t2_Practice.rt","Practice_t2_Reverse.thisRepN","Practice_t2_Reverse.thisTrialN","Practice_t2_Reverse.thisN","Practice_t2_Reverse.thisIndex","Practice_t2_Reverse.ran","Words_t2","ans_t2","key_resp_8.keys","key_resp_8.rt","key_resp_t2.keys","key_resp_t2.corr","key_resp_t2.rt","Formal_t2_reverse.thisRepN","Formal_t2_reverse.thisTrialN","Formal_t2_reverse.thisN","Formal_t2_reverse.thisIndex","Formal_t2_reverse.ran","key_instruct.keys","key_instruct.rt","Subject"
"space",7.8241,"space",16.3978,"",0,0,0,0,3,1,"自己","e",1,1,"2024-09-01_22h31.34.002","IAT(Formal)","2021.2.3","Win32",19.81218053,NA,"",NA,"",NA,NA,NA,NA,NA,NA,NA,"","","",NA,"",NA,NA,NA,NA,NA,NA,NA,"","","",NA,NA,NA,NA,NA,NA,"",NA,"",NA,NA,NA,NA,NA,NA,NA,"",NA,"",NA,NA,NA,NA,NA,NA,NA,"","","",NA,"",NA,NA,NA,NA,NA,NA,NA,"",NA,"38"
"",NA,"",NA,"e",1,0,1,1,1,1,"我的","e",1,1,"2024-09-01_22h31.34.002","IAT(Formal)","2021.2.3","Win32",19.81218053,0.8931,"",NA,"",NA,NA,NA,NA,NA,NA,NA,"","","",NA,"",NA,NA,NA,NA,NA,NA,NA,"","","",NA,NA,NA,NA,NA,NA,"",NA,"",NA,NA,NA,NA,NA,NA,NA,"",NA,"",NA,NA,NA,NA,NA,NA,NA,"","","",NA,"",NA,NA,NA,NA,NA,NA,NA,"",NA,"38"
"",NA,"",NA,"i",1,0,2,2,7,1,"他的","i",1,1,"2024-09-01_22h31.34.002","IAT(Formal)","2021.2.3","Win32",19.81218053,0.7014,"",NA,"",NA,NA,NA,NA,NA,NA,NA,"","","",NA,"",NA,NA,NA,NA,NA,NA,NA,"","","",NA,NA,NA,NA,NA,NA,"",NA,"",NA,NA,NA,NA,NA,NA,NA,"",NA,"",NA,NA,NA,NA,NA,NA,NA,"","","",NA,"",NA,NA,NA,NA,NA,NA,NA,"",NA,"38"
"",NA,"",NA,"i",1,0,3,3,8,1,"他人","i",1,1,"2024-09-01_22h31.34.002","IAT(Formal)","2021.2.3","Win32",19.81218053,0.5953,"",NA,"",NA,NA,NA,NA,NA,NA,NA,"","","",NA,"",NA,NA,NA,NA,NA,NA,NA,"","","",NA,NA,NA,NA,NA,NA,"",NA,"",NA,NA,NA,NA,NA,NA,NA,"",NA,"",NA,NA,NA,NA,NA,NA,NA,"","","",NA,"",NA,NA,NA,NA,NA,NA,NA,"",NA,"38"
"",NA,"",NA,"i",1,0,4,4,5,1,"他","i",1,1,"2024-09-01_22h31.34.002","IAT(Formal)","2021.2.3","Win32",19.81218053,0.5351,"",NA,"",NA,NA,NA,NA,NA,NA,NA,"","","",NA,"",NA,NA,NA,NA,NA,NA,NA,"","","",NA,NA,NA,NA,NA,NA,"",NA,"",NA,NA,NA,NA,NA,NA,NA,"",NA,"",NA,NA,NA,NA,NA,NA,NA,"","","",NA,"",NA,NA,NA,NA,NA,NA,NA,"",NA,"38"
"",NA,"",NA,"e",1,0,5,5,4,1,"俺","e",1,1,"2024-09-01_22h31.34.002","IAT(Formal)","2021.2.3","Win32",19.81218053,0.6693,"",NA,"",NA,NA,NA,NA,NA,NA,NA,"","","",NA,"",NA,NA,NA,NA,NA,NA,NA,"","","",NA,NA,NA,NA,NA,NA,"",NA,"",NA,NA,NA,NA,NA,NA,NA,"",NA,"",NA,NA,NA,NA,NA,NA,NA,"","","",NA,"",NA,NA,NA,NA,NA,NA,NA,"",NA,"38"
"",NA,"",NA,"e",1,0,6,6,0,1,"我","e",1,1,"2024-09-01_22h31.34.002","IAT(Formal)","2021.2.3","Win32",19.81218053,0.5538,"",NA,"",NA,NA,NA,NA,NA,NA,NA,"","","",NA,"",NA,NA,NA,NA,NA,NA,NA,"","","",NA,NA,NA,NA,NA,NA,"",NA,"",NA,NA,NA,NA,NA,NA,NA,"",NA,"",NA,NA,NA,NA,NA,NA,NA,"","","",NA,"",NA,NA,NA,NA,NA,NA,NA,"",NA,"38"
"",NA,"",NA,"i",1,0,7,7,9,1,"其他","i",1,1,"2024-09-01_22h31.34.002","IAT(Formal)","2021.2.3","Win32",19.81218053,0.6223,"",NA,"",NA,NA,NA,NA,NA,NA,NA,"","","",NA,"",NA,NA,NA,NA,NA,NA,NA,"","","",NA,NA,NA,NA,NA,NA,"",NA,"",NA,NA,NA,NA,NA,NA,NA,"",NA,"",NA,NA,NA,NA,NA,NA,NA,"","","",NA,"",NA,NA,NA,NA,NA,NA,NA,"",NA,"38"
"",NA,"",NA,"i",1,0,8,8,6,1,"他们","i",1,1,"2024-09-01_22h31.34.002","IAT(Formal)","2021.2.3","Win32",19.81218053,0.6998,"",NA,"",NA,NA,NA,NA,NA,NA,NA,"","","",NA,"",NA,NA,NA,NA,NA,NA,NA,"","","",NA,NA,NA,NA,NA,NA,"",NA,"",NA,NA,NA,NA,NA,NA,NA,"",NA,"",NA,NA,NA,NA,NA,NA,NA,"","","",NA,"",NA,NA,NA,NA,NA,NA,NA,"",NA,"38"
"",NA,"",NA,"e",1,0,9,9,2,1,"我们","e",1,1,"2024-09-01_22h31.34.002","IAT(Formal)","2021.2.3","Win32",19.81218053,0.5515,"",NA,"",NA,NA,NA,NA,NA,NA,NA,"","","",NA,"",NA,NA,NA,NA,NA,NA,NA,"","","",NA,NA,NA,NA,NA,NA,"",NA,"",NA,NA,NA,NA,NA,NA,NA,"",NA,"",NA,NA,NA,NA,NA,NA,NA,"","","",NA,"",NA,NA,NA,NA,NA,NA,NA,"",NA,"38"
"",NA,"",NA,"",NA,NA,NA,NA,NA,NA,"","",1,1,"2024-09-01_22h31.34.002","IAT(Formal)","2021.2.3","Win32",19.81218053,NA,"space",5.7749,"i",1,0.7201,0,0,0,30,1,"执拗","i","",NA,"",NA,NA,NA,NA,NA,NA,NA,"","","",NA,NA,NA,NA,NA,NA,"",NA,"",NA,NA,NA,NA,NA,NA,NA,"",NA,"",NA,NA,NA,NA,NA,NA,NA,"","","",NA,"",NA,NA,NA,NA,NA,NA,NA,"",NA,"38"
"",NA,"",NA,"",NA,NA,NA,NA,NA,NA,"","",1,1,"2024-09-01_22h31.34.002","IAT(Formal)","2021.2.3","Win32",19.81218053,NA,"",NA,"e",1,0.5581,0,1,1,19,1,"诚恳","e","",NA,"",NA,NA,NA,NA,NA,NA,NA,"","","",NA,NA,NA,NA,NA,NA,"",NA,"",NA,NA,NA,NA,NA,NA,NA,"",NA,"",NA,NA,NA,NA,NA,NA,NA,"","","",NA,"",NA,NA,NA,NA,NA,NA,NA,"",NA,"38"
"",NA,"",NA,"",NA,NA,NA,NA,NA,NA,"","",1,1,"2024-09-01_22h31.34.002","IAT(Formal)","2021.2.3","Win32",19.81218053,NA,"",NA,"i",1,0.7636,0,2,2,39,1,"下贱","i","",NA,"",NA,NA,NA,NA,NA,NA,NA,"","","",NA,NA,NA,NA,NA,NA,"",NA,"",NA,NA,NA,NA,NA,NA,NA,"",NA,"",NA,NA,NA,NA,NA,NA,NA,"","","",NA,"",NA,NA,NA,NA,NA,NA,NA,"",NA,"38"
"",NA,"",NA,"",NA,NA,NA,NA,NA,NA,"","",1,1,"2024-09-01_22h31.34.002","IAT(Formal)","2021.2.3","Win32",19.81218053,NA,"",NA,"i",1,0.5733,0,3,3,23,1,"刻薄","i","",NA,"",NA,NA,NA,NA,NA,NA,NA,"","","",NA,NA,NA,NA,NA,NA,"",NA,"",NA,NA,NA,NA,NA,NA,NA,"",NA,"",NA,NA,NA,NA,NA,NA,NA,"","","",NA,"",NA,NA,NA,NA,NA,NA,NA,"",NA,"38"
"",NA,"",NA,"",NA,NA,NA,NA,NA,NA,"","",1,1,"2024-09-01_22h31.34.002","IAT(Formal)","2021.2.3","Win32",19.81218053,NA,"",NA,"e",1,0.4266,0,4,4,14,1,"朴实","e","",NA,"",NA,NA,NA,NA,NA,NA,NA,"","","",NA,NA,NA,NA,NA,NA,"",NA,"",NA,NA,NA,NA,NA,NA,NA,"",NA,"",NA,NA,NA,NA,NA,NA,NA,"","","",NA,"",NA,NA,NA,NA,NA,NA,NA,"",NA,"38"
"",NA,"",NA,"",NA,NA,NA,NA,NA,NA,"","",1,1,"2024-09-01_22h31.34.002","IAT(Formal)","2021.2.3","Win32",19.81218053,NA,"",NA,"e",1,0.5816,0,5,5,9,1,"机智","e","",NA,"",NA,NA,NA,NA,NA,NA,NA,"","","",NA,NA,NA,NA,NA,NA,"",NA,"",NA,NA,NA,NA,NA,NA,NA,"",NA,"",NA,NA,NA,NA,NA,NA,NA,"","","",NA,"",NA,NA,NA,NA,NA,NA,NA,"",NA,"38"
"",NA,"",NA,"",NA,NA,NA,NA,NA,NA,"","",1,1,"2024-09-01_22h31.34.002","IAT(Formal)","2021.2.3","Win32",19.81218053,NA,"",NA,"e",0,0.5138,0,6,6,27,1,"傲慢","i","",NA,"",NA,NA,NA,NA,NA,NA,NA,"","","",NA,NA,NA,NA,NA,NA,"",NA,"",NA,NA,NA,NA,NA,NA,NA,"",NA,"",NA,NA,NA,NA,NA,NA,NA,"","","",NA,"",NA,NA,NA,NA,NA,NA,NA,"",NA,"38"
"",NA,"",NA,"",NA,NA,NA,NA,NA,NA,"","",1,1,"2024-09-01_22h31.34.002","IAT(Formal)","2021.2.3","Win32",19.81218053,NA,"",NA,"e",1,0.6123,0,7,7,12,1,"无私","e","",NA,"",NA,NA,NA,NA,NA,NA,NA,"","","",NA,NA,NA,NA,NA,NA,"",NA,"",NA,NA,NA,NA,NA,NA,NA,"",NA,"",NA,NA,NA,NA,NA,NA,NA,"","","",NA,"",NA,NA,NA,NA,NA,NA,NA,"",NA,"38"
"",NA,"",NA,"",NA,NA,NA,NA,NA,NA,"","",1,1,"2024-09-01_22h31.34.002","IAT(Formal)","2021.2.3","Win32",19.81218053,NA,"",NA,"e",1,0.6081,0,8,8,11,1,"稳重","e","",NA,"",NA,NA,NA,NA,NA,NA,NA,"","","",NA,NA,NA,NA,NA,NA,"",NA,"",NA,NA,NA,NA,NA,NA,NA,"",NA,"",NA,NA,NA,NA,NA,NA,NA,"","","",NA,"",NA,NA,NA,NA,NA,NA,NA,"",NA,"38"
"",NA,"",NA,"",NA,NA,NA,NA,NA,NA,"","",1,1,"2024-09-01_22h31.34.002","IAT(Formal)","2021.2.3","Win32",19.81218053,NA,"",NA,"e",1,0.5292,0,9,9,2,1,"聪明","e","",NA,"",NA,NA,NA,NA,NA,NA,NA,"","","",NA,NA,NA,NA,NA,NA,"",NA,"",NA,NA,NA,NA,NA,NA,NA,"",NA,"",NA,NA,NA,NA,NA,NA,NA,"","","",NA,"",NA,NA,NA,NA,NA,NA,NA,"",NA,"38"
"",NA,"",NA,"",NA,NA,NA,NA,NA,NA,"","",1,1,"2024-09-01_22h31.34.002","IAT(Formal)","2021.2.3","Win32",19.81218053,NA,"",NA,"i",1,0.6399,0,10,10,36,1,"野蛮","i","",NA,"",NA,NA,NA,NA,NA,NA,NA,"","","",NA,NA,NA,NA,NA,NA,"",NA,"",NA,NA,NA,NA,NA,NA,NA,"",NA,"",NA,NA,NA,NA,NA,NA,NA,"","","",NA,"",NA,NA,NA,NA,NA,NA,NA,"",NA,"38"
"",NA,"",NA,"",NA,NA,NA,NA,NA,NA,"","",1,1,"2024-09-01_22h31.34.002","IAT(Formal)","2021.2.3","Win32",19.81218053,NA,"",NA,"e",1,0.6286,0,11,11,8,1,"勤奋","e","",NA,"",NA,NA,NA,NA,NA,NA,NA,"","","",NA,NA,NA,NA,NA,NA,"",NA,"",NA,NA,NA,NA,NA,NA,NA,"",NA,"",NA,NA,NA,NA,NA,NA,NA,"","","",NA,"",NA,NA,NA,NA,NA,NA,NA,"",NA,"38"
"",NA,"",NA,"",NA,NA,NA,NA,NA,NA,"","",1,1,"2024-09-01_22h31.34.002","IAT(Formal)","2021.2.3","Win32",19.81218053,NA,"",NA,"e",1,0.5839,0,12,12,6,1,"正直","e","",NA,"",NA,NA,NA,NA,NA,NA,NA,"","","",NA,NA,NA,NA,NA,NA,"",NA,"",NA,NA,NA,NA,NA,NA,NA,"",NA,"",NA,NA,NA,NA,NA,NA,NA,"","","",NA,"",NA,NA,NA,NA,NA,NA,NA,"",NA,"38"
"",NA,"",NA,"",NA,NA,NA,NA,NA,NA,"","",1,1,"2024-09-01_22h31.34.002","IAT(Formal)","2021.2.3","Win32",19.81218053,NA,"",NA,"e",1,0.5316,0,13,13,7,1,"勇敢","e","",NA,"",NA,NA,NA,NA,NA,NA,NA,"","","",NA,NA,NA,NA,NA,NA,"",NA,"",NA,NA,NA,NA,NA,NA,NA,"",NA,"",NA,NA,NA,NA,NA,NA,NA,"","","",NA,"",NA,NA,NA,NA,NA,NA,NA,"",NA,"38"
"",NA,"",NA,"",NA,NA,NA,NA,NA,NA,"","",1,1,"2024-09-01_22h31.34.002","IAT(Formal)","2021.2.3","Win32",19.81218053,NA,"",NA,"e",1,0.4899,0,14,14,10,1,"认真","e","",NA,"",NA,NA,NA,NA,NA,NA,NA,"","","",NA,NA,NA,NA,NA,NA,"",NA,"",NA,NA,NA,NA,NA,NA,NA,"",NA,"",NA,NA,NA,NA,NA,NA,NA,"","","",NA,"",NA,NA,NA,NA,NA,NA,NA,"",NA,"38"
"",NA,"",NA,"",NA,NA,NA,NA,NA,NA,"","",1,1,"2024-09-01_22h31.34.002","IAT(Formal)","2021.2.3","Win32",19.81218053,NA,"",NA,"i",1,0.5063,0,15,15,22,1,"愚蠢","i","",NA,"",NA,NA,NA,NA,NA,NA,NA,"","","",NA,NA,NA,NA,NA,NA,"",NA,"",NA,NA,NA,NA,NA,NA,NA,"",NA,"",NA,NA,NA,NA,NA,NA,NA,"","","",NA,"",NA,NA,NA,NA,NA,NA,NA,"",NA,"38"
"",NA,"",NA,"",NA,NA,NA,NA,NA,NA,"","",1,1,"2024-09-01_22h31.34.002","IAT(Formal)","2021.2.3","Win32",19.81218053,NA,"",NA,"e",1,0.5714,0,16,16,13,1,"公正","e","",NA,"",NA,NA,NA,NA,NA,NA,NA,"","","",NA,NA,NA,NA,NA,NA,"",NA,"",NA,NA,NA,NA,NA,NA,NA,"",NA,"",NA,NA,NA,NA,NA,NA,NA,"","","",NA,"",NA,NA,NA,NA,NA,NA,NA,"",NA,"38"
"",NA,"",NA,"",NA,NA,NA,NA,NA,NA,"","",1,1,"2024-09-01_22h31.34.002","IAT(Formal)","2021.2.3","Win32",19.81218053,NA,"",NA,"e",1,0.6602,0,17,17,16,1,"冷静","e","",NA,"",NA,NA,NA,NA,NA,NA,NA,"","","",NA,NA,NA,NA,NA,NA,"",NA,"",NA,NA,NA,NA,NA,NA,NA,"",NA,"",NA,NA,NA,NA,NA,NA,NA,"","","",NA,"",NA,NA,NA,NA,NA,NA,NA,"",NA,"38"
"",NA,"",NA,"",NA,NA,NA,NA,NA,NA,"","",1,1,"2024-09-01_22h31.34.002","IAT(Formal)","2021.2.3","Win32",19.81218053,NA,"",NA,"e",1,0.5297,0,18,18,4,1,"乐观","e","",NA,"",NA,NA,NA,NA,NA,NA,NA,"","","",NA,NA,NA,NA,NA,NA,"",NA,"",NA,NA,NA,NA,NA,NA,NA,"",NA,"",NA,NA,NA,NA,NA,NA,NA,"","","",NA,"",NA,NA,NA,NA,NA,NA,NA,"",NA,"38"
"",NA,"",NA,"",NA,NA,NA,NA,NA,NA,"","",1,1,"2024-09-01_22h31.34.002","IAT(Formal)","2021.2.3","Win32",19.81218053,NA,"",NA,"e",1,0.4929,0,19,19,18,1,"活泼","e","",NA,"",NA,NA,NA,NA,NA,NA,NA,"","","",NA,NA,NA,NA,NA,NA,"",NA,"",NA,NA,NA,NA,NA,NA,NA,"",NA,"",NA,NA,NA,NA,NA,NA,NA,"","","",NA,"",NA,NA,NA,NA,NA,NA,NA,"",NA,"38"
"",NA,"",NA,"",NA,NA,NA,NA,NA,NA,"","",1,1,"2024-09-01_22h31.34.002","IAT(Formal)","2021.2.3","Win32",19.81218053,NA,"",NA,"i",1,0.5751,0,20,20,24,1,"悲观","i","",NA,"",NA,NA,NA,NA,NA,NA,NA,"","","",NA,NA,NA,NA,NA,NA,"",NA,"",NA,NA,NA,NA,NA,NA,NA,"",NA,"",NA,NA,NA,NA,NA,NA,NA,"","","",NA,"",NA,NA,NA,NA,NA,NA,NA,"",NA,"38"
"",NA,"",NA,"",NA,NA,NA,NA,NA,NA,"","",1,1,"2024-09-01_22h31.34.002","IAT(Formal)","2021.2.3","Win32",19.81218053,NA,"",NA,"i",1,0.5442,0,21,21,34,1,"暴躁","i","",NA,"",NA,NA,NA,NA,NA,NA,NA,"","","",NA,NA,NA,NA,NA,NA,"",NA,"",NA,NA,NA,NA,NA,NA,NA,"",NA,"",NA,NA,NA,NA,NA,NA,NA,"","","",NA,"",NA,NA,NA,NA,NA,NA,NA,"",NA,"38"
"",NA,"",NA,"",NA,NA,NA,NA,NA,NA,"","",1,1,"2024-09-01_22h31.34.002","IAT(Formal)","2021.2.3","Win32",19.81218053,NA,"",NA,"i",1,0.4527,0,22,22,32,1,"凶狠","i","",NA,"",NA,NA,NA,NA,NA,NA,NA,"","","",NA,NA,NA,NA,NA,NA,"",NA,"",NA,NA,NA,NA,NA,NA,NA,"",NA,"",NA,NA,NA,NA,NA,NA,NA,"","","",NA,"",NA,NA,NA,NA,NA,NA,NA,"",NA,"38"
"",NA,"",NA,"",NA,NA,NA,NA,NA,NA,"","",1,1,"2024-09-01_22h31.34.002","IAT(Formal)","2021.2.3","Win32",19.81218053,NA,"",NA,"e",1,0.6041,0,23,23,5,1,"诚实","e","",NA,"",NA,NA,NA,NA,NA,NA,NA,"","","",NA,NA,NA,NA,NA,NA,"",NA,"",NA,NA,NA,NA,NA,NA,NA,"",NA,"",NA,NA,NA,NA,NA,NA,NA,"","","",NA,"",NA,NA,NA,NA,NA,NA,NA,"",NA,"38"
"",NA,"",NA,"",NA,NA,NA,NA,NA,NA,"","",1,1,"2024-09-01_22h31.34.002","IAT(Formal)","2021.2.3","Win32",19.81218053,NA,"",NA,"e",1,0.4827,0,24,24,15,1,"细腻","e","",NA,"",NA,NA,NA,NA,NA,NA,NA,"","","",NA,NA,NA,NA,NA,NA,"",NA,"",NA,NA,NA,NA,NA,NA,NA,"",NA,"",NA,NA,NA,NA,NA,NA,NA,"","","",NA,"",NA,NA,NA,NA,NA,NA,NA,"",NA,"38"
"",NA,"",NA,"",NA,NA,NA,NA,NA,NA,"","",1,1,"2024-09-01_22h31.34.002","IAT(Formal)","2021.2.3","Win32",19.81218053,NA,"",NA,"i",1,0.4983,0,25,25,25,1,"消极","i","",NA,"",NA,NA,NA,NA,NA,NA,NA,"","","",NA,NA,NA,NA,NA,NA,"",NA,"",NA,NA,NA,NA,NA,NA,NA,"",NA,"",NA,NA,NA,NA,NA,NA,NA,"","","",NA,"",NA,NA,NA,NA,NA,NA,NA,"",NA,"38"
"",NA,"",NA,"",NA,NA,NA,NA,NA,NA,"","",1,1,"2024-09-01_22h31.34.002","IAT(Formal)","2021.2.3","Win32",19.81218053,NA,"",NA,"e",1,0.7268,0,26,26,0,1,"优秀","e","",NA,"",NA,NA,NA,NA,NA,NA,NA,"","","",NA,NA,NA,NA,NA,NA,"",NA,"",NA,NA,NA,NA,NA,NA,NA,"",NA,"",NA,NA,NA,NA,NA,NA,NA,"","","",NA,"",NA,NA,NA,NA,NA,NA,NA,"",NA,"38"
"",NA,"",NA,"",NA,NA,NA,NA,NA,NA,"","",1,1,"2024-09-01_22h31.34.002","IAT(Formal)","2021.2.3","Win32",19.81218053,NA,"",NA,"i",1,0.6522,0,27,27,38,1,"轻率","i","",NA,"",NA,NA,NA,NA,NA,NA,NA,"","","",NA,NA,NA,NA,NA,NA,"",NA,"",NA,NA,NA,NA,NA,NA,NA,"",NA,"",NA,NA,NA,NA,NA,NA,NA,"","","",NA,"",NA,NA,NA,NA,NA,NA,NA,"",NA,"38"
"",NA,"",NA,"",NA,NA,NA,NA,NA,NA,"","",1,1,"2024-09-01_22h31.34.002","IAT(Formal)","2021.2.3","Win32",19.81218053,NA,"",NA,"i",1,0.4882,0,28,28,35,1,"猖狂","i","",NA,"",NA,NA,NA,NA,NA,NA,NA,"","","",NA,NA,NA,NA,NA,NA,"",NA,"",NA,NA,NA,NA,NA,NA,NA,"",NA,"",NA,NA,NA,NA,NA,NA,NA,"","","",NA,"",NA,NA,NA,NA,NA,NA,NA,"",NA,"38"
"",NA,"",NA,"",NA,NA,NA,NA,NA,NA,"","",1,1,"2024-09-01_22h31.34.002","IAT(Formal)","2021.2.3","Win32",19.81218053,NA,"",NA,"i",1,0.5614,0,29,29,37,1,"固执","i","",NA,"",NA,NA,NA,NA,NA,NA,NA,"","","",NA,NA,NA,NA,NA,NA,"",NA,"",NA,NA,NA,NA,NA,NA,NA,"",NA,"",NA,NA,NA,NA,NA,NA,NA,"","","",NA,"",NA,NA,NA,NA,NA,NA,NA,"",NA,"38"
"",NA,"",NA,"",NA,NA,NA,NA,NA,NA,"","",1,1,"2024-09-01_22h31.34.002","IAT(Formal)","2021.2.3","Win32",19.81218053,NA,"",NA,"i",1,0.7038,0,30,30,20,1,"卑鄙","i","",NA,"",NA,NA,NA,NA,NA,NA,NA,"","","",NA,NA,NA,NA,NA,NA,"",NA,"",NA,NA,NA,NA,NA,NA,NA,"",NA,"",NA,NA,NA,NA,NA,NA,NA,"","","",NA,"",NA,NA,NA,NA,NA,NA,NA,"",NA,"38"
"",NA,"",NA,"",NA,NA,NA,NA,NA,NA,"","",1,1,"2024-09-01_22h31.34.002","IAT(Formal)","2021.2.3","Win32",19.81218053,NA,"",NA,"e",1,0.561,0,31,31,17,1,"热情","e","",NA,"",NA,NA,NA,NA,NA,NA,NA,"","","",NA,NA,NA,NA,NA,NA,"",NA,"",NA,NA,NA,NA,NA,NA,NA,"",NA,"",NA,NA,NA,NA,NA,NA,NA,"","","",NA,"",NA,NA,NA,NA,NA,NA,NA,"",NA,"38"
"",NA,"",NA,"",NA,NA,NA,NA,NA,NA,"","",1,1,"2024-09-01_22h31.34.002","IAT(Formal)","2021.2.3","Win32",19.81218053,NA,"",NA,"i",1,0.5675,0,32,32,29,1,"冒失","i","",NA,"",NA,NA,NA,NA,NA,NA,NA,"","","",NA,NA,NA,NA,NA,NA,"",NA,"",NA,NA,NA,NA,NA,NA,NA,"",NA,"",NA,NA,NA,NA,NA,NA,NA,"","","",NA,"",NA,NA,NA,NA,NA,NA,NA,"",NA,"38"
"",NA,"",NA,"",NA,NA,NA,NA,NA,NA,"","",1,1,"2024-09-01_22h31.34.002","IAT(Formal)","2021.2.3","Win32",19.81218053,NA,"",NA,"i",1,0.6188,0,33,33,21,1,"虚伪","i","",NA,"",NA,NA,NA,NA,NA,NA,NA,"","","",NA,NA,NA,NA,NA,NA,"",NA,"",NA,NA,NA,NA,NA,NA,NA,"",NA,"",NA,NA,NA,NA,NA,NA,NA,"","","",NA,"",NA,NA,NA,NA,NA,NA,NA,"",NA,"38"
"",NA,"",NA,"",NA,NA,NA,NA,NA,NA,"","",1,1,"2024-09-01_22h31.34.002","IAT(Formal)","2021.2.3","Win32",19.81218053,NA,"",NA,"i",1,0.5509,0,34,34,26,1,"自卑","i","",NA,"",NA,NA,NA,NA,NA,NA,NA,"","","",NA,NA,NA,NA,NA,NA,"",NA,"",NA,NA,NA,NA,NA,NA,NA,"",NA,"",NA,NA,NA,NA,NA,NA,NA,"","","",NA,"",NA,NA,NA,NA,NA,NA,NA,"",NA,"38"
"",NA,"",NA,"",NA,NA,NA,NA,NA,NA,"","",1,1,"2024-09-01_22h31.34.002","IAT(Formal)","2021.2.3","Win32",19.81218053,NA,"",NA,"i",1,0.647,0,35,35,31,1,"散漫","i","",NA,"",NA,NA,NA,NA,NA,NA,NA,"","","",NA,NA,NA,NA,NA,NA,"",NA,"",NA,NA,NA,NA,NA,NA,NA,"",NA,"",NA,NA,NA,NA,NA,NA,NA,"","","",NA,"",NA,NA,NA,NA,NA,NA,NA,"",NA,"38"
"",NA,"",NA,"",NA,NA,NA,NA,NA,NA,"","",1,1,"2024-09-01_22h31.34.002","IAT(Formal)","2021.2.3","Win32",19.81218053,NA,"",NA,"i",1,0.5714,0,36,36,28,1,"鲁莽","i","",NA,"",NA,NA,NA,NA,NA,NA,NA,"","","",NA,NA,NA,NA,NA,NA,"",NA,"",NA,NA,NA,NA,NA,NA,NA,"",NA,"",NA,NA,NA,NA,NA,NA,NA,"","","",NA,"",NA,NA,NA,NA,NA,NA,NA,"",NA,"38"
"",NA,"",NA,"",NA,NA,NA,NA,NA,NA,"","",1,1,"2024-09-01_22h31.34.002","IAT(Formal)","2021.2.3","Win32",19.81218053,NA,"",NA,"e",1,0.7132,0,37,37,1,1,"崇高","e","",NA,"",NA,NA,NA,NA,NA,NA,NA,"","","",NA,NA,NA,NA,NA,NA,"",NA,"",NA,NA,NA,NA,NA,NA,NA,"",NA,"",NA,NA,NA,NA,NA,NA,NA,"","","",NA,"",NA,NA,NA,NA,NA,NA,NA,"",NA,"38"
"",NA,"",NA,"",NA,NA,NA,NA,NA,NA,"","",1,1,"2024-09-01_22h31.34.002","IAT(Formal)","2021.2.3","Win32",19.81218053,NA,"",NA,"i",1,0.5505,0,38,38,33,1,"自私","i","",NA,"",NA,NA,NA,NA,NA,NA,NA,"","","",NA,NA,NA,NA,NA,NA,"",NA,"",NA,NA,NA,NA,NA,NA,NA,"",NA,"",NA,NA,NA,NA,NA,NA,NA,"","","",NA,"",NA,NA,NA,NA,NA,NA,NA,"",NA,"38"
"",NA,"",NA,"",NA,NA,NA,NA,NA,NA,"","",1,1,"2024-09-01_22h31.34.002","IAT(Formal)","2021.2.3","Win32",19.81218053,NA,"",NA,"e",1,0.5255,0,39,39,3,1,"杰出","e","",NA,"",NA,NA,NA,NA,NA,NA,NA,"","","",NA,NA,NA,NA,NA,NA,"",NA,"",NA,NA,NA,NA,NA,NA,NA,"",NA,"",NA,NA,NA,NA,NA,NA,NA,"","","",NA,"",NA,NA,NA,NA,NA,NA,NA,"",NA,"38"
"",NA,"",NA,"",NA,NA,NA,NA,NA,NA,"","",1,1,"2024-09-01_22h31.34.002","IAT(Formal)","2021.2.3","Win32",19.81218053,NA,"",NA,"",NA,NA,NA,NA,NA,NA,NA,"","","space",14.1427,"e",1,0.5681,0,0,0,21,1,"稳重","e","",NA,NA,NA,NA,NA,NA,"",NA,"",NA,NA,NA,NA,NA,NA,NA,"",NA,"",NA,NA,NA,NA,NA,NA,NA,"","","",NA,"",NA,NA,NA,NA,NA,NA,NA,"",NA,"38"
"",NA,"",NA,"",NA,NA,NA,NA,NA,NA,"","",1,1,"2024-09-01_22h31.34.002","IAT(Formal)","2021.2.3","Win32",19.81218053,NA,"",NA,"",NA,NA,NA,NA,NA,NA,NA,"","","",NA,"e",1,0.4845,0,1,1,20,1,"认真","e","",NA,NA,NA,NA,NA,NA,"",NA,"",NA,NA,NA,NA,NA,NA,NA,"",NA,"",NA,NA,NA,NA,NA,NA,NA,"","","",NA,"",NA,NA,NA,NA,NA,NA,NA,"",NA,"38"
"",NA,"",NA,"",NA,NA,NA,NA,NA,NA,"","",1,1,"2024-09-01_22h31.34.002","IAT(Formal)","2021.2.3","Win32",19.81218053,NA,"",NA,"",NA,NA,NA,NA,NA,NA,NA,"","","",NA,"i",1,0.7236,0,2,2,69,1,"其他","i","",NA,NA,NA,NA,NA,NA,"",NA,"",NA,NA,NA,NA,NA,NA,NA,"",NA,"",NA,NA,NA,NA,NA,NA,NA,"","","",NA,"",NA,NA,NA,NA,NA,NA,NA,"",NA,"38"
"",NA,"",NA,"",NA,NA,NA,NA,NA,NA,"","",1,1,"2024-09-01_22h31.34.002","IAT(Formal)","2021.2.3","Win32",19.81218053,NA,"",NA,"",NA,NA,NA,NA,NA,NA,NA,"","","",NA,"i",1,0.7681,0,3,3,75,1,"他","i","",NA,NA,NA,NA,NA,NA,"",NA,"",NA,NA,NA,NA,NA,NA,NA,"",NA,"",NA,NA,NA,NA,NA,NA,NA,"","","",NA,"",NA,NA,NA,NA,NA,NA,NA,"",NA,"38"
"",NA,"",NA,"",NA,NA,NA,NA,NA,NA,"","",1,1,"2024-09-01_22h31.34.002","IAT(Formal)","2021.2.3","Win32",19.81218053,NA,"",NA,"",NA,NA,NA,NA,NA,NA,NA,"","","",NA,"i",1,0.7222,0,4,4,33,1,"刻薄","i","",NA,NA,NA,NA,NA,NA,"",NA,"",NA,NA,NA,NA,NA,NA,NA,"",NA,"",NA,NA,NA,NA,NA,NA,NA,"","","",NA,"",NA,NA,NA,NA,NA,NA,NA,"",NA,"38"
"",NA,"",NA,"",NA,NA,NA,NA,NA,NA,"","",1,1,"2024-09-01_22h31.34.002","IAT(Formal)","2021.2.3","Win32",19.81218053,NA,"",NA,"",NA,NA,NA,NA,NA,NA,NA,"","","",NA,"e",1,0.611,0,5,5,13,1,"杰出","e","",NA,NA,NA,NA,NA,NA,"",NA,"",NA,NA,NA,NA,NA,NA,NA,"",NA,"",NA,NA,NA,NA,NA,NA,NA,"","","",NA,"",NA,NA,NA,NA,NA,NA,NA,"",NA,"38"
"",NA,"",NA,"",NA,NA,NA,NA,NA,NA,"","",1,1,"2024-09-01_22h31.34.002","IAT(Formal)","2021.2.3","Win32",19.81218053,NA,"",NA,"",NA,NA,NA,NA,NA,NA,NA,"","","",NA,"i",1,0.6628,0,6,6,43,1,"自私","i","",NA,NA,NA,NA,NA,NA,"",NA,"",NA,NA,NA,NA,NA,NA,NA,"",NA,"",NA,NA,NA,NA,NA,NA,NA,"","","",NA,"",NA,NA,NA,NA,NA,NA,NA,"",NA,"38"
"",NA,"",NA,"",NA,NA,NA,NA,NA,NA,"","",1,1,"2024-09-01_22h31.34.002","IAT(Formal)","2021.2.3","Win32",19.81218053,NA,"",NA,"",NA,NA,NA,NA,NA,NA,NA,"","","",NA,"i",1,0.6412,0,7,7,30,1,"卑鄙","i","",NA,NA,NA,NA,NA,NA,"",NA,"",NA,NA,NA,NA,NA,NA,NA,"",NA,"",NA,NA,NA,NA,NA,NA,NA,"","","",NA,"",NA,NA,NA,NA,NA,NA,NA,"",NA,"38"
"",NA,"",NA,"",NA,NA,NA,NA,NA,NA,"","",1,1,"2024-09-01_22h31.34.002","IAT(Formal)","2021.2.3","Win32",19.81218053,NA,"",NA,"",NA,NA,NA,NA,NA,NA,NA,"","","",NA,"e",1,0.5913,0,8,8,14,1,"乐观","e","",NA,NA,NA,NA,NA,NA,"",NA,"",NA,NA,NA,NA,NA,NA,NA,"",NA,"",NA,NA,NA,NA,NA,NA,NA,"","","",NA,"",NA,NA,NA,NA,NA,NA,NA,"",NA,"38"
"",NA,"",NA,"",NA,NA,NA,NA,NA,NA,"","",1,1,"2024-09-01_22h31.34.002","IAT(Formal)","2021.2.3","Win32",19.81218053,NA,"",NA,"",NA,NA,NA,NA,NA,NA,NA,"","","",NA,"i",1,0.5954,0,9,9,42,1,"凶狠","i","",NA,NA,NA,NA,NA,NA,"",NA,"",NA,NA,NA,NA,NA,NA,NA,"",NA,"",NA,NA,NA,NA,NA,NA,NA,"","","",NA,"",NA,NA,NA,NA,NA,NA,NA,"",NA,"38"
"",NA,"",NA,"",NA,NA,NA,NA,NA,NA,"","",1,1,"2024-09-01_22h31.34.002","IAT(Formal)","2021.2.3","Win32",19.81218053,NA,"",NA,"",NA,NA,NA,NA,NA,NA,NA,"","","",NA,"i",1,0.6555,0,10,10,45,1,"猖狂","i","",NA,NA,NA,NA,NA,NA,"",NA,"",NA,NA,NA,NA,NA,NA,NA,"",NA,"",NA,NA,NA,NA,NA,NA,NA,"","","",NA,"",NA,NA,NA,NA,NA,NA,NA,"",NA,"38"
"",NA,"",NA,"",NA,NA,NA,NA,NA,NA,"","",1,1,"2024-09-01_22h31.34.002","IAT(Formal)","2021.2.3","Win32",19.81218053,NA,"",NA,"",NA,NA,NA,NA,NA,NA,NA,"","","",NA,"e",1,0.5423,0,11,11,11,1,"崇高","e","",NA,NA,NA,NA,NA,NA,"",NA,"",NA,NA,NA,NA,NA,NA,NA,"",NA,"",NA,NA,NA,NA,NA,NA,NA,"","","",NA,"",NA,NA,NA,NA,NA,NA,NA,"",NA,"38"
"",NA,"",NA,"",NA,NA,NA,NA,NA,NA,"","",1,1,"2024-09-01_22h31.34.002","IAT(Formal)","2021.2.3","Win32",19.81218053,NA,"",NA,"",NA,NA,NA,NA,NA,NA,NA,"","","",NA,"i",1,0.6086,0,12,12,55,1,"他","i","",NA,NA,NA,NA,NA,NA,"",NA,"",NA,NA,NA,NA,NA,NA,NA,"",NA,"",NA,NA,NA,NA,NA,NA,NA,"","","",NA,"",NA,NA,NA,NA,NA,NA,NA,"",NA,"38"
"",NA,"",NA,"",NA,NA,NA,NA,NA,NA,"","",1,1,"2024-09-01_22h31.34.002","IAT(Formal)","2021.2.3","Win32",19.81218053,NA,"",NA,"",NA,NA,NA,NA,NA,NA,NA,"","","",NA,"i",1,0.5698,0,13,13,49,1,"下贱","i","",NA,NA,NA,NA,NA,NA,"",NA,"",NA,NA,NA,NA,NA,NA,NA,"",NA,"",NA,NA,NA,NA,NA,NA,NA,"","","",NA,"",NA,NA,NA,NA,NA,NA,NA,"",NA,"38"
"",NA,"",NA,"",NA,NA,NA,NA,NA,NA,"","",1,1,"2024-09-01_22h31.34.002","IAT(Formal)","2021.2.3","Win32",19.81218053,NA,"",NA,"",NA,NA,NA,NA,NA,NA,NA,"","","",NA,"i",1,0.762,0,14,14,41,1,"散漫","i","",NA,NA,NA,NA,NA,NA,"",NA,"",NA,NA,NA,NA,NA,NA,NA,"",NA,"",NA,NA,NA,NA,NA,NA,NA,"","","",NA,"",NA,NA,NA,NA,NA,NA,NA,"",NA,"38"
"",NA,"",NA,"",NA,NA,NA,NA,NA,NA,"","",1,1,"2024-09-01_22h31.34.002","IAT(Formal)","2021.2.3","Win32",19.81218053,NA,"",NA,"",NA,NA,NA,NA,NA,NA,NA,"","","",NA,"i",1,0.8494,0,15,15,48,1,"轻率","i","",NA,NA,NA,NA,NA,NA,"",NA,"",NA,NA,NA,NA,NA,NA,NA,"",NA,"",NA,NA,NA,NA,NA,NA,NA,"","","",NA,"",NA,NA,NA,NA,NA,NA,NA,"",NA,"38"
"",NA,"",NA,"",NA,NA,NA,NA,NA,NA,"","",1,1,"2024-09-01_22h31.34.002","IAT(Formal)","2021.2.3","Win32",19.81218053,NA,"",NA,"",NA,NA,NA,NA,NA,NA,NA,"","","",NA,"e",1,0.5109,0,16,16,15,1,"诚实","e","",NA,NA,NA,NA,NA,NA,"",NA,"",NA,NA,NA,NA,NA,NA,NA,"",NA,"",NA,NA,NA,NA,NA,NA,NA,"","","",NA,"",NA,NA,NA,NA,NA,NA,NA,"",NA,"38"
"",NA,"",NA,"",NA,NA,NA,NA,NA,NA,"","",1,1,"2024-09-01_22h31.34.002","IAT(Formal)","2021.2.3","Win32",19.81218053,NA,"",NA,"",NA,NA,NA,NA,NA,NA,NA,"","","",NA,"i",1,0.5659,0,17,17,38,1,"鲁莽","i","",NA,NA,NA,NA,NA,NA,"",NA,"",NA,NA,NA,NA,NA,NA,NA,"",NA,"",NA,NA,NA,NA,NA,NA,NA,"","","",NA,"",NA,NA,NA,NA,NA,NA,NA,"",NA,"38"
"",NA,"",NA,"",NA,NA,NA,NA,NA,NA,"","",1,1,"2024-09-01_22h31.34.002","IAT(Formal)","2021.2.3","Win32",19.81218053,NA,"",NA,"",NA,NA,NA,NA,NA,NA,NA,"","","",NA,"i",1,0.6117,0,18,18,34,1,"悲观","i","",NA,NA,NA,NA,NA,NA,"",NA,"",NA,NA,NA,NA,NA,NA,NA,"",NA,"",NA,NA,NA,NA,NA,NA,NA,"","","",NA,"",NA,NA,NA,NA,NA,NA,NA,"",NA,"38"
"",NA,"",NA,"",NA,NA,NA,NA,NA,NA,"","",1,1,"2024-09-01_22h31.34.002","IAT(Formal)","2021.2.3","Win32",19.81218053,NA,"",NA,"",NA,NA,NA,NA,NA,NA,NA,"","","",NA,"e",1,1.0974,0,19,19,26,1,"冷静","e","",NA,NA,NA,NA,NA,NA,"",NA,"",NA,NA,NA,NA,NA,NA,NA,"",NA,"",NA,NA,NA,NA,NA,NA,NA,"","","",NA,"",NA,NA,NA,NA,NA,NA,NA,"",NA,"38"
"",NA,"",NA,"",NA,NA,NA,NA,NA,NA,"","",1,1,"2024-09-01_22h31.34.002","IAT(Formal)","2021.2.3","Win32",19.81218053,NA,"",NA,"",NA,NA,NA,NA,NA,NA,NA,"","","",NA,"i",1,0.6031,0,20,20,37,1,"傲慢","i","",NA,NA,NA,NA,NA,NA,"",NA,"",NA,NA,NA,NA,NA,NA,NA,"",NA,"",NA,NA,NA,NA,NA,NA,NA,"","","",NA,"",NA,NA,NA,NA,NA,NA,NA,"",NA,"38"
"",NA,"",NA,"",NA,NA,NA,NA,NA,NA,"","",1,1,"2024-09-01_22h31.34.002","IAT(Formal)","2021.2.3","Win32",19.81218053,NA,"",NA,"",NA,NA,NA,NA,NA,NA,NA,"","","",NA,"i",1,0.6878,0,21,21,8,1,"他人","i","",NA,NA,NA,NA,NA,NA,"",NA,"",NA,NA,NA,NA,NA,NA,NA,"",NA,"",NA,NA,NA,NA,NA,NA,NA,"","","",NA,"",NA,NA,NA,NA,NA,NA,NA,"",NA,"38"
"",NA,"",NA,"",NA,NA,NA,NA,NA,NA,"","",1,1,"2024-09-01_22h31.34.002","IAT(Formal)","2021.2.3","Win32",19.81218053,NA,"",NA,"",NA,NA,NA,NA,NA,NA,NA,"","","",NA,"i",1,0.5969,0,22,22,79,1,"其他","i","",NA,NA,NA,NA,NA,NA,"",NA,"",NA,NA,NA,NA,NA,NA,NA,"",NA,"",NA,NA,NA,NA,NA,NA,NA,"","","",NA,"",NA,NA,NA,NA,NA,NA,NA,"",NA,"38"
"",NA,"",NA,"",NA,NA,NA,NA,NA,NA,"","",1,1,"2024-09-01_22h31.34.002","IAT(Formal)","2021.2.3","Win32",19.81218053,NA,"",NA,"",NA,NA,NA,NA,NA,NA,NA,"","","",NA,"e",1,0.5825,0,23,23,70,1,"我","e","",NA,NA,NA,NA,NA,NA,"",NA,"",NA,NA,NA,NA,NA,NA,NA,"",NA,"",NA,NA,NA,NA,NA,NA,NA,"","","",NA,"",NA,NA,NA,NA,NA,NA,NA,"",NA,"38"
"",NA,"",NA,"",NA,NA,NA,NA,NA,NA,"","",1,1,"2024-09-01_22h31.34.002","IAT(Formal)","2021.2.3","Win32",19.81218053,NA,"",NA,"",NA,NA,NA,NA,NA,NA,NA,"","","",NA,"i",1,0.6671,0,24,24,31,1,"虚伪","i","",NA,NA,NA,NA,NA,NA,"",NA,"",NA,NA,NA,NA,NA,NA,NA,"",NA,"",NA,NA,NA,NA,NA,NA,NA,"","","",NA,"",NA,NA,NA,NA,NA,NA,NA,"",NA,"38"
"",NA,"",NA,"",NA,NA,NA,NA,NA,NA,"","",1,1,"2024-09-01_22h31.34.002","IAT(Formal)","2021.2.3","Win32",19.81218053,NA,"",NA,"",NA,NA,NA,NA,NA,NA,NA,"","","",NA,"e",1,0.6631,0,25,25,24,1,"朴实","e","",NA,NA,NA,NA,NA,NA,"",NA,"",NA,NA,NA,NA,NA,NA,NA,"",NA,"",NA,NA,NA,NA,NA,NA,NA,"","","",NA,"",NA,NA,NA,NA,NA,NA,NA,"",NA,"38"
"",NA,"",NA,"",NA,NA,NA,NA,NA,NA,"","",1,1,"2024-09-01_22h31.34.002","IAT(Formal)","2021.2.3","Win32",19.81218053,NA,"",NA,"",NA,NA,NA,NA,NA,NA,NA,"","","",NA,"e",1,0.5939,0,26,26,71,1,"我的","e","",NA,NA,NA,NA,NA,NA,"",NA,"",NA,NA,NA,NA,NA,NA,NA,"",NA,"",NA,NA,NA,NA,NA,NA,NA,"","","",NA,"",NA,NA,NA,NA,NA,NA,NA,"",NA,"38"
"",NA,"",NA,"",NA,NA,NA,NA,NA,NA,"","",1,1,"2024-09-01_22h31.34.002","IAT(Formal)","2021.2.3","Win32",19.81218053,NA,"",NA,"",NA,NA,NA,NA,NA,NA,NA,"","","",NA,"e",1,0.4711,0,27,27,50,1,"我","e","",NA,NA,NA,NA,NA,NA,"",NA,"",NA,NA,NA,NA,NA,NA,NA,"",NA,"",NA,NA,NA,NA,NA,NA,NA,"","","",NA,"",NA,NA,NA,NA,NA,NA,NA,"",NA,"38"
"",NA,"",NA,"",NA,NA,NA,NA,NA,NA,"","",1,1,"2024-09-01_22h31.34.002","IAT(Formal)","2021.2.3","Win32",19.81218053,NA,"",NA,"",NA,NA,NA,NA,NA,NA,NA,"","","",NA,"e",1,0.6379,0,28,28,27,1,"热情","e","",NA,NA,NA,NA,NA,NA,"",NA,"",NA,NA,NA,NA,NA,NA,NA,"",NA,"",NA,NA,NA,NA,NA,NA,NA,"","","",NA,"",NA,NA,NA,NA,NA,NA,NA,"",NA,"38"
"",NA,"",NA,"",NA,NA,NA,NA,NA,NA,"","",1,1,"2024-09-01_22h31.34.002","IAT(Formal)","2021.2.3","Win32",19.81218053,NA,"",NA,"",NA,NA,NA,NA,NA,NA,NA,"","","",NA,"i",1,0.5034,0,29,29,78,1,"他人","i","",NA,NA,NA,NA,NA,NA,"",NA,"",NA,NA,NA,NA,NA,NA,NA,"",NA,"",NA,NA,NA,NA,NA,NA,NA,"","","",NA,"",NA,NA,NA,NA,NA,NA,NA,"",NA,"38"
"",NA,"",NA,"",NA,NA,NA,NA,NA,NA,"","",1,1,"2024-09-01_22h31.34.002","IAT(Formal)","2021.2.3","Win32",19.81218053,NA,"",NA,"",NA,NA,NA,NA,NA,NA,NA,"","","",NA,"e",1,0.5813,0,30,30,53,1,"自己","e","",NA,NA,NA,NA,NA,NA,"",NA,"",NA,NA,NA,NA,NA,NA,NA,"",NA,"",NA,NA,NA,NA,NA,NA,NA,"","","",NA,"",NA,NA,NA,NA,NA,NA,NA,"",NA,"38"
"",NA,"",NA,"",NA,NA,NA,NA,NA,NA,"","",1,1,"2024-09-01_22h31.34.002","IAT(Formal)","2021.2.3","Win32",19.81218053,NA,"",NA,"",NA,NA,NA,NA,NA,NA,NA,"","","",NA,"e",1,0.5746,0,31,31,72,1,"我们","e","",NA,NA,NA,NA,NA,NA,"",NA,"",NA,NA,NA,NA,NA,NA,NA,"",NA,"",NA,NA,NA,NA,NA,NA,NA,"","","",NA,"",NA,NA,NA,NA,NA,NA,NA,"",NA,"38"
"",NA,"",NA,"",NA,NA,NA,NA,NA,NA,"","",1,1,"2024-09-01_22h31.34.002","IAT(Formal)","2021.2.3","Win32",19.81218053,NA,"",NA,"",NA,NA,NA,NA,NA,NA,NA,"","","",NA,"e",1,0.4837,0,32,32,51,1,"我的","e","",NA,NA,NA,NA,NA,NA,"",NA,"",NA,NA,NA,NA,NA,NA,NA,"",NA,"",NA,NA,NA,NA,NA,NA,NA,"","","",NA,"",NA,NA,NA,NA,NA,NA,NA,"",NA,"38"
"",NA,"",NA,"",NA,NA,NA,NA,NA,NA,"","",1,1,"2024-09-01_22h31.34.002","IAT(Formal)","2021.2.3","Win32",19.81218053,NA,"",NA,"",NA,NA,NA,NA,NA,NA,NA,"","","",NA,"e",1,0.5783,0,33,33,12,1,"聪明","e","",NA,NA,NA,NA,NA,NA,"",NA,"",NA,NA,NA,NA,NA,NA,NA,"",NA,"",NA,NA,NA,NA,NA,NA,NA,"","","",NA,"",NA,NA,NA,NA,NA,NA,NA,"",NA,"38"
"",NA,"",NA,"",NA,NA,NA,NA,NA,NA,"","",1,1,"2024-09-01_22h31.34.002","IAT(Formal)","2021.2.3","Win32",19.81218053,NA,"",NA,"",NA,NA,NA,NA,NA,NA,NA,"","","",NA,"e",1,0.5569,0,34,34,74,1,"俺","e","",NA,NA,NA,NA,NA,NA,"",NA,"",NA,NA,NA,NA,NA,NA,NA,"",NA,"",NA,NA,NA,NA,NA,NA,NA,"","","",NA,"",NA,NA,NA,NA,NA,NA,NA,"",NA,"38"
"",NA,"",NA,"",NA,NA,NA,NA,NA,NA,"","",1,1,"2024-09-01_22h31.34.002","IAT(Formal)","2021.2.3","Win32",19.81218053,NA,"",NA,"",NA,NA,NA,NA,NA,NA,NA,"","","",NA,"e",1,0.5319,0,35,35,10,1,"优秀","e","",NA,NA,NA,NA,NA,NA,"",NA,"",NA,NA,NA,NA,NA,NA,NA,"",NA,"",NA,NA,NA,NA,NA,NA,NA,"","","",NA,"",NA,NA,NA,NA,NA,NA,NA,"",NA,"38"
"",NA,"",NA,"",NA,NA,NA,NA,NA,NA,"","",1,1,"2024-09-01_22h31.34.002","IAT(Formal)","2021.2.3","Win32",19.81218053,NA,"",NA,"",NA,NA,NA,NA,NA,NA,NA,"","","",NA,"e",1,0.5836,0,36,36,18,1,"勤奋","e","",NA,NA,NA,NA,NA,NA,"",NA,"",NA,NA,NA,NA,NA,NA,NA,"",NA,"",NA,NA,NA,NA,NA,NA,NA,"","","",NA,"",NA,NA,NA,NA,NA,NA,NA,"",NA,"38"
"",NA,"",NA,"",NA,NA,NA,NA,NA,NA,"","",1,1,"2024-09-01_22h31.34.002","IAT(Formal)","2021.2.3","Win32",19.81218053,NA,"",NA,"",NA,NA,NA,NA,NA,NA,NA,"","","",NA,"i",1,0.594,0,37,37,67,1,"他的","i","",NA,NA,NA,NA,NA,NA,"",NA,"",NA,NA,NA,NA,NA,NA,NA,"",NA,"",NA,NA,NA,NA,NA,NA,NA,"","","",NA,"",NA,NA,NA,NA,NA,NA,NA,"",NA,"38"
"",NA,"",NA,"",NA,NA,NA,NA,NA,NA,"","",1,1,"2024-09-01_22h31.34.002","IAT(Formal)","2021.2.3","Win32",19.81218053,NA,"",NA,"",NA,NA,NA,NA,NA,NA,NA,"","","",NA,"e",1,0.5961,0,38,38,3,1,"自己","e","",NA,NA,NA,NA,NA,NA,"",NA,"",NA,NA,NA,NA,NA,NA,NA,"",NA,"",NA,NA,NA,NA,NA,NA,NA,"","","",NA,"",NA,NA,NA,NA,NA,NA,NA,"",NA,"38"
"",NA,"",NA,"",NA,NA,NA,NA,NA,NA,"","",1,1,"2024-09-01_22h31.34.002","IAT(Formal)","2021.2.3","Win32",19.81218053,NA,"",NA,"",NA,NA,NA,NA,NA,NA,NA,"","","",NA,"e",1,0.544,0,39,39,63,1,"自己","e","",NA,NA,NA,NA,NA,NA,"",NA,"",NA,NA,NA,NA,NA,NA,NA,"",NA,"",NA,NA,NA,NA,NA,NA,NA,"","","",NA,"",NA,NA,NA,NA,NA,NA,NA,"",NA,"38"
"",NA,"",NA,"",NA,NA,NA,NA,NA,NA,"","",1,1,"2024-09-01_22h31.34.002","IAT(Formal)","2021.2.3","Win32",19.81218053,NA,"",NA,"",NA,NA,NA,NA,NA,NA,NA,"","","",NA,"e",1,0.5312,0,40,40,22,1,"无私","e","",NA,NA,NA,NA,NA,NA,"",NA,"",NA,NA,NA,NA,NA,NA,NA,"",NA,"",NA,NA,NA,NA,NA,NA,NA,"","","",NA,"",NA,NA,NA,NA,NA,NA,NA,"",NA,"38"
"",NA,"",NA,"",NA,NA,NA,NA,NA,NA,"","",1,1,"2024-09-01_22h31.34.002","IAT(Formal)","2021.2.3","Win32",19.81218053,NA,"",NA,"",NA,NA,NA,NA,NA,NA,NA,"","","",NA,"i",1,0.6165,0,41,41,65,1,"他","i","",NA,NA,NA,NA,NA,NA,"",NA,"",NA,NA,NA,NA,NA,NA,NA,"",NA,"",NA,NA,NA,NA,NA,NA,NA,"","","",NA,"",NA,NA,NA,NA,NA,NA,NA,"",NA,"38"
"",NA,"",NA,"",NA,NA,NA,NA,NA,NA,"","",1,1,"2024-09-01_22h31.34.002","IAT(Formal)","2021.2.3","Win32",19.81218053,NA,"",NA,"",NA,NA,NA,NA,NA,NA,NA,"","","",NA,"e",1,0.489,0,42,42,52,1,"我们","e","",NA,NA,NA,NA,NA,NA,"",NA,"",NA,NA,NA,NA,NA,NA,NA,"",NA,"",NA,NA,NA,NA,NA,NA,NA,"","","",NA,"",NA,NA,NA,NA,NA,NA,NA,"",NA,"38"
"",NA,"",NA,"",NA,NA,NA,NA,NA,NA,"","",1,1,"2024-09-01_22h31.34.002","IAT(Formal)","2021.2.3","Win32",19.81218053,NA,"",NA,"",NA,NA,NA,NA,NA,NA,NA,"","","",NA,"i",1,0.6334,0,43,43,39,1,"冒失","i","",NA,NA,NA,NA,NA,NA,"",NA,"",NA,NA,NA,NA,NA,NA,NA,"",NA,"",NA,NA,NA,NA,NA,NA,NA,"","","",NA,"",NA,NA,NA,NA,NA,NA,NA,"",NA,"38"
"",NA,"",NA,"",NA,NA,NA,NA,NA,NA,"","",1,1,"2024-09-01_22h31.34.002","IAT(Formal)","2021.2.3","Win32",19.81218053,NA,"",NA,"",NA,NA,NA,NA,NA,NA,NA,"","","",NA,"i",1,0.576,0,44,44,46,1,"野蛮","i","",NA,NA,NA,NA,NA,NA,"",NA,"",NA,NA,NA,NA,NA,NA,NA,"",NA,"",NA,NA,NA,NA,NA,NA,NA,"","","",NA,"",NA,NA,NA,NA,NA,NA,NA,"",NA,"38"
"",NA,"",NA,"",NA,NA,NA,NA,NA,NA,"","",1,1,"2024-09-01_22h31.34.002","IAT(Formal)","2021.2.3","Win32",19.81218053,NA,"",NA,"",NA,NA,NA,NA,NA,NA,NA,"","","",NA,"e",0,0.5168,0,45,45,5,1,"他","i","",NA,NA,NA,NA,NA,NA,"",NA,"",NA,NA,NA,NA,NA,NA,NA,"",NA,"",NA,NA,NA,NA,NA,NA,NA,"","","",NA,"",NA,NA,NA,NA,NA,NA,NA,"",NA,"38"
"",NA,"",NA,"",NA,NA,NA,NA,NA,NA,"","",1,1,"2024-09-01_22h31.34.002","IAT(Formal)","2021.2.3","Win32",19.81218053,NA,"",NA,"",NA,NA,NA,NA,NA,NA,NA,"","","",NA,"i",1,0.677,0,46,46,66,1,"他们","i","",NA,NA,NA,NA,NA,NA,"",NA,"",NA,NA,NA,NA,NA,NA,NA,"",NA,"",NA,NA,NA,NA,NA,NA,NA,"","","",NA,"",NA,NA,NA,NA,NA,NA,NA,"",NA,"38"
"",NA,"",NA,"",NA,NA,NA,NA,NA,NA,"","",1,1,"2024-09-01_22h31.34.002","IAT(Formal)","2021.2.3","Win32",19.81218053,NA,"",NA,"",NA,NA,NA,NA,NA,NA,NA,"","","",NA,"i",1,0.6413,0,47,47,77,1,"他的","i","",NA,NA,NA,NA,NA,NA,"",NA,"",NA,NA,NA,NA,NA,NA,NA,"",NA,"",NA,NA,NA,NA,NA,NA,NA,"","","",NA,"",NA,NA,NA,NA,NA,NA,NA,"",NA,"38"
"",NA,"",NA,"",NA,NA,NA,NA,NA,NA,"","",1,1,"2024-09-01_22h31.34.002","IAT(Formal)","2021.2.3","Win32",19.81218053,NA,"",NA,"",NA,NA,NA,NA,NA,NA,NA,"","","",NA,"e",1,0.6506,0,48,48,2,1,"我们","e","",NA,NA,NA,NA,NA,NA,"",NA,"",NA,NA,NA,NA,NA,NA,NA,"",NA,"",NA,NA,NA,NA,NA,NA,NA,"","","",NA,"",NA,NA,NA,NA,NA,NA,NA,"",NA,"38"
"",NA,"",NA,"",NA,NA,NA,NA,NA,NA,"","",1,1,"2024-09-01_22h31.34.002","IAT(Formal)","2021.2.3","Win32",19.81218053,NA,"",NA,"",NA,NA,NA,NA,NA,NA,NA,"","","",NA,"i",1,0.6692,0,49,49,47,1,"固执","i","",NA,NA,NA,NA,NA,NA,"",NA,"",NA,NA,NA,NA,NA,NA,NA,"",NA,"",NA,NA,NA,NA,NA,NA,NA,"","","",NA,"",NA,NA,NA,NA,NA,NA,NA,"",NA,"38"
"",NA,"",NA,"",NA,NA,NA,NA,NA,NA,"","",1,1,"2024-09-01_22h31.34.002","IAT(Formal)","2021.2.3","Win32",19.81218053,NA,"",NA,"",NA,NA,NA,NA,NA,NA,NA,"","","",NA,"e",1,0.5798,0,50,50,54,1,"俺","e","",NA,NA,NA,NA,NA,NA,"",NA,"",NA,NA,NA,NA,NA,NA,NA,"",NA,"",NA,NA,NA,NA,NA,NA,NA,"","","",NA,"",NA,NA,NA,NA,NA,NA,NA,"",NA,"38"
"",NA,"",NA,"",NA,NA,NA,NA,NA,NA,"","",1,1,"2024-09-01_22h31.34.002","IAT(Formal)","2021.2.3","Win32",19.81218053,NA,"",NA,"",NA,NA,NA,NA,NA,NA,NA,"","","",NA,"i",1,0.643,0,51,51,44,1,"暴躁","i","",NA,NA,NA,NA,NA,NA,"",NA,"",NA,NA,NA,NA,NA,NA,NA,"",NA,"",NA,NA,NA,NA,NA,NA,NA,"","","",NA,"",NA,NA,NA,NA,NA,NA,NA,"",NA,"38"
"",NA,"",NA,"",NA,NA,NA,NA,NA,NA,"","",1,1,"2024-09-01_22h31.34.002","IAT(Formal)","2021.2.3","Win32",19.81218053,NA,"",NA,"",NA,NA,NA,NA,NA,NA,NA,"","","",NA,"e",1,0.5805,0,52,52,1,1,"我的","e","",NA,NA,NA,NA,NA,NA,"",NA,"",NA,NA,NA,NA,NA,NA,NA,"",NA,"",NA,NA,NA,NA,NA,NA,NA,"","","",NA,"",NA,NA,NA,NA,NA,NA,NA,"",NA,"38"
"",NA,"",NA,"",NA,NA,NA,NA,NA,NA,"","",1,1,"2024-09-01_22h31.34.002","IAT(Formal)","2021.2.3","Win32",19.81218053,NA,"",NA,"",NA,NA,NA,NA,NA,NA,NA,"","","",NA,"e",1,0.5691,0,53,53,62,1,"我们","e","",NA,NA,NA,NA,NA,NA,"",NA,"",NA,NA,NA,NA,NA,NA,NA,"",NA,"",NA,NA,NA,NA,NA,NA,NA,"","","",NA,"",NA,NA,NA,NA,NA,NA,NA,"",NA,"38"
"",NA,"",NA,"",NA,NA,NA,NA,NA,NA,"","",1,1,"2024-09-01_22h31.34.002","IAT(Formal)","2021.2.3","Win32",19.81218053,NA,"",NA,"",NA,NA,NA,NA,NA,NA,NA,"","","",NA,"i",1,0.6435,0,54,54,9,1,"其他","i","",NA,NA,NA,NA,NA,NA,"",NA,"",NA,NA,NA,NA,NA,NA,NA,"",NA,"",NA,NA,NA,NA,NA,NA,NA,"","","",NA,"",NA,NA,NA,NA,NA,NA,NA,"",NA,"38"
"",NA,"",NA,"",NA,NA,NA,NA,NA,NA,"","",1,1,"2024-09-01_22h31.34.002","IAT(Formal)","2021.2.3","Win32",19.81218053,NA,"",NA,"",NA,NA,NA,NA,NA,NA,NA,"","","",NA,"i",1,0.6348,0,55,55,76,1,"他们","i","",NA,NA,NA,NA,NA,NA,"",NA,"",NA,NA,NA,NA,NA,NA,NA,"",NA,"",NA,NA,NA,NA,NA,NA,NA,"","","",NA,"",NA,NA,NA,NA,NA,NA,NA,"",NA,"38"
"",NA,"",NA,"",NA,NA,NA,NA,NA,NA,"","",1,1,"2024-09-01_22h31.34.002","IAT(Formal)","2021.2.3","Win32",19.81218053,NA,"",NA,"",NA,NA,NA,NA,NA,NA,NA,"","","",NA,"e",1,0.588,0,56,56,61,1,"我的","e","",NA,NA,NA,NA,NA,NA,"",NA,"",NA,NA,NA,NA,NA,NA,NA,"",NA,"",NA,NA,NA,NA,NA,NA,NA,"","","",NA,"",NA,NA,NA,NA,NA,NA,NA,"",NA,"38"
"",NA,"",NA,"",NA,NA,NA,NA,NA,NA,"","",1,1,"2024-09-01_22h31.34.002","IAT(Formal)","2021.2.3","Win32",19.81218053,NA,"",NA,"",NA,NA,NA,NA,NA,NA,NA,"","","",NA,"i",1,0.5533,0,57,57,6,1,"他们","i","",NA,NA,NA,NA,NA,NA,"",NA,"",NA,NA,NA,NA,NA,NA,NA,"",NA,"",NA,NA,NA,NA,NA,NA,NA,"","","",NA,"",NA,NA,NA,NA,NA,NA,NA,"",NA,"38"
"",NA,"",NA,"",NA,NA,NA,NA,NA,NA,"","",1,1,"2024-09-01_22h31.34.002","IAT(Formal)","2021.2.3","Win32",19.81218053,NA,"",NA,"",NA,NA,NA,NA,NA,NA,NA,"","","",NA,"e",1,0.7261,0,58,58,29,1,"诚恳","e","",NA,NA,NA,NA,NA,NA,"",NA,"",NA,NA,NA,NA,NA,NA,NA,"",NA,"",NA,NA,NA,NA,NA,NA,NA,"","","",NA,"",NA,NA,NA,NA,NA,NA,NA,"",NA,"38"
"",NA,"",NA,"",NA,NA,NA,NA,NA,NA,"","",1,1,"2024-09-01_22h31.34.002","IAT(Formal)","2021.2.3","Win32",19.81218053,NA,"",NA,"",NA,NA,NA,NA,NA,NA,NA,"","","",NA,"e",1,0.4352,0,59,59,60,1,"我","e","",NA,NA,NA,NA,NA,NA,"",NA,"",NA,NA,NA,NA,NA,NA,NA,"",NA,"",NA,NA,NA,NA,NA,NA,NA,"","","",NA,"",NA,NA,NA,NA,NA,NA,NA,"",NA,"38"
"",NA,"",NA,"",NA,NA,NA,NA,NA,NA,"","",1,1,"2024-09-01_22h31.34.002","IAT(Formal)","2021.2.3","Win32",19.81218053,NA,"",NA,"",NA,NA,NA,NA,NA,NA,NA,"","","",NA,"i",1,0.5488,0,60,60,32,1,"愚蠢","i","",NA,NA,NA,NA,NA,NA,"",NA,"",NA,NA,NA,NA,NA,NA,NA,"",NA,"",NA,NA,NA,NA,NA,NA,NA,"","","",NA,"",NA,NA,NA,NA,NA,NA,NA,"",NA,"38"
"",NA,"",NA,"",NA,NA,NA,NA,NA,NA,"","",1,1,"2024-09-01_22h31.34.002","IAT(Formal)","2021.2.3","Win32",19.81218053,NA,"",NA,"",NA,NA,NA,NA,NA,NA,NA,"","","",NA,"i",1,0.5983,0,61,61,35,1,"消极","i","",NA,NA,NA,NA,NA,NA,"",NA,"",NA,NA,NA,NA,NA,NA,NA,"",NA,"",NA,NA,NA,NA,NA,NA,NA,"","","",NA,"",NA,NA,NA,NA,NA,NA,NA,"",NA,"38"
"",NA,"",NA,"",NA,NA,NA,NA,NA,NA,"","",1,1,"2024-09-01_22h31.34.002","IAT(Formal)","2021.2.3","Win32",19.81218053,NA,"",NA,"",NA,NA,NA,NA,NA,NA,NA,"","","",NA,"e",1,0.7597,0,62,62,23,1,"公正","e","",NA,NA,NA,NA,NA,NA,"",NA,"",NA,NA,NA,NA,NA,NA,NA,"",NA,"",NA,NA,NA,NA,NA,NA,NA,"","","",NA,"",NA,NA,NA,NA,NA,NA,NA,"",NA,"38"
"",NA,"",NA,"",NA,NA,NA,NA,NA,NA,"","",1,1,"2024-09-01_22h31.34.002","IAT(Formal)","2021.2.3","Win32",19.81218053,NA,"",NA,"",NA,NA,NA,NA,NA,NA,NA,"","","",NA,"e",1,0.5678,0,63,63,19,1,"机智","e","",NA,NA,NA,NA,NA,NA,"",NA,"",NA,NA,NA,NA,NA,NA,NA,"",NA,"",NA,NA,NA,NA,NA,NA,NA,"","","",NA,"",NA,NA,NA,NA,NA,NA,NA,"",NA,"38"
"",NA,"",NA,"",NA,NA,NA,NA,NA,NA,"","",1,1,"2024-09-01_22h31.34.002","IAT(Formal)","2021.2.3","Win32",19.81218053,NA,"",NA,"",NA,NA,NA,NA,NA,NA,NA,"","","",NA,"e",1,0.5715,0,64,64,73,1,"自己","e","",NA,NA,NA,NA,NA,NA,"",NA,"",NA,NA,NA,NA,NA,NA,NA,"",NA,"",NA,NA,NA,NA,NA,NA,NA,"","","",NA,"",NA,NA,NA,NA,NA,NA,NA,"",NA,"38"
"",NA,"",NA,"",NA,NA,NA,NA,NA,NA,"","",1,1,"2024-09-01_22h31.34.002","IAT(Formal)","2021.2.3","Win32",19.81218053,NA,"",NA,"",NA,NA,NA,NA,NA,NA,NA,"","","",NA,"i",1,0.5548,0,65,65,56,1,"他们","i","",NA,NA,NA,NA,NA,NA,"",NA,"",NA,NA,NA,NA,NA,NA,NA,"",NA,"",NA,NA,NA,NA,NA,NA,NA,"","","",NA,"",NA,NA,NA,NA,NA,NA,NA,"",NA,"38"
"",NA,"",NA,"",NA,NA,NA,NA,NA,NA,"","",1,1,"2024-09-01_22h31.34.002","IAT(Formal)","2021.2.3","Win32",19.81218053,NA,"",NA,"",NA,NA,NA,NA,NA,NA,NA,"","","",NA,"i",1,0.6286,0,66,66,40,1,"执拗","i","",NA,NA,NA,NA,NA,NA,"",NA,"",NA,NA,NA,NA,NA,NA,NA,"",NA,"",NA,NA,NA,NA,NA,NA,NA,"","","",NA,"",NA,NA,NA,NA,NA,NA,NA,"",NA,"38"
"",NA,"",NA,"",NA,NA,NA,NA,NA,NA,"","",1,1,"2024-09-01_22h31.34.002","IAT(Formal)","2021.2.3","Win32",19.81218053,NA,"",NA,"",NA,NA,NA,NA,NA,NA,NA,"","","",NA,"e",1,0.7727,0,67,67,17,1,"勇敢","e","",NA,NA,NA,NA,NA,NA,"",NA,"",NA,NA,NA,NA,NA,NA,NA,"",NA,"",NA,NA,NA,NA,NA,NA,NA,"","","",NA,"",NA,NA,NA,NA,NA,NA,NA,"",NA,"38"
"",NA,"",NA,"",NA,NA,NA,NA,NA,NA,"","",1,1,"2024-09-01_22h31.34.002","IAT(Formal)","2021.2.3","Win32",19.81218053,NA,"",NA,"",NA,NA,NA,NA,NA,NA,NA,"","","",NA,"i",1,0.6189,0,68,68,36,1,"自卑","i","",NA,NA,NA,NA,NA,NA,"",NA,"",NA,NA,NA,NA,NA,NA,NA,"",NA,"",NA,NA,NA,NA,NA,NA,NA,"","","",NA,"",NA,NA,NA,NA,NA,NA,NA,"",NA,"38"
"",NA,"",NA,"",NA,NA,NA,NA,NA,NA,"","",1,1,"2024-09-01_22h31.34.002","IAT(Formal)","2021.2.3","Win32",19.81218053,NA,"",NA,"",NA,NA,NA,NA,NA,NA,NA,"","","",NA,"i",1,0.7446,0,69,69,58,1,"他人","i","",NA,NA,NA,NA,NA,NA,"",NA,"",NA,NA,NA,NA,NA,NA,NA,"",NA,"",NA,NA,NA,NA,NA,NA,NA,"","","",NA,"",NA,NA,NA,NA,NA,NA,NA,"",NA,"38"
"",NA,"",NA,"",NA,NA,NA,NA,NA,NA,"","",1,1,"2024-09-01_22h31.34.002","IAT(Formal)","2021.2.3","Win32",19.81218053,NA,"",NA,"",NA,NA,NA,NA,NA,NA,NA,"","","",NA,"i",1,0.5733,0,70,70,57,1,"他的","i","",NA,NA,NA,NA,NA,NA,"",NA,"",NA,NA,NA,NA,NA,NA,NA,"",NA,"",NA,NA,NA,NA,NA,NA,NA,"","","",NA,"",NA,NA,NA,NA,NA,NA,NA,"",NA,"38"
"",NA,"",NA,"",NA,NA,NA,NA,NA,NA,"","",1,1,"2024-09-01_22h31.34.002","IAT(Formal)","2021.2.3","Win32",19.81218053,NA,"",NA,"",NA,NA,NA,NA,NA,NA,NA,"","","",NA,"e",1,0.4988,0,71,71,0,1,"我","e","",NA,NA,NA,NA,NA,NA,"",NA,"",NA,NA,NA,NA,NA,NA,NA,"",NA,"",NA,NA,NA,NA,NA,NA,NA,"","","",NA,"",NA,NA,NA,NA,NA,NA,NA,"",NA,"38"
"",NA,"",NA,"",NA,NA,NA,NA,NA,NA,"","",1,1,"2024-09-01_22h31.34.002","IAT(Formal)","2021.2.3","Win32",19.81218053,NA,"",NA,"",NA,NA,NA,NA,NA,NA,NA,"","","",NA,"e",1,0.6453,0,72,72,25,1,"细腻","e","",NA,NA,NA,NA,NA,NA,"",NA,"",NA,NA,NA,NA,NA,NA,NA,"",NA,"",NA,NA,NA,NA,NA,NA,NA,"","","",NA,"",NA,NA,NA,NA,NA,NA,NA,"",NA,"38"
"",NA,"",NA,"",NA,NA,NA,NA,NA,NA,"","",1,1,"2024-09-01_22h31.34.002","IAT(Formal)","2021.2.3","Win32",19.81218053,NA,"",NA,"",NA,NA,NA,NA,NA,NA,NA,"","","",NA,"e",1,0.6697,0,73,73,4,1,"俺","e","",NA,NA,NA,NA,NA,NA,"",NA,"",NA,NA,NA,NA,NA,NA,NA,"",NA,"",NA,NA,NA,NA,NA,NA,NA,"","","",NA,"",NA,NA,NA,NA,NA,NA,NA,"",NA,"38"
"",NA,"",NA,"",NA,NA,NA,NA,NA,NA,"","",1,1,"2024-09-01_22h31.34.002","IAT(Formal)","2021.2.3","Win32",19.81218053,NA,"",NA,"",NA,NA,NA,NA,NA,NA,NA,"","","",NA,"i",1,0.5051,0,74,74,59,1,"其他","i","",NA,NA,NA,NA,NA,NA,"",NA,"",NA,NA,NA,NA,NA,NA,NA,"",NA,"",NA,NA,NA,NA,NA,NA,NA,"","","",NA,"",NA,NA,NA,NA,NA,NA,NA,"",NA,"38"
"",NA,"",NA,"",NA,NA,NA,NA,NA,NA,"","",1,1,"2024-09-01_22h31.34.002","IAT(Formal)","2021.2.3","Win32",19.81218053,NA,"",NA,"",NA,NA,NA,NA,NA,NA,NA,"","","",NA,"e",1,0.571,0,75,75,28,1,"活泼","e","",NA,NA,NA,NA,NA,NA,"",NA,"",NA,NA,NA,NA,NA,NA,NA,"",NA,"",NA,NA,NA,NA,NA,NA,NA,"","","",NA,"",NA,NA,NA,NA,NA,NA,NA,"",NA,"38"
"",NA,"",NA,"",NA,NA,NA,NA,NA,NA,"","",1,1,"2024-09-01_22h31.34.002","IAT(Formal)","2021.2.3","Win32",19.81218053,NA,"",NA,"",NA,NA,NA,NA,NA,NA,NA,"","","",NA,"i",1,0.5257,0,76,76,7,1,"他的","i","",NA,NA,NA,NA,NA,NA,"",NA,"",NA,NA,NA,NA,NA,NA,NA,"",NA,"",NA,NA,NA,NA,NA,NA,NA,"","","",NA,"",NA,NA,NA,NA,NA,NA,NA,"",NA,"38"
"",NA,"",NA,"",NA,NA,NA,NA,NA,NA,"","",1,1,"2024-09-01_22h31.34.002","IAT(Formal)","2021.2.3","Win32",19.81218053,NA,"",NA,"",NA,NA,NA,NA,NA,NA,NA,"","","",NA,"i",1,0.5211,0,77,77,68,1,"他人","i","",NA,NA,NA,NA,NA,NA,"",NA,"",NA,NA,NA,NA,NA,NA,NA,"",NA,"",NA,NA,NA,NA,NA,NA,NA,"","","",NA,"",NA,NA,NA,NA,NA,NA,NA,"",NA,"38"
"",NA,"",NA,"",NA,NA,NA,NA,NA,NA,"","",1,1,"2024-09-01_22h31.34.002","IAT(Formal)","2021.2.3","Win32",19.81218053,NA,"",NA,"",NA,NA,NA,NA,NA,NA,NA,"","","",NA,"e",1,0.5982,0,78,78,64,1,"俺","e","",NA,NA,NA,NA,NA,NA,"",NA,"",NA,NA,NA,NA,NA,NA,NA,"",NA,"",NA,NA,NA,NA,NA,NA,NA,"","","",NA,"",NA,NA,NA,NA,NA,NA,NA,"",NA,"38"
"",NA,"",NA,"",NA,NA,NA,NA,NA,NA,"","",1,1,"2024-09-01_22h31.34.002","IAT(Formal)","2021.2.3","Win32",19.81218053,NA,"",NA,"",NA,NA,NA,NA,NA,NA,NA,"","","",NA,"e",1,0.5602,0,79,79,16,1,"正直","e","",NA,NA,NA,NA,NA,NA,"",NA,"",NA,NA,NA,NA,NA,NA,NA,"",NA,"",NA,NA,NA,NA,NA,NA,NA,"","","",NA,"",NA,NA,NA,NA,NA,NA,NA,"",NA,"38"
"",NA,"",NA,"",NA,NA,NA,NA,NA,NA,"","",1,1,"2024-09-01_22h31.34.002","IAT(Formal)","2021.2.3","Win32",19.81218053,NA,"",NA,"",NA,NA,NA,NA,NA,NA,NA,"","","",NA,"i",1,0.6105,NA,NA,NA,NA,NA,"冒失","i","space",7.2622,0,0,0,39,1,"",NA,"",NA,NA,NA,NA,NA,NA,NA,"",NA,"",NA,NA,NA,NA,NA,NA,NA,"","","",NA,"",NA,NA,NA,NA,NA,NA,NA,"",NA,"38"
"",NA,"",NA,"",NA,NA,NA,NA,NA,NA,"","",1,1,"2024-09-01_22h31.34.002","IAT(Formal)","2021.2.3","Win32",19.81218053,NA,"",NA,"",NA,NA,NA,NA,NA,NA,NA,"","","",NA,"i",1,0.5025,NA,NA,NA,NA,NA,"猖狂","i","",NA,0,1,1,45,1,"",NA,"",NA,NA,NA,NA,NA,NA,NA,"",NA,"",NA,NA,NA,NA,NA,NA,NA,"","","",NA,"",NA,NA,NA,NA,NA,NA,NA,"",NA,"38"
"",NA,"",NA,"",NA,NA,NA,NA,NA,NA,"","",1,1,"2024-09-01_22h31.34.002","IAT(Formal)","2021.2.3","Win32",19.81218053,NA,"",NA,"",NA,NA,NA,NA,NA,NA,NA,"","","",NA,"i",1,0.4507,NA,NA,NA,NA,NA,"卑鄙","i","",NA,0,2,2,30,1,"",NA,"",NA,NA,NA,NA,NA,NA,NA,"",NA,"",NA,NA,NA,NA,NA,NA,NA,"","","",NA,"",NA,NA,NA,NA,NA,NA,NA,"",NA,"38"
"",NA,"",NA,"",NA,NA,NA,NA,NA,NA,"","",1,1,"2024-09-01_22h31.34.002","IAT(Formal)","2021.2.3","Win32",19.81218053,NA,"",NA,"",NA,NA,NA,NA,NA,NA,NA,"","","",NA,"e",1,0.5697,NA,NA,NA,NA,NA,"杰出","e","",NA,0,3,3,13,1,"",NA,"",NA,NA,NA,NA,NA,NA,NA,"",NA,"",NA,NA,NA,NA,NA,NA,NA,"","","",NA,"",NA,NA,NA,NA,NA,NA,NA,"",NA,"38"
"",NA,"",NA,"",NA,NA,NA,NA,NA,NA,"","",1,1,"2024-09-01_22h31.34.002","IAT(Formal)","2021.2.3","Win32",19.81218053,NA,"",NA,"",NA,NA,NA,NA,NA,NA,NA,"","","",NA,"i",1,0.69,NA,NA,NA,NA,NA,"他的","i","",NA,0,4,4,67,1,"",NA,"",NA,NA,NA,NA,NA,NA,NA,"",NA,"",NA,NA,NA,NA,NA,NA,NA,"","","",NA,"",NA,NA,NA,NA,NA,NA,NA,"",NA,"38"
"",NA,"",NA,"",NA,NA,NA,NA,NA,NA,"","",1,1,"2024-09-01_22h31.34.002","IAT(Formal)","2021.2.3","Win32",19.81218053,NA,"",NA,"",NA,NA,NA,NA,NA,NA,NA,"","","",NA,"i",1,0.9432,NA,NA,NA,NA,NA,"傲慢","i","",NA,0,5,5,37,1,"",NA,"",NA,NA,NA,NA,NA,NA,NA,"",NA,"",NA,NA,NA,NA,NA,NA,NA,"","","",NA,"",NA,NA,NA,NA,NA,NA,NA,"",NA,"38"
"",NA,"",NA,"",NA,NA,NA,NA,NA,NA,"","",1,1,"2024-09-01_22h31.34.002","IAT(Formal)","2021.2.3","Win32",19.81218053,NA,"",NA,"",NA,NA,NA,NA,NA,NA,NA,"","","",NA,"e",1,0.572,NA,NA,NA,NA,NA,"俺","e","",NA,0,6,6,74,1,"",NA,"",NA,NA,NA,NA,NA,NA,NA,"",NA,"",NA,NA,NA,NA,NA,NA,NA,"","","",NA,"",NA,NA,NA,NA,NA,NA,NA,"",NA,"38"
"",NA,"",NA,"",NA,NA,NA,NA,NA,NA,"","",1,1,"2024-09-01_22h31.34.002","IAT(Formal)","2021.2.3","Win32",19.81218053,NA,"",NA,"",NA,NA,NA,NA,NA,NA,NA,"","","",NA,"i",1,0.5392,NA,NA,NA,NA,NA,"他们","i","",NA,0,7,7,66,1,"",NA,"",NA,NA,NA,NA,NA,NA,NA,"",NA,"",NA,NA,NA,NA,NA,NA,NA,"","","",NA,"",NA,NA,NA,NA,NA,NA,NA,"",NA,"38"
"",NA,"",NA,"",NA,NA,NA,NA,NA,NA,"","",1,1,"2024-09-01_22h31.34.002","IAT(Formal)","2021.2.3","Win32",19.81218053,NA,"",NA,"",NA,NA,NA,NA,NA,NA,NA,"","","",NA,"i",1,0.6702,NA,NA,NA,NA,NA,"刻薄","i","",NA,0,8,8,33,1,"",NA,"",NA,NA,NA,NA,NA,NA,NA,"",NA,"",NA,NA,NA,NA,NA,NA,NA,"","","",NA,"",NA,NA,NA,NA,NA,NA,NA,"",NA,"38"
"",NA,"",NA,"",NA,NA,NA,NA,NA,NA,"","",1,1,"2024-09-01_22h31.34.002","IAT(Formal)","2021.2.3","Win32",19.81218053,NA,"",NA,"",NA,NA,NA,NA,NA,NA,NA,"","","",NA,"i",1,0.5722,NA,NA,NA,NA,NA,"悲观","i","",NA,0,9,9,34,1,"",NA,"",NA,NA,NA,NA,NA,NA,NA,"",NA,"",NA,NA,NA,NA,NA,NA,NA,"","","",NA,"",NA,NA,NA,NA,NA,NA,NA,"",NA,"38"
"",NA,"",NA,"",NA,NA,NA,NA,NA,NA,"","",1,1,"2024-09-01_22h31.34.002","IAT(Formal)","2021.2.3","Win32",19.81218053,NA,"",NA,"",NA,NA,NA,NA,NA,NA,NA,"","","",NA,"e",1,0.5761,NA,NA,NA,NA,NA,"我的","e","",NA,0,10,10,61,1,"",NA,"",NA,NA,NA,NA,NA,NA,NA,"",NA,"",NA,NA,NA,NA,NA,NA,NA,"","","",NA,"",NA,NA,NA,NA,NA,NA,NA,"",NA,"38"
"",NA,"",NA,"",NA,NA,NA,NA,NA,NA,"","",1,1,"2024-09-01_22h31.34.002","IAT(Formal)","2021.2.3","Win32",19.81218053,NA,"",NA,"",NA,NA,NA,NA,NA,NA,NA,"","","",NA,"i",1,0.7391,NA,NA,NA,NA,NA,"他人","i","",NA,0,11,11,78,1,"",NA,"",NA,NA,NA,NA,NA,NA,NA,"",NA,"",NA,NA,NA,NA,NA,NA,NA,"","","",NA,"",NA,NA,NA,NA,NA,NA,NA,"",NA,"38"
"",NA,"",NA,"",NA,NA,NA,NA,NA,NA,"","",1,1,"2024-09-01_22h31.34.002","IAT(Formal)","2021.2.3","Win32",19.81218053,NA,"",NA,"",NA,NA,NA,NA,NA,NA,NA,"","","",NA,"i",1,0.6006,NA,NA,NA,NA,NA,"固执","i","",NA,0,12,12,47,1,"",NA,"",NA,NA,NA,NA,NA,NA,NA,"",NA,"",NA,NA,NA,NA,NA,NA,NA,"","","",NA,"",NA,NA,NA,NA,NA,NA,NA,"",NA,"38"
"",NA,"",NA,"",NA,NA,NA,NA,NA,NA,"","",1,1,"2024-09-01_22h31.34.002","IAT(Formal)","2021.2.3","Win32",19.81218053,NA,"",NA,"",NA,NA,NA,NA,NA,NA,NA,"","","",NA,"e",1,0.5803,NA,NA,NA,NA,NA,"我们","e","",NA,0,13,13,2,1,"",NA,"",NA,NA,NA,NA,NA,NA,NA,"",NA,"",NA,NA,NA,NA,NA,NA,NA,"","","",NA,"",NA,NA,NA,NA,NA,NA,NA,"",NA,"38"
"",NA,"",NA,"",NA,NA,NA,NA,NA,NA,"","",1,1,"2024-09-01_22h31.34.002","IAT(Formal)","2021.2.3","Win32",19.81218053,NA,"",NA,"",NA,NA,NA,NA,NA,NA,NA,"","","",NA,"e",1,0.5504,NA,NA,NA,NA,NA,"聪明","e","",NA,0,14,14,12,1,"",NA,"",NA,NA,NA,NA,NA,NA,NA,"",NA,"",NA,NA,NA,NA,NA,NA,NA,"","","",NA,"",NA,NA,NA,NA,NA,NA,NA,"",NA,"38"
"",NA,"",NA,"",NA,NA,NA,NA,NA,NA,"","",1,1,"2024-09-01_22h31.34.002","IAT(Formal)","2021.2.3","Win32",19.81218053,NA,"",NA,"",NA,NA,NA,NA,NA,NA,NA,"","","",NA,"e",1,0.4769,NA,NA,NA,NA,NA,"我们","e","",NA,0,15,15,72,1,"",NA,"",NA,NA,NA,NA,NA,NA,NA,"",NA,"",NA,NA,NA,NA,NA,NA,NA,"","","",NA,"",NA,NA,NA,NA,NA,NA,NA,"",NA,"38"
"",NA,"",NA,"",NA,NA,NA,NA,NA,NA,"","",1,1,"2024-09-01_22h31.34.002","IAT(Formal)","2021.2.3","Win32",19.81218053,NA,"",NA,"",NA,NA,NA,NA,NA,NA,NA,"","","",NA,"i",1,0.5103,NA,NA,NA,NA,NA,"他们","i","",NA,0,16,16,6,1,"",NA,"",NA,NA,NA,NA,NA,NA,NA,"",NA,"",NA,NA,NA,NA,NA,NA,NA,"","","",NA,"",NA,NA,NA,NA,NA,NA,NA,"",NA,"38"
"",NA,"",NA,"",NA,NA,NA,NA,NA,NA,"","",1,1,"2024-09-01_22h31.34.002","IAT(Formal)","2021.2.3","Win32",19.81218053,NA,"",NA,"",NA,NA,NA,NA,NA,NA,NA,"","","",NA,"e",1,0.7754,NA,NA,NA,NA,NA,"乐观","e","",NA,0,17,17,14,1,"",NA,"",NA,NA,NA,NA,NA,NA,NA,"",NA,"",NA,NA,NA,NA,NA,NA,NA,"","","",NA,"",NA,NA,NA,NA,NA,NA,NA,"",NA,"38"
"",NA,"",NA,"",NA,NA,NA,NA,NA,NA,"","",1,1,"2024-09-01_22h31.34.002","IAT(Formal)","2021.2.3","Win32",19.81218053,NA,"",NA,"",NA,NA,NA,NA,NA,NA,NA,"","","",NA,"i",1,0.5627,NA,NA,NA,NA,NA,"其他","i","",NA,0,18,18,79,1,"",NA,"",NA,NA,NA,NA,NA,NA,NA,"",NA,"",NA,NA,NA,NA,NA,NA,NA,"","","",NA,"",NA,NA,NA,NA,NA,NA,NA,"",NA,"38"
"",NA,"",NA,"",NA,NA,NA,NA,NA,NA,"","",1,1,"2024-09-01_22h31.34.002","IAT(Formal)","2021.2.3","Win32",19.81218053,NA,"",NA,"",NA,NA,NA,NA,NA,NA,NA,"","","",NA,"i",1,0.5499,NA,NA,NA,NA,NA,"暴躁","i","",NA,0,19,19,44,1,"",NA,"",NA,NA,NA,NA,NA,NA,NA,"",NA,"",NA,NA,NA,NA,NA,NA,NA,"","","",NA,"",NA,NA,NA,NA,NA,NA,NA,"",NA,"38"
"",NA,"",NA,"",NA,NA,NA,NA,NA,NA,"","",1,1,"2024-09-01_22h31.34.002","IAT(Formal)","2021.2.3","Win32",19.81218053,NA,"",NA,"",NA,NA,NA,NA,NA,NA,NA,"","","",NA,"e",1,0.5134,NA,NA,NA,NA,NA,"自己","e","",NA,0,20,20,73,1,"",NA,"",NA,NA,NA,NA,NA,NA,NA,"",NA,"",NA,NA,NA,NA,NA,NA,NA,"","","",NA,"",NA,NA,NA,NA,NA,NA,NA,"",NA,"38"
"",NA,"",NA,"",NA,NA,NA,NA,NA,NA,"","",1,1,"2024-09-01_22h31.34.002","IAT(Formal)","2021.2.3","Win32",19.81218053,NA,"",NA,"",NA,NA,NA,NA,NA,NA,NA,"","","",NA,"i",1,0.6326,NA,NA,NA,NA,NA,"自卑","i","",NA,0,21,21,36,1,"",NA,"",NA,NA,NA,NA,NA,NA,NA,"",NA,"",NA,NA,NA,NA,NA,NA,NA,"","","",NA,"",NA,NA,NA,NA,NA,NA,NA,"",NA,"38"
"",NA,"",NA,"",NA,NA,NA,NA,NA,NA,"","",1,1,"2024-09-01_22h31.34.002","IAT(Formal)","2021.2.3","Win32",19.81218053,NA,"",NA,"",NA,NA,NA,NA,NA,NA,NA,"","","",NA,"e",1,0.5195,NA,NA,NA,NA,NA,"我们","e","",NA,0,22,22,62,1,"",NA,"",NA,NA,NA,NA,NA,NA,NA,"",NA,"",NA,NA,NA,NA,NA,NA,NA,"","","",NA,"",NA,NA,NA,NA,NA,NA,NA,"",NA,"38"
"",NA,"",NA,"",NA,NA,NA,NA,NA,NA,"","",1,1,"2024-09-01_22h31.34.002","IAT(Formal)","2021.2.3","Win32",19.81218053,NA,"",NA,"",NA,NA,NA,NA,NA,NA,NA,"","","",NA,"e",1,0.6583,NA,NA,NA,NA,NA,"稳重","e","",NA,0,23,23,21,1,"",NA,"",NA,NA,NA,NA,NA,NA,NA,"",NA,"",NA,NA,NA,NA,NA,NA,NA,"","","",NA,"",NA,NA,NA,NA,NA,NA,NA,"",NA,"38"
"",NA,"",NA,"",NA,NA,NA,NA,NA,NA,"","",1,1,"2024-09-01_22h31.34.002","IAT(Formal)","2021.2.3","Win32",19.81218053,NA,"",NA,"",NA,NA,NA,NA,NA,NA,NA,"","","",NA,"i",1,0.7882,NA,NA,NA,NA,NA,"他","i","",NA,0,24,24,65,1,"",NA,"",NA,NA,NA,NA,NA,NA,NA,"",NA,"",NA,NA,NA,NA,NA,NA,NA,"","","",NA,"",NA,NA,NA,NA,NA,NA,NA,"",NA,"38"
"",NA,"",NA,"",NA,NA,NA,NA,NA,NA,"","",1,1,"2024-09-01_22h31.34.002","IAT(Formal)","2021.2.3","Win32",19.81218053,NA,"",NA,"",NA,NA,NA,NA,NA,NA,NA,"","","",NA,"i",1,0.5971,NA,NA,NA,NA,NA,"他们","i","",NA,0,25,25,56,1,"",NA,"",NA,NA,NA,NA,NA,NA,NA,"",NA,"",NA,NA,NA,NA,NA,NA,NA,"","","",NA,"",NA,NA,NA,NA,NA,NA,NA,"",NA,"38"
"",NA,"",NA,"",NA,NA,NA,NA,NA,NA,"","",1,1,"2024-09-01_22h31.34.002","IAT(Formal)","2021.2.3","Win32",19.81218053,NA,"",NA,"",NA,NA,NA,NA,NA,NA,NA,"","","",NA,"e",1,0.5008,NA,NA,NA,NA,NA,"我","e","",NA,0,26,26,0,1,"",NA,"",NA,NA,NA,NA,NA,NA,NA,"",NA,"",NA,NA,NA,NA,NA,NA,NA,"","","",NA,"",NA,NA,NA,NA,NA,NA,NA,"",NA,"38"
"",NA,"",NA,"",NA,NA,NA,NA,NA,NA,"","",1,1,"2024-09-01_22h31.34.002","IAT(Formal)","2021.2.3","Win32",19.81218053,NA,"",NA,"",NA,NA,NA,NA,NA,NA,NA,"","","",NA,"i",1,0.6536,NA,NA,NA,NA,NA,"其他","i","",NA,0,27,27,69,1,"",NA,"",NA,NA,NA,NA,NA,NA,NA,"",NA,"",NA,NA,NA,NA,NA,NA,NA,"","","",NA,"",NA,NA,NA,NA,NA,NA,NA,"",NA,"38"
"",NA,"",NA,"",NA,NA,NA,NA,NA,NA,"","",1,1,"2024-09-01_22h31.34.002","IAT(Formal)","2021.2.3","Win32",19.81218053,NA,"",NA,"",NA,NA,NA,NA,NA,NA,NA,"","","",NA,"i",1,0.648,NA,NA,NA,NA,NA,"他","i","",NA,0,28,28,5,1,"",NA,"",NA,NA,NA,NA,NA,NA,NA,"",NA,"",NA,NA,NA,NA,NA,NA,NA,"","","",NA,"",NA,NA,NA,NA,NA,NA,NA,"",NA,"38"
"",NA,"",NA,"",NA,NA,NA,NA,NA,NA,"","",1,1,"2024-09-01_22h31.34.002","IAT(Formal)","2021.2.3","Win32",19.81218053,NA,"",NA,"",NA,NA,NA,NA,NA,NA,NA,"","","",NA,"i",1,0.5632,NA,NA,NA,NA,NA,"他人","i","",NA,0,29,29,58,1,"",NA,"",NA,NA,NA,NA,NA,NA,NA,"",NA,"",NA,NA,NA,NA,NA,NA,NA,"","","",NA,"",NA,NA,NA,NA,NA,NA,NA,"",NA,"38"
"",NA,"",NA,"",NA,NA,NA,NA,NA,NA,"","",1,1,"2024-09-01_22h31.34.002","IAT(Formal)","2021.2.3","Win32",19.81218053,NA,"",NA,"",NA,NA,NA,NA,NA,NA,NA,"","","",NA,"i",1,0.5895,NA,NA,NA,NA,NA,"他的","i","",NA,0,30,30,77,1,"",NA,"",NA,NA,NA,NA,NA,NA,NA,"",NA,"",NA,NA,NA,NA,NA,NA,NA,"","","",NA,"",NA,NA,NA,NA,NA,NA,NA,"",NA,"38"
"",NA,"",NA,"",NA,NA,NA,NA,NA,NA,"","",1,1,"2024-09-01_22h31.34.002","IAT(Formal)","2021.2.3","Win32",19.81218053,NA,"",NA,"",NA,NA,NA,NA,NA,NA,NA,"","","",NA,"e",1,0.6486,NA,NA,NA,NA,NA,"勇敢","e","",NA,0,31,31,17,1,"",NA,"",NA,NA,NA,NA,NA,NA,NA,"",NA,"",NA,NA,NA,NA,NA,NA,NA,"","","",NA,"",NA,NA,NA,NA,NA,NA,NA,"",NA,"38"
"",NA,"",NA,"",NA,NA,NA,NA,NA,NA,"","",1,1,"2024-09-01_22h31.34.002","IAT(Formal)","2021.2.3","Win32",19.81218053,NA,"",NA,"",NA,NA,NA,NA,NA,NA,NA,"","","",NA,"e",1,0.5413,NA,NA,NA,NA,NA,"我的","e","",NA,0,32,32,71,1,"",NA,"",NA,NA,NA,NA,NA,NA,NA,"",NA,"",NA,NA,NA,NA,NA,NA,NA,"","","",NA,"",NA,NA,NA,NA,NA,NA,NA,"",NA,"38"
"",NA,"",NA,"",NA,NA,NA,NA,NA,NA,"","",1,1,"2024-09-01_22h31.34.002","IAT(Formal)","2021.2.3","Win32",19.81218053,NA,"",NA,"",NA,NA,NA,NA,NA,NA,NA,"","","",NA,"i",1,0.5723,NA,NA,NA,NA,NA,"野蛮","i","",NA,0,33,33,46,1,"",NA,"",NA,NA,NA,NA,NA,NA,NA,"",NA,"",NA,NA,NA,NA,NA,NA,NA,"","","",NA,"",NA,NA,NA,NA,NA,NA,NA,"",NA,"38"
"",NA,"",NA,"",NA,NA,NA,NA,NA,NA,"","",1,1,"2024-09-01_22h31.34.002","IAT(Formal)","2021.2.3","Win32",19.81218053,NA,"",NA,"",NA,NA,NA,NA,NA,NA,NA,"","","",NA,"e",1,0.7058,NA,NA,NA,NA,NA,"朴实","e","",NA,0,34,34,24,1,"",NA,"",NA,NA,NA,NA,NA,NA,NA,"",NA,"",NA,NA,NA,NA,NA,NA,NA,"","","",NA,"",NA,NA,NA,NA,NA,NA,NA,"",NA,"38"
"",NA,"",NA,"",NA,NA,NA,NA,NA,NA,"","",1,1,"2024-09-01_22h31.34.002","IAT(Formal)","2021.2.3","Win32",19.81218053,NA,"",NA,"",NA,NA,NA,NA,NA,NA,NA,"","","",NA,"i",1,0.7086,NA,NA,NA,NA,NA,"鲁莽","i","",NA,0,35,35,38,1,"",NA,"",NA,NA,NA,NA,NA,NA,NA,"",NA,"",NA,NA,NA,NA,NA,NA,NA,"","","",NA,"",NA,NA,NA,NA,NA,NA,NA,"",NA,"38"
"",NA,"",NA,"",NA,NA,NA,NA,NA,NA,"","",1,1,"2024-09-01_22h31.34.002","IAT(Formal)","2021.2.3","Win32",19.81218053,NA,"",NA,"",NA,NA,NA,NA,NA,NA,NA,"","","",NA,"e",1,0.5241,NA,NA,NA,NA,NA,"我","e","",NA,0,36,36,70,1,"",NA,"",NA,NA,NA,NA,NA,NA,NA,"",NA,"",NA,NA,NA,NA,NA,NA,NA,"","","",NA,"",NA,NA,NA,NA,NA,NA,NA,"",NA,"38"
"",NA,"",NA,"",NA,NA,NA,NA,NA,NA,"","",1,1,"2024-09-01_22h31.34.002","IAT(Formal)","2021.2.3","Win32",19.81218053,NA,"",NA,"",NA,NA,NA,NA,NA,NA,NA,"","","",NA,"i",1,0.6111,NA,NA,NA,NA,NA,"他的","i","",NA,0,37,37,57,1,"",NA,"",NA,NA,NA,NA,NA,NA,NA,"",NA,"",NA,NA,NA,NA,NA,NA,NA,"","","",NA,"",NA,NA,NA,NA,NA,NA,NA,"",NA,"38"
"",NA,"",NA,"",NA,NA,NA,NA,NA,NA,"","",1,1,"2024-09-01_22h31.34.002","IAT(Formal)","2021.2.3","Win32",19.81218053,NA,"",NA,"",NA,NA,NA,NA,NA,NA,NA,"","","",NA,"i",1,0.5817,NA,NA,NA,NA,NA,"自私","i","",NA,0,38,38,43,1,"",NA,"",NA,NA,NA,NA,NA,NA,NA,"",NA,"",NA,NA,NA,NA,NA,NA,NA,"","","",NA,"",NA,NA,NA,NA,NA,NA,NA,"",NA,"38"
"",NA,"",NA,"",NA,NA,NA,NA,NA,NA,"","",1,1,"2024-09-01_22h31.34.002","IAT(Formal)","2021.2.3","Win32",19.81218053,NA,"",NA,"",NA,NA,NA,NA,NA,NA,NA,"","","",NA,"i",1,0.6994,NA,NA,NA,NA,NA,"他","i","",NA,0,39,39,55,1,"",NA,"",NA,NA,NA,NA,NA,NA,NA,"",NA,"",NA,NA,NA,NA,NA,NA,NA,"","","",NA,"",NA,NA,NA,NA,NA,NA,NA,"",NA,"38"
"",NA,"",NA,"",NA,NA,NA,NA,NA,NA,"","",1,1,"2024-09-01_22h31.34.002","IAT(Formal)","2021.2.3","Win32",19.81218053,NA,"",NA,"",NA,NA,NA,NA,NA,NA,NA,"","","",NA,"i",1,0.5756,NA,NA,NA,NA,NA,"愚蠢","i","",NA,0,40,40,32,1,"",NA,"",NA,NA,NA,NA,NA,NA,NA,"",NA,"",NA,NA,NA,NA,NA,NA,NA,"","","",NA,"",NA,NA,NA,NA,NA,NA,NA,"",NA,"38"
"",NA,"",NA,"",NA,NA,NA,NA,NA,NA,"","",1,1,"2024-09-01_22h31.34.002","IAT(Formal)","2021.2.3","Win32",19.81218053,NA,"",NA,"",NA,NA,NA,NA,NA,NA,NA,"","","",NA,"e",1,0.5927,NA,NA,NA,NA,NA,"俺","e","",NA,0,41,41,64,1,"",NA,"",NA,NA,NA,NA,NA,NA,NA,"",NA,"",NA,NA,NA,NA,NA,NA,NA,"","","",NA,"",NA,NA,NA,NA,NA,NA,NA,"",NA,"38"
"",NA,"",NA,"",NA,NA,NA,NA,NA,NA,"","",1,1,"2024-09-01_22h31.34.002","IAT(Formal)","2021.2.3","Win32",19.81218053,NA,"",NA,"",NA,NA,NA,NA,NA,NA,NA,"","","",NA,"e",1,0.5058,NA,NA,NA,NA,NA,"优秀","e","",NA,0,42,42,10,1,"",NA,"",NA,NA,NA,NA,NA,NA,NA,"",NA,"",NA,NA,NA,NA,NA,NA,NA,"","","",NA,"",NA,NA,NA,NA,NA,NA,NA,"",NA,"38"
"",NA,"",NA,"",NA,NA,NA,NA,NA,NA,"","",1,1,"2024-09-01_22h31.34.002","IAT(Formal)","2021.2.3","Win32",19.81218053,NA,"",NA,"",NA,NA,NA,NA,NA,NA,NA,"","","",NA,"i",1,0.5206,NA,NA,NA,NA,NA,"凶狠","i","",NA,0,43,43,42,1,"",NA,"",NA,NA,NA,NA,NA,NA,NA,"",NA,"",NA,NA,NA,NA,NA,NA,NA,"","","",NA,"",NA,NA,NA,NA,NA,NA,NA,"",NA,"38"
"",NA,"",NA,"",NA,NA,NA,NA,NA,NA,"","",1,1,"2024-09-01_22h31.34.002","IAT(Formal)","2021.2.3","Win32",19.81218053,NA,"",NA,"",NA,NA,NA,NA,NA,NA,NA,"","","",NA,"e",1,0.5957,NA,NA,NA,NA,NA,"我的","e","",NA,0,44,44,51,1,"",NA,"",NA,NA,NA,NA,NA,NA,NA,"",NA,"",NA,NA,NA,NA,NA,NA,NA,"","","",NA,"",NA,NA,NA,NA,NA,NA,NA,"",NA,"38"
"",NA,"",NA,"",NA,NA,NA,NA,NA,NA,"","",1,1,"2024-09-01_22h31.34.002","IAT(Formal)","2021.2.3","Win32",19.81218053,NA,"",NA,"",NA,NA,NA,NA,NA,NA,NA,"","","",NA,"i",1,0.9352,NA,NA,NA,NA,NA,"其他","i","",NA,0,45,45,9,1,"",NA,"",NA,NA,NA,NA,NA,NA,NA,"",NA,"",NA,NA,NA,NA,NA,NA,NA,"","","",NA,"",NA,NA,NA,NA,NA,NA,NA,"",NA,"38"
"",NA,"",NA,"",NA,NA,NA,NA,NA,NA,"","",1,1,"2024-09-01_22h31.34.002","IAT(Formal)","2021.2.3","Win32",19.81218053,NA,"",NA,"",NA,NA,NA,NA,NA,NA,NA,"","","",NA,"e",1,0.8917,NA,NA,NA,NA,NA,"无私","e","",NA,0,46,46,22,1,"",NA,"",NA,NA,NA,NA,NA,NA,NA,"",NA,"",NA,NA,NA,NA,NA,NA,NA,"","","",NA,"",NA,NA,NA,NA,NA,NA,NA,"",NA,"38"
"",NA,"",NA,"",NA,NA,NA,NA,NA,NA,"","",1,1,"2024-09-01_22h31.34.002","IAT(Formal)","2021.2.3","Win32",19.81218053,NA,"",NA,"",NA,NA,NA,NA,NA,NA,NA,"","","",NA,"e",1,0.5366,NA,NA,NA,NA,NA,"公正","e","",NA,0,47,47,23,1,"",NA,"",NA,NA,NA,NA,NA,NA,NA,"",NA,"",NA,NA,NA,NA,NA,NA,NA,"","","",NA,"",NA,NA,NA,NA,NA,NA,NA,"",NA,"38"
"",NA,"",NA,"",NA,NA,NA,NA,NA,NA,"","",1,1,"2024-09-01_22h31.34.002","IAT(Formal)","2021.2.3","Win32",19.81218053,NA,"",NA,"",NA,NA,NA,NA,NA,NA,NA,"","","",NA,"e",1,0.6896,NA,NA,NA,NA,NA,"崇高","e","",NA,0,48,48,11,1,"",NA,"",NA,NA,NA,NA,NA,NA,NA,"",NA,"",NA,NA,NA,NA,NA,NA,NA,"","","",NA,"",NA,NA,NA,NA,NA,NA,NA,"",NA,"38"
"",NA,"",NA,"",NA,NA,NA,NA,NA,NA,"","",1,1,"2024-09-01_22h31.34.002","IAT(Formal)","2021.2.3","Win32",19.81218053,NA,"",NA,"",NA,NA,NA,NA,NA,NA,NA,"","","",NA,"i",1,0.4892,NA,NA,NA,NA,NA,"他的","i","",NA,0,49,49,7,1,"",NA,"",NA,NA,NA,NA,NA,NA,NA,"",NA,"",NA,NA,NA,NA,NA,NA,NA,"","","",NA,"",NA,NA,NA,NA,NA,NA,NA,"",NA,"38"
"",NA,"",NA,"",NA,NA,NA,NA,NA,NA,"","",1,1,"2024-09-01_22h31.34.002","IAT(Formal)","2021.2.3","Win32",19.81218053,NA,"",NA,"",NA,NA,NA,NA,NA,NA,NA,"","","",NA,"e",1,0.5908,NA,NA,NA,NA,NA,"俺","e","",NA,0,50,50,4,1,"",NA,"",NA,NA,NA,NA,NA,NA,NA,"",NA,"",NA,NA,NA,NA,NA,NA,NA,"","","",NA,"",NA,NA,NA,NA,NA,NA,NA,"",NA,"38"
"",NA,"",NA,"",NA,NA,NA,NA,NA,NA,"","",1,1,"2024-09-01_22h31.34.002","IAT(Formal)","2021.2.3","Win32",19.81218053,NA,"",NA,"",NA,NA,NA,NA,NA,NA,NA,"","","",NA,"i",1,0.4331,NA,NA,NA,NA,NA,"其他","i","",NA,0,51,51,59,1,"",NA,"",NA,NA,NA,NA,NA,NA,NA,"",NA,"",NA,NA,NA,NA,NA,NA,NA,"","","",NA,"",NA,NA,NA,NA,NA,NA,NA,"",NA,"38"
"",NA,"",NA,"",NA,NA,NA,NA,NA,NA,"","",1,1,"2024-09-01_22h31.34.002","IAT(Formal)","2021.2.3","Win32",19.81218053,NA,"",NA,"",NA,NA,NA,NA,NA,NA,NA,"","","",NA,"i",1,0.6944,NA,NA,NA,NA,NA,"他人","i","",NA,0,52,52,8,1,"",NA,"",NA,NA,NA,NA,NA,NA,NA,"",NA,"",NA,NA,NA,NA,NA,NA,NA,"","","",NA,"",NA,NA,NA,NA,NA,NA,NA,"",NA,"38"
"",NA,"",NA,"",NA,NA,NA,NA,NA,NA,"","",1,1,"2024-09-01_22h31.34.002","IAT(Formal)","2021.2.3","Win32",19.81218053,NA,"",NA,"",NA,NA,NA,NA,NA,NA,NA,"","","",NA,"e",1,0.5863,NA,NA,NA,NA,NA,"认真","e","",NA,0,53,53,20,1,"",NA,"",NA,NA,NA,NA,NA,NA,NA,"",NA,"",NA,NA,NA,NA,NA,NA,NA,"","","",NA,"",NA,NA,NA,NA,NA,NA,NA,"",NA,"38"
"",NA,"",NA,"",NA,NA,NA,NA,NA,NA,"","",1,1,"2024-09-01_22h31.34.002","IAT(Formal)","2021.2.3","Win32",19.81218053,NA,"",NA,"",NA,NA,NA,NA,NA,NA,NA,"","","",NA,"e",1,0.656,NA,NA,NA,NA,NA,"冷静","e","",NA,0,54,54,26,1,"",NA,"",NA,NA,NA,NA,NA,NA,NA,"",NA,"",NA,NA,NA,NA,NA,NA,NA,"","","",NA,"",NA,NA,NA,NA,NA,NA,NA,"",NA,"38"
"",NA,"",NA,"",NA,NA,NA,NA,NA,NA,"","",1,1,"2024-09-01_22h31.34.002","IAT(Formal)","2021.2.3","Win32",19.81218053,NA,"",NA,"",NA,NA,NA,NA,NA,NA,NA,"","","",NA,"i",1,0.6628,NA,NA,NA,NA,NA,"他","i","",NA,0,55,55,75,1,"",NA,"",NA,NA,NA,NA,NA,NA,NA,"",NA,"",NA,NA,NA,NA,NA,NA,NA,"","","",NA,"",NA,NA,NA,NA,NA,NA,NA,"",NA,"38"
"",NA,"",NA,"",NA,NA,NA,NA,NA,NA,"","",1,1,"2024-09-01_22h31.34.002","IAT(Formal)","2021.2.3","Win32",19.81218053,NA,"",NA,"",NA,NA,NA,NA,NA,NA,NA,"","","",NA,"e",1,0.661,NA,NA,NA,NA,NA,"细腻","e","",NA,0,56,56,25,1,"",NA,"",NA,NA,NA,NA,NA,NA,NA,"",NA,"",NA,NA,NA,NA,NA,NA,NA,"","","",NA,"",NA,NA,NA,NA,NA,NA,NA,"",NA,"38"
"",NA,"",NA,"",NA,NA,NA,NA,NA,NA,"","",1,1,"2024-09-01_22h31.34.002","IAT(Formal)","2021.2.3","Win32",19.81218053,NA,"",NA,"",NA,NA,NA,NA,NA,NA,NA,"","","",NA,"e",1,0.4774,NA,NA,NA,NA,NA,"诚实","e","",NA,0,57,57,15,1,"",NA,"",NA,NA,NA,NA,NA,NA,NA,"",NA,"",NA,NA,NA,NA,NA,NA,NA,"","","",NA,"",NA,NA,NA,NA,NA,NA,NA,"",NA,"38"
"",NA,"",NA,"",NA,NA,NA,NA,NA,NA,"","",1,1,"2024-09-01_22h31.34.002","IAT(Formal)","2021.2.3","Win32",19.81218053,NA,"",NA,"",NA,NA,NA,NA,NA,NA,NA,"","","",NA,"e",1,0.659,NA,NA,NA,NA,NA,"热情","e","",NA,0,58,58,27,1,"",NA,"",NA,NA,NA,NA,NA,NA,NA,"",NA,"",NA,NA,NA,NA,NA,NA,NA,"","","",NA,"",NA,NA,NA,NA,NA,NA,NA,"",NA,"38"
"",NA,"",NA,"",NA,NA,NA,NA,NA,NA,"","",1,1,"2024-09-01_22h31.34.002","IAT(Formal)","2021.2.3","Win32",19.81218053,NA,"",NA,"",NA,NA,NA,NA,NA,NA,NA,"","","",NA,"e",1,0.4984,NA,NA,NA,NA,NA,"我","e","",NA,0,59,59,50,1,"",NA,"",NA,NA,NA,NA,NA,NA,NA,"",NA,"",NA,NA,NA,NA,NA,NA,NA,"","","",NA,"",NA,NA,NA,NA,NA,NA,NA,"",NA,"38"
"",NA,"",NA,"",NA,NA,NA,NA,NA,NA,"","",1,1,"2024-09-01_22h31.34.002","IAT(Formal)","2021.2.3","Win32",19.81218053,NA,"",NA,"",NA,NA,NA,NA,NA,NA,NA,"","","",NA,"i",1,0.4708,NA,NA,NA,NA,NA,"他们","i","",NA,0,60,60,76,1,"",NA,"",NA,NA,NA,NA,NA,NA,NA,"",NA,"",NA,NA,NA,NA,NA,NA,NA,"","","",NA,"",NA,NA,NA,NA,NA,NA,NA,"",NA,"38"
"",NA,"",NA,"",NA,NA,NA,NA,NA,NA,"","",1,1,"2024-09-01_22h31.34.002","IAT(Formal)","2021.2.3","Win32",19.81218053,NA,"",NA,"",NA,NA,NA,NA,NA,NA,NA,"","","",NA,"e",1,0.5761,NA,NA,NA,NA,NA,"活泼","e","",NA,0,61,61,28,1,"",NA,"",NA,NA,NA,NA,NA,NA,NA,"",NA,"",NA,NA,NA,NA,NA,NA,NA,"","","",NA,"",NA,NA,NA,NA,NA,NA,NA,"",NA,"38"
"",NA,"",NA,"",NA,NA,NA,NA,NA,NA,"","",1,1,"2024-09-01_22h31.34.002","IAT(Formal)","2021.2.3","Win32",19.81218053,NA,"",NA,"",NA,NA,NA,NA,NA,NA,NA,"","","",NA,"e",1,0.6057,NA,NA,NA,NA,NA,"我","e","",NA,0,62,62,60,1,"",NA,"",NA,NA,NA,NA,NA,NA,NA,"",NA,"",NA,NA,NA,NA,NA,NA,NA,"","","",NA,"",NA,NA,NA,NA,NA,NA,NA,"",NA,"38"
"",NA,"",NA,"",NA,NA,NA,NA,NA,NA,"","",1,1,"2024-09-01_22h31.34.002","IAT(Formal)","2021.2.3","Win32",19.81218053,NA,"",NA,"",NA,NA,NA,NA,NA,NA,NA,"","","",NA,"e",1,0.548,NA,NA,NA,NA,NA,"自己","e","",NA,0,63,63,53,1,"",NA,"",NA,NA,NA,NA,NA,NA,NA,"",NA,"",NA,NA,NA,NA,NA,NA,NA,"","","",NA,"",NA,NA,NA,NA,NA,NA,NA,"",NA,"38"
"",NA,"",NA,"",NA,NA,NA,NA,NA,NA,"","",1,1,"2024-09-01_22h31.34.002","IAT(Formal)","2021.2.3","Win32",19.81218053,NA,"",NA,"",NA,NA,NA,NA,NA,NA,NA,"","","",NA,"e",1,0.5857,NA,NA,NA,NA,NA,"自己","e","",NA,0,64,64,3,1,"",NA,"",NA,NA,NA,NA,NA,NA,NA,"",NA,"",NA,NA,NA,NA,NA,NA,NA,"","","",NA,"",NA,NA,NA,NA,NA,NA,NA,"",NA,"38"
"",NA,"",NA,"",NA,NA,NA,NA,NA,NA,"","",1,1,"2024-09-01_22h31.34.002","IAT(Formal)","2021.2.3","Win32",19.81218053,NA,"",NA,"",NA,NA,NA,NA,NA,NA,NA,"","","",NA,"i",1,0.574,NA,NA,NA,NA,NA,"散漫","i","",NA,0,65,65,41,1,"",NA,"",NA,NA,NA,NA,NA,NA,NA,"",NA,"",NA,NA,NA,NA,NA,NA,NA,"","","",NA,"",NA,NA,NA,NA,NA,NA,NA,"",NA,"38"
"",NA,"",NA,"",NA,NA,NA,NA,NA,NA,"","",1,1,"2024-09-01_22h31.34.002","IAT(Formal)","2021.2.3","Win32",19.81218053,NA,"",NA,"",NA,NA,NA,NA,NA,NA,NA,"","","",NA,"e",1,1.0963,NA,NA,NA,NA,NA,"我的","e","",NA,0,66,66,1,1,"",NA,"",NA,NA,NA,NA,NA,NA,NA,"",NA,"",NA,NA,NA,NA,NA,NA,NA,"","","",NA,"",NA,NA,NA,NA,NA,NA,NA,"",NA,"38"
"",NA,"",NA,"",NA,NA,NA,NA,NA,NA,"","",1,1,"2024-09-01_22h31.34.002","IAT(Formal)","2021.2.3","Win32",19.81218053,NA,"",NA,"",NA,NA,NA,NA,NA,NA,NA,"","","",NA,"e",1,0.5366,NA,NA,NA,NA,NA,"我们","e","",NA,0,67,67,52,1,"",NA,"",NA,NA,NA,NA,NA,NA,NA,"",NA,"",NA,NA,NA,NA,NA,NA,NA,"","","",NA,"",NA,NA,NA,NA,NA,NA,NA,"",NA,"38"
"",NA,"",NA,"",NA,NA,NA,NA,NA,NA,"","",1,1,"2024-09-01_22h31.34.002","IAT(Formal)","2021.2.3","Win32",19.81218053,NA,"",NA,"",NA,NA,NA,NA,NA,NA,NA,"","","",NA,"e",1,0.5748,NA,NA,NA,NA,NA,"诚恳","e","",NA,0,68,68,29,1,"",NA,"",NA,NA,NA,NA,NA,NA,NA,"",NA,"",NA,NA,NA,NA,NA,NA,NA,"","","",NA,"",NA,NA,NA,NA,NA,NA,NA,"",NA,"38"
"",NA,"",NA,"",NA,NA,NA,NA,NA,NA,"","",1,1,"2024-09-01_22h31.34.002","IAT(Formal)","2021.2.3","Win32",19.81218053,NA,"",NA,"",NA,NA,NA,NA,NA,NA,NA,"","","",NA,"e",1,0.5098,NA,NA,NA,NA,NA,"俺","e","",NA,0,69,69,54,1,"",NA,"",NA,NA,NA,NA,NA,NA,NA,"",NA,"",NA,NA,NA,NA,NA,NA,NA,"","","",NA,"",NA,NA,NA,NA,NA,NA,NA,"",NA,"38"
"",NA,"",NA,"",NA,NA,NA,NA,NA,NA,"","",1,1,"2024-09-01_22h31.34.002","IAT(Formal)","2021.2.3","Win32",19.81218053,NA,"",NA,"",NA,NA,NA,NA,NA,NA,NA,"","","",NA,"i",1,0.5387,NA,NA,NA,NA,NA,"虚伪","i","",NA,0,70,70,31,1,"",NA,"",NA,NA,NA,NA,NA,NA,NA,"",NA,"",NA,NA,NA,NA,NA,NA,NA,"","","",NA,"",NA,NA,NA,NA,NA,NA,NA,"",NA,"38"
"",NA,"",NA,"",NA,NA,NA,NA,NA,NA,"","",1,1,"2024-09-01_22h31.34.002","IAT(Formal)","2021.2.3","Win32",19.81218053,NA,"",NA,"",NA,NA,NA,NA,NA,NA,NA,"","","",NA,"i",1,0.5368,NA,NA,NA,NA,NA,"下贱","i","",NA,0,71,71,49,1,"",NA,"",NA,NA,NA,NA,NA,NA,NA,"",NA,"",NA,NA,NA,NA,NA,NA,NA,"","","",NA,"",NA,NA,NA,NA,NA,NA,NA,"",NA,"38"
"",NA,"",NA,"",NA,NA,NA,NA,NA,NA,"","",1,1,"2024-09-01_22h31.34.002","IAT(Formal)","2021.2.3","Win32",19.81218053,NA,"",NA,"",NA,NA,NA,NA,NA,NA,NA,"","","",NA,"e",1,0.7337,NA,NA,NA,NA,NA,"机智","e","",NA,0,72,72,19,1,"",NA,"",NA,NA,NA,NA,NA,NA,NA,"",NA,"",NA,NA,NA,NA,NA,NA,NA,"","","",NA,"",NA,NA,NA,NA,NA,NA,NA,"",NA,"38"
"",NA,"",NA,"",NA,NA,NA,NA,NA,NA,"","",1,1,"2024-09-01_22h31.34.002","IAT(Formal)","2021.2.3","Win32",19.81218053,NA,"",NA,"",NA,NA,NA,NA,NA,NA,NA,"","","",NA,"e",1,0.6103,NA,NA,NA,NA,NA,"正直","e","",NA,0,73,73,16,1,"",NA,"",NA,NA,NA,NA,NA,NA,NA,"",NA,"",NA,NA,NA,NA,NA,NA,NA,"","","",NA,"",NA,NA,NA,NA,NA,NA,NA,"",NA,"38"
"",NA,"",NA,"",NA,NA,NA,NA,NA,NA,"","",1,1,"2024-09-01_22h31.34.002","IAT(Formal)","2021.2.3","Win32",19.81218053,NA,"",NA,"",NA,NA,NA,NA,NA,NA,NA,"","","",NA,"i",1,0.7034,NA,NA,NA,NA,NA,"执拗","i","",NA,0,74,74,40,1,"",NA,"",NA,NA,NA,NA,NA,NA,NA,"",NA,"",NA,NA,NA,NA,NA,NA,NA,"","","",NA,"",NA,NA,NA,NA,NA,NA,NA,"",NA,"38"
"",NA,"",NA,"",NA,NA,NA,NA,NA,NA,"","",1,1,"2024-09-01_22h31.34.002","IAT(Formal)","2021.2.3","Win32",19.81218053,NA,"",NA,"",NA,NA,NA,NA,NA,NA,NA,"","","",NA,"i",1,0.6867,NA,NA,NA,NA,NA,"消极","i","",NA,0,75,75,35,1,"",NA,"",NA,NA,NA,NA,NA,NA,NA,"",NA,"",NA,NA,NA,NA,NA,NA,NA,"","","",NA,"",NA,NA,NA,NA,NA,NA,NA,"",NA,"38"
"",NA,"",NA,"",NA,NA,NA,NA,NA,NA,"","",1,1,"2024-09-01_22h31.34.002","IAT(Formal)","2021.2.3","Win32",19.81218053,NA,"",NA,"",NA,NA,NA,NA,NA,NA,NA,"","","",NA,"e",1,0.6908,NA,NA,NA,NA,NA,"勤奋","e","",NA,0,76,76,18,1,"",NA,"",NA,NA,NA,NA,NA,NA,NA,"",NA,"",NA,NA,NA,NA,NA,NA,NA,"","","",NA,"",NA,NA,NA,NA,NA,NA,NA,"",NA,"38"
"",NA,"",NA,"",NA,NA,NA,NA,NA,NA,"","",1,1,"2024-09-01_22h31.34.002","IAT(Formal)","2021.2.3","Win32",19.81218053,NA,"",NA,"",NA,NA,NA,NA,NA,NA,NA,"","","",NA,"i",1,0.5725,NA,NA,NA,NA,NA,"轻率","i","",NA,0,77,77,48,1,"",NA,"",NA,NA,NA,NA,NA,NA,NA,"",NA,"",NA,NA,NA,NA,NA,NA,NA,"","","",NA,"",NA,NA,NA,NA,NA,NA,NA,"",NA,"38"
"",NA,"",NA,"",NA,NA,NA,NA,NA,NA,"","",1,1,"2024-09-01_22h31.34.002","IAT(Formal)","2021.2.3","Win32",19.81218053,NA,"",NA,"",NA,NA,NA,NA,NA,NA,NA,"","","",NA,"e",1,0.5517,NA,NA,NA,NA,NA,"自己","e","",NA,0,78,78,63,1,"",NA,"",NA,NA,NA,NA,NA,NA,NA,"",NA,"",NA,NA,NA,NA,NA,NA,NA,"","","",NA,"",NA,NA,NA,NA,NA,NA,NA,"",NA,"38"
"",NA,"",NA,"",NA,NA,NA,NA,NA,NA,"","",1,1,"2024-09-01_22h31.34.002","IAT(Formal)","2021.2.3","Win32",19.81218053,NA,"",NA,"",NA,NA,NA,NA,NA,NA,NA,"","","",NA,"i",1,0.6331,NA,NA,NA,NA,NA,"他人","i","",NA,0,79,79,68,1,"",NA,"",NA,NA,NA,NA,NA,NA,NA,"",NA,"",NA,NA,NA,NA,NA,NA,NA,"","","",NA,"",NA,NA,NA,NA,NA,NA,NA,"",NA,"38"
"",NA,"",NA,"",NA,NA,NA,NA,NA,NA,"","",1,1,"2024-09-01_22h31.34.002","IAT(Formal)","2021.2.3","Win32",19.81218053,NA,"",NA,"",NA,NA,NA,NA,NA,NA,NA,"","","",NA,"i",1,0.578,NA,NA,NA,NA,NA,"他们","i","",NA,1,0,80,66,1,"",NA,"",NA,NA,NA,NA,NA,NA,NA,"",NA,"",NA,NA,NA,NA,NA,NA,NA,"","","",NA,"",NA,NA,NA,NA,NA,NA,NA,"",NA,"38"
"",NA,"",NA,"",NA,NA,NA,NA,NA,NA,"","",1,1,"2024-09-01_22h31.34.002","IAT(Formal)","2021.2.3","Win32",19.81218053,NA,"",NA,"",NA,NA,NA,NA,NA,NA,NA,"","","",NA,"e",1,0.6439,NA,NA,NA,NA,NA,"稳重","e","",NA,1,1,81,21,1,"",NA,"",NA,NA,NA,NA,NA,NA,NA,"",NA,"",NA,NA,NA,NA,NA,NA,NA,"","","",NA,"",NA,NA,NA,NA,NA,NA,NA,"",NA,"38"
"",NA,"",NA,"",NA,NA,NA,NA,NA,NA,"","",1,1,"2024-09-01_22h31.34.002","IAT(Formal)","2021.2.3","Win32",19.81218053,NA,"",NA,"",NA,NA,NA,NA,NA,NA,NA,"","","",NA,"e",1,0.9343,NA,NA,NA,NA,NA,"热情","e","",NA,1,2,82,27,1,"",NA,"",NA,NA,NA,NA,NA,NA,NA,"",NA,"",NA,NA,NA,NA,NA,NA,NA,"","","",NA,"",NA,NA,NA,NA,NA,NA,NA,"",NA,"38"
"",NA,"",NA,"",NA,NA,NA,NA,NA,NA,"","",1,1,"2024-09-01_22h31.34.002","IAT(Formal)","2021.2.3","Win32",19.81218053,NA,"",NA,"",NA,NA,NA,NA,NA,NA,NA,"","","",NA,"i",1,0.6701,NA,NA,NA,NA,NA,"他","i","",NA,1,3,83,75,1,"",NA,"",NA,NA,NA,NA,NA,NA,NA,"",NA,"",NA,NA,NA,NA,NA,NA,NA,"","","",NA,"",NA,NA,NA,NA,NA,NA,NA,"",NA,"38"
"",NA,"",NA,"",NA,NA,NA,NA,NA,NA,"","",1,1,"2024-09-01_22h31.34.002","IAT(Formal)","2021.2.3","Win32",19.81218053,NA,"",NA,"",NA,NA,NA,NA,NA,NA,NA,"","","",NA,"i",1,0.8561,NA,NA,NA,NA,NA,"轻率","i","",NA,1,4,84,48,1,"",NA,"",NA,NA,NA,NA,NA,NA,NA,"",NA,"",NA,NA,NA,NA,NA,NA,NA,"","","",NA,"",NA,NA,NA,NA,NA,NA,NA,"",NA,"38"
"",NA,"",NA,"",NA,NA,NA,NA,NA,NA,"","",1,1,"2024-09-01_22h31.34.002","IAT(Formal)","2021.2.3","Win32",19.81218053,NA,"",NA,"",NA,NA,NA,NA,NA,NA,NA,"","","",NA,"e",1,0.6246,NA,NA,NA,NA,NA,"细腻","e","",NA,1,5,85,25,1,"",NA,"",NA,NA,NA,NA,NA,NA,NA,"",NA,"",NA,NA,NA,NA,NA,NA,NA,"","","",NA,"",NA,NA,NA,NA,NA,NA,NA,"",NA,"38"
"",NA,"",NA,"",NA,NA,NA,NA,NA,NA,"","",1,1,"2024-09-01_22h31.34.002","IAT(Formal)","2021.2.3","Win32",19.81218053,NA,"",NA,"",NA,NA,NA,NA,NA,NA,NA,"","","",NA,"e",1,0.7489,NA,NA,NA,NA,NA,"诚恳","e","",NA,1,6,86,29,1,"",NA,"",NA,NA,NA,NA,NA,NA,NA,"",NA,"",NA,NA,NA,NA,NA,NA,NA,"","","",NA,"",NA,NA,NA,NA,NA,NA,NA,"",NA,"38"
"",NA,"",NA,"",NA,NA,NA,NA,NA,NA,"","",1,1,"2024-09-01_22h31.34.002","IAT(Formal)","2021.2.3","Win32",19.81218053,NA,"",NA,"",NA,NA,NA,NA,NA,NA,NA,"","","",NA,"e",1,0.511,NA,NA,NA,NA,NA,"勤奋","e","",NA,1,7,87,18,1,"",NA,"",NA,NA,NA,NA,NA,NA,NA,"",NA,"",NA,NA,NA,NA,NA,NA,NA,"","","",NA,"",NA,NA,NA,NA,NA,NA,NA,"",NA,"38"
"",NA,"",NA,"",NA,NA,NA,NA,NA,NA,"","",1,1,"2024-09-01_22h31.34.002","IAT(Formal)","2021.2.3","Win32",19.81218053,NA,"",NA,"",NA,NA,NA,NA,NA,NA,NA,"","","",NA,"e",1,0.6501,NA,NA,NA,NA,NA,"乐观","e","",NA,1,8,88,14,1,"",NA,"",NA,NA,NA,NA,NA,NA,NA,"",NA,"",NA,NA,NA,NA,NA,NA,NA,"","","",NA,"",NA,NA,NA,NA,NA,NA,NA,"",NA,"38"
"",NA,"",NA,"",NA,NA,NA,NA,NA,NA,"","",1,1,"2024-09-01_22h31.34.002","IAT(Formal)","2021.2.3","Win32",19.81218053,NA,"",NA,"",NA,NA,NA,NA,NA,NA,NA,"","","",NA,"i",1,0.511,NA,NA,NA,NA,NA,"他的","i","",NA,1,9,89,57,1,"",NA,"",NA,NA,NA,NA,NA,NA,NA,"",NA,"",NA,NA,NA,NA,NA,NA,NA,"","","",NA,"",NA,NA,NA,NA,NA,NA,NA,"",NA,"38"
"",NA,"",NA,"",NA,NA,NA,NA,NA,NA,"","",1,1,"2024-09-01_22h31.34.002","IAT(Formal)","2021.2.3","Win32",19.81218053,NA,"",NA,"",NA,NA,NA,NA,NA,NA,NA,"","","",NA,"i",1,0.6571,NA,NA,NA,NA,NA,"他","i","",NA,1,10,90,65,1,"",NA,"",NA,NA,NA,NA,NA,NA,NA,"",NA,"",NA,NA,NA,NA,NA,NA,NA,"","","",NA,"",NA,NA,NA,NA,NA,NA,NA,"",NA,"38"
"",NA,"",NA,"",NA,NA,NA,NA,NA,NA,"","",1,1,"2024-09-01_22h31.34.002","IAT(Formal)","2021.2.3","Win32",19.81218053,NA,"",NA,"",NA,NA,NA,NA,NA,NA,NA,"","","",NA,"e",1,0.6122,NA,NA,NA,NA,NA,"杰出","e","",NA,1,11,91,13,1,"",NA,"",NA,NA,NA,NA,NA,NA,NA,"",NA,"",NA,NA,NA,NA,NA,NA,NA,"","","",NA,"",NA,NA,NA,NA,NA,NA,NA,"",NA,"38"
"",NA,"",NA,"",NA,NA,NA,NA,NA,NA,"","",1,1,"2024-09-01_22h31.34.002","IAT(Formal)","2021.2.3","Win32",19.81218053,NA,"",NA,"",NA,NA,NA,NA,NA,NA,NA,"","","",NA,"i",1,0.6771,NA,NA,NA,NA,NA,"固执","i","",NA,1,12,92,47,1,"",NA,"",NA,NA,NA,NA,NA,NA,NA,"",NA,"",NA,NA,NA,NA,NA,NA,NA,"","","",NA,"",NA,NA,NA,NA,NA,NA,NA,"",NA,"38"
"",NA,"",NA,"",NA,NA,NA,NA,NA,NA,"","",1,1,"2024-09-01_22h31.34.002","IAT(Formal)","2021.2.3","Win32",19.81218053,NA,"",NA,"",NA,NA,NA,NA,NA,NA,NA,"","","",NA,"e",1,0.6634,NA,NA,NA,NA,NA,"无私","e","",NA,1,13,93,22,1,"",NA,"",NA,NA,NA,NA,NA,NA,NA,"",NA,"",NA,NA,NA,NA,NA,NA,NA,"","","",NA,"",NA,NA,NA,NA,NA,NA,NA,"",NA,"38"
"",NA,"",NA,"",NA,NA,NA,NA,NA,NA,"","",1,1,"2024-09-01_22h31.34.002","IAT(Formal)","2021.2.3","Win32",19.81218053,NA,"",NA,"",NA,NA,NA,NA,NA,NA,NA,"","","",NA,"i",1,0.5759,NA,NA,NA,NA,NA,"他","i","",NA,1,14,94,5,1,"",NA,"",NA,NA,NA,NA,NA,NA,NA,"",NA,"",NA,NA,NA,NA,NA,NA,NA,"","","",NA,"",NA,NA,NA,NA,NA,NA,NA,"",NA,"38"
"",NA,"",NA,"",NA,NA,NA,NA,NA,NA,"","",1,1,"2024-09-01_22h31.34.002","IAT(Formal)","2021.2.3","Win32",19.81218053,NA,"",NA,"",NA,NA,NA,NA,NA,NA,NA,"","","",NA,"i",1,0.6483,NA,NA,NA,NA,NA,"散漫","i","",NA,1,15,95,41,1,"",NA,"",NA,NA,NA,NA,NA,NA,NA,"",NA,"",NA,NA,NA,NA,NA,NA,NA,"","","",NA,"",NA,NA,NA,NA,NA,NA,NA,"",NA,"38"
"",NA,"",NA,"",NA,NA,NA,NA,NA,NA,"","",1,1,"2024-09-01_22h31.34.002","IAT(Formal)","2021.2.3","Win32",19.81218053,NA,"",NA,"",NA,NA,NA,NA,NA,NA,NA,"","","",NA,"e",1,0.5972,NA,NA,NA,NA,NA,"自己","e","",NA,1,16,96,63,1,"",NA,"",NA,NA,NA,NA,NA,NA,NA,"",NA,"",NA,NA,NA,NA,NA,NA,NA,"","","",NA,"",NA,NA,NA,NA,NA,NA,NA,"",NA,"38"
"",NA,"",NA,"",NA,NA,NA,NA,NA,NA,"","",1,1,"2024-09-01_22h31.34.002","IAT(Formal)","2021.2.3","Win32",19.81218053,NA,"",NA,"",NA,NA,NA,NA,NA,NA,NA,"","","",NA,"e",1,0.5923,NA,NA,NA,NA,NA,"我们","e","",NA,1,17,97,52,1,"",NA,"",NA,NA,NA,NA,NA,NA,NA,"",NA,"",NA,NA,NA,NA,NA,NA,NA,"","","",NA,"",NA,NA,NA,NA,NA,NA,NA,"",NA,"38"
"",NA,"",NA,"",NA,NA,NA,NA,NA,NA,"","",1,1,"2024-09-01_22h31.34.002","IAT(Formal)","2021.2.3","Win32",19.81218053,NA,"",NA,"",NA,NA,NA,NA,NA,NA,NA,"","","",NA,"e",1,0.561,NA,NA,NA,NA,NA,"我们","e","",NA,1,18,98,62,1,"",NA,"",NA,NA,NA,NA,NA,NA,NA,"",NA,"",NA,NA,NA,NA,NA,NA,NA,"","","",NA,"",NA,NA,NA,NA,NA,NA,NA,"",NA,"38"
"",NA,"",NA,"",NA,NA,NA,NA,NA,NA,"","",1,1,"2024-09-01_22h31.34.002","IAT(Formal)","2021.2.3","Win32",19.81218053,NA,"",NA,"",NA,NA,NA,NA,NA,NA,NA,"","","",NA,"i",1,0.9699,NA,NA,NA,NA,NA,"自私","i","",NA,1,19,99,43,1,"",NA,"",NA,NA,NA,NA,NA,NA,NA,"",NA,"",NA,NA,NA,NA,NA,NA,NA,"","","",NA,"",NA,NA,NA,NA,NA,NA,NA,"",NA,"38"
"",NA,"",NA,"",NA,NA,NA,NA,NA,NA,"","",1,1,"2024-09-01_22h31.34.002","IAT(Formal)","2021.2.3","Win32",19.81218053,NA,"",NA,"",NA,NA,NA,NA,NA,NA,NA,"","","",NA,"e",1,0.7222,NA,NA,NA,NA,NA,"冷静","e","",NA,1,20,100,26,1,"",NA,"",NA,NA,NA,NA,NA,NA,NA,"",NA,"",NA,NA,NA,NA,NA,NA,NA,"","","",NA,"",NA,NA,NA,NA,NA,NA,NA,"",NA,"38"
"",NA,"",NA,"",NA,NA,NA,NA,NA,NA,"","",1,1,"2024-09-01_22h31.34.002","IAT(Formal)","2021.2.3","Win32",19.81218053,NA,"",NA,"",NA,NA,NA,NA,NA,NA,NA,"","","",NA,"i",1,0.5739,NA,NA,NA,NA,NA,"他人","i","",NA,1,21,101,8,1,"",NA,"",NA,NA,NA,NA,NA,NA,NA,"",NA,"",NA,NA,NA,NA,NA,NA,NA,"","","",NA,"",NA,NA,NA,NA,NA,NA,NA,"",NA,"38"
"",NA,"",NA,"",NA,NA,NA,NA,NA,NA,"","",1,1,"2024-09-01_22h31.34.002","IAT(Formal)","2021.2.3","Win32",19.81218053,NA,"",NA,"",NA,NA,NA,NA,NA,NA,NA,"","","",NA,"i",1,0.596,NA,NA,NA,NA,NA,"其他","i","",NA,1,22,102,69,1,"",NA,"",NA,NA,NA,NA,NA,NA,NA,"",NA,"",NA,NA,NA,NA,NA,NA,NA,"","","",NA,"",NA,NA,NA,NA,NA,NA,NA,"",NA,"38"
"",NA,"",NA,"",NA,NA,NA,NA,NA,NA,"","",1,1,"2024-09-01_22h31.34.002","IAT(Formal)","2021.2.3","Win32",19.81218053,NA,"",NA,"",NA,NA,NA,NA,NA,NA,NA,"","","",NA,"e",1,0.5436,NA,NA,NA,NA,NA,"我的","e","",NA,1,23,103,61,1,"",NA,"",NA,NA,NA,NA,NA,NA,NA,"",NA,"",NA,NA,NA,NA,NA,NA,NA,"","","",NA,"",NA,NA,NA,NA,NA,NA,NA,"",NA,"38"
"",NA,"",NA,"",NA,NA,NA,NA,NA,NA,"","",1,1,"2024-09-01_22h31.34.002","IAT(Formal)","2021.2.3","Win32",19.81218053,NA,"",NA,"",NA,NA,NA,NA,NA,NA,NA,"","","",NA,"e",1,0.587,NA,NA,NA,NA,NA,"聪明","e","",NA,1,24,104,12,1,"",NA,"",NA,NA,NA,NA,NA,NA,NA,"",NA,"",NA,NA,NA,NA,NA,NA,NA,"","","",NA,"",NA,NA,NA,NA,NA,NA,NA,"",NA,"38"
"",NA,"",NA,"",NA,NA,NA,NA,NA,NA,"","",1,1,"2024-09-01_22h31.34.002","IAT(Formal)","2021.2.3","Win32",19.81218053,NA,"",NA,"",NA,NA,NA,NA,NA,NA,NA,"","","",NA,"i",1,0.6006,NA,NA,NA,NA,NA,"虚伪","i","",NA,1,25,105,31,1,"",NA,"",NA,NA,NA,NA,NA,NA,NA,"",NA,"",NA,NA,NA,NA,NA,NA,NA,"","","",NA,"",NA,NA,NA,NA,NA,NA,NA,"",NA,"38"
"",NA,"",NA,"",NA,NA,NA,NA,NA,NA,"","",1,1,"2024-09-01_22h31.34.002","IAT(Formal)","2021.2.3","Win32",19.81218053,NA,"",NA,"",NA,NA,NA,NA,NA,NA,NA,"","","",NA,"e",1,0.5537,NA,NA,NA,NA,NA,"公正","e","",NA,1,26,106,23,1,"",NA,"",NA,NA,NA,NA,NA,NA,NA,"",NA,"",NA,NA,NA,NA,NA,NA,NA,"","","",NA,"",NA,NA,NA,NA,NA,NA,NA,"",NA,"38"
"",NA,"",NA,"",NA,NA,NA,NA,NA,NA,"","",1,1,"2024-09-01_22h31.34.002","IAT(Formal)","2021.2.3","Win32",19.81218053,NA,"",NA,"",NA,NA,NA,NA,NA,NA,NA,"","","",NA,"i",1,0.534,NA,NA,NA,NA,NA,"其他","i","",NA,1,27,107,59,1,"",NA,"",NA,NA,NA,NA,NA,NA,NA,"",NA,"",NA,NA,NA,NA,NA,NA,NA,"","","",NA,"",NA,NA,NA,NA,NA,NA,NA,"",NA,"38"
"",NA,"",NA,"",NA,NA,NA,NA,NA,NA,"","",1,1,"2024-09-01_22h31.34.002","IAT(Formal)","2021.2.3","Win32",19.81218053,NA,"",NA,"",NA,NA,NA,NA,NA,NA,NA,"","","",NA,"i",1,0.471,NA,NA,NA,NA,NA,"凶狠","i","",NA,1,28,108,42,1,"",NA,"",NA,NA,NA,NA,NA,NA,NA,"",NA,"",NA,NA,NA,NA,NA,NA,NA,"","","",NA,"",NA,NA,NA,NA,NA,NA,NA,"",NA,"38"
"",NA,"",NA,"",NA,NA,NA,NA,NA,NA,"","",1,1,"2024-09-01_22h31.34.002","IAT(Formal)","2021.2.3","Win32",19.81218053,NA,"",NA,"",NA,NA,NA,NA,NA,NA,NA,"","","",NA,"e",1,0.4967,NA,NA,NA,NA,NA,"崇高","e","",NA,1,29,109,11,1,"",NA,"",NA,NA,NA,NA,NA,NA,NA,"",NA,"",NA,NA,NA,NA,NA,NA,NA,"","","",NA,"",NA,NA,NA,NA,NA,NA,NA,"",NA,"38"
"",NA,"",NA,"",NA,NA,NA,NA,NA,NA,"","",1,1,"2024-09-01_22h31.34.002","IAT(Formal)","2021.2.3","Win32",19.81218053,NA,"",NA,"",NA,NA,NA,NA,NA,NA,NA,"","","",NA,"i",1,0.5771,NA,NA,NA,NA,NA,"愚蠢","i","",NA,1,30,110,32,1,"",NA,"",NA,NA,NA,NA,NA,NA,NA,"",NA,"",NA,NA,NA,NA,NA,NA,NA,"","","",NA,"",NA,NA,NA,NA,NA,NA,NA,"",NA,"38"
"",NA,"",NA,"",NA,NA,NA,NA,NA,NA,"","",1,1,"2024-09-01_22h31.34.002","IAT(Formal)","2021.2.3","Win32",19.81218053,NA,"",NA,"",NA,NA,NA,NA,NA,NA,NA,"","","",NA,"e",1,0.5309,NA,NA,NA,NA,NA,"我","e","",NA,1,31,111,0,1,"",NA,"",NA,NA,NA,NA,NA,NA,NA,"",NA,"",NA,NA,NA,NA,NA,NA,NA,"","","",NA,"",NA,NA,NA,NA,NA,NA,NA,"",NA,"38"
"",NA,"",NA,"",NA,NA,NA,NA,NA,NA,"","",1,1,"2024-09-01_22h31.34.002","IAT(Formal)","2021.2.3","Win32",19.81218053,NA,"",NA,"",NA,NA,NA,NA,NA,NA,NA,"","","",NA,"i",1,0.612,NA,NA,NA,NA,NA,"猖狂","i","",NA,1,32,112,45,1,"",NA,"",NA,NA,NA,NA,NA,NA,NA,"",NA,"",NA,NA,NA,NA,NA,NA,NA,"","","",NA,"",NA,NA,NA,NA,NA,NA,NA,"",NA,"38"
"",NA,"",NA,"",NA,NA,NA,NA,NA,NA,"","",1,1,"2024-09-01_22h31.34.002","IAT(Formal)","2021.2.3","Win32",19.81218053,NA,"",NA,"",NA,NA,NA,NA,NA,NA,NA,"","","",NA,"e",1,0.5512,NA,NA,NA,NA,NA,"诚实","e","",NA,1,33,113,15,1,"",NA,"",NA,NA,NA,NA,NA,NA,NA,"",NA,"",NA,NA,NA,NA,NA,NA,NA,"","","",NA,"",NA,NA,NA,NA,NA,NA,NA,"",NA,"38"
"",NA,"",NA,"",NA,NA,NA,NA,NA,NA,"","",1,1,"2024-09-01_22h31.34.002","IAT(Formal)","2021.2.3","Win32",19.81218053,NA,"",NA,"",NA,NA,NA,NA,NA,NA,NA,"","","",NA,"e",1,0.5358,NA,NA,NA,NA,NA,"我们","e","",NA,1,34,114,72,1,"",NA,"",NA,NA,NA,NA,NA,NA,NA,"",NA,"",NA,NA,NA,NA,NA,NA,NA,"","","",NA,"",NA,NA,NA,NA,NA,NA,NA,"",NA,"38"
"",NA,"",NA,"",NA,NA,NA,NA,NA,NA,"","",1,1,"2024-09-01_22h31.34.002","IAT(Formal)","2021.2.3","Win32",19.81218053,NA,"",NA,"",NA,NA,NA,NA,NA,NA,NA,"","","",NA,"e",1,0.5483,NA,NA,NA,NA,NA,"我的","e","",NA,1,35,115,1,1,"",NA,"",NA,NA,NA,NA,NA,NA,NA,"",NA,"",NA,NA,NA,NA,NA,NA,NA,"","","",NA,"",NA,NA,NA,NA,NA,NA,NA,"",NA,"38"
"",NA,"",NA,"",NA,NA,NA,NA,NA,NA,"","",1,1,"2024-09-01_22h31.34.002","IAT(Formal)","2021.2.3","Win32",19.81218053,NA,"",NA,"",NA,NA,NA,NA,NA,NA,NA,"","","",NA,"e",1,0.4924,NA,NA,NA,NA,NA,"我的","e","",NA,1,36,116,71,1,"",NA,"",NA,NA,NA,NA,NA,NA,NA,"",NA,"",NA,NA,NA,NA,NA,NA,NA,"","","",NA,"",NA,NA,NA,NA,NA,NA,NA,"",NA,"38"
"",NA,"",NA,"",NA,NA,NA,NA,NA,NA,"","",1,1,"2024-09-01_22h31.34.002","IAT(Formal)","2021.2.3","Win32",19.81218053,NA,"",NA,"",NA,NA,NA,NA,NA,NA,NA,"","","",NA,"e",1,0.6175,NA,NA,NA,NA,NA,"俺","e","",NA,1,37,117,54,1,"",NA,"",NA,NA,NA,NA,NA,NA,NA,"",NA,"",NA,NA,NA,NA,NA,NA,NA,"","","",NA,"",NA,NA,NA,NA,NA,NA,NA,"",NA,"38"
"",NA,"",NA,"",NA,NA,NA,NA,NA,NA,"","",1,1,"2024-09-01_22h31.34.002","IAT(Formal)","2021.2.3","Win32",19.81218053,NA,"",NA,"",NA,NA,NA,NA,NA,NA,NA,"","","",NA,"e",1,0.5467,NA,NA,NA,NA,NA,"俺","e","",NA,1,38,118,4,1,"",NA,"",NA,NA,NA,NA,NA,NA,NA,"",NA,"",NA,NA,NA,NA,NA,NA,NA,"","","",NA,"",NA,NA,NA,NA,NA,NA,NA,"",NA,"38"
"",NA,"",NA,"",NA,NA,NA,NA,NA,NA,"","",1,1,"2024-09-01_22h31.34.002","IAT(Formal)","2021.2.3","Win32",19.81218053,NA,"",NA,"",NA,NA,NA,NA,NA,NA,NA,"","","",NA,"e",1,0.5718,NA,NA,NA,NA,NA,"优秀","e","",NA,1,39,119,10,1,"",NA,"",NA,NA,NA,NA,NA,NA,NA,"",NA,"",NA,NA,NA,NA,NA,NA,NA,"","","",NA,"",NA,NA,NA,NA,NA,NA,NA,"",NA,"38"
"",NA,"",NA,"",NA,NA,NA,NA,NA,NA,"","",1,1,"2024-09-01_22h31.34.002","IAT(Formal)","2021.2.3","Win32",19.81218053,NA,"",NA,"",NA,NA,NA,NA,NA,NA,NA,"","","",NA,"e",1,0.5863,NA,NA,NA,NA,NA,"正直","e","",NA,1,40,120,16,1,"",NA,"",NA,NA,NA,NA,NA,NA,NA,"",NA,"",NA,NA,NA,NA,NA,NA,NA,"","","",NA,"",NA,NA,NA,NA,NA,NA,NA,"",NA,"38"
"",NA,"",NA,"",NA,NA,NA,NA,NA,NA,"","",1,1,"2024-09-01_22h31.34.002","IAT(Formal)","2021.2.3","Win32",19.81218053,NA,"",NA,"",NA,NA,NA,NA,NA,NA,NA,"","","",NA,"e",1,0.5124,NA,NA,NA,NA,NA,"我","e","",NA,1,41,121,70,1,"",NA,"",NA,NA,NA,NA,NA,NA,NA,"",NA,"",NA,NA,NA,NA,NA,NA,NA,"","","",NA,"",NA,NA,NA,NA,NA,NA,NA,"",NA,"38"
"",NA,"",NA,"",NA,NA,NA,NA,NA,NA,"","",1,1,"2024-09-01_22h31.34.002","IAT(Formal)","2021.2.3","Win32",19.81218053,NA,"",NA,"",NA,NA,NA,NA,NA,NA,NA,"","","",NA,"i",1,0.5378,NA,NA,NA,NA,NA,"消极","i","",NA,1,42,122,35,1,"",NA,"",NA,NA,NA,NA,NA,NA,NA,"",NA,"",NA,NA,NA,NA,NA,NA,NA,"","","",NA,"",NA,NA,NA,NA,NA,NA,NA,"",NA,"38"
"",NA,"",NA,"",NA,NA,NA,NA,NA,NA,"","",1,1,"2024-09-01_22h31.34.002","IAT(Formal)","2021.2.3","Win32",19.81218053,NA,"",NA,"",NA,NA,NA,NA,NA,NA,NA,"","","",NA,"e",1,0.5104,NA,NA,NA,NA,NA,"我们","e","",NA,1,43,123,2,1,"",NA,"",NA,NA,NA,NA,NA,NA,NA,"",NA,"",NA,NA,NA,NA,NA,NA,NA,"","","",NA,"",NA,NA,NA,NA,NA,NA,NA,"",NA,"38"
"",NA,"",NA,"",NA,NA,NA,NA,NA,NA,"","",1,1,"2024-09-01_22h31.34.002","IAT(Formal)","2021.2.3","Win32",19.81218053,NA,"",NA,"",NA,NA,NA,NA,NA,NA,NA,"","","",NA,"e",1,0.5917,NA,NA,NA,NA,NA,"自己","e","",NA,1,44,124,3,1,"",NA,"",NA,NA,NA,NA,NA,NA,NA,"",NA,"",NA,NA,NA,NA,NA,NA,NA,"","","",NA,"",NA,NA,NA,NA,NA,NA,NA,"",NA,"38"
"",NA,"",NA,"",NA,NA,NA,NA,NA,NA,"","",1,1,"2024-09-01_22h31.34.002","IAT(Formal)","2021.2.3","Win32",19.81218053,NA,"",NA,"",NA,NA,NA,NA,NA,NA,NA,"","","",NA,"e",1,0.9267,NA,NA,NA,NA,NA,"我","e","",NA,1,45,125,50,1,"",NA,"",NA,NA,NA,NA,NA,NA,NA,"",NA,"",NA,NA,NA,NA,NA,NA,NA,"","","",NA,"",NA,NA,NA,NA,NA,NA,NA,"",NA,"38"
"",NA,"",NA,"",NA,NA,NA,NA,NA,NA,"","",1,1,"2024-09-01_22h31.34.002","IAT(Formal)","2021.2.3","Win32",19.81218053,NA,"",NA,"",NA,NA,NA,NA,NA,NA,NA,"","","",NA,"i",1,0.658,NA,NA,NA,NA,NA,"他的","i","",NA,1,46,126,77,1,"",NA,"",NA,NA,NA,NA,NA,NA,NA,"",NA,"",NA,NA,NA,NA,NA,NA,NA,"","","",NA,"",NA,NA,NA,NA,NA,NA,NA,"",NA,"38"
"",NA,"",NA,"",NA,NA,NA,NA,NA,NA,"","",1,1,"2024-09-01_22h31.34.002","IAT(Formal)","2021.2.3","Win32",19.81218053,NA,"",NA,"",NA,NA,NA,NA,NA,NA,NA,"","","",NA,"e",1,0.5724,NA,NA,NA,NA,NA,"机智","e","",NA,1,47,127,19,1,"",NA,"",NA,NA,NA,NA,NA,NA,NA,"",NA,"",NA,NA,NA,NA,NA,NA,NA,"","","",NA,"",NA,NA,NA,NA,NA,NA,NA,"",NA,"38"
"",NA,"",NA,"",NA,NA,NA,NA,NA,NA,"","",1,1,"2024-09-01_22h31.34.002","IAT(Formal)","2021.2.3","Win32",19.81218053,NA,"",NA,"",NA,NA,NA,NA,NA,NA,NA,"","","",NA,"i",1,0.6591,NA,NA,NA,NA,NA,"他人","i","",NA,1,48,128,68,1,"",NA,"",NA,NA,NA,NA,NA,NA,NA,"",NA,"",NA,NA,NA,NA,NA,NA,NA,"","","",NA,"",NA,NA,NA,NA,NA,NA,NA,"",NA,"38"
"",NA,"",NA,"",NA,NA,NA,NA,NA,NA,"","",1,1,"2024-09-01_22h31.34.002","IAT(Formal)","2021.2.3","Win32",19.81218053,NA,"",NA,"",NA,NA,NA,NA,NA,NA,NA,"","","",NA,"i",1,0.6598,NA,NA,NA,NA,NA,"刻薄","i","",NA,1,49,129,33,1,"",NA,"",NA,NA,NA,NA,NA,NA,NA,"",NA,"",NA,NA,NA,NA,NA,NA,NA,"","","",NA,"",NA,NA,NA,NA,NA,NA,NA,"",NA,"38"
"",NA,"",NA,"",NA,NA,NA,NA,NA,NA,"","",1,1,"2024-09-01_22h31.34.002","IAT(Formal)","2021.2.3","Win32",19.81218053,NA,"",NA,"",NA,NA,NA,NA,NA,NA,NA,"","","",NA,"e",1,0.649,NA,NA,NA,NA,NA,"认真","e","",NA,1,50,130,20,1,"",NA,"",NA,NA,NA,NA,NA,NA,NA,"",NA,"",NA,NA,NA,NA,NA,NA,NA,"","","",NA,"",NA,NA,NA,NA,NA,NA,NA,"",NA,"38"
"",NA,"",NA,"",NA,NA,NA,NA,NA,NA,"","",1,1,"2024-09-01_22h31.34.002","IAT(Formal)","2021.2.3","Win32",19.81218053,NA,"",NA,"",NA,NA,NA,NA,NA,NA,NA,"","","",NA,"i",1,0.6271,NA,NA,NA,NA,NA,"野蛮","i","",NA,1,51,131,46,1,"",NA,"",NA,NA,NA,NA,NA,NA,NA,"",NA,"",NA,NA,NA,NA,NA,NA,NA,"","","",NA,"",NA,NA,NA,NA,NA,NA,NA,"",NA,"38"
"",NA,"",NA,"",NA,NA,NA,NA,NA,NA,"","",1,1,"2024-09-01_22h31.34.002","IAT(Formal)","2021.2.3","Win32",19.81218053,NA,"",NA,"",NA,NA,NA,NA,NA,NA,NA,"","","",NA,"i",1,0.9564,NA,NA,NA,NA,NA,"冒失","i","",NA,1,52,132,39,1,"",NA,"",NA,NA,NA,NA,NA,NA,NA,"",NA,"",NA,NA,NA,NA,NA,NA,NA,"","","",NA,"",NA,NA,NA,NA,NA,NA,NA,"",NA,"38"
"",NA,"",NA,"",NA,NA,NA,NA,NA,NA,"","",1,1,"2024-09-01_22h31.34.002","IAT(Formal)","2021.2.3","Win32",19.81218053,NA,"",NA,"",NA,NA,NA,NA,NA,NA,NA,"","","",NA,"i",1,0.7133,NA,NA,NA,NA,NA,"他人","i","",NA,1,53,133,58,1,"",NA,"",NA,NA,NA,NA,NA,NA,NA,"",NA,"",NA,NA,NA,NA,NA,NA,NA,"","","",NA,"",NA,NA,NA,NA,NA,NA,NA,"",NA,"38"
"",NA,"",NA,"",NA,NA,NA,NA,NA,NA,"","",1,1,"2024-09-01_22h31.34.002","IAT(Formal)","2021.2.3","Win32",19.81218053,NA,"",NA,"",NA,NA,NA,NA,NA,NA,NA,"","","",NA,"i",1,0.5799,NA,NA,NA,NA,NA,"自卑","i","",NA,1,54,134,36,1,"",NA,"",NA,NA,NA,NA,NA,NA,NA,"",NA,"",NA,NA,NA,NA,NA,NA,NA,"","","",NA,"",NA,NA,NA,NA,NA,NA,NA,"",NA,"38"
"",NA,"",NA,"",NA,NA,NA,NA,NA,NA,"","",1,1,"2024-09-01_22h31.34.002","IAT(Formal)","2021.2.3","Win32",19.81218053,NA,"",NA,"",NA,NA,NA,NA,NA,NA,NA,"","","",NA,"i",1,0.568,NA,NA,NA,NA,NA,"暴躁","i","",NA,1,55,135,44,1,"",NA,"",NA,NA,NA,NA,NA,NA,NA,"",NA,"",NA,NA,NA,NA,NA,NA,NA,"","","",NA,"",NA,NA,NA,NA,NA,NA,NA,"",NA,"38"
"",NA,"",NA,"",NA,NA,NA,NA,NA,NA,"","",1,1,"2024-09-01_22h31.34.002","IAT(Formal)","2021.2.3","Win32",19.81218053,NA,"",NA,"",NA,NA,NA,NA,NA,NA,NA,"","","",NA,"e",1,0.5365,NA,NA,NA,NA,NA,"我的","e","",NA,1,56,136,51,1,"",NA,"",NA,NA,NA,NA,NA,NA,NA,"",NA,"",NA,NA,NA,NA,NA,NA,NA,"","","",NA,"",NA,NA,NA,NA,NA,NA,NA,"",NA,"38"
"",NA,"",NA,"",NA,NA,NA,NA,NA,NA,"","",1,1,"2024-09-01_22h31.34.002","IAT(Formal)","2021.2.3","Win32",19.81218053,NA,"",NA,"",NA,NA,NA,NA,NA,NA,NA,"","","",NA,"e",1,0.6526,NA,NA,NA,NA,NA,"俺","e","",NA,1,57,137,64,1,"",NA,"",NA,NA,NA,NA,NA,NA,NA,"",NA,"",NA,NA,NA,NA,NA,NA,NA,"","","",NA,"",NA,NA,NA,NA,NA,NA,NA,"",NA,"38"
"",NA,"",NA,"",NA,NA,NA,NA,NA,NA,"","",1,1,"2024-09-01_22h31.34.002","IAT(Formal)","2021.2.3","Win32",19.81218053,NA,"",NA,"",NA,NA,NA,NA,NA,NA,NA,"","","",NA,"e",1,0.9123,NA,NA,NA,NA,NA,"朴实","e","",NA,1,58,138,24,1,"",NA,"",NA,NA,NA,NA,NA,NA,NA,"",NA,"",NA,NA,NA,NA,NA,NA,NA,"","","",NA,"",NA,NA,NA,NA,NA,NA,NA,"",NA,"38"
"",NA,"",NA,"",NA,NA,NA,NA,NA,NA,"","",1,1,"2024-09-01_22h31.34.002","IAT(Formal)","2021.2.3","Win32",19.81218053,NA,"",NA,"",NA,NA,NA,NA,NA,NA,NA,"","","",NA,"i",1,0.6231,NA,NA,NA,NA,NA,"傲慢","i","",NA,1,59,139,37,1,"",NA,"",NA,NA,NA,NA,NA,NA,NA,"",NA,"",NA,NA,NA,NA,NA,NA,NA,"","","",NA,"",NA,NA,NA,NA,NA,NA,NA,"",NA,"38"
"",NA,"",NA,"",NA,NA,NA,NA,NA,NA,"","",1,1,"2024-09-01_22h31.34.002","IAT(Formal)","2021.2.3","Win32",19.81218053,NA,"",NA,"",NA,NA,NA,NA,NA,NA,NA,"","","",NA,"i",1,0.5881,NA,NA,NA,NA,NA,"其他","i","",NA,1,60,140,9,1,"",NA,"",NA,NA,NA,NA,NA,NA,NA,"",NA,"",NA,NA,NA,NA,NA,NA,NA,"","","",NA,"",NA,NA,NA,NA,NA,NA,NA,"",NA,"38"
"",NA,"",NA,"",NA,NA,NA,NA,NA,NA,"","",1,1,"2024-09-01_22h31.34.002","IAT(Formal)","2021.2.3","Win32",19.81218053,NA,"",NA,"",NA,NA,NA,NA,NA,NA,NA,"","","",NA,"i",1,0.5456,NA,NA,NA,NA,NA,"其他","i","",NA,1,61,141,79,1,"",NA,"",NA,NA,NA,NA,NA,NA,NA,"",NA,"",NA,NA,NA,NA,NA,NA,NA,"","","",NA,"",NA,NA,NA,NA,NA,NA,NA,"",NA,"38"
"",NA,"",NA,"",NA,NA,NA,NA,NA,NA,"","",1,1,"2024-09-01_22h31.34.002","IAT(Formal)","2021.2.3","Win32",19.81218053,NA,"",NA,"",NA,NA,NA,NA,NA,NA,NA,"","","",NA,"i",1,0.5301,NA,NA,NA,NA,NA,"卑鄙","i","",NA,1,62,142,30,1,"",NA,"",NA,NA,NA,NA,NA,NA,NA,"",NA,"",NA,NA,NA,NA,NA,NA,NA,"","","",NA,"",NA,NA,NA,NA,NA,NA,NA,"",NA,"38"
"",NA,"",NA,"",NA,NA,NA,NA,NA,NA,"","",1,1,"2024-09-01_22h31.34.002","IAT(Formal)","2021.2.3","Win32",19.81218053,NA,"",NA,"",NA,NA,NA,NA,NA,NA,NA,"","","",NA,"i",1,0.868,NA,NA,NA,NA,NA,"他","i","",NA,1,63,143,55,1,"",NA,"",NA,NA,NA,NA,NA,NA,NA,"",NA,"",NA,NA,NA,NA,NA,NA,NA,"","","",NA,"",NA,NA,NA,NA,NA,NA,NA,"",NA,"38"
"",NA,"",NA,"",NA,NA,NA,NA,NA,NA,"","",1,1,"2024-09-01_22h31.34.002","IAT(Formal)","2021.2.3","Win32",19.81218053,NA,"",NA,"",NA,NA,NA,NA,NA,NA,NA,"","","",NA,"i",1,0.6397,NA,NA,NA,NA,NA,"执拗","i","",NA,1,64,144,40,1,"",NA,"",NA,NA,NA,NA,NA,NA,NA,"",NA,"",NA,NA,NA,NA,NA,NA,NA,"","","",NA,"",NA,NA,NA,NA,NA,NA,NA,"",NA,"38"
"",NA,"",NA,"",NA,NA,NA,NA,NA,NA,"","",1,1,"2024-09-01_22h31.34.002","IAT(Formal)","2021.2.3","Win32",19.81218053,NA,"",NA,"",NA,NA,NA,NA,NA,NA,NA,"","","",NA,"i",1,0.4623,NA,NA,NA,NA,NA,"鲁莽","i","",NA,1,65,145,38,1,"",NA,"",NA,NA,NA,NA,NA,NA,NA,"",NA,"",NA,NA,NA,NA,NA,NA,NA,"","","",NA,"",NA,NA,NA,NA,NA,NA,NA,"",NA,"38"
"",NA,"",NA,"",NA,NA,NA,NA,NA,NA,"","",1,1,"2024-09-01_22h31.34.002","IAT(Formal)","2021.2.3","Win32",19.81218053,NA,"",NA,"",NA,NA,NA,NA,NA,NA,NA,"","","",NA,"i",1,0.4675,NA,NA,NA,NA,NA,"悲观","i","",NA,1,66,146,34,1,"",NA,"",NA,NA,NA,NA,NA,NA,NA,"",NA,"",NA,NA,NA,NA,NA,NA,NA,"","","",NA,"",NA,NA,NA,NA,NA,NA,NA,"",NA,"38"
"",NA,"",NA,"",NA,NA,NA,NA,NA,NA,"","",1,1,"2024-09-01_22h31.34.002","IAT(Formal)","2021.2.3","Win32",19.81218053,NA,"",NA,"",NA,NA,NA,NA,NA,NA,NA,"","","",NA,"e",1,1.0109,NA,NA,NA,NA,NA,"勇敢","e","",NA,1,67,147,17,1,"",NA,"",NA,NA,NA,NA,NA,NA,NA,"",NA,"",NA,NA,NA,NA,NA,NA,NA,"","","",NA,"",NA,NA,NA,NA,NA,NA,NA,"",NA,"38"
"",NA,"",NA,"",NA,NA,NA,NA,NA,NA,"","",1,1,"2024-09-01_22h31.34.002","IAT(Formal)","2021.2.3","Win32",19.81218053,NA,"",NA,"",NA,NA,NA,NA,NA,NA,NA,"","","",NA,"i",1,1.3757,NA,NA,NA,NA,NA,"他们","i","",NA,1,68,148,6,1,"",NA,"",NA,NA,NA,NA,NA,NA,NA,"",NA,"",NA,NA,NA,NA,NA,NA,NA,"","","",NA,"",NA,NA,NA,NA,NA,NA,NA,"",NA,"38"
"",NA,"",NA,"",NA,NA,NA,NA,NA,NA,"","",1,1,"2024-09-01_22h31.34.002","IAT(Formal)","2021.2.3","Win32",19.81218053,NA,"",NA,"",NA,NA,NA,NA,NA,NA,NA,"","","",NA,"i",1,0.4261,NA,NA,NA,NA,NA,"他们","i","",NA,1,69,149,56,1,"",NA,"",NA,NA,NA,NA,NA,NA,NA,"",NA,"",NA,NA,NA,NA,NA,NA,NA,"","","",NA,"",NA,NA,NA,NA,NA,NA,NA,"",NA,"38"
"",NA,"",NA,"",NA,NA,NA,NA,NA,NA,"","",1,1,"2024-09-01_22h31.34.002","IAT(Formal)","2021.2.3","Win32",19.81218053,NA,"",NA,"",NA,NA,NA,NA,NA,NA,NA,"","","",NA,"i",1,0.4569,NA,NA,NA,NA,NA,"他的","i","",NA,1,70,150,7,1,"",NA,"",NA,NA,NA,NA,NA,NA,NA,"",NA,"",NA,NA,NA,NA,NA,NA,NA,"","","",NA,"",NA,NA,NA,NA,NA,NA,NA,"",NA,"38"
"",NA,"",NA,"",NA,NA,NA,NA,NA,NA,"","",1,1,"2024-09-01_22h31.34.002","IAT(Formal)","2021.2.3","Win32",19.81218053,NA,"",NA,"",NA,NA,NA,NA,NA,NA,NA,"","","",NA,"e",1,0.5868,NA,NA,NA,NA,NA,"活泼","e","",NA,1,71,151,28,1,"",NA,"",NA,NA,NA,NA,NA,NA,NA,"",NA,"",NA,NA,NA,NA,NA,NA,NA,"","","",NA,"",NA,NA,NA,NA,NA,NA,NA,"",NA,"38"
"",NA,"",NA,"",NA,NA,NA,NA,NA,NA,"","",1,1,"2024-09-01_22h31.34.002","IAT(Formal)","2021.2.3","Win32",19.81218053,NA,"",NA,"",NA,NA,NA,NA,NA,NA,NA,"","","",NA,"i",1,0.5294,NA,NA,NA,NA,NA,"下贱","i","",NA,1,72,152,49,1,"",NA,"",NA,NA,NA,NA,NA,NA,NA,"",NA,"",NA,NA,NA,NA,NA,NA,NA,"","","",NA,"",NA,NA,NA,NA,NA,NA,NA,"",NA,"38"
"",NA,"",NA,"",NA,NA,NA,NA,NA,NA,"","",1,1,"2024-09-01_22h31.34.002","IAT(Formal)","2021.2.3","Win32",19.81218053,NA,"",NA,"",NA,NA,NA,NA,NA,NA,NA,"","","",NA,"e",1,0.6735,NA,NA,NA,NA,NA,"自己","e","",NA,1,73,153,53,1,"",NA,"",NA,NA,NA,NA,NA,NA,NA,"",NA,"",NA,NA,NA,NA,NA,NA,NA,"","","",NA,"",NA,NA,NA,NA,NA,NA,NA,"",NA,"38"
"",NA,"",NA,"",NA,NA,NA,NA,NA,NA,"","",1,1,"2024-09-01_22h31.34.002","IAT(Formal)","2021.2.3","Win32",19.81218053,NA,"",NA,"",NA,NA,NA,NA,NA,NA,NA,"","","",NA,"i",1,0.6169,NA,NA,NA,NA,NA,"他的","i","",NA,1,74,154,67,1,"",NA,"",NA,NA,NA,NA,NA,NA,NA,"",NA,"",NA,NA,NA,NA,NA,NA,NA,"","","",NA,"",NA,NA,NA,NA,NA,NA,NA,"",NA,"38"
"",NA,"",NA,"",NA,NA,NA,NA,NA,NA,"","",1,1,"2024-09-01_22h31.34.002","IAT(Formal)","2021.2.3","Win32",19.81218053,NA,"",NA,"",NA,NA,NA,NA,NA,NA,NA,"","","",NA,"e",1,0.5368,NA,NA,NA,NA,NA,"俺","e","",NA,1,75,155,74,1,"",NA,"",NA,NA,NA,NA,NA,NA,NA,"",NA,"",NA,NA,NA,NA,NA,NA,NA,"","","",NA,"",NA,NA,NA,NA,NA,NA,NA,"",NA,"38"
"",NA,"",NA,"",NA,NA,NA,NA,NA,NA,"","",1,1,"2024-09-01_22h31.34.002","IAT(Formal)","2021.2.3","Win32",19.81218053,NA,"",NA,"",NA,NA,NA,NA,NA,NA,NA,"","","",NA,"i",1,0.5985,NA,NA,NA,NA,NA,"他们","i","",NA,1,76,156,76,1,"",NA,"",NA,NA,NA,NA,NA,NA,NA,"",NA,"",NA,NA,NA,NA,NA,NA,NA,"","","",NA,"",NA,NA,NA,NA,NA,NA,NA,"",NA,"38"
"",NA,"",NA,"",NA,NA,NA,NA,NA,NA,"","",1,1,"2024-09-01_22h31.34.002","IAT(Formal)","2021.2.3","Win32",19.81218053,NA,"",NA,"",NA,NA,NA,NA,NA,NA,NA,"","","",NA,"i",1,0.4414,NA,NA,NA,NA,NA,"他人","i","",NA,1,77,157,78,1,"",NA,"",NA,NA,NA,NA,NA,NA,NA,"",NA,"",NA,NA,NA,NA,NA,NA,NA,"","","",NA,"",NA,NA,NA,NA,NA,NA,NA,"",NA,"38"
"",NA,"",NA,"",NA,NA,NA,NA,NA,NA,"","",1,1,"2024-09-01_22h31.34.002","IAT(Formal)","2021.2.3","Win32",19.81218053,NA,"",NA,"",NA,NA,NA,NA,NA,NA,NA,"","","",NA,"e",1,0.7428,NA,NA,NA,NA,NA,"自己","e","",NA,1,78,158,73,1,"",NA,"",NA,NA,NA,NA,NA,NA,NA,"",NA,"",NA,NA,NA,NA,NA,NA,NA,"","","",NA,"",NA,NA,NA,NA,NA,NA,NA,"",NA,"38"
"",NA,"",NA,"",NA,NA,NA,NA,NA,NA,"","",1,1,"2024-09-01_22h31.34.002","IAT(Formal)","2021.2.3","Win32",19.81218053,NA,"",NA,"",NA,NA,NA,NA,NA,NA,NA,"","","",NA,"e",1,0.4893,NA,NA,NA,NA,NA,"我","e","",NA,1,79,159,60,1,"",NA,"",NA,NA,NA,NA,NA,NA,NA,"",NA,"",NA,NA,NA,NA,NA,NA,NA,"","","",NA,"",NA,NA,NA,NA,NA,NA,NA,"",NA,"38"
"",NA,"",NA,"",NA,NA,NA,NA,NA,NA,"我们","i",1,1,"2024-09-01_22h31.34.002","IAT(Formal)","2021.2.3","Win32",19.81218053,NA,"",NA,"",NA,NA,NA,NA,NA,NA,NA,"","","",NA,"",NA,NA,NA,NA,NA,NA,NA,"","","",NA,NA,NA,NA,NA,NA,"space",26.6451,"i",1,0.8458,0,0,0,2,1,"",NA,"",NA,NA,NA,NA,NA,NA,NA,"","","",NA,"",NA,NA,NA,NA,NA,NA,NA,"",NA,"38"
"",NA,"",NA,"",NA,NA,NA,NA,NA,NA,"自己","i",1,1,"2024-09-01_22h31.34.002","IAT(Formal)","2021.2.3","Win32",19.81218053,NA,"",NA,"",NA,NA,NA,NA,NA,NA,NA,"","","",NA,"",NA,NA,NA,NA,NA,NA,NA,"","","",NA,NA,NA,NA,NA,NA,"",NA,"i",1,0.6401,0,1,1,3,1,"",NA,"",NA,NA,NA,NA,NA,NA,NA,"","","",NA,"",NA,NA,NA,NA,NA,NA,NA,"",NA,"38"
"",NA,"",NA,"",NA,NA,NA,NA,NA,NA,"俺","i",1,1,"2024-09-01_22h31.34.002","IAT(Formal)","2021.2.3","Win32",19.81218053,NA,"",NA,"",NA,NA,NA,NA,NA,NA,NA,"","","",NA,"",NA,NA,NA,NA,NA,NA,NA,"","","",NA,NA,NA,NA,NA,NA,"",NA,"i",1,0.5699,0,2,2,4,1,"",NA,"",NA,NA,NA,NA,NA,NA,NA,"","","",NA,"",NA,NA,NA,NA,NA,NA,NA,"",NA,"38"
"",NA,"",NA,"",NA,NA,NA,NA,NA,NA,"我的","i",1,1,"2024-09-01_22h31.34.002","IAT(Formal)","2021.2.3","Win32",19.81218053,NA,"",NA,"",NA,NA,NA,NA,NA,NA,NA,"","","",NA,"",NA,NA,NA,NA,NA,NA,NA,"","","",NA,NA,NA,NA,NA,NA,"",NA,"i",1,0.5437,0,3,3,1,1,"",NA,"",NA,NA,NA,NA,NA,NA,NA,"","","",NA,"",NA,NA,NA,NA,NA,NA,NA,"",NA,"38"
"",NA,"",NA,"",NA,NA,NA,NA,NA,NA,"他","e",1,1,"2024-09-01_22h31.34.002","IAT(Formal)","2021.2.3","Win32",19.81218053,NA,"",NA,"",NA,NA,NA,NA,NA,NA,NA,"","","",NA,"",NA,NA,NA,NA,NA,NA,NA,"","","",NA,NA,NA,NA,NA,NA,"",NA,"e",1,0.6195,0,4,4,5,1,"",NA,"",NA,NA,NA,NA,NA,NA,NA,"","","",NA,"",NA,NA,NA,NA,NA,NA,NA,"",NA,"38"
"",NA,"",NA,"",NA,NA,NA,NA,NA,NA,"他人","e",1,1,"2024-09-01_22h31.34.002","IAT(Formal)","2021.2.3","Win32",19.81218053,NA,"",NA,"",NA,NA,NA,NA,NA,NA,NA,"","","",NA,"",NA,NA,NA,NA,NA,NA,NA,"","","",NA,NA,NA,NA,NA,NA,"",NA,"e",1,0.8432,0,5,5,8,1,"",NA,"",NA,NA,NA,NA,NA,NA,NA,"","","",NA,"",NA,NA,NA,NA,NA,NA,NA,"",NA,"38"
"",NA,"",NA,"",NA,NA,NA,NA,NA,NA,"他的","e",1,1,"2024-09-01_22h31.34.002","IAT(Formal)","2021.2.3","Win32",19.81218053,NA,"",NA,"",NA,NA,NA,NA,NA,NA,NA,"","","",NA,"",NA,NA,NA,NA,NA,NA,NA,"","","",NA,NA,NA,NA,NA,NA,"",NA,"e",1,0.4065,0,6,6,7,1,"",NA,"",NA,NA,NA,NA,NA,NA,NA,"","","",NA,"",NA,NA,NA,NA,NA,NA,NA,"",NA,"38"
"",NA,"",NA,"",NA,NA,NA,NA,NA,NA,"他们","e",1,1,"2024-09-01_22h31.34.002","IAT(Formal)","2021.2.3","Win32",19.81218053,NA,"",NA,"",NA,NA,NA,NA,NA,NA,NA,"","","",NA,"",NA,NA,NA,NA,NA,NA,NA,"","","",NA,NA,NA,NA,NA,NA,"",NA,"e",1,0.5257,0,7,7,6,1,"",NA,"",NA,NA,NA,NA,NA,NA,NA,"","","",NA,"",NA,NA,NA,NA,NA,NA,NA,"",NA,"38"
"",NA,"",NA,"",NA,NA,NA,NA,NA,NA,"我","i",1,1,"2024-09-01_22h31.34.002","IAT(Formal)","2021.2.3","Win32",19.81218053,NA,"",NA,"",NA,NA,NA,NA,NA,NA,NA,"","","",NA,"",NA,NA,NA,NA,NA,NA,NA,"","","",NA,NA,NA,NA,NA,NA,"",NA,"i",1,0.6764,0,8,8,0,1,"",NA,"",NA,NA,NA,NA,NA,NA,NA,"","","",NA,"",NA,NA,NA,NA,NA,NA,NA,"",NA,"38"
"",NA,"",NA,"",NA,NA,NA,NA,NA,NA,"其他","e",1,1,"2024-09-01_22h31.34.002","IAT(Formal)","2021.2.3","Win32",19.81218053,NA,"",NA,"",NA,NA,NA,NA,NA,NA,NA,"","","",NA,"",NA,NA,NA,NA,NA,NA,NA,"","","",NA,NA,NA,NA,NA,NA,"",NA,"e",1,0.7212,0,9,9,9,1,"",NA,"",NA,NA,NA,NA,NA,NA,NA,"","","",NA,"",NA,NA,NA,NA,NA,NA,NA,"",NA,"38"
"",NA,"",NA,"",NA,NA,NA,NA,NA,NA,"","",1,1,"2024-09-01_22h31.34.002","IAT(Formal)","2021.2.3","Win32",19.81218053,NA,"",NA,"",NA,NA,NA,NA,NA,NA,NA,"","","",NA,"",NA,NA,NA,NA,NA,NA,NA,"","","",NA,NA,NA,NA,NA,NA,"",NA,"",NA,NA,NA,NA,NA,NA,NA,"space",29.3174,"e",1,1.1347,0,0,0,27,1,"热情","e","",NA,"",NA,NA,NA,NA,NA,NA,NA,"",NA,"38"
"",NA,"",NA,"",NA,NA,NA,NA,NA,NA,"","",1,1,"2024-09-01_22h31.34.002","IAT(Formal)","2021.2.3","Win32",19.81218053,NA,"",NA,"",NA,NA,NA,NA,NA,NA,NA,"","","",NA,"",NA,NA,NA,NA,NA,NA,NA,"","","",NA,NA,NA,NA,NA,NA,"",NA,"",NA,NA,NA,NA,NA,NA,NA,"",NA,"e",1,0.7197,0,1,1,23,1,"公正","e","",NA,"",NA,NA,NA,NA,NA,NA,NA,"",NA,"38"
"",NA,"",NA,"",NA,NA,NA,NA,NA,NA,"","",1,1,"2024-09-01_22h31.34.002","IAT(Formal)","2021.2.3","Win32",19.81218053,NA,"",NA,"",NA,NA,NA,NA,NA,NA,NA,"","","",NA,"",NA,NA,NA,NA,NA,NA,NA,"","","",NA,NA,NA,NA,NA,NA,"",NA,"",NA,NA,NA,NA,NA,NA,NA,"",NA,"e",1,0.7821,0,2,2,57,1,"他的","e","",NA,"",NA,NA,NA,NA,NA,NA,NA,"",NA,"38"
"",NA,"",NA,"",NA,NA,NA,NA,NA,NA,"","",1,1,"2024-09-01_22h31.34.002","IAT(Formal)","2021.2.3","Win32",19.81218053,NA,"",NA,"",NA,NA,NA,NA,NA,NA,NA,"","","",NA,"",NA,NA,NA,NA,NA,NA,NA,"","","",NA,NA,NA,NA,NA,NA,"",NA,"",NA,NA,NA,NA,NA,NA,NA,"",NA,"i",1,0.7901,0,3,3,45,1,"猖狂","i","",NA,"",NA,NA,NA,NA,NA,NA,NA,"",NA,"38"
"",NA,"",NA,"",NA,NA,NA,NA,NA,NA,"","",1,1,"2024-09-01_22h31.34.002","IAT(Formal)","2021.2.3","Win32",19.81218053,NA,"",NA,"",NA,NA,NA,NA,NA,NA,NA,"","","",NA,"",NA,NA,NA,NA,NA,NA,NA,"","","",NA,NA,NA,NA,NA,NA,"",NA,"",NA,NA,NA,NA,NA,NA,NA,"",NA,"i",1,1.3172,0,4,4,48,1,"轻率","i","",NA,"",NA,NA,NA,NA,NA,NA,NA,"",NA,"38"
