"X.Instruction1.keys","Instruction1.rt","Instruction2.keys","Instruction2.rt","key_resp_iso.keys","key_resp_iso.corr","key_resp_iso.rt","Practice_01.thisRepN","Practice_01.thisTrialN","Practice_01.thisN","Practice_01.thisIndex","Practice_01.ran","Words","ans","participant","session","date","expName","psychopyVersion","OS","frameRate","key_resp_3.keys","key_resp_3.rt","key_resp_ipn.keys","key_resp_ipn.corr","key_resp_ipn.rt","Practice_02.thisRepN","Practice_02.thisTrialN","Practice_02.thisN","Practice_02.thisIndex","Practice_02.ran","Words_ipn","ans_ipn","key_resp_4.keys","key_resp_4.rt","key_resp_t1.keys","key_resp_t1.corr","key_resp_t1.rt","Practice_T1.thisRepN","Practice_T1.thisTrialN","Practice_T1.thisN","Practice_T1.thisIndex","Practice_T1.ran","Words_t1","ans_t1","key_resp_5.keys","key_resp_5.rt","Formal_T1.thisRepN","Formal_T1.thisTrialN","Formal_T1.thisN","Formal_T1.thisIndex","Formal_T1.ran","key_resp_6.keys","key_resp_6.rt","key_resp_iso_reverse.keys","key_resp_iso_reverse.corr","key_resp_iso_reverse.rt","Practice_iso_Reverse.thisRepN","Practice_iso_Reverse.thisTrialN","Practice_iso_Reverse.thisN","Practice_iso_Reverse.thisIndex","Practice_iso_Reverse.ran","key_resp_7.keys","key_resp_7.rt","key_resp_t2_Practice.keys","key_resp_t2_Practice.corr","key_resp_t2_Practice.rt","Practice_t2_Reverse.thisRepN","Practice_t2_Reverse.thisTrialN","Practice_t2_Reverse.thisN","Practice_t2_Reverse.thisIndex","Practice_t2_Reverse.ran","Words_t2","ans_t2","key_resp_8.keys","key_resp_8.rt","key_resp_t2.keys","key_resp_t2.corr","key_resp_t2.rt","Formal_t2_reverse.thisRepN","Formal_t2_reverse.thisTrialN","Formal_t2_reverse.thisN","Formal_t2_reverse.thisIndex","Formal_t2_reverse.ran","key_instruct.keys","key_instruct.rt","Subject"
"space",2.661,"space",8.0333,"i",1,1.3662,0,0,0,7,1,"他的","i",1,1,"2024-09-02_09h54.58.197","IAT(Formal)","2021.2.3","Win32",31.94888179,"",NA,"",NA,NA,NA,NA,NA,NA,NA,"","","",NA,"",NA,NA,NA,NA,NA,NA,NA,"","","",NA,NA,NA,NA,NA,NA,"",NA,"",NA,NA,NA,NA,NA,NA,NA,"",NA,"",NA,NA,NA,NA,NA,NA,NA,"","","",NA,"",NA,NA,NA,NA,NA,NA,NA,"",NA,"39"
"",NA,"",NA,"e",1,0.5743,0,1,1,1,1,"我的","e",1,1,"2024-09-02_09h54.58.197","IAT(Formal)","2021.2.3","Win32",31.94888179,"",NA,"",NA,NA,NA,NA,NA,NA,NA,"","","",NA,"",NA,NA,NA,NA,NA,NA,NA,"","","",NA,NA,NA,NA,NA,NA,"",NA,"",NA,NA,NA,NA,NA,NA,NA,"",NA,"",NA,NA,NA,NA,NA,NA,NA,"","","",NA,"",NA,NA,NA,NA,NA,NA,NA,"",NA,"39"
"",NA,"",NA,"e",1,0.7877,0,2,2,2,1,"我们","e",1,1,"2024-09-02_09h54.58.197","IAT(Formal)","2021.2.3","Win32",31.94888179,"",NA,"",NA,NA,NA,NA,NA,NA,NA,"","","",NA,"",NA,NA,NA,NA,NA,NA,NA,"","","",NA,NA,NA,NA,NA,NA,"",NA,"",NA,NA,NA,NA,NA,NA,NA,"",NA,"",NA,NA,NA,NA,NA,NA,NA,"","","",NA,"",NA,NA,NA,NA,NA,NA,NA,"",NA,"39"
"",NA,"",NA,"i",1,0.6616,0,3,3,6,1,"他们","i",1,1,"2024-09-02_09h54.58.197","IAT(Formal)","2021.2.3","Win32",31.94888179,"",NA,"",NA,NA,NA,NA,NA,NA,NA,"","","",NA,"",NA,NA,NA,NA,NA,NA,NA,"","","",NA,NA,NA,NA,NA,NA,"",NA,"",NA,NA,NA,NA,NA,NA,NA,"",NA,"",NA,NA,NA,NA,NA,NA,NA,"","","",NA,"",NA,NA,NA,NA,NA,NA,NA,"",NA,"39"
"",NA,"",NA,"i",1,1.313,0,4,4,9,1,"其他","i",1,1,"2024-09-02_09h54.58.197","IAT(Formal)","2021.2.3","Win32",31.94888179,"",NA,"",NA,NA,NA,NA,NA,NA,NA,"","","",NA,"",NA,NA,NA,NA,NA,NA,NA,"","","",NA,NA,NA,NA,NA,NA,"",NA,"",NA,NA,NA,NA,NA,NA,NA,"",NA,"",NA,NA,NA,NA,NA,NA,NA,"","","",NA,"",NA,NA,NA,NA,NA,NA,NA,"",NA,"39"
"",NA,"",NA,"e",1,0.5949,0,5,5,0,1,"我","e",1,1,"2024-09-02_09h54.58.197","IAT(Formal)","2021.2.3","Win32",31.94888179,"",NA,"",NA,NA,NA,NA,NA,NA,NA,"","","",NA,"",NA,NA,NA,NA,NA,NA,NA,"","","",NA,NA,NA,NA,NA,NA,"",NA,"",NA,NA,NA,NA,NA,NA,NA,"",NA,"",NA,NA,NA,NA,NA,NA,NA,"","","",NA,"",NA,NA,NA,NA,NA,NA,NA,"",NA,"39"
"",NA,"",NA,"e",1,0.7088,0,6,6,3,1,"自己","e",1,1,"2024-09-02_09h54.58.197","IAT(Formal)","2021.2.3","Win32",31.94888179,"",NA,"",NA,NA,NA,NA,NA,NA,NA,"","","",NA,"",NA,NA,NA,NA,NA,NA,NA,"","","",NA,NA,NA,NA,NA,NA,"",NA,"",NA,NA,NA,NA,NA,NA,NA,"",NA,"",NA,NA,NA,NA,NA,NA,NA,"","","",NA,"",NA,NA,NA,NA,NA,NA,NA,"",NA,"39"
"",NA,"",NA,"i",1,0.6469,0,7,7,8,1,"他人","i",1,1,"2024-09-02_09h54.58.197","IAT(Formal)","2021.2.3","Win32",31.94888179,"",NA,"",NA,NA,NA,NA,NA,NA,NA,"","","",NA,"",NA,NA,NA,NA,NA,NA,NA,"","","",NA,NA,NA,NA,NA,NA,"",NA,"",NA,NA,NA,NA,NA,NA,NA,"",NA,"",NA,NA,NA,NA,NA,NA,NA,"","","",NA,"",NA,NA,NA,NA,NA,NA,NA,"",NA,"39"
"",NA,"",NA,"e",1,0.7147,0,8,8,4,1,"俺","e",1,1,"2024-09-02_09h54.58.197","IAT(Formal)","2021.2.3","Win32",31.94888179,"",NA,"",NA,NA,NA,NA,NA,NA,NA,"","","",NA,"",NA,NA,NA,NA,NA,NA,NA,"","","",NA,NA,NA,NA,NA,NA,"",NA,"",NA,NA,NA,NA,NA,NA,NA,"",NA,"",NA,NA,NA,NA,NA,NA,NA,"","","",NA,"",NA,NA,NA,NA,NA,NA,NA,"",NA,"39"
"",NA,"",NA,"i",1,0.6336,0,9,9,5,1,"他","i",1,1,"2024-09-02_09h54.58.197","IAT(Formal)","2021.2.3","Win32",31.94888179,"",NA,"",NA,NA,NA,NA,NA,NA,NA,"","","",NA,"",NA,NA,NA,NA,NA,NA,NA,"","","",NA,NA,NA,NA,NA,NA,"",NA,"",NA,NA,NA,NA,NA,NA,NA,"",NA,"",NA,NA,NA,NA,NA,NA,NA,"","","",NA,"",NA,NA,NA,NA,NA,NA,NA,"",NA,"39"
"",NA,"",NA,"",NA,NA,NA,NA,NA,NA,NA,"","",1,1,"2024-09-02_09h54.58.197","IAT(Formal)","2021.2.3","Win32",31.94888179,"space",11.1156,"e",1,0.6083,0,0,0,3,1,"杰出","e","",NA,"",NA,NA,NA,NA,NA,NA,NA,"","","",NA,NA,NA,NA,NA,NA,"",NA,"",NA,NA,NA,NA,NA,NA,NA,"",NA,"",NA,NA,NA,NA,NA,NA,NA,"","","",NA,"",NA,NA,NA,NA,NA,NA,NA,"",NA,"39"
"",NA,"",NA,"",NA,NA,NA,NA,NA,NA,NA,"","",1,1,"2024-09-02_09h54.58.197","IAT(Formal)","2021.2.3","Win32",31.94888179,"",NA,"e",1,0.7322,0,1,1,10,1,"认真","e","",NA,"",NA,NA,NA,NA,NA,NA,NA,"","","",NA,NA,NA,NA,NA,NA,"",NA,"",NA,NA,NA,NA,NA,NA,NA,"",NA,"",NA,NA,NA,NA,NA,NA,NA,"","","",NA,"",NA,NA,NA,NA,NA,NA,NA,"",NA,"39"
"",NA,"",NA,"",NA,NA,NA,NA,NA,NA,NA,"","",1,1,"2024-09-02_09h54.58.197","IAT(Formal)","2021.2.3","Win32",31.94888179,"",NA,"i",1,0.776,0,2,2,35,1,"猖狂","i","",NA,"",NA,NA,NA,NA,NA,NA,NA,"","","",NA,NA,NA,NA,NA,NA,"",NA,"",NA,NA,NA,NA,NA,NA,NA,"",NA,"",NA,NA,NA,NA,NA,NA,NA,"","","",NA,"",NA,NA,NA,NA,NA,NA,NA,"",NA,"39"
"",NA,"",NA,"",NA,NA,NA,NA,NA,NA,NA,"","",1,1,"2024-09-02_09h54.58.197","IAT(Formal)","2021.2.3","Win32",31.94888179,"",NA,"i",1,0.6235,0,3,3,34,1,"暴躁","i","",NA,"",NA,NA,NA,NA,NA,NA,NA,"","","",NA,NA,NA,NA,NA,NA,"",NA,"",NA,NA,NA,NA,NA,NA,NA,"",NA,"",NA,NA,NA,NA,NA,NA,NA,"","","",NA,"",NA,NA,NA,NA,NA,NA,NA,"",NA,"39"
"",NA,"",NA,"",NA,NA,NA,NA,NA,NA,NA,"","",1,1,"2024-09-02_09h54.58.197","IAT(Formal)","2021.2.3","Win32",31.94888179,"",NA,"e",1,0.704,0,4,4,9,1,"机智","e","",NA,"",NA,NA,NA,NA,NA,NA,NA,"","","",NA,NA,NA,NA,NA,NA,"",NA,"",NA,NA,NA,NA,NA,NA,NA,"",NA,"",NA,NA,NA,NA,NA,NA,NA,"","","",NA,"",NA,NA,NA,NA,NA,NA,NA,"",NA,"39"
"",NA,"",NA,"",NA,NA,NA,NA,NA,NA,NA,"","",1,1,"2024-09-02_09h54.58.197","IAT(Formal)","2021.2.3","Win32",31.94888179,"",NA,"e",0,0.868,0,5,5,38,1,"轻率","i","",NA,"",NA,NA,NA,NA,NA,NA,NA,"","","",NA,NA,NA,NA,NA,NA,"",NA,"",NA,NA,NA,NA,NA,NA,NA,"",NA,"",NA,NA,NA,NA,NA,NA,NA,"","","",NA,"",NA,NA,NA,NA,NA,NA,NA,"",NA,"39"
"",NA,"",NA,"",NA,NA,NA,NA,NA,NA,NA,"","",1,1,"2024-09-02_09h54.58.197","IAT(Formal)","2021.2.3","Win32",31.94888179,"",NA,"i",1,0.6421,0,6,6,22,1,"愚蠢","i","",NA,"",NA,NA,NA,NA,NA,NA,NA,"","","",NA,NA,NA,NA,NA,NA,"",NA,"",NA,NA,NA,NA,NA,NA,NA,"",NA,"",NA,NA,NA,NA,NA,NA,NA,"","","",NA,"",NA,NA,NA,NA,NA,NA,NA,"",NA,"39"
"",NA,"",NA,"",NA,NA,NA,NA,NA,NA,NA,"","",1,1,"2024-09-02_09h54.58.197","IAT(Formal)","2021.2.3","Win32",31.94888179,"",NA,"e",1,0.756,0,7,7,8,1,"勤奋","e","",NA,"",NA,NA,NA,NA,NA,NA,NA,"","","",NA,NA,NA,NA,NA,NA,"",NA,"",NA,NA,NA,NA,NA,NA,NA,"",NA,"",NA,NA,NA,NA,NA,NA,NA,"","","",NA,"",NA,NA,NA,NA,NA,NA,NA,"",NA,"39"
"",NA,"",NA,"",NA,NA,NA,NA,NA,NA,NA,"","",1,1,"2024-09-02_09h54.58.197","IAT(Formal)","2021.2.3","Win32",31.94888179,"",NA,"e",1,0.605,0,8,8,0,1,"优秀","e","",NA,"",NA,NA,NA,NA,NA,NA,NA,"","","",NA,NA,NA,NA,NA,NA,"",NA,"",NA,NA,NA,NA,NA,NA,NA,"",NA,"",NA,NA,NA,NA,NA,NA,NA,"","","",NA,"",NA,NA,NA,NA,NA,NA,NA,"",NA,"39"
"",NA,"",NA,"",NA,NA,NA,NA,NA,NA,NA,"","",1,1,"2024-09-02_09h54.58.197","IAT(Formal)","2021.2.3","Win32",31.94888179,"",NA,"i",1,0.7123,0,9,9,21,1,"虚伪","i","",NA,"",NA,NA,NA,NA,NA,NA,NA,"","","",NA,NA,NA,NA,NA,NA,"",NA,"",NA,NA,NA,NA,NA,NA,NA,"",NA,"",NA,NA,NA,NA,NA,NA,NA,"","","",NA,"",NA,NA,NA,NA,NA,NA,NA,"",NA,"39"
"",NA,"",NA,"",NA,NA,NA,NA,NA,NA,NA,"","",1,1,"2024-09-02_09h54.58.197","IAT(Formal)","2021.2.3","Win32",31.94888179,"",NA,"i",1,0.7864,0,10,10,26,1,"自卑","i","",NA,"",NA,NA,NA,NA,NA,NA,NA,"","","",NA,NA,NA,NA,NA,NA,"",NA,"",NA,NA,NA,NA,NA,NA,NA,"",NA,"",NA,NA,NA,NA,NA,NA,NA,"","","",NA,"",NA,NA,NA,NA,NA,NA,NA,"",NA,"39"
"",NA,"",NA,"",NA,NA,NA,NA,NA,NA,NA,"","",1,1,"2024-09-02_09h54.58.197","IAT(Formal)","2021.2.3","Win32",31.94888179,"",NA,"i",0,0.7547,0,11,11,12,1,"无私","e","",NA,"",NA,NA,NA,NA,NA,NA,NA,"","","",NA,NA,NA,NA,NA,NA,"",NA,"",NA,NA,NA,NA,NA,NA,NA,"",NA,"",NA,NA,NA,NA,NA,NA,NA,"","","",NA,"",NA,NA,NA,NA,NA,NA,NA,"",NA,"39"
"",NA,"",NA,"",NA,NA,NA,NA,NA,NA,NA,"","",1,1,"2024-09-02_09h54.58.197","IAT(Formal)","2021.2.3","Win32",31.94888179,"",NA,"e",1,0.6835,0,12,12,7,1,"勇敢","e","",NA,"",NA,NA,NA,NA,NA,NA,NA,"","","",NA,NA,NA,NA,NA,NA,"",NA,"",NA,NA,NA,NA,NA,NA,NA,"",NA,"",NA,NA,NA,NA,NA,NA,NA,"","","",NA,"",NA,NA,NA,NA,NA,NA,NA,"",NA,"39"
"",NA,"",NA,"",NA,NA,NA,NA,NA,NA,NA,"","",1,1,"2024-09-02_09h54.58.197","IAT(Formal)","2021.2.3","Win32",31.94888179,"",NA,"i",1,0.692,0,13,13,37,1,"固执","i","",NA,"",NA,NA,NA,NA,NA,NA,NA,"","","",NA,NA,NA,NA,NA,NA,"",NA,"",NA,NA,NA,NA,NA,NA,NA,"",NA,"",NA,NA,NA,NA,NA,NA,NA,"","","",NA,"",NA,NA,NA,NA,NA,NA,NA,"",NA,"39"
"",NA,"",NA,"",NA,NA,NA,NA,NA,NA,NA,"","",1,1,"2024-09-02_09h54.58.197","IAT(Formal)","2021.2.3","Win32",31.94888179,"",NA,"e",1,0.641,0,14,14,4,1,"乐观","e","",NA,"",NA,NA,NA,NA,NA,NA,NA,"","","",NA,NA,NA,NA,NA,NA,"",NA,"",NA,NA,NA,NA,NA,NA,NA,"",NA,"",NA,NA,NA,NA,NA,NA,NA,"","","",NA,"",NA,NA,NA,NA,NA,NA,NA,"",NA,"39"
"",NA,"",NA,"",NA,NA,NA,NA,NA,NA,NA,"","",1,1,"2024-09-02_09h54.58.197","IAT(Formal)","2021.2.3","Win32",31.94888179,"",NA,"e",1,0.691,0,15,15,19,1,"诚恳","e","",NA,"",NA,NA,NA,NA,NA,NA,NA,"","","",NA,NA,NA,NA,NA,NA,"",NA,"",NA,NA,NA,NA,NA,NA,NA,"",NA,"",NA,NA,NA,NA,NA,NA,NA,"","","",NA,"",NA,NA,NA,NA,NA,NA,NA,"",NA,"39"
"",NA,"",NA,"",NA,NA,NA,NA,NA,NA,NA,"","",1,1,"2024-09-02_09h54.58.197","IAT(Formal)","2021.2.3","Win32",31.94888179,"",NA,"i",1,0.8722,0,16,16,30,1,"执拗","i","",NA,"",NA,NA,NA,NA,NA,NA,NA,"","","",NA,NA,NA,NA,NA,NA,"",NA,"",NA,NA,NA,NA,NA,NA,NA,"",NA,"",NA,NA,NA,NA,NA,NA,NA,"","","",NA,"",NA,NA,NA,NA,NA,NA,NA,"",NA,"39"
"",NA,"",NA,"",NA,NA,NA,NA,NA,NA,NA,"","",1,1,"2024-09-02_09h54.58.197","IAT(Formal)","2021.2.3","Win32",31.94888179,"",NA,"i",1,0.6651,0,17,17,32,1,"凶狠","i","",NA,"",NA,NA,NA,NA,NA,NA,NA,"","","",NA,NA,NA,NA,NA,NA,"",NA,"",NA,NA,NA,NA,NA,NA,NA,"",NA,"",NA,NA,NA,NA,NA,NA,NA,"","","",NA,"",NA,NA,NA,NA,NA,NA,NA,"",NA,"39"
"",NA,"",NA,"",NA,NA,NA,NA,NA,NA,NA,"","",1,1,"2024-09-02_09h54.58.197","IAT(Formal)","2021.2.3","Win32",31.94888179,"",NA,"e",1,1.374,0,18,18,14,1,"朴实","e","",NA,"",NA,NA,NA,NA,NA,NA,NA,"","","",NA,NA,NA,NA,NA,NA,"",NA,"",NA,NA,NA,NA,NA,NA,NA,"",NA,"",NA,NA,NA,NA,NA,NA,NA,"","","",NA,"",NA,NA,NA,NA,NA,NA,NA,"",NA,"39"
"",NA,"",NA,"",NA,NA,NA,NA,NA,NA,NA,"","",1,1,"2024-09-02_09h54.58.197","IAT(Formal)","2021.2.3","Win32",31.94888179,"",NA,"e",1,0.595,0,19,19,5,1,"诚实","e","",NA,"",NA,NA,NA,NA,NA,NA,NA,"","","",NA,NA,NA,NA,NA,NA,"",NA,"",NA,NA,NA,NA,NA,NA,NA,"",NA,"",NA,NA,NA,NA,NA,NA,NA,"","","",NA,"",NA,NA,NA,NA,NA,NA,NA,"",NA,"39"
"",NA,"",NA,"",NA,NA,NA,NA,NA,NA,NA,"","",1,1,"2024-09-02_09h54.58.197","IAT(Formal)","2021.2.3","Win32",31.94888179,"",NA,"e",1,0.7231,0,20,20,18,1,"活泼","e","",NA,"",NA,NA,NA,NA,NA,NA,NA,"","","",NA,NA,NA,NA,NA,NA,"",NA,"",NA,NA,NA,NA,NA,NA,NA,"",NA,"",NA,NA,NA,NA,NA,NA,NA,"","","",NA,"",NA,NA,NA,NA,NA,NA,NA,"",NA,"39"
"",NA,"",NA,"",NA,NA,NA,NA,NA,NA,NA,"","",1,1,"2024-09-02_09h54.58.197","IAT(Formal)","2021.2.3","Win32",31.94888179,"",NA,"i",1,0.7249,0,21,21,33,1,"自私","i","",NA,"",NA,NA,NA,NA,NA,NA,NA,"","","",NA,NA,NA,NA,NA,NA,"",NA,"",NA,NA,NA,NA,NA,NA,NA,"",NA,"",NA,NA,NA,NA,NA,NA,NA,"","","",NA,"",NA,NA,NA,NA,NA,NA,NA,"",NA,"39"
"",NA,"",NA,"",NA,NA,NA,NA,NA,NA,NA,"","",1,1,"2024-09-02_09h54.58.197","IAT(Formal)","2021.2.3","Win32",31.94888179,"",NA,"i",1,0.8071,0,22,22,28,1,"鲁莽","i","",NA,"",NA,NA,NA,NA,NA,NA,NA,"","","",NA,NA,NA,NA,NA,NA,"",NA,"",NA,NA,NA,NA,NA,NA,NA,"",NA,"",NA,NA,NA,NA,NA,NA,NA,"","","",NA,"",NA,NA,NA,NA,NA,NA,NA,"",NA,"39"
"",NA,"",NA,"",NA,NA,NA,NA,NA,NA,NA,"","",1,1,"2024-09-02_09h54.58.197","IAT(Formal)","2021.2.3","Win32",31.94888179,"",NA,"i",1,0.5574,0,23,23,36,1,"野蛮","i","",NA,"",NA,NA,NA,NA,NA,NA,NA,"","","",NA,NA,NA,NA,NA,NA,"",NA,"",NA,NA,NA,NA,NA,NA,NA,"",NA,"",NA,NA,NA,NA,NA,NA,NA,"","","",NA,"",NA,NA,NA,NA,NA,NA,NA,"",NA,"39"
"",NA,"",NA,"",NA,NA,NA,NA,NA,NA,NA,"","",1,1,"2024-09-02_09h54.58.197","IAT(Formal)","2021.2.3","Win32",31.94888179,"",NA,"e",1,0.7633,0,24,24,2,1,"聪明","e","",NA,"",NA,NA,NA,NA,NA,NA,NA,"","","",NA,NA,NA,NA,NA,NA,"",NA,"",NA,NA,NA,NA,NA,NA,NA,"",NA,"",NA,NA,NA,NA,NA,NA,NA,"","","",NA,"",NA,NA,NA,NA,NA,NA,NA,"",NA,"39"
"",NA,"",NA,"",NA,NA,NA,NA,NA,NA,NA,"","",1,1,"2024-09-02_09h54.58.197","IAT(Formal)","2021.2.3","Win32",31.94888179,"",NA,"i",1,0.7684,0,25,25,39,1,"下贱","i","",NA,"",NA,NA,NA,NA,NA,NA,NA,"","","",NA,NA,NA,NA,NA,NA,"",NA,"",NA,NA,NA,NA,NA,NA,NA,"",NA,"",NA,NA,NA,NA,NA,NA,NA,"","","",NA,"",NA,NA,NA,NA,NA,NA,NA,"",NA,"39"
"",NA,"",NA,"",NA,NA,NA,NA,NA,NA,NA,"","",1,1,"2024-09-02_09h54.58.197","IAT(Formal)","2021.2.3","Win32",31.94888179,"",NA,"i",1,0.8624,0,26,26,27,1,"傲慢","i","",NA,"",NA,NA,NA,NA,NA,NA,NA,"","","",NA,NA,NA,NA,NA,NA,"",NA,"",NA,NA,NA,NA,NA,NA,NA,"",NA,"",NA,NA,NA,NA,NA,NA,NA,"","","",NA,"",NA,NA,NA,NA,NA,NA,NA,"",NA,"39"
"",NA,"",NA,"",NA,NA,NA,NA,NA,NA,NA,"","",1,1,"2024-09-02_09h54.58.197","IAT(Formal)","2021.2.3","Win32",31.94888179,"",NA,"e",1,0.635,0,27,27,6,1,"正直","e","",NA,"",NA,NA,NA,NA,NA,NA,NA,"","","",NA,NA,NA,NA,NA,NA,"",NA,"",NA,NA,NA,NA,NA,NA,NA,"",NA,"",NA,NA,NA,NA,NA,NA,NA,"","","",NA,"",NA,NA,NA,NA,NA,NA,NA,"",NA,"39"
"",NA,"",NA,"",NA,NA,NA,NA,NA,NA,NA,"","",1,1,"2024-09-02_09h54.58.197","IAT(Formal)","2021.2.3","Win32",31.94888179,"",NA,"i",1,0.6776,0,28,28,23,1,"刻薄","i","",NA,"",NA,NA,NA,NA,NA,NA,NA,"","","",NA,NA,NA,NA,NA,NA,"",NA,"",NA,NA,NA,NA,NA,NA,NA,"",NA,"",NA,NA,NA,NA,NA,NA,NA,"","","",NA,"",NA,NA,NA,NA,NA,NA,NA,"",NA,"39"
"",NA,"",NA,"",NA,NA,NA,NA,NA,NA,NA,"","",1,1,"2024-09-02_09h54.58.197","IAT(Formal)","2021.2.3","Win32",31.94888179,"",NA,"i",1,0.9593,0,29,29,29,1,"冒失","i","",NA,"",NA,NA,NA,NA,NA,NA,NA,"","","",NA,NA,NA,NA,NA,NA,"",NA,"",NA,NA,NA,NA,NA,NA,NA,"",NA,"",NA,NA,NA,NA,NA,NA,NA,"","","",NA,"",NA,NA,NA,NA,NA,NA,NA,"",NA,"39"
"",NA,"",NA,"",NA,NA,NA,NA,NA,NA,NA,"","",1,1,"2024-09-02_09h54.58.197","IAT(Formal)","2021.2.3","Win32",31.94888179,"",NA,"e",1,1.0475,0,30,30,16,1,"冷静","e","",NA,"",NA,NA,NA,NA,NA,NA,NA,"","","",NA,NA,NA,NA,NA,NA,"",NA,"",NA,NA,NA,NA,NA,NA,NA,"",NA,"",NA,NA,NA,NA,NA,NA,NA,"","","",NA,"",NA,NA,NA,NA,NA,NA,NA,"",NA,"39"
"",NA,"",NA,"",NA,NA,NA,NA,NA,NA,NA,"","",1,1,"2024-09-02_09h54.58.197","IAT(Formal)","2021.2.3","Win32",31.94888179,"",NA,"e",1,0.6759,0,31,31,17,1,"热情","e","",NA,"",NA,NA,NA,NA,NA,NA,NA,"","","",NA,NA,NA,NA,NA,NA,"",NA,"",NA,NA,NA,NA,NA,NA,NA,"",NA,"",NA,NA,NA,NA,NA,NA,NA,"","","",NA,"",NA,NA,NA,NA,NA,NA,NA,"",NA,"39"
"",NA,"",NA,"",NA,NA,NA,NA,NA,NA,NA,"","",1,1,"2024-09-02_09h54.58.197","IAT(Formal)","2021.2.3","Win32",31.94888179,"",NA,"i",1,0.7315,0,32,32,20,1,"卑鄙","i","",NA,"",NA,NA,NA,NA,NA,NA,NA,"","","",NA,NA,NA,NA,NA,NA,"",NA,"",NA,NA,NA,NA,NA,NA,NA,"",NA,"",NA,NA,NA,NA,NA,NA,NA,"","","",NA,"",NA,NA,NA,NA,NA,NA,NA,"",NA,"39"
"",NA,"",NA,"",NA,NA,NA,NA,NA,NA,NA,"","",1,1,"2024-09-02_09h54.58.197","IAT(Formal)","2021.2.3","Win32",31.94888179,"",NA,"e",1,0.6579,0,33,33,1,1,"崇高","e","",NA,"",NA,NA,NA,NA,NA,NA,NA,"","","",NA,NA,NA,NA,NA,NA,"",NA,"",NA,NA,NA,NA,NA,NA,NA,"",NA,"",NA,NA,NA,NA,NA,NA,NA,"","","",NA,"",NA,NA,NA,NA,NA,NA,NA,"",NA,"39"
"",NA,"",NA,"",NA,NA,NA,NA,NA,NA,NA,"","",1,1,"2024-09-02_09h54.58.197","IAT(Formal)","2021.2.3","Win32",31.94888179,"",NA,"e",1,0.5783,0,34,34,13,1,"公正","e","",NA,"",NA,NA,NA,NA,NA,NA,NA,"","","",NA,NA,NA,NA,NA,NA,"",NA,"",NA,NA,NA,NA,NA,NA,NA,"",NA,"",NA,NA,NA,NA,NA,NA,NA,"","","",NA,"",NA,NA,NA,NA,NA,NA,NA,"",NA,"39"
"",NA,"",NA,"",NA,NA,NA,NA,NA,NA,NA,"","",1,1,"2024-09-02_09h54.58.197","IAT(Formal)","2021.2.3","Win32",31.94888179,"",NA,"e",1,0.6526,0,35,35,11,1,"稳重","e","",NA,"",NA,NA,NA,NA,NA,NA,NA,"","","",NA,NA,NA,NA,NA,NA,"",NA,"",NA,NA,NA,NA,NA,NA,NA,"",NA,"",NA,NA,NA,NA,NA,NA,NA,"","","",NA,"",NA,NA,NA,NA,NA,NA,NA,"",NA,"39"
"",NA,"",NA,"",NA,NA,NA,NA,NA,NA,NA,"","",1,1,"2024-09-02_09h54.58.197","IAT(Formal)","2021.2.3","Win32",31.94888179,"",NA,"e",1,0.8388,0,36,36,15,1,"细腻","e","",NA,"",NA,NA,NA,NA,NA,NA,NA,"","","",NA,NA,NA,NA,NA,NA,"",NA,"",NA,NA,NA,NA,NA,NA,NA,"",NA,"",NA,NA,NA,NA,NA,NA,NA,"","","",NA,"",NA,NA,NA,NA,NA,NA,NA,"",NA,"39"
"",NA,"",NA,"",NA,NA,NA,NA,NA,NA,NA,"","",1,1,"2024-09-02_09h54.58.197","IAT(Formal)","2021.2.3","Win32",31.94888179,"",NA,"i",1,0.6156,0,37,37,25,1,"消极","i","",NA,"",NA,NA,NA,NA,NA,NA,NA,"","","",NA,NA,NA,NA,NA,NA,"",NA,"",NA,NA,NA,NA,NA,NA,NA,"",NA,"",NA,NA,NA,NA,NA,NA,NA,"","","",NA,"",NA,NA,NA,NA,NA,NA,NA,"",NA,"39"
"",NA,"",NA,"",NA,NA,NA,NA,NA,NA,NA,"","",1,1,"2024-09-02_09h54.58.197","IAT(Formal)","2021.2.3","Win32",31.94888179,"",NA,"e",0,0.8323,0,38,38,31,1,"散漫","i","",NA,"",NA,NA,NA,NA,NA,NA,NA,"","","",NA,NA,NA,NA,NA,NA,"",NA,"",NA,NA,NA,NA,NA,NA,NA,"",NA,"",NA,NA,NA,NA,NA,NA,NA,"","","",NA,"",NA,NA,NA,NA,NA,NA,NA,"",NA,"39"
"",NA,"",NA,"",NA,NA,NA,NA,NA,NA,NA,"","",1,1,"2024-09-02_09h54.58.197","IAT(Formal)","2021.2.3","Win32",31.94888179,"",NA,"i",1,0.8203,0,39,39,24,1,"悲观","i","",NA,"",NA,NA,NA,NA,NA,NA,NA,"","","",NA,NA,NA,NA,NA,NA,"",NA,"",NA,NA,NA,NA,NA,NA,NA,"",NA,"",NA,NA,NA,NA,NA,NA,NA,"","","",NA,"",NA,NA,NA,NA,NA,NA,NA,"",NA,"39"
"",NA,"",NA,"",NA,NA,NA,NA,NA,NA,NA,"","",1,1,"2024-09-02_09h54.58.197","IAT(Formal)","2021.2.3","Win32",31.94888179,"",NA,"",NA,NA,NA,NA,NA,NA,NA,"","","space",275.9254,"e",1,0.801,0,0,0,4,1,"俺","e","",NA,NA,NA,NA,NA,NA,"",NA,"",NA,NA,NA,NA,NA,NA,NA,"",NA,"",NA,NA,NA,NA,NA,NA,NA,"","","",NA,"",NA,NA,NA,NA,NA,NA,NA,"",NA,"39"
"",NA,"",NA,"",NA,NA,NA,NA,NA,NA,NA,"","",1,1,"2024-09-02_09h54.58.197","IAT(Formal)","2021.2.3","Win32",31.94888179,"",NA,"",NA,NA,NA,NA,NA,NA,NA,"","","",NA,"i",1,0.9421,0,1,1,79,1,"其他","i","",NA,NA,NA,NA,NA,NA,"",NA,"",NA,NA,NA,NA,NA,NA,NA,"",NA,"",NA,NA,NA,NA,NA,NA,NA,"","","",NA,"",NA,NA,NA,NA,NA,NA,NA,"",NA,"39"
"",NA,"",NA,"",NA,NA,NA,NA,NA,NA,NA,"","",1,1,"2024-09-02_09h54.58.197","IAT(Formal)","2021.2.3","Win32",31.94888179,"",NA,"",NA,NA,NA,NA,NA,NA,NA,"","","",NA,"e",1,0.6677,0,2,2,50,1,"我","e","",NA,NA,NA,NA,NA,NA,"",NA,"",NA,NA,NA,NA,NA,NA,NA,"",NA,"",NA,NA,NA,NA,NA,NA,NA,"","","",NA,"",NA,NA,NA,NA,NA,NA,NA,"",NA,"39"
"",NA,"",NA,"",NA,NA,NA,NA,NA,NA,NA,"","",1,1,"2024-09-02_09h54.58.197","IAT(Formal)","2021.2.3","Win32",31.94888179,"",NA,"",NA,NA,NA,NA,NA,NA,NA,"","","",NA,"i",1,0.6659,0,3,3,30,1,"卑鄙","i","",NA,NA,NA,NA,NA,NA,"",NA,"",NA,NA,NA,NA,NA,NA,NA,"",NA,"",NA,NA,NA,NA,NA,NA,NA,"","","",NA,"",NA,NA,NA,NA,NA,NA,NA,"",NA,"39"
"",NA,"",NA,"",NA,NA,NA,NA,NA,NA,NA,"","",1,1,"2024-09-02_09h54.58.197","IAT(Formal)","2021.2.3","Win32",31.94888179,"",NA,"",NA,NA,NA,NA,NA,NA,NA,"","","",NA,"e",1,0.8243,0,4,4,16,1,"正直","e","",NA,NA,NA,NA,NA,NA,"",NA,"",NA,NA,NA,NA,NA,NA,NA,"",NA,"",NA,NA,NA,NA,NA,NA,NA,"","","",NA,"",NA,NA,NA,NA,NA,NA,NA,"",NA,"39"
"",NA,"",NA,"",NA,NA,NA,NA,NA,NA,NA,"","",1,1,"2024-09-02_09h54.58.197","IAT(Formal)","2021.2.3","Win32",31.94888179,"",NA,"",NA,NA,NA,NA,NA,NA,NA,"","","",NA,"i",1,0.6451,0,5,5,43,1,"自私","i","",NA,NA,NA,NA,NA,NA,"",NA,"",NA,NA,NA,NA,NA,NA,NA,"",NA,"",NA,NA,NA,NA,NA,NA,NA,"","","",NA,"",NA,NA,NA,NA,NA,NA,NA,"",NA,"39"
"",NA,"",NA,"",NA,NA,NA,NA,NA,NA,NA,"","",1,1,"2024-09-02_09h54.58.197","IAT(Formal)","2021.2.3","Win32",31.94888179,"",NA,"",NA,NA,NA,NA,NA,NA,NA,"","","",NA,"i",1,0.6169,0,6,6,58,1,"他人","i","",NA,NA,NA,NA,NA,NA,"",NA,"",NA,NA,NA,NA,NA,NA,NA,"",NA,"",NA,NA,NA,NA,NA,NA,NA,"","","",NA,"",NA,NA,NA,NA,NA,NA,NA,"",NA,"39"
"",NA,"",NA,"",NA,NA,NA,NA,NA,NA,NA,"","",1,1,"2024-09-02_09h54.58.197","IAT(Formal)","2021.2.3","Win32",31.94888179,"",NA,"",NA,NA,NA,NA,NA,NA,NA,"","","",NA,"i",1,0.6356,0,7,7,42,1,"凶狠","i","",NA,NA,NA,NA,NA,NA,"",NA,"",NA,NA,NA,NA,NA,NA,NA,"",NA,"",NA,NA,NA,NA,NA,NA,NA,"","","",NA,"",NA,NA,NA,NA,NA,NA,NA,"",NA,"39"
"",NA,"",NA,"",NA,NA,NA,NA,NA,NA,NA,"","",1,1,"2024-09-02_09h54.58.197","IAT(Formal)","2021.2.3","Win32",31.94888179,"",NA,"",NA,NA,NA,NA,NA,NA,NA,"","","",NA,"i",1,0.6934,0,8,8,65,1,"他","i","",NA,NA,NA,NA,NA,NA,"",NA,"",NA,NA,NA,NA,NA,NA,NA,"",NA,"",NA,NA,NA,NA,NA,NA,NA,"","","",NA,"",NA,NA,NA,NA,NA,NA,NA,"",NA,"39"
"",NA,"",NA,"",NA,NA,NA,NA,NA,NA,NA,"","",1,1,"2024-09-02_09h54.58.197","IAT(Formal)","2021.2.3","Win32",31.94888179,"",NA,"",NA,NA,NA,NA,NA,NA,NA,"","","",NA,"i",1,0.6298,0,9,9,37,1,"傲慢","i","",NA,NA,NA,NA,NA,NA,"",NA,"",NA,NA,NA,NA,NA,NA,NA,"",NA,"",NA,NA,NA,NA,NA,NA,NA,"","","",NA,"",NA,NA,NA,NA,NA,NA,NA,"",NA,"39"
"",NA,"",NA,"",NA,NA,NA,NA,NA,NA,NA,"","",1,1,"2024-09-02_09h54.58.197","IAT(Formal)","2021.2.3","Win32",31.94888179,"",NA,"",NA,NA,NA,NA,NA,NA,NA,"","","",NA,"e",1,0.8084,0,10,10,2,1,"我们","e","",NA,NA,NA,NA,NA,NA,"",NA,"",NA,NA,NA,NA,NA,NA,NA,"",NA,"",NA,NA,NA,NA,NA,NA,NA,"","","",NA,"",NA,NA,NA,NA,NA,NA,NA,"",NA,"39"
"",NA,"",NA,"",NA,NA,NA,NA,NA,NA,NA,"","",1,1,"2024-09-02_09h54.58.197","IAT(Formal)","2021.2.3","Win32",31.94888179,"",NA,"",NA,NA,NA,NA,NA,NA,NA,"","","",NA,"e",1,0.6818,0,11,11,60,1,"我","e","",NA,NA,NA,NA,NA,NA,"",NA,"",NA,NA,NA,NA,NA,NA,NA,"",NA,"",NA,NA,NA,NA,NA,NA,NA,"","","",NA,"",NA,NA,NA,NA,NA,NA,NA,"",NA,"39"
"",NA,"",NA,"",NA,NA,NA,NA,NA,NA,NA,"","",1,1,"2024-09-02_09h54.58.197","IAT(Formal)","2021.2.3","Win32",31.94888179,"",NA,"",NA,NA,NA,NA,NA,NA,NA,"","","",NA,"e",1,0.4976,0,12,12,0,1,"我","e","",NA,NA,NA,NA,NA,NA,"",NA,"",NA,NA,NA,NA,NA,NA,NA,"",NA,"",NA,NA,NA,NA,NA,NA,NA,"","","",NA,"",NA,NA,NA,NA,NA,NA,NA,"",NA,"39"
"",NA,"",NA,"",NA,NA,NA,NA,NA,NA,NA,"","",1,1,"2024-09-02_09h54.58.197","IAT(Formal)","2021.2.3","Win32",31.94888179,"",NA,"",NA,NA,NA,NA,NA,NA,NA,"","","",NA,"i",1,0.5869,0,13,13,49,1,"下贱","i","",NA,NA,NA,NA,NA,NA,"",NA,"",NA,NA,NA,NA,NA,NA,NA,"",NA,"",NA,NA,NA,NA,NA,NA,NA,"","","",NA,"",NA,NA,NA,NA,NA,NA,NA,"",NA,"39"
"",NA,"",NA,"",NA,NA,NA,NA,NA,NA,NA,"","",1,1,"2024-09-02_09h54.58.197","IAT(Formal)","2021.2.3","Win32",31.94888179,"",NA,"",NA,NA,NA,NA,NA,NA,NA,"","","",NA,"e",1,0.5489,0,14,14,71,1,"我的","e","",NA,NA,NA,NA,NA,NA,"",NA,"",NA,NA,NA,NA,NA,NA,NA,"",NA,"",NA,NA,NA,NA,NA,NA,NA,"","","",NA,"",NA,NA,NA,NA,NA,NA,NA,"",NA,"39"
"",NA,"",NA,"",NA,NA,NA,NA,NA,NA,NA,"","",1,1,"2024-09-02_09h54.58.197","IAT(Formal)","2021.2.3","Win32",31.94888179,"",NA,"",NA,NA,NA,NA,NA,NA,NA,"","","",NA,"e",1,0.728,0,15,15,64,1,"俺","e","",NA,NA,NA,NA,NA,NA,"",NA,"",NA,NA,NA,NA,NA,NA,NA,"",NA,"",NA,NA,NA,NA,NA,NA,NA,"","","",NA,"",NA,NA,NA,NA,NA,NA,NA,"",NA,"39"
"",NA,"",NA,"",NA,NA,NA,NA,NA,NA,NA,"","",1,1,"2024-09-02_09h54.58.197","IAT(Formal)","2021.2.3","Win32",31.94888179,"",NA,"",NA,NA,NA,NA,NA,NA,NA,"","","",NA,"e",1,0.6784,0,16,16,3,1,"自己","e","",NA,NA,NA,NA,NA,NA,"",NA,"",NA,NA,NA,NA,NA,NA,NA,"",NA,"",NA,NA,NA,NA,NA,NA,NA,"","","",NA,"",NA,NA,NA,NA,NA,NA,NA,"",NA,"39"
"",NA,"",NA,"",NA,NA,NA,NA,NA,NA,NA,"","",1,1,"2024-09-02_09h54.58.197","IAT(Formal)","2021.2.3","Win32",31.94888179,"",NA,"",NA,NA,NA,NA,NA,NA,NA,"","","",NA,"e",1,0.6384,0,17,17,13,1,"杰出","e","",NA,NA,NA,NA,NA,NA,"",NA,"",NA,NA,NA,NA,NA,NA,NA,"",NA,"",NA,NA,NA,NA,NA,NA,NA,"","","",NA,"",NA,NA,NA,NA,NA,NA,NA,"",NA,"39"
"",NA,"",NA,"",NA,NA,NA,NA,NA,NA,NA,"","",1,1,"2024-09-02_09h54.58.197","IAT(Formal)","2021.2.3","Win32",31.94888179,"",NA,"",NA,NA,NA,NA,NA,NA,NA,"","","",NA,"i",1,0.6183,0,18,18,38,1,"鲁莽","i","",NA,NA,NA,NA,NA,NA,"",NA,"",NA,NA,NA,NA,NA,NA,NA,"",NA,"",NA,NA,NA,NA,NA,NA,NA,"","","",NA,"",NA,NA,NA,NA,NA,NA,NA,"",NA,"39"
"",NA,"",NA,"",NA,NA,NA,NA,NA,NA,NA,"","",1,1,"2024-09-02_09h54.58.197","IAT(Formal)","2021.2.3","Win32",31.94888179,"",NA,"",NA,NA,NA,NA,NA,NA,NA,"","","",NA,"i",1,0.7618,0,19,19,76,1,"他们","i","",NA,NA,NA,NA,NA,NA,"",NA,"",NA,NA,NA,NA,NA,NA,NA,"",NA,"",NA,NA,NA,NA,NA,NA,NA,"","","",NA,"",NA,NA,NA,NA,NA,NA,NA,"",NA,"39"
"",NA,"",NA,"",NA,NA,NA,NA,NA,NA,NA,"","",1,1,"2024-09-02_09h54.58.197","IAT(Formal)","2021.2.3","Win32",31.94888179,"",NA,"",NA,NA,NA,NA,NA,NA,NA,"","","",NA,"e",1,0.7646,0,20,20,18,1,"勤奋","e","",NA,NA,NA,NA,NA,NA,"",NA,"",NA,NA,NA,NA,NA,NA,NA,"",NA,"",NA,NA,NA,NA,NA,NA,NA,"","","",NA,"",NA,NA,NA,NA,NA,NA,NA,"",NA,"39"
"",NA,"",NA,"",NA,NA,NA,NA,NA,NA,NA,"","",1,1,"2024-09-02_09h54.58.197","IAT(Formal)","2021.2.3","Win32",31.94888179,"",NA,"",NA,NA,NA,NA,NA,NA,NA,"","","",NA,"i",1,0.8262,0,21,21,67,1,"他的","i","",NA,NA,NA,NA,NA,NA,"",NA,"",NA,NA,NA,NA,NA,NA,NA,"",NA,"",NA,NA,NA,NA,NA,NA,NA,"","","",NA,"",NA,NA,NA,NA,NA,NA,NA,"",NA,"39"
"",NA,"",NA,"",NA,NA,NA,NA,NA,NA,NA,"","",1,1,"2024-09-02_09h54.58.197","IAT(Formal)","2021.2.3","Win32",31.94888179,"",NA,"",NA,NA,NA,NA,NA,NA,NA,"","","",NA,"i",1,1.2801,0,22,22,78,1,"他人","i","",NA,NA,NA,NA,NA,NA,"",NA,"",NA,NA,NA,NA,NA,NA,NA,"",NA,"",NA,NA,NA,NA,NA,NA,NA,"","","",NA,"",NA,NA,NA,NA,NA,NA,NA,"",NA,"39"
"",NA,"",NA,"",NA,NA,NA,NA,NA,NA,NA,"","",1,1,"2024-09-02_09h54.58.197","IAT(Formal)","2021.2.3","Win32",31.94888179,"",NA,"",NA,NA,NA,NA,NA,NA,NA,"","","",NA,"e",1,0.644,0,23,23,14,1,"乐观","e","",NA,NA,NA,NA,NA,NA,"",NA,"",NA,NA,NA,NA,NA,NA,NA,"",NA,"",NA,NA,NA,NA,NA,NA,NA,"","","",NA,"",NA,NA,NA,NA,NA,NA,NA,"",NA,"39"
"",NA,"",NA,"",NA,NA,NA,NA,NA,NA,NA,"","",1,1,"2024-09-02_09h54.58.197","IAT(Formal)","2021.2.3","Win32",31.94888179,"",NA,"",NA,NA,NA,NA,NA,NA,NA,"","","",NA,"i",1,0.5961,0,24,24,77,1,"他的","i","",NA,NA,NA,NA,NA,NA,"",NA,"",NA,NA,NA,NA,NA,NA,NA,"",NA,"",NA,NA,NA,NA,NA,NA,NA,"","","",NA,"",NA,NA,NA,NA,NA,NA,NA,"",NA,"39"
"",NA,"",NA,"",NA,NA,NA,NA,NA,NA,NA,"","",1,1,"2024-09-02_09h54.58.197","IAT(Formal)","2021.2.3","Win32",31.94888179,"",NA,"",NA,NA,NA,NA,NA,NA,NA,"","","",NA,"i",1,1.0389,0,25,25,8,1,"他人","i","",NA,NA,NA,NA,NA,NA,"",NA,"",NA,NA,NA,NA,NA,NA,NA,"",NA,"",NA,NA,NA,NA,NA,NA,NA,"","","",NA,"",NA,NA,NA,NA,NA,NA,NA,"",NA,"39"
"",NA,"",NA,"",NA,NA,NA,NA,NA,NA,NA,"","",1,1,"2024-09-02_09h54.58.197","IAT(Formal)","2021.2.3","Win32",31.94888179,"",NA,"",NA,NA,NA,NA,NA,NA,NA,"","","",NA,"i",1,0.8718,0,26,26,36,1,"自卑","i","",NA,NA,NA,NA,NA,NA,"",NA,"",NA,NA,NA,NA,NA,NA,NA,"",NA,"",NA,NA,NA,NA,NA,NA,NA,"","","",NA,"",NA,NA,NA,NA,NA,NA,NA,"",NA,"39"
"",NA,"",NA,"",NA,NA,NA,NA,NA,NA,NA,"","",1,1,"2024-09-02_09h54.58.197","IAT(Formal)","2021.2.3","Win32",31.94888179,"",NA,"",NA,NA,NA,NA,NA,NA,NA,"","","",NA,"i",0,1.1652,0,27,27,1,1,"我的","e","",NA,NA,NA,NA,NA,NA,"",NA,"",NA,NA,NA,NA,NA,NA,NA,"",NA,"",NA,NA,NA,NA,NA,NA,NA,"","","",NA,"",NA,NA,NA,NA,NA,NA,NA,"",NA,"39"
"",NA,"",NA,"",NA,NA,NA,NA,NA,NA,NA,"","",1,1,"2024-09-02_09h54.58.197","IAT(Formal)","2021.2.3","Win32",31.94888179,"",NA,"",NA,NA,NA,NA,NA,NA,NA,"","","",NA,"e",1,0.7356,0,28,28,20,1,"认真","e","",NA,NA,NA,NA,NA,NA,"",NA,"",NA,NA,NA,NA,NA,NA,NA,"",NA,"",NA,NA,NA,NA,NA,NA,NA,"","","",NA,"",NA,NA,NA,NA,NA,NA,NA,"",NA,"39"
"",NA,"",NA,"",NA,NA,NA,NA,NA,NA,NA,"","",1,1,"2024-09-02_09h54.58.197","IAT(Formal)","2021.2.3","Win32",31.94888179,"",NA,"",NA,NA,NA,NA,NA,NA,NA,"","","",NA,"i",1,0.7128,0,29,29,66,1,"他们","i","",NA,NA,NA,NA,NA,NA,"",NA,"",NA,NA,NA,NA,NA,NA,NA,"",NA,"",NA,NA,NA,NA,NA,NA,NA,"","","",NA,"",NA,NA,NA,NA,NA,NA,NA,"",NA,"39"
"",NA,"",NA,"",NA,NA,NA,NA,NA,NA,NA,"","",1,1,"2024-09-02_09h54.58.197","IAT(Formal)","2021.2.3","Win32",31.94888179,"",NA,"",NA,NA,NA,NA,NA,NA,NA,"","","",NA,"i",1,0.9685,0,30,30,57,1,"他的","i","",NA,NA,NA,NA,NA,NA,"",NA,"",NA,NA,NA,NA,NA,NA,NA,"",NA,"",NA,NA,NA,NA,NA,NA,NA,"","","",NA,"",NA,NA,NA,NA,NA,NA,NA,"",NA,"39"
"",NA,"",NA,"",NA,NA,NA,NA,NA,NA,NA,"","",1,1,"2024-09-02_09h54.58.197","IAT(Formal)","2021.2.3","Win32",31.94888179,"",NA,"",NA,NA,NA,NA,NA,NA,NA,"","","",NA,"e",0,1.2108,0,31,31,31,1,"虚伪","i","",NA,NA,NA,NA,NA,NA,"",NA,"",NA,NA,NA,NA,NA,NA,NA,"",NA,"",NA,NA,NA,NA,NA,NA,NA,"","","",NA,"",NA,NA,NA,NA,NA,NA,NA,"",NA,"39"
"",NA,"",NA,"",NA,NA,NA,NA,NA,NA,NA,"","",1,1,"2024-09-02_09h54.58.197","IAT(Formal)","2021.2.3","Win32",31.94888179,"",NA,"",NA,NA,NA,NA,NA,NA,NA,"","","",NA,"e",1,0.8042,0,32,32,25,1,"细腻","e","",NA,NA,NA,NA,NA,NA,"",NA,"",NA,NA,NA,NA,NA,NA,NA,"",NA,"",NA,NA,NA,NA,NA,NA,NA,"","","",NA,"",NA,NA,NA,NA,NA,NA,NA,"",NA,"39"
"",NA,"",NA,"",NA,NA,NA,NA,NA,NA,NA,"","",1,1,"2024-09-02_09h54.58.197","IAT(Formal)","2021.2.3","Win32",31.94888179,"",NA,"",NA,NA,NA,NA,NA,NA,NA,"","","",NA,"e",0,0.8839,0,33,33,35,1,"消极","i","",NA,NA,NA,NA,NA,NA,"",NA,"",NA,NA,NA,NA,NA,NA,NA,"",NA,"",NA,NA,NA,NA,NA,NA,NA,"","","",NA,"",NA,NA,NA,NA,NA,NA,NA,"",NA,"39"
"",NA,"",NA,"",NA,NA,NA,NA,NA,NA,NA,"","",1,1,"2024-09-02_09h54.58.197","IAT(Formal)","2021.2.3","Win32",31.94888179,"",NA,"",NA,NA,NA,NA,NA,NA,NA,"","","",NA,"i",1,0.7164,0,34,34,44,1,"暴躁","i","",NA,NA,NA,NA,NA,NA,"",NA,"",NA,NA,NA,NA,NA,NA,NA,"",NA,"",NA,NA,NA,NA,NA,NA,NA,"","","",NA,"",NA,NA,NA,NA,NA,NA,NA,"",NA,"39"
"",NA,"",NA,"",NA,NA,NA,NA,NA,NA,NA,"","",1,1,"2024-09-02_09h54.58.197","IAT(Formal)","2021.2.3","Win32",31.94888179,"",NA,"",NA,NA,NA,NA,NA,NA,NA,"","","",NA,"e",1,0.5171,0,35,35,62,1,"我们","e","",NA,NA,NA,NA,NA,NA,"",NA,"",NA,NA,NA,NA,NA,NA,NA,"",NA,"",NA,NA,NA,NA,NA,NA,NA,"","","",NA,"",NA,NA,NA,NA,NA,NA,NA,"",NA,"39"
"",NA,"",NA,"",NA,NA,NA,NA,NA,NA,NA,"","",1,1,"2024-09-02_09h54.58.197","IAT(Formal)","2021.2.3","Win32",31.94888179,"",NA,"",NA,NA,NA,NA,NA,NA,NA,"","","",NA,"e",1,0.6454,0,36,36,15,1,"诚实","e","",NA,NA,NA,NA,NA,NA,"",NA,"",NA,NA,NA,NA,NA,NA,NA,"",NA,"",NA,NA,NA,NA,NA,NA,NA,"","","",NA,"",NA,NA,NA,NA,NA,NA,NA,"",NA,"39"
"",NA,"",NA,"",NA,NA,NA,NA,NA,NA,NA,"","",1,1,"2024-09-02_09h54.58.197","IAT(Formal)","2021.2.3","Win32",31.94888179,"",NA,"",NA,NA,NA,NA,NA,NA,NA,"","","",NA,"e",1,0.628,0,37,37,70,1,"我","e","",NA,NA,NA,NA,NA,NA,"",NA,"",NA,NA,NA,NA,NA,NA,NA,"",NA,"",NA,NA,NA,NA,NA,NA,NA,"","","",NA,"",NA,NA,NA,NA,NA,NA,NA,"",NA,"39"
"",NA,"",NA,"",NA,NA,NA,NA,NA,NA,NA,"","",1,1,"2024-09-02_09h54.58.197","IAT(Formal)","2021.2.3","Win32",31.94888179,"",NA,"",NA,NA,NA,NA,NA,NA,NA,"","","",NA,"i",1,0.6298,0,38,38,69,1,"其他","i","",NA,NA,NA,NA,NA,NA,"",NA,"",NA,NA,NA,NA,NA,NA,NA,"",NA,"",NA,NA,NA,NA,NA,NA,NA,"","","",NA,"",NA,NA,NA,NA,NA,NA,NA,"",NA,"39"
"",NA,"",NA,"",NA,NA,NA,NA,NA,NA,NA,"","",1,1,"2024-09-02_09h54.58.197","IAT(Formal)","2021.2.3","Win32",31.94888179,"",NA,"",NA,NA,NA,NA,NA,NA,NA,"","","",NA,"e",1,0.7251,0,39,39,23,1,"公正","e","",NA,NA,NA,NA,NA,NA,"",NA,"",NA,NA,NA,NA,NA,NA,NA,"",NA,"",NA,NA,NA,NA,NA,NA,NA,"","","",NA,"",NA,NA,NA,NA,NA,NA,NA,"",NA,"39"
"",NA,"",NA,"",NA,NA,NA,NA,NA,NA,NA,"","",1,1,"2024-09-02_09h54.58.197","IAT(Formal)","2021.2.3","Win32",31.94888179,"",NA,"",NA,NA,NA,NA,NA,NA,NA,"","","",NA,"i",1,0.6802,0,40,40,34,1,"悲观","i","",NA,NA,NA,NA,NA,NA,"",NA,"",NA,NA,NA,NA,NA,NA,NA,"",NA,"",NA,NA,NA,NA,NA,NA,NA,"","","",NA,"",NA,NA,NA,NA,NA,NA,NA,"",NA,"39"
"",NA,"",NA,"",NA,NA,NA,NA,NA,NA,NA,"","",1,1,"2024-09-02_09h54.58.197","IAT(Formal)","2021.2.3","Win32",31.94888179,"",NA,"",NA,NA,NA,NA,NA,NA,NA,"","","",NA,"i",1,0.8297,0,41,41,75,1,"他","i","",NA,NA,NA,NA,NA,NA,"",NA,"",NA,NA,NA,NA,NA,NA,NA,"",NA,"",NA,NA,NA,NA,NA,NA,NA,"","","",NA,"",NA,NA,NA,NA,NA,NA,NA,"",NA,"39"
"",NA,"",NA,"",NA,NA,NA,NA,NA,NA,NA,"","",1,1,"2024-09-02_09h54.58.197","IAT(Formal)","2021.2.3","Win32",31.94888179,"",NA,"",NA,NA,NA,NA,NA,NA,NA,"","","",NA,"e",1,0.9896,0,42,42,10,1,"优秀","e","",NA,NA,NA,NA,NA,NA,"",NA,"",NA,NA,NA,NA,NA,NA,NA,"",NA,"",NA,NA,NA,NA,NA,NA,NA,"","","",NA,"",NA,NA,NA,NA,NA,NA,NA,"",NA,"39"
"",NA,"",NA,"",NA,NA,NA,NA,NA,NA,NA,"","",1,1,"2024-09-02_09h54.58.197","IAT(Formal)","2021.2.3","Win32",31.94888179,"",NA,"",NA,NA,NA,NA,NA,NA,NA,"","","",NA,"i",1,0.9746,0,43,43,68,1,"他人","i","",NA,NA,NA,NA,NA,NA,"",NA,"",NA,NA,NA,NA,NA,NA,NA,"",NA,"",NA,NA,NA,NA,NA,NA,NA,"","","",NA,"",NA,NA,NA,NA,NA,NA,NA,"",NA,"39"
"",NA,"",NA,"",NA,NA,NA,NA,NA,NA,NA,"","",1,1,"2024-09-02_09h54.58.197","IAT(Formal)","2021.2.3","Win32",31.94888179,"",NA,"",NA,NA,NA,NA,NA,NA,NA,"","","",NA,"i",1,0.5004,0,44,44,56,1,"他们","i","",NA,NA,NA,NA,NA,NA,"",NA,"",NA,NA,NA,NA,NA,NA,NA,"",NA,"",NA,NA,NA,NA,NA,NA,NA,"","","",NA,"",NA,NA,NA,NA,NA,NA,NA,"",NA,"39"
"",NA,"",NA,"",NA,NA,NA,NA,NA,NA,NA,"","",1,1,"2024-09-02_09h54.58.197","IAT(Formal)","2021.2.3","Win32",31.94888179,"",NA,"",NA,NA,NA,NA,NA,NA,NA,"","","",NA,"i",1,0.5863,0,45,45,59,1,"其他","i","",NA,NA,NA,NA,NA,NA,"",NA,"",NA,NA,NA,NA,NA,NA,NA,"",NA,"",NA,NA,NA,NA,NA,NA,NA,"","","",NA,"",NA,NA,NA,NA,NA,NA,NA,"",NA,"39"
"",NA,"",NA,"",NA,NA,NA,NA,NA,NA,NA,"","",1,1,"2024-09-02_09h54.58.197","IAT(Formal)","2021.2.3","Win32",31.94888179,"",NA,"",NA,NA,NA,NA,NA,NA,NA,"","","",NA,"i",1,0.5344,0,46,46,5,1,"他","i","",NA,NA,NA,NA,NA,NA,"",NA,"",NA,NA,NA,NA,NA,NA,NA,"",NA,"",NA,NA,NA,NA,NA,NA,NA,"","","",NA,"",NA,NA,NA,NA,NA,NA,NA,"",NA,"39"
"",NA,"",NA,"",NA,NA,NA,NA,NA,NA,NA,"","",1,1,"2024-09-02_09h54.58.197","IAT(Formal)","2021.2.3","Win32",31.94888179,"",NA,"",NA,NA,NA,NA,NA,NA,NA,"","","",NA,"i",1,0.6342,0,47,47,40,1,"执拗","i","",NA,NA,NA,NA,NA,NA,"",NA,"",NA,NA,NA,NA,NA,NA,NA,"",NA,"",NA,NA,NA,NA,NA,NA,NA,"","","",NA,"",NA,NA,NA,NA,NA,NA,NA,"",NA,"39"
"",NA,"",NA,"",NA,NA,NA,NA,NA,NA,NA,"","",1,1,"2024-09-02_09h54.58.197","IAT(Formal)","2021.2.3","Win32",31.94888179,"",NA,"",NA,NA,NA,NA,NA,NA,NA,"","","",NA,"e",1,0.8078,0,48,48,29,1,"诚恳","e","",NA,NA,NA,NA,NA,NA,"",NA,"",NA,NA,NA,NA,NA,NA,NA,"",NA,"",NA,NA,NA,NA,NA,NA,NA,"","","",NA,"",NA,NA,NA,NA,NA,NA,NA,"",NA,"39"
"",NA,"",NA,"",NA,NA,NA,NA,NA,NA,NA,"","",1,1,"2024-09-02_09h54.58.197","IAT(Formal)","2021.2.3","Win32",31.94888179,"",NA,"",NA,NA,NA,NA,NA,NA,NA,"","","",NA,"e",1,0.5732,0,49,49,26,1,"冷静","e","",NA,NA,NA,NA,NA,NA,"",NA,"",NA,NA,NA,NA,NA,NA,NA,"",NA,"",NA,NA,NA,NA,NA,NA,NA,"","","",NA,"",NA,NA,NA,NA,NA,NA,NA,"",NA,"39"
"",NA,"",NA,"",NA,NA,NA,NA,NA,NA,NA,"","",1,1,"2024-09-02_09h54.58.197","IAT(Formal)","2021.2.3","Win32",31.94888179,"",NA,"",NA,NA,NA,NA,NA,NA,NA,"","","",NA,"e",1,0.7436,0,50,50,11,1,"崇高","e","",NA,NA,NA,NA,NA,NA,"",NA,"",NA,NA,NA,NA,NA,NA,NA,"",NA,"",NA,NA,NA,NA,NA,NA,NA,"","","",NA,"",NA,NA,NA,NA,NA,NA,NA,"",NA,"39"
"",NA,"",NA,"",NA,NA,NA,NA,NA,NA,NA,"","",1,1,"2024-09-02_09h54.58.197","IAT(Formal)","2021.2.3","Win32",31.94888179,"",NA,"",NA,NA,NA,NA,NA,NA,NA,"","","",NA,"e",1,0.8725,0,51,51,28,1,"活泼","e","",NA,NA,NA,NA,NA,NA,"",NA,"",NA,NA,NA,NA,NA,NA,NA,"",NA,"",NA,NA,NA,NA,NA,NA,NA,"","","",NA,"",NA,NA,NA,NA,NA,NA,NA,"",NA,"39"
"",NA,"",NA,"",NA,NA,NA,NA,NA,NA,NA,"","",1,1,"2024-09-02_09h54.58.197","IAT(Formal)","2021.2.3","Win32",31.94888179,"",NA,"",NA,NA,NA,NA,NA,NA,NA,"","","",NA,"e",1,0.5512,0,52,52,51,1,"我的","e","",NA,NA,NA,NA,NA,NA,"",NA,"",NA,NA,NA,NA,NA,NA,NA,"",NA,"",NA,NA,NA,NA,NA,NA,NA,"","","",NA,"",NA,NA,NA,NA,NA,NA,NA,"",NA,"39"
"",NA,"",NA,"",NA,NA,NA,NA,NA,NA,NA,"","",1,1,"2024-09-02_09h54.58.197","IAT(Formal)","2021.2.3","Win32",31.94888179,"",NA,"",NA,NA,NA,NA,NA,NA,NA,"","","",NA,"i",1,0.7145,0,53,53,33,1,"刻薄","i","",NA,NA,NA,NA,NA,NA,"",NA,"",NA,NA,NA,NA,NA,NA,NA,"",NA,"",NA,NA,NA,NA,NA,NA,NA,"","","",NA,"",NA,NA,NA,NA,NA,NA,NA,"",NA,"39"
"",NA,"",NA,"",NA,NA,NA,NA,NA,NA,NA,"","",1,1,"2024-09-02_09h54.58.197","IAT(Formal)","2021.2.3","Win32",31.94888179,"",NA,"",NA,NA,NA,NA,NA,NA,NA,"","","",NA,"e",0,1.0165,0,54,54,41,1,"散漫","i","",NA,NA,NA,NA,NA,NA,"",NA,"",NA,NA,NA,NA,NA,NA,NA,"",NA,"",NA,NA,NA,NA,NA,NA,NA,"","","",NA,"",NA,NA,NA,NA,NA,NA,NA,"",NA,"39"
"",NA,"",NA,"",NA,NA,NA,NA,NA,NA,NA,"","",1,1,"2024-09-02_09h54.58.197","IAT(Formal)","2021.2.3","Win32",31.94888179,"",NA,"",NA,NA,NA,NA,NA,NA,NA,"","","",NA,"e",1,0.632,0,55,55,72,1,"我们","e","",NA,NA,NA,NA,NA,NA,"",NA,"",NA,NA,NA,NA,NA,NA,NA,"",NA,"",NA,NA,NA,NA,NA,NA,NA,"","","",NA,"",NA,NA,NA,NA,NA,NA,NA,"",NA,"39"
"",NA,"",NA,"",NA,NA,NA,NA,NA,NA,NA,"","",1,1,"2024-09-02_09h54.58.197","IAT(Formal)","2021.2.3","Win32",31.94888179,"",NA,"",NA,NA,NA,NA,NA,NA,NA,"","","",NA,"e",1,0.8412,0,56,56,74,1,"俺","e","",NA,NA,NA,NA,NA,NA,"",NA,"",NA,NA,NA,NA,NA,NA,NA,"",NA,"",NA,NA,NA,NA,NA,NA,NA,"","","",NA,"",NA,NA,NA,NA,NA,NA,NA,"",NA,"39"
"",NA,"",NA,"",NA,NA,NA,NA,NA,NA,NA,"","",1,1,"2024-09-02_09h54.58.197","IAT(Formal)","2021.2.3","Win32",31.94888179,"",NA,"",NA,NA,NA,NA,NA,NA,NA,"","","",NA,"e",1,0.7509,0,57,57,19,1,"机智","e","",NA,NA,NA,NA,NA,NA,"",NA,"",NA,NA,NA,NA,NA,NA,NA,"",NA,"",NA,NA,NA,NA,NA,NA,NA,"","","",NA,"",NA,NA,NA,NA,NA,NA,NA,"",NA,"39"
"",NA,"",NA,"",NA,NA,NA,NA,NA,NA,NA,"","",1,1,"2024-09-02_09h54.58.197","IAT(Formal)","2021.2.3","Win32",31.94888179,"",NA,"",NA,NA,NA,NA,NA,NA,NA,"","","",NA,"i",1,0.7148,0,58,58,47,1,"固执","i","",NA,NA,NA,NA,NA,NA,"",NA,"",NA,NA,NA,NA,NA,NA,NA,"",NA,"",NA,NA,NA,NA,NA,NA,NA,"","","",NA,"",NA,NA,NA,NA,NA,NA,NA,"",NA,"39"
"",NA,"",NA,"",NA,NA,NA,NA,NA,NA,NA,"","",1,1,"2024-09-02_09h54.58.197","IAT(Formal)","2021.2.3","Win32",31.94888179,"",NA,"",NA,NA,NA,NA,NA,NA,NA,"","","",NA,"i",1,0.7923,0,59,59,7,1,"他的","i","",NA,NA,NA,NA,NA,NA,"",NA,"",NA,NA,NA,NA,NA,NA,NA,"",NA,"",NA,NA,NA,NA,NA,NA,NA,"","","",NA,"",NA,NA,NA,NA,NA,NA,NA,"",NA,"39"
"",NA,"",NA,"",NA,NA,NA,NA,NA,NA,NA,"","",1,1,"2024-09-02_09h54.58.197","IAT(Formal)","2021.2.3","Win32",31.94888179,"",NA,"",NA,NA,NA,NA,NA,NA,NA,"","","",NA,"e",1,1.2689,0,60,60,52,1,"我们","e","",NA,NA,NA,NA,NA,NA,"",NA,"",NA,NA,NA,NA,NA,NA,NA,"",NA,"",NA,NA,NA,NA,NA,NA,NA,"","","",NA,"",NA,NA,NA,NA,NA,NA,NA,"",NA,"39"
"",NA,"",NA,"",NA,NA,NA,NA,NA,NA,NA,"","",1,1,"2024-09-02_09h54.58.197","IAT(Formal)","2021.2.3","Win32",31.94888179,"",NA,"",NA,NA,NA,NA,NA,NA,NA,"","","",NA,"i",1,0.6864,0,61,61,45,1,"猖狂","i","",NA,NA,NA,NA,NA,NA,"",NA,"",NA,NA,NA,NA,NA,NA,NA,"",NA,"",NA,NA,NA,NA,NA,NA,NA,"","","",NA,"",NA,NA,NA,NA,NA,NA,NA,"",NA,"39"
"",NA,"",NA,"",NA,NA,NA,NA,NA,NA,NA,"","",1,1,"2024-09-02_09h54.58.197","IAT(Formal)","2021.2.3","Win32",31.94888179,"",NA,"",NA,NA,NA,NA,NA,NA,NA,"","","",NA,"i",1,0.6361,0,62,62,55,1,"他","i","",NA,NA,NA,NA,NA,NA,"",NA,"",NA,NA,NA,NA,NA,NA,NA,"",NA,"",NA,NA,NA,NA,NA,NA,NA,"","","",NA,"",NA,NA,NA,NA,NA,NA,NA,"",NA,"39"
"",NA,"",NA,"",NA,NA,NA,NA,NA,NA,NA,"","",1,1,"2024-09-02_09h54.58.197","IAT(Formal)","2021.2.3","Win32",31.94888179,"",NA,"",NA,NA,NA,NA,NA,NA,NA,"","","",NA,"e",1,0.9311,0,63,63,54,1,"俺","e","",NA,NA,NA,NA,NA,NA,"",NA,"",NA,NA,NA,NA,NA,NA,NA,"",NA,"",NA,NA,NA,NA,NA,NA,NA,"","","",NA,"",NA,NA,NA,NA,NA,NA,NA,"",NA,"39"
"",NA,"",NA,"",NA,NA,NA,NA,NA,NA,NA,"","",1,1,"2024-09-02_09h54.58.197","IAT(Formal)","2021.2.3","Win32",31.94888179,"",NA,"",NA,NA,NA,NA,NA,NA,NA,"","","",NA,"i",1,1.2796,0,64,64,39,1,"冒失","i","",NA,NA,NA,NA,NA,NA,"",NA,"",NA,NA,NA,NA,NA,NA,NA,"",NA,"",NA,NA,NA,NA,NA,NA,NA,"","","",NA,"",NA,NA,NA,NA,NA,NA,NA,"",NA,"39"
"",NA,"",NA,"",NA,NA,NA,NA,NA,NA,NA,"","",1,1,"2024-09-02_09h54.58.197","IAT(Formal)","2021.2.3","Win32",31.94888179,"",NA,"",NA,NA,NA,NA,NA,NA,NA,"","","",NA,"i",1,0.9432,0,65,65,32,1,"愚蠢","i","",NA,NA,NA,NA,NA,NA,"",NA,"",NA,NA,NA,NA,NA,NA,NA,"",NA,"",NA,NA,NA,NA,NA,NA,NA,"","","",NA,"",NA,NA,NA,NA,NA,NA,NA,"",NA,"39"
"",NA,"",NA,"",NA,NA,NA,NA,NA,NA,NA,"","",1,1,"2024-09-02_09h54.58.197","IAT(Formal)","2021.2.3","Win32",31.94888179,"",NA,"",NA,NA,NA,NA,NA,NA,NA,"","","",NA,"i",1,0.9549,0,66,66,6,1,"他们","i","",NA,NA,NA,NA,NA,NA,"",NA,"",NA,NA,NA,NA,NA,NA,NA,"",NA,"",NA,NA,NA,NA,NA,NA,NA,"","","",NA,"",NA,NA,NA,NA,NA,NA,NA,"",NA,"39"
"",NA,"",NA,"",NA,NA,NA,NA,NA,NA,NA,"","",1,1,"2024-09-02_09h54.58.197","IAT(Formal)","2021.2.3","Win32",31.94888179,"",NA,"",NA,NA,NA,NA,NA,NA,NA,"","","",NA,"i",0,0.5986,0,67,67,22,1,"无私","e","",NA,NA,NA,NA,NA,NA,"",NA,"",NA,NA,NA,NA,NA,NA,NA,"",NA,"",NA,NA,NA,NA,NA,NA,NA,"","","",NA,"",NA,NA,NA,NA,NA,NA,NA,"",NA,"39"
"",NA,"",NA,"",NA,NA,NA,NA,NA,NA,NA,"","",1,1,"2024-09-02_09h54.58.197","IAT(Formal)","2021.2.3","Win32",31.94888179,"",NA,"",NA,NA,NA,NA,NA,NA,NA,"","","",NA,"e",1,0.6227,0,68,68,21,1,"稳重","e","",NA,NA,NA,NA,NA,NA,"",NA,"",NA,NA,NA,NA,NA,NA,NA,"",NA,"",NA,NA,NA,NA,NA,NA,NA,"","","",NA,"",NA,NA,NA,NA,NA,NA,NA,"",NA,"39"
"",NA,"",NA,"",NA,NA,NA,NA,NA,NA,NA,"","",1,1,"2024-09-02_09h54.58.197","IAT(Formal)","2021.2.3","Win32",31.94888179,"",NA,"",NA,NA,NA,NA,NA,NA,NA,"","","",NA,"e",1,0.574,0,69,69,73,1,"自己","e","",NA,NA,NA,NA,NA,NA,"",NA,"",NA,NA,NA,NA,NA,NA,NA,"",NA,"",NA,NA,NA,NA,NA,NA,NA,"","","",NA,"",NA,NA,NA,NA,NA,NA,NA,"",NA,"39"
"",NA,"",NA,"",NA,NA,NA,NA,NA,NA,NA,"","",1,1,"2024-09-02_09h54.58.197","IAT(Formal)","2021.2.3","Win32",31.94888179,"",NA,"",NA,NA,NA,NA,NA,NA,NA,"","","",NA,"e",1,0.6155,0,70,70,27,1,"热情","e","",NA,NA,NA,NA,NA,NA,"",NA,"",NA,NA,NA,NA,NA,NA,NA,"",NA,"",NA,NA,NA,NA,NA,NA,NA,"","","",NA,"",NA,NA,NA,NA,NA,NA,NA,"",NA,"39"
"",NA,"",NA,"",NA,NA,NA,NA,NA,NA,NA,"","",1,1,"2024-09-02_09h54.58.197","IAT(Formal)","2021.2.3","Win32",31.94888179,"",NA,"",NA,NA,NA,NA,NA,NA,NA,"","","",NA,"e",1,0.6629,0,71,71,17,1,"勇敢","e","",NA,NA,NA,NA,NA,NA,"",NA,"",NA,NA,NA,NA,NA,NA,NA,"",NA,"",NA,NA,NA,NA,NA,NA,NA,"","","",NA,"",NA,NA,NA,NA,NA,NA,NA,"",NA,"39"
"",NA,"",NA,"",NA,NA,NA,NA,NA,NA,NA,"","",1,1,"2024-09-02_09h54.58.197","IAT(Formal)","2021.2.3","Win32",31.94888179,"",NA,"",NA,NA,NA,NA,NA,NA,NA,"","","",NA,"e",1,0.6179,0,72,72,61,1,"我的","e","",NA,NA,NA,NA,NA,NA,"",NA,"",NA,NA,NA,NA,NA,NA,NA,"",NA,"",NA,NA,NA,NA,NA,NA,NA,"","","",NA,"",NA,NA,NA,NA,NA,NA,NA,"",NA,"39"
"",NA,"",NA,"",NA,NA,NA,NA,NA,NA,NA,"","",1,1,"2024-09-02_09h54.58.197","IAT(Formal)","2021.2.3","Win32",31.94888179,"",NA,"",NA,NA,NA,NA,NA,NA,NA,"","","",NA,"i",1,0.6692,0,73,73,46,1,"野蛮","i","",NA,NA,NA,NA,NA,NA,"",NA,"",NA,NA,NA,NA,NA,NA,NA,"",NA,"",NA,NA,NA,NA,NA,NA,NA,"","","",NA,"",NA,NA,NA,NA,NA,NA,NA,"",NA,"39"
"",NA,"",NA,"",NA,NA,NA,NA,NA,NA,NA,"","",1,1,"2024-09-02_09h54.58.197","IAT(Formal)","2021.2.3","Win32",31.94888179,"",NA,"",NA,NA,NA,NA,NA,NA,NA,"","","",NA,"e",1,0.6974,0,74,74,63,1,"自己","e","",NA,NA,NA,NA,NA,NA,"",NA,"",NA,NA,NA,NA,NA,NA,NA,"",NA,"",NA,NA,NA,NA,NA,NA,NA,"","","",NA,"",NA,NA,NA,NA,NA,NA,NA,"",NA,"39"
"",NA,"",NA,"",NA,NA,NA,NA,NA,NA,NA,"","",1,1,"2024-09-02_09h54.58.197","IAT(Formal)","2021.2.3","Win32",31.94888179,"",NA,"",NA,NA,NA,NA,NA,NA,NA,"","","",NA,"i",1,0.804,0,75,75,48,1,"轻率","i","",NA,NA,NA,NA,NA,NA,"",NA,"",NA,NA,NA,NA,NA,NA,NA,"",NA,"",NA,NA,NA,NA,NA,NA,NA,"","","",NA,"",NA,NA,NA,NA,NA,NA,NA,"",NA,"39"
"",NA,"",NA,"",NA,NA,NA,NA,NA,NA,NA,"","",1,1,"2024-09-02_09h54.58.197","IAT(Formal)","2021.2.3","Win32",31.94888179,"",NA,"",NA,NA,NA,NA,NA,NA,NA,"","","",NA,"e",1,0.8086,0,76,76,53,1,"自己","e","",NA,NA,NA,NA,NA,NA,"",NA,"",NA,NA,NA,NA,NA,NA,NA,"",NA,"",NA,NA,NA,NA,NA,NA,NA,"","","",NA,"",NA,NA,NA,NA,NA,NA,NA,"",NA,"39"
"",NA,"",NA,"",NA,NA,NA,NA,NA,NA,NA,"","",1,1,"2024-09-02_09h54.58.197","IAT(Formal)","2021.2.3","Win32",31.94888179,"",NA,"",NA,NA,NA,NA,NA,NA,NA,"","","",NA,"e",1,0.9623,0,77,77,24,1,"朴实","e","",NA,NA,NA,NA,NA,NA,"",NA,"",NA,NA,NA,NA,NA,NA,NA,"",NA,"",NA,NA,NA,NA,NA,NA,NA,"","","",NA,"",NA,NA,NA,NA,NA,NA,NA,"",NA,"39"
"",NA,"",NA,"",NA,NA,NA,NA,NA,NA,NA,"","",1,1,"2024-09-02_09h54.58.197","IAT(Formal)","2021.2.3","Win32",31.94888179,"",NA,"",NA,NA,NA,NA,NA,NA,NA,"","","",NA,"e",1,0.7414,0,78,78,12,1,"聪明","e","",NA,NA,NA,NA,NA,NA,"",NA,"",NA,NA,NA,NA,NA,NA,NA,"",NA,"",NA,NA,NA,NA,NA,NA,NA,"","","",NA,"",NA,NA,NA,NA,NA,NA,NA,"",NA,"39"
"",NA,"",NA,"",NA,NA,NA,NA,NA,NA,NA,"","",1,1,"2024-09-02_09h54.58.197","IAT(Formal)","2021.2.3","Win32",31.94888179,"",NA,"",NA,NA,NA,NA,NA,NA,NA,"","","",NA,"i",1,0.6525,0,79,79,9,1,"其他","i","",NA,NA,NA,NA,NA,NA,"",NA,"",NA,NA,NA,NA,NA,NA,NA,"",NA,"",NA,NA,NA,NA,NA,NA,NA,"","","",NA,"",NA,NA,NA,NA,NA,NA,NA,"",NA,"39"
"",NA,"",NA,"",NA,NA,NA,NA,NA,NA,NA,"","",1,1,"2024-09-02_09h54.58.197","IAT(Formal)","2021.2.3","Win32",31.94888179,"",NA,"",NA,NA,NA,NA,NA,NA,NA,"","","",NA,"e",1,0.6359,NA,NA,NA,NA,NA,"我","e","space",36.94,0,0,0,0,1,"",NA,"",NA,NA,NA,NA,NA,NA,NA,"",NA,"",NA,NA,NA,NA,NA,NA,NA,"","","",NA,"",NA,NA,NA,NA,NA,NA,NA,"",NA,"39"
"",NA,"",NA,"",NA,NA,NA,NA,NA,NA,NA,"","",1,1,"2024-09-02_09h54.58.197","IAT(Formal)","2021.2.3","Win32",31.94888179,"",NA,"",NA,NA,NA,NA,NA,NA,NA,"","","",NA,"e",1,0.5487,NA,NA,NA,NA,NA,"自己","e","",NA,0,1,1,3,1,"",NA,"",NA,NA,NA,NA,NA,NA,NA,"",NA,"",NA,NA,NA,NA,NA,NA,NA,"","","",NA,"",NA,NA,NA,NA,NA,NA,NA,"",NA,"39"
"",NA,"",NA,"",NA,NA,NA,NA,NA,NA,NA,"","",1,1,"2024-09-02_09h54.58.197","IAT(Formal)","2021.2.3","Win32",31.94888179,"",NA,"",NA,NA,NA,NA,NA,NA,NA,"","","",NA,"e",1,0.5574,NA,NA,NA,NA,NA,"我们","e","",NA,0,2,2,72,1,"",NA,"",NA,NA,NA,NA,NA,NA,NA,"",NA,"",NA,NA,NA,NA,NA,NA,NA,"","","",NA,"",NA,NA,NA,NA,NA,NA,NA,"",NA,"39"
"",NA,"",NA,"",NA,NA,NA,NA,NA,NA,NA,"","",1,1,"2024-09-02_09h54.58.197","IAT(Formal)","2021.2.3","Win32",31.94888179,"",NA,"",NA,NA,NA,NA,NA,NA,NA,"","","",NA,"i",1,0.5629,NA,NA,NA,NA,NA,"他人","i","",NA,0,3,3,78,1,"",NA,"",NA,NA,NA,NA,NA,NA,NA,"",NA,"",NA,NA,NA,NA,NA,NA,NA,"","","",NA,"",NA,NA,NA,NA,NA,NA,NA,"",NA,"39"
"",NA,"",NA,"",NA,NA,NA,NA,NA,NA,NA,"","",1,1,"2024-09-02_09h54.58.197","IAT(Formal)","2021.2.3","Win32",31.94888179,"",NA,"",NA,NA,NA,NA,NA,NA,NA,"","","",NA,"e",1,0.6629,NA,NA,NA,NA,NA,"公正","e","",NA,0,4,4,23,1,"",NA,"",NA,NA,NA,NA,NA,NA,NA,"",NA,"",NA,NA,NA,NA,NA,NA,NA,"","","",NA,"",NA,NA,NA,NA,NA,NA,NA,"",NA,"39"
"",NA,"",NA,"",NA,NA,NA,NA,NA,NA,NA,"","",1,1,"2024-09-02_09h54.58.197","IAT(Formal)","2021.2.3","Win32",31.94888179,"",NA,"",NA,NA,NA,NA,NA,NA,NA,"","","",NA,"i",1,0.6931,NA,NA,NA,NA,NA,"暴躁","i","",NA,0,5,5,44,1,"",NA,"",NA,NA,NA,NA,NA,NA,NA,"",NA,"",NA,NA,NA,NA,NA,NA,NA,"","","",NA,"",NA,NA,NA,NA,NA,NA,NA,"",NA,"39"
"",NA,"",NA,"",NA,NA,NA,NA,NA,NA,NA,"","",1,1,"2024-09-02_09h54.58.197","IAT(Formal)","2021.2.3","Win32",31.94888179,"",NA,"",NA,NA,NA,NA,NA,NA,NA,"","","",NA,"e",1,0.6722,NA,NA,NA,NA,NA,"乐观","e","",NA,0,6,6,14,1,"",NA,"",NA,NA,NA,NA,NA,NA,NA,"",NA,"",NA,NA,NA,NA,NA,NA,NA,"","","",NA,"",NA,NA,NA,NA,NA,NA,NA,"",NA,"39"
"",NA,"",NA,"",NA,NA,NA,NA,NA,NA,NA,"","",1,1,"2024-09-02_09h54.58.197","IAT(Formal)","2021.2.3","Win32",31.94888179,"",NA,"",NA,NA,NA,NA,NA,NA,NA,"","","",NA,"i",1,0.7127,NA,NA,NA,NA,NA,"他","i","",NA,0,7,7,5,1,"",NA,"",NA,NA,NA,NA,NA,NA,NA,"",NA,"",NA,NA,NA,NA,NA,NA,NA,"","","",NA,"",NA,NA,NA,NA,NA,NA,NA,"",NA,"39"
"",NA,"",NA,"",NA,NA,NA,NA,NA,NA,NA,"","",1,1,"2024-09-02_09h54.58.197","IAT(Formal)","2021.2.3","Win32",31.94888179,"",NA,"",NA,NA,NA,NA,NA,NA,NA,"","","",NA,"e",1,0.6056,NA,NA,NA,NA,NA,"我的","e","",NA,0,8,8,61,1,"",NA,"",NA,NA,NA,NA,NA,NA,NA,"",NA,"",NA,NA,NA,NA,NA,NA,NA,"","","",NA,"",NA,NA,NA,NA,NA,NA,NA,"",NA,"39"
"",NA,"",NA,"",NA,NA,NA,NA,NA,NA,NA,"","",1,1,"2024-09-02_09h54.58.197","IAT(Formal)","2021.2.3","Win32",31.94888179,"",NA,"",NA,NA,NA,NA,NA,NA,NA,"","","",NA,"e",1,0.6793,NA,NA,NA,NA,NA,"俺","e","",NA,0,9,9,64,1,"",NA,"",NA,NA,NA,NA,NA,NA,NA,"",NA,"",NA,NA,NA,NA,NA,NA,NA,"","","",NA,"",NA,NA,NA,NA,NA,NA,NA,"",NA,"39"
"",NA,"",NA,"",NA,NA,NA,NA,NA,NA,NA,"","",1,1,"2024-09-02_09h54.58.197","IAT(Formal)","2021.2.3","Win32",31.94888179,"",NA,"",NA,NA,NA,NA,NA,NA,NA,"","","",NA,"i",1,0.5419,NA,NA,NA,NA,NA,"其他","i","",NA,0,10,10,79,1,"",NA,"",NA,NA,NA,NA,NA,NA,NA,"",NA,"",NA,NA,NA,NA,NA,NA,NA,"","","",NA,"",NA,NA,NA,NA,NA,NA,NA,"",NA,"39"
"",NA,"",NA,"",NA,NA,NA,NA,NA,NA,NA,"","",1,1,"2024-09-02_09h54.58.197","IAT(Formal)","2021.2.3","Win32",31.94888179,"",NA,"",NA,NA,NA,NA,NA,NA,NA,"","","",NA,"e",1,0.6391,NA,NA,NA,NA,NA,"正直","e","",NA,0,11,11,16,1,"",NA,"",NA,NA,NA,NA,NA,NA,NA,"",NA,"",NA,NA,NA,NA,NA,NA,NA,"","","",NA,"",NA,NA,NA,NA,NA,NA,NA,"",NA,"39"
"",NA,"",NA,"",NA,NA,NA,NA,NA,NA,NA,"","",1,1,"2024-09-02_09h54.58.197","IAT(Formal)","2021.2.3","Win32",31.94888179,"",NA,"",NA,NA,NA,NA,NA,NA,NA,"","","",NA,"e",1,0.8056,NA,NA,NA,NA,NA,"活泼","e","",NA,0,12,12,28,1,"",NA,"",NA,NA,NA,NA,NA,NA,NA,"",NA,"",NA,NA,NA,NA,NA,NA,NA,"","","",NA,"",NA,NA,NA,NA,NA,NA,NA,"",NA,"39"
"",NA,"",NA,"",NA,NA,NA,NA,NA,NA,NA,"","",1,1,"2024-09-02_09h54.58.197","IAT(Formal)","2021.2.3","Win32",31.94888179,"",NA,"",NA,NA,NA,NA,NA,NA,NA,"","","",NA,"i",1,0.6481,NA,NA,NA,NA,NA,"其他","i","",NA,0,13,13,69,1,"",NA,"",NA,NA,NA,NA,NA,NA,NA,"",NA,"",NA,NA,NA,NA,NA,NA,NA,"","","",NA,"",NA,NA,NA,NA,NA,NA,NA,"",NA,"39"
"",NA,"",NA,"",NA,NA,NA,NA,NA,NA,NA,"","",1,1,"2024-09-02_09h54.58.197","IAT(Formal)","2021.2.3","Win32",31.94888179,"",NA,"",NA,NA,NA,NA,NA,NA,NA,"","","",NA,"i",1,0.685,NA,NA,NA,NA,NA,"他","i","",NA,0,14,14,75,1,"",NA,"",NA,NA,NA,NA,NA,NA,NA,"",NA,"",NA,NA,NA,NA,NA,NA,NA,"","","",NA,"",NA,NA,NA,NA,NA,NA,NA,"",NA,"39"
"",NA,"",NA,"",NA,NA,NA,NA,NA,NA,NA,"","",1,1,"2024-09-02_09h54.58.197","IAT(Formal)","2021.2.3","Win32",31.94888179,"",NA,"",NA,NA,NA,NA,NA,NA,NA,"","","",NA,"i",1,0.8793,NA,NA,NA,NA,NA,"虚伪","i","",NA,0,15,15,31,1,"",NA,"",NA,NA,NA,NA,NA,NA,NA,"",NA,"",NA,NA,NA,NA,NA,NA,NA,"","","",NA,"",NA,NA,NA,NA,NA,NA,NA,"",NA,"39"
"",NA,"",NA,"",NA,NA,NA,NA,NA,NA,NA,"","",1,1,"2024-09-02_09h54.58.197","IAT(Formal)","2021.2.3","Win32",31.94888179,"",NA,"",NA,NA,NA,NA,NA,NA,NA,"","","",NA,"e",1,0.67,NA,NA,NA,NA,NA,"自己","e","",NA,0,16,16,73,1,"",NA,"",NA,NA,NA,NA,NA,NA,NA,"",NA,"",NA,NA,NA,NA,NA,NA,NA,"","","",NA,"",NA,NA,NA,NA,NA,NA,NA,"",NA,"39"
"",NA,"",NA,"",NA,NA,NA,NA,NA,NA,NA,"","",1,1,"2024-09-02_09h54.58.197","IAT(Formal)","2021.2.3","Win32",31.94888179,"",NA,"",NA,NA,NA,NA,NA,NA,NA,"","","",NA,"e",1,0.6271,NA,NA,NA,NA,NA,"俺","e","",NA,0,17,17,74,1,"",NA,"",NA,NA,NA,NA,NA,NA,NA,"",NA,"",NA,NA,NA,NA,NA,NA,NA,"","","",NA,"",NA,NA,NA,NA,NA,NA,NA,"",NA,"39"
"",NA,"",NA,"",NA,NA,NA,NA,NA,NA,NA,"","",1,1,"2024-09-02_09h54.58.197","IAT(Formal)","2021.2.3","Win32",31.94888179,"",NA,"",NA,NA,NA,NA,NA,NA,NA,"","","",NA,"e",1,0.653,NA,NA,NA,NA,NA,"勤奋","e","",NA,0,18,18,18,1,"",NA,"",NA,NA,NA,NA,NA,NA,NA,"",NA,"",NA,NA,NA,NA,NA,NA,NA,"","","",NA,"",NA,NA,NA,NA,NA,NA,NA,"",NA,"39"
"",NA,"",NA,"",NA,NA,NA,NA,NA,NA,NA,"","",1,1,"2024-09-02_09h54.58.197","IAT(Formal)","2021.2.3","Win32",31.94888179,"",NA,"",NA,NA,NA,NA,NA,NA,NA,"","","",NA,"e",0,0.8017,NA,NA,NA,NA,NA,"傲慢","i","",NA,0,19,19,37,1,"",NA,"",NA,NA,NA,NA,NA,NA,NA,"",NA,"",NA,NA,NA,NA,NA,NA,NA,"","","",NA,"",NA,NA,NA,NA,NA,NA,NA,"",NA,"39"
"",NA,"",NA,"",NA,NA,NA,NA,NA,NA,NA,"","",1,1,"2024-09-02_09h54.58.197","IAT(Formal)","2021.2.3","Win32",31.94888179,"",NA,"",NA,NA,NA,NA,NA,NA,NA,"","","",NA,"i",1,0.7725,NA,NA,NA,NA,NA,"他们","i","",NA,0,20,20,66,1,"",NA,"",NA,NA,NA,NA,NA,NA,NA,"",NA,"",NA,NA,NA,NA,NA,NA,NA,"","","",NA,"",NA,NA,NA,NA,NA,NA,NA,"",NA,"39"
"",NA,"",NA,"",NA,NA,NA,NA,NA,NA,NA,"","",1,1,"2024-09-02_09h54.58.197","IAT(Formal)","2021.2.3","Win32",31.94888179,"",NA,"",NA,NA,NA,NA,NA,NA,NA,"","","",NA,"i",1,1.1764,NA,NA,NA,NA,NA,"悲观","i","",NA,0,21,21,34,1,"",NA,"",NA,NA,NA,NA,NA,NA,NA,"",NA,"",NA,NA,NA,NA,NA,NA,NA,"","","",NA,"",NA,NA,NA,NA,NA,NA,NA,"",NA,"39"
"",NA,"",NA,"",NA,NA,NA,NA,NA,NA,NA,"","",1,1,"2024-09-02_09h54.58.197","IAT(Formal)","2021.2.3","Win32",31.94888179,"",NA,"",NA,NA,NA,NA,NA,NA,NA,"","","",NA,"e",1,0.7142,NA,NA,NA,NA,NA,"我们","e","",NA,0,22,22,62,1,"",NA,"",NA,NA,NA,NA,NA,NA,NA,"",NA,"",NA,NA,NA,NA,NA,NA,NA,"","","",NA,"",NA,NA,NA,NA,NA,NA,NA,"",NA,"39"
"",NA,"",NA,"",NA,NA,NA,NA,NA,NA,NA,"","",1,1,"2024-09-02_09h54.58.197","IAT(Formal)","2021.2.3","Win32",31.94888179,"",NA,"",NA,NA,NA,NA,NA,NA,NA,"","","",NA,"e",1,0.4943,NA,NA,NA,NA,NA,"我","e","",NA,0,23,23,70,1,"",NA,"",NA,NA,NA,NA,NA,NA,NA,"",NA,"",NA,NA,NA,NA,NA,NA,NA,"","","",NA,"",NA,NA,NA,NA,NA,NA,NA,"",NA,"39"
"",NA,"",NA,"",NA,NA,NA,NA,NA,NA,NA,"","",1,1,"2024-09-02_09h54.58.197","IAT(Formal)","2021.2.3","Win32",31.94888179,"",NA,"",NA,NA,NA,NA,NA,NA,NA,"","","",NA,"e",1,0.5507,NA,NA,NA,NA,NA,"我的","e","",NA,0,24,24,51,1,"",NA,"",NA,NA,NA,NA,NA,NA,NA,"",NA,"",NA,NA,NA,NA,NA,NA,NA,"","","",NA,"",NA,NA,NA,NA,NA,NA,NA,"",NA,"39"
"",NA,"",NA,"",NA,NA,NA,NA,NA,NA,NA,"","",1,1,"2024-09-02_09h54.58.197","IAT(Formal)","2021.2.3","Win32",31.94888179,"",NA,"",NA,NA,NA,NA,NA,NA,NA,"","","",NA,"i",1,0.5543,NA,NA,NA,NA,NA,"他的","i","",NA,0,25,25,77,1,"",NA,"",NA,NA,NA,NA,NA,NA,NA,"",NA,"",NA,NA,NA,NA,NA,NA,NA,"","","",NA,"",NA,NA,NA,NA,NA,NA,NA,"",NA,"39"
"",NA,"",NA,"",NA,NA,NA,NA,NA,NA,NA,"","",1,1,"2024-09-02_09h54.58.197","IAT(Formal)","2021.2.3","Win32",31.94888179,"",NA,"",NA,NA,NA,NA,NA,NA,NA,"","","",NA,"e",1,0.596,NA,NA,NA,NA,NA,"我们","e","",NA,0,26,26,52,1,"",NA,"",NA,NA,NA,NA,NA,NA,NA,"",NA,"",NA,NA,NA,NA,NA,NA,NA,"","","",NA,"",NA,NA,NA,NA,NA,NA,NA,"",NA,"39"
"",NA,"",NA,"",NA,NA,NA,NA,NA,NA,NA,"","",1,1,"2024-09-02_09h54.58.197","IAT(Formal)","2021.2.3","Win32",31.94888179,"",NA,"",NA,NA,NA,NA,NA,NA,NA,"","","",NA,"e",1,0.6728,NA,NA,NA,NA,NA,"俺","e","",NA,0,27,27,54,1,"",NA,"",NA,NA,NA,NA,NA,NA,NA,"",NA,"",NA,NA,NA,NA,NA,NA,NA,"","","",NA,"",NA,NA,NA,NA,NA,NA,NA,"",NA,"39"
"",NA,"",NA,"",NA,NA,NA,NA,NA,NA,NA,"","",1,1,"2024-09-02_09h54.58.197","IAT(Formal)","2021.2.3","Win32",31.94888179,"",NA,"",NA,NA,NA,NA,NA,NA,NA,"","","",NA,"i",1,0.6893,NA,NA,NA,NA,NA,"他","i","",NA,0,28,28,65,1,"",NA,"",NA,NA,NA,NA,NA,NA,NA,"",NA,"",NA,NA,NA,NA,NA,NA,NA,"","","",NA,"",NA,NA,NA,NA,NA,NA,NA,"",NA,"39"
"",NA,"",NA,"",NA,NA,NA,NA,NA,NA,NA,"","",1,1,"2024-09-02_09h54.58.197","IAT(Formal)","2021.2.3","Win32",31.94888179,"",NA,"",NA,NA,NA,NA,NA,NA,NA,"","","",NA,"i",1,0.6212,NA,NA,NA,NA,NA,"其他","i","",NA,0,29,29,9,1,"",NA,"",NA,NA,NA,NA,NA,NA,NA,"",NA,"",NA,NA,NA,NA,NA,NA,NA,"","","",NA,"",NA,NA,NA,NA,NA,NA,NA,"",NA,"39"
"",NA,"",NA,"",NA,NA,NA,NA,NA,NA,NA,"","",1,1,"2024-09-02_09h54.58.197","IAT(Formal)","2021.2.3","Win32",31.94888179,"",NA,"",NA,NA,NA,NA,NA,NA,NA,"","","",NA,"e",1,0.6796,NA,NA,NA,NA,NA,"热情","e","",NA,0,30,30,27,1,"",NA,"",NA,NA,NA,NA,NA,NA,NA,"",NA,"",NA,NA,NA,NA,NA,NA,NA,"","","",NA,"",NA,NA,NA,NA,NA,NA,NA,"",NA,"39"
"",NA,"",NA,"",NA,NA,NA,NA,NA,NA,NA,"","",1,1,"2024-09-02_09h54.58.197","IAT(Formal)","2021.2.3","Win32",31.94888179,"",NA,"",NA,NA,NA,NA,NA,NA,NA,"","","",NA,"e",1,0.6118,NA,NA,NA,NA,NA,"稳重","e","",NA,0,31,31,21,1,"",NA,"",NA,NA,NA,NA,NA,NA,NA,"",NA,"",NA,NA,NA,NA,NA,NA,NA,"","","",NA,"",NA,NA,NA,NA,NA,NA,NA,"",NA,"39"
"",NA,"",NA,"",NA,NA,NA,NA,NA,NA,NA,"","",1,1,"2024-09-02_09h54.58.197","IAT(Formal)","2021.2.3","Win32",31.94888179,"",NA,"",NA,NA,NA,NA,NA,NA,NA,"","","",NA,"i",1,0.7427,NA,NA,NA,NA,NA,"下贱","i","",NA,0,32,32,49,1,"",NA,"",NA,NA,NA,NA,NA,NA,NA,"",NA,"",NA,NA,NA,NA,NA,NA,NA,"","","",NA,"",NA,NA,NA,NA,NA,NA,NA,"",NA,"39"
"",NA,"",NA,"",NA,NA,NA,NA,NA,NA,NA,"","",1,1,"2024-09-02_09h54.58.197","IAT(Formal)","2021.2.3","Win32",31.94888179,"",NA,"",NA,NA,NA,NA,NA,NA,NA,"","","",NA,"e",1,0.6273,NA,NA,NA,NA,NA,"我们","e","",NA,0,33,33,2,1,"",NA,"",NA,NA,NA,NA,NA,NA,NA,"",NA,"",NA,NA,NA,NA,NA,NA,NA,"","","",NA,"",NA,NA,NA,NA,NA,NA,NA,"",NA,"39"
"",NA,"",NA,"",NA,NA,NA,NA,NA,NA,NA,"","",1,1,"2024-09-02_09h54.58.197","IAT(Formal)","2021.2.3","Win32",31.94888179,"",NA,"",NA,NA,NA,NA,NA,NA,NA,"","","",NA,"i",1,0.6314,NA,NA,NA,NA,NA,"他的","i","",NA,0,34,34,57,1,"",NA,"",NA,NA,NA,NA,NA,NA,NA,"",NA,"",NA,NA,NA,NA,NA,NA,NA,"","","",NA,"",NA,NA,NA,NA,NA,NA,NA,"",NA,"39"
"",NA,"",NA,"",NA,NA,NA,NA,NA,NA,NA,"","",1,1,"2024-09-02_09h54.58.197","IAT(Formal)","2021.2.3","Win32",31.94888179,"",NA,"",NA,NA,NA,NA,NA,NA,NA,"","","",NA,"e",1,0.6495,NA,NA,NA,NA,NA,"冷静","e","",NA,0,35,35,26,1,"",NA,"",NA,NA,NA,NA,NA,NA,NA,"",NA,"",NA,NA,NA,NA,NA,NA,NA,"","","",NA,"",NA,NA,NA,NA,NA,NA,NA,"",NA,"39"
"",NA,"",NA,"",NA,NA,NA,NA,NA,NA,NA,"","",1,1,"2024-09-02_09h54.58.197","IAT(Formal)","2021.2.3","Win32",31.94888179,"",NA,"",NA,NA,NA,NA,NA,NA,NA,"","","",NA,"i",0,1.0866,NA,NA,NA,NA,NA,"我","e","",NA,0,36,36,60,1,"",NA,"",NA,NA,NA,NA,NA,NA,NA,"",NA,"",NA,NA,NA,NA,NA,NA,NA,"","","",NA,"",NA,NA,NA,NA,NA,NA,NA,"",NA,"39"
"",NA,"",NA,"",NA,NA,NA,NA,NA,NA,NA,"","",1,1,"2024-09-02_09h54.58.197","IAT(Formal)","2021.2.3","Win32",31.94888179,"",NA,"",NA,NA,NA,NA,NA,NA,NA,"","","",NA,"i",1,0.6553,NA,NA,NA,NA,NA,"固执","i","",NA,0,37,37,47,1,"",NA,"",NA,NA,NA,NA,NA,NA,NA,"",NA,"",NA,NA,NA,NA,NA,NA,NA,"","","",NA,"",NA,NA,NA,NA,NA,NA,NA,"",NA,"39"
"",NA,"",NA,"",NA,NA,NA,NA,NA,NA,NA,"","",1,1,"2024-09-02_09h54.58.197","IAT(Formal)","2021.2.3","Win32",31.94888179,"",NA,"",NA,NA,NA,NA,NA,NA,NA,"","","",NA,"e",1,0.8616,NA,NA,NA,NA,NA,"机智","e","",NA,0,38,38,19,1,"",NA,"",NA,NA,NA,NA,NA,NA,NA,"",NA,"",NA,NA,NA,NA,NA,NA,NA,"","","",NA,"",NA,NA,NA,NA,NA,NA,NA,"",NA,"39"
"",NA,"",NA,"",NA,NA,NA,NA,NA,NA,NA,"","",1,1,"2024-09-02_09h54.58.197","IAT(Formal)","2021.2.3","Win32",31.94888179,"",NA,"",NA,NA,NA,NA,NA,NA,NA,"","","",NA,"e",1,0.5759,NA,NA,NA,NA,NA,"诚恳","e","",NA,0,39,39,29,1,"",NA,"",NA,NA,NA,NA,NA,NA,NA,"",NA,"",NA,NA,NA,NA,NA,NA,NA,"","","",NA,"",NA,NA,NA,NA,NA,NA,NA,"",NA,"39"
"",NA,"",NA,"",NA,NA,NA,NA,NA,NA,NA,"","",1,1,"2024-09-02_09h54.58.197","IAT(Formal)","2021.2.3","Win32",31.94888179,"",NA,"",NA,NA,NA,NA,NA,NA,NA,"","","",NA,"i",1,0.7885,NA,NA,NA,NA,NA,"自卑","i","",NA,0,40,40,36,1,"",NA,"",NA,NA,NA,NA,NA,NA,NA,"",NA,"",NA,NA,NA,NA,NA,NA,NA,"","","",NA,"",NA,NA,NA,NA,NA,NA,NA,"",NA,"39"
"",NA,"",NA,"",NA,NA,NA,NA,NA,NA,NA,"","",1,1,"2024-09-02_09h54.58.197","IAT(Formal)","2021.2.3","Win32",31.94888179,"",NA,"",NA,NA,NA,NA,NA,NA,NA,"","","",NA,"e",1,0.5994,NA,NA,NA,NA,NA,"我的","e","",NA,0,41,41,71,1,"",NA,"",NA,NA,NA,NA,NA,NA,NA,"",NA,"",NA,NA,NA,NA,NA,NA,NA,"","","",NA,"",NA,NA,NA,NA,NA,NA,NA,"",NA,"39"
"",NA,"",NA,"",NA,NA,NA,NA,NA,NA,NA,"","",1,1,"2024-09-02_09h54.58.197","IAT(Formal)","2021.2.3","Win32",31.94888179,"",NA,"",NA,NA,NA,NA,NA,NA,NA,"","","",NA,"i",1,0.8587,NA,NA,NA,NA,NA,"执拗","i","",NA,0,42,42,40,1,"",NA,"",NA,NA,NA,NA,NA,NA,NA,"",NA,"",NA,NA,NA,NA,NA,NA,NA,"","","",NA,"",NA,NA,NA,NA,NA,NA,NA,"",NA,"39"
"",NA,"",NA,"",NA,NA,NA,NA,NA,NA,NA,"","",1,1,"2024-09-02_09h54.58.197","IAT(Formal)","2021.2.3","Win32",31.94888179,"",NA,"",NA,NA,NA,NA,NA,NA,NA,"","","",NA,"i",1,0.6514,NA,NA,NA,NA,NA,"其他","i","",NA,0,43,43,59,1,"",NA,"",NA,NA,NA,NA,NA,NA,NA,"",NA,"",NA,NA,NA,NA,NA,NA,NA,"","","",NA,"",NA,NA,NA,NA,NA,NA,NA,"",NA,"39"
"",NA,"",NA,"",NA,NA,NA,NA,NA,NA,NA,"","",1,1,"2024-09-02_09h54.58.197","IAT(Formal)","2021.2.3","Win32",31.94888179,"",NA,"",NA,NA,NA,NA,NA,NA,NA,"","","",NA,"e",1,0.6358,NA,NA,NA,NA,NA,"勇敢","e","",NA,0,44,44,17,1,"",NA,"",NA,NA,NA,NA,NA,NA,NA,"",NA,"",NA,NA,NA,NA,NA,NA,NA,"","","",NA,"",NA,NA,NA,NA,NA,NA,NA,"",NA,"39"
"",NA,"",NA,"",NA,NA,NA,NA,NA,NA,NA,"","",1,1,"2024-09-02_09h54.58.197","IAT(Formal)","2021.2.3","Win32",31.94888179,"",NA,"",NA,NA,NA,NA,NA,NA,NA,"","","",NA,"i",1,0.6637,NA,NA,NA,NA,NA,"愚蠢","i","",NA,0,45,45,32,1,"",NA,"",NA,NA,NA,NA,NA,NA,NA,"",NA,"",NA,NA,NA,NA,NA,NA,NA,"","","",NA,"",NA,NA,NA,NA,NA,NA,NA,"",NA,"39"
"",NA,"",NA,"",NA,NA,NA,NA,NA,NA,NA,"","",1,1,"2024-09-02_09h54.58.197","IAT(Formal)","2021.2.3","Win32",31.94888179,"",NA,"",NA,NA,NA,NA,NA,NA,NA,"","","",NA,"e",1,0.6138,NA,NA,NA,NA,NA,"诚实","e","",NA,0,46,46,15,1,"",NA,"",NA,NA,NA,NA,NA,NA,NA,"",NA,"",NA,NA,NA,NA,NA,NA,NA,"","","",NA,"",NA,NA,NA,NA,NA,NA,NA,"",NA,"39"
"",NA,"",NA,"",NA,NA,NA,NA,NA,NA,NA,"","",1,1,"2024-09-02_09h54.58.197","IAT(Formal)","2021.2.3","Win32",31.94888179,"",NA,"",NA,NA,NA,NA,NA,NA,NA,"","","",NA,"i",1,0.6623,NA,NA,NA,NA,NA,"他们","i","",NA,0,47,47,76,1,"",NA,"",NA,NA,NA,NA,NA,NA,NA,"",NA,"",NA,NA,NA,NA,NA,NA,NA,"","","",NA,"",NA,NA,NA,NA,NA,NA,NA,"",NA,"39"
"",NA,"",NA,"",NA,NA,NA,NA,NA,NA,NA,"","",1,1,"2024-09-02_09h54.58.197","IAT(Formal)","2021.2.3","Win32",31.94888179,"",NA,"",NA,NA,NA,NA,NA,NA,NA,"","","",NA,"i",1,0.4891,NA,NA,NA,NA,NA,"他们","i","",NA,0,48,48,6,1,"",NA,"",NA,NA,NA,NA,NA,NA,NA,"",NA,"",NA,NA,NA,NA,NA,NA,NA,"","","",NA,"",NA,NA,NA,NA,NA,NA,NA,"",NA,"39"
"",NA,"",NA,"",NA,NA,NA,NA,NA,NA,NA,"","",1,1,"2024-09-02_09h54.58.197","IAT(Formal)","2021.2.3","Win32",31.94888179,"",NA,"",NA,NA,NA,NA,NA,NA,NA,"","","",NA,"e",1,0.6505,NA,NA,NA,NA,NA,"我的","e","",NA,0,49,49,1,1,"",NA,"",NA,NA,NA,NA,NA,NA,NA,"",NA,"",NA,NA,NA,NA,NA,NA,NA,"","","",NA,"",NA,NA,NA,NA,NA,NA,NA,"",NA,"39"
"",NA,"",NA,"",NA,NA,NA,NA,NA,NA,NA,"","",1,1,"2024-09-02_09h54.58.197","IAT(Formal)","2021.2.3","Win32",31.94888179,"",NA,"",NA,NA,NA,NA,NA,NA,NA,"","","",NA,"i",1,0.5914,NA,NA,NA,NA,NA,"他人","i","",NA,0,50,50,58,1,"",NA,"",NA,NA,NA,NA,NA,NA,NA,"",NA,"",NA,NA,NA,NA,NA,NA,NA,"","","",NA,"",NA,NA,NA,NA,NA,NA,NA,"",NA,"39"
"",NA,"",NA,"",NA,NA,NA,NA,NA,NA,NA,"","",1,1,"2024-09-02_09h54.58.197","IAT(Formal)","2021.2.3","Win32",31.94888179,"",NA,"",NA,NA,NA,NA,NA,NA,NA,"","","",NA,"e",1,0.6161,NA,NA,NA,NA,NA,"聪明","e","",NA,0,51,51,12,1,"",NA,"",NA,NA,NA,NA,NA,NA,NA,"",NA,"",NA,NA,NA,NA,NA,NA,NA,"","","",NA,"",NA,NA,NA,NA,NA,NA,NA,"",NA,"39"
"",NA,"",NA,"",NA,NA,NA,NA,NA,NA,NA,"","",1,1,"2024-09-02_09h54.58.197","IAT(Formal)","2021.2.3","Win32",31.94888179,"",NA,"",NA,NA,NA,NA,NA,NA,NA,"","","",NA,"e",1,0.9067,NA,NA,NA,NA,NA,"无私","e","",NA,0,52,52,22,1,"",NA,"",NA,NA,NA,NA,NA,NA,NA,"",NA,"",NA,NA,NA,NA,NA,NA,NA,"","","",NA,"",NA,NA,NA,NA,NA,NA,NA,"",NA,"39"
"",NA,"",NA,"",NA,NA,NA,NA,NA,NA,NA,"","",1,1,"2024-09-02_09h54.58.197","IAT(Formal)","2021.2.3","Win32",31.94888179,"",NA,"",NA,NA,NA,NA,NA,NA,NA,"","","",NA,"e",1,0.5471,NA,NA,NA,NA,NA,"认真","e","",NA,0,53,53,20,1,"",NA,"",NA,NA,NA,NA,NA,NA,NA,"",NA,"",NA,NA,NA,NA,NA,NA,NA,"","","",NA,"",NA,NA,NA,NA,NA,NA,NA,"",NA,"39"
"",NA,"",NA,"",NA,NA,NA,NA,NA,NA,NA,"","",1,1,"2024-09-02_09h54.58.197","IAT(Formal)","2021.2.3","Win32",31.94888179,"",NA,"",NA,NA,NA,NA,NA,NA,NA,"","","",NA,"e",1,0.677,NA,NA,NA,NA,NA,"细腻","e","",NA,0,54,54,25,1,"",NA,"",NA,NA,NA,NA,NA,NA,NA,"",NA,"",NA,NA,NA,NA,NA,NA,NA,"","","",NA,"",NA,NA,NA,NA,NA,NA,NA,"",NA,"39"
"",NA,"",NA,"",NA,NA,NA,NA,NA,NA,NA,"","",1,1,"2024-09-02_09h54.58.197","IAT(Formal)","2021.2.3","Win32",31.94888179,"",NA,"",NA,NA,NA,NA,NA,NA,NA,"","","",NA,"e",1,0.5793,NA,NA,NA,NA,NA,"俺","e","",NA,0,55,55,4,1,"",NA,"",NA,NA,NA,NA,NA,NA,NA,"",NA,"",NA,NA,NA,NA,NA,NA,NA,"","","",NA,"",NA,NA,NA,NA,NA,NA,NA,"",NA,"39"
"",NA,"",NA,"",NA,NA,NA,NA,NA,NA,NA,"","",1,1,"2024-09-02_09h54.58.197","IAT(Formal)","2021.2.3","Win32",31.94888179,"",NA,"",NA,NA,NA,NA,NA,NA,NA,"","","",NA,"i",1,0.7084,NA,NA,NA,NA,NA,"他","i","",NA,0,56,56,55,1,"",NA,"",NA,NA,NA,NA,NA,NA,NA,"",NA,"",NA,NA,NA,NA,NA,NA,NA,"","","",NA,"",NA,NA,NA,NA,NA,NA,NA,"",NA,"39"
"",NA,"",NA,"",NA,NA,NA,NA,NA,NA,NA,"","",1,1,"2024-09-02_09h54.58.197","IAT(Formal)","2021.2.3","Win32",31.94888179,"",NA,"",NA,NA,NA,NA,NA,NA,NA,"","","",NA,"i",1,0.6874,NA,NA,NA,NA,NA,"他人","i","",NA,0,57,57,8,1,"",NA,"",NA,NA,NA,NA,NA,NA,NA,"",NA,"",NA,NA,NA,NA,NA,NA,NA,"","","",NA,"",NA,NA,NA,NA,NA,NA,NA,"",NA,"39"
"",NA,"",NA,"",NA,NA,NA,NA,NA,NA,NA,"","",1,1,"2024-09-02_09h54.58.197","IAT(Formal)","2021.2.3","Win32",31.94888179,"",NA,"",NA,NA,NA,NA,NA,NA,NA,"","","",NA,"i",1,0.9137,NA,NA,NA,NA,NA,"消极","i","",NA,0,58,58,35,1,"",NA,"",NA,NA,NA,NA,NA,NA,NA,"",NA,"",NA,NA,NA,NA,NA,NA,NA,"","","",NA,"",NA,NA,NA,NA,NA,NA,NA,"",NA,"39"
"",NA,"",NA,"",NA,NA,NA,NA,NA,NA,NA,"","",1,1,"2024-09-02_09h54.58.197","IAT(Formal)","2021.2.3","Win32",31.94888179,"",NA,"",NA,NA,NA,NA,NA,NA,NA,"","","",NA,"i",1,1.3111,NA,NA,NA,NA,NA,"卑鄙","i","",NA,0,59,59,30,1,"",NA,"",NA,NA,NA,NA,NA,NA,NA,"",NA,"",NA,NA,NA,NA,NA,NA,NA,"","","",NA,"",NA,NA,NA,NA,NA,NA,NA,"",NA,"39"
"",NA,"",NA,"",NA,NA,NA,NA,NA,NA,NA,"","",1,1,"2024-09-02_09h54.58.197","IAT(Formal)","2021.2.3","Win32",31.94888179,"",NA,"",NA,NA,NA,NA,NA,NA,NA,"","","",NA,"i",1,0.6471,NA,NA,NA,NA,NA,"散漫","i","",NA,0,60,60,41,1,"",NA,"",NA,NA,NA,NA,NA,NA,NA,"",NA,"",NA,NA,NA,NA,NA,NA,NA,"","","",NA,"",NA,NA,NA,NA,NA,NA,NA,"",NA,"39"
"",NA,"",NA,"",NA,NA,NA,NA,NA,NA,NA,"","",1,1,"2024-09-02_09h54.58.197","IAT(Formal)","2021.2.3","Win32",31.94888179,"",NA,"",NA,NA,NA,NA,NA,NA,NA,"","","",NA,"i",1,0.7264,NA,NA,NA,NA,NA,"他们","i","",NA,0,61,61,56,1,"",NA,"",NA,NA,NA,NA,NA,NA,NA,"",NA,"",NA,NA,NA,NA,NA,NA,NA,"","","",NA,"",NA,NA,NA,NA,NA,NA,NA,"",NA,"39"
"",NA,"",NA,"",NA,NA,NA,NA,NA,NA,NA,"","",1,1,"2024-09-02_09h54.58.197","IAT(Formal)","2021.2.3","Win32",31.94888179,"",NA,"",NA,NA,NA,NA,NA,NA,NA,"","","",NA,"e",1,0.7945,NA,NA,NA,NA,NA,"杰出","e","",NA,0,62,62,13,1,"",NA,"",NA,NA,NA,NA,NA,NA,NA,"",NA,"",NA,NA,NA,NA,NA,NA,NA,"","","",NA,"",NA,NA,NA,NA,NA,NA,NA,"",NA,"39"
"",NA,"",NA,"",NA,NA,NA,NA,NA,NA,NA,"","",1,1,"2024-09-02_09h54.58.197","IAT(Formal)","2021.2.3","Win32",31.94888179,"",NA,"",NA,NA,NA,NA,NA,NA,NA,"","","",NA,"i",1,0.6527,NA,NA,NA,NA,NA,"冒失","i","",NA,0,63,63,39,1,"",NA,"",NA,NA,NA,NA,NA,NA,NA,"",NA,"",NA,NA,NA,NA,NA,NA,NA,"","","",NA,"",NA,NA,NA,NA,NA,NA,NA,"",NA,"39"
"",NA,"",NA,"",NA,NA,NA,NA,NA,NA,NA,"","",1,1,"2024-09-02_09h54.58.197","IAT(Formal)","2021.2.3","Win32",31.94888179,"",NA,"",NA,NA,NA,NA,NA,NA,NA,"","","",NA,"i",1,0.7977,NA,NA,NA,NA,NA,"轻率","i","",NA,0,64,64,48,1,"",NA,"",NA,NA,NA,NA,NA,NA,NA,"",NA,"",NA,NA,NA,NA,NA,NA,NA,"","","",NA,"",NA,NA,NA,NA,NA,NA,NA,"",NA,"39"
"",NA,"",NA,"",NA,NA,NA,NA,NA,NA,NA,"","",1,1,"2024-09-02_09h54.58.197","IAT(Formal)","2021.2.3","Win32",31.94888179,"",NA,"",NA,NA,NA,NA,NA,NA,NA,"","","",NA,"i",1,0.722,NA,NA,NA,NA,NA,"野蛮","i","",NA,0,65,65,46,1,"",NA,"",NA,NA,NA,NA,NA,NA,NA,"",NA,"",NA,NA,NA,NA,NA,NA,NA,"","","",NA,"",NA,NA,NA,NA,NA,NA,NA,"",NA,"39"
"",NA,"",NA,"",NA,NA,NA,NA,NA,NA,NA,"","",1,1,"2024-09-02_09h54.58.197","IAT(Formal)","2021.2.3","Win32",31.94888179,"",NA,"",NA,NA,NA,NA,NA,NA,NA,"","","",NA,"e",0,1.4092,NA,NA,NA,NA,NA,"自私","i","",NA,0,66,66,43,1,"",NA,"",NA,NA,NA,NA,NA,NA,NA,"",NA,"",NA,NA,NA,NA,NA,NA,NA,"","","",NA,"",NA,NA,NA,NA,NA,NA,NA,"",NA,"39"
"",NA,"",NA,"",NA,NA,NA,NA,NA,NA,NA,"","",1,1,"2024-09-02_09h54.58.197","IAT(Formal)","2021.2.3","Win32",31.94888179,"",NA,"",NA,NA,NA,NA,NA,NA,NA,"","","",NA,"i",1,0.4927,NA,NA,NA,NA,NA,"他的","i","",NA,0,67,67,67,1,"",NA,"",NA,NA,NA,NA,NA,NA,NA,"",NA,"",NA,NA,NA,NA,NA,NA,NA,"","","",NA,"",NA,NA,NA,NA,NA,NA,NA,"",NA,"39"
"",NA,"",NA,"",NA,NA,NA,NA,NA,NA,NA,"","",1,1,"2024-09-02_09h54.58.197","IAT(Formal)","2021.2.3","Win32",31.94888179,"",NA,"",NA,NA,NA,NA,NA,NA,NA,"","","",NA,"e",1,0.9637,NA,NA,NA,NA,NA,"朴实","e","",NA,0,68,68,24,1,"",NA,"",NA,NA,NA,NA,NA,NA,NA,"",NA,"",NA,NA,NA,NA,NA,NA,NA,"","","",NA,"",NA,NA,NA,NA,NA,NA,NA,"",NA,"39"
"",NA,"",NA,"",NA,NA,NA,NA,NA,NA,NA,"","",1,1,"2024-09-02_09h54.58.197","IAT(Formal)","2021.2.3","Win32",31.94888179,"",NA,"",NA,NA,NA,NA,NA,NA,NA,"","","",NA,"e",1,0.7563,NA,NA,NA,NA,NA,"崇高","e","",NA,0,69,69,11,1,"",NA,"",NA,NA,NA,NA,NA,NA,NA,"",NA,"",NA,NA,NA,NA,NA,NA,NA,"","","",NA,"",NA,NA,NA,NA,NA,NA,NA,"",NA,"39"
"",NA,"",NA,"",NA,NA,NA,NA,NA,NA,NA,"","",1,1,"2024-09-02_09h54.58.197","IAT(Formal)","2021.2.3","Win32",31.94888179,"",NA,"",NA,NA,NA,NA,NA,NA,NA,"","","",NA,"e",1,0.5792,NA,NA,NA,NA,NA,"优秀","e","",NA,0,70,70,10,1,"",NA,"",NA,NA,NA,NA,NA,NA,NA,"",NA,"",NA,NA,NA,NA,NA,NA,NA,"","","",NA,"",NA,NA,NA,NA,NA,NA,NA,"",NA,"39"
"",NA,"",NA,"",NA,NA,NA,NA,NA,NA,NA,"","",1,1,"2024-09-02_09h54.58.197","IAT(Formal)","2021.2.3","Win32",31.94888179,"",NA,"",NA,NA,NA,NA,NA,NA,NA,"","","",NA,"i",1,0.7531,NA,NA,NA,NA,NA,"他的","i","",NA,0,71,71,7,1,"",NA,"",NA,NA,NA,NA,NA,NA,NA,"",NA,"",NA,NA,NA,NA,NA,NA,NA,"","","",NA,"",NA,NA,NA,NA,NA,NA,NA,"",NA,"39"
"",NA,"",NA,"",NA,NA,NA,NA,NA,NA,NA,"","",1,1,"2024-09-02_09h54.58.197","IAT(Formal)","2021.2.3","Win32",31.94888179,"",NA,"",NA,NA,NA,NA,NA,NA,NA,"","","",NA,"e",1,0.6342,NA,NA,NA,NA,NA,"自己","e","",NA,0,72,72,63,1,"",NA,"",NA,NA,NA,NA,NA,NA,NA,"",NA,"",NA,NA,NA,NA,NA,NA,NA,"","","",NA,"",NA,NA,NA,NA,NA,NA,NA,"",NA,"39"
"",NA,"",NA,"",NA,NA,NA,NA,NA,NA,NA,"","",1,1,"2024-09-02_09h54.58.197","IAT(Formal)","2021.2.3","Win32",31.94888179,"",NA,"",NA,NA,NA,NA,NA,NA,NA,"","","",NA,"i",1,0.7188,NA,NA,NA,NA,NA,"猖狂","i","",NA,0,73,73,45,1,"",NA,"",NA,NA,NA,NA,NA,NA,NA,"",NA,"",NA,NA,NA,NA,NA,NA,NA,"","","",NA,"",NA,NA,NA,NA,NA,NA,NA,"",NA,"39"
"",NA,"",NA,"",NA,NA,NA,NA,NA,NA,NA,"","",1,1,"2024-09-02_09h54.58.197","IAT(Formal)","2021.2.3","Win32",31.94888179,"",NA,"",NA,NA,NA,NA,NA,NA,NA,"","","",NA,"i",1,0.7537,NA,NA,NA,NA,NA,"他人","i","",NA,0,74,74,68,1,"",NA,"",NA,NA,NA,NA,NA,NA,NA,"",NA,"",NA,NA,NA,NA,NA,NA,NA,"","","",NA,"",NA,NA,NA,NA,NA,NA,NA,"",NA,"39"
"",NA,"",NA,"",NA,NA,NA,NA,NA,NA,NA,"","",1,1,"2024-09-02_09h54.58.197","IAT(Formal)","2021.2.3","Win32",31.94888179,"",NA,"",NA,NA,NA,NA,NA,NA,NA,"","","",NA,"e",1,0.8091,NA,NA,NA,NA,NA,"自己","e","",NA,0,75,75,53,1,"",NA,"",NA,NA,NA,NA,NA,NA,NA,"",NA,"",NA,NA,NA,NA,NA,NA,NA,"","","",NA,"",NA,NA,NA,NA,NA,NA,NA,"",NA,"39"
"",NA,"",NA,"",NA,NA,NA,NA,NA,NA,NA,"","",1,1,"2024-09-02_09h54.58.197","IAT(Formal)","2021.2.3","Win32",31.94888179,"",NA,"",NA,NA,NA,NA,NA,NA,NA,"","","",NA,"i",1,0.6505,NA,NA,NA,NA,NA,"凶狠","i","",NA,0,76,76,42,1,"",NA,"",NA,NA,NA,NA,NA,NA,NA,"",NA,"",NA,NA,NA,NA,NA,NA,NA,"","","",NA,"",NA,NA,NA,NA,NA,NA,NA,"",NA,"39"
"",NA,"",NA,"",NA,NA,NA,NA,NA,NA,NA,"","",1,1,"2024-09-02_09h54.58.197","IAT(Formal)","2021.2.3","Win32",31.94888179,"",NA,"",NA,NA,NA,NA,NA,NA,NA,"","","",NA,"e",1,0.6165,NA,NA,NA,NA,NA,"我","e","",NA,0,77,77,50,1,"",NA,"",NA,NA,NA,NA,NA,NA,NA,"",NA,"",NA,NA,NA,NA,NA,NA,NA,"","","",NA,"",NA,NA,NA,NA,NA,NA,NA,"",NA,"39"
"",NA,"",NA,"",NA,NA,NA,NA,NA,NA,NA,"","",1,1,"2024-09-02_09h54.58.197","IAT(Formal)","2021.2.3","Win32",31.94888179,"",NA,"",NA,NA,NA,NA,NA,NA,NA,"","","",NA,"i",1,0.8104,NA,NA,NA,NA,NA,"鲁莽","i","",NA,0,78,78,38,1,"",NA,"",NA,NA,NA,NA,NA,NA,NA,"",NA,"",NA,NA,NA,NA,NA,NA,NA,"","","",NA,"",NA,NA,NA,NA,NA,NA,NA,"",NA,"39"
"",NA,"",NA,"",NA,NA,NA,NA,NA,NA,NA,"","",1,1,"2024-09-02_09h54.58.197","IAT(Formal)","2021.2.3","Win32",31.94888179,"",NA,"",NA,NA,NA,NA,NA,NA,NA,"","","",NA,"i",1,0.5974,NA,NA,NA,NA,NA,"刻薄","i","",NA,0,79,79,33,1,"",NA,"",NA,NA,NA,NA,NA,NA,NA,"",NA,"",NA,NA,NA,NA,NA,NA,NA,"","","",NA,"",NA,NA,NA,NA,NA,NA,NA,"",NA,"39"
"",NA,"",NA,"",NA,NA,NA,NA,NA,NA,NA,"","",1,1,"2024-09-02_09h54.58.197","IAT(Formal)","2021.2.3","Win32",31.94888179,"",NA,"",NA,NA,NA,NA,NA,NA,NA,"","","",NA,"e",1,0.6896,NA,NA,NA,NA,NA,"自己","e","",NA,1,0,80,73,1,"",NA,"",NA,NA,NA,NA,NA,NA,NA,"",NA,"",NA,NA,NA,NA,NA,NA,NA,"","","",NA,"",NA,NA,NA,NA,NA,NA,NA,"",NA,"39"
"",NA,"",NA,"",NA,NA,NA,NA,NA,NA,NA,"","",1,1,"2024-09-02_09h54.58.197","IAT(Formal)","2021.2.3","Win32",31.94888179,"",NA,"",NA,NA,NA,NA,NA,NA,NA,"","","",NA,"e",1,0.782,NA,NA,NA,NA,NA,"公正","e","",NA,1,1,81,23,1,"",NA,"",NA,NA,NA,NA,NA,NA,NA,"",NA,"",NA,NA,NA,NA,NA,NA,NA,"","","",NA,"",NA,NA,NA,NA,NA,NA,NA,"",NA,"39"
"",NA,"",NA,"",NA,NA,NA,NA,NA,NA,NA,"","",1,1,"2024-09-02_09h54.58.197","IAT(Formal)","2021.2.3","Win32",31.94888179,"",NA,"",NA,NA,NA,NA,NA,NA,NA,"","","",NA,"i",1,0.5972,NA,NA,NA,NA,NA,"他人","i","",NA,1,2,82,58,1,"",NA,"",NA,NA,NA,NA,NA,NA,NA,"",NA,"",NA,NA,NA,NA,NA,NA,NA,"","","",NA,"",NA,NA,NA,NA,NA,NA,NA,"",NA,"39"
"",NA,"",NA,"",NA,NA,NA,NA,NA,NA,NA,"","",1,1,"2024-09-02_09h54.58.197","IAT(Formal)","2021.2.3","Win32",31.94888179,"",NA,"",NA,NA,NA,NA,NA,NA,NA,"","","",NA,"e",1,0.7791,NA,NA,NA,NA,NA,"俺","e","",NA,1,3,83,74,1,"",NA,"",NA,NA,NA,NA,NA,NA,NA,"",NA,"",NA,NA,NA,NA,NA,NA,NA,"","","",NA,"",NA,NA,NA,NA,NA,NA,NA,"",NA,"39"
"",NA,"",NA,"",NA,NA,NA,NA,NA,NA,NA,"","",1,1,"2024-09-02_09h54.58.197","IAT(Formal)","2021.2.3","Win32",31.94888179,"",NA,"",NA,NA,NA,NA,NA,NA,NA,"","","",NA,"e",1,0.5646,NA,NA,NA,NA,NA,"乐观","e","",NA,1,4,84,14,1,"",NA,"",NA,NA,NA,NA,NA,NA,NA,"",NA,"",NA,NA,NA,NA,NA,NA,NA,"","","",NA,"",NA,NA,NA,NA,NA,NA,NA,"",NA,"39"
"",NA,"",NA,"",NA,NA,NA,NA,NA,NA,NA,"","",1,1,"2024-09-02_09h54.58.197","IAT(Formal)","2021.2.3","Win32",31.94888179,"",NA,"",NA,NA,NA,NA,NA,NA,NA,"","","",NA,"i",1,0.6102,NA,NA,NA,NA,NA,"他的","i","",NA,1,5,85,77,1,"",NA,"",NA,NA,NA,NA,NA,NA,NA,"",NA,"",NA,NA,NA,NA,NA,NA,NA,"","","",NA,"",NA,NA,NA,NA,NA,NA,NA,"",NA,"39"
"",NA,"",NA,"",NA,NA,NA,NA,NA,NA,NA,"","",1,1,"2024-09-02_09h54.58.197","IAT(Formal)","2021.2.3","Win32",31.94888179,"",NA,"",NA,NA,NA,NA,NA,NA,NA,"","","",NA,"i",1,1.0239,NA,NA,NA,NA,NA,"自卑","i","",NA,1,6,86,36,1,"",NA,"",NA,NA,NA,NA,NA,NA,NA,"",NA,"",NA,NA,NA,NA,NA,NA,NA,"","","",NA,"",NA,NA,NA,NA,NA,NA,NA,"",NA,"39"
"",NA,"",NA,"",NA,NA,NA,NA,NA,NA,NA,"","",1,1,"2024-09-02_09h54.58.197","IAT(Formal)","2021.2.3","Win32",31.94888179,"",NA,"",NA,NA,NA,NA,NA,NA,NA,"","","",NA,"e",1,0.8303,NA,NA,NA,NA,NA,"杰出","e","",NA,1,7,87,13,1,"",NA,"",NA,NA,NA,NA,NA,NA,NA,"",NA,"",NA,NA,NA,NA,NA,NA,NA,"","","",NA,"",NA,NA,NA,NA,NA,NA,NA,"",NA,"39"
"",NA,"",NA,"",NA,NA,NA,NA,NA,NA,NA,"","",1,1,"2024-09-02_09h54.58.197","IAT(Formal)","2021.2.3","Win32",31.94888179,"",NA,"",NA,NA,NA,NA,NA,NA,NA,"","","",NA,"i",1,0.5215,NA,NA,NA,NA,NA,"猖狂","i","",NA,1,8,88,45,1,"",NA,"",NA,NA,NA,NA,NA,NA,NA,"",NA,"",NA,NA,NA,NA,NA,NA,NA,"","","",NA,"",NA,NA,NA,NA,NA,NA,NA,"",NA,"39"
"",NA,"",NA,"",NA,NA,NA,NA,NA,NA,NA,"","",1,1,"2024-09-02_09h54.58.197","IAT(Formal)","2021.2.3","Win32",31.94888179,"",NA,"",NA,NA,NA,NA,NA,NA,NA,"","","",NA,"e",1,0.6731,NA,NA,NA,NA,NA,"俺","e","",NA,1,9,89,64,1,"",NA,"",NA,NA,NA,NA,NA,NA,NA,"",NA,"",NA,NA,NA,NA,NA,NA,NA,"","","",NA,"",NA,NA,NA,NA,NA,NA,NA,"",NA,"39"
"",NA,"",NA,"",NA,NA,NA,NA,NA,NA,NA,"","",1,1,"2024-09-02_09h54.58.197","IAT(Formal)","2021.2.3","Win32",31.94888179,"",NA,"",NA,NA,NA,NA,NA,NA,NA,"","","",NA,"i",1,0.6137,NA,NA,NA,NA,NA,"他","i","",NA,1,10,90,75,1,"",NA,"",NA,NA,NA,NA,NA,NA,NA,"",NA,"",NA,NA,NA,NA,NA,NA,NA,"","","",NA,"",NA,NA,NA,NA,NA,NA,NA,"",NA,"39"
"",NA,"",NA,"",NA,NA,NA,NA,NA,NA,NA,"","",1,1,"2024-09-02_09h54.58.197","IAT(Formal)","2021.2.3","Win32",31.94888179,"",NA,"",NA,NA,NA,NA,NA,NA,NA,"","","",NA,"e",1,0.6597,NA,NA,NA,NA,NA,"我的","e","",NA,1,11,91,61,1,"",NA,"",NA,NA,NA,NA,NA,NA,NA,"",NA,"",NA,NA,NA,NA,NA,NA,NA,"","","",NA,"",NA,NA,NA,NA,NA,NA,NA,"",NA,"39"
"",NA,"",NA,"",NA,NA,NA,NA,NA,NA,NA,"","",1,1,"2024-09-02_09h54.58.197","IAT(Formal)","2021.2.3","Win32",31.94888179,"",NA,"",NA,NA,NA,NA,NA,NA,NA,"","","",NA,"i",1,0.787,NA,NA,NA,NA,NA,"他人","i","",NA,1,12,92,8,1,"",NA,"",NA,NA,NA,NA,NA,NA,NA,"",NA,"",NA,NA,NA,NA,NA,NA,NA,"","","",NA,"",NA,NA,NA,NA,NA,NA,NA,"",NA,"39"
"",NA,"",NA,"",NA,NA,NA,NA,NA,NA,NA,"","",1,1,"2024-09-02_09h54.58.197","IAT(Formal)","2021.2.3","Win32",31.94888179,"",NA,"",NA,NA,NA,NA,NA,NA,NA,"","","",NA,"i",1,0.5043,NA,NA,NA,NA,NA,"他","i","",NA,1,13,93,65,1,"",NA,"",NA,NA,NA,NA,NA,NA,NA,"",NA,"",NA,NA,NA,NA,NA,NA,NA,"","","",NA,"",NA,NA,NA,NA,NA,NA,NA,"",NA,"39"
"",NA,"",NA,"",NA,NA,NA,NA,NA,NA,NA,"","",1,1,"2024-09-02_09h54.58.197","IAT(Formal)","2021.2.3","Win32",31.94888179,"",NA,"",NA,NA,NA,NA,NA,NA,NA,"","","",NA,"i",1,0.5204,NA,NA,NA,NA,NA,"他","i","",NA,1,14,94,5,1,"",NA,"",NA,NA,NA,NA,NA,NA,NA,"",NA,"",NA,NA,NA,NA,NA,NA,NA,"","","",NA,"",NA,NA,NA,NA,NA,NA,NA,"",NA,"39"
"",NA,"",NA,"",NA,NA,NA,NA,NA,NA,NA,"","",1,1,"2024-09-02_09h54.58.197","IAT(Formal)","2021.2.3","Win32",31.94888179,"",NA,"",NA,NA,NA,NA,NA,NA,NA,"","","",NA,"i",1,0.6996,NA,NA,NA,NA,NA,"冒失","i","",NA,1,15,95,39,1,"",NA,"",NA,NA,NA,NA,NA,NA,NA,"",NA,"",NA,NA,NA,NA,NA,NA,NA,"","","",NA,"",NA,NA,NA,NA,NA,NA,NA,"",NA,"39"
"",NA,"",NA,"",NA,NA,NA,NA,NA,NA,NA,"","",1,1,"2024-09-02_09h54.58.197","IAT(Formal)","2021.2.3","Win32",31.94888179,"",NA,"",NA,NA,NA,NA,NA,NA,NA,"","","",NA,"i",1,0.6889,NA,NA,NA,NA,NA,"散漫","i","",NA,1,16,96,41,1,"",NA,"",NA,NA,NA,NA,NA,NA,NA,"",NA,"",NA,NA,NA,NA,NA,NA,NA,"","","",NA,"",NA,NA,NA,NA,NA,NA,NA,"",NA,"39"
"",NA,"",NA,"",NA,NA,NA,NA,NA,NA,NA,"","",1,1,"2024-09-02_09h54.58.197","IAT(Formal)","2021.2.3","Win32",31.94888179,"",NA,"",NA,NA,NA,NA,NA,NA,NA,"","","",NA,"e",1,0.7599,NA,NA,NA,NA,NA,"认真","e","",NA,1,17,97,20,1,"",NA,"",NA,NA,NA,NA,NA,NA,NA,"",NA,"",NA,NA,NA,NA,NA,NA,NA,"","","",NA,"",NA,NA,NA,NA,NA,NA,NA,"",NA,"39"
"",NA,"",NA,"",NA,NA,NA,NA,NA,NA,NA,"","",1,1,"2024-09-02_09h54.58.197","IAT(Formal)","2021.2.3","Win32",31.94888179,"",NA,"",NA,NA,NA,NA,NA,NA,NA,"","","",NA,"i",1,0.6196,NA,NA,NA,NA,NA,"其他","i","",NA,1,18,98,79,1,"",NA,"",NA,NA,NA,NA,NA,NA,NA,"",NA,"",NA,NA,NA,NA,NA,NA,NA,"","","",NA,"",NA,NA,NA,NA,NA,NA,NA,"",NA,"39"
"",NA,"",NA,"",NA,NA,NA,NA,NA,NA,NA,"","",1,1,"2024-09-02_09h54.58.197","IAT(Formal)","2021.2.3","Win32",31.94888179,"",NA,"",NA,NA,NA,NA,NA,NA,NA,"","","",NA,"i",1,0.854,NA,NA,NA,NA,NA,"他们","i","",NA,1,19,99,76,1,"",NA,"",NA,NA,NA,NA,NA,NA,NA,"",NA,"",NA,NA,NA,NA,NA,NA,NA,"","","",NA,"",NA,NA,NA,NA,NA,NA,NA,"",NA,"39"
"",NA,"",NA,"",NA,NA,NA,NA,NA,NA,NA,"","",1,1,"2024-09-02_09h54.58.197","IAT(Formal)","2021.2.3","Win32",31.94888179,"",NA,"",NA,NA,NA,NA,NA,NA,NA,"","","",NA,"i",1,0.6089,NA,NA,NA,NA,NA,"轻率","i","",NA,1,20,100,48,1,"",NA,"",NA,NA,NA,NA,NA,NA,NA,"",NA,"",NA,NA,NA,NA,NA,NA,NA,"","","",NA,"",NA,NA,NA,NA,NA,NA,NA,"",NA,"39"
"",NA,"",NA,"",NA,NA,NA,NA,NA,NA,NA,"","",1,1,"2024-09-02_09h54.58.197","IAT(Formal)","2021.2.3","Win32",31.94888179,"",NA,"",NA,NA,NA,NA,NA,NA,NA,"","","",NA,"i",1,0.5515,NA,NA,NA,NA,NA,"刻薄","i","",NA,1,21,101,33,1,"",NA,"",NA,NA,NA,NA,NA,NA,NA,"",NA,"",NA,NA,NA,NA,NA,NA,NA,"","","",NA,"",NA,NA,NA,NA,NA,NA,NA,"",NA,"39"
"",NA,"",NA,"",NA,NA,NA,NA,NA,NA,NA,"","",1,1,"2024-09-02_09h54.58.197","IAT(Formal)","2021.2.3","Win32",31.94888179,"",NA,"",NA,NA,NA,NA,NA,NA,NA,"","","",NA,"i",1,0.5107,NA,NA,NA,NA,NA,"凶狠","i","",NA,1,22,102,42,1,"",NA,"",NA,NA,NA,NA,NA,NA,NA,"",NA,"",NA,NA,NA,NA,NA,NA,NA,"","","",NA,"",NA,NA,NA,NA,NA,NA,NA,"",NA,"39"
"",NA,"",NA,"",NA,NA,NA,NA,NA,NA,NA,"","",1,1,"2024-09-02_09h54.58.197","IAT(Formal)","2021.2.3","Win32",31.94888179,"",NA,"",NA,NA,NA,NA,NA,NA,NA,"","","",NA,"e",1,0.5746,NA,NA,NA,NA,NA,"我的","e","",NA,1,23,103,71,1,"",NA,"",NA,NA,NA,NA,NA,NA,NA,"",NA,"",NA,NA,NA,NA,NA,NA,NA,"","","",NA,"",NA,NA,NA,NA,NA,NA,NA,"",NA,"39"
"",NA,"",NA,"",NA,NA,NA,NA,NA,NA,NA,"","",1,1,"2024-09-02_09h54.58.197","IAT(Formal)","2021.2.3","Win32",31.94888179,"",NA,"",NA,NA,NA,NA,NA,NA,NA,"","","",NA,"e",1,0.6848,NA,NA,NA,NA,NA,"无私","e","",NA,1,24,104,22,1,"",NA,"",NA,NA,NA,NA,NA,NA,NA,"",NA,"",NA,NA,NA,NA,NA,NA,NA,"","","",NA,"",NA,NA,NA,NA,NA,NA,NA,"",NA,"39"
"",NA,"",NA,"",NA,NA,NA,NA,NA,NA,NA,"","",1,1,"2024-09-02_09h54.58.197","IAT(Formal)","2021.2.3","Win32",31.94888179,"",NA,"",NA,NA,NA,NA,NA,NA,NA,"","","",NA,"i",1,0.6405,NA,NA,NA,NA,NA,"他们","i","",NA,1,25,105,56,1,"",NA,"",NA,NA,NA,NA,NA,NA,NA,"",NA,"",NA,NA,NA,NA,NA,NA,NA,"","","",NA,"",NA,NA,NA,NA,NA,NA,NA,"",NA,"39"
"",NA,"",NA,"",NA,NA,NA,NA,NA,NA,NA,"","",1,1,"2024-09-02_09h54.58.197","IAT(Formal)","2021.2.3","Win32",31.94888179,"",NA,"",NA,NA,NA,NA,NA,NA,NA,"","","",NA,"i",1,0.5525,NA,NA,NA,NA,NA,"其他","i","",NA,1,26,106,69,1,"",NA,"",NA,NA,NA,NA,NA,NA,NA,"",NA,"",NA,NA,NA,NA,NA,NA,NA,"","","",NA,"",NA,NA,NA,NA,NA,NA,NA,"",NA,"39"
"",NA,"",NA,"",NA,NA,NA,NA,NA,NA,NA,"","",1,1,"2024-09-02_09h54.58.197","IAT(Formal)","2021.2.3","Win32",31.94888179,"",NA,"",NA,NA,NA,NA,NA,NA,NA,"","","",NA,"i",1,0.8129,NA,NA,NA,NA,NA,"消极","i","",NA,1,27,107,35,1,"",NA,"",NA,NA,NA,NA,NA,NA,NA,"",NA,"",NA,NA,NA,NA,NA,NA,NA,"","","",NA,"",NA,NA,NA,NA,NA,NA,NA,"",NA,"39"
"",NA,"",NA,"",NA,NA,NA,NA,NA,NA,NA,"","",1,1,"2024-09-02_09h54.58.197","IAT(Formal)","2021.2.3","Win32",31.94888179,"",NA,"",NA,NA,NA,NA,NA,NA,NA,"","","",NA,"i",1,0.6977,NA,NA,NA,NA,NA,"虚伪","i","",NA,1,28,108,31,1,"",NA,"",NA,NA,NA,NA,NA,NA,NA,"",NA,"",NA,NA,NA,NA,NA,NA,NA,"","","",NA,"",NA,NA,NA,NA,NA,NA,NA,"",NA,"39"
"",NA,"",NA,"",NA,NA,NA,NA,NA,NA,NA,"","",1,1,"2024-09-02_09h54.58.197","IAT(Formal)","2021.2.3","Win32",31.94888179,"",NA,"",NA,NA,NA,NA,NA,NA,NA,"","","",NA,"e",1,0.6276,NA,NA,NA,NA,NA,"崇高","e","",NA,1,29,109,11,1,"",NA,"",NA,NA,NA,NA,NA,NA,NA,"",NA,"",NA,NA,NA,NA,NA,NA,NA,"","","",NA,"",NA,NA,NA,NA,NA,NA,NA,"",NA,"39"
"",NA,"",NA,"",NA,NA,NA,NA,NA,NA,NA,"","",1,1,"2024-09-02_09h54.58.197","IAT(Formal)","2021.2.3","Win32",31.94888179,"",NA,"",NA,NA,NA,NA,NA,NA,NA,"","","",NA,"e",1,0.6716,NA,NA,NA,NA,NA,"细腻","e","",NA,1,30,110,25,1,"",NA,"",NA,NA,NA,NA,NA,NA,NA,"",NA,"",NA,NA,NA,NA,NA,NA,NA,"","","",NA,"",NA,NA,NA,NA,NA,NA,NA,"",NA,"39"
"",NA,"",NA,"",NA,NA,NA,NA,NA,NA,NA,"","",1,1,"2024-09-02_09h54.58.197","IAT(Formal)","2021.2.3","Win32",31.94888179,"",NA,"",NA,NA,NA,NA,NA,NA,NA,"","","",NA,"e",1,0.6323,NA,NA,NA,NA,NA,"聪明","e","",NA,1,31,111,12,1,"",NA,"",NA,NA,NA,NA,NA,NA,NA,"",NA,"",NA,NA,NA,NA,NA,NA,NA,"","","",NA,"",NA,NA,NA,NA,NA,NA,NA,"",NA,"39"
"",NA,"",NA,"",NA,NA,NA,NA,NA,NA,NA,"","",1,1,"2024-09-02_09h54.58.197","IAT(Formal)","2021.2.3","Win32",31.94888179,"",NA,"",NA,NA,NA,NA,NA,NA,NA,"","","",NA,"i",1,0.6963,NA,NA,NA,NA,NA,"其他","i","",NA,1,32,112,9,1,"",NA,"",NA,NA,NA,NA,NA,NA,NA,"",NA,"",NA,NA,NA,NA,NA,NA,NA,"","","",NA,"",NA,NA,NA,NA,NA,NA,NA,"",NA,"39"
"",NA,"",NA,"",NA,NA,NA,NA,NA,NA,NA,"","",1,1,"2024-09-02_09h54.58.197","IAT(Formal)","2021.2.3","Win32",31.94888179,"",NA,"",NA,NA,NA,NA,NA,NA,NA,"","","",NA,"e",1,0.882,NA,NA,NA,NA,NA,"朴实","e","",NA,1,33,113,24,1,"",NA,"",NA,NA,NA,NA,NA,NA,NA,"",NA,"",NA,NA,NA,NA,NA,NA,NA,"","","",NA,"",NA,NA,NA,NA,NA,NA,NA,"",NA,"39"
"",NA,"",NA,"",NA,NA,NA,NA,NA,NA,NA,"","",1,1,"2024-09-02_09h54.58.197","IAT(Formal)","2021.2.3","Win32",31.94888179,"",NA,"",NA,NA,NA,NA,NA,NA,NA,"","","",NA,"e",1,0.566,NA,NA,NA,NA,NA,"我们","e","",NA,1,34,114,52,1,"",NA,"",NA,NA,NA,NA,NA,NA,NA,"",NA,"",NA,NA,NA,NA,NA,NA,NA,"","","",NA,"",NA,NA,NA,NA,NA,NA,NA,"",NA,"39"
"",NA,"",NA,"",NA,NA,NA,NA,NA,NA,NA,"","",1,1,"2024-09-02_09h54.58.197","IAT(Formal)","2021.2.3","Win32",31.94888179,"",NA,"",NA,NA,NA,NA,NA,NA,NA,"","","",NA,"e",1,0.7245,NA,NA,NA,NA,NA,"诚实","e","",NA,1,35,115,15,1,"",NA,"",NA,NA,NA,NA,NA,NA,NA,"",NA,"",NA,NA,NA,NA,NA,NA,NA,"","","",NA,"",NA,NA,NA,NA,NA,NA,NA,"",NA,"39"
"",NA,"",NA,"",NA,NA,NA,NA,NA,NA,NA,"","",1,1,"2024-09-02_09h54.58.197","IAT(Formal)","2021.2.3","Win32",31.94888179,"",NA,"",NA,NA,NA,NA,NA,NA,NA,"","","",NA,"e",1,0.4978,NA,NA,NA,NA,NA,"我们","e","",NA,1,36,116,2,1,"",NA,"",NA,NA,NA,NA,NA,NA,NA,"",NA,"",NA,NA,NA,NA,NA,NA,NA,"","","",NA,"",NA,NA,NA,NA,NA,NA,NA,"",NA,"39"
"",NA,"",NA,"",NA,NA,NA,NA,NA,NA,NA,"","",1,1,"2024-09-02_09h54.58.197","IAT(Formal)","2021.2.3","Win32",31.94888179,"",NA,"",NA,NA,NA,NA,NA,NA,NA,"","","",NA,"e",1,0.6589,NA,NA,NA,NA,NA,"俺","e","",NA,1,37,117,4,1,"",NA,"",NA,NA,NA,NA,NA,NA,NA,"",NA,"",NA,NA,NA,NA,NA,NA,NA,"","","",NA,"",NA,NA,NA,NA,NA,NA,NA,"",NA,"39"
"",NA,"",NA,"",NA,NA,NA,NA,NA,NA,NA,"","",1,1,"2024-09-02_09h54.58.197","IAT(Formal)","2021.2.3","Win32",31.94888179,"",NA,"",NA,NA,NA,NA,NA,NA,NA,"","","",NA,"e",0,0.5829,NA,NA,NA,NA,NA,"自私","i","",NA,1,38,118,43,1,"",NA,"",NA,NA,NA,NA,NA,NA,NA,"",NA,"",NA,NA,NA,NA,NA,NA,NA,"","","",NA,"",NA,NA,NA,NA,NA,NA,NA,"",NA,"39"
"",NA,"",NA,"",NA,NA,NA,NA,NA,NA,NA,"","",1,1,"2024-09-02_09h54.58.197","IAT(Formal)","2021.2.3","Win32",31.94888179,"",NA,"",NA,NA,NA,NA,NA,NA,NA,"","","",NA,"i",1,0.818,NA,NA,NA,NA,NA,"固执","i","",NA,1,39,119,47,1,"",NA,"",NA,NA,NA,NA,NA,NA,NA,"",NA,"",NA,NA,NA,NA,NA,NA,NA,"","","",NA,"",NA,NA,NA,NA,NA,NA,NA,"",NA,"39"
"",NA,"",NA,"",NA,NA,NA,NA,NA,NA,NA,"","",1,1,"2024-09-02_09h54.58.197","IAT(Formal)","2021.2.3","Win32",31.94888179,"",NA,"",NA,NA,NA,NA,NA,NA,NA,"","","",NA,"e",1,0.7594,NA,NA,NA,NA,NA,"优秀","e","",NA,1,40,120,10,1,"",NA,"",NA,NA,NA,NA,NA,NA,NA,"",NA,"",NA,NA,NA,NA,NA,NA,NA,"","","",NA,"",NA,NA,NA,NA,NA,NA,NA,"",NA,"39"
"",NA,"",NA,"",NA,NA,NA,NA,NA,NA,NA,"","",1,1,"2024-09-02_09h54.58.197","IAT(Formal)","2021.2.3","Win32",31.94888179,"",NA,"",NA,NA,NA,NA,NA,NA,NA,"","","",NA,"i",1,0.6538,NA,NA,NA,NA,NA,"他们","i","",NA,1,41,121,6,1,"",NA,"",NA,NA,NA,NA,NA,NA,NA,"",NA,"",NA,NA,NA,NA,NA,NA,NA,"","","",NA,"",NA,NA,NA,NA,NA,NA,NA,"",NA,"39"
"",NA,"",NA,"",NA,NA,NA,NA,NA,NA,NA,"","",1,1,"2024-09-02_09h54.58.197","IAT(Formal)","2021.2.3","Win32",31.94888179,"",NA,"",NA,NA,NA,NA,NA,NA,NA,"","","",NA,"e",1,0.6435,NA,NA,NA,NA,NA,"我","e","",NA,1,42,122,50,1,"",NA,"",NA,NA,NA,NA,NA,NA,NA,"",NA,"",NA,NA,NA,NA,NA,NA,NA,"","","",NA,"",NA,NA,NA,NA,NA,NA,NA,"",NA,"39"
"",NA,"",NA,"",NA,NA,NA,NA,NA,NA,NA,"","",1,1,"2024-09-02_09h54.58.197","IAT(Formal)","2021.2.3","Win32",31.94888179,"",NA,"",NA,NA,NA,NA,NA,NA,NA,"","","",NA,"e",1,0.52,NA,NA,NA,NA,NA,"我","e","",NA,1,43,123,60,1,"",NA,"",NA,NA,NA,NA,NA,NA,NA,"",NA,"",NA,NA,NA,NA,NA,NA,NA,"","","",NA,"",NA,NA,NA,NA,NA,NA,NA,"",NA,"39"
"",NA,"",NA,"",NA,NA,NA,NA,NA,NA,NA,"","",1,1,"2024-09-02_09h54.58.197","IAT(Formal)","2021.2.3","Win32",31.94888179,"",NA,"",NA,NA,NA,NA,NA,NA,NA,"","","",NA,"e",1,0.7046,NA,NA,NA,NA,NA,"稳重","e","",NA,1,44,124,21,1,"",NA,"",NA,NA,NA,NA,NA,NA,NA,"",NA,"",NA,NA,NA,NA,NA,NA,NA,"","","",NA,"",NA,NA,NA,NA,NA,NA,NA,"",NA,"39"
"",NA,"",NA,"",NA,NA,NA,NA,NA,NA,NA,"","",1,1,"2024-09-02_09h54.58.197","IAT(Formal)","2021.2.3","Win32",31.94888179,"",NA,"",NA,NA,NA,NA,NA,NA,NA,"","","",NA,"i",1,0.6198,NA,NA,NA,NA,NA,"愚蠢","i","",NA,1,45,125,32,1,"",NA,"",NA,NA,NA,NA,NA,NA,NA,"",NA,"",NA,NA,NA,NA,NA,NA,NA,"","","",NA,"",NA,NA,NA,NA,NA,NA,NA,"",NA,"39"
"",NA,"",NA,"",NA,NA,NA,NA,NA,NA,NA,"","",1,1,"2024-09-02_09h54.58.197","IAT(Formal)","2021.2.3","Win32",31.94888179,"",NA,"",NA,NA,NA,NA,NA,NA,NA,"","","",NA,"i",1,0.729,NA,NA,NA,NA,NA,"卑鄙","i","",NA,1,46,126,30,1,"",NA,"",NA,NA,NA,NA,NA,NA,NA,"",NA,"",NA,NA,NA,NA,NA,NA,NA,"","","",NA,"",NA,NA,NA,NA,NA,NA,NA,"",NA,"39"
"",NA,"",NA,"",NA,NA,NA,NA,NA,NA,NA,"","",1,1,"2024-09-02_09h54.58.197","IAT(Formal)","2021.2.3","Win32",31.94888179,"",NA,"",NA,NA,NA,NA,NA,NA,NA,"","","",NA,"e",1,0.843,NA,NA,NA,NA,NA,"我们","e","",NA,1,47,127,72,1,"",NA,"",NA,NA,NA,NA,NA,NA,NA,"",NA,"",NA,NA,NA,NA,NA,NA,NA,"","","",NA,"",NA,NA,NA,NA,NA,NA,NA,"",NA,"39"
"",NA,"",NA,"",NA,NA,NA,NA,NA,NA,NA,"","",1,1,"2024-09-02_09h54.58.197","IAT(Formal)","2021.2.3","Win32",31.94888179,"",NA,"",NA,NA,NA,NA,NA,NA,NA,"","","",NA,"e",1,0.7344,NA,NA,NA,NA,NA,"勇敢","e","",NA,1,48,128,17,1,"",NA,"",NA,NA,NA,NA,NA,NA,NA,"",NA,"",NA,NA,NA,NA,NA,NA,NA,"","","",NA,"",NA,NA,NA,NA,NA,NA,NA,"",NA,"39"
"",NA,"",NA,"",NA,NA,NA,NA,NA,NA,NA,"","",1,1,"2024-09-02_09h54.58.197","IAT(Formal)","2021.2.3","Win32",31.94888179,"",NA,"",NA,NA,NA,NA,NA,NA,NA,"","","",NA,"i",1,0.6204,NA,NA,NA,NA,NA,"执拗","i","",NA,1,49,129,40,1,"",NA,"",NA,NA,NA,NA,NA,NA,NA,"",NA,"",NA,NA,NA,NA,NA,NA,NA,"","","",NA,"",NA,NA,NA,NA,NA,NA,NA,"",NA,"39"
"",NA,"",NA,"",NA,NA,NA,NA,NA,NA,NA,"","",1,1,"2024-09-02_09h54.58.197","IAT(Formal)","2021.2.3","Win32",31.94888179,"",NA,"",NA,NA,NA,NA,NA,NA,NA,"","","",NA,"i",1,0.7249,NA,NA,NA,NA,NA,"其他","i","",NA,1,50,130,59,1,"",NA,"",NA,NA,NA,NA,NA,NA,NA,"",NA,"",NA,NA,NA,NA,NA,NA,NA,"","","",NA,"",NA,NA,NA,NA,NA,NA,NA,"",NA,"39"
"",NA,"",NA,"",NA,NA,NA,NA,NA,NA,NA,"","",1,1,"2024-09-02_09h54.58.197","IAT(Formal)","2021.2.3","Win32",31.94888179,"",NA,"",NA,NA,NA,NA,NA,NA,NA,"","","",NA,"e",1,0.7452,NA,NA,NA,NA,NA,"诚恳","e","",NA,1,51,131,29,1,"",NA,"",NA,NA,NA,NA,NA,NA,NA,"",NA,"",NA,NA,NA,NA,NA,NA,NA,"","","",NA,"",NA,NA,NA,NA,NA,NA,NA,"",NA,"39"
"",NA,"",NA,"",NA,NA,NA,NA,NA,NA,NA,"","",1,1,"2024-09-02_09h54.58.197","IAT(Formal)","2021.2.3","Win32",31.94888179,"",NA,"",NA,NA,NA,NA,NA,NA,NA,"","","",NA,"e",1,0.4997,NA,NA,NA,NA,NA,"我的","e","",NA,1,52,132,51,1,"",NA,"",NA,NA,NA,NA,NA,NA,NA,"",NA,"",NA,NA,NA,NA,NA,NA,NA,"","","",NA,"",NA,NA,NA,NA,NA,NA,NA,"",NA,"39"
"",NA,"",NA,"",NA,NA,NA,NA,NA,NA,NA,"","",1,1,"2024-09-02_09h54.58.197","IAT(Formal)","2021.2.3","Win32",31.94888179,"",NA,"",NA,NA,NA,NA,NA,NA,NA,"","","",NA,"e",1,0.4269,NA,NA,NA,NA,NA,"正直","e","",NA,1,53,133,16,1,"",NA,"",NA,NA,NA,NA,NA,NA,NA,"",NA,"",NA,NA,NA,NA,NA,NA,NA,"","","",NA,"",NA,NA,NA,NA,NA,NA,NA,"",NA,"39"
"",NA,"",NA,"",NA,NA,NA,NA,NA,NA,NA,"","",1,1,"2024-09-02_09h54.58.197","IAT(Formal)","2021.2.3","Win32",31.94888179,"",NA,"",NA,NA,NA,NA,NA,NA,NA,"","","",NA,"e",1,0.5011,NA,NA,NA,NA,NA,"冷静","e","",NA,1,54,134,26,1,"",NA,"",NA,NA,NA,NA,NA,NA,NA,"",NA,"",NA,NA,NA,NA,NA,NA,NA,"","","",NA,"",NA,NA,NA,NA,NA,NA,NA,"",NA,"39"
"",NA,"",NA,"",NA,NA,NA,NA,NA,NA,NA,"","",1,1,"2024-09-02_09h54.58.197","IAT(Formal)","2021.2.3","Win32",31.94888179,"",NA,"",NA,NA,NA,NA,NA,NA,NA,"","","",NA,"e",1,0.5193,NA,NA,NA,NA,NA,"我","e","",NA,1,55,135,0,1,"",NA,"",NA,NA,NA,NA,NA,NA,NA,"",NA,"",NA,NA,NA,NA,NA,NA,NA,"","","",NA,"",NA,NA,NA,NA,NA,NA,NA,"",NA,"39"
"",NA,"",NA,"",NA,NA,NA,NA,NA,NA,NA,"","",1,1,"2024-09-02_09h54.58.197","IAT(Formal)","2021.2.3","Win32",31.94888179,"",NA,"",NA,NA,NA,NA,NA,NA,NA,"","","",NA,"i",1,0.5891,NA,NA,NA,NA,NA,"他们","i","",NA,1,56,136,66,1,"",NA,"",NA,NA,NA,NA,NA,NA,NA,"",NA,"",NA,NA,NA,NA,NA,NA,NA,"","","",NA,"",NA,NA,NA,NA,NA,NA,NA,"",NA,"39"
"",NA,"",NA,"",NA,NA,NA,NA,NA,NA,NA,"","",1,1,"2024-09-02_09h54.58.197","IAT(Formal)","2021.2.3","Win32",31.94888179,"",NA,"",NA,NA,NA,NA,NA,NA,NA,"","","",NA,"e",1,0.6899,NA,NA,NA,NA,NA,"我的","e","",NA,1,57,137,1,1,"",NA,"",NA,NA,NA,NA,NA,NA,NA,"",NA,"",NA,NA,NA,NA,NA,NA,NA,"","","",NA,"",NA,NA,NA,NA,NA,NA,NA,"",NA,"39"
"",NA,"",NA,"",NA,NA,NA,NA,NA,NA,NA,"","",1,1,"2024-09-02_09h54.58.197","IAT(Formal)","2021.2.3","Win32",31.94888179,"",NA,"",NA,NA,NA,NA,NA,NA,NA,"","","",NA,"i",1,0.5308,NA,NA,NA,NA,NA,"暴躁","i","",NA,1,58,138,44,1,"",NA,"",NA,NA,NA,NA,NA,NA,NA,"",NA,"",NA,NA,NA,NA,NA,NA,NA,"","","",NA,"",NA,NA,NA,NA,NA,NA,NA,"",NA,"39"
"",NA,"",NA,"",NA,NA,NA,NA,NA,NA,NA,"","",1,1,"2024-09-02_09h54.58.197","IAT(Formal)","2021.2.3","Win32",31.94888179,"",NA,"",NA,NA,NA,NA,NA,NA,NA,"","","",NA,"i",1,0.6813,NA,NA,NA,NA,NA,"他的","i","",NA,1,59,139,7,1,"",NA,"",NA,NA,NA,NA,NA,NA,NA,"",NA,"",NA,NA,NA,NA,NA,NA,NA,"","","",NA,"",NA,NA,NA,NA,NA,NA,NA,"",NA,"39"
"",NA,"",NA,"",NA,NA,NA,NA,NA,NA,NA,"","",1,1,"2024-09-02_09h54.58.197","IAT(Formal)","2021.2.3","Win32",31.94888179,"",NA,"",NA,NA,NA,NA,NA,NA,NA,"","","",NA,"e",1,0.8059,NA,NA,NA,NA,NA,"机智","e","",NA,1,60,140,19,1,"",NA,"",NA,NA,NA,NA,NA,NA,NA,"",NA,"",NA,NA,NA,NA,NA,NA,NA,"","","",NA,"",NA,NA,NA,NA,NA,NA,NA,"",NA,"39"
"",NA,"",NA,"",NA,NA,NA,NA,NA,NA,NA,"","",1,1,"2024-09-02_09h54.58.197","IAT(Formal)","2021.2.3","Win32",31.94888179,"",NA,"",NA,NA,NA,NA,NA,NA,NA,"","","",NA,"e",1,0.5778,NA,NA,NA,NA,NA,"我们","e","",NA,1,61,141,62,1,"",NA,"",NA,NA,NA,NA,NA,NA,NA,"",NA,"",NA,NA,NA,NA,NA,NA,NA,"","","",NA,"",NA,NA,NA,NA,NA,NA,NA,"",NA,"39"
"",NA,"",NA,"",NA,NA,NA,NA,NA,NA,NA,"","",1,1,"2024-09-02_09h54.58.197","IAT(Formal)","2021.2.3","Win32",31.94888179,"",NA,"",NA,NA,NA,NA,NA,NA,NA,"","","",NA,"e",0,0.518,NA,NA,NA,NA,NA,"悲观","i","",NA,1,62,142,34,1,"",NA,"",NA,NA,NA,NA,NA,NA,NA,"",NA,"",NA,NA,NA,NA,NA,NA,NA,"","","",NA,"",NA,NA,NA,NA,NA,NA,NA,"",NA,"39"
"",NA,"",NA,"",NA,NA,NA,NA,NA,NA,NA,"","",1,1,"2024-09-02_09h54.58.197","IAT(Formal)","2021.2.3","Win32",31.94888179,"",NA,"",NA,NA,NA,NA,NA,NA,NA,"","","",NA,"e",1,0.6525,NA,NA,NA,NA,NA,"我","e","",NA,1,63,143,70,1,"",NA,"",NA,NA,NA,NA,NA,NA,NA,"",NA,"",NA,NA,NA,NA,NA,NA,NA,"","","",NA,"",NA,NA,NA,NA,NA,NA,NA,"",NA,"39"
"",NA,"",NA,"",NA,NA,NA,NA,NA,NA,NA,"","",1,1,"2024-09-02_09h54.58.197","IAT(Formal)","2021.2.3","Win32",31.94888179,"",NA,"",NA,NA,NA,NA,NA,NA,NA,"","","",NA,"i",1,0.7106,NA,NA,NA,NA,NA,"鲁莽","i","",NA,1,64,144,38,1,"",NA,"",NA,NA,NA,NA,NA,NA,NA,"",NA,"",NA,NA,NA,NA,NA,NA,NA,"","","",NA,"",NA,NA,NA,NA,NA,NA,NA,"",NA,"39"
"",NA,"",NA,"",NA,NA,NA,NA,NA,NA,NA,"","",1,1,"2024-09-02_09h54.58.197","IAT(Formal)","2021.2.3","Win32",31.94888179,"",NA,"",NA,NA,NA,NA,NA,NA,NA,"","","",NA,"e",1,0.6713,NA,NA,NA,NA,NA,"自己","e","",NA,1,65,145,3,1,"",NA,"",NA,NA,NA,NA,NA,NA,NA,"",NA,"",NA,NA,NA,NA,NA,NA,NA,"","","",NA,"",NA,NA,NA,NA,NA,NA,NA,"",NA,"39"
"",NA,"",NA,"",NA,NA,NA,NA,NA,NA,NA,"","",1,1,"2024-09-02_09h54.58.197","IAT(Formal)","2021.2.3","Win32",31.94888179,"",NA,"",NA,NA,NA,NA,NA,NA,NA,"","","",NA,"i",1,0.6821,NA,NA,NA,NA,NA,"他","i","",NA,1,66,146,55,1,"",NA,"",NA,NA,NA,NA,NA,NA,NA,"",NA,"",NA,NA,NA,NA,NA,NA,NA,"","","",NA,"",NA,NA,NA,NA,NA,NA,NA,"",NA,"39"
"",NA,"",NA,"",NA,NA,NA,NA,NA,NA,NA,"","",1,1,"2024-09-02_09h54.58.197","IAT(Formal)","2021.2.3","Win32",31.94888179,"",NA,"",NA,NA,NA,NA,NA,NA,NA,"","","",NA,"i",1,0.813,NA,NA,NA,NA,NA,"野蛮","i","",NA,1,67,147,46,1,"",NA,"",NA,NA,NA,NA,NA,NA,NA,"",NA,"",NA,NA,NA,NA,NA,NA,NA,"","","",NA,"",NA,NA,NA,NA,NA,NA,NA,"",NA,"39"
"",NA,"",NA,"",NA,NA,NA,NA,NA,NA,NA,"","",1,1,"2024-09-02_09h54.58.197","IAT(Formal)","2021.2.3","Win32",31.94888179,"",NA,"",NA,NA,NA,NA,NA,NA,NA,"","","",NA,"e",1,1.067,NA,NA,NA,NA,NA,"自己","e","",NA,1,68,148,63,1,"",NA,"",NA,NA,NA,NA,NA,NA,NA,"",NA,"",NA,NA,NA,NA,NA,NA,NA,"","","",NA,"",NA,NA,NA,NA,NA,NA,NA,"",NA,"39"
"",NA,"",NA,"",NA,NA,NA,NA,NA,NA,NA,"","",1,1,"2024-09-02_09h54.58.197","IAT(Formal)","2021.2.3","Win32",31.94888179,"",NA,"",NA,NA,NA,NA,NA,NA,NA,"","","",NA,"e",1,0.897,NA,NA,NA,NA,NA,"活泼","e","",NA,1,69,149,28,1,"",NA,"",NA,NA,NA,NA,NA,NA,NA,"",NA,"",NA,NA,NA,NA,NA,NA,NA,"","","",NA,"",NA,NA,NA,NA,NA,NA,NA,"",NA,"39"
"",NA,"",NA,"",NA,NA,NA,NA,NA,NA,NA,"","",1,1,"2024-09-02_09h54.58.197","IAT(Formal)","2021.2.3","Win32",31.94888179,"",NA,"",NA,NA,NA,NA,NA,NA,NA,"","","",NA,"e",1,1.0649,NA,NA,NA,NA,NA,"自己","e","",NA,1,70,150,53,1,"",NA,"",NA,NA,NA,NA,NA,NA,NA,"",NA,"",NA,NA,NA,NA,NA,NA,NA,"","","",NA,"",NA,NA,NA,NA,NA,NA,NA,"",NA,"39"
"",NA,"",NA,"",NA,NA,NA,NA,NA,NA,NA,"","",1,1,"2024-09-02_09h54.58.197","IAT(Formal)","2021.2.3","Win32",31.94888179,"",NA,"",NA,NA,NA,NA,NA,NA,NA,"","","",NA,"i",1,0.6589,NA,NA,NA,NA,NA,"下贱","i","",NA,1,71,151,49,1,"",NA,"",NA,NA,NA,NA,NA,NA,NA,"",NA,"",NA,NA,NA,NA,NA,NA,NA,"","","",NA,"",NA,NA,NA,NA,NA,NA,NA,"",NA,"39"
"",NA,"",NA,"",NA,NA,NA,NA,NA,NA,NA,"","",1,1,"2024-09-02_09h54.58.197","IAT(Formal)","2021.2.3","Win32",31.94888179,"",NA,"",NA,NA,NA,NA,NA,NA,NA,"","","",NA,"e",0,0.7319,NA,NA,NA,NA,NA,"傲慢","i","",NA,1,72,152,37,1,"",NA,"",NA,NA,NA,NA,NA,NA,NA,"",NA,"",NA,NA,NA,NA,NA,NA,NA,"","","",NA,"",NA,NA,NA,NA,NA,NA,NA,"",NA,"39"
"",NA,"",NA,"",NA,NA,NA,NA,NA,NA,NA,"","",1,1,"2024-09-02_09h54.58.197","IAT(Formal)","2021.2.3","Win32",31.94888179,"",NA,"",NA,NA,NA,NA,NA,NA,NA,"","","",NA,"i",1,0.5702,NA,NA,NA,NA,NA,"他人","i","",NA,1,73,153,68,1,"",NA,"",NA,NA,NA,NA,NA,NA,NA,"",NA,"",NA,NA,NA,NA,NA,NA,NA,"","","",NA,"",NA,NA,NA,NA,NA,NA,NA,"",NA,"39"
"",NA,"",NA,"",NA,NA,NA,NA,NA,NA,NA,"","",1,1,"2024-09-02_09h54.58.197","IAT(Formal)","2021.2.3","Win32",31.94888179,"",NA,"",NA,NA,NA,NA,NA,NA,NA,"","","",NA,"i",1,0.7893,NA,NA,NA,NA,NA,"他人","i","",NA,1,74,154,78,1,"",NA,"",NA,NA,NA,NA,NA,NA,NA,"",NA,"",NA,NA,NA,NA,NA,NA,NA,"","","",NA,"",NA,NA,NA,NA,NA,NA,NA,"",NA,"39"
"",NA,"",NA,"",NA,NA,NA,NA,NA,NA,NA,"","",1,1,"2024-09-02_09h54.58.197","IAT(Formal)","2021.2.3","Win32",31.94888179,"",NA,"",NA,NA,NA,NA,NA,NA,NA,"","","",NA,"e",1,0.9122,NA,NA,NA,NA,NA,"俺","e","",NA,1,75,155,54,1,"",NA,"",NA,NA,NA,NA,NA,NA,NA,"",NA,"",NA,NA,NA,NA,NA,NA,NA,"","","",NA,"",NA,NA,NA,NA,NA,NA,NA,"",NA,"39"
"",NA,"",NA,"",NA,NA,NA,NA,NA,NA,NA,"","",1,1,"2024-09-02_09h54.58.197","IAT(Formal)","2021.2.3","Win32",31.94888179,"",NA,"",NA,NA,NA,NA,NA,NA,NA,"","","",NA,"i",1,0.7758,NA,NA,NA,NA,NA,"他的","i","",NA,1,76,156,67,1,"",NA,"",NA,NA,NA,NA,NA,NA,NA,"",NA,"",NA,NA,NA,NA,NA,NA,NA,"","","",NA,"",NA,NA,NA,NA,NA,NA,NA,"",NA,"39"
"",NA,"",NA,"",NA,NA,NA,NA,NA,NA,NA,"","",1,1,"2024-09-02_09h54.58.197","IAT(Formal)","2021.2.3","Win32",31.94888179,"",NA,"",NA,NA,NA,NA,NA,NA,NA,"","","",NA,"i",1,0.6583,NA,NA,NA,NA,NA,"他的","i","",NA,1,77,157,57,1,"",NA,"",NA,NA,NA,NA,NA,NA,NA,"",NA,"",NA,NA,NA,NA,NA,NA,NA,"","","",NA,"",NA,NA,NA,NA,NA,NA,NA,"",NA,"39"
"",NA,"",NA,"",NA,NA,NA,NA,NA,NA,NA,"","",1,1,"2024-09-02_09h54.58.197","IAT(Formal)","2021.2.3","Win32",31.94888179,"",NA,"",NA,NA,NA,NA,NA,NA,NA,"","","",NA,"e",1,0.7101,NA,NA,NA,NA,NA,"热情","e","",NA,1,78,158,27,1,"",NA,"",NA,NA,NA,NA,NA,NA,NA,"",NA,"",NA,NA,NA,NA,NA,NA,NA,"","","",NA,"",NA,NA,NA,NA,NA,NA,NA,"",NA,"39"
"",NA,"",NA,"",NA,NA,NA,NA,NA,NA,NA,"","",1,1,"2024-09-02_09h54.58.197","IAT(Formal)","2021.2.3","Win32",31.94888179,"",NA,"",NA,NA,NA,NA,NA,NA,NA,"","","",NA,"e",1,0.6664,NA,NA,NA,NA,NA,"勤奋","e","",NA,1,79,159,18,1,"",NA,"",NA,NA,NA,NA,NA,NA,NA,"",NA,"",NA,NA,NA,NA,NA,NA,NA,"","","",NA,"",NA,NA,NA,NA,NA,NA,NA,"",NA,"39"
"",NA,"",NA,"",NA,NA,NA,NA,NA,NA,NA,"其他","e",1,1,"2024-09-02_09h54.58.197","IAT(Formal)","2021.2.3","Win32",31.94888179,"",NA,"",NA,NA,NA,NA,NA,NA,NA,"","","",NA,"",NA,NA,NA,NA,NA,NA,NA,"","","",NA,NA,NA,NA,NA,NA,"space",11.7795,"e",1,0.8854,0,0,0,9,1,"",NA,"",NA,NA,NA,NA,NA,NA,NA,"","","",NA,"",NA,NA,NA,NA,NA,NA,NA,"",NA,"39"
"",NA,"",NA,"",NA,NA,NA,NA,NA,NA,NA,"我的","i",1,1,"2024-09-02_09h54.58.197","IAT(Formal)","2021.2.3","Win32",31.94888179,"",NA,"",NA,NA,NA,NA,NA,NA,NA,"","","",NA,"",NA,NA,NA,NA,NA,NA,NA,"","","",NA,NA,NA,NA,NA,NA,"",NA,"i",1,0.6058,0,1,1,1,1,"",NA,"",NA,NA,NA,NA,NA,NA,NA,"","","",NA,"",NA,NA,NA,NA,NA,NA,NA,"",NA,"39"
"",NA,"",NA,"",NA,NA,NA,NA,NA,NA,NA,"自己","i",1,1,"2024-09-02_09h54.58.197","IAT(Formal)","2021.2.3","Win32",31.94888179,"",NA,"",NA,NA,NA,NA,NA,NA,NA,"","","",NA,"",NA,NA,NA,NA,NA,NA,NA,"","","",NA,NA,NA,NA,NA,NA,"",NA,"i",1,0.5125,0,2,2,3,1,"",NA,"",NA,NA,NA,NA,NA,NA,NA,"","","",NA,"",NA,NA,NA,NA,NA,NA,NA,"",NA,"39"
"",NA,"",NA,"",NA,NA,NA,NA,NA,NA,NA,"俺","i",1,1,"2024-09-02_09h54.58.197","IAT(Formal)","2021.2.3","Win32",31.94888179,"",NA,"",NA,NA,NA,NA,NA,NA,NA,"","","",NA,"",NA,NA,NA,NA,NA,NA,NA,"","","",NA,NA,NA,NA,NA,NA,"",NA,"i",1,0.6249,0,3,3,4,1,"",NA,"",NA,NA,NA,NA,NA,NA,NA,"","","",NA,"",NA,NA,NA,NA,NA,NA,NA,"",NA,"39"
"",NA,"",NA,"",NA,NA,NA,NA,NA,NA,NA,"他们","e",1,1,"2024-09-02_09h54.58.197","IAT(Formal)","2021.2.3","Win32",31.94888179,"",NA,"",NA,NA,NA,NA,NA,NA,NA,"","","",NA,"",NA,NA,NA,NA,NA,NA,NA,"","","",NA,NA,NA,NA,NA,NA,"",NA,"e",1,0.7247,0,4,4,6,1,"",NA,"",NA,NA,NA,NA,NA,NA,NA,"","","",NA,"",NA,NA,NA,NA,NA,NA,NA,"",NA,"39"
"",NA,"",NA,"",NA,NA,NA,NA,NA,NA,NA,"他的","e",1,1,"2024-09-02_09h54.58.197","IAT(Formal)","2021.2.3","Win32",31.94888179,"",NA,"",NA,NA,NA,NA,NA,NA,NA,"","","",NA,"",NA,NA,NA,NA,NA,NA,NA,"","","",NA,NA,NA,NA,NA,NA,"",NA,"e",1,0.6258,0,5,5,7,1,"",NA,"",NA,NA,NA,NA,NA,NA,NA,"","","",NA,"",NA,NA,NA,NA,NA,NA,NA,"",NA,"39"
"",NA,"",NA,"",NA,NA,NA,NA,NA,NA,NA,"他","e",1,1,"2024-09-02_09h54.58.197","IAT(Formal)","2021.2.3","Win32",31.94888179,"",NA,"",NA,NA,NA,NA,NA,NA,NA,"","","",NA,"",NA,NA,NA,NA,NA,NA,NA,"","","",NA,NA,NA,NA,NA,NA,"",NA,"e",1,0.6238,0,6,6,5,1,"",NA,"",NA,NA,NA,NA,NA,NA,NA,"","","",NA,"",NA,NA,NA,NA,NA,NA,NA,"",NA,"39"
"",NA,"",NA,"",NA,NA,NA,NA,NA,NA,NA,"他人","e",1,1,"2024-09-02_09h54.58.197","IAT(Formal)","2021.2.3","Win32",31.94888179,"",NA,"",NA,NA,NA,NA,NA,NA,NA,"","","",NA,"",NA,NA,NA,NA,NA,NA,NA,"","","",NA,NA,NA,NA,NA,NA,"",NA,"e",1,0.6244,0,7,7,8,1,"",NA,"",NA,NA,NA,NA,NA,NA,NA,"","","",NA,"",NA,NA,NA,NA,NA,NA,NA,"",NA,"39"
"",NA,"",NA,"",NA,NA,NA,NA,NA,NA,NA,"我们","i",1,1,"2024-09-02_09h54.58.197","IAT(Formal)","2021.2.3","Win32",31.94888179,"",NA,"",NA,NA,NA,NA,NA,NA,NA,"","","",NA,"",NA,NA,NA,NA,NA,NA,NA,"","","",NA,NA,NA,NA,NA,NA,"",NA,"i",1,0.6312,0,8,8,2,1,"",NA,"",NA,NA,NA,NA,NA,NA,NA,"","","",NA,"",NA,NA,NA,NA,NA,NA,NA,"",NA,"39"
"",NA,"",NA,"",NA,NA,NA,NA,NA,NA,NA,"我","i",1,1,"2024-09-02_09h54.58.197","IAT(Formal)","2021.2.3","Win32",31.94888179,"",NA,"",NA,NA,NA,NA,NA,NA,NA,"","","",NA,"",NA,NA,NA,NA,NA,NA,NA,"","","",NA,NA,NA,NA,NA,NA,"",NA,"i",1,0.4566,0,9,9,0,1,"",NA,"",NA,NA,NA,NA,NA,NA,NA,"","","",NA,"",NA,NA,NA,NA,NA,NA,NA,"",NA,"39"
"",NA,"",NA,"",NA,NA,NA,NA,NA,NA,NA,"","",1,1,"2024-09-02_09h54.58.197","IAT(Formal)","2021.2.3","Win32",31.94888179,"",NA,"",NA,NA,NA,NA,NA,NA,NA,"","","",NA,"",NA,NA,NA,NA,NA,NA,NA,"","","",NA,NA,NA,NA,NA,NA,"",NA,"",NA,NA,NA,NA,NA,NA,NA,"space",13.0807,"i",1,0.6838,0,0,0,50,1,"我","i","",NA,"",NA,NA,NA,NA,NA,NA,NA,"",NA,"39"
"",NA,"",NA,"",NA,NA,NA,NA,NA,NA,NA,"","",1,1,"2024-09-02_09h54.58.197","IAT(Formal)","2021.2.3","Win32",31.94888179,"",NA,"",NA,NA,NA,NA,NA,NA,NA,"","","",NA,"",NA,NA,NA,NA,NA,NA,NA,"","","",NA,NA,NA,NA,NA,NA,"",NA,"",NA,NA,NA,NA,NA,NA,NA,"",NA,"i",1,0.5902,0,1,1,35,1,"消极","i","",NA,"",NA,NA,NA,NA,NA,NA,NA,"",NA,"39"
"",NA,"",NA,"",NA,NA,NA,NA,NA,NA,NA,"","",1,1,"2024-09-02_09h54.58.197","IAT(Formal)","2021.2.3","Win32",31.94888179,"",NA,"",NA,NA,NA,NA,NA,NA,NA,"","","",NA,"",NA,NA,NA,NA,NA,NA,NA,"","","",NA,NA,NA,NA,NA,NA,"",NA,"",NA,NA,NA,NA,NA,NA,NA,"",NA,"e",1,1.1686,0,2,2,23,1,"公正","e","",NA,"",NA,NA,NA,NA,NA,NA,NA,"",NA,"39"
"",NA,"",NA,"",NA,NA,NA,NA,NA,NA,NA,"","",1,1,"2024-09-02_09h54.58.197","IAT(Formal)","2021.2.3","Win32",31.94888179,"",NA,"",NA,NA,NA,NA,NA,NA,NA,"","","",NA,"",NA,NA,NA,NA,NA,NA,NA,"","","",NA,NA,NA,NA,NA,NA,"",NA,"",NA,NA,NA,NA,NA,NA,NA,"",NA,"e",1,0.9452,0,3,3,12,1,"聪明","e","",NA,"",NA,NA,NA,NA,NA,NA,NA,"",NA,"39"
"",NA,"",NA,"",NA,NA,NA,NA,NA,NA,NA,"","",1,1,"2024-09-02_09h54.58.197","IAT(Formal)","2021.2.3","Win32",31.94888179,"",NA,"",NA,NA,NA,NA,NA,NA,NA,"","","",NA,"",NA,NA,NA,NA,NA,NA,NA,"","","",NA,NA,NA,NA,NA,NA,"",NA,"",NA,NA,NA,NA,NA,NA,NA,"",NA,"i",1,1.1773,0,4,4,31,1,"虚伪","i","",NA,"",NA,NA,NA,NA,NA,NA,NA,"",NA,"39"
