﻿Instruction1.keys,Instruction1.rt,Instruction2.keys,Instruction2.rt,key_resp_iso.keys,key_resp_iso.corr,key_resp_iso.rt,Practice_01.thisRepN,Practice_01.thisTrialN,Practice_01.thisN,Practice_01.thisIndex,Practice_01.ran,Words,ans,participant,session,date,expName,psychopyVersion,OS,frameRate,key_resp_3.keys,key_resp_3.rt,key_resp_ipn.keys,key_resp_ipn.corr,key_resp_ipn.rt,Practice_02.thisRepN,Practice_02.thisTrialN,Practice_02.thisN,Practice_02.thisIndex,Practice_02.ran,Words_ipn,ans_ipn,key_resp_4.keys,key_resp_4.rt,key_resp_t1.keys,key_resp_t1.corr,Practice_T1.thisRepN,Practice_T1.thisTrialN,Practice_T1.thisN,Practice_T1.thisIndex,Practice_T1.ran,Words_t1,ans_t1,key_resp_t1.rt,key_resp_5.keys,key_resp_5.rt,Formal_T1.thisRepN,Formal_T1.thisTrialN,Formal_T1.thisN,Formal_T1.thisIndex,Formal_T1.ran,key_resp_6.keys,key_resp_6.rt,key_resp_iso_reverse.keys,key_resp_iso_reverse.corr,key_resp_iso_reverse.rt,Practice_iso_Reverse.thisRepN,Practice_iso_Reverse.thisTrialN,Practice_iso_Reverse.thisN,Practice_iso_Reverse.thisIndex,Practice_iso_Reverse.ran,key_resp_7.keys,key_resp_7.rt,key_resp_t2_Practice.keys,key_resp_t2_Practice.corr,key_resp_t2_Practice.rt,Practice_t2_Reverse.thisRepN,Practice_t2_Reverse.thisTrialN,Practice_t2_Reverse.thisN,Practice_t2_Reverse.thisIndex,Practice_t2_Reverse.ran,Words_t2,ans_t2,key_resp_8.keys,key_resp_8.rt,key_resp_t2.keys,key_resp_t2.corr,key_resp_t2.rt,Formal_t2_reverse.thisRepN,Formal_t2_reverse.thisTrialN,Formal_t2_reverse.thisN,Formal_t2_reverse.thisIndex,Formal_t2_reverse.ran,key_instruct.keys,key_instruct.rt
space,3.1127,space,5.7286,e,1,0.5277,0,0,0,1,1,我的,e,1,001,2024-08-23_13h26.39.008,IAT(Formal),2021.2.3,Win32,60.60606061,,,,,,,,,,,,,,,,,,,,,,,,,,,,,,,,,,,,,,,,,,,,,,,,,,,,,,,,,,,,,,,,,
,,,,e,1,0.4832,0,1,1,2,1,我们,e,1,001,2024-08-23_13h26.39.008,IAT(Formal),2021.2.3,Win32,60.60606061,,,,,,,,,,,,,,,,,,,,,,,,,,,,,,,,,,,,,,,,,,,,,,,,,,,,,,,,,,,,,,,,,
,,,,e,1,0.4343,0,2,2,3,1,自己,e,1,001,2024-08-23_13h26.39.008,IAT(Formal),2021.2.3,Win32,60.60606061,,,,,,,,,,,,,,,,,,,,,,,,,,,,,,,,,,,,,,,,,,,,,,,,,,,,,,,,,,,,,,,,,
,,,,e,1,0.5838,0,3,3,4,1,俺,e,1,001,2024-08-23_13h26.39.008,IAT(Formal),2021.2.3,Win32,60.60606061,,,,,,,,,,,,,,,,,,,,,,,,,,,,,,,,,,,,,,,,,,,,,,,,,,,,,,,,,,,,,,,,,
,,,,i,1,0.4831,0,4,4,9,1,其他,i,1,001,2024-08-23_13h26.39.008,IAT(Formal),2021.2.3,Win32,60.60606061,,,,,,,,,,,,,,,,,,,,,,,,,,,,,,,,,,,,,,,,,,,,,,,,,,,,,,,,,,,,,,,,,
,,,,i,1,0.6571,0,5,5,7,1,他的,i,1,001,2024-08-23_13h26.39.008,IAT(Formal),2021.2.3,Win32,60.60606061,,,,,,,,,,,,,,,,,,,,,,,,,,,,,,,,,,,,,,,,,,,,,,,,,,,,,,,,,,,,,,,,,
,,,,e,1,0.5334,0,6,6,0,1,我,e,1,001,2024-08-23_13h26.39.008,IAT(Formal),2021.2.3,Win32,60.60606061,,,,,,,,,,,,,,,,,,,,,,,,,,,,,,,,,,,,,,,,,,,,,,,,,,,,,,,,,,,,,,,,,
,,,,i,1,0.6216,0,7,7,5,1,他,i,1,001,2024-08-23_13h26.39.008,IAT(Formal),2021.2.3,Win32,60.60606061,,,,,,,,,,,,,,,,,,,,,,,,,,,,,,,,,,,,,,,,,,,,,,,,,,,,,,,,,,,,,,,,,
,,,,i,1,0.606,0,8,8,8,1,他人,i,1,001,2024-08-23_13h26.39.008,IAT(Formal),2021.2.3,Win32,60.60606061,,,,,,,,,,,,,,,,,,,,,,,,,,,,,,,,,,,,,,,,,,,,,,,,,,,,,,,,,,,,,,,,,
,,,,i,1,0.5337,0,9,9,6,1,他们,i,1,001,2024-08-23_13h26.39.008,IAT(Formal),2021.2.3,Win32,60.60606061,,,,,,,,,,,,,,,,,,,,,,,,,,,,,,,,,,,,,,,,,,,,,,,,,,,,,,,,,,,,,,,,,
,,,,,,,,,,,,,,1,001,2024-08-23_13h26.39.008,IAT(Formal),2021.2.3,Win32,60.60606061,space,2.2043,e,1,0.6712,0,0,0,8,1,勤奋,e,,,,,,,,,,,,,,,,,,,,,,,,,,,,,,,,,,,,,,,,,,,,,,,,,,,,,
,,,,,,,,,,,,,,1,001,2024-08-23_13h26.39.008,IAT(Formal),2021.2.3,Win32,60.60606061,,,i,1,0.5793,0,1,1,39,1,下贱,i,,,,,,,,,,,,,,,,,,,,,,,,,,,,,,,,,,,,,,,,,,,,,,,,,,,,,
,,,,,,,,,,,,,,1,001,2024-08-23_13h26.39.008,IAT(Formal),2021.2.3,Win32,60.60606061,,,i,1,0.9345,0,2,2,31,1,散漫,i,,,,,,,,,,,,,,,,,,,,,,,,,,,,,,,,,,,,,,,,,,,,,,,,,,,,,
,,,,,,,,,,,,,,1,001,2024-08-23_13h26.39.008,IAT(Formal),2021.2.3,Win32,60.60606061,,,e,1,0.4093,0,3,3,7,1,勇敢,e,,,,,,,,,,,,,,,,,,,,,,,,,,,,,,,,,,,,,,,,,,,,,,,,,,,,,
,,,,,,,,,,,,,,1,001,2024-08-23_13h26.39.008,IAT(Formal),2021.2.3,Win32,60.60606061,,,i,1,0.6093,0,4,4,22,1,愚蠢,i,,,,,,,,,,,,,,,,,,,,,,,,,,,,,,,,,,,,,,,,,,,,,,,,,,,,,
,,,,,,,,,,,,,,1,001,2024-08-23_13h26.39.008,IAT(Formal),2021.2.3,Win32,60.60606061,,,e,0,1.2111,0,5,5,32,1,凶狠,i,,,,,,,,,,,,,,,,,,,,,,,,,,,,,,,,,,,,,,,,,,,,,,,,,,,,,
,,,,,,,,,,,,,,1,001,2024-08-23_13h26.39.008,IAT(Formal),2021.2.3,Win32,60.60606061,,,i,1,0.9693,0,6,6,30,1,执拗,i,,,,,,,,,,,,,,,,,,,,,,,,,,,,,,,,,,,,,,,,,,,,,,,,,,,,,
,,,,,,,,,,,,,,1,001,2024-08-23_13h26.39.008,IAT(Formal),2021.2.3,Win32,60.60606061,,,e,1,0.7473,0,7,7,12,1,无私,e,,,,,,,,,,,,,,,,,,,,,,,,,,,,,,,,,,,,,,,,,,,,,,,,,,,,,
,,,,,,,,,,,,,,1,001,2024-08-23_13h26.39.008,IAT(Formal),2021.2.3,Win32,60.60606061,,,i,1,0.9234,0,8,8,29,1,冒失,i,,,,,,,,,,,,,,,,,,,,,,,,,,,,,,,,,,,,,,,,,,,,,,,,,,,,,
,,,,,,,,,,,,,,1,001,2024-08-23_13h26.39.008,IAT(Formal),2021.2.3,Win32,60.60606061,,,e,1,0.7499,0,9,9,14,1,朴实,e,,,,,,,,,,,,,,,,,,,,,,,,,,,,,,,,,,,,,,,,,,,,,,,,,,,,,
,,,,,,,,,,,,,,1,001,2024-08-23_13h26.39.008,IAT(Formal),2021.2.3,Win32,60.60606061,,,i,1,0.976,0,10,10,34,1,暴躁,i,,,,,,,,,,,,,,,,,,,,,,,,,,,,,,,,,,,,,,,,,,,,,,,,,,,,,
,,,,,,,,,,,,,,1,001,2024-08-23_13h26.39.008,IAT(Formal),2021.2.3,Win32,60.60606061,,,e,1,0.6914,0,11,11,10,1,认真,e,,,,,,,,,,,,,,,,,,,,,,,,,,,,,,,,,,,,,,,,,,,,,,,,,,,,,
,,,,,,,,,,,,,,1,001,2024-08-23_13h26.39.008,IAT(Formal),2021.2.3,Win32,60.60606061,,,e,1,0.8483,0,12,12,6,1,正直,e,,,,,,,,,,,,,,,,,,,,,,,,,,,,,,,,,,,,,,,,,,,,,,,,,,,,,
,,,,,,,,,,,,,,1,001,2024-08-23_13h26.39.008,IAT(Formal),2021.2.3,Win32,60.60606061,,,i,1,1.1759,0,13,13,28,1,鲁莽,i,,,,,,,,,,,,,,,,,,,,,,,,,,,,,,,,,,,,,,,,,,,,,,,,,,,,,
,,,,,,,,,,,,,,1,001,2024-08-23_13h26.39.008,IAT(Formal),2021.2.3,Win32,60.60606061,,,e,1,0.5373,0,14,14,19,1,诚恳,e,,,,,,,,,,,,,,,,,,,,,,,,,,,,,,,,,,,,,,,,,,,,,,,,,,,,,
,,,,,,,,,,,,,,1,001,2024-08-23_13h26.39.008,IAT(Formal),2021.2.3,Win32,60.60606061,,,e,1,0.4966,0,15,15,0,1,优秀,e,,,,,,,,,,,,,,,,,,,,,,,,,,,,,,,,,,,,,,,,,,,,,,,,,,,,,
,,,,,,,,,,,,,,1,001,2024-08-23_13h26.39.008,IAT(Formal),2021.2.3,Win32,60.60606061,,,e,1,0.5914,0,16,16,15,1,细腻,e,,,,,,,,,,,,,,,,,,,,,,,,,,,,,,,,,,,,,,,,,,,,,,,,,,,,,
,,,,,,,,,,,,,,1,001,2024-08-23_13h26.39.008,IAT(Formal),2021.2.3,Win32,60.60606061,,,i,1,0.8978,0,17,17,27,1,傲慢,i,,,,,,,,,,,,,,,,,,,,,,,,,,,,,,,,,,,,,,,,,,,,,,,,,,,,,
,,,,,,,,,,,,,,1,001,2024-08-23_13h26.39.008,IAT(Formal),2021.2.3,Win32,60.60606061,,,e,1,0.9948,0,18,18,16,1,冷静,e,,,,,,,,,,,,,,,,,,,,,,,,,,,,,,,,,,,,,,,,,,,,,,,,,,,,,
,,,,,,,,,,,,,,1,001,2024-08-23_13h26.39.008,IAT(Formal),2021.2.3,Win32,60.60606061,,,e,1,0.64,0,19,19,18,1,活泼,e,,,,,,,,,,,,,,,,,,,,,,,,,,,,,,,,,,,,,,,,,,,,,,,,,,,,,
,,,,,,,,,,,,,,1,001,2024-08-23_13h26.39.008,IAT(Formal),2021.2.3,Win32,60.60606061,,,e,1,0.6412,0,20,20,17,1,热情,e,,,,,,,,,,,,,,,,,,,,,,,,,,,,,,,,,,,,,,,,,,,,,,,,,,,,,
,,,,,,,,,,,,,,1,001,2024-08-23_13h26.39.008,IAT(Formal),2021.2.3,Win32,60.60606061,,,i,1,0.741,0,21,21,23,1,刻薄,i,,,,,,,,,,,,,,,,,,,,,,,,,,,,,,,,,,,,,,,,,,,,,,,,,,,,,
,,,,,,,,,,,,,,1,001,2024-08-23_13h26.39.008,IAT(Formal),2021.2.3,Win32,60.60606061,,,i,1,0.7149,0,22,22,24,1,悲观,i,,,,,,,,,,,,,,,,,,,,,,,,,,,,,,,,,,,,,,,,,,,,,,,,,,,,,
,,,,,,,,,,,,,,1,001,2024-08-23_13h26.39.008,IAT(Formal),2021.2.3,Win32,60.60606061,,,i,1,0.8344,0,23,23,26,1,自卑,i,,,,,,,,,,,,,,,,,,,,,,,,,,,,,,,,,,,,,,,,,,,,,,,,,,,,,
,,,,,,,,,,,,,,1,001,2024-08-23_13h26.39.008,IAT(Formal),2021.2.3,Win32,60.60606061,,,e,1,0.7218,0,24,24,13,1,公正,e,,,,,,,,,,,,,,,,,,,,,,,,,,,,,,,,,,,,,,,,,,,,,,,,,,,,,
,,,,,,,,,,,,,,1,001,2024-08-23_13h26.39.008,IAT(Formal),2021.2.3,Win32,60.60606061,,,e,1,0.4904,0,25,25,1,1,崇高,e,,,,,,,,,,,,,,,,,,,,,,,,,,,,,,,,,,,,,,,,,,,,,,,,,,,,,
,,,,,,,,,,,,,,1,001,2024-08-23_13h26.39.008,IAT(Formal),2021.2.3,Win32,60.60606061,,,e,1,0.5334,0,26,26,5,1,诚实,e,,,,,,,,,,,,,,,,,,,,,,,,,,,,,,,,,,,,,,,,,,,,,,,,,,,,,
,,,,,,,,,,,,,,1,001,2024-08-23_13h26.39.008,IAT(Formal),2021.2.3,Win32,60.60606061,,,e,1,0.7572,0,27,27,11,1,稳重,e,,,,,,,,,,,,,,,,,,,,,,,,,,,,,,,,,,,,,,,,,,,,,,,,,,,,,
,,,,,,,,,,,,,,1,001,2024-08-23_13h26.39.008,IAT(Formal),2021.2.3,Win32,60.60606061,,,i,1,0.9336,0,28,28,33,1,自私,i,,,,,,,,,,,,,,,,,,,,,,,,,,,,,,,,,,,,,,,,,,,,,,,,,,,,,
,,,,,,,,,,,,,,1,001,2024-08-23_13h26.39.008,IAT(Formal),2021.2.3,Win32,60.60606061,,,i,1,0.6863,0,29,29,25,1,消极,i,,,,,,,,,,,,,,,,,,,,,,,,,,,,,,,,,,,,,,,,,,,,,,,,,,,,,
,,,,,,,,,,,,,,1,001,2024-08-23_13h26.39.008,IAT(Formal),2021.2.3,Win32,60.60606061,,,i,1,0.5748,0,30,30,35,1,猖狂,i,,,,,,,,,,,,,,,,,,,,,,,,,,,,,,,,,,,,,,,,,,,,,,,,,,,,,
,,,,,,,,,,,,,,1,001,2024-08-23_13h26.39.008,IAT(Formal),2021.2.3,Win32,60.60606061,,,i,1,0.7908,0,31,31,37,1,固执,i,,,,,,,,,,,,,,,,,,,,,,,,,,,,,,,,,,,,,,,,,,,,,,,,,,,,,
,,,,,,,,,,,,,,1,001,2024-08-23_13h26.39.008,IAT(Formal),2021.2.3,Win32,60.60606061,,,i,1,0.6875,0,32,32,38,1,轻率,i,,,,,,,,,,,,,,,,,,,,,,,,,,,,,,,,,,,,,,,,,,,,,,,,,,,,,
,,,,,,,,,,,,,,1,001,2024-08-23_13h26.39.008,IAT(Formal),2021.2.3,Win32,60.60606061,,,i,1,0.4978,0,33,33,20,1,卑鄙,i,,,,,,,,,,,,,,,,,,,,,,,,,,,,,,,,,,,,,,,,,,,,,,,,,,,,,
,,,,,,,,,,,,,,1,001,2024-08-23_13h26.39.008,IAT(Formal),2021.2.3,Win32,60.60606061,,,e,1,0.875,0,34,34,3,1,杰出,e,,,,,,,,,,,,,,,,,,,,,,,,,,,,,,,,,,,,,,,,,,,,,,,,,,,,,
,,,,,,,,,,,,,,1,001,2024-08-23_13h26.39.008,IAT(Formal),2021.2.3,Win32,60.60606061,,,i,1,0.5622,0,35,35,36,1,野蛮,i,,,,,,,,,,,,,,,,,,,,,,,,,,,,,,,,,,,,,,,,,,,,,,,,,,,,,
,,,,,,,,,,,,,,1,001,2024-08-23_13h26.39.008,IAT(Formal),2021.2.3,Win32,60.60606061,,,i,0,0.7337,0,36,36,2,1,聪明,e,,,,,,,,,,,,,,,,,,,,,,,,,,,,,,,,,,,,,,,,,,,,,,,,,,,,,
,,,,,,,,,,,,,,1,001,2024-08-23_13h26.39.008,IAT(Formal),2021.2.3,Win32,60.60606061,,,e,1,1.4084,0,37,37,4,1,乐观,e,,,,,,,,,,,,,,,,,,,,,,,,,,,,,,,,,,,,,,,,,,,,,,,,,,,,,
,,,,,,,,,,,,,,1,001,2024-08-23_13h26.39.008,IAT(Formal),2021.2.3,Win32,60.60606061,,,i,1,0.5838,0,38,38,21,1,虚伪,i,,,,,,,,,,,,,,,,,,,,,,,,,,,,,,,,,,,,,,,,,,,,,,,,,,,,,
,,,,,,,,,,,,,,1,001,2024-08-23_13h26.39.008,IAT(Formal),2021.2.3,Win32,60.60606061,,,e,1,0.8998,0,39,39,9,1,机智,e,,,,,,,,,,,,,,,,,,,,,,,,,,,,,,,,,,,,,,,,,,,,,,,,,,,,,
,,,,,,,,,,,,,,1,001,2024-08-23_13h26.39.008,IAT(Formal),2021.2.3,Win32,60.60606061,,,,,,,,,,,,,space,1.5481,,0,0,0,0,22,1,无私,e,,,,,,,,,,,,,,,,,,,,,,,,,,,,,,,,,,,,,,,,,,
,,,,,,,,,,,,,,1,001,2024-08-23_13h26.39.008,IAT(Formal),2021.2.3,Win32,60.60606061,,,,,,,,,,,,,,,i,1,0,1,1,75,1,他,i,1.3503,,,,,,,,,,,,,,,,,,,,,,,,,,,,,,,,,,,,,,,,,
,,,,,,,,,,,,,,1,001,2024-08-23_13h26.39.008,IAT(Formal),2021.2.3,Win32,60.60606061,,,,,,,,,,,,,,,i,0,0,2,2,26,1,冷静,e,1.0338,,,,,,,,,,,,,,,,,,,,,,,,,,,,,,,,,,,,,,,,,
,,,,,,,,,,,,,,1,001,2024-08-23_13h26.39.008,IAT(Formal),2021.2.3,Win32,60.60606061,,,,,,,,,,,,,,,e,1,0,3,3,23,1,公正,e,1.1505,,,,,,,,,,,,,,,,,,,,,,,,,,,,,,,,,,,,,,,,,
,,,,,,,,,,,,,,1,001,2024-08-23_13h26.39.008,IAT(Formal),2021.2.3,Win32,60.60606061,,,,,,,,,,,,,,,i,1,0,4,4,39,1,冒失,i,0.7831,,,,,,,,,,,,,,,,,,,,,,,,,,,,,,,,,,,,,,,,,
,,,,,,,,,,,,,,1,001,2024-08-23_13h26.39.008,IAT(Formal),2021.2.3,Win32,60.60606061,,,,,,,,,,,,,,,i,1,0,5,5,66,1,他们,i,0.7865,,,,,,,,,,,,,,,,,,,,,,,,,,,,,,,,,,,,,,,,,
,,,,,,,,,,,,,,1,001,2024-08-23_13h26.39.008,IAT(Formal),2021.2.3,Win32,60.60606061,,,,,,,,,,,,,,,i,1,0,6,6,44,1,暴躁,i,0.7022,,,,,,,,,,,,,,,,,,,,,,,,,,,,,,,,,,,,,,,,,
,,,,,,,,,,,,,,1,001,2024-08-23_13h26.39.008,IAT(Formal),2021.2.3,Win32,60.60606061,,,,,,,,,,,,,,,i,1,0,7,7,56,1,他们,i,1.0505,,,,,,,,,,,,,,,,,,,,,,,,,,,,,,,,,,,,,,,,,
,,,,,,,,,,,,,,1,001,2024-08-23_13h26.39.008,IAT(Formal),2021.2.3,Win32,60.60606061,,,,,,,,,,,,,,,e,1,0,8,8,4,1,俺,e,0.8907,,,,,,,,,,,,,,,,,,,,,,,,,,,,,,,,,,,,,,,,,
,,,,,,,,,,,,,,1,001,2024-08-23_13h26.39.008,IAT(Formal),2021.2.3,Win32,60.60606061,,,,,,,,,,,,,,,e,1,0,9,9,72,1,我们,e,0.5505,,,,,,,,,,,,,,,,,,,,,,,,,,,,,,,,,,,,,,,,,
,,,,,,,,,,,,,,1,001,2024-08-23_13h26.39.008,IAT(Formal),2021.2.3,Win32,60.60606061,,,,,,,,,,,,,,,e,1,0,10,10,19,1,机智,e,0.5566,,,,,,,,,,,,,,,,,,,,,,,,,,,,,,,,,,,,,,,,,
,,,,,,,,,,,,,,1,001,2024-08-23_13h26.39.008,IAT(Formal),2021.2.3,Win32,60.60606061,,,,,,,,,,,,,,,e,1,0,11,11,64,1,俺,e,0.7831,,,,,,,,,,,,,,,,,,,,,,,,,,,,,,,,,,,,,,,,,
,,,,,,,,,,,,,,1,001,2024-08-23_13h26.39.008,IAT(Formal),2021.2.3,Win32,60.60606061,,,,,,,,,,,,,,,i,1,0,12,12,69,1,其他,i,0.7666,,,,,,,,,,,,,,,,,,,,,,,,,,,,,,,,,,,,,,,,,
,,,,,,,,,,,,,,1,001,2024-08-23_13h26.39.008,IAT(Formal),2021.2.3,Win32,60.60606061,,,,,,,,,,,,,,,e,1,0,13,13,20,1,认真,e,0.6842,,,,,,,,,,,,,,,,,,,,,,,,,,,,,,,,,,,,,,,,,
,,,,,,,,,,,,,,1,001,2024-08-23_13h26.39.008,IAT(Formal),2021.2.3,Win32,60.60606061,,,,,,,,,,,,,,,i,1,0,14,14,32,1,愚蠢,i,0.618,,,,,,,,,,,,,,,,,,,,,,,,,,,,,,,,,,,,,,,,,
,,,,,,,,,,,,,,1,001,2024-08-23_13h26.39.008,IAT(Formal),2021.2.3,Win32,60.60606061,,,,,,,,,,,,,,,i,1,0,15,15,8,1,他人,i,0.7666,,,,,,,,,,,,,,,,,,,,,,,,,,,,,,,,,,,,,,,,,
,,,,,,,,,,,,,,1,001,2024-08-23_13h26.39.008,IAT(Formal),2021.2.3,Win32,60.60606061,,,,,,,,,,,,,,,i,1,0,16,16,43,1,自私,i,1.1499,,,,,,,,,,,,,,,,,,,,,,,,,,,,,,,,,,,,,,,,,
,,,,,,,,,,,,,,1,001,2024-08-23_13h26.39.008,IAT(Formal),2021.2.3,Win32,60.60606061,,,,,,,,,,,,,,,e,1,0,17,17,17,1,勇敢,e,0.8171,,,,,,,,,,,,,,,,,,,,,,,,,,,,,,,,,,,,,,,,,
,,,,,,,,,,,,,,1,001,2024-08-23_13h26.39.008,IAT(Formal),2021.2.3,Win32,60.60606061,,,,,,,,,,,,,,,i,1,0,18,18,79,1,其他,i,0.6334,,,,,,,,,,,,,,,,,,,,,,,,,,,,,,,,,,,,,,,,,
,,,,,,,,,,,,,,1,001,2024-08-23_13h26.39.008,IAT(Formal),2021.2.3,Win32,60.60606061,,,,,,,,,,,,,,,i,1,0,19,19,9,1,其他,i,0.5202,,,,,,,,,,,,,,,,,,,,,,,,,,,,,,,,,,,,,,,,,
,,,,,,,,,,,,,,1,001,2024-08-23_13h26.39.008,IAT(Formal),2021.2.3,Win32,60.60606061,,,,,,,,,,,,,,,i,1,0,20,20,78,1,他人,i,0.7431,,,,,,,,,,,,,,,,,,,,,,,,,,,,,,,,,,,,,,,,,
,,,,,,,,,,,,,,1,001,2024-08-23_13h26.39.008,IAT(Formal),2021.2.3,Win32,60.60606061,,,,,,,,,,,,,,,e,1,0,21,21,29,1,诚恳,e,1.1365,,,,,,,,,,,,,,,,,,,,,,,,,,,,,,,,,,,,,,,,,
,,,,,,,,,,,,,,1,001,2024-08-23_13h26.39.008,IAT(Formal),2021.2.3,Win32,60.60606061,,,,,,,,,,,,,,,i,1,0,22,22,77,1,他的,i,0.9355,,,,,,,,,,,,,,,,,,,,,,,,,,,,,,,,,,,,,,,,,
,,,,,,,,,,,,,,1,001,2024-08-23_13h26.39.008,IAT(Formal),2021.2.3,Win32,60.60606061,,,,,,,,,,,,,,,e,1,0,23,23,73,1,自己,e,0.6506,,,,,,,,,,,,,,,,,,,,,,,,,,,,,,,,,,,,,,,,,
,,,,,,,,,,,,,,1,001,2024-08-23_13h26.39.008,IAT(Formal),2021.2.3,Win32,60.60606061,,,,,,,,,,,,,,,e,1,0,24,24,13,1,杰出,e,0.8148,,,,,,,,,,,,,,,,,,,,,,,,,,,,,,,,,,,,,,,,,
,,,,,,,,,,,,,,1,001,2024-08-23_13h26.39.008,IAT(Formal),2021.2.3,Win32,60.60606061,,,,,,,,,,,,,,,e,1,0,25,25,15,1,诚实,e,0.5331,,,,,,,,,,,,,,,,,,,,,,,,,,,,,,,,,,,,,,,,,
,,,,,,,,,,,,,,1,001,2024-08-23_13h26.39.008,IAT(Formal),2021.2.3,Win32,60.60606061,,,,,,,,,,,,,,,e,1,0,26,26,51,1,我的,e,0.5929,,,,,,,,,,,,,,,,,,,,,,,,,,,,,,,,,,,,,,,,,
,,,,,,,,,,,,,,1,001,2024-08-23_13h26.39.008,IAT(Formal),2021.2.3,Win32,60.60606061,,,,,,,,,,,,,,,i,1,0,27,27,7,1,他的,i,1.0376,,,,,,,,,,,,,,,,,,,,,,,,,,,,,,,,,,,,,,,,,
,,,,,,,,,,,,,,1,001,2024-08-23_13h26.39.008,IAT(Formal),2021.2.3,Win32,60.60606061,,,,,,,,,,,,,,,e,1,0,28,28,52,1,我们,e,0.6333,,,,,,,,,,,,,,,,,,,,,,,,,,,,,,,,,,,,,,,,,
,,,,,,,,,,,,,,1,001,2024-08-23_13h26.39.008,IAT(Formal),2021.2.3,Win32,60.60606061,,,,,,,,,,,,,,,i,1,0,29,29,41,1,散漫,i,0.817,,,,,,,,,,,,,,,,,,,,,,,,,,,,,,,,,,,,,,,,,
,,,,,,,,,,,,,,1,001,2024-08-23_13h26.39.008,IAT(Formal),2021.2.3,Win32,60.60606061,,,,,,,,,,,,,,,i,1,0,30,30,67,1,他的,i,1.2335,,,,,,,,,,,,,,,,,,,,,,,,,,,,,,,,,,,,,,,,,
,,,,,,,,,,,,,,1,001,2024-08-23_13h26.39.008,IAT(Formal),2021.2.3,Win32,60.60606061,,,,,,,,,,,,,,,e,1,0,31,31,2,1,我们,e,0.6229,,,,,,,,,,,,,,,,,,,,,,,,,,,,,,,,,,,,,,,,,
,,,,,,,,,,,,,,1,001,2024-08-23_13h26.39.008,IAT(Formal),2021.2.3,Win32,60.60606061,,,,,,,,,,,,,,,i,1,0,32,32,34,1,悲观,i,0.6085,,,,,,,,,,,,,,,,,,,,,,,,,,,,,,,,,,,,,,,,,
,,,,,,,,,,,,,,1,001,2024-08-23_13h26.39.008,IAT(Formal),2021.2.3,Win32,60.60606061,,,,,,,,,,,,,,,e,1,0,33,33,0,1,我,e,0.6014,,,,,,,,,,,,,,,,,,,,,,,,,,,,,,,,,,,,,,,,,
,,,,,,,,,,,,,,1,001,2024-08-23_13h26.39.008,IAT(Formal),2021.2.3,Win32,60.60606061,,,,,,,,,,,,,,,i,1,0,34,34,5,1,他,i,1.0911,,,,,,,,,,,,,,,,,,,,,,,,,,,,,,,,,,,,,,,,,
,,,,,,,,,,,,,,1,001,2024-08-23_13h26.39.008,IAT(Formal),2021.2.3,Win32,60.60606061,,,,,,,,,,,,,,,,0,0,35,35,49,1,下贱,i,,,,,,,,,,,,,,,,,,,,,,,,,,,,,,,,,,,,,,,,,,
,,,,,,,,,,,,,,1,001,2024-08-23_13h26.39.008,IAT(Formal),2021.2.3,Win32,60.60606061,,,,,,,,,,,,,,,e,1,0,36,36,61,1,我的,e,0.6002,,,,,,,,,,,,,,,,,,,,,,,,,,,,,,,,,,,,,,,,,
,,,,,,,,,,,,,,1,001,2024-08-23_13h26.39.008,IAT(Formal),2021.2.3,Win32,60.60606061,,,,,,,,,,,,,,,i,1,0,37,37,36,1,自卑,i,0.5672,,,,,,,,,,,,,,,,,,,,,,,,,,,,,,,,,,,,,,,,,
,,,,,,,,,,,,,,1,001,2024-08-23_13h26.39.008,IAT(Formal),2021.2.3,Win32,60.60606061,,,,,,,,,,,,,,,i,1,0,38,38,30,1,卑鄙,i,0.5933,,,,,,,,,,,,,,,,,,,,,,,,,,,,,,,,,,,,,,,,,
,,,,,,,,,,,,,,1,001,2024-08-23_13h26.39.008,IAT(Formal),2021.2.3,Win32,60.60606061,,,,,,,,,,,,,,,e,1,0,39,39,71,1,我的,e,0.7026,,,,,,,,,,,,,,,,,,,,,,,,,,,,,,,,,,,,,,,,,
,,,,,,,,,,,,,,1,001,2024-08-23_13h26.39.008,IAT(Formal),2021.2.3,Win32,60.60606061,,,,,,,,,,,,,,,i,1,0,40,40,57,1,他的,i,0.6509,,,,,,,,,,,,,,,,,,,,,,,,,,,,,,,,,,,,,,,,,
,,,,,,,,,,,,,,1,001,2024-08-23_13h26.39.008,IAT(Formal),2021.2.3,Win32,60.60606061,,,,,,,,,,,,,,,i,1,0,41,41,31,1,虚伪,i,0.6258,,,,,,,,,,,,,,,,,,,,,,,,,,,,,,,,,,,,,,,,,
,,,,,,,,,,,,,,1,001,2024-08-23_13h26.39.008,IAT(Formal),2021.2.3,Win32,60.60606061,,,,,,,,,,,,,,,e,1,0,42,42,54,1,俺,e,0.9835,,,,,,,,,,,,,,,,,,,,,,,,,,,,,,,,,,,,,,,,,
,,,,,,,,,,,,,,1,001,2024-08-23_13h26.39.008,IAT(Formal),2021.2.3,Win32,60.60606061,,,,,,,,,,,,,,,e,0,0,43,43,47,1,固执,i,1.1558,,,,,,,,,,,,,,,,,,,,,,,,,,,,,,,,,,,,,,,,,
,,,,,,,,,,,,,,1,001,2024-08-23_13h26.39.008,IAT(Formal),2021.2.3,Win32,60.60606061,,,,,,,,,,,,,,,i,1,0,44,44,37,1,傲慢,i,0.539,,,,,,,,,,,,,,,,,,,,,,,,,,,,,,,,,,,,,,,,,
,,,,,,,,,,,,,,1,001,2024-08-23_13h26.39.008,IAT(Formal),2021.2.3,Win32,60.60606061,,,,,,,,,,,,,,,e,1,0,45,45,63,1,自己,e,0.6005,,,,,,,,,,,,,,,,,,,,,,,,,,,,,,,,,,,,,,,,,
,,,,,,,,,,,,,,1,001,2024-08-23_13h26.39.008,IAT(Formal),2021.2.3,Win32,60.60606061,,,,,,,,,,,,,,,e,1,0,46,46,10,1,优秀,e,0.5918,,,,,,,,,,,,,,,,,,,,,,,,,,,,,,,,,,,,,,,,,
,,,,,,,,,,,,,,1,001,2024-08-23_13h26.39.008,IAT(Formal),2021.2.3,Win32,60.60606061,,,,,,,,,,,,,,,e,1,0,47,47,21,1,稳重,e,0.6247,,,,,,,,,,,,,,,,,,,,,,,,,,,,,,,,,,,,,,,,,
,,,,,,,,,,,,,,1,001,2024-08-23_13h26.39.008,IAT(Formal),2021.2.3,Win32,60.60606061,,,,,,,,,,,,,,,i,1,0,48,48,45,1,猖狂,i,0.6869,,,,,,,,,,,,,,,,,,,,,,,,,,,,,,,,,,,,,,,,,
,,,,,,,,,,,,,,1,001,2024-08-23_13h26.39.008,IAT(Formal),2021.2.3,Win32,60.60606061,,,,,,,,,,,,,,,e,1,0,49,49,74,1,俺,e,0.6366,,,,,,,,,,,,,,,,,,,,,,,,,,,,,,,,,,,,,,,,,
,,,,,,,,,,,,,,1,001,2024-08-23_13h26.39.008,IAT(Formal),2021.2.3,Win32,60.60606061,,,,,,,,,,,,,,,e,1,0,50,50,3,1,自己,e,0.5644,,,,,,,,,,,,,,,,,,,,,,,,,,,,,,,,,,,,,,,,,
,,,,,,,,,,,,,,1,001,2024-08-23_13h26.39.008,IAT(Formal),2021.2.3,Win32,60.60606061,,,,,,,,,,,,,,,e,1,0,51,51,16,1,正直,e,0.7865,,,,,,,,,,,,,,,,,,,,,,,,,,,,,,,,,,,,,,,,,
,,,,,,,,,,,,,,1,001,2024-08-23_13h26.39.008,IAT(Formal),2021.2.3,Win32,60.60606061,,,,,,,,,,,,,,,i,1,0,52,52,33,1,刻薄,i,0.6686,,,,,,,,,,,,,,,,,,,,,,,,,,,,,,,,,,,,,,,,,
,,,,,,,,,,,,,,1,001,2024-08-23_13h26.39.008,IAT(Formal),2021.2.3,Win32,60.60606061,,,,,,,,,,,,,,,e,1,0,53,53,24,1,朴实,e,0.7465,,,,,,,,,,,,,,,,,,,,,,,,,,,,,,,,,,,,,,,,,
,,,,,,,,,,,,,,1,001,2024-08-23_13h26.39.008,IAT(Formal),2021.2.3,Win32,60.60606061,,,,,,,,,,,,,,,i,1,0,54,54,65,1,他,i,0.6421,,,,,,,,,,,,,,,,,,,,,,,,,,,,,,,,,,,,,,,,,
,,,,,,,,,,,,,,1,001,2024-08-23_13h26.39.008,IAT(Formal),2021.2.3,Win32,60.60606061,,,,,,,,,,,,,,,e,1,0,55,55,50,1,我,e,0.5494,,,,,,,,,,,,,,,,,,,,,,,,,,,,,,,,,,,,,,,,,
,,,,,,,,,,,,,,1,001,2024-08-23_13h26.39.008,IAT(Formal),2021.2.3,Win32,60.60606061,,,,,,,,,,,,,,,e,1,0,56,56,60,1,我,e,0.6887,,,,,,,,,,,,,,,,,,,,,,,,,,,,,,,,,,,,,,,,,
,,,,,,,,,,,,,,1,001,2024-08-23_13h26.39.008,IAT(Formal),2021.2.3,Win32,60.60606061,,,,,,,,,,,,,,,i,1,0,57,57,76,1,他们,i,0.6095,,,,,,,,,,,,,,,,,,,,,,,,,,,,,,,,,,,,,,,,,
,,,,,,,,,,,,,,1,001,2024-08-23_13h26.39.008,IAT(Formal),2021.2.3,Win32,60.60606061,,,,,,,,,,,,,,,i,1,0,58,58,55,1,他,i,0.5045,,,,,,,,,,,,,,,,,,,,,,,,,,,,,,,,,,,,,,,,,
,,,,,,,,,,,,,,1,001,2024-08-23_13h26.39.008,IAT(Formal),2021.2.3,Win32,60.60606061,,,,,,,,,,,,,,,i,1,0,59,59,35,1,消极,i,0.8227,,,,,,,,,,,,,,,,,,,,,,,,,,,,,,,,,,,,,,,,,
,,,,,,,,,,,,,,1,001,2024-08-23_13h26.39.008,IAT(Formal),2021.2.3,Win32,60.60606061,,,,,,,,,,,,,,,e,1,0,60,60,28,1,活泼,e,0.4699,,,,,,,,,,,,,,,,,,,,,,,,,,,,,,,,,,,,,,,,,
,,,,,,,,,,,,,,1,001,2024-08-23_13h26.39.008,IAT(Formal),2021.2.3,Win32,60.60606061,,,,,,,,,,,,,,,e,1,0,61,61,12,1,聪明,e,0.498,,,,,,,,,,,,,,,,,,,,,,,,,,,,,,,,,,,,,,,,,
,,,,,,,,,,,,,,1,001,2024-08-23_13h26.39.008,IAT(Formal),2021.2.3,Win32,60.60606061,,,,,,,,,,,,,,,e,1,0,62,62,70,1,我,e,0.5383,,,,,,,,,,,,,,,,,,,,,,,,,,,,,,,,,,,,,,,,,
,,,,,,,,,,,,,,1,001,2024-08-23_13h26.39.008,IAT(Formal),2021.2.3,Win32,60.60606061,,,,,,,,,,,,,,,e,1,0,63,63,11,1,崇高,e,0.6907,,,,,,,,,,,,,,,,,,,,,,,,,,,,,,,,,,,,,,,,,
,,,,,,,,,,,,,,1,001,2024-08-23_13h26.39.008,IAT(Formal),2021.2.3,Win32,60.60606061,,,,,,,,,,,,,,,i,1,0,64,64,40,1,执拗,i,0.8378,,,,,,,,,,,,,,,,,,,,,,,,,,,,,,,,,,,,,,,,,
,,,,,,,,,,,,,,1,001,2024-08-23_13h26.39.008,IAT(Formal),2021.2.3,Win32,60.60606061,,,,,,,,,,,,,,,e,1,0,65,65,14,1,乐观,e,0.7035,,,,,,,,,,,,,,,,,,,,,,,,,,,,,,,,,,,,,,,,,
,,,,,,,,,,,,,,1,001,2024-08-23_13h26.39.008,IAT(Formal),2021.2.3,Win32,60.60606061,,,,,,,,,,,,,,,i,1,0,66,66,46,1,野蛮,i,0.5826,,,,,,,,,,,,,,,,,,,,,,,,,,,,,,,,,,,,,,,,,
,,,,,,,,,,,,,,1,001,2024-08-23_13h26.39.008,IAT(Formal),2021.2.3,Win32,60.60606061,,,,,,,,,,,,,,,e,1,0,67,67,25,1,细腻,e,0.6638,,,,,,,,,,,,,,,,,,,,,,,,,,,,,,,,,,,,,,,,,
,,,,,,,,,,,,,,1,001,2024-08-23_13h26.39.008,IAT(Formal),2021.2.3,Win32,60.60606061,,,,,,,,,,,,,,,i,1,0,68,68,42,1,凶狠,i,0.5667,,,,,,,,,,,,,,,,,,,,,,,,,,,,,,,,,,,,,,,,,
,,,,,,,,,,,,,,1,001,2024-08-23_13h26.39.008,IAT(Formal),2021.2.3,Win32,60.60606061,,,,,,,,,,,,,,,i,1,0,69,69,6,1,他们,i,0.7321,,,,,,,,,,,,,,,,,,,,,,,,,,,,,,,,,,,,,,,,,
,,,,,,,,,,,,,,1,001,2024-08-23_13h26.39.008,IAT(Formal),2021.2.3,Win32,60.60606061,,,,,,,,,,,,,,,e,1,0,70,70,1,1,我的,e,0.497,,,,,,,,,,,,,,,,,,,,,,,,,,,,,,,,,,,,,,,,,
,,,,,,,,,,,,,,1,001,2024-08-23_13h26.39.008,IAT(Formal),2021.2.3,Win32,60.60606061,,,,,,,,,,,,,,,i,1,0,71,71,58,1,他人,i,0.6567,,,,,,,,,,,,,,,,,,,,,,,,,,,,,,,,,,,,,,,,,
,,,,,,,,,,,,,,1,001,2024-08-23_13h26.39.008,IAT(Formal),2021.2.3,Win32,60.60606061,,,,,,,,,,,,,,,e,1,0,72,72,18,1,勤奋,e,0.9381,,,,,,,,,,,,,,,,,,,,,,,,,,,,,,,,,,,,,,,,,
,,,,,,,,,,,,,,1,001,2024-08-23_13h26.39.008,IAT(Formal),2021.2.3,Win32,60.60606061,,,,,,,,,,,,,,,e,1,0,73,73,53,1,自己,e,0.7553,,,,,,,,,,,,,,,,,,,,,,,,,,,,,,,,,,,,,,,,,
,,,,,,,,,,,,,,1,001,2024-08-23_13h26.39.008,IAT(Formal),2021.2.3,Win32,60.60606061,,,,,,,,,,,,,,,i,1,0,74,74,59,1,其他,i,0.6141,,,,,,,,,,,,,,,,,,,,,,,,,,,,,,,,,,,,,,,,,
,,,,,,,,,,,,,,1,001,2024-08-23_13h26.39.008,IAT(Formal),2021.2.3,Win32,60.60606061,,,,,,,,,,,,,,,i,1,0,75,75,68,1,他人,i,0.5469,,,,,,,,,,,,,,,,,,,,,,,,,,,,,,,,,,,,,,,,,
,,,,,,,,,,,,,,1,001,2024-08-23_13h26.39.008,IAT(Formal),2021.2.3,Win32,60.60606061,,,,,,,,,,,,,,,i,1,0,76,76,48,1,轻率,i,0.7034,,,,,,,,,,,,,,,,,,,,,,,,,,,,,,,,,,,,,,,,,
,,,,,,,,,,,,,,1,001,2024-08-23_13h26.39.008,IAT(Formal),2021.2.3,Win32,60.60606061,,,,,,,,,,,,,,,e,1,0,77,77,62,1,我们,e,0.688,,,,,,,,,,,,,,,,,,,,,,,,,,,,,,,,,,,,,,,,,
,,,,,,,,,,,,,,1,001,2024-08-23_13h26.39.008,IAT(Formal),2021.2.3,Win32,60.60606061,,,,,,,,,,,,,,,i,1,0,78,78,38,1,鲁莽,i,0.6369,,,,,,,,,,,,,,,,,,,,,,,,,,,,,,,,,,,,,,,,,
,,,,,,,,,,,,,,1,001,2024-08-23_13h26.39.008,IAT(Formal),2021.2.3,Win32,60.60606061,,,,,,,,,,,,,,,e,1,0,79,79,27,1,热情,e,0.6188,,,,,,,,,,,,,,,,,,,,,,,,,,,,,,,,,,,,,,,,,
,,,,,,,,,,,,,,1,001,2024-08-23_13h26.39.008,IAT(Formal),2021.2.3,Win32,60.60606061,,,,,,,,,,,,,,,e,1,,,,,,诚实,e,0.8676,space,6.0266,0,0,0,15,1,,,,,,,,,,,,,,,,,,,,,,,,,,,,,,,,,,
,,,,,,,,,,,,,,1,001,2024-08-23_13h26.39.008,IAT(Formal),2021.2.3,Win32,60.60606061,,,,,,,,,,,,,,,i,1,,,,,,凶狠,i,0.641,,,0,1,1,42,1,,,,,,,,,,,,,,,,,,,,,,,,,,,,,,,,,,
,,,,,,,,,,,,,,1,001,2024-08-23_13h26.39.008,IAT(Formal),2021.2.3,Win32,60.60606061,,,,,,,,,,,,,,,i,1,,,,,,其他,i,0.6118,,,0,2,2,79,1,,,,,,,,,,,,,,,,,,,,,,,,,,,,,,,,,,
,,,,,,,,,,,,,,1,001,2024-08-23_13h26.39.008,IAT(Formal),2021.2.3,Win32,60.60606061,,,,,,,,,,,,,,,i,1,,,,,,悲观,i,0.4927,,,0,3,3,34,1,,,,,,,,,,,,,,,,,,,,,,,,,,,,,,,,,,
,,,,,,,,,,,,,,1,001,2024-08-23_13h26.39.008,IAT(Formal),2021.2.3,Win32,60.60606061,,,,,,,,,,,,,,,e,1,,,,,,自己,e,0.5171,,,0,4,4,3,1,,,,,,,,,,,,,,,,,,,,,,,,,,,,,,,,,,
,,,,,,,,,,,,,,1,001,2024-08-23_13h26.39.008,IAT(Formal),2021.2.3,Win32,60.60606061,,,,,,,,,,,,,,,i,1,,,,,,他的,i,0.5539,,,0,5,5,57,1,,,,,,,,,,,,,,,,,,,,,,,,,,,,,,,,,,
,,,,,,,,,,,,,,1,001,2024-08-23_13h26.39.008,IAT(Formal),2021.2.3,Win32,60.60606061,,,,,,,,,,,,,,,e,1,,,,,,我们,e,0.788,,,0,6,6,62,1,,,,,,,,,,,,,,,,,,,,,,,,,,,,,,,,,,
,,,,,,,,,,,,,,1,001,2024-08-23_13h26.39.008,IAT(Formal),2021.2.3,Win32,60.60606061,,,,,,,,,,,,,,,e,1,,,,,,我的,e,0.9237,,,0,7,7,71,1,,,,,,,,,,,,,,,,,,,,,,,,,,,,,,,,,,
,,,,,,,,,,,,,,1,001,2024-08-23_13h26.39.008,IAT(Formal),2021.2.3,Win32,60.60606061,,,,,,,,,,,,,,,i,1,,,,,,他,i,0.7177,,,0,8,8,55,1,,,,,,,,,,,,,,,,,,,,,,,,,,,,,,,,,,
,,,,,,,,,,,,,,1,001,2024-08-23_13h26.39.008,IAT(Formal),2021.2.3,Win32,60.60606061,,,,,,,,,,,,,,,i,1,,,,,,愚蠢,i,0.6176,,,0,9,9,32,1,,,,,,,,,,,,,,,,,,,,,,,,,,,,,,,,,,
,,,,,,,,,,,,,,1,001,2024-08-23_13h26.39.008,IAT(Formal),2021.2.3,Win32,60.60606061,,,,,,,,,,,,,,,e,1,,,,,,朴实,e,0.9373,,,0,10,10,24,1,,,,,,,,,,,,,,,,,,,,,,,,,,,,,,,,,,
,,,,,,,,,,,,,,1,001,2024-08-23_13h26.39.008,IAT(Formal),2021.2.3,Win32,60.60606061,,,,,,,,,,,,,,,i,1,,,,,,执拗,i,1.0189,,,0,11,11,40,1,,,,,,,,,,,,,,,,,,,,,,,,,,,,,,,,,,
,,,,,,,,,,,,,,1,001,2024-08-23_13h26.39.008,IAT(Formal),2021.2.3,Win32,60.60606061,,,,,,,,,,,,,,,i,1,,,,,,他,i,1.1228,,,0,12,12,75,1,,,,,,,,,,,,,,,,,,,,,,,,,,,,,,,,,,
,,,,,,,,,,,,,,1,001,2024-08-23_13h26.39.008,IAT(Formal),2021.2.3,Win32,60.60606061,,,,,,,,,,,,,,,i,1,,,,,,他人,i,0.5501,,,0,13,13,58,1,,,,,,,,,,,,,,,,,,,,,,,,,,,,,,,,,,
,,,,,,,,,,,,,,1,001,2024-08-23_13h26.39.008,IAT(Formal),2021.2.3,Win32,60.60606061,,,,,,,,,,,,,,,e,1,,,,,,我,e,0.5087,,,0,14,14,60,1,,,,,,,,,,,,,,,,,,,,,,,,,,,,,,,,,,
,,,,,,,,,,,,,,1,001,2024-08-23_13h26.39.008,IAT(Formal),2021.2.3,Win32,60.60606061,,,,,,,,,,,,,,,i,0,,,,,,活泼,e,0.8669,,,0,15,15,28,1,,,,,,,,,,,,,,,,,,,,,,,,,,,,,,,,,,
,,,,,,,,,,,,,,1,001,2024-08-23_13h26.39.008,IAT(Formal),2021.2.3,Win32,60.60606061,,,,,,,,,,,,,,,i,1,,,,,,其他,i,0.6268,,,0,16,16,59,1,,,,,,,,,,,,,,,,,,,,,,,,,,,,,,,,,,
,,,,,,,,,,,,,,1,001,2024-08-23_13h26.39.008,IAT(Formal),2021.2.3,Win32,60.60606061,,,,,,,,,,,,,,,e,1,,,,,,自己,e,0.6227,,,0,17,17,53,1,,,,,,,,,,,,,,,,,,,,,,,,,,,,,,,,,,
,,,,,,,,,,,,,,1,001,2024-08-23_13h26.39.008,IAT(Formal),2021.2.3,Win32,60.60606061,,,,,,,,,,,,,,,i,1,,,,,,野蛮,i,0.6336,,,0,18,18,46,1,,,,,,,,,,,,,,,,,,,,,,,,,,,,,,,,,,
,,,,,,,,,,,,,,1,001,2024-08-23_13h26.39.008,IAT(Formal),2021.2.3,Win32,60.60606061,,,,,,,,,,,,,,,e,1,,,,,,勇敢,e,0.8042,,,0,19,19,17,1,,,,,,,,,,,,,,,,,,,,,,,,,,,,,,,,,,
,,,,,,,,,,,,,,1,001,2024-08-23_13h26.39.008,IAT(Formal),2021.2.3,Win32,60.60606061,,,,,,,,,,,,,,,i,1,,,,,,自卑,i,0.7036,,,0,20,20,36,1,,,,,,,,,,,,,,,,,,,,,,,,,,,,,,,,,,
,,,,,,,,,,,,,,1,001,2024-08-23_13h26.39.008,IAT(Formal),2021.2.3,Win32,60.60606061,,,,,,,,,,,,,,,e,1,,,,,,自己,e,0.6665,,,0,21,21,63,1,,,,,,,,,,,,,,,,,,,,,,,,,,,,,,,,,,
,,,,,,,,,,,,,,1,001,2024-08-23_13h26.39.008,IAT(Formal),2021.2.3,Win32,60.60606061,,,,,,,,,,,,,,,e,1,,,,,,俺,e,0.8085,,,0,22,22,54,1,,,,,,,,,,,,,,,,,,,,,,,,,,,,,,,,,,
,,,,,,,,,,,,,,1,001,2024-08-23_13h26.39.008,IAT(Formal),2021.2.3,Win32,60.60606061,,,,,,,,,,,,,,,i,1,,,,,,暴躁,i,0.7074,,,0,23,23,44,1,,,,,,,,,,,,,,,,,,,,,,,,,,,,,,,,,,
,,,,,,,,,,,,,,1,001,2024-08-23_13h26.39.008,IAT(Formal),2021.2.3,Win32,60.60606061,,,,,,,,,,,,,,,i,1,,,,,,他们,i,0.6609,,,0,24,24,66,1,,,,,,,,,,,,,,,,,,,,,,,,,,,,,,,,,,
,,,,,,,,,,,,,,1,001,2024-08-23_13h26.39.008,IAT(Formal),2021.2.3,Win32,60.60606061,,,,,,,,,,,,,,,i,1,,,,,,傲慢,i,0.6834,,,0,25,25,37,1,,,,,,,,,,,,,,,,,,,,,,,,,,,,,,,,,,
,,,,,,,,,,,,,,1,001,2024-08-23_13h26.39.008,IAT(Formal),2021.2.3,Win32,60.60606061,,,,,,,,,,,,,,,e,1,,,,,,我们,e,0.5424,,,0,26,26,72,1,,,,,,,,,,,,,,,,,,,,,,,,,,,,,,,,,,
,,,,,,,,,,,,,,1,001,2024-08-23_13h26.39.008,IAT(Formal),2021.2.3,Win32,60.60606061,,,,,,,,,,,,,,,i,1,,,,,,消极,i,0.6503,,,0,27,27,35,1,,,,,,,,,,,,,,,,,,,,,,,,,,,,,,,,,,
,,,,,,,,,,,,,,1,001,2024-08-23_13h26.39.008,IAT(Formal),2021.2.3,Win32,60.60606061,,,,,,,,,,,,,,,e,1,,,,,,公正,e,0.5198,,,0,28,28,23,1,,,,,,,,,,,,,,,,,,,,,,,,,,,,,,,,,,
,,,,,,,,,,,,,,1,001,2024-08-23_13h26.39.008,IAT(Formal),2021.2.3,Win32,60.60606061,,,,,,,,,,,,,,,i,1,,,,,,虚伪,i,0.7254,,,0,29,29,31,1,,,,,,,,,,,,,,,,,,,,,,,,,,,,,,,,,,
,,,,,,,,,,,,,,1,001,2024-08-23_13h26.39.008,IAT(Formal),2021.2.3,Win32,60.60606061,,,,,,,,,,,,,,,e,1,,,,,,我的,e,0.5162,,,0,30,30,61,1,,,,,,,,,,,,,,,,,,,,,,,,,,,,,,,,,,
,,,,,,,,,,,,,,1,001,2024-08-23_13h26.39.008,IAT(Formal),2021.2.3,Win32,60.60606061,,,,,,,,,,,,,,,e,1,,,,,,俺,e,0.6993,,,0,31,31,64,1,,,,,,,,,,,,,,,,,,,,,,,,,,,,,,,,,,
,,,,,,,,,,,,,,1,001,2024-08-23_13h26.39.008,IAT(Formal),2021.2.3,Win32,60.60606061,,,,,,,,,,,,,,,i,1,,,,,,自私,i,0.7038,,,0,32,32,43,1,,,,,,,,,,,,,,,,,,,,,,,,,,,,,,,,,,
,,,,,,,,,,,,,,1,001,2024-08-23_13h26.39.008,IAT(Formal),2021.2.3,Win32,60.60606061,,,,,,,,,,,,,,,i,1,,,,,,他人,i,0.6549,,,0,33,33,78,1,,,,,,,,,,,,,,,,,,,,,,,,,,,,,,,,,,
,,,,,,,,,,,,,,1,001,2024-08-23_13h26.39.008,IAT(Formal),2021.2.3,Win32,60.60606061,,,,,,,,,,,,,,,i,1,,,,,,鲁莽,i,0.8764,,,0,34,34,38,1,,,,,,,,,,,,,,,,,,,,,,,,,,,,,,,,,,
,,,,,,,,,,,,,,1,001,2024-08-23_13h26.39.008,IAT(Formal),2021.2.3,Win32,60.60606061,,,,,,,,,,,,,,,i,1,,,,,,卑鄙,i,0.7105,,,0,35,35,30,1,,,,,,,,,,,,,,,,,,,,,,,,,,,,,,,,,,
,,,,,,,,,,,,,,1,001,2024-08-23_13h26.39.008,IAT(Formal),2021.2.3,Win32,60.60606061,,,,,,,,,,,,,,,e,1,,,,,,俺,e,0.8415,,,0,36,36,74,1,,,,,,,,,,,,,,,,,,,,,,,,,,,,,,,,,,
,,,,,,,,,,,,,,1,001,2024-08-23_13h26.39.008,IAT(Formal),2021.2.3,Win32,60.60606061,,,,,,,,,,,,,,,i,1,,,,,,他们,i,1.1092,,,0,37,37,76,1,,,,,,,,,,,,,,,,,,,,,,,,,,,,,,,,,,
,,,,,,,,,,,,,,1,001,2024-08-23_13h26.39.008,IAT(Formal),2021.2.3,Win32,60.60606061,,,,,,,,,,,,,,,i,1,,,,,,固执,i,0.8341,,,0,38,38,47,1,,,,,,,,,,,,,,,,,,,,,,,,,,,,,,,,,,
,,,,,,,,,,,,,,1,001,2024-08-23_13h26.39.008,IAT(Formal),2021.2.3,Win32,60.60606061,,,,,,,,,,,,,,,i,1,,,,,,冒失,i,0.7333,,,0,39,39,39,1,,,,,,,,,,,,,,,,,,,,,,,,,,,,,,,,,,
,,,,,,,,,,,,,,1,001,2024-08-23_13h26.39.008,IAT(Formal),2021.2.3,Win32,60.60606061,,,,,,,,,,,,,,,e,1,,,,,,正直,e,0.6039,,,0,40,40,16,1,,,,,,,,,,,,,,,,,,,,,,,,,,,,,,,,,,
,,,,,,,,,,,,,,1,001,2024-08-23_13h26.39.008,IAT(Formal),2021.2.3,Win32,60.60606061,,,,,,,,,,,,,,,i,1,,,,,,猖狂,i,0.6669,,,0,41,41,45,1,,,,,,,,,,,,,,,,,,,,,,,,,,,,,,,,,,
,,,,,,,,,,,,,,1,001,2024-08-23_13h26.39.008,IAT(Formal),2021.2.3,Win32,60.60606061,,,,,,,,,,,,,,,e,1,,,,,,诚恳,e,0.9835,,,0,42,42,29,1,,,,,,,,,,,,,,,,,,,,,,,,,,,,,,,,,,
,,,,,,,,,,,,,,1,001,2024-08-23_13h26.39.008,IAT(Formal),2021.2.3,Win32,60.60606061,,,,,,,,,,,,,,,i,1,,,,,,其他,i,0.7405,,,0,43,43,9,1,,,,,,,,,,,,,,,,,,,,,,,,,,,,,,,,,,
,,,,,,,,,,,,,,1,001,2024-08-23_13h26.39.008,IAT(Formal),2021.2.3,Win32,60.60606061,,,,,,,,,,,,,,,i,1,,,,,,他,i,0.5763,,,0,44,44,5,1,,,,,,,,,,,,,,,,,,,,,,,,,,,,,,,,,,
,,,,,,,,,,,,,,1,001,2024-08-23_13h26.39.008,IAT(Formal),2021.2.3,Win32,60.60606061,,,,,,,,,,,,,,,e,1,,,,,,杰出,e,0.7942,,,0,45,45,13,1,,,,,,,,,,,,,,,,,,,,,,,,,,,,,,,,,,
,,,,,,,,,,,,,,1,001,2024-08-23_13h26.39.008,IAT(Formal),2021.2.3,Win32,60.60606061,,,,,,,,,,,,,,,e,1,,,,,,崇高,e,0.6069,,,0,46,46,11,1,,,,,,,,,,,,,,,,,,,,,,,,,,,,,,,,,,
,,,,,,,,,,,,,,1,001,2024-08-23_13h26.39.008,IAT(Formal),2021.2.3,Win32,60.60606061,,,,,,,,,,,,,,,e,1,,,,,,我的,e,0.6334,,,0,47,47,1,1,,,,,,,,,,,,,,,,,,,,,,,,,,,,,,,,,,
,,,,,,,,,,,,,,1,001,2024-08-23_13h26.39.008,IAT(Formal),2021.2.3,Win32,60.60606061,,,,,,,,,,,,,,,e,0,,,,,,他,i,0.6577,,,0,48,48,65,1,,,,,,,,,,,,,,,,,,,,,,,,,,,,,,,,,,
,,,,,,,,,,,,,,1,001,2024-08-23_13h26.39.008,IAT(Formal),2021.2.3,Win32,60.60606061,,,,,,,,,,,,,,,e,1,,,,,,俺,e,0.6816,,,0,49,49,4,1,,,,,,,,,,,,,,,,,,,,,,,,,,,,,,,,,,
,,,,,,,,,,,,,,1,001,2024-08-23_13h26.39.008,IAT(Formal),2021.2.3,Win32,60.60606061,,,,,,,,,,,,,,,e,1,,,,,,机智,e,0.6666,,,0,50,50,19,1,,,,,,,,,,,,,,,,,,,,,,,,,,,,,,,,,,
,,,,,,,,,,,,,,1,001,2024-08-23_13h26.39.008,IAT(Formal),2021.2.3,Win32,60.60606061,,,,,,,,,,,,,,,e,1,,,,,,聪明,e,0.5948,,,0,51,51,12,1,,,,,,,,,,,,,,,,,,,,,,,,,,,,,,,,,,
,,,,,,,,,,,,,,1,001,2024-08-23_13h26.39.008,IAT(Formal),2021.2.3,Win32,60.60606061,,,,,,,,,,,,,,,e,1,,,,,,我的,e,0.5697,,,0,52,52,51,1,,,,,,,,,,,,,,,,,,,,,,,,,,,,,,,,,,
,,,,,,,,,,,,,,1,001,2024-08-23_13h26.39.008,IAT(Formal),2021.2.3,Win32,60.60606061,,,,,,,,,,,,,,,i,1,,,,,,下贱,i,0.659,,,0,53,53,49,1,,,,,,,,,,,,,,,,,,,,,,,,,,,,,,,,,,
,,,,,,,,,,,,,,1,001,2024-08-23_13h26.39.008,IAT(Formal),2021.2.3,Win32,60.60606061,,,,,,,,,,,,,,,e,1,,,,,,我,e,0.4933,,,0,54,54,0,1,,,,,,,,,,,,,,,,,,,,,,,,,,,,,,,,,,
,,,,,,,,,,,,,,1,001,2024-08-23_13h26.39.008,IAT(Formal),2021.2.3,Win32,60.60606061,,,,,,,,,,,,,,,i,1,,,,,,其他,i,0.5665,,,0,55,55,69,1,,,,,,,,,,,,,,,,,,,,,,,,,,,,,,,,,,
,,,,,,,,,,,,,,1,001,2024-08-23_13h26.39.008,IAT(Formal),2021.2.3,Win32,60.60606061,,,,,,,,,,,,,,,i,1,,,,,,他人,i,0.7322,,,0,56,56,8,1,,,,,,,,,,,,,,,,,,,,,,,,,,,,,,,,,,
,,,,,,,,,,,,,,1,001,2024-08-23_13h26.39.008,IAT(Formal),2021.2.3,Win32,60.60606061,,,,,,,,,,,,,,,i,1,,,,,,刻薄,i,0.6679,,,0,57,57,33,1,,,,,,,,,,,,,,,,,,,,,,,,,,,,,,,,,,
,,,,,,,,,,,,,,1,001,2024-08-23_13h26.39.008,IAT(Formal),2021.2.3,Win32,60.60606061,,,,,,,,,,,,,,,e,1,,,,,,我,e,0.5903,,,0,58,58,70,1,,,,,,,,,,,,,,,,,,,,,,,,,,,,,,,,,,
,,,,,,,,,,,,,,1,001,2024-08-23_13h26.39.008,IAT(Formal),2021.2.3,Win32,60.60606061,,,,,,,,,,,,,,,i,1,,,,,,他的,i,0.86,,,0,59,59,7,1,,,,,,,,,,,,,,,,,,,,,,,,,,,,,,,,,,
,,,,,,,,,,,,,,1,001,2024-08-23_13h26.39.008,IAT(Formal),2021.2.3,Win32,60.60606061,,,,,,,,,,,,,,,e,1,,,,,,乐观,e,0.7508,,,0,60,60,14,1,,,,,,,,,,,,,,,,,,,,,,,,,,,,,,,,,,
,,,,,,,,,,,,,,1,001,2024-08-23_13h26.39.008,IAT(Formal),2021.2.3,Win32,60.60606061,,,,,,,,,,,,,,,e,1,,,,,,我,e,0.8175,,,0,61,61,50,1,,,,,,,,,,,,,,,,,,,,,,,,,,,,,,,,,,
,,,,,,,,,,,,,,1,001,2024-08-23_13h26.39.008,IAT(Formal),2021.2.3,Win32,60.60606061,,,,,,,,,,,,,,,i,1,,,,,,他们,i,0.6565,,,0,62,62,6,1,,,,,,,,,,,,,,,,,,,,,,,,,,,,,,,,,,
,,,,,,,,,,,,,,1,001,2024-08-23_13h26.39.008,IAT(Formal),2021.2.3,Win32,60.60606061,,,,,,,,,,,,,,,i,1,,,,,,轻率,i,0.9407,,,0,63,63,48,1,,,,,,,,,,,,,,,,,,,,,,,,,,,,,,,,,,
,,,,,,,,,,,,,,1,001,2024-08-23_13h26.39.008,IAT(Formal),2021.2.3,Win32,60.60606061,,,,,,,,,,,,,,,e,1,,,,,,认真,e,1.1669,,,0,64,64,20,1,,,,,,,,,,,,,,,,,,,,,,,,,,,,,,,,,,
,,,,,,,,,,,,,,1,001,2024-08-23_13h26.39.008,IAT(Formal),2021.2.3,Win32,60.60606061,,,,,,,,,,,,,,,e,1,,,,,,我们,e,0.6163,,,0,65,65,2,1,,,,,,,,,,,,,,,,,,,,,,,,,,,,,,,,,,
,,,,,,,,,,,,,,1,001,2024-08-23_13h26.39.008,IAT(Formal),2021.2.3,Win32,60.60606061,,,,,,,,,,,,,,,e,1,,,,,,冷静,e,0.9668,,,0,66,66,26,1,,,,,,,,,,,,,,,,,,,,,,,,,,,,,,,,,,
,,,,,,,,,,,,,,1,001,2024-08-23_13h26.39.008,IAT(Formal),2021.2.3,Win32,60.60606061,,,,,,,,,,,,,,,e,1,,,,,,自己,e,0.7061,,,0,67,67,73,1,,,,,,,,,,,,,,,,,,,,,,,,,,,,,,,,,,
,,,,,,,,,,,,,,1,001,2024-08-23_13h26.39.008,IAT(Formal),2021.2.3,Win32,60.60606061,,,,,,,,,,,,,,,e,1,,,,,,勤奋,e,0.8442,,,0,68,68,18,1,,,,,,,,,,,,,,,,,,,,,,,,,,,,,,,,,,
,,,,,,,,,,,,,,1,001,2024-08-23_13h26.39.008,IAT(Formal),2021.2.3,Win32,60.60606061,,,,,,,,,,,,,,,e,1,,,,,,我们,e,0.5243,,,0,69,69,52,1,,,,,,,,,,,,,,,,,,,,,,,,,,,,,,,,,,
,,,,,,,,,,,,,,1,001,2024-08-23_13h26.39.008,IAT(Formal),2021.2.3,Win32,60.60606061,,,,,,,,,,,,,,,i,1,,,,,,他的,i,0.8996,,,0,70,70,77,1,,,,,,,,,,,,,,,,,,,,,,,,,,,,,,,,,,
,,,,,,,,,,,,,,1,001,2024-08-23_13h26.39.008,IAT(Formal),2021.2.3,Win32,60.60606061,,,,,,,,,,,,,,,i,1,,,,,,他们,i,0.5907,,,0,71,71,56,1,,,,,,,,,,,,,,,,,,,,,,,,,,,,,,,,,,
,,,,,,,,,,,,,,1,001,2024-08-23_13h26.39.008,IAT(Formal),2021.2.3,Win32,60.60606061,,,,,,,,,,,,,,,e,1,,,,,,无私,e,0.7662,,,0,72,72,22,1,,,,,,,,,,,,,,,,,,,,,,,,,,,,,,,,,,
,,,,,,,,,,,,,,1,001,2024-08-23_13h26.39.008,IAT(Formal),2021.2.3,Win32,60.60606061,,,,,,,,,,,,,,,i,1,,,,,,他的,i,0.6173,,,0,73,73,67,1,,,,,,,,,,,,,,,,,,,,,,,,,,,,,,,,,,
,,,,,,,,,,,,,,1,001,2024-08-23_13h26.39.008,IAT(Formal),2021.2.3,Win32,60.60606061,,,,,,,,,,,,,,,e,1,,,,,,细腻,e,0.8237,,,0,74,74,25,1,,,,,,,,,,,,,,,,,,,,,,,,,,,,,,,,,,
,,,,,,,,,,,,,,1,001,2024-08-23_13h26.39.008,IAT(Formal),2021.2.3,Win32,60.60606061,,,,,,,,,,,,,,,e,1,,,,,,稳重,e,0.6926,,,0,75,75,21,1,,,,,,,,,,,,,,,,,,,,,,,,,,,,,,,,,,
,,,,,,,,,,,,,,1,001,2024-08-23_13h26.39.008,IAT(Formal),2021.2.3,Win32,60.60606061,,,,,,,,,,,,,,,e,1,,,,,,热情,e,1.15,,,0,76,76,27,1,,,,,,,,,,,,,,,,,,,,,,,,,,,,,,,,,,
,,,,,,,,,,,,,,1,001,2024-08-23_13h26.39.008,IAT(Formal),2021.2.3,Win32,60.60606061,,,,,,,,,,,,,,,e,1,,,,,,优秀,e,0.7438,,,0,77,77,10,1,,,,,,,,,,,,,,,,,,,,,,,,,,,,,,,,,,
,,,,,,,,,,,,,,1,001,2024-08-23_13h26.39.008,IAT(Formal),2021.2.3,Win32,60.60606061,,,,,,,,,,,,,,,i,1,,,,,,他人,i,0.5731,,,0,78,78,68,1,,,,,,,,,,,,,,,,,,,,,,,,,,,,,,,,,,
,,,,,,,,,,,,,,1,001,2024-08-23_13h26.39.008,IAT(Formal),2021.2.3,Win32,60.60606061,,,,,,,,,,,,,,,i,1,,,,,,散漫,i,0.7689,,,0,79,79,41,1,,,,,,,,,,,,,,,,,,,,,,,,,,,,,,,,,,
,,,,,,,,,,,,,,1,001,2024-08-23_13h26.39.008,IAT(Formal),2021.2.3,Win32,60.60606061,,,,,,,,,,,,,,,i,1,,,,,,暴躁,i,0.6386,,,1,0,80,44,1,,,,,,,,,,,,,,,,,,,,,,,,,,,,,,,,,,
,,,,,,,,,,,,,,1,001,2024-08-23_13h26.39.008,IAT(Formal),2021.2.3,Win32,60.60606061,,,,,,,,,,,,,,,e,1,,,,,,无私,e,1.1002,,,1,1,81,22,1,,,,,,,,,,,,,,,,,,,,,,,,,,,,,,,,,,
,,,,,,,,,,,,,,1,001,2024-08-23_13h26.39.008,IAT(Formal),2021.2.3,Win32,60.60606061,,,,,,,,,,,,,,,i,1,,,,,,冒失,i,0.7787,,,1,2,82,39,1,,,,,,,,,,,,,,,,,,,,,,,,,,,,,,,,,,
,,,,,,,,,,,,,,1,001,2024-08-23_13h26.39.008,IAT(Formal),2021.2.3,Win32,60.60606061,,,,,,,,,,,,,,,e,1,,,,,,乐观,e,0.6503,,,1,3,83,14,1,,,,,,,,,,,,,,,,,,,,,,,,,,,,,,,,,,
,,,,,,,,,,,,,,1,001,2024-08-23_13h26.39.008,IAT(Formal),2021.2.3,Win32,60.60606061,,,,,,,,,,,,,,,i,1,,,,,,他人,i,1.1174,,,1,4,84,8,1,,,,,,,,,,,,,,,,,,,,,,,,,,,,,,,,,,
,,,,,,,,,,,,,,1,001,2024-08-23_13h26.39.008,IAT(Formal),2021.2.3,Win32,60.60606061,,,,,,,,,,,,,,,i,1,,,,,,他,i,0.6107,,,1,5,85,5,1,,,,,,,,,,,,,,,,,,,,,,,,,,,,,,,,,,
,,,,,,,,,,,,,,1,001,2024-08-23_13h26.39.008,IAT(Formal),2021.2.3,Win32,60.60606061,,,,,,,,,,,,,,,e,1,,,,,,聪明,e,0.5424,,,1,6,86,12,1,,,,,,,,,,,,,,,,,,,,,,,,,,,,,,,,,,
,,,,,,,,,,,,,,1,001,2024-08-23_13h26.39.008,IAT(Formal),2021.2.3,Win32,60.60606061,,,,,,,,,,,,,,,i,1,,,,,,他们,i,1.0905,,,1,7,87,56,1,,,,,,,,,,,,,,,,,,,,,,,,,,,,,,,,,,
,,,,,,,,,,,,,,1,001,2024-08-23_13h26.39.008,IAT(Formal),2021.2.3,Win32,60.60606061,,,,,,,,,,,,,,,i,1,,,,,,他人,i,0.8176,,,1,8,88,58,1,,,,,,,,,,,,,,,,,,,,,,,,,,,,,,,,,,
,,,,,,,,,,,,,,1,001,2024-08-23_13h26.39.008,IAT(Formal),2021.2.3,Win32,60.60606061,,,,,,,,,,,,,,,e,1,,,,,,自己,e,0.6537,,,1,9,89,63,1,,,,,,,,,,,,,,,,,,,,,,,,,,,,,,,,,,
,,,,,,,,,,,,,,1,001,2024-08-23_13h26.39.008,IAT(Formal),2021.2.3,Win32,60.60606061,,,,,,,,,,,,,,,i,1,,,,,,他人,i,0.7933,,,1,10,90,68,1,,,,,,,,,,,,,,,,,,,,,,,,,,,,,,,,,,
,,,,,,,,,,,,,,1,001,2024-08-23_13h26.39.008,IAT(Formal),2021.2.3,Win32,60.60606061,,,,,,,,,,,,,,,e,1,,,,,,我们,e,0.926,,,1,11,91,2,1,,,,,,,,,,,,,,,,,,,,,,,,,,,,,,,,,,
,,,,,,,,,,,,,,1,001,2024-08-23_13h26.39.008,IAT(Formal),2021.2.3,Win32,60.60606061,,,,,,,,,,,,,,,e,1,,,,,,冷静,e,1.2891,,,1,12,92,26,1,,,,,,,,,,,,,,,,,,,,,,,,,,,,,,,,,,
,,,,,,,,,,,,,,1,001,2024-08-23_13h26.39.008,IAT(Formal),2021.2.3,Win32,60.60606061,,,,,,,,,,,,,,,i,1,,,,,,他的,i,0.7004,,,1,13,93,77,1,,,,,,,,,,,,,,,,,,,,,,,,,,,,,,,,,,
,,,,,,,,,,,,,,1,001,2024-08-23_13h26.39.008,IAT(Formal),2021.2.3,Win32,60.60606061,,,,,,,,,,,,,,,i,1,,,,,,刻薄,i,0.9508,,,1,14,94,33,1,,,,,,,,,,,,,,,,,,,,,,,,,,,,,,,,,,
,,,,,,,,,,,,,,1,001,2024-08-23_13h26.39.008,IAT(Formal),2021.2.3,Win32,60.60606061,,,,,,,,,,,,,,,i,1,,,,,,轻率,i,0.5272,,,1,15,95,48,1,,,,,,,,,,,,,,,,,,,,,,,,,,,,,,,,,,
,,,,,,,,,,,,,,1,001,2024-08-23_13h26.39.008,IAT(Formal),2021.2.3,Win32,60.60606061,,,,,,,,,,,,,,,e,1,,,,,,杰出,e,0.5504,,,1,16,96,13,1,,,,,,,,,,,,,,,,,,,,,,,,,,,,,,,,,,
,,,,,,,,,,,,,,1,001,2024-08-23_13h26.39.008,IAT(Formal),2021.2.3,Win32,60.60606061,,,,,,,,,,,,,,,e,1,,,,,,我们,e,0.6866,,,1,17,97,52,1,,,,,,,,,,,,,,,,,,,,,,,,,,,,,,,,,,
,,,,,,,,,,,,,,1,001,2024-08-23_13h26.39.008,IAT(Formal),2021.2.3,Win32,60.60606061,,,,,,,,,,,,,,,i,1,,,,,,他们,i,0.6497,,,1,18,98,66,1,,,,,,,,,,,,,,,,,,,,,,,,,,,,,,,,,,
,,,,,,,,,,,,,,1,001,2024-08-23_13h26.39.008,IAT(Formal),2021.2.3,Win32,60.60606061,,,,,,,,,,,,,,,e,1,,,,,,公正,e,0.6103,,,1,19,99,23,1,,,,,,,,,,,,,,,,,,,,,,,,,,,,,,,,,,
,,,,,,,,,,,,,,1,001,2024-08-23_13h26.39.008,IAT(Formal),2021.2.3,Win32,60.60606061,,,,,,,,,,,,,,,e,1,,,,,,我,e,0.5425,,,1,20,100,50,1,,,,,,,,,,,,,,,,,,,,,,,,,,,,,,,,,,
,,,,,,,,,,,,,,1,001,2024-08-23_13h26.39.008,IAT(Formal),2021.2.3,Win32,60.60606061,,,,,,,,,,,,,,,e,1,,,,,,稳重,e,0.9497,,,1,21,101,21,1,,,,,,,,,,,,,,,,,,,,,,,,,,,,,,,,,,
,,,,,,,,,,,,,,1,001,2024-08-23_13h26.39.008,IAT(Formal),2021.2.3,Win32,60.60606061,,,,,,,,,,,,,,,e,1,,,,,,诚恳,e,0.6901,,,1,22,102,29,1,,,,,,,,,,,,,,,,,,,,,,,,,,,,,,,,,,
,,,,,,,,,,,,,,1,001,2024-08-23_13h26.39.008,IAT(Formal),2021.2.3,Win32,60.60606061,,,,,,,,,,,,,,,i,1,,,,,,消极,i,0.5503,,,1,23,103,35,1,,,,,,,,,,,,,,,,,,,,,,,,,,,,,,,,,,
,,,,,,,,,,,,,,1,001,2024-08-23_13h26.39.008,IAT(Formal),2021.2.3,Win32,60.60606061,,,,,,,,,,,,,,,e,1,,,,,,机智,e,0.5652,,,1,24,104,19,1,,,,,,,,,,,,,,,,,,,,,,,,,,,,,,,,,,
,,,,,,,,,,,,,,1,001,2024-08-23_13h26.39.008,IAT(Formal),2021.2.3,Win32,60.60606061,,,,,,,,,,,,,,,e,1,,,,,,我们,e,0.6251,,,1,25,105,72,1,,,,,,,,,,,,,,,,,,,,,,,,,,,,,,,,,,
,,,,,,,,,,,,,,1,001,2024-08-23_13h26.39.008,IAT(Formal),2021.2.3,Win32,60.60606061,,,,,,,,,,,,,,,i,1,,,,,,他的,i,0.8839,,,1,26,106,7,1,,,,,,,,,,,,,,,,,,,,,,,,,,,,,,,,,,
,,,,,,,,,,,,,,1,001,2024-08-23_13h26.39.008,IAT(Formal),2021.2.3,Win32,60.60606061,,,,,,,,,,,,,,,i,1,,,,,,其他,i,0.7998,,,1,27,107,59,1,,,,,,,,,,,,,,,,,,,,,,,,,,,,,,,,,,
,,,,,,,,,,,,,,1,001,2024-08-23_13h26.39.008,IAT(Formal),2021.2.3,Win32,60.60606061,,,,,,,,,,,,,,,e,1,,,,,,优秀,e,0.6171,,,1,28,108,10,1,,,,,,,,,,,,,,,,,,,,,,,,,,,,,,,,,,
,,,,,,,,,,,,,,1,001,2024-08-23_13h26.39.008,IAT(Formal),2021.2.3,Win32,60.60606061,,,,,,,,,,,,,,,i,1,,,,,,鲁莽,i,0.6505,,,1,29,109,38,1,,,,,,,,,,,,,,,,,,,,,,,,,,,,,,,,,,
,,,,,,,,,,,,,,1,001,2024-08-23_13h26.39.008,IAT(Formal),2021.2.3,Win32,60.60606061,,,,,,,,,,,,,,,e,1,,,,,,自己,e,0.5849,,,1,30,110,53,1,,,,,,,,,,,,,,,,,,,,,,,,,,,,,,,,,,
,,,,,,,,,,,,,,1,001,2024-08-23_13h26.39.008,IAT(Formal),2021.2.3,Win32,60.60606061,,,,,,,,,,,,,,,e,1,,,,,,热情,e,1.0831,,,1,31,111,27,1,,,,,,,,,,,,,,,,,,,,,,,,,,,,,,,,,,
,,,,,,,,,,,,,,1,001,2024-08-23_13h26.39.008,IAT(Formal),2021.2.3,Win32,60.60606061,,,,,,,,,,,,,,,i,1,,,,,,他,i,0.7107,,,1,32,112,65,1,,,,,,,,,,,,,,,,,,,,,,,,,,,,,,,,,,
,,,,,,,,,,,,,,1,001,2024-08-23_13h26.39.008,IAT(Formal),2021.2.3,Win32,60.60606061,,,,,,,,,,,,,,,e,1,,,,,,正直,e,0.5209,,,1,33,113,16,1,,,,,,,,,,,,,,,,,,,,,,,,,,,,,,,,,,
,,,,,,,,,,,,,,1,001,2024-08-23_13h26.39.008,IAT(Formal),2021.2.3,Win32,60.60606061,,,,,,,,,,,,,,,e,1,,,,,,崇高,e,0.7832,,,1,34,114,11,1,,,,,,,,,,,,,,,,,,,,,,,,,,,,,,,,,,
,,,,,,,,,,,,,,1,001,2024-08-23_13h26.39.008,IAT(Formal),2021.2.3,Win32,60.60606061,,,,,,,,,,,,,,,i,1,,,,,,下贱,i,0.517,,,1,35,115,49,1,,,,,,,,,,,,,,,,,,,,,,,,,,,,,,,,,,
,,,,,,,,,,,,,,1,001,2024-08-23_13h26.39.008,IAT(Formal),2021.2.3,Win32,60.60606061,,,,,,,,,,,,,,,e,1,,,,,,俺,e,1.4168,,,1,36,116,4,1,,,,,,,,,,,,,,,,,,,,,,,,,,,,,,,,,,
,,,,,,,,,,,,,,1,001,2024-08-23_13h26.39.008,IAT(Formal),2021.2.3,Win32,60.60606061,,,,,,,,,,,,,,,e,1,,,,,,我的,e,0.5831,,,1,37,117,71,1,,,,,,,,,,,,,,,,,,,,,,,,,,,,,,,,,,
,,,,,,,,,,,,,,1,001,2024-08-23_13h26.39.008,IAT(Formal),2021.2.3,Win32,60.60606061,,,,,,,,,,,,,,,e,1,,,,,,俺,e,0.4864,,,1,38,118,54,1,,,,,,,,,,,,,,,,,,,,,,,,,,,,,,,,,,
,,,,,,,,,,,,,,1,001,2024-08-23_13h26.39.008,IAT(Formal),2021.2.3,Win32,60.60606061,,,,,,,,,,,,,,,e,1,,,,,,我们,e,0.5171,,,1,39,119,62,1,,,,,,,,,,,,,,,,,,,,,,,,,,,,,,,,,,
,,,,,,,,,,,,,,1,001,2024-08-23_13h26.39.008,IAT(Formal),2021.2.3,Win32,60.60606061,,,,,,,,,,,,,,,i,1,,,,,,愚蠢,i,0.5673,,,1,40,120,32,1,,,,,,,,,,,,,,,,,,,,,,,,,,,,,,,,,,
,,,,,,,,,,,,,,1,001,2024-08-23_13h26.39.008,IAT(Formal),2021.2.3,Win32,60.60606061,,,,,,,,,,,,,,,i,1,,,,,,他们,i,1.335,,,1,41,121,6,1,,,,,,,,,,,,,,,,,,,,,,,,,,,,,,,,,,
,,,,,,,,,,,,,,1,001,2024-08-23_13h26.39.008,IAT(Formal),2021.2.3,Win32,60.60606061,,,,,,,,,,,,,,,e,1,,,,,,勤奋,e,0.5751,,,1,42,122,18,1,,,,,,,,,,,,,,,,,,,,,,,,,,,,,,,,,,
,,,,,,,,,,,,,,1,001,2024-08-23_13h26.39.008,IAT(Formal),2021.2.3,Win32,60.60606061,,,,,,,,,,,,,,,i,1,,,,,,其他,i,0.7005,,,1,43,123,69,1,,,,,,,,,,,,,,,,,,,,,,,,,,,,,,,,,,
,,,,,,,,,,,,,,1,001,2024-08-23_13h26.39.008,IAT(Formal),2021.2.3,Win32,60.60606061,,,,,,,,,,,,,,,e,1,,,,,,俺,e,0.7512,,,1,44,124,74,1,,,,,,,,,,,,,,,,,,,,,,,,,,,,,,,,,,
,,,,,,,,,,,,,,1,001,2024-08-23_13h26.39.008,IAT(Formal),2021.2.3,Win32,60.60606061,,,,,,,,,,,,,,,e,1,,,,,,俺,e,0.5155,,,1,45,125,64,1,,,,,,,,,,,,,,,,,,,,,,,,,,,,,,,,,,
,,,,,,,,,,,,,,1,001,2024-08-23_13h26.39.008,IAT(Formal),2021.2.3,Win32,60.60606061,,,,,,,,,,,,,,,i,1,,,,,,固执,i,0.733,,,1,46,126,47,1,,,,,,,,,,,,,,,,,,,,,,,,,,,,,,,,,,
,,,,,,,,,,,,,,1,001,2024-08-23_13h26.39.008,IAT(Formal),2021.2.3,Win32,60.60606061,,,,,,,,,,,,,,,i,1,,,,,,猖狂,i,0.5675,,,1,47,127,45,1,,,,,,,,,,,,,,,,,,,,,,,,,,,,,,,,,,
,,,,,,,,,,,,,,1,001,2024-08-23_13h26.39.008,IAT(Formal),2021.2.3,Win32,60.60606061,,,,,,,,,,,,,,,i,1,,,,,,散漫,i,0.4886,,,1,48,128,41,1,,,,,,,,,,,,,,,,,,,,,,,,,,,,,,,,,,
,,,,,,,,,,,,,,1,001,2024-08-23_13h26.39.008,IAT(Formal),2021.2.3,Win32,60.60606061,,,,,,,,,,,,,,,i,1,,,,,,其他,i,0.5349,,,1,49,129,79,1,,,,,,,,,,,,,,,,,,,,,,,,,,,,,,,,,,
,,,,,,,,,,,,,,1,001,2024-08-23_13h26.39.008,IAT(Formal),2021.2.3,Win32,60.60606061,,,,,,,,,,,,,,,i,1,,,,,,自卑,i,0.7178,,,1,50,130,36,1,,,,,,,,,,,,,,,,,,,,,,,,,,,,,,,,,,
,,,,,,,,,,,,,,1,001,2024-08-23_13h26.39.008,IAT(Formal),2021.2.3,Win32,60.60606061,,,,,,,,,,,,,,,e,1,,,,,,我,e,0.468,,,1,51,131,0,1,,,,,,,,,,,,,,,,,,,,,,,,,,,,,,,,,,
,,,,,,,,,,,,,,1,001,2024-08-23_13h26.39.008,IAT(Formal),2021.2.3,Win32,60.60606061,,,,,,,,,,,,,,,e,1,,,,,,自己,e,0.4211,,,1,52,132,73,1,,,,,,,,,,,,,,,,,,,,,,,,,,,,,,,,,,
,,,,,,,,,,,,,,1,001,2024-08-23_13h26.39.008,IAT(Formal),2021.2.3,Win32,60.60606061,,,,,,,,,,,,,,,i,1,,,,,,自私,i,0.9157,,,1,53,133,43,1,,,,,,,,,,,,,,,,,,,,,,,,,,,,,,,,,,
,,,,,,,,,,,,,,1,001,2024-08-23_13h26.39.008,IAT(Formal),2021.2.3,Win32,60.60606061,,,,,,,,,,,,,,,e,1,,,,,,我,e,0.4723,,,1,54,134,70,1,,,,,,,,,,,,,,,,,,,,,,,,,,,,,,,,,,
,,,,,,,,,,,,,,1,001,2024-08-23_13h26.39.008,IAT(Formal),2021.2.3,Win32,60.60606061,,,,,,,,,,,,,,,e,1,,,,,,朴实,e,0.7999,,,1,55,135,24,1,,,,,,,,,,,,,,,,,,,,,,,,,,,,,,,,,,
,,,,,,,,,,,,,,1,001,2024-08-23_13h26.39.008,IAT(Formal),2021.2.3,Win32,60.60606061,,,,,,,,,,,,,,,e,1,,,,,,自己,e,0.6203,,,1,56,136,3,1,,,,,,,,,,,,,,,,,,,,,,,,,,,,,,,,,,
,,,,,,,,,,,,,,1,001,2024-08-23_13h26.39.008,IAT(Formal),2021.2.3,Win32,60.60606061,,,,,,,,,,,,,,,e,1,,,,,,勇敢,e,0.6008,,,1,57,137,17,1,,,,,,,,,,,,,,,,,,,,,,,,,,,,,,,,,,
,,,,,,,,,,,,,,1,001,2024-08-23_13h26.39.008,IAT(Formal),2021.2.3,Win32,60.60606061,,,,,,,,,,,,,,,e,1,,,,,,诚实,e,0.5359,,,1,58,138,15,1,,,,,,,,,,,,,,,,,,,,,,,,,,,,,,,,,,
,,,,,,,,,,,,,,1,001,2024-08-23_13h26.39.008,IAT(Formal),2021.2.3,Win32,60.60606061,,,,,,,,,,,,,,,i,1,,,,,,他的,i,0.7916,,,1,59,139,57,1,,,,,,,,,,,,,,,,,,,,,,,,,,,,,,,,,,
,,,,,,,,,,,,,,1,001,2024-08-23_13h26.39.008,IAT(Formal),2021.2.3,Win32,60.60606061,,,,,,,,,,,,,,,i,1,,,,,,傲慢,i,0.7505,,,1,60,140,37,1,,,,,,,,,,,,,,,,,,,,,,,,,,,,,,,,,,
,,,,,,,,,,,,,,1,001,2024-08-23_13h26.39.008,IAT(Formal),2021.2.3,Win32,60.60606061,,,,,,,,,,,,,,,i,1,,,,,,他,i,0.9376,,,1,61,141,55,1,,,,,,,,,,,,,,,,,,,,,,,,,,,,,,,,,,
,,,,,,,,,,,,,,1,001,2024-08-23_13h26.39.008,IAT(Formal),2021.2.3,Win32,60.60606061,,,,,,,,,,,,,,,i,1,,,,,,他,i,0.7727,,,1,62,142,75,1,,,,,,,,,,,,,,,,,,,,,,,,,,,,,,,,,,
,,,,,,,,,,,,,,1,001,2024-08-23_13h26.39.008,IAT(Formal),2021.2.3,Win32,60.60606061,,,,,,,,,,,,,,,i,1,,,,,,他们,i,0.5184,,,1,63,143,76,1,,,,,,,,,,,,,,,,,,,,,,,,,,,,,,,,,,
,,,,,,,,,,,,,,1,001,2024-08-23_13h26.39.008,IAT(Formal),2021.2.3,Win32,60.60606061,,,,,,,,,,,,,,,e,1,,,,,,认真,e,0.8216,,,1,64,144,20,1,,,,,,,,,,,,,,,,,,,,,,,,,,,,,,,,,,
,,,,,,,,,,,,,,1,001,2024-08-23_13h26.39.008,IAT(Formal),2021.2.3,Win32,60.60606061,,,,,,,,,,,,,,,i,1,,,,,,执拗,i,1.4387,,,1,65,145,40,1,,,,,,,,,,,,,,,,,,,,,,,,,,,,,,,,,,
,,,,,,,,,,,,,,1,001,2024-08-23_13h26.39.008,IAT(Formal),2021.2.3,Win32,60.60606061,,,,,,,,,,,,,,,i,1,,,,,,卑鄙,i,0.8164,,,1,66,146,30,1,,,,,,,,,,,,,,,,,,,,,,,,,,,,,,,,,,
,,,,,,,,,,,,,,1,001,2024-08-23_13h26.39.008,IAT(Formal),2021.2.3,Win32,60.60606061,,,,,,,,,,,,,,,e,1,,,,,,我的,e,0.6336,,,1,67,147,61,1,,,,,,,,,,,,,,,,,,,,,,,,,,,,,,,,,,
,,,,,,,,,,,,,,1,001,2024-08-23_13h26.39.008,IAT(Formal),2021.2.3,Win32,60.60606061,,,,,,,,,,,,,,,e,1,,,,,,我的,e,0.5671,,,1,68,148,1,1,,,,,,,,,,,,,,,,,,,,,,,,,,,,,,,,,,
,,,,,,,,,,,,,,1,001,2024-08-23_13h26.39.008,IAT(Formal),2021.2.3,Win32,60.60606061,,,,,,,,,,,,,,,e,1,,,,,,我,e,0.6159,,,1,69,149,60,1,,,,,,,,,,,,,,,,,,,,,,,,,,,,,,,,,,
,,,,,,,,,,,,,,1,001,2024-08-23_13h26.39.008,IAT(Formal),2021.2.3,Win32,60.60606061,,,,,,,,,,,,,,,e,1,,,,,,细腻,e,1.0173,,,1,70,150,25,1,,,,,,,,,,,,,,,,,,,,,,,,,,,,,,,,,,
,,,,,,,,,,,,,,1,001,2024-08-23_13h26.39.008,IAT(Formal),2021.2.3,Win32,60.60606061,,,,,,,,,,,,,,,i,1,,,,,,他的,i,0.7007,,,1,71,151,67,1,,,,,,,,,,,,,,,,,,,,,,,,,,,,,,,,,,
,,,,,,,,,,,,,,1,001,2024-08-23_13h26.39.008,IAT(Formal),2021.2.3,Win32,60.60606061,,,,,,,,,,,,,,,i,1,,,,,,其他,i,0.8344,,,1,72,152,9,1,,,,,,,,,,,,,,,,,,,,,,,,,,,,,,,,,,
,,,,,,,,,,,,,,1,001,2024-08-23_13h26.39.008,IAT(Formal),2021.2.3,Win32,60.60606061,,,,,,,,,,,,,,,e,1,,,,,,活泼,e,1.1829,,,1,73,153,28,1,,,,,,,,,,,,,,,,,,,,,,,,,,,,,,,,,,
,,,,,,,,,,,,,,1,001,2024-08-23_13h26.39.008,IAT(Formal),2021.2.3,Win32,60.60606061,,,,,,,,,,,,,,,i,1,,,,,,凶狠,i,1.1163,,,1,74,154,42,1,,,,,,,,,,,,,,,,,,,,,,,,,,,,,,,,,,
,,,,,,,,,,,,,,1,001,2024-08-23_13h26.39.008,IAT(Formal),2021.2.3,Win32,60.60606061,,,,,,,,,,,,,,,i,1,,,,,,虚伪,i,0.7978,,,1,75,155,31,1,,,,,,,,,,,,,,,,,,,,,,,,,,,,,,,,,,
,,,,,,,,,,,,,,1,001,2024-08-23_13h26.39.008,IAT(Formal),2021.2.3,Win32,60.60606061,,,,,,,,,,,,,,,e,1,,,,,,我的,e,0.6623,,,1,76,156,51,1,,,,,,,,,,,,,,,,,,,,,,,,,,,,,,,,,,
,,,,,,,,,,,,,,1,001,2024-08-23_13h26.39.008,IAT(Formal),2021.2.3,Win32,60.60606061,,,,,,,,,,,,,,,i,1,,,,,,悲观,i,0.7759,,,1,77,157,34,1,,,,,,,,,,,,,,,,,,,,,,,,,,,,,,,,,,
,,,,,,,,,,,,,,1,001,2024-08-23_13h26.39.008,IAT(Formal),2021.2.3,Win32,60.60606061,,,,,,,,,,,,,,,i,1,,,,,,他人,i,1.1055,,,1,78,158,78,1,,,,,,,,,,,,,,,,,,,,,,,,,,,,,,,,,,
,,,,,,,,,,,,,,1,001,2024-08-23_13h26.39.008,IAT(Formal),2021.2.3,Win32,60.60606061,,,,,,,,,,,,,,,i,1,,,,,,野蛮,i,0.7549,,,1,79,159,46,1,,,,,,,,,,,,,,,,,,,,,,,,,,,,,,,,,,
,,,,,,,,,,,,他们,e,1,001,2024-08-23_13h26.39.008,IAT(Formal),2021.2.3,Win32,60.60606061,,,,,,,,,,,,,,,,,,,,,,,,,,,,,,,,space,8.5586,e,1,0.785,0,0,0,6,1,,,,,,,,,,,,,,,,,,,,,,,,
,,,,,,,,,,,,我们,i,1,001,2024-08-23_13h26.39.008,IAT(Formal),2021.2.3,Win32,60.60606061,,,,,,,,,,,,,,,,,,,,,,,,,,,,,,,,,,i,1,0.6357,0,1,1,2,1,,,,,,,,,,,,,,,,,,,,,,,,
,,,,,,,,,,,,他的,e,1,001,2024-08-23_13h26.39.008,IAT(Formal),2021.2.3,Win32,60.60606061,,,,,,,,,,,,,,,,,,,,,,,,,,,,,,,,,,e,1,1.1801,0,2,2,7,1,,,,,,,,,,,,,,,,,,,,,,,,
,,,,,,,,,,,,他,e,1,001,2024-08-23_13h26.39.008,IAT(Formal),2021.2.3,Win32,60.60606061,,,,,,,,,,,,,,,,,,,,,,,,,,,,,,,,,,e,1,0.6304,0,3,3,5,1,,,,,,,,,,,,,,,,,,,,,,,,
,,,,,,,,,,,,我,i,1,001,2024-08-23_13h26.39.008,IAT(Formal),2021.2.3,Win32,60.60606061,,,,,,,,,,,,,,,,,,,,,,,,,,,,,,,,,,i,1,0.6487,0,4,4,0,1,,,,,,,,,,,,,,,,,,,,,,,,
,,,,,,,,,,,,其他,e,1,001,2024-08-23_13h26.39.008,IAT(Formal),2021.2.3,Win32,60.60606061,,,,,,,,,,,,,,,,,,,,,,,,,,,,,,,,,,e,1,0.9354,0,5,5,9,1,,,,,,,,,,,,,,,,,,,,,,,,
,,,,,,,,,,,,俺,i,1,001,2024-08-23_13h26.39.008,IAT(Formal),2021.2.3,Win32,60.60606061,,,,,,,,,,,,,,,,,,,,,,,,,,,,,,,,,,i,1,0.6252,0,6,6,4,1,,,,,,,,,,,,,,,,,,,,,,,,
,,,,,,,,,,,,他人,e,1,001,2024-08-23_13h26.39.008,IAT(Formal),2021.2.3,Win32,60.60606061,,,,,,,,,,,,,,,,,,,,,,,,,,,,,,,,,,e,1,0.6731,0,7,7,8,1,,,,,,,,,,,,,,,,,,,,,,,,
,,,,,,,,,,,,我的,i,1,001,2024-08-23_13h26.39.008,IAT(Formal),2021.2.3,Win32,60.60606061,,,,,,,,,,,,,,,,,,,,,,,,,,,,,,,,,,i,1,0.5154,0,8,8,1,1,,,,,,,,,,,,,,,,,,,,,,,,
,,,,,,,,,,,,自己,i,1,001,2024-08-23_13h26.39.008,IAT(Formal),2021.2.3,Win32,60.60606061,,,,,,,,,,,,,,,,,,,,,,,,,,,,,,,,,,e,0,0.9762,0,9,9,3,1,,,,,,,,,,,,,,,,,,,,,,,,
,,,,,,,,,,,,,,1,001,2024-08-23_13h26.39.008,IAT(Formal),2021.2.3,Win32,60.60606061,,,,,,,,,,,,,,,,,,,,,,,,,,,,,,,,,,,,,,,,,,space,9.8764,e,1,0.9699,0,0,0,16,1,正直,e,,,,,,,,,,,,
,,,,,,,,,,,,,,1,001,2024-08-23_13h26.39.008,IAT(Formal),2021.2.3,Win32,60.60606061,,,,,,,,,,,,,,,,,,,,,,,,,,,,,,,,,,,,,,,,,,,,e,1,0.5707,0,1,1,13,1,杰出,e,,,,,,,,,,,,
,,,,,,,,,,,,,,1,001,2024-08-23_13h26.39.008,IAT(Formal),2021.2.3,Win32,60.60606061,,,,,,,,,,,,,,,,,,,,,,,,,,,,,,,,,,,,,,,,,,,,i,0,0.867,0,2,2,66,1,他们,e,,,,,,,,,,,,
,,,,,,,,,,,,,,1,001,2024-08-23_13h26.39.008,IAT(Formal),2021.2.3,Win32,60.60606061,,,,,,,,,,,,,,,,,,,,,,,,,,,,,,,,,,,,,,,,,,,,e,1,0.7399,0,3,3,6,1,他们,e,,,,,,,,,,,,
,,,,,,,,,,,,,,1,001,2024-08-23_13h26.39.008,IAT(Formal),2021.2.3,Win32,60.60606061,,,,,,,,,,,,,,,,,,,,,,,,,,,,,,,,,,,,,,,,,,,,i,1,0.9366,0,4,4,73,1,自己,i,,,,,,,,,,,,
,,,,,,,,,,,,,,1,001,2024-08-23_13h26.39.008,IAT(Formal),2021.2.3,Win32,60.60606061,,,,,,,,,,,,,,,,,,,,,,,,,,,,,,,,,,,,,,,,,,,,e,0,0.6669,0,5,5,61,1,我的,i,,,,,,,,,,,,
,,,,,,,,,,,,,,1,001,2024-08-23_13h26.39.008,IAT(Formal),2021.2.3,Win32,60.60606061,,,,,,,,,,,,,,,,,,,,,,,,,,,,,,,,,,,,,,,,,,,,i,1,0.9241,0,6,6,40,1,执拗,i,,,,,,,,,,,,
,,,,,,,,,,,,,,1,001,2024-08-23_13h26.39.008,IAT(Formal),2021.2.3,Win32,60.60606061,,,,,,,,,,,,,,,,,,,,,,,,,,,,,,,,,,,,,,,,,,,,i,1,0.8593,0,7,7,35,1,消极,i,,,,,,,,,,,,
,,,,,,,,,,,,,,1,001,2024-08-23_13h26.39.008,IAT(Formal),2021.2.3,Win32,60.60606061,,,,,,,,,,,,,,,,,,,,,,,,,,,,,,,,,,,,,,,,,,,,e,0,1.1069,0,8,8,54,1,俺,i,,,,,,,,,,,,
,,,,,,,,,,,,,,1,001,2024-08-23_13h26.39.008,IAT(Formal),2021.2.3,Win32,60.60606061,,,,,,,,,,,,,,,,,,,,,,,,,,,,,,,,,,,,,,,,,,,,e,1,1.0991,0,9,9,76,1,他们,e,,,,,,,,,,,,
,,,,,,,,,,,,,,1,001,2024-08-23_13h26.39.008,IAT(Formal),2021.2.3,Win32,60.60606061,,,,,,,,,,,,,,,,,,,,,,,,,,,,,,,,,,,,,,,,,,,,e,1,0.7669,0,10,10,57,1,他的,e,,,,,,,,,,,,
,,,,,,,,,,,,,,1,001,2024-08-23_13h26.39.008,IAT(Formal),2021.2.3,Win32,60.60606061,,,,,,,,,,,,,,,,,,,,,,,,,,,,,,,,,,,,,,,,,,,,i,1,0.6403,0,11,11,31,1,虚伪,i,,,,,,,,,,,,
,,,,,,,,,,,,,,1,001,2024-08-23_13h26.39.008,IAT(Formal),2021.2.3,Win32,60.60606061,,,,,,,,,,,,,,,,,,,,,,,,,,,,,,,,,,,,,,,,,,,,e,0,1.1891,0,12,12,70,1,我,i,,,,,,,,,,,,
,,,,,,,,,,,,,,1,001,2024-08-23_13h26.39.008,IAT(Formal),2021.2.3,Win32,60.60606061,,,,,,,,,,,,,,,,,,,,,,,,,,,,,,,,,,,,,,,,,,,,i,1,0.5955,0,13,13,52,1,我们,i,,,,,,,,,,,,
,,,,,,,,,,,,,,1,001,2024-08-23_13h26.39.008,IAT(Formal),2021.2.3,Win32,60.60606061,,,,,,,,,,,,,,,,,,,,,,,,,,,,,,,,,,,,,,,,,,,,i,1,0.5046,0,14,14,2,1,我们,i,,,,,,,,,,,,
,,,,,,,,,,,,,,1,001,2024-08-23_13h26.39.008,IAT(Formal),2021.2.3,Win32,60.60606061,,,,,,,,,,,,,,,,,,,,,,,,,,,,,,,,,,,,,,,,,,,,i,1,0.5395,0,15,15,60,1,我,i,,,,,,,,,,,,
,,,,,,,,,,,,,,1,001,2024-08-23_13h26.39.008,IAT(Formal),2021.2.3,Win32,60.60606061,,,,,,,,,,,,,,,,,,,,,,,,,,,,,,,,,,,,,,,,,,,,e,1,1.1339,0,16,16,69,1,其他,e,,,,,,,,,,,,
,,,,,,,,,,,,,,1,001,2024-08-23_13h26.39.008,IAT(Formal),2021.2.3,Win32,60.60606061,,,,,,,,,,,,,,,,,,,,,,,,,,,,,,,,,,,,,,,,,,,,i,0,0.8918,0,17,17,29,1,诚恳,e,,,,,,,,,,,,
,,,,,,,,,,,,,,1,001,2024-08-23_13h26.39.008,IAT(Formal),2021.2.3,Win32,60.60606061,,,,,,,,,,,,,,,,,,,,,,,,,,,,,,,,,,,,,,,,,,,,,0,,0,18,18,46,1,野蛮,i,,,,,,,,,,,,
,,,,,,,,,,,,,,1,001,2024-08-23_13h26.39.008,IAT(Formal),2021.2.3,Win32,60.60606061,,,,,,,,,,,,,,,,,,,,,,,,,,,,,,,,,,,,,,,,,,,,i,1,0.9275,0,19,19,64,1,俺,i,,,,,,,,,,,,
,,,,,,,,,,,,,,1,001,2024-08-23_13h26.39.008,IAT(Formal),2021.2.3,Win32,60.60606061,,,,,,,,,,,,,,,,,,,,,,,,,,,,,,,,,,,,,,,,,,,,e,1,1.3934,0,20,20,11,1,崇高,e,,,,,,,,,,,,
,,,,,,,,,,,,,,1,001,2024-08-23_13h26.39.008,IAT(Formal),2021.2.3,Win32,60.60606061,,,,,,,,,,,,,,,,,,,,,,,,,,,,,,,,,,,,,,,,,,,,i,1,0.7836,0,21,21,53,1,自己,i,,,,,,,,,,,,
,,,,,,,,,,,,,,1,001,2024-08-23_13h26.39.008,IAT(Formal),2021.2.3,Win32,60.60606061,,,,,,,,,,,,,,,,,,,,,,,,,,,,,,,,,,,,,,,,,,,,i,0,0.8837,0,22,22,14,1,乐观,e,,,,,,,,,,,,
,,,,,,,,,,,,,,1,001,2024-08-23_13h26.39.008,IAT(Formal),2021.2.3,Win32,60.60606061,,,,,,,,,,,,,,,,,,,,,,,,,,,,,,,,,,,,,,,,,,,,e,0,0.5891,0,23,23,62,1,我们,i,,,,,,,,,,,,
,,,,,,,,,,,,,,1,001,2024-08-23_13h26.39.008,IAT(Formal),2021.2.3,Win32,60.60606061,,,,,,,,,,,,,,,,,,,,,,,,,,,,,,,,,,,,,,,,,,,,e,1,1.0855,0,24,24,24,1,朴实,e,,,,,,,,,,,,
,,,,,,,,,,,,,,1,001,2024-08-23_13h26.39.008,IAT(Formal),2021.2.3,Win32,60.60606061,,,,,,,,,,,,,,,,,,,,,,,,,,,,,,,,,,,,,,,,,,,,e,1,0.6601,0,25,25,67,1,他的,e,,,,,,,,,,,,
,,,,,,,,,,,,,,1,001,2024-08-23_13h26.39.008,IAT(Formal),2021.2.3,Win32,60.60606061,,,,,,,,,,,,,,,,,,,,,,,,,,,,,,,,,,,,,,,,,,,,i,1,0.6579,0,26,26,36,1,自卑,i,,,,,,,,,,,,
,,,,,,,,,,,,,,1,001,2024-08-23_13h26.39.008,IAT(Formal),2021.2.3,Win32,60.60606061,,,,,,,,,,,,,,,,,,,,,,,,,,,,,,,,,,,,,,,,,,,,i,1,0.6825,0,27,27,49,1,下贱,i,,,,,,,,,,,,
,,,,,,,,,,,,,,1,001,2024-08-23_13h26.39.008,IAT(Formal),2021.2.3,Win32,60.60606061,,,,,,,,,,,,,,,,,,,,,,,,,,,,,,,,,,,,,,,,,,,,i,1,0.8344,0,28,28,39,1,冒失,i,,,,,,,,,,,,
,,,,,,,,,,,,,,1,001,2024-08-23_13h26.39.008,IAT(Formal),2021.2.3,Win32,60.60606061,,,,,,,,,,,,,,,,,,,,,,,,,,,,,,,,,,,,,,,,,,,,e,0,0.7031,0,29,29,51,1,我的,i,,,,,,,,,,,,
,,,,,,,,,,,,,,1,001,2024-08-23_13h26.39.008,IAT(Formal),2021.2.3,Win32,60.60606061,,,,,,,,,,,,,,,,,,,,,,,,,,,,,,,,,,,,,,,,,,,,e,1,0.6182,0,30,30,58,1,他人,e,,,,,,,,,,,,
,,,,,,,,,,,,,,1,001,2024-08-23_13h26.39.008,IAT(Formal),2021.2.3,Win32,60.60606061,,,,,,,,,,,,,,,,,,,,,,,,,,,,,,,,,,,,,,,,,,,,i,1,0.8677,0,31,31,4,1,俺,i,,,,,,,,,,,,
,,,,,,,,,,,,,,1,001,2024-08-23_13h26.39.008,IAT(Formal),2021.2.3,Win32,60.60606061,,,,,,,,,,,,,,,,,,,,,,,,,,,,,,,,,,,,,,,,,,,,,0,,0,32,32,32,1,愚蠢,i,,,,,,,,,,,,
,,,,,,,,,,,,,,1,001,2024-08-23_13h26.39.008,IAT(Formal),2021.2.3,Win32,60.60606061,,,,,,,,,,,,,,,,,,,,,,,,,,,,,,,,,,,,,,,,,,,,i,1,0.7238,0,33,33,30,1,卑鄙,i,,,,,,,,,,,,
,,,,,,,,,,,,,,1,001,2024-08-23_13h26.39.008,IAT(Formal),2021.2.3,Win32,60.60606061,,,,,,,,,,,,,,,,,,,,,,,,,,,,,,,,,,,,,,,,,,,,e,1,0.7703,0,34,34,77,1,他的,e,,,,,,,,,,,,
,,,,,,,,,,,,,,1,001,2024-08-23_13h26.39.008,IAT(Formal),2021.2.3,Win32,60.60606061,,,,,,,,,,,,,,,,,,,,,,,,,,,,,,,,,,,,,,,,,,,,e,1,0.8507,0,35,35,15,1,诚实,e,,,,,,,,,,,,
,,,,,,,,,,,,,,1,001,2024-08-23_13h26.39.008,IAT(Formal),2021.2.3,Win32,60.60606061,,,,,,,,,,,,,,,,,,,,,,,,,,,,,,,,,,,,,,,,,,,,i,1,0.7448,0,36,36,72,1,我们,i,,,,,,,,,,,,
,,,,,,,,,,,,,,1,001,2024-08-23_13h26.39.008,IAT(Formal),2021.2.3,Win32,60.60606061,,,,,,,,,,,,,,,,,,,,,,,,,,,,,,,,,,,,,,,,,,,,e,1,1.1837,0,37,37,26,1,冷静,e,,,,,,,,,,,,
,,,,,,,,,,,,,,1,001,2024-08-23_13h26.39.008,IAT(Formal),2021.2.3,Win32,60.60606061,,,,,,,,,,,,,,,,,,,,,,,,,,,,,,,,,,,,,,,,,,,,e,1,0.4333,0,38,38,78,1,他人,e,,,,,,,,,,,,
,,,,,,,,,,,,,,1,001,2024-08-23_13h26.39.008,IAT(Formal),2021.2.3,Win32,60.60606061,,,,,,,,,,,,,,,,,,,,,,,,,,,,,,,,,,,,,,,,,,,,i,1,0.5047,0,39,39,3,1,自己,i,,,,,,,,,,,,
,,,,,,,,,,,,,,1,001,2024-08-23_13h26.39.008,IAT(Formal),2021.2.3,Win32,60.60606061,,,,,,,,,,,,,,,,,,,,,,,,,,,,,,,,,,,,,,,,,,,,i,0,1.141,0,40,40,17,1,勇敢,e,,,,,,,,,,,,
,,,,,,,,,,,,,,1,001,2024-08-23_13h26.39.008,IAT(Formal),2021.2.3,Win32,60.60606061,,,,,,,,,,,,,,,,,,,,,,,,,,,,,,,,,,,,,,,,,,,,i,1,0.7484,0,41,41,48,1,轻率,i,,,,,,,,,,,,
,,,,,,,,,,,,,,1,001,2024-08-23_13h26.39.008,IAT(Formal),2021.2.3,Win32,60.60606061,,,,,,,,,,,,,,,,,,,,,,,,,,,,,,,,,,,,,,,,,,,,i,1,0.7577,0,42,42,34,1,悲观,i,,,,,,,,,,,,
,,,,,,,,,,,,,,1,001,2024-08-23_13h26.39.008,IAT(Formal),2021.2.3,Win32,60.60606061,,,,,,,,,,,,,,,,,,,,,,,,,,,,,,,,,,,,,,,,,,,,i,1,0.8263,0,43,43,33,1,刻薄,i,,,,,,,,,,,,
,,,,,,,,,,,,,,1,001,2024-08-23_13h26.39.008,IAT(Formal),2021.2.3,Win32,60.60606061,,,,,,,,,,,,,,,,,,,,,,,,,,,,,,,,,,,,,,,,,,,,e,1,0.8674,0,44,44,20,1,认真,e,,,,,,,,,,,,
,,,,,,,,,,,,,,1,001,2024-08-23_13h26.39.008,IAT(Formal),2021.2.3,Win32,60.60606061,,,,,,,,,,,,,,,,,,,,,,,,,,,,,,,,,,,,,,,,,,,,e,1,0.9503,0,45,45,65,1,他,e,,,,,,,,,,,,
,,,,,,,,,,,,,,1,001,2024-08-23_13h26.39.008,IAT(Formal),2021.2.3,Win32,60.60606061,,,,,,,,,,,,,,,,,,,,,,,,,,,,,,,,,,,,,,,,,,,,i,1,1.1093,0,46,46,63,1,自己,i,,,,,,,,,,,,
,,,,,,,,,,,,,,1,001,2024-08-23_13h26.39.008,IAT(Formal),2021.2.3,Win32,60.60606061,,,,,,,,,,,,,,,,,,,,,,,,,,,,,,,,,,,,,,,,,,,,i,1,0.7404,0,47,47,1,1,我的,i,,,,,,,,,,,,
,,,,,,,,,,,,,,1,001,2024-08-23_13h26.39.008,IAT(Formal),2021.2.3,Win32,60.60606061,,,,,,,,,,,,,,,,,,,,,,,,,,,,,,,,,,,,,,,,,,,,i,1,0.5002,0,48,48,0,1,我,i,,,,,,,,,,,,
,,,,,,,,,,,,,,1,001,2024-08-23_13h26.39.008,IAT(Formal),2021.2.3,Win32,60.60606061,,,,,,,,,,,,,,,,,,,,,,,,,,,,,,,,,,,,,,,,,,,,i,1,1.036,0,49,49,37,1,傲慢,i,,,,,,,,,,,,
,,,,,,,,,,,,,,1,001,2024-08-23_13h26.39.008,IAT(Formal),2021.2.3,Win32,60.60606061,,,,,,,,,,,,,,,,,,,,,,,,,,,,,,,,,,,,,,,,,,,,i,1,0.851,0,50,50,74,1,俺,i,,,,,,,,,,,,
,,,,,,,,,,,,,,1,001,2024-08-23_13h26.39.008,IAT(Formal),2021.2.3,Win32,60.60606061,,,,,,,,,,,,,,,,,,,,,,,,,,,,,,,,,,,,,,,,,,,,i,0,0.9006,0,51,51,22,1,无私,e,,,,,,,,,,,,
,,,,,,,,,,,,,,1,001,2024-08-23_13h26.39.008,IAT(Formal),2021.2.3,Win32,60.60606061,,,,,,,,,,,,,,,,,,,,,,,,,,,,,,,,,,,,,,,,,,,,e,1,0.617,0,52,52,75,1,他,e,,,,,,,,,,,,
,,,,,,,,,,,,,,1,001,2024-08-23_13h26.39.008,IAT(Formal),2021.2.3,Win32,60.60606061,,,,,,,,,,,,,,,,,,,,,,,,,,,,,,,,,,,,,,,,,,,,e,1,1.0754,0,53,53,79,1,其他,e,,,,,,,,,,,,
,,,,,,,,,,,,,,1,001,2024-08-23_13h26.39.008,IAT(Formal),2021.2.3,Win32,60.60606061,,,,,,,,,,,,,,,,,,,,,,,,,,,,,,,,,,,,,,,,,,,,i,1,0.6504,0,54,54,47,1,固执,i,,,,,,,,,,,,
,,,,,,,,,,,,,,1,001,2024-08-23_13h26.39.008,IAT(Formal),2021.2.3,Win32,60.60606061,,,,,,,,,,,,,,,,,,,,,,,,,,,,,,,,,,,,,,,,,,,,e,1,0.8671,0,55,55,10,1,优秀,e,,,,,,,,,,,,
,,,,,,,,,,,,,,1,001,2024-08-23_13h26.39.008,IAT(Formal),2021.2.3,Win32,60.60606061,,,,,,,,,,,,,,,,,,,,,,,,,,,,,,,,,,,,,,,,,,,,i,1,0.6535,0,56,56,45,1,猖狂,i,,,,,,,,,,,,
,,,,,,,,,,,,,,1,001,2024-08-23_13h26.39.008,IAT(Formal),2021.2.3,Win32,60.60606061,,,,,,,,,,,,,,,,,,,,,,,,,,,,,,,,,,,,,,,,,,,,e,1,1.0589,0,57,57,68,1,他人,e,,,,,,,,,,,,
,,,,,,,,,,,,,,1,001,2024-08-23_13h26.39.008,IAT(Formal),2021.2.3,Win32,60.60606061,,,,,,,,,,,,,,,,,,,,,,,,,,,,,,,,,,,,,,,,,,,,i,1,1.0496,0,58,58,41,1,散漫,i,,,,,,,,,,,,
,,,,,,,,,,,,,,1,001,2024-08-23_13h26.39.008,IAT(Formal),2021.2.3,Win32,60.60606061,,,,,,,,,,,,,,,,,,,,,,,,,,,,,,,,,,,,,,,,,,,,e,1,0.5992,0,59,59,59,1,其他,e,,,,,,,,,,,,
,,,,,,,,,,,,,,1,001,2024-08-23_13h26.39.008,IAT(Formal),2021.2.3,Win32,60.60606061,,,,,,,,,,,,,,,,,,,,,,,,,,,,,,,,,,,,,,,,,,,,i,1,0.7026,0,60,60,38,1,鲁莽,i,,,,,,,,,,,,
,,,,,,,,,,,,,,1,001,2024-08-23_13h26.39.008,IAT(Formal),2021.2.3,Win32,60.60606061,,,,,,,,,,,,,,,,,,,,,,,,,,,,,,,,,,,,,,,,,,,,e,1,0.4841,0,61,61,56,1,他们,e,,,,,,,,,,,,
,,,,,,,,,,,,,,1,001,2024-08-23_13h26.39.008,IAT(Formal),2021.2.3,Win32,60.60606061,,,,,,,,,,,,,,,,,,,,,,,,,,,,,,,,,,,,,,,,,,,,i,1,0.3936,0,62,62,71,1,我的,i,,,,,,,,,,,,
,,,,,,,,,,,,,,1,001,2024-08-23_13h26.39.008,IAT(Formal),2021.2.3,Win32,60.60606061,,,,,,,,,,,,,,,,,,,,,,,,,,,,,,,,,,,,,,,,,,,,e,1,0.3659,0,63,63,5,1,他,e,,,,,,,,,,,,
,,,,,,,,,,,,,,1,001,2024-08-23_13h26.39.008,IAT(Formal),2021.2.3,Win32,60.60606061,,,,,,,,,,,,,,,,,,,,,,,,,,,,,,,,,,,,,,,,,,,,i,1,0.8596,0,64,64,44,1,暴躁,i,,,,,,,,,,,,
,,,,,,,,,,,,,,1,001,2024-08-23_13h26.39.008,IAT(Formal),2021.2.3,Win32,60.60606061,,,,,,,,,,,,,,,,,,,,,,,,,,,,,,,,,,,,,,,,,,,,e,1,0.8736,0,65,65,27,1,热情,e,,,,,,,,,,,,
,,,,,,,,,,,,,,1,001,2024-08-23_13h26.39.008,IAT(Formal),2021.2.3,Win32,60.60606061,,,,,,,,,,,,,,,,,,,,,,,,,,,,,,,,,,,,,,,,,,,,e,1,0.5672,0,66,66,28,1,活泼,e,,,,,,,,,,,,
,,,,,,,,,,,,,,1,001,2024-08-23_13h26.39.008,IAT(Formal),2021.2.3,Win32,60.60606061,,,,,,,,,,,,,,,,,,,,,,,,,,,,,,,,,,,,,,,,,,,,i,1,0.6326,0,67,67,42,1,凶狠,i,,,,,,,,,,,,
,,,,,,,,,,,,,,1,001,2024-08-23_13h26.39.008,IAT(Formal),2021.2.3,Win32,60.60606061,,,,,,,,,,,,,,,,,,,,,,,,,,,,,,,,,,,,,,,,,,,,e,1,0.6754,0,68,68,18,1,勤奋,e,,,,,,,,,,,,
,,,,,,,,,,,,,,1,001,2024-08-23_13h26.39.008,IAT(Formal),2021.2.3,Win32,60.60606061,,,,,,,,,,,,,,,,,,,,,,,,,,,,,,,,,,,,,,,,,,,,i,0,0.9507,0,69,69,25,1,细腻,e,,,,,,,,,,,,
,,,,,,,,,,,,,,1,001,2024-08-23_13h26.39.008,IAT(Formal),2021.2.3,Win32,60.60606061,,,,,,,,,,,,,,,,,,,,,,,,,,,,,,,,,,,,,,,,,,,,e,1,0.5279,0,70,70,21,1,稳重,e,,,,,,,,,,,,
,,,,,,,,,,,,,,1,001,2024-08-23_13h26.39.008,IAT(Formal),2021.2.3,Win32,60.60606061,,,,,,,,,,,,,,,,,,,,,,,,,,,,,,,,,,,,,,,,,,,,e,1,0.9001,0,71,71,12,1,聪明,e,,,,,,,,,,,,
,,,,,,,,,,,,,,1,001,2024-08-23_13h26.39.008,IAT(Formal),2021.2.3,Win32,60.60606061,,,,,,,,,,,,,,,,,,,,,,,,,,,,,,,,,,,,,,,,,,,,e,1,0.5996,0,72,72,23,1,公正,e,,,,,,,,,,,,
,,,,,,,,,,,,,,1,001,2024-08-23_13h26.39.008,IAT(Formal),2021.2.3,Win32,60.60606061,,,,,,,,,,,,,,,,,,,,,,,,,,,,,,,,,,,,,,,,,,,,e,0,0.7836,0,73,73,50,1,我,i,,,,,,,,,,,,
,,,,,,,,,,,,,,1,001,2024-08-23_13h26.39.008,IAT(Formal),2021.2.3,Win32,60.60606061,,,,,,,,,,,,,,,,,,,,,,,,,,,,,,,,,,,,,,,,,,,,i,1,0.8323,0,74,74,43,1,自私,i,,,,,,,,,,,,
,,,,,,,,,,,,,,1,001,2024-08-23_13h26.39.008,IAT(Formal),2021.2.3,Win32,60.60606061,,,,,,,,,,,,,,,,,,,,,,,,,,,,,,,,,,,,,,,,,,,,e,1,0.6005,0,75,75,7,1,他的,e,,,,,,,,,,,,
,,,,,,,,,,,,,,1,001,2024-08-23_13h26.39.008,IAT(Formal),2021.2.3,Win32,60.60606061,,,,,,,,,,,,,,,,,,,,,,,,,,,,,,,,,,,,,,,,,,,,e,1,0.5322,0,76,76,19,1,机智,e,,,,,,,,,,,,
,,,,,,,,,,,,,,1,001,2024-08-23_13h26.39.008,IAT(Formal),2021.2.3,Win32,60.60606061,,,,,,,,,,,,,,,,,,,,,,,,,,,,,,,,,,,,,,,,,,,,e,1,0.6036,0,77,77,8,1,他人,e,,,,,,,,,,,,
,,,,,,,,,,,,,,1,001,2024-08-23_13h26.39.008,IAT(Formal),2021.2.3,Win32,60.60606061,,,,,,,,,,,,,,,,,,,,,,,,,,,,,,,,,,,,,,,,,,,,e,1,0.5553,0,78,78,9,1,其他,e,,,,,,,,,,,,
,,,,,,,,,,,,,,1,001,2024-08-23_13h26.39.008,IAT(Formal),2021.2.3,Win32,60.60606061,,,,,,,,,,,,,,,,,,,,,,,,,,,,,,,,,,,,,,,,,,,,e,1,0.4707,0,79,79,55,1,他,e,,,,,,,,,,,,
,,,,,,,,,,,,,,1,001,2024-08-23_13h26.39.008,IAT(Formal),2021.2.3,Win32,60.60606061,,,,,,,,,,,,,,,,,,,,,,,,,,,,,,,,,,,,,,,,,,,,,,,,,,,,愚蠢,i,space,884.7987,i,1,1.3081,0,0,0,32,1,,
,,,,,,,,,,,,,,1,001,2024-08-23_13h26.39.008,IAT(Formal),2021.2.3,Win32,60.60606061,,,,,,,,,,,,,,,,,,,,,,,,,,,,,,,,,,,,,,,,,,,,,,,,,,,,消极,i,,,i,1,0.6142,0,1,1,35,1,,
,,,,,,,,,,,,,,1,001,2024-08-23_13h26.39.008,IAT(Formal),2021.2.3,Win32,60.60606061,,,,,,,,,,,,,,,,,,,,,,,,,,,,,,,,,,,,,,,,,,,,,,,,,,,,机智,e,,,e,1,0.4691,0,2,2,19,1,,
,,,,,,,,,,,,,,1,001,2024-08-23_13h26.39.008,IAT(Formal),2021.2.3,Win32,60.60606061,,,,,,,,,,,,,,,,,,,,,,,,,,,,,,,,,,,,,,,,,,,,,,,,,,,,诚实,e,,,e,1,0.4489,0,3,3,15,1,,
,,,,,,,,,,,,,,1,001,2024-08-23_13h26.39.008,IAT(Formal),2021.2.3,Win32,60.60606061,,,,,,,,,,,,,,,,,,,,,,,,,,,,,,,,,,,,,,,,,,,,,,,,,,,,他们,e,,,i,0,0.8412,0,4,4,56,1,,
,,,,,,,,,,,,,,1,001,2024-08-23_13h26.39.008,IAT(Formal),2021.2.3,Win32,60.60606061,,,,,,,,,,,,,,,,,,,,,,,,,,,,,,,,,,,,,,,,,,,,,,,,,,,,自己,i,,,e,0,1.33,0,5,5,73,1,,
,,,,,,,,,,,,,,1,001,2024-08-23_13h26.39.008,IAT(Formal),2021.2.3,Win32,60.60606061,,,,,,,,,,,,,,,,,,,,,,,,,,,,,,,,,,,,,,,,,,,,,,,,,,,,其他,e,,,e,1,0.9374,0,6,6,59,1,,
,,,,,,,,,,,,,,1,001,2024-08-23_13h26.39.008,IAT(Formal),2021.2.3,Win32,60.60606061,,,,,,,,,,,,,,,,,,,,,,,,,,,,,,,,,,,,,,,,,,,,,,,,,,,,他,e,,,i,0,0.5803,0,7,7,55,1,,
,,,,,,,,,,,,,,1,001,2024-08-23_13h26.39.008,IAT(Formal),2021.2.3,Win32,60.60606061,,,,,,,,,,,,,,,,,,,,,,,,,,,,,,,,,,,,,,,,,,,,,,,,,,,,稳重,e,,,e,1,0.9326,0,8,8,21,1,,
,,,,,,,,,,,,,,1,001,2024-08-23_13h26.39.008,IAT(Formal),2021.2.3,Win32,60.60606061,,,,,,,,,,,,,,,,,,,,,,,,,,,,,,,,,,,,,,,,,,,,,,,,,,,,其他,e,,,e,1,1.1732,0,9,9,69,1,,
,,,,,,,,,,,,,,1,001,2024-08-23_13h26.39.008,IAT(Formal),2021.2.3,Win32,60.60606061,,,,,,,,,,,,,,,,,,,,,,,,,,,,,,,,,,,,,,,,,,,,,,,,,,,,我们,i,,,i,1,0.9148,0,10,10,72,1,,
,,,,,,,,,,,,,,1,001,2024-08-23_13h26.39.008,IAT(Formal),2021.2.3,Win32,60.60606061,,,,,,,,,,,,,,,,,,,,,,,,,,,,,,,,,,,,,,,,,,,,,,,,,,,,朴实,e,,,e,1,0.8646,0,11,11,24,1,,
,,,,,,,,,,,,,,1,001,2024-08-23_13h26.39.008,IAT(Formal),2021.2.3,Win32,60.60606061,,,,,,,,,,,,,,,,,,,,,,,,,,,,,,,,,,,,,,,,,,,,,,,,,,,,俺,i,,,i,1,1.1742,0,12,12,54,1,,
,,,,,,,,,,,,,,1,001,2024-08-23_13h26.39.008,IAT(Formal),2021.2.3,Win32,60.60606061,,,,,,,,,,,,,,,,,,,,,,,,,,,,,,,,,,,,,,,,,,,,,,,,,,,,他们,e,,,e,1,0.5657,0,13,13,76,1,,
,,,,,,,,,,,,,,1,001,2024-08-23_13h26.39.008,IAT(Formal),2021.2.3,Win32,60.60606061,,,,,,,,,,,,,,,,,,,,,,,,,,,,,,,,,,,,,,,,,,,,,,,,,,,,他人,e,,,e,1,0.7039,0,14,14,78,1,,
,,,,,,,,,,,,,,1,001,2024-08-23_13h26.39.008,IAT(Formal),2021.2.3,Win32,60.60606061,,,,,,,,,,,,,,,,,,,,,,,,,,,,,,,,,,,,,,,,,,,,,,,,,,,,正直,e,,,e,1,0.6313,0,15,15,16,1,,
,,,,,,,,,,,,,,1,001,2024-08-23_13h26.39.008,IAT(Formal),2021.2.3,Win32,60.60606061,,,,,,,,,,,,,,,,,,,,,,,,,,,,,,,,,,,,,,,,,,,,,,,,,,,,自己,i,,,i,1,1.227,0,16,16,63,1,,
,,,,,,,,,,,,,,1,001,2024-08-23_13h26.39.008,IAT(Formal),2021.2.3,Win32,60.60606061,,,,,,,,,,,,,,,,,,,,,,,,,,,,,,,,,,,,,,,,,,,,,,,,,,,,俺,i,,,e,0,0.9257,0,17,17,74,1,,
,,,,,,,,,,,,,,1,001,2024-08-23_13h26.39.008,IAT(Formal),2021.2.3,Win32,60.60606061,,,,,,,,,,,,,,,,,,,,,,,,,,,,,,,,,,,,,,,,,,,,,,,,,,,,其他,e,,,e,1,0.8066,0,18,18,79,1,,
,,,,,,,,,,,,,,1,001,2024-08-23_13h26.39.008,IAT(Formal),2021.2.3,Win32,60.60606061,,,,,,,,,,,,,,,,,,,,,,,,,,,,,,,,,,,,,,,,,,,,,,,,,,,,刻薄,i,,,i,1,1.262,0,19,19,33,1,,
,,,,,,,,,,,,,,1,001,2024-08-23_13h26.39.008,IAT(Formal),2021.2.3,Win32,60.60606061,,,,,,,,,,,,,,,,,,,,,,,,,,,,,,,,,,,,,,,,,,,,,,,,,,,,我的,i,,,e,0,1.1371,0,20,20,61,1,,
,,,,,,,,,,,,,,1,001,2024-08-23_13h26.39.008,IAT(Formal),2021.2.3,Win32,60.60606061,,,,,,,,,,,,,,,,,,,,,,,,,,,,,,,,,,,,,,,,,,,,,,,,,,,,散漫,i,,,e,0,0.7545,0,21,21,41,1,,
,,,,,,,,,,,,,,1,001,2024-08-23_13h26.39.008,IAT(Formal),2021.2.3,Win32,60.60606061,,,,,,,,,,,,,,,,,,,,,,,,,,,,,,,,,,,,,,,,,,,,,,,,,,,,无私,e,,,e,1,1.181,0,22,22,22,1,,
,,,,,,,,,,,,,,1,001,2024-08-23_13h26.39.008,IAT(Formal),2021.2.3,Win32,60.60606061,,,,,,,,,,,,,,,,,,,,,,,,,,,,,,,,,,,,,,,,,,,,,,,,,,,,自卑,i,,,i,1,0.547,0,23,23,36,1,,
,,,,,,,,,,,,,,1,001,2024-08-23_13h26.39.008,IAT(Formal),2021.2.3,Win32,60.60606061,,,,,,,,,,,,,,,,,,,,,,,,,,,,,,,,,,,,,,,,,,,,,,,,,,,,我的,i,,,i,1,0.8374,0,24,24,51,1,,
,,,,,,,,,,,,,,1,001,2024-08-23_13h26.39.008,IAT(Formal),2021.2.3,Win32,60.60606061,,,,,,,,,,,,,,,,,,,,,,,,,,,,,,,,,,,,,,,,,,,,,,,,,,,,我,i,,,i,1,1.1745,0,25,25,60,1,,
,,,,,,,,,,,,,,1,001,2024-08-23_13h26.39.008,IAT(Formal),2021.2.3,Win32,60.60606061,,,,,,,,,,,,,,,,,,,,,,,,,,,,,,,,,,,,,,,,,,,,,,,,,,,,鲁莽,i,,,i,1,0.4854,0,26,26,38,1,,
,,,,,,,,,,,,,,1,001,2024-08-23_13h26.39.008,IAT(Formal),2021.2.3,Win32,60.60606061,,,,,,,,,,,,,,,,,,,,,,,,,,,,,,,,,,,,,,,,,,,,,,,,,,,,聪明,e,,,e,1,0.7656,0,27,27,12,1,,
,,,,,,,,,,,,,,1,001,2024-08-23_13h26.39.008,IAT(Formal),2021.2.3,Win32,60.60606061,,,,,,,,,,,,,,,,,,,,,,,,,,,,,,,,,,,,,,,,,,,,,,,,,,,,认真,e,,,i,0,1.1831,0,28,28,20,1,,
,,,,,,,,,,,,,,1,001,2024-08-23_13h26.39.008,IAT(Formal),2021.2.3,Win32,60.60606061,,,,,,,,,,,,,,,,,,,,,,,,,,,,,,,,,,,,,,,,,,,,,,,,,,,,勇敢,e,,,e,1,0.6896,0,29,29,17,1,,
,,,,,,,,,,,,,,1,001,2024-08-23_13h26.39.008,IAT(Formal),2021.2.3,Win32,60.60606061,,,,,,,,,,,,,,,,,,,,,,,,,,,,,,,,,,,,,,,,,,,,,,,,,,,,悲观,i,,,i,1,0.8296,0,30,30,34,1,,
,,,,,,,,,,,,,,1,001,2024-08-23_13h26.39.008,IAT(Formal),2021.2.3,Win32,60.60606061,,,,,,,,,,,,,,,,,,,,,,,,,,,,,,,,,,,,,,,,,,,,,,,,,,,,他,e,,,e,1,0.5476,0,31,31,65,1,,
,,,,,,,,,,,,,,1,001,2024-08-23_13h26.39.008,IAT(Formal),2021.2.3,Win32,60.60606061,,,,,,,,,,,,,,,,,,,,,,,,,,,,,,,,,,,,,,,,,,,,,,,,,,,,卑鄙,i,,,i,1,0.6985,0,32,32,30,1,,
,,,,,,,,,,,,,,1,001,2024-08-23_13h26.39.008,IAT(Formal),2021.2.3,Win32,60.60606061,,,,,,,,,,,,,,,,,,,,,,,,,,,,,,,,,,,,,,,,,,,,,,,,,,,,我的,i,,,i,1,0.8302,0,33,33,71,1,,
,,,,,,,,,,,,,,1,001,2024-08-23_13h26.39.008,IAT(Formal),2021.2.3,Win32,60.60606061,,,,,,,,,,,,,,,,,,,,,,,,,,,,,,,,,,,,,,,,,,,,,,,,,,,,他的,e,,,e,1,1.0236,0,34,34,77,1,,
,,,,,,,,,,,,,,1,001,2024-08-23_13h26.39.008,IAT(Formal),2021.2.3,Win32,60.60606061,,,,,,,,,,,,,,,,,,,,,,,,,,,,,,,,,,,,,,,,,,,,,,,,,,,,公正,e,,,e,1,0.7556,0,35,35,23,1,,
,,,,,,,,,,,,,,1,001,2024-08-23_13h26.39.008,IAT(Formal),2021.2.3,Win32,60.60606061,,,,,,,,,,,,,,,,,,,,,,,,,,,,,,,,,,,,,,,,,,,,,,,,,,,,下贱,i,,,i,1,0.6334,0,36,36,49,1,,
,,,,,,,,,,,,,,1,001,2024-08-23_13h26.39.008,IAT(Formal),2021.2.3,Win32,60.60606061,,,,,,,,,,,,,,,,,,,,,,,,,,,,,,,,,,,,,,,,,,,,,,,,,,,,我,i,,,e,0,0.7304,0,37,37,0,1,,
,,,,,,,,,,,,,,1,001,2024-08-23_13h26.39.008,IAT(Formal),2021.2.3,Win32,60.60606061,,,,,,,,,,,,,,,,,,,,,,,,,,,,,,,,,,,,,,,,,,,,,,,,,,,,轻率,i,,,,0,,0,38,38,48,1,,
,,,,,,,,,,,,,,1,001,2024-08-23_13h26.39.008,IAT(Formal),2021.2.3,Win32,60.60606061,,,,,,,,,,,,,,,,,,,,,,,,,,,,,,,,,,,,,,,,,,,,,,,,,,,,杰出,e,,,e,1,0.7402,0,39,39,13,1,,
,,,,,,,,,,,,,,1,001,2024-08-23_13h26.39.008,IAT(Formal),2021.2.3,Win32,60.60606061,,,,,,,,,,,,,,,,,,,,,,,,,,,,,,,,,,,,,,,,,,,,,,,,,,,,我们,i,,,i,1,0.8372,0,40,40,52,1,,
,,,,,,,,,,,,,,1,001,2024-08-23_13h26.39.008,IAT(Formal),2021.2.3,Win32,60.60606061,,,,,,,,,,,,,,,,,,,,,,,,,,,,,,,,,,,,,,,,,,,,,,,,,,,,我们,i,,,i,1,0.5789,0,41,41,2,1,,
,,,,,,,,,,,,,,1,001,2024-08-23_13h26.39.008,IAT(Formal),2021.2.3,Win32,60.60606061,,,,,,,,,,,,,,,,,,,,,,,,,,,,,,,,,,,,,,,,,,,,,,,,,,,,他,e,,,e,1,0.7019,0,42,42,75,1,,
,,,,,,,,,,,,,,1,001,2024-08-23_13h26.39.008,IAT(Formal),2021.2.3,Win32,60.60606061,,,,,,,,,,,,,,,,,,,,,,,,,,,,,,,,,,,,,,,,,,,,,,,,,,,,我的,i,,,i,1,0.7,0,43,43,1,1,,
,,,,,,,,,,,,,,1,001,2024-08-23_13h26.39.008,IAT(Formal),2021.2.3,Win32,60.60606061,,,,,,,,,,,,,,,,,,,,,,,,,,,,,,,,,,,,,,,,,,,,,,,,,,,,他的,e,,,e,1,0.6547,0,44,44,7,1,,
,,,,,,,,,,,,,,1,001,2024-08-23_13h26.39.008,IAT(Formal),2021.2.3,Win32,60.60606061,,,,,,,,,,,,,,,,,,,,,,,,,,,,,,,,,,,,,,,,,,,,,,,,,,,,他们,e,,,e,1,1.0185,0,45,45,66,1,,
,,,,,,,,,,,,,,1,001,2024-08-23_13h26.39.008,IAT(Formal),2021.2.3,Win32,60.60606061,,,,,,,,,,,,,,,,,,,,,,,,,,,,,,,,,,,,,,,,,,,,,,,,,,,,他的,e,,,e,1,0.6305,0,46,46,67,1,,
,,,,,,,,,,,,,,1,001,2024-08-23_13h26.39.008,IAT(Formal),2021.2.3,Win32,60.60606061,,,,,,,,,,,,,,,,,,,,,,,,,,,,,,,,,,,,,,,,,,,,,,,,,,,,猖狂,i,,,i,1,0.6702,0,47,47,45,1,,
,,,,,,,,,,,,,,1,001,2024-08-23_13h26.39.008,IAT(Formal),2021.2.3,Win32,60.60606061,,,,,,,,,,,,,,,,,,,,,,,,,,,,,,,,,,,,,,,,,,,,,,,,,,,,自己,i,,,i,1,0.7325,0,48,48,53,1,,
,,,,,,,,,,,,,,1,001,2024-08-23_13h26.39.008,IAT(Formal),2021.2.3,Win32,60.60606061,,,,,,,,,,,,,,,,,,,,,,,,,,,,,,,,,,,,,,,,,,,,,,,,,,,,他们,e,,,e,1,0.7187,0,49,49,6,1,,
,,,,,,,,,,,,,,1,001,2024-08-23_13h26.39.008,IAT(Formal),2021.2.3,Win32,60.60606061,,,,,,,,,,,,,,,,,,,,,,,,,,,,,,,,,,,,,,,,,,,,,,,,,,,,俺,i,,,i,1,1.1916,0,50,50,64,1,,
,,,,,,,,,,,,,,1,001,2024-08-23_13h26.39.008,IAT(Formal),2021.2.3,Win32,60.60606061,,,,,,,,,,,,,,,,,,,,,,,,,,,,,,,,,,,,,,,,,,,,,,,,,,,,自私,i,,,i,1,1.0974,0,51,51,43,1,,
,,,,,,,,,,,,,,1,001,2024-08-23_13h26.39.008,IAT(Formal),2021.2.3,Win32,60.60606061,,,,,,,,,,,,,,,,,,,,,,,,,,,,,,,,,,,,,,,,,,,,,,,,,,,,乐观,e,,,e,1,0.8188,0,52,52,14,1,,
,,,,,,,,,,,,,,1,001,2024-08-23_13h26.39.008,IAT(Formal),2021.2.3,Win32,60.60606061,,,,,,,,,,,,,,,,,,,,,,,,,,,,,,,,,,,,,,,,,,,,,,,,,,,,他,e,,,e,1,0.9642,0,53,53,5,1,,
,,,,,,,,,,,,,,1,001,2024-08-23_13h26.39.008,IAT(Formal),2021.2.3,Win32,60.60606061,,,,,,,,,,,,,,,,,,,,,,,,,,,,,,,,,,,,,,,,,,,,,,,,,,,,他人,e,,,,0,,0,54,54,58,1,,
,,,,,,,,,,,,,,1,001,2024-08-23_13h26.39.008,IAT(Formal),2021.2.3,Win32,60.60606061,,,,,,,,,,,,,,,,,,,,,,,,,,,,,,,,,,,,,,,,,,,,,,,,,,,,虚伪,i,,,i,1,1.0303,0,55,55,31,1,,
,,,,,,,,,,,,,,1,001,2024-08-23_13h26.39.008,IAT(Formal),2021.2.3,Win32,60.60606061,,,,,,,,,,,,,,,,,,,,,,,,,,,,,,,,,,,,,,,,,,,,,,,,,,,,诚恳,e,,,i,0,0.6231,0,56,56,29,1,,
,,,,,,,,,,,,,,1,001,2024-08-23_13h26.39.008,IAT(Formal),2021.2.3,Win32,60.60606061,,,,,,,,,,,,,,,,,,,,,,,,,,,,,,,,,,,,,,,,,,,,,,,,,,,,热情,e,,,e,1,0.5733,0,57,57,27,1,,
,,,,,,,,,,,,,,1,001,2024-08-23_13h26.39.008,IAT(Formal),2021.2.3,Win32,60.60606061,,,,,,,,,,,,,,,,,,,,,,,,,,,,,,,,,,,,,,,,,,,,,,,,,,,,固执,i,,,i,1,0.9134,0,58,58,47,1,,
,,,,,,,,,,,,,,1,001,2024-08-23_13h26.39.008,IAT(Formal),2021.2.3,Win32,60.60606061,,,,,,,,,,,,,,,,,,,,,,,,,,,,,,,,,,,,,,,,,,,,,,,,,,,,勤奋,e,,,e,1,0.9305,0,59,59,18,1,,
,,,,,,,,,,,,,,1,001,2024-08-23_13h26.39.008,IAT(Formal),2021.2.3,Win32,60.60606061,,,,,,,,,,,,,,,,,,,,,,,,,,,,,,,,,,,,,,,,,,,,,,,,,,,,执拗,i,,,i,1,0.8695,0,60,60,40,1,,
,,,,,,,,,,,,,,1,001,2024-08-23_13h26.39.008,IAT(Formal),2021.2.3,Win32,60.60606061,,,,,,,,,,,,,,,,,,,,,,,,,,,,,,,,,,,,,,,,,,,,,,,,,,,,俺,i,,,e,0,0.6737,0,61,61,4,1,,
,,,,,,,,,,,,,,1,001,2024-08-23_13h26.39.008,IAT(Formal),2021.2.3,Win32,60.60606061,,,,,,,,,,,,,,,,,,,,,,,,,,,,,,,,,,,,,,,,,,,,,,,,,,,,活泼,e,,,e,1,0.672,0,62,62,28,1,,
,,,,,,,,,,,,,,1,001,2024-08-23_13h26.39.008,IAT(Formal),2021.2.3,Win32,60.60606061,,,,,,,,,,,,,,,,,,,,,,,,,,,,,,,,,,,,,,,,,,,,,,,,,,,,自己,i,,,i,1,0.8709,0,63,63,3,1,,
,,,,,,,,,,,,,,1,001,2024-08-23_13h26.39.008,IAT(Formal),2021.2.3,Win32,60.60606061,,,,,,,,,,,,,,,,,,,,,,,,,,,,,,,,,,,,,,,,,,,,,,,,,,,,细腻,e,,,e,1,0.8577,0,64,64,25,1,,
,,,,,,,,,,,,,,1,001,2024-08-23_13h26.39.008,IAT(Formal),2021.2.3,Win32,60.60606061,,,,,,,,,,,,,,,,,,,,,,,,,,,,,,,,,,,,,,,,,,,,,,,,,,,,他人,e,,,e,1,0.8421,0,65,65,8,1,,
,,,,,,,,,,,,,,1,001,2024-08-23_13h26.39.008,IAT(Formal),2021.2.3,Win32,60.60606061,,,,,,,,,,,,,,,,,,,,,,,,,,,,,,,,,,,,,,,,,,,,,,,,,,,,我们,i,,,i,1,1.0311,0,66,66,62,1,,
,,,,,,,,,,,,,,1,001,2024-08-23_13h26.39.008,IAT(Formal),2021.2.3,Win32,60.60606061,,,,,,,,,,,,,,,,,,,,,,,,,,,,,,,,,,,,,,,,,,,,,,,,,,,,崇高,e,,,e,1,1.017,0,67,67,11,1,,
,,,,,,,,,,,,,,1,001,2024-08-23_13h26.39.008,IAT(Formal),2021.2.3,Win32,60.60606061,,,,,,,,,,,,,,,,,,,,,,,,,,,,,,,,,,,,,,,,,,,,,,,,,,,,我,i,,,i,1,0.8632,0,68,68,70,1,,
,,,,,,,,,,,,,,1,001,2024-08-23_13h26.39.008,IAT(Formal),2021.2.3,Win32,60.60606061,,,,,,,,,,,,,,,,,,,,,,,,,,,,,,,,,,,,,,,,,,,,,,,,,,,,冒失,i,,,i,1,0.6658,0,69,69,39,1,,
,,,,,,,,,,,,,,1,001,2024-08-23_13h26.39.008,IAT(Formal),2021.2.3,Win32,60.60606061,,,,,,,,,,,,,,,,,,,,,,,,,,,,,,,,,,,,,,,,,,,,,,,,,,,,野蛮,i,,,e,0,0.8512,0,70,70,46,1,,
,,,,,,,,,,,,,,1,001,2024-08-23_13h26.39.008,IAT(Formal),2021.2.3,Win32,60.60606061,,,,,,,,,,,,,,,,,,,,,,,,,,,,,,,,,,,,,,,,,,,,,,,,,,,,其他,e,,,e,1,1.0994,0,71,71,9,1,,
,,,,,,,,,,,,,,1,001,2024-08-23_13h26.39.008,IAT(Formal),2021.2.3,Win32,60.60606061,,,,,,,,,,,,,,,,,,,,,,,,,,,,,,,,,,,,,,,,,,,,,,,,,,,,暴躁,i,,,i,1,1.1017,0,72,72,44,1,,
,,,,,,,,,,,,,,1,001,2024-08-23_13h26.39.008,IAT(Formal),2021.2.3,Win32,60.60606061,,,,,,,,,,,,,,,,,,,,,,,,,,,,,,,,,,,,,,,,,,,,,,,,,,,,他人,e,,,e,1,1.4329,0,73,73,68,1,,
,,,,,,,,,,,,,,1,001,2024-08-23_13h26.39.008,IAT(Formal),2021.2.3,Win32,60.60606061,,,,,,,,,,,,,,,,,,,,,,,,,,,,,,,,,,,,,,,,,,,,,,,,,,,,冷静,e,,,e,1,0.9638,0,74,74,26,1,,
,,,,,,,,,,,,,,1,001,2024-08-23_13h26.39.008,IAT(Formal),2021.2.3,Win32,60.60606061,,,,,,,,,,,,,,,,,,,,,,,,,,,,,,,,,,,,,,,,,,,,,,,,,,,,优秀,e,,,e,1,0.7317,0,75,75,10,1,,
,,,,,,,,,,,,,,1,001,2024-08-23_13h26.39.008,IAT(Formal),2021.2.3,Win32,60.60606061,,,,,,,,,,,,,,,,,,,,,,,,,,,,,,,,,,,,,,,,,,,,,,,,,,,,他的,e,,,e,1,0.667,0,76,76,57,1,,
,,,,,,,,,,,,,,1,001,2024-08-23_13h26.39.008,IAT(Formal),2021.2.3,Win32,60.60606061,,,,,,,,,,,,,,,,,,,,,,,,,,,,,,,,,,,,,,,,,,,,,,,,,,,,凶狠,i,,,i,1,0.6744,0,77,77,42,1,,
,,,,,,,,,,,,,,1,001,2024-08-23_13h26.39.008,IAT(Formal),2021.2.3,Win32,60.60606061,,,,,,,,,,,,,,,,,,,,,,,,,,,,,,,,,,,,,,,,,,,,,,,,,,,,傲慢,i,,,i,1,0.8331,0,78,78,37,1,,
,,,,,,,,,,,,,,1,001,2024-08-23_13h26.39.008,IAT(Formal),2021.2.3,Win32,60.60606061,,,,,,,,,,,,,,,,,,,,,,,,,,,,,,,,,,,,,,,,,,,,,,,,,,,,我,i,,,i,1,0.7161,0,79,79,50,1,,
,,,,,,,,,,,,,,1,001,2024-08-23_13h26.39.008,IAT(Formal),2021.2.3,Win32,60.60606061,,,,,,,,,,,,,,,,,,,,,,,,,,,,,,,,,,,,,,,,,,,,,,,,,,,,我,i,,,i,1,0.4758,1,0,80,70,1,,
,,,,,,,,,,,,,,1,001,2024-08-23_13h26.39.008,IAT(Formal),2021.2.3,Win32,60.60606061,,,,,,,,,,,,,,,,,,,,,,,,,,,,,,,,,,,,,,,,,,,,,,,,,,,,机智,e,,,e,1,0.5659,1,1,81,19,1,,
,,,,,,,,,,,,,,1,001,2024-08-23_13h26.39.008,IAT(Formal),2021.2.3,Win32,60.60606061,,,,,,,,,,,,,,,,,,,,,,,,,,,,,,,,,,,,,,,,,,,,,,,,,,,,执拗,i,,,i,1,0.6666,1,2,82,40,1,,
,,,,,,,,,,,,,,1,001,2024-08-23_13h26.39.008,IAT(Formal),2021.2.3,Win32,60.60606061,,,,,,,,,,,,,,,,,,,,,,,,,,,,,,,,,,,,,,,,,,,,,,,,,,,,我们,i,,,i,1,1.0601,1,3,83,52,1,,
,,,,,,,,,,,,,,1,001,2024-08-23_13h26.39.008,IAT(Formal),2021.2.3,Win32,60.60606061,,,,,,,,,,,,,,,,,,,,,,,,,,,,,,,,,,,,,,,,,,,,,,,,,,,,其他,e,,,e,1,0.6948,1,4,84,59,1,,
,,,,,,,,,,,,,,1,001,2024-08-23_13h26.39.008,IAT(Formal),2021.2.3,Win32,60.60606061,,,,,,,,,,,,,,,,,,,,,,,,,,,,,,,,,,,,,,,,,,,,,,,,,,,,他,e,,,e,1,0.785,1,5,85,65,1,,
,,,,,,,,,,,,,,1,001,2024-08-23_13h26.39.008,IAT(Formal),2021.2.3,Win32,60.60606061,,,,,,,,,,,,,,,,,,,,,,,,,,,,,,,,,,,,,,,,,,,,,,,,,,,,自私,i,,,i,1,0.5905,1,6,86,43,1,,
,,,,,,,,,,,,,,1,001,2024-08-23_13h26.39.008,IAT(Formal),2021.2.3,Win32,60.60606061,,,,,,,,,,,,,,,,,,,,,,,,,,,,,,,,,,,,,,,,,,,,,,,,,,,,其他,e,,,e,1,1.0187,1,7,87,79,1,,
,,,,,,,,,,,,,,1,001,2024-08-23_13h26.39.008,IAT(Formal),2021.2.3,Win32,60.60606061,,,,,,,,,,,,,,,,,,,,,,,,,,,,,,,,,,,,,,,,,,,,,,,,,,,,他们,e,,,e,1,0.6027,1,8,88,66,1,,
,,,,,,,,,,,,,,1,001,2024-08-23_13h26.39.008,IAT(Formal),2021.2.3,Win32,60.60606061,,,,,,,,,,,,,,,,,,,,,,,,,,,,,,,,,,,,,,,,,,,,,,,,,,,,固执,i,,,i,1,0.7665,1,9,89,47,1,,
,,,,,,,,,,,,,,1,001,2024-08-23_13h26.39.008,IAT(Formal),2021.2.3,Win32,60.60606061,,,,,,,,,,,,,,,,,,,,,,,,,,,,,,,,,,,,,,,,,,,,,,,,,,,,我们,i,,,e,0,0.8668,1,10,90,2,1,,
,,,,,,,,,,,,,,1,001,2024-08-23_13h26.39.008,IAT(Formal),2021.2.3,Win32,60.60606061,,,,,,,,,,,,,,,,,,,,,,,,,,,,,,,,,,,,,,,,,,,,,,,,,,,,自己,i,,,i,1,0.7223,1,11,91,63,1,,
,,,,,,,,,,,,,,1,001,2024-08-23_13h26.39.008,IAT(Formal),2021.2.3,Win32,60.60606061,,,,,,,,,,,,,,,,,,,,,,,,,,,,,,,,,,,,,,,,,,,,,,,,,,,,他人,e,,,e,1,0.8677,1,12,92,58,1,,
,,,,,,,,,,,,,,1,001,2024-08-23_13h26.39.008,IAT(Formal),2021.2.3,Win32,60.60606061,,,,,,,,,,,,,,,,,,,,,,,,,,,,,,,,,,,,,,,,,,,,,,,,,,,,我的,i,,,i,1,0.4342,1,13,93,61,1,,
,,,,,,,,,,,,,,1,001,2024-08-23_13h26.39.008,IAT(Formal),2021.2.3,Win32,60.60606061,,,,,,,,,,,,,,,,,,,,,,,,,,,,,,,,,,,,,,,,,,,,,,,,,,,,稳重,e,,,e,1,0.9904,1,14,94,21,1,,
,,,,,,,,,,,,,,1,001,2024-08-23_13h26.39.008,IAT(Formal),2021.2.3,Win32,60.60606061,,,,,,,,,,,,,,,,,,,,,,,,,,,,,,,,,,,,,,,,,,,,,,,,,,,,他们,e,,,e,1,0.6749,1,15,95,6,1,,
,,,,,,,,,,,,,,1,001,2024-08-23_13h26.39.008,IAT(Formal),2021.2.3,Win32,60.60606061,,,,,,,,,,,,,,,,,,,,,,,,,,,,,,,,,,,,,,,,,,,,,,,,,,,,冒失,i,,,i,1,0.6266,1,16,96,39,1,,
,,,,,,,,,,,,,,1,001,2024-08-23_13h26.39.008,IAT(Formal),2021.2.3,Win32,60.60606061,,,,,,,,,,,,,,,,,,,,,,,,,,,,,,,,,,,,,,,,,,,,,,,,,,,,冷静,e,,,e,1,1.4041,1,17,97,26,1,,
,,,,,,,,,,,,,,1,001,2024-08-23_13h26.39.008,IAT(Formal),2021.2.3,Win32,60.60606061,,,,,,,,,,,,,,,,,,,,,,,,,,,,,,,,,,,,,,,,,,,,,,,,,,,,他的,e,,,e,1,0.6173,1,18,98,77,1,,
,,,,,,,,,,,,,,1,001,2024-08-23_13h26.39.008,IAT(Formal),2021.2.3,Win32,60.60606061,,,,,,,,,,,,,,,,,,,,,,,,,,,,,,,,,,,,,,,,,,,,,,,,,,,,自卑,i,,,i,1,0.5731,1,19,99,36,1,,
,,,,,,,,,,,,,,1,001,2024-08-23_13h26.39.008,IAT(Formal),2021.2.3,Win32,60.60606061,,,,,,,,,,,,,,,,,,,,,,,,,,,,,,,,,,,,,,,,,,,,,,,,,,,,俺,i,,,e,0,0.7341,1,20,100,54,1,,
,,,,,,,,,,,,,,1,001,2024-08-23_13h26.39.008,IAT(Formal),2021.2.3,Win32,60.60606061,,,,,,,,,,,,,,,,,,,,,,,,,,,,,,,,,,,,,,,,,,,,,,,,,,,,他的,e,,,e,1,0.5068,1,21,101,67,1,,
,,,,,,,,,,,,,,1,001,2024-08-23_13h26.39.008,IAT(Formal),2021.2.3,Win32,60.60606061,,,,,,,,,,,,,,,,,,,,,,,,,,,,,,,,,,,,,,,,,,,,,,,,,,,,卑鄙,i,,,i,1,0.7201,1,22,102,30,1,,
,,,,,,,,,,,,,,1,001,2024-08-23_13h26.39.008,IAT(Formal),2021.2.3,Win32,60.60606061,,,,,,,,,,,,,,,,,,,,,,,,,,,,,,,,,,,,,,,,,,,,,,,,,,,,自己,i,,,e,0,0.706,1,23,103,3,1,,
,,,,,,,,,,,,,,1,001,2024-08-23_13h26.39.008,IAT(Formal),2021.2.3,Win32,60.60606061,,,,,,,,,,,,,,,,,,,,,,,,,,,,,,,,,,,,,,,,,,,,,,,,,,,,自己,i,,,i,1,0.6503,1,24,104,53,1,,
,,,,,,,,,,,,,,1,001,2024-08-23_13h26.39.008,IAT(Formal),2021.2.3,Win32,60.60606061,,,,,,,,,,,,,,,,,,,,,,,,,,,,,,,,,,,,,,,,,,,,,,,,,,,,俺,i,,,i,1,1.0006,1,25,105,64,1,,
,,,,,,,,,,,,,,1,001,2024-08-23_13h26.39.008,IAT(Formal),2021.2.3,Win32,60.60606061,,,,,,,,,,,,,,,,,,,,,,,,,,,,,,,,,,,,,,,,,,,,,,,,,,,,优秀,e,,,e,1,1.0843,1,26,106,10,1,,
,,,,,,,,,,,,,,1,001,2024-08-23_13h26.39.008,IAT(Formal),2021.2.3,Win32,60.60606061,,,,,,,,,,,,,,,,,,,,,,,,,,,,,,,,,,,,,,,,,,,,,,,,,,,,我,i,,,i,1,0.668,1,27,107,0,1,,
,,,,,,,,,,,,,,1,001,2024-08-23_13h26.39.008,IAT(Formal),2021.2.3,Win32,60.60606061,,,,,,,,,,,,,,,,,,,,,,,,,,,,,,,,,,,,,,,,,,,,,,,,,,,,细腻,e,,,i,0,1.2502,1,28,108,25,1,,
,,,,,,,,,,,,,,1,001,2024-08-23_13h26.39.008,IAT(Formal),2021.2.3,Win32,60.60606061,,,,,,,,,,,,,,,,,,,,,,,,,,,,,,,,,,,,,,,,,,,,,,,,,,,,公正,e,,,i,0,1.0763,1,29,109,23,1,,
,,,,,,,,,,,,,,1,001,2024-08-23_13h26.39.008,IAT(Formal),2021.2.3,Win32,60.60606061,,,,,,,,,,,,,,,,,,,,,,,,,,,,,,,,,,,,,,,,,,,,,,,,,,,,他们,e,,,e,1,0.6049,1,30,110,76,1,,
,,,,,,,,,,,,,,1,001,2024-08-23_13h26.39.008,IAT(Formal),2021.2.3,Win32,60.60606061,,,,,,,,,,,,,,,,,,,,,,,,,,,,,,,,,,,,,,,,,,,,,,,,,,,,勤奋,e,,,e,1,0.7508,1,31,111,18,1,,
,,,,,,,,,,,,,,1,001,2024-08-23_13h26.39.008,IAT(Formal),2021.2.3,Win32,60.60606061,,,,,,,,,,,,,,,,,,,,,,,,,,,,,,,,,,,,,,,,,,,,,,,,,,,,朴实,e,,,e,1,1.034,1,32,112,24,1,,
,,,,,,,,,,,,,,1,001,2024-08-23_13h26.39.008,IAT(Formal),2021.2.3,Win32,60.60606061,,,,,,,,,,,,,,,,,,,,,,,,,,,,,,,,,,,,,,,,,,,,,,,,,,,,轻率,i,,,i,1,0.6707,1,33,113,48,1,,
,,,,,,,,,,,,,,1,001,2024-08-23_13h26.39.008,IAT(Formal),2021.2.3,Win32,60.60606061,,,,,,,,,,,,,,,,,,,,,,,,,,,,,,,,,,,,,,,,,,,,,,,,,,,,俺,i,,,e,0,0.8516,1,34,114,74,1,,
,,,,,,,,,,,,,,1,001,2024-08-23_13h26.39.008,IAT(Formal),2021.2.3,Win32,60.60606061,,,,,,,,,,,,,,,,,,,,,,,,,,,,,,,,,,,,,,,,,,,,,,,,,,,,认真,e,,,e,1,0.7519,1,35,115,20,1,,
,,,,,,,,,,,,,,1,001,2024-08-23_13h26.39.008,IAT(Formal),2021.2.3,Win32,60.60606061,,,,,,,,,,,,,,,,,,,,,,,,,,,,,,,,,,,,,,,,,,,,,,,,,,,,凶狠,i,,,i,1,0.8183,1,36,116,42,1,,
,,,,,,,,,,,,,,1,001,2024-08-23_13h26.39.008,IAT(Formal),2021.2.3,Win32,60.60606061,,,,,,,,,,,,,,,,,,,,,,,,,,,,,,,,,,,,,,,,,,,,,,,,,,,,他,e,,,e,1,0.6342,1,37,117,55,1,,
,,,,,,,,,,,,,,1,001,2024-08-23_13h26.39.008,IAT(Formal),2021.2.3,Win32,60.60606061,,,,,,,,,,,,,,,,,,,,,,,,,,,,,,,,,,,,,,,,,,,,,,,,,,,,他的,e,,,e,1,0.5916,1,38,118,57,1,,
,,,,,,,,,,,,,,1,001,2024-08-23_13h26.39.008,IAT(Formal),2021.2.3,Win32,60.60606061,,,,,,,,,,,,,,,,,,,,,,,,,,,,,,,,,,,,,,,,,,,,,,,,,,,,鲁莽,i,,,i,1,1.2512,1,39,119,38,1,,
,,,,,,,,,,,,,,1,001,2024-08-23_13h26.39.008,IAT(Formal),2021.2.3,Win32,60.60606061,,,,,,,,,,,,,,,,,,,,,,,,,,,,,,,,,,,,,,,,,,,,,,,,,,,,诚实,e,,,e,1,0.9403,1,40,120,15,1,,
,,,,,,,,,,,,,,1,001,2024-08-23_13h26.39.008,IAT(Formal),2021.2.3,Win32,60.60606061,,,,,,,,,,,,,,,,,,,,,,,,,,,,,,,,,,,,,,,,,,,,,,,,,,,,悲观,i,,,i,1,0.6162,1,41,121,34,1,,
,,,,,,,,,,,,,,1,001,2024-08-23_13h26.39.008,IAT(Formal),2021.2.3,Win32,60.60606061,,,,,,,,,,,,,,,,,,,,,,,,,,,,,,,,,,,,,,,,,,,,,,,,,,,,刻薄,i,,,i,1,1.0861,1,42,122,33,1,,
,,,,,,,,,,,,,,1,001,2024-08-23_13h26.39.008,IAT(Formal),2021.2.3,Win32,60.60606061,,,,,,,,,,,,,,,,,,,,,,,,,,,,,,,,,,,,,,,,,,,,,,,,,,,,正直,e,,,e,1,1.0389,1,43,123,16,1,,
,,,,,,,,,,,,,,1,001,2024-08-23_13h26.39.008,IAT(Formal),2021.2.3,Win32,60.60606061,,,,,,,,,,,,,,,,,,,,,,,,,,,,,,,,,,,,,,,,,,,,,,,,,,,,活泼,e,,,e,1,1.2343,1,44,124,28,1,,
,,,,,,,,,,,,,,1,001,2024-08-23_13h26.39.008,IAT(Formal),2021.2.3,Win32,60.60606061,,,,,,,,,,,,,,,,,,,,,,,,,,,,,,,,,,,,,,,,,,,,,,,,,,,,我的,i,,,,0,,1,45,125,1,1,,
,,,,,,,,,,,,,,1,001,2024-08-23_13h26.39.008,IAT(Formal),2021.2.3,Win32,60.60606061,,,,,,,,,,,,,,,,,,,,,,,,,,,,,,,,,,,,,,,,,,,,,,,,,,,,无私,e,,,e,1,1.3333,1,46,126,22,1,,
,,,,,,,,,,,,,,1,001,2024-08-23_13h26.39.008,IAT(Formal),2021.2.3,Win32,60.60606061,,,,,,,,,,,,,,,,,,,,,,,,,,,,,,,,,,,,,,,,,,,,,,,,,,,,我们,i,,,i,1,0.5561,1,47,127,72,1,,
,,,,,,,,,,,,,,1,001,2024-08-23_13h26.39.008,IAT(Formal),2021.2.3,Win32,60.60606061,,,,,,,,,,,,,,,,,,,,,,,,,,,,,,,,,,,,,,,,,,,,,,,,,,,,愚蠢,i,,,i,1,1.2994,1,48,128,32,1,,
,,,,,,,,,,,,,,1,001,2024-08-23_13h26.39.008,IAT(Formal),2021.2.3,Win32,60.60606061,,,,,,,,,,,,,,,,,,,,,,,,,,,,,,,,,,,,,,,,,,,,,,,,,,,,自己,i,,,e,0,0.5902,1,49,129,73,1,,
,,,,,,,,,,,,,,1,001,2024-08-23_13h26.39.008,IAT(Formal),2021.2.3,Win32,60.60606061,,,,,,,,,,,,,,,,,,,,,,,,,,,,,,,,,,,,,,,,,,,,,,,,,,,,俺,i,,,e,0,0.5891,1,50,130,4,1,,
,,,,,,,,,,,,,,1,001,2024-08-23_13h26.39.008,IAT(Formal),2021.2.3,Win32,60.60606061,,,,,,,,,,,,,,,,,,,,,,,,,,,,,,,,,,,,,,,,,,,,,,,,,,,,猖狂,i,,,i,1,1.1044,1,51,131,45,1,,
,,,,,,,,,,,,,,1,001,2024-08-23_13h26.39.008,IAT(Formal),2021.2.3,Win32,60.60606061,,,,,,,,,,,,,,,,,,,,,,,,,,,,,,,,,,,,,,,,,,,,,,,,,,,,我,i,,,e,0,0.5935,1,52,132,50,1,,
,,,,,,,,,,,,,,1,001,2024-08-23_13h26.39.008,IAT(Formal),2021.2.3,Win32,60.60606061,,,,,,,,,,,,,,,,,,,,,,,,,,,,,,,,,,,,,,,,,,,,,,,,,,,,我们,i,,,i,1,0.8052,1,53,133,62,1,,
,,,,,,,,,,,,,,1,001,2024-08-23_13h26.39.008,IAT(Formal),2021.2.3,Win32,60.60606061,,,,,,,,,,,,,,,,,,,,,,,,,,,,,,,,,,,,,,,,,,,,,,,,,,,,他人,e,,,e,1,1.1016,1,54,134,68,1,,
,,,,,,,,,,,,,,1,001,2024-08-23_13h26.39.008,IAT(Formal),2021.2.3,Win32,60.60606061,,,,,,,,,,,,,,,,,,,,,,,,,,,,,,,,,,,,,,,,,,,,,,,,,,,,聪明,e,,,e,1,0.8516,1,55,135,12,1,,
,,,,,,,,,,,,,,1,001,2024-08-23_13h26.39.008,IAT(Formal),2021.2.3,Win32,60.60606061,,,,,,,,,,,,,,,,,,,,,,,,,,,,,,,,,,,,,,,,,,,,,,,,,,,,野蛮,i,,,i,1,0.8918,1,56,136,46,1,,
,,,,,,,,,,,,,,1,001,2024-08-23_13h26.39.008,IAT(Formal),2021.2.3,Win32,60.60606061,,,,,,,,,,,,,,,,,,,,,,,,,,,,,,,,,,,,,,,,,,,,,,,,,,,,他,e,,,e,1,0.5659,1,57,137,75,1,,
,,,,,,,,,,,,,,1,001,2024-08-23_13h26.39.008,IAT(Formal),2021.2.3,Win32,60.60606061,,,,,,,,,,,,,,,,,,,,,,,,,,,,,,,,,,,,,,,,,,,,,,,,,,,,其他,e,,,e,1,0.8936,1,58,138,9,1,,
,,,,,,,,,,,,,,1,001,2024-08-23_13h26.39.008,IAT(Formal),2021.2.3,Win32,60.60606061,,,,,,,,,,,,,,,,,,,,,,,,,,,,,,,,,,,,,,,,,,,,,,,,,,,,消极,i,,,i,1,0.9555,1,59,139,35,1,,
,,,,,,,,,,,,,,1,001,2024-08-23_13h26.39.008,IAT(Formal),2021.2.3,Win32,60.60606061,,,,,,,,,,,,,,,,,,,,,,,,,,,,,,,,,,,,,,,,,,,,,,,,,,,,热情,e,,,e,1,0.7749,1,60,140,27,1,,
,,,,,,,,,,,,,,1,001,2024-08-23_13h26.39.008,IAT(Formal),2021.2.3,Win32,60.60606061,,,,,,,,,,,,,,,,,,,,,,,,,,,,,,,,,,,,,,,,,,,,,,,,,,,,他人,e,,,e,1,0.5209,1,61,141,8,1,,
,,,,,,,,,,,,,,1,001,2024-08-23_13h26.39.008,IAT(Formal),2021.2.3,Win32,60.60606061,,,,,,,,,,,,,,,,,,,,,,,,,,,,,,,,,,,,,,,,,,,,,,,,,,,,诚恳,e,,,e,1,0.817,1,62,142,29,1,,
,,,,,,,,,,,,,,1,001,2024-08-23_13h26.39.008,IAT(Formal),2021.2.3,Win32,60.60606061,,,,,,,,,,,,,,,,,,,,,,,,,,,,,,,,,,,,,,,,,,,,,,,,,,,,他们,e,,,e,1,0.4677,1,63,143,56,1,,
,,,,,,,,,,,,,,1,001,2024-08-23_13h26.39.008,IAT(Formal),2021.2.3,Win32,60.60606061,,,,,,,,,,,,,,,,,,,,,,,,,,,,,,,,,,,,,,,,,,,,,,,,,,,,他,e,,,e,1,0.4009,1,64,144,5,1,,
,,,,,,,,,,,,,,1,001,2024-08-23_13h26.39.008,IAT(Formal),2021.2.3,Win32,60.60606061,,,,,,,,,,,,,,,,,,,,,,,,,,,,,,,,,,,,,,,,,,,,,,,,,,,,虚伪,i,,,i,1,0.5562,1,65,145,31,1,,
,,,,,,,,,,,,,,1,001,2024-08-23_13h26.39.008,IAT(Formal),2021.2.3,Win32,60.60606061,,,,,,,,,,,,,,,,,,,,,,,,,,,,,,,,,,,,,,,,,,,,,,,,,,,,他的,e,,,e,1,0.7664,1,66,146,7,1,,
,,,,,,,,,,,,,,1,001,2024-08-23_13h26.39.008,IAT(Formal),2021.2.3,Win32,60.60606061,,,,,,,,,,,,,,,,,,,,,,,,,,,,,,,,,,,,,,,,,,,,,,,,,,,,我的,i,,,e,0,0.76,1,67,147,71,1,,
,,,,,,,,,,,,,,1,001,2024-08-23_13h26.39.008,IAT(Formal),2021.2.3,Win32,60.60606061,,,,,,,,,,,,,,,,,,,,,,,,,,,,,,,,,,,,,,,,,,,,,,,,,,,,傲慢,i,,,i,1,0.758,1,68,148,37,1,,
,,,,,,,,,,,,,,1,001,2024-08-23_13h26.39.008,IAT(Formal),2021.2.3,Win32,60.60606061,,,,,,,,,,,,,,,,,,,,,,,,,,,,,,,,,,,,,,,,,,,,,,,,,,,,我的,i,,,e,0,0.6174,1,69,149,51,1,,
,,,,,,,,,,,,,,1,001,2024-08-23_13h26.39.008,IAT(Formal),2021.2.3,Win32,60.60606061,,,,,,,,,,,,,,,,,,,,,,,,,,,,,,,,,,,,,,,,,,,,,,,,,,,,暴躁,i,,,i,1,0.7098,1,70,150,44,1,,
,,,,,,,,,,,,,,1,001,2024-08-23_13h26.39.008,IAT(Formal),2021.2.3,Win32,60.60606061,,,,,,,,,,,,,,,,,,,,,,,,,,,,,,,,,,,,,,,,,,,,,,,,,,,,散漫,i,,,i,1,0.8853,1,71,151,41,1,,
,,,,,,,,,,,,,,1,001,2024-08-23_13h26.39.008,IAT(Formal),2021.2.3,Win32,60.60606061,,,,,,,,,,,,,,,,,,,,,,,,,,,,,,,,,,,,,,,,,,,,,,,,,,,,我,i,,,i,1,1.2713,1,72,152,60,1,,
,,,,,,,,,,,,,,1,001,2024-08-23_13h26.39.008,IAT(Formal),2021.2.3,Win32,60.60606061,,,,,,,,,,,,,,,,,,,,,,,,,,,,,,,,,,,,,,,,,,,,,,,,,,,,他人,e,,,e,1,1.2383,1,73,153,78,1,,
,,,,,,,,,,,,,,1,001,2024-08-23_13h26.39.008,IAT(Formal),2021.2.3,Win32,60.60606061,,,,,,,,,,,,,,,,,,,,,,,,,,,,,,,,,,,,,,,,,,,,,,,,,,,,其他,e,,,i,0,1.034,1,74,154,69,1,,
,,,,,,,,,,,,,,1,001,2024-08-23_13h26.39.008,IAT(Formal),2021.2.3,Win32,60.60606061,,,,,,,,,,,,,,,,,,,,,,,,,,,,,,,,,,,,,,,,,,,,,,,,,,,,下贱,i,,,i,1,1.4016,1,75,155,49,1,,
,,,,,,,,,,,,,,1,001,2024-08-23_13h26.39.008,IAT(Formal),2021.2.3,Win32,60.60606061,,,,,,,,,,,,,,,,,,,,,,,,,,,,,,,,,,,,,,,,,,,,,,,,,,,,乐观,e,,,e,1,0.7615,1,76,156,14,1,,
,,,,,,,,,,,,,,1,001,2024-08-23_13h26.39.008,IAT(Formal),2021.2.3,Win32,60.60606061,,,,,,,,,,,,,,,,,,,,,,,,,,,,,,,,,,,,,,,,,,,,,,,,,,,,崇高,e,,,e,1,0.6359,1,77,157,11,1,,
,,,,,,,,,,,,,,1,001,2024-08-23_13h26.39.008,IAT(Formal),2021.2.3,Win32,60.60606061,,,,,,,,,,,,,,,,,,,,,,,,,,,,,,,,,,,,,,,,,,,,,,,,,,,,勇敢,e,,,e,1,1.0834,1,78,158,17,1,,
,,,,,,,,,,,,,,1,001,2024-08-23_13h26.39.008,IAT(Formal),2021.2.3,Win32,60.60606061,,,,,,,,,,,,,,,,,,,,,,,,,,,,,,,,,,,,,,,,,,,,,,,,,,,,杰出,e,,,e,1,0.684,1,79,159,13,1,,
,,,,,,,,,,,,,,1,001,2024-08-23_13h26.39.008,IAT(Formal),2021.2.3,Win32,60.60606061,,,,,,,,,,,,,,,,,,,,,,,,,,,,,,,,,,,,,,,,,,,,,,,,,,,,,,,,,,,,,,,,space,2.2438