﻿Instruction1.keys,Instruction1.rt,Instruction2.keys,Instruction2.rt,key_resp_iso.keys,key_resp_iso.corr,key_resp_iso.rt,Practice_01.thisRepN,Practice_01.thisTrialN,Practice_01.thisN,Practice_01.thisIndex,Practice_01.ran,Words,ans,participant,session,date,expName,psychopyVersion,OS,frameRate,key_resp_3.keys,key_resp_3.rt,key_resp_ipn.keys,key_resp_ipn.corr,key_resp_ipn.rt,Practice_02.thisRepN,Practice_02.thisTrialN,Practice_02.thisN,Practice_02.thisIndex,Practice_02.ran,Words_ipn,ans_ipn,key_resp_4.keys,key_resp_4.rt,key_resp_t1.keys,key_resp_t1.corr,key_resp_t1.rt,Practice_T1.thisRepN,Practice_T1.thisTrialN,Practice_T1.thisN,Practice_T1.thisIndex,Practice_T1.ran,Words_t1,ans_t1,key_resp_5.keys,key_resp_5.rt,Formal_T1.thisRepN,Formal_T1.thisTrialN,Formal_T1.thisN,Formal_T1.thisIndex,Formal_T1.ran,key_resp_6.keys,key_resp_6.rt,key_resp_iso_reverse.keys,key_resp_iso_reverse.corr,key_resp_iso_reverse.rt,Practice_iso_Reverse.thisRepN,Practice_iso_Reverse.thisTrialN,Practice_iso_Reverse.thisN,Practice_iso_Reverse.thisIndex,Practice_iso_Reverse.ran,key_resp_7.keys,key_resp_7.rt,key_resp_t2_Practice.keys,key_resp_t2_Practice.corr,key_resp_t2_Practice.rt,Practice_t2_Reverse.thisRepN,Practice_t2_Reverse.thisTrialN,Practice_t2_Reverse.thisN,Practice_t2_Reverse.thisIndex,Practice_t2_Reverse.ran,Words_t2,ans_t2,key_resp_8.keys,key_resp_8.rt,key_resp_t2.keys,key_resp_t2.corr,key_resp_t2.rt,Formal_t2_reverse.thisRepN,Formal_t2_reverse.thisTrialN,Formal_t2_reverse.thisN,Formal_t2_reverse.thisIndex,Formal_t2_reverse.ran,key_instruct.keys,key_instruct.rt
space,2.2543,space,6.3827,i,0,0.7006,0,0,0,4,1,俺,e,1,001,2024-09-04_10h06.38.900,IAT(Formal),2021.2.3,Win32,60.24096386,,,,,,,,,,,,,,,,,,,,,,,,,,,,,,,,,,,,,,,,,,,,,,,,,,,,,,,,,,,,,,,,,
,,,,e,1,0.7039,0,1,1,0,1,我,e,1,001,2024-09-04_10h06.38.900,IAT(Formal),2021.2.3,Win32,60.24096386,,,,,,,,,,,,,,,,,,,,,,,,,,,,,,,,,,,,,,,,,,,,,,,,,,,,,,,,,,,,,,,,,
,,,,e,1,0.4975,0,2,2,1,1,我的,e,1,001,2024-09-04_10h06.38.900,IAT(Formal),2021.2.3,Win32,60.24096386,,,,,,,,,,,,,,,,,,,,,,,,,,,,,,,,,,,,,,,,,,,,,,,,,,,,,,,,,,,,,,,,,
,,,,i,1,0.4618,0,3,3,9,1,其他,i,1,001,2024-09-04_10h06.38.900,IAT(Formal),2021.2.3,Win32,60.24096386,,,,,,,,,,,,,,,,,,,,,,,,,,,,,,,,,,,,,,,,,,,,,,,,,,,,,,,,,,,,,,,,,
,,,,e,1,0.4884,0,4,4,3,1,自己,e,1,001,2024-09-04_10h06.38.900,IAT(Formal),2021.2.3,Win32,60.24096386,,,,,,,,,,,,,,,,,,,,,,,,,,,,,,,,,,,,,,,,,,,,,,,,,,,,,,,,,,,,,,,,,
,,,,i,1,0.5749,0,5,5,6,1,他们,i,1,001,2024-09-04_10h06.38.900,IAT(Formal),2021.2.3,Win32,60.24096386,,,,,,,,,,,,,,,,,,,,,,,,,,,,,,,,,,,,,,,,,,,,,,,,,,,,,,,,,,,,,,,,,
,,,,e,1,0.5479,0,6,6,2,1,我们,e,1,001,2024-09-04_10h06.38.900,IAT(Formal),2021.2.3,Win32,60.24096386,,,,,,,,,,,,,,,,,,,,,,,,,,,,,,,,,,,,,,,,,,,,,,,,,,,,,,,,,,,,,,,,,
,,,,i,1,0.4961,0,7,7,7,1,他的,i,1,001,2024-09-04_10h06.38.900,IAT(Formal),2021.2.3,Win32,60.24096386,,,,,,,,,,,,,,,,,,,,,,,,,,,,,,,,,,,,,,,,,,,,,,,,,,,,,,,,,,,,,,,,,
,,,,i,1,0.5075,0,8,8,5,1,他,i,1,001,2024-09-04_10h06.38.900,IAT(Formal),2021.2.3,Win32,60.24096386,,,,,,,,,,,,,,,,,,,,,,,,,,,,,,,,,,,,,,,,,,,,,,,,,,,,,,,,,,,,,,,,,
,,,,i,1,0.4688,0,9,9,8,1,他人,i,1,001,2024-09-04_10h06.38.900,IAT(Formal),2021.2.3,Win32,60.24096386,,,,,,,,,,,,,,,,,,,,,,,,,,,,,,,,,,,,,,,,,,,,,,,,,,,,,,,,,,,,,,,,,
,,,,,,,,,,,,,,1,001,2024-09-04_10h06.38.900,IAT(Formal),2021.2.3,Win32,60.24096386,space,4.4205,e,1,0.4627,0,0,0,9,1,机智,e,,,,,,,,,,,,,,,,,,,,,,,,,,,,,,,,,,,,,,,,,,,,,,,,,,,,,
,,,,,,,,,,,,,,1,001,2024-09-04_10h06.38.900,IAT(Formal),2021.2.3,Win32,60.24096386,,,i,1,0.4679,0,1,1,37,1,固执,i,,,,,,,,,,,,,,,,,,,,,,,,,,,,,,,,,,,,,,,,,,,,,,,,,,,,,
,,,,,,,,,,,,,,1,001,2024-09-04_10h06.38.900,IAT(Formal),2021.2.3,Win32,60.24096386,,,i,1,0.425,0,2,2,29,1,冒失,i,,,,,,,,,,,,,,,,,,,,,,,,,,,,,,,,,,,,,,,,,,,,,,,,,,,,,
,,,,,,,,,,,,,,1,001,2024-09-04_10h06.38.900,IAT(Formal),2021.2.3,Win32,60.24096386,,,i,0,0.4297,0,3,3,15,1,细腻,e,,,,,,,,,,,,,,,,,,,,,,,,,,,,,,,,,,,,,,,,,,,,,,,,,,,,,
,,,,,,,,,,,,,,1,001,2024-09-04_10h06.38.900,IAT(Formal),2021.2.3,Win32,60.24096386,,,e,1,0.6378,0,4,4,1,1,崇高,e,,,,,,,,,,,,,,,,,,,,,,,,,,,,,,,,,,,,,,,,,,,,,,,,,,,,,
,,,,,,,,,,,,,,1,001,2024-09-04_10h06.38.900,IAT(Formal),2021.2.3,Win32,60.24096386,,,e,1,0.658,0,5,5,19,1,诚恳,e,,,,,,,,,,,,,,,,,,,,,,,,,,,,,,,,,,,,,,,,,,,,,,,,,,,,,
,,,,,,,,,,,,,,1,001,2024-09-04_10h06.38.900,IAT(Formal),2021.2.3,Win32,60.24096386,,,e,1,0.6838,0,6,6,16,1,冷静,e,,,,,,,,,,,,,,,,,,,,,,,,,,,,,,,,,,,,,,,,,,,,,,,,,,,,,
,,,,,,,,,,,,,,1,001,2024-09-04_10h06.38.900,IAT(Formal),2021.2.3,Win32,60.24096386,,,e,1,0.4737,0,7,7,2,1,聪明,e,,,,,,,,,,,,,,,,,,,,,,,,,,,,,,,,,,,,,,,,,,,,,,,,,,,,,
,,,,,,,,,,,,,,1,001,2024-09-04_10h06.38.900,IAT(Formal),2021.2.3,Win32,60.24096386,,,e,1,0.4745,0,8,8,17,1,热情,e,,,,,,,,,,,,,,,,,,,,,,,,,,,,,,,,,,,,,,,,,,,,,,,,,,,,,
,,,,,,,,,,,,,,1,001,2024-09-04_10h06.38.900,IAT(Formal),2021.2.3,Win32,60.24096386,,,e,1,0.5344,0,9,9,13,1,公正,e,,,,,,,,,,,,,,,,,,,,,,,,,,,,,,,,,,,,,,,,,,,,,,,,,,,,,
,,,,,,,,,,,,,,1,001,2024-09-04_10h06.38.900,IAT(Formal),2021.2.3,Win32,60.24096386,,,i,1,0.5394,0,10,10,35,1,猖狂,i,,,,,,,,,,,,,,,,,,,,,,,,,,,,,,,,,,,,,,,,,,,,,,,,,,,,,
,,,,,,,,,,,,,,1,001,2024-09-04_10h06.38.900,IAT(Formal),2021.2.3,Win32,60.24096386,,,e,1,0.4316,0,11,11,3,1,杰出,e,,,,,,,,,,,,,,,,,,,,,,,,,,,,,,,,,,,,,,,,,,,,,,,,,,,,,
,,,,,,,,,,,,,,1,001,2024-09-04_10h06.38.900,IAT(Formal),2021.2.3,Win32,60.24096386,,,i,1,0.5526,0,12,12,34,1,暴躁,i,,,,,,,,,,,,,,,,,,,,,,,,,,,,,,,,,,,,,,,,,,,,,,,,,,,,,
,,,,,,,,,,,,,,1,001,2024-09-04_10h06.38.900,IAT(Formal),2021.2.3,Win32,60.24096386,,,i,1,0.6414,0,13,13,30,1,执拗,i,,,,,,,,,,,,,,,,,,,,,,,,,,,,,,,,,,,,,,,,,,,,,,,,,,,,,
,,,,,,,,,,,,,,1,001,2024-09-04_10h06.38.900,IAT(Formal),2021.2.3,Win32,60.24096386,,,i,1,0.7276,0,14,14,31,1,散漫,i,,,,,,,,,,,,,,,,,,,,,,,,,,,,,,,,,,,,,,,,,,,,,,,,,,,,,
,,,,,,,,,,,,,,1,001,2024-09-04_10h06.38.900,IAT(Formal),2021.2.3,Win32,60.24096386,,,i,0,0.4673,0,15,15,12,1,无私,e,,,,,,,,,,,,,,,,,,,,,,,,,,,,,,,,,,,,,,,,,,,,,,,,,,,,,
,,,,,,,,,,,,,,1,001,2024-09-04_10h06.38.900,IAT(Formal),2021.2.3,Win32,60.24096386,,,i,1,0.5865,0,16,16,36,1,野蛮,i,,,,,,,,,,,,,,,,,,,,,,,,,,,,,,,,,,,,,,,,,,,,,,,,,,,,,
,,,,,,,,,,,,,,1,001,2024-09-04_10h06.38.900,IAT(Formal),2021.2.3,Win32,60.24096386,,,i,1,0.5994,0,17,17,39,1,下贱,i,,,,,,,,,,,,,,,,,,,,,,,,,,,,,,,,,,,,,,,,,,,,,,,,,,,,,
,,,,,,,,,,,,,,1,001,2024-09-04_10h06.38.900,IAT(Formal),2021.2.3,Win32,60.24096386,,,i,1,0.6309,0,18,18,23,1,刻薄,i,,,,,,,,,,,,,,,,,,,,,,,,,,,,,,,,,,,,,,,,,,,,,,,,,,,,,
,,,,,,,,,,,,,,1,001,2024-09-04_10h06.38.900,IAT(Formal),2021.2.3,Win32,60.24096386,,,i,1,0.6051,0,19,19,28,1,鲁莽,i,,,,,,,,,,,,,,,,,,,,,,,,,,,,,,,,,,,,,,,,,,,,,,,,,,,,,
,,,,,,,,,,,,,,1,001,2024-09-04_10h06.38.900,IAT(Formal),2021.2.3,Win32,60.24096386,,,e,1,0.5221,0,20,20,0,1,优秀,e,,,,,,,,,,,,,,,,,,,,,,,,,,,,,,,,,,,,,,,,,,,,,,,,,,,,,
,,,,,,,,,,,,,,1,001,2024-09-04_10h06.38.900,IAT(Formal),2021.2.3,Win32,60.24096386,,,e,1,0.5296,0,21,21,6,1,正直,e,,,,,,,,,,,,,,,,,,,,,,,,,,,,,,,,,,,,,,,,,,,,,,,,,,,,,
,,,,,,,,,,,,,,1,001,2024-09-04_10h06.38.900,IAT(Formal),2021.2.3,Win32,60.24096386,,,i,1,0.6485,0,22,22,22,1,愚蠢,i,,,,,,,,,,,,,,,,,,,,,,,,,,,,,,,,,,,,,,,,,,,,,,,,,,,,,
,,,,,,,,,,,,,,1,001,2024-09-04_10h06.38.900,IAT(Formal),2021.2.3,Win32,60.24096386,,,i,1,0.576,0,23,23,21,1,虚伪,i,,,,,,,,,,,,,,,,,,,,,,,,,,,,,,,,,,,,,,,,,,,,,,,,,,,,,
,,,,,,,,,,,,,,1,001,2024-09-04_10h06.38.900,IAT(Formal),2021.2.3,Win32,60.24096386,,,i,1,0.9403,0,24,24,25,1,消极,i,,,,,,,,,,,,,,,,,,,,,,,,,,,,,,,,,,,,,,,,,,,,,,,,,,,,,
,,,,,,,,,,,,,,1,001,2024-09-04_10h06.38.900,IAT(Formal),2021.2.3,Win32,60.24096386,,,e,1,0.5979,0,25,25,7,1,勇敢,e,,,,,,,,,,,,,,,,,,,,,,,,,,,,,,,,,,,,,,,,,,,,,,,,,,,,,
,,,,,,,,,,,,,,1,001,2024-09-04_10h06.38.900,IAT(Formal),2021.2.3,Win32,60.24096386,,,i,1,0.6026,0,26,26,20,1,卑鄙,i,,,,,,,,,,,,,,,,,,,,,,,,,,,,,,,,,,,,,,,,,,,,,,,,,,,,,
,,,,,,,,,,,,,,1,001,2024-09-04_10h06.38.900,IAT(Formal),2021.2.3,Win32,60.24096386,,,e,1,0.6122,0,27,27,5,1,诚实,e,,,,,,,,,,,,,,,,,,,,,,,,,,,,,,,,,,,,,,,,,,,,,,,,,,,,,
,,,,,,,,,,,,,,1,001,2024-09-04_10h06.38.900,IAT(Formal),2021.2.3,Win32,60.24096386,,,i,1,0.5571,0,28,28,32,1,凶狠,i,,,,,,,,,,,,,,,,,,,,,,,,,,,,,,,,,,,,,,,,,,,,,,,,,,,,,
,,,,,,,,,,,,,,1,001,2024-09-04_10h06.38.900,IAT(Formal),2021.2.3,Win32,60.24096386,,,e,1,0.4896,0,29,29,8,1,勤奋,e,,,,,,,,,,,,,,,,,,,,,,,,,,,,,,,,,,,,,,,,,,,,,,,,,,,,,
,,,,,,,,,,,,,,1,001,2024-09-04_10h06.38.900,IAT(Formal),2021.2.3,Win32,60.24096386,,,i,1,0.8249,0,30,30,24,1,悲观,i,,,,,,,,,,,,,,,,,,,,,,,,,,,,,,,,,,,,,,,,,,,,,,,,,,,,,
,,,,,,,,,,,,,,1,001,2024-09-04_10h06.38.900,IAT(Formal),2021.2.3,Win32,60.24096386,,,e,1,0.7904,0,31,31,14,1,朴实,e,,,,,,,,,,,,,,,,,,,,,,,,,,,,,,,,,,,,,,,,,,,,,,,,,,,,,
,,,,,,,,,,,,,,1,001,2024-09-04_10h06.38.900,IAT(Formal),2021.2.3,Win32,60.24096386,,,e,1,0.5015,0,32,32,4,1,乐观,e,,,,,,,,,,,,,,,,,,,,,,,,,,,,,,,,,,,,,,,,,,,,,,,,,,,,,
,,,,,,,,,,,,,,1,001,2024-09-04_10h06.38.900,IAT(Formal),2021.2.3,Win32,60.24096386,,,e,1,0.5669,0,33,33,10,1,认真,e,,,,,,,,,,,,,,,,,,,,,,,,,,,,,,,,,,,,,,,,,,,,,,,,,,,,,
,,,,,,,,,,,,,,1,001,2024-09-04_10h06.38.900,IAT(Formal),2021.2.3,Win32,60.24096386,,,e,1,0.6891,0,34,34,18,1,活泼,e,,,,,,,,,,,,,,,,,,,,,,,,,,,,,,,,,,,,,,,,,,,,,,,,,,,,,
,,,,,,,,,,,,,,1,001,2024-09-04_10h06.38.900,IAT(Formal),2021.2.3,Win32,60.24096386,,,e,1,0.7302,0,35,35,11,1,稳重,e,,,,,,,,,,,,,,,,,,,,,,,,,,,,,,,,,,,,,,,,,,,,,,,,,,,,,
,,,,,,,,,,,,,,1,001,2024-09-04_10h06.38.900,IAT(Formal),2021.2.3,Win32,60.24096386,,,i,1,0.8295,0,36,36,38,1,轻率,i,,,,,,,,,,,,,,,,,,,,,,,,,,,,,,,,,,,,,,,,,,,,,,,,,,,,,
,,,,,,,,,,,,,,1,001,2024-09-04_10h06.38.900,IAT(Formal),2021.2.3,Win32,60.24096386,,,i,1,0.5786,0,37,37,27,1,傲慢,i,,,,,,,,,,,,,,,,,,,,,,,,,,,,,,,,,,,,,,,,,,,,,,,,,,,,,
,,,,,,,,,,,,,,1,001,2024-09-04_10h06.38.900,IAT(Formal),2021.2.3,Win32,60.24096386,,,e,0,0.8334,0,38,38,33,1,自私,i,,,,,,,,,,,,,,,,,,,,,,,,,,,,,,,,,,,,,,,,,,,,,,,,,,,,,
,,,,,,,,,,,,,,1,001,2024-09-04_10h06.38.900,IAT(Formal),2021.2.3,Win32,60.24096386,,,i,1,0.8966,0,39,39,26,1,自卑,i,,,,,,,,,,,,,,,,,,,,,,,,,,,,,,,,,,,,,,,,,,,,,,,,,,,,,
,,,,,,,,,,,,,,1,001,2024-09-04_10h06.38.900,IAT(Formal),2021.2.3,Win32,60.24096386,,,,,,,,,,,,,space,10.2798,i,1,0.7484,0,0,0,79,1,其他,i,,,,,,,,,,,,,,,,,,,,,,,,,,,,,,,,,,,,,,,,,
,,,,,,,,,,,,,,1,001,2024-09-04_10h06.38.900,IAT(Formal),2021.2.3,Win32,60.24096386,,,,,,,,,,,,,,,i,1,0.5809,0,1,1,58,1,他人,i,,,,,,,,,,,,,,,,,,,,,,,,,,,,,,,,,,,,,,,,,
,,,,,,,,,,,,,,1,001,2024-09-04_10h06.38.900,IAT(Formal),2021.2.3,Win32,60.24096386,,,,,,,,,,,,,,,i,1,0.6816,0,2,2,48,1,轻率,i,,,,,,,,,,,,,,,,,,,,,,,,,,,,,,,,,,,,,,,,,
,,,,,,,,,,,,,,1,001,2024-09-04_10h06.38.900,IAT(Formal),2021.2.3,Win32,60.24096386,,,,,,,,,,,,,,,i,1,0.5658,0,3,3,44,1,暴躁,i,,,,,,,,,,,,,,,,,,,,,,,,,,,,,,,,,,,,,,,,,
,,,,,,,,,,,,,,1,001,2024-09-04_10h06.38.900,IAT(Formal),2021.2.3,Win32,60.24096386,,,,,,,,,,,,,,,i,1,0.5491,0,4,4,33,1,刻薄,i,,,,,,,,,,,,,,,,,,,,,,,,,,,,,,,,,,,,,,,,,
,,,,,,,,,,,,,,1,001,2024-09-04_10h06.38.900,IAT(Formal),2021.2.3,Win32,60.24096386,,,,,,,,,,,,,,,i,1,0.6474,0,5,5,68,1,他人,i,,,,,,,,,,,,,,,,,,,,,,,,,,,,,,,,,,,,,,,,,
,,,,,,,,,,,,,,1,001,2024-09-04_10h06.38.900,IAT(Formal),2021.2.3,Win32,60.24096386,,,,,,,,,,,,,,,i,1,0.5302,0,6,6,59,1,其他,i,,,,,,,,,,,,,,,,,,,,,,,,,,,,,,,,,,,,,,,,,
,,,,,,,,,,,,,,1,001,2024-09-04_10h06.38.900,IAT(Formal),2021.2.3,Win32,60.24096386,,,,,,,,,,,,,,,e,1,0.4341,0,7,7,60,1,我,e,,,,,,,,,,,,,,,,,,,,,,,,,,,,,,,,,,,,,,,,,
,,,,,,,,,,,,,,1,001,2024-09-04_10h06.38.900,IAT(Formal),2021.2.3,Win32,60.24096386,,,,,,,,,,,,,,,e,1,0.6285,0,8,8,15,1,诚实,e,,,,,,,,,,,,,,,,,,,,,,,,,,,,,,,,,,,,,,,,,
,,,,,,,,,,,,,,1,001,2024-09-04_10h06.38.900,IAT(Formal),2021.2.3,Win32,60.24096386,,,,,,,,,,,,,,,i,1,0.5964,0,9,9,9,1,其他,i,,,,,,,,,,,,,,,,,,,,,,,,,,,,,,,,,,,,,,,,,
,,,,,,,,,,,,,,1,001,2024-09-04_10h06.38.900,IAT(Formal),2021.2.3,Win32,60.24096386,,,,,,,,,,,,,,,e,1,0.5161,0,10,10,28,1,活泼,e,,,,,,,,,,,,,,,,,,,,,,,,,,,,,,,,,,,,,,,,,
,,,,,,,,,,,,,,1,001,2024-09-04_10h06.38.900,IAT(Formal),2021.2.3,Win32,60.24096386,,,,,,,,,,,,,,,i,1,0.5387,0,11,11,37,1,傲慢,i,,,,,,,,,,,,,,,,,,,,,,,,,,,,,,,,,,,,,,,,,
,,,,,,,,,,,,,,1,001,2024-09-04_10h06.38.900,IAT(Formal),2021.2.3,Win32,60.24096386,,,,,,,,,,,,,,,i,1,0.5316,0,12,12,69,1,其他,i,,,,,,,,,,,,,,,,,,,,,,,,,,,,,,,,,,,,,,,,,
,,,,,,,,,,,,,,1,001,2024-09-04_10h06.38.900,IAT(Formal),2021.2.3,Win32,60.24096386,,,,,,,,,,,,,,,e,1,0.4271,0,13,13,70,1,我,e,,,,,,,,,,,,,,,,,,,,,,,,,,,,,,,,,,,,,,,,,
,,,,,,,,,,,,,,1,001,2024-09-04_10h06.38.900,IAT(Formal),2021.2.3,Win32,60.24096386,,,,,,,,,,,,,,,e,1,0.444,0,14,14,10,1,优秀,e,,,,,,,,,,,,,,,,,,,,,,,,,,,,,,,,,,,,,,,,,
,,,,,,,,,,,,,,1,001,2024-09-04_10h06.38.900,IAT(Formal),2021.2.3,Win32,60.24096386,,,,,,,,,,,,,,,i,1,0.5988,0,15,15,35,1,消极,i,,,,,,,,,,,,,,,,,,,,,,,,,,,,,,,,,,,,,,,,,
,,,,,,,,,,,,,,1,001,2024-09-04_10h06.38.900,IAT(Formal),2021.2.3,Win32,60.24096386,,,,,,,,,,,,,,,e,1,0.9485,0,16,16,26,1,冷静,e,,,,,,,,,,,,,,,,,,,,,,,,,,,,,,,,,,,,,,,,,
,,,,,,,,,,,,,,1,001,2024-09-04_10h06.38.900,IAT(Formal),2021.2.3,Win32,60.24096386,,,,,,,,,,,,,,,e,1,0.5808,0,17,17,27,1,热情,e,,,,,,,,,,,,,,,,,,,,,,,,,,,,,,,,,,,,,,,,,
,,,,,,,,,,,,,,1,001,2024-09-04_10h06.38.900,IAT(Formal),2021.2.3,Win32,60.24096386,,,,,,,,,,,,,,,e,1,0.5398,0,18,18,51,1,我的,e,,,,,,,,,,,,,,,,,,,,,,,,,,,,,,,,,,,,,,,,,
,,,,,,,,,,,,,,1,001,2024-09-04_10h06.38.900,IAT(Formal),2021.2.3,Win32,60.24096386,,,,,,,,,,,,,,,e,1,0.8805,0,19,19,74,1,俺,e,,,,,,,,,,,,,,,,,,,,,,,,,,,,,,,,,,,,,,,,,
,,,,,,,,,,,,,,1,001,2024-09-04_10h06.38.900,IAT(Formal),2021.2.3,Win32,60.24096386,,,,,,,,,,,,,,,i,1,0.5469,0,20,20,32,1,愚蠢,i,,,,,,,,,,,,,,,,,,,,,,,,,,,,,,,,,,,,,,,,,
,,,,,,,,,,,,,,1,001,2024-09-04_10h06.38.900,IAT(Formal),2021.2.3,Win32,60.24096386,,,,,,,,,,,,,,,e,1,0.4164,0,21,21,0,1,我,e,,,,,,,,,,,,,,,,,,,,,,,,,,,,,,,,,,,,,,,,,
,,,,,,,,,,,,,,1,001,2024-09-04_10h06.38.900,IAT(Formal),2021.2.3,Win32,60.24096386,,,,,,,,,,,,,,,e,1,0.4927,0,22,22,1,1,我的,e,,,,,,,,,,,,,,,,,,,,,,,,,,,,,,,,,,,,,,,,,
,,,,,,,,,,,,,,1,001,2024-09-04_10h06.38.900,IAT(Formal),2021.2.3,Win32,60.24096386,,,,,,,,,,,,,,,i,1,0.5276,0,23,23,47,1,固执,i,,,,,,,,,,,,,,,,,,,,,,,,,,,,,,,,,,,,,,,,,
,,,,,,,,,,,,,,1,001,2024-09-04_10h06.38.900,IAT(Formal),2021.2.3,Win32,60.24096386,,,,,,,,,,,,,,,i,1,0.6245,0,24,24,67,1,他的,i,,,,,,,,,,,,,,,,,,,,,,,,,,,,,,,,,,,,,,,,,
,,,,,,,,,,,,,,1,001,2024-09-04_10h06.38.900,IAT(Formal),2021.2.3,Win32,60.24096386,,,,,,,,,,,,,,,i,1,0.6166,0,25,25,41,1,散漫,i,,,,,,,,,,,,,,,,,,,,,,,,,,,,,,,,,,,,,,,,,
,,,,,,,,,,,,,,1,001,2024-09-04_10h06.38.900,IAT(Formal),2021.2.3,Win32,60.24096386,,,,,,,,,,,,,,,e,1,0.55,0,26,26,64,1,俺,e,,,,,,,,,,,,,,,,,,,,,,,,,,,,,,,,,,,,,,,,,
,,,,,,,,,,,,,,1,001,2024-09-04_10h06.38.900,IAT(Formal),2021.2.3,Win32,60.24096386,,,,,,,,,,,,,,,i,1,0.6236,0,27,27,6,1,他们,i,,,,,,,,,,,,,,,,,,,,,,,,,,,,,,,,,,,,,,,,,
,,,,,,,,,,,,,,1,001,2024-09-04_10h06.38.900,IAT(Formal),2021.2.3,Win32,60.24096386,,,,,,,,,,,,,,,e,1,0.4572,0,28,28,53,1,自己,e,,,,,,,,,,,,,,,,,,,,,,,,,,,,,,,,,,,,,,,,,
,,,,,,,,,,,,,,1,001,2024-09-04_10h06.38.900,IAT(Formal),2021.2.3,Win32,60.24096386,,,,,,,,,,,,,,,e,1,0.7127,0,29,29,14,1,乐观,e,,,,,,,,,,,,,,,,,,,,,,,,,,,,,,,,,,,,,,,,,
,,,,,,,,,,,,,,1,001,2024-09-04_10h06.38.900,IAT(Formal),2021.2.3,Win32,60.24096386,,,,,,,,,,,,,,,i,1,0.5552,0,30,30,34,1,悲观,i,,,,,,,,,,,,,,,,,,,,,,,,,,,,,,,,,,,,,,,,,
,,,,,,,,,,,,,,1,001,2024-09-04_10h06.38.900,IAT(Formal),2021.2.3,Win32,60.24096386,,,,,,,,,,,,,,,e,1,0.4276,0,31,31,72,1,我们,e,,,,,,,,,,,,,,,,,,,,,,,,,,,,,,,,,,,,,,,,,
,,,,,,,,,,,,,,1,001,2024-09-04_10h06.38.900,IAT(Formal),2021.2.3,Win32,60.24096386,,,,,,,,,,,,,,,i,1,0.6196,0,32,32,7,1,他的,i,,,,,,,,,,,,,,,,,,,,,,,,,,,,,,,,,,,,,,,,,
,,,,,,,,,,,,,,1,001,2024-09-04_10h06.38.900,IAT(Formal),2021.2.3,Win32,60.24096386,,,,,,,,,,,,,,,i,1,0.5367,0,33,33,31,1,虚伪,i,,,,,,,,,,,,,,,,,,,,,,,,,,,,,,,,,,,,,,,,,
,,,,,,,,,,,,,,1,001,2024-09-04_10h06.38.900,IAT(Formal),2021.2.3,Win32,60.24096386,,,,,,,,,,,,,,,e,0,0.388,0,34,34,66,1,他们,i,,,,,,,,,,,,,,,,,,,,,,,,,,,,,,,,,,,,,,,,,
,,,,,,,,,,,,,,1,001,2024-09-04_10h06.38.900,IAT(Formal),2021.2.3,Win32,60.24096386,,,,,,,,,,,,,,,e,1,0.4154,0,35,35,2,1,我们,e,,,,,,,,,,,,,,,,,,,,,,,,,,,,,,,,,,,,,,,,,
,,,,,,,,,,,,,,1,001,2024-09-04_10h06.38.900,IAT(Formal),2021.2.3,Win32,60.24096386,,,,,,,,,,,,,,,e,0,0.403,0,36,36,76,1,他们,i,,,,,,,,,,,,,,,,,,,,,,,,,,,,,,,,,,,,,,,,,
,,,,,,,,,,,,,,1,001,2024-09-04_10h06.38.900,IAT(Formal),2021.2.3,Win32,60.24096386,,,,,,,,,,,,,,,i,1,0.5882,0,37,37,75,1,他,i,,,,,,,,,,,,,,,,,,,,,,,,,,,,,,,,,,,,,,,,,
,,,,,,,,,,,,,,1,001,2024-09-04_10h06.38.900,IAT(Formal),2021.2.3,Win32,60.24096386,,,,,,,,,,,,,,,e,1,0.6844,0,38,38,3,1,自己,e,,,,,,,,,,,,,,,,,,,,,,,,,,,,,,,,,,,,,,,,,
,,,,,,,,,,,,,,1,001,2024-09-04_10h06.38.900,IAT(Formal),2021.2.3,Win32,60.24096386,,,,,,,,,,,,,,,e,1,0.4594,0,39,39,50,1,我,e,,,,,,,,,,,,,,,,,,,,,,,,,,,,,,,,,,,,,,,,,
,,,,,,,,,,,,,,1,001,2024-09-04_10h06.38.900,IAT(Formal),2021.2.3,Win32,60.24096386,,,,,,,,,,,,,,,i,1,0.5093,0,40,40,77,1,他的,i,,,,,,,,,,,,,,,,,,,,,,,,,,,,,,,,,,,,,,,,,
,,,,,,,,,,,,,,1,001,2024-09-04_10h06.38.900,IAT(Formal),2021.2.3,Win32,60.24096386,,,,,,,,,,,,,,,i,1,0.5823,0,41,41,45,1,猖狂,i,,,,,,,,,,,,,,,,,,,,,,,,,,,,,,,,,,,,,,,,,
,,,,,,,,,,,,,,1,001,2024-09-04_10h06.38.900,IAT(Formal),2021.2.3,Win32,60.24096386,,,,,,,,,,,,,,,e,1,0.5843,0,42,42,29,1,诚恳,e,,,,,,,,,,,,,,,,,,,,,,,,,,,,,,,,,,,,,,,,,
,,,,,,,,,,,,,,1,001,2024-09-04_10h06.38.900,IAT(Formal),2021.2.3,Win32,60.24096386,,,,,,,,,,,,,,,e,1,0.481,0,43,43,62,1,我们,e,,,,,,,,,,,,,,,,,,,,,,,,,,,,,,,,,,,,,,,,,
,,,,,,,,,,,,,,1,001,2024-09-04_10h06.38.900,IAT(Formal),2021.2.3,Win32,60.24096386,,,,,,,,,,,,,,,e,1,0.5832,0,44,44,4,1,俺,e,,,,,,,,,,,,,,,,,,,,,,,,,,,,,,,,,,,,,,,,,
,,,,,,,,,,,,,,1,001,2024-09-04_10h06.38.900,IAT(Formal),2021.2.3,Win32,60.24096386,,,,,,,,,,,,,,,i,1,0.6537,0,45,45,40,1,执拗,i,,,,,,,,,,,,,,,,,,,,,,,,,,,,,,,,,,,,,,,,,
,,,,,,,,,,,,,,1,001,2024-09-04_10h06.38.900,IAT(Formal),2021.2.3,Win32,60.24096386,,,,,,,,,,,,,,,e,1,0.6069,0,46,46,17,1,勇敢,e,,,,,,,,,,,,,,,,,,,,,,,,,,,,,,,,,,,,,,,,,
,,,,,,,,,,,,,,1,001,2024-09-04_10h06.38.900,IAT(Formal),2021.2.3,Win32,60.24096386,,,,,,,,,,,,,,,e,1,0.7137,0,47,47,23,1,公正,e,,,,,,,,,,,,,,,,,,,,,,,,,,,,,,,,,,,,,,,,,
,,,,,,,,,,,,,,1,001,2024-09-04_10h06.38.900,IAT(Formal),2021.2.3,Win32,60.24096386,,,,,,,,,,,,,,,i,1,0.5765,0,48,48,57,1,他的,i,,,,,,,,,,,,,,,,,,,,,,,,,,,,,,,,,,,,,,,,,
,,,,,,,,,,,,,,1,001,2024-09-04_10h06.38.900,IAT(Formal),2021.2.3,Win32,60.24096386,,,,,,,,,,,,,,,e,1,0.7335,0,49,49,22,1,无私,e,,,,,,,,,,,,,,,,,,,,,,,,,,,,,,,,,,,,,,,,,
,,,,,,,,,,,,,,1,001,2024-09-04_10h06.38.900,IAT(Formal),2021.2.3,Win32,60.24096386,,,,,,,,,,,,,,,e,1,0.7081,0,50,50,25,1,细腻,e,,,,,,,,,,,,,,,,,,,,,,,,,,,,,,,,,,,,,,,,,
,,,,,,,,,,,,,,1,001,2024-09-04_10h06.38.900,IAT(Formal),2021.2.3,Win32,60.24096386,,,,,,,,,,,,,,,e,1,0.518,0,51,51,52,1,我们,e,,,,,,,,,,,,,,,,,,,,,,,,,,,,,,,,,,,,,,,,,
,,,,,,,,,,,,,,1,001,2024-09-04_10h06.38.900,IAT(Formal),2021.2.3,Win32,60.24096386,,,,,,,,,,,,,,,i,1,0.576,0,52,52,38,1,鲁莽,i,,,,,,,,,,,,,,,,,,,,,,,,,,,,,,,,,,,,,,,,,
,,,,,,,,,,,,,,1,001,2024-09-04_10h06.38.900,IAT(Formal),2021.2.3,Win32,60.24096386,,,,,,,,,,,,,,,i,1,0.6285,0,53,53,46,1,野蛮,i,,,,,,,,,,,,,,,,,,,,,,,,,,,,,,,,,,,,,,,,,
,,,,,,,,,,,,,,1,001,2024-09-04_10h06.38.900,IAT(Formal),2021.2.3,Win32,60.24096386,,,,,,,,,,,,,,,e,1,0.5978,0,54,54,16,1,正直,e,,,,,,,,,,,,,,,,,,,,,,,,,,,,,,,,,,,,,,,,,
,,,,,,,,,,,,,,1,001,2024-09-04_10h06.38.900,IAT(Formal),2021.2.3,Win32,60.24096386,,,,,,,,,,,,,,,e,1,0.5074,0,55,55,63,1,自己,e,,,,,,,,,,,,,,,,,,,,,,,,,,,,,,,,,,,,,,,,,
,,,,,,,,,,,,,,1,001,2024-09-04_10h06.38.900,IAT(Formal),2021.2.3,Win32,60.24096386,,,,,,,,,,,,,,,i,1,0.7066,0,56,56,5,1,他,i,,,,,,,,,,,,,,,,,,,,,,,,,,,,,,,,,,,,,,,,,
,,,,,,,,,,,,,,1,001,2024-09-04_10h06.38.900,IAT(Formal),2021.2.3,Win32,60.24096386,,,,,,,,,,,,,,,e,1,0.4849,0,57,57,61,1,我的,e,,,,,,,,,,,,,,,,,,,,,,,,,,,,,,,,,,,,,,,,,
,,,,,,,,,,,,,,1,001,2024-09-04_10h06.38.900,IAT(Formal),2021.2.3,Win32,60.24096386,,,,,,,,,,,,,,,e,1,0.6421,0,58,58,12,1,聪明,e,,,,,,,,,,,,,,,,,,,,,,,,,,,,,,,,,,,,,,,,,
,,,,,,,,,,,,,,1,001,2024-09-04_10h06.38.900,IAT(Formal),2021.2.3,Win32,60.24096386,,,,,,,,,,,,,,,e,1,0.6895,0,59,59,54,1,俺,e,,,,,,,,,,,,,,,,,,,,,,,,,,,,,,,,,,,,,,,,,
,,,,,,,,,,,,,,1,001,2024-09-04_10h06.38.900,IAT(Formal),2021.2.3,Win32,60.24096386,,,,,,,,,,,,,,,e,1,0.732,0,60,60,24,1,朴实,e,,,,,,,,,,,,,,,,,,,,,,,,,,,,,,,,,,,,,,,,,
,,,,,,,,,,,,,,1,001,2024-09-04_10h06.38.900,IAT(Formal),2021.2.3,Win32,60.24096386,,,,,,,,,,,,,,,e,1,0.6423,0,61,61,21,1,稳重,e,,,,,,,,,,,,,,,,,,,,,,,,,,,,,,,,,,,,,,,,,
,,,,,,,,,,,,,,1,001,2024-09-04_10h06.38.900,IAT(Formal),2021.2.3,Win32,60.24096386,,,,,,,,,,,,,,,i,1,0.5212,0,62,62,78,1,他人,i,,,,,,,,,,,,,,,,,,,,,,,,,,,,,,,,,,,,,,,,,
,,,,,,,,,,,,,,1,001,2024-09-04_10h06.38.900,IAT(Formal),2021.2.3,Win32,60.24096386,,,,,,,,,,,,,,,e,1,0.4401,0,63,63,73,1,自己,e,,,,,,,,,,,,,,,,,,,,,,,,,,,,,,,,,,,,,,,,,
,,,,,,,,,,,,,,1,001,2024-09-04_10h06.38.900,IAT(Formal),2021.2.3,Win32,60.24096386,,,,,,,,,,,,,,,i,1,0.5514,0,64,64,30,1,卑鄙,i,,,,,,,,,,,,,,,,,,,,,,,,,,,,,,,,,,,,,,,,,
,,,,,,,,,,,,,,1,001,2024-09-04_10h06.38.900,IAT(Formal),2021.2.3,Win32,60.24096386,,,,,,,,,,,,,,,i,1,0.5608,0,65,65,39,1,冒失,i,,,,,,,,,,,,,,,,,,,,,,,,,,,,,,,,,,,,,,,,,
,,,,,,,,,,,,,,1,001,2024-09-04_10h06.38.900,IAT(Formal),2021.2.3,Win32,60.24096386,,,,,,,,,,,,,,,e,1,0.5499,0,66,66,18,1,勤奋,e,,,,,,,,,,,,,,,,,,,,,,,,,,,,,,,,,,,,,,,,,
,,,,,,,,,,,,,,1,001,2024-09-04_10h06.38.900,IAT(Formal),2021.2.3,Win32,60.24096386,,,,,,,,,,,,,,,e,0,0.4708,0,67,67,56,1,他们,i,,,,,,,,,,,,,,,,,,,,,,,,,,,,,,,,,,,,,,,,,
,,,,,,,,,,,,,,1,001,2024-09-04_10h06.38.900,IAT(Formal),2021.2.3,Win32,60.24096386,,,,,,,,,,,,,,,i,1,0.8101,0,68,68,36,1,自卑,i,,,,,,,,,,,,,,,,,,,,,,,,,,,,,,,,,,,,,,,,,
,,,,,,,,,,,,,,1,001,2024-09-04_10h06.38.900,IAT(Formal),2021.2.3,Win32,60.24096386,,,,,,,,,,,,,,,e,1,0.5356,0,69,69,20,1,认真,e,,,,,,,,,,,,,,,,,,,,,,,,,,,,,,,,,,,,,,,,,
,,,,,,,,,,,,,,1,001,2024-09-04_10h06.38.900,IAT(Formal),2021.2.3,Win32,60.24096386,,,,,,,,,,,,,,,i,1,0.6091,0,70,70,65,1,他,i,,,,,,,,,,,,,,,,,,,,,,,,,,,,,,,,,,,,,,,,,
,,,,,,,,,,,,,,1,001,2024-09-04_10h06.38.900,IAT(Formal),2021.2.3,Win32,60.24096386,,,,,,,,,,,,,,,i,1,0.669,0,71,71,42,1,凶狠,i,,,,,,,,,,,,,,,,,,,,,,,,,,,,,,,,,,,,,,,,,
,,,,,,,,,,,,,,1,001,2024-09-04_10h06.38.900,IAT(Formal),2021.2.3,Win32,60.24096386,,,,,,,,,,,,,,,i,1,0.6908,0,72,72,8,1,他人,i,,,,,,,,,,,,,,,,,,,,,,,,,,,,,,,,,,,,,,,,,
,,,,,,,,,,,,,,1,001,2024-09-04_10h06.38.900,IAT(Formal),2021.2.3,Win32,60.24096386,,,,,,,,,,,,,,,e,1,0.6071,0,73,73,13,1,杰出,e,,,,,,,,,,,,,,,,,,,,,,,,,,,,,,,,,,,,,,,,,
,,,,,,,,,,,,,,1,001,2024-09-04_10h06.38.900,IAT(Formal),2021.2.3,Win32,60.24096386,,,,,,,,,,,,,,,i,1,0.5185,0,74,74,55,1,他,i,,,,,,,,,,,,,,,,,,,,,,,,,,,,,,,,,,,,,,,,,
,,,,,,,,,,,,,,1,001,2024-09-04_10h06.38.900,IAT(Formal),2021.2.3,Win32,60.24096386,,,,,,,,,,,,,,,i,1,0.5793,0,75,75,49,1,下贱,i,,,,,,,,,,,,,,,,,,,,,,,,,,,,,,,,,,,,,,,,,
,,,,,,,,,,,,,,1,001,2024-09-04_10h06.38.900,IAT(Formal),2021.2.3,Win32,60.24096386,,,,,,,,,,,,,,,e,1,0.5684,0,76,76,19,1,机智,e,,,,,,,,,,,,,,,,,,,,,,,,,,,,,,,,,,,,,,,,,
,,,,,,,,,,,,,,1,001,2024-09-04_10h06.38.900,IAT(Formal),2021.2.3,Win32,60.24096386,,,,,,,,,,,,,,,i,1,0.7473,0,77,77,43,1,自私,i,,,,,,,,,,,,,,,,,,,,,,,,,,,,,,,,,,,,,,,,,
,,,,,,,,,,,,,,1,001,2024-09-04_10h06.38.900,IAT(Formal),2021.2.3,Win32,60.24096386,,,,,,,,,,,,,,,e,1,0.6709,0,78,78,11,1,崇高,e,,,,,,,,,,,,,,,,,,,,,,,,,,,,,,,,,,,,,,,,,
,,,,,,,,,,,,,,1,001,2024-09-04_10h06.38.900,IAT(Formal),2021.2.3,Win32,60.24096386,,,,,,,,,,,,,,,e,1,0.5992,0,79,79,71,1,我的,e,,,,,,,,,,,,,,,,,,,,,,,,,,,,,,,,,,,,,,,,,
,,,,,,,,,,,,,,1,001,2024-09-04_10h06.38.900,IAT(Formal),2021.2.3,Win32,60.24096386,,,,,,,,,,,,,,,i,1,0.7267,,,,,,他的,i,space,4.4844,0,0,0,57,1,,,,,,,,,,,,,,,,,,,,,,,,,,,,,,,,,,
,,,,,,,,,,,,,,1,001,2024-09-04_10h06.38.900,IAT(Formal),2021.2.3,Win32,60.24096386,,,,,,,,,,,,,,,i,1,0.4778,,,,,,他人,i,,,0,1,1,8,1,,,,,,,,,,,,,,,,,,,,,,,,,,,,,,,,,,
,,,,,,,,,,,,,,1,001,2024-09-04_10h06.38.900,IAT(Formal),2021.2.3,Win32,60.24096386,,,,,,,,,,,,,,,e,1,0.4681,,,,,,热情,e,,,0,2,2,27,1,,,,,,,,,,,,,,,,,,,,,,,,,,,,,,,,,,
,,,,,,,,,,,,,,1,001,2024-09-04_10h06.38.900,IAT(Formal),2021.2.3,Win32,60.24096386,,,,,,,,,,,,,,,e,1,0.5376,,,,,,机智,e,,,0,3,3,19,1,,,,,,,,,,,,,,,,,,,,,,,,,,,,,,,,,,
,,,,,,,,,,,,,,1,001,2024-09-04_10h06.38.900,IAT(Formal),2021.2.3,Win32,60.24096386,,,,,,,,,,,,,,,e,1,0.506,,,,,,自己,e,,,0,4,4,63,1,,,,,,,,,,,,,,,,,,,,,,,,,,,,,,,,,,
,,,,,,,,,,,,,,1,001,2024-09-04_10h06.38.900,IAT(Formal),2021.2.3,Win32,60.24096386,,,,,,,,,,,,,,,i,1,0.5154,,,,,,他人,i,,,0,5,5,78,1,,,,,,,,,,,,,,,,,,,,,,,,,,,,,,,,,,
,,,,,,,,,,,,,,1,001,2024-09-04_10h06.38.900,IAT(Formal),2021.2.3,Win32,60.24096386,,,,,,,,,,,,,,,i,1,0.4871,,,,,,他,i,,,0,6,6,65,1,,,,,,,,,,,,,,,,,,,,,,,,,,,,,,,,,,
,,,,,,,,,,,,,,1,001,2024-09-04_10h06.38.900,IAT(Formal),2021.2.3,Win32,60.24096386,,,,,,,,,,,,,,,i,1,0.6277,,,,,,野蛮,i,,,0,7,7,46,1,,,,,,,,,,,,,,,,,,,,,,,,,,,,,,,,,,
,,,,,,,,,,,,,,1,001,2024-09-04_10h06.38.900,IAT(Formal),2021.2.3,Win32,60.24096386,,,,,,,,,,,,,,,e,1,0.4081,,,,,,我的,e,,,0,8,8,71,1,,,,,,,,,,,,,,,,,,,,,,,,,,,,,,,,,,
,,,,,,,,,,,,,,1,001,2024-09-04_10h06.38.900,IAT(Formal),2021.2.3,Win32,60.24096386,,,,,,,,,,,,,,,e,1,0.5545,,,,,,朴实,e,,,0,9,9,24,1,,,,,,,,,,,,,,,,,,,,,,,,,,,,,,,,,,
,,,,,,,,,,,,,,1,001,2024-09-04_10h06.38.900,IAT(Formal),2021.2.3,Win32,60.24096386,,,,,,,,,,,,,,,i,1,0.4568,,,,,,他的,i,,,0,10,10,7,1,,,,,,,,,,,,,,,,,,,,,,,,,,,,,,,,,,
,,,,,,,,,,,,,,1,001,2024-09-04_10h06.38.900,IAT(Formal),2021.2.3,Win32,60.24096386,,,,,,,,,,,,,,,i,1,0.4654,,,,,,他们,i,,,0,11,11,66,1,,,,,,,,,,,,,,,,,,,,,,,,,,,,,,,,,,
,,,,,,,,,,,,,,1,001,2024-09-04_10h06.38.900,IAT(Formal),2021.2.3,Win32,60.24096386,,,,,,,,,,,,,,,e,1,0.5434,,,,,,勤奋,e,,,0,12,12,18,1,,,,,,,,,,,,,,,,,,,,,,,,,,,,,,,,,,
,,,,,,,,,,,,,,1,001,2024-09-04_10h06.38.900,IAT(Formal),2021.2.3,Win32,60.24096386,,,,,,,,,,,,,,,e,1,0.6861,,,,,,俺,e,,,0,13,13,54,1,,,,,,,,,,,,,,,,,,,,,,,,,,,,,,,,,,
,,,,,,,,,,,,,,1,001,2024-09-04_10h06.38.900,IAT(Formal),2021.2.3,Win32,60.24096386,,,,,,,,,,,,,,,e,1,0.5095,,,,,,乐观,e,,,0,14,14,14,1,,,,,,,,,,,,,,,,,,,,,,,,,,,,,,,,,,
,,,,,,,,,,,,,,1,001,2024-09-04_10h06.38.900,IAT(Formal),2021.2.3,Win32,60.24096386,,,,,,,,,,,,,,,i,1,0.5663,,,,,,愚蠢,i,,,0,15,15,32,1,,,,,,,,,,,,,,,,,,,,,,,,,,,,,,,,,,
,,,,,,,,,,,,,,1,001,2024-09-04_10h06.38.900,IAT(Formal),2021.2.3,Win32,60.24096386,,,,,,,,,,,,,,,i,1,0.7888,,,,,,自私,i,,,0,16,16,43,1,,,,,,,,,,,,,,,,,,,,,,,,,,,,,,,,,,
,,,,,,,,,,,,,,1,001,2024-09-04_10h06.38.900,IAT(Formal),2021.2.3,Win32,60.24096386,,,,,,,,,,,,,,,i,1,0.4913,,,,,,他人,i,,,0,17,17,68,1,,,,,,,,,,,,,,,,,,,,,,,,,,,,,,,,,,
,,,,,,,,,,,,,,1,001,2024-09-04_10h06.38.900,IAT(Formal),2021.2.3,Win32,60.24096386,,,,,,,,,,,,,,,i,1,0.6045,,,,,,自卑,i,,,0,18,18,36,1,,,,,,,,,,,,,,,,,,,,,,,,,,,,,,,,,,
,,,,,,,,,,,,,,1,001,2024-09-04_10h06.38.900,IAT(Formal),2021.2.3,Win32,60.24096386,,,,,,,,,,,,,,,e,1,0.4971,,,,,,我们,e,,,0,19,19,52,1,,,,,,,,,,,,,,,,,,,,,,,,,,,,,,,,,,
,,,,,,,,,,,,,,1,001,2024-09-04_10h06.38.900,IAT(Formal),2021.2.3,Win32,60.24096386,,,,,,,,,,,,,,,e,1,0.5778,,,,,,公正,e,,,0,20,20,23,1,,,,,,,,,,,,,,,,,,,,,,,,,,,,,,,,,,
,,,,,,,,,,,,,,1,001,2024-09-04_10h06.38.900,IAT(Formal),2021.2.3,Win32,60.24096386,,,,,,,,,,,,,,,e,1,0.5136,,,,,,我们,e,,,0,21,21,62,1,,,,,,,,,,,,,,,,,,,,,,,,,,,,,,,,,,
,,,,,,,,,,,,,,1,001,2024-09-04_10h06.38.900,IAT(Formal),2021.2.3,Win32,60.24096386,,,,,,,,,,,,,,,i,1,0.505,,,,,,他的,i,,,0,22,22,77,1,,,,,,,,,,,,,,,,,,,,,,,,,,,,,,,,,,
,,,,,,,,,,,,,,1,001,2024-09-04_10h06.38.900,IAT(Formal),2021.2.3,Win32,60.24096386,,,,,,,,,,,,,,,i,1,0.5473,,,,,,悲观,i,,,0,23,23,34,1,,,,,,,,,,,,,,,,,,,,,,,,,,,,,,,,,,
,,,,,,,,,,,,,,1,001,2024-09-04_10h06.38.900,IAT(Formal),2021.2.3,Win32,60.24096386,,,,,,,,,,,,,,,i,1,0.5341,,,,,,他的,i,,,0,24,24,67,1,,,,,,,,,,,,,,,,,,,,,,,,,,,,,,,,,,
,,,,,,,,,,,,,,1,001,2024-09-04_10h06.38.900,IAT(Formal),2021.2.3,Win32,60.24096386,,,,,,,,,,,,,,,e,1,0.5484,,,,,,俺,e,,,0,25,25,4,1,,,,,,,,,,,,,,,,,,,,,,,,,,,,,,,,,,
,,,,,,,,,,,,,,1,001,2024-09-04_10h06.38.900,IAT(Formal),2021.2.3,Win32,60.24096386,,,,,,,,,,,,,,,e,1,0.5932,,,,,,细腻,e,,,0,26,26,25,1,,,,,,,,,,,,,,,,,,,,,,,,,,,,,,,,,,
,,,,,,,,,,,,,,1,001,2024-09-04_10h06.38.900,IAT(Formal),2021.2.3,Win32,60.24096386,,,,,,,,,,,,,,,i,1,0.5545,,,,,,执拗,i,,,0,27,27,40,1,,,,,,,,,,,,,,,,,,,,,,,,,,,,,,,,,,
,,,,,,,,,,,,,,1,001,2024-09-04_10h06.38.900,IAT(Formal),2021.2.3,Win32,60.24096386,,,,,,,,,,,,,,,i,1,0.6338,,,,,,凶狠,i,,,0,28,28,42,1,,,,,,,,,,,,,,,,,,,,,,,,,,,,,,,,,,
,,,,,,,,,,,,,,1,001,2024-09-04_10h06.38.900,IAT(Formal),2021.2.3,Win32,60.24096386,,,,,,,,,,,,,,,e,1,0.6331,,,,,,活泼,e,,,0,29,29,28,1,,,,,,,,,,,,,,,,,,,,,,,,,,,,,,,,,,
,,,,,,,,,,,,,,1,001,2024-09-04_10h06.38.900,IAT(Formal),2021.2.3,Win32,60.24096386,,,,,,,,,,,,,,,e,1,0.5277,,,,,,认真,e,,,0,30,30,20,1,,,,,,,,,,,,,,,,,,,,,,,,,,,,,,,,,,
,,,,,,,,,,,,,,1,001,2024-09-04_10h06.38.900,IAT(Formal),2021.2.3,Win32,60.24096386,,,,,,,,,,,,,,,e,1,0.4447,,,,,,我,e,,,0,31,31,60,1,,,,,,,,,,,,,,,,,,,,,,,,,,,,,,,,,,
,,,,,,,,,,,,,,1,001,2024-09-04_10h06.38.900,IAT(Formal),2021.2.3,Win32,60.24096386,,,,,,,,,,,,,,,e,1,0.4412,,,,,,聪明,e,,,0,32,32,12,1,,,,,,,,,,,,,,,,,,,,,,,,,,,,,,,,,,
,,,,,,,,,,,,,,1,001,2024-09-04_10h06.38.900,IAT(Formal),2021.2.3,Win32,60.24096386,,,,,,,,,,,,,,,i,1,0.5119,,,,,,他,i,,,0,33,33,55,1,,,,,,,,,,,,,,,,,,,,,,,,,,,,,,,,,,
,,,,,,,,,,,,,,1,001,2024-09-04_10h06.38.900,IAT(Formal),2021.2.3,Win32,60.24096386,,,,,,,,,,,,,,,i,1,0.5392,,,,,,鲁莽,i,,,0,34,34,38,1,,,,,,,,,,,,,,,,,,,,,,,,,,,,,,,,,,
,,,,,,,,,,,,,,1,001,2024-09-04_10h06.38.900,IAT(Formal),2021.2.3,Win32,60.24096386,,,,,,,,,,,,,,,i,1,0.5147,,,,,,他人,i,,,0,35,35,58,1,,,,,,,,,,,,,,,,,,,,,,,,,,,,,,,,,,
,,,,,,,,,,,,,,1,001,2024-09-04_10h06.38.900,IAT(Formal),2021.2.3,Win32,60.24096386,,,,,,,,,,,,,,,e,1,0.5922,,,,,,稳重,e,,,0,36,36,21,1,,,,,,,,,,,,,,,,,,,,,,,,,,,,,,,,,,
,,,,,,,,,,,,,,1,001,2024-09-04_10h06.38.900,IAT(Formal),2021.2.3,Win32,60.24096386,,,,,,,,,,,,,,,i,1,0.531,,,,,,刻薄,i,,,0,37,37,33,1,,,,,,,,,,,,,,,,,,,,,,,,,,,,,,,,,,
,,,,,,,,,,,,,,1,001,2024-09-04_10h06.38.900,IAT(Formal),2021.2.3,Win32,60.24096386,,,,,,,,,,,,,,,e,1,0.6638,,,,,,诚实,e,,,0,38,38,15,1,,,,,,,,,,,,,,,,,,,,,,,,,,,,,,,,,,
,,,,,,,,,,,,,,1,001,2024-09-04_10h06.38.900,IAT(Formal),2021.2.3,Win32,60.24096386,,,,,,,,,,,,,,,e,1,0.5253,,,,,,俺,e,,,0,39,39,64,1,,,,,,,,,,,,,,,,,,,,,,,,,,,,,,,,,,
,,,,,,,,,,,,,,1,001,2024-09-04_10h06.38.900,IAT(Formal),2021.2.3,Win32,60.24096386,,,,,,,,,,,,,,,i,1,0.5196,,,,,,散漫,i,,,0,40,40,41,1,,,,,,,,,,,,,,,,,,,,,,,,,,,,,,,,,,
,,,,,,,,,,,,,,1,001,2024-09-04_10h06.38.900,IAT(Formal),2021.2.3,Win32,60.24096386,,,,,,,,,,,,,,,i,1,0.5396,,,,,,其他,i,,,0,41,41,69,1,,,,,,,,,,,,,,,,,,,,,,,,,,,,,,,,,,
,,,,,,,,,,,,,,1,001,2024-09-04_10h06.38.900,IAT(Formal),2021.2.3,Win32,60.24096386,,,,,,,,,,,,,,,e,1,0.4208,,,,,,我,e,,,0,42,42,50,1,,,,,,,,,,,,,,,,,,,,,,,,,,,,,,,,,,
,,,,,,,,,,,,,,1,001,2024-09-04_10h06.38.900,IAT(Formal),2021.2.3,Win32,60.24096386,,,,,,,,,,,,,,,e,1,0.9972,,,,,,冷静,e,,,0,43,43,26,1,,,,,,,,,,,,,,,,,,,,,,,,,,,,,,,,,,
,,,,,,,,,,,,,,1,001,2024-09-04_10h06.38.900,IAT(Formal),2021.2.3,Win32,60.24096386,,,,,,,,,,,,,,,e,1,0.6477,,,,,,俺,e,,,0,44,44,74,1,,,,,,,,,,,,,,,,,,,,,,,,,,,,,,,,,,
,,,,,,,,,,,,,,1,001,2024-09-04_10h06.38.900,IAT(Formal),2021.2.3,Win32,60.24096386,,,,,,,,,,,,,,,i,1,0.5416,,,,,,其他,i,,,0,45,45,79,1,,,,,,,,,,,,,,,,,,,,,,,,,,,,,,,,,,
,,,,,,,,,,,,,,1,001,2024-09-04_10h06.38.900,IAT(Formal),2021.2.3,Win32,60.24096386,,,,,,,,,,,,,,,e,1,0.5094,,,,,,优秀,e,,,0,46,46,10,1,,,,,,,,,,,,,,,,,,,,,,,,,,,,,,,,,,
,,,,,,,,,,,,,,1,001,2024-09-04_10h06.38.900,IAT(Formal),2021.2.3,Win32,60.24096386,,,,,,,,,,,,,,,e,1,0.5227,,,,,,正直,e,,,0,47,47,16,1,,,,,,,,,,,,,,,,,,,,,,,,,,,,,,,,,,
,,,,,,,,,,,,,,1,001,2024-09-04_10h06.38.900,IAT(Formal),2021.2.3,Win32,60.24096386,,,,,,,,,,,,,,,i,1,0.5302,,,,,,卑鄙,i,,,0,48,48,30,1,,,,,,,,,,,,,,,,,,,,,,,,,,,,,,,,,,
,,,,,,,,,,,,,,1,001,2024-09-04_10h06.38.900,IAT(Formal),2021.2.3,Win32,60.24096386,,,,,,,,,,,,,,,e,1,0.4267,,,,,,我的,e,,,0,49,49,1,1,,,,,,,,,,,,,,,,,,,,,,,,,,,,,,,,,,
,,,,,,,,,,,,,,1,001,2024-09-04_10h06.38.900,IAT(Formal),2021.2.3,Win32,60.24096386,,,,,,,,,,,,,,,i,1,0.5407,,,,,,傲慢,i,,,0,50,50,37,1,,,,,,,,,,,,,,,,,,,,,,,,,,,,,,,,,,
,,,,,,,,,,,,,,1,001,2024-09-04_10h06.38.900,IAT(Formal),2021.2.3,Win32,60.24096386,,,,,,,,,,,,,,,i,1,0.5806,,,,,,他们,i,,,0,51,51,56,1,,,,,,,,,,,,,,,,,,,,,,,,,,,,,,,,,,
,,,,,,,,,,,,,,1,001,2024-09-04_10h06.38.900,IAT(Formal),2021.2.3,Win32,60.24096386,,,,,,,,,,,,,,,i,1,0.547,,,,,,虚伪,i,,,0,52,52,31,1,,,,,,,,,,,,,,,,,,,,,,,,,,,,,,,,,,
,,,,,,,,,,,,,,1,001,2024-09-04_10h06.38.900,IAT(Formal),2021.2.3,Win32,60.24096386,,,,,,,,,,,,,,,i,1,0.5886,,,,,,冒失,i,,,0,53,53,39,1,,,,,,,,,,,,,,,,,,,,,,,,,,,,,,,,,,
,,,,,,,,,,,,,,1,001,2024-09-04_10h06.38.900,IAT(Formal),2021.2.3,Win32,60.24096386,,,,,,,,,,,,,,,i,1,0.6533,,,,,,他,i,,,0,54,54,5,1,,,,,,,,,,,,,,,,,,,,,,,,,,,,,,,,,,
,,,,,,,,,,,,,,1,001,2024-09-04_10h06.38.900,IAT(Formal),2021.2.3,Win32,60.24096386,,,,,,,,,,,,,,,e,1,0.4353,,,,,,我,e,,,0,55,55,70,1,,,,,,,,,,,,,,,,,,,,,,,,,,,,,,,,,,
,,,,,,,,,,,,,,1,001,2024-09-04_10h06.38.900,IAT(Formal),2021.2.3,Win32,60.24096386,,,,,,,,,,,,,,,i,1,0.5057,,,,,,他们,i,,,0,56,56,76,1,,,,,,,,,,,,,,,,,,,,,,,,,,,,,,,,,,
,,,,,,,,,,,,,,1,001,2024-09-04_10h06.38.900,IAT(Formal),2021.2.3,Win32,60.24096386,,,,,,,,,,,,,,,e,1,0.5643,,,,,,杰出,e,,,0,57,57,13,1,,,,,,,,,,,,,,,,,,,,,,,,,,,,,,,,,,
,,,,,,,,,,,,,,1,001,2024-09-04_10h06.38.900,IAT(Formal),2021.2.3,Win32,60.24096386,,,,,,,,,,,,,,,e,1,1.0722,,,,,,无私,e,,,0,58,58,22,1,,,,,,,,,,,,,,,,,,,,,,,,,,,,,,,,,,
,,,,,,,,,,,,,,1,001,2024-09-04_10h06.38.900,IAT(Formal),2021.2.3,Win32,60.24096386,,,,,,,,,,,,,,,i,1,0.5989,,,,,,其他,i,,,0,59,59,59,1,,,,,,,,,,,,,,,,,,,,,,,,,,,,,,,,,,
,,,,,,,,,,,,,,1,001,2024-09-04_10h06.38.900,IAT(Formal),2021.2.3,Win32,60.24096386,,,,,,,,,,,,,,,i,1,0.8498,,,,,,消极,i,,,0,60,60,35,1,,,,,,,,,,,,,,,,,,,,,,,,,,,,,,,,,,
,,,,,,,,,,,,,,1,001,2024-09-04_10h06.38.900,IAT(Formal),2021.2.3,Win32,60.24096386,,,,,,,,,,,,,,,i,1,0.6632,,,,,,其他,i,,,0,61,61,9,1,,,,,,,,,,,,,,,,,,,,,,,,,,,,,,,,,,
,,,,,,,,,,,,,,1,001,2024-09-04_10h06.38.900,IAT(Formal),2021.2.3,Win32,60.24096386,,,,,,,,,,,,,,,e,1,0.5037,,,,,,自己,e,,,0,62,62,3,1,,,,,,,,,,,,,,,,,,,,,,,,,,,,,,,,,,
,,,,,,,,,,,,,,1,001,2024-09-04_10h06.38.900,IAT(Formal),2021.2.3,Win32,60.24096386,,,,,,,,,,,,,,,i,1,1.0919,,,,,,猖狂,i,,,0,63,63,45,1,,,,,,,,,,,,,,,,,,,,,,,,,,,,,,,,,,
,,,,,,,,,,,,,,1,001,2024-09-04_10h06.38.900,IAT(Formal),2021.2.3,Win32,60.24096386,,,,,,,,,,,,,,,i,1,0.5822,,,,,,下贱,i,,,0,64,64,49,1,,,,,,,,,,,,,,,,,,,,,,,,,,,,,,,,,,
,,,,,,,,,,,,,,1,001,2024-09-04_10h06.38.900,IAT(Formal),2021.2.3,Win32,60.24096386,,,,,,,,,,,,,,,e,1,0.5414,,,,,,我们,e,,,0,65,65,72,1,,,,,,,,,,,,,,,,,,,,,,,,,,,,,,,,,,
,,,,,,,,,,,,,,1,001,2024-09-04_10h06.38.900,IAT(Formal),2021.2.3,Win32,60.24096386,,,,,,,,,,,,,,,e,1,0.6208,,,,,,自己,e,,,0,66,66,53,1,,,,,,,,,,,,,,,,,,,,,,,,,,,,,,,,,,
,,,,,,,,,,,,,,1,001,2024-09-04_10h06.38.900,IAT(Formal),2021.2.3,Win32,60.24096386,,,,,,,,,,,,,,,i,1,0.7974,,,,,,轻率,i,,,0,67,67,48,1,,,,,,,,,,,,,,,,,,,,,,,,,,,,,,,,,,
,,,,,,,,,,,,,,1,001,2024-09-04_10h06.38.900,IAT(Formal),2021.2.3,Win32,60.24096386,,,,,,,,,,,,,,,i,1,1.0373,,,,,,固执,i,,,0,68,68,47,1,,,,,,,,,,,,,,,,,,,,,,,,,,,,,,,,,,
,,,,,,,,,,,,,,1,001,2024-09-04_10h06.38.900,IAT(Formal),2021.2.3,Win32,60.24096386,,,,,,,,,,,,,,,e,1,0.427,,,,,,我的,e,,,0,69,69,51,1,,,,,,,,,,,,,,,,,,,,,,,,,,,,,,,,,,
,,,,,,,,,,,,,,1,001,2024-09-04_10h06.38.900,IAT(Formal),2021.2.3,Win32,60.24096386,,,,,,,,,,,,,,,e,1,0.4413,,,,,,自己,e,,,0,70,70,73,1,,,,,,,,,,,,,,,,,,,,,,,,,,,,,,,,,,
,,,,,,,,,,,,,,1,001,2024-09-04_10h06.38.900,IAT(Formal),2021.2.3,Win32,60.24096386,,,,,,,,,,,,,,,i,1,0.704,,,,,,他们,i,,,0,71,71,6,1,,,,,,,,,,,,,,,,,,,,,,,,,,,,,,,,,,
,,,,,,,,,,,,,,1,001,2024-09-04_10h06.38.900,IAT(Formal),2021.2.3,Win32,60.24096386,,,,,,,,,,,,,,,e,1,0.4984,,,,,,我们,e,,,0,72,72,2,1,,,,,,,,,,,,,,,,,,,,,,,,,,,,,,,,,,
,,,,,,,,,,,,,,1,001,2024-09-04_10h06.38.900,IAT(Formal),2021.2.3,Win32,60.24096386,,,,,,,,,,,,,,,e,1,0.4195,,,,,,我的,e,,,0,73,73,61,1,,,,,,,,,,,,,,,,,,,,,,,,,,,,,,,,,,
,,,,,,,,,,,,,,1,001,2024-09-04_10h06.38.900,IAT(Formal),2021.2.3,Win32,60.24096386,,,,,,,,,,,,,,,i,1,0.5326,,,,,,他,i,,,0,74,74,75,1,,,,,,,,,,,,,,,,,,,,,,,,,,,,,,,,,,
,,,,,,,,,,,,,,1,001,2024-09-04_10h06.38.900,IAT(Formal),2021.2.3,Win32,60.24096386,,,,,,,,,,,,,,,i,1,0.6247,,,,,,暴躁,i,,,0,75,75,44,1,,,,,,,,,,,,,,,,,,,,,,,,,,,,,,,,,,
,,,,,,,,,,,,,,1,001,2024-09-04_10h06.38.900,IAT(Formal),2021.2.3,Win32,60.24096386,,,,,,,,,,,,,,,e,1,0.4529,,,,,,我,e,,,0,76,76,0,1,,,,,,,,,,,,,,,,,,,,,,,,,,,,,,,,,,
,,,,,,,,,,,,,,1,001,2024-09-04_10h06.38.900,IAT(Formal),2021.2.3,Win32,60.24096386,,,,,,,,,,,,,,,e,1,0.7165,,,,,,崇高,e,,,0,77,77,11,1,,,,,,,,,,,,,,,,,,,,,,,,,,,,,,,,,,
,,,,,,,,,,,,,,1,001,2024-09-04_10h06.38.900,IAT(Formal),2021.2.3,Win32,60.24096386,,,,,,,,,,,,,,,e,1,0.7812,,,,,,诚恳,e,,,0,78,78,29,1,,,,,,,,,,,,,,,,,,,,,,,,,,,,,,,,,,
,,,,,,,,,,,,,,1,001,2024-09-04_10h06.38.900,IAT(Formal),2021.2.3,Win32,60.24096386,,,,,,,,,,,,,,,e,1,0.4931,,,,,,勇敢,e,,,0,79,79,17,1,,,,,,,,,,,,,,,,,,,,,,,,,,,,,,,,,,
,,,,,,,,,,,,,,1,001,2024-09-04_10h06.38.900,IAT(Formal),2021.2.3,Win32,60.24096386,,,,,,,,,,,,,,,e,1,0.4111,,,,,,我的,e,,,1,0,80,71,1,,,,,,,,,,,,,,,,,,,,,,,,,,,,,,,,,,
,,,,,,,,,,,,,,1,001,2024-09-04_10h06.38.900,IAT(Formal),2021.2.3,Win32,60.24096386,,,,,,,,,,,,,,,i,1,0.9024,,,,,,悲观,i,,,1,1,81,34,1,,,,,,,,,,,,,,,,,,,,,,,,,,,,,,,,,,
,,,,,,,,,,,,,,1,001,2024-09-04_10h06.38.900,IAT(Formal),2021.2.3,Win32,60.24096386,,,,,,,,,,,,,,,i,1,0.6494,,,,,,他,i,,,1,2,82,55,1,,,,,,,,,,,,,,,,,,,,,,,,,,,,,,,,,,
,,,,,,,,,,,,,,1,001,2024-09-04_10h06.38.900,IAT(Formal),2021.2.3,Win32,60.24096386,,,,,,,,,,,,,,,e,1,0.7022,,,,,,俺,e,,,1,3,83,54,1,,,,,,,,,,,,,,,,,,,,,,,,,,,,,,,,,,
,,,,,,,,,,,,,,1,001,2024-09-04_10h06.38.900,IAT(Formal),2021.2.3,Win32,60.24096386,,,,,,,,,,,,,,,i,1,0.6481,,,,,,他人,i,,,1,4,84,58,1,,,,,,,,,,,,,,,,,,,,,,,,,,,,,,,,,,
,,,,,,,,,,,,,,1,001,2024-09-04_10h06.38.900,IAT(Formal),2021.2.3,Win32,60.24096386,,,,,,,,,,,,,,,i,1,0.5884,,,,,,执拗,i,,,1,5,85,40,1,,,,,,,,,,,,,,,,,,,,,,,,,,,,,,,,,,
,,,,,,,,,,,,,,1,001,2024-09-04_10h06.38.900,IAT(Formal),2021.2.3,Win32,60.24096386,,,,,,,,,,,,,,,i,1,0.7311,,,,,,轻率,i,,,1,6,86,48,1,,,,,,,,,,,,,,,,,,,,,,,,,,,,,,,,,,
,,,,,,,,,,,,,,1,001,2024-09-04_10h06.38.900,IAT(Formal),2021.2.3,Win32,60.24096386,,,,,,,,,,,,,,,i,1,0.5846,,,,,,卑鄙,i,,,1,7,87,30,1,,,,,,,,,,,,,,,,,,,,,,,,,,,,,,,,,,
,,,,,,,,,,,,,,1,001,2024-09-04_10h06.38.900,IAT(Formal),2021.2.3,Win32,60.24096386,,,,,,,,,,,,,,,e,1,0.5959,,,,,,勤奋,e,,,1,8,88,18,1,,,,,,,,,,,,,,,,,,,,,,,,,,,,,,,,,,
,,,,,,,,,,,,,,1,001,2024-09-04_10h06.38.900,IAT(Formal),2021.2.3,Win32,60.24096386,,,,,,,,,,,,,,,i,1,0.6317,,,,,,他们,i,,,1,9,89,56,1,,,,,,,,,,,,,,,,,,,,,,,,,,,,,,,,,,
,,,,,,,,,,,,,,1,001,2024-09-04_10h06.38.900,IAT(Formal),2021.2.3,Win32,60.24096386,,,,,,,,,,,,,,,i,1,0.5159,,,,,,其他,i,,,1,10,90,59,1,,,,,,,,,,,,,,,,,,,,,,,,,,,,,,,,,,
,,,,,,,,,,,,,,1,001,2024-09-04_10h06.38.900,IAT(Formal),2021.2.3,Win32,60.24096386,,,,,,,,,,,,,,,e,1,0.6472,,,,,,热情,e,,,1,11,91,27,1,,,,,,,,,,,,,,,,,,,,,,,,,,,,,,,,,,
,,,,,,,,,,,,,,1,001,2024-09-04_10h06.38.900,IAT(Formal),2021.2.3,Win32,60.24096386,,,,,,,,,,,,,,,e,1,0.5354,,,,,,我们,e,,,1,12,92,52,1,,,,,,,,,,,,,,,,,,,,,,,,,,,,,,,,,,
,,,,,,,,,,,,,,1,001,2024-09-04_10h06.38.900,IAT(Formal),2021.2.3,Win32,60.24096386,,,,,,,,,,,,,,,i,1,0.5828,,,,,,野蛮,i,,,1,13,93,46,1,,,,,,,,,,,,,,,,,,,,,,,,,,,,,,,,,,
,,,,,,,,,,,,,,1,001,2024-09-04_10h06.38.900,IAT(Formal),2021.2.3,Win32,60.24096386,,,,,,,,,,,,,,,i,1,0.5162,,,,,,他们,i,,,1,14,94,6,1,,,,,,,,,,,,,,,,,,,,,,,,,,,,,,,,,,
,,,,,,,,,,,,,,1,001,2024-09-04_10h06.38.900,IAT(Formal),2021.2.3,Win32,60.24096386,,,,,,,,,,,,,,,e,1,0.4184,,,,,,我的,e,,,1,15,95,51,1,,,,,,,,,,,,,,,,,,,,,,,,,,,,,,,,,,
,,,,,,,,,,,,,,1,001,2024-09-04_10h06.38.900,IAT(Formal),2021.2.3,Win32,60.24096386,,,,,,,,,,,,,,,i,1,0.4395,,,,,,其他,i,,,1,16,96,79,1,,,,,,,,,,,,,,,,,,,,,,,,,,,,,,,,,,
,,,,,,,,,,,,,,1,001,2024-09-04_10h06.38.900,IAT(Formal),2021.2.3,Win32,60.24096386,,,,,,,,,,,,,,,i,1,0.4849,,,,,,其他,i,,,1,17,97,9,1,,,,,,,,,,,,,,,,,,,,,,,,,,,,,,,,,,
,,,,,,,,,,,,,,1,001,2024-09-04_10h06.38.900,IAT(Formal),2021.2.3,Win32,60.24096386,,,,,,,,,,,,,,,e,1,0.4163,,,,,,我们,e,,,1,18,98,62,1,,,,,,,,,,,,,,,,,,,,,,,,,,,,,,,,,,
,,,,,,,,,,,,,,1,001,2024-09-04_10h06.38.900,IAT(Formal),2021.2.3,Win32,60.24096386,,,,,,,,,,,,,,,i,1,0.4138,,,,,,其他,i,,,1,19,99,69,1,,,,,,,,,,,,,,,,,,,,,,,,,,,,,,,,,,
,,,,,,,,,,,,,,1,001,2024-09-04_10h06.38.900,IAT(Formal),2021.2.3,Win32,60.24096386,,,,,,,,,,,,,,,,0,,,,,,,自卑,i,,,1,20,100,36,1,,,,,,,,,,,,,,,,,,,,,,,,,,,,,,,,,,
,,,,,,,,,,,,,,1,001,2024-09-04_10h06.38.900,IAT(Formal),2021.2.3,Win32,60.24096386,,,,,,,,,,,,,,,e,0,0.4318,,,,,,他的,i,,,1,21,101,77,1,,,,,,,,,,,,,,,,,,,,,,,,,,,,,,,,,,
,,,,,,,,,,,,,,1,001,2024-09-04_10h06.38.900,IAT(Formal),2021.2.3,Win32,60.24096386,,,,,,,,,,,,,,,e,1,0.5057,,,,,,正直,e,,,1,22,102,16,1,,,,,,,,,,,,,,,,,,,,,,,,,,,,,,,,,,
,,,,,,,,,,,,,,1,001,2024-09-04_10h06.38.900,IAT(Formal),2021.2.3,Win32,60.24096386,,,,,,,,,,,,,,,e,1,0.4305,,,,,,自己,e,,,1,23,103,63,1,,,,,,,,,,,,,,,,,,,,,,,,,,,,,,,,,,
,,,,,,,,,,,,,,1,001,2024-09-04_10h06.38.900,IAT(Formal),2021.2.3,Win32,60.24096386,,,,,,,,,,,,,,,i,1,0.4702,,,,,,他们,i,,,1,24,104,76,1,,,,,,,,,,,,,,,,,,,,,,,,,,,,,,,,,,
,,,,,,,,,,,,,,1,001,2024-09-04_10h06.38.900,IAT(Formal),2021.2.3,Win32,60.24096386,,,,,,,,,,,,,,,i,1,0.3949,,,,,,他的,i,,,1,25,105,57,1,,,,,,,,,,,,,,,,,,,,,,,,,,,,,,,,,,
,,,,,,,,,,,,,,1,001,2024-09-04_10h06.38.900,IAT(Formal),2021.2.3,Win32,60.24096386,,,,,,,,,,,,,,,i,1,0.6205,,,,,,自私,i,,,1,26,106,43,1,,,,,,,,,,,,,,,,,,,,,,,,,,,,,,,,,,
,,,,,,,,,,,,,,1,001,2024-09-04_10h06.38.900,IAT(Formal),2021.2.3,Win32,60.24096386,,,,,,,,,,,,,,,e,1,0.5373,,,,,,优秀,e,,,1,27,107,10,1,,,,,,,,,,,,,,,,,,,,,,,,,,,,,,,,,,
,,,,,,,,,,,,,,1,001,2024-09-04_10h06.38.900,IAT(Formal),2021.2.3,Win32,60.24096386,,,,,,,,,,,,,,,i,1,0.5589,,,,,,他,i,,,1,28,108,5,1,,,,,,,,,,,,,,,,,,,,,,,,,,,,,,,,,,
,,,,,,,,,,,,,,1,001,2024-09-04_10h06.38.900,IAT(Formal),2021.2.3,Win32,60.24096386,,,,,,,,,,,,,,,e,1,0.4202,,,,,,我,e,,,1,29,109,0,1,,,,,,,,,,,,,,,,,,,,,,,,,,,,,,,,,,
,,,,,,,,,,,,,,1,001,2024-09-04_10h06.38.900,IAT(Formal),2021.2.3,Win32,60.24096386,,,,,,,,,,,,,,,e,1,0.5594,,,,,,认真,e,,,1,30,110,20,1,,,,,,,,,,,,,,,,,,,,,,,,,,,,,,,,,,
,,,,,,,,,,,,,,1,001,2024-09-04_10h06.38.900,IAT(Formal),2021.2.3,Win32,60.24096386,,,,,,,,,,,,,,,e,1,0.4317,,,,,,我,e,,,1,31,111,70,1,,,,,,,,,,,,,,,,,,,,,,,,,,,,,,,,,,
,,,,,,,,,,,,,,1,001,2024-09-04_10h06.38.900,IAT(Formal),2021.2.3,Win32,60.24096386,,,,,,,,,,,,,,,i,1,0.4664,,,,,,他人,i,,,1,32,112,68,1,,,,,,,,,,,,,,,,,,,,,,,,,,,,,,,,,,
,,,,,,,,,,,,,,1,001,2024-09-04_10h06.38.900,IAT(Formal),2021.2.3,Win32,60.24096386,,,,,,,,,,,,,,,e,1,0.6617,,,,,,冷静,e,,,1,33,113,26,1,,,,,,,,,,,,,,,,,,,,,,,,,,,,,,,,,,
,,,,,,,,,,,,,,1,001,2024-09-04_10h06.38.900,IAT(Formal),2021.2.3,Win32,60.24096386,,,,,,,,,,,,,,,i,1,0.4638,,,,,,凶狠,i,,,1,34,114,42,1,,,,,,,,,,,,,,,,,,,,,,,,,,,,,,,,,,
,,,,,,,,,,,,,,1,001,2024-09-04_10h06.38.900,IAT(Formal),2021.2.3,Win32,60.24096386,,,,,,,,,,,,,,,i,1,0.626,,,,,,愚蠢,i,,,1,35,115,32,1,,,,,,,,,,,,,,,,,,,,,,,,,,,,,,,,,,
,,,,,,,,,,,,,,1,001,2024-09-04_10h06.38.900,IAT(Formal),2021.2.3,Win32,60.24096386,,,,,,,,,,,,,,,e,1,0.5778,,,,,,机智,e,,,1,36,116,19,1,,,,,,,,,,,,,,,,,,,,,,,,,,,,,,,,,,
,,,,,,,,,,,,,,1,001,2024-09-04_10h06.38.900,IAT(Formal),2021.2.3,Win32,60.24096386,,,,,,,,,,,,,,,e,1,0.4481,,,,,,我的,e,,,1,37,117,61,1,,,,,,,,,,,,,,,,,,,,,,,,,,,,,,,,,,
,,,,,,,,,,,,,,1,001,2024-09-04_10h06.38.900,IAT(Formal),2021.2.3,Win32,60.24096386,,,,,,,,,,,,,,,e,1,0.4317,,,,,,我,e,,,1,38,118,50,1,,,,,,,,,,,,,,,,,,,,,,,,,,,,,,,,,,
,,,,,,,,,,,,,,1,001,2024-09-04_10h06.38.900,IAT(Formal),2021.2.3,Win32,60.24096386,,,,,,,,,,,,,,,i,1,0.5655,,,,,,傲慢,i,,,1,39,119,37,1,,,,,,,,,,,,,,,,,,,,,,,,,,,,,,,,,,
,,,,,,,,,,,,,,1,001,2024-09-04_10h06.38.900,IAT(Formal),2021.2.3,Win32,60.24096386,,,,,,,,,,,,,,,i,1,0.4829,,,,,,鲁莽,i,,,1,40,120,38,1,,,,,,,,,,,,,,,,,,,,,,,,,,,,,,,,,,
,,,,,,,,,,,,,,1,001,2024-09-04_10h06.38.900,IAT(Formal),2021.2.3,Win32,60.24096386,,,,,,,,,,,,,,,e,1,0.5933,,,,,,俺,e,,,1,41,121,64,1,,,,,,,,,,,,,,,,,,,,,,,,,,,,,,,,,,
,,,,,,,,,,,,,,1,001,2024-09-04_10h06.38.900,IAT(Formal),2021.2.3,Win32,60.24096386,,,,,,,,,,,,,,,i,1,0.532,,,,,,虚伪,i,,,1,42,122,31,1,,,,,,,,,,,,,,,,,,,,,,,,,,,,,,,,,,
,,,,,,,,,,,,,,1,001,2024-09-04_10h06.38.900,IAT(Formal),2021.2.3,Win32,60.24096386,,,,,,,,,,,,,,,e,1,0.7805,,,,,,诚实,e,,,1,43,123,15,1,,,,,,,,,,,,,,,,,,,,,,,,,,,,,,,,,,
,,,,,,,,,,,,,,1,001,2024-09-04_10h06.38.900,IAT(Formal),2021.2.3,Win32,60.24096386,,,,,,,,,,,,,,,e,1,0.5049,,,,,,公正,e,,,1,44,124,23,1,,,,,,,,,,,,,,,,,,,,,,,,,,,,,,,,,,
,,,,,,,,,,,,,,1,001,2024-09-04_10h06.38.900,IAT(Formal),2021.2.3,Win32,60.24096386,,,,,,,,,,,,,,,i,1,0.5306,,,,,,暴躁,i,,,1,45,125,44,1,,,,,,,,,,,,,,,,,,,,,,,,,,,,,,,,,,
,,,,,,,,,,,,,,1,001,2024-09-04_10h06.38.900,IAT(Formal),2021.2.3,Win32,60.24096386,,,,,,,,,,,,,,,e,1,0.5153,,,,,,勇敢,e,,,1,46,126,17,1,,,,,,,,,,,,,,,,,,,,,,,,,,,,,,,,,,
,,,,,,,,,,,,,,1,001,2024-09-04_10h06.38.900,IAT(Formal),2021.2.3,Win32,60.24096386,,,,,,,,,,,,,,,e,1,0.7632,,,,,,诚恳,e,,,1,47,127,29,1,,,,,,,,,,,,,,,,,,,,,,,,,,,,,,,,,,
,,,,,,,,,,,,,,1,001,2024-09-04_10h06.38.900,IAT(Formal),2021.2.3,Win32,60.24096386,,,,,,,,,,,,,,,i,1,0.4736,,,,,,他人,i,,,1,48,128,8,1,,,,,,,,,,,,,,,,,,,,,,,,,,,,,,,,,,
,,,,,,,,,,,,,,1,001,2024-09-04_10h06.38.900,IAT(Formal),2021.2.3,Win32,60.24096386,,,,,,,,,,,,,,,i,1,0.5436,,,,,,冒失,i,,,1,49,129,39,1,,,,,,,,,,,,,,,,,,,,,,,,,,,,,,,,,,
,,,,,,,,,,,,,,1,001,2024-09-04_10h06.38.900,IAT(Formal),2021.2.3,Win32,60.24096386,,,,,,,,,,,,,,,e,1,0.5056,,,,,,俺,e,,,1,50,130,74,1,,,,,,,,,,,,,,,,,,,,,,,,,,,,,,,,,,
,,,,,,,,,,,,,,1,001,2024-09-04_10h06.38.900,IAT(Formal),2021.2.3,Win32,60.24096386,,,,,,,,,,,,,,,e,1,0.5934,,,,,,杰出,e,,,1,51,131,13,1,,,,,,,,,,,,,,,,,,,,,,,,,,,,,,,,,,
,,,,,,,,,,,,,,1,001,2024-09-04_10h06.38.900,IAT(Formal),2021.2.3,Win32,60.24096386,,,,,,,,,,,,,,,e,0,0.4736,,,,,,他,i,,,1,52,132,65,1,,,,,,,,,,,,,,,,,,,,,,,,,,,,,,,,,,
,,,,,,,,,,,,,,1,001,2024-09-04_10h06.38.900,IAT(Formal),2021.2.3,Win32,60.24096386,,,,,,,,,,,,,,,i,1,0.5027,,,,,,猖狂,i,,,1,53,133,45,1,,,,,,,,,,,,,,,,,,,,,,,,,,,,,,,,,,
,,,,,,,,,,,,,,1,001,2024-09-04_10h06.38.900,IAT(Formal),2021.2.3,Win32,60.24096386,,,,,,,,,,,,,,,e,1,0.5372,,,,,,活泼,e,,,1,54,134,28,1,,,,,,,,,,,,,,,,,,,,,,,,,,,,,,,,,,
,,,,,,,,,,,,,,1,001,2024-09-04_10h06.38.900,IAT(Formal),2021.2.3,Win32,60.24096386,,,,,,,,,,,,,,,e,1,0.4732,,,,,,我们,e,,,1,55,135,72,1,,,,,,,,,,,,,,,,,,,,,,,,,,,,,,,,,,
,,,,,,,,,,,,,,1,001,2024-09-04_10h06.38.900,IAT(Formal),2021.2.3,Win32,60.24096386,,,,,,,,,,,,,,,e,1,0.6253,,,,,,乐观,e,,,1,56,136,14,1,,,,,,,,,,,,,,,,,,,,,,,,,,,,,,,,,,
,,,,,,,,,,,,,,1,001,2024-09-04_10h06.38.900,IAT(Formal),2021.2.3,Win32,60.24096386,,,,,,,,,,,,,,,e,1,0.7091,,,,,,无私,e,,,1,57,137,22,1,,,,,,,,,,,,,,,,,,,,,,,,,,,,,,,,,,
,,,,,,,,,,,,,,1,001,2024-09-04_10h06.38.900,IAT(Formal),2021.2.3,Win32,60.24096386,,,,,,,,,,,,,,,i,1,0.8978,,,,,,他们,i,,,1,58,138,66,1,,,,,,,,,,,,,,,,,,,,,,,,,,,,,,,,,,
,,,,,,,,,,,,,,1,001,2024-09-04_10h06.38.900,IAT(Formal),2021.2.3,Win32,60.24096386,,,,,,,,,,,,,,,e,1,0.5672,,,,,,细腻,e,,,1,59,139,25,1,,,,,,,,,,,,,,,,,,,,,,,,,,,,,,,,,,
,,,,,,,,,,,,,,1,001,2024-09-04_10h06.38.900,IAT(Formal),2021.2.3,Win32,60.24096386,,,,,,,,,,,,,,,i,1,0.4887,,,,,,他的,i,,,1,60,140,67,1,,,,,,,,,,,,,,,,,,,,,,,,,,,,,,,,,,
,,,,,,,,,,,,,,1,001,2024-09-04_10h06.38.900,IAT(Formal),2021.2.3,Win32,60.24096386,,,,,,,,,,,,,,,i,1,0.6233,,,,,,他,i,,,1,61,141,75,1,,,,,,,,,,,,,,,,,,,,,,,,,,,,,,,,,,
,,,,,,,,,,,,,,1,001,2024-09-04_10h06.38.900,IAT(Formal),2021.2.3,Win32,60.24096386,,,,,,,,,,,,,,,i,1,0.5207,,,,,,他的,i,,,1,62,142,7,1,,,,,,,,,,,,,,,,,,,,,,,,,,,,,,,,,,
,,,,,,,,,,,,,,1,001,2024-09-04_10h06.38.900,IAT(Formal),2021.2.3,Win32,60.24096386,,,,,,,,,,,,,,,e,1,0.4642,,,,,,朴实,e,,,1,63,143,24,1,,,,,,,,,,,,,,,,,,,,,,,,,,,,,,,,,,
,,,,,,,,,,,,,,1,001,2024-09-04_10h06.38.900,IAT(Formal),2021.2.3,Win32,60.24096386,,,,,,,,,,,,,,,e,1,0.487,,,,,,聪明,e,,,1,64,144,12,1,,,,,,,,,,,,,,,,,,,,,,,,,,,,,,,,,,
,,,,,,,,,,,,,,1,001,2024-09-04_10h06.38.900,IAT(Formal),2021.2.3,Win32,60.24096386,,,,,,,,,,,,,,,i,1,0.5381,,,,,,固执,i,,,1,65,145,47,1,,,,,,,,,,,,,,,,,,,,,,,,,,,,,,,,,,
,,,,,,,,,,,,,,1,001,2024-09-04_10h06.38.900,IAT(Formal),2021.2.3,Win32,60.24096386,,,,,,,,,,,,,,,i,1,0.8541,,,,,,刻薄,i,,,1,66,146,33,1,,,,,,,,,,,,,,,,,,,,,,,,,,,,,,,,,,
,,,,,,,,,,,,,,1,001,2024-09-04_10h06.38.900,IAT(Formal),2021.2.3,Win32,60.24096386,,,,,,,,,,,,,,,e,1,0.4169,,,,,,我,e,,,1,67,147,60,1,,,,,,,,,,,,,,,,,,,,,,,,,,,,,,,,,,
,,,,,,,,,,,,,,1,001,2024-09-04_10h06.38.900,IAT(Formal),2021.2.3,Win32,60.24096386,,,,,,,,,,,,,,,e,1,0.4558,,,,,,我们,e,,,1,68,148,2,1,,,,,,,,,,,,,,,,,,,,,,,,,,,,,,,,,,
,,,,,,,,,,,,,,1,001,2024-09-04_10h06.38.900,IAT(Formal),2021.2.3,Win32,60.24096386,,,,,,,,,,,,,,,e,1,0.6163,,,,,,稳重,e,,,1,69,149,21,1,,,,,,,,,,,,,,,,,,,,,,,,,,,,,,,,,,
,,,,,,,,,,,,,,1,001,2024-09-04_10h06.38.900,IAT(Formal),2021.2.3,Win32,60.24096386,,,,,,,,,,,,,,,e,1,0.7398,,,,,,崇高,e,,,1,70,150,11,1,,,,,,,,,,,,,,,,,,,,,,,,,,,,,,,,,,
,,,,,,,,,,,,,,1,001,2024-09-04_10h06.38.900,IAT(Formal),2021.2.3,Win32,60.24096386,,,,,,,,,,,,,,,i,1,0.5965,,,,,,他人,i,,,1,71,151,78,1,,,,,,,,,,,,,,,,,,,,,,,,,,,,,,,,,,
,,,,,,,,,,,,,,1,001,2024-09-04_10h06.38.900,IAT(Formal),2021.2.3,Win32,60.24096386,,,,,,,,,,,,,,,e,1,0.4704,,,,,,自己,e,,,1,72,152,53,1,,,,,,,,,,,,,,,,,,,,,,,,,,,,,,,,,,
,,,,,,,,,,,,,,1,001,2024-09-04_10h06.38.900,IAT(Formal),2021.2.3,Win32,60.24096386,,,,,,,,,,,,,,,i,1,0.6809,,,,,,下贱,i,,,1,73,153,49,1,,,,,,,,,,,,,,,,,,,,,,,,,,,,,,,,,,
,,,,,,,,,,,,,,1,001,2024-09-04_10h06.38.900,IAT(Formal),2021.2.3,Win32,60.24096386,,,,,,,,,,,,,,,i,1,0.8041,,,,,,消极,i,,,1,74,154,35,1,,,,,,,,,,,,,,,,,,,,,,,,,,,,,,,,,,
,,,,,,,,,,,,,,1,001,2024-09-04_10h06.38.900,IAT(Formal),2021.2.3,Win32,60.24096386,,,,,,,,,,,,,,,i,1,0.556,,,,,,散漫,i,,,1,75,155,41,1,,,,,,,,,,,,,,,,,,,,,,,,,,,,,,,,,,
,,,,,,,,,,,,,,1,001,2024-09-04_10h06.38.900,IAT(Formal),2021.2.3,Win32,60.24096386,,,,,,,,,,,,,,,e,1,0.5819,,,,,,俺,e,,,1,76,156,4,1,,,,,,,,,,,,,,,,,,,,,,,,,,,,,,,,,,
,,,,,,,,,,,,,,1,001,2024-09-04_10h06.38.900,IAT(Formal),2021.2.3,Win32,60.24096386,,,,,,,,,,,,,,,e,1,0.4181,,,,,,自己,e,,,1,77,157,3,1,,,,,,,,,,,,,,,,,,,,,,,,,,,,,,,,,,
,,,,,,,,,,,,,,1,001,2024-09-04_10h06.38.900,IAT(Formal),2021.2.3,Win32,60.24096386,,,,,,,,,,,,,,,e,1,0.3898,,,,,,我的,e,,,1,78,158,1,1,,,,,,,,,,,,,,,,,,,,,,,,,,,,,,,,,,
,,,,,,,,,,,,,,1,001,2024-09-04_10h06.38.900,IAT(Formal),2021.2.3,Win32,60.24096386,,,,,,,,,,,,,,,e,1,0.3675,,,,,,自己,e,,,1,79,159,73,1,,,,,,,,,,,,,,,,,,,,,,,,,,,,,,,,,,
,,,,,,,,,,,,他人,e,1,001,2024-09-04_10h06.38.900,IAT(Formal),2021.2.3,Win32,60.24096386,,,,,,,,,,,,,,,,,,,,,,,,,,,,,,,,space,11.7313,e,1,0.4644,0,0,0,8,1,,,,,,,,,,,,,,,,,,,,,,,,
,,,,,,,,,,,,我,i,1,001,2024-09-04_10h06.38.900,IAT(Formal),2021.2.3,Win32,60.24096386,,,,,,,,,,,,,,,,,,,,,,,,,,,,,,,,,,i,1,0.4947,0,1,1,0,1,,,,,,,,,,,,,,,,,,,,,,,,
,,,,,,,,,,,,俺,i,1,001,2024-09-04_10h06.38.900,IAT(Formal),2021.2.3,Win32,60.24096386,,,,,,,,,,,,,,,,,,,,,,,,,,,,,,,,,,i,1,0.6425,0,2,2,4,1,,,,,,,,,,,,,,,,,,,,,,,,
,,,,,,,,,,,,他,e,1,001,2024-09-04_10h06.38.900,IAT(Formal),2021.2.3,Win32,60.24096386,,,,,,,,,,,,,,,,,,,,,,,,,,,,,,,,,,e,1,0.5595,0,3,3,5,1,,,,,,,,,,,,,,,,,,,,,,,,
,,,,,,,,,,,,其他,e,1,001,2024-09-04_10h06.38.900,IAT(Formal),2021.2.3,Win32,60.24096386,,,,,,,,,,,,,,,,,,,,,,,,,,,,,,,,,,e,1,0.454,0,4,4,9,1,,,,,,,,,,,,,,,,,,,,,,,,
,,,,,,,,,,,,他们,e,1,001,2024-09-04_10h06.38.900,IAT(Formal),2021.2.3,Win32,60.24096386,,,,,,,,,,,,,,,,,,,,,,,,,,,,,,,,,,e,1,0.4363,0,5,5,6,1,,,,,,,,,,,,,,,,,,,,,,,,
,,,,,,,,,,,,他的,e,1,001,2024-09-04_10h06.38.900,IAT(Formal),2021.2.3,Win32,60.24096386,,,,,,,,,,,,,,,,,,,,,,,,,,,,,,,,,,e,1,0.4588,0,6,6,7,1,,,,,,,,,,,,,,,,,,,,,,,,
,,,,,,,,,,,,我们,i,1,001,2024-09-04_10h06.38.900,IAT(Formal),2021.2.3,Win32,60.24096386,,,,,,,,,,,,,,,,,,,,,,,,,,,,,,,,,,i,1,0.4882,0,7,7,2,1,,,,,,,,,,,,,,,,,,,,,,,,
,,,,,,,,,,,,我的,i,1,001,2024-09-04_10h06.38.900,IAT(Formal),2021.2.3,Win32,60.24096386,,,,,,,,,,,,,,,,,,,,,,,,,,,,,,,,,,i,1,0.4571,0,8,8,1,1,,,,,,,,,,,,,,,,,,,,,,,,
,,,,,,,,,,,,自己,i,1,001,2024-09-04_10h06.38.900,IAT(Formal),2021.2.3,Win32,60.24096386,,,,,,,,,,,,,,,,,,,,,,,,,,,,,,,,,,i,1,0.4713,0,9,9,3,1,,,,,,,,,,,,,,,,,,,,,,,,
,,,,,,,,,,,,,,1,001,2024-09-04_10h06.38.900,IAT(Formal),2021.2.3,Win32,60.24096386,,,,,,,,,,,,,,,,,,,,,,,,,,,,,,,,,,,,,,,,,,space,2.3303,i,1,0.5026,0,0,0,60,1,我,i,,,,,,,,,,,,
,,,,,,,,,,,,,,1,001,2024-09-04_10h06.38.900,IAT(Formal),2021.2.3,Win32,60.24096386,,,,,,,,,,,,,,,,,,,,,,,,,,,,,,,,,,,,,,,,,,,,i,1,0.5337,0,1,1,3,1,自己,i,,,,,,,,,,,,
,,,,,,,,,,,,,,1,001,2024-09-04_10h06.38.900,IAT(Formal),2021.2.3,Win32,60.24096386,,,,,,,,,,,,,,,,,,,,,,,,,,,,,,,,,,,,,,,,,,,,e,0,0.4004,0,2,2,39,1,冒失,i,,,,,,,,,,,,
,,,,,,,,,,,,,,1,001,2024-09-04_10h06.38.900,IAT(Formal),2021.2.3,Win32,60.24096386,,,,,,,,,,,,,,,,,,,,,,,,,,,,,,,,,,,,,,,,,,,,,0,,0,3,3,24,1,朴实,e,,,,,,,,,,,,
,,,,,,,,,,,,,,1,001,2024-09-04_10h06.38.900,IAT(Formal),2021.2.3,Win32,60.24096386,,,,,,,,,,,,,,,,,,,,,,,,,,,,,,,,,,,,,,,,,,,,e,1,0.6793,0,4,4,66,1,他们,e,,,,,,,,,,,,
,,,,,,,,,,,,,,1,001,2024-09-04_10h06.38.900,IAT(Formal),2021.2.3,Win32,60.24096386,,,,,,,,,,,,,,,,,,,,,,,,,,,,,,,,,,,,,,,,,,,,e,1,0.5252,0,5,5,8,1,他人,e,,,,,,,,,,,,
,,,,,,,,,,,,,,1,001,2024-09-04_10h06.38.900,IAT(Formal),2021.2.3,Win32,60.24096386,,,,,,,,,,,,,,,,,,,,,,,,,,,,,,,,,,,,,,,,,,,,i,1,0.4346,0,6,6,71,1,我的,i,,,,,,,,,,,,
,,,,,,,,,,,,,,1,001,2024-09-04_10h06.38.900,IAT(Formal),2021.2.3,Win32,60.24096386,,,,,,,,,,,,,,,,,,,,,,,,,,,,,,,,,,,,,,,,,,,,e,1,0.5052,0,7,7,27,1,热情,e,,,,,,,,,,,,
,,,,,,,,,,,,,,1,001,2024-09-04_10h06.38.900,IAT(Formal),2021.2.3,Win32,60.24096386,,,,,,,,,,,,,,,,,,,,,,,,,,,,,,,,,,,,,,,,,,,,e,1,0.7547,0,8,8,10,1,优秀,e,,,,,,,,,,,,
,,,,,,,,,,,,,,1,001,2024-09-04_10h06.38.900,IAT(Formal),2021.2.3,Win32,60.24096386,,,,,,,,,,,,,,,,,,,,,,,,,,,,,,,,,,,,,,,,,,,,e,1,0.5756,0,9,9,55,1,他,e,,,,,,,,,,,,
,,,,,,,,,,,,,,1,001,2024-09-04_10h06.38.900,IAT(Formal),2021.2.3,Win32,60.24096386,,,,,,,,,,,,,,,,,,,,,,,,,,,,,,,,,,,,,,,,,,,,i,0,0.7952,0,10,10,12,1,聪明,e,,,,,,,,,,,,
,,,,,,,,,,,,,,1,001,2024-09-04_10h06.38.900,IAT(Formal),2021.2.3,Win32,60.24096386,,,,,,,,,,,,,,,,,,,,,,,,,,,,,,,,,,,,,,,,,,,,e,1,0.4914,0,11,11,16,1,正直,e,,,,,,,,,,,,
,,,,,,,,,,,,,,1,001,2024-09-04_10h06.38.900,IAT(Formal),2021.2.3,Win32,60.24096386,,,,,,,,,,,,,,,,,,,,,,,,,,,,,,,,,,,,,,,,,,,,e,1,0.6727,0,12,12,5,1,他,e,,,,,,,,,,,,
,,,,,,,,,,,,,,1,001,2024-09-04_10h06.38.900,IAT(Formal),2021.2.3,Win32,60.24096386,,,,,,,,,,,,,,,,,,,,,,,,,,,,,,,,,,,,,,,,,,,,e,0,0.4605,0,13,13,37,1,傲慢,i,,,,,,,,,,,,
,,,,,,,,,,,,,,1,001,2024-09-04_10h06.38.900,IAT(Formal),2021.2.3,Win32,60.24096386,,,,,,,,,,,,,,,,,,,,,,,,,,,,,,,,,,,,,,,,,,,,i,1,0.8422,0,14,14,4,1,俺,i,,,,,,,,,,,,
,,,,,,,,,,,,,,1,001,2024-09-04_10h06.38.900,IAT(Formal),2021.2.3,Win32,60.24096386,,,,,,,,,,,,,,,,,,,,,,,,,,,,,,,,,,,,,,,,,,,,e,1,0.6207,0,15,15,22,1,无私,e,,,,,,,,,,,,
,,,,,,,,,,,,,,1,001,2024-09-04_10h06.38.900,IAT(Formal),2021.2.3,Win32,60.24096386,,,,,,,,,,,,,,,,,,,,,,,,,,,,,,,,,,,,,,,,,,,,i,1,0.8848,0,16,16,54,1,俺,i,,,,,,,,,,,,
,,,,,,,,,,,,,,1,001,2024-09-04_10h06.38.900,IAT(Formal),2021.2.3,Win32,60.24096386,,,,,,,,,,,,,,,,,,,,,,,,,,,,,,,,,,,,,,,,,,,,i,1,0.6176,0,17,17,63,1,自己,i,,,,,,,,,,,,
,,,,,,,,,,,,,,1,001,2024-09-04_10h06.38.900,IAT(Formal),2021.2.3,Win32,60.24096386,,,,,,,,,,,,,,,,,,,,,,,,,,,,,,,,,,,,,,,,,,,,e,1,0.7192,0,18,18,14,1,乐观,e,,,,,,,,,,,,
,,,,,,,,,,,,,,1,001,2024-09-04_10h06.38.900,IAT(Formal),2021.2.3,Win32,60.24096386,,,,,,,,,,,,,,,,,,,,,,,,,,,,,,,,,,,,,,,,,,,,i,1,0.6523,0,19,19,47,1,固执,i,,,,,,,,,,,,
,,,,,,,,,,,,,,1,001,2024-09-04_10h06.38.900,IAT(Formal),2021.2.3,Win32,60.24096386,,,,,,,,,,,,,,,,,,,,,,,,,,,,,,,,,,,,,,,,,,,,e,1,0.5681,0,20,20,56,1,他们,e,,,,,,,,,,,,
,,,,,,,,,,,,,,1,001,2024-09-04_10h06.38.900,IAT(Formal),2021.2.3,Win32,60.24096386,,,,,,,,,,,,,,,,,,,,,,,,,,,,,,,,,,,,,,,,,,,,i,0,0.8677,0,21,21,25,1,细腻,e,,,,,,,,,,,,
,,,,,,,,,,,,,,1,001,2024-09-04_10h06.38.900,IAT(Formal),2021.2.3,Win32,60.24096386,,,,,,,,,,,,,,,,,,,,,,,,,,,,,,,,,,,,,,,,,,,,e,0,0.6805,0,22,22,42,1,凶狠,i,,,,,,,,,,,,
,,,,,,,,,,,,,,1,001,2024-09-04_10h06.38.900,IAT(Formal),2021.2.3,Win32,60.24096386,,,,,,,,,,,,,,,,,,,,,,,,,,,,,,,,,,,,,,,,,,,,i,1,0.6225,0,23,23,64,1,俺,i,,,,,,,,,,,,
,,,,,,,,,,,,,,1,001,2024-09-04_10h06.38.900,IAT(Formal),2021.2.3,Win32,60.24096386,,,,,,,,,,,,,,,,,,,,,,,,,,,,,,,,,,,,,,,,,,,,i,1,0.8942,0,24,24,44,1,暴躁,i,,,,,,,,,,,,
,,,,,,,,,,,,,,1,001,2024-09-04_10h06.38.900,IAT(Formal),2021.2.3,Win32,60.24096386,,,,,,,,,,,,,,,,,,,,,,,,,,,,,,,,,,,,,,,,,,,,i,1,0.7776,0,25,25,40,1,执拗,i,,,,,,,,,,,,
,,,,,,,,,,,,,,1,001,2024-09-04_10h06.38.900,IAT(Formal),2021.2.3,Win32,60.24096386,,,,,,,,,,,,,,,,,,,,,,,,,,,,,,,,,,,,,,,,,,,,i,1,0.7995,0,26,26,1,1,我的,i,,,,,,,,,,,,
,,,,,,,,,,,,,,1,001,2024-09-04_10h06.38.900,IAT(Formal),2021.2.3,Win32,60.24096386,,,,,,,,,,,,,,,,,,,,,,,,,,,,,,,,,,,,,,,,,,,,e,1,0.4719,0,27,27,69,1,其他,e,,,,,,,,,,,,
,,,,,,,,,,,,,,1,001,2024-09-04_10h06.38.900,IAT(Formal),2021.2.3,Win32,60.24096386,,,,,,,,,,,,,,,,,,,,,,,,,,,,,,,,,,,,,,,,,,,,e,1,0.4357,0,28,28,79,1,其他,e,,,,,,,,,,,,
,,,,,,,,,,,,,,1,001,2024-09-04_10h06.38.900,IAT(Formal),2021.2.3,Win32,60.24096386,,,,,,,,,,,,,,,,,,,,,,,,,,,,,,,,,,,,,,,,,,,,e,1,0.5658,0,29,29,67,1,他的,e,,,,,,,,,,,,
,,,,,,,,,,,,,,1,001,2024-09-04_10h06.38.900,IAT(Formal),2021.2.3,Win32,60.24096386,,,,,,,,,,,,,,,,,,,,,,,,,,,,,,,,,,,,,,,,,,,,i,1,0.4589,0,30,30,50,1,我,i,,,,,,,,,,,,
,,,,,,,,,,,,,,1,001,2024-09-04_10h06.38.900,IAT(Formal),2021.2.3,Win32,60.24096386,,,,,,,,,,,,,,,,,,,,,,,,,,,,,,,,,,,,,,,,,,,,e,1,0.6843,0,31,31,75,1,他,e,,,,,,,,,,,,
,,,,,,,,,,,,,,1,001,2024-09-04_10h06.38.900,IAT(Formal),2021.2.3,Win32,60.24096386,,,,,,,,,,,,,,,,,,,,,,,,,,,,,,,,,,,,,,,,,,,,e,1,0.62,0,32,32,57,1,他的,e,,,,,,,,,,,,
,,,,,,,,,,,,,,1,001,2024-09-04_10h06.38.900,IAT(Formal),2021.2.3,Win32,60.24096386,,,,,,,,,,,,,,,,,,,,,,,,,,,,,,,,,,,,,,,,,,,,e,1,1.4108,0,33,33,26,1,冷静,e,,,,,,,,,,,,
,,,,,,,,,,,,,,1,001,2024-09-04_10h06.38.900,IAT(Formal),2021.2.3,Win32,60.24096386,,,,,,,,,,,,,,,,,,,,,,,,,,,,,,,,,,,,,,,,,,,,i,1,0.5529,0,34,34,72,1,我们,i,,,,,,,,,,,,
,,,,,,,,,,,,,,1,001,2024-09-04_10h06.38.900,IAT(Formal),2021.2.3,Win32,60.24096386,,,,,,,,,,,,,,,,,,,,,,,,,,,,,,,,,,,,,,,,,,,,e,1,0.9239,0,35,35,18,1,勤奋,e,,,,,,,,,,,,
,,,,,,,,,,,,,,1,001,2024-09-04_10h06.38.900,IAT(Formal),2021.2.3,Win32,60.24096386,,,,,,,,,,,,,,,,,,,,,,,,,,,,,,,,,,,,,,,,,,,,e,1,0.5143,0,36,36,20,1,认真,e,,,,,,,,,,,,
,,,,,,,,,,,,,,1,001,2024-09-04_10h06.38.900,IAT(Formal),2021.2.3,Win32,60.24096386,,,,,,,,,,,,,,,,,,,,,,,,,,,,,,,,,,,,,,,,,,,,i,1,0.6685,0,37,37,30,1,卑鄙,i,,,,,,,,,,,,
,,,,,,,,,,,,,,1,001,2024-09-04_10h06.38.900,IAT(Formal),2021.2.3,Win32,60.24096386,,,,,,,,,,,,,,,,,,,,,,,,,,,,,,,,,,,,,,,,,,,,e,1,0.5284,0,38,38,78,1,他人,e,,,,,,,,,,,,
,,,,,,,,,,,,,,1,001,2024-09-04_10h06.38.900,IAT(Formal),2021.2.3,Win32,60.24096386,,,,,,,,,,,,,,,,,,,,,,,,,,,,,,,,,,,,,,,,,,,,e,0,0.7718,0,39,39,48,1,轻率,i,,,,,,,,,,,,
,,,,,,,,,,,,,,1,001,2024-09-04_10h06.38.900,IAT(Formal),2021.2.3,Win32,60.24096386,,,,,,,,,,,,,,,,,,,,,,,,,,,,,,,,,,,,,,,,,,,,i,1,0.7177,0,40,40,52,1,我们,i,,,,,,,,,,,,
,,,,,,,,,,,,,,1,001,2024-09-04_10h06.38.900,IAT(Formal),2021.2.3,Win32,60.24096386,,,,,,,,,,,,,,,,,,,,,,,,,,,,,,,,,,,,,,,,,,,,i,1,0.5636,0,41,41,51,1,我的,i,,,,,,,,,,,,
,,,,,,,,,,,,,,1,001,2024-09-04_10h06.38.900,IAT(Formal),2021.2.3,Win32,60.24096386,,,,,,,,,,,,,,,,,,,,,,,,,,,,,,,,,,,,,,,,,,,,i,1,0.4786,0,42,42,61,1,我的,i,,,,,,,,,,,,
,,,,,,,,,,,,,,1,001,2024-09-04_10h06.38.900,IAT(Formal),2021.2.3,Win32,60.24096386,,,,,,,,,,,,,,,,,,,,,,,,,,,,,,,,,,,,,,,,,,,,i,0,0.7788,0,43,43,15,1,诚实,e,,,,,,,,,,,,
,,,,,,,,,,,,,,1,001,2024-09-04_10h06.38.900,IAT(Formal),2021.2.3,Win32,60.24096386,,,,,,,,,,,,,,,,,,,,,,,,,,,,,,,,,,,,,,,,,,,,e,1,0.5518,0,44,44,29,1,诚恳,e,,,,,,,,,,,,
,,,,,,,,,,,,,,1,001,2024-09-04_10h06.38.900,IAT(Formal),2021.2.3,Win32,60.24096386,,,,,,,,,,,,,,,,,,,,,,,,,,,,,,,,,,,,,,,,,,,,i,1,0.6701,0,45,45,62,1,我们,i,,,,,,,,,,,,
,,,,,,,,,,,,,,1,001,2024-09-04_10h06.38.900,IAT(Formal),2021.2.3,Win32,60.24096386,,,,,,,,,,,,,,,,,,,,,,,,,,,,,,,,,,,,,,,,,,,,i,1,0.529,0,46,46,53,1,自己,i,,,,,,,,,,,,
,,,,,,,,,,,,,,1,001,2024-09-04_10h06.38.900,IAT(Formal),2021.2.3,Win32,60.24096386,,,,,,,,,,,,,,,,,,,,,,,,,,,,,,,,,,,,,,,,,,,,e,0,0.4593,0,47,47,46,1,野蛮,i,,,,,,,,,,,,
,,,,,,,,,,,,,,1,001,2024-09-04_10h06.38.900,IAT(Formal),2021.2.3,Win32,60.24096386,,,,,,,,,,,,,,,,,,,,,,,,,,,,,,,,,,,,,,,,,,,,e,1,0.7044,0,48,48,76,1,他们,e,,,,,,,,,,,,
,,,,,,,,,,,,,,1,001,2024-09-04_10h06.38.900,IAT(Formal),2021.2.3,Win32,60.24096386,,,,,,,,,,,,,,,,,,,,,,,,,,,,,,,,,,,,,,,,,,,,e,1,0.6803,0,49,49,17,1,勇敢,e,,,,,,,,,,,,
,,,,,,,,,,,,,,1,001,2024-09-04_10h06.38.900,IAT(Formal),2021.2.3,Win32,60.24096386,,,,,,,,,,,,,,,,,,,,,,,,,,,,,,,,,,,,,,,,,,,,i,1,0.6405,0,50,50,45,1,猖狂,i,,,,,,,,,,,,
,,,,,,,,,,,,,,1,001,2024-09-04_10h06.38.900,IAT(Formal),2021.2.3,Win32,60.24096386,,,,,,,,,,,,,,,,,,,,,,,,,,,,,,,,,,,,,,,,,,,,e,1,0.5267,0,51,51,58,1,他人,e,,,,,,,,,,,,
,,,,,,,,,,,,,,1,001,2024-09-04_10h06.38.900,IAT(Formal),2021.2.3,Win32,60.24096386,,,,,,,,,,,,,,,,,,,,,,,,,,,,,,,,,,,,,,,,,,,,e,1,0.5666,0,52,52,9,1,其他,e,,,,,,,,,,,,
,,,,,,,,,,,,,,1,001,2024-09-04_10h06.38.900,IAT(Formal),2021.2.3,Win32,60.24096386,,,,,,,,,,,,,,,,,,,,,,,,,,,,,,,,,,,,,,,,,,,,i,1,0.5607,0,53,53,74,1,俺,i,,,,,,,,,,,,
,,,,,,,,,,,,,,1,001,2024-09-04_10h06.38.900,IAT(Formal),2021.2.3,Win32,60.24096386,,,,,,,,,,,,,,,,,,,,,,,,,,,,,,,,,,,,,,,,,,,,e,1,0.6439,0,54,54,59,1,其他,e,,,,,,,,,,,,
,,,,,,,,,,,,,,1,001,2024-09-04_10h06.38.900,IAT(Formal),2021.2.3,Win32,60.24096386,,,,,,,,,,,,,,,,,,,,,,,,,,,,,,,,,,,,,,,,,,,,e,0,0.5393,0,55,55,32,1,愚蠢,i,,,,,,,,,,,,
,,,,,,,,,,,,,,1,001,2024-09-04_10h06.38.900,IAT(Formal),2021.2.3,Win32,60.24096386,,,,,,,,,,,,,,,,,,,,,,,,,,,,,,,,,,,,,,,,,,,,e,1,0.7005,0,56,56,11,1,崇高,e,,,,,,,,,,,,
,,,,,,,,,,,,,,1,001,2024-09-04_10h06.38.900,IAT(Formal),2021.2.3,Win32,60.24096386,,,,,,,,,,,,,,,,,,,,,,,,,,,,,,,,,,,,,,,,,,,,e,1,0.4834,0,57,57,6,1,他们,e,,,,,,,,,,,,
,,,,,,,,,,,,,,1,001,2024-09-04_10h06.38.900,IAT(Formal),2021.2.3,Win32,60.24096386,,,,,,,,,,,,,,,,,,,,,,,,,,,,,,,,,,,,,,,,,,,,e,1,0.5995,0,58,58,7,1,他的,e,,,,,,,,,,,,
,,,,,,,,,,,,,,1,001,2024-09-04_10h06.38.900,IAT(Formal),2021.2.3,Win32,60.24096386,,,,,,,,,,,,,,,,,,,,,,,,,,,,,,,,,,,,,,,,,,,,i,1,0.6015,0,59,59,2,1,我们,i,,,,,,,,,,,,
,,,,,,,,,,,,,,1,001,2024-09-04_10h06.38.900,IAT(Formal),2021.2.3,Win32,60.24096386,,,,,,,,,,,,,,,,,,,,,,,,,,,,,,,,,,,,,,,,,,,,e,0,0.7461,0,60,60,38,1,鲁莽,i,,,,,,,,,,,,
,,,,,,,,,,,,,,1,001,2024-09-04_10h06.38.900,IAT(Formal),2021.2.3,Win32,60.24096386,,,,,,,,,,,,,,,,,,,,,,,,,,,,,,,,,,,,,,,,,,,,i,1,0.6584,0,61,61,41,1,散漫,i,,,,,,,,,,,,
,,,,,,,,,,,,,,1,001,2024-09-04_10h06.38.900,IAT(Formal),2021.2.3,Win32,60.24096386,,,,,,,,,,,,,,,,,,,,,,,,,,,,,,,,,,,,,,,,,,,,e,1,0.8513,0,62,62,21,1,稳重,e,,,,,,,,,,,,
,,,,,,,,,,,,,,1,001,2024-09-04_10h06.38.900,IAT(Formal),2021.2.3,Win32,60.24096386,,,,,,,,,,,,,,,,,,,,,,,,,,,,,,,,,,,,,,,,,,,,i,1,0.5334,0,63,63,70,1,我,i,,,,,,,,,,,,
,,,,,,,,,,,,,,1,001,2024-09-04_10h06.38.900,IAT(Formal),2021.2.3,Win32,60.24096386,,,,,,,,,,,,,,,,,,,,,,,,,,,,,,,,,,,,,,,,,,,,i,1,0.9903,0,64,64,49,1,下贱,i,,,,,,,,,,,,
,,,,,,,,,,,,,,1,001,2024-09-04_10h06.38.900,IAT(Formal),2021.2.3,Win32,60.24096386,,,,,,,,,,,,,,,,,,,,,,,,,,,,,,,,,,,,,,,,,,,,e,1,0.5099,0,65,65,65,1,他,e,,,,,,,,,,,,
,,,,,,,,,,,,,,1,001,2024-09-04_10h06.38.900,IAT(Formal),2021.2.3,Win32,60.24096386,,,,,,,,,,,,,,,,,,,,,,,,,,,,,,,,,,,,,,,,,,,,e,1,0.6174,0,66,66,28,1,活泼,e,,,,,,,,,,,,
,,,,,,,,,,,,,,1,001,2024-09-04_10h06.38.900,IAT(Formal),2021.2.3,Win32,60.24096386,,,,,,,,,,,,,,,,,,,,,,,,,,,,,,,,,,,,,,,,,,,,i,1,0.6334,0,67,67,34,1,悲观,i,,,,,,,,,,,,
,,,,,,,,,,,,,,1,001,2024-09-04_10h06.38.900,IAT(Formal),2021.2.3,Win32,60.24096386,,,,,,,,,,,,,,,,,,,,,,,,,,,,,,,,,,,,,,,,,,,,e,1,0.5098,0,68,68,23,1,公正,e,,,,,,,,,,,,
,,,,,,,,,,,,,,1,001,2024-09-04_10h06.38.900,IAT(Formal),2021.2.3,Win32,60.24096386,,,,,,,,,,,,,,,,,,,,,,,,,,,,,,,,,,,,,,,,,,,,e,1,0.91,0,69,69,19,1,机智,e,,,,,,,,,,,,
,,,,,,,,,,,,,,1,001,2024-09-04_10h06.38.900,IAT(Formal),2021.2.3,Win32,60.24096386,,,,,,,,,,,,,,,,,,,,,,,,,,,,,,,,,,,,,,,,,,,,i,1,0.5498,0,70,70,0,1,我,i,,,,,,,,,,,,
,,,,,,,,,,,,,,1,001,2024-09-04_10h06.38.900,IAT(Formal),2021.2.3,Win32,60.24096386,,,,,,,,,,,,,,,,,,,,,,,,,,,,,,,,,,,,,,,,,,,,e,1,0.4416,0,71,71,68,1,他人,e,,,,,,,,,,,,
,,,,,,,,,,,,,,1,001,2024-09-04_10h06.38.900,IAT(Formal),2021.2.3,Win32,60.24096386,,,,,,,,,,,,,,,,,,,,,,,,,,,,,,,,,,,,,,,,,,,,e,1,0.6263,0,72,72,77,1,他的,e,,,,,,,,,,,,
,,,,,,,,,,,,,,1,001,2024-09-04_10h06.38.900,IAT(Formal),2021.2.3,Win32,60.24096386,,,,,,,,,,,,,,,,,,,,,,,,,,,,,,,,,,,,,,,,,,,,i,0,0.5999,0,73,73,13,1,杰出,e,,,,,,,,,,,,
,,,,,,,,,,,,,,1,001,2024-09-04_10h06.38.900,IAT(Formal),2021.2.3,Win32,60.24096386,,,,,,,,,,,,,,,,,,,,,,,,,,,,,,,,,,,,,,,,,,,,i,1,0.6846,0,74,74,35,1,消极,i,,,,,,,,,,,,
,,,,,,,,,,,,,,1,001,2024-09-04_10h06.38.900,IAT(Formal),2021.2.3,Win32,60.24096386,,,,,,,,,,,,,,,,,,,,,,,,,,,,,,,,,,,,,,,,,,,,e,0,0.9128,0,75,75,31,1,虚伪,i,,,,,,,,,,,,
,,,,,,,,,,,,,,1,001,2024-09-04_10h06.38.900,IAT(Formal),2021.2.3,Win32,60.24096386,,,,,,,,,,,,,,,,,,,,,,,,,,,,,,,,,,,,,,,,,,,,i,1,0.7586,0,76,76,33,1,刻薄,i,,,,,,,,,,,,
,,,,,,,,,,,,,,1,001,2024-09-04_10h06.38.900,IAT(Formal),2021.2.3,Win32,60.24096386,,,,,,,,,,,,,,,,,,,,,,,,,,,,,,,,,,,,,,,,,,,,i,1,0.6522,0,77,77,73,1,自己,i,,,,,,,,,,,,
,,,,,,,,,,,,,,1,001,2024-09-04_10h06.38.900,IAT(Formal),2021.2.3,Win32,60.24096386,,,,,,,,,,,,,,,,,,,,,,,,,,,,,,,,,,,,,,,,,,,,e,0,0.8243,0,78,78,36,1,自卑,i,,,,,,,,,,,,
,,,,,,,,,,,,,,1,001,2024-09-04_10h06.38.900,IAT(Formal),2021.2.3,Win32,60.24096386,,,,,,,,,,,,,,,,,,,,,,,,,,,,,,,,,,,,,,,,,,,,i,1,0.8502,0,79,79,43,1,自私,i,,,,,,,,,,,,
,,,,,,,,,,,,,,1,001,2024-09-04_10h06.38.900,IAT(Formal),2021.2.3,Win32,60.24096386,,,,,,,,,,,,,,,,,,,,,,,,,,,,,,,,,,,,,,,,,,,,,,,,,,,,优秀,e,space,1.8195,e,1,0.6836,0,0,0,10,1,,
,,,,,,,,,,,,,,1,001,2024-09-04_10h06.38.900,IAT(Formal),2021.2.3,Win32,60.24096386,,,,,,,,,,,,,,,,,,,,,,,,,,,,,,,,,,,,,,,,,,,,,,,,,,,,轻率,i,,,i,1,0.7748,0,1,1,48,1,,
,,,,,,,,,,,,,,1,001,2024-09-04_10h06.38.900,IAT(Formal),2021.2.3,Win32,60.24096386,,,,,,,,,,,,,,,,,,,,,,,,,,,,,,,,,,,,,,,,,,,,,,,,,,,,悲观,i,,,i,1,0.7645,0,2,2,34,1,,
,,,,,,,,,,,,,,1,001,2024-09-04_10h06.38.900,IAT(Formal),2021.2.3,Win32,60.24096386,,,,,,,,,,,,,,,,,,,,,,,,,,,,,,,,,,,,,,,,,,,,,,,,,,,,其他,e,,,e,1,0.6331,0,3,3,9,1,,
,,,,,,,,,,,,,,1,001,2024-09-04_10h06.38.900,IAT(Formal),2021.2.3,Win32,60.24096386,,,,,,,,,,,,,,,,,,,,,,,,,,,,,,,,,,,,,,,,,,,,,,,,,,,,其他,e,,,e,1,0.4536,0,4,4,69,1,,
,,,,,,,,,,,,,,1,001,2024-09-04_10h06.38.900,IAT(Formal),2021.2.3,Win32,60.24096386,,,,,,,,,,,,,,,,,,,,,,,,,,,,,,,,,,,,,,,,,,,,,,,,,,,,细腻,e,,,e,1,0.836,0,5,5,25,1,,
,,,,,,,,,,,,,,1,001,2024-09-04_10h06.38.900,IAT(Formal),2021.2.3,Win32,60.24096386,,,,,,,,,,,,,,,,,,,,,,,,,,,,,,,,,,,,,,,,,,,,,,,,,,,,愚蠢,i,,,i,1,0.6105,0,6,6,32,1,,
,,,,,,,,,,,,,,1,001,2024-09-04_10h06.38.900,IAT(Formal),2021.2.3,Win32,60.24096386,,,,,,,,,,,,,,,,,,,,,,,,,,,,,,,,,,,,,,,,,,,,,,,,,,,,崇高,e,,,e,1,0.466,0,7,7,11,1,,
,,,,,,,,,,,,,,1,001,2024-09-04_10h06.38.900,IAT(Formal),2021.2.3,Win32,60.24096386,,,,,,,,,,,,,,,,,,,,,,,,,,,,,,,,,,,,,,,,,,,,,,,,,,,,下贱,i,,,i,1,0.681,0,8,8,49,1,,
,,,,,,,,,,,,,,1,001,2024-09-04_10h06.38.900,IAT(Formal),2021.2.3,Win32,60.24096386,,,,,,,,,,,,,,,,,,,,,,,,,,,,,,,,,,,,,,,,,,,,,,,,,,,,自私,i,,,i,1,0.7393,0,9,9,43,1,,
,,,,,,,,,,,,,,1,001,2024-09-04_10h06.38.900,IAT(Formal),2021.2.3,Win32,60.24096386,,,,,,,,,,,,,,,,,,,,,,,,,,,,,,,,,,,,,,,,,,,,,,,,,,,,他的,e,,,e,1,0.5848,0,10,10,77,1,,
,,,,,,,,,,,,,,1,001,2024-09-04_10h06.38.900,IAT(Formal),2021.2.3,Win32,60.24096386,,,,,,,,,,,,,,,,,,,,,,,,,,,,,,,,,,,,,,,,,,,,,,,,,,,,机智,e,,,e,1,0.7901,0,11,11,19,1,,
,,,,,,,,,,,,,,1,001,2024-09-04_10h06.38.900,IAT(Formal),2021.2.3,Win32,60.24096386,,,,,,,,,,,,,,,,,,,,,,,,,,,,,,,,,,,,,,,,,,,,,,,,,,,,他,e,,,e,1,0.6447,0,12,12,65,1,,
,,,,,,,,,,,,,,1,001,2024-09-04_10h06.38.900,IAT(Formal),2021.2.3,Win32,60.24096386,,,,,,,,,,,,,,,,,,,,,,,,,,,,,,,,,,,,,,,,,,,,,,,,,,,,聪明,e,,,e,1,0.4745,0,13,13,12,1,,
,,,,,,,,,,,,,,1,001,2024-09-04_10h06.38.900,IAT(Formal),2021.2.3,Win32,60.24096386,,,,,,,,,,,,,,,,,,,,,,,,,,,,,,,,,,,,,,,,,,,,,,,,,,,,猖狂,i,,,i,1,0.556,0,14,14,45,1,,
,,,,,,,,,,,,,,1,001,2024-09-04_10h06.38.900,IAT(Formal),2021.2.3,Win32,60.24096386,,,,,,,,,,,,,,,,,,,,,,,,,,,,,,,,,,,,,,,,,,,,,,,,,,,,我的,i,,,i,1,0.5969,0,15,15,51,1,,
,,,,,,,,,,,,,,1,001,2024-09-04_10h06.38.900,IAT(Formal),2021.2.3,Win32,60.24096386,,,,,,,,,,,,,,,,,,,,,,,,,,,,,,,,,,,,,,,,,,,,,,,,,,,,我,i,,,i,1,0.4996,0,16,16,60,1,,
,,,,,,,,,,,,,,1,001,2024-09-04_10h06.38.900,IAT(Formal),2021.2.3,Win32,60.24096386,,,,,,,,,,,,,,,,,,,,,,,,,,,,,,,,,,,,,,,,,,,,,,,,,,,,鲁莽,i,,,i,1,0.5076,0,17,17,38,1,,
,,,,,,,,,,,,,,1,001,2024-09-04_10h06.38.900,IAT(Formal),2021.2.3,Win32,60.24096386,,,,,,,,,,,,,,,,,,,,,,,,,,,,,,,,,,,,,,,,,,,,,,,,,,,,勇敢,e,,,e,1,0.6057,0,18,18,17,1,,
,,,,,,,,,,,,,,1,001,2024-09-04_10h06.38.900,IAT(Formal),2021.2.3,Win32,60.24096386,,,,,,,,,,,,,,,,,,,,,,,,,,,,,,,,,,,,,,,,,,,,,,,,,,,,他的,e,,,e,1,0.516,0,19,19,57,1,,
,,,,,,,,,,,,,,1,001,2024-09-04_10h06.38.900,IAT(Formal),2021.2.3,Win32,60.24096386,,,,,,,,,,,,,,,,,,,,,,,,,,,,,,,,,,,,,,,,,,,,,,,,,,,,俺,i,,,i,1,0.7816,0,20,20,54,1,,
,,,,,,,,,,,,,,1,001,2024-09-04_10h06.38.900,IAT(Formal),2021.2.3,Win32,60.24096386,,,,,,,,,,,,,,,,,,,,,,,,,,,,,,,,,,,,,,,,,,,,,,,,,,,,他人,e,,,e,1,0.518,0,21,21,58,1,,
,,,,,,,,,,,,,,1,001,2024-09-04_10h06.38.900,IAT(Formal),2021.2.3,Win32,60.24096386,,,,,,,,,,,,,,,,,,,,,,,,,,,,,,,,,,,,,,,,,,,,,,,,,,,,我的,i,,,i,1,0.459,0,22,22,1,1,,
,,,,,,,,,,,,,,1,001,2024-09-04_10h06.38.900,IAT(Formal),2021.2.3,Win32,60.24096386,,,,,,,,,,,,,,,,,,,,,,,,,,,,,,,,,,,,,,,,,,,,,,,,,,,,他们,e,,,e,1,0.4703,0,23,23,66,1,,
,,,,,,,,,,,,,,1,001,2024-09-04_10h06.38.900,IAT(Formal),2021.2.3,Win32,60.24096386,,,,,,,,,,,,,,,,,,,,,,,,,,,,,,,,,,,,,,,,,,,,,,,,,,,,消极,i,,,e,0,1.3838,0,24,24,35,1,,
,,,,,,,,,,,,,,1,001,2024-09-04_10h06.38.900,IAT(Formal),2021.2.3,Win32,60.24096386,,,,,,,,,,,,,,,,,,,,,,,,,,,,,,,,,,,,,,,,,,,,,,,,,,,,其他,e,,,e,1,0.5979,0,25,25,59,1,,
,,,,,,,,,,,,,,1,001,2024-09-04_10h06.38.900,IAT(Formal),2021.2.3,Win32,60.24096386,,,,,,,,,,,,,,,,,,,,,,,,,,,,,,,,,,,,,,,,,,,,,,,,,,,,俺,i,,,i,1,0.6417,0,26,26,64,1,,
,,,,,,,,,,,,,,1,001,2024-09-04_10h06.38.900,IAT(Formal),2021.2.3,Win32,60.24096386,,,,,,,,,,,,,,,,,,,,,,,,,,,,,,,,,,,,,,,,,,,,,,,,,,,,认真,e,,,e,1,0.5548,0,27,27,20,1,,
,,,,,,,,,,,,,,1,001,2024-09-04_10h06.38.900,IAT(Formal),2021.2.3,Win32,60.24096386,,,,,,,,,,,,,,,,,,,,,,,,,,,,,,,,,,,,,,,,,,,,,,,,,,,,固执,i,,,i,1,0.5539,0,28,28,47,1,,
,,,,,,,,,,,,,,1,001,2024-09-04_10h06.38.900,IAT(Formal),2021.2.3,Win32,60.24096386,,,,,,,,,,,,,,,,,,,,,,,,,,,,,,,,,,,,,,,,,,,,,,,,,,,,傲慢,i,,,i,1,0.5872,0,29,29,37,1,,
,,,,,,,,,,,,,,1,001,2024-09-04_10h06.38.900,IAT(Formal),2021.2.3,Win32,60.24096386,,,,,,,,,,,,,,,,,,,,,,,,,,,,,,,,,,,,,,,,,,,,,,,,,,,,他们,e,,,e,1,0.4981,0,30,30,76,1,,
,,,,,,,,,,,,,,1,001,2024-09-04_10h06.38.900,IAT(Formal),2021.2.3,Win32,60.24096386,,,,,,,,,,,,,,,,,,,,,,,,,,,,,,,,,,,,,,,,,,,,,,,,,,,,杰出,e,,,e,1,0.6825,0,31,31,13,1,,
,,,,,,,,,,,,,,1,001,2024-09-04_10h06.38.900,IAT(Formal),2021.2.3,Win32,60.24096386,,,,,,,,,,,,,,,,,,,,,,,,,,,,,,,,,,,,,,,,,,,,,,,,,,,,刻薄,i,,,i,1,0.5247,0,32,32,33,1,,
,,,,,,,,,,,,,,1,001,2024-09-04_10h06.38.900,IAT(Formal),2021.2.3,Win32,60.24096386,,,,,,,,,,,,,,,,,,,,,,,,,,,,,,,,,,,,,,,,,,,,,,,,,,,,他人,e,,,e,1,0.5503,0,33,33,78,1,,
,,,,,,,,,,,,,,1,001,2024-09-04_10h06.38.900,IAT(Formal),2021.2.3,Win32,60.24096386,,,,,,,,,,,,,,,,,,,,,,,,,,,,,,,,,,,,,,,,,,,,,,,,,,,,俺,i,,,i,1,0.5498,0,34,34,74,1,,
,,,,,,,,,,,,,,1,001,2024-09-04_10h06.38.900,IAT(Formal),2021.2.3,Win32,60.24096386,,,,,,,,,,,,,,,,,,,,,,,,,,,,,,,,,,,,,,,,,,,,,,,,,,,,无私,e,,,e,1,1.4298,0,35,35,22,1,,
,,,,,,,,,,,,,,1,001,2024-09-04_10h06.38.900,IAT(Formal),2021.2.3,Win32,60.24096386,,,,,,,,,,,,,,,,,,,,,,,,,,,,,,,,,,,,,,,,,,,,,,,,,,,,正直,e,,,i,0,0.666,0,36,36,16,1,,
,,,,,,,,,,,,,,1,001,2024-09-04_10h06.38.900,IAT(Formal),2021.2.3,Win32,60.24096386,,,,,,,,,,,,,,,,,,,,,,,,,,,,,,,,,,,,,,,,,,,,,,,,,,,,俺,i,,,i,1,0.618,0,37,37,4,1,,
,,,,,,,,,,,,,,1,001,2024-09-04_10h06.38.900,IAT(Formal),2021.2.3,Win32,60.24096386,,,,,,,,,,,,,,,,,,,,,,,,,,,,,,,,,,,,,,,,,,,,,,,,,,,,乐观,e,,,e,1,0.598,0,38,38,14,1,,
,,,,,,,,,,,,,,1,001,2024-09-04_10h06.38.900,IAT(Formal),2021.2.3,Win32,60.24096386,,,,,,,,,,,,,,,,,,,,,,,,,,,,,,,,,,,,,,,,,,,,,,,,,,,,热情,e,,,e,1,0.5207,0,39,39,27,1,,
,,,,,,,,,,,,,,1,001,2024-09-04_10h06.38.900,IAT(Formal),2021.2.3,Win32,60.24096386,,,,,,,,,,,,,,,,,,,,,,,,,,,,,,,,,,,,,,,,,,,,,,,,,,,,他的,e,,,e,1,0.6989,0,40,40,67,1,,
,,,,,,,,,,,,,,1,001,2024-09-04_10h06.38.900,IAT(Formal),2021.2.3,Win32,60.24096386,,,,,,,,,,,,,,,,,,,,,,,,,,,,,,,,,,,,,,,,,,,,,,,,,,,,诚实,e,,,e,1,0.5646,0,41,41,15,1,,
,,,,,,,,,,,,,,1,001,2024-09-04_10h06.38.900,IAT(Formal),2021.2.3,Win32,60.24096386,,,,,,,,,,,,,,,,,,,,,,,,,,,,,,,,,,,,,,,,,,,,,,,,,,,,其他,e,,,e,1,0.5872,0,42,42,79,1,,
,,,,,,,,,,,,,,1,001,2024-09-04_10h06.38.900,IAT(Formal),2021.2.3,Win32,60.24096386,,,,,,,,,,,,,,,,,,,,,,,,,,,,,,,,,,,,,,,,,,,,,,,,,,,,自己,i,,,i,1,0.5189,0,43,43,3,1,,
,,,,,,,,,,,,,,1,001,2024-09-04_10h06.38.900,IAT(Formal),2021.2.3,Win32,60.24096386,,,,,,,,,,,,,,,,,,,,,,,,,,,,,,,,,,,,,,,,,,,,,,,,,,,,我的,i,,,i,1,0.4315,0,44,44,71,1,,
,,,,,,,,,,,,,,1,001,2024-09-04_10h06.38.900,IAT(Formal),2021.2.3,Win32,60.24096386,,,,,,,,,,,,,,,,,,,,,,,,,,,,,,,,,,,,,,,,,,,,,,,,,,,,他,e,,,e,1,0.453,0,45,45,55,1,,
,,,,,,,,,,,,,,1,001,2024-09-04_10h06.38.900,IAT(Formal),2021.2.3,Win32,60.24096386,,,,,,,,,,,,,,,,,,,,,,,,,,,,,,,,,,,,,,,,,,,,,,,,,,,,诚恳,e,,,e,1,0.4158,0,46,46,29,1,,
,,,,,,,,,,,,,,1,001,2024-09-04_10h06.38.900,IAT(Formal),2021.2.3,Win32,60.24096386,,,,,,,,,,,,,,,,,,,,,,,,,,,,,,,,,,,,,,,,,,,,,,,,,,,,他的,e,,,e,1,0.4527,0,47,47,7,1,,
,,,,,,,,,,,,,,1,001,2024-09-04_10h06.38.900,IAT(Formal),2021.2.3,Win32,60.24096386,,,,,,,,,,,,,,,,,,,,,,,,,,,,,,,,,,,,,,,,,,,,,,,,,,,,我们,i,,,i,1,0.516,0,48,48,2,1,,
,,,,,,,,,,,,,,1,001,2024-09-04_10h06.38.900,IAT(Formal),2021.2.3,Win32,60.24096386,,,,,,,,,,,,,,,,,,,,,,,,,,,,,,,,,,,,,,,,,,,,,,,,,,,,凶狠,i,,,e,0,0.4777,0,49,49,42,1,,
,,,,,,,,,,,,,,1,001,2024-09-04_10h06.38.900,IAT(Formal),2021.2.3,Win32,60.24096386,,,,,,,,,,,,,,,,,,,,,,,,,,,,,,,,,,,,,,,,,,,,,,,,,,,,野蛮,i,,,i,1,0.5266,0,50,50,46,1,,
,,,,,,,,,,,,,,1,001,2024-09-04_10h06.38.900,IAT(Formal),2021.2.3,Win32,60.24096386,,,,,,,,,,,,,,,,,,,,,,,,,,,,,,,,,,,,,,,,,,,,,,,,,,,,我,i,,,i,1,0.5079,0,51,51,50,1,,
,,,,,,,,,,,,,,1,001,2024-09-04_10h06.38.900,IAT(Formal),2021.2.3,Win32,60.24096386,,,,,,,,,,,,,,,,,,,,,,,,,,,,,,,,,,,,,,,,,,,,,,,,,,,,暴躁,i,,,i,1,0.5709,0,52,52,44,1,,
,,,,,,,,,,,,,,1,001,2024-09-04_10h06.38.900,IAT(Formal),2021.2.3,Win32,60.24096386,,,,,,,,,,,,,,,,,,,,,,,,,,,,,,,,,,,,,,,,,,,,,,,,,,,,他,e,,,e,1,0.5661,0,53,53,75,1,,
,,,,,,,,,,,,,,1,001,2024-09-04_10h06.38.900,IAT(Formal),2021.2.3,Win32,60.24096386,,,,,,,,,,,,,,,,,,,,,,,,,,,,,,,,,,,,,,,,,,,,,,,,,,,,朴实,e,,,e,1,0.8017,0,54,54,24,1,,
,,,,,,,,,,,,,,1,001,2024-09-04_10h06.38.900,IAT(Formal),2021.2.3,Win32,60.24096386,,,,,,,,,,,,,,,,,,,,,,,,,,,,,,,,,,,,,,,,,,,,,,,,,,,,自己,i,,,i,1,0.4258,0,55,55,53,1,,
,,,,,,,,,,,,,,1,001,2024-09-04_10h06.38.900,IAT(Formal),2021.2.3,Win32,60.24096386,,,,,,,,,,,,,,,,,,,,,,,,,,,,,,,,,,,,,,,,,,,,,,,,,,,,我,i,,,i,1,0.4026,0,56,56,0,1,,
,,,,,,,,,,,,,,1,001,2024-09-04_10h06.38.900,IAT(Formal),2021.2.3,Win32,60.24096386,,,,,,,,,,,,,,,,,,,,,,,,,,,,,,,,,,,,,,,,,,,,,,,,,,,,自卑,i,,,i,1,0.7756,0,57,57,36,1,,
,,,,,,,,,,,,,,1,001,2024-09-04_10h06.38.900,IAT(Formal),2021.2.3,Win32,60.24096386,,,,,,,,,,,,,,,,,,,,,,,,,,,,,,,,,,,,,,,,,,,,,,,,,,,,自己,i,,,i,1,0.5258,0,58,58,63,1,,
,,,,,,,,,,,,,,1,001,2024-09-04_10h06.38.900,IAT(Formal),2021.2.3,Win32,60.24096386,,,,,,,,,,,,,,,,,,,,,,,,,,,,,,,,,,,,,,,,,,,,,,,,,,,,稳重,e,,,e,1,0.6711,0,59,59,21,1,,
,,,,,,,,,,,,,,1,001,2024-09-04_10h06.38.900,IAT(Formal),2021.2.3,Win32,60.24096386,,,,,,,,,,,,,,,,,,,,,,,,,,,,,,,,,,,,,,,,,,,,,,,,,,,,他人,e,,,e,1,0.7038,0,60,60,68,1,,
,,,,,,,,,,,,,,1,001,2024-09-04_10h06.38.900,IAT(Formal),2021.2.3,Win32,60.24096386,,,,,,,,,,,,,,,,,,,,,,,,,,,,,,,,,,,,,,,,,,,,,,,,,,,,散漫,i,,,i,1,0.9206,0,61,61,41,1,,
,,,,,,,,,,,,,,1,001,2024-09-04_10h06.38.900,IAT(Formal),2021.2.3,Win32,60.24096386,,,,,,,,,,,,,,,,,,,,,,,,,,,,,,,,,,,,,,,,,,,,,,,,,,,,活泼,e,,,e,1,0.6074,0,62,62,28,1,,
,,,,,,,,,,,,,,1,001,2024-09-04_10h06.38.900,IAT(Formal),2021.2.3,Win32,60.24096386,,,,,,,,,,,,,,,,,,,,,,,,,,,,,,,,,,,,,,,,,,,,,,,,,,,,虚伪,i,,,i,1,1.4524,0,63,63,31,1,,
,,,,,,,,,,,,,,1,001,2024-09-04_10h06.38.900,IAT(Formal),2021.2.3,Win32,60.24096386,,,,,,,,,,,,,,,,,,,,,,,,,,,,,,,,,,,,,,,,,,,,,,,,,,,,他,e,,,e,1,0.5466,0,64,64,5,1,,
,,,,,,,,,,,,,,1,001,2024-09-04_10h06.38.900,IAT(Formal),2021.2.3,Win32,60.24096386,,,,,,,,,,,,,,,,,,,,,,,,,,,,,,,,,,,,,,,,,,,,,,,,,,,,我们,i,,,i,1,0.6091,0,65,65,62,1,,
,,,,,,,,,,,,,,1,001,2024-09-04_10h06.38.900,IAT(Formal),2021.2.3,Win32,60.24096386,,,,,,,,,,,,,,,,,,,,,,,,,,,,,,,,,,,,,,,,,,,,,,,,,,,,执拗,i,,,i,1,0.7128,0,66,66,40,1,,
,,,,,,,,,,,,,,1,001,2024-09-04_10h06.38.900,IAT(Formal),2021.2.3,Win32,60.24096386,,,,,,,,,,,,,,,,,,,,,,,,,,,,,,,,,,,,,,,,,,,,,,,,,,,,卑鄙,i,,,i,1,0.5469,0,67,67,30,1,,
,,,,,,,,,,,,,,1,001,2024-09-04_10h06.38.900,IAT(Formal),2021.2.3,Win32,60.24096386,,,,,,,,,,,,,,,,,,,,,,,,,,,,,,,,,,,,,,,,,,,,,,,,,,,,我的,i,,,i,1,0.5403,0,68,68,61,1,,
,,,,,,,,,,,,,,1,001,2024-09-04_10h06.38.900,IAT(Formal),2021.2.3,Win32,60.24096386,,,,,,,,,,,,,,,,,,,,,,,,,,,,,,,,,,,,,,,,,,,,,,,,,,,,冷静,e,,,e,1,0.5374,0,69,69,26,1,,
,,,,,,,,,,,,,,1,001,2024-09-04_10h06.38.900,IAT(Formal),2021.2.3,Win32,60.24096386,,,,,,,,,,,,,,,,,,,,,,,,,,,,,,,,,,,,,,,,,,,,,,,,,,,,我,i,,,i,1,0.4351,0,70,70,70,1,,
,,,,,,,,,,,,,,1,001,2024-09-04_10h06.38.900,IAT(Formal),2021.2.3,Win32,60.24096386,,,,,,,,,,,,,,,,,,,,,,,,,,,,,,,,,,,,,,,,,,,,,,,,,,,,我们,i,,,i,1,0.4845,0,71,71,72,1,,
,,,,,,,,,,,,,,1,001,2024-09-04_10h06.38.900,IAT(Formal),2021.2.3,Win32,60.24096386,,,,,,,,,,,,,,,,,,,,,,,,,,,,,,,,,,,,,,,,,,,,,,,,,,,,冒失,i,,,e,0,0.5207,0,72,72,39,1,,
,,,,,,,,,,,,,,1,001,2024-09-04_10h06.38.900,IAT(Formal),2021.2.3,Win32,60.24096386,,,,,,,,,,,,,,,,,,,,,,,,,,,,,,,,,,,,,,,,,,,,,,,,,,,,他人,e,,,e,1,0.483,0,73,73,8,1,,
,,,,,,,,,,,,,,1,001,2024-09-04_10h06.38.900,IAT(Formal),2021.2.3,Win32,60.24096386,,,,,,,,,,,,,,,,,,,,,,,,,,,,,,,,,,,,,,,,,,,,,,,,,,,,他们,e,,,e,1,0.5317,0,74,74,56,1,,
,,,,,,,,,,,,,,1,001,2024-09-04_10h06.38.900,IAT(Formal),2021.2.3,Win32,60.24096386,,,,,,,,,,,,,,,,,,,,,,,,,,,,,,,,,,,,,,,,,,,,,,,,,,,,我们,i,,,i,1,0.489,0,75,75,52,1,,
,,,,,,,,,,,,,,1,001,2024-09-04_10h06.38.900,IAT(Formal),2021.2.3,Win32,60.24096386,,,,,,,,,,,,,,,,,,,,,,,,,,,,,,,,,,,,,,,,,,,,,,,,,,,,勤奋,e,,,e,1,0.7266,0,76,76,18,1,,
,,,,,,,,,,,,,,1,001,2024-09-04_10h06.38.900,IAT(Formal),2021.2.3,Win32,60.24096386,,,,,,,,,,,,,,,,,,,,,,,,,,,,,,,,,,,,,,,,,,,,,,,,,,,,公正,e,,,e,1,0.8915,0,77,77,23,1,,
,,,,,,,,,,,,,,1,001,2024-09-04_10h06.38.900,IAT(Formal),2021.2.3,Win32,60.24096386,,,,,,,,,,,,,,,,,,,,,,,,,,,,,,,,,,,,,,,,,,,,,,,,,,,,自己,i,,,i,1,0.5156,0,78,78,73,1,,
,,,,,,,,,,,,,,1,001,2024-09-04_10h06.38.900,IAT(Formal),2021.2.3,Win32,60.24096386,,,,,,,,,,,,,,,,,,,,,,,,,,,,,,,,,,,,,,,,,,,,,,,,,,,,他们,e,,,e,1,0.5891,0,79,79,6,1,,
,,,,,,,,,,,,,,1,001,2024-09-04_10h06.38.900,IAT(Formal),2021.2.3,Win32,60.24096386,,,,,,,,,,,,,,,,,,,,,,,,,,,,,,,,,,,,,,,,,,,,,,,,,,,,俺,i,,,i,1,0.6009,1,0,80,4,1,,
,,,,,,,,,,,,,,1,001,2024-09-04_10h06.38.900,IAT(Formal),2021.2.3,Win32,60.24096386,,,,,,,,,,,,,,,,,,,,,,,,,,,,,,,,,,,,,,,,,,,,,,,,,,,,其他,e,,,e,1,0.5098,1,1,81,9,1,,
,,,,,,,,,,,,,,1,001,2024-09-04_10h06.38.900,IAT(Formal),2021.2.3,Win32,60.24096386,,,,,,,,,,,,,,,,,,,,,,,,,,,,,,,,,,,,,,,,,,,,,,,,,,,,热情,e,,,i,0,0.6212,1,2,82,27,1,,
,,,,,,,,,,,,,,1,001,2024-09-04_10h06.38.900,IAT(Formal),2021.2.3,Win32,60.24096386,,,,,,,,,,,,,,,,,,,,,,,,,,,,,,,,,,,,,,,,,,,,,,,,,,,,他们,e,,,e,1,0.4691,1,3,83,66,1,,
,,,,,,,,,,,,,,1,001,2024-09-04_10h06.38.900,IAT(Formal),2021.2.3,Win32,60.24096386,,,,,,,,,,,,,,,,,,,,,,,,,,,,,,,,,,,,,,,,,,,,,,,,,,,,公正,e,,,e,1,0.8829,1,4,84,23,1,,
,,,,,,,,,,,,,,1,001,2024-09-04_10h06.38.900,IAT(Formal),2021.2.3,Win32,60.24096386,,,,,,,,,,,,,,,,,,,,,,,,,,,,,,,,,,,,,,,,,,,,,,,,,,,,正直,e,,,e,1,0.5354,1,5,85,16,1,,
,,,,,,,,,,,,,,1,001,2024-09-04_10h06.38.900,IAT(Formal),2021.2.3,Win32,60.24096386,,,,,,,,,,,,,,,,,,,,,,,,,,,,,,,,,,,,,,,,,,,,,,,,,,,,我们,i,,,i,1,0.5635,1,6,86,72,1,,
,,,,,,,,,,,,,,1,001,2024-09-04_10h06.38.900,IAT(Formal),2021.2.3,Win32,60.24096386,,,,,,,,,,,,,,,,,,,,,,,,,,,,,,,,,,,,,,,,,,,,,,,,,,,,乐观,e,,,e,1,1.198,1,7,87,14,1,,
,,,,,,,,,,,,,,1,001,2024-09-04_10h06.38.900,IAT(Formal),2021.2.3,Win32,60.24096386,,,,,,,,,,,,,,,,,,,,,,,,,,,,,,,,,,,,,,,,,,,,,,,,,,,,细腻,e,,,e,1,0.5032,1,8,88,25,1,,
,,,,,,,,,,,,,,1,001,2024-09-04_10h06.38.900,IAT(Formal),2021.2.3,Win32,60.24096386,,,,,,,,,,,,,,,,,,,,,,,,,,,,,,,,,,,,,,,,,,,,,,,,,,,,崇高,e,,,e,1,0.4508,1,9,89,11,1,,
,,,,,,,,,,,,,,1,001,2024-09-04_10h06.38.900,IAT(Formal),2021.2.3,Win32,60.24096386,,,,,,,,,,,,,,,,,,,,,,,,,,,,,,,,,,,,,,,,,,,,,,,,,,,,勇敢,e,,,e,1,0.5027,1,10,90,17,1,,
,,,,,,,,,,,,,,1,001,2024-09-04_10h06.38.900,IAT(Formal),2021.2.3,Win32,60.24096386,,,,,,,,,,,,,,,,,,,,,,,,,,,,,,,,,,,,,,,,,,,,,,,,,,,,优秀,e,,,e,1,0.4708,1,11,91,10,1,,
,,,,,,,,,,,,,,1,001,2024-09-04_10h06.38.900,IAT(Formal),2021.2.3,Win32,60.24096386,,,,,,,,,,,,,,,,,,,,,,,,,,,,,,,,,,,,,,,,,,,,,,,,,,,,他们,e,,,i,0,0.4984,1,12,92,76,1,,
,,,,,,,,,,,,,,1,001,2024-09-04_10h06.38.900,IAT(Formal),2021.2.3,Win32,60.24096386,,,,,,,,,,,,,,,,,,,,,,,,,,,,,,,,,,,,,,,,,,,,,,,,,,,,他们,e,,,e,1,0.4787,1,13,93,6,1,,
,,,,,,,,,,,,,,1,001,2024-09-04_10h06.38.900,IAT(Formal),2021.2.3,Win32,60.24096386,,,,,,,,,,,,,,,,,,,,,,,,,,,,,,,,,,,,,,,,,,,,,,,,,,,,他的,e,,,e,1,0.3884,1,14,94,7,1,,
,,,,,,,,,,,,,,1,001,2024-09-04_10h06.38.900,IAT(Formal),2021.2.3,Win32,60.24096386,,,,,,,,,,,,,,,,,,,,,,,,,,,,,,,,,,,,,,,,,,,,,,,,,,,,我,i,,,i,1,0.5017,1,15,95,50,1,,
,,,,,,,,,,,,,,1,001,2024-09-04_10h06.38.900,IAT(Formal),2021.2.3,Win32,60.24096386,,,,,,,,,,,,,,,,,,,,,,,,,,,,,,,,,,,,,,,,,,,,,,,,,,,,冷静,e,,,e,1,1.2037,1,16,96,26,1,,
,,,,,,,,,,,,,,1,001,2024-09-04_10h06.38.900,IAT(Formal),2021.2.3,Win32,60.24096386,,,,,,,,,,,,,,,,,,,,,,,,,,,,,,,,,,,,,,,,,,,,,,,,,,,,俺,i,,,i,1,0.6331,1,17,97,54,1,,
,,,,,,,,,,,,,,1,001,2024-09-04_10h06.38.900,IAT(Formal),2021.2.3,Win32,60.24096386,,,,,,,,,,,,,,,,,,,,,,,,,,,,,,,,,,,,,,,,,,,,,,,,,,,,我,i,,,i,1,0.4647,1,18,98,60,1,,
,,,,,,,,,,,,,,1,001,2024-09-04_10h06.38.900,IAT(Formal),2021.2.3,Win32,60.24096386,,,,,,,,,,,,,,,,,,,,,,,,,,,,,,,,,,,,,,,,,,,,,,,,,,,,他人,e,,,e,1,0.483,1,19,99,8,1,,
,,,,,,,,,,,,,,1,001,2024-09-04_10h06.38.900,IAT(Formal),2021.2.3,Win32,60.24096386,,,,,,,,,,,,,,,,,,,,,,,,,,,,,,,,,,,,,,,,,,,,,,,,,,,,他,e,,,e,1,0.4321,1,20,100,55,1,,
,,,,,,,,,,,,,,1,001,2024-09-04_10h06.38.900,IAT(Formal),2021.2.3,Win32,60.24096386,,,,,,,,,,,,,,,,,,,,,,,,,,,,,,,,,,,,,,,,,,,,,,,,,,,,聪明,e,,,i,0,1.1279,1,21,101,12,1,,
,,,,,,,,,,,,,,1,001,2024-09-04_10h06.38.900,IAT(Formal),2021.2.3,Win32,60.24096386,,,,,,,,,,,,,,,,,,,,,,,,,,,,,,,,,,,,,,,,,,,,,,,,,,,,悲观,i,,,i,1,0.7667,1,22,102,34,1,,
,,,,,,,,,,,,,,1,001,2024-09-04_10h06.38.900,IAT(Formal),2021.2.3,Win32,60.24096386,,,,,,,,,,,,,,,,,,,,,,,,,,,,,,,,,,,,,,,,,,,,,,,,,,,,其他,e,,,e,1,0.6129,1,23,103,59,1,,
,,,,,,,,,,,,,,1,001,2024-09-04_10h06.38.900,IAT(Formal),2021.2.3,Win32,60.24096386,,,,,,,,,,,,,,,,,,,,,,,,,,,,,,,,,,,,,,,,,,,,,,,,,,,,轻率,i,,,,0,,1,24,104,48,1,,
,,,,,,,,,,,,,,1,001,2024-09-04_10h06.38.900,IAT(Formal),2021.2.3,Win32,60.24096386,,,,,,,,,,,,,,,,,,,,,,,,,,,,,,,,,,,,,,,,,,,,,,,,,,,,他,e,,,e,1,0.5748,1,25,105,75,1,,
,,,,,,,,,,,,,,1,001,2024-09-04_10h06.38.900,IAT(Formal),2021.2.3,Win32,60.24096386,,,,,,,,,,,,,,,,,,,,,,,,,,,,,,,,,,,,,,,,,,,,,,,,,,,,其他,e,,,e,1,0.5807,1,26,106,79,1,,
,,,,,,,,,,,,,,1,001,2024-09-04_10h06.38.900,IAT(Formal),2021.2.3,Win32,60.24096386,,,,,,,,,,,,,,,,,,,,,,,,,,,,,,,,,,,,,,,,,,,,,,,,,,,,他,e,,,e,1,0.4337,1,27,107,5,1,,
,,,,,,,,,,,,,,1,001,2024-09-04_10h06.38.900,IAT(Formal),2021.2.3,Win32,60.24096386,,,,,,,,,,,,,,,,,,,,,,,,,,,,,,,,,,,,,,,,,,,,,,,,,,,,诚实,e,,,e,1,0.6978,1,28,108,15,1,,
,,,,,,,,,,,,,,1,001,2024-09-04_10h06.38.900,IAT(Formal),2021.2.3,Win32,60.24096386,,,,,,,,,,,,,,,,,,,,,,,,,,,,,,,,,,,,,,,,,,,,,,,,,,,,俺,i,,,e,0,0.4812,1,29,109,64,1,,
,,,,,,,,,,,,,,1,001,2024-09-04_10h06.38.900,IAT(Formal),2021.2.3,Win32,60.24096386,,,,,,,,,,,,,,,,,,,,,,,,,,,,,,,,,,,,,,,,,,,,,,,,,,,,自己,i,,,i,1,0.6164,1,30,110,73,1,,
,,,,,,,,,,,,,,1,001,2024-09-04_10h06.38.900,IAT(Formal),2021.2.3,Win32,60.24096386,,,,,,,,,,,,,,,,,,,,,,,,,,,,,,,,,,,,,,,,,,,,,,,,,,,,他人,e,,,e,1,0.4232,1,31,111,58,1,,
,,,,,,,,,,,,,,1,001,2024-09-04_10h06.38.900,IAT(Formal),2021.2.3,Win32,60.24096386,,,,,,,,,,,,,,,,,,,,,,,,,,,,,,,,,,,,,,,,,,,,,,,,,,,,我的,i,,,i,1,0.5488,1,32,112,71,1,,
,,,,,,,,,,,,,,1,001,2024-09-04_10h06.38.900,IAT(Formal),2021.2.3,Win32,60.24096386,,,,,,,,,,,,,,,,,,,,,,,,,,,,,,,,,,,,,,,,,,,,,,,,,,,,勤奋,e,,,e,1,0.8552,1,33,113,18,1,,
,,,,,,,,,,,,,,1,001,2024-09-04_10h06.38.900,IAT(Formal),2021.2.3,Win32,60.24096386,,,,,,,,,,,,,,,,,,,,,,,,,,,,,,,,,,,,,,,,,,,,,,,,,,,,野蛮,i,,,i,1,0.5588,1,34,114,46,1,,
,,,,,,,,,,,,,,1,001,2024-09-04_10h06.38.900,IAT(Formal),2021.2.3,Win32,60.24096386,,,,,,,,,,,,,,,,,,,,,,,,,,,,,,,,,,,,,,,,,,,,,,,,,,,,自己,i,,,i,1,0.5939,1,35,115,63,1,,
,,,,,,,,,,,,,,1,001,2024-09-04_10h06.38.900,IAT(Formal),2021.2.3,Win32,60.24096386,,,,,,,,,,,,,,,,,,,,,,,,,,,,,,,,,,,,,,,,,,,,,,,,,,,,稳重,e,,,e,1,0.7462,1,36,116,21,1,,
,,,,,,,,,,,,,,1,001,2024-09-04_10h06.38.900,IAT(Formal),2021.2.3,Win32,60.24096386,,,,,,,,,,,,,,,,,,,,,,,,,,,,,,,,,,,,,,,,,,,,,,,,,,,,杰出,e,,,e,1,0.5618,1,37,117,13,1,,
,,,,,,,,,,,,,,1,001,2024-09-04_10h06.38.900,IAT(Formal),2021.2.3,Win32,60.24096386,,,,,,,,,,,,,,,,,,,,,,,,,,,,,,,,,,,,,,,,,,,,,,,,,,,,我,i,,,i,1,0.5398,1,38,118,70,1,,
,,,,,,,,,,,,,,1,001,2024-09-04_10h06.38.900,IAT(Formal),2021.2.3,Win32,60.24096386,,,,,,,,,,,,,,,,,,,,,,,,,,,,,,,,,,,,,,,,,,,,,,,,,,,,愚蠢,i,,,i,1,0.7399,1,39,119,32,1,,
,,,,,,,,,,,,,,1,001,2024-09-04_10h06.38.900,IAT(Formal),2021.2.3,Win32,60.24096386,,,,,,,,,,,,,,,,,,,,,,,,,,,,,,,,,,,,,,,,,,,,,,,,,,,,虚伪,i,,,i,1,0.5876,1,40,120,31,1,,
,,,,,,,,,,,,,,1,001,2024-09-04_10h06.38.900,IAT(Formal),2021.2.3,Win32,60.24096386,,,,,,,,,,,,,,,,,,,,,,,,,,,,,,,,,,,,,,,,,,,,,,,,,,,,活泼,e,,,e,1,0.5368,1,41,121,28,1,,
,,,,,,,,,,,,,,1,001,2024-09-04_10h06.38.900,IAT(Formal),2021.2.3,Win32,60.24096386,,,,,,,,,,,,,,,,,,,,,,,,,,,,,,,,,,,,,,,,,,,,,,,,,,,,冒失,i,,,i,1,0.5395,1,42,122,39,1,,
,,,,,,,,,,,,,,1,001,2024-09-04_10h06.38.900,IAT(Formal),2021.2.3,Win32,60.24096386,,,,,,,,,,,,,,,,,,,,,,,,,,,,,,,,,,,,,,,,,,,,,,,,,,,,刻薄,i,,,i,1,0.7548,1,43,123,33,1,,
,,,,,,,,,,,,,,1,001,2024-09-04_10h06.38.900,IAT(Formal),2021.2.3,Win32,60.24096386,,,,,,,,,,,,,,,,,,,,,,,,,,,,,,,,,,,,,,,,,,,,,,,,,,,,他人,e,,,e,1,0.7924,1,44,124,68,1,,
,,,,,,,,,,,,,,1,001,2024-09-04_10h06.38.900,IAT(Formal),2021.2.3,Win32,60.24096386,,,,,,,,,,,,,,,,,,,,,,,,,,,,,,,,,,,,,,,,,,,,,,,,,,,,他的,e,,,e,1,0.4418,1,45,125,57,1,,
,,,,,,,,,,,,,,1,001,2024-09-04_10h06.38.900,IAT(Formal),2021.2.3,Win32,60.24096386,,,,,,,,,,,,,,,,,,,,,,,,,,,,,,,,,,,,,,,,,,,,,,,,,,,,自己,i,,,i,1,0.6071,1,46,126,53,1,,
,,,,,,,,,,,,,,1,001,2024-09-04_10h06.38.900,IAT(Formal),2021.2.3,Win32,60.24096386,,,,,,,,,,,,,,,,,,,,,,,,,,,,,,,,,,,,,,,,,,,,,,,,,,,,我们,i,,,i,1,0.4581,1,47,127,52,1,,
,,,,,,,,,,,,,,1,001,2024-09-04_10h06.38.900,IAT(Formal),2021.2.3,Win32,60.24096386,,,,,,,,,,,,,,,,,,,,,,,,,,,,,,,,,,,,,,,,,,,,,,,,,,,,我,i,,,i,1,0.4431,1,48,128,0,1,,
,,,,,,,,,,,,,,1,001,2024-09-04_10h06.38.900,IAT(Formal),2021.2.3,Win32,60.24096386,,,,,,,,,,,,,,,,,,,,,,,,,,,,,,,,,,,,,,,,,,,,,,,,,,,,消极,i,,,e,0,0.4744,1,49,129,35,1,,
,,,,,,,,,,,,,,1,001,2024-09-04_10h06.38.900,IAT(Formal),2021.2.3,Win32,60.24096386,,,,,,,,,,,,,,,,,,,,,,,,,,,,,,,,,,,,,,,,,,,,,,,,,,,,认真,e,,,i,0,0.5482,1,50,130,20,1,,
,,,,,,,,,,,,,,1,001,2024-09-04_10h06.38.900,IAT(Formal),2021.2.3,Win32,60.24096386,,,,,,,,,,,,,,,,,,,,,,,,,,,,,,,,,,,,,,,,,,,,,,,,,,,,下贱,i,,,i,1,0.6339,1,51,131,49,1,,
,,,,,,,,,,,,,,1,001,2024-09-04_10h06.38.900,IAT(Formal),2021.2.3,Win32,60.24096386,,,,,,,,,,,,,,,,,,,,,,,,,,,,,,,,,,,,,,,,,,,,,,,,,,,,机智,e,,,e,1,0.4922,1,52,132,19,1,,
,,,,,,,,,,,,,,1,001,2024-09-04_10h06.38.900,IAT(Formal),2021.2.3,Win32,60.24096386,,,,,,,,,,,,,,,,,,,,,,,,,,,,,,,,,,,,,,,,,,,,,,,,,,,,我们,i,,,i,1,0.5128,1,53,133,2,1,,
,,,,,,,,,,,,,,1,001,2024-09-04_10h06.38.900,IAT(Formal),2021.2.3,Win32,60.24096386,,,,,,,,,,,,,,,,,,,,,,,,,,,,,,,,,,,,,,,,,,,,,,,,,,,,凶狠,i,,,e,0,0.8633,1,54,134,42,1,,
,,,,,,,,,,,,,,1,001,2024-09-04_10h06.38.900,IAT(Formal),2021.2.3,Win32,60.24096386,,,,,,,,,,,,,,,,,,,,,,,,,,,,,,,,,,,,,,,,,,,,,,,,,,,,自私,i,,,i,1,0.5811,1,55,135,43,1,,
,,,,,,,,,,,,,,1,001,2024-09-04_10h06.38.900,IAT(Formal),2021.2.3,Win32,60.24096386,,,,,,,,,,,,,,,,,,,,,,,,,,,,,,,,,,,,,,,,,,,,,,,,,,,,我的,i,,,i,1,0.5148,1,56,136,51,1,,
,,,,,,,,,,,,,,1,001,2024-09-04_10h06.38.900,IAT(Formal),2021.2.3,Win32,60.24096386,,,,,,,,,,,,,,,,,,,,,,,,,,,,,,,,,,,,,,,,,,,,,,,,,,,,他人,e,,,e,1,0.5567,1,57,137,78,1,,
,,,,,,,,,,,,,,1,001,2024-09-04_10h06.38.900,IAT(Formal),2021.2.3,Win32,60.24096386,,,,,,,,,,,,,,,,,,,,,,,,,,,,,,,,,,,,,,,,,,,,,,,,,,,,他的,e,,,e,1,0.5741,1,58,138,77,1,,
,,,,,,,,,,,,,,1,001,2024-09-04_10h06.38.900,IAT(Formal),2021.2.3,Win32,60.24096386,,,,,,,,,,,,,,,,,,,,,,,,,,,,,,,,,,,,,,,,,,,,,,,,,,,,鲁莽,i,,,i,1,0.6039,1,59,139,38,1,,
,,,,,,,,,,,,,,1,001,2024-09-04_10h06.38.900,IAT(Formal),2021.2.3,Win32,60.24096386,,,,,,,,,,,,,,,,,,,,,,,,,,,,,,,,,,,,,,,,,,,,,,,,,,,,自己,i,,,i,1,0.6754,1,60,140,3,1,,
,,,,,,,,,,,,,,1,001,2024-09-04_10h06.38.900,IAT(Formal),2021.2.3,Win32,60.24096386,,,,,,,,,,,,,,,,,,,,,,,,,,,,,,,,,,,,,,,,,,,,,,,,,,,,其他,e,,,e,1,0.5251,1,61,141,69,1,,
,,,,,,,,,,,,,,1,001,2024-09-04_10h06.38.900,IAT(Formal),2021.2.3,Win32,60.24096386,,,,,,,,,,,,,,,,,,,,,,,,,,,,,,,,,,,,,,,,,,,,,,,,,,,,卑鄙,i,,,i,1,0.9305,1,62,142,30,1,,
,,,,,,,,,,,,,,1,001,2024-09-04_10h06.38.900,IAT(Formal),2021.2.3,Win32,60.24096386,,,,,,,,,,,,,,,,,,,,,,,,,,,,,,,,,,,,,,,,,,,,,,,,,,,,执拗,i,,,i,1,0.6348,1,63,143,40,1,,
,,,,,,,,,,,,,,1,001,2024-09-04_10h06.38.900,IAT(Formal),2021.2.3,Win32,60.24096386,,,,,,,,,,,,,,,,,,,,,,,,,,,,,,,,,,,,,,,,,,,,,,,,,,,,固执,i,,,i,1,0.5487,1,64,144,47,1,,
,,,,,,,,,,,,,,1,001,2024-09-04_10h06.38.900,IAT(Formal),2021.2.3,Win32,60.24096386,,,,,,,,,,,,,,,,,,,,,,,,,,,,,,,,,,,,,,,,,,,,,,,,,,,,他,e,,,e,1,0.5849,1,65,145,65,1,,
,,,,,,,,,,,,,,1,001,2024-09-04_10h06.38.900,IAT(Formal),2021.2.3,Win32,60.24096386,,,,,,,,,,,,,,,,,,,,,,,,,,,,,,,,,,,,,,,,,,,,,,,,,,,,他的,e,,,e,1,0.4705,1,66,146,67,1,,
,,,,,,,,,,,,,,1,001,2024-09-04_10h06.38.900,IAT(Formal),2021.2.3,Win32,60.24096386,,,,,,,,,,,,,,,,,,,,,,,,,,,,,,,,,,,,,,,,,,,,,,,,,,,,猖狂,i,,,i,1,0.4974,1,67,147,45,1,,
,,,,,,,,,,,,,,1,001,2024-09-04_10h06.38.900,IAT(Formal),2021.2.3,Win32,60.24096386,,,,,,,,,,,,,,,,,,,,,,,,,,,,,,,,,,,,,,,,,,,,,,,,,,,,无私,e,,,e,1,0.7565,1,68,148,22,1,,
,,,,,,,,,,,,,,1,001,2024-09-04_10h06.38.900,IAT(Formal),2021.2.3,Win32,60.24096386,,,,,,,,,,,,,,,,,,,,,,,,,,,,,,,,,,,,,,,,,,,,,,,,,,,,他们,e,,,e,1,0.6218,1,69,149,56,1,,
,,,,,,,,,,,,,,1,001,2024-09-04_10h06.38.900,IAT(Formal),2021.2.3,Win32,60.24096386,,,,,,,,,,,,,,,,,,,,,,,,,,,,,,,,,,,,,,,,,,,,,,,,,,,,自卑,i,,,i,1,0.5241,1,70,150,36,1,,
,,,,,,,,,,,,,,1,001,2024-09-04_10h06.38.900,IAT(Formal),2021.2.3,Win32,60.24096386,,,,,,,,,,,,,,,,,,,,,,,,,,,,,,,,,,,,,,,,,,,,,,,,,,,,我们,i,,,i,1,0.6187,1,71,151,62,1,,
,,,,,,,,,,,,,,1,001,2024-09-04_10h06.38.900,IAT(Formal),2021.2.3,Win32,60.24096386,,,,,,,,,,,,,,,,,,,,,,,,,,,,,,,,,,,,,,,,,,,,,,,,,,,,散漫,i,,,i,1,0.8212,1,72,152,41,1,,
,,,,,,,,,,,,,,1,001,2024-09-04_10h06.38.900,IAT(Formal),2021.2.3,Win32,60.24096386,,,,,,,,,,,,,,,,,,,,,,,,,,,,,,,,,,,,,,,,,,,,,,,,,,,,暴躁,i,,,i,1,0.5136,1,73,153,44,1,,
,,,,,,,,,,,,,,1,001,2024-09-04_10h06.38.900,IAT(Formal),2021.2.3,Win32,60.24096386,,,,,,,,,,,,,,,,,,,,,,,,,,,,,,,,,,,,,,,,,,,,,,,,,,,,诚恳,e,,,e,1,0.437,1,74,154,29,1,,
,,,,,,,,,,,,,,1,001,2024-09-04_10h06.38.900,IAT(Formal),2021.2.3,Win32,60.24096386,,,,,,,,,,,,,,,,,,,,,,,,,,,,,,,,,,,,,,,,,,,,,,,,,,,,我的,i,,,i,1,0.4573,1,75,155,1,1,,
,,,,,,,,,,,,,,1,001,2024-09-04_10h06.38.900,IAT(Formal),2021.2.3,Win32,60.24096386,,,,,,,,,,,,,,,,,,,,,,,,,,,,,,,,,,,,,,,,,,,,,,,,,,,,我的,i,,,i,1,0.4208,1,76,156,61,1,,
,,,,,,,,,,,,,,1,001,2024-09-04_10h06.38.900,IAT(Formal),2021.2.3,Win32,60.24096386,,,,,,,,,,,,,,,,,,,,,,,,,,,,,,,,,,,,,,,,,,,,,,,,,,,,朴实,e,,,e,1,0.4026,1,77,157,24,1,,
,,,,,,,,,,,,,,1,001,2024-09-04_10h06.38.900,IAT(Formal),2021.2.3,Win32,60.24096386,,,,,,,,,,,,,,,,,,,,,,,,,,,,,,,,,,,,,,,,,,,,,,,,,,,,俺,i,,,i,1,0.4647,1,78,158,74,1,,
,,,,,,,,,,,,,,1,001,2024-09-04_10h06.38.900,IAT(Formal),2021.2.3,Win32,60.24096386,,,,,,,,,,,,,,,,,,,,,,,,,,,,,,,,,,,,,,,,,,,,,,,,,,,,傲慢,i,,,i,1,0.7427,1,79,159,37,1,,
,,,,,,,,,,,,,,1,001,2024-09-04_10h06.38.900,IAT(Formal),2021.2.3,Win32,60.24096386,,,,,,,,,,,,,,,,,,,,,,,,,,,,,,,,,,,,,,,,,,,,,,,,,,,,,,,,,,,,,,,,space,1.2428