"X.Instruction1.keys","Instruction1.rt","Instruction2.keys","Instruction2.rt","key_resp_iso.keys","key_resp_iso.corr","key_resp_iso.rt","Practice_01.thisRepN","Practice_01.thisTrialN","Practice_01.thisN","Practice_01.thisIndex","Practice_01.ran","Words","ans","participant","session","date","expName","psychopyVersion","OS","frameRate","key_resp_3.keys","key_resp_3.rt","key_resp_ipn.keys","key_resp_ipn.corr","key_resp_ipn.rt","Practice_02.thisRepN","Practice_02.thisTrialN","Practice_02.thisN","Practice_02.thisIndex","Practice_02.ran","Words_ipn","ans_ipn","key_resp_4.keys","key_resp_4.rt","key_resp_t1.keys","key_resp_t1.corr","key_resp_t1.rt","Practice_T1.thisRepN","Practice_T1.thisTrialN","Practice_T1.thisN","Practice_T1.thisIndex","Practice_T1.ran","Words_t1","ans_t1","key_resp_5.keys","key_resp_5.rt","Formal_T1.thisRepN","Formal_T1.thisTrialN","Formal_T1.thisN","Formal_T1.thisIndex","Formal_T1.ran","key_resp_6.keys","key_resp_6.rt","key_resp_iso_reverse.keys","key_resp_iso_reverse.corr","key_resp_iso_reverse.rt","Practice_iso_Reverse.thisRepN","Practice_iso_Reverse.thisTrialN","Practice_iso_Reverse.thisN","Practice_iso_Reverse.thisIndex","Practice_iso_Reverse.ran","key_resp_7.keys","key_resp_7.rt","key_resp_t2_Practice.keys","key_resp_t2_Practice.corr","Practice_t2_Reverse.thisRepN","Practice_t2_Reverse.thisTrialN","Practice_t2_Reverse.thisN","Practice_t2_Reverse.thisIndex","Practice_t2_Reverse.ran","Words_t2","ans_t2","key_resp_t2_Practice.rt","key_resp_8.keys","key_resp_8.rt","key_resp_t2.keys","key_resp_t2.corr","key_resp_t2.rt","Formal_t2_reverse.thisRepN","Formal_t2_reverse.thisTrialN","Formal_t2_reverse.thisN","Formal_t2_reverse.thisIndex","Formal_t2_reverse.ran","key_instruct.keys","key_instruct.rt","Subject"
"space",9.854,"space",11.6092,"i",1,0.8841,0,0,0,5,1,"他","i",1,1,"2024-09-04_20h45.08.015","IAT(Formal)","2021.2.3","Win32",29.94011976,"",NA,"",NA,NA,NA,NA,NA,NA,NA,"","","",NA,"",NA,NA,NA,NA,NA,NA,NA,"","","",NA,NA,NA,NA,NA,NA,"",NA,"",NA,NA,NA,NA,NA,NA,NA,"",NA,"",NA,NA,NA,NA,NA,NA,"","",NA,"",NA,"",NA,NA,NA,NA,NA,NA,NA,"",NA,"41"
"",NA,"",NA,"e",1,0.4788,0,1,1,0,1,"我","e",1,1,"2024-09-04_20h45.08.015","IAT(Formal)","2021.2.3","Win32",29.94011976,"",NA,"",NA,NA,NA,NA,NA,NA,NA,"","","",NA,"",NA,NA,NA,NA,NA,NA,NA,"","","",NA,NA,NA,NA,NA,NA,"",NA,"",NA,NA,NA,NA,NA,NA,NA,"",NA,"",NA,NA,NA,NA,NA,NA,"","",NA,"",NA,"",NA,NA,NA,NA,NA,NA,NA,"",NA,"41"
"",NA,"",NA,"e",1,0.528,0,2,2,3,1,"自己","e",1,1,"2024-09-04_20h45.08.015","IAT(Formal)","2021.2.3","Win32",29.94011976,"",NA,"",NA,NA,NA,NA,NA,NA,NA,"","","",NA,"",NA,NA,NA,NA,NA,NA,NA,"","","",NA,NA,NA,NA,NA,NA,"",NA,"",NA,NA,NA,NA,NA,NA,NA,"",NA,"",NA,NA,NA,NA,NA,NA,"","",NA,"",NA,"",NA,NA,NA,NA,NA,NA,NA,"",NA,"41"
"",NA,"",NA,"i",1,0.4961,0,3,3,8,1,"他人","i",1,1,"2024-09-04_20h45.08.015","IAT(Formal)","2021.2.3","Win32",29.94011976,"",NA,"",NA,NA,NA,NA,NA,NA,NA,"","","",NA,"",NA,NA,NA,NA,NA,NA,NA,"","","",NA,NA,NA,NA,NA,NA,"",NA,"",NA,NA,NA,NA,NA,NA,NA,"",NA,"",NA,NA,NA,NA,NA,NA,"","",NA,"",NA,"",NA,NA,NA,NA,NA,NA,NA,"",NA,"41"
"",NA,"",NA,"i",1,0.6419,0,4,4,9,1,"其他","i",1,1,"2024-09-04_20h45.08.015","IAT(Formal)","2021.2.3","Win32",29.94011976,"",NA,"",NA,NA,NA,NA,NA,NA,NA,"","","",NA,"",NA,NA,NA,NA,NA,NA,NA,"","","",NA,NA,NA,NA,NA,NA,"",NA,"",NA,NA,NA,NA,NA,NA,NA,"",NA,"",NA,NA,NA,NA,NA,NA,"","",NA,"",NA,"",NA,NA,NA,NA,NA,NA,NA,"",NA,"41"
"",NA,"",NA,"i",1,0.5275,0,5,5,7,1,"他的","i",1,1,"2024-09-04_20h45.08.015","IAT(Formal)","2021.2.3","Win32",29.94011976,"",NA,"",NA,NA,NA,NA,NA,NA,NA,"","","",NA,"",NA,NA,NA,NA,NA,NA,NA,"","","",NA,NA,NA,NA,NA,NA,"",NA,"",NA,NA,NA,NA,NA,NA,NA,"",NA,"",NA,NA,NA,NA,NA,NA,"","",NA,"",NA,"",NA,NA,NA,NA,NA,NA,NA,"",NA,"41"
"",NA,"",NA,"i",1,0.4374,0,6,6,6,1,"他们","i",1,1,"2024-09-04_20h45.08.015","IAT(Formal)","2021.2.3","Win32",29.94011976,"",NA,"",NA,NA,NA,NA,NA,NA,NA,"","","",NA,"",NA,NA,NA,NA,NA,NA,NA,"","","",NA,NA,NA,NA,NA,NA,"",NA,"",NA,NA,NA,NA,NA,NA,NA,"",NA,"",NA,NA,NA,NA,NA,NA,"","",NA,"",NA,"",NA,NA,NA,NA,NA,NA,NA,"",NA,"41"
"",NA,"",NA,"e",1,0.585,0,7,7,4,1,"俺","e",1,1,"2024-09-04_20h45.08.015","IAT(Formal)","2021.2.3","Win32",29.94011976,"",NA,"",NA,NA,NA,NA,NA,NA,NA,"","","",NA,"",NA,NA,NA,NA,NA,NA,NA,"","","",NA,NA,NA,NA,NA,NA,"",NA,"",NA,NA,NA,NA,NA,NA,NA,"",NA,"",NA,NA,NA,NA,NA,NA,"","",NA,"",NA,"",NA,NA,NA,NA,NA,NA,NA,"",NA,"41"
"",NA,"",NA,"e",1,0.5051,0,8,8,2,1,"我们","e",1,1,"2024-09-04_20h45.08.015","IAT(Formal)","2021.2.3","Win32",29.94011976,"",NA,"",NA,NA,NA,NA,NA,NA,NA,"","","",NA,"",NA,NA,NA,NA,NA,NA,NA,"","","",NA,NA,NA,NA,NA,NA,"",NA,"",NA,NA,NA,NA,NA,NA,NA,"",NA,"",NA,NA,NA,NA,NA,NA,"","",NA,"",NA,"",NA,NA,NA,NA,NA,NA,NA,"",NA,"41"
"",NA,"",NA,"e",1,0.4104,0,9,9,1,1,"我的","e",1,1,"2024-09-04_20h45.08.015","IAT(Formal)","2021.2.3","Win32",29.94011976,"",NA,"",NA,NA,NA,NA,NA,NA,NA,"","","",NA,"",NA,NA,NA,NA,NA,NA,NA,"","","",NA,NA,NA,NA,NA,NA,"",NA,"",NA,NA,NA,NA,NA,NA,NA,"",NA,"",NA,NA,NA,NA,NA,NA,"","",NA,"",NA,"",NA,NA,NA,NA,NA,NA,NA,"",NA,"41"
"",NA,"",NA,"",NA,NA,NA,NA,NA,NA,NA,"","",1,1,"2024-09-04_20h45.08.015","IAT(Formal)","2021.2.3","Win32",29.94011976,"space",4.4854,"e",1,0.6073,0,0,0,11,1,"稳重","e","",NA,"",NA,NA,NA,NA,NA,NA,NA,"","","",NA,NA,NA,NA,NA,NA,"",NA,"",NA,NA,NA,NA,NA,NA,NA,"",NA,"",NA,NA,NA,NA,NA,NA,"","",NA,"",NA,"",NA,NA,NA,NA,NA,NA,NA,"",NA,"41"
"",NA,"",NA,"",NA,NA,NA,NA,NA,NA,NA,"","",1,1,"2024-09-04_20h45.08.015","IAT(Formal)","2021.2.3","Win32",29.94011976,"",NA,"e",1,0.4704,0,1,1,0,1,"优秀","e","",NA,"",NA,NA,NA,NA,NA,NA,NA,"","","",NA,NA,NA,NA,NA,NA,"",NA,"",NA,NA,NA,NA,NA,NA,NA,"",NA,"",NA,NA,NA,NA,NA,NA,"","",NA,"",NA,"",NA,NA,NA,NA,NA,NA,NA,"",NA,"41"
"",NA,"",NA,"",NA,NA,NA,NA,NA,NA,NA,"","",1,1,"2024-09-04_20h45.08.015","IAT(Formal)","2021.2.3","Win32",29.94011976,"",NA,"e",1,0.3997,0,2,2,13,1,"公正","e","",NA,"",NA,NA,NA,NA,NA,NA,NA,"","","",NA,NA,NA,NA,NA,NA,"",NA,"",NA,NA,NA,NA,NA,NA,NA,"",NA,"",NA,NA,NA,NA,NA,NA,"","",NA,"",NA,"",NA,NA,NA,NA,NA,NA,NA,"",NA,"41"
"",NA,"",NA,"",NA,NA,NA,NA,NA,NA,NA,"","",1,1,"2024-09-04_20h45.08.015","IAT(Formal)","2021.2.3","Win32",29.94011976,"",NA,"e",1,0.4167,0,3,3,16,1,"冷静","e","",NA,"",NA,NA,NA,NA,NA,NA,NA,"","","",NA,NA,NA,NA,NA,NA,"",NA,"",NA,NA,NA,NA,NA,NA,NA,"",NA,"",NA,NA,NA,NA,NA,NA,"","",NA,"",NA,"",NA,NA,NA,NA,NA,NA,NA,"",NA,"41"
"",NA,"",NA,"",NA,NA,NA,NA,NA,NA,NA,"","",1,1,"2024-09-04_20h45.08.015","IAT(Formal)","2021.2.3","Win32",29.94011976,"",NA,"e",1,0.5062,0,4,4,8,1,"勤奋","e","",NA,"",NA,NA,NA,NA,NA,NA,NA,"","","",NA,NA,NA,NA,NA,NA,"",NA,"",NA,NA,NA,NA,NA,NA,NA,"",NA,"",NA,NA,NA,NA,NA,NA,"","",NA,"",NA,"",NA,NA,NA,NA,NA,NA,NA,"",NA,"41"
"",NA,"",NA,"",NA,NA,NA,NA,NA,NA,NA,"","",1,1,"2024-09-04_20h45.08.015","IAT(Formal)","2021.2.3","Win32",29.94011976,"",NA,"i",1,0.5236,0,5,5,39,1,"下贱","i","",NA,"",NA,NA,NA,NA,NA,NA,NA,"","","",NA,NA,NA,NA,NA,NA,"",NA,"",NA,NA,NA,NA,NA,NA,NA,"",NA,"",NA,NA,NA,NA,NA,NA,"","",NA,"",NA,"",NA,NA,NA,NA,NA,NA,NA,"",NA,"41"
"",NA,"",NA,"",NA,NA,NA,NA,NA,NA,NA,"","",1,1,"2024-09-04_20h45.08.015","IAT(Formal)","2021.2.3","Win32",29.94011976,"",NA,"i",1,0.481,0,6,6,37,1,"固执","i","",NA,"",NA,NA,NA,NA,NA,NA,NA,"","","",NA,NA,NA,NA,NA,NA,"",NA,"",NA,NA,NA,NA,NA,NA,NA,"",NA,"",NA,NA,NA,NA,NA,NA,"","",NA,"",NA,"",NA,NA,NA,NA,NA,NA,NA,"",NA,"41"
"",NA,"",NA,"",NA,NA,NA,NA,NA,NA,NA,"","",1,1,"2024-09-04_20h45.08.015","IAT(Formal)","2021.2.3","Win32",29.94011976,"",NA,"e",1,0.568,0,7,7,17,1,"热情","e","",NA,"",NA,NA,NA,NA,NA,NA,NA,"","","",NA,NA,NA,NA,NA,NA,"",NA,"",NA,NA,NA,NA,NA,NA,NA,"",NA,"",NA,NA,NA,NA,NA,NA,"","",NA,"",NA,"",NA,NA,NA,NA,NA,NA,NA,"",NA,"41"
"",NA,"",NA,"",NA,NA,NA,NA,NA,NA,NA,"","",1,1,"2024-09-04_20h45.08.015","IAT(Formal)","2021.2.3","Win32",29.94011976,"",NA,"i",1,0.5168,0,8,8,36,1,"野蛮","i","",NA,"",NA,NA,NA,NA,NA,NA,NA,"","","",NA,NA,NA,NA,NA,NA,"",NA,"",NA,NA,NA,NA,NA,NA,NA,"",NA,"",NA,NA,NA,NA,NA,NA,"","",NA,"",NA,"",NA,NA,NA,NA,NA,NA,NA,"",NA,"41"
"",NA,"",NA,"",NA,NA,NA,NA,NA,NA,NA,"","",1,1,"2024-09-04_20h45.08.015","IAT(Formal)","2021.2.3","Win32",29.94011976,"",NA,"e",1,0.5783,0,9,9,15,1,"细腻","e","",NA,"",NA,NA,NA,NA,NA,NA,NA,"","","",NA,NA,NA,NA,NA,NA,"",NA,"",NA,NA,NA,NA,NA,NA,NA,"",NA,"",NA,NA,NA,NA,NA,NA,"","",NA,"",NA,"",NA,NA,NA,NA,NA,NA,NA,"",NA,"41"
"",NA,"",NA,"",NA,NA,NA,NA,NA,NA,NA,"","",1,1,"2024-09-04_20h45.08.015","IAT(Formal)","2021.2.3","Win32",29.94011976,"",NA,"i",0,0.5101,0,10,10,12,1,"无私","e","",NA,"",NA,NA,NA,NA,NA,NA,NA,"","","",NA,NA,NA,NA,NA,NA,"",NA,"",NA,NA,NA,NA,NA,NA,NA,"",NA,"",NA,NA,NA,NA,NA,NA,"","",NA,"",NA,"",NA,NA,NA,NA,NA,NA,NA,"",NA,"41"
"",NA,"",NA,"",NA,NA,NA,NA,NA,NA,NA,"","",1,1,"2024-09-04_20h45.08.015","IAT(Formal)","2021.2.3","Win32",29.94011976,"",NA,"e",1,0.4828,0,11,11,10,1,"认真","e","",NA,"",NA,NA,NA,NA,NA,NA,NA,"","","",NA,NA,NA,NA,NA,NA,"",NA,"",NA,NA,NA,NA,NA,NA,NA,"",NA,"",NA,NA,NA,NA,NA,NA,"","",NA,"",NA,"",NA,NA,NA,NA,NA,NA,NA,"",NA,"41"
"",NA,"",NA,"",NA,NA,NA,NA,NA,NA,NA,"","",1,1,"2024-09-04_20h45.08.015","IAT(Formal)","2021.2.3","Win32",29.94011976,"",NA,"e",1,0.5567,0,12,12,1,1,"崇高","e","",NA,"",NA,NA,NA,NA,NA,NA,NA,"","","",NA,NA,NA,NA,NA,NA,"",NA,"",NA,NA,NA,NA,NA,NA,NA,"",NA,"",NA,NA,NA,NA,NA,NA,"","",NA,"",NA,"",NA,NA,NA,NA,NA,NA,NA,"",NA,"41"
"",NA,"",NA,"",NA,NA,NA,NA,NA,NA,NA,"","",1,1,"2024-09-04_20h45.08.015","IAT(Formal)","2021.2.3","Win32",29.94011976,"",NA,"i",1,0.6216,0,13,13,32,1,"凶狠","i","",NA,"",NA,NA,NA,NA,NA,NA,NA,"","","",NA,NA,NA,NA,NA,NA,"",NA,"",NA,NA,NA,NA,NA,NA,NA,"",NA,"",NA,NA,NA,NA,NA,NA,"","",NA,"",NA,"",NA,NA,NA,NA,NA,NA,NA,"",NA,"41"
"",NA,"",NA,"",NA,NA,NA,NA,NA,NA,NA,"","",1,1,"2024-09-04_20h45.08.015","IAT(Formal)","2021.2.3","Win32",29.94011976,"",NA,"i",1,0.6869,0,14,14,22,1,"愚蠢","i","",NA,"",NA,NA,NA,NA,NA,NA,NA,"","","",NA,NA,NA,NA,NA,NA,"",NA,"",NA,NA,NA,NA,NA,NA,NA,"",NA,"",NA,NA,NA,NA,NA,NA,"","",NA,"",NA,"",NA,NA,NA,NA,NA,NA,NA,"",NA,"41"
"",NA,"",NA,"",NA,NA,NA,NA,NA,NA,NA,"","",1,1,"2024-09-04_20h45.08.015","IAT(Formal)","2021.2.3","Win32",29.94011976,"",NA,"e",1,0.5267,0,15,15,6,1,"正直","e","",NA,"",NA,NA,NA,NA,NA,NA,NA,"","","",NA,NA,NA,NA,NA,NA,"",NA,"",NA,NA,NA,NA,NA,NA,NA,"",NA,"",NA,NA,NA,NA,NA,NA,"","",NA,"",NA,"",NA,NA,NA,NA,NA,NA,NA,"",NA,"41"
"",NA,"",NA,"",NA,NA,NA,NA,NA,NA,NA,"","",1,1,"2024-09-04_20h45.08.015","IAT(Formal)","2021.2.3","Win32",29.94011976,"",NA,"e",1,0.4814,0,16,16,7,1,"勇敢","e","",NA,"",NA,NA,NA,NA,NA,NA,NA,"","","",NA,NA,NA,NA,NA,NA,"",NA,"",NA,NA,NA,NA,NA,NA,NA,"",NA,"",NA,NA,NA,NA,NA,NA,"","",NA,"",NA,"",NA,NA,NA,NA,NA,NA,NA,"",NA,"41"
"",NA,"",NA,"",NA,NA,NA,NA,NA,NA,NA,"","",1,1,"2024-09-04_20h45.08.015","IAT(Formal)","2021.2.3","Win32",29.94011976,"",NA,"e",1,0.5205,0,17,17,3,1,"杰出","e","",NA,"",NA,NA,NA,NA,NA,NA,NA,"","","",NA,NA,NA,NA,NA,NA,"",NA,"",NA,NA,NA,NA,NA,NA,NA,"",NA,"",NA,NA,NA,NA,NA,NA,"","",NA,"",NA,"",NA,NA,NA,NA,NA,NA,NA,"",NA,"41"
"",NA,"",NA,"",NA,NA,NA,NA,NA,NA,NA,"","",1,1,"2024-09-04_20h45.08.015","IAT(Formal)","2021.2.3","Win32",29.94011976,"",NA,"i",1,0.5614,0,18,18,34,1,"暴躁","i","",NA,"",NA,NA,NA,NA,NA,NA,NA,"","","",NA,NA,NA,NA,NA,NA,"",NA,"",NA,NA,NA,NA,NA,NA,NA,"",NA,"",NA,NA,NA,NA,NA,NA,"","",NA,"",NA,"",NA,NA,NA,NA,NA,NA,NA,"",NA,"41"
"",NA,"",NA,"",NA,NA,NA,NA,NA,NA,NA,"","",1,1,"2024-09-04_20h45.08.015","IAT(Formal)","2021.2.3","Win32",29.94011976,"",NA,"i",1,0.695,0,19,19,28,1,"鲁莽","i","",NA,"",NA,NA,NA,NA,NA,NA,NA,"","","",NA,NA,NA,NA,NA,NA,"",NA,"",NA,NA,NA,NA,NA,NA,NA,"",NA,"",NA,NA,NA,NA,NA,NA,"","",NA,"",NA,"",NA,NA,NA,NA,NA,NA,NA,"",NA,"41"
"",NA,"",NA,"",NA,NA,NA,NA,NA,NA,NA,"","",1,1,"2024-09-04_20h45.08.015","IAT(Formal)","2021.2.3","Win32",29.94011976,"",NA,"i",1,0.6468,0,20,20,31,1,"散漫","i","",NA,"",NA,NA,NA,NA,NA,NA,NA,"","","",NA,NA,NA,NA,NA,NA,"",NA,"",NA,NA,NA,NA,NA,NA,NA,"",NA,"",NA,NA,NA,NA,NA,NA,"","",NA,"",NA,"",NA,NA,NA,NA,NA,NA,NA,"",NA,"41"
"",NA,"",NA,"",NA,NA,NA,NA,NA,NA,NA,"","",1,1,"2024-09-04_20h45.08.015","IAT(Formal)","2021.2.3","Win32",29.94011976,"",NA,"i",1,0.7042,0,21,21,33,1,"自私","i","",NA,"",NA,NA,NA,NA,NA,NA,NA,"","","",NA,NA,NA,NA,NA,NA,"",NA,"",NA,NA,NA,NA,NA,NA,NA,"",NA,"",NA,NA,NA,NA,NA,NA,"","",NA,"",NA,"",NA,NA,NA,NA,NA,NA,NA,"",NA,"41"
"",NA,"",NA,"",NA,NA,NA,NA,NA,NA,NA,"","",1,1,"2024-09-04_20h45.08.015","IAT(Formal)","2021.2.3","Win32",29.94011976,"",NA,"e",1,0.5947,0,22,22,14,1,"朴实","e","",NA,"",NA,NA,NA,NA,NA,NA,NA,"","","",NA,NA,NA,NA,NA,NA,"",NA,"",NA,NA,NA,NA,NA,NA,NA,"",NA,"",NA,NA,NA,NA,NA,NA,"","",NA,"",NA,"",NA,NA,NA,NA,NA,NA,NA,"",NA,"41"
"",NA,"",NA,"",NA,NA,NA,NA,NA,NA,NA,"","",1,1,"2024-09-04_20h45.08.015","IAT(Formal)","2021.2.3","Win32",29.94011976,"",NA,"e",1,0.5473,0,23,23,18,1,"活泼","e","",NA,"",NA,NA,NA,NA,NA,NA,NA,"","","",NA,NA,NA,NA,NA,NA,"",NA,"",NA,NA,NA,NA,NA,NA,NA,"",NA,"",NA,NA,NA,NA,NA,NA,"","",NA,"",NA,"",NA,NA,NA,NA,NA,NA,NA,"",NA,"41"
"",NA,"",NA,"",NA,NA,NA,NA,NA,NA,NA,"","",1,1,"2024-09-04_20h45.08.015","IAT(Formal)","2021.2.3","Win32",29.94011976,"",NA,"i",1,0.681,0,24,24,24,1,"悲观","i","",NA,"",NA,NA,NA,NA,NA,NA,NA,"","","",NA,NA,NA,NA,NA,NA,"",NA,"",NA,NA,NA,NA,NA,NA,NA,"",NA,"",NA,NA,NA,NA,NA,NA,"","",NA,"",NA,"",NA,NA,NA,NA,NA,NA,NA,"",NA,"41"
"",NA,"",NA,"",NA,NA,NA,NA,NA,NA,NA,"","",1,1,"2024-09-04_20h45.08.015","IAT(Formal)","2021.2.3","Win32",29.94011976,"",NA,"i",1,0.582,0,25,25,20,1,"卑鄙","i","",NA,"",NA,NA,NA,NA,NA,NA,NA,"","","",NA,NA,NA,NA,NA,NA,"",NA,"",NA,NA,NA,NA,NA,NA,NA,"",NA,"",NA,NA,NA,NA,NA,NA,"","",NA,"",NA,"",NA,NA,NA,NA,NA,NA,NA,"",NA,"41"
"",NA,"",NA,"",NA,NA,NA,NA,NA,NA,NA,"","",1,1,"2024-09-04_20h45.08.015","IAT(Formal)","2021.2.3","Win32",29.94011976,"",NA,"i",1,0.5506,0,26,26,23,1,"刻薄","i","",NA,"",NA,NA,NA,NA,NA,NA,NA,"","","",NA,NA,NA,NA,NA,NA,"",NA,"",NA,NA,NA,NA,NA,NA,NA,"",NA,"",NA,NA,NA,NA,NA,NA,"","",NA,"",NA,"",NA,NA,NA,NA,NA,NA,NA,"",NA,"41"
"",NA,"",NA,"",NA,NA,NA,NA,NA,NA,NA,"","",1,1,"2024-09-04_20h45.08.015","IAT(Formal)","2021.2.3","Win32",29.94011976,"",NA,"i",1,0.7267,0,27,27,38,1,"轻率","i","",NA,"",NA,NA,NA,NA,NA,NA,NA,"","","",NA,NA,NA,NA,NA,NA,"",NA,"",NA,NA,NA,NA,NA,NA,NA,"",NA,"",NA,NA,NA,NA,NA,NA,"","",NA,"",NA,"",NA,NA,NA,NA,NA,NA,NA,"",NA,"41"
"",NA,"",NA,"",NA,NA,NA,NA,NA,NA,NA,"","",1,1,"2024-09-04_20h45.08.015","IAT(Formal)","2021.2.3","Win32",29.94011976,"",NA,"i",1,0.5591,0,28,28,35,1,"猖狂","i","",NA,"",NA,NA,NA,NA,NA,NA,NA,"","","",NA,NA,NA,NA,NA,NA,"",NA,"",NA,NA,NA,NA,NA,NA,NA,"",NA,"",NA,NA,NA,NA,NA,NA,"","",NA,"",NA,"",NA,NA,NA,NA,NA,NA,NA,"",NA,"41"
"",NA,"",NA,"",NA,NA,NA,NA,NA,NA,NA,"","",1,1,"2024-09-04_20h45.08.015","IAT(Formal)","2021.2.3","Win32",29.94011976,"",NA,"i",1,0.4855,0,29,29,27,1,"傲慢","i","",NA,"",NA,NA,NA,NA,NA,NA,NA,"","","",NA,NA,NA,NA,NA,NA,"",NA,"",NA,NA,NA,NA,NA,NA,NA,"",NA,"",NA,NA,NA,NA,NA,NA,"","",NA,"",NA,"",NA,NA,NA,NA,NA,NA,NA,"",NA,"41"
"",NA,"",NA,"",NA,NA,NA,NA,NA,NA,NA,"","",1,1,"2024-09-04_20h45.08.015","IAT(Formal)","2021.2.3","Win32",29.94011976,"",NA,"i",1,0.5244,0,30,30,26,1,"自卑","i","",NA,"",NA,NA,NA,NA,NA,NA,NA,"","","",NA,NA,NA,NA,NA,NA,"",NA,"",NA,NA,NA,NA,NA,NA,NA,"",NA,"",NA,NA,NA,NA,NA,NA,"","",NA,"",NA,"",NA,NA,NA,NA,NA,NA,NA,"",NA,"41"
"",NA,"",NA,"",NA,NA,NA,NA,NA,NA,NA,"","",1,1,"2024-09-04_20h45.08.015","IAT(Formal)","2021.2.3","Win32",29.94011976,"",NA,"i",1,0.5352,0,31,31,29,1,"冒失","i","",NA,"",NA,NA,NA,NA,NA,NA,NA,"","","",NA,NA,NA,NA,NA,NA,"",NA,"",NA,NA,NA,NA,NA,NA,NA,"",NA,"",NA,NA,NA,NA,NA,NA,"","",NA,"",NA,"",NA,NA,NA,NA,NA,NA,NA,"",NA,"41"
"",NA,"",NA,"",NA,NA,NA,NA,NA,NA,NA,"","",1,1,"2024-09-04_20h45.08.015","IAT(Formal)","2021.2.3","Win32",29.94011976,"",NA,"i",1,0.5618,0,32,32,25,1,"消极","i","",NA,"",NA,NA,NA,NA,NA,NA,NA,"","","",NA,NA,NA,NA,NA,NA,"",NA,"",NA,NA,NA,NA,NA,NA,NA,"",NA,"",NA,NA,NA,NA,NA,NA,"","",NA,"",NA,"",NA,NA,NA,NA,NA,NA,NA,"",NA,"41"
"",NA,"",NA,"",NA,NA,NA,NA,NA,NA,NA,"","",1,1,"2024-09-04_20h45.08.015","IAT(Formal)","2021.2.3","Win32",29.94011976,"",NA,"e",1,0.483,0,33,33,5,1,"诚实","e","",NA,"",NA,NA,NA,NA,NA,NA,NA,"","","",NA,NA,NA,NA,NA,NA,"",NA,"",NA,NA,NA,NA,NA,NA,NA,"",NA,"",NA,NA,NA,NA,NA,NA,"","",NA,"",NA,"",NA,NA,NA,NA,NA,NA,NA,"",NA,"41"
"",NA,"",NA,"",NA,NA,NA,NA,NA,NA,NA,"","",1,1,"2024-09-04_20h45.08.015","IAT(Formal)","2021.2.3","Win32",29.94011976,"",NA,"e",1,0.4339,0,34,34,2,1,"聪明","e","",NA,"",NA,NA,NA,NA,NA,NA,NA,"","","",NA,NA,NA,NA,NA,NA,"",NA,"",NA,NA,NA,NA,NA,NA,NA,"",NA,"",NA,NA,NA,NA,NA,NA,"","",NA,"",NA,"",NA,NA,NA,NA,NA,NA,NA,"",NA,"41"
"",NA,"",NA,"",NA,NA,NA,NA,NA,NA,NA,"","",1,1,"2024-09-04_20h45.08.015","IAT(Formal)","2021.2.3","Win32",29.94011976,"",NA,"e",1,0.4541,0,35,35,9,1,"机智","e","",NA,"",NA,NA,NA,NA,NA,NA,NA,"","","",NA,NA,NA,NA,NA,NA,"",NA,"",NA,NA,NA,NA,NA,NA,NA,"",NA,"",NA,NA,NA,NA,NA,NA,"","",NA,"",NA,"",NA,NA,NA,NA,NA,NA,NA,"",NA,"41"
"",NA,"",NA,"",NA,NA,NA,NA,NA,NA,NA,"","",1,1,"2024-09-04_20h45.08.015","IAT(Formal)","2021.2.3","Win32",29.94011976,"",NA,"i",1,0.636,0,36,36,21,1,"虚伪","i","",NA,"",NA,NA,NA,NA,NA,NA,NA,"","","",NA,NA,NA,NA,NA,NA,"",NA,"",NA,NA,NA,NA,NA,NA,NA,"",NA,"",NA,NA,NA,NA,NA,NA,"","",NA,"",NA,"",NA,NA,NA,NA,NA,NA,NA,"",NA,"41"
"",NA,"",NA,"",NA,NA,NA,NA,NA,NA,NA,"","",1,1,"2024-09-04_20h45.08.015","IAT(Formal)","2021.2.3","Win32",29.94011976,"",NA,"i",1,0.6461,0,37,37,30,1,"执拗","i","",NA,"",NA,NA,NA,NA,NA,NA,NA,"","","",NA,NA,NA,NA,NA,NA,"",NA,"",NA,NA,NA,NA,NA,NA,NA,"",NA,"",NA,NA,NA,NA,NA,NA,"","",NA,"",NA,"",NA,NA,NA,NA,NA,NA,NA,"",NA,"41"
"",NA,"",NA,"",NA,NA,NA,NA,NA,NA,NA,"","",1,1,"2024-09-04_20h45.08.015","IAT(Formal)","2021.2.3","Win32",29.94011976,"",NA,"e",1,0.6358,0,38,38,4,1,"乐观","e","",NA,"",NA,NA,NA,NA,NA,NA,NA,"","","",NA,NA,NA,NA,NA,NA,"",NA,"",NA,NA,NA,NA,NA,NA,NA,"",NA,"",NA,NA,NA,NA,NA,NA,"","",NA,"",NA,"",NA,NA,NA,NA,NA,NA,NA,"",NA,"41"
"",NA,"",NA,"",NA,NA,NA,NA,NA,NA,NA,"","",1,1,"2024-09-04_20h45.08.015","IAT(Formal)","2021.2.3","Win32",29.94011976,"",NA,"e",1,0.4935,0,39,39,19,1,"诚恳","e","",NA,"",NA,NA,NA,NA,NA,NA,NA,"","","",NA,NA,NA,NA,NA,NA,"",NA,"",NA,NA,NA,NA,NA,NA,NA,"",NA,"",NA,NA,NA,NA,NA,NA,"","",NA,"",NA,"",NA,NA,NA,NA,NA,NA,NA,"",NA,"41"
"",NA,"",NA,"",NA,NA,NA,NA,NA,NA,NA,"","",1,1,"2024-09-04_20h45.08.015","IAT(Formal)","2021.2.3","Win32",29.94011976,"",NA,"",NA,NA,NA,NA,NA,NA,NA,"","","space",5.5642,"e",1,0.5531,0,0,0,13,1,"杰出","e","",NA,NA,NA,NA,NA,NA,"",NA,"",NA,NA,NA,NA,NA,NA,NA,"",NA,"",NA,NA,NA,NA,NA,NA,"","",NA,"",NA,"",NA,NA,NA,NA,NA,NA,NA,"",NA,"41"
"",NA,"",NA,"",NA,NA,NA,NA,NA,NA,NA,"","",1,1,"2024-09-04_20h45.08.015","IAT(Formal)","2021.2.3","Win32",29.94011976,"",NA,"",NA,NA,NA,NA,NA,NA,NA,"","","",NA,"i",1,0.66,0,1,1,48,1,"轻率","i","",NA,NA,NA,NA,NA,NA,"",NA,"",NA,NA,NA,NA,NA,NA,NA,"",NA,"",NA,NA,NA,NA,NA,NA,"","",NA,"",NA,"",NA,NA,NA,NA,NA,NA,NA,"",NA,"41"
"",NA,"",NA,"",NA,NA,NA,NA,NA,NA,NA,"","",1,1,"2024-09-04_20h45.08.015","IAT(Formal)","2021.2.3","Win32",29.94011976,"",NA,"",NA,NA,NA,NA,NA,NA,NA,"","","",NA,"e",1,0.6211,0,2,2,25,1,"细腻","e","",NA,NA,NA,NA,NA,NA,"",NA,"",NA,NA,NA,NA,NA,NA,NA,"",NA,"",NA,NA,NA,NA,NA,NA,"","",NA,"",NA,"",NA,NA,NA,NA,NA,NA,NA,"",NA,"41"
"",NA,"",NA,"",NA,NA,NA,NA,NA,NA,NA,"","",1,1,"2024-09-04_20h45.08.015","IAT(Formal)","2021.2.3","Win32",29.94011976,"",NA,"",NA,NA,NA,NA,NA,NA,NA,"","","",NA,"i",1,0.5728,0,3,3,35,1,"消极","i","",NA,NA,NA,NA,NA,NA,"",NA,"",NA,NA,NA,NA,NA,NA,NA,"",NA,"",NA,NA,NA,NA,NA,NA,"","",NA,"",NA,"",NA,NA,NA,NA,NA,NA,NA,"",NA,"41"
"",NA,"",NA,"",NA,NA,NA,NA,NA,NA,NA,"","",1,1,"2024-09-04_20h45.08.015","IAT(Formal)","2021.2.3","Win32",29.94011976,"",NA,"",NA,NA,NA,NA,NA,NA,NA,"","","",NA,"e",1,0.5239,0,4,4,18,1,"勤奋","e","",NA,NA,NA,NA,NA,NA,"",NA,"",NA,NA,NA,NA,NA,NA,NA,"",NA,"",NA,NA,NA,NA,NA,NA,"","",NA,"",NA,"",NA,NA,NA,NA,NA,NA,NA,"",NA,"41"
"",NA,"",NA,"",NA,NA,NA,NA,NA,NA,NA,"","",1,1,"2024-09-04_20h45.08.015","IAT(Formal)","2021.2.3","Win32",29.94011976,"",NA,"",NA,NA,NA,NA,NA,NA,NA,"","","",NA,"e",1,0.4278,0,5,5,24,1,"朴实","e","",NA,NA,NA,NA,NA,NA,"",NA,"",NA,NA,NA,NA,NA,NA,NA,"",NA,"",NA,NA,NA,NA,NA,NA,"","",NA,"",NA,"",NA,NA,NA,NA,NA,NA,NA,"",NA,"41"
"",NA,"",NA,"",NA,NA,NA,NA,NA,NA,NA,"","",1,1,"2024-09-04_20h45.08.015","IAT(Formal)","2021.2.3","Win32",29.94011976,"",NA,"",NA,NA,NA,NA,NA,NA,NA,"","","",NA,"e",0,0.3591,0,6,6,5,1,"他","i","",NA,NA,NA,NA,NA,NA,"",NA,"",NA,NA,NA,NA,NA,NA,NA,"",NA,"",NA,NA,NA,NA,NA,NA,"","",NA,"",NA,"",NA,NA,NA,NA,NA,NA,NA,"",NA,"41"
"",NA,"",NA,"",NA,NA,NA,NA,NA,NA,NA,"","",1,1,"2024-09-04_20h45.08.015","IAT(Formal)","2021.2.3","Win32",29.94011976,"",NA,"",NA,NA,NA,NA,NA,NA,NA,"","","",NA,"e",1,0.4825,0,7,7,12,1,"聪明","e","",NA,NA,NA,NA,NA,NA,"",NA,"",NA,NA,NA,NA,NA,NA,NA,"",NA,"",NA,NA,NA,NA,NA,NA,"","",NA,"",NA,"",NA,NA,NA,NA,NA,NA,NA,"",NA,"41"
"",NA,"",NA,"",NA,NA,NA,NA,NA,NA,NA,"","",1,1,"2024-09-04_20h45.08.015","IAT(Formal)","2021.2.3","Win32",29.94011976,"",NA,"",NA,NA,NA,NA,NA,NA,NA,"","","",NA,"i",1,0.5024,0,8,8,6,1,"他们","i","",NA,NA,NA,NA,NA,NA,"",NA,"",NA,NA,NA,NA,NA,NA,NA,"",NA,"",NA,NA,NA,NA,NA,NA,"","",NA,"",NA,"",NA,NA,NA,NA,NA,NA,NA,"",NA,"41"
"",NA,"",NA,"",NA,NA,NA,NA,NA,NA,NA,"","",1,1,"2024-09-04_20h45.08.015","IAT(Formal)","2021.2.3","Win32",29.94011976,"",NA,"",NA,NA,NA,NA,NA,NA,NA,"","","",NA,"e",1,0.4872,0,9,9,19,1,"机智","e","",NA,NA,NA,NA,NA,NA,"",NA,"",NA,NA,NA,NA,NA,NA,NA,"",NA,"",NA,NA,NA,NA,NA,NA,"","",NA,"",NA,"",NA,NA,NA,NA,NA,NA,NA,"",NA,"41"
"",NA,"",NA,"",NA,NA,NA,NA,NA,NA,NA,"","",1,1,"2024-09-04_20h45.08.015","IAT(Formal)","2021.2.3","Win32",29.94011976,"",NA,"",NA,NA,NA,NA,NA,NA,NA,"","","",NA,"e",1,0.591,0,10,10,61,1,"我的","e","",NA,NA,NA,NA,NA,NA,"",NA,"",NA,NA,NA,NA,NA,NA,NA,"",NA,"",NA,NA,NA,NA,NA,NA,"","",NA,"",NA,"",NA,NA,NA,NA,NA,NA,NA,"",NA,"41"
"",NA,"",NA,"",NA,NA,NA,NA,NA,NA,NA,"","",1,1,"2024-09-04_20h45.08.015","IAT(Formal)","2021.2.3","Win32",29.94011976,"",NA,"",NA,NA,NA,NA,NA,NA,NA,"","","",NA,"e",1,0.6279,0,11,11,22,1,"无私","e","",NA,NA,NA,NA,NA,NA,"",NA,"",NA,NA,NA,NA,NA,NA,NA,"",NA,"",NA,NA,NA,NA,NA,NA,"","",NA,"",NA,"",NA,NA,NA,NA,NA,NA,NA,"",NA,"41"
"",NA,"",NA,"",NA,NA,NA,NA,NA,NA,NA,"","",1,1,"2024-09-04_20h45.08.015","IAT(Formal)","2021.2.3","Win32",29.94011976,"",NA,"",NA,NA,NA,NA,NA,NA,NA,"","","",NA,"e",1,0.6038,0,12,12,71,1,"我的","e","",NA,NA,NA,NA,NA,NA,"",NA,"",NA,NA,NA,NA,NA,NA,NA,"",NA,"",NA,NA,NA,NA,NA,NA,"","",NA,"",NA,"",NA,NA,NA,NA,NA,NA,NA,"",NA,"41"
"",NA,"",NA,"",NA,NA,NA,NA,NA,NA,NA,"","",1,1,"2024-09-04_20h45.08.015","IAT(Formal)","2021.2.3","Win32",29.94011976,"",NA,"",NA,NA,NA,NA,NA,NA,NA,"","","",NA,"i",1,0.6104,0,13,13,32,1,"愚蠢","i","",NA,NA,NA,NA,NA,NA,"",NA,"",NA,NA,NA,NA,NA,NA,NA,"",NA,"",NA,NA,NA,NA,NA,NA,"","",NA,"",NA,"",NA,NA,NA,NA,NA,NA,NA,"",NA,"41"
"",NA,"",NA,"",NA,NA,NA,NA,NA,NA,NA,"","",1,1,"2024-09-04_20h45.08.015","IAT(Formal)","2021.2.3","Win32",29.94011976,"",NA,"",NA,NA,NA,NA,NA,NA,NA,"","","",NA,"e",1,0.4403,0,14,14,60,1,"我","e","",NA,NA,NA,NA,NA,NA,"",NA,"",NA,NA,NA,NA,NA,NA,NA,"",NA,"",NA,NA,NA,NA,NA,NA,"","",NA,"",NA,"",NA,NA,NA,NA,NA,NA,NA,"",NA,"41"
"",NA,"",NA,"",NA,NA,NA,NA,NA,NA,NA,"","",1,1,"2024-09-04_20h45.08.015","IAT(Formal)","2021.2.3","Win32",29.94011976,"",NA,"",NA,NA,NA,NA,NA,NA,NA,"","","",NA,"e",1,0.4207,0,15,15,52,1,"我们","e","",NA,NA,NA,NA,NA,NA,"",NA,"",NA,NA,NA,NA,NA,NA,NA,"",NA,"",NA,NA,NA,NA,NA,NA,"","",NA,"",NA,"",NA,NA,NA,NA,NA,NA,NA,"",NA,"41"
"",NA,"",NA,"",NA,NA,NA,NA,NA,NA,NA,"","",1,1,"2024-09-04_20h45.08.015","IAT(Formal)","2021.2.3","Win32",29.94011976,"",NA,"",NA,NA,NA,NA,NA,NA,NA,"","","",NA,"i",1,0.5046,0,16,16,65,1,"他","i","",NA,NA,NA,NA,NA,NA,"",NA,"",NA,NA,NA,NA,NA,NA,NA,"",NA,"",NA,NA,NA,NA,NA,NA,"","",NA,"",NA,"",NA,NA,NA,NA,NA,NA,NA,"",NA,"41"
"",NA,"",NA,"",NA,NA,NA,NA,NA,NA,NA,"","",1,1,"2024-09-04_20h45.08.015","IAT(Formal)","2021.2.3","Win32",29.94011976,"",NA,"",NA,NA,NA,NA,NA,NA,NA,"","","",NA,"i",1,0.6033,0,17,17,58,1,"他人","i","",NA,NA,NA,NA,NA,NA,"",NA,"",NA,NA,NA,NA,NA,NA,NA,"",NA,"",NA,NA,NA,NA,NA,NA,"","",NA,"",NA,"",NA,NA,NA,NA,NA,NA,NA,"",NA,"41"
"",NA,"",NA,"",NA,NA,NA,NA,NA,NA,NA,"","",1,1,"2024-09-04_20h45.08.015","IAT(Formal)","2021.2.3","Win32",29.94011976,"",NA,"",NA,NA,NA,NA,NA,NA,NA,"","","",NA,"i",1,0.4835,0,18,18,66,1,"他们","i","",NA,NA,NA,NA,NA,NA,"",NA,"",NA,NA,NA,NA,NA,NA,NA,"",NA,"",NA,NA,NA,NA,NA,NA,"","",NA,"",NA,"",NA,NA,NA,NA,NA,NA,NA,"",NA,"41"
"",NA,"",NA,"",NA,NA,NA,NA,NA,NA,NA,"","",1,1,"2024-09-04_20h45.08.015","IAT(Formal)","2021.2.3","Win32",29.94011976,"",NA,"",NA,NA,NA,NA,NA,NA,NA,"","","",NA,"i",1,0.6868,0,19,19,36,1,"自卑","i","",NA,NA,NA,NA,NA,NA,"",NA,"",NA,NA,NA,NA,NA,NA,NA,"",NA,"",NA,NA,NA,NA,NA,NA,"","",NA,"",NA,"",NA,NA,NA,NA,NA,NA,NA,"",NA,"41"
"",NA,"",NA,"",NA,NA,NA,NA,NA,NA,NA,"","",1,1,"2024-09-04_20h45.08.015","IAT(Formal)","2021.2.3","Win32",29.94011976,"",NA,"",NA,NA,NA,NA,NA,NA,NA,"","","",NA,"e",1,0.6888,0,20,20,70,1,"我","e","",NA,NA,NA,NA,NA,NA,"",NA,"",NA,NA,NA,NA,NA,NA,NA,"",NA,"",NA,NA,NA,NA,NA,NA,"","",NA,"",NA,"",NA,NA,NA,NA,NA,NA,NA,"",NA,"41"
"",NA,"",NA,"",NA,NA,NA,NA,NA,NA,NA,"","",1,1,"2024-09-04_20h45.08.015","IAT(Formal)","2021.2.3","Win32",29.94011976,"",NA,"",NA,NA,NA,NA,NA,NA,NA,"","","",NA,"i",1,0.4904,0,21,21,76,1,"他们","i","",NA,NA,NA,NA,NA,NA,"",NA,"",NA,NA,NA,NA,NA,NA,NA,"",NA,"",NA,NA,NA,NA,NA,NA,"","",NA,"",NA,"",NA,NA,NA,NA,NA,NA,NA,"",NA,"41"
"",NA,"",NA,"",NA,NA,NA,NA,NA,NA,NA,"","",1,1,"2024-09-04_20h45.08.015","IAT(Formal)","2021.2.3","Win32",29.94011976,"",NA,"",NA,NA,NA,NA,NA,NA,NA,"","","",NA,"e",1,0.6237,0,22,22,4,1,"俺","e","",NA,NA,NA,NA,NA,NA,"",NA,"",NA,NA,NA,NA,NA,NA,NA,"",NA,"",NA,NA,NA,NA,NA,NA,"","",NA,"",NA,"",NA,NA,NA,NA,NA,NA,NA,"",NA,"41"
"",NA,"",NA,"",NA,NA,NA,NA,NA,NA,NA,"","",1,1,"2024-09-04_20h45.08.015","IAT(Formal)","2021.2.3","Win32",29.94011976,"",NA,"",NA,NA,NA,NA,NA,NA,NA,"","","",NA,"i",1,0.561,0,23,23,45,1,"猖狂","i","",NA,NA,NA,NA,NA,NA,"",NA,"",NA,NA,NA,NA,NA,NA,NA,"",NA,"",NA,NA,NA,NA,NA,NA,"","",NA,"",NA,"",NA,NA,NA,NA,NA,NA,NA,"",NA,"41"
"",NA,"",NA,"",NA,NA,NA,NA,NA,NA,NA,"","",1,1,"2024-09-04_20h45.08.015","IAT(Formal)","2021.2.3","Win32",29.94011976,"",NA,"",NA,NA,NA,NA,NA,NA,NA,"","","",NA,"e",1,0.4933,0,24,24,72,1,"我们","e","",NA,NA,NA,NA,NA,NA,"",NA,"",NA,NA,NA,NA,NA,NA,NA,"",NA,"",NA,NA,NA,NA,NA,NA,"","",NA,"",NA,"",NA,NA,NA,NA,NA,NA,NA,"",NA,"41"
"",NA,"",NA,"",NA,NA,NA,NA,NA,NA,NA,"","",1,1,"2024-09-04_20h45.08.015","IAT(Formal)","2021.2.3","Win32",29.94011976,"",NA,"",NA,NA,NA,NA,NA,NA,NA,"","","",NA,"e",1,0.4794,0,25,25,10,1,"优秀","e","",NA,NA,NA,NA,NA,NA,"",NA,"",NA,NA,NA,NA,NA,NA,NA,"",NA,"",NA,NA,NA,NA,NA,NA,"","",NA,"",NA,"",NA,NA,NA,NA,NA,NA,NA,"",NA,"41"
"",NA,"",NA,"",NA,NA,NA,NA,NA,NA,NA,"","",1,1,"2024-09-04_20h45.08.015","IAT(Formal)","2021.2.3","Win32",29.94011976,"",NA,"",NA,NA,NA,NA,NA,NA,NA,"","","",NA,"e",1,0.4215,0,26,26,23,1,"公正","e","",NA,NA,NA,NA,NA,NA,"",NA,"",NA,NA,NA,NA,NA,NA,NA,"",NA,"",NA,NA,NA,NA,NA,NA,"","",NA,"",NA,"",NA,NA,NA,NA,NA,NA,NA,"",NA,"41"
"",NA,"",NA,"",NA,NA,NA,NA,NA,NA,NA,"","",1,1,"2024-09-04_20h45.08.015","IAT(Formal)","2021.2.3","Win32",29.94011976,"",NA,"",NA,NA,NA,NA,NA,NA,NA,"","","",NA,"e",0,0.5093,0,27,27,40,1,"执拗","i","",NA,NA,NA,NA,NA,NA,"",NA,"",NA,NA,NA,NA,NA,NA,NA,"",NA,"",NA,NA,NA,NA,NA,NA,"","",NA,"",NA,"",NA,NA,NA,NA,NA,NA,NA,"",NA,"41"
"",NA,"",NA,"",NA,NA,NA,NA,NA,NA,NA,"","",1,1,"2024-09-04_20h45.08.015","IAT(Formal)","2021.2.3","Win32",29.94011976,"",NA,"",NA,NA,NA,NA,NA,NA,NA,"","","",NA,"i",1,0.6383,0,28,28,79,1,"其他","i","",NA,NA,NA,NA,NA,NA,"",NA,"",NA,NA,NA,NA,NA,NA,NA,"",NA,"",NA,NA,NA,NA,NA,NA,"","",NA,"",NA,"",NA,NA,NA,NA,NA,NA,NA,"",NA,"41"
"",NA,"",NA,"",NA,NA,NA,NA,NA,NA,NA,"","",1,1,"2024-09-04_20h45.08.015","IAT(Formal)","2021.2.3","Win32",29.94011976,"",NA,"",NA,NA,NA,NA,NA,NA,NA,"","","",NA,"i",1,0.4339,0,29,29,57,1,"他的","i","",NA,NA,NA,NA,NA,NA,"",NA,"",NA,NA,NA,NA,NA,NA,NA,"",NA,"",NA,NA,NA,NA,NA,NA,"","",NA,"",NA,"",NA,NA,NA,NA,NA,NA,NA,"",NA,"41"
"",NA,"",NA,"",NA,NA,NA,NA,NA,NA,NA,"","",1,1,"2024-09-04_20h45.08.015","IAT(Formal)","2021.2.3","Win32",29.94011976,"",NA,"",NA,NA,NA,NA,NA,NA,NA,"","","",NA,"e",1,0.5034,0,30,30,63,1,"自己","e","",NA,NA,NA,NA,NA,NA,"",NA,"",NA,NA,NA,NA,NA,NA,NA,"",NA,"",NA,NA,NA,NA,NA,NA,"","",NA,"",NA,"",NA,NA,NA,NA,NA,NA,NA,"",NA,"41"
"",NA,"",NA,"",NA,NA,NA,NA,NA,NA,NA,"","",1,1,"2024-09-04_20h45.08.015","IAT(Formal)","2021.2.3","Win32",29.94011976,"",NA,"",NA,NA,NA,NA,NA,NA,NA,"","","",NA,"i",1,0.5169,0,31,31,8,1,"他人","i","",NA,NA,NA,NA,NA,NA,"",NA,"",NA,NA,NA,NA,NA,NA,NA,"",NA,"",NA,NA,NA,NA,NA,NA,"","",NA,"",NA,"",NA,NA,NA,NA,NA,NA,NA,"",NA,"41"
"",NA,"",NA,"",NA,NA,NA,NA,NA,NA,NA,"","",1,1,"2024-09-04_20h45.08.015","IAT(Formal)","2021.2.3","Win32",29.94011976,"",NA,"",NA,NA,NA,NA,NA,NA,NA,"","","",NA,"e",1,0.609,0,32,32,0,1,"我","e","",NA,NA,NA,NA,NA,NA,"",NA,"",NA,NA,NA,NA,NA,NA,NA,"",NA,"",NA,NA,NA,NA,NA,NA,"","",NA,"",NA,"",NA,NA,NA,NA,NA,NA,NA,"",NA,"41"
"",NA,"",NA,"",NA,NA,NA,NA,NA,NA,NA,"","",1,1,"2024-09-04_20h45.08.015","IAT(Formal)","2021.2.3","Win32",29.94011976,"",NA,"",NA,NA,NA,NA,NA,NA,NA,"","","",NA,"e",1,0.6246,0,33,33,21,1,"稳重","e","",NA,NA,NA,NA,NA,NA,"",NA,"",NA,NA,NA,NA,NA,NA,NA,"",NA,"",NA,NA,NA,NA,NA,NA,"","",NA,"",NA,"",NA,NA,NA,NA,NA,NA,NA,"",NA,"41"
"",NA,"",NA,"",NA,NA,NA,NA,NA,NA,NA,"","",1,1,"2024-09-04_20h45.08.015","IAT(Formal)","2021.2.3","Win32",29.94011976,"",NA,"",NA,NA,NA,NA,NA,NA,NA,"","","",NA,"e",1,0.5827,0,34,34,64,1,"俺","e","",NA,NA,NA,NA,NA,NA,"",NA,"",NA,NA,NA,NA,NA,NA,NA,"",NA,"",NA,NA,NA,NA,NA,NA,"","",NA,"",NA,"",NA,NA,NA,NA,NA,NA,NA,"",NA,"41"
"",NA,"",NA,"",NA,NA,NA,NA,NA,NA,NA,"","",1,1,"2024-09-04_20h45.08.015","IAT(Formal)","2021.2.3","Win32",29.94011976,"",NA,"",NA,NA,NA,NA,NA,NA,NA,"","","",NA,"e",1,0.4497,0,35,35,1,1,"我的","e","",NA,NA,NA,NA,NA,NA,"",NA,"",NA,NA,NA,NA,NA,NA,NA,"",NA,"",NA,NA,NA,NA,NA,NA,"","",NA,"",NA,"",NA,NA,NA,NA,NA,NA,NA,"",NA,"41"
"",NA,"",NA,"",NA,NA,NA,NA,NA,NA,NA,"","",1,1,"2024-09-04_20h45.08.015","IAT(Formal)","2021.2.3","Win32",29.94011976,"",NA,"",NA,NA,NA,NA,NA,NA,NA,"","","",NA,"e",1,0.5592,0,36,36,26,1,"冷静","e","",NA,NA,NA,NA,NA,NA,"",NA,"",NA,NA,NA,NA,NA,NA,NA,"",NA,"",NA,NA,NA,NA,NA,NA,"","",NA,"",NA,"",NA,NA,NA,NA,NA,NA,NA,"",NA,"41"
"",NA,"",NA,"",NA,NA,NA,NA,NA,NA,NA,"","",1,1,"2024-09-04_20h45.08.015","IAT(Formal)","2021.2.3","Win32",29.94011976,"",NA,"",NA,NA,NA,NA,NA,NA,NA,"","","",NA,"e",1,0.4649,0,37,37,53,1,"自己","e","",NA,NA,NA,NA,NA,NA,"",NA,"",NA,NA,NA,NA,NA,NA,NA,"",NA,"",NA,NA,NA,NA,NA,NA,"","",NA,"",NA,"",NA,NA,NA,NA,NA,NA,NA,"",NA,"41"
"",NA,"",NA,"",NA,NA,NA,NA,NA,NA,NA,"","",1,1,"2024-09-04_20h45.08.015","IAT(Formal)","2021.2.3","Win32",29.94011976,"",NA,"",NA,NA,NA,NA,NA,NA,NA,"","","",NA,"i",1,0.5595,0,38,38,67,1,"他的","i","",NA,NA,NA,NA,NA,NA,"",NA,"",NA,NA,NA,NA,NA,NA,NA,"",NA,"",NA,NA,NA,NA,NA,NA,"","",NA,"",NA,"",NA,NA,NA,NA,NA,NA,NA,"",NA,"41"
"",NA,"",NA,"",NA,NA,NA,NA,NA,NA,NA,"","",1,1,"2024-09-04_20h45.08.015","IAT(Formal)","2021.2.3","Win32",29.94011976,"",NA,"",NA,NA,NA,NA,NA,NA,NA,"","","",NA,"e",1,0.5591,0,39,39,17,1,"勇敢","e","",NA,NA,NA,NA,NA,NA,"",NA,"",NA,NA,NA,NA,NA,NA,NA,"",NA,"",NA,NA,NA,NA,NA,NA,"","",NA,"",NA,"",NA,NA,NA,NA,NA,NA,NA,"",NA,"41"
"",NA,"",NA,"",NA,NA,NA,NA,NA,NA,NA,"","",1,1,"2024-09-04_20h45.08.015","IAT(Formal)","2021.2.3","Win32",29.94011976,"",NA,"",NA,NA,NA,NA,NA,NA,NA,"","","",NA,"i",1,0.5992,0,40,40,46,1,"野蛮","i","",NA,NA,NA,NA,NA,NA,"",NA,"",NA,NA,NA,NA,NA,NA,NA,"",NA,"",NA,NA,NA,NA,NA,NA,"","",NA,"",NA,"",NA,NA,NA,NA,NA,NA,NA,"",NA,"41"
"",NA,"",NA,"",NA,NA,NA,NA,NA,NA,NA,"","",1,1,"2024-09-04_20h45.08.015","IAT(Formal)","2021.2.3","Win32",29.94011976,"",NA,"",NA,NA,NA,NA,NA,NA,NA,"","","",NA,"i",1,0.5194,0,41,41,42,1,"凶狠","i","",NA,NA,NA,NA,NA,NA,"",NA,"",NA,NA,NA,NA,NA,NA,NA,"",NA,"",NA,NA,NA,NA,NA,NA,"","",NA,"",NA,"",NA,NA,NA,NA,NA,NA,NA,"",NA,"41"
"",NA,"",NA,"",NA,NA,NA,NA,NA,NA,NA,"","",1,1,"2024-09-04_20h45.08.015","IAT(Formal)","2021.2.3","Win32",29.94011976,"",NA,"",NA,NA,NA,NA,NA,NA,NA,"","","",NA,"e",1,0.4927,0,42,42,62,1,"我们","e","",NA,NA,NA,NA,NA,NA,"",NA,"",NA,NA,NA,NA,NA,NA,NA,"",NA,"",NA,NA,NA,NA,NA,NA,"","",NA,"",NA,"",NA,NA,NA,NA,NA,NA,NA,"",NA,"41"
"",NA,"",NA,"",NA,NA,NA,NA,NA,NA,NA,"","",1,1,"2024-09-04_20h45.08.015","IAT(Formal)","2021.2.3","Win32",29.94011976,"",NA,"",NA,NA,NA,NA,NA,NA,NA,"","","",NA,"e",1,0.4998,0,43,43,16,1,"正直","e","",NA,NA,NA,NA,NA,NA,"",NA,"",NA,NA,NA,NA,NA,NA,NA,"",NA,"",NA,NA,NA,NA,NA,NA,"","",NA,"",NA,"",NA,NA,NA,NA,NA,NA,NA,"",NA,"41"
"",NA,"",NA,"",NA,NA,NA,NA,NA,NA,NA,"","",1,1,"2024-09-04_20h45.08.015","IAT(Formal)","2021.2.3","Win32",29.94011976,"",NA,"",NA,NA,NA,NA,NA,NA,NA,"","","",NA,"i",1,0.6825,0,44,44,69,1,"其他","i","",NA,NA,NA,NA,NA,NA,"",NA,"",NA,NA,NA,NA,NA,NA,NA,"",NA,"",NA,NA,NA,NA,NA,NA,"","",NA,"",NA,"",NA,NA,NA,NA,NA,NA,NA,"",NA,"41"
"",NA,"",NA,"",NA,NA,NA,NA,NA,NA,NA,"","",1,1,"2024-09-04_20h45.08.015","IAT(Formal)","2021.2.3","Win32",29.94011976,"",NA,"",NA,NA,NA,NA,NA,NA,NA,"","","",NA,"i",1,0.6988,0,45,45,31,1,"虚伪","i","",NA,NA,NA,NA,NA,NA,"",NA,"",NA,NA,NA,NA,NA,NA,NA,"",NA,"",NA,NA,NA,NA,NA,NA,"","",NA,"",NA,"",NA,NA,NA,NA,NA,NA,NA,"",NA,"41"
"",NA,"",NA,"",NA,NA,NA,NA,NA,NA,NA,"","",1,1,"2024-09-04_20h45.08.015","IAT(Formal)","2021.2.3","Win32",29.94011976,"",NA,"",NA,NA,NA,NA,NA,NA,NA,"","","",NA,"e",1,0.5047,0,46,46,20,1,"认真","e","",NA,NA,NA,NA,NA,NA,"",NA,"",NA,NA,NA,NA,NA,NA,NA,"",NA,"",NA,NA,NA,NA,NA,NA,"","",NA,"",NA,"",NA,NA,NA,NA,NA,NA,NA,"",NA,"41"
"",NA,"",NA,"",NA,NA,NA,NA,NA,NA,NA,"","",1,1,"2024-09-04_20h45.08.015","IAT(Formal)","2021.2.3","Win32",29.94011976,"",NA,"",NA,NA,NA,NA,NA,NA,NA,"","","",NA,"e",1,0.5751,0,47,47,74,1,"俺","e","",NA,NA,NA,NA,NA,NA,"",NA,"",NA,NA,NA,NA,NA,NA,NA,"",NA,"",NA,NA,NA,NA,NA,NA,"","",NA,"",NA,"",NA,NA,NA,NA,NA,NA,NA,"",NA,"41"
"",NA,"",NA,"",NA,NA,NA,NA,NA,NA,NA,"","",1,1,"2024-09-04_20h45.08.015","IAT(Formal)","2021.2.3","Win32",29.94011976,"",NA,"",NA,NA,NA,NA,NA,NA,NA,"","","",NA,"i",1,0.6008,0,48,48,77,1,"他的","i","",NA,NA,NA,NA,NA,NA,"",NA,"",NA,NA,NA,NA,NA,NA,NA,"",NA,"",NA,NA,NA,NA,NA,NA,"","",NA,"",NA,"",NA,NA,NA,NA,NA,NA,NA,"",NA,"41"
"",NA,"",NA,"",NA,NA,NA,NA,NA,NA,NA,"","",1,1,"2024-09-04_20h45.08.015","IAT(Formal)","2021.2.3","Win32",29.94011976,"",NA,"",NA,NA,NA,NA,NA,NA,NA,"","","",NA,"i",1,0.5747,0,49,49,30,1,"卑鄙","i","",NA,NA,NA,NA,NA,NA,"",NA,"",NA,NA,NA,NA,NA,NA,NA,"",NA,"",NA,NA,NA,NA,NA,NA,"","",NA,"",NA,"",NA,NA,NA,NA,NA,NA,NA,"",NA,"41"
"",NA,"",NA,"",NA,NA,NA,NA,NA,NA,NA,"","",1,1,"2024-09-04_20h45.08.015","IAT(Formal)","2021.2.3","Win32",29.94011976,"",NA,"",NA,NA,NA,NA,NA,NA,NA,"","","",NA,"i",1,0.5506,0,50,50,78,1,"他人","i","",NA,NA,NA,NA,NA,NA,"",NA,"",NA,NA,NA,NA,NA,NA,NA,"",NA,"",NA,NA,NA,NA,NA,NA,"","",NA,"",NA,"",NA,NA,NA,NA,NA,NA,NA,"",NA,"41"
"",NA,"",NA,"",NA,NA,NA,NA,NA,NA,NA,"","",1,1,"2024-09-04_20h45.08.015","IAT(Formal)","2021.2.3","Win32",29.94011976,"",NA,"",NA,NA,NA,NA,NA,NA,NA,"","","",NA,"i",1,0.6014,0,51,51,49,1,"下贱","i","",NA,NA,NA,NA,NA,NA,"",NA,"",NA,NA,NA,NA,NA,NA,NA,"",NA,"",NA,NA,NA,NA,NA,NA,"","",NA,"",NA,"",NA,NA,NA,NA,NA,NA,NA,"",NA,"41"
"",NA,"",NA,"",NA,NA,NA,NA,NA,NA,NA,"","",1,1,"2024-09-04_20h45.08.015","IAT(Formal)","2021.2.3","Win32",29.94011976,"",NA,"",NA,NA,NA,NA,NA,NA,NA,"","","",NA,"i",1,0.5032,0,52,52,37,1,"傲慢","i","",NA,NA,NA,NA,NA,NA,"",NA,"",NA,NA,NA,NA,NA,NA,NA,"",NA,"",NA,NA,NA,NA,NA,NA,"","",NA,"",NA,"",NA,NA,NA,NA,NA,NA,NA,"",NA,"41"
"",NA,"",NA,"",NA,NA,NA,NA,NA,NA,NA,"","",1,1,"2024-09-04_20h45.08.015","IAT(Formal)","2021.2.3","Win32",29.94011976,"",NA,"",NA,NA,NA,NA,NA,NA,NA,"","","",NA,"i",1,0.4635,0,53,53,39,1,"冒失","i","",NA,NA,NA,NA,NA,NA,"",NA,"",NA,NA,NA,NA,NA,NA,NA,"",NA,"",NA,NA,NA,NA,NA,NA,"","",NA,"",NA,"",NA,NA,NA,NA,NA,NA,NA,"",NA,"41"
"",NA,"",NA,"",NA,NA,NA,NA,NA,NA,NA,"","",1,1,"2024-09-04_20h45.08.015","IAT(Formal)","2021.2.3","Win32",29.94011976,"",NA,"",NA,NA,NA,NA,NA,NA,NA,"","","",NA,"e",1,0.522,0,54,54,3,1,"自己","e","",NA,NA,NA,NA,NA,NA,"",NA,"",NA,NA,NA,NA,NA,NA,NA,"",NA,"",NA,NA,NA,NA,NA,NA,"","",NA,"",NA,"",NA,NA,NA,NA,NA,NA,NA,"",NA,"41"
"",NA,"",NA,"",NA,NA,NA,NA,NA,NA,NA,"","",1,1,"2024-09-04_20h45.08.015","IAT(Formal)","2021.2.3","Win32",29.94011976,"",NA,"",NA,NA,NA,NA,NA,NA,NA,"","","",NA,"i",1,0.9978,0,55,55,43,1,"自私","i","",NA,NA,NA,NA,NA,NA,"",NA,"",NA,NA,NA,NA,NA,NA,NA,"",NA,"",NA,NA,NA,NA,NA,NA,"","",NA,"",NA,"",NA,NA,NA,NA,NA,NA,NA,"",NA,"41"
"",NA,"",NA,"",NA,NA,NA,NA,NA,NA,NA,"","",1,1,"2024-09-04_20h45.08.015","IAT(Formal)","2021.2.3","Win32",29.94011976,"",NA,"",NA,NA,NA,NA,NA,NA,NA,"","","",NA,"i",1,0.5717,0,56,56,68,1,"他人","i","",NA,NA,NA,NA,NA,NA,"",NA,"",NA,NA,NA,NA,NA,NA,NA,"",NA,"",NA,NA,NA,NA,NA,NA,"","",NA,"",NA,"",NA,NA,NA,NA,NA,NA,NA,"",NA,"41"
"",NA,"",NA,"",NA,NA,NA,NA,NA,NA,NA,"","",1,1,"2024-09-04_20h45.08.015","IAT(Formal)","2021.2.3","Win32",29.94011976,"",NA,"",NA,NA,NA,NA,NA,NA,NA,"","","",NA,"i",1,0.4812,0,57,57,9,1,"其他","i","",NA,NA,NA,NA,NA,NA,"",NA,"",NA,NA,NA,NA,NA,NA,NA,"",NA,"",NA,NA,NA,NA,NA,NA,"","",NA,"",NA,"",NA,NA,NA,NA,NA,NA,NA,"",NA,"41"
"",NA,"",NA,"",NA,NA,NA,NA,NA,NA,NA,"","",1,1,"2024-09-04_20h45.08.015","IAT(Formal)","2021.2.3","Win32",29.94011976,"",NA,"",NA,NA,NA,NA,NA,NA,NA,"","","",NA,"e",1,0.5272,0,58,58,2,1,"我们","e","",NA,NA,NA,NA,NA,NA,"",NA,"",NA,NA,NA,NA,NA,NA,NA,"",NA,"",NA,NA,NA,NA,NA,NA,"","",NA,"",NA,"",NA,NA,NA,NA,NA,NA,NA,"",NA,"41"
"",NA,"",NA,"",NA,NA,NA,NA,NA,NA,NA,"","",1,1,"2024-09-04_20h45.08.015","IAT(Formal)","2021.2.3","Win32",29.94011976,"",NA,"",NA,NA,NA,NA,NA,NA,NA,"","","",NA,"e",1,0.465,0,59,59,50,1,"我","e","",NA,NA,NA,NA,NA,NA,"",NA,"",NA,NA,NA,NA,NA,NA,NA,"",NA,"",NA,NA,NA,NA,NA,NA,"","",NA,"",NA,"",NA,NA,NA,NA,NA,NA,NA,"",NA,"41"
"",NA,"",NA,"",NA,NA,NA,NA,NA,NA,NA,"","",1,1,"2024-09-04_20h45.08.015","IAT(Formal)","2021.2.3","Win32",29.94011976,"",NA,"",NA,NA,NA,NA,NA,NA,NA,"","","",NA,"i",1,0.4879,0,60,60,44,1,"暴躁","i","",NA,NA,NA,NA,NA,NA,"",NA,"",NA,NA,NA,NA,NA,NA,NA,"",NA,"",NA,NA,NA,NA,NA,NA,"","",NA,"",NA,"",NA,NA,NA,NA,NA,NA,NA,"",NA,"41"
"",NA,"",NA,"",NA,NA,NA,NA,NA,NA,NA,"","",1,1,"2024-09-04_20h45.08.015","IAT(Formal)","2021.2.3","Win32",29.94011976,"",NA,"",NA,NA,NA,NA,NA,NA,NA,"","","",NA,"i",1,0.5762,0,61,61,41,1,"散漫","i","",NA,NA,NA,NA,NA,NA,"",NA,"",NA,NA,NA,NA,NA,NA,NA,"",NA,"",NA,NA,NA,NA,NA,NA,"","",NA,"",NA,"",NA,NA,NA,NA,NA,NA,NA,"",NA,"41"
"",NA,"",NA,"",NA,NA,NA,NA,NA,NA,NA,"","",1,1,"2024-09-04_20h45.08.015","IAT(Formal)","2021.2.3","Win32",29.94011976,"",NA,"",NA,NA,NA,NA,NA,NA,NA,"","","",NA,"i",1,0.4553,0,62,62,38,1,"鲁莽","i","",NA,NA,NA,NA,NA,NA,"",NA,"",NA,NA,NA,NA,NA,NA,NA,"",NA,"",NA,NA,NA,NA,NA,NA,"","",NA,"",NA,"",NA,NA,NA,NA,NA,NA,NA,"",NA,"41"
"",NA,"",NA,"",NA,NA,NA,NA,NA,NA,NA,"","",1,1,"2024-09-04_20h45.08.015","IAT(Formal)","2021.2.3","Win32",29.94011976,"",NA,"",NA,NA,NA,NA,NA,NA,NA,"","","",NA,"e",1,0.521,0,63,63,27,1,"热情","e","",NA,NA,NA,NA,NA,NA,"",NA,"",NA,NA,NA,NA,NA,NA,NA,"",NA,"",NA,NA,NA,NA,NA,NA,"","",NA,"",NA,"",NA,NA,NA,NA,NA,NA,NA,"",NA,"41"
"",NA,"",NA,"",NA,NA,NA,NA,NA,NA,NA,"","",1,1,"2024-09-04_20h45.08.015","IAT(Formal)","2021.2.3","Win32",29.94011976,"",NA,"",NA,NA,NA,NA,NA,NA,NA,"","","",NA,"e",1,0.582,0,64,64,73,1,"自己","e","",NA,NA,NA,NA,NA,NA,"",NA,"",NA,NA,NA,NA,NA,NA,NA,"",NA,"",NA,NA,NA,NA,NA,NA,"","",NA,"",NA,"",NA,NA,NA,NA,NA,NA,NA,"",NA,"41"
"",NA,"",NA,"",NA,NA,NA,NA,NA,NA,NA,"","",1,1,"2024-09-04_20h45.08.015","IAT(Formal)","2021.2.3","Win32",29.94011976,"",NA,"",NA,NA,NA,NA,NA,NA,NA,"","","",NA,"i",1,0.5336,0,65,65,55,1,"他","i","",NA,NA,NA,NA,NA,NA,"",NA,"",NA,NA,NA,NA,NA,NA,NA,"",NA,"",NA,NA,NA,NA,NA,NA,"","",NA,"",NA,"",NA,NA,NA,NA,NA,NA,NA,"",NA,"41"
"",NA,"",NA,"",NA,NA,NA,NA,NA,NA,NA,"","",1,1,"2024-09-04_20h45.08.015","IAT(Formal)","2021.2.3","Win32",29.94011976,"",NA,"",NA,NA,NA,NA,NA,NA,NA,"","","",NA,"i",1,0.5642,0,66,66,59,1,"其他","i","",NA,NA,NA,NA,NA,NA,"",NA,"",NA,NA,NA,NA,NA,NA,NA,"",NA,"",NA,NA,NA,NA,NA,NA,"","",NA,"",NA,"",NA,NA,NA,NA,NA,NA,NA,"",NA,"41"
"",NA,"",NA,"",NA,NA,NA,NA,NA,NA,NA,"","",1,1,"2024-09-04_20h45.08.015","IAT(Formal)","2021.2.3","Win32",29.94011976,"",NA,"",NA,NA,NA,NA,NA,NA,NA,"","","",NA,"i",1,0.5686,0,67,67,33,1,"刻薄","i","",NA,NA,NA,NA,NA,NA,"",NA,"",NA,NA,NA,NA,NA,NA,NA,"",NA,"",NA,NA,NA,NA,NA,NA,"","",NA,"",NA,"",NA,NA,NA,NA,NA,NA,NA,"",NA,"41"
"",NA,"",NA,"",NA,NA,NA,NA,NA,NA,NA,"","",1,1,"2024-09-04_20h45.08.015","IAT(Formal)","2021.2.3","Win32",29.94011976,"",NA,"",NA,NA,NA,NA,NA,NA,NA,"","","",NA,"i",0,0.4613,0,68,68,14,1,"乐观","e","",NA,NA,NA,NA,NA,NA,"",NA,"",NA,NA,NA,NA,NA,NA,NA,"",NA,"",NA,NA,NA,NA,NA,NA,"","",NA,"",NA,"",NA,NA,NA,NA,NA,NA,NA,"",NA,"41"
"",NA,"",NA,"",NA,NA,NA,NA,NA,NA,NA,"","",1,1,"2024-09-04_20h45.08.015","IAT(Formal)","2021.2.3","Win32",29.94011976,"",NA,"",NA,NA,NA,NA,NA,NA,NA,"","","",NA,"e",1,0.5051,0,69,69,11,1,"崇高","e","",NA,NA,NA,NA,NA,NA,"",NA,"",NA,NA,NA,NA,NA,NA,NA,"",NA,"",NA,NA,NA,NA,NA,NA,"","",NA,"",NA,"",NA,NA,NA,NA,NA,NA,NA,"",NA,"41"
"",NA,"",NA,"",NA,NA,NA,NA,NA,NA,NA,"","",1,1,"2024-09-04_20h45.08.015","IAT(Formal)","2021.2.3","Win32",29.94011976,"",NA,"",NA,NA,NA,NA,NA,NA,NA,"","","",NA,"e",1,0.6267,0,70,70,54,1,"俺","e","",NA,NA,NA,NA,NA,NA,"",NA,"",NA,NA,NA,NA,NA,NA,NA,"",NA,"",NA,NA,NA,NA,NA,NA,"","",NA,"",NA,"",NA,NA,NA,NA,NA,NA,NA,"",NA,"41"
"",NA,"",NA,"",NA,NA,NA,NA,NA,NA,NA,"","",1,1,"2024-09-04_20h45.08.015","IAT(Formal)","2021.2.3","Win32",29.94011976,"",NA,"",NA,NA,NA,NA,NA,NA,NA,"","","",NA,"i",1,0.5312,0,71,71,56,1,"他们","i","",NA,NA,NA,NA,NA,NA,"",NA,"",NA,NA,NA,NA,NA,NA,NA,"",NA,"",NA,NA,NA,NA,NA,NA,"","",NA,"",NA,"",NA,NA,NA,NA,NA,NA,NA,"",NA,"41"
"",NA,"",NA,"",NA,NA,NA,NA,NA,NA,NA,"","",1,1,"2024-09-04_20h45.08.015","IAT(Formal)","2021.2.3","Win32",29.94011976,"",NA,"",NA,NA,NA,NA,NA,NA,NA,"","","",NA,"i",1,0.559,0,72,72,7,1,"他的","i","",NA,NA,NA,NA,NA,NA,"",NA,"",NA,NA,NA,NA,NA,NA,NA,"",NA,"",NA,NA,NA,NA,NA,NA,"","",NA,"",NA,"",NA,NA,NA,NA,NA,NA,NA,"",NA,"41"
"",NA,"",NA,"",NA,NA,NA,NA,NA,NA,NA,"","",1,1,"2024-09-04_20h45.08.015","IAT(Formal)","2021.2.3","Win32",29.94011976,"",NA,"",NA,NA,NA,NA,NA,NA,NA,"","","",NA,"i",1,0.5975,0,73,73,47,1,"固执","i","",NA,NA,NA,NA,NA,NA,"",NA,"",NA,NA,NA,NA,NA,NA,NA,"",NA,"",NA,NA,NA,NA,NA,NA,"","",NA,"",NA,"",NA,NA,NA,NA,NA,NA,NA,"",NA,"41"
"",NA,"",NA,"",NA,NA,NA,NA,NA,NA,NA,"","",1,1,"2024-09-04_20h45.08.015","IAT(Formal)","2021.2.3","Win32",29.94011976,"",NA,"",NA,NA,NA,NA,NA,NA,NA,"","","",NA,"e",1,0.5922,0,74,74,29,1,"诚恳","e","",NA,NA,NA,NA,NA,NA,"",NA,"",NA,NA,NA,NA,NA,NA,NA,"",NA,"",NA,NA,NA,NA,NA,NA,"","",NA,"",NA,"",NA,NA,NA,NA,NA,NA,NA,"",NA,"41"
"",NA,"",NA,"",NA,NA,NA,NA,NA,NA,NA,"","",1,1,"2024-09-04_20h45.08.015","IAT(Formal)","2021.2.3","Win32",29.94011976,"",NA,"",NA,NA,NA,NA,NA,NA,NA,"","","",NA,"e",1,0.5575,0,75,75,28,1,"活泼","e","",NA,NA,NA,NA,NA,NA,"",NA,"",NA,NA,NA,NA,NA,NA,NA,"",NA,"",NA,NA,NA,NA,NA,NA,"","",NA,"",NA,"",NA,NA,NA,NA,NA,NA,NA,"",NA,"41"
"",NA,"",NA,"",NA,NA,NA,NA,NA,NA,NA,"","",1,1,"2024-09-04_20h45.08.015","IAT(Formal)","2021.2.3","Win32",29.94011976,"",NA,"",NA,NA,NA,NA,NA,NA,NA,"","","",NA,"e",1,0.5064,0,76,76,51,1,"我的","e","",NA,NA,NA,NA,NA,NA,"",NA,"",NA,NA,NA,NA,NA,NA,NA,"",NA,"",NA,NA,NA,NA,NA,NA,"","",NA,"",NA,"",NA,NA,NA,NA,NA,NA,NA,"",NA,"41"
"",NA,"",NA,"",NA,NA,NA,NA,NA,NA,NA,"","",1,1,"2024-09-04_20h45.08.015","IAT(Formal)","2021.2.3","Win32",29.94011976,"",NA,"",NA,NA,NA,NA,NA,NA,NA,"","","",NA,"e",1,0.5591,0,77,77,15,1,"诚实","e","",NA,NA,NA,NA,NA,NA,"",NA,"",NA,NA,NA,NA,NA,NA,NA,"",NA,"",NA,NA,NA,NA,NA,NA,"","",NA,"",NA,"",NA,NA,NA,NA,NA,NA,NA,"",NA,"41"
"",NA,"",NA,"",NA,NA,NA,NA,NA,NA,NA,"","",1,1,"2024-09-04_20h45.08.015","IAT(Formal)","2021.2.3","Win32",29.94011976,"",NA,"",NA,NA,NA,NA,NA,NA,NA,"","","",NA,"i",1,0.5272,0,78,78,75,1,"他","i","",NA,NA,NA,NA,NA,NA,"",NA,"",NA,NA,NA,NA,NA,NA,NA,"",NA,"",NA,NA,NA,NA,NA,NA,"","",NA,"",NA,"",NA,NA,NA,NA,NA,NA,NA,"",NA,"41"
"",NA,"",NA,"",NA,NA,NA,NA,NA,NA,NA,"","",1,1,"2024-09-04_20h45.08.015","IAT(Formal)","2021.2.3","Win32",29.94011976,"",NA,"",NA,NA,NA,NA,NA,NA,NA,"","","",NA,"i",1,0.5983,0,79,79,34,1,"悲观","i","",NA,NA,NA,NA,NA,NA,"",NA,"",NA,NA,NA,NA,NA,NA,NA,"",NA,"",NA,NA,NA,NA,NA,NA,"","",NA,"",NA,"",NA,NA,NA,NA,NA,NA,NA,"",NA,"41"
"",NA,"",NA,"",NA,NA,NA,NA,NA,NA,NA,"","",1,1,"2024-09-04_20h45.08.015","IAT(Formal)","2021.2.3","Win32",29.94011976,"",NA,"",NA,NA,NA,NA,NA,NA,NA,"","","",NA,"e",1,1.3444,NA,NA,NA,NA,NA,"热情","e","space",10.5228,0,0,0,27,1,"",NA,"",NA,NA,NA,NA,NA,NA,NA,"",NA,"",NA,NA,NA,NA,NA,NA,"","",NA,"",NA,"",NA,NA,NA,NA,NA,NA,NA,"",NA,"41"
"",NA,"",NA,"",NA,NA,NA,NA,NA,NA,NA,"","",1,1,"2024-09-04_20h45.08.015","IAT(Formal)","2021.2.3","Win32",29.94011976,"",NA,"",NA,NA,NA,NA,NA,NA,NA,"","","",NA,"e",1,0.577,NA,NA,NA,NA,NA,"俺","e","",NA,0,1,1,54,1,"",NA,"",NA,NA,NA,NA,NA,NA,NA,"",NA,"",NA,NA,NA,NA,NA,NA,"","",NA,"",NA,"",NA,NA,NA,NA,NA,NA,NA,"",NA,"41"
"",NA,"",NA,"",NA,NA,NA,NA,NA,NA,NA,"","",1,1,"2024-09-04_20h45.08.015","IAT(Formal)","2021.2.3","Win32",29.94011976,"",NA,"",NA,NA,NA,NA,NA,NA,NA,"","","",NA,"i",1,0.5309,NA,NA,NA,NA,NA,"悲观","i","",NA,0,2,2,34,1,"",NA,"",NA,NA,NA,NA,NA,NA,NA,"",NA,"",NA,NA,NA,NA,NA,NA,"","",NA,"",NA,"",NA,NA,NA,NA,NA,NA,NA,"",NA,"41"
"",NA,"",NA,"",NA,NA,NA,NA,NA,NA,NA,"","",1,1,"2024-09-04_20h45.08.015","IAT(Formal)","2021.2.3","Win32",29.94011976,"",NA,"",NA,NA,NA,NA,NA,NA,NA,"","","",NA,"e",1,0.5257,NA,NA,NA,NA,NA,"诚实","e","",NA,0,3,3,15,1,"",NA,"",NA,NA,NA,NA,NA,NA,NA,"",NA,"",NA,NA,NA,NA,NA,NA,"","",NA,"",NA,"",NA,NA,NA,NA,NA,NA,NA,"",NA,"41"
"",NA,"",NA,"",NA,NA,NA,NA,NA,NA,NA,"","",1,1,"2024-09-04_20h45.08.015","IAT(Formal)","2021.2.3","Win32",29.94011976,"",NA,"",NA,NA,NA,NA,NA,NA,NA,"","","",NA,"i",1,0.4764,NA,NA,NA,NA,NA,"他们","i","",NA,0,4,4,6,1,"",NA,"",NA,NA,NA,NA,NA,NA,NA,"",NA,"",NA,NA,NA,NA,NA,NA,"","",NA,"",NA,"",NA,NA,NA,NA,NA,NA,NA,"",NA,"41"
"",NA,"",NA,"",NA,NA,NA,NA,NA,NA,NA,"","",1,1,"2024-09-04_20h45.08.015","IAT(Formal)","2021.2.3","Win32",29.94011976,"",NA,"",NA,NA,NA,NA,NA,NA,NA,"","","",NA,"e",1,0.469,NA,NA,NA,NA,NA,"自己","e","",NA,0,5,5,3,1,"",NA,"",NA,NA,NA,NA,NA,NA,NA,"",NA,"",NA,NA,NA,NA,NA,NA,"","",NA,"",NA,"",NA,NA,NA,NA,NA,NA,NA,"",NA,"41"
"",NA,"",NA,"",NA,NA,NA,NA,NA,NA,NA,"","",1,1,"2024-09-04_20h45.08.015","IAT(Formal)","2021.2.3","Win32",29.94011976,"",NA,"",NA,NA,NA,NA,NA,NA,NA,"","","",NA,"e",1,0.5055,NA,NA,NA,NA,NA,"聪明","e","",NA,0,6,6,12,1,"",NA,"",NA,NA,NA,NA,NA,NA,NA,"",NA,"",NA,NA,NA,NA,NA,NA,"","",NA,"",NA,"",NA,NA,NA,NA,NA,NA,NA,"",NA,"41"
"",NA,"",NA,"",NA,NA,NA,NA,NA,NA,NA,"","",1,1,"2024-09-04_20h45.08.015","IAT(Formal)","2021.2.3","Win32",29.94011976,"",NA,"",NA,NA,NA,NA,NA,NA,NA,"","","",NA,"e",1,0.4769,NA,NA,NA,NA,NA,"我","e","",NA,0,7,7,0,1,"",NA,"",NA,NA,NA,NA,NA,NA,NA,"",NA,"",NA,NA,NA,NA,NA,NA,"","",NA,"",NA,"",NA,NA,NA,NA,NA,NA,NA,"",NA,"41"
"",NA,"",NA,"",NA,NA,NA,NA,NA,NA,NA,"","",1,1,"2024-09-04_20h45.08.015","IAT(Formal)","2021.2.3","Win32",29.94011976,"",NA,"",NA,NA,NA,NA,NA,NA,NA,"","","",NA,"e",1,0.447,NA,NA,NA,NA,NA,"活泼","e","",NA,0,8,8,28,1,"",NA,"",NA,NA,NA,NA,NA,NA,NA,"",NA,"",NA,NA,NA,NA,NA,NA,"","",NA,"",NA,"",NA,NA,NA,NA,NA,NA,NA,"",NA,"41"
"",NA,"",NA,"",NA,NA,NA,NA,NA,NA,NA,"","",1,1,"2024-09-04_20h45.08.015","IAT(Formal)","2021.2.3","Win32",29.94011976,"",NA,"",NA,NA,NA,NA,NA,NA,NA,"","","",NA,"e",1,0.4446,NA,NA,NA,NA,NA,"我","e","",NA,0,9,9,60,1,"",NA,"",NA,NA,NA,NA,NA,NA,NA,"",NA,"",NA,NA,NA,NA,NA,NA,"","",NA,"",NA,"",NA,NA,NA,NA,NA,NA,NA,"",NA,"41"
"",NA,"",NA,"",NA,NA,NA,NA,NA,NA,NA,"","",1,1,"2024-09-04_20h45.08.015","IAT(Formal)","2021.2.3","Win32",29.94011976,"",NA,"",NA,NA,NA,NA,NA,NA,NA,"","","",NA,"i",1,0.5404,NA,NA,NA,NA,NA,"野蛮","i","",NA,0,10,10,46,1,"",NA,"",NA,NA,NA,NA,NA,NA,NA,"",NA,"",NA,NA,NA,NA,NA,NA,"","",NA,"",NA,"",NA,NA,NA,NA,NA,NA,NA,"",NA,"41"
"",NA,"",NA,"",NA,NA,NA,NA,NA,NA,NA,"","",1,1,"2024-09-04_20h45.08.015","IAT(Formal)","2021.2.3","Win32",29.94011976,"",NA,"",NA,NA,NA,NA,NA,NA,NA,"","","",NA,"e",1,0.482,NA,NA,NA,NA,NA,"乐观","e","",NA,0,11,11,14,1,"",NA,"",NA,NA,NA,NA,NA,NA,NA,"",NA,"",NA,NA,NA,NA,NA,NA,"","",NA,"",NA,"",NA,NA,NA,NA,NA,NA,NA,"",NA,"41"
"",NA,"",NA,"",NA,NA,NA,NA,NA,NA,NA,"","",1,1,"2024-09-04_20h45.08.015","IAT(Formal)","2021.2.3","Win32",29.94011976,"",NA,"",NA,NA,NA,NA,NA,NA,NA,"","","",NA,"i",1,0.5633,NA,NA,NA,NA,NA,"固执","i","",NA,0,12,12,47,1,"",NA,"",NA,NA,NA,NA,NA,NA,NA,"",NA,"",NA,NA,NA,NA,NA,NA,"","",NA,"",NA,"",NA,NA,NA,NA,NA,NA,NA,"",NA,"41"
"",NA,"",NA,"",NA,NA,NA,NA,NA,NA,NA,"","",1,1,"2024-09-04_20h45.08.015","IAT(Formal)","2021.2.3","Win32",29.94011976,"",NA,"",NA,NA,NA,NA,NA,NA,NA,"","","",NA,"e",1,0.5229,NA,NA,NA,NA,NA,"诚恳","e","",NA,0,13,13,29,1,"",NA,"",NA,NA,NA,NA,NA,NA,NA,"",NA,"",NA,NA,NA,NA,NA,NA,"","",NA,"",NA,"",NA,NA,NA,NA,NA,NA,NA,"",NA,"41"
"",NA,"",NA,"",NA,NA,NA,NA,NA,NA,NA,"","",1,1,"2024-09-04_20h45.08.015","IAT(Formal)","2021.2.3","Win32",29.94011976,"",NA,"",NA,NA,NA,NA,NA,NA,NA,"","","",NA,"i",1,0.5202,NA,NA,NA,NA,NA,"愚蠢","i","",NA,0,14,14,32,1,"",NA,"",NA,NA,NA,NA,NA,NA,NA,"",NA,"",NA,NA,NA,NA,NA,NA,"","",NA,"",NA,"",NA,NA,NA,NA,NA,NA,NA,"",NA,"41"
"",NA,"",NA,"",NA,NA,NA,NA,NA,NA,NA,"","",1,1,"2024-09-04_20h45.08.015","IAT(Formal)","2021.2.3","Win32",29.94011976,"",NA,"",NA,NA,NA,NA,NA,NA,NA,"","","",NA,"i",1,0.4643,NA,NA,NA,NA,NA,"散漫","i","",NA,0,15,15,41,1,"",NA,"",NA,NA,NA,NA,NA,NA,NA,"",NA,"",NA,NA,NA,NA,NA,NA,"","",NA,"",NA,"",NA,NA,NA,NA,NA,NA,NA,"",NA,"41"
"",NA,"",NA,"",NA,NA,NA,NA,NA,NA,NA,"","",1,1,"2024-09-04_20h45.08.015","IAT(Formal)","2021.2.3","Win32",29.94011976,"",NA,"",NA,NA,NA,NA,NA,NA,NA,"","","",NA,"i",1,0.5278,NA,NA,NA,NA,NA,"其他","i","",NA,0,16,16,59,1,"",NA,"",NA,NA,NA,NA,NA,NA,NA,"",NA,"",NA,NA,NA,NA,NA,NA,"","",NA,"",NA,"",NA,NA,NA,NA,NA,NA,NA,"",NA,"41"
"",NA,"",NA,"",NA,NA,NA,NA,NA,NA,NA,"","",1,1,"2024-09-04_20h45.08.015","IAT(Formal)","2021.2.3","Win32",29.94011976,"",NA,"",NA,NA,NA,NA,NA,NA,NA,"","","",NA,"i",1,0.4029,NA,NA,NA,NA,NA,"他的","i","",NA,0,17,17,7,1,"",NA,"",NA,NA,NA,NA,NA,NA,NA,"",NA,"",NA,NA,NA,NA,NA,NA,"","",NA,"",NA,"",NA,NA,NA,NA,NA,NA,NA,"",NA,"41"
"",NA,"",NA,"",NA,NA,NA,NA,NA,NA,NA,"","",1,1,"2024-09-04_20h45.08.015","IAT(Formal)","2021.2.3","Win32",29.94011976,"",NA,"",NA,NA,NA,NA,NA,NA,NA,"","","",NA,"i",1,0.4727,NA,NA,NA,NA,NA,"卑鄙","i","",NA,0,18,18,30,1,"",NA,"",NA,NA,NA,NA,NA,NA,NA,"",NA,"",NA,NA,NA,NA,NA,NA,"","",NA,"",NA,"",NA,NA,NA,NA,NA,NA,NA,"",NA,"41"
"",NA,"",NA,"",NA,NA,NA,NA,NA,NA,NA,"","",1,1,"2024-09-04_20h45.08.015","IAT(Formal)","2021.2.3","Win32",29.94011976,"",NA,"",NA,NA,NA,NA,NA,NA,NA,"","","",NA,"i",1,0.5477,NA,NA,NA,NA,NA,"自私","i","",NA,0,19,19,43,1,"",NA,"",NA,NA,NA,NA,NA,NA,NA,"",NA,"",NA,NA,NA,NA,NA,NA,"","",NA,"",NA,"",NA,NA,NA,NA,NA,NA,NA,"",NA,"41"
"",NA,"",NA,"",NA,NA,NA,NA,NA,NA,NA,"","",1,1,"2024-09-04_20h45.08.015","IAT(Formal)","2021.2.3","Win32",29.94011976,"",NA,"",NA,NA,NA,NA,NA,NA,NA,"","","",NA,"e",1,0.4098,NA,NA,NA,NA,NA,"我的","e","",NA,0,20,20,61,1,"",NA,"",NA,NA,NA,NA,NA,NA,NA,"",NA,"",NA,NA,NA,NA,NA,NA,"","",NA,"",NA,"",NA,NA,NA,NA,NA,NA,NA,"",NA,"41"
"",NA,"",NA,"",NA,NA,NA,NA,NA,NA,NA,"","",1,1,"2024-09-04_20h45.08.015","IAT(Formal)","2021.2.3","Win32",29.94011976,"",NA,"",NA,NA,NA,NA,NA,NA,NA,"","","",NA,"i",1,0.4453,NA,NA,NA,NA,NA,"他们","i","",NA,0,21,21,66,1,"",NA,"",NA,NA,NA,NA,NA,NA,NA,"",NA,"",NA,NA,NA,NA,NA,NA,"","",NA,"",NA,"",NA,NA,NA,NA,NA,NA,NA,"",NA,"41"
"",NA,"",NA,"",NA,NA,NA,NA,NA,NA,NA,"","",1,1,"2024-09-04_20h45.08.015","IAT(Formal)","2021.2.3","Win32",29.94011976,"",NA,"",NA,NA,NA,NA,NA,NA,NA,"","","",NA,"i",1,0.4956,NA,NA,NA,NA,NA,"冒失","i","",NA,0,22,22,39,1,"",NA,"",NA,NA,NA,NA,NA,NA,NA,"",NA,"",NA,NA,NA,NA,NA,NA,"","",NA,"",NA,"",NA,NA,NA,NA,NA,NA,NA,"",NA,"41"
"",NA,"",NA,"",NA,NA,NA,NA,NA,NA,NA,"","",1,1,"2024-09-04_20h45.08.015","IAT(Formal)","2021.2.3","Win32",29.94011976,"",NA,"",NA,NA,NA,NA,NA,NA,NA,"","","",NA,"i",1,0.4603,NA,NA,NA,NA,NA,"自卑","i","",NA,0,23,23,36,1,"",NA,"",NA,NA,NA,NA,NA,NA,NA,"",NA,"",NA,NA,NA,NA,NA,NA,"","",NA,"",NA,"",NA,NA,NA,NA,NA,NA,NA,"",NA,"41"
"",NA,"",NA,"",NA,NA,NA,NA,NA,NA,NA,"","",1,1,"2024-09-04_20h45.08.015","IAT(Formal)","2021.2.3","Win32",29.94011976,"",NA,"",NA,NA,NA,NA,NA,NA,NA,"","","",NA,"i",1,0.4683,NA,NA,NA,NA,NA,"他人","i","",NA,0,24,24,78,1,"",NA,"",NA,NA,NA,NA,NA,NA,NA,"",NA,"",NA,NA,NA,NA,NA,NA,"","",NA,"",NA,"",NA,NA,NA,NA,NA,NA,NA,"",NA,"41"
"",NA,"",NA,"",NA,NA,NA,NA,NA,NA,NA,"","",1,1,"2024-09-04_20h45.08.015","IAT(Formal)","2021.2.3","Win32",29.94011976,"",NA,"",NA,NA,NA,NA,NA,NA,NA,"","","",NA,"i",1,0.4689,NA,NA,NA,NA,NA,"鲁莽","i","",NA,0,25,25,38,1,"",NA,"",NA,NA,NA,NA,NA,NA,NA,"",NA,"",NA,NA,NA,NA,NA,NA,"","",NA,"",NA,"",NA,NA,NA,NA,NA,NA,NA,"",NA,"41"
"",NA,"",NA,"",NA,NA,NA,NA,NA,NA,NA,"","",1,1,"2024-09-04_20h45.08.015","IAT(Formal)","2021.2.3","Win32",29.94011976,"",NA,"",NA,NA,NA,NA,NA,NA,NA,"","","",NA,"e",1,0.6324,NA,NA,NA,NA,NA,"俺","e","",NA,0,26,26,4,1,"",NA,"",NA,NA,NA,NA,NA,NA,NA,"",NA,"",NA,NA,NA,NA,NA,NA,"","",NA,"",NA,"",NA,NA,NA,NA,NA,NA,NA,"",NA,"41"
"",NA,"",NA,"",NA,NA,NA,NA,NA,NA,NA,"","",1,1,"2024-09-04_20h45.08.015","IAT(Formal)","2021.2.3","Win32",29.94011976,"",NA,"",NA,NA,NA,NA,NA,NA,NA,"","","",NA,"i",1,0.5341,NA,NA,NA,NA,NA,"消极","i","",NA,0,27,27,35,1,"",NA,"",NA,NA,NA,NA,NA,NA,NA,"",NA,"",NA,NA,NA,NA,NA,NA,"","",NA,"",NA,"",NA,NA,NA,NA,NA,NA,NA,"",NA,"41"
"",NA,"",NA,"",NA,NA,NA,NA,NA,NA,NA,"","",1,1,"2024-09-04_20h45.08.015","IAT(Formal)","2021.2.3","Win32",29.94011976,"",NA,"",NA,NA,NA,NA,NA,NA,NA,"","","",NA,"e",1,0.4958,NA,NA,NA,NA,NA,"我们","e","",NA,0,28,28,2,1,"",NA,"",NA,NA,NA,NA,NA,NA,NA,"",NA,"",NA,NA,NA,NA,NA,NA,"","",NA,"",NA,"",NA,NA,NA,NA,NA,NA,NA,"",NA,"41"
"",NA,"",NA,"",NA,NA,NA,NA,NA,NA,NA,"","",1,1,"2024-09-04_20h45.08.015","IAT(Formal)","2021.2.3","Win32",29.94011976,"",NA,"",NA,NA,NA,NA,NA,NA,NA,"","","",NA,"i",1,0.4384,NA,NA,NA,NA,NA,"他人","i","",NA,0,29,29,58,1,"",NA,"",NA,NA,NA,NA,NA,NA,NA,"",NA,"",NA,NA,NA,NA,NA,NA,"","",NA,"",NA,"",NA,NA,NA,NA,NA,NA,NA,"",NA,"41"
"",NA,"",NA,"",NA,NA,NA,NA,NA,NA,NA,"","",1,1,"2024-09-04_20h45.08.015","IAT(Formal)","2021.2.3","Win32",29.94011976,"",NA,"",NA,NA,NA,NA,NA,NA,NA,"","","",NA,"i",1,0.7024,NA,NA,NA,NA,NA,"执拗","i","",NA,0,30,30,40,1,"",NA,"",NA,NA,NA,NA,NA,NA,NA,"",NA,"",NA,NA,NA,NA,NA,NA,"","",NA,"",NA,"",NA,NA,NA,NA,NA,NA,NA,"",NA,"41"
"",NA,"",NA,"",NA,NA,NA,NA,NA,NA,NA,"","",1,1,"2024-09-04_20h45.08.015","IAT(Formal)","2021.2.3","Win32",29.94011976,"",NA,"",NA,NA,NA,NA,NA,NA,NA,"","","",NA,"e",1,0.5567,NA,NA,NA,NA,NA,"自己","e","",NA,0,31,31,73,1,"",NA,"",NA,NA,NA,NA,NA,NA,NA,"",NA,"",NA,NA,NA,NA,NA,NA,"","",NA,"",NA,"",NA,NA,NA,NA,NA,NA,NA,"",NA,"41"
"",NA,"",NA,"",NA,NA,NA,NA,NA,NA,NA,"","",1,1,"2024-09-04_20h45.08.015","IAT(Formal)","2021.2.3","Win32",29.94011976,"",NA,"",NA,NA,NA,NA,NA,NA,NA,"","","",NA,"e",1,0.5726,NA,NA,NA,NA,NA,"细腻","e","",NA,0,32,32,25,1,"",NA,"",NA,NA,NA,NA,NA,NA,NA,"",NA,"",NA,NA,NA,NA,NA,NA,"","",NA,"",NA,"",NA,NA,NA,NA,NA,NA,NA,"",NA,"41"
"",NA,"",NA,"",NA,NA,NA,NA,NA,NA,NA,"","",1,1,"2024-09-04_20h45.08.015","IAT(Formal)","2021.2.3","Win32",29.94011976,"",NA,"",NA,NA,NA,NA,NA,NA,NA,"","","",NA,"i",1,0.6876,NA,NA,NA,NA,NA,"轻率","i","",NA,0,33,33,48,1,"",NA,"",NA,NA,NA,NA,NA,NA,NA,"",NA,"",NA,NA,NA,NA,NA,NA,"","",NA,"",NA,"",NA,NA,NA,NA,NA,NA,NA,"",NA,"41"
"",NA,"",NA,"",NA,NA,NA,NA,NA,NA,NA,"","",1,1,"2024-09-04_20h45.08.015","IAT(Formal)","2021.2.3","Win32",29.94011976,"",NA,"",NA,NA,NA,NA,NA,NA,NA,"","","",NA,"e",1,0.5266,NA,NA,NA,NA,NA,"我们","e","",NA,0,34,34,72,1,"",NA,"",NA,NA,NA,NA,NA,NA,NA,"",NA,"",NA,NA,NA,NA,NA,NA,"","",NA,"",NA,"",NA,NA,NA,NA,NA,NA,NA,"",NA,"41"
"",NA,"",NA,"",NA,NA,NA,NA,NA,NA,NA,"","",1,1,"2024-09-04_20h45.08.015","IAT(Formal)","2021.2.3","Win32",29.94011976,"",NA,"",NA,NA,NA,NA,NA,NA,NA,"","","",NA,"e",1,0.6438,NA,NA,NA,NA,NA,"崇高","e","",NA,0,35,35,11,1,"",NA,"",NA,NA,NA,NA,NA,NA,NA,"",NA,"",NA,NA,NA,NA,NA,NA,"","",NA,"",NA,"",NA,NA,NA,NA,NA,NA,NA,"",NA,"41"
"",NA,"",NA,"",NA,NA,NA,NA,NA,NA,NA,"","",1,1,"2024-09-04_20h45.08.015","IAT(Formal)","2021.2.3","Win32",29.94011976,"",NA,"",NA,NA,NA,NA,NA,NA,NA,"","","",NA,"i",1,0.5123,NA,NA,NA,NA,NA,"暴躁","i","",NA,0,36,36,44,1,"",NA,"",NA,NA,NA,NA,NA,NA,NA,"",NA,"",NA,NA,NA,NA,NA,NA,"","",NA,"",NA,"",NA,NA,NA,NA,NA,NA,NA,"",NA,"41"
"",NA,"",NA,"",NA,NA,NA,NA,NA,NA,NA,"","",1,1,"2024-09-04_20h45.08.015","IAT(Formal)","2021.2.3","Win32",29.94011976,"",NA,"",NA,NA,NA,NA,NA,NA,NA,"","","",NA,"e",1,0.5973,NA,NA,NA,NA,NA,"我的","e","",NA,0,37,37,71,1,"",NA,"",NA,NA,NA,NA,NA,NA,NA,"",NA,"",NA,NA,NA,NA,NA,NA,"","",NA,"",NA,"",NA,NA,NA,NA,NA,NA,NA,"",NA,"41"
"",NA,"",NA,"",NA,NA,NA,NA,NA,NA,NA,"","",1,1,"2024-09-04_20h45.08.015","IAT(Formal)","2021.2.3","Win32",29.94011976,"",NA,"",NA,NA,NA,NA,NA,NA,NA,"","","",NA,"i",1,0.4928,NA,NA,NA,NA,NA,"他们","i","",NA,0,38,38,56,1,"",NA,"",NA,NA,NA,NA,NA,NA,NA,"",NA,"",NA,NA,NA,NA,NA,NA,"","",NA,"",NA,"",NA,NA,NA,NA,NA,NA,NA,"",NA,"41"
"",NA,"",NA,"",NA,NA,NA,NA,NA,NA,NA,"","",1,1,"2024-09-04_20h45.08.015","IAT(Formal)","2021.2.3","Win32",29.94011976,"",NA,"",NA,NA,NA,NA,NA,NA,NA,"","","",NA,"i",1,0.5808,NA,NA,NA,NA,NA,"猖狂","i","",NA,0,39,39,45,1,"",NA,"",NA,NA,NA,NA,NA,NA,NA,"",NA,"",NA,NA,NA,NA,NA,NA,"","",NA,"",NA,"",NA,NA,NA,NA,NA,NA,NA,"",NA,"41"
"",NA,"",NA,"",NA,NA,NA,NA,NA,NA,NA,"","",1,1,"2024-09-04_20h45.08.015","IAT(Formal)","2021.2.3","Win32",29.94011976,"",NA,"",NA,NA,NA,NA,NA,NA,NA,"","","",NA,"e",1,0.567,NA,NA,NA,NA,NA,"稳重","e","",NA,0,40,40,21,1,"",NA,"",NA,NA,NA,NA,NA,NA,NA,"",NA,"",NA,NA,NA,NA,NA,NA,"","",NA,"",NA,"",NA,NA,NA,NA,NA,NA,NA,"",NA,"41"
"",NA,"",NA,"",NA,NA,NA,NA,NA,NA,NA,"","",1,1,"2024-09-04_20h45.08.015","IAT(Formal)","2021.2.3","Win32",29.94011976,"",NA,"",NA,NA,NA,NA,NA,NA,NA,"","","",NA,"e",1,0.6588,NA,NA,NA,NA,NA,"勤奋","e","",NA,0,41,41,18,1,"",NA,"",NA,NA,NA,NA,NA,NA,NA,"",NA,"",NA,NA,NA,NA,NA,NA,"","",NA,"",NA,"",NA,NA,NA,NA,NA,NA,NA,"",NA,"41"
"",NA,"",NA,"",NA,NA,NA,NA,NA,NA,NA,"","",1,1,"2024-09-04_20h45.08.015","IAT(Formal)","2021.2.3","Win32",29.94011976,"",NA,"",NA,NA,NA,NA,NA,NA,NA,"","","",NA,"e",1,0.4599,NA,NA,NA,NA,NA,"我的","e","",NA,0,42,42,51,1,"",NA,"",NA,NA,NA,NA,NA,NA,NA,"",NA,"",NA,NA,NA,NA,NA,NA,"","",NA,"",NA,"",NA,NA,NA,NA,NA,NA,NA,"",NA,"41"
"",NA,"",NA,"",NA,NA,NA,NA,NA,NA,NA,"","",1,1,"2024-09-04_20h45.08.015","IAT(Formal)","2021.2.3","Win32",29.94011976,"",NA,"",NA,NA,NA,NA,NA,NA,NA,"","","",NA,"i",1,0.5618,NA,NA,NA,NA,NA,"虚伪","i","",NA,0,43,43,31,1,"",NA,"",NA,NA,NA,NA,NA,NA,NA,"",NA,"",NA,NA,NA,NA,NA,NA,"","",NA,"",NA,"",NA,NA,NA,NA,NA,NA,NA,"",NA,"41"
"",NA,"",NA,"",NA,NA,NA,NA,NA,NA,NA,"","",1,1,"2024-09-04_20h45.08.015","IAT(Formal)","2021.2.3","Win32",29.94011976,"",NA,"",NA,NA,NA,NA,NA,NA,NA,"","","",NA,"e",1,0.6016,NA,NA,NA,NA,NA,"勇敢","e","",NA,0,44,44,17,1,"",NA,"",NA,NA,NA,NA,NA,NA,NA,"",NA,"",NA,NA,NA,NA,NA,NA,"","",NA,"",NA,"",NA,NA,NA,NA,NA,NA,NA,"",NA,"41"
"",NA,"",NA,"",NA,NA,NA,NA,NA,NA,NA,"","",1,1,"2024-09-04_20h45.08.015","IAT(Formal)","2021.2.3","Win32",29.94011976,"",NA,"",NA,NA,NA,NA,NA,NA,NA,"","","",NA,"i",1,0.5592,NA,NA,NA,NA,NA,"凶狠","i","",NA,0,45,45,42,1,"",NA,"",NA,NA,NA,NA,NA,NA,NA,"",NA,"",NA,NA,NA,NA,NA,NA,"","",NA,"",NA,"",NA,NA,NA,NA,NA,NA,NA,"",NA,"41"
"",NA,"",NA,"",NA,NA,NA,NA,NA,NA,NA,"","",1,1,"2024-09-04_20h45.08.015","IAT(Formal)","2021.2.3","Win32",29.94011976,"",NA,"",NA,NA,NA,NA,NA,NA,NA,"","","",NA,"i",1,0.613,NA,NA,NA,NA,NA,"他的","i","",NA,0,46,46,57,1,"",NA,"",NA,NA,NA,NA,NA,NA,NA,"",NA,"",NA,NA,NA,NA,NA,NA,"","",NA,"",NA,"",NA,NA,NA,NA,NA,NA,NA,"",NA,"41"
"",NA,"",NA,"",NA,NA,NA,NA,NA,NA,NA,"","",1,1,"2024-09-04_20h45.08.015","IAT(Formal)","2021.2.3","Win32",29.94011976,"",NA,"",NA,NA,NA,NA,NA,NA,NA,"","","",NA,"e",1,0.5961,NA,NA,NA,NA,NA,"我的","e","",NA,0,47,47,1,1,"",NA,"",NA,NA,NA,NA,NA,NA,NA,"",NA,"",NA,NA,NA,NA,NA,NA,"","",NA,"",NA,"",NA,NA,NA,NA,NA,NA,NA,"",NA,"41"
"",NA,"",NA,"",NA,NA,NA,NA,NA,NA,NA,"","",1,1,"2024-09-04_20h45.08.015","IAT(Formal)","2021.2.3","Win32",29.94011976,"",NA,"",NA,NA,NA,NA,NA,NA,NA,"","","",NA,"e",1,0.5777,NA,NA,NA,NA,NA,"朴实","e","",NA,0,48,48,24,1,"",NA,"",NA,NA,NA,NA,NA,NA,NA,"",NA,"",NA,NA,NA,NA,NA,NA,"","",NA,"",NA,"",NA,NA,NA,NA,NA,NA,NA,"",NA,"41"
"",NA,"",NA,"",NA,NA,NA,NA,NA,NA,NA,"","",1,1,"2024-09-04_20h45.08.015","IAT(Formal)","2021.2.3","Win32",29.94011976,"",NA,"",NA,NA,NA,NA,NA,NA,NA,"","","",NA,"i",1,0.7027,NA,NA,NA,NA,NA,"他","i","",NA,0,49,49,5,1,"",NA,"",NA,NA,NA,NA,NA,NA,NA,"",NA,"",NA,NA,NA,NA,NA,NA,"","",NA,"",NA,"",NA,NA,NA,NA,NA,NA,NA,"",NA,"41"
"",NA,"",NA,"",NA,NA,NA,NA,NA,NA,NA,"","",1,1,"2024-09-04_20h45.08.015","IAT(Formal)","2021.2.3","Win32",29.94011976,"",NA,"",NA,NA,NA,NA,NA,NA,NA,"","","",NA,"i",1,0.4854,NA,NA,NA,NA,NA,"其他","i","",NA,0,50,50,79,1,"",NA,"",NA,NA,NA,NA,NA,NA,NA,"",NA,"",NA,NA,NA,NA,NA,NA,"","",NA,"",NA,"",NA,NA,NA,NA,NA,NA,NA,"",NA,"41"
"",NA,"",NA,"",NA,NA,NA,NA,NA,NA,NA,"","",1,1,"2024-09-04_20h45.08.015","IAT(Formal)","2021.2.3","Win32",29.94011976,"",NA,"",NA,NA,NA,NA,NA,NA,NA,"","","",NA,"e",1,0.597,NA,NA,NA,NA,NA,"俺","e","",NA,0,51,51,64,1,"",NA,"",NA,NA,NA,NA,NA,NA,NA,"",NA,"",NA,NA,NA,NA,NA,NA,"","",NA,"",NA,"",NA,NA,NA,NA,NA,NA,NA,"",NA,"41"
"",NA,"",NA,"",NA,NA,NA,NA,NA,NA,NA,"","",1,1,"2024-09-04_20h45.08.015","IAT(Formal)","2021.2.3","Win32",29.94011976,"",NA,"",NA,NA,NA,NA,NA,NA,NA,"","","",NA,"e",1,0.5401,NA,NA,NA,NA,NA,"杰出","e","",NA,0,52,52,13,1,"",NA,"",NA,NA,NA,NA,NA,NA,NA,"",NA,"",NA,NA,NA,NA,NA,NA,"","",NA,"",NA,"",NA,NA,NA,NA,NA,NA,NA,"",NA,"41"
"",NA,"",NA,"",NA,NA,NA,NA,NA,NA,NA,"","",1,1,"2024-09-04_20h45.08.015","IAT(Formal)","2021.2.3","Win32",29.94011976,"",NA,"",NA,NA,NA,NA,NA,NA,NA,"","","",NA,"i",1,0.572,NA,NA,NA,NA,NA,"傲慢","i","",NA,0,53,53,37,1,"",NA,"",NA,NA,NA,NA,NA,NA,NA,"",NA,"",NA,NA,NA,NA,NA,NA,"","",NA,"",NA,"",NA,NA,NA,NA,NA,NA,NA,"",NA,"41"
"",NA,"",NA,"",NA,NA,NA,NA,NA,NA,NA,"","",1,1,"2024-09-04_20h45.08.015","IAT(Formal)","2021.2.3","Win32",29.94011976,"",NA,"",NA,NA,NA,NA,NA,NA,NA,"","","",NA,"i",1,0.4612,NA,NA,NA,NA,NA,"其他","i","",NA,0,54,54,69,1,"",NA,"",NA,NA,NA,NA,NA,NA,NA,"",NA,"",NA,NA,NA,NA,NA,NA,"","",NA,"",NA,"",NA,NA,NA,NA,NA,NA,NA,"",NA,"41"
"",NA,"",NA,"",NA,NA,NA,NA,NA,NA,NA,"","",1,1,"2024-09-04_20h45.08.015","IAT(Formal)","2021.2.3","Win32",29.94011976,"",NA,"",NA,NA,NA,NA,NA,NA,NA,"","","",NA,"e",1,0.4919,NA,NA,NA,NA,NA,"我们","e","",NA,0,55,55,52,1,"",NA,"",NA,NA,NA,NA,NA,NA,NA,"",NA,"",NA,NA,NA,NA,NA,NA,"","",NA,"",NA,"",NA,NA,NA,NA,NA,NA,NA,"",NA,"41"
"",NA,"",NA,"",NA,NA,NA,NA,NA,NA,NA,"","",1,1,"2024-09-04_20h45.08.015","IAT(Formal)","2021.2.3","Win32",29.94011976,"",NA,"",NA,NA,NA,NA,NA,NA,NA,"","","",NA,"e",1,0.5423,NA,NA,NA,NA,NA,"俺","e","",NA,0,56,56,74,1,"",NA,"",NA,NA,NA,NA,NA,NA,NA,"",NA,"",NA,NA,NA,NA,NA,NA,"","",NA,"",NA,"",NA,NA,NA,NA,NA,NA,NA,"",NA,"41"
"",NA,"",NA,"",NA,NA,NA,NA,NA,NA,NA,"","",1,1,"2024-09-04_20h45.08.015","IAT(Formal)","2021.2.3","Win32",29.94011976,"",NA,"",NA,NA,NA,NA,NA,NA,NA,"","","",NA,"i",1,0.5071,NA,NA,NA,NA,NA,"他们","i","",NA,0,57,57,76,1,"",NA,"",NA,NA,NA,NA,NA,NA,NA,"",NA,"",NA,NA,NA,NA,NA,NA,"","",NA,"",NA,"",NA,NA,NA,NA,NA,NA,NA,"",NA,"41"
"",NA,"",NA,"",NA,NA,NA,NA,NA,NA,NA,"","",1,1,"2024-09-04_20h45.08.015","IAT(Formal)","2021.2.3","Win32",29.94011976,"",NA,"",NA,NA,NA,NA,NA,NA,NA,"","","",NA,"e",1,0.6353,NA,NA,NA,NA,NA,"无私","e","",NA,0,58,58,22,1,"",NA,"",NA,NA,NA,NA,NA,NA,NA,"",NA,"",NA,NA,NA,NA,NA,NA,"","",NA,"",NA,"",NA,NA,NA,NA,NA,NA,NA,"",NA,"41"
"",NA,"",NA,"",NA,NA,NA,NA,NA,NA,NA,"","",1,1,"2024-09-04_20h45.08.015","IAT(Formal)","2021.2.3","Win32",29.94011976,"",NA,"",NA,NA,NA,NA,NA,NA,NA,"","","",NA,"i",1,0.5058,NA,NA,NA,NA,NA,"他人","i","",NA,0,59,59,8,1,"",NA,"",NA,NA,NA,NA,NA,NA,NA,"",NA,"",NA,NA,NA,NA,NA,NA,"","",NA,"",NA,"",NA,NA,NA,NA,NA,NA,NA,"",NA,"41"
"",NA,"",NA,"",NA,NA,NA,NA,NA,NA,NA,"","",1,1,"2024-09-04_20h45.08.015","IAT(Formal)","2021.2.3","Win32",29.94011976,"",NA,"",NA,NA,NA,NA,NA,NA,NA,"","","",NA,"e",1,0.4614,NA,NA,NA,NA,NA,"正直","e","",NA,0,60,60,16,1,"",NA,"",NA,NA,NA,NA,NA,NA,NA,"",NA,"",NA,NA,NA,NA,NA,NA,"","",NA,"",NA,"",NA,NA,NA,NA,NA,NA,NA,"",NA,"41"
"",NA,"",NA,"",NA,NA,NA,NA,NA,NA,NA,"","",1,1,"2024-09-04_20h45.08.015","IAT(Formal)","2021.2.3","Win32",29.94011976,"",NA,"",NA,NA,NA,NA,NA,NA,NA,"","","",NA,"i",1,0.4724,NA,NA,NA,NA,NA,"他","i","",NA,0,61,61,75,1,"",NA,"",NA,NA,NA,NA,NA,NA,NA,"",NA,"",NA,NA,NA,NA,NA,NA,"","",NA,"",NA,"",NA,NA,NA,NA,NA,NA,NA,"",NA,"41"
"",NA,"",NA,"",NA,NA,NA,NA,NA,NA,NA,"","",1,1,"2024-09-04_20h45.08.015","IAT(Formal)","2021.2.3","Win32",29.94011976,"",NA,"",NA,NA,NA,NA,NA,NA,NA,"","","",NA,"e",1,0.5745,NA,NA,NA,NA,NA,"公正","e","",NA,0,62,62,23,1,"",NA,"",NA,NA,NA,NA,NA,NA,NA,"",NA,"",NA,NA,NA,NA,NA,NA,"","",NA,"",NA,"",NA,NA,NA,NA,NA,NA,NA,"",NA,"41"
"",NA,"",NA,"",NA,NA,NA,NA,NA,NA,NA,"","",1,1,"2024-09-04_20h45.08.015","IAT(Formal)","2021.2.3","Win32",29.94011976,"",NA,"",NA,NA,NA,NA,NA,NA,NA,"","","",NA,"i",1,0.4579,NA,NA,NA,NA,NA,"他人","i","",NA,0,63,63,68,1,"",NA,"",NA,NA,NA,NA,NA,NA,NA,"",NA,"",NA,NA,NA,NA,NA,NA,"","",NA,"",NA,"",NA,NA,NA,NA,NA,NA,NA,"",NA,"41"
"",NA,"",NA,"",NA,NA,NA,NA,NA,NA,NA,"","",1,1,"2024-09-04_20h45.08.015","IAT(Formal)","2021.2.3","Win32",29.94011976,"",NA,"",NA,NA,NA,NA,NA,NA,NA,"","","",NA,"e",1,0.3799,NA,NA,NA,NA,NA,"我们","e","",NA,0,64,64,62,1,"",NA,"",NA,NA,NA,NA,NA,NA,NA,"",NA,"",NA,NA,NA,NA,NA,NA,"","",NA,"",NA,"",NA,NA,NA,NA,NA,NA,NA,"",NA,"41"
"",NA,"",NA,"",NA,NA,NA,NA,NA,NA,NA,"","",1,1,"2024-09-04_20h45.08.015","IAT(Formal)","2021.2.3","Win32",29.94011976,"",NA,"",NA,NA,NA,NA,NA,NA,NA,"","","",NA,"e",1,0.551,NA,NA,NA,NA,NA,"认真","e","",NA,0,65,65,20,1,"",NA,"",NA,NA,NA,NA,NA,NA,NA,"",NA,"",NA,NA,NA,NA,NA,NA,"","",NA,"",NA,"",NA,NA,NA,NA,NA,NA,NA,"",NA,"41"
"",NA,"",NA,"",NA,NA,NA,NA,NA,NA,NA,"","",1,1,"2024-09-04_20h45.08.015","IAT(Formal)","2021.2.3","Win32",29.94011976,"",NA,"",NA,NA,NA,NA,NA,NA,NA,"","","",NA,"i",1,0.5311,NA,NA,NA,NA,NA,"其他","i","",NA,0,66,66,9,1,"",NA,"",NA,NA,NA,NA,NA,NA,NA,"",NA,"",NA,NA,NA,NA,NA,NA,"","",NA,"",NA,"",NA,NA,NA,NA,NA,NA,NA,"",NA,"41"
"",NA,"",NA,"",NA,NA,NA,NA,NA,NA,NA,"","",1,1,"2024-09-04_20h45.08.015","IAT(Formal)","2021.2.3","Win32",29.94011976,"",NA,"",NA,NA,NA,NA,NA,NA,NA,"","","",NA,"i",1,0.5889,NA,NA,NA,NA,NA,"下贱","i","",NA,0,67,67,49,1,"",NA,"",NA,NA,NA,NA,NA,NA,NA,"",NA,"",NA,NA,NA,NA,NA,NA,"","",NA,"",NA,"",NA,NA,NA,NA,NA,NA,NA,"",NA,"41"
"",NA,"",NA,"",NA,NA,NA,NA,NA,NA,NA,"","",1,1,"2024-09-04_20h45.08.015","IAT(Formal)","2021.2.3","Win32",29.94011976,"",NA,"",NA,NA,NA,NA,NA,NA,NA,"","","",NA,"e",1,0.459,NA,NA,NA,NA,NA,"自己","e","",NA,0,68,68,63,1,"",NA,"",NA,NA,NA,NA,NA,NA,NA,"",NA,"",NA,NA,NA,NA,NA,NA,"","",NA,"",NA,"",NA,NA,NA,NA,NA,NA,NA,"",NA,"41"
"",NA,"",NA,"",NA,NA,NA,NA,NA,NA,NA,"","",1,1,"2024-09-04_20h45.08.015","IAT(Formal)","2021.2.3","Win32",29.94011976,"",NA,"",NA,NA,NA,NA,NA,NA,NA,"","","",NA,"e",1,0.4283,NA,NA,NA,NA,NA,"我","e","",NA,0,69,69,50,1,"",NA,"",NA,NA,NA,NA,NA,NA,NA,"",NA,"",NA,NA,NA,NA,NA,NA,"","",NA,"",NA,"",NA,NA,NA,NA,NA,NA,NA,"",NA,"41"
"",NA,"",NA,"",NA,NA,NA,NA,NA,NA,NA,"","",1,1,"2024-09-04_20h45.08.015","IAT(Formal)","2021.2.3","Win32",29.94011976,"",NA,"",NA,NA,NA,NA,NA,NA,NA,"","","",NA,"i",1,0.4761,NA,NA,NA,NA,NA,"他","i","",NA,0,70,70,55,1,"",NA,"",NA,NA,NA,NA,NA,NA,NA,"",NA,"",NA,NA,NA,NA,NA,NA,"","",NA,"",NA,"",NA,NA,NA,NA,NA,NA,NA,"",NA,"41"
"",NA,"",NA,"",NA,NA,NA,NA,NA,NA,NA,"","",1,1,"2024-09-04_20h45.08.015","IAT(Formal)","2021.2.3","Win32",29.94011976,"",NA,"",NA,NA,NA,NA,NA,NA,NA,"","","",NA,"e",1,0.5494,NA,NA,NA,NA,NA,"冷静","e","",NA,0,71,71,26,1,"",NA,"",NA,NA,NA,NA,NA,NA,NA,"",NA,"",NA,NA,NA,NA,NA,NA,"","",NA,"",NA,"",NA,NA,NA,NA,NA,NA,NA,"",NA,"41"
"",NA,"",NA,"",NA,NA,NA,NA,NA,NA,NA,"","",1,1,"2024-09-04_20h45.08.015","IAT(Formal)","2021.2.3","Win32",29.94011976,"",NA,"",NA,NA,NA,NA,NA,NA,NA,"","","",NA,"e",1,0.5021,NA,NA,NA,NA,NA,"优秀","e","",NA,0,72,72,10,1,"",NA,"",NA,NA,NA,NA,NA,NA,NA,"",NA,"",NA,NA,NA,NA,NA,NA,"","",NA,"",NA,"",NA,NA,NA,NA,NA,NA,NA,"",NA,"41"
"",NA,"",NA,"",NA,NA,NA,NA,NA,NA,NA,"","",1,1,"2024-09-04_20h45.08.015","IAT(Formal)","2021.2.3","Win32",29.94011976,"",NA,"",NA,NA,NA,NA,NA,NA,NA,"","","",NA,"e",1,0.513,NA,NA,NA,NA,NA,"自己","e","",NA,0,73,73,53,1,"",NA,"",NA,NA,NA,NA,NA,NA,NA,"",NA,"",NA,NA,NA,NA,NA,NA,"","",NA,"",NA,"",NA,NA,NA,NA,NA,NA,NA,"",NA,"41"
"",NA,"",NA,"",NA,NA,NA,NA,NA,NA,NA,"","",1,1,"2024-09-04_20h45.08.015","IAT(Formal)","2021.2.3","Win32",29.94011976,"",NA,"",NA,NA,NA,NA,NA,NA,NA,"","","",NA,"i",1,0.4759,NA,NA,NA,NA,NA,"刻薄","i","",NA,0,74,74,33,1,"",NA,"",NA,NA,NA,NA,NA,NA,NA,"",NA,"",NA,NA,NA,NA,NA,NA,"","",NA,"",NA,"",NA,NA,NA,NA,NA,NA,NA,"",NA,"41"
"",NA,"",NA,"",NA,NA,NA,NA,NA,NA,NA,"","",1,1,"2024-09-04_20h45.08.015","IAT(Formal)","2021.2.3","Win32",29.94011976,"",NA,"",NA,NA,NA,NA,NA,NA,NA,"","","",NA,"e",1,0.5768,NA,NA,NA,NA,NA,"机智","e","",NA,0,75,75,19,1,"",NA,"",NA,NA,NA,NA,NA,NA,NA,"",NA,"",NA,NA,NA,NA,NA,NA,"","",NA,"",NA,"",NA,NA,NA,NA,NA,NA,NA,"",NA,"41"
"",NA,"",NA,"",NA,NA,NA,NA,NA,NA,NA,"","",1,1,"2024-09-04_20h45.08.015","IAT(Formal)","2021.2.3","Win32",29.94011976,"",NA,"",NA,NA,NA,NA,NA,NA,NA,"","","",NA,"i",1,0.5359,NA,NA,NA,NA,NA,"他的","i","",NA,0,76,76,67,1,"",NA,"",NA,NA,NA,NA,NA,NA,NA,"",NA,"",NA,NA,NA,NA,NA,NA,"","",NA,"",NA,"",NA,NA,NA,NA,NA,NA,NA,"",NA,"41"
"",NA,"",NA,"",NA,NA,NA,NA,NA,NA,NA,"","",1,1,"2024-09-04_20h45.08.015","IAT(Formal)","2021.2.3","Win32",29.94011976,"",NA,"",NA,NA,NA,NA,NA,NA,NA,"","","",NA,"i",1,0.5574,NA,NA,NA,NA,NA,"他","i","",NA,0,77,77,65,1,"",NA,"",NA,NA,NA,NA,NA,NA,NA,"",NA,"",NA,NA,NA,NA,NA,NA,"","",NA,"",NA,"",NA,NA,NA,NA,NA,NA,NA,"",NA,"41"
"",NA,"",NA,"",NA,NA,NA,NA,NA,NA,NA,"","",1,1,"2024-09-04_20h45.08.015","IAT(Formal)","2021.2.3","Win32",29.94011976,"",NA,"",NA,NA,NA,NA,NA,NA,NA,"","","",NA,"i",1,0.4599,NA,NA,NA,NA,NA,"他的","i","",NA,0,78,78,77,1,"",NA,"",NA,NA,NA,NA,NA,NA,NA,"",NA,"",NA,NA,NA,NA,NA,NA,"","",NA,"",NA,"",NA,NA,NA,NA,NA,NA,NA,"",NA,"41"
"",NA,"",NA,"",NA,NA,NA,NA,NA,NA,NA,"","",1,1,"2024-09-04_20h45.08.015","IAT(Formal)","2021.2.3","Win32",29.94011976,"",NA,"",NA,NA,NA,NA,NA,NA,NA,"","","",NA,"e",1,0.4956,NA,NA,NA,NA,NA,"我","e","",NA,0,79,79,70,1,"",NA,"",NA,NA,NA,NA,NA,NA,NA,"",NA,"",NA,NA,NA,NA,NA,NA,"","",NA,"",NA,"",NA,NA,NA,NA,NA,NA,NA,"",NA,"41"
"",NA,"",NA,"",NA,NA,NA,NA,NA,NA,NA,"","",1,1,"2024-09-04_20h45.08.015","IAT(Formal)","2021.2.3","Win32",29.94011976,"",NA,"",NA,NA,NA,NA,NA,NA,NA,"","","",NA,"e",1,0.4544,NA,NA,NA,NA,NA,"朴实","e","",NA,1,0,80,24,1,"",NA,"",NA,NA,NA,NA,NA,NA,NA,"",NA,"",NA,NA,NA,NA,NA,NA,"","",NA,"",NA,"",NA,NA,NA,NA,NA,NA,NA,"",NA,"41"
"",NA,"",NA,"",NA,NA,NA,NA,NA,NA,NA,"","",1,1,"2024-09-04_20h45.08.015","IAT(Formal)","2021.2.3","Win32",29.94011976,"",NA,"",NA,NA,NA,NA,NA,NA,NA,"","","",NA,"e",1,0.4984,NA,NA,NA,NA,NA,"我","e","",NA,1,1,81,50,1,"",NA,"",NA,NA,NA,NA,NA,NA,NA,"",NA,"",NA,NA,NA,NA,NA,NA,"","",NA,"",NA,"",NA,NA,NA,NA,NA,NA,NA,"",NA,"41"
"",NA,"",NA,"",NA,NA,NA,NA,NA,NA,NA,"","",1,1,"2024-09-04_20h45.08.015","IAT(Formal)","2021.2.3","Win32",29.94011976,"",NA,"",NA,NA,NA,NA,NA,NA,NA,"","","",NA,"i",0,0.4019,NA,NA,NA,NA,NA,"无私","e","",NA,1,2,82,22,1,"",NA,"",NA,NA,NA,NA,NA,NA,NA,"",NA,"",NA,NA,NA,NA,NA,NA,"","",NA,"",NA,"",NA,NA,NA,NA,NA,NA,NA,"",NA,"41"
"",NA,"",NA,"",NA,NA,NA,NA,NA,NA,NA,"","",1,1,"2024-09-04_20h45.08.015","IAT(Formal)","2021.2.3","Win32",29.94011976,"",NA,"",NA,NA,NA,NA,NA,NA,NA,"","","",NA,"e",1,0.4296,NA,NA,NA,NA,NA,"我们","e","",NA,1,3,83,52,1,"",NA,"",NA,NA,NA,NA,NA,NA,NA,"",NA,"",NA,NA,NA,NA,NA,NA,"","",NA,"",NA,"",NA,NA,NA,NA,NA,NA,NA,"",NA,"41"
"",NA,"",NA,"",NA,NA,NA,NA,NA,NA,NA,"","",1,1,"2024-09-04_20h45.08.015","IAT(Formal)","2021.2.3","Win32",29.94011976,"",NA,"",NA,NA,NA,NA,NA,NA,NA,"","","",NA,"e",1,0.3997,NA,NA,NA,NA,NA,"我们","e","",NA,1,4,84,72,1,"",NA,"",NA,NA,NA,NA,NA,NA,NA,"",NA,"",NA,NA,NA,NA,NA,NA,"","",NA,"",NA,"",NA,NA,NA,NA,NA,NA,NA,"",NA,"41"
"",NA,"",NA,"",NA,NA,NA,NA,NA,NA,NA,"","",1,1,"2024-09-04_20h45.08.015","IAT(Formal)","2021.2.3","Win32",29.94011976,"",NA,"",NA,NA,NA,NA,NA,NA,NA,"","","",NA,"e",1,0.5423,NA,NA,NA,NA,NA,"俺","e","",NA,1,5,85,54,1,"",NA,"",NA,NA,NA,NA,NA,NA,NA,"",NA,"",NA,NA,NA,NA,NA,NA,"","",NA,"",NA,"",NA,NA,NA,NA,NA,NA,NA,"",NA,"41"
"",NA,"",NA,"",NA,NA,NA,NA,NA,NA,NA,"","",1,1,"2024-09-04_20h45.08.015","IAT(Formal)","2021.2.3","Win32",29.94011976,"",NA,"",NA,NA,NA,NA,NA,NA,NA,"","","",NA,"e",1,0.5106,NA,NA,NA,NA,NA,"俺","e","",NA,1,6,86,64,1,"",NA,"",NA,NA,NA,NA,NA,NA,NA,"",NA,"",NA,NA,NA,NA,NA,NA,"","",NA,"",NA,"",NA,NA,NA,NA,NA,NA,NA,"",NA,"41"
"",NA,"",NA,"",NA,NA,NA,NA,NA,NA,NA,"","",1,1,"2024-09-04_20h45.08.015","IAT(Formal)","2021.2.3","Win32",29.94011976,"",NA,"",NA,NA,NA,NA,NA,NA,NA,"","","",NA,"i",1,0.5973,NA,NA,NA,NA,NA,"自卑","i","",NA,1,7,87,36,1,"",NA,"",NA,NA,NA,NA,NA,NA,NA,"",NA,"",NA,NA,NA,NA,NA,NA,"","",NA,"",NA,"",NA,NA,NA,NA,NA,NA,NA,"",NA,"41"
"",NA,"",NA,"",NA,NA,NA,NA,NA,NA,NA,"","",1,1,"2024-09-04_20h45.08.015","IAT(Formal)","2021.2.3","Win32",29.94011976,"",NA,"",NA,NA,NA,NA,NA,NA,NA,"","","",NA,"i",1,0.5967,NA,NA,NA,NA,NA,"刻薄","i","",NA,1,8,88,33,1,"",NA,"",NA,NA,NA,NA,NA,NA,NA,"",NA,"",NA,NA,NA,NA,NA,NA,"","",NA,"",NA,"",NA,NA,NA,NA,NA,NA,NA,"",NA,"41"
"",NA,"",NA,"",NA,NA,NA,NA,NA,NA,NA,"","",1,1,"2024-09-04_20h45.08.015","IAT(Formal)","2021.2.3","Win32",29.94011976,"",NA,"",NA,NA,NA,NA,NA,NA,NA,"","","",NA,"i",1,0.6274,NA,NA,NA,NA,NA,"他","i","",NA,1,9,89,75,1,"",NA,"",NA,NA,NA,NA,NA,NA,NA,"",NA,"",NA,NA,NA,NA,NA,NA,"","",NA,"",NA,"",NA,NA,NA,NA,NA,NA,NA,"",NA,"41"
"",NA,"",NA,"",NA,NA,NA,NA,NA,NA,NA,"","",1,1,"2024-09-04_20h45.08.015","IAT(Formal)","2021.2.3","Win32",29.94011976,"",NA,"",NA,NA,NA,NA,NA,NA,NA,"","","",NA,"e",1,0.4947,NA,NA,NA,NA,NA,"勇敢","e","",NA,1,10,90,17,1,"",NA,"",NA,NA,NA,NA,NA,NA,NA,"",NA,"",NA,NA,NA,NA,NA,NA,"","",NA,"",NA,"",NA,NA,NA,NA,NA,NA,NA,"",NA,"41"
"",NA,"",NA,"",NA,NA,NA,NA,NA,NA,NA,"","",1,1,"2024-09-04_20h45.08.015","IAT(Formal)","2021.2.3","Win32",29.94011976,"",NA,"",NA,NA,NA,NA,NA,NA,NA,"","","",NA,"e",1,0.4313,NA,NA,NA,NA,NA,"我","e","",NA,1,11,91,0,1,"",NA,"",NA,NA,NA,NA,NA,NA,NA,"",NA,"",NA,NA,NA,NA,NA,NA,"","",NA,"",NA,"",NA,NA,NA,NA,NA,NA,NA,"",NA,"41"
"",NA,"",NA,"",NA,NA,NA,NA,NA,NA,NA,"","",1,1,"2024-09-04_20h45.08.015","IAT(Formal)","2021.2.3","Win32",29.94011976,"",NA,"",NA,NA,NA,NA,NA,NA,NA,"","","",NA,"i",1,0.6129,NA,NA,NA,NA,NA,"执拗","i","",NA,1,12,92,40,1,"",NA,"",NA,NA,NA,NA,NA,NA,NA,"",NA,"",NA,NA,NA,NA,NA,NA,"","",NA,"",NA,"",NA,NA,NA,NA,NA,NA,NA,"",NA,"41"
"",NA,"",NA,"",NA,NA,NA,NA,NA,NA,NA,"","",1,1,"2024-09-04_20h45.08.015","IAT(Formal)","2021.2.3","Win32",29.94011976,"",NA,"",NA,NA,NA,NA,NA,NA,NA,"","","",NA,"i",1,0.9024,NA,NA,NA,NA,NA,"自私","i","",NA,1,13,93,43,1,"",NA,"",NA,NA,NA,NA,NA,NA,NA,"",NA,"",NA,NA,NA,NA,NA,NA,"","",NA,"",NA,"",NA,NA,NA,NA,NA,NA,NA,"",NA,"41"
"",NA,"",NA,"",NA,NA,NA,NA,NA,NA,NA,"","",1,1,"2024-09-04_20h45.08.015","IAT(Formal)","2021.2.3","Win32",29.94011976,"",NA,"",NA,NA,NA,NA,NA,NA,NA,"","","",NA,"e",1,0.4925,NA,NA,NA,NA,NA,"自己","e","",NA,1,14,94,73,1,"",NA,"",NA,NA,NA,NA,NA,NA,NA,"",NA,"",NA,NA,NA,NA,NA,NA,"","",NA,"",NA,"",NA,NA,NA,NA,NA,NA,NA,"",NA,"41"
"",NA,"",NA,"",NA,NA,NA,NA,NA,NA,NA,"","",1,1,"2024-09-04_20h45.08.015","IAT(Formal)","2021.2.3","Win32",29.94011976,"",NA,"",NA,NA,NA,NA,NA,NA,NA,"","","",NA,"i",1,0.5908,NA,NA,NA,NA,NA,"他的","i","",NA,1,15,95,7,1,"",NA,"",NA,NA,NA,NA,NA,NA,NA,"",NA,"",NA,NA,NA,NA,NA,NA,"","",NA,"",NA,"",NA,NA,NA,NA,NA,NA,NA,"",NA,"41"
"",NA,"",NA,"",NA,NA,NA,NA,NA,NA,NA,"","",1,1,"2024-09-04_20h45.08.015","IAT(Formal)","2021.2.3","Win32",29.94011976,"",NA,"",NA,NA,NA,NA,NA,NA,NA,"","","",NA,"i",1,0.4542,NA,NA,NA,NA,NA,"他们","i","",NA,1,16,96,76,1,"",NA,"",NA,NA,NA,NA,NA,NA,NA,"",NA,"",NA,NA,NA,NA,NA,NA,"","",NA,"",NA,"",NA,NA,NA,NA,NA,NA,NA,"",NA,"41"
"",NA,"",NA,"",NA,NA,NA,NA,NA,NA,NA,"","",1,1,"2024-09-04_20h45.08.015","IAT(Formal)","2021.2.3","Win32",29.94011976,"",NA,"",NA,NA,NA,NA,NA,NA,NA,"","","",NA,"i",1,0.5764,NA,NA,NA,NA,NA,"傲慢","i","",NA,1,17,97,37,1,"",NA,"",NA,NA,NA,NA,NA,NA,NA,"",NA,"",NA,NA,NA,NA,NA,NA,"","",NA,"",NA,"",NA,NA,NA,NA,NA,NA,NA,"",NA,"41"
"",NA,"",NA,"",NA,NA,NA,NA,NA,NA,NA,"","",1,1,"2024-09-04_20h45.08.015","IAT(Formal)","2021.2.3","Win32",29.94011976,"",NA,"",NA,NA,NA,NA,NA,NA,NA,"","","",NA,"i",1,0.4354,NA,NA,NA,NA,NA,"他的","i","",NA,1,18,98,67,1,"",NA,"",NA,NA,NA,NA,NA,NA,NA,"",NA,"",NA,NA,NA,NA,NA,NA,"","",NA,"",NA,"",NA,NA,NA,NA,NA,NA,NA,"",NA,"41"
"",NA,"",NA,"",NA,NA,NA,NA,NA,NA,NA,"","",1,1,"2024-09-04_20h45.08.015","IAT(Formal)","2021.2.3","Win32",29.94011976,"",NA,"",NA,NA,NA,NA,NA,NA,NA,"","","",NA,"i",1,0.4403,NA,NA,NA,NA,NA,"他人","i","",NA,1,19,99,58,1,"",NA,"",NA,NA,NA,NA,NA,NA,NA,"",NA,"",NA,NA,NA,NA,NA,NA,"","",NA,"",NA,"",NA,NA,NA,NA,NA,NA,NA,"",NA,"41"
"",NA,"",NA,"",NA,NA,NA,NA,NA,NA,NA,"","",1,1,"2024-09-04_20h45.08.015","IAT(Formal)","2021.2.3","Win32",29.94011976,"",NA,"",NA,NA,NA,NA,NA,NA,NA,"","","",NA,"i",1,0.6281,NA,NA,NA,NA,NA,"他","i","",NA,1,20,100,5,1,"",NA,"",NA,NA,NA,NA,NA,NA,NA,"",NA,"",NA,NA,NA,NA,NA,NA,"","",NA,"",NA,"",NA,NA,NA,NA,NA,NA,NA,"",NA,"41"
"",NA,"",NA,"",NA,NA,NA,NA,NA,NA,NA,"","",1,1,"2024-09-04_20h45.08.015","IAT(Formal)","2021.2.3","Win32",29.94011976,"",NA,"",NA,NA,NA,NA,NA,NA,NA,"","","",NA,"e",1,0.5233,NA,NA,NA,NA,NA,"俺","e","",NA,1,21,101,4,1,"",NA,"",NA,NA,NA,NA,NA,NA,NA,"",NA,"",NA,NA,NA,NA,NA,NA,"","",NA,"",NA,"",NA,NA,NA,NA,NA,NA,NA,"",NA,"41"
"",NA,"",NA,"",NA,NA,NA,NA,NA,NA,NA,"","",1,1,"2024-09-04_20h45.08.015","IAT(Formal)","2021.2.3","Win32",29.94011976,"",NA,"",NA,NA,NA,NA,NA,NA,NA,"","","",NA,"e",1,0.456,NA,NA,NA,NA,NA,"我们","e","",NA,1,22,102,62,1,"",NA,"",NA,NA,NA,NA,NA,NA,NA,"",NA,"",NA,NA,NA,NA,NA,NA,"","",NA,"",NA,"",NA,NA,NA,NA,NA,NA,NA,"",NA,"41"
"",NA,"",NA,"",NA,NA,NA,NA,NA,NA,NA,"","",1,1,"2024-09-04_20h45.08.015","IAT(Formal)","2021.2.3","Win32",29.94011976,"",NA,"",NA,NA,NA,NA,NA,NA,NA,"","","",NA,"e",1,0.4411,NA,NA,NA,NA,NA,"诚恳","e","",NA,1,23,103,29,1,"",NA,"",NA,NA,NA,NA,NA,NA,NA,"",NA,"",NA,NA,NA,NA,NA,NA,"","",NA,"",NA,"",NA,NA,NA,NA,NA,NA,NA,"",NA,"41"
"",NA,"",NA,"",NA,NA,NA,NA,NA,NA,NA,"","",1,1,"2024-09-04_20h45.08.015","IAT(Formal)","2021.2.3","Win32",29.94011976,"",NA,"",NA,NA,NA,NA,NA,NA,NA,"","","",NA,"i",1,0.6395,NA,NA,NA,NA,NA,"他的","i","",NA,1,24,104,77,1,"",NA,"",NA,NA,NA,NA,NA,NA,NA,"",NA,"",NA,NA,NA,NA,NA,NA,"","",NA,"",NA,"",NA,NA,NA,NA,NA,NA,NA,"",NA,"41"
"",NA,"",NA,"",NA,NA,NA,NA,NA,NA,NA,"","",1,1,"2024-09-04_20h45.08.015","IAT(Formal)","2021.2.3","Win32",29.94011976,"",NA,"",NA,NA,NA,NA,NA,NA,NA,"","","",NA,"e",1,0.4429,NA,NA,NA,NA,NA,"我的","e","",NA,1,25,105,71,1,"",NA,"",NA,NA,NA,NA,NA,NA,NA,"",NA,"",NA,NA,NA,NA,NA,NA,"","",NA,"",NA,"",NA,NA,NA,NA,NA,NA,NA,"",NA,"41"
"",NA,"",NA,"",NA,NA,NA,NA,NA,NA,NA,"","",1,1,"2024-09-04_20h45.08.015","IAT(Formal)","2021.2.3","Win32",29.94011976,"",NA,"",NA,NA,NA,NA,NA,NA,NA,"","","",NA,"i",1,0.5414,NA,NA,NA,NA,NA,"他的","i","",NA,1,26,106,57,1,"",NA,"",NA,NA,NA,NA,NA,NA,NA,"",NA,"",NA,NA,NA,NA,NA,NA,"","",NA,"",NA,"",NA,NA,NA,NA,NA,NA,NA,"",NA,"41"
"",NA,"",NA,"",NA,NA,NA,NA,NA,NA,NA,"","",1,1,"2024-09-04_20h45.08.015","IAT(Formal)","2021.2.3","Win32",29.94011976,"",NA,"",NA,NA,NA,NA,NA,NA,NA,"","","",NA,"e",1,0.3718,NA,NA,NA,NA,NA,"我的","e","",NA,1,27,107,51,1,"",NA,"",NA,NA,NA,NA,NA,NA,NA,"",NA,"",NA,NA,NA,NA,NA,NA,"","",NA,"",NA,"",NA,NA,NA,NA,NA,NA,NA,"",NA,"41"
"",NA,"",NA,"",NA,NA,NA,NA,NA,NA,NA,"","",1,1,"2024-09-04_20h45.08.015","IAT(Formal)","2021.2.3","Win32",29.94011976,"",NA,"",NA,NA,NA,NA,NA,NA,NA,"","","",NA,"e",1,0.4815,NA,NA,NA,NA,NA,"我的","e","",NA,1,28,108,1,1,"",NA,"",NA,NA,NA,NA,NA,NA,NA,"",NA,"",NA,NA,NA,NA,NA,NA,"","",NA,"",NA,"",NA,NA,NA,NA,NA,NA,NA,"",NA,"41"
"",NA,"",NA,"",NA,NA,NA,NA,NA,NA,NA,"","",1,1,"2024-09-04_20h45.08.015","IAT(Formal)","2021.2.3","Win32",29.94011976,"",NA,"",NA,NA,NA,NA,NA,NA,NA,"","","",NA,"i",1,0.4783,NA,NA,NA,NA,NA,"他","i","",NA,1,29,109,55,1,"",NA,"",NA,NA,NA,NA,NA,NA,NA,"",NA,"",NA,NA,NA,NA,NA,NA,"","",NA,"",NA,"",NA,NA,NA,NA,NA,NA,NA,"",NA,"41"
"",NA,"",NA,"",NA,NA,NA,NA,NA,NA,NA,"","",1,1,"2024-09-04_20h45.08.015","IAT(Formal)","2021.2.3","Win32",29.94011976,"",NA,"",NA,NA,NA,NA,NA,NA,NA,"","","",NA,"i",1,0.6715,NA,NA,NA,NA,NA,"消极","i","",NA,1,30,110,35,1,"",NA,"",NA,NA,NA,NA,NA,NA,NA,"",NA,"",NA,NA,NA,NA,NA,NA,"","",NA,"",NA,"",NA,NA,NA,NA,NA,NA,NA,"",NA,"41"
"",NA,"",NA,"",NA,NA,NA,NA,NA,NA,NA,"","",1,1,"2024-09-04_20h45.08.015","IAT(Formal)","2021.2.3","Win32",29.94011976,"",NA,"",NA,NA,NA,NA,NA,NA,NA,"","","",NA,"e",1,0.5082,NA,NA,NA,NA,NA,"热情","e","",NA,1,31,111,27,1,"",NA,"",NA,NA,NA,NA,NA,NA,NA,"",NA,"",NA,NA,NA,NA,NA,NA,"","",NA,"",NA,"",NA,NA,NA,NA,NA,NA,NA,"",NA,"41"
"",NA,"",NA,"",NA,NA,NA,NA,NA,NA,NA,"","",1,1,"2024-09-04_20h45.08.015","IAT(Formal)","2021.2.3","Win32",29.94011976,"",NA,"",NA,NA,NA,NA,NA,NA,NA,"","","",NA,"i",1,0.626,NA,NA,NA,NA,NA,"虚伪","i","",NA,1,32,112,31,1,"",NA,"",NA,NA,NA,NA,NA,NA,NA,"",NA,"",NA,NA,NA,NA,NA,NA,"","",NA,"",NA,"",NA,NA,NA,NA,NA,NA,NA,"",NA,"41"
"",NA,"",NA,"",NA,NA,NA,NA,NA,NA,NA,"","",1,1,"2024-09-04_20h45.08.015","IAT(Formal)","2021.2.3","Win32",29.94011976,"",NA,"",NA,NA,NA,NA,NA,NA,NA,"","","",NA,"i",1,0.4948,NA,NA,NA,NA,NA,"他们","i","",NA,1,33,113,6,1,"",NA,"",NA,NA,NA,NA,NA,NA,NA,"",NA,"",NA,NA,NA,NA,NA,NA,"","",NA,"",NA,"",NA,NA,NA,NA,NA,NA,NA,"",NA,"41"
"",NA,"",NA,"",NA,NA,NA,NA,NA,NA,NA,"","",1,1,"2024-09-04_20h45.08.015","IAT(Formal)","2021.2.3","Win32",29.94011976,"",NA,"",NA,NA,NA,NA,NA,NA,NA,"","","",NA,"i",1,0.4304,NA,NA,NA,NA,NA,"他人","i","",NA,1,34,114,68,1,"",NA,"",NA,NA,NA,NA,NA,NA,NA,"",NA,"",NA,NA,NA,NA,NA,NA,"","",NA,"",NA,"",NA,NA,NA,NA,NA,NA,NA,"",NA,"41"
"",NA,"",NA,"",NA,NA,NA,NA,NA,NA,NA,"","",1,1,"2024-09-04_20h45.08.015","IAT(Formal)","2021.2.3","Win32",29.94011976,"",NA,"",NA,NA,NA,NA,NA,NA,NA,"","","",NA,"e",1,0.5946,NA,NA,NA,NA,NA,"稳重","e","",NA,1,35,115,21,1,"",NA,"",NA,NA,NA,NA,NA,NA,NA,"",NA,"",NA,NA,NA,NA,NA,NA,"","",NA,"",NA,"",NA,NA,NA,NA,NA,NA,NA,"",NA,"41"
"",NA,"",NA,"",NA,NA,NA,NA,NA,NA,NA,"","",1,1,"2024-09-04_20h45.08.015","IAT(Formal)","2021.2.3","Win32",29.94011976,"",NA,"",NA,NA,NA,NA,NA,NA,NA,"","","",NA,"e",1,0.4339,NA,NA,NA,NA,NA,"我","e","",NA,1,36,116,60,1,"",NA,"",NA,NA,NA,NA,NA,NA,NA,"",NA,"",NA,NA,NA,NA,NA,NA,"","",NA,"",NA,"",NA,NA,NA,NA,NA,NA,NA,"",NA,"41"
"",NA,"",NA,"",NA,NA,NA,NA,NA,NA,NA,"","",1,1,"2024-09-04_20h45.08.015","IAT(Formal)","2021.2.3","Win32",29.94011976,"",NA,"",NA,NA,NA,NA,NA,NA,NA,"","","",NA,"e",1,0.4287,NA,NA,NA,NA,NA,"机智","e","",NA,1,37,117,19,1,"",NA,"",NA,NA,NA,NA,NA,NA,NA,"",NA,"",NA,NA,NA,NA,NA,NA,"","",NA,"",NA,"",NA,NA,NA,NA,NA,NA,NA,"",NA,"41"
"",NA,"",NA,"",NA,NA,NA,NA,NA,NA,NA,"","",1,1,"2024-09-04_20h45.08.015","IAT(Formal)","2021.2.3","Win32",29.94011976,"",NA,"",NA,NA,NA,NA,NA,NA,NA,"","","",NA,"e",1,0.4659,NA,NA,NA,NA,NA,"我的","e","",NA,1,38,118,61,1,"",NA,"",NA,NA,NA,NA,NA,NA,NA,"",NA,"",NA,NA,NA,NA,NA,NA,"","",NA,"",NA,"",NA,NA,NA,NA,NA,NA,NA,"",NA,"41"
"",NA,"",NA,"",NA,NA,NA,NA,NA,NA,NA,"","",1,1,"2024-09-04_20h45.08.015","IAT(Formal)","2021.2.3","Win32",29.94011976,"",NA,"",NA,NA,NA,NA,NA,NA,NA,"","","",NA,"e",1,0.5095,NA,NA,NA,NA,NA,"细腻","e","",NA,1,39,119,25,1,"",NA,"",NA,NA,NA,NA,NA,NA,NA,"",NA,"",NA,NA,NA,NA,NA,NA,"","",NA,"",NA,"",NA,NA,NA,NA,NA,NA,NA,"",NA,"41"
"",NA,"",NA,"",NA,NA,NA,NA,NA,NA,NA,"","",1,1,"2024-09-04_20h45.08.015","IAT(Formal)","2021.2.3","Win32",29.94011976,"",NA,"",NA,NA,NA,NA,NA,NA,NA,"","","",NA,"e",1,0.5385,NA,NA,NA,NA,NA,"公正","e","",NA,1,40,120,23,1,"",NA,"",NA,NA,NA,NA,NA,NA,NA,"",NA,"",NA,NA,NA,NA,NA,NA,"","",NA,"",NA,"",NA,NA,NA,NA,NA,NA,NA,"",NA,"41"
"",NA,"",NA,"",NA,NA,NA,NA,NA,NA,NA,"","",1,1,"2024-09-04_20h45.08.015","IAT(Formal)","2021.2.3","Win32",29.94011976,"",NA,"",NA,NA,NA,NA,NA,NA,NA,"","","",NA,"i",1,0.6683,NA,NA,NA,NA,NA,"鲁莽","i","",NA,1,41,121,38,1,"",NA,"",NA,NA,NA,NA,NA,NA,NA,"",NA,"",NA,NA,NA,NA,NA,NA,"","",NA,"",NA,"",NA,NA,NA,NA,NA,NA,NA,"",NA,"41"
"",NA,"",NA,"",NA,NA,NA,NA,NA,NA,NA,"","",1,1,"2024-09-04_20h45.08.015","IAT(Formal)","2021.2.3","Win32",29.94011976,"",NA,"",NA,NA,NA,NA,NA,NA,NA,"","","",NA,"i",1,0.5698,NA,NA,NA,NA,NA,"他们","i","",NA,1,42,122,56,1,"",NA,"",NA,NA,NA,NA,NA,NA,NA,"",NA,"",NA,NA,NA,NA,NA,NA,"","",NA,"",NA,"",NA,NA,NA,NA,NA,NA,NA,"",NA,"41"
"",NA,"",NA,"",NA,NA,NA,NA,NA,NA,NA,"","",1,1,"2024-09-04_20h45.08.015","IAT(Formal)","2021.2.3","Win32",29.94011976,"",NA,"",NA,NA,NA,NA,NA,NA,NA,"","","",NA,"e",1,0.5347,NA,NA,NA,NA,NA,"冷静","e","",NA,1,43,123,26,1,"",NA,"",NA,NA,NA,NA,NA,NA,NA,"",NA,"",NA,NA,NA,NA,NA,NA,"","",NA,"",NA,"",NA,NA,NA,NA,NA,NA,NA,"",NA,"41"
"",NA,"",NA,"",NA,NA,NA,NA,NA,NA,NA,"","",1,1,"2024-09-04_20h45.08.015","IAT(Formal)","2021.2.3","Win32",29.94011976,"",NA,"",NA,NA,NA,NA,NA,NA,NA,"","","",NA,"e",1,0.4911,NA,NA,NA,NA,NA,"自己","e","",NA,1,44,124,63,1,"",NA,"",NA,NA,NA,NA,NA,NA,NA,"",NA,"",NA,NA,NA,NA,NA,NA,"","",NA,"",NA,"",NA,NA,NA,NA,NA,NA,NA,"",NA,"41"
"",NA,"",NA,"",NA,NA,NA,NA,NA,NA,NA,"","",1,1,"2024-09-04_20h45.08.015","IAT(Formal)","2021.2.3","Win32",29.94011976,"",NA,"",NA,NA,NA,NA,NA,NA,NA,"","","",NA,"i",1,0.6261,NA,NA,NA,NA,NA,"轻率","i","",NA,1,45,125,48,1,"",NA,"",NA,NA,NA,NA,NA,NA,NA,"",NA,"",NA,NA,NA,NA,NA,NA,"","",NA,"",NA,"",NA,NA,NA,NA,NA,NA,NA,"",NA,"41"
"",NA,"",NA,"",NA,NA,NA,NA,NA,NA,NA,"","",1,1,"2024-09-04_20h45.08.015","IAT(Formal)","2021.2.3","Win32",29.94011976,"",NA,"",NA,NA,NA,NA,NA,NA,NA,"","","",NA,"i",1,0.6046,NA,NA,NA,NA,NA,"野蛮","i","",NA,1,46,126,46,1,"",NA,"",NA,NA,NA,NA,NA,NA,NA,"",NA,"",NA,NA,NA,NA,NA,NA,"","",NA,"",NA,"",NA,NA,NA,NA,NA,NA,NA,"",NA,"41"
"",NA,"",NA,"",NA,NA,NA,NA,NA,NA,NA,"","",1,1,"2024-09-04_20h45.08.015","IAT(Formal)","2021.2.3","Win32",29.94011976,"",NA,"",NA,NA,NA,NA,NA,NA,NA,"","","",NA,"i",1,0.5432,NA,NA,NA,NA,NA,"他","i","",NA,1,47,127,65,1,"",NA,"",NA,NA,NA,NA,NA,NA,NA,"",NA,"",NA,NA,NA,NA,NA,NA,"","",NA,"",NA,"",NA,NA,NA,NA,NA,NA,NA,"",NA,"41"
"",NA,"",NA,"",NA,NA,NA,NA,NA,NA,NA,"","",1,1,"2024-09-04_20h45.08.015","IAT(Formal)","2021.2.3","Win32",29.94011976,"",NA,"",NA,NA,NA,NA,NA,NA,NA,"","","",NA,"e",1,0.4346,NA,NA,NA,NA,NA,"活泼","e","",NA,1,48,128,28,1,"",NA,"",NA,NA,NA,NA,NA,NA,NA,"",NA,"",NA,NA,NA,NA,NA,NA,"","",NA,"",NA,"",NA,NA,NA,NA,NA,NA,NA,"",NA,"41"
"",NA,"",NA,"",NA,NA,NA,NA,NA,NA,NA,"","",1,1,"2024-09-04_20h45.08.015","IAT(Formal)","2021.2.3","Win32",29.94011976,"",NA,"",NA,NA,NA,NA,NA,NA,NA,"","","",NA,"i",1,0.5455,NA,NA,NA,NA,NA,"冒失","i","",NA,1,49,129,39,1,"",NA,"",NA,NA,NA,NA,NA,NA,NA,"",NA,"",NA,NA,NA,NA,NA,NA,"","",NA,"",NA,"",NA,NA,NA,NA,NA,NA,NA,"",NA,"41"
"",NA,"",NA,"",NA,NA,NA,NA,NA,NA,NA,"","",1,1,"2024-09-04_20h45.08.015","IAT(Formal)","2021.2.3","Win32",29.94011976,"",NA,"",NA,NA,NA,NA,NA,NA,NA,"","","",NA,"i",1,0.5629,NA,NA,NA,NA,NA,"凶狠","i","",NA,1,50,130,42,1,"",NA,"",NA,NA,NA,NA,NA,NA,NA,"",NA,"",NA,NA,NA,NA,NA,NA,"","",NA,"",NA,"",NA,NA,NA,NA,NA,NA,NA,"",NA,"41"
"",NA,"",NA,"",NA,NA,NA,NA,NA,NA,NA,"","",1,1,"2024-09-04_20h45.08.015","IAT(Formal)","2021.2.3","Win32",29.94011976,"",NA,"",NA,NA,NA,NA,NA,NA,NA,"","","",NA,"i",1,0.4224,NA,NA,NA,NA,NA,"悲观","i","",NA,1,51,131,34,1,"",NA,"",NA,NA,NA,NA,NA,NA,NA,"",NA,"",NA,NA,NA,NA,NA,NA,"","",NA,"",NA,"",NA,NA,NA,NA,NA,NA,NA,"",NA,"41"
"",NA,"",NA,"",NA,NA,NA,NA,NA,NA,NA,"","",1,1,"2024-09-04_20h45.08.015","IAT(Formal)","2021.2.3","Win32",29.94011976,"",NA,"",NA,NA,NA,NA,NA,NA,NA,"","","",NA,"i",1,0.5454,NA,NA,NA,NA,NA,"卑鄙","i","",NA,1,52,132,30,1,"",NA,"",NA,NA,NA,NA,NA,NA,NA,"",NA,"",NA,NA,NA,NA,NA,NA,"","",NA,"",NA,"",NA,NA,NA,NA,NA,NA,NA,"",NA,"41"
"",NA,"",NA,"",NA,NA,NA,NA,NA,NA,NA,"","",1,1,"2024-09-04_20h45.08.015","IAT(Formal)","2021.2.3","Win32",29.94011976,"",NA,"",NA,NA,NA,NA,NA,NA,NA,"","","",NA,"i",1,0.4968,NA,NA,NA,NA,NA,"暴躁","i","",NA,1,53,133,44,1,"",NA,"",NA,NA,NA,NA,NA,NA,NA,"",NA,"",NA,NA,NA,NA,NA,NA,"","",NA,"",NA,"",NA,NA,NA,NA,NA,NA,NA,"",NA,"41"
"",NA,"",NA,"",NA,NA,NA,NA,NA,NA,NA,"","",1,1,"2024-09-04_20h45.08.015","IAT(Formal)","2021.2.3","Win32",29.94011976,"",NA,"",NA,NA,NA,NA,NA,NA,NA,"","","",NA,"e",1,0.4961,NA,NA,NA,NA,NA,"自己","e","",NA,1,54,134,53,1,"",NA,"",NA,NA,NA,NA,NA,NA,NA,"",NA,"",NA,NA,NA,NA,NA,NA,"","",NA,"",NA,"",NA,NA,NA,NA,NA,NA,NA,"",NA,"41"
"",NA,"",NA,"",NA,NA,NA,NA,NA,NA,NA,"","",1,1,"2024-09-04_20h45.08.015","IAT(Formal)","2021.2.3","Win32",29.94011976,"",NA,"",NA,NA,NA,NA,NA,NA,NA,"","","",NA,"e",1,0.4961,NA,NA,NA,NA,NA,"我们","e","",NA,1,55,135,2,1,"",NA,"",NA,NA,NA,NA,NA,NA,NA,"",NA,"",NA,NA,NA,NA,NA,NA,"","",NA,"",NA,"",NA,NA,NA,NA,NA,NA,NA,"",NA,"41"
"",NA,"",NA,"",NA,NA,NA,NA,NA,NA,NA,"","",1,1,"2024-09-04_20h45.08.015","IAT(Formal)","2021.2.3","Win32",29.94011976,"",NA,"",NA,NA,NA,NA,NA,NA,NA,"","","",NA,"i",1,0.4913,NA,NA,NA,NA,NA,"其他","i","",NA,1,56,136,59,1,"",NA,"",NA,NA,NA,NA,NA,NA,NA,"",NA,"",NA,NA,NA,NA,NA,NA,"","",NA,"",NA,"",NA,NA,NA,NA,NA,NA,NA,"",NA,"41"
"",NA,"",NA,"",NA,NA,NA,NA,NA,NA,NA,"","",1,1,"2024-09-04_20h45.08.015","IAT(Formal)","2021.2.3","Win32",29.94011976,"",NA,"",NA,NA,NA,NA,NA,NA,NA,"","","",NA,"e",1,0.5255,NA,NA,NA,NA,NA,"俺","e","",NA,1,57,137,74,1,"",NA,"",NA,NA,NA,NA,NA,NA,NA,"",NA,"",NA,NA,NA,NA,NA,NA,"","",NA,"",NA,"",NA,NA,NA,NA,NA,NA,NA,"",NA,"41"
"",NA,"",NA,"",NA,NA,NA,NA,NA,NA,NA,"","",1,1,"2024-09-04_20h45.08.015","IAT(Formal)","2021.2.3","Win32",29.94011976,"",NA,"",NA,NA,NA,NA,NA,NA,NA,"","","",NA,"i",1,0.4569,NA,NA,NA,NA,NA,"下贱","i","",NA,1,58,138,49,1,"",NA,"",NA,NA,NA,NA,NA,NA,NA,"",NA,"",NA,NA,NA,NA,NA,NA,"","",NA,"",NA,"",NA,NA,NA,NA,NA,NA,NA,"",NA,"41"
"",NA,"",NA,"",NA,NA,NA,NA,NA,NA,NA,"","",1,1,"2024-09-04_20h45.08.015","IAT(Formal)","2021.2.3","Win32",29.94011976,"",NA,"",NA,NA,NA,NA,NA,NA,NA,"","","",NA,"e",1,0.6244,NA,NA,NA,NA,NA,"崇高","e","",NA,1,59,139,11,1,"",NA,"",NA,NA,NA,NA,NA,NA,NA,"",NA,"",NA,NA,NA,NA,NA,NA,"","",NA,"",NA,"",NA,NA,NA,NA,NA,NA,NA,"",NA,"41"
"",NA,"",NA,"",NA,NA,NA,NA,NA,NA,NA,"","",1,1,"2024-09-04_20h45.08.015","IAT(Formal)","2021.2.3","Win32",29.94011976,"",NA,"",NA,NA,NA,NA,NA,NA,NA,"","","",NA,"i",1,0.5608,NA,NA,NA,NA,NA,"他们","i","",NA,1,60,140,66,1,"",NA,"",NA,NA,NA,NA,NA,NA,NA,"",NA,"",NA,NA,NA,NA,NA,NA,"","",NA,"",NA,"",NA,NA,NA,NA,NA,NA,NA,"",NA,"41"
"",NA,"",NA,"",NA,NA,NA,NA,NA,NA,NA,"","",1,1,"2024-09-04_20h45.08.015","IAT(Formal)","2021.2.3","Win32",29.94011976,"",NA,"",NA,NA,NA,NA,NA,NA,NA,"","","",NA,"e",1,0.5013,NA,NA,NA,NA,NA,"我","e","",NA,1,61,141,70,1,"",NA,"",NA,NA,NA,NA,NA,NA,NA,"",NA,"",NA,NA,NA,NA,NA,NA,"","",NA,"",NA,"",NA,NA,NA,NA,NA,NA,NA,"",NA,"41"
"",NA,"",NA,"",NA,NA,NA,NA,NA,NA,NA,"","",1,1,"2024-09-04_20h45.08.015","IAT(Formal)","2021.2.3","Win32",29.94011976,"",NA,"",NA,NA,NA,NA,NA,NA,NA,"","","",NA,"i",1,0.4761,NA,NA,NA,NA,NA,"其他","i","",NA,1,62,142,9,1,"",NA,"",NA,NA,NA,NA,NA,NA,NA,"",NA,"",NA,NA,NA,NA,NA,NA,"","",NA,"",NA,"",NA,NA,NA,NA,NA,NA,NA,"",NA,"41"
"",NA,"",NA,"",NA,NA,NA,NA,NA,NA,NA,"","",1,1,"2024-09-04_20h45.08.015","IAT(Formal)","2021.2.3","Win32",29.94011976,"",NA,"",NA,NA,NA,NA,NA,NA,NA,"","","",NA,"e",1,0.5154,NA,NA,NA,NA,NA,"乐观","e","",NA,1,63,143,14,1,"",NA,"",NA,NA,NA,NA,NA,NA,NA,"",NA,"",NA,NA,NA,NA,NA,NA,"","",NA,"",NA,"",NA,NA,NA,NA,NA,NA,NA,"",NA,"41"
"",NA,"",NA,"",NA,NA,NA,NA,NA,NA,NA,"","",1,1,"2024-09-04_20h45.08.015","IAT(Formal)","2021.2.3","Win32",29.94011976,"",NA,"",NA,NA,NA,NA,NA,NA,NA,"","","",NA,"i",1,0.6206,NA,NA,NA,NA,NA,"散漫","i","",NA,1,64,144,41,1,"",NA,"",NA,NA,NA,NA,NA,NA,NA,"",NA,"",NA,NA,NA,NA,NA,NA,"","",NA,"",NA,"",NA,NA,NA,NA,NA,NA,NA,"",NA,"41"
"",NA,"",NA,"",NA,NA,NA,NA,NA,NA,NA,"","",1,1,"2024-09-04_20h45.08.015","IAT(Formal)","2021.2.3","Win32",29.94011976,"",NA,"",NA,NA,NA,NA,NA,NA,NA,"","","",NA,"e",1,0.5282,NA,NA,NA,NA,NA,"杰出","e","",NA,1,65,145,13,1,"",NA,"",NA,NA,NA,NA,NA,NA,NA,"",NA,"",NA,NA,NA,NA,NA,NA,"","",NA,"",NA,"",NA,NA,NA,NA,NA,NA,NA,"",NA,"41"
"",NA,"",NA,"",NA,NA,NA,NA,NA,NA,NA,"","",1,1,"2024-09-04_20h45.08.015","IAT(Formal)","2021.2.3","Win32",29.94011976,"",NA,"",NA,NA,NA,NA,NA,NA,NA,"","","",NA,"i",1,0.5476,NA,NA,NA,NA,NA,"其他","i","",NA,1,66,146,69,1,"",NA,"",NA,NA,NA,NA,NA,NA,NA,"",NA,"",NA,NA,NA,NA,NA,NA,"","",NA,"",NA,"",NA,NA,NA,NA,NA,NA,NA,"",NA,"41"
"",NA,"",NA,"",NA,NA,NA,NA,NA,NA,NA,"","",1,1,"2024-09-04_20h45.08.015","IAT(Formal)","2021.2.3","Win32",29.94011976,"",NA,"",NA,NA,NA,NA,NA,NA,NA,"","","",NA,"i",1,0.5402,NA,NA,NA,NA,NA,"愚蠢","i","",NA,1,67,147,32,1,"",NA,"",NA,NA,NA,NA,NA,NA,NA,"",NA,"",NA,NA,NA,NA,NA,NA,"","",NA,"",NA,"",NA,NA,NA,NA,NA,NA,NA,"",NA,"41"
"",NA,"",NA,"",NA,NA,NA,NA,NA,NA,NA,"","",1,1,"2024-09-04_20h45.08.015","IAT(Formal)","2021.2.3","Win32",29.94011976,"",NA,"",NA,NA,NA,NA,NA,NA,NA,"","","",NA,"i",1,0.457,NA,NA,NA,NA,NA,"他人","i","",NA,1,68,148,78,1,"",NA,"",NA,NA,NA,NA,NA,NA,NA,"",NA,"",NA,NA,NA,NA,NA,NA,"","",NA,"",NA,"",NA,NA,NA,NA,NA,NA,NA,"",NA,"41"
"",NA,"",NA,"",NA,NA,NA,NA,NA,NA,NA,"","",1,1,"2024-09-04_20h45.08.015","IAT(Formal)","2021.2.3","Win32",29.94011976,"",NA,"",NA,NA,NA,NA,NA,NA,NA,"","","",NA,"e",1,0.5072,NA,NA,NA,NA,NA,"正直","e","",NA,1,69,149,16,1,"",NA,"",NA,NA,NA,NA,NA,NA,NA,"",NA,"",NA,NA,NA,NA,NA,NA,"","",NA,"",NA,"",NA,NA,NA,NA,NA,NA,NA,"",NA,"41"
"",NA,"",NA,"",NA,NA,NA,NA,NA,NA,NA,"","",1,1,"2024-09-04_20h45.08.015","IAT(Formal)","2021.2.3","Win32",29.94011976,"",NA,"",NA,NA,NA,NA,NA,NA,NA,"","","",NA,"i",1,0.6877,NA,NA,NA,NA,NA,"猖狂","i","",NA,1,70,150,45,1,"",NA,"",NA,NA,NA,NA,NA,NA,NA,"",NA,"",NA,NA,NA,NA,NA,NA,"","",NA,"",NA,"",NA,NA,NA,NA,NA,NA,NA,"",NA,"41"
"",NA,"",NA,"",NA,NA,NA,NA,NA,NA,NA,"","",1,1,"2024-09-04_20h45.08.015","IAT(Formal)","2021.2.3","Win32",29.94011976,"",NA,"",NA,NA,NA,NA,NA,NA,NA,"","","",NA,"e",1,0.411,NA,NA,NA,NA,NA,"优秀","e","",NA,1,71,151,10,1,"",NA,"",NA,NA,NA,NA,NA,NA,NA,"",NA,"",NA,NA,NA,NA,NA,NA,"","",NA,"",NA,"",NA,NA,NA,NA,NA,NA,NA,"",NA,"41"
"",NA,"",NA,"",NA,NA,NA,NA,NA,NA,NA,"","",1,1,"2024-09-04_20h45.08.015","IAT(Formal)","2021.2.3","Win32",29.94011976,"",NA,"",NA,NA,NA,NA,NA,NA,NA,"","","",NA,"e",1,0.5481,NA,NA,NA,NA,NA,"聪明","e","",NA,1,72,152,12,1,"",NA,"",NA,NA,NA,NA,NA,NA,NA,"",NA,"",NA,NA,NA,NA,NA,NA,"","",NA,"",NA,"",NA,NA,NA,NA,NA,NA,NA,"",NA,"41"
"",NA,"",NA,"",NA,NA,NA,NA,NA,NA,NA,"","",1,1,"2024-09-04_20h45.08.015","IAT(Formal)","2021.2.3","Win32",29.94011976,"",NA,"",NA,NA,NA,NA,NA,NA,NA,"","","",NA,"e",1,0.4474,NA,NA,NA,NA,NA,"认真","e","",NA,1,73,153,20,1,"",NA,"",NA,NA,NA,NA,NA,NA,NA,"",NA,"",NA,NA,NA,NA,NA,NA,"","",NA,"",NA,"",NA,NA,NA,NA,NA,NA,NA,"",NA,"41"
"",NA,"",NA,"",NA,NA,NA,NA,NA,NA,NA,"","",1,1,"2024-09-04_20h45.08.015","IAT(Formal)","2021.2.3","Win32",29.94011976,"",NA,"",NA,NA,NA,NA,NA,NA,NA,"","","",NA,"i",1,0.539,NA,NA,NA,NA,NA,"固执","i","",NA,1,74,154,47,1,"",NA,"",NA,NA,NA,NA,NA,NA,NA,"",NA,"",NA,NA,NA,NA,NA,NA,"","",NA,"",NA,"",NA,NA,NA,NA,NA,NA,NA,"",NA,"41"
"",NA,"",NA,"",NA,NA,NA,NA,NA,NA,NA,"","",1,1,"2024-09-04_20h45.08.015","IAT(Formal)","2021.2.3","Win32",29.94011976,"",NA,"",NA,NA,NA,NA,NA,NA,NA,"","","",NA,"e",1,0.383,NA,NA,NA,NA,NA,"自己","e","",NA,1,75,155,3,1,"",NA,"",NA,NA,NA,NA,NA,NA,NA,"",NA,"",NA,NA,NA,NA,NA,NA,"","",NA,"",NA,"",NA,NA,NA,NA,NA,NA,NA,"",NA,"41"
"",NA,"",NA,"",NA,NA,NA,NA,NA,NA,NA,"","",1,1,"2024-09-04_20h45.08.015","IAT(Formal)","2021.2.3","Win32",29.94011976,"",NA,"",NA,NA,NA,NA,NA,NA,NA,"","","",NA,"i",1,0.4771,NA,NA,NA,NA,NA,"他人","i","",NA,1,76,156,8,1,"",NA,"",NA,NA,NA,NA,NA,NA,NA,"",NA,"",NA,NA,NA,NA,NA,NA,"","",NA,"",NA,"",NA,NA,NA,NA,NA,NA,NA,"",NA,"41"
"",NA,"",NA,"",NA,NA,NA,NA,NA,NA,NA,"","",1,1,"2024-09-04_20h45.08.015","IAT(Formal)","2021.2.3","Win32",29.94011976,"",NA,"",NA,NA,NA,NA,NA,NA,NA,"","","",NA,"e",1,0.5256,NA,NA,NA,NA,NA,"勤奋","e","",NA,1,77,157,18,1,"",NA,"",NA,NA,NA,NA,NA,NA,NA,"",NA,"",NA,NA,NA,NA,NA,NA,"","",NA,"",NA,"",NA,NA,NA,NA,NA,NA,NA,"",NA,"41"
"",NA,"",NA,"",NA,NA,NA,NA,NA,NA,NA,"","",1,1,"2024-09-04_20h45.08.015","IAT(Formal)","2021.2.3","Win32",29.94011976,"",NA,"",NA,NA,NA,NA,NA,NA,NA,"","","",NA,"i",1,0.546,NA,NA,NA,NA,NA,"其他","i","",NA,1,78,158,79,1,"",NA,"",NA,NA,NA,NA,NA,NA,NA,"",NA,"",NA,NA,NA,NA,NA,NA,"","",NA,"",NA,"",NA,NA,NA,NA,NA,NA,NA,"",NA,"41"
"",NA,"",NA,"",NA,NA,NA,NA,NA,NA,NA,"","",1,1,"2024-09-04_20h45.08.015","IAT(Formal)","2021.2.3","Win32",29.94011976,"",NA,"",NA,NA,NA,NA,NA,NA,NA,"","","",NA,"e",1,0.3923,NA,NA,NA,NA,NA,"诚实","e","",NA,1,79,159,15,1,"",NA,"",NA,NA,NA,NA,NA,NA,NA,"",NA,"",NA,NA,NA,NA,NA,NA,"","",NA,"",NA,"",NA,NA,NA,NA,NA,NA,NA,"",NA,"41"
"",NA,"",NA,"",NA,NA,NA,NA,NA,NA,NA,"我","i",1,1,"2024-09-04_20h45.08.015","IAT(Formal)","2021.2.3","Win32",29.94011976,"",NA,"",NA,NA,NA,NA,NA,NA,NA,"","","",NA,"",NA,NA,NA,NA,NA,NA,NA,"","","",NA,NA,NA,NA,NA,NA,"space",13.1248,"i",1,0.7515,0,0,0,0,1,"",NA,"",NA,NA,NA,NA,NA,NA,"","",NA,"",NA,"",NA,NA,NA,NA,NA,NA,NA,"",NA,"41"
"",NA,"",NA,"",NA,NA,NA,NA,NA,NA,NA,"我的","i",1,1,"2024-09-04_20h45.08.015","IAT(Formal)","2021.2.3","Win32",29.94011976,"",NA,"",NA,NA,NA,NA,NA,NA,NA,"","","",NA,"",NA,NA,NA,NA,NA,NA,NA,"","","",NA,NA,NA,NA,NA,NA,"",NA,"i",1,0.5486,0,1,1,1,1,"",NA,"",NA,NA,NA,NA,NA,NA,"","",NA,"",NA,"",NA,NA,NA,NA,NA,NA,NA,"",NA,"41"
"",NA,"",NA,"",NA,NA,NA,NA,NA,NA,NA,"他人","e",1,1,"2024-09-04_20h45.08.015","IAT(Formal)","2021.2.3","Win32",29.94011976,"",NA,"",NA,NA,NA,NA,NA,NA,NA,"","","",NA,"",NA,NA,NA,NA,NA,NA,NA,"","","",NA,NA,NA,NA,NA,NA,"",NA,"e",1,0.5561,0,2,2,8,1,"",NA,"",NA,NA,NA,NA,NA,NA,"","",NA,"",NA,"",NA,NA,NA,NA,NA,NA,NA,"",NA,"41"
"",NA,"",NA,"",NA,NA,NA,NA,NA,NA,NA,"我们","i",1,1,"2024-09-04_20h45.08.015","IAT(Formal)","2021.2.3","Win32",29.94011976,"",NA,"",NA,NA,NA,NA,NA,NA,NA,"","","",NA,"",NA,NA,NA,NA,NA,NA,NA,"","","",NA,NA,NA,NA,NA,NA,"",NA,"i",1,0.463,0,3,3,2,1,"",NA,"",NA,NA,NA,NA,NA,NA,"","",NA,"",NA,"",NA,NA,NA,NA,NA,NA,NA,"",NA,"41"
"",NA,"",NA,"",NA,NA,NA,NA,NA,NA,NA,"俺","i",1,1,"2024-09-04_20h45.08.015","IAT(Formal)","2021.2.3","Win32",29.94011976,"",NA,"",NA,NA,NA,NA,NA,NA,NA,"","","",NA,"",NA,NA,NA,NA,NA,NA,NA,"","","",NA,NA,NA,NA,NA,NA,"",NA,"i",1,0.6062,0,4,4,4,1,"",NA,"",NA,NA,NA,NA,NA,NA,"","",NA,"",NA,"",NA,NA,NA,NA,NA,NA,NA,"",NA,"41"
"",NA,"",NA,"",NA,NA,NA,NA,NA,NA,NA,"他的","e",1,1,"2024-09-04_20h45.08.015","IAT(Formal)","2021.2.3","Win32",29.94011976,"",NA,"",NA,NA,NA,NA,NA,NA,NA,"","","",NA,"",NA,NA,NA,NA,NA,NA,NA,"","","",NA,NA,NA,NA,NA,NA,"",NA,"e",1,0.5176,0,5,5,7,1,"",NA,"",NA,NA,NA,NA,NA,NA,"","",NA,"",NA,"",NA,NA,NA,NA,NA,NA,NA,"",NA,"41"
"",NA,"",NA,"",NA,NA,NA,NA,NA,NA,NA,"其他","e",1,1,"2024-09-04_20h45.08.015","IAT(Formal)","2021.2.3","Win32",29.94011976,"",NA,"",NA,NA,NA,NA,NA,NA,NA,"","","",NA,"",NA,NA,NA,NA,NA,NA,NA,"","","",NA,NA,NA,NA,NA,NA,"",NA,"e",1,0.522,0,6,6,9,1,"",NA,"",NA,NA,NA,NA,NA,NA,"","",NA,"",NA,"",NA,NA,NA,NA,NA,NA,NA,"",NA,"41"
"",NA,"",NA,"",NA,NA,NA,NA,NA,NA,NA,"他们","e",1,1,"2024-09-04_20h45.08.015","IAT(Formal)","2021.2.3","Win32",29.94011976,"",NA,"",NA,NA,NA,NA,NA,NA,NA,"","","",NA,"",NA,NA,NA,NA,NA,NA,NA,"","","",NA,NA,NA,NA,NA,NA,"",NA,"e",1,0.4373,0,7,7,6,1,"",NA,"",NA,NA,NA,NA,NA,NA,"","",NA,"",NA,"",NA,NA,NA,NA,NA,NA,NA,"",NA,"41"
"",NA,"",NA,"",NA,NA,NA,NA,NA,NA,NA,"自己","i",1,1,"2024-09-04_20h45.08.015","IAT(Formal)","2021.2.3","Win32",29.94011976,"",NA,"",NA,NA,NA,NA,NA,NA,NA,"","","",NA,"",NA,NA,NA,NA,NA,NA,NA,"","","",NA,NA,NA,NA,NA,NA,"",NA,"i",1,0.6337,0,8,8,3,1,"",NA,"",NA,NA,NA,NA,NA,NA,"","",NA,"",NA,"",NA,NA,NA,NA,NA,NA,NA,"",NA,"41"
"",NA,"",NA,"",NA,NA,NA,NA,NA,NA,NA,"他","e",1,1,"2024-09-04_20h45.08.015","IAT(Formal)","2021.2.3","Win32",29.94011976,"",NA,"",NA,NA,NA,NA,NA,NA,NA,"","","",NA,"",NA,NA,NA,NA,NA,NA,NA,"","","",NA,NA,NA,NA,NA,NA,"",NA,"e",1,0.5997,0,9,9,5,1,"",NA,"",NA,NA,NA,NA,NA,NA,"","",NA,"",NA,"",NA,NA,NA,NA,NA,NA,NA,"",NA,"41"
"",NA,"",NA,"",NA,NA,NA,NA,NA,NA,NA,"","",1,1,"2024-09-04_20h45.08.015","IAT(Formal)","2021.2.3","Win32",29.94011976,"",NA,"",NA,NA,NA,NA,NA,NA,NA,"","","",NA,"",NA,NA,NA,NA,NA,NA,NA,"","","",NA,NA,NA,NA,NA,NA,"",NA,"",NA,NA,NA,NA,NA,NA,NA,"space",17.6807,"",0,0,0,0,10,1,"优秀","e",NA,"",NA,"",NA,NA,NA,NA,NA,NA,NA,"",NA,"41"
"",NA,"",NA,"",NA,NA,NA,NA,NA,NA,NA,"","",1,1,"2024-09-04_20h45.08.015","IAT(Formal)","2021.2.3","Win32",29.94011976,"",NA,"",NA,NA,NA,NA,NA,NA,NA,"","","",NA,"",NA,NA,NA,NA,NA,NA,NA,"","","",NA,NA,NA,NA,NA,NA,"",NA,"",NA,NA,NA,NA,NA,NA,NA,"",NA,"",0,0,1,1,75,1,"他","e",NA,"",NA,"",NA,NA,NA,NA,NA,NA,NA,"",NA,"41"
"",NA,"",NA,"",NA,NA,NA,NA,NA,NA,NA,"","",1,1,"2024-09-04_20h45.08.015","IAT(Formal)","2021.2.3","Win32",29.94011976,"",NA,"",NA,NA,NA,NA,NA,NA,NA,"","","",NA,"",NA,NA,NA,NA,NA,NA,NA,"","","",NA,NA,NA,NA,NA,NA,"",NA,"",NA,NA,NA,NA,NA,NA,NA,"",NA,"i",1,0,2,2,71,1,"我的","i",0.6947,"",NA,"",NA,NA,NA,NA,NA,NA,NA,"",NA,"41"
"",NA,"",NA,"",NA,NA,NA,NA,NA,NA,NA,"","",1,1,"2024-09-04_20h45.08.015","IAT(Formal)","2021.2.3","Win32",29.94011976,"",NA,"",NA,NA,NA,NA,NA,NA,NA,"","","",NA,"",NA,NA,NA,NA,NA,NA,NA,"","","",NA,NA,NA,NA,NA,NA,"",NA,"",NA,NA,NA,NA,NA,NA,NA,"",NA,"e",1,0,3,3,28,1,"活泼","e",1.2065,"",NA,"",NA,NA,NA,NA,NA,NA,NA,"",NA,"41"
"",NA,"",NA,"",NA,NA,NA,NA,NA,NA,NA,"","",1,1,"2024-09-04_20h45.08.015","IAT(Formal)","2021.2.3","Win32",29.94011976,"",NA,"",NA,NA,NA,NA,NA,NA,NA,"","","",NA,"",NA,NA,NA,NA,NA,NA,NA,"","","",NA,NA,NA,NA,NA,NA,"",NA,"",NA,NA,NA,NA,NA,NA,NA,"",NA,"i",1,0,4,4,44,1,"暴躁","i",0.7762,"",NA,"",NA,NA,NA,NA,NA,NA,NA,"",NA,"41"
