﻿Instruction1.keys,Instruction1.rt,Instruction2.keys,Instruction2.rt,key_resp_iso.keys,key_resp_iso.corr,Practice_01.thisRepN,Practice_01.thisTrialN,Practice_01.thisN,Practice_01.thisIndex,Practice_01.ran,Words,ans,participant,session,date,expName,psychopyVersion,OS,frameRate,key_resp_iso.rt,key_resp_3.keys,key_resp_3.rt,key_resp_ipn.keys,key_resp_ipn.corr,key_resp_ipn.rt,Practice_02.thisRepN,Practice_02.thisTrialN,Practice_02.thisN,Practice_02.thisIndex,Practice_02.ran,Words_ipn,ans_ipn,key_resp_4.keys,key_resp_4.rt,key_resp_t1.keys,key_resp_t1.corr,key_resp_t1.rt,Practice_T1.thisRepN,Practice_T1.thisTrialN,Practice_T1.thisN,Practice_T1.thisIndex,Practice_T1.ran,Words_t1,ans_t1,key_resp_5.keys,key_resp_5.rt,Formal_T1.thisRepN,Formal_T1.thisTrialN,Formal_T1.thisN,Formal_T1.thisIndex,Formal_T1.ran,key_resp_6.keys,key_resp_6.rt,key_resp_iso_reverse.keys,key_resp_iso_reverse.corr,Practice_iso_Reverse.thisRepN,Practice_iso_Reverse.thisTrialN,Practice_iso_Reverse.thisN,Practice_iso_Reverse.thisIndex,Practice_iso_Reverse.ran,key_resp_iso_reverse.rt,key_resp_7.keys,key_resp_7.rt,key_resp_t2_Practice.keys,key_resp_t2_Practice.corr,Practice_t2_Reverse.thisRepN,Practice_t2_Reverse.thisTrialN,Practice_t2_Reverse.thisN,Practice_t2_Reverse.thisIndex,Practice_t2_Reverse.ran,Words_t2,ans_t2,key_resp_t2_Practice.rt,key_resp_8.keys,key_resp_8.rt,key_resp_t2.keys,key_resp_t2.corr,key_resp_t2.rt,Formal_t2_reverse.thisRepN,Formal_t2_reverse.thisTrialN,Formal_t2_reverse.thisN,Formal_t2_reverse.thisIndex,Formal_t2_reverse.ran,key_instruct.keys,key_instruct.rt
space,2.0228,space,3.0885,,0,0,0,0,7,1,他的,i,1,1,2025-01-02_11h27.01.859,IAT(Formal),2021.2.3,Win32,117.6470588,,,,,,,,,,,,,,,,,,,,,,,,,,,,,,,,,,,,,,,,,,,,,,,,,,,,,,,,,,,,,,,,,,
,,,,,0,0,1,1,8,1,他人,i,1,1,2025-01-02_11h27.01.859,IAT(Formal),2021.2.3,Win32,117.6470588,,,,,,,,,,,,,,,,,,,,,,,,,,,,,,,,,,,,,,,,,,,,,,,,,,,,,,,,,,,,,,,,,,
,,,,e,0,0,2,2,9,1,其他,i,1,1,2025-01-02_11h27.01.859,IAT(Formal),2021.2.3,Win32,117.6470588,0.6343,,,,,,,,,,,,,,,,,,,,,,,,,,,,,,,,,,,,,,,,,,,,,,,,,,,,,,,,,,,,,,,,,
,,,,e,1,0,3,3,3,1,自己,e,1,1,2025-01-02_11h27.01.859,IAT(Formal),2021.2.3,Win32,117.6470588,0.867,,,,,,,,,,,,,,,,,,,,,,,,,,,,,,,,,,,,,,,,,,,,,,,,,,,,,,,,,,,,,,,,,
,,,,,0,0,4,4,4,1,俺,e,1,1,2025-01-02_11h27.01.859,IAT(Formal),2021.2.3,Win32,117.6470588,,,,,,,,,,,,,,,,,,,,,,,,,,,,,,,,,,,,,,,,,,,,,,,,,,,,,,,,,,,,,,,,,,
,,,,i,0,0,5,5,2,1,我们,e,1,1,2025-01-02_11h27.01.859,IAT(Formal),2021.2.3,Win32,117.6470588,0.7007,,,,,,,,,,,,,,,,,,,,,,,,,,,,,,,,,,,,,,,,,,,,,,,,,,,,,,,,,,,,,,,,,
,,,,e,1,0,6,6,1,1,我的,e,1,1,2025-01-02_11h27.01.859,IAT(Formal),2021.2.3,Win32,117.6470588,0.2691,,,,,,,,,,,,,,,,,,,,,,,,,,,,,,,,,,,,,,,,,,,,,,,,,,,,,,,,,,,,,,,,,
,,,,i,0,0,7,7,0,1,我,e,1,1,2025-01-02_11h27.01.859,IAT(Formal),2021.2.3,Win32,117.6470588,0.4522,,,,,,,,,,,,,,,,,,,,,,,,,,,,,,,,,,,,,,,,,,,,,,,,,,,,,,,,,,,,,,,,,
,,,,i,1,0,8,8,5,1,他,i,1,1,2025-01-02_11h27.01.859,IAT(Formal),2021.2.3,Win32,117.6470588,0.7715,,,,,,,,,,,,,,,,,,,,,,,,,,,,,,,,,,,,,,,,,,,,,,,,,,,,,,,,,,,,,,,,,
,,,,i,1,0,9,9,6,1,他们,i,1,1,2025-01-02_11h27.01.859,IAT(Formal),2021.2.3,Win32,117.6470588,0.8858,,,,,,,,,,,,,,,,,,,,,,,,,,,,,,,,,,,,,,,,,,,,,,,,,,,,,,,,,,,,,,,,,
,,,,,,,,,,,,,1,1,2025-01-02_11h27.01.859,IAT(Formal),2021.2.3,Win32,117.6470588,,space,1.4112,e,1,1.0839,0,0,0,15,1,细腻,e,,,,,,,,,,,,,,,,,,,,,,,,,,,,,,,,,,,,,,,,,,,,,,,,,,,,,
,,,,,,,,,,,,,1,1,2025-01-02_11h27.01.859,IAT(Formal),2021.2.3,Win32,117.6470588,,,,i,1,0.4982,0,1,1,35,1,猖狂,i,,,,,,,,,,,,,,,,,,,,,,,,,,,,,,,,,,,,,,,,,,,,,,,,,,,,,
,,,,,,,,,,,,,1,1,2025-01-02_11h27.01.859,IAT(Formal),2021.2.3,Win32,117.6470588,,,,e,1,0.4358,0,2,2,11,1,稳重,e,,,,,,,,,,,,,,,,,,,,,,,,,,,,,,,,,,,,,,,,,,,,,,,,,,,,,
,,,,,,,,,,,,,1,1,2025-01-02_11h27.01.859,IAT(Formal),2021.2.3,Win32,117.6470588,,,,e,1,0.5835,0,3,3,8,1,勤奋,e,,,,,,,,,,,,,,,,,,,,,,,,,,,,,,,,,,,,,,,,,,,,,,,,,,,,,
,,,,,,,,,,,,,1,1,2025-01-02_11h27.01.859,IAT(Formal),2021.2.3,Win32,117.6470588,,,,e,1,0.635,0,4,4,19,1,诚恳,e,,,,,,,,,,,,,,,,,,,,,,,,,,,,,,,,,,,,,,,,,,,,,,,,,,,,,
,,,,,,,,,,,,,1,1,2025-01-02_11h27.01.859,IAT(Formal),2021.2.3,Win32,117.6470588,,,,i,1,0.8011,0,5,5,21,1,虚伪,i,,,,,,,,,,,,,,,,,,,,,,,,,,,,,,,,,,,,,,,,,,,,,,,,,,,,,
,,,,,,,,,,,,,1,1,2025-01-02_11h27.01.859,IAT(Formal),2021.2.3,Win32,117.6470588,,,,e,1,0.6347,0,6,6,13,1,公正,e,,,,,,,,,,,,,,,,,,,,,,,,,,,,,,,,,,,,,,,,,,,,,,,,,,,,,
,,,,,,,,,,,,,1,1,2025-01-02_11h27.01.859,IAT(Formal),2021.2.3,Win32,117.6470588,,,,i,1,0.9175,0,7,7,29,1,冒失,i,,,,,,,,,,,,,,,,,,,,,,,,,,,,,,,,,,,,,,,,,,,,,,,,,,,,,
,,,,,,,,,,,,,1,1,2025-01-02_11h27.01.859,IAT(Formal),2021.2.3,Win32,117.6470588,,,,e,1,0.6168,0,8,8,0,1,优秀,e,,,,,,,,,,,,,,,,,,,,,,,,,,,,,,,,,,,,,,,,,,,,,,,,,,,,,
,,,,,,,,,,,,,1,1,2025-01-02_11h27.01.859,IAT(Formal),2021.2.3,Win32,117.6470588,,,,i,1,0.5839,0,9,9,32,1,凶狠,i,,,,,,,,,,,,,,,,,,,,,,,,,,,,,,,,,,,,,,,,,,,,,,,,,,,,,
,,,,,,,,,,,,,1,1,2025-01-02_11h27.01.859,IAT(Formal),2021.2.3,Win32,117.6470588,,,,e,1,0.5702,0,10,10,5,1,诚实,e,,,,,,,,,,,,,,,,,,,,,,,,,,,,,,,,,,,,,,,,,,,,,,,,,,,,,
,,,,,,,,,,,,,1,1,2025-01-02_11h27.01.859,IAT(Formal),2021.2.3,Win32,117.6470588,,,,e,1,0.9172,0,11,11,18,1,活泼,e,,,,,,,,,,,,,,,,,,,,,,,,,,,,,,,,,,,,,,,,,,,,,,,,,,,,,
,,,,,,,,,,,,,1,1,2025-01-02_11h27.01.859,IAT(Formal),2021.2.3,Win32,117.6470588,,,,i,1,1.401,0,12,12,31,1,散漫,i,,,,,,,,,,,,,,,,,,,,,,,,,,,,,,,,,,,,,,,,,,,,,,,,,,,,,
,,,,,,,,,,,,,1,1,2025-01-02_11h27.01.859,IAT(Formal),2021.2.3,Win32,117.6470588,,,,i,1,0.6675,0,13,13,22,1,愚蠢,i,,,,,,,,,,,,,,,,,,,,,,,,,,,,,,,,,,,,,,,,,,,,,,,,,,,,,
,,,,,,,,,,,,,1,1,2025-01-02_11h27.01.859,IAT(Formal),2021.2.3,Win32,117.6470588,,,,e,1,0.7007,0,14,14,7,1,勇敢,e,,,,,,,,,,,,,,,,,,,,,,,,,,,,,,,,,,,,,,,,,,,,,,,,,,,,,
,,,,,,,,,,,,,1,1,2025-01-02_11h27.01.859,IAT(Formal),2021.2.3,Win32,117.6470588,,,,i,1,0.6349,0,15,15,26,1,自卑,i,,,,,,,,,,,,,,,,,,,,,,,,,,,,,,,,,,,,,,,,,,,,,,,,,,,,,
,,,,,,,,,,,,,1,1,2025-01-02_11h27.01.859,IAT(Formal),2021.2.3,Win32,117.6470588,,,,i,1,1.0339,0,16,16,37,1,固执,i,,,,,,,,,,,,,,,,,,,,,,,,,,,,,,,,,,,,,,,,,,,,,,,,,,,,,
,,,,,,,,,,,,,1,1,2025-01-02_11h27.01.859,IAT(Formal),2021.2.3,Win32,117.6470588,,,,e,1,0.6507,0,17,17,4,1,乐观,e,,,,,,,,,,,,,,,,,,,,,,,,,,,,,,,,,,,,,,,,,,,,,,,,,,,,,
,,,,,,,,,,,,,1,1,2025-01-02_11h27.01.859,IAT(Formal),2021.2.3,Win32,117.6470588,,,,e,1,0.6673,0,18,18,14,1,朴实,e,,,,,,,,,,,,,,,,,,,,,,,,,,,,,,,,,,,,,,,,,,,,,,,,,,,,,
,,,,,,,,,,,,,1,1,2025-01-02_11h27.01.859,IAT(Formal),2021.2.3,Win32,117.6470588,,,,e,1,0.7358,0,19,19,9,1,机智,e,,,,,,,,,,,,,,,,,,,,,,,,,,,,,,,,,,,,,,,,,,,,,,,,,,,,,
,,,,,,,,,,,,,1,1,2025-01-02_11h27.01.859,IAT(Formal),2021.2.3,Win32,117.6470588,,,,i,1,0.7858,0,20,20,30,1,执拗,i,,,,,,,,,,,,,,,,,,,,,,,,,,,,,,,,,,,,,,,,,,,,,,,,,,,,,
,,,,,,,,,,,,,1,1,2025-01-02_11h27.01.859,IAT(Formal),2021.2.3,Win32,117.6470588,,,,,0,,0,21,21,17,1,热情,e,,,,,,,,,,,,,,,,,,,,,,,,,,,,,,,,,,,,,,,,,,,,,,,,,,,,,
,,,,,,,,,,,,,1,1,2025-01-02_11h27.01.859,IAT(Formal),2021.2.3,Win32,117.6470588,,,,i,1,0.6848,0,22,22,34,1,暴躁,i,,,,,,,,,,,,,,,,,,,,,,,,,,,,,,,,,,,,,,,,,,,,,,,,,,,,,
,,,,,,,,,,,,,1,1,2025-01-02_11h27.01.859,IAT(Formal),2021.2.3,Win32,117.6470588,,,,e,1,1.2667,0,23,23,16,1,冷静,e,,,,,,,,,,,,,,,,,,,,,,,,,,,,,,,,,,,,,,,,,,,,,,,,,,,,,
,,,,,,,,,,,,,1,1,2025-01-02_11h27.01.859,IAT(Formal),2021.2.3,Win32,117.6470588,,,,e,1,1.0312,0,24,24,1,1,崇高,e,,,,,,,,,,,,,,,,,,,,,,,,,,,,,,,,,,,,,,,,,,,,,,,,,,,,,
,,,,,,,,,,,,,1,1,2025-01-02_11h27.01.859,IAT(Formal),2021.2.3,Win32,117.6470588,,,,i,1,0.6716,0,25,25,36,1,野蛮,i,,,,,,,,,,,,,,,,,,,,,,,,,,,,,,,,,,,,,,,,,,,,,,,,,,,,,
,,,,,,,,,,,,,1,1,2025-01-02_11h27.01.859,IAT(Formal),2021.2.3,Win32,117.6470588,,,,e,1,0.69,0,26,26,2,1,聪明,e,,,,,,,,,,,,,,,,,,,,,,,,,,,,,,,,,,,,,,,,,,,,,,,,,,,,,
,,,,,,,,,,,,,1,1,2025-01-02_11h27.01.859,IAT(Formal),2021.2.3,Win32,117.6470588,,,,e,1,0.5492,0,27,27,10,1,认真,e,,,,,,,,,,,,,,,,,,,,,,,,,,,,,,,,,,,,,,,,,,,,,,,,,,,,,
,,,,,,,,,,,,,1,1,2025-01-02_11h27.01.859,IAT(Formal),2021.2.3,Win32,117.6470588,,,,i,1,0.5586,0,28,28,39,1,下贱,i,,,,,,,,,,,,,,,,,,,,,,,,,,,,,,,,,,,,,,,,,,,,,,,,,,,,,
,,,,,,,,,,,,,1,1,2025-01-02_11h27.01.859,IAT(Formal),2021.2.3,Win32,117.6470588,,,,e,1,0.516,0,29,29,6,1,正直,e,,,,,,,,,,,,,,,,,,,,,,,,,,,,,,,,,,,,,,,,,,,,,,,,,,,,,
,,,,,,,,,,,,,1,1,2025-01-02_11h27.01.859,IAT(Formal),2021.2.3,Win32,117.6470588,,,,i,1,0.5646,0,30,30,23,1,刻薄,i,,,,,,,,,,,,,,,,,,,,,,,,,,,,,,,,,,,,,,,,,,,,,,,,,,,,,
,,,,,,,,,,,,,1,1,2025-01-02_11h27.01.859,IAT(Formal),2021.2.3,Win32,117.6470588,,,,i,1,0.6468,0,31,31,20,1,卑鄙,i,,,,,,,,,,,,,,,,,,,,,,,,,,,,,,,,,,,,,,,,,,,,,,,,,,,,,
,,,,,,,,,,,,,1,1,2025-01-02_11h27.01.859,IAT(Formal),2021.2.3,Win32,117.6470588,,,,i,1,0.4864,0,32,32,28,1,鲁莽,i,,,,,,,,,,,,,,,,,,,,,,,,,,,,,,,,,,,,,,,,,,,,,,,,,,,,,
,,,,,,,,,,,,,1,1,2025-01-02_11h27.01.859,IAT(Formal),2021.2.3,Win32,117.6470588,,,,i,0,0.508,0,33,33,12,1,无私,e,,,,,,,,,,,,,,,,,,,,,,,,,,,,,,,,,,,,,,,,,,,,,,,,,,,,,
,,,,,,,,,,,,,1,1,2025-01-02_11h27.01.859,IAT(Formal),2021.2.3,Win32,117.6470588,,,,e,0,0.7547,0,34,34,38,1,轻率,i,,,,,,,,,,,,,,,,,,,,,,,,,,,,,,,,,,,,,,,,,,,,,,,,,,,,,
,,,,,,,,,,,,,1,1,2025-01-02_11h27.01.859,IAT(Formal),2021.2.3,Win32,117.6470588,,,,i,1,0.8036,0,35,35,25,1,消极,i,,,,,,,,,,,,,,,,,,,,,,,,,,,,,,,,,,,,,,,,,,,,,,,,,,,,,
,,,,,,,,,,,,,1,1,2025-01-02_11h27.01.859,IAT(Formal),2021.2.3,Win32,117.6470588,,,,i,1,0.5889,0,36,36,33,1,自私,i,,,,,,,,,,,,,,,,,,,,,,,,,,,,,,,,,,,,,,,,,,,,,,,,,,,,,
,,,,,,,,,,,,,1,1,2025-01-02_11h27.01.859,IAT(Formal),2021.2.3,Win32,117.6470588,,,,i,1,0.7255,0,37,37,24,1,悲观,i,,,,,,,,,,,,,,,,,,,,,,,,,,,,,,,,,,,,,,,,,,,,,,,,,,,,,
,,,,,,,,,,,,,1,1,2025-01-02_11h27.01.859,IAT(Formal),2021.2.3,Win32,117.6470588,,,,e,1,0.7167,0,38,38,3,1,杰出,e,,,,,,,,,,,,,,,,,,,,,,,,,,,,,,,,,,,,,,,,,,,,,,,,,,,,,
,,,,,,,,,,,,,1,1,2025-01-02_11h27.01.859,IAT(Formal),2021.2.3,Win32,117.6470588,,,,i,1,0.8267,0,39,39,27,1,傲慢,i,,,,,,,,,,,,,,,,,,,,,,,,,,,,,,,,,,,,,,,,,,,,,,,,,,,,,
,,,,,,,,,,,,,1,1,2025-01-02_11h27.01.859,IAT(Formal),2021.2.3,Win32,117.6470588,,,,,,,,,,,,,,space,3.9046,i,1,0.6698,0,0,0,46,1,野蛮,i,,,,,,,,,,,,,,,,,,,,,,,,,,,,,,,,,,,,,,,,,
,,,,,,,,,,,,,1,1,2025-01-02_11h27.01.859,IAT(Formal),2021.2.3,Win32,117.6470588,,,,,,,,,,,,,,,,i,1,0.5482,0,1,1,47,1,固执,i,,,,,,,,,,,,,,,,,,,,,,,,,,,,,,,,,,,,,,,,,
,,,,,,,,,,,,,1,1,2025-01-02_11h27.01.859,IAT(Formal),2021.2.3,Win32,117.6470588,,,,,,,,,,,,,,,,e,1,0.4531,0,2,2,63,1,自己,e,,,,,,,,,,,,,,,,,,,,,,,,,,,,,,,,,,,,,,,,,
,,,,,,,,,,,,,1,1,2025-01-02_11h27.01.859,IAT(Formal),2021.2.3,Win32,117.6470588,,,,,,,,,,,,,,,,e,1,0.6432,0,3,3,20,1,认真,e,,,,,,,,,,,,,,,,,,,,,,,,,,,,,,,,,,,,,,,,,
,,,,,,,,,,,,,1,1,2025-01-02_11h27.01.859,IAT(Formal),2021.2.3,Win32,117.6470588,,,,,,,,,,,,,,,,i,1,0.7431,0,4,4,48,1,轻率,i,,,,,,,,,,,,,,,,,,,,,,,,,,,,,,,,,,,,,,,,,
,,,,,,,,,,,,,1,1,2025-01-02_11h27.01.859,IAT(Formal),2021.2.3,Win32,117.6470588,,,,,,,,,,,,,,,,i,1,0.5669,0,5,5,41,1,散漫,i,,,,,,,,,,,,,,,,,,,,,,,,,,,,,,,,,,,,,,,,,
,,,,,,,,,,,,,1,1,2025-01-02_11h27.01.859,IAT(Formal),2021.2.3,Win32,117.6470588,,,,,,,,,,,,,,,,i,0,0.5412,0,6,6,17,1,勇敢,e,,,,,,,,,,,,,,,,,,,,,,,,,,,,,,,,,,,,,,,,,
,,,,,,,,,,,,,1,1,2025-01-02_11h27.01.859,IAT(Formal),2021.2.3,Win32,117.6470588,,,,,,,,,,,,,,,,e,1,0.5394,0,7,7,52,1,我们,e,,,,,,,,,,,,,,,,,,,,,,,,,,,,,,,,,,,,,,,,,
,,,,,,,,,,,,,1,1,2025-01-02_11h27.01.859,IAT(Formal),2021.2.3,Win32,117.6470588,,,,,,,,,,,,,,,,e,1,0.6227,0,8,8,19,1,机智,e,,,,,,,,,,,,,,,,,,,,,,,,,,,,,,,,,,,,,,,,,
,,,,,,,,,,,,,1,1,2025-01-02_11h27.01.859,IAT(Formal),2021.2.3,Win32,117.6470588,,,,,,,,,,,,,,,,i,1,0.6868,0,9,9,35,1,消极,i,,,,,,,,,,,,,,,,,,,,,,,,,,,,,,,,,,,,,,,,,
,,,,,,,,,,,,,1,1,2025-01-02_11h27.01.859,IAT(Formal),2021.2.3,Win32,117.6470588,,,,,,,,,,,,,,,,i,1,0.5357,0,10,10,59,1,其他,i,,,,,,,,,,,,,,,,,,,,,,,,,,,,,,,,,,,,,,,,,
,,,,,,,,,,,,,1,1,2025-01-02_11h27.01.859,IAT(Formal),2021.2.3,Win32,117.6470588,,,,,,,,,,,,,,,,e,1,0.666,0,11,11,23,1,公正,e,,,,,,,,,,,,,,,,,,,,,,,,,,,,,,,,,,,,,,,,,
,,,,,,,,,,,,,1,1,2025-01-02_11h27.01.859,IAT(Formal),2021.2.3,Win32,117.6470588,,,,,,,,,,,,,,,,e,1,0.5239,0,12,12,18,1,勤奋,e,,,,,,,,,,,,,,,,,,,,,,,,,,,,,,,,,,,,,,,,,
,,,,,,,,,,,,,1,1,2025-01-02_11h27.01.859,IAT(Formal),2021.2.3,Win32,117.6470588,,,,,,,,,,,,,,,,i,1,0.6668,0,13,13,30,1,卑鄙,i,,,,,,,,,,,,,,,,,,,,,,,,,,,,,,,,,,,,,,,,,
,,,,,,,,,,,,,1,1,2025-01-02_11h27.01.859,IAT(Formal),2021.2.3,Win32,117.6470588,,,,,,,,,,,,,,,,i,0,0.5493,0,14,14,22,1,无私,e,,,,,,,,,,,,,,,,,,,,,,,,,,,,,,,,,,,,,,,,,
,,,,,,,,,,,,,1,1,2025-01-02_11h27.01.859,IAT(Formal),2021.2.3,Win32,117.6470588,,,,,,,,,,,,,,,,i,1,0.6068,0,15,15,42,1,凶狠,i,,,,,,,,,,,,,,,,,,,,,,,,,,,,,,,,,,,,,,,,,
,,,,,,,,,,,,,1,1,2025-01-02_11h27.01.859,IAT(Formal),2021.2.3,Win32,117.6470588,,,,,,,,,,,,,,,,e,1,0.6552,0,16,16,21,1,稳重,e,,,,,,,,,,,,,,,,,,,,,,,,,,,,,,,,,,,,,,,,,
,,,,,,,,,,,,,1,1,2025-01-02_11h27.01.859,IAT(Formal),2021.2.3,Win32,117.6470588,,,,,,,,,,,,,,,,e,1,0.5355,0,17,17,10,1,优秀,e,,,,,,,,,,,,,,,,,,,,,,,,,,,,,,,,,,,,,,,,,
,,,,,,,,,,,,,1,1,2025-01-02_11h27.01.859,IAT(Formal),2021.2.3,Win32,117.6470588,,,,,,,,,,,,,,,,i,1,0.6507,0,18,18,34,1,悲观,i,,,,,,,,,,,,,,,,,,,,,,,,,,,,,,,,,,,,,,,,,
,,,,,,,,,,,,,1,1,2025-01-02_11h27.01.859,IAT(Formal),2021.2.3,Win32,117.6470588,,,,,,,,,,,,,,,,e,1,0.7668,0,19,19,54,1,俺,e,,,,,,,,,,,,,,,,,,,,,,,,,,,,,,,,,,,,,,,,,
,,,,,,,,,,,,,1,1,2025-01-02_11h27.01.859,IAT(Formal),2021.2.3,Win32,117.6470588,,,,,,,,,,,,,,,,i,1,0.6086,0,20,20,39,1,冒失,i,,,,,,,,,,,,,,,,,,,,,,,,,,,,,,,,,,,,,,,,,
,,,,,,,,,,,,,1,1,2025-01-02_11h27.01.859,IAT(Formal),2021.2.3,Win32,117.6470588,,,,,,,,,,,,,,,,i,1,0.5428,0,21,21,56,1,他们,i,,,,,,,,,,,,,,,,,,,,,,,,,,,,,,,,,,,,,,,,,
,,,,,,,,,,,,,1,1,2025-01-02_11h27.01.859,IAT(Formal),2021.2.3,Win32,117.6470588,,,,,,,,,,,,,,,,i,0,0.5399,0,22,22,13,1,杰出,e,,,,,,,,,,,,,,,,,,,,,,,,,,,,,,,,,,,,,,,,,
,,,,,,,,,,,,,1,1,2025-01-02_11h27.01.859,IAT(Formal),2021.2.3,Win32,117.6470588,,,,,,,,,,,,,,,,e,1,0.6837,0,23,23,72,1,我们,e,,,,,,,,,,,,,,,,,,,,,,,,,,,,,,,,,,,,,,,,,
,,,,,,,,,,,,,1,1,2025-01-02_11h27.01.859,IAT(Formal),2021.2.3,Win32,117.6470588,,,,,,,,,,,,,,,,e,0,0.5305,0,24,24,75,1,他,i,,,,,,,,,,,,,,,,,,,,,,,,,,,,,,,,,,,,,,,,,
,,,,,,,,,,,,,1,1,2025-01-02_11h27.01.859,IAT(Formal),2021.2.3,Win32,117.6470588,,,,,,,,,,,,,,,,i,1,0.6079,0,25,25,37,1,傲慢,i,,,,,,,,,,,,,,,,,,,,,,,,,,,,,,,,,,,,,,,,,
,,,,,,,,,,,,,1,1,2025-01-02_11h27.01.859,IAT(Formal),2021.2.3,Win32,117.6470588,,,,,,,,,,,,,,,,e,1,0.6957,0,26,26,11,1,崇高,e,,,,,,,,,,,,,,,,,,,,,,,,,,,,,,,,,,,,,,,,,
,,,,,,,,,,,,,1,1,2025-01-02_11h27.01.859,IAT(Formal),2021.2.3,Win32,117.6470588,,,,,,,,,,,,,,,,e,1,0.6919,0,27,27,14,1,乐观,e,,,,,,,,,,,,,,,,,,,,,,,,,,,,,,,,,,,,,,,,,
,,,,,,,,,,,,,1,1,2025-01-02_11h27.01.859,IAT(Formal),2021.2.3,Win32,117.6470588,,,,,,,,,,,,,,,,i,1,0.5985,0,28,28,44,1,暴躁,i,,,,,,,,,,,,,,,,,,,,,,,,,,,,,,,,,,,,,,,,,
,,,,,,,,,,,,,1,1,2025-01-02_11h27.01.859,IAT(Formal),2021.2.3,Win32,117.6470588,,,,,,,,,,,,,,,,i,1,0.5733,0,29,29,45,1,猖狂,i,,,,,,,,,,,,,,,,,,,,,,,,,,,,,,,,,,,,,,,,,
,,,,,,,,,,,,,1,1,2025-01-02_11h27.01.859,IAT(Formal),2021.2.3,Win32,117.6470588,,,,,,,,,,,,,,,,i,1,0.7705,0,30,30,33,1,刻薄,i,,,,,,,,,,,,,,,,,,,,,,,,,,,,,,,,,,,,,,,,,
,,,,,,,,,,,,,1,1,2025-01-02_11h27.01.859,IAT(Formal),2021.2.3,Win32,117.6470588,,,,,,,,,,,,,,,,i,1,0.5198,0,31,31,49,1,下贱,i,,,,,,,,,,,,,,,,,,,,,,,,,,,,,,,,,,,,,,,,,
,,,,,,,,,,,,,1,1,2025-01-02_11h27.01.859,IAT(Formal),2021.2.3,Win32,117.6470588,,,,,,,,,,,,,,,,e,0,0.6251,0,32,32,7,1,他的,i,,,,,,,,,,,,,,,,,,,,,,,,,,,,,,,,,,,,,,,,,
,,,,,,,,,,,,,1,1,2025-01-02_11h27.01.859,IAT(Formal),2021.2.3,Win32,117.6470588,,,,,,,,,,,,,,,,e,1,0.732,0,33,33,24,1,朴实,e,,,,,,,,,,,,,,,,,,,,,,,,,,,,,,,,,,,,,,,,,
,,,,,,,,,,,,,1,1,2025-01-02_11h27.01.859,IAT(Formal),2021.2.3,Win32,117.6470588,,,,,,,,,,,,,,,,e,1,0.4924,0,34,34,50,1,我,e,,,,,,,,,,,,,,,,,,,,,,,,,,,,,,,,,,,,,,,,,
,,,,,,,,,,,,,1,1,2025-01-02_11h27.01.859,IAT(Formal),2021.2.3,Win32,117.6470588,,,,,,,,,,,,,,,,i,1,0.8328,0,35,35,77,1,他的,i,,,,,,,,,,,,,,,,,,,,,,,,,,,,,,,,,,,,,,,,,
,,,,,,,,,,,,,1,1,2025-01-02_11h27.01.859,IAT(Formal),2021.2.3,Win32,117.6470588,,,,,,,,,,,,,,,,i,1,0.5032,0,36,36,55,1,他,i,,,,,,,,,,,,,,,,,,,,,,,,,,,,,,,,,,,,,,,,,
,,,,,,,,,,,,,1,1,2025-01-02_11h27.01.859,IAT(Formal),2021.2.3,Win32,117.6470588,,,,,,,,,,,,,,,,e,1,0.6951,0,37,37,16,1,正直,e,,,,,,,,,,,,,,,,,,,,,,,,,,,,,,,,,,,,,,,,,
,,,,,,,,,,,,,1,1,2025-01-02_11h27.01.859,IAT(Formal),2021.2.3,Win32,117.6470588,,,,,,,,,,,,,,,,e,1,0.6251,0,38,38,73,1,自己,e,,,,,,,,,,,,,,,,,,,,,,,,,,,,,,,,,,,,,,,,,
,,,,,,,,,,,,,1,1,2025-01-02_11h27.01.859,IAT(Formal),2021.2.3,Win32,117.6470588,,,,,,,,,,,,,,,,e,0,0.4814,0,39,39,8,1,他人,i,,,,,,,,,,,,,,,,,,,,,,,,,,,,,,,,,,,,,,,,,
,,,,,,,,,,,,,1,1,2025-01-02_11h27.01.859,IAT(Formal),2021.2.3,Win32,117.6470588,,,,,,,,,,,,,,,,,0,,0,40,40,25,1,细腻,e,,,,,,,,,,,,,,,,,,,,,,,,,,,,,,,,,,,,,,,,,
,,,,,,,,,,,,,1,1,2025-01-02_11h27.01.859,IAT(Formal),2021.2.3,Win32,117.6470588,,,,,,,,,,,,,,,,i,1,0.9102,0,41,41,65,1,他,i,,,,,,,,,,,,,,,,,,,,,,,,,,,,,,,,,,,,,,,,,
,,,,,,,,,,,,,1,1,2025-01-02_11h27.01.859,IAT(Formal),2021.2.3,Win32,117.6470588,,,,,,,,,,,,,,,,e,1,0.6569,0,42,42,2,1,我们,e,,,,,,,,,,,,,,,,,,,,,,,,,,,,,,,,,,,,,,,,,
,,,,,,,,,,,,,1,1,2025-01-02_11h27.01.859,IAT(Formal),2021.2.3,Win32,117.6470588,,,,,,,,,,,,,,,,e,1,0.8396,0,43,43,27,1,热情,e,,,,,,,,,,,,,,,,,,,,,,,,,,,,,,,,,,,,,,,,,
,,,,,,,,,,,,,1,1,2025-01-02_11h27.01.859,IAT(Formal),2021.2.3,Win32,117.6470588,,,,,,,,,,,,,,,,e,1,0.4752,0,44,44,15,1,诚实,e,,,,,,,,,,,,,,,,,,,,,,,,,,,,,,,,,,,,,,,,,
,,,,,,,,,,,,,1,1,2025-01-02_11h27.01.859,IAT(Formal),2021.2.3,Win32,117.6470588,,,,,,,,,,,,,,,,e,1,0.4618,0,45,45,3,1,自己,e,,,,,,,,,,,,,,,,,,,,,,,,,,,,,,,,,,,,,,,,,
,,,,,,,,,,,,,1,1,2025-01-02_11h27.01.859,IAT(Formal),2021.2.3,Win32,117.6470588,,,,,,,,,,,,,,,,e,1,0.6016,0,46,46,12,1,聪明,e,,,,,,,,,,,,,,,,,,,,,,,,,,,,,,,,,,,,,,,,,
,,,,,,,,,,,,,1,1,2025-01-02_11h27.01.859,IAT(Formal),2021.2.3,Win32,117.6470588,,,,,,,,,,,,,,,,e,1,0.4665,0,47,47,60,1,我,e,,,,,,,,,,,,,,,,,,,,,,,,,,,,,,,,,,,,,,,,,
,,,,,,,,,,,,,1,1,2025-01-02_11h27.01.859,IAT(Formal),2021.2.3,Win32,117.6470588,,,,,,,,,,,,,,,,i,1,0.7272,0,48,48,9,1,其他,i,,,,,,,,,,,,,,,,,,,,,,,,,,,,,,,,,,,,,,,,,
,,,,,,,,,,,,,1,1,2025-01-02_11h27.01.859,IAT(Formal),2021.2.3,Win32,117.6470588,,,,,,,,,,,,,,,,i,1,0.7397,0,49,49,68,1,他人,i,,,,,,,,,,,,,,,,,,,,,,,,,,,,,,,,,,,,,,,,,
,,,,,,,,,,,,,1,1,2025-01-02_11h27.01.859,IAT(Formal),2021.2.3,Win32,117.6470588,,,,,,,,,,,,,,,,e,1,0.7767,0,50,50,61,1,我的,e,,,,,,,,,,,,,,,,,,,,,,,,,,,,,,,,,,,,,,,,,
,,,,,,,,,,,,,1,1,2025-01-02_11h27.01.859,IAT(Formal),2021.2.3,Win32,117.6470588,,,,,,,,,,,,,,,,e,1,0.7202,0,51,51,4,1,俺,e,,,,,,,,,,,,,,,,,,,,,,,,,,,,,,,,,,,,,,,,,
,,,,,,,,,,,,,1,1,2025-01-02_11h27.01.859,IAT(Formal),2021.2.3,Win32,117.6470588,,,,,,,,,,,,,,,,i,1,0.723,0,52,52,67,1,他的,i,,,,,,,,,,,,,,,,,,,,,,,,,,,,,,,,,,,,,,,,,
,,,,,,,,,,,,,1,1,2025-01-02_11h27.01.859,IAT(Formal),2021.2.3,Win32,117.6470588,,,,,,,,,,,,,,,,i,1,0.4871,0,53,53,5,1,他,i,,,,,,,,,,,,,,,,,,,,,,,,,,,,,,,,,,,,,,,,,
,,,,,,,,,,,,,1,1,2025-01-02_11h27.01.859,IAT(Formal),2021.2.3,Win32,117.6470588,,,,,,,,,,,,,,,,i,1,0.5389,0,54,54,31,1,虚伪,i,,,,,,,,,,,,,,,,,,,,,,,,,,,,,,,,,,,,,,,,,
,,,,,,,,,,,,,1,1,2025-01-02_11h27.01.859,IAT(Formal),2021.2.3,Win32,117.6470588,,,,,,,,,,,,,,,,i,1,0.4842,0,55,55,69,1,其他,i,,,,,,,,,,,,,,,,,,,,,,,,,,,,,,,,,,,,,,,,,
,,,,,,,,,,,,,1,1,2025-01-02_11h27.01.859,IAT(Formal),2021.2.3,Win32,117.6470588,,,,,,,,,,,,,,,,e,1,0.7003,0,56,56,1,1,我的,e,,,,,,,,,,,,,,,,,,,,,,,,,,,,,,,,,,,,,,,,,
,,,,,,,,,,,,,1,1,2025-01-02_11h27.01.859,IAT(Formal),2021.2.3,Win32,117.6470588,,,,,,,,,,,,,,,,e,1,0.8739,0,57,57,26,1,冷静,e,,,,,,,,,,,,,,,,,,,,,,,,,,,,,,,,,,,,,,,,,
,,,,,,,,,,,,,1,1,2025-01-02_11h27.01.859,IAT(Formal),2021.2.3,Win32,117.6470588,,,,,,,,,,,,,,,,e,1,0.4615,0,58,58,51,1,我的,e,,,,,,,,,,,,,,,,,,,,,,,,,,,,,,,,,,,,,,,,,
,,,,,,,,,,,,,1,1,2025-01-02_11h27.01.859,IAT(Formal),2021.2.3,Win32,117.6470588,,,,,,,,,,,,,,,,i,1,0.9306,0,59,59,43,1,自私,i,,,,,,,,,,,,,,,,,,,,,,,,,,,,,,,,,,,,,,,,,
,,,,,,,,,,,,,1,1,2025-01-02_11h27.01.859,IAT(Formal),2021.2.3,Win32,117.6470588,,,,,,,,,,,,,,,,e,1,0.6534,0,60,60,53,1,自己,e,,,,,,,,,,,,,,,,,,,,,,,,,,,,,,,,,,,,,,,,,
,,,,,,,,,,,,,1,1,2025-01-02_11h27.01.859,IAT(Formal),2021.2.3,Win32,117.6470588,,,,,,,,,,,,,,,,i,1,0.5286,0,61,61,78,1,他人,i,,,,,,,,,,,,,,,,,,,,,,,,,,,,,,,,,,,,,,,,,
,,,,,,,,,,,,,1,1,2025-01-02_11h27.01.859,IAT(Formal),2021.2.3,Win32,117.6470588,,,,,,,,,,,,,,,,i,1,0.5192,0,62,62,32,1,愚蠢,i,,,,,,,,,,,,,,,,,,,,,,,,,,,,,,,,,,,,,,,,,
,,,,,,,,,,,,,1,1,2025-01-02_11h27.01.859,IAT(Formal),2021.2.3,Win32,117.6470588,,,,,,,,,,,,,,,,e,1,0.6113,0,63,63,71,1,我的,e,,,,,,,,,,,,,,,,,,,,,,,,,,,,,,,,,,,,,,,,,
,,,,,,,,,,,,,1,1,2025-01-02_11h27.01.859,IAT(Formal),2021.2.3,Win32,117.6470588,,,,,,,,,,,,,,,,i,1,0.5339,0,64,64,76,1,他们,i,,,,,,,,,,,,,,,,,,,,,,,,,,,,,,,,,,,,,,,,,
,,,,,,,,,,,,,1,1,2025-01-02_11h27.01.859,IAT(Formal),2021.2.3,Win32,117.6470588,,,,,,,,,,,,,,,,i,1,0.602,0,65,65,36,1,自卑,i,,,,,,,,,,,,,,,,,,,,,,,,,,,,,,,,,,,,,,,,,
,,,,,,,,,,,,,1,1,2025-01-02_11h27.01.859,IAT(Formal),2021.2.3,Win32,117.6470588,,,,,,,,,,,,,,,,i,1,0.5103,0,66,66,38,1,鲁莽,i,,,,,,,,,,,,,,,,,,,,,,,,,,,,,,,,,,,,,,,,,
,,,,,,,,,,,,,1,1,2025-01-02_11h27.01.859,IAT(Formal),2021.2.3,Win32,117.6470588,,,,,,,,,,,,,,,,i,0,0.5458,0,67,67,74,1,俺,e,,,,,,,,,,,,,,,,,,,,,,,,,,,,,,,,,,,,,,,,,
,,,,,,,,,,,,,1,1,2025-01-02_11h27.01.859,IAT(Formal),2021.2.3,Win32,117.6470588,,,,,,,,,,,,,,,,e,0,0.4774,0,68,68,66,1,他们,i,,,,,,,,,,,,,,,,,,,,,,,,,,,,,,,,,,,,,,,,,
,,,,,,,,,,,,,1,1,2025-01-02_11h27.01.859,IAT(Formal),2021.2.3,Win32,117.6470588,,,,,,,,,,,,,,,,e,1,0.7659,0,69,69,62,1,我们,e,,,,,,,,,,,,,,,,,,,,,,,,,,,,,,,,,,,,,,,,,
,,,,,,,,,,,,,1,1,2025-01-02_11h27.01.859,IAT(Formal),2021.2.3,Win32,117.6470588,,,,,,,,,,,,,,,,e,1,0.6106,0,70,70,70,1,我,e,,,,,,,,,,,,,,,,,,,,,,,,,,,,,,,,,,,,,,,,,
,,,,,,,,,,,,,1,1,2025-01-02_11h27.01.859,IAT(Formal),2021.2.3,Win32,117.6470588,,,,,,,,,,,,,,,,i,1,0.5995,0,71,71,40,1,执拗,i,,,,,,,,,,,,,,,,,,,,,,,,,,,,,,,,,,,,,,,,,
,,,,,,,,,,,,,1,1,2025-01-02_11h27.01.859,IAT(Formal),2021.2.3,Win32,117.6470588,,,,,,,,,,,,,,,,e,1,1.1132,0,72,72,28,1,活泼,e,,,,,,,,,,,,,,,,,,,,,,,,,,,,,,,,,,,,,,,,,
,,,,,,,,,,,,,1,1,2025-01-02_11h27.01.859,IAT(Formal),2021.2.3,Win32,117.6470588,,,,,,,,,,,,,,,,e,1,0.7269,0,73,73,64,1,俺,e,,,,,,,,,,,,,,,,,,,,,,,,,,,,,,,,,,,,,,,,,
,,,,,,,,,,,,,1,1,2025-01-02_11h27.01.859,IAT(Formal),2021.2.3,Win32,117.6470588,,,,,,,,,,,,,,,,e,1,0.5182,0,74,74,0,1,我,e,,,,,,,,,,,,,,,,,,,,,,,,,,,,,,,,,,,,,,,,,
,,,,,,,,,,,,,1,1,2025-01-02_11h27.01.859,IAT(Formal),2021.2.3,Win32,117.6470588,,,,,,,,,,,,,,,,i,1,0.6824,0,75,75,57,1,他的,i,,,,,,,,,,,,,,,,,,,,,,,,,,,,,,,,,,,,,,,,,
,,,,,,,,,,,,,1,1,2025-01-02_11h27.01.859,IAT(Formal),2021.2.3,Win32,117.6470588,,,,,,,,,,,,,,,,i,1,0.6709,0,76,76,79,1,其他,i,,,,,,,,,,,,,,,,,,,,,,,,,,,,,,,,,,,,,,,,,
,,,,,,,,,,,,,1,1,2025-01-02_11h27.01.859,IAT(Formal),2021.2.3,Win32,117.6470588,,,,,,,,,,,,,,,,i,1,0.5047,0,77,77,58,1,他人,i,,,,,,,,,,,,,,,,,,,,,,,,,,,,,,,,,,,,,,,,,
,,,,,,,,,,,,,1,1,2025-01-02_11h27.01.859,IAT(Formal),2021.2.3,Win32,117.6470588,,,,,,,,,,,,,,,,i,1,0.6244,0,78,78,6,1,他们,i,,,,,,,,,,,,,,,,,,,,,,,,,,,,,,,,,,,,,,,,,
,,,,,,,,,,,,,1,1,2025-01-02_11h27.01.859,IAT(Formal),2021.2.3,Win32,117.6470588,,,,,,,,,,,,,,,,e,1,0.749,0,79,79,29,1,诚恳,e,,,,,,,,,,,,,,,,,,,,,,,,,,,,,,,,,,,,,,,,,
,,,,,,,,,,,,,1,1,2025-01-02_11h27.01.859,IAT(Formal),2021.2.3,Win32,117.6470588,,,,,,,,,,,,,,,,,0,,,,,,,俺,e,space,3.8915,0,0,0,64,1,,,,,,,,,,,,,,,,,,,,,,,,,,,,,,,,,,
,,,,,,,,,,,,,1,1,2025-01-02_11h27.01.859,IAT(Formal),2021.2.3,Win32,117.6470588,,,,,,,,,,,,,,,,i,1,1.1858,,,,,,轻率,i,,,0,1,1,48,1,,,,,,,,,,,,,,,,,,,,,,,,,,,,,,,,,,
,,,,,,,,,,,,,1,1,2025-01-02_11h27.01.859,IAT(Formal),2021.2.3,Win32,117.6470588,,,,,,,,,,,,,,,,e,1,0.7342,,,,,,我们,e,,,0,2,2,52,1,,,,,,,,,,,,,,,,,,,,,,,,,,,,,,,,,,
,,,,,,,,,,,,,1,1,2025-01-02_11h27.01.859,IAT(Formal),2021.2.3,Win32,117.6470588,,,,,,,,,,,,,,,,i,1,0.781,,,,,,他们,i,,,0,3,3,56,1,,,,,,,,,,,,,,,,,,,,,,,,,,,,,,,,,,
,,,,,,,,,,,,,1,1,2025-01-02_11h27.01.859,IAT(Formal),2021.2.3,Win32,117.6470588,,,,,,,,,,,,,,,,e,1,0.5257,,,,,,我,e,,,0,4,4,60,1,,,,,,,,,,,,,,,,,,,,,,,,,,,,,,,,,,
,,,,,,,,,,,,,1,1,2025-01-02_11h27.01.859,IAT(Formal),2021.2.3,Win32,117.6470588,,,,,,,,,,,,,,,,i,1,0.6857,,,,,,自私,i,,,0,5,5,43,1,,,,,,,,,,,,,,,,,,,,,,,,,,,,,,,,,,
,,,,,,,,,,,,,1,1,2025-01-02_11h27.01.859,IAT(Formal),2021.2.3,Win32,117.6470588,,,,,,,,,,,,,,,,i,1,0.6238,,,,,,他,i,,,0,6,6,65,1,,,,,,,,,,,,,,,,,,,,,,,,,,,,,,,,,,
,,,,,,,,,,,,,1,1,2025-01-02_11h27.01.859,IAT(Formal),2021.2.3,Win32,117.6470588,,,,,,,,,,,,,,,,i,1,0.5305,,,,,,他的,i,,,0,7,7,7,1,,,,,,,,,,,,,,,,,,,,,,,,,,,,,,,,,,
,,,,,,,,,,,,,1,1,2025-01-02_11h27.01.859,IAT(Formal),2021.2.3,Win32,117.6470588,,,,,,,,,,,,,,,,i,1,0.6783,,,,,,他们,i,,,0,8,8,76,1,,,,,,,,,,,,,,,,,,,,,,,,,,,,,,,,,,
,,,,,,,,,,,,,1,1,2025-01-02_11h27.01.859,IAT(Formal),2021.2.3,Win32,117.6470588,,,,,,,,,,,,,,,,i,1,0.6828,,,,,,固执,i,,,0,9,9,47,1,,,,,,,,,,,,,,,,,,,,,,,,,,,,,,,,,,
,,,,,,,,,,,,,1,1,2025-01-02_11h27.01.859,IAT(Formal),2021.2.3,Win32,117.6470588,,,,,,,,,,,,,,,,e,1,0.8065,,,,,,优秀,e,,,0,10,10,10,1,,,,,,,,,,,,,,,,,,,,,,,,,,,,,,,,,,
,,,,,,,,,,,,,1,1,2025-01-02_11h27.01.859,IAT(Formal),2021.2.3,Win32,117.6470588,,,,,,,,,,,,,,,,i,1,0.6679,,,,,,虚伪,i,,,0,11,11,31,1,,,,,,,,,,,,,,,,,,,,,,,,,,,,,,,,,,
,,,,,,,,,,,,,1,1,2025-01-02_11h27.01.859,IAT(Formal),2021.2.3,Win32,117.6470588,,,,,,,,,,,,,,,,i,1,0.6496,,,,,,其他,i,,,0,12,12,9,1,,,,,,,,,,,,,,,,,,,,,,,,,,,,,,,,,,
,,,,,,,,,,,,,1,1,2025-01-02_11h27.01.859,IAT(Formal),2021.2.3,Win32,117.6470588,,,,,,,,,,,,,,,,i,1,0.5928,,,,,,野蛮,i,,,0,13,13,46,1,,,,,,,,,,,,,,,,,,,,,,,,,,,,,,,,,,
,,,,,,,,,,,,,1,1,2025-01-02_11h27.01.859,IAT(Formal),2021.2.3,Win32,117.6470588,,,,,,,,,,,,,,,,i,0,0.5589,,,,,,稳重,e,,,0,14,14,21,1,,,,,,,,,,,,,,,,,,,,,,,,,,,,,,,,,,
,,,,,,,,,,,,,1,1,2025-01-02_11h27.01.859,IAT(Formal),2021.2.3,Win32,117.6470588,,,,,,,,,,,,,,,,i,1,0.6249,,,,,,他人,i,,,0,15,15,68,1,,,,,,,,,,,,,,,,,,,,,,,,,,,,,,,,,,
,,,,,,,,,,,,,1,1,2025-01-02_11h27.01.859,IAT(Formal),2021.2.3,Win32,117.6470588,,,,,,,,,,,,,,,,e,1,0.6669,,,,,,杰出,e,,,0,16,16,13,1,,,,,,,,,,,,,,,,,,,,,,,,,,,,,,,,,,
,,,,,,,,,,,,,1,1,2025-01-02_11h27.01.859,IAT(Formal),2021.2.3,Win32,117.6470588,,,,,,,,,,,,,,,,i,1,0.7795,,,,,,暴躁,i,,,0,17,17,44,1,,,,,,,,,,,,,,,,,,,,,,,,,,,,,,,,,,
,,,,,,,,,,,,,1,1,2025-01-02_11h27.01.859,IAT(Formal),2021.2.3,Win32,117.6470588,,,,,,,,,,,,,,,,i,1,0.7666,,,,,,鲁莽,i,,,0,18,18,38,1,,,,,,,,,,,,,,,,,,,,,,,,,,,,,,,,,,
,,,,,,,,,,,,,1,1,2025-01-02_11h27.01.859,IAT(Formal),2021.2.3,Win32,117.6470588,,,,,,,,,,,,,,,,i,1,1.0537,,,,,,他人,i,,,0,19,19,58,1,,,,,,,,,,,,,,,,,,,,,,,,,,,,,,,,,,
,,,,,,,,,,,,,1,1,2025-01-02_11h27.01.859,IAT(Formal),2021.2.3,Win32,117.6470588,,,,,,,,,,,,,,,,e,1,0.7319,,,,,,我们,e,,,0,20,20,62,1,,,,,,,,,,,,,,,,,,,,,,,,,,,,,,,,,,
,,,,,,,,,,,,,1,1,2025-01-02_11h27.01.859,IAT(Formal),2021.2.3,Win32,117.6470588,,,,,,,,,,,,,,,,e,1,0.6437,,,,,,我们,e,,,0,21,21,72,1,,,,,,,,,,,,,,,,,,,,,,,,,,,,,,,,,,
,,,,,,,,,,,,,1,1,2025-01-02_11h27.01.859,IAT(Formal),2021.2.3,Win32,117.6470588,,,,,,,,,,,,,,,,i,1,0.6258,,,,,,他,i,,,0,22,22,5,1,,,,,,,,,,,,,,,,,,,,,,,,,,,,,,,,,,
,,,,,,,,,,,,,1,1,2025-01-02_11h27.01.859,IAT(Formal),2021.2.3,Win32,117.6470588,,,,,,,,,,,,,,,,i,0,0.6348,,,,,,无私,e,,,0,23,23,22,1,,,,,,,,,,,,,,,,,,,,,,,,,,,,,,,,,,
,,,,,,,,,,,,,1,1,2025-01-02_11h27.01.859,IAT(Formal),2021.2.3,Win32,117.6470588,,,,,,,,,,,,,,,,i,1,1.074,,,,,,散漫,i,,,0,24,24,41,1,,,,,,,,,,,,,,,,,,,,,,,,,,,,,,,,,,
,,,,,,,,,,,,,1,1,2025-01-02_11h27.01.859,IAT(Formal),2021.2.3,Win32,117.6470588,,,,,,,,,,,,,,,,i,1,0.8171,,,,,,他人,i,,,0,25,25,78,1,,,,,,,,,,,,,,,,,,,,,,,,,,,,,,,,,,
,,,,,,,,,,,,,1,1,2025-01-02_11h27.01.859,IAT(Formal),2021.2.3,Win32,117.6470588,,,,,,,,,,,,,,,,e,1,0.7157,,,,,,公正,e,,,0,26,26,23,1,,,,,,,,,,,,,,,,,,,,,,,,,,,,,,,,,,
,,,,,,,,,,,,,1,1,2025-01-02_11h27.01.859,IAT(Formal),2021.2.3,Win32,117.6470588,,,,,,,,,,,,,,,,i,1,0.8049,,,,,,其他,i,,,0,27,27,69,1,,,,,,,,,,,,,,,,,,,,,,,,,,,,,,,,,,
,,,,,,,,,,,,,1,1,2025-01-02_11h27.01.859,IAT(Formal),2021.2.3,Win32,117.6470588,,,,,,,,,,,,,,,,e,1,0.7675,,,,,,我的,e,,,0,28,28,51,1,,,,,,,,,,,,,,,,,,,,,,,,,,,,,,,,,,
,,,,,,,,,,,,,1,1,2025-01-02_11h27.01.859,IAT(Formal),2021.2.3,Win32,117.6470588,,,,,,,,,,,,,,,,e,1,0.7685,,,,,,细腻,e,,,0,29,29,25,1,,,,,,,,,,,,,,,,,,,,,,,,,,,,,,,,,,
,,,,,,,,,,,,,1,1,2025-01-02_11h27.01.859,IAT(Formal),2021.2.3,Win32,117.6470588,,,,,,,,,,,,,,,,i,1,1.1276,,,,,,其他,i,,,0,30,30,79,1,,,,,,,,,,,,,,,,,,,,,,,,,,,,,,,,,,
,,,,,,,,,,,,,1,1,2025-01-02_11h27.01.859,IAT(Formal),2021.2.3,Win32,117.6470588,,,,,,,,,,,,,,,,e,1,0.7923,,,,,,崇高,e,,,0,31,31,11,1,,,,,,,,,,,,,,,,,,,,,,,,,,,,,,,,,,
,,,,,,,,,,,,,1,1,2025-01-02_11h27.01.859,IAT(Formal),2021.2.3,Win32,117.6470588,,,,,,,,,,,,,,,,i,1,0.5293,,,,,,凶狠,i,,,0,32,32,42,1,,,,,,,,,,,,,,,,,,,,,,,,,,,,,,,,,,
,,,,,,,,,,,,,1,1,2025-01-02_11h27.01.859,IAT(Formal),2021.2.3,Win32,117.6470588,,,,,,,,,,,,,,,,e,1,0.7102,,,,,,我的,e,,,0,33,33,71,1,,,,,,,,,,,,,,,,,,,,,,,,,,,,,,,,,,
,,,,,,,,,,,,,1,1,2025-01-02_11h27.01.859,IAT(Formal),2021.2.3,Win32,117.6470588,,,,,,,,,,,,,,,,i,1,0.5667,,,,,,他的,i,,,0,34,34,57,1,,,,,,,,,,,,,,,,,,,,,,,,,,,,,,,,,,
,,,,,,,,,,,,,1,1,2025-01-02_11h27.01.859,IAT(Formal),2021.2.3,Win32,117.6470588,,,,,,,,,,,,,,,,i,1,0.78,,,,,,刻薄,i,,,0,35,35,33,1,,,,,,,,,,,,,,,,,,,,,,,,,,,,,,,,,,
,,,,,,,,,,,,,1,1,2025-01-02_11h27.01.859,IAT(Formal),2021.2.3,Win32,117.6470588,,,,,,,,,,,,,,,,i,1,0.6254,,,,,,他,i,,,0,36,36,55,1,,,,,,,,,,,,,,,,,,,,,,,,,,,,,,,,,,
,,,,,,,,,,,,,1,1,2025-01-02_11h27.01.859,IAT(Formal),2021.2.3,Win32,117.6470588,,,,,,,,,,,,,,,,e,1,0.7938,,,,,,认真,e,,,0,37,37,20,1,,,,,,,,,,,,,,,,,,,,,,,,,,,,,,,,,,
,,,,,,,,,,,,,1,1,2025-01-02_11h27.01.859,IAT(Formal),2021.2.3,Win32,117.6470588,,,,,,,,,,,,,,,,i,1,0.6669,,,,,,消极,i,,,0,38,38,35,1,,,,,,,,,,,,,,,,,,,,,,,,,,,,,,,,,,
,,,,,,,,,,,,,1,1,2025-01-02_11h27.01.859,IAT(Formal),2021.2.3,Win32,117.6470588,,,,,,,,,,,,,,,,i,1,0.6339,,,,,,他人,i,,,0,39,39,8,1,,,,,,,,,,,,,,,,,,,,,,,,,,,,,,,,,,
,,,,,,,,,,,,,1,1,2025-01-02_11h27.01.859,IAT(Formal),2021.2.3,Win32,117.6470588,,,,,,,,,,,,,,,,e,1,0.7398,,,,,,我,e,,,0,40,40,0,1,,,,,,,,,,,,,,,,,,,,,,,,,,,,,,,,,,
,,,,,,,,,,,,,1,1,2025-01-02_11h27.01.859,IAT(Formal),2021.2.3,Win32,117.6470588,,,,,,,,,,,,,,,,e,1,0.7357,,,,,,自己,e,,,0,41,41,73,1,,,,,,,,,,,,,,,,,,,,,,,,,,,,,,,,,,
,,,,,,,,,,,,,1,1,2025-01-02_11h27.01.859,IAT(Formal),2021.2.3,Win32,117.6470588,,,,,,,,,,,,,,,,e,1,0.5594,,,,,,自己,e,,,0,42,42,53,1,,,,,,,,,,,,,,,,,,,,,,,,,,,,,,,,,,
,,,,,,,,,,,,,1,1,2025-01-02_11h27.01.859,IAT(Formal),2021.2.3,Win32,117.6470588,,,,,,,,,,,,,,,,e,1,0.9339,,,,,,聪明,e,,,0,43,43,12,1,,,,,,,,,,,,,,,,,,,,,,,,,,,,,,,,,,
,,,,,,,,,,,,,1,1,2025-01-02_11h27.01.859,IAT(Formal),2021.2.3,Win32,117.6470588,,,,,,,,,,,,,,,,e,1,0.7872,,,,,,机智,e,,,0,44,44,19,1,,,,,,,,,,,,,,,,,,,,,,,,,,,,,,,,,,
,,,,,,,,,,,,,1,1,2025-01-02_11h27.01.859,IAT(Formal),2021.2.3,Win32,117.6470588,,,,,,,,,,,,,,,,i,1,0.6773,,,,,,卑鄙,i,,,0,45,45,30,1,,,,,,,,,,,,,,,,,,,,,,,,,,,,,,,,,,
,,,,,,,,,,,,,1,1,2025-01-02_11h27.01.859,IAT(Formal),2021.2.3,Win32,117.6470588,,,,,,,,,,,,,,,,e,1,0.7097,,,,,,诚恳,e,,,0,46,46,29,1,,,,,,,,,,,,,,,,,,,,,,,,,,,,,,,,,,
,,,,,,,,,,,,,1,1,2025-01-02_11h27.01.859,IAT(Formal),2021.2.3,Win32,117.6470588,,,,,,,,,,,,,,,,e,1,0.7995,,,,,,朴实,e,,,0,47,47,24,1,,,,,,,,,,,,,,,,,,,,,,,,,,,,,,,,,,
,,,,,,,,,,,,,1,1,2025-01-02_11h27.01.859,IAT(Formal),2021.2.3,Win32,117.6470588,,,,,,,,,,,,,,,,e,1,0.7293,,,,,,俺,e,,,0,48,48,54,1,,,,,,,,,,,,,,,,,,,,,,,,,,,,,,,,,,
,,,,,,,,,,,,,1,1,2025-01-02_11h27.01.859,IAT(Formal),2021.2.3,Win32,117.6470588,,,,,,,,,,,,,,,,i,1,0.6077,,,,,,冒失,i,,,0,49,49,39,1,,,,,,,,,,,,,,,,,,,,,,,,,,,,,,,,,,
,,,,,,,,,,,,,1,1,2025-01-02_11h27.01.859,IAT(Formal),2021.2.3,Win32,117.6470588,,,,,,,,,,,,,,,,i,1,0.915,,,,,,他的,i,,,0,50,50,77,1,,,,,,,,,,,,,,,,,,,,,,,,,,,,,,,,,,
,,,,,,,,,,,,,1,1,2025-01-02_11h27.01.859,IAT(Formal),2021.2.3,Win32,117.6470588,,,,,,,,,,,,,,,,e,1,0.6412,,,,,,勇敢,e,,,0,51,51,17,1,,,,,,,,,,,,,,,,,,,,,,,,,,,,,,,,,,
,,,,,,,,,,,,,1,1,2025-01-02_11h27.01.859,IAT(Formal),2021.2.3,Win32,117.6470588,,,,,,,,,,,,,,,,i,1,0.8434,,,,,,悲观,i,,,0,52,52,34,1,,,,,,,,,,,,,,,,,,,,,,,,,,,,,,,,,,
,,,,,,,,,,,,,1,1,2025-01-02_11h27.01.859,IAT(Formal),2021.2.3,Win32,117.6470588,,,,,,,,,,,,,,,,i,1,0.6942,,,,,,他的,i,,,0,53,53,67,1,,,,,,,,,,,,,,,,,,,,,,,,,,,,,,,,,,
,,,,,,,,,,,,,1,1,2025-01-02_11h27.01.859,IAT(Formal),2021.2.3,Win32,117.6470588,,,,,,,,,,,,,,,,i,1,0.6444,,,,,,愚蠢,i,,,0,54,54,32,1,,,,,,,,,,,,,,,,,,,,,,,,,,,,,,,,,,
,,,,,,,,,,,,,1,1,2025-01-02_11h27.01.859,IAT(Formal),2021.2.3,Win32,117.6470588,,,,,,,,,,,,,,,,e,1,0.6189,,,,,,我的,e,,,0,55,55,61,1,,,,,,,,,,,,,,,,,,,,,,,,,,,,,,,,,,
,,,,,,,,,,,,,1,1,2025-01-02_11h27.01.859,IAT(Formal),2021.2.3,Win32,117.6470588,,,,,,,,,,,,,,,,e,1,1.0515,,,,,,热情,e,,,0,56,56,27,1,,,,,,,,,,,,,,,,,,,,,,,,,,,,,,,,,,
,,,,,,,,,,,,,1,1,2025-01-02_11h27.01.859,IAT(Formal),2021.2.3,Win32,117.6470588,,,,,,,,,,,,,,,,e,1,1.4089,,,,,,俺,e,,,0,57,57,74,1,,,,,,,,,,,,,,,,,,,,,,,,,,,,,,,,,,
,,,,,,,,,,,,,1,1,2025-01-02_11h27.01.859,IAT(Formal),2021.2.3,Win32,117.6470588,,,,,,,,,,,,,,,,i,1,1.277,,,,,,他们,i,,,0,58,58,66,1,,,,,,,,,,,,,,,,,,,,,,,,,,,,,,,,,,
,,,,,,,,,,,,,1,1,2025-01-02_11h27.01.859,IAT(Formal),2021.2.3,Win32,117.6470588,,,,,,,,,,,,,,,,e,1,0.8609,,,,,,我的,e,,,0,59,59,1,1,,,,,,,,,,,,,,,,,,,,,,,,,,,,,,,,,,
,,,,,,,,,,,,,1,1,2025-01-02_11h27.01.859,IAT(Formal),2021.2.3,Win32,117.6470588,,,,,,,,,,,,,,,,e,1,0.6502,,,,,,正直,e,,,0,60,60,16,1,,,,,,,,,,,,,,,,,,,,,,,,,,,,,,,,,,
,,,,,,,,,,,,,1,1,2025-01-02_11h27.01.859,IAT(Formal),2021.2.3,Win32,117.6470588,,,,,,,,,,,,,,,,i,1,0.6751,,,,,,下贱,i,,,0,61,61,49,1,,,,,,,,,,,,,,,,,,,,,,,,,,,,,,,,,,
,,,,,,,,,,,,,1,1,2025-01-02_11h27.01.859,IAT(Formal),2021.2.3,Win32,117.6470588,,,,,,,,,,,,,,,,e,1,0.8098,,,,,,自己,e,,,0,62,62,63,1,,,,,,,,,,,,,,,,,,,,,,,,,,,,,,,,,,
,,,,,,,,,,,,,1,1,2025-01-02_11h27.01.859,IAT(Formal),2021.2.3,Win32,117.6470588,,,,,,,,,,,,,,,,i,1,0.5526,,,,,,猖狂,i,,,0,63,63,45,1,,,,,,,,,,,,,,,,,,,,,,,,,,,,,,,,,,
,,,,,,,,,,,,,1,1,2025-01-02_11h27.01.859,IAT(Formal),2021.2.3,Win32,117.6470588,,,,,,,,,,,,,,,,e,1,0.6012,,,,,,自己,e,,,0,64,64,3,1,,,,,,,,,,,,,,,,,,,,,,,,,,,,,,,,,,
,,,,,,,,,,,,,1,1,2025-01-02_11h27.01.859,IAT(Formal),2021.2.3,Win32,117.6470588,,,,,,,,,,,,,,,,e,1,0.6337,,,,,,活泼,e,,,0,65,65,28,1,,,,,,,,,,,,,,,,,,,,,,,,,,,,,,,,,,
,,,,,,,,,,,,,1,1,2025-01-02_11h27.01.859,IAT(Formal),2021.2.3,Win32,117.6470588,,,,,,,,,,,,,,,,i,1,0.5908,,,,,,傲慢,i,,,0,66,66,37,1,,,,,,,,,,,,,,,,,,,,,,,,,,,,,,,,,,
,,,,,,,,,,,,,1,1,2025-01-02_11h27.01.859,IAT(Formal),2021.2.3,Win32,117.6470588,,,,,,,,,,,,,,,,i,1,0.9733,,,,,,执拗,i,,,0,67,67,40,1,,,,,,,,,,,,,,,,,,,,,,,,,,,,,,,,,,
,,,,,,,,,,,,,1,1,2025-01-02_11h27.01.859,IAT(Formal),2021.2.3,Win32,117.6470588,,,,,,,,,,,,,,,,i,1,0.7049,,,,,,自卑,i,,,0,68,68,36,1,,,,,,,,,,,,,,,,,,,,,,,,,,,,,,,,,,
,,,,,,,,,,,,,1,1,2025-01-02_11h27.01.859,IAT(Formal),2021.2.3,Win32,117.6470588,,,,,,,,,,,,,,,,i,1,0.64,,,,,,他们,i,,,0,69,69,6,1,,,,,,,,,,,,,,,,,,,,,,,,,,,,,,,,,,
,,,,,,,,,,,,,1,1,2025-01-02_11h27.01.859,IAT(Formal),2021.2.3,Win32,117.6470588,,,,,,,,,,,,,,,,i,1,0.6386,,,,,,其他,i,,,0,70,70,59,1,,,,,,,,,,,,,,,,,,,,,,,,,,,,,,,,,,
,,,,,,,,,,,,,1,1,2025-01-02_11h27.01.859,IAT(Formal),2021.2.3,Win32,117.6470588,,,,,,,,,,,,,,,,e,1,0.5799,,,,,,乐观,e,,,0,71,71,14,1,,,,,,,,,,,,,,,,,,,,,,,,,,,,,,,,,,
,,,,,,,,,,,,,1,1,2025-01-02_11h27.01.859,IAT(Formal),2021.2.3,Win32,117.6470588,,,,,,,,,,,,,,,,e,1,0.4935,,,,,,诚实,e,,,0,72,72,15,1,,,,,,,,,,,,,,,,,,,,,,,,,,,,,,,,,,
,,,,,,,,,,,,,1,1,2025-01-02_11h27.01.859,IAT(Formal),2021.2.3,Win32,117.6470588,,,,,,,,,,,,,,,,e,1,0.8386,,,,,,俺,e,,,0,73,73,4,1,,,,,,,,,,,,,,,,,,,,,,,,,,,,,,,,,,
,,,,,,,,,,,,,1,1,2025-01-02_11h27.01.859,IAT(Formal),2021.2.3,Win32,117.6470588,,,,,,,,,,,,,,,,i,1,0.8864,,,,,,他,i,,,0,74,74,75,1,,,,,,,,,,,,,,,,,,,,,,,,,,,,,,,,,,
,,,,,,,,,,,,,1,1,2025-01-02_11h27.01.859,IAT(Formal),2021.2.3,Win32,117.6470588,,,,,,,,,,,,,,,,e,1,0.9739,,,,,,勤奋,e,,,0,75,75,18,1,,,,,,,,,,,,,,,,,,,,,,,,,,,,,,,,,,
,,,,,,,,,,,,,1,1,2025-01-02_11h27.01.859,IAT(Formal),2021.2.3,Win32,117.6470588,,,,,,,,,,,,,,,,e,1,0.6552,,,,,,我们,e,,,0,76,76,2,1,,,,,,,,,,,,,,,,,,,,,,,,,,,,,,,,,,
,,,,,,,,,,,,,1,1,2025-01-02_11h27.01.859,IAT(Formal),2021.2.3,Win32,117.6470588,,,,,,,,,,,,,,,,e,1,0.5591,,,,,,我,e,,,0,77,77,50,1,,,,,,,,,,,,,,,,,,,,,,,,,,,,,,,,,,
,,,,,,,,,,,,,1,1,2025-01-02_11h27.01.859,IAT(Formal),2021.2.3,Win32,117.6470588,,,,,,,,,,,,,,,,e,1,1.2605,,,,,,冷静,e,,,0,78,78,26,1,,,,,,,,,,,,,,,,,,,,,,,,,,,,,,,,,,
,,,,,,,,,,,,,1,1,2025-01-02_11h27.01.859,IAT(Formal),2021.2.3,Win32,117.6470588,,,,,,,,,,,,,,,,e,1,0.785,,,,,,我,e,,,0,79,79,70,1,,,,,,,,,,,,,,,,,,,,,,,,,,,,,,,,,,
,,,,,,,,,,,,,1,1,2025-01-02_11h27.01.859,IAT(Formal),2021.2.3,Win32,117.6470588,,,,,,,,,,,,,,,,e,1,0.6167,,,,,,朴实,e,,,1,0,80,24,1,,,,,,,,,,,,,,,,,,,,,,,,,,,,,,,,,,
,,,,,,,,,,,,,1,1,2025-01-02_11h27.01.859,IAT(Formal),2021.2.3,Win32,117.6470588,,,,,,,,,,,,,,,,e,1,0.6416,,,,,,乐观,e,,,1,1,81,14,1,,,,,,,,,,,,,,,,,,,,,,,,,,,,,,,,,,
,,,,,,,,,,,,,1,1,2025-01-02_11h27.01.859,IAT(Formal),2021.2.3,Win32,117.6470588,,,,,,,,,,,,,,,,i,1,0.8041,,,,,,他们,i,,,1,2,82,56,1,,,,,,,,,,,,,,,,,,,,,,,,,,,,,,,,,,
,,,,,,,,,,,,,1,1,2025-01-02_11h27.01.859,IAT(Formal),2021.2.3,Win32,117.6470588,,,,,,,,,,,,,,,,i,1,0.7223,,,,,,他的,i,,,1,3,83,57,1,,,,,,,,,,,,,,,,,,,,,,,,,,,,,,,,,,
,,,,,,,,,,,,,1,1,2025-01-02_11h27.01.859,IAT(Formal),2021.2.3,Win32,117.6470588,,,,,,,,,,,,,,,,e,1,0.6648,,,,,,我们,e,,,1,4,84,62,1,,,,,,,,,,,,,,,,,,,,,,,,,,,,,,,,,,
,,,,,,,,,,,,,1,1,2025-01-02_11h27.01.859,IAT(Formal),2021.2.3,Win32,117.6470588,,,,,,,,,,,,,,,,e,1,0.5448,,,,,,我们,e,,,1,5,85,2,1,,,,,,,,,,,,,,,,,,,,,,,,,,,,,,,,,,
,,,,,,,,,,,,,1,1,2025-01-02_11h27.01.859,IAT(Formal),2021.2.3,Win32,117.6470588,,,,,,,,,,,,,,,,i,1,0.6651,,,,,,他,i,,,1,6,86,65,1,,,,,,,,,,,,,,,,,,,,,,,,,,,,,,,,,,
,,,,,,,,,,,,,1,1,2025-01-02_11h27.01.859,IAT(Formal),2021.2.3,Win32,117.6470588,,,,,,,,,,,,,,,,e,0,1.2681,,,,,,其他,i,,,1,7,87,9,1,,,,,,,,,,,,,,,,,,,,,,,,,,,,,,,,,,
,,,,,,,,,,,,,1,1,2025-01-02_11h27.01.859,IAT(Formal),2021.2.3,Win32,117.6470588,,,,,,,,,,,,,,,,i,1,0.6017,,,,,,他,i,,,1,8,88,55,1,,,,,,,,,,,,,,,,,,,,,,,,,,,,,,,,,,
,,,,,,,,,,,,,1,1,2025-01-02_11h27.01.859,IAT(Formal),2021.2.3,Win32,117.6470588,,,,,,,,,,,,,,,,e,1,0.6803,,,,,,我们,e,,,1,9,89,72,1,,,,,,,,,,,,,,,,,,,,,,,,,,,,,,,,,,
,,,,,,,,,,,,,1,1,2025-01-02_11h27.01.859,IAT(Formal),2021.2.3,Win32,117.6470588,,,,,,,,,,,,,,,,e,1,0.6954,,,,,,俺,e,,,1,10,90,74,1,,,,,,,,,,,,,,,,,,,,,,,,,,,,,,,,,,
,,,,,,,,,,,,,1,1,2025-01-02_11h27.01.859,IAT(Formal),2021.2.3,Win32,117.6470588,,,,,,,,,,,,,,,,i,1,0.6587,,,,,,其他,i,,,1,11,91,69,1,,,,,,,,,,,,,,,,,,,,,,,,,,,,,,,,,,
,,,,,,,,,,,,,1,1,2025-01-02_11h27.01.859,IAT(Formal),2021.2.3,Win32,117.6470588,,,,,,,,,,,,,,,,e,1,0.7402,,,,,,冷静,e,,,1,12,92,26,1,,,,,,,,,,,,,,,,,,,,,,,,,,,,,,,,,,
,,,,,,,,,,,,,1,1,2025-01-02_11h27.01.859,IAT(Formal),2021.2.3,Win32,117.6470588,,,,,,,,,,,,,,,,e,1,0.5832,,,,,,聪明,e,,,1,13,93,12,1,,,,,,,,,,,,,,,,,,,,,,,,,,,,,,,,,,
,,,,,,,,,,,,,1,1,2025-01-02_11h27.01.859,IAT(Formal),2021.2.3,Win32,117.6470588,,,,,,,,,,,,,,,,e,1,0.5178,,,,,,勇敢,e,,,1,14,94,17,1,,,,,,,,,,,,,,,,,,,,,,,,,,,,,,,,,,
,,,,,,,,,,,,,1,1,2025-01-02_11h27.01.859,IAT(Formal),2021.2.3,Win32,117.6470588,,,,,,,,,,,,,,,,e,1,0.6751,,,,,,自己,e,,,1,15,95,3,1,,,,,,,,,,,,,,,,,,,,,,,,,,,,,,,,,,
,,,,,,,,,,,,,1,1,2025-01-02_11h27.01.859,IAT(Formal),2021.2.3,Win32,117.6470588,,,,,,,,,,,,,,,,i,1,1.1345,,,,,,他,i,,,1,16,96,5,1,,,,,,,,,,,,,,,,,,,,,,,,,,,,,,,,,,
,,,,,,,,,,,,,1,1,2025-01-02_11h27.01.859,IAT(Formal),2021.2.3,Win32,117.6470588,,,,,,,,,,,,,,,,e,1,0.6415,,,,,,崇高,e,,,1,17,97,11,1,,,,,,,,,,,,,,,,,,,,,,,,,,,,,,,,,,
,,,,,,,,,,,,,1,1,2025-01-02_11h27.01.859,IAT(Formal),2021.2.3,Win32,117.6470588,,,,,,,,,,,,,,,,e,1,0.578,,,,,,自己,e,,,1,18,98,73,1,,,,,,,,,,,,,,,,,,,,,,,,,,,,,,,,,,
,,,,,,,,,,,,,1,1,2025-01-02_11h27.01.859,IAT(Formal),2021.2.3,Win32,117.6470588,,,,,,,,,,,,,,,,i,1,0.6202,,,,,,他人,i,,,1,19,99,68,1,,,,,,,,,,,,,,,,,,,,,,,,,,,,,,,,,,
,,,,,,,,,,,,,1,1,2025-01-02_11h27.01.859,IAT(Formal),2021.2.3,Win32,117.6470588,,,,,,,,,,,,,,,,i,1,0.7254,,,,,,悲观,i,,,1,20,100,34,1,,,,,,,,,,,,,,,,,,,,,,,,,,,,,,,,,,
,,,,,,,,,,,,,1,1,2025-01-02_11h27.01.859,IAT(Formal),2021.2.3,Win32,117.6470588,,,,,,,,,,,,,,,,e,1,0.6574,,,,,,活泼,e,,,1,21,101,28,1,,,,,,,,,,,,,,,,,,,,,,,,,,,,,,,,,,
,,,,,,,,,,,,,1,1,2025-01-02_11h27.01.859,IAT(Formal),2021.2.3,Win32,117.6470588,,,,,,,,,,,,,,,,i,1,0.6167,,,,,,其他,i,,,1,22,102,79,1,,,,,,,,,,,,,,,,,,,,,,,,,,,,,,,,,,
,,,,,,,,,,,,,1,1,2025-01-02_11h27.01.859,IAT(Formal),2021.2.3,Win32,117.6470588,,,,,,,,,,,,,,,,e,1,0.5829,,,,,,我,e,,,1,23,103,60,1,,,,,,,,,,,,,,,,,,,,,,,,,,,,,,,,,,
,,,,,,,,,,,,,1,1,2025-01-02_11h27.01.859,IAT(Formal),2021.2.3,Win32,117.6470588,,,,,,,,,,,,,,,,i,1,0.805,,,,,,他的,i,,,1,24,104,7,1,,,,,,,,,,,,,,,,,,,,,,,,,,,,,,,,,,
,,,,,,,,,,,,,1,1,2025-01-02_11h27.01.859,IAT(Formal),2021.2.3,Win32,117.6470588,,,,,,,,,,,,,,,,i,1,0.7791,,,,,,虚伪,i,,,1,25,105,31,1,,,,,,,,,,,,,,,,,,,,,,,,,,,,,,,,,,
,,,,,,,,,,,,,1,1,2025-01-02_11h27.01.859,IAT(Formal),2021.2.3,Win32,117.6470588,,,,,,,,,,,,,,,,e,1,0.547,,,,,,俺,e,,,1,26,106,64,1,,,,,,,,,,,,,,,,,,,,,,,,,,,,,,,,,,
,,,,,,,,,,,,,1,1,2025-01-02_11h27.01.859,IAT(Formal),2021.2.3,Win32,117.6470588,,,,,,,,,,,,,,,,i,1,0.6993,,,,,,他们,i,,,1,27,107,6,1,,,,,,,,,,,,,,,,,,,,,,,,,,,,,,,,,,
,,,,,,,,,,,,,1,1,2025-01-02_11h27.01.859,IAT(Formal),2021.2.3,Win32,117.6470588,,,,,,,,,,,,,,,,e,1,0.6676,,,,,,我的,e,,,1,28,108,61,1,,,,,,,,,,,,,,,,,,,,,,,,,,,,,,,,,,
,,,,,,,,,,,,,1,1,2025-01-02_11h27.01.859,IAT(Formal),2021.2.3,Win32,117.6470588,,,,,,,,,,,,,,,,i,1,0.5674,,,,,,卑鄙,i,,,1,29,109,30,1,,,,,,,,,,,,,,,,,,,,,,,,,,,,,,,,,,
,,,,,,,,,,,,,1,1,2025-01-02_11h27.01.859,IAT(Formal),2021.2.3,Win32,117.6470588,,,,,,,,,,,,,,,,i,1,0.8737,,,,,,他人,i,,,1,30,110,8,1,,,,,,,,,,,,,,,,,,,,,,,,,,,,,,,,,,
,,,,,,,,,,,,,1,1,2025-01-02_11h27.01.859,IAT(Formal),2021.2.3,Win32,117.6470588,,,,,,,,,,,,,,,,i,1,0.5863,,,,,,下贱,i,,,1,31,111,49,1,,,,,,,,,,,,,,,,,,,,,,,,,,,,,,,,,,
,,,,,,,,,,,,,1,1,2025-01-02_11h27.01.859,IAT(Formal),2021.2.3,Win32,117.6470588,,,,,,,,,,,,,,,,i,0,0.618,,,,,,机智,e,,,1,32,112,19,1,,,,,,,,,,,,,,,,,,,,,,,,,,,,,,,,,,
,,,,,,,,,,,,,1,1,2025-01-02_11h27.01.859,IAT(Formal),2021.2.3,Win32,117.6470588,,,,,,,,,,,,,,,,e,1,0.5874,,,,,,我的,e,,,1,33,113,51,1,,,,,,,,,,,,,,,,,,,,,,,,,,,,,,,,,,
,,,,,,,,,,,,,1,1,2025-01-02_11h27.01.859,IAT(Formal),2021.2.3,Win32,117.6470588,,,,,,,,,,,,,,,,i,1,0.6008,,,,,,凶狠,i,,,1,34,114,42,1,,,,,,,,,,,,,,,,,,,,,,,,,,,,,,,,,,
,,,,,,,,,,,,,1,1,2025-01-02_11h27.01.859,IAT(Formal),2021.2.3,Win32,117.6470588,,,,,,,,,,,,,,,,e,1,0.7603,,,,,,认真,e,,,1,35,115,20,1,,,,,,,,,,,,,,,,,,,,,,,,,,,,,,,,,,
,,,,,,,,,,,,,1,1,2025-01-02_11h27.01.859,IAT(Formal),2021.2.3,Win32,117.6470588,,,,,,,,,,,,,,,,e,1,0.6511,,,,,,我们,e,,,1,36,116,52,1,,,,,,,,,,,,,,,,,,,,,,,,,,,,,,,,,,
,,,,,,,,,,,,,1,1,2025-01-02_11h27.01.859,IAT(Formal),2021.2.3,Win32,117.6470588,,,,,,,,,,,,,,,,i,1,0.8095,,,,,,野蛮,i,,,1,37,117,46,1,,,,,,,,,,,,,,,,,,,,,,,,,,,,,,,,,,
,,,,,,,,,,,,,1,1,2025-01-02_11h27.01.859,IAT(Formal),2021.2.3,Win32,117.6470588,,,,,,,,,,,,,,,,i,1,0.6353,,,,,,暴躁,i,,,1,38,118,44,1,,,,,,,,,,,,,,,,,,,,,,,,,,,,,,,,,,
,,,,,,,,,,,,,1,1,2025-01-02_11h27.01.859,IAT(Formal),2021.2.3,Win32,117.6470588,,,,,,,,,,,,,,,,i,0,0.7843,,,,,,勤奋,e,,,1,39,119,18,1,,,,,,,,,,,,,,,,,,,,,,,,,,,,,,,,,,
,,,,,,,,,,,,,1,1,2025-01-02_11h27.01.859,IAT(Formal),2021.2.3,Win32,117.6470588,,,,,,,,,,,,,,,,i,1,0.5774,,,,,,他人,i,,,1,40,120,78,1,,,,,,,,,,,,,,,,,,,,,,,,,,,,,,,,,,
,,,,,,,,,,,,,1,1,2025-01-02_11h27.01.859,IAT(Formal),2021.2.3,Win32,117.6470588,,,,,,,,,,,,,,,,e,1,0.8636,,,,,,杰出,e,,,1,41,121,13,1,,,,,,,,,,,,,,,,,,,,,,,,,,,,,,,,,,
,,,,,,,,,,,,,1,1,2025-01-02_11h27.01.859,IAT(Formal),2021.2.3,Win32,117.6470588,,,,,,,,,,,,,,,,i,1,0.7177,,,,,,他,i,,,1,42,122,75,1,,,,,,,,,,,,,,,,,,,,,,,,,,,,,,,,,,
,,,,,,,,,,,,,1,1,2025-01-02_11h27.01.859,IAT(Formal),2021.2.3,Win32,117.6470588,,,,,,,,,,,,,,,,i,1,0.7776,,,,,,愚蠢,i,,,1,43,123,32,1,,,,,,,,,,,,,,,,,,,,,,,,,,,,,,,,,,
,,,,,,,,,,,,,1,1,2025-01-02_11h27.01.859,IAT(Formal),2021.2.3,Win32,117.6470588,,,,,,,,,,,,,,,,i,1,0.7011,,,,,,刻薄,i,,,1,44,124,33,1,,,,,,,,,,,,,,,,,,,,,,,,,,,,,,,,,,
,,,,,,,,,,,,,1,1,2025-01-02_11h27.01.859,IAT(Formal),2021.2.3,Win32,117.6470588,,,,,,,,,,,,,,,,e,1,0.576,,,,,,公正,e,,,1,45,125,23,1,,,,,,,,,,,,,,,,,,,,,,,,,,,,,,,,,,
,,,,,,,,,,,,,1,1,2025-01-02_11h27.01.859,IAT(Formal),2021.2.3,Win32,117.6470588,,,,,,,,,,,,,,,,e,1,0.6926,,,,,,无私,e,,,1,46,126,22,1,,,,,,,,,,,,,,,,,,,,,,,,,,,,,,,,,,
,,,,,,,,,,,,,1,1,2025-01-02_11h27.01.859,IAT(Formal),2021.2.3,Win32,117.6470588,,,,,,,,,,,,,,,,i,1,0.7411,,,,,,轻率,i,,,1,47,127,48,1,,,,,,,,,,,,,,,,,,,,,,,,,,,,,,,,,,
,,,,,,,,,,,,,1,1,2025-01-02_11h27.01.859,IAT(Formal),2021.2.3,Win32,117.6470588,,,,,,,,,,,,,,,,e,1,0.6892,,,,,,我的,e,,,1,48,128,1,1,,,,,,,,,,,,,,,,,,,,,,,,,,,,,,,,,,
,,,,,,,,,,,,,1,1,2025-01-02_11h27.01.859,IAT(Formal),2021.2.3,Win32,117.6470588,,,,,,,,,,,,,,,,e,1,0.6252,,,,,,俺,e,,,1,49,129,4,1,,,,,,,,,,,,,,,,,,,,,,,,,,,,,,,,,,
,,,,,,,,,,,,,1,1,2025-01-02_11h27.01.859,IAT(Formal),2021.2.3,Win32,117.6470588,,,,,,,,,,,,,,,,i,1,0.7577,,,,,,他们,i,,,1,50,130,66,1,,,,,,,,,,,,,,,,,,,,,,,,,,,,,,,,,,
,,,,,,,,,,,,,1,1,2025-01-02_11h27.01.859,IAT(Formal),2021.2.3,Win32,117.6470588,,,,,,,,,,,,,,,,i,1,0.7257,,,,,,他的,i,,,1,51,131,77,1,,,,,,,,,,,,,,,,,,,,,,,,,,,,,,,,,,
,,,,,,,,,,,,,1,1,2025-01-02_11h27.01.859,IAT(Formal),2021.2.3,Win32,117.6470588,,,,,,,,,,,,,,,,e,1,0.6335,,,,,,诚恳,e,,,1,52,132,29,1,,,,,,,,,,,,,,,,,,,,,,,,,,,,,,,,,,
,,,,,,,,,,,,,1,1,2025-01-02_11h27.01.859,IAT(Formal),2021.2.3,Win32,117.6470588,,,,,,,,,,,,,,,,e,1,0.6932,,,,,,自己,e,,,1,53,133,53,1,,,,,,,,,,,,,,,,,,,,,,,,,,,,,,,,,,
,,,,,,,,,,,,,1,1,2025-01-02_11h27.01.859,IAT(Formal),2021.2.3,Win32,117.6470588,,,,,,,,,,,,,,,,i,1,0.658,,,,,,固执,i,,,1,54,134,47,1,,,,,,,,,,,,,,,,,,,,,,,,,,,,,,,,,,
,,,,,,,,,,,,,1,1,2025-01-02_11h27.01.859,IAT(Formal),2021.2.3,Win32,117.6470588,,,,,,,,,,,,,,,,e,0,0.9199,,,,,,自卑,i,,,1,55,135,36,1,,,,,,,,,,,,,,,,,,,,,,,,,,,,,,,,,,
,,,,,,,,,,,,,1,1,2025-01-02_11h27.01.859,IAT(Formal),2021.2.3,Win32,117.6470588,,,,,,,,,,,,,,,,i,0,0.5495,,,,,,正直,e,,,1,56,136,16,1,,,,,,,,,,,,,,,,,,,,,,,,,,,,,,,,,,
,,,,,,,,,,,,,1,1,2025-01-02_11h27.01.859,IAT(Formal),2021.2.3,Win32,117.6470588,,,,,,,,,,,,,,,,e,1,0.608,,,,,,优秀,e,,,1,57,137,10,1,,,,,,,,,,,,,,,,,,,,,,,,,,,,,,,,,,
,,,,,,,,,,,,,1,1,2025-01-02_11h27.01.859,IAT(Formal),2021.2.3,Win32,117.6470588,,,,,,,,,,,,,,,,e,1,0.6567,,,,,,稳重,e,,,1,58,138,21,1,,,,,,,,,,,,,,,,,,,,,,,,,,,,,,,,,,
,,,,,,,,,,,,,1,1,2025-01-02_11h27.01.859,IAT(Formal),2021.2.3,Win32,117.6470588,,,,,,,,,,,,,,,,e,1,0.6601,,,,,,热情,e,,,1,59,139,27,1,,,,,,,,,,,,,,,,,,,,,,,,,,,,,,,,,,
,,,,,,,,,,,,,1,1,2025-01-02_11h27.01.859,IAT(Formal),2021.2.3,Win32,117.6470588,,,,,,,,,,,,,,,,i,1,0.584,,,,,,他人,i,,,1,60,140,58,1,,,,,,,,,,,,,,,,,,,,,,,,,,,,,,,,,,
,,,,,,,,,,,,,1,1,2025-01-02_11h27.01.859,IAT(Formal),2021.2.3,Win32,117.6470588,,,,,,,,,,,,,,,,e,1,0.7661,,,,,,诚实,e,,,1,61,141,15,1,,,,,,,,,,,,,,,,,,,,,,,,,,,,,,,,,,
,,,,,,,,,,,,,1,1,2025-01-02_11h27.01.859,IAT(Formal),2021.2.3,Win32,117.6470588,,,,,,,,,,,,,,,,e,1,0.6997,,,,,,我的,e,,,1,62,142,71,1,,,,,,,,,,,,,,,,,,,,,,,,,,,,,,,,,,
,,,,,,,,,,,,,1,1,2025-01-02_11h27.01.859,IAT(Formal),2021.2.3,Win32,117.6470588,,,,,,,,,,,,,,,,e,1,0.5341,,,,,,我,e,,,1,63,143,70,1,,,,,,,,,,,,,,,,,,,,,,,,,,,,,,,,,,
,,,,,,,,,,,,,1,1,2025-01-02_11h27.01.859,IAT(Formal),2021.2.3,Win32,117.6470588,,,,,,,,,,,,,,,,i,1,0.9055,,,,,,他们,i,,,1,64,144,76,1,,,,,,,,,,,,,,,,,,,,,,,,,,,,,,,,,,
,,,,,,,,,,,,,1,1,2025-01-02_11h27.01.859,IAT(Formal),2021.2.3,Win32,117.6470588,,,,,,,,,,,,,,,,i,1,0.6593,,,,,,他的,i,,,1,65,145,67,1,,,,,,,,,,,,,,,,,,,,,,,,,,,,,,,,,,
,,,,,,,,,,,,,1,1,2025-01-02_11h27.01.859,IAT(Formal),2021.2.3,Win32,117.6470588,,,,,,,,,,,,,,,,,0,,,,,,,消极,i,,,1,66,146,35,1,,,,,,,,,,,,,,,,,,,,,,,,,,,,,,,,,,
,,,,,,,,,,,,,1,1,2025-01-02_11h27.01.859,IAT(Formal),2021.2.3,Win32,117.6470588,,,,,,,,,,,,,,,,i,1,0.5792,,,,,,散漫,i,,,1,67,147,41,1,,,,,,,,,,,,,,,,,,,,,,,,,,,,,,,,,,
,,,,,,,,,,,,,1,1,2025-01-02_11h27.01.859,IAT(Formal),2021.2.3,Win32,117.6470588,,,,,,,,,,,,,,,,e,1,0.6866,,,,,,我,e,,,1,68,148,0,1,,,,,,,,,,,,,,,,,,,,,,,,,,,,,,,,,,
,,,,,,,,,,,,,1,1,2025-01-02_11h27.01.859,IAT(Formal),2021.2.3,Win32,117.6470588,,,,,,,,,,,,,,,,e,1,0.6221,,,,,,自己,e,,,1,69,149,63,1,,,,,,,,,,,,,,,,,,,,,,,,,,,,,,,,,,
,,,,,,,,,,,,,1,1,2025-01-02_11h27.01.859,IAT(Formal),2021.2.3,Win32,117.6470588,,,,,,,,,,,,,,,,i,1,0.6729,,,,,,鲁莽,i,,,1,70,150,38,1,,,,,,,,,,,,,,,,,,,,,,,,,,,,,,,,,,
,,,,,,,,,,,,,1,1,2025-01-02_11h27.01.859,IAT(Formal),2021.2.3,Win32,117.6470588,,,,,,,,,,,,,,,,e,1,0.8965,,,,,,细腻,e,,,1,71,151,25,1,,,,,,,,,,,,,,,,,,,,,,,,,,,,,,,,,,
,,,,,,,,,,,,,1,1,2025-01-02_11h27.01.859,IAT(Formal),2021.2.3,Win32,117.6470588,,,,,,,,,,,,,,,,i,1,0.5798,,,,,,猖狂,i,,,1,72,152,45,1,,,,,,,,,,,,,,,,,,,,,,,,,,,,,,,,,,
,,,,,,,,,,,,,1,1,2025-01-02_11h27.01.859,IAT(Formal),2021.2.3,Win32,117.6470588,,,,,,,,,,,,,,,,e,0,1.009,,,,,,自私,i,,,1,73,153,43,1,,,,,,,,,,,,,,,,,,,,,,,,,,,,,,,,,,
,,,,,,,,,,,,,1,1,2025-01-02_11h27.01.859,IAT(Formal),2021.2.3,Win32,117.6470588,,,,,,,,,,,,,,,,,0,,,,,,,其他,i,,,1,74,154,59,1,,,,,,,,,,,,,,,,,,,,,,,,,,,,,,,,,,
,,,,,,,,,,,,,1,1,2025-01-02_11h27.01.859,IAT(Formal),2021.2.3,Win32,117.6470588,,,,,,,,,,,,,,,,i,0,0.7653,,,,,,俺,e,,,1,75,155,54,1,,,,,,,,,,,,,,,,,,,,,,,,,,,,,,,,,,
,,,,,,,,,,,,,1,1,2025-01-02_11h27.01.859,IAT(Formal),2021.2.3,Win32,117.6470588,,,,,,,,,,,,,,,,i,1,0.8912,,,,,,执拗,i,,,1,76,156,40,1,,,,,,,,,,,,,,,,,,,,,,,,,,,,,,,,,,
,,,,,,,,,,,,,1,1,2025-01-02_11h27.01.859,IAT(Formal),2021.2.3,Win32,117.6470588,,,,,,,,,,,,,,,,i,1,0.5446,,,,,,冒失,i,,,1,77,157,39,1,,,,,,,,,,,,,,,,,,,,,,,,,,,,,,,,,,
,,,,,,,,,,,,,1,1,2025-01-02_11h27.01.859,IAT(Formal),2021.2.3,Win32,117.6470588,,,,,,,,,,,,,,,,e,1,0.5853,,,,,,我,e,,,1,78,158,50,1,,,,,,,,,,,,,,,,,,,,,,,,,,,,,,,,,,
,,,,,,,,,,,,,1,1,2025-01-02_11h27.01.859,IAT(Formal),2021.2.3,Win32,117.6470588,,,,,,,,,,,,,,,,i,1,0.6418,,,,,,傲慢,i,,,1,79,159,37,1,,,,,,,,,,,,,,,,,,,,,,,,,,,,,,,,,,
,,,,,,,,,,,我们,i,1,1,2025-01-02_11h27.01.859,IAT(Formal),2021.2.3,Win32,117.6470588,,,,,,,,,,,,,,,,,,,,,,,,,,,,,,,,,space,4.249,,0,0,0,0,2,1,,,,,,,,,,,,,,,,,,,,,,,,,
,,,,,,,,,,,他人,e,1,1,2025-01-02_11h27.01.859,IAT(Formal),2021.2.3,Win32,117.6470588,,,,,,,,,,,,,,,,,,,,,,,,,,,,,,,,,,,e,1,0,1,1,8,1,0.7626,,,,,,,,,,,,,,,,,,,,,,,,
,,,,,,,,,,,他,e,1,1,2025-01-02_11h27.01.859,IAT(Formal),2021.2.3,Win32,117.6470588,,,,,,,,,,,,,,,,,,,,,,,,,,,,,,,,,,,,0,0,2,2,5,1,,,,,,,,,,,,,,,,,,,,,,,,,
,,,,,,,,,,,自己,i,1,1,2025-01-02_11h27.01.859,IAT(Formal),2021.2.3,Win32,117.6470588,,,,,,,,,,,,,,,,,,,,,,,,,,,,,,,,,,,i,1,0,3,3,3,1,0.9106,,,,,,,,,,,,,,,,,,,,,,,,
,,,,,,,,,,,他的,e,1,1,2025-01-02_11h27.01.859,IAT(Formal),2021.2.3,Win32,117.6470588,,,,,,,,,,,,,,,,,,,,,,,,,,,,,,,,,,,e,1,0,4,4,7,1,0.8842,,,,,,,,,,,,,,,,,,,,,,,,
,,,,,,,,,,,其他,e,1,1,2025-01-02_11h27.01.859,IAT(Formal),2021.2.3,Win32,117.6470588,,,,,,,,,,,,,,,,,,,,,,,,,,,,,,,,,,,e,1,0,5,5,9,1,0.6852,,,,,,,,,,,,,,,,,,,,,,,,
,,,,,,,,,,,俺,i,1,1,2025-01-02_11h27.01.859,IAT(Formal),2021.2.3,Win32,117.6470588,,,,,,,,,,,,,,,,,,,,,,,,,,,,,,,,,,,e,0,0,6,6,4,1,0.5329,,,,,,,,,,,,,,,,,,,,,,,,
,,,,,,,,,,,我的,i,1,1,2025-01-02_11h27.01.859,IAT(Formal),2021.2.3,Win32,117.6470588,,,,,,,,,,,,,,,,,,,,,,,,,,,,,,,,,,,i,1,0,7,7,1,1,0.7601,,,,,,,,,,,,,,,,,,,,,,,,
,,,,,,,,,,,我,i,1,1,2025-01-02_11h27.01.859,IAT(Formal),2021.2.3,Win32,117.6470588,,,,,,,,,,,,,,,,,,,,,,,,,,,,,,,,,,,i,1,0,8,8,0,1,0.6437,,,,,,,,,,,,,,,,,,,,,,,,
,,,,,,,,,,,他们,e,1,1,2025-01-02_11h27.01.859,IAT(Formal),2021.2.3,Win32,117.6470588,,,,,,,,,,,,,,,,,,,,,,,,,,,,,,,,,,,i,0,0,9,9,6,1,0.5323,,,,,,,,,,,,,,,,,,,,,,,,
,,,,,,,,,,,,,1,1,2025-01-02_11h27.01.859,IAT(Formal),2021.2.3,Win32,117.6470588,,,,,,,,,,,,,,,,,,,,,,,,,,,,,,,,,,,,,,,,,,,space,2.1522,,0,0,0,0,79,1,其他,e,,,,,,,,,,,,,
,,,,,,,,,,,,,1,1,2025-01-02_11h27.01.859,IAT(Formal),2021.2.3,Win32,117.6470588,,,,,,,,,,,,,,,,,,,,,,,,,,,,,,,,,,,,,,,,,,,,,i,0,0,1,1,12,1,聪明,e,1.1261,,,,,,,,,,,,
,,,,,,,,,,,,,1,1,2025-01-02_11h27.01.859,IAT(Formal),2021.2.3,Win32,117.6470588,,,,,,,,,,,,,,,,,,,,,,,,,,,,,,,,,,,,,,,,,,,,,i,1,0,2,2,51,1,我的,i,0.9182,,,,,,,,,,,,
,,,,,,,,,,,,,1,1,2025-01-02_11h27.01.859,IAT(Formal),2021.2.3,Win32,117.6470588,,,,,,,,,,,,,,,,,,,,,,,,,,,,,,,,,,,,,,,,,,,,,e,0,0,3,3,38,1,鲁莽,i,1.0428,,,,,,,,,,,,
,,,,,,,,,,,,,1,1,2025-01-02_11h27.01.859,IAT(Formal),2021.2.3,Win32,117.6470588,,,,,,,,,,,,,,,,,,,,,,,,,,,,,,,,,,,,,,,,,,,,,,0,0,4,4,34,1,悲观,i,,,,,,,,,,,,,
,,,,,,,,,,,,,1,1,2025-01-02_11h27.01.859,IAT(Formal),2021.2.3,Win32,117.6470588,,,,,,,,,,,,,,,,,,,,,,,,,,,,,,,,,,,,,,,,,,,,,i,1,0,5,5,47,1,固执,i,0.5222,,,,,,,,,,,,
,,,,,,,,,,,,,1,1,2025-01-02_11h27.01.859,IAT(Formal),2021.2.3,Win32,117.6470588,,,,,,,,,,,,,,,,,,,,,,,,,,,,,,,,,,,,,,,,,,,,,i,1,0,6,6,63,1,自己,i,0.6413,,,,,,,,,,,,
,,,,,,,,,,,,,1,1,2025-01-02_11h27.01.859,IAT(Formal),2021.2.3,Win32,117.6470588,,,,,,,,,,,,,,,,,,,,,,,,,,,,,,,,,,,,,,,,,,,,,i,1,0,7,7,44,1,暴躁,i,0.6092,,,,,,,,,,,,
,,,,,,,,,,,,,1,1,2025-01-02_11h27.01.859,IAT(Formal),2021.2.3,Win32,117.6470588,,,,,,,,,,,,,,,,,,,,,,,,,,,,,,,,,,,,,,,,,,,,,i,1,0,8,8,53,1,自己,i,0.6422,,,,,,,,,,,,
,,,,,,,,,,,,,1,1,2025-01-02_11h27.01.859,IAT(Formal),2021.2.3,Win32,117.6470588,,,,,,,,,,,,,,,,,,,,,,,,,,,,,,,,,,,,,,,,,,,,,i,0,0,9,9,29,1,诚恳,e,0.8236,,,,,,,,,,,,
,,,,,,,,,,,,,1,1,2025-01-02_11h27.01.859,IAT(Formal),2021.2.3,Win32,117.6470588,,,,,,,,,,,,,,,,,,,,,,,,,,,,,,,,,,,,,,,,,,,,,i,0,0,10,10,6,1,他们,e,0.7499,,,,,,,,,,,,
,,,,,,,,,,,,,1,1,2025-01-02_11h27.01.859,IAT(Formal),2021.2.3,Win32,117.6470588,,,,,,,,,,,,,,,,,,,,,,,,,,,,,,,,,,,,,,,,,,,,,i,1,0,11,11,3,1,自己,i,0.7845,,,,,,,,,,,,
,,,,,,,,,,,,,1,1,2025-01-02_11h27.01.859,IAT(Formal),2021.2.3,Win32,117.6470588,,,,,,,,,,,,,,,,,,,,,,,,,,,,,,,,,,,,,,,,,,,,,e,1,0,12,12,11,1,崇高,e,1.2609,,,,,,,,,,,,
,,,,,,,,,,,,,1,1,2025-01-02_11h27.01.859,IAT(Formal),2021.2.3,Win32,117.6470588,,,,,,,,,,,,,,,,,,,,,,,,,,,,,,,,,,,,,,,,,,,,,e,1,0,13,13,26,1,冷静,e,0.8608,,,,,,,,,,,,
,,,,,,,,,,,,,1,1,2025-01-02_11h27.01.859,IAT(Formal),2021.2.3,Win32,117.6470588,,,,,,,,,,,,,,,,,,,,,,,,,,,,,,,,,,,,,,,,,,,,,e,1,0,14,14,20,1,认真,e,0.5512,,,,,,,,,,,,
,,,,,,,,,,,,,1,1,2025-01-02_11h27.01.859,IAT(Formal),2021.2.3,Win32,117.6470588,,,,,,,,,,,,,,,,,,,,,,,,,,,,,,,,,,,,,,,,,,,,,i,0,0,15,15,7,1,他的,e,1.0002,,,,,,,,,,,,
,,,,,,,,,,,,,1,1,2025-01-02_11h27.01.859,IAT(Formal),2021.2.3,Win32,117.6470588,,,,,,,,,,,,,,,,,,,,,,,,,,,,,,,,,,,,,,,,,,,,,e,1,0,16,16,16,1,正直,e,0.8109,,,,,,,,,,,,
,,,,,,,,,,,,,1,1,2025-01-02_11h27.01.859,IAT(Formal),2021.2.3,Win32,117.6470588,,,,,,,,,,,,,,,,,,,,,,,,,,,,,,,,,,,,,,,,,,,,,e,0,0,17,17,0,1,我,i,0.6591,,,,,,,,,,,,
,,,,,,,,,,,,,1,1,2025-01-02_11h27.01.859,IAT(Formal),2021.2.3,Win32,117.6470588,,,,,,,,,,,,,,,,,,,,,,,,,,,,,,,,,,,,,,,,,,,,,e,1,0,18,18,55,1,他,e,0.9749,,,,,,,,,,,,
,,,,,,,,,,,,,1,1,2025-01-02_11h27.01.859,IAT(Formal),2021.2.3,Win32,117.6470588,,,,,,,,,,,,,,,,,,,,,,,,,,,,,,,,,,,,,,,,,,,,,e,1,0,19,19,77,1,他的,e,0.5703,,,,,,,,,,,,
,,,,,,,,,,,,,1,1,2025-01-02_11h27.01.859,IAT(Formal),2021.2.3,Win32,117.6470588,,,,,,,,,,,,,,,,,,,,,,,,,,,,,,,,,,,,,,,,,,,,,e,1,0,20,20,56,1,他们,e,0.4807,,,,,,,,,,,,
,,,,,,,,,,,,,1,1,2025-01-02_11h27.01.859,IAT(Formal),2021.2.3,Win32,117.6470588,,,,,,,,,,,,,,,,,,,,,,,,,,,,,,,,,,,,,,,,,,,,,e,1,0,21,21,66,1,他们,e,0.5773,,,,,,,,,,,,
,,,,,,,,,,,,,1,1,2025-01-02_11h27.01.859,IAT(Formal),2021.2.3,Win32,117.6470588,,,,,,,,,,,,,,,,,,,,,,,,,,,,,,,,,,,,,,,,,,,,,,0,0,22,22,41,1,散漫,i,,,,,,,,,,,,,
,,,,,,,,,,,,,1,1,2025-01-02_11h27.01.859,IAT(Formal),2021.2.3,Win32,117.6470588,,,,,,,,,,,,,,,,,,,,,,,,,,,,,,,,,,,,,,,,,,,,,i,1,0,23,23,70,1,我,i,0.9997,,,,,,,,,,,,
,,,,,,,,,,,,,1,1,2025-01-02_11h27.01.859,IAT(Formal),2021.2.3,Win32,117.6470588,,,,,,,,,,,,,,,,,,,,,,,,,,,,,,,,,,,,,,,,,,,,,i,1,0,24,24,1,1,我的,i,0.7497,,,,,,,,,,,,
,,,,,,,,,,,,,1,1,2025-01-02_11h27.01.859,IAT(Formal),2021.2.3,Win32,117.6470588,,,,,,,,,,,,,,,,,,,,,,,,,,,,,,,,,,,,,,,,,,,,,i,1,0,25,25,37,1,傲慢,i,0.5429,,,,,,,,,,,,
,,,,,,,,,,,,,1,1,2025-01-02_11h27.01.859,IAT(Formal),2021.2.3,Win32,117.6470588,,,,,,,,,,,,,,,,,,,,,,,,,,,,,,,,,,,,,,,,,,,,,e,1,0,26,26,78,1,他人,e,0.8781,,,,,,,,,,,,
,,,,,,,,,,,,,1,1,2025-01-02_11h27.01.859,IAT(Formal),2021.2.3,Win32,117.6470588,,,,,,,,,,,,,,,,,,,,,,,,,,,,,,,,,,,,,,,,,,,,,i,1,0,27,27,50,1,我,i,0.5499,,,,,,,,,,,,
,,,,,,,,,,,,,1,1,2025-01-02_11h27.01.859,IAT(Formal),2021.2.3,Win32,117.6470588,,,,,,,,,,,,,,,,,,,,,,,,,,,,,,,,,,,,,,,,,,,,,e,1,0,28,28,76,1,他们,e,0.9566,,,,,,,,,,,,
,,,,,,,,,,,,,1,1,2025-01-02_11h27.01.859,IAT(Formal),2021.2.3,Win32,117.6470588,,,,,,,,,,,,,,,,,,,,,,,,,,,,,,,,,,,,,,,,,,,,,e,1,0,29,29,59,1,其他,e,1.1813,,,,,,,,,,,,
,,,,,,,,,,,,,1,1,2025-01-02_11h27.01.859,IAT(Formal),2021.2.3,Win32,117.6470588,,,,,,,,,,,,,,,,,,,,,,,,,,,,,,,,,,,,,,,,,,,,,e,0,0,30,30,42,1,凶狠,i,0.8407,,,,,,,,,,,,
,,,,,,,,,,,,,1,1,2025-01-02_11h27.01.859,IAT(Formal),2021.2.3,Win32,117.6470588,,,,,,,,,,,,,,,,,,,,,,,,,,,,,,,,,,,,,,,,,,,,,i,1,0,31,31,72,1,我们,i,0.8247,,,,,,,,,,,,
,,,,,,,,,,,,,1,1,2025-01-02_11h27.01.859,IAT(Formal),2021.2.3,Win32,117.6470588,,,,,,,,,,,,,,,,,,,,,,,,,,,,,,,,,,,,,,,,,,,,,i,0,0,32,32,5,1,他,e,0.686,,,,,,,,,,,,
,,,,,,,,,,,,,1,1,2025-01-02_11h27.01.859,IAT(Formal),2021.2.3,Win32,117.6470588,,,,,,,,,,,,,,,,,,,,,,,,,,,,,,,,,,,,,,,,,,,,,i,0,0,33,33,14,1,乐观,e,0.8782,,,,,,,,,,,,
,,,,,,,,,,,,,1,1,2025-01-02_11h27.01.859,IAT(Formal),2021.2.3,Win32,117.6470588,,,,,,,,,,,,,,,,,,,,,,,,,,,,,,,,,,,,,,,,,,,,,e,0,0,34,34,73,1,自己,i,0.7199,,,,,,,,,,,,
,,,,,,,,,,,,,1,1,2025-01-02_11h27.01.859,IAT(Formal),2021.2.3,Win32,117.6470588,,,,,,,,,,,,,,,,,,,,,,,,,,,,,,,,,,,,,,,,,,,,,,0,0,35,35,49,1,下贱,i,,,,,,,,,,,,,
,,,,,,,,,,,,,1,1,2025-01-02_11h27.01.859,IAT(Formal),2021.2.3,Win32,117.6470588,,,,,,,,,,,,,,,,,,,,,,,,,,,,,,,,,,,,,,,,,,,,,e,1,0,36,36,27,1,热情,e,0.7253,,,,,,,,,,,,
,,,,,,,,,,,,,1,1,2025-01-02_11h27.01.859,IAT(Formal),2021.2.3,Win32,117.6470588,,,,,,,,,,,,,,,,,,,,,,,,,,,,,,,,,,,,,,,,,,,,,i,1,0,37,37,30,1,卑鄙,i,0.6671,,,,,,,,,,,,
,,,,,,,,,,,,,1,1,2025-01-02_11h27.01.859,IAT(Formal),2021.2.3,Win32,117.6470588,,,,,,,,,,,,,,,,,,,,,,,,,,,,,,,,,,,,,,,,,,,,,e,1,0,38,38,57,1,他的,e,0.7228,,,,,,,,,,,,
,,,,,,,,,,,,,1,1,2025-01-02_11h27.01.859,IAT(Formal),2021.2.3,Win32,117.6470588,,,,,,,,,,,,,,,,,,,,,,,,,,,,,,,,,,,,,,,,,,,,,e,1,0,39,39,67,1,他的,e,0.5236,,,,,,,,,,,,
,,,,,,,,,,,,,1,1,2025-01-02_11h27.01.859,IAT(Formal),2021.2.3,Win32,117.6470588,,,,,,,,,,,,,,,,,,,,,,,,,,,,,,,,,,,,,,,,,,,,,e,1,0,40,40,58,1,他人,e,0.5741,,,,,,,,,,,,
,,,,,,,,,,,,,1,1,2025-01-02_11h27.01.859,IAT(Formal),2021.2.3,Win32,117.6470588,,,,,,,,,,,,,,,,,,,,,,,,,,,,,,,,,,,,,,,,,,,,,i,1,0,41,41,71,1,我的,i,0.8262,,,,,,,,,,,,
,,,,,,,,,,,,,1,1,2025-01-02_11h27.01.859,IAT(Formal),2021.2.3,Win32,117.6470588,,,,,,,,,,,,,,,,,,,,,,,,,,,,,,,,,,,,,,,,,,,,,i,1,0,42,42,39,1,冒失,i,1.1075,,,,,,,,,,,,
,,,,,,,,,,,,,1,1,2025-01-02_11h27.01.859,IAT(Formal),2021.2.3,Win32,117.6470588,,,,,,,,,,,,,,,,,,,,,,,,,,,,,,,,,,,,,,,,,,,,,i,1,0,43,43,64,1,俺,i,1.0515,,,,,,,,,,,,
,,,,,,,,,,,,,1,1,2025-01-02_11h27.01.859,IAT(Formal),2021.2.3,Win32,117.6470588,,,,,,,,,,,,,,,,,,,,,,,,,,,,,,,,,,,,,,,,,,,,,e,1,0,44,44,68,1,他人,e,0.8974,,,,,,,,,,,,
,,,,,,,,,,,,,1,1,2025-01-02_11h27.01.859,IAT(Formal),2021.2.3,Win32,117.6470588,,,,,,,,,,,,,,,,,,,,,,,,,,,,,,,,,,,,,,,,,,,,,e,1,0,45,45,17,1,勇敢,e,1.0438,,,,,,,,,,,,
,,,,,,,,,,,,,1,1,2025-01-02_11h27.01.859,IAT(Formal),2021.2.3,Win32,117.6470588,,,,,,,,,,,,,,,,,,,,,,,,,,,,,,,,,,,,,,,,,,,,,i,0,0,46,46,69,1,其他,e,0.7401,,,,,,,,,,,,
,,,,,,,,,,,,,1,1,2025-01-02_11h27.01.859,IAT(Formal),2021.2.3,Win32,117.6470588,,,,,,,,,,,,,,,,,,,,,,,,,,,,,,,,,,,,,,,,,,,,,i,1,0,47,47,61,1,我的,i,0.6797,,,,,,,,,,,,
,,,,,,,,,,,,,1,1,2025-01-02_11h27.01.859,IAT(Formal),2021.2.3,Win32,117.6470588,,,,,,,,,,,,,,,,,,,,,,,,,,,,,,,,,,,,,,,,,,,,,e,1,0,48,48,75,1,他,e,0.5609,,,,,,,,,,,,
,,,,,,,,,,,,,1,1,2025-01-02_11h27.01.859,IAT(Formal),2021.2.3,Win32,117.6470588,,,,,,,,,,,,,,,,,,,,,,,,,,,,,,,,,,,,,,,,,,,,,e,1,0,49,49,23,1,公正,e,1.1339,,,,,,,,,,,,
,,,,,,,,,,,,,1,1,2025-01-02_11h27.01.859,IAT(Formal),2021.2.3,Win32,117.6470588,,,,,,,,,,,,,,,,,,,,,,,,,,,,,,,,,,,,,,,,,,,,,e,0,0,50,50,74,1,俺,i,0.4995,,,,,,,,,,,,
,,,,,,,,,,,,,1,1,2025-01-02_11h27.01.859,IAT(Formal),2021.2.3,Win32,117.6470588,,,,,,,,,,,,,,,,,,,,,,,,,,,,,,,,,,,,,,,,,,,,,i,1,0,51,51,40,1,执拗,i,0.3738,,,,,,,,,,,,
,,,,,,,,,,,,,1,1,2025-01-02_11h27.01.859,IAT(Formal),2021.2.3,Win32,117.6470588,,,,,,,,,,,,,,,,,,,,,,,,,,,,,,,,,,,,,,,,,,,,,i,1,0,52,52,2,1,我们,i,0.0138,,,,,,,,,,,,
,,,,,,,,,,,,,1,1,2025-01-02_11h27.01.859,IAT(Formal),2021.2.3,Win32,117.6470588,,,,,,,,,,,,,,,,,,,,,,,,,,,,,,,,,,,,,,,,,,,,,i,0,0,53,53,9,1,其他,e,0.0918,,,,,,,,,,,,
,,,,,,,,,,,,,1,1,2025-01-02_11h27.01.859,IAT(Formal),2021.2.3,Win32,117.6470588,,,,,,,,,,,,,,,,,,,,,,,,,,,,,,,,,,,,,,,,,,,,,e,1,0,54,54,24,1,朴实,e,0.0172,,,,,,,,,,,,
,,,,,,,,,,,,,1,1,2025-01-02_11h27.01.859,IAT(Formal),2021.2.3,Win32,117.6470588,,,,,,,,,,,,,,,,,,,,,,,,,,,,,,,,,,,,,,,,,,,,,e,1,0,55,55,28,1,活泼,e,0.002,,,,,,,,,,,,
,,,,,,,,,,,,,1,1,2025-01-02_11h27.01.859,IAT(Formal),2021.2.3,Win32,117.6470588,,,,,,,,,,,,,,,,,,,,,,,,,,,,,,,,,,,,,,,,,,,,,i,1,0,56,56,48,1,轻率,i,0.0259,,,,,,,,,,,,
,,,,,,,,,,,,,1,1,2025-01-02_11h27.01.859,IAT(Formal),2021.2.3,Win32,117.6470588,,,,,,,,,,,,,,,,,,,,,,,,,,,,,,,,,,,,,,,,,,,,,i,1,0,57,57,35,1,消极,i,0.1024,,,,,,,,,,,,
,,,,,,,,,,,,,1,1,2025-01-02_11h27.01.859,IAT(Formal),2021.2.3,Win32,117.6470588,,,,,,,,,,,,,,,,,,,,,,,,,,,,,,,,,,,,,,,,,,,,,i,1,0,58,58,46,1,野蛮,i,0.0901,,,,,,,,,,,,
,,,,,,,,,,,,,1,1,2025-01-02_11h27.01.859,IAT(Formal),2021.2.3,Win32,117.6470588,,,,,,,,,,,,,,,,,,,,,,,,,,,,,,,,,,,,,,,,,,,,,e,0,0,59,59,32,1,愚蠢,i,0.0237,,,,,,,,,,,,
,,,,,,,,,,,,,1,1,2025-01-02_11h27.01.859,IAT(Formal),2021.2.3,Win32,117.6470588,,,,,,,,,,,,,,,,,,,,,,,,,,,,,,,,,,,,,,,,,,,,,i,1,0,60,60,52,1,我们,i,0.0261,,,,,,,,,,,,
,,,,,,,,,,,,,1,1,2025-01-02_11h27.01.859,IAT(Formal),2021.2.3,Win32,117.6470588,,,,,,,,,,,,,,,,,,,,,,,,,,,,,,,,,,,,,,,,,,,,,i,0,0,61,61,15,1,诚实,e,0.1657,,,,,,,,,,,,
,,,,,,,,,,,,,1,1,2025-01-02_11h27.01.859,IAT(Formal),2021.2.3,Win32,117.6470588,,,,,,,,,,,,,,,,,,,,,,,,,,,,,,,,,,,,,,,,,,,,,i,0,0,62,62,25,1,细腻,e,0.0007,,,,,,,,,,,,
,,,,,,,,,,,,,1,1,2025-01-02_11h27.01.859,IAT(Formal),2021.2.3,Win32,117.6470588,,,,,,,,,,,,,,,,,,,,,,,,,,,,,,,,,,,,,,,,,,,,,i,0,0,63,63,19,1,机智,e,0.1094,,,,,,,,,,,,
,,,,,,,,,,,,,1,1,2025-01-02_11h27.01.859,IAT(Formal),2021.2.3,Win32,117.6470588,,,,,,,,,,,,,,,,,,,,,,,,,,,,,,,,,,,,,,,,,,,,,i,1,0,64,64,31,1,虚伪,i,0.0994,,,,,,,,,,,,
,,,,,,,,,,,,,1,1,2025-01-02_11h27.01.859,IAT(Formal),2021.2.3,Win32,117.6470588,,,,,,,,,,,,,,,,,,,,,,,,,,,,,,,,,,,,,,,,,,,,,e,1,0,65,65,13,1,杰出,e,0.0886,,,,,,,,,,,,
,,,,,,,,,,,,,1,1,2025-01-02_11h27.01.859,IAT(Formal),2021.2.3,Win32,117.6470588,,,,,,,,,,,,,,,,,,,,,,,,,,,,,,,,,,,,,,,,,,,,,i,0,0,66,66,65,1,他,e,0.0537,,,,,,,,,,,,
,,,,,,,,,,,,,1,1,2025-01-02_11h27.01.859,IAT(Formal),2021.2.3,Win32,117.6470588,,,,,,,,,,,,,,,,,,,,,,,,,,,,,,,,,,,,,,,,,,,,,i,0,0,67,67,22,1,无私,e,0.0956,,,,,,,,,,,,
,,,,,,,,,,,,,1,1,2025-01-02_11h27.01.859,IAT(Formal),2021.2.3,Win32,117.6470588,,,,,,,,,,,,,,,,,,,,,,,,,,,,,,,,,,,,,,,,,,,,,e,0,0,68,68,43,1,自私,i,0.0392,,,,,,,,,,,,
,,,,,,,,,,,,,1,1,2025-01-02_11h27.01.859,IAT(Formal),2021.2.3,Win32,117.6470588,,,,,,,,,,,,,,,,,,,,,,,,,,,,,,,,,,,,,,,,,,,,,i,1,0,69,69,33,1,刻薄,i,0.0012,,,,,,,,,,,,
,,,,,,,,,,,,,1,1,2025-01-02_11h27.01.859,IAT(Formal),2021.2.3,Win32,117.6470588,,,,,,,,,,,,,,,,,,,,,,,,,,,,,,,,,,,,,,,,,,,,,i,0,0,70,70,21,1,稳重,e,0.0653,,,,,,,,,,,,
,,,,,,,,,,,,,1,1,2025-01-02_11h27.01.859,IAT(Formal),2021.2.3,Win32,117.6470588,,,,,,,,,,,,,,,,,,,,,,,,,,,,,,,,,,,,,,,,,,,,,i,0,0,71,71,18,1,勤奋,e,0.1959,,,,,,,,,,,,
,,,,,,,,,,,,,1,1,2025-01-02_11h27.01.859,IAT(Formal),2021.2.3,Win32,117.6470588,,,,,,,,,,,,,,,,,,,,,,,,,,,,,,,,,,,,,,,,,,,,,e,0,0,72,72,4,1,俺,i,0.0691,,,,,,,,,,,,
,,,,,,,,,,,,,1,1,2025-01-02_11h27.01.859,IAT(Formal),2021.2.3,Win32,117.6470588,,,,,,,,,,,,,,,,,,,,,,,,,,,,,,,,,,,,,,,,,,,,,i,1,0,73,73,60,1,我,i,0.1186,,,,,,,,,,,,
,,,,,,,,,,,,,1,1,2025-01-02_11h27.01.859,IAT(Formal),2021.2.3,Win32,117.6470588,,,,,,,,,,,,,,,,,,,,,,,,,,,,,,,,,,,,,,,,,,,,,e,0,0,74,74,54,1,俺,i,0.2163,,,,,,,,,,,,
,,,,,,,,,,,,,1,1,2025-01-02_11h27.01.859,IAT(Formal),2021.2.3,Win32,117.6470588,,,,,,,,,,,,,,,,,,,,,,,,,,,,,,,,,,,,,,,,,,,,,i,1,0,75,75,36,1,自卑,i,0.0927,,,,,,,,,,,,
,,,,,,,,,,,,,1,1,2025-01-02_11h27.01.859,IAT(Formal),2021.2.3,Win32,117.6470588,,,,,,,,,,,,,,,,,,,,,,,,,,,,,,,,,,,,,,,,,,,,,e,0,0,76,76,45,1,猖狂,i,0.0936,,,,,,,,,,,,
,,,,,,,,,,,,,1,1,2025-01-02_11h27.01.859,IAT(Formal),2021.2.3,Win32,117.6470588,,,,,,,,,,,,,,,,,,,,,,,,,,,,,,,,,,,,,,,,,,,,,i,0,0,77,77,8,1,他人,e,0.0563,,,,,,,,,,,,
,,,,,,,,,,,,,1,1,2025-01-02_11h27.01.859,IAT(Formal),2021.2.3,Win32,117.6470588,,,,,,,,,,,,,,,,,,,,,,,,,,,,,,,,,,,,,,,,,,,,,i,0,0,78,78,10,1,优秀,e,0.0851,,,,,,,,,,,,
,,,,,,,,,,,,,1,1,2025-01-02_11h27.01.859,IAT(Formal),2021.2.3,Win32,117.6470588,,,,,,,,,,,,,,,,,,,,,,,,,,,,,,,,,,,,,,,,,,,,,e,0,0,79,79,62,1,我们,i,0.0084,,,,,,,,,,,,
,,,,,,,,,,,,,1,1,2025-01-02_11h27.01.859,IAT(Formal),2021.2.3,Win32,117.6470588,,,,,,,,,,,,,,,,,,,,,,,,,,,,,,,,,,,,,,,,,,,,,,,,,,,,他,e,,space,1.5701,i,0,0.9882,0,0,0,5,1,,
,,,,,,,,,,,,,1,1,2025-01-02_11h27.01.859,IAT(Formal),2021.2.3,Win32,117.6470588,,,,,,,,,,,,,,,,,,,,,,,,,,,,,,,,,,,,,,,,,,,,,,,,,,,,他,e,,,,i,0,0.2596,0,1,1,55,1,,
,,,,,,,,,,,,,1,1,2025-01-02_11h27.01.859,IAT(Formal),2021.2.3,Win32,117.6470588,,,,,,,,,,,,,,,,,,,,,,,,,,,,,,,,,,,,,,,,,,,,,,,,,,,,稳重,e,,,,e,1,0.017,0,2,2,21,1,,
,,,,,,,,,,,,,1,1,2025-01-02_11h27.01.859,IAT(Formal),2021.2.3,Win32,117.6470588,,,,,,,,,,,,,,,,,,,,,,,,,,,,,,,,,,,,,,,,,,,,,,,,,,,,朴实,e,,,,e,1,0.2078,0,3,3,24,1,,
,,,,,,,,,,,,,1,1,2025-01-02_11h27.01.859,IAT(Formal),2021.2.3,Win32,117.6470588,,,,,,,,,,,,,,,,,,,,,,,,,,,,,,,,,,,,,,,,,,,,,,,,,,,,杰出,e,,,,e,1,0.0369,0,4,4,13,1,,
,,,,,,,,,,,,,1,1,2025-01-02_11h27.01.859,IAT(Formal),2021.2.3,Win32,117.6470588,,,,,,,,,,,,,,,,,,,,,,,,,,,,,,,,,,,,,,,,,,,,,,,,,,,,俺,i,,,,i,1,0.1948,0,5,5,54,1,,
,,,,,,,,,,,,,1,1,2025-01-02_11h27.01.859,IAT(Formal),2021.2.3,Win32,117.6470588,,,,,,,,,,,,,,,,,,,,,,,,,,,,,,,,,,,,,,,,,,,,,,,,,,,,乐观,e,,,,i,0,0.1415,0,6,6,14,1,,
,,,,,,,,,,,,,1,1,2025-01-02_11h27.01.859,IAT(Formal),2021.2.3,Win32,117.6470588,,,,,,,,,,,,,,,,,,,,,,,,,,,,,,,,,,,,,,,,,,,,,,,,,,,,消极,i,,,,i,1,0.0007,0,7,7,35,1,,
,,,,,,,,,,,,,1,1,2025-01-02_11h27.01.859,IAT(Formal),2021.2.3,Win32,117.6470588,,,,,,,,,,,,,,,,,,,,,,,,,,,,,,,,,,,,,,,,,,,,,,,,,,,,我们,i,,,,i,1,0.0293,0,8,8,62,1,,
,,,,,,,,,,,,,1,1,2025-01-02_11h27.01.859,IAT(Formal),2021.2.3,Win32,117.6470588,,,,,,,,,,,,,,,,,,,,,,,,,,,,,,,,,,,,,,,,,,,,,,,,,,,,卑鄙,i,,,,i,1,0.0509,0,9,9,30,1,,
,,,,,,,,,,,,,1,1,2025-01-02_11h27.01.859,IAT(Formal),2021.2.3,Win32,117.6470588,,,,,,,,,,,,,,,,,,,,,,,,,,,,,,,,,,,,,,,,,,,,,,,,,,,,正直,e,,,,i,0,0.1846,0,10,10,16,1,,
,,,,,,,,,,,,,1,1,2025-01-02_11h27.01.859,IAT(Formal),2021.2.3,Win32,117.6470588,,,,,,,,,,,,,,,,,,,,,,,,,,,,,,,,,,,,,,,,,,,,,,,,,,,,我,i,,,,i,1,0.034,0,11,11,60,1,,
,,,,,,,,,,,,,1,1,2025-01-02_11h27.01.859,IAT(Formal),2021.2.3,Win32,117.6470588,,,,,,,,,,,,,,,,,,,,,,,,,,,,,,,,,,,,,,,,,,,,,,,,,,,,自卑,i,,,,i,1,0.1507,0,12,12,36,1,,
,,,,,,,,,,,,,1,1,2025-01-02_11h27.01.859,IAT(Formal),2021.2.3,Win32,117.6470588,,,,,,,,,,,,,,,,,,,,,,,,,,,,,,,,,,,,,,,,,,,,,,,,,,,,猖狂,i,,,,i,1,0.1672,0,13,13,45,1,,
,,,,,,,,,,,,,1,1,2025-01-02_11h27.01.859,IAT(Formal),2021.2.3,Win32,117.6470588,,,,,,,,,,,,,,,,,,,,,,,,,,,,,,,,,,,,,,,,,,,,,,,,,,,,其他,e,,,,i,0,0.0007,0,14,14,59,1,,
,,,,,,,,,,,,,1,1,2025-01-02_11h27.01.859,IAT(Formal),2021.2.3,Win32,117.6470588,,,,,,,,,,,,,,,,,,,,,,,,,,,,,,,,,,,,,,,,,,,,,,,,,,,,他人,e,,,,i,0,0.0412,0,15,15,8,1,,
,,,,,,,,,,,,,1,1,2025-01-02_11h27.01.859,IAT(Formal),2021.2.3,Win32,117.6470588,,,,,,,,,,,,,,,,,,,,,,,,,,,,,,,,,,,,,,,,,,,,,,,,,,,,他人,e,,,,i,0,0.0763,0,16,16,78,1,,
,,,,,,,,,,,,,1,1,2025-01-02_11h27.01.859,IAT(Formal),2021.2.3,Win32,117.6470588,,,,,,,,,,,,,,,,,,,,,,,,,,,,,,,,,,,,,,,,,,,,,,,,,,,,自私,i,,,,e,0,0.0988,0,17,17,43,1,,
,,,,,,,,,,,,,1,1,2025-01-02_11h27.01.859,IAT(Formal),2021.2.3,Win32,117.6470588,,,,,,,,,,,,,,,,,,,,,,,,,,,,,,,,,,,,,,,,,,,,,,,,,,,,认真,e,,,,i,0,0.0274,0,18,18,20,1,,
,,,,,,,,,,,,,1,1,2025-01-02_11h27.01.859,IAT(Formal),2021.2.3,Win32,117.6470588,,,,,,,,,,,,,,,,,,,,,,,,,,,,,,,,,,,,,,,,,,,,,,,,,,,,机智,e,,,,i,0,0.0492,0,19,19,19,1,,
,,,,,,,,,,,,,1,1,2025-01-02_11h27.01.859,IAT(Formal),2021.2.3,Win32,117.6470588,,,,,,,,,,,,,,,,,,,,,,,,,,,,,,,,,,,,,,,,,,,,,,,,,,,,自己,i,,,,e,0,0.0659,0,20,20,63,1,,
,,,,,,,,,,,,,1,1,2025-01-02_11h27.01.859,IAT(Formal),2021.2.3,Win32,117.6470588,,,,,,,,,,,,,,,,,,,,,,,,,,,,,,,,,,,,,,,,,,,,,,,,,,,,细腻,e,,,,i,0,0.0494,0,21,21,25,1,,
,,,,,,,,,,,,,1,1,2025-01-02_11h27.01.859,IAT(Formal),2021.2.3,Win32,117.6470588,,,,,,,,,,,,,,,,,,,,,,,,,,,,,,,,,,,,,,,,,,,,,,,,,,,,野蛮,i,,,,i,1,0.2452,0,22,22,46,1,,
,,,,,,,,,,,,,1,1,2025-01-02_11h27.01.859,IAT(Formal),2021.2.3,Win32,117.6470588,,,,,,,,,,,,,,,,,,,,,,,,,,,,,,,,,,,,,,,,,,,,,,,,,,,,活泼,e,,,,i,0,0.0507,0,23,23,28,1,,
,,,,,,,,,,,,,1,1,2025-01-02_11h27.01.859,IAT(Formal),2021.2.3,Win32,117.6470588,,,,,,,,,,,,,,,,,,,,,,,,,,,,,,,,,,,,,,,,,,,,,,,,,,,,我们,i,,,,i,1,0.0855,0,24,24,72,1,,
,,,,,,,,,,,,,1,1,2025-01-02_11h27.01.859,IAT(Formal),2021.2.3,Win32,117.6470588,,,,,,,,,,,,,,,,,,,,,,,,,,,,,,,,,,,,,,,,,,,,,,,,,,,,我的,i,,,,e,0,0.0391,0,25,25,71,1,,
,,,,,,,,,,,,,1,1,2025-01-02_11h27.01.859,IAT(Formal),2021.2.3,Win32,117.6470588,,,,,,,,,,,,,,,,,,,,,,,,,,,,,,,,,,,,,,,,,,,,,,,,,,,,诚恳,e,,,,e,1,0.1224,0,26,26,29,1,,
,,,,,,,,,,,,,1,1,2025-01-02_11h27.01.859,IAT(Formal),2021.2.3,Win32,117.6470588,,,,,,,,,,,,,,,,,,,,,,,,,,,,,,,,,,,,,,,,,,,,,,,,,,,,我,i,,,,i,1,0.134,0,27,27,70,1,,
,,,,,,,,,,,,,1,1,2025-01-02_11h27.01.859,IAT(Formal),2021.2.3,Win32,117.6470588,,,,,,,,,,,,,,,,,,,,,,,,,,,,,,,,,,,,,,,,,,,,,,,,,,,,他的,e,,,,i,0,0.196,0,28,28,7,1,,
,,,,,,,,,,,,,1,1,2025-01-02_11h27.01.859,IAT(Formal),2021.2.3,Win32,117.6470588,,,,,,,,,,,,,,,,,,,,,,,,,,,,,,,,,,,,,,,,,,,,,,,,,,,,我的,i,,,,i,1,0.4873,0,29,29,61,1,,
,,,,,,,,,,,,,1,1,2025-01-02_11h27.01.859,IAT(Formal),2021.2.3,Win32,117.6470588,,,,,,,,,,,,,,,,,,,,,,,,,,,,,,,,,,,,,,,,,,,,,,,,,,,,俺,i,,,,i,1,0.0672,0,30,30,64,1,,
,,,,,,,,,,,,,1,1,2025-01-02_11h27.01.859,IAT(Formal),2021.2.3,Win32,117.6470588,,,,,,,,,,,,,,,,,,,,,,,,,,,,,,,,,,,,,,,,,,,,,,,,,,,,勤奋,e,,,,i,0,0.1097,0,31,31,18,1,,
,,,,,,,,,,,,,1,1,2025-01-02_11h27.01.859,IAT(Formal),2021.2.3,Win32,117.6470588,,,,,,,,,,,,,,,,,,,,,,,,,,,,,,,,,,,,,,,,,,,,,,,,,,,,其他,e,,,,i,0,0.0767,0,32,32,69,1,,
,,,,,,,,,,,,,1,1,2025-01-02_11h27.01.859,IAT(Formal),2021.2.3,Win32,117.6470588,,,,,,,,,,,,,,,,,,,,,,,,,,,,,,,,,,,,,,,,,,,,,,,,,,,,自己,i,,,,i,1,0.0179,0,33,33,3,1,,
,,,,,,,,,,,,,1,1,2025-01-02_11h27.01.859,IAT(Formal),2021.2.3,Win32,117.6470588,,,,,,,,,,,,,,,,,,,,,,,,,,,,,,,,,,,,,,,,,,,,,,,,,,,,愚蠢,i,,,,i,1,0.1413,0,34,34,32,1,,
,,,,,,,,,,,,,1,1,2025-01-02_11h27.01.859,IAT(Formal),2021.2.3,Win32,117.6470588,,,,,,,,,,,,,,,,,,,,,,,,,,,,,,,,,,,,,,,,,,,,,,,,,,,,他的,e,,,,i,0,0.0014,0,35,35,67,1,,
,,,,,,,,,,,,,1,1,2025-01-02_11h27.01.859,IAT(Formal),2021.2.3,Win32,117.6470588,,,,,,,,,,,,,,,,,,,,,,,,,,,,,,,,,,,,,,,,,,,,,,,,,,,,俺,i,,,,e,0,0.0941,0,36,36,74,1,,
,,,,,,,,,,,,,1,1,2025-01-02_11h27.01.859,IAT(Formal),2021.2.3,Win32,117.6470588,,,,,,,,,,,,,,,,,,,,,,,,,,,,,,,,,,,,,,,,,,,,,,,,,,,,悲观,i,,,,i,1,0.0021,0,37,37,34,1,,
,,,,,,,,,,,,,1,1,2025-01-02_11h27.01.859,IAT(Formal),2021.2.3,Win32,117.6470588,,,,,,,,,,,,,,,,,,,,,,,,,,,,,,,,,,,,,,,,,,,,,,,,,,,,鲁莽,i,,,,i,1,0.1872,0,38,38,38,1,,
,,,,,,,,,,,,,1,1,2025-01-02_11h27.01.859,IAT(Formal),2021.2.3,Win32,117.6470588,,,,,,,,,,,,,,,,,,,,,,,,,,,,,,,,,,,,,,,,,,,,,,,,,,,,轻率,i,,,,i,1,0.1818,0,39,39,48,1,,
,,,,,,,,,,,,,1,1,2025-01-02_11h27.01.859,IAT(Formal),2021.2.3,Win32,117.6470588,,,,,,,,,,,,,,,,,,,,,,,,,,,,,,,,,,,,,,,,,,,,,,,,,,,,热情,e,,,,i,0,0.1234,0,40,40,27,1,,
,,,,,,,,,,,,,1,1,2025-01-02_11h27.01.859,IAT(Formal),2021.2.3,Win32,117.6470588,,,,,,,,,,,,,,,,,,,,,,,,,,,,,,,,,,,,,,,,,,,,,,,,,,,,其他,e,,,,e,1,0.2263,0,41,41,9,1,,
,,,,,,,,,,,,,1,1,2025-01-02_11h27.01.859,IAT(Formal),2021.2.3,Win32,117.6470588,,,,,,,,,,,,,,,,,,,,,,,,,,,,,,,,,,,,,,,,,,,,,,,,,,,,我们,i,,,,e,0,0.0809,0,42,42,2,1,,
,,,,,,,,,,,,,1,1,2025-01-02_11h27.01.859,IAT(Formal),2021.2.3,Win32,117.6470588,,,,,,,,,,,,,,,,,,,,,,,,,,,,,,,,,,,,,,,,,,,,,,,,,,,,俺,i,,,,i,1,0.1979,0,43,43,4,1,,
,,,,,,,,,,,,,1,1,2025-01-02_11h27.01.859,IAT(Formal),2021.2.3,Win32,117.6470588,,,,,,,,,,,,,,,,,,,,,,,,,,,,,,,,,,,,,,,,,,,,,,,,,,,,他们,e,,,,e,1,0.1227,0,44,44,56,1,,
,,,,,,,,,,,,,1,1,2025-01-02_11h27.01.859,IAT(Formal),2021.2.3,Win32,117.6470588,,,,,,,,,,,,,,,,,,,,,,,,,,,,,,,,,,,,,,,,,,,,,,,,,,,,他们,e,,,,i,0,0.0919,0,45,45,66,1,,
,,,,,,,,,,,,,1,1,2025-01-02_11h27.01.859,IAT(Formal),2021.2.3,Win32,117.6470588,,,,,,,,,,,,,,,,,,,,,,,,,,,,,,,,,,,,,,,,,,,,,,,,,,,,我的,i,,,,i,1,0.1669,0,46,46,1,1,,
,,,,,,,,,,,,,1,1,2025-01-02_11h27.01.859,IAT(Formal),2021.2.3,Win32,117.6470588,,,,,,,,,,,,,,,,,,,,,,,,,,,,,,,,,,,,,,,,,,,,,,,,,,,,傲慢,i,,,,e,0,0.0356,0,47,47,37,1,,
,,,,,,,,,,,,,1,1,2025-01-02_11h27.01.859,IAT(Formal),2021.2.3,Win32,117.6470588,,,,,,,,,,,,,,,,,,,,,,,,,,,,,,,,,,,,,,,,,,,,,,,,,,,,冒失,i,,,,i,1,0.1185,0,48,48,39,1,,
,,,,,,,,,,,,,1,1,2025-01-02_11h27.01.859,IAT(Formal),2021.2.3,Win32,117.6470588,,,,,,,,,,,,,,,,,,,,,,,,,,,,,,,,,,,,,,,,,,,,,,,,,,,,他人,e,,,,e,1,0.051,0,49,49,68,1,,
,,,,,,,,,,,,,1,1,2025-01-02_11h27.01.859,IAT(Formal),2021.2.3,Win32,117.6470588,,,,,,,,,,,,,,,,,,,,,,,,,,,,,,,,,,,,,,,,,,,,,,,,,,,,我,i,,,,e,0,0.1286,0,50,50,50,1,,
,,,,,,,,,,,,,1,1,2025-01-02_11h27.01.859,IAT(Formal),2021.2.3,Win32,117.6470588,,,,,,,,,,,,,,,,,,,,,,,,,,,,,,,,,,,,,,,,,,,,,,,,,,,,冷静,e,,,,i,0,0.1671,0,51,51,26,1,,
,,,,,,,,,,,,,1,1,2025-01-02_11h27.01.859,IAT(Formal),2021.2.3,Win32,117.6470588,,,,,,,,,,,,,,,,,,,,,,,,,,,,,,,,,,,,,,,,,,,,,,,,,,,,他的,e,,,,e,1,0.187,0,52,52,77,1,,
,,,,,,,,,,,,,1,1,2025-01-02_11h27.01.859,IAT(Formal),2021.2.3,Win32,117.6470588,,,,,,,,,,,,,,,,,,,,,,,,,,,,,,,,,,,,,,,,,,,,,,,,,,,,诚实,e,,,,i,0,0.0964,0,53,53,15,1,,
,,,,,,,,,,,,,1,1,2025-01-02_11h27.01.859,IAT(Formal),2021.2.3,Win32,117.6470588,,,,,,,,,,,,,,,,,,,,,,,,,,,,,,,,,,,,,,,,,,,,,,,,,,,,凶狠,i,,,,e,0,0.1427,0,54,54,42,1,,
,,,,,,,,,,,,,1,1,2025-01-02_11h27.01.859,IAT(Formal),2021.2.3,Win32,117.6470588,,,,,,,,,,,,,,,,,,,,,,,,,,,,,,,,,,,,,,,,,,,,,,,,,,,,执拗,i,,,,i,1,0.1696,0,55,55,40,1,,
,,,,,,,,,,,,,1,1,2025-01-02_11h27.01.859,IAT(Formal),2021.2.3,Win32,117.6470588,,,,,,,,,,,,,,,,,,,,,,,,,,,,,,,,,,,,,,,,,,,,,,,,,,,,我的,i,,,,e,0,0.017,0,56,56,51,1,,
,,,,,,,,,,,,,1,1,2025-01-02_11h27.01.859,IAT(Formal),2021.2.3,Win32,117.6470588,,,,,,,,,,,,,,,,,,,,,,,,,,,,,,,,,,,,,,,,,,,,,,,,,,,,公正,e,,,,e,1,0.1248,0,57,57,23,1,,
,,,,,,,,,,,,,1,1,2025-01-02_11h27.01.859,IAT(Formal),2021.2.3,Win32,117.6470588,,,,,,,,,,,,,,,,,,,,,,,,,,,,,,,,,,,,,,,,,,,,,,,,,,,,暴躁,i,,,,e,0,0.1148,0,58,58,44,1,,
,,,,,,,,,,,,,1,1,2025-01-02_11h27.01.859,IAT(Formal),2021.2.3,Win32,117.6470588,,,,,,,,,,,,,,,,,,,,,,,,,,,,,,,,,,,,,,,,,,,,,,,,,,,,虚伪,i,,,,e,0,0.1732,0,59,59,31,1,,
,,,,,,,,,,,,,1,1,2025-01-02_11h27.01.859,IAT(Formal),2021.2.3,Win32,117.6470588,,,,,,,,,,,,,,,,,,,,,,,,,,,,,,,,,,,,,,,,,,,,,,,,,,,,勇敢,e,,,,e,1,0.0334,0,60,60,17,1,,
,,,,,,,,,,,,,1,1,2025-01-02_11h27.01.859,IAT(Formal),2021.2.3,Win32,117.6470588,,,,,,,,,,,,,,,,,,,,,,,,,,,,,,,,,,,,,,,,,,,,,,,,,,,,优秀,e,,,,i,0,0.0576,0,61,61,10,1,,
,,,,,,,,,,,,,1,1,2025-01-02_11h27.01.859,IAT(Formal),2021.2.3,Win32,117.6470588,,,,,,,,,,,,,,,,,,,,,,,,,,,,,,,,,,,,,,,,,,,,,,,,,,,,他们,e,,,,i,0,0.1489,0,62,62,6,1,,
,,,,,,,,,,,,,1,1,2025-01-02_11h27.01.859,IAT(Formal),2021.2.3,Win32,117.6470588,,,,,,,,,,,,,,,,,,,,,,,,,,,,,,,,,,,,,,,,,,,,,,,,,,,,自己,i,,,,i,1,0.0442,0,63,63,53,1,,
,,,,,,,,,,,,,1,1,2025-01-02_11h27.01.859,IAT(Formal),2021.2.3,Win32,117.6470588,,,,,,,,,,,,,,,,,,,,,,,,,,,,,,,,,,,,,,,,,,,,,,,,,,,,刻薄,i,,,,e,0,0.0479,0,64,64,33,1,,
,,,,,,,,,,,,,1,1,2025-01-02_11h27.01.859,IAT(Formal),2021.2.3,Win32,117.6470588,,,,,,,,,,,,,,,,,,,,,,,,,,,,,,,,,,,,,,,,,,,,,,,,,,,,自己,i,,,,e,0,0.0511,0,65,65,73,1,,
,,,,,,,,,,,,,1,1,2025-01-02_11h27.01.859,IAT(Formal),2021.2.3,Win32,117.6470588,,,,,,,,,,,,,,,,,,,,,,,,,,,,,,,,,,,,,,,,,,,,,,,,,,,,下贱,i,,,,i,1,0.0292,0,66,66,49,1,,
,,,,,,,,,,,,,1,1,2025-01-02_11h27.01.859,IAT(Formal),2021.2.3,Win32,117.6470588,,,,,,,,,,,,,,,,,,,,,,,,,,,,,,,,,,,,,,,,,,,,,,,,,,,,他,e,,,,i,0,0.1408,0,67,67,75,1,,
,,,,,,,,,,,,,1,1,2025-01-02_11h27.01.859,IAT(Formal),2021.2.3,Win32,117.6470588,,,,,,,,,,,,,,,,,,,,,,,,,,,,,,,,,,,,,,,,,,,,,,,,,,,,崇高,e,,,,i,0,0.0239,0,68,68,11,1,,
,,,,,,,,,,,,,1,1,2025-01-02_11h27.01.859,IAT(Formal),2021.2.3,Win32,117.6470588,,,,,,,,,,,,,,,,,,,,,,,,,,,,,,,,,,,,,,,,,,,,,,,,,,,,他们,e,,,,i,0,0.0737,0,69,69,76,1,,
,,,,,,,,,,,,,1,1,2025-01-02_11h27.01.859,IAT(Formal),2021.2.3,Win32,117.6470588,,,,,,,,,,,,,,,,,,,,,,,,,,,,,,,,,,,,,,,,,,,,,,,,,,,,我们,i,,,,i,1,0.0091,0,70,70,52,1,,
,,,,,,,,,,,,,1,1,2025-01-02_11h27.01.859,IAT(Formal),2021.2.3,Win32,117.6470588,,,,,,,,,,,,,,,,,,,,,,,,,,,,,,,,,,,,,,,,,,,,,,,,,,,,散漫,i,,,,i,1,0.0609,0,71,71,41,1,,
,,,,,,,,,,,,,1,1,2025-01-02_11h27.01.859,IAT(Formal),2021.2.3,Win32,117.6470588,,,,,,,,,,,,,,,,,,,,,,,,,,,,,,,,,,,,,,,,,,,,,,,,,,,,固执,i,,,,i,1,0.1343,0,72,72,47,1,,
,,,,,,,,,,,,,1,1,2025-01-02_11h27.01.859,IAT(Formal),2021.2.3,Win32,117.6470588,,,,,,,,,,,,,,,,,,,,,,,,,,,,,,,,,,,,,,,,,,,,,,,,,,,,我,i,,,,i,1,0.1261,0,73,73,0,1,,
,,,,,,,,,,,,,1,1,2025-01-02_11h27.01.859,IAT(Formal),2021.2.3,Win32,117.6470588,,,,,,,,,,,,,,,,,,,,,,,,,,,,,,,,,,,,,,,,,,,,,,,,,,,,他的,e,,,,i,0,0.0045,0,74,74,57,1,,
,,,,,,,,,,,,,1,1,2025-01-02_11h27.01.859,IAT(Formal),2021.2.3,Win32,117.6470588,,,,,,,,,,,,,,,,,,,,,,,,,,,,,,,,,,,,,,,,,,,,,,,,,,,,他,e,,,,e,1,0.1666,0,75,75,65,1,,
,,,,,,,,,,,,,1,1,2025-01-02_11h27.01.859,IAT(Formal),2021.2.3,Win32,117.6470588,,,,,,,,,,,,,,,,,,,,,,,,,,,,,,,,,,,,,,,,,,,,,,,,,,,,他人,e,,,,e,1,0.2075,0,76,76,58,1,,
,,,,,,,,,,,,,1,1,2025-01-02_11h27.01.859,IAT(Formal),2021.2.3,Win32,117.6470588,,,,,,,,,,,,,,,,,,,,,,,,,,,,,,,,,,,,,,,,,,,,,,,,,,,,聪明,e,,,,e,1,0.0242,0,77,77,12,1,,
,,,,,,,,,,,,,1,1,2025-01-02_11h27.01.859,IAT(Formal),2021.2.3,Win32,117.6470588,,,,,,,,,,,,,,,,,,,,,,,,,,,,,,,,,,,,,,,,,,,,,,,,,,,,无私,e,,,,e,1,0.0575,0,78,78,22,1,,
,,,,,,,,,,,,,1,1,2025-01-02_11h27.01.859,IAT(Formal),2021.2.3,Win32,117.6470588,,,,,,,,,,,,,,,,,,,,,,,,,,,,,,,,,,,,,,,,,,,,,,,,,,,,其他,e,,,,e,1,0.0428,0,79,79,79,1,,
,,,,,,,,,,,,,1,1,2025-01-02_11h27.01.859,IAT(Formal),2021.2.3,Win32,117.6470588,,,,,,,,,,,,,,,,,,,,,,,,,,,,,,,,,,,,,,,,,,,,,,,,,,,,杰出,e,,,,e,1,0.1584,1,0,80,13,1,,
,,,,,,,,,,,,,1,1,2025-01-02_11h27.01.859,IAT(Formal),2021.2.3,Win32,117.6470588,,,,,,,,,,,,,,,,,,,,,,,,,,,,,,,,,,,,,,,,,,,,,,,,,,,,优秀,e,,,,e,1,0.1747,1,1,81,10,1,,
,,,,,,,,,,,,,1,1,2025-01-02_11h27.01.859,IAT(Formal),2021.2.3,Win32,117.6470588,,,,,,,,,,,,,,,,,,,,,,,,,,,,,,,,,,,,,,,,,,,,,,,,,,,,他们,e,,,,e,1,0.158,1,2,82,66,1,,
,,,,,,,,,,,,,1,1,2025-01-02_11h27.01.859,IAT(Formal),2021.2.3,Win32,117.6470588,,,,,,,,,,,,,,,,,,,,,,,,,,,,,,,,,,,,,,,,,,,,,,,,,,,,下贱,i,,,,e,0,0.0909,1,3,83,49,1,,
,,,,,,,,,,,,,1,1,2025-01-02_11h27.01.859,IAT(Formal),2021.2.3,Win32,117.6470588,,,,,,,,,,,,,,,,,,,,,,,,,,,,,,,,,,,,,,,,,,,,,,,,,,,,诚实,e,,,,i,0,0.0999,1,4,84,15,1,,
,,,,,,,,,,,,,1,1,2025-01-02_11h27.01.859,IAT(Formal),2021.2.3,Win32,117.6470588,,,,,,,,,,,,,,,,,,,,,,,,,,,,,,,,,,,,,,,,,,,,,,,,,,,,认真,e,,,,i,0,0.0423,1,5,85,20,1,,
,,,,,,,,,,,,,1,1,2025-01-02_11h27.01.859,IAT(Formal),2021.2.3,Win32,117.6470588,,,,,,,,,,,,,,,,,,,,,,,,,,,,,,,,,,,,,,,,,,,,,,,,,,,,我的,i,,,,i,1,0.0577,1,6,86,71,1,,
,,,,,,,,,,,,,1,1,2025-01-02_11h27.01.859,IAT(Formal),2021.2.3,Win32,117.6470588,,,,,,,,,,,,,,,,,,,,,,,,,,,,,,,,,,,,,,,,,,,,,,,,,,,,他人,e,,,,i,0,0.1348,1,7,87,68,1,,
,,,,,,,,,,,,,1,1,2025-01-02_11h27.01.859,IAT(Formal),2021.2.3,Win32,117.6470588,,,,,,,,,,,,,,,,,,,,,,,,,,,,,,,,,,,,,,,,,,,,,,,,,,,,他们,e,,,,e,1,0.1742,1,8,88,56,1,,
,,,,,,,,,,,,,1,1,2025-01-02_11h27.01.859,IAT(Formal),2021.2.3,Win32,117.6470588,,,,,,,,,,,,,,,,,,,,,,,,,,,,,,,,,,,,,,,,,,,,,,,,,,,,悲观,i,,,,e,0,0.134,1,9,89,34,1,,
,,,,,,,,,,,,,1,1,2025-01-02_11h27.01.859,IAT(Formal),2021.2.3,Win32,117.6470588,,,,,,,,,,,,,,,,,,,,,,,,,,,,,,,,,,,,,,,,,,,,,,,,,,,,他们,e,,,,e,1,0.0992,1,10,90,6,1,,
,,,,,,,,,,,,,1,1,2025-01-02_11h27.01.859,IAT(Formal),2021.2.3,Win32,117.6470588,,,,,,,,,,,,,,,,,,,,,,,,,,,,,,,,,,,,,,,,,,,,,,,,,,,,无私,e,,,,e,1,0.2841,1,11,91,22,1,,
,,,,,,,,,,,,,1,1,2025-01-02_11h27.01.859,IAT(Formal),2021.2.3,Win32,117.6470588,,,,,,,,,,,,,,,,,,,,,,,,,,,,,,,,,,,,,,,,,,,,,,,,,,,,我的,i,,,,e,0,0.036,1,12,92,51,1,,
,,,,,,,,,,,,,1,1,2025-01-02_11h27.01.859,IAT(Formal),2021.2.3,Win32,117.6470588,,,,,,,,,,,,,,,,,,,,,,,,,,,,,,,,,,,,,,,,,,,,,,,,,,,,稳重,e,,,,e,1,0.0167,1,13,93,21,1,,
,,,,,,,,,,,,,1,1,2025-01-02_11h27.01.859,IAT(Formal),2021.2.3,Win32,117.6470588,,,,,,,,,,,,,,,,,,,,,,,,,,,,,,,,,,,,,,,,,,,,,,,,,,,,虚伪,i,,,,e,0,0.1256,1,14,94,31,1,,
,,,,,,,,,,,,,1,1,2025-01-02_11h27.01.859,IAT(Formal),2021.2.3,Win32,117.6470588,,,,,,,,,,,,,,,,,,,,,,,,,,,,,,,,,,,,,,,,,,,,,,,,,,,,他,e,,,,e,1,0.2178,1,15,95,55,1,,
,,,,,,,,,,,,,1,1,2025-01-02_11h27.01.859,IAT(Formal),2021.2.3,Win32,117.6470588,,,,,,,,,,,,,,,,,,,,,,,,,,,,,,,,,,,,,,,,,,,,,,,,,,,,我,i,,,,e,0,0.285,1,16,96,70,1,,
,,,,,,,,,,,,,1,1,2025-01-02_11h27.01.859,IAT(Formal),2021.2.3,Win32,117.6470588,,,,,,,,,,,,,,,,,,,,,,,,,,,,,,,,,,,,,,,,,,,,,,,,,,,,他的,e,,,,e,1,0.0259,1,17,97,7,1,,
,,,,,,,,,,,,,1,1,2025-01-02_11h27.01.859,IAT(Formal),2021.2.3,Win32,117.6470588,,,,,,,,,,,,,,,,,,,,,,,,,,,,,,,,,,,,,,,,,,,,,,,,,,,,他的,e,,,,e,1,0.2492,1,18,98,77,1,,
,,,,,,,,,,,,,1,1,2025-01-02_11h27.01.859,IAT(Formal),2021.2.3,Win32,117.6470588,,,,,,,,,,,,,,,,,,,,,,,,,,,,,,,,,,,,,,,,,,,,,,,,,,,,凶狠,i,,,,e,0,0.1264,1,19,99,42,1,,
,,,,,,,,,,,,,1,1,2025-01-02_11h27.01.859,IAT(Formal),2021.2.3,Win32,117.6470588,,,,,,,,,,,,,,,,,,,,,,,,,,,,,,,,,,,,,,,,,,,,,,,,,,,,聪明,e,,,,e,1,0.0017,1,20,100,12,1,,
,,,,,,,,,,,,,1,1,2025-01-02_11h27.01.859,IAT(Formal),2021.2.3,Win32,117.6470588,,,,,,,,,,,,,,,,,,,,,,,,,,,,,,,,,,,,,,,,,,,,,,,,,,,,活泼,e,,,,e,1,0.0066,1,21,101,28,1,,
,,,,,,,,,,,,,1,1,2025-01-02_11h27.01.859,IAT(Formal),2021.2.3,Win32,117.6470588,,,,,,,,,,,,,,,,,,,,,,,,,,,,,,,,,,,,,,,,,,,,,,,,,,,,自私,i,,,,e,0,0.026,1,22,102,43,1,,
,,,,,,,,,,,,,1,1,2025-01-02_11h27.01.859,IAT(Formal),2021.2.3,Win32,117.6470588,,,,,,,,,,,,,,,,,,,,,,,,,,,,,,,,,,,,,,,,,,,,,,,,,,,,乐观,e,,,,e,1,0.2419,1,23,103,14,1,,
,,,,,,,,,,,,,1,1,2025-01-02_11h27.01.859,IAT(Formal),2021.2.3,Win32,117.6470588,,,,,,,,,,,,,,,,,,,,,,,,,,,,,,,,,,,,,,,,,,,,,,,,,,,,其他,e,,,,e,1,1.1011,1,24,104,69,1,,
,,,,,,,,,,,,,1,1,2025-01-02_11h27.01.859,IAT(Formal),2021.2.3,Win32,117.6470588,,,,,,,,,,,,,,,,,,,,,,,,,,,,,,,,,,,,,,,,,,,,,,,,,,,,公正,e,,,,e,1,0.042,1,25,105,23,1,,
,,,,,,,,,,,,,1,1,2025-01-02_11h27.01.859,IAT(Formal),2021.2.3,Win32,117.6470588,,,,,,,,,,,,,,,,,,,,,,,,,,,,,,,,,,,,,,,,,,,,,,,,,,,,俺,i,,,,,0,,1,26,106,64,1,,
,,,,,,,,,,,,,1,1,2025-01-02_11h27.01.859,IAT(Formal),2021.2.3,Win32,117.6470588,,,,,,,,,,,,,,,,,,,,,,,,,,,,,,,,,,,,,,,,,,,,,,,,,,,,傲慢,i,,,,e,0,0.3902,1,27,107,37,1,,
,,,,,,,,,,,,,1,1,2025-01-02_11h27.01.859,IAT(Formal),2021.2.3,Win32,117.6470588,,,,,,,,,,,,,,,,,,,,,,,,,,,,,,,,,,,,,,,,,,,,,,,,,,,,我们,i,,,,e,0,0.0192,1,28,108,2,1,,
,,,,,,,,,,,,,1,1,2025-01-02_11h27.01.859,IAT(Formal),2021.2.3,Win32,117.6470588,,,,,,,,,,,,,,,,,,,,,,,,,,,,,,,,,,,,,,,,,,,,,,,,,,,,其他,e,,,,e,1,0.259,1,29,109,9,1,,
,,,,,,,,,,,,,1,1,2025-01-02_11h27.01.859,IAT(Formal),2021.2.3,Win32,117.6470588,,,,,,,,,,,,,,,,,,,,,,,,,,,,,,,,,,,,,,,,,,,,,,,,,,,,散漫,i,,,,e,0,0.308,1,30,110,41,1,,
,,,,,,,,,,,,,1,1,2025-01-02_11h27.01.859,IAT(Formal),2021.2.3,Win32,117.6470588,,,,,,,,,,,,,,,,,,,,,,,,,,,,,,,,,,,,,,,,,,,,,,,,,,,,鲁莽,i,,,,e,0,0.1917,1,31,111,38,1,,
,,,,,,,,,,,,,1,1,2025-01-02_11h27.01.859,IAT(Formal),2021.2.3,Win32,117.6470588,,,,,,,,,,,,,,,,,,,,,,,,,,,,,,,,,,,,,,,,,,,,,,,,,,,,我,i,,,,e,0,0.3914,1,32,112,0,1,,
,,,,,,,,,,,,,1,1,2025-01-02_11h27.01.859,IAT(Formal),2021.2.3,Win32,117.6470588,,,,,,,,,,,,,,,,,,,,,,,,,,,,,,,,,,,,,,,,,,,,,,,,,,,,俺,i,,,,i,1,0.157,1,33,113,54,1,,
,,,,,,,,,,,,,1,1,2025-01-02_11h27.01.859,IAT(Formal),2021.2.3,Win32,117.6470588,,,,,,,,,,,,,,,,,,,,,,,,,,,,,,,,,,,,,,,,,,,,,,,,,,,,朴实,e,,,,e,1,0.0782,1,34,114,24,1,,
,,,,,,,,,,,,,1,1,2025-01-02_11h27.01.859,IAT(Formal),2021.2.3,Win32,117.6470588,,,,,,,,,,,,,,,,,,,,,,,,,,,,,,,,,,,,,,,,,,,,,,,,,,,,野蛮,i,,,,i,1,0.1017,1,35,115,46,1,,
,,,,,,,,,,,,,1,1,2025-01-02_11h27.01.859,IAT(Formal),2021.2.3,Win32,117.6470588,,,,,,,,,,,,,,,,,,,,,,,,,,,,,,,,,,,,,,,,,,,,,,,,,,,,自卑,i,,,,i,1,0.1726,1,36,116,36,1,,
,,,,,,,,,,,,,1,1,2025-01-02_11h27.01.859,IAT(Formal),2021.2.3,Win32,117.6470588,,,,,,,,,,,,,,,,,,,,,,,,,,,,,,,,,,,,,,,,,,,,,,,,,,,,我,i,,,,e,0,0.0024,1,37,117,60,1,,
,,,,,,,,,,,,,1,1,2025-01-02_11h27.01.859,IAT(Formal),2021.2.3,Win32,117.6470588,,,,,,,,,,,,,,,,,,,,,,,,,,,,,,,,,,,,,,,,,,,,,,,,,,,,他的,e,,,,i,0,0.0966,1,38,118,67,1,,
,,,,,,,,,,,,,1,1,2025-01-02_11h27.01.859,IAT(Formal),2021.2.3,Win32,117.6470588,,,,,,,,,,,,,,,,,,,,,,,,,,,,,,,,,,,,,,,,,,,,,,,,,,,,固执,i,,,,i,1,0.0185,1,39,119,47,1,,
,,,,,,,,,,,,,1,1,2025-01-02_11h27.01.859,IAT(Formal),2021.2.3,Win32,117.6470588,,,,,,,,,,,,,,,,,,,,,,,,,,,,,,,,,,,,,,,,,,,,,,,,,,,,细腻,e,,,,e,1,0.3776,1,40,120,25,1,,
,,,,,,,,,,,,,1,1,2025-01-02_11h27.01.859,IAT(Formal),2021.2.3,Win32,117.6470588,,,,,,,,,,,,,,,,,,,,,,,,,,,,,,,,,,,,,,,,,,,,,,,,,,,,他人,e,,,,e,1,0.0234,1,41,121,8,1,,
,,,,,,,,,,,,,1,1,2025-01-02_11h27.01.859,IAT(Formal),2021.2.3,Win32,117.6470588,,,,,,,,,,,,,,,,,,,,,,,,,,,,,,,,,,,,,,,,,,,,,,,,,,,,正直,e,,,,e,1,0.1359,1,42,122,16,1,,
,,,,,,,,,,,,,1,1,2025-01-02_11h27.01.859,IAT(Formal),2021.2.3,Win32,117.6470588,,,,,,,,,,,,,,,,,,,,,,,,,,,,,,,,,,,,,,,,,,,,,,,,,,,,消极,i,,,,e,0,0.1137,1,43,123,35,1,,
,,,,,,,,,,,,,1,1,2025-01-02_11h27.01.859,IAT(Formal),2021.2.3,Win32,117.6470588,,,,,,,,,,,,,,,,,,,,,,,,,,,,,,,,,,,,,,,,,,,,,,,,,,,,他的,e,,,,i,0,0.1161,1,44,124,57,1,,
,,,,,,,,,,,,,1,1,2025-01-02_11h27.01.859,IAT(Formal),2021.2.3,Win32,117.6470588,,,,,,,,,,,,,,,,,,,,,,,,,,,,,,,,,,,,,,,,,,,,,,,,,,,,冒失,i,,,,e,0,0.1035,1,45,125,39,1,,
,,,,,,,,,,,,,1,1,2025-01-02_11h27.01.859,IAT(Formal),2021.2.3,Win32,117.6470588,,,,,,,,,,,,,,,,,,,,,,,,,,,,,,,,,,,,,,,,,,,,,,,,,,,,刻薄,i,,,,e,0,0.0659,1,46,126,33,1,,
,,,,,,,,,,,,,1,1,2025-01-02_11h27.01.859,IAT(Formal),2021.2.3,Win32,117.6470588,,,,,,,,,,,,,,,,,,,,,,,,,,,,,,,,,,,,,,,,,,,,,,,,,,,,卑鄙,i,,,,i,1,0.0161,1,47,127,30,1,,
,,,,,,,,,,,,,1,1,2025-01-02_11h27.01.859,IAT(Formal),2021.2.3,Win32,117.6470588,,,,,,,,,,,,,,,,,,,,,,,,,,,,,,,,,,,,,,,,,,,,,,,,,,,,俺,i,,,,e,0,0.2009,1,48,128,74,1,,
,,,,,,,,,,,,,1,1,2025-01-02_11h27.01.859,IAT(Formal),2021.2.3,Win32,117.6470588,,,,,,,,,,,,,,,,,,,,,,,,,,,,,,,,,,,,,,,,,,,,,,,,,,,,热情,e,,,,i,0,0.03,1,49,129,27,1,,
,,,,,,,,,,,,,1,1,2025-01-02_11h27.01.859,IAT(Formal),2021.2.3,Win32,117.6470588,,,,,,,,,,,,,,,,,,,,,,,,,,,,,,,,,,,,,,,,,,,,,,,,,,,,猖狂,i,,,,e,0,0.2069,1,50,130,45,1,,
,,,,,,,,,,,,,1,1,2025-01-02_11h27.01.859,IAT(Formal),2021.2.3,Win32,117.6470588,,,,,,,,,,,,,,,,,,,,,,,,,,,,,,,,,,,,,,,,,,,,,,,,,,,,愚蠢,i,,,,e,0,0.1004,1,51,131,32,1,,
,,,,,,,,,,,,,1,1,2025-01-02_11h27.01.859,IAT(Formal),2021.2.3,Win32,117.6470588,,,,,,,,,,,,,,,,,,,,,,,,,,,,,,,,,,,,,,,,,,,,,,,,,,,,勤奋,e,,,,e,1,0.0025,1,52,132,18,1,,
,,,,,,,,,,,,,1,1,2025-01-02_11h27.01.859,IAT(Formal),2021.2.3,Win32,117.6470588,,,,,,,,,,,,,,,,,,,,,,,,,,,,,,,,,,,,,,,,,,,,,,,,,,,,他,e,,,,i,0,0.1278,1,53,133,65,1,,
,,,,,,,,,,,,,1,1,2025-01-02_11h27.01.859,IAT(Formal),2021.2.3,Win32,117.6470588,,,,,,,,,,,,,,,,,,,,,,,,,,,,,,,,,,,,,,,,,,,,,,,,,,,,自己,i,,,,i,1,0.0243,1,54,134,73,1,,
,,,,,,,,,,,,,1,1,2025-01-02_11h27.01.859,IAT(Formal),2021.2.3,Win32,117.6470588,,,,,,,,,,,,,,,,,,,,,,,,,,,,,,,,,,,,,,,,,,,,,,,,,,,,自己,i,,,,e,0,0.0013,1,55,135,53,1,,
,,,,,,,,,,,,,1,1,2025-01-02_11h27.01.859,IAT(Formal),2021.2.3,Win32,117.6470588,,,,,,,,,,,,,,,,,,,,,,,,,,,,,,,,,,,,,,,,,,,,,,,,,,,,自己,i,,,,e,0,0.0473,1,56,136,63,1,,
,,,,,,,,,,,,,1,1,2025-01-02_11h27.01.859,IAT(Formal),2021.2.3,Win32,117.6470588,,,,,,,,,,,,,,,,,,,,,,,,,,,,,,,,,,,,,,,,,,,,,,,,,,,,他人,e,,,,e,1,0.0007,1,57,137,78,1,,
,,,,,,,,,,,,,1,1,2025-01-02_11h27.01.859,IAT(Formal),2021.2.3,Win32,117.6470588,,,,,,,,,,,,,,,,,,,,,,,,,,,,,,,,,,,,,,,,,,,,,,,,,,,,我们,i,,,,i,1,0.0615,1,58,138,52,1,,
,,,,,,,,,,,,,1,1,2025-01-02_11h27.01.859,IAT(Formal),2021.2.3,Win32,117.6470588,,,,,,,,,,,,,,,,,,,,,,,,,,,,,,,,,,,,,,,,,,,,,,,,,,,,他人,e,,,,i,0,0.0506,1,59,139,58,1,,
,,,,,,,,,,,,,1,1,2025-01-02_11h27.01.859,IAT(Formal),2021.2.3,Win32,117.6470588,,,,,,,,,,,,,,,,,,,,,,,,,,,,,,,,,,,,,,,,,,,,,,,,,,,,轻率,i,,,,e,0,0.1437,1,60,140,48,1,,
,,,,,,,,,,,,,1,1,2025-01-02_11h27.01.859,IAT(Formal),2021.2.3,Win32,117.6470588,,,,,,,,,,,,,,,,,,,,,,,,,,,,,,,,,,,,,,,,,,,,,,,,,,,,执拗,i,,,,i,1,0.0988,1,61,141,40,1,,
,,,,,,,,,,,,,1,1,2025-01-02_11h27.01.859,IAT(Formal),2021.2.3,Win32,117.6470588,,,,,,,,,,,,,,,,,,,,,,,,,,,,,,,,,,,,,,,,,,,,,,,,,,,,暴躁,i,,,,e,0,0.0435,1,62,142,44,1,,
,,,,,,,,,,,,,1,1,2025-01-02_11h27.01.859,IAT(Formal),2021.2.3,Win32,117.6470588,,,,,,,,,,,,,,,,,,,,,,,,,,,,,,,,,,,,,,,,,,,,,,,,,,,,我们,i,,,,e,0,0.0576,1,63,143,62,1,,
,,,,,,,,,,,,,1,1,2025-01-02_11h27.01.859,IAT(Formal),2021.2.3,Win32,117.6470588,,,,,,,,,,,,,,,,,,,,,,,,,,,,,,,,,,,,,,,,,,,,,,,,,,,,我的,i,,,,i,1,0.0474,1,64,144,61,1,,
,,,,,,,,,,,,,1,1,2025-01-02_11h27.01.859,IAT(Formal),2021.2.3,Win32,117.6470588,,,,,,,,,,,,,,,,,,,,,,,,,,,,,,,,,,,,,,,,,,,,,,,,,,,,我,i,,,,i,1,0.1684,1,65,145,50,1,,
,,,,,,,,,,,,,1,1,2025-01-02_11h27.01.859,IAT(Formal),2021.2.3,Win32,117.6470588,,,,,,,,,,,,,,,,,,,,,,,,,,,,,,,,,,,,,,,,,,,,,,,,,,,,其他,e,,,,i,0,0.0161,1,66,146,59,1,,
,,,,,,,,,,,,,1,1,2025-01-02_11h27.01.859,IAT(Formal),2021.2.3,Win32,117.6470588,,,,,,,,,,,,,,,,,,,,,,,,,,,,,,,,,,,,,,,,,,,,,,,,,,,,俺,i,,,,e,0,0.0736,1,67,147,4,1,,
,,,,,,,,,,,,,1,1,2025-01-02_11h27.01.859,IAT(Formal),2021.2.3,Win32,117.6470588,,,,,,,,,,,,,,,,,,,,,,,,,,,,,,,,,,,,,,,,,,,,,,,,,,,,机智,e,,,,e,1,0.1637,1,68,148,19,1,,
,,,,,,,,,,,,,1,1,2025-01-02_11h27.01.859,IAT(Formal),2021.2.3,Win32,117.6470588,,,,,,,,,,,,,,,,,,,,,,,,,,,,,,,,,,,,,,,,,,,,,,,,,,,,他,e,,,,,0,,1,69,149,75,1,,
,,,,,,,,,,,,,1,1,2025-01-02_11h27.01.859,IAT(Formal),2021.2.3,Win32,117.6470588,,,,,,,,,,,,,,,,,,,,,,,,,,,,,,,,,,,,,,,,,,,,,,,,,,,,冷静,e,,,,,0,,1,70,150,26,1,,
,,,,,,,,,,,,,1,1,2025-01-02_11h27.01.859,IAT(Formal),2021.2.3,Win32,117.6470588,,,,,,,,,,,,,,,,,,,,,,,,,,,,,,,,,,,,,,,,,,,,,,,,,,,,勇敢,e,,,,e,1,0.1865,1,71,151,17,1,,
,,,,,,,,,,,,,1,1,2025-01-02_11h27.01.859,IAT(Formal),2021.2.3,Win32,117.6470588,,,,,,,,,,,,,,,,,,,,,,,,,,,,,,,,,,,,,,,,,,,,,,,,,,,,自己,i,,,,e,0,0.1449,1,72,152,3,1,,
,,,,,,,,,,,,,1,1,2025-01-02_11h27.01.859,IAT(Formal),2021.2.3,Win32,117.6470588,,,,,,,,,,,,,,,,,,,,,,,,,,,,,,,,,,,,,,,,,,,,,,,,,,,,崇高,e,,,,e,1,0.6936,1,73,153,11,1,,
,,,,,,,,,,,,,1,1,2025-01-02_11h27.01.859,IAT(Formal),2021.2.3,Win32,117.6470588,,,,,,,,,,,,,,,,,,,,,,,,,,,,,,,,,,,,,,,,,,,,,,,,,,,,诚恳,e,,,,e,1,0.1154,1,74,154,29,1,,
,,,,,,,,,,,,,1,1,2025-01-02_11h27.01.859,IAT(Formal),2021.2.3,Win32,117.6470588,,,,,,,,,,,,,,,,,,,,,,,,,,,,,,,,,,,,,,,,,,,,,,,,,,,,其他,e,,,,e,1,0.1452,1,75,155,79,1,,
,,,,,,,,,,,,,1,1,2025-01-02_11h27.01.859,IAT(Formal),2021.2.3,Win32,117.6470588,,,,,,,,,,,,,,,,,,,,,,,,,,,,,,,,,,,,,,,,,,,,,,,,,,,,我的,i,,,,e,0,0.045,1,76,156,1,1,,
,,,,,,,,,,,,,1,1,2025-01-02_11h27.01.859,IAT(Formal),2021.2.3,Win32,117.6470588,,,,,,,,,,,,,,,,,,,,,,,,,,,,,,,,,,,,,,,,,,,,,,,,,,,,他,e,,,,e,1,0.0148,1,77,157,5,1,,
,,,,,,,,,,,,,1,1,2025-01-02_11h27.01.859,IAT(Formal),2021.2.3,Win32,117.6470588,,,,,,,,,,,,,,,,,,,,,,,,,,,,,,,,,,,,,,,,,,,,,,,,,,,,我们,i,,,,e,0,0.0393,1,78,158,72,1,,
,,,,,,,,,,,,,1,1,2025-01-02_11h27.01.859,IAT(Formal),2021.2.3,Win32,117.6470588,,,,,,,,,,,,,,,,,,,,,,,,,,,,,,,,,,,,,,,,,,,,,,,,,,,,他们,e,,,,e,1,0.0502,1,79,159,76,1,,
,,,,,,,,,,,,,1,1,2025-01-02_11h27.01.859,IAT(Formal),2021.2.3,Win32,117.6470588,,,,,,,,,,,,,,,,,,,,,,,,,,,,,,,,,,,,,,,,,,,,,,,,,,,,,,,,,,,,,,,,,space,1.46
