﻿Instruction1.keys,Instruction1.rt,Instruction2.keys,Instruction2.rt,key_resp_iso.keys,key_resp_iso.corr,Practice_01.thisRepN,Practice_01.thisTrialN,Practice_01.thisN,Practice_01.thisIndex,Practice_01.ran,Words,ans,participant,session,date,expName,psychopyVersion,OS,frameRate,key_resp_iso.rt,key_resp_3.keys,key_resp_3.rt,key_resp_ipn.keys,key_resp_ipn.corr,key_resp_ipn.rt,Practice_02.thisRepN,Practice_02.thisTrialN,Practice_02.thisN,Practice_02.thisIndex,Practice_02.ran,Words_ipn,ans_ipn,key_resp_4.keys,key_resp_4.rt,key_resp_t1.keys,key_resp_t1.corr,key_resp_t1.rt,Practice_T1.thisRepN,Practice_T1.thisTrialN,Practice_T1.thisN,Practice_T1.thisIndex,Practice_T1.ran,Words_t1,ans_t1,key_resp_5.keys,key_resp_5.rt,Formal_T1.thisRepN,Formal_T1.thisTrialN,Formal_T1.thisN,Formal_T1.thisIndex,Formal_T1.ran,key_resp_6.keys,key_resp_6.rt,key_resp_iso_reverse.keys,key_resp_iso_reverse.corr,key_resp_iso_reverse.rt,Practice_iso_Reverse.thisRepN,Practice_iso_Reverse.thisTrialN,Practice_iso_Reverse.thisN,Practice_iso_Reverse.thisIndex,Practice_iso_Reverse.ran,key_resp_7.keys,key_resp_7.rt,key_resp_t2_Practice.keys,key_resp_t2_Practice.corr,key_resp_t2_Practice.rt,Practice_t2_Reverse.thisRepN,Practice_t2_Reverse.thisTrialN,Practice_t2_Reverse.thisN,Practice_t2_Reverse.thisIndex,Practice_t2_Reverse.ran,Words_t2,ans_t2,key_resp_8.keys,key_resp_8.rt,key_resp_t2.keys,key_resp_t2.corr,key_resp_t2.rt,Formal_t2_reverse.thisRepN,Formal_t2_reverse.thisTrialN,Formal_t2_reverse.thisN,Formal_t2_reverse.thisIndex,Formal_t2_reverse.ran,key_instruct.keys,key_instruct.rt
space,1.8695,space,7.8101,,0,0,0,0,0,1,我,e,1,001,2025-01-02_14h25.53.373,IAT(Formal),2021.2.3,Win32,59.52380952,,,,,,,,,,,,,,,,,,,,,,,,,,,,,,,,,,,,,,,,,,,,,,,,,,,,,,,,,,,,,,,,,,
,,,,i,1,0,1,1,8,1,他人,i,1,001,2025-01-02_14h25.53.373,IAT(Formal),2021.2.3,Win32,59.52380952,0.5892,,,,,,,,,,,,,,,,,,,,,,,,,,,,,,,,,,,,,,,,,,,,,,,,,,,,,,,,,,,,,,,,,
,,,,i,1,0,2,2,5,1,他,i,1,001,2025-01-02_14h25.53.373,IAT(Formal),2021.2.3,Win32,59.52380952,0.4891,,,,,,,,,,,,,,,,,,,,,,,,,,,,,,,,,,,,,,,,,,,,,,,,,,,,,,,,,,,,,,,,,
,,,,i,1,0,3,3,6,1,他们,i,1,001,2025-01-02_14h25.53.373,IAT(Formal),2021.2.3,Win32,59.52380952,0.4019,,,,,,,,,,,,,,,,,,,,,,,,,,,,,,,,,,,,,,,,,,,,,,,,,,,,,,,,,,,,,,,,,
,,,,i,1,0,4,4,7,1,他的,i,1,001,2025-01-02_14h25.53.373,IAT(Formal),2021.2.3,Win32,59.52380952,0.5033,,,,,,,,,,,,,,,,,,,,,,,,,,,,,,,,,,,,,,,,,,,,,,,,,,,,,,,,,,,,,,,,,
,,,,i,1,0,5,5,9,1,其他,i,1,001,2025-01-02_14h25.53.373,IAT(Formal),2021.2.3,Win32,59.52380952,0.7957,,,,,,,,,,,,,,,,,,,,,,,,,,,,,,,,,,,,,,,,,,,,,,,,,,,,,,,,,,,,,,,,,
,,,,e,1,0,6,6,4,1,俺,e,1,001,2025-01-02_14h25.53.373,IAT(Formal),2021.2.3,Win32,59.52380952,0.5044,,,,,,,,,,,,,,,,,,,,,,,,,,,,,,,,,,,,,,,,,,,,,,,,,,,,,,,,,,,,,,,,,
,,,,e,1,0,7,7,3,1,自己,e,1,001,2025-01-02_14h25.53.373,IAT(Formal),2021.2.3,Win32,59.52380952,0.4155,,,,,,,,,,,,,,,,,,,,,,,,,,,,,,,,,,,,,,,,,,,,,,,,,,,,,,,,,,,,,,,,,
,,,,e,1,0,8,8,1,1,我的,e,1,001,2025-01-02_14h25.53.373,IAT(Formal),2021.2.3,Win32,59.52380952,0.3851,,,,,,,,,,,,,,,,,,,,,,,,,,,,,,,,,,,,,,,,,,,,,,,,,,,,,,,,,,,,,,,,,
,,,,e,1,0,9,9,2,1,我们,e,1,001,2025-01-02_14h25.53.373,IAT(Formal),2021.2.3,Win32,59.52380952,0.4087,,,,,,,,,,,,,,,,,,,,,,,,,,,,,,,,,,,,,,,,,,,,,,,,,,,,,,,,,,,,,,,,,
,,,,,,,,,,,,,1,001,2025-01-02_14h25.53.373,IAT(Formal),2021.2.3,Win32,59.52380952,,space,5.413,i,1,0.8642,0,0,0,25,1,消极,i,,,,,,,,,,,,,,,,,,,,,,,,,,,,,,,,,,,,,,,,,,,,,,,,,,,,,
,,,,,,,,,,,,,1,001,2025-01-02_14h25.53.373,IAT(Formal),2021.2.3,Win32,59.52380952,,,,i,0,0.5976,0,1,1,9,1,机智,e,,,,,,,,,,,,,,,,,,,,,,,,,,,,,,,,,,,,,,,,,,,,,,,,,,,,,
,,,,,,,,,,,,,1,001,2025-01-02_14h25.53.373,IAT(Formal),2021.2.3,Win32,59.52380952,,,,i,1,0.6513,0,2,2,31,1,散漫,i,,,,,,,,,,,,,,,,,,,,,,,,,,,,,,,,,,,,,,,,,,,,,,,,,,,,,
,,,,,,,,,,,,,1,001,2025-01-02_14h25.53.373,IAT(Formal),2021.2.3,Win32,59.52380952,,,,e,1,0.6348,0,3,3,19,1,诚恳,e,,,,,,,,,,,,,,,,,,,,,,,,,,,,,,,,,,,,,,,,,,,,,,,,,,,,,
,,,,,,,,,,,,,1,001,2025-01-02_14h25.53.373,IAT(Formal),2021.2.3,Win32,59.52380952,,,,e,1,0.5048,0,4,4,4,1,乐观,e,,,,,,,,,,,,,,,,,,,,,,,,,,,,,,,,,,,,,,,,,,,,,,,,,,,,,
,,,,,,,,,,,,,1,001,2025-01-02_14h25.53.373,IAT(Formal),2021.2.3,Win32,59.52380952,,,,e,1,0.7862,0,5,5,15,1,细腻,e,,,,,,,,,,,,,,,,,,,,,,,,,,,,,,,,,,,,,,,,,,,,,,,,,,,,,
,,,,,,,,,,,,,1,001,2025-01-02_14h25.53.373,IAT(Formal),2021.2.3,Win32,59.52380952,,,,e,1,0.6436,0,6,6,18,1,活泼,e,,,,,,,,,,,,,,,,,,,,,,,,,,,,,,,,,,,,,,,,,,,,,,,,,,,,,
,,,,,,,,,,,,,1,001,2025-01-02_14h25.53.373,IAT(Formal),2021.2.3,Win32,59.52380952,,,,e,1,0.519,0,7,7,1,1,崇高,e,,,,,,,,,,,,,,,,,,,,,,,,,,,,,,,,,,,,,,,,,,,,,,,,,,,,,
,,,,,,,,,,,,,1,001,2025-01-02_14h25.53.373,IAT(Formal),2021.2.3,Win32,59.52380952,,,,i,1,0.6494,0,8,8,37,1,固执,i,,,,,,,,,,,,,,,,,,,,,,,,,,,,,,,,,,,,,,,,,,,,,,,,,,,,,
,,,,,,,,,,,,,1,001,2025-01-02_14h25.53.373,IAT(Formal),2021.2.3,Win32,59.52380952,,,,e,1,0.6929,0,9,9,6,1,正直,e,,,,,,,,,,,,,,,,,,,,,,,,,,,,,,,,,,,,,,,,,,,,,,,,,,,,,
,,,,,,,,,,,,,1,001,2025-01-02_14h25.53.373,IAT(Formal),2021.2.3,Win32,59.52380952,,,,e,1,0.5472,0,10,10,11,1,稳重,e,,,,,,,,,,,,,,,,,,,,,,,,,,,,,,,,,,,,,,,,,,,,,,,,,,,,,
,,,,,,,,,,,,,1,001,2025-01-02_14h25.53.373,IAT(Formal),2021.2.3,Win32,59.52380952,,,,i,1,0.5255,0,11,11,29,1,冒失,i,,,,,,,,,,,,,,,,,,,,,,,,,,,,,,,,,,,,,,,,,,,,,,,,,,,,,
,,,,,,,,,,,,,1,001,2025-01-02_14h25.53.373,IAT(Formal),2021.2.3,Win32,59.52380952,,,,e,1,0.4587,0,12,12,17,1,热情,e,,,,,,,,,,,,,,,,,,,,,,,,,,,,,,,,,,,,,,,,,,,,,,,,,,,,,
,,,,,,,,,,,,,1,001,2025-01-02_14h25.53.373,IAT(Formal),2021.2.3,Win32,59.52380952,,,,e,1,0.4622,0,13,13,7,1,勇敢,e,,,,,,,,,,,,,,,,,,,,,,,,,,,,,,,,,,,,,,,,,,,,,,,,,,,,,
,,,,,,,,,,,,,1,001,2025-01-02_14h25.53.373,IAT(Formal),2021.2.3,Win32,59.52380952,,,,e,0,0.4075,0,14,14,36,1,野蛮,i,,,,,,,,,,,,,,,,,,,,,,,,,,,,,,,,,,,,,,,,,,,,,,,,,,,,,
,,,,,,,,,,,,,1,001,2025-01-02_14h25.53.373,IAT(Formal),2021.2.3,Win32,59.52380952,,,,e,0,0.4125,0,15,15,23,1,刻薄,i,,,,,,,,,,,,,,,,,,,,,,,,,,,,,,,,,,,,,,,,,,,,,,,,,,,,,
,,,,,,,,,,,,,1,001,2025-01-02_14h25.53.373,IAT(Formal),2021.2.3,Win32,59.52380952,,,,e,0,0.5495,0,16,16,28,1,鲁莽,i,,,,,,,,,,,,,,,,,,,,,,,,,,,,,,,,,,,,,,,,,,,,,,,,,,,,,
,,,,,,,,,,,,,1,001,2025-01-02_14h25.53.373,IAT(Formal),2021.2.3,Win32,59.52380952,,,,e,1,0.4328,0,17,17,5,1,诚实,e,,,,,,,,,,,,,,,,,,,,,,,,,,,,,,,,,,,,,,,,,,,,,,,,,,,,,
,,,,,,,,,,,,,1,001,2025-01-02_14h25.53.373,IAT(Formal),2021.2.3,Win32,59.52380952,,,,i,1,0.4929,0,18,18,24,1,悲观,i,,,,,,,,,,,,,,,,,,,,,,,,,,,,,,,,,,,,,,,,,,,,,,,,,,,,,
,,,,,,,,,,,,,1,001,2025-01-02_14h25.53.373,IAT(Formal),2021.2.3,Win32,59.52380952,,,,e,1,0.4069,0,19,19,8,1,勤奋,e,,,,,,,,,,,,,,,,,,,,,,,,,,,,,,,,,,,,,,,,,,,,,,,,,,,,,
,,,,,,,,,,,,,1,001,2025-01-02_14h25.53.373,IAT(Formal),2021.2.3,Win32,59.52380952,,,,i,1,0.4231,0,20,20,34,1,暴躁,i,,,,,,,,,,,,,,,,,,,,,,,,,,,,,,,,,,,,,,,,,,,,,,,,,,,,,
,,,,,,,,,,,,,1,001,2025-01-02_14h25.53.373,IAT(Formal),2021.2.3,Win32,59.52380952,,,,i,1,0.6317,0,21,21,39,1,下贱,i,,,,,,,,,,,,,,,,,,,,,,,,,,,,,,,,,,,,,,,,,,,,,,,,,,,,,
,,,,,,,,,,,,,1,001,2025-01-02_14h25.53.373,IAT(Formal),2021.2.3,Win32,59.52380952,,,,i,1,0.6309,0,22,22,26,1,自卑,i,,,,,,,,,,,,,,,,,,,,,,,,,,,,,,,,,,,,,,,,,,,,,,,,,,,,,
,,,,,,,,,,,,,1,001,2025-01-02_14h25.53.373,IAT(Formal),2021.2.3,Win32,59.52380952,,,,e,0,0.6952,0,23,23,38,1,轻率,i,,,,,,,,,,,,,,,,,,,,,,,,,,,,,,,,,,,,,,,,,,,,,,,,,,,,,
,,,,,,,,,,,,,1,001,2025-01-02_14h25.53.373,IAT(Formal),2021.2.3,Win32,59.52380952,,,,e,1,0.4944,0,24,24,3,1,杰出,e,,,,,,,,,,,,,,,,,,,,,,,,,,,,,,,,,,,,,,,,,,,,,,,,,,,,,
,,,,,,,,,,,,,1,001,2025-01-02_14h25.53.373,IAT(Formal),2021.2.3,Win32,59.52380952,,,,e,1,0.442,0,25,25,0,1,优秀,e,,,,,,,,,,,,,,,,,,,,,,,,,,,,,,,,,,,,,,,,,,,,,,,,,,,,,
,,,,,,,,,,,,,1,001,2025-01-02_14h25.53.373,IAT(Formal),2021.2.3,Win32,59.52380952,,,,e,1,0.5272,0,26,26,13,1,公正,e,,,,,,,,,,,,,,,,,,,,,,,,,,,,,,,,,,,,,,,,,,,,,,,,,,,,,
,,,,,,,,,,,,,1,001,2025-01-02_14h25.53.373,IAT(Formal),2021.2.3,Win32,59.52380952,,,,e,1,0.411,0,27,27,2,1,聪明,e,,,,,,,,,,,,,,,,,,,,,,,,,,,,,,,,,,,,,,,,,,,,,,,,,,,,,
,,,,,,,,,,,,,1,001,2025-01-02_14h25.53.373,IAT(Formal),2021.2.3,Win32,59.52380952,,,,i,1,0.5229,0,28,28,32,1,凶狠,i,,,,,,,,,,,,,,,,,,,,,,,,,,,,,,,,,,,,,,,,,,,,,,,,,,,,,
,,,,,,,,,,,,,1,001,2025-01-02_14h25.53.373,IAT(Formal),2021.2.3,Win32,59.52380952,,,,i,1,0.6502,0,29,29,21,1,虚伪,i,,,,,,,,,,,,,,,,,,,,,,,,,,,,,,,,,,,,,,,,,,,,,,,,,,,,,
,,,,,,,,,,,,,1,001,2025-01-02_14h25.53.373,IAT(Formal),2021.2.3,Win32,59.52380952,,,,i,1,0.6599,0,30,30,27,1,傲慢,i,,,,,,,,,,,,,,,,,,,,,,,,,,,,,,,,,,,,,,,,,,,,,,,,,,,,,
,,,,,,,,,,,,,1,001,2025-01-02_14h25.53.373,IAT(Formal),2021.2.3,Win32,59.52380952,,,,i,1,0.6019,0,31,31,33,1,自私,i,,,,,,,,,,,,,,,,,,,,,,,,,,,,,,,,,,,,,,,,,,,,,,,,,,,,,
,,,,,,,,,,,,,1,001,2025-01-02_14h25.53.373,IAT(Formal),2021.2.3,Win32,59.52380952,,,,i,1,0.5724,0,32,32,20,1,卑鄙,i,,,,,,,,,,,,,,,,,,,,,,,,,,,,,,,,,,,,,,,,,,,,,,,,,,,,,
,,,,,,,,,,,,,1,001,2025-01-02_14h25.53.373,IAT(Formal),2021.2.3,Win32,59.52380952,,,,i,1,0.6486,0,33,33,35,1,猖狂,i,,,,,,,,,,,,,,,,,,,,,,,,,,,,,,,,,,,,,,,,,,,,,,,,,,,,,
,,,,,,,,,,,,,1,001,2025-01-02_14h25.53.373,IAT(Formal),2021.2.3,Win32,59.52380952,,,,e,1,0.4432,0,34,34,10,1,认真,e,,,,,,,,,,,,,,,,,,,,,,,,,,,,,,,,,,,,,,,,,,,,,,,,,,,,,
,,,,,,,,,,,,,1,001,2025-01-02_14h25.53.373,IAT(Formal),2021.2.3,Win32,59.52380952,,,,i,1,0.4633,0,35,35,22,1,愚蠢,i,,,,,,,,,,,,,,,,,,,,,,,,,,,,,,,,,,,,,,,,,,,,,,,,,,,,,
,,,,,,,,,,,,,1,001,2025-01-02_14h25.53.373,IAT(Formal),2021.2.3,Win32,59.52380952,,,,e,1,0.5593,0,36,36,16,1,冷静,e,,,,,,,,,,,,,,,,,,,,,,,,,,,,,,,,,,,,,,,,,,,,,,,,,,,,,
,,,,,,,,,,,,,1,001,2025-01-02_14h25.53.373,IAT(Formal),2021.2.3,Win32,59.52380952,,,,i,1,0.4789,0,37,37,30,1,执拗,i,,,,,,,,,,,,,,,,,,,,,,,,,,,,,,,,,,,,,,,,,,,,,,,,,,,,,
,,,,,,,,,,,,,1,001,2025-01-02_14h25.53.373,IAT(Formal),2021.2.3,Win32,59.52380952,,,,i,0,0.5877,0,38,38,12,1,无私,e,,,,,,,,,,,,,,,,,,,,,,,,,,,,,,,,,,,,,,,,,,,,,,,,,,,,,
,,,,,,,,,,,,,1,001,2025-01-02_14h25.53.373,IAT(Formal),2021.2.3,Win32,59.52380952,,,,e,1,0.5587,0,39,39,14,1,朴实,e,,,,,,,,,,,,,,,,,,,,,,,,,,,,,,,,,,,,,,,,,,,,,,,,,,,,,
,,,,,,,,,,,,,1,001,2025-01-02_14h25.53.373,IAT(Formal),2021.2.3,Win32,59.52380952,,,,,,,,,,,,,,space,3.7048,e,1,0.4615,0,0,0,61,1,我的,e,,,,,,,,,,,,,,,,,,,,,,,,,,,,,,,,,,,,,,,,,
,,,,,,,,,,,,,1,001,2025-01-02_14h25.53.373,IAT(Formal),2021.2.3,Win32,59.52380952,,,,,,,,,,,,,,,,i,1,0.5795,0,1,1,34,1,悲观,i,,,,,,,,,,,,,,,,,,,,,,,,,,,,,,,,,,,,,,,,,
,,,,,,,,,,,,,1,001,2025-01-02_14h25.53.373,IAT(Formal),2021.2.3,Win32,59.52380952,,,,,,,,,,,,,,,,e,1,0.5987,0,2,2,24,1,朴实,e,,,,,,,,,,,,,,,,,,,,,,,,,,,,,,,,,,,,,,,,,
,,,,,,,,,,,,,1,001,2025-01-02_14h25.53.373,IAT(Formal),2021.2.3,Win32,59.52380952,,,,,,,,,,,,,,,,i,1,0.4845,0,3,3,37,1,傲慢,i,,,,,,,,,,,,,,,,,,,,,,,,,,,,,,,,,,,,,,,,,
,,,,,,,,,,,,,1,001,2025-01-02_14h25.53.373,IAT(Formal),2021.2.3,Win32,59.52380952,,,,,,,,,,,,,,,,e,1,0.8145,0,4,4,19,1,机智,e,,,,,,,,,,,,,,,,,,,,,,,,,,,,,,,,,,,,,,,,,
,,,,,,,,,,,,,1,001,2025-01-02_14h25.53.373,IAT(Formal),2021.2.3,Win32,59.52380952,,,,,,,,,,,,,,,,e,1,0.4848,0,5,5,2,1,我们,e,,,,,,,,,,,,,,,,,,,,,,,,,,,,,,,,,,,,,,,,,
,,,,,,,,,,,,,1,001,2025-01-02_14h25.53.373,IAT(Formal),2021.2.3,Win32,59.52380952,,,,,,,,,,,,,,,,e,0,0.4701,0,6,6,40,1,执拗,i,,,,,,,,,,,,,,,,,,,,,,,,,,,,,,,,,,,,,,,,,
,,,,,,,,,,,,,1,001,2025-01-02_14h25.53.373,IAT(Formal),2021.2.3,Win32,59.52380952,,,,,,,,,,,,,,,,e,0,0.5502,0,7,7,5,1,他,i,,,,,,,,,,,,,,,,,,,,,,,,,,,,,,,,,,,,,,,,,
,,,,,,,,,,,,,1,001,2025-01-02_14h25.53.373,IAT(Formal),2021.2.3,Win32,59.52380952,,,,,,,,,,,,,,,,i,1,0.6673,0,8,8,30,1,卑鄙,i,,,,,,,,,,,,,,,,,,,,,,,,,,,,,,,,,,,,,,,,,
,,,,,,,,,,,,,1,001,2025-01-02_14h25.53.373,IAT(Formal),2021.2.3,Win32,59.52380952,,,,,,,,,,,,,,,,e,1,0.5816,0,9,9,27,1,热情,e,,,,,,,,,,,,,,,,,,,,,,,,,,,,,,,,,,,,,,,,,
,,,,,,,,,,,,,1,001,2025-01-02_14h25.53.373,IAT(Formal),2021.2.3,Win32,59.52380952,,,,,,,,,,,,,,,,i,1,0.5473,0,10,10,7,1,他的,i,,,,,,,,,,,,,,,,,,,,,,,,,,,,,,,,,,,,,,,,,
,,,,,,,,,,,,,1,001,2025-01-02_14h25.53.373,IAT(Formal),2021.2.3,Win32,59.52380952,,,,,,,,,,,,,,,,e,1,0.7832,0,11,11,72,1,我们,e,,,,,,,,,,,,,,,,,,,,,,,,,,,,,,,,,,,,,,,,,
,,,,,,,,,,,,,1,001,2025-01-02_14h25.53.373,IAT(Formal),2021.2.3,Win32,59.52380952,,,,,,,,,,,,,,,,e,1,0.4308,0,12,12,63,1,自己,e,,,,,,,,,,,,,,,,,,,,,,,,,,,,,,,,,,,,,,,,,
,,,,,,,,,,,,,1,001,2025-01-02_14h25.53.373,IAT(Formal),2021.2.3,Win32,59.52380952,,,,,,,,,,,,,,,,i,1,0.5008,0,13,13,48,1,轻率,i,,,,,,,,,,,,,,,,,,,,,,,,,,,,,,,,,,,,,,,,,
,,,,,,,,,,,,,1,001,2025-01-02_14h25.53.373,IAT(Formal),2021.2.3,Win32,59.52380952,,,,,,,,,,,,,,,,e,1,0.5655,0,14,14,74,1,俺,e,,,,,,,,,,,,,,,,,,,,,,,,,,,,,,,,,,,,,,,,,
,,,,,,,,,,,,,1,001,2025-01-02_14h25.53.373,IAT(Formal),2021.2.3,Win32,59.52380952,,,,,,,,,,,,,,,,i,1,0.5013,0,15,15,32,1,愚蠢,i,,,,,,,,,,,,,,,,,,,,,,,,,,,,,,,,,,,,,,,,,
,,,,,,,,,,,,,1,001,2025-01-02_14h25.53.373,IAT(Formal),2021.2.3,Win32,59.52380952,,,,,,,,,,,,,,,,e,1,0.4645,0,16,16,11,1,崇高,e,,,,,,,,,,,,,,,,,,,,,,,,,,,,,,,,,,,,,,,,,
,,,,,,,,,,,,,1,001,2025-01-02_14h25.53.373,IAT(Formal),2021.2.3,Win32,59.52380952,,,,,,,,,,,,,,,,e,1,0.4848,0,17,17,20,1,认真,e,,,,,,,,,,,,,,,,,,,,,,,,,,,,,,,,,,,,,,,,,
,,,,,,,,,,,,,1,001,2025-01-02_14h25.53.373,IAT(Formal),2021.2.3,Win32,59.52380952,,,,,,,,,,,,,,,,i,1,0.4859,0,18,18,38,1,鲁莽,i,,,,,,,,,,,,,,,,,,,,,,,,,,,,,,,,,,,,,,,,,
,,,,,,,,,,,,,1,001,2025-01-02_14h25.53.373,IAT(Formal),2021.2.3,Win32,59.52380952,,,,,,,,,,,,,,,,e,0,0.4004,0,19,19,57,1,他的,i,,,,,,,,,,,,,,,,,,,,,,,,,,,,,,,,,,,,,,,,,
,,,,,,,,,,,,,1,001,2025-01-02_14h25.53.373,IAT(Formal),2021.2.3,Win32,59.52380952,,,,,,,,,,,,,,,,e,1,0.5145,0,20,20,29,1,诚恳,e,,,,,,,,,,,,,,,,,,,,,,,,,,,,,,,,,,,,,,,,,
,,,,,,,,,,,,,1,001,2025-01-02_14h25.53.373,IAT(Formal),2021.2.3,Win32,59.52380952,,,,,,,,,,,,,,,,e,1,0.4975,0,21,21,4,1,俺,e,,,,,,,,,,,,,,,,,,,,,,,,,,,,,,,,,,,,,,,,,
,,,,,,,,,,,,,1,001,2025-01-02_14h25.53.373,IAT(Formal),2021.2.3,Win32,59.52380952,,,,,,,,,,,,,,,,e,1,0.433,0,22,22,70,1,我,e,,,,,,,,,,,,,,,,,,,,,,,,,,,,,,,,,,,,,,,,,
,,,,,,,,,,,,,1,001,2025-01-02_14h25.53.373,IAT(Formal),2021.2.3,Win32,59.52380952,,,,,,,,,,,,,,,,i,1,0.5241,0,23,23,31,1,虚伪,i,,,,,,,,,,,,,,,,,,,,,,,,,,,,,,,,,,,,,,,,,
,,,,,,,,,,,,,1,001,2025-01-02_14h25.53.373,IAT(Formal),2021.2.3,Win32,59.52380952,,,,,,,,,,,,,,,,e,1,0.4876,0,24,24,64,1,俺,e,,,,,,,,,,,,,,,,,,,,,,,,,,,,,,,,,,,,,,,,,
,,,,,,,,,,,,,1,001,2025-01-02_14h25.53.373,IAT(Formal),2021.2.3,Win32,59.52380952,,,,,,,,,,,,,,,,i,1,0.5866,0,25,25,68,1,他人,i,,,,,,,,,,,,,,,,,,,,,,,,,,,,,,,,,,,,,,,,,
,,,,,,,,,,,,,1,001,2025-01-02_14h25.53.373,IAT(Formal),2021.2.3,Win32,59.52380952,,,,,,,,,,,,,,,,e,1,0.5005,0,26,26,25,1,细腻,e,,,,,,,,,,,,,,,,,,,,,,,,,,,,,,,,,,,,,,,,,
,,,,,,,,,,,,,1,001,2025-01-02_14h25.53.373,IAT(Formal),2021.2.3,Win32,59.52380952,,,,,,,,,,,,,,,,e,1,0.4497,0,27,27,54,1,俺,e,,,,,,,,,,,,,,,,,,,,,,,,,,,,,,,,,,,,,,,,,
,,,,,,,,,,,,,1,001,2025-01-02_14h25.53.373,IAT(Formal),2021.2.3,Win32,59.52380952,,,,,,,,,,,,,,,,i,1,0.501,0,28,28,56,1,他们,i,,,,,,,,,,,,,,,,,,,,,,,,,,,,,,,,,,,,,,,,,
,,,,,,,,,,,,,1,001,2025-01-02_14h25.53.373,IAT(Formal),2021.2.3,Win32,59.52380952,,,,,,,,,,,,,,,,e,1,0.3988,0,29,29,51,1,我的,e,,,,,,,,,,,,,,,,,,,,,,,,,,,,,,,,,,,,,,,,,
,,,,,,,,,,,,,1,001,2025-01-02_14h25.53.373,IAT(Formal),2021.2.3,Win32,59.52380952,,,,,,,,,,,,,,,,e,1,0.4101,0,30,30,73,1,自己,e,,,,,,,,,,,,,,,,,,,,,,,,,,,,,,,,,,,,,,,,,
,,,,,,,,,,,,,1,001,2025-01-02_14h25.53.373,IAT(Formal),2021.2.3,Win32,59.52380952,,,,,,,,,,,,,,,,e,1,0.4944,0,31,31,21,1,稳重,e,,,,,,,,,,,,,,,,,,,,,,,,,,,,,,,,,,,,,,,,,
,,,,,,,,,,,,,1,001,2025-01-02_14h25.53.373,IAT(Formal),2021.2.3,Win32,59.52380952,,,,,,,,,,,,,,,,e,1,0.3848,0,32,32,52,1,我们,e,,,,,,,,,,,,,,,,,,,,,,,,,,,,,,,,,,,,,,,,,
,,,,,,,,,,,,,1,001,2025-01-02_14h25.53.373,IAT(Formal),2021.2.3,Win32,59.52380952,,,,,,,,,,,,,,,,e,1,0.3795,0,33,33,71,1,我的,e,,,,,,,,,,,,,,,,,,,,,,,,,,,,,,,,,,,,,,,,,
,,,,,,,,,,,,,1,001,2025-01-02_14h25.53.373,IAT(Formal),2021.2.3,Win32,59.52380952,,,,,,,,,,,,,,,,i,1,0.6403,0,34,34,66,1,他们,i,,,,,,,,,,,,,,,,,,,,,,,,,,,,,,,,,,,,,,,,,
,,,,,,,,,,,,,1,001,2025-01-02_14h25.53.373,IAT(Formal),2021.2.3,Win32,59.52380952,,,,,,,,,,,,,,,,i,1,0.6804,0,35,35,36,1,自卑,i,,,,,,,,,,,,,,,,,,,,,,,,,,,,,,,,,,,,,,,,,
,,,,,,,,,,,,,1,001,2025-01-02_14h25.53.373,IAT(Formal),2021.2.3,Win32,59.52380952,,,,,,,,,,,,,,,,e,0,0.626,0,36,36,65,1,他,i,,,,,,,,,,,,,,,,,,,,,,,,,,,,,,,,,,,,,,,,,
,,,,,,,,,,,,,1,001,2025-01-02_14h25.53.373,IAT(Formal),2021.2.3,Win32,59.52380952,,,,,,,,,,,,,,,,e,0,0.4533,0,37,37,43,1,自私,i,,,,,,,,,,,,,,,,,,,,,,,,,,,,,,,,,,,,,,,,,
,,,,,,,,,,,,,1,001,2025-01-02_14h25.53.373,IAT(Formal),2021.2.3,Win32,59.52380952,,,,,,,,,,,,,,,,e,1,0.4974,0,38,38,23,1,公正,e,,,,,,,,,,,,,,,,,,,,,,,,,,,,,,,,,,,,,,,,,
,,,,,,,,,,,,,1,001,2025-01-02_14h25.53.373,IAT(Formal),2021.2.3,Win32,59.52380952,,,,,,,,,,,,,,,,e,1,0.7666,0,39,39,17,1,勇敢,e,,,,,,,,,,,,,,,,,,,,,,,,,,,,,,,,,,,,,,,,,
,,,,,,,,,,,,,1,001,2025-01-02_14h25.53.373,IAT(Formal),2021.2.3,Win32,59.52380952,,,,,,,,,,,,,,,,e,1,0.4255,0,40,40,53,1,自己,e,,,,,,,,,,,,,,,,,,,,,,,,,,,,,,,,,,,,,,,,,
,,,,,,,,,,,,,1,001,2025-01-02_14h25.53.373,IAT(Formal),2021.2.3,Win32,59.52380952,,,,,,,,,,,,,,,,i,1,0.5633,0,41,41,6,1,他们,i,,,,,,,,,,,,,,,,,,,,,,,,,,,,,,,,,,,,,,,,,
,,,,,,,,,,,,,1,001,2025-01-02_14h25.53.373,IAT(Formal),2021.2.3,Win32,59.52380952,,,,,,,,,,,,,,,,e,0,0.4319,0,42,42,46,1,野蛮,i,,,,,,,,,,,,,,,,,,,,,,,,,,,,,,,,,,,,,,,,,
,,,,,,,,,,,,,1,001,2025-01-02_14h25.53.373,IAT(Formal),2021.2.3,Win32,59.52380952,,,,,,,,,,,,,,,,e,1,0.5035,0,43,43,10,1,优秀,e,,,,,,,,,,,,,,,,,,,,,,,,,,,,,,,,,,,,,,,,,
,,,,,,,,,,,,,1,001,2025-01-02_14h25.53.373,IAT(Formal),2021.2.3,Win32,59.52380952,,,,,,,,,,,,,,,,e,1,0.7379,0,44,44,12,1,聪明,e,,,,,,,,,,,,,,,,,,,,,,,,,,,,,,,,,,,,,,,,,
,,,,,,,,,,,,,1,001,2025-01-02_14h25.53.373,IAT(Formal),2021.2.3,Win32,59.52380952,,,,,,,,,,,,,,,,e,1,0.4317,0,45,45,1,1,我的,e,,,,,,,,,,,,,,,,,,,,,,,,,,,,,,,,,,,,,,,,,
,,,,,,,,,,,,,1,001,2025-01-02_14h25.53.373,IAT(Formal),2021.2.3,Win32,59.52380952,,,,,,,,,,,,,,,,i,1,0.4667,0,46,46,39,1,冒失,i,,,,,,,,,,,,,,,,,,,,,,,,,,,,,,,,,,,,,,,,,
,,,,,,,,,,,,,1,001,2025-01-02_14h25.53.373,IAT(Formal),2021.2.3,Win32,59.52380952,,,,,,,,,,,,,,,,e,1,0.4048,0,47,47,0,1,我,e,,,,,,,,,,,,,,,,,,,,,,,,,,,,,,,,,,,,,,,,,
,,,,,,,,,,,,,1,001,2025-01-02_14h25.53.373,IAT(Formal),2021.2.3,Win32,59.52380952,,,,,,,,,,,,,,,,i,1,0.471,0,48,48,35,1,消极,i,,,,,,,,,,,,,,,,,,,,,,,,,,,,,,,,,,,,,,,,,
,,,,,,,,,,,,,1,001,2025-01-02_14h25.53.373,IAT(Formal),2021.2.3,Win32,59.52380952,,,,,,,,,,,,,,,,e,1,0.3714,0,49,49,3,1,自己,e,,,,,,,,,,,,,,,,,,,,,,,,,,,,,,,,,,,,,,,,,
,,,,,,,,,,,,,1,001,2025-01-02_14h25.53.373,IAT(Formal),2021.2.3,Win32,59.52380952,,,,,,,,,,,,,,,,i,1,0.4691,0,50,50,49,1,下贱,i,,,,,,,,,,,,,,,,,,,,,,,,,,,,,,,,,,,,,,,,,
,,,,,,,,,,,,,1,001,2025-01-02_14h25.53.373,IAT(Formal),2021.2.3,Win32,59.52380952,,,,,,,,,,,,,,,,e,1,0.4559,0,51,51,62,1,我们,e,,,,,,,,,,,,,,,,,,,,,,,,,,,,,,,,,,,,,,,,,
,,,,,,,,,,,,,1,001,2025-01-02_14h25.53.373,IAT(Formal),2021.2.3,Win32,59.52380952,,,,,,,,,,,,,,,,i,1,0.7487,0,52,52,33,1,刻薄,i,,,,,,,,,,,,,,,,,,,,,,,,,,,,,,,,,,,,,,,,,
,,,,,,,,,,,,,1,001,2025-01-02_14h25.53.373,IAT(Formal),2021.2.3,Win32,59.52380952,,,,,,,,,,,,,,,,e,1,0.4642,0,53,53,28,1,活泼,e,,,,,,,,,,,,,,,,,,,,,,,,,,,,,,,,,,,,,,,,,
,,,,,,,,,,,,,1,001,2025-01-02_14h25.53.373,IAT(Formal),2021.2.3,Win32,59.52380952,,,,,,,,,,,,,,,,i,1,0.4361,0,54,54,75,1,他,i,,,,,,,,,,,,,,,,,,,,,,,,,,,,,,,,,,,,,,,,,
,,,,,,,,,,,,,1,001,2025-01-02_14h25.53.373,IAT(Formal),2021.2.3,Win32,59.52380952,,,,,,,,,,,,,,,,e,1,0.5138,0,55,55,50,1,我,e,,,,,,,,,,,,,,,,,,,,,,,,,,,,,,,,,,,,,,,,,
,,,,,,,,,,,,,1,001,2025-01-02_14h25.53.373,IAT(Formal),2021.2.3,Win32,59.52380952,,,,,,,,,,,,,,,,i,1,0.4344,0,56,56,59,1,其他,i,,,,,,,,,,,,,,,,,,,,,,,,,,,,,,,,,,,,,,,,,
,,,,,,,,,,,,,1,001,2025-01-02_14h25.53.373,IAT(Formal),2021.2.3,Win32,59.52380952,,,,,,,,,,,,,,,,e,1,0.4692,0,57,57,13,1,杰出,e,,,,,,,,,,,,,,,,,,,,,,,,,,,,,,,,,,,,,,,,,
,,,,,,,,,,,,,1,001,2025-01-02_14h25.53.373,IAT(Formal),2021.2.3,Win32,59.52380952,,,,,,,,,,,,,,,,e,1,0.49,0,58,58,60,1,我,e,,,,,,,,,,,,,,,,,,,,,,,,,,,,,,,,,,,,,,,,,
,,,,,,,,,,,,,1,001,2025-01-02_14h25.53.373,IAT(Formal),2021.2.3,Win32,59.52380952,,,,,,,,,,,,,,,,i,1,0.4991,0,59,59,55,1,他,i,,,,,,,,,,,,,,,,,,,,,,,,,,,,,,,,,,,,,,,,,
,,,,,,,,,,,,,1,001,2025-01-02_14h25.53.373,IAT(Formal),2021.2.3,Win32,59.52380952,,,,,,,,,,,,,,,,e,0,0.6849,0,60,60,44,1,暴躁,i,,,,,,,,,,,,,,,,,,,,,,,,,,,,,,,,,,,,,,,,,
,,,,,,,,,,,,,1,001,2025-01-02_14h25.53.373,IAT(Formal),2021.2.3,Win32,59.52380952,,,,,,,,,,,,,,,,i,1,0.6709,0,61,61,78,1,他人,i,,,,,,,,,,,,,,,,,,,,,,,,,,,,,,,,,,,,,,,,,
,,,,,,,,,,,,,1,001,2025-01-02_14h25.53.373,IAT(Formal),2021.2.3,Win32,59.52380952,,,,,,,,,,,,,,,,i,0,0.6663,0,62,62,22,1,无私,e,,,,,,,,,,,,,,,,,,,,,,,,,,,,,,,,,,,,,,,,,
,,,,,,,,,,,,,1,001,2025-01-02_14h25.53.373,IAT(Formal),2021.2.3,Win32,59.52380952,,,,,,,,,,,,,,,,i,1,0.5175,0,63,63,79,1,其他,i,,,,,,,,,,,,,,,,,,,,,,,,,,,,,,,,,,,,,,,,,
,,,,,,,,,,,,,1,001,2025-01-02_14h25.53.373,IAT(Formal),2021.2.3,Win32,59.52380952,,,,,,,,,,,,,,,,e,1,0.4634,0,64,64,15,1,诚实,e,,,,,,,,,,,,,,,,,,,,,,,,,,,,,,,,,,,,,,,,,
,,,,,,,,,,,,,1,001,2025-01-02_14h25.53.373,IAT(Formal),2021.2.3,Win32,59.52380952,,,,,,,,,,,,,,,,i,1,0.6367,0,65,65,45,1,猖狂,i,,,,,,,,,,,,,,,,,,,,,,,,,,,,,,,,,,,,,,,,,
,,,,,,,,,,,,,1,001,2025-01-02_14h25.53.373,IAT(Formal),2021.2.3,Win32,59.52380952,,,,,,,,,,,,,,,,i,1,0.6496,0,66,66,77,1,他的,i,,,,,,,,,,,,,,,,,,,,,,,,,,,,,,,,,,,,,,,,,
,,,,,,,,,,,,,1,001,2025-01-02_14h25.53.373,IAT(Formal),2021.2.3,Win32,59.52380952,,,,,,,,,,,,,,,,i,1,0.862,0,67,67,69,1,其他,i,,,,,,,,,,,,,,,,,,,,,,,,,,,,,,,,,,,,,,,,,
,,,,,,,,,,,,,1,001,2025-01-02_14h25.53.373,IAT(Formal),2021.2.3,Win32,59.52380952,,,,,,,,,,,,,,,,e,0,0.5003,0,68,68,76,1,他们,i,,,,,,,,,,,,,,,,,,,,,,,,,,,,,,,,,,,,,,,,,
,,,,,,,,,,,,,1,001,2025-01-02_14h25.53.373,IAT(Formal),2021.2.3,Win32,59.52380952,,,,,,,,,,,,,,,,e,1,0.5985,0,69,69,16,1,正直,e,,,,,,,,,,,,,,,,,,,,,,,,,,,,,,,,,,,,,,,,,
,,,,,,,,,,,,,1,001,2025-01-02_14h25.53.373,IAT(Formal),2021.2.3,Win32,59.52380952,,,,,,,,,,,,,,,,e,0,0.4825,0,70,70,47,1,固执,i,,,,,,,,,,,,,,,,,,,,,,,,,,,,,,,,,,,,,,,,,
,,,,,,,,,,,,,1,001,2025-01-02_14h25.53.373,IAT(Formal),2021.2.3,Win32,59.52380952,,,,,,,,,,,,,,,,i,1,0.6051,0,71,71,9,1,其他,i,,,,,,,,,,,,,,,,,,,,,,,,,,,,,,,,,,,,,,,,,
,,,,,,,,,,,,,1,001,2025-01-02_14h25.53.373,IAT(Formal),2021.2.3,Win32,59.52380952,,,,,,,,,,,,,,,,e,1,0.5052,0,72,72,18,1,勤奋,e,,,,,,,,,,,,,,,,,,,,,,,,,,,,,,,,,,,,,,,,,
,,,,,,,,,,,,,1,001,2025-01-02_14h25.53.373,IAT(Formal),2021.2.3,Win32,59.52380952,,,,,,,,,,,,,,,,i,1,0.5464,0,73,73,58,1,他人,i,,,,,,,,,,,,,,,,,,,,,,,,,,,,,,,,,,,,,,,,,
,,,,,,,,,,,,,1,001,2025-01-02_14h25.53.373,IAT(Formal),2021.2.3,Win32,59.52380952,,,,,,,,,,,,,,,,e,0,0.8203,0,74,74,41,1,散漫,i,,,,,,,,,,,,,,,,,,,,,,,,,,,,,,,,,,,,,,,,,
,,,,,,,,,,,,,1,001,2025-01-02_14h25.53.373,IAT(Formal),2021.2.3,Win32,59.52380952,,,,,,,,,,,,,,,,i,1,0.6606,0,75,75,42,1,凶狠,i,,,,,,,,,,,,,,,,,,,,,,,,,,,,,,,,,,,,,,,,,
,,,,,,,,,,,,,1,001,2025-01-02_14h25.53.373,IAT(Formal),2021.2.3,Win32,59.52380952,,,,,,,,,,,,,,,,i,1,0.5755,0,76,76,8,1,他人,i,,,,,,,,,,,,,,,,,,,,,,,,,,,,,,,,,,,,,,,,,
,,,,,,,,,,,,,1,001,2025-01-02_14h25.53.373,IAT(Formal),2021.2.3,Win32,59.52380952,,,,,,,,,,,,,,,,e,1,0.4984,0,77,77,14,1,乐观,e,,,,,,,,,,,,,,,,,,,,,,,,,,,,,,,,,,,,,,,,,
,,,,,,,,,,,,,1,001,2025-01-02_14h25.53.373,IAT(Formal),2021.2.3,Win32,59.52380952,,,,,,,,,,,,,,,,e,1,0.4818,0,78,78,26,1,冷静,e,,,,,,,,,,,,,,,,,,,,,,,,,,,,,,,,,,,,,,,,,
,,,,,,,,,,,,,1,001,2025-01-02_14h25.53.373,IAT(Formal),2021.2.3,Win32,59.52380952,,,,,,,,,,,,,,,,i,1,0.5946,0,79,79,67,1,他的,i,,,,,,,,,,,,,,,,,,,,,,,,,,,,,,,,,,,,,,,,,
,,,,,,,,,,,,,1,001,2025-01-02_14h25.53.373,IAT(Formal),2021.2.3,Win32,59.52380952,,,,,,,,,,,,,,,,e,1,0.5311,,,,,,聪明,e,space,15.8894,0,0,0,12,1,,,,,,,,,,,,,,,,,,,,,,,,,,,,,,,,,,
,,,,,,,,,,,,,1,001,2025-01-02_14h25.53.373,IAT(Formal),2021.2.3,Win32,59.52380952,,,,,,,,,,,,,,,,e,1,0.449,,,,,,诚实,e,,,0,1,1,15,1,,,,,,,,,,,,,,,,,,,,,,,,,,,,,,,,,,
,,,,,,,,,,,,,1,001,2025-01-02_14h25.53.373,IAT(Formal),2021.2.3,Win32,59.52380952,,,,,,,,,,,,,,,,,0,,,,,,,他人,i,,,0,2,2,78,1,,,,,,,,,,,,,,,,,,,,,,,,,,,,,,,,,,
,,,,,,,,,,,,,1,001,2025-01-02_14h25.53.373,IAT(Formal),2021.2.3,Win32,59.52380952,,,,,,,,,,,,,,,,i,1,0.5031,,,,,,他的,i,,,0,3,3,77,1,,,,,,,,,,,,,,,,,,,,,,,,,,,,,,,,,,
,,,,,,,,,,,,,1,001,2025-01-02_14h25.53.373,IAT(Formal),2021.2.3,Win32,59.52380952,,,,,,,,,,,,,,,,i,1,0.4341,,,,,,消极,i,,,0,4,4,35,1,,,,,,,,,,,,,,,,,,,,,,,,,,,,,,,,,,
,,,,,,,,,,,,,1,001,2025-01-02_14h25.53.373,IAT(Formal),2021.2.3,Win32,59.52380952,,,,,,,,,,,,,,,,i,1,0.5392,,,,,,其他,i,,,0,5,5,69,1,,,,,,,,,,,,,,,,,,,,,,,,,,,,,,,,,,
,,,,,,,,,,,,,1,001,2025-01-02_14h25.53.373,IAT(Formal),2021.2.3,Win32,59.52380952,,,,,,,,,,,,,,,,e,1,0.4034,,,,,,自己,e,,,0,6,6,53,1,,,,,,,,,,,,,,,,,,,,,,,,,,,,,,,,,,
,,,,,,,,,,,,,1,001,2025-01-02_14h25.53.373,IAT(Formal),2021.2.3,Win32,59.52380952,,,,,,,,,,,,,,,,i,1,0.5951,,,,,,凶狠,i,,,0,7,7,42,1,,,,,,,,,,,,,,,,,,,,,,,,,,,,,,,,,,
,,,,,,,,,,,,,1,001,2025-01-02_14h25.53.373,IAT(Formal),2021.2.3,Win32,59.52380952,,,,,,,,,,,,,,,,i,0,0.42,,,,,,杰出,e,,,0,8,8,13,1,,,,,,,,,,,,,,,,,,,,,,,,,,,,,,,,,,
,,,,,,,,,,,,,1,001,2025-01-02_14h25.53.373,IAT(Formal),2021.2.3,Win32,59.52380952,,,,,,,,,,,,,,,,i,0,0.5664,,,,,,正直,e,,,0,9,9,16,1,,,,,,,,,,,,,,,,,,,,,,,,,,,,,,,,,,
,,,,,,,,,,,,,1,001,2025-01-02_14h25.53.373,IAT(Formal),2021.2.3,Win32,59.52380952,,,,,,,,,,,,,,,,i,0,0.4829,,,,,,无私,e,,,0,10,10,22,1,,,,,,,,,,,,,,,,,,,,,,,,,,,,,,,,,,
,,,,,,,,,,,,,1,001,2025-01-02_14h25.53.373,IAT(Formal),2021.2.3,Win32,59.52380952,,,,,,,,,,,,,,,,i,1,0.4832,,,,,,他人,i,,,0,11,11,58,1,,,,,,,,,,,,,,,,,,,,,,,,,,,,,,,,,,
,,,,,,,,,,,,,1,001,2025-01-02_14h25.53.373,IAT(Formal),2021.2.3,Win32,59.52380952,,,,,,,,,,,,,,,,i,1,0.5312,,,,,,愚蠢,i,,,0,12,12,32,1,,,,,,,,,,,,,,,,,,,,,,,,,,,,,,,,,,
,,,,,,,,,,,,,1,001,2025-01-02_14h25.53.373,IAT(Formal),2021.2.3,Win32,59.52380952,,,,,,,,,,,,,,,,i,0,0.3174,,,,,,机智,e,,,0,13,13,19,1,,,,,,,,,,,,,,,,,,,,,,,,,,,,,,,,,,
,,,,,,,,,,,,,1,001,2025-01-02_14h25.53.373,IAT(Formal),2021.2.3,Win32,59.52380952,,,,,,,,,,,,,,,,e,1,0.4152,,,,,,自己,e,,,0,14,14,63,1,,,,,,,,,,,,,,,,,,,,,,,,,,,,,,,,,,
,,,,,,,,,,,,,1,001,2025-01-02_14h25.53.373,IAT(Formal),2021.2.3,Win32,59.52380952,,,,,,,,,,,,,,,,e,1,0.3962,,,,,,细腻,e,,,0,15,15,25,1,,,,,,,,,,,,,,,,,,,,,,,,,,,,,,,,,,
,,,,,,,,,,,,,1,001,2025-01-02_14h25.53.373,IAT(Formal),2021.2.3,Win32,59.52380952,,,,,,,,,,,,,,,,i,1,0.4876,,,,,,散漫,i,,,0,16,16,41,1,,,,,,,,,,,,,,,,,,,,,,,,,,,,,,,,,,
,,,,,,,,,,,,,1,001,2025-01-02_14h25.53.373,IAT(Formal),2021.2.3,Win32,59.52380952,,,,,,,,,,,,,,,,e,1,0.4325,,,,,,勇敢,e,,,0,17,17,17,1,,,,,,,,,,,,,,,,,,,,,,,,,,,,,,,,,,
,,,,,,,,,,,,,1,001,2025-01-02_14h25.53.373,IAT(Formal),2021.2.3,Win32,59.52380952,,,,,,,,,,,,,,,,e,1,0.4969,,,,,,我的,e,,,0,18,18,61,1,,,,,,,,,,,,,,,,,,,,,,,,,,,,,,,,,,
,,,,,,,,,,,,,1,001,2025-01-02_14h25.53.373,IAT(Formal),2021.2.3,Win32,59.52380952,,,,,,,,,,,,,,,,i,1,0.4521,,,,,,冒失,i,,,0,19,19,39,1,,,,,,,,,,,,,,,,,,,,,,,,,,,,,,,,,,
,,,,,,,,,,,,,1,001,2025-01-02_14h25.53.373,IAT(Formal),2021.2.3,Win32,59.52380952,,,,,,,,,,,,,,,,i,1,0.4986,,,,,,他们,i,,,0,20,20,6,1,,,,,,,,,,,,,,,,,,,,,,,,,,,,,,,,,,
,,,,,,,,,,,,,1,001,2025-01-02_14h25.53.373,IAT(Formal),2021.2.3,Win32,59.52380952,,,,,,,,,,,,,,,,i,1,0.486,,,,,,他,i,,,0,21,21,55,1,,,,,,,,,,,,,,,,,,,,,,,,,,,,,,,,,,
,,,,,,,,,,,,,1,001,2025-01-02_14h25.53.373,IAT(Formal),2021.2.3,Win32,59.52380952,,,,,,,,,,,,,,,,e,1,0.4318,,,,,,认真,e,,,0,22,22,20,1,,,,,,,,,,,,,,,,,,,,,,,,,,,,,,,,,,
,,,,,,,,,,,,,1,001,2025-01-02_14h25.53.373,IAT(Formal),2021.2.3,Win32,59.52380952,,,,,,,,,,,,,,,,i,1,0.4242,,,,,,其他,i,,,0,23,23,59,1,,,,,,,,,,,,,,,,,,,,,,,,,,,,,,,,,,
,,,,,,,,,,,,,1,001,2025-01-02_14h25.53.373,IAT(Formal),2021.2.3,Win32,59.52380952,,,,,,,,,,,,,,,,i,1,0.4813,,,,,,他人,i,,,0,24,24,8,1,,,,,,,,,,,,,,,,,,,,,,,,,,,,,,,,,,
,,,,,,,,,,,,,1,001,2025-01-02_14h25.53.373,IAT(Formal),2021.2.3,Win32,59.52380952,,,,,,,,,,,,,,,,e,1,0.4308,,,,,,俺,e,,,0,25,25,4,1,,,,,,,,,,,,,,,,,,,,,,,,,,,,,,,,,,
,,,,,,,,,,,,,1,001,2025-01-02_14h25.53.373,IAT(Formal),2021.2.3,Win32,59.52380952,,,,,,,,,,,,,,,,e,0,0.5461,,,,,,他,i,,,0,26,26,65,1,,,,,,,,,,,,,,,,,,,,,,,,,,,,,,,,,,
,,,,,,,,,,,,,1,001,2025-01-02_14h25.53.373,IAT(Formal),2021.2.3,Win32,59.52380952,,,,,,,,,,,,,,,,e,1,0.4656,,,,,,我的,e,,,0,27,27,71,1,,,,,,,,,,,,,,,,,,,,,,,,,,,,,,,,,,
,,,,,,,,,,,,,1,001,2025-01-02_14h25.53.373,IAT(Formal),2021.2.3,Win32,59.52380952,,,,,,,,,,,,,,,,i,1,0.5374,,,,,,悲观,i,,,0,28,28,34,1,,,,,,,,,,,,,,,,,,,,,,,,,,,,,,,,,,
,,,,,,,,,,,,,1,001,2025-01-02_14h25.53.373,IAT(Formal),2021.2.3,Win32,59.52380952,,,,,,,,,,,,,,,,e,1,0.4907,,,,,,朴实,e,,,0,29,29,24,1,,,,,,,,,,,,,,,,,,,,,,,,,,,,,,,,,,
,,,,,,,,,,,,,1,001,2025-01-02_14h25.53.373,IAT(Formal),2021.2.3,Win32,59.52380952,,,,,,,,,,,,,,,,i,1,0.5163,,,,,,他,i,,,0,30,30,75,1,,,,,,,,,,,,,,,,,,,,,,,,,,,,,,,,,,
,,,,,,,,,,,,,1,001,2025-01-02_14h25.53.373,IAT(Formal),2021.2.3,Win32,59.52380952,,,,,,,,,,,,,,,,e,0,0.4357,,,,,,固执,i,,,0,31,31,47,1,,,,,,,,,,,,,,,,,,,,,,,,,,,,,,,,,,
,,,,,,,,,,,,,1,001,2025-01-02_14h25.53.373,IAT(Formal),2021.2.3,Win32,59.52380952,,,,,,,,,,,,,,,,e,1,0.5191,,,,,,诚恳,e,,,0,32,32,29,1,,,,,,,,,,,,,,,,,,,,,,,,,,,,,,,,,,
,,,,,,,,,,,,,1,001,2025-01-02_14h25.53.373,IAT(Formal),2021.2.3,Win32,59.52380952,,,,,,,,,,,,,,,,e,1,0.5622,,,,,,勤奋,e,,,0,33,33,18,1,,,,,,,,,,,,,,,,,,,,,,,,,,,,,,,,,,
,,,,,,,,,,,,,1,001,2025-01-02_14h25.53.373,IAT(Formal),2021.2.3,Win32,59.52380952,,,,,,,,,,,,,,,,i,1,0.5833,,,,,,他人,i,,,0,34,34,68,1,,,,,,,,,,,,,,,,,,,,,,,,,,,,,,,,,,
,,,,,,,,,,,,,1,001,2025-01-02_14h25.53.373,IAT(Formal),2021.2.3,Win32,59.52380952,,,,,,,,,,,,,,,,e,1,0.7327,,,,,,乐观,e,,,0,35,35,14,1,,,,,,,,,,,,,,,,,,,,,,,,,,,,,,,,,,
,,,,,,,,,,,,,1,001,2025-01-02_14h25.53.373,IAT(Formal),2021.2.3,Win32,59.52380952,,,,,,,,,,,,,,,,e,1,0.5529,,,,,,优秀,e,,,0,36,36,10,1,,,,,,,,,,,,,,,,,,,,,,,,,,,,,,,,,,
,,,,,,,,,,,,,1,001,2025-01-02_14h25.53.373,IAT(Formal),2021.2.3,Win32,59.52380952,,,,,,,,,,,,,,,,e,1,0.4605,,,,,,我,e,,,0,37,37,50,1,,,,,,,,,,,,,,,,,,,,,,,,,,,,,,,,,,
,,,,,,,,,,,,,1,001,2025-01-02_14h25.53.373,IAT(Formal),2021.2.3,Win32,59.52380952,,,,,,,,,,,,,,,,e,0,0.6384,,,,,,他,i,,,0,38,38,5,1,,,,,,,,,,,,,,,,,,,,,,,,,,,,,,,,,,
,,,,,,,,,,,,,1,001,2025-01-02_14h25.53.373,IAT(Formal),2021.2.3,Win32,59.52380952,,,,,,,,,,,,,,,,i,1,0.6844,,,,,,执拗,i,,,0,39,39,40,1,,,,,,,,,,,,,,,,,,,,,,,,,,,,,,,,,,
,,,,,,,,,,,,,1,001,2025-01-02_14h25.53.373,IAT(Formal),2021.2.3,Win32,59.52380952,,,,,,,,,,,,,,,,i,1,0.6173,,,,,,轻率,i,,,0,40,40,48,1,,,,,,,,,,,,,,,,,,,,,,,,,,,,,,,,,,
,,,,,,,,,,,,,1,001,2025-01-02_14h25.53.373,IAT(Formal),2021.2.3,Win32,59.52380952,,,,,,,,,,,,,,,,i,1,0.7742,,,,,,他的,i,,,0,41,41,67,1,,,,,,,,,,,,,,,,,,,,,,,,,,,,,,,,,,
,,,,,,,,,,,,,1,001,2025-01-02_14h25.53.373,IAT(Formal),2021.2.3,Win32,59.52380952,,,,,,,,,,,,,,,,e,1,0.4572,,,,,,我的,e,,,0,42,42,51,1,,,,,,,,,,,,,,,,,,,,,,,,,,,,,,,,,,
,,,,,,,,,,,,,1,001,2025-01-02_14h25.53.373,IAT(Formal),2021.2.3,Win32,59.52380952,,,,,,,,,,,,,,,,i,1,0.5638,,,,,,他们,i,,,0,43,43,56,1,,,,,,,,,,,,,,,,,,,,,,,,,,,,,,,,,,
,,,,,,,,,,,,,1,001,2025-01-02_14h25.53.373,IAT(Formal),2021.2.3,Win32,59.52380952,,,,,,,,,,,,,,,,i,1,0.6637,,,,,,刻薄,i,,,0,44,44,33,1,,,,,,,,,,,,,,,,,,,,,,,,,,,,,,,,,,
,,,,,,,,,,,,,1,001,2025-01-02_14h25.53.373,IAT(Formal),2021.2.3,Win32,59.52380952,,,,,,,,,,,,,,,,i,1,0.6178,,,,,,他的,i,,,0,45,45,7,1,,,,,,,,,,,,,,,,,,,,,,,,,,,,,,,,,,
,,,,,,,,,,,,,1,001,2025-01-02_14h25.53.373,IAT(Formal),2021.2.3,Win32,59.52380952,,,,,,,,,,,,,,,,i,1,0.6486,,,,,,其他,i,,,0,46,46,79,1,,,,,,,,,,,,,,,,,,,,,,,,,,,,,,,,,,
,,,,,,,,,,,,,1,001,2025-01-02_14h25.53.373,IAT(Formal),2021.2.3,Win32,59.52380952,,,,,,,,,,,,,,,,i,1,0.6823,,,,,,暴躁,i,,,0,47,47,44,1,,,,,,,,,,,,,,,,,,,,,,,,,,,,,,,,,,
,,,,,,,,,,,,,1,001,2025-01-02_14h25.53.373,IAT(Formal),2021.2.3,Win32,59.52380952,,,,,,,,,,,,,,,,e,1,0.4977,,,,,,冷静,e,,,0,48,48,26,1,,,,,,,,,,,,,,,,,,,,,,,,,,,,,,,,,,
,,,,,,,,,,,,,1,001,2025-01-02_14h25.53.373,IAT(Formal),2021.2.3,Win32,59.52380952,,,,,,,,,,,,,,,,e,1,0.466,,,,,,我们,e,,,0,49,49,52,1,,,,,,,,,,,,,,,,,,,,,,,,,,,,,,,,,,
,,,,,,,,,,,,,1,001,2025-01-02_14h25.53.373,IAT(Formal),2021.2.3,Win32,59.52380952,,,,,,,,,,,,,,,,e,1,0.5551,,,,,,崇高,e,,,0,50,50,11,1,,,,,,,,,,,,,,,,,,,,,,,,,,,,,,,,,,
,,,,,,,,,,,,,1,001,2025-01-02_14h25.53.373,IAT(Formal),2021.2.3,Win32,59.52380952,,,,,,,,,,,,,,,,e,1,0.5589,,,,,,我们,e,,,0,51,51,2,1,,,,,,,,,,,,,,,,,,,,,,,,,,,,,,,,,,
,,,,,,,,,,,,,1,001,2025-01-02_14h25.53.373,IAT(Formal),2021.2.3,Win32,59.52380952,,,,,,,,,,,,,,,,i,1,0.7016,,,,,,猖狂,i,,,0,52,52,45,1,,,,,,,,,,,,,,,,,,,,,,,,,,,,,,,,,,
,,,,,,,,,,,,,1,001,2025-01-02_14h25.53.373,IAT(Formal),2021.2.3,Win32,59.52380952,,,,,,,,,,,,,,,,e,1,0.4988,,,,,,我,e,,,0,53,53,70,1,,,,,,,,,,,,,,,,,,,,,,,,,,,,,,,,,,
,,,,,,,,,,,,,1,001,2025-01-02_14h25.53.373,IAT(Formal),2021.2.3,Win32,59.52380952,,,,,,,,,,,,,,,,e,1,0.4779,,,,,,我们,e,,,0,54,54,62,1,,,,,,,,,,,,,,,,,,,,,,,,,,,,,,,,,,
,,,,,,,,,,,,,1,001,2025-01-02_14h25.53.373,IAT(Formal),2021.2.3,Win32,59.52380952,,,,,,,,,,,,,,,,e,0,0.5386,,,,,,他们,i,,,0,55,55,76,1,,,,,,,,,,,,,,,,,,,,,,,,,,,,,,,,,,
,,,,,,,,,,,,,1,001,2025-01-02_14h25.53.373,IAT(Formal),2021.2.3,Win32,59.52380952,,,,,,,,,,,,,,,,e,1,0.5002,,,,,,我的,e,,,0,56,56,1,1,,,,,,,,,,,,,,,,,,,,,,,,,,,,,,,,,,
,,,,,,,,,,,,,1,001,2025-01-02_14h25.53.373,IAT(Formal),2021.2.3,Win32,59.52380952,,,,,,,,,,,,,,,,e,0,0.612,,,,,,下贱,i,,,0,57,57,49,1,,,,,,,,,,,,,,,,,,,,,,,,,,,,,,,,,,
,,,,,,,,,,,,,1,001,2025-01-02_14h25.53.373,IAT(Formal),2021.2.3,Win32,59.52380952,,,,,,,,,,,,,,,,e,0,0.4869,,,,,,野蛮,i,,,0,58,58,46,1,,,,,,,,,,,,,,,,,,,,,,,,,,,,,,,,,,
,,,,,,,,,,,,,1,001,2025-01-02_14h25.53.373,IAT(Formal),2021.2.3,Win32,59.52380952,,,,,,,,,,,,,,,,e,1,0.4518,,,,,,我,e,,,0,59,59,0,1,,,,,,,,,,,,,,,,,,,,,,,,,,,,,,,,,,
,,,,,,,,,,,,,1,001,2025-01-02_14h25.53.373,IAT(Formal),2021.2.3,Win32,59.52380952,,,,,,,,,,,,,,,,e,1,0.4808,,,,,,俺,e,,,0,60,60,74,1,,,,,,,,,,,,,,,,,,,,,,,,,,,,,,,,,,
,,,,,,,,,,,,,1,001,2025-01-02_14h25.53.373,IAT(Formal),2021.2.3,Win32,59.52380952,,,,,,,,,,,,,,,,e,1,0.4857,,,,,,俺,e,,,0,61,61,64,1,,,,,,,,,,,,,,,,,,,,,,,,,,,,,,,,,,
,,,,,,,,,,,,,1,001,2025-01-02_14h25.53.373,IAT(Formal),2021.2.3,Win32,59.52380952,,,,,,,,,,,,,,,,i,1,0.4866,,,,,,虚伪,i,,,0,62,62,31,1,,,,,,,,,,,,,,,,,,,,,,,,,,,,,,,,,,
,,,,,,,,,,,,,1,001,2025-01-02_14h25.53.373,IAT(Formal),2021.2.3,Win32,59.52380952,,,,,,,,,,,,,,,,e,1,0.4155,,,,,,热情,e,,,0,63,63,27,1,,,,,,,,,,,,,,,,,,,,,,,,,,,,,,,,,,
,,,,,,,,,,,,,1,001,2025-01-02_14h25.53.373,IAT(Formal),2021.2.3,Win32,59.52380952,,,,,,,,,,,,,,,,i,1,0.4297,,,,,,其他,i,,,0,64,64,9,1,,,,,,,,,,,,,,,,,,,,,,,,,,,,,,,,,,
,,,,,,,,,,,,,1,001,2025-01-02_14h25.53.373,IAT(Formal),2021.2.3,Win32,59.52380952,,,,,,,,,,,,,,,,e,1,0.48,,,,,,稳重,e,,,0,65,65,21,1,,,,,,,,,,,,,,,,,,,,,,,,,,,,,,,,,,
,,,,,,,,,,,,,1,001,2025-01-02_14h25.53.373,IAT(Formal),2021.2.3,Win32,59.52380952,,,,,,,,,,,,,,,,e,1,0.5202,,,,,,我们,e,,,0,66,66,72,1,,,,,,,,,,,,,,,,,,,,,,,,,,,,,,,,,,
,,,,,,,,,,,,,1,001,2025-01-02_14h25.53.373,IAT(Formal),2021.2.3,Win32,59.52380952,,,,,,,,,,,,,,,,i,1,0.4707,,,,,,傲慢,i,,,0,67,67,37,1,,,,,,,,,,,,,,,,,,,,,,,,,,,,,,,,,,
,,,,,,,,,,,,,1,001,2025-01-02_14h25.53.373,IAT(Formal),2021.2.3,Win32,59.52380952,,,,,,,,,,,,,,,,e,1,0.448,,,,,,我,e,,,0,68,68,60,1,,,,,,,,,,,,,,,,,,,,,,,,,,,,,,,,,,
,,,,,,,,,,,,,1,001,2025-01-02_14h25.53.373,IAT(Formal),2021.2.3,Win32,59.52380952,,,,,,,,,,,,,,,,e,1,0.4025,,,,,,自己,e,,,0,69,69,3,1,,,,,,,,,,,,,,,,,,,,,,,,,,,,,,,,,,
,,,,,,,,,,,,,1,001,2025-01-02_14h25.53.373,IAT(Formal),2021.2.3,Win32,59.52380952,,,,,,,,,,,,,,,,e,1,0.3923,,,,,,自己,e,,,0,70,70,73,1,,,,,,,,,,,,,,,,,,,,,,,,,,,,,,,,,,
,,,,,,,,,,,,,1,001,2025-01-02_14h25.53.373,IAT(Formal),2021.2.3,Win32,59.52380952,,,,,,,,,,,,,,,,e,0,0.4385,,,,,,鲁莽,i,,,0,71,71,38,1,,,,,,,,,,,,,,,,,,,,,,,,,,,,,,,,,,
,,,,,,,,,,,,,1,001,2025-01-02_14h25.53.373,IAT(Formal),2021.2.3,Win32,59.52380952,,,,,,,,,,,,,,,,e,0,0.4001,,,,,,他们,i,,,0,72,72,66,1,,,,,,,,,,,,,,,,,,,,,,,,,,,,,,,,,,
,,,,,,,,,,,,,1,001,2025-01-02_14h25.53.373,IAT(Formal),2021.2.3,Win32,59.52380952,,,,,,,,,,,,,,,,e,0,0.5065,,,,,,自卑,i,,,0,73,73,36,1,,,,,,,,,,,,,,,,,,,,,,,,,,,,,,,,,,
,,,,,,,,,,,,,1,001,2025-01-02_14h25.53.373,IAT(Formal),2021.2.3,Win32,59.52380952,,,,,,,,,,,,,,,,e,1,0.78,,,,,,活泼,e,,,0,74,74,28,1,,,,,,,,,,,,,,,,,,,,,,,,,,,,,,,,,,
,,,,,,,,,,,,,1,001,2025-01-02_14h25.53.373,IAT(Formal),2021.2.3,Win32,59.52380952,,,,,,,,,,,,,,,,i,1,0.7025,,,,,,自私,i,,,0,75,75,43,1,,,,,,,,,,,,,,,,,,,,,,,,,,,,,,,,,,
,,,,,,,,,,,,,1,001,2025-01-02_14h25.53.373,IAT(Formal),2021.2.3,Win32,59.52380952,,,,,,,,,,,,,,,,e,1,0.4337,,,,,,公正,e,,,0,76,76,23,1,,,,,,,,,,,,,,,,,,,,,,,,,,,,,,,,,,
,,,,,,,,,,,,,1,001,2025-01-02_14h25.53.373,IAT(Formal),2021.2.3,Win32,59.52380952,,,,,,,,,,,,,,,,e,1,0.469,,,,,,俺,e,,,0,77,77,54,1,,,,,,,,,,,,,,,,,,,,,,,,,,,,,,,,,,
,,,,,,,,,,,,,1,001,2025-01-02_14h25.53.373,IAT(Formal),2021.2.3,Win32,59.52380952,,,,,,,,,,,,,,,,i,1,0.5792,,,,,,卑鄙,i,,,0,78,78,30,1,,,,,,,,,,,,,,,,,,,,,,,,,,,,,,,,,,
,,,,,,,,,,,,,1,001,2025-01-02_14h25.53.373,IAT(Formal),2021.2.3,Win32,59.52380952,,,,,,,,,,,,,,,,e,0,0.5192,,,,,,他的,i,,,0,79,79,57,1,,,,,,,,,,,,,,,,,,,,,,,,,,,,,,,,,,
,,,,,,,,,,,,,1,001,2025-01-02_14h25.53.373,IAT(Formal),2021.2.3,Win32,59.52380952,,,,,,,,,,,,,,,,e,1,0.4125,,,,,,俺,e,,,1,0,80,54,1,,,,,,,,,,,,,,,,,,,,,,,,,,,,,,,,,,
,,,,,,,,,,,,,1,001,2025-01-02_14h25.53.373,IAT(Formal),2021.2.3,Win32,59.52380952,,,,,,,,,,,,,,,,e,1,0.449,,,,,,我,e,,,1,1,81,70,1,,,,,,,,,,,,,,,,,,,,,,,,,,,,,,,,,,
,,,,,,,,,,,,,1,001,2025-01-02_14h25.53.373,IAT(Formal),2021.2.3,Win32,59.52380952,,,,,,,,,,,,,,,,i,1,0.5504,,,,,,轻率,i,,,1,2,82,48,1,,,,,,,,,,,,,,,,,,,,,,,,,,,,,,,,,,
,,,,,,,,,,,,,1,001,2025-01-02_14h25.53.373,IAT(Formal),2021.2.3,Win32,59.52380952,,,,,,,,,,,,,,,,e,1,0.4297,,,,,,我的,e,,,1,3,83,1,1,,,,,,,,,,,,,,,,,,,,,,,,,,,,,,,,,,
,,,,,,,,,,,,,1,001,2025-01-02_14h25.53.373,IAT(Formal),2021.2.3,Win32,59.52380952,,,,,,,,,,,,,,,,i,1,0.5694,,,,,,野蛮,i,,,1,4,84,46,1,,,,,,,,,,,,,,,,,,,,,,,,,,,,,,,,,,
,,,,,,,,,,,,,1,001,2025-01-02_14h25.53.373,IAT(Formal),2021.2.3,Win32,59.52380952,,,,,,,,,,,,,,,,i,1,0.6017,,,,,,凶狠,i,,,1,5,85,42,1,,,,,,,,,,,,,,,,,,,,,,,,,,,,,,,,,,
,,,,,,,,,,,,,1,001,2025-01-02_14h25.53.373,IAT(Formal),2021.2.3,Win32,59.52380952,,,,,,,,,,,,,,,,e,0,0.6614,,,,,,他,i,,,1,6,86,55,1,,,,,,,,,,,,,,,,,,,,,,,,,,,,,,,,,,
,,,,,,,,,,,,,1,001,2025-01-02_14h25.53.373,IAT(Formal),2021.2.3,Win32,59.52380952,,,,,,,,,,,,,,,,e,0,0.465,,,,,,猖狂,i,,,1,7,87,45,1,,,,,,,,,,,,,,,,,,,,,,,,,,,,,,,,,,
,,,,,,,,,,,,,1,001,2025-01-02_14h25.53.373,IAT(Formal),2021.2.3,Win32,59.52380952,,,,,,,,,,,,,,,,e,1,0.4065,,,,,,聪明,e,,,1,8,88,12,1,,,,,,,,,,,,,,,,,,,,,,,,,,,,,,,,,,
,,,,,,,,,,,,,1,001,2025-01-02_14h25.53.373,IAT(Formal),2021.2.3,Win32,59.52380952,,,,,,,,,,,,,,,,i,1,0.6523,,,,,,他人,i,,,1,9,89,68,1,,,,,,,,,,,,,,,,,,,,,,,,,,,,,,,,,,
,,,,,,,,,,,,,1,001,2025-01-02_14h25.53.373,IAT(Formal),2021.2.3,Win32,59.52380952,,,,,,,,,,,,,,,,i,1,0.5472,,,,,,鲁莽,i,,,1,10,90,38,1,,,,,,,,,,,,,,,,,,,,,,,,,,,,,,,,,,
,,,,,,,,,,,,,1,001,2025-01-02_14h25.53.373,IAT(Formal),2021.2.3,Win32,59.52380952,,,,,,,,,,,,,,,,e,1,0.4802,,,,,,公正,e,,,1,11,91,23,1,,,,,,,,,,,,,,,,,,,,,,,,,,,,,,,,,,
,,,,,,,,,,,,,1,001,2025-01-02_14h25.53.373,IAT(Formal),2021.2.3,Win32,59.52380952,,,,,,,,,,,,,,,,e,1,0.4824,,,,,,认真,e,,,1,12,92,20,1,,,,,,,,,,,,,,,,,,,,,,,,,,,,,,,,,,
,,,,,,,,,,,,,1,001,2025-01-02_14h25.53.373,IAT(Formal),2021.2.3,Win32,59.52380952,,,,,,,,,,,,,,,,i,1,0.5257,,,,,,他们,i,,,1,13,93,66,1,,,,,,,,,,,,,,,,,,,,,,,,,,,,,,,,,,
,,,,,,,,,,,,,1,001,2025-01-02_14h25.53.373,IAT(Formal),2021.2.3,Win32,59.52380952,,,,,,,,,,,,,,,,e,0,0.894,,,,,,执拗,i,,,1,14,94,40,1,,,,,,,,,,,,,,,,,,,,,,,,,,,,,,,,,,
,,,,,,,,,,,,,1,001,2025-01-02_14h25.53.373,IAT(Formal),2021.2.3,Win32,59.52380952,,,,,,,,,,,,,,,,e,1,0.4463,,,,,,我们,e,,,1,15,95,62,1,,,,,,,,,,,,,,,,,,,,,,,,,,,,,,,,,,
,,,,,,,,,,,,,1,001,2025-01-02_14h25.53.373,IAT(Formal),2021.2.3,Win32,59.52380952,,,,,,,,,,,,,,,,i,1,0.5498,,,,,,他,i,,,1,16,96,5,1,,,,,,,,,,,,,,,,,,,,,,,,,,,,,,,,,,
,,,,,,,,,,,,,1,001,2025-01-02_14h25.53.373,IAT(Formal),2021.2.3,Win32,59.52380952,,,,,,,,,,,,,,,,e,1,0.5305,,,,,,我的,e,,,1,17,97,61,1,,,,,,,,,,,,,,,,,,,,,,,,,,,,,,,,,,
,,,,,,,,,,,,,1,001,2025-01-02_14h25.53.373,IAT(Formal),2021.2.3,Win32,59.52380952,,,,,,,,,,,,,,,,i,1,0.5466,,,,,,暴躁,i,,,1,18,98,44,1,,,,,,,,,,,,,,,,,,,,,,,,,,,,,,,,,,
,,,,,,,,,,,,,1,001,2025-01-02_14h25.53.373,IAT(Formal),2021.2.3,Win32,59.52380952,,,,,,,,,,,,,,,,e,1,0.3434,,,,,,我的,e,,,1,19,99,51,1,,,,,,,,,,,,,,,,,,,,,,,,,,,,,,,,,,
,,,,,,,,,,,,,1,001,2025-01-02_14h25.53.373,IAT(Formal),2021.2.3,Win32,59.52380952,,,,,,,,,,,,,,,,e,1,0.6001,,,,,,勇敢,e,,,1,20,100,17,1,,,,,,,,,,,,,,,,,,,,,,,,,,,,,,,,,,
,,,,,,,,,,,,,1,001,2025-01-02_14h25.53.373,IAT(Formal),2021.2.3,Win32,59.52380952,,,,,,,,,,,,,,,,i,0,0.4818,,,,,,俺,e,,,1,21,101,4,1,,,,,,,,,,,,,,,,,,,,,,,,,,,,,,,,,,
,,,,,,,,,,,,,1,001,2025-01-02_14h25.53.373,IAT(Formal),2021.2.3,Win32,59.52380952,,,,,,,,,,,,,,,,i,1,0.597,,,,,,其他,i,,,1,22,102,69,1,,,,,,,,,,,,,,,,,,,,,,,,,,,,,,,,,,
,,,,,,,,,,,,,1,001,2025-01-02_14h25.53.373,IAT(Formal),2021.2.3,Win32,59.52380952,,,,,,,,,,,,,,,,i,1,0.6199,,,,,,他人,i,,,1,23,103,8,1,,,,,,,,,,,,,,,,,,,,,,,,,,,,,,,,,,
,,,,,,,,,,,,,1,001,2025-01-02_14h25.53.373,IAT(Formal),2021.2.3,Win32,59.52380952,,,,,,,,,,,,,,,,e,1,0.484,,,,,,无私,e,,,1,24,104,22,1,,,,,,,,,,,,,,,,,,,,,,,,,,,,,,,,,,
,,,,,,,,,,,,,1,001,2025-01-02_14h25.53.373,IAT(Formal),2021.2.3,Win32,59.52380952,,,,,,,,,,,,,,,,e,1,0.6186,,,,,,我,e,,,1,25,105,50,1,,,,,,,,,,,,,,,,,,,,,,,,,,,,,,,,,,
,,,,,,,,,,,,,1,001,2025-01-02_14h25.53.373,IAT(Formal),2021.2.3,Win32,59.52380952,,,,,,,,,,,,,,,,e,1,0.4331,,,,,,我,e,,,1,26,106,0,1,,,,,,,,,,,,,,,,,,,,,,,,,,,,,,,,,,
,,,,,,,,,,,,,1,001,2025-01-02_14h25.53.373,IAT(Formal),2021.2.3,Win32,59.52380952,,,,,,,,,,,,,,,,i,1,0.6379,,,,,,愚蠢,i,,,1,27,107,32,1,,,,,,,,,,,,,,,,,,,,,,,,,,,,,,,,,,
,,,,,,,,,,,,,1,001,2025-01-02_14h25.53.373,IAT(Formal),2021.2.3,Win32,59.52380952,,,,,,,,,,,,,,,,i,1,0.8471,,,,,,他们,i,,,1,28,108,76,1,,,,,,,,,,,,,,,,,,,,,,,,,,,,,,,,,,
,,,,,,,,,,,,,1,001,2025-01-02_14h25.53.373,IAT(Formal),2021.2.3,Win32,59.52380952,,,,,,,,,,,,,,,,e,1,0.7028,,,,,,我们,e,,,1,29,109,72,1,,,,,,,,,,,,,,,,,,,,,,,,,,,,,,,,,,
,,,,,,,,,,,,,1,001,2025-01-02_14h25.53.373,IAT(Formal),2021.2.3,Win32,59.52380952,,,,,,,,,,,,,,,,e,1,0.6307,,,,,,俺,e,,,1,30,110,74,1,,,,,,,,,,,,,,,,,,,,,,,,,,,,,,,,,,
,,,,,,,,,,,,,1,001,2025-01-02_14h25.53.373,IAT(Formal),2021.2.3,Win32,59.52380952,,,,,,,,,,,,,,,,i,1,0.6356,,,,,,固执,i,,,1,31,111,47,1,,,,,,,,,,,,,,,,,,,,,,,,,,,,,,,,,,
,,,,,,,,,,,,,1,001,2025-01-02_14h25.53.373,IAT(Formal),2021.2.3,Win32,59.52380952,,,,,,,,,,,,,,,,i,1,0.7795,,,,,,下贱,i,,,1,32,112,49,1,,,,,,,,,,,,,,,,,,,,,,,,,,,,,,,,,,
,,,,,,,,,,,,,1,001,2025-01-02_14h25.53.373,IAT(Formal),2021.2.3,Win32,59.52380952,,,,,,,,,,,,,,,,e,0,0.6679,,,,,,散漫,i,,,1,33,113,41,1,,,,,,,,,,,,,,,,,,,,,,,,,,,,,,,,,,
,,,,,,,,,,,,,1,001,2025-01-02_14h25.53.373,IAT(Formal),2021.2.3,Win32,59.52380952,,,,,,,,,,,,,,,,e,0,0.4779,,,,,,他们,i,,,1,34,114,56,1,,,,,,,,,,,,,,,,,,,,,,,,,,,,,,,,,,
,,,,,,,,,,,,,1,001,2025-01-02_14h25.53.373,IAT(Formal),2021.2.3,Win32,59.52380952,,,,,,,,,,,,,,,,i,1,0.9325,,,,,,他的,i,,,1,35,115,77,1,,,,,,,,,,,,,,,,,,,,,,,,,,,,,,,,,,
,,,,,,,,,,,,,1,001,2025-01-02_14h25.53.373,IAT(Formal),2021.2.3,Win32,59.52380952,,,,,,,,,,,,,,,,e,1,0.436,,,,,,朴实,e,,,1,36,116,24,1,,,,,,,,,,,,,,,,,,,,,,,,,,,,,,,,,,
,,,,,,,,,,,,,1,001,2025-01-02_14h25.53.373,IAT(Formal),2021.2.3,Win32,59.52380952,,,,,,,,,,,,,,,,e,1,0.6887,,,,,,我们,e,,,1,37,117,52,1,,,,,,,,,,,,,,,,,,,,,,,,,,,,,,,,,,
,,,,,,,,,,,,,1,001,2025-01-02_14h25.53.373,IAT(Formal),2021.2.3,Win32,59.52380952,,,,,,,,,,,,,,,,i,1,0.6329,,,,,,卑鄙,i,,,1,38,118,30,1,,,,,,,,,,,,,,,,,,,,,,,,,,,,,,,,,,
,,,,,,,,,,,,,1,001,2025-01-02_14h25.53.373,IAT(Formal),2021.2.3,Win32,59.52380952,,,,,,,,,,,,,,,,e,0,0.8336,,,,,,消极,i,,,1,39,119,35,1,,,,,,,,,,,,,,,,,,,,,,,,,,,,,,,,,,
,,,,,,,,,,,,,1,001,2025-01-02_14h25.53.373,IAT(Formal),2021.2.3,Win32,59.52380952,,,,,,,,,,,,,,,,e,1,0.6313,,,,,,自己,e,,,1,40,120,73,1,,,,,,,,,,,,,,,,,,,,,,,,,,,,,,,,,,
,,,,,,,,,,,,,1,001,2025-01-02_14h25.53.373,IAT(Formal),2021.2.3,Win32,59.52380952,,,,,,,,,,,,,,,,e,1,0.5314,,,,,,优秀,e,,,1,41,121,10,1,,,,,,,,,,,,,,,,,,,,,,,,,,,,,,,,,,
,,,,,,,,,,,,,1,001,2025-01-02_14h25.53.373,IAT(Formal),2021.2.3,Win32,59.52380952,,,,,,,,,,,,,,,,e,1,0.5533,,,,,,细腻,e,,,1,42,122,25,1,,,,,,,,,,,,,,,,,,,,,,,,,,,,,,,,,,
,,,,,,,,,,,,,1,001,2025-01-02_14h25.53.373,IAT(Formal),2021.2.3,Win32,59.52380952,,,,,,,,,,,,,,,,e,1,0.6472,,,,,,冷静,e,,,1,43,123,26,1,,,,,,,,,,,,,,,,,,,,,,,,,,,,,,,,,,
,,,,,,,,,,,,,1,001,2025-01-02_14h25.53.373,IAT(Formal),2021.2.3,Win32,59.52380952,,,,,,,,,,,,,,,,e,1,0.5797,,,,,,俺,e,,,1,44,124,64,1,,,,,,,,,,,,,,,,,,,,,,,,,,,,,,,,,,
,,,,,,,,,,,,,1,001,2025-01-02_14h25.53.373,IAT(Formal),2021.2.3,Win32,59.52380952,,,,,,,,,,,,,,,,i,1,0.7009,,,,,,他的,i,,,1,45,125,67,1,,,,,,,,,,,,,,,,,,,,,,,,,,,,,,,,,,
,,,,,,,,,,,,,1,001,2025-01-02_14h25.53.373,IAT(Formal),2021.2.3,Win32,59.52380952,,,,,,,,,,,,,,,,i,1,0.586,,,,,,他人,i,,,1,46,126,58,1,,,,,,,,,,,,,,,,,,,,,,,,,,,,,,,,,,
,,,,,,,,,,,,,1,001,2025-01-02_14h25.53.373,IAT(Formal),2021.2.3,Win32,59.52380952,,,,,,,,,,,,,,,,e,1,0.529,,,,,,诚实,e,,,1,47,127,15,1,,,,,,,,,,,,,,,,,,,,,,,,,,,,,,,,,,
,,,,,,,,,,,,,1,001,2025-01-02_14h25.53.373,IAT(Formal),2021.2.3,Win32,59.52380952,,,,,,,,,,,,,,,,e,1,0.6045,,,,,,我的,e,,,1,48,128,71,1,,,,,,,,,,,,,,,,,,,,,,,,,,,,,,,,,,
,,,,,,,,,,,,,1,001,2025-01-02_14h25.53.373,IAT(Formal),2021.2.3,Win32,59.52380952,,,,,,,,,,,,,,,,e,1,0.5463,,,,,,诚恳,e,,,1,49,129,29,1,,,,,,,,,,,,,,,,,,,,,,,,,,,,,,,,,,
,,,,,,,,,,,,,1,001,2025-01-02_14h25.53.373,IAT(Formal),2021.2.3,Win32,59.52380952,,,,,,,,,,,,,,,,i,1,0.6871,,,,,,自卑,i,,,1,50,130,36,1,,,,,,,,,,,,,,,,,,,,,,,,,,,,,,,,,,
,,,,,,,,,,,,,1,001,2025-01-02_14h25.53.373,IAT(Formal),2021.2.3,Win32,59.52380952,,,,,,,,,,,,,,,,i,1,1.0974,,,,,,他们,i,,,1,51,131,6,1,,,,,,,,,,,,,,,,,,,,,,,,,,,,,,,,,,
,,,,,,,,,,,,,1,001,2025-01-02_14h25.53.373,IAT(Formal),2021.2.3,Win32,59.52380952,,,,,,,,,,,,,,,,e,1,0.65,,,,,,我们,e,,,1,52,132,2,1,,,,,,,,,,,,,,,,,,,,,,,,,,,,,,,,,,
,,,,,,,,,,,,,1,001,2025-01-02_14h25.53.373,IAT(Formal),2021.2.3,Win32,59.52380952,,,,,,,,,,,,,,,,i,1,0.5832,,,,,,虚伪,i,,,1,53,133,31,1,,,,,,,,,,,,,,,,,,,,,,,,,,,,,,,,,,
,,,,,,,,,,,,,1,001,2025-01-02_14h25.53.373,IAT(Formal),2021.2.3,Win32,59.52380952,,,,,,,,,,,,,,,,e,1,0.4999,,,,,,活泼,e,,,1,54,134,28,1,,,,,,,,,,,,,,,,,,,,,,,,,,,,,,,,,,
,,,,,,,,,,,,,1,001,2025-01-02_14h25.53.373,IAT(Formal),2021.2.3,Win32,59.52380952,,,,,,,,,,,,,,,,e,1,0.4508,,,,,,热情,e,,,1,55,135,27,1,,,,,,,,,,,,,,,,,,,,,,,,,,,,,,,,,,
,,,,,,,,,,,,,1,001,2025-01-02_14h25.53.373,IAT(Formal),2021.2.3,Win32,59.52380952,,,,,,,,,,,,,,,,i,1,0.716,,,,,,他,i,,,1,56,136,65,1,,,,,,,,,,,,,,,,,,,,,,,,,,,,,,,,,,
,,,,,,,,,,,,,1,001,2025-01-02_14h25.53.373,IAT(Formal),2021.2.3,Win32,59.52380952,,,,,,,,,,,,,,,,e,1,0.4717,,,,,,自己,e,,,1,57,137,63,1,,,,,,,,,,,,,,,,,,,,,,,,,,,,,,,,,,
,,,,,,,,,,,,,1,001,2025-01-02_14h25.53.373,IAT(Formal),2021.2.3,Win32,59.52380952,,,,,,,,,,,,,,,,i,1,0.5823,,,,,,自私,i,,,1,58,138,43,1,,,,,,,,,,,,,,,,,,,,,,,,,,,,,,,,,,
,,,,,,,,,,,,,1,001,2025-01-02_14h25.53.373,IAT(Formal),2021.2.3,Win32,59.52380952,,,,,,,,,,,,,,,,i,1,0.6498,,,,,,其他,i,,,1,59,139,59,1,,,,,,,,,,,,,,,,,,,,,,,,,,,,,,,,,,
,,,,,,,,,,,,,1,001,2025-01-02_14h25.53.373,IAT(Formal),2021.2.3,Win32,59.52380952,,,,,,,,,,,,,,,,e,1,0.6093,,,,,,杰出,e,,,1,60,140,13,1,,,,,,,,,,,,,,,,,,,,,,,,,,,,,,,,,,
,,,,,,,,,,,,,1,001,2025-01-02_14h25.53.373,IAT(Formal),2021.2.3,Win32,59.52380952,,,,,,,,,,,,,,,,e,0,0.521,,,,,,他,i,,,1,61,141,75,1,,,,,,,,,,,,,,,,,,,,,,,,,,,,,,,,,,
,,,,,,,,,,,,,1,001,2025-01-02_14h25.53.373,IAT(Formal),2021.2.3,Win32,59.52380952,,,,,,,,,,,,,,,,e,1,0.4275,,,,,,勤奋,e,,,1,62,142,18,1,,,,,,,,,,,,,,,,,,,,,,,,,,,,,,,,,,
,,,,,,,,,,,,,1,001,2025-01-02_14h25.53.373,IAT(Formal),2021.2.3,Win32,59.52380952,,,,,,,,,,,,,,,,e,1,0.5741,,,,,,机智,e,,,1,63,143,19,1,,,,,,,,,,,,,,,,,,,,,,,,,,,,,,,,,,
,,,,,,,,,,,,,1,001,2025-01-02_14h25.53.373,IAT(Formal),2021.2.3,Win32,59.52380952,,,,,,,,,,,,,,,,i,1,0.5528,,,,,,他人,i,,,1,64,144,78,1,,,,,,,,,,,,,,,,,,,,,,,,,,,,,,,,,,
,,,,,,,,,,,,,1,001,2025-01-02_14h25.53.373,IAT(Formal),2021.2.3,Win32,59.52380952,,,,,,,,,,,,,,,,i,1,0.6042,,,,,,悲观,i,,,1,65,145,34,1,,,,,,,,,,,,,,,,,,,,,,,,,,,,,,,,,,
,,,,,,,,,,,,,1,001,2025-01-02_14h25.53.373,IAT(Formal),2021.2.3,Win32,59.52380952,,,,,,,,,,,,,,,,e,1,0.4513,,,,,,我,e,,,1,66,146,60,1,,,,,,,,,,,,,,,,,,,,,,,,,,,,,,,,,,
,,,,,,,,,,,,,1,001,2025-01-02_14h25.53.373,IAT(Formal),2021.2.3,Win32,59.52380952,,,,,,,,,,,,,,,,i,1,0.4468,,,,,,冒失,i,,,1,67,147,39,1,,,,,,,,,,,,,,,,,,,,,,,,,,,,,,,,,,
,,,,,,,,,,,,,1,001,2025-01-02_14h25.53.373,IAT(Formal),2021.2.3,Win32,59.52380952,,,,,,,,,,,,,,,,i,1,0.6537,,,,,,刻薄,i,,,1,68,148,33,1,,,,,,,,,,,,,,,,,,,,,,,,,,,,,,,,,,
,,,,,,,,,,,,,1,001,2025-01-02_14h25.53.373,IAT(Formal),2021.2.3,Win32,59.52380952,,,,,,,,,,,,,,,,e,1,0.5933,,,,,,乐观,e,,,1,69,149,14,1,,,,,,,,,,,,,,,,,,,,,,,,,,,,,,,,,,
,,,,,,,,,,,,,1,001,2025-01-02_14h25.53.373,IAT(Formal),2021.2.3,Win32,59.52380952,,,,,,,,,,,,,,,,i,1,0.5374,,,,,,其他,i,,,1,70,150,79,1,,,,,,,,,,,,,,,,,,,,,,,,,,,,,,,,,,
,,,,,,,,,,,,,1,001,2025-01-02_14h25.53.373,IAT(Formal),2021.2.3,Win32,59.52380952,,,,,,,,,,,,,,,,e,1,0.4675,,,,,,崇高,e,,,1,71,151,11,1,,,,,,,,,,,,,,,,,,,,,,,,,,,,,,,,,,
,,,,,,,,,,,,,1,001,2025-01-02_14h25.53.373,IAT(Formal),2021.2.3,Win32,59.52380952,,,,,,,,,,,,,,,,e,0,0.4348,,,,,,傲慢,i,,,1,72,152,37,1,,,,,,,,,,,,,,,,,,,,,,,,,,,,,,,,,,
,,,,,,,,,,,,,1,001,2025-01-02_14h25.53.373,IAT(Formal),2021.2.3,Win32,59.52380952,,,,,,,,,,,,,,,,e,1,0.6683,,,,,,自己,e,,,1,73,153,3,1,,,,,,,,,,,,,,,,,,,,,,,,,,,,,,,,,,
,,,,,,,,,,,,,1,001,2025-01-02_14h25.53.373,IAT(Formal),2021.2.3,Win32,59.52380952,,,,,,,,,,,,,,,,e,1,0.4573,,,,,,自己,e,,,1,74,154,53,1,,,,,,,,,,,,,,,,,,,,,,,,,,,,,,,,,,
,,,,,,,,,,,,,1,001,2025-01-02_14h25.53.373,IAT(Formal),2021.2.3,Win32,59.52380952,,,,,,,,,,,,,,,,e,1,0.7485,,,,,,稳重,e,,,1,75,155,21,1,,,,,,,,,,,,,,,,,,,,,,,,,,,,,,,,,,
,,,,,,,,,,,,,1,001,2025-01-02_14h25.53.373,IAT(Formal),2021.2.3,Win32,59.52380952,,,,,,,,,,,,,,,,i,1,0.4667,,,,,,其他,i,,,1,76,156,9,1,,,,,,,,,,,,,,,,,,,,,,,,,,,,,,,,,,
,,,,,,,,,,,,,1,001,2025-01-02_14h25.53.373,IAT(Formal),2021.2.3,Win32,59.52380952,,,,,,,,,,,,,,,,i,1,0.6323,,,,,,他的,i,,,1,77,157,57,1,,,,,,,,,,,,,,,,,,,,,,,,,,,,,,,,,,
,,,,,,,,,,,,,1,001,2025-01-02_14h25.53.373,IAT(Formal),2021.2.3,Win32,59.52380952,,,,,,,,,,,,,,,,e,1,0.5045,,,,,,正直,e,,,1,78,158,16,1,,,,,,,,,,,,,,,,,,,,,,,,,,,,,,,,,,
,,,,,,,,,,,,,1,001,2025-01-02_14h25.53.373,IAT(Formal),2021.2.3,Win32,59.52380952,,,,,,,,,,,,,,,,e,0,0.455,,,,,,他的,i,,,1,79,159,7,1,,,,,,,,,,,,,,,,,,,,,,,,,,,,,,,,,,
,,,,,,,,,,,他的,e,1,001,2025-01-02_14h25.53.373,IAT(Formal),2021.2.3,Win32,59.52380952,,,,,,,,,,,,,,,,,,,,,,,,,,,,,,,,,space,12.2552,e,1,0.4513,0,0,0,7,1,,,,,,,,,,,,,,,,,,,,,,,,
,,,,,,,,,,,我们,i,1,001,2025-01-02_14h25.53.373,IAT(Formal),2021.2.3,Win32,59.52380952,,,,,,,,,,,,,,,,,,,,,,,,,,,,,,,,,,,e,0,0.0018,0,1,1,2,1,,,,,,,,,,,,,,,,,,,,,,,,
,,,,,,,,,,,他们,e,1,001,2025-01-02_14h25.53.373,IAT(Formal),2021.2.3,Win32,59.52380952,,,,,,,,,,,,,,,,,,,,,,,,,,,,,,,,,,,i,0,0.1431,0,2,2,6,1,,,,,,,,,,,,,,,,,,,,,,,,
,,,,,,,,,,,他,e,1,001,2025-01-02_14h25.53.373,IAT(Formal),2021.2.3,Win32,59.52380952,,,,,,,,,,,,,,,,,,,,,,,,,,,,,,,,,,,e,1,0.0013,0,3,3,5,1,,,,,,,,,,,,,,,,,,,,,,,,
,,,,,,,,,,,我,i,1,001,2025-01-02_14h25.53.373,IAT(Formal),2021.2.3,Win32,59.52380952,,,,,,,,,,,,,,,,,,,,,,,,,,,,,,,,,,,e,0,0.3009,0,4,4,0,1,,,,,,,,,,,,,,,,,,,,,,,,
,,,,,,,,,,,他人,e,1,001,2025-01-02_14h25.53.373,IAT(Formal),2021.2.3,Win32,59.52380952,,,,,,,,,,,,,,,,,,,,,,,,,,,,,,,,,,,e,1,0.1596,0,5,5,8,1,,,,,,,,,,,,,,,,,,,,,,,,
,,,,,,,,,,,自己,i,1,001,2025-01-02_14h25.53.373,IAT(Formal),2021.2.3,Win32,59.52380952,,,,,,,,,,,,,,,,,,,,,,,,,,,,,,,,,,,e,0,0.1574,0,6,6,3,1,,,,,,,,,,,,,,,,,,,,,,,,
,,,,,,,,,,,俺,i,1,001,2025-01-02_14h25.53.373,IAT(Formal),2021.2.3,Win32,59.52380952,,,,,,,,,,,,,,,,,,,,,,,,,,,,,,,,,,,i,1,0.0201,0,7,7,4,1,,,,,,,,,,,,,,,,,,,,,,,,
,,,,,,,,,,,其他,e,1,001,2025-01-02_14h25.53.373,IAT(Formal),2021.2.3,Win32,59.52380952,,,,,,,,,,,,,,,,,,,,,,,,,,,,,,,,,,,e,1,0.0971,0,8,8,9,1,,,,,,,,,,,,,,,,,,,,,,,,
,,,,,,,,,,,我的,i,1,001,2025-01-02_14h25.53.373,IAT(Formal),2021.2.3,Win32,59.52380952,,,,,,,,,,,,,,,,,,,,,,,,,,,,,,,,,,,i,1,0.7986,0,9,9,1,1,,,,,,,,,,,,,,,,,,,,,,,,
,,,,,,,,,,,,,1,001,2025-01-02_14h25.53.373,IAT(Formal),2021.2.3,Win32,59.52380952,,,,,,,,,,,,,,,,,,,,,,,,,,,,,,,,,,,,,,,,,,,space,10.2809,e,1,0.727,0,0,0,29,1,诚恳,e,,,,,,,,,,,,
,,,,,,,,,,,,,1,001,2025-01-02_14h25.53.373,IAT(Formal),2021.2.3,Win32,59.52380952,,,,,,,,,,,,,,,,,,,,,,,,,,,,,,,,,,,,,,,,,,,,,e,1,0.5176,0,1,1,19,1,机智,e,,,,,,,,,,,,
,,,,,,,,,,,,,1,001,2025-01-02_14h25.53.373,IAT(Formal),2021.2.3,Win32,59.52380952,,,,,,,,,,,,,,,,,,,,,,,,,,,,,,,,,,,,,,,,,,,,,e,0,0.4137,0,2,2,63,1,自己,i,,,,,,,,,,,,
,,,,,,,,,,,,,1,001,2025-01-02_14h25.53.373,IAT(Formal),2021.2.3,Win32,59.52380952,,,,,,,,,,,,,,,,,,,,,,,,,,,,,,,,,,,,,,,,,,,,,e,1,0.5835,0,3,3,68,1,他人,e,,,,,,,,,,,,
,,,,,,,,,,,,,1,001,2025-01-02_14h25.53.373,IAT(Formal),2021.2.3,Win32,59.52380952,,,,,,,,,,,,,,,,,,,,,,,,,,,,,,,,,,,,,,,,,,,,,i,1,0.5119,0,4,4,37,1,傲慢,i,,,,,,,,,,,,
,,,,,,,,,,,,,1,001,2025-01-02_14h25.53.373,IAT(Formal),2021.2.3,Win32,59.52380952,,,,,,,,,,,,,,,,,,,,,,,,,,,,,,,,,,,,,,,,,,,,,e,0,0.5356,0,5,5,53,1,自己,i,,,,,,,,,,,,
,,,,,,,,,,,,,1,001,2025-01-02_14h25.53.373,IAT(Formal),2021.2.3,Win32,59.52380952,,,,,,,,,,,,,,,,,,,,,,,,,,,,,,,,,,,,,,,,,,,,,i,1,0.5823,0,6,6,32,1,愚蠢,i,,,,,,,,,,,,
,,,,,,,,,,,,,1,001,2025-01-02_14h25.53.373,IAT(Formal),2021.2.3,Win32,59.52380952,,,,,,,,,,,,,,,,,,,,,,,,,,,,,,,,,,,,,,,,,,,,,i,1,0.4628,0,7,7,51,1,我的,i,,,,,,,,,,,,
,,,,,,,,,,,,,1,001,2025-01-02_14h25.53.373,IAT(Formal),2021.2.3,Win32,59.52380952,,,,,,,,,,,,,,,,,,,,,,,,,,,,,,,,,,,,,,,,,,,,,i,1,0.4267,0,8,8,39,1,冒失,i,,,,,,,,,,,,
,,,,,,,,,,,,,1,001,2025-01-02_14h25.53.373,IAT(Formal),2021.2.3,Win32,59.52380952,,,,,,,,,,,,,,,,,,,,,,,,,,,,,,,,,,,,,,,,,,,,,e,1,0.6299,0,9,9,15,1,诚实,e,,,,,,,,,,,,
,,,,,,,,,,,,,1,001,2025-01-02_14h25.53.373,IAT(Formal),2021.2.3,Win32,59.52380952,,,,,,,,,,,,,,,,,,,,,,,,,,,,,,,,,,,,,,,,,,,,,i,1,0.6017,0,10,10,46,1,野蛮,i,,,,,,,,,,,,
,,,,,,,,,,,,,1,001,2025-01-02_14h25.53.373,IAT(Formal),2021.2.3,Win32,59.52380952,,,,,,,,,,,,,,,,,,,,,,,,,,,,,,,,,,,,,,,,,,,,,i,1,0.4671,0,11,11,40,1,执拗,i,,,,,,,,,,,,
,,,,,,,,,,,,,1,001,2025-01-02_14h25.53.373,IAT(Formal),2021.2.3,Win32,59.52380952,,,,,,,,,,,,,,,,,,,,,,,,,,,,,,,,,,,,,,,,,,,,,i,0,0.4686,0,12,12,12,1,聪明,e,,,,,,,,,,,,
,,,,,,,,,,,,,1,001,2025-01-02_14h25.53.373,IAT(Formal),2021.2.3,Win32,59.52380952,,,,,,,,,,,,,,,,,,,,,,,,,,,,,,,,,,,,,,,,,,,,,e,1,0.8198,0,13,13,78,1,他人,e,,,,,,,,,,,,
,,,,,,,,,,,,,1,001,2025-01-02_14h25.53.373,IAT(Formal),2021.2.3,Win32,59.52380952,,,,,,,,,,,,,,,,,,,,,,,,,,,,,,,,,,,,,,,,,,,,,e,1,0.4271,0,14,14,10,1,优秀,e,,,,,,,,,,,,
,,,,,,,,,,,,,1,001,2025-01-02_14h25.53.373,IAT(Formal),2021.2.3,Win32,59.52380952,,,,,,,,,,,,,,,,,,,,,,,,,,,,,,,,,,,,,,,,,,,,,e,1,0.6882,0,15,15,25,1,细腻,e,,,,,,,,,,,,
,,,,,,,,,,,,,1,001,2025-01-02_14h25.53.373,IAT(Formal),2021.2.3,Win32,59.52380952,,,,,,,,,,,,,,,,,,,,,,,,,,,,,,,,,,,,,,,,,,,,,i,1,0.6882,0,16,16,33,1,刻薄,i,,,,,,,,,,,,
,,,,,,,,,,,,,1,001,2025-01-02_14h25.53.373,IAT(Formal),2021.2.3,Win32,59.52380952,,,,,,,,,,,,,,,,,,,,,,,,,,,,,,,,,,,,,,,,,,,,,e,0,0.4978,0,17,17,72,1,我们,i,,,,,,,,,,,,
,,,,,,,,,,,,,1,001,2025-01-02_14h25.53.373,IAT(Formal),2021.2.3,Win32,59.52380952,,,,,,,,,,,,,,,,,,,,,,,,,,,,,,,,,,,,,,,,,,,,,e,1,0.6528,0,18,18,55,1,他,e,,,,,,,,,,,,
,,,,,,,,,,,,,1,001,2025-01-02_14h25.53.373,IAT(Formal),2021.2.3,Win32,59.52380952,,,,,,,,,,,,,,,,,,,,,,,,,,,,,,,,,,,,,,,,,,,,,e,0,0.4881,0,19,19,36,1,自卑,i,,,,,,,,,,,,
,,,,,,,,,,,,,1,001,2025-01-02_14h25.53.373,IAT(Formal),2021.2.3,Win32,59.52380952,,,,,,,,,,,,,,,,,,,,,,,,,,,,,,,,,,,,,,,,,,,,,i,1,0.9547,0,20,20,47,1,固执,i,,,,,,,,,,,,
,,,,,,,,,,,,,1,001,2025-01-02_14h25.53.373,IAT(Formal),2021.2.3,Win32,59.52380952,,,,,,,,,,,,,,,,,,,,,,,,,,,,,,,,,,,,,,,,,,,,,e,1,0.471,0,21,21,5,1,他,e,,,,,,,,,,,,
,,,,,,,,,,,,,1,001,2025-01-02_14h25.53.373,IAT(Formal),2021.2.3,Win32,59.52380952,,,,,,,,,,,,,,,,,,,,,,,,,,,,,,,,,,,,,,,,,,,,,e,1,0.5191,0,22,22,23,1,公正,e,,,,,,,,,,,,
,,,,,,,,,,,,,1,001,2025-01-02_14h25.53.373,IAT(Formal),2021.2.3,Win32,59.52380952,,,,,,,,,,,,,,,,,,,,,,,,,,,,,,,,,,,,,,,,,,,,,e,1,0.5372,0,23,23,28,1,活泼,e,,,,,,,,,,,,
,,,,,,,,,,,,,1,001,2025-01-02_14h25.53.373,IAT(Formal),2021.2.3,Win32,59.52380952,,,,,,,,,,,,,,,,,,,,,,,,,,,,,,,,,,,,,,,,,,,,,e,1,0.7157,0,24,24,57,1,他的,e,,,,,,,,,,,,
,,,,,,,,,,,,,1,001,2025-01-02_14h25.53.373,IAT(Formal),2021.2.3,Win32,59.52380952,,,,,,,,,,,,,,,,,,,,,,,,,,,,,,,,,,,,,,,,,,,,,e,1,0.52,0,25,25,7,1,他的,e,,,,,,,,,,,,
,,,,,,,,,,,,,1,001,2025-01-02_14h25.53.373,IAT(Formal),2021.2.3,Win32,59.52380952,,,,,,,,,,,,,,,,,,,,,,,,,,,,,,,,,,,,,,,,,,,,,e,1,0.6014,0,26,26,24,1,朴实,e,,,,,,,,,,,,
,,,,,,,,,,,,,1,001,2025-01-02_14h25.53.373,IAT(Formal),2021.2.3,Win32,59.52380952,,,,,,,,,,,,,,,,,,,,,,,,,,,,,,,,,,,,,,,,,,,,,e,1,0.5505,0,27,27,65,1,他,e,,,,,,,,,,,,
,,,,,,,,,,,,,1,001,2025-01-02_14h25.53.373,IAT(Formal),2021.2.3,Win32,59.52380952,,,,,,,,,,,,,,,,,,,,,,,,,,,,,,,,,,,,,,,,,,,,,e,0,0.6417,0,28,28,48,1,轻率,i,,,,,,,,,,,,
,,,,,,,,,,,,,1,001,2025-01-02_14h25.53.373,IAT(Formal),2021.2.3,Win32,59.52380952,,,,,,,,,,,,,,,,,,,,,,,,,,,,,,,,,,,,,,,,,,,,,e,1,0.4665,0,29,29,17,1,勇敢,e,,,,,,,,,,,,
,,,,,,,,,,,,,1,001,2025-01-02_14h25.53.373,IAT(Formal),2021.2.3,Win32,59.52380952,,,,,,,,,,,,,,,,,,,,,,,,,,,,,,,,,,,,,,,,,,,,,e,1,0.4285,0,30,30,75,1,他,e,,,,,,,,,,,,
,,,,,,,,,,,,,1,001,2025-01-02_14h25.53.373,IAT(Formal),2021.2.3,Win32,59.52380952,,,,,,,,,,,,,,,,,,,,,,,,,,,,,,,,,,,,,,,,,,,,,e,0,0.5401,0,31,31,2,1,我们,i,,,,,,,,,,,,
,,,,,,,,,,,,,1,001,2025-01-02_14h25.53.373,IAT(Formal),2021.2.3,Win32,59.52380952,,,,,,,,,,,,,,,,,,,,,,,,,,,,,,,,,,,,,,,,,,,,,e,0,0.5825,0,32,32,31,1,虚伪,i,,,,,,,,,,,,
,,,,,,,,,,,,,1,001,2025-01-02_14h25.53.373,IAT(Formal),2021.2.3,Win32,59.52380952,,,,,,,,,,,,,,,,,,,,,,,,,,,,,,,,,,,,,,,,,,,,,e,1,0.4833,0,33,33,26,1,冷静,e,,,,,,,,,,,,
,,,,,,,,,,,,,1,001,2025-01-02_14h25.53.373,IAT(Formal),2021.2.3,Win32,59.52380952,,,,,,,,,,,,,,,,,,,,,,,,,,,,,,,,,,,,,,,,,,,,,e,0,0.4744,0,34,34,70,1,我,i,,,,,,,,,,,,
,,,,,,,,,,,,,1,001,2025-01-02_14h25.53.373,IAT(Formal),2021.2.3,Win32,59.52380952,,,,,,,,,,,,,,,,,,,,,,,,,,,,,,,,,,,,,,,,,,,,,e,0,0.4482,0,35,35,52,1,我们,i,,,,,,,,,,,,
,,,,,,,,,,,,,1,001,2025-01-02_14h25.53.373,IAT(Formal),2021.2.3,Win32,59.52380952,,,,,,,,,,,,,,,,,,,,,,,,,,,,,,,,,,,,,,,,,,,,,e,1,0.4319,0,36,36,66,1,他们,e,,,,,,,,,,,,
,,,,,,,,,,,,,1,001,2025-01-02_14h25.53.373,IAT(Formal),2021.2.3,Win32,59.52380952,,,,,,,,,,,,,,,,,,,,,,,,,,,,,,,,,,,,,,,,,,,,,i,1,0.5627,0,37,37,35,1,消极,i,,,,,,,,,,,,
,,,,,,,,,,,,,1,001,2025-01-02_14h25.53.373,IAT(Formal),2021.2.3,Win32,59.52380952,,,,,,,,,,,,,,,,,,,,,,,,,,,,,,,,,,,,,,,,,,,,,e,0,0.419,0,38,38,3,1,自己,i,,,,,,,,,,,,
,,,,,,,,,,,,,1,001,2025-01-02_14h25.53.373,IAT(Formal),2021.2.3,Win32,59.52380952,,,,,,,,,,,,,,,,,,,,,,,,,,,,,,,,,,,,,,,,,,,,,e,0,0.3699,0,39,39,74,1,俺,i,,,,,,,,,,,,
,,,,,,,,,,,,,1,001,2025-01-02_14h25.53.373,IAT(Formal),2021.2.3,Win32,59.52380952,,,,,,,,,,,,,,,,,,,,,,,,,,,,,,,,,,,,,,,,,,,,,i,1,0.5651,0,40,40,42,1,凶狠,i,,,,,,,,,,,,
,,,,,,,,,,,,,1,001,2025-01-02_14h25.53.373,IAT(Formal),2021.2.3,Win32,59.52380952,,,,,,,,,,,,,,,,,,,,,,,,,,,,,,,,,,,,,,,,,,,,,e,1,0.3493,0,41,41,59,1,其他,e,,,,,,,,,,,,
,,,,,,,,,,,,,1,001,2025-01-02_14h25.53.373,IAT(Formal),2021.2.3,Win32,59.52380952,,,,,,,,,,,,,,,,,,,,,,,,,,,,,,,,,,,,,,,,,,,,,e,1,0.3637,0,42,42,20,1,认真,e,,,,,,,,,,,,
,,,,,,,,,,,,,1,001,2025-01-02_14h25.53.373,IAT(Formal),2021.2.3,Win32,59.52380952,,,,,,,,,,,,,,,,,,,,,,,,,,,,,,,,,,,,,,,,,,,,,i,0,0.4375,0,43,43,9,1,其他,e,,,,,,,,,,,,
,,,,,,,,,,,,,1,001,2025-01-02_14h25.53.373,IAT(Formal),2021.2.3,Win32,59.52380952,,,,,,,,,,,,,,,,,,,,,,,,,,,,,,,,,,,,,,,,,,,,,e,0,0.3651,0,44,44,0,1,我,i,,,,,,,,,,,,
,,,,,,,,,,,,,1,001,2025-01-02_14h25.53.373,IAT(Formal),2021.2.3,Win32,59.52380952,,,,,,,,,,,,,,,,,,,,,,,,,,,,,,,,,,,,,,,,,,,,,e,1,0.4045,0,45,45,67,1,他的,e,,,,,,,,,,,,
,,,,,,,,,,,,,1,001,2025-01-02_14h25.53.373,IAT(Formal),2021.2.3,Win32,59.52380952,,,,,,,,,,,,,,,,,,,,,,,,,,,,,,,,,,,,,,,,,,,,,e,0,0.3511,0,46,46,4,1,俺,i,,,,,,,,,,,,
,,,,,,,,,,,,,1,001,2025-01-02_14h25.53.373,IAT(Formal),2021.2.3,Win32,59.52380952,,,,,,,,,,,,,,,,,,,,,,,,,,,,,,,,,,,,,,,,,,,,,e,0,0.4168,0,47,47,1,1,我的,i,,,,,,,,,,,,
,,,,,,,,,,,,,1,001,2025-01-02_14h25.53.373,IAT(Formal),2021.2.3,Win32,59.52380952,,,,,,,,,,,,,,,,,,,,,,,,,,,,,,,,,,,,,,,,,,,,,e,0,0.4344,0,48,48,38,1,鲁莽,i,,,,,,,,,,,,
,,,,,,,,,,,,,1,001,2025-01-02_14h25.53.373,IAT(Formal),2021.2.3,Win32,59.52380952,,,,,,,,,,,,,,,,,,,,,,,,,,,,,,,,,,,,,,,,,,,,,e,1,0.3213,0,49,49,8,1,他人,e,,,,,,,,,,,,
,,,,,,,,,,,,,1,001,2025-01-02_14h25.53.373,IAT(Formal),2021.2.3,Win32,59.52380952,,,,,,,,,,,,,,,,,,,,,,,,,,,,,,,,,,,,,,,,,,,,,e,1,0.3233,0,50,50,16,1,正直,e,,,,,,,,,,,,
,,,,,,,,,,,,,1,001,2025-01-02_14h25.53.373,IAT(Formal),2021.2.3,Win32,59.52380952,,,,,,,,,,,,,,,,,,,,,,,,,,,,,,,,,,,,,,,,,,,,,i,0,0.3843,0,51,51,21,1,稳重,e,,,,,,,,,,,,
,,,,,,,,,,,,,1,001,2025-01-02_14h25.53.373,IAT(Formal),2021.2.3,Win32,59.52380952,,,,,,,,,,,,,,,,,,,,,,,,,,,,,,,,,,,,,,,,,,,,,e,1,0.2356,0,52,52,13,1,杰出,e,,,,,,,,,,,,
,,,,,,,,,,,,,1,001,2025-01-02_14h25.53.373,IAT(Formal),2021.2.3,Win32,59.52380952,,,,,,,,,,,,,,,,,,,,,,,,,,,,,,,,,,,,,,,,,,,,,i,0,0.243,0,53,53,6,1,他们,e,,,,,,,,,,,,
,,,,,,,,,,,,,1,001,2025-01-02_14h25.53.373,IAT(Formal),2021.2.3,Win32,59.52380952,,,,,,,,,,,,,,,,,,,,,,,,,,,,,,,,,,,,,,,,,,,,,e,0,0.1339,0,54,54,54,1,俺,i,,,,,,,,,,,,
,,,,,,,,,,,,,1,001,2025-01-02_14h25.53.373,IAT(Formal),2021.2.3,Win32,59.52380952,,,,,,,,,,,,,,,,,,,,,,,,,,,,,,,,,,,,,,,,,,,,,e,0,0.3949,0,55,55,62,1,我们,i,,,,,,,,,,,,
,,,,,,,,,,,,,1,001,2025-01-02_14h25.53.373,IAT(Formal),2021.2.3,Win32,59.52380952,,,,,,,,,,,,,,,,,,,,,,,,,,,,,,,,,,,,,,,,,,,,,i,1,0.147,0,56,56,64,1,俺,i,,,,,,,,,,,,
,,,,,,,,,,,,,1,001,2025-01-02_14h25.53.373,IAT(Formal),2021.2.3,Win32,59.52380952,,,,,,,,,,,,,,,,,,,,,,,,,,,,,,,,,,,,,,,,,,,,,e,0,0.1386,0,57,57,73,1,自己,i,,,,,,,,,,,,
,,,,,,,,,,,,,1,001,2025-01-02_14h25.53.373,IAT(Formal),2021.2.3,Win32,59.52380952,,,,,,,,,,,,,,,,,,,,,,,,,,,,,,,,,,,,,,,,,,,,,e,1,0.3287,0,58,58,22,1,无私,e,,,,,,,,,,,,
,,,,,,,,,,,,,1,001,2025-01-02_14h25.53.373,IAT(Formal),2021.2.3,Win32,59.52380952,,,,,,,,,,,,,,,,,,,,,,,,,,,,,,,,,,,,,,,,,,,,,e,1,0.4333,0,59,59,77,1,他的,e,,,,,,,,,,,,
,,,,,,,,,,,,,1,001,2025-01-02_14h25.53.373,IAT(Formal),2021.2.3,Win32,59.52380952,,,,,,,,,,,,,,,,,,,,,,,,,,,,,,,,,,,,,,,,,,,,,i,1,0.5147,0,60,60,34,1,悲观,i,,,,,,,,,,,,
,,,,,,,,,,,,,1,001,2025-01-02_14h25.53.373,IAT(Formal),2021.2.3,Win32,59.52380952,,,,,,,,,,,,,,,,,,,,,,,,,,,,,,,,,,,,,,,,,,,,,e,1,0.1826,0,61,61,14,1,乐观,e,,,,,,,,,,,,
,,,,,,,,,,,,,1,001,2025-01-02_14h25.53.373,IAT(Formal),2021.2.3,Win32,59.52380952,,,,,,,,,,,,,,,,,,,,,,,,,,,,,,,,,,,,,,,,,,,,,i,0,0.406,0,62,62,18,1,勤奋,e,,,,,,,,,,,,
,,,,,,,,,,,,,1,001,2025-01-02_14h25.53.373,IAT(Formal),2021.2.3,Win32,59.52380952,,,,,,,,,,,,,,,,,,,,,,,,,,,,,,,,,,,,,,,,,,,,,e,0,0.3738,0,63,63,41,1,散漫,i,,,,,,,,,,,,
,,,,,,,,,,,,,1,001,2025-01-02_14h25.53.373,IAT(Formal),2021.2.3,Win32,59.52380952,,,,,,,,,,,,,,,,,,,,,,,,,,,,,,,,,,,,,,,,,,,,,e,0,0.2957,0,64,64,44,1,暴躁,i,,,,,,,,,,,,
,,,,,,,,,,,,,1,001,2025-01-02_14h25.53.373,IAT(Formal),2021.2.3,Win32,59.52380952,,,,,,,,,,,,,,,,,,,,,,,,,,,,,,,,,,,,,,,,,,,,,e,0,0.0201,0,65,65,30,1,卑鄙,i,,,,,,,,,,,,
,,,,,,,,,,,,,1,001,2025-01-02_14h25.53.373,IAT(Formal),2021.2.3,Win32,59.52380952,,,,,,,,,,,,,,,,,,,,,,,,,,,,,,,,,,,,,,,,,,,,,e,0,0.1392,0,66,66,61,1,我的,i,,,,,,,,,,,,
,,,,,,,,,,,,,1,001,2025-01-02_14h25.53.373,IAT(Formal),2021.2.3,Win32,59.52380952,,,,,,,,,,,,,,,,,,,,,,,,,,,,,,,,,,,,,,,,,,,,,e,0,0.4249,0,67,67,50,1,我,i,,,,,,,,,,,,
,,,,,,,,,,,,,1,001,2025-01-02_14h25.53.373,IAT(Formal),2021.2.3,Win32,59.52380952,,,,,,,,,,,,,,,,,,,,,,,,,,,,,,,,,,,,,,,,,,,,,i,1,0.1451,0,68,68,43,1,自私,i,,,,,,,,,,,,
,,,,,,,,,,,,,1,001,2025-01-02_14h25.53.373,IAT(Formal),2021.2.3,Win32,59.52380952,,,,,,,,,,,,,,,,,,,,,,,,,,,,,,,,,,,,,,,,,,,,,e,1,0.0492,0,69,69,58,1,他人,e,,,,,,,,,,,,
,,,,,,,,,,,,,1,001,2025-01-02_14h25.53.373,IAT(Formal),2021.2.3,Win32,59.52380952,,,,,,,,,,,,,,,,,,,,,,,,,,,,,,,,,,,,,,,,,,,,,e,1,0.2956,0,70,70,11,1,崇高,e,,,,,,,,,,,,
,,,,,,,,,,,,,1,001,2025-01-02_14h25.53.373,IAT(Formal),2021.2.3,Win32,59.52380952,,,,,,,,,,,,,,,,,,,,,,,,,,,,,,,,,,,,,,,,,,,,,e,1,0.2091,0,71,71,69,1,其他,e,,,,,,,,,,,,
,,,,,,,,,,,,,1,001,2025-01-02_14h25.53.373,IAT(Formal),2021.2.3,Win32,59.52380952,,,,,,,,,,,,,,,,,,,,,,,,,,,,,,,,,,,,,,,,,,,,,e,1,0.0011,0,72,72,56,1,他们,e,,,,,,,,,,,,
,,,,,,,,,,,,,1,001,2025-01-02_14h25.53.373,IAT(Formal),2021.2.3,Win32,59.52380952,,,,,,,,,,,,,,,,,,,,,,,,,,,,,,,,,,,,,,,,,,,,,e,0,0.2286,0,73,73,45,1,猖狂,i,,,,,,,,,,,,
,,,,,,,,,,,,,1,001,2025-01-02_14h25.53.373,IAT(Formal),2021.2.3,Win32,59.52380952,,,,,,,,,,,,,,,,,,,,,,,,,,,,,,,,,,,,,,,,,,,,,i,0,0.1148,0,74,74,76,1,他们,e,,,,,,,,,,,,
,,,,,,,,,,,,,1,001,2025-01-02_14h25.53.373,IAT(Formal),2021.2.3,Win32,59.52380952,,,,,,,,,,,,,,,,,,,,,,,,,,,,,,,,,,,,,,,,,,,,,i,1,0.0197,0,75,75,71,1,我的,i,,,,,,,,,,,,
,,,,,,,,,,,,,1,001,2025-01-02_14h25.53.373,IAT(Formal),2021.2.3,Win32,59.52380952,,,,,,,,,,,,,,,,,,,,,,,,,,,,,,,,,,,,,,,,,,,,,e,1,0.2701,0,76,76,79,1,其他,e,,,,,,,,,,,,
,,,,,,,,,,,,,1,001,2025-01-02_14h25.53.373,IAT(Formal),2021.2.3,Win32,59.52380952,,,,,,,,,,,,,,,,,,,,,,,,,,,,,,,,,,,,,,,,,,,,,e,1,0.105,0,77,77,27,1,热情,e,,,,,,,,,,,,
,,,,,,,,,,,,,1,001,2025-01-02_14h25.53.373,IAT(Formal),2021.2.3,Win32,59.52380952,,,,,,,,,,,,,,,,,,,,,,,,,,,,,,,,,,,,,,,,,,,,,e,0,0.0892,0,78,78,60,1,我,i,,,,,,,,,,,,
,,,,,,,,,,,,,1,001,2025-01-02_14h25.53.373,IAT(Formal),2021.2.3,Win32,59.52380952,,,,,,,,,,,,,,,,,,,,,,,,,,,,,,,,,,,,,,,,,,,,,i,1,0.2664,0,79,79,49,1,下贱,i,,,,,,,,,,,,
,,,,,,,,,,,,,1,001,2025-01-02_14h25.53.373,IAT(Formal),2021.2.3,Win32,59.52380952,,,,,,,,,,,,,,,,,,,,,,,,,,,,,,,,,,,,,,,,,,,,,,,,,,,,,朴实,e,space,12.633,i,0,0.0674,0,0,0,24,1,,
,,,,,,,,,,,,,1,001,2025-01-02_14h25.53.373,IAT(Formal),2021.2.3,Win32,59.52380952,,,,,,,,,,,,,,,,,,,,,,,,,,,,,,,,,,,,,,,,,,,,,,,,,,,,,其他,e,,,e,1,0.1818,0,1,1,59,1,,
,,,,,,,,,,,,,1,001,2025-01-02_14h25.53.373,IAT(Formal),2021.2.3,Win32,59.52380952,,,,,,,,,,,,,,,,,,,,,,,,,,,,,,,,,,,,,,,,,,,,,,,,,,,,,悲观,i,,,e,0,0.2485,0,2,2,34,1,,
,,,,,,,,,,,,,1,001,2025-01-02_14h25.53.373,IAT(Formal),2021.2.3,Win32,59.52380952,,,,,,,,,,,,,,,,,,,,,,,,,,,,,,,,,,,,,,,,,,,,,,,,,,,,,他的,e,,,e,1,0.1813,0,3,3,67,1,,
,,,,,,,,,,,,,1,001,2025-01-02_14h25.53.373,IAT(Formal),2021.2.3,Win32,59.52380952,,,,,,,,,,,,,,,,,,,,,,,,,,,,,,,,,,,,,,,,,,,,,,,,,,,,,他,e,,,e,1,0.0558,0,4,4,75,1,,
,,,,,,,,,,,,,1,001,2025-01-02_14h25.53.373,IAT(Formal),2021.2.3,Win32,59.52380952,,,,,,,,,,,,,,,,,,,,,,,,,,,,,,,,,,,,,,,,,,,,,,,,,,,,,他的,e,,,e,1,0.2521,0,5,5,77,1,,
,,,,,,,,,,,,,1,001,2025-01-02_14h25.53.373,IAT(Formal),2021.2.3,Win32,59.52380952,,,,,,,,,,,,,,,,,,,,,,,,,,,,,,,,,,,,,,,,,,,,,,,,,,,,,稳重,e,,,e,1,0.1672,0,6,6,21,1,,
,,,,,,,,,,,,,1,001,2025-01-02_14h25.53.373,IAT(Formal),2021.2.3,Win32,59.52380952,,,,,,,,,,,,,,,,,,,,,,,,,,,,,,,,,,,,,,,,,,,,,,,,,,,,,乐观,e,,,i,0,0.5527,0,7,7,14,1,,
,,,,,,,,,,,,,1,001,2025-01-02_14h25.53.373,IAT(Formal),2021.2.3,Win32,59.52380952,,,,,,,,,,,,,,,,,,,,,,,,,,,,,,,,,,,,,,,,,,,,,,,,,,,,,固执,i,,,e,0,0.3645,0,8,8,47,1,,
,,,,,,,,,,,,,1,001,2025-01-02_14h25.53.373,IAT(Formal),2021.2.3,Win32,59.52380952,,,,,,,,,,,,,,,,,,,,,,,,,,,,,,,,,,,,,,,,,,,,,,,,,,,,,他,e,,,i,0,0.0157,0,9,9,5,1,,
,,,,,,,,,,,,,1,001,2025-01-02_14h25.53.373,IAT(Formal),2021.2.3,Win32,59.52380952,,,,,,,,,,,,,,,,,,,,,,,,,,,,,,,,,,,,,,,,,,,,,,,,,,,,,我,i,,,e,0,0.1799,0,10,10,0,1,,
,,,,,,,,,,,,,1,001,2025-01-02_14h25.53.373,IAT(Formal),2021.2.3,Win32,59.52380952,,,,,,,,,,,,,,,,,,,,,,,,,,,,,,,,,,,,,,,,,,,,,,,,,,,,,诚恳,e,,,e,1,0.1003,0,11,11,29,1,,
,,,,,,,,,,,,,1,001,2025-01-02_14h25.53.373,IAT(Formal),2021.2.3,Win32,59.52380952,,,,,,,,,,,,,,,,,,,,,,,,,,,,,,,,,,,,,,,,,,,,,,,,,,,,,活泼,e,,,e,1,0.1192,0,12,12,28,1,,
,,,,,,,,,,,,,1,001,2025-01-02_14h25.53.373,IAT(Formal),2021.2.3,Win32,59.52380952,,,,,,,,,,,,,,,,,,,,,,,,,,,,,,,,,,,,,,,,,,,,,,,,,,,,,凶狠,i,,,i,1,0.1042,0,13,13,42,1,,
,,,,,,,,,,,,,1,001,2025-01-02_14h25.53.373,IAT(Formal),2021.2.3,Win32,59.52380952,,,,,,,,,,,,,,,,,,,,,,,,,,,,,,,,,,,,,,,,,,,,,,,,,,,,,俺,i,,,i,1,0.0007,0,14,14,54,1,,
,,,,,,,,,,,,,1,001,2025-01-02_14h25.53.373,IAT(Formal),2021.2.3,Win32,59.52380952,,,,,,,,,,,,,,,,,,,,,,,,,,,,,,,,,,,,,,,,,,,,,,,,,,,,,鲁莽,i,,,i,1,0.0988,0,15,15,38,1,,
,,,,,,,,,,,,,1,001,2025-01-02_14h25.53.373,IAT(Formal),2021.2.3,Win32,59.52380952,,,,,,,,,,,,,,,,,,,,,,,,,,,,,,,,,,,,,,,,,,,,,,,,,,,,,暴躁,i,,,i,1,0.0387,0,16,16,44,1,,
,,,,,,,,,,,,,1,001,2025-01-02_14h25.53.373,IAT(Formal),2021.2.3,Win32,59.52380952,,,,,,,,,,,,,,,,,,,,,,,,,,,,,,,,,,,,,,,,,,,,,,,,,,,,,其他,e,,,e,1,0.1183,0,17,17,69,1,,
,,,,,,,,,,,,,1,001,2025-01-02_14h25.53.373,IAT(Formal),2021.2.3,Win32,59.52380952,,,,,,,,,,,,,,,,,,,,,,,,,,,,,,,,,,,,,,,,,,,,,,,,,,,,,俺,i,,,e,0,0.2617,0,18,18,4,1,,
,,,,,,,,,,,,,1,001,2025-01-02_14h25.53.373,IAT(Formal),2021.2.3,Win32,59.52380952,,,,,,,,,,,,,,,,,,,,,,,,,,,,,,,,,,,,,,,,,,,,,,,,,,,,,野蛮,i,,,i,1,0.087,0,19,19,46,1,,
,,,,,,,,,,,,,1,001,2025-01-02_14h25.53.373,IAT(Formal),2021.2.3,Win32,59.52380952,,,,,,,,,,,,,,,,,,,,,,,,,,,,,,,,,,,,,,,,,,,,,,,,,,,,,我们,i,,,e,0,0.3879,0,20,20,72,1,,
,,,,,,,,,,,,,1,001,2025-01-02_14h25.53.373,IAT(Formal),2021.2.3,Win32,59.52380952,,,,,,,,,,,,,,,,,,,,,,,,,,,,,,,,,,,,,,,,,,,,,,,,,,,,,聪明,e,,,e,1,0.621,0,21,21,12,1,,
,,,,,,,,,,,,,1,001,2025-01-02_14h25.53.373,IAT(Formal),2021.2.3,Win32,59.52380952,,,,,,,,,,,,,,,,,,,,,,,,,,,,,,,,,,,,,,,,,,,,,,,,,,,,,愚蠢,i,,,i,1,0.0492,0,22,22,32,1,,
,,,,,,,,,,,,,1,001,2025-01-02_14h25.53.373,IAT(Formal),2021.2.3,Win32,59.52380952,,,,,,,,,,,,,,,,,,,,,,,,,,,,,,,,,,,,,,,,,,,,,,,,,,,,,认真,e,,,e,1,0.1332,0,23,23,20,1,,
,,,,,,,,,,,,,1,001,2025-01-02_14h25.53.373,IAT(Formal),2021.2.3,Win32,59.52380952,,,,,,,,,,,,,,,,,,,,,,,,,,,,,,,,,,,,,,,,,,,,,,,,,,,,,我们,i,,,e,0,0.1821,0,24,24,2,1,,
,,,,,,,,,,,,,1,001,2025-01-02_14h25.53.373,IAT(Formal),2021.2.3,Win32,59.52380952,,,,,,,,,,,,,,,,,,,,,,,,,,,,,,,,,,,,,,,,,,,,,,,,,,,,,我,i,,,e,0,0.4878,0,25,25,70,1,,
,,,,,,,,,,,,,1,001,2025-01-02_14h25.53.373,IAT(Formal),2021.2.3,Win32,59.52380952,,,,,,,,,,,,,,,,,,,,,,,,,,,,,,,,,,,,,,,,,,,,,,,,,,,,,其他,e,,,e,1,0.0685,0,26,26,79,1,,
,,,,,,,,,,,,,1,001,2025-01-02_14h25.53.373,IAT(Formal),2021.2.3,Win32,59.52380952,,,,,,,,,,,,,,,,,,,,,,,,,,,,,,,,,,,,,,,,,,,,,,,,,,,,,自己,i,,,,0,,0,27,27,53,1,,
,,,,,,,,,,,,,1,001,2025-01-02_14h25.53.373,IAT(Formal),2021.2.3,Win32,59.52380952,,,,,,,,,,,,,,,,,,,,,,,,,,,,,,,,,,,,,,,,,,,,,,,,,,,,,我的,i,,,,0,,0,28,28,61,1,,
,,,,,,,,,,,,,1,001,2025-01-02_14h25.53.373,IAT(Formal),2021.2.3,Win32,59.52380952,,,,,,,,,,,,,,,,,,,,,,,,,,,,,,,,,,,,,,,,,,,,,,,,,,,,,自卑,i,,,,0,,0,29,29,36,1,,
,,,,,,,,,,,,,1,001,2025-01-02_14h25.53.373,IAT(Formal),2021.2.3,Win32,59.52380952,,,,,,,,,,,,,,,,,,,,,,,,,,,,,,,,,,,,,,,,,,,,,,,,,,,,,自己,i,,,,0,,0,30,30,3,1,,
,,,,,,,,,,,,,1,001,2025-01-02_14h25.53.373,IAT(Formal),2021.2.3,Win32,59.52380952,,,,,,,,,,,,,,,,,,,,,,,,,,,,,,,,,,,,,,,,,,,,,,,,,,,,,我,i,,,,0,,0,31,31,50,1,,
,,,,,,,,,,,,,1,001,2025-01-02_14h25.53.373,IAT(Formal),2021.2.3,Win32,59.52380952,,,,,,,,,,,,,,,,,,,,,,,,,,,,,,,,,,,,,,,,,,,,,,,,,,,,,他的,e,,,,0,,0,32,32,57,1,,
,,,,,,,,,,,,,1,001,2025-01-02_14h25.53.373,IAT(Formal),2021.2.3,Win32,59.52380952,,,,,,,,,,,,,,,,,,,,,,,,,,,,,,,,,,,,,,,,,,,,,,,,,,,,,勤奋,e,,,,0,,0,33,33,18,1,,
,,,,,,,,,,,,,1,001,2025-01-02_14h25.53.373,IAT(Formal),2021.2.3,Win32,59.52380952,,,,,,,,,,,,,,,,,,,,,,,,,,,,,,,,,,,,,,,,,,,,,,,,,,,,,猖狂,i,,,,0,,0,34,34,45,1,,
,,,,,,,,,,,,,1,001,2025-01-02_14h25.53.373,IAT(Formal),2021.2.3,Win32,59.52380952,,,,,,,,,,,,,,,,,,,,,,,,,,,,,,,,,,,,,,,,,,,,,,,,,,,,,虚伪,i,,,,0,,0,35,35,31,1,,
,,,,,,,,,,,,,1,001,2025-01-02_14h25.53.373,IAT(Formal),2021.2.3,Win32,59.52380952,,,,,,,,,,,,,,,,,,,,,,,,,,,,,,,,,,,,,,,,,,,,,,,,,,,,,我的,i,,,,0,,0,36,36,71,1,,
,,,,,,,,,,,,,1,001,2025-01-02_14h25.53.373,IAT(Formal),2021.2.3,Win32,59.52380952,,,,,,,,,,,,,,,,,,,,,,,,,,,,,,,,,,,,,,,,,,,,,,,,,,,,,下贱,i,,,,0,,0,37,37,49,1,,
,,,,,,,,,,,,,1,001,2025-01-02_14h25.53.373,IAT(Formal),2021.2.3,Win32,59.52380952,,,,,,,,,,,,,,,,,,,,,,,,,,,,,,,,,,,,,,,,,,,,,,,,,,,,,他人,e,,,e,1,0.0434,0,38,38,78,1,,
,,,,,,,,,,,,,1,001,2025-01-02_14h25.53.373,IAT(Formal),2021.2.3,Win32,59.52380952,,,,,,,,,,,,,,,,,,,,,,,,,,,,,,,,,,,,,,,,,,,,,,,,,,,,,他人,e,,,i,0,0.1028,0,39,39,68,1,,
,,,,,,,,,,,,,1,001,2025-01-02_14h25.53.373,IAT(Formal),2021.2.3,Win32,59.52380952,,,,,,,,,,,,,,,,,,,,,,,,,,,,,,,,,,,,,,,,,,,,,,,,,,,,,他们,e,,,e,1,0.3784,0,40,40,66,1,,
,,,,,,,,,,,,,1,001,2025-01-02_14h25.53.373,IAT(Formal),2021.2.3,Win32,59.52380952,,,,,,,,,,,,,,,,,,,,,,,,,,,,,,,,,,,,,,,,,,,,,,,,,,,,,他的,e,,,i,0,0.216,0,41,41,7,1,,
,,,,,,,,,,,,,1,001,2025-01-02_14h25.53.373,IAT(Formal),2021.2.3,Win32,59.52380952,,,,,,,,,,,,,,,,,,,,,,,,,,,,,,,,,,,,,,,,,,,,,,,,,,,,,我,i,,,e,0,0.3216,0,42,42,60,1,,
,,,,,,,,,,,,,1,001,2025-01-02_14h25.53.373,IAT(Formal),2021.2.3,Win32,59.52380952,,,,,,,,,,,,,,,,,,,,,,,,,,,,,,,,,,,,,,,,,,,,,,,,,,,,,机智,e,,,e,1,0.0642,0,43,43,19,1,,
,,,,,,,,,,,,,1,001,2025-01-02_14h25.53.373,IAT(Formal),2021.2.3,Win32,59.52380952,,,,,,,,,,,,,,,,,,,,,,,,,,,,,,,,,,,,,,,,,,,,,,,,,,,,,他,e,,,e,1,0.0927,0,44,44,65,1,,
,,,,,,,,,,,,,1,001,2025-01-02_14h25.53.373,IAT(Formal),2021.2.3,Win32,59.52380952,,,,,,,,,,,,,,,,,,,,,,,,,,,,,,,,,,,,,,,,,,,,,,,,,,,,,傲慢,i,,,e,0,0.2415,0,45,45,37,1,,
,,,,,,,,,,,,,1,001,2025-01-02_14h25.53.373,IAT(Formal),2021.2.3,Win32,59.52380952,,,,,,,,,,,,,,,,,,,,,,,,,,,,,,,,,,,,,,,,,,,,,,,,,,,,,他,e,,,e,1,0.2173,0,46,46,55,1,,
,,,,,,,,,,,,,1,001,2025-01-02_14h25.53.373,IAT(Formal),2021.2.3,Win32,59.52380952,,,,,,,,,,,,,,,,,,,,,,,,,,,,,,,,,,,,,,,,,,,,,,,,,,,,,俺,i,,,e,0,0.2115,0,47,47,64,1,,
,,,,,,,,,,,,,1,001,2025-01-02_14h25.53.373,IAT(Formal),2021.2.3,Win32,59.52380952,,,,,,,,,,,,,,,,,,,,,,,,,,,,,,,,,,,,,,,,,,,,,,,,,,,,,优秀,e,,,e,1,0.2659,0,48,48,10,1,,
,,,,,,,,,,,,,1,001,2025-01-02_14h25.53.373,IAT(Formal),2021.2.3,Win32,59.52380952,,,,,,,,,,,,,,,,,,,,,,,,,,,,,,,,,,,,,,,,,,,,,,,,,,,,,他们,e,,,e,1,0.2,0,49,49,6,1,,
,,,,,,,,,,,,,1,001,2025-01-02_14h25.53.373,IAT(Formal),2021.2.3,Win32,59.52380952,,,,,,,,,,,,,,,,,,,,,,,,,,,,,,,,,,,,,,,,,,,,,,,,,,,,,他们,e,,,e,1,0.1759,0,50,50,56,1,,
,,,,,,,,,,,,,1,001,2025-01-02_14h25.53.373,IAT(Formal),2021.2.3,Win32,59.52380952,,,,,,,,,,,,,,,,,,,,,,,,,,,,,,,,,,,,,,,,,,,,,,,,,,,,,细腻,e,,,e,1,0.165,0,51,51,25,1,,
,,,,,,,,,,,,,1,001,2025-01-02_14h25.53.373,IAT(Formal),2021.2.3,Win32,59.52380952,,,,,,,,,,,,,,,,,,,,,,,,,,,,,,,,,,,,,,,,,,,,,,,,,,,,,诚实,e,,,e,1,0.0702,0,52,52,15,1,,
,,,,,,,,,,,,,1,001,2025-01-02_14h25.53.373,IAT(Formal),2021.2.3,Win32,59.52380952,,,,,,,,,,,,,,,,,,,,,,,,,,,,,,,,,,,,,,,,,,,,,,,,,,,,,崇高,e,,,e,1,0.2261,0,53,53,11,1,,
,,,,,,,,,,,,,1,001,2025-01-02_14h25.53.373,IAT(Formal),2021.2.3,Win32,59.52380952,,,,,,,,,,,,,,,,,,,,,,,,,,,,,,,,,,,,,,,,,,,,,,,,,,,,,轻率,i,,,i,1,0.0922,0,54,54,48,1,,
,,,,,,,,,,,,,1,001,2025-01-02_14h25.53.373,IAT(Formal),2021.2.3,Win32,59.52380952,,,,,,,,,,,,,,,,,,,,,,,,,,,,,,,,,,,,,,,,,,,,,,,,,,,,,我的,i,,,e,0,0.1473,0,55,55,51,1,,
,,,,,,,,,,,,,1,001,2025-01-02_14h25.53.373,IAT(Formal),2021.2.3,Win32,59.52380952,,,,,,,,,,,,,,,,,,,,,,,,,,,,,,,,,,,,,,,,,,,,,,,,,,,,,俺,i,,,e,0,1.0585,0,56,56,74,1,,
,,,,,,,,,,,,,1,001,2025-01-02_14h25.53.373,IAT(Formal),2021.2.3,Win32,59.52380952,,,,,,,,,,,,,,,,,,,,,,,,,,,,,,,,,,,,,,,,,,,,,,,,,,,,,勇敢,e,,,e,1,0.2178,0,57,57,17,1,,
,,,,,,,,,,,,,1,001,2025-01-02_14h25.53.373,IAT(Formal),2021.2.3,Win32,59.52380952,,,,,,,,,,,,,,,,,,,,,,,,,,,,,,,,,,,,,,,,,,,,,,,,,,,,,其他,e,,,i,0,0.0379,0,58,58,9,1,,
,,,,,,,,,,,,,1,001,2025-01-02_14h25.53.373,IAT(Formal),2021.2.3,Win32,59.52380952,,,,,,,,,,,,,,,,,,,,,,,,,,,,,,,,,,,,,,,,,,,,,,,,,,,,,刻薄,i,,,e,0,0.1867,0,59,59,33,1,,
,,,,,,,,,,,,,1,001,2025-01-02_14h25.53.373,IAT(Formal),2021.2.3,Win32,59.52380952,,,,,,,,,,,,,,,,,,,,,,,,,,,,,,,,,,,,,,,,,,,,,,,,,,,,,消极,i,,,e,0,0.2929,0,60,60,35,1,,
,,,,,,,,,,,,,1,001,2025-01-02_14h25.53.373,IAT(Formal),2021.2.3,Win32,59.52380952,,,,,,,,,,,,,,,,,,,,,,,,,,,,,,,,,,,,,,,,,,,,,,,,,,,,,散漫,i,,,i,1,0.5162,0,61,61,41,1,,
,,,,,,,,,,,,,1,001,2025-01-02_14h25.53.373,IAT(Formal),2021.2.3,Win32,59.52380952,,,,,,,,,,,,,,,,,,,,,,,,,,,,,,,,,,,,,,,,,,,,,,,,,,,,,执拗,i,,,e,0,0.1906,0,62,62,40,1,,
,,,,,,,,,,,,,1,001,2025-01-02_14h25.53.373,IAT(Formal),2021.2.3,Win32,59.52380952,,,,,,,,,,,,,,,,,,,,,,,,,,,,,,,,,,,,,,,,,,,,,,,,,,,,,自己,i,,,i,1,0.2827,0,63,63,73,1,,
,,,,,,,,,,,,,1,001,2025-01-02_14h25.53.373,IAT(Formal),2021.2.3,Win32,59.52380952,,,,,,,,,,,,,,,,,,,,,,,,,,,,,,,,,,,,,,,,,,,,,,,,,,,,,我的,i,,,e,0,0.0721,0,64,64,1,1,,
,,,,,,,,,,,,,1,001,2025-01-02_14h25.53.373,IAT(Formal),2021.2.3,Win32,59.52380952,,,,,,,,,,,,,,,,,,,,,,,,,,,,,,,,,,,,,,,,,,,,,,,,,,,,,他人,e,,,e,1,0.0793,0,65,65,8,1,,
,,,,,,,,,,,,,1,001,2025-01-02_14h25.53.373,IAT(Formal),2021.2.3,Win32,59.52380952,,,,,,,,,,,,,,,,,,,,,,,,,,,,,,,,,,,,,,,,,,,,,,,,,,,,,卑鄙,i,,,e,0,0.2782,0,66,66,30,1,,
,,,,,,,,,,,,,1,001,2025-01-02_14h25.53.373,IAT(Formal),2021.2.3,Win32,59.52380952,,,,,,,,,,,,,,,,,,,,,,,,,,,,,,,,,,,,,,,,,,,,,,,,,,,,,杰出,e,,,i,0,0.1313,0,67,67,13,1,,
,,,,,,,,,,,,,1,001,2025-01-02_14h25.53.373,IAT(Formal),2021.2.3,Win32,59.52380952,,,,,,,,,,,,,,,,,,,,,,,,,,,,,,,,,,,,,,,,,,,,,,,,,,,,,热情,e,,,e,1,0.282,0,68,68,27,1,,
,,,,,,,,,,,,,1,001,2025-01-02_14h25.53.373,IAT(Formal),2021.2.3,Win32,59.52380952,,,,,,,,,,,,,,,,,,,,,,,,,,,,,,,,,,,,,,,,,,,,,,,,,,,,,冒失,i,,,e,0,0.0299,0,69,69,39,1,,
,,,,,,,,,,,,,1,001,2025-01-02_14h25.53.373,IAT(Formal),2021.2.3,Win32,59.52380952,,,,,,,,,,,,,,,,,,,,,,,,,,,,,,,,,,,,,,,,,,,,,,,,,,,,,我们,i,,,e,0,0.036,0,70,70,62,1,,
,,,,,,,,,,,,,1,001,2025-01-02_14h25.53.373,IAT(Formal),2021.2.3,Win32,59.52380952,,,,,,,,,,,,,,,,,,,,,,,,,,,,,,,,,,,,,,,,,,,,,,,,,,,,,冷静,e,,,e,1,0.0009,0,71,71,26,1,,
,,,,,,,,,,,,,1,001,2025-01-02_14h25.53.373,IAT(Formal),2021.2.3,Win32,59.52380952,,,,,,,,,,,,,,,,,,,,,,,,,,,,,,,,,,,,,,,,,,,,,,,,,,,,,他们,e,,,e,1,0.2072,0,72,72,76,1,,
,,,,,,,,,,,,,1,001,2025-01-02_14h25.53.373,IAT(Formal),2021.2.3,Win32,59.52380952,,,,,,,,,,,,,,,,,,,,,,,,,,,,,,,,,,,,,,,,,,,,,,,,,,,,,无私,e,,,,0,,0,73,73,22,1,,
,,,,,,,,,,,,,1,001,2025-01-02_14h25.53.373,IAT(Formal),2021.2.3,Win32,59.52380952,,,,,,,,,,,,,,,,,,,,,,,,,,,,,,,,,,,,,,,,,,,,,,,,,,,,,自己,i,,,,0,,0,74,74,63,1,,
,,,,,,,,,,,,,1,001,2025-01-02_14h25.53.373,IAT(Formal),2021.2.3,Win32,59.52380952,,,,,,,,,,,,,,,,,,,,,,,,,,,,,,,,,,,,,,,,,,,,,,,,,,,,,他人,e,,,i,0,0.2208,0,75,75,58,1,,
,,,,,,,,,,,,,1,001,2025-01-02_14h25.53.373,IAT(Formal),2021.2.3,Win32,59.52380952,,,,,,,,,,,,,,,,,,,,,,,,,,,,,,,,,,,,,,,,,,,,,,,,,,,,,我们,i,,,i,1,0.1383,0,76,76,52,1,,
,,,,,,,,,,,,,1,001,2025-01-02_14h25.53.373,IAT(Formal),2021.2.3,Win32,59.52380952,,,,,,,,,,,,,,,,,,,,,,,,,,,,,,,,,,,,,,,,,,,,,,,,,,,,,自私,i,,,i,1,0.1528,0,77,77,43,1,,
,,,,,,,,,,,,,1,001,2025-01-02_14h25.53.373,IAT(Formal),2021.2.3,Win32,59.52380952,,,,,,,,,,,,,,,,,,,,,,,,,,,,,,,,,,,,,,,,,,,,,,,,,,,,,正直,e,,,i,0,0.1487,0,78,78,16,1,,
,,,,,,,,,,,,,1,001,2025-01-02_14h25.53.373,IAT(Formal),2021.2.3,Win32,59.52380952,,,,,,,,,,,,,,,,,,,,,,,,,,,,,,,,,,,,,,,,,,,,,,,,,,,,,公正,e,,,i,0,0.1173,0,79,79,23,1,,
,,,,,,,,,,,,,1,001,2025-01-02_14h25.53.373,IAT(Formal),2021.2.3,Win32,59.52380952,,,,,,,,,,,,,,,,,,,,,,,,,,,,,,,,,,,,,,,,,,,,,,,,,,,,,公正,e,,,i,0,0.1839,1,0,80,23,1,,
,,,,,,,,,,,,,1,001,2025-01-02_14h25.53.373,IAT(Formal),2021.2.3,Win32,59.52380952,,,,,,,,,,,,,,,,,,,,,,,,,,,,,,,,,,,,,,,,,,,,,,,,,,,,,执拗,i,,,i,1,0.0132,1,1,81,40,1,,
,,,,,,,,,,,,,1,001,2025-01-02_14h25.53.373,IAT(Formal),2021.2.3,Win32,59.52380952,,,,,,,,,,,,,,,,,,,,,,,,,,,,,,,,,,,,,,,,,,,,,,,,,,,,,下贱,i,,,i,1,0.1825,1,2,82,49,1,,
,,,,,,,,,,,,,1,001,2025-01-02_14h25.53.373,IAT(Formal),2021.2.3,Win32,59.52380952,,,,,,,,,,,,,,,,,,,,,,,,,,,,,,,,,,,,,,,,,,,,,,,,,,,,,他,e,,,i,0,0.0945,1,3,83,75,1,,
,,,,,,,,,,,,,1,001,2025-01-02_14h25.53.373,IAT(Formal),2021.2.3,Win32,59.52380952,,,,,,,,,,,,,,,,,,,,,,,,,,,,,,,,,,,,,,,,,,,,,,,,,,,,,悲观,i,,,e,0,0.0187,1,4,84,34,1,,
,,,,,,,,,,,,,1,001,2025-01-02_14h25.53.373,IAT(Formal),2021.2.3,Win32,59.52380952,,,,,,,,,,,,,,,,,,,,,,,,,,,,,,,,,,,,,,,,,,,,,,,,,,,,,虚伪,i,,,e,0,0.1381,1,5,85,31,1,,
,,,,,,,,,,,,,1,001,2025-01-02_14h25.53.373,IAT(Formal),2021.2.3,Win32,59.52380952,,,,,,,,,,,,,,,,,,,,,,,,,,,,,,,,,,,,,,,,,,,,,,,,,,,,,轻率,i,,,e,0,0.2335,1,6,86,48,1,,
,,,,,,,,,,,,,1,001,2025-01-02_14h25.53.373,IAT(Formal),2021.2.3,Win32,59.52380952,,,,,,,,,,,,,,,,,,,,,,,,,,,,,,,,,,,,,,,,,,,,,,,,,,,,,自己,i,,,e,0,0.1325,1,7,87,63,1,,
,,,,,,,,,,,,,1,001,2025-01-02_14h25.53.373,IAT(Formal),2021.2.3,Win32,59.52380952,,,,,,,,,,,,,,,,,,,,,,,,,,,,,,,,,,,,,,,,,,,,,,,,,,,,,我的,i,,,e,0,0.1122,1,8,88,71,1,,
,,,,,,,,,,,,,1,001,2025-01-02_14h25.53.373,IAT(Formal),2021.2.3,Win32,59.52380952,,,,,,,,,,,,,,,,,,,,,,,,,,,,,,,,,,,,,,,,,,,,,,,,,,,,,乐观,e,,,e,1,0.1672,1,9,89,14,1,,
,,,,,,,,,,,,,1,001,2025-01-02_14h25.53.373,IAT(Formal),2021.2.3,Win32,59.52380952,,,,,,,,,,,,,,,,,,,,,,,,,,,,,,,,,,,,,,,,,,,,,,,,,,,,,猖狂,i,,,e,0,0.136,1,10,90,45,1,,
,,,,,,,,,,,,,1,001,2025-01-02_14h25.53.373,IAT(Formal),2021.2.3,Win32,59.52380952,,,,,,,,,,,,,,,,,,,,,,,,,,,,,,,,,,,,,,,,,,,,,,,,,,,,,活泼,e,,,e,1,0.0653,1,11,91,28,1,,
,,,,,,,,,,,,,1,001,2025-01-02_14h25.53.373,IAT(Formal),2021.2.3,Win32,59.52380952,,,,,,,,,,,,,,,,,,,,,,,,,,,,,,,,,,,,,,,,,,,,,,,,,,,,,他们,e,,,,0,,1,12,92,76,1,,
,,,,,,,,,,,,,1,001,2025-01-02_14h25.53.373,IAT(Formal),2021.2.3,Win32,59.52380952,,,,,,,,,,,,,,,,,,,,,,,,,,,,,,,,,,,,,,,,,,,,,,,,,,,,,机智,e,,,,0,,1,13,93,19,1,,
,,,,,,,,,,,,,1,001,2025-01-02_14h25.53.373,IAT(Formal),2021.2.3,Win32,59.52380952,,,,,,,,,,,,,,,,,,,,,,,,,,,,,,,,,,,,,,,,,,,,,,,,,,,,,冷静,e,,,e,1,1.1027,1,14,94,26,1,,
,,,,,,,,,,,,,1,001,2025-01-02_14h25.53.373,IAT(Formal),2021.2.3,Win32,59.52380952,,,,,,,,,,,,,,,,,,,,,,,,,,,,,,,,,,,,,,,,,,,,,,,,,,,,,我,i,,,e,0,0.0832,1,15,95,0,1,,
,,,,,,,,,,,,,1,001,2025-01-02_14h25.53.373,IAT(Formal),2021.2.3,Win32,59.52380952,,,,,,,,,,,,,,,,,,,,,,,,,,,,,,,,,,,,,,,,,,,,,,,,,,,,,热情,e,,,e,1,0.3207,1,16,96,27,1,,
,,,,,,,,,,,,,1,001,2025-01-02_14h25.53.373,IAT(Formal),2021.2.3,Win32,59.52380952,,,,,,,,,,,,,,,,,,,,,,,,,,,,,,,,,,,,,,,,,,,,,,,,,,,,,他人,e,,,e,1,0.1514,1,17,97,78,1,,
,,,,,,,,,,,,,1,001,2025-01-02_14h25.53.373,IAT(Formal),2021.2.3,Win32,59.52380952,,,,,,,,,,,,,,,,,,,,,,,,,,,,,,,,,,,,,,,,,,,,,,,,,,,,,暴躁,i,,,e,0,0.064,1,18,98,44,1,,
,,,,,,,,,,,,,1,001,2025-01-02_14h25.53.373,IAT(Formal),2021.2.3,Win32,59.52380952,,,,,,,,,,,,,,,,,,,,,,,,,,,,,,,,,,,,,,,,,,,,,,,,,,,,,我,i,,,e,0,0.0253,1,19,99,60,1,,
,,,,,,,,,,,,,1,001,2025-01-02_14h25.53.373,IAT(Formal),2021.2.3,Win32,59.52380952,,,,,,,,,,,,,,,,,,,,,,,,,,,,,,,,,,,,,,,,,,,,,,,,,,,,,认真,e,,,e,1,0.064,1,20,100,20,1,,
,,,,,,,,,,,,,1,001,2025-01-02_14h25.53.373,IAT(Formal),2021.2.3,Win32,59.52380952,,,,,,,,,,,,,,,,,,,,,,,,,,,,,,,,,,,,,,,,,,,,,,,,,,,,,无私,e,,,e,1,0.531,1,21,101,22,1,,
,,,,,,,,,,,,,1,001,2025-01-02_14h25.53.373,IAT(Formal),2021.2.3,Win32,59.52380952,,,,,,,,,,,,,,,,,,,,,,,,,,,,,,,,,,,,,,,,,,,,,,,,,,,,,俺,i,,,e,0,0.204,1,22,102,74,1,,
,,,,,,,,,,,,,1,001,2025-01-02_14h25.53.373,IAT(Formal),2021.2.3,Win32,59.52380952,,,,,,,,,,,,,,,,,,,,,,,,,,,,,,,,,,,,,,,,,,,,,,,,,,,,,卑鄙,i,,,e,0,0.0444,1,23,103,30,1,,
,,,,,,,,,,,,,1,001,2025-01-02_14h25.53.373,IAT(Formal),2021.2.3,Win32,59.52380952,,,,,,,,,,,,,,,,,,,,,,,,,,,,,,,,,,,,,,,,,,,,,,,,,,,,,细腻,e,,,e,1,0.2198,1,24,104,25,1,,
,,,,,,,,,,,,,1,001,2025-01-02_14h25.53.373,IAT(Formal),2021.2.3,Win32,59.52380952,,,,,,,,,,,,,,,,,,,,,,,,,,,,,,,,,,,,,,,,,,,,,,,,,,,,,自私,i,,,e,0,0.0258,1,25,105,43,1,,
,,,,,,,,,,,,,1,001,2025-01-02_14h25.53.373,IAT(Formal),2021.2.3,Win32,59.52380952,,,,,,,,,,,,,,,,,,,,,,,,,,,,,,,,,,,,,,,,,,,,,,,,,,,,,他的,e,,,e,1,0.7114,1,26,106,77,1,,
,,,,,,,,,,,,,1,001,2025-01-02_14h25.53.373,IAT(Formal),2021.2.3,Win32,59.52380952,,,,,,,,,,,,,,,,,,,,,,,,,,,,,,,,,,,,,,,,,,,,,,,,,,,,,他人,e,,,e,1,0.2116,1,27,107,58,1,,
,,,,,,,,,,,,,1,001,2025-01-02_14h25.53.373,IAT(Formal),2021.2.3,Win32,59.52380952,,,,,,,,,,,,,,,,,,,,,,,,,,,,,,,,,,,,,,,,,,,,,,,,,,,,,我的,i,,,e,0,0.261,1,28,108,61,1,,
,,,,,,,,,,,,,1,001,2025-01-02_14h25.53.373,IAT(Formal),2021.2.3,Win32,59.52380952,,,,,,,,,,,,,,,,,,,,,,,,,,,,,,,,,,,,,,,,,,,,,,,,,,,,,杰出,e,,,i,0,0.0462,1,29,109,13,1,,
,,,,,,,,,,,,,1,001,2025-01-02_14h25.53.373,IAT(Formal),2021.2.3,Win32,59.52380952,,,,,,,,,,,,,,,,,,,,,,,,,,,,,,,,,,,,,,,,,,,,,,,,,,,,,我们,i,,,i,1,0.2078,1,30,110,52,1,,
,,,,,,,,,,,,,1,001,2025-01-02_14h25.53.373,IAT(Formal),2021.2.3,Win32,59.52380952,,,,,,,,,,,,,,,,,,,,,,,,,,,,,,,,,,,,,,,,,,,,,,,,,,,,,他们,e,,,i,0,0.1995,1,31,111,66,1,,
,,,,,,,,,,,,,1,001,2025-01-02_14h25.53.373,IAT(Formal),2021.2.3,Win32,59.52380952,,,,,,,,,,,,,,,,,,,,,,,,,,,,,,,,,,,,,,,,,,,,,,,,,,,,,他,e,,,e,1,0.1704,1,32,112,55,1,,
,,,,,,,,,,,,,1,001,2025-01-02_14h25.53.373,IAT(Formal),2021.2.3,Win32,59.52380952,,,,,,,,,,,,,,,,,,,,,,,,,,,,,,,,,,,,,,,,,,,,,,,,,,,,,鲁莽,i,,,i,1,0.025,1,33,113,38,1,,
,,,,,,,,,,,,,1,001,2025-01-02_14h25.53.373,IAT(Formal),2021.2.3,Win32,59.52380952,,,,,,,,,,,,,,,,,,,,,,,,,,,,,,,,,,,,,,,,,,,,,,,,,,,,,正直,e,,,e,1,0.0355,1,34,114,16,1,,
,,,,,,,,,,,,,1,001,2025-01-02_14h25.53.373,IAT(Formal),2021.2.3,Win32,59.52380952,,,,,,,,,,,,,,,,,,,,,,,,,,,,,,,,,,,,,,,,,,,,,,,,,,,,,自己,i,,,e,0,0.282,1,35,115,53,1,,
,,,,,,,,,,,,,1,001,2025-01-02_14h25.53.373,IAT(Formal),2021.2.3,Win32,59.52380952,,,,,,,,,,,,,,,,,,,,,,,,,,,,,,,,,,,,,,,,,,,,,,,,,,,,,自己,i,,,i,1,0.0547,1,36,116,73,1,,
,,,,,,,,,,,,,1,001,2025-01-02_14h25.53.373,IAT(Formal),2021.2.3,Win32,59.52380952,,,,,,,,,,,,,,,,,,,,,,,,,,,,,,,,,,,,,,,,,,,,,,,,,,,,,俺,i,,,i,1,0.0316,1,37,117,54,1,,
,,,,,,,,,,,,,1,001,2025-01-02_14h25.53.373,IAT(Formal),2021.2.3,Win32,59.52380952,,,,,,,,,,,,,,,,,,,,,,,,,,,,,,,,,,,,,,,,,,,,,,,,,,,,,他的,e,,,e,1,0.0369,1,38,118,7,1,,
,,,,,,,,,,,,,1,001,2025-01-02_14h25.53.373,IAT(Formal),2021.2.3,Win32,59.52380952,,,,,,,,,,,,,,,,,,,,,,,,,,,,,,,,,,,,,,,,,,,,,,,,,,,,,野蛮,i,,,e,0,0.0714,1,39,119,46,1,,
,,,,,,,,,,,,,1,001,2025-01-02_14h25.53.373,IAT(Formal),2021.2.3,Win32,59.52380952,,,,,,,,,,,,,,,,,,,,,,,,,,,,,,,,,,,,,,,,,,,,,,,,,,,,,消极,i,,,e,0,0.0013,1,40,120,35,1,,
,,,,,,,,,,,,,1,001,2025-01-02_14h25.53.373,IAT(Formal),2021.2.3,Win32,59.52380952,,,,,,,,,,,,,,,,,,,,,,,,,,,,,,,,,,,,,,,,,,,,,,,,,,,,,我,i,,,e,0,0.194,1,41,121,70,1,,
,,,,,,,,,,,,,1,001,2025-01-02_14h25.53.373,IAT(Formal),2021.2.3,Win32,59.52380952,,,,,,,,,,,,,,,,,,,,,,,,,,,,,,,,,,,,,,,,,,,,,,,,,,,,,他,e,,,e,1,0.174,1,42,122,65,1,,
,,,,,,,,,,,,,1,001,2025-01-02_14h25.53.373,IAT(Formal),2021.2.3,Win32,59.52380952,,,,,,,,,,,,,,,,,,,,,,,,,,,,,,,,,,,,,,,,,,,,,,,,,,,,,他们,e,,,e,1,0.0099,1,43,123,56,1,,
,,,,,,,,,,,,,1,001,2025-01-02_14h25.53.373,IAT(Formal),2021.2.3,Win32,59.52380952,,,,,,,,,,,,,,,,,,,,,,,,,,,,,,,,,,,,,,,,,,,,,,,,,,,,,勤奋,e,,,e,1,0.3218,1,44,124,18,1,,
,,,,,,,,,,,,,1,001,2025-01-02_14h25.53.373,IAT(Formal),2021.2.3,Win32,59.52380952,,,,,,,,,,,,,,,,,,,,,,,,,,,,,,,,,,,,,,,,,,,,,,,,,,,,,散漫,i,,,e,0,0.2061,1,45,125,41,1,,
,,,,,,,,,,,,,1,001,2025-01-02_14h25.53.373,IAT(Formal),2021.2.3,Win32,59.52380952,,,,,,,,,,,,,,,,,,,,,,,,,,,,,,,,,,,,,,,,,,,,,,,,,,,,,固执,i,,,e,0,0.2485,1,46,126,47,1,,
,,,,,,,,,,,,,1,001,2025-01-02_14h25.53.373,IAT(Formal),2021.2.3,Win32,59.52380952,,,,,,,,,,,,,,,,,,,,,,,,,,,,,,,,,,,,,,,,,,,,,,,,,,,,,我们,i,,,e,0,0.1322,1,47,127,62,1,,
,,,,,,,,,,,,,1,001,2025-01-02_14h25.53.373,IAT(Formal),2021.2.3,Win32,59.52380952,,,,,,,,,,,,,,,,,,,,,,,,,,,,,,,,,,,,,,,,,,,,,,,,,,,,,其他,e,,,e,1,0.2476,1,48,128,79,1,,
,,,,,,,,,,,,,1,001,2025-01-02_14h25.53.373,IAT(Formal),2021.2.3,Win32,59.52380952,,,,,,,,,,,,,,,,,,,,,,,,,,,,,,,,,,,,,,,,,,,,,,,,,,,,,我,i,,,e,0,0.0358,1,49,129,50,1,,
,,,,,,,,,,,,,1,001,2025-01-02_14h25.53.373,IAT(Formal),2021.2.3,Win32,59.52380952,,,,,,,,,,,,,,,,,,,,,,,,,,,,,,,,,,,,,,,,,,,,,,,,,,,,,我们,i,,,e,0,0.2499,1,50,130,2,1,,
,,,,,,,,,,,,,1,001,2025-01-02_14h25.53.373,IAT(Formal),2021.2.3,Win32,59.52380952,,,,,,,,,,,,,,,,,,,,,,,,,,,,,,,,,,,,,,,,,,,,,,,,,,,,,稳重,e,,,e,1,0.2687,1,51,131,21,1,,
,,,,,,,,,,,,,1,001,2025-01-02_14h25.53.373,IAT(Formal),2021.2.3,Win32,59.52380952,,,,,,,,,,,,,,,,,,,,,,,,,,,,,,,,,,,,,,,,,,,,,,,,,,,,,勇敢,e,,,e,1,0.3163,1,52,132,17,1,,
,,,,,,,,,,,,,1,001,2025-01-02_14h25.53.373,IAT(Formal),2021.2.3,Win32,59.52380952,,,,,,,,,,,,,,,,,,,,,,,,,,,,,,,,,,,,,,,,,,,,,,,,,,,,,其他,e,,,e,1,0.2671,1,53,133,9,1,,
,,,,,,,,,,,,,1,001,2025-01-02_14h25.53.373,IAT(Formal),2021.2.3,Win32,59.52380952,,,,,,,,,,,,,,,,,,,,,,,,,,,,,,,,,,,,,,,,,,,,,,,,,,,,,傲慢,i,,,i,1,0.2519,1,54,134,37,1,,
,,,,,,,,,,,,,1,001,2025-01-02_14h25.53.373,IAT(Formal),2021.2.3,Win32,59.52380952,,,,,,,,,,,,,,,,,,,,,,,,,,,,,,,,,,,,,,,,,,,,,,,,,,,,,他的,e,,,e,1,0.0252,1,55,135,57,1,,
,,,,,,,,,,,,,1,001,2025-01-02_14h25.53.373,IAT(Formal),2021.2.3,Win32,59.52380952,,,,,,,,,,,,,,,,,,,,,,,,,,,,,,,,,,,,,,,,,,,,,,,,,,,,,他人,e,,,e,1,0.3912,1,56,136,68,1,,
,,,,,,,,,,,,,1,001,2025-01-02_14h25.53.373,IAT(Formal),2021.2.3,Win32,59.52380952,,,,,,,,,,,,,,,,,,,,,,,,,,,,,,,,,,,,,,,,,,,,,,,,,,,,,朴实,e,,,e,1,0.0831,1,57,137,24,1,,
,,,,,,,,,,,,,1,001,2025-01-02_14h25.53.373,IAT(Formal),2021.2.3,Win32,59.52380952,,,,,,,,,,,,,,,,,,,,,,,,,,,,,,,,,,,,,,,,,,,,,,,,,,,,,诚恳,e,,,e,1,0.1291,1,58,138,29,1,,
,,,,,,,,,,,,,1,001,2025-01-02_14h25.53.373,IAT(Formal),2021.2.3,Win32,59.52380952,,,,,,,,,,,,,,,,,,,,,,,,,,,,,,,,,,,,,,,,,,,,,,,,,,,,,自卑,i,,,e,0,0.0992,1,59,139,36,1,,
,,,,,,,,,,,,,1,001,2025-01-02_14h25.53.373,IAT(Formal),2021.2.3,Win32,59.52380952,,,,,,,,,,,,,,,,,,,,,,,,,,,,,,,,,,,,,,,,,,,,,,,,,,,,,我们,i,,,i,1,0.8279,1,60,140,72,1,,
,,,,,,,,,,,,,1,001,2025-01-02_14h25.53.373,IAT(Formal),2021.2.3,Win32,59.52380952,,,,,,,,,,,,,,,,,,,,,,,,,,,,,,,,,,,,,,,,,,,,,,,,,,,,,我的,i,,,e,0,0.1246,1,61,141,1,1,,
,,,,,,,,,,,,,1,001,2025-01-02_14h25.53.373,IAT(Formal),2021.2.3,Win32,59.52380952,,,,,,,,,,,,,,,,,,,,,,,,,,,,,,,,,,,,,,,,,,,,,,,,,,,,,俺,i,,,e,0,0.2192,1,62,142,64,1,,
,,,,,,,,,,,,,1,001,2025-01-02_14h25.53.373,IAT(Formal),2021.2.3,Win32,59.52380952,,,,,,,,,,,,,,,,,,,,,,,,,,,,,,,,,,,,,,,,,,,,,,,,,,,,,他的,e,,,e,1,0.2724,1,63,143,67,1,,
,,,,,,,,,,,,,1,001,2025-01-02_14h25.53.373,IAT(Formal),2021.2.3,Win32,59.52380952,,,,,,,,,,,,,,,,,,,,,,,,,,,,,,,,,,,,,,,,,,,,,,,,,,,,,崇高,e,,,e,1,0.0138,1,64,144,11,1,,
,,,,,,,,,,,,,1,001,2025-01-02_14h25.53.373,IAT(Formal),2021.2.3,Win32,59.52380952,,,,,,,,,,,,,,,,,,,,,,,,,,,,,,,,,,,,,,,,,,,,,,,,,,,,,其他,e,,,e,1,0.2312,1,65,145,69,1,,
,,,,,,,,,,,,,1,001,2025-01-02_14h25.53.373,IAT(Formal),2021.2.3,Win32,59.52380952,,,,,,,,,,,,,,,,,,,,,,,,,,,,,,,,,,,,,,,,,,,,,,,,,,,,,俺,i,,,e,0,0.1688,1,66,146,4,1,,
,,,,,,,,,,,,,1,001,2025-01-02_14h25.53.373,IAT(Formal),2021.2.3,Win32,59.52380952,,,,,,,,,,,,,,,,,,,,,,,,,,,,,,,,,,,,,,,,,,,,,,,,,,,,,优秀,e,,,e,1,0.2049,1,67,147,10,1,,
,,,,,,,,,,,,,1,001,2025-01-02_14h25.53.373,IAT(Formal),2021.2.3,Win32,59.52380952,,,,,,,,,,,,,,,,,,,,,,,,,,,,,,,,,,,,,,,,,,,,,,,,,,,,,聪明,e,,,e,1,0.1721,1,68,148,12,1,,
,,,,,,,,,,,,,1,001,2025-01-02_14h25.53.373,IAT(Formal),2021.2.3,Win32,59.52380952,,,,,,,,,,,,,,,,,,,,,,,,,,,,,,,,,,,,,,,,,,,,,,,,,,,,,我的,i,,,e,0,0.1492,1,69,149,51,1,,
,,,,,,,,,,,,,1,001,2025-01-02_14h25.53.373,IAT(Formal),2021.2.3,Win32,59.52380952,,,,,,,,,,,,,,,,,,,,,,,,,,,,,,,,,,,,,,,,,,,,,,,,,,,,,他,e,,,e,1,0.3994,1,70,150,5,1,,
,,,,,,,,,,,,,1,001,2025-01-02_14h25.53.373,IAT(Formal),2021.2.3,Win32,59.52380952,,,,,,,,,,,,,,,,,,,,,,,,,,,,,,,,,,,,,,,,,,,,,,,,,,,,,其他,e,,,e,1,0.2233,1,71,151,59,1,,
,,,,,,,,,,,,,1,001,2025-01-02_14h25.53.373,IAT(Formal),2021.2.3,Win32,59.52380952,,,,,,,,,,,,,,,,,,,,,,,,,,,,,,,,,,,,,,,,,,,,,,,,,,,,,愚蠢,i,,,e,0,0.4123,1,72,152,32,1,,
,,,,,,,,,,,,,1,001,2025-01-02_14h25.53.373,IAT(Formal),2021.2.3,Win32,59.52380952,,,,,,,,,,,,,,,,,,,,,,,,,,,,,,,,,,,,,,,,,,,,,,,,,,,,,诚实,e,,,e,1,0.2984,1,73,153,15,1,,
,,,,,,,,,,,,,1,001,2025-01-02_14h25.53.373,IAT(Formal),2021.2.3,Win32,59.52380952,,,,,,,,,,,,,,,,,,,,,,,,,,,,,,,,,,,,,,,,,,,,,,,,,,,,,冒失,i,,,e,0,0.2661,1,74,154,39,1,,
,,,,,,,,,,,,,1,001,2025-01-02_14h25.53.373,IAT(Formal),2021.2.3,Win32,59.52380952,,,,,,,,,,,,,,,,,,,,,,,,,,,,,,,,,,,,,,,,,,,,,,,,,,,,,刻薄,i,,,e,0,0.1005,1,75,155,33,1,,
,,,,,,,,,,,,,1,001,2025-01-02_14h25.53.373,IAT(Formal),2021.2.3,Win32,59.52380952,,,,,,,,,,,,,,,,,,,,,,,,,,,,,,,,,,,,,,,,,,,,,,,,,,,,,他人,e,,,e,1,0.4855,1,76,156,8,1,,
,,,,,,,,,,,,,1,001,2025-01-02_14h25.53.373,IAT(Formal),2021.2.3,Win32,59.52380952,,,,,,,,,,,,,,,,,,,,,,,,,,,,,,,,,,,,,,,,,,,,,,,,,,,,,他们,e,,,e,1,0.2816,1,77,157,6,1,,
,,,,,,,,,,,,,1,001,2025-01-02_14h25.53.373,IAT(Formal),2021.2.3,Win32,59.52380952,,,,,,,,,,,,,,,,,,,,,,,,,,,,,,,,,,,,,,,,,,,,,,,,,,,,,自己,i,,,e,0,0.3624,1,78,158,3,1,,
,,,,,,,,,,,,,1,001,2025-01-02_14h25.53.373,IAT(Formal),2021.2.3,Win32,59.52380952,,,,,,,,,,,,,,,,,,,,,,,,,,,,,,,,,,,,,,,,,,,,,,,,,,,,,凶狠,i,,,e,0,0.2799,1,79,159,42,1,,
,,,,,,,,,,,,,1,001,2025-01-02_14h25.53.373,IAT(Formal),2021.2.3,Win32,59.52380952,,,,,,,,,,,,,,,,,,,,,,,,,,,,,,,,,,,,,,,,,,,,,,,,,,,,,,,,,,,,,,,,,space,18.2053