﻿Instruction1.keys,Instruction1.rt,Instruction2.keys,Instruction2.rt,key_resp_iso.keys,key_resp_iso.corr,Practice_01.thisRepN,Practice_01.thisTrialN,Practice_01.thisN,Practice_01.thisIndex,Practice_01.ran,Words,ans,participant,session,date,expName,psychopyVersion,OS,frameRate,key_resp_iso.rt,key_resp_3.keys,key_resp_3.rt,key_resp_ipn.keys,key_resp_ipn.corr,key_resp_ipn.rt,Practice_02.thisRepN,Practice_02.thisTrialN,Practice_02.thisN,Practice_02.thisIndex,Practice_02.ran,Words_ipn,ans_ipn,key_resp_4.keys,key_resp_4.rt,key_resp_t1.keys,key_resp_t1.corr,key_resp_t1.rt,Practice_T1.thisRepN,Practice_T1.thisTrialN,Practice_T1.thisN,Practice_T1.thisIndex,Practice_T1.ran,Words_t1,ans_t1,key_resp_5.keys,key_resp_5.rt,Formal_T1.thisRepN,Formal_T1.thisTrialN,Formal_T1.thisN,Formal_T1.thisIndex,Formal_T1.ran,key_resp_6.keys,key_resp_6.rt,key_resp_iso_reverse.keys,key_resp_iso_reverse.corr,key_resp_iso_reverse.rt,Practice_iso_Reverse.thisRepN,Practice_iso_Reverse.thisTrialN,Practice_iso_Reverse.thisN,Practice_iso_Reverse.thisIndex,Practice_iso_Reverse.ran,key_resp_7.keys,key_resp_7.rt,key_resp_t2_Practice.keys,key_resp_t2_Practice.corr,key_resp_t2_Practice.rt,Practice_t2_Reverse.thisRepN,Practice_t2_Reverse.thisTrialN,Practice_t2_Reverse.thisN,Practice_t2_Reverse.thisIndex,Practice_t2_Reverse.ran,Words_t2,ans_t2,key_resp_8.keys,key_resp_8.rt,key_resp_t2.keys,key_resp_t2.corr,key_resp_t2.rt,Formal_t2_reverse.thisRepN,Formal_t2_reverse.thisTrialN,Formal_t2_reverse.thisN,Formal_t2_reverse.thisIndex,Formal_t2_reverse.ran,key_instruct.keys,key_instruct.rt
space,8.3238,space,14.0042,,0,0,0,0,3,1,自己,e,11,001,2025-01-02_15h32.01.351,IAT(Formal),2021.2.3,Win32,60.24096386,,,,,,,,,,,,,,,,,,,,,,,,,,,,,,,,,,,,,,,,,,,,,,,,,,,,,,,,,,,,,,,,,,
,,,,i,1,0,1,1,5,1,他,i,11,001,2025-01-02_15h32.01.351,IAT(Formal),2021.2.3,Win32,60.24096386,0.6819,,,,,,,,,,,,,,,,,,,,,,,,,,,,,,,,,,,,,,,,,,,,,,,,,,,,,,,,,,,,,,,,,
,,,,i,1,0,2,2,7,1,他的,i,11,001,2025-01-02_15h32.01.351,IAT(Formal),2021.2.3,Win32,60.24096386,0.7009,,,,,,,,,,,,,,,,,,,,,,,,,,,,,,,,,,,,,,,,,,,,,,,,,,,,,,,,,,,,,,,,,
,,,,e,1,0,3,3,0,1,我,e,11,001,2025-01-02_15h32.01.351,IAT(Formal),2021.2.3,Win32,60.24096386,0.4672,,,,,,,,,,,,,,,,,,,,,,,,,,,,,,,,,,,,,,,,,,,,,,,,,,,,,,,,,,,,,,,,,
,,,,e,1,0,4,4,1,1,我的,e,11,001,2025-01-02_15h32.01.351,IAT(Formal),2021.2.3,Win32,60.24096386,0.4523,,,,,,,,,,,,,,,,,,,,,,,,,,,,,,,,,,,,,,,,,,,,,,,,,,,,,,,,,,,,,,,,,
,,,,i,1,0,5,5,6,1,他们,i,11,001,2025-01-02_15h32.01.351,IAT(Formal),2021.2.3,Win32,60.24096386,0.5523,,,,,,,,,,,,,,,,,,,,,,,,,,,,,,,,,,,,,,,,,,,,,,,,,,,,,,,,,,,,,,,,,
,,,,i,1,0,6,6,8,1,他人,i,11,001,2025-01-02_15h32.01.351,IAT(Formal),2021.2.3,Win32,60.24096386,0.6797,,,,,,,,,,,,,,,,,,,,,,,,,,,,,,,,,,,,,,,,,,,,,,,,,,,,,,,,,,,,,,,,,
,,,,i,1,0,7,7,9,1,其他,i,11,001,2025-01-02_15h32.01.351,IAT(Formal),2021.2.3,Win32,60.24096386,0.7058,,,,,,,,,,,,,,,,,,,,,,,,,,,,,,,,,,,,,,,,,,,,,,,,,,,,,,,,,,,,,,,,,
,,,,e,1,0,8,8,2,1,我们,e,11,001,2025-01-02_15h32.01.351,IAT(Formal),2021.2.3,Win32,60.24096386,0.4399,,,,,,,,,,,,,,,,,,,,,,,,,,,,,,,,,,,,,,,,,,,,,,,,,,,,,,,,,,,,,,,,,
,,,,e,1,0,9,9,4,1,俺,e,11,001,2025-01-02_15h32.01.351,IAT(Formal),2021.2.3,Win32,60.24096386,0.5664,,,,,,,,,,,,,,,,,,,,,,,,,,,,,,,,,,,,,,,,,,,,,,,,,,,,,,,,,,,,,,,,,
,,,,,,,,,,,,,11,001,2025-01-02_15h32.01.351,IAT(Formal),2021.2.3,Win32,60.24096386,,space,12.199,e,1,0.8817,0,0,0,14,1,朴实,e,,,,,,,,,,,,,,,,,,,,,,,,,,,,,,,,,,,,,,,,,,,,,,,,,,,,,
,,,,,,,,,,,,,11,001,2025-01-02_15h32.01.351,IAT(Formal),2021.2.3,Win32,60.24096386,,,,e,1,0.5891,0,1,1,19,1,诚恳,e,,,,,,,,,,,,,,,,,,,,,,,,,,,,,,,,,,,,,,,,,,,,,,,,,,,,,
,,,,,,,,,,,,,11,001,2025-01-02_15h32.01.351,IAT(Formal),2021.2.3,Win32,60.24096386,,,,i,1,0.9526,0,2,2,28,1,鲁莽,i,,,,,,,,,,,,,,,,,,,,,,,,,,,,,,,,,,,,,,,,,,,,,,,,,,,,,
,,,,,,,,,,,,,11,001,2025-01-02_15h32.01.351,IAT(Formal),2021.2.3,Win32,60.24096386,,,,i,1,0.6326,0,3,3,35,1,猖狂,i,,,,,,,,,,,,,,,,,,,,,,,,,,,,,,,,,,,,,,,,,,,,,,,,,,,,,
,,,,,,,,,,,,,11,001,2025-01-02_15h32.01.351,IAT(Formal),2021.2.3,Win32,60.24096386,,,,i,1,0.5604,0,4,4,27,1,傲慢,i,,,,,,,,,,,,,,,,,,,,,,,,,,,,,,,,,,,,,,,,,,,,,,,,,,,,,
,,,,,,,,,,,,,11,001,2025-01-02_15h32.01.351,IAT(Formal),2021.2.3,Win32,60.24096386,,,,i,1,0.6449,0,5,5,38,1,轻率,i,,,,,,,,,,,,,,,,,,,,,,,,,,,,,,,,,,,,,,,,,,,,,,,,,,,,,
,,,,,,,,,,,,,11,001,2025-01-02_15h32.01.351,IAT(Formal),2021.2.3,Win32,60.24096386,,,,i,1,0.4913,0,6,6,31,1,散漫,i,,,,,,,,,,,,,,,,,,,,,,,,,,,,,,,,,,,,,,,,,,,,,,,,,,,,,
,,,,,,,,,,,,,11,001,2025-01-02_15h32.01.351,IAT(Formal),2021.2.3,Win32,60.24096386,,,,i,1,0.7015,0,7,7,24,1,悲观,i,,,,,,,,,,,,,,,,,,,,,,,,,,,,,,,,,,,,,,,,,,,,,,,,,,,,,
,,,,,,,,,,,,,11,001,2025-01-02_15h32.01.351,IAT(Formal),2021.2.3,Win32,60.24096386,,,,e,1,0.5393,0,8,8,13,1,公正,e,,,,,,,,,,,,,,,,,,,,,,,,,,,,,,,,,,,,,,,,,,,,,,,,,,,,,
,,,,,,,,,,,,,11,001,2025-01-02_15h32.01.351,IAT(Formal),2021.2.3,Win32,60.24096386,,,,e,1,0.4817,0,9,9,15,1,细腻,e,,,,,,,,,,,,,,,,,,,,,,,,,,,,,,,,,,,,,,,,,,,,,,,,,,,,,
,,,,,,,,,,,,,11,001,2025-01-02_15h32.01.351,IAT(Formal),2021.2.3,Win32,60.24096386,,,,i,1,0.7352,0,10,10,36,1,野蛮,i,,,,,,,,,,,,,,,,,,,,,,,,,,,,,,,,,,,,,,,,,,,,,,,,,,,,,
,,,,,,,,,,,,,11,001,2025-01-02_15h32.01.351,IAT(Formal),2021.2.3,Win32,60.24096386,,,,i,1,0.5887,0,11,11,22,1,愚蠢,i,,,,,,,,,,,,,,,,,,,,,,,,,,,,,,,,,,,,,,,,,,,,,,,,,,,,,
,,,,,,,,,,,,,11,001,2025-01-02_15h32.01.351,IAT(Formal),2021.2.3,Win32,60.24096386,,,,e,1,0.6442,0,12,12,18,1,活泼,e,,,,,,,,,,,,,,,,,,,,,,,,,,,,,,,,,,,,,,,,,,,,,,,,,,,,,
,,,,,,,,,,,,,11,001,2025-01-02_15h32.01.351,IAT(Formal),2021.2.3,Win32,60.24096386,,,,e,1,0.6446,0,13,13,1,1,崇高,e,,,,,,,,,,,,,,,,,,,,,,,,,,,,,,,,,,,,,,,,,,,,,,,,,,,,,
,,,,,,,,,,,,,11,001,2025-01-02_15h32.01.351,IAT(Formal),2021.2.3,Win32,60.24096386,,,,e,1,0.5073,0,14,14,7,1,勇敢,e,,,,,,,,,,,,,,,,,,,,,,,,,,,,,,,,,,,,,,,,,,,,,,,,,,,,,
,,,,,,,,,,,,,11,001,2025-01-02_15h32.01.351,IAT(Formal),2021.2.3,Win32,60.24096386,,,,i,1,0.6099,0,15,15,20,1,卑鄙,i,,,,,,,,,,,,,,,,,,,,,,,,,,,,,,,,,,,,,,,,,,,,,,,,,,,,,
,,,,,,,,,,,,,11,001,2025-01-02_15h32.01.351,IAT(Formal),2021.2.3,Win32,60.24096386,,,,e,1,0.686,0,16,16,3,1,杰出,e,,,,,,,,,,,,,,,,,,,,,,,,,,,,,,,,,,,,,,,,,,,,,,,,,,,,,
,,,,,,,,,,,,,11,001,2025-01-02_15h32.01.351,IAT(Formal),2021.2.3,Win32,60.24096386,,,,e,1,0.5963,0,17,17,11,1,稳重,e,,,,,,,,,,,,,,,,,,,,,,,,,,,,,,,,,,,,,,,,,,,,,,,,,,,,,
,,,,,,,,,,,,,11,001,2025-01-02_15h32.01.351,IAT(Formal),2021.2.3,Win32,60.24096386,,,,e,1,0.443,0,18,18,8,1,勤奋,e,,,,,,,,,,,,,,,,,,,,,,,,,,,,,,,,,,,,,,,,,,,,,,,,,,,,,
,,,,,,,,,,,,,11,001,2025-01-02_15h32.01.351,IAT(Formal),2021.2.3,Win32,60.24096386,,,,i,1,0.673,0,19,19,34,1,暴躁,i,,,,,,,,,,,,,,,,,,,,,,,,,,,,,,,,,,,,,,,,,,,,,,,,,,,,,
,,,,,,,,,,,,,11,001,2025-01-02_15h32.01.351,IAT(Formal),2021.2.3,Win32,60.24096386,,,,e,1,0.545,0,20,20,10,1,认真,e,,,,,,,,,,,,,,,,,,,,,,,,,,,,,,,,,,,,,,,,,,,,,,,,,,,,,
,,,,,,,,,,,,,11,001,2025-01-02_15h32.01.351,IAT(Formal),2021.2.3,Win32,60.24096386,,,,i,0,0.6689,0,21,21,4,1,乐观,e,,,,,,,,,,,,,,,,,,,,,,,,,,,,,,,,,,,,,,,,,,,,,,,,,,,,,
,,,,,,,,,,,,,11,001,2025-01-02_15h32.01.351,IAT(Formal),2021.2.3,Win32,60.24096386,,,,i,1,0.7626,0,22,22,21,1,虚伪,i,,,,,,,,,,,,,,,,,,,,,,,,,,,,,,,,,,,,,,,,,,,,,,,,,,,,,
,,,,,,,,,,,,,11,001,2025-01-02_15h32.01.351,IAT(Formal),2021.2.3,Win32,60.24096386,,,,e,1,1.2442,0,23,23,16,1,冷静,e,,,,,,,,,,,,,,,,,,,,,,,,,,,,,,,,,,,,,,,,,,,,,,,,,,,,,
,,,,,,,,,,,,,11,001,2025-01-02_15h32.01.351,IAT(Formal),2021.2.3,Win32,60.24096386,,,,i,1,0.6747,0,24,24,37,1,固执,i,,,,,,,,,,,,,,,,,,,,,,,,,,,,,,,,,,,,,,,,,,,,,,,,,,,,,
,,,,,,,,,,,,,11,001,2025-01-02_15h32.01.351,IAT(Formal),2021.2.3,Win32,60.24096386,,,,e,1,0.5461,0,25,25,0,1,优秀,e,,,,,,,,,,,,,,,,,,,,,,,,,,,,,,,,,,,,,,,,,,,,,,,,,,,,,
,,,,,,,,,,,,,11,001,2025-01-02_15h32.01.351,IAT(Formal),2021.2.3,Win32,60.24096386,,,,i,1,0.6771,0,26,26,29,1,冒失,i,,,,,,,,,,,,,,,,,,,,,,,,,,,,,,,,,,,,,,,,,,,,,,,,,,,,,
,,,,,,,,,,,,,11,001,2025-01-02_15h32.01.351,IAT(Formal),2021.2.3,Win32,60.24096386,,,,i,1,0.6787,0,27,27,32,1,凶狠,i,,,,,,,,,,,,,,,,,,,,,,,,,,,,,,,,,,,,,,,,,,,,,,,,,,,,,
,,,,,,,,,,,,,11,001,2025-01-02_15h32.01.351,IAT(Formal),2021.2.3,Win32,60.24096386,,,,i,1,0.7146,0,28,28,39,1,下贱,i,,,,,,,,,,,,,,,,,,,,,,,,,,,,,,,,,,,,,,,,,,,,,,,,,,,,,
,,,,,,,,,,,,,11,001,2025-01-02_15h32.01.351,IAT(Formal),2021.2.3,Win32,60.24096386,,,,e,1,0.6205,0,29,29,6,1,正直,e,,,,,,,,,,,,,,,,,,,,,,,,,,,,,,,,,,,,,,,,,,,,,,,,,,,,,
,,,,,,,,,,,,,11,001,2025-01-02_15h32.01.351,IAT(Formal),2021.2.3,Win32,60.24096386,,,,e,1,0.6754,0,30,30,12,1,无私,e,,,,,,,,,,,,,,,,,,,,,,,,,,,,,,,,,,,,,,,,,,,,,,,,,,,,,
,,,,,,,,,,,,,11,001,2025-01-02_15h32.01.351,IAT(Formal),2021.2.3,Win32,60.24096386,,,,i,1,0.695,0,31,31,33,1,自私,i,,,,,,,,,,,,,,,,,,,,,,,,,,,,,,,,,,,,,,,,,,,,,,,,,,,,,
,,,,,,,,,,,,,11,001,2025-01-02_15h32.01.351,IAT(Formal),2021.2.3,Win32,60.24096386,,,,e,1,0.5844,0,32,32,9,1,机智,e,,,,,,,,,,,,,,,,,,,,,,,,,,,,,,,,,,,,,,,,,,,,,,,,,,,,,
,,,,,,,,,,,,,11,001,2025-01-02_15h32.01.351,IAT(Formal),2021.2.3,Win32,60.24096386,,,,e,1,0.4619,0,33,33,2,1,聪明,e,,,,,,,,,,,,,,,,,,,,,,,,,,,,,,,,,,,,,,,,,,,,,,,,,,,,,
,,,,,,,,,,,,,11,001,2025-01-02_15h32.01.351,IAT(Formal),2021.2.3,Win32,60.24096386,,,,i,1,0.6303,0,34,34,25,1,消极,i,,,,,,,,,,,,,,,,,,,,,,,,,,,,,,,,,,,,,,,,,,,,,,,,,,,,,
,,,,,,,,,,,,,11,001,2025-01-02_15h32.01.351,IAT(Formal),2021.2.3,Win32,60.24096386,,,,i,1,0.5586,0,35,35,26,1,自卑,i,,,,,,,,,,,,,,,,,,,,,,,,,,,,,,,,,,,,,,,,,,,,,,,,,,,,,
,,,,,,,,,,,,,11,001,2025-01-02_15h32.01.351,IAT(Formal),2021.2.3,Win32,60.24096386,,,,i,1,0.5436,0,36,36,30,1,执拗,i,,,,,,,,,,,,,,,,,,,,,,,,,,,,,,,,,,,,,,,,,,,,,,,,,,,,,
,,,,,,,,,,,,,11,001,2025-01-02_15h32.01.351,IAT(Formal),2021.2.3,Win32,60.24096386,,,,e,1,0.719,0,37,37,5,1,诚实,e,,,,,,,,,,,,,,,,,,,,,,,,,,,,,,,,,,,,,,,,,,,,,,,,,,,,,
,,,,,,,,,,,,,11,001,2025-01-02_15h32.01.351,IAT(Formal),2021.2.3,Win32,60.24096386,,,,e,1,0.7049,0,38,38,17,1,热情,e,,,,,,,,,,,,,,,,,,,,,,,,,,,,,,,,,,,,,,,,,,,,,,,,,,,,,
,,,,,,,,,,,,,11,001,2025-01-02_15h32.01.351,IAT(Formal),2021.2.3,Win32,60.24096386,,,,i,1,0.6534,0,39,39,23,1,刻薄,i,,,,,,,,,,,,,,,,,,,,,,,,,,,,,,,,,,,,,,,,,,,,,,,,,,,,,
,,,,,,,,,,,,,11,001,2025-01-02_15h32.01.351,IAT(Formal),2021.2.3,Win32,60.24096386,,,,,,,,,,,,,,space,23.4826,e,1,0.6367,0,0,0,18,1,勤奋,e,,,,,,,,,,,,,,,,,,,,,,,,,,,,,,,,,,,,,,,,,
,,,,,,,,,,,,,11,001,2025-01-02_15h32.01.351,IAT(Formal),2021.2.3,Win32,60.24096386,,,,,,,,,,,,,,,,i,1,0.9496,0,1,1,79,1,其他,i,,,,,,,,,,,,,,,,,,,,,,,,,,,,,,,,,,,,,,,,,
,,,,,,,,,,,,,11,001,2025-01-02_15h32.01.351,IAT(Formal),2021.2.3,Win32,60.24096386,,,,,,,,,,,,,,,,e,1,0.4229,0,2,2,63,1,自己,e,,,,,,,,,,,,,,,,,,,,,,,,,,,,,,,,,,,,,,,,,
,,,,,,,,,,,,,11,001,2025-01-02_15h32.01.351,IAT(Formal),2021.2.3,Win32,60.24096386,,,,,,,,,,,,,,,,i,1,0.6666,0,3,3,47,1,固执,i,,,,,,,,,,,,,,,,,,,,,,,,,,,,,,,,,,,,,,,,,
,,,,,,,,,,,,,11,001,2025-01-02_15h32.01.351,IAT(Formal),2021.2.3,Win32,60.24096386,,,,,,,,,,,,,,,,e,1,0.6184,0,4,4,15,1,诚实,e,,,,,,,,,,,,,,,,,,,,,,,,,,,,,,,,,,,,,,,,,
,,,,,,,,,,,,,11,001,2025-01-02_15h32.01.351,IAT(Formal),2021.2.3,Win32,60.24096386,,,,,,,,,,,,,,,,i,1,0.7265,0,5,5,78,1,他人,i,,,,,,,,,,,,,,,,,,,,,,,,,,,,,,,,,,,,,,,,,
,,,,,,,,,,,,,11,001,2025-01-02_15h32.01.351,IAT(Formal),2021.2.3,Win32,60.24096386,,,,,,,,,,,,,,,,i,1,0.6413,0,6,6,46,1,野蛮,i,,,,,,,,,,,,,,,,,,,,,,,,,,,,,,,,,,,,,,,,,
,,,,,,,,,,,,,11,001,2025-01-02_15h32.01.351,IAT(Formal),2021.2.3,Win32,60.24096386,,,,,,,,,,,,,,,,i,1,0.6621,0,7,7,38,1,鲁莽,i,,,,,,,,,,,,,,,,,,,,,,,,,,,,,,,,,,,,,,,,,
,,,,,,,,,,,,,11,001,2025-01-02_15h32.01.351,IAT(Formal),2021.2.3,Win32,60.24096386,,,,,,,,,,,,,,,,i,1,0.6242,0,8,8,59,1,其他,i,,,,,,,,,,,,,,,,,,,,,,,,,,,,,,,,,,,,,,,,,
,,,,,,,,,,,,,11,001,2025-01-02_15h32.01.351,IAT(Formal),2021.2.3,Win32,60.24096386,,,,,,,,,,,,,,,,i,1,0.6006,0,9,9,48,1,轻率,i,,,,,,,,,,,,,,,,,,,,,,,,,,,,,,,,,,,,,,,,,
,,,,,,,,,,,,,11,001,2025-01-02_15h32.01.351,IAT(Formal),2021.2.3,Win32,60.24096386,,,,,,,,,,,,,,,,e,1,0.4801,0,10,10,23,1,公正,e,,,,,,,,,,,,,,,,,,,,,,,,,,,,,,,,,,,,,,,,,
,,,,,,,,,,,,,11,001,2025-01-02_15h32.01.351,IAT(Formal),2021.2.3,Win32,60.24096386,,,,,,,,,,,,,,,,e,1,0.4532,0,11,11,51,1,我的,e,,,,,,,,,,,,,,,,,,,,,,,,,,,,,,,,,,,,,,,,,
,,,,,,,,,,,,,11,001,2025-01-02_15h32.01.351,IAT(Formal),2021.2.3,Win32,60.24096386,,,,,,,,,,,,,,,,e,1,0.4419,0,12,12,71,1,我的,e,,,,,,,,,,,,,,,,,,,,,,,,,,,,,,,,,,,,,,,,,
,,,,,,,,,,,,,11,001,2025-01-02_15h32.01.351,IAT(Formal),2021.2.3,Win32,60.24096386,,,,,,,,,,,,,,,,e,1,0.4395,0,13,13,53,1,自己,e,,,,,,,,,,,,,,,,,,,,,,,,,,,,,,,,,,,,,,,,,
,,,,,,,,,,,,,11,001,2025-01-02_15h32.01.351,IAT(Formal),2021.2.3,Win32,60.24096386,,,,,,,,,,,,,,,,e,1,0.697,0,14,14,14,1,乐观,e,,,,,,,,,,,,,,,,,,,,,,,,,,,,,,,,,,,,,,,,,
,,,,,,,,,,,,,11,001,2025-01-02_15h32.01.351,IAT(Formal),2021.2.3,Win32,60.24096386,,,,,,,,,,,,,,,,i,1,0.7486,0,15,15,57,1,他的,i,,,,,,,,,,,,,,,,,,,,,,,,,,,,,,,,,,,,,,,,,
,,,,,,,,,,,,,11,001,2025-01-02_15h32.01.351,IAT(Formal),2021.2.3,Win32,60.24096386,,,,,,,,,,,,,,,,i,1,0.6463,0,16,16,36,1,自卑,i,,,,,,,,,,,,,,,,,,,,,,,,,,,,,,,,,,,,,,,,,
,,,,,,,,,,,,,11,001,2025-01-02_15h32.01.351,IAT(Formal),2021.2.3,Win32,60.24096386,,,,,,,,,,,,,,,,i,1,0.5458,0,17,17,30,1,卑鄙,i,,,,,,,,,,,,,,,,,,,,,,,,,,,,,,,,,,,,,,,,,
,,,,,,,,,,,,,11,001,2025-01-02_15h32.01.351,IAT(Formal),2021.2.3,Win32,60.24096386,,,,,,,,,,,,,,,,i,1,0.4867,0,18,18,67,1,他的,i,,,,,,,,,,,,,,,,,,,,,,,,,,,,,,,,,,,,,,,,,
,,,,,,,,,,,,,11,001,2025-01-02_15h32.01.351,IAT(Formal),2021.2.3,Win32,60.24096386,,,,,,,,,,,,,,,,i,1,0.5707,0,19,19,5,1,他,i,,,,,,,,,,,,,,,,,,,,,,,,,,,,,,,,,,,,,,,,,
,,,,,,,,,,,,,11,001,2025-01-02_15h32.01.351,IAT(Formal),2021.2.3,Win32,60.24096386,,,,,,,,,,,,,,,,e,1,0.5951,0,20,20,2,1,我们,e,,,,,,,,,,,,,,,,,,,,,,,,,,,,,,,,,,,,,,,,,
,,,,,,,,,,,,,11,001,2025-01-02_15h32.01.351,IAT(Formal),2021.2.3,Win32,60.24096386,,,,,,,,,,,,,,,,i,1,0.7491,0,21,21,35,1,消极,i,,,,,,,,,,,,,,,,,,,,,,,,,,,,,,,,,,,,,,,,,
,,,,,,,,,,,,,11,001,2025-01-02_15h32.01.351,IAT(Formal),2021.2.3,Win32,60.24096386,,,,,,,,,,,,,,,,i,1,0.6671,0,22,22,69,1,其他,i,,,,,,,,,,,,,,,,,,,,,,,,,,,,,,,,,,,,,,,,,
,,,,,,,,,,,,,11,001,2025-01-02_15h32.01.351,IAT(Formal),2021.2.3,Win32,60.24096386,,,,,,,,,,,,,,,,i,1,0.5122,0,23,23,65,1,他,i,,,,,,,,,,,,,,,,,,,,,,,,,,,,,,,,,,,,,,,,,
,,,,,,,,,,,,,11,001,2025-01-02_15h32.01.351,IAT(Formal),2021.2.3,Win32,60.24096386,,,,,,,,,,,,,,,,e,1,0.6576,0,24,24,73,1,自己,e,,,,,,,,,,,,,,,,,,,,,,,,,,,,,,,,,,,,,,,,,
,,,,,,,,,,,,,11,001,2025-01-02_15h32.01.351,IAT(Formal),2021.2.3,Win32,60.24096386,,,,,,,,,,,,,,,,i,1,0.6496,0,25,25,39,1,冒失,i,,,,,,,,,,,,,,,,,,,,,,,,,,,,,,,,,,,,,,,,,
,,,,,,,,,,,,,11,001,2025-01-02_15h32.01.351,IAT(Formal),2021.2.3,Win32,60.24096386,,,,,,,,,,,,,,,,i,1,0.7311,0,26,26,31,1,虚伪,i,,,,,,,,,,,,,,,,,,,,,,,,,,,,,,,,,,,,,,,,,
,,,,,,,,,,,,,11,001,2025-01-02_15h32.01.351,IAT(Formal),2021.2.3,Win32,60.24096386,,,,,,,,,,,,,,,,e,1,0.6152,0,27,27,20,1,认真,e,,,,,,,,,,,,,,,,,,,,,,,,,,,,,,,,,,,,,,,,,
,,,,,,,,,,,,,11,001,2025-01-02_15h32.01.351,IAT(Formal),2021.2.3,Win32,60.24096386,,,,,,,,,,,,,,,,e,1,0.6328,0,28,28,25,1,细腻,e,,,,,,,,,,,,,,,,,,,,,,,,,,,,,,,,,,,,,,,,,
,,,,,,,,,,,,,11,001,2025-01-02_15h32.01.351,IAT(Formal),2021.2.3,Win32,60.24096386,,,,,,,,,,,,,,,,e,1,0.5169,0,29,29,16,1,正直,e,,,,,,,,,,,,,,,,,,,,,,,,,,,,,,,,,,,,,,,,,
,,,,,,,,,,,,,11,001,2025-01-02_15h32.01.351,IAT(Formal),2021.2.3,Win32,60.24096386,,,,,,,,,,,,,,,,i,1,0.6432,0,30,30,33,1,刻薄,i,,,,,,,,,,,,,,,,,,,,,,,,,,,,,,,,,,,,,,,,,
,,,,,,,,,,,,,11,001,2025-01-02_15h32.01.351,IAT(Formal),2021.2.3,Win32,60.24096386,,,,,,,,,,,,,,,,e,1,0.6008,0,31,31,62,1,我们,e,,,,,,,,,,,,,,,,,,,,,,,,,,,,,,,,,,,,,,,,,
,,,,,,,,,,,,,11,001,2025-01-02_15h32.01.351,IAT(Formal),2021.2.3,Win32,60.24096386,,,,,,,,,,,,,,,,i,1,0.5577,0,32,32,34,1,悲观,i,,,,,,,,,,,,,,,,,,,,,,,,,,,,,,,,,,,,,,,,,
,,,,,,,,,,,,,11,001,2025-01-02_15h32.01.351,IAT(Formal),2021.2.3,Win32,60.24096386,,,,,,,,,,,,,,,,i,0,0.4757,0,33,33,22,1,无私,e,,,,,,,,,,,,,,,,,,,,,,,,,,,,,,,,,,,,,,,,,
,,,,,,,,,,,,,11,001,2025-01-02_15h32.01.351,IAT(Formal),2021.2.3,Win32,60.24096386,,,,,,,,,,,,,,,,i,1,0.6576,0,34,34,45,1,猖狂,i,,,,,,,,,,,,,,,,,,,,,,,,,,,,,,,,,,,,,,,,,
,,,,,,,,,,,,,11,001,2025-01-02_15h32.01.351,IAT(Formal),2021.2.3,Win32,60.24096386,,,,,,,,,,,,,,,,i,1,0.6904,0,35,35,58,1,他人,i,,,,,,,,,,,,,,,,,,,,,,,,,,,,,,,,,,,,,,,,,
,,,,,,,,,,,,,11,001,2025-01-02_15h32.01.351,IAT(Formal),2021.2.3,Win32,60.24096386,,,,,,,,,,,,,,,,e,1,0.5964,0,36,36,13,1,杰出,e,,,,,,,,,,,,,,,,,,,,,,,,,,,,,,,,,,,,,,,,,
,,,,,,,,,,,,,11,001,2025-01-02_15h32.01.351,IAT(Formal),2021.2.3,Win32,60.24096386,,,,,,,,,,,,,,,,i,1,0.646,0,37,37,43,1,自私,i,,,,,,,,,,,,,,,,,,,,,,,,,,,,,,,,,,,,,,,,,
,,,,,,,,,,,,,11,001,2025-01-02_15h32.01.351,IAT(Formal),2021.2.3,Win32,60.24096386,,,,,,,,,,,,,,,,e,1,0.5316,0,38,38,54,1,俺,e,,,,,,,,,,,,,,,,,,,,,,,,,,,,,,,,,,,,,,,,,
,,,,,,,,,,,,,11,001,2025-01-02_15h32.01.351,IAT(Formal),2021.2.3,Win32,60.24096386,,,,,,,,,,,,,,,,e,1,0.482,0,39,39,52,1,我们,e,,,,,,,,,,,,,,,,,,,,,,,,,,,,,,,,,,,,,,,,,
,,,,,,,,,,,,,11,001,2025-01-02_15h32.01.351,IAT(Formal),2021.2.3,Win32,60.24096386,,,,,,,,,,,,,,,,i,1,0.6872,0,40,40,40,1,执拗,i,,,,,,,,,,,,,,,,,,,,,,,,,,,,,,,,,,,,,,,,,
,,,,,,,,,,,,,11,001,2025-01-02_15h32.01.351,IAT(Formal),2021.2.3,Win32,60.24096386,,,,,,,,,,,,,,,,i,1,0.85,0,41,41,42,1,凶狠,i,,,,,,,,,,,,,,,,,,,,,,,,,,,,,,,,,,,,,,,,,
,,,,,,,,,,,,,11,001,2025-01-02_15h32.01.351,IAT(Formal),2021.2.3,Win32,60.24096386,,,,,,,,,,,,,,,,e,1,0.5743,0,42,42,0,1,我,e,,,,,,,,,,,,,,,,,,,,,,,,,,,,,,,,,,,,,,,,,
,,,,,,,,,,,,,11,001,2025-01-02_15h32.01.351,IAT(Formal),2021.2.3,Win32,60.24096386,,,,,,,,,,,,,,,,e,1,0.6505,0,43,43,10,1,优秀,e,,,,,,,,,,,,,,,,,,,,,,,,,,,,,,,,,,,,,,,,,
,,,,,,,,,,,,,11,001,2025-01-02_15h32.01.351,IAT(Formal),2021.2.3,Win32,60.24096386,,,,,,,,,,,,,,,,e,0,0.5952,0,44,44,7,1,他的,i,,,,,,,,,,,,,,,,,,,,,,,,,,,,,,,,,,,,,,,,,
,,,,,,,,,,,,,11,001,2025-01-02_15h32.01.351,IAT(Formal),2021.2.3,Win32,60.24096386,,,,,,,,,,,,,,,,e,1,0.5409,0,45,45,61,1,我的,e,,,,,,,,,,,,,,,,,,,,,,,,,,,,,,,,,,,,,,,,,
,,,,,,,,,,,,,11,001,2025-01-02_15h32.01.351,IAT(Formal),2021.2.3,Win32,60.24096386,,,,,,,,,,,,,,,,i,1,0.6077,0,46,46,56,1,他们,i,,,,,,,,,,,,,,,,,,,,,,,,,,,,,,,,,,,,,,,,,
,,,,,,,,,,,,,11,001,2025-01-02_15h32.01.351,IAT(Formal),2021.2.3,Win32,60.24096386,,,,,,,,,,,,,,,,e,1,0.7043,0,47,47,60,1,我,e,,,,,,,,,,,,,,,,,,,,,,,,,,,,,,,,,,,,,,,,,
,,,,,,,,,,,,,11,001,2025-01-02_15h32.01.351,IAT(Formal),2021.2.3,Win32,60.24096386,,,,,,,,,,,,,,,,i,1,0.639,0,48,48,32,1,愚蠢,i,,,,,,,,,,,,,,,,,,,,,,,,,,,,,,,,,,,,,,,,,
,,,,,,,,,,,,,11,001,2025-01-02_15h32.01.351,IAT(Formal),2021.2.3,Win32,60.24096386,,,,,,,,,,,,,,,,e,1,0.7036,0,49,49,17,1,勇敢,e,,,,,,,,,,,,,,,,,,,,,,,,,,,,,,,,,,,,,,,,,
,,,,,,,,,,,,,11,001,2025-01-02_15h32.01.351,IAT(Formal),2021.2.3,Win32,60.24096386,,,,,,,,,,,,,,,,e,1,0.7559,0,50,50,1,1,我的,e,,,,,,,,,,,,,,,,,,,,,,,,,,,,,,,,,,,,,,,,,
,,,,,,,,,,,,,11,001,2025-01-02_15h32.01.351,IAT(Formal),2021.2.3,Win32,60.24096386,,,,,,,,,,,,,,,,i,1,0.5971,0,51,51,77,1,他的,i,,,,,,,,,,,,,,,,,,,,,,,,,,,,,,,,,,,,,,,,,
,,,,,,,,,,,,,11,001,2025-01-02_15h32.01.351,IAT(Formal),2021.2.3,Win32,60.24096386,,,,,,,,,,,,,,,,e,1,0.6318,0,52,52,4,1,俺,e,,,,,,,,,,,,,,,,,,,,,,,,,,,,,,,,,,,,,,,,,
,,,,,,,,,,,,,11,001,2025-01-02_15h32.01.351,IAT(Formal),2021.2.3,Win32,60.24096386,,,,,,,,,,,,,,,,i,1,0.8141,0,53,53,44,1,暴躁,i,,,,,,,,,,,,,,,,,,,,,,,,,,,,,,,,,,,,,,,,,
,,,,,,,,,,,,,11,001,2025-01-02_15h32.01.351,IAT(Formal),2021.2.3,Win32,60.24096386,,,,,,,,,,,,,,,,i,1,0.584,0,54,54,6,1,他们,i,,,,,,,,,,,,,,,,,,,,,,,,,,,,,,,,,,,,,,,,,
,,,,,,,,,,,,,11,001,2025-01-02_15h32.01.351,IAT(Formal),2021.2.3,Win32,60.24096386,,,,,,,,,,,,,,,,i,1,0.6087,0,55,55,8,1,他人,i,,,,,,,,,,,,,,,,,,,,,,,,,,,,,,,,,,,,,,,,,
,,,,,,,,,,,,,11,001,2025-01-02_15h32.01.351,IAT(Formal),2021.2.3,Win32,60.24096386,,,,,,,,,,,,,,,,e,1,0.6668,0,56,56,12,1,聪明,e,,,,,,,,,,,,,,,,,,,,,,,,,,,,,,,,,,,,,,,,,
,,,,,,,,,,,,,11,001,2025-01-02_15h32.01.351,IAT(Formal),2021.2.3,Win32,60.24096386,,,,,,,,,,,,,,,,e,1,0.5814,0,57,57,11,1,崇高,e,,,,,,,,,,,,,,,,,,,,,,,,,,,,,,,,,,,,,,,,,
,,,,,,,,,,,,,11,001,2025-01-02_15h32.01.351,IAT(Formal),2021.2.3,Win32,60.24096386,,,,,,,,,,,,,,,,i,1,0.735,0,58,58,37,1,傲慢,i,,,,,,,,,,,,,,,,,,,,,,,,,,,,,,,,,,,,,,,,,
,,,,,,,,,,,,,11,001,2025-01-02_15h32.01.351,IAT(Formal),2021.2.3,Win32,60.24096386,,,,,,,,,,,,,,,,e,1,0.5761,0,59,59,72,1,我们,e,,,,,,,,,,,,,,,,,,,,,,,,,,,,,,,,,,,,,,,,,
,,,,,,,,,,,,,11,001,2025-01-02_15h32.01.351,IAT(Formal),2021.2.3,Win32,60.24096386,,,,,,,,,,,,,,,,e,1,0.63,0,60,60,24,1,朴实,e,,,,,,,,,,,,,,,,,,,,,,,,,,,,,,,,,,,,,,,,,
,,,,,,,,,,,,,11,001,2025-01-02_15h32.01.351,IAT(Formal),2021.2.3,Win32,60.24096386,,,,,,,,,,,,,,,,e,1,0.4678,0,61,61,26,1,冷静,e,,,,,,,,,,,,,,,,,,,,,,,,,,,,,,,,,,,,,,,,,
,,,,,,,,,,,,,11,001,2025-01-02_15h32.01.351,IAT(Formal),2021.2.3,Win32,60.24096386,,,,,,,,,,,,,,,,i,1,0.5072,0,62,62,75,1,他,i,,,,,,,,,,,,,,,,,,,,,,,,,,,,,,,,,,,,,,,,,
,,,,,,,,,,,,,11,001,2025-01-02_15h32.01.351,IAT(Formal),2021.2.3,Win32,60.24096386,,,,,,,,,,,,,,,,i,1,0.9754,0,63,63,76,1,他们,i,,,,,,,,,,,,,,,,,,,,,,,,,,,,,,,,,,,,,,,,,
,,,,,,,,,,,,,11,001,2025-01-02_15h32.01.351,IAT(Formal),2021.2.3,Win32,60.24096386,,,,,,,,,,,,,,,,e,1,0.6051,0,64,64,21,1,稳重,e,,,,,,,,,,,,,,,,,,,,,,,,,,,,,,,,,,,,,,,,,
,,,,,,,,,,,,,11,001,2025-01-02_15h32.01.351,IAT(Formal),2021.2.3,Win32,60.24096386,,,,,,,,,,,,,,,,e,1,0.5261,0,65,65,19,1,机智,e,,,,,,,,,,,,,,,,,,,,,,,,,,,,,,,,,,,,,,,,,
,,,,,,,,,,,,,11,001,2025-01-02_15h32.01.351,IAT(Formal),2021.2.3,Win32,60.24096386,,,,,,,,,,,,,,,,i,1,0.5647,0,66,66,9,1,其他,i,,,,,,,,,,,,,,,,,,,,,,,,,,,,,,,,,,,,,,,,,
,,,,,,,,,,,,,11,001,2025-01-02_15h32.01.351,IAT(Formal),2021.2.3,Win32,60.24096386,,,,,,,,,,,,,,,,e,1,0.8167,0,67,67,50,1,我,e,,,,,,,,,,,,,,,,,,,,,,,,,,,,,,,,,,,,,,,,,
,,,,,,,,,,,,,11,001,2025-01-02_15h32.01.351,IAT(Formal),2021.2.3,Win32,60.24096386,,,,,,,,,,,,,,,,i,1,0.6457,0,68,68,41,1,散漫,i,,,,,,,,,,,,,,,,,,,,,,,,,,,,,,,,,,,,,,,,,
,,,,,,,,,,,,,11,001,2025-01-02_15h32.01.351,IAT(Formal),2021.2.3,Win32,60.24096386,,,,,,,,,,,,,,,,e,1,0.6244,0,69,69,64,1,俺,e,,,,,,,,,,,,,,,,,,,,,,,,,,,,,,,,,,,,,,,,,
,,,,,,,,,,,,,11,001,2025-01-02_15h32.01.351,IAT(Formal),2021.2.3,Win32,60.24096386,,,,,,,,,,,,,,,,e,1,0.7696,0,70,70,28,1,活泼,e,,,,,,,,,,,,,,,,,,,,,,,,,,,,,,,,,,,,,,,,,
,,,,,,,,,,,,,11,001,2025-01-02_15h32.01.351,IAT(Formal),2021.2.3,Win32,60.24096386,,,,,,,,,,,,,,,,e,0,0.4296,0,71,71,68,1,他人,i,,,,,,,,,,,,,,,,,,,,,,,,,,,,,,,,,,,,,,,,,
,,,,,,,,,,,,,11,001,2025-01-02_15h32.01.351,IAT(Formal),2021.2.3,Win32,60.24096386,,,,,,,,,,,,,,,,i,1,0.5678,0,72,72,49,1,下贱,i,,,,,,,,,,,,,,,,,,,,,,,,,,,,,,,,,,,,,,,,,
,,,,,,,,,,,,,11,001,2025-01-02_15h32.01.351,IAT(Formal),2021.2.3,Win32,60.24096386,,,,,,,,,,,,,,,,e,1,0.698,0,73,73,74,1,俺,e,,,,,,,,,,,,,,,,,,,,,,,,,,,,,,,,,,,,,,,,,
,,,,,,,,,,,,,11,001,2025-01-02_15h32.01.351,IAT(Formal),2021.2.3,Win32,60.24096386,,,,,,,,,,,,,,,,e,1,0.5556,0,74,74,3,1,自己,e,,,,,,,,,,,,,,,,,,,,,,,,,,,,,,,,,,,,,,,,,
,,,,,,,,,,,,,11,001,2025-01-02_15h32.01.351,IAT(Formal),2021.2.3,Win32,60.24096386,,,,,,,,,,,,,,,,e,1,0.5799,0,75,75,27,1,热情,e,,,,,,,,,,,,,,,,,,,,,,,,,,,,,,,,,,,,,,,,,
,,,,,,,,,,,,,11,001,2025-01-02_15h32.01.351,IAT(Formal),2021.2.3,Win32,60.24096386,,,,,,,,,,,,,,,,e,1,0.6632,0,76,76,29,1,诚恳,e,,,,,,,,,,,,,,,,,,,,,,,,,,,,,,,,,,,,,,,,,
,,,,,,,,,,,,,11,001,2025-01-02_15h32.01.351,IAT(Formal),2021.2.3,Win32,60.24096386,,,,,,,,,,,,,,,,e,0,0.4701,0,77,77,55,1,他,i,,,,,,,,,,,,,,,,,,,,,,,,,,,,,,,,,,,,,,,,,
,,,,,,,,,,,,,11,001,2025-01-02_15h32.01.351,IAT(Formal),2021.2.3,Win32,60.24096386,,,,,,,,,,,,,,,,i,1,0.5746,0,78,78,66,1,他们,i,,,,,,,,,,,,,,,,,,,,,,,,,,,,,,,,,,,,,,,,,
,,,,,,,,,,,,,11,001,2025-01-02_15h32.01.351,IAT(Formal),2021.2.3,Win32,60.24096386,,,,,,,,,,,,,,,,e,1,0.6703,0,79,79,70,1,我,e,,,,,,,,,,,,,,,,,,,,,,,,,,,,,,,,,,,,,,,,,
,,,,,,,,,,,,,11,001,2025-01-02_15h32.01.351,IAT(Formal),2021.2.3,Win32,60.24096386,,,,,,,,,,,,,,,,i,1,0.7795,,,,,,他,i,space,9.6466,0,0,0,75,1,,,,,,,,,,,,,,,,,,,,,,,,,,,,,,,,,,
,,,,,,,,,,,,,11,001,2025-01-02_15h32.01.351,IAT(Formal),2021.2.3,Win32,60.24096386,,,,,,,,,,,,,,,,e,1,0.7082,,,,,,稳重,e,,,0,1,1,21,1,,,,,,,,,,,,,,,,,,,,,,,,,,,,,,,,,,
,,,,,,,,,,,,,11,001,2025-01-02_15h32.01.351,IAT(Formal),2021.2.3,Win32,60.24096386,,,,,,,,,,,,,,,,e,1,0.6706,,,,,,我的,e,,,0,2,2,51,1,,,,,,,,,,,,,,,,,,,,,,,,,,,,,,,,,,
,,,,,,,,,,,,,11,001,2025-01-02_15h32.01.351,IAT(Formal),2021.2.3,Win32,60.24096386,,,,,,,,,,,,,,,,i,1,0.6909,,,,,,冒失,i,,,0,3,3,39,1,,,,,,,,,,,,,,,,,,,,,,,,,,,,,,,,,,
,,,,,,,,,,,,,11,001,2025-01-02_15h32.01.351,IAT(Formal),2021.2.3,Win32,60.24096386,,,,,,,,,,,,,,,,e,1,0.614,,,,,,我们,e,,,0,4,4,2,1,,,,,,,,,,,,,,,,,,,,,,,,,,,,,,,,,,
,,,,,,,,,,,,,11,001,2025-01-02_15h32.01.351,IAT(Formal),2021.2.3,Win32,60.24096386,,,,,,,,,,,,,,,,i,1,0.4758,,,,,,其他,i,,,0,5,5,69,1,,,,,,,,,,,,,,,,,,,,,,,,,,,,,,,,,,
,,,,,,,,,,,,,11,001,2025-01-02_15h32.01.351,IAT(Formal),2021.2.3,Win32,60.24096386,,,,,,,,,,,,,,,,e,1,0.4933,,,,,,我的,e,,,0,6,6,61,1,,,,,,,,,,,,,,,,,,,,,,,,,,,,,,,,,,
,,,,,,,,,,,,,11,001,2025-01-02_15h32.01.351,IAT(Formal),2021.2.3,Win32,60.24096386,,,,,,,,,,,,,,,,i,1,0.6808,,,,,,凶狠,i,,,0,7,7,42,1,,,,,,,,,,,,,,,,,,,,,,,,,,,,,,,,,,
,,,,,,,,,,,,,11,001,2025-01-02_15h32.01.351,IAT(Formal),2021.2.3,Win32,60.24096386,,,,,,,,,,,,,,,,i,1,0.5391,,,,,,下贱,i,,,0,8,8,49,1,,,,,,,,,,,,,,,,,,,,,,,,,,,,,,,,,,
,,,,,,,,,,,,,11,001,2025-01-02_15h32.01.351,IAT(Formal),2021.2.3,Win32,60.24096386,,,,,,,,,,,,,,,,i,1,0.5552,,,,,,他,i,,,0,9,9,55,1,,,,,,,,,,,,,,,,,,,,,,,,,,,,,,,,,,
,,,,,,,,,,,,,11,001,2025-01-02_15h32.01.351,IAT(Formal),2021.2.3,Win32,60.24096386,,,,,,,,,,,,,,,,i,1,0.6609,,,,,,刻薄,i,,,0,10,10,33,1,,,,,,,,,,,,,,,,,,,,,,,,,,,,,,,,,,
,,,,,,,,,,,,,11,001,2025-01-02_15h32.01.351,IAT(Formal),2021.2.3,Win32,60.24096386,,,,,,,,,,,,,,,,i,1,0.5435,,,,,,鲁莽,i,,,0,11,11,38,1,,,,,,,,,,,,,,,,,,,,,,,,,,,,,,,,,,
,,,,,,,,,,,,,11,001,2025-01-02_15h32.01.351,IAT(Formal),2021.2.3,Win32,60.24096386,,,,,,,,,,,,,,,,e,1,0.5468,,,,,,活泼,e,,,0,12,12,28,1,,,,,,,,,,,,,,,,,,,,,,,,,,,,,,,,,,
,,,,,,,,,,,,,11,001,2025-01-02_15h32.01.351,IAT(Formal),2021.2.3,Win32,60.24096386,,,,,,,,,,,,,,,,e,1,0.5633,,,,,,优秀,e,,,0,13,13,10,1,,,,,,,,,,,,,,,,,,,,,,,,,,,,,,,,,,
,,,,,,,,,,,,,11,001,2025-01-02_15h32.01.351,IAT(Formal),2021.2.3,Win32,60.24096386,,,,,,,,,,,,,,,,e,1,0.4974,,,,,,诚实,e,,,0,14,14,15,1,,,,,,,,,,,,,,,,,,,,,,,,,,,,,,,,,,
,,,,,,,,,,,,,11,001,2025-01-02_15h32.01.351,IAT(Formal),2021.2.3,Win32,60.24096386,,,,,,,,,,,,,,,,e,1,0.6836,,,,,,我们,e,,,0,15,15,62,1,,,,,,,,,,,,,,,,,,,,,,,,,,,,,,,,,,
,,,,,,,,,,,,,11,001,2025-01-02_15h32.01.351,IAT(Formal),2021.2.3,Win32,60.24096386,,,,,,,,,,,,,,,,i,1,0.6478,,,,,,他的,i,,,0,16,16,57,1,,,,,,,,,,,,,,,,,,,,,,,,,,,,,,,,,,
,,,,,,,,,,,,,11,001,2025-01-02_15h32.01.351,IAT(Formal),2021.2.3,Win32,60.24096386,,,,,,,,,,,,,,,,i,1,0.8694,,,,,,他的,i,,,0,17,17,77,1,,,,,,,,,,,,,,,,,,,,,,,,,,,,,,,,,,
,,,,,,,,,,,,,11,001,2025-01-02_15h32.01.351,IAT(Formal),2021.2.3,Win32,60.24096386,,,,,,,,,,,,,,,,e,1,0.7615,,,,,,聪明,e,,,0,18,18,12,1,,,,,,,,,,,,,,,,,,,,,,,,,,,,,,,,,,
,,,,,,,,,,,,,11,001,2025-01-02_15h32.01.351,IAT(Formal),2021.2.3,Win32,60.24096386,,,,,,,,,,,,,,,,e,1,1.0227,,,,,,自己,e,,,0,19,19,63,1,,,,,,,,,,,,,,,,,,,,,,,,,,,,,,,,,,
,,,,,,,,,,,,,11,001,2025-01-02_15h32.01.351,IAT(Formal),2021.2.3,Win32,60.24096386,,,,,,,,,,,,,,,,e,1,0.7009,,,,,,机智,e,,,0,20,20,19,1,,,,,,,,,,,,,,,,,,,,,,,,,,,,,,,,,,
,,,,,,,,,,,,,11,001,2025-01-02_15h32.01.351,IAT(Formal),2021.2.3,Win32,60.24096386,,,,,,,,,,,,,,,,i,1,0.6901,,,,,,其他,i,,,0,21,21,59,1,,,,,,,,,,,,,,,,,,,,,,,,,,,,,,,,,,
,,,,,,,,,,,,,11,001,2025-01-02_15h32.01.351,IAT(Formal),2021.2.3,Win32,60.24096386,,,,,,,,,,,,,,,,e,1,0.7584,,,,,,冷静,e,,,0,22,22,26,1,,,,,,,,,,,,,,,,,,,,,,,,,,,,,,,,,,
,,,,,,,,,,,,,11,001,2025-01-02_15h32.01.351,IAT(Formal),2021.2.3,Win32,60.24096386,,,,,,,,,,,,,,,,e,1,0.8567,,,,,,无私,e,,,0,23,23,22,1,,,,,,,,,,,,,,,,,,,,,,,,,,,,,,,,,,
,,,,,,,,,,,,,11,001,2025-01-02_15h32.01.351,IAT(Formal),2021.2.3,Win32,60.24096386,,,,,,,,,,,,,,,,e,1,0.5753,,,,,,朴实,e,,,0,24,24,24,1,,,,,,,,,,,,,,,,,,,,,,,,,,,,,,,,,,
,,,,,,,,,,,,,11,001,2025-01-02_15h32.01.351,IAT(Formal),2021.2.3,Win32,60.24096386,,,,,,,,,,,,,,,,i,1,0.8795,,,,,,执拗,i,,,0,25,25,40,1,,,,,,,,,,,,,,,,,,,,,,,,,,,,,,,,,,
,,,,,,,,,,,,,11,001,2025-01-02_15h32.01.351,IAT(Formal),2021.2.3,Win32,60.24096386,,,,,,,,,,,,,,,,i,1,1.3925,,,,,,其他,i,,,0,26,26,79,1,,,,,,,,,,,,,,,,,,,,,,,,,,,,,,,,,,
,,,,,,,,,,,,,11,001,2025-01-02_15h32.01.351,IAT(Formal),2021.2.3,Win32,60.24096386,,,,,,,,,,,,,,,,e,1,0.9317,,,,,,崇高,e,,,0,27,27,11,1,,,,,,,,,,,,,,,,,,,,,,,,,,,,,,,,,,
,,,,,,,,,,,,,11,001,2025-01-02_15h32.01.351,IAT(Formal),2021.2.3,Win32,60.24096386,,,,,,,,,,,,,,,,e,1,0.5646,,,,,,自己,e,,,0,28,28,3,1,,,,,,,,,,,,,,,,,,,,,,,,,,,,,,,,,,
,,,,,,,,,,,,,11,001,2025-01-02_15h32.01.351,IAT(Formal),2021.2.3,Win32,60.24096386,,,,,,,,,,,,,,,,e,1,0.7413,,,,,,勤奋,e,,,0,29,29,18,1,,,,,,,,,,,,,,,,,,,,,,,,,,,,,,,,,,
,,,,,,,,,,,,,11,001,2025-01-02_15h32.01.351,IAT(Formal),2021.2.3,Win32,60.24096386,,,,,,,,,,,,,,,,i,1,1.1754,,,,,,轻率,i,,,0,30,30,48,1,,,,,,,,,,,,,,,,,,,,,,,,,,,,,,,,,,
,,,,,,,,,,,,,11,001,2025-01-02_15h32.01.351,IAT(Formal),2021.2.3,Win32,60.24096386,,,,,,,,,,,,,,,,i,1,0.7419,,,,,,傲慢,i,,,0,31,31,37,1,,,,,,,,,,,,,,,,,,,,,,,,,,,,,,,,,,
,,,,,,,,,,,,,11,001,2025-01-02_15h32.01.351,IAT(Formal),2021.2.3,Win32,60.24096386,,,,,,,,,,,,,,,,i,1,0.7894,,,,,,他的,i,,,0,32,32,7,1,,,,,,,,,,,,,,,,,,,,,,,,,,,,,,,,,,
,,,,,,,,,,,,,11,001,2025-01-02_15h32.01.351,IAT(Formal),2021.2.3,Win32,60.24096386,,,,,,,,,,,,,,,,i,1,0.5984,,,,,,悲观,i,,,0,33,33,34,1,,,,,,,,,,,,,,,,,,,,,,,,,,,,,,,,,,
,,,,,,,,,,,,,11,001,2025-01-02_15h32.01.351,IAT(Formal),2021.2.3,Win32,60.24096386,,,,,,,,,,,,,,,,i,1,0.5221,,,,,,虚伪,i,,,0,34,34,31,1,,,,,,,,,,,,,,,,,,,,,,,,,,,,,,,,,,
,,,,,,,,,,,,,11,001,2025-01-02_15h32.01.351,IAT(Formal),2021.2.3,Win32,60.24096386,,,,,,,,,,,,,,,,i,0,0.6494,,,,,,乐观,e,,,0,35,35,14,1,,,,,,,,,,,,,,,,,,,,,,,,,,,,,,,,,,
,,,,,,,,,,,,,11,001,2025-01-02_15h32.01.351,IAT(Formal),2021.2.3,Win32,60.24096386,,,,,,,,,,,,,,,,i,1,1.2276,,,,,,自私,i,,,0,36,36,43,1,,,,,,,,,,,,,,,,,,,,,,,,,,,,,,,,,,
,,,,,,,,,,,,,11,001,2025-01-02_15h32.01.351,IAT(Formal),2021.2.3,Win32,60.24096386,,,,,,,,,,,,,,,,i,1,0.7624,,,,,,野蛮,i,,,0,37,37,46,1,,,,,,,,,,,,,,,,,,,,,,,,,,,,,,,,,,
,,,,,,,,,,,,,11,001,2025-01-02_15h32.01.351,IAT(Formal),2021.2.3,Win32,60.24096386,,,,,,,,,,,,,,,,e,1,1.0188,,,,,,热情,e,,,0,38,38,27,1,,,,,,,,,,,,,,,,,,,,,,,,,,,,,,,,,,
,,,,,,,,,,,,,11,001,2025-01-02_15h32.01.351,IAT(Formal),2021.2.3,Win32,60.24096386,,,,,,,,,,,,,,,,i,1,0.7644,,,,,,卑鄙,i,,,0,39,39,30,1,,,,,,,,,,,,,,,,,,,,,,,,,,,,,,,,,,
,,,,,,,,,,,,,11,001,2025-01-02_15h32.01.351,IAT(Formal),2021.2.3,Win32,60.24096386,,,,,,,,,,,,,,,,i,1,0.8805,,,,,,他们,i,,,0,40,40,6,1,,,,,,,,,,,,,,,,,,,,,,,,,,,,,,,,,,
,,,,,,,,,,,,,11,001,2025-01-02_15h32.01.351,IAT(Formal),2021.2.3,Win32,60.24096386,,,,,,,,,,,,,,,,i,1,0.6905,,,,,,散漫,i,,,0,41,41,41,1,,,,,,,,,,,,,,,,,,,,,,,,,,,,,,,,,,
,,,,,,,,,,,,,11,001,2025-01-02_15h32.01.351,IAT(Formal),2021.2.3,Win32,60.24096386,,,,,,,,,,,,,,,,e,1,0.7166,,,,,,俺,e,,,0,42,42,4,1,,,,,,,,,,,,,,,,,,,,,,,,,,,,,,,,,,
,,,,,,,,,,,,,11,001,2025-01-02_15h32.01.351,IAT(Formal),2021.2.3,Win32,60.24096386,,,,,,,,,,,,,,,,i,1,0.807,,,,,,猖狂,i,,,0,43,43,45,1,,,,,,,,,,,,,,,,,,,,,,,,,,,,,,,,,,
,,,,,,,,,,,,,11,001,2025-01-02_15h32.01.351,IAT(Formal),2021.2.3,Win32,60.24096386,,,,,,,,,,,,,,,,e,1,0.7527,,,,,,认真,e,,,0,44,44,20,1,,,,,,,,,,,,,,,,,,,,,,,,,,,,,,,,,,
,,,,,,,,,,,,,11,001,2025-01-02_15h32.01.351,IAT(Formal),2021.2.3,Win32,60.24096386,,,,,,,,,,,,,,,,i,1,0.6907,,,,,,自卑,i,,,0,45,45,36,1,,,,,,,,,,,,,,,,,,,,,,,,,,,,,,,,,,
,,,,,,,,,,,,,11,001,2025-01-02_15h32.01.351,IAT(Formal),2021.2.3,Win32,60.24096386,,,,,,,,,,,,,,,,e,1,0.6181,,,,,,俺,e,,,0,46,46,54,1,,,,,,,,,,,,,,,,,,,,,,,,,,,,,,,,,,
,,,,,,,,,,,,,11,001,2025-01-02_15h32.01.351,IAT(Formal),2021.2.3,Win32,60.24096386,,,,,,,,,,,,,,,,e,1,0.5001,,,,,,自己,e,,,0,47,47,53,1,,,,,,,,,,,,,,,,,,,,,,,,,,,,,,,,,,
,,,,,,,,,,,,,11,001,2025-01-02_15h32.01.351,IAT(Formal),2021.2.3,Win32,60.24096386,,,,,,,,,,,,,,,,e,1,0.47,,,,,,我,e,,,0,48,48,0,1,,,,,,,,,,,,,,,,,,,,,,,,,,,,,,,,,,
,,,,,,,,,,,,,11,001,2025-01-02_15h32.01.351,IAT(Formal),2021.2.3,Win32,60.24096386,,,,,,,,,,,,,,,,i,1,0.6142,,,,,,他,i,,,0,49,49,5,1,,,,,,,,,,,,,,,,,,,,,,,,,,,,,,,,,,
,,,,,,,,,,,,,11,001,2025-01-02_15h32.01.351,IAT(Formal),2021.2.3,Win32,60.24096386,,,,,,,,,,,,,,,,i,1,0.5801,,,,,,消极,i,,,0,50,50,35,1,,,,,,,,,,,,,,,,,,,,,,,,,,,,,,,,,,
,,,,,,,,,,,,,11,001,2025-01-02_15h32.01.351,IAT(Formal),2021.2.3,Win32,60.24096386,,,,,,,,,,,,,,,,e,1,0.5984,,,,,,自己,e,,,0,51,51,73,1,,,,,,,,,,,,,,,,,,,,,,,,,,,,,,,,,,
,,,,,,,,,,,,,11,001,2025-01-02_15h32.01.351,IAT(Formal),2021.2.3,Win32,60.24096386,,,,,,,,,,,,,,,,e,1,0.5968,,,,,,我,e,,,0,52,52,50,1,,,,,,,,,,,,,,,,,,,,,,,,,,,,,,,,,,
,,,,,,,,,,,,,11,001,2025-01-02_15h32.01.351,IAT(Formal),2021.2.3,Win32,60.24096386,,,,,,,,,,,,,,,,i,1,0.65,,,,,,暴躁,i,,,0,53,53,44,1,,,,,,,,,,,,,,,,,,,,,,,,,,,,,,,,,,
,,,,,,,,,,,,,11,001,2025-01-02_15h32.01.351,IAT(Formal),2021.2.3,Win32,60.24096386,,,,,,,,,,,,,,,,e,1,0.6006,,,,,,我,e,,,0,54,54,70,1,,,,,,,,,,,,,,,,,,,,,,,,,,,,,,,,,,
,,,,,,,,,,,,,11,001,2025-01-02_15h32.01.351,IAT(Formal),2021.2.3,Win32,60.24096386,,,,,,,,,,,,,,,,i,1,0.8488,,,,,,其他,i,,,0,55,55,9,1,,,,,,,,,,,,,,,,,,,,,,,,,,,,,,,,,,
,,,,,,,,,,,,,11,001,2025-01-02_15h32.01.351,IAT(Formal),2021.2.3,Win32,60.24096386,,,,,,,,,,,,,,,,e,1,0.7715,,,,,,勇敢,e,,,0,56,56,17,1,,,,,,,,,,,,,,,,,,,,,,,,,,,,,,,,,,
,,,,,,,,,,,,,11,001,2025-01-02_15h32.01.351,IAT(Formal),2021.2.3,Win32,60.24096386,,,,,,,,,,,,,,,,i,1,0.6551,,,,,,他人,i,,,0,57,57,58,1,,,,,,,,,,,,,,,,,,,,,,,,,,,,,,,,,,
,,,,,,,,,,,,,11,001,2025-01-02_15h32.01.351,IAT(Formal),2021.2.3,Win32,60.24096386,,,,,,,,,,,,,,,,e,1,0.6556,,,,,,我们,e,,,0,58,58,52,1,,,,,,,,,,,,,,,,,,,,,,,,,,,,,,,,,,
,,,,,,,,,,,,,11,001,2025-01-02_15h32.01.351,IAT(Formal),2021.2.3,Win32,60.24096386,,,,,,,,,,,,,,,,i,1,1.3474,,,,,,他,i,,,0,59,59,65,1,,,,,,,,,,,,,,,,,,,,,,,,,,,,,,,,,,
,,,,,,,,,,,,,11,001,2025-01-02_15h32.01.351,IAT(Formal),2021.2.3,Win32,60.24096386,,,,,,,,,,,,,,,,e,1,0.6396,,,,,,我们,e,,,0,60,60,72,1,,,,,,,,,,,,,,,,,,,,,,,,,,,,,,,,,,
,,,,,,,,,,,,,11,001,2025-01-02_15h32.01.351,IAT(Formal),2021.2.3,Win32,60.24096386,,,,,,,,,,,,,,,,i,1,1.0802,,,,,,他们,i,,,0,61,61,66,1,,,,,,,,,,,,,,,,,,,,,,,,,,,,,,,,,,
,,,,,,,,,,,,,11,001,2025-01-02_15h32.01.351,IAT(Formal),2021.2.3,Win32,60.24096386,,,,,,,,,,,,,,,,,0,,,,,,,杰出,e,,,0,62,62,13,1,,,,,,,,,,,,,,,,,,,,,,,,,,,,,,,,,,
,,,,,,,,,,,,,11,001,2025-01-02_15h32.01.351,IAT(Formal),2021.2.3,Win32,60.24096386,,,,,,,,,,,,,,,,e,1,1.0843,,,,,,细腻,e,,,0,63,63,25,1,,,,,,,,,,,,,,,,,,,,,,,,,,,,,,,,,,
,,,,,,,,,,,,,11,001,2025-01-02_15h32.01.351,IAT(Formal),2021.2.3,Win32,60.24096386,,,,,,,,,,,,,,,,i,1,0.9062,,,,,,他人,i,,,0,64,64,78,1,,,,,,,,,,,,,,,,,,,,,,,,,,,,,,,,,,
,,,,,,,,,,,,,11,001,2025-01-02_15h32.01.351,IAT(Formal),2021.2.3,Win32,60.24096386,,,,,,,,,,,,,,,,i,1,0.6914,,,,,,固执,i,,,0,65,65,47,1,,,,,,,,,,,,,,,,,,,,,,,,,,,,,,,,,,
,,,,,,,,,,,,,11,001,2025-01-02_15h32.01.351,IAT(Formal),2021.2.3,Win32,60.24096386,,,,,,,,,,,,,,,,e,1,0.8613,,,,,,公正,e,,,0,66,66,23,1,,,,,,,,,,,,,,,,,,,,,,,,,,,,,,,,,,
,,,,,,,,,,,,,11,001,2025-01-02_15h32.01.351,IAT(Formal),2021.2.3,Win32,60.24096386,,,,,,,,,,,,,,,,e,1,0.7383,,,,,,诚恳,e,,,0,67,67,29,1,,,,,,,,,,,,,,,,,,,,,,,,,,,,,,,,,,
,,,,,,,,,,,,,11,001,2025-01-02_15h32.01.351,IAT(Formal),2021.2.3,Win32,60.24096386,,,,,,,,,,,,,,,,e,1,0.7136,,,,,,我,e,,,0,68,68,60,1,,,,,,,,,,,,,,,,,,,,,,,,,,,,,,,,,,
,,,,,,,,,,,,,11,001,2025-01-02_15h32.01.351,IAT(Formal),2021.2.3,Win32,60.24096386,,,,,,,,,,,,,,,,i,1,0.6906,,,,,,愚蠢,i,,,0,69,69,32,1,,,,,,,,,,,,,,,,,,,,,,,,,,,,,,,,,,
,,,,,,,,,,,,,11,001,2025-01-02_15h32.01.351,IAT(Formal),2021.2.3,Win32,60.24096386,,,,,,,,,,,,,,,,i,1,0.5874,,,,,,他们,i,,,0,70,70,56,1,,,,,,,,,,,,,,,,,,,,,,,,,,,,,,,,,,
,,,,,,,,,,,,,11,001,2025-01-02_15h32.01.351,IAT(Formal),2021.2.3,Win32,60.24096386,,,,,,,,,,,,,,,,e,1,0.797,,,,,,我的,e,,,0,71,71,1,1,,,,,,,,,,,,,,,,,,,,,,,,,,,,,,,,,,
,,,,,,,,,,,,,11,001,2025-01-02_15h32.01.351,IAT(Formal),2021.2.3,Win32,60.24096386,,,,,,,,,,,,,,,,i,1,0.6704,,,,,,他们,i,,,0,72,72,76,1,,,,,,,,,,,,,,,,,,,,,,,,,,,,,,,,,,
,,,,,,,,,,,,,11,001,2025-01-02_15h32.01.351,IAT(Formal),2021.2.3,Win32,60.24096386,,,,,,,,,,,,,,,,e,1,0.671,,,,,,俺,e,,,0,73,73,64,1,,,,,,,,,,,,,,,,,,,,,,,,,,,,,,,,,,
,,,,,,,,,,,,,11,001,2025-01-02_15h32.01.351,IAT(Formal),2021.2.3,Win32,60.24096386,,,,,,,,,,,,,,,,e,1,0.4935,,,,,,我的,e,,,0,74,74,71,1,,,,,,,,,,,,,,,,,,,,,,,,,,,,,,,,,,
,,,,,,,,,,,,,11,001,2025-01-02_15h32.01.351,IAT(Formal),2021.2.3,Win32,60.24096386,,,,,,,,,,,,,,,,e,1,0.5038,,,,,,俺,e,,,0,75,75,74,1,,,,,,,,,,,,,,,,,,,,,,,,,,,,,,,,,,
,,,,,,,,,,,,,11,001,2025-01-02_15h32.01.351,IAT(Formal),2021.2.3,Win32,60.24096386,,,,,,,,,,,,,,,,i,1,0.6901,,,,,,他人,i,,,0,76,76,8,1,,,,,,,,,,,,,,,,,,,,,,,,,,,,,,,,,,
,,,,,,,,,,,,,11,001,2025-01-02_15h32.01.351,IAT(Formal),2021.2.3,Win32,60.24096386,,,,,,,,,,,,,,,,i,1,0.6576,,,,,,他的,i,,,0,77,77,67,1,,,,,,,,,,,,,,,,,,,,,,,,,,,,,,,,,,
,,,,,,,,,,,,,11,001,2025-01-02_15h32.01.351,IAT(Formal),2021.2.3,Win32,60.24096386,,,,,,,,,,,,,,,,i,1,0.5177,,,,,,他人,i,,,0,78,78,68,1,,,,,,,,,,,,,,,,,,,,,,,,,,,,,,,,,,
,,,,,,,,,,,,,11,001,2025-01-02_15h32.01.351,IAT(Formal),2021.2.3,Win32,60.24096386,,,,,,,,,,,,,,,,e,1,0.7157,,,,,,正直,e,,,0,79,79,16,1,,,,,,,,,,,,,,,,,,,,,,,,,,,,,,,,,,
,,,,,,,,,,,,,11,001,2025-01-02_15h32.01.351,IAT(Formal),2021.2.3,Win32,60.24096386,,,,,,,,,,,,,,,,e,1,0.7182,,,,,,我,e,,,1,0,80,50,1,,,,,,,,,,,,,,,,,,,,,,,,,,,,,,,,,,
,,,,,,,,,,,,,11,001,2025-01-02_15h32.01.351,IAT(Formal),2021.2.3,Win32,60.24096386,,,,,,,,,,,,,,,,e,1,0.5382,,,,,,勇敢,e,,,1,1,81,17,1,,,,,,,,,,,,,,,,,,,,,,,,,,,,,,,,,,
,,,,,,,,,,,,,11,001,2025-01-02_15h32.01.351,IAT(Formal),2021.2.3,Win32,60.24096386,,,,,,,,,,,,,,,,i,1,0.7925,,,,,,他的,i,,,1,2,82,57,1,,,,,,,,,,,,,,,,,,,,,,,,,,,,,,,,,,
,,,,,,,,,,,,,11,001,2025-01-02_15h32.01.351,IAT(Formal),2021.2.3,Win32,60.24096386,,,,,,,,,,,,,,,,e,1,0.567,,,,,,我的,e,,,1,3,83,61,1,,,,,,,,,,,,,,,,,,,,,,,,,,,,,,,,,,
,,,,,,,,,,,,,11,001,2025-01-02_15h32.01.351,IAT(Formal),2021.2.3,Win32,60.24096386,,,,,,,,,,,,,,,,i,1,0.6676,,,,,,暴躁,i,,,1,4,84,44,1,,,,,,,,,,,,,,,,,,,,,,,,,,,,,,,,,,
,,,,,,,,,,,,,11,001,2025-01-02_15h32.01.351,IAT(Formal),2021.2.3,Win32,60.24096386,,,,,,,,,,,,,,,,i,1,0.6273,,,,,,他,i,,,1,5,85,65,1,,,,,,,,,,,,,,,,,,,,,,,,,,,,,,,,,,
,,,,,,,,,,,,,11,001,2025-01-02_15h32.01.351,IAT(Formal),2021.2.3,Win32,60.24096386,,,,,,,,,,,,,,,,e,1,1.084,,,,,,无私,e,,,1,6,86,22,1,,,,,,,,,,,,,,,,,,,,,,,,,,,,,,,,,,
,,,,,,,,,,,,,11,001,2025-01-02_15h32.01.351,IAT(Formal),2021.2.3,Win32,60.24096386,,,,,,,,,,,,,,,,e,1,0.697,,,,,,勤奋,e,,,1,7,87,18,1,,,,,,,,,,,,,,,,,,,,,,,,,,,,,,,,,,
,,,,,,,,,,,,,11,001,2025-01-02_15h32.01.351,IAT(Formal),2021.2.3,Win32,60.24096386,,,,,,,,,,,,,,,,i,1,0.6165,,,,,,他的,i,,,1,8,88,77,1,,,,,,,,,,,,,,,,,,,,,,,,,,,,,,,,,,
,,,,,,,,,,,,,11,001,2025-01-02_15h32.01.351,IAT(Formal),2021.2.3,Win32,60.24096386,,,,,,,,,,,,,,,,e,1,0.6413,,,,,,诚实,e,,,1,9,89,15,1,,,,,,,,,,,,,,,,,,,,,,,,,,,,,,,,,,
,,,,,,,,,,,,,11,001,2025-01-02_15h32.01.351,IAT(Formal),2021.2.3,Win32,60.24096386,,,,,,,,,,,,,,,,e,1,0.5359,,,,,,俺,e,,,1,10,90,4,1,,,,,,,,,,,,,,,,,,,,,,,,,,,,,,,,,,
,,,,,,,,,,,,,11,001,2025-01-02_15h32.01.351,IAT(Formal),2021.2.3,Win32,60.24096386,,,,,,,,,,,,,,,,e,1,0.521,,,,,,俺,e,,,1,11,91,54,1,,,,,,,,,,,,,,,,,,,,,,,,,,,,,,,,,,
,,,,,,,,,,,,,11,001,2025-01-02_15h32.01.351,IAT(Formal),2021.2.3,Win32,60.24096386,,,,,,,,,,,,,,,,i,1,0.4988,,,,,,他人,i,,,1,12,92,8,1,,,,,,,,,,,,,,,,,,,,,,,,,,,,,,,,,,
,,,,,,,,,,,,,11,001,2025-01-02_15h32.01.351,IAT(Formal),2021.2.3,Win32,60.24096386,,,,,,,,,,,,,,,,e,1,0.5669,,,,,,自己,e,,,1,13,93,73,1,,,,,,,,,,,,,,,,,,,,,,,,,,,,,,,,,,
,,,,,,,,,,,,,11,001,2025-01-02_15h32.01.351,IAT(Formal),2021.2.3,Win32,60.24096386,,,,,,,,,,,,,,,,i,1,0.7869,,,,,,散漫,i,,,1,14,94,41,1,,,,,,,,,,,,,,,,,,,,,,,,,,,,,,,,,,
,,,,,,,,,,,,,11,001,2025-01-02_15h32.01.351,IAT(Formal),2021.2.3,Win32,60.24096386,,,,,,,,,,,,,,,,i,1,0.6311,,,,,,傲慢,i,,,1,15,95,37,1,,,,,,,,,,,,,,,,,,,,,,,,,,,,,,,,,,
,,,,,,,,,,,,,11,001,2025-01-02_15h32.01.351,IAT(Formal),2021.2.3,Win32,60.24096386,,,,,,,,,,,,,,,,e,1,0.6226,,,,,,我的,e,,,1,16,96,51,1,,,,,,,,,,,,,,,,,,,,,,,,,,,,,,,,,,
,,,,,,,,,,,,,11,001,2025-01-02_15h32.01.351,IAT(Formal),2021.2.3,Win32,60.24096386,,,,,,,,,,,,,,,,i,1,0.7023,,,,,,固执,i,,,1,17,97,47,1,,,,,,,,,,,,,,,,,,,,,,,,,,,,,,,,,,
,,,,,,,,,,,,,11,001,2025-01-02_15h32.01.351,IAT(Formal),2021.2.3,Win32,60.24096386,,,,,,,,,,,,,,,,e,1,0.6138,,,,,,俺,e,,,1,18,98,64,1,,,,,,,,,,,,,,,,,,,,,,,,,,,,,,,,,,
,,,,,,,,,,,,,11,001,2025-01-02_15h32.01.351,IAT(Formal),2021.2.3,Win32,60.24096386,,,,,,,,,,,,,,,,i,1,0.7161,,,,,,凶狠,i,,,1,19,99,42,1,,,,,,,,,,,,,,,,,,,,,,,,,,,,,,,,,,
,,,,,,,,,,,,,11,001,2025-01-02_15h32.01.351,IAT(Formal),2021.2.3,Win32,60.24096386,,,,,,,,,,,,,,,,i,1,0.739,,,,,,其他,i,,,1,20,100,59,1,,,,,,,,,,,,,,,,,,,,,,,,,,,,,,,,,,
,,,,,,,,,,,,,11,001,2025-01-02_15h32.01.351,IAT(Formal),2021.2.3,Win32,60.24096386,,,,,,,,,,,,,,,,e,1,0.5996,,,,,,我的,e,,,1,21,101,71,1,,,,,,,,,,,,,,,,,,,,,,,,,,,,,,,,,,
,,,,,,,,,,,,,11,001,2025-01-02_15h32.01.351,IAT(Formal),2021.2.3,Win32,60.24096386,,,,,,,,,,,,,,,,i,1,0.5977,,,,,,其他,i,,,1,22,102,9,1,,,,,,,,,,,,,,,,,,,,,,,,,,,,,,,,,,
,,,,,,,,,,,,,11,001,2025-01-02_15h32.01.351,IAT(Formal),2021.2.3,Win32,60.24096386,,,,,,,,,,,,,,,,i,1,0.7018,,,,,,冒失,i,,,1,23,103,39,1,,,,,,,,,,,,,,,,,,,,,,,,,,,,,,,,,,
,,,,,,,,,,,,,11,001,2025-01-02_15h32.01.351,IAT(Formal),2021.2.3,Win32,60.24096386,,,,,,,,,,,,,,,,i,1,0.5416,,,,,,下贱,i,,,1,24,104,49,1,,,,,,,,,,,,,,,,,,,,,,,,,,,,,,,,,,
,,,,,,,,,,,,,11,001,2025-01-02_15h32.01.351,IAT(Formal),2021.2.3,Win32,60.24096386,,,,,,,,,,,,,,,,e,1,0.5972,,,,,,我,e,,,1,25,105,60,1,,,,,,,,,,,,,,,,,,,,,,,,,,,,,,,,,,
,,,,,,,,,,,,,11,001,2025-01-02_15h32.01.351,IAT(Formal),2021.2.3,Win32,60.24096386,,,,,,,,,,,,,,,,e,1,0.4331,,,,,,自己,e,,,1,26,106,3,1,,,,,,,,,,,,,,,,,,,,,,,,,,,,,,,,,,
,,,,,,,,,,,,,11,001,2025-01-02_15h32.01.351,IAT(Formal),2021.2.3,Win32,60.24096386,,,,,,,,,,,,,,,,e,1,0.6921,,,,,,稳重,e,,,1,27,107,21,1,,,,,,,,,,,,,,,,,,,,,,,,,,,,,,,,,,
,,,,,,,,,,,,,11,001,2025-01-02_15h32.01.351,IAT(Formal),2021.2.3,Win32,60.24096386,,,,,,,,,,,,,,,,i,1,0.6314,,,,,,他们,i,,,1,28,108,6,1,,,,,,,,,,,,,,,,,,,,,,,,,,,,,,,,,,
,,,,,,,,,,,,,11,001,2025-01-02_15h32.01.351,IAT(Formal),2021.2.3,Win32,60.24096386,,,,,,,,,,,,,,,,i,1,0.692,,,,,,刻薄,i,,,1,29,109,33,1,,,,,,,,,,,,,,,,,,,,,,,,,,,,,,,,,,
,,,,,,,,,,,,,11,001,2025-01-02_15h32.01.351,IAT(Formal),2021.2.3,Win32,60.24096386,,,,,,,,,,,,,,,,i,1,0.7327,,,,,,悲观,i,,,1,30,110,34,1,,,,,,,,,,,,,,,,,,,,,,,,,,,,,,,,,,
,,,,,,,,,,,,,11,001,2025-01-02_15h32.01.351,IAT(Formal),2021.2.3,Win32,60.24096386,,,,,,,,,,,,,,,,e,1,0.7669,,,,,,崇高,e,,,1,31,111,11,1,,,,,,,,,,,,,,,,,,,,,,,,,,,,,,,,,,
,,,,,,,,,,,,,11,001,2025-01-02_15h32.01.351,IAT(Formal),2021.2.3,Win32,60.24096386,,,,,,,,,,,,,,,,e,1,0.536,,,,,,自己,e,,,1,32,112,53,1,,,,,,,,,,,,,,,,,,,,,,,,,,,,,,,,,,
,,,,,,,,,,,,,11,001,2025-01-02_15h32.01.351,IAT(Formal),2021.2.3,Win32,60.24096386,,,,,,,,,,,,,,,,e,1,0.4885,,,,,,热情,e,,,1,33,113,27,1,,,,,,,,,,,,,,,,,,,,,,,,,,,,,,,,,,
,,,,,,,,,,,,,11,001,2025-01-02_15h32.01.351,IAT(Formal),2021.2.3,Win32,60.24096386,,,,,,,,,,,,,,,,e,1,0.4598,,,,,,我们,e,,,1,34,114,2,1,,,,,,,,,,,,,,,,,,,,,,,,,,,,,,,,,,
,,,,,,,,,,,,,11,001,2025-01-02_15h32.01.351,IAT(Formal),2021.2.3,Win32,60.24096386,,,,,,,,,,,,,,,,e,1,0.4735,,,,,,活泼,e,,,1,35,115,28,1,,,,,,,,,,,,,,,,,,,,,,,,,,,,,,,,,,
,,,,,,,,,,,,,11,001,2025-01-02_15h32.01.351,IAT(Formal),2021.2.3,Win32,60.24096386,,,,,,,,,,,,,,,,i,1,0.5874,,,,,,他人,i,,,1,36,116,68,1,,,,,,,,,,,,,,,,,,,,,,,,,,,,,,,,,,
,,,,,,,,,,,,,11,001,2025-01-02_15h32.01.351,IAT(Formal),2021.2.3,Win32,60.24096386,,,,,,,,,,,,,,,,e,1,0.6377,,,,,,朴实,e,,,1,37,117,24,1,,,,,,,,,,,,,,,,,,,,,,,,,,,,,,,,,,
,,,,,,,,,,,,,11,001,2025-01-02_15h32.01.351,IAT(Formal),2021.2.3,Win32,60.24096386,,,,,,,,,,,,,,,,i,1,0.6223,,,,,,卑鄙,i,,,1,38,118,30,1,,,,,,,,,,,,,,,,,,,,,,,,,,,,,,,,,,
,,,,,,,,,,,,,11,001,2025-01-02_15h32.01.351,IAT(Formal),2021.2.3,Win32,60.24096386,,,,,,,,,,,,,,,,e,1,0.5946,,,,,,杰出,e,,,1,39,119,13,1,,,,,,,,,,,,,,,,,,,,,,,,,,,,,,,,,,
,,,,,,,,,,,,,11,001,2025-01-02_15h32.01.351,IAT(Formal),2021.2.3,Win32,60.24096386,,,,,,,,,,,,,,,,e,1,0.4859,,,,,,冷静,e,,,1,40,120,26,1,,,,,,,,,,,,,,,,,,,,,,,,,,,,,,,,,,
,,,,,,,,,,,,,11,001,2025-01-02_15h32.01.351,IAT(Formal),2021.2.3,Win32,60.24096386,,,,,,,,,,,,,,,,i,1,0.8801,,,,,,轻率,i,,,1,41,121,48,1,,,,,,,,,,,,,,,,,,,,,,,,,,,,,,,,,,
,,,,,,,,,,,,,11,001,2025-01-02_15h32.01.351,IAT(Formal),2021.2.3,Win32,60.24096386,,,,,,,,,,,,,,,,e,1,0.5605,,,,,,我的,e,,,1,42,122,1,1,,,,,,,,,,,,,,,,,,,,,,,,,,,,,,,,,,
,,,,,,,,,,,,,11,001,2025-01-02_15h32.01.351,IAT(Formal),2021.2.3,Win32,60.24096386,,,,,,,,,,,,,,,,i,1,0.6374,,,,,,他的,i,,,1,43,123,67,1,,,,,,,,,,,,,,,,,,,,,,,,,,,,,,,,,,
,,,,,,,,,,,,,11,001,2025-01-02_15h32.01.351,IAT(Formal),2021.2.3,Win32,60.24096386,,,,,,,,,,,,,,,,e,1,0.6718,,,,,,优秀,e,,,1,44,124,10,1,,,,,,,,,,,,,,,,,,,,,,,,,,,,,,,,,,
,,,,,,,,,,,,,11,001,2025-01-02_15h32.01.351,IAT(Formal),2021.2.3,Win32,60.24096386,,,,,,,,,,,,,,,,i,1,0.6211,,,,,,虚伪,i,,,1,45,125,31,1,,,,,,,,,,,,,,,,,,,,,,,,,,,,,,,,,,
,,,,,,,,,,,,,11,001,2025-01-02_15h32.01.351,IAT(Formal),2021.2.3,Win32,60.24096386,,,,,,,,,,,,,,,,i,1,0.662,,,,,,消极,i,,,1,46,126,35,1,,,,,,,,,,,,,,,,,,,,,,,,,,,,,,,,,,
,,,,,,,,,,,,,11,001,2025-01-02_15h32.01.351,IAT(Formal),2021.2.3,Win32,60.24096386,,,,,,,,,,,,,,,,e,1,0.7215,,,,,,俺,e,,,1,47,127,74,1,,,,,,,,,,,,,,,,,,,,,,,,,,,,,,,,,,
,,,,,,,,,,,,,11,001,2025-01-02_15h32.01.351,IAT(Formal),2021.2.3,Win32,60.24096386,,,,,,,,,,,,,,,,i,1,0.6931,,,,,,他们,i,,,1,48,128,66,1,,,,,,,,,,,,,,,,,,,,,,,,,,,,,,,,,,
,,,,,,,,,,,,,11,001,2025-01-02_15h32.01.351,IAT(Formal),2021.2.3,Win32,60.24096386,,,,,,,,,,,,,,,,i,1,0.7714,,,,,,野蛮,i,,,1,49,129,46,1,,,,,,,,,,,,,,,,,,,,,,,,,,,,,,,,,,
,,,,,,,,,,,,,11,001,2025-01-02_15h32.01.351,IAT(Formal),2021.2.3,Win32,60.24096386,,,,,,,,,,,,,,,,e,1,0.59,,,,,,我们,e,,,1,50,130,72,1,,,,,,,,,,,,,,,,,,,,,,,,,,,,,,,,,,
,,,,,,,,,,,,,11,001,2025-01-02_15h32.01.351,IAT(Formal),2021.2.3,Win32,60.24096386,,,,,,,,,,,,,,,,i,1,0.6917,,,,,,他,i,,,1,51,131,75,1,,,,,,,,,,,,,,,,,,,,,,,,,,,,,,,,,,
,,,,,,,,,,,,,11,001,2025-01-02_15h32.01.351,IAT(Formal),2021.2.3,Win32,60.24096386,,,,,,,,,,,,,,,,e,1,0.646,,,,,,我们,e,,,1,52,132,62,1,,,,,,,,,,,,,,,,,,,,,,,,,,,,,,,,,,
,,,,,,,,,,,,,11,001,2025-01-02_15h32.01.351,IAT(Formal),2021.2.3,Win32,60.24096386,,,,,,,,,,,,,,,,e,1,0.5684,,,,,,机智,e,,,1,53,133,19,1,,,,,,,,,,,,,,,,,,,,,,,,,,,,,,,,,,
,,,,,,,,,,,,,11,001,2025-01-02_15h32.01.351,IAT(Formal),2021.2.3,Win32,60.24096386,,,,,,,,,,,,,,,,i,1,0.6264,,,,,,自私,i,,,1,54,134,43,1,,,,,,,,,,,,,,,,,,,,,,,,,,,,,,,,,,
,,,,,,,,,,,,,11,001,2025-01-02_15h32.01.351,IAT(Formal),2021.2.3,Win32,60.24096386,,,,,,,,,,,,,,,,i,1,0.9386,,,,,,他人,i,,,1,55,135,58,1,,,,,,,,,,,,,,,,,,,,,,,,,,,,,,,,,,
,,,,,,,,,,,,,11,001,2025-01-02_15h32.01.351,IAT(Formal),2021.2.3,Win32,60.24096386,,,,,,,,,,,,,,,,e,1,0.6494,,,,,,诚恳,e,,,1,56,136,29,1,,,,,,,,,,,,,,,,,,,,,,,,,,,,,,,,,,
,,,,,,,,,,,,,11,001,2025-01-02_15h32.01.351,IAT(Formal),2021.2.3,Win32,60.24096386,,,,,,,,,,,,,,,,i,1,0.8371,,,,,,执拗,i,,,1,57,137,40,1,,,,,,,,,,,,,,,,,,,,,,,,,,,,,,,,,,
,,,,,,,,,,,,,11,001,2025-01-02_15h32.01.351,IAT(Formal),2021.2.3,Win32,60.24096386,,,,,,,,,,,,,,,,i,1,0.5846,,,,,,猖狂,i,,,1,58,138,45,1,,,,,,,,,,,,,,,,,,,,,,,,,,,,,,,,,,
,,,,,,,,,,,,,11,001,2025-01-02_15h32.01.351,IAT(Formal),2021.2.3,Win32,60.24096386,,,,,,,,,,,,,,,,e,1,0.5986,,,,,,细腻,e,,,1,59,139,25,1,,,,,,,,,,,,,,,,,,,,,,,,,,,,,,,,,,
,,,,,,,,,,,,,11,001,2025-01-02_15h32.01.351,IAT(Formal),2021.2.3,Win32,60.24096386,,,,,,,,,,,,,,,,i,1,0.6724,,,,,,他们,i,,,1,60,140,76,1,,,,,,,,,,,,,,,,,,,,,,,,,,,,,,,,,,
,,,,,,,,,,,,,11,001,2025-01-02_15h32.01.351,IAT(Formal),2021.2.3,Win32,60.24096386,,,,,,,,,,,,,,,,i,1,0.5493,,,,,,他人,i,,,1,61,141,78,1,,,,,,,,,,,,,,,,,,,,,,,,,,,,,,,,,,
,,,,,,,,,,,,,11,001,2025-01-02_15h32.01.351,IAT(Formal),2021.2.3,Win32,60.24096386,,,,,,,,,,,,,,,,i,1,0.9978,,,,,,自卑,i,,,1,62,142,36,1,,,,,,,,,,,,,,,,,,,,,,,,,,,,,,,,,,
,,,,,,,,,,,,,11,001,2025-01-02_15h32.01.351,IAT(Formal),2021.2.3,Win32,60.24096386,,,,,,,,,,,,,,,,i,1,0.5998,,,,,,他的,i,,,1,63,143,7,1,,,,,,,,,,,,,,,,,,,,,,,,,,,,,,,,,,
,,,,,,,,,,,,,11,001,2025-01-02_15h32.01.351,IAT(Formal),2021.2.3,Win32,60.24096386,,,,,,,,,,,,,,,,e,1,0.7829,,,,,,乐观,e,,,1,64,144,14,1,,,,,,,,,,,,,,,,,,,,,,,,,,,,,,,,,,
,,,,,,,,,,,,,11,001,2025-01-02_15h32.01.351,IAT(Formal),2021.2.3,Win32,60.24096386,,,,,,,,,,,,,,,,e,1,0.5748,,,,,,聪明,e,,,1,65,145,12,1,,,,,,,,,,,,,,,,,,,,,,,,,,,,,,,,,,
,,,,,,,,,,,,,11,001,2025-01-02_15h32.01.351,IAT(Formal),2021.2.3,Win32,60.24096386,,,,,,,,,,,,,,,,e,1,0.4844,,,,,,自己,e,,,1,66,146,63,1,,,,,,,,,,,,,,,,,,,,,,,,,,,,,,,,,,
,,,,,,,,,,,,,11,001,2025-01-02_15h32.01.351,IAT(Formal),2021.2.3,Win32,60.24096386,,,,,,,,,,,,,,,,i,1,0.7253,,,,,,他,i,,,1,67,147,5,1,,,,,,,,,,,,,,,,,,,,,,,,,,,,,,,,,,
,,,,,,,,,,,,,11,001,2025-01-02_15h32.01.351,IAT(Formal),2021.2.3,Win32,60.24096386,,,,,,,,,,,,,,,,i,1,0.6254,,,,,,愚蠢,i,,,1,68,148,32,1,,,,,,,,,,,,,,,,,,,,,,,,,,,,,,,,,,
,,,,,,,,,,,,,11,001,2025-01-02_15h32.01.351,IAT(Formal),2021.2.3,Win32,60.24096386,,,,,,,,,,,,,,,,i,1,0.5254,,,,,,鲁莽,i,,,1,69,149,38,1,,,,,,,,,,,,,,,,,,,,,,,,,,,,,,,,,,
,,,,,,,,,,,,,11,001,2025-01-02_15h32.01.351,IAT(Formal),2021.2.3,Win32,60.24096386,,,,,,,,,,,,,,,,i,1,0.5492,,,,,,他,i,,,1,70,150,55,1,,,,,,,,,,,,,,,,,,,,,,,,,,,,,,,,,,
,,,,,,,,,,,,,11,001,2025-01-02_15h32.01.351,IAT(Formal),2021.2.3,Win32,60.24096386,,,,,,,,,,,,,,,,e,1,0.6252,,,,,,我,e,,,1,71,151,70,1,,,,,,,,,,,,,,,,,,,,,,,,,,,,,,,,,,
,,,,,,,,,,,,,11,001,2025-01-02_15h32.01.351,IAT(Formal),2021.2.3,Win32,60.24096386,,,,,,,,,,,,,,,,i,1,0.7182,,,,,,他们,i,,,1,72,152,56,1,,,,,,,,,,,,,,,,,,,,,,,,,,,,,,,,,,
,,,,,,,,,,,,,11,001,2025-01-02_15h32.01.351,IAT(Formal),2021.2.3,Win32,60.24096386,,,,,,,,,,,,,,,,e,1,0.6092,,,,,,认真,e,,,1,73,153,20,1,,,,,,,,,,,,,,,,,,,,,,,,,,,,,,,,,,
,,,,,,,,,,,,,11,001,2025-01-02_15h32.01.351,IAT(Formal),2021.2.3,Win32,60.24096386,,,,,,,,,,,,,,,,i,1,0.7189,,,,,,其他,i,,,1,74,154,79,1,,,,,,,,,,,,,,,,,,,,,,,,,,,,,,,,,,
,,,,,,,,,,,,,11,001,2025-01-02_15h32.01.351,IAT(Formal),2021.2.3,Win32,60.24096386,,,,,,,,,,,,,,,,e,1,0.6869,,,,,,我们,e,,,1,75,155,52,1,,,,,,,,,,,,,,,,,,,,,,,,,,,,,,,,,,
,,,,,,,,,,,,,11,001,2025-01-02_15h32.01.351,IAT(Formal),2021.2.3,Win32,60.24096386,,,,,,,,,,,,,,,,e,1,0.5892,,,,,,我,e,,,1,76,156,0,1,,,,,,,,,,,,,,,,,,,,,,,,,,,,,,,,,,
,,,,,,,,,,,,,11,001,2025-01-02_15h32.01.351,IAT(Formal),2021.2.3,Win32,60.24096386,,,,,,,,,,,,,,,,i,1,0.5603,,,,,,其他,i,,,1,77,157,69,1,,,,,,,,,,,,,,,,,,,,,,,,,,,,,,,,,,
,,,,,,,,,,,,,11,001,2025-01-02_15h32.01.351,IAT(Formal),2021.2.3,Win32,60.24096386,,,,,,,,,,,,,,,,e,1,1.073,,,,,,公正,e,,,1,78,158,23,1,,,,,,,,,,,,,,,,,,,,,,,,,,,,,,,,,,
,,,,,,,,,,,,,11,001,2025-01-02_15h32.01.351,IAT(Formal),2021.2.3,Win32,60.24096386,,,,,,,,,,,,,,,,e,1,0.5677,,,,,,正直,e,,,1,79,159,16,1,,,,,,,,,,,,,,,,,,,,,,,,,,,,,,,,,,
,,,,,,,,,,,我们,i,11,001,2025-01-02_15h32.01.351,IAT(Formal),2021.2.3,Win32,60.24096386,,,,,,,,,,,,,,,,,,,,,,,,,,,,,,,,,space,12.3612,i,1,0.7939,0,0,0,2,1,,,,,,,,,,,,,,,,,,,,,,,,
,,,,,,,,,,,他们,e,11,001,2025-01-02_15h32.01.351,IAT(Formal),2021.2.3,Win32,60.24096386,,,,,,,,,,,,,,,,,,,,,,,,,,,,,,,,,,,e,1,0.6011,0,1,1,6,1,,,,,,,,,,,,,,,,,,,,,,,,
,,,,,,,,,,,其他,e,11,001,2025-01-02_15h32.01.351,IAT(Formal),2021.2.3,Win32,60.24096386,,,,,,,,,,,,,,,,,,,,,,,,,,,,,,,,,,,e,1,0.6391,0,2,2,9,1,,,,,,,,,,,,,,,,,,,,,,,,
,,,,,,,,,,,我的,i,11,001,2025-01-02_15h32.01.351,IAT(Formal),2021.2.3,Win32,60.24096386,,,,,,,,,,,,,,,,,,,,,,,,,,,,,,,,,,,i,1,0.6694,0,3,3,1,1,,,,,,,,,,,,,,,,,,,,,,,,
,,,,,,,,,,,我,i,11,001,2025-01-02_15h32.01.351,IAT(Formal),2021.2.3,Win32,60.24096386,,,,,,,,,,,,,,,,,,,,,,,,,,,,,,,,,,,i,1,0.4871,0,4,4,0,1,,,,,,,,,,,,,,,,,,,,,,,,
,,,,,,,,,,,他人,e,11,001,2025-01-02_15h32.01.351,IAT(Formal),2021.2.3,Win32,60.24096386,,,,,,,,,,,,,,,,,,,,,,,,,,,,,,,,,,,e,1,0.5099,0,5,5,8,1,,,,,,,,,,,,,,,,,,,,,,,,
,,,,,,,,,,,他,e,11,001,2025-01-02_15h32.01.351,IAT(Formal),2021.2.3,Win32,60.24096386,,,,,,,,,,,,,,,,,,,,,,,,,,,,,,,,,,,e,1,0.5944,0,6,6,5,1,,,,,,,,,,,,,,,,,,,,,,,,
,,,,,,,,,,,俺,i,11,001,2025-01-02_15h32.01.351,IAT(Formal),2021.2.3,Win32,60.24096386,,,,,,,,,,,,,,,,,,,,,,,,,,,,,,,,,,,i,1,0.7998,0,7,7,4,1,,,,,,,,,,,,,,,,,,,,,,,,
,,,,,,,,,,,他的,e,11,001,2025-01-02_15h32.01.351,IAT(Formal),2021.2.3,Win32,60.24096386,,,,,,,,,,,,,,,,,,,,,,,,,,,,,,,,,,,e,1,0.6256,0,8,8,7,1,,,,,,,,,,,,,,,,,,,,,,,,
,,,,,,,,,,,自己,i,11,001,2025-01-02_15h32.01.351,IAT(Formal),2021.2.3,Win32,60.24096386,,,,,,,,,,,,,,,,,,,,,,,,,,,,,,,,,,,i,1,0.7082,0,9,9,3,1,,,,,,,,,,,,,,,,,,,,,,,,
,,,,,,,,,,,,,11,001,2025-01-02_15h32.01.351,IAT(Formal),2021.2.3,Win32,60.24096386,,,,,,,,,,,,,,,,,,,,,,,,,,,,,,,,,,,,,,,,,,,space,7.1362,i,0,1.3057,0,0,0,11,1,崇高,e,,,,,,,,,,,,
,,,,,,,,,,,,,11,001,2025-01-02_15h32.01.351,IAT(Formal),2021.2.3,Win32,60.24096386,,,,,,,,,,,,,,,,,,,,,,,,,,,,,,,,,,,,,,,,,,,,,i,0,1.4046,0,1,1,27,1,热情,e,,,,,,,,,,,,
,,,,,,,,,,,,,11,001,2025-01-02_15h32.01.351,IAT(Formal),2021.2.3,Win32,60.24096386,,,,,,,,,,,,,,,,,,,,,,,,,,,,,,,,,,,,,,,,,,,,,e,0,0.6289,0,2,2,2,1,我们,i,,,,,,,,,,,,
,,,,,,,,,,,,,11,001,2025-01-02_15h32.01.351,IAT(Formal),2021.2.3,Win32,60.24096386,,,,,,,,,,,,,,,,,,,,,,,,,,,,,,,,,,,,,,,,,,,,,,0,,0,3,3,67,1,他的,e,,,,,,,,,,,,
,,,,,,,,,,,,,11,001,2025-01-02_15h32.01.351,IAT(Formal),2021.2.3,Win32,60.24096386,,,,,,,,,,,,,,,,,,,,,,,,,,,,,,,,,,,,,,,,,,,,,e,1,0.8175,0,4,4,68,1,他人,e,,,,,,,,,,,,
,,,,,,,,,,,,,11,001,2025-01-02_15h32.01.351,IAT(Formal),2021.2.3,Win32,60.24096386,,,,,,,,,,,,,,,,,,,,,,,,,,,,,,,,,,,,,,,,,,,,,e,1,0.7603,0,5,5,16,1,正直,e,,,,,,,,,,,,
,,,,,,,,,,,,,11,001,2025-01-02_15h32.01.351,IAT(Formal),2021.2.3,Win32,60.24096386,,,,,,,,,,,,,,,,,,,,,,,,,,,,,,,,,,,,,,,,,,,,,i,1,0.8013,0,6,6,37,1,傲慢,i,,,,,,,,,,,,
,,,,,,,,,,,,,11,001,2025-01-02_15h32.01.351,IAT(Formal),2021.2.3,Win32,60.24096386,,,,,,,,,,,,,,,,,,,,,,,,,,,,,,,,,,,,,,,,,,,,,e,1,1.1072,0,7,7,9,1,其他,e,,,,,,,,,,,,
,,,,,,,,,,,,,11,001,2025-01-02_15h32.01.351,IAT(Formal),2021.2.3,Win32,60.24096386,,,,,,,,,,,,,,,,,,,,,,,,,,,,,,,,,,,,,,,,,,,,,i,1,0.6348,0,8,8,60,1,我,i,,,,,,,,,,,,
,,,,,,,,,,,,,11,001,2025-01-02_15h32.01.351,IAT(Formal),2021.2.3,Win32,60.24096386,,,,,,,,,,,,,,,,,,,,,,,,,,,,,,,,,,,,,,,,,,,,,i,0,0.5175,0,9,9,22,1,无私,e,,,,,,,,,,,,
,,,,,,,,,,,,,11,001,2025-01-02_15h32.01.351,IAT(Formal),2021.2.3,Win32,60.24096386,,,,,,,,,,,,,,,,,,,,,,,,,,,,,,,,,,,,,,,,,,,,,e,1,0.8962,0,10,10,76,1,他们,e,,,,,,,,,,,,
,,,,,,,,,,,,,11,001,2025-01-02_15h32.01.351,IAT(Formal),2021.2.3,Win32,60.24096386,,,,,,,,,,,,,,,,,,,,,,,,,,,,,,,,,,,,,,,,,,,,,i,1,0.9675,0,11,11,1,1,我的,i,,,,,,,,,,,,
,,,,,,,,,,,,,11,001,2025-01-02_15h32.01.351,IAT(Formal),2021.2.3,Win32,60.24096386,,,,,,,,,,,,,,,,,,,,,,,,,,,,,,,,,,,,,,,,,,,,,,0,,0,12,12,77,1,他的,e,,,,,,,,,,,,
,,,,,,,,,,,,,11,001,2025-01-02_15h32.01.351,IAT(Formal),2021.2.3,Win32,60.24096386,,,,,,,,,,,,,,,,,,,,,,,,,,,,,,,,,,,,,,,,,,,,,e,1,0.595,0,13,13,65,1,他,e,,,,,,,,,,,,
,,,,,,,,,,,,,11,001,2025-01-02_15h32.01.351,IAT(Formal),2021.2.3,Win32,60.24096386,,,,,,,,,,,,,,,,,,,,,,,,,,,,,,,,,,,,,,,,,,,,,e,0,1.2617,0,14,14,43,1,自私,i,,,,,,,,,,,,
,,,,,,,,,,,,,11,001,2025-01-02_15h32.01.351,IAT(Formal),2021.2.3,Win32,60.24096386,,,,,,,,,,,,,,,,,,,,,,,,,,,,,,,,,,,,,,,,,,,,,i,1,0.9087,0,15,15,36,1,自卑,i,,,,,,,,,,,,
,,,,,,,,,,,,,11,001,2025-01-02_15h32.01.351,IAT(Formal),2021.2.3,Win32,60.24096386,,,,,,,,,,,,,,,,,,,,,,,,,,,,,,,,,,,,,,,,,,,,,i,1,0.9948,0,16,16,63,1,自己,i,,,,,,,,,,,,
,,,,,,,,,,,,,11,001,2025-01-02_15h32.01.351,IAT(Formal),2021.2.3,Win32,60.24096386,,,,,,,,,,,,,,,,,,,,,,,,,,,,,,,,,,,,,,,,,,,,,e,1,0.8434,0,17,17,17,1,勇敢,e,,,,,,,,,,,,
,,,,,,,,,,,,,11,001,2025-01-02_15h32.01.351,IAT(Formal),2021.2.3,Win32,60.24096386,,,,,,,,,,,,,,,,,,,,,,,,,,,,,,,,,,,,,,,,,,,,,i,1,0.9697,0,18,18,72,1,我们,i,,,,,,,,,,,,
,,,,,,,,,,,,,11,001,2025-01-02_15h32.01.351,IAT(Formal),2021.2.3,Win32,60.24096386,,,,,,,,,,,,,,,,,,,,,,,,,,,,,,,,,,,,,,,,,,,,,i,1,1.3594,0,19,19,44,1,暴躁,i,,,,,,,,,,,,
,,,,,,,,,,,,,11,001,2025-01-02_15h32.01.351,IAT(Formal),2021.2.3,Win32,60.24096386,,,,,,,,,,,,,,,,,,,,,,,,,,,,,,,,,,,,,,,,,,,,,i,1,0.6024,0,20,20,48,1,轻率,i,,,,,,,,,,,,
,,,,,,,,,,,,,11,001,2025-01-02_15h32.01.351,IAT(Formal),2021.2.3,Win32,60.24096386,,,,,,,,,,,,,,,,,,,,,,,,,,,,,,,,,,,,,,,,,,,,,i,1,1.1913,0,21,21,51,1,我的,i,,,,,,,,,,,,
,,,,,,,,,,,,,11,001,2025-01-02_15h32.01.351,IAT(Formal),2021.2.3,Win32,60.24096386,,,,,,,,,,,,,,,,,,,,,,,,,,,,,,,,,,,,,,,,,,,,,e,1,1.2444,0,22,22,20,1,认真,e,,,,,,,,,,,,
,,,,,,,,,,,,,11,001,2025-01-02_15h32.01.351,IAT(Formal),2021.2.3,Win32,60.24096386,,,,,,,,,,,,,,,,,,,,,,,,,,,,,,,,,,,,,,,,,,,,,i,1,1.0176,0,23,23,53,1,自己,i,,,,,,,,,,,,
,,,,,,,,,,,,,11,001,2025-01-02_15h32.01.351,IAT(Formal),2021.2.3,Win32,60.24096386,,,,,,,,,,,,,,,,,,,,,,,,,,,,,,,,,,,,,,,,,,,,,i,1,0.8844,0,24,24,52,1,我们,i,,,,,,,,,,,,
,,,,,,,,,,,,,11,001,2025-01-02_15h32.01.351,IAT(Formal),2021.2.3,Win32,60.24096386,,,,,,,,,,,,,,,,,,,,,,,,,,,,,,,,,,,,,,,,,,,,,e,1,0.7108,0,25,25,6,1,他们,e,,,,,,,,,,,,
,,,,,,,,,,,,,11,001,2025-01-02_15h32.01.351,IAT(Formal),2021.2.3,Win32,60.24096386,,,,,,,,,,,,,,,,,,,,,,,,,,,,,,,,,,,,,,,,,,,,,e,1,1.151,0,26,26,14,1,乐观,e,,,,,,,,,,,,
,,,,,,,,,,,,,11,001,2025-01-02_15h32.01.351,IAT(Formal),2021.2.3,Win32,60.24096386,,,,,,,,,,,,,,,,,,,,,,,,,,,,,,,,,,,,,,,,,,,,,i,1,1.0702,0,27,27,49,1,下贱,i,,,,,,,,,,,,
,,,,,,,,,,,,,11,001,2025-01-02_15h32.01.351,IAT(Formal),2021.2.3,Win32,60.24096386,,,,,,,,,,,,,,,,,,,,,,,,,,,,,,,,,,,,,,,,,,,,,i,1,0.9688,0,28,28,34,1,悲观,i,,,,,,,,,,,,
,,,,,,,,,,,,,11,001,2025-01-02_15h32.01.351,IAT(Formal),2021.2.3,Win32,60.24096386,,,,,,,,,,,,,,,,,,,,,,,,,,,,,,,,,,,,,,,,,,,,,i,1,0.8625,0,29,29,45,1,猖狂,i,,,,,,,,,,,,
,,,,,,,,,,,,,11,001,2025-01-02_15h32.01.351,IAT(Formal),2021.2.3,Win32,60.24096386,,,,,,,,,,,,,,,,,,,,,,,,,,,,,,,,,,,,,,,,,,,,,e,1,0.7751,0,30,30,55,1,他,e,,,,,,,,,,,,
,,,,,,,,,,,,,11,001,2025-01-02_15h32.01.351,IAT(Formal),2021.2.3,Win32,60.24096386,,,,,,,,,,,,,,,,,,,,,,,,,,,,,,,,,,,,,,,,,,,,,e,1,0.8446,0,31,31,28,1,活泼,e,,,,,,,,,,,,
,,,,,,,,,,,,,11,001,2025-01-02_15h32.01.351,IAT(Formal),2021.2.3,Win32,60.24096386,,,,,,,,,,,,,,,,,,,,,,,,,,,,,,,,,,,,,,,,,,,,,e,1,0.5941,0,32,32,25,1,细腻,e,,,,,,,,,,,,
,,,,,,,,,,,,,11,001,2025-01-02_15h32.01.351,IAT(Formal),2021.2.3,Win32,60.24096386,,,,,,,,,,,,,,,,,,,,,,,,,,,,,,,,,,,,,,,,,,,,,i,1,0.959,0,33,33,50,1,我,i,,,,,,,,,,,,
,,,,,,,,,,,,,11,001,2025-01-02_15h32.01.351,IAT(Formal),2021.2.3,Win32,60.24096386,,,,,,,,,,,,,,,,,,,,,,,,,,,,,,,,,,,,,,,,,,,,,i,1,0.5563,0,34,34,54,1,俺,i,,,,,,,,,,,,
,,,,,,,,,,,,,11,001,2025-01-02_15h32.01.351,IAT(Formal),2021.2.3,Win32,60.24096386,,,,,,,,,,,,,,,,,,,,,,,,,,,,,,,,,,,,,,,,,,,,,e,1,0.7255,0,35,35,75,1,他,e,,,,,,,,,,,,
,,,,,,,,,,,,,11,001,2025-01-02_15h32.01.351,IAT(Formal),2021.2.3,Win32,60.24096386,,,,,,,,,,,,,,,,,,,,,,,,,,,,,,,,,,,,,,,,,,,,,i,1,0.6612,0,36,36,35,1,消极,i,,,,,,,,,,,,
,,,,,,,,,,,,,11,001,2025-01-02_15h32.01.351,IAT(Formal),2021.2.3,Win32,60.24096386,,,,,,,,,,,,,,,,,,,,,,,,,,,,,,,,,,,,,,,,,,,,,i,1,0.639,0,37,37,4,1,俺,i,,,,,,,,,,,,
,,,,,,,,,,,,,11,001,2025-01-02_15h32.01.351,IAT(Formal),2021.2.3,Win32,60.24096386,,,,,,,,,,,,,,,,,,,,,,,,,,,,,,,,,,,,,,,,,,,,,e,1,0.7019,0,38,38,78,1,他人,e,,,,,,,,,,,,
,,,,,,,,,,,,,11,001,2025-01-02_15h32.01.351,IAT(Formal),2021.2.3,Win32,60.24096386,,,,,,,,,,,,,,,,,,,,,,,,,,,,,,,,,,,,,,,,,,,,,e,1,0.9169,0,39,39,21,1,稳重,e,,,,,,,,,,,,
,,,,,,,,,,,,,11,001,2025-01-02_15h32.01.351,IAT(Formal),2021.2.3,Win32,60.24096386,,,,,,,,,,,,,,,,,,,,,,,,,,,,,,,,,,,,,,,,,,,,,i,1,0.7712,0,40,40,33,1,刻薄,i,,,,,,,,,,,,
,,,,,,,,,,,,,11,001,2025-01-02_15h32.01.351,IAT(Formal),2021.2.3,Win32,60.24096386,,,,,,,,,,,,,,,,,,,,,,,,,,,,,,,,,,,,,,,,,,,,,i,1,1.0538,0,41,41,62,1,我们,i,,,,,,,,,,,,
,,,,,,,,,,,,,11,001,2025-01-02_15h32.01.351,IAT(Formal),2021.2.3,Win32,60.24096386,,,,,,,,,,,,,,,,,,,,,,,,,,,,,,,,,,,,,,,,,,,,,e,1,0.568,0,42,42,7,1,他的,e,,,,,,,,,,,,
,,,,,,,,,,,,,11,001,2025-01-02_15h32.01.351,IAT(Formal),2021.2.3,Win32,60.24096386,,,,,,,,,,,,,,,,,,,,,,,,,,,,,,,,,,,,,,,,,,,,,i,1,0.5504,0,43,43,71,1,我的,i,,,,,,,,,,,,
,,,,,,,,,,,,,11,001,2025-01-02_15h32.01.351,IAT(Formal),2021.2.3,Win32,60.24096386,,,,,,,,,,,,,,,,,,,,,,,,,,,,,,,,,,,,,,,,,,,,,e,1,0.6094,0,44,44,8,1,他人,e,,,,,,,,,,,,
,,,,,,,,,,,,,11,001,2025-01-02_15h32.01.351,IAT(Formal),2021.2.3,Win32,60.24096386,,,,,,,,,,,,,,,,,,,,,,,,,,,,,,,,,,,,,,,,,,,,,e,1,0.6198,0,45,45,66,1,他们,e,,,,,,,,,,,,
,,,,,,,,,,,,,11,001,2025-01-02_15h32.01.351,IAT(Formal),2021.2.3,Win32,60.24096386,,,,,,,,,,,,,,,,,,,,,,,,,,,,,,,,,,,,,,,,,,,,,e,1,0.7574,0,46,46,24,1,朴实,e,,,,,,,,,,,,
,,,,,,,,,,,,,11,001,2025-01-02_15h32.01.351,IAT(Formal),2021.2.3,Win32,60.24096386,,,,,,,,,,,,,,,,,,,,,,,,,,,,,,,,,,,,,,,,,,,,,e,1,0.7367,0,47,47,57,1,他的,e,,,,,,,,,,,,
,,,,,,,,,,,,,11,001,2025-01-02_15h32.01.351,IAT(Formal),2021.2.3,Win32,60.24096386,,,,,,,,,,,,,,,,,,,,,,,,,,,,,,,,,,,,,,,,,,,,,i,1,1.0184,0,48,48,73,1,自己,i,,,,,,,,,,,,
,,,,,,,,,,,,,11,001,2025-01-02_15h32.01.351,IAT(Formal),2021.2.3,Win32,60.24096386,,,,,,,,,,,,,,,,,,,,,,,,,,,,,,,,,,,,,,,,,,,,,i,1,0.5511,0,49,49,74,1,俺,i,,,,,,,,,,,,
,,,,,,,,,,,,,11,001,2025-01-02_15h32.01.351,IAT(Formal),2021.2.3,Win32,60.24096386,,,,,,,,,,,,,,,,,,,,,,,,,,,,,,,,,,,,,,,,,,,,,i,1,0.4562,0,50,50,0,1,我,i,,,,,,,,,,,,
,,,,,,,,,,,,,11,001,2025-01-02_15h32.01.351,IAT(Formal),2021.2.3,Win32,60.24096386,,,,,,,,,,,,,,,,,,,,,,,,,,,,,,,,,,,,,,,,,,,,,e,1,0.6565,0,51,51,58,1,他人,e,,,,,,,,,,,,
,,,,,,,,,,,,,11,001,2025-01-02_15h32.01.351,IAT(Formal),2021.2.3,Win32,60.24096386,,,,,,,,,,,,,,,,,,,,,,,,,,,,,,,,,,,,,,,,,,,,,i,1,0.608,0,52,52,30,1,卑鄙,i,,,,,,,,,,,,
,,,,,,,,,,,,,11,001,2025-01-02_15h32.01.351,IAT(Formal),2021.2.3,Win32,60.24096386,,,,,,,,,,,,,,,,,,,,,,,,,,,,,,,,,,,,,,,,,,,,,i,1,0.6509,0,53,53,61,1,我的,i,,,,,,,,,,,,
,,,,,,,,,,,,,11,001,2025-01-02_15h32.01.351,IAT(Formal),2021.2.3,Win32,60.24096386,,,,,,,,,,,,,,,,,,,,,,,,,,,,,,,,,,,,,,,,,,,,,i,1,0.559,0,54,54,3,1,自己,i,,,,,,,,,,,,
,,,,,,,,,,,,,11,001,2025-01-02_15h32.01.351,IAT(Formal),2021.2.3,Win32,60.24096386,,,,,,,,,,,,,,,,,,,,,,,,,,,,,,,,,,,,,,,,,,,,,e,1,0.821,0,55,55,13,1,杰出,e,,,,,,,,,,,,
,,,,,,,,,,,,,11,001,2025-01-02_15h32.01.351,IAT(Formal),2021.2.3,Win32,60.24096386,,,,,,,,,,,,,,,,,,,,,,,,,,,,,,,,,,,,,,,,,,,,,i,1,0.6434,0,56,56,70,1,我,i,,,,,,,,,,,,
,,,,,,,,,,,,,11,001,2025-01-02_15h32.01.351,IAT(Formal),2021.2.3,Win32,60.24096386,,,,,,,,,,,,,,,,,,,,,,,,,,,,,,,,,,,,,,,,,,,,,i,1,0.6734,0,57,57,47,1,固执,i,,,,,,,,,,,,
,,,,,,,,,,,,,11,001,2025-01-02_15h32.01.351,IAT(Formal),2021.2.3,Win32,60.24096386,,,,,,,,,,,,,,,,,,,,,,,,,,,,,,,,,,,,,,,,,,,,,i,0,0.7336,0,58,58,56,1,他们,e,,,,,,,,,,,,
,,,,,,,,,,,,,11,001,2025-01-02_15h32.01.351,IAT(Formal),2021.2.3,Win32,60.24096386,,,,,,,,,,,,,,,,,,,,,,,,,,,,,,,,,,,,,,,,,,,,,i,1,0.8024,0,59,59,32,1,愚蠢,i,,,,,,,,,,,,
,,,,,,,,,,,,,11,001,2025-01-02_15h32.01.351,IAT(Formal),2021.2.3,Win32,60.24096386,,,,,,,,,,,,,,,,,,,,,,,,,,,,,,,,,,,,,,,,,,,,,i,0,0.8869,0,60,60,12,1,聪明,e,,,,,,,,,,,,
,,,,,,,,,,,,,11,001,2025-01-02_15h32.01.351,IAT(Formal),2021.2.3,Win32,60.24096386,,,,,,,,,,,,,,,,,,,,,,,,,,,,,,,,,,,,,,,,,,,,,i,1,0.789,0,61,61,38,1,鲁莽,i,,,,,,,,,,,,
,,,,,,,,,,,,,11,001,2025-01-02_15h32.01.351,IAT(Formal),2021.2.3,Win32,60.24096386,,,,,,,,,,,,,,,,,,,,,,,,,,,,,,,,,,,,,,,,,,,,,e,1,0.6846,0,62,62,19,1,机智,e,,,,,,,,,,,,
,,,,,,,,,,,,,11,001,2025-01-02_15h32.01.351,IAT(Formal),2021.2.3,Win32,60.24096386,,,,,,,,,,,,,,,,,,,,,,,,,,,,,,,,,,,,,,,,,,,,,i,1,0.8211,0,63,63,39,1,冒失,i,,,,,,,,,,,,
,,,,,,,,,,,,,11,001,2025-01-02_15h32.01.351,IAT(Formal),2021.2.3,Win32,60.24096386,,,,,,,,,,,,,,,,,,,,,,,,,,,,,,,,,,,,,,,,,,,,,e,1,0.6568,0,64,64,26,1,冷静,e,,,,,,,,,,,,
,,,,,,,,,,,,,11,001,2025-01-02_15h32.01.351,IAT(Formal),2021.2.3,Win32,60.24096386,,,,,,,,,,,,,,,,,,,,,,,,,,,,,,,,,,,,,,,,,,,,,e,1,0.7007,0,65,65,18,1,勤奋,e,,,,,,,,,,,,
,,,,,,,,,,,,,11,001,2025-01-02_15h32.01.351,IAT(Formal),2021.2.3,Win32,60.24096386,,,,,,,,,,,,,,,,,,,,,,,,,,,,,,,,,,,,,,,,,,,,,i,1,0.834,0,66,66,46,1,野蛮,i,,,,,,,,,,,,
,,,,,,,,,,,,,11,001,2025-01-02_15h32.01.351,IAT(Formal),2021.2.3,Win32,60.24096386,,,,,,,,,,,,,,,,,,,,,,,,,,,,,,,,,,,,,,,,,,,,,e,1,0.6619,0,67,67,15,1,诚实,e,,,,,,,,,,,,
,,,,,,,,,,,,,11,001,2025-01-02_15h32.01.351,IAT(Formal),2021.2.3,Win32,60.24096386,,,,,,,,,,,,,,,,,,,,,,,,,,,,,,,,,,,,,,,,,,,,,e,1,1.184,0,68,68,69,1,其他,e,,,,,,,,,,,,
,,,,,,,,,,,,,11,001,2025-01-02_15h32.01.351,IAT(Formal),2021.2.3,Win32,60.24096386,,,,,,,,,,,,,,,,,,,,,,,,,,,,,,,,,,,,,,,,,,,,,i,1,0.7216,0,69,69,31,1,虚伪,i,,,,,,,,,,,,
,,,,,,,,,,,,,11,001,2025-01-02_15h32.01.351,IAT(Formal),2021.2.3,Win32,60.24096386,,,,,,,,,,,,,,,,,,,,,,,,,,,,,,,,,,,,,,,,,,,,,e,1,0.7872,0,70,70,59,1,其他,e,,,,,,,,,,,,
,,,,,,,,,,,,,11,001,2025-01-02_15h32.01.351,IAT(Formal),2021.2.3,Win32,60.24096386,,,,,,,,,,,,,,,,,,,,,,,,,,,,,,,,,,,,,,,,,,,,,i,1,0.6845,0,71,71,41,1,散漫,i,,,,,,,,,,,,
,,,,,,,,,,,,,11,001,2025-01-02_15h32.01.351,IAT(Formal),2021.2.3,Win32,60.24096386,,,,,,,,,,,,,,,,,,,,,,,,,,,,,,,,,,,,,,,,,,,,,i,1,0.6946,0,72,72,64,1,俺,i,,,,,,,,,,,,
,,,,,,,,,,,,,11,001,2025-01-02_15h32.01.351,IAT(Formal),2021.2.3,Win32,60.24096386,,,,,,,,,,,,,,,,,,,,,,,,,,,,,,,,,,,,,,,,,,,,,e,1,1.0434,0,73,73,10,1,优秀,e,,,,,,,,,,,,
,,,,,,,,,,,,,11,001,2025-01-02_15h32.01.351,IAT(Formal),2021.2.3,Win32,60.24096386,,,,,,,,,,,,,,,,,,,,,,,,,,,,,,,,,,,,,,,,,,,,,i,1,0.7177,0,74,74,40,1,执拗,i,,,,,,,,,,,,
,,,,,,,,,,,,,11,001,2025-01-02_15h32.01.351,IAT(Formal),2021.2.3,Win32,60.24096386,,,,,,,,,,,,,,,,,,,,,,,,,,,,,,,,,,,,,,,,,,,,,e,1,1.2529,0,75,75,5,1,他,e,,,,,,,,,,,,
,,,,,,,,,,,,,11,001,2025-01-02_15h32.01.351,IAT(Formal),2021.2.3,Win32,60.24096386,,,,,,,,,,,,,,,,,,,,,,,,,,,,,,,,,,,,,,,,,,,,,i,1,0.7676,0,76,76,42,1,凶狠,i,,,,,,,,,,,,
,,,,,,,,,,,,,11,001,2025-01-02_15h32.01.351,IAT(Formal),2021.2.3,Win32,60.24096386,,,,,,,,,,,,,,,,,,,,,,,,,,,,,,,,,,,,,,,,,,,,,e,1,0.6359,0,77,77,29,1,诚恳,e,,,,,,,,,,,,
,,,,,,,,,,,,,11,001,2025-01-02_15h32.01.351,IAT(Formal),2021.2.3,Win32,60.24096386,,,,,,,,,,,,,,,,,,,,,,,,,,,,,,,,,,,,,,,,,,,,,e,1,0.6702,0,78,78,23,1,公正,e,,,,,,,,,,,,
,,,,,,,,,,,,,11,001,2025-01-02_15h32.01.351,IAT(Formal),2021.2.3,Win32,60.24096386,,,,,,,,,,,,,,,,,,,,,,,,,,,,,,,,,,,,,,,,,,,,,i,0,0.8004,0,79,79,79,1,其他,e,,,,,,,,,,,,
,,,,,,,,,,,,,11,001,2025-01-02_15h32.01.351,IAT(Formal),2021.2.3,Win32,60.24096386,,,,,,,,,,,,,,,,,,,,,,,,,,,,,,,,,,,,,,,,,,,,,,,,,,,,,他人,e,space,15.0981,e,1,1.338,0,0,0,58,1,,
,,,,,,,,,,,,,11,001,2025-01-02_15h32.01.351,IAT(Formal),2021.2.3,Win32,60.24096386,,,,,,,,,,,,,,,,,,,,,,,,,,,,,,,,,,,,,,,,,,,,,,,,,,,,,正直,e,,,e,1,0.6245,0,1,1,16,1,,
,,,,,,,,,,,,,11,001,2025-01-02_15h32.01.351,IAT(Formal),2021.2.3,Win32,60.24096386,,,,,,,,,,,,,,,,,,,,,,,,,,,,,,,,,,,,,,,,,,,,,,,,,,,,,我们,i,,,i,1,0.5796,0,2,2,52,1,,
,,,,,,,,,,,,,11,001,2025-01-02_15h32.01.351,IAT(Formal),2021.2.3,Win32,60.24096386,,,,,,,,,,,,,,,,,,,,,,,,,,,,,,,,,,,,,,,,,,,,,,,,,,,,,冒失,i,,,i,1,0.5609,0,3,3,39,1,,
,,,,,,,,,,,,,11,001,2025-01-02_15h32.01.351,IAT(Formal),2021.2.3,Win32,60.24096386,,,,,,,,,,,,,,,,,,,,,,,,,,,,,,,,,,,,,,,,,,,,,,,,,,,,,我,i,,,i,1,0.5361,0,4,4,60,1,,
,,,,,,,,,,,,,11,001,2025-01-02_15h32.01.351,IAT(Formal),2021.2.3,Win32,60.24096386,,,,,,,,,,,,,,,,,,,,,,,,,,,,,,,,,,,,,,,,,,,,,,,,,,,,,他,e,,,e,1,0.5215,0,5,5,55,1,,
,,,,,,,,,,,,,11,001,2025-01-02_15h32.01.351,IAT(Formal),2021.2.3,Win32,60.24096386,,,,,,,,,,,,,,,,,,,,,,,,,,,,,,,,,,,,,,,,,,,,,,,,,,,,,猖狂,i,,,i,1,0.6663,0,6,6,45,1,,
,,,,,,,,,,,,,11,001,2025-01-02_15h32.01.351,IAT(Formal),2021.2.3,Win32,60.24096386,,,,,,,,,,,,,,,,,,,,,,,,,,,,,,,,,,,,,,,,,,,,,,,,,,,,,固执,i,,,i,1,0.5156,0,7,7,47,1,,
,,,,,,,,,,,,,11,001,2025-01-02_15h32.01.351,IAT(Formal),2021.2.3,Win32,60.24096386,,,,,,,,,,,,,,,,,,,,,,,,,,,,,,,,,,,,,,,,,,,,,,,,,,,,,优秀,e,,,e,1,0.6927,0,8,8,10,1,,
,,,,,,,,,,,,,11,001,2025-01-02_15h32.01.351,IAT(Formal),2021.2.3,Win32,60.24096386,,,,,,,,,,,,,,,,,,,,,,,,,,,,,,,,,,,,,,,,,,,,,,,,,,,,,他们,e,,,e,1,1.3188,0,9,9,76,1,,
,,,,,,,,,,,,,11,001,2025-01-02_15h32.01.351,IAT(Formal),2021.2.3,Win32,60.24096386,,,,,,,,,,,,,,,,,,,,,,,,,,,,,,,,,,,,,,,,,,,,,,,,,,,,,稳重,e,,,i,0,0.5985,0,10,10,21,1,,
,,,,,,,,,,,,,11,001,2025-01-02_15h32.01.351,IAT(Formal),2021.2.3,Win32,60.24096386,,,,,,,,,,,,,,,,,,,,,,,,,,,,,,,,,,,,,,,,,,,,,,,,,,,,,我,i,,,i,1,0.7049,0,11,11,50,1,,
,,,,,,,,,,,,,11,001,2025-01-02_15h32.01.351,IAT(Formal),2021.2.3,Win32,60.24096386,,,,,,,,,,,,,,,,,,,,,,,,,,,,,,,,,,,,,,,,,,,,,,,,,,,,,热情,e,,,e,1,0.8035,0,12,12,27,1,,
,,,,,,,,,,,,,11,001,2025-01-02_15h32.01.351,IAT(Formal),2021.2.3,Win32,60.24096386,,,,,,,,,,,,,,,,,,,,,,,,,,,,,,,,,,,,,,,,,,,,,,,,,,,,,他,e,,,e,1,0.8751,0,13,13,75,1,,
,,,,,,,,,,,,,11,001,2025-01-02_15h32.01.351,IAT(Formal),2021.2.3,Win32,60.24096386,,,,,,,,,,,,,,,,,,,,,,,,,,,,,,,,,,,,,,,,,,,,,,,,,,,,,他,e,,,e,1,0.5561,0,14,14,5,1,,
,,,,,,,,,,,,,11,001,2025-01-02_15h32.01.351,IAT(Formal),2021.2.3,Win32,60.24096386,,,,,,,,,,,,,,,,,,,,,,,,,,,,,,,,,,,,,,,,,,,,,,,,,,,,,崇高,e,,,e,1,0.6083,0,15,15,11,1,,
,,,,,,,,,,,,,11,001,2025-01-02_15h32.01.351,IAT(Formal),2021.2.3,Win32,60.24096386,,,,,,,,,,,,,,,,,,,,,,,,,,,,,,,,,,,,,,,,,,,,,,,,,,,,,我的,i,,,i,1,0.8245,0,16,16,51,1,,
,,,,,,,,,,,,,11,001,2025-01-02_15h32.01.351,IAT(Formal),2021.2.3,Win32,60.24096386,,,,,,,,,,,,,,,,,,,,,,,,,,,,,,,,,,,,,,,,,,,,,,,,,,,,,勤奋,e,,,i,0,0.6527,0,17,17,18,1,,
,,,,,,,,,,,,,11,001,2025-01-02_15h32.01.351,IAT(Formal),2021.2.3,Win32,60.24096386,,,,,,,,,,,,,,,,,,,,,,,,,,,,,,,,,,,,,,,,,,,,,,,,,,,,,我,i,,,i,1,0.9344,0,18,18,70,1,,
,,,,,,,,,,,,,11,001,2025-01-02_15h32.01.351,IAT(Formal),2021.2.3,Win32,60.24096386,,,,,,,,,,,,,,,,,,,,,,,,,,,,,,,,,,,,,,,,,,,,,,,,,,,,,消极,i,,,i,1,0.7196,0,19,19,35,1,,
,,,,,,,,,,,,,11,001,2025-01-02_15h32.01.351,IAT(Formal),2021.2.3,Win32,60.24096386,,,,,,,,,,,,,,,,,,,,,,,,,,,,,,,,,,,,,,,,,,,,,,,,,,,,,卑鄙,i,,,i,1,0.5474,0,20,20,30,1,,
,,,,,,,,,,,,,11,001,2025-01-02_15h32.01.351,IAT(Formal),2021.2.3,Win32,60.24096386,,,,,,,,,,,,,,,,,,,,,,,,,,,,,,,,,,,,,,,,,,,,,,,,,,,,,冷静,e,,,e,1,0.6515,0,21,21,26,1,,
,,,,,,,,,,,,,11,001,2025-01-02_15h32.01.351,IAT(Formal),2021.2.3,Win32,60.24096386,,,,,,,,,,,,,,,,,,,,,,,,,,,,,,,,,,,,,,,,,,,,,,,,,,,,,暴躁,i,,,i,1,0.5838,0,22,22,44,1,,
,,,,,,,,,,,,,11,001,2025-01-02_15h32.01.351,IAT(Formal),2021.2.3,Win32,60.24096386,,,,,,,,,,,,,,,,,,,,,,,,,,,,,,,,,,,,,,,,,,,,,,,,,,,,,轻率,i,,,i,1,0.747,0,23,23,48,1,,
,,,,,,,,,,,,,11,001,2025-01-02_15h32.01.351,IAT(Formal),2021.2.3,Win32,60.24096386,,,,,,,,,,,,,,,,,,,,,,,,,,,,,,,,,,,,,,,,,,,,,,,,,,,,,杰出,e,,,e,1,0.5961,0,24,24,13,1,,
,,,,,,,,,,,,,11,001,2025-01-02_15h32.01.351,IAT(Formal),2021.2.3,Win32,60.24096386,,,,,,,,,,,,,,,,,,,,,,,,,,,,,,,,,,,,,,,,,,,,,,,,,,,,,自己,i,,,e,0,1.0473,0,25,25,53,1,,
,,,,,,,,,,,,,11,001,2025-01-02_15h32.01.351,IAT(Formal),2021.2.3,Win32,60.24096386,,,,,,,,,,,,,,,,,,,,,,,,,,,,,,,,,,,,,,,,,,,,,,,,,,,,,诚恳,e,,,e,1,1.1246,0,26,26,29,1,,
,,,,,,,,,,,,,11,001,2025-01-02_15h32.01.351,IAT(Formal),2021.2.3,Win32,60.24096386,,,,,,,,,,,,,,,,,,,,,,,,,,,,,,,,,,,,,,,,,,,,,,,,,,,,,聪明,e,,,e,1,0.6492,0,27,27,12,1,,
,,,,,,,,,,,,,11,001,2025-01-02_15h32.01.351,IAT(Formal),2021.2.3,Win32,60.24096386,,,,,,,,,,,,,,,,,,,,,,,,,,,,,,,,,,,,,,,,,,,,,,,,,,,,,机智,e,,,e,1,0.5858,0,28,28,19,1,,
,,,,,,,,,,,,,11,001,2025-01-02_15h32.01.351,IAT(Formal),2021.2.3,Win32,60.24096386,,,,,,,,,,,,,,,,,,,,,,,,,,,,,,,,,,,,,,,,,,,,,,,,,,,,,自己,i,,,i,1,0.4705,0,29,29,63,1,,
,,,,,,,,,,,,,11,001,2025-01-02_15h32.01.351,IAT(Formal),2021.2.3,Win32,60.24096386,,,,,,,,,,,,,,,,,,,,,,,,,,,,,,,,,,,,,,,,,,,,,,,,,,,,,他的,e,,,e,1,0.5478,0,30,30,77,1,,
,,,,,,,,,,,,,11,001,2025-01-02_15h32.01.351,IAT(Formal),2021.2.3,Win32,60.24096386,,,,,,,,,,,,,,,,,,,,,,,,,,,,,,,,,,,,,,,,,,,,,,,,,,,,,他人,e,,,e,1,0.5029,0,31,31,78,1,,
,,,,,,,,,,,,,11,001,2025-01-02_15h32.01.351,IAT(Formal),2021.2.3,Win32,60.24096386,,,,,,,,,,,,,,,,,,,,,,,,,,,,,,,,,,,,,,,,,,,,,,,,,,,,,自己,i,,,i,1,0.6876,0,32,32,3,1,,
,,,,,,,,,,,,,11,001,2025-01-02_15h32.01.351,IAT(Formal),2021.2.3,Win32,60.24096386,,,,,,,,,,,,,,,,,,,,,,,,,,,,,,,,,,,,,,,,,,,,,,,,,,,,,我们,i,,,i,1,0.8668,0,33,33,2,1,,
,,,,,,,,,,,,,11,001,2025-01-02_15h32.01.351,IAT(Formal),2021.2.3,Win32,60.24096386,,,,,,,,,,,,,,,,,,,,,,,,,,,,,,,,,,,,,,,,,,,,,,,,,,,,,俺,i,,,i,1,0.647,0,34,34,74,1,,
,,,,,,,,,,,,,11,001,2025-01-02_15h32.01.351,IAT(Formal),2021.2.3,Win32,60.24096386,,,,,,,,,,,,,,,,,,,,,,,,,,,,,,,,,,,,,,,,,,,,,,,,,,,,,公正,e,,,e,1,0.6488,0,35,35,23,1,,
,,,,,,,,,,,,,11,001,2025-01-02_15h32.01.351,IAT(Formal),2021.2.3,Win32,60.24096386,,,,,,,,,,,,,,,,,,,,,,,,,,,,,,,,,,,,,,,,,,,,,,,,,,,,,我们,i,,,i,1,0.8484,0,36,36,72,1,,
,,,,,,,,,,,,,11,001,2025-01-02_15h32.01.351,IAT(Formal),2021.2.3,Win32,60.24096386,,,,,,,,,,,,,,,,,,,,,,,,,,,,,,,,,,,,,,,,,,,,,,,,,,,,,他,e,,,e,1,0.6462,0,37,37,65,1,,
,,,,,,,,,,,,,11,001,2025-01-02_15h32.01.351,IAT(Formal),2021.2.3,Win32,60.24096386,,,,,,,,,,,,,,,,,,,,,,,,,,,,,,,,,,,,,,,,,,,,,,,,,,,,,朴实,e,,,e,1,0.6712,0,38,38,24,1,,
,,,,,,,,,,,,,11,001,2025-01-02_15h32.01.351,IAT(Formal),2021.2.3,Win32,60.24096386,,,,,,,,,,,,,,,,,,,,,,,,,,,,,,,,,,,,,,,,,,,,,,,,,,,,,其他,e,,,i,0,0.8278,0,39,39,79,1,,
,,,,,,,,,,,,,11,001,2025-01-02_15h32.01.351,IAT(Formal),2021.2.3,Win32,60.24096386,,,,,,,,,,,,,,,,,,,,,,,,,,,,,,,,,,,,,,,,,,,,,,,,,,,,,其他,e,,,e,1,0.5168,0,40,40,59,1,,
,,,,,,,,,,,,,11,001,2025-01-02_15h32.01.351,IAT(Formal),2021.2.3,Win32,60.24096386,,,,,,,,,,,,,,,,,,,,,,,,,,,,,,,,,,,,,,,,,,,,,,,,,,,,,鲁莽,i,,,i,1,0.6704,0,41,41,38,1,,
,,,,,,,,,,,,,11,001,2025-01-02_15h32.01.351,IAT(Formal),2021.2.3,Win32,60.24096386,,,,,,,,,,,,,,,,,,,,,,,,,,,,,,,,,,,,,,,,,,,,,,,,,,,,,我的,i,,,i,1,0.8269,0,42,42,71,1,,
,,,,,,,,,,,,,11,001,2025-01-02_15h32.01.351,IAT(Formal),2021.2.3,Win32,60.24096386,,,,,,,,,,,,,,,,,,,,,,,,,,,,,,,,,,,,,,,,,,,,,,,,,,,,,我,i,,,i,1,0.7668,0,43,43,0,1,,
,,,,,,,,,,,,,11,001,2025-01-02_15h32.01.351,IAT(Formal),2021.2.3,Win32,60.24096386,,,,,,,,,,,,,,,,,,,,,,,,,,,,,,,,,,,,,,,,,,,,,,,,,,,,,他的,e,,,i,0,0.6098,0,44,44,67,1,,
,,,,,,,,,,,,,11,001,2025-01-02_15h32.01.351,IAT(Formal),2021.2.3,Win32,60.24096386,,,,,,,,,,,,,,,,,,,,,,,,,,,,,,,,,,,,,,,,,,,,,,,,,,,,,他人,e,,,e,1,0.643,0,45,45,8,1,,
,,,,,,,,,,,,,11,001,2025-01-02_15h32.01.351,IAT(Formal),2021.2.3,Win32,60.24096386,,,,,,,,,,,,,,,,,,,,,,,,,,,,,,,,,,,,,,,,,,,,,,,,,,,,,他们,e,,,e,1,0.5213,0,46,46,56,1,,
,,,,,,,,,,,,,11,001,2025-01-02_15h32.01.351,IAT(Formal),2021.2.3,Win32,60.24096386,,,,,,,,,,,,,,,,,,,,,,,,,,,,,,,,,,,,,,,,,,,,,,,,,,,,,俺,i,,,i,1,0.698,0,47,47,4,1,,
,,,,,,,,,,,,,11,001,2025-01-02_15h32.01.351,IAT(Formal),2021.2.3,Win32,60.24096386,,,,,,,,,,,,,,,,,,,,,,,,,,,,,,,,,,,,,,,,,,,,,,,,,,,,,诚实,e,,,e,1,0.4997,0,48,48,15,1,,
,,,,,,,,,,,,,11,001,2025-01-02_15h32.01.351,IAT(Formal),2021.2.3,Win32,60.24096386,,,,,,,,,,,,,,,,,,,,,,,,,,,,,,,,,,,,,,,,,,,,,,,,,,,,,悲观,i,,,i,1,0.6855,0,49,49,34,1,,
,,,,,,,,,,,,,11,001,2025-01-02_15h32.01.351,IAT(Formal),2021.2.3,Win32,60.24096386,,,,,,,,,,,,,,,,,,,,,,,,,,,,,,,,,,,,,,,,,,,,,,,,,,,,,虚伪,i,,,i,1,0.6382,0,50,50,31,1,,
,,,,,,,,,,,,,11,001,2025-01-02_15h32.01.351,IAT(Formal),2021.2.3,Win32,60.24096386,,,,,,,,,,,,,,,,,,,,,,,,,,,,,,,,,,,,,,,,,,,,,,,,,,,,,自卑,i,,,i,1,0.6434,0,51,51,36,1,,
,,,,,,,,,,,,,11,001,2025-01-02_15h32.01.351,IAT(Formal),2021.2.3,Win32,60.24096386,,,,,,,,,,,,,,,,,,,,,,,,,,,,,,,,,,,,,,,,,,,,,,,,,,,,,勇敢,e,,,e,1,0.6082,0,52,52,17,1,,
,,,,,,,,,,,,,11,001,2025-01-02_15h32.01.351,IAT(Formal),2021.2.3,Win32,60.24096386,,,,,,,,,,,,,,,,,,,,,,,,,,,,,,,,,,,,,,,,,,,,,,,,,,,,,其他,e,,,e,1,0.8901,0,53,53,9,1,,
,,,,,,,,,,,,,11,001,2025-01-02_15h32.01.351,IAT(Formal),2021.2.3,Win32,60.24096386,,,,,,,,,,,,,,,,,,,,,,,,,,,,,,,,,,,,,,,,,,,,,,,,,,,,,刻薄,i,,,i,1,0.7219,0,54,54,33,1,,
,,,,,,,,,,,,,11,001,2025-01-02_15h32.01.351,IAT(Formal),2021.2.3,Win32,60.24096386,,,,,,,,,,,,,,,,,,,,,,,,,,,,,,,,,,,,,,,,,,,,,,,,,,,,,自己,i,,,e,0,0.8098,0,55,55,73,1,,
,,,,,,,,,,,,,11,001,2025-01-02_15h32.01.351,IAT(Formal),2021.2.3,Win32,60.24096386,,,,,,,,,,,,,,,,,,,,,,,,,,,,,,,,,,,,,,,,,,,,,,,,,,,,,他的,e,,,e,1,0.6385,0,56,56,7,1,,
,,,,,,,,,,,,,11,001,2025-01-02_15h32.01.351,IAT(Formal),2021.2.3,Win32,60.24096386,,,,,,,,,,,,,,,,,,,,,,,,,,,,,,,,,,,,,,,,,,,,,,,,,,,,,傲慢,i,,,i,1,0.7325,0,57,57,37,1,,
,,,,,,,,,,,,,11,001,2025-01-02_15h32.01.351,IAT(Formal),2021.2.3,Win32,60.24096386,,,,,,,,,,,,,,,,,,,,,,,,,,,,,,,,,,,,,,,,,,,,,,,,,,,,,他们,e,,,e,1,0.709,0,58,58,66,1,,
,,,,,,,,,,,,,11,001,2025-01-02_15h32.01.351,IAT(Formal),2021.2.3,Win32,60.24096386,,,,,,,,,,,,,,,,,,,,,,,,,,,,,,,,,,,,,,,,,,,,,,,,,,,,,散漫,i,,,i,1,0.654,0,59,59,41,1,,
,,,,,,,,,,,,,11,001,2025-01-02_15h32.01.351,IAT(Formal),2021.2.3,Win32,60.24096386,,,,,,,,,,,,,,,,,,,,,,,,,,,,,,,,,,,,,,,,,,,,,,,,,,,,,我的,i,,,i,1,0.8003,0,60,60,61,1,,
,,,,,,,,,,,,,11,001,2025-01-02_15h32.01.351,IAT(Formal),2021.2.3,Win32,60.24096386,,,,,,,,,,,,,,,,,,,,,,,,,,,,,,,,,,,,,,,,,,,,,,,,,,,,,细腻,e,,,e,1,0.834,0,61,61,25,1,,
,,,,,,,,,,,,,11,001,2025-01-02_15h32.01.351,IAT(Formal),2021.2.3,Win32,60.24096386,,,,,,,,,,,,,,,,,,,,,,,,,,,,,,,,,,,,,,,,,,,,,,,,,,,,,我的,i,,,i,1,0.7517,0,62,62,1,1,,
,,,,,,,,,,,,,11,001,2025-01-02_15h32.01.351,IAT(Formal),2021.2.3,Win32,60.24096386,,,,,,,,,,,,,,,,,,,,,,,,,,,,,,,,,,,,,,,,,,,,,,,,,,,,,俺,i,,,i,1,0.7903,0,63,63,64,1,,
,,,,,,,,,,,,,11,001,2025-01-02_15h32.01.351,IAT(Formal),2021.2.3,Win32,60.24096386,,,,,,,,,,,,,,,,,,,,,,,,,,,,,,,,,,,,,,,,,,,,,,,,,,,,,野蛮,i,,,i,1,0.7862,0,64,64,46,1,,
,,,,,,,,,,,,,11,001,2025-01-02_15h32.01.351,IAT(Formal),2021.2.3,Win32,60.24096386,,,,,,,,,,,,,,,,,,,,,,,,,,,,,,,,,,,,,,,,,,,,,,,,,,,,,俺,i,,,i,1,0.5748,0,65,65,54,1,,
,,,,,,,,,,,,,11,001,2025-01-02_15h32.01.351,IAT(Formal),2021.2.3,Win32,60.24096386,,,,,,,,,,,,,,,,,,,,,,,,,,,,,,,,,,,,,,,,,,,,,,,,,,,,,自私,i,,,i,1,0.8242,0,66,66,43,1,,
,,,,,,,,,,,,,11,001,2025-01-02_15h32.01.351,IAT(Formal),2021.2.3,Win32,60.24096386,,,,,,,,,,,,,,,,,,,,,,,,,,,,,,,,,,,,,,,,,,,,,,,,,,,,,执拗,i,,,i,1,0.6003,0,67,67,40,1,,
,,,,,,,,,,,,,11,001,2025-01-02_15h32.01.351,IAT(Formal),2021.2.3,Win32,60.24096386,,,,,,,,,,,,,,,,,,,,,,,,,,,,,,,,,,,,,,,,,,,,,,,,,,,,,下贱,i,,,i,1,0.5655,0,68,68,49,1,,
,,,,,,,,,,,,,11,001,2025-01-02_15h32.01.351,IAT(Formal),2021.2.3,Win32,60.24096386,,,,,,,,,,,,,,,,,,,,,,,,,,,,,,,,,,,,,,,,,,,,,,,,,,,,,我们,i,,,e,0,0.5655,0,69,69,62,1,,
,,,,,,,,,,,,,11,001,2025-01-02_15h32.01.351,IAT(Formal),2021.2.3,Win32,60.24096386,,,,,,,,,,,,,,,,,,,,,,,,,,,,,,,,,,,,,,,,,,,,,,,,,,,,,凶狠,i,,,i,1,0.8541,0,70,70,42,1,,
,,,,,,,,,,,,,11,001,2025-01-02_15h32.01.351,IAT(Formal),2021.2.3,Win32,60.24096386,,,,,,,,,,,,,,,,,,,,,,,,,,,,,,,,,,,,,,,,,,,,,,,,,,,,,活泼,e,,,e,1,0.8658,0,71,71,28,1,,
,,,,,,,,,,,,,11,001,2025-01-02_15h32.01.351,IAT(Formal),2021.2.3,Win32,60.24096386,,,,,,,,,,,,,,,,,,,,,,,,,,,,,,,,,,,,,,,,,,,,,,,,,,,,,他们,e,,,e,1,0.6012,0,72,72,6,1,,
,,,,,,,,,,,,,11,001,2025-01-02_15h32.01.351,IAT(Formal),2021.2.3,Win32,60.24096386,,,,,,,,,,,,,,,,,,,,,,,,,,,,,,,,,,,,,,,,,,,,,,,,,,,,,乐观,e,,,e,1,0.6561,0,73,73,14,1,,
,,,,,,,,,,,,,11,001,2025-01-02_15h32.01.351,IAT(Formal),2021.2.3,Win32,60.24096386,,,,,,,,,,,,,,,,,,,,,,,,,,,,,,,,,,,,,,,,,,,,,,,,,,,,,他人,e,,,e,1,0.5413,0,74,74,68,1,,
,,,,,,,,,,,,,11,001,2025-01-02_15h32.01.351,IAT(Formal),2021.2.3,Win32,60.24096386,,,,,,,,,,,,,,,,,,,,,,,,,,,,,,,,,,,,,,,,,,,,,,,,,,,,,认真,e,,,e,1,0.5502,0,75,75,20,1,,
,,,,,,,,,,,,,11,001,2025-01-02_15h32.01.351,IAT(Formal),2021.2.3,Win32,60.24096386,,,,,,,,,,,,,,,,,,,,,,,,,,,,,,,,,,,,,,,,,,,,,,,,,,,,,愚蠢,i,,,i,1,0.5659,0,76,76,32,1,,
,,,,,,,,,,,,,11,001,2025-01-02_15h32.01.351,IAT(Formal),2021.2.3,Win32,60.24096386,,,,,,,,,,,,,,,,,,,,,,,,,,,,,,,,,,,,,,,,,,,,,,,,,,,,,他的,e,,,e,1,0.9551,0,77,77,57,1,,
,,,,,,,,,,,,,11,001,2025-01-02_15h32.01.351,IAT(Formal),2021.2.3,Win32,60.24096386,,,,,,,,,,,,,,,,,,,,,,,,,,,,,,,,,,,,,,,,,,,,,,,,,,,,,无私,e,,,e,1,0.7847,0,78,78,22,1,,
,,,,,,,,,,,,,11,001,2025-01-02_15h32.01.351,IAT(Formal),2021.2.3,Win32,60.24096386,,,,,,,,,,,,,,,,,,,,,,,,,,,,,,,,,,,,,,,,,,,,,,,,,,,,,其他,e,,,e,1,0.6486,0,79,79,69,1,,
,,,,,,,,,,,,,11,001,2025-01-02_15h32.01.351,IAT(Formal),2021.2.3,Win32,60.24096386,,,,,,,,,,,,,,,,,,,,,,,,,,,,,,,,,,,,,,,,,,,,,,,,,,,,,我,i,,,i,1,0.7061,1,0,80,70,1,,
,,,,,,,,,,,,,11,001,2025-01-02_15h32.01.351,IAT(Formal),2021.2.3,Win32,60.24096386,,,,,,,,,,,,,,,,,,,,,,,,,,,,,,,,,,,,,,,,,,,,,,,,,,,,,正直,e,,,e,1,0.691,1,1,81,16,1,,
,,,,,,,,,,,,,11,001,2025-01-02_15h32.01.351,IAT(Formal),2021.2.3,Win32,60.24096386,,,,,,,,,,,,,,,,,,,,,,,,,,,,,,,,,,,,,,,,,,,,,,,,,,,,,我的,i,,,i,1,0.8742,1,2,82,61,1,,
,,,,,,,,,,,,,11,001,2025-01-02_15h32.01.351,IAT(Formal),2021.2.3,Win32,60.24096386,,,,,,,,,,,,,,,,,,,,,,,,,,,,,,,,,,,,,,,,,,,,,,,,,,,,,他,e,,,e,1,0.7006,1,3,83,75,1,,
,,,,,,,,,,,,,11,001,2025-01-02_15h32.01.351,IAT(Formal),2021.2.3,Win32,60.24096386,,,,,,,,,,,,,,,,,,,,,,,,,,,,,,,,,,,,,,,,,,,,,,,,,,,,,崇高,e,,,e,1,0.7139,1,4,84,11,1,,
,,,,,,,,,,,,,11,001,2025-01-02_15h32.01.351,IAT(Formal),2021.2.3,Win32,60.24096386,,,,,,,,,,,,,,,,,,,,,,,,,,,,,,,,,,,,,,,,,,,,,,,,,,,,,我们,i,,,i,1,0.9651,1,5,85,52,1,,
,,,,,,,,,,,,,11,001,2025-01-02_15h32.01.351,IAT(Formal),2021.2.3,Win32,60.24096386,,,,,,,,,,,,,,,,,,,,,,,,,,,,,,,,,,,,,,,,,,,,,,,,,,,,,无私,e,,,e,1,1.3337,1,6,86,22,1,,
,,,,,,,,,,,,,11,001,2025-01-02_15h32.01.351,IAT(Formal),2021.2.3,Win32,60.24096386,,,,,,,,,,,,,,,,,,,,,,,,,,,,,,,,,,,,,,,,,,,,,,,,,,,,,他人,e,,,i,0,0.9736,1,7,87,68,1,,
,,,,,,,,,,,,,11,001,2025-01-02_15h32.01.351,IAT(Formal),2021.2.3,Win32,60.24096386,,,,,,,,,,,,,,,,,,,,,,,,,,,,,,,,,,,,,,,,,,,,,,,,,,,,,优秀,e,,,e,1,0.8603,1,8,88,10,1,,
,,,,,,,,,,,,,11,001,2025-01-02_15h32.01.351,IAT(Formal),2021.2.3,Win32,60.24096386,,,,,,,,,,,,,,,,,,,,,,,,,,,,,,,,,,,,,,,,,,,,,,,,,,,,,下贱,i,,,i,1,0.7016,1,9,89,49,1,,
,,,,,,,,,,,,,11,001,2025-01-02_15h32.01.351,IAT(Formal),2021.2.3,Win32,60.24096386,,,,,,,,,,,,,,,,,,,,,,,,,,,,,,,,,,,,,,,,,,,,,,,,,,,,,我,i,,,i,1,0.9821,1,10,90,0,1,,
,,,,,,,,,,,,,11,001,2025-01-02_15h32.01.351,IAT(Formal),2021.2.3,Win32,60.24096386,,,,,,,,,,,,,,,,,,,,,,,,,,,,,,,,,,,,,,,,,,,,,,,,,,,,,聪明,e,,,e,1,1.1308,1,11,91,12,1,,
,,,,,,,,,,,,,11,001,2025-01-02_15h32.01.351,IAT(Formal),2021.2.3,Win32,60.24096386,,,,,,,,,,,,,,,,,,,,,,,,,,,,,,,,,,,,,,,,,,,,,,,,,,,,,他的,e,,,e,1,1.0141,1,12,92,7,1,,
,,,,,,,,,,,,,11,001,2025-01-02_15h32.01.351,IAT(Formal),2021.2.3,Win32,60.24096386,,,,,,,,,,,,,,,,,,,,,,,,,,,,,,,,,,,,,,,,,,,,,,,,,,,,,其他,e,,,e,1,0.5046,1,13,93,69,1,,
,,,,,,,,,,,,,11,001,2025-01-02_15h32.01.351,IAT(Formal),2021.2.3,Win32,60.24096386,,,,,,,,,,,,,,,,,,,,,,,,,,,,,,,,,,,,,,,,,,,,,,,,,,,,,自私,i,,,e,0,0.9209,1,14,94,43,1,,
,,,,,,,,,,,,,11,001,2025-01-02_15h32.01.351,IAT(Formal),2021.2.3,Win32,60.24096386,,,,,,,,,,,,,,,,,,,,,,,,,,,,,,,,,,,,,,,,,,,,,,,,,,,,,傲慢,i,,,i,1,0.6656,1,15,95,37,1,,
,,,,,,,,,,,,,11,001,2025-01-02_15h32.01.351,IAT(Formal),2021.2.3,Win32,60.24096386,,,,,,,,,,,,,,,,,,,,,,,,,,,,,,,,,,,,,,,,,,,,,,,,,,,,,认真,e,,,e,1,0.6573,1,16,96,20,1,,
,,,,,,,,,,,,,11,001,2025-01-02_15h32.01.351,IAT(Formal),2021.2.3,Win32,60.24096386,,,,,,,,,,,,,,,,,,,,,,,,,,,,,,,,,,,,,,,,,,,,,,,,,,,,,自己,i,,,i,1,0.9199,1,17,97,53,1,,
,,,,,,,,,,,,,11,001,2025-01-02_15h32.01.351,IAT(Formal),2021.2.3,Win32,60.24096386,,,,,,,,,,,,,,,,,,,,,,,,,,,,,,,,,,,,,,,,,,,,,,,,,,,,,我,i,,,i,1,0.5761,1,18,98,60,1,,
,,,,,,,,,,,,,11,001,2025-01-02_15h32.01.351,IAT(Formal),2021.2.3,Win32,60.24096386,,,,,,,,,,,,,,,,,,,,,,,,,,,,,,,,,,,,,,,,,,,,,,,,,,,,,自己,i,,,i,1,0.6588,1,19,99,63,1,,
,,,,,,,,,,,,,11,001,2025-01-02_15h32.01.351,IAT(Formal),2021.2.3,Win32,60.24096386,,,,,,,,,,,,,,,,,,,,,,,,,,,,,,,,,,,,,,,,,,,,,,,,,,,,,我的,i,,,i,1,0.7385,1,20,100,71,1,,
,,,,,,,,,,,,,11,001,2025-01-02_15h32.01.351,IAT(Formal),2021.2.3,Win32,60.24096386,,,,,,,,,,,,,,,,,,,,,,,,,,,,,,,,,,,,,,,,,,,,,,,,,,,,,俺,i,,,i,1,0.6821,1,21,101,64,1,,
,,,,,,,,,,,,,11,001,2025-01-02_15h32.01.351,IAT(Formal),2021.2.3,Win32,60.24096386,,,,,,,,,,,,,,,,,,,,,,,,,,,,,,,,,,,,,,,,,,,,,,,,,,,,,自己,i,,,i,1,0.5374,1,22,102,73,1,,
,,,,,,,,,,,,,11,001,2025-01-02_15h32.01.351,IAT(Formal),2021.2.3,Win32,60.24096386,,,,,,,,,,,,,,,,,,,,,,,,,,,,,,,,,,,,,,,,,,,,,,,,,,,,,猖狂,i,,,i,1,0.6351,1,23,103,45,1,,
,,,,,,,,,,,,,11,001,2025-01-02_15h32.01.351,IAT(Formal),2021.2.3,Win32,60.24096386,,,,,,,,,,,,,,,,,,,,,,,,,,,,,,,,,,,,,,,,,,,,,,,,,,,,,杰出,e,,,e,1,0.7211,1,24,104,13,1,,
,,,,,,,,,,,,,11,001,2025-01-02_15h32.01.351,IAT(Formal),2021.2.3,Win32,60.24096386,,,,,,,,,,,,,,,,,,,,,,,,,,,,,,,,,,,,,,,,,,,,,,,,,,,,,诚恳,e,,,e,1,0.66,1,25,105,29,1,,
,,,,,,,,,,,,,11,001,2025-01-02_15h32.01.351,IAT(Formal),2021.2.3,Win32,60.24096386,,,,,,,,,,,,,,,,,,,,,,,,,,,,,,,,,,,,,,,,,,,,,,,,,,,,,散漫,i,,,i,1,1.4248,1,26,106,41,1,,
,,,,,,,,,,,,,11,001,2025-01-02_15h32.01.351,IAT(Formal),2021.2.3,Win32,60.24096386,,,,,,,,,,,,,,,,,,,,,,,,,,,,,,,,,,,,,,,,,,,,,,,,,,,,,勇敢,e,,,e,1,0.6879,1,27,107,17,1,,
,,,,,,,,,,,,,11,001,2025-01-02_15h32.01.351,IAT(Formal),2021.2.3,Win32,60.24096386,,,,,,,,,,,,,,,,,,,,,,,,,,,,,,,,,,,,,,,,,,,,,,,,,,,,,我,i,,,i,1,0.6527,1,28,108,50,1,,
,,,,,,,,,,,,,11,001,2025-01-02_15h32.01.351,IAT(Formal),2021.2.3,Win32,60.24096386,,,,,,,,,,,,,,,,,,,,,,,,,,,,,,,,,,,,,,,,,,,,,,,,,,,,,其他,e,,,e,1,0.7432,1,29,109,9,1,,
,,,,,,,,,,,,,11,001,2025-01-02_15h32.01.351,IAT(Formal),2021.2.3,Win32,60.24096386,,,,,,,,,,,,,,,,,,,,,,,,,,,,,,,,,,,,,,,,,,,,,,,,,,,,,勤奋,e,,,e,1,0.9231,1,30,110,18,1,,
,,,,,,,,,,,,,11,001,2025-01-02_15h32.01.351,IAT(Formal),2021.2.3,Win32,60.24096386,,,,,,,,,,,,,,,,,,,,,,,,,,,,,,,,,,,,,,,,,,,,,,,,,,,,,他人,e,,,e,1,0.5882,1,31,111,8,1,,
,,,,,,,,,,,,,11,001,2025-01-02_15h32.01.351,IAT(Formal),2021.2.3,Win32,60.24096386,,,,,,,,,,,,,,,,,,,,,,,,,,,,,,,,,,,,,,,,,,,,,,,,,,,,,我们,i,,,i,1,0.716,1,32,112,72,1,,
,,,,,,,,,,,,,11,001,2025-01-02_15h32.01.351,IAT(Formal),2021.2.3,Win32,60.24096386,,,,,,,,,,,,,,,,,,,,,,,,,,,,,,,,,,,,,,,,,,,,,,,,,,,,,消极,i,,,i,1,0.738,1,33,113,35,1,,
,,,,,,,,,,,,,11,001,2025-01-02_15h32.01.351,IAT(Formal),2021.2.3,Win32,60.24096386,,,,,,,,,,,,,,,,,,,,,,,,,,,,,,,,,,,,,,,,,,,,,,,,,,,,,乐观,e,,,e,1,1.082,1,34,114,14,1,,
,,,,,,,,,,,,,11,001,2025-01-02_15h32.01.351,IAT(Formal),2021.2.3,Win32,60.24096386,,,,,,,,,,,,,,,,,,,,,,,,,,,,,,,,,,,,,,,,,,,,,,,,,,,,,俺,i,,,i,1,0.7096,1,35,115,74,1,,
,,,,,,,,,,,,,11,001,2025-01-02_15h32.01.351,IAT(Formal),2021.2.3,Win32,60.24096386,,,,,,,,,,,,,,,,,,,,,,,,,,,,,,,,,,,,,,,,,,,,,,,,,,,,,悲观,i,,,i,1,0.7769,1,36,116,34,1,,
,,,,,,,,,,,,,11,001,2025-01-02_15h32.01.351,IAT(Formal),2021.2.3,Win32,60.24096386,,,,,,,,,,,,,,,,,,,,,,,,,,,,,,,,,,,,,,,,,,,,,,,,,,,,,其他,e,,,i,0,0.6588,1,37,117,79,1,,
,,,,,,,,,,,,,11,001,2025-01-02_15h32.01.351,IAT(Formal),2021.2.3,Win32,60.24096386,,,,,,,,,,,,,,,,,,,,,,,,,,,,,,,,,,,,,,,,,,,,,,,,,,,,,暴躁,i,,,i,1,0.6596,1,38,118,44,1,,
,,,,,,,,,,,,,11,001,2025-01-02_15h32.01.351,IAT(Formal),2021.2.3,Win32,60.24096386,,,,,,,,,,,,,,,,,,,,,,,,,,,,,,,,,,,,,,,,,,,,,,,,,,,,,野蛮,i,,,i,1,0.6196,1,39,119,46,1,,
,,,,,,,,,,,,,11,001,2025-01-02_15h32.01.351,IAT(Formal),2021.2.3,Win32,60.24096386,,,,,,,,,,,,,,,,,,,,,,,,,,,,,,,,,,,,,,,,,,,,,,,,,,,,,执拗,i,,,i,1,0.5842,1,40,120,40,1,,
,,,,,,,,,,,,,11,001,2025-01-02_15h32.01.351,IAT(Formal),2021.2.3,Win32,60.24096386,,,,,,,,,,,,,,,,,,,,,,,,,,,,,,,,,,,,,,,,,,,,,,,,,,,,,俺,i,,,i,1,0.9355,1,41,121,4,1,,
,,,,,,,,,,,,,11,001,2025-01-02_15h32.01.351,IAT(Formal),2021.2.3,Win32,60.24096386,,,,,,,,,,,,,,,,,,,,,,,,,,,,,,,,,,,,,,,,,,,,,,,,,,,,,固执,i,,,i,1,0.5711,1,42,122,47,1,,
,,,,,,,,,,,,,11,001,2025-01-02_15h32.01.351,IAT(Formal),2021.2.3,Win32,60.24096386,,,,,,,,,,,,,,,,,,,,,,,,,,,,,,,,,,,,,,,,,,,,,,,,,,,,,他们,e,,,e,1,0.4366,1,43,123,66,1,,
,,,,,,,,,,,,,11,001,2025-01-02_15h32.01.351,IAT(Formal),2021.2.3,Win32,60.24096386,,,,,,,,,,,,,,,,,,,,,,,,,,,,,,,,,,,,,,,,,,,,,,,,,,,,,轻率,i,,,i,1,0.7211,1,44,124,48,1,,
,,,,,,,,,,,,,11,001,2025-01-02_15h32.01.351,IAT(Formal),2021.2.3,Win32,60.24096386,,,,,,,,,,,,,,,,,,,,,,,,,,,,,,,,,,,,,,,,,,,,,,,,,,,,,公正,e,,,e,1,0.6172,1,45,125,23,1,,
,,,,,,,,,,,,,11,001,2025-01-02_15h32.01.351,IAT(Formal),2021.2.3,Win32,60.24096386,,,,,,,,,,,,,,,,,,,,,,,,,,,,,,,,,,,,,,,,,,,,,,,,,,,,,机智,e,,,e,1,0.7965,1,46,126,19,1,,
,,,,,,,,,,,,,11,001,2025-01-02_15h32.01.351,IAT(Formal),2021.2.3,Win32,60.24096386,,,,,,,,,,,,,,,,,,,,,,,,,,,,,,,,,,,,,,,,,,,,,,,,,,,,,鲁莽,i,,,i,1,0.6465,1,47,127,38,1,,
,,,,,,,,,,,,,11,001,2025-01-02_15h32.01.351,IAT(Formal),2021.2.3,Win32,60.24096386,,,,,,,,,,,,,,,,,,,,,,,,,,,,,,,,,,,,,,,,,,,,,,,,,,,,,他,e,,,e,1,0.6831,1,48,128,65,1,,
,,,,,,,,,,,,,11,001,2025-01-02_15h32.01.351,IAT(Formal),2021.2.3,Win32,60.24096386,,,,,,,,,,,,,,,,,,,,,,,,,,,,,,,,,,,,,,,,,,,,,,,,,,,,,虚伪,i,,,i,1,0.6187,1,49,129,31,1,,
,,,,,,,,,,,,,11,001,2025-01-02_15h32.01.351,IAT(Formal),2021.2.3,Win32,60.24096386,,,,,,,,,,,,,,,,,,,,,,,,,,,,,,,,,,,,,,,,,,,,,,,,,,,,,他们,e,,,e,1,0.5809,1,50,130,76,1,,
,,,,,,,,,,,,,11,001,2025-01-02_15h32.01.351,IAT(Formal),2021.2.3,Win32,60.24096386,,,,,,,,,,,,,,,,,,,,,,,,,,,,,,,,,,,,,,,,,,,,,,,,,,,,,冷静,e,,,,0,,1,51,131,26,1,,
,,,,,,,,,,,,,11,001,2025-01-02_15h32.01.351,IAT(Formal),2021.2.3,Win32,60.24096386,,,,,,,,,,,,,,,,,,,,,,,,,,,,,,,,,,,,,,,,,,,,,,,,,,,,,他们,e,,,e,1,0.6707,1,52,132,6,1,,
,,,,,,,,,,,,,11,001,2025-01-02_15h32.01.351,IAT(Formal),2021.2.3,Win32,60.24096386,,,,,,,,,,,,,,,,,,,,,,,,,,,,,,,,,,,,,,,,,,,,,,,,,,,,,俺,i,,,i,1,0.6858,1,53,133,54,1,,
,,,,,,,,,,,,,11,001,2025-01-02_15h32.01.351,IAT(Formal),2021.2.3,Win32,60.24096386,,,,,,,,,,,,,,,,,,,,,,,,,,,,,,,,,,,,,,,,,,,,,,,,,,,,,我的,i,,,i,1,0.7301,1,54,134,1,1,,
,,,,,,,,,,,,,11,001,2025-01-02_15h32.01.351,IAT(Formal),2021.2.3,Win32,60.24096386,,,,,,,,,,,,,,,,,,,,,,,,,,,,,,,,,,,,,,,,,,,,,,,,,,,,,他们,e,,,e,1,0.5688,1,55,135,56,1,,
,,,,,,,,,,,,,11,001,2025-01-02_15h32.01.351,IAT(Formal),2021.2.3,Win32,60.24096386,,,,,,,,,,,,,,,,,,,,,,,,,,,,,,,,,,,,,,,,,,,,,,,,,,,,,我们,i,,,i,1,0.716,1,56,136,62,1,,
,,,,,,,,,,,,,11,001,2025-01-02_15h32.01.351,IAT(Formal),2021.2.3,Win32,60.24096386,,,,,,,,,,,,,,,,,,,,,,,,,,,,,,,,,,,,,,,,,,,,,,,,,,,,,我们,i,,,i,1,0.9388,1,57,137,2,1,,
,,,,,,,,,,,,,11,001,2025-01-02_15h32.01.351,IAT(Formal),2021.2.3,Win32,60.24096386,,,,,,,,,,,,,,,,,,,,,,,,,,,,,,,,,,,,,,,,,,,,,,,,,,,,,刻薄,i,,,i,1,0.7444,1,58,138,33,1,,
,,,,,,,,,,,,,11,001,2025-01-02_15h32.01.351,IAT(Formal),2021.2.3,Win32,60.24096386,,,,,,,,,,,,,,,,,,,,,,,,,,,,,,,,,,,,,,,,,,,,,,,,,,,,,热情,e,,,e,1,0.5683,1,59,139,27,1,,
,,,,,,,,,,,,,11,001,2025-01-02_15h32.01.351,IAT(Formal),2021.2.3,Win32,60.24096386,,,,,,,,,,,,,,,,,,,,,,,,,,,,,,,,,,,,,,,,,,,,,,,,,,,,,他的,e,,,e,1,0.5536,1,60,140,57,1,,
,,,,,,,,,,,,,11,001,2025-01-02_15h32.01.351,IAT(Formal),2021.2.3,Win32,60.24096386,,,,,,,,,,,,,,,,,,,,,,,,,,,,,,,,,,,,,,,,,,,,,,,,,,,,,他的,e,,,e,1,0.5162,1,61,141,77,1,,
,,,,,,,,,,,,,11,001,2025-01-02_15h32.01.351,IAT(Formal),2021.2.3,Win32,60.24096386,,,,,,,,,,,,,,,,,,,,,,,,,,,,,,,,,,,,,,,,,,,,,,,,,,,,,细腻,e,,,e,1,0.9319,1,62,142,25,1,,
,,,,,,,,,,,,,11,001,2025-01-02_15h32.01.351,IAT(Formal),2021.2.3,Win32,60.24096386,,,,,,,,,,,,,,,,,,,,,,,,,,,,,,,,,,,,,,,,,,,,,,,,,,,,,愚蠢,i,,,i,1,0.5796,1,63,143,32,1,,
,,,,,,,,,,,,,11,001,2025-01-02_15h32.01.351,IAT(Formal),2021.2.3,Win32,60.24096386,,,,,,,,,,,,,,,,,,,,,,,,,,,,,,,,,,,,,,,,,,,,,,,,,,,,,他人,e,,,e,1,0.655,1,64,144,78,1,,
,,,,,,,,,,,,,11,001,2025-01-02_15h32.01.351,IAT(Formal),2021.2.3,Win32,60.24096386,,,,,,,,,,,,,,,,,,,,,,,,,,,,,,,,,,,,,,,,,,,,,,,,,,,,,卑鄙,i,,,i,1,0.6357,1,65,145,30,1,,
,,,,,,,,,,,,,11,001,2025-01-02_15h32.01.351,IAT(Formal),2021.2.3,Win32,60.24096386,,,,,,,,,,,,,,,,,,,,,,,,,,,,,,,,,,,,,,,,,,,,,,,,,,,,,他人,e,,,e,1,0.7898,1,66,146,58,1,,
,,,,,,,,,,,,,11,001,2025-01-02_15h32.01.351,IAT(Formal),2021.2.3,Win32,60.24096386,,,,,,,,,,,,,,,,,,,,,,,,,,,,,,,,,,,,,,,,,,,,,,,,,,,,,我的,i,,,i,1,0.6023,1,67,147,51,1,,
,,,,,,,,,,,,,11,001,2025-01-02_15h32.01.351,IAT(Formal),2021.2.3,Win32,60.24096386,,,,,,,,,,,,,,,,,,,,,,,,,,,,,,,,,,,,,,,,,,,,,,,,,,,,,冒失,i,,,i,1,0.7729,1,68,148,39,1,,
,,,,,,,,,,,,,11,001,2025-01-02_15h32.01.351,IAT(Formal),2021.2.3,Win32,60.24096386,,,,,,,,,,,,,,,,,,,,,,,,,,,,,,,,,,,,,,,,,,,,,,,,,,,,,活泼,e,,,e,1,0.6671,1,69,149,28,1,,
,,,,,,,,,,,,,11,001,2025-01-02_15h32.01.351,IAT(Formal),2021.2.3,Win32,60.24096386,,,,,,,,,,,,,,,,,,,,,,,,,,,,,,,,,,,,,,,,,,,,,,,,,,,,,自己,i,,,,0,,1,70,150,3,1,,
,,,,,,,,,,,,,11,001,2025-01-02_15h32.01.351,IAT(Formal),2021.2.3,Win32,60.24096386,,,,,,,,,,,,,,,,,,,,,,,,,,,,,,,,,,,,,,,,,,,,,,,,,,,,,凶狠,i,,,i,1,0.6255,1,71,151,42,1,,
,,,,,,,,,,,,,11,001,2025-01-02_15h32.01.351,IAT(Formal),2021.2.3,Win32,60.24096386,,,,,,,,,,,,,,,,,,,,,,,,,,,,,,,,,,,,,,,,,,,,,,,,,,,,,朴实,e,,,e,1,0.6634,1,72,152,24,1,,
,,,,,,,,,,,,,11,001,2025-01-02_15h32.01.351,IAT(Formal),2021.2.3,Win32,60.24096386,,,,,,,,,,,,,,,,,,,,,,,,,,,,,,,,,,,,,,,,,,,,,,,,,,,,,稳重,e,,,e,1,0.7563,1,73,153,21,1,,
,,,,,,,,,,,,,11,001,2025-01-02_15h32.01.351,IAT(Formal),2021.2.3,Win32,60.24096386,,,,,,,,,,,,,,,,,,,,,,,,,,,,,,,,,,,,,,,,,,,,,,,,,,,,,他,e,,,e,1,0.661,1,74,154,5,1,,
,,,,,,,,,,,,,11,001,2025-01-02_15h32.01.351,IAT(Formal),2021.2.3,Win32,60.24096386,,,,,,,,,,,,,,,,,,,,,,,,,,,,,,,,,,,,,,,,,,,,,,,,,,,,,他的,e,,,e,1,0.5377,1,75,155,67,1,,
,,,,,,,,,,,,,11,001,2025-01-02_15h32.01.351,IAT(Formal),2021.2.3,Win32,60.24096386,,,,,,,,,,,,,,,,,,,,,,,,,,,,,,,,,,,,,,,,,,,,,,,,,,,,,其他,e,,,e,1,0.4735,1,76,156,59,1,,
,,,,,,,,,,,,,11,001,2025-01-02_15h32.01.351,IAT(Formal),2021.2.3,Win32,60.24096386,,,,,,,,,,,,,,,,,,,,,,,,,,,,,,,,,,,,,,,,,,,,,,,,,,,,,自卑,i,,,i,1,0.7057,1,77,157,36,1,,
,,,,,,,,,,,,,11,001,2025-01-02_15h32.01.351,IAT(Formal),2021.2.3,Win32,60.24096386,,,,,,,,,,,,,,,,,,,,,,,,,,,,,,,,,,,,,,,,,,,,,,,,,,,,,他,e,,,e,1,0.7014,1,78,158,55,1,,
,,,,,,,,,,,,,11,001,2025-01-02_15h32.01.351,IAT(Formal),2021.2.3,Win32,60.24096386,,,,,,,,,,,,,,,,,,,,,,,,,,,,,,,,,,,,,,,,,,,,,,,,,,,,,诚实,e,,,e,1,0.5487,1,79,159,15,1,,
,,,,,,,,,,,,,11,001,2025-01-02_15h32.01.351,IAT(Formal),2021.2.3,Win32,60.24096386,,,,,,,,,,,,,,,,,,,,,,,,,,,,,,,,,,,,,,,,,,,,,,,,,,,,,,,,,,,,,,,,,space,1.6835