﻿Instruction1.keys,Instruction1.rt,Instruction2.keys,Instruction2.rt,key_resp_iso.keys,key_resp_iso.corr,Practice_01.thisRepN,Practice_01.thisTrialN,Practice_01.thisN,Practice_01.thisIndex,Practice_01.ran,Words,ans,participant,session,date,expName,psychopyVersion,OS,frameRate,key_resp_iso.rt,key_resp_3.keys,key_resp_3.rt,key_resp_ipn.keys,key_resp_ipn.corr,Practice_02.thisRepN,Practice_02.thisTrialN,Practice_02.thisN,Practice_02.thisIndex,Practice_02.ran,Words_ipn,ans_ipn,key_resp_ipn.rt,key_resp_4.keys,key_resp_4.rt,key_resp_t1.keys,key_resp_t1.corr,key_resp_t1.rt,Practice_T1.thisRepN,Practice_T1.thisTrialN,Practice_T1.thisN,Practice_T1.thisIndex,Practice_T1.ran,Words_t1,ans_t1,key_resp_5.keys,key_resp_5.rt,Formal_T1.thisRepN,Formal_T1.thisTrialN,Formal_T1.thisN,Formal_T1.thisIndex,Formal_T1.ran,key_resp_6.keys,key_resp_6.rt,key_resp_iso_reverse.keys,key_resp_iso_reverse.corr,key_resp_iso_reverse.rt,Practice_iso_Reverse.thisRepN,Practice_iso_Reverse.thisTrialN,Practice_iso_Reverse.thisN,Practice_iso_Reverse.thisIndex,Practice_iso_Reverse.ran,key_resp_7.keys,key_resp_7.rt,key_resp_t2_Practice.keys,key_resp_t2_Practice.corr,key_resp_t2_Practice.rt,Practice_t2_Reverse.thisRepN,Practice_t2_Reverse.thisTrialN,Practice_t2_Reverse.thisN,Practice_t2_Reverse.thisIndex,Practice_t2_Reverse.ran,Words_t2,ans_t2,key_resp_8.keys,key_resp_8.rt,key_resp_t2.keys,key_resp_t2.corr,key_resp_t2.rt,Formal_t2_reverse.thisRepN,Formal_t2_reverse.thisTrialN,Formal_t2_reverse.thisN,Formal_t2_reverse.thisIndex,Formal_t2_reverse.ran,key_instruct.keys,key_instruct.rt
space,3.2439,space,11.4822,,0,0,0,0,5,1,他,i,1,001,2025-01-02_16h59.21.146,IAT(Formal),2021.2.3,Win32,163.9344262,,,,,,,,,,,,,,,,,,,,,,,,,,,,,,,,,,,,,,,,,,,,,,,,,,,,,,,,,,,,,,,,,,
,,,,e,1,0,1,1,4,1,俺,e,1,001,2025-01-02_16h59.21.146,IAT(Formal),2021.2.3,Win32,163.9344262,0.5347,,,,,,,,,,,,,,,,,,,,,,,,,,,,,,,,,,,,,,,,,,,,,,,,,,,,,,,,,,,,,,,,,
,,,,i,1,0,2,2,8,1,他人,i,1,001,2025-01-02_16h59.21.146,IAT(Formal),2021.2.3,Win32,163.9344262,0.4587,,,,,,,,,,,,,,,,,,,,,,,,,,,,,,,,,,,,,,,,,,,,,,,,,,,,,,,,,,,,,,,,,
,,,,e,1,0,3,3,2,1,我们,e,1,001,2025-01-02_16h59.21.146,IAT(Formal),2021.2.3,Win32,163.9344262,0.6792,,,,,,,,,,,,,,,,,,,,,,,,,,,,,,,,,,,,,,,,,,,,,,,,,,,,,,,,,,,,,,,,,
,,,,e,1,0,4,4,3,1,自己,e,1,001,2025-01-02_16h59.21.146,IAT(Formal),2021.2.3,Win32,163.9344262,0.4977,,,,,,,,,,,,,,,,,,,,,,,,,,,,,,,,,,,,,,,,,,,,,,,,,,,,,,,,,,,,,,,,,
,,,,e,1,0,5,5,0,1,我,e,1,001,2025-01-02_16h59.21.146,IAT(Formal),2021.2.3,Win32,163.9344262,0.4428,,,,,,,,,,,,,,,,,,,,,,,,,,,,,,,,,,,,,,,,,,,,,,,,,,,,,,,,,,,,,,,,,
,,,,i,1,0,6,6,9,1,其他,i,1,001,2025-01-02_16h59.21.146,IAT(Formal),2021.2.3,Win32,163.9344262,0.4963,,,,,,,,,,,,,,,,,,,,,,,,,,,,,,,,,,,,,,,,,,,,,,,,,,,,,,,,,,,,,,,,,
,,,,i,1,0,7,7,7,1,他的,i,1,001,2025-01-02_16h59.21.146,IAT(Formal),2021.2.3,Win32,163.9344262,0.4088,,,,,,,,,,,,,,,,,,,,,,,,,,,,,,,,,,,,,,,,,,,,,,,,,,,,,,,,,,,,,,,,,
,,,,e,1,0,8,8,1,1,我的,e,1,001,2025-01-02_16h59.21.146,IAT(Formal),2021.2.3,Win32,163.9344262,0.4761,,,,,,,,,,,,,,,,,,,,,,,,,,,,,,,,,,,,,,,,,,,,,,,,,,,,,,,,,,,,,,,,,
,,,,i,1,0,9,9,6,1,他们,i,1,001,2025-01-02_16h59.21.146,IAT(Formal),2021.2.3,Win32,163.9344262,0.4845,,,,,,,,,,,,,,,,,,,,,,,,,,,,,,,,,,,,,,,,,,,,,,,,,,,,,,,,,,,,,,,,,
,,,,,,,,,,,,,1,001,2025-01-02_16h59.21.146,IAT(Formal),2021.2.3,Win32,163.9344262,,space,5.18,,0,0,0,0,11,1,稳重,e,,,,,,,,,,,,,,,,,,,,,,,,,,,,,,,,,,,,,,,,,,,,,,,,,,,,,,
,,,,,,,,,,,,,1,001,2025-01-02_16h59.21.146,IAT(Formal),2021.2.3,Win32,163.9344262,,,,e,1,0,1,1,4,1,乐观,e,0.5616,,,,,,,,,,,,,,,,,,,,,,,,,,,,,,,,,,,,,,,,,,,,,,,,,,,,,
,,,,,,,,,,,,,1,001,2025-01-02_16h59.21.146,IAT(Formal),2021.2.3,Win32,163.9344262,,,,i,1,0,2,2,32,1,凶狠,i,0.437,,,,,,,,,,,,,,,,,,,,,,,,,,,,,,,,,,,,,,,,,,,,,,,,,,,,,
,,,,,,,,,,,,,1,001,2025-01-02_16h59.21.146,IAT(Formal),2021.2.3,Win32,163.9344262,,,,i,1,0,3,3,27,1,傲慢,i,0.6588,,,,,,,,,,,,,,,,,,,,,,,,,,,,,,,,,,,,,,,,,,,,,,,,,,,,,
,,,,,,,,,,,,,1,001,2025-01-02_16h59.21.146,IAT(Formal),2021.2.3,Win32,163.9344262,,,,e,1,0,4,4,1,1,崇高,e,0.7101,,,,,,,,,,,,,,,,,,,,,,,,,,,,,,,,,,,,,,,,,,,,,,,,,,,,,
,,,,,,,,,,,,,1,001,2025-01-02_16h59.21.146,IAT(Formal),2021.2.3,Win32,163.9344262,,,,e,1,0,5,5,16,1,冷静,e,0.9338,,,,,,,,,,,,,,,,,,,,,,,,,,,,,,,,,,,,,,,,,,,,,,,,,,,,,
,,,,,,,,,,,,,1,001,2025-01-02_16h59.21.146,IAT(Formal),2021.2.3,Win32,163.9344262,,,,i,1,0,6,6,28,1,鲁莽,i,0.6416,,,,,,,,,,,,,,,,,,,,,,,,,,,,,,,,,,,,,,,,,,,,,,,,,,,,,
,,,,,,,,,,,,,1,001,2025-01-02_16h59.21.146,IAT(Formal),2021.2.3,Win32,163.9344262,,,,e,1,0,7,7,13,1,公正,e,0.4807,,,,,,,,,,,,,,,,,,,,,,,,,,,,,,,,,,,,,,,,,,,,,,,,,,,,,
,,,,,,,,,,,,,1,001,2025-01-02_16h59.21.146,IAT(Formal),2021.2.3,Win32,163.9344262,,,,i,1,0,8,8,23,1,刻薄,i,0.5311,,,,,,,,,,,,,,,,,,,,,,,,,,,,,,,,,,,,,,,,,,,,,,,,,,,,,
,,,,,,,,,,,,,1,001,2025-01-02_16h59.21.146,IAT(Formal),2021.2.3,Win32,163.9344262,,,,i,1,0,9,9,29,1,冒失,i,0.6789,,,,,,,,,,,,,,,,,,,,,,,,,,,,,,,,,,,,,,,,,,,,,,,,,,,,,
,,,,,,,,,,,,,1,001,2025-01-02_16h59.21.146,IAT(Formal),2021.2.3,Win32,163.9344262,,,,i,1,0,10,10,36,1,野蛮,i,0.52,,,,,,,,,,,,,,,,,,,,,,,,,,,,,,,,,,,,,,,,,,,,,,,,,,,,,
,,,,,,,,,,,,,1,001,2025-01-02_16h59.21.146,IAT(Formal),2021.2.3,Win32,163.9344262,,,,e,1,0,11,11,15,1,细腻,e,0.5182,,,,,,,,,,,,,,,,,,,,,,,,,,,,,,,,,,,,,,,,,,,,,,,,,,,,,
,,,,,,,,,,,,,1,001,2025-01-02_16h59.21.146,IAT(Formal),2021.2.3,Win32,163.9344262,,,,e,1,0,12,12,5,1,诚实,e,0.4653,,,,,,,,,,,,,,,,,,,,,,,,,,,,,,,,,,,,,,,,,,,,,,,,,,,,,
,,,,,,,,,,,,,1,001,2025-01-02_16h59.21.146,IAT(Formal),2021.2.3,Win32,163.9344262,,,,e,1,0,13,13,8,1,勤奋,e,0.4802,,,,,,,,,,,,,,,,,,,,,,,,,,,,,,,,,,,,,,,,,,,,,,,,,,,,,
,,,,,,,,,,,,,1,001,2025-01-02_16h59.21.146,IAT(Formal),2021.2.3,Win32,163.9344262,,,,e,1,0,14,14,17,1,热情,e,0.4548,,,,,,,,,,,,,,,,,,,,,,,,,,,,,,,,,,,,,,,,,,,,,,,,,,,,,
,,,,,,,,,,,,,1,001,2025-01-02_16h59.21.146,IAT(Formal),2021.2.3,Win32,163.9344262,,,,e,1,0,15,15,10,1,认真,e,0.4101,,,,,,,,,,,,,,,,,,,,,,,,,,,,,,,,,,,,,,,,,,,,,,,,,,,,,
,,,,,,,,,,,,,1,001,2025-01-02_16h59.21.146,IAT(Formal),2021.2.3,Win32,163.9344262,,,,e,1,0,16,16,14,1,朴实,e,0.4785,,,,,,,,,,,,,,,,,,,,,,,,,,,,,,,,,,,,,,,,,,,,,,,,,,,,,
,,,,,,,,,,,,,1,001,2025-01-02_16h59.21.146,IAT(Formal),2021.2.3,Win32,163.9344262,,,,e,1,0,17,17,3,1,杰出,e,0.5758,,,,,,,,,,,,,,,,,,,,,,,,,,,,,,,,,,,,,,,,,,,,,,,,,,,,,
,,,,,,,,,,,,,1,001,2025-01-02_16h59.21.146,IAT(Formal),2021.2.3,Win32,163.9344262,,,,i,1,0,18,18,33,1,自私,i,0.6497,,,,,,,,,,,,,,,,,,,,,,,,,,,,,,,,,,,,,,,,,,,,,,,,,,,,,
,,,,,,,,,,,,,1,001,2025-01-02_16h59.21.146,IAT(Formal),2021.2.3,Win32,163.9344262,,,,i,0,0,19,19,12,1,无私,e,0.61,,,,,,,,,,,,,,,,,,,,,,,,,,,,,,,,,,,,,,,,,,,,,,,,,,,,,
,,,,,,,,,,,,,1,001,2025-01-02_16h59.21.146,IAT(Formal),2021.2.3,Win32,163.9344262,,,,i,1,0,20,20,21,1,虚伪,i,0.6145,,,,,,,,,,,,,,,,,,,,,,,,,,,,,,,,,,,,,,,,,,,,,,,,,,,,,
,,,,,,,,,,,,,1,001,2025-01-02_16h59.21.146,IAT(Formal),2021.2.3,Win32,163.9344262,,,,e,0,0,21,21,38,1,轻率,i,0.5062,,,,,,,,,,,,,,,,,,,,,,,,,,,,,,,,,,,,,,,,,,,,,,,,,,,,,
,,,,,,,,,,,,,1,001,2025-01-02_16h59.21.146,IAT(Formal),2021.2.3,Win32,163.9344262,,,,e,1,0,22,22,0,1,优秀,e,0.5423,,,,,,,,,,,,,,,,,,,,,,,,,,,,,,,,,,,,,,,,,,,,,,,,,,,,,
,,,,,,,,,,,,,1,001,2025-01-02_16h59.21.146,IAT(Formal),2021.2.3,Win32,163.9344262,,,,e,1,0,23,23,2,1,聪明,e,0.4776,,,,,,,,,,,,,,,,,,,,,,,,,,,,,,,,,,,,,,,,,,,,,,,,,,,,,
,,,,,,,,,,,,,1,001,2025-01-02_16h59.21.146,IAT(Formal),2021.2.3,Win32,163.9344262,,,,e,1,0,24,24,6,1,正直,e,0.4974,,,,,,,,,,,,,,,,,,,,,,,,,,,,,,,,,,,,,,,,,,,,,,,,,,,,,
,,,,,,,,,,,,,1,001,2025-01-02_16h59.21.146,IAT(Formal),2021.2.3,Win32,163.9344262,,,,i,1,0,25,25,34,1,暴躁,i,0.4717,,,,,,,,,,,,,,,,,,,,,,,,,,,,,,,,,,,,,,,,,,,,,,,,,,,,,
,,,,,,,,,,,,,1,001,2025-01-02_16h59.21.146,IAT(Formal),2021.2.3,Win32,163.9344262,,,,i,1,0,26,26,39,1,下贱,i,0.4749,,,,,,,,,,,,,,,,,,,,,,,,,,,,,,,,,,,,,,,,,,,,,,,,,,,,,
,,,,,,,,,,,,,1,001,2025-01-02_16h59.21.146,IAT(Formal),2021.2.3,Win32,163.9344262,,,,e,1,0,27,27,19,1,诚恳,e,0.4833,,,,,,,,,,,,,,,,,,,,,,,,,,,,,,,,,,,,,,,,,,,,,,,,,,,,,
,,,,,,,,,,,,,1,001,2025-01-02_16h59.21.146,IAT(Formal),2021.2.3,Win32,163.9344262,,,,i,1,0,28,28,22,1,愚蠢,i,0.5177,,,,,,,,,,,,,,,,,,,,,,,,,,,,,,,,,,,,,,,,,,,,,,,,,,,,,
,,,,,,,,,,,,,1,001,2025-01-02_16h59.21.146,IAT(Formal),2021.2.3,Win32,163.9344262,,,,i,1,0,29,29,35,1,猖狂,i,0.6166,,,,,,,,,,,,,,,,,,,,,,,,,,,,,,,,,,,,,,,,,,,,,,,,,,,,,
,,,,,,,,,,,,,1,001,2025-01-02_16h59.21.146,IAT(Formal),2021.2.3,Win32,163.9344262,,,,i,1,0,30,30,24,1,悲观,i,0.5278,,,,,,,,,,,,,,,,,,,,,,,,,,,,,,,,,,,,,,,,,,,,,,,,,,,,,
,,,,,,,,,,,,,1,001,2025-01-02_16h59.21.146,IAT(Formal),2021.2.3,Win32,163.9344262,,,,i,1,0,31,31,26,1,自卑,i,0.7621,,,,,,,,,,,,,,,,,,,,,,,,,,,,,,,,,,,,,,,,,,,,,,,,,,,,,
,,,,,,,,,,,,,1,001,2025-01-02_16h59.21.146,IAT(Formal),2021.2.3,Win32,163.9344262,,,,i,1,0,32,32,20,1,卑鄙,i,0.5421,,,,,,,,,,,,,,,,,,,,,,,,,,,,,,,,,,,,,,,,,,,,,,,,,,,,,
,,,,,,,,,,,,,1,001,2025-01-02_16h59.21.146,IAT(Formal),2021.2.3,Win32,163.9344262,,,,e,1,0,33,33,18,1,活泼,e,0.4336,,,,,,,,,,,,,,,,,,,,,,,,,,,,,,,,,,,,,,,,,,,,,,,,,,,,,
,,,,,,,,,,,,,1,001,2025-01-02_16h59.21.146,IAT(Formal),2021.2.3,Win32,163.9344262,,,,i,1,0,34,34,25,1,消极,i,0.6184,,,,,,,,,,,,,,,,,,,,,,,,,,,,,,,,,,,,,,,,,,,,,,,,,,,,,
,,,,,,,,,,,,,1,001,2025-01-02_16h59.21.146,IAT(Formal),2021.2.3,Win32,163.9344262,,,,e,1,0,35,35,7,1,勇敢,e,0.4734,,,,,,,,,,,,,,,,,,,,,,,,,,,,,,,,,,,,,,,,,,,,,,,,,,,,,
,,,,,,,,,,,,,1,001,2025-01-02_16h59.21.146,IAT(Formal),2021.2.3,Win32,163.9344262,,,,i,1,0,36,36,37,1,固执,i,0.5458,,,,,,,,,,,,,,,,,,,,,,,,,,,,,,,,,,,,,,,,,,,,,,,,,,,,,
,,,,,,,,,,,,,1,001,2025-01-02_16h59.21.146,IAT(Formal),2021.2.3,Win32,163.9344262,,,,i,1,0,37,37,30,1,执拗,i,0.5124,,,,,,,,,,,,,,,,,,,,,,,,,,,,,,,,,,,,,,,,,,,,,,,,,,,,,
,,,,,,,,,,,,,1,001,2025-01-02_16h59.21.146,IAT(Formal),2021.2.3,Win32,163.9344262,,,,i,1,0,38,38,31,1,散漫,i,0.558,,,,,,,,,,,,,,,,,,,,,,,,,,,,,,,,,,,,,,,,,,,,,,,,,,,,,
,,,,,,,,,,,,,1,001,2025-01-02_16h59.21.146,IAT(Formal),2021.2.3,Win32,163.9344262,,,,e,1,0,39,39,9,1,机智,e,0.6176,,,,,,,,,,,,,,,,,,,,,,,,,,,,,,,,,,,,,,,,,,,,,,,,,,,,,
,,,,,,,,,,,,,1,001,2025-01-02_16h59.21.146,IAT(Formal),2021.2.3,Win32,163.9344262,,,,,,,,,,,,,,space,9.8878,i,1,1.0794,0,0,0,33,1,刻薄,i,,,,,,,,,,,,,,,,,,,,,,,,,,,,,,,,,,,,,,,,,
,,,,,,,,,,,,,1,001,2025-01-02_16h59.21.146,IAT(Formal),2021.2.3,Win32,163.9344262,,,,,,,,,,,,,,,,i,1,0.4908,0,1,1,75,1,他,i,,,,,,,,,,,,,,,,,,,,,,,,,,,,,,,,,,,,,,,,,
,,,,,,,,,,,,,1,001,2025-01-02_16h59.21.146,IAT(Formal),2021.2.3,Win32,163.9344262,,,,,,,,,,,,,,,,e,1,0.5772,0,2,2,10,1,优秀,e,,,,,,,,,,,,,,,,,,,,,,,,,,,,,,,,,,,,,,,,,
,,,,,,,,,,,,,1,001,2025-01-02_16h59.21.146,IAT(Formal),2021.2.3,Win32,163.9344262,,,,,,,,,,,,,,,,e,1,0.3624,0,3,3,62,1,我们,e,,,,,,,,,,,,,,,,,,,,,,,,,,,,,,,,,,,,,,,,,
,,,,,,,,,,,,,1,001,2025-01-02_16h59.21.146,IAT(Formal),2021.2.3,Win32,163.9344262,,,,,,,,,,,,,,,,i,1,0.4552,0,4,4,42,1,凶狠,i,,,,,,,,,,,,,,,,,,,,,,,,,,,,,,,,,,,,,,,,,
,,,,,,,,,,,,,1,001,2025-01-02_16h59.21.146,IAT(Formal),2021.2.3,Win32,163.9344262,,,,,,,,,,,,,,,,i,1,0.4347,0,5,5,6,1,他们,i,,,,,,,,,,,,,,,,,,,,,,,,,,,,,,,,,,,,,,,,,
,,,,,,,,,,,,,1,001,2025-01-02_16h59.21.146,IAT(Formal),2021.2.3,Win32,163.9344262,,,,,,,,,,,,,,,,i,1,0.4705,0,6,6,8,1,他人,i,,,,,,,,,,,,,,,,,,,,,,,,,,,,,,,,,,,,,,,,,
,,,,,,,,,,,,,1,001,2025-01-02_16h59.21.146,IAT(Formal),2021.2.3,Win32,163.9344262,,,,,,,,,,,,,,,,e,1,0.5487,0,7,7,3,1,自己,e,,,,,,,,,,,,,,,,,,,,,,,,,,,,,,,,,,,,,,,,,
,,,,,,,,,,,,,1,001,2025-01-02_16h59.21.146,IAT(Formal),2021.2.3,Win32,163.9344262,,,,,,,,,,,,,,,,i,1,0.6125,0,8,8,58,1,他人,i,,,,,,,,,,,,,,,,,,,,,,,,,,,,,,,,,,,,,,,,,
,,,,,,,,,,,,,1,001,2025-01-02_16h59.21.146,IAT(Formal),2021.2.3,Win32,163.9344262,,,,,,,,,,,,,,,,i,1,0.4963,0,9,9,65,1,他,i,,,,,,,,,,,,,,,,,,,,,,,,,,,,,,,,,,,,,,,,,
,,,,,,,,,,,,,1,001,2025-01-02_16h59.21.146,IAT(Formal),2021.2.3,Win32,163.9344262,,,,,,,,,,,,,,,,e,1,0.4259,0,10,10,12,1,聪明,e,,,,,,,,,,,,,,,,,,,,,,,,,,,,,,,,,,,,,,,,,
,,,,,,,,,,,,,1,001,2025-01-02_16h59.21.146,IAT(Formal),2021.2.3,Win32,163.9344262,,,,,,,,,,,,,,,,e,1,0.5617,0,11,11,4,1,俺,e,,,,,,,,,,,,,,,,,,,,,,,,,,,,,,,,,,,,,,,,,
,,,,,,,,,,,,,1,001,2025-01-02_16h59.21.146,IAT(Formal),2021.2.3,Win32,163.9344262,,,,,,,,,,,,,,,,e,1,0.5328,0,12,12,21,1,稳重,e,,,,,,,,,,,,,,,,,,,,,,,,,,,,,,,,,,,,,,,,,
,,,,,,,,,,,,,1,001,2025-01-02_16h59.21.146,IAT(Formal),2021.2.3,Win32,163.9344262,,,,,,,,,,,,,,,,i,1,0.5917,0,13,13,57,1,他的,i,,,,,,,,,,,,,,,,,,,,,,,,,,,,,,,,,,,,,,,,,
,,,,,,,,,,,,,1,001,2025-01-02_16h59.21.146,IAT(Formal),2021.2.3,Win32,163.9344262,,,,,,,,,,,,,,,,i,1,0.4231,0,14,14,5,1,他,i,,,,,,,,,,,,,,,,,,,,,,,,,,,,,,,,,,,,,,,,,
,,,,,,,,,,,,,1,001,2025-01-02_16h59.21.146,IAT(Formal),2021.2.3,Win32,163.9344262,,,,,,,,,,,,,,,,e,1,0.5131,0,15,15,23,1,公正,e,,,,,,,,,,,,,,,,,,,,,,,,,,,,,,,,,,,,,,,,,
,,,,,,,,,,,,,1,001,2025-01-02_16h59.21.146,IAT(Formal),2021.2.3,Win32,163.9344262,,,,,,,,,,,,,,,,e,0,0.4441,0,16,16,68,1,他人,i,,,,,,,,,,,,,,,,,,,,,,,,,,,,,,,,,,,,,,,,,
,,,,,,,,,,,,,1,001,2025-01-02_16h59.21.146,IAT(Formal),2021.2.3,Win32,163.9344262,,,,,,,,,,,,,,,,i,1,0.5469,0,17,17,56,1,他们,i,,,,,,,,,,,,,,,,,,,,,,,,,,,,,,,,,,,,,,,,,
,,,,,,,,,,,,,1,001,2025-01-02_16h59.21.146,IAT(Formal),2021.2.3,Win32,163.9344262,,,,,,,,,,,,,,,,e,1,0.4903,0,18,18,50,1,我,e,,,,,,,,,,,,,,,,,,,,,,,,,,,,,,,,,,,,,,,,,
,,,,,,,,,,,,,1,001,2025-01-02_16h59.21.146,IAT(Formal),2021.2.3,Win32,163.9344262,,,,,,,,,,,,,,,,e,1,0.512,0,19,19,29,1,诚恳,e,,,,,,,,,,,,,,,,,,,,,,,,,,,,,,,,,,,,,,,,,
,,,,,,,,,,,,,1,001,2025-01-02_16h59.21.146,IAT(Formal),2021.2.3,Win32,163.9344262,,,,,,,,,,,,,,,,e,1,0.6125,0,20,20,73,1,自己,e,,,,,,,,,,,,,,,,,,,,,,,,,,,,,,,,,,,,,,,,,
,,,,,,,,,,,,,1,001,2025-01-02_16h59.21.146,IAT(Formal),2021.2.3,Win32,163.9344262,,,,,,,,,,,,,,,,i,1,0.5278,0,21,21,44,1,暴躁,i,,,,,,,,,,,,,,,,,,,,,,,,,,,,,,,,,,,,,,,,,
,,,,,,,,,,,,,1,001,2025-01-02_16h59.21.146,IAT(Formal),2021.2.3,Win32,163.9344262,,,,,,,,,,,,,,,,e,1,0.498,0,22,22,70,1,我,e,,,,,,,,,,,,,,,,,,,,,,,,,,,,,,,,,,,,,,,,,
,,,,,,,,,,,,,1,001,2025-01-02_16h59.21.146,IAT(Formal),2021.2.3,Win32,163.9344262,,,,,,,,,,,,,,,,i,1,0.5782,0,23,23,69,1,其他,i,,,,,,,,,,,,,,,,,,,,,,,,,,,,,,,,,,,,,,,,,
,,,,,,,,,,,,,1,001,2025-01-02_16h59.21.146,IAT(Formal),2021.2.3,Win32,163.9344262,,,,,,,,,,,,,,,,e,1,0.5071,0,24,24,19,1,机智,e,,,,,,,,,,,,,,,,,,,,,,,,,,,,,,,,,,,,,,,,,
,,,,,,,,,,,,,1,001,2025-01-02_16h59.21.146,IAT(Formal),2021.2.3,Win32,163.9344262,,,,,,,,,,,,,,,,e,1,0.5118,0,25,25,53,1,自己,e,,,,,,,,,,,,,,,,,,,,,,,,,,,,,,,,,,,,,,,,,
,,,,,,,,,,,,,1,001,2025-01-02_16h59.21.146,IAT(Formal),2021.2.3,Win32,163.9344262,,,,,,,,,,,,,,,,i,1,0.5625,0,26,26,36,1,自卑,i,,,,,,,,,,,,,,,,,,,,,,,,,,,,,,,,,,,,,,,,,
,,,,,,,,,,,,,1,001,2025-01-02_16h59.21.146,IAT(Formal),2021.2.3,Win32,163.9344262,,,,,,,,,,,,,,,,i,1,0.6474,0,27,27,47,1,固执,i,,,,,,,,,,,,,,,,,,,,,,,,,,,,,,,,,,,,,,,,,
,,,,,,,,,,,,,1,001,2025-01-02_16h59.21.146,IAT(Formal),2021.2.3,Win32,163.9344262,,,,,,,,,,,,,,,,e,1,0.5281,0,28,28,26,1,冷静,e,,,,,,,,,,,,,,,,,,,,,,,,,,,,,,,,,,,,,,,,,
,,,,,,,,,,,,,1,001,2025-01-02_16h59.21.146,IAT(Formal),2021.2.3,Win32,163.9344262,,,,,,,,,,,,,,,,e,1,0.5778,0,29,29,24,1,朴实,e,,,,,,,,,,,,,,,,,,,,,,,,,,,,,,,,,,,,,,,,,
,,,,,,,,,,,,,1,001,2025-01-02_16h59.21.146,IAT(Formal),2021.2.3,Win32,163.9344262,,,,,,,,,,,,,,,,e,1,0.8196,0,30,30,14,1,乐观,e,,,,,,,,,,,,,,,,,,,,,,,,,,,,,,,,,,,,,,,,,
,,,,,,,,,,,,,1,001,2025-01-02_16h59.21.146,IAT(Formal),2021.2.3,Win32,163.9344262,,,,,,,,,,,,,,,,i,1,0.5775,0,31,31,46,1,野蛮,i,,,,,,,,,,,,,,,,,,,,,,,,,,,,,,,,,,,,,,,,,
,,,,,,,,,,,,,1,001,2025-01-02_16h59.21.146,IAT(Formal),2021.2.3,Win32,163.9344262,,,,,,,,,,,,,,,,i,1,0.6513,0,32,32,9,1,其他,i,,,,,,,,,,,,,,,,,,,,,,,,,,,,,,,,,,,,,,,,,
,,,,,,,,,,,,,1,001,2025-01-02_16h59.21.146,IAT(Formal),2021.2.3,Win32,163.9344262,,,,,,,,,,,,,,,,i,1,0.5232,0,33,33,30,1,卑鄙,i,,,,,,,,,,,,,,,,,,,,,,,,,,,,,,,,,,,,,,,,,
,,,,,,,,,,,,,1,001,2025-01-02_16h59.21.146,IAT(Formal),2021.2.3,Win32,163.9344262,,,,,,,,,,,,,,,,e,1,0.4831,0,34,34,16,1,正直,e,,,,,,,,,,,,,,,,,,,,,,,,,,,,,,,,,,,,,,,,,
,,,,,,,,,,,,,1,001,2025-01-02_16h59.21.146,IAT(Formal),2021.2.3,Win32,163.9344262,,,,,,,,,,,,,,,,e,1,0.4417,0,35,35,61,1,我的,e,,,,,,,,,,,,,,,,,,,,,,,,,,,,,,,,,,,,,,,,,
,,,,,,,,,,,,,1,001,2025-01-02_16h59.21.146,IAT(Formal),2021.2.3,Win32,163.9344262,,,,,,,,,,,,,,,,e,1,0.4636,0,36,36,51,1,我的,e,,,,,,,,,,,,,,,,,,,,,,,,,,,,,,,,,,,,,,,,,
,,,,,,,,,,,,,1,001,2025-01-02_16h59.21.146,IAT(Formal),2021.2.3,Win32,163.9344262,,,,,,,,,,,,,,,,i,1,0.6434,0,37,37,67,1,他的,i,,,,,,,,,,,,,,,,,,,,,,,,,,,,,,,,,,,,,,,,,
,,,,,,,,,,,,,1,001,2025-01-02_16h59.21.146,IAT(Formal),2021.2.3,Win32,163.9344262,,,,,,,,,,,,,,,,e,1,0.5457,0,38,38,63,1,自己,e,,,,,,,,,,,,,,,,,,,,,,,,,,,,,,,,,,,,,,,,,
,,,,,,,,,,,,,1,001,2025-01-02_16h59.21.146,IAT(Formal),2021.2.3,Win32,163.9344262,,,,,,,,,,,,,,,,e,1,0.5455,0,39,39,72,1,我们,e,,,,,,,,,,,,,,,,,,,,,,,,,,,,,,,,,,,,,,,,,
,,,,,,,,,,,,,1,001,2025-01-02_16h59.21.146,IAT(Formal),2021.2.3,Win32,163.9344262,,,,,,,,,,,,,,,,i,1,0.8171,0,40,40,48,1,轻率,i,,,,,,,,,,,,,,,,,,,,,,,,,,,,,,,,,,,,,,,,,
,,,,,,,,,,,,,1,001,2025-01-02_16h59.21.146,IAT(Formal),2021.2.3,Win32,163.9344262,,,,,,,,,,,,,,,,e,1,0.4468,0,41,41,52,1,我们,e,,,,,,,,,,,,,,,,,,,,,,,,,,,,,,,,,,,,,,,,,
,,,,,,,,,,,,,1,001,2025-01-02_16h59.21.146,IAT(Formal),2021.2.3,Win32,163.9344262,,,,,,,,,,,,,,,,i,1,0.6074,0,42,42,37,1,傲慢,i,,,,,,,,,,,,,,,,,,,,,,,,,,,,,,,,,,,,,,,,,
,,,,,,,,,,,,,1,001,2025-01-02_16h59.21.146,IAT(Formal),2021.2.3,Win32,163.9344262,,,,,,,,,,,,,,,,i,1,0.5856,0,43,43,32,1,愚蠢,i,,,,,,,,,,,,,,,,,,,,,,,,,,,,,,,,,,,,,,,,,
,,,,,,,,,,,,,1,001,2025-01-02_16h59.21.146,IAT(Formal),2021.2.3,Win32,163.9344262,,,,,,,,,,,,,,,,e,1,0.4386,0,44,44,20,1,认真,e,,,,,,,,,,,,,,,,,,,,,,,,,,,,,,,,,,,,,,,,,
,,,,,,,,,,,,,1,001,2025-01-02_16h59.21.146,IAT(Formal),2021.2.3,Win32,163.9344262,,,,,,,,,,,,,,,,i,1,0.5811,0,45,45,39,1,冒失,i,,,,,,,,,,,,,,,,,,,,,,,,,,,,,,,,,,,,,,,,,
,,,,,,,,,,,,,1,001,2025-01-02_16h59.21.146,IAT(Formal),2021.2.3,Win32,163.9344262,,,,,,,,,,,,,,,,i,1,0.5749,0,46,46,78,1,他人,i,,,,,,,,,,,,,,,,,,,,,,,,,,,,,,,,,,,,,,,,,
,,,,,,,,,,,,,1,001,2025-01-02_16h59.21.146,IAT(Formal),2021.2.3,Win32,163.9344262,,,,,,,,,,,,,,,,e,1,0.5116,0,47,47,17,1,勇敢,e,,,,,,,,,,,,,,,,,,,,,,,,,,,,,,,,,,,,,,,,,
,,,,,,,,,,,,,1,001,2025-01-02_16h59.21.146,IAT(Formal),2021.2.3,Win32,163.9344262,,,,,,,,,,,,,,,,i,1,0.4833,0,48,48,41,1,散漫,i,,,,,,,,,,,,,,,,,,,,,,,,,,,,,,,,,,,,,,,,,
,,,,,,,,,,,,,1,001,2025-01-02_16h59.21.146,IAT(Formal),2021.2.3,Win32,163.9344262,,,,,,,,,,,,,,,,e,1,0.5767,0,49,49,15,1,诚实,e,,,,,,,,,,,,,,,,,,,,,,,,,,,,,,,,,,,,,,,,,
,,,,,,,,,,,,,1,001,2025-01-02_16h59.21.146,IAT(Formal),2021.2.3,Win32,163.9344262,,,,,,,,,,,,,,,,e,1,0.426,0,50,50,0,1,我,e,,,,,,,,,,,,,,,,,,,,,,,,,,,,,,,,,,,,,,,,,
,,,,,,,,,,,,,1,001,2025-01-02_16h59.21.146,IAT(Formal),2021.2.3,Win32,163.9344262,,,,,,,,,,,,,,,,i,1,0.5626,0,51,51,34,1,悲观,i,,,,,,,,,,,,,,,,,,,,,,,,,,,,,,,,,,,,,,,,,
,,,,,,,,,,,,,1,001,2025-01-02_16h59.21.146,IAT(Formal),2021.2.3,Win32,163.9344262,,,,,,,,,,,,,,,,i,1,0.7681,0,52,52,77,1,他的,i,,,,,,,,,,,,,,,,,,,,,,,,,,,,,,,,,,,,,,,,,
,,,,,,,,,,,,,1,001,2025-01-02_16h59.21.146,IAT(Formal),2021.2.3,Win32,163.9344262,,,,,,,,,,,,,,,,i,1,0.5246,0,53,53,59,1,其他,i,,,,,,,,,,,,,,,,,,,,,,,,,,,,,,,,,,,,,,,,,
,,,,,,,,,,,,,1,001,2025-01-02_16h59.21.146,IAT(Formal),2021.2.3,Win32,163.9344262,,,,,,,,,,,,,,,,i,1,0.5797,0,54,54,31,1,虚伪,i,,,,,,,,,,,,,,,,,,,,,,,,,,,,,,,,,,,,,,,,,
,,,,,,,,,,,,,1,001,2025-01-02_16h59.21.146,IAT(Formal),2021.2.3,Win32,163.9344262,,,,,,,,,,,,,,,,e,1,0.5123,0,55,55,71,1,我的,e,,,,,,,,,,,,,,,,,,,,,,,,,,,,,,,,,,,,,,,,,
,,,,,,,,,,,,,1,001,2025-01-02_16h59.21.146,IAT(Formal),2021.2.3,Win32,163.9344262,,,,,,,,,,,,,,,,e,1,0.6985,0,56,56,25,1,细腻,e,,,,,,,,,,,,,,,,,,,,,,,,,,,,,,,,,,,,,,,,,
,,,,,,,,,,,,,1,001,2025-01-02_16h59.21.146,IAT(Formal),2021.2.3,Win32,163.9344262,,,,,,,,,,,,,,,,e,1,0.8833,0,57,57,74,1,俺,e,,,,,,,,,,,,,,,,,,,,,,,,,,,,,,,,,,,,,,,,,
,,,,,,,,,,,,,1,001,2025-01-02_16h59.21.146,IAT(Formal),2021.2.3,Win32,163.9344262,,,,,,,,,,,,,,,,e,1,0.5588,0,58,58,13,1,杰出,e,,,,,,,,,,,,,,,,,,,,,,,,,,,,,,,,,,,,,,,,,
,,,,,,,,,,,,,1,001,2025-01-02_16h59.21.146,IAT(Formal),2021.2.3,Win32,163.9344262,,,,,,,,,,,,,,,,e,1,0.442,0,59,59,2,1,我们,e,,,,,,,,,,,,,,,,,,,,,,,,,,,,,,,,,,,,,,,,,
,,,,,,,,,,,,,1,001,2025-01-02_16h59.21.146,IAT(Formal),2021.2.3,Win32,163.9344262,,,,,,,,,,,,,,,,e,1,0.4025,0,60,60,1,1,我的,e,,,,,,,,,,,,,,,,,,,,,,,,,,,,,,,,,,,,,,,,,
,,,,,,,,,,,,,1,001,2025-01-02_16h59.21.146,IAT(Formal),2021.2.3,Win32,163.9344262,,,,,,,,,,,,,,,,i,1,0.4584,0,61,61,45,1,猖狂,i,,,,,,,,,,,,,,,,,,,,,,,,,,,,,,,,,,,,,,,,,
,,,,,,,,,,,,,1,001,2025-01-02_16h59.21.146,IAT(Formal),2021.2.3,Win32,163.9344262,,,,,,,,,,,,,,,,i,1,0.717,0,62,62,55,1,他,i,,,,,,,,,,,,,,,,,,,,,,,,,,,,,,,,,,,,,,,,,
,,,,,,,,,,,,,1,001,2025-01-02_16h59.21.146,IAT(Formal),2021.2.3,Win32,163.9344262,,,,,,,,,,,,,,,,e,1,0.5857,0,63,63,28,1,活泼,e,,,,,,,,,,,,,,,,,,,,,,,,,,,,,,,,,,,,,,,,,
,,,,,,,,,,,,,1,001,2025-01-02_16h59.21.146,IAT(Formal),2021.2.3,Win32,163.9344262,,,,,,,,,,,,,,,,i,1,0.5434,0,64,64,49,1,下贱,i,,,,,,,,,,,,,,,,,,,,,,,,,,,,,,,,,,,,,,,,,
,,,,,,,,,,,,,1,001,2025-01-02_16h59.21.146,IAT(Formal),2021.2.3,Win32,163.9344262,,,,,,,,,,,,,,,,i,1,0.4398,0,65,65,66,1,他们,i,,,,,,,,,,,,,,,,,,,,,,,,,,,,,,,,,,,,,,,,,
,,,,,,,,,,,,,1,001,2025-01-02_16h59.21.146,IAT(Formal),2021.2.3,Win32,163.9344262,,,,,,,,,,,,,,,,i,0,0.5635,0,66,66,22,1,无私,e,,,,,,,,,,,,,,,,,,,,,,,,,,,,,,,,,,,,,,,,,
,,,,,,,,,,,,,1,001,2025-01-02_16h59.21.146,IAT(Formal),2021.2.3,Win32,163.9344262,,,,,,,,,,,,,,,,i,1,0.6241,0,67,67,38,1,鲁莽,i,,,,,,,,,,,,,,,,,,,,,,,,,,,,,,,,,,,,,,,,,
,,,,,,,,,,,,,1,001,2025-01-02_16h59.21.146,IAT(Formal),2021.2.3,Win32,163.9344262,,,,,,,,,,,,,,,,e,1,0.4807,0,68,68,27,1,热情,e,,,,,,,,,,,,,,,,,,,,,,,,,,,,,,,,,,,,,,,,,
,,,,,,,,,,,,,1,001,2025-01-02_16h59.21.146,IAT(Formal),2021.2.3,Win32,163.9344262,,,,,,,,,,,,,,,,i,1,0.8276,0,69,69,40,1,执拗,i,,,,,,,,,,,,,,,,,,,,,,,,,,,,,,,,,,,,,,,,,
,,,,,,,,,,,,,1,001,2025-01-02_16h59.21.146,IAT(Formal),2021.2.3,Win32,163.9344262,,,,,,,,,,,,,,,,e,1,0.5883,0,70,70,11,1,崇高,e,,,,,,,,,,,,,,,,,,,,,,,,,,,,,,,,,,,,,,,,,
,,,,,,,,,,,,,1,001,2025-01-02_16h59.21.146,IAT(Formal),2021.2.3,Win32,163.9344262,,,,,,,,,,,,,,,,i,1,0.6895,0,71,71,76,1,他们,i,,,,,,,,,,,,,,,,,,,,,,,,,,,,,,,,,,,,,,,,,
,,,,,,,,,,,,,1,001,2025-01-02_16h59.21.146,IAT(Formal),2021.2.3,Win32,163.9344262,,,,,,,,,,,,,,,,e,1,0.7513,0,72,72,64,1,俺,e,,,,,,,,,,,,,,,,,,,,,,,,,,,,,,,,,,,,,,,,,
,,,,,,,,,,,,,1,001,2025-01-02_16h59.21.146,IAT(Formal),2021.2.3,Win32,163.9344262,,,,,,,,,,,,,,,,i,1,0.6081,0,73,73,35,1,消极,i,,,,,,,,,,,,,,,,,,,,,,,,,,,,,,,,,,,,,,,,,
,,,,,,,,,,,,,1,001,2025-01-02_16h59.21.146,IAT(Formal),2021.2.3,Win32,163.9344262,,,,,,,,,,,,,,,,e,1,0.611,0,74,74,18,1,勤奋,e,,,,,,,,,,,,,,,,,,,,,,,,,,,,,,,,,,,,,,,,,
,,,,,,,,,,,,,1,001,2025-01-02_16h59.21.146,IAT(Formal),2021.2.3,Win32,163.9344262,,,,,,,,,,,,,,,,i,1,0.6645,0,75,75,79,1,其他,i,,,,,,,,,,,,,,,,,,,,,,,,,,,,,,,,,,,,,,,,,
,,,,,,,,,,,,,1,001,2025-01-02_16h59.21.146,IAT(Formal),2021.2.3,Win32,163.9344262,,,,,,,,,,,,,,,,e,1,0.6066,0,76,76,60,1,我,e,,,,,,,,,,,,,,,,,,,,,,,,,,,,,,,,,,,,,,,,,
,,,,,,,,,,,,,1,001,2025-01-02_16h59.21.146,IAT(Formal),2021.2.3,Win32,163.9344262,,,,,,,,,,,,,,,,e,1,0.6337,0,77,77,54,1,俺,e,,,,,,,,,,,,,,,,,,,,,,,,,,,,,,,,,,,,,,,,,
,,,,,,,,,,,,,1,001,2025-01-02_16h59.21.146,IAT(Formal),2021.2.3,Win32,163.9344262,,,,,,,,,,,,,,,,i,1,0.8359,0,78,78,43,1,自私,i,,,,,,,,,,,,,,,,,,,,,,,,,,,,,,,,,,,,,,,,,
,,,,,,,,,,,,,1,001,2025-01-02_16h59.21.146,IAT(Formal),2021.2.3,Win32,163.9344262,,,,,,,,,,,,,,,,i,1,0.8246,0,79,79,7,1,他的,i,,,,,,,,,,,,,,,,,,,,,,,,,,,,,,,,,,,,,,,,,
,,,,,,,,,,,,,1,001,2025-01-02_16h59.21.146,IAT(Formal),2021.2.3,Win32,163.9344262,,,,,,,,,,,,,,,,i,1,0.6592,,,,,,下贱,i,space,18.2228,0,0,0,49,1,,,,,,,,,,,,,,,,,,,,,,,,,,,,,,,,,,
,,,,,,,,,,,,,1,001,2025-01-02_16h59.21.146,IAT(Formal),2021.2.3,Win32,163.9344262,,,,,,,,,,,,,,,,i,1,0.5591,,,,,,其他,i,,,0,1,1,9,1,,,,,,,,,,,,,,,,,,,,,,,,,,,,,,,,,,
,,,,,,,,,,,,,1,001,2025-01-02_16h59.21.146,IAT(Formal),2021.2.3,Win32,163.9344262,,,,,,,,,,,,,,,,i,1,0.5462,,,,,,自卑,i,,,0,2,2,36,1,,,,,,,,,,,,,,,,,,,,,,,,,,,,,,,,,,
,,,,,,,,,,,,,1,001,2025-01-02_16h59.21.146,IAT(Formal),2021.2.3,Win32,163.9344262,,,,,,,,,,,,,,,,i,1,0.514,,,,,,鲁莽,i,,,0,3,3,38,1,,,,,,,,,,,,,,,,,,,,,,,,,,,,,,,,,,
,,,,,,,,,,,,,1,001,2025-01-02_16h59.21.146,IAT(Formal),2021.2.3,Win32,163.9344262,,,,,,,,,,,,,,,,i,1,0.4079,,,,,,他们,i,,,0,4,4,76,1,,,,,,,,,,,,,,,,,,,,,,,,,,,,,,,,,,
,,,,,,,,,,,,,1,001,2025-01-02_16h59.21.146,IAT(Formal),2021.2.3,Win32,163.9344262,,,,,,,,,,,,,,,,i,1,0.5633,,,,,,散漫,i,,,0,5,5,41,1,,,,,,,,,,,,,,,,,,,,,,,,,,,,,,,,,,
,,,,,,,,,,,,,1,001,2025-01-02_16h59.21.146,IAT(Formal),2021.2.3,Win32,163.9344262,,,,,,,,,,,,,,,,i,1,0.5125,,,,,,执拗,i,,,0,6,6,40,1,,,,,,,,,,,,,,,,,,,,,,,,,,,,,,,,,,
,,,,,,,,,,,,,1,001,2025-01-02_16h59.21.146,IAT(Formal),2021.2.3,Win32,163.9344262,,,,,,,,,,,,,,,,e,1,0.5479,,,,,,冷静,e,,,0,7,7,26,1,,,,,,,,,,,,,,,,,,,,,,,,,,,,,,,,,,
,,,,,,,,,,,,,1,001,2025-01-02_16h59.21.146,IAT(Formal),2021.2.3,Win32,163.9344262,,,,,,,,,,,,,,,,e,1,0.4429,,,,,,我,e,,,0,8,8,70,1,,,,,,,,,,,,,,,,,,,,,,,,,,,,,,,,,,
,,,,,,,,,,,,,1,001,2025-01-02_16h59.21.146,IAT(Formal),2021.2.3,Win32,163.9344262,,,,,,,,,,,,,,,,e,1,0.4425,,,,,,俺,e,,,0,9,9,74,1,,,,,,,,,,,,,,,,,,,,,,,,,,,,,,,,,,
,,,,,,,,,,,,,1,001,2025-01-02_16h59.21.146,IAT(Formal),2021.2.3,Win32,163.9344262,,,,,,,,,,,,,,,,i,1,0.4967,,,,,,他人,i,,,0,10,10,8,1,,,,,,,,,,,,,,,,,,,,,,,,,,,,,,,,,,
,,,,,,,,,,,,,1,001,2025-01-02_16h59.21.146,IAT(Formal),2021.2.3,Win32,163.9344262,,,,,,,,,,,,,,,,i,1,0.5299,,,,,,消极,i,,,0,11,11,35,1,,,,,,,,,,,,,,,,,,,,,,,,,,,,,,,,,,
,,,,,,,,,,,,,1,001,2025-01-02_16h59.21.146,IAT(Formal),2021.2.3,Win32,163.9344262,,,,,,,,,,,,,,,,e,1,0.6503,,,,,,细腻,e,,,0,12,12,25,1,,,,,,,,,,,,,,,,,,,,,,,,,,,,,,,,,,
,,,,,,,,,,,,,1,001,2025-01-02_16h59.21.146,IAT(Formal),2021.2.3,Win32,163.9344262,,,,,,,,,,,,,,,,i,1,0.5777,,,,,,刻薄,i,,,0,13,13,33,1,,,,,,,,,,,,,,,,,,,,,,,,,,,,,,,,,,
,,,,,,,,,,,,,1,001,2025-01-02_16h59.21.146,IAT(Formal),2021.2.3,Win32,163.9344262,,,,,,,,,,,,,,,,i,1,0.6436,,,,,,他的,i,,,0,14,14,77,1,,,,,,,,,,,,,,,,,,,,,,,,,,,,,,,,,,
,,,,,,,,,,,,,1,001,2025-01-02_16h59.21.146,IAT(Formal),2021.2.3,Win32,163.9344262,,,,,,,,,,,,,,,,e,1,0.53,,,,,,勤奋,e,,,0,15,15,18,1,,,,,,,,,,,,,,,,,,,,,,,,,,,,,,,,,,
,,,,,,,,,,,,,1,001,2025-01-02_16h59.21.146,IAT(Formal),2021.2.3,Win32,163.9344262,,,,,,,,,,,,,,,,e,1,0.4288,,,,,,我,e,,,0,16,16,0,1,,,,,,,,,,,,,,,,,,,,,,,,,,,,,,,,,,
,,,,,,,,,,,,,1,001,2025-01-02_16h59.21.146,IAT(Formal),2021.2.3,Win32,163.9344262,,,,,,,,,,,,,,,,i,1,0.5753,,,,,,他,i,,,0,17,17,55,1,,,,,,,,,,,,,,,,,,,,,,,,,,,,,,,,,,
,,,,,,,,,,,,,1,001,2025-01-02_16h59.21.146,IAT(Formal),2021.2.3,Win32,163.9344262,,,,,,,,,,,,,,,,e,1,0.5111,,,,,,优秀,e,,,0,18,18,10,1,,,,,,,,,,,,,,,,,,,,,,,,,,,,,,,,,,
,,,,,,,,,,,,,1,001,2025-01-02_16h59.21.146,IAT(Formal),2021.2.3,Win32,163.9344262,,,,,,,,,,,,,,,,e,1,0.5147,,,,,,勇敢,e,,,0,19,19,17,1,,,,,,,,,,,,,,,,,,,,,,,,,,,,,,,,,,
,,,,,,,,,,,,,1,001,2025-01-02_16h59.21.146,IAT(Formal),2021.2.3,Win32,163.9344262,,,,,,,,,,,,,,,,e,1,0.529,,,,,,我的,e,,,0,20,20,71,1,,,,,,,,,,,,,,,,,,,,,,,,,,,,,,,,,,
,,,,,,,,,,,,,1,001,2025-01-02_16h59.21.146,IAT(Formal),2021.2.3,Win32,163.9344262,,,,,,,,,,,,,,,,e,1,0.539,,,,,,正直,e,,,0,21,21,16,1,,,,,,,,,,,,,,,,,,,,,,,,,,,,,,,,,,
,,,,,,,,,,,,,1,001,2025-01-02_16h59.21.146,IAT(Formal),2021.2.3,Win32,163.9344262,,,,,,,,,,,,,,,,e,1,0.4955,,,,,,稳重,e,,,0,22,22,21,1,,,,,,,,,,,,,,,,,,,,,,,,,,,,,,,,,,
,,,,,,,,,,,,,1,001,2025-01-02_16h59.21.146,IAT(Formal),2021.2.3,Win32,163.9344262,,,,,,,,,,,,,,,,i,1,0.6811,,,,,,他人,i,,,0,23,23,78,1,,,,,,,,,,,,,,,,,,,,,,,,,,,,,,,,,,
,,,,,,,,,,,,,1,001,2025-01-02_16h59.21.146,IAT(Formal),2021.2.3,Win32,163.9344262,,,,,,,,,,,,,,,,e,1,0.6425,,,,,,我,e,,,0,24,24,50,1,,,,,,,,,,,,,,,,,,,,,,,,,,,,,,,,,,
,,,,,,,,,,,,,1,001,2025-01-02_16h59.21.146,IAT(Formal),2021.2.3,Win32,163.9344262,,,,,,,,,,,,,,,,i,1,0.7851,,,,,,他们,i,,,0,25,25,66,1,,,,,,,,,,,,,,,,,,,,,,,,,,,,,,,,,,
,,,,,,,,,,,,,1,001,2025-01-02_16h59.21.146,IAT(Formal),2021.2.3,Win32,163.9344262,,,,,,,,,,,,,,,,e,1,0.5015,,,,,,活泼,e,,,0,26,26,28,1,,,,,,,,,,,,,,,,,,,,,,,,,,,,,,,,,,
,,,,,,,,,,,,,1,001,2025-01-02_16h59.21.146,IAT(Formal),2021.2.3,Win32,163.9344262,,,,,,,,,,,,,,,,e,1,0.6382,,,,,,俺,e,,,0,27,27,4,1,,,,,,,,,,,,,,,,,,,,,,,,,,,,,,,,,,
,,,,,,,,,,,,,1,001,2025-01-02_16h59.21.146,IAT(Formal),2021.2.3,Win32,163.9344262,,,,,,,,,,,,,,,,e,1,0.754,,,,,,乐观,e,,,0,28,28,14,1,,,,,,,,,,,,,,,,,,,,,,,,,,,,,,,,,,
,,,,,,,,,,,,,1,001,2025-01-02_16h59.21.146,IAT(Formal),2021.2.3,Win32,163.9344262,,,,,,,,,,,,,,,,i,1,0.6111,,,,,,暴躁,i,,,0,29,29,44,1,,,,,,,,,,,,,,,,,,,,,,,,,,,,,,,,,,
,,,,,,,,,,,,,1,001,2025-01-02_16h59.21.146,IAT(Formal),2021.2.3,Win32,163.9344262,,,,,,,,,,,,,,,,i,1,1.0324,,,,,,轻率,i,,,0,30,30,48,1,,,,,,,,,,,,,,,,,,,,,,,,,,,,,,,,,,
,,,,,,,,,,,,,1,001,2025-01-02_16h59.21.146,IAT(Formal),2021.2.3,Win32,163.9344262,,,,,,,,,,,,,,,,e,1,0.4685,,,,,,自己,e,,,0,31,31,63,1,,,,,,,,,,,,,,,,,,,,,,,,,,,,,,,,,,
,,,,,,,,,,,,,1,001,2025-01-02_16h59.21.146,IAT(Formal),2021.2.3,Win32,163.9344262,,,,,,,,,,,,,,,,e,1,0.6102,,,,,,机智,e,,,0,32,32,19,1,,,,,,,,,,,,,,,,,,,,,,,,,,,,,,,,,,
,,,,,,,,,,,,,1,001,2025-01-02_16h59.21.146,IAT(Formal),2021.2.3,Win32,163.9344262,,,,,,,,,,,,,,,,i,1,0.6534,,,,,,他们,i,,,0,33,33,56,1,,,,,,,,,,,,,,,,,,,,,,,,,,,,,,,,,,
,,,,,,,,,,,,,1,001,2025-01-02_16h59.21.146,IAT(Formal),2021.2.3,Win32,163.9344262,,,,,,,,,,,,,,,,i,0,0.6152,,,,,,无私,e,,,0,34,34,22,1,,,,,,,,,,,,,,,,,,,,,,,,,,,,,,,,,,
,,,,,,,,,,,,,1,001,2025-01-02_16h59.21.146,IAT(Formal),2021.2.3,Win32,163.9344262,,,,,,,,,,,,,,,,e,1,0.6286,,,,,,自己,e,,,0,35,35,3,1,,,,,,,,,,,,,,,,,,,,,,,,,,,,,,,,,,
,,,,,,,,,,,,,1,001,2025-01-02_16h59.21.146,IAT(Formal),2021.2.3,Win32,163.9344262,,,,,,,,,,,,,,,,i,1,0.5017,,,,,,卑鄙,i,,,0,36,36,30,1,,,,,,,,,,,,,,,,,,,,,,,,,,,,,,,,,,
,,,,,,,,,,,,,1,001,2025-01-02_16h59.21.146,IAT(Formal),2021.2.3,Win32,163.9344262,,,,,,,,,,,,,,,,i,1,0.5186,,,,,,野蛮,i,,,0,37,37,46,1,,,,,,,,,,,,,,,,,,,,,,,,,,,,,,,,,,
,,,,,,,,,,,,,1,001,2025-01-02_16h59.21.146,IAT(Formal),2021.2.3,Win32,163.9344262,,,,,,,,,,,,,,,,i,1,0.5157,,,,,,凶狠,i,,,0,38,38,42,1,,,,,,,,,,,,,,,,,,,,,,,,,,,,,,,,,,
,,,,,,,,,,,,,1,001,2025-01-02_16h59.21.146,IAT(Formal),2021.2.3,Win32,163.9344262,,,,,,,,,,,,,,,,e,0,0.4581,,,,,,他,i,,,0,39,39,75,1,,,,,,,,,,,,,,,,,,,,,,,,,,,,,,,,,,
,,,,,,,,,,,,,1,001,2025-01-02_16h59.21.146,IAT(Formal),2021.2.3,Win32,163.9344262,,,,,,,,,,,,,,,,e,1,0.5648,,,,,,崇高,e,,,0,40,40,11,1,,,,,,,,,,,,,,,,,,,,,,,,,,,,,,,,,,
,,,,,,,,,,,,,1,001,2025-01-02_16h59.21.146,IAT(Formal),2021.2.3,Win32,163.9344262,,,,,,,,,,,,,,,,i,1,0.6177,,,,,,愚蠢,i,,,0,41,41,32,1,,,,,,,,,,,,,,,,,,,,,,,,,,,,,,,,,,
,,,,,,,,,,,,,1,001,2025-01-02_16h59.21.146,IAT(Formal),2021.2.3,Win32,163.9344262,,,,,,,,,,,,,,,,e,1,0.6409,,,,,,俺,e,,,0,42,42,54,1,,,,,,,,,,,,,,,,,,,,,,,,,,,,,,,,,,
,,,,,,,,,,,,,1,001,2025-01-02_16h59.21.146,IAT(Formal),2021.2.3,Win32,163.9344262,,,,,,,,,,,,,,,,e,1,0.5905,,,,,,诚恳,e,,,0,43,43,29,1,,,,,,,,,,,,,,,,,,,,,,,,,,,,,,,,,,
,,,,,,,,,,,,,1,001,2025-01-02_16h59.21.146,IAT(Formal),2021.2.3,Win32,163.9344262,,,,,,,,,,,,,,,,e,1,0.4833,,,,,,公正,e,,,0,44,44,23,1,,,,,,,,,,,,,,,,,,,,,,,,,,,,,,,,,,
,,,,,,,,,,,,,1,001,2025-01-02_16h59.21.146,IAT(Formal),2021.2.3,Win32,163.9344262,,,,,,,,,,,,,,,,i,1,0.6242,,,,,,虚伪,i,,,0,45,45,31,1,,,,,,,,,,,,,,,,,,,,,,,,,,,,,,,,,,
,,,,,,,,,,,,,1,001,2025-01-02_16h59.21.146,IAT(Formal),2021.2.3,Win32,163.9344262,,,,,,,,,,,,,,,,e,1,0.5452,,,,,,诚实,e,,,0,46,46,15,1,,,,,,,,,,,,,,,,,,,,,,,,,,,,,,,,,,
,,,,,,,,,,,,,1,001,2025-01-02_16h59.21.146,IAT(Formal),2021.2.3,Win32,163.9344262,,,,,,,,,,,,,,,,i,1,0.6167,,,,,,自私,i,,,0,47,47,43,1,,,,,,,,,,,,,,,,,,,,,,,,,,,,,,,,,,
,,,,,,,,,,,,,1,001,2025-01-02_16h59.21.146,IAT(Formal),2021.2.3,Win32,163.9344262,,,,,,,,,,,,,,,,e,1,0.5426,,,,,,我们,e,,,0,48,48,2,1,,,,,,,,,,,,,,,,,,,,,,,,,,,,,,,,,,
,,,,,,,,,,,,,1,001,2025-01-02_16h59.21.146,IAT(Formal),2021.2.3,Win32,163.9344262,,,,,,,,,,,,,,,,i,1,0.6285,,,,,,他人,i,,,0,49,49,58,1,,,,,,,,,,,,,,,,,,,,,,,,,,,,,,,,,,
,,,,,,,,,,,,,1,001,2025-01-02_16h59.21.146,IAT(Formal),2021.2.3,Win32,163.9344262,,,,,,,,,,,,,,,,e,1,0.5198,,,,,,自己,e,,,0,50,50,53,1,,,,,,,,,,,,,,,,,,,,,,,,,,,,,,,,,,
,,,,,,,,,,,,,1,001,2025-01-02_16h59.21.146,IAT(Formal),2021.2.3,Win32,163.9344262,,,,,,,,,,,,,,,,i,1,0.6477,,,,,,他,i,,,0,51,51,5,1,,,,,,,,,,,,,,,,,,,,,,,,,,,,,,,,,,
,,,,,,,,,,,,,1,001,2025-01-02_16h59.21.146,IAT(Formal),2021.2.3,Win32,163.9344262,,,,,,,,,,,,,,,,i,1,0.6168,,,,,,他,i,,,0,52,52,65,1,,,,,,,,,,,,,,,,,,,,,,,,,,,,,,,,,,
,,,,,,,,,,,,,1,001,2025-01-02_16h59.21.146,IAT(Formal),2021.2.3,Win32,163.9344262,,,,,,,,,,,,,,,,i,1,0.5244,,,,,,猖狂,i,,,0,53,53,45,1,,,,,,,,,,,,,,,,,,,,,,,,,,,,,,,,,,
,,,,,,,,,,,,,1,001,2025-01-02_16h59.21.146,IAT(Formal),2021.2.3,Win32,163.9344262,,,,,,,,,,,,,,,,e,1,0.5963,,,,,,杰出,e,,,0,54,54,13,1,,,,,,,,,,,,,,,,,,,,,,,,,,,,,,,,,,
,,,,,,,,,,,,,1,001,2025-01-02_16h59.21.146,IAT(Formal),2021.2.3,Win32,163.9344262,,,,,,,,,,,,,,,,i,1,0.5713,,,,,,傲慢,i,,,0,55,55,37,1,,,,,,,,,,,,,,,,,,,,,,,,,,,,,,,,,,
,,,,,,,,,,,,,1,001,2025-01-02_16h59.21.146,IAT(Formal),2021.2.3,Win32,163.9344262,,,,,,,,,,,,,,,,e,1,0.4755,,,,,,我的,e,,,0,56,56,61,1,,,,,,,,,,,,,,,,,,,,,,,,,,,,,,,,,,
,,,,,,,,,,,,,1,001,2025-01-02_16h59.21.146,IAT(Formal),2021.2.3,Win32,163.9344262,,,,,,,,,,,,,,,,e,1,1.1072,,,,,,自己,e,,,0,57,57,73,1,,,,,,,,,,,,,,,,,,,,,,,,,,,,,,,,,,
,,,,,,,,,,,,,1,001,2025-01-02_16h59.21.146,IAT(Formal),2021.2.3,Win32,163.9344262,,,,,,,,,,,,,,,,i,1,0.6999,,,,,,固执,i,,,0,58,58,47,1,,,,,,,,,,,,,,,,,,,,,,,,,,,,,,,,,,
,,,,,,,,,,,,,1,001,2025-01-02_16h59.21.146,IAT(Formal),2021.2.3,Win32,163.9344262,,,,,,,,,,,,,,,,e,1,0.7804,,,,,,俺,e,,,0,59,59,64,1,,,,,,,,,,,,,,,,,,,,,,,,,,,,,,,,,,
,,,,,,,,,,,,,1,001,2025-01-02_16h59.21.146,IAT(Formal),2021.2.3,Win32,163.9344262,,,,,,,,,,,,,,,,e,1,0.5514,,,,,,我们,e,,,0,60,60,72,1,,,,,,,,,,,,,,,,,,,,,,,,,,,,,,,,,,
,,,,,,,,,,,,,1,001,2025-01-02_16h59.21.146,IAT(Formal),2021.2.3,Win32,163.9344262,,,,,,,,,,,,,,,,i,1,0.5936,,,,,,他的,i,,,0,61,61,67,1,,,,,,,,,,,,,,,,,,,,,,,,,,,,,,,,,,
,,,,,,,,,,,,,1,001,2025-01-02_16h59.21.146,IAT(Formal),2021.2.3,Win32,163.9344262,,,,,,,,,,,,,,,,i,1,0.6473,,,,,,其他,i,,,0,62,62,59,1,,,,,,,,,,,,,,,,,,,,,,,,,,,,,,,,,,
,,,,,,,,,,,,,1,001,2025-01-02_16h59.21.146,IAT(Formal),2021.2.3,Win32,163.9344262,,,,,,,,,,,,,,,,i,1,0.6409,,,,,,他们,i,,,0,63,63,6,1,,,,,,,,,,,,,,,,,,,,,,,,,,,,,,,,,,
,,,,,,,,,,,,,1,001,2025-01-02_16h59.21.146,IAT(Formal),2021.2.3,Win32,163.9344262,,,,,,,,,,,,,,,,e,1,0.6309,,,,,,我们,e,,,0,64,64,62,1,,,,,,,,,,,,,,,,,,,,,,,,,,,,,,,,,,
,,,,,,,,,,,,,1,001,2025-01-02_16h59.21.146,IAT(Formal),2021.2.3,Win32,163.9344262,,,,,,,,,,,,,,,,e,1,0.6256,,,,,,我,e,,,0,65,65,60,1,,,,,,,,,,,,,,,,,,,,,,,,,,,,,,,,,,
,,,,,,,,,,,,,1,001,2025-01-02_16h59.21.146,IAT(Formal),2021.2.3,Win32,163.9344262,,,,,,,,,,,,,,,,e,1,0.7306,,,,,,朴实,e,,,0,66,66,24,1,,,,,,,,,,,,,,,,,,,,,,,,,,,,,,,,,,
,,,,,,,,,,,,,1,001,2025-01-02_16h59.21.146,IAT(Formal),2021.2.3,Win32,163.9344262,,,,,,,,,,,,,,,,i,1,0.7157,,,,,,他的,i,,,0,67,67,57,1,,,,,,,,,,,,,,,,,,,,,,,,,,,,,,,,,,
,,,,,,,,,,,,,1,001,2025-01-02_16h59.21.146,IAT(Formal),2021.2.3,Win32,163.9344262,,,,,,,,,,,,,,,,i,1,0.5776,,,,,,他人,i,,,0,68,68,68,1,,,,,,,,,,,,,,,,,,,,,,,,,,,,,,,,,,
,,,,,,,,,,,,,1,001,2025-01-02_16h59.21.146,IAT(Formal),2021.2.3,Win32,163.9344262,,,,,,,,,,,,,,,,i,1,0.6343,,,,,,悲观,i,,,0,69,69,34,1,,,,,,,,,,,,,,,,,,,,,,,,,,,,,,,,,,
,,,,,,,,,,,,,1,001,2025-01-02_16h59.21.146,IAT(Formal),2021.2.3,Win32,163.9344262,,,,,,,,,,,,,,,,e,1,0.6067,,,,,,热情,e,,,0,70,70,27,1,,,,,,,,,,,,,,,,,,,,,,,,,,,,,,,,,,
,,,,,,,,,,,,,1,001,2025-01-02_16h59.21.146,IAT(Formal),2021.2.3,Win32,163.9344262,,,,,,,,,,,,,,,,e,1,0.5311,,,,,,我们,e,,,0,71,71,52,1,,,,,,,,,,,,,,,,,,,,,,,,,,,,,,,,,,
,,,,,,,,,,,,,1,001,2025-01-02_16h59.21.146,IAT(Formal),2021.2.3,Win32,163.9344262,,,,,,,,,,,,,,,,e,1,0.6192,,,,,,聪明,e,,,0,72,72,12,1,,,,,,,,,,,,,,,,,,,,,,,,,,,,,,,,,,
,,,,,,,,,,,,,1,001,2025-01-02_16h59.21.146,IAT(Formal),2021.2.3,Win32,163.9344262,,,,,,,,,,,,,,,,i,1,0.8832,,,,,,其他,i,,,0,73,73,69,1,,,,,,,,,,,,,,,,,,,,,,,,,,,,,,,,,,
,,,,,,,,,,,,,1,001,2025-01-02_16h59.21.146,IAT(Formal),2021.2.3,Win32,163.9344262,,,,,,,,,,,,,,,,i,1,0.6308,,,,,,他的,i,,,0,74,74,7,1,,,,,,,,,,,,,,,,,,,,,,,,,,,,,,,,,,
,,,,,,,,,,,,,1,001,2025-01-02_16h59.21.146,IAT(Formal),2021.2.3,Win32,163.9344262,,,,,,,,,,,,,,,,i,1,0.5373,,,,,,冒失,i,,,0,75,75,39,1,,,,,,,,,,,,,,,,,,,,,,,,,,,,,,,,,,
,,,,,,,,,,,,,1,001,2025-01-02_16h59.21.146,IAT(Formal),2021.2.3,Win32,163.9344262,,,,,,,,,,,,,,,,e,1,0.6319,,,,,,我的,e,,,0,76,76,51,1,,,,,,,,,,,,,,,,,,,,,,,,,,,,,,,,,,
,,,,,,,,,,,,,1,001,2025-01-02_16h59.21.146,IAT(Formal),2021.2.3,Win32,163.9344262,,,,,,,,,,,,,,,,e,1,0.4828,,,,,,我的,e,,,0,77,77,1,1,,,,,,,,,,,,,,,,,,,,,,,,,,,,,,,,,,
,,,,,,,,,,,,,1,001,2025-01-02_16h59.21.146,IAT(Formal),2021.2.3,Win32,163.9344262,,,,,,,,,,,,,,,,e,1,0.5477,,,,,,认真,e,,,0,78,78,20,1,,,,,,,,,,,,,,,,,,,,,,,,,,,,,,,,,,
,,,,,,,,,,,,,1,001,2025-01-02_16h59.21.146,IAT(Formal),2021.2.3,Win32,163.9344262,,,,,,,,,,,,,,,,i,1,1.1873,,,,,,其他,i,,,0,79,79,79,1,,,,,,,,,,,,,,,,,,,,,,,,,,,,,,,,,,
,,,,,,,,,,,,,1,001,2025-01-02_16h59.21.146,IAT(Formal),2021.2.3,Win32,163.9344262,,,,,,,,,,,,,,,,i,1,0.4317,,,,,,他们,i,,,1,0,80,66,1,,,,,,,,,,,,,,,,,,,,,,,,,,,,,,,,,,
,,,,,,,,,,,,,1,001,2025-01-02_16h59.21.146,IAT(Formal),2021.2.3,Win32,163.9344262,,,,,,,,,,,,,,,,i,1,0.4922,,,,,,他人,i,,,1,1,81,68,1,,,,,,,,,,,,,,,,,,,,,,,,,,,,,,,,,,
,,,,,,,,,,,,,1,001,2025-01-02_16h59.21.146,IAT(Formal),2021.2.3,Win32,163.9344262,,,,,,,,,,,,,,,,e,1,0.6972,,,,,,正直,e,,,1,2,82,16,1,,,,,,,,,,,,,,,,,,,,,,,,,,,,,,,,,,
,,,,,,,,,,,,,1,001,2025-01-02_16h59.21.146,IAT(Formal),2021.2.3,Win32,163.9344262,,,,,,,,,,,,,,,,e,1,0.5283,,,,,,活泼,e,,,1,3,83,28,1,,,,,,,,,,,,,,,,,,,,,,,,,,,,,,,,,,
,,,,,,,,,,,,,1,001,2025-01-02_16h59.21.146,IAT(Formal),2021.2.3,Win32,163.9344262,,,,,,,,,,,,,,,,e,1,1.122,,,,,,冷静,e,,,1,4,84,26,1,,,,,,,,,,,,,,,,,,,,,,,,,,,,,,,,,,
,,,,,,,,,,,,,1,001,2025-01-02_16h59.21.146,IAT(Formal),2021.2.3,Win32,163.9344262,,,,,,,,,,,,,,,,e,1,0.5068,,,,,,我们,e,,,1,5,85,72,1,,,,,,,,,,,,,,,,,,,,,,,,,,,,,,,,,,
,,,,,,,,,,,,,1,001,2025-01-02_16h59.21.146,IAT(Formal),2021.2.3,Win32,163.9344262,,,,,,,,,,,,,,,,i,1,0.5651,,,,,,刻薄,i,,,1,6,86,33,1,,,,,,,,,,,,,,,,,,,,,,,,,,,,,,,,,,
,,,,,,,,,,,,,1,001,2025-01-02_16h59.21.146,IAT(Formal),2021.2.3,Win32,163.9344262,,,,,,,,,,,,,,,,i,1,0.6175,,,,,,鲁莽,i,,,1,7,87,38,1,,,,,,,,,,,,,,,,,,,,,,,,,,,,,,,,,,
,,,,,,,,,,,,,1,001,2025-01-02_16h59.21.146,IAT(Formal),2021.2.3,Win32,163.9344262,,,,,,,,,,,,,,,,i,1,0.5284,,,,,,愚蠢,i,,,1,8,88,32,1,,,,,,,,,,,,,,,,,,,,,,,,,,,,,,,,,,
,,,,,,,,,,,,,1,001,2025-01-02_16h59.21.146,IAT(Formal),2021.2.3,Win32,163.9344262,,,,,,,,,,,,,,,,i,1,0.5063,,,,,,下贱,i,,,1,9,89,49,1,,,,,,,,,,,,,,,,,,,,,,,,,,,,,,,,,,
,,,,,,,,,,,,,1,001,2025-01-02_16h59.21.146,IAT(Formal),2021.2.3,Win32,163.9344262,,,,,,,,,,,,,,,,e,1,0.4923,,,,,,我的,e,,,1,10,90,71,1,,,,,,,,,,,,,,,,,,,,,,,,,,,,,,,,,,
,,,,,,,,,,,,,1,001,2025-01-02_16h59.21.146,IAT(Formal),2021.2.3,Win32,163.9344262,,,,,,,,,,,,,,,,i,1,0.8028,,,,,,固执,i,,,1,11,91,47,1,,,,,,,,,,,,,,,,,,,,,,,,,,,,,,,,,,
,,,,,,,,,,,,,1,001,2025-01-02_16h59.21.146,IAT(Formal),2021.2.3,Win32,163.9344262,,,,,,,,,,,,,,,,e,1,0.6826,,,,,,诚实,e,,,1,12,92,15,1,,,,,,,,,,,,,,,,,,,,,,,,,,,,,,,,,,
,,,,,,,,,,,,,1,001,2025-01-02_16h59.21.146,IAT(Formal),2021.2.3,Win32,163.9344262,,,,,,,,,,,,,,,,i,1,0.591,,,,,,其他,i,,,1,13,93,79,1,,,,,,,,,,,,,,,,,,,,,,,,,,,,,,,,,,
,,,,,,,,,,,,,1,001,2025-01-02_16h59.21.146,IAT(Formal),2021.2.3,Win32,163.9344262,,,,,,,,,,,,,,,,i,1,0.6519,,,,,,他的,i,,,1,14,94,57,1,,,,,,,,,,,,,,,,,,,,,,,,,,,,,,,,,,
,,,,,,,,,,,,,1,001,2025-01-02_16h59.21.146,IAT(Formal),2021.2.3,Win32,163.9344262,,,,,,,,,,,,,,,,i,1,0.5326,,,,,,他们,i,,,1,15,95,56,1,,,,,,,,,,,,,,,,,,,,,,,,,,,,,,,,,,
,,,,,,,,,,,,,1,001,2025-01-02_16h59.21.146,IAT(Formal),2021.2.3,Win32,163.9344262,,,,,,,,,,,,,,,,i,1,0.5601,,,,,,散漫,i,,,1,16,96,41,1,,,,,,,,,,,,,,,,,,,,,,,,,,,,,,,,,,
,,,,,,,,,,,,,1,001,2025-01-02_16h59.21.146,IAT(Formal),2021.2.3,Win32,163.9344262,,,,,,,,,,,,,,,,e,1,0.491,,,,,,自己,e,,,1,17,97,63,1,,,,,,,,,,,,,,,,,,,,,,,,,,,,,,,,,,
,,,,,,,,,,,,,1,001,2025-01-02_16h59.21.146,IAT(Formal),2021.2.3,Win32,163.9344262,,,,,,,,,,,,,,,,i,1,0.5141,,,,,,野蛮,i,,,1,18,98,46,1,,,,,,,,,,,,,,,,,,,,,,,,,,,,,,,,,,
,,,,,,,,,,,,,1,001,2025-01-02_16h59.21.146,IAT(Formal),2021.2.3,Win32,163.9344262,,,,,,,,,,,,,,,,i,1,0.5105,,,,,,暴躁,i,,,1,19,99,44,1,,,,,,,,,,,,,,,,,,,,,,,,,,,,,,,,,,
,,,,,,,,,,,,,1,001,2025-01-02_16h59.21.146,IAT(Formal),2021.2.3,Win32,163.9344262,,,,,,,,,,,,,,,,e,1,0.6104,,,,,,稳重,e,,,1,20,100,21,1,,,,,,,,,,,,,,,,,,,,,,,,,,,,,,,,,,
,,,,,,,,,,,,,1,001,2025-01-02_16h59.21.146,IAT(Formal),2021.2.3,Win32,163.9344262,,,,,,,,,,,,,,,,i,1,0.7122,,,,,,执拗,i,,,1,21,101,40,1,,,,,,,,,,,,,,,,,,,,,,,,,,,,,,,,,,
,,,,,,,,,,,,,1,001,2025-01-02_16h59.21.146,IAT(Formal),2021.2.3,Win32,163.9344262,,,,,,,,,,,,,,,,i,1,0.4991,,,,,,卑鄙,i,,,1,22,102,30,1,,,,,,,,,,,,,,,,,,,,,,,,,,,,,,,,,,
,,,,,,,,,,,,,1,001,2025-01-02_16h59.21.146,IAT(Formal),2021.2.3,Win32,163.9344262,,,,,,,,,,,,,,,,i,1,0.476,,,,,,自私,i,,,1,23,103,43,1,,,,,,,,,,,,,,,,,,,,,,,,,,,,,,,,,,
,,,,,,,,,,,,,1,001,2025-01-02_16h59.21.146,IAT(Formal),2021.2.3,Win32,163.9344262,,,,,,,,,,,,,,,,e,1,0.5328,,,,,,我,e,,,1,24,104,70,1,,,,,,,,,,,,,,,,,,,,,,,,,,,,,,,,,,
,,,,,,,,,,,,,1,001,2025-01-02_16h59.21.146,IAT(Formal),2021.2.3,Win32,163.9344262,,,,,,,,,,,,,,,,e,1,0.5032,,,,,,俺,e,,,1,25,105,4,1,,,,,,,,,,,,,,,,,,,,,,,,,,,,,,,,,,
,,,,,,,,,,,,,1,001,2025-01-02_16h59.21.146,IAT(Formal),2021.2.3,Win32,163.9344262,,,,,,,,,,,,,,,,i,1,0.6349,,,,,,他,i,,,1,26,106,65,1,,,,,,,,,,,,,,,,,,,,,,,,,,,,,,,,,,
,,,,,,,,,,,,,1,001,2025-01-02_16h59.21.146,IAT(Formal),2021.2.3,Win32,163.9344262,,,,,,,,,,,,,,,,i,1,0.5091,,,,,,消极,i,,,1,27,107,35,1,,,,,,,,,,,,,,,,,,,,,,,,,,,,,,,,,,
,,,,,,,,,,,,,1,001,2025-01-02_16h59.21.146,IAT(Formal),2021.2.3,Win32,163.9344262,,,,,,,,,,,,,,,,i,1,0.5617,,,,,,虚伪,i,,,1,28,108,31,1,,,,,,,,,,,,,,,,,,,,,,,,,,,,,,,,,,
,,,,,,,,,,,,,1,001,2025-01-02_16h59.21.146,IAT(Formal),2021.2.3,Win32,163.9344262,,,,,,,,,,,,,,,,i,1,0.5432,,,,,,他人,i,,,1,29,109,8,1,,,,,,,,,,,,,,,,,,,,,,,,,,,,,,,,,,
,,,,,,,,,,,,,1,001,2025-01-02_16h59.21.146,IAT(Formal),2021.2.3,Win32,163.9344262,,,,,,,,,,,,,,,,e,1,0.5655,,,,,,我们,e,,,1,30,110,52,1,,,,,,,,,,,,,,,,,,,,,,,,,,,,,,,,,,
,,,,,,,,,,,,,1,001,2025-01-02_16h59.21.146,IAT(Formal),2021.2.3,Win32,163.9344262,,,,,,,,,,,,,,,,i,1,0.5948,,,,,,他,i,,,1,31,111,75,1,,,,,,,,,,,,,,,,,,,,,,,,,,,,,,,,,,
,,,,,,,,,,,,,1,001,2025-01-02_16h59.21.146,IAT(Formal),2021.2.3,Win32,163.9344262,,,,,,,,,,,,,,,,i,1,0.4963,,,,,,悲观,i,,,1,32,112,34,1,,,,,,,,,,,,,,,,,,,,,,,,,,,,,,,,,,
,,,,,,,,,,,,,1,001,2025-01-02_16h59.21.146,IAT(Formal),2021.2.3,Win32,163.9344262,,,,,,,,,,,,,,,,i,1,0.4904,,,,,,他人,i,,,1,33,113,78,1,,,,,,,,,,,,,,,,,,,,,,,,,,,,,,,,,,
,,,,,,,,,,,,,1,001,2025-01-02_16h59.21.146,IAT(Formal),2021.2.3,Win32,163.9344262,,,,,,,,,,,,,,,,e,1,0.5831,,,,,,崇高,e,,,1,34,114,11,1,,,,,,,,,,,,,,,,,,,,,,,,,,,,,,,,,,
,,,,,,,,,,,,,1,001,2025-01-02_16h59.21.146,IAT(Formal),2021.2.3,Win32,163.9344262,,,,,,,,,,,,,,,,i,1,0.682,,,,,,他的,i,,,1,35,115,77,1,,,,,,,,,,,,,,,,,,,,,,,,,,,,,,,,,,
,,,,,,,,,,,,,1,001,2025-01-02_16h59.21.146,IAT(Formal),2021.2.3,Win32,163.9344262,,,,,,,,,,,,,,,,i,1,0.5325,,,,,,傲慢,i,,,1,36,116,37,1,,,,,,,,,,,,,,,,,,,,,,,,,,,,,,,,,,
,,,,,,,,,,,,,1,001,2025-01-02_16h59.21.146,IAT(Formal),2021.2.3,Win32,163.9344262,,,,,,,,,,,,,,,,i,1,0.5113,,,,,,猖狂,i,,,1,37,117,45,1,,,,,,,,,,,,,,,,,,,,,,,,,,,,,,,,,,
,,,,,,,,,,,,,1,001,2025-01-02_16h59.21.146,IAT(Formal),2021.2.3,Win32,163.9344262,,,,,,,,,,,,,,,,i,1,0.523,,,,,,他的,i,,,1,38,118,67,1,,,,,,,,,,,,,,,,,,,,,,,,,,,,,,,,,,
,,,,,,,,,,,,,1,001,2025-01-02_16h59.21.146,IAT(Formal),2021.2.3,Win32,163.9344262,,,,,,,,,,,,,,,,e,1,0.5315,,,,,,细腻,e,,,1,39,119,25,1,,,,,,,,,,,,,,,,,,,,,,,,,,,,,,,,,,
,,,,,,,,,,,,,1,001,2025-01-02_16h59.21.146,IAT(Formal),2021.2.3,Win32,163.9344262,,,,,,,,,,,,,,,,i,1,0.6951,,,,,,冒失,i,,,1,40,120,39,1,,,,,,,,,,,,,,,,,,,,,,,,,,,,,,,,,,
,,,,,,,,,,,,,1,001,2025-01-02_16h59.21.146,IAT(Formal),2021.2.3,Win32,163.9344262,,,,,,,,,,,,,,,,e,1,0.6796,,,,,,我的,e,,,1,41,121,1,1,,,,,,,,,,,,,,,,,,,,,,,,,,,,,,,,,,
,,,,,,,,,,,,,1,001,2025-01-02_16h59.21.146,IAT(Formal),2021.2.3,Win32,163.9344262,,,,,,,,,,,,,,,,e,1,0.7681,,,,,,无私,e,,,1,42,122,22,1,,,,,,,,,,,,,,,,,,,,,,,,,,,,,,,,,,
,,,,,,,,,,,,,1,001,2025-01-02_16h59.21.146,IAT(Formal),2021.2.3,Win32,163.9344262,,,,,,,,,,,,,,,,e,1,0.5197,,,,,,机智,e,,,1,43,123,19,1,,,,,,,,,,,,,,,,,,,,,,,,,,,,,,,,,,
,,,,,,,,,,,,,1,001,2025-01-02_16h59.21.146,IAT(Formal),2021.2.3,Win32,163.9344262,,,,,,,,,,,,,,,,e,1,0.4469,,,,,,乐观,e,,,1,44,124,14,1,,,,,,,,,,,,,,,,,,,,,,,,,,,,,,,,,,
,,,,,,,,,,,,,1,001,2025-01-02_16h59.21.146,IAT(Formal),2021.2.3,Win32,163.9344262,,,,,,,,,,,,,,,,i,1,0.6569,,,,,,他们,i,,,1,45,125,6,1,,,,,,,,,,,,,,,,,,,,,,,,,,,,,,,,,,
,,,,,,,,,,,,,1,001,2025-01-02_16h59.21.146,IAT(Formal),2021.2.3,Win32,163.9344262,,,,,,,,,,,,,,,,i,1,0.5638,,,,,,他,i,,,1,46,126,5,1,,,,,,,,,,,,,,,,,,,,,,,,,,,,,,,,,,
,,,,,,,,,,,,,1,001,2025-01-02_16h59.21.146,IAT(Formal),2021.2.3,Win32,163.9344262,,,,,,,,,,,,,,,,e,1,0.608,,,,,,俺,e,,,1,47,127,54,1,,,,,,,,,,,,,,,,,,,,,,,,,,,,,,,,,,
,,,,,,,,,,,,,1,001,2025-01-02_16h59.21.146,IAT(Formal),2021.2.3,Win32,163.9344262,,,,,,,,,,,,,,,,i,1,0.5712,,,,,,他,i,,,1,48,128,55,1,,,,,,,,,,,,,,,,,,,,,,,,,,,,,,,,,,
,,,,,,,,,,,,,1,001,2025-01-02_16h59.21.146,IAT(Formal),2021.2.3,Win32,163.9344262,,,,,,,,,,,,,,,,e,1,0.5223,,,,,,我的,e,,,1,49,129,51,1,,,,,,,,,,,,,,,,,,,,,,,,,,,,,,,,,,
,,,,,,,,,,,,,1,001,2025-01-02_16h59.21.146,IAT(Formal),2021.2.3,Win32,163.9344262,,,,,,,,,,,,,,,,e,1,0.4663,,,,,,我,e,,,1,50,130,0,1,,,,,,,,,,,,,,,,,,,,,,,,,,,,,,,,,,
,,,,,,,,,,,,,1,001,2025-01-02_16h59.21.146,IAT(Formal),2021.2.3,Win32,163.9344262,,,,,,,,,,,,,,,,i,1,0.5941,,,,,,他的,i,,,1,51,131,7,1,,,,,,,,,,,,,,,,,,,,,,,,,,,,,,,,,,
,,,,,,,,,,,,,1,001,2025-01-02_16h59.21.146,IAT(Formal),2021.2.3,Win32,163.9344262,,,,,,,,,,,,,,,,e,1,0.5349,,,,,,自己,e,,,1,52,132,73,1,,,,,,,,,,,,,,,,,,,,,,,,,,,,,,,,,,
,,,,,,,,,,,,,1,001,2025-01-02_16h59.21.146,IAT(Formal),2021.2.3,Win32,163.9344262,,,,,,,,,,,,,,,,i,1,0.9302,,,,,,轻率,i,,,1,53,133,48,1,,,,,,,,,,,,,,,,,,,,,,,,,,,,,,,,,,
,,,,,,,,,,,,,1,001,2025-01-02_16h59.21.146,IAT(Formal),2021.2.3,Win32,163.9344262,,,,,,,,,,,,,,,,e,1,0.5481,,,,,,勇敢,e,,,1,54,134,17,1,,,,,,,,,,,,,,,,,,,,,,,,,,,,,,,,,,
,,,,,,,,,,,,,1,001,2025-01-02_16h59.21.146,IAT(Formal),2021.2.3,Win32,163.9344262,,,,,,,,,,,,,,,,i,1,0.805,,,,,,其他,i,,,1,55,135,69,1,,,,,,,,,,,,,,,,,,,,,,,,,,,,,,,,,,
,,,,,,,,,,,,,1,001,2025-01-02_16h59.21.146,IAT(Formal),2021.2.3,Win32,163.9344262,,,,,,,,,,,,,,,,e,1,0.544,,,,,,我们,e,,,1,56,136,2,1,,,,,,,,,,,,,,,,,,,,,,,,,,,,,,,,,,
,,,,,,,,,,,,,1,001,2025-01-02_16h59.21.146,IAT(Formal),2021.2.3,Win32,163.9344262,,,,,,,,,,,,,,,,e,1,0.574,,,,,,杰出,e,,,1,57,137,13,1,,,,,,,,,,,,,,,,,,,,,,,,,,,,,,,,,,
,,,,,,,,,,,,,1,001,2025-01-02_16h59.21.146,IAT(Formal),2021.2.3,Win32,163.9344262,,,,,,,,,,,,,,,,e,1,0.5032,,,,,,热情,e,,,1,58,138,27,1,,,,,,,,,,,,,,,,,,,,,,,,,,,,,,,,,,
,,,,,,,,,,,,,1,001,2025-01-02_16h59.21.146,IAT(Formal),2021.2.3,Win32,163.9344262,,,,,,,,,,,,,,,,e,1,0.497,,,,,,朴实,e,,,1,59,139,24,1,,,,,,,,,,,,,,,,,,,,,,,,,,,,,,,,,,
,,,,,,,,,,,,,1,001,2025-01-02_16h59.21.146,IAT(Formal),2021.2.3,Win32,163.9344262,,,,,,,,,,,,,,,,e,1,0.4424,,,,,,我,e,,,1,60,140,50,1,,,,,,,,,,,,,,,,,,,,,,,,,,,,,,,,,,
,,,,,,,,,,,,,1,001,2025-01-02_16h59.21.146,IAT(Formal),2021.2.3,Win32,163.9344262,,,,,,,,,,,,,,,,e,1,0.457,,,,,,我们,e,,,1,61,141,62,1,,,,,,,,,,,,,,,,,,,,,,,,,,,,,,,,,,
,,,,,,,,,,,,,1,001,2025-01-02_16h59.21.146,IAT(Formal),2021.2.3,Win32,163.9344262,,,,,,,,,,,,,,,,e,1,0.4597,,,,,,优秀,e,,,1,62,142,10,1,,,,,,,,,,,,,,,,,,,,,,,,,,,,,,,,,,
,,,,,,,,,,,,,1,001,2025-01-02_16h59.21.146,IAT(Formal),2021.2.3,Win32,163.9344262,,,,,,,,,,,,,,,,e,1,0.4311,,,,,,公正,e,,,1,63,143,23,1,,,,,,,,,,,,,,,,,,,,,,,,,,,,,,,,,,
,,,,,,,,,,,,,1,001,2025-01-02_16h59.21.146,IAT(Formal),2021.2.3,Win32,163.9344262,,,,,,,,,,,,,,,,e,1,0.5064,,,,,,俺,e,,,1,64,144,74,1,,,,,,,,,,,,,,,,,,,,,,,,,,,,,,,,,,
,,,,,,,,,,,,,1,001,2025-01-02_16h59.21.146,IAT(Formal),2021.2.3,Win32,163.9344262,,,,,,,,,,,,,,,,e,1,0.4523,,,,,,我的,e,,,1,65,145,61,1,,,,,,,,,,,,,,,,,,,,,,,,,,,,,,,,,,
,,,,,,,,,,,,,1,001,2025-01-02_16h59.21.146,IAT(Formal),2021.2.3,Win32,163.9344262,,,,,,,,,,,,,,,,i,1,0.7003,,,,,,凶狠,i,,,1,66,146,42,1,,,,,,,,,,,,,,,,,,,,,,,,,,,,,,,,,,
,,,,,,,,,,,,,1,001,2025-01-02_16h59.21.146,IAT(Formal),2021.2.3,Win32,163.9344262,,,,,,,,,,,,,,,,e,1,0.669,,,,,,聪明,e,,,1,67,147,12,1,,,,,,,,,,,,,,,,,,,,,,,,,,,,,,,,,,
,,,,,,,,,,,,,1,001,2025-01-02_16h59.21.146,IAT(Formal),2021.2.3,Win32,163.9344262,,,,,,,,,,,,,,,,e,1,0.4661,,,,,,俺,e,,,1,68,148,64,1,,,,,,,,,,,,,,,,,,,,,,,,,,,,,,,,,,
,,,,,,,,,,,,,1,001,2025-01-02_16h59.21.146,IAT(Formal),2021.2.3,Win32,163.9344262,,,,,,,,,,,,,,,,e,1,0.4418,,,,,,我,e,,,1,69,149,60,1,,,,,,,,,,,,,,,,,,,,,,,,,,,,,,,,,,
,,,,,,,,,,,,,1,001,2025-01-02_16h59.21.146,IAT(Formal),2021.2.3,Win32,163.9344262,,,,,,,,,,,,,,,,i,1,0.5278,,,,,,其他,i,,,1,70,150,59,1,,,,,,,,,,,,,,,,,,,,,,,,,,,,,,,,,,
,,,,,,,,,,,,,1,001,2025-01-02_16h59.21.146,IAT(Formal),2021.2.3,Win32,163.9344262,,,,,,,,,,,,,,,,e,1,0.5448,,,,,,诚恳,e,,,1,71,151,29,1,,,,,,,,,,,,,,,,,,,,,,,,,,,,,,,,,,
,,,,,,,,,,,,,1,001,2025-01-02_16h59.21.146,IAT(Formal),2021.2.3,Win32,163.9344262,,,,,,,,,,,,,,,,i,1,0.6815,,,,,,他们,i,,,1,72,152,76,1,,,,,,,,,,,,,,,,,,,,,,,,,,,,,,,,,,
,,,,,,,,,,,,,1,001,2025-01-02_16h59.21.146,IAT(Formal),2021.2.3,Win32,163.9344262,,,,,,,,,,,,,,,,e,1,0.5777,,,,,,勤奋,e,,,1,73,153,18,1,,,,,,,,,,,,,,,,,,,,,,,,,,,,,,,,,,
,,,,,,,,,,,,,1,001,2025-01-02_16h59.21.146,IAT(Formal),2021.2.3,Win32,163.9344262,,,,,,,,,,,,,,,,e,1,0.4754,,,,,,自己,e,,,1,74,154,53,1,,,,,,,,,,,,,,,,,,,,,,,,,,,,,,,,,,
,,,,,,,,,,,,,1,001,2025-01-02_16h59.21.146,IAT(Formal),2021.2.3,Win32,163.9344262,,,,,,,,,,,,,,,,e,1,0.4999,,,,,,认真,e,,,1,75,155,20,1,,,,,,,,,,,,,,,,,,,,,,,,,,,,,,,,,,
,,,,,,,,,,,,,1,001,2025-01-02_16h59.21.146,IAT(Formal),2021.2.3,Win32,163.9344262,,,,,,,,,,,,,,,,i,1,0.5569,,,,,,他人,i,,,1,76,156,58,1,,,,,,,,,,,,,,,,,,,,,,,,,,,,,,,,,,
,,,,,,,,,,,,,1,001,2025-01-02_16h59.21.146,IAT(Formal),2021.2.3,Win32,163.9344262,,,,,,,,,,,,,,,,i,1,0.5835,,,,,,自卑,i,,,1,77,157,36,1,,,,,,,,,,,,,,,,,,,,,,,,,,,,,,,,,,
,,,,,,,,,,,,,1,001,2025-01-02_16h59.21.146,IAT(Formal),2021.2.3,Win32,163.9344262,,,,,,,,,,,,,,,,e,1,0.5382,,,,,,自己,e,,,1,78,158,3,1,,,,,,,,,,,,,,,,,,,,,,,,,,,,,,,,,,
,,,,,,,,,,,,,1,001,2025-01-02_16h59.21.146,IAT(Formal),2021.2.3,Win32,163.9344262,,,,,,,,,,,,,,,,i,1,0.5756,,,,,,其他,i,,,1,79,159,9,1,,,,,,,,,,,,,,,,,,,,,,,,,,,,,,,,,,
,,,,,,,,,,,他,e,1,001,2025-01-02_16h59.21.146,IAT(Formal),2021.2.3,Win32,163.9344262,,,,,,,,,,,,,,,,,,,,,,,,,,,,,,,,,space,21.8276,e,1,1.3077,0,0,0,5,1,,,,,,,,,,,,,,,,,,,,,,,,
,,,,,,,,,,,我,i,1,001,2025-01-02_16h59.21.146,IAT(Formal),2021.2.3,Win32,163.9344262,,,,,,,,,,,,,,,,,,,,,,,,,,,,,,,,,,,i,1,0.5605,0,1,1,0,1,,,,,,,,,,,,,,,,,,,,,,,,
,,,,,,,,,,,他人,e,1,001,2025-01-02_16h59.21.146,IAT(Formal),2021.2.3,Win32,163.9344262,,,,,,,,,,,,,,,,,,,,,,,,,,,,,,,,,,,e,1,0.7158,0,2,2,8,1,,,,,,,,,,,,,,,,,,,,,,,,
,,,,,,,,,,,他们,e,1,001,2025-01-02_16h59.21.146,IAT(Formal),2021.2.3,Win32,163.9344262,,,,,,,,,,,,,,,,,,,,,,,,,,,,,,,,,,,e,1,0.5289,0,3,3,6,1,,,,,,,,,,,,,,,,,,,,,,,,
,,,,,,,,,,,俺,i,1,001,2025-01-02_16h59.21.146,IAT(Formal),2021.2.3,Win32,163.9344262,,,,,,,,,,,,,,,,,,,,,,,,,,,,,,,,,,,i,1,0.5714,0,4,4,4,1,,,,,,,,,,,,,,,,,,,,,,,,
,,,,,,,,,,,其他,e,1,001,2025-01-02_16h59.21.146,IAT(Formal),2021.2.3,Win32,163.9344262,,,,,,,,,,,,,,,,,,,,,,,,,,,,,,,,,,,e,1,0.5626,0,5,5,9,1,,,,,,,,,,,,,,,,,,,,,,,,
,,,,,,,,,,,我们,i,1,001,2025-01-02_16h59.21.146,IAT(Formal),2021.2.3,Win32,163.9344262,,,,,,,,,,,,,,,,,,,,,,,,,,,,,,,,,,,i,1,0.591,0,6,6,2,1,,,,,,,,,,,,,,,,,,,,,,,,
,,,,,,,,,,,自己,i,1,001,2025-01-02_16h59.21.146,IAT(Formal),2021.2.3,Win32,163.9344262,,,,,,,,,,,,,,,,,,,,,,,,,,,,,,,,,,,i,1,0.5961,0,7,7,3,1,,,,,,,,,,,,,,,,,,,,,,,,
,,,,,,,,,,,我的,i,1,001,2025-01-02_16h59.21.146,IAT(Formal),2021.2.3,Win32,163.9344262,,,,,,,,,,,,,,,,,,,,,,,,,,,,,,,,,,,i,1,0.4672,0,8,8,1,1,,,,,,,,,,,,,,,,,,,,,,,,
,,,,,,,,,,,他的,e,1,001,2025-01-02_16h59.21.146,IAT(Formal),2021.2.3,Win32,163.9344262,,,,,,,,,,,,,,,,,,,,,,,,,,,,,,,,,,,e,1,0.5469,0,9,9,7,1,,,,,,,,,,,,,,,,,,,,,,,,
,,,,,,,,,,,,,1,001,2025-01-02_16h59.21.146,IAT(Formal),2021.2.3,Win32,163.9344262,,,,,,,,,,,,,,,,,,,,,,,,,,,,,,,,,,,,,,,,,,,space,15.9021,i,1,0.9948,0,0,0,34,1,悲观,i,,,,,,,,,,,,
,,,,,,,,,,,,,1,001,2025-01-02_16h59.21.146,IAT(Formal),2021.2.3,Win32,163.9344262,,,,,,,,,,,,,,,,,,,,,,,,,,,,,,,,,,,,,,,,,,,,,e,1,1.1943,0,1,1,23,1,公正,e,,,,,,,,,,,,
,,,,,,,,,,,,,1,001,2025-01-02_16h59.21.146,IAT(Formal),2021.2.3,Win32,163.9344262,,,,,,,,,,,,,,,,,,,,,,,,,,,,,,,,,,,,,,,,,,,,,e,1,1.0341,0,2,2,9,1,其他,e,,,,,,,,,,,,
,,,,,,,,,,,,,1,001,2025-01-02_16h59.21.146,IAT(Formal),2021.2.3,Win32,163.9344262,,,,,,,,,,,,,,,,,,,,,,,,,,,,,,,,,,,,,,,,,,,,,e,1,0.5653,0,3,3,69,1,其他,e,,,,,,,,,,,,
,,,,,,,,,,,,,1,001,2025-01-02_16h59.21.146,IAT(Formal),2021.2.3,Win32,163.9344262,,,,,,,,,,,,,,,,,,,,,,,,,,,,,,,,,,,,,,,,,,,,,e,1,1.4115,0,4,4,15,1,诚实,e,,,,,,,,,,,,
,,,,,,,,,,,,,1,001,2025-01-02_16h59.21.146,IAT(Formal),2021.2.3,Win32,163.9344262,,,,,,,,,,,,,,,,,,,,,,,,,,,,,,,,,,,,,,,,,,,,,i,1,0.7579,0,5,5,2,1,我们,i,,,,,,,,,,,,
,,,,,,,,,,,,,1,001,2025-01-02_16h59.21.146,IAT(Formal),2021.2.3,Win32,163.9344262,,,,,,,,,,,,,,,,,,,,,,,,,,,,,,,,,,,,,,,,,,,,,i,1,0.6813,0,6,6,54,1,俺,i,,,,,,,,,,,,
,,,,,,,,,,,,,1,001,2025-01-02_16h59.21.146,IAT(Formal),2021.2.3,Win32,163.9344262,,,,,,,,,,,,,,,,,,,,,,,,,,,,,,,,,,,,,,,,,,,,,,0,,0,7,7,48,1,轻率,i,,,,,,,,,,,,
,,,,,,,,,,,,,1,001,2025-01-02_16h59.21.146,IAT(Formal),2021.2.3,Win32,163.9344262,,,,,,,,,,,,,,,,,,,,,,,,,,,,,,,,,,,,,,,,,,,,,i,1,0.7858,0,8,8,3,1,自己,i,,,,,,,,,,,,
,,,,,,,,,,,,,1,001,2025-01-02_16h59.21.146,IAT(Formal),2021.2.3,Win32,163.9344262,,,,,,,,,,,,,,,,,,,,,,,,,,,,,,,,,,,,,,,,,,,,,i,1,0.8209,0,9,9,40,1,执拗,i,,,,,,,,,,,,
,,,,,,,,,,,,,1,001,2025-01-02_16h59.21.146,IAT(Formal),2021.2.3,Win32,163.9344262,,,,,,,,,,,,,,,,,,,,,,,,,,,,,,,,,,,,,,,,,,,,,i,1,0.5633,0,10,10,53,1,自己,i,,,,,,,,,,,,
,,,,,,,,,,,,,1,001,2025-01-02_16h59.21.146,IAT(Formal),2021.2.3,Win32,163.9344262,,,,,,,,,,,,,,,,,,,,,,,,,,,,,,,,,,,,,,,,,,,,,i,1,0.4964,0,11,11,74,1,俺,i,,,,,,,,,,,,
,,,,,,,,,,,,,1,001,2025-01-02_16h59.21.146,IAT(Formal),2021.2.3,Win32,163.9344262,,,,,,,,,,,,,,,,,,,,,,,,,,,,,,,,,,,,,,,,,,,,,e,1,1.2007,0,12,12,22,1,无私,e,,,,,,,,,,,,
,,,,,,,,,,,,,1,001,2025-01-02_16h59.21.146,IAT(Formal),2021.2.3,Win32,163.9344262,,,,,,,,,,,,,,,,,,,,,,,,,,,,,,,,,,,,,,,,,,,,,e,1,0.5632,0,13,13,65,1,他,e,,,,,,,,,,,,
,,,,,,,,,,,,,1,001,2025-01-02_16h59.21.146,IAT(Formal),2021.2.3,Win32,163.9344262,,,,,,,,,,,,,,,,,,,,,,,,,,,,,,,,,,,,,,,,,,,,,e,1,0.4641,0,14,14,58,1,他人,e,,,,,,,,,,,,
,,,,,,,,,,,,,1,001,2025-01-02_16h59.21.146,IAT(Formal),2021.2.3,Win32,163.9344262,,,,,,,,,,,,,,,,,,,,,,,,,,,,,,,,,,,,,,,,,,,,,i,1,0.5482,0,15,15,63,1,自己,i,,,,,,,,,,,,
,,,,,,,,,,,,,1,001,2025-01-02_16h59.21.146,IAT(Formal),2021.2.3,Win32,163.9344262,,,,,,,,,,,,,,,,,,,,,,,,,,,,,,,,,,,,,,,,,,,,,e,1,0.7069,0,16,16,11,1,崇高,e,,,,,,,,,,,,
,,,,,,,,,,,,,1,001,2025-01-02_16h59.21.146,IAT(Formal),2021.2.3,Win32,163.9344262,,,,,,,,,,,,,,,,,,,,,,,,,,,,,,,,,,,,,,,,,,,,,i,1,0.5888,0,17,17,44,1,暴躁,i,,,,,,,,,,,,
,,,,,,,,,,,,,1,001,2025-01-02_16h59.21.146,IAT(Formal),2021.2.3,Win32,163.9344262,,,,,,,,,,,,,,,,,,,,,,,,,,,,,,,,,,,,,,,,,,,,,e,1,0.6501,0,18,18,66,1,他们,e,,,,,,,,,,,,
,,,,,,,,,,,,,1,001,2025-01-02_16h59.21.146,IAT(Formal),2021.2.3,Win32,163.9344262,,,,,,,,,,,,,,,,,,,,,,,,,,,,,,,,,,,,,,,,,,,,,i,1,0.5146,0,19,19,60,1,我,i,,,,,,,,,,,,
,,,,,,,,,,,,,1,001,2025-01-02_16h59.21.146,IAT(Formal),2021.2.3,Win32,163.9344262,,,,,,,,,,,,,,,,,,,,,,,,,,,,,,,,,,,,,,,,,,,,,i,1,0.6953,0,20,20,39,1,冒失,i,,,,,,,,,,,,
,,,,,,,,,,,,,1,001,2025-01-02_16h59.21.146,IAT(Formal),2021.2.3,Win32,163.9344262,,,,,,,,,,,,,,,,,,,,,,,,,,,,,,,,,,,,,,,,,,,,,e,1,0.7842,0,21,21,27,1,热情,e,,,,,,,,,,,,
,,,,,,,,,,,,,1,001,2025-01-02_16h59.21.146,IAT(Formal),2021.2.3,Win32,163.9344262,,,,,,,,,,,,,,,,,,,,,,,,,,,,,,,,,,,,,,,,,,,,,i,1,0.6265,0,22,22,49,1,下贱,i,,,,,,,,,,,,
,,,,,,,,,,,,,1,001,2025-01-02_16h59.21.146,IAT(Formal),2021.2.3,Win32,163.9344262,,,,,,,,,,,,,,,,,,,,,,,,,,,,,,,,,,,,,,,,,,,,,i,1,0.6839,0,23,23,62,1,我们,i,,,,,,,,,,,,
,,,,,,,,,,,,,1,001,2025-01-02_16h59.21.146,IAT(Formal),2021.2.3,Win32,163.9344262,,,,,,,,,,,,,,,,,,,,,,,,,,,,,,,,,,,,,,,,,,,,,i,1,0.7599,0,24,24,41,1,散漫,i,,,,,,,,,,,,
,,,,,,,,,,,,,1,001,2025-01-02_16h59.21.146,IAT(Formal),2021.2.3,Win32,163.9344262,,,,,,,,,,,,,,,,,,,,,,,,,,,,,,,,,,,,,,,,,,,,,e,1,0.5787,0,25,25,13,1,杰出,e,,,,,,,,,,,,
,,,,,,,,,,,,,1,001,2025-01-02_16h59.21.146,IAT(Formal),2021.2.3,Win32,163.9344262,,,,,,,,,,,,,,,,,,,,,,,,,,,,,,,,,,,,,,,,,,,,,i,1,0.5644,0,26,26,72,1,我们,i,,,,,,,,,,,,
,,,,,,,,,,,,,1,001,2025-01-02_16h59.21.146,IAT(Formal),2021.2.3,Win32,163.9344262,,,,,,,,,,,,,,,,,,,,,,,,,,,,,,,,,,,,,,,,,,,,,e,1,0.8011,0,27,27,12,1,聪明,e,,,,,,,,,,,,
,,,,,,,,,,,,,1,001,2025-01-02_16h59.21.146,IAT(Formal),2021.2.3,Win32,163.9344262,,,,,,,,,,,,,,,,,,,,,,,,,,,,,,,,,,,,,,,,,,,,,e,1,0.778,0,28,28,14,1,乐观,e,,,,,,,,,,,,
,,,,,,,,,,,,,1,001,2025-01-02_16h59.21.146,IAT(Formal),2021.2.3,Win32,163.9344262,,,,,,,,,,,,,,,,,,,,,,,,,,,,,,,,,,,,,,,,,,,,,e,1,0.7727,0,29,29,75,1,他,e,,,,,,,,,,,,
,,,,,,,,,,,,,1,001,2025-01-02_16h59.21.146,IAT(Formal),2021.2.3,Win32,163.9344262,,,,,,,,,,,,,,,,,,,,,,,,,,,,,,,,,,,,,,,,,,,,,i,1,0.7304,0,30,30,31,1,虚伪,i,,,,,,,,,,,,
,,,,,,,,,,,,,1,001,2025-01-02_16h59.21.146,IAT(Formal),2021.2.3,Win32,163.9344262,,,,,,,,,,,,,,,,,,,,,,,,,,,,,,,,,,,,,,,,,,,,,e,1,0.596,0,31,31,79,1,其他,e,,,,,,,,,,,,
,,,,,,,,,,,,,1,001,2025-01-02_16h59.21.146,IAT(Formal),2021.2.3,Win32,163.9344262,,,,,,,,,,,,,,,,,,,,,,,,,,,,,,,,,,,,,,,,,,,,,e,1,1.0911,0,32,32,25,1,细腻,e,,,,,,,,,,,,
,,,,,,,,,,,,,1,001,2025-01-02_16h59.21.146,IAT(Formal),2021.2.3,Win32,163.9344262,,,,,,,,,,,,,,,,,,,,,,,,,,,,,,,,,,,,,,,,,,,,,i,1,0.8178,0,33,33,37,1,傲慢,i,,,,,,,,,,,,
,,,,,,,,,,,,,1,001,2025-01-02_16h59.21.146,IAT(Formal),2021.2.3,Win32,163.9344262,,,,,,,,,,,,,,,,,,,,,,,,,,,,,,,,,,,,,,,,,,,,,e,1,0.746,0,34,34,8,1,他人,e,,,,,,,,,,,,
,,,,,,,,,,,,,1,001,2025-01-02_16h59.21.146,IAT(Formal),2021.2.3,Win32,163.9344262,,,,,,,,,,,,,,,,,,,,,,,,,,,,,,,,,,,,,,,,,,,,,i,1,0.6637,0,35,35,71,1,我的,i,,,,,,,,,,,,
,,,,,,,,,,,,,1,001,2025-01-02_16h59.21.146,IAT(Formal),2021.2.3,Win32,163.9344262,,,,,,,,,,,,,,,,,,,,,,,,,,,,,,,,,,,,,,,,,,,,,e,1,0.5804,0,36,36,78,1,他人,e,,,,,,,,,,,,
,,,,,,,,,,,,,1,001,2025-01-02_16h59.21.146,IAT(Formal),2021.2.3,Win32,163.9344262,,,,,,,,,,,,,,,,,,,,,,,,,,,,,,,,,,,,,,,,,,,,,i,1,0.8146,0,37,37,42,1,凶狠,i,,,,,,,,,,,,
,,,,,,,,,,,,,1,001,2025-01-02_16h59.21.146,IAT(Formal),2021.2.3,Win32,163.9344262,,,,,,,,,,,,,,,,,,,,,,,,,,,,,,,,,,,,,,,,,,,,,i,1,0.6204,0,38,38,64,1,俺,i,,,,,,,,,,,,
,,,,,,,,,,,,,1,001,2025-01-02_16h59.21.146,IAT(Formal),2021.2.3,Win32,163.9344262,,,,,,,,,,,,,,,,,,,,,,,,,,,,,,,,,,,,,,,,,,,,,i,1,0.715,0,39,39,33,1,刻薄,i,,,,,,,,,,,,
,,,,,,,,,,,,,1,001,2025-01-02_16h59.21.146,IAT(Formal),2021.2.3,Win32,163.9344262,,,,,,,,,,,,,,,,,,,,,,,,,,,,,,,,,,,,,,,,,,,,,e,1,0.576,0,40,40,21,1,稳重,e,,,,,,,,,,,,
,,,,,,,,,,,,,1,001,2025-01-02_16h59.21.146,IAT(Formal),2021.2.3,Win32,163.9344262,,,,,,,,,,,,,,,,,,,,,,,,,,,,,,,,,,,,,,,,,,,,,i,1,0.6181,0,41,41,50,1,我,i,,,,,,,,,,,,
,,,,,,,,,,,,,1,001,2025-01-02_16h59.21.146,IAT(Formal),2021.2.3,Win32,163.9344262,,,,,,,,,,,,,,,,,,,,,,,,,,,,,,,,,,,,,,,,,,,,,e,1,0.7128,0,42,42,57,1,他的,e,,,,,,,,,,,,
,,,,,,,,,,,,,1,001,2025-01-02_16h59.21.146,IAT(Formal),2021.2.3,Win32,163.9344262,,,,,,,,,,,,,,,,,,,,,,,,,,,,,,,,,,,,,,,,,,,,,e,1,0.7319,0,43,43,18,1,勤奋,e,,,,,,,,,,,,
,,,,,,,,,,,,,1,001,2025-01-02_16h59.21.146,IAT(Formal),2021.2.3,Win32,163.9344262,,,,,,,,,,,,,,,,,,,,,,,,,,,,,,,,,,,,,,,,,,,,,i,1,0.832,0,44,44,46,1,野蛮,i,,,,,,,,,,,,
,,,,,,,,,,,,,1,001,2025-01-02_16h59.21.146,IAT(Formal),2021.2.3,Win32,163.9344262,,,,,,,,,,,,,,,,,,,,,,,,,,,,,,,,,,,,,,,,,,,,,i,1,0.7308,0,45,45,70,1,我,i,,,,,,,,,,,,
,,,,,,,,,,,,,1,001,2025-01-02_16h59.21.146,IAT(Formal),2021.2.3,Win32,163.9344262,,,,,,,,,,,,,,,,,,,,,,,,,,,,,,,,,,,,,,,,,,,,,e,1,1.0038,0,46,46,26,1,冷静,e,,,,,,,,,,,,
,,,,,,,,,,,,,1,001,2025-01-02_16h59.21.146,IAT(Formal),2021.2.3,Win32,163.9344262,,,,,,,,,,,,,,,,,,,,,,,,,,,,,,,,,,,,,,,,,,,,,i,1,0.664,0,47,47,36,1,自卑,i,,,,,,,,,,,,
,,,,,,,,,,,,,1,001,2025-01-02_16h59.21.146,IAT(Formal),2021.2.3,Win32,163.9344262,,,,,,,,,,,,,,,,,,,,,,,,,,,,,,,,,,,,,,,,,,,,,,0,,0,48,48,4,1,俺,i,,,,,,,,,,,,
,,,,,,,,,,,,,1,001,2025-01-02_16h59.21.146,IAT(Formal),2021.2.3,Win32,163.9344262,,,,,,,,,,,,,,,,,,,,,,,,,,,,,,,,,,,,,,,,,,,,,e,1,1.235,0,49,49,10,1,优秀,e,,,,,,,,,,,,
,,,,,,,,,,,,,1,001,2025-01-02_16h59.21.146,IAT(Formal),2021.2.3,Win32,163.9344262,,,,,,,,,,,,,,,,,,,,,,,,,,,,,,,,,,,,,,,,,,,,,i,1,0.7421,0,50,50,61,1,我的,i,,,,,,,,,,,,
,,,,,,,,,,,,,1,001,2025-01-02_16h59.21.146,IAT(Formal),2021.2.3,Win32,163.9344262,,,,,,,,,,,,,,,,,,,,,,,,,,,,,,,,,,,,,,,,,,,,,i,1,0.8594,0,51,51,73,1,自己,i,,,,,,,,,,,,
,,,,,,,,,,,,,1,001,2025-01-02_16h59.21.146,IAT(Formal),2021.2.3,Win32,163.9344262,,,,,,,,,,,,,,,,,,,,,,,,,,,,,,,,,,,,,,,,,,,,,i,1,0.712,0,52,52,51,1,我的,i,,,,,,,,,,,,
,,,,,,,,,,,,,1,001,2025-01-02_16h59.21.146,IAT(Formal),2021.2.3,Win32,163.9344262,,,,,,,,,,,,,,,,,,,,,,,,,,,,,,,,,,,,,,,,,,,,,e,1,0.8113,0,53,53,28,1,活泼,e,,,,,,,,,,,,
,,,,,,,,,,,,,1,001,2025-01-02_16h59.21.146,IAT(Formal),2021.2.3,Win32,163.9344262,,,,,,,,,,,,,,,,,,,,,,,,,,,,,,,,,,,,,,,,,,,,,i,1,1.0249,0,54,54,30,1,卑鄙,i,,,,,,,,,,,,
,,,,,,,,,,,,,1,001,2025-01-02_16h59.21.146,IAT(Formal),2021.2.3,Win32,163.9344262,,,,,,,,,,,,,,,,,,,,,,,,,,,,,,,,,,,,,,,,,,,,,e,1,0.7624,0,55,55,17,1,勇敢,e,,,,,,,,,,,,
,,,,,,,,,,,,,1,001,2025-01-02_16h59.21.146,IAT(Formal),2021.2.3,Win32,163.9344262,,,,,,,,,,,,,,,,,,,,,,,,,,,,,,,,,,,,,,,,,,,,,i,1,0.9831,0,56,56,47,1,固执,i,,,,,,,,,,,,
,,,,,,,,,,,,,1,001,2025-01-02_16h59.21.146,IAT(Formal),2021.2.3,Win32,163.9344262,,,,,,,,,,,,,,,,,,,,,,,,,,,,,,,,,,,,,,,,,,,,,e,1,0.7534,0,57,57,77,1,他的,e,,,,,,,,,,,,
,,,,,,,,,,,,,1,001,2025-01-02_16h59.21.146,IAT(Formal),2021.2.3,Win32,163.9344262,,,,,,,,,,,,,,,,,,,,,,,,,,,,,,,,,,,,,,,,,,,,,e,1,0.5314,0,58,58,68,1,他人,e,,,,,,,,,,,,
,,,,,,,,,,,,,1,001,2025-01-02_16h59.21.146,IAT(Formal),2021.2.3,Win32,163.9344262,,,,,,,,,,,,,,,,,,,,,,,,,,,,,,,,,,,,,,,,,,,,,i,1,0.6873,0,59,59,32,1,愚蠢,i,,,,,,,,,,,,
,,,,,,,,,,,,,1,001,2025-01-02_16h59.21.146,IAT(Formal),2021.2.3,Win32,163.9344262,,,,,,,,,,,,,,,,,,,,,,,,,,,,,,,,,,,,,,,,,,,,,e,1,0.635,0,60,60,7,1,他的,e,,,,,,,,,,,,
,,,,,,,,,,,,,1,001,2025-01-02_16h59.21.146,IAT(Formal),2021.2.3,Win32,163.9344262,,,,,,,,,,,,,,,,,,,,,,,,,,,,,,,,,,,,,,,,,,,,,e,1,0.5593,0,61,61,6,1,他们,e,,,,,,,,,,,,
,,,,,,,,,,,,,1,001,2025-01-02_16h59.21.146,IAT(Formal),2021.2.3,Win32,163.9344262,,,,,,,,,,,,,,,,,,,,,,,,,,,,,,,,,,,,,,,,,,,,,i,0,0.7864,0,62,62,20,1,认真,e,,,,,,,,,,,,
,,,,,,,,,,,,,1,001,2025-01-02_16h59.21.146,IAT(Formal),2021.2.3,Win32,163.9344262,,,,,,,,,,,,,,,,,,,,,,,,,,,,,,,,,,,,,,,,,,,,,e,1,0.8473,0,63,63,29,1,诚恳,e,,,,,,,,,,,,
,,,,,,,,,,,,,1,001,2025-01-02_16h59.21.146,IAT(Formal),2021.2.3,Win32,163.9344262,,,,,,,,,,,,,,,,,,,,,,,,,,,,,,,,,,,,,,,,,,,,,i,1,0.6006,0,64,64,45,1,猖狂,i,,,,,,,,,,,,
,,,,,,,,,,,,,1,001,2025-01-02_16h59.21.146,IAT(Formal),2021.2.3,Win32,163.9344262,,,,,,,,,,,,,,,,,,,,,,,,,,,,,,,,,,,,,,,,,,,,,i,1,0.6406,0,65,65,35,1,消极,i,,,,,,,,,,,,
,,,,,,,,,,,,,1,001,2025-01-02_16h59.21.146,IAT(Formal),2021.2.3,Win32,163.9344262,,,,,,,,,,,,,,,,,,,,,,,,,,,,,,,,,,,,,,,,,,,,,e,1,0.5999,0,66,66,5,1,他,e,,,,,,,,,,,,
,,,,,,,,,,,,,1,001,2025-01-02_16h59.21.146,IAT(Formal),2021.2.3,Win32,163.9344262,,,,,,,,,,,,,,,,,,,,,,,,,,,,,,,,,,,,,,,,,,,,,i,1,0.7527,0,67,67,52,1,我们,i,,,,,,,,,,,,
,,,,,,,,,,,,,1,001,2025-01-02_16h59.21.146,IAT(Formal),2021.2.3,Win32,163.9344262,,,,,,,,,,,,,,,,,,,,,,,,,,,,,,,,,,,,,,,,,,,,,i,1,0.6263,0,68,68,0,1,我,i,,,,,,,,,,,,
,,,,,,,,,,,,,1,001,2025-01-02_16h59.21.146,IAT(Formal),2021.2.3,Win32,163.9344262,,,,,,,,,,,,,,,,,,,,,,,,,,,,,,,,,,,,,,,,,,,,,e,1,0.6038,0,69,69,56,1,他们,e,,,,,,,,,,,,
,,,,,,,,,,,,,1,001,2025-01-02_16h59.21.146,IAT(Formal),2021.2.3,Win32,163.9344262,,,,,,,,,,,,,,,,,,,,,,,,,,,,,,,,,,,,,,,,,,,,,e,1,0.5954,0,70,70,16,1,正直,e,,,,,,,,,,,,
,,,,,,,,,,,,,1,001,2025-01-02_16h59.21.146,IAT(Formal),2021.2.3,Win32,163.9344262,,,,,,,,,,,,,,,,,,,,,,,,,,,,,,,,,,,,,,,,,,,,,e,1,0.6105,0,71,71,24,1,朴实,e,,,,,,,,,,,,
,,,,,,,,,,,,,1,001,2025-01-02_16h59.21.146,IAT(Formal),2021.2.3,Win32,163.9344262,,,,,,,,,,,,,,,,,,,,,,,,,,,,,,,,,,,,,,,,,,,,,e,1,0.7191,0,72,72,59,1,其他,e,,,,,,,,,,,,
,,,,,,,,,,,,,1,001,2025-01-02_16h59.21.146,IAT(Formal),2021.2.3,Win32,163.9344262,,,,,,,,,,,,,,,,,,,,,,,,,,,,,,,,,,,,,,,,,,,,,e,1,0.5514,0,73,73,55,1,他,e,,,,,,,,,,,,
,,,,,,,,,,,,,1,001,2025-01-02_16h59.21.146,IAT(Formal),2021.2.3,Win32,163.9344262,,,,,,,,,,,,,,,,,,,,,,,,,,,,,,,,,,,,,,,,,,,,,i,1,0.5297,0,74,74,1,1,我的,i,,,,,,,,,,,,
,,,,,,,,,,,,,1,001,2025-01-02_16h59.21.146,IAT(Formal),2021.2.3,Win32,163.9344262,,,,,,,,,,,,,,,,,,,,,,,,,,,,,,,,,,,,,,,,,,,,,e,1,0.4826,0,75,75,76,1,他们,e,,,,,,,,,,,,
,,,,,,,,,,,,,1,001,2025-01-02_16h59.21.146,IAT(Formal),2021.2.3,Win32,163.9344262,,,,,,,,,,,,,,,,,,,,,,,,,,,,,,,,,,,,,,,,,,,,,e,1,0.5967,0,76,76,19,1,机智,e,,,,,,,,,,,,
,,,,,,,,,,,,,1,001,2025-01-02_16h59.21.146,IAT(Formal),2021.2.3,Win32,163.9344262,,,,,,,,,,,,,,,,,,,,,,,,,,,,,,,,,,,,,,,,,,,,,i,1,0.7949,0,77,77,38,1,鲁莽,i,,,,,,,,,,,,
,,,,,,,,,,,,,1,001,2025-01-02_16h59.21.146,IAT(Formal),2021.2.3,Win32,163.9344262,,,,,,,,,,,,,,,,,,,,,,,,,,,,,,,,,,,,,,,,,,,,,i,1,1.1543,0,78,78,43,1,自私,i,,,,,,,,,,,,
,,,,,,,,,,,,,1,001,2025-01-02_16h59.21.146,IAT(Formal),2021.2.3,Win32,163.9344262,,,,,,,,,,,,,,,,,,,,,,,,,,,,,,,,,,,,,,,,,,,,,e,1,0.6856,0,79,79,67,1,他的,e,,,,,,,,,,,,
,,,,,,,,,,,,,1,001,2025-01-02_16h59.21.146,IAT(Formal),2021.2.3,Win32,163.9344262,,,,,,,,,,,,,,,,,,,,,,,,,,,,,,,,,,,,,,,,,,,,,,,,,,,,,刻薄,i,space,12.3174,i,1,0.7757,0,0,0,33,1,,
,,,,,,,,,,,,,1,001,2025-01-02_16h59.21.146,IAT(Formal),2021.2.3,Win32,163.9344262,,,,,,,,,,,,,,,,,,,,,,,,,,,,,,,,,,,,,,,,,,,,,,,,,,,,,他,e,,,e,1,0.5297,0,1,1,5,1,,
,,,,,,,,,,,,,1,001,2025-01-02_16h59.21.146,IAT(Formal),2021.2.3,Win32,163.9344262,,,,,,,,,,,,,,,,,,,,,,,,,,,,,,,,,,,,,,,,,,,,,,,,,,,,,杰出,e,,,e,1,0.4828,0,2,2,13,1,,
,,,,,,,,,,,,,1,001,2025-01-02_16h59.21.146,IAT(Formal),2021.2.3,Win32,163.9344262,,,,,,,,,,,,,,,,,,,,,,,,,,,,,,,,,,,,,,,,,,,,,,,,,,,,,聪明,e,,,e,1,0.5034,0,3,3,12,1,,
,,,,,,,,,,,,,1,001,2025-01-02_16h59.21.146,IAT(Formal),2021.2.3,Win32,163.9344262,,,,,,,,,,,,,,,,,,,,,,,,,,,,,,,,,,,,,,,,,,,,,,,,,,,,,我的,i,,,i,1,0.4422,0,4,4,1,1,,
,,,,,,,,,,,,,1,001,2025-01-02_16h59.21.146,IAT(Formal),2021.2.3,Win32,163.9344262,,,,,,,,,,,,,,,,,,,,,,,,,,,,,,,,,,,,,,,,,,,,,,,,,,,,,虚伪,i,,,i,1,0.5129,0,5,5,31,1,,
,,,,,,,,,,,,,1,001,2025-01-02_16h59.21.146,IAT(Formal),2021.2.3,Win32,163.9344262,,,,,,,,,,,,,,,,,,,,,,,,,,,,,,,,,,,,,,,,,,,,,,,,,,,,,冒失,i,,,i,1,0.516,0,6,6,39,1,,
,,,,,,,,,,,,,1,001,2025-01-02_16h59.21.146,IAT(Formal),2021.2.3,Win32,163.9344262,,,,,,,,,,,,,,,,,,,,,,,,,,,,,,,,,,,,,,,,,,,,,,,,,,,,,固执,i,,,i,1,0.4742,0,7,7,47,1,,
,,,,,,,,,,,,,1,001,2025-01-02_16h59.21.146,IAT(Formal),2021.2.3,Win32,163.9344262,,,,,,,,,,,,,,,,,,,,,,,,,,,,,,,,,,,,,,,,,,,,,,,,,,,,,稳重,e,,,e,1,0.5698,0,8,8,21,1,,
,,,,,,,,,,,,,1,001,2025-01-02_16h59.21.146,IAT(Formal),2021.2.3,Win32,163.9344262,,,,,,,,,,,,,,,,,,,,,,,,,,,,,,,,,,,,,,,,,,,,,,,,,,,,,他的,e,,,e,1,0.857,0,9,9,57,1,,
,,,,,,,,,,,,,1,001,2025-01-02_16h59.21.146,IAT(Formal),2021.2.3,Win32,163.9344262,,,,,,,,,,,,,,,,,,,,,,,,,,,,,,,,,,,,,,,,,,,,,,,,,,,,,他,e,,,e,1,0.5323,0,10,10,55,1,,
,,,,,,,,,,,,,1,001,2025-01-02_16h59.21.146,IAT(Formal),2021.2.3,Win32,163.9344262,,,,,,,,,,,,,,,,,,,,,,,,,,,,,,,,,,,,,,,,,,,,,,,,,,,,,凶狠,i,,,i,1,0.5984,0,11,11,42,1,,
,,,,,,,,,,,,,1,001,2025-01-02_16h59.21.146,IAT(Formal),2021.2.3,Win32,163.9344262,,,,,,,,,,,,,,,,,,,,,,,,,,,,,,,,,,,,,,,,,,,,,,,,,,,,,我们,i,,,i,1,0.5925,0,12,12,72,1,,
,,,,,,,,,,,,,1,001,2025-01-02_16h59.21.146,IAT(Formal),2021.2.3,Win32,163.9344262,,,,,,,,,,,,,,,,,,,,,,,,,,,,,,,,,,,,,,,,,,,,,,,,,,,,,野蛮,i,,,i,1,0.6062,0,13,13,46,1,,
,,,,,,,,,,,,,1,001,2025-01-02_16h59.21.146,IAT(Formal),2021.2.3,Win32,163.9344262,,,,,,,,,,,,,,,,,,,,,,,,,,,,,,,,,,,,,,,,,,,,,,,,,,,,,诚实,e,,,e,1,0.9051,0,14,14,15,1,,
,,,,,,,,,,,,,1,001,2025-01-02_16h59.21.146,IAT(Formal),2021.2.3,Win32,163.9344262,,,,,,,,,,,,,,,,,,,,,,,,,,,,,,,,,,,,,,,,,,,,,,,,,,,,,下贱,i,,,i,1,0.6283,0,15,15,49,1,,
,,,,,,,,,,,,,1,001,2025-01-02_16h59.21.146,IAT(Formal),2021.2.3,Win32,163.9344262,,,,,,,,,,,,,,,,,,,,,,,,,,,,,,,,,,,,,,,,,,,,,,,,,,,,,他们,e,,,e,1,0.7015,0,16,16,6,1,,
,,,,,,,,,,,,,1,001,2025-01-02_16h59.21.146,IAT(Formal),2021.2.3,Win32,163.9344262,,,,,,,,,,,,,,,,,,,,,,,,,,,,,,,,,,,,,,,,,,,,,,,,,,,,,他们,e,,,e,1,0.7374,0,17,17,56,1,,
,,,,,,,,,,,,,1,001,2025-01-02_16h59.21.146,IAT(Formal),2021.2.3,Win32,163.9344262,,,,,,,,,,,,,,,,,,,,,,,,,,,,,,,,,,,,,,,,,,,,,,,,,,,,,无私,e,,,i,0,0.8351,0,18,18,22,1,,
,,,,,,,,,,,,,1,001,2025-01-02_16h59.21.146,IAT(Formal),2021.2.3,Win32,163.9344262,,,,,,,,,,,,,,,,,,,,,,,,,,,,,,,,,,,,,,,,,,,,,,,,,,,,,正直,e,,,e,1,0.6959,0,19,19,16,1,,
,,,,,,,,,,,,,1,001,2025-01-02_16h59.21.146,IAT(Formal),2021.2.3,Win32,163.9344262,,,,,,,,,,,,,,,,,,,,,,,,,,,,,,,,,,,,,,,,,,,,,,,,,,,,,俺,i,,,i,1,0.7849,0,20,20,74,1,,
,,,,,,,,,,,,,1,001,2025-01-02_16h59.21.146,IAT(Formal),2021.2.3,Win32,163.9344262,,,,,,,,,,,,,,,,,,,,,,,,,,,,,,,,,,,,,,,,,,,,,,,,,,,,,我,i,,,i,1,0.6993,0,21,21,50,1,,
,,,,,,,,,,,,,1,001,2025-01-02_16h59.21.146,IAT(Formal),2021.2.3,Win32,163.9344262,,,,,,,,,,,,,,,,,,,,,,,,,,,,,,,,,,,,,,,,,,,,,,,,,,,,,勤奋,e,,,e,1,0.7387,0,22,22,18,1,,
,,,,,,,,,,,,,1,001,2025-01-02_16h59.21.146,IAT(Formal),2021.2.3,Win32,163.9344262,,,,,,,,,,,,,,,,,,,,,,,,,,,,,,,,,,,,,,,,,,,,,,,,,,,,,细腻,e,,,e,1,0.6485,0,23,23,25,1,,
,,,,,,,,,,,,,1,001,2025-01-02_16h59.21.146,IAT(Formal),2021.2.3,Win32,163.9344262,,,,,,,,,,,,,,,,,,,,,,,,,,,,,,,,,,,,,,,,,,,,,,,,,,,,,其他,e,,,e,1,0.6808,0,24,24,69,1,,
,,,,,,,,,,,,,1,001,2025-01-02_16h59.21.146,IAT(Formal),2021.2.3,Win32,163.9344262,,,,,,,,,,,,,,,,,,,,,,,,,,,,,,,,,,,,,,,,,,,,,,,,,,,,,我的,i,,,i,1,0.7801,0,25,25,61,1,,
,,,,,,,,,,,,,1,001,2025-01-02_16h59.21.146,IAT(Formal),2021.2.3,Win32,163.9344262,,,,,,,,,,,,,,,,,,,,,,,,,,,,,,,,,,,,,,,,,,,,,,,,,,,,,其他,e,,,e,1,0.5746,0,26,26,9,1,,
,,,,,,,,,,,,,1,001,2025-01-02_16h59.21.146,IAT(Formal),2021.2.3,Win32,163.9344262,,,,,,,,,,,,,,,,,,,,,,,,,,,,,,,,,,,,,,,,,,,,,,,,,,,,,我,i,,,i,1,0.6159,0,27,27,60,1,,
,,,,,,,,,,,,,1,001,2025-01-02_16h59.21.146,IAT(Formal),2021.2.3,Win32,163.9344262,,,,,,,,,,,,,,,,,,,,,,,,,,,,,,,,,,,,,,,,,,,,,,,,,,,,,优秀,e,,,e,1,1.188,0,28,28,10,1,,
,,,,,,,,,,,,,1,001,2025-01-02_16h59.21.146,IAT(Formal),2021.2.3,Win32,163.9344262,,,,,,,,,,,,,,,,,,,,,,,,,,,,,,,,,,,,,,,,,,,,,,,,,,,,,公正,e,,,e,1,1.1219,0,29,29,23,1,,
,,,,,,,,,,,,,1,001,2025-01-02_16h59.21.146,IAT(Formal),2021.2.3,Win32,163.9344262,,,,,,,,,,,,,,,,,,,,,,,,,,,,,,,,,,,,,,,,,,,,,,,,,,,,,他人,e,,,e,1,1.2343,0,30,30,78,1,,
,,,,,,,,,,,,,1,001,2025-01-02_16h59.21.146,IAT(Formal),2021.2.3,Win32,163.9344262,,,,,,,,,,,,,,,,,,,,,,,,,,,,,,,,,,,,,,,,,,,,,,,,,,,,,勇敢,e,,,e,1,0.8382,0,31,31,17,1,,
,,,,,,,,,,,,,1,001,2025-01-02_16h59.21.146,IAT(Formal),2021.2.3,Win32,163.9344262,,,,,,,,,,,,,,,,,,,,,,,,,,,,,,,,,,,,,,,,,,,,,,,,,,,,,鲁莽,i,,,i,1,0.8178,0,32,32,38,1,,
,,,,,,,,,,,,,1,001,2025-01-02_16h59.21.146,IAT(Formal),2021.2.3,Win32,163.9344262,,,,,,,,,,,,,,,,,,,,,,,,,,,,,,,,,,,,,,,,,,,,,,,,,,,,,他们,e,,,e,1,0.6812,0,33,33,76,1,,
,,,,,,,,,,,,,1,001,2025-01-02_16h59.21.146,IAT(Formal),2021.2.3,Win32,163.9344262,,,,,,,,,,,,,,,,,,,,,,,,,,,,,,,,,,,,,,,,,,,,,,,,,,,,,崇高,e,,,e,1,0.5627,0,34,34,11,1,,
,,,,,,,,,,,,,1,001,2025-01-02_16h59.21.146,IAT(Formal),2021.2.3,Win32,163.9344262,,,,,,,,,,,,,,,,,,,,,,,,,,,,,,,,,,,,,,,,,,,,,,,,,,,,,悲观,i,,,i,1,0.6968,0,35,35,34,1,,
,,,,,,,,,,,,,1,001,2025-01-02_16h59.21.146,IAT(Formal),2021.2.3,Win32,163.9344262,,,,,,,,,,,,,,,,,,,,,,,,,,,,,,,,,,,,,,,,,,,,,,,,,,,,,他的,e,,,e,1,0.5607,0,36,36,67,1,,
,,,,,,,,,,,,,1,001,2025-01-02_16h59.21.146,IAT(Formal),2021.2.3,Win32,163.9344262,,,,,,,,,,,,,,,,,,,,,,,,,,,,,,,,,,,,,,,,,,,,,,,,,,,,,猖狂,i,,,i,1,0.7074,0,37,37,45,1,,
,,,,,,,,,,,,,1,001,2025-01-02_16h59.21.146,IAT(Formal),2021.2.3,Win32,163.9344262,,,,,,,,,,,,,,,,,,,,,,,,,,,,,,,,,,,,,,,,,,,,,,,,,,,,,热情,e,,,e,1,0.6473,0,38,38,27,1,,
,,,,,,,,,,,,,1,001,2025-01-02_16h59.21.146,IAT(Formal),2021.2.3,Win32,163.9344262,,,,,,,,,,,,,,,,,,,,,,,,,,,,,,,,,,,,,,,,,,,,,,,,,,,,,自己,i,,,i,1,0.6559,0,39,39,3,1,,
,,,,,,,,,,,,,1,001,2025-01-02_16h59.21.146,IAT(Formal),2021.2.3,Win32,163.9344262,,,,,,,,,,,,,,,,,,,,,,,,,,,,,,,,,,,,,,,,,,,,,,,,,,,,,我的,i,,,i,1,0.5635,0,40,40,51,1,,
,,,,,,,,,,,,,1,001,2025-01-02_16h59.21.146,IAT(Formal),2021.2.3,Win32,163.9344262,,,,,,,,,,,,,,,,,,,,,,,,,,,,,,,,,,,,,,,,,,,,,,,,,,,,,卑鄙,i,,,i,1,1.1198,0,41,41,30,1,,
,,,,,,,,,,,,,1,001,2025-01-02_16h59.21.146,IAT(Formal),2021.2.3,Win32,163.9344262,,,,,,,,,,,,,,,,,,,,,,,,,,,,,,,,,,,,,,,,,,,,,,,,,,,,,我,i,,,i,1,0.7526,0,42,42,0,1,,
,,,,,,,,,,,,,1,001,2025-01-02_16h59.21.146,IAT(Formal),2021.2.3,Win32,163.9344262,,,,,,,,,,,,,,,,,,,,,,,,,,,,,,,,,,,,,,,,,,,,,,,,,,,,,诚恳,e,,,e,1,0.5387,0,43,43,29,1,,
,,,,,,,,,,,,,1,001,2025-01-02_16h59.21.146,IAT(Formal),2021.2.3,Win32,163.9344262,,,,,,,,,,,,,,,,,,,,,,,,,,,,,,,,,,,,,,,,,,,,,,,,,,,,,执拗,i,,,i,1,0.6872,0,44,44,40,1,,
,,,,,,,,,,,,,1,001,2025-01-02_16h59.21.146,IAT(Formal),2021.2.3,Win32,163.9344262,,,,,,,,,,,,,,,,,,,,,,,,,,,,,,,,,,,,,,,,,,,,,,,,,,,,,乐观,e,,,e,1,0.6837,0,45,45,14,1,,
,,,,,,,,,,,,,1,001,2025-01-02_16h59.21.146,IAT(Formal),2021.2.3,Win32,163.9344262,,,,,,,,,,,,,,,,,,,,,,,,,,,,,,,,,,,,,,,,,,,,,,,,,,,,,俺,i,,,i,1,0.5749,0,46,46,54,1,,
,,,,,,,,,,,,,1,001,2025-01-02_16h59.21.146,IAT(Formal),2021.2.3,Win32,163.9344262,,,,,,,,,,,,,,,,,,,,,,,,,,,,,,,,,,,,,,,,,,,,,,,,,,,,,消极,i,,,i,1,0.6637,0,47,47,35,1,,
,,,,,,,,,,,,,1,001,2025-01-02_16h59.21.146,IAT(Formal),2021.2.3,Win32,163.9344262,,,,,,,,,,,,,,,,,,,,,,,,,,,,,,,,,,,,,,,,,,,,,,,,,,,,,他,e,,,e,1,0.8365,0,48,48,65,1,,
,,,,,,,,,,,,,1,001,2025-01-02_16h59.21.146,IAT(Formal),2021.2.3,Win32,163.9344262,,,,,,,,,,,,,,,,,,,,,,,,,,,,,,,,,,,,,,,,,,,,,,,,,,,,,轻率,i,,,i,1,0.8804,0,49,49,48,1,,
,,,,,,,,,,,,,1,001,2025-01-02_16h59.21.146,IAT(Formal),2021.2.3,Win32,163.9344262,,,,,,,,,,,,,,,,,,,,,,,,,,,,,,,,,,,,,,,,,,,,,,,,,,,,,愚蠢,i,,,i,1,0.7635,0,50,50,32,1,,
,,,,,,,,,,,,,1,001,2025-01-02_16h59.21.146,IAT(Formal),2021.2.3,Win32,163.9344262,,,,,,,,,,,,,,,,,,,,,,,,,,,,,,,,,,,,,,,,,,,,,,,,,,,,,我,i,,,i,1,1.4484,0,51,51,70,1,,
,,,,,,,,,,,,,1,001,2025-01-02_16h59.21.146,IAT(Formal),2021.2.3,Win32,163.9344262,,,,,,,,,,,,,,,,,,,,,,,,,,,,,,,,,,,,,,,,,,,,,,,,,,,,,他人,e,,,e,1,0.6976,0,52,52,58,1,,
,,,,,,,,,,,,,1,001,2025-01-02_16h59.21.146,IAT(Formal),2021.2.3,Win32,163.9344262,,,,,,,,,,,,,,,,,,,,,,,,,,,,,,,,,,,,,,,,,,,,,,,,,,,,,朴实,e,,,e,1,1.1685,0,53,53,24,1,,
,,,,,,,,,,,,,1,001,2025-01-02_16h59.21.146,IAT(Formal),2021.2.3,Win32,163.9344262,,,,,,,,,,,,,,,,,,,,,,,,,,,,,,,,,,,,,,,,,,,,,,,,,,,,,他人,e,,,e,1,0.8496,0,54,54,8,1,,
,,,,,,,,,,,,,1,001,2025-01-02_16h59.21.146,IAT(Formal),2021.2.3,Win32,163.9344262,,,,,,,,,,,,,,,,,,,,,,,,,,,,,,,,,,,,,,,,,,,,,,,,,,,,,他们,e,,,e,1,0.7369,0,55,55,66,1,,
,,,,,,,,,,,,,1,001,2025-01-02_16h59.21.146,IAT(Formal),2021.2.3,Win32,163.9344262,,,,,,,,,,,,,,,,,,,,,,,,,,,,,,,,,,,,,,,,,,,,,,,,,,,,,自私,i,,,,0,,0,56,56,43,1,,
,,,,,,,,,,,,,1,001,2025-01-02_16h59.21.146,IAT(Formal),2021.2.3,Win32,163.9344262,,,,,,,,,,,,,,,,,,,,,,,,,,,,,,,,,,,,,,,,,,,,,,,,,,,,,其他,e,,,e,1,0.867,0,57,57,59,1,,
,,,,,,,,,,,,,1,001,2025-01-02_16h59.21.146,IAT(Formal),2021.2.3,Win32,163.9344262,,,,,,,,,,,,,,,,,,,,,,,,,,,,,,,,,,,,,,,,,,,,,,,,,,,,,自卑,i,,,i,1,0.7682,0,58,58,36,1,,
,,,,,,,,,,,,,1,001,2025-01-02_16h59.21.146,IAT(Formal),2021.2.3,Win32,163.9344262,,,,,,,,,,,,,,,,,,,,,,,,,,,,,,,,,,,,,,,,,,,,,,,,,,,,,其他,e,,,e,1,0.6959,0,59,59,79,1,,
,,,,,,,,,,,,,1,001,2025-01-02_16h59.21.146,IAT(Formal),2021.2.3,Win32,163.9344262,,,,,,,,,,,,,,,,,,,,,,,,,,,,,,,,,,,,,,,,,,,,,,,,,,,,,冷静,e,,,e,1,0.7992,0,60,60,26,1,,
,,,,,,,,,,,,,1,001,2025-01-02_16h59.21.146,IAT(Formal),2021.2.3,Win32,163.9344262,,,,,,,,,,,,,,,,,,,,,,,,,,,,,,,,,,,,,,,,,,,,,,,,,,,,,自己,i,,,i,1,0.7921,0,61,61,73,1,,
,,,,,,,,,,,,,1,001,2025-01-02_16h59.21.146,IAT(Formal),2021.2.3,Win32,163.9344262,,,,,,,,,,,,,,,,,,,,,,,,,,,,,,,,,,,,,,,,,,,,,,,,,,,,,认真,e,,,e,1,0.7989,0,62,62,20,1,,
,,,,,,,,,,,,,1,001,2025-01-02_16h59.21.146,IAT(Formal),2021.2.3,Win32,163.9344262,,,,,,,,,,,,,,,,,,,,,,,,,,,,,,,,,,,,,,,,,,,,,,,,,,,,,他的,e,,,e,1,0.744,0,63,63,7,1,,
,,,,,,,,,,,,,1,001,2025-01-02_16h59.21.146,IAT(Formal),2021.2.3,Win32,163.9344262,,,,,,,,,,,,,,,,,,,,,,,,,,,,,,,,,,,,,,,,,,,,,,,,,,,,,俺,i,,,i,1,0.6648,0,64,64,4,1,,
,,,,,,,,,,,,,1,001,2025-01-02_16h59.21.146,IAT(Formal),2021.2.3,Win32,163.9344262,,,,,,,,,,,,,,,,,,,,,,,,,,,,,,,,,,,,,,,,,,,,,,,,,,,,,俺,i,,,i,1,0.6316,0,65,65,64,1,,
,,,,,,,,,,,,,1,001,2025-01-02_16h59.21.146,IAT(Formal),2021.2.3,Win32,163.9344262,,,,,,,,,,,,,,,,,,,,,,,,,,,,,,,,,,,,,,,,,,,,,,,,,,,,,机智,e,,,,0,,0,66,66,19,1,,
,,,,,,,,,,,,,1,001,2025-01-02_16h59.21.146,IAT(Formal),2021.2.3,Win32,163.9344262,,,,,,,,,,,,,,,,,,,,,,,,,,,,,,,,,,,,,,,,,,,,,,,,,,,,,散漫,i,,,i,1,0.6462,0,67,67,41,1,,
,,,,,,,,,,,,,1,001,2025-01-02_16h59.21.146,IAT(Formal),2021.2.3,Win32,163.9344262,,,,,,,,,,,,,,,,,,,,,,,,,,,,,,,,,,,,,,,,,,,,,,,,,,,,,活泼,e,,,e,1,0.6949,0,68,68,28,1,,
,,,,,,,,,,,,,1,001,2025-01-02_16h59.21.146,IAT(Formal),2021.2.3,Win32,163.9344262,,,,,,,,,,,,,,,,,,,,,,,,,,,,,,,,,,,,,,,,,,,,,,,,,,,,,我们,i,,,e,0,0.5754,0,69,69,52,1,,
,,,,,,,,,,,,,1,001,2025-01-02_16h59.21.146,IAT(Formal),2021.2.3,Win32,163.9344262,,,,,,,,,,,,,,,,,,,,,,,,,,,,,,,,,,,,,,,,,,,,,,,,,,,,,他的,e,,,e,1,0.6807,0,70,70,77,1,,
,,,,,,,,,,,,,1,001,2025-01-02_16h59.21.146,IAT(Formal),2021.2.3,Win32,163.9344262,,,,,,,,,,,,,,,,,,,,,,,,,,,,,,,,,,,,,,,,,,,,,,,,,,,,,他,e,,,e,1,0.8188,0,71,71,75,1,,
,,,,,,,,,,,,,1,001,2025-01-02_16h59.21.146,IAT(Formal),2021.2.3,Win32,163.9344262,,,,,,,,,,,,,,,,,,,,,,,,,,,,,,,,,,,,,,,,,,,,,,,,,,,,,他人,e,,,e,1,0.7135,0,72,72,68,1,,
,,,,,,,,,,,,,1,001,2025-01-02_16h59.21.146,IAT(Formal),2021.2.3,Win32,163.9344262,,,,,,,,,,,,,,,,,,,,,,,,,,,,,,,,,,,,,,,,,,,,,,,,,,,,,我的,i,,,i,1,0.7592,0,73,73,71,1,,
,,,,,,,,,,,,,1,001,2025-01-02_16h59.21.146,IAT(Formal),2021.2.3,Win32,163.9344262,,,,,,,,,,,,,,,,,,,,,,,,,,,,,,,,,,,,,,,,,,,,,,,,,,,,,自己,i,,,i,1,0.6994,0,74,74,63,1,,
,,,,,,,,,,,,,1,001,2025-01-02_16h59.21.146,IAT(Formal),2021.2.3,Win32,163.9344262,,,,,,,,,,,,,,,,,,,,,,,,,,,,,,,,,,,,,,,,,,,,,,,,,,,,,我们,i,,,i,1,1.3068,0,75,75,2,1,,
,,,,,,,,,,,,,1,001,2025-01-02_16h59.21.146,IAT(Formal),2021.2.3,Win32,163.9344262,,,,,,,,,,,,,,,,,,,,,,,,,,,,,,,,,,,,,,,,,,,,,,,,,,,,,傲慢,i,,,i,1,0.6846,0,76,76,37,1,,
,,,,,,,,,,,,,1,001,2025-01-02_16h59.21.146,IAT(Formal),2021.2.3,Win32,163.9344262,,,,,,,,,,,,,,,,,,,,,,,,,,,,,,,,,,,,,,,,,,,,,,,,,,,,,我们,i,,,i,1,0.6733,0,77,77,62,1,,
,,,,,,,,,,,,,1,001,2025-01-02_16h59.21.146,IAT(Formal),2021.2.3,Win32,163.9344262,,,,,,,,,,,,,,,,,,,,,,,,,,,,,,,,,,,,,,,,,,,,,,,,,,,,,暴躁,i,,,i,1,0.6802,0,78,78,44,1,,
,,,,,,,,,,,,,1,001,2025-01-02_16h59.21.146,IAT(Formal),2021.2.3,Win32,163.9344262,,,,,,,,,,,,,,,,,,,,,,,,,,,,,,,,,,,,,,,,,,,,,,,,,,,,,自己,i,,,i,1,0.8197,0,79,79,53,1,,
,,,,,,,,,,,,,1,001,2025-01-02_16h59.21.146,IAT(Formal),2021.2.3,Win32,163.9344262,,,,,,,,,,,,,,,,,,,,,,,,,,,,,,,,,,,,,,,,,,,,,,,,,,,,,我,i,,,i,1,0.6977,1,0,80,60,1,,
,,,,,,,,,,,,,1,001,2025-01-02_16h59.21.146,IAT(Formal),2021.2.3,Win32,163.9344262,,,,,,,,,,,,,,,,,,,,,,,,,,,,,,,,,,,,,,,,,,,,,,,,,,,,,无私,e,,,e,1,1.4808,1,1,81,22,1,,
,,,,,,,,,,,,,1,001,2025-01-02_16h59.21.146,IAT(Formal),2021.2.3,Win32,163.9344262,,,,,,,,,,,,,,,,,,,,,,,,,,,,,,,,,,,,,,,,,,,,,,,,,,,,,自己,i,,,i,1,0.6446,1,2,82,63,1,,
,,,,,,,,,,,,,1,001,2025-01-02_16h59.21.146,IAT(Formal),2021.2.3,Win32,163.9344262,,,,,,,,,,,,,,,,,,,,,,,,,,,,,,,,,,,,,,,,,,,,,,,,,,,,,自私,i,,,i,1,1.0024,1,3,83,43,1,,
,,,,,,,,,,,,,1,001,2025-01-02_16h59.21.146,IAT(Formal),2021.2.3,Win32,163.9344262,,,,,,,,,,,,,,,,,,,,,,,,,,,,,,,,,,,,,,,,,,,,,,,,,,,,,杰出,e,,,,0,,1,4,84,13,1,,
,,,,,,,,,,,,,1,001,2025-01-02_16h59.21.146,IAT(Formal),2021.2.3,Win32,163.9344262,,,,,,,,,,,,,,,,,,,,,,,,,,,,,,,,,,,,,,,,,,,,,,,,,,,,,暴躁,i,,,i,1,0.8422,1,5,85,44,1,,
,,,,,,,,,,,,,1,001,2025-01-02_16h59.21.146,IAT(Formal),2021.2.3,Win32,163.9344262,,,,,,,,,,,,,,,,,,,,,,,,,,,,,,,,,,,,,,,,,,,,,,,,,,,,,猖狂,i,,,i,1,0.8791,1,6,86,45,1,,
,,,,,,,,,,,,,1,001,2025-01-02_16h59.21.146,IAT(Formal),2021.2.3,Win32,163.9344262,,,,,,,,,,,,,,,,,,,,,,,,,,,,,,,,,,,,,,,,,,,,,,,,,,,,,我,i,,,i,1,0.5939,1,7,87,70,1,,
,,,,,,,,,,,,,1,001,2025-01-02_16h59.21.146,IAT(Formal),2021.2.3,Win32,163.9344262,,,,,,,,,,,,,,,,,,,,,,,,,,,,,,,,,,,,,,,,,,,,,,,,,,,,,他的,e,,,e,1,0.6809,1,8,88,57,1,,
,,,,,,,,,,,,,1,001,2025-01-02_16h59.21.146,IAT(Formal),2021.2.3,Win32,163.9344262,,,,,,,,,,,,,,,,,,,,,,,,,,,,,,,,,,,,,,,,,,,,,,,,,,,,,其他,e,,,e,1,1.1552,1,9,89,9,1,,
,,,,,,,,,,,,,1,001,2025-01-02_16h59.21.146,IAT(Formal),2021.2.3,Win32,163.9344262,,,,,,,,,,,,,,,,,,,,,,,,,,,,,,,,,,,,,,,,,,,,,,,,,,,,,他们,e,,,e,1,0.6546,1,10,90,6,1,,
,,,,,,,,,,,,,1,001,2025-01-02_16h59.21.146,IAT(Formal),2021.2.3,Win32,163.9344262,,,,,,,,,,,,,,,,,,,,,,,,,,,,,,,,,,,,,,,,,,,,,,,,,,,,,刻薄,i,,,i,1,0.6955,1,11,91,33,1,,
,,,,,,,,,,,,,1,001,2025-01-02_16h59.21.146,IAT(Formal),2021.2.3,Win32,163.9344262,,,,,,,,,,,,,,,,,,,,,,,,,,,,,,,,,,,,,,,,,,,,,,,,,,,,,鲁莽,i,,,i,1,0.8301,1,12,92,38,1,,
,,,,,,,,,,,,,1,001,2025-01-02_16h59.21.146,IAT(Formal),2021.2.3,Win32,163.9344262,,,,,,,,,,,,,,,,,,,,,,,,,,,,,,,,,,,,,,,,,,,,,,,,,,,,,勇敢,e,,,e,1,0.8811,1,13,93,17,1,,
,,,,,,,,,,,,,1,001,2025-01-02_16h59.21.146,IAT(Formal),2021.2.3,Win32,163.9344262,,,,,,,,,,,,,,,,,,,,,,,,,,,,,,,,,,,,,,,,,,,,,,,,,,,,,我们,i,,,i,1,0.7476,1,14,94,62,1,,
,,,,,,,,,,,,,1,001,2025-01-02_16h59.21.146,IAT(Formal),2021.2.3,Win32,163.9344262,,,,,,,,,,,,,,,,,,,,,,,,,,,,,,,,,,,,,,,,,,,,,,,,,,,,,他的,e,,,e,1,0.6207,1,15,95,67,1,,
,,,,,,,,,,,,,1,001,2025-01-02_16h59.21.146,IAT(Formal),2021.2.3,Win32,163.9344262,,,,,,,,,,,,,,,,,,,,,,,,,,,,,,,,,,,,,,,,,,,,,,,,,,,,,勤奋,e,,,e,1,1.1532,1,16,96,18,1,,
,,,,,,,,,,,,,1,001,2025-01-02_16h59.21.146,IAT(Formal),2021.2.3,Win32,163.9344262,,,,,,,,,,,,,,,,,,,,,,,,,,,,,,,,,,,,,,,,,,,,,,,,,,,,,他的,e,,,e,1,0.9002,1,17,97,77,1,,
,,,,,,,,,,,,,1,001,2025-01-02_16h59.21.146,IAT(Formal),2021.2.3,Win32,163.9344262,,,,,,,,,,,,,,,,,,,,,,,,,,,,,,,,,,,,,,,,,,,,,,,,,,,,,认真,e,,,e,1,0.6833,1,18,98,20,1,,
,,,,,,,,,,,,,1,001,2025-01-02_16h59.21.146,IAT(Formal),2021.2.3,Win32,163.9344262,,,,,,,,,,,,,,,,,,,,,,,,,,,,,,,,,,,,,,,,,,,,,,,,,,,,,卑鄙,i,,,i,1,0.7106,1,19,99,30,1,,
,,,,,,,,,,,,,1,001,2025-01-02_16h59.21.146,IAT(Formal),2021.2.3,Win32,163.9344262,,,,,,,,,,,,,,,,,,,,,,,,,,,,,,,,,,,,,,,,,,,,,,,,,,,,,他人,e,,,e,1,0.6201,1,20,100,8,1,,
,,,,,,,,,,,,,1,001,2025-01-02_16h59.21.146,IAT(Formal),2021.2.3,Win32,163.9344262,,,,,,,,,,,,,,,,,,,,,,,,,,,,,,,,,,,,,,,,,,,,,,,,,,,,,自己,i,,,i,1,0.763,1,21,101,53,1,,
,,,,,,,,,,,,,1,001,2025-01-02_16h59.21.146,IAT(Formal),2021.2.3,Win32,163.9344262,,,,,,,,,,,,,,,,,,,,,,,,,,,,,,,,,,,,,,,,,,,,,,,,,,,,,聪明,e,,,e,1,0.5906,1,22,102,12,1,,
,,,,,,,,,,,,,1,001,2025-01-02_16h59.21.146,IAT(Formal),2021.2.3,Win32,163.9344262,,,,,,,,,,,,,,,,,,,,,,,,,,,,,,,,,,,,,,,,,,,,,,,,,,,,,轻率,i,,,i,1,1.3557,1,23,103,48,1,,
,,,,,,,,,,,,,1,001,2025-01-02_16h59.21.146,IAT(Formal),2021.2.3,Win32,163.9344262,,,,,,,,,,,,,,,,,,,,,,,,,,,,,,,,,,,,,,,,,,,,,,,,,,,,,细腻,e,,,e,1,0.7039,1,24,104,25,1,,
,,,,,,,,,,,,,1,001,2025-01-02_16h59.21.146,IAT(Formal),2021.2.3,Win32,163.9344262,,,,,,,,,,,,,,,,,,,,,,,,,,,,,,,,,,,,,,,,,,,,,,,,,,,,,自己,i,,,i,1,1.1145,1,25,105,73,1,,
,,,,,,,,,,,,,1,001,2025-01-02_16h59.21.146,IAT(Formal),2021.2.3,Win32,163.9344262,,,,,,,,,,,,,,,,,,,,,,,,,,,,,,,,,,,,,,,,,,,,,,,,,,,,,我的,i,,,i,1,0.8163,1,26,106,51,1,,
,,,,,,,,,,,,,1,001,2025-01-02_16h59.21.146,IAT(Formal),2021.2.3,Win32,163.9344262,,,,,,,,,,,,,,,,,,,,,,,,,,,,,,,,,,,,,,,,,,,,,,,,,,,,,我的,i,,,i,1,0.7816,1,27,107,71,1,,
,,,,,,,,,,,,,1,001,2025-01-02_16h59.21.146,IAT(Formal),2021.2.3,Win32,163.9344262,,,,,,,,,,,,,,,,,,,,,,,,,,,,,,,,,,,,,,,,,,,,,,,,,,,,,他,e,,,e,1,0.752,1,28,108,55,1,,
,,,,,,,,,,,,,1,001,2025-01-02_16h59.21.146,IAT(Formal),2021.2.3,Win32,163.9344262,,,,,,,,,,,,,,,,,,,,,,,,,,,,,,,,,,,,,,,,,,,,,,,,,,,,,其他,e,,,e,1,0.6815,1,29,109,79,1,,
,,,,,,,,,,,,,1,001,2025-01-02_16h59.21.146,IAT(Formal),2021.2.3,Win32,163.9344262,,,,,,,,,,,,,,,,,,,,,,,,,,,,,,,,,,,,,,,,,,,,,,,,,,,,,自卑,i,,,i,1,0.7323,1,30,110,36,1,,
,,,,,,,,,,,,,1,001,2025-01-02_16h59.21.146,IAT(Formal),2021.2.3,Win32,163.9344262,,,,,,,,,,,,,,,,,,,,,,,,,,,,,,,,,,,,,,,,,,,,,,,,,,,,,自己,i,,,i,1,0.7585,1,31,111,3,1,,
,,,,,,,,,,,,,1,001,2025-01-02_16h59.21.146,IAT(Formal),2021.2.3,Win32,163.9344262,,,,,,,,,,,,,,,,,,,,,,,,,,,,,,,,,,,,,,,,,,,,,,,,,,,,,他人,e,,,e,1,0.6819,1,32,112,58,1,,
,,,,,,,,,,,,,1,001,2025-01-02_16h59.21.146,IAT(Formal),2021.2.3,Win32,163.9344262,,,,,,,,,,,,,,,,,,,,,,,,,,,,,,,,,,,,,,,,,,,,,,,,,,,,,热情,e,,,,0,,1,33,113,27,1,,
,,,,,,,,,,,,,1,001,2025-01-02_16h59.21.146,IAT(Formal),2021.2.3,Win32,163.9344262,,,,,,,,,,,,,,,,,,,,,,,,,,,,,,,,,,,,,,,,,,,,,,,,,,,,,崇高,e,,,e,1,0.7623,1,34,114,11,1,,
,,,,,,,,,,,,,1,001,2025-01-02_16h59.21.146,IAT(Formal),2021.2.3,Win32,163.9344262,,,,,,,,,,,,,,,,,,,,,,,,,,,,,,,,,,,,,,,,,,,,,,,,,,,,,他,e,,,e,1,0.7358,1,35,115,65,1,,
,,,,,,,,,,,,,1,001,2025-01-02_16h59.21.146,IAT(Formal),2021.2.3,Win32,163.9344262,,,,,,,,,,,,,,,,,,,,,,,,,,,,,,,,,,,,,,,,,,,,,,,,,,,,,我的,i,,,i,1,0.5944,1,36,116,1,1,,
,,,,,,,,,,,,,1,001,2025-01-02_16h59.21.146,IAT(Formal),2021.2.3,Win32,163.9344262,,,,,,,,,,,,,,,,,,,,,,,,,,,,,,,,,,,,,,,,,,,,,,,,,,,,,执拗,i,,,i,1,0.7613,1,37,117,40,1,,
,,,,,,,,,,,,,1,001,2025-01-02_16h59.21.146,IAT(Formal),2021.2.3,Win32,163.9344262,,,,,,,,,,,,,,,,,,,,,,,,,,,,,,,,,,,,,,,,,,,,,,,,,,,,,正直,e,,,e,1,0.4548,1,38,118,16,1,,
,,,,,,,,,,,,,1,001,2025-01-02_16h59.21.146,IAT(Formal),2021.2.3,Win32,163.9344262,,,,,,,,,,,,,,,,,,,,,,,,,,,,,,,,,,,,,,,,,,,,,,,,,,,,,诚实,e,,,e,1,0.5298,1,39,119,15,1,,
,,,,,,,,,,,,,1,001,2025-01-02_16h59.21.146,IAT(Formal),2021.2.3,Win32,163.9344262,,,,,,,,,,,,,,,,,,,,,,,,,,,,,,,,,,,,,,,,,,,,,,,,,,,,,他人,e,,,e,1,0.6524,1,40,120,68,1,,
,,,,,,,,,,,,,1,001,2025-01-02_16h59.21.146,IAT(Formal),2021.2.3,Win32,163.9344262,,,,,,,,,,,,,,,,,,,,,,,,,,,,,,,,,,,,,,,,,,,,,,,,,,,,,公正,e,,,e,1,0.8753,1,41,121,23,1,,
,,,,,,,,,,,,,1,001,2025-01-02_16h59.21.146,IAT(Formal),2021.2.3,Win32,163.9344262,,,,,,,,,,,,,,,,,,,,,,,,,,,,,,,,,,,,,,,,,,,,,,,,,,,,,我们,i,,,i,1,0.6997,1,42,122,72,1,,
,,,,,,,,,,,,,1,001,2025-01-02_16h59.21.146,IAT(Formal),2021.2.3,Win32,163.9344262,,,,,,,,,,,,,,,,,,,,,,,,,,,,,,,,,,,,,,,,,,,,,,,,,,,,,我的,i,,,i,1,0.7805,1,43,123,61,1,,
,,,,,,,,,,,,,1,001,2025-01-02_16h59.21.146,IAT(Formal),2021.2.3,Win32,163.9344262,,,,,,,,,,,,,,,,,,,,,,,,,,,,,,,,,,,,,,,,,,,,,,,,,,,,,朴实,e,,,e,1,0.7587,1,44,124,24,1,,
,,,,,,,,,,,,,1,001,2025-01-02_16h59.21.146,IAT(Formal),2021.2.3,Win32,163.9344262,,,,,,,,,,,,,,,,,,,,,,,,,,,,,,,,,,,,,,,,,,,,,,,,,,,,,俺,i,,,i,1,0.5709,1,45,125,64,1,,
,,,,,,,,,,,,,1,001,2025-01-02_16h59.21.146,IAT(Formal),2021.2.3,Win32,163.9344262,,,,,,,,,,,,,,,,,,,,,,,,,,,,,,,,,,,,,,,,,,,,,,,,,,,,,他,e,,,e,1,0.6897,1,46,126,5,1,,
,,,,,,,,,,,,,1,001,2025-01-02_16h59.21.146,IAT(Formal),2021.2.3,Win32,163.9344262,,,,,,,,,,,,,,,,,,,,,,,,,,,,,,,,,,,,,,,,,,,,,,,,,,,,,其他,e,,,e,1,0.5273,1,47,127,59,1,,
,,,,,,,,,,,,,1,001,2025-01-02_16h59.21.146,IAT(Formal),2021.2.3,Win32,163.9344262,,,,,,,,,,,,,,,,,,,,,,,,,,,,,,,,,,,,,,,,,,,,,,,,,,,,,其他,e,,,e,1,0.4507,1,48,128,69,1,,
,,,,,,,,,,,,,1,001,2025-01-02_16h59.21.146,IAT(Formal),2021.2.3,Win32,163.9344262,,,,,,,,,,,,,,,,,,,,,,,,,,,,,,,,,,,,,,,,,,,,,,,,,,,,,冒失,i,,,i,1,0.7625,1,49,129,39,1,,
,,,,,,,,,,,,,1,001,2025-01-02_16h59.21.146,IAT(Formal),2021.2.3,Win32,163.9344262,,,,,,,,,,,,,,,,,,,,,,,,,,,,,,,,,,,,,,,,,,,,,,,,,,,,,愚蠢,i,,,i,1,0.6324,1,50,130,32,1,,
,,,,,,,,,,,,,1,001,2025-01-02_16h59.21.146,IAT(Formal),2021.2.3,Win32,163.9344262,,,,,,,,,,,,,,,,,,,,,,,,,,,,,,,,,,,,,,,,,,,,,,,,,,,,,他,e,,,e,1,0.5947,1,51,131,75,1,,
,,,,,,,,,,,,,1,001,2025-01-02_16h59.21.146,IAT(Formal),2021.2.3,Win32,163.9344262,,,,,,,,,,,,,,,,,,,,,,,,,,,,,,,,,,,,,,,,,,,,,,,,,,,,,凶狠,i,,,e,0,0.4568,1,52,132,42,1,,
,,,,,,,,,,,,,1,001,2025-01-02_16h59.21.146,IAT(Formal),2021.2.3,Win32,163.9344262,,,,,,,,,,,,,,,,,,,,,,,,,,,,,,,,,,,,,,,,,,,,,,,,,,,,,他们,e,,,e,1,0.5479,1,53,133,66,1,,
,,,,,,,,,,,,,1,001,2025-01-02_16h59.21.146,IAT(Formal),2021.2.3,Win32,163.9344262,,,,,,,,,,,,,,,,,,,,,,,,,,,,,,,,,,,,,,,,,,,,,,,,,,,,,俺,i,,,i,1,0.636,1,54,134,54,1,,
,,,,,,,,,,,,,1,001,2025-01-02_16h59.21.146,IAT(Formal),2021.2.3,Win32,163.9344262,,,,,,,,,,,,,,,,,,,,,,,,,,,,,,,,,,,,,,,,,,,,,,,,,,,,,俺,i,,,i,1,0.4974,1,55,135,74,1,,
,,,,,,,,,,,,,1,001,2025-01-02_16h59.21.146,IAT(Formal),2021.2.3,Win32,163.9344262,,,,,,,,,,,,,,,,,,,,,,,,,,,,,,,,,,,,,,,,,,,,,,,,,,,,,悲观,i,,,i,1,0.6635,1,56,136,34,1,,
,,,,,,,,,,,,,1,001,2025-01-02_16h59.21.146,IAT(Formal),2021.2.3,Win32,163.9344262,,,,,,,,,,,,,,,,,,,,,,,,,,,,,,,,,,,,,,,,,,,,,,,,,,,,,固执,i,,,i,1,0.7158,1,57,137,47,1,,
,,,,,,,,,,,,,1,001,2025-01-02_16h59.21.146,IAT(Formal),2021.2.3,Win32,163.9344262,,,,,,,,,,,,,,,,,,,,,,,,,,,,,,,,,,,,,,,,,,,,,,,,,,,,,活泼,e,,,e,1,0.4965,1,58,138,28,1,,
,,,,,,,,,,,,,1,001,2025-01-02_16h59.21.146,IAT(Formal),2021.2.3,Win32,163.9344262,,,,,,,,,,,,,,,,,,,,,,,,,,,,,,,,,,,,,,,,,,,,,,,,,,,,,诚恳,e,,,e,1,0.5936,1,59,139,29,1,,
,,,,,,,,,,,,,1,001,2025-01-02_16h59.21.146,IAT(Formal),2021.2.3,Win32,163.9344262,,,,,,,,,,,,,,,,,,,,,,,,,,,,,,,,,,,,,,,,,,,,,,,,,,,,,散漫,i,,,i,1,0.5843,1,60,140,41,1,,
,,,,,,,,,,,,,1,001,2025-01-02_16h59.21.146,IAT(Formal),2021.2.3,Win32,163.9344262,,,,,,,,,,,,,,,,,,,,,,,,,,,,,,,,,,,,,,,,,,,,,,,,,,,,,消极,i,,,i,1,0.6747,1,61,141,35,1,,
,,,,,,,,,,,,,1,001,2025-01-02_16h59.21.146,IAT(Formal),2021.2.3,Win32,163.9344262,,,,,,,,,,,,,,,,,,,,,,,,,,,,,,,,,,,,,,,,,,,,,,,,,,,,,冷静,e,,,e,1,0.5315,1,62,142,26,1,,
,,,,,,,,,,,,,1,001,2025-01-02_16h59.21.146,IAT(Formal),2021.2.3,Win32,163.9344262,,,,,,,,,,,,,,,,,,,,,,,,,,,,,,,,,,,,,,,,,,,,,,,,,,,,,乐观,e,,,e,1,0.7269,1,63,143,14,1,,
,,,,,,,,,,,,,1,001,2025-01-02_16h59.21.146,IAT(Formal),2021.2.3,Win32,163.9344262,,,,,,,,,,,,,,,,,,,,,,,,,,,,,,,,,,,,,,,,,,,,,,,,,,,,,稳重,e,,,e,1,0.6081,1,64,144,21,1,,
,,,,,,,,,,,,,1,001,2025-01-02_16h59.21.146,IAT(Formal),2021.2.3,Win32,163.9344262,,,,,,,,,,,,,,,,,,,,,,,,,,,,,,,,,,,,,,,,,,,,,,,,,,,,,优秀,e,,,e,1,0.5318,1,65,145,10,1,,
,,,,,,,,,,,,,1,001,2025-01-02_16h59.21.146,IAT(Formal),2021.2.3,Win32,163.9344262,,,,,,,,,,,,,,,,,,,,,,,,,,,,,,,,,,,,,,,,,,,,,,,,,,,,,野蛮,i,,,i,1,0.5987,1,66,146,46,1,,
,,,,,,,,,,,,,1,001,2025-01-02_16h59.21.146,IAT(Formal),2021.2.3,Win32,163.9344262,,,,,,,,,,,,,,,,,,,,,,,,,,,,,,,,,,,,,,,,,,,,,,,,,,,,,下贱,i,,,i,1,0.5757,1,67,147,49,1,,
,,,,,,,,,,,,,1,001,2025-01-02_16h59.21.146,IAT(Formal),2021.2.3,Win32,163.9344262,,,,,,,,,,,,,,,,,,,,,,,,,,,,,,,,,,,,,,,,,,,,,,,,,,,,,他们,e,,,e,1,0.7143,1,68,148,76,1,,
,,,,,,,,,,,,,1,001,2025-01-02_16h59.21.146,IAT(Formal),2021.2.3,Win32,163.9344262,,,,,,,,,,,,,,,,,,,,,,,,,,,,,,,,,,,,,,,,,,,,,,,,,,,,,我们,i,,,i,1,0.5111,1,69,149,52,1,,
,,,,,,,,,,,,,1,001,2025-01-02_16h59.21.146,IAT(Formal),2021.2.3,Win32,163.9344262,,,,,,,,,,,,,,,,,,,,,,,,,,,,,,,,,,,,,,,,,,,,,,,,,,,,,俺,i,,,i,1,0.5239,1,70,150,4,1,,
,,,,,,,,,,,,,1,001,2025-01-02_16h59.21.146,IAT(Formal),2021.2.3,Win32,163.9344262,,,,,,,,,,,,,,,,,,,,,,,,,,,,,,,,,,,,,,,,,,,,,,,,,,,,,他的,e,,,e,1,0.5469,1,71,151,7,1,,
,,,,,,,,,,,,,1,001,2025-01-02_16h59.21.146,IAT(Formal),2021.2.3,Win32,163.9344262,,,,,,,,,,,,,,,,,,,,,,,,,,,,,,,,,,,,,,,,,,,,,,,,,,,,,我,i,,,i,1,0.7543,1,72,152,0,1,,
,,,,,,,,,,,,,1,001,2025-01-02_16h59.21.146,IAT(Formal),2021.2.3,Win32,163.9344262,,,,,,,,,,,,,,,,,,,,,,,,,,,,,,,,,,,,,,,,,,,,,,,,,,,,,我们,i,,,i,1,0.6758,1,73,153,2,1,,
,,,,,,,,,,,,,1,001,2025-01-02_16h59.21.146,IAT(Formal),2021.2.3,Win32,163.9344262,,,,,,,,,,,,,,,,,,,,,,,,,,,,,,,,,,,,,,,,,,,,,,,,,,,,,虚伪,i,,,i,1,0.6993,1,74,154,31,1,,
,,,,,,,,,,,,,1,001,2025-01-02_16h59.21.146,IAT(Formal),2021.2.3,Win32,163.9344262,,,,,,,,,,,,,,,,,,,,,,,,,,,,,,,,,,,,,,,,,,,,,,,,,,,,,机智,e,,,e,1,0.636,1,75,155,19,1,,
,,,,,,,,,,,,,1,001,2025-01-02_16h59.21.146,IAT(Formal),2021.2.3,Win32,163.9344262,,,,,,,,,,,,,,,,,,,,,,,,,,,,,,,,,,,,,,,,,,,,,,,,,,,,,我,i,,,i,1,0.5605,1,76,156,50,1,,
,,,,,,,,,,,,,1,001,2025-01-02_16h59.21.146,IAT(Formal),2021.2.3,Win32,163.9344262,,,,,,,,,,,,,,,,,,,,,,,,,,,,,,,,,,,,,,,,,,,,,,,,,,,,,他们,e,,,e,1,0.6678,1,77,157,56,1,,
,,,,,,,,,,,,,1,001,2025-01-02_16h59.21.146,IAT(Formal),2021.2.3,Win32,163.9344262,,,,,,,,,,,,,,,,,,,,,,,,,,,,,,,,,,,,,,,,,,,,,,,,,,,,,傲慢,i,,,i,1,0.7453,1,78,158,37,1,,
,,,,,,,,,,,,,1,001,2025-01-02_16h59.21.146,IAT(Formal),2021.2.3,Win32,163.9344262,,,,,,,,,,,,,,,,,,,,,,,,,,,,,,,,,,,,,,,,,,,,,,,,,,,,,他人,e,,,e,1,0.665,1,79,159,78,1,,
,,,,,,,,,,,,,1,001,2025-01-02_16h59.21.146,IAT(Formal),2021.2.3,Win32,163.9344262,,,,,,,,,,,,,,,,,,,,,,,,,,,,,,,,,,,,,,,,,,,,,,,,,,,,,,,,,,,,,,,,,space,1.3418