﻿Instruction1.keys,Instruction1.rt,Instruction2.keys,Instruction2.rt,key_resp_iso.keys,key_resp_iso.corr,key_resp_iso.rt,Practice_01.thisRepN,Practice_01.thisTrialN,Practice_01.thisN,Practice_01.thisIndex,Practice_01.ran,Words,ans,participant,session,date,expName,psychopyVersion,OS,frameRate,key_resp_3.keys,key_resp_3.rt,key_resp_ipn.keys,key_resp_ipn.corr,key_resp_ipn.rt,Practice_02.thisRepN,Practice_02.thisTrialN,Practice_02.thisN,Practice_02.thisIndex,Practice_02.ran,Words_ipn,ans_ipn,key_resp_4.keys,key_resp_4.rt,key_resp_t1.keys,key_resp_t1.corr,key_resp_t1.rt,Practice_T1.thisRepN,Practice_T1.thisTrialN,Practice_T1.thisN,Practice_T1.thisIndex,Practice_T1.ran,Words_t1,ans_t1,key_resp_5.keys,key_resp_5.rt,Formal_T1.thisRepN,Formal_T1.thisTrialN,Formal_T1.thisN,Formal_T1.thisIndex,Formal_T1.ran,key_resp_6.keys,key_resp_6.rt,key_resp_iso_reverse.keys,key_resp_iso_reverse.corr,key_resp_iso_reverse.rt,Practice_iso_Reverse.thisRepN,Practice_iso_Reverse.thisTrialN,Practice_iso_Reverse.thisN,Practice_iso_Reverse.thisIndex,Practice_iso_Reverse.ran,key_resp_7.keys,key_resp_7.rt,key_resp_t2_Practice.keys,key_resp_t2_Practice.corr,key_resp_t2_Practice.rt,Practice_t2_Reverse.thisRepN,Practice_t2_Reverse.thisTrialN,Practice_t2_Reverse.thisN,Practice_t2_Reverse.thisIndex,Practice_t2_Reverse.ran,Words_t2,ans_t2,key_resp_8.keys,key_resp_8.rt,key_resp_t2.keys,key_resp_t2.corr,key_resp_t2.rt,Formal_t2_reverse.thisRepN,Formal_t2_reverse.thisTrialN,Formal_t2_reverse.thisN,Formal_t2_reverse.thisIndex,Formal_t2_reverse.ran,key_instruct.keys,key_instruct.rt
space,3.4947,space,5.0045,i,1,0.4765,0,0,0,6,1,他们,i,1,001,2025-01-02_18h52.48.839,IAT(Formal),2021.2.3,Win32,181.8181818,,,,,,,,,,,,,,,,,,,,,,,,,,,,,,,,,,,,,,,,,,,,,,,,,,,,,,,,,,,,,,,,,
,,,,e,1,0.3205,0,1,1,2,1,我们,e,1,001,2025-01-02_18h52.48.839,IAT(Formal),2021.2.3,Win32,181.8181818,,,,,,,,,,,,,,,,,,,,,,,,,,,,,,,,,,,,,,,,,,,,,,,,,,,,,,,,,,,,,,,,,
,,,,e,1,0.4679,0,2,2,4,1,俺,e,1,001,2025-01-02_18h52.48.839,IAT(Formal),2021.2.3,Win32,181.8181818,,,,,,,,,,,,,,,,,,,,,,,,,,,,,,,,,,,,,,,,,,,,,,,,,,,,,,,,,,,,,,,,,
,,,,i,1,0.4282,0,3,3,5,1,他,i,1,001,2025-01-02_18h52.48.839,IAT(Formal),2021.2.3,Win32,181.8181818,,,,,,,,,,,,,,,,,,,,,,,,,,,,,,,,,,,,,,,,,,,,,,,,,,,,,,,,,,,,,,,,,
,,,,e,1,0.378,0,4,4,1,1,我的,e,1,001,2025-01-02_18h52.48.839,IAT(Formal),2021.2.3,Win32,181.8181818,,,,,,,,,,,,,,,,,,,,,,,,,,,,,,,,,,,,,,,,,,,,,,,,,,,,,,,,,,,,,,,,,
,,,,i,1,0.5704,0,5,5,9,1,其他,i,1,001,2025-01-02_18h52.48.839,IAT(Formal),2021.2.3,Win32,181.8181818,,,,,,,,,,,,,,,,,,,,,,,,,,,,,,,,,,,,,,,,,,,,,,,,,,,,,,,,,,,,,,,,,
,,,,i,1,0.4356,0,6,6,8,1,他人,i,1,001,2025-01-02_18h52.48.839,IAT(Formal),2021.2.3,Win32,181.8181818,,,,,,,,,,,,,,,,,,,,,,,,,,,,,,,,,,,,,,,,,,,,,,,,,,,,,,,,,,,,,,,,,
,,,,e,1,0.3612,0,7,7,3,1,自己,e,1,001,2025-01-02_18h52.48.839,IAT(Formal),2021.2.3,Win32,181.8181818,,,,,,,,,,,,,,,,,,,,,,,,,,,,,,,,,,,,,,,,,,,,,,,,,,,,,,,,,,,,,,,,,
,,,,e,1,0.3576,0,8,8,0,1,我,e,1,001,2025-01-02_18h52.48.839,IAT(Formal),2021.2.3,Win32,181.8181818,,,,,,,,,,,,,,,,,,,,,,,,,,,,,,,,,,,,,,,,,,,,,,,,,,,,,,,,,,,,,,,,,
,,,,i,1,0.3954,0,9,9,7,1,他的,i,1,001,2025-01-02_18h52.48.839,IAT(Formal),2021.2.3,Win32,181.8181818,,,,,,,,,,,,,,,,,,,,,,,,,,,,,,,,,,,,,,,,,,,,,,,,,,,,,,,,,,,,,,,,,
,,,,,,,,,,,,,,1,001,2025-01-02_18h52.48.839,IAT(Formal),2021.2.3,Win32,181.8181818,space,2.2773,i,1,0.4995,0,0,0,27,1,傲慢,i,,,,,,,,,,,,,,,,,,,,,,,,,,,,,,,,,,,,,,,,,,,,,,,,,,,,,
,,,,,,,,,,,,,,1,001,2025-01-02_18h52.48.839,IAT(Formal),2021.2.3,Win32,181.8181818,,,i,1,0.4917,0,1,1,30,1,执拗,i,,,,,,,,,,,,,,,,,,,,,,,,,,,,,,,,,,,,,,,,,,,,,,,,,,,,,
,,,,,,,,,,,,,,1,001,2025-01-02_18h52.48.839,IAT(Formal),2021.2.3,Win32,181.8181818,,,i,0,0.5277,0,2,2,12,1,无私,e,,,,,,,,,,,,,,,,,,,,,,,,,,,,,,,,,,,,,,,,,,,,,,,,,,,,,
,,,,,,,,,,,,,,1,001,2025-01-02_18h52.48.839,IAT(Formal),2021.2.3,Win32,181.8181818,,,e,1,0.4673,0,3,3,10,1,认真,e,,,,,,,,,,,,,,,,,,,,,,,,,,,,,,,,,,,,,,,,,,,,,,,,,,,,,
,,,,,,,,,,,,,,1,001,2025-01-02_18h52.48.839,IAT(Formal),2021.2.3,Win32,181.8181818,,,e,1,0.3966,0,4,4,6,1,正直,e,,,,,,,,,,,,,,,,,,,,,,,,,,,,,,,,,,,,,,,,,,,,,,,,,,,,,
,,,,,,,,,,,,,,1,001,2025-01-02_18h52.48.839,IAT(Formal),2021.2.3,Win32,181.8181818,,,e,1,0.3951,0,5,5,2,1,聪明,e,,,,,,,,,,,,,,,,,,,,,,,,,,,,,,,,,,,,,,,,,,,,,,,,,,,,,
,,,,,,,,,,,,,,1,001,2025-01-02_18h52.48.839,IAT(Formal),2021.2.3,Win32,181.8181818,,,i,1,0.5188,0,6,6,25,1,消极,i,,,,,,,,,,,,,,,,,,,,,,,,,,,,,,,,,,,,,,,,,,,,,,,,,,,,,
,,,,,,,,,,,,,,1,001,2025-01-02_18h52.48.839,IAT(Formal),2021.2.3,Win32,181.8181818,,,e,1,0.428,0,7,7,7,1,勇敢,e,,,,,,,,,,,,,,,,,,,,,,,,,,,,,,,,,,,,,,,,,,,,,,,,,,,,,
,,,,,,,,,,,,,,1,001,2025-01-02_18h52.48.839,IAT(Formal),2021.2.3,Win32,181.8181818,,,i,1,0.5056,0,8,8,22,1,愚蠢,i,,,,,,,,,,,,,,,,,,,,,,,,,,,,,,,,,,,,,,,,,,,,,,,,,,,,,
,,,,,,,,,,,,,,1,001,2025-01-02_18h52.48.839,IAT(Formal),2021.2.3,Win32,181.8181818,,,e,1,0.5969,0,9,9,19,1,诚恳,e,,,,,,,,,,,,,,,,,,,,,,,,,,,,,,,,,,,,,,,,,,,,,,,,,,,,,
,,,,,,,,,,,,,,1,001,2025-01-02_18h52.48.839,IAT(Formal),2021.2.3,Win32,181.8181818,,,e,1,0.4337,0,10,10,13,1,公正,e,,,,,,,,,,,,,,,,,,,,,,,,,,,,,,,,,,,,,,,,,,,,,,,,,,,,,
,,,,,,,,,,,,,,1,001,2025-01-02_18h52.48.839,IAT(Formal),2021.2.3,Win32,181.8181818,,,i,1,0.5062,0,11,11,28,1,鲁莽,i,,,,,,,,,,,,,,,,,,,,,,,,,,,,,,,,,,,,,,,,,,,,,,,,,,,,,
,,,,,,,,,,,,,,1,001,2025-01-02_18h52.48.839,IAT(Formal),2021.2.3,Win32,181.8181818,,,i,1,0.5409,0,12,12,39,1,下贱,i,,,,,,,,,,,,,,,,,,,,,,,,,,,,,,,,,,,,,,,,,,,,,,,,,,,,,
,,,,,,,,,,,,,,1,001,2025-01-02_18h52.48.839,IAT(Formal),2021.2.3,Win32,181.8181818,,,i,1,0.53,0,13,13,31,1,散漫,i,,,,,,,,,,,,,,,,,,,,,,,,,,,,,,,,,,,,,,,,,,,,,,,,,,,,,
,,,,,,,,,,,,,,1,001,2025-01-02_18h52.48.839,IAT(Formal),2021.2.3,Win32,181.8181818,,,i,1,0.8227,0,14,14,24,1,悲观,i,,,,,,,,,,,,,,,,,,,,,,,,,,,,,,,,,,,,,,,,,,,,,,,,,,,,,
,,,,,,,,,,,,,,1,001,2025-01-02_18h52.48.839,IAT(Formal),2021.2.3,Win32,181.8181818,,,e,1,0.4175,0,15,15,4,1,乐观,e,,,,,,,,,,,,,,,,,,,,,,,,,,,,,,,,,,,,,,,,,,,,,,,,,,,,,
,,,,,,,,,,,,,,1,001,2025-01-02_18h52.48.839,IAT(Formal),2021.2.3,Win32,181.8181818,,,i,1,0.6753,0,16,16,35,1,猖狂,i,,,,,,,,,,,,,,,,,,,,,,,,,,,,,,,,,,,,,,,,,,,,,,,,,,,,,
,,,,,,,,,,,,,,1,001,2025-01-02_18h52.48.839,IAT(Formal),2021.2.3,Win32,181.8181818,,,e,1,0.5899,0,17,17,3,1,杰出,e,,,,,,,,,,,,,,,,,,,,,,,,,,,,,,,,,,,,,,,,,,,,,,,,,,,,,
,,,,,,,,,,,,,,1,001,2025-01-02_18h52.48.839,IAT(Formal),2021.2.3,Win32,181.8181818,,,i,1,1.1455,0,18,18,20,1,卑鄙,i,,,,,,,,,,,,,,,,,,,,,,,,,,,,,,,,,,,,,,,,,,,,,,,,,,,,,
,,,,,,,,,,,,,,1,001,2025-01-02_18h52.48.839,IAT(Formal),2021.2.3,Win32,181.8181818,,,e,1,0.5302,0,19,19,16,1,冷静,e,,,,,,,,,,,,,,,,,,,,,,,,,,,,,,,,,,,,,,,,,,,,,,,,,,,,,
,,,,,,,,,,,,,,1,001,2025-01-02_18h52.48.839,IAT(Formal),2021.2.3,Win32,181.8181818,,,i,1,0.514,0,20,20,21,1,虚伪,i,,,,,,,,,,,,,,,,,,,,,,,,,,,,,,,,,,,,,,,,,,,,,,,,,,,,,
,,,,,,,,,,,,,,1,001,2025-01-02_18h52.48.839,IAT(Formal),2021.2.3,Win32,181.8181818,,,e,1,0.5178,0,21,21,0,1,优秀,e,,,,,,,,,,,,,,,,,,,,,,,,,,,,,,,,,,,,,,,,,,,,,,,,,,,,,
,,,,,,,,,,,,,,1,001,2025-01-02_18h52.48.839,IAT(Formal),2021.2.3,Win32,181.8181818,,,e,1,0.4837,0,22,22,18,1,活泼,e,,,,,,,,,,,,,,,,,,,,,,,,,,,,,,,,,,,,,,,,,,,,,,,,,,,,,
,,,,,,,,,,,,,,1,001,2025-01-02_18h52.48.839,IAT(Formal),2021.2.3,Win32,181.8181818,,,i,1,0.5901,0,23,23,38,1,轻率,i,,,,,,,,,,,,,,,,,,,,,,,,,,,,,,,,,,,,,,,,,,,,,,,,,,,,,
,,,,,,,,,,,,,,1,001,2025-01-02_18h52.48.839,IAT(Formal),2021.2.3,Win32,181.8181818,,,i,1,0.4787,0,24,24,34,1,暴躁,i,,,,,,,,,,,,,,,,,,,,,,,,,,,,,,,,,,,,,,,,,,,,,,,,,,,,,
,,,,,,,,,,,,,,1,001,2025-01-02_18h52.48.839,IAT(Formal),2021.2.3,Win32,181.8181818,,,e,1,0.4098,0,25,25,14,1,朴实,e,,,,,,,,,,,,,,,,,,,,,,,,,,,,,,,,,,,,,,,,,,,,,,,,,,,,,
,,,,,,,,,,,,,,1,001,2025-01-02_18h52.48.839,IAT(Formal),2021.2.3,Win32,181.8181818,,,i,1,0.5078,0,26,26,33,1,自私,i,,,,,,,,,,,,,,,,,,,,,,,,,,,,,,,,,,,,,,,,,,,,,,,,,,,,,
,,,,,,,,,,,,,,1,001,2025-01-02_18h52.48.839,IAT(Formal),2021.2.3,Win32,181.8181818,,,i,1,0.4843,0,27,27,36,1,野蛮,i,,,,,,,,,,,,,,,,,,,,,,,,,,,,,,,,,,,,,,,,,,,,,,,,,,,,,
,,,,,,,,,,,,,,1,001,2025-01-02_18h52.48.839,IAT(Formal),2021.2.3,Win32,181.8181818,,,e,1,0.4864,0,28,28,5,1,诚实,e,,,,,,,,,,,,,,,,,,,,,,,,,,,,,,,,,,,,,,,,,,,,,,,,,,,,,
,,,,,,,,,,,,,,1,001,2025-01-02_18h52.48.839,IAT(Formal),2021.2.3,Win32,181.8181818,,,i,1,0.9815,0,29,29,32,1,凶狠,i,,,,,,,,,,,,,,,,,,,,,,,,,,,,,,,,,,,,,,,,,,,,,,,,,,,,,
,,,,,,,,,,,,,,1,001,2025-01-02_18h52.48.839,IAT(Formal),2021.2.3,Win32,181.8181818,,,e,1,0.4026,0,30,30,17,1,热情,e,,,,,,,,,,,,,,,,,,,,,,,,,,,,,,,,,,,,,,,,,,,,,,,,,,,,,
,,,,,,,,,,,,,,1,001,2025-01-02_18h52.48.839,IAT(Formal),2021.2.3,Win32,181.8181818,,,i,1,0.4621,0,31,31,23,1,刻薄,i,,,,,,,,,,,,,,,,,,,,,,,,,,,,,,,,,,,,,,,,,,,,,,,,,,,,,
,,,,,,,,,,,,,,1,001,2025-01-02_18h52.48.839,IAT(Formal),2021.2.3,Win32,181.8181818,,,i,1,0.5848,0,32,32,37,1,固执,i,,,,,,,,,,,,,,,,,,,,,,,,,,,,,,,,,,,,,,,,,,,,,,,,,,,,,
,,,,,,,,,,,,,,1,001,2025-01-02_18h52.48.839,IAT(Formal),2021.2.3,Win32,181.8181818,,,i,1,0.4725,0,33,33,26,1,自卑,i,,,,,,,,,,,,,,,,,,,,,,,,,,,,,,,,,,,,,,,,,,,,,,,,,,,,,
,,,,,,,,,,,,,,1,001,2025-01-02_18h52.48.839,IAT(Formal),2021.2.3,Win32,181.8181818,,,e,1,0.5501,0,34,34,9,1,机智,e,,,,,,,,,,,,,,,,,,,,,,,,,,,,,,,,,,,,,,,,,,,,,,,,,,,,,
,,,,,,,,,,,,,,1,001,2025-01-02_18h52.48.839,IAT(Formal),2021.2.3,Win32,181.8181818,,,e,1,0.58,0,35,35,15,1,细腻,e,,,,,,,,,,,,,,,,,,,,,,,,,,,,,,,,,,,,,,,,,,,,,,,,,,,,,
,,,,,,,,,,,,,,1,001,2025-01-02_18h52.48.839,IAT(Formal),2021.2.3,Win32,181.8181818,,,e,1,0.4017,0,36,36,8,1,勤奋,e,,,,,,,,,,,,,,,,,,,,,,,,,,,,,,,,,,,,,,,,,,,,,,,,,,,,,
,,,,,,,,,,,,,,1,001,2025-01-02_18h52.48.839,IAT(Formal),2021.2.3,Win32,181.8181818,,,e,1,0.4124,0,37,37,11,1,稳重,e,,,,,,,,,,,,,,,,,,,,,,,,,,,,,,,,,,,,,,,,,,,,,,,,,,,,,
,,,,,,,,,,,,,,1,001,2025-01-02_18h52.48.839,IAT(Formal),2021.2.3,Win32,181.8181818,,,e,1,0.5445,0,38,38,1,1,崇高,e,,,,,,,,,,,,,,,,,,,,,,,,,,,,,,,,,,,,,,,,,,,,,,,,,,,,,
,,,,,,,,,,,,,,1,001,2025-01-02_18h52.48.839,IAT(Formal),2021.2.3,Win32,181.8181818,,,i,1,0.5224,0,39,39,29,1,冒失,i,,,,,,,,,,,,,,,,,,,,,,,,,,,,,,,,,,,,,,,,,,,,,,,,,,,,,
,,,,,,,,,,,,,,1,001,2025-01-02_18h52.48.839,IAT(Formal),2021.2.3,Win32,181.8181818,,,,,,,,,,,,,space,3.9157,i,1,0.4782,0,0,0,7,1,他的,i,,,,,,,,,,,,,,,,,,,,,,,,,,,,,,,,,,,,,,,,,
,,,,,,,,,,,,,,1,001,2025-01-02_18h52.48.839,IAT(Formal),2021.2.3,Win32,181.8181818,,,,,,,,,,,,,,,i,1,0.5504,0,1,1,76,1,他们,i,,,,,,,,,,,,,,,,,,,,,,,,,,,,,,,,,,,,,,,,,
,,,,,,,,,,,,,,1,001,2025-01-02_18h52.48.839,IAT(Formal),2021.2.3,Win32,181.8181818,,,,,,,,,,,,,,,i,1,0.6251,0,2,2,48,1,轻率,i,,,,,,,,,,,,,,,,,,,,,,,,,,,,,,,,,,,,,,,,,
,,,,,,,,,,,,,,1,001,2025-01-02_18h52.48.839,IAT(Formal),2021.2.3,Win32,181.8181818,,,,,,,,,,,,,,,i,1,0.5171,0,3,3,37,1,傲慢,i,,,,,,,,,,,,,,,,,,,,,,,,,,,,,,,,,,,,,,,,,
,,,,,,,,,,,,,,1,001,2025-01-02_18h52.48.839,IAT(Formal),2021.2.3,Win32,181.8181818,,,,,,,,,,,,,,,e,1,0.4485,0,4,4,2,1,我们,e,,,,,,,,,,,,,,,,,,,,,,,,,,,,,,,,,,,,,,,,,
,,,,,,,,,,,,,,1,001,2025-01-02_18h52.48.839,IAT(Formal),2021.2.3,Win32,181.8181818,,,,,,,,,,,,,,,e,1,0.4561,0,5,5,64,1,俺,e,,,,,,,,,,,,,,,,,,,,,,,,,,,,,,,,,,,,,,,,,
,,,,,,,,,,,,,,1,001,2025-01-02_18h52.48.839,IAT(Formal),2021.2.3,Win32,181.8181818,,,,,,,,,,,,,,,e,1,0.4232,0,6,6,74,1,俺,e,,,,,,,,,,,,,,,,,,,,,,,,,,,,,,,,,,,,,,,,,
,,,,,,,,,,,,,,1,001,2025-01-02_18h52.48.839,IAT(Formal),2021.2.3,Win32,181.8181818,,,,,,,,,,,,,,,i,1,0.4418,0,7,7,8,1,他人,i,,,,,,,,,,,,,,,,,,,,,,,,,,,,,,,,,,,,,,,,,
,,,,,,,,,,,,,,1,001,2025-01-02_18h52.48.839,IAT(Formal),2021.2.3,Win32,181.8181818,,,,,,,,,,,,,,,e,1,0.4914,0,8,8,27,1,热情,e,,,,,,,,,,,,,,,,,,,,,,,,,,,,,,,,,,,,,,,,,
,,,,,,,,,,,,,,1,001,2025-01-02_18h52.48.839,IAT(Formal),2021.2.3,Win32,181.8181818,,,,,,,,,,,,,,,e,1,0.5119,0,9,9,23,1,公正,e,,,,,,,,,,,,,,,,,,,,,,,,,,,,,,,,,,,,,,,,,
,,,,,,,,,,,,,,1,001,2025-01-02_18h52.48.839,IAT(Formal),2021.2.3,Win32,181.8181818,,,,,,,,,,,,,,,e,1,0.445,0,10,10,62,1,我们,e,,,,,,,,,,,,,,,,,,,,,,,,,,,,,,,,,,,,,,,,,
,,,,,,,,,,,,,,1,001,2025-01-02_18h52.48.839,IAT(Formal),2021.2.3,Win32,181.8181818,,,,,,,,,,,,,,,i,1,0.3783,0,11,11,38,1,鲁莽,i,,,,,,,,,,,,,,,,,,,,,,,,,,,,,,,,,,,,,,,,,
,,,,,,,,,,,,,,1,001,2025-01-02_18h52.48.839,IAT(Formal),2021.2.3,Win32,181.8181818,,,,,,,,,,,,,,,i,1,0.5337,0,12,12,69,1,其他,i,,,,,,,,,,,,,,,,,,,,,,,,,,,,,,,,,,,,,,,,,
,,,,,,,,,,,,,,1,001,2025-01-02_18h52.48.839,IAT(Formal),2021.2.3,Win32,181.8181818,,,,,,,,,,,,,,,e,1,0.4274,0,13,13,10,1,优秀,e,,,,,,,,,,,,,,,,,,,,,,,,,,,,,,,,,,,,,,,,,
,,,,,,,,,,,,,,1,001,2025-01-02_18h52.48.839,IAT(Formal),2021.2.3,Win32,181.8181818,,,,,,,,,,,,,,,e,1,0.3793,0,14,14,53,1,自己,e,,,,,,,,,,,,,,,,,,,,,,,,,,,,,,,,,,,,,,,,,
,,,,,,,,,,,,,,1,001,2025-01-02_18h52.48.839,IAT(Formal),2021.2.3,Win32,181.8181818,,,,,,,,,,,,,,,e,0,0.327,0,15,15,43,1,自私,i,,,,,,,,,,,,,,,,,,,,,,,,,,,,,,,,,,,,,,,,,
,,,,,,,,,,,,,,1,001,2025-01-02_18h52.48.839,IAT(Formal),2021.2.3,Win32,181.8181818,,,,,,,,,,,,,,,i,1,0.5836,0,16,16,44,1,暴躁,i,,,,,,,,,,,,,,,,,,,,,,,,,,,,,,,,,,,,,,,,,
,,,,,,,,,,,,,,1,001,2025-01-02_18h52.48.839,IAT(Formal),2021.2.3,Win32,181.8181818,,,,,,,,,,,,,,,i,1,0.489,0,17,17,46,1,野蛮,i,,,,,,,,,,,,,,,,,,,,,,,,,,,,,,,,,,,,,,,,,
,,,,,,,,,,,,,,1,001,2025-01-02_18h52.48.839,IAT(Formal),2021.2.3,Win32,181.8181818,,,,,,,,,,,,,,,e,1,0.5269,0,18,18,16,1,正直,e,,,,,,,,,,,,,,,,,,,,,,,,,,,,,,,,,,,,,,,,,
,,,,,,,,,,,,,,1,001,2025-01-02_18h52.48.839,IAT(Formal),2021.2.3,Win32,181.8181818,,,,,,,,,,,,,,,e,1,0.6334,0,19,19,72,1,我们,e,,,,,,,,,,,,,,,,,,,,,,,,,,,,,,,,,,,,,,,,,
,,,,,,,,,,,,,,1,001,2025-01-02_18h52.48.839,IAT(Formal),2021.2.3,Win32,181.8181818,,,,,,,,,,,,,,,i,1,0.5167,0,20,20,55,1,他,i,,,,,,,,,,,,,,,,,,,,,,,,,,,,,,,,,,,,,,,,,
,,,,,,,,,,,,,,1,001,2025-01-02_18h52.48.839,IAT(Formal),2021.2.3,Win32,181.8181818,,,,,,,,,,,,,,,e,1,0.5014,0,21,21,21,1,稳重,e,,,,,,,,,,,,,,,,,,,,,,,,,,,,,,,,,,,,,,,,,
,,,,,,,,,,,,,,1,001,2025-01-02_18h52.48.839,IAT(Formal),2021.2.3,Win32,181.8181818,,,,,,,,,,,,,,,i,1,0.4958,0,22,22,32,1,愚蠢,i,,,,,,,,,,,,,,,,,,,,,,,,,,,,,,,,,,,,,,,,,
,,,,,,,,,,,,,,1,001,2025-01-02_18h52.48.839,IAT(Formal),2021.2.3,Win32,181.8181818,,,,,,,,,,,,,,,i,1,0.4997,0,23,23,45,1,猖狂,i,,,,,,,,,,,,,,,,,,,,,,,,,,,,,,,,,,,,,,,,,
,,,,,,,,,,,,,,1,001,2025-01-02_18h52.48.839,IAT(Formal),2021.2.3,Win32,181.8181818,,,,,,,,,,,,,,,e,1,0.611,0,24,24,25,1,细腻,e,,,,,,,,,,,,,,,,,,,,,,,,,,,,,,,,,,,,,,,,,
,,,,,,,,,,,,,,1,001,2025-01-02_18h52.48.839,IAT(Formal),2021.2.3,Win32,181.8181818,,,,,,,,,,,,,,,e,1,0.4554,0,25,25,13,1,杰出,e,,,,,,,,,,,,,,,,,,,,,,,,,,,,,,,,,,,,,,,,,
,,,,,,,,,,,,,,1,001,2025-01-02_18h52.48.839,IAT(Formal),2021.2.3,Win32,181.8181818,,,,,,,,,,,,,,,i,1,0.4953,0,26,26,66,1,他们,i,,,,,,,,,,,,,,,,,,,,,,,,,,,,,,,,,,,,,,,,,
,,,,,,,,,,,,,,1,001,2025-01-02_18h52.48.839,IAT(Formal),2021.2.3,Win32,181.8181818,,,,,,,,,,,,,,,e,1,0.4948,0,27,27,28,1,活泼,e,,,,,,,,,,,,,,,,,,,,,,,,,,,,,,,,,,,,,,,,,
,,,,,,,,,,,,,,1,001,2025-01-02_18h52.48.839,IAT(Formal),2021.2.3,Win32,181.8181818,,,,,,,,,,,,,,,i,1,0.4724,0,28,28,40,1,执拗,i,,,,,,,,,,,,,,,,,,,,,,,,,,,,,,,,,,,,,,,,,
,,,,,,,,,,,,,,1,001,2025-01-02_18h52.48.839,IAT(Formal),2021.2.3,Win32,181.8181818,,,,,,,,,,,,,,,i,1,0.4,0,29,29,49,1,下贱,i,,,,,,,,,,,,,,,,,,,,,,,,,,,,,,,,,,,,,,,,,
,,,,,,,,,,,,,,1,001,2025-01-02_18h52.48.839,IAT(Formal),2021.2.3,Win32,181.8181818,,,,,,,,,,,,,,,i,1,0.4555,0,30,30,79,1,其他,i,,,,,,,,,,,,,,,,,,,,,,,,,,,,,,,,,,,,,,,,,
,,,,,,,,,,,,,,1,001,2025-01-02_18h52.48.839,IAT(Formal),2021.2.3,Win32,181.8181818,,,,,,,,,,,,,,,i,1,0.4111,0,31,31,57,1,他的,i,,,,,,,,,,,,,,,,,,,,,,,,,,,,,,,,,,,,,,,,,
,,,,,,,,,,,,,,1,001,2025-01-02_18h52.48.839,IAT(Formal),2021.2.3,Win32,181.8181818,,,,,,,,,,,,,,,e,1,0.4226,0,32,32,63,1,自己,e,,,,,,,,,,,,,,,,,,,,,,,,,,,,,,,,,,,,,,,,,
,,,,,,,,,,,,,,1,001,2025-01-02_18h52.48.839,IAT(Formal),2021.2.3,Win32,181.8181818,,,,,,,,,,,,,,,e,1,0.4503,0,33,33,51,1,我的,e,,,,,,,,,,,,,,,,,,,,,,,,,,,,,,,,,,,,,,,,,
,,,,,,,,,,,,,,1,001,2025-01-02_18h52.48.839,IAT(Formal),2021.2.3,Win32,181.8181818,,,,,,,,,,,,,,,e,1,0.6169,0,34,34,71,1,我的,e,,,,,,,,,,,,,,,,,,,,,,,,,,,,,,,,,,,,,,,,,
,,,,,,,,,,,,,,1,001,2025-01-02_18h52.48.839,IAT(Formal),2021.2.3,Win32,181.8181818,,,,,,,,,,,,,,,e,1,0.4391,0,35,35,54,1,俺,e,,,,,,,,,,,,,,,,,,,,,,,,,,,,,,,,,,,,,,,,,
,,,,,,,,,,,,,,1,001,2025-01-02_18h52.48.839,IAT(Formal),2021.2.3,Win32,181.8181818,,,,,,,,,,,,,,,e,1,0.4498,0,36,36,3,1,自己,e,,,,,,,,,,,,,,,,,,,,,,,,,,,,,,,,,,,,,,,,,
,,,,,,,,,,,,,,1,001,2025-01-02_18h52.48.839,IAT(Formal),2021.2.3,Win32,181.8181818,,,,,,,,,,,,,,,e,1,0.5926,0,37,37,26,1,冷静,e,,,,,,,,,,,,,,,,,,,,,,,,,,,,,,,,,,,,,,,,,
,,,,,,,,,,,,,,1,001,2025-01-02_18h52.48.839,IAT(Formal),2021.2.3,Win32,181.8181818,,,,,,,,,,,,,,,i,1,0.4984,0,38,38,42,1,凶狠,i,,,,,,,,,,,,,,,,,,,,,,,,,,,,,,,,,,,,,,,,,
,,,,,,,,,,,,,,1,001,2025-01-02_18h52.48.839,IAT(Formal),2021.2.3,Win32,181.8181818,,,,,,,,,,,,,,,i,1,0.5336,0,39,39,35,1,消极,i,,,,,,,,,,,,,,,,,,,,,,,,,,,,,,,,,,,,,,,,,
,,,,,,,,,,,,,,1,001,2025-01-02_18h52.48.839,IAT(Formal),2021.2.3,Win32,181.8181818,,,,,,,,,,,,,,,i,1,0.5543,0,40,40,41,1,散漫,i,,,,,,,,,,,,,,,,,,,,,,,,,,,,,,,,,,,,,,,,,
,,,,,,,,,,,,,,1,001,2025-01-02_18h52.48.839,IAT(Formal),2021.2.3,Win32,181.8181818,,,,,,,,,,,,,,,i,1,0.5133,0,41,41,67,1,他的,i,,,,,,,,,,,,,,,,,,,,,,,,,,,,,,,,,,,,,,,,,
,,,,,,,,,,,,,,1,001,2025-01-02_18h52.48.839,IAT(Formal),2021.2.3,Win32,181.8181818,,,,,,,,,,,,,,,i,1,0.5395,0,42,42,39,1,冒失,i,,,,,,,,,,,,,,,,,,,,,,,,,,,,,,,,,,,,,,,,,
,,,,,,,,,,,,,,1,001,2025-01-02_18h52.48.839,IAT(Formal),2021.2.3,Win32,181.8181818,,,,,,,,,,,,,,,i,1,0.5481,0,43,43,75,1,他,i,,,,,,,,,,,,,,,,,,,,,,,,,,,,,,,,,,,,,,,,,
,,,,,,,,,,,,,,1,001,2025-01-02_18h52.48.839,IAT(Formal),2021.2.3,Win32,181.8181818,,,,,,,,,,,,,,,e,1,0.5218,0,44,44,15,1,诚实,e,,,,,,,,,,,,,,,,,,,,,,,,,,,,,,,,,,,,,,,,,
,,,,,,,,,,,,,,1,001,2025-01-02_18h52.48.839,IAT(Formal),2021.2.3,Win32,181.8181818,,,,,,,,,,,,,,,i,1,0.4669,0,45,45,6,1,他们,i,,,,,,,,,,,,,,,,,,,,,,,,,,,,,,,,,,,,,,,,,
,,,,,,,,,,,,,,1,001,2025-01-02_18h52.48.839,IAT(Formal),2021.2.3,Win32,181.8181818,,,,,,,,,,,,,,,e,1,0.505,0,46,46,24,1,朴实,e,,,,,,,,,,,,,,,,,,,,,,,,,,,,,,,,,,,,,,,,,
,,,,,,,,,,,,,,1,001,2025-01-02_18h52.48.839,IAT(Formal),2021.2.3,Win32,181.8181818,,,,,,,,,,,,,,,i,1,0.4744,0,47,47,9,1,其他,i,,,,,,,,,,,,,,,,,,,,,,,,,,,,,,,,,,,,,,,,,
,,,,,,,,,,,,,,1,001,2025-01-02_18h52.48.839,IAT(Formal),2021.2.3,Win32,181.8181818,,,,,,,,,,,,,,,e,1,0.5043,0,48,48,11,1,崇高,e,,,,,,,,,,,,,,,,,,,,,,,,,,,,,,,,,,,,,,,,,
,,,,,,,,,,,,,,1,001,2025-01-02_18h52.48.839,IAT(Formal),2021.2.3,Win32,181.8181818,,,,,,,,,,,,,,,e,1,0.3446,0,49,49,1,1,我的,e,,,,,,,,,,,,,,,,,,,,,,,,,,,,,,,,,,,,,,,,,
,,,,,,,,,,,,,,1,001,2025-01-02_18h52.48.839,IAT(Formal),2021.2.3,Win32,181.8181818,,,,,,,,,,,,,,,e,1,0.4282,0,50,50,12,1,聪明,e,,,,,,,,,,,,,,,,,,,,,,,,,,,,,,,,,,,,,,,,,
,,,,,,,,,,,,,,1,001,2025-01-02_18h52.48.839,IAT(Formal),2021.2.3,Win32,181.8181818,,,,,,,,,,,,,,,e,1,0.6002,0,51,51,22,1,无私,e,,,,,,,,,,,,,,,,,,,,,,,,,,,,,,,,,,,,,,,,,
,,,,,,,,,,,,,,1,001,2025-01-02_18h52.48.839,IAT(Formal),2021.2.3,Win32,181.8181818,,,,,,,,,,,,,,,e,1,0.3912,0,52,52,70,1,我,e,,,,,,,,,,,,,,,,,,,,,,,,,,,,,,,,,,,,,,,,,
,,,,,,,,,,,,,,1,001,2025-01-02_18h52.48.839,IAT(Formal),2021.2.3,Win32,181.8181818,,,,,,,,,,,,,,,e,1,0.4886,0,53,53,29,1,诚恳,e,,,,,,,,,,,,,,,,,,,,,,,,,,,,,,,,,,,,,,,,,
,,,,,,,,,,,,,,1,001,2025-01-02_18h52.48.839,IAT(Formal),2021.2.3,Win32,181.8181818,,,,,,,,,,,,,,,i,1,0.5411,0,54,54,34,1,悲观,i,,,,,,,,,,,,,,,,,,,,,,,,,,,,,,,,,,,,,,,,,
,,,,,,,,,,,,,,1,001,2025-01-02_18h52.48.839,IAT(Formal),2021.2.3,Win32,181.8181818,,,,,,,,,,,,,,,i,1,0.4667,0,55,55,77,1,他的,i,,,,,,,,,,,,,,,,,,,,,,,,,,,,,,,,,,,,,,,,,
,,,,,,,,,,,,,,1,001,2025-01-02_18h52.48.839,IAT(Formal),2021.2.3,Win32,181.8181818,,,,,,,,,,,,,,,i,1,0.4746,0,56,56,78,1,他人,i,,,,,,,,,,,,,,,,,,,,,,,,,,,,,,,,,,,,,,,,,
,,,,,,,,,,,,,,1,001,2025-01-02_18h52.48.839,IAT(Formal),2021.2.3,Win32,181.8181818,,,,,,,,,,,,,,,i,1,0.4583,0,57,57,58,1,他人,i,,,,,,,,,,,,,,,,,,,,,,,,,,,,,,,,,,,,,,,,,
,,,,,,,,,,,,,,1,001,2025-01-02_18h52.48.839,IAT(Formal),2021.2.3,Win32,181.8181818,,,,,,,,,,,,,,,e,1,0.4842,0,58,58,19,1,机智,e,,,,,,,,,,,,,,,,,,,,,,,,,,,,,,,,,,,,,,,,,
,,,,,,,,,,,,,,1,001,2025-01-02_18h52.48.839,IAT(Formal),2021.2.3,Win32,181.8181818,,,,,,,,,,,,,,,i,1,0.5121,0,59,59,31,1,虚伪,i,,,,,,,,,,,,,,,,,,,,,,,,,,,,,,,,,,,,,,,,,
,,,,,,,,,,,,,,1,001,2025-01-02_18h52.48.839,IAT(Formal),2021.2.3,Win32,181.8181818,,,,,,,,,,,,,,,e,1,0.7837,0,60,60,73,1,自己,e,,,,,,,,,,,,,,,,,,,,,,,,,,,,,,,,,,,,,,,,,
,,,,,,,,,,,,,,1,001,2025-01-02_18h52.48.839,IAT(Formal),2021.2.3,Win32,181.8181818,,,,,,,,,,,,,,,i,1,0.4962,0,61,61,56,1,他们,i,,,,,,,,,,,,,,,,,,,,,,,,,,,,,,,,,,,,,,,,,
,,,,,,,,,,,,,,1,001,2025-01-02_18h52.48.839,IAT(Formal),2021.2.3,Win32,181.8181818,,,,,,,,,,,,,,,e,1,0.4058,0,62,62,0,1,我,e,,,,,,,,,,,,,,,,,,,,,,,,,,,,,,,,,,,,,,,,,
,,,,,,,,,,,,,,1,001,2025-01-02_18h52.48.839,IAT(Formal),2021.2.3,Win32,181.8181818,,,,,,,,,,,,,,,i,1,0.4617,0,63,63,5,1,他,i,,,,,,,,,,,,,,,,,,,,,,,,,,,,,,,,,,,,,,,,,
,,,,,,,,,,,,,,1,001,2025-01-02_18h52.48.839,IAT(Formal),2021.2.3,Win32,181.8181818,,,,,,,,,,,,,,,i,1,0.4803,0,64,64,65,1,他,i,,,,,,,,,,,,,,,,,,,,,,,,,,,,,,,,,,,,,,,,,
,,,,,,,,,,,,,,1,001,2025-01-02_18h52.48.839,IAT(Formal),2021.2.3,Win32,181.8181818,,,,,,,,,,,,,,,i,1,0.6797,0,65,65,47,1,固执,i,,,,,,,,,,,,,,,,,,,,,,,,,,,,,,,,,,,,,,,,,
,,,,,,,,,,,,,,1,001,2025-01-02_18h52.48.839,IAT(Formal),2021.2.3,Win32,181.8181818,,,,,,,,,,,,,,,i,1,0.5335,0,66,66,68,1,他人,i,,,,,,,,,,,,,,,,,,,,,,,,,,,,,,,,,,,,,,,,,
,,,,,,,,,,,,,,1,001,2025-01-02_18h52.48.839,IAT(Formal),2021.2.3,Win32,181.8181818,,,,,,,,,,,,,,,e,1,0.4178,0,67,67,52,1,我们,e,,,,,,,,,,,,,,,,,,,,,,,,,,,,,,,,,,,,,,,,,
,,,,,,,,,,,,,,1,001,2025-01-02_18h52.48.839,IAT(Formal),2021.2.3,Win32,181.8181818,,,,,,,,,,,,,,,e,1,0.3671,0,68,68,50,1,我,e,,,,,,,,,,,,,,,,,,,,,,,,,,,,,,,,,,,,,,,,,
,,,,,,,,,,,,,,1,001,2025-01-02_18h52.48.839,IAT(Formal),2021.2.3,Win32,181.8181818,,,,,,,,,,,,,,,e,1,0.5856,0,69,69,14,1,乐观,e,,,,,,,,,,,,,,,,,,,,,,,,,,,,,,,,,,,,,,,,,
,,,,,,,,,,,,,,1,001,2025-01-02_18h52.48.839,IAT(Formal),2021.2.3,Win32,181.8181818,,,,,,,,,,,,,,,e,1,0.4002,0,70,70,60,1,我,e,,,,,,,,,,,,,,,,,,,,,,,,,,,,,,,,,,,,,,,,,
,,,,,,,,,,,,,,1,001,2025-01-02_18h52.48.839,IAT(Formal),2021.2.3,Win32,181.8181818,,,,,,,,,,,,,,,i,1,0.6905,0,71,71,33,1,刻薄,i,,,,,,,,,,,,,,,,,,,,,,,,,,,,,,,,,,,,,,,,,
,,,,,,,,,,,,,,1,001,2025-01-02_18h52.48.839,IAT(Formal),2021.2.3,Win32,181.8181818,,,,,,,,,,,,,,,e,1,0.4887,0,72,72,18,1,勤奋,e,,,,,,,,,,,,,,,,,,,,,,,,,,,,,,,,,,,,,,,,,
,,,,,,,,,,,,,,1,001,2025-01-02_18h52.48.839,IAT(Formal),2021.2.3,Win32,181.8181818,,,,,,,,,,,,,,,i,1,0.5009,0,73,73,30,1,卑鄙,i,,,,,,,,,,,,,,,,,,,,,,,,,,,,,,,,,,,,,,,,,
,,,,,,,,,,,,,,1,001,2025-01-02_18h52.48.839,IAT(Formal),2021.2.3,Win32,181.8181818,,,,,,,,,,,,,,,i,1,0.7626,0,74,74,36,1,自卑,i,,,,,,,,,,,,,,,,,,,,,,,,,,,,,,,,,,,,,,,,,
,,,,,,,,,,,,,,1,001,2025-01-02_18h52.48.839,IAT(Formal),2021.2.3,Win32,181.8181818,,,,,,,,,,,,,,,e,1,0.5294,0,75,75,17,1,勇敢,e,,,,,,,,,,,,,,,,,,,,,,,,,,,,,,,,,,,,,,,,,
,,,,,,,,,,,,,,1,001,2025-01-02_18h52.48.839,IAT(Formal),2021.2.3,Win32,181.8181818,,,,,,,,,,,,,,,e,1,0.379,0,76,76,61,1,我的,e,,,,,,,,,,,,,,,,,,,,,,,,,,,,,,,,,,,,,,,,,
,,,,,,,,,,,,,,1,001,2025-01-02_18h52.48.839,IAT(Formal),2021.2.3,Win32,181.8181818,,,,,,,,,,,,,,,e,1,0.4351,0,77,77,4,1,俺,e,,,,,,,,,,,,,,,,,,,,,,,,,,,,,,,,,,,,,,,,,
,,,,,,,,,,,,,,1,001,2025-01-02_18h52.48.839,IAT(Formal),2021.2.3,Win32,181.8181818,,,,,,,,,,,,,,,e,1,0.4837,0,78,78,20,1,认真,e,,,,,,,,,,,,,,,,,,,,,,,,,,,,,,,,,,,,,,,,,
,,,,,,,,,,,,,,1,001,2025-01-02_18h52.48.839,IAT(Formal),2021.2.3,Win32,181.8181818,,,,,,,,,,,,,,,i,1,0.8568,0,79,79,59,1,其他,i,,,,,,,,,,,,,,,,,,,,,,,,,,,,,,,,,,,,,,,,,
,,,,,,,,,,,,,,1,001,2025-01-02_18h52.48.839,IAT(Formal),2021.2.3,Win32,181.8181818,,,,,,,,,,,,,,,e,1,0.5112,,,,,,崇高,e,space,7.5789,0,0,0,11,1,,,,,,,,,,,,,,,,,,,,,,,,,,,,,,,,,,
,,,,,,,,,,,,,,1,001,2025-01-02_18h52.48.839,IAT(Formal),2021.2.3,Win32,181.8181818,,,,,,,,,,,,,,,i,1,0.4977,,,,,,猖狂,i,,,0,1,1,45,1,,,,,,,,,,,,,,,,,,,,,,,,,,,,,,,,,,
,,,,,,,,,,,,,,1,001,2025-01-02_18h52.48.839,IAT(Formal),2021.2.3,Win32,181.8181818,,,,,,,,,,,,,,,i,1,0.5979,,,,,,冒失,i,,,0,2,2,39,1,,,,,,,,,,,,,,,,,,,,,,,,,,,,,,,,,,
,,,,,,,,,,,,,,1,001,2025-01-02_18h52.48.839,IAT(Formal),2021.2.3,Win32,181.8181818,,,,,,,,,,,,,,,e,1,0.3559,,,,,,我,e,,,0,3,3,50,1,,,,,,,,,,,,,,,,,,,,,,,,,,,,,,,,,,
,,,,,,,,,,,,,,1,001,2025-01-02_18h52.48.839,IAT(Formal),2021.2.3,Win32,181.8181818,,,,,,,,,,,,,,,e,1,0.3648,,,,,,正直,e,,,0,4,4,16,1,,,,,,,,,,,,,,,,,,,,,,,,,,,,,,,,,,
,,,,,,,,,,,,,,1,001,2025-01-02_18h52.48.839,IAT(Formal),2021.2.3,Win32,181.8181818,,,,,,,,,,,,,,,e,1,0.3741,,,,,,俺,e,,,0,5,5,4,1,,,,,,,,,,,,,,,,,,,,,,,,,,,,,,,,,,
,,,,,,,,,,,,,,1,001,2025-01-02_18h52.48.839,IAT(Formal),2021.2.3,Win32,181.8181818,,,,,,,,,,,,,,,i,1,0.4778,,,,,,他人,i,,,0,6,6,78,1,,,,,,,,,,,,,,,,,,,,,,,,,,,,,,,,,,
,,,,,,,,,,,,,,1,001,2025-01-02_18h52.48.839,IAT(Formal),2021.2.3,Win32,181.8181818,,,,,,,,,,,,,,,i,1,0.3721,,,,,,他,i,,,0,7,7,65,1,,,,,,,,,,,,,,,,,,,,,,,,,,,,,,,,,,
,,,,,,,,,,,,,,1,001,2025-01-02_18h52.48.839,IAT(Formal),2021.2.3,Win32,181.8181818,,,,,,,,,,,,,,,e,1,0.4198,,,,,,诚实,e,,,0,8,8,15,1,,,,,,,,,,,,,,,,,,,,,,,,,,,,,,,,,,
,,,,,,,,,,,,,,1,001,2025-01-02_18h52.48.839,IAT(Formal),2021.2.3,Win32,181.8181818,,,,,,,,,,,,,,,e,0,0.3227,,,,,,他们,i,,,0,9,9,76,1,,,,,,,,,,,,,,,,,,,,,,,,,,,,,,,,,,
,,,,,,,,,,,,,,1,001,2025-01-02_18h52.48.839,IAT(Formal),2021.2.3,Win32,181.8181818,,,,,,,,,,,,,,,e,1,0.523,,,,,,冷静,e,,,0,10,10,26,1,,,,,,,,,,,,,,,,,,,,,,,,,,,,,,,,,,
,,,,,,,,,,,,,,1,001,2025-01-02_18h52.48.839,IAT(Formal),2021.2.3,Win32,181.8181818,,,,,,,,,,,,,,,i,1,0.5133,,,,,,执拗,i,,,0,11,11,40,1,,,,,,,,,,,,,,,,,,,,,,,,,,,,,,,,,,
,,,,,,,,,,,,,,1,001,2025-01-02_18h52.48.839,IAT(Formal),2021.2.3,Win32,181.8181818,,,,,,,,,,,,,,,e,1,0.4684,,,,,,公正,e,,,0,12,12,23,1,,,,,,,,,,,,,,,,,,,,,,,,,,,,,,,,,,
,,,,,,,,,,,,,,1,001,2025-01-02_18h52.48.839,IAT(Formal),2021.2.3,Win32,181.8181818,,,,,,,,,,,,,,,i,1,0.6691,,,,,,自私,i,,,0,13,13,43,1,,,,,,,,,,,,,,,,,,,,,,,,,,,,,,,,,,
,,,,,,,,,,,,,,1,001,2025-01-02_18h52.48.839,IAT(Formal),2021.2.3,Win32,181.8181818,,,,,,,,,,,,,,,e,1,0.434,,,,,,乐观,e,,,0,14,14,14,1,,,,,,,,,,,,,,,,,,,,,,,,,,,,,,,,,,
,,,,,,,,,,,,,,1,001,2025-01-02_18h52.48.839,IAT(Formal),2021.2.3,Win32,181.8181818,,,,,,,,,,,,,,,i,1,0.4571,,,,,,傲慢,i,,,0,15,15,37,1,,,,,,,,,,,,,,,,,,,,,,,,,,,,,,,,,,
,,,,,,,,,,,,,,1,001,2025-01-02_18h52.48.839,IAT(Formal),2021.2.3,Win32,181.8181818,,,,,,,,,,,,,,,e,1,0.5718,,,,,,诚恳,e,,,0,16,16,29,1,,,,,,,,,,,,,,,,,,,,,,,,,,,,,,,,,,
,,,,,,,,,,,,,,1,001,2025-01-02_18h52.48.839,IAT(Formal),2021.2.3,Win32,181.8181818,,,,,,,,,,,,,,,i,1,0.4883,,,,,,散漫,i,,,0,17,17,41,1,,,,,,,,,,,,,,,,,,,,,,,,,,,,,,,,,,
,,,,,,,,,,,,,,1,001,2025-01-02_18h52.48.839,IAT(Formal),2021.2.3,Win32,181.8181818,,,,,,,,,,,,,,,e,1,0.3461,,,,,,我的,e,,,0,18,18,61,1,,,,,,,,,,,,,,,,,,,,,,,,,,,,,,,,,,
,,,,,,,,,,,,,,1,001,2025-01-02_18h52.48.839,IAT(Formal),2021.2.3,Win32,181.8181818,,,,,,,,,,,,,,,e,1,0.3334,,,,,,我们,e,,,0,19,19,72,1,,,,,,,,,,,,,,,,,,,,,,,,,,,,,,,,,,
,,,,,,,,,,,,,,1,001,2025-01-02_18h52.48.839,IAT(Formal),2021.2.3,Win32,181.8181818,,,,,,,,,,,,,,,i,1,0.4672,,,,,,他人,i,,,0,20,20,68,1,,,,,,,,,,,,,,,,,,,,,,,,,,,,,,,,,,
,,,,,,,,,,,,,,1,001,2025-01-02_18h52.48.839,IAT(Formal),2021.2.3,Win32,181.8181818,,,,,,,,,,,,,,,i,1,0.3893,,,,,,悲观,i,,,0,21,21,34,1,,,,,,,,,,,,,,,,,,,,,,,,,,,,,,,,,,
,,,,,,,,,,,,,,1,001,2025-01-02_18h52.48.839,IAT(Formal),2021.2.3,Win32,181.8181818,,,,,,,,,,,,,,,e,1,0.4502,,,,,,朴实,e,,,0,22,22,24,1,,,,,,,,,,,,,,,,,,,,,,,,,,,,,,,,,,
,,,,,,,,,,,,,,1,001,2025-01-02_18h52.48.839,IAT(Formal),2021.2.3,Win32,181.8181818,,,,,,,,,,,,,,,i,1,0.4728,,,,,,其他,i,,,0,23,23,9,1,,,,,,,,,,,,,,,,,,,,,,,,,,,,,,,,,,
,,,,,,,,,,,,,,1,001,2025-01-02_18h52.48.839,IAT(Formal),2021.2.3,Win32,181.8181818,,,,,,,,,,,,,,,i,1,0.6734,,,,,,轻率,i,,,0,24,24,48,1,,,,,,,,,,,,,,,,,,,,,,,,,,,,,,,,,,
,,,,,,,,,,,,,,1,001,2025-01-02_18h52.48.839,IAT(Formal),2021.2.3,Win32,181.8181818,,,,,,,,,,,,,,,i,1,0.4565,,,,,,愚蠢,i,,,0,25,25,32,1,,,,,,,,,,,,,,,,,,,,,,,,,,,,,,,,,,
,,,,,,,,,,,,,,1,001,2025-01-02_18h52.48.839,IAT(Formal),2021.2.3,Win32,181.8181818,,,,,,,,,,,,,,,e,1,0.5502,,,,,,俺,e,,,0,26,26,64,1,,,,,,,,,,,,,,,,,,,,,,,,,,,,,,,,,,
,,,,,,,,,,,,,,1,001,2025-01-02_18h52.48.839,IAT(Formal),2021.2.3,Win32,181.8181818,,,,,,,,,,,,,,,i,1,0.4231,,,,,,卑鄙,i,,,0,27,27,30,1,,,,,,,,,,,,,,,,,,,,,,,,,,,,,,,,,,
,,,,,,,,,,,,,,1,001,2025-01-02_18h52.48.839,IAT(Formal),2021.2.3,Win32,181.8181818,,,,,,,,,,,,,,,i,1,0.4616,,,,,,他,i,,,0,28,28,5,1,,,,,,,,,,,,,,,,,,,,,,,,,,,,,,,,,,
,,,,,,,,,,,,,,1,001,2025-01-02_18h52.48.839,IAT(Formal),2021.2.3,Win32,181.8181818,,,,,,,,,,,,,,,i,1,0.4062,,,,,,其他,i,,,0,29,29,79,1,,,,,,,,,,,,,,,,,,,,,,,,,,,,,,,,,,
,,,,,,,,,,,,,,1,001,2025-01-02_18h52.48.839,IAT(Formal),2021.2.3,Win32,181.8181818,,,,,,,,,,,,,,,i,1,0.3946,,,,,,暴躁,i,,,0,30,30,44,1,,,,,,,,,,,,,,,,,,,,,,,,,,,,,,,,,,
,,,,,,,,,,,,,,1,001,2025-01-02_18h52.48.839,IAT(Formal),2021.2.3,Win32,181.8181818,,,,,,,,,,,,,,,e,1,0.4276,,,,,,我的,e,,,0,31,31,1,1,,,,,,,,,,,,,,,,,,,,,,,,,,,,,,,,,,
,,,,,,,,,,,,,,1,001,2025-01-02_18h52.48.839,IAT(Formal),2021.2.3,Win32,181.8181818,,,,,,,,,,,,,,,i,1,0.4124,,,,,,他们,i,,,0,32,32,6,1,,,,,,,,,,,,,,,,,,,,,,,,,,,,,,,,,,
,,,,,,,,,,,,,,1,001,2025-01-02_18h52.48.839,IAT(Formal),2021.2.3,Win32,181.8181818,,,,,,,,,,,,,,,i,0,0.4496,,,,,,自己,e,,,0,33,33,3,1,,,,,,,,,,,,,,,,,,,,,,,,,,,,,,,,,,
,,,,,,,,,,,,,,1,001,2025-01-02_18h52.48.839,IAT(Formal),2021.2.3,Win32,181.8181818,,,,,,,,,,,,,,,i,1,0.4367,,,,,,虚伪,i,,,0,34,34,31,1,,,,,,,,,,,,,,,,,,,,,,,,,,,,,,,,,,
,,,,,,,,,,,,,,1,001,2025-01-02_18h52.48.839,IAT(Formal),2021.2.3,Win32,181.8181818,,,,,,,,,,,,,,,e,1,0.3674,,,,,,自己,e,,,0,35,35,63,1,,,,,,,,,,,,,,,,,,,,,,,,,,,,,,,,,,
,,,,,,,,,,,,,,1,001,2025-01-02_18h52.48.839,IAT(Formal),2021.2.3,Win32,181.8181818,,,,,,,,,,,,,,,i,1,0.4515,,,,,,固执,i,,,0,36,36,47,1,,,,,,,,,,,,,,,,,,,,,,,,,,,,,,,,,,
,,,,,,,,,,,,,,1,001,2025-01-02_18h52.48.839,IAT(Formal),2021.2.3,Win32,181.8181818,,,,,,,,,,,,,,,i,1,0.4778,,,,,,其他,i,,,0,37,37,59,1,,,,,,,,,,,,,,,,,,,,,,,,,,,,,,,,,,
,,,,,,,,,,,,,,1,001,2025-01-02_18h52.48.839,IAT(Formal),2021.2.3,Win32,181.8181818,,,,,,,,,,,,,,,i,1,0.4531,,,,,,他的,i,,,0,38,38,7,1,,,,,,,,,,,,,,,,,,,,,,,,,,,,,,,,,,
,,,,,,,,,,,,,,1,001,2025-01-02_18h52.48.839,IAT(Formal),2021.2.3,Win32,181.8181818,,,,,,,,,,,,,,,e,1,0.5076,,,,,,勇敢,e,,,0,39,39,17,1,,,,,,,,,,,,,,,,,,,,,,,,,,,,,,,,,,
,,,,,,,,,,,,,,1,001,2025-01-02_18h52.48.839,IAT(Formal),2021.2.3,Win32,181.8181818,,,,,,,,,,,,,,,e,1,0.5335,,,,,,杰出,e,,,0,40,40,13,1,,,,,,,,,,,,,,,,,,,,,,,,,,,,,,,,,,
,,,,,,,,,,,,,,1,001,2025-01-02_18h52.48.839,IAT(Formal),2021.2.3,Win32,181.8181818,,,,,,,,,,,,,,,e,1,0.3905,,,,,,我们,e,,,0,41,41,62,1,,,,,,,,,,,,,,,,,,,,,,,,,,,,,,,,,,
,,,,,,,,,,,,,,1,001,2025-01-02_18h52.48.839,IAT(Formal),2021.2.3,Win32,181.8181818,,,,,,,,,,,,,,,i,0,0.6914,,,,,,无私,e,,,0,42,42,22,1,,,,,,,,,,,,,,,,,,,,,,,,,,,,,,,,,,
,,,,,,,,,,,,,,1,001,2025-01-02_18h52.48.839,IAT(Formal),2021.2.3,Win32,181.8181818,,,,,,,,,,,,,,,i,1,0.5788,,,,,,他们,i,,,0,43,43,56,1,,,,,,,,,,,,,,,,,,,,,,,,,,,,,,,,,,
,,,,,,,,,,,,,,1,001,2025-01-02_18h52.48.839,IAT(Formal),2021.2.3,Win32,181.8181818,,,,,,,,,,,,,,,i,1,0.5191,,,,,,凶狠,i,,,0,44,44,42,1,,,,,,,,,,,,,,,,,,,,,,,,,,,,,,,,,,
,,,,,,,,,,,,,,1,001,2025-01-02_18h52.48.839,IAT(Formal),2021.2.3,Win32,181.8181818,,,,,,,,,,,,,,,i,1,0.5835,,,,,,他的,i,,,0,45,45,77,1,,,,,,,,,,,,,,,,,,,,,,,,,,,,,,,,,,
,,,,,,,,,,,,,,1,001,2025-01-02_18h52.48.839,IAT(Formal),2021.2.3,Win32,181.8181818,,,,,,,,,,,,,,,i,1,0.556,,,,,,野蛮,i,,,0,46,46,46,1,,,,,,,,,,,,,,,,,,,,,,,,,,,,,,,,,,
,,,,,,,,,,,,,,1,001,2025-01-02_18h52.48.839,IAT(Formal),2021.2.3,Win32,181.8181818,,,,,,,,,,,,,,,i,1,0.4894,,,,,,他的,i,,,0,47,47,57,1,,,,,,,,,,,,,,,,,,,,,,,,,,,,,,,,,,
,,,,,,,,,,,,,,1,001,2025-01-02_18h52.48.839,IAT(Formal),2021.2.3,Win32,181.8181818,,,,,,,,,,,,,,,i,1,0.4337,,,,,,消极,i,,,0,48,48,35,1,,,,,,,,,,,,,,,,,,,,,,,,,,,,,,,,,,
,,,,,,,,,,,,,,1,001,2025-01-02_18h52.48.839,IAT(Formal),2021.2.3,Win32,181.8181818,,,,,,,,,,,,,,,e,1,0.5388,,,,,,机智,e,,,0,49,49,19,1,,,,,,,,,,,,,,,,,,,,,,,,,,,,,,,,,,
,,,,,,,,,,,,,,1,001,2025-01-02_18h52.48.839,IAT(Formal),2021.2.3,Win32,181.8181818,,,,,,,,,,,,,,,i,1,0.4576,,,,,,他们,i,,,0,50,50,66,1,,,,,,,,,,,,,,,,,,,,,,,,,,,,,,,,,,
,,,,,,,,,,,,,,1,001,2025-01-02_18h52.48.839,IAT(Formal),2021.2.3,Win32,181.8181818,,,,,,,,,,,,,,,i,1,0.5132,,,,,,他人,i,,,0,51,51,8,1,,,,,,,,,,,,,,,,,,,,,,,,,,,,,,,,,,
,,,,,,,,,,,,,,1,001,2025-01-02_18h52.48.839,IAT(Formal),2021.2.3,Win32,181.8181818,,,,,,,,,,,,,,,i,1,0.456,,,,,,他,i,,,0,52,52,55,1,,,,,,,,,,,,,,,,,,,,,,,,,,,,,,,,,,
,,,,,,,,,,,,,,1,001,2025-01-02_18h52.48.839,IAT(Formal),2021.2.3,Win32,181.8181818,,,,,,,,,,,,,,,e,1,0.5634,,,,,,俺,e,,,0,53,53,74,1,,,,,,,,,,,,,,,,,,,,,,,,,,,,,,,,,,
,,,,,,,,,,,,,,1,001,2025-01-02_18h52.48.839,IAT(Formal),2021.2.3,Win32,181.8181818,,,,,,,,,,,,,,,i,1,0.4585,,,,,,他,i,,,0,54,54,75,1,,,,,,,,,,,,,,,,,,,,,,,,,,,,,,,,,,
,,,,,,,,,,,,,,1,001,2025-01-02_18h52.48.839,IAT(Formal),2021.2.3,Win32,181.8181818,,,,,,,,,,,,,,,i,1,0.4239,,,,,,其他,i,,,0,55,55,69,1,,,,,,,,,,,,,,,,,,,,,,,,,,,,,,,,,,
,,,,,,,,,,,,,,1,001,2025-01-02_18h52.48.839,IAT(Formal),2021.2.3,Win32,181.8181818,,,,,,,,,,,,,,,e,1,0.5063,,,,,,聪明,e,,,0,56,56,12,1,,,,,,,,,,,,,,,,,,,,,,,,,,,,,,,,,,
,,,,,,,,,,,,,,1,001,2025-01-02_18h52.48.839,IAT(Formal),2021.2.3,Win32,181.8181818,,,,,,,,,,,,,,,e,1,0.5357,,,,,,稳重,e,,,0,57,57,21,1,,,,,,,,,,,,,,,,,,,,,,,,,,,,,,,,,,
,,,,,,,,,,,,,,1,001,2025-01-02_18h52.48.839,IAT(Formal),2021.2.3,Win32,181.8181818,,,,,,,,,,,,,,,e,1,0.4532,,,,,,勤奋,e,,,0,58,58,18,1,,,,,,,,,,,,,,,,,,,,,,,,,,,,,,,,,,
,,,,,,,,,,,,,,1,001,2025-01-02_18h52.48.839,IAT(Formal),2021.2.3,Win32,181.8181818,,,,,,,,,,,,,,,e,1,0.3946,,,,,,认真,e,,,0,59,59,20,1,,,,,,,,,,,,,,,,,,,,,,,,,,,,,,,,,,
,,,,,,,,,,,,,,1,001,2025-01-02_18h52.48.839,IAT(Formal),2021.2.3,Win32,181.8181818,,,,,,,,,,,,,,,e,1,0.4668,,,,,,热情,e,,,0,60,60,27,1,,,,,,,,,,,,,,,,,,,,,,,,,,,,,,,,,,
,,,,,,,,,,,,,,1,001,2025-01-02_18h52.48.839,IAT(Formal),2021.2.3,Win32,181.8181818,,,,,,,,,,,,,,,e,1,0.3781,,,,,,自己,e,,,0,61,61,73,1,,,,,,,,,,,,,,,,,,,,,,,,,,,,,,,,,,
,,,,,,,,,,,,,,1,001,2025-01-02_18h52.48.839,IAT(Formal),2021.2.3,Win32,181.8181818,,,,,,,,,,,,,,,e,1,0.3324,,,,,,我的,e,,,0,62,62,71,1,,,,,,,,,,,,,,,,,,,,,,,,,,,,,,,,,,
,,,,,,,,,,,,,,1,001,2025-01-02_18h52.48.839,IAT(Formal),2021.2.3,Win32,181.8181818,,,,,,,,,,,,,,,i,1,0.5169,,,,,,他的,i,,,0,63,63,67,1,,,,,,,,,,,,,,,,,,,,,,,,,,,,,,,,,,
,,,,,,,,,,,,,,1,001,2025-01-02_18h52.48.839,IAT(Formal),2021.2.3,Win32,181.8181818,,,,,,,,,,,,,,,i,1,0.5351,,,,,,自卑,i,,,0,64,64,36,1,,,,,,,,,,,,,,,,,,,,,,,,,,,,,,,,,,
,,,,,,,,,,,,,,1,001,2025-01-02_18h52.48.839,IAT(Formal),2021.2.3,Win32,181.8181818,,,,,,,,,,,,,,,e,1,0.4199,,,,,,俺,e,,,0,65,65,54,1,,,,,,,,,,,,,,,,,,,,,,,,,,,,,,,,,,
,,,,,,,,,,,,,,1,001,2025-01-02_18h52.48.839,IAT(Formal),2021.2.3,Win32,181.8181818,,,,,,,,,,,,,,,i,1,0.5027,,,,,,下贱,i,,,0,66,66,49,1,,,,,,,,,,,,,,,,,,,,,,,,,,,,,,,,,,
,,,,,,,,,,,,,,1,001,2025-01-02_18h52.48.839,IAT(Formal),2021.2.3,Win32,181.8181818,,,,,,,,,,,,,,,e,1,0.5073,,,,,,活泼,e,,,0,67,67,28,1,,,,,,,,,,,,,,,,,,,,,,,,,,,,,,,,,,
,,,,,,,,,,,,,,1,001,2025-01-02_18h52.48.839,IAT(Formal),2021.2.3,Win32,181.8181818,,,,,,,,,,,,,,,e,1,0.4367,,,,,,我,e,,,0,68,68,60,1,,,,,,,,,,,,,,,,,,,,,,,,,,,,,,,,,,
,,,,,,,,,,,,,,1,001,2025-01-02_18h52.48.839,IAT(Formal),2021.2.3,Win32,181.8181818,,,,,,,,,,,,,,,i,1,0.5284,,,,,,刻薄,i,,,0,69,69,33,1,,,,,,,,,,,,,,,,,,,,,,,,,,,,,,,,,,
,,,,,,,,,,,,,,1,001,2025-01-02_18h52.48.839,IAT(Formal),2021.2.3,Win32,181.8181818,,,,,,,,,,,,,,,e,1,0.4171,,,,,,我的,e,,,0,70,70,51,1,,,,,,,,,,,,,,,,,,,,,,,,,,,,,,,,,,
,,,,,,,,,,,,,,1,001,2025-01-02_18h52.48.839,IAT(Formal),2021.2.3,Win32,181.8181818,,,,,,,,,,,,,,,i,1,0.4399,,,,,,他人,i,,,0,71,71,58,1,,,,,,,,,,,,,,,,,,,,,,,,,,,,,,,,,,
,,,,,,,,,,,,,,1,001,2025-01-02_18h52.48.839,IAT(Formal),2021.2.3,Win32,181.8181818,,,,,,,,,,,,,,,i,1,0.5239,,,,,,鲁莽,i,,,0,72,72,38,1,,,,,,,,,,,,,,,,,,,,,,,,,,,,,,,,,,
,,,,,,,,,,,,,,1,001,2025-01-02_18h52.48.839,IAT(Formal),2021.2.3,Win32,181.8181818,,,,,,,,,,,,,,,e,1,0.4139,,,,,,我,e,,,0,73,73,70,1,,,,,,,,,,,,,,,,,,,,,,,,,,,,,,,,,,
,,,,,,,,,,,,,,1,001,2025-01-02_18h52.48.839,IAT(Formal),2021.2.3,Win32,181.8181818,,,,,,,,,,,,,,,e,1,0.3521,,,,,,我,e,,,0,74,74,0,1,,,,,,,,,,,,,,,,,,,,,,,,,,,,,,,,,,
,,,,,,,,,,,,,,1,001,2025-01-02_18h52.48.839,IAT(Formal),2021.2.3,Win32,181.8181818,,,,,,,,,,,,,,,e,1,0.4283,,,,,,优秀,e,,,0,75,75,10,1,,,,,,,,,,,,,,,,,,,,,,,,,,,,,,,,,,
,,,,,,,,,,,,,,1,001,2025-01-02_18h52.48.839,IAT(Formal),2021.2.3,Win32,181.8181818,,,,,,,,,,,,,,,e,1,0.3509,,,,,,自己,e,,,0,76,76,53,1,,,,,,,,,,,,,,,,,,,,,,,,,,,,,,,,,,
,,,,,,,,,,,,,,1,001,2025-01-02_18h52.48.839,IAT(Formal),2021.2.3,Win32,181.8181818,,,,,,,,,,,,,,,e,1,0.6726,,,,,,我们,e,,,0,77,77,52,1,,,,,,,,,,,,,,,,,,,,,,,,,,,,,,,,,,
,,,,,,,,,,,,,,1,001,2025-01-02_18h52.48.839,IAT(Formal),2021.2.3,Win32,181.8181818,,,,,,,,,,,,,,,e,1,0.4171,,,,,,我们,e,,,0,78,78,2,1,,,,,,,,,,,,,,,,,,,,,,,,,,,,,,,,,,
,,,,,,,,,,,,,,1,001,2025-01-02_18h52.48.839,IAT(Formal),2021.2.3,Win32,181.8181818,,,,,,,,,,,,,,,i,0,0.4466,,,,,,细腻,e,,,0,79,79,25,1,,,,,,,,,,,,,,,,,,,,,,,,,,,,,,,,,,
,,,,,,,,,,,,,,1,001,2025-01-02_18h52.48.839,IAT(Formal),2021.2.3,Win32,181.8181818,,,,,,,,,,,,,,,i,1,0.5421,,,,,,固执,i,,,1,0,80,47,1,,,,,,,,,,,,,,,,,,,,,,,,,,,,,,,,,,
,,,,,,,,,,,,,,1,001,2025-01-02_18h52.48.839,IAT(Formal),2021.2.3,Win32,181.8181818,,,,,,,,,,,,,,,e,1,0.4559,,,,,,认真,e,,,1,1,81,20,1,,,,,,,,,,,,,,,,,,,,,,,,,,,,,,,,,,
,,,,,,,,,,,,,,1,001,2025-01-02_18h52.48.839,IAT(Formal),2021.2.3,Win32,181.8181818,,,,,,,,,,,,,,,e,1,0.3671,,,,,,我,e,,,1,2,82,60,1,,,,,,,,,,,,,,,,,,,,,,,,,,,,,,,,,,
,,,,,,,,,,,,,,1,001,2025-01-02_18h52.48.839,IAT(Formal),2021.2.3,Win32,181.8181818,,,,,,,,,,,,,,,i,1,0.5331,,,,,,其他,i,,,1,3,83,9,1,,,,,,,,,,,,,,,,,,,,,,,,,,,,,,,,,,
,,,,,,,,,,,,,,1,001,2025-01-02_18h52.48.839,IAT(Formal),2021.2.3,Win32,181.8181818,,,,,,,,,,,,,,,i,1,0.6114,,,,,,刻薄,i,,,1,4,84,33,1,,,,,,,,,,,,,,,,,,,,,,,,,,,,,,,,,,
,,,,,,,,,,,,,,1,001,2025-01-02_18h52.48.839,IAT(Formal),2021.2.3,Win32,181.8181818,,,,,,,,,,,,,,,i,1,0.5335,,,,,,消极,i,,,1,5,85,35,1,,,,,,,,,,,,,,,,,,,,,,,,,,,,,,,,,,
,,,,,,,,,,,,,,1,001,2025-01-02_18h52.48.839,IAT(Formal),2021.2.3,Win32,181.8181818,,,,,,,,,,,,,,,e,1,0.439,,,,,,我们,e,,,1,6,86,62,1,,,,,,,,,,,,,,,,,,,,,,,,,,,,,,,,,,
,,,,,,,,,,,,,,1,001,2025-01-02_18h52.48.839,IAT(Formal),2021.2.3,Win32,181.8181818,,,,,,,,,,,,,,,e,1,0.5548,,,,,,朴实,e,,,1,7,87,24,1,,,,,,,,,,,,,,,,,,,,,,,,,,,,,,,,,,
,,,,,,,,,,,,,,1,001,2025-01-02_18h52.48.839,IAT(Formal),2021.2.3,Win32,181.8181818,,,,,,,,,,,,,,,i,1,0.5829,,,,,,冒失,i,,,1,8,88,39,1,,,,,,,,,,,,,,,,,,,,,,,,,,,,,,,,,,
,,,,,,,,,,,,,,1,001,2025-01-02_18h52.48.839,IAT(Formal),2021.2.3,Win32,181.8181818,,,,,,,,,,,,,,,e,1,0.4889,,,,,,公正,e,,,1,9,89,23,1,,,,,,,,,,,,,,,,,,,,,,,,,,,,,,,,,,
,,,,,,,,,,,,,,1,001,2025-01-02_18h52.48.839,IAT(Formal),2021.2.3,Win32,181.8181818,,,,,,,,,,,,,,,e,1,0.4722,,,,,,乐观,e,,,1,10,90,14,1,,,,,,,,,,,,,,,,,,,,,,,,,,,,,,,,,,
,,,,,,,,,,,,,,1,001,2025-01-02_18h52.48.839,IAT(Formal),2021.2.3,Win32,181.8181818,,,,,,,,,,,,,,,i,1,0.5169,,,,,,他的,i,,,1,11,91,77,1,,,,,,,,,,,,,,,,,,,,,,,,,,,,,,,,,,
,,,,,,,,,,,,,,1,001,2025-01-02_18h52.48.839,IAT(Formal),2021.2.3,Win32,181.8181818,,,,,,,,,,,,,,,i,1,0.5117,,,,,,愚蠢,i,,,1,12,92,32,1,,,,,,,,,,,,,,,,,,,,,,,,,,,,,,,,,,
,,,,,,,,,,,,,,1,001,2025-01-02_18h52.48.839,IAT(Formal),2021.2.3,Win32,181.8181818,,,,,,,,,,,,,,,e,1,0.5159,,,,,,我,e,,,1,13,93,0,1,,,,,,,,,,,,,,,,,,,,,,,,,,,,,,,,,,
,,,,,,,,,,,,,,1,001,2025-01-02_18h52.48.839,IAT(Formal),2021.2.3,Win32,181.8181818,,,,,,,,,,,,,,,i,1,0.6725,,,,,,轻率,i,,,1,14,94,48,1,,,,,,,,,,,,,,,,,,,,,,,,,,,,,,,,,,
,,,,,,,,,,,,,,1,001,2025-01-02_18h52.48.839,IAT(Formal),2021.2.3,Win32,181.8181818,,,,,,,,,,,,,,,e,1,0.4393,,,,,,我,e,,,1,15,95,70,1,,,,,,,,,,,,,,,,,,,,,,,,,,,,,,,,,,
,,,,,,,,,,,,,,1,001,2025-01-02_18h52.48.839,IAT(Formal),2021.2.3,Win32,181.8181818,,,,,,,,,,,,,,,i,1,0.4662,,,,,,悲观,i,,,1,16,96,34,1,,,,,,,,,,,,,,,,,,,,,,,,,,,,,,,,,,
,,,,,,,,,,,,,,1,001,2025-01-02_18h52.48.839,IAT(Formal),2021.2.3,Win32,181.8181818,,,,,,,,,,,,,,,i,1,0.506,,,,,,其他,i,,,1,17,97,59,1,,,,,,,,,,,,,,,,,,,,,,,,,,,,,,,,,,
,,,,,,,,,,,,,,1,001,2025-01-02_18h52.48.839,IAT(Formal),2021.2.3,Win32,181.8181818,,,,,,,,,,,,,,,e,1,0.4503,,,,,,我的,e,,,1,18,98,61,1,,,,,,,,,,,,,,,,,,,,,,,,,,,,,,,,,,
,,,,,,,,,,,,,,1,001,2025-01-02_18h52.48.839,IAT(Formal),2021.2.3,Win32,181.8181818,,,,,,,,,,,,,,,e,1,0.5224,,,,,,诚恳,e,,,1,19,99,29,1,,,,,,,,,,,,,,,,,,,,,,,,,,,,,,,,,,
,,,,,,,,,,,,,,1,001,2025-01-02_18h52.48.839,IAT(Formal),2021.2.3,Win32,181.8181818,,,,,,,,,,,,,,,i,1,0.4942,,,,,,他们,i,,,1,20,100,66,1,,,,,,,,,,,,,,,,,,,,,,,,,,,,,,,,,,
,,,,,,,,,,,,,,1,001,2025-01-02_18h52.48.839,IAT(Formal),2021.2.3,Win32,181.8181818,,,,,,,,,,,,,,,e,1,0.4721,,,,,,自己,e,,,1,21,101,3,1,,,,,,,,,,,,,,,,,,,,,,,,,,,,,,,,,,
,,,,,,,,,,,,,,1,001,2025-01-02_18h52.48.839,IAT(Formal),2021.2.3,Win32,181.8181818,,,,,,,,,,,,,,,i,1,0.4445,,,,,,他,i,,,1,22,102,55,1,,,,,,,,,,,,,,,,,,,,,,,,,,,,,,,,,,
,,,,,,,,,,,,,,1,001,2025-01-02_18h52.48.839,IAT(Formal),2021.2.3,Win32,181.8181818,,,,,,,,,,,,,,,i,1,0.6778,,,,,,虚伪,i,,,1,23,103,31,1,,,,,,,,,,,,,,,,,,,,,,,,,,,,,,,,,,
,,,,,,,,,,,,,,1,001,2025-01-02_18h52.48.839,IAT(Formal),2021.2.3,Win32,181.8181818,,,,,,,,,,,,,,,i,1,0.5105,,,,,,他们,i,,,1,24,104,56,1,,,,,,,,,,,,,,,,,,,,,,,,,,,,,,,,,,
,,,,,,,,,,,,,,1,001,2025-01-02_18h52.48.839,IAT(Formal),2021.2.3,Win32,181.8181818,,,,,,,,,,,,,,,i,1,0.4366,,,,,,下贱,i,,,1,25,105,49,1,,,,,,,,,,,,,,,,,,,,,,,,,,,,,,,,,,
,,,,,,,,,,,,,,1,001,2025-01-02_18h52.48.839,IAT(Formal),2021.2.3,Win32,181.8181818,,,,,,,,,,,,,,,i,1,0.4497,,,,,,他的,i,,,1,26,106,57,1,,,,,,,,,,,,,,,,,,,,,,,,,,,,,,,,,,
,,,,,,,,,,,,,,1,001,2025-01-02_18h52.48.839,IAT(Formal),2021.2.3,Win32,181.8181818,,,,,,,,,,,,,,,e,1,0.5156,,,,,,冷静,e,,,1,27,107,26,1,,,,,,,,,,,,,,,,,,,,,,,,,,,,,,,,,,
,,,,,,,,,,,,,,1,001,2025-01-02_18h52.48.839,IAT(Formal),2021.2.3,Win32,181.8181818,,,,,,,,,,,,,,,i,1,0.4609,,,,,,其他,i,,,1,28,108,69,1,,,,,,,,,,,,,,,,,,,,,,,,,,,,,,,,,,
,,,,,,,,,,,,,,1,001,2025-01-02_18h52.48.839,IAT(Formal),2021.2.3,Win32,181.8181818,,,,,,,,,,,,,,,i,1,0.4058,,,,,,他,i,,,1,29,109,65,1,,,,,,,,,,,,,,,,,,,,,,,,,,,,,,,,,,
,,,,,,,,,,,,,,1,001,2025-01-02_18h52.48.839,IAT(Formal),2021.2.3,Win32,181.8181818,,,,,,,,,,,,,,,e,1,0.5554,,,,,,聪明,e,,,1,30,110,12,1,,,,,,,,,,,,,,,,,,,,,,,,,,,,,,,,,,
,,,,,,,,,,,,,,1,001,2025-01-02_18h52.48.839,IAT(Formal),2021.2.3,Win32,181.8181818,,,,,,,,,,,,,,,i,1,0.4782,,,,,,他的,i,,,1,31,111,67,1,,,,,,,,,,,,,,,,,,,,,,,,,,,,,,,,,,
,,,,,,,,,,,,,,1,001,2025-01-02_18h52.48.839,IAT(Formal),2021.2.3,Win32,181.8181818,,,,,,,,,,,,,,,i,1,0.5168,,,,,,暴躁,i,,,1,32,112,44,1,,,,,,,,,,,,,,,,,,,,,,,,,,,,,,,,,,
,,,,,,,,,,,,,,1,001,2025-01-02_18h52.48.839,IAT(Formal),2021.2.3,Win32,181.8181818,,,,,,,,,,,,,,,e,1,0.439,,,,,,俺,e,,,1,33,113,4,1,,,,,,,,,,,,,,,,,,,,,,,,,,,,,,,,,,
,,,,,,,,,,,,,,1,001,2025-01-02_18h52.48.839,IAT(Formal),2021.2.3,Win32,181.8181818,,,,,,,,,,,,,,,i,1,0.4502,,,,,,他,i,,,1,34,114,5,1,,,,,,,,,,,,,,,,,,,,,,,,,,,,,,,,,,
,,,,,,,,,,,,,,1,001,2025-01-02_18h52.48.839,IAT(Formal),2021.2.3,Win32,181.8181818,,,,,,,,,,,,,,,e,1,0.6781,,,,,,我的,e,,,1,35,115,1,1,,,,,,,,,,,,,,,,,,,,,,,,,,,,,,,,,,
,,,,,,,,,,,,,,1,001,2025-01-02_18h52.48.839,IAT(Formal),2021.2.3,Win32,181.8181818,,,,,,,,,,,,,,,e,1,0.517,,,,,,我们,e,,,1,36,116,52,1,,,,,,,,,,,,,,,,,,,,,,,,,,,,,,,,,,
,,,,,,,,,,,,,,1,001,2025-01-02_18h52.48.839,IAT(Formal),2021.2.3,Win32,181.8181818,,,,,,,,,,,,,,,e,1,0.4647,,,,,,勇敢,e,,,1,37,117,17,1,,,,,,,,,,,,,,,,,,,,,,,,,,,,,,,,,,
,,,,,,,,,,,,,,1,001,2025-01-02_18h52.48.839,IAT(Formal),2021.2.3,Win32,181.8181818,,,,,,,,,,,,,,,e,1,0.4222,,,,,,热情,e,,,1,38,118,27,1,,,,,,,,,,,,,,,,,,,,,,,,,,,,,,,,,,
,,,,,,,,,,,,,,1,001,2025-01-02_18h52.48.839,IAT(Formal),2021.2.3,Win32,181.8181818,,,,,,,,,,,,,,,e,1,0.3621,,,,,,自己,e,,,1,39,119,53,1,,,,,,,,,,,,,,,,,,,,,,,,,,,,,,,,,,
,,,,,,,,,,,,,,1,001,2025-01-02_18h52.48.839,IAT(Formal),2021.2.3,Win32,181.8181818,,,,,,,,,,,,,,,e,1,0.4444,,,,,,勤奋,e,,,1,40,120,18,1,,,,,,,,,,,,,,,,,,,,,,,,,,,,,,,,,,
,,,,,,,,,,,,,,1,001,2025-01-02_18h52.48.839,IAT(Formal),2021.2.3,Win32,181.8181818,,,,,,,,,,,,,,,i,1,0.5165,,,,,,他人,i,,,1,41,121,58,1,,,,,,,,,,,,,,,,,,,,,,,,,,,,,,,,,,
,,,,,,,,,,,,,,1,001,2025-01-02_18h52.48.839,IAT(Formal),2021.2.3,Win32,181.8181818,,,,,,,,,,,,,,,i,1,0.4889,,,,,,他人,i,,,1,42,122,78,1,,,,,,,,,,,,,,,,,,,,,,,,,,,,,,,,,,
,,,,,,,,,,,,,,1,001,2025-01-02_18h52.48.839,IAT(Formal),2021.2.3,Win32,181.8181818,,,,,,,,,,,,,,,i,1,0.5613,,,,,,自卑,i,,,1,43,123,36,1,,,,,,,,,,,,,,,,,,,,,,,,,,,,,,,,,,
,,,,,,,,,,,,,,1,001,2025-01-02_18h52.48.839,IAT(Formal),2021.2.3,Win32,181.8181818,,,,,,,,,,,,,,,e,1,0.4935,,,,,,崇高,e,,,1,44,124,11,1,,,,,,,,,,,,,,,,,,,,,,,,,,,,,,,,,,
,,,,,,,,,,,,,,1,001,2025-01-02_18h52.48.839,IAT(Formal),2021.2.3,Win32,181.8181818,,,,,,,,,,,,,,,e,1,0.4964,,,,,,俺,e,,,1,45,125,74,1,,,,,,,,,,,,,,,,,,,,,,,,,,,,,,,,,,
,,,,,,,,,,,,,,1,001,2025-01-02_18h52.48.839,IAT(Formal),2021.2.3,Win32,181.8181818,,,,,,,,,,,,,,,e,1,0.455,,,,,,杰出,e,,,1,46,126,13,1,,,,,,,,,,,,,,,,,,,,,,,,,,,,,,,,,,
,,,,,,,,,,,,,,1,001,2025-01-02_18h52.48.839,IAT(Formal),2021.2.3,Win32,181.8181818,,,,,,,,,,,,,,,e,1,0.3947,,,,,,我,e,,,1,47,127,50,1,,,,,,,,,,,,,,,,,,,,,,,,,,,,,,,,,,
,,,,,,,,,,,,,,1,001,2025-01-02_18h52.48.839,IAT(Formal),2021.2.3,Win32,181.8181818,,,,,,,,,,,,,,,i,1,0.5388,,,,,,凶狠,i,,,1,48,128,42,1,,,,,,,,,,,,,,,,,,,,,,,,,,,,,,,,,,
,,,,,,,,,,,,,,1,001,2025-01-02_18h52.48.839,IAT(Formal),2021.2.3,Win32,181.8181818,,,,,,,,,,,,,,,i,1,1.078,,,,,,自私,i,,,1,49,129,43,1,,,,,,,,,,,,,,,,,,,,,,,,,,,,,,,,,,
,,,,,,,,,,,,,,1,001,2025-01-02_18h52.48.839,IAT(Formal),2021.2.3,Win32,181.8181818,,,,,,,,,,,,,,,e,1,0.4067,,,,,,俺,e,,,1,50,130,64,1,,,,,,,,,,,,,,,,,,,,,,,,,,,,,,,,,,
,,,,,,,,,,,,,,1,001,2025-01-02_18h52.48.839,IAT(Formal),2021.2.3,Win32,181.8181818,,,,,,,,,,,,,,,e,1,0.3604,,,,,,我的,e,,,1,51,131,71,1,,,,,,,,,,,,,,,,,,,,,,,,,,,,,,,,,,
,,,,,,,,,,,,,,1,001,2025-01-02_18h52.48.839,IAT(Formal),2021.2.3,Win32,181.8181818,,,,,,,,,,,,,,,e,1,0.4284,,,,,,优秀,e,,,1,52,132,10,1,,,,,,,,,,,,,,,,,,,,,,,,,,,,,,,,,,
,,,,,,,,,,,,,,1,001,2025-01-02_18h52.48.839,IAT(Formal),2021.2.3,Win32,181.8181818,,,,,,,,,,,,,,,i,1,0.4672,,,,,,鲁莽,i,,,1,53,133,38,1,,,,,,,,,,,,,,,,,,,,,,,,,,,,,,,,,,
,,,,,,,,,,,,,,1,001,2025-01-02_18h52.48.839,IAT(Formal),2021.2.3,Win32,181.8181818,,,,,,,,,,,,,,,e,1,0.5278,,,,,,正直,e,,,1,54,134,16,1,,,,,,,,,,,,,,,,,,,,,,,,,,,,,,,,,,
,,,,,,,,,,,,,,1,001,2025-01-02_18h52.48.839,IAT(Formal),2021.2.3,Win32,181.8181818,,,,,,,,,,,,,,,e,1,0.4555,,,,,,我们,e,,,1,55,135,2,1,,,,,,,,,,,,,,,,,,,,,,,,,,,,,,,,,,
,,,,,,,,,,,,,,1,001,2025-01-02_18h52.48.839,IAT(Formal),2021.2.3,Win32,181.8181818,,,,,,,,,,,,,,,e,1,0.4946,,,,,,诚实,e,,,1,56,136,15,1,,,,,,,,,,,,,,,,,,,,,,,,,,,,,,,,,,
,,,,,,,,,,,,,,1,001,2025-01-02_18h52.48.839,IAT(Formal),2021.2.3,Win32,181.8181818,,,,,,,,,,,,,,,e,1,0.4333,,,,,,机智,e,,,1,57,137,19,1,,,,,,,,,,,,,,,,,,,,,,,,,,,,,,,,,,
,,,,,,,,,,,,,,1,001,2025-01-02_18h52.48.839,IAT(Formal),2021.2.3,Win32,181.8181818,,,,,,,,,,,,,,,e,1,0.4832,,,,,,活泼,e,,,1,58,138,28,1,,,,,,,,,,,,,,,,,,,,,,,,,,,,,,,,,,
,,,,,,,,,,,,,,1,001,2025-01-02_18h52.48.839,IAT(Formal),2021.2.3,Win32,181.8181818,,,,,,,,,,,,,,,i,1,0.4951,,,,,,他人,i,,,1,59,139,68,1,,,,,,,,,,,,,,,,,,,,,,,,,,,,,,,,,,
,,,,,,,,,,,,,,1,001,2025-01-02_18h52.48.839,IAT(Formal),2021.2.3,Win32,181.8181818,,,,,,,,,,,,,,,i,1,0.4554,,,,,,其他,i,,,1,60,140,79,1,,,,,,,,,,,,,,,,,,,,,,,,,,,,,,,,,,
,,,,,,,,,,,,,,1,001,2025-01-02_18h52.48.839,IAT(Formal),2021.2.3,Win32,181.8181818,,,,,,,,,,,,,,,i,1,0.4279,,,,,,猖狂,i,,,1,61,141,45,1,,,,,,,,,,,,,,,,,,,,,,,,,,,,,,,,,,
,,,,,,,,,,,,,,1,001,2025-01-02_18h52.48.839,IAT(Formal),2021.2.3,Win32,181.8181818,,,,,,,,,,,,,,,i,1,0.4332,,,,,,执拗,i,,,1,62,142,40,1,,,,,,,,,,,,,,,,,,,,,,,,,,,,,,,,,,
,,,,,,,,,,,,,,1,001,2025-01-02_18h52.48.839,IAT(Formal),2021.2.3,Win32,181.8181818,,,,,,,,,,,,,,,e,1,0.4669,,,,,,自己,e,,,1,63,143,63,1,,,,,,,,,,,,,,,,,,,,,,,,,,,,,,,,,,
,,,,,,,,,,,,,,1,001,2025-01-02_18h52.48.839,IAT(Formal),2021.2.3,Win32,181.8181818,,,,,,,,,,,,,,,i,1,0.5115,,,,,,散漫,i,,,1,64,144,41,1,,,,,,,,,,,,,,,,,,,,,,,,,,,,,,,,,,
,,,,,,,,,,,,,,1,001,2025-01-02_18h52.48.839,IAT(Formal),2021.2.3,Win32,181.8181818,,,,,,,,,,,,,,,e,1,0.4888,,,,,,我的,e,,,1,65,145,51,1,,,,,,,,,,,,,,,,,,,,,,,,,,,,,,,,,,
,,,,,,,,,,,,,,1,001,2025-01-02_18h52.48.839,IAT(Formal),2021.2.3,Win32,181.8181818,,,,,,,,,,,,,,,i,1,0.4725,,,,,,他们,i,,,1,66,146,6,1,,,,,,,,,,,,,,,,,,,,,,,,,,,,,,,,,,
,,,,,,,,,,,,,,1,001,2025-01-02_18h52.48.839,IAT(Formal),2021.2.3,Win32,181.8181818,,,,,,,,,,,,,,,i,1,0.495,,,,,,他,i,,,1,67,147,75,1,,,,,,,,,,,,,,,,,,,,,,,,,,,,,,,,,,
,,,,,,,,,,,,,,1,001,2025-01-02_18h52.48.839,IAT(Formal),2021.2.3,Win32,181.8181818,,,,,,,,,,,,,,,e,1,0.5831,,,,,,稳重,e,,,1,68,148,21,1,,,,,,,,,,,,,,,,,,,,,,,,,,,,,,,,,,
,,,,,,,,,,,,,,1,001,2025-01-02_18h52.48.839,IAT(Formal),2021.2.3,Win32,181.8181818,,,,,,,,,,,,,,,e,1,0.489,,,,,,自己,e,,,1,69,149,73,1,,,,,,,,,,,,,,,,,,,,,,,,,,,,,,,,,,
,,,,,,,,,,,,,,1,001,2025-01-02_18h52.48.839,IAT(Formal),2021.2.3,Win32,181.8181818,,,,,,,,,,,,,,,e,1,0.4688,,,,,,俺,e,,,1,70,150,54,1,,,,,,,,,,,,,,,,,,,,,,,,,,,,,,,,,,
,,,,,,,,,,,,,,1,001,2025-01-02_18h52.48.839,IAT(Formal),2021.2.3,Win32,181.8181818,,,,,,,,,,,,,,,i,1,0.5223,,,,,,他人,i,,,1,71,151,8,1,,,,,,,,,,,,,,,,,,,,,,,,,,,,,,,,,,
,,,,,,,,,,,,,,1,001,2025-01-02_18h52.48.839,IAT(Formal),2021.2.3,Win32,181.8181818,,,,,,,,,,,,,,,i,1,0.4556,,,,,,他们,i,,,1,72,152,76,1,,,,,,,,,,,,,,,,,,,,,,,,,,,,,,,,,,
,,,,,,,,,,,,,,1,001,2025-01-02_18h52.48.839,IAT(Formal),2021.2.3,Win32,181.8181818,,,,,,,,,,,,,,,e,1,0.6165,,,,,,细腻,e,,,1,73,153,25,1,,,,,,,,,,,,,,,,,,,,,,,,,,,,,,,,,,
,,,,,,,,,,,,,,1,001,2025-01-02_18h52.48.839,IAT(Formal),2021.2.3,Win32,181.8181818,,,,,,,,,,,,,,,e,1,0.3893,,,,,,我们,e,,,1,74,154,72,1,,,,,,,,,,,,,,,,,,,,,,,,,,,,,,,,,,
,,,,,,,,,,,,,,1,001,2025-01-02_18h52.48.839,IAT(Formal),2021.2.3,Win32,181.8181818,,,,,,,,,,,,,,,i,1,0.4778,,,,,,傲慢,i,,,1,75,155,37,1,,,,,,,,,,,,,,,,,,,,,,,,,,,,,,,,,,
,,,,,,,,,,,,,,1,001,2025-01-02_18h52.48.839,IAT(Formal),2021.2.3,Win32,181.8181818,,,,,,,,,,,,,,,,0,,,,,,,卑鄙,i,,,1,76,156,30,1,,,,,,,,,,,,,,,,,,,,,,,,,,,,,,,,,,
,,,,,,,,,,,,,,1,001,2025-01-02_18h52.48.839,IAT(Formal),2021.2.3,Win32,181.8181818,,,,,,,,,,,,,,,i,1,0.5781,,,,,,他的,i,,,1,77,157,7,1,,,,,,,,,,,,,,,,,,,,,,,,,,,,,,,,,,
,,,,,,,,,,,,,,1,001,2025-01-02_18h52.48.839,IAT(Formal),2021.2.3,Win32,181.8181818,,,,,,,,,,,,,,,e,1,0.7948,,,,,,无私,e,,,1,78,158,22,1,,,,,,,,,,,,,,,,,,,,,,,,,,,,,,,,,,
,,,,,,,,,,,,,,1,001,2025-01-02_18h52.48.839,IAT(Formal),2021.2.3,Win32,181.8181818,,,,,,,,,,,,,,,i,1,0.578,,,,,,野蛮,i,,,1,79,159,46,1,,,,,,,,,,,,,,,,,,,,,,,,,,,,,,,,,,
,,,,,,,,,,,,自己,i,1,001,2025-01-02_18h52.48.839,IAT(Formal),2021.2.3,Win32,181.8181818,,,,,,,,,,,,,,,,,,,,,,,,,,,,,,,,space,6.3897,i,1,0.6914,0,0,0,3,1,,,,,,,,,,,,,,,,,,,,,,,,
,,,,,,,,,,,,我,i,1,001,2025-01-02_18h52.48.839,IAT(Formal),2021.2.3,Win32,181.8181818,,,,,,,,,,,,,,,,,,,,,,,,,,,,,,,,,,i,1,0.5461,0,1,1,0,1,,,,,,,,,,,,,,,,,,,,,,,,
,,,,,,,,,,,,俺,i,1,001,2025-01-02_18h52.48.839,IAT(Formal),2021.2.3,Win32,181.8181818,,,,,,,,,,,,,,,,,,,,,,,,,,,,,,,,,,i,1,0.7644,0,2,2,4,1,,,,,,,,,,,,,,,,,,,,,,,,
,,,,,,,,,,,,我的,i,1,001,2025-01-02_18h52.48.839,IAT(Formal),2021.2.3,Win32,181.8181818,,,,,,,,,,,,,,,,,,,,,,,,,,,,,,,,,,i,1,0.4452,0,3,3,1,1,,,,,,,,,,,,,,,,,,,,,,,,
,,,,,,,,,,,,其他,e,1,001,2025-01-02_18h52.48.839,IAT(Formal),2021.2.3,Win32,181.8181818,,,,,,,,,,,,,,,,,,,,,,,,,,,,,,,,,,i,0,0.4234,0,4,4,9,1,,,,,,,,,,,,,,,,,,,,,,,,
,,,,,,,,,,,,他,e,1,001,2025-01-02_18h52.48.839,IAT(Formal),2021.2.3,Win32,181.8181818,,,,,,,,,,,,,,,,,,,,,,,,,,,,,,,,,,e,1,0.4509,0,5,5,5,1,,,,,,,,,,,,,,,,,,,,,,,,
,,,,,,,,,,,,我们,i,1,001,2025-01-02_18h52.48.839,IAT(Formal),2021.2.3,Win32,181.8181818,,,,,,,,,,,,,,,,,,,,,,,,,,,,,,,,,,i,1,0.4756,0,6,6,2,1,,,,,,,,,,,,,,,,,,,,,,,,
,,,,,,,,,,,,他人,e,1,001,2025-01-02_18h52.48.839,IAT(Formal),2021.2.3,Win32,181.8181818,,,,,,,,,,,,,,,,,,,,,,,,,,,,,,,,,,e,1,0.4301,0,7,7,8,1,,,,,,,,,,,,,,,,,,,,,,,,
,,,,,,,,,,,,他的,e,1,001,2025-01-02_18h52.48.839,IAT(Formal),2021.2.3,Win32,181.8181818,,,,,,,,,,,,,,,,,,,,,,,,,,,,,,,,,,e,1,0.4519,0,8,8,7,1,,,,,,,,,,,,,,,,,,,,,,,,
,,,,,,,,,,,,他们,e,1,001,2025-01-02_18h52.48.839,IAT(Formal),2021.2.3,Win32,181.8181818,,,,,,,,,,,,,,,,,,,,,,,,,,,,,,,,,,e,1,0.3851,0,9,9,6,1,,,,,,,,,,,,,,,,,,,,,,,,
,,,,,,,,,,,,,,1,001,2025-01-02_18h52.48.839,IAT(Formal),2021.2.3,Win32,181.8181818,,,,,,,,,,,,,,,,,,,,,,,,,,,,,,,,,,,,,,,,,,space,7.1494,e,1,0.9458,0,0,0,23,1,公正,e,,,,,,,,,,,,
,,,,,,,,,,,,,,1,001,2025-01-02_18h52.48.839,IAT(Formal),2021.2.3,Win32,181.8181818,,,,,,,,,,,,,,,,,,,,,,,,,,,,,,,,,,,,,,,,,,,,e,1,0.4304,0,1,1,68,1,他人,e,,,,,,,,,,,,
,,,,,,,,,,,,,,1,001,2025-01-02_18h52.48.839,IAT(Formal),2021.2.3,Win32,181.8181818,,,,,,,,,,,,,,,,,,,,,,,,,,,,,,,,,,,,,,,,,,,,i,1,0.4625,0,2,2,73,1,自己,i,,,,,,,,,,,,
,,,,,,,,,,,,,,1,001,2025-01-02_18h52.48.839,IAT(Formal),2021.2.3,Win32,181.8181818,,,,,,,,,,,,,,,,,,,,,,,,,,,,,,,,,,,,,,,,,,,,i,1,0.8988,0,3,3,42,1,凶狠,i,,,,,,,,,,,,
,,,,,,,,,,,,,,1,001,2025-01-02_18h52.48.839,IAT(Formal),2021.2.3,Win32,181.8181818,,,,,,,,,,,,,,,,,,,,,,,,,,,,,,,,,,,,,,,,,,,,i,1,0.5437,0,4,4,30,1,卑鄙,i,,,,,,,,,,,,
,,,,,,,,,,,,,,1,001,2025-01-02_18h52.48.839,IAT(Formal),2021.2.3,Win32,181.8181818,,,,,,,,,,,,,,,,,,,,,,,,,,,,,,,,,,,,,,,,,,,,i,1,0.5966,0,5,5,53,1,自己,i,,,,,,,,,,,,
,,,,,,,,,,,,,,1,001,2025-01-02_18h52.48.839,IAT(Formal),2021.2.3,Win32,181.8181818,,,,,,,,,,,,,,,,,,,,,,,,,,,,,,,,,,,,,,,,,,,,i,1,0.5896,0,6,6,74,1,俺,i,,,,,,,,,,,,
,,,,,,,,,,,,,,1,001,2025-01-02_18h52.48.839,IAT(Formal),2021.2.3,Win32,181.8181818,,,,,,,,,,,,,,,,,,,,,,,,,,,,,,,,,,,,,,,,,,,,i,1,0.4146,0,7,7,0,1,我,i,,,,,,,,,,,,
,,,,,,,,,,,,,,1,001,2025-01-02_18h52.48.839,IAT(Formal),2021.2.3,Win32,181.8181818,,,,,,,,,,,,,,,,,,,,,,,,,,,,,,,,,,,,,,,,,,,,i,1,1.1168,0,8,8,34,1,悲观,i,,,,,,,,,,,,
,,,,,,,,,,,,,,1,001,2025-01-02_18h52.48.839,IAT(Formal),2021.2.3,Win32,181.8181818,,,,,,,,,,,,,,,,,,,,,,,,,,,,,,,,,,,,,,,,,,,,e,0,0.4946,0,9,9,54,1,俺,i,,,,,,,,,,,,
,,,,,,,,,,,,,,1,001,2025-01-02_18h52.48.839,IAT(Formal),2021.2.3,Win32,181.8181818,,,,,,,,,,,,,,,,,,,,,,,,,,,,,,,,,,,,,,,,,,,,e,1,0.6947,0,10,10,10,1,优秀,e,,,,,,,,,,,,
,,,,,,,,,,,,,,1,001,2025-01-02_18h52.48.839,IAT(Formal),2021.2.3,Win32,181.8181818,,,,,,,,,,,,,,,,,,,,,,,,,,,,,,,,,,,,,,,,,,,,e,1,0.5226,0,11,11,17,1,勇敢,e,,,,,,,,,,,,
,,,,,,,,,,,,,,1,001,2025-01-02_18h52.48.839,IAT(Formal),2021.2.3,Win32,181.8181818,,,,,,,,,,,,,,,,,,,,,,,,,,,,,,,,,,,,,,,,,,,,i,1,0.6399,0,12,12,45,1,猖狂,i,,,,,,,,,,,,
,,,,,,,,,,,,,,1,001,2025-01-02_18h52.48.839,IAT(Formal),2021.2.3,Win32,181.8181818,,,,,,,,,,,,,,,,,,,,,,,,,,,,,,,,,,,,,,,,,,,,i,1,0.4445,0,13,13,2,1,我们,i,,,,,,,,,,,,
,,,,,,,,,,,,,,1,001,2025-01-02_18h52.48.839,IAT(Formal),2021.2.3,Win32,181.8181818,,,,,,,,,,,,,,,,,,,,,,,,,,,,,,,,,,,,,,,,,,,,e,1,0.5001,0,14,14,16,1,正直,e,,,,,,,,,,,,
,,,,,,,,,,,,,,1,001,2025-01-02_18h52.48.839,IAT(Formal),2021.2.3,Win32,181.8181818,,,,,,,,,,,,,,,,,,,,,,,,,,,,,,,,,,,,,,,,,,,,e,1,0.5561,0,15,15,18,1,勤奋,e,,,,,,,,,,,,
,,,,,,,,,,,,,,1,001,2025-01-02_18h52.48.839,IAT(Formal),2021.2.3,Win32,181.8181818,,,,,,,,,,,,,,,,,,,,,,,,,,,,,,,,,,,,,,,,,,,,e,1,0.3893,0,16,16,67,1,他的,e,,,,,,,,,,,,
,,,,,,,,,,,,,,1,001,2025-01-02_18h52.48.839,IAT(Formal),2021.2.3,Win32,181.8181818,,,,,,,,,,,,,,,,,,,,,,,,,,,,,,,,,,,,,,,,,,,,e,1,0.4169,0,17,17,58,1,他人,e,,,,,,,,,,,,
,,,,,,,,,,,,,,1,001,2025-01-02_18h52.48.839,IAT(Formal),2021.2.3,Win32,181.8181818,,,,,,,,,,,,,,,,,,,,,,,,,,,,,,,,,,,,,,,,,,,,e,1,0.4282,0,18,18,66,1,他们,e,,,,,,,,,,,,
,,,,,,,,,,,,,,1,001,2025-01-02_18h52.48.839,IAT(Formal),2021.2.3,Win32,181.8181818,,,,,,,,,,,,,,,,,,,,,,,,,,,,,,,,,,,,,,,,,,,,i,1,0.4613,0,19,19,33,1,刻薄,i,,,,,,,,,,,,
,,,,,,,,,,,,,,1,001,2025-01-02_18h52.48.839,IAT(Formal),2021.2.3,Win32,181.8181818,,,,,,,,,,,,,,,,,,,,,,,,,,,,,,,,,,,,,,,,,,,,i,1,0.5223,0,20,20,47,1,固执,i,,,,,,,,,,,,
,,,,,,,,,,,,,,1,001,2025-01-02_18h52.48.839,IAT(Formal),2021.2.3,Win32,181.8181818,,,,,,,,,,,,,,,,,,,,,,,,,,,,,,,,,,,,,,,,,,,,i,1,0.3836,0,21,21,4,1,俺,i,,,,,,,,,,,,
,,,,,,,,,,,,,,1,001,2025-01-02_18h52.48.839,IAT(Formal),2021.2.3,Win32,181.8181818,,,,,,,,,,,,,,,,,,,,,,,,,,,,,,,,,,,,,,,,,,,,e,1,0.4503,0,22,22,55,1,他,e,,,,,,,,,,,,
,,,,,,,,,,,,,,1,001,2025-01-02_18h52.48.839,IAT(Formal),2021.2.3,Win32,181.8181818,,,,,,,,,,,,,,,,,,,,,,,,,,,,,,,,,,,,,,,,,,,,e,1,0.3977,0,23,23,65,1,他,e,,,,,,,,,,,,
,,,,,,,,,,,,,,1,001,2025-01-02_18h52.48.839,IAT(Formal),2021.2.3,Win32,181.8181818,,,,,,,,,,,,,,,,,,,,,,,,,,,,,,,,,,,,,,,,,,,,e,1,0.617,0,24,24,22,1,无私,e,,,,,,,,,,,,
,,,,,,,,,,,,,,1,001,2025-01-02_18h52.48.839,IAT(Formal),2021.2.3,Win32,181.8181818,,,,,,,,,,,,,,,,,,,,,,,,,,,,,,,,,,,,,,,,,,,,e,1,0.8949,0,25,25,24,1,朴实,e,,,,,,,,,,,,
,,,,,,,,,,,,,,1,001,2025-01-02_18h52.48.839,IAT(Formal),2021.2.3,Win32,181.8181818,,,,,,,,,,,,,,,,,,,,,,,,,,,,,,,,,,,,,,,,,,,,i,1,0.49,0,26,26,41,1,散漫,i,,,,,,,,,,,,
,,,,,,,,,,,,,,1,001,2025-01-02_18h52.48.839,IAT(Formal),2021.2.3,Win32,181.8181818,,,,,,,,,,,,,,,,,,,,,,,,,,,,,,,,,,,,,,,,,,,,i,1,0.5637,0,27,27,50,1,我,i,,,,,,,,,,,,
,,,,,,,,,,,,,,1,001,2025-01-02_18h52.48.839,IAT(Formal),2021.2.3,Win32,181.8181818,,,,,,,,,,,,,,,,,,,,,,,,,,,,,,,,,,,,,,,,,,,,e,1,0.851,0,28,28,76,1,他们,e,,,,,,,,,,,,
,,,,,,,,,,,,,,1,001,2025-01-02_18h52.48.839,IAT(Formal),2021.2.3,Win32,181.8181818,,,,,,,,,,,,,,,,,,,,,,,,,,,,,,,,,,,,,,,,,,,,e,1,0.6253,0,29,29,69,1,其他,e,,,,,,,,,,,,
,,,,,,,,,,,,,,1,001,2025-01-02_18h52.48.839,IAT(Formal),2021.2.3,Win32,181.8181818,,,,,,,,,,,,,,,,,,,,,,,,,,,,,,,,,,,,,,,,,,,,i,1,0.5699,0,30,30,38,1,鲁莽,i,,,,,,,,,,,,
,,,,,,,,,,,,,,1,001,2025-01-02_18h52.48.839,IAT(Formal),2021.2.3,Win32,181.8181818,,,,,,,,,,,,,,,,,,,,,,,,,,,,,,,,,,,,,,,,,,,,i,1,0.623,0,31,31,63,1,自己,i,,,,,,,,,,,,
,,,,,,,,,,,,,,1,001,2025-01-02_18h52.48.839,IAT(Formal),2021.2.3,Win32,181.8181818,,,,,,,,,,,,,,,,,,,,,,,,,,,,,,,,,,,,,,,,,,,,e,1,0.4537,0,32,32,6,1,他们,e,,,,,,,,,,,,
,,,,,,,,,,,,,,1,001,2025-01-02_18h52.48.839,IAT(Formal),2021.2.3,Win32,181.8181818,,,,,,,,,,,,,,,,,,,,,,,,,,,,,,,,,,,,,,,,,,,,i,1,0.4971,0,33,33,44,1,暴躁,i,,,,,,,,,,,,
,,,,,,,,,,,,,,1,001,2025-01-02_18h52.48.839,IAT(Formal),2021.2.3,Win32,181.8181818,,,,,,,,,,,,,,,,,,,,,,,,,,,,,,,,,,,,,,,,,,,,e,1,0.5613,0,34,34,75,1,他,e,,,,,,,,,,,,
,,,,,,,,,,,,,,1,001,2025-01-02_18h52.48.839,IAT(Formal),2021.2.3,Win32,181.8181818,,,,,,,,,,,,,,,,,,,,,,,,,,,,,,,,,,,,,,,,,,,,e,1,0.4037,0,35,35,59,1,其他,e,,,,,,,,,,,,
,,,,,,,,,,,,,,1,001,2025-01-02_18h52.48.839,IAT(Formal),2021.2.3,Win32,181.8181818,,,,,,,,,,,,,,,,,,,,,,,,,,,,,,,,,,,,,,,,,,,,i,1,0.5408,0,36,36,64,1,俺,i,,,,,,,,,,,,
,,,,,,,,,,,,,,1,001,2025-01-02_18h52.48.839,IAT(Formal),2021.2.3,Win32,181.8181818,,,,,,,,,,,,,,,,,,,,,,,,,,,,,,,,,,,,,,,,,,,,e,1,0.57,0,37,37,77,1,他的,e,,,,,,,,,,,,
,,,,,,,,,,,,,,1,001,2025-01-02_18h52.48.839,IAT(Formal),2021.2.3,Win32,181.8181818,,,,,,,,,,,,,,,,,,,,,,,,,,,,,,,,,,,,,,,,,,,,e,1,0.678,0,38,38,19,1,机智,e,,,,,,,,,,,,
,,,,,,,,,,,,,,1,001,2025-01-02_18h52.48.839,IAT(Formal),2021.2.3,Win32,181.8181818,,,,,,,,,,,,,,,,,,,,,,,,,,,,,,,,,,,,,,,,,,,,i,1,0.6784,0,39,39,51,1,我的,i,,,,,,,,,,,,
,,,,,,,,,,,,,,1,001,2025-01-02_18h52.48.839,IAT(Formal),2021.2.3,Win32,181.8181818,,,,,,,,,,,,,,,,,,,,,,,,,,,,,,,,,,,,,,,,,,,,i,1,0.6146,0,40,40,60,1,我,i,,,,,,,,,,,,
,,,,,,,,,,,,,,1,001,2025-01-02_18h52.48.839,IAT(Formal),2021.2.3,Win32,181.8181818,,,,,,,,,,,,,,,,,,,,,,,,,,,,,,,,,,,,,,,,,,,,e,1,0.5033,0,41,41,26,1,冷静,e,,,,,,,,,,,,
,,,,,,,,,,,,,,1,001,2025-01-02_18h52.48.839,IAT(Formal),2021.2.3,Win32,181.8181818,,,,,,,,,,,,,,,,,,,,,,,,,,,,,,,,,,,,,,,,,,,,i,1,0.5949,0,42,42,49,1,下贱,i,,,,,,,,,,,,
,,,,,,,,,,,,,,1,001,2025-01-02_18h52.48.839,IAT(Formal),2021.2.3,Win32,181.8181818,,,,,,,,,,,,,,,,,,,,,,,,,,,,,,,,,,,,,,,,,,,,i,0,0.5456,0,43,43,27,1,热情,e,,,,,,,,,,,,
,,,,,,,,,,,,,,1,001,2025-01-02_18h52.48.839,IAT(Formal),2021.2.3,Win32,181.8181818,,,,,,,,,,,,,,,,,,,,,,,,,,,,,,,,,,,,,,,,,,,,e,1,0.6808,0,44,44,25,1,细腻,e,,,,,,,,,,,,
,,,,,,,,,,,,,,1,001,2025-01-02_18h52.48.839,IAT(Formal),2021.2.3,Win32,181.8181818,,,,,,,,,,,,,,,,,,,,,,,,,,,,,,,,,,,,,,,,,,,,i,1,0.7396,0,45,45,61,1,我的,i,,,,,,,,,,,,
,,,,,,,,,,,,,,1,001,2025-01-02_18h52.48.839,IAT(Formal),2021.2.3,Win32,181.8181818,,,,,,,,,,,,,,,,,,,,,,,,,,,,,,,,,,,,,,,,,,,,i,1,1.0071,0,46,46,48,1,轻率,i,,,,,,,,,,,,
,,,,,,,,,,,,,,1,001,2025-01-02_18h52.48.839,IAT(Formal),2021.2.3,Win32,181.8181818,,,,,,,,,,,,,,,,,,,,,,,,,,,,,,,,,,,,,,,,,,,,e,1,0.5838,0,47,47,79,1,其他,e,,,,,,,,,,,,
,,,,,,,,,,,,,,1,001,2025-01-02_18h52.48.839,IAT(Formal),2021.2.3,Win32,181.8181818,,,,,,,,,,,,,,,,,,,,,,,,,,,,,,,,,,,,,,,,,,,,i,1,1.4477,0,48,48,71,1,我的,i,,,,,,,,,,,,
,,,,,,,,,,,,,,1,001,2025-01-02_18h52.48.839,IAT(Formal),2021.2.3,Win32,181.8181818,,,,,,,,,,,,,,,,,,,,,,,,,,,,,,,,,,,,,,,,,,,,e,1,1.1112,0,49,49,15,1,诚实,e,,,,,,,,,,,,
,,,,,,,,,,,,,,1,001,2025-01-02_18h52.48.839,IAT(Formal),2021.2.3,Win32,181.8181818,,,,,,,,,,,,,,,,,,,,,,,,,,,,,,,,,,,,,,,,,,,,i,1,0.6059,0,50,50,3,1,自己,i,,,,,,,,,,,,
,,,,,,,,,,,,,,1,001,2025-01-02_18h52.48.839,IAT(Formal),2021.2.3,Win32,181.8181818,,,,,,,,,,,,,,,,,,,,,,,,,,,,,,,,,,,,,,,,,,,,e,1,0.8131,0,51,51,29,1,诚恳,e,,,,,,,,,,,,
,,,,,,,,,,,,,,1,001,2025-01-02_18h52.48.839,IAT(Formal),2021.2.3,Win32,181.8181818,,,,,,,,,,,,,,,,,,,,,,,,,,,,,,,,,,,,,,,,,,,,e,1,0.5613,0,52,52,7,1,他的,e,,,,,,,,,,,,
,,,,,,,,,,,,,,1,001,2025-01-02_18h52.48.839,IAT(Formal),2021.2.3,Win32,181.8181818,,,,,,,,,,,,,,,,,,,,,,,,,,,,,,,,,,,,,,,,,,,,i,1,0.651,0,53,53,40,1,执拗,i,,,,,,,,,,,,
,,,,,,,,,,,,,,1,001,2025-01-02_18h52.48.839,IAT(Formal),2021.2.3,Win32,181.8181818,,,,,,,,,,,,,,,,,,,,,,,,,,,,,,,,,,,,,,,,,,,,e,1,0.4335,0,54,54,9,1,其他,e,,,,,,,,,,,,
,,,,,,,,,,,,,,1,001,2025-01-02_18h52.48.839,IAT(Formal),2021.2.3,Win32,181.8181818,,,,,,,,,,,,,,,,,,,,,,,,,,,,,,,,,,,,,,,,,,,,i,1,1.1001,0,55,55,31,1,虚伪,i,,,,,,,,,,,,
,,,,,,,,,,,,,,1,001,2025-01-02_18h52.48.839,IAT(Formal),2021.2.3,Win32,181.8181818,,,,,,,,,,,,,,,,,,,,,,,,,,,,,,,,,,,,,,,,,,,,e,1,0.6503,0,56,56,13,1,杰出,e,,,,,,,,,,,,
,,,,,,,,,,,,,,1,001,2025-01-02_18h52.48.839,IAT(Formal),2021.2.3,Win32,181.8181818,,,,,,,,,,,,,,,,,,,,,,,,,,,,,,,,,,,,,,,,,,,,i,1,0.5631,0,57,57,70,1,我,i,,,,,,,,,,,,
,,,,,,,,,,,,,,1,001,2025-01-02_18h52.48.839,IAT(Formal),2021.2.3,Win32,181.8181818,,,,,,,,,,,,,,,,,,,,,,,,,,,,,,,,,,,,,,,,,,,,e,1,0.8967,0,58,58,28,1,活泼,e,,,,,,,,,,,,
,,,,,,,,,,,,,,1,001,2025-01-02_18h52.48.839,IAT(Formal),2021.2.3,Win32,181.8181818,,,,,,,,,,,,,,,,,,,,,,,,,,,,,,,,,,,,,,,,,,,,i,1,0.5902,0,59,59,39,1,冒失,i,,,,,,,,,,,,
,,,,,,,,,,,,,,1,001,2025-01-02_18h52.48.839,IAT(Formal),2021.2.3,Win32,181.8181818,,,,,,,,,,,,,,,,,,,,,,,,,,,,,,,,,,,,,,,,,,,,e,1,0.618,0,60,60,12,1,聪明,e,,,,,,,,,,,,
,,,,,,,,,,,,,,1,001,2025-01-02_18h52.48.839,IAT(Formal),2021.2.3,Win32,181.8181818,,,,,,,,,,,,,,,,,,,,,,,,,,,,,,,,,,,,,,,,,,,,i,1,0.6458,0,61,61,32,1,愚蠢,i,,,,,,,,,,,,
,,,,,,,,,,,,,,1,001,2025-01-02_18h52.48.839,IAT(Formal),2021.2.3,Win32,181.8181818,,,,,,,,,,,,,,,,,,,,,,,,,,,,,,,,,,,,,,,,,,,,e,1,0.5316,0,62,62,5,1,他,e,,,,,,,,,,,,
,,,,,,,,,,,,,,1,001,2025-01-02_18h52.48.839,IAT(Formal),2021.2.3,Win32,181.8181818,,,,,,,,,,,,,,,,,,,,,,,,,,,,,,,,,,,,,,,,,,,,e,1,0.6562,0,63,63,20,1,认真,e,,,,,,,,,,,,
,,,,,,,,,,,,,,1,001,2025-01-02_18h52.48.839,IAT(Formal),2021.2.3,Win32,181.8181818,,,,,,,,,,,,,,,,,,,,,,,,,,,,,,,,,,,,,,,,,,,,i,1,0.5672,0,64,64,36,1,自卑,i,,,,,,,,,,,,
,,,,,,,,,,,,,,1,001,2025-01-02_18h52.48.839,IAT(Formal),2021.2.3,Win32,181.8181818,,,,,,,,,,,,,,,,,,,,,,,,,,,,,,,,,,,,,,,,,,,,i,1,0.7102,0,65,65,37,1,傲慢,i,,,,,,,,,,,,
,,,,,,,,,,,,,,1,001,2025-01-02_18h52.48.839,IAT(Formal),2021.2.3,Win32,181.8181818,,,,,,,,,,,,,,,,,,,,,,,,,,,,,,,,,,,,,,,,,,,,i,1,0.5895,0,66,66,35,1,消极,i,,,,,,,,,,,,
,,,,,,,,,,,,,,1,001,2025-01-02_18h52.48.839,IAT(Formal),2021.2.3,Win32,181.8181818,,,,,,,,,,,,,,,,,,,,,,,,,,,,,,,,,,,,,,,,,,,,e,1,0.5038,0,67,67,56,1,他们,e,,,,,,,,,,,,
,,,,,,,,,,,,,,1,001,2025-01-02_18h52.48.839,IAT(Formal),2021.2.3,Win32,181.8181818,,,,,,,,,,,,,,,,,,,,,,,,,,,,,,,,,,,,,,,,,,,,i,1,0.5158,0,68,68,52,1,我们,i,,,,,,,,,,,,
,,,,,,,,,,,,,,1,001,2025-01-02_18h52.48.839,IAT(Formal),2021.2.3,Win32,181.8181818,,,,,,,,,,,,,,,,,,,,,,,,,,,,,,,,,,,,,,,,,,,,i,1,0.5393,0,69,69,46,1,野蛮,i,,,,,,,,,,,,
,,,,,,,,,,,,,,1,001,2025-01-02_18h52.48.839,IAT(Formal),2021.2.3,Win32,181.8181818,,,,,,,,,,,,,,,,,,,,,,,,,,,,,,,,,,,,,,,,,,,,i,1,0.5746,0,70,70,62,1,我们,i,,,,,,,,,,,,
,,,,,,,,,,,,,,1,001,2025-01-02_18h52.48.839,IAT(Formal),2021.2.3,Win32,181.8181818,,,,,,,,,,,,,,,,,,,,,,,,,,,,,,,,,,,,,,,,,,,,e,1,0.5016,0,71,71,57,1,他的,e,,,,,,,,,,,,
,,,,,,,,,,,,,,1,001,2025-01-02_18h52.48.839,IAT(Formal),2021.2.3,Win32,181.8181818,,,,,,,,,,,,,,,,,,,,,,,,,,,,,,,,,,,,,,,,,,,,e,1,0.5504,0,72,72,21,1,稳重,e,,,,,,,,,,,,
,,,,,,,,,,,,,,1,001,2025-01-02_18h52.48.839,IAT(Formal),2021.2.3,Win32,181.8181818,,,,,,,,,,,,,,,,,,,,,,,,,,,,,,,,,,,,,,,,,,,,e,1,0.447,0,73,73,14,1,乐观,e,,,,,,,,,,,,
,,,,,,,,,,,,,,1,001,2025-01-02_18h52.48.839,IAT(Formal),2021.2.3,Win32,181.8181818,,,,,,,,,,,,,,,,,,,,,,,,,,,,,,,,,,,,,,,,,,,,i,1,0.6674,0,74,74,1,1,我的,i,,,,,,,,,,,,
,,,,,,,,,,,,,,1,001,2025-01-02_18h52.48.839,IAT(Formal),2021.2.3,Win32,181.8181818,,,,,,,,,,,,,,,,,,,,,,,,,,,,,,,,,,,,,,,,,,,,i,1,0.5616,0,75,75,72,1,我们,i,,,,,,,,,,,,
,,,,,,,,,,,,,,1,001,2025-01-02_18h52.48.839,IAT(Formal),2021.2.3,Win32,181.8181818,,,,,,,,,,,,,,,,,,,,,,,,,,,,,,,,,,,,,,,,,,,,i,1,0.8503,0,76,76,43,1,自私,i,,,,,,,,,,,,
,,,,,,,,,,,,,,1,001,2025-01-02_18h52.48.839,IAT(Formal),2021.2.3,Win32,181.8181818,,,,,,,,,,,,,,,,,,,,,,,,,,,,,,,,,,,,,,,,,,,,e,1,0.5538,0,77,77,11,1,崇高,e,,,,,,,,,,,,
,,,,,,,,,,,,,,1,001,2025-01-02_18h52.48.839,IAT(Formal),2021.2.3,Win32,181.8181818,,,,,,,,,,,,,,,,,,,,,,,,,,,,,,,,,,,,,,,,,,,,i,0,0.4287,0,78,78,8,1,他人,e,,,,,,,,,,,,
,,,,,,,,,,,,,,1,001,2025-01-02_18h52.48.839,IAT(Formal),2021.2.3,Win32,181.8181818,,,,,,,,,,,,,,,,,,,,,,,,,,,,,,,,,,,,,,,,,,,,e,1,0.3943,0,79,79,78,1,他人,e,,,,,,,,,,,,
,,,,,,,,,,,,,,1,001,2025-01-02_18h52.48.839,IAT(Formal),2021.2.3,Win32,181.8181818,,,,,,,,,,,,,,,,,,,,,,,,,,,,,,,,,,,,,,,,,,,,,,,,,,,,认真,e,space,3.3877,e,1,0.6045,0,0,0,20,1,,
,,,,,,,,,,,,,,1,001,2025-01-02_18h52.48.839,IAT(Formal),2021.2.3,Win32,181.8181818,,,,,,,,,,,,,,,,,,,,,,,,,,,,,,,,,,,,,,,,,,,,,,,,,,,,俺,i,,,i,1,0.5241,0,1,1,4,1,,
,,,,,,,,,,,,,,1,001,2025-01-02_18h52.48.839,IAT(Formal),2021.2.3,Win32,181.8181818,,,,,,,,,,,,,,,,,,,,,,,,,,,,,,,,,,,,,,,,,,,,,,,,,,,,他人,e,,,e,1,0.4509,0,2,2,78,1,,
,,,,,,,,,,,,,,1,001,2025-01-02_18h52.48.839,IAT(Formal),2021.2.3,Win32,181.8181818,,,,,,,,,,,,,,,,,,,,,,,,,,,,,,,,,,,,,,,,,,,,,,,,,,,,他们,e,,,e,1,0.4347,0,3,3,76,1,,
,,,,,,,,,,,,,,1,001,2025-01-02_18h52.48.839,IAT(Formal),2021.2.3,Win32,181.8181818,,,,,,,,,,,,,,,,,,,,,,,,,,,,,,,,,,,,,,,,,,,,,,,,,,,,他的,e,,,e,1,0.4131,0,4,4,77,1,,
,,,,,,,,,,,,,,1,001,2025-01-02_18h52.48.839,IAT(Formal),2021.2.3,Win32,181.8181818,,,,,,,,,,,,,,,,,,,,,,,,,,,,,,,,,,,,,,,,,,,,,,,,,,,,自卑,i,,,i,1,0.4773,0,5,5,36,1,,
,,,,,,,,,,,,,,1,001,2025-01-02_18h52.48.839,IAT(Formal),2021.2.3,Win32,181.8181818,,,,,,,,,,,,,,,,,,,,,,,,,,,,,,,,,,,,,,,,,,,,,,,,,,,,无私,e,,,e,1,0.5782,0,6,6,22,1,,
,,,,,,,,,,,,,,1,001,2025-01-02_18h52.48.839,IAT(Formal),2021.2.3,Win32,181.8181818,,,,,,,,,,,,,,,,,,,,,,,,,,,,,,,,,,,,,,,,,,,,,,,,,,,,自私,i,,,i,1,0.5111,0,7,7,43,1,,
,,,,,,,,,,,,,,1,001,2025-01-02_18h52.48.839,IAT(Formal),2021.2.3,Win32,181.8181818,,,,,,,,,,,,,,,,,,,,,,,,,,,,,,,,,,,,,,,,,,,,,,,,,,,,轻率,i,,,i,1,0.6133,0,8,8,48,1,,
,,,,,,,,,,,,,,1,001,2025-01-02_18h52.48.839,IAT(Formal),2021.2.3,Win32,181.8181818,,,,,,,,,,,,,,,,,,,,,,,,,,,,,,,,,,,,,,,,,,,,,,,,,,,,凶狠,i,,,i,1,0.5389,0,9,9,42,1,,
,,,,,,,,,,,,,,1,001,2025-01-02_18h52.48.839,IAT(Formal),2021.2.3,Win32,181.8181818,,,,,,,,,,,,,,,,,,,,,,,,,,,,,,,,,,,,,,,,,,,,,,,,,,,,他,e,,,e,1,0.5372,0,10,10,65,1,,
,,,,,,,,,,,,,,1,001,2025-01-02_18h52.48.839,IAT(Formal),2021.2.3,Win32,181.8181818,,,,,,,,,,,,,,,,,,,,,,,,,,,,,,,,,,,,,,,,,,,,,,,,,,,,诚实,e,,,e,1,0.4671,0,11,11,15,1,,
,,,,,,,,,,,,,,1,001,2025-01-02_18h52.48.839,IAT(Formal),2021.2.3,Win32,181.8181818,,,,,,,,,,,,,,,,,,,,,,,,,,,,,,,,,,,,,,,,,,,,,,,,,,,,他们,e,,,e,1,0.3962,0,12,12,6,1,,
,,,,,,,,,,,,,,1,001,2025-01-02_18h52.48.839,IAT(Formal),2021.2.3,Win32,181.8181818,,,,,,,,,,,,,,,,,,,,,,,,,,,,,,,,,,,,,,,,,,,,,,,,,,,,野蛮,i,,,i,1,0.4887,0,13,13,46,1,,
,,,,,,,,,,,,,,1,001,2025-01-02_18h52.48.839,IAT(Formal),2021.2.3,Win32,181.8181818,,,,,,,,,,,,,,,,,,,,,,,,,,,,,,,,,,,,,,,,,,,,,,,,,,,,我的,i,,,i,1,0.6136,0,14,14,51,1,,
,,,,,,,,,,,,,,1,001,2025-01-02_18h52.48.839,IAT(Formal),2021.2.3,Win32,181.8181818,,,,,,,,,,,,,,,,,,,,,,,,,,,,,,,,,,,,,,,,,,,,,,,,,,,,乐观,e,,,e,1,0.571,0,15,15,14,1,,
,,,,,,,,,,,,,,1,001,2025-01-02_18h52.48.839,IAT(Formal),2021.2.3,Win32,181.8181818,,,,,,,,,,,,,,,,,,,,,,,,,,,,,,,,,,,,,,,,,,,,,,,,,,,,杰出,e,,,e,1,0.8959,0,16,16,13,1,,
,,,,,,,,,,,,,,1,001,2025-01-02_18h52.48.839,IAT(Formal),2021.2.3,Win32,181.8181818,,,,,,,,,,,,,,,,,,,,,,,,,,,,,,,,,,,,,,,,,,,,,,,,,,,,他们,e,,,e,1,0.4894,0,17,17,56,1,,
,,,,,,,,,,,,,,1,001,2025-01-02_18h52.48.839,IAT(Formal),2021.2.3,Win32,181.8181818,,,,,,,,,,,,,,,,,,,,,,,,,,,,,,,,,,,,,,,,,,,,,,,,,,,,正直,e,,,e,1,0.4903,0,18,18,16,1,,
,,,,,,,,,,,,,,1,001,2025-01-02_18h52.48.839,IAT(Formal),2021.2.3,Win32,181.8181818,,,,,,,,,,,,,,,,,,,,,,,,,,,,,,,,,,,,,,,,,,,,,,,,,,,,冒失,i,,,i,1,0.5889,0,19,19,39,1,,
,,,,,,,,,,,,,,1,001,2025-01-02_18h52.48.839,IAT(Formal),2021.2.3,Win32,181.8181818,,,,,,,,,,,,,,,,,,,,,,,,,,,,,,,,,,,,,,,,,,,,,,,,,,,,我的,i,,,i,1,0.7959,0,20,20,1,1,,
,,,,,,,,,,,,,,1,001,2025-01-02_18h52.48.839,IAT(Formal),2021.2.3,Win32,181.8181818,,,,,,,,,,,,,,,,,,,,,,,,,,,,,,,,,,,,,,,,,,,,,,,,,,,,刻薄,i,,,i,1,0.4866,0,21,21,33,1,,
,,,,,,,,,,,,,,1,001,2025-01-02_18h52.48.839,IAT(Formal),2021.2.3,Win32,181.8181818,,,,,,,,,,,,,,,,,,,,,,,,,,,,,,,,,,,,,,,,,,,,,,,,,,,,勤奋,e,,,e,1,0.5605,0,22,22,18,1,,
,,,,,,,,,,,,,,1,001,2025-01-02_18h52.48.839,IAT(Formal),2021.2.3,Win32,181.8181818,,,,,,,,,,,,,,,,,,,,,,,,,,,,,,,,,,,,,,,,,,,,,,,,,,,,傲慢,i,,,i,1,0.59,0,23,23,37,1,,
,,,,,,,,,,,,,,1,001,2025-01-02_18h52.48.839,IAT(Formal),2021.2.3,Win32,181.8181818,,,,,,,,,,,,,,,,,,,,,,,,,,,,,,,,,,,,,,,,,,,,,,,,,,,,我们,i,,,i,1,0.6118,0,24,24,62,1,,
,,,,,,,,,,,,,,1,001,2025-01-02_18h52.48.839,IAT(Formal),2021.2.3,Win32,181.8181818,,,,,,,,,,,,,,,,,,,,,,,,,,,,,,,,,,,,,,,,,,,,,,,,,,,,俺,i,,,i,1,0.4867,0,25,25,74,1,,
,,,,,,,,,,,,,,1,001,2025-01-02_18h52.48.839,IAT(Formal),2021.2.3,Win32,181.8181818,,,,,,,,,,,,,,,,,,,,,,,,,,,,,,,,,,,,,,,,,,,,,,,,,,,,我的,i,,,i,1,0.4242,0,26,26,61,1,,
,,,,,,,,,,,,,,1,001,2025-01-02_18h52.48.839,IAT(Formal),2021.2.3,Win32,181.8181818,,,,,,,,,,,,,,,,,,,,,,,,,,,,,,,,,,,,,,,,,,,,,,,,,,,,聪明,e,,,e,1,0.6538,0,27,27,12,1,,
,,,,,,,,,,,,,,1,001,2025-01-02_18h52.48.839,IAT(Formal),2021.2.3,Win32,181.8181818,,,,,,,,,,,,,,,,,,,,,,,,,,,,,,,,,,,,,,,,,,,,,,,,,,,,消极,i,,,i,1,0.613,0,28,28,35,1,,
,,,,,,,,,,,,,,1,001,2025-01-02_18h52.48.839,IAT(Formal),2021.2.3,Win32,181.8181818,,,,,,,,,,,,,,,,,,,,,,,,,,,,,,,,,,,,,,,,,,,,,,,,,,,,我,i,,,i,1,0.5964,0,29,29,50,1,,
,,,,,,,,,,,,,,1,001,2025-01-02_18h52.48.839,IAT(Formal),2021.2.3,Win32,181.8181818,,,,,,,,,,,,,,,,,,,,,,,,,,,,,,,,,,,,,,,,,,,,,,,,,,,,自己,i,,,i,1,0.4712,0,30,30,63,1,,
,,,,,,,,,,,,,,1,001,2025-01-02_18h52.48.839,IAT(Formal),2021.2.3,Win32,181.8181818,,,,,,,,,,,,,,,,,,,,,,,,,,,,,,,,,,,,,,,,,,,,,,,,,,,,热情,e,,,i,0,0.5434,0,31,31,27,1,,
,,,,,,,,,,,,,,1,001,2025-01-02_18h52.48.839,IAT(Formal),2021.2.3,Win32,181.8181818,,,,,,,,,,,,,,,,,,,,,,,,,,,,,,,,,,,,,,,,,,,,,,,,,,,,他人,e,,,e,1,0.7138,0,32,32,8,1,,
,,,,,,,,,,,,,,1,001,2025-01-02_18h52.48.839,IAT(Formal),2021.2.3,Win32,181.8181818,,,,,,,,,,,,,,,,,,,,,,,,,,,,,,,,,,,,,,,,,,,,,,,,,,,,他的,e,,,e,1,0.4752,0,33,33,57,1,,
,,,,,,,,,,,,,,1,001,2025-01-02_18h52.48.839,IAT(Formal),2021.2.3,Win32,181.8181818,,,,,,,,,,,,,,,,,,,,,,,,,,,,,,,,,,,,,,,,,,,,,,,,,,,,其他,e,,,e,1,0.7455,0,34,34,59,1,,
,,,,,,,,,,,,,,1,001,2025-01-02_18h52.48.839,IAT(Formal),2021.2.3,Win32,181.8181818,,,,,,,,,,,,,,,,,,,,,,,,,,,,,,,,,,,,,,,,,,,,,,,,,,,,悲观,i,,,i,1,0.611,0,35,35,34,1,,
,,,,,,,,,,,,,,1,001,2025-01-02_18h52.48.839,IAT(Formal),2021.2.3,Win32,181.8181818,,,,,,,,,,,,,,,,,,,,,,,,,,,,,,,,,,,,,,,,,,,,,,,,,,,,他的,e,,,e,1,0.6572,0,36,36,7,1,,
,,,,,,,,,,,,,,1,001,2025-01-02_18h52.48.839,IAT(Formal),2021.2.3,Win32,181.8181818,,,,,,,,,,,,,,,,,,,,,,,,,,,,,,,,,,,,,,,,,,,,,,,,,,,,下贱,i,,,i,1,1.4442,0,37,37,49,1,,
,,,,,,,,,,,,,,1,001,2025-01-02_18h52.48.839,IAT(Formal),2021.2.3,Win32,181.8181818,,,,,,,,,,,,,,,,,,,,,,,,,,,,,,,,,,,,,,,,,,,,,,,,,,,,其他,e,,,e,1,0.5746,0,38,38,79,1,,
,,,,,,,,,,,,,,1,001,2025-01-02_18h52.48.839,IAT(Formal),2021.2.3,Win32,181.8181818,,,,,,,,,,,,,,,,,,,,,,,,,,,,,,,,,,,,,,,,,,,,,,,,,,,,自己,i,,,i,1,0.8564,0,39,39,73,1,,
,,,,,,,,,,,,,,1,001,2025-01-02_18h52.48.839,IAT(Formal),2021.2.3,Win32,181.8181818,,,,,,,,,,,,,,,,,,,,,,,,,,,,,,,,,,,,,,,,,,,,,,,,,,,,他,e,,,e,1,0.5631,0,40,40,55,1,,
,,,,,,,,,,,,,,1,001,2025-01-02_18h52.48.839,IAT(Formal),2021.2.3,Win32,181.8181818,,,,,,,,,,,,,,,,,,,,,,,,,,,,,,,,,,,,,,,,,,,,,,,,,,,,朴实,e,,,i,0,0.5733,0,41,41,24,1,,
,,,,,,,,,,,,,,1,001,2025-01-02_18h52.48.839,IAT(Formal),2021.2.3,Win32,181.8181818,,,,,,,,,,,,,,,,,,,,,,,,,,,,,,,,,,,,,,,,,,,,,,,,,,,,他,e,,,e,1,0.4952,0,42,42,75,1,,
,,,,,,,,,,,,,,1,001,2025-01-02_18h52.48.839,IAT(Formal),2021.2.3,Win32,181.8181818,,,,,,,,,,,,,,,,,,,,,,,,,,,,,,,,,,,,,,,,,,,,,,,,,,,,自己,i,,,i,1,0.5618,0,43,43,53,1,,
,,,,,,,,,,,,,,1,001,2025-01-02_18h52.48.839,IAT(Formal),2021.2.3,Win32,181.8181818,,,,,,,,,,,,,,,,,,,,,,,,,,,,,,,,,,,,,,,,,,,,,,,,,,,,我们,i,,,i,1,0.6237,0,44,44,2,1,,
,,,,,,,,,,,,,,1,001,2025-01-02_18h52.48.839,IAT(Formal),2021.2.3,Win32,181.8181818,,,,,,,,,,,,,,,,,,,,,,,,,,,,,,,,,,,,,,,,,,,,,,,,,,,,我,i,,,i,1,0.5318,0,45,45,70,1,,
,,,,,,,,,,,,,,1,001,2025-01-02_18h52.48.839,IAT(Formal),2021.2.3,Win32,181.8181818,,,,,,,,,,,,,,,,,,,,,,,,,,,,,,,,,,,,,,,,,,,,,,,,,,,,俺,i,,,i,1,0.5635,0,46,46,64,1,,
,,,,,,,,,,,,,,1,001,2025-01-02_18h52.48.839,IAT(Formal),2021.2.3,Win32,181.8181818,,,,,,,,,,,,,,,,,,,,,,,,,,,,,,,,,,,,,,,,,,,,,,,,,,,,他的,e,,,e,1,0.5225,0,47,47,67,1,,
,,,,,,,,,,,,,,1,001,2025-01-02_18h52.48.839,IAT(Formal),2021.2.3,Win32,181.8181818,,,,,,,,,,,,,,,,,,,,,,,,,,,,,,,,,,,,,,,,,,,,,,,,,,,,猖狂,i,,,i,1,0.5394,0,48,48,45,1,,
,,,,,,,,,,,,,,1,001,2025-01-02_18h52.48.839,IAT(Formal),2021.2.3,Win32,181.8181818,,,,,,,,,,,,,,,,,,,,,,,,,,,,,,,,,,,,,,,,,,,,,,,,,,,,固执,i,,,i,1,0.5524,0,49,49,47,1,,
,,,,,,,,,,,,,,1,001,2025-01-02_18h52.48.839,IAT(Formal),2021.2.3,Win32,181.8181818,,,,,,,,,,,,,,,,,,,,,,,,,,,,,,,,,,,,,,,,,,,,,,,,,,,,我们,i,,,e,0,0.4064,0,50,50,72,1,,
,,,,,,,,,,,,,,1,001,2025-01-02_18h52.48.839,IAT(Formal),2021.2.3,Win32,181.8181818,,,,,,,,,,,,,,,,,,,,,,,,,,,,,,,,,,,,,,,,,,,,,,,,,,,,公正,e,,,e,1,0.767,0,51,51,23,1,,
,,,,,,,,,,,,,,1,001,2025-01-02_18h52.48.839,IAT(Formal),2021.2.3,Win32,181.8181818,,,,,,,,,,,,,,,,,,,,,,,,,,,,,,,,,,,,,,,,,,,,,,,,,,,,其他,e,,,e,1,0.5304,0,52,52,69,1,,
,,,,,,,,,,,,,,1,001,2025-01-02_18h52.48.839,IAT(Formal),2021.2.3,Win32,181.8181818,,,,,,,,,,,,,,,,,,,,,,,,,,,,,,,,,,,,,,,,,,,,,,,,,,,,其他,e,,,e,1,0.4223,0,53,53,9,1,,
,,,,,,,,,,,,,,1,001,2025-01-02_18h52.48.839,IAT(Formal),2021.2.3,Win32,181.8181818,,,,,,,,,,,,,,,,,,,,,,,,,,,,,,,,,,,,,,,,,,,,,,,,,,,,稳重,e,,,e,1,0.5729,0,54,54,21,1,,
,,,,,,,,,,,,,,1,001,2025-01-02_18h52.48.839,IAT(Formal),2021.2.3,Win32,181.8181818,,,,,,,,,,,,,,,,,,,,,,,,,,,,,,,,,,,,,,,,,,,,,,,,,,,,勇敢,e,,,e,1,0.5656,0,55,55,17,1,,
,,,,,,,,,,,,,,1,001,2025-01-02_18h52.48.839,IAT(Formal),2021.2.3,Win32,181.8181818,,,,,,,,,,,,,,,,,,,,,,,,,,,,,,,,,,,,,,,,,,,,,,,,,,,,愚蠢,i,,,i,1,0.5175,0,56,56,32,1,,
,,,,,,,,,,,,,,1,001,2025-01-02_18h52.48.839,IAT(Formal),2021.2.3,Win32,181.8181818,,,,,,,,,,,,,,,,,,,,,,,,,,,,,,,,,,,,,,,,,,,,,,,,,,,,我们,i,,,i,1,0.4128,0,57,57,52,1,,
,,,,,,,,,,,,,,1,001,2025-01-02_18h52.48.839,IAT(Formal),2021.2.3,Win32,181.8181818,,,,,,,,,,,,,,,,,,,,,,,,,,,,,,,,,,,,,,,,,,,,,,,,,,,,机智,e,,,e,1,0.6755,0,58,58,19,1,,
,,,,,,,,,,,,,,1,001,2025-01-02_18h52.48.839,IAT(Formal),2021.2.3,Win32,181.8181818,,,,,,,,,,,,,,,,,,,,,,,,,,,,,,,,,,,,,,,,,,,,,,,,,,,,自己,i,,,e,0,0.3466,0,59,59,3,1,,
,,,,,,,,,,,,,,1,001,2025-01-02_18h52.48.839,IAT(Formal),2021.2.3,Win32,181.8181818,,,,,,,,,,,,,,,,,,,,,,,,,,,,,,,,,,,,,,,,,,,,,,,,,,,,优秀,e,,,e,1,0.4978,0,60,60,10,1,,
,,,,,,,,,,,,,,1,001,2025-01-02_18h52.48.839,IAT(Formal),2021.2.3,Win32,181.8181818,,,,,,,,,,,,,,,,,,,,,,,,,,,,,,,,,,,,,,,,,,,,,,,,,,,,活泼,e,,,e,1,0.5461,0,61,61,28,1,,
,,,,,,,,,,,,,,1,001,2025-01-02_18h52.48.839,IAT(Formal),2021.2.3,Win32,181.8181818,,,,,,,,,,,,,,,,,,,,,,,,,,,,,,,,,,,,,,,,,,,,,,,,,,,,细腻,e,,,e,1,0.6556,0,62,62,25,1,,
,,,,,,,,,,,,,,1,001,2025-01-02_18h52.48.839,IAT(Formal),2021.2.3,Win32,181.8181818,,,,,,,,,,,,,,,,,,,,,,,,,,,,,,,,,,,,,,,,,,,,,,,,,,,,俺,i,,,i,1,0.4949,0,63,63,54,1,,
,,,,,,,,,,,,,,1,001,2025-01-02_18h52.48.839,IAT(Formal),2021.2.3,Win32,181.8181818,,,,,,,,,,,,,,,,,,,,,,,,,,,,,,,,,,,,,,,,,,,,,,,,,,,,执拗,i,,,i,1,0.6726,0,64,64,40,1,,
,,,,,,,,,,,,,,1,001,2025-01-02_18h52.48.839,IAT(Formal),2021.2.3,Win32,181.8181818,,,,,,,,,,,,,,,,,,,,,,,,,,,,,,,,,,,,,,,,,,,,,,,,,,,,暴躁,i,,,i,1,0.5792,0,65,65,44,1,,
,,,,,,,,,,,,,,1,001,2025-01-02_18h52.48.839,IAT(Formal),2021.2.3,Win32,181.8181818,,,,,,,,,,,,,,,,,,,,,,,,,,,,,,,,,,,,,,,,,,,,,,,,,,,,我,i,,,i,1,0.7841,0,66,66,0,1,,
,,,,,,,,,,,,,,1,001,2025-01-02_18h52.48.839,IAT(Formal),2021.2.3,Win32,181.8181818,,,,,,,,,,,,,,,,,,,,,,,,,,,,,,,,,,,,,,,,,,,,,,,,,,,,冷静,e,,,e,1,0.5249,0,67,67,26,1,,
,,,,,,,,,,,,,,1,001,2025-01-02_18h52.48.839,IAT(Formal),2021.2.3,Win32,181.8181818,,,,,,,,,,,,,,,,,,,,,,,,,,,,,,,,,,,,,,,,,,,,,,,,,,,,鲁莽,i,,,i,1,0.5948,0,68,68,38,1,,
,,,,,,,,,,,,,,1,001,2025-01-02_18h52.48.839,IAT(Formal),2021.2.3,Win32,181.8181818,,,,,,,,,,,,,,,,,,,,,,,,,,,,,,,,,,,,,,,,,,,,,,,,,,,,我,i,,,i,1,0.543,0,69,69,60,1,,
,,,,,,,,,,,,,,1,001,2025-01-02_18h52.48.839,IAT(Formal),2021.2.3,Win32,181.8181818,,,,,,,,,,,,,,,,,,,,,,,,,,,,,,,,,,,,,,,,,,,,,,,,,,,,他们,e,,,e,1,0.7895,0,70,70,66,1,,
,,,,,,,,,,,,,,1,001,2025-01-02_18h52.48.839,IAT(Formal),2021.2.3,Win32,181.8181818,,,,,,,,,,,,,,,,,,,,,,,,,,,,,,,,,,,,,,,,,,,,,,,,,,,,他人,e,,,e,1,0.3462,0,71,71,68,1,,
,,,,,,,,,,,,,,1,001,2025-01-02_18h52.48.839,IAT(Formal),2021.2.3,Win32,181.8181818,,,,,,,,,,,,,,,,,,,,,,,,,,,,,,,,,,,,,,,,,,,,,,,,,,,,崇高,e,,,e,1,0.5783,0,72,72,11,1,,
,,,,,,,,,,,,,,1,001,2025-01-02_18h52.48.839,IAT(Formal),2021.2.3,Win32,181.8181818,,,,,,,,,,,,,,,,,,,,,,,,,,,,,,,,,,,,,,,,,,,,,,,,,,,,他,e,,,e,1,0.5009,0,73,73,5,1,,
,,,,,,,,,,,,,,1,001,2025-01-02_18h52.48.839,IAT(Formal),2021.2.3,Win32,181.8181818,,,,,,,,,,,,,,,,,,,,,,,,,,,,,,,,,,,,,,,,,,,,,,,,,,,,我的,i,,,i,1,0.4909,0,74,74,71,1,,
,,,,,,,,,,,,,,1,001,2025-01-02_18h52.48.839,IAT(Formal),2021.2.3,Win32,181.8181818,,,,,,,,,,,,,,,,,,,,,,,,,,,,,,,,,,,,,,,,,,,,,,,,,,,,诚恳,e,,,e,1,0.5736,0,75,75,29,1,,
,,,,,,,,,,,,,,1,001,2025-01-02_18h52.48.839,IAT(Formal),2021.2.3,Win32,181.8181818,,,,,,,,,,,,,,,,,,,,,,,,,,,,,,,,,,,,,,,,,,,,,,,,,,,,散漫,i,,,i,1,0.5844,0,76,76,41,1,,
,,,,,,,,,,,,,,1,001,2025-01-02_18h52.48.839,IAT(Formal),2021.2.3,Win32,181.8181818,,,,,,,,,,,,,,,,,,,,,,,,,,,,,,,,,,,,,,,,,,,,,,,,,,,,虚伪,i,,,i,1,0.5951,0,77,77,31,1,,
,,,,,,,,,,,,,,1,001,2025-01-02_18h52.48.839,IAT(Formal),2021.2.3,Win32,181.8181818,,,,,,,,,,,,,,,,,,,,,,,,,,,,,,,,,,,,,,,,,,,,,,,,,,,,他人,e,,,e,1,0.6003,0,78,78,58,1,,
,,,,,,,,,,,,,,1,001,2025-01-02_18h52.48.839,IAT(Formal),2021.2.3,Win32,181.8181818,,,,,,,,,,,,,,,,,,,,,,,,,,,,,,,,,,,,,,,,,,,,,,,,,,,,卑鄙,i,,,i,1,0.5465,0,79,79,30,1,,
,,,,,,,,,,,,,,1,001,2025-01-02_18h52.48.839,IAT(Formal),2021.2.3,Win32,181.8181818,,,,,,,,,,,,,,,,,,,,,,,,,,,,,,,,,,,,,,,,,,,,,,,,,,,,正直,e,,,e,1,0.5079,1,0,80,16,1,,
,,,,,,,,,,,,,,1,001,2025-01-02_18h52.48.839,IAT(Formal),2021.2.3,Win32,181.8181818,,,,,,,,,,,,,,,,,,,,,,,,,,,,,,,,,,,,,,,,,,,,,,,,,,,,其他,e,,,e,1,0.4805,1,1,81,69,1,,
,,,,,,,,,,,,,,1,001,2025-01-02_18h52.48.839,IAT(Formal),2021.2.3,Win32,181.8181818,,,,,,,,,,,,,,,,,,,,,,,,,,,,,,,,,,,,,,,,,,,,,,,,,,,,活泼,e,,,e,1,0.7887,1,2,82,28,1,,
,,,,,,,,,,,,,,1,001,2025-01-02_18h52.48.839,IAT(Formal),2021.2.3,Win32,181.8181818,,,,,,,,,,,,,,,,,,,,,,,,,,,,,,,,,,,,,,,,,,,,,,,,,,,,勇敢,e,,,e,1,0.406,1,3,83,17,1,,
,,,,,,,,,,,,,,1,001,2025-01-02_18h52.48.839,IAT(Formal),2021.2.3,Win32,181.8181818,,,,,,,,,,,,,,,,,,,,,,,,,,,,,,,,,,,,,,,,,,,,,,,,,,,,他人,e,,,e,1,0.4363,1,4,84,8,1,,
,,,,,,,,,,,,,,1,001,2025-01-02_18h52.48.839,IAT(Formal),2021.2.3,Win32,181.8181818,,,,,,,,,,,,,,,,,,,,,,,,,,,,,,,,,,,,,,,,,,,,,,,,,,,,我们,i,,,i,1,0.4215,1,5,85,2,1,,
,,,,,,,,,,,,,,1,001,2025-01-02_18h52.48.839,IAT(Formal),2021.2.3,Win32,181.8181818,,,,,,,,,,,,,,,,,,,,,,,,,,,,,,,,,,,,,,,,,,,,,,,,,,,,俺,i,,,e,0,0.4857,1,6,86,74,1,,
,,,,,,,,,,,,,,1,001,2025-01-02_18h52.48.839,IAT(Formal),2021.2.3,Win32,181.8181818,,,,,,,,,,,,,,,,,,,,,,,,,,,,,,,,,,,,,,,,,,,,,,,,,,,,他人,e,,,e,1,0.657,1,7,87,58,1,,
,,,,,,,,,,,,,,1,001,2025-01-02_18h52.48.839,IAT(Formal),2021.2.3,Win32,181.8181818,,,,,,,,,,,,,,,,,,,,,,,,,,,,,,,,,,,,,,,,,,,,,,,,,,,,冒失,i,,,i,1,0.6687,1,8,88,39,1,,
,,,,,,,,,,,,,,1,001,2025-01-02_18h52.48.839,IAT(Formal),2021.2.3,Win32,181.8181818,,,,,,,,,,,,,,,,,,,,,,,,,,,,,,,,,,,,,,,,,,,,,,,,,,,,他人,e,,,e,1,0.9021,1,9,89,68,1,,
,,,,,,,,,,,,,,1,001,2025-01-02_18h52.48.839,IAT(Formal),2021.2.3,Win32,181.8181818,,,,,,,,,,,,,,,,,,,,,,,,,,,,,,,,,,,,,,,,,,,,,,,,,,,,下贱,i,,,i,1,0.5672,1,10,90,49,1,,
,,,,,,,,,,,,,,1,001,2025-01-02_18h52.48.839,IAT(Formal),2021.2.3,Win32,181.8181818,,,,,,,,,,,,,,,,,,,,,,,,,,,,,,,,,,,,,,,,,,,,,,,,,,,,自私,i,,,i,1,0.5637,1,11,91,43,1,,
,,,,,,,,,,,,,,1,001,2025-01-02_18h52.48.839,IAT(Formal),2021.2.3,Win32,181.8181818,,,,,,,,,,,,,,,,,,,,,,,,,,,,,,,,,,,,,,,,,,,,,,,,,,,,傲慢,i,,,i,1,0.4732,1,12,92,37,1,,
,,,,,,,,,,,,,,1,001,2025-01-02_18h52.48.839,IAT(Formal),2021.2.3,Win32,181.8181818,,,,,,,,,,,,,,,,,,,,,,,,,,,,,,,,,,,,,,,,,,,,,,,,,,,,我的,i,,,i,1,0.6687,1,13,93,71,1,,
,,,,,,,,,,,,,,1,001,2025-01-02_18h52.48.839,IAT(Formal),2021.2.3,Win32,181.8181818,,,,,,,,,,,,,,,,,,,,,,,,,,,,,,,,,,,,,,,,,,,,,,,,,,,,猖狂,i,,,i,1,0.6309,1,14,94,45,1,,
,,,,,,,,,,,,,,1,001,2025-01-02_18h52.48.839,IAT(Formal),2021.2.3,Win32,181.8181818,,,,,,,,,,,,,,,,,,,,,,,,,,,,,,,,,,,,,,,,,,,,,,,,,,,,诚实,e,,,e,1,0.595,1,15,95,15,1,,
,,,,,,,,,,,,,,1,001,2025-01-02_18h52.48.839,IAT(Formal),2021.2.3,Win32,181.8181818,,,,,,,,,,,,,,,,,,,,,,,,,,,,,,,,,,,,,,,,,,,,,,,,,,,,俺,i,,,i,1,0.8897,1,16,96,4,1,,
,,,,,,,,,,,,,,1,001,2025-01-02_18h52.48.839,IAT(Formal),2021.2.3,Win32,181.8181818,,,,,,,,,,,,,,,,,,,,,,,,,,,,,,,,,,,,,,,,,,,,,,,,,,,,自己,i,,,i,1,0.4897,1,17,97,3,1,,
,,,,,,,,,,,,,,1,001,2025-01-02_18h52.48.839,IAT(Formal),2021.2.3,Win32,181.8181818,,,,,,,,,,,,,,,,,,,,,,,,,,,,,,,,,,,,,,,,,,,,,,,,,,,,我们,i,,,i,1,0.583,1,18,98,62,1,,
,,,,,,,,,,,,,,1,001,2025-01-02_18h52.48.839,IAT(Formal),2021.2.3,Win32,181.8181818,,,,,,,,,,,,,,,,,,,,,,,,,,,,,,,,,,,,,,,,,,,,,,,,,,,,执拗,i,,,i,1,0.5427,1,19,99,40,1,,
,,,,,,,,,,,,,,1,001,2025-01-02_18h52.48.839,IAT(Formal),2021.2.3,Win32,181.8181818,,,,,,,,,,,,,,,,,,,,,,,,,,,,,,,,,,,,,,,,,,,,,,,,,,,,热情,e,,,e,1,0.5906,1,20,100,27,1,,
,,,,,,,,,,,,,,1,001,2025-01-02_18h52.48.839,IAT(Formal),2021.2.3,Win32,181.8181818,,,,,,,,,,,,,,,,,,,,,,,,,,,,,,,,,,,,,,,,,,,,,,,,,,,,他,e,,,i,0,0.504,1,21,101,75,1,,
,,,,,,,,,,,,,,1,001,2025-01-02_18h52.48.839,IAT(Formal),2021.2.3,Win32,181.8181818,,,,,,,,,,,,,,,,,,,,,,,,,,,,,,,,,,,,,,,,,,,,,,,,,,,,自己,i,,,i,1,0.5059,1,22,102,53,1,,
,,,,,,,,,,,,,,1,001,2025-01-02_18h52.48.839,IAT(Formal),2021.2.3,Win32,181.8181818,,,,,,,,,,,,,,,,,,,,,,,,,,,,,,,,,,,,,,,,,,,,,,,,,,,,乐观,e,,,e,1,0.6025,1,23,103,14,1,,
,,,,,,,,,,,,,,1,001,2025-01-02_18h52.48.839,IAT(Formal),2021.2.3,Win32,181.8181818,,,,,,,,,,,,,,,,,,,,,,,,,,,,,,,,,,,,,,,,,,,,,,,,,,,,冷静,e,,,e,1,0.507,1,24,104,26,1,,
,,,,,,,,,,,,,,1,001,2025-01-02_18h52.48.839,IAT(Formal),2021.2.3,Win32,181.8181818,,,,,,,,,,,,,,,,,,,,,,,,,,,,,,,,,,,,,,,,,,,,,,,,,,,,他的,e,,,e,1,0.5283,1,25,105,7,1,,
,,,,,,,,,,,,,,1,001,2025-01-02_18h52.48.839,IAT(Formal),2021.2.3,Win32,181.8181818,,,,,,,,,,,,,,,,,,,,,,,,,,,,,,,,,,,,,,,,,,,,,,,,,,,,机智,e,,,e,1,0.5114,1,26,106,19,1,,
,,,,,,,,,,,,,,1,001,2025-01-02_18h52.48.839,IAT(Formal),2021.2.3,Win32,181.8181818,,,,,,,,,,,,,,,,,,,,,,,,,,,,,,,,,,,,,,,,,,,,,,,,,,,,消极,i,,,i,1,0.8339,1,27,107,35,1,,
,,,,,,,,,,,,,,1,001,2025-01-02_18h52.48.839,IAT(Formal),2021.2.3,Win32,181.8181818,,,,,,,,,,,,,,,,,,,,,,,,,,,,,,,,,,,,,,,,,,,,,,,,,,,,诚恳,e,,,e,1,0.5283,1,28,108,29,1,,
,,,,,,,,,,,,,,1,001,2025-01-02_18h52.48.839,IAT(Formal),2021.2.3,Win32,181.8181818,,,,,,,,,,,,,,,,,,,,,,,,,,,,,,,,,,,,,,,,,,,,,,,,,,,,细腻,e,,,e,1,0.5227,1,29,109,25,1,,
,,,,,,,,,,,,,,1,001,2025-01-02_18h52.48.839,IAT(Formal),2021.2.3,Win32,181.8181818,,,,,,,,,,,,,,,,,,,,,,,,,,,,,,,,,,,,,,,,,,,,,,,,,,,,他,e,,,e,1,0.6176,1,30,110,5,1,,
,,,,,,,,,,,,,,1,001,2025-01-02_18h52.48.839,IAT(Formal),2021.2.3,Win32,181.8181818,,,,,,,,,,,,,,,,,,,,,,,,,,,,,,,,,,,,,,,,,,,,,,,,,,,,他,e,,,e,1,0.7727,1,31,111,65,1,,
,,,,,,,,,,,,,,1,001,2025-01-02_18h52.48.839,IAT(Formal),2021.2.3,Win32,181.8181818,,,,,,,,,,,,,,,,,,,,,,,,,,,,,,,,,,,,,,,,,,,,,,,,,,,,我的,i,,,i,1,0.5504,1,32,112,51,1,,
,,,,,,,,,,,,,,1,001,2025-01-02_18h52.48.839,IAT(Formal),2021.2.3,Win32,181.8181818,,,,,,,,,,,,,,,,,,,,,,,,,,,,,,,,,,,,,,,,,,,,,,,,,,,,他们,e,,,e,1,0.4671,1,33,113,66,1,,
,,,,,,,,,,,,,,1,001,2025-01-02_18h52.48.839,IAT(Formal),2021.2.3,Win32,181.8181818,,,,,,,,,,,,,,,,,,,,,,,,,,,,,,,,,,,,,,,,,,,,,,,,,,,,暴躁,i,,,i,1,0.537,1,34,114,44,1,,
,,,,,,,,,,,,,,1,001,2025-01-02_18h52.48.839,IAT(Formal),2021.2.3,Win32,181.8181818,,,,,,,,,,,,,,,,,,,,,,,,,,,,,,,,,,,,,,,,,,,,,,,,,,,,悲观,i,,,i,1,0.5842,1,35,115,34,1,,
,,,,,,,,,,,,,,1,001,2025-01-02_18h52.48.839,IAT(Formal),2021.2.3,Win32,181.8181818,,,,,,,,,,,,,,,,,,,,,,,,,,,,,,,,,,,,,,,,,,,,,,,,,,,,勤奋,e,,,e,1,0.4885,1,36,116,18,1,,
,,,,,,,,,,,,,,1,001,2025-01-02_18h52.48.839,IAT(Formal),2021.2.3,Win32,181.8181818,,,,,,,,,,,,,,,,,,,,,,,,,,,,,,,,,,,,,,,,,,,,,,,,,,,,朴实,e,,,e,1,0.4451,1,37,117,24,1,,
,,,,,,,,,,,,,,1,001,2025-01-02_18h52.48.839,IAT(Formal),2021.2.3,Win32,181.8181818,,,,,,,,,,,,,,,,,,,,,,,,,,,,,,,,,,,,,,,,,,,,,,,,,,,,崇高,e,,,e,1,0.4393,1,38,118,11,1,,
,,,,,,,,,,,,,,1,001,2025-01-02_18h52.48.839,IAT(Formal),2021.2.3,Win32,181.8181818,,,,,,,,,,,,,,,,,,,,,,,,,,,,,,,,,,,,,,,,,,,,,,,,,,,,聪明,e,,,e,1,0.4338,1,39,119,12,1,,
,,,,,,,,,,,,,,1,001,2025-01-02_18h52.48.839,IAT(Formal),2021.2.3,Win32,181.8181818,,,,,,,,,,,,,,,,,,,,,,,,,,,,,,,,,,,,,,,,,,,,,,,,,,,,鲁莽,i,,,i,1,0.6455,1,40,120,38,1,,
,,,,,,,,,,,,,,1,001,2025-01-02_18h52.48.839,IAT(Formal),2021.2.3,Win32,181.8181818,,,,,,,,,,,,,,,,,,,,,,,,,,,,,,,,,,,,,,,,,,,,,,,,,,,,他们,e,,,e,1,0.4086,1,41,121,6,1,,
,,,,,,,,,,,,,,1,001,2025-01-02_18h52.48.839,IAT(Formal),2021.2.3,Win32,181.8181818,,,,,,,,,,,,,,,,,,,,,,,,,,,,,,,,,,,,,,,,,,,,,,,,,,,,他们,e,,,e,1,0.4139,1,42,122,56,1,,
,,,,,,,,,,,,,,1,001,2025-01-02_18h52.48.839,IAT(Formal),2021.2.3,Win32,181.8181818,,,,,,,,,,,,,,,,,,,,,,,,,,,,,,,,,,,,,,,,,,,,,,,,,,,,无私,e,,,e,1,0.4741,1,43,123,22,1,,
,,,,,,,,,,,,,,1,001,2025-01-02_18h52.48.839,IAT(Formal),2021.2.3,Win32,181.8181818,,,,,,,,,,,,,,,,,,,,,,,,,,,,,,,,,,,,,,,,,,,,,,,,,,,,俺,i,,,e,0,0.4298,1,44,124,64,1,,
,,,,,,,,,,,,,,1,001,2025-01-02_18h52.48.839,IAT(Formal),2021.2.3,Win32,181.8181818,,,,,,,,,,,,,,,,,,,,,,,,,,,,,,,,,,,,,,,,,,,,,,,,,,,,我,i,,,i,1,0.474,1,45,125,70,1,,
,,,,,,,,,,,,,,1,001,2025-01-02_18h52.48.839,IAT(Formal),2021.2.3,Win32,181.8181818,,,,,,,,,,,,,,,,,,,,,,,,,,,,,,,,,,,,,,,,,,,,,,,,,,,,虚伪,i,,,i,1,0.6521,1,46,126,31,1,,
,,,,,,,,,,,,,,1,001,2025-01-02_18h52.48.839,IAT(Formal),2021.2.3,Win32,181.8181818,,,,,,,,,,,,,,,,,,,,,,,,,,,,,,,,,,,,,,,,,,,,,,,,,,,,他的,e,,,i,0,0.4452,1,47,127,77,1,,
,,,,,,,,,,,,,,1,001,2025-01-02_18h52.48.839,IAT(Formal),2021.2.3,Win32,181.8181818,,,,,,,,,,,,,,,,,,,,,,,,,,,,,,,,,,,,,,,,,,,,,,,,,,,,卑鄙,i,,,i,1,0.5221,1,48,128,30,1,,
,,,,,,,,,,,,,,1,001,2025-01-02_18h52.48.839,IAT(Formal),2021.2.3,Win32,181.8181818,,,,,,,,,,,,,,,,,,,,,,,,,,,,,,,,,,,,,,,,,,,,,,,,,,,,杰出,e,,,e,1,0.4908,1,49,129,13,1,,
,,,,,,,,,,,,,,1,001,2025-01-02_18h52.48.839,IAT(Formal),2021.2.3,Win32,181.8181818,,,,,,,,,,,,,,,,,,,,,,,,,,,,,,,,,,,,,,,,,,,,,,,,,,,,刻薄,i,,,i,1,0.5566,1,50,130,33,1,,
,,,,,,,,,,,,,,1,001,2025-01-02_18h52.48.839,IAT(Formal),2021.2.3,Win32,181.8181818,,,,,,,,,,,,,,,,,,,,,,,,,,,,,,,,,,,,,,,,,,,,,,,,,,,,其他,e,,,e,1,0.4727,1,51,131,59,1,,
,,,,,,,,,,,,,,1,001,2025-01-02_18h52.48.839,IAT(Formal),2021.2.3,Win32,181.8181818,,,,,,,,,,,,,,,,,,,,,,,,,,,,,,,,,,,,,,,,,,,,,,,,,,,,他的,e,,,e,1,0.4284,1,52,132,57,1,,
,,,,,,,,,,,,,,1,001,2025-01-02_18h52.48.839,IAT(Formal),2021.2.3,Win32,181.8181818,,,,,,,,,,,,,,,,,,,,,,,,,,,,,,,,,,,,,,,,,,,,,,,,,,,,我的,i,,,i,1,0.4709,1,53,133,1,1,,
,,,,,,,,,,,,,,1,001,2025-01-02_18h52.48.839,IAT(Formal),2021.2.3,Win32,181.8181818,,,,,,,,,,,,,,,,,,,,,,,,,,,,,,,,,,,,,,,,,,,,,,,,,,,,他的,e,,,e,1,0.5122,1,54,134,67,1,,
,,,,,,,,,,,,,,1,001,2025-01-02_18h52.48.839,IAT(Formal),2021.2.3,Win32,181.8181818,,,,,,,,,,,,,,,,,,,,,,,,,,,,,,,,,,,,,,,,,,,,,,,,,,,,我,i,,,i,1,0.5379,1,55,135,0,1,,
,,,,,,,,,,,,,,1,001,2025-01-02_18h52.48.839,IAT(Formal),2021.2.3,Win32,181.8181818,,,,,,,,,,,,,,,,,,,,,,,,,,,,,,,,,,,,,,,,,,,,,,,,,,,,自卑,i,,,i,1,0.5475,1,56,136,36,1,,
,,,,,,,,,,,,,,1,001,2025-01-02_18h52.48.839,IAT(Formal),2021.2.3,Win32,181.8181818,,,,,,,,,,,,,,,,,,,,,,,,,,,,,,,,,,,,,,,,,,,,,,,,,,,,我的,i,,,i,1,0.5393,1,57,137,61,1,,
,,,,,,,,,,,,,,1,001,2025-01-02_18h52.48.839,IAT(Formal),2021.2.3,Win32,181.8181818,,,,,,,,,,,,,,,,,,,,,,,,,,,,,,,,,,,,,,,,,,,,,,,,,,,,自己,i,,,i,1,0.412,1,58,138,73,1,,
,,,,,,,,,,,,,,1,001,2025-01-02_18h52.48.839,IAT(Formal),2021.2.3,Win32,181.8181818,,,,,,,,,,,,,,,,,,,,,,,,,,,,,,,,,,,,,,,,,,,,,,,,,,,,其他,e,,,e,1,0.6254,1,59,139,9,1,,
,,,,,,,,,,,,,,1,001,2025-01-02_18h52.48.839,IAT(Formal),2021.2.3,Win32,181.8181818,,,,,,,,,,,,,,,,,,,,,,,,,,,,,,,,,,,,,,,,,,,,,,,,,,,,俺,i,,,i,1,0.4899,1,60,140,54,1,,
,,,,,,,,,,,,,,1,001,2025-01-02_18h52.48.839,IAT(Formal),2021.2.3,Win32,181.8181818,,,,,,,,,,,,,,,,,,,,,,,,,,,,,,,,,,,,,,,,,,,,,,,,,,,,固执,i,,,i,1,0.5502,1,61,141,47,1,,
,,,,,,,,,,,,,,1,001,2025-01-02_18h52.48.839,IAT(Formal),2021.2.3,Win32,181.8181818,,,,,,,,,,,,,,,,,,,,,,,,,,,,,,,,,,,,,,,,,,,,,,,,,,,,自己,i,,,i,1,0.4301,1,62,142,63,1,,
,,,,,,,,,,,,,,1,001,2025-01-02_18h52.48.839,IAT(Formal),2021.2.3,Win32,181.8181818,,,,,,,,,,,,,,,,,,,,,,,,,,,,,,,,,,,,,,,,,,,,,,,,,,,,散漫,i,,,i,1,0.5279,1,63,143,41,1,,
,,,,,,,,,,,,,,1,001,2025-01-02_18h52.48.839,IAT(Formal),2021.2.3,Win32,181.8181818,,,,,,,,,,,,,,,,,,,,,,,,,,,,,,,,,,,,,,,,,,,,,,,,,,,,我们,i,,,i,1,0.4389,1,64,144,52,1,,
,,,,,,,,,,,,,,1,001,2025-01-02_18h52.48.839,IAT(Formal),2021.2.3,Win32,181.8181818,,,,,,,,,,,,,,,,,,,,,,,,,,,,,,,,,,,,,,,,,,,,,,,,,,,,我们,i,,,i,1,0.4262,1,65,145,72,1,,
,,,,,,,,,,,,,,1,001,2025-01-02_18h52.48.839,IAT(Formal),2021.2.3,Win32,181.8181818,,,,,,,,,,,,,,,,,,,,,,,,,,,,,,,,,,,,,,,,,,,,,,,,,,,,稳重,e,,,e,1,0.6083,1,66,146,21,1,,
,,,,,,,,,,,,,,1,001,2025-01-02_18h52.48.839,IAT(Formal),2021.2.3,Win32,181.8181818,,,,,,,,,,,,,,,,,,,,,,,,,,,,,,,,,,,,,,,,,,,,,,,,,,,,其他,e,,,e,1,0.4664,1,67,147,79,1,,
,,,,,,,,,,,,,,1,001,2025-01-02_18h52.48.839,IAT(Formal),2021.2.3,Win32,181.8181818,,,,,,,,,,,,,,,,,,,,,,,,,,,,,,,,,,,,,,,,,,,,,,,,,,,,他人,e,,,e,1,0.4306,1,68,148,78,1,,
,,,,,,,,,,,,,,1,001,2025-01-02_18h52.48.839,IAT(Formal),2021.2.3,Win32,181.8181818,,,,,,,,,,,,,,,,,,,,,,,,,,,,,,,,,,,,,,,,,,,,,,,,,,,,他们,e,,,e,1,0.3907,1,69,149,76,1,,
,,,,,,,,,,,,,,1,001,2025-01-02_18h52.48.839,IAT(Formal),2021.2.3,Win32,181.8181818,,,,,,,,,,,,,,,,,,,,,,,,,,,,,,,,,,,,,,,,,,,,,,,,,,,,公正,e,,,e,1,0.5186,1,70,150,23,1,,
,,,,,,,,,,,,,,1,001,2025-01-02_18h52.48.839,IAT(Formal),2021.2.3,Win32,181.8181818,,,,,,,,,,,,,,,,,,,,,,,,,,,,,,,,,,,,,,,,,,,,,,,,,,,,认真,e,,,e,1,0.4616,1,71,151,20,1,,
,,,,,,,,,,,,,,1,001,2025-01-02_18h52.48.839,IAT(Formal),2021.2.3,Win32,181.8181818,,,,,,,,,,,,,,,,,,,,,,,,,,,,,,,,,,,,,,,,,,,,,,,,,,,,我,i,,,e,0,0.4172,1,72,152,50,1,,
,,,,,,,,,,,,,,1,001,2025-01-02_18h52.48.839,IAT(Formal),2021.2.3,Win32,181.8181818,,,,,,,,,,,,,,,,,,,,,,,,,,,,,,,,,,,,,,,,,,,,,,,,,,,,我,i,,,i,1,0.6521,1,73,153,60,1,,
,,,,,,,,,,,,,,1,001,2025-01-02_18h52.48.839,IAT(Formal),2021.2.3,Win32,181.8181818,,,,,,,,,,,,,,,,,,,,,,,,,,,,,,,,,,,,,,,,,,,,,,,,,,,,优秀,e,,,e,1,0.6215,1,74,154,10,1,,
,,,,,,,,,,,,,,1,001,2025-01-02_18h52.48.839,IAT(Formal),2021.2.3,Win32,181.8181818,,,,,,,,,,,,,,,,,,,,,,,,,,,,,,,,,,,,,,,,,,,,,,,,,,,,愚蠢,i,,,i,1,0.528,1,75,155,32,1,,
,,,,,,,,,,,,,,1,001,2025-01-02_18h52.48.839,IAT(Formal),2021.2.3,Win32,181.8181818,,,,,,,,,,,,,,,,,,,,,,,,,,,,,,,,,,,,,,,,,,,,,,,,,,,,野蛮,i,,,i,1,0.5513,1,76,156,46,1,,
,,,,,,,,,,,,,,1,001,2025-01-02_18h52.48.839,IAT(Formal),2021.2.3,Win32,181.8181818,,,,,,,,,,,,,,,,,,,,,,,,,,,,,,,,,,,,,,,,,,,,,,,,,,,,轻率,i,,,i,1,0.5001,1,77,157,48,1,,
,,,,,,,,,,,,,,1,001,2025-01-02_18h52.48.839,IAT(Formal),2021.2.3,Win32,181.8181818,,,,,,,,,,,,,,,,,,,,,,,,,,,,,,,,,,,,,,,,,,,,,,,,,,,,凶狠,i,,,i,1,0.5173,1,78,158,42,1,,
,,,,,,,,,,,,,,1,001,2025-01-02_18h52.48.839,IAT(Formal),2021.2.3,Win32,181.8181818,,,,,,,,,,,,,,,,,,,,,,,,,,,,,,,,,,,,,,,,,,,,,,,,,,,,他,e,,,e,1,0.6006,1,79,159,55,1,,
,,,,,,,,,,,,,,1,001,2025-01-02_18h52.48.839,IAT(Formal),2021.2.3,Win32,181.8181818,,,,,,,,,,,,,,,,,,,,,,,,,,,,,,,,,,,,,,,,,,,,,,,,,,,,,,,,,,,,,,,,space,0.8009