﻿Instruction1.keys,Instruction1.rt,Instruction2.keys,Instruction2.rt,key_resp_iso.keys,key_resp_iso.corr,key_resp_iso.rt,Practice_01.thisRepN,Practice_01.thisTrialN,Practice_01.thisN,Practice_01.thisIndex,Practice_01.ran,Words,ans,participant,session,date,expName,psychopyVersion,OS,frameRate,key_resp_3.keys,key_resp_3.rt,key_resp_ipn.keys,key_resp_ipn.corr,key_resp_ipn.rt,Practice_02.thisRepN,Practice_02.thisTrialN,Practice_02.thisN,Practice_02.thisIndex,Practice_02.ran,Words_ipn,ans_ipn,key_resp_4.keys,key_resp_4.rt,key_resp_t1.keys,key_resp_t1.corr,key_resp_t1.rt,Practice_T1.thisRepN,Practice_T1.thisTrialN,Practice_T1.thisN,Practice_T1.thisIndex,Practice_T1.ran,Words_t1,ans_t1,key_resp_5.keys,key_resp_5.rt,Formal_T1.thisRepN,Formal_T1.thisTrialN,Formal_T1.thisN,Formal_T1.thisIndex,Formal_T1.ran,key_resp_6.keys,key_resp_6.rt,key_resp_iso_reverse.keys,key_resp_iso_reverse.corr,key_resp_iso_reverse.rt,Practice_iso_Reverse.thisRepN,Practice_iso_Reverse.thisTrialN,Practice_iso_Reverse.thisN,Practice_iso_Reverse.thisIndex,Practice_iso_Reverse.ran,key_resp_7.keys,key_resp_7.rt,key_resp_t2_Practice.keys,key_resp_t2_Practice.corr,key_resp_t2_Practice.rt,Practice_t2_Reverse.thisRepN,Practice_t2_Reverse.thisTrialN,Practice_t2_Reverse.thisN,Practice_t2_Reverse.thisIndex,Practice_t2_Reverse.ran,Words_t2,ans_t2,key_resp_8.keys,key_resp_8.rt,key_resp_t2.keys,key_resp_t2.corr,Formal_t2_reverse.thisRepN,Formal_t2_reverse.thisTrialN,Formal_t2_reverse.thisN,Formal_t2_reverse.thisIndex,Formal_t2_reverse.ran,key_resp_t2.rt,key_instruct.keys,key_instruct.rt
space,1.8963,space,5.204,i,1,0.7481,0,0,0,9,1,其他,i,1 陈洋,001,2025-01-02_20h16.19.115,IAT(Formal),2021.2.3,Win32,59.88023952,,,,,,,,,,,,,,,,,,,,,,,,,,,,,,,,,,,,,,,,,,,,,,,,,,,,,,,,,,,,,,,,,
,,,,e,1,0.5707,0,1,1,1,1,我的,e,1 陈洋,001,2025-01-02_20h16.19.115,IAT(Formal),2021.2.3,Win32,59.88023952,,,,,,,,,,,,,,,,,,,,,,,,,,,,,,,,,,,,,,,,,,,,,,,,,,,,,,,,,,,,,,,,,
,,,,i,1,0.6353,0,2,2,5,1,他,i,1 陈洋,001,2025-01-02_20h16.19.115,IAT(Formal),2021.2.3,Win32,59.88023952,,,,,,,,,,,,,,,,,,,,,,,,,,,,,,,,,,,,,,,,,,,,,,,,,,,,,,,,,,,,,,,,,
,,,,e,1,0.6798,0,3,3,4,1,俺,e,1 陈洋,001,2025-01-02_20h16.19.115,IAT(Formal),2021.2.3,Win32,59.88023952,,,,,,,,,,,,,,,,,,,,,,,,,,,,,,,,,,,,,,,,,,,,,,,,,,,,,,,,,,,,,,,,,
,,,,e,1,0.5307,0,4,4,0,1,我,e,1 陈洋,001,2025-01-02_20h16.19.115,IAT(Formal),2021.2.3,Win32,59.88023952,,,,,,,,,,,,,,,,,,,,,,,,,,,,,,,,,,,,,,,,,,,,,,,,,,,,,,,,,,,,,,,,,
,,,,i,1,0.567,0,5,5,8,1,他人,i,1 陈洋,001,2025-01-02_20h16.19.115,IAT(Formal),2021.2.3,Win32,59.88023952,,,,,,,,,,,,,,,,,,,,,,,,,,,,,,,,,,,,,,,,,,,,,,,,,,,,,,,,,,,,,,,,,
,,,,i,1,0.3834,0,6,6,7,1,他的,i,1 陈洋,001,2025-01-02_20h16.19.115,IAT(Formal),2021.2.3,Win32,59.88023952,,,,,,,,,,,,,,,,,,,,,,,,,,,,,,,,,,,,,,,,,,,,,,,,,,,,,,,,,,,,,,,,,
,,,,e,1,0.4341,0,7,7,2,1,我们,e,1 陈洋,001,2025-01-02_20h16.19.115,IAT(Formal),2021.2.3,Win32,59.88023952,,,,,,,,,,,,,,,,,,,,,,,,,,,,,,,,,,,,,,,,,,,,,,,,,,,,,,,,,,,,,,,,,
,,,,e,1,0.4477,0,8,8,3,1,自己,e,1 陈洋,001,2025-01-02_20h16.19.115,IAT(Formal),2021.2.3,Win32,59.88023952,,,,,,,,,,,,,,,,,,,,,,,,,,,,,,,,,,,,,,,,,,,,,,,,,,,,,,,,,,,,,,,,,
,,,,i,1,0.4427,0,9,9,6,1,他们,i,1 陈洋,001,2025-01-02_20h16.19.115,IAT(Formal),2021.2.3,Win32,59.88023952,,,,,,,,,,,,,,,,,,,,,,,,,,,,,,,,,,,,,,,,,,,,,,,,,,,,,,,,,,,,,,,,,
,,,,,,,,,,,,,,1 陈洋,001,2025-01-02_20h16.19.115,IAT(Formal),2021.2.3,Win32,59.88023952,space,3.9049,i,1,0.5176,0,0,0,28,1,鲁莽,i,,,,,,,,,,,,,,,,,,,,,,,,,,,,,,,,,,,,,,,,,,,,,,,,,,,,,
,,,,,,,,,,,,,,1 陈洋,001,2025-01-02_20h16.19.115,IAT(Formal),2021.2.3,Win32,59.88023952,,,i,1,0.5122,0,1,1,34,1,暴躁,i,,,,,,,,,,,,,,,,,,,,,,,,,,,,,,,,,,,,,,,,,,,,,,,,,,,,,
,,,,,,,,,,,,,,1 陈洋,001,2025-01-02_20h16.19.115,IAT(Formal),2021.2.3,Win32,59.88023952,,,e,0,0.5385,0,2,2,29,1,冒失,i,,,,,,,,,,,,,,,,,,,,,,,,,,,,,,,,,,,,,,,,,,,,,,,,,,,,,
,,,,,,,,,,,,,,1 陈洋,001,2025-01-02_20h16.19.115,IAT(Formal),2021.2.3,Win32,59.88023952,,,i,1,0.5007,0,3,3,27,1,傲慢,i,,,,,,,,,,,,,,,,,,,,,,,,,,,,,,,,,,,,,,,,,,,,,,,,,,,,,
,,,,,,,,,,,,,,1 陈洋,001,2025-01-02_20h16.19.115,IAT(Formal),2021.2.3,Win32,59.88023952,,,i,1,0.5329,0,4,4,38,1,轻率,i,,,,,,,,,,,,,,,,,,,,,,,,,,,,,,,,,,,,,,,,,,,,,,,,,,,,,
,,,,,,,,,,,,,,1 陈洋,001,2025-01-02_20h16.19.115,IAT(Formal),2021.2.3,Win32,59.88023952,,,i,0,0.4951,0,5,5,12,1,无私,e,,,,,,,,,,,,,,,,,,,,,,,,,,,,,,,,,,,,,,,,,,,,,,,,,,,,,
,,,,,,,,,,,,,,1 陈洋,001,2025-01-02_20h16.19.115,IAT(Formal),2021.2.3,Win32,59.88023952,,,i,1,0.7972,0,6,6,20,1,卑鄙,i,,,,,,,,,,,,,,,,,,,,,,,,,,,,,,,,,,,,,,,,,,,,,,,,,,,,,
,,,,,,,,,,,,,,1 陈洋,001,2025-01-02_20h16.19.115,IAT(Formal),2021.2.3,Win32,59.88023952,,,e,1,0.5251,0,7,7,5,1,诚实,e,,,,,,,,,,,,,,,,,,,,,,,,,,,,,,,,,,,,,,,,,,,,,,,,,,,,,
,,,,,,,,,,,,,,1 陈洋,001,2025-01-02_20h16.19.115,IAT(Formal),2021.2.3,Win32,59.88023952,,,i,1,0.5754,0,8,8,22,1,愚蠢,i,,,,,,,,,,,,,,,,,,,,,,,,,,,,,,,,,,,,,,,,,,,,,,,,,,,,,
,,,,,,,,,,,,,,1 陈洋,001,2025-01-02_20h16.19.115,IAT(Formal),2021.2.3,Win32,59.88023952,,,e,1,0.4882,0,9,9,9,1,机智,e,,,,,,,,,,,,,,,,,,,,,,,,,,,,,,,,,,,,,,,,,,,,,,,,,,,,,
,,,,,,,,,,,,,,1 陈洋,001,2025-01-02_20h16.19.115,IAT(Formal),2021.2.3,Win32,59.88023952,,,e,1,0.7471,0,10,10,2,1,聪明,e,,,,,,,,,,,,,,,,,,,,,,,,,,,,,,,,,,,,,,,,,,,,,,,,,,,,,
,,,,,,,,,,,,,,1 陈洋,001,2025-01-02_20h16.19.115,IAT(Formal),2021.2.3,Win32,59.88023952,,,e,1,0.4845,0,11,11,17,1,热情,e,,,,,,,,,,,,,,,,,,,,,,,,,,,,,,,,,,,,,,,,,,,,,,,,,,,,,
,,,,,,,,,,,,,,1 陈洋,001,2025-01-02_20h16.19.115,IAT(Formal),2021.2.3,Win32,59.88023952,,,i,1,0.5208,0,12,12,30,1,执拗,i,,,,,,,,,,,,,,,,,,,,,,,,,,,,,,,,,,,,,,,,,,,,,,,,,,,,,
,,,,,,,,,,,,,,1 陈洋,001,2025-01-02_20h16.19.115,IAT(Formal),2021.2.3,Win32,59.88023952,,,e,1,0.5854,0,13,13,13,1,公正,e,,,,,,,,,,,,,,,,,,,,,,,,,,,,,,,,,,,,,,,,,,,,,,,,,,,,,
,,,,,,,,,,,,,,1 陈洋,001,2025-01-02_20h16.19.115,IAT(Formal),2021.2.3,Win32,59.88023952,,,i,1,0.7272,0,14,14,31,1,散漫,i,,,,,,,,,,,,,,,,,,,,,,,,,,,,,,,,,,,,,,,,,,,,,,,,,,,,,
,,,,,,,,,,,,,,1 陈洋,001,2025-01-02_20h16.19.115,IAT(Formal),2021.2.3,Win32,59.88023952,,,i,1,0.7606,0,15,15,33,1,自私,i,,,,,,,,,,,,,,,,,,,,,,,,,,,,,,,,,,,,,,,,,,,,,,,,,,,,,
,,,,,,,,,,,,,,1 陈洋,001,2025-01-02_20h16.19.115,IAT(Formal),2021.2.3,Win32,59.88023952,,,i,1,0.469,0,16,16,23,1,刻薄,i,,,,,,,,,,,,,,,,,,,,,,,,,,,,,,,,,,,,,,,,,,,,,,,,,,,,,
,,,,,,,,,,,,,,1 陈洋,001,2025-01-02_20h16.19.115,IAT(Formal),2021.2.3,Win32,59.88023952,,,e,1,0.5523,0,17,17,1,1,崇高,e,,,,,,,,,,,,,,,,,,,,,,,,,,,,,,,,,,,,,,,,,,,,,,,,,,,,,
,,,,,,,,,,,,,,1 陈洋,001,2025-01-02_20h16.19.115,IAT(Formal),2021.2.3,Win32,59.88023952,,,e,1,0.5568,0,18,18,19,1,诚恳,e,,,,,,,,,,,,,,,,,,,,,,,,,,,,,,,,,,,,,,,,,,,,,,,,,,,,,
,,,,,,,,,,,,,,1 陈洋,001,2025-01-02_20h16.19.115,IAT(Formal),2021.2.3,Win32,59.88023952,,,i,1,0.8475,0,19,19,25,1,消极,i,,,,,,,,,,,,,,,,,,,,,,,,,,,,,,,,,,,,,,,,,,,,,,,,,,,,,
,,,,,,,,,,,,,,1 陈洋,001,2025-01-02_20h16.19.115,IAT(Formal),2021.2.3,Win32,59.88023952,,,e,1,0.6958,0,20,20,3,1,杰出,e,,,,,,,,,,,,,,,,,,,,,,,,,,,,,,,,,,,,,,,,,,,,,,,,,,,,,
,,,,,,,,,,,,,,1 陈洋,001,2025-01-02_20h16.19.115,IAT(Formal),2021.2.3,Win32,59.88023952,,,e,1,0.604,0,21,21,18,1,活泼,e,,,,,,,,,,,,,,,,,,,,,,,,,,,,,,,,,,,,,,,,,,,,,,,,,,,,,
,,,,,,,,,,,,,,1 陈洋,001,2025-01-02_20h16.19.115,IAT(Formal),2021.2.3,Win32,59.88023952,,,i,1,0.8883,0,22,22,21,1,虚伪,i,,,,,,,,,,,,,,,,,,,,,,,,,,,,,,,,,,,,,,,,,,,,,,,,,,,,,
,,,,,,,,,,,,,,1 陈洋,001,2025-01-02_20h16.19.115,IAT(Formal),2021.2.3,Win32,59.88023952,,,i,1,0.573,0,23,23,35,1,猖狂,i,,,,,,,,,,,,,,,,,,,,,,,,,,,,,,,,,,,,,,,,,,,,,,,,,,,,,
,,,,,,,,,,,,,,1 陈洋,001,2025-01-02_20h16.19.115,IAT(Formal),2021.2.3,Win32,59.88023952,,,i,1,0.6027,0,24,24,37,1,固执,i,,,,,,,,,,,,,,,,,,,,,,,,,,,,,,,,,,,,,,,,,,,,,,,,,,,,,
,,,,,,,,,,,,,,1 陈洋,001,2025-01-02_20h16.19.115,IAT(Formal),2021.2.3,Win32,59.88023952,,,i,1,0.6204,0,25,25,26,1,自卑,i,,,,,,,,,,,,,,,,,,,,,,,,,,,,,,,,,,,,,,,,,,,,,,,,,,,,,
,,,,,,,,,,,,,,1 陈洋,001,2025-01-02_20h16.19.115,IAT(Formal),2021.2.3,Win32,59.88023952,,,e,1,0.6451,0,26,26,6,1,正直,e,,,,,,,,,,,,,,,,,,,,,,,,,,,,,,,,,,,,,,,,,,,,,,,,,,,,,
,,,,,,,,,,,,,,1 陈洋,001,2025-01-02_20h16.19.115,IAT(Formal),2021.2.3,Win32,59.88023952,,,i,1,0.6208,0,27,27,24,1,悲观,i,,,,,,,,,,,,,,,,,,,,,,,,,,,,,,,,,,,,,,,,,,,,,,,,,,,,,
,,,,,,,,,,,,,,1 陈洋,001,2025-01-02_20h16.19.115,IAT(Formal),2021.2.3,Win32,59.88023952,,,e,1,0.6381,0,28,28,15,1,细腻,e,,,,,,,,,,,,,,,,,,,,,,,,,,,,,,,,,,,,,,,,,,,,,,,,,,,,,
,,,,,,,,,,,,,,1 陈洋,001,2025-01-02_20h16.19.115,IAT(Formal),2021.2.3,Win32,59.88023952,,,e,1,0.3913,0,29,29,10,1,认真,e,,,,,,,,,,,,,,,,,,,,,,,,,,,,,,,,,,,,,,,,,,,,,,,,,,,,,
,,,,,,,,,,,,,,1 陈洋,001,2025-01-02_20h16.19.115,IAT(Formal),2021.2.3,Win32,59.88023952,,,e,1,0.5383,0,30,30,4,1,乐观,e,,,,,,,,,,,,,,,,,,,,,,,,,,,,,,,,,,,,,,,,,,,,,,,,,,,,,
,,,,,,,,,,,,,,1 陈洋,001,2025-01-02_20h16.19.115,IAT(Formal),2021.2.3,Win32,59.88023952,,,e,1,0.5598,0,31,31,7,1,勇敢,e,,,,,,,,,,,,,,,,,,,,,,,,,,,,,,,,,,,,,,,,,,,,,,,,,,,,,
,,,,,,,,,,,,,,1 陈洋,001,2025-01-02_20h16.19.115,IAT(Formal),2021.2.3,Win32,59.88023952,,,e,1,0.7114,0,32,32,14,1,朴实,e,,,,,,,,,,,,,,,,,,,,,,,,,,,,,,,,,,,,,,,,,,,,,,,,,,,,,
,,,,,,,,,,,,,,1 陈洋,001,2025-01-02_20h16.19.115,IAT(Formal),2021.2.3,Win32,59.88023952,,,e,1,0.454,0,33,33,8,1,勤奋,e,,,,,,,,,,,,,,,,,,,,,,,,,,,,,,,,,,,,,,,,,,,,,,,,,,,,,
,,,,,,,,,,,,,,1 陈洋,001,2025-01-02_20h16.19.115,IAT(Formal),2021.2.3,Win32,59.88023952,,,i,1,0.6109,0,34,34,32,1,凶狠,i,,,,,,,,,,,,,,,,,,,,,,,,,,,,,,,,,,,,,,,,,,,,,,,,,,,,,
,,,,,,,,,,,,,,1 陈洋,001,2025-01-02_20h16.19.115,IAT(Formal),2021.2.3,Win32,59.88023952,,,e,1,0.5524,0,35,35,16,1,冷静,e,,,,,,,,,,,,,,,,,,,,,,,,,,,,,,,,,,,,,,,,,,,,,,,,,,,,,
,,,,,,,,,,,,,,1 陈洋,001,2025-01-02_20h16.19.115,IAT(Formal),2021.2.3,Win32,59.88023952,,,e,1,0.9847,0,36,36,0,1,优秀,e,,,,,,,,,,,,,,,,,,,,,,,,,,,,,,,,,,,,,,,,,,,,,,,,,,,,,
,,,,,,,,,,,,,,1 陈洋,001,2025-01-02_20h16.19.115,IAT(Formal),2021.2.3,Win32,59.88023952,,,e,1,0.6105,0,37,37,11,1,稳重,e,,,,,,,,,,,,,,,,,,,,,,,,,,,,,,,,,,,,,,,,,,,,,,,,,,,,,
,,,,,,,,,,,,,,1 陈洋,001,2025-01-02_20h16.19.115,IAT(Formal),2021.2.3,Win32,59.88023952,,,i,1,1.2675,0,38,38,39,1,下贱,i,,,,,,,,,,,,,,,,,,,,,,,,,,,,,,,,,,,,,,,,,,,,,,,,,,,,,
,,,,,,,,,,,,,,1 陈洋,001,2025-01-02_20h16.19.115,IAT(Formal),2021.2.3,Win32,59.88023952,,,i,1,1.2043,0,39,39,36,1,野蛮,i,,,,,,,,,,,,,,,,,,,,,,,,,,,,,,,,,,,,,,,,,,,,,,,,,,,,,
,,,,,,,,,,,,,,1 陈洋,001,2025-01-02_20h16.19.115,IAT(Formal),2021.2.3,Win32,59.88023952,,,,,,,,,,,,,space,14.7755,i,1,0.622,0,0,0,66,1,他们,i,,,,,,,,,,,,,,,,,,,,,,,,,,,,,,,,,,,,,,,,,
,,,,,,,,,,,,,,1 陈洋,001,2025-01-02_20h16.19.115,IAT(Formal),2021.2.3,Win32,59.88023952,,,,,,,,,,,,,,,e,1,0.6691,0,1,1,1,1,我的,e,,,,,,,,,,,,,,,,,,,,,,,,,,,,,,,,,,,,,,,,,
,,,,,,,,,,,,,,1 陈洋,001,2025-01-02_20h16.19.115,IAT(Formal),2021.2.3,Win32,59.88023952,,,,,,,,,,,,,,,e,1,0.9644,0,2,2,4,1,俺,e,,,,,,,,,,,,,,,,,,,,,,,,,,,,,,,,,,,,,,,,,
,,,,,,,,,,,,,,1 陈洋,001,2025-01-02_20h16.19.115,IAT(Formal),2021.2.3,Win32,59.88023952,,,,,,,,,,,,,,,,0,,0,3,3,68,1,他人,i,,,,,,,,,,,,,,,,,,,,,,,,,,,,,,,,,,,,,,,,,
,,,,,,,,,,,,,,1 陈洋,001,2025-01-02_20h16.19.115,IAT(Formal),2021.2.3,Win32,59.88023952,,,,,,,,,,,,,,,e,1,0.6357,0,4,4,25,1,细腻,e,,,,,,,,,,,,,,,,,,,,,,,,,,,,,,,,,,,,,,,,,
,,,,,,,,,,,,,,1 陈洋,001,2025-01-02_20h16.19.115,IAT(Formal),2021.2.3,Win32,59.88023952,,,,,,,,,,,,,,,e,1,0.5231,0,5,5,60,1,我,e,,,,,,,,,,,,,,,,,,,,,,,,,,,,,,,,,,,,,,,,,
,,,,,,,,,,,,,,1 陈洋,001,2025-01-02_20h16.19.115,IAT(Formal),2021.2.3,Win32,59.88023952,,,,,,,,,,,,,,,i,1,0.6388,0,6,6,6,1,他们,i,,,,,,,,,,,,,,,,,,,,,,,,,,,,,,,,,,,,,,,,,
,,,,,,,,,,,,,,1 陈洋,001,2025-01-02_20h16.19.115,IAT(Formal),2021.2.3,Win32,59.88023952,,,,,,,,,,,,,,,i,1,0.6909,0,7,7,9,1,其他,i,,,,,,,,,,,,,,,,,,,,,,,,,,,,,,,,,,,,,,,,,
,,,,,,,,,,,,,,1 陈洋,001,2025-01-02_20h16.19.115,IAT(Formal),2021.2.3,Win32,59.88023952,,,,,,,,,,,,,,,i,1,0.5324,0,8,8,33,1,刻薄,i,,,,,,,,,,,,,,,,,,,,,,,,,,,,,,,,,,,,,,,,,
,,,,,,,,,,,,,,1 陈洋,001,2025-01-02_20h16.19.115,IAT(Formal),2021.2.3,Win32,59.88023952,,,,,,,,,,,,,,,i,1,0.9804,0,9,9,48,1,轻率,i,,,,,,,,,,,,,,,,,,,,,,,,,,,,,,,,,,,,,,,,,
,,,,,,,,,,,,,,1 陈洋,001,2025-01-02_20h16.19.115,IAT(Formal),2021.2.3,Win32,59.88023952,,,,,,,,,,,,,,,i,1,0.6158,0,10,10,67,1,他的,i,,,,,,,,,,,,,,,,,,,,,,,,,,,,,,,,,,,,,,,,,
,,,,,,,,,,,,,,1 陈洋,001,2025-01-02_20h16.19.115,IAT(Formal),2021.2.3,Win32,59.88023952,,,,,,,,,,,,,,,e,1,0.481,0,11,11,12,1,聪明,e,,,,,,,,,,,,,,,,,,,,,,,,,,,,,,,,,,,,,,,,,
,,,,,,,,,,,,,,1 陈洋,001,2025-01-02_20h16.19.115,IAT(Formal),2021.2.3,Win32,59.88023952,,,,,,,,,,,,,,,e,1,0.6908,0,12,12,16,1,正直,e,,,,,,,,,,,,,,,,,,,,,,,,,,,,,,,,,,,,,,,,,
,,,,,,,,,,,,,,1 陈洋,001,2025-01-02_20h16.19.115,IAT(Formal),2021.2.3,Win32,59.88023952,,,,,,,,,,,,,,,i,1,0.6047,0,13,13,44,1,暴躁,i,,,,,,,,,,,,,,,,,,,,,,,,,,,,,,,,,,,,,,,,,
,,,,,,,,,,,,,,1 陈洋,001,2025-01-02_20h16.19.115,IAT(Formal),2021.2.3,Win32,59.88023952,,,,,,,,,,,,,,,i,1,0.9128,0,14,14,69,1,其他,i,,,,,,,,,,,,,,,,,,,,,,,,,,,,,,,,,,,,,,,,,
,,,,,,,,,,,,,,1 陈洋,001,2025-01-02_20h16.19.115,IAT(Formal),2021.2.3,Win32,59.88023952,,,,,,,,,,,,,,,i,1,0.6848,0,15,15,59,1,其他,i,,,,,,,,,,,,,,,,,,,,,,,,,,,,,,,,,,,,,,,,,
,,,,,,,,,,,,,,1 陈洋,001,2025-01-02_20h16.19.115,IAT(Formal),2021.2.3,Win32,59.88023952,,,,,,,,,,,,,,,i,1,0.6375,0,16,16,37,1,傲慢,i,,,,,,,,,,,,,,,,,,,,,,,,,,,,,,,,,,,,,,,,,
,,,,,,,,,,,,,,1 陈洋,001,2025-01-02_20h16.19.115,IAT(Formal),2021.2.3,Win32,59.88023952,,,,,,,,,,,,,,,i,1,0.6593,0,17,17,76,1,他们,i,,,,,,,,,,,,,,,,,,,,,,,,,,,,,,,,,,,,,,,,,
,,,,,,,,,,,,,,1 陈洋,001,2025-01-02_20h16.19.115,IAT(Formal),2021.2.3,Win32,59.88023952,,,,,,,,,,,,,,,i,1,0.8577,0,18,18,77,1,他的,i,,,,,,,,,,,,,,,,,,,,,,,,,,,,,,,,,,,,,,,,,
,,,,,,,,,,,,,,1 陈洋,001,2025-01-02_20h16.19.115,IAT(Formal),2021.2.3,Win32,59.88023952,,,,,,,,,,,,,,,i,1,0.5998,0,19,19,47,1,固执,i,,,,,,,,,,,,,,,,,,,,,,,,,,,,,,,,,,,,,,,,,
,,,,,,,,,,,,,,1 陈洋,001,2025-01-02_20h16.19.115,IAT(Formal),2021.2.3,Win32,59.88023952,,,,,,,,,,,,,,,e,1,0.5626,0,20,20,11,1,崇高,e,,,,,,,,,,,,,,,,,,,,,,,,,,,,,,,,,,,,,,,,,
,,,,,,,,,,,,,,1 陈洋,001,2025-01-02_20h16.19.115,IAT(Formal),2021.2.3,Win32,59.88023952,,,,,,,,,,,,,,,e,1,0.5007,0,21,21,54,1,俺,e,,,,,,,,,,,,,,,,,,,,,,,,,,,,,,,,,,,,,,,,,
,,,,,,,,,,,,,,1 陈洋,001,2025-01-02_20h16.19.115,IAT(Formal),2021.2.3,Win32,59.88023952,,,,,,,,,,,,,,,i,1,0.6809,0,22,22,35,1,消极,i,,,,,,,,,,,,,,,,,,,,,,,,,,,,,,,,,,,,,,,,,
,,,,,,,,,,,,,,1 陈洋,001,2025-01-02_20h16.19.115,IAT(Formal),2021.2.3,Win32,59.88023952,,,,,,,,,,,,,,,i,1,0.5862,0,23,23,36,1,自卑,i,,,,,,,,,,,,,,,,,,,,,,,,,,,,,,,,,,,,,,,,,
,,,,,,,,,,,,,,1 陈洋,001,2025-01-02_20h16.19.115,IAT(Formal),2021.2.3,Win32,59.88023952,,,,,,,,,,,,,,,i,1,0.5897,0,24,24,31,1,虚伪,i,,,,,,,,,,,,,,,,,,,,,,,,,,,,,,,,,,,,,,,,,
,,,,,,,,,,,,,,1 陈洋,001,2025-01-02_20h16.19.115,IAT(Formal),2021.2.3,Win32,59.88023952,,,,,,,,,,,,,,,e,1,0.8542,0,25,25,17,1,勇敢,e,,,,,,,,,,,,,,,,,,,,,,,,,,,,,,,,,,,,,,,,,
,,,,,,,,,,,,,,1 陈洋,001,2025-01-02_20h16.19.115,IAT(Formal),2021.2.3,Win32,59.88023952,,,,,,,,,,,,,,,e,1,0.6043,0,26,26,29,1,诚恳,e,,,,,,,,,,,,,,,,,,,,,,,,,,,,,,,,,,,,,,,,,
,,,,,,,,,,,,,,1 陈洋,001,2025-01-02_20h16.19.115,IAT(Formal),2021.2.3,Win32,59.88023952,,,,,,,,,,,,,,,e,0,0.6674,0,27,27,55,1,他,i,,,,,,,,,,,,,,,,,,,,,,,,,,,,,,,,,,,,,,,,,
,,,,,,,,,,,,,,1 陈洋,001,2025-01-02_20h16.19.115,IAT(Formal),2021.2.3,Win32,59.88023952,,,,,,,,,,,,,,,e,1,0.6742,0,28,28,26,1,冷静,e,,,,,,,,,,,,,,,,,,,,,,,,,,,,,,,,,,,,,,,,,
,,,,,,,,,,,,,,1 陈洋,001,2025-01-02_20h16.19.115,IAT(Formal),2021.2.3,Win32,59.88023952,,,,,,,,,,,,,,,e,1,0.486,0,29,29,27,1,热情,e,,,,,,,,,,,,,,,,,,,,,,,,,,,,,,,,,,,,,,,,,
,,,,,,,,,,,,,,1 陈洋,001,2025-01-02_20h16.19.115,IAT(Formal),2021.2.3,Win32,59.88023952,,,,,,,,,,,,,,,e,1,0.5668,0,30,30,2,1,我们,e,,,,,,,,,,,,,,,,,,,,,,,,,,,,,,,,,,,,,,,,,
,,,,,,,,,,,,,,1 陈洋,001,2025-01-02_20h16.19.115,IAT(Formal),2021.2.3,Win32,59.88023952,,,,,,,,,,,,,,,e,1,0.4869,0,31,31,64,1,俺,e,,,,,,,,,,,,,,,,,,,,,,,,,,,,,,,,,,,,,,,,,
,,,,,,,,,,,,,,1 陈洋,001,2025-01-02_20h16.19.115,IAT(Formal),2021.2.3,Win32,59.88023952,,,,,,,,,,,,,,,i,1,0.8308,0,32,32,39,1,冒失,i,,,,,,,,,,,,,,,,,,,,,,,,,,,,,,,,,,,,,,,,,
,,,,,,,,,,,,,,1 陈洋,001,2025-01-02_20h16.19.115,IAT(Formal),2021.2.3,Win32,59.88023952,,,,,,,,,,,,,,,i,1,0.9701,0,33,33,5,1,他,i,,,,,,,,,,,,,,,,,,,,,,,,,,,,,,,,,,,,,,,,,
,,,,,,,,,,,,,,1 陈洋,001,2025-01-02_20h16.19.115,IAT(Formal),2021.2.3,Win32,59.88023952,,,,,,,,,,,,,,,i,1,1.2323,0,34,34,46,1,野蛮,i,,,,,,,,,,,,,,,,,,,,,,,,,,,,,,,,,,,,,,,,,
,,,,,,,,,,,,,,1 陈洋,001,2025-01-02_20h16.19.115,IAT(Formal),2021.2.3,Win32,59.88023952,,,,,,,,,,,,,,,e,1,0.516,0,35,35,18,1,勤奋,e,,,,,,,,,,,,,,,,,,,,,,,,,,,,,,,,,,,,,,,,,
,,,,,,,,,,,,,,1 陈洋,001,2025-01-02_20h16.19.115,IAT(Formal),2021.2.3,Win32,59.88023952,,,,,,,,,,,,,,,e,1,0.4038,0,36,36,52,1,我们,e,,,,,,,,,,,,,,,,,,,,,,,,,,,,,,,,,,,,,,,,,
,,,,,,,,,,,,,,1 陈洋,001,2025-01-02_20h16.19.115,IAT(Formal),2021.2.3,Win32,59.88023952,,,,,,,,,,,,,,,i,1,0.7364,0,37,37,30,1,卑鄙,i,,,,,,,,,,,,,,,,,,,,,,,,,,,,,,,,,,,,,,,,,
,,,,,,,,,,,,,,1 陈洋,001,2025-01-02_20h16.19.115,IAT(Formal),2021.2.3,Win32,59.88023952,,,,,,,,,,,,,,,e,1,0.5404,0,38,38,50,1,我,e,,,,,,,,,,,,,,,,,,,,,,,,,,,,,,,,,,,,,,,,,
,,,,,,,,,,,,,,1 陈洋,001,2025-01-02_20h16.19.115,IAT(Formal),2021.2.3,Win32,59.88023952,,,,,,,,,,,,,,,i,1,0.5484,0,39,39,42,1,凶狠,i,,,,,,,,,,,,,,,,,,,,,,,,,,,,,,,,,,,,,,,,,
,,,,,,,,,,,,,,1 陈洋,001,2025-01-02_20h16.19.115,IAT(Formal),2021.2.3,Win32,59.88023952,,,,,,,,,,,,,,,e,1,0.9227,0,40,40,63,1,自己,e,,,,,,,,,,,,,,,,,,,,,,,,,,,,,,,,,,,,,,,,,
,,,,,,,,,,,,,,1 陈洋,001,2025-01-02_20h16.19.115,IAT(Formal),2021.2.3,Win32,59.88023952,,,,,,,,,,,,,,,e,1,0.8652,0,41,41,62,1,我们,e,,,,,,,,,,,,,,,,,,,,,,,,,,,,,,,,,,,,,,,,,
,,,,,,,,,,,,,,1 陈洋,001,2025-01-02_20h16.19.115,IAT(Formal),2021.2.3,Win32,59.88023952,,,,,,,,,,,,,,,e,1,0.5711,0,42,42,24,1,朴实,e,,,,,,,,,,,,,,,,,,,,,,,,,,,,,,,,,,,,,,,,,
,,,,,,,,,,,,,,1 陈洋,001,2025-01-02_20h16.19.115,IAT(Formal),2021.2.3,Win32,59.88023952,,,,,,,,,,,,,,,i,1,0.754,0,43,43,78,1,他人,i,,,,,,,,,,,,,,,,,,,,,,,,,,,,,,,,,,,,,,,,,
,,,,,,,,,,,,,,1 陈洋,001,2025-01-02_20h16.19.115,IAT(Formal),2021.2.3,Win32,59.88023952,,,,,,,,,,,,,,,i,1,0.8881,0,44,44,34,1,悲观,i,,,,,,,,,,,,,,,,,,,,,,,,,,,,,,,,,,,,,,,,,
,,,,,,,,,,,,,,1 陈洋,001,2025-01-02_20h16.19.115,IAT(Formal),2021.2.3,Win32,59.88023952,,,,,,,,,,,,,,,e,1,0.5183,0,45,45,23,1,公正,e,,,,,,,,,,,,,,,,,,,,,,,,,,,,,,,,,,,,,,,,,
,,,,,,,,,,,,,,1 陈洋,001,2025-01-02_20h16.19.115,IAT(Formal),2021.2.3,Win32,59.88023952,,,,,,,,,,,,,,,e,1,1.0723,0,46,46,0,1,我,e,,,,,,,,,,,,,,,,,,,,,,,,,,,,,,,,,,,,,,,,,
,,,,,,,,,,,,,,1 陈洋,001,2025-01-02_20h16.19.115,IAT(Formal),2021.2.3,Win32,59.88023952,,,,,,,,,,,,,,,e,1,1.307,0,47,47,19,1,机智,e,,,,,,,,,,,,,,,,,,,,,,,,,,,,,,,,,,,,,,,,,
,,,,,,,,,,,,,,1 陈洋,001,2025-01-02_20h16.19.115,IAT(Formal),2021.2.3,Win32,59.88023952,,,,,,,,,,,,,,,e,1,0.4738,0,48,48,21,1,稳重,e,,,,,,,,,,,,,,,,,,,,,,,,,,,,,,,,,,,,,,,,,
,,,,,,,,,,,,,,1 陈洋,001,2025-01-02_20h16.19.115,IAT(Formal),2021.2.3,Win32,59.88023952,,,,,,,,,,,,,,,e,1,0.6494,0,49,49,3,1,自己,e,,,,,,,,,,,,,,,,,,,,,,,,,,,,,,,,,,,,,,,,,
,,,,,,,,,,,,,,1 陈洋,001,2025-01-02_20h16.19.115,IAT(Formal),2021.2.3,Win32,59.88023952,,,,,,,,,,,,,,,e,1,0.5846,0,50,50,71,1,我的,e,,,,,,,,,,,,,,,,,,,,,,,,,,,,,,,,,,,,,,,,,
,,,,,,,,,,,,,,1 陈洋,001,2025-01-02_20h16.19.115,IAT(Formal),2021.2.3,Win32,59.88023952,,,,,,,,,,,,,,,e,1,0.4683,0,51,51,10,1,优秀,e,,,,,,,,,,,,,,,,,,,,,,,,,,,,,,,,,,,,,,,,,
,,,,,,,,,,,,,,1 陈洋,001,2025-01-02_20h16.19.115,IAT(Formal),2021.2.3,Win32,59.88023952,,,,,,,,,,,,,,,e,1,0.502,0,52,52,15,1,诚实,e,,,,,,,,,,,,,,,,,,,,,,,,,,,,,,,,,,,,,,,,,
,,,,,,,,,,,,,,1 陈洋,001,2025-01-02_20h16.19.115,IAT(Formal),2021.2.3,Win32,59.88023952,,,,,,,,,,,,,,,e,0,0.6533,0,53,53,65,1,他,i,,,,,,,,,,,,,,,,,,,,,,,,,,,,,,,,,,,,,,,,,
,,,,,,,,,,,,,,1 陈洋,001,2025-01-02_20h16.19.115,IAT(Formal),2021.2.3,Win32,59.88023952,,,,,,,,,,,,,,,e,1,0.7042,0,54,54,14,1,乐观,e,,,,,,,,,,,,,,,,,,,,,,,,,,,,,,,,,,,,,,,,,
,,,,,,,,,,,,,,1 陈洋,001,2025-01-02_20h16.19.115,IAT(Formal),2021.2.3,Win32,59.88023952,,,,,,,,,,,,,,,e,1,0.9025,0,55,55,72,1,我们,e,,,,,,,,,,,,,,,,,,,,,,,,,,,,,,,,,,,,,,,,,
,,,,,,,,,,,,,,1 陈洋,001,2025-01-02_20h16.19.115,IAT(Formal),2021.2.3,Win32,59.88023952,,,,,,,,,,,,,,,i,1,0.8672,0,56,56,43,1,自私,i,,,,,,,,,,,,,,,,,,,,,,,,,,,,,,,,,,,,,,,,,
,,,,,,,,,,,,,,1 陈洋,001,2025-01-02_20h16.19.115,IAT(Formal),2021.2.3,Win32,59.88023952,,,,,,,,,,,,,,,e,1,1.009,0,57,57,20,1,认真,e,,,,,,,,,,,,,,,,,,,,,,,,,,,,,,,,,,,,,,,,,
,,,,,,,,,,,,,,1 陈洋,001,2025-01-02_20h16.19.115,IAT(Formal),2021.2.3,Win32,59.88023952,,,,,,,,,,,,,,,e,1,0.5131,0,58,58,73,1,自己,e,,,,,,,,,,,,,,,,,,,,,,,,,,,,,,,,,,,,,,,,,
,,,,,,,,,,,,,,1 陈洋,001,2025-01-02_20h16.19.115,IAT(Formal),2021.2.3,Win32,59.88023952,,,,,,,,,,,,,,,e,0,0.4707,0,59,59,40,1,执拗,i,,,,,,,,,,,,,,,,,,,,,,,,,,,,,,,,,,,,,,,,,
,,,,,,,,,,,,,,1 陈洋,001,2025-01-02_20h16.19.115,IAT(Formal),2021.2.3,Win32,59.88023952,,,,,,,,,,,,,,,e,1,0.6164,0,60,60,13,1,杰出,e,,,,,,,,,,,,,,,,,,,,,,,,,,,,,,,,,,,,,,,,,
,,,,,,,,,,,,,,1 陈洋,001,2025-01-02_20h16.19.115,IAT(Formal),2021.2.3,Win32,59.88023952,,,,,,,,,,,,,,,e,1,0.4895,0,61,61,28,1,活泼,e,,,,,,,,,,,,,,,,,,,,,,,,,,,,,,,,,,,,,,,,,
,,,,,,,,,,,,,,1 陈洋,001,2025-01-02_20h16.19.115,IAT(Formal),2021.2.3,Win32,59.88023952,,,,,,,,,,,,,,,i,1,0.3999,0,62,62,58,1,他人,i,,,,,,,,,,,,,,,,,,,,,,,,,,,,,,,,,,,,,,,,,
,,,,,,,,,,,,,,1 陈洋,001,2025-01-02_20h16.19.115,IAT(Formal),2021.2.3,Win32,59.88023952,,,,,,,,,,,,,,,i,1,0.6648,0,63,63,57,1,他的,i,,,,,,,,,,,,,,,,,,,,,,,,,,,,,,,,,,,,,,,,,
,,,,,,,,,,,,,,1 陈洋,001,2025-01-02_20h16.19.115,IAT(Formal),2021.2.3,Win32,59.88023952,,,,,,,,,,,,,,,e,1,0.9071,0,64,64,74,1,俺,e,,,,,,,,,,,,,,,,,,,,,,,,,,,,,,,,,,,,,,,,,
,,,,,,,,,,,,,,1 陈洋,001,2025-01-02_20h16.19.115,IAT(Formal),2021.2.3,Win32,59.88023952,,,,,,,,,,,,,,,i,1,1.3327,0,65,65,79,1,其他,i,,,,,,,,,,,,,,,,,,,,,,,,,,,,,,,,,,,,,,,,,
,,,,,,,,,,,,,,1 陈洋,001,2025-01-02_20h16.19.115,IAT(Formal),2021.2.3,Win32,59.88023952,,,,,,,,,,,,,,,i,1,0.5244,0,66,66,7,1,他的,i,,,,,,,,,,,,,,,,,,,,,,,,,,,,,,,,,,,,,,,,,
,,,,,,,,,,,,,,1 陈洋,001,2025-01-02_20h16.19.115,IAT(Formal),2021.2.3,Win32,59.88023952,,,,,,,,,,,,,,,i,1,0.6522,0,67,67,75,1,他,i,,,,,,,,,,,,,,,,,,,,,,,,,,,,,,,,,,,,,,,,,
,,,,,,,,,,,,,,1 陈洋,001,2025-01-02_20h16.19.115,IAT(Formal),2021.2.3,Win32,59.88023952,,,,,,,,,,,,,,,i,1,0.6993,0,68,68,41,1,散漫,i,,,,,,,,,,,,,,,,,,,,,,,,,,,,,,,,,,,,,,,,,
,,,,,,,,,,,,,,1 陈洋,001,2025-01-02_20h16.19.115,IAT(Formal),2021.2.3,Win32,59.88023952,,,,,,,,,,,,,,,i,1,0.7718,0,69,69,49,1,下贱,i,,,,,,,,,,,,,,,,,,,,,,,,,,,,,,,,,,,,,,,,,
,,,,,,,,,,,,,,1 陈洋,001,2025-01-02_20h16.19.115,IAT(Formal),2021.2.3,Win32,59.88023952,,,,,,,,,,,,,,,e,1,0.452,0,70,70,61,1,我的,e,,,,,,,,,,,,,,,,,,,,,,,,,,,,,,,,,,,,,,,,,
,,,,,,,,,,,,,,1 陈洋,001,2025-01-02_20h16.19.115,IAT(Formal),2021.2.3,Win32,59.88023952,,,,,,,,,,,,,,,i,1,0.4854,0,71,71,32,1,愚蠢,i,,,,,,,,,,,,,,,,,,,,,,,,,,,,,,,,,,,,,,,,,
,,,,,,,,,,,,,,1 陈洋,001,2025-01-02_20h16.19.115,IAT(Formal),2021.2.3,Win32,59.88023952,,,,,,,,,,,,,,,i,1,0.5097,0,72,72,8,1,他人,i,,,,,,,,,,,,,,,,,,,,,,,,,,,,,,,,,,,,,,,,,
,,,,,,,,,,,,,,1 陈洋,001,2025-01-02_20h16.19.115,IAT(Formal),2021.2.3,Win32,59.88023952,,,,,,,,,,,,,,,e,1,0.6573,0,73,73,70,1,我,e,,,,,,,,,,,,,,,,,,,,,,,,,,,,,,,,,,,,,,,,,
,,,,,,,,,,,,,,1 陈洋,001,2025-01-02_20h16.19.115,IAT(Formal),2021.2.3,Win32,59.88023952,,,,,,,,,,,,,,,i,1,0.9094,0,74,74,56,1,他们,i,,,,,,,,,,,,,,,,,,,,,,,,,,,,,,,,,,,,,,,,,
,,,,,,,,,,,,,,1 陈洋,001,2025-01-02_20h16.19.115,IAT(Formal),2021.2.3,Win32,59.88023952,,,,,,,,,,,,,,,i,1,0.5923,0,75,75,38,1,鲁莽,i,,,,,,,,,,,,,,,,,,,,,,,,,,,,,,,,,,,,,,,,,
,,,,,,,,,,,,,,1 陈洋,001,2025-01-02_20h16.19.115,IAT(Formal),2021.2.3,Win32,59.88023952,,,,,,,,,,,,,,,e,1,0.7518,0,76,76,22,1,无私,e,,,,,,,,,,,,,,,,,,,,,,,,,,,,,,,,,,,,,,,,,
,,,,,,,,,,,,,,1 陈洋,001,2025-01-02_20h16.19.115,IAT(Formal),2021.2.3,Win32,59.88023952,,,,,,,,,,,,,,,e,1,0.5507,0,77,77,53,1,自己,e,,,,,,,,,,,,,,,,,,,,,,,,,,,,,,,,,,,,,,,,,
,,,,,,,,,,,,,,1 陈洋,001,2025-01-02_20h16.19.115,IAT(Formal),2021.2.3,Win32,59.88023952,,,,,,,,,,,,,,,e,1,0.7128,0,78,78,51,1,我的,e,,,,,,,,,,,,,,,,,,,,,,,,,,,,,,,,,,,,,,,,,
,,,,,,,,,,,,,,1 陈洋,001,2025-01-02_20h16.19.115,IAT(Formal),2021.2.3,Win32,59.88023952,,,,,,,,,,,,,,,i,1,0.9331,0,79,79,45,1,猖狂,i,,,,,,,,,,,,,,,,,,,,,,,,,,,,,,,,,,,,,,,,,
,,,,,,,,,,,,,,1 陈洋,001,2025-01-02_20h16.19.115,IAT(Formal),2021.2.3,Win32,59.88023952,,,,,,,,,,,,,,,e,1,0.4893,,,,,,我们,e,space,26.284,0,0,0,2,1,,,,,,,,,,,,,,,,,,,,,,,,,,,,,,,,,,
,,,,,,,,,,,,,,1 陈洋,001,2025-01-02_20h16.19.115,IAT(Formal),2021.2.3,Win32,59.88023952,,,,,,,,,,,,,,,i,1,0.4574,,,,,,他人,i,,,0,1,1,8,1,,,,,,,,,,,,,,,,,,,,,,,,,,,,,,,,,,
,,,,,,,,,,,,,,1 陈洋,001,2025-01-02_20h16.19.115,IAT(Formal),2021.2.3,Win32,59.88023952,,,,,,,,,,,,,,,i,1,0.368,,,,,,他的,i,,,0,2,2,7,1,,,,,,,,,,,,,,,,,,,,,,,,,,,,,,,,,,
,,,,,,,,,,,,,,1 陈洋,001,2025-01-02_20h16.19.115,IAT(Formal),2021.2.3,Win32,59.88023952,,,,,,,,,,,,,,,i,1,0.4417,,,,,,其他,i,,,0,3,3,69,1,,,,,,,,,,,,,,,,,,,,,,,,,,,,,,,,,,
,,,,,,,,,,,,,,1 陈洋,001,2025-01-02_20h16.19.115,IAT(Formal),2021.2.3,Win32,59.88023952,,,,,,,,,,,,,,,i,1,0.5692,,,,,,自卑,i,,,0,4,4,36,1,,,,,,,,,,,,,,,,,,,,,,,,,,,,,,,,,,
,,,,,,,,,,,,,,1 陈洋,001,2025-01-02_20h16.19.115,IAT(Formal),2021.2.3,Win32,59.88023952,,,,,,,,,,,,,,,i,1,0.5548,,,,,,他人,i,,,0,5,5,58,1,,,,,,,,,,,,,,,,,,,,,,,,,,,,,,,,,,
,,,,,,,,,,,,,,1 陈洋,001,2025-01-02_20h16.19.115,IAT(Formal),2021.2.3,Win32,59.88023952,,,,,,,,,,,,,,,i,1,0.5299,,,,,,冒失,i,,,0,6,6,39,1,,,,,,,,,,,,,,,,,,,,,,,,,,,,,,,,,,
,,,,,,,,,,,,,,1 陈洋,001,2025-01-02_20h16.19.115,IAT(Formal),2021.2.3,Win32,59.88023952,,,,,,,,,,,,,,,i,1,0.3713,,,,,,他的,i,,,0,7,7,67,1,,,,,,,,,,,,,,,,,,,,,,,,,,,,,,,,,,
,,,,,,,,,,,,,,1 陈洋,001,2025-01-02_20h16.19.115,IAT(Formal),2021.2.3,Win32,59.88023952,,,,,,,,,,,,,,,e,1,0.4832,,,,,,我们,e,,,0,8,8,52,1,,,,,,,,,,,,,,,,,,,,,,,,,,,,,,,,,,
,,,,,,,,,,,,,,1 陈洋,001,2025-01-02_20h16.19.115,IAT(Formal),2021.2.3,Win32,59.88023952,,,,,,,,,,,,,,,i,1,0.4673,,,,,,下贱,i,,,0,9,9,49,1,,,,,,,,,,,,,,,,,,,,,,,,,,,,,,,,,,
,,,,,,,,,,,,,,1 陈洋,001,2025-01-02_20h16.19.115,IAT(Formal),2021.2.3,Win32,59.88023952,,,,,,,,,,,,,,,e,1,0.4548,,,,,,自己,e,,,0,10,10,63,1,,,,,,,,,,,,,,,,,,,,,,,,,,,,,,,,,,
,,,,,,,,,,,,,,1 陈洋,001,2025-01-02_20h16.19.115,IAT(Formal),2021.2.3,Win32,59.88023952,,,,,,,,,,,,,,,i,1,0.4581,,,,,,其他,i,,,0,11,11,59,1,,,,,,,,,,,,,,,,,,,,,,,,,,,,,,,,,,
,,,,,,,,,,,,,,1 陈洋,001,2025-01-02_20h16.19.115,IAT(Formal),2021.2.3,Win32,59.88023952,,,,,,,,,,,,,,,e,1,0.4502,,,,,,我的,e,,,0,12,12,1,1,,,,,,,,,,,,,,,,,,,,,,,,,,,,,,,,,,
,,,,,,,,,,,,,,1 陈洋,001,2025-01-02_20h16.19.115,IAT(Formal),2021.2.3,Win32,59.88023952,,,,,,,,,,,,,,,i,1,0.428,,,,,,其他,i,,,0,13,13,79,1,,,,,,,,,,,,,,,,,,,,,,,,,,,,,,,,,,
,,,,,,,,,,,,,,1 陈洋,001,2025-01-02_20h16.19.115,IAT(Formal),2021.2.3,Win32,59.88023952,,,,,,,,,,,,,,,e,1,0.4712,,,,,,诚恳,e,,,0,14,14,29,1,,,,,,,,,,,,,,,,,,,,,,,,,,,,,,,,,,
,,,,,,,,,,,,,,1 陈洋,001,2025-01-02_20h16.19.115,IAT(Formal),2021.2.3,Win32,59.88023952,,,,,,,,,,,,,,,i,1,0.5597,,,,,,他们,i,,,0,15,15,6,1,,,,,,,,,,,,,,,,,,,,,,,,,,,,,,,,,,
,,,,,,,,,,,,,,1 陈洋,001,2025-01-02_20h16.19.115,IAT(Formal),2021.2.3,Win32,59.88023952,,,,,,,,,,,,,,,e,1,0.3562,,,,,,正直,e,,,0,16,16,16,1,,,,,,,,,,,,,,,,,,,,,,,,,,,,,,,,,,
,,,,,,,,,,,,,,1 陈洋,001,2025-01-02_20h16.19.115,IAT(Formal),2021.2.3,Win32,59.88023952,,,,,,,,,,,,,,,i,1,0.5194,,,,,,猖狂,i,,,0,17,17,45,1,,,,,,,,,,,,,,,,,,,,,,,,,,,,,,,,,,
,,,,,,,,,,,,,,1 陈洋,001,2025-01-02_20h16.19.115,IAT(Formal),2021.2.3,Win32,59.88023952,,,,,,,,,,,,,,,e,1,0.5012,,,,,,俺,e,,,0,18,18,64,1,,,,,,,,,,,,,,,,,,,,,,,,,,,,,,,,,,
,,,,,,,,,,,,,,1 陈洋,001,2025-01-02_20h16.19.115,IAT(Formal),2021.2.3,Win32,59.88023952,,,,,,,,,,,,,,,i,1,0.59,,,,,,他的,i,,,0,19,19,57,1,,,,,,,,,,,,,,,,,,,,,,,,,,,,,,,,,,
,,,,,,,,,,,,,,1 陈洋,001,2025-01-02_20h16.19.115,IAT(Formal),2021.2.3,Win32,59.88023952,,,,,,,,,,,,,,,e,1,0.4954,,,,,,聪明,e,,,0,20,20,12,1,,,,,,,,,,,,,,,,,,,,,,,,,,,,,,,,,,
,,,,,,,,,,,,,,1 陈洋,001,2025-01-02_20h16.19.115,IAT(Formal),2021.2.3,Win32,59.88023952,,,,,,,,,,,,,,,e,1,0.571,,,,,,勇敢,e,,,0,21,21,17,1,,,,,,,,,,,,,,,,,,,,,,,,,,,,,,,,,,
,,,,,,,,,,,,,,1 陈洋,001,2025-01-02_20h16.19.115,IAT(Formal),2021.2.3,Win32,59.88023952,,,,,,,,,,,,,,,e,1,0.458,,,,,,我的,e,,,0,22,22,51,1,,,,,,,,,,,,,,,,,,,,,,,,,,,,,,,,,,
,,,,,,,,,,,,,,1 陈洋,001,2025-01-02_20h16.19.115,IAT(Formal),2021.2.3,Win32,59.88023952,,,,,,,,,,,,,,,e,0,0.5181,,,,,,虚伪,i,,,0,23,23,31,1,,,,,,,,,,,,,,,,,,,,,,,,,,,,,,,,,,
,,,,,,,,,,,,,,1 陈洋,001,2025-01-02_20h16.19.115,IAT(Formal),2021.2.3,Win32,59.88023952,,,,,,,,,,,,,,,e,1,0.5292,,,,,,勤奋,e,,,0,24,24,18,1,,,,,,,,,,,,,,,,,,,,,,,,,,,,,,,,,,
,,,,,,,,,,,,,,1 陈洋,001,2025-01-02_20h16.19.115,IAT(Formal),2021.2.3,Win32,59.88023952,,,,,,,,,,,,,,,i,1,0.4257,,,,,,固执,i,,,0,25,25,47,1,,,,,,,,,,,,,,,,,,,,,,,,,,,,,,,,,,
,,,,,,,,,,,,,,1 陈洋,001,2025-01-02_20h16.19.115,IAT(Formal),2021.2.3,Win32,59.88023952,,,,,,,,,,,,,,,e,1,0.4425,,,,,,优秀,e,,,0,26,26,10,1,,,,,,,,,,,,,,,,,,,,,,,,,,,,,,,,,,
,,,,,,,,,,,,,,1 陈洋,001,2025-01-02_20h16.19.115,IAT(Formal),2021.2.3,Win32,59.88023952,,,,,,,,,,,,,,,e,1,0.4562,,,,,,我的,e,,,0,27,27,71,1,,,,,,,,,,,,,,,,,,,,,,,,,,,,,,,,,,
,,,,,,,,,,,,,,1 陈洋,001,2025-01-02_20h16.19.115,IAT(Formal),2021.2.3,Win32,59.88023952,,,,,,,,,,,,,,,i,0,0.5188,,,,,,稳重,e,,,0,28,28,21,1,,,,,,,,,,,,,,,,,,,,,,,,,,,,,,,,,,
,,,,,,,,,,,,,,1 陈洋,001,2025-01-02_20h16.19.115,IAT(Formal),2021.2.3,Win32,59.88023952,,,,,,,,,,,,,,,i,1,0.4999,,,,,,鲁莽,i,,,0,29,29,38,1,,,,,,,,,,,,,,,,,,,,,,,,,,,,,,,,,,
,,,,,,,,,,,,,,1 陈洋,001,2025-01-02_20h16.19.115,IAT(Formal),2021.2.3,Win32,59.88023952,,,,,,,,,,,,,,,i,0,0.4524,,,,,,崇高,e,,,0,30,30,11,1,,,,,,,,,,,,,,,,,,,,,,,,,,,,,,,,,,
,,,,,,,,,,,,,,1 陈洋,001,2025-01-02_20h16.19.115,IAT(Formal),2021.2.3,Win32,59.88023952,,,,,,,,,,,,,,,i,1,0.6239,,,,,,他们,i,,,0,31,31,76,1,,,,,,,,,,,,,,,,,,,,,,,,,,,,,,,,,,
,,,,,,,,,,,,,,1 陈洋,001,2025-01-02_20h16.19.115,IAT(Formal),2021.2.3,Win32,59.88023952,,,,,,,,,,,,,,,i,1,0.5601,,,,,,他,i,,,0,32,32,65,1,,,,,,,,,,,,,,,,,,,,,,,,,,,,,,,,,,
,,,,,,,,,,,,,,1 陈洋,001,2025-01-02_20h16.19.115,IAT(Formal),2021.2.3,Win32,59.88023952,,,,,,,,,,,,,,,i,1,0.511,,,,,,暴躁,i,,,0,33,33,44,1,,,,,,,,,,,,,,,,,,,,,,,,,,,,,,,,,,
,,,,,,,,,,,,,,1 陈洋,001,2025-01-02_20h16.19.115,IAT(Formal),2021.2.3,Win32,59.88023952,,,,,,,,,,,,,,,e,1,0.5107,,,,,,乐观,e,,,0,34,34,14,1,,,,,,,,,,,,,,,,,,,,,,,,,,,,,,,,,,
,,,,,,,,,,,,,,1 陈洋,001,2025-01-02_20h16.19.115,IAT(Formal),2021.2.3,Win32,59.88023952,,,,,,,,,,,,,,,e,1,0.5175,,,,,,俺,e,,,0,35,35,74,1,,,,,,,,,,,,,,,,,,,,,,,,,,,,,,,,,,
,,,,,,,,,,,,,,1 陈洋,001,2025-01-02_20h16.19.115,IAT(Formal),2021.2.3,Win32,59.88023952,,,,,,,,,,,,,,,e,1,0.3968,,,,,,俺,e,,,0,36,36,54,1,,,,,,,,,,,,,,,,,,,,,,,,,,,,,,,,,,
,,,,,,,,,,,,,,1 陈洋,001,2025-01-02_20h16.19.115,IAT(Formal),2021.2.3,Win32,59.88023952,,,,,,,,,,,,,,,i,1,0.5091,,,,,,消极,i,,,0,37,37,35,1,,,,,,,,,,,,,,,,,,,,,,,,,,,,,,,,,,
,,,,,,,,,,,,,,1 陈洋,001,2025-01-02_20h16.19.115,IAT(Formal),2021.2.3,Win32,59.88023952,,,,,,,,,,,,,,,e,1,0.5609,,,,,,自己,e,,,0,38,38,73,1,,,,,,,,,,,,,,,,,,,,,,,,,,,,,,,,,,
,,,,,,,,,,,,,,1 陈洋,001,2025-01-02_20h16.19.115,IAT(Formal),2021.2.3,Win32,59.88023952,,,,,,,,,,,,,,,e,1,0.4937,,,,,,机智,e,,,0,39,39,19,1,,,,,,,,,,,,,,,,,,,,,,,,,,,,,,,,,,
,,,,,,,,,,,,,,1 陈洋,001,2025-01-02_20h16.19.115,IAT(Formal),2021.2.3,Win32,59.88023952,,,,,,,,,,,,,,,e,1,0.4716,,,,,,认真,e,,,0,40,40,20,1,,,,,,,,,,,,,,,,,,,,,,,,,,,,,,,,,,
,,,,,,,,,,,,,,1 陈洋,001,2025-01-02_20h16.19.115,IAT(Formal),2021.2.3,Win32,59.88023952,,,,,,,,,,,,,,,e,0,0.3858,,,,,,愚蠢,i,,,0,41,41,32,1,,,,,,,,,,,,,,,,,,,,,,,,,,,,,,,,,,
,,,,,,,,,,,,,,1 陈洋,001,2025-01-02_20h16.19.115,IAT(Formal),2021.2.3,Win32,59.88023952,,,,,,,,,,,,,,,i,1,0.5338,,,,,,他,i,,,0,42,42,75,1,,,,,,,,,,,,,,,,,,,,,,,,,,,,,,,,,,
,,,,,,,,,,,,,,1 陈洋,001,2025-01-02_20h16.19.115,IAT(Formal),2021.2.3,Win32,59.88023952,,,,,,,,,,,,,,,i,1,0.5715,,,,,,轻率,i,,,0,43,43,48,1,,,,,,,,,,,,,,,,,,,,,,,,,,,,,,,,,,
,,,,,,,,,,,,,,1 陈洋,001,2025-01-02_20h16.19.115,IAT(Formal),2021.2.3,Win32,59.88023952,,,,,,,,,,,,,,,e,1,0.4861,,,,,,我,e,,,0,44,44,0,1,,,,,,,,,,,,,,,,,,,,,,,,,,,,,,,,,,
,,,,,,,,,,,,,,1 陈洋,001,2025-01-02_20h16.19.115,IAT(Formal),2021.2.3,Win32,59.88023952,,,,,,,,,,,,,,,i,1,0.5005,,,,,,凶狠,i,,,0,45,45,42,1,,,,,,,,,,,,,,,,,,,,,,,,,,,,,,,,,,
,,,,,,,,,,,,,,1 陈洋,001,2025-01-02_20h16.19.115,IAT(Formal),2021.2.3,Win32,59.88023952,,,,,,,,,,,,,,,i,1,0.4796,,,,,,他的,i,,,0,46,46,77,1,,,,,,,,,,,,,,,,,,,,,,,,,,,,,,,,,,
,,,,,,,,,,,,,,1 陈洋,001,2025-01-02_20h16.19.115,IAT(Formal),2021.2.3,Win32,59.88023952,,,,,,,,,,,,,,,i,1,0.4856,,,,,,其他,i,,,0,47,47,9,1,,,,,,,,,,,,,,,,,,,,,,,,,,,,,,,,,,
,,,,,,,,,,,,,,1 陈洋,001,2025-01-02_20h16.19.115,IAT(Formal),2021.2.3,Win32,59.88023952,,,,,,,,,,,,,,,i,1,0.8687,,,,,,刻薄,i,,,0,48,48,33,1,,,,,,,,,,,,,,,,,,,,,,,,,,,,,,,,,,
,,,,,,,,,,,,,,1 陈洋,001,2025-01-02_20h16.19.115,IAT(Formal),2021.2.3,Win32,59.88023952,,,,,,,,,,,,,,,e,1,0.5839,,,,,,我,e,,,0,49,49,60,1,,,,,,,,,,,,,,,,,,,,,,,,,,,,,,,,,,
,,,,,,,,,,,,,,1 陈洋,001,2025-01-02_20h16.19.115,IAT(Formal),2021.2.3,Win32,59.88023952,,,,,,,,,,,,,,,i,1,0.5679,,,,,,自私,i,,,0,50,50,43,1,,,,,,,,,,,,,,,,,,,,,,,,,,,,,,,,,,
,,,,,,,,,,,,,,1 陈洋,001,2025-01-02_20h16.19.115,IAT(Formal),2021.2.3,Win32,59.88023952,,,,,,,,,,,,,,,e,1,0.5884,,,,,,细腻,e,,,0,51,51,25,1,,,,,,,,,,,,,,,,,,,,,,,,,,,,,,,,,,
,,,,,,,,,,,,,,1 陈洋,001,2025-01-02_20h16.19.115,IAT(Formal),2021.2.3,Win32,59.88023952,,,,,,,,,,,,,,,e,1,0.4588,,,,,,我,e,,,0,52,52,70,1,,,,,,,,,,,,,,,,,,,,,,,,,,,,,,,,,,
,,,,,,,,,,,,,,1 陈洋,001,2025-01-02_20h16.19.115,IAT(Formal),2021.2.3,Win32,59.88023952,,,,,,,,,,,,,,,e,1,0.9254,,,,,,杰出,e,,,0,53,53,13,1,,,,,,,,,,,,,,,,,,,,,,,,,,,,,,,,,,
,,,,,,,,,,,,,,1 陈洋,001,2025-01-02_20h16.19.115,IAT(Formal),2021.2.3,Win32,59.88023952,,,,,,,,,,,,,,,e,1,0.3938,,,,,,我们,e,,,0,54,54,72,1,,,,,,,,,,,,,,,,,,,,,,,,,,,,,,,,,,
,,,,,,,,,,,,,,1 陈洋,001,2025-01-02_20h16.19.115,IAT(Formal),2021.2.3,Win32,59.88023952,,,,,,,,,,,,,,,i,1,0.485,,,,,,他人,i,,,0,55,55,78,1,,,,,,,,,,,,,,,,,,,,,,,,,,,,,,,,,,
,,,,,,,,,,,,,,1 陈洋,001,2025-01-02_20h16.19.115,IAT(Formal),2021.2.3,Win32,59.88023952,,,,,,,,,,,,,,,e,1,0.4262,,,,,,我的,e,,,0,56,56,61,1,,,,,,,,,,,,,,,,,,,,,,,,,,,,,,,,,,
,,,,,,,,,,,,,,1 陈洋,001,2025-01-02_20h16.19.115,IAT(Formal),2021.2.3,Win32,59.88023952,,,,,,,,,,,,,,,i,1,0.5181,,,,,,野蛮,i,,,0,57,57,46,1,,,,,,,,,,,,,,,,,,,,,,,,,,,,,,,,,,
,,,,,,,,,,,,,,1 陈洋,001,2025-01-02_20h16.19.115,IAT(Formal),2021.2.3,Win32,59.88023952,,,,,,,,,,,,,,,e,1,0.5205,,,,,,自己,e,,,0,58,58,3,1,,,,,,,,,,,,,,,,,,,,,,,,,,,,,,,,,,
,,,,,,,,,,,,,,1 陈洋,001,2025-01-02_20h16.19.115,IAT(Formal),2021.2.3,Win32,59.88023952,,,,,,,,,,,,,,,i,1,0.5082,,,,,,他们,i,,,0,59,59,66,1,,,,,,,,,,,,,,,,,,,,,,,,,,,,,,,,,,
,,,,,,,,,,,,,,1 陈洋,001,2025-01-02_20h16.19.115,IAT(Formal),2021.2.3,Win32,59.88023952,,,,,,,,,,,,,,,i,1,0.6075,,,,,,散漫,i,,,0,60,60,41,1,,,,,,,,,,,,,,,,,,,,,,,,,,,,,,,,,,
,,,,,,,,,,,,,,1 陈洋,001,2025-01-02_20h16.19.115,IAT(Formal),2021.2.3,Win32,59.88023952,,,,,,,,,,,,,,,e,1,0.435,,,,,,俺,e,,,0,61,61,4,1,,,,,,,,,,,,,,,,,,,,,,,,,,,,,,,,,,
,,,,,,,,,,,,,,1 陈洋,001,2025-01-02_20h16.19.115,IAT(Formal),2021.2.3,Win32,59.88023952,,,,,,,,,,,,,,,i,1,0.577,,,,,,他,i,,,0,62,62,55,1,,,,,,,,,,,,,,,,,,,,,,,,,,,,,,,,,,
,,,,,,,,,,,,,,1 陈洋,001,2025-01-02_20h16.19.115,IAT(Formal),2021.2.3,Win32,59.88023952,,,,,,,,,,,,,,,i,1,0.5338,,,,,,悲观,i,,,0,63,63,34,1,,,,,,,,,,,,,,,,,,,,,,,,,,,,,,,,,,
,,,,,,,,,,,,,,1 陈洋,001,2025-01-02_20h16.19.115,IAT(Formal),2021.2.3,Win32,59.88023952,,,,,,,,,,,,,,,i,1,0.5009,,,,,,他人,i,,,0,64,64,68,1,,,,,,,,,,,,,,,,,,,,,,,,,,,,,,,,,,
,,,,,,,,,,,,,,1 陈洋,001,2025-01-02_20h16.19.115,IAT(Formal),2021.2.3,Win32,59.88023952,,,,,,,,,,,,,,,i,1,0.5142,,,,,,执拗,i,,,0,65,65,40,1,,,,,,,,,,,,,,,,,,,,,,,,,,,,,,,,,,
,,,,,,,,,,,,,,1 陈洋,001,2025-01-02_20h16.19.115,IAT(Formal),2021.2.3,Win32,59.88023952,,,,,,,,,,,,,,,i,1,0.5454,,,,,,卑鄙,i,,,0,66,66,30,1,,,,,,,,,,,,,,,,,,,,,,,,,,,,,,,,,,
,,,,,,,,,,,,,,1 陈洋,001,2025-01-02_20h16.19.115,IAT(Formal),2021.2.3,Win32,59.88023952,,,,,,,,,,,,,,,i,1,0.4198,,,,,,傲慢,i,,,0,67,67,37,1,,,,,,,,,,,,,,,,,,,,,,,,,,,,,,,,,,
,,,,,,,,,,,,,,1 陈洋,001,2025-01-02_20h16.19.115,IAT(Formal),2021.2.3,Win32,59.88023952,,,,,,,,,,,,,,,i,1,0.7399,,,,,,他,i,,,0,68,68,5,1,,,,,,,,,,,,,,,,,,,,,,,,,,,,,,,,,,
,,,,,,,,,,,,,,1 陈洋,001,2025-01-02_20h16.19.115,IAT(Formal),2021.2.3,Win32,59.88023952,,,,,,,,,,,,,,,i,0,1.1038,,,,,,无私,e,,,0,69,69,22,1,,,,,,,,,,,,,,,,,,,,,,,,,,,,,,,,,,
,,,,,,,,,,,,,,1 陈洋,001,2025-01-02_20h16.19.115,IAT(Formal),2021.2.3,Win32,59.88023952,,,,,,,,,,,,,,,e,1,1.1297,,,,,,活泼,e,,,0,70,70,28,1,,,,,,,,,,,,,,,,,,,,,,,,,,,,,,,,,,
,,,,,,,,,,,,,,1 陈洋,001,2025-01-02_20h16.19.115,IAT(Formal),2021.2.3,Win32,59.88023952,,,,,,,,,,,,,,,e,1,0.4921,,,,,,自己,e,,,0,71,71,53,1,,,,,,,,,,,,,,,,,,,,,,,,,,,,,,,,,,
,,,,,,,,,,,,,,1 陈洋,001,2025-01-02_20h16.19.115,IAT(Formal),2021.2.3,Win32,59.88023952,,,,,,,,,,,,,,,e,1,0.5061,,,,,,朴实,e,,,0,72,72,24,1,,,,,,,,,,,,,,,,,,,,,,,,,,,,,,,,,,
,,,,,,,,,,,,,,1 陈洋,001,2025-01-02_20h16.19.115,IAT(Formal),2021.2.3,Win32,59.88023952,,,,,,,,,,,,,,,e,1,0.4622,,,,,,热情,e,,,0,73,73,27,1,,,,,,,,,,,,,,,,,,,,,,,,,,,,,,,,,,
,,,,,,,,,,,,,,1 陈洋,001,2025-01-02_20h16.19.115,IAT(Formal),2021.2.3,Win32,59.88023952,,,,,,,,,,,,,,,i,1,0.5506,,,,,,他们,i,,,0,74,74,56,1,,,,,,,,,,,,,,,,,,,,,,,,,,,,,,,,,,
,,,,,,,,,,,,,,1 陈洋,001,2025-01-02_20h16.19.115,IAT(Formal),2021.2.3,Win32,59.88023952,,,,,,,,,,,,,,,e,1,0.5095,,,,,,我们,e,,,0,75,75,62,1,,,,,,,,,,,,,,,,,,,,,,,,,,,,,,,,,,
,,,,,,,,,,,,,,1 陈洋,001,2025-01-02_20h16.19.115,IAT(Formal),2021.2.3,Win32,59.88023952,,,,,,,,,,,,,,,e,1,0.4076,,,,,,我,e,,,0,76,76,50,1,,,,,,,,,,,,,,,,,,,,,,,,,,,,,,,,,,
,,,,,,,,,,,,,,1 陈洋,001,2025-01-02_20h16.19.115,IAT(Formal),2021.2.3,Win32,59.88023952,,,,,,,,,,,,,,,i,0,0.4666,,,,,,冷静,e,,,0,77,77,26,1,,,,,,,,,,,,,,,,,,,,,,,,,,,,,,,,,,
,,,,,,,,,,,,,,1 陈洋,001,2025-01-02_20h16.19.115,IAT(Formal),2021.2.3,Win32,59.88023952,,,,,,,,,,,,,,,e,1,0.4255,,,,,,公正,e,,,0,78,78,23,1,,,,,,,,,,,,,,,,,,,,,,,,,,,,,,,,,,
,,,,,,,,,,,,,,1 陈洋,001,2025-01-02_20h16.19.115,IAT(Formal),2021.2.3,Win32,59.88023952,,,,,,,,,,,,,,,e,1,0.4373,,,,,,诚实,e,,,0,79,79,15,1,,,,,,,,,,,,,,,,,,,,,,,,,,,,,,,,,,
,,,,,,,,,,,,,,1 陈洋,001,2025-01-02_20h16.19.115,IAT(Formal),2021.2.3,Win32,59.88023952,,,,,,,,,,,,,,,e,1,0.4506,,,,,,自己,e,,,1,0,80,3,1,,,,,,,,,,,,,,,,,,,,,,,,,,,,,,,,,,
,,,,,,,,,,,,,,1 陈洋,001,2025-01-02_20h16.19.115,IAT(Formal),2021.2.3,Win32,59.88023952,,,,,,,,,,,,,,,i,1,0.5589,,,,,,愚蠢,i,,,1,1,81,32,1,,,,,,,,,,,,,,,,,,,,,,,,,,,,,,,,,,
,,,,,,,,,,,,,,1 陈洋,001,2025-01-02_20h16.19.115,IAT(Formal),2021.2.3,Win32,59.88023952,,,,,,,,,,,,,,,e,1,0.4389,,,,,,我们,e,,,1,2,82,72,1,,,,,,,,,,,,,,,,,,,,,,,,,,,,,,,,,,
,,,,,,,,,,,,,,1 陈洋,001,2025-01-02_20h16.19.115,IAT(Formal),2021.2.3,Win32,59.88023952,,,,,,,,,,,,,,,i,1,0.7174,,,,,,他,i,,,1,3,83,5,1,,,,,,,,,,,,,,,,,,,,,,,,,,,,,,,,,,
,,,,,,,,,,,,,,1 陈洋,001,2025-01-02_20h16.19.115,IAT(Formal),2021.2.3,Win32,59.88023952,,,,,,,,,,,,,,,e,1,0.537,,,,,,俺,e,,,1,4,84,4,1,,,,,,,,,,,,,,,,,,,,,,,,,,,,,,,,,,
,,,,,,,,,,,,,,1 陈洋,001,2025-01-02_20h16.19.115,IAT(Formal),2021.2.3,Win32,59.88023952,,,,,,,,,,,,,,,e,1,0.5357,,,,,,勇敢,e,,,1,5,85,17,1,,,,,,,,,,,,,,,,,,,,,,,,,,,,,,,,,,
,,,,,,,,,,,,,,1 陈洋,001,2025-01-02_20h16.19.115,IAT(Formal),2021.2.3,Win32,59.88023952,,,,,,,,,,,,,,,e,1,0.3886,,,,,,热情,e,,,1,6,86,27,1,,,,,,,,,,,,,,,,,,,,,,,,,,,,,,,,,,
,,,,,,,,,,,,,,1 陈洋,001,2025-01-02_20h16.19.115,IAT(Formal),2021.2.3,Win32,59.88023952,,,,,,,,,,,,,,,e,1,0.434,,,,,,我们,e,,,1,7,87,52,1,,,,,,,,,,,,,,,,,,,,,,,,,,,,,,,,,,
,,,,,,,,,,,,,,1 陈洋,001,2025-01-02_20h16.19.115,IAT(Formal),2021.2.3,Win32,59.88023952,,,,,,,,,,,,,,,i,1,0.5682,,,,,,他的,i,,,1,8,88,77,1,,,,,,,,,,,,,,,,,,,,,,,,,,,,,,,,,,
,,,,,,,,,,,,,,1 陈洋,001,2025-01-02_20h16.19.115,IAT(Formal),2021.2.3,Win32,59.88023952,,,,,,,,,,,,,,,e,1,0.4889,,,,,,机智,e,,,1,9,89,19,1,,,,,,,,,,,,,,,,,,,,,,,,,,,,,,,,,,
,,,,,,,,,,,,,,1 陈洋,001,2025-01-02_20h16.19.115,IAT(Formal),2021.2.3,Win32,59.88023952,,,,,,,,,,,,,,,i,1,0.5672,,,,,,刻薄,i,,,1,10,90,33,1,,,,,,,,,,,,,,,,,,,,,,,,,,,,,,,,,,
,,,,,,,,,,,,,,1 陈洋,001,2025-01-02_20h16.19.115,IAT(Formal),2021.2.3,Win32,59.88023952,,,,,,,,,,,,,,,i,1,0.5342,,,,,,凶狠,i,,,1,11,91,42,1,,,,,,,,,,,,,,,,,,,,,,,,,,,,,,,,,,
,,,,,,,,,,,,,,1 陈洋,001,2025-01-02_20h16.19.115,IAT(Formal),2021.2.3,Win32,59.88023952,,,,,,,,,,,,,,,i,1,0.6008,,,,,,他们,i,,,1,12,92,56,1,,,,,,,,,,,,,,,,,,,,,,,,,,,,,,,,,,
,,,,,,,,,,,,,,1 陈洋,001,2025-01-02_20h16.19.115,IAT(Formal),2021.2.3,Win32,59.88023952,,,,,,,,,,,,,,,e,1,0.4836,,,,,,正直,e,,,1,13,93,16,1,,,,,,,,,,,,,,,,,,,,,,,,,,,,,,,,,,
,,,,,,,,,,,,,,1 陈洋,001,2025-01-02_20h16.19.115,IAT(Formal),2021.2.3,Win32,59.88023952,,,,,,,,,,,,,,,e,0,0.3845,,,,,,他的,i,,,1,14,94,7,1,,,,,,,,,,,,,,,,,,,,,,,,,,,,,,,,,,
,,,,,,,,,,,,,,1 陈洋,001,2025-01-02_20h16.19.115,IAT(Formal),2021.2.3,Win32,59.88023952,,,,,,,,,,,,,,,i,1,0.4172,,,,,,他,i,,,1,15,95,65,1,,,,,,,,,,,,,,,,,,,,,,,,,,,,,,,,,,
,,,,,,,,,,,,,,1 陈洋,001,2025-01-02_20h16.19.115,IAT(Formal),2021.2.3,Win32,59.88023952,,,,,,,,,,,,,,,e,1,0.5508,,,,,,冷静,e,,,1,16,96,26,1,,,,,,,,,,,,,,,,,,,,,,,,,,,,,,,,,,
,,,,,,,,,,,,,,1 陈洋,001,2025-01-02_20h16.19.115,IAT(Formal),2021.2.3,Win32,59.88023952,,,,,,,,,,,,,,,i,1,0.5096,,,,,,他人,i,,,1,17,97,78,1,,,,,,,,,,,,,,,,,,,,,,,,,,,,,,,,,,
,,,,,,,,,,,,,,1 陈洋,001,2025-01-02_20h16.19.115,IAT(Formal),2021.2.3,Win32,59.88023952,,,,,,,,,,,,,,,i,1,0.5692,,,,,,自卑,i,,,1,18,98,36,1,,,,,,,,,,,,,,,,,,,,,,,,,,,,,,,,,,
,,,,,,,,,,,,,,1 陈洋,001,2025-01-02_20h16.19.115,IAT(Formal),2021.2.3,Win32,59.88023952,,,,,,,,,,,,,,,e,1,0.6388,,,,,,细腻,e,,,1,19,99,25,1,,,,,,,,,,,,,,,,,,,,,,,,,,,,,,,,,,
,,,,,,,,,,,,,,1 陈洋,001,2025-01-02_20h16.19.115,IAT(Formal),2021.2.3,Win32,59.88023952,,,,,,,,,,,,,,,e,1,0.667,,,,,,自己,e,,,1,20,100,63,1,,,,,,,,,,,,,,,,,,,,,,,,,,,,,,,,,,
,,,,,,,,,,,,,,1 陈洋,001,2025-01-02_20h16.19.115,IAT(Formal),2021.2.3,Win32,59.88023952,,,,,,,,,,,,,,,e,1,0.5272,,,,,,勤奋,e,,,1,21,101,18,1,,,,,,,,,,,,,,,,,,,,,,,,,,,,,,,,,,
,,,,,,,,,,,,,,1 陈洋,001,2025-01-02_20h16.19.115,IAT(Formal),2021.2.3,Win32,59.88023952,,,,,,,,,,,,,,,i,1,0.4849,,,,,,悲观,i,,,1,22,102,34,1,,,,,,,,,,,,,,,,,,,,,,,,,,,,,,,,,,
,,,,,,,,,,,,,,1 陈洋,001,2025-01-02_20h16.19.115,IAT(Formal),2021.2.3,Win32,59.88023952,,,,,,,,,,,,,,,i,1,0.5172,,,,,,他们,i,,,1,23,103,66,1,,,,,,,,,,,,,,,,,,,,,,,,,,,,,,,,,,
,,,,,,,,,,,,,,1 陈洋,001,2025-01-02_20h16.19.115,IAT(Formal),2021.2.3,Win32,59.88023952,,,,,,,,,,,,,,,i,1,0.4515,,,,,,卑鄙,i,,,1,24,104,30,1,,,,,,,,,,,,,,,,,,,,,,,,,,,,,,,,,,
,,,,,,,,,,,,,,1 陈洋,001,2025-01-02_20h16.19.115,IAT(Formal),2021.2.3,Win32,59.88023952,,,,,,,,,,,,,,,i,1,0.5004,,,,,,猖狂,i,,,1,25,105,45,1,,,,,,,,,,,,,,,,,,,,,,,,,,,,,,,,,,
,,,,,,,,,,,,,,1 陈洋,001,2025-01-02_20h16.19.115,IAT(Formal),2021.2.3,Win32,59.88023952,,,,,,,,,,,,,,,i,1,0.5215,,,,,,消极,i,,,1,26,106,35,1,,,,,,,,,,,,,,,,,,,,,,,,,,,,,,,,,,
,,,,,,,,,,,,,,1 陈洋,001,2025-01-02_20h16.19.115,IAT(Formal),2021.2.3,Win32,59.88023952,,,,,,,,,,,,,,,i,1,0.4166,,,,,,他人,i,,,1,27,107,68,1,,,,,,,,,,,,,,,,,,,,,,,,,,,,,,,,,,
,,,,,,,,,,,,,,1 陈洋,001,2025-01-02_20h16.19.115,IAT(Formal),2021.2.3,Win32,59.88023952,,,,,,,,,,,,,,,i,0,0.5341,,,,,,乐观,e,,,1,28,108,14,1,,,,,,,,,,,,,,,,,,,,,,,,,,,,,,,,,,
,,,,,,,,,,,,,,1 陈洋,001,2025-01-02_20h16.19.115,IAT(Formal),2021.2.3,Win32,59.88023952,,,,,,,,,,,,,,,e,1,0.467,,,,,,自己,e,,,1,29,109,73,1,,,,,,,,,,,,,,,,,,,,,,,,,,,,,,,,,,
,,,,,,,,,,,,,,1 陈洋,001,2025-01-02_20h16.19.115,IAT(Formal),2021.2.3,Win32,59.88023952,,,,,,,,,,,,,,,e,1,0.3846,,,,,,诚实,e,,,1,30,110,15,1,,,,,,,,,,,,,,,,,,,,,,,,,,,,,,,,,,
,,,,,,,,,,,,,,1 陈洋,001,2025-01-02_20h16.19.115,IAT(Formal),2021.2.3,Win32,59.88023952,,,,,,,,,,,,,,,i,1,0.5554,,,,,,他人,i,,,1,31,111,58,1,,,,,,,,,,,,,,,,,,,,,,,,,,,,,,,,,,
,,,,,,,,,,,,,,1 陈洋,001,2025-01-02_20h16.19.115,IAT(Formal),2021.2.3,Win32,59.88023952,,,,,,,,,,,,,,,i,1,0.6366,,,,,,虚伪,i,,,1,32,112,31,1,,,,,,,,,,,,,,,,,,,,,,,,,,,,,,,,,,
,,,,,,,,,,,,,,1 陈洋,001,2025-01-02_20h16.19.115,IAT(Formal),2021.2.3,Win32,59.88023952,,,,,,,,,,,,,,,i,1,0.5008,,,,,,其他,i,,,1,33,113,79,1,,,,,,,,,,,,,,,,,,,,,,,,,,,,,,,,,,
,,,,,,,,,,,,,,1 陈洋,001,2025-01-02_20h16.19.115,IAT(Formal),2021.2.3,Win32,59.88023952,,,,,,,,,,,,,,,e,1,0.4682,,,,,,我们,e,,,1,34,114,2,1,,,,,,,,,,,,,,,,,,,,,,,,,,,,,,,,,,
,,,,,,,,,,,,,,1 陈洋,001,2025-01-02_20h16.19.115,IAT(Formal),2021.2.3,Win32,59.88023952,,,,,,,,,,,,,,,e,1,0.5338,,,,,,认真,e,,,1,35,115,20,1,,,,,,,,,,,,,,,,,,,,,,,,,,,,,,,,,,
,,,,,,,,,,,,,,1 陈洋,001,2025-01-02_20h16.19.115,IAT(Formal),2021.2.3,Win32,59.88023952,,,,,,,,,,,,,,,e,1,0.6547,,,,,,俺,e,,,1,36,116,54,1,,,,,,,,,,,,,,,,,,,,,,,,,,,,,,,,,,
,,,,,,,,,,,,,,1 陈洋,001,2025-01-02_20h16.19.115,IAT(Formal),2021.2.3,Win32,59.88023952,,,,,,,,,,,,,,,i,1,0.5691,,,,,,轻率,i,,,1,37,117,48,1,,,,,,,,,,,,,,,,,,,,,,,,,,,,,,,,,,
,,,,,,,,,,,,,,1 陈洋,001,2025-01-02_20h16.19.115,IAT(Formal),2021.2.3,Win32,59.88023952,,,,,,,,,,,,,,,i,1,0.5112,,,,,,散漫,i,,,1,38,118,41,1,,,,,,,,,,,,,,,,,,,,,,,,,,,,,,,,,,
,,,,,,,,,,,,,,1 陈洋,001,2025-01-02_20h16.19.115,IAT(Formal),2021.2.3,Win32,59.88023952,,,,,,,,,,,,,,,e,1,0.5019,,,,,,自己,e,,,1,39,119,53,1,,,,,,,,,,,,,,,,,,,,,,,,,,,,,,,,,,
,,,,,,,,,,,,,,1 陈洋,001,2025-01-02_20h16.19.115,IAT(Formal),2021.2.3,Win32,59.88023952,,,,,,,,,,,,,,,i,1,0.5384,,,,,,傲慢,i,,,1,40,120,37,1,,,,,,,,,,,,,,,,,,,,,,,,,,,,,,,,,,
,,,,,,,,,,,,,,1 陈洋,001,2025-01-02_20h16.19.115,IAT(Formal),2021.2.3,Win32,59.88023952,,,,,,,,,,,,,,,e,1,0.5134,,,,,,我,e,,,1,41,121,0,1,,,,,,,,,,,,,,,,,,,,,,,,,,,,,,,,,,
,,,,,,,,,,,,,,1 陈洋,001,2025-01-02_20h16.19.115,IAT(Formal),2021.2.3,Win32,59.88023952,,,,,,,,,,,,,,,i,1,0.5437,,,,,,他们,i,,,1,42,122,6,1,,,,,,,,,,,,,,,,,,,,,,,,,,,,,,,,,,
,,,,,,,,,,,,,,1 陈洋,001,2025-01-02_20h16.19.115,IAT(Formal),2021.2.3,Win32,59.88023952,,,,,,,,,,,,,,,i,1,0.7379,,,,,,他,i,,,1,43,123,55,1,,,,,,,,,,,,,,,,,,,,,,,,,,,,,,,,,,
,,,,,,,,,,,,,,1 陈洋,001,2025-01-02_20h16.19.115,IAT(Formal),2021.2.3,Win32,59.88023952,,,,,,,,,,,,,,,e,1,0.4845,,,,,,我,e,,,1,44,124,60,1,,,,,,,,,,,,,,,,,,,,,,,,,,,,,,,,,,
,,,,,,,,,,,,,,1 陈洋,001,2025-01-02_20h16.19.115,IAT(Formal),2021.2.3,Win32,59.88023952,,,,,,,,,,,,,,,i,1,0.5906,,,,,,执拗,i,,,1,45,125,40,1,,,,,,,,,,,,,,,,,,,,,,,,,,,,,,,,,,
,,,,,,,,,,,,,,1 陈洋,001,2025-01-02_20h16.19.115,IAT(Formal),2021.2.3,Win32,59.88023952,,,,,,,,,,,,,,,i,1,0.5755,,,,,,他,i,,,1,46,126,75,1,,,,,,,,,,,,,,,,,,,,,,,,,,,,,,,,,,
,,,,,,,,,,,,,,1 陈洋,001,2025-01-02_20h16.19.115,IAT(Formal),2021.2.3,Win32,59.88023952,,,,,,,,,,,,,,,e,1,0.6005,,,,,,稳重,e,,,1,47,127,21,1,,,,,,,,,,,,,,,,,,,,,,,,,,,,,,,,,,
,,,,,,,,,,,,,,1 陈洋,001,2025-01-02_20h16.19.115,IAT(Formal),2021.2.3,Win32,59.88023952,,,,,,,,,,,,,,,e,1,0.5374,,,,,,崇高,e,,,1,48,128,11,1,,,,,,,,,,,,,,,,,,,,,,,,,,,,,,,,,,
,,,,,,,,,,,,,,1 陈洋,001,2025-01-02_20h16.19.115,IAT(Formal),2021.2.3,Win32,59.88023952,,,,,,,,,,,,,,,i,1,0.5508,,,,,,他人,i,,,1,49,129,8,1,,,,,,,,,,,,,,,,,,,,,,,,,,,,,,,,,,
,,,,,,,,,,,,,,1 陈洋,001,2025-01-02_20h16.19.115,IAT(Formal),2021.2.3,Win32,59.88023952,,,,,,,,,,,,,,,i,1,0.5176,,,,,,鲁莽,i,,,1,50,130,38,1,,,,,,,,,,,,,,,,,,,,,,,,,,,,,,,,,,
,,,,,,,,,,,,,,1 陈洋,001,2025-01-02_20h16.19.115,IAT(Formal),2021.2.3,Win32,59.88023952,,,,,,,,,,,,,,,i,1,0.4927,,,,,,他的,i,,,1,51,131,57,1,,,,,,,,,,,,,,,,,,,,,,,,,,,,,,,,,,
,,,,,,,,,,,,,,1 陈洋,001,2025-01-02_20h16.19.115,IAT(Formal),2021.2.3,Win32,59.88023952,,,,,,,,,,,,,,,i,1,0.4947,,,,,,他的,i,,,1,52,132,67,1,,,,,,,,,,,,,,,,,,,,,,,,,,,,,,,,,,
,,,,,,,,,,,,,,1 陈洋,001,2025-01-02_20h16.19.115,IAT(Formal),2021.2.3,Win32,59.88023952,,,,,,,,,,,,,,,e,1,0.5166,,,,,,优秀,e,,,1,53,133,10,1,,,,,,,,,,,,,,,,,,,,,,,,,,,,,,,,,,
,,,,,,,,,,,,,,1 陈洋,001,2025-01-02_20h16.19.115,IAT(Formal),2021.2.3,Win32,59.88023952,,,,,,,,,,,,,,,i,1,0.5582,,,,,,下贱,i,,,1,54,134,49,1,,,,,,,,,,,,,,,,,,,,,,,,,,,,,,,,,,
,,,,,,,,,,,,,,1 陈洋,001,2025-01-02_20h16.19.115,IAT(Formal),2021.2.3,Win32,59.88023952,,,,,,,,,,,,,,,i,1,0.4514,,,,,,其他,i,,,1,55,135,59,1,,,,,,,,,,,,,,,,,,,,,,,,,,,,,,,,,,
,,,,,,,,,,,,,,1 陈洋,001,2025-01-02_20h16.19.115,IAT(Formal),2021.2.3,Win32,59.88023952,,,,,,,,,,,,,,,i,1,0.5249,,,,,,固执,i,,,1,56,136,47,1,,,,,,,,,,,,,,,,,,,,,,,,,,,,,,,,,,
,,,,,,,,,,,,,,1 陈洋,001,2025-01-02_20h16.19.115,IAT(Formal),2021.2.3,Win32,59.88023952,,,,,,,,,,,,,,,e,1,0.7999,,,,,,我的,e,,,1,57,137,71,1,,,,,,,,,,,,,,,,,,,,,,,,,,,,,,,,,,
,,,,,,,,,,,,,,1 陈洋,001,2025-01-02_20h16.19.115,IAT(Formal),2021.2.3,Win32,59.88023952,,,,,,,,,,,,,,,e,1,0.637,,,,,,活泼,e,,,1,58,138,28,1,,,,,,,,,,,,,,,,,,,,,,,,,,,,,,,,,,
,,,,,,,,,,,,,,1 陈洋,001,2025-01-02_20h16.19.115,IAT(Formal),2021.2.3,Win32,59.88023952,,,,,,,,,,,,,,,e,1,0.5502,,,,,,朴实,e,,,1,59,139,24,1,,,,,,,,,,,,,,,,,,,,,,,,,,,,,,,,,,
,,,,,,,,,,,,,,1 陈洋,001,2025-01-02_20h16.19.115,IAT(Formal),2021.2.3,Win32,59.88023952,,,,,,,,,,,,,,,i,1,0.5169,,,,,,其他,i,,,1,60,140,9,1,,,,,,,,,,,,,,,,,,,,,,,,,,,,,,,,,,
,,,,,,,,,,,,,,1 陈洋,001,2025-01-02_20h16.19.115,IAT(Formal),2021.2.3,Win32,59.88023952,,,,,,,,,,,,,,,i,1,0.5601,,,,,,野蛮,i,,,1,61,141,46,1,,,,,,,,,,,,,,,,,,,,,,,,,,,,,,,,,,
,,,,,,,,,,,,,,1 陈洋,001,2025-01-02_20h16.19.115,IAT(Formal),2021.2.3,Win32,59.88023952,,,,,,,,,,,,,,,e,1,0.6671,,,,,,聪明,e,,,1,62,142,12,1,,,,,,,,,,,,,,,,,,,,,,,,,,,,,,,,,,
,,,,,,,,,,,,,,1 陈洋,001,2025-01-02_20h16.19.115,IAT(Formal),2021.2.3,Win32,59.88023952,,,,,,,,,,,,,,,e,1,0.5889,,,,,,公正,e,,,1,63,143,23,1,,,,,,,,,,,,,,,,,,,,,,,,,,,,,,,,,,
,,,,,,,,,,,,,,1 陈洋,001,2025-01-02_20h16.19.115,IAT(Formal),2021.2.3,Win32,59.88023952,,,,,,,,,,,,,,,i,1,0.5839,,,,,,暴躁,i,,,1,64,144,44,1,,,,,,,,,,,,,,,,,,,,,,,,,,,,,,,,,,
,,,,,,,,,,,,,,1 陈洋,001,2025-01-02_20h16.19.115,IAT(Formal),2021.2.3,Win32,59.88023952,,,,,,,,,,,,,,,e,1,0.7127,,,,,,我的,e,,,1,65,145,1,1,,,,,,,,,,,,,,,,,,,,,,,,,,,,,,,,,,
,,,,,,,,,,,,,,1 陈洋,001,2025-01-02_20h16.19.115,IAT(Formal),2021.2.3,Win32,59.88023952,,,,,,,,,,,,,,,e,1,0.4007,,,,,,我的,e,,,1,66,146,61,1,,,,,,,,,,,,,,,,,,,,,,,,,,,,,,,,,,
,,,,,,,,,,,,,,1 陈洋,001,2025-01-02_20h16.19.115,IAT(Formal),2021.2.3,Win32,59.88023952,,,,,,,,,,,,,,,e,1,0.4153,,,,,,俺,e,,,1,67,147,74,1,,,,,,,,,,,,,,,,,,,,,,,,,,,,,,,,,,
,,,,,,,,,,,,,,1 陈洋,001,2025-01-02_20h16.19.115,IAT(Formal),2021.2.3,Win32,59.88023952,,,,,,,,,,,,,,,e,0,0.4154,,,,,,其他,i,,,1,68,148,69,1,,,,,,,,,,,,,,,,,,,,,,,,,,,,,,,,,,
,,,,,,,,,,,,,,1 陈洋,001,2025-01-02_20h16.19.115,IAT(Formal),2021.2.3,Win32,59.88023952,,,,,,,,,,,,,,,e,1,0.4827,,,,,,我的,e,,,1,69,149,51,1,,,,,,,,,,,,,,,,,,,,,,,,,,,,,,,,,,
,,,,,,,,,,,,,,1 陈洋,001,2025-01-02_20h16.19.115,IAT(Formal),2021.2.3,Win32,59.88023952,,,,,,,,,,,,,,,e,1,0.4729,,,,,,我,e,,,1,70,150,70,1,,,,,,,,,,,,,,,,,,,,,,,,,,,,,,,,,,
,,,,,,,,,,,,,,1 陈洋,001,2025-01-02_20h16.19.115,IAT(Formal),2021.2.3,Win32,59.88023952,,,,,,,,,,,,,,,e,1,0.4735,,,,,,我,e,,,1,71,151,50,1,,,,,,,,,,,,,,,,,,,,,,,,,,,,,,,,,,
,,,,,,,,,,,,,,1 陈洋,001,2025-01-02_20h16.19.115,IAT(Formal),2021.2.3,Win32,59.88023952,,,,,,,,,,,,,,,e,1,0.846,,,,,,无私,e,,,1,72,152,22,1,,,,,,,,,,,,,,,,,,,,,,,,,,,,,,,,,,
,,,,,,,,,,,,,,1 陈洋,001,2025-01-02_20h16.19.115,IAT(Formal),2021.2.3,Win32,59.88023952,,,,,,,,,,,,,,,i,1,0.4754,,,,,,冒失,i,,,1,73,153,39,1,,,,,,,,,,,,,,,,,,,,,,,,,,,,,,,,,,
,,,,,,,,,,,,,,1 陈洋,001,2025-01-02_20h16.19.115,IAT(Formal),2021.2.3,Win32,59.88023952,,,,,,,,,,,,,,,e,1,0.4448,,,,,,我们,e,,,1,74,154,62,1,,,,,,,,,,,,,,,,,,,,,,,,,,,,,,,,,,
,,,,,,,,,,,,,,1 陈洋,001,2025-01-02_20h16.19.115,IAT(Formal),2021.2.3,Win32,59.88023952,,,,,,,,,,,,,,,e,1,0.4502,,,,,,诚恳,e,,,1,75,155,29,1,,,,,,,,,,,,,,,,,,,,,,,,,,,,,,,,,,
,,,,,,,,,,,,,,1 陈洋,001,2025-01-02_20h16.19.115,IAT(Formal),2021.2.3,Win32,59.88023952,,,,,,,,,,,,,,,i,1,0.5998,,,,,,他们,i,,,1,76,156,76,1,,,,,,,,,,,,,,,,,,,,,,,,,,,,,,,,,,
,,,,,,,,,,,,,,1 陈洋,001,2025-01-02_20h16.19.115,IAT(Formal),2021.2.3,Win32,59.88023952,,,,,,,,,,,,,,,i,1,1.022,,,,,,自私,i,,,1,77,157,43,1,,,,,,,,,,,,,,,,,,,,,,,,,,,,,,,,,,
,,,,,,,,,,,,,,1 陈洋,001,2025-01-02_20h16.19.115,IAT(Formal),2021.2.3,Win32,59.88023952,,,,,,,,,,,,,,,e,1,0.5846,,,,,,俺,e,,,1,78,158,64,1,,,,,,,,,,,,,,,,,,,,,,,,,,,,,,,,,,
,,,,,,,,,,,,,,1 陈洋,001,2025-01-02_20h16.19.115,IAT(Formal),2021.2.3,Win32,59.88023952,,,,,,,,,,,,,,,e,1,0.5983,,,,,,杰出,e,,,1,79,159,13,1,,,,,,,,,,,,,,,,,,,,,,,,,,,,,,,,,,
,,,,,,,,,,,,自己,i,1 陈洋,001,2025-01-02_20h16.19.115,IAT(Formal),2021.2.3,Win32,59.88023952,,,,,,,,,,,,,,,,,,,,,,,,,,,,,,,,space,75.7858,i,1,0.9626,0,0,0,3,1,,,,,,,,,,,,,,,,,,,,,,,,
,,,,,,,,,,,,他,e,1 陈洋,001,2025-01-02_20h16.19.115,IAT(Formal),2021.2.3,Win32,59.88023952,,,,,,,,,,,,,,,,,,,,,,,,,,,,,,,,,,e,1,1.2291,0,1,1,5,1,,,,,,,,,,,,,,,,,,,,,,,,
,,,,,,,,,,,,他人,e,1 陈洋,001,2025-01-02_20h16.19.115,IAT(Formal),2021.2.3,Win32,59.88023952,,,,,,,,,,,,,,,,,,,,,,,,,,,,,,,,,,e,1,1.0183,0,2,2,8,1,,,,,,,,,,,,,,,,,,,,,,,,
,,,,,,,,,,,,俺,i,1 陈洋,001,2025-01-02_20h16.19.115,IAT(Formal),2021.2.3,Win32,59.88023952,,,,,,,,,,,,,,,,,,,,,,,,,,,,,,,,,,i,1,0.6664,0,3,3,4,1,,,,,,,,,,,,,,,,,,,,,,,,
,,,,,,,,,,,,他的,e,1 陈洋,001,2025-01-02_20h16.19.115,IAT(Formal),2021.2.3,Win32,59.88023952,,,,,,,,,,,,,,,,,,,,,,,,,,,,,,,,,,e,1,1.2343,0,4,4,7,1,,,,,,,,,,,,,,,,,,,,,,,,
,,,,,,,,,,,,其他,e,1 陈洋,001,2025-01-02_20h16.19.115,IAT(Formal),2021.2.3,Win32,59.88023952,,,,,,,,,,,,,,,,,,,,,,,,,,,,,,,,,,e,1,1.4434,0,5,5,9,1,,,,,,,,,,,,,,,,,,,,,,,,
,,,,,,,,,,,,我的,i,1 陈洋,001,2025-01-02_20h16.19.115,IAT(Formal),2021.2.3,Win32,59.88023952,,,,,,,,,,,,,,,,,,,,,,,,,,,,,,,,,,i,1,1.2373,0,6,6,1,1,,,,,,,,,,,,,,,,,,,,,,,,
,,,,,,,,,,,,我,i,1 陈洋,001,2025-01-02_20h16.19.115,IAT(Formal),2021.2.3,Win32,59.88023952,,,,,,,,,,,,,,,,,,,,,,,,,,,,,,,,,,i,1,1.1015,0,7,7,0,1,,,,,,,,,,,,,,,,,,,,,,,,
,,,,,,,,,,,,我们,i,1 陈洋,001,2025-01-02_20h16.19.115,IAT(Formal),2021.2.3,Win32,59.88023952,,,,,,,,,,,,,,,,,,,,,,,,,,,,,,,,,,i,1,0.9137,0,8,8,2,1,,,,,,,,,,,,,,,,,,,,,,,,
,,,,,,,,,,,,他们,e,1 陈洋,001,2025-01-02_20h16.19.115,IAT(Formal),2021.2.3,Win32,59.88023952,,,,,,,,,,,,,,,,,,,,,,,,,,,,,,,,,,,0,,0,9,9,6,1,,,,,,,,,,,,,,,,,,,,,,,,
,,,,,,,,,,,,,,1 陈洋,001,2025-01-02_20h16.19.115,IAT(Formal),2021.2.3,Win32,59.88023952,,,,,,,,,,,,,,,,,,,,,,,,,,,,,,,,,,,,,,,,,,space,26.9658,i,0,1.3335,0,0,0,15,1,诚实,e,,,,,,,,,,,,
,,,,,,,,,,,,,,1 陈洋,001,2025-01-02_20h16.19.115,IAT(Formal),2021.2.3,Win32,59.88023952,,,,,,,,,,,,,,,,,,,,,,,,,,,,,,,,,,,,,,,,,,,,,0,,0,1,1,1,1,我的,i,,,,,,,,,,,,
,,,,,,,,,,,,,,1 陈洋,001,2025-01-02_20h16.19.115,IAT(Formal),2021.2.3,Win32,59.88023952,,,,,,,,,,,,,,,,,,,,,,,,,,,,,,,,,,,,,,,,,,,,e,1,0.3202,0,2,2,7,1,他的,e,,,,,,,,,,,,
,,,,,,,,,,,,,,1 陈洋,001,2025-01-02_20h16.19.115,IAT(Formal),2021.2.3,Win32,59.88023952,,,,,,,,,,,,,,,,,,,,,,,,,,,,,,,,,,,,,,,,,,,,i,1,0.8487,0,3,3,51,1,我的,i,,,,,,,,,,,,
,,,,,,,,,,,,,,1 陈洋,001,2025-01-02_20h16.19.115,IAT(Formal),2021.2.3,Win32,59.88023952,,,,,,,,,,,,,,,,,,,,,,,,,,,,,,,,,,,,,,,,,,,,i,1,0.4471,0,4,4,0,1,我,i,,,,,,,,,,,,
,,,,,,,,,,,,,,1 陈洋,001,2025-01-02_20h16.19.115,IAT(Formal),2021.2.3,Win32,59.88023952,,,,,,,,,,,,,,,,,,,,,,,,,,,,,,,,,,,,,,,,,,,,e,0,0.6872,0,5,5,46,1,野蛮,i,,,,,,,,,,,,
,,,,,,,,,,,,,,1 陈洋,001,2025-01-02_20h16.19.115,IAT(Formal),2021.2.3,Win32,59.88023952,,,,,,,,,,,,,,,,,,,,,,,,,,,,,,,,,,,,,,,,,,,,i,1,0.794,0,6,6,35,1,消极,i,,,,,,,,,,,,
,,,,,,,,,,,,,,1 陈洋,001,2025-01-02_20h16.19.115,IAT(Formal),2021.2.3,Win32,59.88023952,,,,,,,,,,,,,,,,,,,,,,,,,,,,,,,,,,,,,,,,,,,,e,1,0.6393,0,7,7,23,1,公正,e,,,,,,,,,,,,
,,,,,,,,,,,,,,1 陈洋,001,2025-01-02_20h16.19.115,IAT(Formal),2021.2.3,Win32,59.88023952,,,,,,,,,,,,,,,,,,,,,,,,,,,,,,,,,,,,,,,,,,,,e,1,0.4991,0,8,8,16,1,正直,e,,,,,,,,,,,,
,,,,,,,,,,,,,,1 陈洋,001,2025-01-02_20h16.19.115,IAT(Formal),2021.2.3,Win32,59.88023952,,,,,,,,,,,,,,,,,,,,,,,,,,,,,,,,,,,,,,,,,,,,e,1,0.5592,0,9,9,11,1,崇高,e,,,,,,,,,,,,
,,,,,,,,,,,,,,1 陈洋,001,2025-01-02_20h16.19.115,IAT(Formal),2021.2.3,Win32,59.88023952,,,,,,,,,,,,,,,,,,,,,,,,,,,,,,,,,,,,,,,,,,,,i,0,0.5076,0,10,10,59,1,其他,e,,,,,,,,,,,,
,,,,,,,,,,,,,,1 陈洋,001,2025-01-02_20h16.19.115,IAT(Formal),2021.2.3,Win32,59.88023952,,,,,,,,,,,,,,,,,,,,,,,,,,,,,,,,,,,,,,,,,,,,e,1,0.643,0,11,11,66,1,他们,e,,,,,,,,,,,,
,,,,,,,,,,,,,,1 陈洋,001,2025-01-02_20h16.19.115,IAT(Formal),2021.2.3,Win32,59.88023952,,,,,,,,,,,,,,,,,,,,,,,,,,,,,,,,,,,,,,,,,,,,i,1,0.674,0,12,12,50,1,我,i,,,,,,,,,,,,
,,,,,,,,,,,,,,1 陈洋,001,2025-01-02_20h16.19.115,IAT(Formal),2021.2.3,Win32,59.88023952,,,,,,,,,,,,,,,,,,,,,,,,,,,,,,,,,,,,,,,,,,,,i,1,0.8181,0,13,13,74,1,俺,i,,,,,,,,,,,,
,,,,,,,,,,,,,,1 陈洋,001,2025-01-02_20h16.19.115,IAT(Formal),2021.2.3,Win32,59.88023952,,,,,,,,,,,,,,,,,,,,,,,,,,,,,,,,,,,,,,,,,,,,e,1,0.5683,0,14,14,20,1,认真,e,,,,,,,,,,,,
,,,,,,,,,,,,,,1 陈洋,001,2025-01-02_20h16.19.115,IAT(Formal),2021.2.3,Win32,59.88023952,,,,,,,,,,,,,,,,,,,,,,,,,,,,,,,,,,,,,,,,,,,,e,1,0.533,0,15,15,78,1,他人,e,,,,,,,,,,,,
,,,,,,,,,,,,,,1 陈洋,001,2025-01-02_20h16.19.115,IAT(Formal),2021.2.3,Win32,59.88023952,,,,,,,,,,,,,,,,,,,,,,,,,,,,,,,,,,,,,,,,,,,,e,1,0.5004,0,16,16,10,1,优秀,e,,,,,,,,,,,,
,,,,,,,,,,,,,,1 陈洋,001,2025-01-02_20h16.19.115,IAT(Formal),2021.2.3,Win32,59.88023952,,,,,,,,,,,,,,,,,,,,,,,,,,,,,,,,,,,,,,,,,,,,e,1,0.5151,0,17,17,13,1,杰出,e,,,,,,,,,,,,
,,,,,,,,,,,,,,1 陈洋,001,2025-01-02_20h16.19.115,IAT(Formal),2021.2.3,Win32,59.88023952,,,,,,,,,,,,,,,,,,,,,,,,,,,,,,,,,,,,,,,,,,,,i,1,0.5166,0,18,18,41,1,散漫,i,,,,,,,,,,,,
,,,,,,,,,,,,,,1 陈洋,001,2025-01-02_20h16.19.115,IAT(Formal),2021.2.3,Win32,59.88023952,,,,,,,,,,,,,,,,,,,,,,,,,,,,,,,,,,,,,,,,,,,,e,1,0.9401,0,19,19,79,1,其他,e,,,,,,,,,,,,
,,,,,,,,,,,,,,1 陈洋,001,2025-01-02_20h16.19.115,IAT(Formal),2021.2.3,Win32,59.88023952,,,,,,,,,,,,,,,,,,,,,,,,,,,,,,,,,,,,,,,,,,,,e,1,0.9391,0,20,20,67,1,他的,e,,,,,,,,,,,,
,,,,,,,,,,,,,,1 陈洋,001,2025-01-02_20h16.19.115,IAT(Formal),2021.2.3,Win32,59.88023952,,,,,,,,,,,,,,,,,,,,,,,,,,,,,,,,,,,,,,,,,,,,e,0,0.8147,0,21,21,47,1,固执,i,,,,,,,,,,,,
,,,,,,,,,,,,,,1 陈洋,001,2025-01-02_20h16.19.115,IAT(Formal),2021.2.3,Win32,59.88023952,,,,,,,,,,,,,,,,,,,,,,,,,,,,,,,,,,,,,,,,,,,,i,1,0.5193,0,22,22,63,1,自己,i,,,,,,,,,,,,
,,,,,,,,,,,,,,1 陈洋,001,2025-01-02_20h16.19.115,IAT(Formal),2021.2.3,Win32,59.88023952,,,,,,,,,,,,,,,,,,,,,,,,,,,,,,,,,,,,,,,,,,,,i,1,0.3969,0,23,23,30,1,卑鄙,i,,,,,,,,,,,,
,,,,,,,,,,,,,,1 陈洋,001,2025-01-02_20h16.19.115,IAT(Formal),2021.2.3,Win32,59.88023952,,,,,,,,,,,,,,,,,,,,,,,,,,,,,,,,,,,,,,,,,,,,i,1,0.4977,0,24,24,45,1,猖狂,i,,,,,,,,,,,,
,,,,,,,,,,,,,,1 陈洋,001,2025-01-02_20h16.19.115,IAT(Formal),2021.2.3,Win32,59.88023952,,,,,,,,,,,,,,,,,,,,,,,,,,,,,,,,,,,,,,,,,,,,i,1,0.4812,0,25,25,42,1,凶狠,i,,,,,,,,,,,,
,,,,,,,,,,,,,,1 陈洋,001,2025-01-02_20h16.19.115,IAT(Formal),2021.2.3,Win32,59.88023952,,,,,,,,,,,,,,,,,,,,,,,,,,,,,,,,,,,,,,,,,,,,e,1,0.6926,0,26,26,28,1,活泼,e,,,,,,,,,,,,
,,,,,,,,,,,,,,1 陈洋,001,2025-01-02_20h16.19.115,IAT(Formal),2021.2.3,Win32,59.88023952,,,,,,,,,,,,,,,,,,,,,,,,,,,,,,,,,,,,,,,,,,,,e,1,0.8198,0,27,27,21,1,稳重,e,,,,,,,,,,,,
,,,,,,,,,,,,,,1 陈洋,001,2025-01-02_20h16.19.115,IAT(Formal),2021.2.3,Win32,59.88023952,,,,,,,,,,,,,,,,,,,,,,,,,,,,,,,,,,,,,,,,,,,,e,1,0.5312,0,28,28,14,1,乐观,e,,,,,,,,,,,,
,,,,,,,,,,,,,,1 陈洋,001,2025-01-02_20h16.19.115,IAT(Formal),2021.2.3,Win32,59.88023952,,,,,,,,,,,,,,,,,,,,,,,,,,,,,,,,,,,,,,,,,,,,i,1,0.5531,0,29,29,72,1,我们,i,,,,,,,,,,,,
,,,,,,,,,,,,,,1 陈洋,001,2025-01-02_20h16.19.115,IAT(Formal),2021.2.3,Win32,59.88023952,,,,,,,,,,,,,,,,,,,,,,,,,,,,,,,,,,,,,,,,,,,,i,1,0.5161,0,30,30,62,1,我们,i,,,,,,,,,,,,
,,,,,,,,,,,,,,1 陈洋,001,2025-01-02_20h16.19.115,IAT(Formal),2021.2.3,Win32,59.88023952,,,,,,,,,,,,,,,,,,,,,,,,,,,,,,,,,,,,,,,,,,,,i,1,0.3989,0,31,31,60,1,我,i,,,,,,,,,,,,
,,,,,,,,,,,,,,1 陈洋,001,2025-01-02_20h16.19.115,IAT(Formal),2021.2.3,Win32,59.88023952,,,,,,,,,,,,,,,,,,,,,,,,,,,,,,,,,,,,,,,,,,,,i,0,0.766,0,32,32,19,1,机智,e,,,,,,,,,,,,
,,,,,,,,,,,,,,1 陈洋,001,2025-01-02_20h16.19.115,IAT(Formal),2021.2.3,Win32,59.88023952,,,,,,,,,,,,,,,,,,,,,,,,,,,,,,,,,,,,,,,,,,,,i,1,0.5998,0,33,33,33,1,刻薄,i,,,,,,,,,,,,
,,,,,,,,,,,,,,1 陈洋,001,2025-01-02_20h16.19.115,IAT(Formal),2021.2.3,Win32,59.88023952,,,,,,,,,,,,,,,,,,,,,,,,,,,,,,,,,,,,,,,,,,,,i,0,0.5363,0,34,34,55,1,他,e,,,,,,,,,,,,
,,,,,,,,,,,,,,1 陈洋,001,2025-01-02_20h16.19.115,IAT(Formal),2021.2.3,Win32,59.88023952,,,,,,,,,,,,,,,,,,,,,,,,,,,,,,,,,,,,,,,,,,,,i,1,0.9404,0,35,35,36,1,自卑,i,,,,,,,,,,,,
,,,,,,,,,,,,,,1 陈洋,001,2025-01-02_20h16.19.115,IAT(Formal),2021.2.3,Win32,59.88023952,,,,,,,,,,,,,,,,,,,,,,,,,,,,,,,,,,,,,,,,,,,,e,1,1.0766,0,36,36,58,1,他人,e,,,,,,,,,,,,
,,,,,,,,,,,,,,1 陈洋,001,2025-01-02_20h16.19.115,IAT(Formal),2021.2.3,Win32,59.88023952,,,,,,,,,,,,,,,,,,,,,,,,,,,,,,,,,,,,,,,,,,,,i,0,0.7389,0,37,37,69,1,其他,e,,,,,,,,,,,,
,,,,,,,,,,,,,,1 陈洋,001,2025-01-02_20h16.19.115,IAT(Formal),2021.2.3,Win32,59.88023952,,,,,,,,,,,,,,,,,,,,,,,,,,,,,,,,,,,,,,,,,,,,i,0,1.0217,0,38,38,22,1,无私,e,,,,,,,,,,,,
,,,,,,,,,,,,,,1 陈洋,001,2025-01-02_20h16.19.115,IAT(Formal),2021.2.3,Win32,59.88023952,,,,,,,,,,,,,,,,,,,,,,,,,,,,,,,,,,,,,,,,,,,,,0,,0,39,39,43,1,自私,i,,,,,,,,,,,,
,,,,,,,,,,,,,,1 陈洋,001,2025-01-02_20h16.19.115,IAT(Formal),2021.2.3,Win32,59.88023952,,,,,,,,,,,,,,,,,,,,,,,,,,,,,,,,,,,,,,,,,,,,e,1,0.5888,0,40,40,26,1,冷静,e,,,,,,,,,,,,
,,,,,,,,,,,,,,1 陈洋,001,2025-01-02_20h16.19.115,IAT(Formal),2021.2.3,Win32,59.88023952,,,,,,,,,,,,,,,,,,,,,,,,,,,,,,,,,,,,,,,,,,,,e,1,0.518,0,41,41,27,1,热情,e,,,,,,,,,,,,
,,,,,,,,,,,,,,1 陈洋,001,2025-01-02_20h16.19.115,IAT(Formal),2021.2.3,Win32,59.88023952,,,,,,,,,,,,,,,,,,,,,,,,,,,,,,,,,,,,,,,,,,,,e,1,0.5446,0,42,42,18,1,勤奋,e,,,,,,,,,,,,
,,,,,,,,,,,,,,1 陈洋,001,2025-01-02_20h16.19.115,IAT(Formal),2021.2.3,Win32,59.88023952,,,,,,,,,,,,,,,,,,,,,,,,,,,,,,,,,,,,,,,,,,,,e,1,0.774,0,43,43,8,1,他人,e,,,,,,,,,,,,
,,,,,,,,,,,,,,1 陈洋,001,2025-01-02_20h16.19.115,IAT(Formal),2021.2.3,Win32,59.88023952,,,,,,,,,,,,,,,,,,,,,,,,,,,,,,,,,,,,,,,,,,,,e,1,0.5677,0,44,44,75,1,他,e,,,,,,,,,,,,
,,,,,,,,,,,,,,1 陈洋,001,2025-01-02_20h16.19.115,IAT(Formal),2021.2.3,Win32,59.88023952,,,,,,,,,,,,,,,,,,,,,,,,,,,,,,,,,,,,,,,,,,,,e,1,0.5551,0,45,45,17,1,勇敢,e,,,,,,,,,,,,
,,,,,,,,,,,,,,1 陈洋,001,2025-01-02_20h16.19.115,IAT(Formal),2021.2.3,Win32,59.88023952,,,,,,,,,,,,,,,,,,,,,,,,,,,,,,,,,,,,,,,,,,,,i,1,0.7013,0,46,46,37,1,傲慢,i,,,,,,,,,,,,
,,,,,,,,,,,,,,1 陈洋,001,2025-01-02_20h16.19.115,IAT(Formal),2021.2.3,Win32,59.88023952,,,,,,,,,,,,,,,,,,,,,,,,,,,,,,,,,,,,,,,,,,,,i,1,1.4191,0,47,47,39,1,冒失,i,,,,,,,,,,,,
,,,,,,,,,,,,,,1 陈洋,001,2025-01-02_20h16.19.115,IAT(Formal),2021.2.3,Win32,59.88023952,,,,,,,,,,,,,,,,,,,,,,,,,,,,,,,,,,,,,,,,,,,,e,0,0.9501,0,48,48,4,1,俺,i,,,,,,,,,,,,
,,,,,,,,,,,,,,1 陈洋,001,2025-01-02_20h16.19.115,IAT(Formal),2021.2.3,Win32,59.88023952,,,,,,,,,,,,,,,,,,,,,,,,,,,,,,,,,,,,,,,,,,,,i,0,0.8672,0,49,49,65,1,他,e,,,,,,,,,,,,
,,,,,,,,,,,,,,1 陈洋,001,2025-01-02_20h16.19.115,IAT(Formal),2021.2.3,Win32,59.88023952,,,,,,,,,,,,,,,,,,,,,,,,,,,,,,,,,,,,,,,,,,,,e,0,1.0517,0,50,50,53,1,自己,i,,,,,,,,,,,,
,,,,,,,,,,,,,,1 陈洋,001,2025-01-02_20h16.19.115,IAT(Formal),2021.2.3,Win32,59.88023952,,,,,,,,,,,,,,,,,,,,,,,,,,,,,,,,,,,,,,,,,,,,i,1,0.8334,0,51,51,3,1,自己,i,,,,,,,,,,,,
,,,,,,,,,,,,,,1 陈洋,001,2025-01-02_20h16.19.115,IAT(Formal),2021.2.3,Win32,59.88023952,,,,,,,,,,,,,,,,,,,,,,,,,,,,,,,,,,,,,,,,,,,,i,1,1.2703,0,52,52,44,1,暴躁,i,,,,,,,,,,,,
,,,,,,,,,,,,,,1 陈洋,001,2025-01-02_20h16.19.115,IAT(Formal),2021.2.3,Win32,59.88023952,,,,,,,,,,,,,,,,,,,,,,,,,,,,,,,,,,,,,,,,,,,,,0,,0,53,53,2,1,我们,i,,,,,,,,,,,,
,,,,,,,,,,,,,,1 陈洋,001,2025-01-02_20h16.19.115,IAT(Formal),2021.2.3,Win32,59.88023952,,,,,,,,,,,,,,,,,,,,,,,,,,,,,,,,,,,,,,,,,,,,e,1,0.7215,0,54,54,5,1,他,e,,,,,,,,,,,,
,,,,,,,,,,,,,,1 陈洋,001,2025-01-02_20h16.19.115,IAT(Formal),2021.2.3,Win32,59.88023952,,,,,,,,,,,,,,,,,,,,,,,,,,,,,,,,,,,,,,,,,,,,i,1,0.8353,0,55,55,34,1,悲观,i,,,,,,,,,,,,
,,,,,,,,,,,,,,1 陈洋,001,2025-01-02_20h16.19.115,IAT(Formal),2021.2.3,Win32,59.88023952,,,,,,,,,,,,,,,,,,,,,,,,,,,,,,,,,,,,,,,,,,,,i,1,0.8006,0,56,56,31,1,虚伪,i,,,,,,,,,,,,
,,,,,,,,,,,,,,1 陈洋,001,2025-01-02_20h16.19.115,IAT(Formal),2021.2.3,Win32,59.88023952,,,,,,,,,,,,,,,,,,,,,,,,,,,,,,,,,,,,,,,,,,,,i,1,0.6515,0,57,57,61,1,我的,i,,,,,,,,,,,,
,,,,,,,,,,,,,,1 陈洋,001,2025-01-02_20h16.19.115,IAT(Formal),2021.2.3,Win32,59.88023952,,,,,,,,,,,,,,,,,,,,,,,,,,,,,,,,,,,,,,,,,,,,,0,,0,58,58,56,1,他们,e,,,,,,,,,,,,
,,,,,,,,,,,,,,1 陈洋,001,2025-01-02_20h16.19.115,IAT(Formal),2021.2.3,Win32,59.88023952,,,,,,,,,,,,,,,,,,,,,,,,,,,,,,,,,,,,,,,,,,,,i,1,0.6287,0,59,59,48,1,轻率,i,,,,,,,,,,,,
,,,,,,,,,,,,,,1 陈洋,001,2025-01-02_20h16.19.115,IAT(Formal),2021.2.3,Win32,59.88023952,,,,,,,,,,,,,,,,,,,,,,,,,,,,,,,,,,,,,,,,,,,,i,1,0.6847,0,60,60,40,1,执拗,i,,,,,,,,,,,,
,,,,,,,,,,,,,,1 陈洋,001,2025-01-02_20h16.19.115,IAT(Formal),2021.2.3,Win32,59.88023952,,,,,,,,,,,,,,,,,,,,,,,,,,,,,,,,,,,,,,,,,,,,e,1,1.2364,0,61,61,24,1,朴实,e,,,,,,,,,,,,
,,,,,,,,,,,,,,1 陈洋,001,2025-01-02_20h16.19.115,IAT(Formal),2021.2.3,Win32,59.88023952,,,,,,,,,,,,,,,,,,,,,,,,,,,,,,,,,,,,,,,,,,,,e,1,0.9002,0,62,62,68,1,他人,e,,,,,,,,,,,,
,,,,,,,,,,,,,,1 陈洋,001,2025-01-02_20h16.19.115,IAT(Formal),2021.2.3,Win32,59.88023952,,,,,,,,,,,,,,,,,,,,,,,,,,,,,,,,,,,,,,,,,,,,i,1,0.7008,0,63,63,73,1,自己,i,,,,,,,,,,,,
,,,,,,,,,,,,,,1 陈洋,001,2025-01-02_20h16.19.115,IAT(Formal),2021.2.3,Win32,59.88023952,,,,,,,,,,,,,,,,,,,,,,,,,,,,,,,,,,,,,,,,,,,,i,1,0.6571,0,64,64,54,1,俺,i,,,,,,,,,,,,
,,,,,,,,,,,,,,1 陈洋,001,2025-01-02_20h16.19.115,IAT(Formal),2021.2.3,Win32,59.88023952,,,,,,,,,,,,,,,,,,,,,,,,,,,,,,,,,,,,,,,,,,,,e,0,0.8031,0,65,65,32,1,愚蠢,i,,,,,,,,,,,,
,,,,,,,,,,,,,,1 陈洋,001,2025-01-02_20h16.19.115,IAT(Formal),2021.2.3,Win32,59.88023952,,,,,,,,,,,,,,,,,,,,,,,,,,,,,,,,,,,,,,,,,,,,i,1,0.4766,0,66,66,64,1,俺,i,,,,,,,,,,,,
,,,,,,,,,,,,,,1 陈洋,001,2025-01-02_20h16.19.115,IAT(Formal),2021.2.3,Win32,59.88023952,,,,,,,,,,,,,,,,,,,,,,,,,,,,,,,,,,,,,,,,,,,,i,1,0.4842,0,67,67,49,1,下贱,i,,,,,,,,,,,,
,,,,,,,,,,,,,,1 陈洋,001,2025-01-02_20h16.19.115,IAT(Formal),2021.2.3,Win32,59.88023952,,,,,,,,,,,,,,,,,,,,,,,,,,,,,,,,,,,,,,,,,,,,e,1,0.8782,0,68,68,9,1,其他,e,,,,,,,,,,,,
,,,,,,,,,,,,,,1 陈洋,001,2025-01-02_20h16.19.115,IAT(Formal),2021.2.3,Win32,59.88023952,,,,,,,,,,,,,,,,,,,,,,,,,,,,,,,,,,,,,,,,,,,,i,1,0.6584,0,69,69,71,1,我的,i,,,,,,,,,,,,
,,,,,,,,,,,,,,1 陈洋,001,2025-01-02_20h16.19.115,IAT(Formal),2021.2.3,Win32,59.88023952,,,,,,,,,,,,,,,,,,,,,,,,,,,,,,,,,,,,,,,,,,,,i,1,1.1777,0,70,70,52,1,我们,i,,,,,,,,,,,,
,,,,,,,,,,,,,,1 陈洋,001,2025-01-02_20h16.19.115,IAT(Formal),2021.2.3,Win32,59.88023952,,,,,,,,,,,,,,,,,,,,,,,,,,,,,,,,,,,,,,,,,,,,e,1,0.8609,0,71,71,76,1,他们,e,,,,,,,,,,,,
,,,,,,,,,,,,,,1 陈洋,001,2025-01-02_20h16.19.115,IAT(Formal),2021.2.3,Win32,59.88023952,,,,,,,,,,,,,,,,,,,,,,,,,,,,,,,,,,,,,,,,,,,,e,1,0.5499,0,72,72,77,1,他的,e,,,,,,,,,,,,
,,,,,,,,,,,,,,1 陈洋,001,2025-01-02_20h16.19.115,IAT(Formal),2021.2.3,Win32,59.88023952,,,,,,,,,,,,,,,,,,,,,,,,,,,,,,,,,,,,,,,,,,,,,0,,0,73,73,38,1,鲁莽,i,,,,,,,,,,,,
,,,,,,,,,,,,,,1 陈洋,001,2025-01-02_20h16.19.115,IAT(Formal),2021.2.3,Win32,59.88023952,,,,,,,,,,,,,,,,,,,,,,,,,,,,,,,,,,,,,,,,,,,,e,1,0.9346,0,74,74,6,1,他们,e,,,,,,,,,,,,
,,,,,,,,,,,,,,1 陈洋,001,2025-01-02_20h16.19.115,IAT(Formal),2021.2.3,Win32,59.88023952,,,,,,,,,,,,,,,,,,,,,,,,,,,,,,,,,,,,,,,,,,,,,0,,0,75,75,25,1,细腻,e,,,,,,,,,,,,
,,,,,,,,,,,,,,1 陈洋,001,2025-01-02_20h16.19.115,IAT(Formal),2021.2.3,Win32,59.88023952,,,,,,,,,,,,,,,,,,,,,,,,,,,,,,,,,,,,,,,,,,,,i,1,1.2347,0,76,76,70,1,我,i,,,,,,,,,,,,
,,,,,,,,,,,,,,1 陈洋,001,2025-01-02_20h16.19.115,IAT(Formal),2021.2.3,Win32,59.88023952,,,,,,,,,,,,,,,,,,,,,,,,,,,,,,,,,,,,,,,,,,,,i,0,0.7464,0,77,77,57,1,他的,e,,,,,,,,,,,,
,,,,,,,,,,,,,,1 陈洋,001,2025-01-02_20h16.19.115,IAT(Formal),2021.2.3,Win32,59.88023952,,,,,,,,,,,,,,,,,,,,,,,,,,,,,,,,,,,,,,,,,,,,i,0,0.9105,0,78,78,29,1,诚恳,e,,,,,,,,,,,,
,,,,,,,,,,,,,,1 陈洋,001,2025-01-02_20h16.19.115,IAT(Formal),2021.2.3,Win32,59.88023952,,,,,,,,,,,,,,,,,,,,,,,,,,,,,,,,,,,,,,,,,,,,,0,,0,79,79,12,1,聪明,e,,,,,,,,,,,,
,,,,,,,,,,,,,,1 陈洋,001,2025-01-02_20h16.19.115,IAT(Formal),2021.2.3,Win32,59.88023952,,,,,,,,,,,,,,,,,,,,,,,,,,,,,,,,,,,,,,,,,,,,,,,,,,,,他人,e,space,15.1922,,0,0,0,0,8,1,,,
,,,,,,,,,,,,,,1 陈洋,001,2025-01-02_20h16.19.115,IAT(Formal),2021.2.3,Win32,59.88023952,,,,,,,,,,,,,,,,,,,,,,,,,,,,,,,,,,,,,,,,,,,,,,,,,,,,俺,i,,,i,1,0,1,1,74,1,0.7918,,
,,,,,,,,,,,,,,1 陈洋,001,2025-01-02_20h16.19.115,IAT(Formal),2021.2.3,Win32,59.88023952,,,,,,,,,,,,,,,,,,,,,,,,,,,,,,,,,,,,,,,,,,,,,,,,,,,,散漫,i,,,i,1,0,2,2,41,1,1.3835,,
,,,,,,,,,,,,,,1 陈洋,001,2025-01-02_20h16.19.115,IAT(Formal),2021.2.3,Win32,59.88023952,,,,,,,,,,,,,,,,,,,,,,,,,,,,,,,,,,,,,,,,,,,,,,,,,,,,其他,e,,,i,0,0,3,3,9,1,1.0112,,
,,,,,,,,,,,,,,1 陈洋,001,2025-01-02_20h16.19.115,IAT(Formal),2021.2.3,Win32,59.88023952,,,,,,,,,,,,,,,,,,,,,,,,,,,,,,,,,,,,,,,,,,,,,,,,,,,,正直,e,,,i,0,0,4,4,16,1,1.2068,,
,,,,,,,,,,,,,,1 陈洋,001,2025-01-02_20h16.19.115,IAT(Formal),2021.2.3,Win32,59.88023952,,,,,,,,,,,,,,,,,,,,,,,,,,,,,,,,,,,,,,,,,,,,,,,,,,,,杰出,e,,,e,1,0,5,5,13,1,0.8793,,
,,,,,,,,,,,,,,1 陈洋,001,2025-01-02_20h16.19.115,IAT(Formal),2021.2.3,Win32,59.88023952,,,,,,,,,,,,,,,,,,,,,,,,,,,,,,,,,,,,,,,,,,,,,,,,,,,,我们,i,,,e,0,0,6,6,72,1,1.3583,,
,,,,,,,,,,,,,,1 陈洋,001,2025-01-02_20h16.19.115,IAT(Formal),2021.2.3,Win32,59.88023952,,,,,,,,,,,,,,,,,,,,,,,,,,,,,,,,,,,,,,,,,,,,,,,,,,,,猖狂,i,,,e,0,0,7,7,45,1,1.3672,,
,,,,,,,,,,,,,,1 陈洋,001,2025-01-02_20h16.19.115,IAT(Formal),2021.2.3,Win32,59.88023952,,,,,,,,,,,,,,,,,,,,,,,,,,,,,,,,,,,,,,,,,,,,,,,,,,,,他人,e,,,i,0,0,8,8,58,1,0.8507,,
,,,,,,,,,,,,,,1 陈洋,001,2025-01-02_20h16.19.115,IAT(Formal),2021.2.3,Win32,59.88023952,,,,,,,,,,,,,,,,,,,,,,,,,,,,,,,,,,,,,,,,,,,,,,,,,,,,自己,i,,,i,1,0,9,9,3,1,0.9608,,
,,,,,,,,,,,,,,1 陈洋,001,2025-01-02_20h16.19.115,IAT(Formal),2021.2.3,Win32,59.88023952,,,,,,,,,,,,,,,,,,,,,,,,,,,,,,,,,,,,,,,,,,,,,,,,,,,,傲慢,i,,,e,0,0,10,10,37,1,1.1595,,
,,,,,,,,,,,,,,1 陈洋,001,2025-01-02_20h16.19.115,IAT(Formal),2021.2.3,Win32,59.88023952,,,,,,,,,,,,,,,,,,,,,,,,,,,,,,,,,,,,,,,,,,,,,,,,,,,,他们,e,,,i,0,0,11,11,56,1,1.0592,,
,,,,,,,,,,,,,,1 陈洋,001,2025-01-02_20h16.19.115,IAT(Formal),2021.2.3,Win32,59.88023952,,,,,,,,,,,,,,,,,,,,,,,,,,,,,,,,,,,,,,,,,,,,,,,,,,,,乐观,e,,,i,0,0,12,12,14,1,0.867,,
,,,,,,,,,,,,,,1 陈洋,001,2025-01-02_20h16.19.115,IAT(Formal),2021.2.3,Win32,59.88023952,,,,,,,,,,,,,,,,,,,,,,,,,,,,,,,,,,,,,,,,,,,,,,,,,,,,愚蠢,i,,,i,1,0,13,13,32,1,1.0377,,
,,,,,,,,,,,,,,1 陈洋,001,2025-01-02_20h16.19.115,IAT(Formal),2021.2.3,Win32,59.88023952,,,,,,,,,,,,,,,,,,,,,,,,,,,,,,,,,,,,,,,,,,,,,,,,,,,,诚实,e,,,e,1,0,14,14,15,1,0.8329,,
,,,,,,,,,,,,,,1 陈洋,001,2025-01-02_20h16.19.115,IAT(Formal),2021.2.3,Win32,59.88023952,,,,,,,,,,,,,,,,,,,,,,,,,,,,,,,,,,,,,,,,,,,,,,,,,,,,机智,e,,,e,1,0,15,15,19,1,0.5958,,
,,,,,,,,,,,,,,1 陈洋,001,2025-01-02_20h16.19.115,IAT(Formal),2021.2.3,Win32,59.88023952,,,,,,,,,,,,,,,,,,,,,,,,,,,,,,,,,,,,,,,,,,,,,,,,,,,,轻率,i,,,i,1,0,16,16,48,1,0.6708,,
,,,,,,,,,,,,,,1 陈洋,001,2025-01-02_20h16.19.115,IAT(Formal),2021.2.3,Win32,59.88023952,,,,,,,,,,,,,,,,,,,,,,,,,,,,,,,,,,,,,,,,,,,,,,,,,,,,他的,e,,,e,1,0,17,17,7,1,0.8238,,
,,,,,,,,,,,,,,1 陈洋,001,2025-01-02_20h16.19.115,IAT(Formal),2021.2.3,Win32,59.88023952,,,,,,,,,,,,,,,,,,,,,,,,,,,,,,,,,,,,,,,,,,,,,,,,,,,,他,e,,,e,1,0,18,18,5,1,0.7086,,
,,,,,,,,,,,,,,1 陈洋,001,2025-01-02_20h16.19.115,IAT(Formal),2021.2.3,Win32,59.88023952,,,,,,,,,,,,,,,,,,,,,,,,,,,,,,,,,,,,,,,,,,,,,,,,,,,,虚伪,i,,,i,1,0,19,19,31,1,0.7166,,
,,,,,,,,,,,,,,1 陈洋,001,2025-01-02_20h16.19.115,IAT(Formal),2021.2.3,Win32,59.88023952,,,,,,,,,,,,,,,,,,,,,,,,,,,,,,,,,,,,,,,,,,,,,,,,,,,,我,i,,,i,1,0,20,20,0,1,0.6755,,
,,,,,,,,,,,,,,1 陈洋,001,2025-01-02_20h16.19.115,IAT(Formal),2021.2.3,Win32,59.88023952,,,,,,,,,,,,,,,,,,,,,,,,,,,,,,,,,,,,,,,,,,,,,,,,,,,,我,i,,,i,1,0,21,21,50,1,0.66,,
,,,,,,,,,,,,,,1 陈洋,001,2025-01-02_20h16.19.115,IAT(Formal),2021.2.3,Win32,59.88023952,,,,,,,,,,,,,,,,,,,,,,,,,,,,,,,,,,,,,,,,,,,,,,,,,,,,我们,i,,,i,1,0,22,22,62,1,0.6575,,
,,,,,,,,,,,,,,1 陈洋,001,2025-01-02_20h16.19.115,IAT(Formal),2021.2.3,Win32,59.88023952,,,,,,,,,,,,,,,,,,,,,,,,,,,,,,,,,,,,,,,,,,,,,,,,,,,,凶狠,i,,,e,0,0,23,23,42,1,0.9674,,
,,,,,,,,,,,,,,1 陈洋,001,2025-01-02_20h16.19.115,IAT(Formal),2021.2.3,Win32,59.88023952,,,,,,,,,,,,,,,,,,,,,,,,,,,,,,,,,,,,,,,,,,,,,,,,,,,,俺,i,,,i,1,0,24,24,54,1,0.7544,,
,,,,,,,,,,,,,,1 陈洋,001,2025-01-02_20h16.19.115,IAT(Formal),2021.2.3,Win32,59.88023952,,,,,,,,,,,,,,,,,,,,,,,,,,,,,,,,,,,,,,,,,,,,,,,,,,,,其他,e,,,e,1,0,25,25,79,1,0.6834,,
,,,,,,,,,,,,,,1 陈洋,001,2025-01-02_20h16.19.115,IAT(Formal),2021.2.3,Win32,59.88023952,,,,,,,,,,,,,,,,,,,,,,,,,,,,,,,,,,,,,,,,,,,,,,,,,,,,勤奋,e,,,e,1,0,26,26,18,1,0.7578,,
,,,,,,,,,,,,,,1 陈洋,001,2025-01-02_20h16.19.115,IAT(Formal),2021.2.3,Win32,59.88023952,,,,,,,,,,,,,,,,,,,,,,,,,,,,,,,,,,,,,,,,,,,,,,,,,,,,执拗,i,,,e,0,0,27,27,40,1,0.8732,,
,,,,,,,,,,,,,,1 陈洋,001,2025-01-02_20h16.19.115,IAT(Formal),2021.2.3,Win32,59.88023952,,,,,,,,,,,,,,,,,,,,,,,,,,,,,,,,,,,,,,,,,,,,,,,,,,,,他们,e,,,i,0,0,28,28,6,1,0.954,,
,,,,,,,,,,,,,,1 陈洋,001,2025-01-02_20h16.19.115,IAT(Formal),2021.2.3,Win32,59.88023952,,,,,,,,,,,,,,,,,,,,,,,,,,,,,,,,,,,,,,,,,,,,,,,,,,,,消极,i,,,i,1,0,29,29,35,1,0.7167,,
,,,,,,,,,,,,,,1 陈洋,001,2025-01-02_20h16.19.115,IAT(Formal),2021.2.3,Win32,59.88023952,,,,,,,,,,,,,,,,,,,,,,,,,,,,,,,,,,,,,,,,,,,,,,,,,,,,他,e,,,e,1,0,30,30,55,1,1.3103,,
,,,,,,,,,,,,,,1 陈洋,001,2025-01-02_20h16.19.115,IAT(Formal),2021.2.3,Win32,59.88023952,,,,,,,,,,,,,,,,,,,,,,,,,,,,,,,,,,,,,,,,,,,,,,,,,,,,他的,e,,,e,1,0,31,31,57,1,0.7001,,
,,,,,,,,,,,,,,1 陈洋,001,2025-01-02_20h16.19.115,IAT(Formal),2021.2.3,Win32,59.88023952,,,,,,,,,,,,,,,,,,,,,,,,,,,,,,,,,,,,,,,,,,,,,,,,,,,,其他,e,,,e,1,0,32,32,59,1,0.7261,,
,,,,,,,,,,,,,,1 陈洋,001,2025-01-02_20h16.19.115,IAT(Formal),2021.2.3,Win32,59.88023952,,,,,,,,,,,,,,,,,,,,,,,,,,,,,,,,,,,,,,,,,,,,,,,,,,,,我们,i,,,i,1,0,33,33,2,1,0.5673,,
,,,,,,,,,,,,,,1 陈洋,001,2025-01-02_20h16.19.115,IAT(Formal),2021.2.3,Win32,59.88023952,,,,,,,,,,,,,,,,,,,,,,,,,,,,,,,,,,,,,,,,,,,,,,,,,,,,无私,e,,,i,0,0,34,34,22,1,0.8515,,
,,,,,,,,,,,,,,1 陈洋,001,2025-01-02_20h16.19.115,IAT(Formal),2021.2.3,Win32,59.88023952,,,,,,,,,,,,,,,,,,,,,,,,,,,,,,,,,,,,,,,,,,,,,,,,,,,,活泼,e,,,e,1,0,35,35,28,1,1.0856,,
,,,,,,,,,,,,,,1 陈洋,001,2025-01-02_20h16.19.115,IAT(Formal),2021.2.3,Win32,59.88023952,,,,,,,,,,,,,,,,,,,,,,,,,,,,,,,,,,,,,,,,,,,,,,,,,,,,冒失,i,,,e,0,0,36,36,39,1,0.8673,,
,,,,,,,,,,,,,,1 陈洋,001,2025-01-02_20h16.19.115,IAT(Formal),2021.2.3,Win32,59.88023952,,,,,,,,,,,,,,,,,,,,,,,,,,,,,,,,,,,,,,,,,,,,,,,,,,,,下贱,i,,,i,1,0,37,37,49,1,0.6942,,
,,,,,,,,,,,,,,1 陈洋,001,2025-01-02_20h16.19.115,IAT(Formal),2021.2.3,Win32,59.88023952,,,,,,,,,,,,,,,,,,,,,,,,,,,,,,,,,,,,,,,,,,,,,,,,,,,,我的,i,,,e,0,0,38,38,1,1,0.7353,,
,,,,,,,,,,,,,,1 陈洋,001,2025-01-02_20h16.19.115,IAT(Formal),2021.2.3,Win32,59.88023952,,,,,,,,,,,,,,,,,,,,,,,,,,,,,,,,,,,,,,,,,,,,,,,,,,,,他人,e,,,e,1,0,39,39,68,1,0.6337,,
,,,,,,,,,,,,,,1 陈洋,001,2025-01-02_20h16.19.115,IAT(Formal),2021.2.3,Win32,59.88023952,,,,,,,,,,,,,,,,,,,,,,,,,,,,,,,,,,,,,,,,,,,,,,,,,,,,俺,i,,,e,0,0,40,40,64,1,0.8685,,
,,,,,,,,,,,,,,1 陈洋,001,2025-01-02_20h16.19.115,IAT(Formal),2021.2.3,Win32,59.88023952,,,,,,,,,,,,,,,,,,,,,,,,,,,,,,,,,,,,,,,,,,,,,,,,,,,,朴实,e,,,e,1,0,41,41,24,1,0.9998,,
,,,,,,,,,,,,,,1 陈洋,001,2025-01-02_20h16.19.115,IAT(Formal),2021.2.3,Win32,59.88023952,,,,,,,,,,,,,,,,,,,,,,,,,,,,,,,,,,,,,,,,,,,,,,,,,,,,我,i,,,i,1,0,42,42,60,1,0.9168,,
,,,,,,,,,,,,,,1 陈洋,001,2025-01-02_20h16.19.115,IAT(Formal),2021.2.3,Win32,59.88023952,,,,,,,,,,,,,,,,,,,,,,,,,,,,,,,,,,,,,,,,,,,,,,,,,,,,自卑,i,,,i,1,0,43,43,36,1,0.7509,,
,,,,,,,,,,,,,,1 陈洋,001,2025-01-02_20h16.19.115,IAT(Formal),2021.2.3,Win32,59.88023952,,,,,,,,,,,,,,,,,,,,,,,,,,,,,,,,,,,,,,,,,,,,,,,,,,,,细腻,e,,,e,1,0,44,44,25,1,0.7713,,
,,,,,,,,,,,,,,1 陈洋,001,2025-01-02_20h16.19.115,IAT(Formal),2021.2.3,Win32,59.88023952,,,,,,,,,,,,,,,,,,,,,,,,,,,,,,,,,,,,,,,,,,,,,,,,,,,,他们,e,,,i,0,0,45,45,66,1,0.6854,,
,,,,,,,,,,,,,,1 陈洋,001,2025-01-02_20h16.19.115,IAT(Formal),2021.2.3,Win32,59.88023952,,,,,,,,,,,,,,,,,,,,,,,,,,,,,,,,,,,,,,,,,,,,,,,,,,,,优秀,e,,,e,1,0,46,46,10,1,0.9949,,
,,,,,,,,,,,,,,1 陈洋,001,2025-01-02_20h16.19.115,IAT(Formal),2021.2.3,Win32,59.88023952,,,,,,,,,,,,,,,,,,,,,,,,,,,,,,,,,,,,,,,,,,,,,,,,,,,,崇高,e,,,e,1,0,47,47,11,1,0.704,,
,,,,,,,,,,,,,,1 陈洋,001,2025-01-02_20h16.19.115,IAT(Formal),2021.2.3,Win32,59.88023952,,,,,,,,,,,,,,,,,,,,,,,,,,,,,,,,,,,,,,,,,,,,,,,,,,,,自己,i,,,e,0,0,48,48,73,1,0.9225,,
,,,,,,,,,,,,,,1 陈洋,001,2025-01-02_20h16.19.115,IAT(Formal),2021.2.3,Win32,59.88023952,,,,,,,,,,,,,,,,,,,,,,,,,,,,,,,,,,,,,,,,,,,,,,,,,,,,他,e,,,e,1,0,49,49,75,1,0.6205,,
,,,,,,,,,,,,,,1 陈洋,001,2025-01-02_20h16.19.115,IAT(Formal),2021.2.3,Win32,59.88023952,,,,,,,,,,,,,,,,,,,,,,,,,,,,,,,,,,,,,,,,,,,,,,,,,,,,其他,e,,,e,1,0,50,50,69,1,0.568,,
,,,,,,,,,,,,,,1 陈洋,001,2025-01-02_20h16.19.115,IAT(Formal),2021.2.3,Win32,59.88023952,,,,,,,,,,,,,,,,,,,,,,,,,,,,,,,,,,,,,,,,,,,,,,,,,,,,自己,i,,,i,1,0,51,51,53,1,0.585,,
,,,,,,,,,,,,,,1 陈洋,001,2025-01-02_20h16.19.115,IAT(Formal),2021.2.3,Win32,59.88023952,,,,,,,,,,,,,,,,,,,,,,,,,,,,,,,,,,,,,,,,,,,,,,,,,,,,我的,i,,,i,1,0,52,52,51,1,0.7704,,
,,,,,,,,,,,,,,1 陈洋,001,2025-01-02_20h16.19.115,IAT(Formal),2021.2.3,Win32,59.88023952,,,,,,,,,,,,,,,,,,,,,,,,,,,,,,,,,,,,,,,,,,,,,,,,,,,,稳重,e,,,e,1,0,53,53,21,1,0.9754,,
,,,,,,,,,,,,,,1 陈洋,001,2025-01-02_20h16.19.115,IAT(Formal),2021.2.3,Win32,59.88023952,,,,,,,,,,,,,,,,,,,,,,,,,,,,,,,,,,,,,,,,,,,,,,,,,,,,他的,e,,,e,1,0,54,54,77,1,0.6555,,
,,,,,,,,,,,,,,1 陈洋,001,2025-01-02_20h16.19.115,IAT(Formal),2021.2.3,Win32,59.88023952,,,,,,,,,,,,,,,,,,,,,,,,,,,,,,,,,,,,,,,,,,,,,,,,,,,,悲观,i,,,i,1,0,55,55,34,1,0.7344,,
,,,,,,,,,,,,,,1 陈洋,001,2025-01-02_20h16.19.115,IAT(Formal),2021.2.3,Win32,59.88023952,,,,,,,,,,,,,,,,,,,,,,,,,,,,,,,,,,,,,,,,,,,,,,,,,,,,鲁莽,i,,,i,1,0,56,56,38,1,0.6339,,
,,,,,,,,,,,,,,1 陈洋,001,2025-01-02_20h16.19.115,IAT(Formal),2021.2.3,Win32,59.88023952,,,,,,,,,,,,,,,,,,,,,,,,,,,,,,,,,,,,,,,,,,,,,,,,,,,,俺,i,,,i,1,0,57,57,4,1,0.5674,,
,,,,,,,,,,,,,,1 陈洋,001,2025-01-02_20h16.19.115,IAT(Formal),2021.2.3,Win32,59.88023952,,,,,,,,,,,,,,,,,,,,,,,,,,,,,,,,,,,,,,,,,,,,,,,,,,,,自私,i,,,i,1,0,58,58,43,1,0.494,,
,,,,,,,,,,,,,,1 陈洋,001,2025-01-02_20h16.19.115,IAT(Formal),2021.2.3,Win32,59.88023952,,,,,,,,,,,,,,,,,,,,,,,,,,,,,,,,,,,,,,,,,,,,,,,,,,,,卑鄙,i,,,i,1,0,59,59,30,1,0.5448,,
,,,,,,,,,,,,,,1 陈洋,001,2025-01-02_20h16.19.115,IAT(Formal),2021.2.3,Win32,59.88023952,,,,,,,,,,,,,,,,,,,,,,,,,,,,,,,,,,,,,,,,,,,,,,,,,,,,我,i,,,i,1,0,60,60,70,1,0.4895,,
,,,,,,,,,,,,,,1 陈洋,001,2025-01-02_20h16.19.115,IAT(Formal),2021.2.3,Win32,59.88023952,,,,,,,,,,,,,,,,,,,,,,,,,,,,,,,,,,,,,,,,,,,,,,,,,,,,冷静,e,,,e,1,0,61,61,26,1,0.9501,,
,,,,,,,,,,,,,,1 陈洋,001,2025-01-02_20h16.19.115,IAT(Formal),2021.2.3,Win32,59.88023952,,,,,,,,,,,,,,,,,,,,,,,,,,,,,,,,,,,,,,,,,,,,,,,,,,,,聪明,e,,,e,1,0,62,62,12,1,0.5335,,
,,,,,,,,,,,,,,1 陈洋,001,2025-01-02_20h16.19.115,IAT(Formal),2021.2.3,Win32,59.88023952,,,,,,,,,,,,,,,,,,,,,,,,,,,,,,,,,,,,,,,,,,,,,,,,,,,,诚恳,e,,,e,1,0,63,63,29,1,0.4844,,
,,,,,,,,,,,,,,1 陈洋,001,2025-01-02_20h16.19.115,IAT(Formal),2021.2.3,Win32,59.88023952,,,,,,,,,,,,,,,,,,,,,,,,,,,,,,,,,,,,,,,,,,,,,,,,,,,,固执,i,,,e,0,0,64,64,47,1,0.5012,,
,,,,,,,,,,,,,,1 陈洋,001,2025-01-02_20h16.19.115,IAT(Formal),2021.2.3,Win32,59.88023952,,,,,,,,,,,,,,,,,,,,,,,,,,,,,,,,,,,,,,,,,,,,,,,,,,,,野蛮,i,,,i,1,0,65,65,46,1,0.6357,,
,,,,,,,,,,,,,,1 陈洋,001,2025-01-02_20h16.19.115,IAT(Formal),2021.2.3,Win32,59.88023952,,,,,,,,,,,,,,,,,,,,,,,,,,,,,,,,,,,,,,,,,,,,,,,,,,,,自己,i,,,i,1,0,66,66,63,1,0.6504,,
,,,,,,,,,,,,,,1 陈洋,001,2025-01-02_20h16.19.115,IAT(Formal),2021.2.3,Win32,59.88023952,,,,,,,,,,,,,,,,,,,,,,,,,,,,,,,,,,,,,,,,,,,,,,,,,,,,我的,i,,,i,1,0,67,67,71,1,0.5007,,
,,,,,,,,,,,,,,1 陈洋,001,2025-01-02_20h16.19.115,IAT(Formal),2021.2.3,Win32,59.88023952,,,,,,,,,,,,,,,,,,,,,,,,,,,,,,,,,,,,,,,,,,,,,,,,,,,,我的,i,,,i,1,0,68,68,61,1,0.5347,,
,,,,,,,,,,,,,,1 陈洋,001,2025-01-02_20h16.19.115,IAT(Formal),2021.2.3,Win32,59.88023952,,,,,,,,,,,,,,,,,,,,,,,,,,,,,,,,,,,,,,,,,,,,,,,,,,,,公正,e,,,e,1,0,69,69,23,1,0.7359,,
,,,,,,,,,,,,,,1 陈洋,001,2025-01-02_20h16.19.115,IAT(Formal),2021.2.3,Win32,59.88023952,,,,,,,,,,,,,,,,,,,,,,,,,,,,,,,,,,,,,,,,,,,,,,,,,,,,他的,e,,,i,0,0,70,70,67,1,0.8248,,
,,,,,,,,,,,,,,1 陈洋,001,2025-01-02_20h16.19.115,IAT(Formal),2021.2.3,Win32,59.88023952,,,,,,,,,,,,,,,,,,,,,,,,,,,,,,,,,,,,,,,,,,,,,,,,,,,,他,e,,,e,1,0,71,71,65,1,0.604,,
,,,,,,,,,,,,,,1 陈洋,001,2025-01-02_20h16.19.115,IAT(Formal),2021.2.3,Win32,59.88023952,,,,,,,,,,,,,,,,,,,,,,,,,,,,,,,,,,,,,,,,,,,,,,,,,,,,刻薄,i,,,i,1,0,72,72,33,1,0.6678,,
,,,,,,,,,,,,,,1 陈洋,001,2025-01-02_20h16.19.115,IAT(Formal),2021.2.3,Win32,59.88023952,,,,,,,,,,,,,,,,,,,,,,,,,,,,,,,,,,,,,,,,,,,,,,,,,,,,他人,e,,,i,0,0,73,73,78,1,1.2424,,
,,,,,,,,,,,,,,1 陈洋,001,2025-01-02_20h16.19.115,IAT(Formal),2021.2.3,Win32,59.88023952,,,,,,,,,,,,,,,,,,,,,,,,,,,,,,,,,,,,,,,,,,,,,,,,,,,,暴躁,i,,,i,1,0,74,74,44,1,0.7798,,
,,,,,,,,,,,,,,1 陈洋,001,2025-01-02_20h16.19.115,IAT(Formal),2021.2.3,Win32,59.88023952,,,,,,,,,,,,,,,,,,,,,,,,,,,,,,,,,,,,,,,,,,,,,,,,,,,,我们,i,,,i,1,0,75,75,52,1,0.7673,,
,,,,,,,,,,,,,,1 陈洋,001,2025-01-02_20h16.19.115,IAT(Formal),2021.2.3,Win32,59.88023952,,,,,,,,,,,,,,,,,,,,,,,,,,,,,,,,,,,,,,,,,,,,,,,,,,,,热情,e,,,e,1,0,76,76,27,1,0.7382,,
,,,,,,,,,,,,,,1 陈洋,001,2025-01-02_20h16.19.115,IAT(Formal),2021.2.3,Win32,59.88023952,,,,,,,,,,,,,,,,,,,,,,,,,,,,,,,,,,,,,,,,,,,,,,,,,,,,认真,e,,,e,1,0,77,77,20,1,0.5108,,
,,,,,,,,,,,,,,1 陈洋,001,2025-01-02_20h16.19.115,IAT(Formal),2021.2.3,Win32,59.88023952,,,,,,,,,,,,,,,,,,,,,,,,,,,,,,,,,,,,,,,,,,,,,,,,,,,,他们,e,,,i,0,0,78,78,76,1,0.6836,,
,,,,,,,,,,,,,,1 陈洋,001,2025-01-02_20h16.19.115,IAT(Formal),2021.2.3,Win32,59.88023952,,,,,,,,,,,,,,,,,,,,,,,,,,,,,,,,,,,,,,,,,,,,,,,,,,,,勇敢,e,,,e,1,0,79,79,17,1,0.901,,
,,,,,,,,,,,,,,1 陈洋,001,2025-01-02_20h16.19.115,IAT(Formal),2021.2.3,Win32,59.88023952,,,,,,,,,,,,,,,,,,,,,,,,,,,,,,,,,,,,,,,,,,,,,,,,,,,,我们,i,,,,0,1,0,80,2,1,,,
,,,,,,,,,,,,,,1 陈洋,001,2025-01-02_20h16.19.115,IAT(Formal),2021.2.3,Win32,59.88023952,,,,,,,,,,,,,,,,,,,,,,,,,,,,,,,,,,,,,,,,,,,,,,,,,,,,他,e,,,e,1,1,1,81,55,1,0.6224,,
,,,,,,,,,,,,,,1 陈洋,001,2025-01-02_20h16.19.115,IAT(Formal),2021.2.3,Win32,59.88023952,,,,,,,,,,,,,,,,,,,,,,,,,,,,,,,,,,,,,,,,,,,,,,,,,,,,活泼,e,,,e,1,1,2,82,28,1,0.6348,,
,,,,,,,,,,,,,,1 陈洋,001,2025-01-02_20h16.19.115,IAT(Formal),2021.2.3,Win32,59.88023952,,,,,,,,,,,,,,,,,,,,,,,,,,,,,,,,,,,,,,,,,,,,,,,,,,,,他们,e,,,,0,1,3,83,6,1,,,
,,,,,,,,,,,,,,1 陈洋,001,2025-01-02_20h16.19.115,IAT(Formal),2021.2.3,Win32,59.88023952,,,,,,,,,,,,,,,,,,,,,,,,,,,,,,,,,,,,,,,,,,,,,,,,,,,,他的,e,,,e,1,1,4,84,7,1,0.6514,,
,,,,,,,,,,,,,,1 陈洋,001,2025-01-02_20h16.19.115,IAT(Formal),2021.2.3,Win32,59.88023952,,,,,,,,,,,,,,,,,,,,,,,,,,,,,,,,,,,,,,,,,,,,,,,,,,,,杰出,e,,,e,1,1,5,85,13,1,0.6864,,
,,,,,,,,,,,,,,1 陈洋,001,2025-01-02_20h16.19.115,IAT(Formal),2021.2.3,Win32,59.88023952,,,,,,,,,,,,,,,,,,,,,,,,,,,,,,,,,,,,,,,,,,,,,,,,,,,,朴实,e,,,e,1,1,6,86,24,1,0.4679,,
,,,,,,,,,,,,,,1 陈洋,001,2025-01-02_20h16.19.115,IAT(Formal),2021.2.3,Win32,59.88023952,,,,,,,,,,,,,,,,,,,,,,,,,,,,,,,,,,,,,,,,,,,,,,,,,,,,我,i,,,i,1,1,7,87,50,1,0.5835,,
,,,,,,,,,,,,,,1 陈洋,001,2025-01-02_20h16.19.115,IAT(Formal),2021.2.3,Win32,59.88023952,,,,,,,,,,,,,,,,,,,,,,,,,,,,,,,,,,,,,,,,,,,,,,,,,,,,冷静,e,,,e,1,1,8,88,26,1,0.6171,,
,,,,,,,,,,,,,,1 陈洋,001,2025-01-02_20h16.19.115,IAT(Formal),2021.2.3,Win32,59.88023952,,,,,,,,,,,,,,,,,,,,,,,,,,,,,,,,,,,,,,,,,,,,,,,,,,,,其他,e,,,i,0,1,9,89,59,1,0.657,,
,,,,,,,,,,,,,,1 陈洋,001,2025-01-02_20h16.19.115,IAT(Formal),2021.2.3,Win32,59.88023952,,,,,,,,,,,,,,,,,,,,,,,,,,,,,,,,,,,,,,,,,,,,,,,,,,,,我,i,,,i,1,1,10,90,60,1,0.9962,,
,,,,,,,,,,,,,,1 陈洋,001,2025-01-02_20h16.19.115,IAT(Formal),2021.2.3,Win32,59.88023952,,,,,,,,,,,,,,,,,,,,,,,,,,,,,,,,,,,,,,,,,,,,,,,,,,,,他的,e,,,e,1,1,11,91,57,1,0.6599,,
,,,,,,,,,,,,,,1 陈洋,001,2025-01-02_20h16.19.115,IAT(Formal),2021.2.3,Win32,59.88023952,,,,,,,,,,,,,,,,,,,,,,,,,,,,,,,,,,,,,,,,,,,,,,,,,,,,无私,e,,,e,1,1,12,92,22,1,1.028,,
,,,,,,,,,,,,,,1 陈洋,001,2025-01-02_20h16.19.115,IAT(Formal),2021.2.3,Win32,59.88023952,,,,,,,,,,,,,,,,,,,,,,,,,,,,,,,,,,,,,,,,,,,,,,,,,,,,其他,e,,,i,0,1,13,93,69,1,0.8338,,
,,,,,,,,,,,,,,1 陈洋,001,2025-01-02_20h16.19.115,IAT(Formal),2021.2.3,Win32,59.88023952,,,,,,,,,,,,,,,,,,,,,,,,,,,,,,,,,,,,,,,,,,,,,,,,,,,,他们,e,,,e,1,1,14,94,76,1,0.6236,,
,,,,,,,,,,,,,,1 陈洋,001,2025-01-02_20h16.19.115,IAT(Formal),2021.2.3,Win32,59.88023952,,,,,,,,,,,,,,,,,,,,,,,,,,,,,,,,,,,,,,,,,,,,,,,,,,,,优秀,e,,,e,1,1,15,95,10,1,0.851,,
,,,,,,,,,,,,,,1 陈洋,001,2025-01-02_20h16.19.115,IAT(Formal),2021.2.3,Win32,59.88023952,,,,,,,,,,,,,,,,,,,,,,,,,,,,,,,,,,,,,,,,,,,,,,,,,,,,他的,e,,,i,0,1,16,96,67,1,0.6946,,
,,,,,,,,,,,,,,1 陈洋,001,2025-01-02_20h16.19.115,IAT(Formal),2021.2.3,Win32,59.88023952,,,,,,,,,,,,,,,,,,,,,,,,,,,,,,,,,,,,,,,,,,,,,,,,,,,,他们,e,,,e,1,1,17,97,66,1,0.7578,,
,,,,,,,,,,,,,,1 陈洋,001,2025-01-02_20h16.19.115,IAT(Formal),2021.2.3,Win32,59.88023952,,,,,,,,,,,,,,,,,,,,,,,,,,,,,,,,,,,,,,,,,,,,,,,,,,,,俺,i,,,i,1,1,18,98,74,1,0.7721,,
,,,,,,,,,,,,,,1 陈洋,001,2025-01-02_20h16.19.115,IAT(Formal),2021.2.3,Win32,59.88023952,,,,,,,,,,,,,,,,,,,,,,,,,,,,,,,,,,,,,,,,,,,,,,,,,,,,愚蠢,i,,,i,1,1,19,99,32,1,0.9506,,
,,,,,,,,,,,,,,1 陈洋,001,2025-01-02_20h16.19.115,IAT(Formal),2021.2.3,Win32,59.88023952,,,,,,,,,,,,,,,,,,,,,,,,,,,,,,,,,,,,,,,,,,,,,,,,,,,,其他,e,,,e,1,1,20,100,79,1,1.4056,,
,,,,,,,,,,,,,,1 陈洋,001,2025-01-02_20h16.19.115,IAT(Formal),2021.2.3,Win32,59.88023952,,,,,,,,,,,,,,,,,,,,,,,,,,,,,,,,,,,,,,,,,,,,,,,,,,,,散漫,i,,,e,0,1,21,101,41,1,0.618,,
,,,,,,,,,,,,,,1 陈洋,001,2025-01-02_20h16.19.115,IAT(Formal),2021.2.3,Win32,59.88023952,,,,,,,,,,,,,,,,,,,,,,,,,,,,,,,,,,,,,,,,,,,,,,,,,,,,俺,i,,,i,1,1,22,102,4,1,0.5033,,
,,,,,,,,,,,,,,1 陈洋,001,2025-01-02_20h16.19.115,IAT(Formal),2021.2.3,Win32,59.88023952,,,,,,,,,,,,,,,,,,,,,,,,,,,,,,,,,,,,,,,,,,,,,,,,,,,,自己,i,,,i,1,1,23,103,63,1,0.5832,,
,,,,,,,,,,,,,,1 陈洋,001,2025-01-02_20h16.19.115,IAT(Formal),2021.2.3,Win32,59.88023952,,,,,,,,,,,,,,,,,,,,,,,,,,,,,,,,,,,,,,,,,,,,,,,,,,,,稳重,e,,,e,1,1,24,104,21,1,0.6216,,
,,,,,,,,,,,,,,1 陈洋,001,2025-01-02_20h16.19.115,IAT(Formal),2021.2.3,Win32,59.88023952,,,,,,,,,,,,,,,,,,,,,,,,,,,,,,,,,,,,,,,,,,,,,,,,,,,,我的,i,,,i,1,1,25,105,61,1,0.627,,
,,,,,,,,,,,,,,1 陈洋,001,2025-01-02_20h16.19.115,IAT(Formal),2021.2.3,Win32,59.88023952,,,,,,,,,,,,,,,,,,,,,,,,,,,,,,,,,,,,,,,,,,,,,,,,,,,,他,e,,,e,1,1,26,106,65,1,0.5718,,
,,,,,,,,,,,,,,1 陈洋,001,2025-01-02_20h16.19.115,IAT(Formal),2021.2.3,Win32,59.88023952,,,,,,,,,,,,,,,,,,,,,,,,,,,,,,,,,,,,,,,,,,,,,,,,,,,,鲁莽,i,,,i,1,1,27,107,38,1,0.7535,,
,,,,,,,,,,,,,,1 陈洋,001,2025-01-02_20h16.19.115,IAT(Formal),2021.2.3,Win32,59.88023952,,,,,,,,,,,,,,,,,,,,,,,,,,,,,,,,,,,,,,,,,,,,,,,,,,,,他,e,,,e,1,1,28,108,75,1,0.5883,,
,,,,,,,,,,,,,,1 陈洋,001,2025-01-02_20h16.19.115,IAT(Formal),2021.2.3,Win32,59.88023952,,,,,,,,,,,,,,,,,,,,,,,,,,,,,,,,,,,,,,,,,,,,,,,,,,,,他,e,,,e,1,1,29,109,5,1,0.6172,,
,,,,,,,,,,,,,,1 陈洋,001,2025-01-02_20h16.19.115,IAT(Formal),2021.2.3,Win32,59.88023952,,,,,,,,,,,,,,,,,,,,,,,,,,,,,,,,,,,,,,,,,,,,,,,,,,,,暴躁,i,,,i,1,1,30,110,44,1,0.8002,,
,,,,,,,,,,,,,,1 陈洋,001,2025-01-02_20h16.19.115,IAT(Formal),2021.2.3,Win32,59.88023952,,,,,,,,,,,,,,,,,,,,,,,,,,,,,,,,,,,,,,,,,,,,,,,,,,,,他人,e,,,e,1,1,31,111,58,1,0.5672,,
,,,,,,,,,,,,,,1 陈洋,001,2025-01-02_20h16.19.115,IAT(Formal),2021.2.3,Win32,59.88023952,,,,,,,,,,,,,,,,,,,,,,,,,,,,,,,,,,,,,,,,,,,,,,,,,,,,刻薄,i,,,i,1,1,32,112,33,1,1.2036,,
,,,,,,,,,,,,,,1 陈洋,001,2025-01-02_20h16.19.115,IAT(Formal),2021.2.3,Win32,59.88023952,,,,,,,,,,,,,,,,,,,,,,,,,,,,,,,,,,,,,,,,,,,,,,,,,,,,我的,i,,,i,1,1,33,113,51,1,0.5196,,
,,,,,,,,,,,,,,1 陈洋,001,2025-01-02_20h16.19.115,IAT(Formal),2021.2.3,Win32,59.88023952,,,,,,,,,,,,,,,,,,,,,,,,,,,,,,,,,,,,,,,,,,,,,,,,,,,,他人,e,,,e,1,1,34,114,8,1,0.6195,,
,,,,,,,,,,,,,,1 陈洋,001,2025-01-02_20h16.19.115,IAT(Formal),2021.2.3,Win32,59.88023952,,,,,,,,,,,,,,,,,,,,,,,,,,,,,,,,,,,,,,,,,,,,,,,,,,,,冒失,i,,,i,1,1,35,115,39,1,0.5082,,
,,,,,,,,,,,,,,1 陈洋,001,2025-01-02_20h16.19.115,IAT(Formal),2021.2.3,Win32,59.88023952,,,,,,,,,,,,,,,,,,,,,,,,,,,,,,,,,,,,,,,,,,,,,,,,,,,,执拗,i,,,i,1,1,36,116,40,1,0.4887,,
,,,,,,,,,,,,,,1 陈洋,001,2025-01-02_20h16.19.115,IAT(Formal),2021.2.3,Win32,59.88023952,,,,,,,,,,,,,,,,,,,,,,,,,,,,,,,,,,,,,,,,,,,,,,,,,,,,勤奋,e,,,e,1,1,37,117,18,1,0.684,,
,,,,,,,,,,,,,,1 陈洋,001,2025-01-02_20h16.19.115,IAT(Formal),2021.2.3,Win32,59.88023952,,,,,,,,,,,,,,,,,,,,,,,,,,,,,,,,,,,,,,,,,,,,,,,,,,,,聪明,e,,,e,1,1,38,118,12,1,0.6345,,
,,,,,,,,,,,,,,1 陈洋,001,2025-01-02_20h16.19.115,IAT(Formal),2021.2.3,Win32,59.88023952,,,,,,,,,,,,,,,,,,,,,,,,,,,,,,,,,,,,,,,,,,,,,,,,,,,,我的,i,,,i,1,1,39,119,1,1,0.5343,,
,,,,,,,,,,,,,,1 陈洋,001,2025-01-02_20h16.19.115,IAT(Formal),2021.2.3,Win32,59.88023952,,,,,,,,,,,,,,,,,,,,,,,,,,,,,,,,,,,,,,,,,,,,,,,,,,,,傲慢,i,,,i,1,1,40,120,37,1,0.6866,,
,,,,,,,,,,,,,,1 陈洋,001,2025-01-02_20h16.19.115,IAT(Formal),2021.2.3,Win32,59.88023952,,,,,,,,,,,,,,,,,,,,,,,,,,,,,,,,,,,,,,,,,,,,,,,,,,,,卑鄙,i,,,i,1,1,41,121,30,1,0.5062,,
,,,,,,,,,,,,,,1 陈洋,001,2025-01-02_20h16.19.115,IAT(Formal),2021.2.3,Win32,59.88023952,,,,,,,,,,,,,,,,,,,,,,,,,,,,,,,,,,,,,,,,,,,,,,,,,,,,诚恳,e,,,e,1,1,42,122,29,1,0.7168,,
,,,,,,,,,,,,,,1 陈洋,001,2025-01-02_20h16.19.115,IAT(Formal),2021.2.3,Win32,59.88023952,,,,,,,,,,,,,,,,,,,,,,,,,,,,,,,,,,,,,,,,,,,,,,,,,,,,俺,i,,,i,1,1,43,123,54,1,0.6117,,
,,,,,,,,,,,,,,1 陈洋,001,2025-01-02_20h16.19.115,IAT(Formal),2021.2.3,Win32,59.88023952,,,,,,,,,,,,,,,,,,,,,,,,,,,,,,,,,,,,,,,,,,,,,,,,,,,,公正,e,,,e,1,1,44,124,23,1,0.5212,,
,,,,,,,,,,,,,,1 陈洋,001,2025-01-02_20h16.19.115,IAT(Formal),2021.2.3,Win32,59.88023952,,,,,,,,,,,,,,,,,,,,,,,,,,,,,,,,,,,,,,,,,,,,,,,,,,,,自己,i,,,i,1,1,45,125,53,1,0.487,,
,,,,,,,,,,,,,,1 陈洋,001,2025-01-02_20h16.19.115,IAT(Formal),2021.2.3,Win32,59.88023952,,,,,,,,,,,,,,,,,,,,,,,,,,,,,,,,,,,,,,,,,,,,,,,,,,,,我,i,,,i,1,1,46,126,70,1,0.3725,,
,,,,,,,,,,,,,,1 陈洋,001,2025-01-02_20h16.19.115,IAT(Formal),2021.2.3,Win32,59.88023952,,,,,,,,,,,,,,,,,,,,,,,,,,,,,,,,,,,,,,,,,,,,,,,,,,,,我们,i,,,i,1,1,47,127,72,1,0.4132,,
,,,,,,,,,,,,,,1 陈洋,001,2025-01-02_20h16.19.115,IAT(Formal),2021.2.3,Win32,59.88023952,,,,,,,,,,,,,,,,,,,,,,,,,,,,,,,,,,,,,,,,,,,,,,,,,,,,消极,i,,,e,0,1,48,128,35,1,0.5107,,
,,,,,,,,,,,,,,1 陈洋,001,2025-01-02_20h16.19.115,IAT(Formal),2021.2.3,Win32,59.88023952,,,,,,,,,,,,,,,,,,,,,,,,,,,,,,,,,,,,,,,,,,,,,,,,,,,,崇高,e,,,e,1,1,49,129,11,1,0.6176,,
,,,,,,,,,,,,,,1 陈洋,001,2025-01-02_20h16.19.115,IAT(Formal),2021.2.3,Win32,59.88023952,,,,,,,,,,,,,,,,,,,,,,,,,,,,,,,,,,,,,,,,,,,,,,,,,,,,正直,e,,,e,1,1,50,130,16,1,0.5553,,
,,,,,,,,,,,,,,1 陈洋,001,2025-01-02_20h16.19.115,IAT(Formal),2021.2.3,Win32,59.88023952,,,,,,,,,,,,,,,,,,,,,,,,,,,,,,,,,,,,,,,,,,,,,,,,,,,,自卑,i,,,i,1,1,51,131,36,1,0.5734,,
,,,,,,,,,,,,,,1 陈洋,001,2025-01-02_20h16.19.115,IAT(Formal),2021.2.3,Win32,59.88023952,,,,,,,,,,,,,,,,,,,,,,,,,,,,,,,,,,,,,,,,,,,,,,,,,,,,野蛮,i,,,i,1,1,52,132,46,1,1.1842,,
,,,,,,,,,,,,,,1 陈洋,001,2025-01-02_20h16.19.115,IAT(Formal),2021.2.3,Win32,59.88023952,,,,,,,,,,,,,,,,,,,,,,,,,,,,,,,,,,,,,,,,,,,,,,,,,,,,自己,i,,,i,1,1,53,133,3,1,0.6187,,
,,,,,,,,,,,,,,1 陈洋,001,2025-01-02_20h16.19.115,IAT(Formal),2021.2.3,Win32,59.88023952,,,,,,,,,,,,,,,,,,,,,,,,,,,,,,,,,,,,,,,,,,,,,,,,,,,,乐观,e,,,i,0,1,54,134,14,1,0.8012,,
,,,,,,,,,,,,,,1 陈洋,001,2025-01-02_20h16.19.115,IAT(Formal),2021.2.3,Win32,59.88023952,,,,,,,,,,,,,,,,,,,,,,,,,,,,,,,,,,,,,,,,,,,,,,,,,,,,轻率,i,,,i,1,1,55,135,48,1,0.8247,,
,,,,,,,,,,,,,,1 陈洋,001,2025-01-02_20h16.19.115,IAT(Formal),2021.2.3,Win32,59.88023952,,,,,,,,,,,,,,,,,,,,,,,,,,,,,,,,,,,,,,,,,,,,,,,,,,,,勇敢,e,,,i,0,1,56,136,17,1,0.5672,,
,,,,,,,,,,,,,,1 陈洋,001,2025-01-02_20h16.19.115,IAT(Formal),2021.2.3,Win32,59.88023952,,,,,,,,,,,,,,,,,,,,,,,,,,,,,,,,,,,,,,,,,,,,,,,,,,,,他人,e,,,i,0,1,57,137,68,1,1.1507,,
,,,,,,,,,,,,,,1 陈洋,001,2025-01-02_20h16.19.115,IAT(Formal),2021.2.3,Win32,59.88023952,,,,,,,,,,,,,,,,,,,,,,,,,,,,,,,,,,,,,,,,,,,,,,,,,,,,机智,e,,,e,1,1,58,138,19,1,0.7006,,
,,,,,,,,,,,,,,1 陈洋,001,2025-01-02_20h16.19.115,IAT(Formal),2021.2.3,Win32,59.88023952,,,,,,,,,,,,,,,,,,,,,,,,,,,,,,,,,,,,,,,,,,,,,,,,,,,,悲观,i,,,i,1,1,59,139,34,1,0.5503,,
,,,,,,,,,,,,,,1 陈洋,001,2025-01-02_20h16.19.115,IAT(Formal),2021.2.3,Win32,59.88023952,,,,,,,,,,,,,,,,,,,,,,,,,,,,,,,,,,,,,,,,,,,,,,,,,,,,我们,i,,,i,1,1,60,140,52,1,0.5875,,
,,,,,,,,,,,,,,1 陈洋,001,2025-01-02_20h16.19.115,IAT(Formal),2021.2.3,Win32,59.88023952,,,,,,,,,,,,,,,,,,,,,,,,,,,,,,,,,,,,,,,,,,,,,,,,,,,,细腻,e,,,e,1,1,61,141,25,1,0.7841,,
,,,,,,,,,,,,,,1 陈洋,001,2025-01-02_20h16.19.115,IAT(Formal),2021.2.3,Win32,59.88023952,,,,,,,,,,,,,,,,,,,,,,,,,,,,,,,,,,,,,,,,,,,,,,,,,,,,自私,i,,,i,1,1,62,142,43,1,0.6344,,
,,,,,,,,,,,,,,1 陈洋,001,2025-01-02_20h16.19.115,IAT(Formal),2021.2.3,Win32,59.88023952,,,,,,,,,,,,,,,,,,,,,,,,,,,,,,,,,,,,,,,,,,,,,,,,,,,,凶狠,i,,,i,1,1,63,143,42,1,1.1506,,
,,,,,,,,,,,,,,1 陈洋,001,2025-01-02_20h16.19.115,IAT(Formal),2021.2.3,Win32,59.88023952,,,,,,,,,,,,,,,,,,,,,,,,,,,,,,,,,,,,,,,,,,,,,,,,,,,,虚伪,i,,,i,1,1,64,144,31,1,0.5708,,
,,,,,,,,,,,,,,1 陈洋,001,2025-01-02_20h16.19.115,IAT(Formal),2021.2.3,Win32,59.88023952,,,,,,,,,,,,,,,,,,,,,,,,,,,,,,,,,,,,,,,,,,,,,,,,,,,,我,i,,,i,1,1,65,145,0,1,0.4837,,
,,,,,,,,,,,,,,1 陈洋,001,2025-01-02_20h16.19.115,IAT(Formal),2021.2.3,Win32,59.88023952,,,,,,,,,,,,,,,,,,,,,,,,,,,,,,,,,,,,,,,,,,,,,,,,,,,,诚实,e,,,e,1,1,66,146,15,1,0.5725,,
,,,,,,,,,,,,,,1 陈洋,001,2025-01-02_20h16.19.115,IAT(Formal),2021.2.3,Win32,59.88023952,,,,,,,,,,,,,,,,,,,,,,,,,,,,,,,,,,,,,,,,,,,,,,,,,,,,下贱,i,,,i,1,1,67,147,49,1,0.5355,,
,,,,,,,,,,,,,,1 陈洋,001,2025-01-02_20h16.19.115,IAT(Formal),2021.2.3,Win32,59.88023952,,,,,,,,,,,,,,,,,,,,,,,,,,,,,,,,,,,,,,,,,,,,,,,,,,,,认真,e,,,e,1,1,68,148,20,1,0.784,,
,,,,,,,,,,,,,,1 陈洋,001,2025-01-02_20h16.19.115,IAT(Formal),2021.2.3,Win32,59.88023952,,,,,,,,,,,,,,,,,,,,,,,,,,,,,,,,,,,,,,,,,,,,,,,,,,,,猖狂,i,,,i,1,1,69,149,45,1,0.4913,,
,,,,,,,,,,,,,,1 陈洋,001,2025-01-02_20h16.19.115,IAT(Formal),2021.2.3,Win32,59.88023952,,,,,,,,,,,,,,,,,,,,,,,,,,,,,,,,,,,,,,,,,,,,,,,,,,,,热情,e,,,e,1,1,70,150,27,1,1.0684,,
,,,,,,,,,,,,,,1 陈洋,001,2025-01-02_20h16.19.115,IAT(Formal),2021.2.3,Win32,59.88023952,,,,,,,,,,,,,,,,,,,,,,,,,,,,,,,,,,,,,,,,,,,,,,,,,,,,我们,i,,,i,1,1,71,151,62,1,0.5505,,
,,,,,,,,,,,,,,1 陈洋,001,2025-01-02_20h16.19.115,IAT(Formal),2021.2.3,Win32,59.88023952,,,,,,,,,,,,,,,,,,,,,,,,,,,,,,,,,,,,,,,,,,,,,,,,,,,,我的,i,,,i,1,1,72,152,71,1,0.468,,
,,,,,,,,,,,,,,1 陈洋,001,2025-01-02_20h16.19.115,IAT(Formal),2021.2.3,Win32,59.88023952,,,,,,,,,,,,,,,,,,,,,,,,,,,,,,,,,,,,,,,,,,,,,,,,,,,,他人,e,,,e,1,1,73,153,78,1,0.5172,,
,,,,,,,,,,,,,,1 陈洋,001,2025-01-02_20h16.19.115,IAT(Formal),2021.2.3,Win32,59.88023952,,,,,,,,,,,,,,,,,,,,,,,,,,,,,,,,,,,,,,,,,,,,,,,,,,,,自己,i,,,i,1,1,74,154,73,1,0.5054,,
,,,,,,,,,,,,,,1 陈洋,001,2025-01-02_20h16.19.115,IAT(Formal),2021.2.3,Win32,59.88023952,,,,,,,,,,,,,,,,,,,,,,,,,,,,,,,,,,,,,,,,,,,,,,,,,,,,俺,i,,,i,1,1,75,155,64,1,0.6004,,
,,,,,,,,,,,,,,1 陈洋,001,2025-01-02_20h16.19.115,IAT(Formal),2021.2.3,Win32,59.88023952,,,,,,,,,,,,,,,,,,,,,,,,,,,,,,,,,,,,,,,,,,,,,,,,,,,,他们,e,,,e,1,1,76,156,56,1,0.6411,,
,,,,,,,,,,,,,,1 陈洋,001,2025-01-02_20h16.19.115,IAT(Formal),2021.2.3,Win32,59.88023952,,,,,,,,,,,,,,,,,,,,,,,,,,,,,,,,,,,,,,,,,,,,,,,,,,,,他的,e,,,e,1,1,77,157,77,1,1.1174,,
,,,,,,,,,,,,,,1 陈洋,001,2025-01-02_20h16.19.115,IAT(Formal),2021.2.3,Win32,59.88023952,,,,,,,,,,,,,,,,,,,,,,,,,,,,,,,,,,,,,,,,,,,,,,,,,,,,固执,i,,,i,1,1,78,158,47,1,0.8184,,
,,,,,,,,,,,,,,1 陈洋,001,2025-01-02_20h16.19.115,IAT(Formal),2021.2.3,Win32,59.88023952,,,,,,,,,,,,,,,,,,,,,,,,,,,,,,,,,,,,,,,,,,,,,,,,,,,,其他,e,,,e,1,1,79,159,9,1,0.8504,,
,,,,,,,,,,,,,,1 陈洋,001,2025-01-02_20h16.19.115,IAT(Formal),2021.2.3,Win32,59.88023952,,,,,,,,,,,,,,,,,,,,,,,,,,,,,,,,,,,,,,,,,,,,,,,,,,,,,,,,,,,,,,,,space,7.1871