﻿Instruction1.keys,Instruction1.rt,Instruction2.keys,Instruction2.rt,key_resp_iso.keys,key_resp_iso.corr,Practice_01.thisRepN,Practice_01.thisTrialN,Practice_01.thisN,Practice_01.thisIndex,Practice_01.ran,Words,ans,participant,session,date,expName,psychopyVersion,OS,frameRate,key_resp_iso.rt,key_resp_3.keys,key_resp_3.rt,key_resp_ipn.keys,key_resp_ipn.corr,key_resp_ipn.rt,Practice_02.thisRepN,Practice_02.thisTrialN,Practice_02.thisN,Practice_02.thisIndex,Practice_02.ran,Words_ipn,ans_ipn,key_resp_4.keys,key_resp_4.rt,key_resp_t1.keys,key_resp_t1.corr,key_resp_t1.rt,Practice_T1.thisRepN,Practice_T1.thisTrialN,Practice_T1.thisN,Practice_T1.thisIndex,Practice_T1.ran,Words_t1,ans_t1,key_resp_5.keys,key_resp_5.rt,Formal_T1.thisRepN,Formal_T1.thisTrialN,Formal_T1.thisN,Formal_T1.thisIndex,Formal_T1.ran,key_resp_6.keys,key_resp_6.rt,key_resp_iso_reverse.keys,key_resp_iso_reverse.corr,Practice_iso_Reverse.thisRepN,Practice_iso_Reverse.thisTrialN,Practice_iso_Reverse.thisN,Practice_iso_Reverse.thisIndex,Practice_iso_Reverse.ran,key_resp_iso_reverse.rt,key_resp_7.keys,key_resp_7.rt,key_resp_t2_Practice.keys,key_resp_t2_Practice.corr,key_resp_t2_Practice.rt,Practice_t2_Reverse.thisRepN,Practice_t2_Reverse.thisTrialN,Practice_t2_Reverse.thisN,Practice_t2_Reverse.thisIndex,Practice_t2_Reverse.ran,Words_t2,ans_t2,key_resp_8.keys,key_resp_8.rt,key_resp_t2.keys,key_resp_t2.corr,key_resp_t2.rt,Formal_t2_reverse.thisRepN,Formal_t2_reverse.thisTrialN,Formal_t2_reverse.thisN,Formal_t2_reverse.thisIndex,Formal_t2_reverse.ran,key_instruct.keys,key_instruct.rt
space,7.6971,space,9.0724,,0,0,0,0,0,1,我,e,用户61870,001,2024-08-23_13h57.34.560,IAT(Formal),2021.2.3,Win32,58.82352941,,,,,,,,,,,,,,,,,,,,,,,,,,,,,,,,,,,,,,,,,,,,,,,,,,,,,,,,,,,,,,,,,,
,,,,e,0,0,1,1,5,1,他,i,用户61870,001,2024-08-23_13h57.34.560,IAT(Formal),2021.2.3,Win32,58.82352941,0.9733,,,,,,,,,,,,,,,,,,,,,,,,,,,,,,,,,,,,,,,,,,,,,,,,,,,,,,,,,,,,,,,,,
,,,,i,0,0,2,2,4,1,俺,e,用户61870,001,2024-08-23_13h57.34.560,IAT(Formal),2021.2.3,Win32,58.82352941,0.2099,,,,,,,,,,,,,,,,,,,,,,,,,,,,,,,,,,,,,,,,,,,,,,,,,,,,,,,,,,,,,,,,,
,,,,e,1,0,3,3,1,1,我的,e,用户61870,001,2024-08-23_13h57.34.560,IAT(Formal),2021.2.3,Win32,58.82352941,0.5508,,,,,,,,,,,,,,,,,,,,,,,,,,,,,,,,,,,,,,,,,,,,,,,,,,,,,,,,,,,,,,,,,
,,,,i,1,0,4,4,7,1,他的,i,用户61870,001,2024-08-23_13h57.34.560,IAT(Formal),2021.2.3,Win32,58.82352941,0.7051,,,,,,,,,,,,,,,,,,,,,,,,,,,,,,,,,,,,,,,,,,,,,,,,,,,,,,,,,,,,,,,,,
,,,,i,1,0,5,5,6,1,他们,i,用户61870,001,2024-08-23_13h57.34.560,IAT(Formal),2021.2.3,Win32,58.82352941,0.767,,,,,,,,,,,,,,,,,,,,,,,,,,,,,,,,,,,,,,,,,,,,,,,,,,,,,,,,,,,,,,,,,
,,,,i,1,0,6,6,8,1,他人,i,用户61870,001,2024-08-23_13h57.34.560,IAT(Formal),2021.2.3,Win32,58.82352941,0.5689,,,,,,,,,,,,,,,,,,,,,,,,,,,,,,,,,,,,,,,,,,,,,,,,,,,,,,,,,,,,,,,,,
,,,,i,1,0,7,7,9,1,其他,i,用户61870,001,2024-08-23_13h57.34.560,IAT(Formal),2021.2.3,Win32,58.82352941,0.8246,,,,,,,,,,,,,,,,,,,,,,,,,,,,,,,,,,,,,,,,,,,,,,,,,,,,,,,,,,,,,,,,,
,,,,e,1,0,8,8,2,1,我们,e,用户61870,001,2024-08-23_13h57.34.560,IAT(Formal),2021.2.3,Win32,58.82352941,0.5657,,,,,,,,,,,,,,,,,,,,,,,,,,,,,,,,,,,,,,,,,,,,,,,,,,,,,,,,,,,,,,,,,
,,,,e,1,0,9,9,3,1,自己,e,用户61870,001,2024-08-23_13h57.34.560,IAT(Formal),2021.2.3,Win32,58.82352941,0.5453,,,,,,,,,,,,,,,,,,,,,,,,,,,,,,,,,,,,,,,,,,,,,,,,,,,,,,,,,,,,,,,,,
,,,,,,,,,,,,,用户61870,001,2024-08-23_13h57.34.560,IAT(Formal),2021.2.3,Win32,58.82352941,,space,3.0928,i,1,0.601,0,0,0,39,1,下贱,i,,,,,,,,,,,,,,,,,,,,,,,,,,,,,,,,,,,,,,,,,,,,,,,,,,,,,
,,,,,,,,,,,,,用户61870,001,2024-08-23_13h57.34.560,IAT(Formal),2021.2.3,Win32,58.82352941,,,,i,1,0.6735,0,1,1,32,1,凶狠,i,,,,,,,,,,,,,,,,,,,,,,,,,,,,,,,,,,,,,,,,,,,,,,,,,,,,,
,,,,,,,,,,,,,用户61870,001,2024-08-23_13h57.34.560,IAT(Formal),2021.2.3,Win32,58.82352941,,,,e,0,0.5499,0,2,2,38,1,轻率,i,,,,,,,,,,,,,,,,,,,,,,,,,,,,,,,,,,,,,,,,,,,,,,,,,,,,,
,,,,,,,,,,,,,用户61870,001,2024-08-23_13h57.34.560,IAT(Formal),2021.2.3,Win32,58.82352941,,,,i,0,0.522,0,3,3,17,1,热情,e,,,,,,,,,,,,,,,,,,,,,,,,,,,,,,,,,,,,,,,,,,,,,,,,,,,,,
,,,,,,,,,,,,,用户61870,001,2024-08-23_13h57.34.560,IAT(Formal),2021.2.3,Win32,58.82352941,,,,i,1,0.6841,0,4,4,24,1,悲观,i,,,,,,,,,,,,,,,,,,,,,,,,,,,,,,,,,,,,,,,,,,,,,,,,,,,,,
,,,,,,,,,,,,,用户61870,001,2024-08-23_13h57.34.560,IAT(Formal),2021.2.3,Win32,58.82352941,,,,e,1,0.5582,0,5,5,2,1,聪明,e,,,,,,,,,,,,,,,,,,,,,,,,,,,,,,,,,,,,,,,,,,,,,,,,,,,,,
,,,,,,,,,,,,,用户61870,001,2024-08-23_13h57.34.560,IAT(Formal),2021.2.3,Win32,58.82352941,,,,i,1,0.409,0,6,6,25,1,消极,i,,,,,,,,,,,,,,,,,,,,,,,,,,,,,,,,,,,,,,,,,,,,,,,,,,,,,
,,,,,,,,,,,,,用户61870,001,2024-08-23_13h57.34.560,IAT(Formal),2021.2.3,Win32,58.82352941,,,,e,1,0.7339,0,7,7,14,1,朴实,e,,,,,,,,,,,,,,,,,,,,,,,,,,,,,,,,,,,,,,,,,,,,,,,,,,,,,
,,,,,,,,,,,,,用户61870,001,2024-08-23_13h57.34.560,IAT(Formal),2021.2.3,Win32,58.82352941,,,,e,1,0.9068,0,8,8,5,1,诚实,e,,,,,,,,,,,,,,,,,,,,,,,,,,,,,,,,,,,,,,,,,,,,,,,,,,,,,
,,,,,,,,,,,,,用户61870,001,2024-08-23_13h57.34.560,IAT(Formal),2021.2.3,Win32,58.82352941,,,,e,1,0.5108,0,9,9,6,1,正直,e,,,,,,,,,,,,,,,,,,,,,,,,,,,,,,,,,,,,,,,,,,,,,,,,,,,,,
,,,,,,,,,,,,,用户61870,001,2024-08-23_13h57.34.560,IAT(Formal),2021.2.3,Win32,58.82352941,,,,i,1,0.6191,0,10,10,27,1,傲慢,i,,,,,,,,,,,,,,,,,,,,,,,,,,,,,,,,,,,,,,,,,,,,,,,,,,,,,
,,,,,,,,,,,,,用户61870,001,2024-08-23_13h57.34.560,IAT(Formal),2021.2.3,Win32,58.82352941,,,,i,1,0.7936,0,11,11,26,1,自卑,i,,,,,,,,,,,,,,,,,,,,,,,,,,,,,,,,,,,,,,,,,,,,,,,,,,,,,
,,,,,,,,,,,,,用户61870,001,2024-08-23_13h57.34.560,IAT(Formal),2021.2.3,Win32,58.82352941,,,,e,1,0.7464,0,12,12,15,1,细腻,e,,,,,,,,,,,,,,,,,,,,,,,,,,,,,,,,,,,,,,,,,,,,,,,,,,,,,
,,,,,,,,,,,,,用户61870,001,2024-08-23_13h57.34.560,IAT(Formal),2021.2.3,Win32,58.82352941,,,,i,1,0.9436,0,13,13,23,1,刻薄,i,,,,,,,,,,,,,,,,,,,,,,,,,,,,,,,,,,,,,,,,,,,,,,,,,,,,,
,,,,,,,,,,,,,用户61870,001,2024-08-23_13h57.34.560,IAT(Formal),2021.2.3,Win32,58.82352941,,,,i,1,0.6276,0,14,14,36,1,野蛮,i,,,,,,,,,,,,,,,,,,,,,,,,,,,,,,,,,,,,,,,,,,,,,,,,,,,,,
,,,,,,,,,,,,,用户61870,001,2024-08-23_13h57.34.560,IAT(Formal),2021.2.3,Win32,58.82352941,,,,i,1,1.0169,0,15,15,34,1,暴躁,i,,,,,,,,,,,,,,,,,,,,,,,,,,,,,,,,,,,,,,,,,,,,,,,,,,,,,
,,,,,,,,,,,,,用户61870,001,2024-08-23_13h57.34.560,IAT(Formal),2021.2.3,Win32,58.82352941,,,,i,1,0.5497,0,16,16,31,1,散漫,i,,,,,,,,,,,,,,,,,,,,,,,,,,,,,,,,,,,,,,,,,,,,,,,,,,,,,
,,,,,,,,,,,,,用户61870,001,2024-08-23_13h57.34.560,IAT(Formal),2021.2.3,Win32,58.82352941,,,,i,1,0.8061,0,17,17,21,1,虚伪,i,,,,,,,,,,,,,,,,,,,,,,,,,,,,,,,,,,,,,,,,,,,,,,,,,,,,,
,,,,,,,,,,,,,用户61870,001,2024-08-23_13h57.34.560,IAT(Formal),2021.2.3,Win32,58.82352941,,,,e,1,0.7053,0,18,18,18,1,活泼,e,,,,,,,,,,,,,,,,,,,,,,,,,,,,,,,,,,,,,,,,,,,,,,,,,,,,,
,,,,,,,,,,,,,用户61870,001,2024-08-23_13h57.34.560,IAT(Formal),2021.2.3,Win32,58.82352941,,,,i,1,0.7551,0,19,19,20,1,卑鄙,i,,,,,,,,,,,,,,,,,,,,,,,,,,,,,,,,,,,,,,,,,,,,,,,,,,,,,
,,,,,,,,,,,,,用户61870,001,2024-08-23_13h57.34.560,IAT(Formal),2021.2.3,Win32,58.82352941,,,,e,1,0.7042,0,20,20,16,1,冷静,e,,,,,,,,,,,,,,,,,,,,,,,,,,,,,,,,,,,,,,,,,,,,,,,,,,,,,
,,,,,,,,,,,,,用户61870,001,2024-08-23_13h57.34.560,IAT(Formal),2021.2.3,Win32,58.82352941,,,,e,1,0.9004,0,21,21,12,1,无私,e,,,,,,,,,,,,,,,,,,,,,,,,,,,,,,,,,,,,,,,,,,,,,,,,,,,,,
,,,,,,,,,,,,,用户61870,001,2024-08-23_13h57.34.560,IAT(Formal),2021.2.3,Win32,58.82352941,,,,e,1,0.5078,0,22,22,8,1,勤奋,e,,,,,,,,,,,,,,,,,,,,,,,,,,,,,,,,,,,,,,,,,,,,,,,,,,,,,
,,,,,,,,,,,,,用户61870,001,2024-08-23_13h57.34.560,IAT(Formal),2021.2.3,Win32,58.82352941,,,,e,1,0.5205,0,23,23,4,1,乐观,e,,,,,,,,,,,,,,,,,,,,,,,,,,,,,,,,,,,,,,,,,,,,,,,,,,,,,
,,,,,,,,,,,,,用户61870,001,2024-08-23_13h57.34.560,IAT(Formal),2021.2.3,Win32,58.82352941,,,,e,1,0.4863,0,24,24,19,1,诚恳,e,,,,,,,,,,,,,,,,,,,,,,,,,,,,,,,,,,,,,,,,,,,,,,,,,,,,,
,,,,,,,,,,,,,用户61870,001,2024-08-23_13h57.34.560,IAT(Formal),2021.2.3,Win32,58.82352941,,,,i,1,0.6704,0,25,25,22,1,愚蠢,i,,,,,,,,,,,,,,,,,,,,,,,,,,,,,,,,,,,,,,,,,,,,,,,,,,,,,
,,,,,,,,,,,,,用户61870,001,2024-08-23_13h57.34.560,IAT(Formal),2021.2.3,Win32,58.82352941,,,,e,1,0.6845,0,26,26,11,1,稳重,e,,,,,,,,,,,,,,,,,,,,,,,,,,,,,,,,,,,,,,,,,,,,,,,,,,,,,
,,,,,,,,,,,,,用户61870,001,2024-08-23_13h57.34.560,IAT(Formal),2021.2.3,Win32,58.82352941,,,,e,1,0.6899,0,27,27,9,1,机智,e,,,,,,,,,,,,,,,,,,,,,,,,,,,,,,,,,,,,,,,,,,,,,,,,,,,,,
,,,,,,,,,,,,,用户61870,001,2024-08-23_13h57.34.560,IAT(Formal),2021.2.3,Win32,58.82352941,,,,e,1,0.5061,0,28,28,0,1,优秀,e,,,,,,,,,,,,,,,,,,,,,,,,,,,,,,,,,,,,,,,,,,,,,,,,,,,,,
,,,,,,,,,,,,,用户61870,001,2024-08-23_13h57.34.560,IAT(Formal),2021.2.3,Win32,58.82352941,,,,i,1,0.6276,0,29,29,33,1,自私,i,,,,,,,,,,,,,,,,,,,,,,,,,,,,,,,,,,,,,,,,,,,,,,,,,,,,,
,,,,,,,,,,,,,用户61870,001,2024-08-23_13h57.34.560,IAT(Formal),2021.2.3,Win32,58.82352941,,,,e,1,0.6082,0,30,30,10,1,认真,e,,,,,,,,,,,,,,,,,,,,,,,,,,,,,,,,,,,,,,,,,,,,,,,,,,,,,
,,,,,,,,,,,,,用户61870,001,2024-08-23_13h57.34.560,IAT(Formal),2021.2.3,Win32,58.82352941,,,,i,1,0.5849,0,31,31,28,1,鲁莽,i,,,,,,,,,,,,,,,,,,,,,,,,,,,,,,,,,,,,,,,,,,,,,,,,,,,,,
,,,,,,,,,,,,,用户61870,001,2024-08-23_13h57.34.560,IAT(Formal),2021.2.3,Win32,58.82352941,,,,e,1,0.6411,0,32,32,13,1,公正,e,,,,,,,,,,,,,,,,,,,,,,,,,,,,,,,,,,,,,,,,,,,,,,,,,,,,,
,,,,,,,,,,,,,用户61870,001,2024-08-23_13h57.34.560,IAT(Formal),2021.2.3,Win32,58.82352941,,,,i,1,0.6688,0,33,33,30,1,执拗,i,,,,,,,,,,,,,,,,,,,,,,,,,,,,,,,,,,,,,,,,,,,,,,,,,,,,,
,,,,,,,,,,,,,用户61870,001,2024-08-23_13h57.34.560,IAT(Formal),2021.2.3,Win32,58.82352941,,,,e,1,0.441,0,34,34,7,1,勇敢,e,,,,,,,,,,,,,,,,,,,,,,,,,,,,,,,,,,,,,,,,,,,,,,,,,,,,,
,,,,,,,,,,,,,用户61870,001,2024-08-23_13h57.34.560,IAT(Formal),2021.2.3,Win32,58.82352941,,,,e,1,0.5785,0,35,35,3,1,杰出,e,,,,,,,,,,,,,,,,,,,,,,,,,,,,,,,,,,,,,,,,,,,,,,,,,,,,,
,,,,,,,,,,,,,用户61870,001,2024-08-23_13h57.34.560,IAT(Formal),2021.2.3,Win32,58.82352941,,,,i,1,0.6508,0,36,36,29,1,冒失,i,,,,,,,,,,,,,,,,,,,,,,,,,,,,,,,,,,,,,,,,,,,,,,,,,,,,,
,,,,,,,,,,,,,用户61870,001,2024-08-23_13h57.34.560,IAT(Formal),2021.2.3,Win32,58.82352941,,,,e,1,1.1006,0,37,37,1,1,崇高,e,,,,,,,,,,,,,,,,,,,,,,,,,,,,,,,,,,,,,,,,,,,,,,,,,,,,,
,,,,,,,,,,,,,用户61870,001,2024-08-23_13h57.34.560,IAT(Formal),2021.2.3,Win32,58.82352941,,,,i,1,0.8868,0,38,38,37,1,固执,i,,,,,,,,,,,,,,,,,,,,,,,,,,,,,,,,,,,,,,,,,,,,,,,,,,,,,
,,,,,,,,,,,,,用户61870,001,2024-08-23_13h57.34.560,IAT(Formal),2021.2.3,Win32,58.82352941,,,,i,1,0.8673,0,39,39,35,1,猖狂,i,,,,,,,,,,,,,,,,,,,,,,,,,,,,,,,,,,,,,,,,,,,,,,,,,,,,,
,,,,,,,,,,,,,用户61870,001,2024-08-23_13h57.34.560,IAT(Formal),2021.2.3,Win32,58.82352941,,,,,,,,,,,,,,space,7.8608,e,1,0.6035,0,0,0,19,1,机智,e,,,,,,,,,,,,,,,,,,,,,,,,,,,,,,,,,,,,,,,,,
,,,,,,,,,,,,,用户61870,001,2024-08-23_13h57.34.560,IAT(Formal),2021.2.3,Win32,58.82352941,,,,,,,,,,,,,,,,e,1,0.5217,0,1,1,17,1,勇敢,e,,,,,,,,,,,,,,,,,,,,,,,,,,,,,,,,,,,,,,,,,
,,,,,,,,,,,,,用户61870,001,2024-08-23_13h57.34.560,IAT(Formal),2021.2.3,Win32,58.82352941,,,,,,,,,,,,,,,,i,1,0.6054,0,2,2,42,1,凶狠,i,,,,,,,,,,,,,,,,,,,,,,,,,,,,,,,,,,,,,,,,,
,,,,,,,,,,,,,用户61870,001,2024-08-23_13h57.34.560,IAT(Formal),2021.2.3,Win32,58.82352941,,,,,,,,,,,,,,,,i,1,0.5242,0,3,3,33,1,刻薄,i,,,,,,,,,,,,,,,,,,,,,,,,,,,,,,,,,,,,,,,,,
,,,,,,,,,,,,,用户61870,001,2024-08-23_13h57.34.560,IAT(Formal),2021.2.3,Win32,58.82352941,,,,,,,,,,,,,,,,e,1,0.3937,0,4,4,71,1,我的,e,,,,,,,,,,,,,,,,,,,,,,,,,,,,,,,,,,,,,,,,,
,,,,,,,,,,,,,用户61870,001,2024-08-23_13h57.34.560,IAT(Formal),2021.2.3,Win32,58.82352941,,,,,,,,,,,,,,,,e,1,0.4674,0,5,5,2,1,我们,e,,,,,,,,,,,,,,,,,,,,,,,,,,,,,,,,,,,,,,,,,
,,,,,,,,,,,,,用户61870,001,2024-08-23_13h57.34.560,IAT(Formal),2021.2.3,Win32,58.82352941,,,,,,,,,,,,,,,,i,1,0.558,0,6,6,40,1,执拗,i,,,,,,,,,,,,,,,,,,,,,,,,,,,,,,,,,,,,,,,,,
,,,,,,,,,,,,,用户61870,001,2024-08-23_13h57.34.560,IAT(Formal),2021.2.3,Win32,58.82352941,,,,,,,,,,,,,,,,e,1,0.534,0,7,7,4,1,俺,e,,,,,,,,,,,,,,,,,,,,,,,,,,,,,,,,,,,,,,,,,
,,,,,,,,,,,,,用户61870,001,2024-08-23_13h57.34.560,IAT(Formal),2021.2.3,Win32,58.82352941,,,,,,,,,,,,,,,,i,1,0.4513,0,8,8,37,1,傲慢,i,,,,,,,,,,,,,,,,,,,,,,,,,,,,,,,,,,,,,,,,,
,,,,,,,,,,,,,用户61870,001,2024-08-23_13h57.34.560,IAT(Formal),2021.2.3,Win32,58.82352941,,,,,,,,,,,,,,,,e,0,0.8284,0,9,9,47,1,固执,i,,,,,,,,,,,,,,,,,,,,,,,,,,,,,,,,,,,,,,,,,
,,,,,,,,,,,,,用户61870,001,2024-08-23_13h57.34.560,IAT(Formal),2021.2.3,Win32,58.82352941,,,,,,,,,,,,,,,,e,0,1.0834,0,10,10,78,1,他人,i,,,,,,,,,,,,,,,,,,,,,,,,,,,,,,,,,,,,,,,,,
,,,,,,,,,,,,,用户61870,001,2024-08-23_13h57.34.560,IAT(Formal),2021.2.3,Win32,58.82352941,,,,,,,,,,,,,,,,e,1,0.805,0,11,11,18,1,勤奋,e,,,,,,,,,,,,,,,,,,,,,,,,,,,,,,,,,,,,,,,,,
,,,,,,,,,,,,,用户61870,001,2024-08-23_13h57.34.560,IAT(Formal),2021.2.3,Win32,58.82352941,,,,,,,,,,,,,,,,i,1,1.2203,0,12,12,66,1,他们,i,,,,,,,,,,,,,,,,,,,,,,,,,,,,,,,,,,,,,,,,,
,,,,,,,,,,,,,用户61870,001,2024-08-23_13h57.34.560,IAT(Formal),2021.2.3,Win32,58.82352941,,,,,,,,,,,,,,,,i,1,1.0352,0,13,13,31,1,虚伪,i,,,,,,,,,,,,,,,,,,,,,,,,,,,,,,,,,,,,,,,,,
,,,,,,,,,,,,,用户61870,001,2024-08-23_13h57.34.560,IAT(Formal),2021.2.3,Win32,58.82352941,,,,,,,,,,,,,,,,i,1,0.7421,0,14,14,38,1,鲁莽,i,,,,,,,,,,,,,,,,,,,,,,,,,,,,,,,,,,,,,,,,,
,,,,,,,,,,,,,用户61870,001,2024-08-23_13h57.34.560,IAT(Formal),2021.2.3,Win32,58.82352941,,,,,,,,,,,,,,,,i,1,0.916,0,15,15,69,1,其他,i,,,,,,,,,,,,,,,,,,,,,,,,,,,,,,,,,,,,,,,,,
,,,,,,,,,,,,,用户61870,001,2024-08-23_13h57.34.560,IAT(Formal),2021.2.3,Win32,58.82352941,,,,,,,,,,,,,,,,i,1,0.7835,0,16,16,67,1,他的,i,,,,,,,,,,,,,,,,,,,,,,,,,,,,,,,,,,,,,,,,,
,,,,,,,,,,,,,用户61870,001,2024-08-23_13h57.34.560,IAT(Formal),2021.2.3,Win32,58.82352941,,,,,,,,,,,,,,,,i,0,1.2772,0,17,17,74,1,俺,e,,,,,,,,,,,,,,,,,,,,,,,,,,,,,,,,,,,,,,,,,
,,,,,,,,,,,,,用户61870,001,2024-08-23_13h57.34.560,IAT(Formal),2021.2.3,Win32,58.82352941,,,,,,,,,,,,,,,,e,1,0.6757,0,18,18,50,1,我,e,,,,,,,,,,,,,,,,,,,,,,,,,,,,,,,,,,,,,,,,,
,,,,,,,,,,,,,用户61870,001,2024-08-23_13h57.34.560,IAT(Formal),2021.2.3,Win32,58.82352941,,,,,,,,,,,,,,,,i,1,0.8431,0,19,19,65,1,他,i,,,,,,,,,,,,,,,,,,,,,,,,,,,,,,,,,,,,,,,,,
,,,,,,,,,,,,,用户61870,001,2024-08-23_13h57.34.560,IAT(Formal),2021.2.3,Win32,58.82352941,,,,,,,,,,,,,,,,e,1,0.8059,0,20,20,10,1,优秀,e,,,,,,,,,,,,,,,,,,,,,,,,,,,,,,,,,,,,,,,,,
,,,,,,,,,,,,,用户61870,001,2024-08-23_13h57.34.560,IAT(Formal),2021.2.3,Win32,58.82352941,,,,,,,,,,,,,,,,i,0,1.1584,0,21,21,26,1,冷静,e,,,,,,,,,,,,,,,,,,,,,,,,,,,,,,,,,,,,,,,,,
,,,,,,,,,,,,,用户61870,001,2024-08-23_13h57.34.560,IAT(Formal),2021.2.3,Win32,58.82352941,,,,,,,,,,,,,,,,i,1,0.9691,0,22,22,55,1,他,i,,,,,,,,,,,,,,,,,,,,,,,,,,,,,,,,,,,,,,,,,
,,,,,,,,,,,,,用户61870,001,2024-08-23_13h57.34.560,IAT(Formal),2021.2.3,Win32,58.82352941,,,,,,,,,,,,,,,,e,1,0.9232,0,23,23,29,1,诚恳,e,,,,,,,,,,,,,,,,,,,,,,,,,,,,,,,,,,,,,,,,,
,,,,,,,,,,,,,用户61870,001,2024-08-23_13h57.34.560,IAT(Formal),2021.2.3,Win32,58.82352941,,,,,,,,,,,,,,,,i,1,0.7034,0,24,24,57,1,他的,i,,,,,,,,,,,,,,,,,,,,,,,,,,,,,,,,,,,,,,,,,
,,,,,,,,,,,,,用户61870,001,2024-08-23_13h57.34.560,IAT(Formal),2021.2.3,Win32,58.82352941,,,,,,,,,,,,,,,,e,0,0.9843,0,25,25,48,1,轻率,i,,,,,,,,,,,,,,,,,,,,,,,,,,,,,,,,,,,,,,,,,
,,,,,,,,,,,,,用户61870,001,2024-08-23_13h57.34.560,IAT(Formal),2021.2.3,Win32,58.82352941,,,,,,,,,,,,,,,,i,1,0.5852,0,26,26,43,1,自私,i,,,,,,,,,,,,,,,,,,,,,,,,,,,,,,,,,,,,,,,,,
,,,,,,,,,,,,,用户61870,001,2024-08-23_13h57.34.560,IAT(Formal),2021.2.3,Win32,58.82352941,,,,,,,,,,,,,,,,i,1,1.1354,0,27,27,58,1,他人,i,,,,,,,,,,,,,,,,,,,,,,,,,,,,,,,,,,,,,,,,,
,,,,,,,,,,,,,用户61870,001,2024-08-23_13h57.34.560,IAT(Formal),2021.2.3,Win32,58.82352941,,,,,,,,,,,,,,,,i,1,0.6505,0,28,28,75,1,他,i,,,,,,,,,,,,,,,,,,,,,,,,,,,,,,,,,,,,,,,,,
,,,,,,,,,,,,,用户61870,001,2024-08-23_13h57.34.560,IAT(Formal),2021.2.3,Win32,58.82352941,,,,,,,,,,,,,,,,i,1,0.7551,0,29,29,41,1,散漫,i,,,,,,,,,,,,,,,,,,,,,,,,,,,,,,,,,,,,,,,,,
,,,,,,,,,,,,,用户61870,001,2024-08-23_13h57.34.560,IAT(Formal),2021.2.3,Win32,58.82352941,,,,,,,,,,,,,,,,i,1,0.8419,0,30,30,45,1,猖狂,i,,,,,,,,,,,,,,,,,,,,,,,,,,,,,,,,,,,,,,,,,
,,,,,,,,,,,,,用户61870,001,2024-08-23_13h57.34.560,IAT(Formal),2021.2.3,Win32,58.82352941,,,,,,,,,,,,,,,,e,1,0.9182,0,31,31,27,1,热情,e,,,,,,,,,,,,,,,,,,,,,,,,,,,,,,,,,,,,,,,,,
,,,,,,,,,,,,,用户61870,001,2024-08-23_13h57.34.560,IAT(Formal),2021.2.3,Win32,58.82352941,,,,,,,,,,,,,,,,e,1,1.1339,0,32,32,63,1,自己,e,,,,,,,,,,,,,,,,,,,,,,,,,,,,,,,,,,,,,,,,,
,,,,,,,,,,,,,用户61870,001,2024-08-23_13h57.34.560,IAT(Formal),2021.2.3,Win32,58.82352941,,,,,,,,,,,,,,,,e,1,0.5343,0,33,33,70,1,我,e,,,,,,,,,,,,,,,,,,,,,,,,,,,,,,,,,,,,,,,,,
,,,,,,,,,,,,,用户61870,001,2024-08-23_13h57.34.560,IAT(Formal),2021.2.3,Win32,58.82352941,,,,,,,,,,,,,,,,i,1,1.045,0,34,34,7,1,他的,i,,,,,,,,,,,,,,,,,,,,,,,,,,,,,,,,,,,,,,,,,
,,,,,,,,,,,,,用户61870,001,2024-08-23_13h57.34.560,IAT(Formal),2021.2.3,Win32,58.82352941,,,,,,,,,,,,,,,,e,1,0.9395,0,35,35,16,1,正直,e,,,,,,,,,,,,,,,,,,,,,,,,,,,,,,,,,,,,,,,,,
,,,,,,,,,,,,,用户61870,001,2024-08-23_13h57.34.560,IAT(Formal),2021.2.3,Win32,58.82352941,,,,,,,,,,,,,,,,e,1,1.1039,0,36,36,54,1,俺,e,,,,,,,,,,,,,,,,,,,,,,,,,,,,,,,,,,,,,,,,,
,,,,,,,,,,,,,用户61870,001,2024-08-23_13h57.34.560,IAT(Formal),2021.2.3,Win32,58.82352941,,,,,,,,,,,,,,,,,0,,0,37,37,35,1,消极,i,,,,,,,,,,,,,,,,,,,,,,,,,,,,,,,,,,,,,,,,,
,,,,,,,,,,,,,用户61870,001,2024-08-23_13h57.34.560,IAT(Formal),2021.2.3,Win32,58.82352941,,,,,,,,,,,,,,,,e,1,0.5501,0,38,38,12,1,聪明,e,,,,,,,,,,,,,,,,,,,,,,,,,,,,,,,,,,,,,,,,,
,,,,,,,,,,,,,用户61870,001,2024-08-23_13h57.34.560,IAT(Formal),2021.2.3,Win32,58.82352941,,,,,,,,,,,,,,,,i,1,0.8845,0,39,39,39,1,冒失,i,,,,,,,,,,,,,,,,,,,,,,,,,,,,,,,,,,,,,,,,,
,,,,,,,,,,,,,用户61870,001,2024-08-23_13h57.34.560,IAT(Formal),2021.2.3,Win32,58.82352941,,,,,,,,,,,,,,,,i,1,0.9243,0,40,40,77,1,他的,i,,,,,,,,,,,,,,,,,,,,,,,,,,,,,,,,,,,,,,,,,
,,,,,,,,,,,,,用户61870,001,2024-08-23_13h57.34.560,IAT(Formal),2021.2.3,Win32,58.82352941,,,,,,,,,,,,,,,,i,1,0.6665,0,41,41,44,1,暴躁,i,,,,,,,,,,,,,,,,,,,,,,,,,,,,,,,,,,,,,,,,,
,,,,,,,,,,,,,用户61870,001,2024-08-23_13h57.34.560,IAT(Formal),2021.2.3,Win32,58.82352941,,,,,,,,,,,,,,,,e,1,0.7334,0,42,42,51,1,我的,e,,,,,,,,,,,,,,,,,,,,,,,,,,,,,,,,,,,,,,,,,
,,,,,,,,,,,,,用户61870,001,2024-08-23_13h57.34.560,IAT(Formal),2021.2.3,Win32,58.82352941,,,,,,,,,,,,,,,,i,1,0.9502,0,43,43,32,1,愚蠢,i,,,,,,,,,,,,,,,,,,,,,,,,,,,,,,,,,,,,,,,,,
,,,,,,,,,,,,,用户61870,001,2024-08-23_13h57.34.560,IAT(Formal),2021.2.3,Win32,58.82352941,,,,,,,,,,,,,,,,e,1,1.035,0,44,44,15,1,诚实,e,,,,,,,,,,,,,,,,,,,,,,,,,,,,,,,,,,,,,,,,,
,,,,,,,,,,,,,用户61870,001,2024-08-23_13h57.34.560,IAT(Formal),2021.2.3,Win32,58.82352941,,,,,,,,,,,,,,,,e,1,0.5702,0,45,45,3,1,自己,e,,,,,,,,,,,,,,,,,,,,,,,,,,,,,,,,,,,,,,,,,
,,,,,,,,,,,,,用户61870,001,2024-08-23_13h57.34.560,IAT(Formal),2021.2.3,Win32,58.82352941,,,,,,,,,,,,,,,,i,1,1.0951,0,46,46,59,1,其他,i,,,,,,,,,,,,,,,,,,,,,,,,,,,,,,,,,,,,,,,,,
,,,,,,,,,,,,,用户61870,001,2024-08-23_13h57.34.560,IAT(Formal),2021.2.3,Win32,58.82352941,,,,,,,,,,,,,,,,e,1,0.9837,0,47,47,53,1,自己,e,,,,,,,,,,,,,,,,,,,,,,,,,,,,,,,,,,,,,,,,,
,,,,,,,,,,,,,用户61870,001,2024-08-23_13h57.34.560,IAT(Formal),2021.2.3,Win32,58.82352941,,,,,,,,,,,,,,,,e,1,0.9833,0,48,48,73,1,自己,e,,,,,,,,,,,,,,,,,,,,,,,,,,,,,,,,,,,,,,,,,
,,,,,,,,,,,,,用户61870,001,2024-08-23_13h57.34.560,IAT(Formal),2021.2.3,Win32,58.82352941,,,,,,,,,,,,,,,,i,1,1.1857,0,49,49,56,1,他们,i,,,,,,,,,,,,,,,,,,,,,,,,,,,,,,,,,,,,,,,,,
,,,,,,,,,,,,,用户61870,001,2024-08-23_13h57.34.560,IAT(Formal),2021.2.3,Win32,58.82352941,,,,,,,,,,,,,,,,e,1,1.0383,0,50,50,14,1,乐观,e,,,,,,,,,,,,,,,,,,,,,,,,,,,,,,,,,,,,,,,,,
,,,,,,,,,,,,,用户61870,001,2024-08-23_13h57.34.560,IAT(Formal),2021.2.3,Win32,58.82352941,,,,,,,,,,,,,,,,,0,,0,51,51,8,1,他人,i,,,,,,,,,,,,,,,,,,,,,,,,,,,,,,,,,,,,,,,,,
,,,,,,,,,,,,,用户61870,001,2024-08-23_13h57.34.560,IAT(Formal),2021.2.3,Win32,58.82352941,,,,,,,,,,,,,,,,e,1,0.5056,0,52,52,72,1,我们,e,,,,,,,,,,,,,,,,,,,,,,,,,,,,,,,,,,,,,,,,,
,,,,,,,,,,,,,用户61870,001,2024-08-23_13h57.34.560,IAT(Formal),2021.2.3,Win32,58.82352941,,,,,,,,,,,,,,,,e,1,0.7383,0,53,53,62,1,我们,e,,,,,,,,,,,,,,,,,,,,,,,,,,,,,,,,,,,,,,,,,
,,,,,,,,,,,,,用户61870,001,2024-08-23_13h57.34.560,IAT(Formal),2021.2.3,Win32,58.82352941,,,,,,,,,,,,,,,,e,1,0.9436,0,54,54,0,1,我,e,,,,,,,,,,,,,,,,,,,,,,,,,,,,,,,,,,,,,,,,,
,,,,,,,,,,,,,用户61870,001,2024-08-23_13h57.34.560,IAT(Formal),2021.2.3,Win32,58.82352941,,,,,,,,,,,,,,,,i,1,0.8336,0,55,55,46,1,野蛮,i,,,,,,,,,,,,,,,,,,,,,,,,,,,,,,,,,,,,,,,,,
,,,,,,,,,,,,,用户61870,001,2024-08-23_13h57.34.560,IAT(Formal),2021.2.3,Win32,58.82352941,,,,,,,,,,,,,,,,i,1,0.7521,0,56,56,30,1,卑鄙,i,,,,,,,,,,,,,,,,,,,,,,,,,,,,,,,,,,,,,,,,,
,,,,,,,,,,,,,用户61870,001,2024-08-23_13h57.34.560,IAT(Formal),2021.2.3,Win32,58.82352941,,,,,,,,,,,,,,,,e,1,0.7515,0,57,57,22,1,无私,e,,,,,,,,,,,,,,,,,,,,,,,,,,,,,,,,,,,,,,,,,
,,,,,,,,,,,,,用户61870,001,2024-08-23_13h57.34.560,IAT(Formal),2021.2.3,Win32,58.82352941,,,,,,,,,,,,,,,,i,1,0.6676,0,58,58,5,1,他,i,,,,,,,,,,,,,,,,,,,,,,,,,,,,,,,,,,,,,,,,,
,,,,,,,,,,,,,用户61870,001,2024-08-23_13h57.34.560,IAT(Formal),2021.2.3,Win32,58.82352941,,,,,,,,,,,,,,,,e,1,0.6675,0,59,59,1,1,我的,e,,,,,,,,,,,,,,,,,,,,,,,,,,,,,,,,,,,,,,,,,
,,,,,,,,,,,,,用户61870,001,2024-08-23_13h57.34.560,IAT(Formal),2021.2.3,Win32,58.82352941,,,,,,,,,,,,,,,,e,1,0.7169,0,60,60,13,1,杰出,e,,,,,,,,,,,,,,,,,,,,,,,,,,,,,,,,,,,,,,,,,
,,,,,,,,,,,,,用户61870,001,2024-08-23_13h57.34.560,IAT(Formal),2021.2.3,Win32,58.82352941,,,,,,,,,,,,,,,,,0,,0,61,61,24,1,朴实,e,,,,,,,,,,,,,,,,,,,,,,,,,,,,,,,,,,,,,,,,,
,,,,,,,,,,,,,用户61870,001,2024-08-23_13h57.34.560,IAT(Formal),2021.2.3,Win32,58.82352941,,,,,,,,,,,,,,,,i,1,0.7677,0,62,62,76,1,他们,i,,,,,,,,,,,,,,,,,,,,,,,,,,,,,,,,,,,,,,,,,
,,,,,,,,,,,,,用户61870,001,2024-08-23_13h57.34.560,IAT(Formal),2021.2.3,Win32,58.82352941,,,,,,,,,,,,,,,,e,1,0.6122,0,63,63,61,1,我的,e,,,,,,,,,,,,,,,,,,,,,,,,,,,,,,,,,,,,,,,,,
,,,,,,,,,,,,,用户61870,001,2024-08-23_13h57.34.560,IAT(Formal),2021.2.3,Win32,58.82352941,,,,,,,,,,,,,,,,i,1,0.6233,0,64,64,6,1,他们,i,,,,,,,,,,,,,,,,,,,,,,,,,,,,,,,,,,,,,,,,,
,,,,,,,,,,,,,用户61870,001,2024-08-23_13h57.34.560,IAT(Formal),2021.2.3,Win32,58.82352941,,,,,,,,,,,,,,,,e,1,1.2717,0,65,65,64,1,俺,e,,,,,,,,,,,,,,,,,,,,,,,,,,,,,,,,,,,,,,,,,
,,,,,,,,,,,,,用户61870,001,2024-08-23_13h57.34.560,IAT(Formal),2021.2.3,Win32,58.82352941,,,,,,,,,,,,,,,,,0,,0,66,66,28,1,活泼,e,,,,,,,,,,,,,,,,,,,,,,,,,,,,,,,,,,,,,,,,,
,,,,,,,,,,,,,用户61870,001,2024-08-23_13h57.34.560,IAT(Formal),2021.2.3,Win32,58.82352941,,,,,,,,,,,,,,,,e,1,0.6647,0,67,67,11,1,崇高,e,,,,,,,,,,,,,,,,,,,,,,,,,,,,,,,,,,,,,,,,,
,,,,,,,,,,,,,用户61870,001,2024-08-23_13h57.34.560,IAT(Formal),2021.2.3,Win32,58.82352941,,,,,,,,,,,,,,,,i,1,0.7993,0,68,68,68,1,他人,i,,,,,,,,,,,,,,,,,,,,,,,,,,,,,,,,,,,,,,,,,
,,,,,,,,,,,,,用户61870,001,2024-08-23_13h57.34.560,IAT(Formal),2021.2.3,Win32,58.82352941,,,,,,,,,,,,,,,,e,1,0.9556,0,69,69,25,1,细腻,e,,,,,,,,,,,,,,,,,,,,,,,,,,,,,,,,,,,,,,,,,
,,,,,,,,,,,,,用户61870,001,2024-08-23_13h57.34.560,IAT(Formal),2021.2.3,Win32,58.82352941,,,,,,,,,,,,,,,,i,1,0.601,0,70,70,36,1,自卑,i,,,,,,,,,,,,,,,,,,,,,,,,,,,,,,,,,,,,,,,,,
,,,,,,,,,,,,,用户61870,001,2024-08-23_13h57.34.560,IAT(Formal),2021.2.3,Win32,58.82352941,,,,,,,,,,,,,,,,i,1,0.6881,0,71,71,79,1,其他,i,,,,,,,,,,,,,,,,,,,,,,,,,,,,,,,,,,,,,,,,,
,,,,,,,,,,,,,用户61870,001,2024-08-23_13h57.34.560,IAT(Formal),2021.2.3,Win32,58.82352941,,,,,,,,,,,,,,,,e,1,0.6641,0,72,72,20,1,认真,e,,,,,,,,,,,,,,,,,,,,,,,,,,,,,,,,,,,,,,,,,
,,,,,,,,,,,,,用户61870,001,2024-08-23_13h57.34.560,IAT(Formal),2021.2.3,Win32,58.82352941,,,,,,,,,,,,,,,,e,1,0.7727,0,73,73,23,1,公正,e,,,,,,,,,,,,,,,,,,,,,,,,,,,,,,,,,,,,,,,,,
,,,,,,,,,,,,,用户61870,001,2024-08-23_13h57.34.560,IAT(Formal),2021.2.3,Win32,58.82352941,,,,,,,,,,,,,,,,i,1,0.6079,0,74,74,9,1,其他,i,,,,,,,,,,,,,,,,,,,,,,,,,,,,,,,,,,,,,,,,,
,,,,,,,,,,,,,用户61870,001,2024-08-23_13h57.34.560,IAT(Formal),2021.2.3,Win32,58.82352941,,,,,,,,,,,,,,,,i,1,0.8323,0,75,75,34,1,悲观,i,,,,,,,,,,,,,,,,,,,,,,,,,,,,,,,,,,,,,,,,,
,,,,,,,,,,,,,用户61870,001,2024-08-23_13h57.34.560,IAT(Formal),2021.2.3,Win32,58.82352941,,,,,,,,,,,,,,,,e,1,0.649,0,76,76,52,1,我们,e,,,,,,,,,,,,,,,,,,,,,,,,,,,,,,,,,,,,,,,,,
,,,,,,,,,,,,,用户61870,001,2024-08-23_13h57.34.560,IAT(Formal),2021.2.3,Win32,58.82352941,,,,,,,,,,,,,,,,e,1,0.4919,0,77,77,60,1,我,e,,,,,,,,,,,,,,,,,,,,,,,,,,,,,,,,,,,,,,,,,
,,,,,,,,,,,,,用户61870,001,2024-08-23_13h57.34.560,IAT(Formal),2021.2.3,Win32,58.82352941,,,,,,,,,,,,,,,,i,1,0.4923,0,78,78,49,1,下贱,i,,,,,,,,,,,,,,,,,,,,,,,,,,,,,,,,,,,,,,,,,
,,,,,,,,,,,,,用户61870,001,2024-08-23_13h57.34.560,IAT(Formal),2021.2.3,Win32,58.82352941,,,,,,,,,,,,,,,,e,1,0.6515,0,79,79,21,1,稳重,e,,,,,,,,,,,,,,,,,,,,,,,,,,,,,,,,,,,,,,,,,
,,,,,,,,,,,,,用户61870,001,2024-08-23_13h57.34.560,IAT(Formal),2021.2.3,Win32,58.82352941,,,,,,,,,,,,,,,,i,1,0.7025,,,,,,虚伪,i,space,6.938,0,0,0,31,1,,,,,,,,,,,,,,,,,,,,,,,,,,,,,,,,,,
,,,,,,,,,,,,,用户61870,001,2024-08-23_13h57.34.560,IAT(Formal),2021.2.3,Win32,58.82352941,,,,,,,,,,,,,,,,i,1,0.454,,,,,,暴躁,i,,,0,1,1,44,1,,,,,,,,,,,,,,,,,,,,,,,,,,,,,,,,,,
,,,,,,,,,,,,,用户61870,001,2024-08-23_13h57.34.560,IAT(Formal),2021.2.3,Win32,58.82352941,,,,,,,,,,,,,,,,e,1,0.5431,,,,,,我的,e,,,0,2,2,71,1,,,,,,,,,,,,,,,,,,,,,,,,,,,,,,,,,,
,,,,,,,,,,,,,用户61870,001,2024-08-23_13h57.34.560,IAT(Formal),2021.2.3,Win32,58.82352941,,,,,,,,,,,,,,,,e,1,0.6206,,,,,,我们,e,,,0,3,3,2,1,,,,,,,,,,,,,,,,,,,,,,,,,,,,,,,,,,
,,,,,,,,,,,,,用户61870,001,2024-08-23_13h57.34.560,IAT(Formal),2021.2.3,Win32,58.82352941,,,,,,,,,,,,,,,,e,1,0.5344,,,,,,俺,e,,,0,4,4,54,1,,,,,,,,,,,,,,,,,,,,,,,,,,,,,,,,,,
,,,,,,,,,,,,,用户61870,001,2024-08-23_13h57.34.560,IAT(Formal),2021.2.3,Win32,58.82352941,,,,,,,,,,,,,,,,i,1,0.5267,,,,,,他的,i,,,0,5,5,7,1,,,,,,,,,,,,,,,,,,,,,,,,,,,,,,,,,,
,,,,,,,,,,,,,用户61870,001,2024-08-23_13h57.34.560,IAT(Formal),2021.2.3,Win32,58.82352941,,,,,,,,,,,,,,,,e,1,0.5896,,,,,,朴实,e,,,0,6,6,24,1,,,,,,,,,,,,,,,,,,,,,,,,,,,,,,,,,,
,,,,,,,,,,,,,用户61870,001,2024-08-23_13h57.34.560,IAT(Formal),2021.2.3,Win32,58.82352941,,,,,,,,,,,,,,,,i,1,0.6255,,,,,,执拗,i,,,0,7,7,40,1,,,,,,,,,,,,,,,,,,,,,,,,,,,,,,,,,,
,,,,,,,,,,,,,用户61870,001,2024-08-23_13h57.34.560,IAT(Formal),2021.2.3,Win32,58.82352941,,,,,,,,,,,,,,,,i,1,1.1886,,,,,,野蛮,i,,,0,8,8,46,1,,,,,,,,,,,,,,,,,,,,,,,,,,,,,,,,,,
,,,,,,,,,,,,,用户61870,001,2024-08-23_13h57.34.560,IAT(Formal),2021.2.3,Win32,58.82352941,,,,,,,,,,,,,,,,e,1,0.6841,,,,,,认真,e,,,0,9,9,20,1,,,,,,,,,,,,,,,,,,,,,,,,,,,,,,,,,,
,,,,,,,,,,,,,用户61870,001,2024-08-23_13h57.34.560,IAT(Formal),2021.2.3,Win32,58.82352941,,,,,,,,,,,,,,,,i,1,0.8634,,,,,,消极,i,,,0,10,10,35,1,,,,,,,,,,,,,,,,,,,,,,,,,,,,,,,,,,
,,,,,,,,,,,,,用户61870,001,2024-08-23_13h57.34.560,IAT(Formal),2021.2.3,Win32,58.82352941,,,,,,,,,,,,,,,,i,1,0.8427,,,,,,卑鄙,i,,,0,11,11,30,1,,,,,,,,,,,,,,,,,,,,,,,,,,,,,,,,,,
,,,,,,,,,,,,,用户61870,001,2024-08-23_13h57.34.560,IAT(Formal),2021.2.3,Win32,58.82352941,,,,,,,,,,,,,,,,i,1,0.8569,,,,,,他们,i,,,0,12,12,76,1,,,,,,,,,,,,,,,,,,,,,,,,,,,,,,,,,,
,,,,,,,,,,,,,用户61870,001,2024-08-23_13h57.34.560,IAT(Formal),2021.2.3,Win32,58.82352941,,,,,,,,,,,,,,,,i,1,0.8754,,,,,,他人,i,,,0,13,13,58,1,,,,,,,,,,,,,,,,,,,,,,,,,,,,,,,,,,
,,,,,,,,,,,,,用户61870,001,2024-08-23_13h57.34.560,IAT(Formal),2021.2.3,Win32,58.82352941,,,,,,,,,,,,,,,,i,0,0.82,,,,,,冷静,e,,,0,14,14,26,1,,,,,,,,,,,,,,,,,,,,,,,,,,,,,,,,,,
,,,,,,,,,,,,,用户61870,001,2024-08-23_13h57.34.560,IAT(Formal),2021.2.3,Win32,58.82352941,,,,,,,,,,,,,,,,e,1,1.1232,,,,,,我们,e,,,0,15,15,62,1,,,,,,,,,,,,,,,,,,,,,,,,,,,,,,,,,,
,,,,,,,,,,,,,用户61870,001,2024-08-23_13h57.34.560,IAT(Formal),2021.2.3,Win32,58.82352941,,,,,,,,,,,,,,,,i,1,1.1891,,,,,,猖狂,i,,,0,16,16,45,1,,,,,,,,,,,,,,,,,,,,,,,,,,,,,,,,,,
,,,,,,,,,,,,,用户61870,001,2024-08-23_13h57.34.560,IAT(Formal),2021.2.3,Win32,58.82352941,,,,,,,,,,,,,,,,i,1,1.1965,,,,,,其他,i,,,0,17,17,79,1,,,,,,,,,,,,,,,,,,,,,,,,,,,,,,,,,,
,,,,,,,,,,,,,用户61870,001,2024-08-23_13h57.34.560,IAT(Formal),2021.2.3,Win32,58.82352941,,,,,,,,,,,,,,,,,0,,,,,,,他,i,,,0,18,18,5,1,,,,,,,,,,,,,,,,,,,,,,,,,,,,,,,,,,
,,,,,,,,,,,,,用户61870,001,2024-08-23_13h57.34.560,IAT(Formal),2021.2.3,Win32,58.82352941,,,,,,,,,,,,,,,,e,1,0.5941,,,,,,勇敢,e,,,0,19,19,17,1,,,,,,,,,,,,,,,,,,,,,,,,,,,,,,,,,,
,,,,,,,,,,,,,用户61870,001,2024-08-23_13h57.34.560,IAT(Formal),2021.2.3,Win32,58.82352941,,,,,,,,,,,,,,,,e,1,1.1266,,,,,,聪明,e,,,0,20,20,12,1,,,,,,,,,,,,,,,,,,,,,,,,,,,,,,,,,,
,,,,,,,,,,,,,用户61870,001,2024-08-23_13h57.34.560,IAT(Formal),2021.2.3,Win32,58.82352941,,,,,,,,,,,,,,,,i,0,0.9324,,,,,,我们,e,,,0,21,21,72,1,,,,,,,,,,,,,,,,,,,,,,,,,,,,,,,,,,
,,,,,,,,,,,,,用户61870,001,2024-08-23_13h57.34.560,IAT(Formal),2021.2.3,Win32,58.82352941,,,,,,,,,,,,,,,,e,1,0.7068,,,,,,自己,e,,,0,22,22,53,1,,,,,,,,,,,,,,,,,,,,,,,,,,,,,,,,,,
,,,,,,,,,,,,,用户61870,001,2024-08-23_13h57.34.560,IAT(Formal),2021.2.3,Win32,58.82352941,,,,,,,,,,,,,,,,,0,,,,,,,他的,i,,,0,23,23,67,1,,,,,,,,,,,,,,,,,,,,,,,,,,,,,,,,,,
,,,,,,,,,,,,,用户61870,001,2024-08-23_13h57.34.560,IAT(Formal),2021.2.3,Win32,58.82352941,,,,,,,,,,,,,,,,i,1,0.9159,,,,,,其他,i,,,0,24,24,59,1,,,,,,,,,,,,,,,,,,,,,,,,,,,,,,,,,,
,,,,,,,,,,,,,用户61870,001,2024-08-23_13h57.34.560,IAT(Formal),2021.2.3,Win32,58.82352941,,,,,,,,,,,,,,,,e,1,0.609,,,,,,崇高,e,,,0,25,25,11,1,,,,,,,,,,,,,,,,,,,,,,,,,,,,,,,,,,
,,,,,,,,,,,,,用户61870,001,2024-08-23_13h57.34.560,IAT(Formal),2021.2.3,Win32,58.82352941,,,,,,,,,,,,,,,,i,1,0.7163,,,,,,自卑,i,,,0,26,26,36,1,,,,,,,,,,,,,,,,,,,,,,,,,,,,,,,,,,
,,,,,,,,,,,,,用户61870,001,2024-08-23_13h57.34.560,IAT(Formal),2021.2.3,Win32,58.82352941,,,,,,,,,,,,,,,,i,1,1.1137,,,,,,其他,i,,,0,27,27,69,1,,,,,,,,,,,,,,,,,,,,,,,,,,,,,,,,,,
,,,,,,,,,,,,,用户61870,001,2024-08-23_13h57.34.560,IAT(Formal),2021.2.3,Win32,58.82352941,,,,,,,,,,,,,,,,e,1,1.2991,,,,,,俺,e,,,0,28,28,4,1,,,,,,,,,,,,,,,,,,,,,,,,,,,,,,,,,,
,,,,,,,,,,,,,用户61870,001,2024-08-23_13h57.34.560,IAT(Formal),2021.2.3,Win32,58.82352941,,,,,,,,,,,,,,,,i,1,0.653,,,,,,他的,i,,,0,29,29,57,1,,,,,,,,,,,,,,,,,,,,,,,,,,,,,,,,,,
,,,,,,,,,,,,,用户61870,001,2024-08-23_13h57.34.560,IAT(Formal),2021.2.3,Win32,58.82352941,,,,,,,,,,,,,,,,,0,,,,,,,我,e,,,0,30,30,70,1,,,,,,,,,,,,,,,,,,,,,,,,,,,,,,,,,,
,,,,,,,,,,,,,用户61870,001,2024-08-23_13h57.34.560,IAT(Formal),2021.2.3,Win32,58.82352941,,,,,,,,,,,,,,,,e,1,0.5636,,,,,,活泼,e,,,0,31,31,28,1,,,,,,,,,,,,,,,,,,,,,,,,,,,,,,,,,,
,,,,,,,,,,,,,用户61870,001,2024-08-23_13h57.34.560,IAT(Formal),2021.2.3,Win32,58.82352941,,,,,,,,,,,,,,,,e,1,0.7486,,,,,,机智,e,,,0,32,32,19,1,,,,,,,,,,,,,,,,,,,,,,,,,,,,,,,,,,
,,,,,,,,,,,,,用户61870,001,2024-08-23_13h57.34.560,IAT(Formal),2021.2.3,Win32,58.82352941,,,,,,,,,,,,,,,,e,1,0.8842,,,,,,热情,e,,,0,33,33,27,1,,,,,,,,,,,,,,,,,,,,,,,,,,,,,,,,,,
,,,,,,,,,,,,,用户61870,001,2024-08-23_13h57.34.560,IAT(Formal),2021.2.3,Win32,58.82352941,,,,,,,,,,,,,,,,e,0,0.8918,,,,,,轻率,i,,,0,34,34,48,1,,,,,,,,,,,,,,,,,,,,,,,,,,,,,,,,,,
,,,,,,,,,,,,,用户61870,001,2024-08-23_13h57.34.560,IAT(Formal),2021.2.3,Win32,58.82352941,,,,,,,,,,,,,,,,,0,,,,,,,他们,i,,,0,35,35,6,1,,,,,,,,,,,,,,,,,,,,,,,,,,,,,,,,,,
,,,,,,,,,,,,,用户61870,001,2024-08-23_13h57.34.560,IAT(Formal),2021.2.3,Win32,58.82352941,,,,,,,,,,,,,,,,i,1,0.5792,,,,,,凶狠,i,,,0,36,36,42,1,,,,,,,,,,,,,,,,,,,,,,,,,,,,,,,,,,
,,,,,,,,,,,,,用户61870,001,2024-08-23_13h57.34.560,IAT(Formal),2021.2.3,Win32,58.82352941,,,,,,,,,,,,,,,,e,1,1.3835,,,,,,我的,e,,,0,37,37,51,1,,,,,,,,,,,,,,,,,,,,,,,,,,,,,,,,,,
,,,,,,,,,,,,,用户61870,001,2024-08-23_13h57.34.560,IAT(Formal),2021.2.3,Win32,58.82352941,,,,,,,,,,,,,,,,e,1,0.8092,,,,,,我,e,,,0,38,38,60,1,,,,,,,,,,,,,,,,,,,,,,,,,,,,,,,,,,
,,,,,,,,,,,,,用户61870,001,2024-08-23_13h57.34.560,IAT(Formal),2021.2.3,Win32,58.82352941,,,,,,,,,,,,,,,,i,1,0.6697,,,,,,自私,i,,,0,39,39,43,1,,,,,,,,,,,,,,,,,,,,,,,,,,,,,,,,,,
,,,,,,,,,,,,,用户61870,001,2024-08-23_13h57.34.560,IAT(Formal),2021.2.3,Win32,58.82352941,,,,,,,,,,,,,,,,e,0,0.4495,,,,,,他,i,,,0,40,40,65,1,,,,,,,,,,,,,,,,,,,,,,,,,,,,,,,,,,
,,,,,,,,,,,,,用户61870,001,2024-08-23_13h57.34.560,IAT(Formal),2021.2.3,Win32,58.82352941,,,,,,,,,,,,,,,,e,1,0.5163,,,,,,我,e,,,0,41,41,0,1,,,,,,,,,,,,,,,,,,,,,,,,,,,,,,,,,,
,,,,,,,,,,,,,用户61870,001,2024-08-23_13h57.34.560,IAT(Formal),2021.2.3,Win32,58.82352941,,,,,,,,,,,,,,,,i,1,0.5497,,,,,,他人,i,,,0,42,42,68,1,,,,,,,,,,,,,,,,,,,,,,,,,,,,,,,,,,
,,,,,,,,,,,,,用户61870,001,2024-08-23_13h57.34.560,IAT(Formal),2021.2.3,Win32,58.82352941,,,,,,,,,,,,,,,,e,0,0.4468,,,,,,他们,i,,,0,43,43,66,1,,,,,,,,,,,,,,,,,,,,,,,,,,,,,,,,,,
,,,,,,,,,,,,,用户61870,001,2024-08-23_13h57.34.560,IAT(Formal),2021.2.3,Win32,58.82352941,,,,,,,,,,,,,,,,i,0,0.8235,,,,,,勤奋,e,,,0,44,44,18,1,,,,,,,,,,,,,,,,,,,,,,,,,,,,,,,,,,
,,,,,,,,,,,,,用户61870,001,2024-08-23_13h57.34.560,IAT(Formal),2021.2.3,Win32,58.82352941,,,,,,,,,,,,,,,,e,1,0.4767,,,,,,诚恳,e,,,0,45,45,29,1,,,,,,,,,,,,,,,,,,,,,,,,,,,,,,,,,,
,,,,,,,,,,,,,用户61870,001,2024-08-23_13h57.34.560,IAT(Formal),2021.2.3,Win32,58.82352941,,,,,,,,,,,,,,,,e,1,0.4025,,,,,,无私,e,,,0,46,46,22,1,,,,,,,,,,,,,,,,,,,,,,,,,,,,,,,,,,
,,,,,,,,,,,,,用户61870,001,2024-08-23_13h57.34.560,IAT(Formal),2021.2.3,Win32,58.82352941,,,,,,,,,,,,,,,,e,0,0.7926,,,,,,他们,i,,,0,47,47,56,1,,,,,,,,,,,,,,,,,,,,,,,,,,,,,,,,,,
,,,,,,,,,,,,,用户61870,001,2024-08-23_13h57.34.560,IAT(Formal),2021.2.3,Win32,58.82352941,,,,,,,,,,,,,,,,i,1,0.6957,,,,,,他人,i,,,0,48,48,78,1,,,,,,,,,,,,,,,,,,,,,,,,,,,,,,,,,,
,,,,,,,,,,,,,用户61870,001,2024-08-23_13h57.34.560,IAT(Formal),2021.2.3,Win32,58.82352941,,,,,,,,,,,,,,,,e,1,0.5627,,,,,,俺,e,,,0,49,49,64,1,,,,,,,,,,,,,,,,,,,,,,,,,,,,,,,,,,
,,,,,,,,,,,,,用户61870,001,2024-08-23_13h57.34.560,IAT(Formal),2021.2.3,Win32,58.82352941,,,,,,,,,,,,,,,,e,1,0.5185,,,,,,杰出,e,,,0,50,50,13,1,,,,,,,,,,,,,,,,,,,,,,,,,,,,,,,,,,
,,,,,,,,,,,,,用户61870,001,2024-08-23_13h57.34.560,IAT(Formal),2021.2.3,Win32,58.82352941,,,,,,,,,,,,,,,,i,1,0.5627,,,,,,他的,i,,,0,51,51,77,1,,,,,,,,,,,,,,,,,,,,,,,,,,,,,,,,,,
,,,,,,,,,,,,,用户61870,001,2024-08-23_13h57.34.560,IAT(Formal),2021.2.3,Win32,58.82352941,,,,,,,,,,,,,,,,e,1,0.4794,,,,,,优秀,e,,,0,52,52,10,1,,,,,,,,,,,,,,,,,,,,,,,,,,,,,,,,,,
,,,,,,,,,,,,,用户61870,001,2024-08-23_13h57.34.560,IAT(Formal),2021.2.3,Win32,58.82352941,,,,,,,,,,,,,,,,i,1,0.5894,,,,,,傲慢,i,,,0,53,53,37,1,,,,,,,,,,,,,,,,,,,,,,,,,,,,,,,,,,
,,,,,,,,,,,,,用户61870,001,2024-08-23_13h57.34.560,IAT(Formal),2021.2.3,Win32,58.82352941,,,,,,,,,,,,,,,,e,1,0.5135,,,,,,我的,e,,,0,54,54,1,1,,,,,,,,,,,,,,,,,,,,,,,,,,,,,,,,,,
,,,,,,,,,,,,,用户61870,001,2024-08-23_13h57.34.560,IAT(Formal),2021.2.3,Win32,58.82352941,,,,,,,,,,,,,,,,e,1,0.8337,,,,,,诚实,e,,,0,55,55,15,1,,,,,,,,,,,,,,,,,,,,,,,,,,,,,,,,,,
,,,,,,,,,,,,,用户61870,001,2024-08-23_13h57.34.560,IAT(Formal),2021.2.3,Win32,58.82352941,,,,,,,,,,,,,,,,e,1,0.5973,,,,,,公正,e,,,0,56,56,23,1,,,,,,,,,,,,,,,,,,,,,,,,,,,,,,,,,,
,,,,,,,,,,,,,用户61870,001,2024-08-23_13h57.34.560,IAT(Formal),2021.2.3,Win32,58.82352941,,,,,,,,,,,,,,,,e,1,0.6038,,,,,,自己,e,,,0,57,57,3,1,,,,,,,,,,,,,,,,,,,,,,,,,,,,,,,,,,
,,,,,,,,,,,,,用户61870,001,2024-08-23_13h57.34.560,IAT(Formal),2021.2.3,Win32,58.82352941,,,,,,,,,,,,,,,,e,1,0.4208,,,,,,稳重,e,,,0,58,58,21,1,,,,,,,,,,,,,,,,,,,,,,,,,,,,,,,,,,
,,,,,,,,,,,,,用户61870,001,2024-08-23_13h57.34.560,IAT(Formal),2021.2.3,Win32,58.82352941,,,,,,,,,,,,,,,,i,1,0.6992,,,,,,刻薄,i,,,0,59,59,33,1,,,,,,,,,,,,,,,,,,,,,,,,,,,,,,,,,,
,,,,,,,,,,,,,用户61870,001,2024-08-23_13h57.34.560,IAT(Formal),2021.2.3,Win32,58.82352941,,,,,,,,,,,,,,,,e,1,0.9998,,,,,,我,e,,,0,60,60,50,1,,,,,,,,,,,,,,,,,,,,,,,,,,,,,,,,,,
,,,,,,,,,,,,,用户61870,001,2024-08-23_13h57.34.560,IAT(Formal),2021.2.3,Win32,58.82352941,,,,,,,,,,,,,,,,i,1,0.6518,,,,,,愚蠢,i,,,0,61,61,32,1,,,,,,,,,,,,,,,,,,,,,,,,,,,,,,,,,,
,,,,,,,,,,,,,用户61870,001,2024-08-23_13h57.34.560,IAT(Formal),2021.2.3,Win32,58.82352941,,,,,,,,,,,,,,,,e,1,0.7148,,,,,,我们,e,,,0,62,62,52,1,,,,,,,,,,,,,,,,,,,,,,,,,,,,,,,,,,
,,,,,,,,,,,,,用户61870,001,2024-08-23_13h57.34.560,IAT(Formal),2021.2.3,Win32,58.82352941,,,,,,,,,,,,,,,,i,1,0.6699,,,,,,冒失,i,,,0,63,63,39,1,,,,,,,,,,,,,,,,,,,,,,,,,,,,,,,,,,
,,,,,,,,,,,,,用户61870,001,2024-08-23_13h57.34.560,IAT(Formal),2021.2.3,Win32,58.82352941,,,,,,,,,,,,,,,,i,1,0.8056,,,,,,其他,i,,,0,64,64,9,1,,,,,,,,,,,,,,,,,,,,,,,,,,,,,,,,,,
,,,,,,,,,,,,,用户61870,001,2024-08-23_13h57.34.560,IAT(Formal),2021.2.3,Win32,58.82352941,,,,,,,,,,,,,,,,e,1,1.1515,,,,,,细腻,e,,,0,65,65,25,1,,,,,,,,,,,,,,,,,,,,,,,,,,,,,,,,,,
,,,,,,,,,,,,,用户61870,001,2024-08-23_13h57.34.560,IAT(Formal),2021.2.3,Win32,58.82352941,,,,,,,,,,,,,,,,i,1,0.9501,,,,,,他人,i,,,0,66,66,8,1,,,,,,,,,,,,,,,,,,,,,,,,,,,,,,,,,,
,,,,,,,,,,,,,用户61870,001,2024-08-23_13h57.34.560,IAT(Formal),2021.2.3,Win32,58.82352941,,,,,,,,,,,,,,,,e,1,0.72,,,,,,自己,e,,,0,67,67,63,1,,,,,,,,,,,,,,,,,,,,,,,,,,,,,,,,,,
,,,,,,,,,,,,,用户61870,001,2024-08-23_13h57.34.560,IAT(Formal),2021.2.3,Win32,58.82352941,,,,,,,,,,,,,,,,,0,,,,,,,悲观,i,,,0,68,68,34,1,,,,,,,,,,,,,,,,,,,,,,,,,,,,,,,,,,
,,,,,,,,,,,,,用户61870,001,2024-08-23_13h57.34.560,IAT(Formal),2021.2.3,Win32,58.82352941,,,,,,,,,,,,,,,,e,1,0.6655,,,,,,自己,e,,,0,69,69,73,1,,,,,,,,,,,,,,,,,,,,,,,,,,,,,,,,,,
,,,,,,,,,,,,,用户61870,001,2024-08-23_13h57.34.560,IAT(Formal),2021.2.3,Win32,58.82352941,,,,,,,,,,,,,,,,e,1,1.4172,,,,,,我的,e,,,0,70,70,61,1,,,,,,,,,,,,,,,,,,,,,,,,,,,,,,,,,,
,,,,,,,,,,,,,用户61870,001,2024-08-23_13h57.34.560,IAT(Formal),2021.2.3,Win32,58.82352941,,,,,,,,,,,,,,,,e,1,0.7047,,,,,,乐观,e,,,0,71,71,14,1,,,,,,,,,,,,,,,,,,,,,,,,,,,,,,,,,,
,,,,,,,,,,,,,用户61870,001,2024-08-23_13h57.34.560,IAT(Formal),2021.2.3,Win32,58.82352941,,,,,,,,,,,,,,,,i,1,0.5712,,,,,,鲁莽,i,,,0,72,72,38,1,,,,,,,,,,,,,,,,,,,,,,,,,,,,,,,,,,
,,,,,,,,,,,,,用户61870,001,2024-08-23_13h57.34.560,IAT(Formal),2021.2.3,Win32,58.82352941,,,,,,,,,,,,,,,,i,1,0.5593,,,,,,下贱,i,,,0,73,73,49,1,,,,,,,,,,,,,,,,,,,,,,,,,,,,,,,,,,
,,,,,,,,,,,,,用户61870,001,2024-08-23_13h57.34.560,IAT(Formal),2021.2.3,Win32,58.82352941,,,,,,,,,,,,,,,,i,0,0.751,,,,,,俺,e,,,0,74,74,74,1,,,,,,,,,,,,,,,,,,,,,,,,,,,,,,,,,,
,,,,,,,,,,,,,用户61870,001,2024-08-23_13h57.34.560,IAT(Formal),2021.2.3,Win32,58.82352941,,,,,,,,,,,,,,,,i,1,0.5216,,,,,,他,i,,,0,75,75,75,1,,,,,,,,,,,,,,,,,,,,,,,,,,,,,,,,,,
,,,,,,,,,,,,,用户61870,001,2024-08-23_13h57.34.560,IAT(Formal),2021.2.3,Win32,58.82352941,,,,,,,,,,,,,,,,e,1,0.4665,,,,,,正直,e,,,0,76,76,16,1,,,,,,,,,,,,,,,,,,,,,,,,,,,,,,,,,,
,,,,,,,,,,,,,用户61870,001,2024-08-23_13h57.34.560,IAT(Formal),2021.2.3,Win32,58.82352941,,,,,,,,,,,,,,,,i,1,0.5832,,,,,,他,i,,,0,77,77,55,1,,,,,,,,,,,,,,,,,,,,,,,,,,,,,,,,,,
,,,,,,,,,,,,,用户61870,001,2024-08-23_13h57.34.560,IAT(Formal),2021.2.3,Win32,58.82352941,,,,,,,,,,,,,,,,i,1,0.7994,,,,,,固执,i,,,0,78,78,47,1,,,,,,,,,,,,,,,,,,,,,,,,,,,,,,,,,,
,,,,,,,,,,,,,用户61870,001,2024-08-23_13h57.34.560,IAT(Formal),2021.2.3,Win32,58.82352941,,,,,,,,,,,,,,,,i,1,0.5899,,,,,,散漫,i,,,0,79,79,41,1,,,,,,,,,,,,,,,,,,,,,,,,,,,,,,,,,,
,,,,,,,,,,,,,用户61870,001,2024-08-23_13h57.34.560,IAT(Formal),2021.2.3,Win32,58.82352941,,,,,,,,,,,,,,,,i,1,0.6389,,,,,,凶狠,i,,,1,0,80,42,1,,,,,,,,,,,,,,,,,,,,,,,,,,,,,,,,,,
,,,,,,,,,,,,,用户61870,001,2024-08-23_13h57.34.560,IAT(Formal),2021.2.3,Win32,58.82352941,,,,,,,,,,,,,,,,i,1,0.6536,,,,,,自私,i,,,1,1,81,43,1,,,,,,,,,,,,,,,,,,,,,,,,,,,,,,,,,,
,,,,,,,,,,,,,用户61870,001,2024-08-23_13h57.34.560,IAT(Formal),2021.2.3,Win32,58.82352941,,,,,,,,,,,,,,,,e,1,0.563,,,,,,认真,e,,,1,2,82,20,1,,,,,,,,,,,,,,,,,,,,,,,,,,,,,,,,,,
,,,,,,,,,,,,,用户61870,001,2024-08-23_13h57.34.560,IAT(Formal),2021.2.3,Win32,58.82352941,,,,,,,,,,,,,,,,e,1,0.8366,,,,,,我们,e,,,1,3,83,52,1,,,,,,,,,,,,,,,,,,,,,,,,,,,,,,,,,,
,,,,,,,,,,,,,用户61870,001,2024-08-23_13h57.34.560,IAT(Formal),2021.2.3,Win32,58.82352941,,,,,,,,,,,,,,,,i,0,0.9013,,,,,,俺,e,,,1,4,84,4,1,,,,,,,,,,,,,,,,,,,,,,,,,,,,,,,,,,
,,,,,,,,,,,,,用户61870,001,2024-08-23_13h57.34.560,IAT(Formal),2021.2.3,Win32,58.82352941,,,,,,,,,,,,,,,,i,1,0.7255,,,,,,愚蠢,i,,,1,5,85,32,1,,,,,,,,,,,,,,,,,,,,,,,,,,,,,,,,,,
,,,,,,,,,,,,,用户61870,001,2024-08-23_13h57.34.560,IAT(Formal),2021.2.3,Win32,58.82352941,,,,,,,,,,,,,,,,e,0,0.6642,,,,,,他的,i,,,1,6,86,77,1,,,,,,,,,,,,,,,,,,,,,,,,,,,,,,,,,,
,,,,,,,,,,,,,用户61870,001,2024-08-23_13h57.34.560,IAT(Formal),2021.2.3,Win32,58.82352941,,,,,,,,,,,,,,,,e,1,0.4338,,,,,,我的,e,,,1,7,87,51,1,,,,,,,,,,,,,,,,,,,,,,,,,,,,,,,,,,
,,,,,,,,,,,,,用户61870,001,2024-08-23_13h57.34.560,IAT(Formal),2021.2.3,Win32,58.82352941,,,,,,,,,,,,,,,,i,1,0.6919,,,,,,卑鄙,i,,,1,8,88,30,1,,,,,,,,,,,,,,,,,,,,,,,,,,,,,,,,,,
,,,,,,,,,,,,,用户61870,001,2024-08-23_13h57.34.560,IAT(Formal),2021.2.3,Win32,58.82352941,,,,,,,,,,,,,,,,i,1,0.936,,,,,,他人,i,,,1,9,89,58,1,,,,,,,,,,,,,,,,,,,,,,,,,,,,,,,,,,
,,,,,,,,,,,,,用户61870,001,2024-08-23_13h57.34.560,IAT(Formal),2021.2.3,Win32,58.82352941,,,,,,,,,,,,,,,,e,1,0.8968,,,,,,自己,e,,,1,10,90,73,1,,,,,,,,,,,,,,,,,,,,,,,,,,,,,,,,,,
,,,,,,,,,,,,,用户61870,001,2024-08-23_13h57.34.560,IAT(Formal),2021.2.3,Win32,58.82352941,,,,,,,,,,,,,,,,i,1,0.4919,,,,,,他,i,,,1,11,91,5,1,,,,,,,,,,,,,,,,,,,,,,,,,,,,,,,,,,
,,,,,,,,,,,,,用户61870,001,2024-08-23_13h57.34.560,IAT(Formal),2021.2.3,Win32,58.82352941,,,,,,,,,,,,,,,,e,1,0.5484,,,,,,我的,e,,,1,12,92,61,1,,,,,,,,,,,,,,,,,,,,,,,,,,,,,,,,,,
,,,,,,,,,,,,,用户61870,001,2024-08-23_13h57.34.560,IAT(Formal),2021.2.3,Win32,58.82352941,,,,,,,,,,,,,,,,i,1,0.6492,,,,,,他,i,,,1,13,93,75,1,,,,,,,,,,,,,,,,,,,,,,,,,,,,,,,,,,
,,,,,,,,,,,,,用户61870,001,2024-08-23_13h57.34.560,IAT(Formal),2021.2.3,Win32,58.82352941,,,,,,,,,,,,,,,,e,1,0.8384,,,,,,自己,e,,,1,14,94,63,1,,,,,,,,,,,,,,,,,,,,,,,,,,,,,,,,,,
,,,,,,,,,,,,,用户61870,001,2024-08-23_13h57.34.560,IAT(Formal),2021.2.3,Win32,58.82352941,,,,,,,,,,,,,,,,e,1,1.0592,,,,,,勇敢,e,,,1,15,95,17,1,,,,,,,,,,,,,,,,,,,,,,,,,,,,,,,,,,
,,,,,,,,,,,,,用户61870,001,2024-08-23_13h57.34.560,IAT(Formal),2021.2.3,Win32,58.82352941,,,,,,,,,,,,,,,,i,1,0.7523,,,,,,自卑,i,,,1,16,96,36,1,,,,,,,,,,,,,,,,,,,,,,,,,,,,,,,,,,
,,,,,,,,,,,,,用户61870,001,2024-08-23_13h57.34.560,IAT(Formal),2021.2.3,Win32,58.82352941,,,,,,,,,,,,,,,,i,1,0.7026,,,,,,暴躁,i,,,1,17,97,44,1,,,,,,,,,,,,,,,,,,,,,,,,,,,,,,,,,,
,,,,,,,,,,,,,用户61870,001,2024-08-23_13h57.34.560,IAT(Formal),2021.2.3,Win32,58.82352941,,,,,,,,,,,,,,,,e,1,0.6424,,,,,,热情,e,,,1,18,98,27,1,,,,,,,,,,,,,,,,,,,,,,,,,,,,,,,,,,
,,,,,,,,,,,,,用户61870,001,2024-08-23_13h57.34.560,IAT(Formal),2021.2.3,Win32,58.82352941,,,,,,,,,,,,,,,,i,1,0.5304,,,,,,他的,i,,,1,19,99,57,1,,,,,,,,,,,,,,,,,,,,,,,,,,,,,,,,,,
,,,,,,,,,,,,,用户61870,001,2024-08-23_13h57.34.560,IAT(Formal),2021.2.3,Win32,58.82352941,,,,,,,,,,,,,,,,i,1,0.6028,,,,,,野蛮,i,,,1,20,100,46,1,,,,,,,,,,,,,,,,,,,,,,,,,,,,,,,,,,
,,,,,,,,,,,,,用户61870,001,2024-08-23_13h57.34.560,IAT(Formal),2021.2.3,Win32,58.82352941,,,,,,,,,,,,,,,,e,1,0.5364,,,,,,我,e,,,1,21,101,70,1,,,,,,,,,,,,,,,,,,,,,,,,,,,,,,,,,,
,,,,,,,,,,,,,用户61870,001,2024-08-23_13h57.34.560,IAT(Formal),2021.2.3,Win32,58.82352941,,,,,,,,,,,,,,,,i,1,0.5742,,,,,,固执,i,,,1,22,102,47,1,,,,,,,,,,,,,,,,,,,,,,,,,,,,,,,,,,
,,,,,,,,,,,,,用户61870,001,2024-08-23_13h57.34.560,IAT(Formal),2021.2.3,Win32,58.82352941,,,,,,,,,,,,,,,,i,1,0.64,,,,,,虚伪,i,,,1,23,103,31,1,,,,,,,,,,,,,,,,,,,,,,,,,,,,,,,,,,
,,,,,,,,,,,,,用户61870,001,2024-08-23_13h57.34.560,IAT(Formal),2021.2.3,Win32,58.82352941,,,,,,,,,,,,,,,,i,0,0.604,,,,,,冷静,e,,,1,24,104,26,1,,,,,,,,,,,,,,,,,,,,,,,,,,,,,,,,,,
,,,,,,,,,,,,,用户61870,001,2024-08-23_13h57.34.560,IAT(Formal),2021.2.3,Win32,58.82352941,,,,,,,,,,,,,,,,i,1,0.5822,,,,,,刻薄,i,,,1,25,105,33,1,,,,,,,,,,,,,,,,,,,,,,,,,,,,,,,,,,
,,,,,,,,,,,,,用户61870,001,2024-08-23_13h57.34.560,IAT(Formal),2021.2.3,Win32,58.82352941,,,,,,,,,,,,,,,,e,1,1.0847,,,,,,杰出,e,,,1,26,106,13,1,,,,,,,,,,,,,,,,,,,,,,,,,,,,,,,,,,
,,,,,,,,,,,,,用户61870,001,2024-08-23_13h57.34.560,IAT(Formal),2021.2.3,Win32,58.82352941,,,,,,,,,,,,,,,,e,1,0.8832,,,,,,崇高,e,,,1,27,107,11,1,,,,,,,,,,,,,,,,,,,,,,,,,,,,,,,,,,
,,,,,,,,,,,,,用户61870,001,2024-08-23_13h57.34.560,IAT(Formal),2021.2.3,Win32,58.82352941,,,,,,,,,,,,,,,,i,1,1.1322,,,,,,他们,i,,,1,28,108,6,1,,,,,,,,,,,,,,,,,,,,,,,,,,,,,,,,,,
,,,,,,,,,,,,,用户61870,001,2024-08-23_13h57.34.560,IAT(Formal),2021.2.3,Win32,58.82352941,,,,,,,,,,,,,,,,e,1,0.7691,,,,,,我的,e,,,1,29,109,1,1,,,,,,,,,,,,,,,,,,,,,,,,,,,,,,,,,,
,,,,,,,,,,,,,用户61870,001,2024-08-23_13h57.34.560,IAT(Formal),2021.2.3,Win32,58.82352941,,,,,,,,,,,,,,,,e,1,1.0694,,,,,,无私,e,,,1,30,110,22,1,,,,,,,,,,,,,,,,,,,,,,,,,,,,,,,,,,
,,,,,,,,,,,,,用户61870,001,2024-08-23_13h57.34.560,IAT(Formal),2021.2.3,Win32,58.82352941,,,,,,,,,,,,,,,,i,1,1.0922,,,,,,他人,i,,,1,31,111,8,1,,,,,,,,,,,,,,,,,,,,,,,,,,,,,,,,,,
,,,,,,,,,,,,,用户61870,001,2024-08-23_13h57.34.560,IAT(Formal),2021.2.3,Win32,58.82352941,,,,,,,,,,,,,,,,e,1,0.9015,,,,,,俺,e,,,1,32,112,54,1,,,,,,,,,,,,,,,,,,,,,,,,,,,,,,,,,,
,,,,,,,,,,,,,用户61870,001,2024-08-23_13h57.34.560,IAT(Formal),2021.2.3,Win32,58.82352941,,,,,,,,,,,,,,,,e,0,1.1543,,,,,,执拗,i,,,1,33,113,40,1,,,,,,,,,,,,,,,,,,,,,,,,,,,,,,,,,,
,,,,,,,,,,,,,用户61870,001,2024-08-23_13h57.34.560,IAT(Formal),2021.2.3,Win32,58.82352941,,,,,,,,,,,,,,,,i,1,0.8635,,,,,,鲁莽,i,,,1,34,114,38,1,,,,,,,,,,,,,,,,,,,,,,,,,,,,,,,,,,
,,,,,,,,,,,,,用户61870,001,2024-08-23_13h57.34.560,IAT(Formal),2021.2.3,Win32,58.82352941,,,,,,,,,,,,,,,,i,1,0.6566,,,,,,他们,i,,,1,35,115,76,1,,,,,,,,,,,,,,,,,,,,,,,,,,,,,,,,,,
,,,,,,,,,,,,,用户61870,001,2024-08-23_13h57.34.560,IAT(Formal),2021.2.3,Win32,58.82352941,,,,,,,,,,,,,,,,i,0,0.1658,,,,,,聪明,e,,,1,36,116,12,1,,,,,,,,,,,,,,,,,,,,,,,,,,,,,,,,,,
,,,,,,,,,,,,,用户61870,001,2024-08-23_13h57.34.560,IAT(Formal),2021.2.3,Win32,58.82352941,,,,,,,,,,,,,,,,e,1,0.4922,,,,,,机智,e,,,1,37,117,19,1,,,,,,,,,,,,,,,,,,,,,,,,,,,,,,,,,,
,,,,,,,,,,,,,用户61870,001,2024-08-23_13h57.34.560,IAT(Formal),2021.2.3,Win32,58.82352941,,,,,,,,,,,,,,,,i,1,1.2477,,,,,,他的,i,,,1,38,118,7,1,,,,,,,,,,,,,,,,,,,,,,,,,,,,,,,,,,
,,,,,,,,,,,,,用户61870,001,2024-08-23_13h57.34.560,IAT(Formal),2021.2.3,Win32,58.82352941,,,,,,,,,,,,,,,,e,1,0.7603,,,,,,诚恳,e,,,1,39,119,29,1,,,,,,,,,,,,,,,,,,,,,,,,,,,,,,,,,,
,,,,,,,,,,,,,用户61870,001,2024-08-23_13h57.34.560,IAT(Formal),2021.2.3,Win32,58.82352941,,,,,,,,,,,,,,,,,0,,,,,,,冒失,i,,,1,40,120,39,1,,,,,,,,,,,,,,,,,,,,,,,,,,,,,,,,,,
,,,,,,,,,,,,,用户61870,001,2024-08-23_13h57.34.560,IAT(Formal),2021.2.3,Win32,58.82352941,,,,,,,,,,,,,,,,e,1,0.4658,,,,,,自己,e,,,1,41,121,53,1,,,,,,,,,,,,,,,,,,,,,,,,,,,,,,,,,,
,,,,,,,,,,,,,用户61870,001,2024-08-23_13h57.34.560,IAT(Formal),2021.2.3,Win32,58.82352941,,,,,,,,,,,,,,,,e,1,0.5177,,,,,,优秀,e,,,1,42,122,10,1,,,,,,,,,,,,,,,,,,,,,,,,,,,,,,,,,,
,,,,,,,,,,,,,用户61870,001,2024-08-23_13h57.34.560,IAT(Formal),2021.2.3,Win32,58.82352941,,,,,,,,,,,,,,,,i,1,0.9827,,,,,,其他,i,,,1,43,123,59,1,,,,,,,,,,,,,,,,,,,,,,,,,,,,,,,,,,
,,,,,,,,,,,,,用户61870,001,2024-08-23_13h57.34.560,IAT(Formal),2021.2.3,Win32,58.82352941,,,,,,,,,,,,,,,,e,1,0.5323,,,,,,公正,e,,,1,44,124,23,1,,,,,,,,,,,,,,,,,,,,,,,,,,,,,,,,,,
,,,,,,,,,,,,,用户61870,001,2024-08-23_13h57.34.560,IAT(Formal),2021.2.3,Win32,58.82352941,,,,,,,,,,,,,,,,i,1,0.6506,,,,,,悲观,i,,,1,45,125,34,1,,,,,,,,,,,,,,,,,,,,,,,,,,,,,,,,,,
,,,,,,,,,,,,,用户61870,001,2024-08-23_13h57.34.560,IAT(Formal),2021.2.3,Win32,58.82352941,,,,,,,,,,,,,,,,e,1,0.5686,,,,,,我,e,,,1,46,126,60,1,,,,,,,,,,,,,,,,,,,,,,,,,,,,,,,,,,
,,,,,,,,,,,,,用户61870,001,2024-08-23_13h57.34.560,IAT(Formal),2021.2.3,Win32,58.82352941,,,,,,,,,,,,,,,,i,1,0.9672,,,,,,傲慢,i,,,1,47,127,37,1,,,,,,,,,,,,,,,,,,,,,,,,,,,,,,,,,,
,,,,,,,,,,,,,用户61870,001,2024-08-23_13h57.34.560,IAT(Formal),2021.2.3,Win32,58.82352941,,,,,,,,,,,,,,,,e,1,0.7476,,,,,,我的,e,,,1,48,128,71,1,,,,,,,,,,,,,,,,,,,,,,,,,,,,,,,,,,
,,,,,,,,,,,,,用户61870,001,2024-08-23_13h57.34.560,IAT(Formal),2021.2.3,Win32,58.82352941,,,,,,,,,,,,,,,,e,1,1.3808,,,,,,俺,e,,,1,49,129,64,1,,,,,,,,,,,,,,,,,,,,,,,,,,,,,,,,,,
,,,,,,,,,,,,,用户61870,001,2024-08-23_13h57.34.560,IAT(Formal),2021.2.3,Win32,58.82352941,,,,,,,,,,,,,,,,i,1,0.5829,,,,,,轻率,i,,,1,50,130,48,1,,,,,,,,,,,,,,,,,,,,,,,,,,,,,,,,,,
,,,,,,,,,,,,,用户61870,001,2024-08-23_13h57.34.560,IAT(Formal),2021.2.3,Win32,58.82352941,,,,,,,,,,,,,,,,i,1,0.5667,,,,,,他,i,,,1,51,131,55,1,,,,,,,,,,,,,,,,,,,,,,,,,,,,,,,,,,
,,,,,,,,,,,,,用户61870,001,2024-08-23_13h57.34.560,IAT(Formal),2021.2.3,Win32,58.82352941,,,,,,,,,,,,,,,,e,1,0.9694,,,,,,我们,e,,,1,52,132,72,1,,,,,,,,,,,,,,,,,,,,,,,,,,,,,,,,,,
,,,,,,,,,,,,,用户61870,001,2024-08-23_13h57.34.560,IAT(Formal),2021.2.3,Win32,58.82352941,,,,,,,,,,,,,,,,e,1,0.9873,,,,,,诚实,e,,,1,53,133,15,1,,,,,,,,,,,,,,,,,,,,,,,,,,,,,,,,,,
,,,,,,,,,,,,,用户61870,001,2024-08-23_13h57.34.560,IAT(Formal),2021.2.3,Win32,58.82352941,,,,,,,,,,,,,,,,e,1,0.6581,,,,,,细腻,e,,,1,54,134,25,1,,,,,,,,,,,,,,,,,,,,,,,,,,,,,,,,,,
,,,,,,,,,,,,,用户61870,001,2024-08-23_13h57.34.560,IAT(Formal),2021.2.3,Win32,58.82352941,,,,,,,,,,,,,,,,i,1,0.8731,,,,,,其他,i,,,1,55,135,69,1,,,,,,,,,,,,,,,,,,,,,,,,,,,,,,,,,,
,,,,,,,,,,,,,用户61870,001,2024-08-23_13h57.34.560,IAT(Formal),2021.2.3,Win32,58.82352941,,,,,,,,,,,,,,,,e,1,0.6389,,,,,,正直,e,,,1,56,136,16,1,,,,,,,,,,,,,,,,,,,,,,,,,,,,,,,,,,
,,,,,,,,,,,,,用户61870,001,2024-08-23_13h57.34.560,IAT(Formal),2021.2.3,Win32,58.82352941,,,,,,,,,,,,,,,,i,1,0.7487,,,,,,他,i,,,1,57,137,65,1,,,,,,,,,,,,,,,,,,,,,,,,,,,,,,,,,,
,,,,,,,,,,,,,用户61870,001,2024-08-23_13h57.34.560,IAT(Formal),2021.2.3,Win32,58.82352941,,,,,,,,,,,,,,,,i,1,0.6792,,,,,,其他,i,,,1,58,138,9,1,,,,,,,,,,,,,,,,,,,,,,,,,,,,,,,,,,
,,,,,,,,,,,,,用户61870,001,2024-08-23_13h57.34.560,IAT(Formal),2021.2.3,Win32,58.82352941,,,,,,,,,,,,,,,,e,1,0.9331,,,,,,俺,e,,,1,59,139,74,1,,,,,,,,,,,,,,,,,,,,,,,,,,,,,,,,,,
,,,,,,,,,,,,,用户61870,001,2024-08-23_13h57.34.560,IAT(Formal),2021.2.3,Win32,58.82352941,,,,,,,,,,,,,,,,i,1,1.1635,,,,,,他们,i,,,1,60,140,56,1,,,,,,,,,,,,,,,,,,,,,,,,,,,,,,,,,,
,,,,,,,,,,,,,用户61870,001,2024-08-23_13h57.34.560,IAT(Formal),2021.2.3,Win32,58.82352941,,,,,,,,,,,,,,,,e,1,0.6359,,,,,,乐观,e,,,1,61,141,14,1,,,,,,,,,,,,,,,,,,,,,,,,,,,,,,,,,,
,,,,,,,,,,,,,用户61870,001,2024-08-23_13h57.34.560,IAT(Formal),2021.2.3,Win32,58.82352941,,,,,,,,,,,,,,,,i,1,0.6699,,,,,,消极,i,,,1,62,142,35,1,,,,,,,,,,,,,,,,,,,,,,,,,,,,,,,,,,
,,,,,,,,,,,,,用户61870,001,2024-08-23_13h57.34.560,IAT(Formal),2021.2.3,Win32,58.82352941,,,,,,,,,,,,,,,,e,1,0.7216,,,,,,自己,e,,,1,63,143,3,1,,,,,,,,,,,,,,,,,,,,,,,,,,,,,,,,,,
,,,,,,,,,,,,,用户61870,001,2024-08-23_13h57.34.560,IAT(Formal),2021.2.3,Win32,58.82352941,,,,,,,,,,,,,,,,i,1,0.5764,,,,,,他们,i,,,1,64,144,66,1,,,,,,,,,,,,,,,,,,,,,,,,,,,,,,,,,,
,,,,,,,,,,,,,用户61870,001,2024-08-23_13h57.34.560,IAT(Formal),2021.2.3,Win32,58.82352941,,,,,,,,,,,,,,,,i,1,0.6673,,,,,,猖狂,i,,,1,65,145,45,1,,,,,,,,,,,,,,,,,,,,,,,,,,,,,,,,,,
,,,,,,,,,,,,,用户61870,001,2024-08-23_13h57.34.560,IAT(Formal),2021.2.3,Win32,58.82352941,,,,,,,,,,,,,,,,e,1,0.5799,,,,,,朴实,e,,,1,66,146,24,1,,,,,,,,,,,,,,,,,,,,,,,,,,,,,,,,,,
,,,,,,,,,,,,,用户61870,001,2024-08-23_13h57.34.560,IAT(Formal),2021.2.3,Win32,58.82352941,,,,,,,,,,,,,,,,i,1,0.5607,,,,,,下贱,i,,,1,67,147,49,1,,,,,,,,,,,,,,,,,,,,,,,,,,,,,,,,,,
,,,,,,,,,,,,,用户61870,001,2024-08-23_13h57.34.560,IAT(Formal),2021.2.3,Win32,58.82352941,,,,,,,,,,,,,,,,e,1,0.6337,,,,,,我们,e,,,1,68,148,62,1,,,,,,,,,,,,,,,,,,,,,,,,,,,,,,,,,,
,,,,,,,,,,,,,用户61870,001,2024-08-23_13h57.34.560,IAT(Formal),2021.2.3,Win32,58.82352941,,,,,,,,,,,,,,,,i,0,0.7112,,,,,,我,e,,,1,69,149,50,1,,,,,,,,,,,,,,,,,,,,,,,,,,,,,,,,,,
,,,,,,,,,,,,,用户61870,001,2024-08-23_13h57.34.560,IAT(Formal),2021.2.3,Win32,58.82352941,,,,,,,,,,,,,,,,i,1,0.9531,,,,,,他人,i,,,1,70,150,78,1,,,,,,,,,,,,,,,,,,,,,,,,,,,,,,,,,,
,,,,,,,,,,,,,用户61870,001,2024-08-23_13h57.34.560,IAT(Formal),2021.2.3,Win32,58.82352941,,,,,,,,,,,,,,,,i,1,0.8756,,,,,,他人,i,,,1,71,151,68,1,,,,,,,,,,,,,,,,,,,,,,,,,,,,,,,,,,
,,,,,,,,,,,,,用户61870,001,2024-08-23_13h57.34.560,IAT(Formal),2021.2.3,Win32,58.82352941,,,,,,,,,,,,,,,,e,1,0.6762,,,,,,稳重,e,,,1,72,152,21,1,,,,,,,,,,,,,,,,,,,,,,,,,,,,,,,,,,
,,,,,,,,,,,,,用户61870,001,2024-08-23_13h57.34.560,IAT(Formal),2021.2.3,Win32,58.82352941,,,,,,,,,,,,,,,,e,1,0.5998,,,,,,活泼,e,,,1,73,153,28,1,,,,,,,,,,,,,,,,,,,,,,,,,,,,,,,,,,
,,,,,,,,,,,,,用户61870,001,2024-08-23_13h57.34.560,IAT(Formal),2021.2.3,Win32,58.82352941,,,,,,,,,,,,,,,,e,1,0.6194,,,,,,我,e,,,1,74,154,0,1,,,,,,,,,,,,,,,,,,,,,,,,,,,,,,,,,,
,,,,,,,,,,,,,用户61870,001,2024-08-23_13h57.34.560,IAT(Formal),2021.2.3,Win32,58.82352941,,,,,,,,,,,,,,,,i,1,0.6446,,,,,,他的,i,,,1,75,155,67,1,,,,,,,,,,,,,,,,,,,,,,,,,,,,,,,,,,
,,,,,,,,,,,,,用户61870,001,2024-08-23_13h57.34.560,IAT(Formal),2021.2.3,Win32,58.82352941,,,,,,,,,,,,,,,,i,1,0.8838,,,,,,其他,i,,,1,76,156,79,1,,,,,,,,,,,,,,,,,,,,,,,,,,,,,,,,,,
,,,,,,,,,,,,,用户61870,001,2024-08-23_13h57.34.560,IAT(Formal),2021.2.3,Win32,58.82352941,,,,,,,,,,,,,,,,e,0,0.4093,,,,,,散漫,i,,,1,77,157,41,1,,,,,,,,,,,,,,,,,,,,,,,,,,,,,,,,,,
,,,,,,,,,,,,,用户61870,001,2024-08-23_13h57.34.560,IAT(Formal),2021.2.3,Win32,58.82352941,,,,,,,,,,,,,,,,e,1,0.5103,,,,,,勤奋,e,,,1,78,158,18,1,,,,,,,,,,,,,,,,,,,,,,,,,,,,,,,,,,
,,,,,,,,,,,,,用户61870,001,2024-08-23_13h57.34.560,IAT(Formal),2021.2.3,Win32,58.82352941,,,,,,,,,,,,,,,,e,1,0.4841,,,,,,我们,e,,,1,79,159,2,1,,,,,,,,,,,,,,,,,,,,,,,,,,,,,,,,,,
,,,,,,,,,,,其他,e,用户61870,001,2024-08-23_13h57.34.560,IAT(Formal),2021.2.3,Win32,58.82352941,,,,,,,,,,,,,,,,,,,,,,,,,,,,,,,,,space,7.0964,,0,0,0,0,9,1,,,,,,,,,,,,,,,,,,,,,,,,,
,,,,,,,,,,,我的,i,用户61870,001,2024-08-23_13h57.34.560,IAT(Formal),2021.2.3,Win32,58.82352941,,,,,,,,,,,,,,,,,,,,,,,,,,,,,,,,,,,e,0,0,1,1,1,1,0.5206,,,,,,,,,,,,,,,,,,,,,,,,
,,,,,,,,,,,我,i,用户61870,001,2024-08-23_13h57.34.560,IAT(Formal),2021.2.3,Win32,58.82352941,,,,,,,,,,,,,,,,,,,,,,,,,,,,,,,,,,,i,1,0,2,2,0,1,0.6318,,,,,,,,,,,,,,,,,,,,,,,,
,,,,,,,,,,,他人,e,用户61870,001,2024-08-23_13h57.34.560,IAT(Formal),2021.2.3,Win32,58.82352941,,,,,,,,,,,,,,,,,,,,,,,,,,,,,,,,,,,e,1,0,3,3,8,1,0.7384,,,,,,,,,,,,,,,,,,,,,,,,
,,,,,,,,,,,他们,e,用户61870,001,2024-08-23_13h57.34.560,IAT(Formal),2021.2.3,Win32,58.82352941,,,,,,,,,,,,,,,,,,,,,,,,,,,,,,,,,,,e,1,0,4,4,6,1,1.3244,,,,,,,,,,,,,,,,,,,,,,,,
,,,,,,,,,,,我们,i,用户61870,001,2024-08-23_13h57.34.560,IAT(Formal),2021.2.3,Win32,58.82352941,,,,,,,,,,,,,,,,,,,,,,,,,,,,,,,,,,,i,1,0,5,5,2,1,0.8315,,,,,,,,,,,,,,,,,,,,,,,,
,,,,,,,,,,,俺,i,用户61870,001,2024-08-23_13h57.34.560,IAT(Formal),2021.2.3,Win32,58.82352941,,,,,,,,,,,,,,,,,,,,,,,,,,,,,,,,,,,i,1,0,6,6,4,1,0.8022,,,,,,,,,,,,,,,,,,,,,,,,
,,,,,,,,,,,他,e,用户61870,001,2024-08-23_13h57.34.560,IAT(Formal),2021.2.3,Win32,58.82352941,,,,,,,,,,,,,,,,,,,,,,,,,,,,,,,,,,,e,1,0,7,7,5,1,0.5676,,,,,,,,,,,,,,,,,,,,,,,,
,,,,,,,,,,,自己,i,用户61870,001,2024-08-23_13h57.34.560,IAT(Formal),2021.2.3,Win32,58.82352941,,,,,,,,,,,,,,,,,,,,,,,,,,,,,,,,,,,i,1,0,8,8,3,1,0.9136,,,,,,,,,,,,,,,,,,,,,,,,
,,,,,,,,,,,他的,e,用户61870,001,2024-08-23_13h57.34.560,IAT(Formal),2021.2.3,Win32,58.82352941,,,,,,,,,,,,,,,,,,,,,,,,,,,,,,,,,,,i,0,0,9,9,7,1,1.2329,,,,,,,,,,,,,,,,,,,,,,,,
,,,,,,,,,,,,,用户61870,001,2024-08-23_13h57.34.560,IAT(Formal),2021.2.3,Win32,58.82352941,,,,,,,,,,,,,,,,,,,,,,,,,,,,,,,,,,,,,,,,,,,space,9.4095,i,1,1.13,0,0,0,62,1,我们,i,,,,,,,,,,,,
,,,,,,,,,,,,,用户61870,001,2024-08-23_13h57.34.560,IAT(Formal),2021.2.3,Win32,58.82352941,,,,,,,,,,,,,,,,,,,,,,,,,,,,,,,,,,,,,,,,,,,,,,0,,0,1,1,52,1,我们,i,,,,,,,,,,,,
,,,,,,,,,,,,,用户61870,001,2024-08-23_13h57.34.560,IAT(Formal),2021.2.3,Win32,58.82352941,,,,,,,,,,,,,,,,,,,,,,,,,,,,,,,,,,,,,,,,,,,,,i,1,0.6532,0,2,2,39,1,冒失,i,,,,,,,,,,,,
,,,,,,,,,,,,,用户61870,001,2024-08-23_13h57.34.560,IAT(Formal),2021.2.3,Win32,58.82352941,,,,,,,,,,,,,,,,,,,,,,,,,,,,,,,,,,,,,,,,,,,,,i,1,0.9433,0,3,3,42,1,凶狠,i,,,,,,,,,,,,
,,,,,,,,,,,,,用户61870,001,2024-08-23_13h57.34.560,IAT(Formal),2021.2.3,Win32,58.82352941,,,,,,,,,,,,,,,,,,,,,,,,,,,,,,,,,,,,,,,,,,,,,e,1,0.8345,0,4,4,14,1,乐观,e,,,,,,,,,,,,
,,,,,,,,,,,,,用户61870,001,2024-08-23_13h57.34.560,IAT(Formal),2021.2.3,Win32,58.82352941,,,,,,,,,,,,,,,,,,,,,,,,,,,,,,,,,,,,,,,,,,,,,e,1,0.8381,0,5,5,76,1,他们,e,,,,,,,,,,,,
,,,,,,,,,,,,,用户61870,001,2024-08-23_13h57.34.560,IAT(Formal),2021.2.3,Win32,58.82352941,,,,,,,,,,,,,,,,,,,,,,,,,,,,,,,,,,,,,,,,,,,,,e,1,0.9486,0,6,6,25,1,细腻,e,,,,,,,,,,,,
,,,,,,,,,,,,,用户61870,001,2024-08-23_13h57.34.560,IAT(Formal),2021.2.3,Win32,58.82352941,,,,,,,,,,,,,,,,,,,,,,,,,,,,,,,,,,,,,,,,,,,,,e,1,0.624,0,7,7,22,1,无私,e,,,,,,,,,,,,
,,,,,,,,,,,,,用户61870,001,2024-08-23_13h57.34.560,IAT(Formal),2021.2.3,Win32,58.82352941,,,,,,,,,,,,,,,,,,,,,,,,,,,,,,,,,,,,,,,,,,,,,e,1,0.4969,0,8,8,21,1,稳重,e,,,,,,,,,,,,
,,,,,,,,,,,,,用户61870,001,2024-08-23_13h57.34.560,IAT(Formal),2021.2.3,Win32,58.82352941,,,,,,,,,,,,,,,,,,,,,,,,,,,,,,,,,,,,,,,,,,,,,i,1,0.8643,0,9,9,48,1,轻率,i,,,,,,,,,,,,
,,,,,,,,,,,,,用户61870,001,2024-08-23_13h57.34.560,IAT(Formal),2021.2.3,Win32,58.82352941,,,,,,,,,,,,,,,,,,,,,,,,,,,,,,,,,,,,,,,,,,,,,e,1,0.5801,0,10,10,20,1,认真,e,,,,,,,,,,,,
,,,,,,,,,,,,,用户61870,001,2024-08-23_13h57.34.560,IAT(Formal),2021.2.3,Win32,58.82352941,,,,,,,,,,,,,,,,,,,,,,,,,,,,,,,,,,,,,,,,,,,,,i,0,0.6601,0,11,11,55,1,他,e,,,,,,,,,,,,
,,,,,,,,,,,,,用户61870,001,2024-08-23_13h57.34.560,IAT(Formal),2021.2.3,Win32,58.82352941,,,,,,,,,,,,,,,,,,,,,,,,,,,,,,,,,,,,,,,,,,,,,i,1,0.9939,0,12,12,1,1,我的,i,,,,,,,,,,,,
,,,,,,,,,,,,,用户61870,001,2024-08-23_13h57.34.560,IAT(Formal),2021.2.3,Win32,58.82352941,,,,,,,,,,,,,,,,,,,,,,,,,,,,,,,,,,,,,,,,,,,,,e,0,0.9262,0,13,13,41,1,散漫,i,,,,,,,,,,,,
,,,,,,,,,,,,,用户61870,001,2024-08-23_13h57.34.560,IAT(Formal),2021.2.3,Win32,58.82352941,,,,,,,,,,,,,,,,,,,,,,,,,,,,,,,,,,,,,,,,,,,,,,0,,0,14,14,69,1,其他,e,,,,,,,,,,,,
,,,,,,,,,,,,,用户61870,001,2024-08-23_13h57.34.560,IAT(Formal),2021.2.3,Win32,58.82352941,,,,,,,,,,,,,,,,,,,,,,,,,,,,,,,,,,,,,,,,,,,,,e,1,0.4808,0,15,15,7,1,他的,e,,,,,,,,,,,,
,,,,,,,,,,,,,用户61870,001,2024-08-23_13h57.34.560,IAT(Formal),2021.2.3,Win32,58.82352941,,,,,,,,,,,,,,,,,,,,,,,,,,,,,,,,,,,,,,,,,,,,,i,1,0.7978,0,16,16,4,1,俺,i,,,,,,,,,,,,
,,,,,,,,,,,,,用户61870,001,2024-08-23_13h57.34.560,IAT(Formal),2021.2.3,Win32,58.82352941,,,,,,,,,,,,,,,,,,,,,,,,,,,,,,,,,,,,,,,,,,,,,e,1,0.9743,0,17,17,11,1,崇高,e,,,,,,,,,,,,
,,,,,,,,,,,,,用户61870,001,2024-08-23_13h57.34.560,IAT(Formal),2021.2.3,Win32,58.82352941,,,,,,,,,,,,,,,,,,,,,,,,,,,,,,,,,,,,,,,,,,,,,e,0,0.879,0,18,18,37,1,傲慢,i,,,,,,,,,,,,
,,,,,,,,,,,,,用户61870,001,2024-08-23_13h57.34.560,IAT(Formal),2021.2.3,Win32,58.82352941,,,,,,,,,,,,,,,,,,,,,,,,,,,,,,,,,,,,,,,,,,,,,i,0,0.7512,0,19,19,27,1,热情,e,,,,,,,,,,,,
,,,,,,,,,,,,,用户61870,001,2024-08-23_13h57.34.560,IAT(Formal),2021.2.3,Win32,58.82352941,,,,,,,,,,,,,,,,,,,,,,,,,,,,,,,,,,,,,,,,,,,,,e,1,0.8048,0,20,20,5,1,他,e,,,,,,,,,,,,
,,,,,,,,,,,,,用户61870,001,2024-08-23_13h57.34.560,IAT(Formal),2021.2.3,Win32,58.82352941,,,,,,,,,,,,,,,,,,,,,,,,,,,,,,,,,,,,,,,,,,,,,i,0,0.69,0,21,21,9,1,其他,e,,,,,,,,,,,,
,,,,,,,,,,,,,用户61870,001,2024-08-23_13h57.34.560,IAT(Formal),2021.2.3,Win32,58.82352941,,,,,,,,,,,,,,,,,,,,,,,,,,,,,,,,,,,,,,,,,,,,,e,0,0.6591,0,22,22,61,1,我的,i,,,,,,,,,,,,
,,,,,,,,,,,,,用户61870,001,2024-08-23_13h57.34.560,IAT(Formal),2021.2.3,Win32,58.82352941,,,,,,,,,,,,,,,,,,,,,,,,,,,,,,,,,,,,,,,,,,,,,e,1,0.0025,0,23,23,66,1,他们,e,,,,,,,,,,,,
,,,,,,,,,,,,,用户61870,001,2024-08-23_13h57.34.560,IAT(Formal),2021.2.3,Win32,58.82352941,,,,,,,,,,,,,,,,,,,,,,,,,,,,,,,,,,,,,,,,,,,,,e,0,1.051,0,24,24,34,1,悲观,i,,,,,,,,,,,,
,,,,,,,,,,,,,用户61870,001,2024-08-23_13h57.34.560,IAT(Formal),2021.2.3,Win32,58.82352941,,,,,,,,,,,,,,,,,,,,,,,,,,,,,,,,,,,,,,,,,,,,,i,1,0.6929,0,25,25,46,1,野蛮,i,,,,,,,,,,,,
,,,,,,,,,,,,,用户61870,001,2024-08-23_13h57.34.560,IAT(Formal),2021.2.3,Win32,58.82352941,,,,,,,,,,,,,,,,,,,,,,,,,,,,,,,,,,,,,,,,,,,,,e,1,0.6225,0,26,26,23,1,公正,e,,,,,,,,,,,,
,,,,,,,,,,,,,用户61870,001,2024-08-23_13h57.34.560,IAT(Formal),2021.2.3,Win32,58.82352941,,,,,,,,,,,,,,,,,,,,,,,,,,,,,,,,,,,,,,,,,,,,,e,1,0.7605,0,27,27,24,1,朴实,e,,,,,,,,,,,,
,,,,,,,,,,,,,用户61870,001,2024-08-23_13h57.34.560,IAT(Formal),2021.2.3,Win32,58.82352941,,,,,,,,,,,,,,,,,,,,,,,,,,,,,,,,,,,,,,,,,,,,,e,1,0.5994,0,28,28,56,1,他们,e,,,,,,,,,,,,
,,,,,,,,,,,,,用户61870,001,2024-08-23_13h57.34.560,IAT(Formal),2021.2.3,Win32,58.82352941,,,,,,,,,,,,,,,,,,,,,,,,,,,,,,,,,,,,,,,,,,,,,i,1,0.8019,0,29,29,64,1,俺,i,,,,,,,,,,,,
,,,,,,,,,,,,,用户61870,001,2024-08-23_13h57.34.560,IAT(Formal),2021.2.3,Win32,58.82352941,,,,,,,,,,,,,,,,,,,,,,,,,,,,,,,,,,,,,,,,,,,,,e,1,0.8244,0,30,30,12,1,聪明,e,,,,,,,,,,,,
,,,,,,,,,,,,,用户61870,001,2024-08-23_13h57.34.560,IAT(Formal),2021.2.3,Win32,58.82352941,,,,,,,,,,,,,,,,,,,,,,,,,,,,,,,,,,,,,,,,,,,,,e,1,0.506,0,31,31,13,1,杰出,e,,,,,,,,,,,,
,,,,,,,,,,,,,用户61870,001,2024-08-23_13h57.34.560,IAT(Formal),2021.2.3,Win32,58.82352941,,,,,,,,,,,,,,,,,,,,,,,,,,,,,,,,,,,,,,,,,,,,,i,1,0.8047,0,32,32,49,1,下贱,i,,,,,,,,,,,,
,,,,,,,,,,,,,用户61870,001,2024-08-23_13h57.34.560,IAT(Formal),2021.2.3,Win32,58.82352941,,,,,,,,,,,,,,,,,,,,,,,,,,,,,,,,,,,,,,,,,,,,,e,0,0.5299,0,33,33,2,1,我们,i,,,,,,,,,,,,
,,,,,,,,,,,,,用户61870,001,2024-08-23_13h57.34.560,IAT(Formal),2021.2.3,Win32,58.82352941,,,,,,,,,,,,,,,,,,,,,,,,,,,,,,,,,,,,,,,,,,,,,e,1,0.6358,0,34,34,8,1,他人,e,,,,,,,,,,,,
,,,,,,,,,,,,,用户61870,001,2024-08-23_13h57.34.560,IAT(Formal),2021.2.3,Win32,58.82352941,,,,,,,,,,,,,,,,,,,,,,,,,,,,,,,,,,,,,,,,,,,,,e,1,1.1261,0,35,35,17,1,勇敢,e,,,,,,,,,,,,
,,,,,,,,,,,,,用户61870,001,2024-08-23_13h57.34.560,IAT(Formal),2021.2.3,Win32,58.82352941,,,,,,,,,,,,,,,,,,,,,,,,,,,,,,,,,,,,,,,,,,,,,e,1,0.6504,0,36,36,6,1,他们,e,,,,,,,,,,,,
,,,,,,,,,,,,,用户61870,001,2024-08-23_13h57.34.560,IAT(Formal),2021.2.3,Win32,58.82352941,,,,,,,,,,,,,,,,,,,,,,,,,,,,,,,,,,,,,,,,,,,,,e,0,0.8306,0,37,37,63,1,自己,i,,,,,,,,,,,,
,,,,,,,,,,,,,用户61870,001,2024-08-23_13h57.34.560,IAT(Formal),2021.2.3,Win32,58.82352941,,,,,,,,,,,,,,,,,,,,,,,,,,,,,,,,,,,,,,,,,,,,,i,1,1.1745,0,38,38,33,1,刻薄,i,,,,,,,,,,,,
,,,,,,,,,,,,,用户61870,001,2024-08-23_13h57.34.560,IAT(Formal),2021.2.3,Win32,58.82352941,,,,,,,,,,,,,,,,,,,,,,,,,,,,,,,,,,,,,,,,,,,,,e,1,0.5773,0,39,39,65,1,他,e,,,,,,,,,,,,
,,,,,,,,,,,,,用户61870,001,2024-08-23_13h57.34.560,IAT(Formal),2021.2.3,Win32,58.82352941,,,,,,,,,,,,,,,,,,,,,,,,,,,,,,,,,,,,,,,,,,,,,e,0,0.7426,0,40,40,70,1,我,i,,,,,,,,,,,,
,,,,,,,,,,,,,用户61870,001,2024-08-23_13h57.34.560,IAT(Formal),2021.2.3,Win32,58.82352941,,,,,,,,,,,,,,,,,,,,,,,,,,,,,,,,,,,,,,,,,,,,,i,1,0.6432,0,41,41,0,1,我,i,,,,,,,,,,,,
,,,,,,,,,,,,,用户61870,001,2024-08-23_13h57.34.560,IAT(Formal),2021.2.3,Win32,58.82352941,,,,,,,,,,,,,,,,,,,,,,,,,,,,,,,,,,,,,,,,,,,,,e,0,0.6354,0,42,42,50,1,我,i,,,,,,,,,,,,
,,,,,,,,,,,,,用户61870,001,2024-08-23_13h57.34.560,IAT(Formal),2021.2.3,Win32,58.82352941,,,,,,,,,,,,,,,,,,,,,,,,,,,,,,,,,,,,,,,,,,,,,e,1,0.8564,0,43,43,78,1,他人,e,,,,,,,,,,,,
,,,,,,,,,,,,,用户61870,001,2024-08-23_13h57.34.560,IAT(Formal),2021.2.3,Win32,58.82352941,,,,,,,,,,,,,,,,,,,,,,,,,,,,,,,,,,,,,,,,,,,,,e,1,0.5838,0,44,44,57,1,他的,e,,,,,,,,,,,,
,,,,,,,,,,,,,用户61870,001,2024-08-23_13h57.34.560,IAT(Formal),2021.2.3,Win32,58.82352941,,,,,,,,,,,,,,,,,,,,,,,,,,,,,,,,,,,,,,,,,,,,,i,1,0.8781,0,45,45,44,1,暴躁,i,,,,,,,,,,,,
,,,,,,,,,,,,,用户61870,001,2024-08-23_13h57.34.560,IAT(Formal),2021.2.3,Win32,58.82352941,,,,,,,,,,,,,,,,,,,,,,,,,,,,,,,,,,,,,,,,,,,,,i,1,0.9161,0,46,46,30,1,卑鄙,i,,,,,,,,,,,,
,,,,,,,,,,,,,用户61870,001,2024-08-23_13h57.34.560,IAT(Formal),2021.2.3,Win32,58.82352941,,,,,,,,,,,,,,,,,,,,,,,,,,,,,,,,,,,,,,,,,,,,,i,0,0.0217,0,47,47,29,1,诚恳,e,,,,,,,,,,,,
,,,,,,,,,,,,,用户61870,001,2024-08-23_13h57.34.560,IAT(Formal),2021.2.3,Win32,58.82352941,,,,,,,,,,,,,,,,,,,,,,,,,,,,,,,,,,,,,,,,,,,,,i,1,0.566,0,48,48,31,1,虚伪,i,,,,,,,,,,,,
,,,,,,,,,,,,,用户61870,001,2024-08-23_13h57.34.560,IAT(Formal),2021.2.3,Win32,58.82352941,,,,,,,,,,,,,,,,,,,,,,,,,,,,,,,,,,,,,,,,,,,,,,0,,0,49,49,43,1,自私,i,,,,,,,,,,,,
,,,,,,,,,,,,,用户61870,001,2024-08-23_13h57.34.560,IAT(Formal),2021.2.3,Win32,58.82352941,,,,,,,,,,,,,,,,,,,,,,,,,,,,,,,,,,,,,,,,,,,,,e,0,0.5027,0,50,50,73,1,自己,i,,,,,,,,,,,,
,,,,,,,,,,,,,用户61870,001,2024-08-23_13h57.34.560,IAT(Formal),2021.2.3,Win32,58.82352941,,,,,,,,,,,,,,,,,,,,,,,,,,,,,,,,,,,,,,,,,,,,,e,1,0.6735,0,51,51,15,1,诚实,e,,,,,,,,,,,,
,,,,,,,,,,,,,用户61870,001,2024-08-23_13h57.34.560,IAT(Formal),2021.2.3,Win32,58.82352941,,,,,,,,,,,,,,,,,,,,,,,,,,,,,,,,,,,,,,,,,,,,,i,1,0.589,0,52,52,54,1,俺,i,,,,,,,,,,,,
,,,,,,,,,,,,,用户61870,001,2024-08-23_13h57.34.560,IAT(Formal),2021.2.3,Win32,58.82352941,,,,,,,,,,,,,,,,,,,,,,,,,,,,,,,,,,,,,,,,,,,,,e,1,0.4724,0,53,53,10,1,优秀,e,,,,,,,,,,,,
,,,,,,,,,,,,,用户61870,001,2024-08-23_13h57.34.560,IAT(Formal),2021.2.3,Win32,58.82352941,,,,,,,,,,,,,,,,,,,,,,,,,,,,,,,,,,,,,,,,,,,,,e,1,0.6415,0,54,54,16,1,正直,e,,,,,,,,,,,,
,,,,,,,,,,,,,用户61870,001,2024-08-23_13h57.34.560,IAT(Formal),2021.2.3,Win32,58.82352941,,,,,,,,,,,,,,,,,,,,,,,,,,,,,,,,,,,,,,,,,,,,,i,0,0.5588,0,55,55,79,1,其他,e,,,,,,,,,,,,
,,,,,,,,,,,,,用户61870,001,2024-08-23_13h57.34.560,IAT(Formal),2021.2.3,Win32,58.82352941,,,,,,,,,,,,,,,,,,,,,,,,,,,,,,,,,,,,,,,,,,,,,e,0,0.6385,0,56,56,74,1,俺,i,,,,,,,,,,,,
,,,,,,,,,,,,,用户61870,001,2024-08-23_13h57.34.560,IAT(Formal),2021.2.3,Win32,58.82352941,,,,,,,,,,,,,,,,,,,,,,,,,,,,,,,,,,,,,,,,,,,,,i,1,0.5213,0,57,57,38,1,鲁莽,i,,,,,,,,,,,,
,,,,,,,,,,,,,用户61870,001,2024-08-23_13h57.34.560,IAT(Formal),2021.2.3,Win32,58.82352941,,,,,,,,,,,,,,,,,,,,,,,,,,,,,,,,,,,,,,,,,,,,,i,0,0.4696,0,58,58,77,1,他的,e,,,,,,,,,,,,
,,,,,,,,,,,,,用户61870,001,2024-08-23_13h57.34.560,IAT(Formal),2021.2.3,Win32,58.82352941,,,,,,,,,,,,,,,,,,,,,,,,,,,,,,,,,,,,,,,,,,,,,i,1,0.685,0,59,59,40,1,执拗,i,,,,,,,,,,,,
,,,,,,,,,,,,,用户61870,001,2024-08-23_13h57.34.560,IAT(Formal),2021.2.3,Win32,58.82352941,,,,,,,,,,,,,,,,,,,,,,,,,,,,,,,,,,,,,,,,,,,,,i,0,0.5992,0,60,60,59,1,其他,e,,,,,,,,,,,,
,,,,,,,,,,,,,用户61870,001,2024-08-23_13h57.34.560,IAT(Formal),2021.2.3,Win32,58.82352941,,,,,,,,,,,,,,,,,,,,,,,,,,,,,,,,,,,,,,,,,,,,,i,1,0.6159,0,61,61,60,1,我,i,,,,,,,,,,,,
,,,,,,,,,,,,,用户61870,001,2024-08-23_13h57.34.560,IAT(Formal),2021.2.3,Win32,58.82352941,,,,,,,,,,,,,,,,,,,,,,,,,,,,,,,,,,,,,,,,,,,,,i,1,0.4931,0,62,62,35,1,消极,i,,,,,,,,,,,,
,,,,,,,,,,,,,用户61870,001,2024-08-23_13h57.34.560,IAT(Formal),2021.2.3,Win32,58.82352941,,,,,,,,,,,,,,,,,,,,,,,,,,,,,,,,,,,,,,,,,,,,,e,0,0.6302,0,63,63,71,1,我的,i,,,,,,,,,,,,
,,,,,,,,,,,,,用户61870,001,2024-08-23_13h57.34.560,IAT(Formal),2021.2.3,Win32,58.82352941,,,,,,,,,,,,,,,,,,,,,,,,,,,,,,,,,,,,,,,,,,,,,i,1,0.6458,0,64,64,3,1,自己,i,,,,,,,,,,,,
,,,,,,,,,,,,,用户61870,001,2024-08-23_13h57.34.560,IAT(Formal),2021.2.3,Win32,58.82352941,,,,,,,,,,,,,,,,,,,,,,,,,,,,,,,,,,,,,,,,,,,,,e,1,0.6156,0,65,65,75,1,他,e,,,,,,,,,,,,
,,,,,,,,,,,,,用户61870,001,2024-08-23_13h57.34.560,IAT(Formal),2021.2.3,Win32,58.82352941,,,,,,,,,,,,,,,,,,,,,,,,,,,,,,,,,,,,,,,,,,,,,e,1,0.8031,0,66,66,19,1,机智,e,,,,,,,,,,,,
,,,,,,,,,,,,,用户61870,001,2024-08-23_13h57.34.560,IAT(Formal),2021.2.3,Win32,58.82352941,,,,,,,,,,,,,,,,,,,,,,,,,,,,,,,,,,,,,,,,,,,,,e,1,0.5238,0,67,67,28,1,活泼,e,,,,,,,,,,,,
,,,,,,,,,,,,,用户61870,001,2024-08-23_13h57.34.560,IAT(Formal),2021.2.3,Win32,58.82352941,,,,,,,,,,,,,,,,,,,,,,,,,,,,,,,,,,,,,,,,,,,,,i,1,0.6324,0,68,68,45,1,猖狂,i,,,,,,,,,,,,
,,,,,,,,,,,,,用户61870,001,2024-08-23_13h57.34.560,IAT(Formal),2021.2.3,Win32,58.82352941,,,,,,,,,,,,,,,,,,,,,,,,,,,,,,,,,,,,,,,,,,,,,e,1,0.5463,0,69,69,67,1,他的,e,,,,,,,,,,,,
,,,,,,,,,,,,,用户61870,001,2024-08-23_13h57.34.560,IAT(Formal),2021.2.3,Win32,58.82352941,,,,,,,,,,,,,,,,,,,,,,,,,,,,,,,,,,,,,,,,,,,,,e,0,0.7195,0,70,70,47,1,固执,i,,,,,,,,,,,,
,,,,,,,,,,,,,用户61870,001,2024-08-23_13h57.34.560,IAT(Formal),2021.2.3,Win32,58.82352941,,,,,,,,,,,,,,,,,,,,,,,,,,,,,,,,,,,,,,,,,,,,,e,0,0.449,0,71,71,53,1,自己,i,,,,,,,,,,,,
,,,,,,,,,,,,,用户61870,001,2024-08-23_13h57.34.560,IAT(Formal),2021.2.3,Win32,58.82352941,,,,,,,,,,,,,,,,,,,,,,,,,,,,,,,,,,,,,,,,,,,,,e,1,0.5376,0,72,72,18,1,勤奋,e,,,,,,,,,,,,
,,,,,,,,,,,,,用户61870,001,2024-08-23_13h57.34.560,IAT(Formal),2021.2.3,Win32,58.82352941,,,,,,,,,,,,,,,,,,,,,,,,,,,,,,,,,,,,,,,,,,,,,e,1,0.6378,0,73,73,58,1,他人,e,,,,,,,,,,,,
,,,,,,,,,,,,,用户61870,001,2024-08-23_13h57.34.560,IAT(Formal),2021.2.3,Win32,58.82352941,,,,,,,,,,,,,,,,,,,,,,,,,,,,,,,,,,,,,,,,,,,,,i,1,0.5183,0,74,74,36,1,自卑,i,,,,,,,,,,,,
,,,,,,,,,,,,,用户61870,001,2024-08-23_13h57.34.560,IAT(Formal),2021.2.3,Win32,58.82352941,,,,,,,,,,,,,,,,,,,,,,,,,,,,,,,,,,,,,,,,,,,,,e,0,0.4847,0,75,75,51,1,我的,i,,,,,,,,,,,,
,,,,,,,,,,,,,用户61870,001,2024-08-23_13h57.34.560,IAT(Formal),2021.2.3,Win32,58.82352941,,,,,,,,,,,,,,,,,,,,,,,,,,,,,,,,,,,,,,,,,,,,,e,1,0.4333,0,76,76,68,1,他人,e,,,,,,,,,,,,
,,,,,,,,,,,,,用户61870,001,2024-08-23_13h57.34.560,IAT(Formal),2021.2.3,Win32,58.82352941,,,,,,,,,,,,,,,,,,,,,,,,,,,,,,,,,,,,,,,,,,,,,e,1,0.4717,0,77,77,26,1,冷静,e,,,,,,,,,,,,
,,,,,,,,,,,,,用户61870,001,2024-08-23_13h57.34.560,IAT(Formal),2021.2.3,Win32,58.82352941,,,,,,,,,,,,,,,,,,,,,,,,,,,,,,,,,,,,,,,,,,,,,i,1,0.616,0,78,78,32,1,愚蠢,i,,,,,,,,,,,,
,,,,,,,,,,,,,用户61870,001,2024-08-23_13h57.34.560,IAT(Formal),2021.2.3,Win32,58.82352941,,,,,,,,,,,,,,,,,,,,,,,,,,,,,,,,,,,,,,,,,,,,,e,0,0.6566,0,79,79,72,1,我们,i,,,,,,,,,,,,
,,,,,,,,,,,,,用户61870,001,2024-08-23_13h57.34.560,IAT(Formal),2021.2.3,Win32,58.82352941,,,,,,,,,,,,,,,,,,,,,,,,,,,,,,,,,,,,,,,,,,,,,,,,,,,,,我,i,space,7.8411,e,0,0.6653,0,0,0,0,1,,
,,,,,,,,,,,,,用户61870,001,2024-08-23_13h57.34.560,IAT(Formal),2021.2.3,Win32,58.82352941,,,,,,,,,,,,,,,,,,,,,,,,,,,,,,,,,,,,,,,,,,,,,,,,,,,,,热情,e,,,e,1,0.0168,0,1,1,27,1,,
,,,,,,,,,,,,,用户61870,001,2024-08-23_13h57.34.560,IAT(Formal),2021.2.3,Win32,58.82352941,,,,,,,,,,,,,,,,,,,,,,,,,,,,,,,,,,,,,,,,,,,,,,,,,,,,,他,e,,,e,1,0.0074,0,2,2,65,1,,
,,,,,,,,,,,,,用户61870,001,2024-08-23_13h57.34.560,IAT(Formal),2021.2.3,Win32,58.82352941,,,,,,,,,,,,,,,,,,,,,,,,,,,,,,,,,,,,,,,,,,,,,,,,,,,,,勇敢,e,,,e,1,0.2891,0,3,3,17,1,,
,,,,,,,,,,,,,用户61870,001,2024-08-23_13h57.34.560,IAT(Formal),2021.2.3,Win32,58.82352941,,,,,,,,,,,,,,,,,,,,,,,,,,,,,,,,,,,,,,,,,,,,,,,,,,,,,乐观,e,,,e,1,0.8501,0,4,4,14,1,,
,,,,,,,,,,,,,用户61870,001,2024-08-23_13h57.34.560,IAT(Formal),2021.2.3,Win32,58.82352941,,,,,,,,,,,,,,,,,,,,,,,,,,,,,,,,,,,,,,,,,,,,,,,,,,,,,俺,i,,,e,0,0.5075,0,5,5,74,1,,
,,,,,,,,,,,,,用户61870,001,2024-08-23_13h57.34.560,IAT(Formal),2021.2.3,Win32,58.82352941,,,,,,,,,,,,,,,,,,,,,,,,,,,,,,,,,,,,,,,,,,,,,,,,,,,,,我的,i,,,e,0,0.1642,0,6,6,61,1,,
,,,,,,,,,,,,,用户61870,001,2024-08-23_13h57.34.560,IAT(Formal),2021.2.3,Win32,58.82352941,,,,,,,,,,,,,,,,,,,,,,,,,,,,,,,,,,,,,,,,,,,,,,,,,,,,,自己,i,,,e,0,0.7328,0,7,7,63,1,,
,,,,,,,,,,,,,用户61870,001,2024-08-23_13h57.34.560,IAT(Formal),2021.2.3,Win32,58.82352941,,,,,,,,,,,,,,,,,,,,,,,,,,,,,,,,,,,,,,,,,,,,,,,,,,,,,他人,e,,,e,1,0.5037,0,8,8,78,1,,
,,,,,,,,,,,,,用户61870,001,2024-08-23_13h57.34.560,IAT(Formal),2021.2.3,Win32,58.82352941,,,,,,,,,,,,,,,,,,,,,,,,,,,,,,,,,,,,,,,,,,,,,,,,,,,,,他的,e,,,e,1,0.4485,0,9,9,77,1,,
,,,,,,,,,,,,,用户61870,001,2024-08-23_13h57.34.560,IAT(Formal),2021.2.3,Win32,58.82352941,,,,,,,,,,,,,,,,,,,,,,,,,,,,,,,,,,,,,,,,,,,,,,,,,,,,,自己,i,,,e,0,0.5006,0,10,10,53,1,,
,,,,,,,,,,,,,用户61870,001,2024-08-23_13h57.34.560,IAT(Formal),2021.2.3,Win32,58.82352941,,,,,,,,,,,,,,,,,,,,,,,,,,,,,,,,,,,,,,,,,,,,,,,,,,,,,我的,i,,,e,0,0.5718,0,11,11,1,1,,
,,,,,,,,,,,,,用户61870,001,2024-08-23_13h57.34.560,IAT(Formal),2021.2.3,Win32,58.82352941,,,,,,,,,,,,,,,,,,,,,,,,,,,,,,,,,,,,,,,,,,,,,,,,,,,,,我,i,,,e,0,0.4373,0,12,12,70,1,,
,,,,,,,,,,,,,用户61870,001,2024-08-23_13h57.34.560,IAT(Formal),2021.2.3,Win32,58.82352941,,,,,,,,,,,,,,,,,,,,,,,,,,,,,,,,,,,,,,,,,,,,,,,,,,,,,俺,i,,,e,0,0.5141,0,13,13,64,1,,
,,,,,,,,,,,,,用户61870,001,2024-08-23_13h57.34.560,IAT(Formal),2021.2.3,Win32,58.82352941,,,,,,,,,,,,,,,,,,,,,,,,,,,,,,,,,,,,,,,,,,,,,,,,,,,,,认真,e,,,e,1,0.5163,0,14,14,20,1,,
,,,,,,,,,,,,,用户61870,001,2024-08-23_13h57.34.560,IAT(Formal),2021.2.3,Win32,58.82352941,,,,,,,,,,,,,,,,,,,,,,,,,,,,,,,,,,,,,,,,,,,,,,,,,,,,,他人,e,,,i,0,0.4233,0,15,15,58,1,,
,,,,,,,,,,,,,用户61870,001,2024-08-23_13h57.34.560,IAT(Formal),2021.2.3,Win32,58.82352941,,,,,,,,,,,,,,,,,,,,,,,,,,,,,,,,,,,,,,,,,,,,,,,,,,,,,他,e,,,i,0,0.6442,0,16,16,55,1,,
,,,,,,,,,,,,,用户61870,001,2024-08-23_13h57.34.560,IAT(Formal),2021.2.3,Win32,58.82352941,,,,,,,,,,,,,,,,,,,,,,,,,,,,,,,,,,,,,,,,,,,,,,,,,,,,,他人,e,,,e,1,0.7634,0,17,17,8,1,,
,,,,,,,,,,,,,用户61870,001,2024-08-23_13h57.34.560,IAT(Formal),2021.2.3,Win32,58.82352941,,,,,,,,,,,,,,,,,,,,,,,,,,,,,,,,,,,,,,,,,,,,,,,,,,,,,悲观,i,,,i,1,0.7993,0,18,18,34,1,,
,,,,,,,,,,,,,用户61870,001,2024-08-23_13h57.34.560,IAT(Formal),2021.2.3,Win32,58.82352941,,,,,,,,,,,,,,,,,,,,,,,,,,,,,,,,,,,,,,,,,,,,,,,,,,,,,自私,i,,,i,1,0.6687,0,19,19,43,1,,
,,,,,,,,,,,,,用户61870,001,2024-08-23_13h57.34.560,IAT(Formal),2021.2.3,Win32,58.82352941,,,,,,,,,,,,,,,,,,,,,,,,,,,,,,,,,,,,,,,,,,,,,,,,,,,,,虚伪,i,,,i,1,1.0376,0,20,20,31,1,,
,,,,,,,,,,,,,用户61870,001,2024-08-23_13h57.34.560,IAT(Formal),2021.2.3,Win32,58.82352941,,,,,,,,,,,,,,,,,,,,,,,,,,,,,,,,,,,,,,,,,,,,,,,,,,,,,我,i,,,e,0,0.7727,0,21,21,50,1,,
,,,,,,,,,,,,,用户61870,001,2024-08-23_13h57.34.560,IAT(Formal),2021.2.3,Win32,58.82352941,,,,,,,,,,,,,,,,,,,,,,,,,,,,,,,,,,,,,,,,,,,,,,,,,,,,,他,e,,,e,1,0.6667,0,22,22,75,1,,
,,,,,,,,,,,,,用户61870,001,2024-08-23_13h57.34.560,IAT(Formal),2021.2.3,Win32,58.82352941,,,,,,,,,,,,,,,,,,,,,,,,,,,,,,,,,,,,,,,,,,,,,,,,,,,,,活泼,e,,,e,1,0.738,0,23,23,28,1,,
,,,,,,,,,,,,,用户61870,001,2024-08-23_13h57.34.560,IAT(Formal),2021.2.3,Win32,58.82352941,,,,,,,,,,,,,,,,,,,,,,,,,,,,,,,,,,,,,,,,,,,,,,,,,,,,,我,i,,,i,1,0.5886,0,24,24,60,1,,
,,,,,,,,,,,,,用户61870,001,2024-08-23_13h57.34.560,IAT(Formal),2021.2.3,Win32,58.82352941,,,,,,,,,,,,,,,,,,,,,,,,,,,,,,,,,,,,,,,,,,,,,,,,,,,,,无私,e,,,e,1,1.2192,0,25,25,22,1,,
,,,,,,,,,,,,,用户61870,001,2024-08-23_13h57.34.560,IAT(Formal),2021.2.3,Win32,58.82352941,,,,,,,,,,,,,,,,,,,,,,,,,,,,,,,,,,,,,,,,,,,,,,,,,,,,,他们,e,,,e,1,0.6864,0,26,26,66,1,,
,,,,,,,,,,,,,用户61870,001,2024-08-23_13h57.34.560,IAT(Formal),2021.2.3,Win32,58.82352941,,,,,,,,,,,,,,,,,,,,,,,,,,,,,,,,,,,,,,,,,,,,,,,,,,,,,稳重,e,,,e,1,0.9243,0,27,27,21,1,,
,,,,,,,,,,,,,用户61870,001,2024-08-23_13h57.34.560,IAT(Formal),2021.2.3,Win32,58.82352941,,,,,,,,,,,,,,,,,,,,,,,,,,,,,,,,,,,,,,,,,,,,,,,,,,,,,他们,e,,,e,1,0.654,0,28,28,6,1,,
,,,,,,,,,,,,,用户61870,001,2024-08-23_13h57.34.560,IAT(Formal),2021.2.3,Win32,58.82352941,,,,,,,,,,,,,,,,,,,,,,,,,,,,,,,,,,,,,,,,,,,,,,,,,,,,,消极,i,,,i,1,0.5825,0,29,29,35,1,,
,,,,,,,,,,,,,用户61870,001,2024-08-23_13h57.34.560,IAT(Formal),2021.2.3,Win32,58.82352941,,,,,,,,,,,,,,,,,,,,,,,,,,,,,,,,,,,,,,,,,,,,,,,,,,,,,我们,i,,,e,0,0.5546,0,30,30,72,1,,
,,,,,,,,,,,,,用户61870,001,2024-08-23_13h57.34.560,IAT(Formal),2021.2.3,Win32,58.82352941,,,,,,,,,,,,,,,,,,,,,,,,,,,,,,,,,,,,,,,,,,,,,,,,,,,,,我的,i,,,e,0,0.4005,0,31,31,71,1,,
,,,,,,,,,,,,,用户61870,001,2024-08-23_13h57.34.560,IAT(Formal),2021.2.3,Win32,58.82352941,,,,,,,,,,,,,,,,,,,,,,,,,,,,,,,,,,,,,,,,,,,,,,,,,,,,,自己,i,,,i,1,0.633,0,32,32,3,1,,
,,,,,,,,,,,,,用户61870,001,2024-08-23_13h57.34.560,IAT(Formal),2021.2.3,Win32,58.82352941,,,,,,,,,,,,,,,,,,,,,,,,,,,,,,,,,,,,,,,,,,,,,,,,,,,,,轻率,i,,,i,1,1.4316,0,33,33,48,1,,
,,,,,,,,,,,,,用户61870,001,2024-08-23_13h57.34.560,IAT(Formal),2021.2.3,Win32,58.82352941,,,,,,,,,,,,,,,,,,,,,,,,,,,,,,,,,,,,,,,,,,,,,,,,,,,,,傲慢,i,,,e,0,0.857,0,34,34,37,1,,
,,,,,,,,,,,,,用户61870,001,2024-08-23_13h57.34.560,IAT(Formal),2021.2.3,Win32,58.82352941,,,,,,,,,,,,,,,,,,,,,,,,,,,,,,,,,,,,,,,,,,,,,,,,,,,,,聪明,e,,,e,1,0.5659,0,35,35,12,1,,
,,,,,,,,,,,,,用户61870,001,2024-08-23_13h57.34.560,IAT(Formal),2021.2.3,Win32,58.82352941,,,,,,,,,,,,,,,,,,,,,,,,,,,,,,,,,,,,,,,,,,,,,,,,,,,,,他人,e,,,e,1,0.3207,0,36,36,68,1,,
,,,,,,,,,,,,,用户61870,001,2024-08-23_13h57.34.560,IAT(Formal),2021.2.3,Win32,58.82352941,,,,,,,,,,,,,,,,,,,,,,,,,,,,,,,,,,,,,,,,,,,,,,,,,,,,,我们,i,,,e,0,0.8266,0,37,37,52,1,,
,,,,,,,,,,,,,用户61870,001,2024-08-23_13h57.34.560,IAT(Formal),2021.2.3,Win32,58.82352941,,,,,,,,,,,,,,,,,,,,,,,,,,,,,,,,,,,,,,,,,,,,,,,,,,,,,凶狠,i,,,i,1,0.6914,0,38,38,42,1,,
,,,,,,,,,,,,,用户61870,001,2024-08-23_13h57.34.560,IAT(Formal),2021.2.3,Win32,58.82352941,,,,,,,,,,,,,,,,,,,,,,,,,,,,,,,,,,,,,,,,,,,,,,,,,,,,,他,e,,,e,1,0.5568,0,39,39,5,1,,
,,,,,,,,,,,,,用户61870,001,2024-08-23_13h57.34.560,IAT(Formal),2021.2.3,Win32,58.82352941,,,,,,,,,,,,,,,,,,,,,,,,,,,,,,,,,,,,,,,,,,,,,,,,,,,,,自己,i,,,i,1,0.7467,0,40,40,73,1,,
,,,,,,,,,,,,,用户61870,001,2024-08-23_13h57.34.560,IAT(Formal),2021.2.3,Win32,58.82352941,,,,,,,,,,,,,,,,,,,,,,,,,,,,,,,,,,,,,,,,,,,,,,,,,,,,,优秀,e,,,e,1,0.9169,0,41,41,10,1,,
,,,,,,,,,,,,,用户61870,001,2024-08-23_13h57.34.560,IAT(Formal),2021.2.3,Win32,58.82352941,,,,,,,,,,,,,,,,,,,,,,,,,,,,,,,,,,,,,,,,,,,,,,,,,,,,,其他,e,,,i,0,0.7131,0,42,42,79,1,,
,,,,,,,,,,,,,用户61870,001,2024-08-23_13h57.34.560,IAT(Formal),2021.2.3,Win32,58.82352941,,,,,,,,,,,,,,,,,,,,,,,,,,,,,,,,,,,,,,,,,,,,,,,,,,,,,鲁莽,i,,,i,1,0.7591,0,43,43,38,1,,
,,,,,,,,,,,,,用户61870,001,2024-08-23_13h57.34.560,IAT(Formal),2021.2.3,Win32,58.82352941,,,,,,,,,,,,,,,,,,,,,,,,,,,,,,,,,,,,,,,,,,,,,,,,,,,,,固执,i,,,i,1,0.4928,0,44,44,47,1,,
,,,,,,,,,,,,,用户61870,001,2024-08-23_13h57.34.560,IAT(Formal),2021.2.3,Win32,58.82352941,,,,,,,,,,,,,,,,,,,,,,,,,,,,,,,,,,,,,,,,,,,,,,,,,,,,,俺,i,,,i,1,0.486,0,45,45,54,1,,
,,,,,,,,,,,,,用户61870,001,2024-08-23_13h57.34.560,IAT(Formal),2021.2.3,Win32,58.82352941,,,,,,,,,,,,,,,,,,,,,,,,,,,,,,,,,,,,,,,,,,,,,,,,,,,,,他们,e,,,i,0,0.7044,0,46,46,76,1,,
,,,,,,,,,,,,,用户61870,001,2024-08-23_13h57.34.560,IAT(Formal),2021.2.3,Win32,58.82352941,,,,,,,,,,,,,,,,,,,,,,,,,,,,,,,,,,,,,,,,,,,,,,,,,,,,,散漫,i,,,i,1,0.1353,0,47,47,41,1,,
,,,,,,,,,,,,,用户61870,001,2024-08-23_13h57.34.560,IAT(Formal),2021.2.3,Win32,58.82352941,,,,,,,,,,,,,,,,,,,,,,,,,,,,,,,,,,,,,,,,,,,,,,,,,,,,,杰出,e,,,i,0,0.3102,0,48,48,13,1,,
,,,,,,,,,,,,,用户61870,001,2024-08-23_13h57.34.560,IAT(Formal),2021.2.3,Win32,58.82352941,,,,,,,,,,,,,,,,,,,,,,,,,,,,,,,,,,,,,,,,,,,,,,,,,,,,,冒失,i,,,e,0,0.3872,0,49,49,39,1,,
,,,,,,,,,,,,,用户61870,001,2024-08-23_13h57.34.560,IAT(Formal),2021.2.3,Win32,58.82352941,,,,,,,,,,,,,,,,,,,,,,,,,,,,,,,,,,,,,,,,,,,,,,,,,,,,,机智,e,,,e,1,0.3104,0,50,50,19,1,,
,,,,,,,,,,,,,用户61870,001,2024-08-23_13h57.34.560,IAT(Formal),2021.2.3,Win32,58.82352941,,,,,,,,,,,,,,,,,,,,,,,,,,,,,,,,,,,,,,,,,,,,,,,,,,,,,诚实,e,,,e,1,1.1513,0,51,51,15,1,,
,,,,,,,,,,,,,用户61870,001,2024-08-23_13h57.34.560,IAT(Formal),2021.2.3,Win32,58.82352941,,,,,,,,,,,,,,,,,,,,,,,,,,,,,,,,,,,,,,,,,,,,,,,,,,,,,他的,e,,,e,1,1.321,0,52,52,57,1,,
,,,,,,,,,,,,,用户61870,001,2024-08-23_13h57.34.560,IAT(Formal),2021.2.3,Win32,58.82352941,,,,,,,,,,,,,,,,,,,,,,,,,,,,,,,,,,,,,,,,,,,,,,,,,,,,,其他,e,,,e,1,0.823,0,53,53,69,1,,
,,,,,,,,,,,,,用户61870,001,2024-08-23_13h57.34.560,IAT(Formal),2021.2.3,Win32,58.82352941,,,,,,,,,,,,,,,,,,,,,,,,,,,,,,,,,,,,,,,,,,,,,,,,,,,,,卑鄙,i,,,e,0,0.4503,0,54,54,30,1,,
,,,,,,,,,,,,,用户61870,001,2024-08-23_13h57.34.560,IAT(Formal),2021.2.3,Win32,58.82352941,,,,,,,,,,,,,,,,,,,,,,,,,,,,,,,,,,,,,,,,,,,,,,,,,,,,,我的,i,,,i,1,0.0824,0,55,55,51,1,,
,,,,,,,,,,,,,用户61870,001,2024-08-23_13h57.34.560,IAT(Formal),2021.2.3,Win32,58.82352941,,,,,,,,,,,,,,,,,,,,,,,,,,,,,,,,,,,,,,,,,,,,,,,,,,,,,猖狂,i,,,i,1,0.0493,0,56,56,45,1,,
,,,,,,,,,,,,,用户61870,001,2024-08-23_13h57.34.560,IAT(Formal),2021.2.3,Win32,58.82352941,,,,,,,,,,,,,,,,,,,,,,,,,,,,,,,,,,,,,,,,,,,,,,,,,,,,,朴实,e,,,i,0,0.3712,0,57,57,24,1,,
,,,,,,,,,,,,,用户61870,001,2024-08-23_13h57.34.560,IAT(Formal),2021.2.3,Win32,58.82352941,,,,,,,,,,,,,,,,,,,,,,,,,,,,,,,,,,,,,,,,,,,,,,,,,,,,,他的,e,,,e,1,0.1527,0,58,58,67,1,,
,,,,,,,,,,,,,用户61870,001,2024-08-23_13h57.34.560,IAT(Formal),2021.2.3,Win32,58.82352941,,,,,,,,,,,,,,,,,,,,,,,,,,,,,,,,,,,,,,,,,,,,,,,,,,,,,愚蠢,i,,,e,0,0.3533,0,59,59,32,1,,
,,,,,,,,,,,,,用户61870,001,2024-08-23_13h57.34.560,IAT(Formal),2021.2.3,Win32,58.82352941,,,,,,,,,,,,,,,,,,,,,,,,,,,,,,,,,,,,,,,,,,,,,,,,,,,,,他的,e,,,e,1,0.8,0,60,60,7,1,,
,,,,,,,,,,,,,用户61870,001,2024-08-23_13h57.34.560,IAT(Formal),2021.2.3,Win32,58.82352941,,,,,,,,,,,,,,,,,,,,,,,,,,,,,,,,,,,,,,,,,,,,,,,,,,,,,暴躁,i,,,e,0,0.4387,0,61,61,44,1,,
,,,,,,,,,,,,,用户61870,001,2024-08-23_13h57.34.560,IAT(Formal),2021.2.3,Win32,58.82352941,,,,,,,,,,,,,,,,,,,,,,,,,,,,,,,,,,,,,,,,,,,,,,,,,,,,,其他,e,,,e,1,0.4995,0,62,62,59,1,,
,,,,,,,,,,,,,用户61870,001,2024-08-23_13h57.34.560,IAT(Formal),2021.2.3,Win32,58.82352941,,,,,,,,,,,,,,,,,,,,,,,,,,,,,,,,,,,,,,,,,,,,,,,,,,,,,冷静,e,,,e,1,0.4065,0,63,63,26,1,,
,,,,,,,,,,,,,用户61870,001,2024-08-23_13h57.34.560,IAT(Formal),2021.2.3,Win32,58.82352941,,,,,,,,,,,,,,,,,,,,,,,,,,,,,,,,,,,,,,,,,,,,,,,,,,,,,勤奋,e,,,e,1,0.5472,0,64,64,18,1,,
,,,,,,,,,,,,,用户61870,001,2024-08-23_13h57.34.560,IAT(Formal),2021.2.3,Win32,58.82352941,,,,,,,,,,,,,,,,,,,,,,,,,,,,,,,,,,,,,,,,,,,,,,,,,,,,,崇高,e,,,e,1,0.3666,0,65,65,11,1,,
,,,,,,,,,,,,,用户61870,001,2024-08-23_13h57.34.560,IAT(Formal),2021.2.3,Win32,58.82352941,,,,,,,,,,,,,,,,,,,,,,,,,,,,,,,,,,,,,,,,,,,,,,,,,,,,,刻薄,i,,,,0,,0,66,66,33,1,,
,,,,,,,,,,,,,用户61870,001,2024-08-23_13h57.34.560,IAT(Formal),2021.2.3,Win32,58.82352941,,,,,,,,,,,,,,,,,,,,,,,,,,,,,,,,,,,,,,,,,,,,,,,,,,,,,细腻,e,,,i,0,0.2566,0,67,67,25,1,,
,,,,,,,,,,,,,用户61870,001,2024-08-23_13h57.34.560,IAT(Formal),2021.2.3,Win32,58.82352941,,,,,,,,,,,,,,,,,,,,,,,,,,,,,,,,,,,,,,,,,,,,,,,,,,,,,我们,i,,,e,0,0.465,0,68,68,2,1,,
,,,,,,,,,,,,,用户61870,001,2024-08-23_13h57.34.560,IAT(Formal),2021.2.3,Win32,58.82352941,,,,,,,,,,,,,,,,,,,,,,,,,,,,,,,,,,,,,,,,,,,,,,,,,,,,,其他,e,,,i,0,0.7987,0,69,69,9,1,,
,,,,,,,,,,,,,用户61870,001,2024-08-23_13h57.34.560,IAT(Formal),2021.2.3,Win32,58.82352941,,,,,,,,,,,,,,,,,,,,,,,,,,,,,,,,,,,,,,,,,,,,,,,,,,,,,我们,i,,,i,1,0.5582,0,70,70,62,1,,
,,,,,,,,,,,,,用户61870,001,2024-08-23_13h57.34.560,IAT(Formal),2021.2.3,Win32,58.82352941,,,,,,,,,,,,,,,,,,,,,,,,,,,,,,,,,,,,,,,,,,,,,,,,,,,,,执拗,i,,,i,1,0.1415,0,71,71,40,1,,
,,,,,,,,,,,,,用户61870,001,2024-08-23_13h57.34.560,IAT(Formal),2021.2.3,Win32,58.82352941,,,,,,,,,,,,,,,,,,,,,,,,,,,,,,,,,,,,,,,,,,,,,,,,,,,,,俺,i,,,e,0,1.239,0,72,72,4,1,,
,,,,,,,,,,,,,用户61870,001,2024-08-23_13h57.34.560,IAT(Formal),2021.2.3,Win32,58.82352941,,,,,,,,,,,,,,,,,,,,,,,,,,,,,,,,,,,,,,,,,,,,,,,,,,,,,自卑,i,,,e,0,0.2685,0,73,73,36,1,,
,,,,,,,,,,,,,用户61870,001,2024-08-23_13h57.34.560,IAT(Formal),2021.2.3,Win32,58.82352941,,,,,,,,,,,,,,,,,,,,,,,,,,,,,,,,,,,,,,,,,,,,,,,,,,,,,公正,e,,,e,1,0.3868,0,74,74,23,1,,
,,,,,,,,,,,,,用户61870,001,2024-08-23_13h57.34.560,IAT(Formal),2021.2.3,Win32,58.82352941,,,,,,,,,,,,,,,,,,,,,,,,,,,,,,,,,,,,,,,,,,,,,,,,,,,,,下贱,i,,,e,0,0.8001,0,75,75,49,1,,
,,,,,,,,,,,,,用户61870,001,2024-08-23_13h57.34.560,IAT(Formal),2021.2.3,Win32,58.82352941,,,,,,,,,,,,,,,,,,,,,,,,,,,,,,,,,,,,,,,,,,,,,,,,,,,,,野蛮,i,,,i,1,0.1977,0,76,76,46,1,,
,,,,,,,,,,,,,用户61870,001,2024-08-23_13h57.34.560,IAT(Formal),2021.2.3,Win32,58.82352941,,,,,,,,,,,,,,,,,,,,,,,,,,,,,,,,,,,,,,,,,,,,,,,,,,,,,诚恳,e,,,e,1,0.271,0,77,77,29,1,,
,,,,,,,,,,,,,用户61870,001,2024-08-23_13h57.34.560,IAT(Formal),2021.2.3,Win32,58.82352941,,,,,,,,,,,,,,,,,,,,,,,,,,,,,,,,,,,,,,,,,,,,,,,,,,,,,他们,e,,,e,1,0.2292,0,78,78,56,1,,
,,,,,,,,,,,,,用户61870,001,2024-08-23_13h57.34.560,IAT(Formal),2021.2.3,Win32,58.82352941,,,,,,,,,,,,,,,,,,,,,,,,,,,,,,,,,,,,,,,,,,,,,,,,,,,,,正直,e,,,e,1,0.4293,0,79,79,16,1,,
,,,,,,,,,,,,,用户61870,001,2024-08-23_13h57.34.560,IAT(Formal),2021.2.3,Win32,58.82352941,,,,,,,,,,,,,,,,,,,,,,,,,,,,,,,,,,,,,,,,,,,,,,,,,,,,,固执,i,,,e,0,1.2884,1,0,80,47,1,,
,,,,,,,,,,,,,用户61870,001,2024-08-23_13h57.34.560,IAT(Formal),2021.2.3,Win32,58.82352941,,,,,,,,,,,,,,,,,,,,,,,,,,,,,,,,,,,,,,,,,,,,,,,,,,,,,他人,e,,,e,1,0.8715,1,1,81,58,1,,
,,,,,,,,,,,,,用户61870,001,2024-08-23_13h57.34.560,IAT(Formal),2021.2.3,Win32,58.82352941,,,,,,,,,,,,,,,,,,,,,,,,,,,,,,,,,,,,,,,,,,,,,,,,,,,,,我的,i,,,e,0,0.5909,1,2,82,1,1,,
,,,,,,,,,,,,,用户61870,001,2024-08-23_13h57.34.560,IAT(Formal),2021.2.3,Win32,58.82352941,,,,,,,,,,,,,,,,,,,,,,,,,,,,,,,,,,,,,,,,,,,,,,,,,,,,,他们,e,,,e,1,0.3592,1,3,83,66,1,,
,,,,,,,,,,,,,用户61870,001,2024-08-23_13h57.34.560,IAT(Formal),2021.2.3,Win32,58.82352941,,,,,,,,,,,,,,,,,,,,,,,,,,,,,,,,,,,,,,,,,,,,,,,,,,,,,我们,i,,,e,0,1.3043,1,4,84,72,1,,
,,,,,,,,,,,,,用户61870,001,2024-08-23_13h57.34.560,IAT(Formal),2021.2.3,Win32,58.82352941,,,,,,,,,,,,,,,,,,,,,,,,,,,,,,,,,,,,,,,,,,,,,,,,,,,,,正直,e,,,i,0,0.6163,1,5,85,16,1,,
,,,,,,,,,,,,,用户61870,001,2024-08-23_13h57.34.560,IAT(Formal),2021.2.3,Win32,58.82352941,,,,,,,,,,,,,,,,,,,,,,,,,,,,,,,,,,,,,,,,,,,,,,,,,,,,,下贱,i,,,e,0,0.0006,1,6,86,49,1,,
,,,,,,,,,,,,,用户61870,001,2024-08-23_13h57.34.560,IAT(Formal),2021.2.3,Win32,58.82352941,,,,,,,,,,,,,,,,,,,,,,,,,,,,,,,,,,,,,,,,,,,,,,,,,,,,,悲观,i,,,i,1,1.1468,1,7,87,34,1,,
,,,,,,,,,,,,,用户61870,001,2024-08-23_13h57.34.560,IAT(Formal),2021.2.3,Win32,58.82352941,,,,,,,,,,,,,,,,,,,,,,,,,,,,,,,,,,,,,,,,,,,,,,,,,,,,,勇敢,e,,,e,1,0.0607,1,8,88,17,1,,
,,,,,,,,,,,,,用户61870,001,2024-08-23_13h57.34.560,IAT(Formal),2021.2.3,Win32,58.82352941,,,,,,,,,,,,,,,,,,,,,,,,,,,,,,,,,,,,,,,,,,,,,,,,,,,,,猖狂,i,,,i,1,1.315,1,9,89,45,1,,
,,,,,,,,,,,,,用户61870,001,2024-08-23_13h57.34.560,IAT(Formal),2021.2.3,Win32,58.82352941,,,,,,,,,,,,,,,,,,,,,,,,,,,,,,,,,,,,,,,,,,,,,,,,,,,,,他的,e,,,,0,,1,10,90,67,1,,
,,,,,,,,,,,,,用户61870,001,2024-08-23_13h57.34.560,IAT(Formal),2021.2.3,Win32,58.82352941,,,,,,,,,,,,,,,,,,,,,,,,,,,,,,,,,,,,,,,,,,,,,,,,,,,,,我,i,,,e,0,1.1637,1,11,91,50,1,,
,,,,,,,,,,,,,用户61870,001,2024-08-23_13h57.34.560,IAT(Formal),2021.2.3,Win32,58.82352941,,,,,,,,,,,,,,,,,,,,,,,,,,,,,,,,,,,,,,,,,,,,,,,,,,,,,我们,i,,,,0,,1,12,92,52,1,,
,,,,,,,,,,,,,用户61870,001,2024-08-23_13h57.34.560,IAT(Formal),2021.2.3,Win32,58.82352941,,,,,,,,,,,,,,,,,,,,,,,,,,,,,,,,,,,,,,,,,,,,,,,,,,,,,其他,e,,,i,0,0.4739,1,13,93,79,1,,
,,,,,,,,,,,,,用户61870,001,2024-08-23_13h57.34.560,IAT(Formal),2021.2.3,Win32,58.82352941,,,,,,,,,,,,,,,,,,,,,,,,,,,,,,,,,,,,,,,,,,,,,,,,,,,,,冷静,e,,,i,0,1.0692,1,14,94,26,1,,
,,,,,,,,,,,,,用户61870,001,2024-08-23_13h57.34.560,IAT(Formal),2021.2.3,Win32,58.82352941,,,,,,,,,,,,,,,,,,,,,,,,,,,,,,,,,,,,,,,,,,,,,,,,,,,,,他,e,,,i,0,0.9138,1,15,95,65,1,,
,,,,,,,,,,,,,用户61870,001,2024-08-23_13h57.34.560,IAT(Formal),2021.2.3,Win32,58.82352941,,,,,,,,,,,,,,,,,,,,,,,,,,,,,,,,,,,,,,,,,,,,,,,,,,,,,暴躁,i,,,i,1,0.5478,1,16,96,44,1,,
,,,,,,,,,,,,,用户61870,001,2024-08-23_13h57.34.560,IAT(Formal),2021.2.3,Win32,58.82352941,,,,,,,,,,,,,,,,,,,,,,,,,,,,,,,,,,,,,,,,,,,,,,,,,,,,,他人,e,,,i,0,1.3375,1,17,97,78,1,,
,,,,,,,,,,,,,用户61870,001,2024-08-23_13h57.34.560,IAT(Formal),2021.2.3,Win32,58.82352941,,,,,,,,,,,,,,,,,,,,,,,,,,,,,,,,,,,,,,,,,,,,,,,,,,,,,他,e,,,i,0,0.8667,1,18,98,5,1,,
,,,,,,,,,,,,,用户61870,001,2024-08-23_13h57.34.560,IAT(Formal),2021.2.3,Win32,58.82352941,,,,,,,,,,,,,,,,,,,,,,,,,,,,,,,,,,,,,,,,,,,,,,,,,,,,,公正,e,,,i,0,1.099,1,19,99,23,1,,
,,,,,,,,,,,,,用户61870,001,2024-08-23_13h57.34.560,IAT(Formal),2021.2.3,Win32,58.82352941,,,,,,,,,,,,,,,,,,,,,,,,,,,,,,,,,,,,,,,,,,,,,,,,,,,,,朴实,e,,,i,0,0.4992,1,20,100,24,1,,
,,,,,,,,,,,,,用户61870,001,2024-08-23_13h57.34.560,IAT(Formal),2021.2.3,Win32,58.82352941,,,,,,,,,,,,,,,,,,,,,,,,,,,,,,,,,,,,,,,,,,,,,,,,,,,,,无私,e,,,,0,,1,21,101,22,1,,
,,,,,,,,,,,,,用户61870,001,2024-08-23_13h57.34.560,IAT(Formal),2021.2.3,Win32,58.82352941,,,,,,,,,,,,,,,,,,,,,,,,,,,,,,,,,,,,,,,,,,,,,,,,,,,,,冒失,i,,,e,0,1.1328,1,22,102,39,1,,
,,,,,,,,,,,,,用户61870,001,2024-08-23_13h57.34.560,IAT(Formal),2021.2.3,Win32,58.82352941,,,,,,,,,,,,,,,,,,,,,,,,,,,,,,,,,,,,,,,,,,,,,,,,,,,,,愚蠢,i,,,,0,,1,23,103,32,1,,
,,,,,,,,,,,,,用户61870,001,2024-08-23_13h57.34.560,IAT(Formal),2021.2.3,Win32,58.82352941,,,,,,,,,,,,,,,,,,,,,,,,,,,,,,,,,,,,,,,,,,,,,,,,,,,,,他们,e,,,e,1,0.393,1,24,104,56,1,,
,,,,,,,,,,,,,用户61870,001,2024-08-23_13h57.34.560,IAT(Formal),2021.2.3,Win32,58.82352941,,,,,,,,,,,,,,,,,,,,,,,,,,,,,,,,,,,,,,,,,,,,,,,,,,,,,其他,e,,,e,1,0.1698,1,25,105,9,1,,
,,,,,,,,,,,,,用户61870,001,2024-08-23_13h57.34.560,IAT(Formal),2021.2.3,Win32,58.82352941,,,,,,,,,,,,,,,,,,,,,,,,,,,,,,,,,,,,,,,,,,,,,,,,,,,,,俺,i,,,i,1,0.0672,1,26,106,74,1,,
,,,,,,,,,,,,,用户61870,001,2024-08-23_13h57.34.560,IAT(Formal),2021.2.3,Win32,58.82352941,,,,,,,,,,,,,,,,,,,,,,,,,,,,,,,,,,,,,,,,,,,,,,,,,,,,,凶狠,i,,,e,0,1.2168,1,27,107,42,1,,
,,,,,,,,,,,,,用户61870,001,2024-08-23_13h57.34.560,IAT(Formal),2021.2.3,Win32,58.82352941,,,,,,,,,,,,,,,,,,,,,,,,,,,,,,,,,,,,,,,,,,,,,,,,,,,,,鲁莽,i,,,,0,,1,28,108,38,1,,
,,,,,,,,,,,,,用户61870,001,2024-08-23_13h57.34.560,IAT(Formal),2021.2.3,Win32,58.82352941,,,,,,,,,,,,,,,,,,,,,,,,,,,,,,,,,,,,,,,,,,,,,,,,,,,,,机智,e,,,e,1,0.0168,1,29,109,19,1,,
,,,,,,,,,,,,,用户61870,001,2024-08-23_13h57.34.560,IAT(Formal),2021.2.3,Win32,58.82352941,,,,,,,,,,,,,,,,,,,,,,,,,,,,,,,,,,,,,,,,,,,,,,,,,,,,,他,e,,,e,1,0.1883,1,30,110,55,1,,
,,,,,,,,,,,,,用户61870,001,2024-08-23_13h57.34.560,IAT(Formal),2021.2.3,Win32,58.82352941,,,,,,,,,,,,,,,,,,,,,,,,,,,,,,,,,,,,,,,,,,,,,,,,,,,,,稳重,e,,,i,0,1.4269,1,31,111,21,1,,
,,,,,,,,,,,,,用户61870,001,2024-08-23_13h57.34.560,IAT(Formal),2021.2.3,Win32,58.82352941,,,,,,,,,,,,,,,,,,,,,,,,,,,,,,,,,,,,,,,,,,,,,,,,,,,,,我,i,,,,0,,1,32,112,0,1,,
,,,,,,,,,,,,,用户61870,001,2024-08-23_13h57.34.560,IAT(Formal),2021.2.3,Win32,58.82352941,,,,,,,,,,,,,,,,,,,,,,,,,,,,,,,,,,,,,,,,,,,,,,,,,,,,,自己,i,,,e,0,0.3255,1,33,113,3,1,,
,,,,,,,,,,,,,用户61870,001,2024-08-23_13h57.34.560,IAT(Formal),2021.2.3,Win32,58.82352941,,,,,,,,,,,,,,,,,,,,,,,,,,,,,,,,,,,,,,,,,,,,,,,,,,,,,细腻,e,,,,0,,1,34,114,25,1,,
,,,,,,,,,,,,,用户61870,001,2024-08-23_13h57.34.560,IAT(Formal),2021.2.3,Win32,58.82352941,,,,,,,,,,,,,,,,,,,,,,,,,,,,,,,,,,,,,,,,,,,,,,,,,,,,,我们,i,,,,0,,1,35,115,62,1,,
,,,,,,,,,,,,,用户61870,001,2024-08-23_13h57.34.560,IAT(Formal),2021.2.3,Win32,58.82352941,,,,,,,,,,,,,,,,,,,,,,,,,,,,,,,,,,,,,,,,,,,,,,,,,,,,,其他,e,,,e,1,0.2491,1,36,116,59,1,,
,,,,,,,,,,,,,用户61870,001,2024-08-23_13h57.34.560,IAT(Formal),2021.2.3,Win32,58.82352941,,,,,,,,,,,,,,,,,,,,,,,,,,,,,,,,,,,,,,,,,,,,,,,,,,,,,崇高,e,,,,0,,1,37,117,11,1,,
,,,,,,,,,,,,,用户61870,001,2024-08-23_13h57.34.560,IAT(Formal),2021.2.3,Win32,58.82352941,,,,,,,,,,,,,,,,,,,,,,,,,,,,,,,,,,,,,,,,,,,,,,,,,,,,,诚实,e,,,e,1,0.2898,1,38,118,15,1,,
,,,,,,,,,,,,,用户61870,001,2024-08-23_13h57.34.560,IAT(Formal),2021.2.3,Win32,58.82352941,,,,,,,,,,,,,,,,,,,,,,,,,,,,,,,,,,,,,,,,,,,,,,,,,,,,,俺,i,,,e,0,0.3327,1,39,119,64,1,,
,,,,,,,,,,,,,用户61870,001,2024-08-23_13h57.34.560,IAT(Formal),2021.2.3,Win32,58.82352941,,,,,,,,,,,,,,,,,,,,,,,,,,,,,,,,,,,,,,,,,,,,,,,,,,,,,我,i,,,e,0,0.5271,1,40,120,60,1,,
,,,,,,,,,,,,,用户61870,001,2024-08-23_13h57.34.560,IAT(Formal),2021.2.3,Win32,58.82352941,,,,,,,,,,,,,,,,,,,,,,,,,,,,,,,,,,,,,,,,,,,,,,,,,,,,,我的,i,,,i,1,0.633,1,41,121,51,1,,
,,,,,,,,,,,,,用户61870,001,2024-08-23_13h57.34.560,IAT(Formal),2021.2.3,Win32,58.82352941,,,,,,,,,,,,,,,,,,,,,,,,,,,,,,,,,,,,,,,,,,,,,,,,,,,,,散漫,i,,,i,1,1.4295,1,42,122,41,1,,
,,,,,,,,,,,,,用户61870,001,2024-08-23_13h57.34.560,IAT(Formal),2021.2.3,Win32,58.82352941,,,,,,,,,,,,,,,,,,,,,,,,,,,,,,,,,,,,,,,,,,,,,,,,,,,,,他人,e,,,e,1,0.8543,1,43,123,8,1,,
,,,,,,,,,,,,,用户61870,001,2024-08-23_13h57.34.560,IAT(Formal),2021.2.3,Win32,58.82352941,,,,,,,,,,,,,,,,,,,,,,,,,,,,,,,,,,,,,,,,,,,,,,,,,,,,,俺,i,,,i,1,0.7566,1,44,124,4,1,,
,,,,,,,,,,,,,用户61870,001,2024-08-23_13h57.34.560,IAT(Formal),2021.2.3,Win32,58.82352941,,,,,,,,,,,,,,,,,,,,,,,,,,,,,,,,,,,,,,,,,,,,,,,,,,,,,他们,e,,,e,1,0.5928,1,45,125,76,1,,
,,,,,,,,,,,,,用户61870,001,2024-08-23_13h57.34.560,IAT(Formal),2021.2.3,Win32,58.82352941,,,,,,,,,,,,,,,,,,,,,,,,,,,,,,,,,,,,,,,,,,,,,,,,,,,,,他,e,,,e,1,0.8773,1,46,126,75,1,,
,,,,,,,,,,,,,用户61870,001,2024-08-23_13h57.34.560,IAT(Formal),2021.2.3,Win32,58.82352941,,,,,,,,,,,,,,,,,,,,,,,,,,,,,,,,,,,,,,,,,,,,,,,,,,,,,自己,i,,,e,0,0.932,1,47,127,53,1,,
,,,,,,,,,,,,,用户61870,001,2024-08-23_13h57.34.560,IAT(Formal),2021.2.3,Win32,58.82352941,,,,,,,,,,,,,,,,,,,,,,,,,,,,,,,,,,,,,,,,,,,,,,,,,,,,,轻率,i,,,i,1,0.8717,1,48,128,48,1,,
,,,,,,,,,,,,,用户61870,001,2024-08-23_13h57.34.560,IAT(Formal),2021.2.3,Win32,58.82352941,,,,,,,,,,,,,,,,,,,,,,,,,,,,,,,,,,,,,,,,,,,,,,,,,,,,,傲慢,i,,,i,1,0.6304,1,49,129,37,1,,
,,,,,,,,,,,,,用户61870,001,2024-08-23_13h57.34.560,IAT(Formal),2021.2.3,Win32,58.82352941,,,,,,,,,,,,,,,,,,,,,,,,,,,,,,,,,,,,,,,,,,,,,,,,,,,,,他的,e,,,e,1,0.5006,1,50,130,77,1,,
,,,,,,,,,,,,,用户61870,001,2024-08-23_13h57.34.560,IAT(Formal),2021.2.3,Win32,58.82352941,,,,,,,,,,,,,,,,,,,,,,,,,,,,,,,,,,,,,,,,,,,,,,,,,,,,,勤奋,e,,,e,1,0.6408,1,51,131,18,1,,
,,,,,,,,,,,,,用户61870,001,2024-08-23_13h57.34.560,IAT(Formal),2021.2.3,Win32,58.82352941,,,,,,,,,,,,,,,,,,,,,,,,,,,,,,,,,,,,,,,,,,,,,,,,,,,,,认真,e,,,e,1,0.4479,1,52,132,20,1,,
,,,,,,,,,,,,,用户61870,001,2024-08-23_13h57.34.560,IAT(Formal),2021.2.3,Win32,58.82352941,,,,,,,,,,,,,,,,,,,,,,,,,,,,,,,,,,,,,,,,,,,,,,,,,,,,,聪明,e,,,e,1,0.7146,1,53,133,12,1,,
,,,,,,,,,,,,,用户61870,001,2024-08-23_13h57.34.560,IAT(Formal),2021.2.3,Win32,58.82352941,,,,,,,,,,,,,,,,,,,,,,,,,,,,,,,,,,,,,,,,,,,,,,,,,,,,,优秀,e,,,e,1,0.6568,1,54,134,10,1,,
,,,,,,,,,,,,,用户61870,001,2024-08-23_13h57.34.560,IAT(Formal),2021.2.3,Win32,58.82352941,,,,,,,,,,,,,,,,,,,,,,,,,,,,,,,,,,,,,,,,,,,,,,,,,,,,,野蛮,i,,,i,1,0.6249,1,55,135,46,1,,
,,,,,,,,,,,,,用户61870,001,2024-08-23_13h57.34.560,IAT(Formal),2021.2.3,Win32,58.82352941,,,,,,,,,,,,,,,,,,,,,,,,,,,,,,,,,,,,,,,,,,,,,,,,,,,,,他的,e,,,i,0,0.0964,1,56,136,7,1,,
,,,,,,,,,,,,,用户61870,001,2024-08-23_13h57.34.560,IAT(Formal),2021.2.3,Win32,58.82352941,,,,,,,,,,,,,,,,,,,,,,,,,,,,,,,,,,,,,,,,,,,,,,,,,,,,,我的,i,,,i,1,0.6573,1,57,137,71,1,,
,,,,,,,,,,,,,用户61870,001,2024-08-23_13h57.34.560,IAT(Formal),2021.2.3,Win32,58.82352941,,,,,,,,,,,,,,,,,,,,,,,,,,,,,,,,,,,,,,,,,,,,,,,,,,,,,我的,i,,,,0,,1,58,138,61,1,,
,,,,,,,,,,,,,用户61870,001,2024-08-23_13h57.34.560,IAT(Formal),2021.2.3,Win32,58.82352941,,,,,,,,,,,,,,,,,,,,,,,,,,,,,,,,,,,,,,,,,,,,,,,,,,,,,消极,i,,,i,1,0.6323,1,59,139,35,1,,
,,,,,,,,,,,,,用户61870,001,2024-08-23_13h57.34.560,IAT(Formal),2021.2.3,Win32,58.82352941,,,,,,,,,,,,,,,,,,,,,,,,,,,,,,,,,,,,,,,,,,,,,,,,,,,,,自己,i,,,e,0,0.5467,1,60,140,73,1,,
,,,,,,,,,,,,,用户61870,001,2024-08-23_13h57.34.560,IAT(Formal),2021.2.3,Win32,58.82352941,,,,,,,,,,,,,,,,,,,,,,,,,,,,,,,,,,,,,,,,,,,,,,,,,,,,,我,i,,,i,1,0.6275,1,61,141,70,1,,
,,,,,,,,,,,,,用户61870,001,2024-08-23_13h57.34.560,IAT(Formal),2021.2.3,Win32,58.82352941,,,,,,,,,,,,,,,,,,,,,,,,,,,,,,,,,,,,,,,,,,,,,,,,,,,,,他的,e,,,e,1,0.7401,1,62,142,57,1,,
,,,,,,,,,,,,,用户61870,001,2024-08-23_13h57.34.560,IAT(Formal),2021.2.3,Win32,58.82352941,,,,,,,,,,,,,,,,,,,,,,,,,,,,,,,,,,,,,,,,,,,,,,,,,,,,,乐观,e,,,e,1,0.5482,1,63,143,14,1,,
,,,,,,,,,,,,,用户61870,001,2024-08-23_13h57.34.560,IAT(Formal),2021.2.3,Win32,58.82352941,,,,,,,,,,,,,,,,,,,,,,,,,,,,,,,,,,,,,,,,,,,,,,,,,,,,,诚恳,e,,,i,0,0.7152,1,64,144,29,1,,
,,,,,,,,,,,,,用户61870,001,2024-08-23_13h57.34.560,IAT(Formal),2021.2.3,Win32,58.82352941,,,,,,,,,,,,,,,,,,,,,,,,,,,,,,,,,,,,,,,,,,,,,,,,,,,,,自私,i,,,i,1,0.5671,1,65,145,43,1,,
,,,,,,,,,,,,,用户61870,001,2024-08-23_13h57.34.560,IAT(Formal),2021.2.3,Win32,58.82352941,,,,,,,,,,,,,,,,,,,,,,,,,,,,,,,,,,,,,,,,,,,,,,,,,,,,,杰出,e,,,e,1,0.4406,1,66,146,13,1,,
,,,,,,,,,,,,,用户61870,001,2024-08-23_13h57.34.560,IAT(Formal),2021.2.3,Win32,58.82352941,,,,,,,,,,,,,,,,,,,,,,,,,,,,,,,,,,,,,,,,,,,,,,,,,,,,,我们,i,,,e,0,0.6164,1,67,147,2,1,,
,,,,,,,,,,,,,用户61870,001,2024-08-23_13h57.34.560,IAT(Formal),2021.2.3,Win32,58.82352941,,,,,,,,,,,,,,,,,,,,,,,,,,,,,,,,,,,,,,,,,,,,,,,,,,,,,刻薄,i,,,i,1,0.5569,1,68,148,33,1,,
,,,,,,,,,,,,,用户61870,001,2024-08-23_13h57.34.560,IAT(Formal),2021.2.3,Win32,58.82352941,,,,,,,,,,,,,,,,,,,,,,,,,,,,,,,,,,,,,,,,,,,,,,,,,,,,,他们,e,,,e,1,0.516,1,69,149,6,1,,
,,,,,,,,,,,,,用户61870,001,2024-08-23_13h57.34.560,IAT(Formal),2021.2.3,Win32,58.82352941,,,,,,,,,,,,,,,,,,,,,,,,,,,,,,,,,,,,,,,,,,,,,,,,,,,,,虚伪,i,,,i,1,0.5335,1,70,150,31,1,,
,,,,,,,,,,,,,用户61870,001,2024-08-23_13h57.34.560,IAT(Formal),2021.2.3,Win32,58.82352941,,,,,,,,,,,,,,,,,,,,,,,,,,,,,,,,,,,,,,,,,,,,,,,,,,,,,自卑,i,,,i,1,0.5149,1,71,151,36,1,,
,,,,,,,,,,,,,用户61870,001,2024-08-23_13h57.34.560,IAT(Formal),2021.2.3,Win32,58.82352941,,,,,,,,,,,,,,,,,,,,,,,,,,,,,,,,,,,,,,,,,,,,,,,,,,,,,活泼,e,,,e,1,0.5904,1,72,152,28,1,,
,,,,,,,,,,,,,用户61870,001,2024-08-23_13h57.34.560,IAT(Formal),2021.2.3,Win32,58.82352941,,,,,,,,,,,,,,,,,,,,,,,,,,,,,,,,,,,,,,,,,,,,,,,,,,,,,其他,e,,,i,0,0.6867,1,73,153,69,1,,
,,,,,,,,,,,,,用户61870,001,2024-08-23_13h57.34.560,IAT(Formal),2021.2.3,Win32,58.82352941,,,,,,,,,,,,,,,,,,,,,,,,,,,,,,,,,,,,,,,,,,,,,,,,,,,,,自己,i,,,i,1,0.5061,1,74,154,63,1,,
,,,,,,,,,,,,,用户61870,001,2024-08-23_13h57.34.560,IAT(Formal),2021.2.3,Win32,58.82352941,,,,,,,,,,,,,,,,,,,,,,,,,,,,,,,,,,,,,,,,,,,,,,,,,,,,,执拗,i,,,i,1,0.5488,1,75,155,40,1,,
,,,,,,,,,,,,,用户61870,001,2024-08-23_13h57.34.560,IAT(Formal),2021.2.3,Win32,58.82352941,,,,,,,,,,,,,,,,,,,,,,,,,,,,,,,,,,,,,,,,,,,,,,,,,,,,,俺,i,,,e,0,0.5409,1,76,156,54,1,,
,,,,,,,,,,,,,用户61870,001,2024-08-23_13h57.34.560,IAT(Formal),2021.2.3,Win32,58.82352941,,,,,,,,,,,,,,,,,,,,,,,,,,,,,,,,,,,,,,,,,,,,,,,,,,,,,热情,e,,,i,0,0.5127,1,77,157,27,1,,
,,,,,,,,,,,,,用户61870,001,2024-08-23_13h57.34.560,IAT(Formal),2021.2.3,Win32,58.82352941,,,,,,,,,,,,,,,,,,,,,,,,,,,,,,,,,,,,,,,,,,,,,,,,,,,,,他人,e,,,e,1,0.533,1,78,158,68,1,,
,,,,,,,,,,,,,用户61870,001,2024-08-23_13h57.34.560,IAT(Formal),2021.2.3,Win32,58.82352941,,,,,,,,,,,,,,,,,,,,,,,,,,,,,,,,,,,,,,,,,,,,,,,,,,,,,卑鄙,i,,,i,1,1.3226,1,79,159,30,1,,
,,,,,,,,,,,,,用户61870,001,2024-08-23_13h57.34.560,IAT(Formal),2021.2.3,Win32,58.82352941,,,,,,,,,,,,,,,,,,,,,,,,,,,,,,,,,,,,,,,,,,,,,,,,,,,,,,,,,,,,,,,,,space,1.4278