"X.Instruction1.keys","Instruction1.rt","Instruction2.keys","Instruction2.rt","key_resp_iso.keys","key_resp_iso.corr","Practice_01.thisRepN","Practice_01.thisTrialN","Practice_01.thisN","Practice_01.thisIndex","Practice_01.ran","Words","ans","participant","session","date","expName","psychopyVersion","OS","frameRate","key_resp_iso.rt","key_resp_3.keys","key_resp_3.rt","key_resp_ipn.keys","key_resp_ipn.corr","key_resp_ipn.rt","Practice_02.thisRepN","Practice_02.thisTrialN","Practice_02.thisN","Practice_02.thisIndex","Practice_02.ran","Words_ipn","ans_ipn","key_resp_4.keys","key_resp_4.rt","key_resp_t1.keys","key_resp_t1.corr","key_resp_t1.rt","Practice_T1.thisRepN","Practice_T1.thisTrialN","Practice_T1.thisN","Practice_T1.thisIndex","Practice_T1.ran","Words_t1","ans_t1","key_resp_5.keys","key_resp_5.rt","Formal_T1.thisRepN","Formal_T1.thisTrialN","Formal_T1.thisN","Formal_T1.thisIndex","Formal_T1.ran","key_resp_6.keys","key_resp_6.rt","key_resp_iso_reverse.keys","key_resp_iso_reverse.corr","Practice_iso_Reverse.thisRepN","Practice_iso_Reverse.thisTrialN","Practice_iso_Reverse.thisN","Practice_iso_Reverse.thisIndex","Practice_iso_Reverse.ran","key_resp_iso_reverse.rt","key_resp_7.keys","key_resp_7.rt","key_resp_t2_Practice.keys","key_resp_t2_Practice.corr","key_resp_t2_Practice.rt","Practice_t2_Reverse.thisRepN","Practice_t2_Reverse.thisTrialN","Practice_t2_Reverse.thisN","Practice_t2_Reverse.thisIndex","Practice_t2_Reverse.ran","Words_t2","ans_t2","key_resp_8.keys","key_resp_8.rt","key_resp_t2.keys","key_resp_t2.corr","key_resp_t2.rt","Formal_t2_reverse.thisRepN","Formal_t2_reverse.thisTrialN","Formal_t2_reverse.thisN","Formal_t2_reverse.thisIndex","Formal_t2_reverse.ran","key_instruct.keys","key_instruct.rt","Subject"
"space",7.6971,"space",9.0724,"",0,0,0,0,0,1,"我","e","用户61870",1,"2024-08-23_13h57.34.560","IAT(Formal)","2021.2.3","Win32",58.82352941,NA,"",NA,"",NA,NA,NA,NA,NA,NA,NA,"","","",NA,"",NA,NA,NA,NA,NA,NA,NA,"","","",NA,NA,NA,NA,NA,NA,"",NA,"",NA,NA,NA,NA,NA,NA,NA,"",NA,"",NA,NA,NA,NA,NA,NA,NA,"","","",NA,"",NA,NA,NA,NA,NA,NA,NA,"",NA,"5"
"",NA,"",NA,"e",0,0,1,1,5,1,"他","i","用户61870",1,"2024-08-23_13h57.34.560","IAT(Formal)","2021.2.3","Win32",58.82352941,0.9733,"",NA,"",NA,NA,NA,NA,NA,NA,NA,"","","",NA,"",NA,NA,NA,NA,NA,NA,NA,"","","",NA,NA,NA,NA,NA,NA,"",NA,"",NA,NA,NA,NA,NA,NA,NA,"",NA,"",NA,NA,NA,NA,NA,NA,NA,"","","",NA,"",NA,NA,NA,NA,NA,NA,NA,"",NA,"5"
"",NA,"",NA,"i",0,0,2,2,4,1,"俺","e","用户61870",1,"2024-08-23_13h57.34.560","IAT(Formal)","2021.2.3","Win32",58.82352941,0.2099,"",NA,"",NA,NA,NA,NA,NA,NA,NA,"","","",NA,"",NA,NA,NA,NA,NA,NA,NA,"","","",NA,NA,NA,NA,NA,NA,"",NA,"",NA,NA,NA,NA,NA,NA,NA,"",NA,"",NA,NA,NA,NA,NA,NA,NA,"","","",NA,"",NA,NA,NA,NA,NA,NA,NA,"",NA,"5"
"",NA,"",NA,"e",1,0,3,3,1,1,"我的","e","用户61870",1,"2024-08-23_13h57.34.560","IAT(Formal)","2021.2.3","Win32",58.82352941,0.5508,"",NA,"",NA,NA,NA,NA,NA,NA,NA,"","","",NA,"",NA,NA,NA,NA,NA,NA,NA,"","","",NA,NA,NA,NA,NA,NA,"",NA,"",NA,NA,NA,NA,NA,NA,NA,"",NA,"",NA,NA,NA,NA,NA,NA,NA,"","","",NA,"",NA,NA,NA,NA,NA,NA,NA,"",NA,"5"
"",NA,"",NA,"i",1,0,4,4,7,1,"他的","i","用户61870",1,"2024-08-23_13h57.34.560","IAT(Formal)","2021.2.3","Win32",58.82352941,0.7051,"",NA,"",NA,NA,NA,NA,NA,NA,NA,"","","",NA,"",NA,NA,NA,NA,NA,NA,NA,"","","",NA,NA,NA,NA,NA,NA,"",NA,"",NA,NA,NA,NA,NA,NA,NA,"",NA,"",NA,NA,NA,NA,NA,NA,NA,"","","",NA,"",NA,NA,NA,NA,NA,NA,NA,"",NA,"5"
"",NA,"",NA,"i",1,0,5,5,6,1,"他们","i","用户61870",1,"2024-08-23_13h57.34.560","IAT(Formal)","2021.2.3","Win32",58.82352941,0.767,"",NA,"",NA,NA,NA,NA,NA,NA,NA,"","","",NA,"",NA,NA,NA,NA,NA,NA,NA,"","","",NA,NA,NA,NA,NA,NA,"",NA,"",NA,NA,NA,NA,NA,NA,NA,"",NA,"",NA,NA,NA,NA,NA,NA,NA,"","","",NA,"",NA,NA,NA,NA,NA,NA,NA,"",NA,"5"
"",NA,"",NA,"i",1,0,6,6,8,1,"他人","i","用户61870",1,"2024-08-23_13h57.34.560","IAT(Formal)","2021.2.3","Win32",58.82352941,0.5689,"",NA,"",NA,NA,NA,NA,NA,NA,NA,"","","",NA,"",NA,NA,NA,NA,NA,NA,NA,"","","",NA,NA,NA,NA,NA,NA,"",NA,"",NA,NA,NA,NA,NA,NA,NA,"",NA,"",NA,NA,NA,NA,NA,NA,NA,"","","",NA,"",NA,NA,NA,NA,NA,NA,NA,"",NA,"5"
"",NA,"",NA,"i",1,0,7,7,9,1,"其他","i","用户61870",1,"2024-08-23_13h57.34.560","IAT(Formal)","2021.2.3","Win32",58.82352941,0.8246,"",NA,"",NA,NA,NA,NA,NA,NA,NA,"","","",NA,"",NA,NA,NA,NA,NA,NA,NA,"","","",NA,NA,NA,NA,NA,NA,"",NA,"",NA,NA,NA,NA,NA,NA,NA,"",NA,"",NA,NA,NA,NA,NA,NA,NA,"","","",NA,"",NA,NA,NA,NA,NA,NA,NA,"",NA,"5"
"",NA,"",NA,"e",1,0,8,8,2,1,"我们","e","用户61870",1,"2024-08-23_13h57.34.560","IAT(Formal)","2021.2.3","Win32",58.82352941,0.5657,"",NA,"",NA,NA,NA,NA,NA,NA,NA,"","","",NA,"",NA,NA,NA,NA,NA,NA,NA,"","","",NA,NA,NA,NA,NA,NA,"",NA,"",NA,NA,NA,NA,NA,NA,NA,"",NA,"",NA,NA,NA,NA,NA,NA,NA,"","","",NA,"",NA,NA,NA,NA,NA,NA,NA,"",NA,"5"
"",NA,"",NA,"e",1,0,9,9,3,1,"自己","e","用户61870",1,"2024-08-23_13h57.34.560","IAT(Formal)","2021.2.3","Win32",58.82352941,0.5453,"",NA,"",NA,NA,NA,NA,NA,NA,NA,"","","",NA,"",NA,NA,NA,NA,NA,NA,NA,"","","",NA,NA,NA,NA,NA,NA,"",NA,"",NA,NA,NA,NA,NA,NA,NA,"",NA,"",NA,NA,NA,NA,NA,NA,NA,"","","",NA,"",NA,NA,NA,NA,NA,NA,NA,"",NA,"5"
"",NA,"",NA,"",NA,NA,NA,NA,NA,NA,"","","用户61870",1,"2024-08-23_13h57.34.560","IAT(Formal)","2021.2.3","Win32",58.82352941,NA,"space",3.0928,"i",1,0.601,0,0,0,39,1,"下贱","i","",NA,"",NA,NA,NA,NA,NA,NA,NA,"","","",NA,NA,NA,NA,NA,NA,"",NA,"",NA,NA,NA,NA,NA,NA,NA,"",NA,"",NA,NA,NA,NA,NA,NA,NA,"","","",NA,"",NA,NA,NA,NA,NA,NA,NA,"",NA,"5"
"",NA,"",NA,"",NA,NA,NA,NA,NA,NA,"","","用户61870",1,"2024-08-23_13h57.34.560","IAT(Formal)","2021.2.3","Win32",58.82352941,NA,"",NA,"i",1,0.6735,0,1,1,32,1,"凶狠","i","",NA,"",NA,NA,NA,NA,NA,NA,NA,"","","",NA,NA,NA,NA,NA,NA,"",NA,"",NA,NA,NA,NA,NA,NA,NA,"",NA,"",NA,NA,NA,NA,NA,NA,NA,"","","",NA,"",NA,NA,NA,NA,NA,NA,NA,"",NA,"5"
"",NA,"",NA,"",NA,NA,NA,NA,NA,NA,"","","用户61870",1,"2024-08-23_13h57.34.560","IAT(Formal)","2021.2.3","Win32",58.82352941,NA,"",NA,"e",0,0.5499,0,2,2,38,1,"轻率","i","",NA,"",NA,NA,NA,NA,NA,NA,NA,"","","",NA,NA,NA,NA,NA,NA,"",NA,"",NA,NA,NA,NA,NA,NA,NA,"",NA,"",NA,NA,NA,NA,NA,NA,NA,"","","",NA,"",NA,NA,NA,NA,NA,NA,NA,"",NA,"5"
"",NA,"",NA,"",NA,NA,NA,NA,NA,NA,"","","用户61870",1,"2024-08-23_13h57.34.560","IAT(Formal)","2021.2.3","Win32",58.82352941,NA,"",NA,"i",0,0.522,0,3,3,17,1,"热情","e","",NA,"",NA,NA,NA,NA,NA,NA,NA,"","","",NA,NA,NA,NA,NA,NA,"",NA,"",NA,NA,NA,NA,NA,NA,NA,"",NA,"",NA,NA,NA,NA,NA,NA,NA,"","","",NA,"",NA,NA,NA,NA,NA,NA,NA,"",NA,"5"
"",NA,"",NA,"",NA,NA,NA,NA,NA,NA,"","","用户61870",1,"2024-08-23_13h57.34.560","IAT(Formal)","2021.2.3","Win32",58.82352941,NA,"",NA,"i",1,0.6841,0,4,4,24,1,"悲观","i","",NA,"",NA,NA,NA,NA,NA,NA,NA,"","","",NA,NA,NA,NA,NA,NA,"",NA,"",NA,NA,NA,NA,NA,NA,NA,"",NA,"",NA,NA,NA,NA,NA,NA,NA,"","","",NA,"",NA,NA,NA,NA,NA,NA,NA,"",NA,"5"
"",NA,"",NA,"",NA,NA,NA,NA,NA,NA,"","","用户61870",1,"2024-08-23_13h57.34.560","IAT(Formal)","2021.2.3","Win32",58.82352941,NA,"",NA,"e",1,0.5582,0,5,5,2,1,"聪明","e","",NA,"",NA,NA,NA,NA,NA,NA,NA,"","","",NA,NA,NA,NA,NA,NA,"",NA,"",NA,NA,NA,NA,NA,NA,NA,"",NA,"",NA,NA,NA,NA,NA,NA,NA,"","","",NA,"",NA,NA,NA,NA,NA,NA,NA,"",NA,"5"
"",NA,"",NA,"",NA,NA,NA,NA,NA,NA,"","","用户61870",1,"2024-08-23_13h57.34.560","IAT(Formal)","2021.2.3","Win32",58.82352941,NA,"",NA,"i",1,0.409,0,6,6,25,1,"消极","i","",NA,"",NA,NA,NA,NA,NA,NA,NA,"","","",NA,NA,NA,NA,NA,NA,"",NA,"",NA,NA,NA,NA,NA,NA,NA,"",NA,"",NA,NA,NA,NA,NA,NA,NA,"","","",NA,"",NA,NA,NA,NA,NA,NA,NA,"",NA,"5"
"",NA,"",NA,"",NA,NA,NA,NA,NA,NA,"","","用户61870",1,"2024-08-23_13h57.34.560","IAT(Formal)","2021.2.3","Win32",58.82352941,NA,"",NA,"e",1,0.7339,0,7,7,14,1,"朴实","e","",NA,"",NA,NA,NA,NA,NA,NA,NA,"","","",NA,NA,NA,NA,NA,NA,"",NA,"",NA,NA,NA,NA,NA,NA,NA,"",NA,"",NA,NA,NA,NA,NA,NA,NA,"","","",NA,"",NA,NA,NA,NA,NA,NA,NA,"",NA,"5"
"",NA,"",NA,"",NA,NA,NA,NA,NA,NA,"","","用户61870",1,"2024-08-23_13h57.34.560","IAT(Formal)","2021.2.3","Win32",58.82352941,NA,"",NA,"e",1,0.9068,0,8,8,5,1,"诚实","e","",NA,"",NA,NA,NA,NA,NA,NA,NA,"","","",NA,NA,NA,NA,NA,NA,"",NA,"",NA,NA,NA,NA,NA,NA,NA,"",NA,"",NA,NA,NA,NA,NA,NA,NA,"","","",NA,"",NA,NA,NA,NA,NA,NA,NA,"",NA,"5"
"",NA,"",NA,"",NA,NA,NA,NA,NA,NA,"","","用户61870",1,"2024-08-23_13h57.34.560","IAT(Formal)","2021.2.3","Win32",58.82352941,NA,"",NA,"e",1,0.5108,0,9,9,6,1,"正直","e","",NA,"",NA,NA,NA,NA,NA,NA,NA,"","","",NA,NA,NA,NA,NA,NA,"",NA,"",NA,NA,NA,NA,NA,NA,NA,"",NA,"",NA,NA,NA,NA,NA,NA,NA,"","","",NA,"",NA,NA,NA,NA,NA,NA,NA,"",NA,"5"
"",NA,"",NA,"",NA,NA,NA,NA,NA,NA,"","","用户61870",1,"2024-08-23_13h57.34.560","IAT(Formal)","2021.2.3","Win32",58.82352941,NA,"",NA,"i",1,0.6191,0,10,10,27,1,"傲慢","i","",NA,"",NA,NA,NA,NA,NA,NA,NA,"","","",NA,NA,NA,NA,NA,NA,"",NA,"",NA,NA,NA,NA,NA,NA,NA,"",NA,"",NA,NA,NA,NA,NA,NA,NA,"","","",NA,"",NA,NA,NA,NA,NA,NA,NA,"",NA,"5"
"",NA,"",NA,"",NA,NA,NA,NA,NA,NA,"","","用户61870",1,"2024-08-23_13h57.34.560","IAT(Formal)","2021.2.3","Win32",58.82352941,NA,"",NA,"i",1,0.7936,0,11,11,26,1,"自卑","i","",NA,"",NA,NA,NA,NA,NA,NA,NA,"","","",NA,NA,NA,NA,NA,NA,"",NA,"",NA,NA,NA,NA,NA,NA,NA,"",NA,"",NA,NA,NA,NA,NA,NA,NA,"","","",NA,"",NA,NA,NA,NA,NA,NA,NA,"",NA,"5"
"",NA,"",NA,"",NA,NA,NA,NA,NA,NA,"","","用户61870",1,"2024-08-23_13h57.34.560","IAT(Formal)","2021.2.3","Win32",58.82352941,NA,"",NA,"e",1,0.7464,0,12,12,15,1,"细腻","e","",NA,"",NA,NA,NA,NA,NA,NA,NA,"","","",NA,NA,NA,NA,NA,NA,"",NA,"",NA,NA,NA,NA,NA,NA,NA,"",NA,"",NA,NA,NA,NA,NA,NA,NA,"","","",NA,"",NA,NA,NA,NA,NA,NA,NA,"",NA,"5"
"",NA,"",NA,"",NA,NA,NA,NA,NA,NA,"","","用户61870",1,"2024-08-23_13h57.34.560","IAT(Formal)","2021.2.3","Win32",58.82352941,NA,"",NA,"i",1,0.9436,0,13,13,23,1,"刻薄","i","",NA,"",NA,NA,NA,NA,NA,NA,NA,"","","",NA,NA,NA,NA,NA,NA,"",NA,"",NA,NA,NA,NA,NA,NA,NA,"",NA,"",NA,NA,NA,NA,NA,NA,NA,"","","",NA,"",NA,NA,NA,NA,NA,NA,NA,"",NA,"5"
"",NA,"",NA,"",NA,NA,NA,NA,NA,NA,"","","用户61870",1,"2024-08-23_13h57.34.560","IAT(Formal)","2021.2.3","Win32",58.82352941,NA,"",NA,"i",1,0.6276,0,14,14,36,1,"野蛮","i","",NA,"",NA,NA,NA,NA,NA,NA,NA,"","","",NA,NA,NA,NA,NA,NA,"",NA,"",NA,NA,NA,NA,NA,NA,NA,"",NA,"",NA,NA,NA,NA,NA,NA,NA,"","","",NA,"",NA,NA,NA,NA,NA,NA,NA,"",NA,"5"
"",NA,"",NA,"",NA,NA,NA,NA,NA,NA,"","","用户61870",1,"2024-08-23_13h57.34.560","IAT(Formal)","2021.2.3","Win32",58.82352941,NA,"",NA,"i",1,1.0169,0,15,15,34,1,"暴躁","i","",NA,"",NA,NA,NA,NA,NA,NA,NA,"","","",NA,NA,NA,NA,NA,NA,"",NA,"",NA,NA,NA,NA,NA,NA,NA,"",NA,"",NA,NA,NA,NA,NA,NA,NA,"","","",NA,"",NA,NA,NA,NA,NA,NA,NA,"",NA,"5"
"",NA,"",NA,"",NA,NA,NA,NA,NA,NA,"","","用户61870",1,"2024-08-23_13h57.34.560","IAT(Formal)","2021.2.3","Win32",58.82352941,NA,"",NA,"i",1,0.5497,0,16,16,31,1,"散漫","i","",NA,"",NA,NA,NA,NA,NA,NA,NA,"","","",NA,NA,NA,NA,NA,NA,"",NA,"",NA,NA,NA,NA,NA,NA,NA,"",NA,"",NA,NA,NA,NA,NA,NA,NA,"","","",NA,"",NA,NA,NA,NA,NA,NA,NA,"",NA,"5"
"",NA,"",NA,"",NA,NA,NA,NA,NA,NA,"","","用户61870",1,"2024-08-23_13h57.34.560","IAT(Formal)","2021.2.3","Win32",58.82352941,NA,"",NA,"i",1,0.8061,0,17,17,21,1,"虚伪","i","",NA,"",NA,NA,NA,NA,NA,NA,NA,"","","",NA,NA,NA,NA,NA,NA,"",NA,"",NA,NA,NA,NA,NA,NA,NA,"",NA,"",NA,NA,NA,NA,NA,NA,NA,"","","",NA,"",NA,NA,NA,NA,NA,NA,NA,"",NA,"5"
"",NA,"",NA,"",NA,NA,NA,NA,NA,NA,"","","用户61870",1,"2024-08-23_13h57.34.560","IAT(Formal)","2021.2.3","Win32",58.82352941,NA,"",NA,"e",1,0.7053,0,18,18,18,1,"活泼","e","",NA,"",NA,NA,NA,NA,NA,NA,NA,"","","",NA,NA,NA,NA,NA,NA,"",NA,"",NA,NA,NA,NA,NA,NA,NA,"",NA,"",NA,NA,NA,NA,NA,NA,NA,"","","",NA,"",NA,NA,NA,NA,NA,NA,NA,"",NA,"5"
"",NA,"",NA,"",NA,NA,NA,NA,NA,NA,"","","用户61870",1,"2024-08-23_13h57.34.560","IAT(Formal)","2021.2.3","Win32",58.82352941,NA,"",NA,"i",1,0.7551,0,19,19,20,1,"卑鄙","i","",NA,"",NA,NA,NA,NA,NA,NA,NA,"","","",NA,NA,NA,NA,NA,NA,"",NA,"",NA,NA,NA,NA,NA,NA,NA,"",NA,"",NA,NA,NA,NA,NA,NA,NA,"","","",NA,"",NA,NA,NA,NA,NA,NA,NA,"",NA,"5"
"",NA,"",NA,"",NA,NA,NA,NA,NA,NA,"","","用户61870",1,"2024-08-23_13h57.34.560","IAT(Formal)","2021.2.3","Win32",58.82352941,NA,"",NA,"e",1,0.7042,0,20,20,16,1,"冷静","e","",NA,"",NA,NA,NA,NA,NA,NA,NA,"","","",NA,NA,NA,NA,NA,NA,"",NA,"",NA,NA,NA,NA,NA,NA,NA,"",NA,"",NA,NA,NA,NA,NA,NA,NA,"","","",NA,"",NA,NA,NA,NA,NA,NA,NA,"",NA,"5"
"",NA,"",NA,"",NA,NA,NA,NA,NA,NA,"","","用户61870",1,"2024-08-23_13h57.34.560","IAT(Formal)","2021.2.3","Win32",58.82352941,NA,"",NA,"e",1,0.9004,0,21,21,12,1,"无私","e","",NA,"",NA,NA,NA,NA,NA,NA,NA,"","","",NA,NA,NA,NA,NA,NA,"",NA,"",NA,NA,NA,NA,NA,NA,NA,"",NA,"",NA,NA,NA,NA,NA,NA,NA,"","","",NA,"",NA,NA,NA,NA,NA,NA,NA,"",NA,"5"
"",NA,"",NA,"",NA,NA,NA,NA,NA,NA,"","","用户61870",1,"2024-08-23_13h57.34.560","IAT(Formal)","2021.2.3","Win32",58.82352941,NA,"",NA,"e",1,0.5078,0,22,22,8,1,"勤奋","e","",NA,"",NA,NA,NA,NA,NA,NA,NA,"","","",NA,NA,NA,NA,NA,NA,"",NA,"",NA,NA,NA,NA,NA,NA,NA,"",NA,"",NA,NA,NA,NA,NA,NA,NA,"","","",NA,"",NA,NA,NA,NA,NA,NA,NA,"",NA,"5"
"",NA,"",NA,"",NA,NA,NA,NA,NA,NA,"","","用户61870",1,"2024-08-23_13h57.34.560","IAT(Formal)","2021.2.3","Win32",58.82352941,NA,"",NA,"e",1,0.5205,0,23,23,4,1,"乐观","e","",NA,"",NA,NA,NA,NA,NA,NA,NA,"","","",NA,NA,NA,NA,NA,NA,"",NA,"",NA,NA,NA,NA,NA,NA,NA,"",NA,"",NA,NA,NA,NA,NA,NA,NA,"","","",NA,"",NA,NA,NA,NA,NA,NA,NA,"",NA,"5"
"",NA,"",NA,"",NA,NA,NA,NA,NA,NA,"","","用户61870",1,"2024-08-23_13h57.34.560","IAT(Formal)","2021.2.3","Win32",58.82352941,NA,"",NA,"e",1,0.4863,0,24,24,19,1,"诚恳","e","",NA,"",NA,NA,NA,NA,NA,NA,NA,"","","",NA,NA,NA,NA,NA,NA,"",NA,"",NA,NA,NA,NA,NA,NA,NA,"",NA,"",NA,NA,NA,NA,NA,NA,NA,"","","",NA,"",NA,NA,NA,NA,NA,NA,NA,"",NA,"5"
"",NA,"",NA,"",NA,NA,NA,NA,NA,NA,"","","用户61870",1,"2024-08-23_13h57.34.560","IAT(Formal)","2021.2.3","Win32",58.82352941,NA,"",NA,"i",1,0.6704,0,25,25,22,1,"愚蠢","i","",NA,"",NA,NA,NA,NA,NA,NA,NA,"","","",NA,NA,NA,NA,NA,NA,"",NA,"",NA,NA,NA,NA,NA,NA,NA,"",NA,"",NA,NA,NA,NA,NA,NA,NA,"","","",NA,"",NA,NA,NA,NA,NA,NA,NA,"",NA,"5"
"",NA,"",NA,"",NA,NA,NA,NA,NA,NA,"","","用户61870",1,"2024-08-23_13h57.34.560","IAT(Formal)","2021.2.3","Win32",58.82352941,NA,"",NA,"e",1,0.6845,0,26,26,11,1,"稳重","e","",NA,"",NA,NA,NA,NA,NA,NA,NA,"","","",NA,NA,NA,NA,NA,NA,"",NA,"",NA,NA,NA,NA,NA,NA,NA,"",NA,"",NA,NA,NA,NA,NA,NA,NA,"","","",NA,"",NA,NA,NA,NA,NA,NA,NA,"",NA,"5"
"",NA,"",NA,"",NA,NA,NA,NA,NA,NA,"","","用户61870",1,"2024-08-23_13h57.34.560","IAT(Formal)","2021.2.3","Win32",58.82352941,NA,"",NA,"e",1,0.6899,0,27,27,9,1,"机智","e","",NA,"",NA,NA,NA,NA,NA,NA,NA,"","","",NA,NA,NA,NA,NA,NA,"",NA,"",NA,NA,NA,NA,NA,NA,NA,"",NA,"",NA,NA,NA,NA,NA,NA,NA,"","","",NA,"",NA,NA,NA,NA,NA,NA,NA,"",NA,"5"
"",NA,"",NA,"",NA,NA,NA,NA,NA,NA,"","","用户61870",1,"2024-08-23_13h57.34.560","IAT(Formal)","2021.2.3","Win32",58.82352941,NA,"",NA,"e",1,0.5061,0,28,28,0,1,"优秀","e","",NA,"",NA,NA,NA,NA,NA,NA,NA,"","","",NA,NA,NA,NA,NA,NA,"",NA,"",NA,NA,NA,NA,NA,NA,NA,"",NA,"",NA,NA,NA,NA,NA,NA,NA,"","","",NA,"",NA,NA,NA,NA,NA,NA,NA,"",NA,"5"
"",NA,"",NA,"",NA,NA,NA,NA,NA,NA,"","","用户61870",1,"2024-08-23_13h57.34.560","IAT(Formal)","2021.2.3","Win32",58.82352941,NA,"",NA,"i",1,0.6276,0,29,29,33,1,"自私","i","",NA,"",NA,NA,NA,NA,NA,NA,NA,"","","",NA,NA,NA,NA,NA,NA,"",NA,"",NA,NA,NA,NA,NA,NA,NA,"",NA,"",NA,NA,NA,NA,NA,NA,NA,"","","",NA,"",NA,NA,NA,NA,NA,NA,NA,"",NA,"5"
"",NA,"",NA,"",NA,NA,NA,NA,NA,NA,"","","用户61870",1,"2024-08-23_13h57.34.560","IAT(Formal)","2021.2.3","Win32",58.82352941,NA,"",NA,"e",1,0.6082,0,30,30,10,1,"认真","e","",NA,"",NA,NA,NA,NA,NA,NA,NA,"","","",NA,NA,NA,NA,NA,NA,"",NA,"",NA,NA,NA,NA,NA,NA,NA,"",NA,"",NA,NA,NA,NA,NA,NA,NA,"","","",NA,"",NA,NA,NA,NA,NA,NA,NA,"",NA,"5"
"",NA,"",NA,"",NA,NA,NA,NA,NA,NA,"","","用户61870",1,"2024-08-23_13h57.34.560","IAT(Formal)","2021.2.3","Win32",58.82352941,NA,"",NA,"i",1,0.5849,0,31,31,28,1,"鲁莽","i","",NA,"",NA,NA,NA,NA,NA,NA,NA,"","","",NA,NA,NA,NA,NA,NA,"",NA,"",NA,NA,NA,NA,NA,NA,NA,"",NA,"",NA,NA,NA,NA,NA,NA,NA,"","","",NA,"",NA,NA,NA,NA,NA,NA,NA,"",NA,"5"
"",NA,"",NA,"",NA,NA,NA,NA,NA,NA,"","","用户61870",1,"2024-08-23_13h57.34.560","IAT(Formal)","2021.2.3","Win32",58.82352941,NA,"",NA,"e",1,0.6411,0,32,32,13,1,"公正","e","",NA,"",NA,NA,NA,NA,NA,NA,NA,"","","",NA,NA,NA,NA,NA,NA,"",NA,"",NA,NA,NA,NA,NA,NA,NA,"",NA,"",NA,NA,NA,NA,NA,NA,NA,"","","",NA,"",NA,NA,NA,NA,NA,NA,NA,"",NA,"5"
"",NA,"",NA,"",NA,NA,NA,NA,NA,NA,"","","用户61870",1,"2024-08-23_13h57.34.560","IAT(Formal)","2021.2.3","Win32",58.82352941,NA,"",NA,"i",1,0.6688,0,33,33,30,1,"执拗","i","",NA,"",NA,NA,NA,NA,NA,NA,NA,"","","",NA,NA,NA,NA,NA,NA,"",NA,"",NA,NA,NA,NA,NA,NA,NA,"",NA,"",NA,NA,NA,NA,NA,NA,NA,"","","",NA,"",NA,NA,NA,NA,NA,NA,NA,"",NA,"5"
"",NA,"",NA,"",NA,NA,NA,NA,NA,NA,"","","用户61870",1,"2024-08-23_13h57.34.560","IAT(Formal)","2021.2.3","Win32",58.82352941,NA,"",NA,"e",1,0.441,0,34,34,7,1,"勇敢","e","",NA,"",NA,NA,NA,NA,NA,NA,NA,"","","",NA,NA,NA,NA,NA,NA,"",NA,"",NA,NA,NA,NA,NA,NA,NA,"",NA,"",NA,NA,NA,NA,NA,NA,NA,"","","",NA,"",NA,NA,NA,NA,NA,NA,NA,"",NA,"5"
"",NA,"",NA,"",NA,NA,NA,NA,NA,NA,"","","用户61870",1,"2024-08-23_13h57.34.560","IAT(Formal)","2021.2.3","Win32",58.82352941,NA,"",NA,"e",1,0.5785,0,35,35,3,1,"杰出","e","",NA,"",NA,NA,NA,NA,NA,NA,NA,"","","",NA,NA,NA,NA,NA,NA,"",NA,"",NA,NA,NA,NA,NA,NA,NA,"",NA,"",NA,NA,NA,NA,NA,NA,NA,"","","",NA,"",NA,NA,NA,NA,NA,NA,NA,"",NA,"5"
"",NA,"",NA,"",NA,NA,NA,NA,NA,NA,"","","用户61870",1,"2024-08-23_13h57.34.560","IAT(Formal)","2021.2.3","Win32",58.82352941,NA,"",NA,"i",1,0.6508,0,36,36,29,1,"冒失","i","",NA,"",NA,NA,NA,NA,NA,NA,NA,"","","",NA,NA,NA,NA,NA,NA,"",NA,"",NA,NA,NA,NA,NA,NA,NA,"",NA,"",NA,NA,NA,NA,NA,NA,NA,"","","",NA,"",NA,NA,NA,NA,NA,NA,NA,"",NA,"5"
"",NA,"",NA,"",NA,NA,NA,NA,NA,NA,"","","用户61870",1,"2024-08-23_13h57.34.560","IAT(Formal)","2021.2.3","Win32",58.82352941,NA,"",NA,"e",1,1.1006,0,37,37,1,1,"崇高","e","",NA,"",NA,NA,NA,NA,NA,NA,NA,"","","",NA,NA,NA,NA,NA,NA,"",NA,"",NA,NA,NA,NA,NA,NA,NA,"",NA,"",NA,NA,NA,NA,NA,NA,NA,"","","",NA,"",NA,NA,NA,NA,NA,NA,NA,"",NA,"5"
"",NA,"",NA,"",NA,NA,NA,NA,NA,NA,"","","用户61870",1,"2024-08-23_13h57.34.560","IAT(Formal)","2021.2.3","Win32",58.82352941,NA,"",NA,"i",1,0.8868,0,38,38,37,1,"固执","i","",NA,"",NA,NA,NA,NA,NA,NA,NA,"","","",NA,NA,NA,NA,NA,NA,"",NA,"",NA,NA,NA,NA,NA,NA,NA,"",NA,"",NA,NA,NA,NA,NA,NA,NA,"","","",NA,"",NA,NA,NA,NA,NA,NA,NA,"",NA,"5"
"",NA,"",NA,"",NA,NA,NA,NA,NA,NA,"","","用户61870",1,"2024-08-23_13h57.34.560","IAT(Formal)","2021.2.3","Win32",58.82352941,NA,"",NA,"i",1,0.8673,0,39,39,35,1,"猖狂","i","",NA,"",NA,NA,NA,NA,NA,NA,NA,"","","",NA,NA,NA,NA,NA,NA,"",NA,"",NA,NA,NA,NA,NA,NA,NA,"",NA,"",NA,NA,NA,NA,NA,NA,NA,"","","",NA,"",NA,NA,NA,NA,NA,NA,NA,"",NA,"5"
"",NA,"",NA,"",NA,NA,NA,NA,NA,NA,"","","用户61870",1,"2024-08-23_13h57.34.560","IAT(Formal)","2021.2.3","Win32",58.82352941,NA,"",NA,"",NA,NA,NA,NA,NA,NA,NA,"","","space",7.8608,"e",1,0.6035,0,0,0,19,1,"机智","e","",NA,NA,NA,NA,NA,NA,"",NA,"",NA,NA,NA,NA,NA,NA,NA,"",NA,"",NA,NA,NA,NA,NA,NA,NA,"","","",NA,"",NA,NA,NA,NA,NA,NA,NA,"",NA,"5"
"",NA,"",NA,"",NA,NA,NA,NA,NA,NA,"","","用户61870",1,"2024-08-23_13h57.34.560","IAT(Formal)","2021.2.3","Win32",58.82352941,NA,"",NA,"",NA,NA,NA,NA,NA,NA,NA,"","","",NA,"e",1,0.5217,0,1,1,17,1,"勇敢","e","",NA,NA,NA,NA,NA,NA,"",NA,"",NA,NA,NA,NA,NA,NA,NA,"",NA,"",NA,NA,NA,NA,NA,NA,NA,"","","",NA,"",NA,NA,NA,NA,NA,NA,NA,"",NA,"5"
"",NA,"",NA,"",NA,NA,NA,NA,NA,NA,"","","用户61870",1,"2024-08-23_13h57.34.560","IAT(Formal)","2021.2.3","Win32",58.82352941,NA,"",NA,"",NA,NA,NA,NA,NA,NA,NA,"","","",NA,"i",1,0.6054,0,2,2,42,1,"凶狠","i","",NA,NA,NA,NA,NA,NA,"",NA,"",NA,NA,NA,NA,NA,NA,NA,"",NA,"",NA,NA,NA,NA,NA,NA,NA,"","","",NA,"",NA,NA,NA,NA,NA,NA,NA,"",NA,"5"
"",NA,"",NA,"",NA,NA,NA,NA,NA,NA,"","","用户61870",1,"2024-08-23_13h57.34.560","IAT(Formal)","2021.2.3","Win32",58.82352941,NA,"",NA,"",NA,NA,NA,NA,NA,NA,NA,"","","",NA,"i",1,0.5242,0,3,3,33,1,"刻薄","i","",NA,NA,NA,NA,NA,NA,"",NA,"",NA,NA,NA,NA,NA,NA,NA,"",NA,"",NA,NA,NA,NA,NA,NA,NA,"","","",NA,"",NA,NA,NA,NA,NA,NA,NA,"",NA,"5"
"",NA,"",NA,"",NA,NA,NA,NA,NA,NA,"","","用户61870",1,"2024-08-23_13h57.34.560","IAT(Formal)","2021.2.3","Win32",58.82352941,NA,"",NA,"",NA,NA,NA,NA,NA,NA,NA,"","","",NA,"e",1,0.3937,0,4,4,71,1,"我的","e","",NA,NA,NA,NA,NA,NA,"",NA,"",NA,NA,NA,NA,NA,NA,NA,"",NA,"",NA,NA,NA,NA,NA,NA,NA,"","","",NA,"",NA,NA,NA,NA,NA,NA,NA,"",NA,"5"
"",NA,"",NA,"",NA,NA,NA,NA,NA,NA,"","","用户61870",1,"2024-08-23_13h57.34.560","IAT(Formal)","2021.2.3","Win32",58.82352941,NA,"",NA,"",NA,NA,NA,NA,NA,NA,NA,"","","",NA,"e",1,0.4674,0,5,5,2,1,"我们","e","",NA,NA,NA,NA,NA,NA,"",NA,"",NA,NA,NA,NA,NA,NA,NA,"",NA,"",NA,NA,NA,NA,NA,NA,NA,"","","",NA,"",NA,NA,NA,NA,NA,NA,NA,"",NA,"5"
"",NA,"",NA,"",NA,NA,NA,NA,NA,NA,"","","用户61870",1,"2024-08-23_13h57.34.560","IAT(Formal)","2021.2.3","Win32",58.82352941,NA,"",NA,"",NA,NA,NA,NA,NA,NA,NA,"","","",NA,"i",1,0.558,0,6,6,40,1,"执拗","i","",NA,NA,NA,NA,NA,NA,"",NA,"",NA,NA,NA,NA,NA,NA,NA,"",NA,"",NA,NA,NA,NA,NA,NA,NA,"","","",NA,"",NA,NA,NA,NA,NA,NA,NA,"",NA,"5"
"",NA,"",NA,"",NA,NA,NA,NA,NA,NA,"","","用户61870",1,"2024-08-23_13h57.34.560","IAT(Formal)","2021.2.3","Win32",58.82352941,NA,"",NA,"",NA,NA,NA,NA,NA,NA,NA,"","","",NA,"e",1,0.534,0,7,7,4,1,"俺","e","",NA,NA,NA,NA,NA,NA,"",NA,"",NA,NA,NA,NA,NA,NA,NA,"",NA,"",NA,NA,NA,NA,NA,NA,NA,"","","",NA,"",NA,NA,NA,NA,NA,NA,NA,"",NA,"5"
"",NA,"",NA,"",NA,NA,NA,NA,NA,NA,"","","用户61870",1,"2024-08-23_13h57.34.560","IAT(Formal)","2021.2.3","Win32",58.82352941,NA,"",NA,"",NA,NA,NA,NA,NA,NA,NA,"","","",NA,"i",1,0.4513,0,8,8,37,1,"傲慢","i","",NA,NA,NA,NA,NA,NA,"",NA,"",NA,NA,NA,NA,NA,NA,NA,"",NA,"",NA,NA,NA,NA,NA,NA,NA,"","","",NA,"",NA,NA,NA,NA,NA,NA,NA,"",NA,"5"
"",NA,"",NA,"",NA,NA,NA,NA,NA,NA,"","","用户61870",1,"2024-08-23_13h57.34.560","IAT(Formal)","2021.2.3","Win32",58.82352941,NA,"",NA,"",NA,NA,NA,NA,NA,NA,NA,"","","",NA,"e",0,0.8284,0,9,9,47,1,"固执","i","",NA,NA,NA,NA,NA,NA,"",NA,"",NA,NA,NA,NA,NA,NA,NA,"",NA,"",NA,NA,NA,NA,NA,NA,NA,"","","",NA,"",NA,NA,NA,NA,NA,NA,NA,"",NA,"5"
"",NA,"",NA,"",NA,NA,NA,NA,NA,NA,"","","用户61870",1,"2024-08-23_13h57.34.560","IAT(Formal)","2021.2.3","Win32",58.82352941,NA,"",NA,"",NA,NA,NA,NA,NA,NA,NA,"","","",NA,"e",0,1.0834,0,10,10,78,1,"他人","i","",NA,NA,NA,NA,NA,NA,"",NA,"",NA,NA,NA,NA,NA,NA,NA,"",NA,"",NA,NA,NA,NA,NA,NA,NA,"","","",NA,"",NA,NA,NA,NA,NA,NA,NA,"",NA,"5"
"",NA,"",NA,"",NA,NA,NA,NA,NA,NA,"","","用户61870",1,"2024-08-23_13h57.34.560","IAT(Formal)","2021.2.3","Win32",58.82352941,NA,"",NA,"",NA,NA,NA,NA,NA,NA,NA,"","","",NA,"e",1,0.805,0,11,11,18,1,"勤奋","e","",NA,NA,NA,NA,NA,NA,"",NA,"",NA,NA,NA,NA,NA,NA,NA,"",NA,"",NA,NA,NA,NA,NA,NA,NA,"","","",NA,"",NA,NA,NA,NA,NA,NA,NA,"",NA,"5"
"",NA,"",NA,"",NA,NA,NA,NA,NA,NA,"","","用户61870",1,"2024-08-23_13h57.34.560","IAT(Formal)","2021.2.3","Win32",58.82352941,NA,"",NA,"",NA,NA,NA,NA,NA,NA,NA,"","","",NA,"i",1,1.2203,0,12,12,66,1,"他们","i","",NA,NA,NA,NA,NA,NA,"",NA,"",NA,NA,NA,NA,NA,NA,NA,"",NA,"",NA,NA,NA,NA,NA,NA,NA,"","","",NA,"",NA,NA,NA,NA,NA,NA,NA,"",NA,"5"
"",NA,"",NA,"",NA,NA,NA,NA,NA,NA,"","","用户61870",1,"2024-08-23_13h57.34.560","IAT(Formal)","2021.2.3","Win32",58.82352941,NA,"",NA,"",NA,NA,NA,NA,NA,NA,NA,"","","",NA,"i",1,1.0352,0,13,13,31,1,"虚伪","i","",NA,NA,NA,NA,NA,NA,"",NA,"",NA,NA,NA,NA,NA,NA,NA,"",NA,"",NA,NA,NA,NA,NA,NA,NA,"","","",NA,"",NA,NA,NA,NA,NA,NA,NA,"",NA,"5"
"",NA,"",NA,"",NA,NA,NA,NA,NA,NA,"","","用户61870",1,"2024-08-23_13h57.34.560","IAT(Formal)","2021.2.3","Win32",58.82352941,NA,"",NA,"",NA,NA,NA,NA,NA,NA,NA,"","","",NA,"i",1,0.7421,0,14,14,38,1,"鲁莽","i","",NA,NA,NA,NA,NA,NA,"",NA,"",NA,NA,NA,NA,NA,NA,NA,"",NA,"",NA,NA,NA,NA,NA,NA,NA,"","","",NA,"",NA,NA,NA,NA,NA,NA,NA,"",NA,"5"
"",NA,"",NA,"",NA,NA,NA,NA,NA,NA,"","","用户61870",1,"2024-08-23_13h57.34.560","IAT(Formal)","2021.2.3","Win32",58.82352941,NA,"",NA,"",NA,NA,NA,NA,NA,NA,NA,"","","",NA,"i",1,0.916,0,15,15,69,1,"其他","i","",NA,NA,NA,NA,NA,NA,"",NA,"",NA,NA,NA,NA,NA,NA,NA,"",NA,"",NA,NA,NA,NA,NA,NA,NA,"","","",NA,"",NA,NA,NA,NA,NA,NA,NA,"",NA,"5"
"",NA,"",NA,"",NA,NA,NA,NA,NA,NA,"","","用户61870",1,"2024-08-23_13h57.34.560","IAT(Formal)","2021.2.3","Win32",58.82352941,NA,"",NA,"",NA,NA,NA,NA,NA,NA,NA,"","","",NA,"i",1,0.7835,0,16,16,67,1,"他的","i","",NA,NA,NA,NA,NA,NA,"",NA,"",NA,NA,NA,NA,NA,NA,NA,"",NA,"",NA,NA,NA,NA,NA,NA,NA,"","","",NA,"",NA,NA,NA,NA,NA,NA,NA,"",NA,"5"
"",NA,"",NA,"",NA,NA,NA,NA,NA,NA,"","","用户61870",1,"2024-08-23_13h57.34.560","IAT(Formal)","2021.2.3","Win32",58.82352941,NA,"",NA,"",NA,NA,NA,NA,NA,NA,NA,"","","",NA,"i",0,1.2772,0,17,17,74,1,"俺","e","",NA,NA,NA,NA,NA,NA,"",NA,"",NA,NA,NA,NA,NA,NA,NA,"",NA,"",NA,NA,NA,NA,NA,NA,NA,"","","",NA,"",NA,NA,NA,NA,NA,NA,NA,"",NA,"5"
"",NA,"",NA,"",NA,NA,NA,NA,NA,NA,"","","用户61870",1,"2024-08-23_13h57.34.560","IAT(Formal)","2021.2.3","Win32",58.82352941,NA,"",NA,"",NA,NA,NA,NA,NA,NA,NA,"","","",NA,"e",1,0.6757,0,18,18,50,1,"我","e","",NA,NA,NA,NA,NA,NA,"",NA,"",NA,NA,NA,NA,NA,NA,NA,"",NA,"",NA,NA,NA,NA,NA,NA,NA,"","","",NA,"",NA,NA,NA,NA,NA,NA,NA,"",NA,"5"
"",NA,"",NA,"",NA,NA,NA,NA,NA,NA,"","","用户61870",1,"2024-08-23_13h57.34.560","IAT(Formal)","2021.2.3","Win32",58.82352941,NA,"",NA,"",NA,NA,NA,NA,NA,NA,NA,"","","",NA,"i",1,0.8431,0,19,19,65,1,"他","i","",NA,NA,NA,NA,NA,NA,"",NA,"",NA,NA,NA,NA,NA,NA,NA,"",NA,"",NA,NA,NA,NA,NA,NA,NA,"","","",NA,"",NA,NA,NA,NA,NA,NA,NA,"",NA,"5"
"",NA,"",NA,"",NA,NA,NA,NA,NA,NA,"","","用户61870",1,"2024-08-23_13h57.34.560","IAT(Formal)","2021.2.3","Win32",58.82352941,NA,"",NA,"",NA,NA,NA,NA,NA,NA,NA,"","","",NA,"e",1,0.8059,0,20,20,10,1,"优秀","e","",NA,NA,NA,NA,NA,NA,"",NA,"",NA,NA,NA,NA,NA,NA,NA,"",NA,"",NA,NA,NA,NA,NA,NA,NA,"","","",NA,"",NA,NA,NA,NA,NA,NA,NA,"",NA,"5"
"",NA,"",NA,"",NA,NA,NA,NA,NA,NA,"","","用户61870",1,"2024-08-23_13h57.34.560","IAT(Formal)","2021.2.3","Win32",58.82352941,NA,"",NA,"",NA,NA,NA,NA,NA,NA,NA,"","","",NA,"i",0,1.1584,0,21,21,26,1,"冷静","e","",NA,NA,NA,NA,NA,NA,"",NA,"",NA,NA,NA,NA,NA,NA,NA,"",NA,"",NA,NA,NA,NA,NA,NA,NA,"","","",NA,"",NA,NA,NA,NA,NA,NA,NA,"",NA,"5"
"",NA,"",NA,"",NA,NA,NA,NA,NA,NA,"","","用户61870",1,"2024-08-23_13h57.34.560","IAT(Formal)","2021.2.3","Win32",58.82352941,NA,"",NA,"",NA,NA,NA,NA,NA,NA,NA,"","","",NA,"i",1,0.9691,0,22,22,55,1,"他","i","",NA,NA,NA,NA,NA,NA,"",NA,"",NA,NA,NA,NA,NA,NA,NA,"",NA,"",NA,NA,NA,NA,NA,NA,NA,"","","",NA,"",NA,NA,NA,NA,NA,NA,NA,"",NA,"5"
"",NA,"",NA,"",NA,NA,NA,NA,NA,NA,"","","用户61870",1,"2024-08-23_13h57.34.560","IAT(Formal)","2021.2.3","Win32",58.82352941,NA,"",NA,"",NA,NA,NA,NA,NA,NA,NA,"","","",NA,"e",1,0.9232,0,23,23,29,1,"诚恳","e","",NA,NA,NA,NA,NA,NA,"",NA,"",NA,NA,NA,NA,NA,NA,NA,"",NA,"",NA,NA,NA,NA,NA,NA,NA,"","","",NA,"",NA,NA,NA,NA,NA,NA,NA,"",NA,"5"
"",NA,"",NA,"",NA,NA,NA,NA,NA,NA,"","","用户61870",1,"2024-08-23_13h57.34.560","IAT(Formal)","2021.2.3","Win32",58.82352941,NA,"",NA,"",NA,NA,NA,NA,NA,NA,NA,"","","",NA,"i",1,0.7034,0,24,24,57,1,"他的","i","",NA,NA,NA,NA,NA,NA,"",NA,"",NA,NA,NA,NA,NA,NA,NA,"",NA,"",NA,NA,NA,NA,NA,NA,NA,"","","",NA,"",NA,NA,NA,NA,NA,NA,NA,"",NA,"5"
"",NA,"",NA,"",NA,NA,NA,NA,NA,NA,"","","用户61870",1,"2024-08-23_13h57.34.560","IAT(Formal)","2021.2.3","Win32",58.82352941,NA,"",NA,"",NA,NA,NA,NA,NA,NA,NA,"","","",NA,"e",0,0.9843,0,25,25,48,1,"轻率","i","",NA,NA,NA,NA,NA,NA,"",NA,"",NA,NA,NA,NA,NA,NA,NA,"",NA,"",NA,NA,NA,NA,NA,NA,NA,"","","",NA,"",NA,NA,NA,NA,NA,NA,NA,"",NA,"5"
"",NA,"",NA,"",NA,NA,NA,NA,NA,NA,"","","用户61870",1,"2024-08-23_13h57.34.560","IAT(Formal)","2021.2.3","Win32",58.82352941,NA,"",NA,"",NA,NA,NA,NA,NA,NA,NA,"","","",NA,"i",1,0.5852,0,26,26,43,1,"自私","i","",NA,NA,NA,NA,NA,NA,"",NA,"",NA,NA,NA,NA,NA,NA,NA,"",NA,"",NA,NA,NA,NA,NA,NA,NA,"","","",NA,"",NA,NA,NA,NA,NA,NA,NA,"",NA,"5"
"",NA,"",NA,"",NA,NA,NA,NA,NA,NA,"","","用户61870",1,"2024-08-23_13h57.34.560","IAT(Formal)","2021.2.3","Win32",58.82352941,NA,"",NA,"",NA,NA,NA,NA,NA,NA,NA,"","","",NA,"i",1,1.1354,0,27,27,58,1,"他人","i","",NA,NA,NA,NA,NA,NA,"",NA,"",NA,NA,NA,NA,NA,NA,NA,"",NA,"",NA,NA,NA,NA,NA,NA,NA,"","","",NA,"",NA,NA,NA,NA,NA,NA,NA,"",NA,"5"
"",NA,"",NA,"",NA,NA,NA,NA,NA,NA,"","","用户61870",1,"2024-08-23_13h57.34.560","IAT(Formal)","2021.2.3","Win32",58.82352941,NA,"",NA,"",NA,NA,NA,NA,NA,NA,NA,"","","",NA,"i",1,0.6505,0,28,28,75,1,"他","i","",NA,NA,NA,NA,NA,NA,"",NA,"",NA,NA,NA,NA,NA,NA,NA,"",NA,"",NA,NA,NA,NA,NA,NA,NA,"","","",NA,"",NA,NA,NA,NA,NA,NA,NA,"",NA,"5"
"",NA,"",NA,"",NA,NA,NA,NA,NA,NA,"","","用户61870",1,"2024-08-23_13h57.34.560","IAT(Formal)","2021.2.3","Win32",58.82352941,NA,"",NA,"",NA,NA,NA,NA,NA,NA,NA,"","","",NA,"i",1,0.7551,0,29,29,41,1,"散漫","i","",NA,NA,NA,NA,NA,NA,"",NA,"",NA,NA,NA,NA,NA,NA,NA,"",NA,"",NA,NA,NA,NA,NA,NA,NA,"","","",NA,"",NA,NA,NA,NA,NA,NA,NA,"",NA,"5"
"",NA,"",NA,"",NA,NA,NA,NA,NA,NA,"","","用户61870",1,"2024-08-23_13h57.34.560","IAT(Formal)","2021.2.3","Win32",58.82352941,NA,"",NA,"",NA,NA,NA,NA,NA,NA,NA,"","","",NA,"i",1,0.8419,0,30,30,45,1,"猖狂","i","",NA,NA,NA,NA,NA,NA,"",NA,"",NA,NA,NA,NA,NA,NA,NA,"",NA,"",NA,NA,NA,NA,NA,NA,NA,"","","",NA,"",NA,NA,NA,NA,NA,NA,NA,"",NA,"5"
"",NA,"",NA,"",NA,NA,NA,NA,NA,NA,"","","用户61870",1,"2024-08-23_13h57.34.560","IAT(Formal)","2021.2.3","Win32",58.82352941,NA,"",NA,"",NA,NA,NA,NA,NA,NA,NA,"","","",NA,"e",1,0.9182,0,31,31,27,1,"热情","e","",NA,NA,NA,NA,NA,NA,"",NA,"",NA,NA,NA,NA,NA,NA,NA,"",NA,"",NA,NA,NA,NA,NA,NA,NA,"","","",NA,"",NA,NA,NA,NA,NA,NA,NA,"",NA,"5"
"",NA,"",NA,"",NA,NA,NA,NA,NA,NA,"","","用户61870",1,"2024-08-23_13h57.34.560","IAT(Formal)","2021.2.3","Win32",58.82352941,NA,"",NA,"",NA,NA,NA,NA,NA,NA,NA,"","","",NA,"e",1,1.1339,0,32,32,63,1,"自己","e","",NA,NA,NA,NA,NA,NA,"",NA,"",NA,NA,NA,NA,NA,NA,NA,"",NA,"",NA,NA,NA,NA,NA,NA,NA,"","","",NA,"",NA,NA,NA,NA,NA,NA,NA,"",NA,"5"
"",NA,"",NA,"",NA,NA,NA,NA,NA,NA,"","","用户61870",1,"2024-08-23_13h57.34.560","IAT(Formal)","2021.2.3","Win32",58.82352941,NA,"",NA,"",NA,NA,NA,NA,NA,NA,NA,"","","",NA,"e",1,0.5343,0,33,33,70,1,"我","e","",NA,NA,NA,NA,NA,NA,"",NA,"",NA,NA,NA,NA,NA,NA,NA,"",NA,"",NA,NA,NA,NA,NA,NA,NA,"","","",NA,"",NA,NA,NA,NA,NA,NA,NA,"",NA,"5"
"",NA,"",NA,"",NA,NA,NA,NA,NA,NA,"","","用户61870",1,"2024-08-23_13h57.34.560","IAT(Formal)","2021.2.3","Win32",58.82352941,NA,"",NA,"",NA,NA,NA,NA,NA,NA,NA,"","","",NA,"i",1,1.045,0,34,34,7,1,"他的","i","",NA,NA,NA,NA,NA,NA,"",NA,"",NA,NA,NA,NA,NA,NA,NA,"",NA,"",NA,NA,NA,NA,NA,NA,NA,"","","",NA,"",NA,NA,NA,NA,NA,NA,NA,"",NA,"5"
"",NA,"",NA,"",NA,NA,NA,NA,NA,NA,"","","用户61870",1,"2024-08-23_13h57.34.560","IAT(Formal)","2021.2.3","Win32",58.82352941,NA,"",NA,"",NA,NA,NA,NA,NA,NA,NA,"","","",NA,"e",1,0.9395,0,35,35,16,1,"正直","e","",NA,NA,NA,NA,NA,NA,"",NA,"",NA,NA,NA,NA,NA,NA,NA,"",NA,"",NA,NA,NA,NA,NA,NA,NA,"","","",NA,"",NA,NA,NA,NA,NA,NA,NA,"",NA,"5"
"",NA,"",NA,"",NA,NA,NA,NA,NA,NA,"","","用户61870",1,"2024-08-23_13h57.34.560","IAT(Formal)","2021.2.3","Win32",58.82352941,NA,"",NA,"",NA,NA,NA,NA,NA,NA,NA,"","","",NA,"e",1,1.1039,0,36,36,54,1,"俺","e","",NA,NA,NA,NA,NA,NA,"",NA,"",NA,NA,NA,NA,NA,NA,NA,"",NA,"",NA,NA,NA,NA,NA,NA,NA,"","","",NA,"",NA,NA,NA,NA,NA,NA,NA,"",NA,"5"
"",NA,"",NA,"",NA,NA,NA,NA,NA,NA,"","","用户61870",1,"2024-08-23_13h57.34.560","IAT(Formal)","2021.2.3","Win32",58.82352941,NA,"",NA,"",NA,NA,NA,NA,NA,NA,NA,"","","",NA,"",0,NA,0,37,37,35,1,"消极","i","",NA,NA,NA,NA,NA,NA,"",NA,"",NA,NA,NA,NA,NA,NA,NA,"",NA,"",NA,NA,NA,NA,NA,NA,NA,"","","",NA,"",NA,NA,NA,NA,NA,NA,NA,"",NA,"5"
"",NA,"",NA,"",NA,NA,NA,NA,NA,NA,"","","用户61870",1,"2024-08-23_13h57.34.560","IAT(Formal)","2021.2.3","Win32",58.82352941,NA,"",NA,"",NA,NA,NA,NA,NA,NA,NA,"","","",NA,"e",1,0.5501,0,38,38,12,1,"聪明","e","",NA,NA,NA,NA,NA,NA,"",NA,"",NA,NA,NA,NA,NA,NA,NA,"",NA,"",NA,NA,NA,NA,NA,NA,NA,"","","",NA,"",NA,NA,NA,NA,NA,NA,NA,"",NA,"5"
"",NA,"",NA,"",NA,NA,NA,NA,NA,NA,"","","用户61870",1,"2024-08-23_13h57.34.560","IAT(Formal)","2021.2.3","Win32",58.82352941,NA,"",NA,"",NA,NA,NA,NA,NA,NA,NA,"","","",NA,"i",1,0.8845,0,39,39,39,1,"冒失","i","",NA,NA,NA,NA,NA,NA,"",NA,"",NA,NA,NA,NA,NA,NA,NA,"",NA,"",NA,NA,NA,NA,NA,NA,NA,"","","",NA,"",NA,NA,NA,NA,NA,NA,NA,"",NA,"5"
"",NA,"",NA,"",NA,NA,NA,NA,NA,NA,"","","用户61870",1,"2024-08-23_13h57.34.560","IAT(Formal)","2021.2.3","Win32",58.82352941,NA,"",NA,"",NA,NA,NA,NA,NA,NA,NA,"","","",NA,"i",1,0.9243,0,40,40,77,1,"他的","i","",NA,NA,NA,NA,NA,NA,"",NA,"",NA,NA,NA,NA,NA,NA,NA,"",NA,"",NA,NA,NA,NA,NA,NA,NA,"","","",NA,"",NA,NA,NA,NA,NA,NA,NA,"",NA,"5"
"",NA,"",NA,"",NA,NA,NA,NA,NA,NA,"","","用户61870",1,"2024-08-23_13h57.34.560","IAT(Formal)","2021.2.3","Win32",58.82352941,NA,"",NA,"",NA,NA,NA,NA,NA,NA,NA,"","","",NA,"i",1,0.6665,0,41,41,44,1,"暴躁","i","",NA,NA,NA,NA,NA,NA,"",NA,"",NA,NA,NA,NA,NA,NA,NA,"",NA,"",NA,NA,NA,NA,NA,NA,NA,"","","",NA,"",NA,NA,NA,NA,NA,NA,NA,"",NA,"5"
"",NA,"",NA,"",NA,NA,NA,NA,NA,NA,"","","用户61870",1,"2024-08-23_13h57.34.560","IAT(Formal)","2021.2.3","Win32",58.82352941,NA,"",NA,"",NA,NA,NA,NA,NA,NA,NA,"","","",NA,"e",1,0.7334,0,42,42,51,1,"我的","e","",NA,NA,NA,NA,NA,NA,"",NA,"",NA,NA,NA,NA,NA,NA,NA,"",NA,"",NA,NA,NA,NA,NA,NA,NA,"","","",NA,"",NA,NA,NA,NA,NA,NA,NA,"",NA,"5"
"",NA,"",NA,"",NA,NA,NA,NA,NA,NA,"","","用户61870",1,"2024-08-23_13h57.34.560","IAT(Formal)","2021.2.3","Win32",58.82352941,NA,"",NA,"",NA,NA,NA,NA,NA,NA,NA,"","","",NA,"i",1,0.9502,0,43,43,32,1,"愚蠢","i","",NA,NA,NA,NA,NA,NA,"",NA,"",NA,NA,NA,NA,NA,NA,NA,"",NA,"",NA,NA,NA,NA,NA,NA,NA,"","","",NA,"",NA,NA,NA,NA,NA,NA,NA,"",NA,"5"
"",NA,"",NA,"",NA,NA,NA,NA,NA,NA,"","","用户61870",1,"2024-08-23_13h57.34.560","IAT(Formal)","2021.2.3","Win32",58.82352941,NA,"",NA,"",NA,NA,NA,NA,NA,NA,NA,"","","",NA,"e",1,1.035,0,44,44,15,1,"诚实","e","",NA,NA,NA,NA,NA,NA,"",NA,"",NA,NA,NA,NA,NA,NA,NA,"",NA,"",NA,NA,NA,NA,NA,NA,NA,"","","",NA,"",NA,NA,NA,NA,NA,NA,NA,"",NA,"5"
"",NA,"",NA,"",NA,NA,NA,NA,NA,NA,"","","用户61870",1,"2024-08-23_13h57.34.560","IAT(Formal)","2021.2.3","Win32",58.82352941,NA,"",NA,"",NA,NA,NA,NA,NA,NA,NA,"","","",NA,"e",1,0.5702,0,45,45,3,1,"自己","e","",NA,NA,NA,NA,NA,NA,"",NA,"",NA,NA,NA,NA,NA,NA,NA,"",NA,"",NA,NA,NA,NA,NA,NA,NA,"","","",NA,"",NA,NA,NA,NA,NA,NA,NA,"",NA,"5"
"",NA,"",NA,"",NA,NA,NA,NA,NA,NA,"","","用户61870",1,"2024-08-23_13h57.34.560","IAT(Formal)","2021.2.3","Win32",58.82352941,NA,"",NA,"",NA,NA,NA,NA,NA,NA,NA,"","","",NA,"i",1,1.0951,0,46,46,59,1,"其他","i","",NA,NA,NA,NA,NA,NA,"",NA,"",NA,NA,NA,NA,NA,NA,NA,"",NA,"",NA,NA,NA,NA,NA,NA,NA,"","","",NA,"",NA,NA,NA,NA,NA,NA,NA,"",NA,"5"
"",NA,"",NA,"",NA,NA,NA,NA,NA,NA,"","","用户61870",1,"2024-08-23_13h57.34.560","IAT(Formal)","2021.2.3","Win32",58.82352941,NA,"",NA,"",NA,NA,NA,NA,NA,NA,NA,"","","",NA,"e",1,0.9837,0,47,47,53,1,"自己","e","",NA,NA,NA,NA,NA,NA,"",NA,"",NA,NA,NA,NA,NA,NA,NA,"",NA,"",NA,NA,NA,NA,NA,NA,NA,"","","",NA,"",NA,NA,NA,NA,NA,NA,NA,"",NA,"5"
"",NA,"",NA,"",NA,NA,NA,NA,NA,NA,"","","用户61870",1,"2024-08-23_13h57.34.560","IAT(Formal)","2021.2.3","Win32",58.82352941,NA,"",NA,"",NA,NA,NA,NA,NA,NA,NA,"","","",NA,"e",1,0.9833,0,48,48,73,1,"自己","e","",NA,NA,NA,NA,NA,NA,"",NA,"",NA,NA,NA,NA,NA,NA,NA,"",NA,"",NA,NA,NA,NA,NA,NA,NA,"","","",NA,"",NA,NA,NA,NA,NA,NA,NA,"",NA,"5"
"",NA,"",NA,"",NA,NA,NA,NA,NA,NA,"","","用户61870",1,"2024-08-23_13h57.34.560","IAT(Formal)","2021.2.3","Win32",58.82352941,NA,"",NA,"",NA,NA,NA,NA,NA,NA,NA,"","","",NA,"i",1,1.1857,0,49,49,56,1,"他们","i","",NA,NA,NA,NA,NA,NA,"",NA,"",NA,NA,NA,NA,NA,NA,NA,"",NA,"",NA,NA,NA,NA,NA,NA,NA,"","","",NA,"",NA,NA,NA,NA,NA,NA,NA,"",NA,"5"
"",NA,"",NA,"",NA,NA,NA,NA,NA,NA,"","","用户61870",1,"2024-08-23_13h57.34.560","IAT(Formal)","2021.2.3","Win32",58.82352941,NA,"",NA,"",NA,NA,NA,NA,NA,NA,NA,"","","",NA,"e",1,1.0383,0,50,50,14,1,"乐观","e","",NA,NA,NA,NA,NA,NA,"",NA,"",NA,NA,NA,NA,NA,NA,NA,"",NA,"",NA,NA,NA,NA,NA,NA,NA,"","","",NA,"",NA,NA,NA,NA,NA,NA,NA,"",NA,"5"
"",NA,"",NA,"",NA,NA,NA,NA,NA,NA,"","","用户61870",1,"2024-08-23_13h57.34.560","IAT(Formal)","2021.2.3","Win32",58.82352941,NA,"",NA,"",NA,NA,NA,NA,NA,NA,NA,"","","",NA,"",0,NA,0,51,51,8,1,"他人","i","",NA,NA,NA,NA,NA,NA,"",NA,"",NA,NA,NA,NA,NA,NA,NA,"",NA,"",NA,NA,NA,NA,NA,NA,NA,"","","",NA,"",NA,NA,NA,NA,NA,NA,NA,"",NA,"5"
"",NA,"",NA,"",NA,NA,NA,NA,NA,NA,"","","用户61870",1,"2024-08-23_13h57.34.560","IAT(Formal)","2021.2.3","Win32",58.82352941,NA,"",NA,"",NA,NA,NA,NA,NA,NA,NA,"","","",NA,"e",1,0.5056,0,52,52,72,1,"我们","e","",NA,NA,NA,NA,NA,NA,"",NA,"",NA,NA,NA,NA,NA,NA,NA,"",NA,"",NA,NA,NA,NA,NA,NA,NA,"","","",NA,"",NA,NA,NA,NA,NA,NA,NA,"",NA,"5"
"",NA,"",NA,"",NA,NA,NA,NA,NA,NA,"","","用户61870",1,"2024-08-23_13h57.34.560","IAT(Formal)","2021.2.3","Win32",58.82352941,NA,"",NA,"",NA,NA,NA,NA,NA,NA,NA,"","","",NA,"e",1,0.7383,0,53,53,62,1,"我们","e","",NA,NA,NA,NA,NA,NA,"",NA,"",NA,NA,NA,NA,NA,NA,NA,"",NA,"",NA,NA,NA,NA,NA,NA,NA,"","","",NA,"",NA,NA,NA,NA,NA,NA,NA,"",NA,"5"
"",NA,"",NA,"",NA,NA,NA,NA,NA,NA,"","","用户61870",1,"2024-08-23_13h57.34.560","IAT(Formal)","2021.2.3","Win32",58.82352941,NA,"",NA,"",NA,NA,NA,NA,NA,NA,NA,"","","",NA,"e",1,0.9436,0,54,54,0,1,"我","e","",NA,NA,NA,NA,NA,NA,"",NA,"",NA,NA,NA,NA,NA,NA,NA,"",NA,"",NA,NA,NA,NA,NA,NA,NA,"","","",NA,"",NA,NA,NA,NA,NA,NA,NA,"",NA,"5"
"",NA,"",NA,"",NA,NA,NA,NA,NA,NA,"","","用户61870",1,"2024-08-23_13h57.34.560","IAT(Formal)","2021.2.3","Win32",58.82352941,NA,"",NA,"",NA,NA,NA,NA,NA,NA,NA,"","","",NA,"i",1,0.8336,0,55,55,46,1,"野蛮","i","",NA,NA,NA,NA,NA,NA,"",NA,"",NA,NA,NA,NA,NA,NA,NA,"",NA,"",NA,NA,NA,NA,NA,NA,NA,"","","",NA,"",NA,NA,NA,NA,NA,NA,NA,"",NA,"5"
"",NA,"",NA,"",NA,NA,NA,NA,NA,NA,"","","用户61870",1,"2024-08-23_13h57.34.560","IAT(Formal)","2021.2.3","Win32",58.82352941,NA,"",NA,"",NA,NA,NA,NA,NA,NA,NA,"","","",NA,"i",1,0.7521,0,56,56,30,1,"卑鄙","i","",NA,NA,NA,NA,NA,NA,"",NA,"",NA,NA,NA,NA,NA,NA,NA,"",NA,"",NA,NA,NA,NA,NA,NA,NA,"","","",NA,"",NA,NA,NA,NA,NA,NA,NA,"",NA,"5"
"",NA,"",NA,"",NA,NA,NA,NA,NA,NA,"","","用户61870",1,"2024-08-23_13h57.34.560","IAT(Formal)","2021.2.3","Win32",58.82352941,NA,"",NA,"",NA,NA,NA,NA,NA,NA,NA,"","","",NA,"e",1,0.7515,0,57,57,22,1,"无私","e","",NA,NA,NA,NA,NA,NA,"",NA,"",NA,NA,NA,NA,NA,NA,NA,"",NA,"",NA,NA,NA,NA,NA,NA,NA,"","","",NA,"",NA,NA,NA,NA,NA,NA,NA,"",NA,"5"
"",NA,"",NA,"",NA,NA,NA,NA,NA,NA,"","","用户61870",1,"2024-08-23_13h57.34.560","IAT(Formal)","2021.2.3","Win32",58.82352941,NA,"",NA,"",NA,NA,NA,NA,NA,NA,NA,"","","",NA,"i",1,0.6676,0,58,58,5,1,"他","i","",NA,NA,NA,NA,NA,NA,"",NA,"",NA,NA,NA,NA,NA,NA,NA,"",NA,"",NA,NA,NA,NA,NA,NA,NA,"","","",NA,"",NA,NA,NA,NA,NA,NA,NA,"",NA,"5"
"",NA,"",NA,"",NA,NA,NA,NA,NA,NA,"","","用户61870",1,"2024-08-23_13h57.34.560","IAT(Formal)","2021.2.3","Win32",58.82352941,NA,"",NA,"",NA,NA,NA,NA,NA,NA,NA,"","","",NA,"e",1,0.6675,0,59,59,1,1,"我的","e","",NA,NA,NA,NA,NA,NA,"",NA,"",NA,NA,NA,NA,NA,NA,NA,"",NA,"",NA,NA,NA,NA,NA,NA,NA,"","","",NA,"",NA,NA,NA,NA,NA,NA,NA,"",NA,"5"
"",NA,"",NA,"",NA,NA,NA,NA,NA,NA,"","","用户61870",1,"2024-08-23_13h57.34.560","IAT(Formal)","2021.2.3","Win32",58.82352941,NA,"",NA,"",NA,NA,NA,NA,NA,NA,NA,"","","",NA,"e",1,0.7169,0,60,60,13,1,"杰出","e","",NA,NA,NA,NA,NA,NA,"",NA,"",NA,NA,NA,NA,NA,NA,NA,"",NA,"",NA,NA,NA,NA,NA,NA,NA,"","","",NA,"",NA,NA,NA,NA,NA,NA,NA,"",NA,"5"
"",NA,"",NA,"",NA,NA,NA,NA,NA,NA,"","","用户61870",1,"2024-08-23_13h57.34.560","IAT(Formal)","2021.2.3","Win32",58.82352941,NA,"",NA,"",NA,NA,NA,NA,NA,NA,NA,"","","",NA,"",0,NA,0,61,61,24,1,"朴实","e","",NA,NA,NA,NA,NA,NA,"",NA,"",NA,NA,NA,NA,NA,NA,NA,"",NA,"",NA,NA,NA,NA,NA,NA,NA,"","","",NA,"",NA,NA,NA,NA,NA,NA,NA,"",NA,"5"
"",NA,"",NA,"",NA,NA,NA,NA,NA,NA,"","","用户61870",1,"2024-08-23_13h57.34.560","IAT(Formal)","2021.2.3","Win32",58.82352941,NA,"",NA,"",NA,NA,NA,NA,NA,NA,NA,"","","",NA,"i",1,0.7677,0,62,62,76,1,"他们","i","",NA,NA,NA,NA,NA,NA,"",NA,"",NA,NA,NA,NA,NA,NA,NA,"",NA,"",NA,NA,NA,NA,NA,NA,NA,"","","",NA,"",NA,NA,NA,NA,NA,NA,NA,"",NA,"5"
"",NA,"",NA,"",NA,NA,NA,NA,NA,NA,"","","用户61870",1,"2024-08-23_13h57.34.560","IAT(Formal)","2021.2.3","Win32",58.82352941,NA,"",NA,"",NA,NA,NA,NA,NA,NA,NA,"","","",NA,"e",1,0.6122,0,63,63,61,1,"我的","e","",NA,NA,NA,NA,NA,NA,"",NA,"",NA,NA,NA,NA,NA,NA,NA,"",NA,"",NA,NA,NA,NA,NA,NA,NA,"","","",NA,"",NA,NA,NA,NA,NA,NA,NA,"",NA,"5"
"",NA,"",NA,"",NA,NA,NA,NA,NA,NA,"","","用户61870",1,"2024-08-23_13h57.34.560","IAT(Formal)","2021.2.3","Win32",58.82352941,NA,"",NA,"",NA,NA,NA,NA,NA,NA,NA,"","","",NA,"i",1,0.6233,0,64,64,6,1,"他们","i","",NA,NA,NA,NA,NA,NA,"",NA,"",NA,NA,NA,NA,NA,NA,NA,"",NA,"",NA,NA,NA,NA,NA,NA,NA,"","","",NA,"",NA,NA,NA,NA,NA,NA,NA,"",NA,"5"
"",NA,"",NA,"",NA,NA,NA,NA,NA,NA,"","","用户61870",1,"2024-08-23_13h57.34.560","IAT(Formal)","2021.2.3","Win32",58.82352941,NA,"",NA,"",NA,NA,NA,NA,NA,NA,NA,"","","",NA,"e",1,1.2717,0,65,65,64,1,"俺","e","",NA,NA,NA,NA,NA,NA,"",NA,"",NA,NA,NA,NA,NA,NA,NA,"",NA,"",NA,NA,NA,NA,NA,NA,NA,"","","",NA,"",NA,NA,NA,NA,NA,NA,NA,"",NA,"5"
"",NA,"",NA,"",NA,NA,NA,NA,NA,NA,"","","用户61870",1,"2024-08-23_13h57.34.560","IAT(Formal)","2021.2.3","Win32",58.82352941,NA,"",NA,"",NA,NA,NA,NA,NA,NA,NA,"","","",NA,"",0,NA,0,66,66,28,1,"活泼","e","",NA,NA,NA,NA,NA,NA,"",NA,"",NA,NA,NA,NA,NA,NA,NA,"",NA,"",NA,NA,NA,NA,NA,NA,NA,"","","",NA,"",NA,NA,NA,NA,NA,NA,NA,"",NA,"5"
"",NA,"",NA,"",NA,NA,NA,NA,NA,NA,"","","用户61870",1,"2024-08-23_13h57.34.560","IAT(Formal)","2021.2.3","Win32",58.82352941,NA,"",NA,"",NA,NA,NA,NA,NA,NA,NA,"","","",NA,"e",1,0.6647,0,67,67,11,1,"崇高","e","",NA,NA,NA,NA,NA,NA,"",NA,"",NA,NA,NA,NA,NA,NA,NA,"",NA,"",NA,NA,NA,NA,NA,NA,NA,"","","",NA,"",NA,NA,NA,NA,NA,NA,NA,"",NA,"5"
"",NA,"",NA,"",NA,NA,NA,NA,NA,NA,"","","用户61870",1,"2024-08-23_13h57.34.560","IAT(Formal)","2021.2.3","Win32",58.82352941,NA,"",NA,"",NA,NA,NA,NA,NA,NA,NA,"","","",NA,"i",1,0.7993,0,68,68,68,1,"他人","i","",NA,NA,NA,NA,NA,NA,"",NA,"",NA,NA,NA,NA,NA,NA,NA,"",NA,"",NA,NA,NA,NA,NA,NA,NA,"","","",NA,"",NA,NA,NA,NA,NA,NA,NA,"",NA,"5"
"",NA,"",NA,"",NA,NA,NA,NA,NA,NA,"","","用户61870",1,"2024-08-23_13h57.34.560","IAT(Formal)","2021.2.3","Win32",58.82352941,NA,"",NA,"",NA,NA,NA,NA,NA,NA,NA,"","","",NA,"e",1,0.9556,0,69,69,25,1,"细腻","e","",NA,NA,NA,NA,NA,NA,"",NA,"",NA,NA,NA,NA,NA,NA,NA,"",NA,"",NA,NA,NA,NA,NA,NA,NA,"","","",NA,"",NA,NA,NA,NA,NA,NA,NA,"",NA,"5"
"",NA,"",NA,"",NA,NA,NA,NA,NA,NA,"","","用户61870",1,"2024-08-23_13h57.34.560","IAT(Formal)","2021.2.3","Win32",58.82352941,NA,"",NA,"",NA,NA,NA,NA,NA,NA,NA,"","","",NA,"i",1,0.601,0,70,70,36,1,"自卑","i","",NA,NA,NA,NA,NA,NA,"",NA,"",NA,NA,NA,NA,NA,NA,NA,"",NA,"",NA,NA,NA,NA,NA,NA,NA,"","","",NA,"",NA,NA,NA,NA,NA,NA,NA,"",NA,"5"
"",NA,"",NA,"",NA,NA,NA,NA,NA,NA,"","","用户61870",1,"2024-08-23_13h57.34.560","IAT(Formal)","2021.2.3","Win32",58.82352941,NA,"",NA,"",NA,NA,NA,NA,NA,NA,NA,"","","",NA,"i",1,0.6881,0,71,71,79,1,"其他","i","",NA,NA,NA,NA,NA,NA,"",NA,"",NA,NA,NA,NA,NA,NA,NA,"",NA,"",NA,NA,NA,NA,NA,NA,NA,"","","",NA,"",NA,NA,NA,NA,NA,NA,NA,"",NA,"5"
"",NA,"",NA,"",NA,NA,NA,NA,NA,NA,"","","用户61870",1,"2024-08-23_13h57.34.560","IAT(Formal)","2021.2.3","Win32",58.82352941,NA,"",NA,"",NA,NA,NA,NA,NA,NA,NA,"","","",NA,"e",1,0.6641,0,72,72,20,1,"认真","e","",NA,NA,NA,NA,NA,NA,"",NA,"",NA,NA,NA,NA,NA,NA,NA,"",NA,"",NA,NA,NA,NA,NA,NA,NA,"","","",NA,"",NA,NA,NA,NA,NA,NA,NA,"",NA,"5"
"",NA,"",NA,"",NA,NA,NA,NA,NA,NA,"","","用户61870",1,"2024-08-23_13h57.34.560","IAT(Formal)","2021.2.3","Win32",58.82352941,NA,"",NA,"",NA,NA,NA,NA,NA,NA,NA,"","","",NA,"e",1,0.7727,0,73,73,23,1,"公正","e","",NA,NA,NA,NA,NA,NA,"",NA,"",NA,NA,NA,NA,NA,NA,NA,"",NA,"",NA,NA,NA,NA,NA,NA,NA,"","","",NA,"",NA,NA,NA,NA,NA,NA,NA,"",NA,"5"
"",NA,"",NA,"",NA,NA,NA,NA,NA,NA,"","","用户61870",1,"2024-08-23_13h57.34.560","IAT(Formal)","2021.2.3","Win32",58.82352941,NA,"",NA,"",NA,NA,NA,NA,NA,NA,NA,"","","",NA,"i",1,0.6079,0,74,74,9,1,"其他","i","",NA,NA,NA,NA,NA,NA,"",NA,"",NA,NA,NA,NA,NA,NA,NA,"",NA,"",NA,NA,NA,NA,NA,NA,NA,"","","",NA,"",NA,NA,NA,NA,NA,NA,NA,"",NA,"5"
"",NA,"",NA,"",NA,NA,NA,NA,NA,NA,"","","用户61870",1,"2024-08-23_13h57.34.560","IAT(Formal)","2021.2.3","Win32",58.82352941,NA,"",NA,"",NA,NA,NA,NA,NA,NA,NA,"","","",NA,"i",1,0.8323,0,75,75,34,1,"悲观","i","",NA,NA,NA,NA,NA,NA,"",NA,"",NA,NA,NA,NA,NA,NA,NA,"",NA,"",NA,NA,NA,NA,NA,NA,NA,"","","",NA,"",NA,NA,NA,NA,NA,NA,NA,"",NA,"5"
"",NA,"",NA,"",NA,NA,NA,NA,NA,NA,"","","用户61870",1,"2024-08-23_13h57.34.560","IAT(Formal)","2021.2.3","Win32",58.82352941,NA,"",NA,"",NA,NA,NA,NA,NA,NA,NA,"","","",NA,"e",1,0.649,0,76,76,52,1,"我们","e","",NA,NA,NA,NA,NA,NA,"",NA,"",NA,NA,NA,NA,NA,NA,NA,"",NA,"",NA,NA,NA,NA,NA,NA,NA,"","","",NA,"",NA,NA,NA,NA,NA,NA,NA,"",NA,"5"
"",NA,"",NA,"",NA,NA,NA,NA,NA,NA,"","","用户61870",1,"2024-08-23_13h57.34.560","IAT(Formal)","2021.2.3","Win32",58.82352941,NA,"",NA,"",NA,NA,NA,NA,NA,NA,NA,"","","",NA,"e",1,0.4919,0,77,77,60,1,"我","e","",NA,NA,NA,NA,NA,NA,"",NA,"",NA,NA,NA,NA,NA,NA,NA,"",NA,"",NA,NA,NA,NA,NA,NA,NA,"","","",NA,"",NA,NA,NA,NA,NA,NA,NA,"",NA,"5"
"",NA,"",NA,"",NA,NA,NA,NA,NA,NA,"","","用户61870",1,"2024-08-23_13h57.34.560","IAT(Formal)","2021.2.3","Win32",58.82352941,NA,"",NA,"",NA,NA,NA,NA,NA,NA,NA,"","","",NA,"i",1,0.4923,0,78,78,49,1,"下贱","i","",NA,NA,NA,NA,NA,NA,"",NA,"",NA,NA,NA,NA,NA,NA,NA,"",NA,"",NA,NA,NA,NA,NA,NA,NA,"","","",NA,"",NA,NA,NA,NA,NA,NA,NA,"",NA,"5"
"",NA,"",NA,"",NA,NA,NA,NA,NA,NA,"","","用户61870",1,"2024-08-23_13h57.34.560","IAT(Formal)","2021.2.3","Win32",58.82352941,NA,"",NA,"",NA,NA,NA,NA,NA,NA,NA,"","","",NA,"e",1,0.6515,0,79,79,21,1,"稳重","e","",NA,NA,NA,NA,NA,NA,"",NA,"",NA,NA,NA,NA,NA,NA,NA,"",NA,"",NA,NA,NA,NA,NA,NA,NA,"","","",NA,"",NA,NA,NA,NA,NA,NA,NA,"",NA,"5"
"",NA,"",NA,"",NA,NA,NA,NA,NA,NA,"","","用户61870",1,"2024-08-23_13h57.34.560","IAT(Formal)","2021.2.3","Win32",58.82352941,NA,"",NA,"",NA,NA,NA,NA,NA,NA,NA,"","","",NA,"i",1,0.7025,NA,NA,NA,NA,NA,"虚伪","i","space",6.938,0,0,0,31,1,"",NA,"",NA,NA,NA,NA,NA,NA,NA,"",NA,"",NA,NA,NA,NA,NA,NA,NA,"","","",NA,"",NA,NA,NA,NA,NA,NA,NA,"",NA,"5"
"",NA,"",NA,"",NA,NA,NA,NA,NA,NA,"","","用户61870",1,"2024-08-23_13h57.34.560","IAT(Formal)","2021.2.3","Win32",58.82352941,NA,"",NA,"",NA,NA,NA,NA,NA,NA,NA,"","","",NA,"i",1,0.454,NA,NA,NA,NA,NA,"暴躁","i","",NA,0,1,1,44,1,"",NA,"",NA,NA,NA,NA,NA,NA,NA,"",NA,"",NA,NA,NA,NA,NA,NA,NA,"","","",NA,"",NA,NA,NA,NA,NA,NA,NA,"",NA,"5"
"",NA,"",NA,"",NA,NA,NA,NA,NA,NA,"","","用户61870",1,"2024-08-23_13h57.34.560","IAT(Formal)","2021.2.3","Win32",58.82352941,NA,"",NA,"",NA,NA,NA,NA,NA,NA,NA,"","","",NA,"e",1,0.5431,NA,NA,NA,NA,NA,"我的","e","",NA,0,2,2,71,1,"",NA,"",NA,NA,NA,NA,NA,NA,NA,"",NA,"",NA,NA,NA,NA,NA,NA,NA,"","","",NA,"",NA,NA,NA,NA,NA,NA,NA,"",NA,"5"
"",NA,"",NA,"",NA,NA,NA,NA,NA,NA,"","","用户61870",1,"2024-08-23_13h57.34.560","IAT(Formal)","2021.2.3","Win32",58.82352941,NA,"",NA,"",NA,NA,NA,NA,NA,NA,NA,"","","",NA,"e",1,0.6206,NA,NA,NA,NA,NA,"我们","e","",NA,0,3,3,2,1,"",NA,"",NA,NA,NA,NA,NA,NA,NA,"",NA,"",NA,NA,NA,NA,NA,NA,NA,"","","",NA,"",NA,NA,NA,NA,NA,NA,NA,"",NA,"5"
"",NA,"",NA,"",NA,NA,NA,NA,NA,NA,"","","用户61870",1,"2024-08-23_13h57.34.560","IAT(Formal)","2021.2.3","Win32",58.82352941,NA,"",NA,"",NA,NA,NA,NA,NA,NA,NA,"","","",NA,"e",1,0.5344,NA,NA,NA,NA,NA,"俺","e","",NA,0,4,4,54,1,"",NA,"",NA,NA,NA,NA,NA,NA,NA,"",NA,"",NA,NA,NA,NA,NA,NA,NA,"","","",NA,"",NA,NA,NA,NA,NA,NA,NA,"",NA,"5"
"",NA,"",NA,"",NA,NA,NA,NA,NA,NA,"","","用户61870",1,"2024-08-23_13h57.34.560","IAT(Formal)","2021.2.3","Win32",58.82352941,NA,"",NA,"",NA,NA,NA,NA,NA,NA,NA,"","","",NA,"i",1,0.5267,NA,NA,NA,NA,NA,"他的","i","",NA,0,5,5,7,1,"",NA,"",NA,NA,NA,NA,NA,NA,NA,"",NA,"",NA,NA,NA,NA,NA,NA,NA,"","","",NA,"",NA,NA,NA,NA,NA,NA,NA,"",NA,"5"
"",NA,"",NA,"",NA,NA,NA,NA,NA,NA,"","","用户61870",1,"2024-08-23_13h57.34.560","IAT(Formal)","2021.2.3","Win32",58.82352941,NA,"",NA,"",NA,NA,NA,NA,NA,NA,NA,"","","",NA,"e",1,0.5896,NA,NA,NA,NA,NA,"朴实","e","",NA,0,6,6,24,1,"",NA,"",NA,NA,NA,NA,NA,NA,NA,"",NA,"",NA,NA,NA,NA,NA,NA,NA,"","","",NA,"",NA,NA,NA,NA,NA,NA,NA,"",NA,"5"
"",NA,"",NA,"",NA,NA,NA,NA,NA,NA,"","","用户61870",1,"2024-08-23_13h57.34.560","IAT(Formal)","2021.2.3","Win32",58.82352941,NA,"",NA,"",NA,NA,NA,NA,NA,NA,NA,"","","",NA,"i",1,0.6255,NA,NA,NA,NA,NA,"执拗","i","",NA,0,7,7,40,1,"",NA,"",NA,NA,NA,NA,NA,NA,NA,"",NA,"",NA,NA,NA,NA,NA,NA,NA,"","","",NA,"",NA,NA,NA,NA,NA,NA,NA,"",NA,"5"
"",NA,"",NA,"",NA,NA,NA,NA,NA,NA,"","","用户61870",1,"2024-08-23_13h57.34.560","IAT(Formal)","2021.2.3","Win32",58.82352941,NA,"",NA,"",NA,NA,NA,NA,NA,NA,NA,"","","",NA,"i",1,1.1886,NA,NA,NA,NA,NA,"野蛮","i","",NA,0,8,8,46,1,"",NA,"",NA,NA,NA,NA,NA,NA,NA,"",NA,"",NA,NA,NA,NA,NA,NA,NA,"","","",NA,"",NA,NA,NA,NA,NA,NA,NA,"",NA,"5"
"",NA,"",NA,"",NA,NA,NA,NA,NA,NA,"","","用户61870",1,"2024-08-23_13h57.34.560","IAT(Formal)","2021.2.3","Win32",58.82352941,NA,"",NA,"",NA,NA,NA,NA,NA,NA,NA,"","","",NA,"e",1,0.6841,NA,NA,NA,NA,NA,"认真","e","",NA,0,9,9,20,1,"",NA,"",NA,NA,NA,NA,NA,NA,NA,"",NA,"",NA,NA,NA,NA,NA,NA,NA,"","","",NA,"",NA,NA,NA,NA,NA,NA,NA,"",NA,"5"
"",NA,"",NA,"",NA,NA,NA,NA,NA,NA,"","","用户61870",1,"2024-08-23_13h57.34.560","IAT(Formal)","2021.2.3","Win32",58.82352941,NA,"",NA,"",NA,NA,NA,NA,NA,NA,NA,"","","",NA,"i",1,0.8634,NA,NA,NA,NA,NA,"消极","i","",NA,0,10,10,35,1,"",NA,"",NA,NA,NA,NA,NA,NA,NA,"",NA,"",NA,NA,NA,NA,NA,NA,NA,"","","",NA,"",NA,NA,NA,NA,NA,NA,NA,"",NA,"5"
"",NA,"",NA,"",NA,NA,NA,NA,NA,NA,"","","用户61870",1,"2024-08-23_13h57.34.560","IAT(Formal)","2021.2.3","Win32",58.82352941,NA,"",NA,"",NA,NA,NA,NA,NA,NA,NA,"","","",NA,"i",1,0.8427,NA,NA,NA,NA,NA,"卑鄙","i","",NA,0,11,11,30,1,"",NA,"",NA,NA,NA,NA,NA,NA,NA,"",NA,"",NA,NA,NA,NA,NA,NA,NA,"","","",NA,"",NA,NA,NA,NA,NA,NA,NA,"",NA,"5"
"",NA,"",NA,"",NA,NA,NA,NA,NA,NA,"","","用户61870",1,"2024-08-23_13h57.34.560","IAT(Formal)","2021.2.3","Win32",58.82352941,NA,"",NA,"",NA,NA,NA,NA,NA,NA,NA,"","","",NA,"i",1,0.8569,NA,NA,NA,NA,NA,"他们","i","",NA,0,12,12,76,1,"",NA,"",NA,NA,NA,NA,NA,NA,NA,"",NA,"",NA,NA,NA,NA,NA,NA,NA,"","","",NA,"",NA,NA,NA,NA,NA,NA,NA,"",NA,"5"
"",NA,"",NA,"",NA,NA,NA,NA,NA,NA,"","","用户61870",1,"2024-08-23_13h57.34.560","IAT(Formal)","2021.2.3","Win32",58.82352941,NA,"",NA,"",NA,NA,NA,NA,NA,NA,NA,"","","",NA,"i",1,0.8754,NA,NA,NA,NA,NA,"他人","i","",NA,0,13,13,58,1,"",NA,"",NA,NA,NA,NA,NA,NA,NA,"",NA,"",NA,NA,NA,NA,NA,NA,NA,"","","",NA,"",NA,NA,NA,NA,NA,NA,NA,"",NA,"5"
"",NA,"",NA,"",NA,NA,NA,NA,NA,NA,"","","用户61870",1,"2024-08-23_13h57.34.560","IAT(Formal)","2021.2.3","Win32",58.82352941,NA,"",NA,"",NA,NA,NA,NA,NA,NA,NA,"","","",NA,"i",0,0.82,NA,NA,NA,NA,NA,"冷静","e","",NA,0,14,14,26,1,"",NA,"",NA,NA,NA,NA,NA,NA,NA,"",NA,"",NA,NA,NA,NA,NA,NA,NA,"","","",NA,"",NA,NA,NA,NA,NA,NA,NA,"",NA,"5"
"",NA,"",NA,"",NA,NA,NA,NA,NA,NA,"","","用户61870",1,"2024-08-23_13h57.34.560","IAT(Formal)","2021.2.3","Win32",58.82352941,NA,"",NA,"",NA,NA,NA,NA,NA,NA,NA,"","","",NA,"e",1,1.1232,NA,NA,NA,NA,NA,"我们","e","",NA,0,15,15,62,1,"",NA,"",NA,NA,NA,NA,NA,NA,NA,"",NA,"",NA,NA,NA,NA,NA,NA,NA,"","","",NA,"",NA,NA,NA,NA,NA,NA,NA,"",NA,"5"
"",NA,"",NA,"",NA,NA,NA,NA,NA,NA,"","","用户61870",1,"2024-08-23_13h57.34.560","IAT(Formal)","2021.2.3","Win32",58.82352941,NA,"",NA,"",NA,NA,NA,NA,NA,NA,NA,"","","",NA,"i",1,1.1891,NA,NA,NA,NA,NA,"猖狂","i","",NA,0,16,16,45,1,"",NA,"",NA,NA,NA,NA,NA,NA,NA,"",NA,"",NA,NA,NA,NA,NA,NA,NA,"","","",NA,"",NA,NA,NA,NA,NA,NA,NA,"",NA,"5"
"",NA,"",NA,"",NA,NA,NA,NA,NA,NA,"","","用户61870",1,"2024-08-23_13h57.34.560","IAT(Formal)","2021.2.3","Win32",58.82352941,NA,"",NA,"",NA,NA,NA,NA,NA,NA,NA,"","","",NA,"i",1,1.1965,NA,NA,NA,NA,NA,"其他","i","",NA,0,17,17,79,1,"",NA,"",NA,NA,NA,NA,NA,NA,NA,"",NA,"",NA,NA,NA,NA,NA,NA,NA,"","","",NA,"",NA,NA,NA,NA,NA,NA,NA,"",NA,"5"
"",NA,"",NA,"",NA,NA,NA,NA,NA,NA,"","","用户61870",1,"2024-08-23_13h57.34.560","IAT(Formal)","2021.2.3","Win32",58.82352941,NA,"",NA,"",NA,NA,NA,NA,NA,NA,NA,"","","",NA,"",0,NA,NA,NA,NA,NA,NA,"他","i","",NA,0,18,18,5,1,"",NA,"",NA,NA,NA,NA,NA,NA,NA,"",NA,"",NA,NA,NA,NA,NA,NA,NA,"","","",NA,"",NA,NA,NA,NA,NA,NA,NA,"",NA,"5"
"",NA,"",NA,"",NA,NA,NA,NA,NA,NA,"","","用户61870",1,"2024-08-23_13h57.34.560","IAT(Formal)","2021.2.3","Win32",58.82352941,NA,"",NA,"",NA,NA,NA,NA,NA,NA,NA,"","","",NA,"e",1,0.5941,NA,NA,NA,NA,NA,"勇敢","e","",NA,0,19,19,17,1,"",NA,"",NA,NA,NA,NA,NA,NA,NA,"",NA,"",NA,NA,NA,NA,NA,NA,NA,"","","",NA,"",NA,NA,NA,NA,NA,NA,NA,"",NA,"5"
"",NA,"",NA,"",NA,NA,NA,NA,NA,NA,"","","用户61870",1,"2024-08-23_13h57.34.560","IAT(Formal)","2021.2.3","Win32",58.82352941,NA,"",NA,"",NA,NA,NA,NA,NA,NA,NA,"","","",NA,"e",1,1.1266,NA,NA,NA,NA,NA,"聪明","e","",NA,0,20,20,12,1,"",NA,"",NA,NA,NA,NA,NA,NA,NA,"",NA,"",NA,NA,NA,NA,NA,NA,NA,"","","",NA,"",NA,NA,NA,NA,NA,NA,NA,"",NA,"5"
"",NA,"",NA,"",NA,NA,NA,NA,NA,NA,"","","用户61870",1,"2024-08-23_13h57.34.560","IAT(Formal)","2021.2.3","Win32",58.82352941,NA,"",NA,"",NA,NA,NA,NA,NA,NA,NA,"","","",NA,"i",0,0.9324,NA,NA,NA,NA,NA,"我们","e","",NA,0,21,21,72,1,"",NA,"",NA,NA,NA,NA,NA,NA,NA,"",NA,"",NA,NA,NA,NA,NA,NA,NA,"","","",NA,"",NA,NA,NA,NA,NA,NA,NA,"",NA,"5"
"",NA,"",NA,"",NA,NA,NA,NA,NA,NA,"","","用户61870",1,"2024-08-23_13h57.34.560","IAT(Formal)","2021.2.3","Win32",58.82352941,NA,"",NA,"",NA,NA,NA,NA,NA,NA,NA,"","","",NA,"e",1,0.7068,NA,NA,NA,NA,NA,"自己","e","",NA,0,22,22,53,1,"",NA,"",NA,NA,NA,NA,NA,NA,NA,"",NA,"",NA,NA,NA,NA,NA,NA,NA,"","","",NA,"",NA,NA,NA,NA,NA,NA,NA,"",NA,"5"
"",NA,"",NA,"",NA,NA,NA,NA,NA,NA,"","","用户61870",1,"2024-08-23_13h57.34.560","IAT(Formal)","2021.2.3","Win32",58.82352941,NA,"",NA,"",NA,NA,NA,NA,NA,NA,NA,"","","",NA,"",0,NA,NA,NA,NA,NA,NA,"他的","i","",NA,0,23,23,67,1,"",NA,"",NA,NA,NA,NA,NA,NA,NA,"",NA,"",NA,NA,NA,NA,NA,NA,NA,"","","",NA,"",NA,NA,NA,NA,NA,NA,NA,"",NA,"5"
"",NA,"",NA,"",NA,NA,NA,NA,NA,NA,"","","用户61870",1,"2024-08-23_13h57.34.560","IAT(Formal)","2021.2.3","Win32",58.82352941,NA,"",NA,"",NA,NA,NA,NA,NA,NA,NA,"","","",NA,"i",1,0.9159,NA,NA,NA,NA,NA,"其他","i","",NA,0,24,24,59,1,"",NA,"",NA,NA,NA,NA,NA,NA,NA,"",NA,"",NA,NA,NA,NA,NA,NA,NA,"","","",NA,"",NA,NA,NA,NA,NA,NA,NA,"",NA,"5"
"",NA,"",NA,"",NA,NA,NA,NA,NA,NA,"","","用户61870",1,"2024-08-23_13h57.34.560","IAT(Formal)","2021.2.3","Win32",58.82352941,NA,"",NA,"",NA,NA,NA,NA,NA,NA,NA,"","","",NA,"e",1,0.609,NA,NA,NA,NA,NA,"崇高","e","",NA,0,25,25,11,1,"",NA,"",NA,NA,NA,NA,NA,NA,NA,"",NA,"",NA,NA,NA,NA,NA,NA,NA,"","","",NA,"",NA,NA,NA,NA,NA,NA,NA,"",NA,"5"
"",NA,"",NA,"",NA,NA,NA,NA,NA,NA,"","","用户61870",1,"2024-08-23_13h57.34.560","IAT(Formal)","2021.2.3","Win32",58.82352941,NA,"",NA,"",NA,NA,NA,NA,NA,NA,NA,"","","",NA,"i",1,0.7163,NA,NA,NA,NA,NA,"自卑","i","",NA,0,26,26,36,1,"",NA,"",NA,NA,NA,NA,NA,NA,NA,"",NA,"",NA,NA,NA,NA,NA,NA,NA,"","","",NA,"",NA,NA,NA,NA,NA,NA,NA,"",NA,"5"
"",NA,"",NA,"",NA,NA,NA,NA,NA,NA,"","","用户61870",1,"2024-08-23_13h57.34.560","IAT(Formal)","2021.2.3","Win32",58.82352941,NA,"",NA,"",NA,NA,NA,NA,NA,NA,NA,"","","",NA,"i",1,1.1137,NA,NA,NA,NA,NA,"其他","i","",NA,0,27,27,69,1,"",NA,"",NA,NA,NA,NA,NA,NA,NA,"",NA,"",NA,NA,NA,NA,NA,NA,NA,"","","",NA,"",NA,NA,NA,NA,NA,NA,NA,"",NA,"5"
"",NA,"",NA,"",NA,NA,NA,NA,NA,NA,"","","用户61870",1,"2024-08-23_13h57.34.560","IAT(Formal)","2021.2.3","Win32",58.82352941,NA,"",NA,"",NA,NA,NA,NA,NA,NA,NA,"","","",NA,"e",1,1.2991,NA,NA,NA,NA,NA,"俺","e","",NA,0,28,28,4,1,"",NA,"",NA,NA,NA,NA,NA,NA,NA,"",NA,"",NA,NA,NA,NA,NA,NA,NA,"","","",NA,"",NA,NA,NA,NA,NA,NA,NA,"",NA,"5"
"",NA,"",NA,"",NA,NA,NA,NA,NA,NA,"","","用户61870",1,"2024-08-23_13h57.34.560","IAT(Formal)","2021.2.3","Win32",58.82352941,NA,"",NA,"",NA,NA,NA,NA,NA,NA,NA,"","","",NA,"i",1,0.653,NA,NA,NA,NA,NA,"他的","i","",NA,0,29,29,57,1,"",NA,"",NA,NA,NA,NA,NA,NA,NA,"",NA,"",NA,NA,NA,NA,NA,NA,NA,"","","",NA,"",NA,NA,NA,NA,NA,NA,NA,"",NA,"5"
"",NA,"",NA,"",NA,NA,NA,NA,NA,NA,"","","用户61870",1,"2024-08-23_13h57.34.560","IAT(Formal)","2021.2.3","Win32",58.82352941,NA,"",NA,"",NA,NA,NA,NA,NA,NA,NA,"","","",NA,"",0,NA,NA,NA,NA,NA,NA,"我","e","",NA,0,30,30,70,1,"",NA,"",NA,NA,NA,NA,NA,NA,NA,"",NA,"",NA,NA,NA,NA,NA,NA,NA,"","","",NA,"",NA,NA,NA,NA,NA,NA,NA,"",NA,"5"
"",NA,"",NA,"",NA,NA,NA,NA,NA,NA,"","","用户61870",1,"2024-08-23_13h57.34.560","IAT(Formal)","2021.2.3","Win32",58.82352941,NA,"",NA,"",NA,NA,NA,NA,NA,NA,NA,"","","",NA,"e",1,0.5636,NA,NA,NA,NA,NA,"活泼","e","",NA,0,31,31,28,1,"",NA,"",NA,NA,NA,NA,NA,NA,NA,"",NA,"",NA,NA,NA,NA,NA,NA,NA,"","","",NA,"",NA,NA,NA,NA,NA,NA,NA,"",NA,"5"
"",NA,"",NA,"",NA,NA,NA,NA,NA,NA,"","","用户61870",1,"2024-08-23_13h57.34.560","IAT(Formal)","2021.2.3","Win32",58.82352941,NA,"",NA,"",NA,NA,NA,NA,NA,NA,NA,"","","",NA,"e",1,0.7486,NA,NA,NA,NA,NA,"机智","e","",NA,0,32,32,19,1,"",NA,"",NA,NA,NA,NA,NA,NA,NA,"",NA,"",NA,NA,NA,NA,NA,NA,NA,"","","",NA,"",NA,NA,NA,NA,NA,NA,NA,"",NA,"5"
"",NA,"",NA,"",NA,NA,NA,NA,NA,NA,"","","用户61870",1,"2024-08-23_13h57.34.560","IAT(Formal)","2021.2.3","Win32",58.82352941,NA,"",NA,"",NA,NA,NA,NA,NA,NA,NA,"","","",NA,"e",1,0.8842,NA,NA,NA,NA,NA,"热情","e","",NA,0,33,33,27,1,"",NA,"",NA,NA,NA,NA,NA,NA,NA,"",NA,"",NA,NA,NA,NA,NA,NA,NA,"","","",NA,"",NA,NA,NA,NA,NA,NA,NA,"",NA,"5"
"",NA,"",NA,"",NA,NA,NA,NA,NA,NA,"","","用户61870",1,"2024-08-23_13h57.34.560","IAT(Formal)","2021.2.3","Win32",58.82352941,NA,"",NA,"",NA,NA,NA,NA,NA,NA,NA,"","","",NA,"e",0,0.8918,NA,NA,NA,NA,NA,"轻率","i","",NA,0,34,34,48,1,"",NA,"",NA,NA,NA,NA,NA,NA,NA,"",NA,"",NA,NA,NA,NA,NA,NA,NA,"","","",NA,"",NA,NA,NA,NA,NA,NA,NA,"",NA,"5"
"",NA,"",NA,"",NA,NA,NA,NA,NA,NA,"","","用户61870",1,"2024-08-23_13h57.34.560","IAT(Formal)","2021.2.3","Win32",58.82352941,NA,"",NA,"",NA,NA,NA,NA,NA,NA,NA,"","","",NA,"",0,NA,NA,NA,NA,NA,NA,"他们","i","",NA,0,35,35,6,1,"",NA,"",NA,NA,NA,NA,NA,NA,NA,"",NA,"",NA,NA,NA,NA,NA,NA,NA,"","","",NA,"",NA,NA,NA,NA,NA,NA,NA,"",NA,"5"
"",NA,"",NA,"",NA,NA,NA,NA,NA,NA,"","","用户61870",1,"2024-08-23_13h57.34.560","IAT(Formal)","2021.2.3","Win32",58.82352941,NA,"",NA,"",NA,NA,NA,NA,NA,NA,NA,"","","",NA,"i",1,0.5792,NA,NA,NA,NA,NA,"凶狠","i","",NA,0,36,36,42,1,"",NA,"",NA,NA,NA,NA,NA,NA,NA,"",NA,"",NA,NA,NA,NA,NA,NA,NA,"","","",NA,"",NA,NA,NA,NA,NA,NA,NA,"",NA,"5"
"",NA,"",NA,"",NA,NA,NA,NA,NA,NA,"","","用户61870",1,"2024-08-23_13h57.34.560","IAT(Formal)","2021.2.3","Win32",58.82352941,NA,"",NA,"",NA,NA,NA,NA,NA,NA,NA,"","","",NA,"e",1,1.3835,NA,NA,NA,NA,NA,"我的","e","",NA,0,37,37,51,1,"",NA,"",NA,NA,NA,NA,NA,NA,NA,"",NA,"",NA,NA,NA,NA,NA,NA,NA,"","","",NA,"",NA,NA,NA,NA,NA,NA,NA,"",NA,"5"
"",NA,"",NA,"",NA,NA,NA,NA,NA,NA,"","","用户61870",1,"2024-08-23_13h57.34.560","IAT(Formal)","2021.2.3","Win32",58.82352941,NA,"",NA,"",NA,NA,NA,NA,NA,NA,NA,"","","",NA,"e",1,0.8092,NA,NA,NA,NA,NA,"我","e","",NA,0,38,38,60,1,"",NA,"",NA,NA,NA,NA,NA,NA,NA,"",NA,"",NA,NA,NA,NA,NA,NA,NA,"","","",NA,"",NA,NA,NA,NA,NA,NA,NA,"",NA,"5"
"",NA,"",NA,"",NA,NA,NA,NA,NA,NA,"","","用户61870",1,"2024-08-23_13h57.34.560","IAT(Formal)","2021.2.3","Win32",58.82352941,NA,"",NA,"",NA,NA,NA,NA,NA,NA,NA,"","","",NA,"i",1,0.6697,NA,NA,NA,NA,NA,"自私","i","",NA,0,39,39,43,1,"",NA,"",NA,NA,NA,NA,NA,NA,NA,"",NA,"",NA,NA,NA,NA,NA,NA,NA,"","","",NA,"",NA,NA,NA,NA,NA,NA,NA,"",NA,"5"
"",NA,"",NA,"",NA,NA,NA,NA,NA,NA,"","","用户61870",1,"2024-08-23_13h57.34.560","IAT(Formal)","2021.2.3","Win32",58.82352941,NA,"",NA,"",NA,NA,NA,NA,NA,NA,NA,"","","",NA,"e",0,0.4495,NA,NA,NA,NA,NA,"他","i","",NA,0,40,40,65,1,"",NA,"",NA,NA,NA,NA,NA,NA,NA,"",NA,"",NA,NA,NA,NA,NA,NA,NA,"","","",NA,"",NA,NA,NA,NA,NA,NA,NA,"",NA,"5"
"",NA,"",NA,"",NA,NA,NA,NA,NA,NA,"","","用户61870",1,"2024-08-23_13h57.34.560","IAT(Formal)","2021.2.3","Win32",58.82352941,NA,"",NA,"",NA,NA,NA,NA,NA,NA,NA,"","","",NA,"e",1,0.5163,NA,NA,NA,NA,NA,"我","e","",NA,0,41,41,0,1,"",NA,"",NA,NA,NA,NA,NA,NA,NA,"",NA,"",NA,NA,NA,NA,NA,NA,NA,"","","",NA,"",NA,NA,NA,NA,NA,NA,NA,"",NA,"5"
"",NA,"",NA,"",NA,NA,NA,NA,NA,NA,"","","用户61870",1,"2024-08-23_13h57.34.560","IAT(Formal)","2021.2.3","Win32",58.82352941,NA,"",NA,"",NA,NA,NA,NA,NA,NA,NA,"","","",NA,"i",1,0.5497,NA,NA,NA,NA,NA,"他人","i","",NA,0,42,42,68,1,"",NA,"",NA,NA,NA,NA,NA,NA,NA,"",NA,"",NA,NA,NA,NA,NA,NA,NA,"","","",NA,"",NA,NA,NA,NA,NA,NA,NA,"",NA,"5"
"",NA,"",NA,"",NA,NA,NA,NA,NA,NA,"","","用户61870",1,"2024-08-23_13h57.34.560","IAT(Formal)","2021.2.3","Win32",58.82352941,NA,"",NA,"",NA,NA,NA,NA,NA,NA,NA,"","","",NA,"e",0,0.4468,NA,NA,NA,NA,NA,"他们","i","",NA,0,43,43,66,1,"",NA,"",NA,NA,NA,NA,NA,NA,NA,"",NA,"",NA,NA,NA,NA,NA,NA,NA,"","","",NA,"",NA,NA,NA,NA,NA,NA,NA,"",NA,"5"
"",NA,"",NA,"",NA,NA,NA,NA,NA,NA,"","","用户61870",1,"2024-08-23_13h57.34.560","IAT(Formal)","2021.2.3","Win32",58.82352941,NA,"",NA,"",NA,NA,NA,NA,NA,NA,NA,"","","",NA,"i",0,0.8235,NA,NA,NA,NA,NA,"勤奋","e","",NA,0,44,44,18,1,"",NA,"",NA,NA,NA,NA,NA,NA,NA,"",NA,"",NA,NA,NA,NA,NA,NA,NA,"","","",NA,"",NA,NA,NA,NA,NA,NA,NA,"",NA,"5"
"",NA,"",NA,"",NA,NA,NA,NA,NA,NA,"","","用户61870",1,"2024-08-23_13h57.34.560","IAT(Formal)","2021.2.3","Win32",58.82352941,NA,"",NA,"",NA,NA,NA,NA,NA,NA,NA,"","","",NA,"e",1,0.4767,NA,NA,NA,NA,NA,"诚恳","e","",NA,0,45,45,29,1,"",NA,"",NA,NA,NA,NA,NA,NA,NA,"",NA,"",NA,NA,NA,NA,NA,NA,NA,"","","",NA,"",NA,NA,NA,NA,NA,NA,NA,"",NA,"5"
"",NA,"",NA,"",NA,NA,NA,NA,NA,NA,"","","用户61870",1,"2024-08-23_13h57.34.560","IAT(Formal)","2021.2.3","Win32",58.82352941,NA,"",NA,"",NA,NA,NA,NA,NA,NA,NA,"","","",NA,"e",1,0.4025,NA,NA,NA,NA,NA,"无私","e","",NA,0,46,46,22,1,"",NA,"",NA,NA,NA,NA,NA,NA,NA,"",NA,"",NA,NA,NA,NA,NA,NA,NA,"","","",NA,"",NA,NA,NA,NA,NA,NA,NA,"",NA,"5"
"",NA,"",NA,"",NA,NA,NA,NA,NA,NA,"","","用户61870",1,"2024-08-23_13h57.34.560","IAT(Formal)","2021.2.3","Win32",58.82352941,NA,"",NA,"",NA,NA,NA,NA,NA,NA,NA,"","","",NA,"e",0,0.7926,NA,NA,NA,NA,NA,"他们","i","",NA,0,47,47,56,1,"",NA,"",NA,NA,NA,NA,NA,NA,NA,"",NA,"",NA,NA,NA,NA,NA,NA,NA,"","","",NA,"",NA,NA,NA,NA,NA,NA,NA,"",NA,"5"
"",NA,"",NA,"",NA,NA,NA,NA,NA,NA,"","","用户61870",1,"2024-08-23_13h57.34.560","IAT(Formal)","2021.2.3","Win32",58.82352941,NA,"",NA,"",NA,NA,NA,NA,NA,NA,NA,"","","",NA,"i",1,0.6957,NA,NA,NA,NA,NA,"他人","i","",NA,0,48,48,78,1,"",NA,"",NA,NA,NA,NA,NA,NA,NA,"",NA,"",NA,NA,NA,NA,NA,NA,NA,"","","",NA,"",NA,NA,NA,NA,NA,NA,NA,"",NA,"5"
"",NA,"",NA,"",NA,NA,NA,NA,NA,NA,"","","用户61870",1,"2024-08-23_13h57.34.560","IAT(Formal)","2021.2.3","Win32",58.82352941,NA,"",NA,"",NA,NA,NA,NA,NA,NA,NA,"","","",NA,"e",1,0.5627,NA,NA,NA,NA,NA,"俺","e","",NA,0,49,49,64,1,"",NA,"",NA,NA,NA,NA,NA,NA,NA,"",NA,"",NA,NA,NA,NA,NA,NA,NA,"","","",NA,"",NA,NA,NA,NA,NA,NA,NA,"",NA,"5"
"",NA,"",NA,"",NA,NA,NA,NA,NA,NA,"","","用户61870",1,"2024-08-23_13h57.34.560","IAT(Formal)","2021.2.3","Win32",58.82352941,NA,"",NA,"",NA,NA,NA,NA,NA,NA,NA,"","","",NA,"e",1,0.5185,NA,NA,NA,NA,NA,"杰出","e","",NA,0,50,50,13,1,"",NA,"",NA,NA,NA,NA,NA,NA,NA,"",NA,"",NA,NA,NA,NA,NA,NA,NA,"","","",NA,"",NA,NA,NA,NA,NA,NA,NA,"",NA,"5"
"",NA,"",NA,"",NA,NA,NA,NA,NA,NA,"","","用户61870",1,"2024-08-23_13h57.34.560","IAT(Formal)","2021.2.3","Win32",58.82352941,NA,"",NA,"",NA,NA,NA,NA,NA,NA,NA,"","","",NA,"i",1,0.5627,NA,NA,NA,NA,NA,"他的","i","",NA,0,51,51,77,1,"",NA,"",NA,NA,NA,NA,NA,NA,NA,"",NA,"",NA,NA,NA,NA,NA,NA,NA,"","","",NA,"",NA,NA,NA,NA,NA,NA,NA,"",NA,"5"
"",NA,"",NA,"",NA,NA,NA,NA,NA,NA,"","","用户61870",1,"2024-08-23_13h57.34.560","IAT(Formal)","2021.2.3","Win32",58.82352941,NA,"",NA,"",NA,NA,NA,NA,NA,NA,NA,"","","",NA,"e",1,0.4794,NA,NA,NA,NA,NA,"优秀","e","",NA,0,52,52,10,1,"",NA,"",NA,NA,NA,NA,NA,NA,NA,"",NA,"",NA,NA,NA,NA,NA,NA,NA,"","","",NA,"",NA,NA,NA,NA,NA,NA,NA,"",NA,"5"
"",NA,"",NA,"",NA,NA,NA,NA,NA,NA,"","","用户61870",1,"2024-08-23_13h57.34.560","IAT(Formal)","2021.2.3","Win32",58.82352941,NA,"",NA,"",NA,NA,NA,NA,NA,NA,NA,"","","",NA,"i",1,0.5894,NA,NA,NA,NA,NA,"傲慢","i","",NA,0,53,53,37,1,"",NA,"",NA,NA,NA,NA,NA,NA,NA,"",NA,"",NA,NA,NA,NA,NA,NA,NA,"","","",NA,"",NA,NA,NA,NA,NA,NA,NA,"",NA,"5"
"",NA,"",NA,"",NA,NA,NA,NA,NA,NA,"","","用户61870",1,"2024-08-23_13h57.34.560","IAT(Formal)","2021.2.3","Win32",58.82352941,NA,"",NA,"",NA,NA,NA,NA,NA,NA,NA,"","","",NA,"e",1,0.5135,NA,NA,NA,NA,NA,"我的","e","",NA,0,54,54,1,1,"",NA,"",NA,NA,NA,NA,NA,NA,NA,"",NA,"",NA,NA,NA,NA,NA,NA,NA,"","","",NA,"",NA,NA,NA,NA,NA,NA,NA,"",NA,"5"
"",NA,"",NA,"",NA,NA,NA,NA,NA,NA,"","","用户61870",1,"2024-08-23_13h57.34.560","IAT(Formal)","2021.2.3","Win32",58.82352941,NA,"",NA,"",NA,NA,NA,NA,NA,NA,NA,"","","",NA,"e",1,0.8337,NA,NA,NA,NA,NA,"诚实","e","",NA,0,55,55,15,1,"",NA,"",NA,NA,NA,NA,NA,NA,NA,"",NA,"",NA,NA,NA,NA,NA,NA,NA,"","","",NA,"",NA,NA,NA,NA,NA,NA,NA,"",NA,"5"
"",NA,"",NA,"",NA,NA,NA,NA,NA,NA,"","","用户61870",1,"2024-08-23_13h57.34.560","IAT(Formal)","2021.2.3","Win32",58.82352941,NA,"",NA,"",NA,NA,NA,NA,NA,NA,NA,"","","",NA,"e",1,0.5973,NA,NA,NA,NA,NA,"公正","e","",NA,0,56,56,23,1,"",NA,"",NA,NA,NA,NA,NA,NA,NA,"",NA,"",NA,NA,NA,NA,NA,NA,NA,"","","",NA,"",NA,NA,NA,NA,NA,NA,NA,"",NA,"5"
"",NA,"",NA,"",NA,NA,NA,NA,NA,NA,"","","用户61870",1,"2024-08-23_13h57.34.560","IAT(Formal)","2021.2.3","Win32",58.82352941,NA,"",NA,"",NA,NA,NA,NA,NA,NA,NA,"","","",NA,"e",1,0.6038,NA,NA,NA,NA,NA,"自己","e","",NA,0,57,57,3,1,"",NA,"",NA,NA,NA,NA,NA,NA,NA,"",NA,"",NA,NA,NA,NA,NA,NA,NA,"","","",NA,"",NA,NA,NA,NA,NA,NA,NA,"",NA,"5"
"",NA,"",NA,"",NA,NA,NA,NA,NA,NA,"","","用户61870",1,"2024-08-23_13h57.34.560","IAT(Formal)","2021.2.3","Win32",58.82352941,NA,"",NA,"",NA,NA,NA,NA,NA,NA,NA,"","","",NA,"e",1,0.4208,NA,NA,NA,NA,NA,"稳重","e","",NA,0,58,58,21,1,"",NA,"",NA,NA,NA,NA,NA,NA,NA,"",NA,"",NA,NA,NA,NA,NA,NA,NA,"","","",NA,"",NA,NA,NA,NA,NA,NA,NA,"",NA,"5"
"",NA,"",NA,"",NA,NA,NA,NA,NA,NA,"","","用户61870",1,"2024-08-23_13h57.34.560","IAT(Formal)","2021.2.3","Win32",58.82352941,NA,"",NA,"",NA,NA,NA,NA,NA,NA,NA,"","","",NA,"i",1,0.6992,NA,NA,NA,NA,NA,"刻薄","i","",NA,0,59,59,33,1,"",NA,"",NA,NA,NA,NA,NA,NA,NA,"",NA,"",NA,NA,NA,NA,NA,NA,NA,"","","",NA,"",NA,NA,NA,NA,NA,NA,NA,"",NA,"5"
"",NA,"",NA,"",NA,NA,NA,NA,NA,NA,"","","用户61870",1,"2024-08-23_13h57.34.560","IAT(Formal)","2021.2.3","Win32",58.82352941,NA,"",NA,"",NA,NA,NA,NA,NA,NA,NA,"","","",NA,"e",1,0.9998,NA,NA,NA,NA,NA,"我","e","",NA,0,60,60,50,1,"",NA,"",NA,NA,NA,NA,NA,NA,NA,"",NA,"",NA,NA,NA,NA,NA,NA,NA,"","","",NA,"",NA,NA,NA,NA,NA,NA,NA,"",NA,"5"
"",NA,"",NA,"",NA,NA,NA,NA,NA,NA,"","","用户61870",1,"2024-08-23_13h57.34.560","IAT(Formal)","2021.2.3","Win32",58.82352941,NA,"",NA,"",NA,NA,NA,NA,NA,NA,NA,"","","",NA,"i",1,0.6518,NA,NA,NA,NA,NA,"愚蠢","i","",NA,0,61,61,32,1,"",NA,"",NA,NA,NA,NA,NA,NA,NA,"",NA,"",NA,NA,NA,NA,NA,NA,NA,"","","",NA,"",NA,NA,NA,NA,NA,NA,NA,"",NA,"5"
"",NA,"",NA,"",NA,NA,NA,NA,NA,NA,"","","用户61870",1,"2024-08-23_13h57.34.560","IAT(Formal)","2021.2.3","Win32",58.82352941,NA,"",NA,"",NA,NA,NA,NA,NA,NA,NA,"","","",NA,"e",1,0.7148,NA,NA,NA,NA,NA,"我们","e","",NA,0,62,62,52,1,"",NA,"",NA,NA,NA,NA,NA,NA,NA,"",NA,"",NA,NA,NA,NA,NA,NA,NA,"","","",NA,"",NA,NA,NA,NA,NA,NA,NA,"",NA,"5"
"",NA,"",NA,"",NA,NA,NA,NA,NA,NA,"","","用户61870",1,"2024-08-23_13h57.34.560","IAT(Formal)","2021.2.3","Win32",58.82352941,NA,"",NA,"",NA,NA,NA,NA,NA,NA,NA,"","","",NA,"i",1,0.6699,NA,NA,NA,NA,NA,"冒失","i","",NA,0,63,63,39,1,"",NA,"",NA,NA,NA,NA,NA,NA,NA,"",NA,"",NA,NA,NA,NA,NA,NA,NA,"","","",NA,"",NA,NA,NA,NA,NA,NA,NA,"",NA,"5"
"",NA,"",NA,"",NA,NA,NA,NA,NA,NA,"","","用户61870",1,"2024-08-23_13h57.34.560","IAT(Formal)","2021.2.3","Win32",58.82352941,NA,"",NA,"",NA,NA,NA,NA,NA,NA,NA,"","","",NA,"i",1,0.8056,NA,NA,NA,NA,NA,"其他","i","",NA,0,64,64,9,1,"",NA,"",NA,NA,NA,NA,NA,NA,NA,"",NA,"",NA,NA,NA,NA,NA,NA,NA,"","","",NA,"",NA,NA,NA,NA,NA,NA,NA,"",NA,"5"
"",NA,"",NA,"",NA,NA,NA,NA,NA,NA,"","","用户61870",1,"2024-08-23_13h57.34.560","IAT(Formal)","2021.2.3","Win32",58.82352941,NA,"",NA,"",NA,NA,NA,NA,NA,NA,NA,"","","",NA,"e",1,1.1515,NA,NA,NA,NA,NA,"细腻","e","",NA,0,65,65,25,1,"",NA,"",NA,NA,NA,NA,NA,NA,NA,"",NA,"",NA,NA,NA,NA,NA,NA,NA,"","","",NA,"",NA,NA,NA,NA,NA,NA,NA,"",NA,"5"
"",NA,"",NA,"",NA,NA,NA,NA,NA,NA,"","","用户61870",1,"2024-08-23_13h57.34.560","IAT(Formal)","2021.2.3","Win32",58.82352941,NA,"",NA,"",NA,NA,NA,NA,NA,NA,NA,"","","",NA,"i",1,0.9501,NA,NA,NA,NA,NA,"他人","i","",NA,0,66,66,8,1,"",NA,"",NA,NA,NA,NA,NA,NA,NA,"",NA,"",NA,NA,NA,NA,NA,NA,NA,"","","",NA,"",NA,NA,NA,NA,NA,NA,NA,"",NA,"5"
"",NA,"",NA,"",NA,NA,NA,NA,NA,NA,"","","用户61870",1,"2024-08-23_13h57.34.560","IAT(Formal)","2021.2.3","Win32",58.82352941,NA,"",NA,"",NA,NA,NA,NA,NA,NA,NA,"","","",NA,"e",1,0.72,NA,NA,NA,NA,NA,"自己","e","",NA,0,67,67,63,1,"",NA,"",NA,NA,NA,NA,NA,NA,NA,"",NA,"",NA,NA,NA,NA,NA,NA,NA,"","","",NA,"",NA,NA,NA,NA,NA,NA,NA,"",NA,"5"
"",NA,"",NA,"",NA,NA,NA,NA,NA,NA,"","","用户61870",1,"2024-08-23_13h57.34.560","IAT(Formal)","2021.2.3","Win32",58.82352941,NA,"",NA,"",NA,NA,NA,NA,NA,NA,NA,"","","",NA,"",0,NA,NA,NA,NA,NA,NA,"悲观","i","",NA,0,68,68,34,1,"",NA,"",NA,NA,NA,NA,NA,NA,NA,"",NA,"",NA,NA,NA,NA,NA,NA,NA,"","","",NA,"",NA,NA,NA,NA,NA,NA,NA,"",NA,"5"
"",NA,"",NA,"",NA,NA,NA,NA,NA,NA,"","","用户61870",1,"2024-08-23_13h57.34.560","IAT(Formal)","2021.2.3","Win32",58.82352941,NA,"",NA,"",NA,NA,NA,NA,NA,NA,NA,"","","",NA,"e",1,0.6655,NA,NA,NA,NA,NA,"自己","e","",NA,0,69,69,73,1,"",NA,"",NA,NA,NA,NA,NA,NA,NA,"",NA,"",NA,NA,NA,NA,NA,NA,NA,"","","",NA,"",NA,NA,NA,NA,NA,NA,NA,"",NA,"5"
"",NA,"",NA,"",NA,NA,NA,NA,NA,NA,"","","用户61870",1,"2024-08-23_13h57.34.560","IAT(Formal)","2021.2.3","Win32",58.82352941,NA,"",NA,"",NA,NA,NA,NA,NA,NA,NA,"","","",NA,"e",1,1.4172,NA,NA,NA,NA,NA,"我的","e","",NA,0,70,70,61,1,"",NA,"",NA,NA,NA,NA,NA,NA,NA,"",NA,"",NA,NA,NA,NA,NA,NA,NA,"","","",NA,"",NA,NA,NA,NA,NA,NA,NA,"",NA,"5"
"",NA,"",NA,"",NA,NA,NA,NA,NA,NA,"","","用户61870",1,"2024-08-23_13h57.34.560","IAT(Formal)","2021.2.3","Win32",58.82352941,NA,"",NA,"",NA,NA,NA,NA,NA,NA,NA,"","","",NA,"e",1,0.7047,NA,NA,NA,NA,NA,"乐观","e","",NA,0,71,71,14,1,"",NA,"",NA,NA,NA,NA,NA,NA,NA,"",NA,"",NA,NA,NA,NA,NA,NA,NA,"","","",NA,"",NA,NA,NA,NA,NA,NA,NA,"",NA,"5"
"",NA,"",NA,"",NA,NA,NA,NA,NA,NA,"","","用户61870",1,"2024-08-23_13h57.34.560","IAT(Formal)","2021.2.3","Win32",58.82352941,NA,"",NA,"",NA,NA,NA,NA,NA,NA,NA,"","","",NA,"i",1,0.5712,NA,NA,NA,NA,NA,"鲁莽","i","",NA,0,72,72,38,1,"",NA,"",NA,NA,NA,NA,NA,NA,NA,"",NA,"",NA,NA,NA,NA,NA,NA,NA,"","","",NA,"",NA,NA,NA,NA,NA,NA,NA,"",NA,"5"
"",NA,"",NA,"",NA,NA,NA,NA,NA,NA,"","","用户61870",1,"2024-08-23_13h57.34.560","IAT(Formal)","2021.2.3","Win32",58.82352941,NA,"",NA,"",NA,NA,NA,NA,NA,NA,NA,"","","",NA,"i",1,0.5593,NA,NA,NA,NA,NA,"下贱","i","",NA,0,73,73,49,1,"",NA,"",NA,NA,NA,NA,NA,NA,NA,"",NA,"",NA,NA,NA,NA,NA,NA,NA,"","","",NA,"",NA,NA,NA,NA,NA,NA,NA,"",NA,"5"
"",NA,"",NA,"",NA,NA,NA,NA,NA,NA,"","","用户61870",1,"2024-08-23_13h57.34.560","IAT(Formal)","2021.2.3","Win32",58.82352941,NA,"",NA,"",NA,NA,NA,NA,NA,NA,NA,"","","",NA,"i",0,0.751,NA,NA,NA,NA,NA,"俺","e","",NA,0,74,74,74,1,"",NA,"",NA,NA,NA,NA,NA,NA,NA,"",NA,"",NA,NA,NA,NA,NA,NA,NA,"","","",NA,"",NA,NA,NA,NA,NA,NA,NA,"",NA,"5"
"",NA,"",NA,"",NA,NA,NA,NA,NA,NA,"","","用户61870",1,"2024-08-23_13h57.34.560","IAT(Formal)","2021.2.3","Win32",58.82352941,NA,"",NA,"",NA,NA,NA,NA,NA,NA,NA,"","","",NA,"i",1,0.5216,NA,NA,NA,NA,NA,"他","i","",NA,0,75,75,75,1,"",NA,"",NA,NA,NA,NA,NA,NA,NA,"",NA,"",NA,NA,NA,NA,NA,NA,NA,"","","",NA,"",NA,NA,NA,NA,NA,NA,NA,"",NA,"5"
"",NA,"",NA,"",NA,NA,NA,NA,NA,NA,"","","用户61870",1,"2024-08-23_13h57.34.560","IAT(Formal)","2021.2.3","Win32",58.82352941,NA,"",NA,"",NA,NA,NA,NA,NA,NA,NA,"","","",NA,"e",1,0.4665,NA,NA,NA,NA,NA,"正直","e","",NA,0,76,76,16,1,"",NA,"",NA,NA,NA,NA,NA,NA,NA,"",NA,"",NA,NA,NA,NA,NA,NA,NA,"","","",NA,"",NA,NA,NA,NA,NA,NA,NA,"",NA,"5"
"",NA,"",NA,"",NA,NA,NA,NA,NA,NA,"","","用户61870",1,"2024-08-23_13h57.34.560","IAT(Formal)","2021.2.3","Win32",58.82352941,NA,"",NA,"",NA,NA,NA,NA,NA,NA,NA,"","","",NA,"i",1,0.5832,NA,NA,NA,NA,NA,"他","i","",NA,0,77,77,55,1,"",NA,"",NA,NA,NA,NA,NA,NA,NA,"",NA,"",NA,NA,NA,NA,NA,NA,NA,"","","",NA,"",NA,NA,NA,NA,NA,NA,NA,"",NA,"5"
"",NA,"",NA,"",NA,NA,NA,NA,NA,NA,"","","用户61870",1,"2024-08-23_13h57.34.560","IAT(Formal)","2021.2.3","Win32",58.82352941,NA,"",NA,"",NA,NA,NA,NA,NA,NA,NA,"","","",NA,"i",1,0.7994,NA,NA,NA,NA,NA,"固执","i","",NA,0,78,78,47,1,"",NA,"",NA,NA,NA,NA,NA,NA,NA,"",NA,"",NA,NA,NA,NA,NA,NA,NA,"","","",NA,"",NA,NA,NA,NA,NA,NA,NA,"",NA,"5"
"",NA,"",NA,"",NA,NA,NA,NA,NA,NA,"","","用户61870",1,"2024-08-23_13h57.34.560","IAT(Formal)","2021.2.3","Win32",58.82352941,NA,"",NA,"",NA,NA,NA,NA,NA,NA,NA,"","","",NA,"i",1,0.5899,NA,NA,NA,NA,NA,"散漫","i","",NA,0,79,79,41,1,"",NA,"",NA,NA,NA,NA,NA,NA,NA,"",NA,"",NA,NA,NA,NA,NA,NA,NA,"","","",NA,"",NA,NA,NA,NA,NA,NA,NA,"",NA,"5"
"",NA,"",NA,"",NA,NA,NA,NA,NA,NA,"","","用户61870",1,"2024-08-23_13h57.34.560","IAT(Formal)","2021.2.3","Win32",58.82352941,NA,"",NA,"",NA,NA,NA,NA,NA,NA,NA,"","","",NA,"i",1,0.6389,NA,NA,NA,NA,NA,"凶狠","i","",NA,1,0,80,42,1,"",NA,"",NA,NA,NA,NA,NA,NA,NA,"",NA,"",NA,NA,NA,NA,NA,NA,NA,"","","",NA,"",NA,NA,NA,NA,NA,NA,NA,"",NA,"5"
"",NA,"",NA,"",NA,NA,NA,NA,NA,NA,"","","用户61870",1,"2024-08-23_13h57.34.560","IAT(Formal)","2021.2.3","Win32",58.82352941,NA,"",NA,"",NA,NA,NA,NA,NA,NA,NA,"","","",NA,"i",1,0.6536,NA,NA,NA,NA,NA,"自私","i","",NA,1,1,81,43,1,"",NA,"",NA,NA,NA,NA,NA,NA,NA,"",NA,"",NA,NA,NA,NA,NA,NA,NA,"","","",NA,"",NA,NA,NA,NA,NA,NA,NA,"",NA,"5"
"",NA,"",NA,"",NA,NA,NA,NA,NA,NA,"","","用户61870",1,"2024-08-23_13h57.34.560","IAT(Formal)","2021.2.3","Win32",58.82352941,NA,"",NA,"",NA,NA,NA,NA,NA,NA,NA,"","","",NA,"e",1,0.563,NA,NA,NA,NA,NA,"认真","e","",NA,1,2,82,20,1,"",NA,"",NA,NA,NA,NA,NA,NA,NA,"",NA,"",NA,NA,NA,NA,NA,NA,NA,"","","",NA,"",NA,NA,NA,NA,NA,NA,NA,"",NA,"5"
"",NA,"",NA,"",NA,NA,NA,NA,NA,NA,"","","用户61870",1,"2024-08-23_13h57.34.560","IAT(Formal)","2021.2.3","Win32",58.82352941,NA,"",NA,"",NA,NA,NA,NA,NA,NA,NA,"","","",NA,"e",1,0.8366,NA,NA,NA,NA,NA,"我们","e","",NA,1,3,83,52,1,"",NA,"",NA,NA,NA,NA,NA,NA,NA,"",NA,"",NA,NA,NA,NA,NA,NA,NA,"","","",NA,"",NA,NA,NA,NA,NA,NA,NA,"",NA,"5"
"",NA,"",NA,"",NA,NA,NA,NA,NA,NA,"","","用户61870",1,"2024-08-23_13h57.34.560","IAT(Formal)","2021.2.3","Win32",58.82352941,NA,"",NA,"",NA,NA,NA,NA,NA,NA,NA,"","","",NA,"i",0,0.9013,NA,NA,NA,NA,NA,"俺","e","",NA,1,4,84,4,1,"",NA,"",NA,NA,NA,NA,NA,NA,NA,"",NA,"",NA,NA,NA,NA,NA,NA,NA,"","","",NA,"",NA,NA,NA,NA,NA,NA,NA,"",NA,"5"
"",NA,"",NA,"",NA,NA,NA,NA,NA,NA,"","","用户61870",1,"2024-08-23_13h57.34.560","IAT(Formal)","2021.2.3","Win32",58.82352941,NA,"",NA,"",NA,NA,NA,NA,NA,NA,NA,"","","",NA,"i",1,0.7255,NA,NA,NA,NA,NA,"愚蠢","i","",NA,1,5,85,32,1,"",NA,"",NA,NA,NA,NA,NA,NA,NA,"",NA,"",NA,NA,NA,NA,NA,NA,NA,"","","",NA,"",NA,NA,NA,NA,NA,NA,NA,"",NA,"5"
"",NA,"",NA,"",NA,NA,NA,NA,NA,NA,"","","用户61870",1,"2024-08-23_13h57.34.560","IAT(Formal)","2021.2.3","Win32",58.82352941,NA,"",NA,"",NA,NA,NA,NA,NA,NA,NA,"","","",NA,"e",0,0.6642,NA,NA,NA,NA,NA,"他的","i","",NA,1,6,86,77,1,"",NA,"",NA,NA,NA,NA,NA,NA,NA,"",NA,"",NA,NA,NA,NA,NA,NA,NA,"","","",NA,"",NA,NA,NA,NA,NA,NA,NA,"",NA,"5"
"",NA,"",NA,"",NA,NA,NA,NA,NA,NA,"","","用户61870",1,"2024-08-23_13h57.34.560","IAT(Formal)","2021.2.3","Win32",58.82352941,NA,"",NA,"",NA,NA,NA,NA,NA,NA,NA,"","","",NA,"e",1,0.4338,NA,NA,NA,NA,NA,"我的","e","",NA,1,7,87,51,1,"",NA,"",NA,NA,NA,NA,NA,NA,NA,"",NA,"",NA,NA,NA,NA,NA,NA,NA,"","","",NA,"",NA,NA,NA,NA,NA,NA,NA,"",NA,"5"
"",NA,"",NA,"",NA,NA,NA,NA,NA,NA,"","","用户61870",1,"2024-08-23_13h57.34.560","IAT(Formal)","2021.2.3","Win32",58.82352941,NA,"",NA,"",NA,NA,NA,NA,NA,NA,NA,"","","",NA,"i",1,0.6919,NA,NA,NA,NA,NA,"卑鄙","i","",NA,1,8,88,30,1,"",NA,"",NA,NA,NA,NA,NA,NA,NA,"",NA,"",NA,NA,NA,NA,NA,NA,NA,"","","",NA,"",NA,NA,NA,NA,NA,NA,NA,"",NA,"5"
"",NA,"",NA,"",NA,NA,NA,NA,NA,NA,"","","用户61870",1,"2024-08-23_13h57.34.560","IAT(Formal)","2021.2.3","Win32",58.82352941,NA,"",NA,"",NA,NA,NA,NA,NA,NA,NA,"","","",NA,"i",1,0.936,NA,NA,NA,NA,NA,"他人","i","",NA,1,9,89,58,1,"",NA,"",NA,NA,NA,NA,NA,NA,NA,"",NA,"",NA,NA,NA,NA,NA,NA,NA,"","","",NA,"",NA,NA,NA,NA,NA,NA,NA,"",NA,"5"
"",NA,"",NA,"",NA,NA,NA,NA,NA,NA,"","","用户61870",1,"2024-08-23_13h57.34.560","IAT(Formal)","2021.2.3","Win32",58.82352941,NA,"",NA,"",NA,NA,NA,NA,NA,NA,NA,"","","",NA,"e",1,0.8968,NA,NA,NA,NA,NA,"自己","e","",NA,1,10,90,73,1,"",NA,"",NA,NA,NA,NA,NA,NA,NA,"",NA,"",NA,NA,NA,NA,NA,NA,NA,"","","",NA,"",NA,NA,NA,NA,NA,NA,NA,"",NA,"5"
"",NA,"",NA,"",NA,NA,NA,NA,NA,NA,"","","用户61870",1,"2024-08-23_13h57.34.560","IAT(Formal)","2021.2.3","Win32",58.82352941,NA,"",NA,"",NA,NA,NA,NA,NA,NA,NA,"","","",NA,"i",1,0.4919,NA,NA,NA,NA,NA,"他","i","",NA,1,11,91,5,1,"",NA,"",NA,NA,NA,NA,NA,NA,NA,"",NA,"",NA,NA,NA,NA,NA,NA,NA,"","","",NA,"",NA,NA,NA,NA,NA,NA,NA,"",NA,"5"
"",NA,"",NA,"",NA,NA,NA,NA,NA,NA,"","","用户61870",1,"2024-08-23_13h57.34.560","IAT(Formal)","2021.2.3","Win32",58.82352941,NA,"",NA,"",NA,NA,NA,NA,NA,NA,NA,"","","",NA,"e",1,0.5484,NA,NA,NA,NA,NA,"我的","e","",NA,1,12,92,61,1,"",NA,"",NA,NA,NA,NA,NA,NA,NA,"",NA,"",NA,NA,NA,NA,NA,NA,NA,"","","",NA,"",NA,NA,NA,NA,NA,NA,NA,"",NA,"5"
"",NA,"",NA,"",NA,NA,NA,NA,NA,NA,"","","用户61870",1,"2024-08-23_13h57.34.560","IAT(Formal)","2021.2.3","Win32",58.82352941,NA,"",NA,"",NA,NA,NA,NA,NA,NA,NA,"","","",NA,"i",1,0.6492,NA,NA,NA,NA,NA,"他","i","",NA,1,13,93,75,1,"",NA,"",NA,NA,NA,NA,NA,NA,NA,"",NA,"",NA,NA,NA,NA,NA,NA,NA,"","","",NA,"",NA,NA,NA,NA,NA,NA,NA,"",NA,"5"
"",NA,"",NA,"",NA,NA,NA,NA,NA,NA,"","","用户61870",1,"2024-08-23_13h57.34.560","IAT(Formal)","2021.2.3","Win32",58.82352941,NA,"",NA,"",NA,NA,NA,NA,NA,NA,NA,"","","",NA,"e",1,0.8384,NA,NA,NA,NA,NA,"自己","e","",NA,1,14,94,63,1,"",NA,"",NA,NA,NA,NA,NA,NA,NA,"",NA,"",NA,NA,NA,NA,NA,NA,NA,"","","",NA,"",NA,NA,NA,NA,NA,NA,NA,"",NA,"5"
"",NA,"",NA,"",NA,NA,NA,NA,NA,NA,"","","用户61870",1,"2024-08-23_13h57.34.560","IAT(Formal)","2021.2.3","Win32",58.82352941,NA,"",NA,"",NA,NA,NA,NA,NA,NA,NA,"","","",NA,"e",1,1.0592,NA,NA,NA,NA,NA,"勇敢","e","",NA,1,15,95,17,1,"",NA,"",NA,NA,NA,NA,NA,NA,NA,"",NA,"",NA,NA,NA,NA,NA,NA,NA,"","","",NA,"",NA,NA,NA,NA,NA,NA,NA,"",NA,"5"
"",NA,"",NA,"",NA,NA,NA,NA,NA,NA,"","","用户61870",1,"2024-08-23_13h57.34.560","IAT(Formal)","2021.2.3","Win32",58.82352941,NA,"",NA,"",NA,NA,NA,NA,NA,NA,NA,"","","",NA,"i",1,0.7523,NA,NA,NA,NA,NA,"自卑","i","",NA,1,16,96,36,1,"",NA,"",NA,NA,NA,NA,NA,NA,NA,"",NA,"",NA,NA,NA,NA,NA,NA,NA,"","","",NA,"",NA,NA,NA,NA,NA,NA,NA,"",NA,"5"
"",NA,"",NA,"",NA,NA,NA,NA,NA,NA,"","","用户61870",1,"2024-08-23_13h57.34.560","IAT(Formal)","2021.2.3","Win32",58.82352941,NA,"",NA,"",NA,NA,NA,NA,NA,NA,NA,"","","",NA,"i",1,0.7026,NA,NA,NA,NA,NA,"暴躁","i","",NA,1,17,97,44,1,"",NA,"",NA,NA,NA,NA,NA,NA,NA,"",NA,"",NA,NA,NA,NA,NA,NA,NA,"","","",NA,"",NA,NA,NA,NA,NA,NA,NA,"",NA,"5"
"",NA,"",NA,"",NA,NA,NA,NA,NA,NA,"","","用户61870",1,"2024-08-23_13h57.34.560","IAT(Formal)","2021.2.3","Win32",58.82352941,NA,"",NA,"",NA,NA,NA,NA,NA,NA,NA,"","","",NA,"e",1,0.6424,NA,NA,NA,NA,NA,"热情","e","",NA,1,18,98,27,1,"",NA,"",NA,NA,NA,NA,NA,NA,NA,"",NA,"",NA,NA,NA,NA,NA,NA,NA,"","","",NA,"",NA,NA,NA,NA,NA,NA,NA,"",NA,"5"
"",NA,"",NA,"",NA,NA,NA,NA,NA,NA,"","","用户61870",1,"2024-08-23_13h57.34.560","IAT(Formal)","2021.2.3","Win32",58.82352941,NA,"",NA,"",NA,NA,NA,NA,NA,NA,NA,"","","",NA,"i",1,0.5304,NA,NA,NA,NA,NA,"他的","i","",NA,1,19,99,57,1,"",NA,"",NA,NA,NA,NA,NA,NA,NA,"",NA,"",NA,NA,NA,NA,NA,NA,NA,"","","",NA,"",NA,NA,NA,NA,NA,NA,NA,"",NA,"5"
"",NA,"",NA,"",NA,NA,NA,NA,NA,NA,"","","用户61870",1,"2024-08-23_13h57.34.560","IAT(Formal)","2021.2.3","Win32",58.82352941,NA,"",NA,"",NA,NA,NA,NA,NA,NA,NA,"","","",NA,"i",1,0.6028,NA,NA,NA,NA,NA,"野蛮","i","",NA,1,20,100,46,1,"",NA,"",NA,NA,NA,NA,NA,NA,NA,"",NA,"",NA,NA,NA,NA,NA,NA,NA,"","","",NA,"",NA,NA,NA,NA,NA,NA,NA,"",NA,"5"
"",NA,"",NA,"",NA,NA,NA,NA,NA,NA,"","","用户61870",1,"2024-08-23_13h57.34.560","IAT(Formal)","2021.2.3","Win32",58.82352941,NA,"",NA,"",NA,NA,NA,NA,NA,NA,NA,"","","",NA,"e",1,0.5364,NA,NA,NA,NA,NA,"我","e","",NA,1,21,101,70,1,"",NA,"",NA,NA,NA,NA,NA,NA,NA,"",NA,"",NA,NA,NA,NA,NA,NA,NA,"","","",NA,"",NA,NA,NA,NA,NA,NA,NA,"",NA,"5"
"",NA,"",NA,"",NA,NA,NA,NA,NA,NA,"","","用户61870",1,"2024-08-23_13h57.34.560","IAT(Formal)","2021.2.3","Win32",58.82352941,NA,"",NA,"",NA,NA,NA,NA,NA,NA,NA,"","","",NA,"i",1,0.5742,NA,NA,NA,NA,NA,"固执","i","",NA,1,22,102,47,1,"",NA,"",NA,NA,NA,NA,NA,NA,NA,"",NA,"",NA,NA,NA,NA,NA,NA,NA,"","","",NA,"",NA,NA,NA,NA,NA,NA,NA,"",NA,"5"
"",NA,"",NA,"",NA,NA,NA,NA,NA,NA,"","","用户61870",1,"2024-08-23_13h57.34.560","IAT(Formal)","2021.2.3","Win32",58.82352941,NA,"",NA,"",NA,NA,NA,NA,NA,NA,NA,"","","",NA,"i",1,0.64,NA,NA,NA,NA,NA,"虚伪","i","",NA,1,23,103,31,1,"",NA,"",NA,NA,NA,NA,NA,NA,NA,"",NA,"",NA,NA,NA,NA,NA,NA,NA,"","","",NA,"",NA,NA,NA,NA,NA,NA,NA,"",NA,"5"
"",NA,"",NA,"",NA,NA,NA,NA,NA,NA,"","","用户61870",1,"2024-08-23_13h57.34.560","IAT(Formal)","2021.2.3","Win32",58.82352941,NA,"",NA,"",NA,NA,NA,NA,NA,NA,NA,"","","",NA,"i",0,0.604,NA,NA,NA,NA,NA,"冷静","e","",NA,1,24,104,26,1,"",NA,"",NA,NA,NA,NA,NA,NA,NA,"",NA,"",NA,NA,NA,NA,NA,NA,NA,"","","",NA,"",NA,NA,NA,NA,NA,NA,NA,"",NA,"5"
"",NA,"",NA,"",NA,NA,NA,NA,NA,NA,"","","用户61870",1,"2024-08-23_13h57.34.560","IAT(Formal)","2021.2.3","Win32",58.82352941,NA,"",NA,"",NA,NA,NA,NA,NA,NA,NA,"","","",NA,"i",1,0.5822,NA,NA,NA,NA,NA,"刻薄","i","",NA,1,25,105,33,1,"",NA,"",NA,NA,NA,NA,NA,NA,NA,"",NA,"",NA,NA,NA,NA,NA,NA,NA,"","","",NA,"",NA,NA,NA,NA,NA,NA,NA,"",NA,"5"
"",NA,"",NA,"",NA,NA,NA,NA,NA,NA,"","","用户61870",1,"2024-08-23_13h57.34.560","IAT(Formal)","2021.2.3","Win32",58.82352941,NA,"",NA,"",NA,NA,NA,NA,NA,NA,NA,"","","",NA,"e",1,1.0847,NA,NA,NA,NA,NA,"杰出","e","",NA,1,26,106,13,1,"",NA,"",NA,NA,NA,NA,NA,NA,NA,"",NA,"",NA,NA,NA,NA,NA,NA,NA,"","","",NA,"",NA,NA,NA,NA,NA,NA,NA,"",NA,"5"
"",NA,"",NA,"",NA,NA,NA,NA,NA,NA,"","","用户61870",1,"2024-08-23_13h57.34.560","IAT(Formal)","2021.2.3","Win32",58.82352941,NA,"",NA,"",NA,NA,NA,NA,NA,NA,NA,"","","",NA,"e",1,0.8832,NA,NA,NA,NA,NA,"崇高","e","",NA,1,27,107,11,1,"",NA,"",NA,NA,NA,NA,NA,NA,NA,"",NA,"",NA,NA,NA,NA,NA,NA,NA,"","","",NA,"",NA,NA,NA,NA,NA,NA,NA,"",NA,"5"
"",NA,"",NA,"",NA,NA,NA,NA,NA,NA,"","","用户61870",1,"2024-08-23_13h57.34.560","IAT(Formal)","2021.2.3","Win32",58.82352941,NA,"",NA,"",NA,NA,NA,NA,NA,NA,NA,"","","",NA,"i",1,1.1322,NA,NA,NA,NA,NA,"他们","i","",NA,1,28,108,6,1,"",NA,"",NA,NA,NA,NA,NA,NA,NA,"",NA,"",NA,NA,NA,NA,NA,NA,NA,"","","",NA,"",NA,NA,NA,NA,NA,NA,NA,"",NA,"5"
"",NA,"",NA,"",NA,NA,NA,NA,NA,NA,"","","用户61870",1,"2024-08-23_13h57.34.560","IAT(Formal)","2021.2.3","Win32",58.82352941,NA,"",NA,"",NA,NA,NA,NA,NA,NA,NA,"","","",NA,"e",1,0.7691,NA,NA,NA,NA,NA,"我的","e","",NA,1,29,109,1,1,"",NA,"",NA,NA,NA,NA,NA,NA,NA,"",NA,"",NA,NA,NA,NA,NA,NA,NA,"","","",NA,"",NA,NA,NA,NA,NA,NA,NA,"",NA,"5"
"",NA,"",NA,"",NA,NA,NA,NA,NA,NA,"","","用户61870",1,"2024-08-23_13h57.34.560","IAT(Formal)","2021.2.3","Win32",58.82352941,NA,"",NA,"",NA,NA,NA,NA,NA,NA,NA,"","","",NA,"e",1,1.0694,NA,NA,NA,NA,NA,"无私","e","",NA,1,30,110,22,1,"",NA,"",NA,NA,NA,NA,NA,NA,NA,"",NA,"",NA,NA,NA,NA,NA,NA,NA,"","","",NA,"",NA,NA,NA,NA,NA,NA,NA,"",NA,"5"
"",NA,"",NA,"",NA,NA,NA,NA,NA,NA,"","","用户61870",1,"2024-08-23_13h57.34.560","IAT(Formal)","2021.2.3","Win32",58.82352941,NA,"",NA,"",NA,NA,NA,NA,NA,NA,NA,"","","",NA,"i",1,1.0922,NA,NA,NA,NA,NA,"他人","i","",NA,1,31,111,8,1,"",NA,"",NA,NA,NA,NA,NA,NA,NA,"",NA,"",NA,NA,NA,NA,NA,NA,NA,"","","",NA,"",NA,NA,NA,NA,NA,NA,NA,"",NA,"5"
"",NA,"",NA,"",NA,NA,NA,NA,NA,NA,"","","用户61870",1,"2024-08-23_13h57.34.560","IAT(Formal)","2021.2.3","Win32",58.82352941,NA,"",NA,"",NA,NA,NA,NA,NA,NA,NA,"","","",NA,"e",1,0.9015,NA,NA,NA,NA,NA,"俺","e","",NA,1,32,112,54,1,"",NA,"",NA,NA,NA,NA,NA,NA,NA,"",NA,"",NA,NA,NA,NA,NA,NA,NA,"","","",NA,"",NA,NA,NA,NA,NA,NA,NA,"",NA,"5"
"",NA,"",NA,"",NA,NA,NA,NA,NA,NA,"","","用户61870",1,"2024-08-23_13h57.34.560","IAT(Formal)","2021.2.3","Win32",58.82352941,NA,"",NA,"",NA,NA,NA,NA,NA,NA,NA,"","","",NA,"e",0,1.1543,NA,NA,NA,NA,NA,"执拗","i","",NA,1,33,113,40,1,"",NA,"",NA,NA,NA,NA,NA,NA,NA,"",NA,"",NA,NA,NA,NA,NA,NA,NA,"","","",NA,"",NA,NA,NA,NA,NA,NA,NA,"",NA,"5"
"",NA,"",NA,"",NA,NA,NA,NA,NA,NA,"","","用户61870",1,"2024-08-23_13h57.34.560","IAT(Formal)","2021.2.3","Win32",58.82352941,NA,"",NA,"",NA,NA,NA,NA,NA,NA,NA,"","","",NA,"i",1,0.8635,NA,NA,NA,NA,NA,"鲁莽","i","",NA,1,34,114,38,1,"",NA,"",NA,NA,NA,NA,NA,NA,NA,"",NA,"",NA,NA,NA,NA,NA,NA,NA,"","","",NA,"",NA,NA,NA,NA,NA,NA,NA,"",NA,"5"
"",NA,"",NA,"",NA,NA,NA,NA,NA,NA,"","","用户61870",1,"2024-08-23_13h57.34.560","IAT(Formal)","2021.2.3","Win32",58.82352941,NA,"",NA,"",NA,NA,NA,NA,NA,NA,NA,"","","",NA,"i",1,0.6566,NA,NA,NA,NA,NA,"他们","i","",NA,1,35,115,76,1,"",NA,"",NA,NA,NA,NA,NA,NA,NA,"",NA,"",NA,NA,NA,NA,NA,NA,NA,"","","",NA,"",NA,NA,NA,NA,NA,NA,NA,"",NA,"5"
"",NA,"",NA,"",NA,NA,NA,NA,NA,NA,"","","用户61870",1,"2024-08-23_13h57.34.560","IAT(Formal)","2021.2.3","Win32",58.82352941,NA,"",NA,"",NA,NA,NA,NA,NA,NA,NA,"","","",NA,"i",0,0.1658,NA,NA,NA,NA,NA,"聪明","e","",NA,1,36,116,12,1,"",NA,"",NA,NA,NA,NA,NA,NA,NA,"",NA,"",NA,NA,NA,NA,NA,NA,NA,"","","",NA,"",NA,NA,NA,NA,NA,NA,NA,"",NA,"5"
"",NA,"",NA,"",NA,NA,NA,NA,NA,NA,"","","用户61870",1,"2024-08-23_13h57.34.560","IAT(Formal)","2021.2.3","Win32",58.82352941,NA,"",NA,"",NA,NA,NA,NA,NA,NA,NA,"","","",NA,"e",1,0.4922,NA,NA,NA,NA,NA,"机智","e","",NA,1,37,117,19,1,"",NA,"",NA,NA,NA,NA,NA,NA,NA,"",NA,"",NA,NA,NA,NA,NA,NA,NA,"","","",NA,"",NA,NA,NA,NA,NA,NA,NA,"",NA,"5"
"",NA,"",NA,"",NA,NA,NA,NA,NA,NA,"","","用户61870",1,"2024-08-23_13h57.34.560","IAT(Formal)","2021.2.3","Win32",58.82352941,NA,"",NA,"",NA,NA,NA,NA,NA,NA,NA,"","","",NA,"i",1,1.2477,NA,NA,NA,NA,NA,"他的","i","",NA,1,38,118,7,1,"",NA,"",NA,NA,NA,NA,NA,NA,NA,"",NA,"",NA,NA,NA,NA,NA,NA,NA,"","","",NA,"",NA,NA,NA,NA,NA,NA,NA,"",NA,"5"
"",NA,"",NA,"",NA,NA,NA,NA,NA,NA,"","","用户61870",1,"2024-08-23_13h57.34.560","IAT(Formal)","2021.2.3","Win32",58.82352941,NA,"",NA,"",NA,NA,NA,NA,NA,NA,NA,"","","",NA,"e",1,0.7603,NA,NA,NA,NA,NA,"诚恳","e","",NA,1,39,119,29,1,"",NA,"",NA,NA,NA,NA,NA,NA,NA,"",NA,"",NA,NA,NA,NA,NA,NA,NA,"","","",NA,"",NA,NA,NA,NA,NA,NA,NA,"",NA,"5"
"",NA,"",NA,"",NA,NA,NA,NA,NA,NA,"","","用户61870",1,"2024-08-23_13h57.34.560","IAT(Formal)","2021.2.3","Win32",58.82352941,NA,"",NA,"",NA,NA,NA,NA,NA,NA,NA,"","","",NA,"",0,NA,NA,NA,NA,NA,NA,"冒失","i","",NA,1,40,120,39,1,"",NA,"",NA,NA,NA,NA,NA,NA,NA,"",NA,"",NA,NA,NA,NA,NA,NA,NA,"","","",NA,"",NA,NA,NA,NA,NA,NA,NA,"",NA,"5"
"",NA,"",NA,"",NA,NA,NA,NA,NA,NA,"","","用户61870",1,"2024-08-23_13h57.34.560","IAT(Formal)","2021.2.3","Win32",58.82352941,NA,"",NA,"",NA,NA,NA,NA,NA,NA,NA,"","","",NA,"e",1,0.4658,NA,NA,NA,NA,NA,"自己","e","",NA,1,41,121,53,1,"",NA,"",NA,NA,NA,NA,NA,NA,NA,"",NA,"",NA,NA,NA,NA,NA,NA,NA,"","","",NA,"",NA,NA,NA,NA,NA,NA,NA,"",NA,"5"
"",NA,"",NA,"",NA,NA,NA,NA,NA,NA,"","","用户61870",1,"2024-08-23_13h57.34.560","IAT(Formal)","2021.2.3","Win32",58.82352941,NA,"",NA,"",NA,NA,NA,NA,NA,NA,NA,"","","",NA,"e",1,0.5177,NA,NA,NA,NA,NA,"优秀","e","",NA,1,42,122,10,1,"",NA,"",NA,NA,NA,NA,NA,NA,NA,"",NA,"",NA,NA,NA,NA,NA,NA,NA,"","","",NA,"",NA,NA,NA,NA,NA,NA,NA,"",NA,"5"
"",NA,"",NA,"",NA,NA,NA,NA,NA,NA,"","","用户61870",1,"2024-08-23_13h57.34.560","IAT(Formal)","2021.2.3","Win32",58.82352941,NA,"",NA,"",NA,NA,NA,NA,NA,NA,NA,"","","",NA,"i",1,0.9827,NA,NA,NA,NA,NA,"其他","i","",NA,1,43,123,59,1,"",NA,"",NA,NA,NA,NA,NA,NA,NA,"",NA,"",NA,NA,NA,NA,NA,NA,NA,"","","",NA,"",NA,NA,NA,NA,NA,NA,NA,"",NA,"5"
"",NA,"",NA,"",NA,NA,NA,NA,NA,NA,"","","用户61870",1,"2024-08-23_13h57.34.560","IAT(Formal)","2021.2.3","Win32",58.82352941,NA,"",NA,"",NA,NA,NA,NA,NA,NA,NA,"","","",NA,"e",1,0.5323,NA,NA,NA,NA,NA,"公正","e","",NA,1,44,124,23,1,"",NA,"",NA,NA,NA,NA,NA,NA,NA,"",NA,"",NA,NA,NA,NA,NA,NA,NA,"","","",NA,"",NA,NA,NA,NA,NA,NA,NA,"",NA,"5"
"",NA,"",NA,"",NA,NA,NA,NA,NA,NA,"","","用户61870",1,"2024-08-23_13h57.34.560","IAT(Formal)","2021.2.3","Win32",58.82352941,NA,"",NA,"",NA,NA,NA,NA,NA,NA,NA,"","","",NA,"i",1,0.6506,NA,NA,NA,NA,NA,"悲观","i","",NA,1,45,125,34,1,"",NA,"",NA,NA,NA,NA,NA,NA,NA,"",NA,"",NA,NA,NA,NA,NA,NA,NA,"","","",NA,"",NA,NA,NA,NA,NA,NA,NA,"",NA,"5"
"",NA,"",NA,"",NA,NA,NA,NA,NA,NA,"","","用户61870",1,"2024-08-23_13h57.34.560","IAT(Formal)","2021.2.3","Win32",58.82352941,NA,"",NA,"",NA,NA,NA,NA,NA,NA,NA,"","","",NA,"e",1,0.5686,NA,NA,NA,NA,NA,"我","e","",NA,1,46,126,60,1,"",NA,"",NA,NA,NA,NA,NA,NA,NA,"",NA,"",NA,NA,NA,NA,NA,NA,NA,"","","",NA,"",NA,NA,NA,NA,NA,NA,NA,"",NA,"5"
"",NA,"",NA,"",NA,NA,NA,NA,NA,NA,"","","用户61870",1,"2024-08-23_13h57.34.560","IAT(Formal)","2021.2.3","Win32",58.82352941,NA,"",NA,"",NA,NA,NA,NA,NA,NA,NA,"","","",NA,"i",1,0.9672,NA,NA,NA,NA,NA,"傲慢","i","",NA,1,47,127,37,1,"",NA,"",NA,NA,NA,NA,NA,NA,NA,"",NA,"",NA,NA,NA,NA,NA,NA,NA,"","","",NA,"",NA,NA,NA,NA,NA,NA,NA,"",NA,"5"
"",NA,"",NA,"",NA,NA,NA,NA,NA,NA,"","","用户61870",1,"2024-08-23_13h57.34.560","IAT(Formal)","2021.2.3","Win32",58.82352941,NA,"",NA,"",NA,NA,NA,NA,NA,NA,NA,"","","",NA,"e",1,0.7476,NA,NA,NA,NA,NA,"我的","e","",NA,1,48,128,71,1,"",NA,"",NA,NA,NA,NA,NA,NA,NA,"",NA,"",NA,NA,NA,NA,NA,NA,NA,"","","",NA,"",NA,NA,NA,NA,NA,NA,NA,"",NA,"5"
"",NA,"",NA,"",NA,NA,NA,NA,NA,NA,"","","用户61870",1,"2024-08-23_13h57.34.560","IAT(Formal)","2021.2.3","Win32",58.82352941,NA,"",NA,"",NA,NA,NA,NA,NA,NA,NA,"","","",NA,"e",1,1.3808,NA,NA,NA,NA,NA,"俺","e","",NA,1,49,129,64,1,"",NA,"",NA,NA,NA,NA,NA,NA,NA,"",NA,"",NA,NA,NA,NA,NA,NA,NA,"","","",NA,"",NA,NA,NA,NA,NA,NA,NA,"",NA,"5"
"",NA,"",NA,"",NA,NA,NA,NA,NA,NA,"","","用户61870",1,"2024-08-23_13h57.34.560","IAT(Formal)","2021.2.3","Win32",58.82352941,NA,"",NA,"",NA,NA,NA,NA,NA,NA,NA,"","","",NA,"i",1,0.5829,NA,NA,NA,NA,NA,"轻率","i","",NA,1,50,130,48,1,"",NA,"",NA,NA,NA,NA,NA,NA,NA,"",NA,"",NA,NA,NA,NA,NA,NA,NA,"","","",NA,"",NA,NA,NA,NA,NA,NA,NA,"",NA,"5"
"",NA,"",NA,"",NA,NA,NA,NA,NA,NA,"","","用户61870",1,"2024-08-23_13h57.34.560","IAT(Formal)","2021.2.3","Win32",58.82352941,NA,"",NA,"",NA,NA,NA,NA,NA,NA,NA,"","","",NA,"i",1,0.5667,NA,NA,NA,NA,NA,"他","i","",NA,1,51,131,55,1,"",NA,"",NA,NA,NA,NA,NA,NA,NA,"",NA,"",NA,NA,NA,NA,NA,NA,NA,"","","",NA,"",NA,NA,NA,NA,NA,NA,NA,"",NA,"5"
"",NA,"",NA,"",NA,NA,NA,NA,NA,NA,"","","用户61870",1,"2024-08-23_13h57.34.560","IAT(Formal)","2021.2.3","Win32",58.82352941,NA,"",NA,"",NA,NA,NA,NA,NA,NA,NA,"","","",NA,"e",1,0.9694,NA,NA,NA,NA,NA,"我们","e","",NA,1,52,132,72,1,"",NA,"",NA,NA,NA,NA,NA,NA,NA,"",NA,"",NA,NA,NA,NA,NA,NA,NA,"","","",NA,"",NA,NA,NA,NA,NA,NA,NA,"",NA,"5"
"",NA,"",NA,"",NA,NA,NA,NA,NA,NA,"","","用户61870",1,"2024-08-23_13h57.34.560","IAT(Formal)","2021.2.3","Win32",58.82352941,NA,"",NA,"",NA,NA,NA,NA,NA,NA,NA,"","","",NA,"e",1,0.9873,NA,NA,NA,NA,NA,"诚实","e","",NA,1,53,133,15,1,"",NA,"",NA,NA,NA,NA,NA,NA,NA,"",NA,"",NA,NA,NA,NA,NA,NA,NA,"","","",NA,"",NA,NA,NA,NA,NA,NA,NA,"",NA,"5"
"",NA,"",NA,"",NA,NA,NA,NA,NA,NA,"","","用户61870",1,"2024-08-23_13h57.34.560","IAT(Formal)","2021.2.3","Win32",58.82352941,NA,"",NA,"",NA,NA,NA,NA,NA,NA,NA,"","","",NA,"e",1,0.6581,NA,NA,NA,NA,NA,"细腻","e","",NA,1,54,134,25,1,"",NA,"",NA,NA,NA,NA,NA,NA,NA,"",NA,"",NA,NA,NA,NA,NA,NA,NA,"","","",NA,"",NA,NA,NA,NA,NA,NA,NA,"",NA,"5"
"",NA,"",NA,"",NA,NA,NA,NA,NA,NA,"","","用户61870",1,"2024-08-23_13h57.34.560","IAT(Formal)","2021.2.3","Win32",58.82352941,NA,"",NA,"",NA,NA,NA,NA,NA,NA,NA,"","","",NA,"i",1,0.8731,NA,NA,NA,NA,NA,"其他","i","",NA,1,55,135,69,1,"",NA,"",NA,NA,NA,NA,NA,NA,NA,"",NA,"",NA,NA,NA,NA,NA,NA,NA,"","","",NA,"",NA,NA,NA,NA,NA,NA,NA,"",NA,"5"
"",NA,"",NA,"",NA,NA,NA,NA,NA,NA,"","","用户61870",1,"2024-08-23_13h57.34.560","IAT(Formal)","2021.2.3","Win32",58.82352941,NA,"",NA,"",NA,NA,NA,NA,NA,NA,NA,"","","",NA,"e",1,0.6389,NA,NA,NA,NA,NA,"正直","e","",NA,1,56,136,16,1,"",NA,"",NA,NA,NA,NA,NA,NA,NA,"",NA,"",NA,NA,NA,NA,NA,NA,NA,"","","",NA,"",NA,NA,NA,NA,NA,NA,NA,"",NA,"5"
"",NA,"",NA,"",NA,NA,NA,NA,NA,NA,"","","用户61870",1,"2024-08-23_13h57.34.560","IAT(Formal)","2021.2.3","Win32",58.82352941,NA,"",NA,"",NA,NA,NA,NA,NA,NA,NA,"","","",NA,"i",1,0.7487,NA,NA,NA,NA,NA,"他","i","",NA,1,57,137,65,1,"",NA,"",NA,NA,NA,NA,NA,NA,NA,"",NA,"",NA,NA,NA,NA,NA,NA,NA,"","","",NA,"",NA,NA,NA,NA,NA,NA,NA,"",NA,"5"
"",NA,"",NA,"",NA,NA,NA,NA,NA,NA,"","","用户61870",1,"2024-08-23_13h57.34.560","IAT(Formal)","2021.2.3","Win32",58.82352941,NA,"",NA,"",NA,NA,NA,NA,NA,NA,NA,"","","",NA,"i",1,0.6792,NA,NA,NA,NA,NA,"其他","i","",NA,1,58,138,9,1,"",NA,"",NA,NA,NA,NA,NA,NA,NA,"",NA,"",NA,NA,NA,NA,NA,NA,NA,"","","",NA,"",NA,NA,NA,NA,NA,NA,NA,"",NA,"5"
"",NA,"",NA,"",NA,NA,NA,NA,NA,NA,"","","用户61870",1,"2024-08-23_13h57.34.560","IAT(Formal)","2021.2.3","Win32",58.82352941,NA,"",NA,"",NA,NA,NA,NA,NA,NA,NA,"","","",NA,"e",1,0.9331,NA,NA,NA,NA,NA,"俺","e","",NA,1,59,139,74,1,"",NA,"",NA,NA,NA,NA,NA,NA,NA,"",NA,"",NA,NA,NA,NA,NA,NA,NA,"","","",NA,"",NA,NA,NA,NA,NA,NA,NA,"",NA,"5"
"",NA,"",NA,"",NA,NA,NA,NA,NA,NA,"","","用户61870",1,"2024-08-23_13h57.34.560","IAT(Formal)","2021.2.3","Win32",58.82352941,NA,"",NA,"",NA,NA,NA,NA,NA,NA,NA,"","","",NA,"i",1,1.1635,NA,NA,NA,NA,NA,"他们","i","",NA,1,60,140,56,1,"",NA,"",NA,NA,NA,NA,NA,NA,NA,"",NA,"",NA,NA,NA,NA,NA,NA,NA,"","","",NA,"",NA,NA,NA,NA,NA,NA,NA,"",NA,"5"
"",NA,"",NA,"",NA,NA,NA,NA,NA,NA,"","","用户61870",1,"2024-08-23_13h57.34.560","IAT(Formal)","2021.2.3","Win32",58.82352941,NA,"",NA,"",NA,NA,NA,NA,NA,NA,NA,"","","",NA,"e",1,0.6359,NA,NA,NA,NA,NA,"乐观","e","",NA,1,61,141,14,1,"",NA,"",NA,NA,NA,NA,NA,NA,NA,"",NA,"",NA,NA,NA,NA,NA,NA,NA,"","","",NA,"",NA,NA,NA,NA,NA,NA,NA,"",NA,"5"
"",NA,"",NA,"",NA,NA,NA,NA,NA,NA,"","","用户61870",1,"2024-08-23_13h57.34.560","IAT(Formal)","2021.2.3","Win32",58.82352941,NA,"",NA,"",NA,NA,NA,NA,NA,NA,NA,"","","",NA,"i",1,0.6699,NA,NA,NA,NA,NA,"消极","i","",NA,1,62,142,35,1,"",NA,"",NA,NA,NA,NA,NA,NA,NA,"",NA,"",NA,NA,NA,NA,NA,NA,NA,"","","",NA,"",NA,NA,NA,NA,NA,NA,NA,"",NA,"5"
"",NA,"",NA,"",NA,NA,NA,NA,NA,NA,"","","用户61870",1,"2024-08-23_13h57.34.560","IAT(Formal)","2021.2.3","Win32",58.82352941,NA,"",NA,"",NA,NA,NA,NA,NA,NA,NA,"","","",NA,"e",1,0.7216,NA,NA,NA,NA,NA,"自己","e","",NA,1,63,143,3,1,"",NA,"",NA,NA,NA,NA,NA,NA,NA,"",NA,"",NA,NA,NA,NA,NA,NA,NA,"","","",NA,"",NA,NA,NA,NA,NA,NA,NA,"",NA,"5"
"",NA,"",NA,"",NA,NA,NA,NA,NA,NA,"","","用户61870",1,"2024-08-23_13h57.34.560","IAT(Formal)","2021.2.3","Win32",58.82352941,NA,"",NA,"",NA,NA,NA,NA,NA,NA,NA,"","","",NA,"i",1,0.5764,NA,NA,NA,NA,NA,"他们","i","",NA,1,64,144,66,1,"",NA,"",NA,NA,NA,NA,NA,NA,NA,"",NA,"",NA,NA,NA,NA,NA,NA,NA,"","","",NA,"",NA,NA,NA,NA,NA,NA,NA,"",NA,"5"
"",NA,"",NA,"",NA,NA,NA,NA,NA,NA,"","","用户61870",1,"2024-08-23_13h57.34.560","IAT(Formal)","2021.2.3","Win32",58.82352941,NA,"",NA,"",NA,NA,NA,NA,NA,NA,NA,"","","",NA,"i",1,0.6673,NA,NA,NA,NA,NA,"猖狂","i","",NA,1,65,145,45,1,"",NA,"",NA,NA,NA,NA,NA,NA,NA,"",NA,"",NA,NA,NA,NA,NA,NA,NA,"","","",NA,"",NA,NA,NA,NA,NA,NA,NA,"",NA,"5"
"",NA,"",NA,"",NA,NA,NA,NA,NA,NA,"","","用户61870",1,"2024-08-23_13h57.34.560","IAT(Formal)","2021.2.3","Win32",58.82352941,NA,"",NA,"",NA,NA,NA,NA,NA,NA,NA,"","","",NA,"e",1,0.5799,NA,NA,NA,NA,NA,"朴实","e","",NA,1,66,146,24,1,"",NA,"",NA,NA,NA,NA,NA,NA,NA,"",NA,"",NA,NA,NA,NA,NA,NA,NA,"","","",NA,"",NA,NA,NA,NA,NA,NA,NA,"",NA,"5"
"",NA,"",NA,"",NA,NA,NA,NA,NA,NA,"","","用户61870",1,"2024-08-23_13h57.34.560","IAT(Formal)","2021.2.3","Win32",58.82352941,NA,"",NA,"",NA,NA,NA,NA,NA,NA,NA,"","","",NA,"i",1,0.5607,NA,NA,NA,NA,NA,"下贱","i","",NA,1,67,147,49,1,"",NA,"",NA,NA,NA,NA,NA,NA,NA,"",NA,"",NA,NA,NA,NA,NA,NA,NA,"","","",NA,"",NA,NA,NA,NA,NA,NA,NA,"",NA,"5"
"",NA,"",NA,"",NA,NA,NA,NA,NA,NA,"","","用户61870",1,"2024-08-23_13h57.34.560","IAT(Formal)","2021.2.3","Win32",58.82352941,NA,"",NA,"",NA,NA,NA,NA,NA,NA,NA,"","","",NA,"e",1,0.6337,NA,NA,NA,NA,NA,"我们","e","",NA,1,68,148,62,1,"",NA,"",NA,NA,NA,NA,NA,NA,NA,"",NA,"",NA,NA,NA,NA,NA,NA,NA,"","","",NA,"",NA,NA,NA,NA,NA,NA,NA,"",NA,"5"
"",NA,"",NA,"",NA,NA,NA,NA,NA,NA,"","","用户61870",1,"2024-08-23_13h57.34.560","IAT(Formal)","2021.2.3","Win32",58.82352941,NA,"",NA,"",NA,NA,NA,NA,NA,NA,NA,"","","",NA,"i",0,0.7112,NA,NA,NA,NA,NA,"我","e","",NA,1,69,149,50,1,"",NA,"",NA,NA,NA,NA,NA,NA,NA,"",NA,"",NA,NA,NA,NA,NA,NA,NA,"","","",NA,"",NA,NA,NA,NA,NA,NA,NA,"",NA,"5"
"",NA,"",NA,"",NA,NA,NA,NA,NA,NA,"","","用户61870",1,"2024-08-23_13h57.34.560","IAT(Formal)","2021.2.3","Win32",58.82352941,NA,"",NA,"",NA,NA,NA,NA,NA,NA,NA,"","","",NA,"i",1,0.9531,NA,NA,NA,NA,NA,"他人","i","",NA,1,70,150,78,1,"",NA,"",NA,NA,NA,NA,NA,NA,NA,"",NA,"",NA,NA,NA,NA,NA,NA,NA,"","","",NA,"",NA,NA,NA,NA,NA,NA,NA,"",NA,"5"
"",NA,"",NA,"",NA,NA,NA,NA,NA,NA,"","","用户61870",1,"2024-08-23_13h57.34.560","IAT(Formal)","2021.2.3","Win32",58.82352941,NA,"",NA,"",NA,NA,NA,NA,NA,NA,NA,"","","",NA,"i",1,0.8756,NA,NA,NA,NA,NA,"他人","i","",NA,1,71,151,68,1,"",NA,"",NA,NA,NA,NA,NA,NA,NA,"",NA,"",NA,NA,NA,NA,NA,NA,NA,"","","",NA,"",NA,NA,NA,NA,NA,NA,NA,"",NA,"5"
"",NA,"",NA,"",NA,NA,NA,NA,NA,NA,"","","用户61870",1,"2024-08-23_13h57.34.560","IAT(Formal)","2021.2.3","Win32",58.82352941,NA,"",NA,"",NA,NA,NA,NA,NA,NA,NA,"","","",NA,"e",1,0.6762,NA,NA,NA,NA,NA,"稳重","e","",NA,1,72,152,21,1,"",NA,"",NA,NA,NA,NA,NA,NA,NA,"",NA,"",NA,NA,NA,NA,NA,NA,NA,"","","",NA,"",NA,NA,NA,NA,NA,NA,NA,"",NA,"5"
"",NA,"",NA,"",NA,NA,NA,NA,NA,NA,"","","用户61870",1,"2024-08-23_13h57.34.560","IAT(Formal)","2021.2.3","Win32",58.82352941,NA,"",NA,"",NA,NA,NA,NA,NA,NA,NA,"","","",NA,"e",1,0.5998,NA,NA,NA,NA,NA,"活泼","e","",NA,1,73,153,28,1,"",NA,"",NA,NA,NA,NA,NA,NA,NA,"",NA,"",NA,NA,NA,NA,NA,NA,NA,"","","",NA,"",NA,NA,NA,NA,NA,NA,NA,"",NA,"5"
"",NA,"",NA,"",NA,NA,NA,NA,NA,NA,"","","用户61870",1,"2024-08-23_13h57.34.560","IAT(Formal)","2021.2.3","Win32",58.82352941,NA,"",NA,"",NA,NA,NA,NA,NA,NA,NA,"","","",NA,"e",1,0.6194,NA,NA,NA,NA,NA,"我","e","",NA,1,74,154,0,1,"",NA,"",NA,NA,NA,NA,NA,NA,NA,"",NA,"",NA,NA,NA,NA,NA,NA,NA,"","","",NA,"",NA,NA,NA,NA,NA,NA,NA,"",NA,"5"
"",NA,"",NA,"",NA,NA,NA,NA,NA,NA,"","","用户61870",1,"2024-08-23_13h57.34.560","IAT(Formal)","2021.2.3","Win32",58.82352941,NA,"",NA,"",NA,NA,NA,NA,NA,NA,NA,"","","",NA,"i",1,0.6446,NA,NA,NA,NA,NA,"他的","i","",NA,1,75,155,67,1,"",NA,"",NA,NA,NA,NA,NA,NA,NA,"",NA,"",NA,NA,NA,NA,NA,NA,NA,"","","",NA,"",NA,NA,NA,NA,NA,NA,NA,"",NA,"5"
"",NA,"",NA,"",NA,NA,NA,NA,NA,NA,"","","用户61870",1,"2024-08-23_13h57.34.560","IAT(Formal)","2021.2.3","Win32",58.82352941,NA,"",NA,"",NA,NA,NA,NA,NA,NA,NA,"","","",NA,"i",1,0.8838,NA,NA,NA,NA,NA,"其他","i","",NA,1,76,156,79,1,"",NA,"",NA,NA,NA,NA,NA,NA,NA,"",NA,"",NA,NA,NA,NA,NA,NA,NA,"","","",NA,"",NA,NA,NA,NA,NA,NA,NA,"",NA,"5"
"",NA,"",NA,"",NA,NA,NA,NA,NA,NA,"","","用户61870",1,"2024-08-23_13h57.34.560","IAT(Formal)","2021.2.3","Win32",58.82352941,NA,"",NA,"",NA,NA,NA,NA,NA,NA,NA,"","","",NA,"e",0,0.4093,NA,NA,NA,NA,NA,"散漫","i","",NA,1,77,157,41,1,"",NA,"",NA,NA,NA,NA,NA,NA,NA,"",NA,"",NA,NA,NA,NA,NA,NA,NA,"","","",NA,"",NA,NA,NA,NA,NA,NA,NA,"",NA,"5"
"",NA,"",NA,"",NA,NA,NA,NA,NA,NA,"","","用户61870",1,"2024-08-23_13h57.34.560","IAT(Formal)","2021.2.3","Win32",58.82352941,NA,"",NA,"",NA,NA,NA,NA,NA,NA,NA,"","","",NA,"e",1,0.5103,NA,NA,NA,NA,NA,"勤奋","e","",NA,1,78,158,18,1,"",NA,"",NA,NA,NA,NA,NA,NA,NA,"",NA,"",NA,NA,NA,NA,NA,NA,NA,"","","",NA,"",NA,NA,NA,NA,NA,NA,NA,"",NA,"5"
"",NA,"",NA,"",NA,NA,NA,NA,NA,NA,"","","用户61870",1,"2024-08-23_13h57.34.560","IAT(Formal)","2021.2.3","Win32",58.82352941,NA,"",NA,"",NA,NA,NA,NA,NA,NA,NA,"","","",NA,"e",1,0.4841,NA,NA,NA,NA,NA,"我们","e","",NA,1,79,159,2,1,"",NA,"",NA,NA,NA,NA,NA,NA,NA,"",NA,"",NA,NA,NA,NA,NA,NA,NA,"","","",NA,"",NA,NA,NA,NA,NA,NA,NA,"",NA,"5"
"",NA,"",NA,"",NA,NA,NA,NA,NA,NA,"其他","e","用户61870",1,"2024-08-23_13h57.34.560","IAT(Formal)","2021.2.3","Win32",58.82352941,NA,"",NA,"",NA,NA,NA,NA,NA,NA,NA,"","","",NA,"",NA,NA,NA,NA,NA,NA,NA,"","","",NA,NA,NA,NA,NA,NA,"space",7.0964,"",0,0,0,0,9,1,NA,"",NA,"",NA,NA,NA,NA,NA,NA,NA,"","","",NA,"",NA,NA,NA,NA,NA,NA,NA,"",NA,"5"
"",NA,"",NA,"",NA,NA,NA,NA,NA,NA,"我的","i","用户61870",1,"2024-08-23_13h57.34.560","IAT(Formal)","2021.2.3","Win32",58.82352941,NA,"",NA,"",NA,NA,NA,NA,NA,NA,NA,"","","",NA,"",NA,NA,NA,NA,NA,NA,NA,"","","",NA,NA,NA,NA,NA,NA,"",NA,"e",0,0,1,1,1,1,0.5206,"",NA,"",NA,NA,NA,NA,NA,NA,NA,"","","",NA,"",NA,NA,NA,NA,NA,NA,NA,"",NA,"5"
"",NA,"",NA,"",NA,NA,NA,NA,NA,NA,"我","i","用户61870",1,"2024-08-23_13h57.34.560","IAT(Formal)","2021.2.3","Win32",58.82352941,NA,"",NA,"",NA,NA,NA,NA,NA,NA,NA,"","","",NA,"",NA,NA,NA,NA,NA,NA,NA,"","","",NA,NA,NA,NA,NA,NA,"",NA,"i",1,0,2,2,0,1,0.6318,"",NA,"",NA,NA,NA,NA,NA,NA,NA,"","","",NA,"",NA,NA,NA,NA,NA,NA,NA,"",NA,"5"
"",NA,"",NA,"",NA,NA,NA,NA,NA,NA,"他人","e","用户61870",1,"2024-08-23_13h57.34.560","IAT(Formal)","2021.2.3","Win32",58.82352941,NA,"",NA,"",NA,NA,NA,NA,NA,NA,NA,"","","",NA,"",NA,NA,NA,NA,NA,NA,NA,"","","",NA,NA,NA,NA,NA,NA,"",NA,"e",1,0,3,3,8,1,0.7384,"",NA,"",NA,NA,NA,NA,NA,NA,NA,"","","",NA,"",NA,NA,NA,NA,NA,NA,NA,"",NA,"5"
"",NA,"",NA,"",NA,NA,NA,NA,NA,NA,"他们","e","用户61870",1,"2024-08-23_13h57.34.560","IAT(Formal)","2021.2.3","Win32",58.82352941,NA,"",NA,"",NA,NA,NA,NA,NA,NA,NA,"","","",NA,"",NA,NA,NA,NA,NA,NA,NA,"","","",NA,NA,NA,NA,NA,NA,"",NA,"e",1,0,4,4,6,1,1.3244,"",NA,"",NA,NA,NA,NA,NA,NA,NA,"","","",NA,"",NA,NA,NA,NA,NA,NA,NA,"",NA,"5"
"",NA,"",NA,"",NA,NA,NA,NA,NA,NA,"我们","i","用户61870",1,"2024-08-23_13h57.34.560","IAT(Formal)","2021.2.3","Win32",58.82352941,NA,"",NA,"",NA,NA,NA,NA,NA,NA,NA,"","","",NA,"",NA,NA,NA,NA,NA,NA,NA,"","","",NA,NA,NA,NA,NA,NA,"",NA,"i",1,0,5,5,2,1,0.8315,"",NA,"",NA,NA,NA,NA,NA,NA,NA,"","","",NA,"",NA,NA,NA,NA,NA,NA,NA,"",NA,"5"
"",NA,"",NA,"",NA,NA,NA,NA,NA,NA,"俺","i","用户61870",1,"2024-08-23_13h57.34.560","IAT(Formal)","2021.2.3","Win32",58.82352941,NA,"",NA,"",NA,NA,NA,NA,NA,NA,NA,"","","",NA,"",NA,NA,NA,NA,NA,NA,NA,"","","",NA,NA,NA,NA,NA,NA,"",NA,"i",1,0,6,6,4,1,0.8022,"",NA,"",NA,NA,NA,NA,NA,NA,NA,"","","",NA,"",NA,NA,NA,NA,NA,NA,NA,"",NA,"5"
"",NA,"",NA,"",NA,NA,NA,NA,NA,NA,"他","e","用户61870",1,"2024-08-23_13h57.34.560","IAT(Formal)","2021.2.3","Win32",58.82352941,NA,"",NA,"",NA,NA,NA,NA,NA,NA,NA,"","","",NA,"",NA,NA,NA,NA,NA,NA,NA,"","","",NA,NA,NA,NA,NA,NA,"",NA,"e",1,0,7,7,5,1,0.5676,"",NA,"",NA,NA,NA,NA,NA,NA,NA,"","","",NA,"",NA,NA,NA,NA,NA,NA,NA,"",NA,"5"
"",NA,"",NA,"",NA,NA,NA,NA,NA,NA,"自己","i","用户61870",1,"2024-08-23_13h57.34.560","IAT(Formal)","2021.2.3","Win32",58.82352941,NA,"",NA,"",NA,NA,NA,NA,NA,NA,NA,"","","",NA,"",NA,NA,NA,NA,NA,NA,NA,"","","",NA,NA,NA,NA,NA,NA,"",NA,"i",1,0,8,8,3,1,0.9136,"",NA,"",NA,NA,NA,NA,NA,NA,NA,"","","",NA,"",NA,NA,NA,NA,NA,NA,NA,"",NA,"5"
