﻿Instruction1.keys,Instruction1.rt,Instruction2.keys,Instruction2.rt,key_resp_iso.keys,key_resp_iso.corr,key_resp_iso.rt,Practice_01.thisRepN,Practice_01.thisTrialN,Practice_01.thisN,Practice_01.thisIndex,Practice_01.ran,Words,ans,participant,session,date,expName,psychopyVersion,OS,frameRate,key_resp_3.keys,key_resp_3.rt,key_resp_ipn.keys,key_resp_ipn.corr,key_resp_ipn.rt,Practice_02.thisRepN,Practice_02.thisTrialN,Practice_02.thisN,Practice_02.thisIndex,Practice_02.ran,Words_ipn,ans_ipn,key_resp_4.keys,key_resp_4.rt,key_resp_t1.keys,key_resp_t1.corr,key_resp_t1.rt,Practice_T1.thisRepN,Practice_T1.thisTrialN,Practice_T1.thisN,Practice_T1.thisIndex,Practice_T1.ran,Words_t1,ans_t1,key_resp_5.keys,key_resp_5.rt,Formal_T1.thisRepN,Formal_T1.thisTrialN,Formal_T1.thisN,Formal_T1.thisIndex,Formal_T1.ran,key_resp_6.keys,key_resp_6.rt,key_resp_iso_reverse.keys,key_resp_iso_reverse.corr,key_resp_iso_reverse.rt,Practice_iso_Reverse.thisRepN,Practice_iso_Reverse.thisTrialN,Practice_iso_Reverse.thisN,Practice_iso_Reverse.thisIndex,Practice_iso_Reverse.ran,key_resp_7.keys,key_resp_7.rt,key_resp_t2_Practice.keys,key_resp_t2_Practice.corr,key_resp_t2_Practice.rt,Practice_t2_Reverse.thisRepN,Practice_t2_Reverse.thisTrialN,Practice_t2_Reverse.thisN,Practice_t2_Reverse.thisIndex,Practice_t2_Reverse.ran,Words_t2,ans_t2,key_resp_8.keys,key_resp_8.rt,key_resp_t2.keys,key_resp_t2.corr,Formal_t2_reverse.thisRepN,Formal_t2_reverse.thisTrialN,Formal_t2_reverse.thisN,Formal_t2_reverse.thisIndex,Formal_t2_reverse.ran,key_resp_t2.rt,key_instruct.keys,key_instruct.rt
space,3.0411,space,5.5755,e,1,0.4894,0,0,0,3,1,自己,e,1,001,2025-01-02_23h37.22.720,IAT(Formal),2021.2.3,Win32,60.97560976,,,,,,,,,,,,,,,,,,,,,,,,,,,,,,,,,,,,,,,,,,,,,,,,,,,,,,,,,,,,,,,,,
,,,,i,1,0.3799,0,1,1,7,1,他的,i,1,001,2025-01-02_23h37.22.720,IAT(Formal),2021.2.3,Win32,60.97560976,,,,,,,,,,,,,,,,,,,,,,,,,,,,,,,,,,,,,,,,,,,,,,,,,,,,,,,,,,,,,,,,,
,,,,i,0,0.4344,0,2,2,4,1,俺,e,1,001,2025-01-02_23h37.22.720,IAT(Formal),2021.2.3,Win32,60.97560976,,,,,,,,,,,,,,,,,,,,,,,,,,,,,,,,,,,,,,,,,,,,,,,,,,,,,,,,,,,,,,,,,
,,,,e,1,0.6275,0,3,3,2,1,我们,e,1,001,2025-01-02_23h37.22.720,IAT(Formal),2021.2.3,Win32,60.97560976,,,,,,,,,,,,,,,,,,,,,,,,,,,,,,,,,,,,,,,,,,,,,,,,,,,,,,,,,,,,,,,,,
,,,,i,1,0.5618,0,4,4,9,1,其他,i,1,001,2025-01-02_23h37.22.720,IAT(Formal),2021.2.3,Win32,60.97560976,,,,,,,,,,,,,,,,,,,,,,,,,,,,,,,,,,,,,,,,,,,,,,,,,,,,,,,,,,,,,,,,,
,,,,i,1,0.4173,0,5,5,8,1,他人,i,1,001,2025-01-02_23h37.22.720,IAT(Formal),2021.2.3,Win32,60.97560976,,,,,,,,,,,,,,,,,,,,,,,,,,,,,,,,,,,,,,,,,,,,,,,,,,,,,,,,,,,,,,,,,
,,,,e,1,0.3624,0,6,6,1,1,我的,e,1,001,2025-01-02_23h37.22.720,IAT(Formal),2021.2.3,Win32,60.97560976,,,,,,,,,,,,,,,,,,,,,,,,,,,,,,,,,,,,,,,,,,,,,,,,,,,,,,,,,,,,,,,,,
,,,,i,1,0.5345,0,7,7,6,1,他们,i,1,001,2025-01-02_23h37.22.720,IAT(Formal),2021.2.3,Win32,60.97560976,,,,,,,,,,,,,,,,,,,,,,,,,,,,,,,,,,,,,,,,,,,,,,,,,,,,,,,,,,,,,,,,,
,,,,e,1,0.4476,0,8,8,0,1,我,e,1,001,2025-01-02_23h37.22.720,IAT(Formal),2021.2.3,Win32,60.97560976,,,,,,,,,,,,,,,,,,,,,,,,,,,,,,,,,,,,,,,,,,,,,,,,,,,,,,,,,,,,,,,,,
,,,,i,1,0.5185,0,9,9,5,1,他,i,1,001,2025-01-02_23h37.22.720,IAT(Formal),2021.2.3,Win32,60.97560976,,,,,,,,,,,,,,,,,,,,,,,,,,,,,,,,,,,,,,,,,,,,,,,,,,,,,,,,,,,,,,,,,
,,,,,,,,,,,,,,1,001,2025-01-02_23h37.22.720,IAT(Formal),2021.2.3,Win32,60.97560976,space,2.0614,e,1,0.4517,0,0,0,18,1,活泼,e,,,,,,,,,,,,,,,,,,,,,,,,,,,,,,,,,,,,,,,,,,,,,,,,,,,,,
,,,,,,,,,,,,,,1,001,2025-01-02_23h37.22.720,IAT(Formal),2021.2.3,Win32,60.97560976,,,i,1,0.5051,0,1,1,29,1,冒失,i,,,,,,,,,,,,,,,,,,,,,,,,,,,,,,,,,,,,,,,,,,,,,,,,,,,,,
,,,,,,,,,,,,,,1,001,2025-01-02_23h37.22.720,IAT(Formal),2021.2.3,Win32,60.97560976,,,i,1,0.4052,0,2,2,39,1,下贱,i,,,,,,,,,,,,,,,,,,,,,,,,,,,,,,,,,,,,,,,,,,,,,,,,,,,,,
,,,,,,,,,,,,,,1,001,2025-01-02_23h37.22.720,IAT(Formal),2021.2.3,Win32,60.97560976,,,e,0,0.5061,0,3,3,38,1,轻率,i,,,,,,,,,,,,,,,,,,,,,,,,,,,,,,,,,,,,,,,,,,,,,,,,,,,,,
,,,,,,,,,,,,,,1,001,2025-01-02_23h37.22.720,IAT(Formal),2021.2.3,Win32,60.97560976,,,i,1,0.6681,0,4,4,27,1,傲慢,i,,,,,,,,,,,,,,,,,,,,,,,,,,,,,,,,,,,,,,,,,,,,,,,,,,,,,
,,,,,,,,,,,,,,1,001,2025-01-02_23h37.22.720,IAT(Formal),2021.2.3,Win32,60.97560976,,,i,1,0.5172,0,5,5,23,1,刻薄,i,,,,,,,,,,,,,,,,,,,,,,,,,,,,,,,,,,,,,,,,,,,,,,,,,,,,,
,,,,,,,,,,,,,,1,001,2025-01-02_23h37.22.720,IAT(Formal),2021.2.3,Win32,60.97560976,,,e,1,0.5361,0,6,6,17,1,热情,e,,,,,,,,,,,,,,,,,,,,,,,,,,,,,,,,,,,,,,,,,,,,,,,,,,,,,
,,,,,,,,,,,,,,1,001,2025-01-02_23h37.22.720,IAT(Formal),2021.2.3,Win32,60.97560976,,,e,1,0.5576,0,7,7,3,1,杰出,e,,,,,,,,,,,,,,,,,,,,,,,,,,,,,,,,,,,,,,,,,,,,,,,,,,,,,
,,,,,,,,,,,,,,1,001,2025-01-02_23h37.22.720,IAT(Formal),2021.2.3,Win32,60.97560976,,,i,1,0.5834,0,8,8,20,1,卑鄙,i,,,,,,,,,,,,,,,,,,,,,,,,,,,,,,,,,,,,,,,,,,,,,,,,,,,,,
,,,,,,,,,,,,,,1,001,2025-01-02_23h37.22.720,IAT(Formal),2021.2.3,Win32,60.97560976,,,e,0,0.4316,0,9,9,37,1,固执,i,,,,,,,,,,,,,,,,,,,,,,,,,,,,,,,,,,,,,,,,,,,,,,,,,,,,,
,,,,,,,,,,,,,,1,001,2025-01-02_23h37.22.720,IAT(Formal),2021.2.3,Win32,60.97560976,,,e,1,0.8068,0,10,10,16,1,冷静,e,,,,,,,,,,,,,,,,,,,,,,,,,,,,,,,,,,,,,,,,,,,,,,,,,,,,,
,,,,,,,,,,,,,,1,001,2025-01-02_23h37.22.720,IAT(Formal),2021.2.3,Win32,60.97560976,,,i,1,0.4381,0,11,11,35,1,猖狂,i,,,,,,,,,,,,,,,,,,,,,,,,,,,,,,,,,,,,,,,,,,,,,,,,,,,,,
,,,,,,,,,,,,,,1,001,2025-01-02_23h37.22.720,IAT(Formal),2021.2.3,Win32,60.97560976,,,e,1,0.5516,0,12,12,9,1,机智,e,,,,,,,,,,,,,,,,,,,,,,,,,,,,,,,,,,,,,,,,,,,,,,,,,,,,,
,,,,,,,,,,,,,,1,001,2025-01-02_23h37.22.720,IAT(Formal),2021.2.3,Win32,60.97560976,,,i,1,0.6517,0,13,13,31,1,散漫,i,,,,,,,,,,,,,,,,,,,,,,,,,,,,,,,,,,,,,,,,,,,,,,,,,,,,,
,,,,,,,,,,,,,,1,001,2025-01-02_23h37.22.720,IAT(Formal),2021.2.3,Win32,60.97560976,,,e,1,0.4906,0,14,14,2,1,聪明,e,,,,,,,,,,,,,,,,,,,,,,,,,,,,,,,,,,,,,,,,,,,,,,,,,,,,,
,,,,,,,,,,,,,,1,001,2025-01-02_23h37.22.720,IAT(Formal),2021.2.3,Win32,60.97560976,,,i,1,0.7333,0,15,15,24,1,悲观,i,,,,,,,,,,,,,,,,,,,,,,,,,,,,,,,,,,,,,,,,,,,,,,,,,,,,,
,,,,,,,,,,,,,,1,001,2025-01-02_23h37.22.720,IAT(Formal),2021.2.3,Win32,60.97560976,,,i,1,0.6186,0,16,16,26,1,自卑,i,,,,,,,,,,,,,,,,,,,,,,,,,,,,,,,,,,,,,,,,,,,,,,,,,,,,,
,,,,,,,,,,,,,,1,001,2025-01-02_23h37.22.720,IAT(Formal),2021.2.3,Win32,60.97560976,,,i,1,0.5602,0,17,17,30,1,执拗,i,,,,,,,,,,,,,,,,,,,,,,,,,,,,,,,,,,,,,,,,,,,,,,,,,,,,,
,,,,,,,,,,,,,,1,001,2025-01-02_23h37.22.720,IAT(Formal),2021.2.3,Win32,60.97560976,,,e,1,0.6679,0,18,18,0,1,优秀,e,,,,,,,,,,,,,,,,,,,,,,,,,,,,,,,,,,,,,,,,,,,,,,,,,,,,,
,,,,,,,,,,,,,,1,001,2025-01-02_23h37.22.720,IAT(Formal),2021.2.3,Win32,60.97560976,,,e,1,0.5421,0,19,19,8,1,勤奋,e,,,,,,,,,,,,,,,,,,,,,,,,,,,,,,,,,,,,,,,,,,,,,,,,,,,,,
,,,,,,,,,,,,,,1,001,2025-01-02_23h37.22.720,IAT(Formal),2021.2.3,Win32,60.97560976,,,i,1,0.502,0,20,20,22,1,愚蠢,i,,,,,,,,,,,,,,,,,,,,,,,,,,,,,,,,,,,,,,,,,,,,,,,,,,,,,
,,,,,,,,,,,,,,1,001,2025-01-02_23h37.22.720,IAT(Formal),2021.2.3,Win32,60.97560976,,,e,1,0.5329,0,21,21,14,1,朴实,e,,,,,,,,,,,,,,,,,,,,,,,,,,,,,,,,,,,,,,,,,,,,,,,,,,,,,
,,,,,,,,,,,,,,1,001,2025-01-02_23h37.22.720,IAT(Formal),2021.2.3,Win32,60.97560976,,,i,1,0.4671,0,22,22,32,1,凶狠,i,,,,,,,,,,,,,,,,,,,,,,,,,,,,,,,,,,,,,,,,,,,,,,,,,,,,,
,,,,,,,,,,,,,,1,001,2025-01-02_23h37.22.720,IAT(Formal),2021.2.3,Win32,60.97560976,,,e,1,0.6188,0,23,23,6,1,正直,e,,,,,,,,,,,,,,,,,,,,,,,,,,,,,,,,,,,,,,,,,,,,,,,,,,,,,
,,,,,,,,,,,,,,1,001,2025-01-02_23h37.22.720,IAT(Formal),2021.2.3,Win32,60.97560976,,,e,1,0.5431,0,24,24,5,1,诚实,e,,,,,,,,,,,,,,,,,,,,,,,,,,,,,,,,,,,,,,,,,,,,,,,,,,,,,
,,,,,,,,,,,,,,1,001,2025-01-02_23h37.22.720,IAT(Formal),2021.2.3,Win32,60.97560976,,,e,1,0.5727,0,25,25,1,1,崇高,e,,,,,,,,,,,,,,,,,,,,,,,,,,,,,,,,,,,,,,,,,,,,,,,,,,,,,
,,,,,,,,,,,,,,1,001,2025-01-02_23h37.22.720,IAT(Formal),2021.2.3,Win32,60.97560976,,,e,1,0.6533,0,26,26,12,1,无私,e,,,,,,,,,,,,,,,,,,,,,,,,,,,,,,,,,,,,,,,,,,,,,,,,,,,,,
,,,,,,,,,,,,,,1,001,2025-01-02_23h37.22.720,IAT(Formal),2021.2.3,Win32,60.97560976,,,i,1,0.4492,0,27,27,34,1,暴躁,i,,,,,,,,,,,,,,,,,,,,,,,,,,,,,,,,,,,,,,,,,,,,,,,,,,,,,
,,,,,,,,,,,,,,1,001,2025-01-02_23h37.22.720,IAT(Formal),2021.2.3,Win32,60.97560976,,,e,0,0.4681,0,28,28,36,1,野蛮,i,,,,,,,,,,,,,,,,,,,,,,,,,,,,,,,,,,,,,,,,,,,,,,,,,,,,,
,,,,,,,,,,,,,,1,001,2025-01-02_23h37.22.720,IAT(Formal),2021.2.3,Win32,60.97560976,,,e,1,0.5674,0,29,29,4,1,乐观,e,,,,,,,,,,,,,,,,,,,,,,,,,,,,,,,,,,,,,,,,,,,,,,,,,,,,,
,,,,,,,,,,,,,,1,001,2025-01-02_23h37.22.720,IAT(Formal),2021.2.3,Win32,60.97560976,,,e,1,0.5674,0,30,30,11,1,稳重,e,,,,,,,,,,,,,,,,,,,,,,,,,,,,,,,,,,,,,,,,,,,,,,,,,,,,,
,,,,,,,,,,,,,,1,001,2025-01-02_23h37.22.720,IAT(Formal),2021.2.3,Win32,60.97560976,,,i,1,0.5406,0,31,31,21,1,虚伪,i,,,,,,,,,,,,,,,,,,,,,,,,,,,,,,,,,,,,,,,,,,,,,,,,,,,,,
,,,,,,,,,,,,,,1,001,2025-01-02_23h37.22.720,IAT(Formal),2021.2.3,Win32,60.97560976,,,i,1,0.5906,0,32,32,33,1,自私,i,,,,,,,,,,,,,,,,,,,,,,,,,,,,,,,,,,,,,,,,,,,,,,,,,,,,,
,,,,,,,,,,,,,,1,001,2025-01-02_23h37.22.720,IAT(Formal),2021.2.3,Win32,60.97560976,,,e,1,0.5028,0,33,33,10,1,认真,e,,,,,,,,,,,,,,,,,,,,,,,,,,,,,,,,,,,,,,,,,,,,,,,,,,,,,
,,,,,,,,,,,,,,1,001,2025-01-02_23h37.22.720,IAT(Formal),2021.2.3,Win32,60.97560976,,,i,1,0.4244,0,34,34,25,1,消极,i,,,,,,,,,,,,,,,,,,,,,,,,,,,,,,,,,,,,,,,,,,,,,,,,,,,,,
,,,,,,,,,,,,,,1,001,2025-01-02_23h37.22.720,IAT(Formal),2021.2.3,Win32,60.97560976,,,i,1,0.5507,0,35,35,28,1,鲁莽,i,,,,,,,,,,,,,,,,,,,,,,,,,,,,,,,,,,,,,,,,,,,,,,,,,,,,,
,,,,,,,,,,,,,,1,001,2025-01-02_23h37.22.720,IAT(Formal),2021.2.3,Win32,60.97560976,,,e,1,0.5669,0,36,36,15,1,细腻,e,,,,,,,,,,,,,,,,,,,,,,,,,,,,,,,,,,,,,,,,,,,,,,,,,,,,,
,,,,,,,,,,,,,,1,001,2025-01-02_23h37.22.720,IAT(Formal),2021.2.3,Win32,60.97560976,,,e,1,0.5233,0,37,37,7,1,勇敢,e,,,,,,,,,,,,,,,,,,,,,,,,,,,,,,,,,,,,,,,,,,,,,,,,,,,,,
,,,,,,,,,,,,,,1,001,2025-01-02_23h37.22.720,IAT(Formal),2021.2.3,Win32,60.97560976,,,e,1,0.4777,0,38,38,13,1,公正,e,,,,,,,,,,,,,,,,,,,,,,,,,,,,,,,,,,,,,,,,,,,,,,,,,,,,,
,,,,,,,,,,,,,,1,001,2025-01-02_23h37.22.720,IAT(Formal),2021.2.3,Win32,60.97560976,,,e,1,0.5579,0,39,39,19,1,诚恳,e,,,,,,,,,,,,,,,,,,,,,,,,,,,,,,,,,,,,,,,,,,,,,,,,,,,,,
,,,,,,,,,,,,,,1,001,2025-01-02_23h37.22.720,IAT(Formal),2021.2.3,Win32,60.97560976,,,,,,,,,,,,,space,2.8039,i,1,0.6829,0,0,0,7,1,他的,i,,,,,,,,,,,,,,,,,,,,,,,,,,,,,,,,,,,,,,,,,
,,,,,,,,,,,,,,1,001,2025-01-02_23h37.22.720,IAT(Formal),2021.2.3,Win32,60.97560976,,,,,,,,,,,,,,,i,1,0.5517,0,1,1,41,1,散漫,i,,,,,,,,,,,,,,,,,,,,,,,,,,,,,,,,,,,,,,,,,
,,,,,,,,,,,,,,1,001,2025-01-02_23h37.22.720,IAT(Formal),2021.2.3,Win32,60.97560976,,,,,,,,,,,,,,,i,1,0.452,0,2,2,44,1,暴躁,i,,,,,,,,,,,,,,,,,,,,,,,,,,,,,,,,,,,,,,,,,
,,,,,,,,,,,,,,1,001,2025-01-02_23h37.22.720,IAT(Formal),2021.2.3,Win32,60.97560976,,,,,,,,,,,,,,,e,1,0.6015,0,3,3,54,1,俺,e,,,,,,,,,,,,,,,,,,,,,,,,,,,,,,,,,,,,,,,,,
,,,,,,,,,,,,,,1,001,2025-01-02_23h37.22.720,IAT(Formal),2021.2.3,Win32,60.97560976,,,,,,,,,,,,,,,i,1,0.5006,0,4,4,68,1,他人,i,,,,,,,,,,,,,,,,,,,,,,,,,,,,,,,,,,,,,,,,,
,,,,,,,,,,,,,,1,001,2025-01-02_23h37.22.720,IAT(Formal),2021.2.3,Win32,60.97560976,,,,,,,,,,,,,,,e,1,0.4051,0,5,5,21,1,稳重,e,,,,,,,,,,,,,,,,,,,,,,,,,,,,,,,,,,,,,,,,,
,,,,,,,,,,,,,,1,001,2025-01-02_23h37.22.720,IAT(Formal),2021.2.3,Win32,60.97560976,,,,,,,,,,,,,,,e,1,0.6517,0,6,6,4,1,俺,e,,,,,,,,,,,,,,,,,,,,,,,,,,,,,,,,,,,,,,,,,
,,,,,,,,,,,,,,1,001,2025-01-02_23h37.22.720,IAT(Formal),2021.2.3,Win32,60.97560976,,,,,,,,,,,,,,,e,0,0.1175,0,7,7,59,1,其他,i,,,,,,,,,,,,,,,,,,,,,,,,,,,,,,,,,,,,,,,,,
,,,,,,,,,,,,,,1,001,2025-01-02_23h37.22.720,IAT(Formal),2021.2.3,Win32,60.97560976,,,,,,,,,,,,,,,e,1,0.5092,0,8,8,0,1,我,e,,,,,,,,,,,,,,,,,,,,,,,,,,,,,,,,,,,,,,,,,
,,,,,,,,,,,,,,1,001,2025-01-02_23h37.22.720,IAT(Formal),2021.2.3,Win32,60.97560976,,,,,,,,,,,,,,,i,1,0.435,0,9,9,69,1,其他,i,,,,,,,,,,,,,,,,,,,,,,,,,,,,,,,,,,,,,,,,,
,,,,,,,,,,,,,,1,001,2025-01-02_23h37.22.720,IAT(Formal),2021.2.3,Win32,60.97560976,,,,,,,,,,,,,,,e,1,0.5029,0,10,10,2,1,我们,e,,,,,,,,,,,,,,,,,,,,,,,,,,,,,,,,,,,,,,,,,
,,,,,,,,,,,,,,1,001,2025-01-02_23h37.22.720,IAT(Formal),2021.2.3,Win32,60.97560976,,,,,,,,,,,,,,,i,1,0.4983,0,11,11,49,1,下贱,i,,,,,,,,,,,,,,,,,,,,,,,,,,,,,,,,,,,,,,,,,
,,,,,,,,,,,,,,1,001,2025-01-02_23h37.22.720,IAT(Formal),2021.2.3,Win32,60.97560976,,,,,,,,,,,,,,,i,1,0.5272,0,12,12,30,1,卑鄙,i,,,,,,,,,,,,,,,,,,,,,,,,,,,,,,,,,,,,,,,,,
,,,,,,,,,,,,,,1,001,2025-01-02_23h37.22.720,IAT(Formal),2021.2.3,Win32,60.97560976,,,,,,,,,,,,,,,e,1,0.5782,0,13,13,24,1,朴实,e,,,,,,,,,,,,,,,,,,,,,,,,,,,,,,,,,,,,,,,,,
,,,,,,,,,,,,,,1,001,2025-01-02_23h37.22.720,IAT(Formal),2021.2.3,Win32,60.97560976,,,,,,,,,,,,,,,e,1,0.7493,0,14,14,20,1,认真,e,,,,,,,,,,,,,,,,,,,,,,,,,,,,,,,,,,,,,,,,,
,,,,,,,,,,,,,,1,001,2025-01-02_23h37.22.720,IAT(Formal),2021.2.3,Win32,60.97560976,,,,,,,,,,,,,,,i,1,0.5378,0,15,15,47,1,固执,i,,,,,,,,,,,,,,,,,,,,,,,,,,,,,,,,,,,,,,,,,
,,,,,,,,,,,,,,1,001,2025-01-02_23h37.22.720,IAT(Formal),2021.2.3,Win32,60.97560976,,,,,,,,,,,,,,,i,1,0.6584,0,16,16,75,1,他,i,,,,,,,,,,,,,,,,,,,,,,,,,,,,,,,,,,,,,,,,,
,,,,,,,,,,,,,,1,001,2025-01-02_23h37.22.720,IAT(Formal),2021.2.3,Win32,60.97560976,,,,,,,,,,,,,,,i,0,0.4664,0,17,17,25,1,细腻,e,,,,,,,,,,,,,,,,,,,,,,,,,,,,,,,,,,,,,,,,,
,,,,,,,,,,,,,,1,001,2025-01-02_23h37.22.720,IAT(Formal),2021.2.3,Win32,60.97560976,,,,,,,,,,,,,,,e,0,0.4508,0,18,18,48,1,轻率,i,,,,,,,,,,,,,,,,,,,,,,,,,,,,,,,,,,,,,,,,,
,,,,,,,,,,,,,,1,001,2025-01-02_23h37.22.720,IAT(Formal),2021.2.3,Win32,60.97560976,,,,,,,,,,,,,,,i,1,0.5992,0,19,19,42,1,凶狠,i,,,,,,,,,,,,,,,,,,,,,,,,,,,,,,,,,,,,,,,,,
,,,,,,,,,,,,,,1,001,2025-01-02_23h37.22.720,IAT(Formal),2021.2.3,Win32,60.97560976,,,,,,,,,,,,,,,i,1,0.4505,0,20,20,39,1,冒失,i,,,,,,,,,,,,,,,,,,,,,,,,,,,,,,,,,,,,,,,,,
,,,,,,,,,,,,,,1,001,2025-01-02_23h37.22.720,IAT(Formal),2021.2.3,Win32,60.97560976,,,,,,,,,,,,,,,i,1,0.6179,0,21,21,43,1,自私,i,,,,,,,,,,,,,,,,,,,,,,,,,,,,,,,,,,,,,,,,,
,,,,,,,,,,,,,,1,001,2025-01-02_23h37.22.720,IAT(Formal),2021.2.3,Win32,60.97560976,,,,,,,,,,,,,,,i,1,0.6099,0,22,22,33,1,刻薄,i,,,,,,,,,,,,,,,,,,,,,,,,,,,,,,,,,,,,,,,,,
,,,,,,,,,,,,,,1,001,2025-01-02_23h37.22.720,IAT(Formal),2021.2.3,Win32,60.97560976,,,,,,,,,,,,,,,i,1,0.5173,0,23,23,55,1,他,i,,,,,,,,,,,,,,,,,,,,,,,,,,,,,,,,,,,,,,,,,
,,,,,,,,,,,,,,1,001,2025-01-02_23h37.22.720,IAT(Formal),2021.2.3,Win32,60.97560976,,,,,,,,,,,,,,,i,0,0.4511,0,24,24,74,1,俺,e,,,,,,,,,,,,,,,,,,,,,,,,,,,,,,,,,,,,,,,,,
,,,,,,,,,,,,,,1,001,2025-01-02_23h37.22.720,IAT(Formal),2021.2.3,Win32,60.97560976,,,,,,,,,,,,,,,i,1,0.5533,0,25,25,78,1,他人,i,,,,,,,,,,,,,,,,,,,,,,,,,,,,,,,,,,,,,,,,,
,,,,,,,,,,,,,,1,001,2025-01-02_23h37.22.720,IAT(Formal),2021.2.3,Win32,60.97560976,,,,,,,,,,,,,,,e,1,0.5023,0,26,26,64,1,俺,e,,,,,,,,,,,,,,,,,,,,,,,,,,,,,,,,,,,,,,,,,
,,,,,,,,,,,,,,1,001,2025-01-02_23h37.22.720,IAT(Formal),2021.2.3,Win32,60.97560976,,,,,,,,,,,,,,,i,1,0.4595,0,27,27,35,1,消极,i,,,,,,,,,,,,,,,,,,,,,,,,,,,,,,,,,,,,,,,,,
,,,,,,,,,,,,,,1,001,2025-01-02_23h37.22.720,IAT(Formal),2021.2.3,Win32,60.97560976,,,,,,,,,,,,,,,e,1,0.5011,0,28,28,27,1,热情,e,,,,,,,,,,,,,,,,,,,,,,,,,,,,,,,,,,,,,,,,,
,,,,,,,,,,,,,,1,001,2025-01-02_23h37.22.720,IAT(Formal),2021.2.3,Win32,60.97560976,,,,,,,,,,,,,,,i,1,0.6504,0,29,29,65,1,他,i,,,,,,,,,,,,,,,,,,,,,,,,,,,,,,,,,,,,,,,,,
,,,,,,,,,,,,,,1,001,2025-01-02_23h37.22.720,IAT(Formal),2021.2.3,Win32,60.97560976,,,,,,,,,,,,,,,i,1,0.4349,0,30,30,58,1,他人,i,,,,,,,,,,,,,,,,,,,,,,,,,,,,,,,,,,,,,,,,,
,,,,,,,,,,,,,,1,001,2025-01-02_23h37.22.720,IAT(Formal),2021.2.3,Win32,60.97560976,,,,,,,,,,,,,,,e,1,0.4664,0,31,31,50,1,我,e,,,,,,,,,,,,,,,,,,,,,,,,,,,,,,,,,,,,,,,,,
,,,,,,,,,,,,,,1,001,2025-01-02_23h37.22.720,IAT(Formal),2021.2.3,Win32,60.97560976,,,,,,,,,,,,,,,e,1,0.5341,0,32,32,1,1,我的,e,,,,,,,,,,,,,,,,,,,,,,,,,,,,,,,,,,,,,,,,,
,,,,,,,,,,,,,,1,001,2025-01-02_23h37.22.720,IAT(Formal),2021.2.3,Win32,60.97560976,,,,,,,,,,,,,,,e,1,0.5179,0,33,33,14,1,乐观,e,,,,,,,,,,,,,,,,,,,,,,,,,,,,,,,,,,,,,,,,,
,,,,,,,,,,,,,,1,001,2025-01-02_23h37.22.720,IAT(Formal),2021.2.3,Win32,60.97560976,,,,,,,,,,,,,,,i,1,0.5683,0,34,34,31,1,虚伪,i,,,,,,,,,,,,,,,,,,,,,,,,,,,,,,,,,,,,,,,,,
,,,,,,,,,,,,,,1,001,2025-01-02_23h37.22.720,IAT(Formal),2021.2.3,Win32,60.97560976,,,,,,,,,,,,,,,e,1,0.4534,0,35,35,73,1,自己,e,,,,,,,,,,,,,,,,,,,,,,,,,,,,,,,,,,,,,,,,,
,,,,,,,,,,,,,,1,001,2025-01-02_23h37.22.720,IAT(Formal),2021.2.3,Win32,60.97560976,,,,,,,,,,,,,,,e,1,0.4953,0,36,36,53,1,自己,e,,,,,,,,,,,,,,,,,,,,,,,,,,,,,,,,,,,,,,,,,
,,,,,,,,,,,,,,1,001,2025-01-02_23h37.22.720,IAT(Formal),2021.2.3,Win32,60.97560976,,,,,,,,,,,,,,,i,1,0.5851,0,37,37,5,1,他,i,,,,,,,,,,,,,,,,,,,,,,,,,,,,,,,,,,,,,,,,,
,,,,,,,,,,,,,,1,001,2025-01-02_23h37.22.720,IAT(Formal),2021.2.3,Win32,60.97560976,,,,,,,,,,,,,,,e,1,0.4352,0,38,38,51,1,我的,e,,,,,,,,,,,,,,,,,,,,,,,,,,,,,,,,,,,,,,,,,
,,,,,,,,,,,,,,1,001,2025-01-02_23h37.22.720,IAT(Formal),2021.2.3,Win32,60.97560976,,,,,,,,,,,,,,,e,1,0.491,0,39,39,60,1,我,e,,,,,,,,,,,,,,,,,,,,,,,,,,,,,,,,,,,,,,,,,
,,,,,,,,,,,,,,1,001,2025-01-02_23h37.22.720,IAT(Formal),2021.2.3,Win32,60.97560976,,,,,,,,,,,,,,,i,1,0.5249,0,40,40,8,1,他人,i,,,,,,,,,,,,,,,,,,,,,,,,,,,,,,,,,,,,,,,,,
,,,,,,,,,,,,,,1,001,2025-01-02_23h37.22.720,IAT(Formal),2021.2.3,Win32,60.97560976,,,,,,,,,,,,,,,e,1,0.5246,0,41,41,10,1,优秀,e,,,,,,,,,,,,,,,,,,,,,,,,,,,,,,,,,,,,,,,,,
,,,,,,,,,,,,,,1,001,2025-01-02_23h37.22.720,IAT(Formal),2021.2.3,Win32,60.97560976,,,,,,,,,,,,,,,i,1,0.5687,0,42,42,6,1,他们,i,,,,,,,,,,,,,,,,,,,,,,,,,,,,,,,,,,,,,,,,,
,,,,,,,,,,,,,,1,001,2025-01-02_23h37.22.720,IAT(Formal),2021.2.3,Win32,60.97560976,,,,,,,,,,,,,,,i,1,0.8177,0,43,43,67,1,他的,i,,,,,,,,,,,,,,,,,,,,,,,,,,,,,,,,,,,,,,,,,
,,,,,,,,,,,,,,1,001,2025-01-02_23h37.22.720,IAT(Formal),2021.2.3,Win32,60.97560976,,,,,,,,,,,,,,,i,1,0.5005,0,44,44,56,1,他们,i,,,,,,,,,,,,,,,,,,,,,,,,,,,,,,,,,,,,,,,,,
,,,,,,,,,,,,,,1,001,2025-01-02_23h37.22.720,IAT(Formal),2021.2.3,Win32,60.97560976,,,,,,,,,,,,,,,e,1,0.4352,0,45,45,52,1,我们,e,,,,,,,,,,,,,,,,,,,,,,,,,,,,,,,,,,,,,,,,,
,,,,,,,,,,,,,,1,001,2025-01-02_23h37.22.720,IAT(Formal),2021.2.3,Win32,60.97560976,,,,,,,,,,,,,,,e,1,0.5181,0,46,46,18,1,勤奋,e,,,,,,,,,,,,,,,,,,,,,,,,,,,,,,,,,,,,,,,,,
,,,,,,,,,,,,,,1,001,2025-01-02_23h37.22.720,IAT(Formal),2021.2.3,Win32,60.97560976,,,,,,,,,,,,,,,e,1,0.4897,0,47,47,16,1,正直,e,,,,,,,,,,,,,,,,,,,,,,,,,,,,,,,,,,,,,,,,,
,,,,,,,,,,,,,,1,001,2025-01-02_23h37.22.720,IAT(Formal),2021.2.3,Win32,60.97560976,,,,,,,,,,,,,,,e,1,0.4997,0,48,48,71,1,我的,e,,,,,,,,,,,,,,,,,,,,,,,,,,,,,,,,,,,,,,,,,
,,,,,,,,,,,,,,1,001,2025-01-02_23h37.22.720,IAT(Formal),2021.2.3,Win32,60.97560976,,,,,,,,,,,,,,,e,1,0.5009,0,49,49,28,1,活泼,e,,,,,,,,,,,,,,,,,,,,,,,,,,,,,,,,,,,,,,,,,
,,,,,,,,,,,,,,1,001,2025-01-02_23h37.22.720,IAT(Formal),2021.2.3,Win32,60.97560976,,,,,,,,,,,,,,,e,1,0.4431,0,50,50,12,1,聪明,e,,,,,,,,,,,,,,,,,,,,,,,,,,,,,,,,,,,,,,,,,
,,,,,,,,,,,,,,1,001,2025-01-02_23h37.22.720,IAT(Formal),2021.2.3,Win32,60.97560976,,,,,,,,,,,,,,,i,1,0.4693,0,51,51,66,1,他们,i,,,,,,,,,,,,,,,,,,,,,,,,,,,,,,,,,,,,,,,,,
,,,,,,,,,,,,,,1,001,2025-01-02_23h37.22.720,IAT(Formal),2021.2.3,Win32,60.97560976,,,,,,,,,,,,,,,e,0,0.5184,0,52,52,37,1,傲慢,i,,,,,,,,,,,,,,,,,,,,,,,,,,,,,,,,,,,,,,,,,
,,,,,,,,,,,,,,1,001,2025-01-02_23h37.22.720,IAT(Formal),2021.2.3,Win32,60.97560976,,,,,,,,,,,,,,,e,1,0.4685,0,53,53,19,1,机智,e,,,,,,,,,,,,,,,,,,,,,,,,,,,,,,,,,,,,,,,,,
,,,,,,,,,,,,,,1,001,2025-01-02_23h37.22.720,IAT(Formal),2021.2.3,Win32,60.97560976,,,,,,,,,,,,,,,i,1,0.5509,0,54,54,36,1,自卑,i,,,,,,,,,,,,,,,,,,,,,,,,,,,,,,,,,,,,,,,,,
,,,,,,,,,,,,,,1,001,2025-01-02_23h37.22.720,IAT(Formal),2021.2.3,Win32,60.97560976,,,,,,,,,,,,,,,e,1,0.5847,0,55,55,61,1,我的,e,,,,,,,,,,,,,,,,,,,,,,,,,,,,,,,,,,,,,,,,,
,,,,,,,,,,,,,,1,001,2025-01-02_23h37.22.720,IAT(Formal),2021.2.3,Win32,60.97560976,,,,,,,,,,,,,,,e,1,0.4251,0,56,56,62,1,我们,e,,,,,,,,,,,,,,,,,,,,,,,,,,,,,,,,,,,,,,,,,
,,,,,,,,,,,,,,1,001,2025-01-02_23h37.22.720,IAT(Formal),2021.2.3,Win32,60.97560976,,,,,,,,,,,,,,,e,1,0.5261,0,57,57,23,1,公正,e,,,,,,,,,,,,,,,,,,,,,,,,,,,,,,,,,,,,,,,,,
,,,,,,,,,,,,,,1,001,2025-01-02_23h37.22.720,IAT(Formal),2021.2.3,Win32,60.97560976,,,,,,,,,,,,,,,i,1,0.4841,0,58,58,9,1,其他,i,,,,,,,,,,,,,,,,,,,,,,,,,,,,,,,,,,,,,,,,,
,,,,,,,,,,,,,,1,001,2025-01-02_23h37.22.720,IAT(Formal),2021.2.3,Win32,60.97560976,,,,,,,,,,,,,,,e,1,0.5521,0,59,59,13,1,杰出,e,,,,,,,,,,,,,,,,,,,,,,,,,,,,,,,,,,,,,,,,,
,,,,,,,,,,,,,,1,001,2025-01-02_23h37.22.720,IAT(Formal),2021.2.3,Win32,60.97560976,,,,,,,,,,,,,,,i,0,0.5027,0,60,60,22,1,无私,e,,,,,,,,,,,,,,,,,,,,,,,,,,,,,,,,,,,,,,,,,
,,,,,,,,,,,,,,1,001,2025-01-02_23h37.22.720,IAT(Formal),2021.2.3,Win32,60.97560976,,,,,,,,,,,,,,,,0,,0,61,61,79,1,其他,i,,,,,,,,,,,,,,,,,,,,,,,,,,,,,,,,,,,,,,,,,
,,,,,,,,,,,,,,1,001,2025-01-02_23h37.22.720,IAT(Formal),2021.2.3,Win32,60.97560976,,,,,,,,,,,,,,,i,1,0.7705,0,62,62,38,1,鲁莽,i,,,,,,,,,,,,,,,,,,,,,,,,,,,,,,,,,,,,,,,,,
,,,,,,,,,,,,,,1,001,2025-01-02_23h37.22.720,IAT(Formal),2021.2.3,Win32,60.97560976,,,,,,,,,,,,,,,e,1,0.4761,0,63,63,3,1,自己,e,,,,,,,,,,,,,,,,,,,,,,,,,,,,,,,,,,,,,,,,,
,,,,,,,,,,,,,,1,001,2025-01-02_23h37.22.720,IAT(Formal),2021.2.3,Win32,60.97560976,,,,,,,,,,,,,,,e,1,0.501,0,64,64,15,1,诚实,e,,,,,,,,,,,,,,,,,,,,,,,,,,,,,,,,,,,,,,,,,
,,,,,,,,,,,,,,1,001,2025-01-02_23h37.22.720,IAT(Formal),2021.2.3,Win32,60.97560976,,,,,,,,,,,,,,,e,0,0.453,0,65,65,77,1,他的,i,,,,,,,,,,,,,,,,,,,,,,,,,,,,,,,,,,,,,,,,,
,,,,,,,,,,,,,,1,001,2025-01-02_23h37.22.720,IAT(Formal),2021.2.3,Win32,60.97560976,,,,,,,,,,,,,,,e,1,0.4028,0,66,66,17,1,勇敢,e,,,,,,,,,,,,,,,,,,,,,,,,,,,,,,,,,,,,,,,,,
,,,,,,,,,,,,,,1,001,2025-01-02_23h37.22.720,IAT(Formal),2021.2.3,Win32,60.97560976,,,,,,,,,,,,,,,i,1,0.5012,0,67,67,32,1,愚蠢,i,,,,,,,,,,,,,,,,,,,,,,,,,,,,,,,,,,,,,,,,,
,,,,,,,,,,,,,,1,001,2025-01-02_23h37.22.720,IAT(Formal),2021.2.3,Win32,60.97560976,,,,,,,,,,,,,,,i,1,0.4523,0,68,68,76,1,他们,i,,,,,,,,,,,,,,,,,,,,,,,,,,,,,,,,,,,,,,,,,
,,,,,,,,,,,,,,1,001,2025-01-02_23h37.22.720,IAT(Formal),2021.2.3,Win32,60.97560976,,,,,,,,,,,,,,,e,0,0.9183,0,69,69,40,1,执拗,i,,,,,,,,,,,,,,,,,,,,,,,,,,,,,,,,,,,,,,,,,
,,,,,,,,,,,,,,1,001,2025-01-02_23h37.22.720,IAT(Formal),2021.2.3,Win32,60.97560976,,,,,,,,,,,,,,,e,1,0.416,0,70,70,63,1,自己,e,,,,,,,,,,,,,,,,,,,,,,,,,,,,,,,,,,,,,,,,,
,,,,,,,,,,,,,,1,001,2025-01-02_23h37.22.720,IAT(Formal),2021.2.3,Win32,60.97560976,,,,,,,,,,,,,,,e,1,0.3514,0,71,71,72,1,我们,e,,,,,,,,,,,,,,,,,,,,,,,,,,,,,,,,,,,,,,,,,
,,,,,,,,,,,,,,1,001,2025-01-02_23h37.22.720,IAT(Formal),2021.2.3,Win32,60.97560976,,,,,,,,,,,,,,,e,1,0.3932,0,72,72,70,1,我,e,,,,,,,,,,,,,,,,,,,,,,,,,,,,,,,,,,,,,,,,,
,,,,,,,,,,,,,,1,001,2025-01-02_23h37.22.720,IAT(Formal),2021.2.3,Win32,60.97560976,,,,,,,,,,,,,,,i,1,0.4686,0,73,73,45,1,猖狂,i,,,,,,,,,,,,,,,,,,,,,,,,,,,,,,,,,,,,,,,,,
,,,,,,,,,,,,,,1,001,2025-01-02_23h37.22.720,IAT(Formal),2021.2.3,Win32,60.97560976,,,,,,,,,,,,,,,i,1,0.5343,0,74,74,46,1,野蛮,i,,,,,,,,,,,,,,,,,,,,,,,,,,,,,,,,,,,,,,,,,
,,,,,,,,,,,,,,1,001,2025-01-02_23h37.22.720,IAT(Formal),2021.2.3,Win32,60.97560976,,,,,,,,,,,,,,,e,0,0.4086,0,75,75,57,1,他的,i,,,,,,,,,,,,,,,,,,,,,,,,,,,,,,,,,,,,,,,,,
,,,,,,,,,,,,,,1,001,2025-01-02_23h37.22.720,IAT(Formal),2021.2.3,Win32,60.97560976,,,,,,,,,,,,,,,e,1,0.5189,0,76,76,11,1,崇高,e,,,,,,,,,,,,,,,,,,,,,,,,,,,,,,,,,,,,,,,,,
,,,,,,,,,,,,,,1,001,2025-01-02_23h37.22.720,IAT(Formal),2021.2.3,Win32,60.97560976,,,,,,,,,,,,,,,i,1,0.5946,0,77,77,34,1,悲观,i,,,,,,,,,,,,,,,,,,,,,,,,,,,,,,,,,,,,,,,,,
,,,,,,,,,,,,,,1,001,2025-01-02_23h37.22.720,IAT(Formal),2021.2.3,Win32,60.97560976,,,,,,,,,,,,,,,e,1,0.652,0,78,78,26,1,冷静,e,,,,,,,,,,,,,,,,,,,,,,,,,,,,,,,,,,,,,,,,,
,,,,,,,,,,,,,,1,001,2025-01-02_23h37.22.720,IAT(Formal),2021.2.3,Win32,60.97560976,,,,,,,,,,,,,,,e,1,0.601,0,79,79,29,1,诚恳,e,,,,,,,,,,,,,,,,,,,,,,,,,,,,,,,,,,,,,,,,,
,,,,,,,,,,,,,,1,001,2025-01-02_23h37.22.720,IAT(Formal),2021.2.3,Win32,60.97560976,,,,,,,,,,,,,,,e,1,0.6481,,,,,,无私,e,space,3.9351,0,0,0,22,1,,,,,,,,,,,,,,,,,,,,,,,,,,,,,,,,,,
,,,,,,,,,,,,,,1,001,2025-01-02_23h37.22.720,IAT(Formal),2021.2.3,Win32,60.97560976,,,,,,,,,,,,,,,i,1,0.5306,,,,,,消极,i,,,0,1,1,35,1,,,,,,,,,,,,,,,,,,,,,,,,,,,,,,,,,,
,,,,,,,,,,,,,,1,001,2025-01-02_23h37.22.720,IAT(Formal),2021.2.3,Win32,60.97560976,,,,,,,,,,,,,,,e,1,0.4989,,,,,,机智,e,,,0,2,2,19,1,,,,,,,,,,,,,,,,,,,,,,,,,,,,,,,,,,
,,,,,,,,,,,,,,1,001,2025-01-02_23h37.22.720,IAT(Formal),2021.2.3,Win32,60.97560976,,,,,,,,,,,,,,,e,1,0.5115,,,,,,自己,e,,,0,3,3,53,1,,,,,,,,,,,,,,,,,,,,,,,,,,,,,,,,,,
,,,,,,,,,,,,,,1,001,2025-01-02_23h37.22.720,IAT(Formal),2021.2.3,Win32,60.97560976,,,,,,,,,,,,,,,i,1,0.5,,,,,,自卑,i,,,0,4,4,36,1,,,,,,,,,,,,,,,,,,,,,,,,,,,,,,,,,,
,,,,,,,,,,,,,,1,001,2025-01-02_23h37.22.720,IAT(Formal),2021.2.3,Win32,60.97560976,,,,,,,,,,,,,,,e,1,0.453,,,,,,我们,e,,,0,5,5,62,1,,,,,,,,,,,,,,,,,,,,,,,,,,,,,,,,,,
,,,,,,,,,,,,,,1,001,2025-01-02_23h37.22.720,IAT(Formal),2021.2.3,Win32,60.97560976,,,,,,,,,,,,,,,i,1,0.4343,,,,,,虚伪,i,,,0,6,6,31,1,,,,,,,,,,,,,,,,,,,,,,,,,,,,,,,,,,
,,,,,,,,,,,,,,1,001,2025-01-02_23h37.22.720,IAT(Formal),2021.2.3,Win32,60.97560976,,,,,,,,,,,,,,,e,1,0.4352,,,,,,自己,e,,,0,7,7,63,1,,,,,,,,,,,,,,,,,,,,,,,,,,,,,,,,,,
,,,,,,,,,,,,,,1,001,2025-01-02_23h37.22.720,IAT(Formal),2021.2.3,Win32,60.97560976,,,,,,,,,,,,,,,e,1,0.5666,,,,,,乐观,e,,,0,8,8,14,1,,,,,,,,,,,,,,,,,,,,,,,,,,,,,,,,,,
,,,,,,,,,,,,,,1,001,2025-01-02_23h37.22.720,IAT(Formal),2021.2.3,Win32,60.97560976,,,,,,,,,,,,,,,e,1,0.5033,,,,,,我们,e,,,0,9,9,2,1,,,,,,,,,,,,,,,,,,,,,,,,,,,,,,,,,,
,,,,,,,,,,,,,,1,001,2025-01-02_23h37.22.720,IAT(Formal),2021.2.3,Win32,60.97560976,,,,,,,,,,,,,,,e,1,0.5678,,,,,,我,e,,,0,10,10,50,1,,,,,,,,,,,,,,,,,,,,,,,,,,,,,,,,,,
,,,,,,,,,,,,,,1,001,2025-01-02_23h37.22.720,IAT(Formal),2021.2.3,Win32,60.97560976,,,,,,,,,,,,,,,i,1,0.433,,,,,,下贱,i,,,0,11,11,49,1,,,,,,,,,,,,,,,,,,,,,,,,,,,,,,,,,,
,,,,,,,,,,,,,,1,001,2025-01-02_23h37.22.720,IAT(Formal),2021.2.3,Win32,60.97560976,,,,,,,,,,,,,,,i,1,0.5002,,,,,,他们,i,,,0,12,12,76,1,,,,,,,,,,,,,,,,,,,,,,,,,,,,,,,,,,
,,,,,,,,,,,,,,1,001,2025-01-02_23h37.22.720,IAT(Formal),2021.2.3,Win32,60.97560976,,,,,,,,,,,,,,,e,1,0.5373,,,,,,崇高,e,,,0,13,13,11,1,,,,,,,,,,,,,,,,,,,,,,,,,,,,,,,,,,
,,,,,,,,,,,,,,1,001,2025-01-02_23h37.22.720,IAT(Formal),2021.2.3,Win32,60.97560976,,,,,,,,,,,,,,,i,1,0.4336,,,,,,散漫,i,,,0,14,14,41,1,,,,,,,,,,,,,,,,,,,,,,,,,,,,,,,,,,
,,,,,,,,,,,,,,1,001,2025-01-02_23h37.22.720,IAT(Formal),2021.2.3,Win32,60.97560976,,,,,,,,,,,,,,,i,1,0.4184,,,,,,他的,i,,,0,15,15,77,1,,,,,,,,,,,,,,,,,,,,,,,,,,,,,,,,,,
,,,,,,,,,,,,,,1,001,2025-01-02_23h37.22.720,IAT(Formal),2021.2.3,Win32,60.97560976,,,,,,,,,,,,,,,e,1,0.6408,,,,,,稳重,e,,,0,16,16,21,1,,,,,,,,,,,,,,,,,,,,,,,,,,,,,,,,,,
,,,,,,,,,,,,,,1,001,2025-01-02_23h37.22.720,IAT(Formal),2021.2.3,Win32,60.97560976,,,,,,,,,,,,,,,e,1,0.5517,,,,,,我的,e,,,0,17,17,61,1,,,,,,,,,,,,,,,,,,,,,,,,,,,,,,,,,,
,,,,,,,,,,,,,,1,001,2025-01-02_23h37.22.720,IAT(Formal),2021.2.3,Win32,60.97560976,,,,,,,,,,,,,,,e,1,0.6086,,,,,,俺,e,,,0,18,18,64,1,,,,,,,,,,,,,,,,,,,,,,,,,,,,,,,,,,
,,,,,,,,,,,,,,1,001,2025-01-02_23h37.22.720,IAT(Formal),2021.2.3,Win32,60.97560976,,,,,,,,,,,,,,,e,1,0.6023,,,,,,勇敢,e,,,0,19,19,17,1,,,,,,,,,,,,,,,,,,,,,,,,,,,,,,,,,,
,,,,,,,,,,,,,,1,001,2025-01-02_23h37.22.720,IAT(Formal),2021.2.3,Win32,60.97560976,,,,,,,,,,,,,,,e,1,0.5184,,,,,,正直,e,,,0,20,20,16,1,,,,,,,,,,,,,,,,,,,,,,,,,,,,,,,,,,
,,,,,,,,,,,,,,1,001,2025-01-02_23h37.22.720,IAT(Formal),2021.2.3,Win32,60.97560976,,,,,,,,,,,,,,,e,1,0.5015,,,,,,聪明,e,,,0,21,21,12,1,,,,,,,,,,,,,,,,,,,,,,,,,,,,,,,,,,
,,,,,,,,,,,,,,1,001,2025-01-02_23h37.22.720,IAT(Formal),2021.2.3,Win32,60.97560976,,,,,,,,,,,,,,,e,1,0.5509,,,,,,杰出,e,,,0,22,22,13,1,,,,,,,,,,,,,,,,,,,,,,,,,,,,,,,,,,
,,,,,,,,,,,,,,1,001,2025-01-02_23h37.22.720,IAT(Formal),2021.2.3,Win32,60.97560976,,,,,,,,,,,,,,,i,1,0.5515,,,,,,他们,i,,,0,23,23,66,1,,,,,,,,,,,,,,,,,,,,,,,,,,,,,,,,,,
,,,,,,,,,,,,,,1,001,2025-01-02_23h37.22.720,IAT(Formal),2021.2.3,Win32,60.97560976,,,,,,,,,,,,,,,i,1,0.485,,,,,,他的,i,,,0,24,24,7,1,,,,,,,,,,,,,,,,,,,,,,,,,,,,,,,,,,
,,,,,,,,,,,,,,1,001,2025-01-02_23h37.22.720,IAT(Formal),2021.2.3,Win32,60.97560976,,,,,,,,,,,,,,,e,1,0.5858,,,,,,优秀,e,,,0,25,25,10,1,,,,,,,,,,,,,,,,,,,,,,,,,,,,,,,,,,
,,,,,,,,,,,,,,1,001,2025-01-02_23h37.22.720,IAT(Formal),2021.2.3,Win32,60.97560976,,,,,,,,,,,,,,,i,1,0.442,,,,,,凶狠,i,,,0,26,26,42,1,,,,,,,,,,,,,,,,,,,,,,,,,,,,,,,,,,
,,,,,,,,,,,,,,1,001,2025-01-02_23h37.22.720,IAT(Formal),2021.2.3,Win32,60.97560976,,,,,,,,,,,,,,,e,1,0.5517,,,,,,诚恳,e,,,0,27,27,29,1,,,,,,,,,,,,,,,,,,,,,,,,,,,,,,,,,,
,,,,,,,,,,,,,,1,001,2025-01-02_23h37.22.720,IAT(Formal),2021.2.3,Win32,60.97560976,,,,,,,,,,,,,,,e,1,0.49,,,,,,诚实,e,,,0,28,28,15,1,,,,,,,,,,,,,,,,,,,,,,,,,,,,,,,,,,
,,,,,,,,,,,,,,1,001,2025-01-02_23h37.22.720,IAT(Formal),2021.2.3,Win32,60.97560976,,,,,,,,,,,,,,,i,1,0.4505,,,,,,他人,i,,,0,29,29,8,1,,,,,,,,,,,,,,,,,,,,,,,,,,,,,,,,,,
,,,,,,,,,,,,,,1,001,2025-01-02_23h37.22.720,IAT(Formal),2021.2.3,Win32,60.97560976,,,,,,,,,,,,,,,i,1,0.4358,,,,,,其他,i,,,0,30,30,9,1,,,,,,,,,,,,,,,,,,,,,,,,,,,,,,,,,,
,,,,,,,,,,,,,,1,001,2025-01-02_23h37.22.720,IAT(Formal),2021.2.3,Win32,60.97560976,,,,,,,,,,,,,,,i,1,0.4186,,,,,,野蛮,i,,,0,31,31,46,1,,,,,,,,,,,,,,,,,,,,,,,,,,,,,,,,,,
,,,,,,,,,,,,,,1,001,2025-01-02_23h37.22.720,IAT(Formal),2021.2.3,Win32,60.97560976,,,,,,,,,,,,,,,i,1,0.4517,,,,,,执拗,i,,,0,32,32,40,1,,,,,,,,,,,,,,,,,,,,,,,,,,,,,,,,,,
,,,,,,,,,,,,,,1,001,2025-01-02_23h37.22.720,IAT(Formal),2021.2.3,Win32,60.97560976,,,,,,,,,,,,,,,i,1,0.5007,,,,,,其他,i,,,0,33,33,79,1,,,,,,,,,,,,,,,,,,,,,,,,,,,,,,,,,,
,,,,,,,,,,,,,,1,001,2025-01-02_23h37.22.720,IAT(Formal),2021.2.3,Win32,60.97560976,,,,,,,,,,,,,,,i,1,0.4353,,,,,,暴躁,i,,,0,34,34,44,1,,,,,,,,,,,,,,,,,,,,,,,,,,,,,,,,,,
,,,,,,,,,,,,,,1,001,2025-01-02_23h37.22.720,IAT(Formal),2021.2.3,Win32,60.97560976,,,,,,,,,,,,,,,e,1,0.5689,,,,,,热情,e,,,0,35,35,27,1,,,,,,,,,,,,,,,,,,,,,,,,,,,,,,,,,,
,,,,,,,,,,,,,,1,001,2025-01-02_23h37.22.720,IAT(Formal),2021.2.3,Win32,60.97560976,,,,,,,,,,,,,,,i,1,0.5684,,,,,,固执,i,,,0,36,36,47,1,,,,,,,,,,,,,,,,,,,,,,,,,,,,,,,,,,
,,,,,,,,,,,,,,1,001,2025-01-02_23h37.22.720,IAT(Formal),2021.2.3,Win32,60.97560976,,,,,,,,,,,,,,,i,1,0.5076,,,,,,自私,i,,,0,37,37,43,1,,,,,,,,,,,,,,,,,,,,,,,,,,,,,,,,,,
,,,,,,,,,,,,,,1,001,2025-01-02_23h37.22.720,IAT(Formal),2021.2.3,Win32,60.97560976,,,,,,,,,,,,,,,i,1,0.5189,,,,,,他的,i,,,0,38,38,67,1,,,,,,,,,,,,,,,,,,,,,,,,,,,,,,,,,,
,,,,,,,,,,,,,,1,001,2025-01-02_23h37.22.720,IAT(Formal),2021.2.3,Win32,60.97560976,,,,,,,,,,,,,,,e,1,0.5854,,,,,,公正,e,,,0,39,39,23,1,,,,,,,,,,,,,,,,,,,,,,,,,,,,,,,,,,
,,,,,,,,,,,,,,1,001,2025-01-02_23h37.22.720,IAT(Formal),2021.2.3,Win32,60.97560976,,,,,,,,,,,,,,,e,1,0.7685,,,,,,我的,e,,,0,40,40,71,1,,,,,,,,,,,,,,,,,,,,,,,,,,,,,,,,,,
,,,,,,,,,,,,,,1,001,2025-01-02_23h37.22.720,IAT(Formal),2021.2.3,Win32,60.97560976,,,,,,,,,,,,,,,i,1,0.4186,,,,,,他,i,,,0,41,41,65,1,,,,,,,,,,,,,,,,,,,,,,,,,,,,,,,,,,
,,,,,,,,,,,,,,1,001,2025-01-02_23h37.22.720,IAT(Formal),2021.2.3,Win32,60.97560976,,,,,,,,,,,,,,,e,1,0.4851,,,,,,我的,e,,,0,42,42,1,1,,,,,,,,,,,,,,,,,,,,,,,,,,,,,,,,,,
,,,,,,,,,,,,,,1,001,2025-01-02_23h37.22.720,IAT(Formal),2021.2.3,Win32,60.97560976,,,,,,,,,,,,,,,e,1,0.6404,,,,,,俺,e,,,0,43,43,74,1,,,,,,,,,,,,,,,,,,,,,,,,,,,,,,,,,,
,,,,,,,,,,,,,,1,001,2025-01-02_23h37.22.720,IAT(Formal),2021.2.3,Win32,60.97560976,,,,,,,,,,,,,,,i,1,0.5346,,,,,,冒失,i,,,0,44,44,39,1,,,,,,,,,,,,,,,,,,,,,,,,,,,,,,,,,,
,,,,,,,,,,,,,,1,001,2025-01-02_23h37.22.720,IAT(Formal),2021.2.3,Win32,60.97560976,,,,,,,,,,,,,,,e,1,0.6187,,,,,,冷静,e,,,0,45,45,26,1,,,,,,,,,,,,,,,,,,,,,,,,,,,,,,,,,,
,,,,,,,,,,,,,,1,001,2025-01-02_23h37.22.720,IAT(Formal),2021.2.3,Win32,60.97560976,,,,,,,,,,,,,,,i,1,0.5335,,,,,,他,i,,,0,46,46,5,1,,,,,,,,,,,,,,,,,,,,,,,,,,,,,,,,,,
,,,,,,,,,,,,,,1,001,2025-01-02_23h37.22.720,IAT(Formal),2021.2.3,Win32,60.97560976,,,,,,,,,,,,,,,e,1,0.6851,,,,,,朴实,e,,,0,47,47,24,1,,,,,,,,,,,,,,,,,,,,,,,,,,,,,,,,,,
,,,,,,,,,,,,,,1,001,2025-01-02_23h37.22.720,IAT(Formal),2021.2.3,Win32,60.97560976,,,,,,,,,,,,,,,e,1,0.5599,,,,,,活泼,e,,,0,48,48,28,1,,,,,,,,,,,,,,,,,,,,,,,,,,,,,,,,,,
,,,,,,,,,,,,,,1,001,2025-01-02_23h37.22.720,IAT(Formal),2021.2.3,Win32,60.97560976,,,,,,,,,,,,,,,i,1,0.5349,,,,,,他人,i,,,0,49,49,78,1,,,,,,,,,,,,,,,,,,,,,,,,,,,,,,,,,,
,,,,,,,,,,,,,,1,001,2025-01-02_23h37.22.720,IAT(Formal),2021.2.3,Win32,60.97560976,,,,,,,,,,,,,,,i,1,0.5343,,,,,,鲁莽,i,,,0,50,50,38,1,,,,,,,,,,,,,,,,,,,,,,,,,,,,,,,,,,
,,,,,,,,,,,,,,1,001,2025-01-02_23h37.22.720,IAT(Formal),2021.2.3,Win32,60.97560976,,,,,,,,,,,,,,,e,1,0.4417,,,,,,自己,e,,,0,51,51,73,1,,,,,,,,,,,,,,,,,,,,,,,,,,,,,,,,,,
,,,,,,,,,,,,,,1,001,2025-01-02_23h37.22.720,IAT(Formal),2021.2.3,Win32,60.97560976,,,,,,,,,,,,,,,i,1,0.652,,,,,,傲慢,i,,,0,52,52,37,1,,,,,,,,,,,,,,,,,,,,,,,,,,,,,,,,,,
,,,,,,,,,,,,,,1,001,2025-01-02_23h37.22.720,IAT(Formal),2021.2.3,Win32,60.97560976,,,,,,,,,,,,,,,i,1,0.558,,,,,,他们,i,,,0,53,53,6,1,,,,,,,,,,,,,,,,,,,,,,,,,,,,,,,,,,
,,,,,,,,,,,,,,1,001,2025-01-02_23h37.22.720,IAT(Formal),2021.2.3,Win32,60.97560976,,,,,,,,,,,,,,,e,1,0.4515,,,,,,我的,e,,,0,54,54,51,1,,,,,,,,,,,,,,,,,,,,,,,,,,,,,,,,,,
,,,,,,,,,,,,,,1,001,2025-01-02_23h37.22.720,IAT(Formal),2021.2.3,Win32,60.97560976,,,,,,,,,,,,,,,i,1,0.5508,,,,,,他,i,,,0,55,55,55,1,,,,,,,,,,,,,,,,,,,,,,,,,,,,,,,,,,
,,,,,,,,,,,,,,1,001,2025-01-02_23h37.22.720,IAT(Formal),2021.2.3,Win32,60.97560976,,,,,,,,,,,,,,,e,1,0.5852,,,,,,我,e,,,0,56,56,0,1,,,,,,,,,,,,,,,,,,,,,,,,,,,,,,,,,,
,,,,,,,,,,,,,,1,001,2025-01-02_23h37.22.720,IAT(Formal),2021.2.3,Win32,60.97560976,,,,,,,,,,,,,,,e,1,0.5345,,,,,,认真,e,,,0,57,57,20,1,,,,,,,,,,,,,,,,,,,,,,,,,,,,,,,,,,
,,,,,,,,,,,,,,1,001,2025-01-02_23h37.22.720,IAT(Formal),2021.2.3,Win32,60.97560976,,,,,,,,,,,,,,,e,1,0.5363,,,,,,我们,e,,,0,58,58,72,1,,,,,,,,,,,,,,,,,,,,,,,,,,,,,,,,,,
,,,,,,,,,,,,,,1,001,2025-01-02_23h37.22.720,IAT(Formal),2021.2.3,Win32,60.97560976,,,,,,,,,,,,,,,i,1,0.6255,,,,,,轻率,i,,,0,59,59,48,1,,,,,,,,,,,,,,,,,,,,,,,,,,,,,,,,,,
,,,,,,,,,,,,,,1,001,2025-01-02_23h37.22.720,IAT(Formal),2021.2.3,Win32,60.97560976,,,,,,,,,,,,,,,e,1,0.5519,,,,,,勤奋,e,,,0,60,60,18,1,,,,,,,,,,,,,,,,,,,,,,,,,,,,,,,,,,
,,,,,,,,,,,,,,1,001,2025-01-02_23h37.22.720,IAT(Formal),2021.2.3,Win32,60.97560976,,,,,,,,,,,,,,,i,1,0.7167,,,,,,卑鄙,i,,,0,61,61,30,1,,,,,,,,,,,,,,,,,,,,,,,,,,,,,,,,,,
,,,,,,,,,,,,,,1,001,2025-01-02_23h37.22.720,IAT(Formal),2021.2.3,Win32,60.97560976,,,,,,,,,,,,,,,i,1,0.6021,,,,,,他人,i,,,0,62,62,68,1,,,,,,,,,,,,,,,,,,,,,,,,,,,,,,,,,,
,,,,,,,,,,,,,,1,001,2025-01-02_23h37.22.720,IAT(Formal),2021.2.3,Win32,60.97560976,,,,,,,,,,,,,,,i,1,0.5502,,,,,,他们,i,,,0,63,63,56,1,,,,,,,,,,,,,,,,,,,,,,,,,,,,,,,,,,
,,,,,,,,,,,,,,1,001,2025-01-02_23h37.22.720,IAT(Formal),2021.2.3,Win32,60.97560976,,,,,,,,,,,,,,,i,1,0.6698,,,,,,悲观,i,,,0,64,64,34,1,,,,,,,,,,,,,,,,,,,,,,,,,,,,,,,,,,
,,,,,,,,,,,,,,1,001,2025-01-02_23h37.22.720,IAT(Formal),2021.2.3,Win32,60.97560976,,,,,,,,,,,,,,,e,1,0.5024,,,,,,我,e,,,0,65,65,60,1,,,,,,,,,,,,,,,,,,,,,,,,,,,,,,,,,,
,,,,,,,,,,,,,,1,001,2025-01-02_23h37.22.720,IAT(Formal),2021.2.3,Win32,60.97560976,,,,,,,,,,,,,,,i,1,0.608,,,,,,猖狂,i,,,0,66,66,45,1,,,,,,,,,,,,,,,,,,,,,,,,,,,,,,,,,,
,,,,,,,,,,,,,,1,001,2025-01-02_23h37.22.720,IAT(Formal),2021.2.3,Win32,60.97560976,,,,,,,,,,,,,,,i,1,0.5689,,,,,,刻薄,i,,,0,67,67,33,1,,,,,,,,,,,,,,,,,,,,,,,,,,,,,,,,,,
,,,,,,,,,,,,,,1,001,2025-01-02_23h37.22.720,IAT(Formal),2021.2.3,Win32,60.97560976,,,,,,,,,,,,,,,e,1,0.5856,,,,,,俺,e,,,0,68,68,54,1,,,,,,,,,,,,,,,,,,,,,,,,,,,,,,,,,,
,,,,,,,,,,,,,,1,001,2025-01-02_23h37.22.720,IAT(Formal),2021.2.3,Win32,60.97560976,,,,,,,,,,,,,,,e,0,0.6932,,,,,,他人,i,,,0,69,69,58,1,,,,,,,,,,,,,,,,,,,,,,,,,,,,,,,,,,
,,,,,,,,,,,,,,1,001,2025-01-02_23h37.22.720,IAT(Formal),2021.2.3,Win32,60.97560976,,,,,,,,,,,,,,,i,1,0.5686,,,,,,其他,i,,,0,70,70,69,1,,,,,,,,,,,,,,,,,,,,,,,,,,,,,,,,,,
,,,,,,,,,,,,,,1,001,2025-01-02_23h37.22.720,IAT(Formal),2021.2.3,Win32,60.97560976,,,,,,,,,,,,,,,e,1,0.5339,,,,,,俺,e,,,0,71,71,4,1,,,,,,,,,,,,,,,,,,,,,,,,,,,,,,,,,,
,,,,,,,,,,,,,,1,001,2025-01-02_23h37.22.720,IAT(Formal),2021.2.3,Win32,60.97560976,,,,,,,,,,,,,,,i,1,0.585,,,,,,他的,i,,,0,72,72,57,1,,,,,,,,,,,,,,,,,,,,,,,,,,,,,,,,,,
,,,,,,,,,,,,,,1,001,2025-01-02_23h37.22.720,IAT(Formal),2021.2.3,Win32,60.97560976,,,,,,,,,,,,,,,e,1,0.5185,,,,,,我们,e,,,0,73,73,52,1,,,,,,,,,,,,,,,,,,,,,,,,,,,,,,,,,,
,,,,,,,,,,,,,,1,001,2025-01-02_23h37.22.720,IAT(Formal),2021.2.3,Win32,60.97560976,,,,,,,,,,,,,,,e,1,0.735,,,,,,细腻,e,,,0,74,74,25,1,,,,,,,,,,,,,,,,,,,,,,,,,,,,,,,,,,
,,,,,,,,,,,,,,1,001,2025-01-02_23h37.22.720,IAT(Formal),2021.2.3,Win32,60.97560976,,,,,,,,,,,,,,,i,1,0.6419,,,,,,愚蠢,i,,,0,75,75,32,1,,,,,,,,,,,,,,,,,,,,,,,,,,,,,,,,,,
,,,,,,,,,,,,,,1,001,2025-01-02_23h37.22.720,IAT(Formal),2021.2.3,Win32,60.97560976,,,,,,,,,,,,,,,e,1,0.8349,,,,,,自己,e,,,0,76,76,3,1,,,,,,,,,,,,,,,,,,,,,,,,,,,,,,,,,,
,,,,,,,,,,,,,,1,001,2025-01-02_23h37.22.720,IAT(Formal),2021.2.3,Win32,60.97560976,,,,,,,,,,,,,,,e,1,0.8528,,,,,,我,e,,,0,77,77,70,1,,,,,,,,,,,,,,,,,,,,,,,,,,,,,,,,,,
,,,,,,,,,,,,,,1,001,2025-01-02_23h37.22.720,IAT(Formal),2021.2.3,Win32,60.97560976,,,,,,,,,,,,,,,i,1,0.5523,,,,,,他,i,,,0,78,78,75,1,,,,,,,,,,,,,,,,,,,,,,,,,,,,,,,,,,
,,,,,,,,,,,,,,1,001,2025-01-02_23h37.22.720,IAT(Formal),2021.2.3,Win32,60.97560976,,,,,,,,,,,,,,,i,1,0.7184,,,,,,其他,i,,,0,79,79,59,1,,,,,,,,,,,,,,,,,,,,,,,,,,,,,,,,,,
,,,,,,,,,,,,,,1,001,2025-01-02_23h37.22.720,IAT(Formal),2021.2.3,Win32,60.97560976,,,,,,,,,,,,,,,e,1,0.5689,,,,,,诚实,e,,,1,0,80,15,1,,,,,,,,,,,,,,,,,,,,,,,,,,,,,,,,,,
,,,,,,,,,,,,,,1,001,2025-01-02_23h37.22.720,IAT(Formal),2021.2.3,Win32,60.97560976,,,,,,,,,,,,,,,e,1,0.6906,,,,,,细腻,e,,,1,1,81,25,1,,,,,,,,,,,,,,,,,,,,,,,,,,,,,,,,,,
,,,,,,,,,,,,,,1,001,2025-01-02_23h37.22.720,IAT(Formal),2021.2.3,Win32,60.97560976,,,,,,,,,,,,,,,e,1,0.617,,,,,,热情,e,,,1,2,82,27,1,,,,,,,,,,,,,,,,,,,,,,,,,,,,,,,,,,
,,,,,,,,,,,,,,1,001,2025-01-02_23h37.22.720,IAT(Formal),2021.2.3,Win32,60.97560976,,,,,,,,,,,,,,,i,1,0.6019,,,,,,散漫,i,,,1,3,83,41,1,,,,,,,,,,,,,,,,,,,,,,,,,,,,,,,,,,
,,,,,,,,,,,,,,1,001,2025-01-02_23h37.22.720,IAT(Formal),2021.2.3,Win32,60.97560976,,,,,,,,,,,,,,,e,1,0.593,,,,,,杰出,e,,,1,4,84,13,1,,,,,,,,,,,,,,,,,,,,,,,,,,,,,,,,,,
,,,,,,,,,,,,,,1,001,2025-01-02_23h37.22.720,IAT(Formal),2021.2.3,Win32,60.97560976,,,,,,,,,,,,,,,e,1,0.6836,,,,,,自己,e,,,1,5,85,53,1,,,,,,,,,,,,,,,,,,,,,,,,,,,,,,,,,,
,,,,,,,,,,,,,,1,001,2025-01-02_23h37.22.720,IAT(Formal),2021.2.3,Win32,60.97560976,,,,,,,,,,,,,,,i,1,0.8071,,,,,,他们,i,,,1,6,86,66,1,,,,,,,,,,,,,,,,,,,,,,,,,,,,,,,,,,
,,,,,,,,,,,,,,1,001,2025-01-02_23h37.22.720,IAT(Formal),2021.2.3,Win32,60.97560976,,,,,,,,,,,,,,,i,1,0.8009,,,,,,他,i,,,1,7,87,55,1,,,,,,,,,,,,,,,,,,,,,,,,,,,,,,,,,,
,,,,,,,,,,,,,,1,001,2025-01-02_23h37.22.720,IAT(Formal),2021.2.3,Win32,60.97560976,,,,,,,,,,,,,,,i,1,0.684,,,,,,猖狂,i,,,1,8,88,45,1,,,,,,,,,,,,,,,,,,,,,,,,,,,,,,,,,,
,,,,,,,,,,,,,,1,001,2025-01-02_23h37.22.720,IAT(Formal),2021.2.3,Win32,60.97560976,,,,,,,,,,,,,,,e,1,0.635,,,,,,我,e,,,1,9,89,50,1,,,,,,,,,,,,,,,,,,,,,,,,,,,,,,,,,,
,,,,,,,,,,,,,,1,001,2025-01-02_23h37.22.720,IAT(Formal),2021.2.3,Win32,60.97560976,,,,,,,,,,,,,,,e,1,0.6744,,,,,,俺,e,,,1,10,90,74,1,,,,,,,,,,,,,,,,,,,,,,,,,,,,,,,,,,
,,,,,,,,,,,,,,1,001,2025-01-02_23h37.22.720,IAT(Formal),2021.2.3,Win32,60.97560976,,,,,,,,,,,,,,,i,1,0.5735,,,,,,他的,i,,,1,11,91,57,1,,,,,,,,,,,,,,,,,,,,,,,,,,,,,,,,,,
,,,,,,,,,,,,,,1,001,2025-01-02_23h37.22.720,IAT(Formal),2021.2.3,Win32,60.97560976,,,,,,,,,,,,,,,i,1,0.5831,,,,,,虚伪,i,,,1,12,92,31,1,,,,,,,,,,,,,,,,,,,,,,,,,,,,,,,,,,
,,,,,,,,,,,,,,1,001,2025-01-02_23h37.22.720,IAT(Formal),2021.2.3,Win32,60.97560976,,,,,,,,,,,,,,,e,1,0.4904,,,,,,聪明,e,,,1,13,93,12,1,,,,,,,,,,,,,,,,,,,,,,,,,,,,,,,,,,
,,,,,,,,,,,,,,1,001,2025-01-02_23h37.22.720,IAT(Formal),2021.2.3,Win32,60.97560976,,,,,,,,,,,,,,,e,1,0.5412,,,,,,勤奋,e,,,1,14,94,18,1,,,,,,,,,,,,,,,,,,,,,,,,,,,,,,,,,,
,,,,,,,,,,,,,,1,001,2025-01-02_23h37.22.720,IAT(Formal),2021.2.3,Win32,60.97560976,,,,,,,,,,,,,,,i,1,0.6335,,,,,,他,i,,,1,15,95,75,1,,,,,,,,,,,,,,,,,,,,,,,,,,,,,,,,,,
,,,,,,,,,,,,,,1,001,2025-01-02_23h37.22.720,IAT(Formal),2021.2.3,Win32,60.97560976,,,,,,,,,,,,,,,e,1,0.5992,,,,,,崇高,e,,,1,16,96,11,1,,,,,,,,,,,,,,,,,,,,,,,,,,,,,,,,,,
,,,,,,,,,,,,,,1,001,2025-01-02_23h37.22.720,IAT(Formal),2021.2.3,Win32,60.97560976,,,,,,,,,,,,,,,i,1,0.5594,,,,,,刻薄,i,,,1,17,97,33,1,,,,,,,,,,,,,,,,,,,,,,,,,,,,,,,,,,
,,,,,,,,,,,,,,1,001,2025-01-02_23h37.22.720,IAT(Formal),2021.2.3,Win32,60.97560976,,,,,,,,,,,,,,,e,1,0.5516,,,,,,我,e,,,1,18,98,60,1,,,,,,,,,,,,,,,,,,,,,,,,,,,,,,,,,,
,,,,,,,,,,,,,,1,001,2025-01-02_23h37.22.720,IAT(Formal),2021.2.3,Win32,60.97560976,,,,,,,,,,,,,,,i,1,0.9777,,,,,,消极,i,,,1,19,99,35,1,,,,,,,,,,,,,,,,,,,,,,,,,,,,,,,,,,
,,,,,,,,,,,,,,1,001,2025-01-02_23h37.22.720,IAT(Formal),2021.2.3,Win32,60.97560976,,,,,,,,,,,,,,,e,1,0.5516,,,,,,活泼,e,,,1,20,100,28,1,,,,,,,,,,,,,,,,,,,,,,,,,,,,,,,,,,
,,,,,,,,,,,,,,1,001,2025-01-02_23h37.22.720,IAT(Formal),2021.2.3,Win32,60.97560976,,,,,,,,,,,,,,,i,1,0.5665,,,,,,其他,i,,,1,21,101,69,1,,,,,,,,,,,,,,,,,,,,,,,,,,,,,,,,,,
,,,,,,,,,,,,,,1,001,2025-01-02_23h37.22.720,IAT(Formal),2021.2.3,Win32,60.97560976,,,,,,,,,,,,,,,e,1,0.9045,,,,,,我的,e,,,1,22,102,71,1,,,,,,,,,,,,,,,,,,,,,,,,,,,,,,,,,,
,,,,,,,,,,,,,,1,001,2025-01-02_23h37.22.720,IAT(Formal),2021.2.3,Win32,60.97560976,,,,,,,,,,,,,,,e,1,0.5558,,,,,,公正,e,,,1,23,103,23,1,,,,,,,,,,,,,,,,,,,,,,,,,,,,,,,,,,
,,,,,,,,,,,,,,1,001,2025-01-02_23h37.22.720,IAT(Formal),2021.2.3,Win32,60.97560976,,,,,,,,,,,,,,,i,1,0.4911,,,,,,他的,i,,,1,24,104,67,1,,,,,,,,,,,,,,,,,,,,,,,,,,,,,,,,,,
,,,,,,,,,,,,,,1,001,2025-01-02_23h37.22.720,IAT(Formal),2021.2.3,Win32,60.97560976,,,,,,,,,,,,,,,i,1,0.5189,,,,,,他人,i,,,1,25,105,78,1,,,,,,,,,,,,,,,,,,,,,,,,,,,,,,,,,,
,,,,,,,,,,,,,,1,001,2025-01-02_23h37.22.720,IAT(Formal),2021.2.3,Win32,60.97560976,,,,,,,,,,,,,,,e,1,0.4014,,,,,,我们,e,,,1,26,106,62,1,,,,,,,,,,,,,,,,,,,,,,,,,,,,,,,,,,
,,,,,,,,,,,,,,1,001,2025-01-02_23h37.22.720,IAT(Formal),2021.2.3,Win32,60.97560976,,,,,,,,,,,,,,,i,1,0.5333,,,,,,他们,i,,,1,27,107,76,1,,,,,,,,,,,,,,,,,,,,,,,,,,,,,,,,,,
,,,,,,,,,,,,,,1,001,2025-01-02_23h37.22.720,IAT(Formal),2021.2.3,Win32,60.97560976,,,,,,,,,,,,,,,e,1,0.5355,,,,,,俺,e,,,1,28,108,4,1,,,,,,,,,,,,,,,,,,,,,,,,,,,,,,,,,,
,,,,,,,,,,,,,,1,001,2025-01-02_23h37.22.720,IAT(Formal),2021.2.3,Win32,60.97560976,,,,,,,,,,,,,,,i,1,0.8017,,,,,,他人,i,,,1,29,109,8,1,,,,,,,,,,,,,,,,,,,,,,,,,,,,,,,,,,
,,,,,,,,,,,,,,1,001,2025-01-02_23h37.22.720,IAT(Formal),2021.2.3,Win32,60.97560976,,,,,,,,,,,,,,,i,1,0.4867,,,,,,凶狠,i,,,1,30,110,42,1,,,,,,,,,,,,,,,,,,,,,,,,,,,,,,,,,,
,,,,,,,,,,,,,,1,001,2025-01-02_23h37.22.720,IAT(Formal),2021.2.3,Win32,60.97560976,,,,,,,,,,,,,,,i,1,0.6853,,,,,,他们,i,,,1,31,111,6,1,,,,,,,,,,,,,,,,,,,,,,,,,,,,,,,,,,
,,,,,,,,,,,,,,1,001,2025-01-02_23h37.22.720,IAT(Formal),2021.2.3,Win32,60.97560976,,,,,,,,,,,,,,,i,1,0.3845,,,,,,他的,i,,,1,32,112,7,1,,,,,,,,,,,,,,,,,,,,,,,,,,,,,,,,,,
,,,,,,,,,,,,,,1,001,2025-01-02_23h37.22.720,IAT(Formal),2021.2.3,Win32,60.97560976,,,,,,,,,,,,,,,e,1,0.4335,,,,,,我们,e,,,1,33,113,52,1,,,,,,,,,,,,,,,,,,,,,,,,,,,,,,,,,,
,,,,,,,,,,,,,,1,001,2025-01-02_23h37.22.720,IAT(Formal),2021.2.3,Win32,60.97560976,,,,,,,,,,,,,,,i,1,0.5491,,,,,,野蛮,i,,,1,34,114,46,1,,,,,,,,,,,,,,,,,,,,,,,,,,,,,,,,,,
,,,,,,,,,,,,,,1,001,2025-01-02_23h37.22.720,IAT(Formal),2021.2.3,Win32,60.97560976,,,,,,,,,,,,,,,i,1,0.4524,,,,,,自卑,i,,,1,35,115,36,1,,,,,,,,,,,,,,,,,,,,,,,,,,,,,,,,,,
,,,,,,,,,,,,,,1,001,2025-01-02_23h37.22.720,IAT(Formal),2021.2.3,Win32,60.97560976,,,,,,,,,,,,,,,e,1,0.4364,,,,,,自己,e,,,1,36,116,63,1,,,,,,,,,,,,,,,,,,,,,,,,,,,,,,,,,,
,,,,,,,,,,,,,,1,001,2025-01-02_23h37.22.720,IAT(Formal),2021.2.3,Win32,60.97560976,,,,,,,,,,,,,,,e,1,0.4024,,,,,,我的,e,,,1,37,117,1,1,,,,,,,,,,,,,,,,,,,,,,,,,,,,,,,,,,
,,,,,,,,,,,,,,1,001,2025-01-02_23h37.22.720,IAT(Formal),2021.2.3,Win32,60.97560976,,,,,,,,,,,,,,,e,1,0.5274,,,,,,朴实,e,,,1,38,118,24,1,,,,,,,,,,,,,,,,,,,,,,,,,,,,,,,,,,
,,,,,,,,,,,,,,1,001,2025-01-02_23h37.22.720,IAT(Formal),2021.2.3,Win32,60.97560976,,,,,,,,,,,,,,,e,1,0.4704,,,,,,我,e,,,1,39,119,70,1,,,,,,,,,,,,,,,,,,,,,,,,,,,,,,,,,,
,,,,,,,,,,,,,,1,001,2025-01-02_23h37.22.720,IAT(Formal),2021.2.3,Win32,60.97560976,,,,,,,,,,,,,,,i,1,0.4447,,,,,,其他,i,,,1,40,120,9,1,,,,,,,,,,,,,,,,,,,,,,,,,,,,,,,,,,
,,,,,,,,,,,,,,1,001,2025-01-02_23h37.22.720,IAT(Formal),2021.2.3,Win32,60.97560976,,,,,,,,,,,,,,,i,1,0.5179,,,,,,卑鄙,i,,,1,41,121,30,1,,,,,,,,,,,,,,,,,,,,,,,,,,,,,,,,,,
,,,,,,,,,,,,,,1,001,2025-01-02_23h37.22.720,IAT(Formal),2021.2.3,Win32,60.97560976,,,,,,,,,,,,,,,i,1,0.5134,,,,,,他人,i,,,1,42,122,68,1,,,,,,,,,,,,,,,,,,,,,,,,,,,,,,,,,,
,,,,,,,,,,,,,,1,001,2025-01-02_23h37.22.720,IAT(Formal),2021.2.3,Win32,60.97560976,,,,,,,,,,,,,,,e,1,0.4161,,,,,,我们,e,,,1,43,123,72,1,,,,,,,,,,,,,,,,,,,,,,,,,,,,,,,,,,
,,,,,,,,,,,,,,1,001,2025-01-02_23h37.22.720,IAT(Formal),2021.2.3,Win32,60.97560976,,,,,,,,,,,,,,,e,0,0.4516,,,,,,固执,i,,,1,44,124,47,1,,,,,,,,,,,,,,,,,,,,,,,,,,,,,,,,,,
,,,,,,,,,,,,,,1,001,2025-01-02_23h37.22.720,IAT(Formal),2021.2.3,Win32,60.97560976,,,,,,,,,,,,,,,e,1,0.5335,,,,,,诚恳,e,,,1,45,125,29,1,,,,,,,,,,,,,,,,,,,,,,,,,,,,,,,,,,
,,,,,,,,,,,,,,1,001,2025-01-02_23h37.22.720,IAT(Formal),2021.2.3,Win32,60.97560976,,,,,,,,,,,,,,,i,1,0.432,,,,,,他们,i,,,1,46,126,56,1,,,,,,,,,,,,,,,,,,,,,,,,,,,,,,,,,,
,,,,,,,,,,,,,,1,001,2025-01-02_23h37.22.720,IAT(Formal),2021.2.3,Win32,60.97560976,,,,,,,,,,,,,,,e,1,0.5616,,,,,,我的,e,,,1,47,127,51,1,,,,,,,,,,,,,,,,,,,,,,,,,,,,,,,,,,
,,,,,,,,,,,,,,1,001,2025-01-02_23h37.22.720,IAT(Formal),2021.2.3,Win32,60.97560976,,,,,,,,,,,,,,,e,1,0.6848,,,,,,勇敢,e,,,1,48,128,17,1,,,,,,,,,,,,,,,,,,,,,,,,,,,,,,,,,,
,,,,,,,,,,,,,,1,001,2025-01-02_23h37.22.720,IAT(Formal),2021.2.3,Win32,60.97560976,,,,,,,,,,,,,,,e,1,0.5706,,,,,,乐观,e,,,1,49,129,14,1,,,,,,,,,,,,,,,,,,,,,,,,,,,,,,,,,,
,,,,,,,,,,,,,,1,001,2025-01-02_23h37.22.720,IAT(Formal),2021.2.3,Win32,60.97560976,,,,,,,,,,,,,,,e,1,0.5209,,,,,,我的,e,,,1,50,130,61,1,,,,,,,,,,,,,,,,,,,,,,,,,,,,,,,,,,
,,,,,,,,,,,,,,1,001,2025-01-02_23h37.22.720,IAT(Formal),2021.2.3,Win32,60.97560976,,,,,,,,,,,,,,,i,1,0.4031,,,,,,其他,i,,,1,51,131,79,1,,,,,,,,,,,,,,,,,,,,,,,,,,,,,,,,,,
,,,,,,,,,,,,,,1,001,2025-01-02_23h37.22.720,IAT(Formal),2021.2.3,Win32,60.97560976,,,,,,,,,,,,,,,i,1,0.5122,,,,,,轻率,i,,,1,52,132,48,1,,,,,,,,,,,,,,,,,,,,,,,,,,,,,,,,,,
,,,,,,,,,,,,,,1,001,2025-01-02_23h37.22.720,IAT(Formal),2021.2.3,Win32,60.97560976,,,,,,,,,,,,,,,e,1,0.6003,,,,,,冷静,e,,,1,53,133,26,1,,,,,,,,,,,,,,,,,,,,,,,,,,,,,,,,,,
,,,,,,,,,,,,,,1,001,2025-01-02_23h37.22.720,IAT(Formal),2021.2.3,Win32,60.97560976,,,,,,,,,,,,,,,i,1,0.5829,,,,,,鲁莽,i,,,1,54,134,38,1,,,,,,,,,,,,,,,,,,,,,,,,,,,,,,,,,,
,,,,,,,,,,,,,,1,001,2025-01-02_23h37.22.720,IAT(Formal),2021.2.3,Win32,60.97560976,,,,,,,,,,,,,,,e,1,0.6666,,,,,,我,e,,,1,55,135,0,1,,,,,,,,,,,,,,,,,,,,,,,,,,,,,,,,,,
,,,,,,,,,,,,,,1,001,2025-01-02_23h37.22.720,IAT(Formal),2021.2.3,Win32,60.97560976,,,,,,,,,,,,,,,e,1,0.59,,,,,,俺,e,,,1,56,136,64,1,,,,,,,,,,,,,,,,,,,,,,,,,,,,,,,,,,
,,,,,,,,,,,,,,1,001,2025-01-02_23h37.22.720,IAT(Formal),2021.2.3,Win32,60.97560976,,,,,,,,,,,,,,,i,1,0.5829,,,,,,暴躁,i,,,1,57,137,44,1,,,,,,,,,,,,,,,,,,,,,,,,,,,,,,,,,,
,,,,,,,,,,,,,,1,001,2025-01-02_23h37.22.720,IAT(Formal),2021.2.3,Win32,60.97560976,,,,,,,,,,,,,,,e,0,0.6965,,,,,,他人,i,,,1,58,138,58,1,,,,,,,,,,,,,,,,,,,,,,,,,,,,,,,,,,
,,,,,,,,,,,,,,1,001,2025-01-02_23h37.22.720,IAT(Formal),2021.2.3,Win32,60.97560976,,,,,,,,,,,,,,,e,1,0.4327,,,,,,机智,e,,,1,59,139,19,1,,,,,,,,,,,,,,,,,,,,,,,,,,,,,,,,,,
,,,,,,,,,,,,,,1,001,2025-01-02_23h37.22.720,IAT(Formal),2021.2.3,Win32,60.97560976,,,,,,,,,,,,,,,e,1,0.6337,,,,,,无私,e,,,1,60,140,22,1,,,,,,,,,,,,,,,,,,,,,,,,,,,,,,,,,,
,,,,,,,,,,,,,,1,001,2025-01-02_23h37.22.720,IAT(Formal),2021.2.3,Win32,60.97560976,,,,,,,,,,,,,,,i,1,0.6648,,,,,,自私,i,,,1,61,141,43,1,,,,,,,,,,,,,,,,,,,,,,,,,,,,,,,,,,
,,,,,,,,,,,,,,1,001,2025-01-02_23h37.22.720,IAT(Formal),2021.2.3,Win32,60.97560976,,,,,,,,,,,,,,,e,1,0.419,,,,,,我们,e,,,1,62,142,2,1,,,,,,,,,,,,,,,,,,,,,,,,,,,,,,,,,,
,,,,,,,,,,,,,,1,001,2025-01-02_23h37.22.720,IAT(Formal),2021.2.3,Win32,60.97560976,,,,,,,,,,,,,,,i,1,0.6873,,,,,,傲慢,i,,,1,63,143,37,1,,,,,,,,,,,,,,,,,,,,,,,,,,,,,,,,,,
,,,,,,,,,,,,,,1,001,2025-01-02_23h37.22.720,IAT(Formal),2021.2.3,Win32,60.97560976,,,,,,,,,,,,,,,e,1,0.5469,,,,,,自己,e,,,1,64,144,3,1,,,,,,,,,,,,,,,,,,,,,,,,,,,,,,,,,,
,,,,,,,,,,,,,,1,001,2025-01-02_23h37.22.720,IAT(Formal),2021.2.3,Win32,60.97560976,,,,,,,,,,,,,,,e,1,0.5174,,,,,,认真,e,,,1,65,145,20,1,,,,,,,,,,,,,,,,,,,,,,,,,,,,,,,,,,
,,,,,,,,,,,,,,1,001,2025-01-02_23h37.22.720,IAT(Formal),2021.2.3,Win32,60.97560976,,,,,,,,,,,,,,,i,1,0.6825,,,,,,悲观,i,,,1,66,146,34,1,,,,,,,,,,,,,,,,,,,,,,,,,,,,,,,,,,
,,,,,,,,,,,,,,1,001,2025-01-02_23h37.22.720,IAT(Formal),2021.2.3,Win32,60.97560976,,,,,,,,,,,,,,,e,0,0.7325,,,,,,他的,i,,,1,67,147,77,1,,,,,,,,,,,,,,,,,,,,,,,,,,,,,,,,,,
,,,,,,,,,,,,,,1,001,2025-01-02_23h37.22.720,IAT(Formal),2021.2.3,Win32,60.97560976,,,,,,,,,,,,,,,e,1,0.8999,,,,,,稳重,e,,,1,68,148,21,1,,,,,,,,,,,,,,,,,,,,,,,,,,,,,,,,,,
,,,,,,,,,,,,,,1,001,2025-01-02_23h37.22.720,IAT(Formal),2021.2.3,Win32,60.97560976,,,,,,,,,,,,,,,i,1,0.6344,,,,,,他,i,,,1,69,149,5,1,,,,,,,,,,,,,,,,,,,,,,,,,,,,,,,,,,
,,,,,,,,,,,,,,1,001,2025-01-02_23h37.22.720,IAT(Formal),2021.2.3,Win32,60.97560976,,,,,,,,,,,,,,,i,1,0.9345,,,,,,执拗,i,,,1,70,150,40,1,,,,,,,,,,,,,,,,,,,,,,,,,,,,,,,,,,
,,,,,,,,,,,,,,1,001,2025-01-02_23h37.22.720,IAT(Formal),2021.2.3,Win32,60.97560976,,,,,,,,,,,,,,,i,1,0.5678,,,,,,他,i,,,1,71,151,65,1,,,,,,,,,,,,,,,,,,,,,,,,,,,,,,,,,,
,,,,,,,,,,,,,,1,001,2025-01-02_23h37.22.720,IAT(Formal),2021.2.3,Win32,60.97560976,,,,,,,,,,,,,,,i,1,0.5889,,,,,,冒失,i,,,1,72,152,39,1,,,,,,,,,,,,,,,,,,,,,,,,,,,,,,,,,,
,,,,,,,,,,,,,,1,001,2025-01-02_23h37.22.720,IAT(Formal),2021.2.3,Win32,60.97560976,,,,,,,,,,,,,,,e,1,0.5507,,,,,,俺,e,,,1,73,153,54,1,,,,,,,,,,,,,,,,,,,,,,,,,,,,,,,,,,
,,,,,,,,,,,,,,1,001,2025-01-02_23h37.22.720,IAT(Formal),2021.2.3,Win32,60.97560976,,,,,,,,,,,,,,,i,1,0.4993,,,,,,愚蠢,i,,,1,74,154,32,1,,,,,,,,,,,,,,,,,,,,,,,,,,,,,,,,,,
,,,,,,,,,,,,,,1,001,2025-01-02_23h37.22.720,IAT(Formal),2021.2.3,Win32,60.97560976,,,,,,,,,,,,,,,e,1,0.7275,,,,,,正直,e,,,1,75,155,16,1,,,,,,,,,,,,,,,,,,,,,,,,,,,,,,,,,,
,,,,,,,,,,,,,,1,001,2025-01-02_23h37.22.720,IAT(Formal),2021.2.3,Win32,60.97560976,,,,,,,,,,,,,,,i,1,1.0804,,,,,,其他,i,,,1,76,156,59,1,,,,,,,,,,,,,,,,,,,,,,,,,,,,,,,,,,
,,,,,,,,,,,,,,1,001,2025-01-02_23h37.22.720,IAT(Formal),2021.2.3,Win32,60.97560976,,,,,,,,,,,,,,,e,1,0.763,,,,,,自己,e,,,1,77,157,73,1,,,,,,,,,,,,,,,,,,,,,,,,,,,,,,,,,,
,,,,,,,,,,,,,,1,001,2025-01-02_23h37.22.720,IAT(Formal),2021.2.3,Win32,60.97560976,,,,,,,,,,,,,,,i,1,0.9002,,,,,,下贱,i,,,1,78,158,49,1,,,,,,,,,,,,,,,,,,,,,,,,,,,,,,,,,,
,,,,,,,,,,,,,,1,001,2025-01-02_23h37.22.720,IAT(Formal),2021.2.3,Win32,60.97560976,,,,,,,,,,,,,,,e,1,0.415,,,,,,优秀,e,,,1,79,159,10,1,,,,,,,,,,,,,,,,,,,,,,,,,,,,,,,,,,
,,,,,,,,,,,,自己,i,1,001,2025-01-02_23h37.22.720,IAT(Formal),2021.2.3,Win32,60.97560976,,,,,,,,,,,,,,,,,,,,,,,,,,,,,,,,space,4.9412,i,1,0.8009,0,0,0,3,1,,,,,,,,,,,,,,,,,,,,,,,,
,,,,,,,,,,,,我的,i,1,001,2025-01-02_23h37.22.720,IAT(Formal),2021.2.3,Win32,60.97560976,,,,,,,,,,,,,,,,,,,,,,,,,,,,,,,,,,i,1,0.5842,0,1,1,1,1,,,,,,,,,,,,,,,,,,,,,,,,
,,,,,,,,,,,,我们,i,1,001,2025-01-02_23h37.22.720,IAT(Formal),2021.2.3,Win32,60.97560976,,,,,,,,,,,,,,,,,,,,,,,,,,,,,,,,,,i,1,0.5827,0,2,2,2,1,,,,,,,,,,,,,,,,,,,,,,,,
,,,,,,,,,,,,他,e,1,001,2025-01-02_23h37.22.720,IAT(Formal),2021.2.3,Win32,60.97560976,,,,,,,,,,,,,,,,,,,,,,,,,,,,,,,,,,e,1,0.4171,0,3,3,5,1,,,,,,,,,,,,,,,,,,,,,,,,
,,,,,,,,,,,,我,i,1,001,2025-01-02_23h37.22.720,IAT(Formal),2021.2.3,Win32,60.97560976,,,,,,,,,,,,,,,,,,,,,,,,,,,,,,,,,,i,1,0.4163,0,4,4,0,1,,,,,,,,,,,,,,,,,,,,,,,,
,,,,,,,,,,,,他人,e,1,001,2025-01-02_23h37.22.720,IAT(Formal),2021.2.3,Win32,60.97560976,,,,,,,,,,,,,,,,,,,,,,,,,,,,,,,,,,e,1,0.3993,0,5,5,8,1,,,,,,,,,,,,,,,,,,,,,,,,
,,,,,,,,,,,,他的,e,1,001,2025-01-02_23h37.22.720,IAT(Formal),2021.2.3,Win32,60.97560976,,,,,,,,,,,,,,,,,,,,,,,,,,,,,,,,,,e,1,0.484,0,6,6,7,1,,,,,,,,,,,,,,,,,,,,,,,,
,,,,,,,,,,,,俺,i,1,001,2025-01-02_23h37.22.720,IAT(Formal),2021.2.3,Win32,60.97560976,,,,,,,,,,,,,,,,,,,,,,,,,,,,,,,,,,i,1,0.5169,0,7,7,4,1,,,,,,,,,,,,,,,,,,,,,,,,
,,,,,,,,,,,,他们,e,1,001,2025-01-02_23h37.22.720,IAT(Formal),2021.2.3,Win32,60.97560976,,,,,,,,,,,,,,,,,,,,,,,,,,,,,,,,,,e,1,0.5328,0,8,8,6,1,,,,,,,,,,,,,,,,,,,,,,,,
,,,,,,,,,,,,其他,e,1,001,2025-01-02_23h37.22.720,IAT(Formal),2021.2.3,Win32,60.97560976,,,,,,,,,,,,,,,,,,,,,,,,,,,,,,,,,,e,1,0.5824,0,9,9,9,1,,,,,,,,,,,,,,,,,,,,,,,,
,,,,,,,,,,,,,,1,001,2025-01-02_23h37.22.720,IAT(Formal),2021.2.3,Win32,60.97560976,,,,,,,,,,,,,,,,,,,,,,,,,,,,,,,,,,,,,,,,,,space,0.9974,i,0,0.6904,0,0,0,11,1,崇高,e,,,,,,,,,,,,
,,,,,,,,,,,,,,1,001,2025-01-02_23h37.22.720,IAT(Formal),2021.2.3,Win32,60.97560976,,,,,,,,,,,,,,,,,,,,,,,,,,,,,,,,,,,,,,,,,,,,e,0,0.6341,0,1,1,2,1,我们,i,,,,,,,,,,,,
,,,,,,,,,,,,,,1,001,2025-01-02_23h37.22.720,IAT(Formal),2021.2.3,Win32,60.97560976,,,,,,,,,,,,,,,,,,,,,,,,,,,,,,,,,,,,,,,,,,,,e,1,1.3775,0,2,2,9,1,其他,e,,,,,,,,,,,,
,,,,,,,,,,,,,,1,001,2025-01-02_23h37.22.720,IAT(Formal),2021.2.3,Win32,60.97560976,,,,,,,,,,,,,,,,,,,,,,,,,,,,,,,,,,,,,,,,,,,,i,0,0.6383,0,3,3,16,1,正直,e,,,,,,,,,,,,
,,,,,,,,,,,,,,1,001,2025-01-02_23h37.22.720,IAT(Formal),2021.2.3,Win32,60.97560976,,,,,,,,,,,,,,,,,,,,,,,,,,,,,,,,,,,,,,,,,,,,i,1,0.8436,0,4,4,61,1,我的,i,,,,,,,,,,,,
,,,,,,,,,,,,,,1,001,2025-01-02_23h37.22.720,IAT(Formal),2021.2.3,Win32,60.97560976,,,,,,,,,,,,,,,,,,,,,,,,,,,,,,,,,,,,,,,,,,,,i,1,0.7509,0,5,5,30,1,卑鄙,i,,,,,,,,,,,,
,,,,,,,,,,,,,,1,001,2025-01-02_23h37.22.720,IAT(Formal),2021.2.3,Win32,60.97560976,,,,,,,,,,,,,,,,,,,,,,,,,,,,,,,,,,,,,,,,,,,,i,1,0.6401,0,6,6,1,1,我的,i,,,,,,,,,,,,
,,,,,,,,,,,,,,1,001,2025-01-02_23h37.22.720,IAT(Formal),2021.2.3,Win32,60.97560976,,,,,,,,,,,,,,,,,,,,,,,,,,,,,,,,,,,,,,,,,,,,e,1,0.5238,0,7,7,10,1,优秀,e,,,,,,,,,,,,
,,,,,,,,,,,,,,1,001,2025-01-02_23h37.22.720,IAT(Formal),2021.2.3,Win32,60.97560976,,,,,,,,,,,,,,,,,,,,,,,,,,,,,,,,,,,,,,,,,,,,e,1,0.5565,0,8,8,18,1,勤奋,e,,,,,,,,,,,,
,,,,,,,,,,,,,,1,001,2025-01-02_23h37.22.720,IAT(Formal),2021.2.3,Win32,60.97560976,,,,,,,,,,,,,,,,,,,,,,,,,,,,,,,,,,,,,,,,,,,,e,1,0.9503,0,9,9,57,1,他的,e,,,,,,,,,,,,
,,,,,,,,,,,,,,1,001,2025-01-02_23h37.22.720,IAT(Formal),2021.2.3,Win32,60.97560976,,,,,,,,,,,,,,,,,,,,,,,,,,,,,,,,,,,,,,,,,,,,e,1,0.4673,0,10,10,77,1,他的,e,,,,,,,,,,,,
,,,,,,,,,,,,,,1,001,2025-01-02_23h37.22.720,IAT(Formal),2021.2.3,Win32,60.97560976,,,,,,,,,,,,,,,,,,,,,,,,,,,,,,,,,,,,,,,,,,,,e,0,0.5161,0,11,11,50,1,我,i,,,,,,,,,,,,
,,,,,,,,,,,,,,1,001,2025-01-02_23h37.22.720,IAT(Formal),2021.2.3,Win32,60.97560976,,,,,,,,,,,,,,,,,,,,,,,,,,,,,,,,,,,,,,,,,,,,e,1,0.5871,0,12,12,25,1,细腻,e,,,,,,,,,,,,
,,,,,,,,,,,,,,1,001,2025-01-02_23h37.22.720,IAT(Formal),2021.2.3,Win32,60.97560976,,,,,,,,,,,,,,,,,,,,,,,,,,,,,,,,,,,,,,,,,,,,i,1,0.803,0,13,13,37,1,傲慢,i,,,,,,,,,,,,
,,,,,,,,,,,,,,1,001,2025-01-02_23h37.22.720,IAT(Formal),2021.2.3,Win32,60.97560976,,,,,,,,,,,,,,,,,,,,,,,,,,,,,,,,,,,,,,,,,,,,i,1,0.736,0,14,14,45,1,猖狂,i,,,,,,,,,,,,
,,,,,,,,,,,,,,1,001,2025-01-02_23h37.22.720,IAT(Formal),2021.2.3,Win32,60.97560976,,,,,,,,,,,,,,,,,,,,,,,,,,,,,,,,,,,,,,,,,,,,i,1,0.5024,0,15,15,60,1,我,i,,,,,,,,,,,,
,,,,,,,,,,,,,,1,001,2025-01-02_23h37.22.720,IAT(Formal),2021.2.3,Win32,60.97560976,,,,,,,,,,,,,,,,,,,,,,,,,,,,,,,,,,,,,,,,,,,,i,1,0.5221,0,16,16,72,1,我们,i,,,,,,,,,,,,
,,,,,,,,,,,,,,1,001,2025-01-02_23h37.22.720,IAT(Formal),2021.2.3,Win32,60.97560976,,,,,,,,,,,,,,,,,,,,,,,,,,,,,,,,,,,,,,,,,,,,i,1,0.6348,0,17,17,64,1,俺,i,,,,,,,,,,,,
,,,,,,,,,,,,,,1,001,2025-01-02_23h37.22.720,IAT(Formal),2021.2.3,Win32,60.97560976,,,,,,,,,,,,,,,,,,,,,,,,,,,,,,,,,,,,,,,,,,,,i,1,0.6159,0,18,18,31,1,虚伪,i,,,,,,,,,,,,
,,,,,,,,,,,,,,1,001,2025-01-02_23h37.22.720,IAT(Formal),2021.2.3,Win32,60.97560976,,,,,,,,,,,,,,,,,,,,,,,,,,,,,,,,,,,,,,,,,,,,e,1,0.4828,0,19,19,23,1,公正,e,,,,,,,,,,,,
,,,,,,,,,,,,,,1,001,2025-01-02_23h37.22.720,IAT(Formal),2021.2.3,Win32,60.97560976,,,,,,,,,,,,,,,,,,,,,,,,,,,,,,,,,,,,,,,,,,,,i,1,0.6522,0,20,20,39,1,冒失,i,,,,,,,,,,,,
,,,,,,,,,,,,,,1,001,2025-01-02_23h37.22.720,IAT(Formal),2021.2.3,Win32,60.97560976,,,,,,,,,,,,,,,,,,,,,,,,,,,,,,,,,,,,,,,,,,,,i,1,0.6672,0,21,21,33,1,刻薄,i,,,,,,,,,,,,
,,,,,,,,,,,,,,1,001,2025-01-02_23h37.22.720,IAT(Formal),2021.2.3,Win32,60.97560976,,,,,,,,,,,,,,,,,,,,,,,,,,,,,,,,,,,,,,,,,,,,e,0,0.9527,0,22,22,62,1,我们,i,,,,,,,,,,,,
,,,,,,,,,,,,,,1,001,2025-01-02_23h37.22.720,IAT(Formal),2021.2.3,Win32,60.97560976,,,,,,,,,,,,,,,,,,,,,,,,,,,,,,,,,,,,,,,,,,,,i,1,0.6852,0,23,23,3,1,自己,i,,,,,,,,,,,,
,,,,,,,,,,,,,,1,001,2025-01-02_23h37.22.720,IAT(Formal),2021.2.3,Win32,60.97560976,,,,,,,,,,,,,,,,,,,,,,,,,,,,,,,,,,,,,,,,,,,,e,1,0.535,0,24,24,78,1,他人,e,,,,,,,,,,,,
,,,,,,,,,,,,,,1,001,2025-01-02_23h37.22.720,IAT(Formal),2021.2.3,Win32,60.97560976,,,,,,,,,,,,,,,,,,,,,,,,,,,,,,,,,,,,,,,,,,,,e,1,0.5852,0,25,25,6,1,他们,e,,,,,,,,,,,,
,,,,,,,,,,,,,,1,001,2025-01-02_23h37.22.720,IAT(Formal),2021.2.3,Win32,60.97560976,,,,,,,,,,,,,,,,,,,,,,,,,,,,,,,,,,,,,,,,,,,,e,1,0.6345,0,26,26,24,1,朴实,e,,,,,,,,,,,,
,,,,,,,,,,,,,,1,001,2025-01-02_23h37.22.720,IAT(Formal),2021.2.3,Win32,60.97560976,,,,,,,,,,,,,,,,,,,,,,,,,,,,,,,,,,,,,,,,,,,,i,1,0.8332,0,27,27,51,1,我的,i,,,,,,,,,,,,
,,,,,,,,,,,,,,1,001,2025-01-02_23h37.22.720,IAT(Formal),2021.2.3,Win32,60.97560976,,,,,,,,,,,,,,,,,,,,,,,,,,,,,,,,,,,,,,,,,,,,i,1,0.5854,0,28,28,32,1,愚蠢,i,,,,,,,,,,,,
,,,,,,,,,,,,,,1,001,2025-01-02_23h37.22.720,IAT(Formal),2021.2.3,Win32,60.97560976,,,,,,,,,,,,,,,,,,,,,,,,,,,,,,,,,,,,,,,,,,,,e,1,0.7094,0,29,29,67,1,他的,e,,,,,,,,,,,,
,,,,,,,,,,,,,,1,001,2025-01-02_23h37.22.720,IAT(Formal),2021.2.3,Win32,60.97560976,,,,,,,,,,,,,,,,,,,,,,,,,,,,,,,,,,,,,,,,,,,,e,1,0.7346,0,30,30,21,1,稳重,e,,,,,,,,,,,,
,,,,,,,,,,,,,,1,001,2025-01-02_23h37.22.720,IAT(Formal),2021.2.3,Win32,60.97560976,,,,,,,,,,,,,,,,,,,,,,,,,,,,,,,,,,,,,,,,,,,,i,1,0.5336,0,31,31,38,1,鲁莽,i,,,,,,,,,,,,
,,,,,,,,,,,,,,1,001,2025-01-02_23h37.22.720,IAT(Formal),2021.2.3,Win32,60.97560976,,,,,,,,,,,,,,,,,,,,,,,,,,,,,,,,,,,,,,,,,,,,i,1,0.5359,0,32,32,52,1,我们,i,,,,,,,,,,,,
,,,,,,,,,,,,,,1,001,2025-01-02_23h37.22.720,IAT(Formal),2021.2.3,Win32,60.97560976,,,,,,,,,,,,,,,,,,,,,,,,,,,,,,,,,,,,,,,,,,,,i,1,0.6413,0,33,33,49,1,下贱,i,,,,,,,,,,,,
,,,,,,,,,,,,,,1,001,2025-01-02_23h37.22.720,IAT(Formal),2021.2.3,Win32,60.97560976,,,,,,,,,,,,,,,,,,,,,,,,,,,,,,,,,,,,,,,,,,,,e,1,0.6691,0,34,34,22,1,无私,e,,,,,,,,,,,,
,,,,,,,,,,,,,,1,001,2025-01-02_23h37.22.720,IAT(Formal),2021.2.3,Win32,60.97560976,,,,,,,,,,,,,,,,,,,,,,,,,,,,,,,,,,,,,,,,,,,,e,1,0.4182,0,35,35,65,1,他,e,,,,,,,,,,,,
,,,,,,,,,,,,,,1,001,2025-01-02_23h37.22.720,IAT(Formal),2021.2.3,Win32,60.97560976,,,,,,,,,,,,,,,,,,,,,,,,,,,,,,,,,,,,,,,,,,,,i,1,0.5018,0,36,36,63,1,自己,i,,,,,,,,,,,,
,,,,,,,,,,,,,,1,001,2025-01-02_23h37.22.720,IAT(Formal),2021.2.3,Win32,60.97560976,,,,,,,,,,,,,,,,,,,,,,,,,,,,,,,,,,,,,,,,,,,,i,1,0.5507,0,37,37,41,1,散漫,i,,,,,,,,,,,,
,,,,,,,,,,,,,,1,001,2025-01-02_23h37.22.720,IAT(Formal),2021.2.3,Win32,60.97560976,,,,,,,,,,,,,,,,,,,,,,,,,,,,,,,,,,,,,,,,,,,,e,1,0.6577,0,38,38,68,1,他人,e,,,,,,,,,,,,
,,,,,,,,,,,,,,1,001,2025-01-02_23h37.22.720,IAT(Formal),2021.2.3,Win32,60.97560976,,,,,,,,,,,,,,,,,,,,,,,,,,,,,,,,,,,,,,,,,,,,i,1,0.6858,0,39,39,73,1,自己,i,,,,,,,,,,,,
,,,,,,,,,,,,,,1,001,2025-01-02_23h37.22.720,IAT(Formal),2021.2.3,Win32,60.97560976,,,,,,,,,,,,,,,,,,,,,,,,,,,,,,,,,,,,,,,,,,,,i,1,1.4006,0,40,40,0,1,我,i,,,,,,,,,,,,
,,,,,,,,,,,,,,1,001,2025-01-02_23h37.22.720,IAT(Formal),2021.2.3,Win32,60.97560976,,,,,,,,,,,,,,,,,,,,,,,,,,,,,,,,,,,,,,,,,,,,e,1,0.6068,0,41,41,76,1,他们,e,,,,,,,,,,,,
,,,,,,,,,,,,,,1,001,2025-01-02_23h37.22.720,IAT(Formal),2021.2.3,Win32,60.97560976,,,,,,,,,,,,,,,,,,,,,,,,,,,,,,,,,,,,,,,,,,,,e,1,0.9351,0,42,42,59,1,其他,e,,,,,,,,,,,,
,,,,,,,,,,,,,,1,001,2025-01-02_23h37.22.720,IAT(Formal),2021.2.3,Win32,60.97560976,,,,,,,,,,,,,,,,,,,,,,,,,,,,,,,,,,,,,,,,,,,,e,1,0.6701,0,43,43,79,1,其他,e,,,,,,,,,,,,
,,,,,,,,,,,,,,1,001,2025-01-02_23h37.22.720,IAT(Formal),2021.2.3,Win32,60.97560976,,,,,,,,,,,,,,,,,,,,,,,,,,,,,,,,,,,,,,,,,,,,i,1,0.6156,0,44,44,35,1,消极,i,,,,,,,,,,,,
,,,,,,,,,,,,,,1,001,2025-01-02_23h37.22.720,IAT(Formal),2021.2.3,Win32,60.97560976,,,,,,,,,,,,,,,,,,,,,,,,,,,,,,,,,,,,,,,,,,,,e,0,0.8333,0,45,45,47,1,固执,i,,,,,,,,,,,,
,,,,,,,,,,,,,,1,001,2025-01-02_23h37.22.720,IAT(Formal),2021.2.3,Win32,60.97560976,,,,,,,,,,,,,,,,,,,,,,,,,,,,,,,,,,,,,,,,,,,,i,1,0.48,0,46,46,42,1,凶狠,i,,,,,,,,,,,,
,,,,,,,,,,,,,,1,001,2025-01-02_23h37.22.720,IAT(Formal),2021.2.3,Win32,60.97560976,,,,,,,,,,,,,,,,,,,,,,,,,,,,,,,,,,,,,,,,,,,,i,1,0.8209,0,47,47,43,1,自私,i,,,,,,,,,,,,
,,,,,,,,,,,,,,1,001,2025-01-02_23h37.22.720,IAT(Formal),2021.2.3,Win32,60.97560976,,,,,,,,,,,,,,,,,,,,,,,,,,,,,,,,,,,,,,,,,,,,i,1,0.7246,0,48,48,40,1,执拗,i,,,,,,,,,,,,
,,,,,,,,,,,,,,1,001,2025-01-02_23h37.22.720,IAT(Formal),2021.2.3,Win32,60.97560976,,,,,,,,,,,,,,,,,,,,,,,,,,,,,,,,,,,,,,,,,,,,i,1,0.7262,0,49,49,48,1,轻率,i,,,,,,,,,,,,
,,,,,,,,,,,,,,1,001,2025-01-02_23h37.22.720,IAT(Formal),2021.2.3,Win32,60.97560976,,,,,,,,,,,,,,,,,,,,,,,,,,,,,,,,,,,,,,,,,,,,e,0,0.7517,0,50,50,74,1,俺,i,,,,,,,,,,,,
,,,,,,,,,,,,,,1,001,2025-01-02_23h37.22.720,IAT(Formal),2021.2.3,Win32,60.97560976,,,,,,,,,,,,,,,,,,,,,,,,,,,,,,,,,,,,,,,,,,,,i,1,0.5512,0,51,51,53,1,自己,i,,,,,,,,,,,,
,,,,,,,,,,,,,,1,001,2025-01-02_23h37.22.720,IAT(Formal),2021.2.3,Win32,60.97560976,,,,,,,,,,,,,,,,,,,,,,,,,,,,,,,,,,,,,,,,,,,,e,1,0.4186,0,52,52,8,1,他人,e,,,,,,,,,,,,
,,,,,,,,,,,,,,1,001,2025-01-02_23h37.22.720,IAT(Formal),2021.2.3,Win32,60.97560976,,,,,,,,,,,,,,,,,,,,,,,,,,,,,,,,,,,,,,,,,,,,e,1,0.5258,0,53,53,20,1,认真,e,,,,,,,,,,,,
,,,,,,,,,,,,,,1,001,2025-01-02_23h37.22.720,IAT(Formal),2021.2.3,Win32,60.97560976,,,,,,,,,,,,,,,,,,,,,,,,,,,,,,,,,,,,,,,,,,,,e,1,0.6517,0,54,54,66,1,他们,e,,,,,,,,,,,,
,,,,,,,,,,,,,,1,001,2025-01-02_23h37.22.720,IAT(Formal),2021.2.3,Win32,60.97560976,,,,,,,,,,,,,,,,,,,,,,,,,,,,,,,,,,,,,,,,,,,,e,1,0.4569,0,55,55,75,1,他,e,,,,,,,,,,,,
,,,,,,,,,,,,,,1,001,2025-01-02_23h37.22.720,IAT(Formal),2021.2.3,Win32,60.97560976,,,,,,,,,,,,,,,,,,,,,,,,,,,,,,,,,,,,,,,,,,,,e,1,0.5417,0,56,56,58,1,他人,e,,,,,,,,,,,,
,,,,,,,,,,,,,,1,001,2025-01-02_23h37.22.720,IAT(Formal),2021.2.3,Win32,60.97560976,,,,,,,,,,,,,,,,,,,,,,,,,,,,,,,,,,,,,,,,,,,,e,1,0.5847,0,57,57,12,1,聪明,e,,,,,,,,,,,,
,,,,,,,,,,,,,,1,001,2025-01-02_23h37.22.720,IAT(Formal),2021.2.3,Win32,60.97560976,,,,,,,,,,,,,,,,,,,,,,,,,,,,,,,,,,,,,,,,,,,,e,1,0.5483,0,58,58,26,1,冷静,e,,,,,,,,,,,,
,,,,,,,,,,,,,,1,001,2025-01-02_23h37.22.720,IAT(Formal),2021.2.3,Win32,60.97560976,,,,,,,,,,,,,,,,,,,,,,,,,,,,,,,,,,,,,,,,,,,,e,1,0.5558,0,59,59,5,1,他,e,,,,,,,,,,,,
,,,,,,,,,,,,,,1,001,2025-01-02_23h37.22.720,IAT(Formal),2021.2.3,Win32,60.97560976,,,,,,,,,,,,,,,,,,,,,,,,,,,,,,,,,,,,,,,,,,,,i,1,0.6512,0,60,60,34,1,悲观,i,,,,,,,,,,,,
,,,,,,,,,,,,,,1,001,2025-01-02_23h37.22.720,IAT(Formal),2021.2.3,Win32,60.97560976,,,,,,,,,,,,,,,,,,,,,,,,,,,,,,,,,,,,,,,,,,,,i,1,0.4029,0,61,61,71,1,我的,i,,,,,,,,,,,,
,,,,,,,,,,,,,,1,001,2025-01-02_23h37.22.720,IAT(Formal),2021.2.3,Win32,60.97560976,,,,,,,,,,,,,,,,,,,,,,,,,,,,,,,,,,,,,,,,,,,,e,1,0.6898,0,62,62,29,1,诚恳,e,,,,,,,,,,,,
,,,,,,,,,,,,,,1,001,2025-01-02_23h37.22.720,IAT(Formal),2021.2.3,Win32,60.97560976,,,,,,,,,,,,,,,,,,,,,,,,,,,,,,,,,,,,,,,,,,,,e,1,0.4845,0,63,63,27,1,热情,e,,,,,,,,,,,,
,,,,,,,,,,,,,,1,001,2025-01-02_23h37.22.720,IAT(Formal),2021.2.3,Win32,60.97560976,,,,,,,,,,,,,,,,,,,,,,,,,,,,,,,,,,,,,,,,,,,,i,1,0.4696,0,64,64,44,1,暴躁,i,,,,,,,,,,,,
,,,,,,,,,,,,,,1,001,2025-01-02_23h37.22.720,IAT(Formal),2021.2.3,Win32,60.97560976,,,,,,,,,,,,,,,,,,,,,,,,,,,,,,,,,,,,,,,,,,,,i,1,0.5407,0,65,65,46,1,野蛮,i,,,,,,,,,,,,
,,,,,,,,,,,,,,1,001,2025-01-02_23h37.22.720,IAT(Formal),2021.2.3,Win32,60.97560976,,,,,,,,,,,,,,,,,,,,,,,,,,,,,,,,,,,,,,,,,,,,e,1,0.5615,0,66,66,28,1,活泼,e,,,,,,,,,,,,
,,,,,,,,,,,,,,1,001,2025-01-02_23h37.22.720,IAT(Formal),2021.2.3,Win32,60.97560976,,,,,,,,,,,,,,,,,,,,,,,,,,,,,,,,,,,,,,,,,,,,e,1,0.6184,0,67,67,15,1,诚实,e,,,,,,,,,,,,
,,,,,,,,,,,,,,1,001,2025-01-02_23h37.22.720,IAT(Formal),2021.2.3,Win32,60.97560976,,,,,,,,,,,,,,,,,,,,,,,,,,,,,,,,,,,,,,,,,,,,e,0,0.5893,0,68,68,4,1,俺,i,,,,,,,,,,,,
,,,,,,,,,,,,,,1,001,2025-01-02_23h37.22.720,IAT(Formal),2021.2.3,Win32,60.97560976,,,,,,,,,,,,,,,,,,,,,,,,,,,,,,,,,,,,,,,,,,,,e,1,0.8195,0,69,69,55,1,他,e,,,,,,,,,,,,
,,,,,,,,,,,,,,1,001,2025-01-02_23h37.22.720,IAT(Formal),2021.2.3,Win32,60.97560976,,,,,,,,,,,,,,,,,,,,,,,,,,,,,,,,,,,,,,,,,,,,e,1,0.6856,0,70,70,7,1,他的,e,,,,,,,,,,,,
,,,,,,,,,,,,,,1,001,2025-01-02_23h37.22.720,IAT(Formal),2021.2.3,Win32,60.97560976,,,,,,,,,,,,,,,,,,,,,,,,,,,,,,,,,,,,,,,,,,,,e,1,0.6881,0,71,71,14,1,乐观,e,,,,,,,,,,,,
,,,,,,,,,,,,,,1,001,2025-01-02_23h37.22.720,IAT(Formal),2021.2.3,Win32,60.97560976,,,,,,,,,,,,,,,,,,,,,,,,,,,,,,,,,,,,,,,,,,,,i,0,0.5919,0,72,72,69,1,其他,e,,,,,,,,,,,,
,,,,,,,,,,,,,,1,001,2025-01-02_23h37.22.720,IAT(Formal),2021.2.3,Win32,60.97560976,,,,,,,,,,,,,,,,,,,,,,,,,,,,,,,,,,,,,,,,,,,,i,1,0.8914,0,73,73,70,1,我,i,,,,,,,,,,,,
,,,,,,,,,,,,,,1,001,2025-01-02_23h37.22.720,IAT(Formal),2021.2.3,Win32,60.97560976,,,,,,,,,,,,,,,,,,,,,,,,,,,,,,,,,,,,,,,,,,,,e,1,0.6915,0,74,74,17,1,勇敢,e,,,,,,,,,,,,
,,,,,,,,,,,,,,1,001,2025-01-02_23h37.22.720,IAT(Formal),2021.2.3,Win32,60.97560976,,,,,,,,,,,,,,,,,,,,,,,,,,,,,,,,,,,,,,,,,,,,i,1,0.6347,0,75,75,36,1,自卑,i,,,,,,,,,,,,
,,,,,,,,,,,,,,1,001,2025-01-02_23h37.22.720,IAT(Formal),2021.2.3,Win32,60.97560976,,,,,,,,,,,,,,,,,,,,,,,,,,,,,,,,,,,,,,,,,,,,e,1,0.6355,0,76,76,19,1,机智,e,,,,,,,,,,,,
,,,,,,,,,,,,,,1,001,2025-01-02_23h37.22.720,IAT(Formal),2021.2.3,Win32,60.97560976,,,,,,,,,,,,,,,,,,,,,,,,,,,,,,,,,,,,,,,,,,,,e,1,0.5587,0,77,77,13,1,杰出,e,,,,,,,,,,,,
,,,,,,,,,,,,,,1,001,2025-01-02_23h37.22.720,IAT(Formal),2021.2.3,Win32,60.97560976,,,,,,,,,,,,,,,,,,,,,,,,,,,,,,,,,,,,,,,,,,,,i,1,1.1185,0,78,78,54,1,俺,i,,,,,,,,,,,,
,,,,,,,,,,,,,,1,001,2025-01-02_23h37.22.720,IAT(Formal),2021.2.3,Win32,60.97560976,,,,,,,,,,,,,,,,,,,,,,,,,,,,,,,,,,,,,,,,,,,,e,1,0.5671,0,79,79,56,1,他们,e,,,,,,,,,,,,
,,,,,,,,,,,,,,1,001,2025-01-02_23h37.22.720,IAT(Formal),2021.2.3,Win32,60.97560976,,,,,,,,,,,,,,,,,,,,,,,,,,,,,,,,,,,,,,,,,,,,,,,,,,,,执拗,i,space,4.1323,,0,0,0,0,40,1,,,
,,,,,,,,,,,,,,1,001,2025-01-02_23h37.22.720,IAT(Formal),2021.2.3,Win32,60.97560976,,,,,,,,,,,,,,,,,,,,,,,,,,,,,,,,,,,,,,,,,,,,,,,,,,,,自己,i,,,i,1,0,1,1,3,1,0.5788,,
,,,,,,,,,,,,,,1,001,2025-01-02_23h37.22.720,IAT(Formal),2021.2.3,Win32,60.97560976,,,,,,,,,,,,,,,,,,,,,,,,,,,,,,,,,,,,,,,,,,,,,,,,,,,,聪明,e,,,e,1,0,2,2,12,1,0.6636,,
,,,,,,,,,,,,,,1,001,2025-01-02_23h37.22.720,IAT(Formal),2021.2.3,Win32,60.97560976,,,,,,,,,,,,,,,,,,,,,,,,,,,,,,,,,,,,,,,,,,,,,,,,,,,,认真,e,,,e,1,0,3,3,20,1,0.7986,,
,,,,,,,,,,,,,,1,001,2025-01-02_23h37.22.720,IAT(Formal),2021.2.3,Win32,60.97560976,,,,,,,,,,,,,,,,,,,,,,,,,,,,,,,,,,,,,,,,,,,,,,,,,,,,我的,i,,,i,1,0,4,4,1,1,0.7133,,
,,,,,,,,,,,,,,1,001,2025-01-02_23h37.22.720,IAT(Formal),2021.2.3,Win32,60.97560976,,,,,,,,,,,,,,,,,,,,,,,,,,,,,,,,,,,,,,,,,,,,,,,,,,,,自私,i,,,i,1,0,5,5,43,1,0.5988,,
,,,,,,,,,,,,,,1,001,2025-01-02_23h37.22.720,IAT(Formal),2021.2.3,Win32,60.97560976,,,,,,,,,,,,,,,,,,,,,,,,,,,,,,,,,,,,,,,,,,,,,,,,,,,,傲慢,i,,,i,1,0,6,6,37,1,0.6329,,
,,,,,,,,,,,,,,1,001,2025-01-02_23h37.22.720,IAT(Formal),2021.2.3,Win32,60.97560976,,,,,,,,,,,,,,,,,,,,,,,,,,,,,,,,,,,,,,,,,,,,,,,,,,,,刻薄,i,,,i,1,0,7,7,33,1,0.5155,,
,,,,,,,,,,,,,,1,001,2025-01-02_23h37.22.720,IAT(Formal),2021.2.3,Win32,60.97560976,,,,,,,,,,,,,,,,,,,,,,,,,,,,,,,,,,,,,,,,,,,,,,,,,,,,我的,i,,,i,1,0,8,8,51,1,0.5628,,
,,,,,,,,,,,,,,1,001,2025-01-02_23h37.22.720,IAT(Formal),2021.2.3,Win32,60.97560976,,,,,,,,,,,,,,,,,,,,,,,,,,,,,,,,,,,,,,,,,,,,,,,,,,,,我们,i,,,i,1,0,9,9,72,1,0.4649,,
,,,,,,,,,,,,,,1,001,2025-01-02_23h37.22.720,IAT(Formal),2021.2.3,Win32,60.97560976,,,,,,,,,,,,,,,,,,,,,,,,,,,,,,,,,,,,,,,,,,,,,,,,,,,,我们,i,,,i,1,0,10,10,62,1,0.4566,,
,,,,,,,,,,,,,,1,001,2025-01-02_23h37.22.720,IAT(Formal),2021.2.3,Win32,60.97560976,,,,,,,,,,,,,,,,,,,,,,,,,,,,,,,,,,,,,,,,,,,,,,,,,,,,他,e,,,e,1,0,11,11,65,1,0.5309,,
,,,,,,,,,,,,,,1,001,2025-01-02_23h37.22.720,IAT(Formal),2021.2.3,Win32,60.97560976,,,,,,,,,,,,,,,,,,,,,,,,,,,,,,,,,,,,,,,,,,,,,,,,,,,,自己,i,,,i,1,0,12,12,53,1,0.5522,,
,,,,,,,,,,,,,,1,001,2025-01-02_23h37.22.720,IAT(Formal),2021.2.3,Win32,60.97560976,,,,,,,,,,,,,,,,,,,,,,,,,,,,,,,,,,,,,,,,,,,,,,,,,,,,他们,e,,,i,0,0,13,13,76,1,0.5676,,
,,,,,,,,,,,,,,1,001,2025-01-02_23h37.22.720,IAT(Formal),2021.2.3,Win32,60.97560976,,,,,,,,,,,,,,,,,,,,,,,,,,,,,,,,,,,,,,,,,,,,,,,,,,,,机智,e,,,e,1,0,14,14,19,1,0.602,,
,,,,,,,,,,,,,,1,001,2025-01-02_23h37.22.720,IAT(Formal),2021.2.3,Win32,60.97560976,,,,,,,,,,,,,,,,,,,,,,,,,,,,,,,,,,,,,,,,,,,,,,,,,,,,他人,e,,,e,1,0,15,15,58,1,1.416,,
,,,,,,,,,,,,,,1,001,2025-01-02_23h37.22.720,IAT(Formal),2021.2.3,Win32,60.97560976,,,,,,,,,,,,,,,,,,,,,,,,,,,,,,,,,,,,,,,,,,,,,,,,,,,,其他,e,,,e,1,0,16,16,69,1,0.5839,,
,,,,,,,,,,,,,,1,001,2025-01-02_23h37.22.720,IAT(Formal),2021.2.3,Win32,60.97560976,,,,,,,,,,,,,,,,,,,,,,,,,,,,,,,,,,,,,,,,,,,,,,,,,,,,我的,i,,,i,1,0,17,17,61,1,0.6169,,
,,,,,,,,,,,,,,1,001,2025-01-02_23h37.22.720,IAT(Formal),2021.2.3,Win32,60.97560976,,,,,,,,,,,,,,,,,,,,,,,,,,,,,,,,,,,,,,,,,,,,,,,,,,,,自己,i,,,i,1,0,18,18,73,1,0.5681,,
,,,,,,,,,,,,,,1,001,2025-01-02_23h37.22.720,IAT(Formal),2021.2.3,Win32,60.97560976,,,,,,,,,,,,,,,,,,,,,,,,,,,,,,,,,,,,,,,,,,,,,,,,,,,,散漫,i,,,i,1,0,19,19,41,1,0.5682,,
,,,,,,,,,,,,,,1,001,2025-01-02_23h37.22.720,IAT(Formal),2021.2.3,Win32,60.97560976,,,,,,,,,,,,,,,,,,,,,,,,,,,,,,,,,,,,,,,,,,,,,,,,,,,,我,i,,,i,1,0,20,20,50,1,0.5692,,
,,,,,,,,,,,,,,1,001,2025-01-02_23h37.22.720,IAT(Formal),2021.2.3,Win32,60.97560976,,,,,,,,,,,,,,,,,,,,,,,,,,,,,,,,,,,,,,,,,,,,,,,,,,,,乐观,e,,,e,1,0,21,21,14,1,0.5875,,
,,,,,,,,,,,,,,1,001,2025-01-02_23h37.22.720,IAT(Formal),2021.2.3,Win32,60.97560976,,,,,,,,,,,,,,,,,,,,,,,,,,,,,,,,,,,,,,,,,,,,,,,,,,,,消极,i,,,i,1,0,22,22,35,1,0.4972,,
,,,,,,,,,,,,,,1,001,2025-01-02_23h37.22.720,IAT(Formal),2021.2.3,Win32,60.97560976,,,,,,,,,,,,,,,,,,,,,,,,,,,,,,,,,,,,,,,,,,,,,,,,,,,,我们,i,,,e,0,0,23,23,2,1,0.4166,,
,,,,,,,,,,,,,,1,001,2025-01-02_23h37.22.720,IAT(Formal),2021.2.3,Win32,60.97560976,,,,,,,,,,,,,,,,,,,,,,,,,,,,,,,,,,,,,,,,,,,,,,,,,,,,优秀,e,,,e,1,0,24,24,10,1,0.5868,,
,,,,,,,,,,,,,,1,001,2025-01-02_23h37.22.720,IAT(Formal),2021.2.3,Win32,60.97560976,,,,,,,,,,,,,,,,,,,,,,,,,,,,,,,,,,,,,,,,,,,,,,,,,,,,轻率,i,,,i,1,0,25,25,48,1,0.4951,,
,,,,,,,,,,,,,,1,001,2025-01-02_23h37.22.720,IAT(Formal),2021.2.3,Win32,60.97560976,,,,,,,,,,,,,,,,,,,,,,,,,,,,,,,,,,,,,,,,,,,,,,,,,,,,我,i,,,e,0,0,26,26,70,1,0.5669,,
,,,,,,,,,,,,,,1,001,2025-01-02_23h37.22.720,IAT(Formal),2021.2.3,Win32,60.97560976,,,,,,,,,,,,,,,,,,,,,,,,,,,,,,,,,,,,,,,,,,,,,,,,,,,,我,i,,,i,1,0,27,27,60,1,0.417,,
,,,,,,,,,,,,,,1,001,2025-01-02_23h37.22.720,IAT(Formal),2021.2.3,Win32,60.97560976,,,,,,,,,,,,,,,,,,,,,,,,,,,,,,,,,,,,,,,,,,,,,,,,,,,,自己,i,,,i,1,0,28,28,63,1,0.4339,,
,,,,,,,,,,,,,,1,001,2025-01-02_23h37.22.720,IAT(Formal),2021.2.3,Win32,60.97560976,,,,,,,,,,,,,,,,,,,,,,,,,,,,,,,,,,,,,,,,,,,,,,,,,,,,悲观,i,,,i,1,0,29,29,34,1,0.4855,,
,,,,,,,,,,,,,,1,001,2025-01-02_23h37.22.720,IAT(Formal),2021.2.3,Win32,60.97560976,,,,,,,,,,,,,,,,,,,,,,,,,,,,,,,,,,,,,,,,,,,,,,,,,,,,他的,e,,,i,0,0,30,30,57,1,0.5162,,
,,,,,,,,,,,,,,1,001,2025-01-02_23h37.22.720,IAT(Formal),2021.2.3,Win32,60.97560976,,,,,,,,,,,,,,,,,,,,,,,,,,,,,,,,,,,,,,,,,,,,,,,,,,,,他人,e,,,e,1,0,31,31,78,1,0.3818,,
,,,,,,,,,,,,,,1,001,2025-01-02_23h37.22.720,IAT(Formal),2021.2.3,Win32,60.97560976,,,,,,,,,,,,,,,,,,,,,,,,,,,,,,,,,,,,,,,,,,,,,,,,,,,,俺,i,,,i,1,0,32,32,74,1,0.6343,,
,,,,,,,,,,,,,,1,001,2025-01-02_23h37.22.720,IAT(Formal),2021.2.3,Win32,60.97560976,,,,,,,,,,,,,,,,,,,,,,,,,,,,,,,,,,,,,,,,,,,,,,,,,,,,热情,e,,,e,1,0,33,33,27,1,0.5302,,
,,,,,,,,,,,,,,1,001,2025-01-02_23h37.22.720,IAT(Formal),2021.2.3,Win32,60.97560976,,,,,,,,,,,,,,,,,,,,,,,,,,,,,,,,,,,,,,,,,,,,,,,,,,,,鲁莽,i,,,i,1,0,34,34,38,1,0.6588,,
,,,,,,,,,,,,,,1,001,2025-01-02_23h37.22.720,IAT(Formal),2021.2.3,Win32,60.97560976,,,,,,,,,,,,,,,,,,,,,,,,,,,,,,,,,,,,,,,,,,,,,,,,,,,,暴躁,i,,,i,1,0,35,35,44,1,0.5339,,
,,,,,,,,,,,,,,1,001,2025-01-02_23h37.22.720,IAT(Formal),2021.2.3,Win32,60.97560976,,,,,,,,,,,,,,,,,,,,,,,,,,,,,,,,,,,,,,,,,,,,,,,,,,,,他们,e,,,e,1,0,36,36,56,1,0.5663,,
,,,,,,,,,,,,,,1,001,2025-01-02_23h37.22.720,IAT(Formal),2021.2.3,Win32,60.97560976,,,,,,,,,,,,,,,,,,,,,,,,,,,,,,,,,,,,,,,,,,,,,,,,,,,,公正,e,,,e,1,0,37,37,23,1,0.6327,,
,,,,,,,,,,,,,,1,001,2025-01-02_23h37.22.720,IAT(Formal),2021.2.3,Win32,60.97560976,,,,,,,,,,,,,,,,,,,,,,,,,,,,,,,,,,,,,,,,,,,,,,,,,,,,下贱,i,,,i,1,0,38,38,49,1,0.4985,,
,,,,,,,,,,,,,,1,001,2025-01-02_23h37.22.720,IAT(Formal),2021.2.3,Win32,60.97560976,,,,,,,,,,,,,,,,,,,,,,,,,,,,,,,,,,,,,,,,,,,,,,,,,,,,细腻,e,,,i,0,0,39,39,25,1,0.4361,,
,,,,,,,,,,,,,,1,001,2025-01-02_23h37.22.720,IAT(Formal),2021.2.3,Win32,60.97560976,,,,,,,,,,,,,,,,,,,,,,,,,,,,,,,,,,,,,,,,,,,,,,,,,,,,他人,e,,,e,1,0,40,40,8,1,0.5428,,
,,,,,,,,,,,,,,1,001,2025-01-02_23h37.22.720,IAT(Formal),2021.2.3,Win32,60.97560976,,,,,,,,,,,,,,,,,,,,,,,,,,,,,,,,,,,,,,,,,,,,,,,,,,,,其他,e,,,i,0,0,41,41,9,1,0.6164,,
,,,,,,,,,,,,,,1,001,2025-01-02_23h37.22.720,IAT(Formal),2021.2.3,Win32,60.97560976,,,,,,,,,,,,,,,,,,,,,,,,,,,,,,,,,,,,,,,,,,,,,,,,,,,,他的,e,,,e,1,0,42,42,7,1,0.4362,,
,,,,,,,,,,,,,,1,001,2025-01-02_23h37.22.720,IAT(Formal),2021.2.3,Win32,60.97560976,,,,,,,,,,,,,,,,,,,,,,,,,,,,,,,,,,,,,,,,,,,,,,,,,,,,我,i,,,i,1,0,43,43,0,1,0.6412,,
,,,,,,,,,,,,,,1,001,2025-01-02_23h37.22.720,IAT(Formal),2021.2.3,Win32,60.97560976,,,,,,,,,,,,,,,,,,,,,,,,,,,,,,,,,,,,,,,,,,,,,,,,,,,,他,e,,,e,1,0,44,44,55,1,0.5688,,
,,,,,,,,,,,,,,1,001,2025-01-02_23h37.22.720,IAT(Formal),2021.2.3,Win32,60.97560976,,,,,,,,,,,,,,,,,,,,,,,,,,,,,,,,,,,,,,,,,,,,,,,,,,,,猖狂,i,,,i,1,0,45,45,45,1,0.5687,,
,,,,,,,,,,,,,,1,001,2025-01-02_23h37.22.720,IAT(Formal),2021.2.3,Win32,60.97560976,,,,,,,,,,,,,,,,,,,,,,,,,,,,,,,,,,,,,,,,,,,,,,,,,,,,我的,i,,,e,0,0,46,46,71,1,0.7169,,
,,,,,,,,,,,,,,1,001,2025-01-02_23h37.22.720,IAT(Formal),2021.2.3,Win32,60.97560976,,,,,,,,,,,,,,,,,,,,,,,,,,,,,,,,,,,,,,,,,,,,,,,,,,,,俺,i,,,i,1,0,47,47,4,1,0.7847,,
,,,,,,,,,,,,,,1,001,2025-01-02_23h37.22.720,IAT(Formal),2021.2.3,Win32,60.97560976,,,,,,,,,,,,,,,,,,,,,,,,,,,,,,,,,,,,,,,,,,,,,,,,,,,,虚伪,i,,,i,1,0,48,48,31,1,0.5517,,
,,,,,,,,,,,,,,1,001,2025-01-02_23h37.22.720,IAT(Formal),2021.2.3,Win32,60.97560976,,,,,,,,,,,,,,,,,,,,,,,,,,,,,,,,,,,,,,,,,,,,,,,,,,,,杰出,e,,,e,1,0,49,49,13,1,0.661,,
,,,,,,,,,,,,,,1,001,2025-01-02_23h37.22.720,IAT(Formal),2021.2.3,Win32,60.97560976,,,,,,,,,,,,,,,,,,,,,,,,,,,,,,,,,,,,,,,,,,,,,,,,,,,,他的,e,,,e,1,0,50,50,77,1,0.5852,,
,,,,,,,,,,,,,,1,001,2025-01-02_23h37.22.720,IAT(Formal),2021.2.3,Win32,60.97560976,,,,,,,,,,,,,,,,,,,,,,,,,,,,,,,,,,,,,,,,,,,,,,,,,,,,俺,i,,,i,1,0,51,51,64,1,0.5857,,
,,,,,,,,,,,,,,1,001,2025-01-02_23h37.22.720,IAT(Formal),2021.2.3,Win32,60.97560976,,,,,,,,,,,,,,,,,,,,,,,,,,,,,,,,,,,,,,,,,,,,,,,,,,,,其他,e,,,e,1,0,52,52,59,1,0.9574,,
,,,,,,,,,,,,,,1,001,2025-01-02_23h37.22.720,IAT(Formal),2021.2.3,Win32,60.97560976,,,,,,,,,,,,,,,,,,,,,,,,,,,,,,,,,,,,,,,,,,,,,,,,,,,,冷静,e,,,e,1,0,53,53,26,1,0.7334,,
,,,,,,,,,,,,,,1,001,2025-01-02_23h37.22.720,IAT(Formal),2021.2.3,Win32,60.97560976,,,,,,,,,,,,,,,,,,,,,,,,,,,,,,,,,,,,,,,,,,,,,,,,,,,,他的,e,,,e,1,0,54,54,67,1,0.5179,,
,,,,,,,,,,,,,,1,001,2025-01-02_23h37.22.720,IAT(Formal),2021.2.3,Win32,60.97560976,,,,,,,,,,,,,,,,,,,,,,,,,,,,,,,,,,,,,,,,,,,,,,,,,,,,崇高,e,,,e,1,0,55,55,11,1,0.5737,,
,,,,,,,,,,,,,,1,001,2025-01-02_23h37.22.720,IAT(Formal),2021.2.3,Win32,60.97560976,,,,,,,,,,,,,,,,,,,,,,,,,,,,,,,,,,,,,,,,,,,,,,,,,,,,他们,e,,,e,1,0,56,56,66,1,0.6687,,
,,,,,,,,,,,,,,1,001,2025-01-02_23h37.22.720,IAT(Formal),2021.2.3,Win32,60.97560976,,,,,,,,,,,,,,,,,,,,,,,,,,,,,,,,,,,,,,,,,,,,,,,,,,,,卑鄙,i,,,i,1,0,57,57,30,1,0.5852,,
,,,,,,,,,,,,,,1,001,2025-01-02_23h37.22.720,IAT(Formal),2021.2.3,Win32,60.97560976,,,,,,,,,,,,,,,,,,,,,,,,,,,,,,,,,,,,,,,,,,,,,,,,,,,,冒失,i,,,i,1,0,58,58,39,1,0.5584,,
,,,,,,,,,,,,,,1,001,2025-01-02_23h37.22.720,IAT(Formal),2021.2.3,Win32,60.97560976,,,,,,,,,,,,,,,,,,,,,,,,,,,,,,,,,,,,,,,,,,,,,,,,,,,,无私,e,,,e,1,0,59,59,22,1,0.6846,,
,,,,,,,,,,,,,,1,001,2025-01-02_23h37.22.720,IAT(Formal),2021.2.3,Win32,60.97560976,,,,,,,,,,,,,,,,,,,,,,,,,,,,,,,,,,,,,,,,,,,,,,,,,,,,活泼,e,,,e,1,0,60,60,28,1,0.5076,,
,,,,,,,,,,,,,,1,001,2025-01-02_23h37.22.720,IAT(Formal),2021.2.3,Win32,60.97560976,,,,,,,,,,,,,,,,,,,,,,,,,,,,,,,,,,,,,,,,,,,,,,,,,,,,野蛮,i,,,i,1,0,61,61,46,1,0.4689,,
,,,,,,,,,,,,,,1,001,2025-01-02_23h37.22.720,IAT(Formal),2021.2.3,Win32,60.97560976,,,,,,,,,,,,,,,,,,,,,,,,,,,,,,,,,,,,,,,,,,,,,,,,,,,,自卑,i,,,i,1,0,62,62,36,1,0.4359,,
,,,,,,,,,,,,,,1,001,2025-01-02_23h37.22.720,IAT(Formal),2021.2.3,Win32,60.97560976,,,,,,,,,,,,,,,,,,,,,,,,,,,,,,,,,,,,,,,,,,,,,,,,,,,,勤奋,e,,,e,1,0,63,63,18,1,0.6515,,
,,,,,,,,,,,,,,1,001,2025-01-02_23h37.22.720,IAT(Formal),2021.2.3,Win32,60.97560976,,,,,,,,,,,,,,,,,,,,,,,,,,,,,,,,,,,,,,,,,,,,,,,,,,,,俺,i,,,i,1,0,64,64,54,1,0.8346,,
,,,,,,,,,,,,,,1,001,2025-01-02_23h37.22.720,IAT(Formal),2021.2.3,Win32,60.97560976,,,,,,,,,,,,,,,,,,,,,,,,,,,,,,,,,,,,,,,,,,,,,,,,,,,,凶狠,i,,,i,1,0,65,65,42,1,0.5857,,
,,,,,,,,,,,,,,1,001,2025-01-02_23h37.22.720,IAT(Formal),2021.2.3,Win32,60.97560976,,,,,,,,,,,,,,,,,,,,,,,,,,,,,,,,,,,,,,,,,,,,,,,,,,,,愚蠢,i,,,i,1,0,66,66,32,1,0.4839,,
,,,,,,,,,,,,,,1,001,2025-01-02_23h37.22.720,IAT(Formal),2021.2.3,Win32,60.97560976,,,,,,,,,,,,,,,,,,,,,,,,,,,,,,,,,,,,,,,,,,,,,,,,,,,,朴实,e,,,e,1,0,67,67,24,1,0.6172,,
,,,,,,,,,,,,,,1,001,2025-01-02_23h37.22.720,IAT(Formal),2021.2.3,Win32,60.97560976,,,,,,,,,,,,,,,,,,,,,,,,,,,,,,,,,,,,,,,,,,,,,,,,,,,,正直,e,,,e,1,0,68,68,16,1,0.6769,,
,,,,,,,,,,,,,,1,001,2025-01-02_23h37.22.720,IAT(Formal),2021.2.3,Win32,60.97560976,,,,,,,,,,,,,,,,,,,,,,,,,,,,,,,,,,,,,,,,,,,,,,,,,,,,其他,e,,,e,1,0,69,69,79,1,0.8768,,
,,,,,,,,,,,,,,1,001,2025-01-02_23h37.22.720,IAT(Formal),2021.2.3,Win32,60.97560976,,,,,,,,,,,,,,,,,,,,,,,,,,,,,,,,,,,,,,,,,,,,,,,,,,,,勇敢,e,,,e,1,0,70,70,17,1,0.5332,,
,,,,,,,,,,,,,,1,001,2025-01-02_23h37.22.720,IAT(Formal),2021.2.3,Win32,60.97560976,,,,,,,,,,,,,,,,,,,,,,,,,,,,,,,,,,,,,,,,,,,,,,,,,,,,诚实,e,,,e,1,0,71,71,15,1,0.4354,,
,,,,,,,,,,,,,,1,001,2025-01-02_23h37.22.720,IAT(Formal),2021.2.3,Win32,60.97560976,,,,,,,,,,,,,,,,,,,,,,,,,,,,,,,,,,,,,,,,,,,,,,,,,,,,固执,i,,,e,0,0,72,72,47,1,0.5056,,
,,,,,,,,,,,,,,1,001,2025-01-02_23h37.22.720,IAT(Formal),2021.2.3,Win32,60.97560976,,,,,,,,,,,,,,,,,,,,,,,,,,,,,,,,,,,,,,,,,,,,,,,,,,,,稳重,e,,,e,1,0,73,73,21,1,0.5669,,
,,,,,,,,,,,,,,1,001,2025-01-02_23h37.22.720,IAT(Formal),2021.2.3,Win32,60.97560976,,,,,,,,,,,,,,,,,,,,,,,,,,,,,,,,,,,,,,,,,,,,,,,,,,,,他人,e,,,e,1,0,74,74,68,1,0.7446,,
,,,,,,,,,,,,,,1,001,2025-01-02_23h37.22.720,IAT(Formal),2021.2.3,Win32,60.97560976,,,,,,,,,,,,,,,,,,,,,,,,,,,,,,,,,,,,,,,,,,,,,,,,,,,,他们,e,,,e,1,0,75,75,6,1,0.6687,,
,,,,,,,,,,,,,,1,001,2025-01-02_23h37.22.720,IAT(Formal),2021.2.3,Win32,60.97560976,,,,,,,,,,,,,,,,,,,,,,,,,,,,,,,,,,,,,,,,,,,,,,,,,,,,他,e,,,e,1,0,76,76,5,1,0.5936,,
,,,,,,,,,,,,,,1,001,2025-01-02_23h37.22.720,IAT(Formal),2021.2.3,Win32,60.97560976,,,,,,,,,,,,,,,,,,,,,,,,,,,,,,,,,,,,,,,,,,,,,,,,,,,,我们,i,,,i,1,0,77,77,52,1,0.4361,,
,,,,,,,,,,,,,,1,001,2025-01-02_23h37.22.720,IAT(Formal),2021.2.3,Win32,60.97560976,,,,,,,,,,,,,,,,,,,,,,,,,,,,,,,,,,,,,,,,,,,,,,,,,,,,诚恳,e,,,e,1,0,78,78,29,1,0.6347,,
,,,,,,,,,,,,,,1,001,2025-01-02_23h37.22.720,IAT(Formal),2021.2.3,Win32,60.97560976,,,,,,,,,,,,,,,,,,,,,,,,,,,,,,,,,,,,,,,,,,,,,,,,,,,,他,e,,,e,1,0,79,79,75,1,1.2331,,
,,,,,,,,,,,,,,1,001,2025-01-02_23h37.22.720,IAT(Formal),2021.2.3,Win32,60.97560976,,,,,,,,,,,,,,,,,,,,,,,,,,,,,,,,,,,,,,,,,,,,,,,,,,,,下贱,i,,,i,1,1,0,80,49,1,0.6688,,
,,,,,,,,,,,,,,1,001,2025-01-02_23h37.22.720,IAT(Formal),2021.2.3,Win32,60.97560976,,,,,,,,,,,,,,,,,,,,,,,,,,,,,,,,,,,,,,,,,,,,,,,,,,,,俺,i,,,i,1,1,1,81,74,1,0.7181,,
,,,,,,,,,,,,,,1,001,2025-01-02_23h37.22.720,IAT(Formal),2021.2.3,Win32,60.97560976,,,,,,,,,,,,,,,,,,,,,,,,,,,,,,,,,,,,,,,,,,,,,,,,,,,,自私,i,,,i,1,1,2,82,43,1,0.535,,
,,,,,,,,,,,,,,1,001,2025-01-02_23h37.22.720,IAT(Formal),2021.2.3,Win32,60.97560976,,,,,,,,,,,,,,,,,,,,,,,,,,,,,,,,,,,,,,,,,,,,,,,,,,,,暴躁,i,,,i,1,1,3,83,44,1,0.568,,
,,,,,,,,,,,,,,1,001,2025-01-02_23h37.22.720,IAT(Formal),2021.2.3,Win32,60.97560976,,,,,,,,,,,,,,,,,,,,,,,,,,,,,,,,,,,,,,,,,,,,,,,,,,,,他人,e,,,e,1,1,4,84,78,1,1.0244,,
,,,,,,,,,,,,,,1,001,2025-01-02_23h37.22.720,IAT(Formal),2021.2.3,Win32,60.97560976,,,,,,,,,,,,,,,,,,,,,,,,,,,,,,,,,,,,,,,,,,,,,,,,,,,,他们,e,,,e,1,1,5,85,66,1,0.7669,,
,,,,,,,,,,,,,,1,001,2025-01-02_23h37.22.720,IAT(Formal),2021.2.3,Win32,60.97560976,,,,,,,,,,,,,,,,,,,,,,,,,,,,,,,,,,,,,,,,,,,,,,,,,,,,他人,e,,,e,1,1,6,86,8,1,0.5524,,
,,,,,,,,,,,,,,1,001,2025-01-02_23h37.22.720,IAT(Formal),2021.2.3,Win32,60.97560976,,,,,,,,,,,,,,,,,,,,,,,,,,,,,,,,,,,,,,,,,,,,,,,,,,,,刻薄,i,,,i,1,1,7,87,33,1,0.5847,,
,,,,,,,,,,,,,,1,001,2025-01-02_23h37.22.720,IAT(Formal),2021.2.3,Win32,60.97560976,,,,,,,,,,,,,,,,,,,,,,,,,,,,,,,,,,,,,,,,,,,,,,,,,,,,我们,i,,,e,0,1,8,88,62,1,1.1363,,
,,,,,,,,,,,,,,1,001,2025-01-02_23h37.22.720,IAT(Formal),2021.2.3,Win32,60.97560976,,,,,,,,,,,,,,,,,,,,,,,,,,,,,,,,,,,,,,,,,,,,,,,,,,,,乐观,e,,,,0,1,9,89,14,1,,,
,,,,,,,,,,,,,,1,001,2025-01-02_23h37.22.720,IAT(Formal),2021.2.3,Win32,60.97560976,,,,,,,,,,,,,,,,,,,,,,,,,,,,,,,,,,,,,,,,,,,,,,,,,,,,他,e,,,i,0,1,10,90,5,1,0.6682,,
,,,,,,,,,,,,,,1,001,2025-01-02_23h37.22.720,IAT(Formal),2021.2.3,Win32,60.97560976,,,,,,,,,,,,,,,,,,,,,,,,,,,,,,,,,,,,,,,,,,,,,,,,,,,,他人,e,,,e,1,1,11,91,68,1,0.6925,,
,,,,,,,,,,,,,,1,001,2025-01-02_23h37.22.720,IAT(Formal),2021.2.3,Win32,60.97560976,,,,,,,,,,,,,,,,,,,,,,,,,,,,,,,,,,,,,,,,,,,,,,,,,,,,其他,e,,,e,1,1,12,92,79,1,1.006,,
,,,,,,,,,,,,,,1,001,2025-01-02_23h37.22.720,IAT(Formal),2021.2.3,Win32,60.97560976,,,,,,,,,,,,,,,,,,,,,,,,,,,,,,,,,,,,,,,,,,,,,,,,,,,,公正,e,,,e,1,1,13,93,23,1,1.135,,
,,,,,,,,,,,,,,1,001,2025-01-02_23h37.22.720,IAT(Formal),2021.2.3,Win32,60.97560976,,,,,,,,,,,,,,,,,,,,,,,,,,,,,,,,,,,,,,,,,,,,,,,,,,,,消极,i,,,e,0,1,14,94,35,1,0.4579,,
,,,,,,,,,,,,,,1,001,2025-01-02_23h37.22.720,IAT(Formal),2021.2.3,Win32,60.97560976,,,,,,,,,,,,,,,,,,,,,,,,,,,,,,,,,,,,,,,,,,,,,,,,,,,,我,i,,,i,1,1,15,95,70,1,0.8508,,
,,,,,,,,,,,,,,1,001,2025-01-02_23h37.22.720,IAT(Formal),2021.2.3,Win32,60.97560976,,,,,,,,,,,,,,,,,,,,,,,,,,,,,,,,,,,,,,,,,,,,,,,,,,,,愚蠢,i,,,,0,1,16,96,32,1,,,
,,,,,,,,,,,,,,1,001,2025-01-02_23h37.22.720,IAT(Formal),2021.2.3,Win32,60.97560976,,,,,,,,,,,,,,,,,,,,,,,,,,,,,,,,,,,,,,,,,,,,,,,,,,,,我们,i,,,,0,1,17,97,2,1,,,
,,,,,,,,,,,,,,1,001,2025-01-02_23h37.22.720,IAT(Formal),2021.2.3,Win32,60.97560976,,,,,,,,,,,,,,,,,,,,,,,,,,,,,,,,,,,,,,,,,,,,,,,,,,,,我的,i,,,,0,1,18,98,71,1,,,
,,,,,,,,,,,,,,1,001,2025-01-02_23h37.22.720,IAT(Formal),2021.2.3,Win32,60.97560976,,,,,,,,,,,,,,,,,,,,,,,,,,,,,,,,,,,,,,,,,,,,,,,,,,,,他的,e,,,,0,1,19,99,57,1,,,
,,,,,,,,,,,,,,1,001,2025-01-02_23h37.22.720,IAT(Formal),2021.2.3,Win32,60.97560976,,,,,,,,,,,,,,,,,,,,,,,,,,,,,,,,,,,,,,,,,,,,,,,,,,,,俺,i,,,,0,1,20,100,54,1,,,
,,,,,,,,,,,,,,1,001,2025-01-02_23h37.22.720,IAT(Formal),2021.2.3,Win32,60.97560976,,,,,,,,,,,,,,,,,,,,,,,,,,,,,,,,,,,,,,,,,,,,,,,,,,,,诚恳,e,,,e,1,1,21,101,29,1,0.6184,,
,,,,,,,,,,,,,,1,001,2025-01-02_23h37.22.720,IAT(Formal),2021.2.3,Win32,60.97560976,,,,,,,,,,,,,,,,,,,,,,,,,,,,,,,,,,,,,,,,,,,,,,,,,,,,热情,e,,,e,1,1,22,102,27,1,0.5658,,
,,,,,,,,,,,,,,1,001,2025-01-02_23h37.22.720,IAT(Formal),2021.2.3,Win32,60.97560976,,,,,,,,,,,,,,,,,,,,,,,,,,,,,,,,,,,,,,,,,,,,,,,,,,,,野蛮,i,,,i,1,1,23,103,46,1,0.5539,,
,,,,,,,,,,,,,,1,001,2025-01-02_23h37.22.720,IAT(Formal),2021.2.3,Win32,60.97560976,,,,,,,,,,,,,,,,,,,,,,,,,,,,,,,,,,,,,,,,,,,,,,,,,,,,散漫,i,,,i,1,1,24,104,41,1,0.5369,,
,,,,,,,,,,,,,,1,001,2025-01-02_23h37.22.720,IAT(Formal),2021.2.3,Win32,60.97560976,,,,,,,,,,,,,,,,,,,,,,,,,,,,,,,,,,,,,,,,,,,,,,,,,,,,卑鄙,i,,,i,1,1,25,105,30,1,1.3917,,
,,,,,,,,,,,,,,1,001,2025-01-02_23h37.22.720,IAT(Formal),2021.2.3,Win32,60.97560976,,,,,,,,,,,,,,,,,,,,,,,,,,,,,,,,,,,,,,,,,,,,,,,,,,,,我的,i,,,i,1,1,26,106,1,1,0.7172,,
,,,,,,,,,,,,,,1,001,2025-01-02_23h37.22.720,IAT(Formal),2021.2.3,Win32,60.97560976,,,,,,,,,,,,,,,,,,,,,,,,,,,,,,,,,,,,,,,,,,,,,,,,,,,,俺,i,,,i,1,1,27,107,4,1,0.7716,,
,,,,,,,,,,,,,,1,001,2025-01-02_23h37.22.720,IAT(Formal),2021.2.3,Win32,60.97560976,,,,,,,,,,,,,,,,,,,,,,,,,,,,,,,,,,,,,,,,,,,,,,,,,,,,稳重,e,,,e,1,1,28,108,21,1,0.7356,,
,,,,,,,,,,,,,,1,001,2025-01-02_23h37.22.720,IAT(Formal),2021.2.3,Win32,60.97560976,,,,,,,,,,,,,,,,,,,,,,,,,,,,,,,,,,,,,,,,,,,,,,,,,,,,我的,i,,,i,1,1,29,109,51,1,0.6908,,
,,,,,,,,,,,,,,1,001,2025-01-02_23h37.22.720,IAT(Formal),2021.2.3,Win32,60.97560976,,,,,,,,,,,,,,,,,,,,,,,,,,,,,,,,,,,,,,,,,,,,,,,,,,,,其他,e,,,e,1,1,30,110,59,1,0.5447,,
,,,,,,,,,,,,,,1,001,2025-01-02_23h37.22.720,IAT(Formal),2021.2.3,Win32,60.97560976,,,,,,,,,,,,,,,,,,,,,,,,,,,,,,,,,,,,,,,,,,,,,,,,,,,,虚伪,i,,,e,0,1,31,111,31,1,0.7354,,
,,,,,,,,,,,,,,1,001,2025-01-02_23h37.22.720,IAT(Formal),2021.2.3,Win32,60.97560976,,,,,,,,,,,,,,,,,,,,,,,,,,,,,,,,,,,,,,,,,,,,,,,,,,,,活泼,e,,,e,1,1,32,112,28,1,0.6185,,
,,,,,,,,,,,,,,1,001,2025-01-02_23h37.22.720,IAT(Formal),2021.2.3,Win32,60.97560976,,,,,,,,,,,,,,,,,,,,,,,,,,,,,,,,,,,,,,,,,,,,,,,,,,,,优秀,e,,,e,1,1,33,113,10,1,0.6179,,
,,,,,,,,,,,,,,1,001,2025-01-02_23h37.22.720,IAT(Formal),2021.2.3,Win32,60.97560976,,,,,,,,,,,,,,,,,,,,,,,,,,,,,,,,,,,,,,,,,,,,,,,,,,,,悲观,i,,,i,1,1,34,114,34,1,0.5411,,
,,,,,,,,,,,,,,1,001,2025-01-02_23h37.22.720,IAT(Formal),2021.2.3,Win32,60.97560976,,,,,,,,,,,,,,,,,,,,,,,,,,,,,,,,,,,,,,,,,,,,,,,,,,,,勤奋,e,,,e,1,1,35,115,18,1,0.5838,,
,,,,,,,,,,,,,,1,001,2025-01-02_23h37.22.720,IAT(Formal),2021.2.3,Win32,60.97560976,,,,,,,,,,,,,,,,,,,,,,,,,,,,,,,,,,,,,,,,,,,,,,,,,,,,他们,e,,,i,0,1,36,116,76,1,0.6085,,
,,,,,,,,,,,,,,1,001,2025-01-02_23h37.22.720,IAT(Formal),2021.2.3,Win32,60.97560976,,,,,,,,,,,,,,,,,,,,,,,,,,,,,,,,,,,,,,,,,,,,,,,,,,,,其他,e,,,e,1,1,37,117,69,1,0.7063,,
,,,,,,,,,,,,,,1,001,2025-01-02_23h37.22.720,IAT(Formal),2021.2.3,Win32,60.97560976,,,,,,,,,,,,,,,,,,,,,,,,,,,,,,,,,,,,,,,,,,,,,,,,,,,,我,i,,,i,1,1,38,118,50,1,0.6003,,
,,,,,,,,,,,,,,1,001,2025-01-02_23h37.22.720,IAT(Formal),2021.2.3,Win32,60.97560976,,,,,,,,,,,,,,,,,,,,,,,,,,,,,,,,,,,,,,,,,,,,,,,,,,,,无私,e,,,i,0,1,39,119,22,1,0.4842,,
,,,,,,,,,,,,,,1,001,2025-01-02_23h37.22.720,IAT(Formal),2021.2.3,Win32,60.97560976,,,,,,,,,,,,,,,,,,,,,,,,,,,,,,,,,,,,,,,,,,,,,,,,,,,,冷静,e,,,i,0,1,40,120,26,1,0.4705,,
,,,,,,,,,,,,,,1,001,2025-01-02_23h37.22.720,IAT(Formal),2021.2.3,Win32,60.97560976,,,,,,,,,,,,,,,,,,,,,,,,,,,,,,,,,,,,,,,,,,,,,,,,,,,,我,i,,,i,1,1,41,121,0,1,0.6533,,
,,,,,,,,,,,,,,1,001,2025-01-02_23h37.22.720,IAT(Formal),2021.2.3,Win32,60.97560976,,,,,,,,,,,,,,,,,,,,,,,,,,,,,,,,,,,,,,,,,,,,,,,,,,,,执拗,i,,,i,1,1,42,122,40,1,0.5674,,
,,,,,,,,,,,,,,1,001,2025-01-02_23h37.22.720,IAT(Formal),2021.2.3,Win32,60.97560976,,,,,,,,,,,,,,,,,,,,,,,,,,,,,,,,,,,,,,,,,,,,,,,,,,,,崇高,e,,,e,1,1,43,123,11,1,0.4365,,
,,,,,,,,,,,,,,1,001,2025-01-02_23h37.22.720,IAT(Formal),2021.2.3,Win32,60.97560976,,,,,,,,,,,,,,,,,,,,,,,,,,,,,,,,,,,,,,,,,,,,,,,,,,,,猖狂,i,,,i,1,1,44,124,45,1,0.6356,,
,,,,,,,,,,,,,,1,001,2025-01-02_23h37.22.720,IAT(Formal),2021.2.3,Win32,60.97560976,,,,,,,,,,,,,,,,,,,,,,,,,,,,,,,,,,,,,,,,,,,,,,,,,,,,朴实,e,,,e,1,1,45,125,24,1,0.6679,,
,,,,,,,,,,,,,,1,001,2025-01-02_23h37.22.720,IAT(Formal),2021.2.3,Win32,60.97560976,,,,,,,,,,,,,,,,,,,,,,,,,,,,,,,,,,,,,,,,,,,,,,,,,,,,俺,i,,,i,1,1,46,126,64,1,0.7344,,
,,,,,,,,,,,,,,1,001,2025-01-02_23h37.22.720,IAT(Formal),2021.2.3,Win32,60.97560976,,,,,,,,,,,,,,,,,,,,,,,,,,,,,,,,,,,,,,,,,,,,,,,,,,,,他们,e,,,e,1,1,47,127,6,1,0.6019,,
,,,,,,,,,,,,,,1,001,2025-01-02_23h37.22.720,IAT(Formal),2021.2.3,Win32,60.97560976,,,,,,,,,,,,,,,,,,,,,,,,,,,,,,,,,,,,,,,,,,,,,,,,,,,,他,e,,,e,1,1,48,128,55,1,0.5862,,
,,,,,,,,,,,,,,1,001,2025-01-02_23h37.22.720,IAT(Formal),2021.2.3,Win32,60.97560976,,,,,,,,,,,,,,,,,,,,,,,,,,,,,,,,,,,,,,,,,,,,,,,,,,,,杰出,e,,,e,1,1,49,129,13,1,0.6523,,
,,,,,,,,,,,,,,1,001,2025-01-02_23h37.22.720,IAT(Formal),2021.2.3,Win32,60.97560976,,,,,,,,,,,,,,,,,,,,,,,,,,,,,,,,,,,,,,,,,,,,,,,,,,,,自己,i,,,i,1,1,50,130,63,1,1.186,,
,,,,,,,,,,,,,,1,001,2025-01-02_23h37.22.720,IAT(Formal),2021.2.3,Win32,60.97560976,,,,,,,,,,,,,,,,,,,,,,,,,,,,,,,,,,,,,,,,,,,,,,,,,,,,他的,e,,,e,1,1,51,131,77,1,0.617,,
,,,,,,,,,,,,,,1,001,2025-01-02_23h37.22.720,IAT(Formal),2021.2.3,Win32,60.97560976,,,,,,,,,,,,,,,,,,,,,,,,,,,,,,,,,,,,,,,,,,,,,,,,,,,,勇敢,e,,,e,1,1,52,132,17,1,0.5696,,
,,,,,,,,,,,,,,1,001,2025-01-02_23h37.22.720,IAT(Formal),2021.2.3,Win32,60.97560976,,,,,,,,,,,,,,,,,,,,,,,,,,,,,,,,,,,,,,,,,,,,,,,,,,,,固执,i,,,i,1,1,53,133,47,1,0.5876,,
,,,,,,,,,,,,,,1,001,2025-01-02_23h37.22.720,IAT(Formal),2021.2.3,Win32,60.97560976,,,,,,,,,,,,,,,,,,,,,,,,,,,,,,,,,,,,,,,,,,,,,,,,,,,,他们,e,,,e,1,1,54,134,56,1,0.6188,,
,,,,,,,,,,,,,,1,001,2025-01-02_23h37.22.720,IAT(Formal),2021.2.3,Win32,60.97560976,,,,,,,,,,,,,,,,,,,,,,,,,,,,,,,,,,,,,,,,,,,,,,,,,,,,自卑,i,,,i,1,1,55,135,36,1,1.0854,,
,,,,,,,,,,,,,,1,001,2025-01-02_23h37.22.720,IAT(Formal),2021.2.3,Win32,60.97560976,,,,,,,,,,,,,,,,,,,,,,,,,,,,,,,,,,,,,,,,,,,,,,,,,,,,自己,i,,,e,0,1,56,136,53,1,0.7526,,
,,,,,,,,,,,,,,1,001,2025-01-02_23h37.22.720,IAT(Formal),2021.2.3,Win32,60.97560976,,,,,,,,,,,,,,,,,,,,,,,,,,,,,,,,,,,,,,,,,,,,,,,,,,,,冒失,i,,,i,1,1,57,137,39,1,0.6688,,
,,,,,,,,,,,,,,1,001,2025-01-02_23h37.22.720,IAT(Formal),2021.2.3,Win32,60.97560976,,,,,,,,,,,,,,,,,,,,,,,,,,,,,,,,,,,,,,,,,,,,,,,,,,,,正直,e,,,e,1,1,58,138,16,1,0.4933,,
,,,,,,,,,,,,,,1,001,2025-01-02_23h37.22.720,IAT(Formal),2021.2.3,Win32,60.97560976,,,,,,,,,,,,,,,,,,,,,,,,,,,,,,,,,,,,,,,,,,,,,,,,,,,,聪明,e,,,e,1,1,59,139,12,1,0.56,,
,,,,,,,,,,,,,,1,001,2025-01-02_23h37.22.720,IAT(Formal),2021.2.3,Win32,60.97560976,,,,,,,,,,,,,,,,,,,,,,,,,,,,,,,,,,,,,,,,,,,,,,,,,,,,我,i,,,i,1,1,60,140,60,1,0.4679,,
,,,,,,,,,,,,,,1,001,2025-01-02_23h37.22.720,IAT(Formal),2021.2.3,Win32,60.97560976,,,,,,,,,,,,,,,,,,,,,,,,,,,,,,,,,,,,,,,,,,,,,,,,,,,,傲慢,i,,,e,0,1,61,141,37,1,0.9857,,
,,,,,,,,,,,,,,1,001,2025-01-02_23h37.22.720,IAT(Formal),2021.2.3,Win32,60.97560976,,,,,,,,,,,,,,,,,,,,,,,,,,,,,,,,,,,,,,,,,,,,,,,,,,,,我的,i,,,i,1,1,62,142,61,1,0.8183,,
,,,,,,,,,,,,,,1,001,2025-01-02_23h37.22.720,IAT(Formal),2021.2.3,Win32,60.97560976,,,,,,,,,,,,,,,,,,,,,,,,,,,,,,,,,,,,,,,,,,,,,,,,,,,,他的,e,,,e,1,1,63,143,7,1,1.2859,,
,,,,,,,,,,,,,,1,001,2025-01-02_23h37.22.720,IAT(Formal),2021.2.3,Win32,60.97560976,,,,,,,,,,,,,,,,,,,,,,,,,,,,,,,,,,,,,,,,,,,,,,,,,,,,机智,e,,,e,1,1,64,144,19,1,0.7081,,
,,,,,,,,,,,,,,1,001,2025-01-02_23h37.22.720,IAT(Formal),2021.2.3,Win32,60.97560976,,,,,,,,,,,,,,,,,,,,,,,,,,,,,,,,,,,,,,,,,,,,,,,,,,,,我们,i,,,i,1,1,65,145,52,1,0.9513,,
,,,,,,,,,,,,,,1,001,2025-01-02_23h37.22.720,IAT(Formal),2021.2.3,Win32,60.97560976,,,,,,,,,,,,,,,,,,,,,,,,,,,,,,,,,,,,,,,,,,,,,,,,,,,,他,e,,,e,1,1,66,146,75,1,0.8001,,
,,,,,,,,,,,,,,1,001,2025-01-02_23h37.22.720,IAT(Formal),2021.2.3,Win32,60.97560976,,,,,,,,,,,,,,,,,,,,,,,,,,,,,,,,,,,,,,,,,,,,,,,,,,,,细腻,e,,,e,1,1,67,147,25,1,0.7176,,
,,,,,,,,,,,,,,1,001,2025-01-02_23h37.22.720,IAT(Formal),2021.2.3,Win32,60.97560976,,,,,,,,,,,,,,,,,,,,,,,,,,,,,,,,,,,,,,,,,,,,,,,,,,,,诚实,e,,,e,1,1,68,148,15,1,0.585,,
,,,,,,,,,,,,,,1,001,2025-01-02_23h37.22.720,IAT(Formal),2021.2.3,Win32,60.97560976,,,,,,,,,,,,,,,,,,,,,,,,,,,,,,,,,,,,,,,,,,,,,,,,,,,,他人,e,,,e,1,1,69,149,58,1,0.8169,,
,,,,,,,,,,,,,,1,001,2025-01-02_23h37.22.720,IAT(Formal),2021.2.3,Win32,60.97560976,,,,,,,,,,,,,,,,,,,,,,,,,,,,,,,,,,,,,,,,,,,,,,,,,,,,认真,e,,,e,1,1,70,150,20,1,0.6021,,
,,,,,,,,,,,,,,1,001,2025-01-02_23h37.22.720,IAT(Formal),2021.2.3,Win32,60.97560976,,,,,,,,,,,,,,,,,,,,,,,,,,,,,,,,,,,,,,,,,,,,,,,,,,,,凶狠,i,,,i,1,1,71,151,42,1,0.5932,,
,,,,,,,,,,,,,,1,001,2025-01-02_23h37.22.720,IAT(Formal),2021.2.3,Win32,60.97560976,,,,,,,,,,,,,,,,,,,,,,,,,,,,,,,,,,,,,,,,,,,,,,,,,,,,自己,i,,,i,1,1,72,152,73,1,1.2378,,
,,,,,,,,,,,,,,1,001,2025-01-02_23h37.22.720,IAT(Formal),2021.2.3,Win32,60.97560976,,,,,,,,,,,,,,,,,,,,,,,,,,,,,,,,,,,,,,,,,,,,,,,,,,,,我们,i,,,i,1,1,73,153,72,1,1.1901,,
,,,,,,,,,,,,,,1,001,2025-01-02_23h37.22.720,IAT(Formal),2021.2.3,Win32,60.97560976,,,,,,,,,,,,,,,,,,,,,,,,,,,,,,,,,,,,,,,,,,,,,,,,,,,,自己,i,,,e,0,1,74,154,3,1,0.6415,,
,,,,,,,,,,,,,,1,001,2025-01-02_23h37.22.720,IAT(Formal),2021.2.3,Win32,60.97560976,,,,,,,,,,,,,,,,,,,,,,,,,,,,,,,,,,,,,,,,,,,,,,,,,,,,鲁莽,i,,,i,1,1,75,155,38,1,0.6525,,
,,,,,,,,,,,,,,1,001,2025-01-02_23h37.22.720,IAT(Formal),2021.2.3,Win32,60.97560976,,,,,,,,,,,,,,,,,,,,,,,,,,,,,,,,,,,,,,,,,,,,,,,,,,,,轻率,i,,,i,1,1,76,156,48,1,0.4513,,
,,,,,,,,,,,,,,1,001,2025-01-02_23h37.22.720,IAT(Formal),2021.2.3,Win32,60.97560976,,,,,,,,,,,,,,,,,,,,,,,,,,,,,,,,,,,,,,,,,,,,,,,,,,,,其他,e,,,i,0,1,77,157,9,1,0.5515,,
,,,,,,,,,,,,,,1,001,2025-01-02_23h37.22.720,IAT(Formal),2021.2.3,Win32,60.97560976,,,,,,,,,,,,,,,,,,,,,,,,,,,,,,,,,,,,,,,,,,,,,,,,,,,,他,e,,,e,1,1,78,158,65,1,0.784,,
,,,,,,,,,,,,,,1,001,2025-01-02_23h37.22.720,IAT(Formal),2021.2.3,Win32,60.97560976,,,,,,,,,,,,,,,,,,,,,,,,,,,,,,,,,,,,,,,,,,,,,,,,,,,,他的,e,,,e,1,1,79,159,67,1,0.4032,,
,,,,,,,,,,,,,,1,001,2025-01-02_23h37.22.720,IAT(Formal),2021.2.3,Win32,60.97560976,,,,,,,,,,,,,,,,,,,,,,,,,,,,,,,,,,,,,,,,,,,,,,,,,,,,,,,,,,,,,,,,space,1.1496