﻿Instruction1.keys,Instruction1.rt,Instruction2.keys,Instruction2.rt,key_resp_iso.keys,key_resp_iso.corr,key_resp_iso.rt,Practice_01.thisRepN,Practice_01.thisTrialN,Practice_01.thisN,Practice_01.thisIndex,Practice_01.ran,Words,ans,participant,session,date,expName,psychopyVersion,OS,frameRate,key_resp_3.keys,key_resp_3.rt,key_resp_ipn.keys,key_resp_ipn.corr,key_resp_ipn.rt,Practice_02.thisRepN,Practice_02.thisTrialN,Practice_02.thisN,Practice_02.thisIndex,Practice_02.ran,Words_ipn,ans_ipn,key_resp_4.keys,key_resp_4.rt,key_resp_t1.keys,key_resp_t1.corr,key_resp_t1.rt,Practice_T1.thisRepN,Practice_T1.thisTrialN,Practice_T1.thisN,Practice_T1.thisIndex,Practice_T1.ran,Words_t1,ans_t1,key_resp_5.keys,key_resp_5.rt,Formal_T1.thisRepN,Formal_T1.thisTrialN,Formal_T1.thisN,Formal_T1.thisIndex,Formal_T1.ran,key_resp_6.keys,key_resp_6.rt,key_resp_iso_reverse.keys,key_resp_iso_reverse.corr,key_resp_iso_reverse.rt,Practice_iso_Reverse.thisRepN,Practice_iso_Reverse.thisTrialN,Practice_iso_Reverse.thisN,Practice_iso_Reverse.thisIndex,Practice_iso_Reverse.ran,key_resp_7.keys,key_resp_7.rt,key_resp_t2_Practice.keys,key_resp_t2_Practice.corr,key_resp_t2_Practice.rt,Practice_t2_Reverse.thisRepN,Practice_t2_Reverse.thisTrialN,Practice_t2_Reverse.thisN,Practice_t2_Reverse.thisIndex,Practice_t2_Reverse.ran,Words_t2,ans_t2,key_resp_8.keys,key_resp_8.rt,key_resp_t2.keys,key_resp_t2.corr,key_resp_t2.rt,Formal_t2_reverse.thisRepN,Formal_t2_reverse.thisTrialN,Formal_t2_reverse.thisN,Formal_t2_reverse.thisIndex,Formal_t2_reverse.ran,key_instruct.keys,key_instruct.rt
space,66.5564,space,6.5168,i,1,0.7291,0,0,0,5,1,他,i,1,001,2025-01-03_00h04.05.411,IAT(Formal),2021.2.3,Win32,166.6666667,,,,,,,,,,,,,,,,,,,,,,,,,,,,,,,,,,,,,,,,,,,,,,,,,,,,,,,,,,,,,,,,,
,,,,e,1,0.5934,0,1,1,4,1,俺,e,1,001,2025-01-03_00h04.05.411,IAT(Formal),2021.2.3,Win32,166.6666667,,,,,,,,,,,,,,,,,,,,,,,,,,,,,,,,,,,,,,,,,,,,,,,,,,,,,,,,,,,,,,,,,
,,,,e,1,0.9514,0,2,2,3,1,自己,e,1,001,2025-01-03_00h04.05.411,IAT(Formal),2021.2.3,Win32,166.6666667,,,,,,,,,,,,,,,,,,,,,,,,,,,,,,,,,,,,,,,,,,,,,,,,,,,,,,,,,,,,,,,,,
,,,,e,1,0.643,0,3,3,0,1,我,e,1,001,2025-01-03_00h04.05.411,IAT(Formal),2021.2.3,Win32,166.6666667,,,,,,,,,,,,,,,,,,,,,,,,,,,,,,,,,,,,,,,,,,,,,,,,,,,,,,,,,,,,,,,,,
,,,,i,1,0.4358,0,4,4,6,1,他们,i,1,001,2025-01-03_00h04.05.411,IAT(Formal),2021.2.3,Win32,166.6666667,,,,,,,,,,,,,,,,,,,,,,,,,,,,,,,,,,,,,,,,,,,,,,,,,,,,,,,,,,,,,,,,,
,,,,i,1,0.6731,0,5,5,9,1,其他,i,1,001,2025-01-03_00h04.05.411,IAT(Formal),2021.2.3,Win32,166.6666667,,,,,,,,,,,,,,,,,,,,,,,,,,,,,,,,,,,,,,,,,,,,,,,,,,,,,,,,,,,,,,,,,
,,,,i,1,0.5475,0,6,6,8,1,他人,i,1,001,2025-01-03_00h04.05.411,IAT(Formal),2021.2.3,Win32,166.6666667,,,,,,,,,,,,,,,,,,,,,,,,,,,,,,,,,,,,,,,,,,,,,,,,,,,,,,,,,,,,,,,,,
,,,,e,1,0.9275,0,7,7,2,1,我们,e,1,001,2025-01-03_00h04.05.411,IAT(Formal),2021.2.3,Win32,166.6666667,,,,,,,,,,,,,,,,,,,,,,,,,,,,,,,,,,,,,,,,,,,,,,,,,,,,,,,,,,,,,,,,,
,,,,i,1,0.5112,0,8,8,7,1,他的,i,1,001,2025-01-03_00h04.05.411,IAT(Formal),2021.2.3,Win32,166.6666667,,,,,,,,,,,,,,,,,,,,,,,,,,,,,,,,,,,,,,,,,,,,,,,,,,,,,,,,,,,,,,,,,
,,,,e,1,0.5037,0,9,9,1,1,我的,e,1,001,2025-01-03_00h04.05.411,IAT(Formal),2021.2.3,Win32,166.6666667,,,,,,,,,,,,,,,,,,,,,,,,,,,,,,,,,,,,,,,,,,,,,,,,,,,,,,,,,,,,,,,,,
,,,,,,,,,,,,,,1,001,2025-01-03_00h04.05.411,IAT(Formal),2021.2.3,Win32,166.6666667,space,3.5171,i,1,1.2231,0,0,0,31,1,散漫,i,,,,,,,,,,,,,,,,,,,,,,,,,,,,,,,,,,,,,,,,,,,,,,,,,,,,,
,,,,,,,,,,,,,,1,001,2025-01-03_00h04.05.411,IAT(Formal),2021.2.3,Win32,166.6666667,,,i,1,0.517,0,1,1,35,1,猖狂,i,,,,,,,,,,,,,,,,,,,,,,,,,,,,,,,,,,,,,,,,,,,,,,,,,,,,,
,,,,,,,,,,,,,,1,001,2025-01-03_00h04.05.411,IAT(Formal),2021.2.3,Win32,166.6666667,,,e,1,0.6986,0,2,2,11,1,稳重,e,,,,,,,,,,,,,,,,,,,,,,,,,,,,,,,,,,,,,,,,,,,,,,,,,,,,,
,,,,,,,,,,,,,,1,001,2025-01-03_00h04.05.411,IAT(Formal),2021.2.3,Win32,166.6666667,,,e,1,0.5102,0,3,3,19,1,诚恳,e,,,,,,,,,,,,,,,,,,,,,,,,,,,,,,,,,,,,,,,,,,,,,,,,,,,,,
,,,,,,,,,,,,,,1,001,2025-01-03_00h04.05.411,IAT(Formal),2021.2.3,Win32,166.6666667,,,i,1,0.5527,0,4,4,29,1,冒失,i,,,,,,,,,,,,,,,,,,,,,,,,,,,,,,,,,,,,,,,,,,,,,,,,,,,,,
,,,,,,,,,,,,,,1,001,2025-01-03_00h04.05.411,IAT(Formal),2021.2.3,Win32,166.6666667,,,i,1,0.5343,0,5,5,21,1,虚伪,i,,,,,,,,,,,,,,,,,,,,,,,,,,,,,,,,,,,,,,,,,,,,,,,,,,,,,
,,,,,,,,,,,,,,1,001,2025-01-03_00h04.05.411,IAT(Formal),2021.2.3,Win32,166.6666667,,,e,1,0.7992,0,6,6,14,1,朴实,e,,,,,,,,,,,,,,,,,,,,,,,,,,,,,,,,,,,,,,,,,,,,,,,,,,,,,
,,,,,,,,,,,,,,1,001,2025-01-03_00h04.05.411,IAT(Formal),2021.2.3,Win32,166.6666667,,,e,1,0.5235,0,7,7,0,1,优秀,e,,,,,,,,,,,,,,,,,,,,,,,,,,,,,,,,,,,,,,,,,,,,,,,,,,,,,
,,,,,,,,,,,,,,1,001,2025-01-03_00h04.05.411,IAT(Formal),2021.2.3,Win32,166.6666667,,,i,1,0.558,0,8,8,23,1,刻薄,i,,,,,,,,,,,,,,,,,,,,,,,,,,,,,,,,,,,,,,,,,,,,,,,,,,,,,
,,,,,,,,,,,,,,1,001,2025-01-03_00h04.05.411,IAT(Formal),2021.2.3,Win32,166.6666667,,,e,1,0.5057,0,9,9,5,1,诚实,e,,,,,,,,,,,,,,,,,,,,,,,,,,,,,,,,,,,,,,,,,,,,,,,,,,,,,
,,,,,,,,,,,,,,1,001,2025-01-03_00h04.05.411,IAT(Formal),2021.2.3,Win32,166.6666667,,,e,1,0.6788,0,10,10,1,1,崇高,e,,,,,,,,,,,,,,,,,,,,,,,,,,,,,,,,,,,,,,,,,,,,,,,,,,,,,
,,,,,,,,,,,,,,1,001,2025-01-03_00h04.05.411,IAT(Formal),2021.2.3,Win32,166.6666667,,,i,1,0.5821,0,11,11,22,1,愚蠢,i,,,,,,,,,,,,,,,,,,,,,,,,,,,,,,,,,,,,,,,,,,,,,,,,,,,,,
,,,,,,,,,,,,,,1,001,2025-01-03_00h04.05.411,IAT(Formal),2021.2.3,Win32,166.6666667,,,e,1,0.5335,0,12,12,15,1,细腻,e,,,,,,,,,,,,,,,,,,,,,,,,,,,,,,,,,,,,,,,,,,,,,,,,,,,,,
,,,,,,,,,,,,,,1,001,2025-01-03_00h04.05.411,IAT(Formal),2021.2.3,Win32,166.6666667,,,i,1,0.5628,0,13,13,28,1,鲁莽,i,,,,,,,,,,,,,,,,,,,,,,,,,,,,,,,,,,,,,,,,,,,,,,,,,,,,,
,,,,,,,,,,,,,,1,001,2025-01-03_00h04.05.411,IAT(Formal),2021.2.3,Win32,166.6666667,,,i,1,0.5825,0,14,14,24,1,悲观,i,,,,,,,,,,,,,,,,,,,,,,,,,,,,,,,,,,,,,,,,,,,,,,,,,,,,,
,,,,,,,,,,,,,,1,001,2025-01-03_00h04.05.411,IAT(Formal),2021.2.3,Win32,166.6666667,,,e,1,0.4834,0,15,15,13,1,公正,e,,,,,,,,,,,,,,,,,,,,,,,,,,,,,,,,,,,,,,,,,,,,,,,,,,,,,
,,,,,,,,,,,,,,1,001,2025-01-03_00h04.05.411,IAT(Formal),2021.2.3,Win32,166.6666667,,,e,1,0.7333,0,16,16,12,1,无私,e,,,,,,,,,,,,,,,,,,,,,,,,,,,,,,,,,,,,,,,,,,,,,,,,,,,,,
,,,,,,,,,,,,,,1,001,2025-01-03_00h04.05.411,IAT(Formal),2021.2.3,Win32,166.6666667,,,i,1,0.552,0,17,17,26,1,自卑,i,,,,,,,,,,,,,,,,,,,,,,,,,,,,,,,,,,,,,,,,,,,,,,,,,,,,,
,,,,,,,,,,,,,,1,001,2025-01-03_00h04.05.411,IAT(Formal),2021.2.3,Win32,166.6666667,,,e,1,0.8196,0,18,18,17,1,热情,e,,,,,,,,,,,,,,,,,,,,,,,,,,,,,,,,,,,,,,,,,,,,,,,,,,,,,
,,,,,,,,,,,,,,1,001,2025-01-03_00h04.05.411,IAT(Formal),2021.2.3,Win32,166.6666667,,,i,1,0.4673,0,19,19,25,1,消极,i,,,,,,,,,,,,,,,,,,,,,,,,,,,,,,,,,,,,,,,,,,,,,,,,,,,,,
,,,,,,,,,,,,,,1,001,2025-01-03_00h04.05.411,IAT(Formal),2021.2.3,Win32,166.6666667,,,i,1,0.5158,0,20,20,20,1,卑鄙,i,,,,,,,,,,,,,,,,,,,,,,,,,,,,,,,,,,,,,,,,,,,,,,,,,,,,,
,,,,,,,,,,,,,,1,001,2025-01-03_00h04.05.411,IAT(Formal),2021.2.3,Win32,166.6666667,,,i,1,0.4406,0,21,21,39,1,下贱,i,,,,,,,,,,,,,,,,,,,,,,,,,,,,,,,,,,,,,,,,,,,,,,,,,,,,,
,,,,,,,,,,,,,,1,001,2025-01-03_00h04.05.411,IAT(Formal),2021.2.3,Win32,166.6666667,,,e,1,0.5355,0,22,22,10,1,认真,e,,,,,,,,,,,,,,,,,,,,,,,,,,,,,,,,,,,,,,,,,,,,,,,,,,,,,
,,,,,,,,,,,,,,1,001,2025-01-03_00h04.05.411,IAT(Formal),2021.2.3,Win32,166.6666667,,,i,1,0.6258,0,23,23,32,1,凶狠,i,,,,,,,,,,,,,,,,,,,,,,,,,,,,,,,,,,,,,,,,,,,,,,,,,,,,,
,,,,,,,,,,,,,,1,001,2025-01-03_00h04.05.411,IAT(Formal),2021.2.3,Win32,166.6666667,,,i,1,0.5053,0,24,24,27,1,傲慢,i,,,,,,,,,,,,,,,,,,,,,,,,,,,,,,,,,,,,,,,,,,,,,,,,,,,,,
,,,,,,,,,,,,,,1,001,2025-01-03_00h04.05.411,IAT(Formal),2021.2.3,Win32,166.6666667,,,i,1,0.4302,0,25,25,36,1,野蛮,i,,,,,,,,,,,,,,,,,,,,,,,,,,,,,,,,,,,,,,,,,,,,,,,,,,,,,
,,,,,,,,,,,,,,1,001,2025-01-03_00h04.05.411,IAT(Formal),2021.2.3,Win32,166.6666667,,,e,1,0.6189,0,26,26,9,1,机智,e,,,,,,,,,,,,,,,,,,,,,,,,,,,,,,,,,,,,,,,,,,,,,,,,,,,,,
,,,,,,,,,,,,,,1,001,2025-01-03_00h04.05.411,IAT(Formal),2021.2.3,Win32,166.6666667,,,i,1,0.4853,0,27,27,33,1,自私,i,,,,,,,,,,,,,,,,,,,,,,,,,,,,,,,,,,,,,,,,,,,,,,,,,,,,,
,,,,,,,,,,,,,,1,001,2025-01-03_00h04.05.411,IAT(Formal),2021.2.3,Win32,166.6666667,,,e,1,0.5275,0,28,28,7,1,勇敢,e,,,,,,,,,,,,,,,,,,,,,,,,,,,,,,,,,,,,,,,,,,,,,,,,,,,,,
,,,,,,,,,,,,,,1,001,2025-01-03_00h04.05.411,IAT(Formal),2021.2.3,Win32,166.6666667,,,e,1,0.4856,0,29,29,2,1,聪明,e,,,,,,,,,,,,,,,,,,,,,,,,,,,,,,,,,,,,,,,,,,,,,,,,,,,,,
,,,,,,,,,,,,,,1,001,2025-01-03_00h04.05.411,IAT(Formal),2021.2.3,Win32,166.6666667,,,e,1,0.7881,0,30,30,16,1,冷静,e,,,,,,,,,,,,,,,,,,,,,,,,,,,,,,,,,,,,,,,,,,,,,,,,,,,,,
,,,,,,,,,,,,,,1,001,2025-01-03_00h04.05.411,IAT(Formal),2021.2.3,Win32,166.6666667,,,,0,,0,31,31,38,1,轻率,i,,,,,,,,,,,,,,,,,,,,,,,,,,,,,,,,,,,,,,,,,,,,,,,,,,,,,
,,,,,,,,,,,,,,1,001,2025-01-03_00h04.05.411,IAT(Formal),2021.2.3,Win32,166.6666667,,,i,1,1.4538,0,32,32,37,1,固执,i,,,,,,,,,,,,,,,,,,,,,,,,,,,,,,,,,,,,,,,,,,,,,,,,,,,,,
,,,,,,,,,,,,,,1,001,2025-01-03_00h04.05.411,IAT(Formal),2021.2.3,Win32,166.6666667,,,e,1,0.5945,0,33,33,18,1,活泼,e,,,,,,,,,,,,,,,,,,,,,,,,,,,,,,,,,,,,,,,,,,,,,,,,,,,,,
,,,,,,,,,,,,,,1,001,2025-01-03_00h04.05.411,IAT(Formal),2021.2.3,Win32,166.6666667,,,i,1,0.4979,0,34,34,34,1,暴躁,i,,,,,,,,,,,,,,,,,,,,,,,,,,,,,,,,,,,,,,,,,,,,,,,,,,,,,
,,,,,,,,,,,,,,1,001,2025-01-03_00h04.05.411,IAT(Formal),2021.2.3,Win32,166.6666667,,,e,1,0.546,0,35,35,3,1,杰出,e,,,,,,,,,,,,,,,,,,,,,,,,,,,,,,,,,,,,,,,,,,,,,,,,,,,,,
,,,,,,,,,,,,,,1,001,2025-01-03_00h04.05.411,IAT(Formal),2021.2.3,Win32,166.6666667,,,e,1,0.6308,0,36,36,4,1,乐观,e,,,,,,,,,,,,,,,,,,,,,,,,,,,,,,,,,,,,,,,,,,,,,,,,,,,,,
,,,,,,,,,,,,,,1,001,2025-01-03_00h04.05.411,IAT(Formal),2021.2.3,Win32,166.6666667,,,i,1,0.5744,0,37,37,30,1,执拗,i,,,,,,,,,,,,,,,,,,,,,,,,,,,,,,,,,,,,,,,,,,,,,,,,,,,,,
,,,,,,,,,,,,,,1,001,2025-01-03_00h04.05.411,IAT(Formal),2021.2.3,Win32,166.6666667,,,e,1,0.5029,0,38,38,8,1,勤奋,e,,,,,,,,,,,,,,,,,,,,,,,,,,,,,,,,,,,,,,,,,,,,,,,,,,,,,
,,,,,,,,,,,,,,1,001,2025-01-03_00h04.05.411,IAT(Formal),2021.2.3,Win32,166.6666667,,,e,1,0.5581,0,39,39,6,1,正直,e,,,,,,,,,,,,,,,,,,,,,,,,,,,,,,,,,,,,,,,,,,,,,,,,,,,,,
,,,,,,,,,,,,,,1,001,2025-01-03_00h04.05.411,IAT(Formal),2021.2.3,Win32,166.6666667,,,,,,,,,,,,,space,6.827,i,1,0.7133,0,0,0,44,1,暴躁,i,,,,,,,,,,,,,,,,,,,,,,,,,,,,,,,,,,,,,,,,,
,,,,,,,,,,,,,,1,001,2025-01-03_00h04.05.411,IAT(Formal),2021.2.3,Win32,166.6666667,,,,,,,,,,,,,,,i,1,0.6155,0,1,1,67,1,他的,i,,,,,,,,,,,,,,,,,,,,,,,,,,,,,,,,,,,,,,,,,
,,,,,,,,,,,,,,1,001,2025-01-03_00h04.05.411,IAT(Formal),2021.2.3,Win32,166.6666667,,,,,,,,,,,,,,,i,1,0.4855,0,2,2,7,1,他的,i,,,,,,,,,,,,,,,,,,,,,,,,,,,,,,,,,,,,,,,,,
,,,,,,,,,,,,,,1,001,2025-01-03_00h04.05.411,IAT(Formal),2021.2.3,Win32,166.6666667,,,,,,,,,,,,,,,e,1,1.0731,0,3,3,0,1,我,e,,,,,,,,,,,,,,,,,,,,,,,,,,,,,,,,,,,,,,,,,
,,,,,,,,,,,,,,1,001,2025-01-03_00h04.05.411,IAT(Formal),2021.2.3,Win32,166.6666667,,,,,,,,,,,,,,,e,1,0.5521,0,4,4,19,1,机智,e,,,,,,,,,,,,,,,,,,,,,,,,,,,,,,,,,,,,,,,,,
,,,,,,,,,,,,,,1,001,2025-01-03_00h04.05.411,IAT(Formal),2021.2.3,Win32,166.6666667,,,,,,,,,,,,,,,e,1,0.612,0,5,5,14,1,乐观,e,,,,,,,,,,,,,,,,,,,,,,,,,,,,,,,,,,,,,,,,,
,,,,,,,,,,,,,,1,001,2025-01-03_00h04.05.411,IAT(Formal),2021.2.3,Win32,166.6666667,,,,,,,,,,,,,,,e,1,0.4232,0,6,6,15,1,诚实,e,,,,,,,,,,,,,,,,,,,,,,,,,,,,,,,,,,,,,,,,,
,,,,,,,,,,,,,,1,001,2025-01-03_00h04.05.411,IAT(Formal),2021.2.3,Win32,166.6666667,,,,,,,,,,,,,,,e,1,0.8121,0,7,7,62,1,我们,e,,,,,,,,,,,,,,,,,,,,,,,,,,,,,,,,,,,,,,,,,
,,,,,,,,,,,,,,1,001,2025-01-03_00h04.05.411,IAT(Formal),2021.2.3,Win32,166.6666667,,,,,,,,,,,,,,,i,0,0.4872,0,8,8,22,1,无私,e,,,,,,,,,,,,,,,,,,,,,,,,,,,,,,,,,,,,,,,,,
,,,,,,,,,,,,,,1,001,2025-01-03_00h04.05.411,IAT(Formal),2021.2.3,Win32,166.6666667,,,,,,,,,,,,,,,i,1,0.5704,0,9,9,6,1,他们,i,,,,,,,,,,,,,,,,,,,,,,,,,,,,,,,,,,,,,,,,,
,,,,,,,,,,,,,,1,001,2025-01-03_00h04.05.411,IAT(Formal),2021.2.3,Win32,166.6666667,,,,,,,,,,,,,,,e,1,0.419,0,10,10,64,1,俺,e,,,,,,,,,,,,,,,,,,,,,,,,,,,,,,,,,,,,,,,,,
,,,,,,,,,,,,,,1,001,2025-01-03_00h04.05.411,IAT(Formal),2021.2.3,Win32,166.6666667,,,,,,,,,,,,,,,e,1,0.4448,0,11,11,73,1,自己,e,,,,,,,,,,,,,,,,,,,,,,,,,,,,,,,,,,,,,,,,,
,,,,,,,,,,,,,,1,001,2025-01-03_00h04.05.411,IAT(Formal),2021.2.3,Win32,166.6666667,,,,,,,,,,,,,,,e,1,0.5899,0,12,12,26,1,冷静,e,,,,,,,,,,,,,,,,,,,,,,,,,,,,,,,,,,,,,,,,,
,,,,,,,,,,,,,,1,001,2025-01-03_00h04.05.411,IAT(Formal),2021.2.3,Win32,166.6666667,,,,,,,,,,,,,,,e,1,0.4188,0,13,13,18,1,勤奋,e,,,,,,,,,,,,,,,,,,,,,,,,,,,,,,,,,,,,,,,,,
,,,,,,,,,,,,,,1,001,2025-01-03_00h04.05.411,IAT(Formal),2021.2.3,Win32,166.6666667,,,,,,,,,,,,,,,i,1,0.6789,0,14,14,47,1,固执,i,,,,,,,,,,,,,,,,,,,,,,,,,,,,,,,,,,,,,,,,,
,,,,,,,,,,,,,,1,001,2025-01-03_00h04.05.411,IAT(Formal),2021.2.3,Win32,166.6666667,,,,,,,,,,,,,,,e,1,0.5811,0,15,15,74,1,俺,e,,,,,,,,,,,,,,,,,,,,,,,,,,,,,,,,,,,,,,,,,
,,,,,,,,,,,,,,1,001,2025-01-03_00h04.05.411,IAT(Formal),2021.2.3,Win32,166.6666667,,,,,,,,,,,,,,,i,1,0.554,0,16,16,42,1,凶狠,i,,,,,,,,,,,,,,,,,,,,,,,,,,,,,,,,,,,,,,,,,
,,,,,,,,,,,,,,1,001,2025-01-03_00h04.05.411,IAT(Formal),2021.2.3,Win32,166.6666667,,,,,,,,,,,,,,,e,1,0.4609,0,17,17,60,1,我,e,,,,,,,,,,,,,,,,,,,,,,,,,,,,,,,,,,,,,,,,,
,,,,,,,,,,,,,,1,001,2025-01-03_00h04.05.411,IAT(Formal),2021.2.3,Win32,166.6666667,,,,,,,,,,,,,,,e,0,0.5888,0,18,18,43,1,自私,i,,,,,,,,,,,,,,,,,,,,,,,,,,,,,,,,,,,,,,,,,
,,,,,,,,,,,,,,1,001,2025-01-03_00h04.05.411,IAT(Formal),2021.2.3,Win32,166.6666667,,,,,,,,,,,,,,,i,1,0.5939,0,19,19,40,1,执拗,i,,,,,,,,,,,,,,,,,,,,,,,,,,,,,,,,,,,,,,,,,
,,,,,,,,,,,,,,1,001,2025-01-03_00h04.05.411,IAT(Formal),2021.2.3,Win32,166.6666667,,,,,,,,,,,,,,,i,1,0.521,0,20,20,36,1,自卑,i,,,,,,,,,,,,,,,,,,,,,,,,,,,,,,,,,,,,,,,,,
,,,,,,,,,,,,,,1,001,2025-01-03_00h04.05.411,IAT(Formal),2021.2.3,Win32,166.6666667,,,,,,,,,,,,,,,e,1,0.5456,0,21,21,28,1,活泼,e,,,,,,,,,,,,,,,,,,,,,,,,,,,,,,,,,,,,,,,,,
,,,,,,,,,,,,,,1,001,2025-01-03_00h04.05.411,IAT(Formal),2021.2.3,Win32,166.6666667,,,,,,,,,,,,,,,i,1,0.5288,0,22,22,58,1,他人,i,,,,,,,,,,,,,,,,,,,,,,,,,,,,,,,,,,,,,,,,,
,,,,,,,,,,,,,,1,001,2025-01-03_00h04.05.411,IAT(Formal),2021.2.3,Win32,166.6666667,,,,,,,,,,,,,,,i,1,0.6471,0,23,23,5,1,他,i,,,,,,,,,,,,,,,,,,,,,,,,,,,,,,,,,,,,,,,,,
,,,,,,,,,,,,,,1,001,2025-01-03_00h04.05.411,IAT(Formal),2021.2.3,Win32,166.6666667,,,,,,,,,,,,,,,i,1,0.535,0,24,24,76,1,他们,i,,,,,,,,,,,,,,,,,,,,,,,,,,,,,,,,,,,,,,,,,
,,,,,,,,,,,,,,1,001,2025-01-03_00h04.05.411,IAT(Formal),2021.2.3,Win32,166.6666667,,,,,,,,,,,,,,,i,1,0.4431,0,25,25,59,1,其他,i,,,,,,,,,,,,,,,,,,,,,,,,,,,,,,,,,,,,,,,,,
,,,,,,,,,,,,,,1,001,2025-01-03_00h04.05.411,IAT(Formal),2021.2.3,Win32,166.6666667,,,,,,,,,,,,,,,i,1,0.5042,0,26,26,49,1,下贱,i,,,,,,,,,,,,,,,,,,,,,,,,,,,,,,,,,,,,,,,,,
,,,,,,,,,,,,,,1,001,2025-01-03_00h04.05.411,IAT(Formal),2021.2.3,Win32,166.6666667,,,,,,,,,,,,,,,e,1,0.5718,0,27,27,54,1,俺,e,,,,,,,,,,,,,,,,,,,,,,,,,,,,,,,,,,,,,,,,,
,,,,,,,,,,,,,,1,001,2025-01-03_00h04.05.411,IAT(Formal),2021.2.3,Win32,166.6666667,,,,,,,,,,,,,,,e,1,0.4432,0,28,28,63,1,自己,e,,,,,,,,,,,,,,,,,,,,,,,,,,,,,,,,,,,,,,,,,
,,,,,,,,,,,,,,1,001,2025-01-03_00h04.05.411,IAT(Formal),2021.2.3,Win32,166.6666667,,,,,,,,,,,,,,,e,1,0.5156,0,29,29,11,1,崇高,e,,,,,,,,,,,,,,,,,,,,,,,,,,,,,,,,,,,,,,,,,
,,,,,,,,,,,,,,1,001,2025-01-03_00h04.05.411,IAT(Formal),2021.2.3,Win32,166.6666667,,,,,,,,,,,,,,,i,1,0.6082,0,30,30,45,1,猖狂,i,,,,,,,,,,,,,,,,,,,,,,,,,,,,,,,,,,,,,,,,,
,,,,,,,,,,,,,,1,001,2025-01-03_00h04.05.411,IAT(Formal),2021.2.3,Win32,166.6666667,,,,,,,,,,,,,,,i,1,0.6005,0,31,31,69,1,其他,i,,,,,,,,,,,,,,,,,,,,,,,,,,,,,,,,,,,,,,,,,
,,,,,,,,,,,,,,1,001,2025-01-03_00h04.05.411,IAT(Formal),2021.2.3,Win32,166.6666667,,,,,,,,,,,,,,,i,1,0.3998,0,32,32,31,1,虚伪,i,,,,,,,,,,,,,,,,,,,,,,,,,,,,,,,,,,,,,,,,,
,,,,,,,,,,,,,,1,001,2025-01-03_00h04.05.411,IAT(Formal),2021.2.3,Win32,166.6666667,,,,,,,,,,,,,,,e,1,0.4667,0,33,33,70,1,我,e,,,,,,,,,,,,,,,,,,,,,,,,,,,,,,,,,,,,,,,,,
,,,,,,,,,,,,,,1,001,2025-01-03_00h04.05.411,IAT(Formal),2021.2.3,Win32,166.6666667,,,,,,,,,,,,,,,e,1,0.6869,0,34,34,4,1,俺,e,,,,,,,,,,,,,,,,,,,,,,,,,,,,,,,,,,,,,,,,,
,,,,,,,,,,,,,,1,001,2025-01-03_00h04.05.411,IAT(Formal),2021.2.3,Win32,166.6666667,,,,,,,,,,,,,,,i,1,0.534,0,35,35,79,1,其他,i,,,,,,,,,,,,,,,,,,,,,,,,,,,,,,,,,,,,,,,,,
,,,,,,,,,,,,,,1,001,2025-01-03_00h04.05.411,IAT(Formal),2021.2.3,Win32,166.6666667,,,,,,,,,,,,,,,i,1,0.4121,0,36,36,46,1,野蛮,i,,,,,,,,,,,,,,,,,,,,,,,,,,,,,,,,,,,,,,,,,
,,,,,,,,,,,,,,1,001,2025-01-03_00h04.05.411,IAT(Formal),2021.2.3,Win32,166.6666667,,,,,,,,,,,,,,,e,1,0.5825,0,37,37,2,1,我们,e,,,,,,,,,,,,,,,,,,,,,,,,,,,,,,,,,,,,,,,,,
,,,,,,,,,,,,,,1,001,2025-01-03_00h04.05.411,IAT(Formal),2021.2.3,Win32,166.6666667,,,,,,,,,,,,,,,i,1,0.5698,0,38,38,75,1,他,i,,,,,,,,,,,,,,,,,,,,,,,,,,,,,,,,,,,,,,,,,
,,,,,,,,,,,,,,1,001,2025-01-03_00h04.05.411,IAT(Formal),2021.2.3,Win32,166.6666667,,,,,,,,,,,,,,,i,1,0.5335,0,39,39,57,1,他的,i,,,,,,,,,,,,,,,,,,,,,,,,,,,,,,,,,,,,,,,,,
,,,,,,,,,,,,,,1,001,2025-01-03_00h04.05.411,IAT(Formal),2021.2.3,Win32,166.6666667,,,,,,,,,,,,,,,i,1,0.5886,0,40,40,37,1,傲慢,i,,,,,,,,,,,,,,,,,,,,,,,,,,,,,,,,,,,,,,,,,
,,,,,,,,,,,,,,1,001,2025-01-03_00h04.05.411,IAT(Formal),2021.2.3,Win32,166.6666667,,,,,,,,,,,,,,,i,1,0.4014,0,41,41,66,1,他们,i,,,,,,,,,,,,,,,,,,,,,,,,,,,,,,,,,,,,,,,,,
,,,,,,,,,,,,,,1,001,2025-01-03_00h04.05.411,IAT(Formal),2021.2.3,Win32,166.6666667,,,,,,,,,,,,,,,i,1,0.375,0,42,42,56,1,他们,i,,,,,,,,,,,,,,,,,,,,,,,,,,,,,,,,,,,,,,,,,
,,,,,,,,,,,,,,1,001,2025-01-03_00h04.05.411,IAT(Formal),2021.2.3,Win32,166.6666667,,,,,,,,,,,,,,,i,1,0.381,0,43,43,9,1,其他,i,,,,,,,,,,,,,,,,,,,,,,,,,,,,,,,,,,,,,,,,,
,,,,,,,,,,,,,,1,001,2025-01-03_00h04.05.411,IAT(Formal),2021.2.3,Win32,166.6666667,,,,,,,,,,,,,,,e,1,0.5466,0,44,44,3,1,自己,e,,,,,,,,,,,,,,,,,,,,,,,,,,,,,,,,,,,,,,,,,
,,,,,,,,,,,,,,1,001,2025-01-03_00h04.05.411,IAT(Formal),2021.2.3,Win32,166.6666667,,,,,,,,,,,,,,,e,1,0.667,0,45,45,20,1,认真,e,,,,,,,,,,,,,,,,,,,,,,,,,,,,,,,,,,,,,,,,,
,,,,,,,,,,,,,,1,001,2025-01-03_00h04.05.411,IAT(Formal),2021.2.3,Win32,166.6666667,,,,,,,,,,,,,,,e,1,0.5638,0,46,46,10,1,优秀,e,,,,,,,,,,,,,,,,,,,,,,,,,,,,,,,,,,,,,,,,,
,,,,,,,,,,,,,,1,001,2025-01-03_00h04.05.411,IAT(Formal),2021.2.3,Win32,166.6666667,,,,,,,,,,,,,,,e,1,0.5695,0,47,47,13,1,杰出,e,,,,,,,,,,,,,,,,,,,,,,,,,,,,,,,,,,,,,,,,,
,,,,,,,,,,,,,,1,001,2025-01-03_00h04.05.411,IAT(Formal),2021.2.3,Win32,166.6666667,,,,,,,,,,,,,,,i,1,0.9712,0,48,48,78,1,他人,i,,,,,,,,,,,,,,,,,,,,,,,,,,,,,,,,,,,,,,,,,
,,,,,,,,,,,,,,1,001,2025-01-03_00h04.05.411,IAT(Formal),2021.2.3,Win32,166.6666667,,,,,,,,,,,,,,,i,0,0.3695,0,49,49,24,1,朴实,e,,,,,,,,,,,,,,,,,,,,,,,,,,,,,,,,,,,,,,,,,
,,,,,,,,,,,,,,1,001,2025-01-03_00h04.05.411,IAT(Formal),2021.2.3,Win32,166.6666667,,,,,,,,,,,,,,,i,1,0.5247,0,50,50,35,1,消极,i,,,,,,,,,,,,,,,,,,,,,,,,,,,,,,,,,,,,,,,,,
,,,,,,,,,,,,,,1,001,2025-01-03_00h04.05.411,IAT(Formal),2021.2.3,Win32,166.6666667,,,,,,,,,,,,,,,e,1,0.5304,0,51,51,21,1,稳重,e,,,,,,,,,,,,,,,,,,,,,,,,,,,,,,,,,,,,,,,,,
,,,,,,,,,,,,,,1,001,2025-01-03_00h04.05.411,IAT(Formal),2021.2.3,Win32,166.6666667,,,,,,,,,,,,,,,i,1,0.5466,0,52,52,34,1,悲观,i,,,,,,,,,,,,,,,,,,,,,,,,,,,,,,,,,,,,,,,,,
,,,,,,,,,,,,,,1,001,2025-01-03_00h04.05.411,IAT(Formal),2021.2.3,Win32,166.6666667,,,,,,,,,,,,,,,e,1,0.448,0,53,53,52,1,我们,e,,,,,,,,,,,,,,,,,,,,,,,,,,,,,,,,,,,,,,,,,
,,,,,,,,,,,,,,1,001,2025-01-03_00h04.05.411,IAT(Formal),2021.2.3,Win32,166.6666667,,,,,,,,,,,,,,,e,1,0.4306,0,54,54,17,1,勇敢,e,,,,,,,,,,,,,,,,,,,,,,,,,,,,,,,,,,,,,,,,,
,,,,,,,,,,,,,,1,001,2025-01-03_00h04.05.411,IAT(Formal),2021.2.3,Win32,166.6666667,,,,,,,,,,,,,,,e,0,0.4203,0,55,55,68,1,他人,i,,,,,,,,,,,,,,,,,,,,,,,,,,,,,,,,,,,,,,,,,
,,,,,,,,,,,,,,1,001,2025-01-03_00h04.05.411,IAT(Formal),2021.2.3,Win32,166.6666667,,,,,,,,,,,,,,,e,1,0.4217,0,56,56,50,1,我,e,,,,,,,,,,,,,,,,,,,,,,,,,,,,,,,,,,,,,,,,,
,,,,,,,,,,,,,,1,001,2025-01-03_00h04.05.411,IAT(Formal),2021.2.3,Win32,166.6666667,,,,,,,,,,,,,,,e,1,0.4424,0,57,57,61,1,我的,e,,,,,,,,,,,,,,,,,,,,,,,,,,,,,,,,,,,,,,,,,
,,,,,,,,,,,,,,1,001,2025-01-03_00h04.05.411,IAT(Formal),2021.2.3,Win32,166.6666667,,,,,,,,,,,,,,,i,1,0.5939,0,58,58,55,1,他,i,,,,,,,,,,,,,,,,,,,,,,,,,,,,,,,,,,,,,,,,,
,,,,,,,,,,,,,,1,001,2025-01-03_00h04.05.411,IAT(Formal),2021.2.3,Win32,166.6666667,,,,,,,,,,,,,,,e,1,0.6603,0,59,59,23,1,公正,e,,,,,,,,,,,,,,,,,,,,,,,,,,,,,,,,,,,,,,,,,
,,,,,,,,,,,,,,1,001,2025-01-03_00h04.05.411,IAT(Formal),2021.2.3,Win32,166.6666667,,,,,,,,,,,,,,,i,1,0.4851,0,60,60,8,1,他人,i,,,,,,,,,,,,,,,,,,,,,,,,,,,,,,,,,,,,,,,,,
,,,,,,,,,,,,,,1,001,2025-01-03_00h04.05.411,IAT(Formal),2021.2.3,Win32,166.6666667,,,,,,,,,,,,,,,i,1,0.6609,0,61,61,39,1,冒失,i,,,,,,,,,,,,,,,,,,,,,,,,,,,,,,,,,,,,,,,,,
,,,,,,,,,,,,,,1,001,2025-01-03_00h04.05.411,IAT(Formal),2021.2.3,Win32,166.6666667,,,,,,,,,,,,,,,e,1,0.5268,0,62,62,12,1,聪明,e,,,,,,,,,,,,,,,,,,,,,,,,,,,,,,,,,,,,,,,,,
,,,,,,,,,,,,,,1,001,2025-01-03_00h04.05.411,IAT(Formal),2021.2.3,Win32,166.6666667,,,,,,,,,,,,,,,i,1,0.5485,0,63,63,38,1,鲁莽,i,,,,,,,,,,,,,,,,,,,,,,,,,,,,,,,,,,,,,,,,,
,,,,,,,,,,,,,,1,001,2025-01-03_00h04.05.411,IAT(Formal),2021.2.3,Win32,166.6666667,,,,,,,,,,,,,,,i,1,0.5575,0,64,64,65,1,他,i,,,,,,,,,,,,,,,,,,,,,,,,,,,,,,,,,,,,,,,,,
,,,,,,,,,,,,,,1,001,2025-01-03_00h04.05.411,IAT(Formal),2021.2.3,Win32,166.6666667,,,,,,,,,,,,,,,i,1,0.5772,0,65,65,48,1,轻率,i,,,,,,,,,,,,,,,,,,,,,,,,,,,,,,,,,,,,,,,,,
,,,,,,,,,,,,,,1,001,2025-01-03_00h04.05.411,IAT(Formal),2021.2.3,Win32,166.6666667,,,,,,,,,,,,,,,i,1,0.8437,0,66,66,77,1,他的,i,,,,,,,,,,,,,,,,,,,,,,,,,,,,,,,,,,,,,,,,,
,,,,,,,,,,,,,,1,001,2025-01-03_00h04.05.411,IAT(Formal),2021.2.3,Win32,166.6666667,,,,,,,,,,,,,,,e,1,0.7459,0,67,67,16,1,正直,e,,,,,,,,,,,,,,,,,,,,,,,,,,,,,,,,,,,,,,,,,
,,,,,,,,,,,,,,1,001,2025-01-03_00h04.05.411,IAT(Formal),2021.2.3,Win32,166.6666667,,,,,,,,,,,,,,,i,1,0.5644,0,68,68,33,1,刻薄,i,,,,,,,,,,,,,,,,,,,,,,,,,,,,,,,,,,,,,,,,,
,,,,,,,,,,,,,,1,001,2025-01-03_00h04.05.411,IAT(Formal),2021.2.3,Win32,166.6666667,,,,,,,,,,,,,,,e,1,0.9271,0,69,69,71,1,我的,e,,,,,,,,,,,,,,,,,,,,,,,,,,,,,,,,,,,,,,,,,
,,,,,,,,,,,,,,1,001,2025-01-03_00h04.05.411,IAT(Formal),2021.2.3,Win32,166.6666667,,,,,,,,,,,,,,,i,1,0.4231,0,70,70,32,1,愚蠢,i,,,,,,,,,,,,,,,,,,,,,,,,,,,,,,,,,,,,,,,,,
,,,,,,,,,,,,,,1,001,2025-01-03_00h04.05.411,IAT(Formal),2021.2.3,Win32,166.6666667,,,,,,,,,,,,,,,i,1,0.5489,0,71,71,30,1,卑鄙,i,,,,,,,,,,,,,,,,,,,,,,,,,,,,,,,,,,,,,,,,,
,,,,,,,,,,,,,,1,001,2025-01-03_00h04.05.411,IAT(Formal),2021.2.3,Win32,166.6666667,,,,,,,,,,,,,,,e,1,0.5522,0,72,72,29,1,诚恳,e,,,,,,,,,,,,,,,,,,,,,,,,,,,,,,,,,,,,,,,,,
,,,,,,,,,,,,,,1,001,2025-01-03_00h04.05.411,IAT(Formal),2021.2.3,Win32,166.6666667,,,,,,,,,,,,,,,i,0,0.6534,0,73,73,72,1,我们,e,,,,,,,,,,,,,,,,,,,,,,,,,,,,,,,,,,,,,,,,,
,,,,,,,,,,,,,,1,001,2025-01-03_00h04.05.411,IAT(Formal),2021.2.3,Win32,166.6666667,,,,,,,,,,,,,,,e,1,0.509,0,74,74,1,1,我的,e,,,,,,,,,,,,,,,,,,,,,,,,,,,,,,,,,,,,,,,,,
,,,,,,,,,,,,,,1,001,2025-01-03_00h04.05.411,IAT(Formal),2021.2.3,Win32,166.6666667,,,,,,,,,,,,,,,e,1,0.5378,0,75,75,27,1,热情,e,,,,,,,,,,,,,,,,,,,,,,,,,,,,,,,,,,,,,,,,,
,,,,,,,,,,,,,,1,001,2025-01-03_00h04.05.411,IAT(Formal),2021.2.3,Win32,166.6666667,,,,,,,,,,,,,,,i,1,0.6724,0,76,76,41,1,散漫,i,,,,,,,,,,,,,,,,,,,,,,,,,,,,,,,,,,,,,,,,,
,,,,,,,,,,,,,,1,001,2025-01-03_00h04.05.411,IAT(Formal),2021.2.3,Win32,166.6666667,,,,,,,,,,,,,,,e,1,0.5325,0,77,77,25,1,细腻,e,,,,,,,,,,,,,,,,,,,,,,,,,,,,,,,,,,,,,,,,,
,,,,,,,,,,,,,,1,001,2025-01-03_00h04.05.411,IAT(Formal),2021.2.3,Win32,166.6666667,,,,,,,,,,,,,,,e,1,0.4433,0,78,78,53,1,自己,e,,,,,,,,,,,,,,,,,,,,,,,,,,,,,,,,,,,,,,,,,
,,,,,,,,,,,,,,1,001,2025-01-03_00h04.05.411,IAT(Formal),2021.2.3,Win32,166.6666667,,,,,,,,,,,,,,,e,1,0.4202,0,79,79,51,1,我的,e,,,,,,,,,,,,,,,,,,,,,,,,,,,,,,,,,,,,,,,,,
,,,,,,,,,,,,,,1,001,2025-01-03_00h04.05.411,IAT(Formal),2021.2.3,Win32,166.6666667,,,,,,,,,,,,,,,i,1,0.8248,,,,,,他人,i,space,3.5757,0,0,0,78,1,,,,,,,,,,,,,,,,,,,,,,,,,,,,,,,,,,
,,,,,,,,,,,,,,1,001,2025-01-03_00h04.05.411,IAT(Formal),2021.2.3,Win32,166.6666667,,,,,,,,,,,,,,,e,1,0.4908,,,,,,我的,e,,,0,1,1,61,1,,,,,,,,,,,,,,,,,,,,,,,,,,,,,,,,,,
,,,,,,,,,,,,,,1,001,2025-01-03_00h04.05.411,IAT(Formal),2021.2.3,Win32,166.6666667,,,,,,,,,,,,,,,e,1,0.8851,,,,,,冷静,e,,,0,2,2,26,1,,,,,,,,,,,,,,,,,,,,,,,,,,,,,,,,,,
,,,,,,,,,,,,,,1,001,2025-01-03_00h04.05.411,IAT(Formal),2021.2.3,Win32,166.6666667,,,,,,,,,,,,,,,e,1,0.4746,,,,,,我,e,,,0,3,3,50,1,,,,,,,,,,,,,,,,,,,,,,,,,,,,,,,,,,
,,,,,,,,,,,,,,1,001,2025-01-03_00h04.05.411,IAT(Formal),2021.2.3,Win32,166.6666667,,,,,,,,,,,,,,,e,1,0.4847,,,,,,诚实,e,,,0,4,4,15,1,,,,,,,,,,,,,,,,,,,,,,,,,,,,,,,,,,
,,,,,,,,,,,,,,1,001,2025-01-03_00h04.05.411,IAT(Formal),2021.2.3,Win32,166.6666667,,,,,,,,,,,,,,,i,1,0.5049,,,,,,他的,i,,,0,5,5,57,1,,,,,,,,,,,,,,,,,,,,,,,,,,,,,,,,,,
,,,,,,,,,,,,,,1,001,2025-01-03_00h04.05.411,IAT(Formal),2021.2.3,Win32,166.6666667,,,,,,,,,,,,,,,i,1,0.7097,,,,,,他们,i,,,0,6,6,56,1,,,,,,,,,,,,,,,,,,,,,,,,,,,,,,,,,,
,,,,,,,,,,,,,,1,001,2025-01-03_00h04.05.411,IAT(Formal),2021.2.3,Win32,166.6666667,,,,,,,,,,,,,,,e,1,0.4729,,,,,,我,e,,,0,7,7,60,1,,,,,,,,,,,,,,,,,,,,,,,,,,,,,,,,,,
,,,,,,,,,,,,,,1,001,2025-01-03_00h04.05.411,IAT(Formal),2021.2.3,Win32,166.6666667,,,,,,,,,,,,,,,e,1,0.4781,,,,,,机智,e,,,0,8,8,19,1,,,,,,,,,,,,,,,,,,,,,,,,,,,,,,,,,,
,,,,,,,,,,,,,,1,001,2025-01-03_00h04.05.411,IAT(Formal),2021.2.3,Win32,166.6666667,,,,,,,,,,,,,,,i,1,0.4181,,,,,,他们,i,,,0,9,9,6,1,,,,,,,,,,,,,,,,,,,,,,,,,,,,,,,,,,
,,,,,,,,,,,,,,1,001,2025-01-03_00h04.05.411,IAT(Formal),2021.2.3,Win32,166.6666667,,,,,,,,,,,,,,,e,1,0.4903,,,,,,热情,e,,,0,10,10,27,1,,,,,,,,,,,,,,,,,,,,,,,,,,,,,,,,,,
,,,,,,,,,,,,,,1,001,2025-01-03_00h04.05.411,IAT(Formal),2021.2.3,Win32,166.6666667,,,,,,,,,,,,,,,i,1,0.4791,,,,,,自私,i,,,0,11,11,43,1,,,,,,,,,,,,,,,,,,,,,,,,,,,,,,,,,,
,,,,,,,,,,,,,,1,001,2025-01-03_00h04.05.411,IAT(Formal),2021.2.3,Win32,166.6666667,,,,,,,,,,,,,,,i,1,0.4496,,,,,,其他,i,,,0,12,12,59,1,,,,,,,,,,,,,,,,,,,,,,,,,,,,,,,,,,
,,,,,,,,,,,,,,1,001,2025-01-03_00h04.05.411,IAT(Formal),2021.2.3,Win32,166.6666667,,,,,,,,,,,,,,,i,1,0.4735,,,,,,虚伪,i,,,0,13,13,31,1,,,,,,,,,,,,,,,,,,,,,,,,,,,,,,,,,,
,,,,,,,,,,,,,,1,001,2025-01-03_00h04.05.411,IAT(Formal),2021.2.3,Win32,166.6666667,,,,,,,,,,,,,,,i,1,0.5825,,,,,,冒失,i,,,0,14,14,39,1,,,,,,,,,,,,,,,,,,,,,,,,,,,,,,,,,,
,,,,,,,,,,,,,,1,001,2025-01-03_00h04.05.411,IAT(Formal),2021.2.3,Win32,166.6666667,,,,,,,,,,,,,,,e,0,0.4793,,,,,,他的,i,,,0,15,15,77,1,,,,,,,,,,,,,,,,,,,,,,,,,,,,,,,,,,
,,,,,,,,,,,,,,1,001,2025-01-03_00h04.05.411,IAT(Formal),2021.2.3,Win32,166.6666667,,,,,,,,,,,,,,,i,1,0.5038,,,,,,悲观,i,,,0,16,16,34,1,,,,,,,,,,,,,,,,,,,,,,,,,,,,,,,,,,
,,,,,,,,,,,,,,1,001,2025-01-03_00h04.05.411,IAT(Formal),2021.2.3,Win32,166.6666667,,,,,,,,,,,,,,,i,1,0.4684,,,,,,他的,i,,,0,17,17,67,1,,,,,,,,,,,,,,,,,,,,,,,,,,,,,,,,,,
,,,,,,,,,,,,,,1,001,2025-01-03_00h04.05.411,IAT(Formal),2021.2.3,Win32,166.6666667,,,,,,,,,,,,,,,i,1,0.3818,,,,,,其他,i,,,0,18,18,79,1,,,,,,,,,,,,,,,,,,,,,,,,,,,,,,,,,,
,,,,,,,,,,,,,,1,001,2025-01-03_00h04.05.411,IAT(Formal),2021.2.3,Win32,166.6666667,,,,,,,,,,,,,,,e,1,0.5036,,,,,,我们,e,,,0,19,19,52,1,,,,,,,,,,,,,,,,,,,,,,,,,,,,,,,,,,
,,,,,,,,,,,,,,1,001,2025-01-03_00h04.05.411,IAT(Formal),2021.2.3,Win32,166.6666667,,,,,,,,,,,,,,,i,1,0.5103,,,,,,自卑,i,,,0,20,20,36,1,,,,,,,,,,,,,,,,,,,,,,,,,,,,,,,,,,
,,,,,,,,,,,,,,1,001,2025-01-03_00h04.05.411,IAT(Formal),2021.2.3,Win32,166.6666667,,,,,,,,,,,,,,,i,1,0.5092,,,,,,猖狂,i,,,0,21,21,45,1,,,,,,,,,,,,,,,,,,,,,,,,,,,,,,,,,,
,,,,,,,,,,,,,,1,001,2025-01-03_00h04.05.411,IAT(Formal),2021.2.3,Win32,166.6666667,,,,,,,,,,,,,,,i,1,0.3894,,,,,,其他,i,,,0,22,22,9,1,,,,,,,,,,,,,,,,,,,,,,,,,,,,,,,,,,
,,,,,,,,,,,,,,1,001,2025-01-03_00h04.05.411,IAT(Formal),2021.2.3,Win32,166.6666667,,,,,,,,,,,,,,,i,1,0.3941,,,,,,散漫,i,,,0,23,23,41,1,,,,,,,,,,,,,,,,,,,,,,,,,,,,,,,,,,
,,,,,,,,,,,,,,1,001,2025-01-03_00h04.05.411,IAT(Formal),2021.2.3,Win32,166.6666667,,,,,,,,,,,,,,,e,1,0.7036,,,,,,我的,e,,,0,24,24,1,1,,,,,,,,,,,,,,,,,,,,,,,,,,,,,,,,,,
,,,,,,,,,,,,,,1,001,2025-01-03_00h04.05.411,IAT(Formal),2021.2.3,Win32,166.6666667,,,,,,,,,,,,,,,i,1,0.5032,,,,,,消极,i,,,0,25,25,35,1,,,,,,,,,,,,,,,,,,,,,,,,,,,,,,,,,,
,,,,,,,,,,,,,,1,001,2025-01-03_00h04.05.411,IAT(Formal),2021.2.3,Win32,166.6666667,,,,,,,,,,,,,,,i,0,0.717,,,,,,无私,e,,,0,26,26,22,1,,,,,,,,,,,,,,,,,,,,,,,,,,,,,,,,,,
,,,,,,,,,,,,,,1,001,2025-01-03_00h04.05.411,IAT(Formal),2021.2.3,Win32,166.6666667,,,,,,,,,,,,,,,e,1,0.8434,,,,,,崇高,e,,,0,27,27,11,1,,,,,,,,,,,,,,,,,,,,,,,,,,,,,,,,,,
,,,,,,,,,,,,,,1,001,2025-01-03_00h04.05.411,IAT(Formal),2021.2.3,Win32,166.6666667,,,,,,,,,,,,,,,e,1,0.5951,,,,,,俺,e,,,0,28,28,74,1,,,,,,,,,,,,,,,,,,,,,,,,,,,,,,,,,,
,,,,,,,,,,,,,,1,001,2025-01-03_00h04.05.411,IAT(Formal),2021.2.3,Win32,166.6666667,,,,,,,,,,,,,,,e,1,0.4081,,,,,,自己,e,,,0,29,29,3,1,,,,,,,,,,,,,,,,,,,,,,,,,,,,,,,,,,
,,,,,,,,,,,,,,1,001,2025-01-03_00h04.05.411,IAT(Formal),2021.2.3,Win32,166.6666667,,,,,,,,,,,,,,,i,1,0.5701,,,,,,轻率,i,,,0,30,30,48,1,,,,,,,,,,,,,,,,,,,,,,,,,,,,,,,,,,
,,,,,,,,,,,,,,1,001,2025-01-03_00h04.05.411,IAT(Formal),2021.2.3,Win32,166.6666667,,,,,,,,,,,,,,,i,1,0.4489,,,,,,凶狠,i,,,0,31,31,42,1,,,,,,,,,,,,,,,,,,,,,,,,,,,,,,,,,,
,,,,,,,,,,,,,,1,001,2025-01-03_00h04.05.411,IAT(Formal),2021.2.3,Win32,166.6666667,,,,,,,,,,,,,,,i,1,0.4794,,,,,,其他,i,,,0,32,32,69,1,,,,,,,,,,,,,,,,,,,,,,,,,,,,,,,,,,
,,,,,,,,,,,,,,1,001,2025-01-03_00h04.05.411,IAT(Formal),2021.2.3,Win32,166.6666667,,,,,,,,,,,,,,,i,1,0.4797,,,,,,他们,i,,,0,33,33,76,1,,,,,,,,,,,,,,,,,,,,,,,,,,,,,,,,,,
,,,,,,,,,,,,,,1,001,2025-01-03_00h04.05.411,IAT(Formal),2021.2.3,Win32,166.6666667,,,,,,,,,,,,,,,i,1,0.4185,,,,,,下贱,i,,,0,34,34,49,1,,,,,,,,,,,,,,,,,,,,,,,,,,,,,,,,,,
,,,,,,,,,,,,,,1,001,2025-01-03_00h04.05.411,IAT(Formal),2021.2.3,Win32,166.6666667,,,,,,,,,,,,,,,e,1,0.4379,,,,,,我们,e,,,0,35,35,72,1,,,,,,,,,,,,,,,,,,,,,,,,,,,,,,,,,,
,,,,,,,,,,,,,,1,001,2025-01-03_00h04.05.411,IAT(Formal),2021.2.3,Win32,166.6666667,,,,,,,,,,,,,,,e,1,0.3817,,,,,,自己,e,,,0,36,36,53,1,,,,,,,,,,,,,,,,,,,,,,,,,,,,,,,,,,
,,,,,,,,,,,,,,1,001,2025-01-03_00h04.05.411,IAT(Formal),2021.2.3,Win32,166.6666667,,,,,,,,,,,,,,,e,1,0.4488,,,,,,俺,e,,,0,37,37,4,1,,,,,,,,,,,,,,,,,,,,,,,,,,,,,,,,,,
,,,,,,,,,,,,,,1,001,2025-01-03_00h04.05.411,IAT(Formal),2021.2.3,Win32,166.6666667,,,,,,,,,,,,,,,i,1,0.6191,,,,,,他,i,,,0,38,38,75,1,,,,,,,,,,,,,,,,,,,,,,,,,,,,,,,,,,
,,,,,,,,,,,,,,1,001,2025-01-03_00h04.05.411,IAT(Formal),2021.2.3,Win32,166.6666667,,,,,,,,,,,,,,,i,1,0.5695,,,,,,鲁莽,i,,,0,39,39,38,1,,,,,,,,,,,,,,,,,,,,,,,,,,,,,,,,,,
,,,,,,,,,,,,,,1,001,2025-01-03_00h04.05.411,IAT(Formal),2021.2.3,Win32,166.6666667,,,,,,,,,,,,,,,e,1,0.5358,,,,,,公正,e,,,0,40,40,23,1,,,,,,,,,,,,,,,,,,,,,,,,,,,,,,,,,,
,,,,,,,,,,,,,,1,001,2025-01-03_00h04.05.411,IAT(Formal),2021.2.3,Win32,166.6666667,,,,,,,,,,,,,,,i,1,0.4914,,,,,,愚蠢,i,,,0,41,41,32,1,,,,,,,,,,,,,,,,,,,,,,,,,,,,,,,,,,
,,,,,,,,,,,,,,1,001,2025-01-03_00h04.05.411,IAT(Formal),2021.2.3,Win32,166.6666667,,,,,,,,,,,,,,,i,1,0.5938,,,,,,野蛮,i,,,0,42,42,46,1,,,,,,,,,,,,,,,,,,,,,,,,,,,,,,,,,,
,,,,,,,,,,,,,,1,001,2025-01-03_00h04.05.411,IAT(Formal),2021.2.3,Win32,166.6666667,,,,,,,,,,,,,,,i,1,0.5106,,,,,,傲慢,i,,,0,43,43,37,1,,,,,,,,,,,,,,,,,,,,,,,,,,,,,,,,,,
,,,,,,,,,,,,,,1,001,2025-01-03_00h04.05.411,IAT(Formal),2021.2.3,Win32,166.6666667,,,,,,,,,,,,,,,i,1,0.4932,,,,,,卑鄙,i,,,0,44,44,30,1,,,,,,,,,,,,,,,,,,,,,,,,,,,,,,,,,,
,,,,,,,,,,,,,,1,001,2025-01-03_00h04.05.411,IAT(Formal),2021.2.3,Win32,166.6666667,,,,,,,,,,,,,,,e,0,0.4004,,,,,,他们,i,,,0,45,45,66,1,,,,,,,,,,,,,,,,,,,,,,,,,,,,,,,,,,
,,,,,,,,,,,,,,1,001,2025-01-03_00h04.05.411,IAT(Formal),2021.2.3,Win32,166.6666667,,,,,,,,,,,,,,,i,1,0.4976,,,,,,他人,i,,,0,46,46,58,1,,,,,,,,,,,,,,,,,,,,,,,,,,,,,,,,,,
,,,,,,,,,,,,,,1,001,2025-01-03_00h04.05.411,IAT(Formal),2021.2.3,Win32,166.6666667,,,,,,,,,,,,,,,i,1,0.4186,,,,,,固执,i,,,0,47,47,47,1,,,,,,,,,,,,,,,,,,,,,,,,,,,,,,,,,,
,,,,,,,,,,,,,,1,001,2025-01-03_00h04.05.411,IAT(Formal),2021.2.3,Win32,166.6666667,,,,,,,,,,,,,,,e,1,0.6125,,,,,,我的,e,,,0,48,48,71,1,,,,,,,,,,,,,,,,,,,,,,,,,,,,,,,,,,
,,,,,,,,,,,,,,1,001,2025-01-03_00h04.05.411,IAT(Formal),2021.2.3,Win32,166.6666667,,,,,,,,,,,,,,,i,1,0.4298,,,,,,刻薄,i,,,0,49,49,33,1,,,,,,,,,,,,,,,,,,,,,,,,,,,,,,,,,,
,,,,,,,,,,,,,,1,001,2025-01-03_00h04.05.411,IAT(Formal),2021.2.3,Win32,166.6666667,,,,,,,,,,,,,,,i,1,0.4793,,,,,,他的,i,,,0,50,50,7,1,,,,,,,,,,,,,,,,,,,,,,,,,,,,,,,,,,
,,,,,,,,,,,,,,1,001,2025-01-03_00h04.05.411,IAT(Formal),2021.2.3,Win32,166.6666667,,,,,,,,,,,,,,,e,1,0.5397,,,,,,我的,e,,,0,51,51,51,1,,,,,,,,,,,,,,,,,,,,,,,,,,,,,,,,,,
,,,,,,,,,,,,,,1,001,2025-01-03_00h04.05.411,IAT(Formal),2021.2.3,Win32,166.6666667,,,,,,,,,,,,,,,i,1,0.5146,,,,,,他人,i,,,0,52,52,68,1,,,,,,,,,,,,,,,,,,,,,,,,,,,,,,,,,,
,,,,,,,,,,,,,,1,001,2025-01-03_00h04.05.411,IAT(Formal),2021.2.3,Win32,166.6666667,,,,,,,,,,,,,,,i,1,0.4566,,,,,,他人,i,,,0,53,53,8,1,,,,,,,,,,,,,,,,,,,,,,,,,,,,,,,,,,
,,,,,,,,,,,,,,1,001,2025-01-03_00h04.05.411,IAT(Formal),2021.2.3,Win32,166.6666667,,,,,,,,,,,,,,,i,0,0.4327,,,,,,朴实,e,,,0,54,54,24,1,,,,,,,,,,,,,,,,,,,,,,,,,,,,,,,,,,
,,,,,,,,,,,,,,1,001,2025-01-03_00h04.05.411,IAT(Formal),2021.2.3,Win32,166.6666667,,,,,,,,,,,,,,,i,1,0.5356,,,,,,他,i,,,0,55,55,65,1,,,,,,,,,,,,,,,,,,,,,,,,,,,,,,,,,,
,,,,,,,,,,,,,,1,001,2025-01-03_00h04.05.411,IAT(Formal),2021.2.3,Win32,166.6666667,,,,,,,,,,,,,,,e,1,0.5827,,,,,,自己,e,,,0,56,56,73,1,,,,,,,,,,,,,,,,,,,,,,,,,,,,,,,,,,
,,,,,,,,,,,,,,1,001,2025-01-03_00h04.05.411,IAT(Formal),2021.2.3,Win32,166.6666667,,,,,,,,,,,,,,,i,1,0.876,,,,,,他,i,,,0,57,57,5,1,,,,,,,,,,,,,,,,,,,,,,,,,,,,,,,,,,
,,,,,,,,,,,,,,1,001,2025-01-03_00h04.05.411,IAT(Formal),2021.2.3,Win32,166.6666667,,,,,,,,,,,,,,,e,1,1.0606,,,,,,我们,e,,,0,58,58,62,1,,,,,,,,,,,,,,,,,,,,,,,,,,,,,,,,,,
,,,,,,,,,,,,,,1,001,2025-01-03_00h04.05.411,IAT(Formal),2021.2.3,Win32,166.6666667,,,,,,,,,,,,,,,e,1,1.0603,,,,,,俺,e,,,0,59,59,64,1,,,,,,,,,,,,,,,,,,,,,,,,,,,,,,,,,,
,,,,,,,,,,,,,,1,001,2025-01-03_00h04.05.411,IAT(Formal),2021.2.3,Win32,166.6666667,,,,,,,,,,,,,,,e,1,0.6996,,,,,,认真,e,,,0,60,60,20,1,,,,,,,,,,,,,,,,,,,,,,,,,,,,,,,,,,
,,,,,,,,,,,,,,1,001,2025-01-03_00h04.05.411,IAT(Formal),2021.2.3,Win32,166.6666667,,,,,,,,,,,,,,,i,1,0.5106,,,,,,暴躁,i,,,0,61,61,44,1,,,,,,,,,,,,,,,,,,,,,,,,,,,,,,,,,,
,,,,,,,,,,,,,,1,001,2025-01-03_00h04.05.411,IAT(Formal),2021.2.3,Win32,166.6666667,,,,,,,,,,,,,,,e,1,0.6494,,,,,,正直,e,,,0,62,62,16,1,,,,,,,,,,,,,,,,,,,,,,,,,,,,,,,,,,
,,,,,,,,,,,,,,1,001,2025-01-03_00h04.05.411,IAT(Formal),2021.2.3,Win32,166.6666667,,,,,,,,,,,,,,,e,1,0.4674,,,,,,乐观,e,,,0,63,63,14,1,,,,,,,,,,,,,,,,,,,,,,,,,,,,,,,,,,
,,,,,,,,,,,,,,1,001,2025-01-03_00h04.05.411,IAT(Formal),2021.2.3,Win32,166.6666667,,,,,,,,,,,,,,,e,1,0.5032,,,,,,俺,e,,,0,64,64,54,1,,,,,,,,,,,,,,,,,,,,,,,,,,,,,,,,,,
,,,,,,,,,,,,,,1,001,2025-01-03_00h04.05.411,IAT(Formal),2021.2.3,Win32,166.6666667,,,,,,,,,,,,,,,e,1,0.4307,,,,,,我,e,,,0,65,65,70,1,,,,,,,,,,,,,,,,,,,,,,,,,,,,,,,,,,
,,,,,,,,,,,,,,1,001,2025-01-03_00h04.05.411,IAT(Formal),2021.2.3,Win32,166.6666667,,,,,,,,,,,,,,,e,1,0.5307,,,,,,稳重,e,,,0,66,66,21,1,,,,,,,,,,,,,,,,,,,,,,,,,,,,,,,,,,
,,,,,,,,,,,,,,1,001,2025-01-03_00h04.05.411,IAT(Formal),2021.2.3,Win32,166.6666667,,,,,,,,,,,,,,,e,1,0.5386,,,,,,勤奋,e,,,0,67,67,18,1,,,,,,,,,,,,,,,,,,,,,,,,,,,,,,,,,,
,,,,,,,,,,,,,,1,001,2025-01-03_00h04.05.411,IAT(Formal),2021.2.3,Win32,166.6666667,,,,,,,,,,,,,,,e,1,0.4792,,,,,,聪明,e,,,0,68,68,12,1,,,,,,,,,,,,,,,,,,,,,,,,,,,,,,,,,,
,,,,,,,,,,,,,,1,001,2025-01-03_00h04.05.411,IAT(Formal),2021.2.3,Win32,166.6666667,,,,,,,,,,,,,,,e,1,0.416,,,,,,我,e,,,0,69,69,0,1,,,,,,,,,,,,,,,,,,,,,,,,,,,,,,,,,,
,,,,,,,,,,,,,,1,001,2025-01-03_00h04.05.411,IAT(Formal),2021.2.3,Win32,166.6666667,,,,,,,,,,,,,,,e,1,0.4019,,,,,,优秀,e,,,0,70,70,10,1,,,,,,,,,,,,,,,,,,,,,,,,,,,,,,,,,,
,,,,,,,,,,,,,,1,001,2025-01-03_00h04.05.411,IAT(Formal),2021.2.3,Win32,166.6666667,,,,,,,,,,,,,,,e,0,0.4066,,,,,,他,i,,,0,71,71,55,1,,,,,,,,,,,,,,,,,,,,,,,,,,,,,,,,,,
,,,,,,,,,,,,,,1,001,2025-01-03_00h04.05.411,IAT(Formal),2021.2.3,Win32,166.6666667,,,,,,,,,,,,,,,i,1,0.4906,,,,,,执拗,i,,,0,72,72,40,1,,,,,,,,,,,,,,,,,,,,,,,,,,,,,,,,,,
,,,,,,,,,,,,,,1,001,2025-01-03_00h04.05.411,IAT(Formal),2021.2.3,Win32,166.6666667,,,,,,,,,,,,,,,e,1,0.5575,,,,,,杰出,e,,,0,73,73,13,1,,,,,,,,,,,,,,,,,,,,,,,,,,,,,,,,,,
,,,,,,,,,,,,,,1,001,2025-01-03_00h04.05.411,IAT(Formal),2021.2.3,Win32,166.6666667,,,,,,,,,,,,,,,e,1,0.516,,,,,,诚恳,e,,,0,74,74,29,1,,,,,,,,,,,,,,,,,,,,,,,,,,,,,,,,,,
,,,,,,,,,,,,,,1,001,2025-01-03_00h04.05.411,IAT(Formal),2021.2.3,Win32,166.6666667,,,,,,,,,,,,,,,e,1,0.4863,,,,,,勇敢,e,,,0,75,75,17,1,,,,,,,,,,,,,,,,,,,,,,,,,,,,,,,,,,
,,,,,,,,,,,,,,1,001,2025-01-03_00h04.05.411,IAT(Formal),2021.2.3,Win32,166.6666667,,,,,,,,,,,,,,,e,1,0.7097,,,,,,我们,e,,,0,76,76,2,1,,,,,,,,,,,,,,,,,,,,,,,,,,,,,,,,,,
,,,,,,,,,,,,,,1,001,2025-01-03_00h04.05.411,IAT(Formal),2021.2.3,Win32,166.6666667,,,,,,,,,,,,,,,e,1,0.6246,,,,,,活泼,e,,,0,77,77,28,1,,,,,,,,,,,,,,,,,,,,,,,,,,,,,,,,,,
,,,,,,,,,,,,,,1,001,2025-01-03_00h04.05.411,IAT(Formal),2021.2.3,Win32,166.6666667,,,,,,,,,,,,,,,e,1,0.5084,,,,,,自己,e,,,0,78,78,63,1,,,,,,,,,,,,,,,,,,,,,,,,,,,,,,,,,,
,,,,,,,,,,,,,,1,001,2025-01-03_00h04.05.411,IAT(Formal),2021.2.3,Win32,166.6666667,,,,,,,,,,,,,,,e,1,0.5333,,,,,,细腻,e,,,0,79,79,25,1,,,,,,,,,,,,,,,,,,,,,,,,,,,,,,,,,,
,,,,,,,,,,,,,,1,001,2025-01-03_00h04.05.411,IAT(Formal),2021.2.3,Win32,166.6666667,,,,,,,,,,,,,,,,0,,,,,,,公正,e,,,1,0,80,23,1,,,,,,,,,,,,,,,,,,,,,,,,,,,,,,,,,,
,,,,,,,,,,,,,,1,001,2025-01-03_00h04.05.411,IAT(Formal),2021.2.3,Win32,166.6666667,,,,,,,,,,,,,,,e,1,0.7724,,,,,,我,e,,,1,1,81,50,1,,,,,,,,,,,,,,,,,,,,,,,,,,,,,,,,,,
,,,,,,,,,,,,,,1,001,2025-01-03_00h04.05.411,IAT(Formal),2021.2.3,Win32,166.6666667,,,,,,,,,,,,,,,e,1,0.6004,,,,,,自己,e,,,1,2,82,73,1,,,,,,,,,,,,,,,,,,,,,,,,,,,,,,,,,,
,,,,,,,,,,,,,,1,001,2025-01-03_00h04.05.411,IAT(Formal),2021.2.3,Win32,166.6666667,,,,,,,,,,,,,,,e,1,0.5149,,,,,,机智,e,,,1,3,83,19,1,,,,,,,,,,,,,,,,,,,,,,,,,,,,,,,,,,
,,,,,,,,,,,,,,1,001,2025-01-03_00h04.05.411,IAT(Formal),2021.2.3,Win32,166.6666667,,,,,,,,,,,,,,,,0,,,,,,,我,e,,,1,4,84,70,1,,,,,,,,,,,,,,,,,,,,,,,,,,,,,,,,,,
,,,,,,,,,,,,,,1,001,2025-01-03_00h04.05.411,IAT(Formal),2021.2.3,Win32,166.6666667,,,,,,,,,,,,,,,e,1,1.2099,,,,,,勤奋,e,,,1,5,85,18,1,,,,,,,,,,,,,,,,,,,,,,,,,,,,,,,,,,
,,,,,,,,,,,,,,1,001,2025-01-03_00h04.05.411,IAT(Formal),2021.2.3,Win32,166.6666667,,,,,,,,,,,,,,,e,1,0.4127,,,,,,我的,e,,,1,6,86,61,1,,,,,,,,,,,,,,,,,,,,,,,,,,,,,,,,,,
,,,,,,,,,,,,,,1,001,2025-01-03_00h04.05.411,IAT(Formal),2021.2.3,Win32,166.6666667,,,,,,,,,,,,,,,e,1,0.3824,,,,,,我的,e,,,1,7,87,51,1,,,,,,,,,,,,,,,,,,,,,,,,,,,,,,,,,,
,,,,,,,,,,,,,,1,001,2025-01-03_00h04.05.411,IAT(Formal),2021.2.3,Win32,166.6666667,,,,,,,,,,,,,,,e,1,1.0123,,,,,,俺,e,,,1,8,88,4,1,,,,,,,,,,,,,,,,,,,,,,,,,,,,,,,,,,
,,,,,,,,,,,,,,1,001,2025-01-03_00h04.05.411,IAT(Formal),2021.2.3,Win32,166.6666667,,,,,,,,,,,,,,,e,0,0.3585,,,,,,其他,i,,,1,9,89,59,1,,,,,,,,,,,,,,,,,,,,,,,,,,,,,,,,,,
,,,,,,,,,,,,,,1,001,2025-01-03_00h04.05.411,IAT(Formal),2021.2.3,Win32,166.6666667,,,,,,,,,,,,,,,e,0,0.4486,,,,,,他人,i,,,1,10,90,8,1,,,,,,,,,,,,,,,,,,,,,,,,,,,,,,,,,,
,,,,,,,,,,,,,,1,001,2025-01-03_00h04.05.411,IAT(Formal),2021.2.3,Win32,166.6666667,,,,,,,,,,,,,,,i,1,0.5448,,,,,,下贱,i,,,1,11,91,49,1,,,,,,,,,,,,,,,,,,,,,,,,,,,,,,,,,,
,,,,,,,,,,,,,,1,001,2025-01-03_00h04.05.411,IAT(Formal),2021.2.3,Win32,166.6666667,,,,,,,,,,,,,,,i,1,0.7157,,,,,,其他,i,,,1,12,92,69,1,,,,,,,,,,,,,,,,,,,,,,,,,,,,,,,,,,
,,,,,,,,,,,,,,1,001,2025-01-03_00h04.05.411,IAT(Formal),2021.2.3,Win32,166.6666667,,,,,,,,,,,,,,,i,1,0.5476,,,,,,悲观,i,,,1,13,93,34,1,,,,,,,,,,,,,,,,,,,,,,,,,,,,,,,,,,
,,,,,,,,,,,,,,1,001,2025-01-03_00h04.05.411,IAT(Formal),2021.2.3,Win32,166.6666667,,,,,,,,,,,,,,,,0,,,,,,,暴躁,i,,,1,14,94,44,1,,,,,,,,,,,,,,,,,,,,,,,,,,,,,,,,,,
,,,,,,,,,,,,,,1,001,2025-01-03_00h04.05.411,IAT(Formal),2021.2.3,Win32,166.6666667,,,,,,,,,,,,,,,i,1,0.5825,,,,,,固执,i,,,1,15,95,47,1,,,,,,,,,,,,,,,,,,,,,,,,,,,,,,,,,,
,,,,,,,,,,,,,,1,001,2025-01-03_00h04.05.411,IAT(Formal),2021.2.3,Win32,166.6666667,,,,,,,,,,,,,,,,0,,,,,,,我们,e,,,1,16,96,52,1,,,,,,,,,,,,,,,,,,,,,,,,,,,,,,,,,,
,,,,,,,,,,,,,,1,001,2025-01-03_00h04.05.411,IAT(Formal),2021.2.3,Win32,166.6666667,,,,,,,,,,,,,,,e,1,0.5713,,,,,,自己,e,,,1,17,97,3,1,,,,,,,,,,,,,,,,,,,,,,,,,,,,,,,,,,
,,,,,,,,,,,,,,1,001,2025-01-03_00h04.05.411,IAT(Formal),2021.2.3,Win32,166.6666667,,,,,,,,,,,,,,,e,1,0.568,,,,,,勇敢,e,,,1,18,98,17,1,,,,,,,,,,,,,,,,,,,,,,,,,,,,,,,,,,
,,,,,,,,,,,,,,1,001,2025-01-03_00h04.05.411,IAT(Formal),2021.2.3,Win32,166.6666667,,,,,,,,,,,,,,,i,1,0.5697,,,,,,野蛮,i,,,1,19,99,46,1,,,,,,,,,,,,,,,,,,,,,,,,,,,,,,,,,,
,,,,,,,,,,,,,,1,001,2025-01-03_00h04.05.411,IAT(Formal),2021.2.3,Win32,166.6666667,,,,,,,,,,,,,,,i,1,0.6965,,,,,,他,i,,,1,20,100,55,1,,,,,,,,,,,,,,,,,,,,,,,,,,,,,,,,,,
,,,,,,,,,,,,,,1,001,2025-01-03_00h04.05.411,IAT(Formal),2021.2.3,Win32,166.6666667,,,,,,,,,,,,,,,e,1,0.732,,,,,,细腻,e,,,1,21,101,25,1,,,,,,,,,,,,,,,,,,,,,,,,,,,,,,,,,,
,,,,,,,,,,,,,,1,001,2025-01-03_00h04.05.411,IAT(Formal),2021.2.3,Win32,166.6666667,,,,,,,,,,,,,,,i,1,0.5703,,,,,,冒失,i,,,1,22,102,39,1,,,,,,,,,,,,,,,,,,,,,,,,,,,,,,,,,,
,,,,,,,,,,,,,,1,001,2025-01-03_00h04.05.411,IAT(Formal),2021.2.3,Win32,166.6666667,,,,,,,,,,,,,,,i,1,0.6373,,,,,,刻薄,i,,,1,23,103,33,1,,,,,,,,,,,,,,,,,,,,,,,,,,,,,,,,,,
,,,,,,,,,,,,,,1,001,2025-01-03_00h04.05.411,IAT(Formal),2021.2.3,Win32,166.6666667,,,,,,,,,,,,,,,i,1,0.613,,,,,,他人,i,,,1,24,104,58,1,,,,,,,,,,,,,,,,,,,,,,,,,,,,,,,,,,
,,,,,,,,,,,,,,1,001,2025-01-03_00h04.05.411,IAT(Formal),2021.2.3,Win32,166.6666667,,,,,,,,,,,,,,,i,1,0.5045,,,,,,他人,i,,,1,25,105,68,1,,,,,,,,,,,,,,,,,,,,,,,,,,,,,,,,,,
,,,,,,,,,,,,,,1,001,2025-01-03_00h04.05.411,IAT(Formal),2021.2.3,Win32,166.6666667,,,,,,,,,,,,,,,e,1,0.5455,,,,,,我,e,,,1,26,106,0,1,,,,,,,,,,,,,,,,,,,,,,,,,,,,,,,,,,
,,,,,,,,,,,,,,1,001,2025-01-03_00h04.05.411,IAT(Formal),2021.2.3,Win32,166.6666667,,,,,,,,,,,,,,,e,1,0.619,,,,,,朴实,e,,,1,27,107,24,1,,,,,,,,,,,,,,,,,,,,,,,,,,,,,,,,,,
,,,,,,,,,,,,,,1,001,2025-01-03_00h04.05.411,IAT(Formal),2021.2.3,Win32,166.6666667,,,,,,,,,,,,,,,e,1,0.5129,,,,,,我,e,,,1,28,108,60,1,,,,,,,,,,,,,,,,,,,,,,,,,,,,,,,,,,
,,,,,,,,,,,,,,1,001,2025-01-03_00h04.05.411,IAT(Formal),2021.2.3,Win32,166.6666667,,,,,,,,,,,,,,,i,1,0.4909,,,,,,自私,i,,,1,29,109,43,1,,,,,,,,,,,,,,,,,,,,,,,,,,,,,,,,,,
,,,,,,,,,,,,,,1,001,2025-01-03_00h04.05.411,IAT(Formal),2021.2.3,Win32,166.6666667,,,,,,,,,,,,,,,i,1,0.5233,,,,,,他,i,,,1,30,110,5,1,,,,,,,,,,,,,,,,,,,,,,,,,,,,,,,,,,
,,,,,,,,,,,,,,1,001,2025-01-03_00h04.05.411,IAT(Formal),2021.2.3,Win32,166.6666667,,,,,,,,,,,,,,,i,1,0.5093,,,,,,鲁莽,i,,,1,31,111,38,1,,,,,,,,,,,,,,,,,,,,,,,,,,,,,,,,,,
,,,,,,,,,,,,,,1,001,2025-01-03_00h04.05.411,IAT(Formal),2021.2.3,Win32,166.6666667,,,,,,,,,,,,,,,i,1,0.4186,,,,,,其他,i,,,1,32,112,9,1,,,,,,,,,,,,,,,,,,,,,,,,,,,,,,,,,,
,,,,,,,,,,,,,,1,001,2025-01-03_00h04.05.411,IAT(Formal),2021.2.3,Win32,166.6666667,,,,,,,,,,,,,,,i,1,0.4905,,,,,,他们,i,,,1,33,113,66,1,,,,,,,,,,,,,,,,,,,,,,,,,,,,,,,,,,
,,,,,,,,,,,,,,1,001,2025-01-03_00h04.05.411,IAT(Formal),2021.2.3,Win32,166.6666667,,,,,,,,,,,,,,,i,1,0.5032,,,,,,他们,i,,,1,34,114,6,1,,,,,,,,,,,,,,,,,,,,,,,,,,,,,,,,,,
,,,,,,,,,,,,,,1,001,2025-01-03_00h04.05.411,IAT(Formal),2021.2.3,Win32,166.6666667,,,,,,,,,,,,,,,e,1,0.6749,,,,,,我们,e,,,1,35,115,2,1,,,,,,,,,,,,,,,,,,,,,,,,,,,,,,,,,,
,,,,,,,,,,,,,,1,001,2025-01-03_00h04.05.411,IAT(Formal),2021.2.3,Win32,166.6666667,,,,,,,,,,,,,,,e,1,0.9333,,,,,,稳重,e,,,1,36,116,21,1,,,,,,,,,,,,,,,,,,,,,,,,,,,,,,,,,,
,,,,,,,,,,,,,,1,001,2025-01-03_00h04.05.411,IAT(Formal),2021.2.3,Win32,166.6666667,,,,,,,,,,,,,,,e,1,1.2607,,,,,,我们,e,,,1,37,117,62,1,,,,,,,,,,,,,,,,,,,,,,,,,,,,,,,,,,
,,,,,,,,,,,,,,1,001,2025-01-03_00h04.05.411,IAT(Formal),2021.2.3,Win32,166.6666667,,,,,,,,,,,,,,,i,0,0.6175,,,,,,热情,e,,,1,38,118,27,1,,,,,,,,,,,,,,,,,,,,,,,,,,,,,,,,,,
,,,,,,,,,,,,,,1,001,2025-01-03_00h04.05.411,IAT(Formal),2021.2.3,Win32,166.6666667,,,,,,,,,,,,,,,i,1,0.5503,,,,,,愚蠢,i,,,1,39,119,32,1,,,,,,,,,,,,,,,,,,,,,,,,,,,,,,,,,,
,,,,,,,,,,,,,,1,001,2025-01-03_00h04.05.411,IAT(Formal),2021.2.3,Win32,166.6666667,,,,,,,,,,,,,,,i,1,0.614,,,,,,他,i,,,1,40,120,75,1,,,,,,,,,,,,,,,,,,,,,,,,,,,,,,,,,,
,,,,,,,,,,,,,,1,001,2025-01-03_00h04.05.411,IAT(Formal),2021.2.3,Win32,166.6666667,,,,,,,,,,,,,,,e,1,0.4853,,,,,,聪明,e,,,1,41,121,12,1,,,,,,,,,,,,,,,,,,,,,,,,,,,,,,,,,,
,,,,,,,,,,,,,,1,001,2025-01-03_00h04.05.411,IAT(Formal),2021.2.3,Win32,166.6666667,,,,,,,,,,,,,,,i,1,0.454,,,,,,虚伪,i,,,1,42,122,31,1,,,,,,,,,,,,,,,,,,,,,,,,,,,,,,,,,,
,,,,,,,,,,,,,,1,001,2025-01-03_00h04.05.411,IAT(Formal),2021.2.3,Win32,166.6666667,,,,,,,,,,,,,,,e,1,0.4064,,,,,,自己,e,,,1,43,123,53,1,,,,,,,,,,,,,,,,,,,,,,,,,,,,,,,,,,
,,,,,,,,,,,,,,1,001,2025-01-03_00h04.05.411,IAT(Formal),2021.2.3,Win32,166.6666667,,,,,,,,,,,,,,,e,1,0.3881,,,,,,我的,e,,,1,44,124,1,1,,,,,,,,,,,,,,,,,,,,,,,,,,,,,,,,,,
,,,,,,,,,,,,,,1,001,2025-01-03_00h04.05.411,IAT(Formal),2021.2.3,Win32,166.6666667,,,,,,,,,,,,,,,e,1,0.399,,,,,,自己,e,,,1,45,125,63,1,,,,,,,,,,,,,,,,,,,,,,,,,,,,,,,,,,
,,,,,,,,,,,,,,1,001,2025-01-03_00h04.05.411,IAT(Formal),2021.2.3,Win32,166.6666667,,,,,,,,,,,,,,,i,1,0.4545,,,,,,猖狂,i,,,1,46,126,45,1,,,,,,,,,,,,,,,,,,,,,,,,,,,,,,,,,,
,,,,,,,,,,,,,,1,001,2025-01-03_00h04.05.411,IAT(Formal),2021.2.3,Win32,166.6666667,,,,,,,,,,,,,,,e,0,0.3999,,,,,,他的,i,,,1,47,127,7,1,,,,,,,,,,,,,,,,,,,,,,,,,,,,,,,,,,
,,,,,,,,,,,,,,1,001,2025-01-03_00h04.05.411,IAT(Formal),2021.2.3,Win32,166.6666667,,,,,,,,,,,,,,,e,1,0.5821,,,,,,诚恳,e,,,1,48,128,29,1,,,,,,,,,,,,,,,,,,,,,,,,,,,,,,,,,,
,,,,,,,,,,,,,,1,001,2025-01-03_00h04.05.411,IAT(Formal),2021.2.3,Win32,166.6666667,,,,,,,,,,,,,,,e,1,0.4254,,,,,,正直,e,,,1,49,129,16,1,,,,,,,,,,,,,,,,,,,,,,,,,,,,,,,,,,
,,,,,,,,,,,,,,1,001,2025-01-03_00h04.05.411,IAT(Formal),2021.2.3,Win32,166.6666667,,,,,,,,,,,,,,,i,0,0.5275,,,,,,无私,e,,,1,50,130,22,1,,,,,,,,,,,,,,,,,,,,,,,,,,,,,,,,,,
,,,,,,,,,,,,,,1,001,2025-01-03_00h04.05.411,IAT(Formal),2021.2.3,Win32,166.6666667,,,,,,,,,,,,,,,e,1,0.6307,,,,,,俺,e,,,1,51,131,54,1,,,,,,,,,,,,,,,,,,,,,,,,,,,,,,,,,,
,,,,,,,,,,,,,,1,001,2025-01-03_00h04.05.411,IAT(Formal),2021.2.3,Win32,166.6666667,,,,,,,,,,,,,,,i,1,0.5466,,,,,,其他,i,,,1,52,132,79,1,,,,,,,,,,,,,,,,,,,,,,,,,,,,,,,,,,
,,,,,,,,,,,,,,1,001,2025-01-03_00h04.05.411,IAT(Formal),2021.2.3,Win32,166.6666667,,,,,,,,,,,,,,,e,1,0.6129,,,,,,崇高,e,,,1,53,133,11,1,,,,,,,,,,,,,,,,,,,,,,,,,,,,,,,,,,
,,,,,,,,,,,,,,1,001,2025-01-03_00h04.05.411,IAT(Formal),2021.2.3,Win32,166.6666667,,,,,,,,,,,,,,,i,1,0.9407,,,,,,他们,i,,,1,54,134,56,1,,,,,,,,,,,,,,,,,,,,,,,,,,,,,,,,,,
,,,,,,,,,,,,,,1,001,2025-01-03_00h04.05.411,IAT(Formal),2021.2.3,Win32,166.6666667,,,,,,,,,,,,,,,,0,,,,,,,俺,e,,,1,55,135,64,1,,,,,,,,,,,,,,,,,,,,,,,,,,,,,,,,,,
,,,,,,,,,,,,,,1,001,2025-01-03_00h04.05.411,IAT(Formal),2021.2.3,Win32,166.6666667,,,,,,,,,,,,,,,e,1,0.505,,,,,,认真,e,,,1,56,136,20,1,,,,,,,,,,,,,,,,,,,,,,,,,,,,,,,,,,
,,,,,,,,,,,,,,1,001,2025-01-03_00h04.05.411,IAT(Formal),2021.2.3,Win32,166.6666667,,,,,,,,,,,,,,,i,1,1.176,,,,,,傲慢,i,,,1,57,137,37,1,,,,,,,,,,,,,,,,,,,,,,,,,,,,,,,,,,
,,,,,,,,,,,,,,1,001,2025-01-03_00h04.05.411,IAT(Formal),2021.2.3,Win32,166.6666667,,,,,,,,,,,,,,,,0,,,,,,,活泼,e,,,1,58,138,28,1,,,,,,,,,,,,,,,,,,,,,,,,,,,,,,,,,,
,,,,,,,,,,,,,,1,001,2025-01-03_00h04.05.411,IAT(Formal),2021.2.3,Win32,166.6666667,,,,,,,,,,,,,,,,0,,,,,,,乐观,e,,,1,59,139,14,1,,,,,,,,,,,,,,,,,,,,,,,,,,,,,,,,,,
,,,,,,,,,,,,,,1,001,2025-01-03_00h04.05.411,IAT(Formal),2021.2.3,Win32,166.6666667,,,,,,,,,,,,,,,,0,,,,,,,轻率,i,,,1,60,140,48,1,,,,,,,,,,,,,,,,,,,,,,,,,,,,,,,,,,
,,,,,,,,,,,,,,1,001,2025-01-03_00h04.05.411,IAT(Formal),2021.2.3,Win32,166.6666667,,,,,,,,,,,,,,,i,1,1.2359,,,,,,卑鄙,i,,,1,61,141,30,1,,,,,,,,,,,,,,,,,,,,,,,,,,,,,,,,,,
,,,,,,,,,,,,,,1,001,2025-01-03_00h04.05.411,IAT(Formal),2021.2.3,Win32,166.6666667,,,,,,,,,,,,,,,e,1,0.8917,,,,,,俺,e,,,1,62,142,74,1,,,,,,,,,,,,,,,,,,,,,,,,,,,,,,,,,,
,,,,,,,,,,,,,,1,001,2025-01-03_00h04.05.411,IAT(Formal),2021.2.3,Win32,166.6666667,,,,,,,,,,,,,,,,0,,,,,,,诚实,e,,,1,63,143,15,1,,,,,,,,,,,,,,,,,,,,,,,,,,,,,,,,,,
,,,,,,,,,,,,,,1,001,2025-01-03_00h04.05.411,IAT(Formal),2021.2.3,Win32,166.6666667,,,,,,,,,,,,,,,e,1,0.6222,,,,,,冷静,e,,,1,64,144,26,1,,,,,,,,,,,,,,,,,,,,,,,,,,,,,,,,,,
,,,,,,,,,,,,,,1,001,2025-01-03_00h04.05.411,IAT(Formal),2021.2.3,Win32,166.6666667,,,,,,,,,,,,,,,i,1,0.8437,,,,,,他的,i,,,1,65,145,77,1,,,,,,,,,,,,,,,,,,,,,,,,,,,,,,,,,,
,,,,,,,,,,,,,,1,001,2025-01-03_00h04.05.411,IAT(Formal),2021.2.3,Win32,166.6666667,,,,,,,,,,,,,,,,0,,,,,,,执拗,i,,,1,66,146,40,1,,,,,,,,,,,,,,,,,,,,,,,,,,,,,,,,,,
,,,,,,,,,,,,,,1,001,2025-01-03_00h04.05.411,IAT(Formal),2021.2.3,Win32,166.6666667,,,,,,,,,,,,,,,i,1,0.5468,,,,,,他人,i,,,1,67,147,78,1,,,,,,,,,,,,,,,,,,,,,,,,,,,,,,,,,,
,,,,,,,,,,,,,,1,001,2025-01-03_00h04.05.411,IAT(Formal),2021.2.3,Win32,166.6666667,,,,,,,,,,,,,,,i,1,0.6359,,,,,,凶狠,i,,,1,68,148,42,1,,,,,,,,,,,,,,,,,,,,,,,,,,,,,,,,,,
,,,,,,,,,,,,,,1,001,2025-01-03_00h04.05.411,IAT(Formal),2021.2.3,Win32,166.6666667,,,,,,,,,,,,,,,i,1,0.4704,,,,,,他们,i,,,1,69,149,76,1,,,,,,,,,,,,,,,,,,,,,,,,,,,,,,,,,,
,,,,,,,,,,,,,,1,001,2025-01-03_00h04.05.411,IAT(Formal),2021.2.3,Win32,166.6666667,,,,,,,,,,,,,,,i,1,0.4278,,,,,,消极,i,,,1,70,150,35,1,,,,,,,,,,,,,,,,,,,,,,,,,,,,,,,,,,
,,,,,,,,,,,,,,1,001,2025-01-03_00h04.05.411,IAT(Formal),2021.2.3,Win32,166.6666667,,,,,,,,,,,,,,,i,1,0.6069,,,,,,他的,i,,,1,71,151,67,1,,,,,,,,,,,,,,,,,,,,,,,,,,,,,,,,,,
,,,,,,,,,,,,,,1,001,2025-01-03_00h04.05.411,IAT(Formal),2021.2.3,Win32,166.6666667,,,,,,,,,,,,,,,i,1,0.5272,,,,,,散漫,i,,,1,72,152,41,1,,,,,,,,,,,,,,,,,,,,,,,,,,,,,,,,,,
,,,,,,,,,,,,,,1,001,2025-01-03_00h04.05.411,IAT(Formal),2021.2.3,Win32,166.6666667,,,,,,,,,,,,,,,e,1,0.6125,,,,,,杰出,e,,,1,73,153,13,1,,,,,,,,,,,,,,,,,,,,,,,,,,,,,,,,,,
,,,,,,,,,,,,,,1,001,2025-01-03_00h04.05.411,IAT(Formal),2021.2.3,Win32,166.6666667,,,,,,,,,,,,,,,e,1,0.6491,,,,,,我的,e,,,1,74,154,71,1,,,,,,,,,,,,,,,,,,,,,,,,,,,,,,,,,,
,,,,,,,,,,,,,,1,001,2025-01-03_00h04.05.411,IAT(Formal),2021.2.3,Win32,166.6666667,,,,,,,,,,,,,,,i,0,0.7523,,,,,,我们,e,,,1,75,155,72,1,,,,,,,,,,,,,,,,,,,,,,,,,,,,,,,,,,
,,,,,,,,,,,,,,1,001,2025-01-03_00h04.05.411,IAT(Formal),2021.2.3,Win32,166.6666667,,,,,,,,,,,,,,,,0,,,,,,,他,i,,,1,76,156,65,1,,,,,,,,,,,,,,,,,,,,,,,,,,,,,,,,,,
,,,,,,,,,,,,,,1,001,2025-01-03_00h04.05.411,IAT(Formal),2021.2.3,Win32,166.6666667,,,,,,,,,,,,,,,i,1,0.7576,,,,,,他的,i,,,1,77,157,57,1,,,,,,,,,,,,,,,,,,,,,,,,,,,,,,,,,,
,,,,,,,,,,,,,,1,001,2025-01-03_00h04.05.411,IAT(Formal),2021.2.3,Win32,166.6666667,,,,,,,,,,,,,,,i,1,0.5461,,,,,,自卑,i,,,1,78,158,36,1,,,,,,,,,,,,,,,,,,,,,,,,,,,,,,,,,,
,,,,,,,,,,,,,,1,001,2025-01-03_00h04.05.411,IAT(Formal),2021.2.3,Win32,166.6666667,,,,,,,,,,,,,,,e,1,0.8667,,,,,,优秀,e,,,1,79,159,10,1,,,,,,,,,,,,,,,,,,,,,,,,,,,,,,,,,,
,,,,,,,,,,,,他人,e,1,001,2025-01-03_00h04.05.411,IAT(Formal),2021.2.3,Win32,166.6666667,,,,,,,,,,,,,,,,,,,,,,,,,,,,,,,,space,227.289,e,1,0.5335,0,0,0,8,1,,,,,,,,,,,,,,,,,,,,,,,,
,,,,,,,,,,,,自己,i,1,001,2025-01-03_00h04.05.411,IAT(Formal),2021.2.3,Win32,166.6666667,,,,,,,,,,,,,,,,,,,,,,,,,,,,,,,,,,i,1,0.3764,0,1,1,3,1,,,,,,,,,,,,,,,,,,,,,,,,
,,,,,,,,,,,,我,i,1,001,2025-01-03_00h04.05.411,IAT(Formal),2021.2.3,Win32,166.6666667,,,,,,,,,,,,,,,,,,,,,,,,,,,,,,,,,,i,1,0.6004,0,2,2,0,1,,,,,,,,,,,,,,,,,,,,,,,,
,,,,,,,,,,,,他,e,1,001,2025-01-03_00h04.05.411,IAT(Formal),2021.2.3,Win32,166.6666667,,,,,,,,,,,,,,,,,,,,,,,,,,,,,,,,,,e,1,0.6182,0,3,3,5,1,,,,,,,,,,,,,,,,,,,,,,,,
,,,,,,,,,,,,俺,i,1,001,2025-01-03_00h04.05.411,IAT(Formal),2021.2.3,Win32,166.6666667,,,,,,,,,,,,,,,,,,,,,,,,,,,,,,,,,,i,1,0.6544,0,4,4,4,1,,,,,,,,,,,,,,,,,,,,,,,,
,,,,,,,,,,,,他们,e,1,001,2025-01-03_00h04.05.411,IAT(Formal),2021.2.3,Win32,166.6666667,,,,,,,,,,,,,,,,,,,,,,,,,,,,,,,,,,e,1,0.4913,0,5,5,6,1,,,,,,,,,,,,,,,,,,,,,,,,
,,,,,,,,,,,,他的,e,1,001,2025-01-03_00h04.05.411,IAT(Formal),2021.2.3,Win32,166.6666667,,,,,,,,,,,,,,,,,,,,,,,,,,,,,,,,,,e,1,0.5211,0,6,6,7,1,,,,,,,,,,,,,,,,,,,,,,,,
,,,,,,,,,,,,我的,i,1,001,2025-01-03_00h04.05.411,IAT(Formal),2021.2.3,Win32,166.6666667,,,,,,,,,,,,,,,,,,,,,,,,,,,,,,,,,,i,1,0.3583,0,7,7,1,1,,,,,,,,,,,,,,,,,,,,,,,,
,,,,,,,,,,,,其他,e,1,001,2025-01-03_00h04.05.411,IAT(Formal),2021.2.3,Win32,166.6666667,,,,,,,,,,,,,,,,,,,,,,,,,,,,,,,,,,i,0,0.5485,0,8,8,9,1,,,,,,,,,,,,,,,,,,,,,,,,
,,,,,,,,,,,,我们,i,1,001,2025-01-03_00h04.05.411,IAT(Formal),2021.2.3,Win32,166.6666667,,,,,,,,,,,,,,,,,,,,,,,,,,,,,,,,,,i,1,1.0137,0,9,9,2,1,,,,,,,,,,,,,,,,,,,,,,,,
,,,,,,,,,,,,,,1,001,2025-01-03_00h04.05.411,IAT(Formal),2021.2.3,Win32,166.6666667,,,,,,,,,,,,,,,,,,,,,,,,,,,,,,,,,,,,,,,,,,space,11.0677,i,1,0.6493,0,0,0,62,1,我们,i,,,,,,,,,,,,
,,,,,,,,,,,,,,1,001,2025-01-03_00h04.05.411,IAT(Formal),2021.2.3,Win32,166.6666667,,,,,,,,,,,,,,,,,,,,,,,,,,,,,,,,,,,,,,,,,,,,i,1,0.7202,0,1,1,34,1,悲观,i,,,,,,,,,,,,
,,,,,,,,,,,,,,1,001,2025-01-03_00h04.05.411,IAT(Formal),2021.2.3,Win32,166.6666667,,,,,,,,,,,,,,,,,,,,,,,,,,,,,,,,,,,,,,,,,,,,e,1,1.2907,0,2,2,20,1,认真,e,,,,,,,,,,,,
,,,,,,,,,,,,,,1,001,2025-01-03_00h04.05.411,IAT(Formal),2021.2.3,Win32,166.6666667,,,,,,,,,,,,,,,,,,,,,,,,,,,,,,,,,,,,,,,,,,,,i,0,0.5459,0,3,3,7,1,他的,e,,,,,,,,,,,,
,,,,,,,,,,,,,,1,001,2025-01-03_00h04.05.411,IAT(Formal),2021.2.3,Win32,166.6666667,,,,,,,,,,,,,,,,,,,,,,,,,,,,,,,,,,,,,,,,,,,,i,1,0.6602,0,4,4,4,1,俺,i,,,,,,,,,,,,
,,,,,,,,,,,,,,1,001,2025-01-03_00h04.05.411,IAT(Formal),2021.2.3,Win32,166.6666667,,,,,,,,,,,,,,,,,,,,,,,,,,,,,,,,,,,,,,,,,,,,i,1,0.6733,0,5,5,60,1,我,i,,,,,,,,,,,,
,,,,,,,,,,,,,,1,001,2025-01-03_00h04.05.411,IAT(Formal),2021.2.3,Win32,166.6666667,,,,,,,,,,,,,,,,,,,,,,,,,,,,,,,,,,,,,,,,,,,,e,0,0.6126,0,6,6,47,1,固执,i,,,,,,,,,,,,
,,,,,,,,,,,,,,1,001,2025-01-03_00h04.05.411,IAT(Formal),2021.2.3,Win32,166.6666667,,,,,,,,,,,,,,,,,,,,,,,,,,,,,,,,,,,,,,,,,,,,i,1,1.2366,0,7,7,39,1,冒失,i,,,,,,,,,,,,
,,,,,,,,,,,,,,1,001,2025-01-03_00h04.05.411,IAT(Formal),2021.2.3,Win32,166.6666667,,,,,,,,,,,,,,,,,,,,,,,,,,,,,,,,,,,,,,,,,,,,e,1,0.9773,0,8,8,13,1,杰出,e,,,,,,,,,,,,
,,,,,,,,,,,,,,1,001,2025-01-03_00h04.05.411,IAT(Formal),2021.2.3,Win32,166.6666667,,,,,,,,,,,,,,,,,,,,,,,,,,,,,,,,,,,,,,,,,,,,e,1,0.6432,0,9,9,75,1,他,e,,,,,,,,,,,,
,,,,,,,,,,,,,,1,001,2025-01-03_00h04.05.411,IAT(Formal),2021.2.3,Win32,166.6666667,,,,,,,,,,,,,,,,,,,,,,,,,,,,,,,,,,,,,,,,,,,,e,1,1.0125,0,10,10,79,1,其他,e,,,,,,,,,,,,
,,,,,,,,,,,,,,1,001,2025-01-03_00h04.05.411,IAT(Formal),2021.2.3,Win32,166.6666667,,,,,,,,,,,,,,,,,,,,,,,,,,,,,,,,,,,,,,,,,,,,i,1,0.8856,0,11,11,38,1,鲁莽,i,,,,,,,,,,,,
,,,,,,,,,,,,,,1,001,2025-01-03_00h04.05.411,IAT(Formal),2021.2.3,Win32,166.6666667,,,,,,,,,,,,,,,,,,,,,,,,,,,,,,,,,,,,,,,,,,,,,0,,0,12,12,54,1,俺,i,,,,,,,,,,,,
,,,,,,,,,,,,,,1,001,2025-01-03_00h04.05.411,IAT(Formal),2021.2.3,Win32,166.6666667,,,,,,,,,,,,,,,,,,,,,,,,,,,,,,,,,,,,,,,,,,,,i,1,0.8694,0,13,13,37,1,傲慢,i,,,,,,,,,,,,
,,,,,,,,,,,,,,1,001,2025-01-03_00h04.05.411,IAT(Formal),2021.2.3,Win32,166.6666667,,,,,,,,,,,,,,,,,,,,,,,,,,,,,,,,,,,,,,,,,,,,i,1,0.5578,0,14,14,63,1,自己,i,,,,,,,,,,,,
,,,,,,,,,,,,,,1,001,2025-01-03_00h04.05.411,IAT(Formal),2021.2.3,Win32,166.6666667,,,,,,,,,,,,,,,,,,,,,,,,,,,,,,,,,,,,,,,,,,,,e,1,0.8969,0,15,15,23,1,公正,e,,,,,,,,,,,,
,,,,,,,,,,,,,,1,001,2025-01-03_00h04.05.411,IAT(Formal),2021.2.3,Win32,166.6666667,,,,,,,,,,,,,,,,,,,,,,,,,,,,,,,,,,,,,,,,,,,,i,1,0.5514,0,16,16,73,1,自己,i,,,,,,,,,,,,
,,,,,,,,,,,,,,1,001,2025-01-03_00h04.05.411,IAT(Formal),2021.2.3,Win32,166.6666667,,,,,,,,,,,,,,,,,,,,,,,,,,,,,,,,,,,,,,,,,,,,i,0,1.0122,0,17,17,22,1,无私,e,,,,,,,,,,,,
,,,,,,,,,,,,,,1,001,2025-01-03_00h04.05.411,IAT(Formal),2021.2.3,Win32,166.6666667,,,,,,,,,,,,,,,,,,,,,,,,,,,,,,,,,,,,,,,,,,,,i,1,0.5457,0,18,18,53,1,自己,i,,,,,,,,,,,,
,,,,,,,,,,,,,,1,001,2025-01-03_00h04.05.411,IAT(Formal),2021.2.3,Win32,166.6666667,,,,,,,,,,,,,,,,,,,,,,,,,,,,,,,,,,,,,,,,,,,,e,1,0.612,0,19,19,76,1,他们,e,,,,,,,,,,,,
,,,,,,,,,,,,,,1,001,2025-01-03_00h04.05.411,IAT(Formal),2021.2.3,Win32,166.6666667,,,,,,,,,,,,,,,,,,,,,,,,,,,,,,,,,,,,,,,,,,,,e,1,0.6048,0,20,20,78,1,他人,e,,,,,,,,,,,,
,,,,,,,,,,,,,,1,001,2025-01-03_00h04.05.411,IAT(Formal),2021.2.3,Win32,166.6666667,,,,,,,,,,,,,,,,,,,,,,,,,,,,,,,,,,,,,,,,,,,,i,1,0.5452,0,21,21,0,1,我,i,,,,,,,,,,,,
,,,,,,,,,,,,,,1,001,2025-01-03_00h04.05.411,IAT(Formal),2021.2.3,Win32,166.6666667,,,,,,,,,,,,,,,,,,,,,,,,,,,,,,,,,,,,,,,,,,,,e,1,0.8011,0,22,22,8,1,他人,e,,,,,,,,,,,,
,,,,,,,,,,,,,,1,001,2025-01-03_00h04.05.411,IAT(Formal),2021.2.3,Win32,166.6666667,,,,,,,,,,,,,,,,,,,,,,,,,,,,,,,,,,,,,,,,,,,,i,1,1.3954,0,23,23,41,1,散漫,i,,,,,,,,,,,,
,,,,,,,,,,,,,,1,001,2025-01-03_00h04.05.411,IAT(Formal),2021.2.3,Win32,166.6666667,,,,,,,,,,,,,,,,,,,,,,,,,,,,,,,,,,,,,,,,,,,,e,1,1.0725,0,24,24,24,1,朴实,e,,,,,,,,,,,,
,,,,,,,,,,,,,,1,001,2025-01-03_00h04.05.411,IAT(Formal),2021.2.3,Win32,166.6666667,,,,,,,,,,,,,,,,,,,,,,,,,,,,,,,,,,,,,,,,,,,,i,1,0.9758,0,25,25,30,1,卑鄙,i,,,,,,,,,,,,
,,,,,,,,,,,,,,1,001,2025-01-03_00h04.05.411,IAT(Formal),2021.2.3,Win32,166.6666667,,,,,,,,,,,,,,,,,,,,,,,,,,,,,,,,,,,,,,,,,,,,e,1,0.7102,0,26,26,55,1,他,e,,,,,,,,,,,,
,,,,,,,,,,,,,,1,001,2025-01-03_00h04.05.411,IAT(Formal),2021.2.3,Win32,166.6666667,,,,,,,,,,,,,,,,,,,,,,,,,,,,,,,,,,,,,,,,,,,,i,1,0.6374,0,27,27,3,1,自己,i,,,,,,,,,,,,
,,,,,,,,,,,,,,1,001,2025-01-03_00h04.05.411,IAT(Formal),2021.2.3,Win32,166.6666667,,,,,,,,,,,,,,,,,,,,,,,,,,,,,,,,,,,,,,,,,,,,i,0,1.3703,0,28,28,29,1,诚恳,e,,,,,,,,,,,,
,,,,,,,,,,,,,,1,001,2025-01-03_00h04.05.411,IAT(Formal),2021.2.3,Win32,166.6666667,,,,,,,,,,,,,,,,,,,,,,,,,,,,,,,,,,,,,,,,,,,,i,1,0.679,0,29,29,32,1,愚蠢,i,,,,,,,,,,,,
,,,,,,,,,,,,,,1,001,2025-01-03_00h04.05.411,IAT(Formal),2021.2.3,Win32,166.6666667,,,,,,,,,,,,,,,,,,,,,,,,,,,,,,,,,,,,,,,,,,,,e,1,1.283,0,30,30,25,1,细腻,e,,,,,,,,,,,,
,,,,,,,,,,,,,,1,001,2025-01-03_00h04.05.411,IAT(Formal),2021.2.3,Win32,166.6666667,,,,,,,,,,,,,,,,,,,,,,,,,,,,,,,,,,,,,,,,,,,,e,1,1.2014,0,31,31,68,1,他人,e,,,,,,,,,,,,
,,,,,,,,,,,,,,1,001,2025-01-03_00h04.05.411,IAT(Formal),2021.2.3,Win32,166.6666667,,,,,,,,,,,,,,,,,,,,,,,,,,,,,,,,,,,,,,,,,,,,e,1,1.4724,0,32,32,65,1,他,e,,,,,,,,,,,,
,,,,,,,,,,,,,,1,001,2025-01-03_00h04.05.411,IAT(Formal),2021.2.3,Win32,166.6666667,,,,,,,,,,,,,,,,,,,,,,,,,,,,,,,,,,,,,,,,,,,,i,1,1.3518,0,33,33,72,1,我们,i,,,,,,,,,,,,
,,,,,,,,,,,,,,1,001,2025-01-03_00h04.05.411,IAT(Formal),2021.2.3,Win32,166.6666667,,,,,,,,,,,,,,,,,,,,,,,,,,,,,,,,,,,,,,,,,,,,e,1,0.8303,0,34,34,9,1,其他,e,,,,,,,,,,,,
,,,,,,,,,,,,,,1,001,2025-01-03_00h04.05.411,IAT(Formal),2021.2.3,Win32,166.6666667,,,,,,,,,,,,,,,,,,,,,,,,,,,,,,,,,,,,,,,,,,,,i,1,0.9998,0,35,35,46,1,野蛮,i,,,,,,,,,,,,
,,,,,,,,,,,,,,1,001,2025-01-03_00h04.05.411,IAT(Formal),2021.2.3,Win32,166.6666667,,,,,,,,,,,,,,,,,,,,,,,,,,,,,,,,,,,,,,,,,,,,e,0,1.4728,0,36,36,43,1,自私,i,,,,,,,,,,,,
,,,,,,,,,,,,,,1,001,2025-01-03_00h04.05.411,IAT(Formal),2021.2.3,Win32,166.6666667,,,,,,,,,,,,,,,,,,,,,,,,,,,,,,,,,,,,,,,,,,,,e,1,1.1726,0,37,37,12,1,聪明,e,,,,,,,,,,,,
,,,,,,,,,,,,,,1,001,2025-01-03_00h04.05.411,IAT(Formal),2021.2.3,Win32,166.6666667,,,,,,,,,,,,,,,,,,,,,,,,,,,,,,,,,,,,,,,,,,,,i,1,0.6746,0,38,38,42,1,凶狠,i,,,,,,,,,,,,
,,,,,,,,,,,,,,1,001,2025-01-03_00h04.05.411,IAT(Formal),2021.2.3,Win32,166.6666667,,,,,,,,,,,,,,,,,,,,,,,,,,,,,,,,,,,,,,,,,,,,,0,,0,39,39,35,1,消极,i,,,,,,,,,,,,
,,,,,,,,,,,,,,1,001,2025-01-03_00h04.05.411,IAT(Formal),2021.2.3,Win32,166.6666667,,,,,,,,,,,,,,,,,,,,,,,,,,,,,,,,,,,,,,,,,,,,e,1,0.8791,0,40,40,15,1,诚实,e,,,,,,,,,,,,
,,,,,,,,,,,,,,1,001,2025-01-03_00h04.05.411,IAT(Formal),2021.2.3,Win32,166.6666667,,,,,,,,,,,,,,,,,,,,,,,,,,,,,,,,,,,,,,,,,,,,e,1,0.678,0,41,41,77,1,他的,e,,,,,,,,,,,,
,,,,,,,,,,,,,,1,001,2025-01-03_00h04.05.411,IAT(Formal),2021.2.3,Win32,166.6666667,,,,,,,,,,,,,,,,,,,,,,,,,,,,,,,,,,,,,,,,,,,,e,1,0.8791,0,42,42,28,1,活泼,e,,,,,,,,,,,,
,,,,,,,,,,,,,,1,001,2025-01-03_00h04.05.411,IAT(Formal),2021.2.3,Win32,166.6666667,,,,,,,,,,,,,,,,,,,,,,,,,,,,,,,,,,,,,,,,,,,,i,0,1.4805,0,43,43,58,1,他人,e,,,,,,,,,,,,
,,,,,,,,,,,,,,1,001,2025-01-03_00h04.05.411,IAT(Formal),2021.2.3,Win32,166.6666667,,,,,,,,,,,,,,,,,,,,,,,,,,,,,,,,,,,,,,,,,,,,i,1,0.6603,0,44,44,31,1,虚伪,i,,,,,,,,,,,,
,,,,,,,,,,,,,,1,001,2025-01-03_00h04.05.411,IAT(Formal),2021.2.3,Win32,166.6666667,,,,,,,,,,,,,,,,,,,,,,,,,,,,,,,,,,,,,,,,,,,,e,1,0.7199,0,45,45,17,1,勇敢,e,,,,,,,,,,,,
,,,,,,,,,,,,,,1,001,2025-01-03_00h04.05.411,IAT(Formal),2021.2.3,Win32,166.6666667,,,,,,,,,,,,,,,,,,,,,,,,,,,,,,,,,,,,,,,,,,,,,0,,0,46,46,56,1,他们,e,,,,,,,,,,,,
,,,,,,,,,,,,,,1,001,2025-01-03_00h04.05.411,IAT(Formal),2021.2.3,Win32,166.6666667,,,,,,,,,,,,,,,,,,,,,,,,,,,,,,,,,,,,,,,,,,,,e,1,0.6119,0,47,47,6,1,他们,e,,,,,,,,,,,,
,,,,,,,,,,,,,,1,001,2025-01-03_00h04.05.411,IAT(Formal),2021.2.3,Win32,166.6666667,,,,,,,,,,,,,,,,,,,,,,,,,,,,,,,,,,,,,,,,,,,,i,1,1.3413,0,48,48,50,1,我,i,,,,,,,,,,,,
,,,,,,,,,,,,,,1,001,2025-01-03_00h04.05.411,IAT(Formal),2021.2.3,Win32,166.6666667,,,,,,,,,,,,,,,,,,,,,,,,,,,,,,,,,,,,,,,,,,,,e,1,1.2793,0,49,49,69,1,其他,e,,,,,,,,,,,,
,,,,,,,,,,,,,,1,001,2025-01-03_00h04.05.411,IAT(Formal),2021.2.3,Win32,166.6666667,,,,,,,,,,,,,,,,,,,,,,,,,,,,,,,,,,,,,,,,,,,,i,1,1.3643,0,50,50,64,1,俺,i,,,,,,,,,,,,
,,,,,,,,,,,,,,1,001,2025-01-03_00h04.05.411,IAT(Formal),2021.2.3,Win32,166.6666667,,,,,,,,,,,,,,,,,,,,,,,,,,,,,,,,,,,,,,,,,,,,e,1,1.1393,0,51,51,16,1,正直,e,,,,,,,,,,,,
,,,,,,,,,,,,,,1,001,2025-01-03_00h04.05.411,IAT(Formal),2021.2.3,Win32,166.6666667,,,,,,,,,,,,,,,,,,,,,,,,,,,,,,,,,,,,,,,,,,,,e,1,0.5882,0,52,52,19,1,机智,e,,,,,,,,,,,,
,,,,,,,,,,,,,,1,001,2025-01-03_00h04.05.411,IAT(Formal),2021.2.3,Win32,166.6666667,,,,,,,,,,,,,,,,,,,,,,,,,,,,,,,,,,,,,,,,,,,,e,1,0.6603,0,53,53,14,1,乐观,e,,,,,,,,,,,,
,,,,,,,,,,,,,,1,001,2025-01-03_00h04.05.411,IAT(Formal),2021.2.3,Win32,166.6666667,,,,,,,,,,,,,,,,,,,,,,,,,,,,,,,,,,,,,,,,,,,,e,1,0.6427,0,54,54,21,1,稳重,e,,,,,,,,,,,,
,,,,,,,,,,,,,,1,001,2025-01-03_00h04.05.411,IAT(Formal),2021.2.3,Win32,166.6666667,,,,,,,,,,,,,,,,,,,,,,,,,,,,,,,,,,,,,,,,,,,,e,1,0.6064,0,55,55,5,1,他,e,,,,,,,,,,,,
,,,,,,,,,,,,,,1,001,2025-01-03_00h04.05.411,IAT(Formal),2021.2.3,Win32,166.6666667,,,,,,,,,,,,,,,,,,,,,,,,,,,,,,,,,,,,,,,,,,,,,0,,0,56,56,36,1,自卑,i,,,,,,,,,,,,
,,,,,,,,,,,,,,1,001,2025-01-03_00h04.05.411,IAT(Formal),2021.2.3,Win32,166.6666667,,,,,,,,,,,,,,,,,,,,,,,,,,,,,,,,,,,,,,,,,,,,e,1,1.0068,0,57,57,66,1,他们,e,,,,,,,,,,,,
,,,,,,,,,,,,,,1,001,2025-01-03_00h04.05.411,IAT(Formal),2021.2.3,Win32,166.6666667,,,,,,,,,,,,,,,,,,,,,,,,,,,,,,,,,,,,,,,,,,,,i,1,0.8187,0,58,58,2,1,我们,i,,,,,,,,,,,,
,,,,,,,,,,,,,,1,001,2025-01-03_00h04.05.411,IAT(Formal),2021.2.3,Win32,166.6666667,,,,,,,,,,,,,,,,,,,,,,,,,,,,,,,,,,,,,,,,,,,,i,1,0.576,0,59,59,49,1,下贱,i,,,,,,,,,,,,
,,,,,,,,,,,,,,1,001,2025-01-03_00h04.05.411,IAT(Formal),2021.2.3,Win32,166.6666667,,,,,,,,,,,,,,,,,,,,,,,,,,,,,,,,,,,,,,,,,,,,e,1,0.6979,0,60,60,57,1,他的,e,,,,,,,,,,,,
,,,,,,,,,,,,,,1,001,2025-01-03_00h04.05.411,IAT(Formal),2021.2.3,Win32,166.6666667,,,,,,,,,,,,,,,,,,,,,,,,,,,,,,,,,,,,,,,,,,,,i,0,0.866,0,61,61,11,1,崇高,e,,,,,,,,,,,,
,,,,,,,,,,,,,,1,001,2025-01-03_00h04.05.411,IAT(Formal),2021.2.3,Win32,166.6666667,,,,,,,,,,,,,,,,,,,,,,,,,,,,,,,,,,,,,,,,,,,,e,1,0.6667,0,62,62,18,1,勤奋,e,,,,,,,,,,,,
,,,,,,,,,,,,,,1,001,2025-01-03_00h04.05.411,IAT(Formal),2021.2.3,Win32,166.6666667,,,,,,,,,,,,,,,,,,,,,,,,,,,,,,,,,,,,,,,,,,,,e,1,0.4558,0,63,63,10,1,优秀,e,,,,,,,,,,,,
,,,,,,,,,,,,,,1,001,2025-01-03_00h04.05.411,IAT(Formal),2021.2.3,Win32,166.6666667,,,,,,,,,,,,,,,,,,,,,,,,,,,,,,,,,,,,,,,,,,,,i,1,0.774,0,64,64,52,1,我们,i,,,,,,,,,,,,
,,,,,,,,,,,,,,1,001,2025-01-03_00h04.05.411,IAT(Formal),2021.2.3,Win32,166.6666667,,,,,,,,,,,,,,,,,,,,,,,,,,,,,,,,,,,,,,,,,,,,,0,,0,65,65,48,1,轻率,i,,,,,,,,,,,,
,,,,,,,,,,,,,,1,001,2025-01-03_00h04.05.411,IAT(Formal),2021.2.3,Win32,166.6666667,,,,,,,,,,,,,,,,,,,,,,,,,,,,,,,,,,,,,,,,,,,,i,0,0.7643,0,66,66,59,1,其他,e,,,,,,,,,,,,
,,,,,,,,,,,,,,1,001,2025-01-03_00h04.05.411,IAT(Formal),2021.2.3,Win32,166.6666667,,,,,,,,,,,,,,,,,,,,,,,,,,,,,,,,,,,,,,,,,,,,i,1,0.565,0,67,67,1,1,我的,i,,,,,,,,,,,,
,,,,,,,,,,,,,,1,001,2025-01-03_00h04.05.411,IAT(Formal),2021.2.3,Win32,166.6666667,,,,,,,,,,,,,,,,,,,,,,,,,,,,,,,,,,,,,,,,,,,,i,1,0.576,0,68,68,61,1,我的,i,,,,,,,,,,,,
,,,,,,,,,,,,,,1,001,2025-01-03_00h04.05.411,IAT(Formal),2021.2.3,Win32,166.6666667,,,,,,,,,,,,,,,,,,,,,,,,,,,,,,,,,,,,,,,,,,,,i,1,0.8128,0,69,69,44,1,暴躁,i,,,,,,,,,,,,
,,,,,,,,,,,,,,1,001,2025-01-03_00h04.05.411,IAT(Formal),2021.2.3,Win32,166.6666667,,,,,,,,,,,,,,,,,,,,,,,,,,,,,,,,,,,,,,,,,,,,i,1,0.5258,0,70,70,51,1,我的,i,,,,,,,,,,,,
,,,,,,,,,,,,,,1,001,2025-01-03_00h04.05.411,IAT(Formal),2021.2.3,Win32,166.6666667,,,,,,,,,,,,,,,,,,,,,,,,,,,,,,,,,,,,,,,,,,,,i,1,1.1811,0,71,71,33,1,刻薄,i,,,,,,,,,,,,
,,,,,,,,,,,,,,1,001,2025-01-03_00h04.05.411,IAT(Formal),2021.2.3,Win32,166.6666667,,,,,,,,,,,,,,,,,,,,,,,,,,,,,,,,,,,,,,,,,,,,i,1,0.6973,0,72,72,40,1,执拗,i,,,,,,,,,,,,
,,,,,,,,,,,,,,1,001,2025-01-03_00h04.05.411,IAT(Formal),2021.2.3,Win32,166.6666667,,,,,,,,,,,,,,,,,,,,,,,,,,,,,,,,,,,,,,,,,,,,e,1,0.8601,0,73,73,67,1,他的,e,,,,,,,,,,,,
,,,,,,,,,,,,,,1,001,2025-01-03_00h04.05.411,IAT(Formal),2021.2.3,Win32,166.6666667,,,,,,,,,,,,,,,,,,,,,,,,,,,,,,,,,,,,,,,,,,,,i,1,0.6256,0,74,74,45,1,猖狂,i,,,,,,,,,,,,
,,,,,,,,,,,,,,1,001,2025-01-03_00h04.05.411,IAT(Formal),2021.2.3,Win32,166.6666667,,,,,,,,,,,,,,,,,,,,,,,,,,,,,,,,,,,,,,,,,,,,i,1,0.667,0,75,75,71,1,我的,i,,,,,,,,,,,,
,,,,,,,,,,,,,,1,001,2025-01-03_00h04.05.411,IAT(Formal),2021.2.3,Win32,166.6666667,,,,,,,,,,,,,,,,,,,,,,,,,,,,,,,,,,,,,,,,,,,,i,1,0.5728,0,76,76,74,1,俺,i,,,,,,,,,,,,
,,,,,,,,,,,,,,1,001,2025-01-03_00h04.05.411,IAT(Formal),2021.2.3,Win32,166.6666667,,,,,,,,,,,,,,,,,,,,,,,,,,,,,,,,,,,,,,,,,,,,i,1,0.491,0,77,77,70,1,我,i,,,,,,,,,,,,
,,,,,,,,,,,,,,1,001,2025-01-03_00h04.05.411,IAT(Formal),2021.2.3,Win32,166.6666667,,,,,,,,,,,,,,,,,,,,,,,,,,,,,,,,,,,,,,,,,,,,i,0,1.18,0,78,78,27,1,热情,e,,,,,,,,,,,,
,,,,,,,,,,,,,,1,001,2025-01-03_00h04.05.411,IAT(Formal),2021.2.3,Win32,166.6666667,,,,,,,,,,,,,,,,,,,,,,,,,,,,,,,,,,,,,,,,,,,,e,1,1.3151,0,79,79,26,1,冷静,e,,,,,,,,,,,,
,,,,,,,,,,,,,,1,001,2025-01-03_00h04.05.411,IAT(Formal),2021.2.3,Win32,166.6666667,,,,,,,,,,,,,,,,,,,,,,,,,,,,,,,,,,,,,,,,,,,,,,,,,,,,其他,e,space,5.2321,e,1,0.6907,0,0,0,59,1,,
,,,,,,,,,,,,,,1,001,2025-01-03_00h04.05.411,IAT(Formal),2021.2.3,Win32,166.6666667,,,,,,,,,,,,,,,,,,,,,,,,,,,,,,,,,,,,,,,,,,,,,,,,,,,,自己,i,,,i,1,0.4721,0,1,1,73,1,,
,,,,,,,,,,,,,,1,001,2025-01-03_00h04.05.411,IAT(Formal),2021.2.3,Win32,166.6666667,,,,,,,,,,,,,,,,,,,,,,,,,,,,,,,,,,,,,,,,,,,,,,,,,,,,机智,e,,,e,1,0.6361,0,2,2,19,1,,
,,,,,,,,,,,,,,1,001,2025-01-03_00h04.05.411,IAT(Formal),2021.2.3,Win32,166.6666667,,,,,,,,,,,,,,,,,,,,,,,,,,,,,,,,,,,,,,,,,,,,,,,,,,,,我,i,,,i,1,0.5928,0,3,3,60,1,,
,,,,,,,,,,,,,,1,001,2025-01-03_00h04.05.411,IAT(Formal),2021.2.3,Win32,166.6666667,,,,,,,,,,,,,,,,,,,,,,,,,,,,,,,,,,,,,,,,,,,,,,,,,,,,我的,i,,,i,1,0.4425,0,4,4,61,1,,
,,,,,,,,,,,,,,1,001,2025-01-03_00h04.05.411,IAT(Formal),2021.2.3,Win32,166.6666667,,,,,,,,,,,,,,,,,,,,,,,,,,,,,,,,,,,,,,,,,,,,,,,,,,,,他人,e,,,e,1,0.7673,0,5,5,68,1,,
,,,,,,,,,,,,,,1,001,2025-01-03_00h04.05.411,IAT(Formal),2021.2.3,Win32,166.6666667,,,,,,,,,,,,,,,,,,,,,,,,,,,,,,,,,,,,,,,,,,,,,,,,,,,,卑鄙,i,,,i,1,0.8424,0,6,6,30,1,,
,,,,,,,,,,,,,,1,001,2025-01-03_00h04.05.411,IAT(Formal),2021.2.3,Win32,166.6666667,,,,,,,,,,,,,,,,,,,,,,,,,,,,,,,,,,,,,,,,,,,,,,,,,,,,冷静,e,,,e,1,0.6762,0,7,7,26,1,,
,,,,,,,,,,,,,,1,001,2025-01-03_00h04.05.411,IAT(Formal),2021.2.3,Win32,166.6666667,,,,,,,,,,,,,,,,,,,,,,,,,,,,,,,,,,,,,,,,,,,,,,,,,,,,消极,i,,,e,0,1.4006,0,8,8,35,1,,
,,,,,,,,,,,,,,1,001,2025-01-03_00h04.05.411,IAT(Formal),2021.2.3,Win32,166.6666667,,,,,,,,,,,,,,,,,,,,,,,,,,,,,,,,,,,,,,,,,,,,,,,,,,,,我的,i,,,i,1,0.8791,0,9,9,51,1,,
,,,,,,,,,,,,,,1,001,2025-01-03_00h04.05.411,IAT(Formal),2021.2.3,Win32,166.6666667,,,,,,,,,,,,,,,,,,,,,,,,,,,,,,,,,,,,,,,,,,,,,,,,,,,,虚伪,i,,,i,1,1.0606,0,10,10,31,1,,
,,,,,,,,,,,,,,1,001,2025-01-03_00h04.05.411,IAT(Formal),2021.2.3,Win32,166.6666667,,,,,,,,,,,,,,,,,,,,,,,,,,,,,,,,,,,,,,,,,,,,,,,,,,,,诚恳,e,,,e,1,0.6538,0,11,11,29,1,,
,,,,,,,,,,,,,,1,001,2025-01-03_00h04.05.411,IAT(Formal),2021.2.3,Win32,166.6666667,,,,,,,,,,,,,,,,,,,,,,,,,,,,,,,,,,,,,,,,,,,,,,,,,,,,散漫,i,,,,0,,0,12,12,41,1,,
,,,,,,,,,,,,,,1,001,2025-01-03_00h04.05.411,IAT(Formal),2021.2.3,Win32,166.6666667,,,,,,,,,,,,,,,,,,,,,,,,,,,,,,,,,,,,,,,,,,,,,,,,,,,,猖狂,i,,,i,1,0.6019,0,13,13,45,1,,
,,,,,,,,,,,,,,1,001,2025-01-03_00h04.05.411,IAT(Formal),2021.2.3,Win32,166.6666667,,,,,,,,,,,,,,,,,,,,,,,,,,,,,,,,,,,,,,,,,,,,,,,,,,,,野蛮,i,,,i,1,0.5763,0,14,14,46,1,,
,,,,,,,,,,,,,,1,001,2025-01-03_00h04.05.411,IAT(Formal),2021.2.3,Win32,166.6666667,,,,,,,,,,,,,,,,,,,,,,,,,,,,,,,,,,,,,,,,,,,,,,,,,,,,悲观,i,,,i,1,0.552,0,15,15,34,1,,
,,,,,,,,,,,,,,1,001,2025-01-03_00h04.05.411,IAT(Formal),2021.2.3,Win32,166.6666667,,,,,,,,,,,,,,,,,,,,,,,,,,,,,,,,,,,,,,,,,,,,,,,,,,,,他的,e,,,i,0,0.757,0,16,16,7,1,,
,,,,,,,,,,,,,,1,001,2025-01-03_00h04.05.411,IAT(Formal),2021.2.3,Win32,166.6666667,,,,,,,,,,,,,,,,,,,,,,,,,,,,,,,,,,,,,,,,,,,,,,,,,,,,他们,e,,,e,1,0.5076,0,17,17,66,1,,
,,,,,,,,,,,,,,1,001,2025-01-03_00h04.05.411,IAT(Formal),2021.2.3,Win32,166.6666667,,,,,,,,,,,,,,,,,,,,,,,,,,,,,,,,,,,,,,,,,,,,,,,,,,,,他的,e,,,e,1,0.6297,0,18,18,57,1,,
,,,,,,,,,,,,,,1,001,2025-01-03_00h04.05.411,IAT(Formal),2021.2.3,Win32,166.6666667,,,,,,,,,,,,,,,,,,,,,,,,,,,,,,,,,,,,,,,,,,,,,,,,,,,,他,e,,,e,1,0.5879,0,19,19,55,1,,
,,,,,,,,,,,,,,1,001,2025-01-03_00h04.05.411,IAT(Formal),2021.2.3,Win32,166.6666667,,,,,,,,,,,,,,,,,,,,,,,,,,,,,,,,,,,,,,,,,,,,,,,,,,,,他们,e,,,e,1,0.5549,0,20,20,6,1,,
,,,,,,,,,,,,,,1,001,2025-01-03_00h04.05.411,IAT(Formal),2021.2.3,Win32,166.6666667,,,,,,,,,,,,,,,,,,,,,,,,,,,,,,,,,,,,,,,,,,,,,,,,,,,,勇敢,e,,,e,1,0.5759,0,21,21,17,1,,
,,,,,,,,,,,,,,1,001,2025-01-03_00h04.05.411,IAT(Formal),2021.2.3,Win32,166.6666667,,,,,,,,,,,,,,,,,,,,,,,,,,,,,,,,,,,,,,,,,,,,,,,,,,,,他,e,,,e,1,0.467,0,22,22,75,1,,
,,,,,,,,,,,,,,1,001,2025-01-03_00h04.05.411,IAT(Formal),2021.2.3,Win32,166.6666667,,,,,,,,,,,,,,,,,,,,,,,,,,,,,,,,,,,,,,,,,,,,,,,,,,,,乐观,e,,,e,1,0.8065,0,23,23,14,1,,
,,,,,,,,,,,,,,1,001,2025-01-03_00h04.05.411,IAT(Formal),2021.2.3,Win32,166.6666667,,,,,,,,,,,,,,,,,,,,,,,,,,,,,,,,,,,,,,,,,,,,,,,,,,,,冒失,i,,,,0,,0,24,24,39,1,,
,,,,,,,,,,,,,,1,001,2025-01-03_00h04.05.411,IAT(Formal),2021.2.3,Win32,166.6666667,,,,,,,,,,,,,,,,,,,,,,,,,,,,,,,,,,,,,,,,,,,,,,,,,,,,自己,i,,,e,0,0.4662,0,25,25,63,1,,
,,,,,,,,,,,,,,1,001,2025-01-03_00h04.05.411,IAT(Formal),2021.2.3,Win32,166.6666667,,,,,,,,,,,,,,,,,,,,,,,,,,,,,,,,,,,,,,,,,,,,,,,,,,,,杰出,e,,,e,1,0.6729,0,26,26,13,1,,
,,,,,,,,,,,,,,1,001,2025-01-03_00h04.05.411,IAT(Formal),2021.2.3,Win32,166.6666667,,,,,,,,,,,,,,,,,,,,,,,,,,,,,,,,,,,,,,,,,,,,,,,,,,,,他们,e,,,e,1,0.6602,0,27,27,76,1,,
,,,,,,,,,,,,,,1,001,2025-01-03_00h04.05.411,IAT(Formal),2021.2.3,Win32,166.6666667,,,,,,,,,,,,,,,,,,,,,,,,,,,,,,,,,,,,,,,,,,,,,,,,,,,,他,e,,,e,1,0.5034,0,28,28,5,1,,
,,,,,,,,,,,,,,1,001,2025-01-03_00h04.05.411,IAT(Formal),2021.2.3,Win32,166.6666667,,,,,,,,,,,,,,,,,,,,,,,,,,,,,,,,,,,,,,,,,,,,,,,,,,,,公正,e,,,e,1,0.6128,0,29,29,23,1,,
,,,,,,,,,,,,,,1,001,2025-01-03_00h04.05.411,IAT(Formal),2021.2.3,Win32,166.6666667,,,,,,,,,,,,,,,,,,,,,,,,,,,,,,,,,,,,,,,,,,,,,,,,,,,,朴实,e,,,e,1,0.5642,0,30,30,24,1,,
,,,,,,,,,,,,,,1,001,2025-01-03_00h04.05.411,IAT(Formal),2021.2.3,Win32,166.6666667,,,,,,,,,,,,,,,,,,,,,,,,,,,,,,,,,,,,,,,,,,,,,,,,,,,,他,e,,,e,1,0.6878,0,31,31,65,1,,
,,,,,,,,,,,,,,1,001,2025-01-03_00h04.05.411,IAT(Formal),2021.2.3,Win32,166.6666667,,,,,,,,,,,,,,,,,,,,,,,,,,,,,,,,,,,,,,,,,,,,,,,,,,,,我们,i,,,i,1,0.5168,0,32,32,72,1,,
,,,,,,,,,,,,,,1,001,2025-01-03_00h04.05.411,IAT(Formal),2021.2.3,Win32,166.6666667,,,,,,,,,,,,,,,,,,,,,,,,,,,,,,,,,,,,,,,,,,,,,,,,,,,,愚蠢,i,,,i,1,0.6185,0,33,33,32,1,,
,,,,,,,,,,,,,,1,001,2025-01-03_00h04.05.411,IAT(Formal),2021.2.3,Win32,166.6666667,,,,,,,,,,,,,,,,,,,,,,,,,,,,,,,,,,,,,,,,,,,,,,,,,,,,自卑,i,,,i,1,0.6372,0,34,34,36,1,,
,,,,,,,,,,,,,,1,001,2025-01-03_00h04.05.411,IAT(Formal),2021.2.3,Win32,166.6666667,,,,,,,,,,,,,,,,,,,,,,,,,,,,,,,,,,,,,,,,,,,,,,,,,,,,他们,e,,,e,1,1.1431,0,35,35,56,1,,
,,,,,,,,,,,,,,1,001,2025-01-03_00h04.05.411,IAT(Formal),2021.2.3,Win32,166.6666667,,,,,,,,,,,,,,,,,,,,,,,,,,,,,,,,,,,,,,,,,,,,,,,,,,,,正直,e,,,,0,,0,36,36,16,1,,
,,,,,,,,,,,,,,1,001,2025-01-03_00h04.05.411,IAT(Formal),2021.2.3,Win32,166.6666667,,,,,,,,,,,,,,,,,,,,,,,,,,,,,,,,,,,,,,,,,,,,,,,,,,,,细腻,e,,,e,1,0.601,0,37,37,25,1,,
,,,,,,,,,,,,,,1,001,2025-01-03_00h04.05.411,IAT(Formal),2021.2.3,Win32,166.6666667,,,,,,,,,,,,,,,,,,,,,,,,,,,,,,,,,,,,,,,,,,,,,,,,,,,,执拗,i,,,i,1,1.1152,0,38,38,40,1,,
,,,,,,,,,,,,,,1,001,2025-01-03_00h04.05.411,IAT(Formal),2021.2.3,Win32,166.6666667,,,,,,,,,,,,,,,,,,,,,,,,,,,,,,,,,,,,,,,,,,,,,,,,,,,,其他,e,,,i,0,0.5527,0,39,39,9,1,,
,,,,,,,,,,,,,,1,001,2025-01-03_00h04.05.411,IAT(Formal),2021.2.3,Win32,166.6666667,,,,,,,,,,,,,,,,,,,,,,,,,,,,,,,,,,,,,,,,,,,,,,,,,,,,鲁莽,i,,,,0,,0,40,40,38,1,,
,,,,,,,,,,,,,,1,001,2025-01-03_00h04.05.411,IAT(Formal),2021.2.3,Win32,166.6666667,,,,,,,,,,,,,,,,,,,,,,,,,,,,,,,,,,,,,,,,,,,,,,,,,,,,无私,e,,,e,1,0.7509,0,41,41,22,1,,
,,,,,,,,,,,,,,1,001,2025-01-03_00h04.05.411,IAT(Formal),2021.2.3,Win32,166.6666667,,,,,,,,,,,,,,,,,,,,,,,,,,,,,,,,,,,,,,,,,,,,,,,,,,,,我,i,,,,0,,0,42,42,70,1,,
,,,,,,,,,,,,,,1,001,2025-01-03_00h04.05.411,IAT(Formal),2021.2.3,Win32,166.6666667,,,,,,,,,,,,,,,,,,,,,,,,,,,,,,,,,,,,,,,,,,,,,,,,,,,,其他,e,,,e,1,0.7525,0,43,43,79,1,,
,,,,,,,,,,,,,,1,001,2025-01-03_00h04.05.411,IAT(Formal),2021.2.3,Win32,166.6666667,,,,,,,,,,,,,,,,,,,,,,,,,,,,,,,,,,,,,,,,,,,,,,,,,,,,热情,e,,,e,1,0.6356,0,44,44,27,1,,
,,,,,,,,,,,,,,1,001,2025-01-03_00h04.05.411,IAT(Formal),2021.2.3,Win32,166.6666667,,,,,,,,,,,,,,,,,,,,,,,,,,,,,,,,,,,,,,,,,,,,,,,,,,,,我们,i,,,i,1,0.9205,0,45,45,52,1,,
,,,,,,,,,,,,,,1,001,2025-01-03_00h04.05.411,IAT(Formal),2021.2.3,Win32,166.6666667,,,,,,,,,,,,,,,,,,,,,,,,,,,,,,,,,,,,,,,,,,,,,,,,,,,,崇高,e,,,e,1,0.5699,0,46,46,11,1,,
,,,,,,,,,,,,,,1,001,2025-01-03_00h04.05.411,IAT(Formal),2021.2.3,Win32,166.6666667,,,,,,,,,,,,,,,,,,,,,,,,,,,,,,,,,,,,,,,,,,,,,,,,,,,,他人,e,,,e,1,0.8363,0,47,47,58,1,,
,,,,,,,,,,,,,,1,001,2025-01-03_00h04.05.411,IAT(Formal),2021.2.3,Win32,166.6666667,,,,,,,,,,,,,,,,,,,,,,,,,,,,,,,,,,,,,,,,,,,,,,,,,,,,稳重,e,,,e,1,0.6,0,48,48,21,1,,
,,,,,,,,,,,,,,1,001,2025-01-03_00h04.05.411,IAT(Formal),2021.2.3,Win32,166.6666667,,,,,,,,,,,,,,,,,,,,,,,,,,,,,,,,,,,,,,,,,,,,,,,,,,,,自己,i,,,i,1,0.5829,0,49,49,53,1,,
,,,,,,,,,,,,,,1,001,2025-01-03_00h04.05.411,IAT(Formal),2021.2.3,Win32,166.6666667,,,,,,,,,,,,,,,,,,,,,,,,,,,,,,,,,,,,,,,,,,,,,,,,,,,,暴躁,i,,,e,0,0.6006,0,50,50,44,1,,
,,,,,,,,,,,,,,1,001,2025-01-03_00h04.05.411,IAT(Formal),2021.2.3,Win32,166.6666667,,,,,,,,,,,,,,,,,,,,,,,,,,,,,,,,,,,,,,,,,,,,,,,,,,,,俺,i,,,i,1,0.7522,0,51,51,64,1,,
,,,,,,,,,,,,,,1,001,2025-01-03_00h04.05.411,IAT(Formal),2021.2.3,Win32,166.6666667,,,,,,,,,,,,,,,,,,,,,,,,,,,,,,,,,,,,,,,,,,,,,,,,,,,,他的,e,,,e,1,0.6474,0,52,52,77,1,,
,,,,,,,,,,,,,,1,001,2025-01-03_00h04.05.411,IAT(Formal),2021.2.3,Win32,166.6666667,,,,,,,,,,,,,,,,,,,,,,,,,,,,,,,,,,,,,,,,,,,,,,,,,,,,俺,i,,,i,1,0.6548,0,53,53,74,1,,
,,,,,,,,,,,,,,1,001,2025-01-03_00h04.05.411,IAT(Formal),2021.2.3,Win32,166.6666667,,,,,,,,,,,,,,,,,,,,,,,,,,,,,,,,,,,,,,,,,,,,,,,,,,,,他人,e,,,e,1,0.5707,0,54,54,8,1,,
,,,,,,,,,,,,,,1,001,2025-01-03_00h04.05.411,IAT(Formal),2021.2.3,Win32,166.6666667,,,,,,,,,,,,,,,,,,,,,,,,,,,,,,,,,,,,,,,,,,,,,,,,,,,,下贱,i,,,i,1,0.5278,0,55,55,49,1,,
,,,,,,,,,,,,,,1,001,2025-01-03_00h04.05.411,IAT(Formal),2021.2.3,Win32,166.6666667,,,,,,,,,,,,,,,,,,,,,,,,,,,,,,,,,,,,,,,,,,,,,,,,,,,,俺,i,,,i,1,0.7365,0,56,56,4,1,,
,,,,,,,,,,,,,,1,001,2025-01-03_00h04.05.411,IAT(Formal),2021.2.3,Win32,166.6666667,,,,,,,,,,,,,,,,,,,,,,,,,,,,,,,,,,,,,,,,,,,,,,,,,,,,自私,i,,,i,1,0.5281,0,57,57,43,1,,
,,,,,,,,,,,,,,1,001,2025-01-03_00h04.05.411,IAT(Formal),2021.2.3,Win32,166.6666667,,,,,,,,,,,,,,,,,,,,,,,,,,,,,,,,,,,,,,,,,,,,,,,,,,,,我的,i,,,i,1,0.5209,0,58,58,71,1,,
,,,,,,,,,,,,,,1,001,2025-01-03_00h04.05.411,IAT(Formal),2021.2.3,Win32,166.6666667,,,,,,,,,,,,,,,,,,,,,,,,,,,,,,,,,,,,,,,,,,,,,,,,,,,,固执,i,,,i,1,0.5935,0,59,59,47,1,,
,,,,,,,,,,,,,,1,001,2025-01-03_00h04.05.411,IAT(Formal),2021.2.3,Win32,166.6666667,,,,,,,,,,,,,,,,,,,,,,,,,,,,,,,,,,,,,,,,,,,,,,,,,,,,优秀,e,,,e,1,0.8613,0,60,60,10,1,,
,,,,,,,,,,,,,,1,001,2025-01-03_00h04.05.411,IAT(Formal),2021.2.3,Win32,166.6666667,,,,,,,,,,,,,,,,,,,,,,,,,,,,,,,,,,,,,,,,,,,,,,,,,,,,认真,e,,,e,1,0.595,0,61,61,20,1,,
,,,,,,,,,,,,,,1,001,2025-01-03_00h04.05.411,IAT(Formal),2021.2.3,Win32,166.6666667,,,,,,,,,,,,,,,,,,,,,,,,,,,,,,,,,,,,,,,,,,,,,,,,,,,,俺,i,,,i,1,0.7721,0,62,62,54,1,,
,,,,,,,,,,,,,,1,001,2025-01-03_00h04.05.411,IAT(Formal),2021.2.3,Win32,166.6666667,,,,,,,,,,,,,,,,,,,,,,,,,,,,,,,,,,,,,,,,,,,,,,,,,,,,诚实,e,,,e,1,0.5553,0,63,63,15,1,,
,,,,,,,,,,,,,,1,001,2025-01-03_00h04.05.411,IAT(Formal),2021.2.3,Win32,166.6666667,,,,,,,,,,,,,,,,,,,,,,,,,,,,,,,,,,,,,,,,,,,,,,,,,,,,傲慢,i,,,i,1,0.5339,0,64,64,37,1,,
,,,,,,,,,,,,,,1,001,2025-01-03_00h04.05.411,IAT(Formal),2021.2.3,Win32,166.6666667,,,,,,,,,,,,,,,,,,,,,,,,,,,,,,,,,,,,,,,,,,,,,,,,,,,,勤奋,e,,,e,1,0.6928,0,65,65,18,1,,
,,,,,,,,,,,,,,1,001,2025-01-03_00h04.05.411,IAT(Formal),2021.2.3,Win32,166.6666667,,,,,,,,,,,,,,,,,,,,,,,,,,,,,,,,,,,,,,,,,,,,,,,,,,,,他的,e,,,e,1,0.8396,0,66,66,67,1,,
,,,,,,,,,,,,,,1,001,2025-01-03_00h04.05.411,IAT(Formal),2021.2.3,Win32,166.6666667,,,,,,,,,,,,,,,,,,,,,,,,,,,,,,,,,,,,,,,,,,,,,,,,,,,,聪明,e,,,e,1,0.8299,0,67,67,12,1,,
,,,,,,,,,,,,,,1,001,2025-01-03_00h04.05.411,IAT(Formal),2021.2.3,Win32,166.6666667,,,,,,,,,,,,,,,,,,,,,,,,,,,,,,,,,,,,,,,,,,,,,,,,,,,,我,i,,,i,1,0.8376,0,68,68,50,1,,
,,,,,,,,,,,,,,1,001,2025-01-03_00h04.05.411,IAT(Formal),2021.2.3,Win32,166.6666667,,,,,,,,,,,,,,,,,,,,,,,,,,,,,,,,,,,,,,,,,,,,,,,,,,,,其他,e,,,e,1,0.6876,0,69,69,69,1,,
,,,,,,,,,,,,,,1,001,2025-01-03_00h04.05.411,IAT(Formal),2021.2.3,Win32,166.6666667,,,,,,,,,,,,,,,,,,,,,,,,,,,,,,,,,,,,,,,,,,,,,,,,,,,,我的,i,,,i,1,0.6549,0,70,70,1,1,,
,,,,,,,,,,,,,,1,001,2025-01-03_00h04.05.411,IAT(Formal),2021.2.3,Win32,166.6666667,,,,,,,,,,,,,,,,,,,,,,,,,,,,,,,,,,,,,,,,,,,,,,,,,,,,轻率,i,,,e,0,0.7816,0,71,71,48,1,,
,,,,,,,,,,,,,,1,001,2025-01-03_00h04.05.411,IAT(Formal),2021.2.3,Win32,166.6666667,,,,,,,,,,,,,,,,,,,,,,,,,,,,,,,,,,,,,,,,,,,,,,,,,,,,我们,i,,,i,1,0.8856,0,72,72,62,1,,
,,,,,,,,,,,,,,1,001,2025-01-03_00h04.05.411,IAT(Formal),2021.2.3,Win32,166.6666667,,,,,,,,,,,,,,,,,,,,,,,,,,,,,,,,,,,,,,,,,,,,,,,,,,,,凶狠,i,,,i,1,1.3409,0,73,73,42,1,,
,,,,,,,,,,,,,,1,001,2025-01-03_00h04.05.411,IAT(Formal),2021.2.3,Win32,166.6666667,,,,,,,,,,,,,,,,,,,,,,,,,,,,,,,,,,,,,,,,,,,,,,,,,,,,刻薄,i,,,i,1,0.5456,0,74,74,33,1,,
,,,,,,,,,,,,,,1,001,2025-01-03_00h04.05.411,IAT(Formal),2021.2.3,Win32,166.6666667,,,,,,,,,,,,,,,,,,,,,,,,,,,,,,,,,,,,,,,,,,,,,,,,,,,,我们,i,,,i,1,0.678,0,75,75,2,1,,
,,,,,,,,,,,,,,1,001,2025-01-03_00h04.05.411,IAT(Formal),2021.2.3,Win32,166.6666667,,,,,,,,,,,,,,,,,,,,,,,,,,,,,,,,,,,,,,,,,,,,,,,,,,,,我,i,,,i,1,1.128,0,76,76,0,1,,
,,,,,,,,,,,,,,1,001,2025-01-03_00h04.05.411,IAT(Formal),2021.2.3,Win32,166.6666667,,,,,,,,,,,,,,,,,,,,,,,,,,,,,,,,,,,,,,,,,,,,,,,,,,,,自己,i,,,i,1,0.5943,0,77,77,3,1,,
,,,,,,,,,,,,,,1,001,2025-01-03_00h04.05.411,IAT(Formal),2021.2.3,Win32,166.6666667,,,,,,,,,,,,,,,,,,,,,,,,,,,,,,,,,,,,,,,,,,,,,,,,,,,,活泼,e,,,e,1,0.9034,0,78,78,28,1,,
,,,,,,,,,,,,,,1,001,2025-01-03_00h04.05.411,IAT(Formal),2021.2.3,Win32,166.6666667,,,,,,,,,,,,,,,,,,,,,,,,,,,,,,,,,,,,,,,,,,,,,,,,,,,,他人,e,,,i,0,0.6909,0,79,79,78,1,,
,,,,,,,,,,,,,,1,001,2025-01-03_00h04.05.411,IAT(Formal),2021.2.3,Win32,166.6666667,,,,,,,,,,,,,,,,,,,,,,,,,,,,,,,,,,,,,,,,,,,,,,,,,,,,崇高,e,,,e,1,0.6247,1,0,80,11,1,,
,,,,,,,,,,,,,,1,001,2025-01-03_00h04.05.411,IAT(Formal),2021.2.3,Win32,166.6666667,,,,,,,,,,,,,,,,,,,,,,,,,,,,,,,,,,,,,,,,,,,,,,,,,,,,虚伪,i,,,i,1,0.6247,1,1,81,31,1,,
,,,,,,,,,,,,,,1,001,2025-01-03_00h04.05.411,IAT(Formal),2021.2.3,Win32,166.6666667,,,,,,,,,,,,,,,,,,,,,,,,,,,,,,,,,,,,,,,,,,,,,,,,,,,,诚实,e,,,e,1,0.6123,1,2,82,15,1,,
,,,,,,,,,,,,,,1,001,2025-01-03_00h04.05.411,IAT(Formal),2021.2.3,Win32,166.6666667,,,,,,,,,,,,,,,,,,,,,,,,,,,,,,,,,,,,,,,,,,,,,,,,,,,,俺,i,,,i,1,0.5594,1,3,83,74,1,,
,,,,,,,,,,,,,,1,001,2025-01-03_00h04.05.411,IAT(Formal),2021.2.3,Win32,166.6666667,,,,,,,,,,,,,,,,,,,,,,,,,,,,,,,,,,,,,,,,,,,,,,,,,,,,自己,i,,,i,1,1.1766,1,4,84,73,1,,
,,,,,,,,,,,,,,1,001,2025-01-03_00h04.05.411,IAT(Formal),2021.2.3,Win32,166.6666667,,,,,,,,,,,,,,,,,,,,,,,,,,,,,,,,,,,,,,,,,,,,,,,,,,,,他们,e,,,,0,,1,5,85,56,1,,
,,,,,,,,,,,,,,1,001,2025-01-03_00h04.05.411,IAT(Formal),2021.2.3,Win32,166.6666667,,,,,,,,,,,,,,,,,,,,,,,,,,,,,,,,,,,,,,,,,,,,,,,,,,,,我,i,,,,0,,1,6,86,60,1,,
,,,,,,,,,,,,,,1,001,2025-01-03_00h04.05.411,IAT(Formal),2021.2.3,Win32,166.6666667,,,,,,,,,,,,,,,,,,,,,,,,,,,,,,,,,,,,,,,,,,,,,,,,,,,,他的,e,,,e,1,0.6227,1,7,87,77,1,,
,,,,,,,,,,,,,,1,001,2025-01-03_00h04.05.411,IAT(Formal),2021.2.3,Win32,166.6666667,,,,,,,,,,,,,,,,,,,,,,,,,,,,,,,,,,,,,,,,,,,,,,,,,,,,乐观,e,,,e,1,0.8308,1,8,88,14,1,,
,,,,,,,,,,,,,,1,001,2025-01-03_00h04.05.411,IAT(Formal),2021.2.3,Win32,166.6666667,,,,,,,,,,,,,,,,,,,,,,,,,,,,,,,,,,,,,,,,,,,,,,,,,,,,我们,i,,,i,1,0.7154,1,9,89,2,1,,
,,,,,,,,,,,,,,1,001,2025-01-03_00h04.05.411,IAT(Formal),2021.2.3,Win32,166.6666667,,,,,,,,,,,,,,,,,,,,,,,,,,,,,,,,,,,,,,,,,,,,,,,,,,,,细腻,e,,,e,1,0.6487,1,10,90,25,1,,
,,,,,,,,,,,,,,1,001,2025-01-03_00h04.05.411,IAT(Formal),2021.2.3,Win32,166.6666667,,,,,,,,,,,,,,,,,,,,,,,,,,,,,,,,,,,,,,,,,,,,,,,,,,,,诚恳,e,,,e,1,0.6839,1,11,91,29,1,,
,,,,,,,,,,,,,,1,001,2025-01-03_00h04.05.411,IAT(Formal),2021.2.3,Win32,166.6666667,,,,,,,,,,,,,,,,,,,,,,,,,,,,,,,,,,,,,,,,,,,,,,,,,,,,他,e,,,i,0,1.1458,1,12,92,75,1,,
,,,,,,,,,,,,,,1,001,2025-01-03_00h04.05.411,IAT(Formal),2021.2.3,Win32,166.6666667,,,,,,,,,,,,,,,,,,,,,,,,,,,,,,,,,,,,,,,,,,,,,,,,,,,,猖狂,i,,,i,1,0.8961,1,13,93,45,1,,
,,,,,,,,,,,,,,1,001,2025-01-03_00h04.05.411,IAT(Formal),2021.2.3,Win32,166.6666667,,,,,,,,,,,,,,,,,,,,,,,,,,,,,,,,,,,,,,,,,,,,,,,,,,,,自己,i,,,i,1,0.6302,1,14,94,63,1,,
,,,,,,,,,,,,,,1,001,2025-01-03_00h04.05.411,IAT(Formal),2021.2.3,Win32,166.6666667,,,,,,,,,,,,,,,,,,,,,,,,,,,,,,,,,,,,,,,,,,,,,,,,,,,,我的,i,,,i,1,0.7701,1,15,95,71,1,,
,,,,,,,,,,,,,,1,001,2025-01-03_00h04.05.411,IAT(Formal),2021.2.3,Win32,166.6666667,,,,,,,,,,,,,,,,,,,,,,,,,,,,,,,,,,,,,,,,,,,,,,,,,,,,傲慢,i,,,i,1,0.5453,1,16,96,37,1,,
,,,,,,,,,,,,,,1,001,2025-01-03_00h04.05.411,IAT(Formal),2021.2.3,Win32,166.6666667,,,,,,,,,,,,,,,,,,,,,,,,,,,,,,,,,,,,,,,,,,,,,,,,,,,,自卑,i,,,i,1,0.8772,1,17,97,36,1,,
,,,,,,,,,,,,,,1,001,2025-01-03_00h04.05.411,IAT(Formal),2021.2.3,Win32,166.6666667,,,,,,,,,,,,,,,,,,,,,,,,,,,,,,,,,,,,,,,,,,,,,,,,,,,,鲁莽,i,,,i,1,0.5106,1,18,98,38,1,,
,,,,,,,,,,,,,,1,001,2025-01-03_00h04.05.411,IAT(Formal),2021.2.3,Win32,166.6666667,,,,,,,,,,,,,,,,,,,,,,,,,,,,,,,,,,,,,,,,,,,,,,,,,,,,愚蠢,i,,,i,1,0.5385,1,19,99,32,1,,
,,,,,,,,,,,,,,1,001,2025-01-03_00h04.05.411,IAT(Formal),2021.2.3,Win32,166.6666667,,,,,,,,,,,,,,,,,,,,,,,,,,,,,,,,,,,,,,,,,,,,,,,,,,,,勤奋,e,,,e,1,0.6729,1,20,100,18,1,,
,,,,,,,,,,,,,,1,001,2025-01-03_00h04.05.411,IAT(Formal),2021.2.3,Win32,166.6666667,,,,,,,,,,,,,,,,,,,,,,,,,,,,,,,,,,,,,,,,,,,,,,,,,,,,刻薄,i,,,i,1,0.5515,1,21,101,33,1,,
,,,,,,,,,,,,,,1,001,2025-01-03_00h04.05.411,IAT(Formal),2021.2.3,Win32,166.6666667,,,,,,,,,,,,,,,,,,,,,,,,,,,,,,,,,,,,,,,,,,,,,,,,,,,,朴实,e,,,e,1,0.6899,1,22,102,24,1,,
,,,,,,,,,,,,,,1,001,2025-01-03_00h04.05.411,IAT(Formal),2021.2.3,Win32,166.6666667,,,,,,,,,,,,,,,,,,,,,,,,,,,,,,,,,,,,,,,,,,,,,,,,,,,,稳重,e,,,e,1,0.5547,1,23,103,21,1,,
,,,,,,,,,,,,,,1,001,2025-01-03_00h04.05.411,IAT(Formal),2021.2.3,Win32,166.6666667,,,,,,,,,,,,,,,,,,,,,,,,,,,,,,,,,,,,,,,,,,,,,,,,,,,,暴躁,i,,,i,1,0.5286,1,24,104,44,1,,
,,,,,,,,,,,,,,1,001,2025-01-03_00h04.05.411,IAT(Formal),2021.2.3,Win32,166.6666667,,,,,,,,,,,,,,,,,,,,,,,,,,,,,,,,,,,,,,,,,,,,,,,,,,,,公正,e,,,e,1,0.6669,1,25,105,23,1,,
,,,,,,,,,,,,,,1,001,2025-01-03_00h04.05.411,IAT(Formal),2021.2.3,Win32,166.6666667,,,,,,,,,,,,,,,,,,,,,,,,,,,,,,,,,,,,,,,,,,,,,,,,,,,,他人,e,,,e,1,0.6268,1,26,106,68,1,,
,,,,,,,,,,,,,,1,001,2025-01-03_00h04.05.411,IAT(Formal),2021.2.3,Win32,166.6666667,,,,,,,,,,,,,,,,,,,,,,,,,,,,,,,,,,,,,,,,,,,,,,,,,,,,我,i,,,i,1,1.0139,1,27,107,50,1,,
,,,,,,,,,,,,,,1,001,2025-01-03_00h04.05.411,IAT(Formal),2021.2.3,Win32,166.6666667,,,,,,,,,,,,,,,,,,,,,,,,,,,,,,,,,,,,,,,,,,,,,,,,,,,,热情,e,,,e,1,1.394,1,28,108,27,1,,
,,,,,,,,,,,,,,1,001,2025-01-03_00h04.05.411,IAT(Formal),2021.2.3,Win32,166.6666667,,,,,,,,,,,,,,,,,,,,,,,,,,,,,,,,,,,,,,,,,,,,,,,,,,,,他们,e,,,i,0,0.6485,1,29,109,66,1,,
,,,,,,,,,,,,,,1,001,2025-01-03_00h04.05.411,IAT(Formal),2021.2.3,Win32,166.6666667,,,,,,,,,,,,,,,,,,,,,,,,,,,,,,,,,,,,,,,,,,,,,,,,,,,,其他,e,,,e,1,0.7965,1,30,110,79,1,,
,,,,,,,,,,,,,,1,001,2025-01-03_00h04.05.411,IAT(Formal),2021.2.3,Win32,166.6666667,,,,,,,,,,,,,,,,,,,,,,,,,,,,,,,,,,,,,,,,,,,,,,,,,,,,固执,i,,,i,1,1.2885,1,31,111,47,1,,
,,,,,,,,,,,,,,1,001,2025-01-03_00h04.05.411,IAT(Formal),2021.2.3,Win32,166.6666667,,,,,,,,,,,,,,,,,,,,,,,,,,,,,,,,,,,,,,,,,,,,,,,,,,,,他们,e,,,e,1,1.4528,1,32,112,76,1,,
,,,,,,,,,,,,,,1,001,2025-01-03_00h04.05.411,IAT(Formal),2021.2.3,Win32,166.6666667,,,,,,,,,,,,,,,,,,,,,,,,,,,,,,,,,,,,,,,,,,,,,,,,,,,,我们,i,,,i,1,0.6375,1,33,113,52,1,,
,,,,,,,,,,,,,,1,001,2025-01-03_00h04.05.411,IAT(Formal),2021.2.3,Win32,166.6666667,,,,,,,,,,,,,,,,,,,,,,,,,,,,,,,,,,,,,,,,,,,,,,,,,,,,冷静,e,,,e,1,0.9657,1,34,114,26,1,,
,,,,,,,,,,,,,,1,001,2025-01-03_00h04.05.411,IAT(Formal),2021.2.3,Win32,166.6666667,,,,,,,,,,,,,,,,,,,,,,,,,,,,,,,,,,,,,,,,,,,,,,,,,,,,他,e,,,i,0,0.9292,1,35,115,55,1,,
,,,,,,,,,,,,,,1,001,2025-01-03_00h04.05.411,IAT(Formal),2021.2.3,Win32,166.6666667,,,,,,,,,,,,,,,,,,,,,,,,,,,,,,,,,,,,,,,,,,,,,,,,,,,,卑鄙,i,,,i,1,0.5973,1,36,116,30,1,,
,,,,,,,,,,,,,,1,001,2025-01-03_00h04.05.411,IAT(Formal),2021.2.3,Win32,166.6666667,,,,,,,,,,,,,,,,,,,,,,,,,,,,,,,,,,,,,,,,,,,,,,,,,,,,他人,e,,,e,1,1.1299,1,37,117,8,1,,
,,,,,,,,,,,,,,1,001,2025-01-03_00h04.05.411,IAT(Formal),2021.2.3,Win32,166.6666667,,,,,,,,,,,,,,,,,,,,,,,,,,,,,,,,,,,,,,,,,,,,,,,,,,,,勇敢,e,,,e,1,0.6379,1,38,118,17,1,,
,,,,,,,,,,,,,,1,001,2025-01-03_00h04.05.411,IAT(Formal),2021.2.3,Win32,166.6666667,,,,,,,,,,,,,,,,,,,,,,,,,,,,,,,,,,,,,,,,,,,,,,,,,,,,我,i,,,i,1,0.5734,1,39,119,70,1,,
,,,,,,,,,,,,,,1,001,2025-01-03_00h04.05.411,IAT(Formal),2021.2.3,Win32,166.6666667,,,,,,,,,,,,,,,,,,,,,,,,,,,,,,,,,,,,,,,,,,,,,,,,,,,,我的,i,,,i,1,1.4138,1,40,120,61,1,,
,,,,,,,,,,,,,,1,001,2025-01-03_00h04.05.411,IAT(Formal),2021.2.3,Win32,166.6666667,,,,,,,,,,,,,,,,,,,,,,,,,,,,,,,,,,,,,,,,,,,,,,,,,,,,野蛮,i,,,i,1,0.722,1,41,121,46,1,,
,,,,,,,,,,,,,,1,001,2025-01-03_00h04.05.411,IAT(Formal),2021.2.3,Win32,166.6666667,,,,,,,,,,,,,,,,,,,,,,,,,,,,,,,,,,,,,,,,,,,,,,,,,,,,自己,i,,,i,1,0.5989,1,42,122,53,1,,
,,,,,,,,,,,,,,1,001,2025-01-03_00h04.05.411,IAT(Formal),2021.2.3,Win32,166.6666667,,,,,,,,,,,,,,,,,,,,,,,,,,,,,,,,,,,,,,,,,,,,,,,,,,,,活泼,e,,,e,1,0.7206,1,43,123,28,1,,
,,,,,,,,,,,,,,1,001,2025-01-03_00h04.05.411,IAT(Formal),2021.2.3,Win32,166.6666667,,,,,,,,,,,,,,,,,,,,,,,,,,,,,,,,,,,,,,,,,,,,,,,,,,,,散漫,i,,,i,1,0.7524,1,44,124,41,1,,
,,,,,,,,,,,,,,1,001,2025-01-03_00h04.05.411,IAT(Formal),2021.2.3,Win32,166.6666667,,,,,,,,,,,,,,,,,,,,,,,,,,,,,,,,,,,,,,,,,,,,,,,,,,,,机智,e,,,e,1,0.6094,1,45,125,19,1,,
,,,,,,,,,,,,,,1,001,2025-01-03_00h04.05.411,IAT(Formal),2021.2.3,Win32,166.6666667,,,,,,,,,,,,,,,,,,,,,,,,,,,,,,,,,,,,,,,,,,,,,,,,,,,,正直,e,,,e,1,0.5571,1,46,126,16,1,,
,,,,,,,,,,,,,,1,001,2025-01-03_00h04.05.411,IAT(Formal),2021.2.3,Win32,166.6666667,,,,,,,,,,,,,,,,,,,,,,,,,,,,,,,,,,,,,,,,,,,,,,,,,,,,俺,i,,,i,1,0.6974,1,47,127,54,1,,
,,,,,,,,,,,,,,1,001,2025-01-03_00h04.05.411,IAT(Formal),2021.2.3,Win32,166.6666667,,,,,,,,,,,,,,,,,,,,,,,,,,,,,,,,,,,,,,,,,,,,,,,,,,,,我的,i,,,i,1,0.5816,1,48,128,1,1,,
,,,,,,,,,,,,,,1,001,2025-01-03_00h04.05.411,IAT(Formal),2021.2.3,Win32,166.6666667,,,,,,,,,,,,,,,,,,,,,,,,,,,,,,,,,,,,,,,,,,,,,,,,,,,,其他,e,,,i,0,0.5098,1,49,129,69,1,,
,,,,,,,,,,,,,,1,001,2025-01-03_00h04.05.411,IAT(Formal),2021.2.3,Win32,166.6666667,,,,,,,,,,,,,,,,,,,,,,,,,,,,,,,,,,,,,,,,,,,,,,,,,,,,他,e,,,e,1,0.8056,1,50,130,65,1,,
,,,,,,,,,,,,,,1,001,2025-01-03_00h04.05.411,IAT(Formal),2021.2.3,Win32,166.6666667,,,,,,,,,,,,,,,,,,,,,,,,,,,,,,,,,,,,,,,,,,,,,,,,,,,,优秀,e,,,e,1,0.6488,1,51,131,10,1,,
,,,,,,,,,,,,,,1,001,2025-01-03_00h04.05.411,IAT(Formal),2021.2.3,Win32,166.6666667,,,,,,,,,,,,,,,,,,,,,,,,,,,,,,,,,,,,,,,,,,,,,,,,,,,,他的,e,,,e,1,0.6603,1,52,132,67,1,,
,,,,,,,,,,,,,,1,001,2025-01-03_00h04.05.411,IAT(Formal),2021.2.3,Win32,166.6666667,,,,,,,,,,,,,,,,,,,,,,,,,,,,,,,,,,,,,,,,,,,,,,,,,,,,他人,e,,,e,1,0.4452,1,53,133,58,1,,
,,,,,,,,,,,,,,1,001,2025-01-03_00h04.05.411,IAT(Formal),2021.2.3,Win32,166.6666667,,,,,,,,,,,,,,,,,,,,,,,,,,,,,,,,,,,,,,,,,,,,,,,,,,,,聪明,e,,,e,1,1.1154,1,54,134,12,1,,
,,,,,,,,,,,,,,1,001,2025-01-03_00h04.05.411,IAT(Formal),2021.2.3,Win32,166.6666667,,,,,,,,,,,,,,,,,,,,,,,,,,,,,,,,,,,,,,,,,,,,,,,,,,,,冒失,i,,,i,1,0.6015,1,55,135,39,1,,
,,,,,,,,,,,,,,1,001,2025-01-03_00h04.05.411,IAT(Formal),2021.2.3,Win32,166.6666667,,,,,,,,,,,,,,,,,,,,,,,,,,,,,,,,,,,,,,,,,,,,,,,,,,,,他们,e,,,e,1,0.6918,1,56,136,6,1,,
,,,,,,,,,,,,,,1,001,2025-01-03_00h04.05.411,IAT(Formal),2021.2.3,Win32,166.6666667,,,,,,,,,,,,,,,,,,,,,,,,,,,,,,,,,,,,,,,,,,,,,,,,,,,,我们,i,,,i,1,0.5958,1,57,137,72,1,,
,,,,,,,,,,,,,,1,001,2025-01-03_00h04.05.411,IAT(Formal),2021.2.3,Win32,166.6666667,,,,,,,,,,,,,,,,,,,,,,,,,,,,,,,,,,,,,,,,,,,,,,,,,,,,我,i,,,i,1,0.486,1,58,138,0,1,,
,,,,,,,,,,,,,,1,001,2025-01-03_00h04.05.411,IAT(Formal),2021.2.3,Win32,166.6666667,,,,,,,,,,,,,,,,,,,,,,,,,,,,,,,,,,,,,,,,,,,,,,,,,,,,自私,i,,,i,1,0.6687,1,59,139,43,1,,
,,,,,,,,,,,,,,1,001,2025-01-03_00h04.05.411,IAT(Formal),2021.2.3,Win32,166.6666667,,,,,,,,,,,,,,,,,,,,,,,,,,,,,,,,,,,,,,,,,,,,,,,,,,,,认真,e,,,i,0,0.9516,1,60,140,20,1,,
,,,,,,,,,,,,,,1,001,2025-01-03_00h04.05.411,IAT(Formal),2021.2.3,Win32,166.6666667,,,,,,,,,,,,,,,,,,,,,,,,,,,,,,,,,,,,,,,,,,,,,,,,,,,,其他,e,,,e,1,0.7646,1,61,141,9,1,,
,,,,,,,,,,,,,,1,001,2025-01-03_00h04.05.411,IAT(Formal),2021.2.3,Win32,166.6666667,,,,,,,,,,,,,,,,,,,,,,,,,,,,,,,,,,,,,,,,,,,,,,,,,,,,无私,e,,,i,0,0.5464,1,62,142,22,1,,
,,,,,,,,,,,,,,1,001,2025-01-03_00h04.05.411,IAT(Formal),2021.2.3,Win32,166.6666667,,,,,,,,,,,,,,,,,,,,,,,,,,,,,,,,,,,,,,,,,,,,,,,,,,,,杰出,e,,,e,1,0.6079,1,63,143,13,1,,
,,,,,,,,,,,,,,1,001,2025-01-03_00h04.05.411,IAT(Formal),2021.2.3,Win32,166.6666667,,,,,,,,,,,,,,,,,,,,,,,,,,,,,,,,,,,,,,,,,,,,,,,,,,,,我的,i,,,i,1,0.6782,1,64,144,51,1,,
,,,,,,,,,,,,,,1,001,2025-01-03_00h04.05.411,IAT(Formal),2021.2.3,Win32,166.6666667,,,,,,,,,,,,,,,,,,,,,,,,,,,,,,,,,,,,,,,,,,,,,,,,,,,,悲观,i,,,i,1,0.7099,1,65,145,34,1,,
,,,,,,,,,,,,,,1,001,2025-01-03_00h04.05.411,IAT(Formal),2021.2.3,Win32,166.6666667,,,,,,,,,,,,,,,,,,,,,,,,,,,,,,,,,,,,,,,,,,,,,,,,,,,,他人,e,,,e,1,0.65,1,66,146,78,1,,
,,,,,,,,,,,,,,1,001,2025-01-03_00h04.05.411,IAT(Formal),2021.2.3,Win32,166.6666667,,,,,,,,,,,,,,,,,,,,,,,,,,,,,,,,,,,,,,,,,,,,,,,,,,,,凶狠,i,,,i,1,0.6119,1,67,147,42,1,,
,,,,,,,,,,,,,,1,001,2025-01-03_00h04.05.411,IAT(Formal),2021.2.3,Win32,166.6666667,,,,,,,,,,,,,,,,,,,,,,,,,,,,,,,,,,,,,,,,,,,,,,,,,,,,俺,i,,,i,1,0.5766,1,68,148,4,1,,
,,,,,,,,,,,,,,1,001,2025-01-03_00h04.05.411,IAT(Formal),2021.2.3,Win32,166.6666667,,,,,,,,,,,,,,,,,,,,,,,,,,,,,,,,,,,,,,,,,,,,,,,,,,,,轻率,i,,,i,1,0.745,1,69,149,48,1,,
,,,,,,,,,,,,,,1,001,2025-01-03_00h04.05.411,IAT(Formal),2021.2.3,Win32,166.6666667,,,,,,,,,,,,,,,,,,,,,,,,,,,,,,,,,,,,,,,,,,,,,,,,,,,,执拗,i,,,i,1,0.5758,1,70,150,40,1,,
,,,,,,,,,,,,,,1,001,2025-01-03_00h04.05.411,IAT(Formal),2021.2.3,Win32,166.6666667,,,,,,,,,,,,,,,,,,,,,,,,,,,,,,,,,,,,,,,,,,,,,,,,,,,,下贱,i,,,i,1,0.4974,1,71,151,49,1,,
,,,,,,,,,,,,,,1,001,2025-01-03_00h04.05.411,IAT(Formal),2021.2.3,Win32,166.6666667,,,,,,,,,,,,,,,,,,,,,,,,,,,,,,,,,,,,,,,,,,,,,,,,,,,,消极,i,,,i,1,0.529,1,72,152,35,1,,
,,,,,,,,,,,,,,1,001,2025-01-03_00h04.05.411,IAT(Formal),2021.2.3,Win32,166.6666667,,,,,,,,,,,,,,,,,,,,,,,,,,,,,,,,,,,,,,,,,,,,,,,,,,,,俺,i,,,e,0,0.5875,1,73,153,64,1,,
,,,,,,,,,,,,,,1,001,2025-01-03_00h04.05.411,IAT(Formal),2021.2.3,Win32,166.6666667,,,,,,,,,,,,,,,,,,,,,,,,,,,,,,,,,,,,,,,,,,,,,,,,,,,,自己,i,,,i,1,0.5949,1,74,154,3,1,,
,,,,,,,,,,,,,,1,001,2025-01-03_00h04.05.411,IAT(Formal),2021.2.3,Win32,166.6666667,,,,,,,,,,,,,,,,,,,,,,,,,,,,,,,,,,,,,,,,,,,,,,,,,,,,其他,e,,,e,1,1.1156,1,75,155,59,1,,
,,,,,,,,,,,,,,1,001,2025-01-03_00h04.05.411,IAT(Formal),2021.2.3,Win32,166.6666667,,,,,,,,,,,,,,,,,,,,,,,,,,,,,,,,,,,,,,,,,,,,,,,,,,,,他的,e,,,e,1,0.5709,1,76,156,57,1,,
,,,,,,,,,,,,,,1,001,2025-01-03_00h04.05.411,IAT(Formal),2021.2.3,Win32,166.6666667,,,,,,,,,,,,,,,,,,,,,,,,,,,,,,,,,,,,,,,,,,,,,,,,,,,,他的,e,,,e,1,0.455,1,77,157,7,1,,
,,,,,,,,,,,,,,1,001,2025-01-03_00h04.05.411,IAT(Formal),2021.2.3,Win32,166.6666667,,,,,,,,,,,,,,,,,,,,,,,,,,,,,,,,,,,,,,,,,,,,,,,,,,,,他,e,,,e,1,0.4495,1,78,158,5,1,,
,,,,,,,,,,,,,,1,001,2025-01-03_00h04.05.411,IAT(Formal),2021.2.3,Win32,166.6666667,,,,,,,,,,,,,,,,,,,,,,,,,,,,,,,,,,,,,,,,,,,,,,,,,,,,我们,i,,,i,1,0.5223,1,79,159,62,1,,
,,,,,,,,,,,,,,1,001,2025-01-03_00h04.05.411,IAT(Formal),2021.2.3,Win32,166.6666667,,,,,,,,,,,,,,,,,,,,,,,,,,,,,,,,,,,,,,,,,,,,,,,,,,,,,,,,,,,,,,,,space,0.9706