﻿Instruction1.keys,Instruction1.rt,Instruction2.keys,Instruction2.rt,key_resp_iso.keys,key_resp_iso.corr,Practice_01.thisRepN,Practice_01.thisTrialN,Practice_01.thisN,Practice_01.thisIndex,Practice_01.ran,Words,ans,participant,session,date,expName,psychopyVersion,OS,frameRate,key_resp_iso.rt,key_resp_3.keys,key_resp_3.rt,key_resp_ipn.keys,key_resp_ipn.corr,key_resp_ipn.rt,Practice_02.thisRepN,Practice_02.thisTrialN,Practice_02.thisN,Practice_02.thisIndex,Practice_02.ran,Words_ipn,ans_ipn,key_resp_4.keys,key_resp_4.rt,key_resp_t1.keys,key_resp_t1.corr,key_resp_t1.rt,Practice_T1.thisRepN,Practice_T1.thisTrialN,Practice_T1.thisN,Practice_T1.thisIndex,Practice_T1.ran,Words_t1,ans_t1,key_resp_5.keys,key_resp_5.rt,Formal_T1.thisRepN,Formal_T1.thisTrialN,Formal_T1.thisN,Formal_T1.thisIndex,Formal_T1.ran,key_resp_6.keys,key_resp_6.rt,key_resp_iso_reverse.keys,key_resp_iso_reverse.corr,key_resp_iso_reverse.rt,Practice_iso_Reverse.thisRepN,Practice_iso_Reverse.thisTrialN,Practice_iso_Reverse.thisN,Practice_iso_Reverse.thisIndex,Practice_iso_Reverse.ran,key_resp_7.keys,key_resp_7.rt,key_resp_t2_Practice.keys,key_resp_t2_Practice.corr,key_resp_t2_Practice.rt,Practice_t2_Reverse.thisRepN,Practice_t2_Reverse.thisTrialN,Practice_t2_Reverse.thisN,Practice_t2_Reverse.thisIndex,Practice_t2_Reverse.ran,Words_t2,ans_t2,key_resp_8.keys,key_resp_8.rt,key_resp_t2.keys,key_resp_t2.corr,Formal_t2_reverse.thisRepN,Formal_t2_reverse.thisTrialN,Formal_t2_reverse.thisN,Formal_t2_reverse.thisIndex,Formal_t2_reverse.ran,key_resp_t2.rt,key_instruct.keys,key_instruct.rt
space,5.7875,space,19.5765,,0,0,0,0,1,1,我的,e,1,001,2025-01-03_07h12.44.249,IAT(Formal),2021.2.3,Win32,60.60606061,,,,,,,,,,,,,,,,,,,,,,,,,,,,,,,,,,,,,,,,,,,,,,,,,,,,,,,,,,,,,,,,,,
,,,,e,1,0,1,1,3,1,自己,e,1,001,2025-01-03_07h12.44.249,IAT(Formal),2021.2.3,Win32,60.60606061,0.7003,,,,,,,,,,,,,,,,,,,,,,,,,,,,,,,,,,,,,,,,,,,,,,,,,,,,,,,,,,,,,,,,,
,,,,e,1,0,2,2,4,1,俺,e,1,001,2025-01-03_07h12.44.249,IAT(Formal),2021.2.3,Win32,60.60606061,0.5331,,,,,,,,,,,,,,,,,,,,,,,,,,,,,,,,,,,,,,,,,,,,,,,,,,,,,,,,,,,,,,,,,
,,,,i,1,0,3,3,5,1,他,i,1,001,2025-01-03_07h12.44.249,IAT(Formal),2021.2.3,Win32,60.60606061,0.5868,,,,,,,,,,,,,,,,,,,,,,,,,,,,,,,,,,,,,,,,,,,,,,,,,,,,,,,,,,,,,,,,,
,,,,i,1,0,4,4,7,1,他的,i,1,001,2025-01-03_07h12.44.249,IAT(Formal),2021.2.3,Win32,60.60606061,0.4567,,,,,,,,,,,,,,,,,,,,,,,,,,,,,,,,,,,,,,,,,,,,,,,,,,,,,,,,,,,,,,,,,
,,,,e,1,0,5,5,0,1,我,e,1,001,2025-01-03_07h12.44.249,IAT(Formal),2021.2.3,Win32,60.60606061,0.4672,,,,,,,,,,,,,,,,,,,,,,,,,,,,,,,,,,,,,,,,,,,,,,,,,,,,,,,,,,,,,,,,,
,,,,i,1,0,6,6,8,1,他人,i,1,001,2025-01-03_07h12.44.249,IAT(Formal),2021.2.3,Win32,60.60606061,0.5494,,,,,,,,,,,,,,,,,,,,,,,,,,,,,,,,,,,,,,,,,,,,,,,,,,,,,,,,,,,,,,,,,
,,,,e,1,0,7,7,2,1,我们,e,1,001,2025-01-03_07h12.44.249,IAT(Formal),2021.2.3,Win32,60.60606061,0.3999,,,,,,,,,,,,,,,,,,,,,,,,,,,,,,,,,,,,,,,,,,,,,,,,,,,,,,,,,,,,,,,,,
,,,,i,1,0,8,8,9,1,其他,i,1,001,2025-01-03_07h12.44.249,IAT(Formal),2021.2.3,Win32,60.60606061,1.384,,,,,,,,,,,,,,,,,,,,,,,,,,,,,,,,,,,,,,,,,,,,,,,,,,,,,,,,,,,,,,,,,
,,,,i,1,0,9,9,6,1,他们,i,1,001,2025-01-03_07h12.44.249,IAT(Formal),2021.2.3,Win32,60.60606061,0.7987,,,,,,,,,,,,,,,,,,,,,,,,,,,,,,,,,,,,,,,,,,,,,,,,,,,,,,,,,,,,,,,,,
,,,,,,,,,,,,,1,001,2025-01-03_07h12.44.249,IAT(Formal),2021.2.3,Win32,60.60606061,,space,4.3059,e,1,0.9127,0,0,0,8,1,勤奋,e,,,,,,,,,,,,,,,,,,,,,,,,,,,,,,,,,,,,,,,,,,,,,,,,,,,,,
,,,,,,,,,,,,,1,001,2025-01-03_07h12.44.249,IAT(Formal),2021.2.3,Win32,60.60606061,,,,e,1,0.6473,0,1,1,19,1,诚恳,e,,,,,,,,,,,,,,,,,,,,,,,,,,,,,,,,,,,,,,,,,,,,,,,,,,,,,
,,,,,,,,,,,,,1,001,2025-01-03_07h12.44.249,IAT(Formal),2021.2.3,Win32,60.60606061,,,,i,1,1.4522,0,2,2,24,1,悲观,i,,,,,,,,,,,,,,,,,,,,,,,,,,,,,,,,,,,,,,,,,,,,,,,,,,,,,
,,,,,,,,,,,,,1,001,2025-01-03_07h12.44.249,IAT(Formal),2021.2.3,Win32,60.60606061,,,,e,1,0.4873,0,3,3,2,1,聪明,e,,,,,,,,,,,,,,,,,,,,,,,,,,,,,,,,,,,,,,,,,,,,,,,,,,,,,
,,,,,,,,,,,,,1,001,2025-01-03_07h12.44.249,IAT(Formal),2021.2.3,Win32,60.60606061,,,,e,1,0.7353,0,4,4,16,1,冷静,e,,,,,,,,,,,,,,,,,,,,,,,,,,,,,,,,,,,,,,,,,,,,,,,,,,,,,
,,,,,,,,,,,,,1,001,2025-01-03_07h12.44.249,IAT(Formal),2021.2.3,Win32,60.60606061,,,,i,1,0.5542,0,5,5,34,1,暴躁,i,,,,,,,,,,,,,,,,,,,,,,,,,,,,,,,,,,,,,,,,,,,,,,,,,,,,,
,,,,,,,,,,,,,1,001,2025-01-03_07h12.44.249,IAT(Formal),2021.2.3,Win32,60.60606061,,,,i,1,0.5944,0,6,6,23,1,刻薄,i,,,,,,,,,,,,,,,,,,,,,,,,,,,,,,,,,,,,,,,,,,,,,,,,,,,,,
,,,,,,,,,,,,,1,001,2025-01-03_07h12.44.249,IAT(Formal),2021.2.3,Win32,60.60606061,,,,i,1,0.7378,0,7,7,30,1,执拗,i,,,,,,,,,,,,,,,,,,,,,,,,,,,,,,,,,,,,,,,,,,,,,,,,,,,,,
,,,,,,,,,,,,,1,001,2025-01-03_07h12.44.249,IAT(Formal),2021.2.3,Win32,60.60606061,,,,e,1,0.4776,0,8,8,11,1,稳重,e,,,,,,,,,,,,,,,,,,,,,,,,,,,,,,,,,,,,,,,,,,,,,,,,,,,,,
,,,,,,,,,,,,,1,001,2025-01-03_07h12.44.249,IAT(Formal),2021.2.3,Win32,60.60606061,,,,e,0,0.8354,0,9,9,27,1,傲慢,i,,,,,,,,,,,,,,,,,,,,,,,,,,,,,,,,,,,,,,,,,,,,,,,,,,,,,
,,,,,,,,,,,,,1,001,2025-01-03_07h12.44.249,IAT(Formal),2021.2.3,Win32,60.60606061,,,,i,1,0.5948,0,10,10,32,1,凶狠,i,,,,,,,,,,,,,,,,,,,,,,,,,,,,,,,,,,,,,,,,,,,,,,,,,,,,,
,,,,,,,,,,,,,1,001,2025-01-03_07h12.44.249,IAT(Formal),2021.2.3,Win32,60.60606061,,,,i,1,0.5088,0,11,11,20,1,卑鄙,i,,,,,,,,,,,,,,,,,,,,,,,,,,,,,,,,,,,,,,,,,,,,,,,,,,,,,
,,,,,,,,,,,,,1,001,2025-01-03_07h12.44.249,IAT(Formal),2021.2.3,Win32,60.60606061,,,,i,1,0.5989,0,12,12,28,1,鲁莽,i,,,,,,,,,,,,,,,,,,,,,,,,,,,,,,,,,,,,,,,,,,,,,,,,,,,,,
,,,,,,,,,,,,,1,001,2025-01-03_07h12.44.249,IAT(Formal),2021.2.3,Win32,60.60606061,,,,e,1,0.4186,0,13,13,5,1,诚实,e,,,,,,,,,,,,,,,,,,,,,,,,,,,,,,,,,,,,,,,,,,,,,,,,,,,,,
,,,,,,,,,,,,,1,001,2025-01-03_07h12.44.249,IAT(Formal),2021.2.3,Win32,60.60606061,,,,i,1,0.4549,0,14,14,35,1,猖狂,i,,,,,,,,,,,,,,,,,,,,,,,,,,,,,,,,,,,,,,,,,,,,,,,,,,,,,
,,,,,,,,,,,,,1,001,2025-01-03_07h12.44.249,IAT(Formal),2021.2.3,Win32,60.60606061,,,,i,1,0.534,0,15,15,26,1,自卑,i,,,,,,,,,,,,,,,,,,,,,,,,,,,,,,,,,,,,,,,,,,,,,,,,,,,,,
,,,,,,,,,,,,,1,001,2025-01-03_07h12.44.249,IAT(Formal),2021.2.3,Win32,60.60606061,,,,e,1,0.652,0,16,16,1,1,崇高,e,,,,,,,,,,,,,,,,,,,,,,,,,,,,,,,,,,,,,,,,,,,,,,,,,,,,,
,,,,,,,,,,,,,1,001,2025-01-03_07h12.44.249,IAT(Formal),2021.2.3,Win32,60.60606061,,,,i,1,0.4624,0,17,17,21,1,虚伪,i,,,,,,,,,,,,,,,,,,,,,,,,,,,,,,,,,,,,,,,,,,,,,,,,,,,,,
,,,,,,,,,,,,,1,001,2025-01-03_07h12.44.249,IAT(Formal),2021.2.3,Win32,60.60606061,,,,e,1,0.8183,0,18,18,15,1,细腻,e,,,,,,,,,,,,,,,,,,,,,,,,,,,,,,,,,,,,,,,,,,,,,,,,,,,,,
,,,,,,,,,,,,,1,001,2025-01-03_07h12.44.249,IAT(Formal),2021.2.3,Win32,60.60606061,,,,i,1,0.6267,0,19,19,22,1,愚蠢,i,,,,,,,,,,,,,,,,,,,,,,,,,,,,,,,,,,,,,,,,,,,,,,,,,,,,,
,,,,,,,,,,,,,1,001,2025-01-03_07h12.44.249,IAT(Formal),2021.2.3,Win32,60.60606061,,,,i,1,0.4862,0,20,20,36,1,野蛮,i,,,,,,,,,,,,,,,,,,,,,,,,,,,,,,,,,,,,,,,,,,,,,,,,,,,,,
,,,,,,,,,,,,,1,001,2025-01-03_07h12.44.249,IAT(Formal),2021.2.3,Win32,60.60606061,,,,e,1,0.625,0,21,21,13,1,公正,e,,,,,,,,,,,,,,,,,,,,,,,,,,,,,,,,,,,,,,,,,,,,,,,,,,,,,
,,,,,,,,,,,,,1,001,2025-01-03_07h12.44.249,IAT(Formal),2021.2.3,Win32,60.60606061,,,,e,1,0.4583,0,22,22,14,1,朴实,e,,,,,,,,,,,,,,,,,,,,,,,,,,,,,,,,,,,,,,,,,,,,,,,,,,,,,
,,,,,,,,,,,,,1,001,2025-01-03_07h12.44.249,IAT(Formal),2021.2.3,Win32,60.60606061,,,,e,1,0.4801,0,23,23,7,1,勇敢,e,,,,,,,,,,,,,,,,,,,,,,,,,,,,,,,,,,,,,,,,,,,,,,,,,,,,,
,,,,,,,,,,,,,1,001,2025-01-03_07h12.44.249,IAT(Formal),2021.2.3,Win32,60.60606061,,,,e,1,0.4854,0,24,24,6,1,正直,e,,,,,,,,,,,,,,,,,,,,,,,,,,,,,,,,,,,,,,,,,,,,,,,,,,,,,
,,,,,,,,,,,,,1,001,2025-01-03_07h12.44.249,IAT(Formal),2021.2.3,Win32,60.60606061,,,,e,1,0.4977,0,25,25,9,1,机智,e,,,,,,,,,,,,,,,,,,,,,,,,,,,,,,,,,,,,,,,,,,,,,,,,,,,,,
,,,,,,,,,,,,,1,001,2025-01-03_07h12.44.249,IAT(Formal),2021.2.3,Win32,60.60606061,,,,e,1,0.5452,0,26,26,18,1,活泼,e,,,,,,,,,,,,,,,,,,,,,,,,,,,,,,,,,,,,,,,,,,,,,,,,,,,,,
,,,,,,,,,,,,,1,001,2025-01-03_07h12.44.249,IAT(Formal),2021.2.3,Win32,60.60606061,,,,e,1,0.424,0,27,27,17,1,热情,e,,,,,,,,,,,,,,,,,,,,,,,,,,,,,,,,,,,,,,,,,,,,,,,,,,,,,
,,,,,,,,,,,,,1,001,2025-01-03_07h12.44.249,IAT(Formal),2021.2.3,Win32,60.60606061,,,,i,0,0.4081,0,28,28,12,1,无私,e,,,,,,,,,,,,,,,,,,,,,,,,,,,,,,,,,,,,,,,,,,,,,,,,,,,,,
,,,,,,,,,,,,,1,001,2025-01-03_07h12.44.249,IAT(Formal),2021.2.3,Win32,60.60606061,,,,e,1,0.4164,0,29,29,0,1,优秀,e,,,,,,,,,,,,,,,,,,,,,,,,,,,,,,,,,,,,,,,,,,,,,,,,,,,,,
,,,,,,,,,,,,,1,001,2025-01-03_07h12.44.249,IAT(Formal),2021.2.3,Win32,60.60606061,,,,i,1,0.6291,0,30,30,29,1,冒失,i,,,,,,,,,,,,,,,,,,,,,,,,,,,,,,,,,,,,,,,,,,,,,,,,,,,,,
,,,,,,,,,,,,,1,001,2025-01-03_07h12.44.249,IAT(Formal),2021.2.3,Win32,60.60606061,,,,e,1,0.5674,0,31,31,3,1,杰出,e,,,,,,,,,,,,,,,,,,,,,,,,,,,,,,,,,,,,,,,,,,,,,,,,,,,,,
,,,,,,,,,,,,,1,001,2025-01-03_07h12.44.249,IAT(Formal),2021.2.3,Win32,60.60606061,,,,i,1,1.0359,0,32,32,37,1,固执,i,,,,,,,,,,,,,,,,,,,,,,,,,,,,,,,,,,,,,,,,,,,,,,,,,,,,,
,,,,,,,,,,,,,1,001,2025-01-03_07h12.44.249,IAT(Formal),2021.2.3,Win32,60.60606061,,,,i,1,0.5559,0,33,33,39,1,下贱,i,,,,,,,,,,,,,,,,,,,,,,,,,,,,,,,,,,,,,,,,,,,,,,,,,,,,,
,,,,,,,,,,,,,1,001,2025-01-03_07h12.44.249,IAT(Formal),2021.2.3,Win32,60.60606061,,,,i,1,0.6311,0,34,34,25,1,消极,i,,,,,,,,,,,,,,,,,,,,,,,,,,,,,,,,,,,,,,,,,,,,,,,,,,,,,
,,,,,,,,,,,,,1,001,2025-01-03_07h12.44.249,IAT(Formal),2021.2.3,Win32,60.60606061,,,,i,1,0.5697,0,35,35,31,1,散漫,i,,,,,,,,,,,,,,,,,,,,,,,,,,,,,,,,,,,,,,,,,,,,,,,,,,,,,
,,,,,,,,,,,,,1,001,2025-01-03_07h12.44.249,IAT(Formal),2021.2.3,Win32,60.60606061,,,,e,1,0.4976,0,36,36,4,1,乐观,e,,,,,,,,,,,,,,,,,,,,,,,,,,,,,,,,,,,,,,,,,,,,,,,,,,,,,
,,,,,,,,,,,,,1,001,2025-01-03_07h12.44.249,IAT(Formal),2021.2.3,Win32,60.60606061,,,,i,1,0.4976,0,37,37,33,1,自私,i,,,,,,,,,,,,,,,,,,,,,,,,,,,,,,,,,,,,,,,,,,,,,,,,,,,,,
,,,,,,,,,,,,,1,001,2025-01-03_07h12.44.249,IAT(Formal),2021.2.3,Win32,60.60606061,,,,e,1,0.5813,0,38,38,10,1,认真,e,,,,,,,,,,,,,,,,,,,,,,,,,,,,,,,,,,,,,,,,,,,,,,,,,,,,,
,,,,,,,,,,,,,1,001,2025-01-03_07h12.44.249,IAT(Formal),2021.2.3,Win32,60.60606061,,,,i,1,0.6111,0,39,39,38,1,轻率,i,,,,,,,,,,,,,,,,,,,,,,,,,,,,,,,,,,,,,,,,,,,,,,,,,,,,,
,,,,,,,,,,,,,1,001,2025-01-03_07h12.44.249,IAT(Formal),2021.2.3,Win32,60.60606061,,,,,,,,,,,,,,space,10.7906,e,1,0.8308,0,0,0,62,1,我们,e,,,,,,,,,,,,,,,,,,,,,,,,,,,,,,,,,,,,,,,,,
,,,,,,,,,,,,,1,001,2025-01-03_07h12.44.249,IAT(Formal),2021.2.3,Win32,60.60606061,,,,,,,,,,,,,,,,i,1,0.5318,0,1,1,49,1,下贱,i,,,,,,,,,,,,,,,,,,,,,,,,,,,,,,,,,,,,,,,,,
,,,,,,,,,,,,,1,001,2025-01-03_07h12.44.249,IAT(Formal),2021.2.3,Win32,60.60606061,,,,,,,,,,,,,,,,e,1,0.6269,0,2,2,16,1,正直,e,,,,,,,,,,,,,,,,,,,,,,,,,,,,,,,,,,,,,,,,,
,,,,,,,,,,,,,1,001,2025-01-03_07h12.44.249,IAT(Formal),2021.2.3,Win32,60.60606061,,,,,,,,,,,,,,,,i,1,0.5827,0,3,3,48,1,轻率,i,,,,,,,,,,,,,,,,,,,,,,,,,,,,,,,,,,,,,,,,,
,,,,,,,,,,,,,1,001,2025-01-03_07h12.44.249,IAT(Formal),2021.2.3,Win32,60.60606061,,,,,,,,,,,,,,,,i,1,0.3916,0,4,4,66,1,他们,i,,,,,,,,,,,,,,,,,,,,,,,,,,,,,,,,,,,,,,,,,
,,,,,,,,,,,,,1,001,2025-01-03_07h12.44.249,IAT(Formal),2021.2.3,Win32,60.60606061,,,,,,,,,,,,,,,,e,1,0.468,0,5,5,70,1,我,e,,,,,,,,,,,,,,,,,,,,,,,,,,,,,,,,,,,,,,,,,
,,,,,,,,,,,,,1,001,2025-01-03_07h12.44.249,IAT(Formal),2021.2.3,Win32,60.60606061,,,,,,,,,,,,,,,,e,1,0.5657,0,6,6,74,1,俺,e,,,,,,,,,,,,,,,,,,,,,,,,,,,,,,,,,,,,,,,,,
,,,,,,,,,,,,,1,001,2025-01-03_07h12.44.249,IAT(Formal),2021.2.3,Win32,60.60606061,,,,,,,,,,,,,,,,e,0,0.7335,0,7,7,41,1,散漫,i,,,,,,,,,,,,,,,,,,,,,,,,,,,,,,,,,,,,,,,,,
,,,,,,,,,,,,,1,001,2025-01-03_07h12.44.249,IAT(Formal),2021.2.3,Win32,60.60606061,,,,,,,,,,,,,,,,i,1,0.5767,0,8,8,33,1,刻薄,i,,,,,,,,,,,,,,,,,,,,,,,,,,,,,,,,,,,,,,,,,
,,,,,,,,,,,,,1,001,2025-01-03_07h12.44.249,IAT(Formal),2021.2.3,Win32,60.60606061,,,,,,,,,,,,,,,,e,1,0.4682,0,9,9,2,1,我们,e,,,,,,,,,,,,,,,,,,,,,,,,,,,,,,,,,,,,,,,,,
,,,,,,,,,,,,,1,001,2025-01-03_07h12.44.249,IAT(Formal),2021.2.3,Win32,60.60606061,,,,,,,,,,,,,,,,e,1,0.6047,0,10,10,27,1,热情,e,,,,,,,,,,,,,,,,,,,,,,,,,,,,,,,,,,,,,,,,,
,,,,,,,,,,,,,1,001,2025-01-03_07h12.44.249,IAT(Formal),2021.2.3,Win32,60.60606061,,,,,,,,,,,,,,,,e,1,0.4818,0,11,11,10,1,优秀,e,,,,,,,,,,,,,,,,,,,,,,,,,,,,,,,,,,,,,,,,,
,,,,,,,,,,,,,1,001,2025-01-03_07h12.44.249,IAT(Formal),2021.2.3,Win32,60.60606061,,,,,,,,,,,,,,,,i,1,0.4731,0,12,12,44,1,暴躁,i,,,,,,,,,,,,,,,,,,,,,,,,,,,,,,,,,,,,,,,,,
,,,,,,,,,,,,,1,001,2025-01-03_07h12.44.249,IAT(Formal),2021.2.3,Win32,60.60606061,,,,,,,,,,,,,,,,i,1,0.6571,0,13,13,37,1,傲慢,i,,,,,,,,,,,,,,,,,,,,,,,,,,,,,,,,,,,,,,,,,
,,,,,,,,,,,,,1,001,2025-01-03_07h12.44.249,IAT(Formal),2021.2.3,Win32,60.60606061,,,,,,,,,,,,,,,,i,1,0.4679,0,14,14,35,1,消极,i,,,,,,,,,,,,,,,,,,,,,,,,,,,,,,,,,,,,,,,,,
,,,,,,,,,,,,,1,001,2025-01-03_07h12.44.249,IAT(Formal),2021.2.3,Win32,60.60606061,,,,,,,,,,,,,,,,i,1,0.6399,0,15,15,9,1,其他,i,,,,,,,,,,,,,,,,,,,,,,,,,,,,,,,,,,,,,,,,,
,,,,,,,,,,,,,1,001,2025-01-03_07h12.44.249,IAT(Formal),2021.2.3,Win32,60.60606061,,,,,,,,,,,,,,,,e,1,0.6275,0,16,16,21,1,稳重,e,,,,,,,,,,,,,,,,,,,,,,,,,,,,,,,,,,,,,,,,,
,,,,,,,,,,,,,1,001,2025-01-03_07h12.44.249,IAT(Formal),2021.2.3,Win32,60.60606061,,,,,,,,,,,,,,,,e,1,0.5064,0,17,17,1,1,我的,e,,,,,,,,,,,,,,,,,,,,,,,,,,,,,,,,,,,,,,,,,
,,,,,,,,,,,,,1,001,2025-01-03_07h12.44.249,IAT(Formal),2021.2.3,Win32,60.60606061,,,,,,,,,,,,,,,,e,1,0.489,0,18,18,11,1,崇高,e,,,,,,,,,,,,,,,,,,,,,,,,,,,,,,,,,,,,,,,,,
,,,,,,,,,,,,,1,001,2025-01-03_07h12.44.249,IAT(Formal),2021.2.3,Win32,60.60606061,,,,,,,,,,,,,,,,i,1,0.4041,0,19,19,45,1,猖狂,i,,,,,,,,,,,,,,,,,,,,,,,,,,,,,,,,,,,,,,,,,
,,,,,,,,,,,,,1,001,2025-01-03_07h12.44.249,IAT(Formal),2021.2.3,Win32,60.60606061,,,,,,,,,,,,,,,,i,1,0.534,0,20,20,58,1,他人,i,,,,,,,,,,,,,,,,,,,,,,,,,,,,,,,,,,,,,,,,,
,,,,,,,,,,,,,1,001,2025-01-03_07h12.44.249,IAT(Formal),2021.2.3,Win32,60.60606061,,,,,,,,,,,,,,,,i,1,0.5991,0,21,21,57,1,他的,i,,,,,,,,,,,,,,,,,,,,,,,,,,,,,,,,,,,,,,,,,
,,,,,,,,,,,,,1,001,2025-01-03_07h12.44.249,IAT(Formal),2021.2.3,Win32,60.60606061,,,,,,,,,,,,,,,,e,1,0.5705,0,22,22,29,1,诚恳,e,,,,,,,,,,,,,,,,,,,,,,,,,,,,,,,,,,,,,,,,,
,,,,,,,,,,,,,1,001,2025-01-03_07h12.44.249,IAT(Formal),2021.2.3,Win32,60.60606061,,,,,,,,,,,,,,,,i,1,0.5328,0,23,23,67,1,他的,i,,,,,,,,,,,,,,,,,,,,,,,,,,,,,,,,,,,,,,,,,
,,,,,,,,,,,,,1,001,2025-01-03_07h12.44.249,IAT(Formal),2021.2.3,Win32,60.60606061,,,,,,,,,,,,,,,,i,1,0.5381,0,24,24,69,1,其他,i,,,,,,,,,,,,,,,,,,,,,,,,,,,,,,,,,,,,,,,,,
,,,,,,,,,,,,,1,001,2025-01-03_07h12.44.249,IAT(Formal),2021.2.3,Win32,60.60606061,,,,,,,,,,,,,,,,i,1,0.4654,0,25,25,65,1,他,i,,,,,,,,,,,,,,,,,,,,,,,,,,,,,,,,,,,,,,,,,
,,,,,,,,,,,,,1,001,2025-01-03_07h12.44.249,IAT(Formal),2021.2.3,Win32,60.60606061,,,,,,,,,,,,,,,,e,1,0.725,0,26,26,54,1,俺,e,,,,,,,,,,,,,,,,,,,,,,,,,,,,,,,,,,,,,,,,,
,,,,,,,,,,,,,1,001,2025-01-03_07h12.44.249,IAT(Formal),2021.2.3,Win32,60.60606061,,,,,,,,,,,,,,,,i,1,0.7035,0,27,27,59,1,其他,i,,,,,,,,,,,,,,,,,,,,,,,,,,,,,,,,,,,,,,,,,
,,,,,,,,,,,,,1,001,2025-01-03_07h12.44.249,IAT(Formal),2021.2.3,Win32,60.60606061,,,,,,,,,,,,,,,,i,1,0.6403,0,28,28,31,1,虚伪,i,,,,,,,,,,,,,,,,,,,,,,,,,,,,,,,,,,,,,,,,,
,,,,,,,,,,,,,1,001,2025-01-03_07h12.44.249,IAT(Formal),2021.2.3,Win32,60.60606061,,,,,,,,,,,,,,,,i,1,0.6896,0,29,29,77,1,他的,i,,,,,,,,,,,,,,,,,,,,,,,,,,,,,,,,,,,,,,,,,
,,,,,,,,,,,,,1,001,2025-01-03_07h12.44.249,IAT(Formal),2021.2.3,Win32,60.60606061,,,,,,,,,,,,,,,,e,1,0.5598,0,30,30,13,1,杰出,e,,,,,,,,,,,,,,,,,,,,,,,,,,,,,,,,,,,,,,,,,
,,,,,,,,,,,,,1,001,2025-01-03_07h12.44.249,IAT(Formal),2021.2.3,Win32,60.60606061,,,,,,,,,,,,,,,,e,1,0.488,0,31,31,20,1,认真,e,,,,,,,,,,,,,,,,,,,,,,,,,,,,,,,,,,,,,,,,,
,,,,,,,,,,,,,1,001,2025-01-03_07h12.44.249,IAT(Formal),2021.2.3,Win32,60.60606061,,,,,,,,,,,,,,,,i,0,0.64,0,32,32,64,1,俺,e,,,,,,,,,,,,,,,,,,,,,,,,,,,,,,,,,,,,,,,,,
,,,,,,,,,,,,,1,001,2025-01-03_07h12.44.249,IAT(Formal),2021.2.3,Win32,60.60606061,,,,,,,,,,,,,,,,e,1,0.5,0,33,33,60,1,我,e,,,,,,,,,,,,,,,,,,,,,,,,,,,,,,,,,,,,,,,,,
,,,,,,,,,,,,,1,001,2025-01-03_07h12.44.249,IAT(Formal),2021.2.3,Win32,60.60606061,,,,,,,,,,,,,,,,i,1,0.5279,0,34,34,30,1,卑鄙,i,,,,,,,,,,,,,,,,,,,,,,,,,,,,,,,,,,,,,,,,,
,,,,,,,,,,,,,1,001,2025-01-03_07h12.44.249,IAT(Formal),2021.2.3,Win32,60.60606061,,,,,,,,,,,,,,,,e,1,0.6222,0,35,35,63,1,自己,e,,,,,,,,,,,,,,,,,,,,,,,,,,,,,,,,,,,,,,,,,
,,,,,,,,,,,,,1,001,2025-01-03_07h12.44.249,IAT(Formal),2021.2.3,Win32,60.60606061,,,,,,,,,,,,,,,,e,1,0.4651,0,36,36,4,1,俺,e,,,,,,,,,,,,,,,,,,,,,,,,,,,,,,,,,,,,,,,,,
,,,,,,,,,,,,,1,001,2025-01-03_07h12.44.249,IAT(Formal),2021.2.3,Win32,60.60606061,,,,,,,,,,,,,,,,i,1,0.5408,0,37,37,76,1,他们,i,,,,,,,,,,,,,,,,,,,,,,,,,,,,,,,,,,,,,,,,,
,,,,,,,,,,,,,1,001,2025-01-03_07h12.44.249,IAT(Formal),2021.2.3,Win32,60.60606061,,,,,,,,,,,,,,,,i,1,0.4834,0,38,38,78,1,他人,i,,,,,,,,,,,,,,,,,,,,,,,,,,,,,,,,,,,,,,,,,
,,,,,,,,,,,,,1,001,2025-01-03_07h12.44.249,IAT(Formal),2021.2.3,Win32,60.60606061,,,,,,,,,,,,,,,,i,1,0.4175,0,39,39,43,1,自私,i,,,,,,,,,,,,,,,,,,,,,,,,,,,,,,,,,,,,,,,,,
,,,,,,,,,,,,,1,001,2025-01-03_07h12.44.249,IAT(Formal),2021.2.3,Win32,60.60606061,,,,,,,,,,,,,,,,e,1,0.4659,0,40,40,17,1,勇敢,e,,,,,,,,,,,,,,,,,,,,,,,,,,,,,,,,,,,,,,,,,
,,,,,,,,,,,,,1,001,2025-01-03_07h12.44.249,IAT(Formal),2021.2.3,Win32,60.60606061,,,,,,,,,,,,,,,,e,1,0.3841,0,41,41,18,1,勤奋,e,,,,,,,,,,,,,,,,,,,,,,,,,,,,,,,,,,,,,,,,,
,,,,,,,,,,,,,1,001,2025-01-03_07h12.44.249,IAT(Formal),2021.2.3,Win32,60.60606061,,,,,,,,,,,,,,,,i,1,0.3887,0,42,42,68,1,他人,i,,,,,,,,,,,,,,,,,,,,,,,,,,,,,,,,,,,,,,,,,
,,,,,,,,,,,,,1,001,2025-01-03_07h12.44.249,IAT(Formal),2021.2.3,Win32,60.60606061,,,,,,,,,,,,,,,,e,1,0.6284,0,43,43,28,1,活泼,e,,,,,,,,,,,,,,,,,,,,,,,,,,,,,,,,,,,,,,,,,
,,,,,,,,,,,,,1,001,2025-01-03_07h12.44.249,IAT(Formal),2021.2.3,Win32,60.60606061,,,,,,,,,,,,,,,,i,1,0.5656,0,44,44,79,1,其他,i,,,,,,,,,,,,,,,,,,,,,,,,,,,,,,,,,,,,,,,,,
,,,,,,,,,,,,,1,001,2025-01-03_07h12.44.249,IAT(Formal),2021.2.3,Win32,60.60606061,,,,,,,,,,,,,,,,e,1,0.5218,0,45,45,23,1,公正,e,,,,,,,,,,,,,,,,,,,,,,,,,,,,,,,,,,,,,,,,,
,,,,,,,,,,,,,1,001,2025-01-03_07h12.44.249,IAT(Formal),2021.2.3,Win32,60.60606061,,,,,,,,,,,,,,,,e,1,0.5415,0,46,46,14,1,乐观,e,,,,,,,,,,,,,,,,,,,,,,,,,,,,,,,,,,,,,,,,,
,,,,,,,,,,,,,1,001,2025-01-03_07h12.44.249,IAT(Formal),2021.2.3,Win32,60.60606061,,,,,,,,,,,,,,,,e,1,0.6716,0,47,47,71,1,我的,e,,,,,,,,,,,,,,,,,,,,,,,,,,,,,,,,,,,,,,,,,
,,,,,,,,,,,,,1,001,2025-01-03_07h12.44.249,IAT(Formal),2021.2.3,Win32,60.60606061,,,,,,,,,,,,,,,,i,1,0.5158,0,48,48,40,1,执拗,i,,,,,,,,,,,,,,,,,,,,,,,,,,,,,,,,,,,,,,,,,
,,,,,,,,,,,,,1,001,2025-01-03_07h12.44.249,IAT(Formal),2021.2.3,Win32,60.60606061,,,,,,,,,,,,,,,,e,1,0.4487,0,49,49,72,1,我们,e,,,,,,,,,,,,,,,,,,,,,,,,,,,,,,,,,,,,,,,,,
,,,,,,,,,,,,,1,001,2025-01-03_07h12.44.249,IAT(Formal),2021.2.3,Win32,60.60606061,,,,,,,,,,,,,,,,e,1,0.6566,0,50,50,12,1,聪明,e,,,,,,,,,,,,,,,,,,,,,,,,,,,,,,,,,,,,,,,,,
,,,,,,,,,,,,,1,001,2025-01-03_07h12.44.249,IAT(Formal),2021.2.3,Win32,60.60606061,,,,,,,,,,,,,,,,e,1,0.6046,0,51,51,53,1,自己,e,,,,,,,,,,,,,,,,,,,,,,,,,,,,,,,,,,,,,,,,,
,,,,,,,,,,,,,1,001,2025-01-03_07h12.44.249,IAT(Formal),2021.2.3,Win32,60.60606061,,,,,,,,,,,,,,,,i,1,0.6613,0,52,52,47,1,固执,i,,,,,,,,,,,,,,,,,,,,,,,,,,,,,,,,,,,,,,,,,
,,,,,,,,,,,,,1,001,2025-01-03_07h12.44.249,IAT(Formal),2021.2.3,Win32,60.60606061,,,,,,,,,,,,,,,,e,1,0.6696,0,53,53,61,1,我的,e,,,,,,,,,,,,,,,,,,,,,,,,,,,,,,,,,,,,,,,,,
,,,,,,,,,,,,,1,001,2025-01-03_07h12.44.249,IAT(Formal),2021.2.3,Win32,60.60606061,,,,,,,,,,,,,,,,i,1,0.4392,0,54,54,8,1,他人,i,,,,,,,,,,,,,,,,,,,,,,,,,,,,,,,,,,,,,,,,,
,,,,,,,,,,,,,1,001,2025-01-03_07h12.44.249,IAT(Formal),2021.2.3,Win32,60.60606061,,,,,,,,,,,,,,,,e,1,0.6146,0,55,55,19,1,机智,e,,,,,,,,,,,,,,,,,,,,,,,,,,,,,,,,,,,,,,,,,
,,,,,,,,,,,,,1,001,2025-01-03_07h12.44.249,IAT(Formal),2021.2.3,Win32,60.60606061,,,,,,,,,,,,,,,,e,1,0.6471,0,56,56,25,1,细腻,e,,,,,,,,,,,,,,,,,,,,,,,,,,,,,,,,,,,,,,,,,
,,,,,,,,,,,,,1,001,2025-01-03_07h12.44.249,IAT(Formal),2021.2.3,Win32,60.60606061,,,,,,,,,,,,,,,,e,1,0.4064,0,57,57,51,1,我的,e,,,,,,,,,,,,,,,,,,,,,,,,,,,,,,,,,,,,,,,,,
,,,,,,,,,,,,,1,001,2025-01-03_07h12.44.249,IAT(Formal),2021.2.3,Win32,60.60606061,,,,,,,,,,,,,,,,e,1,0.5281,0,58,58,0,1,我,e,,,,,,,,,,,,,,,,,,,,,,,,,,,,,,,,,,,,,,,,,
,,,,,,,,,,,,,1,001,2025-01-03_07h12.44.249,IAT(Formal),2021.2.3,Win32,60.60606061,,,,,,,,,,,,,,,,i,1,0.5642,0,59,59,42,1,凶狠,i,,,,,,,,,,,,,,,,,,,,,,,,,,,,,,,,,,,,,,,,,
,,,,,,,,,,,,,1,001,2025-01-03_07h12.44.249,IAT(Formal),2021.2.3,Win32,60.60606061,,,,,,,,,,,,,,,,e,1,0.6368,0,60,60,73,1,自己,e,,,,,,,,,,,,,,,,,,,,,,,,,,,,,,,,,,,,,,,,,
,,,,,,,,,,,,,1,001,2025-01-03_07h12.44.249,IAT(Formal),2021.2.3,Win32,60.60606061,,,,,,,,,,,,,,,,i,1,0.8088,0,61,61,38,1,鲁莽,i,,,,,,,,,,,,,,,,,,,,,,,,,,,,,,,,,,,,,,,,,
,,,,,,,,,,,,,1,001,2025-01-03_07h12.44.249,IAT(Formal),2021.2.3,Win32,60.60606061,,,,,,,,,,,,,,,,i,1,0.5233,0,62,62,56,1,他们,i,,,,,,,,,,,,,,,,,,,,,,,,,,,,,,,,,,,,,,,,,
,,,,,,,,,,,,,1,001,2025-01-03_07h12.44.249,IAT(Formal),2021.2.3,Win32,60.60606061,,,,,,,,,,,,,,,,i,1,0.5159,0,63,63,7,1,他的,i,,,,,,,,,,,,,,,,,,,,,,,,,,,,,,,,,,,,,,,,,
,,,,,,,,,,,,,1,001,2025-01-03_07h12.44.249,IAT(Formal),2021.2.3,Win32,60.60606061,,,,,,,,,,,,,,,,e,1,0.4987,0,64,64,3,1,自己,e,,,,,,,,,,,,,,,,,,,,,,,,,,,,,,,,,,,,,,,,,
,,,,,,,,,,,,,1,001,2025-01-03_07h12.44.249,IAT(Formal),2021.2.3,Win32,60.60606061,,,,,,,,,,,,,,,,e,1,0.4332,0,65,65,15,1,诚实,e,,,,,,,,,,,,,,,,,,,,,,,,,,,,,,,,,,,,,,,,,
,,,,,,,,,,,,,1,001,2025-01-03_07h12.44.249,IAT(Formal),2021.2.3,Win32,60.60606061,,,,,,,,,,,,,,,,i,1,0.4912,0,66,66,55,1,他,i,,,,,,,,,,,,,,,,,,,,,,,,,,,,,,,,,,,,,,,,,
,,,,,,,,,,,,,1,001,2025-01-03_07h12.44.249,IAT(Formal),2021.2.3,Win32,60.60606061,,,,,,,,,,,,,,,,e,1,0.3281,0,67,67,52,1,我们,e,,,,,,,,,,,,,,,,,,,,,,,,,,,,,,,,,,,,,,,,,
,,,,,,,,,,,,,1,001,2025-01-03_07h12.44.249,IAT(Formal),2021.2.3,Win32,60.60606061,,,,,,,,,,,,,,,,e,1,0.7046,0,68,68,26,1,冷静,e,,,,,,,,,,,,,,,,,,,,,,,,,,,,,,,,,,,,,,,,,
,,,,,,,,,,,,,1,001,2025-01-03_07h12.44.249,IAT(Formal),2021.2.3,Win32,60.60606061,,,,,,,,,,,,,,,,e,0,0.4077,0,69,69,5,1,他,i,,,,,,,,,,,,,,,,,,,,,,,,,,,,,,,,,,,,,,,,,
,,,,,,,,,,,,,1,001,2025-01-03_07h12.44.249,IAT(Formal),2021.2.3,Win32,60.60606061,,,,,,,,,,,,,,,,e,1,0.7455,0,70,70,22,1,无私,e,,,,,,,,,,,,,,,,,,,,,,,,,,,,,,,,,,,,,,,,,
,,,,,,,,,,,,,1,001,2025-01-03_07h12.44.249,IAT(Formal),2021.2.3,Win32,60.60606061,,,,,,,,,,,,,,,,i,1,0.6455,0,71,71,32,1,愚蠢,i,,,,,,,,,,,,,,,,,,,,,,,,,,,,,,,,,,,,,,,,,
,,,,,,,,,,,,,1,001,2025-01-03_07h12.44.249,IAT(Formal),2021.2.3,Win32,60.60606061,,,,,,,,,,,,,,,,e,1,0.5532,0,72,72,24,1,朴实,e,,,,,,,,,,,,,,,,,,,,,,,,,,,,,,,,,,,,,,,,,
,,,,,,,,,,,,,1,001,2025-01-03_07h12.44.249,IAT(Formal),2021.2.3,Win32,60.60606061,,,,,,,,,,,,,,,,i,1,0.4283,0,73,73,46,1,野蛮,i,,,,,,,,,,,,,,,,,,,,,,,,,,,,,,,,,,,,,,,,,
,,,,,,,,,,,,,1,001,2025-01-03_07h12.44.249,IAT(Formal),2021.2.3,Win32,60.60606061,,,,,,,,,,,,,,,,i,1,0.5489,0,74,74,34,1,悲观,i,,,,,,,,,,,,,,,,,,,,,,,,,,,,,,,,,,,,,,,,,
,,,,,,,,,,,,,1,001,2025-01-03_07h12.44.249,IAT(Formal),2021.2.3,Win32,60.60606061,,,,,,,,,,,,,,,,i,1,0.5557,0,75,75,75,1,他,i,,,,,,,,,,,,,,,,,,,,,,,,,,,,,,,,,,,,,,,,,
,,,,,,,,,,,,,1,001,2025-01-03_07h12.44.249,IAT(Formal),2021.2.3,Win32,60.60606061,,,,,,,,,,,,,,,,e,1,0.4987,0,76,76,50,1,我,e,,,,,,,,,,,,,,,,,,,,,,,,,,,,,,,,,,,,,,,,,
,,,,,,,,,,,,,1,001,2025-01-03_07h12.44.249,IAT(Formal),2021.2.3,Win32,60.60606061,,,,,,,,,,,,,,,,i,1,0.4869,0,77,77,36,1,自卑,i,,,,,,,,,,,,,,,,,,,,,,,,,,,,,,,,,,,,,,,,,
,,,,,,,,,,,,,1,001,2025-01-03_07h12.44.249,IAT(Formal),2021.2.3,Win32,60.60606061,,,,,,,,,,,,,,,,i,1,0.4953,0,78,78,39,1,冒失,i,,,,,,,,,,,,,,,,,,,,,,,,,,,,,,,,,,,,,,,,,
,,,,,,,,,,,,,1,001,2025-01-03_07h12.44.249,IAT(Formal),2021.2.3,Win32,60.60606061,,,,,,,,,,,,,,,,e,0,0.404,0,79,79,6,1,他们,i,,,,,,,,,,,,,,,,,,,,,,,,,,,,,,,,,,,,,,,,,
,,,,,,,,,,,,,1,001,2025-01-03_07h12.44.249,IAT(Formal),2021.2.3,Win32,60.60606061,,,,,,,,,,,,,,,,e,1,0.5611,,,,,,我们,e,space,16.1055,0,0,0,52,1,,,,,,,,,,,,,,,,,,,,,,,,,,,,,,,,,,
,,,,,,,,,,,,,1,001,2025-01-03_07h12.44.249,IAT(Formal),2021.2.3,Win32,60.60606061,,,,,,,,,,,,,,,,i,1,0.3701,,,,,,他的,i,,,0,1,1,77,1,,,,,,,,,,,,,,,,,,,,,,,,,,,,,,,,,,
,,,,,,,,,,,,,1,001,2025-01-03_07h12.44.249,IAT(Formal),2021.2.3,Win32,60.60606061,,,,,,,,,,,,,,,,i,1,0.3841,,,,,,他,i,,,0,2,2,5,1,,,,,,,,,,,,,,,,,,,,,,,,,,,,,,,,,,
,,,,,,,,,,,,,1,001,2025-01-03_07h12.44.249,IAT(Formal),2021.2.3,Win32,60.60606061,,,,,,,,,,,,,,,,i,1,0.4413,,,,,,他,i,,,0,3,3,75,1,,,,,,,,,,,,,,,,,,,,,,,,,,,,,,,,,,
,,,,,,,,,,,,,1,001,2025-01-03_07h12.44.249,IAT(Formal),2021.2.3,Win32,60.60606061,,,,,,,,,,,,,,,,e,1,0.7006,,,,,,冷静,e,,,0,4,4,26,1,,,,,,,,,,,,,,,,,,,,,,,,,,,,,,,,,,
,,,,,,,,,,,,,1,001,2025-01-03_07h12.44.249,IAT(Formal),2021.2.3,Win32,60.60606061,,,,,,,,,,,,,,,,i,1,0.5168,,,,,,他人,i,,,0,5,5,68,1,,,,,,,,,,,,,,,,,,,,,,,,,,,,,,,,,,
,,,,,,,,,,,,,1,001,2025-01-03_07h12.44.249,IAT(Formal),2021.2.3,Win32,60.60606061,,,,,,,,,,,,,,,,e,1,0.4334,,,,,,我的,e,,,0,6,6,61,1,,,,,,,,,,,,,,,,,,,,,,,,,,,,,,,,,,
,,,,,,,,,,,,,1,001,2025-01-03_07h12.44.249,IAT(Formal),2021.2.3,Win32,60.60606061,,,,,,,,,,,,,,,,i,1,0.457,,,,,,其他,i,,,0,7,7,79,1,,,,,,,,,,,,,,,,,,,,,,,,,,,,,,,,,,
,,,,,,,,,,,,,1,001,2025-01-03_07h12.44.249,IAT(Formal),2021.2.3,Win32,60.60606061,,,,,,,,,,,,,,,,i,1,0.4734,,,,,,鲁莽,i,,,0,8,8,38,1,,,,,,,,,,,,,,,,,,,,,,,,,,,,,,,,,,
,,,,,,,,,,,,,1,001,2025-01-03_07h12.44.249,IAT(Formal),2021.2.3,Win32,60.60606061,,,,,,,,,,,,,,,,e,1,0.5635,,,,,,我的,e,,,0,9,9,51,1,,,,,,,,,,,,,,,,,,,,,,,,,,,,,,,,,,
,,,,,,,,,,,,,1,001,2025-01-03_07h12.44.249,IAT(Formal),2021.2.3,Win32,60.60606061,,,,,,,,,,,,,,,,i,1,0.5014,,,,,,凶狠,i,,,0,10,10,42,1,,,,,,,,,,,,,,,,,,,,,,,,,,,,,,,,,,
,,,,,,,,,,,,,1,001,2025-01-03_07h12.44.249,IAT(Formal),2021.2.3,Win32,60.60606061,,,,,,,,,,,,,,,,e,0,0.5453,,,,,,冒失,i,,,0,11,11,39,1,,,,,,,,,,,,,,,,,,,,,,,,,,,,,,,,,,
,,,,,,,,,,,,,1,001,2025-01-03_07h12.44.249,IAT(Formal),2021.2.3,Win32,60.60606061,,,,,,,,,,,,,,,,i,1,0.587,,,,,,执拗,i,,,0,12,12,40,1,,,,,,,,,,,,,,,,,,,,,,,,,,,,,,,,,,
,,,,,,,,,,,,,1,001,2025-01-03_07h12.44.249,IAT(Formal),2021.2.3,Win32,60.60606061,,,,,,,,,,,,,,,,e,1,1.1179,,,,,,无私,e,,,0,13,13,22,1,,,,,,,,,,,,,,,,,,,,,,,,,,,,,,,,,,
,,,,,,,,,,,,,1,001,2025-01-03_07h12.44.249,IAT(Formal),2021.2.3,Win32,60.60606061,,,,,,,,,,,,,,,,e,1,0.4679,,,,,,我们,e,,,0,14,14,62,1,,,,,,,,,,,,,,,,,,,,,,,,,,,,,,,,,,
,,,,,,,,,,,,,1,001,2025-01-03_07h12.44.249,IAT(Formal),2021.2.3,Win32,60.60606061,,,,,,,,,,,,,,,,e,1,0.4844,,,,,,自己,e,,,0,15,15,3,1,,,,,,,,,,,,,,,,,,,,,,,,,,,,,,,,,,
,,,,,,,,,,,,,1,001,2025-01-03_07h12.44.249,IAT(Formal),2021.2.3,Win32,60.60606061,,,,,,,,,,,,,,,,e,1,0.8493,,,,,,热情,e,,,0,16,16,27,1,,,,,,,,,,,,,,,,,,,,,,,,,,,,,,,,,,
,,,,,,,,,,,,,1,001,2025-01-03_07h12.44.249,IAT(Formal),2021.2.3,Win32,60.60606061,,,,,,,,,,,,,,,,i,1,0.4514,,,,,,下贱,i,,,0,17,17,49,1,,,,,,,,,,,,,,,,,,,,,,,,,,,,,,,,,,
,,,,,,,,,,,,,1,001,2025-01-03_07h12.44.249,IAT(Formal),2021.2.3,Win32,60.60606061,,,,,,,,,,,,,,,,e,1,0.4527,,,,,,自己,e,,,0,18,18,73,1,,,,,,,,,,,,,,,,,,,,,,,,,,,,,,,,,,
,,,,,,,,,,,,,1,001,2025-01-03_07h12.44.249,IAT(Formal),2021.2.3,Win32,60.60606061,,,,,,,,,,,,,,,,e,1,0.3905,,,,,,我,e,,,0,19,19,60,1,,,,,,,,,,,,,,,,,,,,,,,,,,,,,,,,,,
,,,,,,,,,,,,,1,001,2025-01-03_07h12.44.249,IAT(Formal),2021.2.3,Win32,60.60606061,,,,,,,,,,,,,,,,e,1,0.8925,,,,,,乐观,e,,,0,20,20,14,1,,,,,,,,,,,,,,,,,,,,,,,,,,,,,,,,,,
,,,,,,,,,,,,,1,001,2025-01-03_07h12.44.249,IAT(Formal),2021.2.3,Win32,60.60606061,,,,,,,,,,,,,,,,i,1,0.567,,,,,,卑鄙,i,,,0,21,21,30,1,,,,,,,,,,,,,,,,,,,,,,,,,,,,,,,,,,
,,,,,,,,,,,,,1,001,2025-01-03_07h12.44.249,IAT(Formal),2021.2.3,Win32,60.60606061,,,,,,,,,,,,,,,,i,0,0.4429,,,,,,细腻,e,,,0,22,22,25,1,,,,,,,,,,,,,,,,,,,,,,,,,,,,,,,,,,
,,,,,,,,,,,,,1,001,2025-01-03_07h12.44.249,IAT(Formal),2021.2.3,Win32,60.60606061,,,,,,,,,,,,,,,,e,1,0.4803,,,,,,俺,e,,,0,23,23,64,1,,,,,,,,,,,,,,,,,,,,,,,,,,,,,,,,,,
,,,,,,,,,,,,,1,001,2025-01-03_07h12.44.249,IAT(Formal),2021.2.3,Win32,60.60606061,,,,,,,,,,,,,,,,e,1,0.4978,,,,,,朴实,e,,,0,24,24,24,1,,,,,,,,,,,,,,,,,,,,,,,,,,,,,,,,,,
,,,,,,,,,,,,,1,001,2025-01-03_07h12.44.249,IAT(Formal),2021.2.3,Win32,60.60606061,,,,,,,,,,,,,,,,i,1,0.4546,,,,,,暴躁,i,,,0,25,25,44,1,,,,,,,,,,,,,,,,,,,,,,,,,,,,,,,,,,
,,,,,,,,,,,,,1,001,2025-01-03_07h12.44.249,IAT(Formal),2021.2.3,Win32,60.60606061,,,,,,,,,,,,,,,,i,1,0.993,,,,,,悲观,i,,,0,26,26,34,1,,,,,,,,,,,,,,,,,,,,,,,,,,,,,,,,,,
,,,,,,,,,,,,,1,001,2025-01-03_07h12.44.249,IAT(Formal),2021.2.3,Win32,60.60606061,,,,,,,,,,,,,,,,i,1,0.5776,,,,,,他的,i,,,0,27,27,7,1,,,,,,,,,,,,,,,,,,,,,,,,,,,,,,,,,,
,,,,,,,,,,,,,1,001,2025-01-03_07h12.44.249,IAT(Formal),2021.2.3,Win32,60.60606061,,,,,,,,,,,,,,,,e,1,0.6001,,,,,,杰出,e,,,0,28,28,13,1,,,,,,,,,,,,,,,,,,,,,,,,,,,,,,,,,,
,,,,,,,,,,,,,1,001,2025-01-03_07h12.44.249,IAT(Formal),2021.2.3,Win32,60.60606061,,,,,,,,,,,,,,,,i,1,0.7295,,,,,,固执,i,,,0,29,29,47,1,,,,,,,,,,,,,,,,,,,,,,,,,,,,,,,,,,
,,,,,,,,,,,,,1,001,2025-01-03_07h12.44.249,IAT(Formal),2021.2.3,Win32,60.60606061,,,,,,,,,,,,,,,,i,1,0.4622,,,,,,他人,i,,,0,30,30,58,1,,,,,,,,,,,,,,,,,,,,,,,,,,,,,,,,,,
,,,,,,,,,,,,,1,001,2025-01-03_07h12.44.249,IAT(Formal),2021.2.3,Win32,60.60606061,,,,,,,,,,,,,,,,i,1,0.367,,,,,,他人,i,,,0,31,31,78,1,,,,,,,,,,,,,,,,,,,,,,,,,,,,,,,,,,
,,,,,,,,,,,,,1,001,2025-01-03_07h12.44.249,IAT(Formal),2021.2.3,Win32,60.60606061,,,,,,,,,,,,,,,,e,1,0.826,,,,,,公正,e,,,0,32,32,23,1,,,,,,,,,,,,,,,,,,,,,,,,,,,,,,,,,,
,,,,,,,,,,,,,1,001,2025-01-03_07h12.44.249,IAT(Formal),2021.2.3,Win32,60.60606061,,,,,,,,,,,,,,,,e,1,0.5582,,,,,,机智,e,,,0,33,33,19,1,,,,,,,,,,,,,,,,,,,,,,,,,,,,,,,,,,
,,,,,,,,,,,,,1,001,2025-01-03_07h12.44.249,IAT(Formal),2021.2.3,Win32,60.60606061,,,,,,,,,,,,,,,,e,1,0.4343,,,,,,优秀,e,,,0,34,34,10,1,,,,,,,,,,,,,,,,,,,,,,,,,,,,,,,,,,
,,,,,,,,,,,,,1,001,2025-01-03_07h12.44.249,IAT(Formal),2021.2.3,Win32,60.60606061,,,,,,,,,,,,,,,,e,1,0.4823,,,,,,崇高,e,,,0,35,35,11,1,,,,,,,,,,,,,,,,,,,,,,,,,,,,,,,,,,
,,,,,,,,,,,,,1,001,2025-01-03_07h12.44.249,IAT(Formal),2021.2.3,Win32,60.60606061,,,,,,,,,,,,,,,,e,1,0.4668,,,,,,我,e,,,0,36,36,50,1,,,,,,,,,,,,,,,,,,,,,,,,,,,,,,,,,,
,,,,,,,,,,,,,1,001,2025-01-03_07h12.44.249,IAT(Formal),2021.2.3,Win32,60.60606061,,,,,,,,,,,,,,,,e,1,0.5707,,,,,,正直,e,,,0,37,37,16,1,,,,,,,,,,,,,,,,,,,,,,,,,,,,,,,,,,
,,,,,,,,,,,,,1,001,2025-01-03_07h12.44.249,IAT(Formal),2021.2.3,Win32,60.60606061,,,,,,,,,,,,,,,,i,1,0.4859,,,,,,他们,i,,,0,38,38,76,1,,,,,,,,,,,,,,,,,,,,,,,,,,,,,,,,,,
,,,,,,,,,,,,,1,001,2025-01-03_07h12.44.249,IAT(Formal),2021.2.3,Win32,60.60606061,,,,,,,,,,,,,,,,e,1,0.5117,,,,,,自己,e,,,0,39,39,53,1,,,,,,,,,,,,,,,,,,,,,,,,,,,,,,,,,,
,,,,,,,,,,,,,1,001,2025-01-03_07h12.44.249,IAT(Formal),2021.2.3,Win32,60.60606061,,,,,,,,,,,,,,,,i,1,0.6343,,,,,,散漫,i,,,0,40,40,41,1,,,,,,,,,,,,,,,,,,,,,,,,,,,,,,,,,,
,,,,,,,,,,,,,1,001,2025-01-03_07h12.44.249,IAT(Formal),2021.2.3,Win32,60.60606061,,,,,,,,,,,,,,,,i,1,0.449,,,,,,他,i,,,0,41,41,65,1,,,,,,,,,,,,,,,,,,,,,,,,,,,,,,,,,,
,,,,,,,,,,,,,1,001,2025-01-03_07h12.44.249,IAT(Formal),2021.2.3,Win32,60.60606061,,,,,,,,,,,,,,,,e,1,0.9993,,,,,,聪明,e,,,0,42,42,12,1,,,,,,,,,,,,,,,,,,,,,,,,,,,,,,,,,,
,,,,,,,,,,,,,1,001,2025-01-03_07h12.44.249,IAT(Formal),2021.2.3,Win32,60.60606061,,,,,,,,,,,,,,,,e,1,0.5592,,,,,,我,e,,,0,43,43,0,1,,,,,,,,,,,,,,,,,,,,,,,,,,,,,,,,,,
,,,,,,,,,,,,,1,001,2025-01-03_07h12.44.249,IAT(Formal),2021.2.3,Win32,60.60606061,,,,,,,,,,,,,,,,i,1,0.3989,,,,,,野蛮,i,,,0,44,44,46,1,,,,,,,,,,,,,,,,,,,,,,,,,,,,,,,,,,
,,,,,,,,,,,,,1,001,2025-01-03_07h12.44.249,IAT(Formal),2021.2.3,Win32,60.60606061,,,,,,,,,,,,,,,,i,1,0.6545,,,,,,他的,i,,,0,45,45,57,1,,,,,,,,,,,,,,,,,,,,,,,,,,,,,,,,,,
,,,,,,,,,,,,,1,001,2025-01-03_07h12.44.249,IAT(Formal),2021.2.3,Win32,60.60606061,,,,,,,,,,,,,,,,i,1,0.5146,,,,,,傲慢,i,,,0,46,46,37,1,,,,,,,,,,,,,,,,,,,,,,,,,,,,,,,,,,
,,,,,,,,,,,,,1,001,2025-01-03_07h12.44.249,IAT(Formal),2021.2.3,Win32,60.60606061,,,,,,,,,,,,,,,,e,1,0.4291,,,,,,自己,e,,,0,47,47,63,1,,,,,,,,,,,,,,,,,,,,,,,,,,,,,,,,,,
,,,,,,,,,,,,,1,001,2025-01-03_07h12.44.249,IAT(Formal),2021.2.3,Win32,60.60606061,,,,,,,,,,,,,,,,e,1,1.0355,,,,,,勤奋,e,,,0,48,48,18,1,,,,,,,,,,,,,,,,,,,,,,,,,,,,,,,,,,
,,,,,,,,,,,,,1,001,2025-01-03_07h12.44.249,IAT(Formal),2021.2.3,Win32,60.60606061,,,,,,,,,,,,,,,,e,1,0.5731,,,,,,认真,e,,,0,49,49,20,1,,,,,,,,,,,,,,,,,,,,,,,,,,,,,,,,,,
,,,,,,,,,,,,,1,001,2025-01-03_07h12.44.249,IAT(Formal),2021.2.3,Win32,60.60606061,,,,,,,,,,,,,,,,e,1,0.5649,,,,,,俺,e,,,0,50,50,74,1,,,,,,,,,,,,,,,,,,,,,,,,,,,,,,,,,,
,,,,,,,,,,,,,1,001,2025-01-03_07h12.44.249,IAT(Formal),2021.2.3,Win32,60.60606061,,,,,,,,,,,,,,,,i,1,0.5365,,,,,,他,i,,,0,51,51,55,1,,,,,,,,,,,,,,,,,,,,,,,,,,,,,,,,,,
,,,,,,,,,,,,,1,001,2025-01-03_07h12.44.249,IAT(Formal),2021.2.3,Win32,60.60606061,,,,,,,,,,,,,,,,e,1,0.5888,,,,,,我,e,,,0,52,52,70,1,,,,,,,,,,,,,,,,,,,,,,,,,,,,,,,,,,
,,,,,,,,,,,,,1,001,2025-01-03_07h12.44.249,IAT(Formal),2021.2.3,Win32,60.60606061,,,,,,,,,,,,,,,,i,1,0.5167,,,,,,刻薄,i,,,0,53,53,33,1,,,,,,,,,,,,,,,,,,,,,,,,,,,,,,,,,,
,,,,,,,,,,,,,1,001,2025-01-03_07h12.44.249,IAT(Formal),2021.2.3,Win32,60.60606061,,,,,,,,,,,,,,,,i,1,0.6326,,,,,,其他,i,,,0,54,54,59,1,,,,,,,,,,,,,,,,,,,,,,,,,,,,,,,,,,
,,,,,,,,,,,,,1,001,2025-01-03_07h12.44.249,IAT(Formal),2021.2.3,Win32,60.60606061,,,,,,,,,,,,,,,,e,1,0.6203,,,,,,勇敢,e,,,0,55,55,17,1,,,,,,,,,,,,,,,,,,,,,,,,,,,,,,,,,,
,,,,,,,,,,,,,1,001,2025-01-03_07h12.44.249,IAT(Formal),2021.2.3,Win32,60.60606061,,,,,,,,,,,,,,,,e,1,0.8103,,,,,,活泼,e,,,0,56,56,28,1,,,,,,,,,,,,,,,,,,,,,,,,,,,,,,,,,,
,,,,,,,,,,,,,1,001,2025-01-03_07h12.44.249,IAT(Formal),2021.2.3,Win32,60.60606061,,,,,,,,,,,,,,,,e,0,0.6376,,,,,,他们,i,,,0,57,57,56,1,,,,,,,,,,,,,,,,,,,,,,,,,,,,,,,,,,
,,,,,,,,,,,,,1,001,2025-01-03_07h12.44.249,IAT(Formal),2021.2.3,Win32,60.60606061,,,,,,,,,,,,,,,,i,1,0.5278,,,,,,他的,i,,,0,58,58,67,1,,,,,,,,,,,,,,,,,,,,,,,,,,,,,,,,,,
,,,,,,,,,,,,,1,001,2025-01-03_07h12.44.249,IAT(Formal),2021.2.3,Win32,60.60606061,,,,,,,,,,,,,,,,e,1,0.7486,,,,,,诚恳,e,,,0,59,59,29,1,,,,,,,,,,,,,,,,,,,,,,,,,,,,,,,,,,
,,,,,,,,,,,,,1,001,2025-01-03_07h12.44.249,IAT(Formal),2021.2.3,Win32,60.60606061,,,,,,,,,,,,,,,,e,1,0.6406,,,,,,俺,e,,,0,60,60,54,1,,,,,,,,,,,,,,,,,,,,,,,,,,,,,,,,,,
,,,,,,,,,,,,,1,001,2025-01-03_07h12.44.249,IAT(Formal),2021.2.3,Win32,60.60606061,,,,,,,,,,,,,,,,i,1,0.5867,,,,,,自卑,i,,,0,61,61,36,1,,,,,,,,,,,,,,,,,,,,,,,,,,,,,,,,,,
,,,,,,,,,,,,,1,001,2025-01-03_07h12.44.249,IAT(Formal),2021.2.3,Win32,60.60606061,,,,,,,,,,,,,,,,i,1,0.6185,,,,,,轻率,i,,,0,62,62,48,1,,,,,,,,,,,,,,,,,,,,,,,,,,,,,,,,,,
,,,,,,,,,,,,,1,001,2025-01-03_07h12.44.249,IAT(Formal),2021.2.3,Win32,60.60606061,,,,,,,,,,,,,,,,e,0,0.7285,,,,,,他们,i,,,0,63,63,66,1,,,,,,,,,,,,,,,,,,,,,,,,,,,,,,,,,,
,,,,,,,,,,,,,1,001,2025-01-03_07h12.44.249,IAT(Formal),2021.2.3,Win32,60.60606061,,,,,,,,,,,,,,,,i,1,0.5701,,,,,,自私,i,,,0,64,64,43,1,,,,,,,,,,,,,,,,,,,,,,,,,,,,,,,,,,
,,,,,,,,,,,,,1,001,2025-01-03_07h12.44.249,IAT(Formal),2021.2.3,Win32,60.60606061,,,,,,,,,,,,,,,,e,1,0.6118,,,,,,俺,e,,,0,65,65,4,1,,,,,,,,,,,,,,,,,,,,,,,,,,,,,,,,,,
,,,,,,,,,,,,,1,001,2025-01-03_07h12.44.249,IAT(Formal),2021.2.3,Win32,60.60606061,,,,,,,,,,,,,,,,e,1,0.5901,,,,,,我们,e,,,0,66,66,2,1,,,,,,,,,,,,,,,,,,,,,,,,,,,,,,,,,,
,,,,,,,,,,,,,1,001,2025-01-03_07h12.44.249,IAT(Formal),2021.2.3,Win32,60.60606061,,,,,,,,,,,,,,,,i,1,0.5943,,,,,,虚伪,i,,,0,67,67,31,1,,,,,,,,,,,,,,,,,,,,,,,,,,,,,,,,,,
,,,,,,,,,,,,,1,001,2025-01-03_07h12.44.249,IAT(Formal),2021.2.3,Win32,60.60606061,,,,,,,,,,,,,,,,,0,,,,,,,他人,i,,,0,68,68,8,1,,,,,,,,,,,,,,,,,,,,,,,,,,,,,,,,,,
,,,,,,,,,,,,,1,001,2025-01-03_07h12.44.249,IAT(Formal),2021.2.3,Win32,60.60606061,,,,,,,,,,,,,,,,e,1,0.5019,,,,,,诚实,e,,,0,69,69,15,1,,,,,,,,,,,,,,,,,,,,,,,,,,,,,,,,,,
,,,,,,,,,,,,,1,001,2025-01-03_07h12.44.249,IAT(Formal),2021.2.3,Win32,60.60606061,,,,,,,,,,,,,,,,i,1,1.1349,,,,,,他们,i,,,0,70,70,6,1,,,,,,,,,,,,,,,,,,,,,,,,,,,,,,,,,,
,,,,,,,,,,,,,1,001,2025-01-03_07h12.44.249,IAT(Formal),2021.2.3,Win32,60.60606061,,,,,,,,,,,,,,,,i,1,0.5245,,,,,,消极,i,,,0,71,71,35,1,,,,,,,,,,,,,,,,,,,,,,,,,,,,,,,,,,
,,,,,,,,,,,,,1,001,2025-01-03_07h12.44.249,IAT(Formal),2021.2.3,Win32,60.60606061,,,,,,,,,,,,,,,,e,1,0.4495,,,,,,我的,e,,,0,72,72,71,1,,,,,,,,,,,,,,,,,,,,,,,,,,,,,,,,,,
,,,,,,,,,,,,,1,001,2025-01-03_07h12.44.249,IAT(Formal),2021.2.3,Win32,60.60606061,,,,,,,,,,,,,,,,e,1,0.4326,,,,,,我们,e,,,0,73,73,72,1,,,,,,,,,,,,,,,,,,,,,,,,,,,,,,,,,,
,,,,,,,,,,,,,1,001,2025-01-03_07h12.44.249,IAT(Formal),2021.2.3,Win32,60.60606061,,,,,,,,,,,,,,,,i,1,0.6157,,,,,,愚蠢,i,,,0,74,74,32,1,,,,,,,,,,,,,,,,,,,,,,,,,,,,,,,,,,
,,,,,,,,,,,,,1,001,2025-01-03_07h12.44.249,IAT(Formal),2021.2.3,Win32,60.60606061,,,,,,,,,,,,,,,,i,1,0.47,,,,,,其他,i,,,0,75,75,69,1,,,,,,,,,,,,,,,,,,,,,,,,,,,,,,,,,,
,,,,,,,,,,,,,1,001,2025-01-03_07h12.44.249,IAT(Formal),2021.2.3,Win32,60.60606061,,,,,,,,,,,,,,,,i,1,0.4578,,,,,,其他,i,,,0,76,76,9,1,,,,,,,,,,,,,,,,,,,,,,,,,,,,,,,,,,
,,,,,,,,,,,,,1,001,2025-01-03_07h12.44.249,IAT(Formal),2021.2.3,Win32,60.60606061,,,,,,,,,,,,,,,,e,1,0.3734,,,,,,我的,e,,,0,77,77,1,1,,,,,,,,,,,,,,,,,,,,,,,,,,,,,,,,,,
,,,,,,,,,,,,,1,001,2025-01-03_07h12.44.249,IAT(Formal),2021.2.3,Win32,60.60606061,,,,,,,,,,,,,,,,i,1,0.4654,,,,,,猖狂,i,,,0,78,78,45,1,,,,,,,,,,,,,,,,,,,,,,,,,,,,,,,,,,
,,,,,,,,,,,,,1,001,2025-01-03_07h12.44.249,IAT(Formal),2021.2.3,Win32,60.60606061,,,,,,,,,,,,,,,,e,1,0.5985,,,,,,稳重,e,,,0,79,79,21,1,,,,,,,,,,,,,,,,,,,,,,,,,,,,,,,,,,
,,,,,,,,,,,,,1,001,2025-01-03_07h12.44.249,IAT(Formal),2021.2.3,Win32,60.60606061,,,,,,,,,,,,,,,,e,1,0.5906,,,,,,俺,e,,,1,0,80,64,1,,,,,,,,,,,,,,,,,,,,,,,,,,,,,,,,,,
,,,,,,,,,,,,,1,001,2025-01-03_07h12.44.249,IAT(Formal),2021.2.3,Win32,60.60606061,,,,,,,,,,,,,,,,i,1,0.4383,,,,,,卑鄙,i,,,1,1,81,30,1,,,,,,,,,,,,,,,,,,,,,,,,,,,,,,,,,,
,,,,,,,,,,,,,1,001,2025-01-03_07h12.44.249,IAT(Formal),2021.2.3,Win32,60.60606061,,,,,,,,,,,,,,,,e,1,0.5318,,,,,,认真,e,,,1,2,82,20,1,,,,,,,,,,,,,,,,,,,,,,,,,,,,,,,,,,
,,,,,,,,,,,,,1,001,2025-01-03_07h12.44.249,IAT(Formal),2021.2.3,Win32,60.60606061,,,,,,,,,,,,,,,,e,1,0.36,,,,,,我们,e,,,1,3,83,62,1,,,,,,,,,,,,,,,,,,,,,,,,,,,,,,,,,,
,,,,,,,,,,,,,1,001,2025-01-03_07h12.44.249,IAT(Formal),2021.2.3,Win32,60.60606061,,,,,,,,,,,,,,,,e,1,0.5257,,,,,,朴实,e,,,1,4,84,24,1,,,,,,,,,,,,,,,,,,,,,,,,,,,,,,,,,,
,,,,,,,,,,,,,1,001,2025-01-03_07h12.44.249,IAT(Formal),2021.2.3,Win32,60.60606061,,,,,,,,,,,,,,,,e,1,0.4986,,,,,,杰出,e,,,1,5,85,13,1,,,,,,,,,,,,,,,,,,,,,,,,,,,,,,,,,,
,,,,,,,,,,,,,1,001,2025-01-03_07h12.44.249,IAT(Formal),2021.2.3,Win32,60.60606061,,,,,,,,,,,,,,,,i,1,0.3626,,,,,,他的,i,,,1,6,86,57,1,,,,,,,,,,,,,,,,,,,,,,,,,,,,,,,,,,
,,,,,,,,,,,,,1,001,2025-01-03_07h12.44.249,IAT(Formal),2021.2.3,Win32,60.60606061,,,,,,,,,,,,,,,,i,1,0.7205,,,,,,他,i,,,1,7,87,75,1,,,,,,,,,,,,,,,,,,,,,,,,,,,,,,,,,,
,,,,,,,,,,,,,1,001,2025-01-03_07h12.44.249,IAT(Formal),2021.2.3,Win32,60.60606061,,,,,,,,,,,,,,,,e,1,0.6566,,,,,,俺,e,,,1,8,88,74,1,,,,,,,,,,,,,,,,,,,,,,,,,,,,,,,,,,
,,,,,,,,,,,,,1,001,2025-01-03_07h12.44.249,IAT(Formal),2021.2.3,Win32,60.60606061,,,,,,,,,,,,,,,,e,1,0.5721,,,,,,正直,e,,,1,9,89,16,1,,,,,,,,,,,,,,,,,,,,,,,,,,,,,,,,,,
,,,,,,,,,,,,,1,001,2025-01-03_07h12.44.249,IAT(Formal),2021.2.3,Win32,60.60606061,,,,,,,,,,,,,,,,i,1,0.4998,,,,,,猖狂,i,,,1,10,90,45,1,,,,,,,,,,,,,,,,,,,,,,,,,,,,,,,,,,
,,,,,,,,,,,,,1,001,2025-01-03_07h12.44.249,IAT(Formal),2021.2.3,Win32,60.60606061,,,,,,,,,,,,,,,,i,1,0.5479,,,,,,傲慢,i,,,1,11,91,37,1,,,,,,,,,,,,,,,,,,,,,,,,,,,,,,,,,,
,,,,,,,,,,,,,1,001,2025-01-03_07h12.44.249,IAT(Formal),2021.2.3,Win32,60.60606061,,,,,,,,,,,,,,,,e,1,0.9855,,,,,,聪明,e,,,1,12,92,12,1,,,,,,,,,,,,,,,,,,,,,,,,,,,,,,,,,,
,,,,,,,,,,,,,1,001,2025-01-03_07h12.44.249,IAT(Formal),2021.2.3,Win32,60.60606061,,,,,,,,,,,,,,,,i,1,0.4847,,,,,,他,i,,,1,13,93,65,1,,,,,,,,,,,,,,,,,,,,,,,,,,,,,,,,,,
,,,,,,,,,,,,,1,001,2025-01-03_07h12.44.249,IAT(Formal),2021.2.3,Win32,60.60606061,,,,,,,,,,,,,,,,i,1,0.4239,,,,,,消极,i,,,1,14,94,35,1,,,,,,,,,,,,,,,,,,,,,,,,,,,,,,,,,,
,,,,,,,,,,,,,1,001,2025-01-03_07h12.44.249,IAT(Formal),2021.2.3,Win32,60.60606061,,,,,,,,,,,,,,,,e,1,0.5004,,,,,,我的,e,,,1,15,95,1,1,,,,,,,,,,,,,,,,,,,,,,,,,,,,,,,,,,
,,,,,,,,,,,,,1,001,2025-01-03_07h12.44.249,IAT(Formal),2021.2.3,Win32,60.60606061,,,,,,,,,,,,,,,,i,1,0.6086,,,,,,他们,i,,,1,16,96,66,1,,,,,,,,,,,,,,,,,,,,,,,,,,,,,,,,,,
,,,,,,,,,,,,,1,001,2025-01-03_07h12.44.249,IAT(Formal),2021.2.3,Win32,60.60606061,,,,,,,,,,,,,,,,e,1,0.4236,,,,,,我,e,,,1,17,97,0,1,,,,,,,,,,,,,,,,,,,,,,,,,,,,,,,,,,
,,,,,,,,,,,,,1,001,2025-01-03_07h12.44.249,IAT(Formal),2021.2.3,Win32,60.60606061,,,,,,,,,,,,,,,,e,1,0.4337,,,,,,优秀,e,,,1,18,98,10,1,,,,,,,,,,,,,,,,,,,,,,,,,,,,,,,,,,
,,,,,,,,,,,,,1,001,2025-01-03_07h12.44.249,IAT(Formal),2021.2.3,Win32,60.60606061,,,,,,,,,,,,,,,,i,1,0.4506,,,,,,鲁莽,i,,,1,19,99,38,1,,,,,,,,,,,,,,,,,,,,,,,,,,,,,,,,,,
,,,,,,,,,,,,,1,001,2025-01-03_07h12.44.249,IAT(Formal),2021.2.3,Win32,60.60606061,,,,,,,,,,,,,,,,i,1,0.5584,,,,,,他们,i,,,1,20,100,76,1,,,,,,,,,,,,,,,,,,,,,,,,,,,,,,,,,,
,,,,,,,,,,,,,1,001,2025-01-03_07h12.44.249,IAT(Formal),2021.2.3,Win32,60.60606061,,,,,,,,,,,,,,,,e,1,0.4912,,,,,,我,e,,,1,21,101,70,1,,,,,,,,,,,,,,,,,,,,,,,,,,,,,,,,,,
,,,,,,,,,,,,,1,001,2025-01-03_07h12.44.249,IAT(Formal),2021.2.3,Win32,60.60606061,,,,,,,,,,,,,,,,e,1,1.0855,,,,,,俺,e,,,1,22,102,4,1,,,,,,,,,,,,,,,,,,,,,,,,,,,,,,,,,,
,,,,,,,,,,,,,1,001,2025-01-03_07h12.44.249,IAT(Formal),2021.2.3,Win32,60.60606061,,,,,,,,,,,,,,,,i,1,0.5354,,,,,,他,i,,,1,23,103,55,1,,,,,,,,,,,,,,,,,,,,,,,,,,,,,,,,,,
,,,,,,,,,,,,,1,001,2025-01-03_07h12.44.249,IAT(Formal),2021.2.3,Win32,60.60606061,,,,,,,,,,,,,,,,i,1,0.4921,,,,,,刻薄,i,,,1,24,104,33,1,,,,,,,,,,,,,,,,,,,,,,,,,,,,,,,,,,
,,,,,,,,,,,,,1,001,2025-01-03_07h12.44.249,IAT(Formal),2021.2.3,Win32,60.60606061,,,,,,,,,,,,,,,,e,1,0.4812,,,,,,诚实,e,,,1,25,105,15,1,,,,,,,,,,,,,,,,,,,,,,,,,,,,,,,,,,
,,,,,,,,,,,,,1,001,2025-01-03_07h12.44.249,IAT(Formal),2021.2.3,Win32,60.60606061,,,,,,,,,,,,,,,,i,1,0.5334,,,,,,散漫,i,,,1,26,106,41,1,,,,,,,,,,,,,,,,,,,,,,,,,,,,,,,,,,
,,,,,,,,,,,,,1,001,2025-01-03_07h12.44.249,IAT(Formal),2021.2.3,Win32,60.60606061,,,,,,,,,,,,,,,,i,1,0.5109,,,,,,其他,i,,,1,27,107,59,1,,,,,,,,,,,,,,,,,,,,,,,,,,,,,,,,,,
,,,,,,,,,,,,,1,001,2025-01-03_07h12.44.249,IAT(Formal),2021.2.3,Win32,60.60606061,,,,,,,,,,,,,,,,e,1,0.5343,,,,,,机智,e,,,1,28,108,19,1,,,,,,,,,,,,,,,,,,,,,,,,,,,,,,,,,,
,,,,,,,,,,,,,1,001,2025-01-03_07h12.44.249,IAT(Formal),2021.2.3,Win32,60.60606061,,,,,,,,,,,,,,,,i,1,0.4562,,,,,,他,i,,,1,29,109,5,1,,,,,,,,,,,,,,,,,,,,,,,,,,,,,,,,,,
,,,,,,,,,,,,,1,001,2025-01-03_07h12.44.249,IAT(Formal),2021.2.3,Win32,60.60606061,,,,,,,,,,,,,,,,e,1,0.6744,,,,,,俺,e,,,1,30,110,54,1,,,,,,,,,,,,,,,,,,,,,,,,,,,,,,,,,,
,,,,,,,,,,,,,1,001,2025-01-03_07h12.44.249,IAT(Formal),2021.2.3,Win32,60.60606061,,,,,,,,,,,,,,,,i,1,1.2629,,,,,,虚伪,i,,,1,31,111,31,1,,,,,,,,,,,,,,,,,,,,,,,,,,,,,,,,,,
,,,,,,,,,,,,,1,001,2025-01-03_07h12.44.249,IAT(Formal),2021.2.3,Win32,60.60606061,,,,,,,,,,,,,,,,e,1,0.8968,,,,,,自己,e,,,1,32,112,63,1,,,,,,,,,,,,,,,,,,,,,,,,,,,,,,,,,,
,,,,,,,,,,,,,1,001,2025-01-03_07h12.44.249,IAT(Formal),2021.2.3,Win32,60.60606061,,,,,,,,,,,,,,,,i,1,0.4694,,,,,,他人,i,,,1,33,113,58,1,,,,,,,,,,,,,,,,,,,,,,,,,,,,,,,,,,
,,,,,,,,,,,,,1,001,2025-01-03_07h12.44.249,IAT(Formal),2021.2.3,Win32,60.60606061,,,,,,,,,,,,,,,,e,1,0.6868,,,,,,诚恳,e,,,1,34,114,29,1,,,,,,,,,,,,,,,,,,,,,,,,,,,,,,,,,,
,,,,,,,,,,,,,1,001,2025-01-03_07h12.44.249,IAT(Formal),2021.2.3,Win32,60.60606061,,,,,,,,,,,,,,,,e,0,0.4986,,,,,,固执,i,,,1,35,115,47,1,,,,,,,,,,,,,,,,,,,,,,,,,,,,,,,,,,
,,,,,,,,,,,,,1,001,2025-01-03_07h12.44.249,IAT(Formal),2021.2.3,Win32,60.60606061,,,,,,,,,,,,,,,,e,1,0.4801,,,,,,公正,e,,,1,36,116,23,1,,,,,,,,,,,,,,,,,,,,,,,,,,,,,,,,,,
,,,,,,,,,,,,,1,001,2025-01-03_07h12.44.249,IAT(Formal),2021.2.3,Win32,60.60606061,,,,,,,,,,,,,,,,i,1,0.3653,,,,,,愚蠢,i,,,1,37,117,32,1,,,,,,,,,,,,,,,,,,,,,,,,,,,,,,,,,,
,,,,,,,,,,,,,1,001,2025-01-03_07h12.44.249,IAT(Formal),2021.2.3,Win32,60.60606061,,,,,,,,,,,,,,,,e,1,0.4767,,,,,,勇敢,e,,,1,38,118,17,1,,,,,,,,,,,,,,,,,,,,,,,,,,,,,,,,,,
,,,,,,,,,,,,,1,001,2025-01-03_07h12.44.249,IAT(Formal),2021.2.3,Win32,60.60606061,,,,,,,,,,,,,,,,i,1,0.4983,,,,,,其他,i,,,1,39,119,9,1,,,,,,,,,,,,,,,,,,,,,,,,,,,,,,,,,,
,,,,,,,,,,,,,1,001,2025-01-03_07h12.44.249,IAT(Formal),2021.2.3,Win32,60.60606061,,,,,,,,,,,,,,,,i,1,0.5633,,,,,,其他,i,,,1,40,120,79,1,,,,,,,,,,,,,,,,,,,,,,,,,,,,,,,,,,
,,,,,,,,,,,,,1,001,2025-01-03_07h12.44.249,IAT(Formal),2021.2.3,Win32,60.60606061,,,,,,,,,,,,,,,,i,1,0.5231,,,,,,凶狠,i,,,1,41,121,42,1,,,,,,,,,,,,,,,,,,,,,,,,,,,,,,,,,,
,,,,,,,,,,,,,1,001,2025-01-03_07h12.44.249,IAT(Formal),2021.2.3,Win32,60.60606061,,,,,,,,,,,,,,,,i,1,0.4197,,,,,,执拗,i,,,1,42,122,40,1,,,,,,,,,,,,,,,,,,,,,,,,,,,,,,,,,,
,,,,,,,,,,,,,1,001,2025-01-03_07h12.44.249,IAT(Formal),2021.2.3,Win32,60.60606061,,,,,,,,,,,,,,,,i,1,0.502,,,,,,冒失,i,,,1,43,123,39,1,,,,,,,,,,,,,,,,,,,,,,,,,,,,,,,,,,
,,,,,,,,,,,,,1,001,2025-01-03_07h12.44.249,IAT(Formal),2021.2.3,Win32,60.60606061,,,,,,,,,,,,,,,,e,1,0.6026,,,,,,乐观,e,,,1,44,124,14,1,,,,,,,,,,,,,,,,,,,,,,,,,,,,,,,,,,
,,,,,,,,,,,,,1,001,2025-01-03_07h12.44.249,IAT(Formal),2021.2.3,Win32,60.60606061,,,,,,,,,,,,,,,,e,1,0.526,,,,,,热情,e,,,1,45,125,27,1,,,,,,,,,,,,,,,,,,,,,,,,,,,,,,,,,,
,,,,,,,,,,,,,1,001,2025-01-03_07h12.44.249,IAT(Formal),2021.2.3,Win32,60.60606061,,,,,,,,,,,,,,,,i,1,0.8219,,,,,,轻率,i,,,1,46,126,48,1,,,,,,,,,,,,,,,,,,,,,,,,,,,,,,,,,,
,,,,,,,,,,,,,1,001,2025-01-03_07h12.44.249,IAT(Formal),2021.2.3,Win32,60.60606061,,,,,,,,,,,,,,,,e,1,0.526,,,,,,自己,e,,,1,47,127,53,1,,,,,,,,,,,,,,,,,,,,,,,,,,,,,,,,,,
,,,,,,,,,,,,,1,001,2025-01-03_07h12.44.249,IAT(Formal),2021.2.3,Win32,60.60606061,,,,,,,,,,,,,,,,e,1,0.8392,,,,,,无私,e,,,1,48,128,22,1,,,,,,,,,,,,,,,,,,,,,,,,,,,,,,,,,,
,,,,,,,,,,,,,1,001,2025-01-03_07h12.44.249,IAT(Formal),2021.2.3,Win32,60.60606061,,,,,,,,,,,,,,,,i,1,0.5044,,,,,,下贱,i,,,1,49,129,49,1,,,,,,,,,,,,,,,,,,,,,,,,,,,,,,,,,,
,,,,,,,,,,,,,1,001,2025-01-03_07h12.44.249,IAT(Formal),2021.2.3,Win32,60.60606061,,,,,,,,,,,,,,,,e,1,0.4751,,,,,,我的,e,,,1,50,130,51,1,,,,,,,,,,,,,,,,,,,,,,,,,,,,,,,,,,
,,,,,,,,,,,,,1,001,2025-01-03_07h12.44.249,IAT(Formal),2021.2.3,Win32,60.60606061,,,,,,,,,,,,,,,,i,1,0.8491,,,,,,野蛮,i,,,1,51,131,46,1,,,,,,,,,,,,,,,,,,,,,,,,,,,,,,,,,,
,,,,,,,,,,,,,1,001,2025-01-03_07h12.44.249,IAT(Formal),2021.2.3,Win32,60.60606061,,,,,,,,,,,,,,,,e,1,0.5002,,,,,,勤奋,e,,,1,52,132,18,1,,,,,,,,,,,,,,,,,,,,,,,,,,,,,,,,,,
,,,,,,,,,,,,,1,001,2025-01-03_07h12.44.249,IAT(Formal),2021.2.3,Win32,60.60606061,,,,,,,,,,,,,,,,e,1,0.4574,,,,,,我的,e,,,1,53,133,71,1,,,,,,,,,,,,,,,,,,,,,,,,,,,,,,,,,,
,,,,,,,,,,,,,1,001,2025-01-03_07h12.44.249,IAT(Formal),2021.2.3,Win32,60.60606061,,,,,,,,,,,,,,,,e,1,0.4545,,,,,,我们,e,,,1,54,134,52,1,,,,,,,,,,,,,,,,,,,,,,,,,,,,,,,,,,
,,,,,,,,,,,,,1,001,2025-01-03_07h12.44.249,IAT(Formal),2021.2.3,Win32,60.60606061,,,,,,,,,,,,,,,,i,1,0.5154,,,,,,他们,i,,,1,55,135,56,1,,,,,,,,,,,,,,,,,,,,,,,,,,,,,,,,,,
,,,,,,,,,,,,,1,001,2025-01-03_07h12.44.249,IAT(Formal),2021.2.3,Win32,60.60606061,,,,,,,,,,,,,,,,i,1,0.5174,,,,,,他的,i,,,1,56,136,67,1,,,,,,,,,,,,,,,,,,,,,,,,,,,,,,,,,,
,,,,,,,,,,,,,1,001,2025-01-03_07h12.44.249,IAT(Formal),2021.2.3,Win32,60.60606061,,,,,,,,,,,,,,,,e,1,0.5957,,,,,,我们,e,,,1,57,137,2,1,,,,,,,,,,,,,,,,,,,,,,,,,,,,,,,,,,
,,,,,,,,,,,,,1,001,2025-01-03_07h12.44.249,IAT(Formal),2021.2.3,Win32,60.60606061,,,,,,,,,,,,,,,,e,1,0.8206,,,,,,我的,e,,,1,58,138,61,1,,,,,,,,,,,,,,,,,,,,,,,,,,,,,,,,,,
,,,,,,,,,,,,,1,001,2025-01-03_07h12.44.249,IAT(Formal),2021.2.3,Win32,60.60606061,,,,,,,,,,,,,,,,e,1,0.4666,,,,,,自己,e,,,1,59,139,3,1,,,,,,,,,,,,,,,,,,,,,,,,,,,,,,,,,,
,,,,,,,,,,,,,1,001,2025-01-03_07h12.44.249,IAT(Formal),2021.2.3,Win32,60.60606061,,,,,,,,,,,,,,,,i,1,0.4675,,,,,,他人,i,,,1,60,140,78,1,,,,,,,,,,,,,,,,,,,,,,,,,,,,,,,,,,
,,,,,,,,,,,,,1,001,2025-01-03_07h12.44.249,IAT(Formal),2021.2.3,Win32,60.60606061,,,,,,,,,,,,,,,,i,1,0.599,,,,,,悲观,i,,,1,61,141,34,1,,,,,,,,,,,,,,,,,,,,,,,,,,,,,,,,,,
,,,,,,,,,,,,,1,001,2025-01-03_07h12.44.249,IAT(Formal),2021.2.3,Win32,60.60606061,,,,,,,,,,,,,,,,i,1,0.7183,,,,,,自私,i,,,1,62,142,43,1,,,,,,,,,,,,,,,,,,,,,,,,,,,,,,,,,,
,,,,,,,,,,,,,1,001,2025-01-03_07h12.44.249,IAT(Formal),2021.2.3,Win32,60.60606061,,,,,,,,,,,,,,,,e,1,0.483,,,,,,我,e,,,1,63,143,50,1,,,,,,,,,,,,,,,,,,,,,,,,,,,,,,,,,,
,,,,,,,,,,,,,1,001,2025-01-03_07h12.44.249,IAT(Formal),2021.2.3,Win32,60.60606061,,,,,,,,,,,,,,,,i,1,0.4236,,,,,,他人,i,,,1,64,144,8,1,,,,,,,,,,,,,,,,,,,,,,,,,,,,,,,,,,
,,,,,,,,,,,,,1,001,2025-01-03_07h12.44.249,IAT(Formal),2021.2.3,Win32,60.60606061,,,,,,,,,,,,,,,,i,1,0.4946,,,,,,他的,i,,,1,65,145,77,1,,,,,,,,,,,,,,,,,,,,,,,,,,,,,,,,,,
,,,,,,,,,,,,,1,001,2025-01-03_07h12.44.249,IAT(Formal),2021.2.3,Win32,60.60606061,,,,,,,,,,,,,,,,e,1,0.4507,,,,,,自己,e,,,1,66,146,73,1,,,,,,,,,,,,,,,,,,,,,,,,,,,,,,,,,,
,,,,,,,,,,,,,1,001,2025-01-03_07h12.44.249,IAT(Formal),2021.2.3,Win32,60.60606061,,,,,,,,,,,,,,,,i,1,0.4569,,,,,,暴躁,i,,,1,67,147,44,1,,,,,,,,,,,,,,,,,,,,,,,,,,,,,,,,,,
,,,,,,,,,,,,,1,001,2025-01-03_07h12.44.249,IAT(Formal),2021.2.3,Win32,60.60606061,,,,,,,,,,,,,,,,e,1,0.5991,,,,,,稳重,e,,,1,68,148,21,1,,,,,,,,,,,,,,,,,,,,,,,,,,,,,,,,,,
,,,,,,,,,,,,,1,001,2025-01-03_07h12.44.249,IAT(Formal),2021.2.3,Win32,60.60606061,,,,,,,,,,,,,,,,i,1,0.5621,,,,,,其他,i,,,1,69,149,69,1,,,,,,,,,,,,,,,,,,,,,,,,,,,,,,,,,,
,,,,,,,,,,,,,1,001,2025-01-03_07h12.44.249,IAT(Formal),2021.2.3,Win32,60.60606061,,,,,,,,,,,,,,,,i,1,0.5137,,,,,,自卑,i,,,1,70,150,36,1,,,,,,,,,,,,,,,,,,,,,,,,,,,,,,,,,,
,,,,,,,,,,,,,1,001,2025-01-03_07h12.44.249,IAT(Formal),2021.2.3,Win32,60.60606061,,,,,,,,,,,,,,,,e,1,0.5385,,,,,,细腻,e,,,1,71,151,25,1,,,,,,,,,,,,,,,,,,,,,,,,,,,,,,,,,,
,,,,,,,,,,,,,1,001,2025-01-03_07h12.44.249,IAT(Formal),2021.2.3,Win32,60.60606061,,,,,,,,,,,,,,,,e,1,0.6063,,,,,,崇高,e,,,1,72,152,11,1,,,,,,,,,,,,,,,,,,,,,,,,,,,,,,,,,,
,,,,,,,,,,,,,1,001,2025-01-03_07h12.44.249,IAT(Formal),2021.2.3,Win32,60.60606061,,,,,,,,,,,,,,,,e,1,0.4012,,,,,,我们,e,,,1,73,153,72,1,,,,,,,,,,,,,,,,,,,,,,,,,,,,,,,,,,
,,,,,,,,,,,,,1,001,2025-01-03_07h12.44.249,IAT(Formal),2021.2.3,Win32,60.60606061,,,,,,,,,,,,,,,,i,1,0.4033,,,,,,他们,i,,,1,74,154,6,1,,,,,,,,,,,,,,,,,,,,,,,,,,,,,,,,,,
,,,,,,,,,,,,,1,001,2025-01-03_07h12.44.249,IAT(Formal),2021.2.3,Win32,60.60606061,,,,,,,,,,,,,,,,e,1,1.2624,,,,,,冷静,e,,,1,75,155,26,1,,,,,,,,,,,,,,,,,,,,,,,,,,,,,,,,,,
,,,,,,,,,,,,,1,001,2025-01-03_07h12.44.249,IAT(Formal),2021.2.3,Win32,60.60606061,,,,,,,,,,,,,,,,i,1,0.4888,,,,,,他的,i,,,1,76,156,7,1,,,,,,,,,,,,,,,,,,,,,,,,,,,,,,,,,,
,,,,,,,,,,,,,1,001,2025-01-03_07h12.44.249,IAT(Formal),2021.2.3,Win32,60.60606061,,,,,,,,,,,,,,,,i,1,0.5024,,,,,,他人,i,,,1,77,157,68,1,,,,,,,,,,,,,,,,,,,,,,,,,,,,,,,,,,
,,,,,,,,,,,,,1,001,2025-01-03_07h12.44.249,IAT(Formal),2021.2.3,Win32,60.60606061,,,,,,,,,,,,,,,,e,1,0.553,,,,,,活泼,e,,,1,78,158,28,1,,,,,,,,,,,,,,,,,,,,,,,,,,,,,,,,,,
,,,,,,,,,,,,,1,001,2025-01-03_07h12.44.249,IAT(Formal),2021.2.3,Win32,60.60606061,,,,,,,,,,,,,,,,e,1,0.4916,,,,,,我,e,,,1,79,159,60,1,,,,,,,,,,,,,,,,,,,,,,,,,,,,,,,,,,
,,,,,,,,,,,我们,i,1,001,2025-01-03_07h12.44.249,IAT(Formal),2021.2.3,Win32,60.60606061,,,,,,,,,,,,,,,,,,,,,,,,,,,,,,,,,space,9.8382,e,0,0.6496,0,0,0,2,1,,,,,,,,,,,,,,,,,,,,,,,,
,,,,,,,,,,,我,i,1,001,2025-01-03_07h12.44.249,IAT(Formal),2021.2.3,Win32,60.60606061,,,,,,,,,,,,,,,,,,,,,,,,,,,,,,,,,,,i,1,0.5166,0,1,1,0,1,,,,,,,,,,,,,,,,,,,,,,,,
,,,,,,,,,,,俺,i,1,001,2025-01-03_07h12.44.249,IAT(Formal),2021.2.3,Win32,60.60606061,,,,,,,,,,,,,,,,,,,,,,,,,,,,,,,,,,,i,1,0.5422,0,2,2,4,1,,,,,,,,,,,,,,,,,,,,,,,,
,,,,,,,,,,,自己,i,1,001,2025-01-03_07h12.44.249,IAT(Formal),2021.2.3,Win32,60.60606061,,,,,,,,,,,,,,,,,,,,,,,,,,,,,,,,,,,i,1,0.3662,0,3,3,3,1,,,,,,,,,,,,,,,,,,,,,,,,
,,,,,,,,,,,我的,i,1,001,2025-01-03_07h12.44.249,IAT(Formal),2021.2.3,Win32,60.60606061,,,,,,,,,,,,,,,,,,,,,,,,,,,,,,,,,,,i,1,0.4672,0,4,4,1,1,,,,,,,,,,,,,,,,,,,,,,,,
,,,,,,,,,,,其他,e,1,001,2025-01-03_07h12.44.249,IAT(Formal),2021.2.3,Win32,60.60606061,,,,,,,,,,,,,,,,,,,,,,,,,,,,,,,,,,,e,1,0.5021,0,5,5,9,1,,,,,,,,,,,,,,,,,,,,,,,,
,,,,,,,,,,,他的,e,1,001,2025-01-03_07h12.44.249,IAT(Formal),2021.2.3,Win32,60.60606061,,,,,,,,,,,,,,,,,,,,,,,,,,,,,,,,,,,e,1,0.7529,0,6,6,7,1,,,,,,,,,,,,,,,,,,,,,,,,
,,,,,,,,,,,他人,e,1,001,2025-01-03_07h12.44.249,IAT(Formal),2021.2.3,Win32,60.60606061,,,,,,,,,,,,,,,,,,,,,,,,,,,,,,,,,,,e,1,1.1159,0,7,7,8,1,,,,,,,,,,,,,,,,,,,,,,,,
,,,,,,,,,,,他,e,1,001,2025-01-03_07h12.44.249,IAT(Formal),2021.2.3,Win32,60.60606061,,,,,,,,,,,,,,,,,,,,,,,,,,,,,,,,,,,e,1,0.4583,0,8,8,5,1,,,,,,,,,,,,,,,,,,,,,,,,
,,,,,,,,,,,他们,e,1,001,2025-01-03_07h12.44.249,IAT(Formal),2021.2.3,Win32,60.60606061,,,,,,,,,,,,,,,,,,,,,,,,,,,,,,,,,,,e,1,0.5776,0,9,9,6,1,,,,,,,,,,,,,,,,,,,,,,,,
,,,,,,,,,,,,,1,001,2025-01-03_07h12.44.249,IAT(Formal),2021.2.3,Win32,60.60606061,,,,,,,,,,,,,,,,,,,,,,,,,,,,,,,,,,,,,,,,,,,space,5.8671,i,1,1.0487,0,0,0,43,1,自私,i,,,,,,,,,,,,
,,,,,,,,,,,,,1,001,2025-01-03_07h12.44.249,IAT(Formal),2021.2.3,Win32,60.60606061,,,,,,,,,,,,,,,,,,,,,,,,,,,,,,,,,,,,,,,,,,,,,i,1,0.7395,0,1,1,63,1,自己,i,,,,,,,,,,,,
,,,,,,,,,,,,,1,001,2025-01-03_07h12.44.249,IAT(Formal),2021.2.3,Win32,60.60606061,,,,,,,,,,,,,,,,,,,,,,,,,,,,,,,,,,,,,,,,,,,,,e,1,0.641,0,2,2,19,1,机智,e,,,,,,,,,,,,
,,,,,,,,,,,,,1,001,2025-01-03_07h12.44.249,IAT(Formal),2021.2.3,Win32,60.60606061,,,,,,,,,,,,,,,,,,,,,,,,,,,,,,,,,,,,,,,,,,,,,e,0,0.6005,0,3,3,37,1,傲慢,i,,,,,,,,,,,,
,,,,,,,,,,,,,1,001,2025-01-03_07h12.44.249,IAT(Formal),2021.2.3,Win32,60.60606061,,,,,,,,,,,,,,,,,,,,,,,,,,,,,,,,,,,,,,,,,,,,,i,1,0.6157,0,4,4,73,1,自己,i,,,,,,,,,,,,
,,,,,,,,,,,,,1,001,2025-01-03_07h12.44.249,IAT(Formal),2021.2.3,Win32,60.60606061,,,,,,,,,,,,,,,,,,,,,,,,,,,,,,,,,,,,,,,,,,,,,i,1,0.7983,0,5,5,46,1,野蛮,i,,,,,,,,,,,,
,,,,,,,,,,,,,1,001,2025-01-03_07h12.44.249,IAT(Formal),2021.2.3,Win32,60.60606061,,,,,,,,,,,,,,,,,,,,,,,,,,,,,,,,,,,,,,,,,,,,,i,1,0.8327,0,6,6,74,1,俺,i,,,,,,,,,,,,
,,,,,,,,,,,,,1,001,2025-01-03_07h12.44.249,IAT(Formal),2021.2.3,Win32,60.60606061,,,,,,,,,,,,,,,,,,,,,,,,,,,,,,,,,,,,,,,,,,,,,i,1,0.4587,0,7,7,52,1,我们,i,,,,,,,,,,,,
,,,,,,,,,,,,,1,001,2025-01-03_07h12.44.249,IAT(Formal),2021.2.3,Win32,60.60606061,,,,,,,,,,,,,,,,,,,,,,,,,,,,,,,,,,,,,,,,,,,,,e,0,0.936,0,8,8,47,1,固执,i,,,,,,,,,,,,
,,,,,,,,,,,,,1,001,2025-01-03_07h12.44.249,IAT(Formal),2021.2.3,Win32,60.60606061,,,,,,,,,,,,,,,,,,,,,,,,,,,,,,,,,,,,,,,,,,,,,i,1,0.7184,0,9,9,34,1,悲观,i,,,,,,,,,,,,
,,,,,,,,,,,,,1,001,2025-01-03_07h12.44.249,IAT(Formal),2021.2.3,Win32,60.60606061,,,,,,,,,,,,,,,,,,,,,,,,,,,,,,,,,,,,,,,,,,,,,i,1,0.5414,0,10,10,48,1,轻率,i,,,,,,,,,,,,
,,,,,,,,,,,,,1,001,2025-01-03_07h12.44.249,IAT(Formal),2021.2.3,Win32,60.60606061,,,,,,,,,,,,,,,,,,,,,,,,,,,,,,,,,,,,,,,,,,,,,i,1,0.4984,0,11,11,53,1,自己,i,,,,,,,,,,,,
,,,,,,,,,,,,,1,001,2025-01-03_07h12.44.249,IAT(Formal),2021.2.3,Win32,60.60606061,,,,,,,,,,,,,,,,,,,,,,,,,,,,,,,,,,,,,,,,,,,,,i,1,0.4907,0,12,12,45,1,猖狂,i,,,,,,,,,,,,
,,,,,,,,,,,,,1,001,2025-01-03_07h12.44.249,IAT(Formal),2021.2.3,Win32,60.60606061,,,,,,,,,,,,,,,,,,,,,,,,,,,,,,,,,,,,,,,,,,,,,i,1,0.8004,0,13,13,40,1,执拗,i,,,,,,,,,,,,
,,,,,,,,,,,,,1,001,2025-01-03_07h12.44.249,IAT(Formal),2021.2.3,Win32,60.60606061,,,,,,,,,,,,,,,,,,,,,,,,,,,,,,,,,,,,,,,,,,,,,i,1,0.4798,0,14,14,72,1,我们,i,,,,,,,,,,,,
,,,,,,,,,,,,,1,001,2025-01-03_07h12.44.249,IAT(Formal),2021.2.3,Win32,60.60606061,,,,,,,,,,,,,,,,,,,,,,,,,,,,,,,,,,,,,,,,,,,,,i,0,0.4666,0,15,15,25,1,细腻,e,,,,,,,,,,,,
,,,,,,,,,,,,,1,001,2025-01-03_07h12.44.249,IAT(Formal),2021.2.3,Win32,60.60606061,,,,,,,,,,,,,,,,,,,,,,,,,,,,,,,,,,,,,,,,,,,,,i,0,0.5759,0,16,16,6,1,他们,e,,,,,,,,,,,,
,,,,,,,,,,,,,1,001,2025-01-03_07h12.44.249,IAT(Formal),2021.2.3,Win32,60.60606061,,,,,,,,,,,,,,,,,,,,,,,,,,,,,,,,,,,,,,,,,,,,,e,1,1.0318,0,17,17,20,1,认真,e,,,,,,,,,,,,
,,,,,,,,,,,,,1,001,2025-01-03_07h12.44.249,IAT(Formal),2021.2.3,Win32,60.60606061,,,,,,,,,,,,,,,,,,,,,,,,,,,,,,,,,,,,,,,,,,,,,i,1,0.5652,0,18,18,2,1,我们,i,,,,,,,,,,,,
,,,,,,,,,,,,,1,001,2025-01-03_07h12.44.249,IAT(Formal),2021.2.3,Win32,60.60606061,,,,,,,,,,,,,,,,,,,,,,,,,,,,,,,,,,,,,,,,,,,,,i,1,0.7094,0,19,19,4,1,俺,i,,,,,,,,,,,,
,,,,,,,,,,,,,1,001,2025-01-03_07h12.44.249,IAT(Formal),2021.2.3,Win32,60.60606061,,,,,,,,,,,,,,,,,,,,,,,,,,,,,,,,,,,,,,,,,,,,,e,1,0.4325,0,20,20,7,1,他的,e,,,,,,,,,,,,
,,,,,,,,,,,,,1,001,2025-01-03_07h12.44.249,IAT(Formal),2021.2.3,Win32,60.60606061,,,,,,,,,,,,,,,,,,,,,,,,,,,,,,,,,,,,,,,,,,,,,e,0,0.5284,0,21,21,42,1,凶狠,i,,,,,,,,,,,,
,,,,,,,,,,,,,1,001,2025-01-03_07h12.44.249,IAT(Formal),2021.2.3,Win32,60.60606061,,,,,,,,,,,,,,,,,,,,,,,,,,,,,,,,,,,,,,,,,,,,,e,1,1.2665,0,22,22,59,1,其他,e,,,,,,,,,,,,
,,,,,,,,,,,,,1,001,2025-01-03_07h12.44.249,IAT(Formal),2021.2.3,Win32,60.60606061,,,,,,,,,,,,,,,,,,,,,,,,,,,,,,,,,,,,,,,,,,,,,i,1,0.7422,0,23,23,44,1,暴躁,i,,,,,,,,,,,,
,,,,,,,,,,,,,1,001,2025-01-03_07h12.44.249,IAT(Formal),2021.2.3,Win32,60.60606061,,,,,,,,,,,,,,,,,,,,,,,,,,,,,,,,,,,,,,,,,,,,,i,1,0.6428,0,24,24,39,1,冒失,i,,,,,,,,,,,,
,,,,,,,,,,,,,1,001,2025-01-03_07h12.44.249,IAT(Formal),2021.2.3,Win32,60.60606061,,,,,,,,,,,,,,,,,,,,,,,,,,,,,,,,,,,,,,,,,,,,,e,1,0.6312,0,25,25,23,1,公正,e,,,,,,,,,,,,
,,,,,,,,,,,,,1,001,2025-01-03_07h12.44.249,IAT(Formal),2021.2.3,Win32,60.60606061,,,,,,,,,,,,,,,,,,,,,,,,,,,,,,,,,,,,,,,,,,,,,i,1,0.7863,0,26,26,30,1,卑鄙,i,,,,,,,,,,,,
,,,,,,,,,,,,,1,001,2025-01-03_07h12.44.249,IAT(Formal),2021.2.3,Win32,60.60606061,,,,,,,,,,,,,,,,,,,,,,,,,,,,,,,,,,,,,,,,,,,,,i,1,0.4495,0,27,27,41,1,散漫,i,,,,,,,,,,,,
,,,,,,,,,,,,,1,001,2025-01-03_07h12.44.249,IAT(Formal),2021.2.3,Win32,60.60606061,,,,,,,,,,,,,,,,,,,,,,,,,,,,,,,,,,,,,,,,,,,,,e,1,0.5759,0,28,28,12,1,聪明,e,,,,,,,,,,,,
,,,,,,,,,,,,,1,001,2025-01-03_07h12.44.249,IAT(Formal),2021.2.3,Win32,60.60606061,,,,,,,,,,,,,,,,,,,,,,,,,,,,,,,,,,,,,,,,,,,,,e,1,0.698,0,29,29,8,1,他人,e,,,,,,,,,,,,
,,,,,,,,,,,,,1,001,2025-01-03_07h12.44.249,IAT(Formal),2021.2.3,Win32,60.60606061,,,,,,,,,,,,,,,,,,,,,,,,,,,,,,,,,,,,,,,,,,,,,e,1,0.4381,0,30,30,57,1,他的,e,,,,,,,,,,,,
,,,,,,,,,,,,,1,001,2025-01-03_07h12.44.249,IAT(Formal),2021.2.3,Win32,60.60606061,,,,,,,,,,,,,,,,,,,,,,,,,,,,,,,,,,,,,,,,,,,,,e,1,0.6727,0,31,31,15,1,诚实,e,,,,,,,,,,,,
,,,,,,,,,,,,,1,001,2025-01-03_07h12.44.249,IAT(Formal),2021.2.3,Win32,60.60606061,,,,,,,,,,,,,,,,,,,,,,,,,,,,,,,,,,,,,,,,,,,,,i,1,0.6838,0,32,32,3,1,自己,i,,,,,,,,,,,,
,,,,,,,,,,,,,1,001,2025-01-03_07h12.44.249,IAT(Formal),2021.2.3,Win32,60.60606061,,,,,,,,,,,,,,,,,,,,,,,,,,,,,,,,,,,,,,,,,,,,,i,1,0.8035,0,33,33,64,1,俺,i,,,,,,,,,,,,
,,,,,,,,,,,,,1,001,2025-01-03_07h12.44.249,IAT(Formal),2021.2.3,Win32,60.60606061,,,,,,,,,,,,,,,,,,,,,,,,,,,,,,,,,,,,,,,,,,,,,e,1,0.7492,0,34,34,75,1,他,e,,,,,,,,,,,,
,,,,,,,,,,,,,1,001,2025-01-03_07h12.44.249,IAT(Formal),2021.2.3,Win32,60.60606061,,,,,,,,,,,,,,,,,,,,,,,,,,,,,,,,,,,,,,,,,,,,,i,1,0.7104,0,35,35,61,1,我的,i,,,,,,,,,,,,
,,,,,,,,,,,,,1,001,2025-01-03_07h12.44.249,IAT(Formal),2021.2.3,Win32,60.60606061,,,,,,,,,,,,,,,,,,,,,,,,,,,,,,,,,,,,,,,,,,,,,i,1,0.6322,0,36,36,49,1,下贱,i,,,,,,,,,,,,
,,,,,,,,,,,,,1,001,2025-01-03_07h12.44.249,IAT(Formal),2021.2.3,Win32,60.60606061,,,,,,,,,,,,,,,,,,,,,,,,,,,,,,,,,,,,,,,,,,,,,e,1,0.5846,0,37,37,58,1,他人,e,,,,,,,,,,,,
,,,,,,,,,,,,,1,001,2025-01-03_07h12.44.249,IAT(Formal),2021.2.3,Win32,60.60606061,,,,,,,,,,,,,,,,,,,,,,,,,,,,,,,,,,,,,,,,,,,,,i,1,0.6854,0,38,38,0,1,我,i,,,,,,,,,,,,
,,,,,,,,,,,,,1,001,2025-01-03_07h12.44.249,IAT(Formal),2021.2.3,Win32,60.60606061,,,,,,,,,,,,,,,,,,,,,,,,,,,,,,,,,,,,,,,,,,,,,i,1,0.8832,0,39,39,35,1,消极,i,,,,,,,,,,,,
,,,,,,,,,,,,,1,001,2025-01-03_07h12.44.249,IAT(Formal),2021.2.3,Win32,60.60606061,,,,,,,,,,,,,,,,,,,,,,,,,,,,,,,,,,,,,,,,,,,,,i,1,0.9832,0,40,40,33,1,刻薄,i,,,,,,,,,,,,
,,,,,,,,,,,,,1,001,2025-01-03_07h12.44.249,IAT(Formal),2021.2.3,Win32,60.60606061,,,,,,,,,,,,,,,,,,,,,,,,,,,,,,,,,,,,,,,,,,,,,i,1,0.486,0,41,41,70,1,我,i,,,,,,,,,,,,
,,,,,,,,,,,,,1,001,2025-01-03_07h12.44.249,IAT(Formal),2021.2.3,Win32,60.60606061,,,,,,,,,,,,,,,,,,,,,,,,,,,,,,,,,,,,,,,,,,,,,e,1,0.64,0,42,42,76,1,他们,e,,,,,,,,,,,,
,,,,,,,,,,,,,1,001,2025-01-03_07h12.44.249,IAT(Formal),2021.2.3,Win32,60.60606061,,,,,,,,,,,,,,,,,,,,,,,,,,,,,,,,,,,,,,,,,,,,,i,1,0.4995,0,43,43,1,1,我的,i,,,,,,,,,,,,
,,,,,,,,,,,,,1,001,2025-01-03_07h12.44.249,IAT(Formal),2021.2.3,Win32,60.60606061,,,,,,,,,,,,,,,,,,,,,,,,,,,,,,,,,,,,,,,,,,,,,i,1,0.6164,0,44,44,36,1,自卑,i,,,,,,,,,,,,
,,,,,,,,,,,,,1,001,2025-01-03_07h12.44.249,IAT(Formal),2021.2.3,Win32,60.60606061,,,,,,,,,,,,,,,,,,,,,,,,,,,,,,,,,,,,,,,,,,,,,i,1,0.5158,0,45,45,60,1,我,i,,,,,,,,,,,,
,,,,,,,,,,,,,1,001,2025-01-03_07h12.44.249,IAT(Formal),2021.2.3,Win32,60.60606061,,,,,,,,,,,,,,,,,,,,,,,,,,,,,,,,,,,,,,,,,,,,,e,1,0.6739,0,46,46,78,1,他人,e,,,,,,,,,,,,
,,,,,,,,,,,,,1,001,2025-01-03_07h12.44.249,IAT(Formal),2021.2.3,Win32,60.60606061,,,,,,,,,,,,,,,,,,,,,,,,,,,,,,,,,,,,,,,,,,,,,e,1,0.7746,0,47,47,9,1,其他,e,,,,,,,,,,,,
,,,,,,,,,,,,,1,001,2025-01-03_07h12.44.249,IAT(Formal),2021.2.3,Win32,60.60606061,,,,,,,,,,,,,,,,,,,,,,,,,,,,,,,,,,,,,,,,,,,,,e,1,0.5897,0,48,48,29,1,诚恳,e,,,,,,,,,,,,
,,,,,,,,,,,,,1,001,2025-01-03_07h12.44.249,IAT(Formal),2021.2.3,Win32,60.60606061,,,,,,,,,,,,,,,,,,,,,,,,,,,,,,,,,,,,,,,,,,,,,e,1,0.5703,0,49,49,55,1,他,e,,,,,,,,,,,,
,,,,,,,,,,,,,1,001,2025-01-03_07h12.44.249,IAT(Formal),2021.2.3,Win32,60.60606061,,,,,,,,,,,,,,,,,,,,,,,,,,,,,,,,,,,,,,,,,,,,,i,1,0.5234,0,50,50,71,1,我的,i,,,,,,,,,,,,
,,,,,,,,,,,,,1,001,2025-01-03_07h12.44.249,IAT(Formal),2021.2.3,Win32,60.60606061,,,,,,,,,,,,,,,,,,,,,,,,,,,,,,,,,,,,,,,,,,,,,e,1,0.5018,0,51,51,68,1,他人,e,,,,,,,,,,,,
,,,,,,,,,,,,,1,001,2025-01-03_07h12.44.249,IAT(Formal),2021.2.3,Win32,60.60606061,,,,,,,,,,,,,,,,,,,,,,,,,,,,,,,,,,,,,,,,,,,,,i,1,0.7102,0,52,52,31,1,虚伪,i,,,,,,,,,,,,
,,,,,,,,,,,,,1,001,2025-01-03_07h12.44.249,IAT(Formal),2021.2.3,Win32,60.60606061,,,,,,,,,,,,,,,,,,,,,,,,,,,,,,,,,,,,,,,,,,,,,e,1,0.5511,0,53,53,79,1,其他,e,,,,,,,,,,,,
,,,,,,,,,,,,,1,001,2025-01-03_07h12.44.249,IAT(Formal),2021.2.3,Win32,60.60606061,,,,,,,,,,,,,,,,,,,,,,,,,,,,,,,,,,,,,,,,,,,,,e,1,0.5099,0,54,54,11,1,崇高,e,,,,,,,,,,,,
,,,,,,,,,,,,,1,001,2025-01-03_07h12.44.249,IAT(Formal),2021.2.3,Win32,60.60606061,,,,,,,,,,,,,,,,,,,,,,,,,,,,,,,,,,,,,,,,,,,,,e,1,0.4714,0,55,55,14,1,乐观,e,,,,,,,,,,,,
,,,,,,,,,,,,,1,001,2025-01-03_07h12.44.249,IAT(Formal),2021.2.3,Win32,60.60606061,,,,,,,,,,,,,,,,,,,,,,,,,,,,,,,,,,,,,,,,,,,,,e,1,0.4254,0,56,56,27,1,热情,e,,,,,,,,,,,,
,,,,,,,,,,,,,1,001,2025-01-03_07h12.44.249,IAT(Formal),2021.2.3,Win32,60.60606061,,,,,,,,,,,,,,,,,,,,,,,,,,,,,,,,,,,,,,,,,,,,,e,1,0.8548,0,57,57,69,1,其他,e,,,,,,,,,,,,
,,,,,,,,,,,,,1,001,2025-01-03_07h12.44.249,IAT(Formal),2021.2.3,Win32,60.60606061,,,,,,,,,,,,,,,,,,,,,,,,,,,,,,,,,,,,,,,,,,,,,e,1,0.6199,0,58,58,28,1,活泼,e,,,,,,,,,,,,
,,,,,,,,,,,,,1,001,2025-01-03_07h12.44.249,IAT(Formal),2021.2.3,Win32,60.60606061,,,,,,,,,,,,,,,,,,,,,,,,,,,,,,,,,,,,,,,,,,,,,e,1,0.6872,0,59,59,22,1,无私,e,,,,,,,,,,,,
,,,,,,,,,,,,,1,001,2025-01-03_07h12.44.249,IAT(Formal),2021.2.3,Win32,60.60606061,,,,,,,,,,,,,,,,,,,,,,,,,,,,,,,,,,,,,,,,,,,,,e,1,0.5669,0,60,60,66,1,他们,e,,,,,,,,,,,,
,,,,,,,,,,,,,1,001,2025-01-03_07h12.44.249,IAT(Formal),2021.2.3,Win32,60.60606061,,,,,,,,,,,,,,,,,,,,,,,,,,,,,,,,,,,,,,,,,,,,,e,1,0.602,0,61,61,5,1,他,e,,,,,,,,,,,,
,,,,,,,,,,,,,1,001,2025-01-03_07h12.44.249,IAT(Formal),2021.2.3,Win32,60.60606061,,,,,,,,,,,,,,,,,,,,,,,,,,,,,,,,,,,,,,,,,,,,,i,1,0.6888,0,62,62,38,1,鲁莽,i,,,,,,,,,,,,
,,,,,,,,,,,,,1,001,2025-01-03_07h12.44.249,IAT(Formal),2021.2.3,Win32,60.60606061,,,,,,,,,,,,,,,,,,,,,,,,,,,,,,,,,,,,,,,,,,,,,i,1,0.4493,0,63,63,50,1,我,i,,,,,,,,,,,,
,,,,,,,,,,,,,1,001,2025-01-03_07h12.44.249,IAT(Formal),2021.2.3,Win32,60.60606061,,,,,,,,,,,,,,,,,,,,,,,,,,,,,,,,,,,,,,,,,,,,,i,1,0.4979,0,64,64,51,1,我的,i,,,,,,,,,,,,
,,,,,,,,,,,,,1,001,2025-01-03_07h12.44.249,IAT(Formal),2021.2.3,Win32,60.60606061,,,,,,,,,,,,,,,,,,,,,,,,,,,,,,,,,,,,,,,,,,,,,e,1,0.518,0,65,65,56,1,他们,e,,,,,,,,,,,,
,,,,,,,,,,,,,1,001,2025-01-03_07h12.44.249,IAT(Formal),2021.2.3,Win32,60.60606061,,,,,,,,,,,,,,,,,,,,,,,,,,,,,,,,,,,,,,,,,,,,,e,1,0.5114,0,66,66,18,1,勤奋,e,,,,,,,,,,,,
,,,,,,,,,,,,,1,001,2025-01-03_07h12.44.249,IAT(Formal),2021.2.3,Win32,60.60606061,,,,,,,,,,,,,,,,,,,,,,,,,,,,,,,,,,,,,,,,,,,,,e,1,0.5925,0,67,67,26,1,冷静,e,,,,,,,,,,,,
,,,,,,,,,,,,,1,001,2025-01-03_07h12.44.249,IAT(Formal),2021.2.3,Win32,60.60606061,,,,,,,,,,,,,,,,,,,,,,,,,,,,,,,,,,,,,,,,,,,,,i,1,0.5019,0,68,68,54,1,俺,i,,,,,,,,,,,,
,,,,,,,,,,,,,1,001,2025-01-03_07h12.44.249,IAT(Formal),2021.2.3,Win32,60.60606061,,,,,,,,,,,,,,,,,,,,,,,,,,,,,,,,,,,,,,,,,,,,,e,1,1.0241,0,69,69,16,1,正直,e,,,,,,,,,,,,
,,,,,,,,,,,,,1,001,2025-01-03_07h12.44.249,IAT(Formal),2021.2.3,Win32,60.60606061,,,,,,,,,,,,,,,,,,,,,,,,,,,,,,,,,,,,,,,,,,,,,e,1,0.4934,0,70,70,10,1,优秀,e,,,,,,,,,,,,
,,,,,,,,,,,,,1,001,2025-01-03_07h12.44.249,IAT(Formal),2021.2.3,Win32,60.60606061,,,,,,,,,,,,,,,,,,,,,,,,,,,,,,,,,,,,,,,,,,,,,i,1,0.5443,0,71,71,32,1,愚蠢,i,,,,,,,,,,,,
,,,,,,,,,,,,,1,001,2025-01-03_07h12.44.249,IAT(Formal),2021.2.3,Win32,60.60606061,,,,,,,,,,,,,,,,,,,,,,,,,,,,,,,,,,,,,,,,,,,,,i,1,0.5837,0,72,72,62,1,我们,i,,,,,,,,,,,,
,,,,,,,,,,,,,1,001,2025-01-03_07h12.44.249,IAT(Formal),2021.2.3,Win32,60.60606061,,,,,,,,,,,,,,,,,,,,,,,,,,,,,,,,,,,,,,,,,,,,,e,1,0.4773,0,73,73,65,1,他,e,,,,,,,,,,,,
,,,,,,,,,,,,,1,001,2025-01-03_07h12.44.249,IAT(Formal),2021.2.3,Win32,60.60606061,,,,,,,,,,,,,,,,,,,,,,,,,,,,,,,,,,,,,,,,,,,,,e,1,0.5419,0,74,74,13,1,杰出,e,,,,,,,,,,,,
,,,,,,,,,,,,,1,001,2025-01-03_07h12.44.249,IAT(Formal),2021.2.3,Win32,60.60606061,,,,,,,,,,,,,,,,,,,,,,,,,,,,,,,,,,,,,,,,,,,,,e,1,0.7544,0,75,75,77,1,他的,e,,,,,,,,,,,,
,,,,,,,,,,,,,1,001,2025-01-03_07h12.44.249,IAT(Formal),2021.2.3,Win32,60.60606061,,,,,,,,,,,,,,,,,,,,,,,,,,,,,,,,,,,,,,,,,,,,,e,1,1.0152,0,76,76,21,1,稳重,e,,,,,,,,,,,,
,,,,,,,,,,,,,1,001,2025-01-03_07h12.44.249,IAT(Formal),2021.2.3,Win32,60.60606061,,,,,,,,,,,,,,,,,,,,,,,,,,,,,,,,,,,,,,,,,,,,,e,1,0.4889,0,77,77,67,1,他的,e,,,,,,,,,,,,
,,,,,,,,,,,,,1,001,2025-01-03_07h12.44.249,IAT(Formal),2021.2.3,Win32,60.60606061,,,,,,,,,,,,,,,,,,,,,,,,,,,,,,,,,,,,,,,,,,,,,e,1,0.505,0,78,78,17,1,勇敢,e,,,,,,,,,,,,
,,,,,,,,,,,,,1,001,2025-01-03_07h12.44.249,IAT(Formal),2021.2.3,Win32,60.60606061,,,,,,,,,,,,,,,,,,,,,,,,,,,,,,,,,,,,,,,,,,,,,e,1,0.8401,0,79,79,24,1,朴实,e,,,,,,,,,,,,
,,,,,,,,,,,,,1,001,2025-01-03_07h12.44.249,IAT(Formal),2021.2.3,Win32,60.60606061,,,,,,,,,,,,,,,,,,,,,,,,,,,,,,,,,,,,,,,,,,,,,,,,,,,,,他们,e,space,10.6147,,0,0,0,0,76,1,,,
,,,,,,,,,,,,,1,001,2025-01-03_07h12.44.249,IAT(Formal),2021.2.3,Win32,60.60606061,,,,,,,,,,,,,,,,,,,,,,,,,,,,,,,,,,,,,,,,,,,,,,,,,,,,,他,e,,,e,1,0,1,1,75,1,0.4875,,
,,,,,,,,,,,,,1,001,2025-01-03_07h12.44.249,IAT(Formal),2021.2.3,Win32,60.60606061,,,,,,,,,,,,,,,,,,,,,,,,,,,,,,,,,,,,,,,,,,,,,,,,,,,,,优秀,e,,,e,1,0,2,2,10,1,0.4963,,
,,,,,,,,,,,,,1,001,2025-01-03_07h12.44.249,IAT(Formal),2021.2.3,Win32,60.60606061,,,,,,,,,,,,,,,,,,,,,,,,,,,,,,,,,,,,,,,,,,,,,,,,,,,,,我们,i,,,i,1,0,3,3,62,1,0.6174,,
,,,,,,,,,,,,,1,001,2025-01-03_07h12.44.249,IAT(Formal),2021.2.3,Win32,60.60606061,,,,,,,,,,,,,,,,,,,,,,,,,,,,,,,,,,,,,,,,,,,,,,,,,,,,,下贱,i,,,i,1,0,4,4,49,1,0.4789,,
,,,,,,,,,,,,,1,001,2025-01-03_07h12.44.249,IAT(Formal),2021.2.3,Win32,60.60606061,,,,,,,,,,,,,,,,,,,,,,,,,,,,,,,,,,,,,,,,,,,,,,,,,,,,,其他,e,,,e,1,0,5,5,9,1,0.4861,,
,,,,,,,,,,,,,1,001,2025-01-03_07h12.44.249,IAT(Formal),2021.2.3,Win32,60.60606061,,,,,,,,,,,,,,,,,,,,,,,,,,,,,,,,,,,,,,,,,,,,,,,,,,,,,我的,i,,,i,1,0,6,6,71,1,0.54,,
,,,,,,,,,,,,,1,001,2025-01-03_07h12.44.249,IAT(Formal),2021.2.3,Win32,60.60606061,,,,,,,,,,,,,,,,,,,,,,,,,,,,,,,,,,,,,,,,,,,,,,,,,,,,,他,e,,,e,1,0,7,7,55,1,0.5041,,
,,,,,,,,,,,,,1,001,2025-01-03_07h12.44.249,IAT(Formal),2021.2.3,Win32,60.60606061,,,,,,,,,,,,,,,,,,,,,,,,,,,,,,,,,,,,,,,,,,,,,,,,,,,,,其他,e,,,e,1,0,8,8,69,1,0.4876,,
,,,,,,,,,,,,,1,001,2025-01-03_07h12.44.249,IAT(Formal),2021.2.3,Win32,60.60606061,,,,,,,,,,,,,,,,,,,,,,,,,,,,,,,,,,,,,,,,,,,,,,,,,,,,,他的,e,,,e,1,0,9,9,77,1,0.3937,,
,,,,,,,,,,,,,1,001,2025-01-03_07h12.44.249,IAT(Formal),2021.2.3,Win32,60.60606061,,,,,,,,,,,,,,,,,,,,,,,,,,,,,,,,,,,,,,,,,,,,,,,,,,,,,他的,e,,,e,1,0,10,10,67,1,0.5457,,
,,,,,,,,,,,,,1,001,2025-01-03_07h12.44.249,IAT(Formal),2021.2.3,Win32,60.60606061,,,,,,,,,,,,,,,,,,,,,,,,,,,,,,,,,,,,,,,,,,,,,,,,,,,,,活泼,e,,,e,1,0,11,11,28,1,0.6521,,
,,,,,,,,,,,,,1,001,2025-01-03_07h12.44.249,IAT(Formal),2021.2.3,Win32,60.60606061,,,,,,,,,,,,,,,,,,,,,,,,,,,,,,,,,,,,,,,,,,,,,,,,,,,,,诚实,e,,,e,1,0,12,12,15,1,0.4162,,
,,,,,,,,,,,,,1,001,2025-01-03_07h12.44.249,IAT(Formal),2021.2.3,Win32,60.60606061,,,,,,,,,,,,,,,,,,,,,,,,,,,,,,,,,,,,,,,,,,,,,,,,,,,,,自己,i,,,i,1,0,13,13,3,1,0.6245,,
,,,,,,,,,,,,,1,001,2025-01-03_07h12.44.249,IAT(Formal),2021.2.3,Win32,60.60606061,,,,,,,,,,,,,,,,,,,,,,,,,,,,,,,,,,,,,,,,,,,,,,,,,,,,,稳重,e,,,e,1,0,14,14,21,1,0.5951,,
,,,,,,,,,,,,,1,001,2025-01-03_07h12.44.249,IAT(Formal),2021.2.3,Win32,60.60606061,,,,,,,,,,,,,,,,,,,,,,,,,,,,,,,,,,,,,,,,,,,,,,,,,,,,,他们,e,,,e,1,0,15,15,6,1,0.69,,
,,,,,,,,,,,,,1,001,2025-01-03_07h12.44.249,IAT(Formal),2021.2.3,Win32,60.60606061,,,,,,,,,,,,,,,,,,,,,,,,,,,,,,,,,,,,,,,,,,,,,,,,,,,,,他的,e,,,e,1,0,16,16,7,1,1.0933,,
,,,,,,,,,,,,,1,001,2025-01-03_07h12.44.249,IAT(Formal),2021.2.3,Win32,60.60606061,,,,,,,,,,,,,,,,,,,,,,,,,,,,,,,,,,,,,,,,,,,,,,,,,,,,,乐观,e,,,e,1,0,17,17,14,1,0.4998,,
,,,,,,,,,,,,,1,001,2025-01-03_07h12.44.249,IAT(Formal),2021.2.3,Win32,60.60606061,,,,,,,,,,,,,,,,,,,,,,,,,,,,,,,,,,,,,,,,,,,,,,,,,,,,,我的,i,,,i,1,0,18,18,1,1,0.6374,,
,,,,,,,,,,,,,1,001,2025-01-03_07h12.44.249,IAT(Formal),2021.2.3,Win32,60.60606061,,,,,,,,,,,,,,,,,,,,,,,,,,,,,,,,,,,,,,,,,,,,,,,,,,,,,正直,e,,,e,1,0,19,19,16,1,0.7826,,
,,,,,,,,,,,,,1,001,2025-01-03_07h12.44.249,IAT(Formal),2021.2.3,Win32,60.60606061,,,,,,,,,,,,,,,,,,,,,,,,,,,,,,,,,,,,,,,,,,,,,,,,,,,,,执拗,i,,,i,1,0,20,20,40,1,0.7065,,
,,,,,,,,,,,,,1,001,2025-01-03_07h12.44.249,IAT(Formal),2021.2.3,Win32,60.60606061,,,,,,,,,,,,,,,,,,,,,,,,,,,,,,,,,,,,,,,,,,,,,,,,,,,,,自卑,i,,,i,1,0,21,21,36,1,0.5252,,
,,,,,,,,,,,,,1,001,2025-01-03_07h12.44.249,IAT(Formal),2021.2.3,Win32,60.60606061,,,,,,,,,,,,,,,,,,,,,,,,,,,,,,,,,,,,,,,,,,,,,,,,,,,,,俺,i,,,i,1,0,22,22,74,1,0.5315,,
,,,,,,,,,,,,,1,001,2025-01-03_07h12.44.249,IAT(Formal),2021.2.3,Win32,60.60606061,,,,,,,,,,,,,,,,,,,,,,,,,,,,,,,,,,,,,,,,,,,,,,,,,,,,,我,i,,,i,1,0,23,23,50,1,0.3551,,
,,,,,,,,,,,,,1,001,2025-01-03_07h12.44.249,IAT(Formal),2021.2.3,Win32,60.60606061,,,,,,,,,,,,,,,,,,,,,,,,,,,,,,,,,,,,,,,,,,,,,,,,,,,,,他们,e,,,e,1,0,24,24,66,1,0.5208,,
,,,,,,,,,,,,,1,001,2025-01-03_07h12.44.249,IAT(Formal),2021.2.3,Win32,60.60606061,,,,,,,,,,,,,,,,,,,,,,,,,,,,,,,,,,,,,,,,,,,,,,,,,,,,,诚恳,e,,,e,1,0,25,25,29,1,0.6098,,
,,,,,,,,,,,,,1,001,2025-01-03_07h12.44.249,IAT(Formal),2021.2.3,Win32,60.60606061,,,,,,,,,,,,,,,,,,,,,,,,,,,,,,,,,,,,,,,,,,,,,,,,,,,,,他人,e,,,e,1,0,26,26,8,1,0.5817,,
,,,,,,,,,,,,,1,001,2025-01-03_07h12.44.249,IAT(Formal),2021.2.3,Win32,60.60606061,,,,,,,,,,,,,,,,,,,,,,,,,,,,,,,,,,,,,,,,,,,,,,,,,,,,,认真,e,,,e,1,0,27,27,20,1,0.6034,,
,,,,,,,,,,,,,1,001,2025-01-03_07h12.44.249,IAT(Formal),2021.2.3,Win32,60.60606061,,,,,,,,,,,,,,,,,,,,,,,,,,,,,,,,,,,,,,,,,,,,,,,,,,,,,俺,i,,,i,1,0,28,28,54,1,0.5757,,
,,,,,,,,,,,,,1,001,2025-01-03_07h12.44.249,IAT(Formal),2021.2.3,Win32,60.60606061,,,,,,,,,,,,,,,,,,,,,,,,,,,,,,,,,,,,,,,,,,,,,,,,,,,,,散漫,i,,,i,1,0,29,29,41,1,0.8675,,
,,,,,,,,,,,,,1,001,2025-01-03_07h12.44.249,IAT(Formal),2021.2.3,Win32,60.60606061,,,,,,,,,,,,,,,,,,,,,,,,,,,,,,,,,,,,,,,,,,,,,,,,,,,,,自己,i,,,i,1,0,30,30,53,1,0.683,,
,,,,,,,,,,,,,1,001,2025-01-03_07h12.44.249,IAT(Formal),2021.2.3,Win32,60.60606061,,,,,,,,,,,,,,,,,,,,,,,,,,,,,,,,,,,,,,,,,,,,,,,,,,,,,勇敢,e,,,e,1,0,31,31,17,1,1.0475,,
,,,,,,,,,,,,,1,001,2025-01-03_07h12.44.249,IAT(Formal),2021.2.3,Win32,60.60606061,,,,,,,,,,,,,,,,,,,,,,,,,,,,,,,,,,,,,,,,,,,,,,,,,,,,,朴实,e,,,e,1,0,32,32,24,1,1.0664,,
,,,,,,,,,,,,,1,001,2025-01-03_07h12.44.249,IAT(Formal),2021.2.3,Win32,60.60606061,,,,,,,,,,,,,,,,,,,,,,,,,,,,,,,,,,,,,,,,,,,,,,,,,,,,,公正,e,,,e,1,0,33,33,23,1,0.6731,,
,,,,,,,,,,,,,1,001,2025-01-03_07h12.44.249,IAT(Formal),2021.2.3,Win32,60.60606061,,,,,,,,,,,,,,,,,,,,,,,,,,,,,,,,,,,,,,,,,,,,,,,,,,,,,他,e,,,e,1,0,34,34,5,1,0.8392,,
,,,,,,,,,,,,,1,001,2025-01-03_07h12.44.249,IAT(Formal),2021.2.3,Win32,60.60606061,,,,,,,,,,,,,,,,,,,,,,,,,,,,,,,,,,,,,,,,,,,,,,,,,,,,,他们,e,,,e,1,0,35,35,56,1,1.2679,,
,,,,,,,,,,,,,1,001,2025-01-03_07h12.44.249,IAT(Formal),2021.2.3,Win32,60.60606061,,,,,,,,,,,,,,,,,,,,,,,,,,,,,,,,,,,,,,,,,,,,,,,,,,,,,我,i,,,i,1,0,36,36,70,1,0.7157,,
,,,,,,,,,,,,,1,001,2025-01-03_07h12.44.249,IAT(Formal),2021.2.3,Win32,60.60606061,,,,,,,,,,,,,,,,,,,,,,,,,,,,,,,,,,,,,,,,,,,,,,,,,,,,,我的,i,,,i,1,0,37,37,51,1,1.4045,,
,,,,,,,,,,,,,1,001,2025-01-03_07h12.44.249,IAT(Formal),2021.2.3,Win32,60.60606061,,,,,,,,,,,,,,,,,,,,,,,,,,,,,,,,,,,,,,,,,,,,,,,,,,,,,其他,e,,,e,1,0,38,38,59,1,0.5578,,
,,,,,,,,,,,,,1,001,2025-01-03_07h12.44.249,IAT(Formal),2021.2.3,Win32,60.60606061,,,,,,,,,,,,,,,,,,,,,,,,,,,,,,,,,,,,,,,,,,,,,,,,,,,,,我们,i,,,i,1,0,39,39,2,1,0.4325,,
,,,,,,,,,,,,,1,001,2025-01-03_07h12.44.249,IAT(Formal),2021.2.3,Win32,60.60606061,,,,,,,,,,,,,,,,,,,,,,,,,,,,,,,,,,,,,,,,,,,,,,,,,,,,,消极,i,,,i,1,0,40,40,35,1,0.5125,,
,,,,,,,,,,,,,1,001,2025-01-03_07h12.44.249,IAT(Formal),2021.2.3,Win32,60.60606061,,,,,,,,,,,,,,,,,,,,,,,,,,,,,,,,,,,,,,,,,,,,,,,,,,,,,机智,e,,,e,1,0,41,41,19,1,0.641,,
,,,,,,,,,,,,,1,001,2025-01-03_07h12.44.249,IAT(Formal),2021.2.3,Win32,60.60606061,,,,,,,,,,,,,,,,,,,,,,,,,,,,,,,,,,,,,,,,,,,,,,,,,,,,,愚蠢,i,,,e,0,0,42,42,32,1,0.5537,,
,,,,,,,,,,,,,1,001,2025-01-03_07h12.44.249,IAT(Formal),2021.2.3,Win32,60.60606061,,,,,,,,,,,,,,,,,,,,,,,,,,,,,,,,,,,,,,,,,,,,,,,,,,,,,聪明,e,,,e,1,0,43,43,12,1,0.5336,,
,,,,,,,,,,,,,1,001,2025-01-03_07h12.44.249,IAT(Formal),2021.2.3,Win32,60.60606061,,,,,,,,,,,,,,,,,,,,,,,,,,,,,,,,,,,,,,,,,,,,,,,,,,,,,我的,i,,,i,1,0,44,44,61,1,0.4962,,
,,,,,,,,,,,,,1,001,2025-01-03_07h12.44.249,IAT(Formal),2021.2.3,Win32,60.60606061,,,,,,,,,,,,,,,,,,,,,,,,,,,,,,,,,,,,,,,,,,,,,,,,,,,,,我,i,,,i,1,0,45,45,60,1,0.5075,,
,,,,,,,,,,,,,1,001,2025-01-03_07h12.44.249,IAT(Formal),2021.2.3,Win32,60.60606061,,,,,,,,,,,,,,,,,,,,,,,,,,,,,,,,,,,,,,,,,,,,,,,,,,,,,俺,i,,,i,1,0,46,46,4,1,0.534,,
,,,,,,,,,,,,,1,001,2025-01-03_07h12.44.249,IAT(Formal),2021.2.3,Win32,60.60606061,,,,,,,,,,,,,,,,,,,,,,,,,,,,,,,,,,,,,,,,,,,,,,,,,,,,,杰出,e,,,e,1,0,47,47,13,1,0.514,,
,,,,,,,,,,,,,1,001,2025-01-03_07h12.44.249,IAT(Formal),2021.2.3,Win32,60.60606061,,,,,,,,,,,,,,,,,,,,,,,,,,,,,,,,,,,,,,,,,,,,,,,,,,,,,他,e,,,e,1,0,48,48,65,1,0.5531,,
,,,,,,,,,,,,,1,001,2025-01-03_07h12.44.249,IAT(Formal),2021.2.3,Win32,60.60606061,,,,,,,,,,,,,,,,,,,,,,,,,,,,,,,,,,,,,,,,,,,,,,,,,,,,,自己,i,,,i,1,0,49,49,63,1,0.4523,,
,,,,,,,,,,,,,1,001,2025-01-03_07h12.44.249,IAT(Formal),2021.2.3,Win32,60.60606061,,,,,,,,,,,,,,,,,,,,,,,,,,,,,,,,,,,,,,,,,,,,,,,,,,,,,固执,i,,,i,1,0,50,50,47,1,0.4245,,
,,,,,,,,,,,,,1,001,2025-01-03_07h12.44.249,IAT(Formal),2021.2.3,Win32,60.60606061,,,,,,,,,,,,,,,,,,,,,,,,,,,,,,,,,,,,,,,,,,,,,,,,,,,,,俺,i,,,i,1,0,51,51,64,1,0.6018,,
,,,,,,,,,,,,,1,001,2025-01-03_07h12.44.249,IAT(Formal),2021.2.3,Win32,60.60606061,,,,,,,,,,,,,,,,,,,,,,,,,,,,,,,,,,,,,,,,,,,,,,,,,,,,,野蛮,i,,,,0,0,52,52,46,1,,,
,,,,,,,,,,,,,1,001,2025-01-03_07h12.44.249,IAT(Formal),2021.2.3,Win32,60.60606061,,,,,,,,,,,,,,,,,,,,,,,,,,,,,,,,,,,,,,,,,,,,,,,,,,,,,傲慢,i,,,i,1,0,53,53,37,1,0.4889,,
,,,,,,,,,,,,,1,001,2025-01-03_07h12.44.249,IAT(Formal),2021.2.3,Win32,60.60606061,,,,,,,,,,,,,,,,,,,,,,,,,,,,,,,,,,,,,,,,,,,,,,,,,,,,,他人,e,,,e,1,0,54,54,58,1,0.6544,,
,,,,,,,,,,,,,1,001,2025-01-03_07h12.44.249,IAT(Formal),2021.2.3,Win32,60.60606061,,,,,,,,,,,,,,,,,,,,,,,,,,,,,,,,,,,,,,,,,,,,,,,,,,,,,他人,e,,,e,1,0,55,55,68,1,1.0334,,
,,,,,,,,,,,,,1,001,2025-01-03_07h12.44.249,IAT(Formal),2021.2.3,Win32,60.60606061,,,,,,,,,,,,,,,,,,,,,,,,,,,,,,,,,,,,,,,,,,,,,,,,,,,,,悲观,i,,,i,1,0,56,56,34,1,0.5889,,
,,,,,,,,,,,,,1,001,2025-01-03_07h12.44.249,IAT(Formal),2021.2.3,Win32,60.60606061,,,,,,,,,,,,,,,,,,,,,,,,,,,,,,,,,,,,,,,,,,,,,,,,,,,,,其他,e,,,e,1,0,57,57,79,1,0.8479,,
,,,,,,,,,,,,,1,001,2025-01-03_07h12.44.249,IAT(Formal),2021.2.3,Win32,60.60606061,,,,,,,,,,,,,,,,,,,,,,,,,,,,,,,,,,,,,,,,,,,,,,,,,,,,,冒失,i,,,i,1,0,58,58,39,1,0.6816,,
,,,,,,,,,,,,,1,001,2025-01-03_07h12.44.249,IAT(Formal),2021.2.3,Win32,60.60606061,,,,,,,,,,,,,,,,,,,,,,,,,,,,,,,,,,,,,,,,,,,,,,,,,,,,,卑鄙,i,,,i,1,0,59,59,30,1,0.6538,,
,,,,,,,,,,,,,1,001,2025-01-03_07h12.44.249,IAT(Formal),2021.2.3,Win32,60.60606061,,,,,,,,,,,,,,,,,,,,,,,,,,,,,,,,,,,,,,,,,,,,,,,,,,,,,崇高,e,,,e,1,0,60,60,11,1,0.6056,,
,,,,,,,,,,,,,1,001,2025-01-03_07h12.44.249,IAT(Formal),2021.2.3,Win32,60.60606061,,,,,,,,,,,,,,,,,,,,,,,,,,,,,,,,,,,,,,,,,,,,,,,,,,,,,他的,e,,,e,1,0,61,61,57,1,0.5505,,
,,,,,,,,,,,,,1,001,2025-01-03_07h12.44.249,IAT(Formal),2021.2.3,Win32,60.60606061,,,,,,,,,,,,,,,,,,,,,,,,,,,,,,,,,,,,,,,,,,,,,,,,,,,,,细腻,e,,,e,1,0,62,62,25,1,0.7219,,
,,,,,,,,,,,,,1,001,2025-01-03_07h12.44.249,IAT(Formal),2021.2.3,Win32,60.60606061,,,,,,,,,,,,,,,,,,,,,,,,,,,,,,,,,,,,,,,,,,,,,,,,,,,,,自己,i,,,i,1,0,63,63,73,1,0.5867,,
,,,,,,,,,,,,,1,001,2025-01-03_07h12.44.249,IAT(Formal),2021.2.3,Win32,60.60606061,,,,,,,,,,,,,,,,,,,,,,,,,,,,,,,,,,,,,,,,,,,,,,,,,,,,,鲁莽,i,,,i,1,0,64,64,38,1,0.7055,,
,,,,,,,,,,,,,1,001,2025-01-03_07h12.44.249,IAT(Formal),2021.2.3,Win32,60.60606061,,,,,,,,,,,,,,,,,,,,,,,,,,,,,,,,,,,,,,,,,,,,,,,,,,,,,刻薄,i,,,i,1,0,65,65,33,1,0.4276,,
,,,,,,,,,,,,,1,001,2025-01-03_07h12.44.249,IAT(Formal),2021.2.3,Win32,60.60606061,,,,,,,,,,,,,,,,,,,,,,,,,,,,,,,,,,,,,,,,,,,,,,,,,,,,,暴躁,i,,,i,1,0,66,66,44,1,0.4579,,
,,,,,,,,,,,,,1,001,2025-01-03_07h12.44.249,IAT(Formal),2021.2.3,Win32,60.60606061,,,,,,,,,,,,,,,,,,,,,,,,,,,,,,,,,,,,,,,,,,,,,,,,,,,,,热情,e,,,e,1,0,67,67,27,1,0.5254,,
,,,,,,,,,,,,,1,001,2025-01-03_07h12.44.249,IAT(Formal),2021.2.3,Win32,60.60606061,,,,,,,,,,,,,,,,,,,,,,,,,,,,,,,,,,,,,,,,,,,,,,,,,,,,,自私,i,,,i,1,0,68,68,43,1,0.8678,,
,,,,,,,,,,,,,1,001,2025-01-03_07h12.44.249,IAT(Formal),2021.2.3,Win32,60.60606061,,,,,,,,,,,,,,,,,,,,,,,,,,,,,,,,,,,,,,,,,,,,,,,,,,,,,他人,e,,,e,1,0,69,69,78,1,0.9835,,
,,,,,,,,,,,,,1,001,2025-01-03_07h12.44.249,IAT(Formal),2021.2.3,Win32,60.60606061,,,,,,,,,,,,,,,,,,,,,,,,,,,,,,,,,,,,,,,,,,,,,,,,,,,,,猖狂,i,,,i,1,0,70,70,45,1,0.689,,
,,,,,,,,,,,,,1,001,2025-01-03_07h12.44.249,IAT(Formal),2021.2.3,Win32,60.60606061,,,,,,,,,,,,,,,,,,,,,,,,,,,,,,,,,,,,,,,,,,,,,,,,,,,,,勤奋,e,,,e,1,0,71,71,18,1,0.8221,,
,,,,,,,,,,,,,1,001,2025-01-03_07h12.44.249,IAT(Formal),2021.2.3,Win32,60.60606061,,,,,,,,,,,,,,,,,,,,,,,,,,,,,,,,,,,,,,,,,,,,,,,,,,,,,凶狠,i,,,i,1,0,72,72,42,1,0.5351,,
,,,,,,,,,,,,,1,001,2025-01-03_07h12.44.249,IAT(Formal),2021.2.3,Win32,60.60606061,,,,,,,,,,,,,,,,,,,,,,,,,,,,,,,,,,,,,,,,,,,,,,,,,,,,,无私,e,,,e,1,0,73,73,22,1,0.6823,,
,,,,,,,,,,,,,1,001,2025-01-03_07h12.44.249,IAT(Formal),2021.2.3,Win32,60.60606061,,,,,,,,,,,,,,,,,,,,,,,,,,,,,,,,,,,,,,,,,,,,,,,,,,,,,轻率,i,,,i,1,0,74,74,48,1,0.6439,,
,,,,,,,,,,,,,1,001,2025-01-03_07h12.44.249,IAT(Formal),2021.2.3,Win32,60.60606061,,,,,,,,,,,,,,,,,,,,,,,,,,,,,,,,,,,,,,,,,,,,,,,,,,,,,虚伪,i,,,i,1,0,75,75,31,1,1.1414,,
,,,,,,,,,,,,,1,001,2025-01-03_07h12.44.249,IAT(Formal),2021.2.3,Win32,60.60606061,,,,,,,,,,,,,,,,,,,,,,,,,,,,,,,,,,,,,,,,,,,,,,,,,,,,,冷静,e,,,e,1,0,76,76,26,1,0.5691,,
,,,,,,,,,,,,,1,001,2025-01-03_07h12.44.249,IAT(Formal),2021.2.3,Win32,60.60606061,,,,,,,,,,,,,,,,,,,,,,,,,,,,,,,,,,,,,,,,,,,,,,,,,,,,,我们,i,,,i,1,0,77,77,52,1,0.4959,,
,,,,,,,,,,,,,1,001,2025-01-03_07h12.44.249,IAT(Formal),2021.2.3,Win32,60.60606061,,,,,,,,,,,,,,,,,,,,,,,,,,,,,,,,,,,,,,,,,,,,,,,,,,,,,我们,i,,,i,1,0,78,78,72,1,0.5782,,
,,,,,,,,,,,,,1,001,2025-01-03_07h12.44.249,IAT(Formal),2021.2.3,Win32,60.60606061,,,,,,,,,,,,,,,,,,,,,,,,,,,,,,,,,,,,,,,,,,,,,,,,,,,,,我,i,,,i,1,0,79,79,0,1,0.4867,,
,,,,,,,,,,,,,1,001,2025-01-03_07h12.44.249,IAT(Formal),2021.2.3,Win32,60.60606061,,,,,,,,,,,,,,,,,,,,,,,,,,,,,,,,,,,,,,,,,,,,,,,,,,,,,聪明,e,,,e,1,1,0,80,12,1,0.8161,,
,,,,,,,,,,,,,1,001,2025-01-03_07h12.44.249,IAT(Formal),2021.2.3,Win32,60.60606061,,,,,,,,,,,,,,,,,,,,,,,,,,,,,,,,,,,,,,,,,,,,,,,,,,,,,执拗,i,,,i,1,1,1,81,40,1,0.5915,,
,,,,,,,,,,,,,1,001,2025-01-03_07h12.44.249,IAT(Formal),2021.2.3,Win32,60.60606061,,,,,,,,,,,,,,,,,,,,,,,,,,,,,,,,,,,,,,,,,,,,,,,,,,,,,散漫,i,,,i,1,1,2,82,41,1,0.4638,,
,,,,,,,,,,,,,1,001,2025-01-03_07h12.44.249,IAT(Formal),2021.2.3,Win32,60.60606061,,,,,,,,,,,,,,,,,,,,,,,,,,,,,,,,,,,,,,,,,,,,,,,,,,,,,傲慢,i,,,i,1,1,3,83,37,1,0.4997,,
,,,,,,,,,,,,,1,001,2025-01-03_07h12.44.249,IAT(Formal),2021.2.3,Win32,60.60606061,,,,,,,,,,,,,,,,,,,,,,,,,,,,,,,,,,,,,,,,,,,,,,,,,,,,,他们,e,,,e,1,1,4,84,76,1,0.6464,,
,,,,,,,,,,,,,1,001,2025-01-03_07h12.44.249,IAT(Formal),2021.2.3,Win32,60.60606061,,,,,,,,,,,,,,,,,,,,,,,,,,,,,,,,,,,,,,,,,,,,,,,,,,,,,我们,i,,,i,1,1,5,85,2,1,0.5995,,
,,,,,,,,,,,,,1,001,2025-01-03_07h12.44.249,IAT(Formal),2021.2.3,Win32,60.60606061,,,,,,,,,,,,,,,,,,,,,,,,,,,,,,,,,,,,,,,,,,,,,,,,,,,,,我们,i,,,e,0,1,6,86,72,1,0.5761,,
,,,,,,,,,,,,,1,001,2025-01-03_07h12.44.249,IAT(Formal),2021.2.3,Win32,60.60606061,,,,,,,,,,,,,,,,,,,,,,,,,,,,,,,,,,,,,,,,,,,,,,,,,,,,,我的,i,,,i,1,1,7,87,61,1,0.4647,,
,,,,,,,,,,,,,1,001,2025-01-03_07h12.44.249,IAT(Formal),2021.2.3,Win32,60.60606061,,,,,,,,,,,,,,,,,,,,,,,,,,,,,,,,,,,,,,,,,,,,,,,,,,,,,俺,i,,,i,1,1,8,88,4,1,0.5744,,
,,,,,,,,,,,,,1,001,2025-01-03_07h12.44.249,IAT(Formal),2021.2.3,Win32,60.60606061,,,,,,,,,,,,,,,,,,,,,,,,,,,,,,,,,,,,,,,,,,,,,,,,,,,,,崇高,e,,,e,1,1,9,89,11,1,0.6671,,
,,,,,,,,,,,,,1,001,2025-01-03_07h12.44.249,IAT(Formal),2021.2.3,Win32,60.60606061,,,,,,,,,,,,,,,,,,,,,,,,,,,,,,,,,,,,,,,,,,,,,,,,,,,,,勤奋,e,,,e,1,1,10,90,18,1,0.8187,,
,,,,,,,,,,,,,1,001,2025-01-03_07h12.44.249,IAT(Formal),2021.2.3,Win32,60.60606061,,,,,,,,,,,,,,,,,,,,,,,,,,,,,,,,,,,,,,,,,,,,,,,,,,,,,他人,e,,,e,1,1,11,91,8,1,0.6844,,
,,,,,,,,,,,,,1,001,2025-01-03_07h12.44.249,IAT(Formal),2021.2.3,Win32,60.60606061,,,,,,,,,,,,,,,,,,,,,,,,,,,,,,,,,,,,,,,,,,,,,,,,,,,,,冒失,i,,,i,1,1,12,92,39,1,0.6578,,
,,,,,,,,,,,,,1,001,2025-01-03_07h12.44.249,IAT(Formal),2021.2.3,Win32,60.60606061,,,,,,,,,,,,,,,,,,,,,,,,,,,,,,,,,,,,,,,,,,,,,,,,,,,,,俺,i,,,i,1,1,13,93,64,1,0.5396,,
,,,,,,,,,,,,,1,001,2025-01-03_07h12.44.249,IAT(Formal),2021.2.3,Win32,60.60606061,,,,,,,,,,,,,,,,,,,,,,,,,,,,,,,,,,,,,,,,,,,,,,,,,,,,,刻薄,i,,,i,1,1,14,94,33,1,0.7269,,
,,,,,,,,,,,,,1,001,2025-01-03_07h12.44.249,IAT(Formal),2021.2.3,Win32,60.60606061,,,,,,,,,,,,,,,,,,,,,,,,,,,,,,,,,,,,,,,,,,,,,,,,,,,,,凶狠,i,,,i,1,1,15,95,42,1,0.683,,
,,,,,,,,,,,,,1,001,2025-01-03_07h12.44.249,IAT(Formal),2021.2.3,Win32,60.60606061,,,,,,,,,,,,,,,,,,,,,,,,,,,,,,,,,,,,,,,,,,,,,,,,,,,,,认真,e,,,e,1,1,16,96,20,1,0.6491,,
,,,,,,,,,,,,,1,001,2025-01-03_07h12.44.249,IAT(Formal),2021.2.3,Win32,60.60606061,,,,,,,,,,,,,,,,,,,,,,,,,,,,,,,,,,,,,,,,,,,,,,,,,,,,,自卑,i,,,i,1,1,17,97,36,1,0.6887,,
,,,,,,,,,,,,,1,001,2025-01-03_07h12.44.249,IAT(Formal),2021.2.3,Win32,60.60606061,,,,,,,,,,,,,,,,,,,,,,,,,,,,,,,,,,,,,,,,,,,,,,,,,,,,,固执,i,,,i,1,1,18,98,47,1,0.6908,,
,,,,,,,,,,,,,1,001,2025-01-03_07h12.44.249,IAT(Formal),2021.2.3,Win32,60.60606061,,,,,,,,,,,,,,,,,,,,,,,,,,,,,,,,,,,,,,,,,,,,,,,,,,,,,他,e,,,e,1,1,19,99,75,1,0.8208,,
,,,,,,,,,,,,,1,001,2025-01-03_07h12.44.249,IAT(Formal),2021.2.3,Win32,60.60606061,,,,,,,,,,,,,,,,,,,,,,,,,,,,,,,,,,,,,,,,,,,,,,,,,,,,,他的,e,,,e,1,1,20,100,57,1,0.6663,,
,,,,,,,,,,,,,1,001,2025-01-03_07h12.44.249,IAT(Formal),2021.2.3,Win32,60.60606061,,,,,,,,,,,,,,,,,,,,,,,,,,,,,,,,,,,,,,,,,,,,,,,,,,,,,他的,e,,,i,0,1,21,101,67,1,0.6556,,
,,,,,,,,,,,,,1,001,2025-01-03_07h12.44.249,IAT(Formal),2021.2.3,Win32,60.60606061,,,,,,,,,,,,,,,,,,,,,,,,,,,,,,,,,,,,,,,,,,,,,,,,,,,,,机智,e,,,e,1,1,22,102,19,1,0.7882,,
,,,,,,,,,,,,,1,001,2025-01-03_07h12.44.249,IAT(Formal),2021.2.3,Win32,60.60606061,,,,,,,,,,,,,,,,,,,,,,,,,,,,,,,,,,,,,,,,,,,,,,,,,,,,,自己,i,,,i,1,1,23,103,53,1,0.6657,,
,,,,,,,,,,,,,1,001,2025-01-03_07h12.44.249,IAT(Formal),2021.2.3,Win32,60.60606061,,,,,,,,,,,,,,,,,,,,,,,,,,,,,,,,,,,,,,,,,,,,,,,,,,,,,活泼,e,,,e,1,1,24,104,28,1,0.6056,,
,,,,,,,,,,,,,1,001,2025-01-03_07h12.44.249,IAT(Formal),2021.2.3,Win32,60.60606061,,,,,,,,,,,,,,,,,,,,,,,,,,,,,,,,,,,,,,,,,,,,,,,,,,,,,鲁莽,i,,,i,1,1,25,105,38,1,0.573,,
,,,,,,,,,,,,,1,001,2025-01-03_07h12.44.249,IAT(Formal),2021.2.3,Win32,60.60606061,,,,,,,,,,,,,,,,,,,,,,,,,,,,,,,,,,,,,,,,,,,,,,,,,,,,,我的,i,,,i,1,1,26,106,71,1,0.6479,,
,,,,,,,,,,,,,1,001,2025-01-03_07h12.44.249,IAT(Formal),2021.2.3,Win32,60.60606061,,,,,,,,,,,,,,,,,,,,,,,,,,,,,,,,,,,,,,,,,,,,,,,,,,,,,虚伪,i,,,i,1,1,27,107,31,1,0.7904,,
,,,,,,,,,,,,,1,001,2025-01-03_07h12.44.249,IAT(Formal),2021.2.3,Win32,60.60606061,,,,,,,,,,,,,,,,,,,,,,,,,,,,,,,,,,,,,,,,,,,,,,,,,,,,,其他,e,,,e,1,1,28,108,59,1,0.706,,
,,,,,,,,,,,,,1,001,2025-01-03_07h12.44.249,IAT(Formal),2021.2.3,Win32,60.60606061,,,,,,,,,,,,,,,,,,,,,,,,,,,,,,,,,,,,,,,,,,,,,,,,,,,,,悲观,i,,,i,1,1,29,109,34,1,0.6575,,
,,,,,,,,,,,,,1,001,2025-01-03_07h12.44.249,IAT(Formal),2021.2.3,Win32,60.60606061,,,,,,,,,,,,,,,,,,,,,,,,,,,,,,,,,,,,,,,,,,,,,,,,,,,,,优秀,e,,,e,1,1,30,110,10,1,0.7095,,
,,,,,,,,,,,,,1,001,2025-01-03_07h12.44.249,IAT(Formal),2021.2.3,Win32,60.60606061,,,,,,,,,,,,,,,,,,,,,,,,,,,,,,,,,,,,,,,,,,,,,,,,,,,,,俺,i,,,i,1,1,31,111,74,1,0.6552,,
,,,,,,,,,,,,,1,001,2025-01-03_07h12.44.249,IAT(Formal),2021.2.3,Win32,60.60606061,,,,,,,,,,,,,,,,,,,,,,,,,,,,,,,,,,,,,,,,,,,,,,,,,,,,,稳重,e,,,,0,1,32,112,21,1,,,
,,,,,,,,,,,,,1,001,2025-01-03_07h12.44.249,IAT(Formal),2021.2.3,Win32,60.60606061,,,,,,,,,,,,,,,,,,,,,,,,,,,,,,,,,,,,,,,,,,,,,,,,,,,,,他,e,,,e,1,1,33,113,65,1,0.6148,,
,,,,,,,,,,,,,1,001,2025-01-03_07h12.44.249,IAT(Formal),2021.2.3,Win32,60.60606061,,,,,,,,,,,,,,,,,,,,,,,,,,,,,,,,,,,,,,,,,,,,,,,,,,,,,热情,e,,,e,1,1,34,114,27,1,0.5488,,
,,,,,,,,,,,,,1,001,2025-01-03_07h12.44.249,IAT(Formal),2021.2.3,Win32,60.60606061,,,,,,,,,,,,,,,,,,,,,,,,,,,,,,,,,,,,,,,,,,,,,,,,,,,,,诚恳,e,,,e,1,1,35,115,29,1,0.4642,,
,,,,,,,,,,,,,1,001,2025-01-03_07h12.44.249,IAT(Formal),2021.2.3,Win32,60.60606061,,,,,,,,,,,,,,,,,,,,,,,,,,,,,,,,,,,,,,,,,,,,,,,,,,,,,下贱,i,,,i,1,1,36,116,49,1,0.7174,,
,,,,,,,,,,,,,1,001,2025-01-03_07h12.44.249,IAT(Formal),2021.2.3,Win32,60.60606061,,,,,,,,,,,,,,,,,,,,,,,,,,,,,,,,,,,,,,,,,,,,,,,,,,,,,自己,i,,,i,1,1,37,117,73,1,0.9217,,
,,,,,,,,,,,,,1,001,2025-01-03_07h12.44.249,IAT(Formal),2021.2.3,Win32,60.60606061,,,,,,,,,,,,,,,,,,,,,,,,,,,,,,,,,,,,,,,,,,,,,,,,,,,,,猖狂,i,,,e,0,1,38,118,45,1,0.802,,
,,,,,,,,,,,,,1,001,2025-01-03_07h12.44.249,IAT(Formal),2021.2.3,Win32,60.60606061,,,,,,,,,,,,,,,,,,,,,,,,,,,,,,,,,,,,,,,,,,,,,,,,,,,,,乐观,e,,,e,1,1,39,119,14,1,0.5444,,
,,,,,,,,,,,,,1,001,2025-01-03_07h12.44.249,IAT(Formal),2021.2.3,Win32,60.60606061,,,,,,,,,,,,,,,,,,,,,,,,,,,,,,,,,,,,,,,,,,,,,,,,,,,,,愚蠢,i,,,i,1,1,40,120,32,1,0.6369,,
,,,,,,,,,,,,,1,001,2025-01-03_07h12.44.249,IAT(Formal),2021.2.3,Win32,60.60606061,,,,,,,,,,,,,,,,,,,,,,,,,,,,,,,,,,,,,,,,,,,,,,,,,,,,,公正,e,,,e,1,1,41,121,23,1,0.67,,
,,,,,,,,,,,,,1,001,2025-01-03_07h12.44.249,IAT(Formal),2021.2.3,Win32,60.60606061,,,,,,,,,,,,,,,,,,,,,,,,,,,,,,,,,,,,,,,,,,,,,,,,,,,,,野蛮,i,,,i,1,1,42,122,46,1,0.6816,,
,,,,,,,,,,,,,1,001,2025-01-03_07h12.44.249,IAT(Formal),2021.2.3,Win32,60.60606061,,,,,,,,,,,,,,,,,,,,,,,,,,,,,,,,,,,,,,,,,,,,,,,,,,,,,细腻,e,,,e,1,1,43,123,25,1,0.5701,,
,,,,,,,,,,,,,1,001,2025-01-03_07h12.44.249,IAT(Formal),2021.2.3,Win32,60.60606061,,,,,,,,,,,,,,,,,,,,,,,,,,,,,,,,,,,,,,,,,,,,,,,,,,,,,他人,e,,,e,1,1,44,124,58,1,0.6061,,
,,,,,,,,,,,,,1,001,2025-01-03_07h12.44.249,IAT(Formal),2021.2.3,Win32,60.60606061,,,,,,,,,,,,,,,,,,,,,,,,,,,,,,,,,,,,,,,,,,,,,,,,,,,,,消极,i,,,e,0,1,45,125,35,1,0.442,,
,,,,,,,,,,,,,1,001,2025-01-03_07h12.44.249,IAT(Formal),2021.2.3,Win32,60.60606061,,,,,,,,,,,,,,,,,,,,,,,,,,,,,,,,,,,,,,,,,,,,,,,,,,,,,他,e,,,e,1,1,46,126,55,1,0.449,,
,,,,,,,,,,,,,1,001,2025-01-03_07h12.44.249,IAT(Formal),2021.2.3,Win32,60.60606061,,,,,,,,,,,,,,,,,,,,,,,,,,,,,,,,,,,,,,,,,,,,,,,,,,,,,我,i,,,i,1,1,47,127,0,1,0.5168,,
,,,,,,,,,,,,,1,001,2025-01-03_07h12.44.249,IAT(Formal),2021.2.3,Win32,60.60606061,,,,,,,,,,,,,,,,,,,,,,,,,,,,,,,,,,,,,,,,,,,,,,,,,,,,,自己,i,,,i,1,1,48,128,63,1,0.4959,,
,,,,,,,,,,,,,1,001,2025-01-03_07h12.44.249,IAT(Formal),2021.2.3,Win32,60.60606061,,,,,,,,,,,,,,,,,,,,,,,,,,,,,,,,,,,,,,,,,,,,,,,,,,,,,他们,e,,,e,1,1,49,129,66,1,0.7817,,
,,,,,,,,,,,,,1,001,2025-01-03_07h12.44.249,IAT(Formal),2021.2.3,Win32,60.60606061,,,,,,,,,,,,,,,,,,,,,,,,,,,,,,,,,,,,,,,,,,,,,,,,,,,,,其他,e,,,e,1,1,50,130,79,1,0.7947,,
,,,,,,,,,,,,,1,001,2025-01-03_07h12.44.249,IAT(Formal),2021.2.3,Win32,60.60606061,,,,,,,,,,,,,,,,,,,,,,,,,,,,,,,,,,,,,,,,,,,,,,,,,,,,,诚实,e,,,e,1,1,51,131,15,1,0.6856,,
,,,,,,,,,,,,,1,001,2025-01-03_07h12.44.249,IAT(Formal),2021.2.3,Win32,60.60606061,,,,,,,,,,,,,,,,,,,,,,,,,,,,,,,,,,,,,,,,,,,,,,,,,,,,,他的,e,,,e,1,1,52,132,77,1,0.555,,
,,,,,,,,,,,,,1,001,2025-01-03_07h12.44.249,IAT(Formal),2021.2.3,Win32,60.60606061,,,,,,,,,,,,,,,,,,,,,,,,,,,,,,,,,,,,,,,,,,,,,,,,,,,,,他人,e,,,e,1,1,53,133,68,1,0.5015,,
,,,,,,,,,,,,,1,001,2025-01-03_07h12.44.249,IAT(Formal),2021.2.3,Win32,60.60606061,,,,,,,,,,,,,,,,,,,,,,,,,,,,,,,,,,,,,,,,,,,,,,,,,,,,,我,i,,,i,1,1,54,134,60,1,0.4737,,
,,,,,,,,,,,,,1,001,2025-01-03_07h12.44.249,IAT(Formal),2021.2.3,Win32,60.60606061,,,,,,,,,,,,,,,,,,,,,,,,,,,,,,,,,,,,,,,,,,,,,,,,,,,,,暴躁,i,,,i,1,1,55,135,44,1,0.7008,,
,,,,,,,,,,,,,1,001,2025-01-03_07h12.44.249,IAT(Formal),2021.2.3,Win32,60.60606061,,,,,,,,,,,,,,,,,,,,,,,,,,,,,,,,,,,,,,,,,,,,,,,,,,,,,俺,i,,,i,1,1,56,136,54,1,0.608,,
,,,,,,,,,,,,,1,001,2025-01-03_07h12.44.249,IAT(Formal),2021.2.3,Win32,60.60606061,,,,,,,,,,,,,,,,,,,,,,,,,,,,,,,,,,,,,,,,,,,,,,,,,,,,,其他,e,,,e,1,1,57,137,9,1,1.1912,,
,,,,,,,,,,,,,1,001,2025-01-03_07h12.44.249,IAT(Formal),2021.2.3,Win32,60.60606061,,,,,,,,,,,,,,,,,,,,,,,,,,,,,,,,,,,,,,,,,,,,,,,,,,,,,正直,e,,,e,1,1,58,138,16,1,0.4688,,
,,,,,,,,,,,,,1,001,2025-01-03_07h12.44.249,IAT(Formal),2021.2.3,Win32,60.60606061,,,,,,,,,,,,,,,,,,,,,,,,,,,,,,,,,,,,,,,,,,,,,,,,,,,,,他们,e,,,e,1,1,59,139,6,1,0.5892,,
,,,,,,,,,,,,,1,001,2025-01-03_07h12.44.249,IAT(Formal),2021.2.3,Win32,60.60606061,,,,,,,,,,,,,,,,,,,,,,,,,,,,,,,,,,,,,,,,,,,,,,,,,,,,,无私,e,,,e,1,1,60,140,22,1,0.5685,,
,,,,,,,,,,,,,1,001,2025-01-03_07h12.44.249,IAT(Formal),2021.2.3,Win32,60.60606061,,,,,,,,,,,,,,,,,,,,,,,,,,,,,,,,,,,,,,,,,,,,,,,,,,,,,卑鄙,i,,,i,1,1,61,141,30,1,0.7025,,
,,,,,,,,,,,,,1,001,2025-01-03_07h12.44.249,IAT(Formal),2021.2.3,Win32,60.60606061,,,,,,,,,,,,,,,,,,,,,,,,,,,,,,,,,,,,,,,,,,,,,,,,,,,,,轻率,i,,,i,1,1,62,142,48,1,0.6913,,
,,,,,,,,,,,,,1,001,2025-01-03_07h12.44.249,IAT(Formal),2021.2.3,Win32,60.60606061,,,,,,,,,,,,,,,,,,,,,,,,,,,,,,,,,,,,,,,,,,,,,,,,,,,,,我的,i,,,e,0,1,63,143,1,1,1.1979,,
,,,,,,,,,,,,,1,001,2025-01-03_07h12.44.249,IAT(Formal),2021.2.3,Win32,60.60606061,,,,,,,,,,,,,,,,,,,,,,,,,,,,,,,,,,,,,,,,,,,,,,,,,,,,,杰出,e,,,e,1,1,64,144,13,1,0.564,,
,,,,,,,,,,,,,1,001,2025-01-03_07h12.44.249,IAT(Formal),2021.2.3,Win32,60.60606061,,,,,,,,,,,,,,,,,,,,,,,,,,,,,,,,,,,,,,,,,,,,,,,,,,,,,他的,e,,,e,1,1,65,145,7,1,1.1206,,
,,,,,,,,,,,,,1,001,2025-01-03_07h12.44.249,IAT(Formal),2021.2.3,Win32,60.60606061,,,,,,,,,,,,,,,,,,,,,,,,,,,,,,,,,,,,,,,,,,,,,,,,,,,,,我,i,,,i,1,1,66,146,70,1,0.3648,,
,,,,,,,,,,,,,1,001,2025-01-03_07h12.44.249,IAT(Formal),2021.2.3,Win32,60.60606061,,,,,,,,,,,,,,,,,,,,,,,,,,,,,,,,,,,,,,,,,,,,,,,,,,,,,朴实,e,,,e,1,1,67,147,24,1,0.8664,,
,,,,,,,,,,,,,1,001,2025-01-03_07h12.44.249,IAT(Formal),2021.2.3,Win32,60.60606061,,,,,,,,,,,,,,,,,,,,,,,,,,,,,,,,,,,,,,,,,,,,,,,,,,,,,他,e,,,e,1,1,68,148,5,1,0.5027,,
,,,,,,,,,,,,,1,001,2025-01-03_07h12.44.249,IAT(Formal),2021.2.3,Win32,60.60606061,,,,,,,,,,,,,,,,,,,,,,,,,,,,,,,,,,,,,,,,,,,,,,,,,,,,,勇敢,e,,,e,1,1,69,149,17,1,0.5989,,
,,,,,,,,,,,,,1,001,2025-01-03_07h12.44.249,IAT(Formal),2021.2.3,Win32,60.60606061,,,,,,,,,,,,,,,,,,,,,,,,,,,,,,,,,,,,,,,,,,,,,,,,,,,,,我的,i,,,i,1,1,70,150,51,1,0.5092,,
,,,,,,,,,,,,,1,001,2025-01-03_07h12.44.249,IAT(Formal),2021.2.3,Win32,60.60606061,,,,,,,,,,,,,,,,,,,,,,,,,,,,,,,,,,,,,,,,,,,,,,,,,,,,,自私,i,,,i,1,1,71,151,43,1,0.4492,,
,,,,,,,,,,,,,1,001,2025-01-03_07h12.44.249,IAT(Formal),2021.2.3,Win32,60.60606061,,,,,,,,,,,,,,,,,,,,,,,,,,,,,,,,,,,,,,,,,,,,,,,,,,,,,他们,e,,,e,1,1,72,152,56,1,0.5562,,
,,,,,,,,,,,,,1,001,2025-01-03_07h12.44.249,IAT(Formal),2021.2.3,Win32,60.60606061,,,,,,,,,,,,,,,,,,,,,,,,,,,,,,,,,,,,,,,,,,,,,,,,,,,,,自己,i,,,i,1,1,73,153,3,1,0.6681,,
,,,,,,,,,,,,,1,001,2025-01-03_07h12.44.249,IAT(Formal),2021.2.3,Win32,60.60606061,,,,,,,,,,,,,,,,,,,,,,,,,,,,,,,,,,,,,,,,,,,,,,,,,,,,,他人,e,,,e,1,1,74,154,78,1,0.5317,,
,,,,,,,,,,,,,1,001,2025-01-03_07h12.44.249,IAT(Formal),2021.2.3,Win32,60.60606061,,,,,,,,,,,,,,,,,,,,,,,,,,,,,,,,,,,,,,,,,,,,,,,,,,,,,我,i,,,i,1,1,75,155,50,1,0.7985,,
,,,,,,,,,,,,,1,001,2025-01-03_07h12.44.249,IAT(Formal),2021.2.3,Win32,60.60606061,,,,,,,,,,,,,,,,,,,,,,,,,,,,,,,,,,,,,,,,,,,,,,,,,,,,,冷静,e,,,e,1,1,76,156,26,1,0.987,,
,,,,,,,,,,,,,1,001,2025-01-03_07h12.44.249,IAT(Formal),2021.2.3,Win32,60.60606061,,,,,,,,,,,,,,,,,,,,,,,,,,,,,,,,,,,,,,,,,,,,,,,,,,,,,其他,e,,,e,1,1,77,157,69,1,0.8203,,
,,,,,,,,,,,,,1,001,2025-01-03_07h12.44.249,IAT(Formal),2021.2.3,Win32,60.60606061,,,,,,,,,,,,,,,,,,,,,,,,,,,,,,,,,,,,,,,,,,,,,,,,,,,,,我们,i,,,i,1,1,78,158,62,1,1.2762,,
,,,,,,,,,,,,,1,001,2025-01-03_07h12.44.249,IAT(Formal),2021.2.3,Win32,60.60606061,,,,,,,,,,,,,,,,,,,,,,,,,,,,,,,,,,,,,,,,,,,,,,,,,,,,,我们,i,,,i,1,1,79,159,52,1,0.6356,,
,,,,,,,,,,,,,1,001,2025-01-03_07h12.44.249,IAT(Formal),2021.2.3,Win32,60.60606061,,,,,,,,,,,,,,,,,,,,,,,,,,,,,,,,,,,,,,,,,,,,,,,,,,,,,,,,,,,,,,,,,space,1.7124