﻿Instruction1.keys,Instruction1.rt,Instruction2.keys,Instruction2.rt,key_resp_iso.keys,key_resp_iso.corr,Practice_01.thisRepN,Practice_01.thisTrialN,Practice_01.thisN,Practice_01.thisIndex,Practice_01.ran,Words,ans,participant,session,date,expName,psychopyVersion,OS,frameRate,key_resp_iso.rt,key_resp_3.keys,key_resp_3.rt,key_resp_ipn.keys,key_resp_ipn.corr,key_resp_ipn.rt,Practice_02.thisRepN,Practice_02.thisTrialN,Practice_02.thisN,Practice_02.thisIndex,Practice_02.ran,Words_ipn,ans_ipn,key_resp_4.keys,key_resp_4.rt,key_resp_t1.keys,key_resp_t1.corr,key_resp_t1.rt,Practice_T1.thisRepN,Practice_T1.thisTrialN,Practice_T1.thisN,Practice_T1.thisIndex,Practice_T1.ran,Words_t1,ans_t1,key_resp_5.keys,key_resp_5.rt,Formal_T1.thisRepN,Formal_T1.thisTrialN,Formal_T1.thisN,Formal_T1.thisIndex,Formal_T1.ran,key_resp_6.keys,key_resp_6.rt,key_resp_iso_reverse.keys,key_resp_iso_reverse.corr,Practice_iso_Reverse.thisRepN,Practice_iso_Reverse.thisTrialN,Practice_iso_Reverse.thisN,Practice_iso_Reverse.thisIndex,Practice_iso_Reverse.ran,key_resp_iso_reverse.rt,key_resp_7.keys,key_resp_7.rt,key_resp_t2_Practice.keys,key_resp_t2_Practice.corr,key_resp_t2_Practice.rt,Practice_t2_Reverse.thisRepN,Practice_t2_Reverse.thisTrialN,Practice_t2_Reverse.thisN,Practice_t2_Reverse.thisIndex,Practice_t2_Reverse.ran,Words_t2,ans_t2,key_resp_8.keys,key_resp_8.rt,key_resp_t2.keys,key_resp_t2.corr,key_resp_t2.rt,Formal_t2_reverse.thisRepN,Formal_t2_reverse.thisTrialN,Formal_t2_reverse.thisN,Formal_t2_reverse.thisIndex,Formal_t2_reverse.ran,key_instruct.keys,key_instruct.rt
space,2.5356,space,26.9114,,0,0,0,0,8,1,他人,i,1,001,2025-01-03_16h40.48.041,IAT(Formal),2021.2.3,Win32,59.87665409,,,,,,,,,,,,,,,,,,,,,,,,,,,,,,,,,,,,,,,,,,,,,,,,,,,,,,,,,,,,,,,,,,
,,,,i,1,0,1,1,7,1,他的,i,1,001,2025-01-03_16h40.48.041,IAT(Formal),2021.2.3,Win32,59.87665409,1.0175,,,,,,,,,,,,,,,,,,,,,,,,,,,,,,,,,,,,,,,,,,,,,,,,,,,,,,,,,,,,,,,,,
,,,,e,1,0,2,2,3,1,自己,e,1,001,2025-01-03_16h40.48.041,IAT(Formal),2021.2.3,Win32,59.87665409,0.5511,,,,,,,,,,,,,,,,,,,,,,,,,,,,,,,,,,,,,,,,,,,,,,,,,,,,,,,,,,,,,,,,,
,,,,,0,0,3,3,1,1,我的,e,1,001,2025-01-03_16h40.48.041,IAT(Formal),2021.2.3,Win32,59.87665409,,,,,,,,,,,,,,,,,,,,,,,,,,,,,,,,,,,,,,,,,,,,,,,,,,,,,,,,,,,,,,,,,,
,,,,i,1,0,4,4,9,1,其他,i,1,001,2025-01-03_16h40.48.041,IAT(Formal),2021.2.3,Win32,59.87665409,0.6344,,,,,,,,,,,,,,,,,,,,,,,,,,,,,,,,,,,,,,,,,,,,,,,,,,,,,,,,,,,,,,,,,
,,,,e,1,0,5,5,2,1,我们,e,1,001,2025-01-03_16h40.48.041,IAT(Formal),2021.2.3,Win32,59.87665409,0.5013,,,,,,,,,,,,,,,,,,,,,,,,,,,,,,,,,,,,,,,,,,,,,,,,,,,,,,,,,,,,,,,,,
,,,,e,1,0,6,6,0,1,我,e,1,001,2025-01-03_16h40.48.041,IAT(Formal),2021.2.3,Win32,59.87665409,0.7507,,,,,,,,,,,,,,,,,,,,,,,,,,,,,,,,,,,,,,,,,,,,,,,,,,,,,,,,,,,,,,,,,
,,,,i,1,0,7,7,6,1,他们,i,1,001,2025-01-03_16h40.48.041,IAT(Formal),2021.2.3,Win32,59.87665409,0.5175,,,,,,,,,,,,,,,,,,,,,,,,,,,,,,,,,,,,,,,,,,,,,,,,,,,,,,,,,,,,,,,,,
,,,,i,1,0,8,8,5,1,他,i,1,001,2025-01-03_16h40.48.041,IAT(Formal),2021.2.3,Win32,59.87665409,0.7675,,,,,,,,,,,,,,,,,,,,,,,,,,,,,,,,,,,,,,,,,,,,,,,,,,,,,,,,,,,,,,,,,
,,,,e,1,0,9,9,4,1,俺,e,1,001,2025-01-03_16h40.48.041,IAT(Formal),2021.2.3,Win32,59.87665409,0.7675,,,,,,,,,,,,,,,,,,,,,,,,,,,,,,,,,,,,,,,,,,,,,,,,,,,,,,,,,,,,,,,,,
,,,,,,,,,,,,,1,001,2025-01-03_16h40.48.041,IAT(Formal),2021.2.3,Win32,59.87665409,,space,10.3248,e,1,0.6883,0,0,0,8,1,勤奋,e,,,,,,,,,,,,,,,,,,,,,,,,,,,,,,,,,,,,,,,,,,,,,,,,,,,,,
,,,,,,,,,,,,,1,001,2025-01-03_16h40.48.041,IAT(Formal),2021.2.3,Win32,59.87665409,,,,e,1,0.5168,0,1,1,6,1,正直,e,,,,,,,,,,,,,,,,,,,,,,,,,,,,,,,,,,,,,,,,,,,,,,,,,,,,,
,,,,,,,,,,,,,1,001,2025-01-03_16h40.48.041,IAT(Formal),2021.2.3,Win32,59.87665409,,,,e,1,0.7656,0,2,2,9,1,机智,e,,,,,,,,,,,,,,,,,,,,,,,,,,,,,,,,,,,,,,,,,,,,,,,,,,,,,
,,,,,,,,,,,,,1,001,2025-01-03_16h40.48.041,IAT(Formal),2021.2.3,Win32,59.87665409,,,,i,1,0.5959,0,3,3,22,1,愚蠢,i,,,,,,,,,,,,,,,,,,,,,,,,,,,,,,,,,,,,,,,,,,,,,,,,,,,,,
,,,,,,,,,,,,,1,001,2025-01-03_16h40.48.041,IAT(Formal),2021.2.3,Win32,59.87665409,,,,i,1,0.7195,0,4,4,26,1,自卑,i,,,,,,,,,,,,,,,,,,,,,,,,,,,,,,,,,,,,,,,,,,,,,,,,,,,,,
,,,,,,,,,,,,,1,001,2025-01-03_16h40.48.041,IAT(Formal),2021.2.3,Win32,59.87665409,,,,i,1,0.5657,0,5,5,29,1,冒失,i,,,,,,,,,,,,,,,,,,,,,,,,,,,,,,,,,,,,,,,,,,,,,,,,,,,,,
,,,,,,,,,,,,,1,001,2025-01-03_16h40.48.041,IAT(Formal),2021.2.3,Win32,59.87665409,,,,i,1,0.5319,0,6,6,28,1,鲁莽,i,,,,,,,,,,,,,,,,,,,,,,,,,,,,,,,,,,,,,,,,,,,,,,,,,,,,,
,,,,,,,,,,,,,1,001,2025-01-03_16h40.48.041,IAT(Formal),2021.2.3,Win32,59.87665409,,,,e,1,0.6817,0,7,7,4,1,乐观,e,,,,,,,,,,,,,,,,,,,,,,,,,,,,,,,,,,,,,,,,,,,,,,,,,,,,,
,,,,,,,,,,,,,1,001,2025-01-03_16h40.48.041,IAT(Formal),2021.2.3,Win32,59.87665409,,,,e,1,1.0322,0,8,8,15,1,细腻,e,,,,,,,,,,,,,,,,,,,,,,,,,,,,,,,,,,,,,,,,,,,,,,,,,,,,,
,,,,,,,,,,,,,1,001,2025-01-03_16h40.48.041,IAT(Formal),2021.2.3,Win32,59.87665409,,,,i,1,0.434,0,9,9,34,1,暴躁,i,,,,,,,,,,,,,,,,,,,,,,,,,,,,,,,,,,,,,,,,,,,,,,,,,,,,,
,,,,,,,,,,,,,1,001,2025-01-03_16h40.48.041,IAT(Formal),2021.2.3,Win32,59.87665409,,,,i,1,0.866,0,10,10,36,1,野蛮,i,,,,,,,,,,,,,,,,,,,,,,,,,,,,,,,,,,,,,,,,,,,,,,,,,,,,,
,,,,,,,,,,,,,1,001,2025-01-03_16h40.48.041,IAT(Formal),2021.2.3,Win32,59.87665409,,,,i,1,0.7654,0,11,11,27,1,傲慢,i,,,,,,,,,,,,,,,,,,,,,,,,,,,,,,,,,,,,,,,,,,,,,,,,,,,,,
,,,,,,,,,,,,,1,001,2025-01-03_16h40.48.041,IAT(Formal),2021.2.3,Win32,59.87665409,,,,e,0,0.4824,0,12,12,21,1,虚伪,i,,,,,,,,,,,,,,,,,,,,,,,,,,,,,,,,,,,,,,,,,,,,,,,,,,,,,
,,,,,,,,,,,,,1,001,2025-01-03_16h40.48.041,IAT(Formal),2021.2.3,Win32,59.87665409,,,,i,1,0.6662,0,13,13,38,1,轻率,i,,,,,,,,,,,,,,,,,,,,,,,,,,,,,,,,,,,,,,,,,,,,,,,,,,,,,
,,,,,,,,,,,,,1,001,2025-01-03_16h40.48.041,IAT(Formal),2021.2.3,Win32,59.87665409,,,,i,1,0.6988,0,14,14,30,1,执拗,i,,,,,,,,,,,,,,,,,,,,,,,,,,,,,,,,,,,,,,,,,,,,,,,,,,,,,
,,,,,,,,,,,,,1,001,2025-01-03_16h40.48.041,IAT(Formal),2021.2.3,Win32,59.87665409,,,,e,1,0.6327,0,15,15,7,1,勇敢,e,,,,,,,,,,,,,,,,,,,,,,,,,,,,,,,,,,,,,,,,,,,,,,,,,,,,,
,,,,,,,,,,,,,1,001,2025-01-03_16h40.48.041,IAT(Formal),2021.2.3,Win32,59.87665409,,,,e,1,1.0195,0,16,16,16,1,冷静,e,,,,,,,,,,,,,,,,,,,,,,,,,,,,,,,,,,,,,,,,,,,,,,,,,,,,,
,,,,,,,,,,,,,1,001,2025-01-03_16h40.48.041,IAT(Formal),2021.2.3,Win32,59.87665409,,,,i,1,0.7341,0,17,17,35,1,猖狂,i,,,,,,,,,,,,,,,,,,,,,,,,,,,,,,,,,,,,,,,,,,,,,,,,,,,,,
,,,,,,,,,,,,,1,001,2025-01-03_16h40.48.041,IAT(Formal),2021.2.3,Win32,59.87665409,,,,e,1,0.7821,0,18,18,2,1,聪明,e,,,,,,,,,,,,,,,,,,,,,,,,,,,,,,,,,,,,,,,,,,,,,,,,,,,,,
,,,,,,,,,,,,,1,001,2025-01-03_16h40.48.041,IAT(Formal),2021.2.3,Win32,59.87665409,,,,e,1,0.5679,0,19,19,5,1,诚实,e,,,,,,,,,,,,,,,,,,,,,,,,,,,,,,,,,,,,,,,,,,,,,,,,,,,,,
,,,,,,,,,,,,,1,001,2025-01-03_16h40.48.041,IAT(Formal),2021.2.3,Win32,59.87665409,,,,e,1,0.4999,0,20,20,3,1,杰出,e,,,,,,,,,,,,,,,,,,,,,,,,,,,,,,,,,,,,,,,,,,,,,,,,,,,,,
,,,,,,,,,,,,,1,001,2025-01-03_16h40.48.041,IAT(Formal),2021.2.3,Win32,59.87665409,,,,e,1,0.4196,0,21,21,18,1,活泼,e,,,,,,,,,,,,,,,,,,,,,,,,,,,,,,,,,,,,,,,,,,,,,,,,,,,,,
,,,,,,,,,,,,,1,001,2025-01-03_16h40.48.041,IAT(Formal),2021.2.3,Win32,59.87665409,,,,e,1,0.5675,0,22,22,19,1,诚恳,e,,,,,,,,,,,,,,,,,,,,,,,,,,,,,,,,,,,,,,,,,,,,,,,,,,,,,
,,,,,,,,,,,,,1,001,2025-01-03_16h40.48.041,IAT(Formal),2021.2.3,Win32,59.87665409,,,,i,1,0.4509,0,23,23,32,1,凶狠,i,,,,,,,,,,,,,,,,,,,,,,,,,,,,,,,,,,,,,,,,,,,,,,,,,,,,,
,,,,,,,,,,,,,1,001,2025-01-03_16h40.48.041,IAT(Formal),2021.2.3,Win32,59.87665409,,,,e,1,0.7334,0,24,24,14,1,朴实,e,,,,,,,,,,,,,,,,,,,,,,,,,,,,,,,,,,,,,,,,,,,,,,,,,,,,,
,,,,,,,,,,,,,1,001,2025-01-03_16h40.48.041,IAT(Formal),2021.2.3,Win32,59.87665409,,,,i,1,0.717,0,25,25,37,1,固执,i,,,,,,,,,,,,,,,,,,,,,,,,,,,,,,,,,,,,,,,,,,,,,,,,,,,,,
,,,,,,,,,,,,,1,001,2025-01-03_16h40.48.041,IAT(Formal),2021.2.3,Win32,59.87665409,,,,e,1,0.7153,0,26,26,11,1,稳重,e,,,,,,,,,,,,,,,,,,,,,,,,,,,,,,,,,,,,,,,,,,,,,,,,,,,,,
,,,,,,,,,,,,,1,001,2025-01-03_16h40.48.041,IAT(Formal),2021.2.3,Win32,59.87665409,,,,e,1,0.5824,0,27,27,1,1,崇高,e,,,,,,,,,,,,,,,,,,,,,,,,,,,,,,,,,,,,,,,,,,,,,,,,,,,,,
,,,,,,,,,,,,,1,001,2025-01-03_16h40.48.041,IAT(Formal),2021.2.3,Win32,59.87665409,,,,i,1,0.6153,0,28,28,39,1,下贱,i,,,,,,,,,,,,,,,,,,,,,,,,,,,,,,,,,,,,,,,,,,,,,,,,,,,,,
,,,,,,,,,,,,,1,001,2025-01-03_16h40.48.041,IAT(Formal),2021.2.3,Win32,59.87665409,,,,i,1,0.5518,0,29,29,33,1,自私,i,,,,,,,,,,,,,,,,,,,,,,,,,,,,,,,,,,,,,,,,,,,,,,,,,,,,,
,,,,,,,,,,,,,1,001,2025-01-03_16h40.48.041,IAT(Formal),2021.2.3,Win32,59.87665409,,,,e,1,0.616,0,30,30,0,1,优秀,e,,,,,,,,,,,,,,,,,,,,,,,,,,,,,,,,,,,,,,,,,,,,,,,,,,,,,
,,,,,,,,,,,,,1,001,2025-01-03_16h40.48.041,IAT(Formal),2021.2.3,Win32,59.87665409,,,,e,1,0.4831,0,31,31,10,1,认真,e,,,,,,,,,,,,,,,,,,,,,,,,,,,,,,,,,,,,,,,,,,,,,,,,,,,,,
,,,,,,,,,,,,,1,001,2025-01-03_16h40.48.041,IAT(Formal),2021.2.3,Win32,59.87665409,,,,i,1,0.5341,0,32,32,25,1,消极,i,,,,,,,,,,,,,,,,,,,,,,,,,,,,,,,,,,,,,,,,,,,,,,,,,,,,,
,,,,,,,,,,,,,1,001,2025-01-03_16h40.48.041,IAT(Formal),2021.2.3,Win32,59.87665409,,,,i,1,0.6688,0,33,33,23,1,刻薄,i,,,,,,,,,,,,,,,,,,,,,,,,,,,,,,,,,,,,,,,,,,,,,,,,,,,,,
,,,,,,,,,,,,,1,001,2025-01-03_16h40.48.041,IAT(Formal),2021.2.3,Win32,59.87665409,,,,i,1,0.8004,0,34,34,24,1,悲观,i,,,,,,,,,,,,,,,,,,,,,,,,,,,,,,,,,,,,,,,,,,,,,,,,,,,,,
,,,,,,,,,,,,,1,001,2025-01-03_16h40.48.041,IAT(Formal),2021.2.3,Win32,59.87665409,,,,i,1,0.6507,0,35,35,20,1,卑鄙,i,,,,,,,,,,,,,,,,,,,,,,,,,,,,,,,,,,,,,,,,,,,,,,,,,,,,,
,,,,,,,,,,,,,1,001,2025-01-03_16h40.48.041,IAT(Formal),2021.2.3,Win32,59.87665409,,,,e,1,0.5657,0,36,36,17,1,热情,e,,,,,,,,,,,,,,,,,,,,,,,,,,,,,,,,,,,,,,,,,,,,,,,,,,,,,
,,,,,,,,,,,,,1,001,2025-01-03_16h40.48.041,IAT(Formal),2021.2.3,Win32,59.87665409,,,,e,1,0.6163,0,37,37,13,1,公正,e,,,,,,,,,,,,,,,,,,,,,,,,,,,,,,,,,,,,,,,,,,,,,,,,,,,,,
,,,,,,,,,,,,,1,001,2025-01-03_16h40.48.041,IAT(Formal),2021.2.3,Win32,59.87665409,,,,i,1,0.5532,0,38,38,31,1,散漫,i,,,,,,,,,,,,,,,,,,,,,,,,,,,,,,,,,,,,,,,,,,,,,,,,,,,,,
,,,,,,,,,,,,,1,001,2025-01-03_16h40.48.041,IAT(Formal),2021.2.3,Win32,59.87665409,,,,e,1,0.7194,0,39,39,12,1,无私,e,,,,,,,,,,,,,,,,,,,,,,,,,,,,,,,,,,,,,,,,,,,,,,,,,,,,,
,,,,,,,,,,,,,1,001,2025-01-03_16h40.48.041,IAT(Formal),2021.2.3,Win32,59.87665409,,,,,,,,,,,,,,space,12.1779,e,1,0.9072,0,0,0,21,1,稳重,e,,,,,,,,,,,,,,,,,,,,,,,,,,,,,,,,,,,,,,,,,
,,,,,,,,,,,,,1,001,2025-01-03_16h40.48.041,IAT(Formal),2021.2.3,Win32,59.87665409,,,,,,,,,,,,,,,,i,1,0.6842,0,1,1,44,1,暴躁,i,,,,,,,,,,,,,,,,,,,,,,,,,,,,,,,,,,,,,,,,,
,,,,,,,,,,,,,1,001,2025-01-03_16h40.48.041,IAT(Formal),2021.2.3,Win32,59.87665409,,,,,,,,,,,,,,,,e,1,1.2507,0,2,2,22,1,无私,e,,,,,,,,,,,,,,,,,,,,,,,,,,,,,,,,,,,,,,,,,
,,,,,,,,,,,,,1,001,2025-01-03_16h40.48.041,IAT(Formal),2021.2.3,Win32,59.87665409,,,,,,,,,,,,,,,,i,1,0.6336,0,3,3,56,1,他们,i,,,,,,,,,,,,,,,,,,,,,,,,,,,,,,,,,,,,,,,,,
,,,,,,,,,,,,,1,001,2025-01-03_16h40.48.041,IAT(Formal),2021.2.3,Win32,59.87665409,,,,,,,,,,,,,,,,e,1,0.8858,0,4,4,19,1,机智,e,,,,,,,,,,,,,,,,,,,,,,,,,,,,,,,,,,,,,,,,,
,,,,,,,,,,,,,1,001,2025-01-03_16h40.48.041,IAT(Formal),2021.2.3,Win32,59.87665409,,,,,,,,,,,,,,,,i,1,0.5835,0,5,5,35,1,消极,i,,,,,,,,,,,,,,,,,,,,,,,,,,,,,,,,,,,,,,,,,
,,,,,,,,,,,,,1,001,2025-01-03_16h40.48.041,IAT(Formal),2021.2.3,Win32,59.87665409,,,,,,,,,,,,,,,,i,1,1.0174,0,6,6,77,1,他的,i,,,,,,,,,,,,,,,,,,,,,,,,,,,,,,,,,,,,,,,,,
,,,,,,,,,,,,,1,001,2025-01-03_16h40.48.041,IAT(Formal),2021.2.3,Win32,59.87665409,,,,,,,,,,,,,,,,i,1,0.7167,0,7,7,33,1,刻薄,i,,,,,,,,,,,,,,,,,,,,,,,,,,,,,,,,,,,,,,,,,
,,,,,,,,,,,,,1,001,2025-01-03_16h40.48.041,IAT(Formal),2021.2.3,Win32,59.87665409,,,,,,,,,,,,,,,,i,1,0.7336,0,8,8,69,1,其他,i,,,,,,,,,,,,,,,,,,,,,,,,,,,,,,,,,,,,,,,,,
,,,,,,,,,,,,,1,001,2025-01-03_16h40.48.041,IAT(Formal),2021.2.3,Win32,59.87665409,,,,,,,,,,,,,,,,i,1,0.6174,0,9,9,78,1,他人,i,,,,,,,,,,,,,,,,,,,,,,,,,,,,,,,,,,,,,,,,,
,,,,,,,,,,,,,1,001,2025-01-03_16h40.48.041,IAT(Formal),2021.2.3,Win32,59.87665409,,,,,,,,,,,,,,,,i,1,0.501,0,10,10,68,1,他人,i,,,,,,,,,,,,,,,,,,,,,,,,,,,,,,,,,,,,,,,,,
,,,,,,,,,,,,,1,001,2025-01-03_16h40.48.041,IAT(Formal),2021.2.3,Win32,59.87665409,,,,,,,,,,,,,,,,e,1,0.7548,0,11,11,28,1,活泼,e,,,,,,,,,,,,,,,,,,,,,,,,,,,,,,,,,,,,,,,,,
,,,,,,,,,,,,,1,001,2025-01-03_16h40.48.041,IAT(Formal),2021.2.3,Win32,59.87665409,,,,,,,,,,,,,,,,i,1,0.5836,0,12,12,46,1,野蛮,i,,,,,,,,,,,,,,,,,,,,,,,,,,,,,,,,,,,,,,,,,
,,,,,,,,,,,,,1,001,2025-01-03_16h40.48.041,IAT(Formal),2021.2.3,Win32,59.87665409,,,,,,,,,,,,,,,,e,1,0.5166,0,13,13,3,1,自己,e,,,,,,,,,,,,,,,,,,,,,,,,,,,,,,,,,,,,,,,,,
,,,,,,,,,,,,,1,001,2025-01-03_16h40.48.041,IAT(Formal),2021.2.3,Win32,59.87665409,,,,,,,,,,,,,,,,i,1,0.5672,0,14,14,57,1,他的,i,,,,,,,,,,,,,,,,,,,,,,,,,,,,,,,,,,,,,,,,,
,,,,,,,,,,,,,1,001,2025-01-03_16h40.48.041,IAT(Formal),2021.2.3,Win32,59.87665409,,,,,,,,,,,,,,,,i,1,0.6712,0,15,15,39,1,冒失,i,,,,,,,,,,,,,,,,,,,,,,,,,,,,,,,,,,,,,,,,,
,,,,,,,,,,,,,1,001,2025-01-03_16h40.48.041,IAT(Formal),2021.2.3,Win32,59.87665409,,,,,,,,,,,,,,,,e,1,0.5848,0,16,16,23,1,公正,e,,,,,,,,,,,,,,,,,,,,,,,,,,,,,,,,,,,,,,,,,
,,,,,,,,,,,,,1,001,2025-01-03_16h40.48.041,IAT(Formal),2021.2.3,Win32,59.87665409,,,,,,,,,,,,,,,,i,1,0.6002,0,17,17,8,1,他人,i,,,,,,,,,,,,,,,,,,,,,,,,,,,,,,,,,,,,,,,,,
,,,,,,,,,,,,,1,001,2025-01-03_16h40.48.041,IAT(Formal),2021.2.3,Win32,59.87665409,,,,,,,,,,,,,,,,i,1,0.5838,0,18,18,34,1,悲观,i,,,,,,,,,,,,,,,,,,,,,,,,,,,,,,,,,,,,,,,,,
,,,,,,,,,,,,,1,001,2025-01-03_16h40.48.041,IAT(Formal),2021.2.3,Win32,59.87665409,,,,,,,,,,,,,,,,e,1,0.5007,0,19,19,60,1,我,e,,,,,,,,,,,,,,,,,,,,,,,,,,,,,,,,,,,,,,,,,
,,,,,,,,,,,,,1,001,2025-01-03_16h40.48.041,IAT(Formal),2021.2.3,Win32,59.87665409,,,,,,,,,,,,,,,,i,1,0.5334,0,20,20,45,1,猖狂,i,,,,,,,,,,,,,,,,,,,,,,,,,,,,,,,,,,,,,,,,,
,,,,,,,,,,,,,1,001,2025-01-03_16h40.48.041,IAT(Formal),2021.2.3,Win32,59.87665409,,,,,,,,,,,,,,,,e,1,0.8005,0,21,21,71,1,我的,e,,,,,,,,,,,,,,,,,,,,,,,,,,,,,,,,,,,,,,,,,
,,,,,,,,,,,,,1,001,2025-01-03_16h40.48.041,IAT(Formal),2021.2.3,Win32,59.87665409,,,,,,,,,,,,,,,,e,1,0.7003,0,22,22,18,1,勤奋,e,,,,,,,,,,,,,,,,,,,,,,,,,,,,,,,,,,,,,,,,,
,,,,,,,,,,,,,1,001,2025-01-03_16h40.48.041,IAT(Formal),2021.2.3,Win32,59.87665409,,,,,,,,,,,,,,,,e,1,0.8173,0,23,23,73,1,自己,e,,,,,,,,,,,,,,,,,,,,,,,,,,,,,,,,,,,,,,,,,
,,,,,,,,,,,,,1,001,2025-01-03_16h40.48.041,IAT(Formal),2021.2.3,Win32,59.87665409,,,,,,,,,,,,,,,,i,1,0.6176,0,24,24,67,1,他的,i,,,,,,,,,,,,,,,,,,,,,,,,,,,,,,,,,,,,,,,,,
,,,,,,,,,,,,,1,001,2025-01-03_16h40.48.041,IAT(Formal),2021.2.3,Win32,59.87665409,,,,,,,,,,,,,,,,e,1,0.5003,0,25,25,63,1,自己,e,,,,,,,,,,,,,,,,,,,,,,,,,,,,,,,,,,,,,,,,,
,,,,,,,,,,,,,1,001,2025-01-03_16h40.48.041,IAT(Formal),2021.2.3,Win32,59.87665409,,,,,,,,,,,,,,,,e,1,0.5009,0,26,26,53,1,自己,e,,,,,,,,,,,,,,,,,,,,,,,,,,,,,,,,,,,,,,,,,
,,,,,,,,,,,,,1,001,2025-01-03_16h40.48.041,IAT(Formal),2021.2.3,Win32,59.87665409,,,,,,,,,,,,,,,,i,1,0.5843,0,27,27,30,1,卑鄙,i,,,,,,,,,,,,,,,,,,,,,,,,,,,,,,,,,,,,,,,,,
,,,,,,,,,,,,,1,001,2025-01-03_16h40.48.041,IAT(Formal),2021.2.3,Win32,59.87665409,,,,,,,,,,,,,,,,i,1,0.6035,0,28,28,9,1,其他,i,,,,,,,,,,,,,,,,,,,,,,,,,,,,,,,,,,,,,,,,,
,,,,,,,,,,,,,1,001,2025-01-03_16h40.48.041,IAT(Formal),2021.2.3,Win32,59.87665409,,,,,,,,,,,,,,,,e,1,0.6005,0,29,29,1,1,我的,e,,,,,,,,,,,,,,,,,,,,,,,,,,,,,,,,,,,,,,,,,
,,,,,,,,,,,,,1,001,2025-01-03_16h40.48.041,IAT(Formal),2021.2.3,Win32,59.87665409,,,,,,,,,,,,,,,,i,1,0.5841,0,30,30,32,1,愚蠢,i,,,,,,,,,,,,,,,,,,,,,,,,,,,,,,,,,,,,,,,,,
,,,,,,,,,,,,,1,001,2025-01-03_16h40.48.041,IAT(Formal),2021.2.3,Win32,59.87665409,,,,,,,,,,,,,,,,i,1,0.6001,0,31,31,48,1,轻率,i,,,,,,,,,,,,,,,,,,,,,,,,,,,,,,,,,,,,,,,,,
,,,,,,,,,,,,,1,001,2025-01-03_16h40.48.041,IAT(Formal),2021.2.3,Win32,59.87665409,,,,,,,,,,,,,,,,e,1,0.4505,0,32,32,52,1,我们,e,,,,,,,,,,,,,,,,,,,,,,,,,,,,,,,,,,,,,,,,,
,,,,,,,,,,,,,1,001,2025-01-03_16h40.48.041,IAT(Formal),2021.2.3,Win32,59.87665409,,,,,,,,,,,,,,,,e,1,0.7501,0,33,33,14,1,乐观,e,,,,,,,,,,,,,,,,,,,,,,,,,,,,,,,,,,,,,,,,,
,,,,,,,,,,,,,1,001,2025-01-03_16h40.48.041,IAT(Formal),2021.2.3,Win32,59.87665409,,,,,,,,,,,,,,,,e,1,0.5204,0,34,34,17,1,勇敢,e,,,,,,,,,,,,,,,,,,,,,,,,,,,,,,,,,,,,,,,,,
,,,,,,,,,,,,,1,001,2025-01-03_16h40.48.041,IAT(Formal),2021.2.3,Win32,59.87665409,,,,,,,,,,,,,,,,e,1,0.6672,0,35,35,64,1,俺,e,,,,,,,,,,,,,,,,,,,,,,,,,,,,,,,,,,,,,,,,,
,,,,,,,,,,,,,1,001,2025-01-03_16h40.48.041,IAT(Formal),2021.2.3,Win32,59.87665409,,,,,,,,,,,,,,,,i,1,0.6003,0,36,36,7,1,他的,i,,,,,,,,,,,,,,,,,,,,,,,,,,,,,,,,,,,,,,,,,
,,,,,,,,,,,,,1,001,2025-01-03_16h40.48.041,IAT(Formal),2021.2.3,Win32,59.87665409,,,,,,,,,,,,,,,,e,1,0.5504,0,37,37,27,1,热情,e,,,,,,,,,,,,,,,,,,,,,,,,,,,,,,,,,,,,,,,,,
,,,,,,,,,,,,,1,001,2025-01-03_16h40.48.041,IAT(Formal),2021.2.3,Win32,59.87665409,,,,,,,,,,,,,,,,e,1,0.6171,0,38,38,25,1,细腻,e,,,,,,,,,,,,,,,,,,,,,,,,,,,,,,,,,,,,,,,,,
,,,,,,,,,,,,,1,001,2025-01-03_16h40.48.041,IAT(Formal),2021.2.3,Win32,59.87665409,,,,,,,,,,,,,,,,e,1,0.4668,0,39,39,20,1,认真,e,,,,,,,,,,,,,,,,,,,,,,,,,,,,,,,,,,,,,,,,,
,,,,,,,,,,,,,1,001,2025-01-03_16h40.48.041,IAT(Formal),2021.2.3,Win32,59.87665409,,,,,,,,,,,,,,,,i,1,0.5163,0,40,40,49,1,下贱,i,,,,,,,,,,,,,,,,,,,,,,,,,,,,,,,,,,,,,,,,,
,,,,,,,,,,,,,1,001,2025-01-03_16h40.48.041,IAT(Formal),2021.2.3,Win32,59.87665409,,,,,,,,,,,,,,,,e,1,0.5171,0,41,41,15,1,诚实,e,,,,,,,,,,,,,,,,,,,,,,,,,,,,,,,,,,,,,,,,,
,,,,,,,,,,,,,1,001,2025-01-03_16h40.48.041,IAT(Formal),2021.2.3,Win32,59.87665409,,,,,,,,,,,,,,,,i,1,0.689,0,42,42,38,1,鲁莽,i,,,,,,,,,,,,,,,,,,,,,,,,,,,,,,,,,,,,,,,,,
,,,,,,,,,,,,,1,001,2025-01-03_16h40.48.041,IAT(Formal),2021.2.3,Win32,59.87665409,,,,,,,,,,,,,,,,e,1,0.5044,0,43,43,10,1,优秀,e,,,,,,,,,,,,,,,,,,,,,,,,,,,,,,,,,,,,,,,,,
,,,,,,,,,,,,,1,001,2025-01-03_16h40.48.041,IAT(Formal),2021.2.3,Win32,59.87665409,,,,,,,,,,,,,,,,e,1,0.6334,0,44,44,50,1,我,e,,,,,,,,,,,,,,,,,,,,,,,,,,,,,,,,,,,,,,,,,
,,,,,,,,,,,,,1,001,2025-01-03_16h40.48.041,IAT(Formal),2021.2.3,Win32,59.87665409,,,,,,,,,,,,,,,,e,1,0.6001,0,45,45,54,1,俺,e,,,,,,,,,,,,,,,,,,,,,,,,,,,,,,,,,,,,,,,,,
,,,,,,,,,,,,,1,001,2025-01-03_16h40.48.041,IAT(Formal),2021.2.3,Win32,59.87665409,,,,,,,,,,,,,,,,e,1,0.4533,0,46,46,51,1,我的,e,,,,,,,,,,,,,,,,,,,,,,,,,,,,,,,,,,,,,,,,,
,,,,,,,,,,,,,1,001,2025-01-03_16h40.48.041,IAT(Formal),2021.2.3,Win32,59.87665409,,,,,,,,,,,,,,,,i,1,0.5028,0,47,47,76,1,他们,i,,,,,,,,,,,,,,,,,,,,,,,,,,,,,,,,,,,,,,,,,
,,,,,,,,,,,,,1,001,2025-01-03_16h40.48.041,IAT(Formal),2021.2.3,Win32,59.87665409,,,,,,,,,,,,,,,,e,1,0.4835,0,48,48,0,1,我,e,,,,,,,,,,,,,,,,,,,,,,,,,,,,,,,,,,,,,,,,,
,,,,,,,,,,,,,1,001,2025-01-03_16h40.48.041,IAT(Formal),2021.2.3,Win32,59.87665409,,,,,,,,,,,,,,,,e,1,0.5168,0,49,49,12,1,聪明,e,,,,,,,,,,,,,,,,,,,,,,,,,,,,,,,,,,,,,,,,,
,,,,,,,,,,,,,1,001,2025-01-03_16h40.48.041,IAT(Formal),2021.2.3,Win32,59.87665409,,,,,,,,,,,,,,,,i,1,0.7005,0,50,50,40,1,执拗,i,,,,,,,,,,,,,,,,,,,,,,,,,,,,,,,,,,,,,,,,,
,,,,,,,,,,,,,1,001,2025-01-03_16h40.48.041,IAT(Formal),2021.2.3,Win32,59.87665409,,,,,,,,,,,,,,,,e,0,0.5338,0,51,51,75,1,他,i,,,,,,,,,,,,,,,,,,,,,,,,,,,,,,,,,,,,,,,,,
,,,,,,,,,,,,,1,001,2025-01-03_16h40.48.041,IAT(Formal),2021.2.3,Win32,59.87665409,,,,,,,,,,,,,,,,e,1,0.6181,0,52,52,11,1,崇高,e,,,,,,,,,,,,,,,,,,,,,,,,,,,,,,,,,,,,,,,,,
,,,,,,,,,,,,,1,001,2025-01-03_16h40.48.041,IAT(Formal),2021.2.3,Win32,59.87665409,,,,,,,,,,,,,,,,i,1,0.9723,0,53,53,42,1,凶狠,i,,,,,,,,,,,,,,,,,,,,,,,,,,,,,,,,,,,,,,,,,
,,,,,,,,,,,,,1,001,2025-01-03_16h40.48.041,IAT(Formal),2021.2.3,Win32,59.87665409,,,,,,,,,,,,,,,,i,1,0.6168,0,54,54,5,1,他,i,,,,,,,,,,,,,,,,,,,,,,,,,,,,,,,,,,,,,,,,,
,,,,,,,,,,,,,1,001,2025-01-03_16h40.48.041,IAT(Formal),2021.2.3,Win32,59.87665409,,,,,,,,,,,,,,,,i,1,0.6038,0,55,55,47,1,固执,i,,,,,,,,,,,,,,,,,,,,,,,,,,,,,,,,,,,,,,,,,
,,,,,,,,,,,,,1,001,2025-01-03_16h40.48.041,IAT(Formal),2021.2.3,Win32,59.87665409,,,,,,,,,,,,,,,,i,1,0.6556,0,56,56,65,1,他,i,,,,,,,,,,,,,,,,,,,,,,,,,,,,,,,,,,,,,,,,,
,,,,,,,,,,,,,1,001,2025-01-03_16h40.48.041,IAT(Formal),2021.2.3,Win32,59.87665409,,,,,,,,,,,,,,,,e,1,0.5171,0,57,57,29,1,诚恳,e,,,,,,,,,,,,,,,,,,,,,,,,,,,,,,,,,,,,,,,,,
,,,,,,,,,,,,,1,001,2025-01-03_16h40.48.041,IAT(Formal),2021.2.3,Win32,59.87665409,,,,,,,,,,,,,,,,i,1,0.5674,0,58,58,59,1,其他,i,,,,,,,,,,,,,,,,,,,,,,,,,,,,,,,,,,,,,,,,,
,,,,,,,,,,,,,1,001,2025-01-03_16h40.48.041,IAT(Formal),2021.2.3,Win32,59.87665409,,,,,,,,,,,,,,,,i,1,0.7011,0,59,59,79,1,其他,i,,,,,,,,,,,,,,,,,,,,,,,,,,,,,,,,,,,,,,,,,
,,,,,,,,,,,,,1,001,2025-01-03_16h40.48.041,IAT(Formal),2021.2.3,Win32,59.87665409,,,,,,,,,,,,,,,,i,1,0.6033,0,60,60,66,1,他们,i,,,,,,,,,,,,,,,,,,,,,,,,,,,,,,,,,,,,,,,,,
,,,,,,,,,,,,,1,001,2025-01-03_16h40.48.041,IAT(Formal),2021.2.3,Win32,59.87665409,,,,,,,,,,,,,,,,e,1,0.4793,0,61,61,2,1,我们,e,,,,,,,,,,,,,,,,,,,,,,,,,,,,,,,,,,,,,,,,,
,,,,,,,,,,,,,1,001,2025-01-03_16h40.48.041,IAT(Formal),2021.2.3,Win32,59.87665409,,,,,,,,,,,,,,,,i,1,0.5673,0,62,62,6,1,他们,i,,,,,,,,,,,,,,,,,,,,,,,,,,,,,,,,,,,,,,,,,
,,,,,,,,,,,,,1,001,2025-01-03_16h40.48.041,IAT(Formal),2021.2.3,Win32,59.87665409,,,,,,,,,,,,,,,,e,0,0.6667,0,63,63,37,1,傲慢,i,,,,,,,,,,,,,,,,,,,,,,,,,,,,,,,,,,,,,,,,,
,,,,,,,,,,,,,1,001,2025-01-03_16h40.48.041,IAT(Formal),2021.2.3,Win32,59.87665409,,,,,,,,,,,,,,,,e,1,1.3602,0,64,64,70,1,我,e,,,,,,,,,,,,,,,,,,,,,,,,,,,,,,,,,,,,,,,,,
,,,,,,,,,,,,,1,001,2025-01-03_16h40.48.041,IAT(Formal),2021.2.3,Win32,59.87665409,,,,,,,,,,,,,,,,e,1,0.5847,0,65,65,4,1,俺,e,,,,,,,,,,,,,,,,,,,,,,,,,,,,,,,,,,,,,,,,,
,,,,,,,,,,,,,1,001,2025-01-03_16h40.48.041,IAT(Formal),2021.2.3,Win32,59.87665409,,,,,,,,,,,,,,,,i,1,0.7503,0,66,66,58,1,他人,i,,,,,,,,,,,,,,,,,,,,,,,,,,,,,,,,,,,,,,,,,
,,,,,,,,,,,,,1,001,2025-01-03_16h40.48.041,IAT(Formal),2021.2.3,Win32,59.87665409,,,,,,,,,,,,,,,,i,1,0.5224,0,67,67,55,1,他,i,,,,,,,,,,,,,,,,,,,,,,,,,,,,,,,,,,,,,,,,,
,,,,,,,,,,,,,1,001,2025-01-03_16h40.48.041,IAT(Formal),2021.2.3,Win32,59.87665409,,,,,,,,,,,,,,,,e,1,0.5499,0,68,68,13,1,杰出,e,,,,,,,,,,,,,,,,,,,,,,,,,,,,,,,,,,,,,,,,,
,,,,,,,,,,,,,1,001,2025-01-03_16h40.48.041,IAT(Formal),2021.2.3,Win32,59.87665409,,,,,,,,,,,,,,,,e,1,0.5345,0,69,69,24,1,朴实,e,,,,,,,,,,,,,,,,,,,,,,,,,,,,,,,,,,,,,,,,,
,,,,,,,,,,,,,1,001,2025-01-03_16h40.48.041,IAT(Formal),2021.2.3,Win32,59.87665409,,,,,,,,,,,,,,,,i,1,0.6678,0,70,70,43,1,自私,i,,,,,,,,,,,,,,,,,,,,,,,,,,,,,,,,,,,,,,,,,
,,,,,,,,,,,,,1,001,2025-01-03_16h40.48.041,IAT(Formal),2021.2.3,Win32,59.87665409,,,,,,,,,,,,,,,,i,1,0.5175,0,71,71,36,1,自卑,i,,,,,,,,,,,,,,,,,,,,,,,,,,,,,,,,,,,,,,,,,
,,,,,,,,,,,,,1,001,2025-01-03_16h40.48.041,IAT(Formal),2021.2.3,Win32,59.87665409,,,,,,,,,,,,,,,,i,1,0.5003,0,72,72,41,1,散漫,i,,,,,,,,,,,,,,,,,,,,,,,,,,,,,,,,,,,,,,,,,
,,,,,,,,,,,,,1,001,2025-01-03_16h40.48.041,IAT(Formal),2021.2.3,Win32,59.87665409,,,,,,,,,,,,,,,,e,1,0.6501,0,73,73,62,1,我们,e,,,,,,,,,,,,,,,,,,,,,,,,,,,,,,,,,,,,,,,,,
,,,,,,,,,,,,,1,001,2025-01-03_16h40.48.041,IAT(Formal),2021.2.3,Win32,59.87665409,,,,,,,,,,,,,,,,e,1,0.4848,0,74,74,72,1,我们,e,,,,,,,,,,,,,,,,,,,,,,,,,,,,,,,,,,,,,,,,,
,,,,,,,,,,,,,1,001,2025-01-03_16h40.48.041,IAT(Formal),2021.2.3,Win32,59.87665409,,,,,,,,,,,,,,,,e,1,0.5341,0,75,75,74,1,俺,e,,,,,,,,,,,,,,,,,,,,,,,,,,,,,,,,,,,,,,,,,
,,,,,,,,,,,,,1,001,2025-01-03_16h40.48.041,IAT(Formal),2021.2.3,Win32,59.87665409,,,,,,,,,,,,,,,,e,1,0.5675,0,76,76,16,1,正直,e,,,,,,,,,,,,,,,,,,,,,,,,,,,,,,,,,,,,,,,,,
,,,,,,,,,,,,,1,001,2025-01-03_16h40.48.041,IAT(Formal),2021.2.3,Win32,59.87665409,,,,,,,,,,,,,,,,i,0,0.5841,0,77,77,26,1,冷静,e,,,,,,,,,,,,,,,,,,,,,,,,,,,,,,,,,,,,,,,,,
,,,,,,,,,,,,,1,001,2025-01-03_16h40.48.041,IAT(Formal),2021.2.3,Win32,59.87665409,,,,,,,,,,,,,,,,e,1,0.6174,0,78,78,61,1,我的,e,,,,,,,,,,,,,,,,,,,,,,,,,,,,,,,,,,,,,,,,,
,,,,,,,,,,,,,1,001,2025-01-03_16h40.48.041,IAT(Formal),2021.2.3,Win32,59.87665409,,,,,,,,,,,,,,,,i,1,0.717,0,79,79,31,1,虚伪,i,,,,,,,,,,,,,,,,,,,,,,,,,,,,,,,,,,,,,,,,,
,,,,,,,,,,,,,1,001,2025-01-03_16h40.48.041,IAT(Formal),2021.2.3,Win32,59.87665409,,,,,,,,,,,,,,,,i,1,0.9668,,,,,,散漫,i,space,10.5702,0,0,0,41,1,,,,,,,,,,,,,,,,,,,,,,,,,,,,,,,,,,
,,,,,,,,,,,,,1,001,2025-01-03_16h40.48.041,IAT(Formal),2021.2.3,Win32,59.87665409,,,,,,,,,,,,,,,,i,1,0.5884,,,,,,卑鄙,i,,,0,1,1,30,1,,,,,,,,,,,,,,,,,,,,,,,,,,,,,,,,,,
,,,,,,,,,,,,,1,001,2025-01-03_16h40.48.041,IAT(Formal),2021.2.3,Win32,59.87665409,,,,,,,,,,,,,,,,e,1,0.5524,,,,,,俺,e,,,0,2,2,74,1,,,,,,,,,,,,,,,,,,,,,,,,,,,,,,,,,,
,,,,,,,,,,,,,1,001,2025-01-03_16h40.48.041,IAT(Formal),2021.2.3,Win32,59.87665409,,,,,,,,,,,,,,,,i,1,0.6224,,,,,,他人,i,,,0,3,3,58,1,,,,,,,,,,,,,,,,,,,,,,,,,,,,,,,,,,
,,,,,,,,,,,,,1,001,2025-01-03_16h40.48.041,IAT(Formal),2021.2.3,Win32,59.87665409,,,,,,,,,,,,,,,,e,1,0.5669,,,,,,我,e,,,0,4,4,0,1,,,,,,,,,,,,,,,,,,,,,,,,,,,,,,,,,,
,,,,,,,,,,,,,1,001,2025-01-03_16h40.48.041,IAT(Formal),2021.2.3,Win32,59.87665409,,,,,,,,,,,,,,,,i,1,0.6169,,,,,,其他,i,,,0,5,5,59,1,,,,,,,,,,,,,,,,,,,,,,,,,,,,,,,,,,
,,,,,,,,,,,,,1,001,2025-01-03_16h40.48.041,IAT(Formal),2021.2.3,Win32,59.87665409,,,,,,,,,,,,,,,,i,1,0.6175,,,,,,凶狠,i,,,0,6,6,42,1,,,,,,,,,,,,,,,,,,,,,,,,,,,,,,,,,,
,,,,,,,,,,,,,1,001,2025-01-03_16h40.48.041,IAT(Formal),2021.2.3,Win32,59.87665409,,,,,,,,,,,,,,,,e,1,0.5706,,,,,,诚实,e,,,0,7,7,15,1,,,,,,,,,,,,,,,,,,,,,,,,,,,,,,,,,,
,,,,,,,,,,,,,1,001,2025-01-03_16h40.48.041,IAT(Formal),2021.2.3,Win32,59.87665409,,,,,,,,,,,,,,,,i,1,0.5669,,,,,,鲁莽,i,,,0,8,8,38,1,,,,,,,,,,,,,,,,,,,,,,,,,,,,,,,,,,
,,,,,,,,,,,,,1,001,2025-01-03_16h40.48.041,IAT(Formal),2021.2.3,Win32,59.87665409,,,,,,,,,,,,,,,,i,1,0.6358,,,,,,他,i,,,0,9,9,75,1,,,,,,,,,,,,,,,,,,,,,,,,,,,,,,,,,,
,,,,,,,,,,,,,1,001,2025-01-03_16h40.48.041,IAT(Formal),2021.2.3,Win32,59.87665409,,,,,,,,,,,,,,,,i,1,0.55,,,,,,自私,i,,,0,10,10,43,1,,,,,,,,,,,,,,,,,,,,,,,,,,,,,,,,,,
,,,,,,,,,,,,,1,001,2025-01-03_16h40.48.041,IAT(Formal),2021.2.3,Win32,59.87665409,,,,,,,,,,,,,,,,i,1,0.6005,,,,,,他的,i,,,0,11,11,7,1,,,,,,,,,,,,,,,,,,,,,,,,,,,,,,,,,,
,,,,,,,,,,,,,1,001,2025-01-03_16h40.48.041,IAT(Formal),2021.2.3,Win32,59.87665409,,,,,,,,,,,,,,,,i,1,0.5835,,,,,,下贱,i,,,0,12,12,49,1,,,,,,,,,,,,,,,,,,,,,,,,,,,,,,,,,,
,,,,,,,,,,,,,1,001,2025-01-03_16h40.48.041,IAT(Formal),2021.2.3,Win32,59.87665409,,,,,,,,,,,,,,,,i,1,0.499,,,,,,刻薄,i,,,0,13,13,33,1,,,,,,,,,,,,,,,,,,,,,,,,,,,,,,,,,,
,,,,,,,,,,,,,1,001,2025-01-03_16h40.48.041,IAT(Formal),2021.2.3,Win32,59.87665409,,,,,,,,,,,,,,,,i,1,0.6018,,,,,,他人,i,,,0,14,14,8,1,,,,,,,,,,,,,,,,,,,,,,,,,,,,,,,,,,
,,,,,,,,,,,,,1,001,2025-01-03_16h40.48.041,IAT(Formal),2021.2.3,Win32,59.87665409,,,,,,,,,,,,,,,,e,1,0.4857,,,,,,优秀,e,,,0,15,15,10,1,,,,,,,,,,,,,,,,,,,,,,,,,,,,,,,,,,
,,,,,,,,,,,,,1,001,2025-01-03_16h40.48.041,IAT(Formal),2021.2.3,Win32,59.87665409,,,,,,,,,,,,,,,,e,1,0.5504,,,,,,我们,e,,,0,16,16,72,1,,,,,,,,,,,,,,,,,,,,,,,,,,,,,,,,,,
,,,,,,,,,,,,,1,001,2025-01-03_16h40.48.041,IAT(Formal),2021.2.3,Win32,59.87665409,,,,,,,,,,,,,,,,i,1,0.5332,,,,,,他的,i,,,0,17,17,67,1,,,,,,,,,,,,,,,,,,,,,,,,,,,,,,,,,,
,,,,,,,,,,,,,1,001,2025-01-03_16h40.48.041,IAT(Formal),2021.2.3,Win32,59.87665409,,,,,,,,,,,,,,,,i,1,0.5503,,,,,,他人,i,,,0,18,18,68,1,,,,,,,,,,,,,,,,,,,,,,,,,,,,,,,,,,
,,,,,,,,,,,,,1,001,2025-01-03_16h40.48.041,IAT(Formal),2021.2.3,Win32,59.87665409,,,,,,,,,,,,,,,,e,1,0.4542,,,,,,我,e,,,0,19,19,60,1,,,,,,,,,,,,,,,,,,,,,,,,,,,,,,,,,,
,,,,,,,,,,,,,1,001,2025-01-03_16h40.48.041,IAT(Formal),2021.2.3,Win32,59.87665409,,,,,,,,,,,,,,,,e,1,0.3677,,,,,,我的,e,,,0,20,20,51,1,,,,,,,,,,,,,,,,,,,,,,,,,,,,,,,,,,
,,,,,,,,,,,,,1,001,2025-01-03_16h40.48.041,IAT(Formal),2021.2.3,Win32,59.87665409,,,,,,,,,,,,,,,,e,1,0.5723,,,,,,杰出,e,,,0,21,21,13,1,,,,,,,,,,,,,,,,,,,,,,,,,,,,,,,,,,
,,,,,,,,,,,,,1,001,2025-01-03_16h40.48.041,IAT(Formal),2021.2.3,Win32,59.87665409,,,,,,,,,,,,,,,,e,1,0.5502,,,,,,活泼,e,,,0,22,22,28,1,,,,,,,,,,,,,,,,,,,,,,,,,,,,,,,,,,
,,,,,,,,,,,,,1,001,2025-01-03_16h40.48.041,IAT(Formal),2021.2.3,Win32,59.87665409,,,,,,,,,,,,,,,,e,0,0.3669,,,,,,他,i,,,0,23,23,55,1,,,,,,,,,,,,,,,,,,,,,,,,,,,,,,,,,,
,,,,,,,,,,,,,1,001,2025-01-03_16h40.48.041,IAT(Formal),2021.2.3,Win32,59.87665409,,,,,,,,,,,,,,,,i,0,1.0337,,,,,,冷静,e,,,0,24,24,26,1,,,,,,,,,,,,,,,,,,,,,,,,,,,,,,,,,,
,,,,,,,,,,,,,1,001,2025-01-03_16h40.48.041,IAT(Formal),2021.2.3,Win32,59.87665409,,,,,,,,,,,,,,,,i,1,0.6209,,,,,,虚伪,i,,,0,25,25,31,1,,,,,,,,,,,,,,,,,,,,,,,,,,,,,,,,,,
,,,,,,,,,,,,,1,001,2025-01-03_16h40.48.041,IAT(Formal),2021.2.3,Win32,59.87665409,,,,,,,,,,,,,,,,i,1,0.6404,,,,,,轻率,i,,,0,26,26,48,1,,,,,,,,,,,,,,,,,,,,,,,,,,,,,,,,,,
,,,,,,,,,,,,,1,001,2025-01-03_16h40.48.041,IAT(Formal),2021.2.3,Win32,59.87665409,,,,,,,,,,,,,,,,i,1,0.6177,,,,,,其他,i,,,0,27,27,69,1,,,,,,,,,,,,,,,,,,,,,,,,,,,,,,,,,,
,,,,,,,,,,,,,1,001,2025-01-03_16h40.48.041,IAT(Formal),2021.2.3,Win32,59.87665409,,,,,,,,,,,,,,,,e,1,0.6839,,,,,,俺,e,,,0,28,28,54,1,,,,,,,,,,,,,,,,,,,,,,,,,,,,,,,,,,
,,,,,,,,,,,,,1,001,2025-01-03_16h40.48.041,IAT(Formal),2021.2.3,Win32,59.87665409,,,,,,,,,,,,,,,,i,1,0.7336,,,,,,冒失,i,,,0,29,29,39,1,,,,,,,,,,,,,,,,,,,,,,,,,,,,,,,,,,
,,,,,,,,,,,,,1,001,2025-01-03_16h40.48.041,IAT(Formal),2021.2.3,Win32,59.87665409,,,,,,,,,,,,,,,,e,1,0.517,,,,,,我的,e,,,0,30,30,1,1,,,,,,,,,,,,,,,,,,,,,,,,,,,,,,,,,,
,,,,,,,,,,,,,1,001,2025-01-03_16h40.48.041,IAT(Formal),2021.2.3,Win32,59.87665409,,,,,,,,,,,,,,,,e,1,0.4828,,,,,,自己,e,,,0,31,31,53,1,,,,,,,,,,,,,,,,,,,,,,,,,,,,,,,,,,
,,,,,,,,,,,,,1,001,2025-01-03_16h40.48.041,IAT(Formal),2021.2.3,Win32,59.87665409,,,,,,,,,,,,,,,,i,1,0.7687,,,,,,他们,i,,,0,32,32,76,1,,,,,,,,,,,,,,,,,,,,,,,,,,,,,,,,,,
,,,,,,,,,,,,,1,001,2025-01-03_16h40.48.041,IAT(Formal),2021.2.3,Win32,59.87665409,,,,,,,,,,,,,,,,e,1,0.9503,,,,,,热情,e,,,0,33,33,27,1,,,,,,,,,,,,,,,,,,,,,,,,,,,,,,,,,,
,,,,,,,,,,,,,1,001,2025-01-03_16h40.48.041,IAT(Formal),2021.2.3,Win32,59.87665409,,,,,,,,,,,,,,,,e,1,0.5167,,,,,,正直,e,,,0,34,34,16,1,,,,,,,,,,,,,,,,,,,,,,,,,,,,,,,,,,
,,,,,,,,,,,,,1,001,2025-01-03_16h40.48.041,IAT(Formal),2021.2.3,Win32,59.87665409,,,,,,,,,,,,,,,,e,1,0.4007,,,,,,自己,e,,,0,35,35,3,1,,,,,,,,,,,,,,,,,,,,,,,,,,,,,,,,,,
,,,,,,,,,,,,,1,001,2025-01-03_16h40.48.041,IAT(Formal),2021.2.3,Win32,59.87665409,,,,,,,,,,,,,,,,i,1,0.5835,,,,,,野蛮,i,,,0,36,36,46,1,,,,,,,,,,,,,,,,,,,,,,,,,,,,,,,,,,
,,,,,,,,,,,,,1,001,2025-01-03_16h40.48.041,IAT(Formal),2021.2.3,Win32,59.87665409,,,,,,,,,,,,,,,,i,1,0.7365,,,,,,消极,i,,,0,37,37,35,1,,,,,,,,,,,,,,,,,,,,,,,,,,,,,,,,,,
,,,,,,,,,,,,,1,001,2025-01-03_16h40.48.041,IAT(Formal),2021.2.3,Win32,59.87665409,,,,,,,,,,,,,,,,i,1,0.5504,,,,,,愚蠢,i,,,0,38,38,32,1,,,,,,,,,,,,,,,,,,,,,,,,,,,,,,,,,,
,,,,,,,,,,,,,1,001,2025-01-03_16h40.48.041,IAT(Formal),2021.2.3,Win32,59.87665409,,,,,,,,,,,,,,,,e,1,0.4836,,,,,,我们,e,,,0,39,39,62,1,,,,,,,,,,,,,,,,,,,,,,,,,,,,,,,,,,
,,,,,,,,,,,,,1,001,2025-01-03_16h40.48.041,IAT(Formal),2021.2.3,Win32,59.87665409,,,,,,,,,,,,,,,,e,1,0.5003,,,,,,诚恳,e,,,0,40,40,29,1,,,,,,,,,,,,,,,,,,,,,,,,,,,,,,,,,,
,,,,,,,,,,,,,1,001,2025-01-03_16h40.48.041,IAT(Formal),2021.2.3,Win32,59.87665409,,,,,,,,,,,,,,,,i,1,0.6332,,,,,,他们,i,,,0,41,41,66,1,,,,,,,,,,,,,,,,,,,,,,,,,,,,,,,,,,
,,,,,,,,,,,,,1,001,2025-01-03_16h40.48.041,IAT(Formal),2021.2.3,Win32,59.87665409,,,,,,,,,,,,,,,,e,1,0.6059,,,,,,俺,e,,,0,42,42,4,1,,,,,,,,,,,,,,,,,,,,,,,,,,,,,,,,,,
,,,,,,,,,,,,,1,001,2025-01-03_16h40.48.041,IAT(Formal),2021.2.3,Win32,59.87665409,,,,,,,,,,,,,,,,i,1,0.7527,,,,,,其他,i,,,0,43,43,9,1,,,,,,,,,,,,,,,,,,,,,,,,,,,,,,,,,,
,,,,,,,,,,,,,1,001,2025-01-03_16h40.48.041,IAT(Formal),2021.2.3,Win32,59.87665409,,,,,,,,,,,,,,,,e,1,0.6336,,,,,,朴实,e,,,0,44,44,24,1,,,,,,,,,,,,,,,,,,,,,,,,,,,,,,,,,,
,,,,,,,,,,,,,1,001,2025-01-03_16h40.48.041,IAT(Formal),2021.2.3,Win32,59.87665409,,,,,,,,,,,,,,,,i,1,0.6337,,,,,,他的,i,,,0,45,45,57,1,,,,,,,,,,,,,,,,,,,,,,,,,,,,,,,,,,
,,,,,,,,,,,,,1,001,2025-01-03_16h40.48.041,IAT(Formal),2021.2.3,Win32,59.87665409,,,,,,,,,,,,,,,,i,1,0.6004,,,,,,他们,i,,,0,46,46,56,1,,,,,,,,,,,,,,,,,,,,,,,,,,,,,,,,,,
,,,,,,,,,,,,,1,001,2025-01-03_16h40.48.041,IAT(Formal),2021.2.3,Win32,59.87665409,,,,,,,,,,,,,,,,e,1,0.6673,,,,,,无私,e,,,0,47,47,22,1,,,,,,,,,,,,,,,,,,,,,,,,,,,,,,,,,,
,,,,,,,,,,,,,1,001,2025-01-03_16h40.48.041,IAT(Formal),2021.2.3,Win32,59.87665409,,,,,,,,,,,,,,,,e,1,0.5671,,,,,,俺,e,,,0,48,48,64,1,,,,,,,,,,,,,,,,,,,,,,,,,,,,,,,,,,
,,,,,,,,,,,,,1,001,2025-01-03_16h40.48.041,IAT(Formal),2021.2.3,Win32,59.87665409,,,,,,,,,,,,,,,,e,1,0.4337,,,,,,自己,e,,,0,49,49,73,1,,,,,,,,,,,,,,,,,,,,,,,,,,,,,,,,,,
,,,,,,,,,,,,,1,001,2025-01-03_16h40.48.041,IAT(Formal),2021.2.3,Win32,59.87665409,,,,,,,,,,,,,,,,e,1,0.7345,,,,,,乐观,e,,,0,50,50,14,1,,,,,,,,,,,,,,,,,,,,,,,,,,,,,,,,,,
,,,,,,,,,,,,,1,001,2025-01-03_16h40.48.041,IAT(Formal),2021.2.3,Win32,59.87665409,,,,,,,,,,,,,,,,i,1,0.5341,,,,,,固执,i,,,0,51,51,47,1,,,,,,,,,,,,,,,,,,,,,,,,,,,,,,,,,,
,,,,,,,,,,,,,1,001,2025-01-03_16h40.48.041,IAT(Formal),2021.2.3,Win32,59.87665409,,,,,,,,,,,,,,,,i,1,0.6008,,,,,,他的,i,,,0,52,52,77,1,,,,,,,,,,,,,,,,,,,,,,,,,,,,,,,,,,
,,,,,,,,,,,,,1,001,2025-01-03_16h40.48.041,IAT(Formal),2021.2.3,Win32,59.87665409,,,,,,,,,,,,,,,,i,1,0.9005,,,,,,傲慢,i,,,0,53,53,37,1,,,,,,,,,,,,,,,,,,,,,,,,,,,,,,,,,,
,,,,,,,,,,,,,1,001,2025-01-03_16h40.48.041,IAT(Formal),2021.2.3,Win32,59.87665409,,,,,,,,,,,,,,,,i,1,0.6336,,,,,,他,i,,,0,54,54,5,1,,,,,,,,,,,,,,,,,,,,,,,,,,,,,,,,,,
,,,,,,,,,,,,,1,001,2025-01-03_16h40.48.041,IAT(Formal),2021.2.3,Win32,59.87665409,,,,,,,,,,,,,,,,e,1,0.6835,,,,,,稳重,e,,,0,55,55,21,1,,,,,,,,,,,,,,,,,,,,,,,,,,,,,,,,,,
,,,,,,,,,,,,,1,001,2025-01-03_16h40.48.041,IAT(Formal),2021.2.3,Win32,59.87665409,,,,,,,,,,,,,,,,e,1,0.5837,,,,,,勇敢,e,,,0,56,56,17,1,,,,,,,,,,,,,,,,,,,,,,,,,,,,,,,,,,
,,,,,,,,,,,,,1,001,2025-01-03_16h40.48.041,IAT(Formal),2021.2.3,Win32,59.87665409,,,,,,,,,,,,,,,,i,1,0.6837,,,,,,他们,i,,,0,57,57,6,1,,,,,,,,,,,,,,,,,,,,,,,,,,,,,,,,,,
,,,,,,,,,,,,,1,001,2025-01-03_16h40.48.041,IAT(Formal),2021.2.3,Win32,59.87665409,,,,,,,,,,,,,,,,e,1,0.7531,,,,,,崇高,e,,,0,58,58,11,1,,,,,,,,,,,,,,,,,,,,,,,,,,,,,,,,,,
,,,,,,,,,,,,,1,001,2025-01-03_16h40.48.041,IAT(Formal),2021.2.3,Win32,59.87665409,,,,,,,,,,,,,,,,i,1,0.5834,,,,,,他人,i,,,0,59,59,78,1,,,,,,,,,,,,,,,,,,,,,,,,,,,,,,,,,,
,,,,,,,,,,,,,1,001,2025-01-03_16h40.48.041,IAT(Formal),2021.2.3,Win32,59.87665409,,,,,,,,,,,,,,,,e,1,0.5504,,,,,,我的,e,,,0,60,60,61,1,,,,,,,,,,,,,,,,,,,,,,,,,,,,,,,,,,
,,,,,,,,,,,,,1,001,2025-01-03_16h40.48.041,IAT(Formal),2021.2.3,Win32,59.87665409,,,,,,,,,,,,,,,,e,1,0.6498,,,,,,勤奋,e,,,0,61,61,18,1,,,,,,,,,,,,,,,,,,,,,,,,,,,,,,,,,,
,,,,,,,,,,,,,1,001,2025-01-03_16h40.48.041,IAT(Formal),2021.2.3,Win32,59.87665409,,,,,,,,,,,,,,,,i,1,0.684,,,,,,自卑,i,,,0,62,62,36,1,,,,,,,,,,,,,,,,,,,,,,,,,,,,,,,,,,
,,,,,,,,,,,,,1,001,2025-01-03_16h40.48.041,IAT(Formal),2021.2.3,Win32,59.87665409,,,,,,,,,,,,,,,,i,1,0.5504,,,,,,悲观,i,,,0,63,63,34,1,,,,,,,,,,,,,,,,,,,,,,,,,,,,,,,,,,
,,,,,,,,,,,,,1,001,2025-01-03_16h40.48.041,IAT(Formal),2021.2.3,Win32,59.87665409,,,,,,,,,,,,,,,,i,1,0.5347,,,,,,猖狂,i,,,0,64,64,45,1,,,,,,,,,,,,,,,,,,,,,,,,,,,,,,,,,,
,,,,,,,,,,,,,1,001,2025-01-03_16h40.48.041,IAT(Formal),2021.2.3,Win32,59.87665409,,,,,,,,,,,,,,,,i,1,0.5005,,,,,,其他,i,,,0,65,65,79,1,,,,,,,,,,,,,,,,,,,,,,,,,,,,,,,,,,
,,,,,,,,,,,,,1,001,2025-01-03_16h40.48.041,IAT(Formal),2021.2.3,Win32,59.87665409,,,,,,,,,,,,,,,,i,1,0.573,,,,,,暴躁,i,,,0,66,66,44,1,,,,,,,,,,,,,,,,,,,,,,,,,,,,,,,,,,
,,,,,,,,,,,,,1,001,2025-01-03_16h40.48.041,IAT(Formal),2021.2.3,Win32,59.87665409,,,,,,,,,,,,,,,,e,1,0.6892,,,,,,我,e,,,0,67,67,50,1,,,,,,,,,,,,,,,,,,,,,,,,,,,,,,,,,,
,,,,,,,,,,,,,1,001,2025-01-03_16h40.48.041,IAT(Formal),2021.2.3,Win32,59.87665409,,,,,,,,,,,,,,,,e,1,0.4842,,,,,,我,e,,,0,68,68,70,1,,,,,,,,,,,,,,,,,,,,,,,,,,,,,,,,,,
,,,,,,,,,,,,,1,001,2025-01-03_16h40.48.041,IAT(Formal),2021.2.3,Win32,59.87665409,,,,,,,,,,,,,,,,e,1,0.6666,,,,,,细腻,e,,,0,69,69,25,1,,,,,,,,,,,,,,,,,,,,,,,,,,,,,,,,,,
,,,,,,,,,,,,,1,001,2025-01-03_16h40.48.041,IAT(Formal),2021.2.3,Win32,59.87665409,,,,,,,,,,,,,,,,e,1,0.4017,,,,,,自己,e,,,0,70,70,63,1,,,,,,,,,,,,,,,,,,,,,,,,,,,,,,,,,,
,,,,,,,,,,,,,1,001,2025-01-03_16h40.48.041,IAT(Formal),2021.2.3,Win32,59.87665409,,,,,,,,,,,,,,,,e,1,0.4364,,,,,,我们,e,,,0,71,71,52,1,,,,,,,,,,,,,,,,,,,,,,,,,,,,,,,,,,
,,,,,,,,,,,,,1,001,2025-01-03_16h40.48.041,IAT(Formal),2021.2.3,Win32,59.87665409,,,,,,,,,,,,,,,,i,1,0.5502,,,,,,他,i,,,0,72,72,65,1,,,,,,,,,,,,,,,,,,,,,,,,,,,,,,,,,,
,,,,,,,,,,,,,1,001,2025-01-03_16h40.48.041,IAT(Formal),2021.2.3,Win32,59.87665409,,,,,,,,,,,,,,,,e,1,0.5502,,,,,,聪明,e,,,0,73,73,12,1,,,,,,,,,,,,,,,,,,,,,,,,,,,,,,,,,,
,,,,,,,,,,,,,1,001,2025-01-03_16h40.48.041,IAT(Formal),2021.2.3,Win32,59.87665409,,,,,,,,,,,,,,,,e,1,0.4004,,,,,,我们,e,,,0,74,74,2,1,,,,,,,,,,,,,,,,,,,,,,,,,,,,,,,,,,
,,,,,,,,,,,,,1,001,2025-01-03_16h40.48.041,IAT(Formal),2021.2.3,Win32,59.87665409,,,,,,,,,,,,,,,,e,1,0.5504,,,,,,公正,e,,,0,75,75,23,1,,,,,,,,,,,,,,,,,,,,,,,,,,,,,,,,,,
,,,,,,,,,,,,,1,001,2025-01-03_16h40.48.041,IAT(Formal),2021.2.3,Win32,59.87665409,,,,,,,,,,,,,,,,i,1,0.5693,,,,,,执拗,i,,,0,76,76,40,1,,,,,,,,,,,,,,,,,,,,,,,,,,,,,,,,,,
,,,,,,,,,,,,,1,001,2025-01-03_16h40.48.041,IAT(Formal),2021.2.3,Win32,59.87665409,,,,,,,,,,,,,,,,e,1,0.5667,,,,,,认真,e,,,0,77,77,20,1,,,,,,,,,,,,,,,,,,,,,,,,,,,,,,,,,,
,,,,,,,,,,,,,1,001,2025-01-03_16h40.48.041,IAT(Formal),2021.2.3,Win32,59.87665409,,,,,,,,,,,,,,,,e,1,0.4034,,,,,,我的,e,,,0,78,78,71,1,,,,,,,,,,,,,,,,,,,,,,,,,,,,,,,,,,
,,,,,,,,,,,,,1,001,2025-01-03_16h40.48.041,IAT(Formal),2021.2.3,Win32,59.87665409,,,,,,,,,,,,,,,,e,1,0.5171,,,,,,机智,e,,,0,79,79,19,1,,,,,,,,,,,,,,,,,,,,,,,,,,,,,,,,,,
,,,,,,,,,,,,,1,001,2025-01-03_16h40.48.041,IAT(Formal),2021.2.3,Win32,59.87665409,,,,,,,,,,,,,,,,e,1,0.5185,,,,,,我们,e,,,1,0,80,2,1,,,,,,,,,,,,,,,,,,,,,,,,,,,,,,,,,,
,,,,,,,,,,,,,1,001,2025-01-03_16h40.48.041,IAT(Formal),2021.2.3,Win32,59.87665409,,,,,,,,,,,,,,,,e,1,0.3724,,,,,,我的,e,,,1,1,81,71,1,,,,,,,,,,,,,,,,,,,,,,,,,,,,,,,,,,
,,,,,,,,,,,,,1,001,2025-01-03_16h40.48.041,IAT(Formal),2021.2.3,Win32,59.87665409,,,,,,,,,,,,,,,,e,1,0.5331,,,,,,诚恳,e,,,1,2,82,29,1,,,,,,,,,,,,,,,,,,,,,,,,,,,,,,,,,,
,,,,,,,,,,,,,1,001,2025-01-03_16h40.48.041,IAT(Formal),2021.2.3,Win32,59.87665409,,,,,,,,,,,,,,,,i,1,0.8003,,,,,,自卑,i,,,1,3,83,36,1,,,,,,,,,,,,,,,,,,,,,,,,,,,,,,,,,,
,,,,,,,,,,,,,1,001,2025-01-03_16h40.48.041,IAT(Formal),2021.2.3,Win32,59.87665409,,,,,,,,,,,,,,,,i,1,0.6167,,,,,,鲁莽,i,,,1,4,84,38,1,,,,,,,,,,,,,,,,,,,,,,,,,,,,,,,,,,
,,,,,,,,,,,,,1,001,2025-01-03_16h40.48.041,IAT(Formal),2021.2.3,Win32,59.87665409,,,,,,,,,,,,,,,,e,1,0.4689,,,,,,我,e,,,1,5,85,70,1,,,,,,,,,,,,,,,,,,,,,,,,,,,,,,,,,,
,,,,,,,,,,,,,1,001,2025-01-03_16h40.48.041,IAT(Formal),2021.2.3,Win32,59.87665409,,,,,,,,,,,,,,,,e,1,0.3829,,,,,,我的,e,,,1,6,86,61,1,,,,,,,,,,,,,,,,,,,,,,,,,,,,,,,,,,
,,,,,,,,,,,,,1,001,2025-01-03_16h40.48.041,IAT(Formal),2021.2.3,Win32,59.87665409,,,,,,,,,,,,,,,,e,1,0.3697,,,,,,我的,e,,,1,7,87,1,1,,,,,,,,,,,,,,,,,,,,,,,,,,,,,,,,,,
,,,,,,,,,,,,,1,001,2025-01-03_16h40.48.041,IAT(Formal),2021.2.3,Win32,59.87665409,,,,,,,,,,,,,,,,i,1,0.55,,,,,,他们,i,,,1,8,88,6,1,,,,,,,,,,,,,,,,,,,,,,,,,,,,,,,,,,
,,,,,,,,,,,,,1,001,2025-01-03_16h40.48.041,IAT(Formal),2021.2.3,Win32,59.87665409,,,,,,,,,,,,,,,,i,1,0.8029,,,,,,执拗,i,,,1,9,89,40,1,,,,,,,,,,,,,,,,,,,,,,,,,,,,,,,,,,
,,,,,,,,,,,,,1,001,2025-01-03_16h40.48.041,IAT(Formal),2021.2.3,Win32,59.87665409,,,,,,,,,,,,,,,,i,1,0.4836,,,,,,其他,i,,,1,10,90,69,1,,,,,,,,,,,,,,,,,,,,,,,,,,,,,,,,,,
,,,,,,,,,,,,,1,001,2025-01-03_16h40.48.041,IAT(Formal),2021.2.3,Win32,59.87665409,,,,,,,,,,,,,,,,e,1,0.5667,,,,,,活泼,e,,,1,11,91,28,1,,,,,,,,,,,,,,,,,,,,,,,,,,,,,,,,,,
,,,,,,,,,,,,,1,001,2025-01-03_16h40.48.041,IAT(Formal),2021.2.3,Win32,59.87665409,,,,,,,,,,,,,,,,e,1,0.5004,,,,,,正直,e,,,1,12,92,16,1,,,,,,,,,,,,,,,,,,,,,,,,,,,,,,,,,,
,,,,,,,,,,,,,1,001,2025-01-03_16h40.48.041,IAT(Formal),2021.2.3,Win32,59.87665409,,,,,,,,,,,,,,,,e,1,0.5668,,,,,,崇高,e,,,1,13,93,11,1,,,,,,,,,,,,,,,,,,,,,,,,,,,,,,,,,,
,,,,,,,,,,,,,1,001,2025-01-03_16h40.48.041,IAT(Formal),2021.2.3,Win32,59.87665409,,,,,,,,,,,,,,,,e,1,0.3836,,,,,,公正,e,,,1,14,94,23,1,,,,,,,,,,,,,,,,,,,,,,,,,,,,,,,,,,
,,,,,,,,,,,,,1,001,2025-01-03_16h40.48.041,IAT(Formal),2021.2.3,Win32,59.87665409,,,,,,,,,,,,,,,,e,1,0.5174,,,,,,认真,e,,,1,15,95,20,1,,,,,,,,,,,,,,,,,,,,,,,,,,,,,,,,,,
,,,,,,,,,,,,,1,001,2025-01-03_16h40.48.041,IAT(Formal),2021.2.3,Win32,59.87665409,,,,,,,,,,,,,,,,e,1,0.4019,,,,,,自己,e,,,1,16,96,3,1,,,,,,,,,,,,,,,,,,,,,,,,,,,,,,,,,,
,,,,,,,,,,,,,1,001,2025-01-03_16h40.48.041,IAT(Formal),2021.2.3,Win32,59.87665409,,,,,,,,,,,,,,,,e,1,0.55,,,,,,无私,e,,,1,17,97,22,1,,,,,,,,,,,,,,,,,,,,,,,,,,,,,,,,,,
,,,,,,,,,,,,,1,001,2025-01-03_16h40.48.041,IAT(Formal),2021.2.3,Win32,59.87665409,,,,,,,,,,,,,,,,i,1,0.5176,,,,,,他,i,,,1,18,98,55,1,,,,,,,,,,,,,,,,,,,,,,,,,,,,,,,,,,
,,,,,,,,,,,,,1,001,2025-01-03_16h40.48.041,IAT(Formal),2021.2.3,Win32,59.87665409,,,,,,,,,,,,,,,,i,1,0.4338,,,,,,他人,i,,,1,19,99,58,1,,,,,,,,,,,,,,,,,,,,,,,,,,,,,,,,,,
,,,,,,,,,,,,,1,001,2025-01-03_16h40.48.041,IAT(Formal),2021.2.3,Win32,59.87665409,,,,,,,,,,,,,,,,i,1,0.4329,,,,,,他,i,,,1,20,100,75,1,,,,,,,,,,,,,,,,,,,,,,,,,,,,,,,,,,
,,,,,,,,,,,,,1,001,2025-01-03_16h40.48.041,IAT(Formal),2021.2.3,Win32,59.87665409,,,,,,,,,,,,,,,,e,1,0.6174,,,,,,自己,e,,,1,21,101,63,1,,,,,,,,,,,,,,,,,,,,,,,,,,,,,,,,,,
,,,,,,,,,,,,,1,001,2025-01-03_16h40.48.041,IAT(Formal),2021.2.3,Win32,59.87665409,,,,,,,,,,,,,,,,i,1,0.52,,,,,,其他,i,,,1,22,102,59,1,,,,,,,,,,,,,,,,,,,,,,,,,,,,,,,,,,
,,,,,,,,,,,,,1,001,2025-01-03_16h40.48.041,IAT(Formal),2021.2.3,Win32,59.87665409,,,,,,,,,,,,,,,,i,1,0.5673,,,,,,他的,i,,,1,23,103,7,1,,,,,,,,,,,,,,,,,,,,,,,,,,,,,,,,,,
,,,,,,,,,,,,,1,001,2025-01-03_16h40.48.041,IAT(Formal),2021.2.3,Win32,59.87665409,,,,,,,,,,,,,,,,e,1,0.6004,,,,,,细腻,e,,,1,24,104,25,1,,,,,,,,,,,,,,,,,,,,,,,,,,,,,,,,,,
,,,,,,,,,,,,,1,001,2025-01-03_16h40.48.041,IAT(Formal),2021.2.3,Win32,59.87665409,,,,,,,,,,,,,,,,i,1,0.5827,,,,,,下贱,i,,,1,25,105,49,1,,,,,,,,,,,,,,,,,,,,,,,,,,,,,,,,,,
,,,,,,,,,,,,,1,001,2025-01-03_16h40.48.041,IAT(Formal),2021.2.3,Win32,59.87665409,,,,,,,,,,,,,,,,e,1,0.5337,,,,,,杰出,e,,,1,26,106,13,1,,,,,,,,,,,,,,,,,,,,,,,,,,,,,,,,,,
,,,,,,,,,,,,,1,001,2025-01-03_16h40.48.041,IAT(Formal),2021.2.3,Win32,59.87665409,,,,,,,,,,,,,,,,i,1,0.5667,,,,,,他人,i,,,1,27,107,8,1,,,,,,,,,,,,,,,,,,,,,,,,,,,,,,,,,,
,,,,,,,,,,,,,1,001,2025-01-03_16h40.48.041,IAT(Formal),2021.2.3,Win32,59.87665409,,,,,,,,,,,,,,,,e,0,0.5502,,,,,,悲观,i,,,1,28,108,34,1,,,,,,,,,,,,,,,,,,,,,,,,,,,,,,,,,,
,,,,,,,,,,,,,1,001,2025-01-03_16h40.48.041,IAT(Formal),2021.2.3,Win32,59.87665409,,,,,,,,,,,,,,,,e,1,0.5999,,,,,,俺,e,,,1,29,109,64,1,,,,,,,,,,,,,,,,,,,,,,,,,,,,,,,,,,
,,,,,,,,,,,,,1,001,2025-01-03_16h40.48.041,IAT(Formal),2021.2.3,Win32,59.87665409,,,,,,,,,,,,,,,,i,1,1.1832,,,,,,凶狠,i,,,1,30,110,42,1,,,,,,,,,,,,,,,,,,,,,,,,,,,,,,,,,,
,,,,,,,,,,,,,1,001,2025-01-03_16h40.48.041,IAT(Formal),2021.2.3,Win32,59.87665409,,,,,,,,,,,,,,,,i,1,0.5546,,,,,,猖狂,i,,,1,31,111,45,1,,,,,,,,,,,,,,,,,,,,,,,,,,,,,,,,,,
,,,,,,,,,,,,,1,001,2025-01-03_16h40.48.041,IAT(Formal),2021.2.3,Win32,59.87665409,,,,,,,,,,,,,,,,e,1,0.5002,,,,,,诚实,e,,,1,32,112,15,1,,,,,,,,,,,,,,,,,,,,,,,,,,,,,,,,,,
,,,,,,,,,,,,,1,001,2025-01-03_16h40.48.041,IAT(Formal),2021.2.3,Win32,59.87665409,,,,,,,,,,,,,,,,i,1,0.8345,,,,,,自私,i,,,1,33,113,43,1,,,,,,,,,,,,,,,,,,,,,,,,,,,,,,,,,,
,,,,,,,,,,,,,1,001,2025-01-03_16h40.48.041,IAT(Formal),2021.2.3,Win32,59.87665409,,,,,,,,,,,,,,,,i,1,0.8502,,,,,,轻率,i,,,1,34,114,48,1,,,,,,,,,,,,,,,,,,,,,,,,,,,,,,,,,,
,,,,,,,,,,,,,1,001,2025-01-03_16h40.48.041,IAT(Formal),2021.2.3,Win32,59.87665409,,,,,,,,,,,,,,,,e,1,0.5503,,,,,,我,e,,,1,35,115,60,1,,,,,,,,,,,,,,,,,,,,,,,,,,,,,,,,,,
,,,,,,,,,,,,,1,001,2025-01-03_16h40.48.041,IAT(Formal),2021.2.3,Win32,59.87665409,,,,,,,,,,,,,,,,e,1,0.5678,,,,,,俺,e,,,1,36,116,54,1,,,,,,,,,,,,,,,,,,,,,,,,,,,,,,,,,,
,,,,,,,,,,,,,1,001,2025-01-03_16h40.48.041,IAT(Formal),2021.2.3,Win32,59.87665409,,,,,,,,,,,,,,,,i,1,0.7834,,,,,,他,i,,,1,37,117,5,1,,,,,,,,,,,,,,,,,,,,,,,,,,,,,,,,,,
,,,,,,,,,,,,,1,001,2025-01-03_16h40.48.041,IAT(Formal),2021.2.3,Win32,59.87665409,,,,,,,,,,,,,,,,e,1,0.6005,,,,,,勤奋,e,,,1,38,118,18,1,,,,,,,,,,,,,,,,,,,,,,,,,,,,,,,,,,
,,,,,,,,,,,,,1,001,2025-01-03_16h40.48.041,IAT(Formal),2021.2.3,Win32,59.87665409,,,,,,,,,,,,,,,,i,1,0.8169,,,,,,暴躁,i,,,1,39,119,44,1,,,,,,,,,,,,,,,,,,,,,,,,,,,,,,,,,,
,,,,,,,,,,,,,1,001,2025-01-03_16h40.48.041,IAT(Formal),2021.2.3,Win32,59.87665409,,,,,,,,,,,,,,,,i,1,0.6503,,,,,,冒失,i,,,1,40,120,39,1,,,,,,,,,,,,,,,,,,,,,,,,,,,,,,,,,,
,,,,,,,,,,,,,1,001,2025-01-03_16h40.48.041,IAT(Formal),2021.2.3,Win32,59.87665409,,,,,,,,,,,,,,,,i,1,0.5199,,,,,,他人,i,,,1,41,121,78,1,,,,,,,,,,,,,,,,,,,,,,,,,,,,,,,,,,
,,,,,,,,,,,,,1,001,2025-01-03_16h40.48.041,IAT(Formal),2021.2.3,Win32,59.87665409,,,,,,,,,,,,,,,,e,1,0.6842,,,,,,自己,e,,,1,42,122,73,1,,,,,,,,,,,,,,,,,,,,,,,,,,,,,,,,,,
,,,,,,,,,,,,,1,001,2025-01-03_16h40.48.041,IAT(Formal),2021.2.3,Win32,59.87665409,,,,,,,,,,,,,,,,e,1,0.6174,,,,,,聪明,e,,,1,43,123,12,1,,,,,,,,,,,,,,,,,,,,,,,,,,,,,,,,,,
,,,,,,,,,,,,,1,001,2025-01-03_16h40.48.041,IAT(Formal),2021.2.3,Win32,59.87665409,,,,,,,,,,,,,,,,i,1,0.6733,,,,,,消极,i,,,1,44,124,35,1,,,,,,,,,,,,,,,,,,,,,,,,,,,,,,,,,,
,,,,,,,,,,,,,1,001,2025-01-03_16h40.48.041,IAT(Formal),2021.2.3,Win32,59.87665409,,,,,,,,,,,,,,,,i,1,0.6167,,,,,,他的,i,,,1,45,125,67,1,,,,,,,,,,,,,,,,,,,,,,,,,,,,,,,,,,
,,,,,,,,,,,,,1,001,2025-01-03_16h40.48.041,IAT(Formal),2021.2.3,Win32,59.87665409,,,,,,,,,,,,,,,,e,1,0.7507,,,,,,乐观,e,,,1,46,126,14,1,,,,,,,,,,,,,,,,,,,,,,,,,,,,,,,,,,
,,,,,,,,,,,,,1,001,2025-01-03_16h40.48.041,IAT(Formal),2021.2.3,Win32,59.87665409,,,,,,,,,,,,,,,,e,1,0.5377,,,,,,俺,e,,,1,47,127,4,1,,,,,,,,,,,,,,,,,,,,,,,,,,,,,,,,,,
,,,,,,,,,,,,,1,001,2025-01-03_16h40.48.041,IAT(Formal),2021.2.3,Win32,59.87665409,,,,,,,,,,,,,,,,i,1,0.6006,,,,,,愚蠢,i,,,1,48,128,32,1,,,,,,,,,,,,,,,,,,,,,,,,,,,,,,,,,,
,,,,,,,,,,,,,1,001,2025-01-03_16h40.48.041,IAT(Formal),2021.2.3,Win32,59.87665409,,,,,,,,,,,,,,,,e,1,0.5232,,,,,,我,e,,,1,49,129,50,1,,,,,,,,,,,,,,,,,,,,,,,,,,,,,,,,,,
,,,,,,,,,,,,,1,001,2025-01-03_16h40.48.041,IAT(Formal),2021.2.3,Win32,59.87665409,,,,,,,,,,,,,,,,i,1,0.6336,,,,,,散漫,i,,,1,50,130,41,1,,,,,,,,,,,,,,,,,,,,,,,,,,,,,,,,,,
,,,,,,,,,,,,,1,001,2025-01-03_16h40.48.041,IAT(Formal),2021.2.3,Win32,59.87665409,,,,,,,,,,,,,,,,i,1,0.6191,,,,,,其他,i,,,1,51,131,9,1,,,,,,,,,,,,,,,,,,,,,,,,,,,,,,,,,,
,,,,,,,,,,,,,1,001,2025-01-03_16h40.48.041,IAT(Formal),2021.2.3,Win32,59.87665409,,,,,,,,,,,,,,,,e,1,0.4378,,,,,,我们,e,,,1,52,132,62,1,,,,,,,,,,,,,,,,,,,,,,,,,,,,,,,,,,
,,,,,,,,,,,,,1,001,2025-01-03_16h40.48.041,IAT(Formal),2021.2.3,Win32,59.87665409,,,,,,,,,,,,,,,,i,1,0.7175,,,,,,他们,i,,,1,53,133,76,1,,,,,,,,,,,,,,,,,,,,,,,,,,,,,,,,,,
,,,,,,,,,,,,,1,001,2025-01-03_16h40.48.041,IAT(Formal),2021.2.3,Win32,59.87665409,,,,,,,,,,,,,,,,e,1,0.7509,,,,,,我的,e,,,1,54,134,51,1,,,,,,,,,,,,,,,,,,,,,,,,,,,,,,,,,,
,,,,,,,,,,,,,1,001,2025-01-03_16h40.48.041,IAT(Formal),2021.2.3,Win32,59.87665409,,,,,,,,,,,,,,,,e,1,0.3841,,,,,,自己,e,,,1,55,135,53,1,,,,,,,,,,,,,,,,,,,,,,,,,,,,,,,,,,
,,,,,,,,,,,,,1,001,2025-01-03_16h40.48.041,IAT(Formal),2021.2.3,Win32,59.87665409,,,,,,,,,,,,,,,,i,1,0.6004,,,,,,傲慢,i,,,1,56,136,37,1,,,,,,,,,,,,,,,,,,,,,,,,,,,,,,,,,,
,,,,,,,,,,,,,1,001,2025-01-03_16h40.48.041,IAT(Formal),2021.2.3,Win32,59.87665409,,,,,,,,,,,,,,,,e,1,0.5507,,,,,,俺,e,,,1,57,137,74,1,,,,,,,,,,,,,,,,,,,,,,,,,,,,,,,,,,
,,,,,,,,,,,,,1,001,2025-01-03_16h40.48.041,IAT(Formal),2021.2.3,Win32,59.87665409,,,,,,,,,,,,,,,,e,1,0.417,,,,,,优秀,e,,,1,58,138,10,1,,,,,,,,,,,,,,,,,,,,,,,,,,,,,,,,,,
,,,,,,,,,,,,,1,001,2025-01-03_16h40.48.041,IAT(Formal),2021.2.3,Win32,59.87665409,,,,,,,,,,,,,,,,e,1,0.3337,,,,,,机智,e,,,1,59,139,19,1,,,,,,,,,,,,,,,,,,,,,,,,,,,,,,,,,,
,,,,,,,,,,,,,1,001,2025-01-03_16h40.48.041,IAT(Formal),2021.2.3,Win32,59.87665409,,,,,,,,,,,,,,,,i,1,0.6335,,,,,,他的,i,,,1,60,140,57,1,,,,,,,,,,,,,,,,,,,,,,,,,,,,,,,,,,
,,,,,,,,,,,,,1,001,2025-01-03_16h40.48.041,IAT(Formal),2021.2.3,Win32,59.87665409,,,,,,,,,,,,,,,,e,1,0.5506,,,,,,勇敢,e,,,1,61,141,17,1,,,,,,,,,,,,,,,,,,,,,,,,,,,,,,,,,,
,,,,,,,,,,,,,1,001,2025-01-03_16h40.48.041,IAT(Formal),2021.2.3,Win32,59.87665409,,,,,,,,,,,,,,,,e,1,0.4173,,,,,,我,e,,,1,62,142,0,1,,,,,,,,,,,,,,,,,,,,,,,,,,,,,,,,,,
,,,,,,,,,,,,,1,001,2025-01-03_16h40.48.041,IAT(Formal),2021.2.3,Win32,59.87665409,,,,,,,,,,,,,,,,e,1,0.4005,,,,,,热情,e,,,1,63,143,27,1,,,,,,,,,,,,,,,,,,,,,,,,,,,,,,,,,,
,,,,,,,,,,,,,1,001,2025-01-03_16h40.48.041,IAT(Formal),2021.2.3,Win32,59.87665409,,,,,,,,,,,,,,,,i,1,0.4865,,,,,,其他,i,,,1,64,144,79,1,,,,,,,,,,,,,,,,,,,,,,,,,,,,,,,,,,
,,,,,,,,,,,,,1,001,2025-01-03_16h40.48.041,IAT(Formal),2021.2.3,Win32,59.87665409,,,,,,,,,,,,,,,,e,1,0.6165,,,,,,我们,e,,,1,65,145,72,1,,,,,,,,,,,,,,,,,,,,,,,,,,,,,,,,,,
,,,,,,,,,,,,,1,001,2025-01-03_16h40.48.041,IAT(Formal),2021.2.3,Win32,59.87665409,,,,,,,,,,,,,,,,i,1,0.5068,,,,,,他人,i,,,1,66,146,68,1,,,,,,,,,,,,,,,,,,,,,,,,,,,,,,,,,,
,,,,,,,,,,,,,1,001,2025-01-03_16h40.48.041,IAT(Formal),2021.2.3,Win32,59.87665409,,,,,,,,,,,,,,,,e,1,0.6346,,,,,,稳重,e,,,1,67,147,21,1,,,,,,,,,,,,,,,,,,,,,,,,,,,,,,,,,,
,,,,,,,,,,,,,1,001,2025-01-03_16h40.48.041,IAT(Formal),2021.2.3,Win32,59.87665409,,,,,,,,,,,,,,,,e,1,0.9172,,,,,,冷静,e,,,1,68,148,26,1,,,,,,,,,,,,,,,,,,,,,,,,,,,,,,,,,,
,,,,,,,,,,,,,1,001,2025-01-03_16h40.48.041,IAT(Formal),2021.2.3,Win32,59.87665409,,,,,,,,,,,,,,,,i,1,0.6015,,,,,,他们,i,,,1,69,149,66,1,,,,,,,,,,,,,,,,,,,,,,,,,,,,,,,,,,
,,,,,,,,,,,,,1,001,2025-01-03_16h40.48.041,IAT(Formal),2021.2.3,Win32,59.87665409,,,,,,,,,,,,,,,,i,1,0.5836,,,,,,野蛮,i,,,1,70,150,46,1,,,,,,,,,,,,,,,,,,,,,,,,,,,,,,,,,,
,,,,,,,,,,,,,1,001,2025-01-03_16h40.48.041,IAT(Formal),2021.2.3,Win32,59.87665409,,,,,,,,,,,,,,,,i,1,0.5836,,,,,,卑鄙,i,,,1,71,151,30,1,,,,,,,,,,,,,,,,,,,,,,,,,,,,,,,,,,
,,,,,,,,,,,,,1,001,2025-01-03_16h40.48.041,IAT(Formal),2021.2.3,Win32,59.87665409,,,,,,,,,,,,,,,,i,1,0.5504,,,,,,刻薄,i,,,1,72,152,33,1,,,,,,,,,,,,,,,,,,,,,,,,,,,,,,,,,,
,,,,,,,,,,,,,1,001,2025-01-03_16h40.48.041,IAT(Formal),2021.2.3,Win32,59.87665409,,,,,,,,,,,,,,,,e,1,0.5542,,,,,,我们,e,,,1,73,153,52,1,,,,,,,,,,,,,,,,,,,,,,,,,,,,,,,,,,
,,,,,,,,,,,,,1,001,2025-01-03_16h40.48.041,IAT(Formal),2021.2.3,Win32,59.87665409,,,,,,,,,,,,,,,,e,1,0.7351,,,,,,朴实,e,,,1,74,154,24,1,,,,,,,,,,,,,,,,,,,,,,,,,,,,,,,,,,
,,,,,,,,,,,,,1,001,2025-01-03_16h40.48.041,IAT(Formal),2021.2.3,Win32,59.87665409,,,,,,,,,,,,,,,,i,1,0.9338,,,,,,他们,i,,,1,75,155,56,1,,,,,,,,,,,,,,,,,,,,,,,,,,,,,,,,,,
,,,,,,,,,,,,,1,001,2025-01-03_16h40.48.041,IAT(Formal),2021.2.3,Win32,59.87665409,,,,,,,,,,,,,,,,i,1,0.5007,,,,,,虚伪,i,,,1,76,156,31,1,,,,,,,,,,,,,,,,,,,,,,,,,,,,,,,,,,
,,,,,,,,,,,,,1,001,2025-01-03_16h40.48.041,IAT(Formal),2021.2.3,Win32,59.87665409,,,,,,,,,,,,,,,,i,1,0.6028,,,,,,他的,i,,,1,77,157,77,1,,,,,,,,,,,,,,,,,,,,,,,,,,,,,,,,,,
,,,,,,,,,,,,,1,001,2025-01-03_16h40.48.041,IAT(Formal),2021.2.3,Win32,59.87665409,,,,,,,,,,,,,,,,i,1,0.6378,,,,,,他,i,,,1,78,158,65,1,,,,,,,,,,,,,,,,,,,,,,,,,,,,,,,,,,
,,,,,,,,,,,,,1,001,2025-01-03_16h40.48.041,IAT(Formal),2021.2.3,Win32,59.87665409,,,,,,,,,,,,,,,,i,1,0.5681,,,,,,固执,i,,,1,79,159,47,1,,,,,,,,,,,,,,,,,,,,,,,,,,,,,,,,,,
,,,,,,,,,,,我的,i,1,001,2025-01-03_16h40.48.041,IAT(Formal),2021.2.3,Win32,59.87665409,,,,,,,,,,,,,,,,,,,,,,,,,,,,,,,,,space,12.8424,,0,0,0,0,1,1,,,,,,,,,,,,,,,,,,,,,,,,,
,,,,,,,,,,,我,i,1,001,2025-01-03_16h40.48.041,IAT(Formal),2021.2.3,Win32,59.87665409,,,,,,,,,,,,,,,,,,,,,,,,,,,,,,,,,,,,0,0,1,1,0,1,,,,,,,,,,,,,,,,,,,,,,,,,
,,,,,,,,,,,其他,e,1,001,2025-01-03_16h40.48.041,IAT(Formal),2021.2.3,Win32,59.87665409,,,,,,,,,,,,,,,,,,,,,,,,,,,,,,,,,,,e,1,0,2,2,9,1,0.9112,,,,,,,,,,,,,,,,,,,,,,,,
,,,,,,,,,,,俺,i,1,001,2025-01-03_16h40.48.041,IAT(Formal),2021.2.3,Win32,59.87665409,,,,,,,,,,,,,,,,,,,,,,,,,,,,,,,,,,,i,1,0,3,3,4,1,0.8008,,,,,,,,,,,,,,,,,,,,,,,,
,,,,,,,,,,,他的,e,1,001,2025-01-03_16h40.48.041,IAT(Formal),2021.2.3,Win32,59.87665409,,,,,,,,,,,,,,,,,,,,,,,,,,,,,,,,,,,e,1,0,4,4,7,1,0.6844,,,,,,,,,,,,,,,,,,,,,,,,
,,,,,,,,,,,我们,i,1,001,2025-01-03_16h40.48.041,IAT(Formal),2021.2.3,Win32,59.87665409,,,,,,,,,,,,,,,,,,,,,,,,,,,,,,,,,,,i,1,0,5,5,2,1,0.734,,,,,,,,,,,,,,,,,,,,,,,,
,,,,,,,,,,,他,e,1,001,2025-01-03_16h40.48.041,IAT(Formal),2021.2.3,Win32,59.87665409,,,,,,,,,,,,,,,,,,,,,,,,,,,,,,,,,,,e,1,0,6,6,5,1,0.9825,,,,,,,,,,,,,,,,,,,,,,,,
,,,,,,,,,,,他们,e,1,001,2025-01-03_16h40.48.041,IAT(Formal),2021.2.3,Win32,59.87665409,,,,,,,,,,,,,,,,,,,,,,,,,,,,,,,,,,,e,1,0,7,7,6,1,0.6012,,,,,,,,,,,,,,,,,,,,,,,,
,,,,,,,,,,,他人,e,1,001,2025-01-03_16h40.48.041,IAT(Formal),2021.2.3,Win32,59.87665409,,,,,,,,,,,,,,,,,,,,,,,,,,,,,,,,,,,e,1,0,8,8,8,1,0.5174,,,,,,,,,,,,,,,,,,,,,,,,
,,,,,,,,,,,自己,i,1,001,2025-01-03_16h40.48.041,IAT(Formal),2021.2.3,Win32,59.87665409,,,,,,,,,,,,,,,,,,,,,,,,,,,,,,,,,,,e,0,0,9,9,3,1,0.5511,,,,,,,,,,,,,,,,,,,,,,,,
,,,,,,,,,,,,,1,001,2025-01-03_16h40.48.041,IAT(Formal),2021.2.3,Win32,59.87665409,,,,,,,,,,,,,,,,,,,,,,,,,,,,,,,,,,,,,,,,,,,space,1.1827,i,1,0.7676,0,0,0,70,1,我,i,,,,,,,,,,,,
,,,,,,,,,,,,,1,001,2025-01-03_16h40.48.041,IAT(Formal),2021.2.3,Win32,59.87665409,,,,,,,,,,,,,,,,,,,,,,,,,,,,,,,,,,,,,,,,,,,,,e,1,0.684,0,1,1,56,1,他们,e,,,,,,,,,,,,
,,,,,,,,,,,,,1,001,2025-01-03_16h40.48.041,IAT(Formal),2021.2.3,Win32,59.87665409,,,,,,,,,,,,,,,,,,,,,,,,,,,,,,,,,,,,,,,,,,,,,e,0,0.9675,0,2,2,35,1,消极,i,,,,,,,,,,,,
,,,,,,,,,,,,,1,001,2025-01-03_16h40.48.041,IAT(Formal),2021.2.3,Win32,59.87665409,,,,,,,,,,,,,,,,,,,,,,,,,,,,,,,,,,,,,,,,,,,,,,0,,0,3,3,6,1,他们,e,,,,,,,,,,,,
,,,,,,,,,,,,,1,001,2025-01-03_16h40.48.041,IAT(Formal),2021.2.3,Win32,59.87665409,,,,,,,,,,,,,,,,,,,,,,,,,,,,,,,,,,,,,,,,,,,,,i,1,0.9341,0,4,4,46,1,野蛮,i,,,,,,,,,,,,
,,,,,,,,,,,,,1,001,2025-01-03_16h40.48.041,IAT(Formal),2021.2.3,Win32,59.87665409,,,,,,,,,,,,,,,,,,,,,,,,,,,,,,,,,,,,,,,,,,,,,i,0,0.7844,0,5,5,22,1,无私,e,,,,,,,,,,,,
,,,,,,,,,,,,,1,001,2025-01-03_16h40.48.041,IAT(Formal),2021.2.3,Win32,59.87665409,,,,,,,,,,,,,,,,,,,,,,,,,,,,,,,,,,,,,,,,,,,,,i,1,0.9008,0,6,6,63,1,自己,i,,,,,,,,,,,,
,,,,,,,,,,,,,1,001,2025-01-03_16h40.48.041,IAT(Formal),2021.2.3,Win32,59.87665409,,,,,,,,,,,,,,,,,,,,,,,,,,,,,,,,,,,,,,,,,,,,,e,1,0.7177,0,7,7,8,1,他人,e,,,,,,,,,,,,
,,,,,,,,,,,,,1,001,2025-01-03_16h40.48.041,IAT(Formal),2021.2.3,Win32,59.87665409,,,,,,,,,,,,,,,,,,,,,,,,,,,,,,,,,,,,,,,,,,,,,e,0,0.8513,0,8,8,47,1,固执,i,,,,,,,,,,,,
,,,,,,,,,,,,,1,001,2025-01-03_16h40.48.041,IAT(Formal),2021.2.3,Win32,59.87665409,,,,,,,,,,,,,,,,,,,,,,,,,,,,,,,,,,,,,,,,,,,,,e,1,0.8185,0,9,9,7,1,他的,e,,,,,,,,,,,,
,,,,,,,,,,,,,1,001,2025-01-03_16h40.48.041,IAT(Formal),2021.2.3,Win32,59.87665409,,,,,,,,,,,,,,,,,,,,,,,,,,,,,,,,,,,,,,,,,,,,,i,1,0.651,0,10,10,51,1,我的,i,,,,,,,,,,,,
,,,,,,,,,,,,,1,001,2025-01-03_16h40.48.041,IAT(Formal),2021.2.3,Win32,59.87665409,,,,,,,,,,,,,,,,,,,,,,,,,,,,,,,,,,,,,,,,,,,,,e,1,0.7842,0,11,11,26,1,冷静,e,,,,,,,,,,,,
,,,,,,,,,,,,,1,001,2025-01-03_16h40.48.041,IAT(Formal),2021.2.3,Win32,59.87665409,,,,,,,,,,,,,,,,,,,,,,,,,,,,,,,,,,,,,,,,,,,,,e,1,0.7841,0,12,12,18,1,勤奋,e,,,,,,,,,,,,
,,,,,,,,,,,,,1,001,2025-01-03_16h40.48.041,IAT(Formal),2021.2.3,Win32,59.87665409,,,,,,,,,,,,,,,,,,,,,,,,,,,,,,,,,,,,,,,,,,,,,e,1,1.051,0,13,13,79,1,其他,e,,,,,,,,,,,,
,,,,,,,,,,,,,1,001,2025-01-03_16h40.48.041,IAT(Formal),2021.2.3,Win32,59.87665409,,,,,,,,,,,,,,,,,,,,,,,,,,,,,,,,,,,,,,,,,,,,,e,1,0.5844,0,14,14,21,1,稳重,e,,,,,,,,,,,,
,,,,,,,,,,,,,1,001,2025-01-03_16h40.48.041,IAT(Formal),2021.2.3,Win32,59.87665409,,,,,,,,,,,,,,,,,,,,,,,,,,,,,,,,,,,,,,,,,,,,,i,1,0.8346,0,15,15,74,1,俺,i,,,,,,,,,,,,
,,,,,,,,,,,,,1,001,2025-01-03_16h40.48.041,IAT(Formal),2021.2.3,Win32,59.87665409,,,,,,,,,,,,,,,,,,,,,,,,,,,,,,,,,,,,,,,,,,,,,i,1,0.4848,0,16,16,4,1,俺,i,,,,,,,,,,,,
,,,,,,,,,,,,,1,001,2025-01-03_16h40.48.041,IAT(Formal),2021.2.3,Win32,59.87665409,,,,,,,,,,,,,,,,,,,,,,,,,,,,,,,,,,,,,,,,,,,,,i,1,0.5344,0,17,17,73,1,自己,i,,,,,,,,,,,,
,,,,,,,,,,,,,1,001,2025-01-03_16h40.48.041,IAT(Formal),2021.2.3,Win32,59.87665409,,,,,,,,,,,,,,,,,,,,,,,,,,,,,,,,,,,,,,,,,,,,,i,1,0.4179,0,18,18,3,1,自己,i,,,,,,,,,,,,
,,,,,,,,,,,,,1,001,2025-01-03_16h40.48.041,IAT(Formal),2021.2.3,Win32,59.87665409,,,,,,,,,,,,,,,,,,,,,,,,,,,,,,,,,,,,,,,,,,,,,i,1,1.0011,0,19,19,43,1,自私,i,,,,,,,,,,,,
,,,,,,,,,,,,,1,001,2025-01-03_16h40.48.041,IAT(Formal),2021.2.3,Win32,59.87665409,,,,,,,,,,,,,,,,,,,,,,,,,,,,,,,,,,,,,,,,,,,,,i,1,0.5843,0,20,20,31,1,虚伪,i,,,,,,,,,,,,
,,,,,,,,,,,,,1,001,2025-01-03_16h40.48.041,IAT(Formal),2021.2.3,Win32,59.87665409,,,,,,,,,,,,,,,,,,,,,,,,,,,,,,,,,,,,,,,,,,,,,e,1,0.7178,0,21,21,77,1,他的,e,,,,,,,,,,,,
,,,,,,,,,,,,,1,001,2025-01-03_16h40.48.041,IAT(Formal),2021.2.3,Win32,59.87665409,,,,,,,,,,,,,,,,,,,,,,,,,,,,,,,,,,,,,,,,,,,,,e,1,0.8677,0,22,22,69,1,其他,e,,,,,,,,,,,,
,,,,,,,,,,,,,1,001,2025-01-03_16h40.48.041,IAT(Formal),2021.2.3,Win32,59.87665409,,,,,,,,,,,,,,,,,,,,,,,,,,,,,,,,,,,,,,,,,,,,,e,1,0.651,0,23,23,11,1,崇高,e,,,,,,,,,,,,
,,,,,,,,,,,,,1,001,2025-01-03_16h40.48.041,IAT(Formal),2021.2.3,Win32,59.87665409,,,,,,,,,,,,,,,,,,,,,,,,,,,,,,,,,,,,,,,,,,,,,e,1,0.4339,0,24,24,10,1,优秀,e,,,,,,,,,,,,
,,,,,,,,,,,,,1,001,2025-01-03_16h40.48.041,IAT(Formal),2021.2.3,Win32,59.87665409,,,,,,,,,,,,,,,,,,,,,,,,,,,,,,,,,,,,,,,,,,,,,i,1,1.2346,0,25,25,41,1,散漫,i,,,,,,,,,,,,
,,,,,,,,,,,,,1,001,2025-01-03_16h40.48.041,IAT(Formal),2021.2.3,Win32,59.87665409,,,,,,,,,,,,,,,,,,,,,,,,,,,,,,,,,,,,,,,,,,,,,e,1,0.6842,0,26,26,75,1,他,e,,,,,,,,,,,,
,,,,,,,,,,,,,1,001,2025-01-03_16h40.48.041,IAT(Formal),2021.2.3,Win32,59.87665409,,,,,,,,,,,,,,,,,,,,,,,,,,,,,,,,,,,,,,,,,,,,,i,1,0.6837,0,27,27,1,1,我的,i,,,,,,,,,,,,
,,,,,,,,,,,,,1,001,2025-01-03_16h40.48.041,IAT(Formal),2021.2.3,Win32,59.87665409,,,,,,,,,,,,,,,,,,,,,,,,,,,,,,,,,,,,,,,,,,,,,i,1,0.7011,0,28,28,42,1,凶狠,i,,,,,,,,,,,,
,,,,,,,,,,,,,1,001,2025-01-03_16h40.48.041,IAT(Formal),2021.2.3,Win32,59.87665409,,,,,,,,,,,,,,,,,,,,,,,,,,,,,,,,,,,,,,,,,,,,,e,1,1.2677,0,29,29,76,1,他们,e,,,,,,,,,,,,
,,,,,,,,,,,,,1,001,2025-01-03_16h40.48.041,IAT(Formal),2021.2.3,Win32,59.87665409,,,,,,,,,,,,,,,,,,,,,,,,,,,,,,,,,,,,,,,,,,,,,i,1,0.9177,0,30,30,33,1,刻薄,i,,,,,,,,,,,,
,,,,,,,,,,,,,1,001,2025-01-03_16h40.48.041,IAT(Formal),2021.2.3,Win32,59.87665409,,,,,,,,,,,,,,,,,,,,,,,,,,,,,,,,,,,,,,,,,,,,,e,1,0.8519,0,31,31,24,1,朴实,e,,,,,,,,,,,,
,,,,,,,,,,,,,1,001,2025-01-03_16h40.48.041,IAT(Formal),2021.2.3,Win32,59.87665409,,,,,,,,,,,,,,,,,,,,,,,,,,,,,,,,,,,,,,,,,,,,,i,1,0.8344,0,32,32,62,1,我们,i,,,,,,,,,,,,
,,,,,,,,,,,,,1,001,2025-01-03_16h40.48.041,IAT(Formal),2021.2.3,Win32,59.87665409,,,,,,,,,,,,,,,,,,,,,,,,,,,,,,,,,,,,,,,,,,,,,i,1,0.5845,0,33,33,2,1,我们,i,,,,,,,,,,,,
,,,,,,,,,,,,,1,001,2025-01-03_16h40.48.041,IAT(Formal),2021.2.3,Win32,59.87665409,,,,,,,,,,,,,,,,,,,,,,,,,,,,,,,,,,,,,,,,,,,,,e,1,0.718,0,34,34,5,1,他,e,,,,,,,,,,,,
,,,,,,,,,,,,,1,001,2025-01-03_16h40.48.041,IAT(Formal),2021.2.3,Win32,59.87665409,,,,,,,,,,,,,,,,,,,,,,,,,,,,,,,,,,,,,,,,,,,,,i,1,0.7844,0,35,35,53,1,自己,i,,,,,,,,,,,,
,,,,,,,,,,,,,1,001,2025-01-03_16h40.48.041,IAT(Formal),2021.2.3,Win32,59.87665409,,,,,,,,,,,,,,,,,,,,,,,,,,,,,,,,,,,,,,,,,,,,,i,1,0.6677,0,36,36,54,1,俺,i,,,,,,,,,,,,
,,,,,,,,,,,,,1,001,2025-01-03_16h40.48.041,IAT(Formal),2021.2.3,Win32,59.87665409,,,,,,,,,,,,,,,,,,,,,,,,,,,,,,,,,,,,,,,,,,,,,i,1,0.4512,0,37,37,61,1,我的,i,,,,,,,,,,,,
,,,,,,,,,,,,,1,001,2025-01-03_16h40.48.041,IAT(Formal),2021.2.3,Win32,59.87665409,,,,,,,,,,,,,,,,,,,,,,,,,,,,,,,,,,,,,,,,,,,,,e,1,0.7678,0,38,38,20,1,认真,e,,,,,,,,,,,,
,,,,,,,,,,,,,1,001,2025-01-03_16h40.48.041,IAT(Formal),2021.2.3,Win32,59.87665409,,,,,,,,,,,,,,,,,,,,,,,,,,,,,,,,,,,,,,,,,,,,,i,1,0.7178,0,39,39,44,1,暴躁,i,,,,,,,,,,,,
,,,,,,,,,,,,,1,001,2025-01-03_16h40.48.041,IAT(Formal),2021.2.3,Win32,59.87665409,,,,,,,,,,,,,,,,,,,,,,,,,,,,,,,,,,,,,,,,,,,,,i,0,1.4343,0,40,40,15,1,诚实,e,,,,,,,,,,,,
,,,,,,,,,,,,,1,001,2025-01-03_16h40.48.041,IAT(Formal),2021.2.3,Win32,59.87665409,,,,,,,,,,,,,,,,,,,,,,,,,,,,,,,,,,,,,,,,,,,,,i,1,0.8008,0,41,41,37,1,傲慢,i,,,,,,,,,,,,
,,,,,,,,,,,,,1,001,2025-01-03_16h40.48.041,IAT(Formal),2021.2.3,Win32,59.87665409,,,,,,,,,,,,,,,,,,,,,,,,,,,,,,,,,,,,,,,,,,,,,i,0,0.5344,0,42,42,67,1,他的,e,,,,,,,,,,,,
,,,,,,,,,,,,,1,001,2025-01-03_16h40.48.041,IAT(Formal),2021.2.3,Win32,59.87665409,,,,,,,,,,,,,,,,,,,,,,,,,,,,,,,,,,,,,,,,,,,,,e,1,1.051,0,43,43,19,1,机智,e,,,,,,,,,,,,
,,,,,,,,,,,,,1,001,2025-01-03_16h40.48.041,IAT(Formal),2021.2.3,Win32,59.87665409,,,,,,,,,,,,,,,,,,,,,,,,,,,,,,,,,,,,,,,,,,,,,i,1,0.5012,0,44,44,60,1,我,i,,,,,,,,,,,,
,,,,,,,,,,,,,1,001,2025-01-03_16h40.48.041,IAT(Formal),2021.2.3,Win32,59.87665409,,,,,,,,,,,,,,,,,,,,,,,,,,,,,,,,,,,,,,,,,,,,,e,1,0.9337,0,45,45,17,1,勇敢,e,,,,,,,,,,,,
,,,,,,,,,,,,,1,001,2025-01-03_16h40.48.041,IAT(Formal),2021.2.3,Win32,59.87665409,,,,,,,,,,,,,,,,,,,,,,,,,,,,,,,,,,,,,,,,,,,,,i,1,0.6345,0,46,46,36,1,自卑,i,,,,,,,,,,,,
,,,,,,,,,,,,,1,001,2025-01-03_16h40.48.041,IAT(Formal),2021.2.3,Win32,59.87665409,,,,,,,,,,,,,,,,,,,,,,,,,,,,,,,,,,,,,,,,,,,,,e,1,0.6177,0,47,47,16,1,正直,e,,,,,,,,,,,,
,,,,,,,,,,,,,1,001,2025-01-03_16h40.48.041,IAT(Formal),2021.2.3,Win32,59.87665409,,,,,,,,,,,,,,,,,,,,,,,,,,,,,,,,,,,,,,,,,,,,,i,1,0.651,0,48,48,50,1,我,i,,,,,,,,,,,,
,,,,,,,,,,,,,1,001,2025-01-03_16h40.48.041,IAT(Formal),2021.2.3,Win32,59.87665409,,,,,,,,,,,,,,,,,,,,,,,,,,,,,,,,,,,,,,,,,,,,,i,1,0.8176,0,49,49,45,1,猖狂,i,,,,,,,,,,,,
,,,,,,,,,,,,,1,001,2025-01-03_16h40.48.041,IAT(Formal),2021.2.3,Win32,59.87665409,,,,,,,,,,,,,,,,,,,,,,,,,,,,,,,,,,,,,,,,,,,,,i,1,0.6343,0,50,50,52,1,我们,i,,,,,,,,,,,,
,,,,,,,,,,,,,1,001,2025-01-03_16h40.48.041,IAT(Formal),2021.2.3,Win32,59.87665409,,,,,,,,,,,,,,,,,,,,,,,,,,,,,,,,,,,,,,,,,,,,,i,1,0.5844,0,51,51,0,1,我,i,,,,,,,,,,,,
,,,,,,,,,,,,,1,001,2025-01-03_16h40.48.041,IAT(Formal),2021.2.3,Win32,59.87665409,,,,,,,,,,,,,,,,,,,,,,,,,,,,,,,,,,,,,,,,,,,,,i,1,0.551,0,52,52,40,1,执拗,i,,,,,,,,,,,,
,,,,,,,,,,,,,1,001,2025-01-03_16h40.48.041,IAT(Formal),2021.2.3,Win32,59.87665409,,,,,,,,,,,,,,,,,,,,,,,,,,,,,,,,,,,,,,,,,,,,,e,1,0.6844,0,53,53,57,1,他的,e,,,,,,,,,,,,
,,,,,,,,,,,,,1,001,2025-01-03_16h40.48.041,IAT(Formal),2021.2.3,Win32,59.87665409,,,,,,,,,,,,,,,,,,,,,,,,,,,,,,,,,,,,,,,,,,,,,e,1,0.4177,0,54,54,23,1,公正,e,,,,,,,,,,,,
,,,,,,,,,,,,,1,001,2025-01-03_16h40.48.041,IAT(Formal),2021.2.3,Win32,59.87665409,,,,,,,,,,,,,,,,,,,,,,,,,,,,,,,,,,,,,,,,,,,,,e,1,0.5844,0,55,55,68,1,他人,e,,,,,,,,,,,,
,,,,,,,,,,,,,1,001,2025-01-03_16h40.48.041,IAT(Formal),2021.2.3,Win32,59.87665409,,,,,,,,,,,,,,,,,,,,,,,,,,,,,,,,,,,,,,,,,,,,,e,0,0.451,0,56,56,71,1,我的,i,,,,,,,,,,,,
,,,,,,,,,,,,,1,001,2025-01-03_16h40.48.041,IAT(Formal),2021.2.3,Win32,59.87665409,,,,,,,,,,,,,,,,,,,,,,,,,,,,,,,,,,,,,,,,,,,,,e,1,0.651,0,57,57,59,1,其他,e,,,,,,,,,,,,
,,,,,,,,,,,,,1,001,2025-01-03_16h40.48.041,IAT(Formal),2021.2.3,Win32,59.87665409,,,,,,,,,,,,,,,,,,,,,,,,,,,,,,,,,,,,,,,,,,,,,e,1,0.5177,0,58,58,78,1,他人,e,,,,,,,,,,,,
,,,,,,,,,,,,,1,001,2025-01-03_16h40.48.041,IAT(Formal),2021.2.3,Win32,59.87665409,,,,,,,,,,,,,,,,,,,,,,,,,,,,,,,,,,,,,,,,,,,,,i,1,1.0348,0,59,59,32,1,愚蠢,i,,,,,,,,,,,,
,,,,,,,,,,,,,1,001,2025-01-03_16h40.48.041,IAT(Formal),2021.2.3,Win32,59.87665409,,,,,,,,,,,,,,,,,,,,,,,,,,,,,,,,,,,,,,,,,,,,,e,1,0.7677,0,60,60,14,1,乐观,e,,,,,,,,,,,,
,,,,,,,,,,,,,1,001,2025-01-03_16h40.48.041,IAT(Formal),2021.2.3,Win32,59.87665409,,,,,,,,,,,,,,,,,,,,,,,,,,,,,,,,,,,,,,,,,,,,,e,1,0.7344,0,61,61,55,1,他,e,,,,,,,,,,,,
,,,,,,,,,,,,,1,001,2025-01-03_16h40.48.041,IAT(Formal),2021.2.3,Win32,59.87665409,,,,,,,,,,,,,,,,,,,,,,,,,,,,,,,,,,,,,,,,,,,,,e,1,0.6512,0,62,62,9,1,其他,e,,,,,,,,,,,,
,,,,,,,,,,,,,1,001,2025-01-03_16h40.48.041,IAT(Formal),2021.2.3,Win32,59.87665409,,,,,,,,,,,,,,,,,,,,,,,,,,,,,,,,,,,,,,,,,,,,,i,1,0.8677,0,63,63,34,1,悲观,i,,,,,,,,,,,,
,,,,,,,,,,,,,1,001,2025-01-03_16h40.48.041,IAT(Formal),2021.2.3,Win32,59.87665409,,,,,,,,,,,,,,,,,,,,,,,,,,,,,,,,,,,,,,,,,,,,,e,1,1.0843,0,64,64,12,1,聪明,e,,,,,,,,,,,,
,,,,,,,,,,,,,1,001,2025-01-03_16h40.48.041,IAT(Formal),2021.2.3,Win32,59.87665409,,,,,,,,,,,,,,,,,,,,,,,,,,,,,,,,,,,,,,,,,,,,,i,1,0.751,0,65,65,49,1,下贱,i,,,,,,,,,,,,
,,,,,,,,,,,,,1,001,2025-01-03_16h40.48.041,IAT(Formal),2021.2.3,Win32,59.87665409,,,,,,,,,,,,,,,,,,,,,,,,,,,,,,,,,,,,,,,,,,,,,e,1,0.8675,0,66,66,25,1,细腻,e,,,,,,,,,,,,
,,,,,,,,,,,,,1,001,2025-01-03_16h40.48.041,IAT(Formal),2021.2.3,Win32,59.87665409,,,,,,,,,,,,,,,,,,,,,,,,,,,,,,,,,,,,,,,,,,,,,i,1,1.1008,0,67,67,48,1,轻率,i,,,,,,,,,,,,
,,,,,,,,,,,,,1,001,2025-01-03_16h40.48.041,IAT(Formal),2021.2.3,Win32,59.87665409,,,,,,,,,,,,,,,,,,,,,,,,,,,,,,,,,,,,,,,,,,,,,i,1,0.6343,0,68,68,30,1,卑鄙,i,,,,,,,,,,,,
,,,,,,,,,,,,,1,001,2025-01-03_16h40.48.041,IAT(Formal),2021.2.3,Win32,59.87665409,,,,,,,,,,,,,,,,,,,,,,,,,,,,,,,,,,,,,,,,,,,,,e,1,0.5177,0,69,69,27,1,热情,e,,,,,,,,,,,,
,,,,,,,,,,,,,1,001,2025-01-03_16h40.48.041,IAT(Formal),2021.2.3,Win32,59.87665409,,,,,,,,,,,,,,,,,,,,,,,,,,,,,,,,,,,,,,,,,,,,,i,1,0.7344,0,70,70,39,1,冒失,i,,,,,,,,,,,,
,,,,,,,,,,,,,1,001,2025-01-03_16h40.48.041,IAT(Formal),2021.2.3,Win32,59.87665409,,,,,,,,,,,,,,,,,,,,,,,,,,,,,,,,,,,,,,,,,,,,,e,1,0.6174,0,71,71,13,1,杰出,e,,,,,,,,,,,,
,,,,,,,,,,,,,1,001,2025-01-03_16h40.48.041,IAT(Formal),2021.2.3,Win32,59.87665409,,,,,,,,,,,,,,,,,,,,,,,,,,,,,,,,,,,,,,,,,,,,,e,1,0.7573,0,72,72,65,1,他,e,,,,,,,,,,,,
,,,,,,,,,,,,,1,001,2025-01-03_16h40.48.041,IAT(Formal),2021.2.3,Win32,59.87665409,,,,,,,,,,,,,,,,,,,,,,,,,,,,,,,,,,,,,,,,,,,,,i,1,0.6008,0,73,73,38,1,鲁莽,i,,,,,,,,,,,,
,,,,,,,,,,,,,1,001,2025-01-03_16h40.48.041,IAT(Formal),2021.2.3,Win32,59.87665409,,,,,,,,,,,,,,,,,,,,,,,,,,,,,,,,,,,,,,,,,,,,,e,1,0.901,0,74,74,28,1,活泼,e,,,,,,,,,,,,
,,,,,,,,,,,,,1,001,2025-01-03_16h40.48.041,IAT(Formal),2021.2.3,Win32,59.87665409,,,,,,,,,,,,,,,,,,,,,,,,,,,,,,,,,,,,,,,,,,,,,e,0,0.5673,0,75,75,72,1,我们,i,,,,,,,,,,,,
,,,,,,,,,,,,,1,001,2025-01-03_16h40.48.041,IAT(Formal),2021.2.3,Win32,59.87665409,,,,,,,,,,,,,,,,,,,,,,,,,,,,,,,,,,,,,,,,,,,,,e,1,0.7675,0,76,76,58,1,他人,e,,,,,,,,,,,,
,,,,,,,,,,,,,1,001,2025-01-03_16h40.48.041,IAT(Formal),2021.2.3,Win32,59.87665409,,,,,,,,,,,,,,,,,,,,,,,,,,,,,,,,,,,,,,,,,,,,,e,1,0.6178,0,77,77,29,1,诚恳,e,,,,,,,,,,,,
,,,,,,,,,,,,,1,001,2025-01-03_16h40.48.041,IAT(Formal),2021.2.3,Win32,59.87665409,,,,,,,,,,,,,,,,,,,,,,,,,,,,,,,,,,,,,,,,,,,,,e,1,0.7176,0,78,78,66,1,他们,e,,,,,,,,,,,,
,,,,,,,,,,,,,1,001,2025-01-03_16h40.48.041,IAT(Formal),2021.2.3,Win32,59.87665409,,,,,,,,,,,,,,,,,,,,,,,,,,,,,,,,,,,,,,,,,,,,,i,1,0.5177,0,79,79,64,1,俺,i,,,,,,,,,,,,
,,,,,,,,,,,,,1,001,2025-01-03_16h40.48.041,IAT(Formal),2021.2.3,Win32,59.87665409,,,,,,,,,,,,,,,,,,,,,,,,,,,,,,,,,,,,,,,,,,,,,,,,,,,,,他们,e,space,10.3628,e,1,0.7204,0,0,0,76,1,,
,,,,,,,,,,,,,1,001,2025-01-03_16h40.48.041,IAT(Formal),2021.2.3,Win32,59.87665409,,,,,,,,,,,,,,,,,,,,,,,,,,,,,,,,,,,,,,,,,,,,,,,,,,,,,我,i,,,i,1,0.5674,0,1,1,0,1,,
,,,,,,,,,,,,,1,001,2025-01-03_16h40.48.041,IAT(Formal),2021.2.3,Win32,59.87665409,,,,,,,,,,,,,,,,,,,,,,,,,,,,,,,,,,,,,,,,,,,,,,,,,,,,,俺,i,,,i,1,0.8674,0,2,2,4,1,,
,,,,,,,,,,,,,1,001,2025-01-03_16h40.48.041,IAT(Formal),2021.2.3,Win32,59.87665409,,,,,,,,,,,,,,,,,,,,,,,,,,,,,,,,,,,,,,,,,,,,,,,,,,,,,乐观,e,,,e,1,0.805,0,3,3,14,1,,
,,,,,,,,,,,,,1,001,2025-01-03_16h40.48.041,IAT(Formal),2021.2.3,Win32,59.87665409,,,,,,,,,,,,,,,,,,,,,,,,,,,,,,,,,,,,,,,,,,,,,,,,,,,,,活泼,e,,,e,1,0.4334,0,4,4,28,1,,
,,,,,,,,,,,,,1,001,2025-01-03_16h40.48.041,IAT(Formal),2021.2.3,Win32,59.87665409,,,,,,,,,,,,,,,,,,,,,,,,,,,,,,,,,,,,,,,,,,,,,,,,,,,,,他,e,,,e,1,0.6187,0,5,5,65,1,,
,,,,,,,,,,,,,1,001,2025-01-03_16h40.48.041,IAT(Formal),2021.2.3,Win32,59.87665409,,,,,,,,,,,,,,,,,,,,,,,,,,,,,,,,,,,,,,,,,,,,,,,,,,,,,他,e,,,e,1,0.5511,0,6,6,55,1,,
,,,,,,,,,,,,,1,001,2025-01-03_16h40.48.041,IAT(Formal),2021.2.3,Win32,59.87665409,,,,,,,,,,,,,,,,,,,,,,,,,,,,,,,,,,,,,,,,,,,,,,,,,,,,,冒失,i,,,i,1,0.6667,0,7,7,39,1,,
,,,,,,,,,,,,,1,001,2025-01-03_16h40.48.041,IAT(Formal),2021.2.3,Win32,59.87665409,,,,,,,,,,,,,,,,,,,,,,,,,,,,,,,,,,,,,,,,,,,,,,,,,,,,,其他,e,,,e,1,0.5337,0,8,8,59,1,,
,,,,,,,,,,,,,1,001,2025-01-03_16h40.48.041,IAT(Formal),2021.2.3,Win32,59.87665409,,,,,,,,,,,,,,,,,,,,,,,,,,,,,,,,,,,,,,,,,,,,,,,,,,,,,消极,i,,,i,1,0.9673,0,9,9,35,1,,
,,,,,,,,,,,,,1,001,2025-01-03_16h40.48.041,IAT(Formal),2021.2.3,Win32,59.87665409,,,,,,,,,,,,,,,,,,,,,,,,,,,,,,,,,,,,,,,,,,,,,,,,,,,,,悲观,i,,,i,1,0.6697,0,10,10,34,1,,
,,,,,,,,,,,,,1,001,2025-01-03_16h40.48.041,IAT(Formal),2021.2.3,Win32,59.87665409,,,,,,,,,,,,,,,,,,,,,,,,,,,,,,,,,,,,,,,,,,,,,,,,,,,,,他的,e,,,e,1,0.638,0,11,11,77,1,,
,,,,,,,,,,,,,1,001,2025-01-03_16h40.48.041,IAT(Formal),2021.2.3,Win32,59.87665409,,,,,,,,,,,,,,,,,,,,,,,,,,,,,,,,,,,,,,,,,,,,,,,,,,,,,热情,e,,,e,1,0.5517,0,12,12,27,1,,
,,,,,,,,,,,,,1,001,2025-01-03_16h40.48.041,IAT(Formal),2021.2.3,Win32,59.87665409,,,,,,,,,,,,,,,,,,,,,,,,,,,,,,,,,,,,,,,,,,,,,,,,,,,,,他人,e,,,e,1,0.5171,0,13,13,68,1,,
,,,,,,,,,,,,,1,001,2025-01-03_16h40.48.041,IAT(Formal),2021.2.3,Win32,59.87665409,,,,,,,,,,,,,,,,,,,,,,,,,,,,,,,,,,,,,,,,,,,,,,,,,,,,,猖狂,i,,,i,1,0.6664,0,14,14,45,1,,
,,,,,,,,,,,,,1,001,2025-01-03_16h40.48.041,IAT(Formal),2021.2.3,Win32,59.87665409,,,,,,,,,,,,,,,,,,,,,,,,,,,,,,,,,,,,,,,,,,,,,,,,,,,,,他人,e,,,e,1,0.4839,0,15,15,8,1,,
,,,,,,,,,,,,,1,001,2025-01-03_16h40.48.041,IAT(Formal),2021.2.3,Win32,59.87665409,,,,,,,,,,,,,,,,,,,,,,,,,,,,,,,,,,,,,,,,,,,,,,,,,,,,,他,e,,,e,1,0.3668,0,16,16,5,1,,
,,,,,,,,,,,,,1,001,2025-01-03_16h40.48.041,IAT(Formal),2021.2.3,Win32,59.87665409,,,,,,,,,,,,,,,,,,,,,,,,,,,,,,,,,,,,,,,,,,,,,,,,,,,,,傲慢,i,,,i,1,0.6505,0,17,17,37,1,,
,,,,,,,,,,,,,1,001,2025-01-03_16h40.48.041,IAT(Formal),2021.2.3,Win32,59.87665409,,,,,,,,,,,,,,,,,,,,,,,,,,,,,,,,,,,,,,,,,,,,,,,,,,,,,勇敢,e,,,e,1,0.6346,0,18,18,17,1,,
,,,,,,,,,,,,,1,001,2025-01-03_16h40.48.041,IAT(Formal),2021.2.3,Win32,59.87665409,,,,,,,,,,,,,,,,,,,,,,,,,,,,,,,,,,,,,,,,,,,,,,,,,,,,,其他,e,,,e,1,0.4527,0,19,19,9,1,,
,,,,,,,,,,,,,1,001,2025-01-03_16h40.48.041,IAT(Formal),2021.2.3,Win32,59.87665409,,,,,,,,,,,,,,,,,,,,,,,,,,,,,,,,,,,,,,,,,,,,,,,,,,,,,机智,e,,,e,1,0.4864,0,20,20,19,1,,
,,,,,,,,,,,,,1,001,2025-01-03_16h40.48.041,IAT(Formal),2021.2.3,Win32,59.87665409,,,,,,,,,,,,,,,,,,,,,,,,,,,,,,,,,,,,,,,,,,,,,,,,,,,,,自己,i,,,e,0,0.4836,0,21,21,73,1,,
,,,,,,,,,,,,,1,001,2025-01-03_16h40.48.041,IAT(Formal),2021.2.3,Win32,59.87665409,,,,,,,,,,,,,,,,,,,,,,,,,,,,,,,,,,,,,,,,,,,,,,,,,,,,,鲁莽,i,,,i,1,0.7672,0,22,22,38,1,,
,,,,,,,,,,,,,1,001,2025-01-03_16h40.48.041,IAT(Formal),2021.2.3,Win32,59.87665409,,,,,,,,,,,,,,,,,,,,,,,,,,,,,,,,,,,,,,,,,,,,,,,,,,,,,刻薄,i,,,i,1,0.7705,0,23,23,33,1,,
,,,,,,,,,,,,,1,001,2025-01-03_16h40.48.041,IAT(Formal),2021.2.3,Win32,59.87665409,,,,,,,,,,,,,,,,,,,,,,,,,,,,,,,,,,,,,,,,,,,,,,,,,,,,,聪明,e,,,e,1,0.6337,0,24,24,12,1,,
,,,,,,,,,,,,,1,001,2025-01-03_16h40.48.041,IAT(Formal),2021.2.3,Win32,59.87665409,,,,,,,,,,,,,,,,,,,,,,,,,,,,,,,,,,,,,,,,,,,,,,,,,,,,,其他,e,,,e,1,0.617,0,25,25,79,1,,
,,,,,,,,,,,,,1,001,2025-01-03_16h40.48.041,IAT(Formal),2021.2.3,Win32,59.87665409,,,,,,,,,,,,,,,,,,,,,,,,,,,,,,,,,,,,,,,,,,,,,,,,,,,,,我们,i,,,i,1,0.517,0,26,26,52,1,,
,,,,,,,,,,,,,1,001,2025-01-03_16h40.48.041,IAT(Formal),2021.2.3,Win32,59.87665409,,,,,,,,,,,,,,,,,,,,,,,,,,,,,,,,,,,,,,,,,,,,,,,,,,,,,勤奋,e,,,e,1,0.6674,0,27,27,18,1,,
,,,,,,,,,,,,,1,001,2025-01-03_16h40.48.041,IAT(Formal),2021.2.3,Win32,59.87665409,,,,,,,,,,,,,,,,,,,,,,,,,,,,,,,,,,,,,,,,,,,,,,,,,,,,,他,e,,,e,1,0.6175,0,28,28,75,1,,
,,,,,,,,,,,,,1,001,2025-01-03_16h40.48.041,IAT(Formal),2021.2.3,Win32,59.87665409,,,,,,,,,,,,,,,,,,,,,,,,,,,,,,,,,,,,,,,,,,,,,,,,,,,,,他的,e,,,e,1,0.7018,0,29,29,67,1,,
,,,,,,,,,,,,,1,001,2025-01-03_16h40.48.041,IAT(Formal),2021.2.3,Win32,59.87665409,,,,,,,,,,,,,,,,,,,,,,,,,,,,,,,,,,,,,,,,,,,,,,,,,,,,,公正,e,,,e,1,0.6003,0,30,30,23,1,,
,,,,,,,,,,,,,1,001,2025-01-03_16h40.48.041,IAT(Formal),2021.2.3,Win32,59.87665409,,,,,,,,,,,,,,,,,,,,,,,,,,,,,,,,,,,,,,,,,,,,,,,,,,,,,散漫,i,,,i,1,0.6667,0,31,31,41,1,,
,,,,,,,,,,,,,1,001,2025-01-03_16h40.48.041,IAT(Formal),2021.2.3,Win32,59.87665409,,,,,,,,,,,,,,,,,,,,,,,,,,,,,,,,,,,,,,,,,,,,,,,,,,,,,正直,e,,,e,1,0.5212,0,32,32,16,1,,
,,,,,,,,,,,,,1,001,2025-01-03_16h40.48.041,IAT(Formal),2021.2.3,Win32,59.87665409,,,,,,,,,,,,,,,,,,,,,,,,,,,,,,,,,,,,,,,,,,,,,,,,,,,,,其他,e,,,e,1,0.6334,0,33,33,69,1,,
,,,,,,,,,,,,,1,001,2025-01-03_16h40.48.041,IAT(Formal),2021.2.3,Win32,59.87665409,,,,,,,,,,,,,,,,,,,,,,,,,,,,,,,,,,,,,,,,,,,,,,,,,,,,,冷静,e,,,e,1,1.1859,0,34,34,26,1,,
,,,,,,,,,,,,,1,001,2025-01-03_16h40.48.041,IAT(Formal),2021.2.3,Win32,59.87665409,,,,,,,,,,,,,,,,,,,,,,,,,,,,,,,,,,,,,,,,,,,,,,,,,,,,,暴躁,i,,,i,1,0.6336,0,35,35,44,1,,
,,,,,,,,,,,,,1,001,2025-01-03_16h40.48.041,IAT(Formal),2021.2.3,Win32,59.87665409,,,,,,,,,,,,,,,,,,,,,,,,,,,,,,,,,,,,,,,,,,,,,,,,,,,,,俺,i,,,e,0,0.4998,0,36,36,54,1,,
,,,,,,,,,,,,,1,001,2025-01-03_16h40.48.041,IAT(Formal),2021.2.3,Win32,59.87665409,,,,,,,,,,,,,,,,,,,,,,,,,,,,,,,,,,,,,,,,,,,,,,,,,,,,,愚蠢,i,,,i,1,1.1333,0,37,37,32,1,,
,,,,,,,,,,,,,1,001,2025-01-03_16h40.48.041,IAT(Formal),2021.2.3,Win32,59.87665409,,,,,,,,,,,,,,,,,,,,,,,,,,,,,,,,,,,,,,,,,,,,,,,,,,,,,野蛮,i,,,i,1,0.7675,0,38,38,46,1,,
,,,,,,,,,,,,,1,001,2025-01-03_16h40.48.041,IAT(Formal),2021.2.3,Win32,59.87665409,,,,,,,,,,,,,,,,,,,,,,,,,,,,,,,,,,,,,,,,,,,,,,,,,,,,,固执,i,,,i,1,0.6338,0,39,39,47,1,,
,,,,,,,,,,,,,1,001,2025-01-03_16h40.48.041,IAT(Formal),2021.2.3,Win32,59.87665409,,,,,,,,,,,,,,,,,,,,,,,,,,,,,,,,,,,,,,,,,,,,,,,,,,,,,我的,i,,,i,1,0.7337,0,40,40,1,1,,
,,,,,,,,,,,,,1,001,2025-01-03_16h40.48.041,IAT(Formal),2021.2.3,Win32,59.87665409,,,,,,,,,,,,,,,,,,,,,,,,,,,,,,,,,,,,,,,,,,,,,,,,,,,,,我们,i,,,i,1,0.6998,0,41,41,2,1,,
,,,,,,,,,,,,,1,001,2025-01-03_16h40.48.041,IAT(Formal),2021.2.3,Win32,59.87665409,,,,,,,,,,,,,,,,,,,,,,,,,,,,,,,,,,,,,,,,,,,,,,,,,,,,,执拗,i,,,i,1,0.5842,0,42,42,40,1,,
,,,,,,,,,,,,,1,001,2025-01-03_16h40.48.041,IAT(Formal),2021.2.3,Win32,59.87665409,,,,,,,,,,,,,,,,,,,,,,,,,,,,,,,,,,,,,,,,,,,,,,,,,,,,,我,i,,,i,1,0.6855,0,43,43,70,1,,
,,,,,,,,,,,,,1,001,2025-01-03_16h40.48.041,IAT(Formal),2021.2.3,Win32,59.87665409,,,,,,,,,,,,,,,,,,,,,,,,,,,,,,,,,,,,,,,,,,,,,,,,,,,,,朴实,e,,,e,1,0.7335,0,44,44,24,1,,
,,,,,,,,,,,,,1,001,2025-01-03_16h40.48.041,IAT(Formal),2021.2.3,Win32,59.87665409,,,,,,,,,,,,,,,,,,,,,,,,,,,,,,,,,,,,,,,,,,,,,,,,,,,,,认真,e,,,e,1,1.0678,0,45,45,20,1,,
,,,,,,,,,,,,,1,001,2025-01-03_16h40.48.041,IAT(Formal),2021.2.3,Win32,59.87665409,,,,,,,,,,,,,,,,,,,,,,,,,,,,,,,,,,,,,,,,,,,,,,,,,,,,,我的,i,,,i,1,0.757,0,46,46,51,1,,
,,,,,,,,,,,,,1,001,2025-01-03_16h40.48.041,IAT(Formal),2021.2.3,Win32,59.87665409,,,,,,,,,,,,,,,,,,,,,,,,,,,,,,,,,,,,,,,,,,,,,,,,,,,,,自己,i,,,i,1,0.8336,0,47,47,53,1,,
,,,,,,,,,,,,,1,001,2025-01-03_16h40.48.041,IAT(Formal),2021.2.3,Win32,59.87665409,,,,,,,,,,,,,,,,,,,,,,,,,,,,,,,,,,,,,,,,,,,,,,,,,,,,,他们,e,,,e,1,0.5559,0,48,48,6,1,,
,,,,,,,,,,,,,1,001,2025-01-03_16h40.48.041,IAT(Formal),2021.2.3,Win32,59.87665409,,,,,,,,,,,,,,,,,,,,,,,,,,,,,,,,,,,,,,,,,,,,,,,,,,,,,虚伪,i,,,i,1,0.8674,0,49,49,31,1,,
,,,,,,,,,,,,,1,001,2025-01-03_16h40.48.041,IAT(Formal),2021.2.3,Win32,59.87665409,,,,,,,,,,,,,,,,,,,,,,,,,,,,,,,,,,,,,,,,,,,,,,,,,,,,,自己,i,,,i,1,0.6676,0,50,50,3,1,,
,,,,,,,,,,,,,1,001,2025-01-03_16h40.48.041,IAT(Formal),2021.2.3,Win32,59.87665409,,,,,,,,,,,,,,,,,,,,,,,,,,,,,,,,,,,,,,,,,,,,,,,,,,,,,自己,i,,,i,1,0.5079,0,51,51,63,1,,
,,,,,,,,,,,,,1,001,2025-01-03_16h40.48.041,IAT(Formal),2021.2.3,Win32,59.87665409,,,,,,,,,,,,,,,,,,,,,,,,,,,,,,,,,,,,,,,,,,,,,,,,,,,,,他的,e,,,e,1,0.7168,0,52,52,57,1,,
,,,,,,,,,,,,,1,001,2025-01-03_16h40.48.041,IAT(Formal),2021.2.3,Win32,59.87665409,,,,,,,,,,,,,,,,,,,,,,,,,,,,,,,,,,,,,,,,,,,,,,,,,,,,,诚恳,e,,,e,1,0.6167,0,53,53,29,1,,
,,,,,,,,,,,,,1,001,2025-01-03_16h40.48.041,IAT(Formal),2021.2.3,Win32,59.87665409,,,,,,,,,,,,,,,,,,,,,,,,,,,,,,,,,,,,,,,,,,,,,,,,,,,,,我,i,,,i,1,0.6347,0,54,54,50,1,,
,,,,,,,,,,,,,1,001,2025-01-03_16h40.48.041,IAT(Formal),2021.2.3,Win32,59.87665409,,,,,,,,,,,,,,,,,,,,,,,,,,,,,,,,,,,,,,,,,,,,,,,,,,,,,稳重,e,,,e,1,0.5006,0,55,55,21,1,,
,,,,,,,,,,,,,1,001,2025-01-03_16h40.48.041,IAT(Formal),2021.2.3,Win32,59.87665409,,,,,,,,,,,,,,,,,,,,,,,,,,,,,,,,,,,,,,,,,,,,,,,,,,,,,他人,e,,,e,1,0.7008,0,56,56,58,1,,
,,,,,,,,,,,,,1,001,2025-01-03_16h40.48.041,IAT(Formal),2021.2.3,Win32,59.87665409,,,,,,,,,,,,,,,,,,,,,,,,,,,,,,,,,,,,,,,,,,,,,,,,,,,,,他人,e,,,e,1,0.468,0,57,57,78,1,,
,,,,,,,,,,,,,1,001,2025-01-03_16h40.48.041,IAT(Formal),2021.2.3,Win32,59.87665409,,,,,,,,,,,,,,,,,,,,,,,,,,,,,,,,,,,,,,,,,,,,,,,,,,,,,我的,i,,,i,1,0.5504,0,58,58,61,1,,
,,,,,,,,,,,,,1,001,2025-01-03_16h40.48.041,IAT(Formal),2021.2.3,Win32,59.87665409,,,,,,,,,,,,,,,,,,,,,,,,,,,,,,,,,,,,,,,,,,,,,,,,,,,,,我,i,,,i,1,0.9336,0,59,59,60,1,,
,,,,,,,,,,,,,1,001,2025-01-03_16h40.48.041,IAT(Formal),2021.2.3,Win32,59.87665409,,,,,,,,,,,,,,,,,,,,,,,,,,,,,,,,,,,,,,,,,,,,,,,,,,,,,他们,e,,,e,1,0.567,0,60,60,56,1,,
,,,,,,,,,,,,,1,001,2025-01-03_16h40.48.041,IAT(Formal),2021.2.3,Win32,59.87665409,,,,,,,,,,,,,,,,,,,,,,,,,,,,,,,,,,,,,,,,,,,,,,,,,,,,,俺,i,,,i,1,0.6674,0,61,61,64,1,,
,,,,,,,,,,,,,1,001,2025-01-03_16h40.48.041,IAT(Formal),2021.2.3,Win32,59.87665409,,,,,,,,,,,,,,,,,,,,,,,,,,,,,,,,,,,,,,,,,,,,,,,,,,,,,诚实,e,,,e,1,0.4837,0,62,62,15,1,,
,,,,,,,,,,,,,1,001,2025-01-03_16h40.48.041,IAT(Formal),2021.2.3,Win32,59.87665409,,,,,,,,,,,,,,,,,,,,,,,,,,,,,,,,,,,,,,,,,,,,,,,,,,,,,轻率,i,,,i,1,0.6503,0,63,63,48,1,,
,,,,,,,,,,,,,1,001,2025-01-03_16h40.48.041,IAT(Formal),2021.2.3,Win32,59.87665409,,,,,,,,,,,,,,,,,,,,,,,,,,,,,,,,,,,,,,,,,,,,,,,,,,,,,凶狠,i,,,i,1,0.6856,0,64,64,42,1,,
,,,,,,,,,,,,,1,001,2025-01-03_16h40.48.041,IAT(Formal),2021.2.3,Win32,59.87665409,,,,,,,,,,,,,,,,,,,,,,,,,,,,,,,,,,,,,,,,,,,,,,,,,,,,,自卑,i,,,i,1,0.5346,0,65,65,36,1,,
,,,,,,,,,,,,,1,001,2025-01-03_16h40.48.041,IAT(Formal),2021.2.3,Win32,59.87665409,,,,,,,,,,,,,,,,,,,,,,,,,,,,,,,,,,,,,,,,,,,,,,,,,,,,,我们,i,,,i,1,0.3883,0,66,66,62,1,,
,,,,,,,,,,,,,1,001,2025-01-03_16h40.48.041,IAT(Formal),2021.2.3,Win32,59.87665409,,,,,,,,,,,,,,,,,,,,,,,,,,,,,,,,,,,,,,,,,,,,,,,,,,,,,俺,i,,,i,1,0.5202,0,67,67,74,1,,
,,,,,,,,,,,,,1,001,2025-01-03_16h40.48.041,IAT(Formal),2021.2.3,Win32,59.87665409,,,,,,,,,,,,,,,,,,,,,,,,,,,,,,,,,,,,,,,,,,,,,,,,,,,,,我的,i,,,i,1,0.634,0,68,68,71,1,,
,,,,,,,,,,,,,1,001,2025-01-03_16h40.48.041,IAT(Formal),2021.2.3,Win32,59.87665409,,,,,,,,,,,,,,,,,,,,,,,,,,,,,,,,,,,,,,,,,,,,,,,,,,,,,优秀,e,,,e,1,0.4675,0,69,69,10,1,,
,,,,,,,,,,,,,1,001,2025-01-03_16h40.48.041,IAT(Formal),2021.2.3,Win32,59.87665409,,,,,,,,,,,,,,,,,,,,,,,,,,,,,,,,,,,,,,,,,,,,,,,,,,,,,杰出,e,,,e,1,0.484,0,70,70,13,1,,
,,,,,,,,,,,,,1,001,2025-01-03_16h40.48.041,IAT(Formal),2021.2.3,Win32,59.87665409,,,,,,,,,,,,,,,,,,,,,,,,,,,,,,,,,,,,,,,,,,,,,,,,,,,,,细腻,e,,,e,1,0.5213,0,71,71,25,1,,
,,,,,,,,,,,,,1,001,2025-01-03_16h40.48.041,IAT(Formal),2021.2.3,Win32,59.87665409,,,,,,,,,,,,,,,,,,,,,,,,,,,,,,,,,,,,,,,,,,,,,,,,,,,,,崇高,e,,,e,1,0.4569,0,72,72,11,1,,
,,,,,,,,,,,,,1,001,2025-01-03_16h40.48.041,IAT(Formal),2021.2.3,Win32,59.87665409,,,,,,,,,,,,,,,,,,,,,,,,,,,,,,,,,,,,,,,,,,,,,,,,,,,,,无私,e,,,e,1,0.65,0,73,73,22,1,,
,,,,,,,,,,,,,1,001,2025-01-03_16h40.48.041,IAT(Formal),2021.2.3,Win32,59.87665409,,,,,,,,,,,,,,,,,,,,,,,,,,,,,,,,,,,,,,,,,,,,,,,,,,,,,我们,i,,,i,1,0.6346,0,74,74,72,1,,
,,,,,,,,,,,,,1,001,2025-01-03_16h40.48.041,IAT(Formal),2021.2.3,Win32,59.87665409,,,,,,,,,,,,,,,,,,,,,,,,,,,,,,,,,,,,,,,,,,,,,,,,,,,,,他的,e,,,e,1,0.5844,0,75,75,7,1,,
,,,,,,,,,,,,,1,001,2025-01-03_16h40.48.041,IAT(Formal),2021.2.3,Win32,59.87665409,,,,,,,,,,,,,,,,,,,,,,,,,,,,,,,,,,,,,,,,,,,,,,,,,,,,,下贱,i,,,i,1,0.6842,0,76,76,49,1,,
,,,,,,,,,,,,,1,001,2025-01-03_16h40.48.041,IAT(Formal),2021.2.3,Win32,59.87665409,,,,,,,,,,,,,,,,,,,,,,,,,,,,,,,,,,,,,,,,,,,,,,,,,,,,,自私,i,,,i,1,0.7505,0,77,77,43,1,,
,,,,,,,,,,,,,1,001,2025-01-03_16h40.48.041,IAT(Formal),2021.2.3,Win32,59.87665409,,,,,,,,,,,,,,,,,,,,,,,,,,,,,,,,,,,,,,,,,,,,,,,,,,,,,卑鄙,i,,,i,1,0.9955,0,78,78,30,1,,
,,,,,,,,,,,,,1,001,2025-01-03_16h40.48.041,IAT(Formal),2021.2.3,Win32,59.87665409,,,,,,,,,,,,,,,,,,,,,,,,,,,,,,,,,,,,,,,,,,,,,,,,,,,,,他们,e,,,e,1,0.5489,0,79,79,66,1,,
,,,,,,,,,,,,,1,001,2025-01-03_16h40.48.041,IAT(Formal),2021.2.3,Win32,59.87665409,,,,,,,,,,,,,,,,,,,,,,,,,,,,,,,,,,,,,,,,,,,,,,,,,,,,,他的,e,,,e,1,0.7677,1,0,80,57,1,,
,,,,,,,,,,,,,1,001,2025-01-03_16h40.48.041,IAT(Formal),2021.2.3,Win32,59.87665409,,,,,,,,,,,,,,,,,,,,,,,,,,,,,,,,,,,,,,,,,,,,,,,,,,,,,他的,e,,,e,1,0.4514,1,1,81,7,1,,
,,,,,,,,,,,,,1,001,2025-01-03_16h40.48.041,IAT(Formal),2021.2.3,Win32,59.87665409,,,,,,,,,,,,,,,,,,,,,,,,,,,,,,,,,,,,,,,,,,,,,,,,,,,,,其他,e,,,e,1,0.9675,1,2,82,9,1,,
,,,,,,,,,,,,,1,001,2025-01-03_16h40.48.041,IAT(Formal),2021.2.3,Win32,59.87665409,,,,,,,,,,,,,,,,,,,,,,,,,,,,,,,,,,,,,,,,,,,,,,,,,,,,,自己,i,,,i,1,0.5508,1,3,83,73,1,,
,,,,,,,,,,,,,1,001,2025-01-03_16h40.48.041,IAT(Formal),2021.2.3,Win32,59.87665409,,,,,,,,,,,,,,,,,,,,,,,,,,,,,,,,,,,,,,,,,,,,,,,,,,,,,俺,i,,,i,1,0.8011,1,4,84,4,1,,
,,,,,,,,,,,,,1,001,2025-01-03_16h40.48.041,IAT(Formal),2021.2.3,Win32,59.87665409,,,,,,,,,,,,,,,,,,,,,,,,,,,,,,,,,,,,,,,,,,,,,,,,,,,,,自己,i,,,i,1,0.4846,1,5,85,3,1,,
,,,,,,,,,,,,,1,001,2025-01-03_16h40.48.041,IAT(Formal),2021.2.3,Win32,59.87665409,,,,,,,,,,,,,,,,,,,,,,,,,,,,,,,,,,,,,,,,,,,,,,,,,,,,,机智,e,,,e,1,0.5841,1,6,86,19,1,,
,,,,,,,,,,,,,1,001,2025-01-03_16h40.48.041,IAT(Formal),2021.2.3,Win32,59.87665409,,,,,,,,,,,,,,,,,,,,,,,,,,,,,,,,,,,,,,,,,,,,,,,,,,,,,暴躁,i,,,i,1,0.6675,1,7,87,44,1,,
,,,,,,,,,,,,,1,001,2025-01-03_16h40.48.041,IAT(Formal),2021.2.3,Win32,59.87665409,,,,,,,,,,,,,,,,,,,,,,,,,,,,,,,,,,,,,,,,,,,,,,,,,,,,,自私,i,,,i,1,0.9842,1,8,88,43,1,,
,,,,,,,,,,,,,1,001,2025-01-03_16h40.48.041,IAT(Formal),2021.2.3,Win32,59.87665409,,,,,,,,,,,,,,,,,,,,,,,,,,,,,,,,,,,,,,,,,,,,,,,,,,,,,热情,e,,,e,1,0.5341,1,9,89,27,1,,
,,,,,,,,,,,,,1,001,2025-01-03_16h40.48.041,IAT(Formal),2021.2.3,Win32,59.87665409,,,,,,,,,,,,,,,,,,,,,,,,,,,,,,,,,,,,,,,,,,,,,,,,,,,,,我的,i,,,i,1,0.6175,1,10,90,71,1,,
,,,,,,,,,,,,,1,001,2025-01-03_16h40.48.041,IAT(Formal),2021.2.3,Win32,59.87665409,,,,,,,,,,,,,,,,,,,,,,,,,,,,,,,,,,,,,,,,,,,,,,,,,,,,,固执,i,,,i,1,1.2508,1,11,91,47,1,,
,,,,,,,,,,,,,1,001,2025-01-03_16h40.48.041,IAT(Formal),2021.2.3,Win32,59.87665409,,,,,,,,,,,,,,,,,,,,,,,,,,,,,,,,,,,,,,,,,,,,,,,,,,,,,我们,i,,,e,0,0.6012,1,12,92,72,1,,
,,,,,,,,,,,,,1,001,2025-01-03_16h40.48.041,IAT(Formal),2021.2.3,Win32,59.87665409,,,,,,,,,,,,,,,,,,,,,,,,,,,,,,,,,,,,,,,,,,,,,,,,,,,,,我们,i,,,i,1,0.6675,1,13,93,62,1,,
,,,,,,,,,,,,,1,001,2025-01-03_16h40.48.041,IAT(Formal),2021.2.3,Win32,59.87665409,,,,,,,,,,,,,,,,,,,,,,,,,,,,,,,,,,,,,,,,,,,,,,,,,,,,,执拗,i,,,i,1,0.6511,1,14,94,40,1,,
,,,,,,,,,,,,,1,001,2025-01-03_16h40.48.041,IAT(Formal),2021.2.3,Win32,59.87665409,,,,,,,,,,,,,,,,,,,,,,,,,,,,,,,,,,,,,,,,,,,,,,,,,,,,,自己,i,,,i,1,1.1176,1,15,95,63,1,,
,,,,,,,,,,,,,1,001,2025-01-03_16h40.48.041,IAT(Formal),2021.2.3,Win32,59.87665409,,,,,,,,,,,,,,,,,,,,,,,,,,,,,,,,,,,,,,,,,,,,,,,,,,,,,稳重,e,,,e,1,0.768,1,16,96,21,1,,
,,,,,,,,,,,,,1,001,2025-01-03_16h40.48.041,IAT(Formal),2021.2.3,Win32,59.87665409,,,,,,,,,,,,,,,,,,,,,,,,,,,,,,,,,,,,,,,,,,,,,,,,,,,,,自卑,i,,,i,1,0.6178,1,17,97,36,1,,
,,,,,,,,,,,,,1,001,2025-01-03_16h40.48.041,IAT(Formal),2021.2.3,Win32,59.87665409,,,,,,,,,,,,,,,,,,,,,,,,,,,,,,,,,,,,,,,,,,,,,,,,,,,,,诚实,e,,,e,1,0.5008,1,18,98,15,1,,
,,,,,,,,,,,,,1,001,2025-01-03_16h40.48.041,IAT(Formal),2021.2.3,Win32,59.87665409,,,,,,,,,,,,,,,,,,,,,,,,,,,,,,,,,,,,,,,,,,,,,,,,,,,,,朴实,e,,,e,1,1.134,1,19,99,24,1,,
,,,,,,,,,,,,,1,001,2025-01-03_16h40.48.041,IAT(Formal),2021.2.3,Win32,59.87665409,,,,,,,,,,,,,,,,,,,,,,,,,,,,,,,,,,,,,,,,,,,,,,,,,,,,,鲁莽,i,,,i,1,0.6843,1,20,100,38,1,,
,,,,,,,,,,,,,1,001,2025-01-03_16h40.48.041,IAT(Formal),2021.2.3,Win32,59.87665409,,,,,,,,,,,,,,,,,,,,,,,,,,,,,,,,,,,,,,,,,,,,,,,,,,,,,其他,e,,,e,1,0.651,1,21,101,59,1,,
,,,,,,,,,,,,,1,001,2025-01-03_16h40.48.041,IAT(Formal),2021.2.3,Win32,59.87665409,,,,,,,,,,,,,,,,,,,,,,,,,,,,,,,,,,,,,,,,,,,,,,,,,,,,,俺,i,,,i,1,0.5845,1,22,102,54,1,,
,,,,,,,,,,,,,1,001,2025-01-03_16h40.48.041,IAT(Formal),2021.2.3,Win32,59.87665409,,,,,,,,,,,,,,,,,,,,,,,,,,,,,,,,,,,,,,,,,,,,,,,,,,,,,散漫,i,,,i,1,0.7509,1,23,103,41,1,,
,,,,,,,,,,,,,1,001,2025-01-03_16h40.48.041,IAT(Formal),2021.2.3,Win32,59.87665409,,,,,,,,,,,,,,,,,,,,,,,,,,,,,,,,,,,,,,,,,,,,,,,,,,,,,下贱,i,,,i,1,0.568,1,24,104,49,1,,
,,,,,,,,,,,,,1,001,2025-01-03_16h40.48.041,IAT(Formal),2021.2.3,Win32,59.87665409,,,,,,,,,,,,,,,,,,,,,,,,,,,,,,,,,,,,,,,,,,,,,,,,,,,,,我,i,,,i,1,0.7842,1,25,105,0,1,,
,,,,,,,,,,,,,1,001,2025-01-03_16h40.48.041,IAT(Formal),2021.2.3,Win32,59.87665409,,,,,,,,,,,,,,,,,,,,,,,,,,,,,,,,,,,,,,,,,,,,,,,,,,,,,其他,e,,,e,1,0.6174,1,26,106,69,1,,
,,,,,,,,,,,,,1,001,2025-01-03_16h40.48.041,IAT(Formal),2021.2.3,Win32,59.87665409,,,,,,,,,,,,,,,,,,,,,,,,,,,,,,,,,,,,,,,,,,,,,,,,,,,,,他的,e,,,i,0,1.4345,1,27,107,77,1,,
,,,,,,,,,,,,,1,001,2025-01-03_16h40.48.041,IAT(Formal),2021.2.3,Win32,59.87665409,,,,,,,,,,,,,,,,,,,,,,,,,,,,,,,,,,,,,,,,,,,,,,,,,,,,,其他,e,,,e,1,0.6342,1,28,108,79,1,,
,,,,,,,,,,,,,1,001,2025-01-03_16h40.48.041,IAT(Formal),2021.2.3,Win32,59.87665409,,,,,,,,,,,,,,,,,,,,,,,,,,,,,,,,,,,,,,,,,,,,,,,,,,,,,他人,e,,,e,1,0.5507,1,29,109,58,1,,
,,,,,,,,,,,,,1,001,2025-01-03_16h40.48.041,IAT(Formal),2021.2.3,Win32,59.87665409,,,,,,,,,,,,,,,,,,,,,,,,,,,,,,,,,,,,,,,,,,,,,,,,,,,,,崇高,e,,,e,1,0.6347,1,30,110,11,1,,
,,,,,,,,,,,,,1,001,2025-01-03_16h40.48.041,IAT(Formal),2021.2.3,Win32,59.87665409,,,,,,,,,,,,,,,,,,,,,,,,,,,,,,,,,,,,,,,,,,,,,,,,,,,,,我的,i,,,i,1,0.551,1,31,111,61,1,,
,,,,,,,,,,,,,1,001,2025-01-03_16h40.48.041,IAT(Formal),2021.2.3,Win32,59.87665409,,,,,,,,,,,,,,,,,,,,,,,,,,,,,,,,,,,,,,,,,,,,,,,,,,,,,自己,i,,,i,1,0.4842,1,32,112,53,1,,
,,,,,,,,,,,,,1,001,2025-01-03_16h40.48.041,IAT(Formal),2021.2.3,Win32,59.87665409,,,,,,,,,,,,,,,,,,,,,,,,,,,,,,,,,,,,,,,,,,,,,,,,,,,,,消极,i,,,i,1,0.5674,1,33,113,35,1,,
,,,,,,,,,,,,,1,001,2025-01-03_16h40.48.041,IAT(Formal),2021.2.3,Win32,59.87665409,,,,,,,,,,,,,,,,,,,,,,,,,,,,,,,,,,,,,,,,,,,,,,,,,,,,,俺,i,,,i,1,1.1179,1,34,114,74,1,,
,,,,,,,,,,,,,1,001,2025-01-03_16h40.48.041,IAT(Formal),2021.2.3,Win32,59.87665409,,,,,,,,,,,,,,,,,,,,,,,,,,,,,,,,,,,,,,,,,,,,,,,,,,,,,悲观,i,,,e,0,0.5844,1,35,115,34,1,,
,,,,,,,,,,,,,1,001,2025-01-03_16h40.48.041,IAT(Formal),2021.2.3,Win32,59.87665409,,,,,,,,,,,,,,,,,,,,,,,,,,,,,,,,,,,,,,,,,,,,,,,,,,,,,我,i,,,i,1,0.6511,1,36,116,50,1,,
,,,,,,,,,,,,,1,001,2025-01-03_16h40.48.041,IAT(Formal),2021.2.3,Win32,59.87665409,,,,,,,,,,,,,,,,,,,,,,,,,,,,,,,,,,,,,,,,,,,,,,,,,,,,,活泼,e,,,e,1,0.5511,1,37,117,28,1,,
,,,,,,,,,,,,,1,001,2025-01-03_16h40.48.041,IAT(Formal),2021.2.3,Win32,59.87665409,,,,,,,,,,,,,,,,,,,,,,,,,,,,,,,,,,,,,,,,,,,,,,,,,,,,,我们,i,,,i,1,0.7509,1,38,118,2,1,,
,,,,,,,,,,,,,1,001,2025-01-03_16h40.48.041,IAT(Formal),2021.2.3,Win32,59.87665409,,,,,,,,,,,,,,,,,,,,,,,,,,,,,,,,,,,,,,,,,,,,,,,,,,,,,他,e,,,e,1,0.8178,1,39,119,5,1,,
,,,,,,,,,,,,,1,001,2025-01-03_16h40.48.041,IAT(Formal),2021.2.3,Win32,59.87665409,,,,,,,,,,,,,,,,,,,,,,,,,,,,,,,,,,,,,,,,,,,,,,,,,,,,,我的,i,,,i,1,0.8345,1,40,120,1,1,,
,,,,,,,,,,,,,1,001,2025-01-03_16h40.48.041,IAT(Formal),2021.2.3,Win32,59.87665409,,,,,,,,,,,,,,,,,,,,,,,,,,,,,,,,,,,,,,,,,,,,,,,,,,,,,勇敢,e,,,e,1,1.0007,1,41,121,17,1,,
,,,,,,,,,,,,,1,001,2025-01-03_16h40.48.041,IAT(Formal),2021.2.3,Win32,59.87665409,,,,,,,,,,,,,,,,,,,,,,,,,,,,,,,,,,,,,,,,,,,,,,,,,,,,,野蛮,i,,,i,1,0.6841,1,42,122,46,1,,
,,,,,,,,,,,,,1,001,2025-01-03_16h40.48.041,IAT(Formal),2021.2.3,Win32,59.87665409,,,,,,,,,,,,,,,,,,,,,,,,,,,,,,,,,,,,,,,,,,,,,,,,,,,,,他们,e,,,e,1,0.7005,1,43,123,76,1,,
,,,,,,,,,,,,,1,001,2025-01-03_16h40.48.041,IAT(Formal),2021.2.3,Win32,59.87665409,,,,,,,,,,,,,,,,,,,,,,,,,,,,,,,,,,,,,,,,,,,,,,,,,,,,,聪明,e,,,e,1,0.5851,1,44,124,12,1,,
,,,,,,,,,,,,,1,001,2025-01-03_16h40.48.041,IAT(Formal),2021.2.3,Win32,59.87665409,,,,,,,,,,,,,,,,,,,,,,,,,,,,,,,,,,,,,,,,,,,,,,,,,,,,,冒失,i,,,i,1,0.601,1,45,125,39,1,,
,,,,,,,,,,,,,1,001,2025-01-03_16h40.48.041,IAT(Formal),2021.2.3,Win32,59.87665409,,,,,,,,,,,,,,,,,,,,,,,,,,,,,,,,,,,,,,,,,,,,,,,,,,,,,细腻,e,,,e,1,0.5837,1,46,126,25,1,,
,,,,,,,,,,,,,1,001,2025-01-03_16h40.48.041,IAT(Formal),2021.2.3,Win32,59.87665409,,,,,,,,,,,,,,,,,,,,,,,,,,,,,,,,,,,,,,,,,,,,,,,,,,,,,我,i,,,i,1,0.6673,1,47,127,60,1,,
,,,,,,,,,,,,,1,001,2025-01-03_16h40.48.041,IAT(Formal),2021.2.3,Win32,59.87665409,,,,,,,,,,,,,,,,,,,,,,,,,,,,,,,,,,,,,,,,,,,,,,,,,,,,,虚伪,i,,,i,1,1.0503,1,48,128,31,1,,
,,,,,,,,,,,,,1,001,2025-01-03_16h40.48.041,IAT(Formal),2021.2.3,Win32,59.87665409,,,,,,,,,,,,,,,,,,,,,,,,,,,,,,,,,,,,,,,,,,,,,,,,,,,,,他们,e,,,e,1,0.5836,1,49,129,56,1,,
,,,,,,,,,,,,,1,001,2025-01-03_16h40.48.041,IAT(Formal),2021.2.3,Win32,59.87665409,,,,,,,,,,,,,,,,,,,,,,,,,,,,,,,,,,,,,,,,,,,,,,,,,,,,,他们,e,,,e,1,0.5567,1,50,130,66,1,,
,,,,,,,,,,,,,1,001,2025-01-03_16h40.48.041,IAT(Formal),2021.2.3,Win32,59.87665409,,,,,,,,,,,,,,,,,,,,,,,,,,,,,,,,,,,,,,,,,,,,,,,,,,,,,我,i,,,i,1,0.7038,1,51,131,70,1,,
,,,,,,,,,,,,,1,001,2025-01-03_16h40.48.041,IAT(Formal),2021.2.3,Win32,59.87665409,,,,,,,,,,,,,,,,,,,,,,,,,,,,,,,,,,,,,,,,,,,,,,,,,,,,,他人,e,,,e,1,0.4869,1,52,132,8,1,,
,,,,,,,,,,,,,1,001,2025-01-03_16h40.48.041,IAT(Formal),2021.2.3,Win32,59.87665409,,,,,,,,,,,,,,,,,,,,,,,,,,,,,,,,,,,,,,,,,,,,,,,,,,,,,愚蠢,i,,,i,1,0.6507,1,53,133,32,1,,
,,,,,,,,,,,,,1,001,2025-01-03_16h40.48.041,IAT(Formal),2021.2.3,Win32,59.87665409,,,,,,,,,,,,,,,,,,,,,,,,,,,,,,,,,,,,,,,,,,,,,,,,,,,,,俺,i,,,i,1,0.6168,1,54,134,64,1,,
,,,,,,,,,,,,,1,001,2025-01-03_16h40.48.041,IAT(Formal),2021.2.3,Win32,59.87665409,,,,,,,,,,,,,,,,,,,,,,,,,,,,,,,,,,,,,,,,,,,,,,,,,,,,,他人,e,,,e,1,0.5344,1,55,135,78,1,,
,,,,,,,,,,,,,1,001,2025-01-03_16h40.48.041,IAT(Formal),2021.2.3,Win32,59.87665409,,,,,,,,,,,,,,,,,,,,,,,,,,,,,,,,,,,,,,,,,,,,,,,,,,,,,无私,e,,,i,0,0.9531,1,56,136,22,1,,
,,,,,,,,,,,,,1,001,2025-01-03_16h40.48.041,IAT(Formal),2021.2.3,Win32,59.87665409,,,,,,,,,,,,,,,,,,,,,,,,,,,,,,,,,,,,,,,,,,,,,,,,,,,,,优秀,e,,,e,1,0.6165,1,57,137,10,1,,
,,,,,,,,,,,,,1,001,2025-01-03_16h40.48.041,IAT(Formal),2021.2.3,Win32,59.87665409,,,,,,,,,,,,,,,,,,,,,,,,,,,,,,,,,,,,,,,,,,,,,,,,,,,,,诚恳,e,,,e,1,1.0835,1,58,138,29,1,,
,,,,,,,,,,,,,1,001,2025-01-03_16h40.48.041,IAT(Formal),2021.2.3,Win32,59.87665409,,,,,,,,,,,,,,,,,,,,,,,,,,,,,,,,,,,,,,,,,,,,,,,,,,,,,我们,i,,,i,1,0.6168,1,59,139,52,1,,
,,,,,,,,,,,,,1,001,2025-01-03_16h40.48.041,IAT(Formal),2021.2.3,Win32,59.87665409,,,,,,,,,,,,,,,,,,,,,,,,,,,,,,,,,,,,,,,,,,,,,,,,,,,,,傲慢,i,,,i,1,0.789,1,60,140,37,1,,
,,,,,,,,,,,,,1,001,2025-01-03_16h40.48.041,IAT(Formal),2021.2.3,Win32,59.87665409,,,,,,,,,,,,,,,,,,,,,,,,,,,,,,,,,,,,,,,,,,,,,,,,,,,,,公正,e,,,e,1,1.0006,1,61,141,23,1,,
,,,,,,,,,,,,,1,001,2025-01-03_16h40.48.041,IAT(Formal),2021.2.3,Win32,59.87665409,,,,,,,,,,,,,,,,,,,,,,,,,,,,,,,,,,,,,,,,,,,,,,,,,,,,,他,e,,,i,0,0.9333,1,62,142,55,1,,
,,,,,,,,,,,,,1,001,2025-01-03_16h40.48.041,IAT(Formal),2021.2.3,Win32,59.87665409,,,,,,,,,,,,,,,,,,,,,,,,,,,,,,,,,,,,,,,,,,,,,,,,,,,,,轻率,i,,,i,1,1.0175,1,63,143,48,1,,
,,,,,,,,,,,,,1,001,2025-01-03_16h40.48.041,IAT(Formal),2021.2.3,Win32,59.87665409,,,,,,,,,,,,,,,,,,,,,,,,,,,,,,,,,,,,,,,,,,,,,,,,,,,,,杰出,e,,,e,1,0.6168,1,64,144,13,1,,
,,,,,,,,,,,,,1,001,2025-01-03_16h40.48.041,IAT(Formal),2021.2.3,Win32,59.87665409,,,,,,,,,,,,,,,,,,,,,,,,,,,,,,,,,,,,,,,,,,,,,,,,,,,,,凶狠,i,,,i,1,1.0715,1,65,145,42,1,,
,,,,,,,,,,,,,1,001,2025-01-03_16h40.48.041,IAT(Formal),2021.2.3,Win32,59.87665409,,,,,,,,,,,,,,,,,,,,,,,,,,,,,,,,,,,,,,,,,,,,,,,,,,,,,他人,e,,,e,1,0.7351,1,66,146,68,1,,
,,,,,,,,,,,,,1,001,2025-01-03_16h40.48.041,IAT(Formal),2021.2.3,Win32,59.87665409,,,,,,,,,,,,,,,,,,,,,,,,,,,,,,,,,,,,,,,,,,,,,,,,,,,,,我的,i,,,i,1,0.6695,1,67,147,51,1,,
,,,,,,,,,,,,,1,001,2025-01-03_16h40.48.041,IAT(Formal),2021.2.3,Win32,59.87665409,,,,,,,,,,,,,,,,,,,,,,,,,,,,,,,,,,,,,,,,,,,,,,,,,,,,,他们,e,,,e,1,0.4339,1,68,148,6,1,,
,,,,,,,,,,,,,1,001,2025-01-03_16h40.48.041,IAT(Formal),2021.2.3,Win32,59.87665409,,,,,,,,,,,,,,,,,,,,,,,,,,,,,,,,,,,,,,,,,,,,,,,,,,,,,卑鄙,i,,,i,1,0.6881,1,69,149,30,1,,
,,,,,,,,,,,,,1,001,2025-01-03_16h40.48.041,IAT(Formal),2021.2.3,Win32,59.87665409,,,,,,,,,,,,,,,,,,,,,,,,,,,,,,,,,,,,,,,,,,,,,,,,,,,,,勤奋,e,,,e,1,0.6177,1,70,150,18,1,,
,,,,,,,,,,,,,1,001,2025-01-03_16h40.48.041,IAT(Formal),2021.2.3,Win32,59.87665409,,,,,,,,,,,,,,,,,,,,,,,,,,,,,,,,,,,,,,,,,,,,,,,,,,,,,认真,e,,,e,1,0.5668,1,71,151,20,1,,
,,,,,,,,,,,,,1,001,2025-01-03_16h40.48.041,IAT(Formal),2021.2.3,Win32,59.87665409,,,,,,,,,,,,,,,,,,,,,,,,,,,,,,,,,,,,,,,,,,,,,,,,,,,,,他,e,,,e,1,0.7005,1,72,152,75,1,,
,,,,,,,,,,,,,1,001,2025-01-03_16h40.48.041,IAT(Formal),2021.2.3,Win32,59.87665409,,,,,,,,,,,,,,,,,,,,,,,,,,,,,,,,,,,,,,,,,,,,,,,,,,,,,他,e,,,e,1,0.4713,1,73,153,65,1,,
,,,,,,,,,,,,,1,001,2025-01-03_16h40.48.041,IAT(Formal),2021.2.3,Win32,59.87665409,,,,,,,,,,,,,,,,,,,,,,,,,,,,,,,,,,,,,,,,,,,,,,,,,,,,,刻薄,i,,,i,1,0.7838,1,74,154,33,1,,
,,,,,,,,,,,,,1,001,2025-01-03_16h40.48.041,IAT(Formal),2021.2.3,Win32,59.87665409,,,,,,,,,,,,,,,,,,,,,,,,,,,,,,,,,,,,,,,,,,,,,,,,,,,,,正直,e,,,e,1,0.617,1,75,155,16,1,,
,,,,,,,,,,,,,1,001,2025-01-03_16h40.48.041,IAT(Formal),2021.2.3,Win32,59.87665409,,,,,,,,,,,,,,,,,,,,,,,,,,,,,,,,,,,,,,,,,,,,,,,,,,,,,乐观,e,,,e,1,0.6541,1,76,156,14,1,,
,,,,,,,,,,,,,1,001,2025-01-03_16h40.48.041,IAT(Formal),2021.2.3,Win32,59.87665409,,,,,,,,,,,,,,,,,,,,,,,,,,,,,,,,,,,,,,,,,,,,,,,,,,,,,猖狂,i,,,e,0,0.4557,1,77,157,45,1,,
,,,,,,,,,,,,,1,001,2025-01-03_16h40.48.041,IAT(Formal),2021.2.3,Win32,59.87665409,,,,,,,,,,,,,,,,,,,,,,,,,,,,,,,,,,,,,,,,,,,,,,,,,,,,,他的,e,,,e,1,0.5006,1,78,158,67,1,,
,,,,,,,,,,,,,1,001,2025-01-03_16h40.48.041,IAT(Formal),2021.2.3,Win32,59.87665409,,,,,,,,,,,,,,,,,,,,,,,,,,,,,,,,,,,,,,,,,,,,,,,,,,,,,冷静,e,,,e,1,0.6171,1,79,159,26,1,,
,,,,,,,,,,,,,1,001,2025-01-03_16h40.48.041,IAT(Formal),2021.2.3,Win32,59.87665409,,,,,,,,,,,,,,,,,,,,,,,,,,,,,,,,,,,,,,,,,,,,,,,,,,,,,,,,,,,,,,,,,space,1.8343