﻿Instruction1.keys,Instruction1.rt,Instruction2.keys,Instruction2.rt,key_resp_iso.keys,key_resp_iso.corr,key_resp_iso.rt,Practice_01.thisRepN,Practice_01.thisTrialN,Practice_01.thisN,Practice_01.thisIndex,Practice_01.ran,Words,ans,participant,session,date,expName,psychopyVersion,OS,frameRate,key_resp_3.keys,key_resp_3.rt,key_resp_ipn.keys,key_resp_ipn.corr,key_resp_ipn.rt,Practice_02.thisRepN,Practice_02.thisTrialN,Practice_02.thisN,Practice_02.thisIndex,Practice_02.ran,Words_ipn,ans_ipn,key_resp_4.keys,key_resp_4.rt,key_resp_t1.keys,key_resp_t1.corr,key_resp_t1.rt,Practice_T1.thisRepN,Practice_T1.thisTrialN,Practice_T1.thisN,Practice_T1.thisIndex,Practice_T1.ran,Words_t1,ans_t1,key_resp_5.keys,key_resp_5.rt,Formal_T1.thisRepN,Formal_T1.thisTrialN,Formal_T1.thisN,Formal_T1.thisIndex,Formal_T1.ran,key_resp_6.keys,key_resp_6.rt,key_resp_iso_reverse.keys,key_resp_iso_reverse.corr,key_resp_iso_reverse.rt,Practice_iso_Reverse.thisRepN,Practice_iso_Reverse.thisTrialN,Practice_iso_Reverse.thisN,Practice_iso_Reverse.thisIndex,Practice_iso_Reverse.ran,key_resp_7.keys,key_resp_7.rt,key_resp_t2_Practice.keys,key_resp_t2_Practice.corr,key_resp_t2_Practice.rt,Practice_t2_Reverse.thisRepN,Practice_t2_Reverse.thisTrialN,Practice_t2_Reverse.thisN,Practice_t2_Reverse.thisIndex,Practice_t2_Reverse.ran,Words_t2,ans_t2,key_resp_8.keys,key_resp_8.rt,key_resp_t2.keys,key_resp_t2.corr,key_resp_t2.rt,Formal_t2_reverse.thisRepN,Formal_t2_reverse.thisTrialN,Formal_t2_reverse.thisN,Formal_t2_reverse.thisIndex,Formal_t2_reverse.ran,key_instruct.keys,key_instruct.rt
space,6.2161,space,11.0975,e,1,1.0149,0,0,0,3,1,自己,e,1,001,2025-01-02_11h30.18.310,IAT(Formal),2021.2.3,Win32,120.4819277,,,,,,,,,,,,,,,,,,,,,,,,,,,,,,,,,,,,,,,,,,,,,,,,,,,,,,,,,,,,,,,,,
,,,,i,1,0.7173,0,1,1,9,1,其他,i,1,001,2025-01-02_11h30.18.310,IAT(Formal),2021.2.3,Win32,120.4819277,,,,,,,,,,,,,,,,,,,,,,,,,,,,,,,,,,,,,,,,,,,,,,,,,,,,,,,,,,,,,,,,,
,,,,e,1,0.5419,0,2,2,2,1,我们,e,1,001,2025-01-02_11h30.18.310,IAT(Formal),2021.2.3,Win32,120.4819277,,,,,,,,,,,,,,,,,,,,,,,,,,,,,,,,,,,,,,,,,,,,,,,,,,,,,,,,,,,,,,,,,
,,,,e,1,0.5092,0,3,3,1,1,我的,e,1,001,2025-01-02_11h30.18.310,IAT(Formal),2021.2.3,Win32,120.4819277,,,,,,,,,,,,,,,,,,,,,,,,,,,,,,,,,,,,,,,,,,,,,,,,,,,,,,,,,,,,,,,,,
,,,,i,1,0.5222,0,4,4,7,1,他的,i,1,001,2025-01-02_11h30.18.310,IAT(Formal),2021.2.3,Win32,120.4819277,,,,,,,,,,,,,,,,,,,,,,,,,,,,,,,,,,,,,,,,,,,,,,,,,,,,,,,,,,,,,,,,,
,,,,i,1,0.5438,0,5,5,8,1,他人,i,1,001,2025-01-02_11h30.18.310,IAT(Formal),2021.2.3,Win32,120.4819277,,,,,,,,,,,,,,,,,,,,,,,,,,,,,,,,,,,,,,,,,,,,,,,,,,,,,,,,,,,,,,,,,
,,,,e,1,0.6621,0,6,6,4,1,俺,e,1,001,2025-01-02_11h30.18.310,IAT(Formal),2021.2.3,Win32,120.4819277,,,,,,,,,,,,,,,,,,,,,,,,,,,,,,,,,,,,,,,,,,,,,,,,,,,,,,,,,,,,,,,,,
,,,,e,1,0.6083,0,7,7,0,1,我,e,1,001,2025-01-02_11h30.18.310,IAT(Formal),2021.2.3,Win32,120.4819277,,,,,,,,,,,,,,,,,,,,,,,,,,,,,,,,,,,,,,,,,,,,,,,,,,,,,,,,,,,,,,,,,
,,,,i,1,0.626,0,8,8,6,1,他们,i,1,001,2025-01-02_11h30.18.310,IAT(Formal),2021.2.3,Win32,120.4819277,,,,,,,,,,,,,,,,,,,,,,,,,,,,,,,,,,,,,,,,,,,,,,,,,,,,,,,,,,,,,,,,,
,,,,i,1,0.4822,0,9,9,5,1,他,i,1,001,2025-01-02_11h30.18.310,IAT(Formal),2021.2.3,Win32,120.4819277,,,,,,,,,,,,,,,,,,,,,,,,,,,,,,,,,,,,,,,,,,,,,,,,,,,,,,,,,,,,,,,,,
,,,,,,,,,,,,,,1,001,2025-01-02_11h30.18.310,IAT(Formal),2021.2.3,Win32,120.4819277,space,7.7075,e,1,0.6663,0,0,0,11,1,稳重,e,,,,,,,,,,,,,,,,,,,,,,,,,,,,,,,,,,,,,,,,,,,,,,,,,,,,,
,,,,,,,,,,,,,,1,001,2025-01-02_11h30.18.310,IAT(Formal),2021.2.3,Win32,120.4819277,,,e,1,0.4594,0,1,1,6,1,正直,e,,,,,,,,,,,,,,,,,,,,,,,,,,,,,,,,,,,,,,,,,,,,,,,,,,,,,
,,,,,,,,,,,,,,1,001,2025-01-02_11h30.18.310,IAT(Formal),2021.2.3,Win32,120.4819277,,,i,1,0.5033,0,2,2,34,1,暴躁,i,,,,,,,,,,,,,,,,,,,,,,,,,,,,,,,,,,,,,,,,,,,,,,,,,,,,,
,,,,,,,,,,,,,,1,001,2025-01-02_11h30.18.310,IAT(Formal),2021.2.3,Win32,120.4819277,,,i,1,0.5092,0,3,3,30,1,执拗,i,,,,,,,,,,,,,,,,,,,,,,,,,,,,,,,,,,,,,,,,,,,,,,,,,,,,,
,,,,,,,,,,,,,,1,001,2025-01-02_11h30.18.310,IAT(Formal),2021.2.3,Win32,120.4819277,,,e,1,0.6925,0,4,4,1,1,崇高,e,,,,,,,,,,,,,,,,,,,,,,,,,,,,,,,,,,,,,,,,,,,,,,,,,,,,,
,,,,,,,,,,,,,,1,001,2025-01-02_11h30.18.310,IAT(Formal),2021.2.3,Win32,120.4819277,,,e,1,0.5959,0,5,5,14,1,朴实,e,,,,,,,,,,,,,,,,,,,,,,,,,,,,,,,,,,,,,,,,,,,,,,,,,,,,,
,,,,,,,,,,,,,,1,001,2025-01-02_11h30.18.310,IAT(Formal),2021.2.3,Win32,120.4819277,,,i,0,0.4915,0,6,6,12,1,无私,e,,,,,,,,,,,,,,,,,,,,,,,,,,,,,,,,,,,,,,,,,,,,,,,,,,,,,
,,,,,,,,,,,,,,1,001,2025-01-02_11h30.18.310,IAT(Formal),2021.2.3,Win32,120.4819277,,,i,1,0.6828,0,7,7,35,1,猖狂,i,,,,,,,,,,,,,,,,,,,,,,,,,,,,,,,,,,,,,,,,,,,,,,,,,,,,,
,,,,,,,,,,,,,,1,001,2025-01-02_11h30.18.310,IAT(Formal),2021.2.3,Win32,120.4819277,,,e,0,1.1484,0,8,8,38,1,轻率,i,,,,,,,,,,,,,,,,,,,,,,,,,,,,,,,,,,,,,,,,,,,,,,,,,,,,,
,,,,,,,,,,,,,,1,001,2025-01-02_11h30.18.310,IAT(Formal),2021.2.3,Win32,120.4819277,,,i,1,0.6563,0,9,9,28,1,鲁莽,i,,,,,,,,,,,,,,,,,,,,,,,,,,,,,,,,,,,,,,,,,,,,,,,,,,,,,
,,,,,,,,,,,,,,1,001,2025-01-02_11h30.18.310,IAT(Formal),2021.2.3,Win32,120.4819277,,,e,1,0.5397,0,10,10,8,1,勤奋,e,,,,,,,,,,,,,,,,,,,,,,,,,,,,,,,,,,,,,,,,,,,,,,,,,,,,,
,,,,,,,,,,,,,,1,001,2025-01-02_11h30.18.310,IAT(Formal),2021.2.3,Win32,120.4819277,,,i,1,0.6559,0,11,11,26,1,自卑,i,,,,,,,,,,,,,,,,,,,,,,,,,,,,,,,,,,,,,,,,,,,,,,,,,,,,,
,,,,,,,,,,,,,,1,001,2025-01-02_11h30.18.310,IAT(Formal),2021.2.3,Win32,120.4819277,,,i,1,0.6297,0,12,12,27,1,傲慢,i,,,,,,,,,,,,,,,,,,,,,,,,,,,,,,,,,,,,,,,,,,,,,,,,,,,,,
,,,,,,,,,,,,,,1,001,2025-01-02_11h30.18.310,IAT(Formal),2021.2.3,Win32,120.4819277,,,i,1,0.5739,0,13,13,23,1,刻薄,i,,,,,,,,,,,,,,,,,,,,,,,,,,,,,,,,,,,,,,,,,,,,,,,,,,,,,
,,,,,,,,,,,,,,1,001,2025-01-02_11h30.18.310,IAT(Formal),2021.2.3,Win32,120.4819277,,,i,1,0.4807,0,14,14,21,1,虚伪,i,,,,,,,,,,,,,,,,,,,,,,,,,,,,,,,,,,,,,,,,,,,,,,,,,,,,,
,,,,,,,,,,,,,,1,001,2025-01-02_11h30.18.310,IAT(Formal),2021.2.3,Win32,120.4819277,,,i,1,0.6103,0,15,15,25,1,消极,i,,,,,,,,,,,,,,,,,,,,,,,,,,,,,,,,,,,,,,,,,,,,,,,,,,,,,
,,,,,,,,,,,,,,1,001,2025-01-02_11h30.18.310,IAT(Formal),2021.2.3,Win32,120.4819277,,,e,1,0.527,0,16,16,7,1,勇敢,e,,,,,,,,,,,,,,,,,,,,,,,,,,,,,,,,,,,,,,,,,,,,,,,,,,,,,
,,,,,,,,,,,,,,1,001,2025-01-02_11h30.18.310,IAT(Formal),2021.2.3,Win32,120.4819277,,,i,1,0.4981,0,17,17,33,1,自私,i,,,,,,,,,,,,,,,,,,,,,,,,,,,,,,,,,,,,,,,,,,,,,,,,,,,,,
,,,,,,,,,,,,,,1,001,2025-01-02_11h30.18.310,IAT(Formal),2021.2.3,Win32,120.4819277,,,e,1,0.5282,0,18,18,10,1,认真,e,,,,,,,,,,,,,,,,,,,,,,,,,,,,,,,,,,,,,,,,,,,,,,,,,,,,,
,,,,,,,,,,,,,,1,001,2025-01-02_11h30.18.310,IAT(Formal),2021.2.3,Win32,120.4819277,,,e,1,0.6609,0,19,19,4,1,乐观,e,,,,,,,,,,,,,,,,,,,,,,,,,,,,,,,,,,,,,,,,,,,,,,,,,,,,,
,,,,,,,,,,,,,,1,001,2025-01-02_11h30.18.310,IAT(Formal),2021.2.3,Win32,120.4819277,,,e,1,0.5627,0,20,20,0,1,优秀,e,,,,,,,,,,,,,,,,,,,,,,,,,,,,,,,,,,,,,,,,,,,,,,,,,,,,,
,,,,,,,,,,,,,,1,001,2025-01-02_11h30.18.310,IAT(Formal),2021.2.3,Win32,120.4819277,,,e,1,0.3885,0,21,21,18,1,活泼,e,,,,,,,,,,,,,,,,,,,,,,,,,,,,,,,,,,,,,,,,,,,,,,,,,,,,,
,,,,,,,,,,,,,,1,001,2025-01-02_11h30.18.310,IAT(Formal),2021.2.3,Win32,120.4819277,,,e,1,0.5151,0,22,22,19,1,诚恳,e,,,,,,,,,,,,,,,,,,,,,,,,,,,,,,,,,,,,,,,,,,,,,,,,,,,,,
,,,,,,,,,,,,,,1,001,2025-01-02_11h30.18.310,IAT(Formal),2021.2.3,Win32,120.4819277,,,i,1,0.6187,0,23,23,36,1,野蛮,i,,,,,,,,,,,,,,,,,,,,,,,,,,,,,,,,,,,,,,,,,,,,,,,,,,,,,
,,,,,,,,,,,,,,1,001,2025-01-02_11h30.18.310,IAT(Formal),2021.2.3,Win32,120.4819277,,,i,1,0.4545,0,24,24,32,1,凶狠,i,,,,,,,,,,,,,,,,,,,,,,,,,,,,,,,,,,,,,,,,,,,,,,,,,,,,,
,,,,,,,,,,,,,,1,001,2025-01-02_11h30.18.310,IAT(Formal),2021.2.3,Win32,120.4819277,,,e,1,0.566,0,25,25,16,1,冷静,e,,,,,,,,,,,,,,,,,,,,,,,,,,,,,,,,,,,,,,,,,,,,,,,,,,,,,
,,,,,,,,,,,,,,1,001,2025-01-02_11h30.18.310,IAT(Formal),2021.2.3,Win32,120.4819277,,,i,1,0.9228,0,26,26,31,1,散漫,i,,,,,,,,,,,,,,,,,,,,,,,,,,,,,,,,,,,,,,,,,,,,,,,,,,,,,
,,,,,,,,,,,,,,1,001,2025-01-02_11h30.18.310,IAT(Formal),2021.2.3,Win32,120.4819277,,,i,1,0.5021,0,27,27,20,1,卑鄙,i,,,,,,,,,,,,,,,,,,,,,,,,,,,,,,,,,,,,,,,,,,,,,,,,,,,,,
,,,,,,,,,,,,,,1,001,2025-01-02_11h30.18.310,IAT(Formal),2021.2.3,Win32,120.4819277,,,i,1,0.4766,0,28,28,39,1,下贱,i,,,,,,,,,,,,,,,,,,,,,,,,,,,,,,,,,,,,,,,,,,,,,,,,,,,,,
,,,,,,,,,,,,,,1,001,2025-01-02_11h30.18.310,IAT(Formal),2021.2.3,Win32,120.4819277,,,i,1,0.9395,0,29,29,29,1,冒失,i,,,,,,,,,,,,,,,,,,,,,,,,,,,,,,,,,,,,,,,,,,,,,,,,,,,,,
,,,,,,,,,,,,,,1,001,2025-01-02_11h30.18.310,IAT(Formal),2021.2.3,Win32,120.4819277,,,e,1,0.6495,0,30,30,9,1,机智,e,,,,,,,,,,,,,,,,,,,,,,,,,,,,,,,,,,,,,,,,,,,,,,,,,,,,,
,,,,,,,,,,,,,,1,001,2025-01-02_11h30.18.310,IAT(Formal),2021.2.3,Win32,120.4819277,,,e,1,1.0623,0,31,31,5,1,诚实,e,,,,,,,,,,,,,,,,,,,,,,,,,,,,,,,,,,,,,,,,,,,,,,,,,,,,,
,,,,,,,,,,,,,,1,001,2025-01-02_11h30.18.310,IAT(Formal),2021.2.3,Win32,120.4819277,,,i,1,0.5072,0,32,32,22,1,愚蠢,i,,,,,,,,,,,,,,,,,,,,,,,,,,,,,,,,,,,,,,,,,,,,,,,,,,,,,
,,,,,,,,,,,,,,1,001,2025-01-02_11h30.18.310,IAT(Formal),2021.2.3,Win32,120.4819277,,,e,1,0.4073,0,33,33,13,1,公正,e,,,,,,,,,,,,,,,,,,,,,,,,,,,,,,,,,,,,,,,,,,,,,,,,,,,,,
,,,,,,,,,,,,,,1,001,2025-01-02_11h30.18.310,IAT(Formal),2021.2.3,Win32,120.4819277,,,e,1,0.3802,0,34,34,3,1,杰出,e,,,,,,,,,,,,,,,,,,,,,,,,,,,,,,,,,,,,,,,,,,,,,,,,,,,,,
,,,,,,,,,,,,,,1,001,2025-01-02_11h30.18.310,IAT(Formal),2021.2.3,Win32,120.4819277,,,e,1,0.475,0,35,35,15,1,细腻,e,,,,,,,,,,,,,,,,,,,,,,,,,,,,,,,,,,,,,,,,,,,,,,,,,,,,,
,,,,,,,,,,,,,,1,001,2025-01-02_11h30.18.310,IAT(Formal),2021.2.3,Win32,120.4819277,,,e,1,0.4555,0,36,36,17,1,热情,e,,,,,,,,,,,,,,,,,,,,,,,,,,,,,,,,,,,,,,,,,,,,,,,,,,,,,
,,,,,,,,,,,,,,1,001,2025-01-02_11h30.18.310,IAT(Formal),2021.2.3,Win32,120.4819277,,,i,1,0.5553,0,37,37,24,1,悲观,i,,,,,,,,,,,,,,,,,,,,,,,,,,,,,,,,,,,,,,,,,,,,,,,,,,,,,
,,,,,,,,,,,,,,1,001,2025-01-02_11h30.18.310,IAT(Formal),2021.2.3,Win32,120.4819277,,,e,1,0.6351,0,38,38,2,1,聪明,e,,,,,,,,,,,,,,,,,,,,,,,,,,,,,,,,,,,,,,,,,,,,,,,,,,,,,
,,,,,,,,,,,,,,1,001,2025-01-02_11h30.18.310,IAT(Formal),2021.2.3,Win32,120.4819277,,,i,1,1.0573,0,39,39,37,1,固执,i,,,,,,,,,,,,,,,,,,,,,,,,,,,,,,,,,,,,,,,,,,,,,,,,,,,,,
,,,,,,,,,,,,,,1,001,2025-01-02_11h30.18.310,IAT(Formal),2021.2.3,Win32,120.4819277,,,,,,,,,,,,,space,6.4897,i,1,0.8985,0,0,0,37,1,傲慢,i,,,,,,,,,,,,,,,,,,,,,,,,,,,,,,,,,,,,,,,,,
,,,,,,,,,,,,,,1,001,2025-01-02_11h30.18.310,IAT(Formal),2021.2.3,Win32,120.4819277,,,,,,,,,,,,,,,e,1,0.7093,0,1,1,24,1,朴实,e,,,,,,,,,,,,,,,,,,,,,,,,,,,,,,,,,,,,,,,,,
,,,,,,,,,,,,,,1,001,2025-01-02_11h30.18.310,IAT(Formal),2021.2.3,Win32,120.4819277,,,,,,,,,,,,,,,e,1,0.4741,0,2,2,21,1,稳重,e,,,,,,,,,,,,,,,,,,,,,,,,,,,,,,,,,,,,,,,,,
,,,,,,,,,,,,,,1,001,2025-01-02_11h30.18.310,IAT(Formal),2021.2.3,Win32,120.4819277,,,,,,,,,,,,,,,i,1,0.518,0,3,3,41,1,散漫,i,,,,,,,,,,,,,,,,,,,,,,,,,,,,,,,,,,,,,,,,,
,,,,,,,,,,,,,,1,001,2025-01-02_11h30.18.310,IAT(Formal),2021.2.3,Win32,120.4819277,,,,,,,,,,,,,,,i,1,0.6998,0,4,4,65,1,他,i,,,,,,,,,,,,,,,,,,,,,,,,,,,,,,,,,,,,,,,,,
,,,,,,,,,,,,,,1,001,2025-01-02_11h30.18.310,IAT(Formal),2021.2.3,Win32,120.4819277,,,,,,,,,,,,,,,e,1,0.6097,0,5,5,29,1,诚恳,e,,,,,,,,,,,,,,,,,,,,,,,,,,,,,,,,,,,,,,,,,
,,,,,,,,,,,,,,1,001,2025-01-02_11h30.18.310,IAT(Formal),2021.2.3,Win32,120.4819277,,,,,,,,,,,,,,,i,1,0.8383,0,6,6,9,1,其他,i,,,,,,,,,,,,,,,,,,,,,,,,,,,,,,,,,,,,,,,,,
,,,,,,,,,,,,,,1,001,2025-01-02_11h30.18.310,IAT(Formal),2021.2.3,Win32,120.4819277,,,,,,,,,,,,,,,e,1,0.5537,0,7,7,12,1,聪明,e,,,,,,,,,,,,,,,,,,,,,,,,,,,,,,,,,,,,,,,,,
,,,,,,,,,,,,,,1,001,2025-01-02_11h30.18.310,IAT(Formal),2021.2.3,Win32,120.4819277,,,,,,,,,,,,,,,e,1,0.5281,0,8,8,15,1,诚实,e,,,,,,,,,,,,,,,,,,,,,,,,,,,,,,,,,,,,,,,,,
,,,,,,,,,,,,,,1,001,2025-01-02_11h30.18.310,IAT(Formal),2021.2.3,Win32,120.4819277,,,,,,,,,,,,,,,i,1,0.8349,0,9,9,48,1,轻率,i,,,,,,,,,,,,,,,,,,,,,,,,,,,,,,,,,,,,,,,,,
,,,,,,,,,,,,,,1,001,2025-01-02_11h30.18.310,IAT(Formal),2021.2.3,Win32,120.4819277,,,,,,,,,,,,,,,e,1,0.469,0,10,10,20,1,认真,e,,,,,,,,,,,,,,,,,,,,,,,,,,,,,,,,,,,,,,,,,
,,,,,,,,,,,,,,1,001,2025-01-02_11h30.18.310,IAT(Formal),2021.2.3,Win32,120.4819277,,,,,,,,,,,,,,,e,1,0.4679,0,11,11,54,1,俺,e,,,,,,,,,,,,,,,,,,,,,,,,,,,,,,,,,,,,,,,,,
,,,,,,,,,,,,,,1,001,2025-01-02_11h30.18.310,IAT(Formal),2021.2.3,Win32,120.4819277,,,,,,,,,,,,,,,e,1,0.443,0,12,12,16,1,正直,e,,,,,,,,,,,,,,,,,,,,,,,,,,,,,,,,,,,,,,,,,
,,,,,,,,,,,,,,1,001,2025-01-02_11h30.18.310,IAT(Formal),2021.2.3,Win32,120.4819277,,,,,,,,,,,,,,,e,1,1.0489,0,13,13,13,1,杰出,e,,,,,,,,,,,,,,,,,,,,,,,,,,,,,,,,,,,,,,,,,
,,,,,,,,,,,,,,1,001,2025-01-02_11h30.18.310,IAT(Formal),2021.2.3,Win32,120.4819277,,,,,,,,,,,,,,,e,1,0.5327,0,14,14,50,1,我,e,,,,,,,,,,,,,,,,,,,,,,,,,,,,,,,,,,,,,,,,,
,,,,,,,,,,,,,,1,001,2025-01-02_11h30.18.310,IAT(Formal),2021.2.3,Win32,120.4819277,,,,,,,,,,,,,,,i,1,0.6516,0,15,15,67,1,他的,i,,,,,,,,,,,,,,,,,,,,,,,,,,,,,,,,,,,,,,,,,
,,,,,,,,,,,,,,1,001,2025-01-02_11h30.18.310,IAT(Formal),2021.2.3,Win32,120.4819277,,,,,,,,,,,,,,,i,1,0.6122,0,16,16,58,1,他人,i,,,,,,,,,,,,,,,,,,,,,,,,,,,,,,,,,,,,,,,,,
,,,,,,,,,,,,,,1,001,2025-01-02_11h30.18.310,IAT(Formal),2021.2.3,Win32,120.4819277,,,,,,,,,,,,,,,e,1,0.5418,0,17,17,17,1,勇敢,e,,,,,,,,,,,,,,,,,,,,,,,,,,,,,,,,,,,,,,,,,
,,,,,,,,,,,,,,1,001,2025-01-02_11h30.18.310,IAT(Formal),2021.2.3,Win32,120.4819277,,,,,,,,,,,,,,,e,0,0.5919,0,18,18,78,1,他人,i,,,,,,,,,,,,,,,,,,,,,,,,,,,,,,,,,,,,,,,,,
,,,,,,,,,,,,,,1,001,2025-01-02_11h30.18.310,IAT(Formal),2021.2.3,Win32,120.4819277,,,,,,,,,,,,,,,i,1,0.6011,0,19,19,40,1,执拗,i,,,,,,,,,,,,,,,,,,,,,,,,,,,,,,,,,,,,,,,,,
,,,,,,,,,,,,,,1,001,2025-01-02_11h30.18.310,IAT(Formal),2021.2.3,Win32,120.4819277,,,,,,,,,,,,,,,i,1,0.4673,0,20,20,39,1,冒失,i,,,,,,,,,,,,,,,,,,,,,,,,,,,,,,,,,,,,,,,,,
,,,,,,,,,,,,,,1,001,2025-01-02_11h30.18.310,IAT(Formal),2021.2.3,Win32,120.4819277,,,,,,,,,,,,,,,i,1,0.4924,0,21,21,59,1,其他,i,,,,,,,,,,,,,,,,,,,,,,,,,,,,,,,,,,,,,,,,,
,,,,,,,,,,,,,,1,001,2025-01-02_11h30.18.310,IAT(Formal),2021.2.3,Win32,120.4819277,,,,,,,,,,,,,,,e,1,0.5772,0,22,22,52,1,我们,e,,,,,,,,,,,,,,,,,,,,,,,,,,,,,,,,,,,,,,,,,
,,,,,,,,,,,,,,1,001,2025-01-02_11h30.18.310,IAT(Formal),2021.2.3,Win32,120.4819277,,,,,,,,,,,,,,,e,1,0.4361,0,23,23,1,1,我的,e,,,,,,,,,,,,,,,,,,,,,,,,,,,,,,,,,,,,,,,,,
,,,,,,,,,,,,,,1,001,2025-01-02_11h30.18.310,IAT(Formal),2021.2.3,Win32,120.4819277,,,,,,,,,,,,,,,i,0,0.5078,0,24,24,22,1,无私,e,,,,,,,,,,,,,,,,,,,,,,,,,,,,,,,,,,,,,,,,,
,,,,,,,,,,,,,,1,001,2025-01-02_11h30.18.310,IAT(Formal),2021.2.3,Win32,120.4819277,,,,,,,,,,,,,,,e,1,0.7375,0,25,25,72,1,我们,e,,,,,,,,,,,,,,,,,,,,,,,,,,,,,,,,,,,,,,,,,
,,,,,,,,,,,,,,1,001,2025-01-02_11h30.18.310,IAT(Formal),2021.2.3,Win32,120.4819277,,,,,,,,,,,,,,,i,1,0.6186,0,26,26,49,1,下贱,i,,,,,,,,,,,,,,,,,,,,,,,,,,,,,,,,,,,,,,,,,
,,,,,,,,,,,,,,1,001,2025-01-02_11h30.18.310,IAT(Formal),2021.2.3,Win32,120.4819277,,,,,,,,,,,,,,,e,1,0.4836,0,27,27,73,1,自己,e,,,,,,,,,,,,,,,,,,,,,,,,,,,,,,,,,,,,,,,,,
,,,,,,,,,,,,,,1,001,2025-01-02_11h30.18.310,IAT(Formal),2021.2.3,Win32,120.4819277,,,,,,,,,,,,,,,e,1,0.5669,0,28,28,64,1,俺,e,,,,,,,,,,,,,,,,,,,,,,,,,,,,,,,,,,,,,,,,,
,,,,,,,,,,,,,,1,001,2025-01-02_11h30.18.310,IAT(Formal),2021.2.3,Win32,120.4819277,,,,,,,,,,,,,,,e,1,0.3996,0,29,29,61,1,我的,e,,,,,,,,,,,,,,,,,,,,,,,,,,,,,,,,,,,,,,,,,
,,,,,,,,,,,,,,1,001,2025-01-02_11h30.18.310,IAT(Formal),2021.2.3,Win32,120.4819277,,,,,,,,,,,,,,,i,1,0.4626,0,30,30,31,1,虚伪,i,,,,,,,,,,,,,,,,,,,,,,,,,,,,,,,,,,,,,,,,,
,,,,,,,,,,,,,,1,001,2025-01-02_11h30.18.310,IAT(Formal),2021.2.3,Win32,120.4819277,,,,,,,,,,,,,,,i,1,0.5974,0,31,31,32,1,愚蠢,i,,,,,,,,,,,,,,,,,,,,,,,,,,,,,,,,,,,,,,,,,
,,,,,,,,,,,,,,1,001,2025-01-02_11h30.18.310,IAT(Formal),2021.2.3,Win32,120.4819277,,,,,,,,,,,,,,,e,1,0.6873,0,32,32,11,1,崇高,e,,,,,,,,,,,,,,,,,,,,,,,,,,,,,,,,,,,,,,,,,
,,,,,,,,,,,,,,1,001,2025-01-02_11h30.18.310,IAT(Formal),2021.2.3,Win32,120.4819277,,,,,,,,,,,,,,,i,1,0.5208,0,33,33,47,1,固执,i,,,,,,,,,,,,,,,,,,,,,,,,,,,,,,,,,,,,,,,,,
,,,,,,,,,,,,,,1,001,2025-01-02_11h30.18.310,IAT(Formal),2021.2.3,Win32,120.4819277,,,,,,,,,,,,,,,i,1,0.5924,0,34,34,34,1,悲观,i,,,,,,,,,,,,,,,,,,,,,,,,,,,,,,,,,,,,,,,,,
,,,,,,,,,,,,,,1,001,2025-01-02_11h30.18.310,IAT(Formal),2021.2.3,Win32,120.4819277,,,,,,,,,,,,,,,i,1,0.8087,0,35,35,79,1,其他,i,,,,,,,,,,,,,,,,,,,,,,,,,,,,,,,,,,,,,,,,,
,,,,,,,,,,,,,,1,001,2025-01-02_11h30.18.310,IAT(Formal),2021.2.3,Win32,120.4819277,,,,,,,,,,,,,,,e,1,0.4762,0,36,36,19,1,机智,e,,,,,,,,,,,,,,,,,,,,,,,,,,,,,,,,,,,,,,,,,
,,,,,,,,,,,,,,1,001,2025-01-02_11h30.18.310,IAT(Formal),2021.2.3,Win32,120.4819277,,,,,,,,,,,,,,,e,0,0.6043,0,37,37,76,1,他们,i,,,,,,,,,,,,,,,,,,,,,,,,,,,,,,,,,,,,,,,,,
,,,,,,,,,,,,,,1,001,2025-01-02_11h30.18.310,IAT(Formal),2021.2.3,Win32,120.4819277,,,,,,,,,,,,,,,i,1,0.5592,0,38,38,7,1,他的,i,,,,,,,,,,,,,,,,,,,,,,,,,,,,,,,,,,,,,,,,,
,,,,,,,,,,,,,,1,001,2025-01-02_11h30.18.310,IAT(Formal),2021.2.3,Win32,120.4819277,,,,,,,,,,,,,,,e,1,0.7262,0,39,39,26,1,冷静,e,,,,,,,,,,,,,,,,,,,,,,,,,,,,,,,,,,,,,,,,,
,,,,,,,,,,,,,,1,001,2025-01-02_11h30.18.310,IAT(Formal),2021.2.3,Win32,120.4819277,,,,,,,,,,,,,,,e,1,0.5176,0,40,40,53,1,自己,e,,,,,,,,,,,,,,,,,,,,,,,,,,,,,,,,,,,,,,,,,
,,,,,,,,,,,,,,1,001,2025-01-02_11h30.18.310,IAT(Formal),2021.2.3,Win32,120.4819277,,,,,,,,,,,,,,,i,1,0.4883,0,41,41,66,1,他们,i,,,,,,,,,,,,,,,,,,,,,,,,,,,,,,,,,,,,,,,,,
,,,,,,,,,,,,,,1,001,2025-01-02_11h30.18.310,IAT(Formal),2021.2.3,Win32,120.4819277,,,,,,,,,,,,,,,e,1,0.578,0,42,42,63,1,自己,e,,,,,,,,,,,,,,,,,,,,,,,,,,,,,,,,,,,,,,,,,
,,,,,,,,,,,,,,1,001,2025-01-02_11h30.18.310,IAT(Formal),2021.2.3,Win32,120.4819277,,,,,,,,,,,,,,,e,1,0.5721,0,43,43,51,1,我的,e,,,,,,,,,,,,,,,,,,,,,,,,,,,,,,,,,,,,,,,,,
,,,,,,,,,,,,,,1,001,2025-01-02_11h30.18.310,IAT(Formal),2021.2.3,Win32,120.4819277,,,,,,,,,,,,,,,i,1,0.6015,0,44,44,42,1,凶狠,i,,,,,,,,,,,,,,,,,,,,,,,,,,,,,,,,,,,,,,,,,
,,,,,,,,,,,,,,1,001,2025-01-02_11h30.18.310,IAT(Formal),2021.2.3,Win32,120.4819277,,,,,,,,,,,,,,,e,1,0.729,0,45,45,62,1,我们,e,,,,,,,,,,,,,,,,,,,,,,,,,,,,,,,,,,,,,,,,,
,,,,,,,,,,,,,,1,001,2025-01-02_11h30.18.310,IAT(Formal),2021.2.3,Win32,120.4819277,,,,,,,,,,,,,,,e,0,0.5364,0,46,46,77,1,他的,i,,,,,,,,,,,,,,,,,,,,,,,,,,,,,,,,,,,,,,,,,
,,,,,,,,,,,,,,1,001,2025-01-02_11h30.18.310,IAT(Formal),2021.2.3,Win32,120.4819277,,,,,,,,,,,,,,,e,1,0.446,0,47,47,27,1,热情,e,,,,,,,,,,,,,,,,,,,,,,,,,,,,,,,,,,,,,,,,,
,,,,,,,,,,,,,,1,001,2025-01-02_11h30.18.310,IAT(Formal),2021.2.3,Win32,120.4819277,,,,,,,,,,,,,,,i,1,0.5674,0,48,48,30,1,卑鄙,i,,,,,,,,,,,,,,,,,,,,,,,,,,,,,,,,,,,,,,,,,
,,,,,,,,,,,,,,1,001,2025-01-02_11h30.18.310,IAT(Formal),2021.2.3,Win32,120.4819277,,,,,,,,,,,,,,,e,1,0.5123,0,49,49,10,1,优秀,e,,,,,,,,,,,,,,,,,,,,,,,,,,,,,,,,,,,,,,,,,
,,,,,,,,,,,,,,1,001,2025-01-02_11h30.18.310,IAT(Formal),2021.2.3,Win32,120.4819277,,,,,,,,,,,,,,,e,1,0.5595,0,50,50,28,1,活泼,e,,,,,,,,,,,,,,,,,,,,,,,,,,,,,,,,,,,,,,,,,
,,,,,,,,,,,,,,1,001,2025-01-02_11h30.18.310,IAT(Formal),2021.2.3,Win32,120.4819277,,,,,,,,,,,,,,,i,1,0.4964,0,51,51,38,1,鲁莽,i,,,,,,,,,,,,,,,,,,,,,,,,,,,,,,,,,,,,,,,,,
,,,,,,,,,,,,,,1,001,2025-01-02_11h30.18.310,IAT(Formal),2021.2.3,Win32,120.4819277,,,,,,,,,,,,,,,i,1,0.5588,0,52,52,5,1,他,i,,,,,,,,,,,,,,,,,,,,,,,,,,,,,,,,,,,,,,,,,
,,,,,,,,,,,,,,1,001,2025-01-02_11h30.18.310,IAT(Formal),2021.2.3,Win32,120.4819277,,,,,,,,,,,,,,,e,1,0.584,0,53,53,3,1,自己,e,,,,,,,,,,,,,,,,,,,,,,,,,,,,,,,,,,,,,,,,,
,,,,,,,,,,,,,,1,001,2025-01-02_11h30.18.310,IAT(Formal),2021.2.3,Win32,120.4819277,,,,,,,,,,,,,,,e,1,0.5696,0,54,54,71,1,我的,e,,,,,,,,,,,,,,,,,,,,,,,,,,,,,,,,,,,,,,,,,
,,,,,,,,,,,,,,1,001,2025-01-02_11h30.18.310,IAT(Formal),2021.2.3,Win32,120.4819277,,,,,,,,,,,,,,,i,1,0.5005,0,55,55,33,1,刻薄,i,,,,,,,,,,,,,,,,,,,,,,,,,,,,,,,,,,,,,,,,,
,,,,,,,,,,,,,,1,001,2025-01-02_11h30.18.310,IAT(Formal),2021.2.3,Win32,120.4819277,,,,,,,,,,,,,,,i,1,0.492,0,56,56,46,1,野蛮,i,,,,,,,,,,,,,,,,,,,,,,,,,,,,,,,,,,,,,,,,,
,,,,,,,,,,,,,,1,001,2025-01-02_11h30.18.310,IAT(Formal),2021.2.3,Win32,120.4819277,,,,,,,,,,,,,,,i,1,0.6834,0,57,57,57,1,他的,i,,,,,,,,,,,,,,,,,,,,,,,,,,,,,,,,,,,,,,,,,
,,,,,,,,,,,,,,1,001,2025-01-02_11h30.18.310,IAT(Formal),2021.2.3,Win32,120.4819277,,,,,,,,,,,,,,,e,0,0.5669,0,58,58,44,1,暴躁,i,,,,,,,,,,,,,,,,,,,,,,,,,,,,,,,,,,,,,,,,,
,,,,,,,,,,,,,,1,001,2025-01-02_11h30.18.310,IAT(Formal),2021.2.3,Win32,120.4819277,,,,,,,,,,,,,,,e,1,0.5183,0,59,59,60,1,我,e,,,,,,,,,,,,,,,,,,,,,,,,,,,,,,,,,,,,,,,,,
,,,,,,,,,,,,,,1,001,2025-01-02_11h30.18.310,IAT(Formal),2021.2.3,Win32,120.4819277,,,,,,,,,,,,,,,i,1,0.4933,0,60,60,75,1,他,i,,,,,,,,,,,,,,,,,,,,,,,,,,,,,,,,,,,,,,,,,
,,,,,,,,,,,,,,1,001,2025-01-02_11h30.18.310,IAT(Formal),2021.2.3,Win32,120.4819277,,,,,,,,,,,,,,,i,1,0.8432,0,61,61,36,1,自卑,i,,,,,,,,,,,,,,,,,,,,,,,,,,,,,,,,,,,,,,,,,
,,,,,,,,,,,,,,1,001,2025-01-02_11h30.18.310,IAT(Formal),2021.2.3,Win32,120.4819277,,,,,,,,,,,,,,,e,1,0.5848,0,62,62,2,1,我们,e,,,,,,,,,,,,,,,,,,,,,,,,,,,,,,,,,,,,,,,,,
,,,,,,,,,,,,,,1,001,2025-01-02_11h30.18.310,IAT(Formal),2021.2.3,Win32,120.4819277,,,,,,,,,,,,,,,i,1,0.5051,0,63,63,69,1,其他,i,,,,,,,,,,,,,,,,,,,,,,,,,,,,,,,,,,,,,,,,,
,,,,,,,,,,,,,,1,001,2025-01-02_11h30.18.310,IAT(Formal),2021.2.3,Win32,120.4819277,,,,,,,,,,,,,,,i,1,0.4136,0,64,64,8,1,他人,i,,,,,,,,,,,,,,,,,,,,,,,,,,,,,,,,,,,,,,,,,
,,,,,,,,,,,,,,1,001,2025-01-02_11h30.18.310,IAT(Formal),2021.2.3,Win32,120.4819277,,,,,,,,,,,,,,,i,1,0.8931,0,65,65,55,1,他,i,,,,,,,,,,,,,,,,,,,,,,,,,,,,,,,,,,,,,,,,,
,,,,,,,,,,,,,,1,001,2025-01-02_11h30.18.310,IAT(Formal),2021.2.3,Win32,120.4819277,,,,,,,,,,,,,,,i,1,0.5166,0,66,66,43,1,自私,i,,,,,,,,,,,,,,,,,,,,,,,,,,,,,,,,,,,,,,,,,
,,,,,,,,,,,,,,1,001,2025-01-02_11h30.18.310,IAT(Formal),2021.2.3,Win32,120.4819277,,,,,,,,,,,,,,,e,1,0.534,0,67,67,0,1,我,e,,,,,,,,,,,,,,,,,,,,,,,,,,,,,,,,,,,,,,,,,
,,,,,,,,,,,,,,1,001,2025-01-02_11h30.18.310,IAT(Formal),2021.2.3,Win32,120.4819277,,,,,,,,,,,,,,,i,1,0.58,0,68,68,35,1,消极,i,,,,,,,,,,,,,,,,,,,,,,,,,,,,,,,,,,,,,,,,,
,,,,,,,,,,,,,,1,001,2025-01-02_11h30.18.310,IAT(Formal),2021.2.3,Win32,120.4819277,,,,,,,,,,,,,,,i,1,0.9928,0,69,69,68,1,他人,i,,,,,,,,,,,,,,,,,,,,,,,,,,,,,,,,,,,,,,,,,
,,,,,,,,,,,,,,1,001,2025-01-02_11h30.18.310,IAT(Formal),2021.2.3,Win32,120.4819277,,,,,,,,,,,,,,,e,1,0.5614,0,70,70,4,1,俺,e,,,,,,,,,,,,,,,,,,,,,,,,,,,,,,,,,,,,,,,,,
,,,,,,,,,,,,,,1,001,2025-01-02_11h30.18.310,IAT(Formal),2021.2.3,Win32,120.4819277,,,,,,,,,,,,,,,e,1,0.5772,0,71,71,25,1,细腻,e,,,,,,,,,,,,,,,,,,,,,,,,,,,,,,,,,,,,,,,,,
,,,,,,,,,,,,,,1,001,2025-01-02_11h30.18.310,IAT(Formal),2021.2.3,Win32,120.4819277,,,,,,,,,,,,,,,e,1,0.4944,0,72,72,70,1,我,e,,,,,,,,,,,,,,,,,,,,,,,,,,,,,,,,,,,,,,,,,
,,,,,,,,,,,,,,1,001,2025-01-02_11h30.18.310,IAT(Formal),2021.2.3,Win32,120.4819277,,,,,,,,,,,,,,,i,1,0.5095,0,73,73,45,1,猖狂,i,,,,,,,,,,,,,,,,,,,,,,,,,,,,,,,,,,,,,,,,,
,,,,,,,,,,,,,,1,001,2025-01-02_11h30.18.310,IAT(Formal),2021.2.3,Win32,120.4819277,,,,,,,,,,,,,,,e,1,0.5281,0,74,74,74,1,俺,e,,,,,,,,,,,,,,,,,,,,,,,,,,,,,,,,,,,,,,,,,
,,,,,,,,,,,,,,1,001,2025-01-02_11h30.18.310,IAT(Formal),2021.2.3,Win32,120.4819277,,,,,,,,,,,,,,,e,1,1.1093,0,75,75,14,1,乐观,e,,,,,,,,,,,,,,,,,,,,,,,,,,,,,,,,,,,,,,,,,
,,,,,,,,,,,,,,1,001,2025-01-02_11h30.18.310,IAT(Formal),2021.2.3,Win32,120.4819277,,,,,,,,,,,,,,,i,1,0.5087,0,76,76,56,1,他们,i,,,,,,,,,,,,,,,,,,,,,,,,,,,,,,,,,,,,,,,,,
,,,,,,,,,,,,,,1,001,2025-01-02_11h30.18.310,IAT(Formal),2021.2.3,Win32,120.4819277,,,,,,,,,,,,,,,i,1,0.5034,0,77,77,6,1,他们,i,,,,,,,,,,,,,,,,,,,,,,,,,,,,,,,,,,,,,,,,,
,,,,,,,,,,,,,,1,001,2025-01-02_11h30.18.310,IAT(Formal),2021.2.3,Win32,120.4819277,,,,,,,,,,,,,,,e,1,0.5097,0,78,78,23,1,公正,e,,,,,,,,,,,,,,,,,,,,,,,,,,,,,,,,,,,,,,,,,
,,,,,,,,,,,,,,1,001,2025-01-02_11h30.18.310,IAT(Formal),2021.2.3,Win32,120.4819277,,,,,,,,,,,,,,,e,1,0.6285,0,79,79,18,1,勤奋,e,,,,,,,,,,,,,,,,,,,,,,,,,,,,,,,,,,,,,,,,,
,,,,,,,,,,,,,,1,001,2025-01-02_11h30.18.310,IAT(Formal),2021.2.3,Win32,120.4819277,,,,,,,,,,,,,,,e,1,0.6657,,,,,,优秀,e,space,8.9343,0,0,0,10,1,,,,,,,,,,,,,,,,,,,,,,,,,,,,,,,,,,
,,,,,,,,,,,,,,1,001,2025-01-02_11h30.18.310,IAT(Formal),2021.2.3,Win32,120.4819277,,,,,,,,,,,,,,,i,1,1.0169,,,,,,其他,i,,,0,1,1,9,1,,,,,,,,,,,,,,,,,,,,,,,,,,,,,,,,,,
,,,,,,,,,,,,,,1,001,2025-01-02_11h30.18.310,IAT(Formal),2021.2.3,Win32,120.4819277,,,,,,,,,,,,,,,e,1,0.4177,,,,,,我们,e,,,0,2,2,2,1,,,,,,,,,,,,,,,,,,,,,,,,,,,,,,,,,,
,,,,,,,,,,,,,,1,001,2025-01-02_11h30.18.310,IAT(Formal),2021.2.3,Win32,120.4819277,,,,,,,,,,,,,,,e,1,0.5351,,,,,,活泼,e,,,0,3,3,28,1,,,,,,,,,,,,,,,,,,,,,,,,,,,,,,,,,,
,,,,,,,,,,,,,,1,001,2025-01-02_11h30.18.310,IAT(Formal),2021.2.3,Win32,120.4819277,,,,,,,,,,,,,,,i,1,0.5929,,,,,,散漫,i,,,0,4,4,41,1,,,,,,,,,,,,,,,,,,,,,,,,,,,,,,,,,,
,,,,,,,,,,,,,,1,001,2025-01-02_11h30.18.310,IAT(Formal),2021.2.3,Win32,120.4819277,,,,,,,,,,,,,,,i,1,0.6268,,,,,,他,i,,,0,5,5,75,1,,,,,,,,,,,,,,,,,,,,,,,,,,,,,,,,,,
,,,,,,,,,,,,,,1,001,2025-01-02_11h30.18.310,IAT(Formal),2021.2.3,Win32,120.4819277,,,,,,,,,,,,,,,i,1,0.4848,,,,,,他们,i,,,0,6,6,66,1,,,,,,,,,,,,,,,,,,,,,,,,,,,,,,,,,,
,,,,,,,,,,,,,,1,001,2025-01-02_11h30.18.310,IAT(Formal),2021.2.3,Win32,120.4819277,,,,,,,,,,,,,,,e,1,0.6781,,,,,,自己,e,,,0,7,7,63,1,,,,,,,,,,,,,,,,,,,,,,,,,,,,,,,,,,
,,,,,,,,,,,,,,1,001,2025-01-02_11h30.18.310,IAT(Formal),2021.2.3,Win32,120.4819277,,,,,,,,,,,,,,,e,1,0.5178,,,,,,俺,e,,,0,8,8,74,1,,,,,,,,,,,,,,,,,,,,,,,,,,,,,,,,,,
,,,,,,,,,,,,,,1,001,2025-01-02_11h30.18.310,IAT(Formal),2021.2.3,Win32,120.4819277,,,,,,,,,,,,,,,e,1,0.6301,,,,,,认真,e,,,0,9,9,20,1,,,,,,,,,,,,,,,,,,,,,,,,,,,,,,,,,,
,,,,,,,,,,,,,,1,001,2025-01-02_11h30.18.310,IAT(Formal),2021.2.3,Win32,120.4819277,,,,,,,,,,,,,,,i,1,0.7334,,,,,,猖狂,i,,,0,10,10,45,1,,,,,,,,,,,,,,,,,,,,,,,,,,,,,,,,,,
,,,,,,,,,,,,,,1,001,2025-01-02_11h30.18.310,IAT(Formal),2021.2.3,Win32,120.4819277,,,,,,,,,,,,,,,e,1,0.5514,,,,,,我的,e,,,0,11,11,51,1,,,,,,,,,,,,,,,,,,,,,,,,,,,,,,,,,,
,,,,,,,,,,,,,,1,001,2025-01-02_11h30.18.310,IAT(Formal),2021.2.3,Win32,120.4819277,,,,,,,,,,,,,,,i,1,0.539,,,,,,他人,i,,,0,12,12,58,1,,,,,,,,,,,,,,,,,,,,,,,,,,,,,,,,,,
,,,,,,,,,,,,,,1,001,2025-01-02_11h30.18.310,IAT(Formal),2021.2.3,Win32,120.4819277,,,,,,,,,,,,,,,e,1,0.6298,,,,,,细腻,e,,,0,13,13,25,1,,,,,,,,,,,,,,,,,,,,,,,,,,,,,,,,,,
,,,,,,,,,,,,,,1,001,2025-01-02_11h30.18.310,IAT(Formal),2021.2.3,Win32,120.4819277,,,,,,,,,,,,,,,i,1,0.7642,,,,,,虚伪,i,,,0,14,14,31,1,,,,,,,,,,,,,,,,,,,,,,,,,,,,,,,,,,
,,,,,,,,,,,,,,1,001,2025-01-02_11h30.18.310,IAT(Formal),2021.2.3,Win32,120.4819277,,,,,,,,,,,,,,,e,1,0.5286,,,,,,冷静,e,,,0,15,15,26,1,,,,,,,,,,,,,,,,,,,,,,,,,,,,,,,,,,
,,,,,,,,,,,,,,1,001,2025-01-02_11h30.18.310,IAT(Formal),2021.2.3,Win32,120.4819277,,,,,,,,,,,,,,,i,1,0.8469,,,,,,执拗,i,,,0,16,16,40,1,,,,,,,,,,,,,,,,,,,,,,,,,,,,,,,,,,
,,,,,,,,,,,,,,1,001,2025-01-02_11h30.18.310,IAT(Formal),2021.2.3,Win32,120.4819277,,,,,,,,,,,,,,,i,1,0.5928,,,,,,固执,i,,,0,17,17,47,1,,,,,,,,,,,,,,,,,,,,,,,,,,,,,,,,,,
,,,,,,,,,,,,,,1,001,2025-01-02_11h30.18.310,IAT(Formal),2021.2.3,Win32,120.4819277,,,,,,,,,,,,,,,e,0,0.6647,,,,,,他的,i,,,0,18,18,67,1,,,,,,,,,,,,,,,,,,,,,,,,,,,,,,,,,,
,,,,,,,,,,,,,,1,001,2025-01-02_11h30.18.310,IAT(Formal),2021.2.3,Win32,120.4819277,,,,,,,,,,,,,,,e,1,0.576,,,,,,正直,e,,,0,19,19,16,1,,,,,,,,,,,,,,,,,,,,,,,,,,,,,,,,,,
,,,,,,,,,,,,,,1,001,2025-01-02_11h30.18.310,IAT(Formal),2021.2.3,Win32,120.4819277,,,,,,,,,,,,,,,e,1,0.6093,,,,,,我的,e,,,0,20,20,71,1,,,,,,,,,,,,,,,,,,,,,,,,,,,,,,,,,,
,,,,,,,,,,,,,,1,001,2025-01-02_11h30.18.310,IAT(Formal),2021.2.3,Win32,120.4819277,,,,,,,,,,,,,,,i,1,0.8279,,,,,,悲观,i,,,0,21,21,34,1,,,,,,,,,,,,,,,,,,,,,,,,,,,,,,,,,,
,,,,,,,,,,,,,,1,001,2025-01-02_11h30.18.310,IAT(Formal),2021.2.3,Win32,120.4819277,,,,,,,,,,,,,,,i,1,0.716,,,,,,愚蠢,i,,,0,22,22,32,1,,,,,,,,,,,,,,,,,,,,,,,,,,,,,,,,,,
,,,,,,,,,,,,,,1,001,2025-01-02_11h30.18.310,IAT(Formal),2021.2.3,Win32,120.4819277,,,,,,,,,,,,,,,e,1,0.7017,,,,,,朴实,e,,,0,23,23,24,1,,,,,,,,,,,,,,,,,,,,,,,,,,,,,,,,,,
,,,,,,,,,,,,,,1,001,2025-01-02_11h30.18.310,IAT(Formal),2021.2.3,Win32,120.4819277,,,,,,,,,,,,,,,e,1,0.3691,,,,,,我们,e,,,0,24,24,72,1,,,,,,,,,,,,,,,,,,,,,,,,,,,,,,,,,,
,,,,,,,,,,,,,,1,001,2025-01-02_11h30.18.310,IAT(Formal),2021.2.3,Win32,120.4819277,,,,,,,,,,,,,,,i,1,0.4856,,,,,,他人,i,,,0,25,25,78,1,,,,,,,,,,,,,,,,,,,,,,,,,,,,,,,,,,
,,,,,,,,,,,,,,1,001,2025-01-02_11h30.18.310,IAT(Formal),2021.2.3,Win32,120.4819277,,,,,,,,,,,,,,,i,1,0.4748,,,,,,消极,i,,,0,26,26,35,1,,,,,,,,,,,,,,,,,,,,,,,,,,,,,,,,,,
,,,,,,,,,,,,,,1,001,2025-01-02_11h30.18.310,IAT(Formal),2021.2.3,Win32,120.4819277,,,,,,,,,,,,,,,i,1,0.6284,,,,,,自私,i,,,0,27,27,43,1,,,,,,,,,,,,,,,,,,,,,,,,,,,,,,,,,,
,,,,,,,,,,,,,,1,001,2025-01-02_11h30.18.310,IAT(Formal),2021.2.3,Win32,120.4819277,,,,,,,,,,,,,,,i,1,0.5851,,,,,,他的,i,,,0,28,28,7,1,,,,,,,,,,,,,,,,,,,,,,,,,,,,,,,,,,
,,,,,,,,,,,,,,1,001,2025-01-02_11h30.18.310,IAT(Formal),2021.2.3,Win32,120.4819277,,,,,,,,,,,,,,,e,1,0.6456,,,,,,诚恳,e,,,0,29,29,29,1,,,,,,,,,,,,,,,,,,,,,,,,,,,,,,,,,,
,,,,,,,,,,,,,,1,001,2025-01-02_11h30.18.310,IAT(Formal),2021.2.3,Win32,120.4819277,,,,,,,,,,,,,,,e,1,0.518,,,,,,我,e,,,0,30,30,50,1,,,,,,,,,,,,,,,,,,,,,,,,,,,,,,,,,,
,,,,,,,,,,,,,,1,001,2025-01-02_11h30.18.310,IAT(Formal),2021.2.3,Win32,120.4819277,,,,,,,,,,,,,,,i,1,0.5758,,,,,,其他,i,,,0,31,31,79,1,,,,,,,,,,,,,,,,,,,,,,,,,,,,,,,,,,
,,,,,,,,,,,,,,1,001,2025-01-02_11h30.18.310,IAT(Formal),2021.2.3,Win32,120.4819277,,,,,,,,,,,,,,,i,1,0.8332,,,,,,他的,i,,,0,32,32,77,1,,,,,,,,,,,,,,,,,,,,,,,,,,,,,,,,,,
,,,,,,,,,,,,,,1,001,2025-01-02_11h30.18.310,IAT(Formal),2021.2.3,Win32,120.4819277,,,,,,,,,,,,,,,i,1,0.5089,,,,,,下贱,i,,,0,33,33,49,1,,,,,,,,,,,,,,,,,,,,,,,,,,,,,,,,,,
,,,,,,,,,,,,,,1,001,2025-01-02_11h30.18.310,IAT(Formal),2021.2.3,Win32,120.4819277,,,,,,,,,,,,,,,e,1,0.5436,,,,,,俺,e,,,0,34,34,4,1,,,,,,,,,,,,,,,,,,,,,,,,,,,,,,,,,,
,,,,,,,,,,,,,,1,001,2025-01-02_11h30.18.310,IAT(Formal),2021.2.3,Win32,120.4819277,,,,,,,,,,,,,,,e,1,0.4506,,,,,,我的,e,,,0,35,35,1,1,,,,,,,,,,,,,,,,,,,,,,,,,,,,,,,,,,
,,,,,,,,,,,,,,1,001,2025-01-02_11h30.18.310,IAT(Formal),2021.2.3,Win32,120.4819277,,,,,,,,,,,,,,,e,0,0.4519,,,,,,他的,i,,,0,36,36,57,1,,,,,,,,,,,,,,,,,,,,,,,,,,,,,,,,,,
,,,,,,,,,,,,,,1,001,2025-01-02_11h30.18.310,IAT(Formal),2021.2.3,Win32,120.4819277,,,,,,,,,,,,,,,e,1,0.723,,,,,,我,e,,,0,37,37,0,1,,,,,,,,,,,,,,,,,,,,,,,,,,,,,,,,,,
,,,,,,,,,,,,,,1,001,2025-01-02_11h30.18.310,IAT(Formal),2021.2.3,Win32,120.4819277,,,,,,,,,,,,,,,e,1,0.3362,,,,,,我,e,,,0,38,38,70,1,,,,,,,,,,,,,,,,,,,,,,,,,,,,,,,,,,
,,,,,,,,,,,,,,1,001,2025-01-02_11h30.18.310,IAT(Formal),2021.2.3,Win32,120.4819277,,,,,,,,,,,,,,,e,1,0.5747,,,,,,诚实,e,,,0,39,39,15,1,,,,,,,,,,,,,,,,,,,,,,,,,,,,,,,,,,
,,,,,,,,,,,,,,1,001,2025-01-02_11h30.18.310,IAT(Formal),2021.2.3,Win32,120.4819277,,,,,,,,,,,,,,,i,1,0.4679,,,,,,他,i,,,0,40,40,55,1,,,,,,,,,,,,,,,,,,,,,,,,,,,,,,,,,,
,,,,,,,,,,,,,,1,001,2025-01-02_11h30.18.310,IAT(Formal),2021.2.3,Win32,120.4819277,,,,,,,,,,,,,,,i,1,0.6099,,,,,,他人,i,,,0,41,41,68,1,,,,,,,,,,,,,,,,,,,,,,,,,,,,,,,,,,
,,,,,,,,,,,,,,1,001,2025-01-02_11h30.18.310,IAT(Formal),2021.2.3,Win32,120.4819277,,,,,,,,,,,,,,,i,1,0.4681,,,,,,他,i,,,0,42,42,5,1,,,,,,,,,,,,,,,,,,,,,,,,,,,,,,,,,,
,,,,,,,,,,,,,,1,001,2025-01-02_11h30.18.310,IAT(Formal),2021.2.3,Win32,120.4819277,,,,,,,,,,,,,,,i,0,0.4411,,,,,,俺,e,,,0,43,43,64,1,,,,,,,,,,,,,,,,,,,,,,,,,,,,,,,,,,
,,,,,,,,,,,,,,1,001,2025-01-02_11h30.18.310,IAT(Formal),2021.2.3,Win32,120.4819277,,,,,,,,,,,,,,,i,1,1.0224,,,,,,傲慢,i,,,0,44,44,37,1,,,,,,,,,,,,,,,,,,,,,,,,,,,,,,,,,,
,,,,,,,,,,,,,,1,001,2025-01-02_11h30.18.310,IAT(Formal),2021.2.3,Win32,120.4819277,,,,,,,,,,,,,,,i,1,0.6651,,,,,,冒失,i,,,0,45,45,39,1,,,,,,,,,,,,,,,,,,,,,,,,,,,,,,,,,,
,,,,,,,,,,,,,,1,001,2025-01-02_11h30.18.310,IAT(Formal),2021.2.3,Win32,120.4819277,,,,,,,,,,,,,,,i,1,0.5241,,,,,,自卑,i,,,0,46,46,36,1,,,,,,,,,,,,,,,,,,,,,,,,,,,,,,,,,,
,,,,,,,,,,,,,,1,001,2025-01-02_11h30.18.310,IAT(Formal),2021.2.3,Win32,120.4819277,,,,,,,,,,,,,,,e,1,0.5502,,,,,,聪明,e,,,0,47,47,12,1,,,,,,,,,,,,,,,,,,,,,,,,,,,,,,,,,,
,,,,,,,,,,,,,,1,001,2025-01-02_11h30.18.310,IAT(Formal),2021.2.3,Win32,120.4819277,,,,,,,,,,,,,,,i,1,0.7917,,,,,,他们,i,,,0,48,48,56,1,,,,,,,,,,,,,,,,,,,,,,,,,,,,,,,,,,
,,,,,,,,,,,,,,1,001,2025-01-02_11h30.18.310,IAT(Formal),2021.2.3,Win32,120.4819277,,,,,,,,,,,,,,,i,1,0.5819,,,,,,卑鄙,i,,,0,49,49,30,1,,,,,,,,,,,,,,,,,,,,,,,,,,,,,,,,,,
,,,,,,,,,,,,,,1,001,2025-01-02_11h30.18.310,IAT(Formal),2021.2.3,Win32,120.4819277,,,,,,,,,,,,,,,i,1,0.7335,,,,,,其他,i,,,0,50,50,59,1,,,,,,,,,,,,,,,,,,,,,,,,,,,,,,,,,,
,,,,,,,,,,,,,,1,001,2025-01-02_11h30.18.310,IAT(Formal),2021.2.3,Win32,120.4819277,,,,,,,,,,,,,,,e,1,0.7164,,,,,,无私,e,,,0,51,51,22,1,,,,,,,,,,,,,,,,,,,,,,,,,,,,,,,,,,
,,,,,,,,,,,,,,1,001,2025-01-02_11h30.18.310,IAT(Formal),2021.2.3,Win32,120.4819277,,,,,,,,,,,,,,,e,1,0.4634,,,,,,自己,e,,,0,52,52,3,1,,,,,,,,,,,,,,,,,,,,,,,,,,,,,,,,,,
,,,,,,,,,,,,,,1,001,2025-01-02_11h30.18.310,IAT(Formal),2021.2.3,Win32,120.4819277,,,,,,,,,,,,,,,e,1,0.5651,,,,,,公正,e,,,0,53,53,23,1,,,,,,,,,,,,,,,,,,,,,,,,,,,,,,,,,,
,,,,,,,,,,,,,,1,001,2025-01-02_11h30.18.310,IAT(Formal),2021.2.3,Win32,120.4819277,,,,,,,,,,,,,,,e,1,0.4977,,,,,,崇高,e,,,0,54,54,11,1,,,,,,,,,,,,,,,,,,,,,,,,,,,,,,,,,,
,,,,,,,,,,,,,,1,001,2025-01-02_11h30.18.310,IAT(Formal),2021.2.3,Win32,120.4819277,,,,,,,,,,,,,,,i,1,0.4799,,,,,,他们,i,,,0,55,55,76,1,,,,,,,,,,,,,,,,,,,,,,,,,,,,,,,,,,
,,,,,,,,,,,,,,1,001,2025-01-02_11h30.18.310,IAT(Formal),2021.2.3,Win32,120.4819277,,,,,,,,,,,,,,,e,1,0.4992,,,,,,我们,e,,,0,56,56,52,1,,,,,,,,,,,,,,,,,,,,,,,,,,,,,,,,,,
,,,,,,,,,,,,,,1,001,2025-01-02_11h30.18.310,IAT(Formal),2021.2.3,Win32,120.4819277,,,,,,,,,,,,,,,e,1,0.4418,,,,,,我,e,,,0,57,57,60,1,,,,,,,,,,,,,,,,,,,,,,,,,,,,,,,,,,
,,,,,,,,,,,,,,1,001,2025-01-02_11h30.18.310,IAT(Formal),2021.2.3,Win32,120.4819277,,,,,,,,,,,,,,,i,1,0.4995,,,,,,他们,i,,,0,58,58,6,1,,,,,,,,,,,,,,,,,,,,,,,,,,,,,,,,,,
,,,,,,,,,,,,,,1,001,2025-01-02_11h30.18.310,IAT(Formal),2021.2.3,Win32,120.4819277,,,,,,,,,,,,,,,e,1,0.4962,,,,,,稳重,e,,,0,59,59,21,1,,,,,,,,,,,,,,,,,,,,,,,,,,,,,,,,,,
,,,,,,,,,,,,,,1,001,2025-01-02_11h30.18.310,IAT(Formal),2021.2.3,Win32,120.4819277,,,,,,,,,,,,,,,e,1,0.5321,,,,,,自己,e,,,0,60,60,73,1,,,,,,,,,,,,,,,,,,,,,,,,,,,,,,,,,,
,,,,,,,,,,,,,,1,001,2025-01-02_11h30.18.310,IAT(Formal),2021.2.3,Win32,120.4819277,,,,,,,,,,,,,,,e,1,0.4912,,,,,,热情,e,,,0,61,61,27,1,,,,,,,,,,,,,,,,,,,,,,,,,,,,,,,,,,
,,,,,,,,,,,,,,1,001,2025-01-02_11h30.18.310,IAT(Formal),2021.2.3,Win32,120.4819277,,,,,,,,,,,,,,,i,1,0.522,,,,,,刻薄,i,,,0,62,62,33,1,,,,,,,,,,,,,,,,,,,,,,,,,,,,,,,,,,
,,,,,,,,,,,,,,1,001,2025-01-02_11h30.18.310,IAT(Formal),2021.2.3,Win32,120.4819277,,,,,,,,,,,,,,,i,1,1.1561,,,,,,其他,i,,,0,63,63,69,1,,,,,,,,,,,,,,,,,,,,,,,,,,,,,,,,,,
,,,,,,,,,,,,,,1,001,2025-01-02_11h30.18.310,IAT(Formal),2021.2.3,Win32,120.4819277,,,,,,,,,,,,,,,i,1,0.6234,,,,,,轻率,i,,,0,64,64,48,1,,,,,,,,,,,,,,,,,,,,,,,,,,,,,,,,,,
,,,,,,,,,,,,,,1,001,2025-01-02_11h30.18.310,IAT(Formal),2021.2.3,Win32,120.4819277,,,,,,,,,,,,,,,e,1,0.5526,,,,,,勤奋,e,,,0,65,65,18,1,,,,,,,,,,,,,,,,,,,,,,,,,,,,,,,,,,
,,,,,,,,,,,,,,1,001,2025-01-02_11h30.18.310,IAT(Formal),2021.2.3,Win32,120.4819277,,,,,,,,,,,,,,,e,1,0.4754,,,,,,我的,e,,,0,66,66,61,1,,,,,,,,,,,,,,,,,,,,,,,,,,,,,,,,,,
,,,,,,,,,,,,,,1,001,2025-01-02_11h30.18.310,IAT(Formal),2021.2.3,Win32,120.4819277,,,,,,,,,,,,,,,i,1,0.4389,,,,,,他人,i,,,0,67,67,8,1,,,,,,,,,,,,,,,,,,,,,,,,,,,,,,,,,,
,,,,,,,,,,,,,,1,001,2025-01-02_11h30.18.310,IAT(Formal),2021.2.3,Win32,120.4819277,,,,,,,,,,,,,,,i,1,0.5241,,,,,,凶狠,i,,,0,68,68,42,1,,,,,,,,,,,,,,,,,,,,,,,,,,,,,,,,,,
,,,,,,,,,,,,,,1,001,2025-01-02_11h30.18.310,IAT(Formal),2021.2.3,Win32,120.4819277,,,,,,,,,,,,,,,i,1,0.5984,,,,,,野蛮,i,,,0,69,69,46,1,,,,,,,,,,,,,,,,,,,,,,,,,,,,,,,,,,
,,,,,,,,,,,,,,1,001,2025-01-02_11h30.18.310,IAT(Formal),2021.2.3,Win32,120.4819277,,,,,,,,,,,,,,,e,1,0.5919,,,,,,杰出,e,,,0,70,70,13,1,,,,,,,,,,,,,,,,,,,,,,,,,,,,,,,,,,
,,,,,,,,,,,,,,1,001,2025-01-02_11h30.18.310,IAT(Formal),2021.2.3,Win32,120.4819277,,,,,,,,,,,,,,,e,1,0.551,,,,,,机智,e,,,0,71,71,19,1,,,,,,,,,,,,,,,,,,,,,,,,,,,,,,,,,,
,,,,,,,,,,,,,,1,001,2025-01-02_11h30.18.310,IAT(Formal),2021.2.3,Win32,120.4819277,,,,,,,,,,,,,,,i,1,0.5927,,,,,,暴躁,i,,,0,72,72,44,1,,,,,,,,,,,,,,,,,,,,,,,,,,,,,,,,,,
,,,,,,,,,,,,,,1,001,2025-01-02_11h30.18.310,IAT(Formal),2021.2.3,Win32,120.4819277,,,,,,,,,,,,,,,e,1,0.6652,,,,,,自己,e,,,0,73,73,53,1,,,,,,,,,,,,,,,,,,,,,,,,,,,,,,,,,,
,,,,,,,,,,,,,,1,001,2025-01-02_11h30.18.310,IAT(Formal),2021.2.3,Win32,120.4819277,,,,,,,,,,,,,,,e,1,0.5011,,,,,,勇敢,e,,,0,74,74,17,1,,,,,,,,,,,,,,,,,,,,,,,,,,,,,,,,,,
,,,,,,,,,,,,,,1,001,2025-01-02_11h30.18.310,IAT(Formal),2021.2.3,Win32,120.4819277,,,,,,,,,,,,,,,i,1,0.6994,,,,,,他,i,,,0,75,75,65,1,,,,,,,,,,,,,,,,,,,,,,,,,,,,,,,,,,
,,,,,,,,,,,,,,1,001,2025-01-02_11h30.18.310,IAT(Formal),2021.2.3,Win32,120.4819277,,,,,,,,,,,,,,,e,1,0.5078,,,,,,我们,e,,,0,76,76,62,1,,,,,,,,,,,,,,,,,,,,,,,,,,,,,,,,,,
,,,,,,,,,,,,,,1,001,2025-01-02_11h30.18.310,IAT(Formal),2021.2.3,Win32,120.4819277,,,,,,,,,,,,,,,e,1,0.5654,,,,,,俺,e,,,0,77,77,54,1,,,,,,,,,,,,,,,,,,,,,,,,,,,,,,,,,,
,,,,,,,,,,,,,,1,001,2025-01-02_11h30.18.310,IAT(Formal),2021.2.3,Win32,120.4819277,,,,,,,,,,,,,,,i,1,0.5298,,,,,,鲁莽,i,,,0,78,78,38,1,,,,,,,,,,,,,,,,,,,,,,,,,,,,,,,,,,
,,,,,,,,,,,,,,1,001,2025-01-02_11h30.18.310,IAT(Formal),2021.2.3,Win32,120.4819277,,,,,,,,,,,,,,,e,1,0.3896,,,,,,乐观,e,,,0,79,79,14,1,,,,,,,,,,,,,,,,,,,,,,,,,,,,,,,,,,
,,,,,,,,,,,,,,1,001,2025-01-02_11h30.18.310,IAT(Formal),2021.2.3,Win32,120.4819277,,,,,,,,,,,,,,,e,1,0.5592,,,,,,朴实,e,,,1,0,80,24,1,,,,,,,,,,,,,,,,,,,,,,,,,,,,,,,,,,
,,,,,,,,,,,,,,1,001,2025-01-02_11h30.18.310,IAT(Formal),2021.2.3,Win32,120.4819277,,,,,,,,,,,,,,,e,1,0.5902,,,,,,自己,e,,,1,1,81,53,1,,,,,,,,,,,,,,,,,,,,,,,,,,,,,,,,,,
,,,,,,,,,,,,,,1,001,2025-01-02_11h30.18.310,IAT(Formal),2021.2.3,Win32,120.4819277,,,,,,,,,,,,,,,e,1,0.5075,,,,,,优秀,e,,,1,2,82,10,1,,,,,,,,,,,,,,,,,,,,,,,,,,,,,,,,,,
,,,,,,,,,,,,,,1,001,2025-01-02_11h30.18.310,IAT(Formal),2021.2.3,Win32,120.4819277,,,,,,,,,,,,,,,e,1,0.6246,,,,,,无私,e,,,1,3,83,22,1,,,,,,,,,,,,,,,,,,,,,,,,,,,,,,,,,,
,,,,,,,,,,,,,,1,001,2025-01-02_11h30.18.310,IAT(Formal),2021.2.3,Win32,120.4819277,,,,,,,,,,,,,,,i,1,0.598,,,,,,执拗,i,,,1,4,84,40,1,,,,,,,,,,,,,,,,,,,,,,,,,,,,,,,,,,
,,,,,,,,,,,,,,1,001,2025-01-02_11h30.18.310,IAT(Formal),2021.2.3,Win32,120.4819277,,,,,,,,,,,,,,,e,1,0.5973,,,,,,杰出,e,,,1,5,85,13,1,,,,,,,,,,,,,,,,,,,,,,,,,,,,,,,,,,
,,,,,,,,,,,,,,1,001,2025-01-02_11h30.18.310,IAT(Formal),2021.2.3,Win32,120.4819277,,,,,,,,,,,,,,,i,1,0.6755,,,,,,他的,i,,,1,6,86,57,1,,,,,,,,,,,,,,,,,,,,,,,,,,,,,,,,,,
,,,,,,,,,,,,,,1,001,2025-01-02_11h30.18.310,IAT(Formal),2021.2.3,Win32,120.4819277,,,,,,,,,,,,,,,e,1,0.502,,,,,,我们,e,,,1,7,87,72,1,,,,,,,,,,,,,,,,,,,,,,,,,,,,,,,,,,
,,,,,,,,,,,,,,1,001,2025-01-02_11h30.18.310,IAT(Formal),2021.2.3,Win32,120.4819277,,,,,,,,,,,,,,,e,1,0.641,,,,,,诚恳,e,,,1,8,88,29,1,,,,,,,,,,,,,,,,,,,,,,,,,,,,,,,,,,
,,,,,,,,,,,,,,1,001,2025-01-02_11h30.18.310,IAT(Formal),2021.2.3,Win32,120.4819277,,,,,,,,,,,,,,,i,1,0.6818,,,,,,其他,i,,,1,9,89,79,1,,,,,,,,,,,,,,,,,,,,,,,,,,,,,,,,,,
,,,,,,,,,,,,,,1,001,2025-01-02_11h30.18.310,IAT(Formal),2021.2.3,Win32,120.4819277,,,,,,,,,,,,,,,i,1,0.6304,,,,,,猖狂,i,,,1,10,90,45,1,,,,,,,,,,,,,,,,,,,,,,,,,,,,,,,,,,
,,,,,,,,,,,,,,1,001,2025-01-02_11h30.18.310,IAT(Formal),2021.2.3,Win32,120.4819277,,,,,,,,,,,,,,,e,0,0.7185,,,,,,他的,i,,,1,11,91,67,1,,,,,,,,,,,,,,,,,,,,,,,,,,,,,,,,,,
,,,,,,,,,,,,,,1,001,2025-01-02_11h30.18.310,IAT(Formal),2021.2.3,Win32,120.4819277,,,,,,,,,,,,,,,e,1,0.4916,,,,,,勤奋,e,,,1,12,92,18,1,,,,,,,,,,,,,,,,,,,,,,,,,,,,,,,,,,
,,,,,,,,,,,,,,1,001,2025-01-02_11h30.18.310,IAT(Formal),2021.2.3,Win32,120.4819277,,,,,,,,,,,,,,,i,1,0.6084,,,,,,他人,i,,,1,13,93,58,1,,,,,,,,,,,,,,,,,,,,,,,,,,,,,,,,,,
,,,,,,,,,,,,,,1,001,2025-01-02_11h30.18.310,IAT(Formal),2021.2.3,Win32,120.4819277,,,,,,,,,,,,,,,i,1,1.0383,,,,,,下贱,i,,,1,14,94,49,1,,,,,,,,,,,,,,,,,,,,,,,,,,,,,,,,,,
,,,,,,,,,,,,,,1,001,2025-01-02_11h30.18.310,IAT(Formal),2021.2.3,Win32,120.4819277,,,,,,,,,,,,,,,i,1,0.7306,,,,,,他们,i,,,1,15,95,56,1,,,,,,,,,,,,,,,,,,,,,,,,,,,,,,,,,,
,,,,,,,,,,,,,,1,001,2025-01-02_11h30.18.310,IAT(Formal),2021.2.3,Win32,120.4819277,,,,,,,,,,,,,,,e,1,1.0233,,,,,,冷静,e,,,1,16,96,26,1,,,,,,,,,,,,,,,,,,,,,,,,,,,,,,,,,,
,,,,,,,,,,,,,,1,001,2025-01-02_11h30.18.310,IAT(Formal),2021.2.3,Win32,120.4819277,,,,,,,,,,,,,,,e,1,0.6058,,,,,,稳重,e,,,1,17,97,21,1,,,,,,,,,,,,,,,,,,,,,,,,,,,,,,,,,,
,,,,,,,,,,,,,,1,001,2025-01-02_11h30.18.310,IAT(Formal),2021.2.3,Win32,120.4819277,,,,,,,,,,,,,,,e,1,0.816,,,,,,勇敢,e,,,1,18,98,17,1,,,,,,,,,,,,,,,,,,,,,,,,,,,,,,,,,,
,,,,,,,,,,,,,,1,001,2025-01-02_11h30.18.310,IAT(Formal),2021.2.3,Win32,120.4819277,,,,,,,,,,,,,,,i,1,0.5552,,,,,,他们,i,,,1,19,99,6,1,,,,,,,,,,,,,,,,,,,,,,,,,,,,,,,,,,
,,,,,,,,,,,,,,1,001,2025-01-02_11h30.18.310,IAT(Formal),2021.2.3,Win32,120.4819277,,,,,,,,,,,,,,,e,1,0.5671,,,,,,我,e,,,1,20,100,70,1,,,,,,,,,,,,,,,,,,,,,,,,,,,,,,,,,,
,,,,,,,,,,,,,,1,001,2025-01-02_11h30.18.310,IAT(Formal),2021.2.3,Win32,120.4819277,,,,,,,,,,,,,,,i,1,0.5396,,,,,,他们,i,,,1,21,101,76,1,,,,,,,,,,,,,,,,,,,,,,,,,,,,,,,,,,
,,,,,,,,,,,,,,1,001,2025-01-02_11h30.18.310,IAT(Formal),2021.2.3,Win32,120.4819277,,,,,,,,,,,,,,,i,1,0.4928,,,,,,他,i,,,1,22,102,65,1,,,,,,,,,,,,,,,,,,,,,,,,,,,,,,,,,,
,,,,,,,,,,,,,,1,001,2025-01-02_11h30.18.310,IAT(Formal),2021.2.3,Win32,120.4819277,,,,,,,,,,,,,,,e,1,0.524,,,,,,我们,e,,,1,23,103,52,1,,,,,,,,,,,,,,,,,,,,,,,,,,,,,,,,,,
,,,,,,,,,,,,,,1,001,2025-01-02_11h30.18.310,IAT(Formal),2021.2.3,Win32,120.4819277,,,,,,,,,,,,,,,e,1,0.406,,,,,,聪明,e,,,1,24,104,12,1,,,,,,,,,,,,,,,,,,,,,,,,,,,,,,,,,,
,,,,,,,,,,,,,,1,001,2025-01-02_11h30.18.310,IAT(Formal),2021.2.3,Win32,120.4819277,,,,,,,,,,,,,,,e,1,0.4662,,,,,,活泼,e,,,1,25,105,28,1,,,,,,,,,,,,,,,,,,,,,,,,,,,,,,,,,,
,,,,,,,,,,,,,,1,001,2025-01-02_11h30.18.310,IAT(Formal),2021.2.3,Win32,120.4819277,,,,,,,,,,,,,,,i,1,0.4478,,,,,,卑鄙,i,,,1,26,106,30,1,,,,,,,,,,,,,,,,,,,,,,,,,,,,,,,,,,
,,,,,,,,,,,,,,1,001,2025-01-02_11h30.18.310,IAT(Formal),2021.2.3,Win32,120.4819277,,,,,,,,,,,,,,,i,1,0.4828,,,,,,他,i,,,1,27,107,5,1,,,,,,,,,,,,,,,,,,,,,,,,,,,,,,,,,,
,,,,,,,,,,,,,,1,001,2025-01-02_11h30.18.310,IAT(Formal),2021.2.3,Win32,120.4819277,,,,,,,,,,,,,,,i,1,0.5233,,,,,,他的,i,,,1,28,108,77,1,,,,,,,,,,,,,,,,,,,,,,,,,,,,,,,,,,
,,,,,,,,,,,,,,1,001,2025-01-02_11h30.18.310,IAT(Formal),2021.2.3,Win32,120.4819277,,,,,,,,,,,,,,,e,1,0.5472,,,,,,自己,e,,,1,29,109,3,1,,,,,,,,,,,,,,,,,,,,,,,,,,,,,,,,,,
,,,,,,,,,,,,,,1,001,2025-01-02_11h30.18.310,IAT(Formal),2021.2.3,Win32,120.4819277,,,,,,,,,,,,,,,i,1,0.7726,,,,,,轻率,i,,,1,30,110,48,1,,,,,,,,,,,,,,,,,,,,,,,,,,,,,,,,,,
,,,,,,,,,,,,,,1,001,2025-01-02_11h30.18.310,IAT(Formal),2021.2.3,Win32,120.4819277,,,,,,,,,,,,,,,i,1,0.661,,,,,,他的,i,,,1,31,111,7,1,,,,,,,,,,,,,,,,,,,,,,,,,,,,,,,,,,
,,,,,,,,,,,,,,1,001,2025-01-02_11h30.18.310,IAT(Formal),2021.2.3,Win32,120.4819277,,,,,,,,,,,,,,,e,1,0.6347,,,,,,我的,e,,,1,32,112,71,1,,,,,,,,,,,,,,,,,,,,,,,,,,,,,,,,,,
,,,,,,,,,,,,,,1,001,2025-01-02_11h30.18.310,IAT(Formal),2021.2.3,Win32,120.4819277,,,,,,,,,,,,,,,i,1,0.9091,,,,,,自私,i,,,1,33,113,43,1,,,,,,,,,,,,,,,,,,,,,,,,,,,,,,,,,,
,,,,,,,,,,,,,,1,001,2025-01-02_11h30.18.310,IAT(Formal),2021.2.3,Win32,120.4819277,,,,,,,,,,,,,,,e,1,0.8181,,,,,,我,e,,,1,34,114,50,1,,,,,,,,,,,,,,,,,,,,,,,,,,,,,,,,,,
,,,,,,,,,,,,,,1,001,2025-01-02_11h30.18.310,IAT(Formal),2021.2.3,Win32,120.4819277,,,,,,,,,,,,,,,e,1,0.535,,,,,,我,e,,,1,35,115,0,1,,,,,,,,,,,,,,,,,,,,,,,,,,,,,,,,,,
,,,,,,,,,,,,,,1,001,2025-01-02_11h30.18.310,IAT(Formal),2021.2.3,Win32,120.4819277,,,,,,,,,,,,,,,i,1,0.6252,,,,,,消极,i,,,1,36,116,35,1,,,,,,,,,,,,,,,,,,,,,,,,,,,,,,,,,,
,,,,,,,,,,,,,,1,001,2025-01-02_11h30.18.310,IAT(Formal),2021.2.3,Win32,120.4819277,,,,,,,,,,,,,,,i,1,0.8425,,,,,,他,i,,,1,37,117,55,1,,,,,,,,,,,,,,,,,,,,,,,,,,,,,,,,,,
,,,,,,,,,,,,,,1,001,2025-01-02_11h30.18.310,IAT(Formal),2021.2.3,Win32,120.4819277,,,,,,,,,,,,,,,e,1,0.5509,,,,,,俺,e,,,1,38,118,4,1,,,,,,,,,,,,,,,,,,,,,,,,,,,,,,,,,,
,,,,,,,,,,,,,,1,001,2025-01-02_11h30.18.310,IAT(Formal),2021.2.3,Win32,120.4819277,,,,,,,,,,,,,,,i,1,0.8498,,,,,,野蛮,i,,,1,39,119,46,1,,,,,,,,,,,,,,,,,,,,,,,,,,,,,,,,,,
,,,,,,,,,,,,,,1,001,2025-01-02_11h30.18.310,IAT(Formal),2021.2.3,Win32,120.4819277,,,,,,,,,,,,,,,e,1,0.5104,,,,,,我的,e,,,1,40,120,61,1,,,,,,,,,,,,,,,,,,,,,,,,,,,,,,,,,,
,,,,,,,,,,,,,,1,001,2025-01-02_11h30.18.310,IAT(Formal),2021.2.3,Win32,120.4819277,,,,,,,,,,,,,,,e,1,0.6506,,,,,,细腻,e,,,1,41,121,25,1,,,,,,,,,,,,,,,,,,,,,,,,,,,,,,,,,,
,,,,,,,,,,,,,,1,001,2025-01-02_11h30.18.310,IAT(Formal),2021.2.3,Win32,120.4819277,,,,,,,,,,,,,,,i,1,0.6008,,,,,,他人,i,,,1,42,122,8,1,,,,,,,,,,,,,,,,,,,,,,,,,,,,,,,,,,
,,,,,,,,,,,,,,1,001,2025-01-02_11h30.18.310,IAT(Formal),2021.2.3,Win32,120.4819277,,,,,,,,,,,,,,,i,1,0.5421,,,,,,鲁莽,i,,,1,43,123,38,1,,,,,,,,,,,,,,,,,,,,,,,,,,,,,,,,,,
,,,,,,,,,,,,,,1,001,2025-01-02_11h30.18.310,IAT(Formal),2021.2.3,Win32,120.4819277,,,,,,,,,,,,,,,e,1,0.631,,,,,,崇高,e,,,1,44,124,11,1,,,,,,,,,,,,,,,,,,,,,,,,,,,,,,,,,,
,,,,,,,,,,,,,,1,001,2025-01-02_11h30.18.310,IAT(Formal),2021.2.3,Win32,120.4819277,,,,,,,,,,,,,,,e,1,0.5504,,,,,,机智,e,,,1,45,125,19,1,,,,,,,,,,,,,,,,,,,,,,,,,,,,,,,,,,
,,,,,,,,,,,,,,1,001,2025-01-02_11h30.18.310,IAT(Formal),2021.2.3,Win32,120.4819277,,,,,,,,,,,,,,,i,1,0.5505,,,,,,他们,i,,,1,46,126,66,1,,,,,,,,,,,,,,,,,,,,,,,,,,,,,,,,,,
,,,,,,,,,,,,,,1,001,2025-01-02_11h30.18.310,IAT(Formal),2021.2.3,Win32,120.4819277,,,,,,,,,,,,,,,e,1,1.0309,,,,,,我们,e,,,1,47,127,2,1,,,,,,,,,,,,,,,,,,,,,,,,,,,,,,,,,,
,,,,,,,,,,,,,,1,001,2025-01-02_11h30.18.310,IAT(Formal),2021.2.3,Win32,120.4819277,,,,,,,,,,,,,,,e,1,0.4138,,,,,,我的,e,,,1,48,128,1,1,,,,,,,,,,,,,,,,,,,,,,,,,,,,,,,,,,
,,,,,,,,,,,,,,1,001,2025-01-02_11h30.18.310,IAT(Formal),2021.2.3,Win32,120.4819277,,,,,,,,,,,,,,,e,1,0.4722,,,,,,俺,e,,,1,49,129,64,1,,,,,,,,,,,,,,,,,,,,,,,,,,,,,,,,,,
,,,,,,,,,,,,,,1,001,2025-01-02_11h30.18.310,IAT(Formal),2021.2.3,Win32,120.4819277,,,,,,,,,,,,,,,i,1,0.5598,,,,,,悲观,i,,,1,50,130,34,1,,,,,,,,,,,,,,,,,,,,,,,,,,,,,,,,,,
,,,,,,,,,,,,,,1,001,2025-01-02_11h30.18.310,IAT(Formal),2021.2.3,Win32,120.4819277,,,,,,,,,,,,,,,i,1,1.0914,,,,,,其他,i,,,1,51,131,69,1,,,,,,,,,,,,,,,,,,,,,,,,,,,,,,,,,,
,,,,,,,,,,,,,,1,001,2025-01-02_11h30.18.310,IAT(Formal),2021.2.3,Win32,120.4819277,,,,,,,,,,,,,,,i,1,0.6684,,,,,,刻薄,i,,,1,52,132,33,1,,,,,,,,,,,,,,,,,,,,,,,,,,,,,,,,,,
,,,,,,,,,,,,,,1,001,2025-01-02_11h30.18.310,IAT(Formal),2021.2.3,Win32,120.4819277,,,,,,,,,,,,,,,e,1,0.6623,,,,,,正直,e,,,1,53,133,16,1,,,,,,,,,,,,,,,,,,,,,,,,,,,,,,,,,,
,,,,,,,,,,,,,,1,001,2025-01-02_11h30.18.310,IAT(Formal),2021.2.3,Win32,120.4819277,,,,,,,,,,,,,,,e,1,0.6007,,,,,,诚实,e,,,1,54,134,15,1,,,,,,,,,,,,,,,,,,,,,,,,,,,,,,,,,,
,,,,,,,,,,,,,,1,001,2025-01-02_11h30.18.310,IAT(Formal),2021.2.3,Win32,120.4819277,,,,,,,,,,,,,,,i,1,0.66,,,,,,暴躁,i,,,1,55,135,44,1,,,,,,,,,,,,,,,,,,,,,,,,,,,,,,,,,,
,,,,,,,,,,,,,,1,001,2025-01-02_11h30.18.310,IAT(Formal),2021.2.3,Win32,120.4819277,,,,,,,,,,,,,,,e,1,0.477,,,,,,自己,e,,,1,56,136,73,1,,,,,,,,,,,,,,,,,,,,,,,,,,,,,,,,,,
,,,,,,,,,,,,,,1,001,2025-01-02_11h30.18.310,IAT(Formal),2021.2.3,Win32,120.4819277,,,,,,,,,,,,,,,e,1,0.5509,,,,,,俺,e,,,1,57,137,74,1,,,,,,,,,,,,,,,,,,,,,,,,,,,,,,,,,,
,,,,,,,,,,,,,,1,001,2025-01-02_11h30.18.310,IAT(Formal),2021.2.3,Win32,120.4819277,,,,,,,,,,,,,,,e,1,0.4855,,,,,,我的,e,,,1,58,138,51,1,,,,,,,,,,,,,,,,,,,,,,,,,,,,,,,,,,
,,,,,,,,,,,,,,1,001,2025-01-02_11h30.18.310,IAT(Formal),2021.2.3,Win32,120.4819277,,,,,,,,,,,,,,,i,1,0.5846,,,,,,固执,i,,,1,59,139,47,1,,,,,,,,,,,,,,,,,,,,,,,,,,,,,,,,,,
,,,,,,,,,,,,,,1,001,2025-01-02_11h30.18.310,IAT(Formal),2021.2.3,Win32,120.4819277,,,,,,,,,,,,,,,e,1,0.5265,,,,,,我们,e,,,1,60,140,62,1,,,,,,,,,,,,,,,,,,,,,,,,,,,,,,,,,,
,,,,,,,,,,,,,,1,001,2025-01-02_11h30.18.310,IAT(Formal),2021.2.3,Win32,120.4819277,,,,,,,,,,,,,,,i,1,0.4859,,,,,,散漫,i,,,1,61,141,41,1,,,,,,,,,,,,,,,,,,,,,,,,,,,,,,,,,,
,,,,,,,,,,,,,,1,001,2025-01-02_11h30.18.310,IAT(Formal),2021.2.3,Win32,120.4819277,,,,,,,,,,,,,,,i,1,0.7586,,,,,,凶狠,i,,,1,62,142,42,1,,,,,,,,,,,,,,,,,,,,,,,,,,,,,,,,,,
,,,,,,,,,,,,,,1,001,2025-01-02_11h30.18.310,IAT(Formal),2021.2.3,Win32,120.4819277,,,,,,,,,,,,,,,e,0,0.6767,,,,,,愚蠢,i,,,1,63,143,32,1,,,,,,,,,,,,,,,,,,,,,,,,,,,,,,,,,,
,,,,,,,,,,,,,,1,001,2025-01-02_11h30.18.310,IAT(Formal),2021.2.3,Win32,120.4819277,,,,,,,,,,,,,,,e,1,0.4774,,,,,,自己,e,,,1,64,144,63,1,,,,,,,,,,,,,,,,,,,,,,,,,,,,,,,,,,
,,,,,,,,,,,,,,1,001,2025-01-02_11h30.18.310,IAT(Formal),2021.2.3,Win32,120.4819277,,,,,,,,,,,,,,,e,1,0.5087,,,,,,认真,e,,,1,65,145,20,1,,,,,,,,,,,,,,,,,,,,,,,,,,,,,,,,,,
,,,,,,,,,,,,,,1,001,2025-01-02_11h30.18.310,IAT(Formal),2021.2.3,Win32,120.4819277,,,,,,,,,,,,,,,e,1,1.1265,,,,,,公正,e,,,1,66,146,23,1,,,,,,,,,,,,,,,,,,,,,,,,,,,,,,,,,,
,,,,,,,,,,,,,,1,001,2025-01-02_11h30.18.310,IAT(Formal),2021.2.3,Win32,120.4819277,,,,,,,,,,,,,,,i,1,0.5846,,,,,,他人,i,,,1,67,147,68,1,,,,,,,,,,,,,,,,,,,,,,,,,,,,,,,,,,
,,,,,,,,,,,,,,1,001,2025-01-02_11h30.18.310,IAT(Formal),2021.2.3,Win32,120.4819277,,,,,,,,,,,,,,,i,1,0.4873,,,,,,虚伪,i,,,1,68,148,31,1,,,,,,,,,,,,,,,,,,,,,,,,,,,,,,,,,,
,,,,,,,,,,,,,,1,001,2025-01-02_11h30.18.310,IAT(Formal),2021.2.3,Win32,120.4819277,,,,,,,,,,,,,,,e,1,0.4678,,,,,,热情,e,,,1,69,149,27,1,,,,,,,,,,,,,,,,,,,,,,,,,,,,,,,,,,
,,,,,,,,,,,,,,1,001,2025-01-02_11h30.18.310,IAT(Formal),2021.2.3,Win32,120.4819277,,,,,,,,,,,,,,,e,1,0.4542,,,,,,我,e,,,1,70,150,60,1,,,,,,,,,,,,,,,,,,,,,,,,,,,,,,,,,,
,,,,,,,,,,,,,,1,001,2025-01-02_11h30.18.310,IAT(Formal),2021.2.3,Win32,120.4819277,,,,,,,,,,,,,,,i,1,0.4846,,,,,,其他,i,,,1,71,151,9,1,,,,,,,,,,,,,,,,,,,,,,,,,,,,,,,,,,
,,,,,,,,,,,,,,1,001,2025-01-02_11h30.18.310,IAT(Formal),2021.2.3,Win32,120.4819277,,,,,,,,,,,,,,,i,1,0.8765,,,,,,冒失,i,,,1,72,152,39,1,,,,,,,,,,,,,,,,,,,,,,,,,,,,,,,,,,
,,,,,,,,,,,,,,1,001,2025-01-02_11h30.18.310,IAT(Formal),2021.2.3,Win32,120.4819277,,,,,,,,,,,,,,,i,1,0.5427,,,,,,他,i,,,1,73,153,75,1,,,,,,,,,,,,,,,,,,,,,,,,,,,,,,,,,,
,,,,,,,,,,,,,,1,001,2025-01-02_11h30.18.310,IAT(Formal),2021.2.3,Win32,120.4819277,,,,,,,,,,,,,,,i,1,0.6344,,,,,,自卑,i,,,1,74,154,36,1,,,,,,,,,,,,,,,,,,,,,,,,,,,,,,,,,,
,,,,,,,,,,,,,,1,001,2025-01-02_11h30.18.310,IAT(Formal),2021.2.3,Win32,120.4819277,,,,,,,,,,,,,,,e,1,0.4423,,,,,,乐观,e,,,1,75,155,14,1,,,,,,,,,,,,,,,,,,,,,,,,,,,,,,,,,,
,,,,,,,,,,,,,,1,001,2025-01-02_11h30.18.310,IAT(Formal),2021.2.3,Win32,120.4819277,,,,,,,,,,,,,,,e,0,0.5929,,,,,,他人,i,,,1,76,156,78,1,,,,,,,,,,,,,,,,,,,,,,,,,,,,,,,,,,
,,,,,,,,,,,,,,1,001,2025-01-02_11h30.18.310,IAT(Formal),2021.2.3,Win32,120.4819277,,,,,,,,,,,,,,,i,1,0.4567,,,,,,其他,i,,,1,77,157,59,1,,,,,,,,,,,,,,,,,,,,,,,,,,,,,,,,,,
,,,,,,,,,,,,,,1,001,2025-01-02_11h30.18.310,IAT(Formal),2021.2.3,Win32,120.4819277,,,,,,,,,,,,,,,e,1,0.6292,,,,,,俺,e,,,1,78,158,54,1,,,,,,,,,,,,,,,,,,,,,,,,,,,,,,,,,,
,,,,,,,,,,,,,,1,001,2025-01-02_11h30.18.310,IAT(Formal),2021.2.3,Win32,120.4819277,,,,,,,,,,,,,,,i,1,0.5611,,,,,,傲慢,i,,,1,79,159,37,1,,,,,,,,,,,,,,,,,,,,,,,,,,,,,,,,,,
,,,,,,,,,,,,我的,i,1,001,2025-01-02_11h30.18.310,IAT(Formal),2021.2.3,Win32,120.4819277,,,,,,,,,,,,,,,,,,,,,,,,,,,,,,,,space,52.4564,i,1,0.5639,0,0,0,1,1,,,,,,,,,,,,,,,,,,,,,,,,
,,,,,,,,,,,,他,e,1,001,2025-01-02_11h30.18.310,IAT(Formal),2021.2.3,Win32,120.4819277,,,,,,,,,,,,,,,,,,,,,,,,,,,,,,,,,,e,1,0.4268,0,1,1,5,1,,,,,,,,,,,,,,,,,,,,,,,,
,,,,,,,,,,,,俺,i,1,001,2025-01-02_11h30.18.310,IAT(Formal),2021.2.3,Win32,120.4819277,,,,,,,,,,,,,,,,,,,,,,,,,,,,,,,,,,i,1,0.5668,0,2,2,4,1,,,,,,,,,,,,,,,,,,,,,,,,
,,,,,,,,,,,,自己,i,1,001,2025-01-02_11h30.18.310,IAT(Formal),2021.2.3,Win32,120.4819277,,,,,,,,,,,,,,,,,,,,,,,,,,,,,,,,,,i,1,0.4275,0,3,3,3,1,,,,,,,,,,,,,,,,,,,,,,,,
,,,,,,,,,,,,他们,e,1,001,2025-01-02_11h30.18.310,IAT(Formal),2021.2.3,Win32,120.4819277,,,,,,,,,,,,,,,,,,,,,,,,,,,,,,,,,,e,1,0.4924,0,4,4,6,1,,,,,,,,,,,,,,,,,,,,,,,,
,,,,,,,,,,,,我,i,1,001,2025-01-02_11h30.18.310,IAT(Formal),2021.2.3,Win32,120.4819277,,,,,,,,,,,,,,,,,,,,,,,,,,,,,,,,,,e,0,0.5307,0,5,5,0,1,,,,,,,,,,,,,,,,,,,,,,,,
,,,,,,,,,,,,其他,e,1,001,2025-01-02_11h30.18.310,IAT(Formal),2021.2.3,Win32,120.4819277,,,,,,,,,,,,,,,,,,,,,,,,,,,,,,,,,,e,1,0.7086,0,6,6,9,1,,,,,,,,,,,,,,,,,,,,,,,,
,,,,,,,,,,,,他的,e,1,001,2025-01-02_11h30.18.310,IAT(Formal),2021.2.3,Win32,120.4819277,,,,,,,,,,,,,,,,,,,,,,,,,,,,,,,,,,e,1,0.4982,0,7,7,7,1,,,,,,,,,,,,,,,,,,,,,,,,
,,,,,,,,,,,,我们,i,1,001,2025-01-02_11h30.18.310,IAT(Formal),2021.2.3,Win32,120.4819277,,,,,,,,,,,,,,,,,,,,,,,,,,,,,,,,,,i,1,0.4625,0,8,8,2,1,,,,,,,,,,,,,,,,,,,,,,,,
,,,,,,,,,,,,他人,e,1,001,2025-01-02_11h30.18.310,IAT(Formal),2021.2.3,Win32,120.4819277,,,,,,,,,,,,,,,,,,,,,,,,,,,,,,,,,,e,1,0.443,0,9,9,8,1,,,,,,,,,,,,,,,,,,,,,,,,
,,,,,,,,,,,,,,1,001,2025-01-02_11h30.18.310,IAT(Formal),2021.2.3,Win32,120.4819277,,,,,,,,,,,,,,,,,,,,,,,,,,,,,,,,,,,,,,,,,,space,3.745,i,1,1.3215,0,0,0,31,1,虚伪,i,,,,,,,,,,,,
,,,,,,,,,,,,,,1,001,2025-01-02_11h30.18.310,IAT(Formal),2021.2.3,Win32,120.4819277,,,,,,,,,,,,,,,,,,,,,,,,,,,,,,,,,,,,,,,,,,,,e,1,0.993,0,1,1,66,1,他们,e,,,,,,,,,,,,
,,,,,,,,,,,,,,1,001,2025-01-02_11h30.18.310,IAT(Formal),2021.2.3,Win32,120.4819277,,,,,,,,,,,,,,,,,,,,,,,,,,,,,,,,,,,,,,,,,,,,i,1,1.2018,0,2,2,60,1,我,i,,,,,,,,,,,,
,,,,,,,,,,,,,,1,001,2025-01-02_11h30.18.310,IAT(Formal),2021.2.3,Win32,120.4819277,,,,,,,,,,,,,,,,,,,,,,,,,,,,,,,,,,,,,,,,,,,,i,1,1.4093,0,3,3,43,1,自私,i,,,,,,,,,,,,
,,,,,,,,,,,,,,1,001,2025-01-02_11h30.18.310,IAT(Formal),2021.2.3,Win32,120.4819277,,,,,,,,,,,,,,,,,,,,,,,,,,,,,,,,,,,,,,,,,,,,e,1,1.1464,0,4,4,23,1,公正,e,,,,,,,,,,,,
,,,,,,,,,,,,,,1,001,2025-01-02_11h30.18.310,IAT(Formal),2021.2.3,Win32,120.4819277,,,,,,,,,,,,,,,,,,,,,,,,,,,,,,,,,,,,,,,,,,,,e,1,0.9433,0,5,5,65,1,他,e,,,,,,,,,,,,
,,,,,,,,,,,,,,1,001,2025-01-02_11h30.18.310,IAT(Formal),2021.2.3,Win32,120.4819277,,,,,,,,,,,,,,,,,,,,,,,,,,,,,,,,,,,,,,,,,,,,i,0,1.0094,0,6,6,22,1,无私,e,,,,,,,,,,,,
,,,,,,,,,,,,,,1,001,2025-01-02_11h30.18.310,IAT(Formal),2021.2.3,Win32,120.4819277,,,,,,,,,,,,,,,,,,,,,,,,,,,,,,,,,,,,,,,,,,,,e,1,1.4182,0,7,7,56,1,他们,e,,,,,,,,,,,,
,,,,,,,,,,,,,,1,001,2025-01-02_11h30.18.310,IAT(Formal),2021.2.3,Win32,120.4819277,,,,,,,,,,,,,,,,,,,,,,,,,,,,,,,,,,,,,,,,,,,,e,1,0.5007,0,8,8,6,1,他们,e,,,,,,,,,,,,
,,,,,,,,,,,,,,1,001,2025-01-02_11h30.18.310,IAT(Formal),2021.2.3,Win32,120.4819277,,,,,,,,,,,,,,,,,,,,,,,,,,,,,,,,,,,,,,,,,,,,i,1,0.9955,0,9,9,45,1,猖狂,i,,,,,,,,,,,,
,,,,,,,,,,,,,,1,001,2025-01-02_11h30.18.310,IAT(Formal),2021.2.3,Win32,120.4819277,,,,,,,,,,,,,,,,,,,,,,,,,,,,,,,,,,,,,,,,,,,,i,1,0.5967,0,10,10,0,1,我,i,,,,,,,,,,,,
,,,,,,,,,,,,,,1,001,2025-01-02_11h30.18.310,IAT(Formal),2021.2.3,Win32,120.4819277,,,,,,,,,,,,,,,,,,,,,,,,,,,,,,,,,,,,,,,,,,,,e,1,0.9435,0,11,11,13,1,杰出,e,,,,,,,,,,,,
,,,,,,,,,,,,,,1,001,2025-01-02_11h30.18.310,IAT(Formal),2021.2.3,Win32,120.4819277,,,,,,,,,,,,,,,,,,,,,,,,,,,,,,,,,,,,,,,,,,,,i,1,0.726,0,12,12,61,1,我的,i,,,,,,,,,,,,
,,,,,,,,,,,,,,1,001,2025-01-02_11h30.18.310,IAT(Formal),2021.2.3,Win32,120.4819277,,,,,,,,,,,,,,,,,,,,,,,,,,,,,,,,,,,,,,,,,,,,i,1,0.4932,0,13,13,2,1,我们,i,,,,,,,,,,,,
,,,,,,,,,,,,,,1,001,2025-01-02_11h30.18.310,IAT(Formal),2021.2.3,Win32,120.4819277,,,,,,,,,,,,,,,,,,,,,,,,,,,,,,,,,,,,,,,,,,,,e,0,0.9385,0,14,14,30,1,卑鄙,i,,,,,,,,,,,,
,,,,,,,,,,,,,,1,001,2025-01-02_11h30.18.310,IAT(Formal),2021.2.3,Win32,120.4819277,,,,,,,,,,,,,,,,,,,,,,,,,,,,,,,,,,,,,,,,,,,,i,1,1.1336,0,15,15,52,1,我们,i,,,,,,,,,,,,
,,,,,,,,,,,,,,1,001,2025-01-02_11h30.18.310,IAT(Formal),2021.2.3,Win32,120.4819277,,,,,,,,,,,,,,,,,,,,,,,,,,,,,,,,,,,,,,,,,,,,e,1,0.8549,0,16,16,76,1,他们,e,,,,,,,,,,,,
,,,,,,,,,,,,,,1,001,2025-01-02_11h30.18.310,IAT(Formal),2021.2.3,Win32,120.4819277,,,,,,,,,,,,,,,,,,,,,,,,,,,,,,,,,,,,,,,,,,,,i,1,0.6853,0,17,17,73,1,自己,i,,,,,,,,,,,,
,,,,,,,,,,,,,,1,001,2025-01-02_11h30.18.310,IAT(Formal),2021.2.3,Win32,120.4819277,,,,,,,,,,,,,,,,,,,,,,,,,,,,,,,,,,,,,,,,,,,,e,1,0.8094,0,18,18,75,1,他,e,,,,,,,,,,,,
,,,,,,,,,,,,,,1,001,2025-01-02_11h30.18.310,IAT(Formal),2021.2.3,Win32,120.4819277,,,,,,,,,,,,,,,,,,,,,,,,,,,,,,,,,,,,,,,,,,,,i,1,1.0871,0,19,19,35,1,消极,i,,,,,,,,,,,,
,,,,,,,,,,,,,,1,001,2025-01-02_11h30.18.310,IAT(Formal),2021.2.3,Win32,120.4819277,,,,,,,,,,,,,,,,,,,,,,,,,,,,,,,,,,,,,,,,,,,,i,1,1.3507,0,20,20,41,1,散漫,i,,,,,,,,,,,,
,,,,,,,,,,,,,,1,001,2025-01-02_11h30.18.310,IAT(Formal),2021.2.3,Win32,120.4819277,,,,,,,,,,,,,,,,,,,,,,,,,,,,,,,,,,,,,,,,,,,,e,1,1.2539,0,21,21,21,1,稳重,e,,,,,,,,,,,,
,,,,,,,,,,,,,,1,001,2025-01-02_11h30.18.310,IAT(Formal),2021.2.3,Win32,120.4819277,,,,,,,,,,,,,,,,,,,,,,,,,,,,,,,,,,,,,,,,,,,,i,1,0.9837,0,22,22,42,1,凶狠,i,,,,,,,,,,,,
,,,,,,,,,,,,,,1,001,2025-01-02_11h30.18.310,IAT(Formal),2021.2.3,Win32,120.4819277,,,,,,,,,,,,,,,,,,,,,,,,,,,,,,,,,,,,,,,,,,,,e,1,1.2724,0,23,23,18,1,勤奋,e,,,,,,,,,,,,
,,,,,,,,,,,,,,1,001,2025-01-02_11h30.18.310,IAT(Formal),2021.2.3,Win32,120.4819277,,,,,,,,,,,,,,,,,,,,,,,,,,,,,,,,,,,,,,,,,,,,e,1,0.6458,0,24,24,67,1,他的,e,,,,,,,,,,,,
,,,,,,,,,,,,,,1,001,2025-01-02_11h30.18.310,IAT(Formal),2021.2.3,Win32,120.4819277,,,,,,,,,,,,,,,,,,,,,,,,,,,,,,,,,,,,,,,,,,,,e,1,1.012,0,25,25,28,1,活泼,e,,,,,,,,,,,,
,,,,,,,,,,,,,,1,001,2025-01-02_11h30.18.310,IAT(Formal),2021.2.3,Win32,120.4819277,,,,,,,,,,,,,,,,,,,,,,,,,,,,,,,,,,,,,,,,,,,,i,1,0.8098,0,26,26,62,1,我们,i,,,,,,,,,,,,
,,,,,,,,,,,,,,1,001,2025-01-02_11h30.18.310,IAT(Formal),2021.2.3,Win32,120.4819277,,,,,,,,,,,,,,,,,,,,,,,,,,,,,,,,,,,,,,,,,,,,,0,,0,27,27,19,1,机智,e,,,,,,,,,,,,
,,,,,,,,,,,,,,1,001,2025-01-02_11h30.18.310,IAT(Formal),2021.2.3,Win32,120.4819277,,,,,,,,,,,,,,,,,,,,,,,,,,,,,,,,,,,,,,,,,,,,e,1,0.6676,0,28,28,5,1,他,e,,,,,,,,,,,,
,,,,,,,,,,,,,,1,001,2025-01-02_11h30.18.310,IAT(Formal),2021.2.3,Win32,120.4819277,,,,,,,,,,,,,,,,,,,,,,,,,,,,,,,,,,,,,,,,,,,,i,1,0.687,0,29,29,53,1,自己,i,,,,,,,,,,,,
,,,,,,,,,,,,,,1,001,2025-01-02_11h30.18.310,IAT(Formal),2021.2.3,Win32,120.4819277,,,,,,,,,,,,,,,,,,,,,,,,,,,,,,,,,,,,,,,,,,,,e,1,0.8348,0,30,30,79,1,其他,e,,,,,,,,,,,,
,,,,,,,,,,,,,,1,001,2025-01-02_11h30.18.310,IAT(Formal),2021.2.3,Win32,120.4819277,,,,,,,,,,,,,,,,,,,,,,,,,,,,,,,,,,,,,,,,,,,,i,1,0.6037,0,31,31,1,1,我的,i,,,,,,,,,,,,
,,,,,,,,,,,,,,1,001,2025-01-02_11h30.18.310,IAT(Formal),2021.2.3,Win32,120.4819277,,,,,,,,,,,,,,,,,,,,,,,,,,,,,,,,,,,,,,,,,,,,i,0,1.268,0,32,32,29,1,诚恳,e,,,,,,,,,,,,
,,,,,,,,,,,,,,1,001,2025-01-02_11h30.18.310,IAT(Formal),2021.2.3,Win32,120.4819277,,,,,,,,,,,,,,,,,,,,,,,,,,,,,,,,,,,,,,,,,,,,e,1,1.2593,0,33,33,27,1,热情,e,,,,,,,,,,,,
,,,,,,,,,,,,,,1,001,2025-01-02_11h30.18.310,IAT(Formal),2021.2.3,Win32,120.4819277,,,,,,,,,,,,,,,,,,,,,,,,,,,,,,,,,,,,,,,,,,,,e,1,0.6428,0,34,34,7,1,他的,e,,,,,,,,,,,,
,,,,,,,,,,,,,,1,001,2025-01-02_11h30.18.310,IAT(Formal),2021.2.3,Win32,120.4819277,,,,,,,,,,,,,,,,,,,,,,,,,,,,,,,,,,,,,,,,,,,,i,1,0.6044,0,35,35,39,1,冒失,i,,,,,,,,,,,,
,,,,,,,,,,,,,,1,001,2025-01-02_11h30.18.310,IAT(Formal),2021.2.3,Win32,120.4819277,,,,,,,,,,,,,,,,,,,,,,,,,,,,,,,,,,,,,,,,,,,,e,1,0.9185,0,36,36,14,1,乐观,e,,,,,,,,,,,,
,,,,,,,,,,,,,,1,001,2025-01-02_11h30.18.310,IAT(Formal),2021.2.3,Win32,120.4819277,,,,,,,,,,,,,,,,,,,,,,,,,,,,,,,,,,,,,,,,,,,,e,1,0.9085,0,37,37,17,1,勇敢,e,,,,,,,,,,,,
,,,,,,,,,,,,,,1,001,2025-01-02_11h30.18.310,IAT(Formal),2021.2.3,Win32,120.4819277,,,,,,,,,,,,,,,,,,,,,,,,,,,,,,,,,,,,,,,,,,,,e,1,0.427,0,38,38,57,1,他的,e,,,,,,,,,,,,
,,,,,,,,,,,,,,1,001,2025-01-02_11h30.18.310,IAT(Formal),2021.2.3,Win32,120.4819277,,,,,,,,,,,,,,,,,,,,,,,,,,,,,,,,,,,,,,,,,,,,i,0,0.7585,0,39,39,24,1,朴实,e,,,,,,,,,,,,
,,,,,,,,,,,,,,1,001,2025-01-02_11h30.18.310,IAT(Formal),2021.2.3,Win32,120.4819277,,,,,,,,,,,,,,,,,,,,,,,,,,,,,,,,,,,,,,,,,,,,e,1,0.5672,0,40,40,12,1,聪明,e,,,,,,,,,,,,
,,,,,,,,,,,,,,1,001,2025-01-02_11h30.18.310,IAT(Formal),2021.2.3,Win32,120.4819277,,,,,,,,,,,,,,,,,,,,,,,,,,,,,,,,,,,,,,,,,,,,i,1,0.7094,0,41,41,48,1,轻率,i,,,,,,,,,,,,
,,,,,,,,,,,,,,1,001,2025-01-02_11h30.18.310,IAT(Formal),2021.2.3,Win32,120.4819277,,,,,,,,,,,,,,,,,,,,,,,,,,,,,,,,,,,,,,,,,,,,e,1,0.8757,0,42,42,26,1,冷静,e,,,,,,,,,,,,
,,,,,,,,,,,,,,1,001,2025-01-02_11h30.18.310,IAT(Formal),2021.2.3,Win32,120.4819277,,,,,,,,,,,,,,,,,,,,,,,,,,,,,,,,,,,,,,,,,,,,i,1,0.9192,0,43,43,49,1,下贱,i,,,,,,,,,,,,
,,,,,,,,,,,,,,1,001,2025-01-02_11h30.18.310,IAT(Formal),2021.2.3,Win32,120.4819277,,,,,,,,,,,,,,,,,,,,,,,,,,,,,,,,,,,,,,,,,,,,e,1,0.5933,0,44,44,55,1,他,e,,,,,,,,,,,,
,,,,,,,,,,,,,,1,001,2025-01-02_11h30.18.310,IAT(Formal),2021.2.3,Win32,120.4819277,,,,,,,,,,,,,,,,,,,,,,,,,,,,,,,,,,,,,,,,,,,,e,1,0.5261,0,45,45,58,1,他人,e,,,,,,,,,,,,
,,,,,,,,,,,,,,1,001,2025-01-02_11h30.18.310,IAT(Formal),2021.2.3,Win32,120.4819277,,,,,,,,,,,,,,,,,,,,,,,,,,,,,,,,,,,,,,,,,,,,i,1,0.7381,0,46,46,64,1,俺,i,,,,,,,,,,,,
,,,,,,,,,,,,,,1,001,2025-01-02_11h30.18.310,IAT(Formal),2021.2.3,Win32,120.4819277,,,,,,,,,,,,,,,,,,,,,,,,,,,,,,,,,,,,,,,,,,,,e,1,0.642,0,47,47,15,1,诚实,e,,,,,,,,,,,,
,,,,,,,,,,,,,,1,001,2025-01-02_11h30.18.310,IAT(Formal),2021.2.3,Win32,120.4819277,,,,,,,,,,,,,,,,,,,,,,,,,,,,,,,,,,,,,,,,,,,,e,1,1.077,0,48,48,25,1,细腻,e,,,,,,,,,,,,
,,,,,,,,,,,,,,1,001,2025-01-02_11h30.18.310,IAT(Formal),2021.2.3,Win32,120.4819277,,,,,,,,,,,,,,,,,,,,,,,,,,,,,,,,,,,,,,,,,,,,i,1,0.682,0,49,49,36,1,自卑,i,,,,,,,,,,,,
,,,,,,,,,,,,,,1,001,2025-01-02_11h30.18.310,IAT(Formal),2021.2.3,Win32,120.4819277,,,,,,,,,,,,,,,,,,,,,,,,,,,,,,,,,,,,,,,,,,,,i,1,0.9499,0,50,50,72,1,我们,i,,,,,,,,,,,,
,,,,,,,,,,,,,,1,001,2025-01-02_11h30.18.310,IAT(Formal),2021.2.3,Win32,120.4819277,,,,,,,,,,,,,,,,,,,,,,,,,,,,,,,,,,,,,,,,,,,,e,1,0.597,0,51,51,10,1,优秀,e,,,,,,,,,,,,
,,,,,,,,,,,,,,1,001,2025-01-02_11h30.18.310,IAT(Formal),2021.2.3,Win32,120.4819277,,,,,,,,,,,,,,,,,,,,,,,,,,,,,,,,,,,,,,,,,,,,i,1,0.8923,0,52,52,3,1,自己,i,,,,,,,,,,,,
,,,,,,,,,,,,,,1,001,2025-01-02_11h30.18.310,IAT(Formal),2021.2.3,Win32,120.4819277,,,,,,,,,,,,,,,,,,,,,,,,,,,,,,,,,,,,,,,,,,,,i,1,1.0908,0,53,53,46,1,野蛮,i,,,,,,,,,,,,
,,,,,,,,,,,,,,1,001,2025-01-02_11h30.18.310,IAT(Formal),2021.2.3,Win32,120.4819277,,,,,,,,,,,,,,,,,,,,,,,,,,,,,,,,,,,,,,,,,,,,e,1,0.8011,0,54,54,78,1,他人,e,,,,,,,,,,,,
,,,,,,,,,,,,,,1,001,2025-01-02_11h30.18.310,IAT(Formal),2021.2.3,Win32,120.4819277,,,,,,,,,,,,,,,,,,,,,,,,,,,,,,,,,,,,,,,,,,,,e,1,1.3529,0,55,55,8,1,他人,e,,,,,,,,,,,,
,,,,,,,,,,,,,,1,001,2025-01-02_11h30.18.310,IAT(Formal),2021.2.3,Win32,120.4819277,,,,,,,,,,,,,,,,,,,,,,,,,,,,,,,,,,,,,,,,,,,,i,1,0.8346,0,56,56,47,1,固执,i,,,,,,,,,,,,
,,,,,,,,,,,,,,1,001,2025-01-02_11h30.18.310,IAT(Formal),2021.2.3,Win32,120.4819277,,,,,,,,,,,,,,,,,,,,,,,,,,,,,,,,,,,,,,,,,,,,e,1,0.6095,0,57,57,11,1,崇高,e,,,,,,,,,,,,
,,,,,,,,,,,,,,1,001,2025-01-02_11h30.18.310,IAT(Formal),2021.2.3,Win32,120.4819277,,,,,,,,,,,,,,,,,,,,,,,,,,,,,,,,,,,,,,,,,,,,i,1,0.7479,0,58,58,38,1,鲁莽,i,,,,,,,,,,,,
,,,,,,,,,,,,,,1,001,2025-01-02_11h30.18.310,IAT(Formal),2021.2.3,Win32,120.4819277,,,,,,,,,,,,,,,,,,,,,,,,,,,,,,,,,,,,,,,,,,,,i,1,0.7709,0,59,59,44,1,暴躁,i,,,,,,,,,,,,
,,,,,,,,,,,,,,1,001,2025-01-02_11h30.18.310,IAT(Formal),2021.2.3,Win32,120.4819277,,,,,,,,,,,,,,,,,,,,,,,,,,,,,,,,,,,,,,,,,,,,e,1,1.2922,0,60,60,59,1,其他,e,,,,,,,,,,,,
,,,,,,,,,,,,,,1,001,2025-01-02_11h30.18.310,IAT(Formal),2021.2.3,Win32,120.4819277,,,,,,,,,,,,,,,,,,,,,,,,,,,,,,,,,,,,,,,,,,,,i,1,0.6837,0,61,61,70,1,我,i,,,,,,,,,,,,
,,,,,,,,,,,,,,1,001,2025-01-02_11h30.18.310,IAT(Formal),2021.2.3,Win32,120.4819277,,,,,,,,,,,,,,,,,,,,,,,,,,,,,,,,,,,,,,,,,,,,e,1,0.5947,0,62,62,68,1,他人,e,,,,,,,,,,,,
,,,,,,,,,,,,,,1,001,2025-01-02_11h30.18.310,IAT(Formal),2021.2.3,Win32,120.4819277,,,,,,,,,,,,,,,,,,,,,,,,,,,,,,,,,,,,,,,,,,,,i,1,0.8675,0,63,63,54,1,俺,i,,,,,,,,,,,,
,,,,,,,,,,,,,,1,001,2025-01-02_11h30.18.310,IAT(Formal),2021.2.3,Win32,120.4819277,,,,,,,,,,,,,,,,,,,,,,,,,,,,,,,,,,,,,,,,,,,,i,1,0.6343,0,64,64,40,1,执拗,i,,,,,,,,,,,,
,,,,,,,,,,,,,,1,001,2025-01-02_11h30.18.310,IAT(Formal),2021.2.3,Win32,120.4819277,,,,,,,,,,,,,,,,,,,,,,,,,,,,,,,,,,,,,,,,,,,,i,1,0.9757,0,65,65,50,1,我,i,,,,,,,,,,,,
,,,,,,,,,,,,,,1,001,2025-01-02_11h30.18.310,IAT(Formal),2021.2.3,Win32,120.4819277,,,,,,,,,,,,,,,,,,,,,,,,,,,,,,,,,,,,,,,,,,,,e,0,0.5553,0,66,66,33,1,刻薄,i,,,,,,,,,,,,
,,,,,,,,,,,,,,1,001,2025-01-02_11h30.18.310,IAT(Formal),2021.2.3,Win32,120.4819277,,,,,,,,,,,,,,,,,,,,,,,,,,,,,,,,,,,,,,,,,,,,e,1,0.8763,0,67,67,69,1,其他,e,,,,,,,,,,,,
,,,,,,,,,,,,,,1,001,2025-01-02_11h30.18.310,IAT(Formal),2021.2.3,Win32,120.4819277,,,,,,,,,,,,,,,,,,,,,,,,,,,,,,,,,,,,,,,,,,,,i,1,0.5682,0,68,68,4,1,俺,i,,,,,,,,,,,,
,,,,,,,,,,,,,,1,001,2025-01-02_11h30.18.310,IAT(Formal),2021.2.3,Win32,120.4819277,,,,,,,,,,,,,,,,,,,,,,,,,,,,,,,,,,,,,,,,,,,,i,1,1.0368,0,69,69,51,1,我的,i,,,,,,,,,,,,
,,,,,,,,,,,,,,1,001,2025-01-02_11h30.18.310,IAT(Formal),2021.2.3,Win32,120.4819277,,,,,,,,,,,,,,,,,,,,,,,,,,,,,,,,,,,,,,,,,,,,i,1,0.5022,0,70,70,63,1,自己,i,,,,,,,,,,,,
,,,,,,,,,,,,,,1,001,2025-01-02_11h30.18.310,IAT(Formal),2021.2.3,Win32,120.4819277,,,,,,,,,,,,,,,,,,,,,,,,,,,,,,,,,,,,,,,,,,,,e,1,1.0402,0,71,71,77,1,他的,e,,,,,,,,,,,,
,,,,,,,,,,,,,,1,001,2025-01-02_11h30.18.310,IAT(Formal),2021.2.3,Win32,120.4819277,,,,,,,,,,,,,,,,,,,,,,,,,,,,,,,,,,,,,,,,,,,,i,1,0.6422,0,72,72,74,1,俺,i,,,,,,,,,,,,
,,,,,,,,,,,,,,1,001,2025-01-02_11h30.18.310,IAT(Formal),2021.2.3,Win32,120.4819277,,,,,,,,,,,,,,,,,,,,,,,,,,,,,,,,,,,,,,,,,,,,i,1,0.626,0,73,73,37,1,傲慢,i,,,,,,,,,,,,
,,,,,,,,,,,,,,1,001,2025-01-02_11h30.18.310,IAT(Formal),2021.2.3,Win32,120.4819277,,,,,,,,,,,,,,,,,,,,,,,,,,,,,,,,,,,,,,,,,,,,i,1,1.0185,0,74,74,32,1,愚蠢,i,,,,,,,,,,,,
,,,,,,,,,,,,,,1,001,2025-01-02_11h30.18.310,IAT(Formal),2021.2.3,Win32,120.4819277,,,,,,,,,,,,,,,,,,,,,,,,,,,,,,,,,,,,,,,,,,,,e,1,0.8092,0,75,75,9,1,其他,e,,,,,,,,,,,,
,,,,,,,,,,,,,,1,001,2025-01-02_11h30.18.310,IAT(Formal),2021.2.3,Win32,120.4819277,,,,,,,,,,,,,,,,,,,,,,,,,,,,,,,,,,,,,,,,,,,,i,1,0.6014,0,76,76,34,1,悲观,i,,,,,,,,,,,,
,,,,,,,,,,,,,,1,001,2025-01-02_11h30.18.310,IAT(Formal),2021.2.3,Win32,120.4819277,,,,,,,,,,,,,,,,,,,,,,,,,,,,,,,,,,,,,,,,,,,,e,1,0.6641,0,77,77,20,1,认真,e,,,,,,,,,,,,
,,,,,,,,,,,,,,1,001,2025-01-02_11h30.18.310,IAT(Formal),2021.2.3,Win32,120.4819277,,,,,,,,,,,,,,,,,,,,,,,,,,,,,,,,,,,,,,,,,,,,i,0,0.797,0,78,78,16,1,正直,e,,,,,,,,,,,,
,,,,,,,,,,,,,,1,001,2025-01-02_11h30.18.310,IAT(Formal),2021.2.3,Win32,120.4819277,,,,,,,,,,,,,,,,,,,,,,,,,,,,,,,,,,,,,,,,,,,,i,1,0.6054,0,79,79,71,1,我的,i,,,,,,,,,,,,
,,,,,,,,,,,,,,1,001,2025-01-02_11h30.18.310,IAT(Formal),2021.2.3,Win32,120.4819277,,,,,,,,,,,,,,,,,,,,,,,,,,,,,,,,,,,,,,,,,,,,,,,,,,,,我,i,space,43.9879,i,1,0.733,0,0,0,0,1,,
,,,,,,,,,,,,,,1,001,2025-01-02_11h30.18.310,IAT(Formal),2021.2.3,Win32,120.4819277,,,,,,,,,,,,,,,,,,,,,,,,,,,,,,,,,,,,,,,,,,,,,,,,,,,,自己,i,,,i,1,0.6179,0,1,1,73,1,,
,,,,,,,,,,,,,,1,001,2025-01-02_11h30.18.310,IAT(Formal),2021.2.3,Win32,120.4819277,,,,,,,,,,,,,,,,,,,,,,,,,,,,,,,,,,,,,,,,,,,,,,,,,,,,他人,e,,,e,1,0.6597,0,2,2,58,1,,
,,,,,,,,,,,,,,1,001,2025-01-02_11h30.18.310,IAT(Formal),2021.2.3,Win32,120.4819277,,,,,,,,,,,,,,,,,,,,,,,,,,,,,,,,,,,,,,,,,,,,,,,,,,,,机智,e,,,e,1,0.8179,0,3,3,19,1,,
,,,,,,,,,,,,,,1,001,2025-01-02_11h30.18.310,IAT(Formal),2021.2.3,Win32,120.4819277,,,,,,,,,,,,,,,,,,,,,,,,,,,,,,,,,,,,,,,,,,,,,,,,,,,,猖狂,i,,,i,1,0.5267,0,4,4,45,1,,
,,,,,,,,,,,,,,1,001,2025-01-02_11h30.18.310,IAT(Formal),2021.2.3,Win32,120.4819277,,,,,,,,,,,,,,,,,,,,,,,,,,,,,,,,,,,,,,,,,,,,,,,,,,,,冒失,i,,,i,1,0.7915,0,5,5,39,1,,
,,,,,,,,,,,,,,1,001,2025-01-02_11h30.18.310,IAT(Formal),2021.2.3,Win32,120.4819277,,,,,,,,,,,,,,,,,,,,,,,,,,,,,,,,,,,,,,,,,,,,,,,,,,,,消极,i,,,i,1,0.5174,0,6,6,35,1,,
,,,,,,,,,,,,,,1,001,2025-01-02_11h30.18.310,IAT(Formal),2021.2.3,Win32,120.4819277,,,,,,,,,,,,,,,,,,,,,,,,,,,,,,,,,,,,,,,,,,,,,,,,,,,,优秀,e,,,e,1,0.5601,0,7,7,10,1,,
,,,,,,,,,,,,,,1,001,2025-01-02_11h30.18.310,IAT(Formal),2021.2.3,Win32,120.4819277,,,,,,,,,,,,,,,,,,,,,,,,,,,,,,,,,,,,,,,,,,,,,,,,,,,,我们,i,,,e,0,0.4493,0,8,8,2,1,,
,,,,,,,,,,,,,,1,001,2025-01-02_11h30.18.310,IAT(Formal),2021.2.3,Win32,120.4819277,,,,,,,,,,,,,,,,,,,,,,,,,,,,,,,,,,,,,,,,,,,,,,,,,,,,执拗,i,,,i,1,1.274,0,9,9,40,1,,
,,,,,,,,,,,,,,1,001,2025-01-02_11h30.18.310,IAT(Formal),2021.2.3,Win32,120.4819277,,,,,,,,,,,,,,,,,,,,,,,,,,,,,,,,,,,,,,,,,,,,,,,,,,,,鲁莽,i,,,i,1,0.9913,0,10,10,38,1,,
,,,,,,,,,,,,,,1,001,2025-01-02_11h30.18.310,IAT(Formal),2021.2.3,Win32,120.4819277,,,,,,,,,,,,,,,,,,,,,,,,,,,,,,,,,,,,,,,,,,,,,,,,,,,,轻率,i,,,i,1,0.6491,0,11,11,48,1,,
,,,,,,,,,,,,,,1,001,2025-01-02_11h30.18.310,IAT(Formal),2021.2.3,Win32,120.4819277,,,,,,,,,,,,,,,,,,,,,,,,,,,,,,,,,,,,,,,,,,,,,,,,,,,,稳重,e,,,e,1,0.7103,0,12,12,21,1,,
,,,,,,,,,,,,,,1,001,2025-01-02_11h30.18.310,IAT(Formal),2021.2.3,Win32,120.4819277,,,,,,,,,,,,,,,,,,,,,,,,,,,,,,,,,,,,,,,,,,,,,,,,,,,,虚伪,i,,,i,1,0.6181,0,13,13,31,1,,
,,,,,,,,,,,,,,1,001,2025-01-02_11h30.18.310,IAT(Formal),2021.2.3,Win32,120.4819277,,,,,,,,,,,,,,,,,,,,,,,,,,,,,,,,,,,,,,,,,,,,,,,,,,,,乐观,e,,,e,1,1.3179,0,14,14,14,1,,
,,,,,,,,,,,,,,1,001,2025-01-02_11h30.18.310,IAT(Formal),2021.2.3,Win32,120.4819277,,,,,,,,,,,,,,,,,,,,,,,,,,,,,,,,,,,,,,,,,,,,,,,,,,,,俺,i,,,i,1,0.7776,0,15,15,54,1,,
,,,,,,,,,,,,,,1,001,2025-01-02_11h30.18.310,IAT(Formal),2021.2.3,Win32,120.4819277,,,,,,,,,,,,,,,,,,,,,,,,,,,,,,,,,,,,,,,,,,,,,,,,,,,,散漫,i,,,i,1,0.5527,0,16,16,41,1,,
,,,,,,,,,,,,,,1,001,2025-01-02_11h30.18.310,IAT(Formal),2021.2.3,Win32,120.4819277,,,,,,,,,,,,,,,,,,,,,,,,,,,,,,,,,,,,,,,,,,,,,,,,,,,,俺,i,,,e,0,0.6853,0,17,17,64,1,,
,,,,,,,,,,,,,,1,001,2025-01-02_11h30.18.310,IAT(Formal),2021.2.3,Win32,120.4819277,,,,,,,,,,,,,,,,,,,,,,,,,,,,,,,,,,,,,,,,,,,,,,,,,,,,自卑,i,,,i,1,1.0346,0,18,18,36,1,,
,,,,,,,,,,,,,,1,001,2025-01-02_11h30.18.310,IAT(Formal),2021.2.3,Win32,120.4819277,,,,,,,,,,,,,,,,,,,,,,,,,,,,,,,,,,,,,,,,,,,,,,,,,,,,俺,i,,,i,1,0.4932,0,19,19,4,1,,
,,,,,,,,,,,,,,1,001,2025-01-02_11h30.18.310,IAT(Formal),2021.2.3,Win32,120.4819277,,,,,,,,,,,,,,,,,,,,,,,,,,,,,,,,,,,,,,,,,,,,,,,,,,,,他们,e,,,e,1,0.6929,0,20,20,6,1,,
,,,,,,,,,,,,,,1,001,2025-01-02_11h30.18.310,IAT(Formal),2021.2.3,Win32,120.4819277,,,,,,,,,,,,,,,,,,,,,,,,,,,,,,,,,,,,,,,,,,,,,,,,,,,,冷静,e,,,e,1,0.6468,0,21,21,26,1,,
,,,,,,,,,,,,,,1,001,2025-01-02_11h30.18.310,IAT(Formal),2021.2.3,Win32,120.4819277,,,,,,,,,,,,,,,,,,,,,,,,,,,,,,,,,,,,,,,,,,,,,,,,,,,,我们,i,,,i,1,0.6251,0,22,22,52,1,,
,,,,,,,,,,,,,,1,001,2025-01-02_11h30.18.310,IAT(Formal),2021.2.3,Win32,120.4819277,,,,,,,,,,,,,,,,,,,,,,,,,,,,,,,,,,,,,,,,,,,,,,,,,,,,我们,i,,,i,1,0.5395,0,23,23,62,1,,
,,,,,,,,,,,,,,1,001,2025-01-02_11h30.18.310,IAT(Formal),2021.2.3,Win32,120.4819277,,,,,,,,,,,,,,,,,,,,,,,,,,,,,,,,,,,,,,,,,,,,,,,,,,,,我,i,,,i,1,0.592,0,24,24,70,1,,
,,,,,,,,,,,,,,1,001,2025-01-02_11h30.18.310,IAT(Formal),2021.2.3,Win32,120.4819277,,,,,,,,,,,,,,,,,,,,,,,,,,,,,,,,,,,,,,,,,,,,,,,,,,,,自己,i,,,i,1,0.5197,0,25,25,53,1,,
,,,,,,,,,,,,,,1,001,2025-01-02_11h30.18.310,IAT(Formal),2021.2.3,Win32,120.4819277,,,,,,,,,,,,,,,,,,,,,,,,,,,,,,,,,,,,,,,,,,,,,,,,,,,,其他,e,,,,0,,0,26,26,79,1,,
,,,,,,,,,,,,,,1,001,2025-01-02_11h30.18.310,IAT(Formal),2021.2.3,Win32,120.4819277,,,,,,,,,,,,,,,,,,,,,,,,,,,,,,,,,,,,,,,,,,,,,,,,,,,,我,i,,,i,1,0.4852,0,27,27,60,1,,
,,,,,,,,,,,,,,1,001,2025-01-02_11h30.18.310,IAT(Formal),2021.2.3,Win32,120.4819277,,,,,,,,,,,,,,,,,,,,,,,,,,,,,,,,,,,,,,,,,,,,,,,,,,,,他们,e,,,e,1,0.521,0,28,28,56,1,,
,,,,,,,,,,,,,,1,001,2025-01-02_11h30.18.310,IAT(Formal),2021.2.3,Win32,120.4819277,,,,,,,,,,,,,,,,,,,,,,,,,,,,,,,,,,,,,,,,,,,,,,,,,,,,其他,e,,,e,1,0.7174,0,29,29,9,1,,
,,,,,,,,,,,,,,1,001,2025-01-02_11h30.18.310,IAT(Formal),2021.2.3,Win32,120.4819277,,,,,,,,,,,,,,,,,,,,,,,,,,,,,,,,,,,,,,,,,,,,,,,,,,,,他人,e,,,i,0,0.7919,0,30,30,78,1,,
,,,,,,,,,,,,,,1,001,2025-01-02_11h30.18.310,IAT(Formal),2021.2.3,Win32,120.4819277,,,,,,,,,,,,,,,,,,,,,,,,,,,,,,,,,,,,,,,,,,,,,,,,,,,,野蛮,i,,,i,1,0.8276,0,31,31,46,1,,
,,,,,,,,,,,,,,1,001,2025-01-02_11h30.18.310,IAT(Formal),2021.2.3,Win32,120.4819277,,,,,,,,,,,,,,,,,,,,,,,,,,,,,,,,,,,,,,,,,,,,,,,,,,,,勤奋,e,,,e,1,0.5005,0,32,32,18,1,,
,,,,,,,,,,,,,,1,001,2025-01-02_11h30.18.310,IAT(Formal),2021.2.3,Win32,120.4819277,,,,,,,,,,,,,,,,,,,,,,,,,,,,,,,,,,,,,,,,,,,,,,,,,,,,我的,i,,,i,1,1.2596,0,33,33,71,1,,
,,,,,,,,,,,,,,1,001,2025-01-02_11h30.18.310,IAT(Formal),2021.2.3,Win32,120.4819277,,,,,,,,,,,,,,,,,,,,,,,,,,,,,,,,,,,,,,,,,,,,,,,,,,,,俺,i,,,i,1,0.5844,0,34,34,74,1,,
,,,,,,,,,,,,,,1,001,2025-01-02_11h30.18.310,IAT(Formal),2021.2.3,Win32,120.4819277,,,,,,,,,,,,,,,,,,,,,,,,,,,,,,,,,,,,,,,,,,,,,,,,,,,,诚实,e,,,e,1,0.7978,0,35,35,15,1,,
,,,,,,,,,,,,,,1,001,2025-01-02_11h30.18.310,IAT(Formal),2021.2.3,Win32,120.4819277,,,,,,,,,,,,,,,,,,,,,,,,,,,,,,,,,,,,,,,,,,,,,,,,,,,,细腻,e,,,e,1,0.6076,0,36,36,25,1,,
,,,,,,,,,,,,,,1,001,2025-01-02_11h30.18.310,IAT(Formal),2021.2.3,Win32,120.4819277,,,,,,,,,,,,,,,,,,,,,,,,,,,,,,,,,,,,,,,,,,,,,,,,,,,,公正,e,,,e,1,0.53,0,37,37,23,1,,
,,,,,,,,,,,,,,1,001,2025-01-02_11h30.18.310,IAT(Formal),2021.2.3,Win32,120.4819277,,,,,,,,,,,,,,,,,,,,,,,,,,,,,,,,,,,,,,,,,,,,,,,,,,,,刻薄,i,,,i,1,0.5351,0,38,38,33,1,,
,,,,,,,,,,,,,,1,001,2025-01-02_11h30.18.310,IAT(Formal),2021.2.3,Win32,120.4819277,,,,,,,,,,,,,,,,,,,,,,,,,,,,,,,,,,,,,,,,,,,,,,,,,,,,他人,e,,,e,1,0.4709,0,39,39,8,1,,
,,,,,,,,,,,,,,1,001,2025-01-02_11h30.18.310,IAT(Formal),2021.2.3,Win32,120.4819277,,,,,,,,,,,,,,,,,,,,,,,,,,,,,,,,,,,,,,,,,,,,,,,,,,,,其他,e,,,i,0,0.7085,0,40,40,69,1,,
,,,,,,,,,,,,,,1,001,2025-01-02_11h30.18.310,IAT(Formal),2021.2.3,Win32,120.4819277,,,,,,,,,,,,,,,,,,,,,,,,,,,,,,,,,,,,,,,,,,,,,,,,,,,,他,e,,,e,1,0.5177,0,41,41,65,1,,
,,,,,,,,,,,,,,1,001,2025-01-02_11h30.18.310,IAT(Formal),2021.2.3,Win32,120.4819277,,,,,,,,,,,,,,,,,,,,,,,,,,,,,,,,,,,,,,,,,,,,,,,,,,,,朴实,e,,,i,0,0.5515,0,42,42,24,1,,
,,,,,,,,,,,,,,1,001,2025-01-02_11h30.18.310,IAT(Formal),2021.2.3,Win32,120.4819277,,,,,,,,,,,,,,,,,,,,,,,,,,,,,,,,,,,,,,,,,,,,,,,,,,,,凶狠,i,,,i,1,0.7849,0,43,43,42,1,,
,,,,,,,,,,,,,,1,001,2025-01-02_11h30.18.310,IAT(Formal),2021.2.3,Win32,120.4819277,,,,,,,,,,,,,,,,,,,,,,,,,,,,,,,,,,,,,,,,,,,,,,,,,,,,无私,e,,,,0,,0,44,44,22,1,,
,,,,,,,,,,,,,,1,001,2025-01-02_11h30.18.310,IAT(Formal),2021.2.3,Win32,120.4819277,,,,,,,,,,,,,,,,,,,,,,,,,,,,,,,,,,,,,,,,,,,,,,,,,,,,聪明,e,,,e,1,0.4425,0,45,45,12,1,,
,,,,,,,,,,,,,,1,001,2025-01-02_11h30.18.310,IAT(Formal),2021.2.3,Win32,120.4819277,,,,,,,,,,,,,,,,,,,,,,,,,,,,,,,,,,,,,,,,,,,,,,,,,,,,勇敢,e,,,e,1,0.6679,0,46,46,17,1,,
,,,,,,,,,,,,,,1,001,2025-01-02_11h30.18.310,IAT(Formal),2021.2.3,Win32,120.4819277,,,,,,,,,,,,,,,,,,,,,,,,,,,,,,,,,,,,,,,,,,,,,,,,,,,,热情,e,,,e,1,0.5171,0,47,47,27,1,,
,,,,,,,,,,,,,,1,001,2025-01-02_11h30.18.310,IAT(Formal),2021.2.3,Win32,120.4819277,,,,,,,,,,,,,,,,,,,,,,,,,,,,,,,,,,,,,,,,,,,,,,,,,,,,傲慢,i,,,i,1,0.5533,0,48,48,37,1,,
,,,,,,,,,,,,,,1,001,2025-01-02_11h30.18.310,IAT(Formal),2021.2.3,Win32,120.4819277,,,,,,,,,,,,,,,,,,,,,,,,,,,,,,,,,,,,,,,,,,,,,,,,,,,,自己,i,,,i,1,0.9638,0,49,49,3,1,,
,,,,,,,,,,,,,,1,001,2025-01-02_11h30.18.310,IAT(Formal),2021.2.3,Win32,120.4819277,,,,,,,,,,,,,,,,,,,,,,,,,,,,,,,,,,,,,,,,,,,,,,,,,,,,他们,e,,,e,1,0.552,0,50,50,66,1,,
,,,,,,,,,,,,,,1,001,2025-01-02_11h30.18.310,IAT(Formal),2021.2.3,Win32,120.4819277,,,,,,,,,,,,,,,,,,,,,,,,,,,,,,,,,,,,,,,,,,,,,,,,,,,,自私,i,,,i,1,0.4852,0,51,51,43,1,,
,,,,,,,,,,,,,,1,001,2025-01-02_11h30.18.310,IAT(Formal),2021.2.3,Win32,120.4819277,,,,,,,,,,,,,,,,,,,,,,,,,,,,,,,,,,,,,,,,,,,,,,,,,,,,他的,e,,,i,0,0.6862,0,52,52,77,1,,
,,,,,,,,,,,,,,1,001,2025-01-02_11h30.18.310,IAT(Formal),2021.2.3,Win32,120.4819277,,,,,,,,,,,,,,,,,,,,,,,,,,,,,,,,,,,,,,,,,,,,,,,,,,,,他,e,,,e,1,0.9562,0,53,53,75,1,,
,,,,,,,,,,,,,,1,001,2025-01-02_11h30.18.310,IAT(Formal),2021.2.3,Win32,120.4819277,,,,,,,,,,,,,,,,,,,,,,,,,,,,,,,,,,,,,,,,,,,,,,,,,,,,我的,i,,,e,0,0.5114,0,54,54,51,1,,
,,,,,,,,,,,,,,1,001,2025-01-02_11h30.18.310,IAT(Formal),2021.2.3,Win32,120.4819277,,,,,,,,,,,,,,,,,,,,,,,,,,,,,,,,,,,,,,,,,,,,,,,,,,,,其他,e,,,,0,,0,55,55,59,1,,
,,,,,,,,,,,,,,1,001,2025-01-02_11h30.18.310,IAT(Formal),2021.2.3,Win32,120.4819277,,,,,,,,,,,,,,,,,,,,,,,,,,,,,,,,,,,,,,,,,,,,,,,,,,,,卑鄙,i,,,i,1,0.7138,0,56,56,30,1,,
,,,,,,,,,,,,,,1,001,2025-01-02_11h30.18.310,IAT(Formal),2021.2.3,Win32,120.4819277,,,,,,,,,,,,,,,,,,,,,,,,,,,,,,,,,,,,,,,,,,,,,,,,,,,,我们,i,,,i,1,1.0008,0,57,57,72,1,,
,,,,,,,,,,,,,,1,001,2025-01-02_11h30.18.310,IAT(Formal),2021.2.3,Win32,120.4819277,,,,,,,,,,,,,,,,,,,,,,,,,,,,,,,,,,,,,,,,,,,,,,,,,,,,他的,e,,,e,1,0.6921,0,58,58,57,1,,
,,,,,,,,,,,,,,1,001,2025-01-02_11h30.18.310,IAT(Formal),2021.2.3,Win32,120.4819277,,,,,,,,,,,,,,,,,,,,,,,,,,,,,,,,,,,,,,,,,,,,,,,,,,,,他,e,,,e,1,0.5097,0,59,59,55,1,,
,,,,,,,,,,,,,,1,001,2025-01-02_11h30.18.310,IAT(Formal),2021.2.3,Win32,120.4819277,,,,,,,,,,,,,,,,,,,,,,,,,,,,,,,,,,,,,,,,,,,,,,,,,,,,崇高,e,,,i,0,0.5087,0,60,60,11,1,,
,,,,,,,,,,,,,,1,001,2025-01-02_11h30.18.310,IAT(Formal),2021.2.3,Win32,120.4819277,,,,,,,,,,,,,,,,,,,,,,,,,,,,,,,,,,,,,,,,,,,,,,,,,,,,他们,e,,,e,1,0.7506,0,61,61,76,1,,
,,,,,,,,,,,,,,1,001,2025-01-02_11h30.18.310,IAT(Formal),2021.2.3,Win32,120.4819277,,,,,,,,,,,,,,,,,,,,,,,,,,,,,,,,,,,,,,,,,,,,,,,,,,,,我,i,,,i,1,0.5637,0,62,62,50,1,,
,,,,,,,,,,,,,,1,001,2025-01-02_11h30.18.310,IAT(Formal),2021.2.3,Win32,120.4819277,,,,,,,,,,,,,,,,,,,,,,,,,,,,,,,,,,,,,,,,,,,,,,,,,,,,我的,i,,,i,1,0.6092,0,63,63,1,1,,
,,,,,,,,,,,,,,1,001,2025-01-02_11h30.18.310,IAT(Formal),2021.2.3,Win32,120.4819277,,,,,,,,,,,,,,,,,,,,,,,,,,,,,,,,,,,,,,,,,,,,,,,,,,,,暴躁,i,,,i,1,0.8589,0,64,64,44,1,,
,,,,,,,,,,,,,,1,001,2025-01-02_11h30.18.310,IAT(Formal),2021.2.3,Win32,120.4819277,,,,,,,,,,,,,,,,,,,,,,,,,,,,,,,,,,,,,,,,,,,,,,,,,,,,他人,e,,,e,1,0.4816,0,65,65,68,1,,
,,,,,,,,,,,,,,1,001,2025-01-02_11h30.18.310,IAT(Formal),2021.2.3,Win32,120.4819277,,,,,,,,,,,,,,,,,,,,,,,,,,,,,,,,,,,,,,,,,,,,,,,,,,,,认真,e,,,e,1,0.6571,0,66,66,20,1,,
,,,,,,,,,,,,,,1,001,2025-01-02_11h30.18.310,IAT(Formal),2021.2.3,Win32,120.4819277,,,,,,,,,,,,,,,,,,,,,,,,,,,,,,,,,,,,,,,,,,,,,,,,,,,,杰出,e,,,e,1,0.5329,0,67,67,13,1,,
,,,,,,,,,,,,,,1,001,2025-01-02_11h30.18.310,IAT(Formal),2021.2.3,Win32,120.4819277,,,,,,,,,,,,,,,,,,,,,,,,,,,,,,,,,,,,,,,,,,,,,,,,,,,,固执,i,,,i,1,0.5266,0,68,68,47,1,,
,,,,,,,,,,,,,,1,001,2025-01-02_11h30.18.310,IAT(Formal),2021.2.3,Win32,120.4819277,,,,,,,,,,,,,,,,,,,,,,,,,,,,,,,,,,,,,,,,,,,,,,,,,,,,活泼,e,,,e,1,0.7054,0,69,69,28,1,,
,,,,,,,,,,,,,,1,001,2025-01-02_11h30.18.310,IAT(Formal),2021.2.3,Win32,120.4819277,,,,,,,,,,,,,,,,,,,,,,,,,,,,,,,,,,,,,,,,,,,,,,,,,,,,他的,e,,,e,1,0.599,0,70,70,67,1,,
,,,,,,,,,,,,,,1,001,2025-01-02_11h30.18.310,IAT(Formal),2021.2.3,Win32,120.4819277,,,,,,,,,,,,,,,,,,,,,,,,,,,,,,,,,,,,,,,,,,,,,,,,,,,,他的,e,,,i,0,0.6768,0,71,71,7,1,,
,,,,,,,,,,,,,,1,001,2025-01-02_11h30.18.310,IAT(Formal),2021.2.3,Win32,120.4819277,,,,,,,,,,,,,,,,,,,,,,,,,,,,,,,,,,,,,,,,,,,,,,,,,,,,悲观,i,,,i,1,0.5755,0,72,72,34,1,,
,,,,,,,,,,,,,,1,001,2025-01-02_11h30.18.310,IAT(Formal),2021.2.3,Win32,120.4819277,,,,,,,,,,,,,,,,,,,,,,,,,,,,,,,,,,,,,,,,,,,,,,,,,,,,正直,e,,,e,1,0.5036,0,73,73,16,1,,
,,,,,,,,,,,,,,1,001,2025-01-02_11h30.18.310,IAT(Formal),2021.2.3,Win32,120.4819277,,,,,,,,,,,,,,,,,,,,,,,,,,,,,,,,,,,,,,,,,,,,,,,,,,,,自己,i,,,i,1,0.8188,0,74,74,63,1,,
,,,,,,,,,,,,,,1,001,2025-01-02_11h30.18.310,IAT(Formal),2021.2.3,Win32,120.4819277,,,,,,,,,,,,,,,,,,,,,,,,,,,,,,,,,,,,,,,,,,,,,,,,,,,,下贱,i,,,i,1,0.5837,0,75,75,49,1,,
,,,,,,,,,,,,,,1,001,2025-01-02_11h30.18.310,IAT(Formal),2021.2.3,Win32,120.4819277,,,,,,,,,,,,,,,,,,,,,,,,,,,,,,,,,,,,,,,,,,,,,,,,,,,,诚恳,e,,,e,1,0.6435,0,76,76,29,1,,
,,,,,,,,,,,,,,1,001,2025-01-02_11h30.18.310,IAT(Formal),2021.2.3,Win32,120.4819277,,,,,,,,,,,,,,,,,,,,,,,,,,,,,,,,,,,,,,,,,,,,,,,,,,,,愚蠢,i,,,i,1,0.5391,0,77,77,32,1,,
,,,,,,,,,,,,,,1,001,2025-01-02_11h30.18.310,IAT(Formal),2021.2.3,Win32,120.4819277,,,,,,,,,,,,,,,,,,,,,,,,,,,,,,,,,,,,,,,,,,,,,,,,,,,,我的,i,,,i,1,0.7306,0,78,78,61,1,,
,,,,,,,,,,,,,,1,001,2025-01-02_11h30.18.310,IAT(Formal),2021.2.3,Win32,120.4819277,,,,,,,,,,,,,,,,,,,,,,,,,,,,,,,,,,,,,,,,,,,,,,,,,,,,他,e,,,i,0,0.6089,0,79,79,5,1,,
,,,,,,,,,,,,,,1,001,2025-01-02_11h30.18.310,IAT(Formal),2021.2.3,Win32,120.4819277,,,,,,,,,,,,,,,,,,,,,,,,,,,,,,,,,,,,,,,,,,,,,,,,,,,,自己,i,,,i,1,0.5268,1,0,80,53,1,,
,,,,,,,,,,,,,,1,001,2025-01-02_11h30.18.310,IAT(Formal),2021.2.3,Win32,120.4819277,,,,,,,,,,,,,,,,,,,,,,,,,,,,,,,,,,,,,,,,,,,,,,,,,,,,公正,e,,,e,1,0.6454,1,1,81,23,1,,
,,,,,,,,,,,,,,1,001,2025-01-02_11h30.18.310,IAT(Formal),2021.2.3,Win32,120.4819277,,,,,,,,,,,,,,,,,,,,,,,,,,,,,,,,,,,,,,,,,,,,,,,,,,,,悲观,i,,,i,1,0.5181,1,2,82,34,1,,
,,,,,,,,,,,,,,1,001,2025-01-02_11h30.18.310,IAT(Formal),2021.2.3,Win32,120.4819277,,,,,,,,,,,,,,,,,,,,,,,,,,,,,,,,,,,,,,,,,,,,,,,,,,,,他人,e,,,i,0,0.8838,1,3,83,58,1,,
,,,,,,,,,,,,,,1,001,2025-01-02_11h30.18.310,IAT(Formal),2021.2.3,Win32,120.4819277,,,,,,,,,,,,,,,,,,,,,,,,,,,,,,,,,,,,,,,,,,,,,,,,,,,,自私,i,,,e,0,0.5172,1,4,84,43,1,,
,,,,,,,,,,,,,,1,001,2025-01-02_11h30.18.310,IAT(Formal),2021.2.3,Win32,120.4819277,,,,,,,,,,,,,,,,,,,,,,,,,,,,,,,,,,,,,,,,,,,,,,,,,,,,野蛮,i,,,i,1,0.6421,1,5,85,46,1,,
,,,,,,,,,,,,,,1,001,2025-01-02_11h30.18.310,IAT(Formal),2021.2.3,Win32,120.4819277,,,,,,,,,,,,,,,,,,,,,,,,,,,,,,,,,,,,,,,,,,,,,,,,,,,,他的,e,,,e,1,0.5507,1,6,86,57,1,,
,,,,,,,,,,,,,,1,001,2025-01-02_11h30.18.310,IAT(Formal),2021.2.3,Win32,120.4819277,,,,,,,,,,,,,,,,,,,,,,,,,,,,,,,,,,,,,,,,,,,,,,,,,,,,他,e,,,e,1,0.6437,1,7,87,55,1,,
,,,,,,,,,,,,,,1,001,2025-01-02_11h30.18.310,IAT(Formal),2021.2.3,Win32,120.4819277,,,,,,,,,,,,,,,,,,,,,,,,,,,,,,,,,,,,,,,,,,,,,,,,,,,,我的,i,,,i,1,0.5294,1,8,88,71,1,,
,,,,,,,,,,,,,,1,001,2025-01-02_11h30.18.310,IAT(Formal),2021.2.3,Win32,120.4819277,,,,,,,,,,,,,,,,,,,,,,,,,,,,,,,,,,,,,,,,,,,,,,,,,,,,我,i,,,i,1,0.7095,1,9,89,0,1,,
,,,,,,,,,,,,,,1,001,2025-01-02_11h30.18.310,IAT(Formal),2021.2.3,Win32,120.4819277,,,,,,,,,,,,,,,,,,,,,,,,,,,,,,,,,,,,,,,,,,,,,,,,,,,,猖狂,i,,,i,1,0.837,1,10,90,45,1,,
,,,,,,,,,,,,,,1,001,2025-01-02_11h30.18.310,IAT(Formal),2021.2.3,Win32,120.4819277,,,,,,,,,,,,,,,,,,,,,,,,,,,,,,,,,,,,,,,,,,,,,,,,,,,,暴躁,i,,,i,1,0.5483,1,11,91,44,1,,
,,,,,,,,,,,,,,1,001,2025-01-02_11h30.18.310,IAT(Formal),2021.2.3,Win32,120.4819277,,,,,,,,,,,,,,,,,,,,,,,,,,,,,,,,,,,,,,,,,,,,,,,,,,,,我,i,,,i,1,0.6463,1,12,92,70,1,,
,,,,,,,,,,,,,,1,001,2025-01-02_11h30.18.310,IAT(Formal),2021.2.3,Win32,120.4819277,,,,,,,,,,,,,,,,,,,,,,,,,,,,,,,,,,,,,,,,,,,,,,,,,,,,他人,e,,,e,1,0.4424,1,13,93,8,1,,
,,,,,,,,,,,,,,1,001,2025-01-02_11h30.18.310,IAT(Formal),2021.2.3,Win32,120.4819277,,,,,,,,,,,,,,,,,,,,,,,,,,,,,,,,,,,,,,,,,,,,,,,,,,,,他,e,,,e,1,0.6605,1,14,94,75,1,,
,,,,,,,,,,,,,,1,001,2025-01-02_11h30.18.310,IAT(Formal),2021.2.3,Win32,120.4819277,,,,,,,,,,,,,,,,,,,,,,,,,,,,,,,,,,,,,,,,,,,,,,,,,,,,自己,i,,,i,1,0.6254,1,15,95,3,1,,
,,,,,,,,,,,,,,1,001,2025-01-02_11h30.18.310,IAT(Formal),2021.2.3,Win32,120.4819277,,,,,,,,,,,,,,,,,,,,,,,,,,,,,,,,,,,,,,,,,,,,,,,,,,,,我的,i,,,i,1,0.5088,1,16,96,51,1,,
,,,,,,,,,,,,,,1,001,2025-01-02_11h30.18.310,IAT(Formal),2021.2.3,Win32,120.4819277,,,,,,,,,,,,,,,,,,,,,,,,,,,,,,,,,,,,,,,,,,,,,,,,,,,,他,e,,,e,1,0.5674,1,17,97,5,1,,
,,,,,,,,,,,,,,1,001,2025-01-02_11h30.18.310,IAT(Formal),2021.2.3,Win32,120.4819277,,,,,,,,,,,,,,,,,,,,,,,,,,,,,,,,,,,,,,,,,,,,,,,,,,,,正直,e,,,e,1,0.5863,1,18,98,16,1,,
,,,,,,,,,,,,,,1,001,2025-01-02_11h30.18.310,IAT(Formal),2021.2.3,Win32,120.4819277,,,,,,,,,,,,,,,,,,,,,,,,,,,,,,,,,,,,,,,,,,,,,,,,,,,,我,i,,,i,1,0.9745,1,19,99,50,1,,
,,,,,,,,,,,,,,1,001,2025-01-02_11h30.18.310,IAT(Formal),2021.2.3,Win32,120.4819277,,,,,,,,,,,,,,,,,,,,,,,,,,,,,,,,,,,,,,,,,,,,,,,,,,,,执拗,i,,,e,0,1.0956,1,20,100,40,1,,
,,,,,,,,,,,,,,1,001,2025-01-02_11h30.18.310,IAT(Formal),2021.2.3,Win32,120.4819277,,,,,,,,,,,,,,,,,,,,,,,,,,,,,,,,,,,,,,,,,,,,,,,,,,,,凶狠,i,,,i,1,0.6227,1,21,101,42,1,,
,,,,,,,,,,,,,,1,001,2025-01-02_11h30.18.310,IAT(Formal),2021.2.3,Win32,120.4819277,,,,,,,,,,,,,,,,,,,,,,,,,,,,,,,,,,,,,,,,,,,,,,,,,,,,冷静,e,,,e,1,1.1019,1,22,102,26,1,,
,,,,,,,,,,,,,,1,001,2025-01-02_11h30.18.310,IAT(Formal),2021.2.3,Win32,120.4819277,,,,,,,,,,,,,,,,,,,,,,,,,,,,,,,,,,,,,,,,,,,,,,,,,,,,我们,i,,,i,1,0.8599,1,23,103,52,1,,
,,,,,,,,,,,,,,1,001,2025-01-02_11h30.18.310,IAT(Formal),2021.2.3,Win32,120.4819277,,,,,,,,,,,,,,,,,,,,,,,,,,,,,,,,,,,,,,,,,,,,,,,,,,,,其他,e,,,i,0,0.5516,1,24,104,9,1,,
,,,,,,,,,,,,,,1,001,2025-01-02_11h30.18.310,IAT(Formal),2021.2.3,Win32,120.4819277,,,,,,,,,,,,,,,,,,,,,,,,,,,,,,,,,,,,,,,,,,,,,,,,,,,,崇高,e,,,i,0,0.9607,1,25,105,11,1,,
,,,,,,,,,,,,,,1,001,2025-01-02_11h30.18.310,IAT(Formal),2021.2.3,Win32,120.4819277,,,,,,,,,,,,,,,,,,,,,,,,,,,,,,,,,,,,,,,,,,,,,,,,,,,,冒失,i,,,i,1,0.8042,1,26,106,39,1,,
,,,,,,,,,,,,,,1,001,2025-01-02_11h30.18.310,IAT(Formal),2021.2.3,Win32,120.4819277,,,,,,,,,,,,,,,,,,,,,,,,,,,,,,,,,,,,,,,,,,,,,,,,,,,,俺,i,,,i,1,0.6,1,27,107,54,1,,
,,,,,,,,,,,,,,1,001,2025-01-02_11h30.18.310,IAT(Formal),2021.2.3,Win32,120.4819277,,,,,,,,,,,,,,,,,,,,,,,,,,,,,,,,,,,,,,,,,,,,,,,,,,,,细腻,e,,,e,1,0.7595,1,28,108,25,1,,
,,,,,,,,,,,,,,1,001,2025-01-02_11h30.18.310,IAT(Formal),2021.2.3,Win32,120.4819277,,,,,,,,,,,,,,,,,,,,,,,,,,,,,,,,,,,,,,,,,,,,,,,,,,,,聪明,e,,,e,1,0.3955,1,29,109,12,1,,
,,,,,,,,,,,,,,1,001,2025-01-02_11h30.18.310,IAT(Formal),2021.2.3,Win32,120.4819277,,,,,,,,,,,,,,,,,,,,,,,,,,,,,,,,,,,,,,,,,,,,,,,,,,,,俺,i,,,i,1,0.5509,1,30,110,4,1,,
,,,,,,,,,,,,,,1,001,2025-01-02_11h30.18.310,IAT(Formal),2021.2.3,Win32,120.4819277,,,,,,,,,,,,,,,,,,,,,,,,,,,,,,,,,,,,,,,,,,,,,,,,,,,,诚恳,e,,,e,1,0.4621,1,31,111,29,1,,
,,,,,,,,,,,,,,1,001,2025-01-02_11h30.18.310,IAT(Formal),2021.2.3,Win32,120.4819277,,,,,,,,,,,,,,,,,,,,,,,,,,,,,,,,,,,,,,,,,,,,,,,,,,,,轻率,i,,,i,1,0.6346,1,32,112,48,1,,
,,,,,,,,,,,,,,1,001,2025-01-02_11h30.18.310,IAT(Formal),2021.2.3,Win32,120.4819277,,,,,,,,,,,,,,,,,,,,,,,,,,,,,,,,,,,,,,,,,,,,,,,,,,,,无私,e,,,i,0,0.5375,1,33,113,22,1,,
,,,,,,,,,,,,,,1,001,2025-01-02_11h30.18.310,IAT(Formal),2021.2.3,Win32,120.4819277,,,,,,,,,,,,,,,,,,,,,,,,,,,,,,,,,,,,,,,,,,,,,,,,,,,,认真,e,,,e,1,0.5215,1,34,114,20,1,,
,,,,,,,,,,,,,,1,001,2025-01-02_11h30.18.310,IAT(Formal),2021.2.3,Win32,120.4819277,,,,,,,,,,,,,,,,,,,,,,,,,,,,,,,,,,,,,,,,,,,,,,,,,,,,杰出,e,,,e,1,0.4764,1,35,115,13,1,,
,,,,,,,,,,,,,,1,001,2025-01-02_11h30.18.310,IAT(Formal),2021.2.3,Win32,120.4819277,,,,,,,,,,,,,,,,,,,,,,,,,,,,,,,,,,,,,,,,,,,,,,,,,,,,他人,e,,,i,0,0.4604,1,36,116,68,1,,
,,,,,,,,,,,,,,1,001,2025-01-02_11h30.18.310,IAT(Formal),2021.2.3,Win32,120.4819277,,,,,,,,,,,,,,,,,,,,,,,,,,,,,,,,,,,,,,,,,,,,,,,,,,,,勇敢,e,,,e,1,0.4814,1,37,117,17,1,,
,,,,,,,,,,,,,,1,001,2025-01-02_11h30.18.310,IAT(Formal),2021.2.3,Win32,120.4819277,,,,,,,,,,,,,,,,,,,,,,,,,,,,,,,,,,,,,,,,,,,,,,,,,,,,勤奋,e,,,e,1,0.41,1,38,118,18,1,,
,,,,,,,,,,,,,,1,001,2025-01-02_11h30.18.310,IAT(Formal),2021.2.3,Win32,120.4819277,,,,,,,,,,,,,,,,,,,,,,,,,,,,,,,,,,,,,,,,,,,,,,,,,,,,稳重,e,,,e,1,0.552,1,39,119,21,1,,
,,,,,,,,,,,,,,1,001,2025-01-02_11h30.18.310,IAT(Formal),2021.2.3,Win32,120.4819277,,,,,,,,,,,,,,,,,,,,,,,,,,,,,,,,,,,,,,,,,,,,,,,,,,,,他人,e,,,i,0,0.752,1,40,120,78,1,,
,,,,,,,,,,,,,,1,001,2025-01-02_11h30.18.310,IAT(Formal),2021.2.3,Win32,120.4819277,,,,,,,,,,,,,,,,,,,,,,,,,,,,,,,,,,,,,,,,,,,,,,,,,,,,我的,i,,,e,0,0.41,1,41,121,1,1,,
,,,,,,,,,,,,,,1,001,2025-01-02_11h30.18.310,IAT(Formal),2021.2.3,Win32,120.4819277,,,,,,,,,,,,,,,,,,,,,,,,,,,,,,,,,,,,,,,,,,,,,,,,,,,,其他,e,,,e,1,0.7936,1,42,122,69,1,,
,,,,,,,,,,,,,,1,001,2025-01-02_11h30.18.310,IAT(Formal),2021.2.3,Win32,120.4819277,,,,,,,,,,,,,,,,,,,,,,,,,,,,,,,,,,,,,,,,,,,,,,,,,,,,热情,e,,,e,1,1.2167,1,43,123,27,1,,
,,,,,,,,,,,,,,1,001,2025-01-02_11h30.18.310,IAT(Formal),2021.2.3,Win32,120.4819277,,,,,,,,,,,,,,,,,,,,,,,,,,,,,,,,,,,,,,,,,,,,,,,,,,,,其他,e,,,i,0,0.7598,1,44,124,79,1,,
,,,,,,,,,,,,,,1,001,2025-01-02_11h30.18.310,IAT(Formal),2021.2.3,Win32,120.4819277,,,,,,,,,,,,,,,,,,,,,,,,,,,,,,,,,,,,,,,,,,,,,,,,,,,,他的,e,,,e,1,0.5925,1,45,125,77,1,,
,,,,,,,,,,,,,,1,001,2025-01-02_11h30.18.310,IAT(Formal),2021.2.3,Win32,120.4819277,,,,,,,,,,,,,,,,,,,,,,,,,,,,,,,,,,,,,,,,,,,,,,,,,,,,虚伪,i,,,i,1,0.5008,1,46,126,31,1,,
,,,,,,,,,,,,,,1,001,2025-01-02_11h30.18.310,IAT(Formal),2021.2.3,Win32,120.4819277,,,,,,,,,,,,,,,,,,,,,,,,,,,,,,,,,,,,,,,,,,,,,,,,,,,,自己,i,,,i,1,0.5211,1,47,127,73,1,,
,,,,,,,,,,,,,,1,001,2025-01-02_11h30.18.310,IAT(Formal),2021.2.3,Win32,120.4819277,,,,,,,,,,,,,,,,,,,,,,,,,,,,,,,,,,,,,,,,,,,,,,,,,,,,他,e,,,e,1,0.7934,1,48,128,65,1,,
,,,,,,,,,,,,,,1,001,2025-01-02_11h30.18.310,IAT(Formal),2021.2.3,Win32,120.4819277,,,,,,,,,,,,,,,,,,,,,,,,,,,,,,,,,,,,,,,,,,,,,,,,,,,,愚蠢,i,,,i,1,0.5424,1,49,129,32,1,,
,,,,,,,,,,,,,,1,001,2025-01-02_11h30.18.310,IAT(Formal),2021.2.3,Win32,120.4819277,,,,,,,,,,,,,,,,,,,,,,,,,,,,,,,,,,,,,,,,,,,,,,,,,,,,我们,i,,,i,1,0.484,1,50,130,2,1,,
,,,,,,,,,,,,,,1,001,2025-01-02_11h30.18.310,IAT(Formal),2021.2.3,Win32,120.4819277,,,,,,,,,,,,,,,,,,,,,,,,,,,,,,,,,,,,,,,,,,,,,,,,,,,,固执,i,,,e,0,0.4732,1,51,131,47,1,,
,,,,,,,,,,,,,,1,001,2025-01-02_11h30.18.310,IAT(Formal),2021.2.3,Win32,120.4819277,,,,,,,,,,,,,,,,,,,,,,,,,,,,,,,,,,,,,,,,,,,,,,,,,,,,傲慢,i,,,,0,,1,52,132,37,1,,
,,,,,,,,,,,,,,1,001,2025-01-02_11h30.18.310,IAT(Formal),2021.2.3,Win32,120.4819277,,,,,,,,,,,,,,,,,,,,,,,,,,,,,,,,,,,,,,,,,,,,,,,,,,,,优秀,e,,,e,1,0.7507,1,53,133,10,1,,
,,,,,,,,,,,,,,1,001,2025-01-02_11h30.18.310,IAT(Formal),2021.2.3,Win32,120.4819277,,,,,,,,,,,,,,,,,,,,,,,,,,,,,,,,,,,,,,,,,,,,,,,,,,,,下贱,i,,,i,1,0.5012,1,54,134,49,1,,
,,,,,,,,,,,,,,1,001,2025-01-02_11h30.18.310,IAT(Formal),2021.2.3,Win32,120.4819277,,,,,,,,,,,,,,,,,,,,,,,,,,,,,,,,,,,,,,,,,,,,,,,,,,,,机智,e,,,e,1,0.7929,1,55,135,19,1,,
,,,,,,,,,,,,,,1,001,2025-01-02_11h30.18.310,IAT(Formal),2021.2.3,Win32,120.4819277,,,,,,,,,,,,,,,,,,,,,,,,,,,,,,,,,,,,,,,,,,,,,,,,,,,,活泼,e,,,e,1,0.4606,1,56,136,28,1,,
,,,,,,,,,,,,,,1,001,2025-01-02_11h30.18.310,IAT(Formal),2021.2.3,Win32,120.4819277,,,,,,,,,,,,,,,,,,,,,,,,,,,,,,,,,,,,,,,,,,,,,,,,,,,,俺,i,,,i,1,0.5428,1,57,137,74,1,,
,,,,,,,,,,,,,,1,001,2025-01-02_11h30.18.310,IAT(Formal),2021.2.3,Win32,120.4819277,,,,,,,,,,,,,,,,,,,,,,,,,,,,,,,,,,,,,,,,,,,,,,,,,,,,他们,e,,,e,1,0.8178,1,58,138,6,1,,
,,,,,,,,,,,,,,1,001,2025-01-02_11h30.18.310,IAT(Formal),2021.2.3,Win32,120.4819277,,,,,,,,,,,,,,,,,,,,,,,,,,,,,,,,,,,,,,,,,,,,,,,,,,,,我,i,,,i,1,0.6662,1,59,139,60,1,,
,,,,,,,,,,,,,,1,001,2025-01-02_11h30.18.310,IAT(Formal),2021.2.3,Win32,120.4819277,,,,,,,,,,,,,,,,,,,,,,,,,,,,,,,,,,,,,,,,,,,,,,,,,,,,他们,e,,,e,1,0.6526,1,60,140,56,1,,
,,,,,,,,,,,,,,1,001,2025-01-02_11h30.18.310,IAT(Formal),2021.2.3,Win32,120.4819277,,,,,,,,,,,,,,,,,,,,,,,,,,,,,,,,,,,,,,,,,,,,,,,,,,,,他的,e,,,e,1,0.4847,1,61,141,67,1,,
,,,,,,,,,,,,,,1,001,2025-01-02_11h30.18.310,IAT(Formal),2021.2.3,Win32,120.4819277,,,,,,,,,,,,,,,,,,,,,,,,,,,,,,,,,,,,,,,,,,,,,,,,,,,,诚实,e,,,i,0,0.4351,1,62,142,15,1,,
,,,,,,,,,,,,,,1,001,2025-01-02_11h30.18.310,IAT(Formal),2021.2.3,Win32,120.4819277,,,,,,,,,,,,,,,,,,,,,,,,,,,,,,,,,,,,,,,,,,,,,,,,,,,,我们,i,,,i,1,0.7216,1,63,143,72,1,,
,,,,,,,,,,,,,,1,001,2025-01-02_11h30.18.310,IAT(Formal),2021.2.3,Win32,120.4819277,,,,,,,,,,,,,,,,,,,,,,,,,,,,,,,,,,,,,,,,,,,,,,,,,,,,乐观,e,,,e,1,0.4927,1,64,144,14,1,,
,,,,,,,,,,,,,,1,001,2025-01-02_11h30.18.310,IAT(Formal),2021.2.3,Win32,120.4819277,,,,,,,,,,,,,,,,,,,,,,,,,,,,,,,,,,,,,,,,,,,,,,,,,,,,其他,e,,,i,0,0.5043,1,65,145,59,1,,
,,,,,,,,,,,,,,1,001,2025-01-02_11h30.18.310,IAT(Formal),2021.2.3,Win32,120.4819277,,,,,,,,,,,,,,,,,,,,,,,,,,,,,,,,,,,,,,,,,,,,,,,,,,,,俺,i,,,i,1,0.7087,1,66,146,64,1,,
,,,,,,,,,,,,,,1,001,2025-01-02_11h30.18.310,IAT(Formal),2021.2.3,Win32,120.4819277,,,,,,,,,,,,,,,,,,,,,,,,,,,,,,,,,,,,,,,,,,,,,,,,,,,,消极,i,,,i,1,0.6766,1,67,147,35,1,,
,,,,,,,,,,,,,,1,001,2025-01-02_11h30.18.310,IAT(Formal),2021.2.3,Win32,120.4819277,,,,,,,,,,,,,,,,,,,,,,,,,,,,,,,,,,,,,,,,,,,,,,,,,,,,散漫,i,,,i,1,0.5259,1,68,148,41,1,,
,,,,,,,,,,,,,,1,001,2025-01-02_11h30.18.310,IAT(Formal),2021.2.3,Win32,120.4819277,,,,,,,,,,,,,,,,,,,,,,,,,,,,,,,,,,,,,,,,,,,,,,,,,,,,他们,e,,,e,1,1.2927,1,69,149,76,1,,
,,,,,,,,,,,,,,1,001,2025-01-02_11h30.18.310,IAT(Formal),2021.2.3,Win32,120.4819277,,,,,,,,,,,,,,,,,,,,,,,,,,,,,,,,,,,,,,,,,,,,,,,,,,,,我的,i,,,i,1,0.5679,1,70,150,61,1,,
,,,,,,,,,,,,,,1,001,2025-01-02_11h30.18.310,IAT(Formal),2021.2.3,Win32,120.4819277,,,,,,,,,,,,,,,,,,,,,,,,,,,,,,,,,,,,,,,,,,,,,,,,,,,,我们,i,,,i,1,0.6224,1,71,151,62,1,,
,,,,,,,,,,,,,,1,001,2025-01-02_11h30.18.310,IAT(Formal),2021.2.3,Win32,120.4819277,,,,,,,,,,,,,,,,,,,,,,,,,,,,,,,,,,,,,,,,,,,,,,,,,,,,刻薄,i,,,i,1,0.4937,1,72,152,33,1,,
,,,,,,,,,,,,,,1,001,2025-01-02_11h30.18.310,IAT(Formal),2021.2.3,Win32,120.4819277,,,,,,,,,,,,,,,,,,,,,,,,,,,,,,,,,,,,,,,,,,,,,,,,,,,,他们,e,,,e,1,0.5515,1,73,153,66,1,,
,,,,,,,,,,,,,,1,001,2025-01-02_11h30.18.310,IAT(Formal),2021.2.3,Win32,120.4819277,,,,,,,,,,,,,,,,,,,,,,,,,,,,,,,,,,,,,,,,,,,,,,,,,,,,卑鄙,i,,,i,1,0.4993,1,74,154,30,1,,
,,,,,,,,,,,,,,1,001,2025-01-02_11h30.18.310,IAT(Formal),2021.2.3,Win32,120.4819277,,,,,,,,,,,,,,,,,,,,,,,,,,,,,,,,,,,,,,,,,,,,,,,,,,,,自己,i,,,i,1,0.5419,1,75,155,63,1,,
,,,,,,,,,,,,,,1,001,2025-01-02_11h30.18.310,IAT(Formal),2021.2.3,Win32,120.4819277,,,,,,,,,,,,,,,,,,,,,,,,,,,,,,,,,,,,,,,,,,,,,,,,,,,,鲁莽,i,,,i,1,0.6267,1,76,156,38,1,,
,,,,,,,,,,,,,,1,001,2025-01-02_11h30.18.310,IAT(Formal),2021.2.3,Win32,120.4819277,,,,,,,,,,,,,,,,,,,,,,,,,,,,,,,,,,,,,,,,,,,,,,,,,,,,他的,e,,,e,1,0.5507,1,77,157,7,1,,
,,,,,,,,,,,,,,1,001,2025-01-02_11h30.18.310,IAT(Formal),2021.2.3,Win32,120.4819277,,,,,,,,,,,,,,,,,,,,,,,,,,,,,,,,,,,,,,,,,,,,,,,,,,,,朴实,e,,,e,1,0.8425,1,78,158,24,1,,
,,,,,,,,,,,,,,1,001,2025-01-02_11h30.18.310,IAT(Formal),2021.2.3,Win32,120.4819277,,,,,,,,,,,,,,,,,,,,,,,,,,,,,,,,,,,,,,,,,,,,,,,,,,,,自卑,i,,,i,1,0.5842,1,79,159,36,1,,
,,,,,,,,,,,,,,1,001,2025-01-02_11h30.18.310,IAT(Formal),2021.2.3,Win32,120.4819277,,,,,,,,,,,,,,,,,,,,,,,,,,,,,,,,,,,,,,,,,,,,,,,,,,,,,,,,,,,,,,,,space,1.4167