﻿Instruction1.keys,Instruction1.rt,Instruction2.keys,Instruction2.rt,key_resp_iso.keys,key_resp_iso.corr,key_resp_iso.rt,Practice_01.thisRepN,Practice_01.thisTrialN,Practice_01.thisN,Practice_01.thisIndex,Practice_01.ran,Words,ans,participant,session,date,expName,psychopyVersion,OS,frameRate,key_resp_3.keys,key_resp_3.rt,key_resp_ipn.keys,key_resp_ipn.corr,key_resp_ipn.rt,Practice_02.thisRepN,Practice_02.thisTrialN,Practice_02.thisN,Practice_02.thisIndex,Practice_02.ran,Words_ipn,ans_ipn,key_resp_4.keys,key_resp_4.rt,key_resp_t1.keys,key_resp_t1.corr,key_resp_t1.rt,Practice_T1.thisRepN,Practice_T1.thisTrialN,Practice_T1.thisN,Practice_T1.thisIndex,Practice_T1.ran,Words_t1,ans_t1,key_resp_5.keys,key_resp_5.rt,Formal_T1.thisRepN,Formal_T1.thisTrialN,Formal_T1.thisN,Formal_T1.thisIndex,Formal_T1.ran,key_resp_6.keys,key_resp_6.rt,key_resp_iso_reverse.keys,key_resp_iso_reverse.corr,key_resp_iso_reverse.rt,Practice_iso_Reverse.thisRepN,Practice_iso_Reverse.thisTrialN,Practice_iso_Reverse.thisN,Practice_iso_Reverse.thisIndex,Practice_iso_Reverse.ran,key_resp_7.keys,key_resp_7.rt,key_resp_t2_Practice.keys,key_resp_t2_Practice.corr,key_resp_t2_Practice.rt,Practice_t2_Reverse.thisRepN,Practice_t2_Reverse.thisTrialN,Practice_t2_Reverse.thisN,Practice_t2_Reverse.thisIndex,Practice_t2_Reverse.ran,Words_t2,ans_t2,key_resp_8.keys,key_resp_8.rt,key_resp_t2.keys,key_resp_t2.corr,key_resp_t2.rt,Formal_t2_reverse.thisRepN,Formal_t2_reverse.thisTrialN,Formal_t2_reverse.thisN,Formal_t2_reverse.thisIndex,Formal_t2_reverse.ran,key_instruct.keys,key_instruct.rt
space,7.3824,space,12.4605,i,1,0.583,0,0,0,8,1,他人,i,1,001,2025-01-02_12h23.40.896,IAT(Formal),2021.2.3,Win32,166.6666667,,,,,,,,,,,,,,,,,,,,,,,,,,,,,,,,,,,,,,,,,,,,,,,,,,,,,,,,,,,,,,,,,
,,,,e,1,0.3618,0,1,1,1,1,我的,e,1,001,2025-01-02_12h23.40.896,IAT(Formal),2021.2.3,Win32,166.6666667,,,,,,,,,,,,,,,,,,,,,,,,,,,,,,,,,,,,,,,,,,,,,,,,,,,,,,,,,,,,,,,,,
,,,,i,0,0.3745,0,2,2,4,1,俺,e,1,001,2025-01-02_12h23.40.896,IAT(Formal),2021.2.3,Win32,166.6666667,,,,,,,,,,,,,,,,,,,,,,,,,,,,,,,,,,,,,,,,,,,,,,,,,,,,,,,,,,,,,,,,,
,,,,i,1,0.5574,0,3,3,9,1,其他,i,1,001,2025-01-02_12h23.40.896,IAT(Formal),2021.2.3,Win32,166.6666667,,,,,,,,,,,,,,,,,,,,,,,,,,,,,,,,,,,,,,,,,,,,,,,,,,,,,,,,,,,,,,,,,
,,,,i,1,0.4858,0,4,4,7,1,他的,i,1,001,2025-01-02_12h23.40.896,IAT(Formal),2021.2.3,Win32,166.6666667,,,,,,,,,,,,,,,,,,,,,,,,,,,,,,,,,,,,,,,,,,,,,,,,,,,,,,,,,,,,,,,,,
,,,,e,1,0.3809,0,5,5,3,1,自己,e,1,001,2025-01-02_12h23.40.896,IAT(Formal),2021.2.3,Win32,166.6666667,,,,,,,,,,,,,,,,,,,,,,,,,,,,,,,,,,,,,,,,,,,,,,,,,,,,,,,,,,,,,,,,,
,,,,i,1,0.5037,0,6,6,5,1,他,i,1,001,2025-01-02_12h23.40.896,IAT(Formal),2021.2.3,Win32,166.6666667,,,,,,,,,,,,,,,,,,,,,,,,,,,,,,,,,,,,,,,,,,,,,,,,,,,,,,,,,,,,,,,,,
,,,,e,1,0.4111,0,7,7,2,1,我们,e,1,001,2025-01-02_12h23.40.896,IAT(Formal),2021.2.3,Win32,166.6666667,,,,,,,,,,,,,,,,,,,,,,,,,,,,,,,,,,,,,,,,,,,,,,,,,,,,,,,,,,,,,,,,,
,,,,e,1,0.4091,0,8,8,0,1,我,e,1,001,2025-01-02_12h23.40.896,IAT(Formal),2021.2.3,Win32,166.6666667,,,,,,,,,,,,,,,,,,,,,,,,,,,,,,,,,,,,,,,,,,,,,,,,,,,,,,,,,,,,,,,,,
,,,,i,1,0.3524,0,9,9,6,1,他们,i,1,001,2025-01-02_12h23.40.896,IAT(Formal),2021.2.3,Win32,166.6666667,,,,,,,,,,,,,,,,,,,,,,,,,,,,,,,,,,,,,,,,,,,,,,,,,,,,,,,,,,,,,,,,,
,,,,,,,,,,,,,,1,001,2025-01-02_12h23.40.896,IAT(Formal),2021.2.3,Win32,166.6666667,space,5.062,e,1,0.5665,0,0,0,18,1,活泼,e,,,,,,,,,,,,,,,,,,,,,,,,,,,,,,,,,,,,,,,,,,,,,,,,,,,,,
,,,,,,,,,,,,,,1,001,2025-01-02_12h23.40.896,IAT(Formal),2021.2.3,Win32,166.6666667,,,e,1,0.5229,0,1,1,6,1,正直,e,,,,,,,,,,,,,,,,,,,,,,,,,,,,,,,,,,,,,,,,,,,,,,,,,,,,,
,,,,,,,,,,,,,,1,001,2025-01-02_12h23.40.896,IAT(Formal),2021.2.3,Win32,166.6666667,,,i,1,0.4225,0,2,2,37,1,固执,i,,,,,,,,,,,,,,,,,,,,,,,,,,,,,,,,,,,,,,,,,,,,,,,,,,,,,
,,,,,,,,,,,,,,1,001,2025-01-02_12h23.40.896,IAT(Formal),2021.2.3,Win32,166.6666667,,,i,1,0.4691,0,3,3,38,1,轻率,i,,,,,,,,,,,,,,,,,,,,,,,,,,,,,,,,,,,,,,,,,,,,,,,,,,,,,
,,,,,,,,,,,,,,1,001,2025-01-02_12h23.40.896,IAT(Formal),2021.2.3,Win32,166.6666667,,,e,1,0.5277,0,4,4,10,1,认真,e,,,,,,,,,,,,,,,,,,,,,,,,,,,,,,,,,,,,,,,,,,,,,,,,,,,,,
,,,,,,,,,,,,,,1,001,2025-01-02_12h23.40.896,IAT(Formal),2021.2.3,Win32,166.6666667,,,i,0,0.5763,0,5,5,13,1,公正,e,,,,,,,,,,,,,,,,,,,,,,,,,,,,,,,,,,,,,,,,,,,,,,,,,,,,,
,,,,,,,,,,,,,,1,001,2025-01-02_12h23.40.896,IAT(Formal),2021.2.3,Win32,166.6666667,,,i,0,0.4913,0,6,6,15,1,细腻,e,,,,,,,,,,,,,,,,,,,,,,,,,,,,,,,,,,,,,,,,,,,,,,,,,,,,,
,,,,,,,,,,,,,,1,001,2025-01-02_12h23.40.896,IAT(Formal),2021.2.3,Win32,166.6666667,,,i,1,0.7093,0,7,7,30,1,执拗,i,,,,,,,,,,,,,,,,,,,,,,,,,,,,,,,,,,,,,,,,,,,,,,,,,,,,,
,,,,,,,,,,,,,,1,001,2025-01-02_12h23.40.896,IAT(Formal),2021.2.3,Win32,166.6666667,,,e,1,0.569,0,8,8,19,1,诚恳,e,,,,,,,,,,,,,,,,,,,,,,,,,,,,,,,,,,,,,,,,,,,,,,,,,,,,,
,,,,,,,,,,,,,,1,001,2025-01-02_12h23.40.896,IAT(Formal),2021.2.3,Win32,166.6666667,,,i,1,0.5303,0,9,9,32,1,凶狠,i,,,,,,,,,,,,,,,,,,,,,,,,,,,,,,,,,,,,,,,,,,,,,,,,,,,,,
,,,,,,,,,,,,,,1,001,2025-01-02_12h23.40.896,IAT(Formal),2021.2.3,Win32,166.6666667,,,i,1,0.5037,0,10,10,28,1,鲁莽,i,,,,,,,,,,,,,,,,,,,,,,,,,,,,,,,,,,,,,,,,,,,,,,,,,,,,,
,,,,,,,,,,,,,,1,001,2025-01-02_12h23.40.896,IAT(Formal),2021.2.3,Win32,166.6666667,,,e,1,0.5221,0,11,11,2,1,聪明,e,,,,,,,,,,,,,,,,,,,,,,,,,,,,,,,,,,,,,,,,,,,,,,,,,,,,,
,,,,,,,,,,,,,,1,001,2025-01-02_12h23.40.896,IAT(Formal),2021.2.3,Win32,166.6666667,,,i,0,0.6772,0,12,12,12,1,无私,e,,,,,,,,,,,,,,,,,,,,,,,,,,,,,,,,,,,,,,,,,,,,,,,,,,,,,
,,,,,,,,,,,,,,1,001,2025-01-02_12h23.40.896,IAT(Formal),2021.2.3,Win32,166.6666667,,,i,1,0.5041,0,13,13,25,1,消极,i,,,,,,,,,,,,,,,,,,,,,,,,,,,,,,,,,,,,,,,,,,,,,,,,,,,,,
,,,,,,,,,,,,,,1,001,2025-01-02_12h23.40.896,IAT(Formal),2021.2.3,Win32,166.6666667,,,e,1,0.5274,0,14,14,1,1,崇高,e,,,,,,,,,,,,,,,,,,,,,,,,,,,,,,,,,,,,,,,,,,,,,,,,,,,,,
,,,,,,,,,,,,,,1,001,2025-01-02_12h23.40.896,IAT(Formal),2021.2.3,Win32,166.6666667,,,e,1,0.6555,0,15,15,4,1,乐观,e,,,,,,,,,,,,,,,,,,,,,,,,,,,,,,,,,,,,,,,,,,,,,,,,,,,,,
,,,,,,,,,,,,,,1,001,2025-01-02_12h23.40.896,IAT(Formal),2021.2.3,Win32,166.6666667,,,i,1,0.5595,0,16,16,33,1,自私,i,,,,,,,,,,,,,,,,,,,,,,,,,,,,,,,,,,,,,,,,,,,,,,,,,,,,,
,,,,,,,,,,,,,,1,001,2025-01-02_12h23.40.896,IAT(Formal),2021.2.3,Win32,166.6666667,,,i,1,0.5901,0,17,17,35,1,猖狂,i,,,,,,,,,,,,,,,,,,,,,,,,,,,,,,,,,,,,,,,,,,,,,,,,,,,,,
,,,,,,,,,,,,,,1,001,2025-01-02_12h23.40.896,IAT(Formal),2021.2.3,Win32,166.6666667,,,e,1,0.5916,0,18,18,9,1,机智,e,,,,,,,,,,,,,,,,,,,,,,,,,,,,,,,,,,,,,,,,,,,,,,,,,,,,,
,,,,,,,,,,,,,,1,001,2025-01-02_12h23.40.896,IAT(Formal),2021.2.3,Win32,166.6666667,,,e,1,0.6124,0,19,19,17,1,热情,e,,,,,,,,,,,,,,,,,,,,,,,,,,,,,,,,,,,,,,,,,,,,,,,,,,,,,
,,,,,,,,,,,,,,1,001,2025-01-02_12h23.40.896,IAT(Formal),2021.2.3,Win32,166.6666667,,,i,1,0.5682,0,20,20,20,1,卑鄙,i,,,,,,,,,,,,,,,,,,,,,,,,,,,,,,,,,,,,,,,,,,,,,,,,,,,,,
,,,,,,,,,,,,,,1,001,2025-01-02_12h23.40.896,IAT(Formal),2021.2.3,Win32,166.6666667,,,i,1,0.7868,0,21,21,36,1,野蛮,i,,,,,,,,,,,,,,,,,,,,,,,,,,,,,,,,,,,,,,,,,,,,,,,,,,,,,
,,,,,,,,,,,,,,1,001,2025-01-02_12h23.40.896,IAT(Formal),2021.2.3,Win32,166.6666667,,,e,1,0.5818,0,22,22,7,1,勇敢,e,,,,,,,,,,,,,,,,,,,,,,,,,,,,,,,,,,,,,,,,,,,,,,,,,,,,,
,,,,,,,,,,,,,,1,001,2025-01-02_12h23.40.896,IAT(Formal),2021.2.3,Win32,166.6666667,,,i,1,0.685,0,23,23,22,1,愚蠢,i,,,,,,,,,,,,,,,,,,,,,,,,,,,,,,,,,,,,,,,,,,,,,,,,,,,,,
,,,,,,,,,,,,,,1,001,2025-01-02_12h23.40.896,IAT(Formal),2021.2.3,Win32,166.6666667,,,i,1,0.5883,0,24,24,39,1,下贱,i,,,,,,,,,,,,,,,,,,,,,,,,,,,,,,,,,,,,,,,,,,,,,,,,,,,,,
,,,,,,,,,,,,,,1,001,2025-01-02_12h23.40.896,IAT(Formal),2021.2.3,Win32,166.6666667,,,e,1,0.5455,0,25,25,3,1,杰出,e,,,,,,,,,,,,,,,,,,,,,,,,,,,,,,,,,,,,,,,,,,,,,,,,,,,,,
,,,,,,,,,,,,,,1,001,2025-01-02_12h23.40.896,IAT(Formal),2021.2.3,Win32,166.6666667,,,i,1,0.5141,0,26,26,21,1,虚伪,i,,,,,,,,,,,,,,,,,,,,,,,,,,,,,,,,,,,,,,,,,,,,,,,,,,,,,
,,,,,,,,,,,,,,1,001,2025-01-02_12h23.40.896,IAT(Formal),2021.2.3,Win32,166.6666667,,,i,1,0.664,0,27,27,27,1,傲慢,i,,,,,,,,,,,,,,,,,,,,,,,,,,,,,,,,,,,,,,,,,,,,,,,,,,,,,
,,,,,,,,,,,,,,1,001,2025-01-02_12h23.40.896,IAT(Formal),2021.2.3,Win32,166.6666667,,,i,1,0.5042,0,28,28,23,1,刻薄,i,,,,,,,,,,,,,,,,,,,,,,,,,,,,,,,,,,,,,,,,,,,,,,,,,,,,,
,,,,,,,,,,,,,,1,001,2025-01-02_12h23.40.896,IAT(Formal),2021.2.3,Win32,166.6666667,,,i,1,0.5341,0,29,29,31,1,散漫,i,,,,,,,,,,,,,,,,,,,,,,,,,,,,,,,,,,,,,,,,,,,,,,,,,,,,,
,,,,,,,,,,,,,,1,001,2025-01-02_12h23.40.896,IAT(Formal),2021.2.3,Win32,166.6666667,,,e,1,0.5602,0,30,30,0,1,优秀,e,,,,,,,,,,,,,,,,,,,,,,,,,,,,,,,,,,,,,,,,,,,,,,,,,,,,,
,,,,,,,,,,,,,,1,001,2025-01-02_12h23.40.896,IAT(Formal),2021.2.3,Win32,166.6666667,,,e,1,0.7104,0,31,31,8,1,勤奋,e,,,,,,,,,,,,,,,,,,,,,,,,,,,,,,,,,,,,,,,,,,,,,,,,,,,,,
,,,,,,,,,,,,,,1,001,2025-01-02_12h23.40.896,IAT(Formal),2021.2.3,Win32,166.6666667,,,i,1,0.54,0,32,32,34,1,暴躁,i,,,,,,,,,,,,,,,,,,,,,,,,,,,,,,,,,,,,,,,,,,,,,,,,,,,,,
,,,,,,,,,,,,,,1,001,2025-01-02_12h23.40.896,IAT(Formal),2021.2.3,Win32,166.6666667,,,i,1,0.5537,0,33,33,24,1,悲观,i,,,,,,,,,,,,,,,,,,,,,,,,,,,,,,,,,,,,,,,,,,,,,,,,,,,,,
,,,,,,,,,,,,,,1,001,2025-01-02_12h23.40.896,IAT(Formal),2021.2.3,Win32,166.6666667,,,e,1,0.5251,0,34,34,14,1,朴实,e,,,,,,,,,,,,,,,,,,,,,,,,,,,,,,,,,,,,,,,,,,,,,,,,,,,,,
,,,,,,,,,,,,,,1,001,2025-01-02_12h23.40.896,IAT(Formal),2021.2.3,Win32,166.6666667,,,i,1,0.6011,0,35,35,26,1,自卑,i,,,,,,,,,,,,,,,,,,,,,,,,,,,,,,,,,,,,,,,,,,,,,,,,,,,,,
,,,,,,,,,,,,,,1,001,2025-01-02_12h23.40.896,IAT(Formal),2021.2.3,Win32,166.6666667,,,e,1,0.5944,0,36,36,5,1,诚实,e,,,,,,,,,,,,,,,,,,,,,,,,,,,,,,,,,,,,,,,,,,,,,,,,,,,,,
,,,,,,,,,,,,,,1,001,2025-01-02_12h23.40.896,IAT(Formal),2021.2.3,Win32,166.6666667,,,i,0,0.5583,0,37,37,16,1,冷静,e,,,,,,,,,,,,,,,,,,,,,,,,,,,,,,,,,,,,,,,,,,,,,,,,,,,,,
,,,,,,,,,,,,,,1,001,2025-01-02_12h23.40.896,IAT(Formal),2021.2.3,Win32,166.6666667,,,e,1,0.6734,0,38,38,11,1,稳重,e,,,,,,,,,,,,,,,,,,,,,,,,,,,,,,,,,,,,,,,,,,,,,,,,,,,,,
,,,,,,,,,,,,,,1,001,2025-01-02_12h23.40.896,IAT(Formal),2021.2.3,Win32,166.6666667,,,i,1,0.7401,0,39,39,29,1,冒失,i,,,,,,,,,,,,,,,,,,,,,,,,,,,,,,,,,,,,,,,,,,,,,,,,,,,,,
,,,,,,,,,,,,,,1,001,2025-01-02_12h23.40.896,IAT(Formal),2021.2.3,Win32,166.6666667,,,,,,,,,,,,,space,9.2864,e,1,0.5675,0,0,0,51,1,我的,e,,,,,,,,,,,,,,,,,,,,,,,,,,,,,,,,,,,,,,,,,
,,,,,,,,,,,,,,1,001,2025-01-02_12h23.40.896,IAT(Formal),2021.2.3,Win32,166.6666667,,,,,,,,,,,,,,,i,1,0.4555,0,1,1,49,1,下贱,i,,,,,,,,,,,,,,,,,,,,,,,,,,,,,,,,,,,,,,,,,
,,,,,,,,,,,,,,1,001,2025-01-02_12h23.40.896,IAT(Formal),2021.2.3,Win32,166.6666667,,,,,,,,,,,,,,,i,1,0.4631,0,2,2,32,1,愚蠢,i,,,,,,,,,,,,,,,,,,,,,,,,,,,,,,,,,,,,,,,,,
,,,,,,,,,,,,,,1,001,2025-01-02_12h23.40.896,IAT(Formal),2021.2.3,Win32,166.6666667,,,,,,,,,,,,,,,e,1,0.4003,0,3,3,10,1,优秀,e,,,,,,,,,,,,,,,,,,,,,,,,,,,,,,,,,,,,,,,,,
,,,,,,,,,,,,,,1,001,2025-01-02_12h23.40.896,IAT(Formal),2021.2.3,Win32,166.6666667,,,,,,,,,,,,,,,e,1,0.3473,0,4,4,2,1,我们,e,,,,,,,,,,,,,,,,,,,,,,,,,,,,,,,,,,,,,,,,,
,,,,,,,,,,,,,,1,001,2025-01-02_12h23.40.896,IAT(Formal),2021.2.3,Win32,166.6666667,,,,,,,,,,,,,,,i,1,0.473,0,5,5,42,1,凶狠,i,,,,,,,,,,,,,,,,,,,,,,,,,,,,,,,,,,,,,,,,,
,,,,,,,,,,,,,,1,001,2025-01-02_12h23.40.896,IAT(Formal),2021.2.3,Win32,166.6666667,,,,,,,,,,,,,,,e,1,0.4036,0,6,6,72,1,我们,e,,,,,,,,,,,,,,,,,,,,,,,,,,,,,,,,,,,,,,,,,
,,,,,,,,,,,,,,1,001,2025-01-02_12h23.40.896,IAT(Formal),2021.2.3,Win32,166.6666667,,,,,,,,,,,,,,,e,1,0.4245,0,7,7,27,1,热情,e,,,,,,,,,,,,,,,,,,,,,,,,,,,,,,,,,,,,,,,,,
,,,,,,,,,,,,,,1,001,2025-01-02_12h23.40.896,IAT(Formal),2021.2.3,Win32,166.6666667,,,,,,,,,,,,,,,i,0,0.3851,0,8,8,26,1,冷静,e,,,,,,,,,,,,,,,,,,,,,,,,,,,,,,,,,,,,,,,,,
,,,,,,,,,,,,,,1,001,2025-01-02_12h23.40.896,IAT(Formal),2021.2.3,Win32,166.6666667,,,,,,,,,,,,,,,e,1,0.6609,0,9,9,11,1,崇高,e,,,,,,,,,,,,,,,,,,,,,,,,,,,,,,,,,,,,,,,,,
,,,,,,,,,,,,,,1,001,2025-01-02_12h23.40.896,IAT(Formal),2021.2.3,Win32,166.6666667,,,,,,,,,,,,,,,i,1,0.6069,0,10,10,41,1,散漫,i,,,,,,,,,,,,,,,,,,,,,,,,,,,,,,,,,,,,,,,,,
,,,,,,,,,,,,,,1,001,2025-01-02_12h23.40.896,IAT(Formal),2021.2.3,Win32,166.6666667,,,,,,,,,,,,,,,e,0,0.3839,0,11,11,7,1,他的,i,,,,,,,,,,,,,,,,,,,,,,,,,,,,,,,,,,,,,,,,,
,,,,,,,,,,,,,,1,001,2025-01-02_12h23.40.896,IAT(Formal),2021.2.3,Win32,166.6666667,,,,,,,,,,,,,,,e,1,0.4689,0,12,12,28,1,活泼,e,,,,,,,,,,,,,,,,,,,,,,,,,,,,,,,,,,,,,,,,,
,,,,,,,,,,,,,,1,001,2025-01-02_12h23.40.896,IAT(Formal),2021.2.3,Win32,166.6666667,,,,,,,,,,,,,,,i,1,0.5523,0,13,13,44,1,暴躁,i,,,,,,,,,,,,,,,,,,,,,,,,,,,,,,,,,,,,,,,,,
,,,,,,,,,,,,,,1,001,2025-01-02_12h23.40.896,IAT(Formal),2021.2.3,Win32,166.6666667,,,,,,,,,,,,,,,e,1,0.4928,0,14,14,60,1,我,e,,,,,,,,,,,,,,,,,,,,,,,,,,,,,,,,,,,,,,,,,
,,,,,,,,,,,,,,1,001,2025-01-02_12h23.40.896,IAT(Formal),2021.2.3,Win32,166.6666667,,,,,,,,,,,,,,,e,1,0.4731,0,15,15,15,1,诚实,e,,,,,,,,,,,,,,,,,,,,,,,,,,,,,,,,,,,,,,,,,
,,,,,,,,,,,,,,1,001,2025-01-02_12h23.40.896,IAT(Formal),2021.2.3,Win32,166.6666667,,,,,,,,,,,,,,,i,1,0.5765,0,16,16,48,1,轻率,i,,,,,,,,,,,,,,,,,,,,,,,,,,,,,,,,,,,,,,,,,
,,,,,,,,,,,,,,1,001,2025-01-02_12h23.40.896,IAT(Formal),2021.2.3,Win32,166.6666667,,,,,,,,,,,,,,,i,1,0.5278,0,17,17,33,1,刻薄,i,,,,,,,,,,,,,,,,,,,,,,,,,,,,,,,,,,,,,,,,,
,,,,,,,,,,,,,,1,001,2025-01-02_12h23.40.896,IAT(Formal),2021.2.3,Win32,166.6666667,,,,,,,,,,,,,,,i,1,0.4493,0,18,18,47,1,固执,i,,,,,,,,,,,,,,,,,,,,,,,,,,,,,,,,,,,,,,,,,
,,,,,,,,,,,,,,1,001,2025-01-02_12h23.40.896,IAT(Formal),2021.2.3,Win32,166.6666667,,,,,,,,,,,,,,,e,1,0.5293,0,19,19,17,1,勇敢,e,,,,,,,,,,,,,,,,,,,,,,,,,,,,,,,,,,,,,,,,,
,,,,,,,,,,,,,,1,001,2025-01-02_12h23.40.896,IAT(Formal),2021.2.3,Win32,166.6666667,,,,,,,,,,,,,,,i,1,0.5582,0,20,20,34,1,悲观,i,,,,,,,,,,,,,,,,,,,,,,,,,,,,,,,,,,,,,,,,,
,,,,,,,,,,,,,,1,001,2025-01-02_12h23.40.896,IAT(Formal),2021.2.3,Win32,166.6666667,,,,,,,,,,,,,,,i,1,0.5415,0,21,21,57,1,他的,i,,,,,,,,,,,,,,,,,,,,,,,,,,,,,,,,,,,,,,,,,
,,,,,,,,,,,,,,1,001,2025-01-02_12h23.40.896,IAT(Formal),2021.2.3,Win32,166.6666667,,,,,,,,,,,,,,,e,1,0.385,0,22,22,50,1,我,e,,,,,,,,,,,,,,,,,,,,,,,,,,,,,,,,,,,,,,,,,
,,,,,,,,,,,,,,1,001,2025-01-02_12h23.40.896,IAT(Formal),2021.2.3,Win32,166.6666667,,,,,,,,,,,,,,,i,0,0.6879,0,23,23,12,1,聪明,e,,,,,,,,,,,,,,,,,,,,,,,,,,,,,,,,,,,,,,,,,
,,,,,,,,,,,,,,1,001,2025-01-02_12h23.40.896,IAT(Formal),2021.2.3,Win32,166.6666667,,,,,,,,,,,,,,,e,1,0.4726,0,24,24,52,1,我们,e,,,,,,,,,,,,,,,,,,,,,,,,,,,,,,,,,,,,,,,,,
,,,,,,,,,,,,,,1,001,2025-01-02_12h23.40.896,IAT(Formal),2021.2.3,Win32,166.6666667,,,,,,,,,,,,,,,i,1,0.4379,0,25,25,39,1,冒失,i,,,,,,,,,,,,,,,,,,,,,,,,,,,,,,,,,,,,,,,,,
,,,,,,,,,,,,,,1,001,2025-01-02_12h23.40.896,IAT(Formal),2021.2.3,Win32,166.6666667,,,,,,,,,,,,,,,i,1,0.4244,0,26,26,69,1,其他,i,,,,,,,,,,,,,,,,,,,,,,,,,,,,,,,,,,,,,,,,,
,,,,,,,,,,,,,,1,001,2025-01-02_12h23.40.896,IAT(Formal),2021.2.3,Win32,166.6666667,,,,,,,,,,,,,,,e,1,0.3632,0,27,27,71,1,我的,e,,,,,,,,,,,,,,,,,,,,,,,,,,,,,,,,,,,,,,,,,
,,,,,,,,,,,,,,1,001,2025-01-02_12h23.40.896,IAT(Formal),2021.2.3,Win32,166.6666667,,,,,,,,,,,,,,,e,1,0.382,0,28,28,0,1,我,e,,,,,,,,,,,,,,,,,,,,,,,,,,,,,,,,,,,,,,,,,
,,,,,,,,,,,,,,1,001,2025-01-02_12h23.40.896,IAT(Formal),2021.2.3,Win32,166.6666667,,,,,,,,,,,,,,,i,1,0.5261,0,29,29,75,1,他,i,,,,,,,,,,,,,,,,,,,,,,,,,,,,,,,,,,,,,,,,,
,,,,,,,,,,,,,,1,001,2025-01-02_12h23.40.896,IAT(Formal),2021.2.3,Win32,166.6666667,,,,,,,,,,,,,,,i,1,0.5996,0,30,30,37,1,傲慢,i,,,,,,,,,,,,,,,,,,,,,,,,,,,,,,,,,,,,,,,,,
,,,,,,,,,,,,,,1,001,2025-01-02_12h23.40.896,IAT(Formal),2021.2.3,Win32,166.6666667,,,,,,,,,,,,,,,i,1,0.6004,0,31,31,46,1,野蛮,i,,,,,,,,,,,,,,,,,,,,,,,,,,,,,,,,,,,,,,,,,
,,,,,,,,,,,,,,1,001,2025-01-02_12h23.40.896,IAT(Formal),2021.2.3,Win32,166.6666667,,,,,,,,,,,,,,,i,1,0.5275,0,32,32,59,1,其他,i,,,,,,,,,,,,,,,,,,,,,,,,,,,,,,,,,,,,,,,,,
,,,,,,,,,,,,,,1,001,2025-01-02_12h23.40.896,IAT(Formal),2021.2.3,Win32,166.6666667,,,,,,,,,,,,,,,i,1,0.694,0,33,33,35,1,消极,i,,,,,,,,,,,,,,,,,,,,,,,,,,,,,,,,,,,,,,,,,
,,,,,,,,,,,,,,1,001,2025-01-02_12h23.40.896,IAT(Formal),2021.2.3,Win32,166.6666667,,,,,,,,,,,,,,,e,1,0.6249,0,34,34,4,1,俺,e,,,,,,,,,,,,,,,,,,,,,,,,,,,,,,,,,,,,,,,,,
,,,,,,,,,,,,,,1,001,2025-01-02_12h23.40.896,IAT(Formal),2021.2.3,Win32,166.6666667,,,,,,,,,,,,,,,e,1,1.0128,0,35,35,24,1,朴实,e,,,,,,,,,,,,,,,,,,,,,,,,,,,,,,,,,,,,,,,,,
,,,,,,,,,,,,,,1,001,2025-01-02_12h23.40.896,IAT(Formal),2021.2.3,Win32,166.6666667,,,,,,,,,,,,,,,e,1,0.4867,0,36,36,54,1,俺,e,,,,,,,,,,,,,,,,,,,,,,,,,,,,,,,,,,,,,,,,,
,,,,,,,,,,,,,,1,001,2025-01-02_12h23.40.896,IAT(Formal),2021.2.3,Win32,166.6666667,,,,,,,,,,,,,,,e,1,0.4118,0,37,37,61,1,我的,e,,,,,,,,,,,,,,,,,,,,,,,,,,,,,,,,,,,,,,,,,
,,,,,,,,,,,,,,1,001,2025-01-02_12h23.40.896,IAT(Formal),2021.2.3,Win32,166.6666667,,,,,,,,,,,,,,,i,1,0.6073,0,38,38,67,1,他的,i,,,,,,,,,,,,,,,,,,,,,,,,,,,,,,,,,,,,,,,,,
,,,,,,,,,,,,,,1,001,2025-01-02_12h23.40.896,IAT(Formal),2021.2.3,Win32,166.6666667,,,,,,,,,,,,,,,e,1,0.54,0,39,39,16,1,正直,e,,,,,,,,,,,,,,,,,,,,,,,,,,,,,,,,,,,,,,,,,
,,,,,,,,,,,,,,1,001,2025-01-02_12h23.40.896,IAT(Formal),2021.2.3,Win32,166.6666667,,,,,,,,,,,,,,,i,1,0.5159,0,40,40,77,1,他的,i,,,,,,,,,,,,,,,,,,,,,,,,,,,,,,,,,,,,,,,,,
,,,,,,,,,,,,,,1,001,2025-01-02_12h23.40.896,IAT(Formal),2021.2.3,Win32,166.6666667,,,,,,,,,,,,,,,e,1,0.7374,0,41,41,29,1,诚恳,e,,,,,,,,,,,,,,,,,,,,,,,,,,,,,,,,,,,,,,,,,
,,,,,,,,,,,,,,1,001,2025-01-02_12h23.40.896,IAT(Formal),2021.2.3,Win32,166.6666667,,,,,,,,,,,,,,,i,1,0.583,0,42,42,36,1,自卑,i,,,,,,,,,,,,,,,,,,,,,,,,,,,,,,,,,,,,,,,,,
,,,,,,,,,,,,,,1,001,2025-01-02_12h23.40.896,IAT(Formal),2021.2.3,Win32,166.6666667,,,,,,,,,,,,,,,e,1,0.5684,0,43,43,3,1,自己,e,,,,,,,,,,,,,,,,,,,,,,,,,,,,,,,,,,,,,,,,,
,,,,,,,,,,,,,,1,001,2025-01-02_12h23.40.896,IAT(Formal),2021.2.3,Win32,166.6666667,,,,,,,,,,,,,,,e,1,0.4795,0,44,44,1,1,我的,e,,,,,,,,,,,,,,,,,,,,,,,,,,,,,,,,,,,,,,,,,
,,,,,,,,,,,,,,1,001,2025-01-02_12h23.40.896,IAT(Formal),2021.2.3,Win32,166.6666667,,,,,,,,,,,,,,,e,1,0.4971,0,45,45,74,1,俺,e,,,,,,,,,,,,,,,,,,,,,,,,,,,,,,,,,,,,,,,,,
,,,,,,,,,,,,,,1,001,2025-01-02_12h23.40.896,IAT(Formal),2021.2.3,Win32,166.6666667,,,,,,,,,,,,,,,i,1,0.5214,0,46,46,8,1,他人,i,,,,,,,,,,,,,,,,,,,,,,,,,,,,,,,,,,,,,,,,,
,,,,,,,,,,,,,,1,001,2025-01-02_12h23.40.896,IAT(Formal),2021.2.3,Win32,166.6666667,,,,,,,,,,,,,,,i,1,0.6221,0,47,47,56,1,他们,i,,,,,,,,,,,,,,,,,,,,,,,,,,,,,,,,,,,,,,,,,
,,,,,,,,,,,,,,1,001,2025-01-02_12h23.40.896,IAT(Formal),2021.2.3,Win32,166.6666667,,,,,,,,,,,,,,,e,1,0.5916,0,48,48,21,1,稳重,e,,,,,,,,,,,,,,,,,,,,,,,,,,,,,,,,,,,,,,,,,
,,,,,,,,,,,,,,1,001,2025-01-02_12h23.40.896,IAT(Formal),2021.2.3,Win32,166.6666667,,,,,,,,,,,,,,,i,1,0.5366,0,49,49,66,1,他们,i,,,,,,,,,,,,,,,,,,,,,,,,,,,,,,,,,,,,,,,,,
,,,,,,,,,,,,,,1,001,2025-01-02_12h23.40.896,IAT(Formal),2021.2.3,Win32,166.6666667,,,,,,,,,,,,,,,i,1,0.5236,0,50,50,68,1,他人,i,,,,,,,,,,,,,,,,,,,,,,,,,,,,,,,,,,,,,,,,,
,,,,,,,,,,,,,,1,001,2025-01-02_12h23.40.896,IAT(Formal),2021.2.3,Win32,166.6666667,,,,,,,,,,,,,,,e,1,0.4444,0,51,51,53,1,自己,e,,,,,,,,,,,,,,,,,,,,,,,,,,,,,,,,,,,,,,,,,
,,,,,,,,,,,,,,1,001,2025-01-02_12h23.40.896,IAT(Formal),2021.2.3,Win32,166.6666667,,,,,,,,,,,,,,,e,1,0.4908,0,52,52,70,1,我,e,,,,,,,,,,,,,,,,,,,,,,,,,,,,,,,,,,,,,,,,,
,,,,,,,,,,,,,,1,001,2025-01-02_12h23.40.896,IAT(Formal),2021.2.3,Win32,166.6666667,,,,,,,,,,,,,,,i,1,0.5901,0,53,53,65,1,他,i,,,,,,,,,,,,,,,,,,,,,,,,,,,,,,,,,,,,,,,,,
,,,,,,,,,,,,,,1,001,2025-01-02_12h23.40.896,IAT(Formal),2021.2.3,Win32,166.6666667,,,,,,,,,,,,,,,i,1,0.6211,0,54,54,43,1,自私,i,,,,,,,,,,,,,,,,,,,,,,,,,,,,,,,,,,,,,,,,,
,,,,,,,,,,,,,,1,001,2025-01-02_12h23.40.896,IAT(Formal),2021.2.3,Win32,166.6666667,,,,,,,,,,,,,,,i,1,0.4399,0,55,55,79,1,其他,i,,,,,,,,,,,,,,,,,,,,,,,,,,,,,,,,,,,,,,,,,
,,,,,,,,,,,,,,1,001,2025-01-02_12h23.40.896,IAT(Formal),2021.2.3,Win32,166.6666667,,,,,,,,,,,,,,,e,0,0.5622,0,56,56,76,1,他们,i,,,,,,,,,,,,,,,,,,,,,,,,,,,,,,,,,,,,,,,,,
,,,,,,,,,,,,,,1,001,2025-01-02_12h23.40.896,IAT(Formal),2021.2.3,Win32,166.6666667,,,,,,,,,,,,,,,i,1,0.6092,0,57,57,5,1,他,i,,,,,,,,,,,,,,,,,,,,,,,,,,,,,,,,,,,,,,,,,
,,,,,,,,,,,,,,1,001,2025-01-02_12h23.40.896,IAT(Formal),2021.2.3,Win32,166.6666667,,,,,,,,,,,,,,,i,1,0.5222,0,58,58,9,1,其他,i,,,,,,,,,,,,,,,,,,,,,,,,,,,,,,,,,,,,,,,,,
,,,,,,,,,,,,,,1,001,2025-01-02_12h23.40.896,IAT(Formal),2021.2.3,Win32,166.6666667,,,,,,,,,,,,,,,e,1,0.6918,0,59,59,25,1,细腻,e,,,,,,,,,,,,,,,,,,,,,,,,,,,,,,,,,,,,,,,,,
,,,,,,,,,,,,,,1,001,2025-01-02_12h23.40.896,IAT(Formal),2021.2.3,Win32,166.6666667,,,,,,,,,,,,,,,e,1,0.5336,0,60,60,23,1,公正,e,,,,,,,,,,,,,,,,,,,,,,,,,,,,,,,,,,,,,,,,,
,,,,,,,,,,,,,,1,001,2025-01-02_12h23.40.896,IAT(Formal),2021.2.3,Win32,166.6666667,,,,,,,,,,,,,,,e,1,0.6428,0,61,61,73,1,自己,e,,,,,,,,,,,,,,,,,,,,,,,,,,,,,,,,,,,,,,,,,
,,,,,,,,,,,,,,1,001,2025-01-02_12h23.40.896,IAT(Formal),2021.2.3,Win32,166.6666667,,,,,,,,,,,,,,,i,1,0.5577,0,62,62,6,1,他们,i,,,,,,,,,,,,,,,,,,,,,,,,,,,,,,,,,,,,,,,,,
,,,,,,,,,,,,,,1,001,2025-01-02_12h23.40.896,IAT(Formal),2021.2.3,Win32,166.6666667,,,,,,,,,,,,,,,e,1,0.5744,0,63,63,20,1,认真,e,,,,,,,,,,,,,,,,,,,,,,,,,,,,,,,,,,,,,,,,,
,,,,,,,,,,,,,,1,001,2025-01-02_12h23.40.896,IAT(Formal),2021.2.3,Win32,166.6666667,,,,,,,,,,,,,,,e,1,0.6311,0,64,64,18,1,勤奋,e,,,,,,,,,,,,,,,,,,,,,,,,,,,,,,,,,,,,,,,,,
,,,,,,,,,,,,,,1,001,2025-01-02_12h23.40.896,IAT(Formal),2021.2.3,Win32,166.6666667,,,,,,,,,,,,,,,i,1,0.4829,0,65,65,55,1,他,i,,,,,,,,,,,,,,,,,,,,,,,,,,,,,,,,,,,,,,,,,
,,,,,,,,,,,,,,1,001,2025-01-02_12h23.40.896,IAT(Formal),2021.2.3,Win32,166.6666667,,,,,,,,,,,,,,,i,1,0.3516,0,66,66,78,1,他人,i,,,,,,,,,,,,,,,,,,,,,,,,,,,,,,,,,,,,,,,,,
,,,,,,,,,,,,,,1,001,2025-01-02_12h23.40.896,IAT(Formal),2021.2.3,Win32,166.6666667,,,,,,,,,,,,,,,i,1,0.4316,0,67,67,45,1,猖狂,i,,,,,,,,,,,,,,,,,,,,,,,,,,,,,,,,,,,,,,,,,
,,,,,,,,,,,,,,1,001,2025-01-02_12h23.40.896,IAT(Formal),2021.2.3,Win32,166.6666667,,,,,,,,,,,,,,,e,1,0.591,0,68,68,13,1,杰出,e,,,,,,,,,,,,,,,,,,,,,,,,,,,,,,,,,,,,,,,,,
,,,,,,,,,,,,,,1,001,2025-01-02_12h23.40.896,IAT(Formal),2021.2.3,Win32,166.6666667,,,,,,,,,,,,,,,i,1,0.4971,0,69,69,58,1,他人,i,,,,,,,,,,,,,,,,,,,,,,,,,,,,,,,,,,,,,,,,,
,,,,,,,,,,,,,,1,001,2025-01-02_12h23.40.896,IAT(Formal),2021.2.3,Win32,166.6666667,,,,,,,,,,,,,,,e,1,0.4221,0,70,70,14,1,乐观,e,,,,,,,,,,,,,,,,,,,,,,,,,,,,,,,,,,,,,,,,,
,,,,,,,,,,,,,,1,001,2025-01-02_12h23.40.896,IAT(Formal),2021.2.3,Win32,166.6666667,,,,,,,,,,,,,,,i,1,0.445,0,71,71,31,1,虚伪,i,,,,,,,,,,,,,,,,,,,,,,,,,,,,,,,,,,,,,,,,,
,,,,,,,,,,,,,,1,001,2025-01-02_12h23.40.896,IAT(Formal),2021.2.3,Win32,166.6666667,,,,,,,,,,,,,,,i,1,0.5075,0,72,72,38,1,鲁莽,i,,,,,,,,,,,,,,,,,,,,,,,,,,,,,,,,,,,,,,,,,
,,,,,,,,,,,,,,1,001,2025-01-02_12h23.40.896,IAT(Formal),2021.2.3,Win32,166.6666667,,,,,,,,,,,,,,,i,1,0.4198,0,73,73,30,1,卑鄙,i,,,,,,,,,,,,,,,,,,,,,,,,,,,,,,,,,,,,,,,,,
,,,,,,,,,,,,,,1,001,2025-01-02_12h23.40.896,IAT(Formal),2021.2.3,Win32,166.6666667,,,,,,,,,,,,,,,i,0,0.3596,0,74,74,22,1,无私,e,,,,,,,,,,,,,,,,,,,,,,,,,,,,,,,,,,,,,,,,,
,,,,,,,,,,,,,,1,001,2025-01-02_12h23.40.896,IAT(Formal),2021.2.3,Win32,166.6666667,,,,,,,,,,,,,,,i,1,0.4789,0,75,75,40,1,执拗,i,,,,,,,,,,,,,,,,,,,,,,,,,,,,,,,,,,,,,,,,,
,,,,,,,,,,,,,,1,001,2025-01-02_12h23.40.896,IAT(Formal),2021.2.3,Win32,166.6666667,,,,,,,,,,,,,,,e,1,0.5943,0,76,76,63,1,自己,e,,,,,,,,,,,,,,,,,,,,,,,,,,,,,,,,,,,,,,,,,
,,,,,,,,,,,,,,1,001,2025-01-02_12h23.40.896,IAT(Formal),2021.2.3,Win32,166.6666667,,,,,,,,,,,,,,,e,1,0.5208,0,77,77,19,1,机智,e,,,,,,,,,,,,,,,,,,,,,,,,,,,,,,,,,,,,,,,,,
,,,,,,,,,,,,,,1,001,2025-01-02_12h23.40.896,IAT(Formal),2021.2.3,Win32,166.6666667,,,,,,,,,,,,,,,e,1,0.4166,0,78,78,64,1,俺,e,,,,,,,,,,,,,,,,,,,,,,,,,,,,,,,,,,,,,,,,,
,,,,,,,,,,,,,,1,001,2025-01-02_12h23.40.896,IAT(Formal),2021.2.3,Win32,166.6666667,,,,,,,,,,,,,,,e,1,0.4421,0,79,79,62,1,我们,e,,,,,,,,,,,,,,,,,,,,,,,,,,,,,,,,,,,,,,,,,
,,,,,,,,,,,,,,1,001,2025-01-02_12h23.40.896,IAT(Formal),2021.2.3,Win32,166.6666667,,,,,,,,,,,,,,,i,1,0.5401,,,,,,他的,i,space,7.7318,0,0,0,77,1,,,,,,,,,,,,,,,,,,,,,,,,,,,,,,,,,,
,,,,,,,,,,,,,,1,001,2025-01-02_12h23.40.896,IAT(Formal),2021.2.3,Win32,166.6666667,,,,,,,,,,,,,,,e,1,0.506,,,,,,公正,e,,,0,1,1,23,1,,,,,,,,,,,,,,,,,,,,,,,,,,,,,,,,,,
,,,,,,,,,,,,,,1,001,2025-01-02_12h23.40.896,IAT(Formal),2021.2.3,Win32,166.6666667,,,,,,,,,,,,,,,e,1,0.4866,,,,,,俺,e,,,0,2,2,64,1,,,,,,,,,,,,,,,,,,,,,,,,,,,,,,,,,,
,,,,,,,,,,,,,,1,001,2025-01-02_12h23.40.896,IAT(Formal),2021.2.3,Win32,166.6666667,,,,,,,,,,,,,,,i,0,0.4372,,,,,,冷静,e,,,0,3,3,26,1,,,,,,,,,,,,,,,,,,,,,,,,,,,,,,,,,,
,,,,,,,,,,,,,,1,001,2025-01-02_12h23.40.896,IAT(Formal),2021.2.3,Win32,166.6666667,,,,,,,,,,,,,,,i,1,0.4937,,,,,,其他,i,,,0,4,4,9,1,,,,,,,,,,,,,,,,,,,,,,,,,,,,,,,,,,
,,,,,,,,,,,,,,1,001,2025-01-02_12h23.40.896,IAT(Formal),2021.2.3,Win32,166.6666667,,,,,,,,,,,,,,,e,1,0.418,,,,,,我,e,,,0,5,5,0,1,,,,,,,,,,,,,,,,,,,,,,,,,,,,,,,,,,
,,,,,,,,,,,,,,1,001,2025-01-02_12h23.40.896,IAT(Formal),2021.2.3,Win32,166.6666667,,,,,,,,,,,,,,,i,1,0.4545,,,,,,暴躁,i,,,0,6,6,44,1,,,,,,,,,,,,,,,,,,,,,,,,,,,,,,,,,,
,,,,,,,,,,,,,,1,001,2025-01-02_12h23.40.896,IAT(Formal),2021.2.3,Win32,166.6666667,,,,,,,,,,,,,,,i,1,0.6274,,,,,,他,i,,,0,7,7,5,1,,,,,,,,,,,,,,,,,,,,,,,,,,,,,,,,,,
,,,,,,,,,,,,,,1,001,2025-01-02_12h23.40.896,IAT(Formal),2021.2.3,Win32,166.6666667,,,,,,,,,,,,,,,e,1,0.5179,,,,,,优秀,e,,,0,8,8,10,1,,,,,,,,,,,,,,,,,,,,,,,,,,,,,,,,,,
,,,,,,,,,,,,,,1,001,2025-01-02_12h23.40.896,IAT(Formal),2021.2.3,Win32,166.6666667,,,,,,,,,,,,,,,i,1,0.5152,,,,,,冒失,i,,,0,9,9,39,1,,,,,,,,,,,,,,,,,,,,,,,,,,,,,,,,,,
,,,,,,,,,,,,,,1,001,2025-01-02_12h23.40.896,IAT(Formal),2021.2.3,Win32,166.6666667,,,,,,,,,,,,,,,i,1,0.5062,,,,,,卑鄙,i,,,0,10,10,30,1,,,,,,,,,,,,,,,,,,,,,,,,,,,,,,,,,,
,,,,,,,,,,,,,,1,001,2025-01-02_12h23.40.896,IAT(Formal),2021.2.3,Win32,166.6666667,,,,,,,,,,,,,,,i,1,0.4668,,,,,,下贱,i,,,0,11,11,49,1,,,,,,,,,,,,,,,,,,,,,,,,,,,,,,,,,,
,,,,,,,,,,,,,,1,001,2025-01-02_12h23.40.896,IAT(Formal),2021.2.3,Win32,166.6666667,,,,,,,,,,,,,,,e,1,0.4616,,,,,,俺,e,,,0,12,12,74,1,,,,,,,,,,,,,,,,,,,,,,,,,,,,,,,,,,
,,,,,,,,,,,,,,1,001,2025-01-02_12h23.40.896,IAT(Formal),2021.2.3,Win32,166.6666667,,,,,,,,,,,,,,,e,1,0.3963,,,,,,我们,e,,,0,13,13,2,1,,,,,,,,,,,,,,,,,,,,,,,,,,,,,,,,,,
,,,,,,,,,,,,,,1,001,2025-01-02_12h23.40.896,IAT(Formal),2021.2.3,Win32,166.6666667,,,,,,,,,,,,,,,i,1,0.5524,,,,,,他们,i,,,0,14,14,56,1,,,,,,,,,,,,,,,,,,,,,,,,,,,,,,,,,,
,,,,,,,,,,,,,,1,001,2025-01-02_12h23.40.896,IAT(Formal),2021.2.3,Win32,166.6666667,,,,,,,,,,,,,,,e,1,0.4478,,,,,,杰出,e,,,0,15,15,13,1,,,,,,,,,,,,,,,,,,,,,,,,,,,,,,,,,,
,,,,,,,,,,,,,,1,001,2025-01-02_12h23.40.896,IAT(Formal),2021.2.3,Win32,166.6666667,,,,,,,,,,,,,,,i,1,0.4361,,,,,,他,i,,,0,16,16,55,1,,,,,,,,,,,,,,,,,,,,,,,,,,,,,,,,,,
,,,,,,,,,,,,,,1,001,2025-01-02_12h23.40.896,IAT(Formal),2021.2.3,Win32,166.6666667,,,,,,,,,,,,,,,e,1,0.4705,,,,,,我,e,,,0,17,17,70,1,,,,,,,,,,,,,,,,,,,,,,,,,,,,,,,,,,
,,,,,,,,,,,,,,1,001,2025-01-02_12h23.40.896,IAT(Formal),2021.2.3,Win32,166.6666667,,,,,,,,,,,,,,,i,1,0.5109,,,,,,鲁莽,i,,,0,18,18,38,1,,,,,,,,,,,,,,,,,,,,,,,,,,,,,,,,,,
,,,,,,,,,,,,,,1,001,2025-01-02_12h23.40.896,IAT(Formal),2021.2.3,Win32,166.6666667,,,,,,,,,,,,,,,i,1,0.4877,,,,,,野蛮,i,,,0,19,19,46,1,,,,,,,,,,,,,,,,,,,,,,,,,,,,,,,,,,
,,,,,,,,,,,,,,1,001,2025-01-02_12h23.40.896,IAT(Formal),2021.2.3,Win32,166.6666667,,,,,,,,,,,,,,,i,1,0.6183,,,,,,愚蠢,i,,,0,20,20,32,1,,,,,,,,,,,,,,,,,,,,,,,,,,,,,,,,,,
,,,,,,,,,,,,,,1,001,2025-01-02_12h23.40.896,IAT(Formal),2021.2.3,Win32,166.6666667,,,,,,,,,,,,,,,i,1,0.5763,,,,,,固执,i,,,0,21,21,47,1,,,,,,,,,,,,,,,,,,,,,,,,,,,,,,,,,,
,,,,,,,,,,,,,,1,001,2025-01-02_12h23.40.896,IAT(Formal),2021.2.3,Win32,166.6666667,,,,,,,,,,,,,,,e,1,0.4186,,,,,,我们,e,,,0,22,22,52,1,,,,,,,,,,,,,,,,,,,,,,,,,,,,,,,,,,
,,,,,,,,,,,,,,1,001,2025-01-02_12h23.40.896,IAT(Formal),2021.2.3,Win32,166.6666667,,,,,,,,,,,,,,,e,1,0.4608,,,,,,我,e,,,0,23,23,50,1,,,,,,,,,,,,,,,,,,,,,,,,,,,,,,,,,,
,,,,,,,,,,,,,,1,001,2025-01-02_12h23.40.896,IAT(Formal),2021.2.3,Win32,166.6666667,,,,,,,,,,,,,,,e,1,0.3882,,,,,,我,e,,,0,24,24,60,1,,,,,,,,,,,,,,,,,,,,,,,,,,,,,,,,,,
,,,,,,,,,,,,,,1,001,2025-01-02_12h23.40.896,IAT(Formal),2021.2.3,Win32,166.6666667,,,,,,,,,,,,,,,i,1,0.4087,,,,,,他的,i,,,0,25,25,57,1,,,,,,,,,,,,,,,,,,,,,,,,,,,,,,,,,,
,,,,,,,,,,,,,,1,001,2025-01-02_12h23.40.896,IAT(Formal),2021.2.3,Win32,166.6666667,,,,,,,,,,,,,,,e,1,0.5732,,,,,,自己,e,,,0,26,26,53,1,,,,,,,,,,,,,,,,,,,,,,,,,,,,,,,,,,
,,,,,,,,,,,,,,1,001,2025-01-02_12h23.40.896,IAT(Formal),2021.2.3,Win32,166.6666667,,,,,,,,,,,,,,,i,1,0.4135,,,,,,他人,i,,,0,27,27,68,1,,,,,,,,,,,,,,,,,,,,,,,,,,,,,,,,,,
,,,,,,,,,,,,,,1,001,2025-01-02_12h23.40.896,IAT(Formal),2021.2.3,Win32,166.6666667,,,,,,,,,,,,,,,i,1,0.4699,,,,,,其他,i,,,0,28,28,69,1,,,,,,,,,,,,,,,,,,,,,,,,,,,,,,,,,,
,,,,,,,,,,,,,,1,001,2025-01-02_12h23.40.896,IAT(Formal),2021.2.3,Win32,166.6666667,,,,,,,,,,,,,,,i,1,0.4916,,,,,,虚伪,i,,,0,29,29,31,1,,,,,,,,,,,,,,,,,,,,,,,,,,,,,,,,,,
,,,,,,,,,,,,,,1,001,2025-01-02_12h23.40.896,IAT(Formal),2021.2.3,Win32,166.6666667,,,,,,,,,,,,,,,i,0,0.4272,,,,,,朴实,e,,,0,30,30,24,1,,,,,,,,,,,,,,,,,,,,,,,,,,,,,,,,,,
,,,,,,,,,,,,,,1,001,2025-01-02_12h23.40.896,IAT(Formal),2021.2.3,Win32,166.6666667,,,,,,,,,,,,,,,e,1,0.4192,,,,,,我的,e,,,0,31,31,1,1,,,,,,,,,,,,,,,,,,,,,,,,,,,,,,,,,,
,,,,,,,,,,,,,,1,001,2025-01-02_12h23.40.896,IAT(Formal),2021.2.3,Win32,166.6666667,,,,,,,,,,,,,,,e,1,0.5395,,,,,,乐观,e,,,0,32,32,14,1,,,,,,,,,,,,,,,,,,,,,,,,,,,,,,,,,,
,,,,,,,,,,,,,,1,001,2025-01-02_12h23.40.896,IAT(Formal),2021.2.3,Win32,166.6666667,,,,,,,,,,,,,,,e,1,0.4121,,,,,,我的,e,,,0,33,33,71,1,,,,,,,,,,,,,,,,,,,,,,,,,,,,,,,,,,
,,,,,,,,,,,,,,1,001,2025-01-02_12h23.40.896,IAT(Formal),2021.2.3,Win32,166.6666667,,,,,,,,,,,,,,,i,1,0.4487,,,,,,他人,i,,,0,34,34,78,1,,,,,,,,,,,,,,,,,,,,,,,,,,,,,,,,,,
,,,,,,,,,,,,,,1,001,2025-01-02_12h23.40.896,IAT(Formal),2021.2.3,Win32,166.6666667,,,,,,,,,,,,,,,e,1,0.5478,,,,,,勇敢,e,,,0,35,35,17,1,,,,,,,,,,,,,,,,,,,,,,,,,,,,,,,,,,
,,,,,,,,,,,,,,1,001,2025-01-02_12h23.40.896,IAT(Formal),2021.2.3,Win32,166.6666667,,,,,,,,,,,,,,,i,1,0.5281,,,,,,悲观,i,,,0,36,36,34,1,,,,,,,,,,,,,,,,,,,,,,,,,,,,,,,,,,
,,,,,,,,,,,,,,1,001,2025-01-02_12h23.40.896,IAT(Formal),2021.2.3,Win32,166.6666667,,,,,,,,,,,,,,,i,1,0.5095,,,,,,猖狂,i,,,0,37,37,45,1,,,,,,,,,,,,,,,,,,,,,,,,,,,,,,,,,,
,,,,,,,,,,,,,,1,001,2025-01-02_12h23.40.896,IAT(Formal),2021.2.3,Win32,166.6666667,,,,,,,,,,,,,,,i,1,0.4629,,,,,,凶狠,i,,,0,38,38,42,1,,,,,,,,,,,,,,,,,,,,,,,,,,,,,,,,,,
,,,,,,,,,,,,,,1,001,2025-01-02_12h23.40.896,IAT(Formal),2021.2.3,Win32,166.6666667,,,,,,,,,,,,,,,i,1,0.4956,,,,,,傲慢,i,,,0,39,39,37,1,,,,,,,,,,,,,,,,,,,,,,,,,,,,,,,,,,
,,,,,,,,,,,,,,1,001,2025-01-02_12h23.40.896,IAT(Formal),2021.2.3,Win32,166.6666667,,,,,,,,,,,,,,,e,1,0.5528,,,,,,热情,e,,,0,40,40,27,1,,,,,,,,,,,,,,,,,,,,,,,,,,,,,,,,,,
,,,,,,,,,,,,,,1,001,2025-01-02_12h23.40.896,IAT(Formal),2021.2.3,Win32,166.6666667,,,,,,,,,,,,,,,i,1,0.4917,,,,,,执拗,i,,,0,41,41,40,1,,,,,,,,,,,,,,,,,,,,,,,,,,,,,,,,,,
,,,,,,,,,,,,,,1,001,2025-01-02_12h23.40.896,IAT(Formal),2021.2.3,Win32,166.6666667,,,,,,,,,,,,,,,e,1,0.5112,,,,,,诚实,e,,,0,42,42,15,1,,,,,,,,,,,,,,,,,,,,,,,,,,,,,,,,,,
,,,,,,,,,,,,,,1,001,2025-01-02_12h23.40.896,IAT(Formal),2021.2.3,Win32,166.6666667,,,,,,,,,,,,,,,i,1,0.4831,,,,,,他人,i,,,0,43,43,58,1,,,,,,,,,,,,,,,,,,,,,,,,,,,,,,,,,,
,,,,,,,,,,,,,,1,001,2025-01-02_12h23.40.896,IAT(Formal),2021.2.3,Win32,166.6666667,,,,,,,,,,,,,,,i,1,0.6667,,,,,,散漫,i,,,0,44,44,41,1,,,,,,,,,,,,,,,,,,,,,,,,,,,,,,,,,,
,,,,,,,,,,,,,,1,001,2025-01-02_12h23.40.896,IAT(Formal),2021.2.3,Win32,166.6666667,,,,,,,,,,,,,,,i,1,0.4783,,,,,,他人,i,,,0,45,45,8,1,,,,,,,,,,,,,,,,,,,,,,,,,,,,,,,,,,
,,,,,,,,,,,,,,1,001,2025-01-02_12h23.40.896,IAT(Formal),2021.2.3,Win32,166.6666667,,,,,,,,,,,,,,,e,1,0.6245,,,,,,自己,e,,,0,46,46,63,1,,,,,,,,,,,,,,,,,,,,,,,,,,,,,,,,,,
,,,,,,,,,,,,,,1,001,2025-01-02_12h23.40.896,IAT(Formal),2021.2.3,Win32,166.6666667,,,,,,,,,,,,,,,i,1,0.6476,,,,,,其他,i,,,0,47,47,59,1,,,,,,,,,,,,,,,,,,,,,,,,,,,,,,,,,,
,,,,,,,,,,,,,,1,001,2025-01-02_12h23.40.896,IAT(Formal),2021.2.3,Win32,166.6666667,,,,,,,,,,,,,,,e,1,0.4337,,,,,,我的,e,,,0,48,48,51,1,,,,,,,,,,,,,,,,,,,,,,,,,,,,,,,,,,
,,,,,,,,,,,,,,1,001,2025-01-02_12h23.40.896,IAT(Formal),2021.2.3,Win32,166.6666667,,,,,,,,,,,,,,,i,0,0.6651,,,,,,细腻,e,,,0,49,49,25,1,,,,,,,,,,,,,,,,,,,,,,,,,,,,,,,,,,
,,,,,,,,,,,,,,1,001,2025-01-02_12h23.40.896,IAT(Formal),2021.2.3,Win32,166.6666667,,,,,,,,,,,,,,,i,1,0.6182,,,,,,他,i,,,0,50,50,75,1,,,,,,,,,,,,,,,,,,,,,,,,,,,,,,,,,,
,,,,,,,,,,,,,,1,001,2025-01-02_12h23.40.896,IAT(Formal),2021.2.3,Win32,166.6666667,,,,,,,,,,,,,,,e,1,0.7882,,,,,,稳重,e,,,0,51,51,21,1,,,,,,,,,,,,,,,,,,,,,,,,,,,,,,,,,,
,,,,,,,,,,,,,,1,001,2025-01-02_12h23.40.896,IAT(Formal),2021.2.3,Win32,166.6666667,,,,,,,,,,,,,,,e,1,0.5372,,,,,,活泼,e,,,0,52,52,28,1,,,,,,,,,,,,,,,,,,,,,,,,,,,,,,,,,,
,,,,,,,,,,,,,,1,001,2025-01-02_12h23.40.896,IAT(Formal),2021.2.3,Win32,166.6666667,,,,,,,,,,,,,,,e,1,0.4999,,,,,,自己,e,,,0,53,53,3,1,,,,,,,,,,,,,,,,,,,,,,,,,,,,,,,,,,
,,,,,,,,,,,,,,1,001,2025-01-02_12h23.40.896,IAT(Formal),2021.2.3,Win32,166.6666667,,,,,,,,,,,,,,,e,1,0.5946,,,,,,崇高,e,,,0,54,54,11,1,,,,,,,,,,,,,,,,,,,,,,,,,,,,,,,,,,
,,,,,,,,,,,,,,1,001,2025-01-02_12h23.40.896,IAT(Formal),2021.2.3,Win32,166.6666667,,,,,,,,,,,,,,,i,1,0.4954,,,,,,他们,i,,,0,55,55,76,1,,,,,,,,,,,,,,,,,,,,,,,,,,,,,,,,,,
,,,,,,,,,,,,,,1,001,2025-01-02_12h23.40.896,IAT(Formal),2021.2.3,Win32,166.6666667,,,,,,,,,,,,,,,e,1,0.4721,,,,,,我们,e,,,0,56,56,62,1,,,,,,,,,,,,,,,,,,,,,,,,,,,,,,,,,,
,,,,,,,,,,,,,,1,001,2025-01-02_12h23.40.896,IAT(Formal),2021.2.3,Win32,166.6666667,,,,,,,,,,,,,,,e,1,0.3922,,,,,,我的,e,,,0,57,57,61,1,,,,,,,,,,,,,,,,,,,,,,,,,,,,,,,,,,
,,,,,,,,,,,,,,1,001,2025-01-02_12h23.40.896,IAT(Formal),2021.2.3,Win32,166.6666667,,,,,,,,,,,,,,,i,1,0.5458,,,,,,他们,i,,,0,58,58,6,1,,,,,,,,,,,,,,,,,,,,,,,,,,,,,,,,,,
,,,,,,,,,,,,,,1,001,2025-01-02_12h23.40.896,IAT(Formal),2021.2.3,Win32,166.6666667,,,,,,,,,,,,,,,e,1,0.453,,,,,,诚恳,e,,,0,59,59,29,1,,,,,,,,,,,,,,,,,,,,,,,,,,,,,,,,,,
,,,,,,,,,,,,,,1,001,2025-01-02_12h23.40.896,IAT(Formal),2021.2.3,Win32,166.6666667,,,,,,,,,,,,,,,e,1,0.4355,,,,,,俺,e,,,0,60,60,4,1,,,,,,,,,,,,,,,,,,,,,,,,,,,,,,,,,,
,,,,,,,,,,,,,,1,001,2025-01-02_12h23.40.896,IAT(Formal),2021.2.3,Win32,166.6666667,,,,,,,,,,,,,,,i,1,0.564,,,,,,轻率,i,,,0,61,61,48,1,,,,,,,,,,,,,,,,,,,,,,,,,,,,,,,,,,
,,,,,,,,,,,,,,1,001,2025-01-02_12h23.40.896,IAT(Formal),2021.2.3,Win32,166.6666667,,,,,,,,,,,,,,,i,0,0.5102,,,,,,无私,e,,,0,62,62,22,1,,,,,,,,,,,,,,,,,,,,,,,,,,,,,,,,,,
,,,,,,,,,,,,,,1,001,2025-01-02_12h23.40.896,IAT(Formal),2021.2.3,Win32,166.6666667,,,,,,,,,,,,,,,e,1,0.6672,,,,,,勤奋,e,,,0,63,63,18,1,,,,,,,,,,,,,,,,,,,,,,,,,,,,,,,,,,
,,,,,,,,,,,,,,1,001,2025-01-02_12h23.40.896,IAT(Formal),2021.2.3,Win32,166.6666667,,,,,,,,,,,,,,,e,1,0.4733,,,,,,自己,e,,,0,64,64,73,1,,,,,,,,,,,,,,,,,,,,,,,,,,,,,,,,,,
,,,,,,,,,,,,,,1,001,2025-01-02_12h23.40.896,IAT(Formal),2021.2.3,Win32,166.6666667,,,,,,,,,,,,,,,i,1,0.5407,,,,,,他,i,,,0,65,65,65,1,,,,,,,,,,,,,,,,,,,,,,,,,,,,,,,,,,
,,,,,,,,,,,,,,1,001,2025-01-02_12h23.40.896,IAT(Formal),2021.2.3,Win32,166.6666667,,,,,,,,,,,,,,,i,1,0.5578,,,,,,刻薄,i,,,0,66,66,33,1,,,,,,,,,,,,,,,,,,,,,,,,,,,,,,,,,,
,,,,,,,,,,,,,,1,001,2025-01-02_12h23.40.896,IAT(Formal),2021.2.3,Win32,166.6666667,,,,,,,,,,,,,,,i,1,0.5175,,,,,,自卑,i,,,0,67,67,36,1,,,,,,,,,,,,,,,,,,,,,,,,,,,,,,,,,,
,,,,,,,,,,,,,,1,001,2025-01-02_12h23.40.896,IAT(Formal),2021.2.3,Win32,166.6666667,,,,,,,,,,,,,,,e,0,0.5031,,,,,,他的,i,,,0,68,68,7,1,,,,,,,,,,,,,,,,,,,,,,,,,,,,,,,,,,
,,,,,,,,,,,,,,1,001,2025-01-02_12h23.40.896,IAT(Formal),2021.2.3,Win32,166.6666667,,,,,,,,,,,,,,,e,1,0.47,,,,,,俺,e,,,0,69,69,54,1,,,,,,,,,,,,,,,,,,,,,,,,,,,,,,,,,,
,,,,,,,,,,,,,,1,001,2025-01-02_12h23.40.896,IAT(Formal),2021.2.3,Win32,166.6666667,,,,,,,,,,,,,,,e,1,0.6026,,,,,,机智,e,,,0,70,70,19,1,,,,,,,,,,,,,,,,,,,,,,,,,,,,,,,,,,
,,,,,,,,,,,,,,1,001,2025-01-02_12h23.40.896,IAT(Formal),2021.2.3,Win32,166.6666667,,,,,,,,,,,,,,,e,1,0.5044,,,,,,正直,e,,,0,71,71,16,1,,,,,,,,,,,,,,,,,,,,,,,,,,,,,,,,,,
,,,,,,,,,,,,,,1,001,2025-01-02_12h23.40.896,IAT(Formal),2021.2.3,Win32,166.6666667,,,,,,,,,,,,,,,e,1,0.4375,,,,,,我们,e,,,0,72,72,72,1,,,,,,,,,,,,,,,,,,,,,,,,,,,,,,,,,,
,,,,,,,,,,,,,,1,001,2025-01-02_12h23.40.896,IAT(Formal),2021.2.3,Win32,166.6666667,,,,,,,,,,,,,,,e,1,0.5288,,,,,,认真,e,,,0,73,73,20,1,,,,,,,,,,,,,,,,,,,,,,,,,,,,,,,,,,
,,,,,,,,,,,,,,1,001,2025-01-02_12h23.40.896,IAT(Formal),2021.2.3,Win32,166.6666667,,,,,,,,,,,,,,,i,1,0.575,,,,,,自私,i,,,0,74,74,43,1,,,,,,,,,,,,,,,,,,,,,,,,,,,,,,,,,,
,,,,,,,,,,,,,,1,001,2025-01-02_12h23.40.896,IAT(Formal),2021.2.3,Win32,166.6666667,,,,,,,,,,,,,,,i,1,0.4713,,,,,,消极,i,,,0,75,75,35,1,,,,,,,,,,,,,,,,,,,,,,,,,,,,,,,,,,
,,,,,,,,,,,,,,1,001,2025-01-02_12h23.40.896,IAT(Formal),2021.2.3,Win32,166.6666667,,,,,,,,,,,,,,,i,1,0.5296,,,,,,他的,i,,,0,76,76,67,1,,,,,,,,,,,,,,,,,,,,,,,,,,,,,,,,,,
,,,,,,,,,,,,,,1,001,2025-01-02_12h23.40.896,IAT(Formal),2021.2.3,Win32,166.6666667,,,,,,,,,,,,,,,i,1,0.4229,,,,,,他们,i,,,0,77,77,66,1,,,,,,,,,,,,,,,,,,,,,,,,,,,,,,,,,,
,,,,,,,,,,,,,,1,001,2025-01-02_12h23.40.896,IAT(Formal),2021.2.3,Win32,166.6666667,,,,,,,,,,,,,,,e,1,0.4865,,,,,,聪明,e,,,0,78,78,12,1,,,,,,,,,,,,,,,,,,,,,,,,,,,,,,,,,,
,,,,,,,,,,,,,,1,001,2025-01-02_12h23.40.896,IAT(Formal),2021.2.3,Win32,166.6666667,,,,,,,,,,,,,,,i,1,0.4667,,,,,,其他,i,,,0,79,79,79,1,,,,,,,,,,,,,,,,,,,,,,,,,,,,,,,,,,
,,,,,,,,,,,,,,1,001,2025-01-02_12h23.40.896,IAT(Formal),2021.2.3,Win32,166.6666667,,,,,,,,,,,,,,,i,1,0.4726,,,,,,愚蠢,i,,,1,0,80,32,1,,,,,,,,,,,,,,,,,,,,,,,,,,,,,,,,,,
,,,,,,,,,,,,,,1,001,2025-01-02_12h23.40.896,IAT(Formal),2021.2.3,Win32,166.6666667,,,,,,,,,,,,,,,e,1,0.5219,,,,,,我们,e,,,1,1,81,2,1,,,,,,,,,,,,,,,,,,,,,,,,,,,,,,,,,,
,,,,,,,,,,,,,,1,001,2025-01-02_12h23.40.896,IAT(Formal),2021.2.3,Win32,166.6666667,,,,,,,,,,,,,,,i,1,0.5578,,,,,,他们,i,,,1,2,82,66,1,,,,,,,,,,,,,,,,,,,,,,,,,,,,,,,,,,
,,,,,,,,,,,,,,1,001,2025-01-02_12h23.40.896,IAT(Formal),2021.2.3,Win32,166.6666667,,,,,,,,,,,,,,,i,1,0.4884,,,,,,他的,i,,,1,3,83,67,1,,,,,,,,,,,,,,,,,,,,,,,,,,,,,,,,,,
,,,,,,,,,,,,,,1,001,2025-01-02_12h23.40.896,IAT(Formal),2021.2.3,Win32,166.6666667,,,,,,,,,,,,,,,e,1,0.4917,,,,,,我,e,,,1,4,84,0,1,,,,,,,,,,,,,,,,,,,,,,,,,,,,,,,,,,
,,,,,,,,,,,,,,1,001,2025-01-02_12h23.40.896,IAT(Formal),2021.2.3,Win32,166.6666667,,,,,,,,,,,,,,,e,1,0.8199,,,,,,我的,e,,,1,5,85,1,1,,,,,,,,,,,,,,,,,,,,,,,,,,,,,,,,,,
,,,,,,,,,,,,,,1,001,2025-01-02_12h23.40.896,IAT(Formal),2021.2.3,Win32,166.6666667,,,,,,,,,,,,,,,e,1,0.9132,,,,,,俺,e,,,1,6,86,74,1,,,,,,,,,,,,,,,,,,,,,,,,,,,,,,,,,,
,,,,,,,,,,,,,,1,001,2025-01-02_12h23.40.896,IAT(Formal),2021.2.3,Win32,166.6666667,,,,,,,,,,,,,,,e,1,0.4734,,,,,,我们,e,,,1,7,87,62,1,,,,,,,,,,,,,,,,,,,,,,,,,,,,,,,,,,
,,,,,,,,,,,,,,1,001,2025-01-02_12h23.40.896,IAT(Formal),2021.2.3,Win32,166.6666667,,,,,,,,,,,,,,,e,1,0.4725,,,,,,俺,e,,,1,8,88,4,1,,,,,,,,,,,,,,,,,,,,,,,,,,,,,,,,,,
,,,,,,,,,,,,,,1,001,2025-01-02_12h23.40.896,IAT(Formal),2021.2.3,Win32,166.6666667,,,,,,,,,,,,,,,e,1,0.439,,,,,,自己,e,,,1,9,89,63,1,,,,,,,,,,,,,,,,,,,,,,,,,,,,,,,,,,
,,,,,,,,,,,,,,1,001,2025-01-02_12h23.40.896,IAT(Formal),2021.2.3,Win32,166.6666667,,,,,,,,,,,,,,,i,1,0.5382,,,,,,自卑,i,,,1,10,90,36,1,,,,,,,,,,,,,,,,,,,,,,,,,,,,,,,,,,
,,,,,,,,,,,,,,1,001,2025-01-02_12h23.40.896,IAT(Formal),2021.2.3,Win32,166.6666667,,,,,,,,,,,,,,,i,1,0.5111,,,,,,他,i,,,1,11,91,5,1,,,,,,,,,,,,,,,,,,,,,,,,,,,,,,,,,,
,,,,,,,,,,,,,,1,001,2025-01-02_12h23.40.896,IAT(Formal),2021.2.3,Win32,166.6666667,,,,,,,,,,,,,,,i,1,0.4741,,,,,,暴躁,i,,,1,12,92,44,1,,,,,,,,,,,,,,,,,,,,,,,,,,,,,,,,,,
,,,,,,,,,,,,,,1,001,2025-01-02_12h23.40.896,IAT(Formal),2021.2.3,Win32,166.6666667,,,,,,,,,,,,,,,i,1,0.5322,,,,,,他们,i,,,1,13,93,76,1,,,,,,,,,,,,,,,,,,,,,,,,,,,,,,,,,,
,,,,,,,,,,,,,,1,001,2025-01-02_12h23.40.896,IAT(Formal),2021.2.3,Win32,166.6666667,,,,,,,,,,,,,,,i,1,0.4359,,,,,,虚伪,i,,,1,14,94,31,1,,,,,,,,,,,,,,,,,,,,,,,,,,,,,,,,,,
,,,,,,,,,,,,,,1,001,2025-01-02_12h23.40.896,IAT(Formal),2021.2.3,Win32,166.6666667,,,,,,,,,,,,,,,e,1,0.447,,,,,,我们,e,,,1,15,95,72,1,,,,,,,,,,,,,,,,,,,,,,,,,,,,,,,,,,
,,,,,,,,,,,,,,1,001,2025-01-02_12h23.40.896,IAT(Formal),2021.2.3,Win32,166.6666667,,,,,,,,,,,,,,,e,1,0.3664,,,,,,我们,e,,,1,16,96,52,1,,,,,,,,,,,,,,,,,,,,,,,,,,,,,,,,,,
,,,,,,,,,,,,,,1,001,2025-01-02_12h23.40.896,IAT(Formal),2021.2.3,Win32,166.6666667,,,,,,,,,,,,,,,e,1,0.4905,,,,,,俺,e,,,1,17,97,54,1,,,,,,,,,,,,,,,,,,,,,,,,,,,,,,,,,,
,,,,,,,,,,,,,,1,001,2025-01-02_12h23.40.896,IAT(Formal),2021.2.3,Win32,166.6666667,,,,,,,,,,,,,,,e,1,0.4183,,,,,,我的,e,,,1,18,98,61,1,,,,,,,,,,,,,,,,,,,,,,,,,,,,,,,,,,
,,,,,,,,,,,,,,1,001,2025-01-02_12h23.40.896,IAT(Formal),2021.2.3,Win32,166.6666667,,,,,,,,,,,,,,,e,1,0.5295,,,,,,乐观,e,,,1,19,99,14,1,,,,,,,,,,,,,,,,,,,,,,,,,,,,,,,,,,
,,,,,,,,,,,,,,1,001,2025-01-02_12h23.40.896,IAT(Formal),2021.2.3,Win32,166.6666667,,,,,,,,,,,,,,,i,0,0.9154,,,,,,朴实,e,,,1,20,100,24,1,,,,,,,,,,,,,,,,,,,,,,,,,,,,,,,,,,
,,,,,,,,,,,,,,1,001,2025-01-02_12h23.40.896,IAT(Formal),2021.2.3,Win32,166.6666667,,,,,,,,,,,,,,,i,1,0.4251,,,,,,卑鄙,i,,,1,21,101,30,1,,,,,,,,,,,,,,,,,,,,,,,,,,,,,,,,,,
,,,,,,,,,,,,,,1,001,2025-01-02_12h23.40.896,IAT(Formal),2021.2.3,Win32,166.6666667,,,,,,,,,,,,,,,i,1,0.6061,,,,,,其他,i,,,1,22,102,9,1,,,,,,,,,,,,,,,,,,,,,,,,,,,,,,,,,,
,,,,,,,,,,,,,,1,001,2025-01-02_12h23.40.896,IAT(Formal),2021.2.3,Win32,166.6666667,,,,,,,,,,,,,,,i,1,0.522,,,,,,他,i,,,1,23,103,65,1,,,,,,,,,,,,,,,,,,,,,,,,,,,,,,,,,,
,,,,,,,,,,,,,,1,001,2025-01-02_12h23.40.896,IAT(Formal),2021.2.3,Win32,166.6666667,,,,,,,,,,,,,,,e,1,0.5542,,,,,,公正,e,,,1,24,104,23,1,,,,,,,,,,,,,,,,,,,,,,,,,,,,,,,,,,
,,,,,,,,,,,,,,1,001,2025-01-02_12h23.40.896,IAT(Formal),2021.2.3,Win32,166.6666667,,,,,,,,,,,,,,,i,1,0.627,,,,,,鲁莽,i,,,1,25,105,38,1,,,,,,,,,,,,,,,,,,,,,,,,,,,,,,,,,,
,,,,,,,,,,,,,,1,001,2025-01-02_12h23.40.896,IAT(Formal),2021.2.3,Win32,166.6666667,,,,,,,,,,,,,,,i,1,0.4889,,,,,,他,i,,,1,26,106,75,1,,,,,,,,,,,,,,,,,,,,,,,,,,,,,,,,,,
,,,,,,,,,,,,,,1,001,2025-01-02_12h23.40.896,IAT(Formal),2021.2.3,Win32,166.6666667,,,,,,,,,,,,,,,e,1,0.5079,,,,,,我的,e,,,1,27,107,71,1,,,,,,,,,,,,,,,,,,,,,,,,,,,,,,,,,,
,,,,,,,,,,,,,,1,001,2025-01-02_12h23.40.896,IAT(Formal),2021.2.3,Win32,166.6666667,,,,,,,,,,,,,,,i,1,0.5101,,,,,,他,i,,,1,28,108,55,1,,,,,,,,,,,,,,,,,,,,,,,,,,,,,,,,,,
,,,,,,,,,,,,,,1,001,2025-01-02_12h23.40.896,IAT(Formal),2021.2.3,Win32,166.6666667,,,,,,,,,,,,,,,e,1,0.7787,,,,,,聪明,e,,,1,29,109,12,1,,,,,,,,,,,,,,,,,,,,,,,,,,,,,,,,,,
,,,,,,,,,,,,,,1,001,2025-01-02_12h23.40.896,IAT(Formal),2021.2.3,Win32,166.6666667,,,,,,,,,,,,,,,e,1,0.619,,,,,,杰出,e,,,1,30,110,13,1,,,,,,,,,,,,,,,,,,,,,,,,,,,,,,,,,,
,,,,,,,,,,,,,,1,001,2025-01-02_12h23.40.896,IAT(Formal),2021.2.3,Win32,166.6666667,,,,,,,,,,,,,,,e,1,0.6147,,,,,,诚实,e,,,1,31,111,15,1,,,,,,,,,,,,,,,,,,,,,,,,,,,,,,,,,,
,,,,,,,,,,,,,,1,001,2025-01-02_12h23.40.896,IAT(Formal),2021.2.3,Win32,166.6666667,,,,,,,,,,,,,,,i,1,0.6611,,,,,,消极,i,,,1,32,112,35,1,,,,,,,,,,,,,,,,,,,,,,,,,,,,,,,,,,
,,,,,,,,,,,,,,1,001,2025-01-02_12h23.40.896,IAT(Formal),2021.2.3,Win32,166.6666667,,,,,,,,,,,,,,,i,1,0.6974,,,,,,冒失,i,,,1,33,113,39,1,,,,,,,,,,,,,,,,,,,,,,,,,,,,,,,,,,
,,,,,,,,,,,,,,1,001,2025-01-02_12h23.40.896,IAT(Formal),2021.2.3,Win32,166.6666667,,,,,,,,,,,,,,,e,1,0.5963,,,,,,自己,e,,,1,34,114,3,1,,,,,,,,,,,,,,,,,,,,,,,,,,,,,,,,,,
,,,,,,,,,,,,,,1,001,2025-01-02_12h23.40.896,IAT(Formal),2021.2.3,Win32,166.6666667,,,,,,,,,,,,,,,i,1,0.508,,,,,,猖狂,i,,,1,35,115,45,1,,,,,,,,,,,,,,,,,,,,,,,,,,,,,,,,,,
,,,,,,,,,,,,,,1,001,2025-01-02_12h23.40.896,IAT(Formal),2021.2.3,Win32,166.6666667,,,,,,,,,,,,,,,i,1,0.5081,,,,,,野蛮,i,,,1,36,116,46,1,,,,,,,,,,,,,,,,,,,,,,,,,,,,,,,,,,
,,,,,,,,,,,,,,1,001,2025-01-02_12h23.40.896,IAT(Formal),2021.2.3,Win32,166.6666667,,,,,,,,,,,,,,,i,1,0.6459,,,,,,傲慢,i,,,1,37,117,37,1,,,,,,,,,,,,,,,,,,,,,,,,,,,,,,,,,,
,,,,,,,,,,,,,,1,001,2025-01-02_12h23.40.896,IAT(Formal),2021.2.3,Win32,166.6666667,,,,,,,,,,,,,,,e,1,0.6089,,,,,,勇敢,e,,,1,38,118,17,1,,,,,,,,,,,,,,,,,,,,,,,,,,,,,,,,,,
,,,,,,,,,,,,,,1,001,2025-01-02_12h23.40.896,IAT(Formal),2021.2.3,Win32,166.6666667,,,,,,,,,,,,,,,i,1,0.5827,,,,,,其他,i,,,1,39,119,59,1,,,,,,,,,,,,,,,,,,,,,,,,,,,,,,,,,,
,,,,,,,,,,,,,,1,001,2025-01-02_12h23.40.896,IAT(Formal),2021.2.3,Win32,166.6666667,,,,,,,,,,,,,,,e,1,0.4915,,,,,,我的,e,,,1,40,120,51,1,,,,,,,,,,,,,,,,,,,,,,,,,,,,,,,,,,
,,,,,,,,,,,,,,1,001,2025-01-02_12h23.40.896,IAT(Formal),2021.2.3,Win32,166.6666667,,,,,,,,,,,,,,,i,1,0.5292,,,,,,执拗,i,,,1,41,121,40,1,,,,,,,,,,,,,,,,,,,,,,,,,,,,,,,,,,
,,,,,,,,,,,,,,1,001,2025-01-02_12h23.40.896,IAT(Formal),2021.2.3,Win32,166.6666667,,,,,,,,,,,,,,,i,1,0.6063,,,,,,他人,i,,,1,42,122,8,1,,,,,,,,,,,,,,,,,,,,,,,,,,,,,,,,,,
,,,,,,,,,,,,,,1,001,2025-01-02_12h23.40.896,IAT(Formal),2021.2.3,Win32,166.6666667,,,,,,,,,,,,,,,i,1,0.4671,,,,,,他的,i,,,1,43,123,77,1,,,,,,,,,,,,,,,,,,,,,,,,,,,,,,,,,,
,,,,,,,,,,,,,,1,001,2025-01-02_12h23.40.896,IAT(Formal),2021.2.3,Win32,166.6666667,,,,,,,,,,,,,,,i,1,0.3913,,,,,,他的,i,,,1,44,124,57,1,,,,,,,,,,,,,,,,,,,,,,,,,,,,,,,,,,
,,,,,,,,,,,,,,1,001,2025-01-02_12h23.40.896,IAT(Formal),2021.2.3,Win32,166.6666667,,,,,,,,,,,,,,,e,1,0.7851,,,,,,无私,e,,,1,45,125,22,1,,,,,,,,,,,,,,,,,,,,,,,,,,,,,,,,,,
,,,,,,,,,,,,,,1,001,2025-01-02_12h23.40.896,IAT(Formal),2021.2.3,Win32,166.6666667,,,,,,,,,,,,,,,e,1,0.4099,,,,,,我,e,,,1,46,126,50,1,,,,,,,,,,,,,,,,,,,,,,,,,,,,,,,,,,
,,,,,,,,,,,,,,1,001,2025-01-02_12h23.40.896,IAT(Formal),2021.2.3,Win32,166.6666667,,,,,,,,,,,,,,,i,1,0.6094,,,,,,固执,i,,,1,47,127,47,1,,,,,,,,,,,,,,,,,,,,,,,,,,,,,,,,,,
,,,,,,,,,,,,,,1,001,2025-01-02_12h23.40.896,IAT(Formal),2021.2.3,Win32,166.6666667,,,,,,,,,,,,,,,i,1,0.5347,,,,,,自私,i,,,1,48,128,43,1,,,,,,,,,,,,,,,,,,,,,,,,,,,,,,,,,,
,,,,,,,,,,,,,,1,001,2025-01-02_12h23.40.896,IAT(Formal),2021.2.3,Win32,166.6666667,,,,,,,,,,,,,,,e,1,0.4078,,,,,,俺,e,,,1,49,129,64,1,,,,,,,,,,,,,,,,,,,,,,,,,,,,,,,,,,
,,,,,,,,,,,,,,1,001,2025-01-02_12h23.40.896,IAT(Formal),2021.2.3,Win32,166.6666667,,,,,,,,,,,,,,,i,1,0.5761,,,,,,他们,i,,,1,50,130,56,1,,,,,,,,,,,,,,,,,,,,,,,,,,,,,,,,,,
,,,,,,,,,,,,,,1,001,2025-01-02_12h23.40.896,IAT(Formal),2021.2.3,Win32,166.6666667,,,,,,,,,,,,,,,i,1,0.4898,,,,,,凶狠,i,,,1,51,131,42,1,,,,,,,,,,,,,,,,,,,,,,,,,,,,,,,,,,
,,,,,,,,,,,,,,1,001,2025-01-02_12h23.40.896,IAT(Formal),2021.2.3,Win32,166.6666667,,,,,,,,,,,,,,,e,1,0.5584,,,,,,细腻,e,,,1,52,132,25,1,,,,,,,,,,,,,,,,,,,,,,,,,,,,,,,,,,
,,,,,,,,,,,,,,1,001,2025-01-02_12h23.40.896,IAT(Formal),2021.2.3,Win32,166.6666667,,,,,,,,,,,,,,,i,1,0.4305,,,,,,他人,i,,,1,53,133,58,1,,,,,,,,,,,,,,,,,,,,,,,,,,,,,,,,,,
,,,,,,,,,,,,,,1,001,2025-01-02_12h23.40.896,IAT(Formal),2021.2.3,Win32,166.6666667,,,,,,,,,,,,,,,e,1,0.6105,,,,,,活泼,e,,,1,54,134,28,1,,,,,,,,,,,,,,,,,,,,,,,,,,,,,,,,,,
,,,,,,,,,,,,,,1,001,2025-01-02_12h23.40.896,IAT(Formal),2021.2.3,Win32,166.6666667,,,,,,,,,,,,,,,i,1,0.6546,,,,,,他们,i,,,1,55,135,6,1,,,,,,,,,,,,,,,,,,,,,,,,,,,,,,,,,,
,,,,,,,,,,,,,,1,001,2025-01-02_12h23.40.896,IAT(Formal),2021.2.3,Win32,166.6666667,,,,,,,,,,,,,,,i,1,0.552,,,,,,悲观,i,,,1,56,136,34,1,,,,,,,,,,,,,,,,,,,,,,,,,,,,,,,,,,
,,,,,,,,,,,,,,1,001,2025-01-02_12h23.40.896,IAT(Formal),2021.2.3,Win32,166.6666667,,,,,,,,,,,,,,,i,1,0.4624,,,,,,下贱,i,,,1,57,137,49,1,,,,,,,,,,,,,,,,,,,,,,,,,,,,,,,,,,
,,,,,,,,,,,,,,1,001,2025-01-02_12h23.40.896,IAT(Formal),2021.2.3,Win32,166.6666667,,,,,,,,,,,,,,,i,1,0.4222,,,,,,轻率,i,,,1,58,138,48,1,,,,,,,,,,,,,,,,,,,,,,,,,,,,,,,,,,
,,,,,,,,,,,,,,1,001,2025-01-02_12h23.40.896,IAT(Formal),2021.2.3,Win32,166.6666667,,,,,,,,,,,,,,,i,1,0.403,,,,,,散漫,i,,,1,59,139,41,1,,,,,,,,,,,,,,,,,,,,,,,,,,,,,,,,,,
,,,,,,,,,,,,,,1,001,2025-01-02_12h23.40.896,IAT(Formal),2021.2.3,Win32,166.6666667,,,,,,,,,,,,,,,i,1,0.4432,,,,,,其他,i,,,1,60,140,69,1,,,,,,,,,,,,,,,,,,,,,,,,,,,,,,,,,,
,,,,,,,,,,,,,,1,001,2025-01-02_12h23.40.896,IAT(Formal),2021.2.3,Win32,166.6666667,,,,,,,,,,,,,,,i,1,0.5578,,,,,,他的,i,,,1,61,141,7,1,,,,,,,,,,,,,,,,,,,,,,,,,,,,,,,,,,
,,,,,,,,,,,,,,1,001,2025-01-02_12h23.40.896,IAT(Formal),2021.2.3,Win32,166.6666667,,,,,,,,,,,,,,,e,1,0.4316,,,,,,自己,e,,,1,62,142,53,1,,,,,,,,,,,,,,,,,,,,,,,,,,,,,,,,,,
,,,,,,,,,,,,,,1,001,2025-01-02_12h23.40.896,IAT(Formal),2021.2.3,Win32,166.6666667,,,,,,,,,,,,,,,e,1,0.5424,,,,,,我,e,,,1,63,143,70,1,,,,,,,,,,,,,,,,,,,,,,,,,,,,,,,,,,
,,,,,,,,,,,,,,1,001,2025-01-02_12h23.40.896,IAT(Formal),2021.2.3,Win32,166.6666667,,,,,,,,,,,,,,,e,1,0.4669,,,,,,优秀,e,,,1,64,144,10,1,,,,,,,,,,,,,,,,,,,,,,,,,,,,,,,,,,
,,,,,,,,,,,,,,1,001,2025-01-02_12h23.40.896,IAT(Formal),2021.2.3,Win32,166.6666667,,,,,,,,,,,,,,,e,1,0.4385,,,,,,热情,e,,,1,65,145,27,1,,,,,,,,,,,,,,,,,,,,,,,,,,,,,,,,,,
,,,,,,,,,,,,,,1,001,2025-01-02_12h23.40.896,IAT(Formal),2021.2.3,Win32,166.6666667,,,,,,,,,,,,,,,i,1,0.4694,,,,,,他人,i,,,1,66,146,68,1,,,,,,,,,,,,,,,,,,,,,,,,,,,,,,,,,,
,,,,,,,,,,,,,,1,001,2025-01-02_12h23.40.896,IAT(Formal),2021.2.3,Win32,166.6666667,,,,,,,,,,,,,,,e,1,0.4858,,,,,,我,e,,,1,67,147,60,1,,,,,,,,,,,,,,,,,,,,,,,,,,,,,,,,,,
,,,,,,,,,,,,,,1,001,2025-01-02_12h23.40.896,IAT(Formal),2021.2.3,Win32,166.6666667,,,,,,,,,,,,,,,e,1,0.582,,,,,,崇高,e,,,1,68,148,11,1,,,,,,,,,,,,,,,,,,,,,,,,,,,,,,,,,,
,,,,,,,,,,,,,,1,001,2025-01-02_12h23.40.896,IAT(Formal),2021.2.3,Win32,166.6666667,,,,,,,,,,,,,,,i,1,0.4858,,,,,,他人,i,,,1,69,149,78,1,,,,,,,,,,,,,,,,,,,,,,,,,,,,,,,,,,
,,,,,,,,,,,,,,1,001,2025-01-02_12h23.40.896,IAT(Formal),2021.2.3,Win32,166.6666667,,,,,,,,,,,,,,,e,1,0.5035,,,,,,诚恳,e,,,1,70,150,29,1,,,,,,,,,,,,,,,,,,,,,,,,,,,,,,,,,,
,,,,,,,,,,,,,,1,001,2025-01-02_12h23.40.896,IAT(Formal),2021.2.3,Win32,166.6666667,,,,,,,,,,,,,,,e,1,0.5579,,,,,,机智,e,,,1,71,151,19,1,,,,,,,,,,,,,,,,,,,,,,,,,,,,,,,,,,
,,,,,,,,,,,,,,1,001,2025-01-02_12h23.40.896,IAT(Formal),2021.2.3,Win32,166.6666667,,,,,,,,,,,,,,,e,1,0.4685,,,,,,认真,e,,,1,72,152,20,1,,,,,,,,,,,,,,,,,,,,,,,,,,,,,,,,,,
,,,,,,,,,,,,,,1,001,2025-01-02_12h23.40.896,IAT(Formal),2021.2.3,Win32,166.6666667,,,,,,,,,,,,,,,i,1,0.5247,,,,,,其他,i,,,1,73,153,79,1,,,,,,,,,,,,,,,,,,,,,,,,,,,,,,,,,,
,,,,,,,,,,,,,,1,001,2025-01-02_12h23.40.896,IAT(Formal),2021.2.3,Win32,166.6666667,,,,,,,,,,,,,,,e,1,0.4761,,,,,,自己,e,,,1,74,154,73,1,,,,,,,,,,,,,,,,,,,,,,,,,,,,,,,,,,
,,,,,,,,,,,,,,1,001,2025-01-02_12h23.40.896,IAT(Formal),2021.2.3,Win32,166.6666667,,,,,,,,,,,,,,,e,1,0.5841,,,,,,正直,e,,,1,75,155,16,1,,,,,,,,,,,,,,,,,,,,,,,,,,,,,,,,,,
,,,,,,,,,,,,,,1,001,2025-01-02_12h23.40.896,IAT(Formal),2021.2.3,Win32,166.6666667,,,,,,,,,,,,,,,e,1,0.5246,,,,,,稳重,e,,,1,76,156,21,1,,,,,,,,,,,,,,,,,,,,,,,,,,,,,,,,,,
,,,,,,,,,,,,,,1,001,2025-01-02_12h23.40.896,IAT(Formal),2021.2.3,Win32,166.6666667,,,,,,,,,,,,,,,i,0,0.6217,,,,,,冷静,e,,,1,77,157,26,1,,,,,,,,,,,,,,,,,,,,,,,,,,,,,,,,,,
,,,,,,,,,,,,,,1,001,2025-01-02_12h23.40.896,IAT(Formal),2021.2.3,Win32,166.6666667,,,,,,,,,,,,,,,e,1,0.6387,,,,,,勤奋,e,,,1,78,158,18,1,,,,,,,,,,,,,,,,,,,,,,,,,,,,,,,,,,
,,,,,,,,,,,,,,1,001,2025-01-02_12h23.40.896,IAT(Formal),2021.2.3,Win32,166.6666667,,,,,,,,,,,,,,,i,1,0.5538,,,,,,刻薄,i,,,1,79,159,33,1,,,,,,,,,,,,,,,,,,,,,,,,,,,,,,,,,,
,,,,,,,,,,,,他的,e,1,001,2025-01-02_12h23.40.896,IAT(Formal),2021.2.3,Win32,166.6666667,,,,,,,,,,,,,,,,,,,,,,,,,,,,,,,,space,15.2615,e,1,0.8684,0,0,0,7,1,,,,,,,,,,,,,,,,,,,,,,,,
,,,,,,,,,,,,他们,e,1,001,2025-01-02_12h23.40.896,IAT(Formal),2021.2.3,Win32,166.6666667,,,,,,,,,,,,,,,,,,,,,,,,,,,,,,,,,,e,1,0.4201,0,1,1,6,1,,,,,,,,,,,,,,,,,,,,,,,,
,,,,,,,,,,,,我的,i,1,001,2025-01-02_12h23.40.896,IAT(Formal),2021.2.3,Win32,166.6666667,,,,,,,,,,,,,,,,,,,,,,,,,,,,,,,,,,i,1,0.4733,0,2,2,1,1,,,,,,,,,,,,,,,,,,,,,,,,
,,,,,,,,,,,,我们,i,1,001,2025-01-02_12h23.40.896,IAT(Formal),2021.2.3,Win32,166.6666667,,,,,,,,,,,,,,,,,,,,,,,,,,,,,,,,,,i,1,0.401,0,3,3,2,1,,,,,,,,,,,,,,,,,,,,,,,,
,,,,,,,,,,,,他人,e,1,001,2025-01-02_12h23.40.896,IAT(Formal),2021.2.3,Win32,166.6666667,,,,,,,,,,,,,,,,,,,,,,,,,,,,,,,,,,e,1,0.5643,0,4,4,8,1,,,,,,,,,,,,,,,,,,,,,,,,
,,,,,,,,,,,,其他,e,1,001,2025-01-02_12h23.40.896,IAT(Formal),2021.2.3,Win32,166.6666667,,,,,,,,,,,,,,,,,,,,,,,,,,,,,,,,,,e,1,0.71,0,5,5,9,1,,,,,,,,,,,,,,,,,,,,,,,,
,,,,,,,,,,,,我,i,1,001,2025-01-02_12h23.40.896,IAT(Formal),2021.2.3,Win32,166.6666667,,,,,,,,,,,,,,,,,,,,,,,,,,,,,,,,,,i,1,0.4506,0,6,6,0,1,,,,,,,,,,,,,,,,,,,,,,,,
,,,,,,,,,,,,他,e,1,001,2025-01-02_12h23.40.896,IAT(Formal),2021.2.3,Win32,166.6666667,,,,,,,,,,,,,,,,,,,,,,,,,,,,,,,,,,e,1,0.4819,0,7,7,5,1,,,,,,,,,,,,,,,,,,,,,,,,
,,,,,,,,,,,,俺,i,1,001,2025-01-02_12h23.40.896,IAT(Formal),2021.2.3,Win32,166.6666667,,,,,,,,,,,,,,,,,,,,,,,,,,,,,,,,,,i,1,0.4972,0,8,8,4,1,,,,,,,,,,,,,,,,,,,,,,,,
,,,,,,,,,,,,自己,i,1,001,2025-01-02_12h23.40.896,IAT(Formal),2021.2.3,Win32,166.6666667,,,,,,,,,,,,,,,,,,,,,,,,,,,,,,,,,,i,1,0.5605,0,9,9,3,1,,,,,,,,,,,,,,,,,,,,,,,,
,,,,,,,,,,,,,,1,001,2025-01-02_12h23.40.896,IAT(Formal),2021.2.3,Win32,166.6666667,,,,,,,,,,,,,,,,,,,,,,,,,,,,,,,,,,,,,,,,,,space,15.5607,e,0,1.0472,0,0,0,64,1,俺,i,,,,,,,,,,,,
,,,,,,,,,,,,,,1,001,2025-01-02_12h23.40.896,IAT(Formal),2021.2.3,Win32,166.6666667,,,,,,,,,,,,,,,,,,,,,,,,,,,,,,,,,,,,,,,,,,,,i,1,0.9999,0,1,1,60,1,我,i,,,,,,,,,,,,
,,,,,,,,,,,,,,1,001,2025-01-02_12h23.40.896,IAT(Formal),2021.2.3,Win32,166.6666667,,,,,,,,,,,,,,,,,,,,,,,,,,,,,,,,,,,,,,,,,,,,e,1,0.6619,0,2,2,5,1,他,e,,,,,,,,,,,,
,,,,,,,,,,,,,,1,001,2025-01-02_12h23.40.896,IAT(Formal),2021.2.3,Win32,166.6666667,,,,,,,,,,,,,,,,,,,,,,,,,,,,,,,,,,,,,,,,,,,,i,1,0.5102,0,3,3,52,1,我们,i,,,,,,,,,,,,
,,,,,,,,,,,,,,1,001,2025-01-02_12h23.40.896,IAT(Formal),2021.2.3,Win32,166.6666667,,,,,,,,,,,,,,,,,,,,,,,,,,,,,,,,,,,,,,,,,,,,e,1,0.6889,0,4,4,55,1,他,e,,,,,,,,,,,,
,,,,,,,,,,,,,,1,001,2025-01-02_12h23.40.896,IAT(Formal),2021.2.3,Win32,166.6666667,,,,,,,,,,,,,,,,,,,,,,,,,,,,,,,,,,,,,,,,,,,,i,1,0.7983,0,5,5,34,1,悲观,i,,,,,,,,,,,,
,,,,,,,,,,,,,,1,001,2025-01-02_12h23.40.896,IAT(Formal),2021.2.3,Win32,166.6666667,,,,,,,,,,,,,,,,,,,,,,,,,,,,,,,,,,,,,,,,,,,,e,1,0.6716,0,6,6,14,1,乐观,e,,,,,,,,,,,,
,,,,,,,,,,,,,,1,001,2025-01-02_12h23.40.896,IAT(Formal),2021.2.3,Win32,166.6666667,,,,,,,,,,,,,,,,,,,,,,,,,,,,,,,,,,,,,,,,,,,,i,1,0.5741,0,7,7,41,1,散漫,i,,,,,,,,,,,,
,,,,,,,,,,,,,,1,001,2025-01-02_12h23.40.896,IAT(Formal),2021.2.3,Win32,166.6666667,,,,,,,,,,,,,,,,,,,,,,,,,,,,,,,,,,,,,,,,,,,,e,1,0.7635,0,8,8,27,1,热情,e,,,,,,,,,,,,
,,,,,,,,,,,,,,1,001,2025-01-02_12h23.40.896,IAT(Formal),2021.2.3,Win32,166.6666667,,,,,,,,,,,,,,,,,,,,,,,,,,,,,,,,,,,,,,,,,,,,i,1,0.6487,0,9,9,53,1,自己,i,,,,,,,,,,,,
,,,,,,,,,,,,,,1,001,2025-01-02_12h23.40.896,IAT(Formal),2021.2.3,Win32,166.6666667,,,,,,,,,,,,,,,,,,,,,,,,,,,,,,,,,,,,,,,,,,,,i,1,0.5842,0,10,10,3,1,自己,i,,,,,,,,,,,,
,,,,,,,,,,,,,,1,001,2025-01-02_12h23.40.896,IAT(Formal),2021.2.3,Win32,166.6666667,,,,,,,,,,,,,,,,,,,,,,,,,,,,,,,,,,,,,,,,,,,,e,1,0.6313,0,11,11,22,1,无私,e,,,,,,,,,,,,
,,,,,,,,,,,,,,1,001,2025-01-02_12h23.40.896,IAT(Formal),2021.2.3,Win32,166.6666667,,,,,,,,,,,,,,,,,,,,,,,,,,,,,,,,,,,,,,,,,,,,i,1,0.6273,0,12,12,2,1,我们,i,,,,,,,,,,,,
,,,,,,,,,,,,,,1,001,2025-01-02_12h23.40.896,IAT(Formal),2021.2.3,Win32,166.6666667,,,,,,,,,,,,,,,,,,,,,,,,,,,,,,,,,,,,,,,,,,,,e,0,0.7521,0,13,13,46,1,野蛮,i,,,,,,,,,,,,
,,,,,,,,,,,,,,1,001,2025-01-02_12h23.40.896,IAT(Formal),2021.2.3,Win32,166.6666667,,,,,,,,,,,,,,,,,,,,,,,,,,,,,,,,,,,,,,,,,,,,i,1,0.6035,0,14,14,30,1,卑鄙,i,,,,,,,,,,,,
,,,,,,,,,,,,,,1,001,2025-01-02_12h23.40.896,IAT(Formal),2021.2.3,Win32,166.6666667,,,,,,,,,,,,,,,,,,,,,,,,,,,,,,,,,,,,,,,,,,,,e,0,0.7704,0,15,15,70,1,我,i,,,,,,,,,,,,
,,,,,,,,,,,,,,1,001,2025-01-02_12h23.40.896,IAT(Formal),2021.2.3,Win32,166.6666667,,,,,,,,,,,,,,,,,,,,,,,,,,,,,,,,,,,,,,,,,,,,e,0,0.6506,0,16,16,40,1,执拗,i,,,,,,,,,,,,
,,,,,,,,,,,,,,1,001,2025-01-02_12h23.40.896,IAT(Formal),2021.2.3,Win32,166.6666667,,,,,,,,,,,,,,,,,,,,,,,,,,,,,,,,,,,,,,,,,,,,i,0,0.5639,0,17,17,11,1,崇高,e,,,,,,,,,,,,
,,,,,,,,,,,,,,1,001,2025-01-02_12h23.40.896,IAT(Formal),2021.2.3,Win32,166.6666667,,,,,,,,,,,,,,,,,,,,,,,,,,,,,,,,,,,,,,,,,,,,i,0,0.5555,0,18,18,16,1,正直,e,,,,,,,,,,,,
,,,,,,,,,,,,,,1,001,2025-01-02_12h23.40.896,IAT(Formal),2021.2.3,Win32,166.6666667,,,,,,,,,,,,,,,,,,,,,,,,,,,,,,,,,,,,,,,,,,,,e,0,0.6046,0,19,19,74,1,俺,i,,,,,,,,,,,,
,,,,,,,,,,,,,,1,001,2025-01-02_12h23.40.896,IAT(Formal),2021.2.3,Win32,166.6666667,,,,,,,,,,,,,,,,,,,,,,,,,,,,,,,,,,,,,,,,,,,,i,1,0.7685,0,20,20,73,1,自己,i,,,,,,,,,,,,
,,,,,,,,,,,,,,1,001,2025-01-02_12h23.40.896,IAT(Formal),2021.2.3,Win32,166.6666667,,,,,,,,,,,,,,,,,,,,,,,,,,,,,,,,,,,,,,,,,,,,e,1,0.6286,0,21,21,8,1,他人,e,,,,,,,,,,,,
,,,,,,,,,,,,,,1,001,2025-01-02_12h23.40.896,IAT(Formal),2021.2.3,Win32,166.6666667,,,,,,,,,,,,,,,,,,,,,,,,,,,,,,,,,,,,,,,,,,,,i,1,0.5098,0,22,22,71,1,我的,i,,,,,,,,,,,,
,,,,,,,,,,,,,,1,001,2025-01-02_12h23.40.896,IAT(Formal),2021.2.3,Win32,166.6666667,,,,,,,,,,,,,,,,,,,,,,,,,,,,,,,,,,,,,,,,,,,,i,0,0.5526,0,23,23,7,1,他的,e,,,,,,,,,,,,
,,,,,,,,,,,,,,1,001,2025-01-02_12h23.40.896,IAT(Formal),2021.2.3,Win32,166.6666667,,,,,,,,,,,,,,,,,,,,,,,,,,,,,,,,,,,,,,,,,,,,i,1,0.8638,0,24,24,38,1,鲁莽,i,,,,,,,,,,,,
,,,,,,,,,,,,,,1,001,2025-01-02_12h23.40.896,IAT(Formal),2021.2.3,Win32,166.6666667,,,,,,,,,,,,,,,,,,,,,,,,,,,,,,,,,,,,,,,,,,,,e,1,0.4237,0,25,25,28,1,活泼,e,,,,,,,,,,,,
,,,,,,,,,,,,,,1,001,2025-01-02_12h23.40.896,IAT(Formal),2021.2.3,Win32,166.6666667,,,,,,,,,,,,,,,,,,,,,,,,,,,,,,,,,,,,,,,,,,,,i,1,0.7456,0,26,26,39,1,冒失,i,,,,,,,,,,,,
,,,,,,,,,,,,,,1,001,2025-01-02_12h23.40.896,IAT(Formal),2021.2.3,Win32,166.6666667,,,,,,,,,,,,,,,,,,,,,,,,,,,,,,,,,,,,,,,,,,,,i,1,0.6795,0,27,27,51,1,我的,i,,,,,,,,,,,,
,,,,,,,,,,,,,,1,001,2025-01-02_12h23.40.896,IAT(Formal),2021.2.3,Win32,166.6666667,,,,,,,,,,,,,,,,,,,,,,,,,,,,,,,,,,,,,,,,,,,,e,0,0.5284,0,28,28,43,1,自私,i,,,,,,,,,,,,
,,,,,,,,,,,,,,1,001,2025-01-02_12h23.40.896,IAT(Formal),2021.2.3,Win32,166.6666667,,,,,,,,,,,,,,,,,,,,,,,,,,,,,,,,,,,,,,,,,,,,i,1,0.552,0,29,29,50,1,我,i,,,,,,,,,,,,
,,,,,,,,,,,,,,1,001,2025-01-02_12h23.40.896,IAT(Formal),2021.2.3,Win32,166.6666667,,,,,,,,,,,,,,,,,,,,,,,,,,,,,,,,,,,,,,,,,,,,e,1,0.5397,0,30,30,20,1,认真,e,,,,,,,,,,,,
,,,,,,,,,,,,,,1,001,2025-01-02_12h23.40.896,IAT(Formal),2021.2.3,Win32,166.6666667,,,,,,,,,,,,,,,,,,,,,,,,,,,,,,,,,,,,,,,,,,,,i,1,0.8022,0,31,31,62,1,我们,i,,,,,,,,,,,,
,,,,,,,,,,,,,,1,001,2025-01-02_12h23.40.896,IAT(Formal),2021.2.3,Win32,166.6666667,,,,,,,,,,,,,,,,,,,,,,,,,,,,,,,,,,,,,,,,,,,,e,1,0.7726,0,32,32,19,1,机智,e,,,,,,,,,,,,
,,,,,,,,,,,,,,1,001,2025-01-02_12h23.40.896,IAT(Formal),2021.2.3,Win32,166.6666667,,,,,,,,,,,,,,,,,,,,,,,,,,,,,,,,,,,,,,,,,,,,e,1,0.7078,0,33,33,57,1,他的,e,,,,,,,,,,,,
,,,,,,,,,,,,,,1,001,2025-01-02_12h23.40.896,IAT(Formal),2021.2.3,Win32,166.6666667,,,,,,,,,,,,,,,,,,,,,,,,,,,,,,,,,,,,,,,,,,,,e,1,0.5215,0,34,34,78,1,他人,e,,,,,,,,,,,,
,,,,,,,,,,,,,,1,001,2025-01-02_12h23.40.896,IAT(Formal),2021.2.3,Win32,166.6666667,,,,,,,,,,,,,,,,,,,,,,,,,,,,,,,,,,,,,,,,,,,,i,0,0.6858,0,35,35,23,1,公正,e,,,,,,,,,,,,
,,,,,,,,,,,,,,1,001,2025-01-02_12h23.40.896,IAT(Formal),2021.2.3,Win32,166.6666667,,,,,,,,,,,,,,,,,,,,,,,,,,,,,,,,,,,,,,,,,,,,e,1,0.4794,0,36,36,17,1,勇敢,e,,,,,,,,,,,,
,,,,,,,,,,,,,,1,001,2025-01-02_12h23.40.896,IAT(Formal),2021.2.3,Win32,166.6666667,,,,,,,,,,,,,,,,,,,,,,,,,,,,,,,,,,,,,,,,,,,,i,1,0.5639,0,37,37,37,1,傲慢,i,,,,,,,,,,,,
,,,,,,,,,,,,,,1,001,2025-01-02_12h23.40.896,IAT(Formal),2021.2.3,Win32,166.6666667,,,,,,,,,,,,,,,,,,,,,,,,,,,,,,,,,,,,,,,,,,,,e,0,0.5041,0,38,38,0,1,我,i,,,,,,,,,,,,
,,,,,,,,,,,,,,1,001,2025-01-02_12h23.40.896,IAT(Formal),2021.2.3,Win32,166.6666667,,,,,,,,,,,,,,,,,,,,,,,,,,,,,,,,,,,,,,,,,,,,e,1,0.4947,0,39,39,24,1,朴实,e,,,,,,,,,,,,
,,,,,,,,,,,,,,1,001,2025-01-02_12h23.40.896,IAT(Formal),2021.2.3,Win32,166.6666667,,,,,,,,,,,,,,,,,,,,,,,,,,,,,,,,,,,,,,,,,,,,i,1,0.6304,0,40,40,47,1,固执,i,,,,,,,,,,,,
,,,,,,,,,,,,,,1,001,2025-01-02_12h23.40.896,IAT(Formal),2021.2.3,Win32,166.6666667,,,,,,,,,,,,,,,,,,,,,,,,,,,,,,,,,,,,,,,,,,,,e,0,0.551,0,41,41,1,1,我的,i,,,,,,,,,,,,
,,,,,,,,,,,,,,1,001,2025-01-02_12h23.40.896,IAT(Formal),2021.2.3,Win32,166.6666667,,,,,,,,,,,,,,,,,,,,,,,,,,,,,,,,,,,,,,,,,,,,e,1,0.614,0,42,42,9,1,其他,e,,,,,,,,,,,,
,,,,,,,,,,,,,,1,001,2025-01-02_12h23.40.896,IAT(Formal),2021.2.3,Win32,166.6666667,,,,,,,,,,,,,,,,,,,,,,,,,,,,,,,,,,,,,,,,,,,,e,0,0.8098,0,43,43,32,1,愚蠢,i,,,,,,,,,,,,
,,,,,,,,,,,,,,1,001,2025-01-02_12h23.40.896,IAT(Formal),2021.2.3,Win32,166.6666667,,,,,,,,,,,,,,,,,,,,,,,,,,,,,,,,,,,,,,,,,,,,i,0,0.8817,0,44,44,59,1,其他,e,,,,,,,,,,,,
,,,,,,,,,,,,,,1,001,2025-01-02_12h23.40.896,IAT(Formal),2021.2.3,Win32,166.6666667,,,,,,,,,,,,,,,,,,,,,,,,,,,,,,,,,,,,,,,,,,,,e,1,0.8117,0,45,45,18,1,勤奋,e,,,,,,,,,,,,
,,,,,,,,,,,,,,1,001,2025-01-02_12h23.40.896,IAT(Formal),2021.2.3,Win32,166.6666667,,,,,,,,,,,,,,,,,,,,,,,,,,,,,,,,,,,,,,,,,,,,e,1,0.6944,0,46,46,6,1,他们,e,,,,,,,,,,,,
,,,,,,,,,,,,,,1,001,2025-01-02_12h23.40.896,IAT(Formal),2021.2.3,Win32,166.6666667,,,,,,,,,,,,,,,,,,,,,,,,,,,,,,,,,,,,,,,,,,,,i,1,0.686,0,47,47,33,1,刻薄,i,,,,,,,,,,,,
,,,,,,,,,,,,,,1,001,2025-01-02_12h23.40.896,IAT(Formal),2021.2.3,Win32,166.6666667,,,,,,,,,,,,,,,,,,,,,,,,,,,,,,,,,,,,,,,,,,,,e,1,0.7411,0,48,48,68,1,他人,e,,,,,,,,,,,,
,,,,,,,,,,,,,,1,001,2025-01-02_12h23.40.896,IAT(Formal),2021.2.3,Win32,166.6666667,,,,,,,,,,,,,,,,,,,,,,,,,,,,,,,,,,,,,,,,,,,,e,1,0.4855,0,49,49,56,1,他们,e,,,,,,,,,,,,
,,,,,,,,,,,,,,1,001,2025-01-02_12h23.40.896,IAT(Formal),2021.2.3,Win32,166.6666667,,,,,,,,,,,,,,,,,,,,,,,,,,,,,,,,,,,,,,,,,,,,i,1,0.553,0,50,50,63,1,自己,i,,,,,,,,,,,,
,,,,,,,,,,,,,,1,001,2025-01-02_12h23.40.896,IAT(Formal),2021.2.3,Win32,166.6666667,,,,,,,,,,,,,,,,,,,,,,,,,,,,,,,,,,,,,,,,,,,,e,0,1.0745,0,51,51,42,1,凶狠,i,,,,,,,,,,,,
,,,,,,,,,,,,,,1,001,2025-01-02_12h23.40.896,IAT(Formal),2021.2.3,Win32,166.6666667,,,,,,,,,,,,,,,,,,,,,,,,,,,,,,,,,,,,,,,,,,,,e,1,0.7977,0,52,52,76,1,他们,e,,,,,,,,,,,,
,,,,,,,,,,,,,,1,001,2025-01-02_12h23.40.896,IAT(Formal),2021.2.3,Win32,166.6666667,,,,,,,,,,,,,,,,,,,,,,,,,,,,,,,,,,,,,,,,,,,,e,1,0.7459,0,53,53,26,1,冷静,e,,,,,,,,,,,,
,,,,,,,,,,,,,,1,001,2025-01-02_12h23.40.896,IAT(Formal),2021.2.3,Win32,166.6666667,,,,,,,,,,,,,,,,,,,,,,,,,,,,,,,,,,,,,,,,,,,,e,1,0.9183,0,54,54,65,1,他,e,,,,,,,,,,,,
,,,,,,,,,,,,,,1,001,2025-01-02_12h23.40.896,IAT(Formal),2021.2.3,Win32,166.6666667,,,,,,,,,,,,,,,,,,,,,,,,,,,,,,,,,,,,,,,,,,,,e,1,0.728,0,55,55,10,1,优秀,e,,,,,,,,,,,,
,,,,,,,,,,,,,,1,001,2025-01-02_12h23.40.896,IAT(Formal),2021.2.3,Win32,166.6666667,,,,,,,,,,,,,,,,,,,,,,,,,,,,,,,,,,,,,,,,,,,,i,1,0.7394,0,56,56,36,1,自卑,i,,,,,,,,,,,,
,,,,,,,,,,,,,,1,001,2025-01-02_12h23.40.896,IAT(Formal),2021.2.3,Win32,166.6666667,,,,,,,,,,,,,,,,,,,,,,,,,,,,,,,,,,,,,,,,,,,,e,0,0.8014,0,57,57,48,1,轻率,i,,,,,,,,,,,,
,,,,,,,,,,,,,,1,001,2025-01-02_12h23.40.896,IAT(Formal),2021.2.3,Win32,166.6666667,,,,,,,,,,,,,,,,,,,,,,,,,,,,,,,,,,,,,,,,,,,,i,1,0.499,0,58,58,45,1,猖狂,i,,,,,,,,,,,,
,,,,,,,,,,,,,,1,001,2025-01-02_12h23.40.896,IAT(Formal),2021.2.3,Win32,166.6666667,,,,,,,,,,,,,,,,,,,,,,,,,,,,,,,,,,,,,,,,,,,,i,1,0.4676,0,59,59,44,1,暴躁,i,,,,,,,,,,,,
,,,,,,,,,,,,,,1,001,2025-01-02_12h23.40.896,IAT(Formal),2021.2.3,Win32,166.6666667,,,,,,,,,,,,,,,,,,,,,,,,,,,,,,,,,,,,,,,,,,,,e,1,0.635,0,60,60,25,1,细腻,e,,,,,,,,,,,,
,,,,,,,,,,,,,,1,001,2025-01-02_12h23.40.896,IAT(Formal),2021.2.3,Win32,166.6666667,,,,,,,,,,,,,,,,,,,,,,,,,,,,,,,,,,,,,,,,,,,,e,1,0.5278,0,61,61,75,1,他,e,,,,,,,,,,,,
,,,,,,,,,,,,,,1,001,2025-01-02_12h23.40.896,IAT(Formal),2021.2.3,Win32,166.6666667,,,,,,,,,,,,,,,,,,,,,,,,,,,,,,,,,,,,,,,,,,,,i,0,0.6289,0,62,62,79,1,其他,e,,,,,,,,,,,,
,,,,,,,,,,,,,,1,001,2025-01-02_12h23.40.896,IAT(Formal),2021.2.3,Win32,166.6666667,,,,,,,,,,,,,,,,,,,,,,,,,,,,,,,,,,,,,,,,,,,,e,1,0.5728,0,63,63,58,1,他人,e,,,,,,,,,,,,
,,,,,,,,,,,,,,1,001,2025-01-02_12h23.40.896,IAT(Formal),2021.2.3,Win32,166.6666667,,,,,,,,,,,,,,,,,,,,,,,,,,,,,,,,,,,,,,,,,,,,e,1,0.6612,0,64,64,29,1,诚恳,e,,,,,,,,,,,,
,,,,,,,,,,,,,,1,001,2025-01-02_12h23.40.896,IAT(Formal),2021.2.3,Win32,166.6666667,,,,,,,,,,,,,,,,,,,,,,,,,,,,,,,,,,,,,,,,,,,,i,1,0.6011,0,65,65,31,1,虚伪,i,,,,,,,,,,,,
,,,,,,,,,,,,,,1,001,2025-01-02_12h23.40.896,IAT(Formal),2021.2.3,Win32,166.6666667,,,,,,,,,,,,,,,,,,,,,,,,,,,,,,,,,,,,,,,,,,,,e,1,0.7059,0,66,66,13,1,杰出,e,,,,,,,,,,,,
,,,,,,,,,,,,,,1,001,2025-01-02_12h23.40.896,IAT(Formal),2021.2.3,Win32,166.6666667,,,,,,,,,,,,,,,,,,,,,,,,,,,,,,,,,,,,,,,,,,,,e,0,0.6017,0,67,67,61,1,我的,i,,,,,,,,,,,,
,,,,,,,,,,,,,,1,001,2025-01-02_12h23.40.896,IAT(Formal),2021.2.3,Win32,166.6666667,,,,,,,,,,,,,,,,,,,,,,,,,,,,,,,,,,,,,,,,,,,,e,1,0.5336,0,68,68,12,1,聪明,e,,,,,,,,,,,,
,,,,,,,,,,,,,,1,001,2025-01-02_12h23.40.896,IAT(Formal),2021.2.3,Win32,166.6666667,,,,,,,,,,,,,,,,,,,,,,,,,,,,,,,,,,,,,,,,,,,,i,1,0.6572,0,69,69,72,1,我们,i,,,,,,,,,,,,
,,,,,,,,,,,,,,1,001,2025-01-02_12h23.40.896,IAT(Formal),2021.2.3,Win32,166.6666667,,,,,,,,,,,,,,,,,,,,,,,,,,,,,,,,,,,,,,,,,,,,i,1,0.6978,0,70,70,4,1,俺,i,,,,,,,,,,,,
,,,,,,,,,,,,,,1,001,2025-01-02_12h23.40.896,IAT(Formal),2021.2.3,Win32,166.6666667,,,,,,,,,,,,,,,,,,,,,,,,,,,,,,,,,,,,,,,,,,,,e,1,0.5151,0,71,71,77,1,他的,e,,,,,,,,,,,,
,,,,,,,,,,,,,,1,001,2025-01-02_12h23.40.896,IAT(Formal),2021.2.3,Win32,166.6666667,,,,,,,,,,,,,,,,,,,,,,,,,,,,,,,,,,,,,,,,,,,,e,1,0.5726,0,72,72,67,1,他的,e,,,,,,,,,,,,
,,,,,,,,,,,,,,1,001,2025-01-02_12h23.40.896,IAT(Formal),2021.2.3,Win32,166.6666667,,,,,,,,,,,,,,,,,,,,,,,,,,,,,,,,,,,,,,,,,,,,i,1,0.6389,0,73,73,49,1,下贱,i,,,,,,,,,,,,
,,,,,,,,,,,,,,1,001,2025-01-02_12h23.40.896,IAT(Formal),2021.2.3,Win32,166.6666667,,,,,,,,,,,,,,,,,,,,,,,,,,,,,,,,,,,,,,,,,,,,i,0,0.5465,0,74,74,69,1,其他,e,,,,,,,,,,,,
,,,,,,,,,,,,,,1,001,2025-01-02_12h23.40.896,IAT(Formal),2021.2.3,Win32,166.6666667,,,,,,,,,,,,,,,,,,,,,,,,,,,,,,,,,,,,,,,,,,,,e,1,0.9105,0,75,75,21,1,稳重,e,,,,,,,,,,,,
,,,,,,,,,,,,,,1,001,2025-01-02_12h23.40.896,IAT(Formal),2021.2.3,Win32,166.6666667,,,,,,,,,,,,,,,,,,,,,,,,,,,,,,,,,,,,,,,,,,,,e,1,1.0181,0,76,76,66,1,他们,e,,,,,,,,,,,,
,,,,,,,,,,,,,,1,001,2025-01-02_12h23.40.896,IAT(Formal),2021.2.3,Win32,166.6666667,,,,,,,,,,,,,,,,,,,,,,,,,,,,,,,,,,,,,,,,,,,,i,1,1.0138,0,77,77,35,1,消极,i,,,,,,,,,,,,
,,,,,,,,,,,,,,1,001,2025-01-02_12h23.40.896,IAT(Formal),2021.2.3,Win32,166.6666667,,,,,,,,,,,,,,,,,,,,,,,,,,,,,,,,,,,,,,,,,,,,e,1,0.7064,0,78,78,15,1,诚实,e,,,,,,,,,,,,
,,,,,,,,,,,,,,1,001,2025-01-02_12h23.40.896,IAT(Formal),2021.2.3,Win32,166.6666667,,,,,,,,,,,,,,,,,,,,,,,,,,,,,,,,,,,,,,,,,,,,i,1,0.9022,0,79,79,54,1,俺,i,,,,,,,,,,,,
,,,,,,,,,,,,,,1,001,2025-01-02_12h23.40.896,IAT(Formal),2021.2.3,Win32,166.6666667,,,,,,,,,,,,,,,,,,,,,,,,,,,,,,,,,,,,,,,,,,,,,,,,,,,,我们,i,space,7.7451,i,1,0.6068,0,0,0,72,1,,
,,,,,,,,,,,,,,1,001,2025-01-02_12h23.40.896,IAT(Formal),2021.2.3,Win32,166.6666667,,,,,,,,,,,,,,,,,,,,,,,,,,,,,,,,,,,,,,,,,,,,,,,,,,,,我,i,,,i,1,0.4675,0,1,1,50,1,,
,,,,,,,,,,,,,,1,001,2025-01-02_12h23.40.896,IAT(Formal),2021.2.3,Win32,166.6666667,,,,,,,,,,,,,,,,,,,,,,,,,,,,,,,,,,,,,,,,,,,,,,,,,,,,他,e,,,e,1,0.4637,0,2,2,5,1,,
,,,,,,,,,,,,,,1,001,2025-01-02_12h23.40.896,IAT(Formal),2021.2.3,Win32,166.6666667,,,,,,,,,,,,,,,,,,,,,,,,,,,,,,,,,,,,,,,,,,,,,,,,,,,,他的,e,,,e,1,0.5414,0,3,3,77,1,,
,,,,,,,,,,,,,,1,001,2025-01-02_12h23.40.896,IAT(Formal),2021.2.3,Win32,166.6666667,,,,,,,,,,,,,,,,,,,,,,,,,,,,,,,,,,,,,,,,,,,,,,,,,,,,悲观,i,,,i,1,0.7115,0,4,4,34,1,,
,,,,,,,,,,,,,,1,001,2025-01-02_12h23.40.896,IAT(Formal),2021.2.3,Win32,166.6666667,,,,,,,,,,,,,,,,,,,,,,,,,,,,,,,,,,,,,,,,,,,,,,,,,,,,我们,i,,,i,1,0.7401,0,5,5,2,1,,
,,,,,,,,,,,,,,1,001,2025-01-02_12h23.40.896,IAT(Formal),2021.2.3,Win32,166.6666667,,,,,,,,,,,,,,,,,,,,,,,,,,,,,,,,,,,,,,,,,,,,,,,,,,,,他人,e,,,e,1,0.5569,0,6,6,8,1,,
,,,,,,,,,,,,,,1,001,2025-01-02_12h23.40.896,IAT(Formal),2021.2.3,Win32,166.6666667,,,,,,,,,,,,,,,,,,,,,,,,,,,,,,,,,,,,,,,,,,,,,,,,,,,,自己,i,,,i,1,0.7582,0,7,7,3,1,,
,,,,,,,,,,,,,,1,001,2025-01-02_12h23.40.896,IAT(Formal),2021.2.3,Win32,166.6666667,,,,,,,,,,,,,,,,,,,,,,,,,,,,,,,,,,,,,,,,,,,,,,,,,,,,其他,e,,,e,1,0.6794,0,8,8,79,1,,
,,,,,,,,,,,,,,1,001,2025-01-02_12h23.40.896,IAT(Formal),2021.2.3,Win32,166.6666667,,,,,,,,,,,,,,,,,,,,,,,,,,,,,,,,,,,,,,,,,,,,,,,,,,,,其他,e,,,e,1,0.9114,0,9,9,69,1,,
,,,,,,,,,,,,,,1,001,2025-01-02_12h23.40.896,IAT(Formal),2021.2.3,Win32,166.6666667,,,,,,,,,,,,,,,,,,,,,,,,,,,,,,,,,,,,,,,,,,,,,,,,,,,,他人,e,,,e,1,0.647,0,10,10,78,1,,
,,,,,,,,,,,,,,1,001,2025-01-02_12h23.40.896,IAT(Formal),2021.2.3,Win32,166.6666667,,,,,,,,,,,,,,,,,,,,,,,,,,,,,,,,,,,,,,,,,,,,,,,,,,,,乐观,e,,,e,1,0.5948,0,11,11,14,1,,
,,,,,,,,,,,,,,1,001,2025-01-02_12h23.40.896,IAT(Formal),2021.2.3,Win32,166.6666667,,,,,,,,,,,,,,,,,,,,,,,,,,,,,,,,,,,,,,,,,,,,,,,,,,,,优秀,e,,,e,1,0.6309,0,12,12,10,1,,
,,,,,,,,,,,,,,1,001,2025-01-02_12h23.40.896,IAT(Formal),2021.2.3,Win32,166.6666667,,,,,,,,,,,,,,,,,,,,,,,,,,,,,,,,,,,,,,,,,,,,,,,,,,,,凶狠,i,,,i,1,0.5574,0,13,13,42,1,,
,,,,,,,,,,,,,,1,001,2025-01-02_12h23.40.896,IAT(Formal),2021.2.3,Win32,166.6666667,,,,,,,,,,,,,,,,,,,,,,,,,,,,,,,,,,,,,,,,,,,,,,,,,,,,俺,i,,,i,1,0.7219,0,14,14,54,1,,
,,,,,,,,,,,,,,1,001,2025-01-02_12h23.40.896,IAT(Formal),2021.2.3,Win32,166.6666667,,,,,,,,,,,,,,,,,,,,,,,,,,,,,,,,,,,,,,,,,,,,,,,,,,,,他人,e,,,e,1,0.5466,0,15,15,58,1,,
,,,,,,,,,,,,,,1,001,2025-01-02_12h23.40.896,IAT(Formal),2021.2.3,Win32,166.6666667,,,,,,,,,,,,,,,,,,,,,,,,,,,,,,,,,,,,,,,,,,,,,,,,,,,,冷静,e,,,e,1,0.6787,0,16,16,26,1,,
,,,,,,,,,,,,,,1,001,2025-01-02_12h23.40.896,IAT(Formal),2021.2.3,Win32,166.6666667,,,,,,,,,,,,,,,,,,,,,,,,,,,,,,,,,,,,,,,,,,,,,,,,,,,,正直,e,,,e,1,0.6353,0,17,17,16,1,,
,,,,,,,,,,,,,,1,001,2025-01-02_12h23.40.896,IAT(Formal),2021.2.3,Win32,166.6666667,,,,,,,,,,,,,,,,,,,,,,,,,,,,,,,,,,,,,,,,,,,,,,,,,,,,勤奋,e,,,e,1,0.5242,0,18,18,18,1,,
,,,,,,,,,,,,,,1,001,2025-01-02_12h23.40.896,IAT(Formal),2021.2.3,Win32,166.6666667,,,,,,,,,,,,,,,,,,,,,,,,,,,,,,,,,,,,,,,,,,,,,,,,,,,,俺,i,,,i,1,0.7084,0,19,19,4,1,,
,,,,,,,,,,,,,,1,001,2025-01-02_12h23.40.896,IAT(Formal),2021.2.3,Win32,166.6666667,,,,,,,,,,,,,,,,,,,,,,,,,,,,,,,,,,,,,,,,,,,,,,,,,,,,我的,i,,,i,1,0.5686,0,20,20,51,1,,
,,,,,,,,,,,,,,1,001,2025-01-02_12h23.40.896,IAT(Formal),2021.2.3,Win32,166.6666667,,,,,,,,,,,,,,,,,,,,,,,,,,,,,,,,,,,,,,,,,,,,,,,,,,,,朴实,e,,,e,1,0.5277,0,21,21,24,1,,
,,,,,,,,,,,,,,1,001,2025-01-02_12h23.40.896,IAT(Formal),2021.2.3,Win32,166.6666667,,,,,,,,,,,,,,,,,,,,,,,,,,,,,,,,,,,,,,,,,,,,,,,,,,,,我们,i,,,i,1,0.6908,0,22,22,52,1,,
,,,,,,,,,,,,,,1,001,2025-01-02_12h23.40.896,IAT(Formal),2021.2.3,Win32,166.6666667,,,,,,,,,,,,,,,,,,,,,,,,,,,,,,,,,,,,,,,,,,,,,,,,,,,,稳重,e,,,e,1,0.8804,0,23,23,21,1,,
,,,,,,,,,,,,,,1,001,2025-01-02_12h23.40.896,IAT(Formal),2021.2.3,Win32,166.6666667,,,,,,,,,,,,,,,,,,,,,,,,,,,,,,,,,,,,,,,,,,,,,,,,,,,,我,i,,,i,1,0.6957,0,24,24,0,1,,
,,,,,,,,,,,,,,1,001,2025-01-02_12h23.40.896,IAT(Formal),2021.2.3,Win32,166.6666667,,,,,,,,,,,,,,,,,,,,,,,,,,,,,,,,,,,,,,,,,,,,,,,,,,,,冒失,i,,,i,1,0.7203,0,25,25,39,1,,
,,,,,,,,,,,,,,1,001,2025-01-02_12h23.40.896,IAT(Formal),2021.2.3,Win32,166.6666667,,,,,,,,,,,,,,,,,,,,,,,,,,,,,,,,,,,,,,,,,,,,,,,,,,,,俺,i,,,e,0,0.5706,0,26,26,64,1,,
,,,,,,,,,,,,,,1,001,2025-01-02_12h23.40.896,IAT(Formal),2021.2.3,Win32,166.6666667,,,,,,,,,,,,,,,,,,,,,,,,,,,,,,,,,,,,,,,,,,,,,,,,,,,,他,e,,,e,1,0.5256,0,27,27,75,1,,
,,,,,,,,,,,,,,1,001,2025-01-02_12h23.40.896,IAT(Formal),2021.2.3,Win32,166.6666667,,,,,,,,,,,,,,,,,,,,,,,,,,,,,,,,,,,,,,,,,,,,,,,,,,,,自卑,i,,,i,1,0.6877,0,28,28,36,1,,
,,,,,,,,,,,,,,1,001,2025-01-02_12h23.40.896,IAT(Formal),2021.2.3,Win32,166.6666667,,,,,,,,,,,,,,,,,,,,,,,,,,,,,,,,,,,,,,,,,,,,,,,,,,,,我,i,,,i,1,0.781,0,29,29,60,1,,
,,,,,,,,,,,,,,1,001,2025-01-02_12h23.40.896,IAT(Formal),2021.2.3,Win32,166.6666667,,,,,,,,,,,,,,,,,,,,,,,,,,,,,,,,,,,,,,,,,,,,,,,,,,,,下贱,i,,,i,1,0.5316,0,30,30,49,1,,
,,,,,,,,,,,,,,1,001,2025-01-02_12h23.40.896,IAT(Formal),2021.2.3,Win32,166.6666667,,,,,,,,,,,,,,,,,,,,,,,,,,,,,,,,,,,,,,,,,,,,,,,,,,,,诚实,e,,,e,1,0.5787,0,31,31,15,1,,
,,,,,,,,,,,,,,1,001,2025-01-02_12h23.40.896,IAT(Formal),2021.2.3,Win32,166.6666667,,,,,,,,,,,,,,,,,,,,,,,,,,,,,,,,,,,,,,,,,,,,,,,,,,,,虚伪,i,,,i,1,0.8085,0,32,32,31,1,,
,,,,,,,,,,,,,,1,001,2025-01-02_12h23.40.896,IAT(Formal),2021.2.3,Win32,166.6666667,,,,,,,,,,,,,,,,,,,,,,,,,,,,,,,,,,,,,,,,,,,,,,,,,,,,野蛮,i,,,i,1,0.5701,0,33,33,46,1,,
,,,,,,,,,,,,,,1,001,2025-01-02_12h23.40.896,IAT(Formal),2021.2.3,Win32,166.6666667,,,,,,,,,,,,,,,,,,,,,,,,,,,,,,,,,,,,,,,,,,,,,,,,,,,,公正,e,,,e,1,0.6103,0,34,34,23,1,,
,,,,,,,,,,,,,,1,001,2025-01-02_12h23.40.896,IAT(Formal),2021.2.3,Win32,166.6666667,,,,,,,,,,,,,,,,,,,,,,,,,,,,,,,,,,,,,,,,,,,,,,,,,,,,他,e,,,i,0,0.6071,0,35,35,65,1,,
,,,,,,,,,,,,,,1,001,2025-01-02_12h23.40.896,IAT(Formal),2021.2.3,Win32,166.6666667,,,,,,,,,,,,,,,,,,,,,,,,,,,,,,,,,,,,,,,,,,,,,,,,,,,,我们,i,,,i,1,0.5182,0,36,36,62,1,,
,,,,,,,,,,,,,,1,001,2025-01-02_12h23.40.896,IAT(Formal),2021.2.3,Win32,166.6666667,,,,,,,,,,,,,,,,,,,,,,,,,,,,,,,,,,,,,,,,,,,,,,,,,,,,自私,i,,,i,1,0.6199,0,37,37,43,1,,
,,,,,,,,,,,,,,1,001,2025-01-02_12h23.40.896,IAT(Formal),2021.2.3,Win32,166.6666667,,,,,,,,,,,,,,,,,,,,,,,,,,,,,,,,,,,,,,,,,,,,,,,,,,,,猖狂,i,,,i,1,0.5684,0,38,38,45,1,,
,,,,,,,,,,,,,,1,001,2025-01-02_12h23.40.896,IAT(Formal),2021.2.3,Win32,166.6666667,,,,,,,,,,,,,,,,,,,,,,,,,,,,,,,,,,,,,,,,,,,,,,,,,,,,诚恳,e,,,e,1,0.6241,0,39,39,29,1,,
,,,,,,,,,,,,,,1,001,2025-01-02_12h23.40.896,IAT(Formal),2021.2.3,Win32,166.6666667,,,,,,,,,,,,,,,,,,,,,,,,,,,,,,,,,,,,,,,,,,,,,,,,,,,,我,i,,,i,1,0.7698,0,40,40,70,1,,
,,,,,,,,,,,,,,1,001,2025-01-02_12h23.40.896,IAT(Formal),2021.2.3,Win32,166.6666667,,,,,,,,,,,,,,,,,,,,,,,,,,,,,,,,,,,,,,,,,,,,,,,,,,,,聪明,e,,,e,1,0.734,0,41,41,12,1,,
,,,,,,,,,,,,,,1,001,2025-01-02_12h23.40.896,IAT(Formal),2021.2.3,Win32,166.6666667,,,,,,,,,,,,,,,,,,,,,,,,,,,,,,,,,,,,,,,,,,,,,,,,,,,,他的,e,,,i,0,0.6002,0,42,42,7,1,,
,,,,,,,,,,,,,,1,001,2025-01-02_12h23.40.896,IAT(Formal),2021.2.3,Win32,166.6666667,,,,,,,,,,,,,,,,,,,,,,,,,,,,,,,,,,,,,,,,,,,,,,,,,,,,无私,e,,,e,1,0.7309,0,43,43,22,1,,
,,,,,,,,,,,,,,1,001,2025-01-02_12h23.40.896,IAT(Formal),2021.2.3,Win32,166.6666667,,,,,,,,,,,,,,,,,,,,,,,,,,,,,,,,,,,,,,,,,,,,,,,,,,,,我的,i,,,i,1,0.5922,0,44,44,71,1,,
,,,,,,,,,,,,,,1,001,2025-01-02_12h23.40.896,IAT(Formal),2021.2.3,Win32,166.6666667,,,,,,,,,,,,,,,,,,,,,,,,,,,,,,,,,,,,,,,,,,,,,,,,,,,,勇敢,e,,,e,1,0.6667,0,45,45,17,1,,
,,,,,,,,,,,,,,1,001,2025-01-02_12h23.40.896,IAT(Formal),2021.2.3,Win32,166.6666667,,,,,,,,,,,,,,,,,,,,,,,,,,,,,,,,,,,,,,,,,,,,,,,,,,,,我的,i,,,i,1,0.619,0,46,46,1,1,,
,,,,,,,,,,,,,,1,001,2025-01-02_12h23.40.896,IAT(Formal),2021.2.3,Win32,166.6666667,,,,,,,,,,,,,,,,,,,,,,,,,,,,,,,,,,,,,,,,,,,,,,,,,,,,他,e,,,e,1,0.5357,0,47,47,55,1,,
,,,,,,,,,,,,,,1,001,2025-01-02_12h23.40.896,IAT(Formal),2021.2.3,Win32,166.6666667,,,,,,,,,,,,,,,,,,,,,,,,,,,,,,,,,,,,,,,,,,,,,,,,,,,,他们,e,,,e,1,0.5464,0,48,48,76,1,,
,,,,,,,,,,,,,,1,001,2025-01-02_12h23.40.896,IAT(Formal),2021.2.3,Win32,166.6666667,,,,,,,,,,,,,,,,,,,,,,,,,,,,,,,,,,,,,,,,,,,,,,,,,,,,崇高,e,,,e,1,0.7443,0,49,49,11,1,,
,,,,,,,,,,,,,,1,001,2025-01-02_12h23.40.896,IAT(Formal),2021.2.3,Win32,166.6666667,,,,,,,,,,,,,,,,,,,,,,,,,,,,,,,,,,,,,,,,,,,,,,,,,,,,自己,i,,,i,1,0.6588,0,50,50,63,1,,
,,,,,,,,,,,,,,1,001,2025-01-02_12h23.40.896,IAT(Formal),2021.2.3,Win32,166.6666667,,,,,,,,,,,,,,,,,,,,,,,,,,,,,,,,,,,,,,,,,,,,,,,,,,,,他们,e,,,e,1,0.6008,0,51,51,6,1,,
,,,,,,,,,,,,,,1,001,2025-01-02_12h23.40.896,IAT(Formal),2021.2.3,Win32,166.6666667,,,,,,,,,,,,,,,,,,,,,,,,,,,,,,,,,,,,,,,,,,,,,,,,,,,,机智,e,,,e,1,0.7098,0,52,52,19,1,,
,,,,,,,,,,,,,,1,001,2025-01-02_12h23.40.896,IAT(Formal),2021.2.3,Win32,166.6666667,,,,,,,,,,,,,,,,,,,,,,,,,,,,,,,,,,,,,,,,,,,,,,,,,,,,活泼,e,,,e,1,0.8735,0,53,53,28,1,,
,,,,,,,,,,,,,,1,001,2025-01-02_12h23.40.896,IAT(Formal),2021.2.3,Win32,166.6666667,,,,,,,,,,,,,,,,,,,,,,,,,,,,,,,,,,,,,,,,,,,,,,,,,,,,执拗,i,,,i,1,0.5926,0,54,54,40,1,,
,,,,,,,,,,,,,,1,001,2025-01-02_12h23.40.896,IAT(Formal),2021.2.3,Win32,166.6666667,,,,,,,,,,,,,,,,,,,,,,,,,,,,,,,,,,,,,,,,,,,,,,,,,,,,细腻,e,,,e,1,0.6738,0,55,55,25,1,,
,,,,,,,,,,,,,,1,001,2025-01-02_12h23.40.896,IAT(Formal),2021.2.3,Win32,166.6666667,,,,,,,,,,,,,,,,,,,,,,,,,,,,,,,,,,,,,,,,,,,,,,,,,,,,他们,e,,,e,1,0.637,0,56,56,56,1,,
,,,,,,,,,,,,,,1,001,2025-01-02_12h23.40.896,IAT(Formal),2021.2.3,Win32,166.6666667,,,,,,,,,,,,,,,,,,,,,,,,,,,,,,,,,,,,,,,,,,,,,,,,,,,,暴躁,i,,,i,1,0.5538,0,57,57,44,1,,
,,,,,,,,,,,,,,1,001,2025-01-02_12h23.40.896,IAT(Formal),2021.2.3,Win32,166.6666667,,,,,,,,,,,,,,,,,,,,,,,,,,,,,,,,,,,,,,,,,,,,,,,,,,,,俺,i,,,e,0,0.585,0,58,58,74,1,,
,,,,,,,,,,,,,,1,001,2025-01-02_12h23.40.896,IAT(Formal),2021.2.3,Win32,166.6666667,,,,,,,,,,,,,,,,,,,,,,,,,,,,,,,,,,,,,,,,,,,,,,,,,,,,其他,e,,,e,1,0.5302,0,59,59,9,1,,
,,,,,,,,,,,,,,1,001,2025-01-02_12h23.40.896,IAT(Formal),2021.2.3,Win32,166.6666667,,,,,,,,,,,,,,,,,,,,,,,,,,,,,,,,,,,,,,,,,,,,,,,,,,,,我的,i,,,i,1,0.6464,0,60,60,61,1,,
,,,,,,,,,,,,,,1,001,2025-01-02_12h23.40.896,IAT(Formal),2021.2.3,Win32,166.6666667,,,,,,,,,,,,,,,,,,,,,,,,,,,,,,,,,,,,,,,,,,,,,,,,,,,,他人,e,,,e,1,0.5808,0,61,61,68,1,,
,,,,,,,,,,,,,,1,001,2025-01-02_12h23.40.896,IAT(Formal),2021.2.3,Win32,166.6666667,,,,,,,,,,,,,,,,,,,,,,,,,,,,,,,,,,,,,,,,,,,,,,,,,,,,自己,i,,,i,1,0.725,0,62,62,73,1,,
,,,,,,,,,,,,,,1,001,2025-01-02_12h23.40.896,IAT(Formal),2021.2.3,Win32,166.6666667,,,,,,,,,,,,,,,,,,,,,,,,,,,,,,,,,,,,,,,,,,,,,,,,,,,,自己,i,,,i,1,0.4967,0,63,63,53,1,,
,,,,,,,,,,,,,,1,001,2025-01-02_12h23.40.896,IAT(Formal),2021.2.3,Win32,166.6666667,,,,,,,,,,,,,,,,,,,,,,,,,,,,,,,,,,,,,,,,,,,,,,,,,,,,他的,e,,,e,1,0.5599,0,64,64,57,1,,
,,,,,,,,,,,,,,1,001,2025-01-02_12h23.40.896,IAT(Formal),2021.2.3,Win32,166.6666667,,,,,,,,,,,,,,,,,,,,,,,,,,,,,,,,,,,,,,,,,,,,,,,,,,,,刻薄,i,,,i,1,0.6313,0,65,65,33,1,,
,,,,,,,,,,,,,,1,001,2025-01-02_12h23.40.896,IAT(Formal),2021.2.3,Win32,166.6666667,,,,,,,,,,,,,,,,,,,,,,,,,,,,,,,,,,,,,,,,,,,,,,,,,,,,消极,i,,,i,1,0.5778,0,66,66,35,1,,
,,,,,,,,,,,,,,1,001,2025-01-02_12h23.40.896,IAT(Formal),2021.2.3,Win32,166.6666667,,,,,,,,,,,,,,,,,,,,,,,,,,,,,,,,,,,,,,,,,,,,,,,,,,,,散漫,i,,,i,1,0.5433,0,67,67,41,1,,
,,,,,,,,,,,,,,1,001,2025-01-02_12h23.40.896,IAT(Formal),2021.2.3,Win32,166.6666667,,,,,,,,,,,,,,,,,,,,,,,,,,,,,,,,,,,,,,,,,,,,,,,,,,,,愚蠢,i,,,i,1,0.4936,0,68,68,32,1,,
,,,,,,,,,,,,,,1,001,2025-01-02_12h23.40.896,IAT(Formal),2021.2.3,Win32,166.6666667,,,,,,,,,,,,,,,,,,,,,,,,,,,,,,,,,,,,,,,,,,,,,,,,,,,,傲慢,i,,,i,1,0.5439,0,69,69,37,1,,
,,,,,,,,,,,,,,1,001,2025-01-02_12h23.40.896,IAT(Formal),2021.2.3,Win32,166.6666667,,,,,,,,,,,,,,,,,,,,,,,,,,,,,,,,,,,,,,,,,,,,,,,,,,,,其他,e,,,e,1,0.7636,0,70,70,59,1,,
,,,,,,,,,,,,,,1,001,2025-01-02_12h23.40.896,IAT(Formal),2021.2.3,Win32,166.6666667,,,,,,,,,,,,,,,,,,,,,,,,,,,,,,,,,,,,,,,,,,,,,,,,,,,,轻率,i,,,i,1,0.6528,0,71,71,48,1,,
,,,,,,,,,,,,,,1,001,2025-01-02_12h23.40.896,IAT(Formal),2021.2.3,Win32,166.6666667,,,,,,,,,,,,,,,,,,,,,,,,,,,,,,,,,,,,,,,,,,,,,,,,,,,,认真,e,,,e,1,0.5835,0,72,72,20,1,,
,,,,,,,,,,,,,,1,001,2025-01-02_12h23.40.896,IAT(Formal),2021.2.3,Win32,166.6666667,,,,,,,,,,,,,,,,,,,,,,,,,,,,,,,,,,,,,,,,,,,,,,,,,,,,热情,e,,,e,1,0.5169,0,73,73,27,1,,
,,,,,,,,,,,,,,1,001,2025-01-02_12h23.40.896,IAT(Formal),2021.2.3,Win32,166.6666667,,,,,,,,,,,,,,,,,,,,,,,,,,,,,,,,,,,,,,,,,,,,,,,,,,,,鲁莽,i,,,i,1,0.5583,0,74,74,38,1,,
,,,,,,,,,,,,,,1,001,2025-01-02_12h23.40.896,IAT(Formal),2021.2.3,Win32,166.6666667,,,,,,,,,,,,,,,,,,,,,,,,,,,,,,,,,,,,,,,,,,,,,,,,,,,,卑鄙,i,,,i,1,0.5345,0,75,75,30,1,,
,,,,,,,,,,,,,,1,001,2025-01-02_12h23.40.896,IAT(Formal),2021.2.3,Win32,166.6666667,,,,,,,,,,,,,,,,,,,,,,,,,,,,,,,,,,,,,,,,,,,,,,,,,,,,杰出,e,,,e,1,0.5232,0,76,76,13,1,,
,,,,,,,,,,,,,,1,001,2025-01-02_12h23.40.896,IAT(Formal),2021.2.3,Win32,166.6666667,,,,,,,,,,,,,,,,,,,,,,,,,,,,,,,,,,,,,,,,,,,,,,,,,,,,他的,e,,,e,1,0.661,0,77,77,67,1,,
,,,,,,,,,,,,,,1,001,2025-01-02_12h23.40.896,IAT(Formal),2021.2.3,Win32,166.6666667,,,,,,,,,,,,,,,,,,,,,,,,,,,,,,,,,,,,,,,,,,,,,,,,,,,,他们,e,,,e,1,0.5605,0,78,78,66,1,,
,,,,,,,,,,,,,,1,001,2025-01-02_12h23.40.896,IAT(Formal),2021.2.3,Win32,166.6666667,,,,,,,,,,,,,,,,,,,,,,,,,,,,,,,,,,,,,,,,,,,,,,,,,,,,固执,i,,,i,1,0.5704,0,79,79,47,1,,
,,,,,,,,,,,,,,1,001,2025-01-02_12h23.40.896,IAT(Formal),2021.2.3,Win32,166.6666667,,,,,,,,,,,,,,,,,,,,,,,,,,,,,,,,,,,,,,,,,,,,,,,,,,,,俺,i,,,e,0,0.5764,1,0,80,4,1,,
,,,,,,,,,,,,,,1,001,2025-01-02_12h23.40.896,IAT(Formal),2021.2.3,Win32,166.6666667,,,,,,,,,,,,,,,,,,,,,,,,,,,,,,,,,,,,,,,,,,,,,,,,,,,,勤奋,e,,,e,1,0.5402,1,1,81,18,1,,
,,,,,,,,,,,,,,1,001,2025-01-02_12h23.40.896,IAT(Formal),2021.2.3,Win32,166.6666667,,,,,,,,,,,,,,,,,,,,,,,,,,,,,,,,,,,,,,,,,,,,,,,,,,,,其他,e,,,e,1,0.6722,1,2,82,59,1,,
,,,,,,,,,,,,,,1,001,2025-01-02_12h23.40.896,IAT(Formal),2021.2.3,Win32,166.6666667,,,,,,,,,,,,,,,,,,,,,,,,,,,,,,,,,,,,,,,,,,,,,,,,,,,,刻薄,i,,,i,1,0.6069,1,3,83,33,1,,
,,,,,,,,,,,,,,1,001,2025-01-02_12h23.40.896,IAT(Formal),2021.2.3,Win32,166.6666667,,,,,,,,,,,,,,,,,,,,,,,,,,,,,,,,,,,,,,,,,,,,,,,,,,,,聪明,e,,,e,1,0.5663,1,4,84,12,1,,
,,,,,,,,,,,,,,1,001,2025-01-02_12h23.40.896,IAT(Formal),2021.2.3,Win32,166.6666667,,,,,,,,,,,,,,,,,,,,,,,,,,,,,,,,,,,,,,,,,,,,,,,,,,,,虚伪,i,,,i,1,0.6046,1,5,85,31,1,,
,,,,,,,,,,,,,,1,001,2025-01-02_12h23.40.896,IAT(Formal),2021.2.3,Win32,166.6666667,,,,,,,,,,,,,,,,,,,,,,,,,,,,,,,,,,,,,,,,,,,,,,,,,,,,其他,e,,,e,1,0.537,1,6,86,79,1,,
,,,,,,,,,,,,,,1,001,2025-01-02_12h23.40.896,IAT(Formal),2021.2.3,Win32,166.6666667,,,,,,,,,,,,,,,,,,,,,,,,,,,,,,,,,,,,,,,,,,,,,,,,,,,,轻率,i,,,i,1,0.8633,1,7,87,48,1,,
,,,,,,,,,,,,,,1,001,2025-01-02_12h23.40.896,IAT(Formal),2021.2.3,Win32,166.6666667,,,,,,,,,,,,,,,,,,,,,,,,,,,,,,,,,,,,,,,,,,,,,,,,,,,,自己,i,,,i,1,0.7308,1,8,88,3,1,,
,,,,,,,,,,,,,,1,001,2025-01-02_12h23.40.896,IAT(Formal),2021.2.3,Win32,166.6666667,,,,,,,,,,,,,,,,,,,,,,,,,,,,,,,,,,,,,,,,,,,,,,,,,,,,冒失,i,,,i,1,0.5642,1,9,89,39,1,,
,,,,,,,,,,,,,,1,001,2025-01-02_12h23.40.896,IAT(Formal),2021.2.3,Win32,166.6666667,,,,,,,,,,,,,,,,,,,,,,,,,,,,,,,,,,,,,,,,,,,,,,,,,,,,悲观,i,,,i,1,0.523,1,10,90,34,1,,
,,,,,,,,,,,,,,1,001,2025-01-02_12h23.40.896,IAT(Formal),2021.2.3,Win32,166.6666667,,,,,,,,,,,,,,,,,,,,,,,,,,,,,,,,,,,,,,,,,,,,,,,,,,,,冷静,e,,,e,1,0.7099,1,11,91,26,1,,
,,,,,,,,,,,,,,1,001,2025-01-02_12h23.40.896,IAT(Formal),2021.2.3,Win32,166.6666667,,,,,,,,,,,,,,,,,,,,,,,,,,,,,,,,,,,,,,,,,,,,,,,,,,,,我的,i,,,i,1,0.7208,1,12,92,1,1,,
,,,,,,,,,,,,,,1,001,2025-01-02_12h23.40.896,IAT(Formal),2021.2.3,Win32,166.6666667,,,,,,,,,,,,,,,,,,,,,,,,,,,,,,,,,,,,,,,,,,,,,,,,,,,,他的,e,,,e,1,0.549,1,13,93,67,1,,
,,,,,,,,,,,,,,1,001,2025-01-02_12h23.40.896,IAT(Formal),2021.2.3,Win32,166.6666667,,,,,,,,,,,,,,,,,,,,,,,,,,,,,,,,,,,,,,,,,,,,,,,,,,,,他的,e,,,e,1,0.4672,1,14,94,7,1,,
,,,,,,,,,,,,,,1,001,2025-01-02_12h23.40.896,IAT(Formal),2021.2.3,Win32,166.6666667,,,,,,,,,,,,,,,,,,,,,,,,,,,,,,,,,,,,,,,,,,,,,,,,,,,,散漫,i,,,i,1,0.5438,1,15,95,41,1,,
,,,,,,,,,,,,,,1,001,2025-01-02_12h23.40.896,IAT(Formal),2021.2.3,Win32,166.6666667,,,,,,,,,,,,,,,,,,,,,,,,,,,,,,,,,,,,,,,,,,,,,,,,,,,,他的,e,,,e,1,0.6222,1,16,96,77,1,,
,,,,,,,,,,,,,,1,001,2025-01-02_12h23.40.896,IAT(Formal),2021.2.3,Win32,166.6666667,,,,,,,,,,,,,,,,,,,,,,,,,,,,,,,,,,,,,,,,,,,,,,,,,,,,活泼,e,,,e,1,0.5517,1,17,97,28,1,,
,,,,,,,,,,,,,,1,001,2025-01-02_12h23.40.896,IAT(Formal),2021.2.3,Win32,166.6666667,,,,,,,,,,,,,,,,,,,,,,,,,,,,,,,,,,,,,,,,,,,,,,,,,,,,俺,i,,,i,1,0.6008,1,18,98,54,1,,
,,,,,,,,,,,,,,1,001,2025-01-02_12h23.40.896,IAT(Formal),2021.2.3,Win32,166.6666667,,,,,,,,,,,,,,,,,,,,,,,,,,,,,,,,,,,,,,,,,,,,,,,,,,,,我们,i,,,i,1,1.1766,1,19,99,62,1,,
,,,,,,,,,,,,,,1,001,2025-01-02_12h23.40.896,IAT(Formal),2021.2.3,Win32,166.6666667,,,,,,,,,,,,,,,,,,,,,,,,,,,,,,,,,,,,,,,,,,,,,,,,,,,,认真,e,,,e,1,0.6188,1,20,100,20,1,,
,,,,,,,,,,,,,,1,001,2025-01-02_12h23.40.896,IAT(Formal),2021.2.3,Win32,166.6666667,,,,,,,,,,,,,,,,,,,,,,,,,,,,,,,,,,,,,,,,,,,,,,,,,,,,他人,e,,,e,1,0.6849,1,21,101,68,1,,
,,,,,,,,,,,,,,1,001,2025-01-02_12h23.40.896,IAT(Formal),2021.2.3,Win32,166.6666667,,,,,,,,,,,,,,,,,,,,,,,,,,,,,,,,,,,,,,,,,,,,,,,,,,,,他们,e,,,e,1,0.4327,1,22,102,56,1,,
,,,,,,,,,,,,,,1,001,2025-01-02_12h23.40.896,IAT(Formal),2021.2.3,Win32,166.6666667,,,,,,,,,,,,,,,,,,,,,,,,,,,,,,,,,,,,,,,,,,,,,,,,,,,,杰出,e,,,i,0,0.473,1,23,103,13,1,,
,,,,,,,,,,,,,,1,001,2025-01-02_12h23.40.896,IAT(Formal),2021.2.3,Win32,166.6666667,,,,,,,,,,,,,,,,,,,,,,,,,,,,,,,,,,,,,,,,,,,,,,,,,,,,他人,e,,,e,1,0.704,1,24,104,8,1,,
,,,,,,,,,,,,,,1,001,2025-01-02_12h23.40.896,IAT(Formal),2021.2.3,Win32,166.6666667,,,,,,,,,,,,,,,,,,,,,,,,,,,,,,,,,,,,,,,,,,,,,,,,,,,,自私,i,,,i,1,0.6343,1,25,105,43,1,,
,,,,,,,,,,,,,,1,001,2025-01-02_12h23.40.896,IAT(Formal),2021.2.3,Win32,166.6666667,,,,,,,,,,,,,,,,,,,,,,,,,,,,,,,,,,,,,,,,,,,,,,,,,,,,正直,e,,,e,1,0.7482,1,26,106,16,1,,
,,,,,,,,,,,,,,1,001,2025-01-02_12h23.40.896,IAT(Formal),2021.2.3,Win32,166.6666667,,,,,,,,,,,,,,,,,,,,,,,,,,,,,,,,,,,,,,,,,,,,,,,,,,,,他,e,,,e,1,0.6035,1,27,107,5,1,,
,,,,,,,,,,,,,,1,001,2025-01-02_12h23.40.896,IAT(Formal),2021.2.3,Win32,166.6666667,,,,,,,,,,,,,,,,,,,,,,,,,,,,,,,,,,,,,,,,,,,,,,,,,,,,我,i,,,i,1,0.5163,1,28,108,60,1,,
,,,,,,,,,,,,,,1,001,2025-01-02_12h23.40.896,IAT(Formal),2021.2.3,Win32,166.6666667,,,,,,,,,,,,,,,,,,,,,,,,,,,,,,,,,,,,,,,,,,,,,,,,,,,,勇敢,e,,,e,1,0.6191,1,29,109,17,1,,
,,,,,,,,,,,,,,1,001,2025-01-02_12h23.40.896,IAT(Formal),2021.2.3,Win32,166.6666667,,,,,,,,,,,,,,,,,,,,,,,,,,,,,,,,,,,,,,,,,,,,,,,,,,,,他,e,,,e,1,0.5538,1,30,110,55,1,,
,,,,,,,,,,,,,,1,001,2025-01-02_12h23.40.896,IAT(Formal),2021.2.3,Win32,166.6666667,,,,,,,,,,,,,,,,,,,,,,,,,,,,,,,,,,,,,,,,,,,,,,,,,,,,固执,i,,,i,1,0.5267,1,31,111,47,1,,
,,,,,,,,,,,,,,1,001,2025-01-02_12h23.40.896,IAT(Formal),2021.2.3,Win32,166.6666667,,,,,,,,,,,,,,,,,,,,,,,,,,,,,,,,,,,,,,,,,,,,,,,,,,,,愚蠢,i,,,i,1,0.5007,1,32,112,32,1,,
,,,,,,,,,,,,,,1,001,2025-01-02_12h23.40.896,IAT(Formal),2021.2.3,Win32,166.6666667,,,,,,,,,,,,,,,,,,,,,,,,,,,,,,,,,,,,,,,,,,,,,,,,,,,,自己,i,,,e,0,0.4801,1,33,113,63,1,,
,,,,,,,,,,,,,,1,001,2025-01-02_12h23.40.896,IAT(Formal),2021.2.3,Win32,166.6666667,,,,,,,,,,,,,,,,,,,,,,,,,,,,,,,,,,,,,,,,,,,,,,,,,,,,乐观,e,,,e,1,0.54,1,34,114,14,1,,
,,,,,,,,,,,,,,1,001,2025-01-02_12h23.40.896,IAT(Formal),2021.2.3,Win32,166.6666667,,,,,,,,,,,,,,,,,,,,,,,,,,,,,,,,,,,,,,,,,,,,,,,,,,,,我们,i,,,i,1,0.8688,1,35,115,72,1,,
,,,,,,,,,,,,,,1,001,2025-01-02_12h23.40.896,IAT(Formal),2021.2.3,Win32,166.6666667,,,,,,,,,,,,,,,,,,,,,,,,,,,,,,,,,,,,,,,,,,,,,,,,,,,,他,e,,,e,1,0.5703,1,36,116,65,1,,
,,,,,,,,,,,,,,1,001,2025-01-02_12h23.40.896,IAT(Formal),2021.2.3,Win32,166.6666667,,,,,,,,,,,,,,,,,,,,,,,,,,,,,,,,,,,,,,,,,,,,,,,,,,,,暴躁,i,,,i,1,0.5295,1,37,117,44,1,,
,,,,,,,,,,,,,,1,001,2025-01-02_12h23.40.896,IAT(Formal),2021.2.3,Win32,166.6666667,,,,,,,,,,,,,,,,,,,,,,,,,,,,,,,,,,,,,,,,,,,,,,,,,,,,其他,e,,,e,1,0.5725,1,38,118,69,1,,
,,,,,,,,,,,,,,1,001,2025-01-02_12h23.40.896,IAT(Formal),2021.2.3,Win32,166.6666667,,,,,,,,,,,,,,,,,,,,,,,,,,,,,,,,,,,,,,,,,,,,,,,,,,,,自卑,i,,,i,1,1.0092,1,39,119,36,1,,
,,,,,,,,,,,,,,1,001,2025-01-02_12h23.40.896,IAT(Formal),2021.2.3,Win32,166.6666667,,,,,,,,,,,,,,,,,,,,,,,,,,,,,,,,,,,,,,,,,,,,,,,,,,,,他人,e,,,e,1,0.8004,1,40,120,58,1,,
,,,,,,,,,,,,,,1,001,2025-01-02_12h23.40.896,IAT(Formal),2021.2.3,Win32,166.6666667,,,,,,,,,,,,,,,,,,,,,,,,,,,,,,,,,,,,,,,,,,,,,,,,,,,,下贱,i,,,i,1,0.5574,1,41,121,49,1,,
,,,,,,,,,,,,,,1,001,2025-01-02_12h23.40.896,IAT(Formal),2021.2.3,Win32,166.6666667,,,,,,,,,,,,,,,,,,,,,,,,,,,,,,,,,,,,,,,,,,,,,,,,,,,,我的,i,,,e,0,0.4284,1,42,122,71,1,,
,,,,,,,,,,,,,,1,001,2025-01-02_12h23.40.896,IAT(Formal),2021.2.3,Win32,166.6666667,,,,,,,,,,,,,,,,,,,,,,,,,,,,,,,,,,,,,,,,,,,,,,,,,,,,我的,i,,,i,1,0.6195,1,43,123,51,1,,
,,,,,,,,,,,,,,1,001,2025-01-02_12h23.40.896,IAT(Formal),2021.2.3,Win32,166.6666667,,,,,,,,,,,,,,,,,,,,,,,,,,,,,,,,,,,,,,,,,,,,,,,,,,,,自己,i,,,i,1,0.6361,1,44,124,73,1,,
,,,,,,,,,,,,,,1,001,2025-01-02_12h23.40.896,IAT(Formal),2021.2.3,Win32,166.6666667,,,,,,,,,,,,,,,,,,,,,,,,,,,,,,,,,,,,,,,,,,,,,,,,,,,,鲁莽,i,,,i,1,0.5462,1,45,125,38,1,,
,,,,,,,,,,,,,,1,001,2025-01-02_12h23.40.896,IAT(Formal),2021.2.3,Win32,166.6666667,,,,,,,,,,,,,,,,,,,,,,,,,,,,,,,,,,,,,,,,,,,,,,,,,,,,我们,i,,,i,1,0.4152,1,46,126,52,1,,
,,,,,,,,,,,,,,1,001,2025-01-02_12h23.40.896,IAT(Formal),2021.2.3,Win32,166.6666667,,,,,,,,,,,,,,,,,,,,,,,,,,,,,,,,,,,,,,,,,,,,,,,,,,,,我,i,,,i,1,0.3819,1,47,127,0,1,,
,,,,,,,,,,,,,,1,001,2025-01-02_12h23.40.896,IAT(Formal),2021.2.3,Win32,166.6666667,,,,,,,,,,,,,,,,,,,,,,,,,,,,,,,,,,,,,,,,,,,,,,,,,,,,凶狠,i,,,i,1,0.5901,1,48,128,42,1,,
,,,,,,,,,,,,,,1,001,2025-01-02_12h23.40.896,IAT(Formal),2021.2.3,Win32,166.6666667,,,,,,,,,,,,,,,,,,,,,,,,,,,,,,,,,,,,,,,,,,,,,,,,,,,,野蛮,i,,,i,1,0.5126,1,49,129,46,1,,
,,,,,,,,,,,,,,1,001,2025-01-02_12h23.40.896,IAT(Formal),2021.2.3,Win32,166.6666667,,,,,,,,,,,,,,,,,,,,,,,,,,,,,,,,,,,,,,,,,,,,,,,,,,,,执拗,i,,,i,1,0.5098,1,50,130,40,1,,
,,,,,,,,,,,,,,1,001,2025-01-02_12h23.40.896,IAT(Formal),2021.2.3,Win32,166.6666667,,,,,,,,,,,,,,,,,,,,,,,,,,,,,,,,,,,,,,,,,,,,,,,,,,,,我,i,,,e,0,0.5161,1,51,131,70,1,,
,,,,,,,,,,,,,,1,001,2025-01-02_12h23.40.896,IAT(Formal),2021.2.3,Win32,166.6666667,,,,,,,,,,,,,,,,,,,,,,,,,,,,,,,,,,,,,,,,,,,,,,,,,,,,消极,i,,,i,1,0.5342,1,52,132,35,1,,
,,,,,,,,,,,,,,1,001,2025-01-02_12h23.40.896,IAT(Formal),2021.2.3,Win32,166.6666667,,,,,,,,,,,,,,,,,,,,,,,,,,,,,,,,,,,,,,,,,,,,,,,,,,,,猖狂,i,,,i,1,0.4824,1,53,133,45,1,,
,,,,,,,,,,,,,,1,001,2025-01-02_12h23.40.896,IAT(Formal),2021.2.3,Win32,166.6666667,,,,,,,,,,,,,,,,,,,,,,,,,,,,,,,,,,,,,,,,,,,,,,,,,,,,无私,e,,,i,0,0.5847,1,54,134,22,1,,
,,,,,,,,,,,,,,1,001,2025-01-02_12h23.40.896,IAT(Formal),2021.2.3,Win32,166.6666667,,,,,,,,,,,,,,,,,,,,,,,,,,,,,,,,,,,,,,,,,,,,,,,,,,,,他人,e,,,e,1,0.6152,1,55,135,78,1,,
,,,,,,,,,,,,,,1,001,2025-01-02_12h23.40.896,IAT(Formal),2021.2.3,Win32,166.6666667,,,,,,,,,,,,,,,,,,,,,,,,,,,,,,,,,,,,,,,,,,,,,,,,,,,,傲慢,i,,,i,1,0.5781,1,56,136,37,1,,
,,,,,,,,,,,,,,1,001,2025-01-02_12h23.40.896,IAT(Formal),2021.2.3,Win32,166.6666667,,,,,,,,,,,,,,,,,,,,,,,,,,,,,,,,,,,,,,,,,,,,,,,,,,,,我们,i,,,i,1,0.6496,1,57,137,2,1,,
,,,,,,,,,,,,,,1,001,2025-01-02_12h23.40.896,IAT(Formal),2021.2.3,Win32,166.6666667,,,,,,,,,,,,,,,,,,,,,,,,,,,,,,,,,,,,,,,,,,,,,,,,,,,,卑鄙,i,,,i,1,0.5069,1,58,138,30,1,,
,,,,,,,,,,,,,,1,001,2025-01-02_12h23.40.896,IAT(Formal),2021.2.3,Win32,166.6666667,,,,,,,,,,,,,,,,,,,,,,,,,,,,,,,,,,,,,,,,,,,,,,,,,,,,其他,e,,,e,1,0.6614,1,59,139,9,1,,
,,,,,,,,,,,,,,1,001,2025-01-02_12h23.40.896,IAT(Formal),2021.2.3,Win32,166.6666667,,,,,,,,,,,,,,,,,,,,,,,,,,,,,,,,,,,,,,,,,,,,,,,,,,,,优秀,e,,,e,1,0.4371,1,60,140,10,1,,
,,,,,,,,,,,,,,1,001,2025-01-02_12h23.40.896,IAT(Formal),2021.2.3,Win32,166.6666667,,,,,,,,,,,,,,,,,,,,,,,,,,,,,,,,,,,,,,,,,,,,,,,,,,,,崇高,e,,,e,1,0.5328,1,61,141,11,1,,
,,,,,,,,,,,,,,1,001,2025-01-02_12h23.40.896,IAT(Formal),2021.2.3,Win32,166.6666667,,,,,,,,,,,,,,,,,,,,,,,,,,,,,,,,,,,,,,,,,,,,,,,,,,,,自己,i,,,i,1,0.639,1,62,142,53,1,,
,,,,,,,,,,,,,,1,001,2025-01-02_12h23.40.896,IAT(Formal),2021.2.3,Win32,166.6666667,,,,,,,,,,,,,,,,,,,,,,,,,,,,,,,,,,,,,,,,,,,,,,,,,,,,他们,e,,,e,1,0.5277,1,63,143,6,1,,
,,,,,,,,,,,,,,1,001,2025-01-02_12h23.40.896,IAT(Formal),2021.2.3,Win32,166.6666667,,,,,,,,,,,,,,,,,,,,,,,,,,,,,,,,,,,,,,,,,,,,,,,,,,,,诚实,e,,,e,1,0.5783,1,64,144,15,1,,
,,,,,,,,,,,,,,1,001,2025-01-02_12h23.40.896,IAT(Formal),2021.2.3,Win32,166.6666667,,,,,,,,,,,,,,,,,,,,,,,,,,,,,,,,,,,,,,,,,,,,,,,,,,,,朴实,e,,,e,1,0.6025,1,65,145,24,1,,
,,,,,,,,,,,,,,1,001,2025-01-02_12h23.40.896,IAT(Formal),2021.2.3,Win32,166.6666667,,,,,,,,,,,,,,,,,,,,,,,,,,,,,,,,,,,,,,,,,,,,,,,,,,,,公正,e,,,e,1,0.628,1,66,146,23,1,,
,,,,,,,,,,,,,,1,001,2025-01-02_12h23.40.896,IAT(Formal),2021.2.3,Win32,166.6666667,,,,,,,,,,,,,,,,,,,,,,,,,,,,,,,,,,,,,,,,,,,,,,,,,,,,诚恳,e,,,e,1,0.5589,1,67,147,29,1,,
,,,,,,,,,,,,,,1,001,2025-01-02_12h23.40.896,IAT(Formal),2021.2.3,Win32,166.6666667,,,,,,,,,,,,,,,,,,,,,,,,,,,,,,,,,,,,,,,,,,,,,,,,,,,,稳重,e,,,e,1,0.5704,1,68,148,21,1,,
,,,,,,,,,,,,,,1,001,2025-01-02_12h23.40.896,IAT(Formal),2021.2.3,Win32,166.6666667,,,,,,,,,,,,,,,,,,,,,,,,,,,,,,,,,,,,,,,,,,,,,,,,,,,,他,e,,,i,0,0.6027,1,69,149,75,1,,
,,,,,,,,,,,,,,1,001,2025-01-02_12h23.40.896,IAT(Formal),2021.2.3,Win32,166.6666667,,,,,,,,,,,,,,,,,,,,,,,,,,,,,,,,,,,,,,,,,,,,,,,,,,,,俺,i,,,i,1,0.5853,1,70,150,74,1,,
,,,,,,,,,,,,,,1,001,2025-01-02_12h23.40.896,IAT(Formal),2021.2.3,Win32,166.6666667,,,,,,,,,,,,,,,,,,,,,,,,,,,,,,,,,,,,,,,,,,,,,,,,,,,,热情,e,,,i,0,0.4978,1,71,151,27,1,,
,,,,,,,,,,,,,,1,001,2025-01-02_12h23.40.896,IAT(Formal),2021.2.3,Win32,166.6666667,,,,,,,,,,,,,,,,,,,,,,,,,,,,,,,,,,,,,,,,,,,,,,,,,,,,我,i,,,i,1,0.5827,1,72,152,50,1,,
,,,,,,,,,,,,,,1,001,2025-01-02_12h23.40.896,IAT(Formal),2021.2.3,Win32,166.6666667,,,,,,,,,,,,,,,,,,,,,,,,,,,,,,,,,,,,,,,,,,,,,,,,,,,,俺,i,,,i,1,0.476,1,73,153,64,1,,
,,,,,,,,,,,,,,1,001,2025-01-02_12h23.40.896,IAT(Formal),2021.2.3,Win32,166.6666667,,,,,,,,,,,,,,,,,,,,,,,,,,,,,,,,,,,,,,,,,,,,,,,,,,,,细腻,e,,,e,1,0.6728,1,74,154,25,1,,
,,,,,,,,,,,,,,1,001,2025-01-02_12h23.40.896,IAT(Formal),2021.2.3,Win32,166.6666667,,,,,,,,,,,,,,,,,,,,,,,,,,,,,,,,,,,,,,,,,,,,,,,,,,,,机智,e,,,e,1,0.5017,1,75,155,19,1,,
,,,,,,,,,,,,,,1,001,2025-01-02_12h23.40.896,IAT(Formal),2021.2.3,Win32,166.6666667,,,,,,,,,,,,,,,,,,,,,,,,,,,,,,,,,,,,,,,,,,,,,,,,,,,,他们,e,,,e,1,0.8023,1,76,156,76,1,,
,,,,,,,,,,,,,,1,001,2025-01-02_12h23.40.896,IAT(Formal),2021.2.3,Win32,166.6666667,,,,,,,,,,,,,,,,,,,,,,,,,,,,,,,,,,,,,,,,,,,,,,,,,,,,他的,e,,,e,1,0.6218,1,77,157,57,1,,
,,,,,,,,,,,,,,1,001,2025-01-02_12h23.40.896,IAT(Formal),2021.2.3,Win32,166.6666667,,,,,,,,,,,,,,,,,,,,,,,,,,,,,,,,,,,,,,,,,,,,,,,,,,,,我的,i,,,i,1,0.5157,1,78,158,61,1,,
,,,,,,,,,,,,,,1,001,2025-01-02_12h23.40.896,IAT(Formal),2021.2.3,Win32,166.6666667,,,,,,,,,,,,,,,,,,,,,,,,,,,,,,,,,,,,,,,,,,,,,,,,,,,,他们,e,,,e,1,0.5947,1,79,159,66,1,,
,,,,,,,,,,,,,,1,001,2025-01-02_12h23.40.896,IAT(Formal),2021.2.3,Win32,166.6666667,,,,,,,,,,,,,,,,,,,,,,,,,,,,,,,,,,,,,,,,,,,,,,,,,,,,,,,,,,,,,,,,space,2.1356