﻿Instruction1.keys,Instruction1.rt,Instruction2.keys,Instruction2.rt,key_resp_iso.keys,key_resp_iso.corr,Practice_01.thisRepN,Practice_01.thisTrialN,Practice_01.thisN,Practice_01.thisIndex,Practice_01.ran,Words,ans,participant,session,date,expName,psychopyVersion,OS,frameRate,key_resp_iso.rt,key_resp_3.keys,key_resp_3.rt,key_resp_ipn.keys,key_resp_ipn.corr,key_resp_ipn.rt,Practice_02.thisRepN,Practice_02.thisTrialN,Practice_02.thisN,Practice_02.thisIndex,Practice_02.ran,Words_ipn,ans_ipn,key_resp_4.keys,key_resp_4.rt,key_resp_t1.keys,key_resp_t1.corr,key_resp_t1.rt,Practice_T1.thisRepN,Practice_T1.thisTrialN,Practice_T1.thisN,Practice_T1.thisIndex,Practice_T1.ran,Words_t1,ans_t1,key_resp_5.keys,key_resp_5.rt,Formal_T1.thisRepN,Formal_T1.thisTrialN,Formal_T1.thisN,Formal_T1.thisIndex,Formal_T1.ran,key_resp_6.keys,key_resp_6.rt,key_resp_iso_reverse.keys,key_resp_iso_reverse.corr,key_resp_iso_reverse.rt,Practice_iso_Reverse.thisRepN,Practice_iso_Reverse.thisTrialN,Practice_iso_Reverse.thisN,Practice_iso_Reverse.thisIndex,Practice_iso_Reverse.ran,key_resp_7.keys,key_resp_7.rt,key_resp_t2_Practice.keys,key_resp_t2_Practice.corr,key_resp_t2_Practice.rt,Practice_t2_Reverse.thisRepN,Practice_t2_Reverse.thisTrialN,Practice_t2_Reverse.thisN,Practice_t2_Reverse.thisIndex,Practice_t2_Reverse.ran,Words_t2,ans_t2,key_resp_8.keys,key_resp_8.rt,key_resp_t2.keys,key_resp_t2.corr,key_resp_t2.rt,Formal_t2_reverse.thisRepN,Formal_t2_reverse.thisTrialN,Formal_t2_reverse.thisN,Formal_t2_reverse.thisIndex,Formal_t2_reverse.ran,key_instruct.keys,key_instruct.rt
space,3.4352,space,12.7,,0,0,0,0,1,1,我的,e,1,001,2025-01-02_13h09.35.702,IAT(Formal),2021.2.3,Win32,60.24096386,,,,,,,,,,,,,,,,,,,,,,,,,,,,,,,,,,,,,,,,,,,,,,,,,,,,,,,,,,,,,,,,,,
,,,,,0,0,1,1,5,1,他,i,1,001,2025-01-02_13h09.35.702,IAT(Formal),2021.2.3,Win32,60.24096386,,,,,,,,,,,,,,,,,,,,,,,,,,,,,,,,,,,,,,,,,,,,,,,,,,,,,,,,,,,,,,,,,,
,,,,e,1,0,2,2,2,1,我们,e,1,001,2025-01-02_13h09.35.702,IAT(Formal),2021.2.3,Win32,60.24096386,0.6342,,,,,,,,,,,,,,,,,,,,,,,,,,,,,,,,,,,,,,,,,,,,,,,,,,,,,,,,,,,,,,,,,
,,,,e,1,0,3,3,3,1,自己,e,1,001,2025-01-02_13h09.35.702,IAT(Formal),2021.2.3,Win32,60.24096386,0.506,,,,,,,,,,,,,,,,,,,,,,,,,,,,,,,,,,,,,,,,,,,,,,,,,,,,,,,,,,,,,,,,,
,,,,e,1,0,4,4,0,1,我,e,1,001,2025-01-02_13h09.35.702,IAT(Formal),2021.2.3,Win32,60.24096386,0.4345,,,,,,,,,,,,,,,,,,,,,,,,,,,,,,,,,,,,,,,,,,,,,,,,,,,,,,,,,,,,,,,,,
,,,,i,1,0,5,5,9,1,其他,i,1,001,2025-01-02_13h09.35.702,IAT(Formal),2021.2.3,Win32,60.24096386,0.7279,,,,,,,,,,,,,,,,,,,,,,,,,,,,,,,,,,,,,,,,,,,,,,,,,,,,,,,,,,,,,,,,,
,,,,i,1,0,6,6,7,1,他的,i,1,001,2025-01-02_13h09.35.702,IAT(Formal),2021.2.3,Win32,60.24096386,0.3537,,,,,,,,,,,,,,,,,,,,,,,,,,,,,,,,,,,,,,,,,,,,,,,,,,,,,,,,,,,,,,,,,
,,,,i,1,0,7,7,8,1,他人,i,1,001,2025-01-02_13h09.35.702,IAT(Formal),2021.2.3,Win32,60.24096386,0.5837,,,,,,,,,,,,,,,,,,,,,,,,,,,,,,,,,,,,,,,,,,,,,,,,,,,,,,,,,,,,,,,,,
,,,,i,0,0,8,8,4,1,俺,e,1,001,2025-01-02_13h09.35.702,IAT(Formal),2021.2.3,Win32,60.24096386,0.4509,,,,,,,,,,,,,,,,,,,,,,,,,,,,,,,,,,,,,,,,,,,,,,,,,,,,,,,,,,,,,,,,,
,,,,i,1,0,9,9,6,1,他们,i,1,001,2025-01-02_13h09.35.702,IAT(Formal),2021.2.3,Win32,60.24096386,0.4211,,,,,,,,,,,,,,,,,,,,,,,,,,,,,,,,,,,,,,,,,,,,,,,,,,,,,,,,,,,,,,,,,
,,,,,,,,,,,,,1,001,2025-01-02_13h09.35.702,IAT(Formal),2021.2.3,Win32,60.24096386,,space,5.6777,e,1,0.51,0,0,0,5,1,诚实,e,,,,,,,,,,,,,,,,,,,,,,,,,,,,,,,,,,,,,,,,,,,,,,,,,,,,,
,,,,,,,,,,,,,1,001,2025-01-02_13h09.35.702,IAT(Formal),2021.2.3,Win32,60.24096386,,,,i,1,0.518,0,1,1,27,1,傲慢,i,,,,,,,,,,,,,,,,,,,,,,,,,,,,,,,,,,,,,,,,,,,,,,,,,,,,,
,,,,,,,,,,,,,1,001,2025-01-02_13h09.35.702,IAT(Formal),2021.2.3,Win32,60.24096386,,,,e,1,0.7176,0,2,2,6,1,正直,e,,,,,,,,,,,,,,,,,,,,,,,,,,,,,,,,,,,,,,,,,,,,,,,,,,,,,
,,,,,,,,,,,,,1,001,2025-01-02_13h09.35.702,IAT(Formal),2021.2.3,Win32,60.24096386,,,,e,1,0.5214,0,3,3,8,1,勤奋,e,,,,,,,,,,,,,,,,,,,,,,,,,,,,,,,,,,,,,,,,,,,,,,,,,,,,,
,,,,,,,,,,,,,1,001,2025-01-02_13h09.35.702,IAT(Formal),2021.2.3,Win32,60.24096386,,,,i,1,0.555,0,4,4,35,1,猖狂,i,,,,,,,,,,,,,,,,,,,,,,,,,,,,,,,,,,,,,,,,,,,,,,,,,,,,,
,,,,,,,,,,,,,1,001,2025-01-02_13h09.35.702,IAT(Formal),2021.2.3,Win32,60.24096386,,,,i,1,0.4472,0,5,5,39,1,下贱,i,,,,,,,,,,,,,,,,,,,,,,,,,,,,,,,,,,,,,,,,,,,,,,,,,,,,,
,,,,,,,,,,,,,1,001,2025-01-02_13h09.35.702,IAT(Formal),2021.2.3,Win32,60.24096386,,,,e,0,0.4578,0,6,6,38,1,轻率,i,,,,,,,,,,,,,,,,,,,,,,,,,,,,,,,,,,,,,,,,,,,,,,,,,,,,,
,,,,,,,,,,,,,1,001,2025-01-02_13h09.35.702,IAT(Formal),2021.2.3,Win32,60.24096386,,,,e,1,0.4906,0,7,7,10,1,认真,e,,,,,,,,,,,,,,,,,,,,,,,,,,,,,,,,,,,,,,,,,,,,,,,,,,,,,
,,,,,,,,,,,,,1,001,2025-01-02_13h09.35.702,IAT(Formal),2021.2.3,Win32,60.24096386,,,,e,0,0.4896,0,8,8,28,1,鲁莽,i,,,,,,,,,,,,,,,,,,,,,,,,,,,,,,,,,,,,,,,,,,,,,,,,,,,,,
,,,,,,,,,,,,,1,001,2025-01-02_13h09.35.702,IAT(Formal),2021.2.3,Win32,60.24096386,,,,i,1,0.6267,0,9,9,36,1,野蛮,i,,,,,,,,,,,,,,,,,,,,,,,,,,,,,,,,,,,,,,,,,,,,,,,,,,,,,
,,,,,,,,,,,,,1,001,2025-01-02_13h09.35.702,IAT(Formal),2021.2.3,Win32,60.24096386,,,,i,1,0.518,0,10,10,23,1,刻薄,i,,,,,,,,,,,,,,,,,,,,,,,,,,,,,,,,,,,,,,,,,,,,,,,,,,,,,
,,,,,,,,,,,,,1,001,2025-01-02_13h09.35.702,IAT(Formal),2021.2.3,Win32,60.24096386,,,,e,1,0.6894,0,11,11,3,1,杰出,e,,,,,,,,,,,,,,,,,,,,,,,,,,,,,,,,,,,,,,,,,,,,,,,,,,,,,
,,,,,,,,,,,,,1,001,2025-01-02_13h09.35.702,IAT(Formal),2021.2.3,Win32,60.24096386,,,,i,1,0.5038,0,12,12,34,1,暴躁,i,,,,,,,,,,,,,,,,,,,,,,,,,,,,,,,,,,,,,,,,,,,,,,,,,,,,,
,,,,,,,,,,,,,1,001,2025-01-02_13h09.35.702,IAT(Formal),2021.2.3,Win32,60.24096386,,,,i,1,0.601,0,13,13,26,1,自卑,i,,,,,,,,,,,,,,,,,,,,,,,,,,,,,,,,,,,,,,,,,,,,,,,,,,,,,
,,,,,,,,,,,,,1,001,2025-01-02_13h09.35.702,IAT(Formal),2021.2.3,Win32,60.24096386,,,,i,1,0.5446,0,14,14,31,1,散漫,i,,,,,,,,,,,,,,,,,,,,,,,,,,,,,,,,,,,,,,,,,,,,,,,,,,,,,
,,,,,,,,,,,,,1,001,2025-01-02_13h09.35.702,IAT(Formal),2021.2.3,Win32,60.24096386,,,,e,1,0.4706,0,15,15,11,1,稳重,e,,,,,,,,,,,,,,,,,,,,,,,,,,,,,,,,,,,,,,,,,,,,,,,,,,,,,
,,,,,,,,,,,,,1,001,2025-01-02_13h09.35.702,IAT(Formal),2021.2.3,Win32,60.24096386,,,,i,1,0.5453,0,16,16,25,1,消极,i,,,,,,,,,,,,,,,,,,,,,,,,,,,,,,,,,,,,,,,,,,,,,,,,,,,,,
,,,,,,,,,,,,,1,001,2025-01-02_13h09.35.702,IAT(Formal),2021.2.3,Win32,60.24096386,,,,e,1,0.4899,0,17,17,4,1,乐观,e,,,,,,,,,,,,,,,,,,,,,,,,,,,,,,,,,,,,,,,,,,,,,,,,,,,,,
,,,,,,,,,,,,,1,001,2025-01-02_13h09.35.702,IAT(Formal),2021.2.3,Win32,60.24096386,,,,e,0,0.5529,0,18,18,32,1,凶狠,i,,,,,,,,,,,,,,,,,,,,,,,,,,,,,,,,,,,,,,,,,,,,,,,,,,,,,
,,,,,,,,,,,,,1,001,2025-01-02_13h09.35.702,IAT(Formal),2021.2.3,Win32,60.24096386,,,,e,1,0.4225,0,19,19,7,1,勇敢,e,,,,,,,,,,,,,,,,,,,,,,,,,,,,,,,,,,,,,,,,,,,,,,,,,,,,,
,,,,,,,,,,,,,1,001,2025-01-02_13h09.35.702,IAT(Formal),2021.2.3,Win32,60.24096386,,,,e,1,0.563,0,20,20,14,1,朴实,e,,,,,,,,,,,,,,,,,,,,,,,,,,,,,,,,,,,,,,,,,,,,,,,,,,,,,
,,,,,,,,,,,,,1,001,2025-01-02_13h09.35.702,IAT(Formal),2021.2.3,Win32,60.24096386,,,,e,1,0.5061,0,21,21,0,1,优秀,e,,,,,,,,,,,,,,,,,,,,,,,,,,,,,,,,,,,,,,,,,,,,,,,,,,,,,
,,,,,,,,,,,,,1,001,2025-01-02_13h09.35.702,IAT(Formal),2021.2.3,Win32,60.24096386,,,,e,1,0.5844,0,22,22,17,1,热情,e,,,,,,,,,,,,,,,,,,,,,,,,,,,,,,,,,,,,,,,,,,,,,,,,,,,,,
,,,,,,,,,,,,,1,001,2025-01-02_13h09.35.702,IAT(Formal),2021.2.3,Win32,60.24096386,,,,e,1,0.9007,0,23,23,13,1,公正,e,,,,,,,,,,,,,,,,,,,,,,,,,,,,,,,,,,,,,,,,,,,,,,,,,,,,,
,,,,,,,,,,,,,1,001,2025-01-02_13h09.35.702,IAT(Formal),2021.2.3,Win32,60.24096386,,,,e,1,0.4677,0,24,24,2,1,聪明,e,,,,,,,,,,,,,,,,,,,,,,,,,,,,,,,,,,,,,,,,,,,,,,,,,,,,,
,,,,,,,,,,,,,1,001,2025-01-02_13h09.35.702,IAT(Formal),2021.2.3,Win32,60.24096386,,,,e,1,0.449,0,25,25,18,1,活泼,e,,,,,,,,,,,,,,,,,,,,,,,,,,,,,,,,,,,,,,,,,,,,,,,,,,,,,
,,,,,,,,,,,,,1,001,2025-01-02_13h09.35.702,IAT(Formal),2021.2.3,Win32,60.24096386,,,,i,1,0.6141,0,26,26,22,1,愚蠢,i,,,,,,,,,,,,,,,,,,,,,,,,,,,,,,,,,,,,,,,,,,,,,,,,,,,,,
,,,,,,,,,,,,,1,001,2025-01-02_13h09.35.702,IAT(Formal),2021.2.3,Win32,60.24096386,,,,e,1,0.7013,0,27,27,15,1,细腻,e,,,,,,,,,,,,,,,,,,,,,,,,,,,,,,,,,,,,,,,,,,,,,,,,,,,,,
,,,,,,,,,,,,,1,001,2025-01-02_13h09.35.702,IAT(Formal),2021.2.3,Win32,60.24096386,,,,i,1,0.6341,0,28,28,29,1,冒失,i,,,,,,,,,,,,,,,,,,,,,,,,,,,,,,,,,,,,,,,,,,,,,,,,,,,,,
,,,,,,,,,,,,,1,001,2025-01-02_13h09.35.702,IAT(Formal),2021.2.3,Win32,60.24096386,,,,i,1,0.8014,0,29,29,30,1,执拗,i,,,,,,,,,,,,,,,,,,,,,,,,,,,,,,,,,,,,,,,,,,,,,,,,,,,,,
,,,,,,,,,,,,,1,001,2025-01-02_13h09.35.702,IAT(Formal),2021.2.3,Win32,60.24096386,,,,e,1,0.4346,0,30,30,9,1,机智,e,,,,,,,,,,,,,,,,,,,,,,,,,,,,,,,,,,,,,,,,,,,,,,,,,,,,,
,,,,,,,,,,,,,1,001,2025-01-02_13h09.35.702,IAT(Formal),2021.2.3,Win32,60.24096386,,,,i,1,0.4853,0,31,31,37,1,固执,i,,,,,,,,,,,,,,,,,,,,,,,,,,,,,,,,,,,,,,,,,,,,,,,,,,,,,
,,,,,,,,,,,,,1,001,2025-01-02_13h09.35.702,IAT(Formal),2021.2.3,Win32,60.24096386,,,,e,1,0.6876,0,32,32,12,1,无私,e,,,,,,,,,,,,,,,,,,,,,,,,,,,,,,,,,,,,,,,,,,,,,,,,,,,,,
,,,,,,,,,,,,,1,001,2025-01-02_13h09.35.702,IAT(Formal),2021.2.3,Win32,60.24096386,,,,e,1,0.539,0,33,33,16,1,冷静,e,,,,,,,,,,,,,,,,,,,,,,,,,,,,,,,,,,,,,,,,,,,,,,,,,,,,,
,,,,,,,,,,,,,1,001,2025-01-02_13h09.35.702,IAT(Formal),2021.2.3,Win32,60.24096386,,,,e,1,0.5175,0,34,34,19,1,诚恳,e,,,,,,,,,,,,,,,,,,,,,,,,,,,,,,,,,,,,,,,,,,,,,,,,,,,,,
,,,,,,,,,,,,,1,001,2025-01-02_13h09.35.702,IAT(Formal),2021.2.3,Win32,60.24096386,,,,i,1,0.6045,0,35,35,20,1,卑鄙,i,,,,,,,,,,,,,,,,,,,,,,,,,,,,,,,,,,,,,,,,,,,,,,,,,,,,,
,,,,,,,,,,,,,1,001,2025-01-02_13h09.35.702,IAT(Formal),2021.2.3,Win32,60.24096386,,,,e,0,0.4604,0,36,36,33,1,自私,i,,,,,,,,,,,,,,,,,,,,,,,,,,,,,,,,,,,,,,,,,,,,,,,,,,,,,
,,,,,,,,,,,,,1,001,2025-01-02_13h09.35.702,IAT(Formal),2021.2.3,Win32,60.24096386,,,,i,1,0.5939,0,37,37,21,1,虚伪,i,,,,,,,,,,,,,,,,,,,,,,,,,,,,,,,,,,,,,,,,,,,,,,,,,,,,,
,,,,,,,,,,,,,1,001,2025-01-02_13h09.35.702,IAT(Formal),2021.2.3,Win32,60.24096386,,,,i,1,0.6118,0,38,38,24,1,悲观,i,,,,,,,,,,,,,,,,,,,,,,,,,,,,,,,,,,,,,,,,,,,,,,,,,,,,,
,,,,,,,,,,,,,1,001,2025-01-02_13h09.35.702,IAT(Formal),2021.2.3,Win32,60.24096386,,,,e,1,0.5259,0,39,39,1,1,崇高,e,,,,,,,,,,,,,,,,,,,,,,,,,,,,,,,,,,,,,,,,,,,,,,,,,,,,,
,,,,,,,,,,,,,1,001,2025-01-02_13h09.35.702,IAT(Formal),2021.2.3,Win32,60.24096386,,,,,,,,,,,,,,space,6.5515,i,1,0.6166,0,0,0,55,1,他,i,,,,,,,,,,,,,,,,,,,,,,,,,,,,,,,,,,,,,,,,,
,,,,,,,,,,,,,1,001,2025-01-02_13h09.35.702,IAT(Formal),2021.2.3,Win32,60.24096386,,,,,,,,,,,,,,,,i,1,0.5421,0,1,1,41,1,散漫,i,,,,,,,,,,,,,,,,,,,,,,,,,,,,,,,,,,,,,,,,,
,,,,,,,,,,,,,1,001,2025-01-02_13h09.35.702,IAT(Formal),2021.2.3,Win32,60.24096386,,,,,,,,,,,,,,,,e,1,0.49,0,2,2,70,1,我,e,,,,,,,,,,,,,,,,,,,,,,,,,,,,,,,,,,,,,,,,,
,,,,,,,,,,,,,1,001,2025-01-02_13h09.35.702,IAT(Formal),2021.2.3,Win32,60.24096386,,,,,,,,,,,,,,,,i,1,0.4407,0,3,3,56,1,他们,i,,,,,,,,,,,,,,,,,,,,,,,,,,,,,,,,,,,,,,,,,
,,,,,,,,,,,,,1,001,2025-01-02_13h09.35.702,IAT(Formal),2021.2.3,Win32,60.24096386,,,,,,,,,,,,,,,,i,1,0.4861,0,4,4,67,1,他的,i,,,,,,,,,,,,,,,,,,,,,,,,,,,,,,,,,,,,,,,,,
,,,,,,,,,,,,,1,001,2025-01-02_13h09.35.702,IAT(Formal),2021.2.3,Win32,60.24096386,,,,,,,,,,,,,,,,i,1,0.4693,0,5,5,59,1,其他,i,,,,,,,,,,,,,,,,,,,,,,,,,,,,,,,,,,,,,,,,,
,,,,,,,,,,,,,1,001,2025-01-02_13h09.35.702,IAT(Formal),2021.2.3,Win32,60.24096386,,,,,,,,,,,,,,,,i,1,0.4678,0,6,6,46,1,野蛮,i,,,,,,,,,,,,,,,,,,,,,,,,,,,,,,,,,,,,,,,,,
,,,,,,,,,,,,,1,001,2025-01-02_13h09.35.702,IAT(Formal),2021.2.3,Win32,60.24096386,,,,,,,,,,,,,,,,i,1,0.3503,0,7,7,65,1,他,i,,,,,,,,,,,,,,,,,,,,,,,,,,,,,,,,,,,,,,,,,
,,,,,,,,,,,,,1,001,2025-01-02_13h09.35.702,IAT(Formal),2021.2.3,Win32,60.24096386,,,,,,,,,,,,,,,,e,1,0.5423,0,8,8,25,1,细腻,e,,,,,,,,,,,,,,,,,,,,,,,,,,,,,,,,,,,,,,,,,
,,,,,,,,,,,,,1,001,2025-01-02_13h09.35.702,IAT(Formal),2021.2.3,Win32,60.24096386,,,,,,,,,,,,,,,,i,1,0.5519,0,9,9,44,1,暴躁,i,,,,,,,,,,,,,,,,,,,,,,,,,,,,,,,,,,,,,,,,,
,,,,,,,,,,,,,1,001,2025-01-02_13h09.35.702,IAT(Formal),2021.2.3,Win32,60.24096386,,,,,,,,,,,,,,,,e,1,0.5578,0,10,10,17,1,勇敢,e,,,,,,,,,,,,,,,,,,,,,,,,,,,,,,,,,,,,,,,,,
,,,,,,,,,,,,,1,001,2025-01-02_13h09.35.702,IAT(Formal),2021.2.3,Win32,60.24096386,,,,,,,,,,,,,,,,i,1,0.5165,0,11,11,75,1,他,i,,,,,,,,,,,,,,,,,,,,,,,,,,,,,,,,,,,,,,,,,
,,,,,,,,,,,,,1,001,2025-01-02_13h09.35.702,IAT(Formal),2021.2.3,Win32,60.24096386,,,,,,,,,,,,,,,,i,1,0.4013,0,12,12,6,1,他们,i,,,,,,,,,,,,,,,,,,,,,,,,,,,,,,,,,,,,,,,,,
,,,,,,,,,,,,,1,001,2025-01-02_13h09.35.702,IAT(Formal),2021.2.3,Win32,60.24096386,,,,,,,,,,,,,,,,i,1,0.3849,0,13,13,9,1,其他,i,,,,,,,,,,,,,,,,,,,,,,,,,,,,,,,,,,,,,,,,,
,,,,,,,,,,,,,1,001,2025-01-02_13h09.35.702,IAT(Formal),2021.2.3,Win32,60.24096386,,,,,,,,,,,,,,,,e,1,0.5186,0,14,14,54,1,俺,e,,,,,,,,,,,,,,,,,,,,,,,,,,,,,,,,,,,,,,,,,
,,,,,,,,,,,,,1,001,2025-01-02_13h09.35.702,IAT(Formal),2021.2.3,Win32,60.24096386,,,,,,,,,,,,,,,,i,1,0.4501,0,15,15,34,1,悲观,i,,,,,,,,,,,,,,,,,,,,,,,,,,,,,,,,,,,,,,,,,
,,,,,,,,,,,,,1,001,2025-01-02_13h09.35.702,IAT(Formal),2021.2.3,Win32,60.24096386,,,,,,,,,,,,,,,,i,1,0.5667,0,16,16,36,1,自卑,i,,,,,,,,,,,,,,,,,,,,,,,,,,,,,,,,,,,,,,,,,
,,,,,,,,,,,,,1,001,2025-01-02_13h09.35.702,IAT(Formal),2021.2.3,Win32,60.24096386,,,,,,,,,,,,,,,,e,1,0.488,0,17,17,21,1,稳重,e,,,,,,,,,,,,,,,,,,,,,,,,,,,,,,,,,,,,,,,,,
,,,,,,,,,,,,,1,001,2025-01-02_13h09.35.702,IAT(Formal),2021.2.3,Win32,60.24096386,,,,,,,,,,,,,,,,i,1,0.4082,0,18,18,7,1,他的,i,,,,,,,,,,,,,,,,,,,,,,,,,,,,,,,,,,,,,,,,,
,,,,,,,,,,,,,1,001,2025-01-02_13h09.35.702,IAT(Formal),2021.2.3,Win32,60.24096386,,,,,,,,,,,,,,,,e,0,0.5342,0,19,19,68,1,他人,i,,,,,,,,,,,,,,,,,,,,,,,,,,,,,,,,,,,,,,,,,
,,,,,,,,,,,,,1,001,2025-01-02_13h09.35.702,IAT(Formal),2021.2.3,Win32,60.24096386,,,,,,,,,,,,,,,,i,1,0.5337,0,20,20,57,1,他的,i,,,,,,,,,,,,,,,,,,,,,,,,,,,,,,,,,,,,,,,,,
,,,,,,,,,,,,,1,001,2025-01-02_13h09.35.702,IAT(Formal),2021.2.3,Win32,60.24096386,,,,,,,,,,,,,,,,e,1,0.5262,0,21,21,73,1,自己,e,,,,,,,,,,,,,,,,,,,,,,,,,,,,,,,,,,,,,,,,,
,,,,,,,,,,,,,1,001,2025-01-02_13h09.35.702,IAT(Formal),2021.2.3,Win32,60.24096386,,,,,,,,,,,,,,,,e,1,0.5006,0,22,22,27,1,热情,e,,,,,,,,,,,,,,,,,,,,,,,,,,,,,,,,,,,,,,,,,
,,,,,,,,,,,,,1,001,2025-01-02_13h09.35.702,IAT(Formal),2021.2.3,Win32,60.24096386,,,,,,,,,,,,,,,,e,1,0.3897,0,23,23,20,1,认真,e,,,,,,,,,,,,,,,,,,,,,,,,,,,,,,,,,,,,,,,,,
,,,,,,,,,,,,,1,001,2025-01-02_13h09.35.702,IAT(Formal),2021.2.3,Win32,60.24096386,,,,,,,,,,,,,,,,i,1,0.4192,0,24,24,42,1,凶狠,i,,,,,,,,,,,,,,,,,,,,,,,,,,,,,,,,,,,,,,,,,
,,,,,,,,,,,,,1,001,2025-01-02_13h09.35.702,IAT(Formal),2021.2.3,Win32,60.24096386,,,,,,,,,,,,,,,,e,0,0.4096,0,25,25,8,1,他人,i,,,,,,,,,,,,,,,,,,,,,,,,,,,,,,,,,,,,,,,,,
,,,,,,,,,,,,,1,001,2025-01-02_13h09.35.702,IAT(Formal),2021.2.3,Win32,60.24096386,,,,,,,,,,,,,,,,i,1,0.5748,0,26,26,37,1,傲慢,i,,,,,,,,,,,,,,,,,,,,,,,,,,,,,,,,,,,,,,,,,
,,,,,,,,,,,,,1,001,2025-01-02_13h09.35.702,IAT(Formal),2021.2.3,Win32,60.24096386,,,,,,,,,,,,,,,,e,1,0.5335,0,27,27,60,1,我,e,,,,,,,,,,,,,,,,,,,,,,,,,,,,,,,,,,,,,,,,,
,,,,,,,,,,,,,1,001,2025-01-02_13h09.35.702,IAT(Formal),2021.2.3,Win32,60.24096386,,,,,,,,,,,,,,,,e,1,0.4243,0,28,28,61,1,我的,e,,,,,,,,,,,,,,,,,,,,,,,,,,,,,,,,,,,,,,,,,
,,,,,,,,,,,,,1,001,2025-01-02_13h09.35.702,IAT(Formal),2021.2.3,Win32,60.24096386,,,,,,,,,,,,,,,,e,1,0.3898,0,29,29,71,1,我的,e,,,,,,,,,,,,,,,,,,,,,,,,,,,,,,,,,,,,,,,,,
,,,,,,,,,,,,,1,001,2025-01-02_13h09.35.702,IAT(Formal),2021.2.3,Win32,60.24096386,,,,,,,,,,,,,,,,e,1,0.534,0,30,30,12,1,聪明,e,,,,,,,,,,,,,,,,,,,,,,,,,,,,,,,,,,,,,,,,,
,,,,,,,,,,,,,1,001,2025-01-02_13h09.35.702,IAT(Formal),2021.2.3,Win32,60.24096386,,,,,,,,,,,,,,,,i,0,0.7169,0,31,31,13,1,杰出,e,,,,,,,,,,,,,,,,,,,,,,,,,,,,,,,,,,,,,,,,,
,,,,,,,,,,,,,1,001,2025-01-02_13h09.35.702,IAT(Formal),2021.2.3,Win32,60.24096386,,,,,,,,,,,,,,,,e,1,0.395,0,32,32,52,1,我们,e,,,,,,,,,,,,,,,,,,,,,,,,,,,,,,,,,,,,,,,,,
,,,,,,,,,,,,,1,001,2025-01-02_13h09.35.702,IAT(Formal),2021.2.3,Win32,60.24096386,,,,,,,,,,,,,,,,e,1,0.5515,0,33,33,10,1,优秀,e,,,,,,,,,,,,,,,,,,,,,,,,,,,,,,,,,,,,,,,,,
,,,,,,,,,,,,,1,001,2025-01-02_13h09.35.702,IAT(Formal),2021.2.3,Win32,60.24096386,,,,,,,,,,,,,,,,i,1,0.7362,0,34,34,38,1,鲁莽,i,,,,,,,,,,,,,,,,,,,,,,,,,,,,,,,,,,,,,,,,,
,,,,,,,,,,,,,1,001,2025-01-02_13h09.35.702,IAT(Formal),2021.2.3,Win32,60.24096386,,,,,,,,,,,,,,,,e,1,0.5395,0,35,35,63,1,自己,e,,,,,,,,,,,,,,,,,,,,,,,,,,,,,,,,,,,,,,,,,
,,,,,,,,,,,,,1,001,2025-01-02_13h09.35.702,IAT(Formal),2021.2.3,Win32,60.24096386,,,,,,,,,,,,,,,,i,1,0.6582,0,36,36,31,1,虚伪,i,,,,,,,,,,,,,,,,,,,,,,,,,,,,,,,,,,,,,,,,,
,,,,,,,,,,,,,1,001,2025-01-02_13h09.35.702,IAT(Formal),2021.2.3,Win32,60.24096386,,,,,,,,,,,,,,,,e,1,0.5339,0,37,37,15,1,诚实,e,,,,,,,,,,,,,,,,,,,,,,,,,,,,,,,,,,,,,,,,,
,,,,,,,,,,,,,1,001,2025-01-02_13h09.35.702,IAT(Formal),2021.2.3,Win32,60.24096386,,,,,,,,,,,,,,,,e,1,0.8063,0,38,38,26,1,冷静,e,,,,,,,,,,,,,,,,,,,,,,,,,,,,,,,,,,,,,,,,,
,,,,,,,,,,,,,1,001,2025-01-02_13h09.35.702,IAT(Formal),2021.2.3,Win32,60.24096386,,,,,,,,,,,,,,,,i,1,0.5502,0,39,39,43,1,自私,i,,,,,,,,,,,,,,,,,,,,,,,,,,,,,,,,,,,,,,,,,
,,,,,,,,,,,,,1,001,2025-01-02_13h09.35.702,IAT(Formal),2021.2.3,Win32,60.24096386,,,,,,,,,,,,,,,,i,1,0.5669,0,40,40,58,1,他人,i,,,,,,,,,,,,,,,,,,,,,,,,,,,,,,,,,,,,,,,,,
,,,,,,,,,,,,,1,001,2025-01-02_13h09.35.702,IAT(Formal),2021.2.3,Win32,60.24096386,,,,,,,,,,,,,,,,i,1,0.4676,0,41,41,66,1,他们,i,,,,,,,,,,,,,,,,,,,,,,,,,,,,,,,,,,,,,,,,,
,,,,,,,,,,,,,1,001,2025-01-02_13h09.35.702,IAT(Formal),2021.2.3,Win32,60.24096386,,,,,,,,,,,,,,,,i,1,0.4834,0,42,42,79,1,其他,i,,,,,,,,,,,,,,,,,,,,,,,,,,,,,,,,,,,,,,,,,
,,,,,,,,,,,,,1,001,2025-01-02_13h09.35.702,IAT(Formal),2021.2.3,Win32,60.24096386,,,,,,,,,,,,,,,,i,1,0.371,0,43,43,69,1,其他,i,,,,,,,,,,,,,,,,,,,,,,,,,,,,,,,,,,,,,,,,,
,,,,,,,,,,,,,1,001,2025-01-02_13h09.35.702,IAT(Formal),2021.2.3,Win32,60.24096386,,,,,,,,,,,,,,,,e,1,0.4731,0,44,44,51,1,我的,e,,,,,,,,,,,,,,,,,,,,,,,,,,,,,,,,,,,,,,,,,
,,,,,,,,,,,,,1,001,2025-01-02_13h09.35.702,IAT(Formal),2021.2.3,Win32,60.24096386,,,,,,,,,,,,,,,,e,1,0.6077,0,45,45,53,1,自己,e,,,,,,,,,,,,,,,,,,,,,,,,,,,,,,,,,,,,,,,,,
,,,,,,,,,,,,,1,001,2025-01-02_13h09.35.702,IAT(Formal),2021.2.3,Win32,60.24096386,,,,,,,,,,,,,,,,i,1,0.5511,0,46,46,45,1,猖狂,i,,,,,,,,,,,,,,,,,,,,,,,,,,,,,,,,,,,,,,,,,
,,,,,,,,,,,,,1,001,2025-01-02_13h09.35.702,IAT(Formal),2021.2.3,Win32,60.24096386,,,,,,,,,,,,,,,,e,1,0.6343,0,47,47,28,1,活泼,e,,,,,,,,,,,,,,,,,,,,,,,,,,,,,,,,,,,,,,,,,
,,,,,,,,,,,,,1,001,2025-01-02_13h09.35.702,IAT(Formal),2021.2.3,Win32,60.24096386,,,,,,,,,,,,,,,,e,1,0.5366,0,48,48,64,1,俺,e,,,,,,,,,,,,,,,,,,,,,,,,,,,,,,,,,,,,,,,,,
,,,,,,,,,,,,,1,001,2025-01-02_13h09.35.702,IAT(Formal),2021.2.3,Win32,60.24096386,,,,,,,,,,,,,,,,i,1,0.5887,0,49,49,30,1,卑鄙,i,,,,,,,,,,,,,,,,,,,,,,,,,,,,,,,,,,,,,,,,,
,,,,,,,,,,,,,1,001,2025-01-02_13h09.35.702,IAT(Formal),2021.2.3,Win32,60.24096386,,,,,,,,,,,,,,,,i,1,0.66,0,50,50,78,1,他人,i,,,,,,,,,,,,,,,,,,,,,,,,,,,,,,,,,,,,,,,,,
,,,,,,,,,,,,,1,001,2025-01-02_13h09.35.702,IAT(Formal),2021.2.3,Win32,60.24096386,,,,,,,,,,,,,,,,e,1,0.6085,0,51,51,14,1,乐观,e,,,,,,,,,,,,,,,,,,,,,,,,,,,,,,,,,,,,,,,,,
,,,,,,,,,,,,,1,001,2025-01-02_13h09.35.702,IAT(Formal),2021.2.3,Win32,60.24096386,,,,,,,,,,,,,,,,e,1,0.436,0,52,52,19,1,机智,e,,,,,,,,,,,,,,,,,,,,,,,,,,,,,,,,,,,,,,,,,
,,,,,,,,,,,,,1,001,2025-01-02_13h09.35.702,IAT(Formal),2021.2.3,Win32,60.24096386,,,,,,,,,,,,,,,,e,1,0.4623,0,53,53,4,1,俺,e,,,,,,,,,,,,,,,,,,,,,,,,,,,,,,,,,,,,,,,,,
,,,,,,,,,,,,,1,001,2025-01-02_13h09.35.702,IAT(Formal),2021.2.3,Win32,60.24096386,,,,,,,,,,,,,,,,e,1,0.3503,0,54,54,2,1,我们,e,,,,,,,,,,,,,,,,,,,,,,,,,,,,,,,,,,,,,,,,,
,,,,,,,,,,,,,1,001,2025-01-02_13h09.35.702,IAT(Formal),2021.2.3,Win32,60.24096386,,,,,,,,,,,,,,,,e,1,0.4517,0,55,55,74,1,俺,e,,,,,,,,,,,,,,,,,,,,,,,,,,,,,,,,,,,,,,,,,
,,,,,,,,,,,,,1,001,2025-01-02_13h09.35.702,IAT(Formal),2021.2.3,Win32,60.24096386,,,,,,,,,,,,,,,,e,1,0.5217,0,56,56,22,1,无私,e,,,,,,,,,,,,,,,,,,,,,,,,,,,,,,,,,,,,,,,,,
,,,,,,,,,,,,,1,001,2025-01-02_13h09.35.702,IAT(Formal),2021.2.3,Win32,60.24096386,,,,,,,,,,,,,,,,i,1,0.6001,0,57,57,47,1,固执,i,,,,,,,,,,,,,,,,,,,,,,,,,,,,,,,,,,,,,,,,,
,,,,,,,,,,,,,1,001,2025-01-02_13h09.35.702,IAT(Formal),2021.2.3,Win32,60.24096386,,,,,,,,,,,,,,,,i,1,0.5365,0,58,58,39,1,冒失,i,,,,,,,,,,,,,,,,,,,,,,,,,,,,,,,,,,,,,,,,,
,,,,,,,,,,,,,1,001,2025-01-02_13h09.35.702,IAT(Formal),2021.2.3,Win32,60.24096386,,,,,,,,,,,,,,,,i,1,0.4175,0,59,59,77,1,他的,i,,,,,,,,,,,,,,,,,,,,,,,,,,,,,,,,,,,,,,,,,
,,,,,,,,,,,,,1,001,2025-01-02_13h09.35.702,IAT(Formal),2021.2.3,Win32,60.24096386,,,,,,,,,,,,,,,,e,1,0.5879,0,60,60,3,1,自己,e,,,,,,,,,,,,,,,,,,,,,,,,,,,,,,,,,,,,,,,,,
,,,,,,,,,,,,,1,001,2025-01-02_13h09.35.702,IAT(Formal),2021.2.3,Win32,60.24096386,,,,,,,,,,,,,,,,e,1,0.5349,0,61,61,1,1,我的,e,,,,,,,,,,,,,,,,,,,,,,,,,,,,,,,,,,,,,,,,,
,,,,,,,,,,,,,1,001,2025-01-02_13h09.35.702,IAT(Formal),2021.2.3,Win32,60.24096386,,,,,,,,,,,,,,,,e,1,0.3451,0,62,62,62,1,我们,e,,,,,,,,,,,,,,,,,,,,,,,,,,,,,,,,,,,,,,,,,
,,,,,,,,,,,,,1,001,2025-01-02_13h09.35.702,IAT(Formal),2021.2.3,Win32,60.24096386,,,,,,,,,,,,,,,,e,1,0.2883,0,63,63,50,1,我,e,,,,,,,,,,,,,,,,,,,,,,,,,,,,,,,,,,,,,,,,,
,,,,,,,,,,,,,1,001,2025-01-02_13h09.35.702,IAT(Formal),2021.2.3,Win32,60.24096386,,,,,,,,,,,,,,,,e,0,0.2847,0,64,64,5,1,他,i,,,,,,,,,,,,,,,,,,,,,,,,,,,,,,,,,,,,,,,,,
,,,,,,,,,,,,,1,001,2025-01-02_13h09.35.702,IAT(Formal),2021.2.3,Win32,60.24096386,,,,,,,,,,,,,,,,e,1,0.5276,0,65,65,11,1,崇高,e,,,,,,,,,,,,,,,,,,,,,,,,,,,,,,,,,,,,,,,,,
,,,,,,,,,,,,,1,001,2025-01-02_13h09.35.702,IAT(Formal),2021.2.3,Win32,60.24096386,,,,,,,,,,,,,,,,i,1,0.6719,0,66,66,49,1,下贱,i,,,,,,,,,,,,,,,,,,,,,,,,,,,,,,,,,,,,,,,,,
,,,,,,,,,,,,,1,001,2025-01-02_13h09.35.702,IAT(Formal),2021.2.3,Win32,60.24096386,,,,,,,,,,,,,,,,e,1,0.7904,0,67,67,16,1,正直,e,,,,,,,,,,,,,,,,,,,,,,,,,,,,,,,,,,,,,,,,,
,,,,,,,,,,,,,1,001,2025-01-02_13h09.35.702,IAT(Formal),2021.2.3,Win32,60.24096386,,,,,,,,,,,,,,,,e,1,0.5521,0,68,68,18,1,勤奋,e,,,,,,,,,,,,,,,,,,,,,,,,,,,,,,,,,,,,,,,,,
,,,,,,,,,,,,,1,001,2025-01-02_13h09.35.702,IAT(Formal),2021.2.3,Win32,60.24096386,,,,,,,,,,,,,,,,e,1,0.5568,0,69,69,0,1,我,e,,,,,,,,,,,,,,,,,,,,,,,,,,,,,,,,,,,,,,,,,
,,,,,,,,,,,,,1,001,2025-01-02_13h09.35.702,IAT(Formal),2021.2.3,Win32,60.24096386,,,,,,,,,,,,,,,,i,1,0.7004,0,70,70,35,1,消极,i,,,,,,,,,,,,,,,,,,,,,,,,,,,,,,,,,,,,,,,,,
,,,,,,,,,,,,,1,001,2025-01-02_13h09.35.702,IAT(Formal),2021.2.3,Win32,60.24096386,,,,,,,,,,,,,,,,e,1,0.5411,0,71,71,72,1,我们,e,,,,,,,,,,,,,,,,,,,,,,,,,,,,,,,,,,,,,,,,,
,,,,,,,,,,,,,1,001,2025-01-02_13h09.35.702,IAT(Formal),2021.2.3,Win32,60.24096386,,,,,,,,,,,,,,,,i,1,0.7391,0,72,72,76,1,他们,i,,,,,,,,,,,,,,,,,,,,,,,,,,,,,,,,,,,,,,,,,
,,,,,,,,,,,,,1,001,2025-01-02_13h09.35.702,IAT(Formal),2021.2.3,Win32,60.24096386,,,,,,,,,,,,,,,,e,1,0.5664,0,73,73,24,1,朴实,e,,,,,,,,,,,,,,,,,,,,,,,,,,,,,,,,,,,,,,,,,
,,,,,,,,,,,,,1,001,2025-01-02_13h09.35.702,IAT(Formal),2021.2.3,Win32,60.24096386,,,,,,,,,,,,,,,,i,1,0.7513,0,74,74,48,1,轻率,i,,,,,,,,,,,,,,,,,,,,,,,,,,,,,,,,,,,,,,,,,
,,,,,,,,,,,,,1,001,2025-01-02_13h09.35.702,IAT(Formal),2021.2.3,Win32,60.24096386,,,,,,,,,,,,,,,,i,1,0.5048,0,75,75,40,1,执拗,i,,,,,,,,,,,,,,,,,,,,,,,,,,,,,,,,,,,,,,,,,
,,,,,,,,,,,,,1,001,2025-01-02_13h09.35.702,IAT(Formal),2021.2.3,Win32,60.24096386,,,,,,,,,,,,,,,,e,1,0.8496,0,76,76,23,1,公正,e,,,,,,,,,,,,,,,,,,,,,,,,,,,,,,,,,,,,,,,,,
,,,,,,,,,,,,,1,001,2025-01-02_13h09.35.702,IAT(Formal),2021.2.3,Win32,60.24096386,,,,,,,,,,,,,,,,i,1,0.5674,0,77,77,32,1,愚蠢,i,,,,,,,,,,,,,,,,,,,,,,,,,,,,,,,,,,,,,,,,,
,,,,,,,,,,,,,1,001,2025-01-02_13h09.35.702,IAT(Formal),2021.2.3,Win32,60.24096386,,,,,,,,,,,,,,,,e,1,0.434,0,78,78,29,1,诚恳,e,,,,,,,,,,,,,,,,,,,,,,,,,,,,,,,,,,,,,,,,,
,,,,,,,,,,,,,1,001,2025-01-02_13h09.35.702,IAT(Formal),2021.2.3,Win32,60.24096386,,,,,,,,,,,,,,,,i,1,0.4668,0,79,79,33,1,刻薄,i,,,,,,,,,,,,,,,,,,,,,,,,,,,,,,,,,,,,,,,,,
,,,,,,,,,,,,,1,001,2025-01-02_13h09.35.702,IAT(Formal),2021.2.3,Win32,60.24096386,,,,,,,,,,,,,,,,i,1,0.5813,,,,,,他,i,space,13.0501,0,0,0,5,1,,,,,,,,,,,,,,,,,,,,,,,,,,,,,,,,,,
,,,,,,,,,,,,,1,001,2025-01-02_13h09.35.702,IAT(Formal),2021.2.3,Win32,60.24096386,,,,,,,,,,,,,,,,i,1,0.5298,,,,,,野蛮,i,,,0,1,1,46,1,,,,,,,,,,,,,,,,,,,,,,,,,,,,,,,,,,
,,,,,,,,,,,,,1,001,2025-01-02_13h09.35.702,IAT(Formal),2021.2.3,Win32,60.24096386,,,,,,,,,,,,,,,,e,1,0.4086,,,,,,我的,e,,,0,2,2,61,1,,,,,,,,,,,,,,,,,,,,,,,,,,,,,,,,,,
,,,,,,,,,,,,,1,001,2025-01-02_13h09.35.702,IAT(Formal),2021.2.3,Win32,60.24096386,,,,,,,,,,,,,,,,i,1,0.6709,,,,,,他人,i,,,0,3,3,78,1,,,,,,,,,,,,,,,,,,,,,,,,,,,,,,,,,,
,,,,,,,,,,,,,1,001,2025-01-02_13h09.35.702,IAT(Formal),2021.2.3,Win32,60.24096386,,,,,,,,,,,,,,,,e,1,0.4639,,,,,,我的,e,,,0,4,4,71,1,,,,,,,,,,,,,,,,,,,,,,,,,,,,,,,,,,
,,,,,,,,,,,,,1,001,2025-01-02_13h09.35.702,IAT(Formal),2021.2.3,Win32,60.24096386,,,,,,,,,,,,,,,,e,1,0.3861,,,,,,我,e,,,0,5,5,50,1,,,,,,,,,,,,,,,,,,,,,,,,,,,,,,,,,,
,,,,,,,,,,,,,1,001,2025-01-02_13h09.35.702,IAT(Formal),2021.2.3,Win32,60.24096386,,,,,,,,,,,,,,,,i,1,0.496,,,,,,执拗,i,,,0,6,6,40,1,,,,,,,,,,,,,,,,,,,,,,,,,,,,,,,,,,
,,,,,,,,,,,,,1,001,2025-01-02_13h09.35.702,IAT(Formal),2021.2.3,Win32,60.24096386,,,,,,,,,,,,,,,,e,1,0.6436,,,,,,正直,e,,,0,7,7,16,1,,,,,,,,,,,,,,,,,,,,,,,,,,,,,,,,,,
,,,,,,,,,,,,,1,001,2025-01-02_13h09.35.702,IAT(Formal),2021.2.3,Win32,60.24096386,,,,,,,,,,,,,,,,i,1,0.4909,,,,,,消极,i,,,0,8,8,35,1,,,,,,,,,,,,,,,,,,,,,,,,,,,,,,,,,,
,,,,,,,,,,,,,1,001,2025-01-02_13h09.35.702,IAT(Formal),2021.2.3,Win32,60.24096386,,,,,,,,,,,,,,,,i,1,0.5089,,,,,,他人,i,,,0,9,9,68,1,,,,,,,,,,,,,,,,,,,,,,,,,,,,,,,,,,
,,,,,,,,,,,,,1,001,2025-01-02_13h09.35.702,IAT(Formal),2021.2.3,Win32,60.24096386,,,,,,,,,,,,,,,,e,1,0.5449,,,,,,冷静,e,,,0,10,10,26,1,,,,,,,,,,,,,,,,,,,,,,,,,,,,,,,,,,
,,,,,,,,,,,,,1,001,2025-01-02_13h09.35.702,IAT(Formal),2021.2.3,Win32,60.24096386,,,,,,,,,,,,,,,,i,1,0.5038,,,,,,鲁莽,i,,,0,11,11,38,1,,,,,,,,,,,,,,,,,,,,,,,,,,,,,,,,,,
,,,,,,,,,,,,,1,001,2025-01-02_13h09.35.702,IAT(Formal),2021.2.3,Win32,60.24096386,,,,,,,,,,,,,,,,i,1,0.6147,,,,,,愚蠢,i,,,0,12,12,32,1,,,,,,,,,,,,,,,,,,,,,,,,,,,,,,,,,,
,,,,,,,,,,,,,1,001,2025-01-02_13h09.35.702,IAT(Formal),2021.2.3,Win32,60.24096386,,,,,,,,,,,,,,,,e,1,0.5814,,,,,,我们,e,,,0,13,13,72,1,,,,,,,,,,,,,,,,,,,,,,,,,,,,,,,,,,
,,,,,,,,,,,,,1,001,2025-01-02_13h09.35.702,IAT(Formal),2021.2.3,Win32,60.24096386,,,,,,,,,,,,,,,,i,1,0.4346,,,,,,他们,i,,,0,14,14,56,1,,,,,,,,,,,,,,,,,,,,,,,,,,,,,,,,,,
,,,,,,,,,,,,,1,001,2025-01-02_13h09.35.702,IAT(Formal),2021.2.3,Win32,60.24096386,,,,,,,,,,,,,,,,i,0,0.6947,,,,,,勇敢,e,,,0,15,15,17,1,,,,,,,,,,,,,,,,,,,,,,,,,,,,,,,,,,
,,,,,,,,,,,,,1,001,2025-01-02_13h09.35.702,IAT(Formal),2021.2.3,Win32,60.24096386,,,,,,,,,,,,,,,,e,1,0.5593,,,,,,自己,e,,,0,16,16,3,1,,,,,,,,,,,,,,,,,,,,,,,,,,,,,,,,,,
,,,,,,,,,,,,,1,001,2025-01-02_13h09.35.702,IAT(Formal),2021.2.3,Win32,60.24096386,,,,,,,,,,,,,,,,i,1,0.5436,,,,,,轻率,i,,,0,17,17,48,1,,,,,,,,,,,,,,,,,,,,,,,,,,,,,,,,,,
,,,,,,,,,,,,,1,001,2025-01-02_13h09.35.702,IAT(Formal),2021.2.3,Win32,60.24096386,,,,,,,,,,,,,,,,i,0,0.816,,,,,,俺,e,,,0,18,18,74,1,,,,,,,,,,,,,,,,,,,,,,,,,,,,,,,,,,
,,,,,,,,,,,,,1,001,2025-01-02_13h09.35.702,IAT(Formal),2021.2.3,Win32,60.24096386,,,,,,,,,,,,,,,,e,1,0.5845,,,,,,聪明,e,,,0,19,19,12,1,,,,,,,,,,,,,,,,,,,,,,,,,,,,,,,,,,
,,,,,,,,,,,,,1,001,2025-01-02_13h09.35.702,IAT(Formal),2021.2.3,Win32,60.24096386,,,,,,,,,,,,,,,,e,1,0.4753,,,,,,诚实,e,,,0,20,20,15,1,,,,,,,,,,,,,,,,,,,,,,,,,,,,,,,,,,
,,,,,,,,,,,,,1,001,2025-01-02_13h09.35.702,IAT(Formal),2021.2.3,Win32,60.24096386,,,,,,,,,,,,,,,,i,1,0.6028,,,,,,刻薄,i,,,0,21,21,33,1,,,,,,,,,,,,,,,,,,,,,,,,,,,,,,,,,,
,,,,,,,,,,,,,1,001,2025-01-02_13h09.35.702,IAT(Formal),2021.2.3,Win32,60.24096386,,,,,,,,,,,,,,,,i,1,1.215,,,,,,他的,i,,,0,22,22,77,1,,,,,,,,,,,,,,,,,,,,,,,,,,,,,,,,,,
,,,,,,,,,,,,,1,001,2025-01-02_13h09.35.702,IAT(Formal),2021.2.3,Win32,60.24096386,,,,,,,,,,,,,,,,e,1,0.7544,,,,,,我的,e,,,0,23,23,51,1,,,,,,,,,,,,,,,,,,,,,,,,,,,,,,,,,,
,,,,,,,,,,,,,1,001,2025-01-02_13h09.35.702,IAT(Formal),2021.2.3,Win32,60.24096386,,,,,,,,,,,,,,,,i,1,0.4641,,,,,,暴躁,i,,,0,24,24,44,1,,,,,,,,,,,,,,,,,,,,,,,,,,,,,,,,,,
,,,,,,,,,,,,,1,001,2025-01-02_13h09.35.702,IAT(Formal),2021.2.3,Win32,60.24096386,,,,,,,,,,,,,,,,i,1,0.4767,,,,,,下贱,i,,,0,25,25,49,1,,,,,,,,,,,,,,,,,,,,,,,,,,,,,,,,,,
,,,,,,,,,,,,,1,001,2025-01-02_13h09.35.702,IAT(Formal),2021.2.3,Win32,60.24096386,,,,,,,,,,,,,,,,i,0,0.4532,,,,,,朴实,e,,,0,26,26,24,1,,,,,,,,,,,,,,,,,,,,,,,,,,,,,,,,,,
,,,,,,,,,,,,,1,001,2025-01-02_13h09.35.702,IAT(Formal),2021.2.3,Win32,60.24096386,,,,,,,,,,,,,,,,e,1,0.5821,,,,,,自己,e,,,0,27,27,53,1,,,,,,,,,,,,,,,,,,,,,,,,,,,,,,,,,,
,,,,,,,,,,,,,1,001,2025-01-02_13h09.35.702,IAT(Formal),2021.2.3,Win32,60.24096386,,,,,,,,,,,,,,,,e,1,0.5797,,,,,,乐观,e,,,0,28,28,14,1,,,,,,,,,,,,,,,,,,,,,,,,,,,,,,,,,,
,,,,,,,,,,,,,1,001,2025-01-02_13h09.35.702,IAT(Formal),2021.2.3,Win32,60.24096386,,,,,,,,,,,,,,,,e,1,0.5251,,,,,,活泼,e,,,0,29,29,28,1,,,,,,,,,,,,,,,,,,,,,,,,,,,,,,,,,,
,,,,,,,,,,,,,1,001,2025-01-02_13h09.35.702,IAT(Formal),2021.2.3,Win32,60.24096386,,,,,,,,,,,,,,,,e,1,0.4328,,,,,,我们,e,,,0,30,30,2,1,,,,,,,,,,,,,,,,,,,,,,,,,,,,,,,,,,
,,,,,,,,,,,,,1,001,2025-01-02_13h09.35.702,IAT(Formal),2021.2.3,Win32,60.24096386,,,,,,,,,,,,,,,,e,1,0.5155,,,,,,热情,e,,,0,31,31,27,1,,,,,,,,,,,,,,,,,,,,,,,,,,,,,,,,,,
,,,,,,,,,,,,,1,001,2025-01-02_13h09.35.702,IAT(Formal),2021.2.3,Win32,60.24096386,,,,,,,,,,,,,,,,i,1,0.6889,,,,,,他们,i,,,0,32,32,76,1,,,,,,,,,,,,,,,,,,,,,,,,,,,,,,,,,,
,,,,,,,,,,,,,1,001,2025-01-02_13h09.35.702,IAT(Formal),2021.2.3,Win32,60.24096386,,,,,,,,,,,,,,,,e,1,0.8601,,,,,,稳重,e,,,0,33,33,21,1,,,,,,,,,,,,,,,,,,,,,,,,,,,,,,,,,,
,,,,,,,,,,,,,1,001,2025-01-02_13h09.35.702,IAT(Formal),2021.2.3,Win32,60.24096386,,,,,,,,,,,,,,,,e,1,0.5191,,,,,,认真,e,,,0,34,34,20,1,,,,,,,,,,,,,,,,,,,,,,,,,,,,,,,,,,
,,,,,,,,,,,,,1,001,2025-01-02_13h09.35.702,IAT(Formal),2021.2.3,Win32,60.24096386,,,,,,,,,,,,,,,,e,1,0.5093,,,,,,无私,e,,,0,35,35,22,1,,,,,,,,,,,,,,,,,,,,,,,,,,,,,,,,,,
,,,,,,,,,,,,,1,001,2025-01-02_13h09.35.702,IAT(Formal),2021.2.3,Win32,60.24096386,,,,,,,,,,,,,,,,i,1,0.7869,,,,,,他人,i,,,0,36,36,58,1,,,,,,,,,,,,,,,,,,,,,,,,,,,,,,,,,,
,,,,,,,,,,,,,1,001,2025-01-02_13h09.35.702,IAT(Formal),2021.2.3,Win32,60.24096386,,,,,,,,,,,,,,,,e,1,1.0403,,,,,,公正,e,,,0,37,37,23,1,,,,,,,,,,,,,,,,,,,,,,,,,,,,,,,,,,
,,,,,,,,,,,,,1,001,2025-01-02_13h09.35.702,IAT(Formal),2021.2.3,Win32,60.24096386,,,,,,,,,,,,,,,,i,1,0.5747,,,,,,凶狠,i,,,0,38,38,42,1,,,,,,,,,,,,,,,,,,,,,,,,,,,,,,,,,,
,,,,,,,,,,,,,1,001,2025-01-02_13h09.35.702,IAT(Formal),2021.2.3,Win32,60.24096386,,,,,,,,,,,,,,,,i,1,1.0826,,,,,,他,i,,,0,39,39,55,1,,,,,,,,,,,,,,,,,,,,,,,,,,,,,,,,,,
,,,,,,,,,,,,,1,001,2025-01-02_13h09.35.702,IAT(Formal),2021.2.3,Win32,60.24096386,,,,,,,,,,,,,,,,i,1,0.4509,,,,,,他们,i,,,0,40,40,66,1,,,,,,,,,,,,,,,,,,,,,,,,,,,,,,,,,,
,,,,,,,,,,,,,1,001,2025-01-02_13h09.35.702,IAT(Formal),2021.2.3,Win32,60.24096386,,,,,,,,,,,,,,,,e,1,0.5089,,,,,,我,e,,,0,41,41,60,1,,,,,,,,,,,,,,,,,,,,,,,,,,,,,,,,,,
,,,,,,,,,,,,,1,001,2025-01-02_13h09.35.702,IAT(Formal),2021.2.3,Win32,60.24096386,,,,,,,,,,,,,,,,e,0,0.4996,,,,,,自卑,i,,,0,42,42,36,1,,,,,,,,,,,,,,,,,,,,,,,,,,,,,,,,,,
,,,,,,,,,,,,,1,001,2025-01-02_13h09.35.702,IAT(Formal),2021.2.3,Win32,60.24096386,,,,,,,,,,,,,,,,i,1,0.6167,,,,,,他人,i,,,0,43,43,8,1,,,,,,,,,,,,,,,,,,,,,,,,,,,,,,,,,,
,,,,,,,,,,,,,1,001,2025-01-02_13h09.35.702,IAT(Formal),2021.2.3,Win32,60.24096386,,,,,,,,,,,,,,,,i,1,0.7896,,,,,,他的,i,,,0,44,44,57,1,,,,,,,,,,,,,,,,,,,,,,,,,,,,,,,,,,
,,,,,,,,,,,,,1,001,2025-01-02_13h09.35.702,IAT(Formal),2021.2.3,Win32,60.24096386,,,,,,,,,,,,,,,,e,1,0.7837,,,,,,勤奋,e,,,0,45,45,18,1,,,,,,,,,,,,,,,,,,,,,,,,,,,,,,,,,,
,,,,,,,,,,,,,1,001,2025-01-02_13h09.35.702,IAT(Formal),2021.2.3,Win32,60.24096386,,,,,,,,,,,,,,,,e,1,0.4668,,,,,,我的,e,,,0,46,46,1,1,,,,,,,,,,,,,,,,,,,,,,,,,,,,,,,,,,
,,,,,,,,,,,,,1,001,2025-01-02_13h09.35.702,IAT(Formal),2021.2.3,Win32,60.24096386,,,,,,,,,,,,,,,,i,1,0.6832,,,,,,冒失,i,,,0,47,47,39,1,,,,,,,,,,,,,,,,,,,,,,,,,,,,,,,,,,
,,,,,,,,,,,,,1,001,2025-01-02_13h09.35.702,IAT(Formal),2021.2.3,Win32,60.24096386,,,,,,,,,,,,,,,,,0,,,,,,,自私,i,,,0,48,48,43,1,,,,,,,,,,,,,,,,,,,,,,,,,,,,,,,,,,
,,,,,,,,,,,,,1,001,2025-01-02_13h09.35.702,IAT(Formal),2021.2.3,Win32,60.24096386,,,,,,,,,,,,,,,,e,1,0.5341,,,,,,俺,e,,,0,49,49,64,1,,,,,,,,,,,,,,,,,,,,,,,,,,,,,,,,,,
,,,,,,,,,,,,,1,001,2025-01-02_13h09.35.702,IAT(Formal),2021.2.3,Win32,60.24096386,,,,,,,,,,,,,,,,e,1,0.5245,,,,,,我们,e,,,0,50,50,62,1,,,,,,,,,,,,,,,,,,,,,,,,,,,,,,,,,,
,,,,,,,,,,,,,1,001,2025-01-02_13h09.35.702,IAT(Formal),2021.2.3,Win32,60.24096386,,,,,,,,,,,,,,,,i,1,0.4834,,,,,,卑鄙,i,,,0,51,51,30,1,,,,,,,,,,,,,,,,,,,,,,,,,,,,,,,,,,
,,,,,,,,,,,,,1,001,2025-01-02_13h09.35.702,IAT(Formal),2021.2.3,Win32,60.24096386,,,,,,,,,,,,,,,,e,1,0.5682,,,,,,细腻,e,,,0,52,52,25,1,,,,,,,,,,,,,,,,,,,,,,,,,,,,,,,,,,
,,,,,,,,,,,,,1,001,2025-01-02_13h09.35.702,IAT(Formal),2021.2.3,Win32,60.24096386,,,,,,,,,,,,,,,,e,1,0.4691,,,,,,俺,e,,,0,53,53,4,1,,,,,,,,,,,,,,,,,,,,,,,,,,,,,,,,,,
,,,,,,,,,,,,,1,001,2025-01-02_13h09.35.702,IAT(Formal),2021.2.3,Win32,60.24096386,,,,,,,,,,,,,,,,i,1,0.5338,,,,,,其他,i,,,0,54,54,69,1,,,,,,,,,,,,,,,,,,,,,,,,,,,,,,,,,,
,,,,,,,,,,,,,1,001,2025-01-02_13h09.35.702,IAT(Formal),2021.2.3,Win32,60.24096386,,,,,,,,,,,,,,,,e,1,0.5879,,,,,,自己,e,,,0,55,55,63,1,,,,,,,,,,,,,,,,,,,,,,,,,,,,,,,,,,
,,,,,,,,,,,,,1,001,2025-01-02_13h09.35.702,IAT(Formal),2021.2.3,Win32,60.24096386,,,,,,,,,,,,,,,,i,1,0.7006,,,,,,悲观,i,,,0,56,56,34,1,,,,,,,,,,,,,,,,,,,,,,,,,,,,,,,,,,
,,,,,,,,,,,,,1,001,2025-01-02_13h09.35.702,IAT(Formal),2021.2.3,Win32,60.24096386,,,,,,,,,,,,,,,,i,1,0.5011,,,,,,虚伪,i,,,0,57,57,31,1,,,,,,,,,,,,,,,,,,,,,,,,,,,,,,,,,,
,,,,,,,,,,,,,1,001,2025-01-02_13h09.35.702,IAT(Formal),2021.2.3,Win32,60.24096386,,,,,,,,,,,,,,,,e,1,0.5247,,,,,,崇高,e,,,0,58,58,11,1,,,,,,,,,,,,,,,,,,,,,,,,,,,,,,,,,,
,,,,,,,,,,,,,1,001,2025-01-02_13h09.35.702,IAT(Formal),2021.2.3,Win32,60.24096386,,,,,,,,,,,,,,,,e,1,0.484,,,,,,杰出,e,,,0,59,59,13,1,,,,,,,,,,,,,,,,,,,,,,,,,,,,,,,,,,
,,,,,,,,,,,,,1,001,2025-01-02_13h09.35.702,IAT(Formal),2021.2.3,Win32,60.24096386,,,,,,,,,,,,,,,,e,1,0.5092,,,,,,诚恳,e,,,0,60,60,29,1,,,,,,,,,,,,,,,,,,,,,,,,,,,,,,,,,,
,,,,,,,,,,,,,1,001,2025-01-02_13h09.35.702,IAT(Formal),2021.2.3,Win32,60.24096386,,,,,,,,,,,,,,,,i,1,0.6759,,,,,,固执,i,,,0,61,61,47,1,,,,,,,,,,,,,,,,,,,,,,,,,,,,,,,,,,
,,,,,,,,,,,,,1,001,2025-01-02_13h09.35.702,IAT(Formal),2021.2.3,Win32,60.24096386,,,,,,,,,,,,,,,,e,1,0.5511,,,,,,优秀,e,,,0,62,62,10,1,,,,,,,,,,,,,,,,,,,,,,,,,,,,,,,,,,
,,,,,,,,,,,,,1,001,2025-01-02_13h09.35.702,IAT(Formal),2021.2.3,Win32,60.24096386,,,,,,,,,,,,,,,,i,1,0.5422,,,,,,他的,i,,,0,63,63,7,1,,,,,,,,,,,,,,,,,,,,,,,,,,,,,,,,,,
,,,,,,,,,,,,,1,001,2025-01-02_13h09.35.702,IAT(Formal),2021.2.3,Win32,60.24096386,,,,,,,,,,,,,,,,e,1,0.4863,,,,,,俺,e,,,0,64,64,54,1,,,,,,,,,,,,,,,,,,,,,,,,,,,,,,,,,,
,,,,,,,,,,,,,1,001,2025-01-02_13h09.35.702,IAT(Formal),2021.2.3,Win32,60.24096386,,,,,,,,,,,,,,,,e,1,0.4373,,,,,,我,e,,,0,65,65,0,1,,,,,,,,,,,,,,,,,,,,,,,,,,,,,,,,,,
,,,,,,,,,,,,,1,001,2025-01-02_13h09.35.702,IAT(Formal),2021.2.3,Win32,60.24096386,,,,,,,,,,,,,,,,i,1,0.441,,,,,,傲慢,i,,,0,66,66,37,1,,,,,,,,,,,,,,,,,,,,,,,,,,,,,,,,,,
,,,,,,,,,,,,,1,001,2025-01-02_13h09.35.702,IAT(Formal),2021.2.3,Win32,60.24096386,,,,,,,,,,,,,,,,i,1,0.4553,,,,,,猖狂,i,,,0,67,67,45,1,,,,,,,,,,,,,,,,,,,,,,,,,,,,,,,,,,
,,,,,,,,,,,,,1,001,2025-01-02_13h09.35.702,IAT(Formal),2021.2.3,Win32,60.24096386,,,,,,,,,,,,,,,,i,1,0.4173,,,,,,他们,i,,,0,68,68,6,1,,,,,,,,,,,,,,,,,,,,,,,,,,,,,,,,,,
,,,,,,,,,,,,,1,001,2025-01-02_13h09.35.702,IAT(Formal),2021.2.3,Win32,60.24096386,,,,,,,,,,,,,,,,i,1,0.4843,,,,,,其他,i,,,0,69,69,9,1,,,,,,,,,,,,,,,,,,,,,,,,,,,,,,,,,,
,,,,,,,,,,,,,1,001,2025-01-02_13h09.35.702,IAT(Formal),2021.2.3,Win32,60.24096386,,,,,,,,,,,,,,,,i,1,0.4335,,,,,,他,i,,,0,70,70,65,1,,,,,,,,,,,,,,,,,,,,,,,,,,,,,,,,,,
,,,,,,,,,,,,,1,001,2025-01-02_13h09.35.702,IAT(Formal),2021.2.3,Win32,60.24096386,,,,,,,,,,,,,,,,i,1,0.3848,,,,,,其他,i,,,0,71,71,59,1,,,,,,,,,,,,,,,,,,,,,,,,,,,,,,,,,,
,,,,,,,,,,,,,1,001,2025-01-02_13h09.35.702,IAT(Formal),2021.2.3,Win32,60.24096386,,,,,,,,,,,,,,,,e,1,0.4093,,,,,,自己,e,,,0,72,72,73,1,,,,,,,,,,,,,,,,,,,,,,,,,,,,,,,,,,
,,,,,,,,,,,,,1,001,2025-01-02_13h09.35.702,IAT(Formal),2021.2.3,Win32,60.24096386,,,,,,,,,,,,,,,,i,1,0.472,,,,,,其他,i,,,0,73,73,79,1,,,,,,,,,,,,,,,,,,,,,,,,,,,,,,,,,,
,,,,,,,,,,,,,1,001,2025-01-02_13h09.35.702,IAT(Formal),2021.2.3,Win32,60.24096386,,,,,,,,,,,,,,,,e,1,0.6028,,,,,,机智,e,,,0,74,74,19,1,,,,,,,,,,,,,,,,,,,,,,,,,,,,,,,,,,
,,,,,,,,,,,,,1,001,2025-01-02_13h09.35.702,IAT(Formal),2021.2.3,Win32,60.24096386,,,,,,,,,,,,,,,,e,1,0.5205,,,,,,我,e,,,0,75,75,70,1,,,,,,,,,,,,,,,,,,,,,,,,,,,,,,,,,,
,,,,,,,,,,,,,1,001,2025-01-02_13h09.35.702,IAT(Formal),2021.2.3,Win32,60.24096386,,,,,,,,,,,,,,,,i,1,0.5179,,,,,,他的,i,,,0,76,76,67,1,,,,,,,,,,,,,,,,,,,,,,,,,,,,,,,,,,
,,,,,,,,,,,,,1,001,2025-01-02_13h09.35.702,IAT(Formal),2021.2.3,Win32,60.24096386,,,,,,,,,,,,,,,,i,1,0.5087,,,,,,散漫,i,,,0,77,77,41,1,,,,,,,,,,,,,,,,,,,,,,,,,,,,,,,,,,
,,,,,,,,,,,,,1,001,2025-01-02_13h09.35.702,IAT(Formal),2021.2.3,Win32,60.24096386,,,,,,,,,,,,,,,,e,1,0.534,,,,,,我们,e,,,0,78,78,52,1,,,,,,,,,,,,,,,,,,,,,,,,,,,,,,,,,,
,,,,,,,,,,,,,1,001,2025-01-02_13h09.35.702,IAT(Formal),2021.2.3,Win32,60.24096386,,,,,,,,,,,,,,,,i,1,0.4753,,,,,,他,i,,,0,79,79,75,1,,,,,,,,,,,,,,,,,,,,,,,,,,,,,,,,,,
,,,,,,,,,,,,,1,001,2025-01-02_13h09.35.702,IAT(Formal),2021.2.3,Win32,60.24096386,,,,,,,,,,,,,,,,i,1,0.4564,,,,,,他们,i,,,1,0,80,6,1,,,,,,,,,,,,,,,,,,,,,,,,,,,,,,,,,,
,,,,,,,,,,,,,1,001,2025-01-02_13h09.35.702,IAT(Formal),2021.2.3,Win32,60.24096386,,,,,,,,,,,,,,,,e,1,0.8213,,,,,,冷静,e,,,1,1,81,26,1,,,,,,,,,,,,,,,,,,,,,,,,,,,,,,,,,,
,,,,,,,,,,,,,1,001,2025-01-02_13h09.35.702,IAT(Formal),2021.2.3,Win32,60.24096386,,,,,,,,,,,,,,,,i,1,0.5163,,,,,,悲观,i,,,1,2,82,34,1,,,,,,,,,,,,,,,,,,,,,,,,,,,,,,,,,,
,,,,,,,,,,,,,1,001,2025-01-02_13h09.35.702,IAT(Formal),2021.2.3,Win32,60.24096386,,,,,,,,,,,,,,,,i,1,0.5884,,,,,,轻率,i,,,1,3,83,48,1,,,,,,,,,,,,,,,,,,,,,,,,,,,,,,,,,,
,,,,,,,,,,,,,1,001,2025-01-02_13h09.35.702,IAT(Formal),2021.2.3,Win32,60.24096386,,,,,,,,,,,,,,,,e,1,0.5341,,,,,,稳重,e,,,1,4,84,21,1,,,,,,,,,,,,,,,,,,,,,,,,,,,,,,,,,,
,,,,,,,,,,,,,1,001,2025-01-02_13h09.35.702,IAT(Formal),2021.2.3,Win32,60.24096386,,,,,,,,,,,,,,,,i,1,0.5677,,,,,,他们,i,,,1,5,85,56,1,,,,,,,,,,,,,,,,,,,,,,,,,,,,,,,,,,
,,,,,,,,,,,,,1,001,2025-01-02_13h09.35.702,IAT(Formal),2021.2.3,Win32,60.24096386,,,,,,,,,,,,,,,,i,1,0.47,,,,,,其他,i,,,1,6,86,69,1,,,,,,,,,,,,,,,,,,,,,,,,,,,,,,,,,,
,,,,,,,,,,,,,1,001,2025-01-02_13h09.35.702,IAT(Formal),2021.2.3,Win32,60.24096386,,,,,,,,,,,,,,,,e,1,0.4676,,,,,,我的,e,,,1,7,87,61,1,,,,,,,,,,,,,,,,,,,,,,,,,,,,,,,,,,
,,,,,,,,,,,,,1,001,2025-01-02_13h09.35.702,IAT(Formal),2021.2.3,Win32,60.24096386,,,,,,,,,,,,,,,,i,1,0.469,,,,,,愚蠢,i,,,1,8,88,32,1,,,,,,,,,,,,,,,,,,,,,,,,,,,,,,,,,,
,,,,,,,,,,,,,1,001,2025-01-02_13h09.35.702,IAT(Formal),2021.2.3,Win32,60.24096386,,,,,,,,,,,,,,,,e,1,0.5396,,,,,,我们,e,,,1,9,89,2,1,,,,,,,,,,,,,,,,,,,,,,,,,,,,,,,,,,
,,,,,,,,,,,,,1,001,2025-01-02_13h09.35.702,IAT(Formal),2021.2.3,Win32,60.24096386,,,,,,,,,,,,,,,,i,1,0.4526,,,,,,他,i,,,1,10,90,5,1,,,,,,,,,,,,,,,,,,,,,,,,,,,,,,,,,,
,,,,,,,,,,,,,1,001,2025-01-02_13h09.35.702,IAT(Formal),2021.2.3,Win32,60.24096386,,,,,,,,,,,,,,,,e,1,0.4177,,,,,,我,e,,,1,11,91,60,1,,,,,,,,,,,,,,,,,,,,,,,,,,,,,,,,,,
,,,,,,,,,,,,,1,001,2025-01-02_13h09.35.702,IAT(Formal),2021.2.3,Win32,60.24096386,,,,,,,,,,,,,,,,e,1,0.5586,,,,,,朴实,e,,,1,12,92,24,1,,,,,,,,,,,,,,,,,,,,,,,,,,,,,,,,,,
,,,,,,,,,,,,,1,001,2025-01-02_13h09.35.702,IAT(Formal),2021.2.3,Win32,60.24096386,,,,,,,,,,,,,,,,e,0,0.3702,,,,,,他,i,,,1,13,93,55,1,,,,,,,,,,,,,,,,,,,,,,,,,,,,,,,,,,
,,,,,,,,,,,,,1,001,2025-01-02_13h09.35.702,IAT(Formal),2021.2.3,Win32,60.24096386,,,,,,,,,,,,,,,,i,0,0.4935,,,,,,热情,e,,,1,14,94,27,1,,,,,,,,,,,,,,,,,,,,,,,,,,,,,,,,,,
,,,,,,,,,,,,,1,001,2025-01-02_13h09.35.702,IAT(Formal),2021.2.3,Win32,60.24096386,,,,,,,,,,,,,,,,e,1,0.4937,,,,,,勇敢,e,,,1,15,95,17,1,,,,,,,,,,,,,,,,,,,,,,,,,,,,,,,,,,
,,,,,,,,,,,,,1,001,2025-01-02_13h09.35.702,IAT(Formal),2021.2.3,Win32,60.24096386,,,,,,,,,,,,,,,,e,1,0.4843,,,,,,自己,e,,,1,16,96,53,1,,,,,,,,,,,,,,,,,,,,,,,,,,,,,,,,,,
,,,,,,,,,,,,,1,001,2025-01-02_13h09.35.702,IAT(Formal),2021.2.3,Win32,60.24096386,,,,,,,,,,,,,,,,i,1,0.4746,,,,,,猖狂,i,,,1,17,97,45,1,,,,,,,,,,,,,,,,,,,,,,,,,,,,,,,,,,
,,,,,,,,,,,,,1,001,2025-01-02_13h09.35.702,IAT(Formal),2021.2.3,Win32,60.24096386,,,,,,,,,,,,,,,,i,1,0.5165,,,,,,他的,i,,,1,18,98,67,1,,,,,,,,,,,,,,,,,,,,,,,,,,,,,,,,,,
,,,,,,,,,,,,,1,001,2025-01-02_13h09.35.702,IAT(Formal),2021.2.3,Win32,60.24096386,,,,,,,,,,,,,,,,i,0,0.4339,,,,,,俺,e,,,1,19,99,4,1,,,,,,,,,,,,,,,,,,,,,,,,,,,,,,,,,,
,,,,,,,,,,,,,1,001,2025-01-02_13h09.35.702,IAT(Formal),2021.2.3,Win32,60.24096386,,,,,,,,,,,,,,,,e,1,0.5217,,,,,,认真,e,,,1,20,100,20,1,,,,,,,,,,,,,,,,,,,,,,,,,,,,,,,,,,
,,,,,,,,,,,,,1,001,2025-01-02_13h09.35.702,IAT(Formal),2021.2.3,Win32,60.24096386,,,,,,,,,,,,,,,,i,1,0.5263,,,,,,卑鄙,i,,,1,21,101,30,1,,,,,,,,,,,,,,,,,,,,,,,,,,,,,,,,,,
,,,,,,,,,,,,,1,001,2025-01-02_13h09.35.702,IAT(Formal),2021.2.3,Win32,60.24096386,,,,,,,,,,,,,,,,e,1,0.554,,,,,,我们,e,,,1,22,102,52,1,,,,,,,,,,,,,,,,,,,,,,,,,,,,,,,,,,
,,,,,,,,,,,,,1,001,2025-01-02_13h09.35.702,IAT(Formal),2021.2.3,Win32,60.24096386,,,,,,,,,,,,,,,,e,1,0.5392,,,,,,细腻,e,,,1,23,103,25,1,,,,,,,,,,,,,,,,,,,,,,,,,,,,,,,,,,
,,,,,,,,,,,,,1,001,2025-01-02_13h09.35.702,IAT(Formal),2021.2.3,Win32,60.24096386,,,,,,,,,,,,,,,,e,1,0.5055,,,,,,活泼,e,,,1,24,104,28,1,,,,,,,,,,,,,,,,,,,,,,,,,,,,,,,,,,
,,,,,,,,,,,,,1,001,2025-01-02_13h09.35.702,IAT(Formal),2021.2.3,Win32,60.24096386,,,,,,,,,,,,,,,,e,1,0.5831,,,,,,俺,e,,,1,25,105,74,1,,,,,,,,,,,,,,,,,,,,,,,,,,,,,,,,,,
,,,,,,,,,,,,,1,001,2025-01-02_13h09.35.702,IAT(Formal),2021.2.3,Win32,60.24096386,,,,,,,,,,,,,,,,i,1,0.539,,,,,,自卑,i,,,1,26,106,36,1,,,,,,,,,,,,,,,,,,,,,,,,,,,,,,,,,,
,,,,,,,,,,,,,1,001,2025-01-02_13h09.35.702,IAT(Formal),2021.2.3,Win32,60.24096386,,,,,,,,,,,,,,,,i,1,0.5868,,,,,,虚伪,i,,,1,27,107,31,1,,,,,,,,,,,,,,,,,,,,,,,,,,,,,,,,,,
,,,,,,,,,,,,,1,001,2025-01-02_13h09.35.702,IAT(Formal),2021.2.3,Win32,60.24096386,,,,,,,,,,,,,,,,i,1,0.6435,,,,,,执拗,i,,,1,28,108,40,1,,,,,,,,,,,,,,,,,,,,,,,,,,,,,,,,,,
,,,,,,,,,,,,,1,001,2025-01-02_13h09.35.702,IAT(Formal),2021.2.3,Win32,60.24096386,,,,,,,,,,,,,,,,e,1,0.4681,,,,,,我的,e,,,1,29,109,51,1,,,,,,,,,,,,,,,,,,,,,,,,,,,,,,,,,,
,,,,,,,,,,,,,1,001,2025-01-02_13h09.35.702,IAT(Formal),2021.2.3,Win32,60.24096386,,,,,,,,,,,,,,,,e,1,0.3913,,,,,,我们,e,,,1,30,110,62,1,,,,,,,,,,,,,,,,,,,,,,,,,,,,,,,,,,
,,,,,,,,,,,,,1,001,2025-01-02_13h09.35.702,IAT(Formal),2021.2.3,Win32,60.24096386,,,,,,,,,,,,,,,,e,1,0.3412,,,,,,自己,e,,,1,31,111,73,1,,,,,,,,,,,,,,,,,,,,,,,,,,,,,,,,,,
,,,,,,,,,,,,,1,001,2025-01-02_13h09.35.702,IAT(Formal),2021.2.3,Win32,60.24096386,,,,,,,,,,,,,,,,e,1,0.3622,,,,,,我的,e,,,1,32,112,1,1,,,,,,,,,,,,,,,,,,,,,,,,,,,,,,,,,,
,,,,,,,,,,,,,1,001,2025-01-02_13h09.35.702,IAT(Formal),2021.2.3,Win32,60.24096386,,,,,,,,,,,,,,,,i,1,0.5009,,,,,,鲁莽,i,,,1,33,113,38,1,,,,,,,,,,,,,,,,,,,,,,,,,,,,,,,,,,
,,,,,,,,,,,,,1,001,2025-01-02_13h09.35.702,IAT(Formal),2021.2.3,Win32,60.24096386,,,,,,,,,,,,,,,,i,1,0.4693,,,,,,冒失,i,,,1,34,114,39,1,,,,,,,,,,,,,,,,,,,,,,,,,,,,,,,,,,
,,,,,,,,,,,,,1,001,2025-01-02_13h09.35.702,IAT(Formal),2021.2.3,Win32,60.24096386,,,,,,,,,,,,,,,,e,1,0.5513,,,,,,我,e,,,1,35,115,70,1,,,,,,,,,,,,,,,,,,,,,,,,,,,,,,,,,,
,,,,,,,,,,,,,1,001,2025-01-02_13h09.35.702,IAT(Formal),2021.2.3,Win32,60.24096386,,,,,,,,,,,,,,,,i,1,0.5715,,,,,,他人,i,,,1,36,116,78,1,,,,,,,,,,,,,,,,,,,,,,,,,,,,,,,,,,
,,,,,,,,,,,,,1,001,2025-01-02_13h09.35.702,IAT(Formal),2021.2.3,Win32,60.24096386,,,,,,,,,,,,,,,,i,1,0.4077,,,,,,凶狠,i,,,1,37,117,42,1,,,,,,,,,,,,,,,,,,,,,,,,,,,,,,,,,,
,,,,,,,,,,,,,1,001,2025-01-02_13h09.35.702,IAT(Formal),2021.2.3,Win32,60.24096386,,,,,,,,,,,,,,,,i,1,0.4675,,,,,,野蛮,i,,,1,38,118,46,1,,,,,,,,,,,,,,,,,,,,,,,,,,,,,,,,,,
,,,,,,,,,,,,,1,001,2025-01-02_13h09.35.702,IAT(Formal),2021.2.3,Win32,60.24096386,,,,,,,,,,,,,,,,e,1,0.4538,,,,,,我们,e,,,1,39,119,72,1,,,,,,,,,,,,,,,,,,,,,,,,,,,,,,,,,,
,,,,,,,,,,,,,1,001,2025-01-02_13h09.35.702,IAT(Formal),2021.2.3,Win32,60.24096386,,,,,,,,,,,,,,,,i,1,0.5929,,,,,,其他,i,,,1,40,120,9,1,,,,,,,,,,,,,,,,,,,,,,,,,,,,,,,,,,
,,,,,,,,,,,,,1,001,2025-01-02_13h09.35.702,IAT(Formal),2021.2.3,Win32,60.24096386,,,,,,,,,,,,,,,,e,1,0.4773,,,,,,我,e,,,1,41,121,50,1,,,,,,,,,,,,,,,,,,,,,,,,,,,,,,,,,,
,,,,,,,,,,,,,1,001,2025-01-02_13h09.35.702,IAT(Formal),2021.2.3,Win32,60.24096386,,,,,,,,,,,,,,,,i,1,0.6218,,,,,,他们,i,,,1,42,122,66,1,,,,,,,,,,,,,,,,,,,,,,,,,,,,,,,,,,
,,,,,,,,,,,,,1,001,2025-01-02_13h09.35.702,IAT(Formal),2021.2.3,Win32,60.24096386,,,,,,,,,,,,,,,,i,1,0.6175,,,,,,固执,i,,,1,43,123,47,1,,,,,,,,,,,,,,,,,,,,,,,,,,,,,,,,,,
,,,,,,,,,,,,,1,001,2025-01-02_13h09.35.702,IAT(Formal),2021.2.3,Win32,60.24096386,,,,,,,,,,,,,,,,e,0,0.5112,,,,,,他们,i,,,1,44,124,76,1,,,,,,,,,,,,,,,,,,,,,,,,,,,,,,,,,,
,,,,,,,,,,,,,1,001,2025-01-02_13h09.35.702,IAT(Formal),2021.2.3,Win32,60.24096386,,,,,,,,,,,,,,,,i,1,0.5252,,,,,,下贱,i,,,1,45,125,49,1,,,,,,,,,,,,,,,,,,,,,,,,,,,,,,,,,,
,,,,,,,,,,,,,1,001,2025-01-02_13h09.35.702,IAT(Formal),2021.2.3,Win32,60.24096386,,,,,,,,,,,,,,,,i,1,0.7171,,,,,,他人,i,,,1,46,126,68,1,,,,,,,,,,,,,,,,,,,,,,,,,,,,,,,,,,
,,,,,,,,,,,,,1,001,2025-01-02_13h09.35.702,IAT(Formal),2021.2.3,Win32,60.24096386,,,,,,,,,,,,,,,,e,1,0.5213,,,,,,杰出,e,,,1,47,127,13,1,,,,,,,,,,,,,,,,,,,,,,,,,,,,,,,,,,
,,,,,,,,,,,,,1,001,2025-01-02_13h09.35.702,IAT(Formal),2021.2.3,Win32,60.24096386,,,,,,,,,,,,,,,,e,1,0.8933,,,,,,崇高,e,,,1,48,128,11,1,,,,,,,,,,,,,,,,,,,,,,,,,,,,,,,,,,
,,,,,,,,,,,,,1,001,2025-01-02_13h09.35.702,IAT(Formal),2021.2.3,Win32,60.24096386,,,,,,,,,,,,,,,,e,1,0.5279,,,,,,机智,e,,,1,49,129,19,1,,,,,,,,,,,,,,,,,,,,,,,,,,,,,,,,,,
,,,,,,,,,,,,,1,001,2025-01-02_13h09.35.702,IAT(Formal),2021.2.3,Win32,60.24096386,,,,,,,,,,,,,,,,i,1,0.5237,,,,,,暴躁,i,,,1,50,130,44,1,,,,,,,,,,,,,,,,,,,,,,,,,,,,,,,,,,
,,,,,,,,,,,,,1,001,2025-01-02_13h09.35.702,IAT(Formal),2021.2.3,Win32,60.24096386,,,,,,,,,,,,,,,,e,1,0.5922,,,,,,俺,e,,,1,51,131,64,1,,,,,,,,,,,,,,,,,,,,,,,,,,,,,,,,,,
,,,,,,,,,,,,,1,001,2025-01-02_13h09.35.702,IAT(Formal),2021.2.3,Win32,60.24096386,,,,,,,,,,,,,,,,e,1,0.6009,,,,,,无私,e,,,1,52,132,22,1,,,,,,,,,,,,,,,,,,,,,,,,,,,,,,,,,,
,,,,,,,,,,,,,1,001,2025-01-02_13h09.35.702,IAT(Formal),2021.2.3,Win32,60.24096386,,,,,,,,,,,,,,,,e,1,0.451,,,,,,乐观,e,,,1,53,133,14,1,,,,,,,,,,,,,,,,,,,,,,,,,,,,,,,,,,
,,,,,,,,,,,,,1,001,2025-01-02_13h09.35.702,IAT(Formal),2021.2.3,Win32,60.24096386,,,,,,,,,,,,,,,,e,1,0.4184,,,,,,聪明,e,,,1,54,134,12,1,,,,,,,,,,,,,,,,,,,,,,,,,,,,,,,,,,
,,,,,,,,,,,,,1,001,2025-01-02_13h09.35.702,IAT(Formal),2021.2.3,Win32,60.24096386,,,,,,,,,,,,,,,,i,1,0.6067,,,,,,他,i,,,1,55,135,65,1,,,,,,,,,,,,,,,,,,,,,,,,,,,,,,,,,,
,,,,,,,,,,,,,1,001,2025-01-02_13h09.35.702,IAT(Formal),2021.2.3,Win32,60.24096386,,,,,,,,,,,,,,,,i,1,0.6868,,,,,,傲慢,i,,,1,56,136,37,1,,,,,,,,,,,,,,,,,,,,,,,,,,,,,,,,,,
,,,,,,,,,,,,,1,001,2025-01-02_13h09.35.702,IAT(Formal),2021.2.3,Win32,60.24096386,,,,,,,,,,,,,,,,i,1,0.4513,,,,,,他人,i,,,1,57,137,58,1,,,,,,,,,,,,,,,,,,,,,,,,,,,,,,,,,,
,,,,,,,,,,,,,1,001,2025-01-02_13h09.35.702,IAT(Formal),2021.2.3,Win32,60.24096386,,,,,,,,,,,,,,,,i,1,0.4444,,,,,,他人,i,,,1,58,138,8,1,,,,,,,,,,,,,,,,,,,,,,,,,,,,,,,,,,
,,,,,,,,,,,,,1,001,2025-01-02_13h09.35.702,IAT(Formal),2021.2.3,Win32,60.24096386,,,,,,,,,,,,,,,,e,1,0.5357,,,,,,勤奋,e,,,1,59,139,18,1,,,,,,,,,,,,,,,,,,,,,,,,,,,,,,,,,,
,,,,,,,,,,,,,1,001,2025-01-02_13h09.35.702,IAT(Formal),2021.2.3,Win32,60.24096386,,,,,,,,,,,,,,,,e,1,0.7086,,,,,,公正,e,,,1,60,140,23,1,,,,,,,,,,,,,,,,,,,,,,,,,,,,,,,,,,
,,,,,,,,,,,,,1,001,2025-01-02_13h09.35.702,IAT(Formal),2021.2.3,Win32,60.24096386,,,,,,,,,,,,,,,,i,1,0.9012,,,,,,他的,i,,,1,61,141,57,1,,,,,,,,,,,,,,,,,,,,,,,,,,,,,,,,,,
,,,,,,,,,,,,,1,001,2025-01-02_13h09.35.702,IAT(Formal),2021.2.3,Win32,60.24096386,,,,,,,,,,,,,,,,e,1,0.5208,,,,,,诚恳,e,,,1,62,142,29,1,,,,,,,,,,,,,,,,,,,,,,,,,,,,,,,,,,
,,,,,,,,,,,,,1,001,2025-01-02_13h09.35.702,IAT(Formal),2021.2.3,Win32,60.24096386,,,,,,,,,,,,,,,,e,1,0.6339,,,,,,自己,e,,,1,63,143,3,1,,,,,,,,,,,,,,,,,,,,,,,,,,,,,,,,,,
,,,,,,,,,,,,,1,001,2025-01-02_13h09.35.702,IAT(Formal),2021.2.3,Win32,60.24096386,,,,,,,,,,,,,,,,i,1,0.6219,,,,,,散漫,i,,,1,64,144,41,1,,,,,,,,,,,,,,,,,,,,,,,,,,,,,,,,,,
,,,,,,,,,,,,,1,001,2025-01-02_13h09.35.702,IAT(Formal),2021.2.3,Win32,60.24096386,,,,,,,,,,,,,,,,e,1,0.5438,,,,,,诚实,e,,,1,65,145,15,1,,,,,,,,,,,,,,,,,,,,,,,,,,,,,,,,,,
,,,,,,,,,,,,,1,001,2025-01-02_13h09.35.702,IAT(Formal),2021.2.3,Win32,60.24096386,,,,,,,,,,,,,,,,i,1,0.5855,,,,,,刻薄,i,,,1,66,146,33,1,,,,,,,,,,,,,,,,,,,,,,,,,,,,,,,,,,
,,,,,,,,,,,,,1,001,2025-01-02_13h09.35.702,IAT(Formal),2021.2.3,Win32,60.24096386,,,,,,,,,,,,,,,,i,1,0.5493,,,,,,他的,i,,,1,67,147,7,1,,,,,,,,,,,,,,,,,,,,,,,,,,,,,,,,,,
,,,,,,,,,,,,,1,001,2025-01-02_13h09.35.702,IAT(Formal),2021.2.3,Win32,60.24096386,,,,,,,,,,,,,,,,e,1,0.6498,,,,,,自己,e,,,1,68,148,63,1,,,,,,,,,,,,,,,,,,,,,,,,,,,,,,,,,,
,,,,,,,,,,,,,1,001,2025-01-02_13h09.35.702,IAT(Formal),2021.2.3,Win32,60.24096386,,,,,,,,,,,,,,,,i,1,0.7514,,,,,,其他,i,,,1,69,149,59,1,,,,,,,,,,,,,,,,,,,,,,,,,,,,,,,,,,
,,,,,,,,,,,,,1,001,2025-01-02_13h09.35.702,IAT(Formal),2021.2.3,Win32,60.24096386,,,,,,,,,,,,,,,,i,1,0.9441,,,,,,消极,i,,,1,70,150,35,1,,,,,,,,,,,,,,,,,,,,,,,,,,,,,,,,,,
,,,,,,,,,,,,,1,001,2025-01-02_13h09.35.702,IAT(Formal),2021.2.3,Win32,60.24096386,,,,,,,,,,,,,,,,i,1,0.5681,,,,,,其他,i,,,1,71,151,79,1,,,,,,,,,,,,,,,,,,,,,,,,,,,,,,,,,,
,,,,,,,,,,,,,1,001,2025-01-02_13h09.35.702,IAT(Formal),2021.2.3,Win32,60.24096386,,,,,,,,,,,,,,,,e,1,0.5698,,,,,,俺,e,,,1,72,152,54,1,,,,,,,,,,,,,,,,,,,,,,,,,,,,,,,,,,
,,,,,,,,,,,,,1,001,2025-01-02_13h09.35.702,IAT(Formal),2021.2.3,Win32,60.24096386,,,,,,,,,,,,,,,,e,1,0.6001,,,,,,优秀,e,,,1,73,153,10,1,,,,,,,,,,,,,,,,,,,,,,,,,,,,,,,,,,
,,,,,,,,,,,,,1,001,2025-01-02_13h09.35.702,IAT(Formal),2021.2.3,Win32,60.24096386,,,,,,,,,,,,,,,,e,1,0.4396,,,,,,我的,e,,,1,74,154,71,1,,,,,,,,,,,,,,,,,,,,,,,,,,,,,,,,,,
,,,,,,,,,,,,,1,001,2025-01-02_13h09.35.702,IAT(Formal),2021.2.3,Win32,60.24096386,,,,,,,,,,,,,,,,i,1,0.7176,,,,,,他,i,,,1,75,155,75,1,,,,,,,,,,,,,,,,,,,,,,,,,,,,,,,,,,
,,,,,,,,,,,,,1,001,2025-01-02_13h09.35.702,IAT(Formal),2021.2.3,Win32,60.24096386,,,,,,,,,,,,,,,,e,1,0.4501,,,,,,我,e,,,1,76,156,0,1,,,,,,,,,,,,,,,,,,,,,,,,,,,,,,,,,,
,,,,,,,,,,,,,1,001,2025-01-02_13h09.35.702,IAT(Formal),2021.2.3,Win32,60.24096386,,,,,,,,,,,,,,,,i,1,0.4447,,,,,,他的,i,,,1,77,157,77,1,,,,,,,,,,,,,,,,,,,,,,,,,,,,,,,,,,
,,,,,,,,,,,,,1,001,2025-01-02_13h09.35.702,IAT(Formal),2021.2.3,Win32,60.24096386,,,,,,,,,,,,,,,,e,1,0.5169,,,,,,正直,e,,,1,78,158,16,1,,,,,,,,,,,,,,,,,,,,,,,,,,,,,,,,,,
,,,,,,,,,,,,,1,001,2025-01-02_13h09.35.702,IAT(Formal),2021.2.3,Win32,60.24096386,,,,,,,,,,,,,,,,e,0,0.5843,,,,,,自私,i,,,1,79,159,43,1,,,,,,,,,,,,,,,,,,,,,,,,,,,,,,,,,,
,,,,,,,,,,,我们,i,1,001,2025-01-02_13h09.35.702,IAT(Formal),2021.2.3,Win32,60.24096386,,,,,,,,,,,,,,,,,,,,,,,,,,,,,,,,,space,56.1258,i,1,0.627,0,0,0,2,1,,,,,,,,,,,,,,,,,,,,,,,,
,,,,,,,,,,,他,e,1,001,2025-01-02_13h09.35.702,IAT(Formal),2021.2.3,Win32,60.24096386,,,,,,,,,,,,,,,,,,,,,,,,,,,,,,,,,,,e,1,1.1443,0,1,1,5,1,,,,,,,,,,,,,,,,,,,,,,,,
,,,,,,,,,,,他人,e,1,001,2025-01-02_13h09.35.702,IAT(Formal),2021.2.3,Win32,60.24096386,,,,,,,,,,,,,,,,,,,,,,,,,,,,,,,,,,,e,1,0.4003,0,2,2,8,1,,,,,,,,,,,,,,,,,,,,,,,,
,,,,,,,,,,,他们,e,1,001,2025-01-02_13h09.35.702,IAT(Formal),2021.2.3,Win32,60.24096386,,,,,,,,,,,,,,,,,,,,,,,,,,,,,,,,,,,e,1,0.3873,0,3,3,6,1,,,,,,,,,,,,,,,,,,,,,,,,
,,,,,,,,,,,我的,i,1,001,2025-01-02_13h09.35.702,IAT(Formal),2021.2.3,Win32,60.24096386,,,,,,,,,,,,,,,,,,,,,,,,,,,,,,,,,,,i,1,0.6111,0,4,4,1,1,,,,,,,,,,,,,,,,,,,,,,,,
,,,,,,,,,,,俺,i,1,001,2025-01-02_13h09.35.702,IAT(Formal),2021.2.3,Win32,60.24096386,,,,,,,,,,,,,,,,,,,,,,,,,,,,,,,,,,,e,0,0.5178,0,5,5,4,1,,,,,,,,,,,,,,,,,,,,,,,,
,,,,,,,,,,,其他,e,1,001,2025-01-02_13h09.35.702,IAT(Formal),2021.2.3,Win32,60.24096386,,,,,,,,,,,,,,,,,,,,,,,,,,,,,,,,,,,i,0,0.4345,0,6,6,9,1,,,,,,,,,,,,,,,,,,,,,,,,
,,,,,,,,,,,我,i,1,001,2025-01-02_13h09.35.702,IAT(Formal),2021.2.3,Win32,60.24096386,,,,,,,,,,,,,,,,,,,,,,,,,,,,,,,,,,,,0,,0,7,7,0,1,,,,,,,,,,,,,,,,,,,,,,,,
,,,,,,,,,,,他的,e,1,001,2025-01-02_13h09.35.702,IAT(Formal),2021.2.3,Win32,60.24096386,,,,,,,,,,,,,,,,,,,,,,,,,,,,,,,,,,,e,1,0.6365,0,8,8,7,1,,,,,,,,,,,,,,,,,,,,,,,,
,,,,,,,,,,,自己,i,1,001,2025-01-02_13h09.35.702,IAT(Formal),2021.2.3,Win32,60.24096386,,,,,,,,,,,,,,,,,,,,,,,,,,,,,,,,,,,i,1,0.4681,0,9,9,3,1,,,,,,,,,,,,,,,,,,,,,,,,
,,,,,,,,,,,,,1,001,2025-01-02_13h09.35.702,IAT(Formal),2021.2.3,Win32,60.24096386,,,,,,,,,,,,,,,,,,,,,,,,,,,,,,,,,,,,,,,,,,,space,19.8093,e,1,0.9038,0,0,0,29,1,诚恳,e,,,,,,,,,,,,
,,,,,,,,,,,,,1,001,2025-01-02_13h09.35.702,IAT(Formal),2021.2.3,Win32,60.24096386,,,,,,,,,,,,,,,,,,,,,,,,,,,,,,,,,,,,,,,,,,,,,i,0,0.6405,0,1,1,6,1,他们,e,,,,,,,,,,,,
,,,,,,,,,,,,,1,001,2025-01-02_13h09.35.702,IAT(Formal),2021.2.3,Win32,60.24096386,,,,,,,,,,,,,,,,,,,,,,,,,,,,,,,,,,,,,,,,,,,,,e,0,1.1348,0,2,2,0,1,我,i,,,,,,,,,,,,
,,,,,,,,,,,,,1,001,2025-01-02_13h09.35.702,IAT(Formal),2021.2.3,Win32,60.24096386,,,,,,,,,,,,,,,,,,,,,,,,,,,,,,,,,,,,,,,,,,,,,i,1,0.5843,0,3,3,61,1,我的,i,,,,,,,,,,,,
,,,,,,,,,,,,,1,001,2025-01-02_13h09.35.702,IAT(Formal),2021.2.3,Win32,60.24096386,,,,,,,,,,,,,,,,,,,,,,,,,,,,,,,,,,,,,,,,,,,,,i,1,0.6056,0,4,4,62,1,我们,i,,,,,,,,,,,,
,,,,,,,,,,,,,1,001,2025-01-02_13h09.35.702,IAT(Formal),2021.2.3,Win32,60.24096386,,,,,,,,,,,,,,,,,,,,,,,,,,,,,,,,,,,,,,,,,,,,,e,0,0.7514,0,5,5,31,1,虚伪,i,,,,,,,,,,,,
,,,,,,,,,,,,,1,001,2025-01-02_13h09.35.702,IAT(Formal),2021.2.3,Win32,60.24096386,,,,,,,,,,,,,,,,,,,,,,,,,,,,,,,,,,,,,,,,,,,,,i,1,0.6721,0,6,6,74,1,俺,i,,,,,,,,,,,,
,,,,,,,,,,,,,1,001,2025-01-02_13h09.35.702,IAT(Formal),2021.2.3,Win32,60.24096386,,,,,,,,,,,,,,,,,,,,,,,,,,,,,,,,,,,,,,,,,,,,,i,1,0.6003,0,7,7,1,1,我的,i,,,,,,,,,,,,
,,,,,,,,,,,,,1,001,2025-01-02_13h09.35.702,IAT(Formal),2021.2.3,Win32,60.24096386,,,,,,,,,,,,,,,,,,,,,,,,,,,,,,,,,,,,,,,,,,,,,i,0,0.6228,0,8,8,58,1,他人,e,,,,,,,,,,,,
,,,,,,,,,,,,,1,001,2025-01-02_13h09.35.702,IAT(Formal),2021.2.3,Win32,60.24096386,,,,,,,,,,,,,,,,,,,,,,,,,,,,,,,,,,,,,,,,,,,,,i,0,0.9993,0,9,9,23,1,公正,e,,,,,,,,,,,,
,,,,,,,,,,,,,1,001,2025-01-02_13h09.35.702,IAT(Formal),2021.2.3,Win32,60.24096386,,,,,,,,,,,,,,,,,,,,,,,,,,,,,,,,,,,,,,,,,,,,,e,1,0.6675,0,10,10,26,1,冷静,e,,,,,,,,,,,,
,,,,,,,,,,,,,1,001,2025-01-02_13h09.35.702,IAT(Formal),2021.2.3,Win32,60.24096386,,,,,,,,,,,,,,,,,,,,,,,,,,,,,,,,,,,,,,,,,,,,,i,1,0.5847,0,11,11,54,1,俺,i,,,,,,,,,,,,
,,,,,,,,,,,,,1,001,2025-01-02_13h09.35.702,IAT(Formal),2021.2.3,Win32,60.24096386,,,,,,,,,,,,,,,,,,,,,,,,,,,,,,,,,,,,,,,,,,,,,i,1,0.5019,0,12,12,64,1,俺,i,,,,,,,,,,,,
,,,,,,,,,,,,,1,001,2025-01-02_13h09.35.702,IAT(Formal),2021.2.3,Win32,60.24096386,,,,,,,,,,,,,,,,,,,,,,,,,,,,,,,,,,,,,,,,,,,,,i,1,0.4838,0,13,13,70,1,我,i,,,,,,,,,,,,
,,,,,,,,,,,,,1,001,2025-01-02_13h09.35.702,IAT(Formal),2021.2.3,Win32,60.24096386,,,,,,,,,,,,,,,,,,,,,,,,,,,,,,,,,,,,,,,,,,,,,e,0,0.7013,0,14,14,37,1,傲慢,i,,,,,,,,,,,,
,,,,,,,,,,,,,1,001,2025-01-02_13h09.35.702,IAT(Formal),2021.2.3,Win32,60.24096386,,,,,,,,,,,,,,,,,,,,,,,,,,,,,,,,,,,,,,,,,,,,,i,1,0.8175,0,15,15,38,1,鲁莽,i,,,,,,,,,,,,
,,,,,,,,,,,,,1,001,2025-01-02_13h09.35.702,IAT(Formal),2021.2.3,Win32,60.24096386,,,,,,,,,,,,,,,,,,,,,,,,,,,,,,,,,,,,,,,,,,,,,e,1,0.6838,0,16,16,75,1,他,e,,,,,,,,,,,,
,,,,,,,,,,,,,1,001,2025-01-02_13h09.35.702,IAT(Formal),2021.2.3,Win32,60.24096386,,,,,,,,,,,,,,,,,,,,,,,,,,,,,,,,,,,,,,,,,,,,,i,1,0.8177,0,17,17,30,1,卑鄙,i,,,,,,,,,,,,
,,,,,,,,,,,,,1,001,2025-01-02_13h09.35.702,IAT(Formal),2021.2.3,Win32,60.24096386,,,,,,,,,,,,,,,,,,,,,,,,,,,,,,,,,,,,,,,,,,,,,i,1,0.5861,0,18,18,72,1,我们,i,,,,,,,,,,,,
,,,,,,,,,,,,,1,001,2025-01-02_13h09.35.702,IAT(Formal),2021.2.3,Win32,60.24096386,,,,,,,,,,,,,,,,,,,,,,,,,,,,,,,,,,,,,,,,,,,,,i,0,0.4271,0,19,19,20,1,认真,e,,,,,,,,,,,,
,,,,,,,,,,,,,1,001,2025-01-02_13h09.35.702,IAT(Formal),2021.2.3,Win32,60.24096386,,,,,,,,,,,,,,,,,,,,,,,,,,,,,,,,,,,,,,,,,,,,,i,1,0.7353,0,20,20,36,1,自卑,i,,,,,,,,,,,,
,,,,,,,,,,,,,1,001,2025-01-02_13h09.35.702,IAT(Formal),2021.2.3,Win32,60.24096386,,,,,,,,,,,,,,,,,,,,,,,,,,,,,,,,,,,,,,,,,,,,,i,0,0.6508,0,21,21,11,1,崇高,e,,,,,,,,,,,,
,,,,,,,,,,,,,1,001,2025-01-02_13h09.35.702,IAT(Formal),2021.2.3,Win32,60.24096386,,,,,,,,,,,,,,,,,,,,,,,,,,,,,,,,,,,,,,,,,,,,,e,1,0.9002,0,22,22,25,1,细腻,e,,,,,,,,,,,,
,,,,,,,,,,,,,1,001,2025-01-02_13h09.35.702,IAT(Formal),2021.2.3,Win32,60.24096386,,,,,,,,,,,,,,,,,,,,,,,,,,,,,,,,,,,,,,,,,,,,,e,1,1.106,0,23,23,68,1,他人,e,,,,,,,,,,,,
,,,,,,,,,,,,,1,001,2025-01-02_13h09.35.702,IAT(Formal),2021.2.3,Win32,60.24096386,,,,,,,,,,,,,,,,,,,,,,,,,,,,,,,,,,,,,,,,,,,,,i,1,0.5506,0,24,24,35,1,消极,i,,,,,,,,,,,,
,,,,,,,,,,,,,1,001,2025-01-02_13h09.35.702,IAT(Formal),2021.2.3,Win32,60.24096386,,,,,,,,,,,,,,,,,,,,,,,,,,,,,,,,,,,,,,,,,,,,,i,1,0.4844,0,25,25,32,1,愚蠢,i,,,,,,,,,,,,
,,,,,,,,,,,,,1,001,2025-01-02_13h09.35.702,IAT(Formal),2021.2.3,Win32,60.24096386,,,,,,,,,,,,,,,,,,,,,,,,,,,,,,,,,,,,,,,,,,,,,i,0,0.3722,0,26,26,77,1,他的,e,,,,,,,,,,,,
,,,,,,,,,,,,,1,001,2025-01-02_13h09.35.702,IAT(Formal),2021.2.3,Win32,60.24096386,,,,,,,,,,,,,,,,,,,,,,,,,,,,,,,,,,,,,,,,,,,,,e,1,1.0007,0,27,27,12,1,聪明,e,,,,,,,,,,,,
,,,,,,,,,,,,,1,001,2025-01-02_13h09.35.702,IAT(Formal),2021.2.3,Win32,60.24096386,,,,,,,,,,,,,,,,,,,,,,,,,,,,,,,,,,,,,,,,,,,,,e,1,0.9009,0,28,28,24,1,朴实,e,,,,,,,,,,,,
,,,,,,,,,,,,,1,001,2025-01-02_13h09.35.702,IAT(Formal),2021.2.3,Win32,60.24096386,,,,,,,,,,,,,,,,,,,,,,,,,,,,,,,,,,,,,,,,,,,,,e,1,0.3887,0,29,29,7,1,他的,e,,,,,,,,,,,,
,,,,,,,,,,,,,1,001,2025-01-02_13h09.35.702,IAT(Formal),2021.2.3,Win32,60.24096386,,,,,,,,,,,,,,,,,,,,,,,,,,,,,,,,,,,,,,,,,,,,,e,0,0.4873,0,30,30,46,1,野蛮,i,,,,,,,,,,,,
,,,,,,,,,,,,,1,001,2025-01-02_13h09.35.702,IAT(Formal),2021.2.3,Win32,60.24096386,,,,,,,,,,,,,,,,,,,,,,,,,,,,,,,,,,,,,,,,,,,,,i,1,0.6332,0,31,31,53,1,自己,i,,,,,,,,,,,,
,,,,,,,,,,,,,1,001,2025-01-02_13h09.35.702,IAT(Formal),2021.2.3,Win32,60.24096386,,,,,,,,,,,,,,,,,,,,,,,,,,,,,,,,,,,,,,,,,,,,,,0,,0,32,32,2,1,我们,i,,,,,,,,,,,,
,,,,,,,,,,,,,1,001,2025-01-02_13h09.35.702,IAT(Formal),2021.2.3,Win32,60.24096386,,,,,,,,,,,,,,,,,,,,,,,,,,,,,,,,,,,,,,,,,,,,,i,1,0.6841,0,33,33,42,1,凶狠,i,,,,,,,,,,,,
,,,,,,,,,,,,,1,001,2025-01-02_13h09.35.702,IAT(Formal),2021.2.3,Win32,60.24096386,,,,,,,,,,,,,,,,,,,,,,,,,,,,,,,,,,,,,,,,,,,,,i,0,0.4173,0,34,34,56,1,他们,e,,,,,,,,,,,,
,,,,,,,,,,,,,1,001,2025-01-02_13h09.35.702,IAT(Formal),2021.2.3,Win32,60.24096386,,,,,,,,,,,,,,,,,,,,,,,,,,,,,,,,,,,,,,,,,,,,,i,1,1.241,0,35,35,47,1,固执,i,,,,,,,,,,,,
,,,,,,,,,,,,,1,001,2025-01-02_13h09.35.702,IAT(Formal),2021.2.3,Win32,60.24096386,,,,,,,,,,,,,,,,,,,,,,,,,,,,,,,,,,,,,,,,,,,,,e,0,0.8166,0,36,36,3,1,自己,i,,,,,,,,,,,,
,,,,,,,,,,,,,1,001,2025-01-02_13h09.35.702,IAT(Formal),2021.2.3,Win32,60.24096386,,,,,,,,,,,,,,,,,,,,,,,,,,,,,,,,,,,,,,,,,,,,,e,1,0.6229,0,37,37,57,1,他的,e,,,,,,,,,,,,
,,,,,,,,,,,,,1,001,2025-01-02_13h09.35.702,IAT(Formal),2021.2.3,Win32,60.24096386,,,,,,,,,,,,,,,,,,,,,,,,,,,,,,,,,,,,,,,,,,,,,e,1,0.8848,0,38,38,16,1,正直,e,,,,,,,,,,,,
,,,,,,,,,,,,,1,001,2025-01-02_13h09.35.702,IAT(Formal),2021.2.3,Win32,60.24096386,,,,,,,,,,,,,,,,,,,,,,,,,,,,,,,,,,,,,,,,,,,,,e,1,0.4903,0,39,39,67,1,他的,e,,,,,,,,,,,,
,,,,,,,,,,,,,1,001,2025-01-02_13h09.35.702,IAT(Formal),2021.2.3,Win32,60.24096386,,,,,,,,,,,,,,,,,,,,,,,,,,,,,,,,,,,,,,,,,,,,,e,1,0.4613,0,40,40,5,1,他,e,,,,,,,,,,,,
,,,,,,,,,,,,,1,001,2025-01-02_13h09.35.702,IAT(Formal),2021.2.3,Win32,60.24096386,,,,,,,,,,,,,,,,,,,,,,,,,,,,,,,,,,,,,,,,,,,,,i,1,0.5076,0,41,41,50,1,我,i,,,,,,,,,,,,
,,,,,,,,,,,,,1,001,2025-01-02_13h09.35.702,IAT(Formal),2021.2.3,Win32,60.24096386,,,,,,,,,,,,,,,,,,,,,,,,,,,,,,,,,,,,,,,,,,,,,i,1,0.6509,0,42,42,71,1,我的,i,,,,,,,,,,,,
,,,,,,,,,,,,,1,001,2025-01-02_13h09.35.702,IAT(Formal),2021.2.3,Win32,60.24096386,,,,,,,,,,,,,,,,,,,,,,,,,,,,,,,,,,,,,,,,,,,,,i,1,0.6687,0,43,43,39,1,冒失,i,,,,,,,,,,,,
,,,,,,,,,,,,,1,001,2025-01-02_13h09.35.702,IAT(Formal),2021.2.3,Win32,60.24096386,,,,,,,,,,,,,,,,,,,,,,,,,,,,,,,,,,,,,,,,,,,,,e,1,0.9202,0,44,44,78,1,他人,e,,,,,,,,,,,,
,,,,,,,,,,,,,1,001,2025-01-02_13h09.35.702,IAT(Formal),2021.2.3,Win32,60.24096386,,,,,,,,,,,,,,,,,,,,,,,,,,,,,,,,,,,,,,,,,,,,,e,0,0.5686,0,45,45,34,1,悲观,i,,,,,,,,,,,,
,,,,,,,,,,,,,1,001,2025-01-02_13h09.35.702,IAT(Formal),2021.2.3,Win32,60.24096386,,,,,,,,,,,,,,,,,,,,,,,,,,,,,,,,,,,,,,,,,,,,,i,0,0.8353,0,46,46,27,1,热情,e,,,,,,,,,,,,
,,,,,,,,,,,,,1,001,2025-01-02_13h09.35.702,IAT(Formal),2021.2.3,Win32,60.24096386,,,,,,,,,,,,,,,,,,,,,,,,,,,,,,,,,,,,,,,,,,,,,i,1,0.5019,0,47,47,40,1,执拗,i,,,,,,,,,,,,
,,,,,,,,,,,,,1,001,2025-01-02_13h09.35.702,IAT(Formal),2021.2.3,Win32,60.24096386,,,,,,,,,,,,,,,,,,,,,,,,,,,,,,,,,,,,,,,,,,,,,e,1,0.6175,0,48,48,76,1,他们,e,,,,,,,,,,,,
,,,,,,,,,,,,,1,001,2025-01-02_13h09.35.702,IAT(Formal),2021.2.3,Win32,60.24096386,,,,,,,,,,,,,,,,,,,,,,,,,,,,,,,,,,,,,,,,,,,,,e,1,0.536,0,49,49,59,1,其他,e,,,,,,,,,,,,
,,,,,,,,,,,,,1,001,2025-01-02_13h09.35.702,IAT(Formal),2021.2.3,Win32,60.24096386,,,,,,,,,,,,,,,,,,,,,,,,,,,,,,,,,,,,,,,,,,,,,i,1,0.6881,0,50,50,48,1,轻率,i,,,,,,,,,,,,
,,,,,,,,,,,,,1,001,2025-01-02_13h09.35.702,IAT(Formal),2021.2.3,Win32,60.24096386,,,,,,,,,,,,,,,,,,,,,,,,,,,,,,,,,,,,,,,,,,,,,i,1,0.6066,0,51,51,60,1,我,i,,,,,,,,,,,,
,,,,,,,,,,,,,1,001,2025-01-02_13h09.35.702,IAT(Formal),2021.2.3,Win32,60.24096386,,,,,,,,,,,,,,,,,,,,,,,,,,,,,,,,,,,,,,,,,,,,,i,1,0.4261,0,52,52,51,1,我的,i,,,,,,,,,,,,
,,,,,,,,,,,,,1,001,2025-01-02_13h09.35.702,IAT(Formal),2021.2.3,Win32,60.24096386,,,,,,,,,,,,,,,,,,,,,,,,,,,,,,,,,,,,,,,,,,,,,i,0,0.46,0,53,53,19,1,机智,e,,,,,,,,,,,,
,,,,,,,,,,,,,1,001,2025-01-02_13h09.35.702,IAT(Formal),2021.2.3,Win32,60.24096386,,,,,,,,,,,,,,,,,,,,,,,,,,,,,,,,,,,,,,,,,,,,,e,1,0.759,0,54,54,9,1,其他,e,,,,,,,,,,,,
,,,,,,,,,,,,,1,001,2025-01-02_13h09.35.702,IAT(Formal),2021.2.3,Win32,60.24096386,,,,,,,,,,,,,,,,,,,,,,,,,,,,,,,,,,,,,,,,,,,,,e,1,0.4188,0,55,55,15,1,诚实,e,,,,,,,,,,,,
,,,,,,,,,,,,,1,001,2025-01-02_13h09.35.702,IAT(Formal),2021.2.3,Win32,60.24096386,,,,,,,,,,,,,,,,,,,,,,,,,,,,,,,,,,,,,,,,,,,,,e,1,0.4005,0,56,56,69,1,其他,e,,,,,,,,,,,,
,,,,,,,,,,,,,1,001,2025-01-02_13h09.35.702,IAT(Formal),2021.2.3,Win32,60.24096386,,,,,,,,,,,,,,,,,,,,,,,,,,,,,,,,,,,,,,,,,,,,,i,1,0.5394,0,57,57,44,1,暴躁,i,,,,,,,,,,,,
,,,,,,,,,,,,,1,001,2025-01-02_13h09.35.702,IAT(Formal),2021.2.3,Win32,60.24096386,,,,,,,,,,,,,,,,,,,,,,,,,,,,,,,,,,,,,,,,,,,,,i,0,0.5343,0,58,58,21,1,稳重,e,,,,,,,,,,,,
,,,,,,,,,,,,,1,001,2025-01-02_13h09.35.702,IAT(Formal),2021.2.3,Win32,60.24096386,,,,,,,,,,,,,,,,,,,,,,,,,,,,,,,,,,,,,,,,,,,,,e,1,0.3908,0,59,59,66,1,他们,e,,,,,,,,,,,,
,,,,,,,,,,,,,1,001,2025-01-02_13h09.35.702,IAT(Formal),2021.2.3,Win32,60.24096386,,,,,,,,,,,,,,,,,,,,,,,,,,,,,,,,,,,,,,,,,,,,,e,1,0.5544,0,60,60,10,1,优秀,e,,,,,,,,,,,,
,,,,,,,,,,,,,1,001,2025-01-02_13h09.35.702,IAT(Formal),2021.2.3,Win32,60.24096386,,,,,,,,,,,,,,,,,,,,,,,,,,,,,,,,,,,,,,,,,,,,,e,0,0.4179,0,61,61,73,1,自己,i,,,,,,,,,,,,
,,,,,,,,,,,,,1,001,2025-01-02_13h09.35.702,IAT(Formal),2021.2.3,Win32,60.24096386,,,,,,,,,,,,,,,,,,,,,,,,,,,,,,,,,,,,,,,,,,,,,e,1,0.7833,0,62,62,65,1,他,e,,,,,,,,,,,,
,,,,,,,,,,,,,1,001,2025-01-02_13h09.35.702,IAT(Formal),2021.2.3,Win32,60.24096386,,,,,,,,,,,,,,,,,,,,,,,,,,,,,,,,,,,,,,,,,,,,,i,1,0.6,0,63,63,33,1,刻薄,i,,,,,,,,,,,,
,,,,,,,,,,,,,1,001,2025-01-02_13h09.35.702,IAT(Formal),2021.2.3,Win32,60.24096386,,,,,,,,,,,,,,,,,,,,,,,,,,,,,,,,,,,,,,,,,,,,,i,1,0.3255,0,64,64,52,1,我们,i,,,,,,,,,,,,
,,,,,,,,,,,,,1,001,2025-01-02_13h09.35.702,IAT(Formal),2021.2.3,Win32,60.24096386,,,,,,,,,,,,,,,,,,,,,,,,,,,,,,,,,,,,,,,,,,,,,i,1,0.3072,0,65,65,63,1,自己,i,,,,,,,,,,,,
,,,,,,,,,,,,,1,001,2025-01-02_13h09.35.702,IAT(Formal),2021.2.3,Win32,60.24096386,,,,,,,,,,,,,,,,,,,,,,,,,,,,,,,,,,,,,,,,,,,,,i,0,0.617,0,66,66,14,1,乐观,e,,,,,,,,,,,,
,,,,,,,,,,,,,1,001,2025-01-02_13h09.35.702,IAT(Formal),2021.2.3,Win32,60.24096386,,,,,,,,,,,,,,,,,,,,,,,,,,,,,,,,,,,,,,,,,,,,,e,1,0.5432,0,67,67,79,1,其他,e,,,,,,,,,,,,
,,,,,,,,,,,,,1,001,2025-01-02_13h09.35.702,IAT(Formal),2021.2.3,Win32,60.24096386,,,,,,,,,,,,,,,,,,,,,,,,,,,,,,,,,,,,,,,,,,,,,i,1,0.5695,0,68,68,49,1,下贱,i,,,,,,,,,,,,
,,,,,,,,,,,,,1,001,2025-01-02_13h09.35.702,IAT(Formal),2021.2.3,Win32,60.24096386,,,,,,,,,,,,,,,,,,,,,,,,,,,,,,,,,,,,,,,,,,,,,e,1,0.5066,0,69,69,55,1,他,e,,,,,,,,,,,,
,,,,,,,,,,,,,1,001,2025-01-02_13h09.35.702,IAT(Formal),2021.2.3,Win32,60.24096386,,,,,,,,,,,,,,,,,,,,,,,,,,,,,,,,,,,,,,,,,,,,,e,1,0.6842,0,70,70,28,1,活泼,e,,,,,,,,,,,,
,,,,,,,,,,,,,1,001,2025-01-02_13h09.35.702,IAT(Formal),2021.2.3,Win32,60.24096386,,,,,,,,,,,,,,,,,,,,,,,,,,,,,,,,,,,,,,,,,,,,,i,1,0.6232,0,71,71,41,1,散漫,i,,,,,,,,,,,,
,,,,,,,,,,,,,1,001,2025-01-02_13h09.35.702,IAT(Formal),2021.2.3,Win32,60.24096386,,,,,,,,,,,,,,,,,,,,,,,,,,,,,,,,,,,,,,,,,,,,,i,0,0.5006,0,72,72,8,1,他人,e,,,,,,,,,,,,
,,,,,,,,,,,,,1,001,2025-01-02_13h09.35.702,IAT(Formal),2021.2.3,Win32,60.24096386,,,,,,,,,,,,,,,,,,,,,,,,,,,,,,,,,,,,,,,,,,,,,e,0,0.3892,0,73,73,45,1,猖狂,i,,,,,,,,,,,,
,,,,,,,,,,,,,1,001,2025-01-02_13h09.35.702,IAT(Formal),2021.2.3,Win32,60.24096386,,,,,,,,,,,,,,,,,,,,,,,,,,,,,,,,,,,,,,,,,,,,,i,0,0.2014,0,74,74,18,1,勤奋,e,,,,,,,,,,,,
,,,,,,,,,,,,,1,001,2025-01-02_13h09.35.702,IAT(Formal),2021.2.3,Win32,60.24096386,,,,,,,,,,,,,,,,,,,,,,,,,,,,,,,,,,,,,,,,,,,,,e,1,0.5536,0,75,75,22,1,无私,e,,,,,,,,,,,,
,,,,,,,,,,,,,1,001,2025-01-02_13h09.35.702,IAT(Formal),2021.2.3,Win32,60.24096386,,,,,,,,,,,,,,,,,,,,,,,,,,,,,,,,,,,,,,,,,,,,,e,0,0.3939,0,76,76,43,1,自私,i,,,,,,,,,,,,
,,,,,,,,,,,,,1,001,2025-01-02_13h09.35.702,IAT(Formal),2021.2.3,Win32,60.24096386,,,,,,,,,,,,,,,,,,,,,,,,,,,,,,,,,,,,,,,,,,,,,e,1,0.6914,0,77,77,17,1,勇敢,e,,,,,,,,,,,,
,,,,,,,,,,,,,1,001,2025-01-02_13h09.35.702,IAT(Formal),2021.2.3,Win32,60.24096386,,,,,,,,,,,,,,,,,,,,,,,,,,,,,,,,,,,,,,,,,,,,,e,0,0.6029,0,78,78,4,1,俺,i,,,,,,,,,,,,
,,,,,,,,,,,,,1,001,2025-01-02_13h09.35.702,IAT(Formal),2021.2.3,Win32,60.24096386,,,,,,,,,,,,,,,,,,,,,,,,,,,,,,,,,,,,,,,,,,,,,e,1,0.6249,0,79,79,13,1,杰出,e,,,,,,,,,,,,
,,,,,,,,,,,,,1,001,2025-01-02_13h09.35.702,IAT(Formal),2021.2.3,Win32,60.24096386,,,,,,,,,,,,,,,,,,,,,,,,,,,,,,,,,,,,,,,,,,,,,,,,,,,,,其他,e,space,6.6729,e,1,0.9168,0,0,0,79,1,,
,,,,,,,,,,,,,1,001,2025-01-02_13h09.35.702,IAT(Formal),2021.2.3,Win32,60.24096386,,,,,,,,,,,,,,,,,,,,,,,,,,,,,,,,,,,,,,,,,,,,,,,,,,,,,俺,i,,,i,1,0.5207,0,1,1,4,1,,
,,,,,,,,,,,,,1,001,2025-01-02_13h09.35.702,IAT(Formal),2021.2.3,Win32,60.24096386,,,,,,,,,,,,,,,,,,,,,,,,,,,,,,,,,,,,,,,,,,,,,,,,,,,,,公正,e,,,e,1,0.8236,0,2,2,23,1,,
,,,,,,,,,,,,,1,001,2025-01-02_13h09.35.702,IAT(Formal),2021.2.3,Win32,60.24096386,,,,,,,,,,,,,,,,,,,,,,,,,,,,,,,,,,,,,,,,,,,,,,,,,,,,,我,i,,,e,0,0.441,0,3,3,0,1,,
,,,,,,,,,,,,,1,001,2025-01-02_13h09.35.702,IAT(Formal),2021.2.3,Win32,60.24096386,,,,,,,,,,,,,,,,,,,,,,,,,,,,,,,,,,,,,,,,,,,,,,,,,,,,,我们,i,,,i,1,0.8167,0,4,4,52,1,,
,,,,,,,,,,,,,1,001,2025-01-02_13h09.35.702,IAT(Formal),2021.2.3,Win32,60.24096386,,,,,,,,,,,,,,,,,,,,,,,,,,,,,,,,,,,,,,,,,,,,,,,,,,,,,活泼,e,,,e,1,0.6842,0,5,5,28,1,,
,,,,,,,,,,,,,1,001,2025-01-02_13h09.35.702,IAT(Formal),2021.2.3,Win32,60.24096386,,,,,,,,,,,,,,,,,,,,,,,,,,,,,,,,,,,,,,,,,,,,,,,,,,,,,崇高,e,,,e,1,0.8009,0,6,6,11,1,,
,,,,,,,,,,,,,1,001,2025-01-02_13h09.35.702,IAT(Formal),2021.2.3,Win32,60.24096386,,,,,,,,,,,,,,,,,,,,,,,,,,,,,,,,,,,,,,,,,,,,,,,,,,,,,他,e,,,i,0,0.5665,0,7,7,5,1,,
,,,,,,,,,,,,,1,001,2025-01-02_13h09.35.702,IAT(Formal),2021.2.3,Win32,60.24096386,,,,,,,,,,,,,,,,,,,,,,,,,,,,,,,,,,,,,,,,,,,,,,,,,,,,,他们,e,,,e,1,0.5385,0,8,8,6,1,,
,,,,,,,,,,,,,1,001,2025-01-02_13h09.35.702,IAT(Formal),2021.2.3,Win32,60.24096386,,,,,,,,,,,,,,,,,,,,,,,,,,,,,,,,,,,,,,,,,,,,,,,,,,,,,我的,i,,,i,1,0.4707,0,9,9,1,1,,
,,,,,,,,,,,,,1,001,2025-01-02_13h09.35.702,IAT(Formal),2021.2.3,Win32,60.24096386,,,,,,,,,,,,,,,,,,,,,,,,,,,,,,,,,,,,,,,,,,,,,,,,,,,,,杰出,e,,,i,0,0.6029,0,10,10,13,1,,
,,,,,,,,,,,,,1,001,2025-01-02_13h09.35.702,IAT(Formal),2021.2.3,Win32,60.24096386,,,,,,,,,,,,,,,,,,,,,,,,,,,,,,,,,,,,,,,,,,,,,,,,,,,,,固执,i,,,e,0,0.858,0,11,11,47,1,,
,,,,,,,,,,,,,1,001,2025-01-02_13h09.35.702,IAT(Formal),2021.2.3,Win32,60.24096386,,,,,,,,,,,,,,,,,,,,,,,,,,,,,,,,,,,,,,,,,,,,,,,,,,,,,冷静,e,,,e,1,1.0868,0,12,12,26,1,,
,,,,,,,,,,,,,1,001,2025-01-02_13h09.35.702,IAT(Formal),2021.2.3,Win32,60.24096386,,,,,,,,,,,,,,,,,,,,,,,,,,,,,,,,,,,,,,,,,,,,,,,,,,,,,他们,e,,,e,1,0.9167,0,13,13,66,1,,
,,,,,,,,,,,,,1,001,2025-01-02_13h09.35.702,IAT(Formal),2021.2.3,Win32,60.24096386,,,,,,,,,,,,,,,,,,,,,,,,,,,,,,,,,,,,,,,,,,,,,,,,,,,,,我,i,,,i,1,0.6947,0,14,14,50,1,,
,,,,,,,,,,,,,1,001,2025-01-02_13h09.35.702,IAT(Formal),2021.2.3,Win32,60.24096386,,,,,,,,,,,,,,,,,,,,,,,,,,,,,,,,,,,,,,,,,,,,,,,,,,,,,虚伪,i,,,i,1,0.7675,0,15,15,31,1,,
,,,,,,,,,,,,,1,001,2025-01-02_13h09.35.702,IAT(Formal),2021.2.3,Win32,60.24096386,,,,,,,,,,,,,,,,,,,,,,,,,,,,,,,,,,,,,,,,,,,,,,,,,,,,,正直,e,,,e,1,0.8052,0,16,16,16,1,,
,,,,,,,,,,,,,1,001,2025-01-02_13h09.35.702,IAT(Formal),2021.2.3,Win32,60.24096386,,,,,,,,,,,,,,,,,,,,,,,,,,,,,,,,,,,,,,,,,,,,,,,,,,,,,稳重,e,,,e,1,0.9432,0,17,17,21,1,,
,,,,,,,,,,,,,1,001,2025-01-02_13h09.35.702,IAT(Formal),2021.2.3,Win32,60.24096386,,,,,,,,,,,,,,,,,,,,,,,,,,,,,,,,,,,,,,,,,,,,,,,,,,,,,他的,e,,,i,0,0.5669,0,18,18,57,1,,
,,,,,,,,,,,,,1,001,2025-01-02_13h09.35.702,IAT(Formal),2021.2.3,Win32,60.24096386,,,,,,,,,,,,,,,,,,,,,,,,,,,,,,,,,,,,,,,,,,,,,,,,,,,,,他的,e,,,e,1,0.4511,0,19,19,77,1,,
,,,,,,,,,,,,,1,001,2025-01-02_13h09.35.702,IAT(Formal),2021.2.3,Win32,60.24096386,,,,,,,,,,,,,,,,,,,,,,,,,,,,,,,,,,,,,,,,,,,,,,,,,,,,,认真,e,,,i,0,0.8513,0,20,20,20,1,,
,,,,,,,,,,,,,1,001,2025-01-02_13h09.35.702,IAT(Formal),2021.2.3,Win32,60.24096386,,,,,,,,,,,,,,,,,,,,,,,,,,,,,,,,,,,,,,,,,,,,,,,,,,,,,野蛮,i,,,i,1,1.0172,0,21,21,46,1,,
,,,,,,,,,,,,,1,001,2025-01-02_13h09.35.702,IAT(Formal),2021.2.3,Win32,60.24096386,,,,,,,,,,,,,,,,,,,,,,,,,,,,,,,,,,,,,,,,,,,,,,,,,,,,,热情,e,,,e,1,0.6181,0,22,22,27,1,,
,,,,,,,,,,,,,1,001,2025-01-02_13h09.35.702,IAT(Formal),2021.2.3,Win32,60.24096386,,,,,,,,,,,,,,,,,,,,,,,,,,,,,,,,,,,,,,,,,,,,,,,,,,,,,刻薄,i,,,i,1,0.833,0,23,23,33,1,,
,,,,,,,,,,,,,1,001,2025-01-02_13h09.35.702,IAT(Formal),2021.2.3,Win32,60.24096386,,,,,,,,,,,,,,,,,,,,,,,,,,,,,,,,,,,,,,,,,,,,,,,,,,,,,机智,e,,,e,1,0.657,0,24,24,19,1,,
,,,,,,,,,,,,,1,001,2025-01-02_13h09.35.702,IAT(Formal),2021.2.3,Win32,60.24096386,,,,,,,,,,,,,,,,,,,,,,,,,,,,,,,,,,,,,,,,,,,,,,,,,,,,,勤奋,e,,,e,1,0.4708,0,25,25,18,1,,
,,,,,,,,,,,,,1,001,2025-01-02_13h09.35.702,IAT(Formal),2021.2.3,Win32,60.24096386,,,,,,,,,,,,,,,,,,,,,,,,,,,,,,,,,,,,,,,,,,,,,,,,,,,,,他人,e,,,e,1,0.9997,0,26,26,78,1,,
,,,,,,,,,,,,,1,001,2025-01-02_13h09.35.702,IAT(Formal),2021.2.3,Win32,60.24096386,,,,,,,,,,,,,,,,,,,,,,,,,,,,,,,,,,,,,,,,,,,,,,,,,,,,,他们,e,,,e,1,0.3337,0,27,27,76,1,,
,,,,,,,,,,,,,1,001,2025-01-02_13h09.35.702,IAT(Formal),2021.2.3,Win32,60.24096386,,,,,,,,,,,,,,,,,,,,,,,,,,,,,,,,,,,,,,,,,,,,,,,,,,,,,轻率,i,,,i,1,0.7843,0,28,28,48,1,,
,,,,,,,,,,,,,1,001,2025-01-02_13h09.35.702,IAT(Formal),2021.2.3,Win32,60.24096386,,,,,,,,,,,,,,,,,,,,,,,,,,,,,,,,,,,,,,,,,,,,,,,,,,,,,自己,i,,,i,1,0.6517,0,29,29,73,1,,
,,,,,,,,,,,,,1,001,2025-01-02_13h09.35.702,IAT(Formal),2021.2.3,Win32,60.24096386,,,,,,,,,,,,,,,,,,,,,,,,,,,,,,,,,,,,,,,,,,,,,,,,,,,,,乐观,e,,,e,1,0.6578,0,30,30,14,1,,
,,,,,,,,,,,,,1,001,2025-01-02_13h09.35.702,IAT(Formal),2021.2.3,Win32,60.24096386,,,,,,,,,,,,,,,,,,,,,,,,,,,,,,,,,,,,,,,,,,,,,,,,,,,,,冒失,i,,,i,1,0.7921,0,31,31,39,1,,
,,,,,,,,,,,,,1,001,2025-01-02_13h09.35.702,IAT(Formal),2021.2.3,Win32,60.24096386,,,,,,,,,,,,,,,,,,,,,,,,,,,,,,,,,,,,,,,,,,,,,,,,,,,,,无私,e,,,e,1,0.5559,0,32,32,22,1,,
,,,,,,,,,,,,,1,001,2025-01-02_13h09.35.702,IAT(Formal),2021.2.3,Win32,60.24096386,,,,,,,,,,,,,,,,,,,,,,,,,,,,,,,,,,,,,,,,,,,,,,,,,,,,,他,e,,,e,1,0.6552,0,33,33,55,1,,
,,,,,,,,,,,,,1,001,2025-01-02_13h09.35.702,IAT(Formal),2021.2.3,Win32,60.24096386,,,,,,,,,,,,,,,,,,,,,,,,,,,,,,,,,,,,,,,,,,,,,,,,,,,,,猖狂,i,,,i,1,0.6003,0,34,34,45,1,,
,,,,,,,,,,,,,1,001,2025-01-02_13h09.35.702,IAT(Formal),2021.2.3,Win32,60.24096386,,,,,,,,,,,,,,,,,,,,,,,,,,,,,,,,,,,,,,,,,,,,,,,,,,,,,自己,i,,,e,0,0.551,0,35,35,3,1,,
,,,,,,,,,,,,,1,001,2025-01-02_13h09.35.702,IAT(Formal),2021.2.3,Win32,60.24096386,,,,,,,,,,,,,,,,,,,,,,,,,,,,,,,,,,,,,,,,,,,,,,,,,,,,,他人,e,,,e,1,0.4933,0,36,36,58,1,,
,,,,,,,,,,,,,1,001,2025-01-02_13h09.35.702,IAT(Formal),2021.2.3,Win32,60.24096386,,,,,,,,,,,,,,,,,,,,,,,,,,,,,,,,,,,,,,,,,,,,,,,,,,,,,消极,i,,,i,1,0.8389,0,37,37,35,1,,
,,,,,,,,,,,,,1,001,2025-01-02_13h09.35.702,IAT(Formal),2021.2.3,Win32,60.24096386,,,,,,,,,,,,,,,,,,,,,,,,,,,,,,,,,,,,,,,,,,,,,,,,,,,,,诚实,e,,,e,1,0.667,0,38,38,15,1,,
,,,,,,,,,,,,,1,001,2025-01-02_13h09.35.702,IAT(Formal),2021.2.3,Win32,60.24096386,,,,,,,,,,,,,,,,,,,,,,,,,,,,,,,,,,,,,,,,,,,,,,,,,,,,,他们,e,,,e,1,0.695,0,39,39,56,1,,
,,,,,,,,,,,,,1,001,2025-01-02_13h09.35.702,IAT(Formal),2021.2.3,Win32,60.24096386,,,,,,,,,,,,,,,,,,,,,,,,,,,,,,,,,,,,,,,,,,,,,,,,,,,,,我,i,,,i,1,0.4925,0,40,40,70,1,,
,,,,,,,,,,,,,1,001,2025-01-02_13h09.35.702,IAT(Formal),2021.2.3,Win32,60.24096386,,,,,,,,,,,,,,,,,,,,,,,,,,,,,,,,,,,,,,,,,,,,,,,,,,,,,诚恳,e,,,i,0,0.5579,0,41,41,29,1,,
,,,,,,,,,,,,,1,001,2025-01-02_13h09.35.702,IAT(Formal),2021.2.3,Win32,60.24096386,,,,,,,,,,,,,,,,,,,,,,,,,,,,,,,,,,,,,,,,,,,,,,,,,,,,,卑鄙,i,,,i,1,0.6617,0,42,42,30,1,,
,,,,,,,,,,,,,1,001,2025-01-02_13h09.35.702,IAT(Formal),2021.2.3,Win32,60.24096386,,,,,,,,,,,,,,,,,,,,,,,,,,,,,,,,,,,,,,,,,,,,,,,,,,,,,我们,i,,,i,1,0.7513,0,43,43,2,1,,
,,,,,,,,,,,,,1,001,2025-01-02_13h09.35.702,IAT(Formal),2021.2.3,Win32,60.24096386,,,,,,,,,,,,,,,,,,,,,,,,,,,,,,,,,,,,,,,,,,,,,,,,,,,,,自己,i,,,i,1,0.4346,0,44,44,63,1,,
,,,,,,,,,,,,,1,001,2025-01-02_13h09.35.702,IAT(Formal),2021.2.3,Win32,60.24096386,,,,,,,,,,,,,,,,,,,,,,,,,,,,,,,,,,,,,,,,,,,,,,,,,,,,,他的,e,,,e,1,0.5709,0,45,45,7,1,,
,,,,,,,,,,,,,1,001,2025-01-02_13h09.35.702,IAT(Formal),2021.2.3,Win32,60.24096386,,,,,,,,,,,,,,,,,,,,,,,,,,,,,,,,,,,,,,,,,,,,,,,,,,,,,傲慢,i,,,i,1,0.6829,0,46,46,37,1,,
,,,,,,,,,,,,,1,001,2025-01-02_13h09.35.702,IAT(Formal),2021.2.3,Win32,60.24096386,,,,,,,,,,,,,,,,,,,,,,,,,,,,,,,,,,,,,,,,,,,,,,,,,,,,,散漫,i,,,i,1,1.2947,0,47,47,41,1,,
,,,,,,,,,,,,,1,001,2025-01-02_13h09.35.702,IAT(Formal),2021.2.3,Win32,60.24096386,,,,,,,,,,,,,,,,,,,,,,,,,,,,,,,,,,,,,,,,,,,,,,,,,,,,,他人,e,,,e,1,0.4758,0,48,48,68,1,,
,,,,,,,,,,,,,1,001,2025-01-02_13h09.35.702,IAT(Formal),2021.2.3,Win32,60.24096386,,,,,,,,,,,,,,,,,,,,,,,,,,,,,,,,,,,,,,,,,,,,,,,,,,,,,俺,i,,,i,1,0.7184,0,49,49,64,1,,
,,,,,,,,,,,,,1,001,2025-01-02_13h09.35.702,IAT(Formal),2021.2.3,Win32,60.24096386,,,,,,,,,,,,,,,,,,,,,,,,,,,,,,,,,,,,,,,,,,,,,,,,,,,,,俺,i,,,i,1,0.7371,0,50,50,74,1,,
,,,,,,,,,,,,,1,001,2025-01-02_13h09.35.702,IAT(Formal),2021.2.3,Win32,60.24096386,,,,,,,,,,,,,,,,,,,,,,,,,,,,,,,,,,,,,,,,,,,,,,,,,,,,,他人,e,,,e,1,0.6348,0,51,51,8,1,,
,,,,,,,,,,,,,1,001,2025-01-02_13h09.35.702,IAT(Formal),2021.2.3,Win32,60.24096386,,,,,,,,,,,,,,,,,,,,,,,,,,,,,,,,,,,,,,,,,,,,,,,,,,,,,他的,e,,,e,1,0.4268,0,52,52,67,1,,
,,,,,,,,,,,,,1,001,2025-01-02_13h09.35.702,IAT(Formal),2021.2.3,Win32,60.24096386,,,,,,,,,,,,,,,,,,,,,,,,,,,,,,,,,,,,,,,,,,,,,,,,,,,,,其他,e,,,e,1,0.6341,0,53,53,69,1,,
,,,,,,,,,,,,,1,001,2025-01-02_13h09.35.702,IAT(Formal),2021.2.3,Win32,60.24096386,,,,,,,,,,,,,,,,,,,,,,,,,,,,,,,,,,,,,,,,,,,,,,,,,,,,,下贱,i,,,i,1,0.9106,0,54,54,49,1,,
,,,,,,,,,,,,,1,001,2025-01-02_13h09.35.702,IAT(Formal),2021.2.3,Win32,60.24096386,,,,,,,,,,,,,,,,,,,,,,,,,,,,,,,,,,,,,,,,,,,,,,,,,,,,,凶狠,i,,,i,1,0.4833,0,55,55,42,1,,
,,,,,,,,,,,,,1,001,2025-01-02_13h09.35.702,IAT(Formal),2021.2.3,Win32,60.24096386,,,,,,,,,,,,,,,,,,,,,,,,,,,,,,,,,,,,,,,,,,,,,,,,,,,,,优秀,e,,,e,1,1.0017,0,56,56,10,1,,
,,,,,,,,,,,,,1,001,2025-01-02_13h09.35.702,IAT(Formal),2021.2.3,Win32,60.24096386,,,,,,,,,,,,,,,,,,,,,,,,,,,,,,,,,,,,,,,,,,,,,,,,,,,,,自己,i,,,i,1,0.9752,0,57,57,53,1,,
,,,,,,,,,,,,,1,001,2025-01-02_13h09.35.702,IAT(Formal),2021.2.3,Win32,60.24096386,,,,,,,,,,,,,,,,,,,,,,,,,,,,,,,,,,,,,,,,,,,,,,,,,,,,,他,e,,,e,1,0.6594,0,58,58,65,1,,
,,,,,,,,,,,,,1,001,2025-01-02_13h09.35.702,IAT(Formal),2021.2.3,Win32,60.24096386,,,,,,,,,,,,,,,,,,,,,,,,,,,,,,,,,,,,,,,,,,,,,,,,,,,,,鲁莽,i,,,i,1,0.6253,0,59,59,38,1,,
,,,,,,,,,,,,,1,001,2025-01-02_13h09.35.702,IAT(Formal),2021.2.3,Win32,60.24096386,,,,,,,,,,,,,,,,,,,,,,,,,,,,,,,,,,,,,,,,,,,,,,,,,,,,,我的,i,,,i,1,0.9727,0,60,60,61,1,,
,,,,,,,,,,,,,1,001,2025-01-02_13h09.35.702,IAT(Formal),2021.2.3,Win32,60.24096386,,,,,,,,,,,,,,,,,,,,,,,,,,,,,,,,,,,,,,,,,,,,,,,,,,,,,执拗,i,,,i,1,0.6249,0,61,61,40,1,,
,,,,,,,,,,,,,1,001,2025-01-02_13h09.35.702,IAT(Formal),2021.2.3,Win32,60.24096386,,,,,,,,,,,,,,,,,,,,,,,,,,,,,,,,,,,,,,,,,,,,,,,,,,,,,他,e,,,e,1,1.1897,0,62,62,75,1,,
,,,,,,,,,,,,,1,001,2025-01-02_13h09.35.702,IAT(Formal),2021.2.3,Win32,60.24096386,,,,,,,,,,,,,,,,,,,,,,,,,,,,,,,,,,,,,,,,,,,,,,,,,,,,,聪明,e,,,e,1,0.6833,0,63,63,12,1,,
,,,,,,,,,,,,,1,001,2025-01-02_13h09.35.702,IAT(Formal),2021.2.3,Win32,60.24096386,,,,,,,,,,,,,,,,,,,,,,,,,,,,,,,,,,,,,,,,,,,,,,,,,,,,,愚蠢,i,,,i,1,0.5838,0,64,64,32,1,,
,,,,,,,,,,,,,1,001,2025-01-02_13h09.35.702,IAT(Formal),2021.2.3,Win32,60.24096386,,,,,,,,,,,,,,,,,,,,,,,,,,,,,,,,,,,,,,,,,,,,,,,,,,,,,其他,e,,,e,1,0.6719,0,65,65,59,1,,
,,,,,,,,,,,,,1,001,2025-01-02_13h09.35.702,IAT(Formal),2021.2.3,Win32,60.24096386,,,,,,,,,,,,,,,,,,,,,,,,,,,,,,,,,,,,,,,,,,,,,,,,,,,,,我,i,,,i,1,0.6522,0,66,66,60,1,,
,,,,,,,,,,,,,1,001,2025-01-02_13h09.35.702,IAT(Formal),2021.2.3,Win32,60.24096386,,,,,,,,,,,,,,,,,,,,,,,,,,,,,,,,,,,,,,,,,,,,,,,,,,,,,我的,i,,,i,1,0.3584,0,67,67,51,1,,
,,,,,,,,,,,,,1,001,2025-01-02_13h09.35.702,IAT(Formal),2021.2.3,Win32,60.24096386,,,,,,,,,,,,,,,,,,,,,,,,,,,,,,,,,,,,,,,,,,,,,,,,,,,,,自卑,i,,,i,1,0.7836,0,68,68,36,1,,
,,,,,,,,,,,,,1,001,2025-01-02_13h09.35.702,IAT(Formal),2021.2.3,Win32,60.24096386,,,,,,,,,,,,,,,,,,,,,,,,,,,,,,,,,,,,,,,,,,,,,,,,,,,,,我们,i,,,i,1,0.5372,0,69,69,62,1,,
,,,,,,,,,,,,,1,001,2025-01-02_13h09.35.702,IAT(Formal),2021.2.3,Win32,60.24096386,,,,,,,,,,,,,,,,,,,,,,,,,,,,,,,,,,,,,,,,,,,,,,,,,,,,,我的,i,,,i,1,0.3522,0,70,70,71,1,,
,,,,,,,,,,,,,1,001,2025-01-02_13h09.35.702,IAT(Formal),2021.2.3,Win32,60.24096386,,,,,,,,,,,,,,,,,,,,,,,,,,,,,,,,,,,,,,,,,,,,,,,,,,,,,暴躁,i,,,i,1,0.538,0,71,71,44,1,,
,,,,,,,,,,,,,1,001,2025-01-02_13h09.35.702,IAT(Formal),2021.2.3,Win32,60.24096386,,,,,,,,,,,,,,,,,,,,,,,,,,,,,,,,,,,,,,,,,,,,,,,,,,,,,其他,e,,,e,1,0.6675,0,72,72,9,1,,
,,,,,,,,,,,,,1,001,2025-01-02_13h09.35.702,IAT(Formal),2021.2.3,Win32,60.24096386,,,,,,,,,,,,,,,,,,,,,,,,,,,,,,,,,,,,,,,,,,,,,,,,,,,,,我们,i,,,i,1,0.5009,0,73,73,72,1,,
,,,,,,,,,,,,,1,001,2025-01-02_13h09.35.702,IAT(Formal),2021.2.3,Win32,60.24096386,,,,,,,,,,,,,,,,,,,,,,,,,,,,,,,,,,,,,,,,,,,,,,,,,,,,,自私,i,,,i,1,0.6842,0,74,74,43,1,,
,,,,,,,,,,,,,1,001,2025-01-02_13h09.35.702,IAT(Formal),2021.2.3,Win32,60.24096386,,,,,,,,,,,,,,,,,,,,,,,,,,,,,,,,,,,,,,,,,,,,,,,,,,,,,细腻,e,,,e,1,0.8341,0,75,75,25,1,,
,,,,,,,,,,,,,1,001,2025-01-02_13h09.35.702,IAT(Formal),2021.2.3,Win32,60.24096386,,,,,,,,,,,,,,,,,,,,,,,,,,,,,,,,,,,,,,,,,,,,,,,,,,,,,悲观,i,,,i,1,0.7512,0,76,76,34,1,,
,,,,,,,,,,,,,1,001,2025-01-02_13h09.35.702,IAT(Formal),2021.2.3,Win32,60.24096386,,,,,,,,,,,,,,,,,,,,,,,,,,,,,,,,,,,,,,,,,,,,,,,,,,,,,朴实,e,,,e,1,0.7847,0,77,77,24,1,,
,,,,,,,,,,,,,1,001,2025-01-02_13h09.35.702,IAT(Formal),2021.2.3,Win32,60.24096386,,,,,,,,,,,,,,,,,,,,,,,,,,,,,,,,,,,,,,,,,,,,,,,,,,,,,勇敢,e,,,e,1,0.603,0,78,78,17,1,,
,,,,,,,,,,,,,1,001,2025-01-02_13h09.35.702,IAT(Formal),2021.2.3,Win32,60.24096386,,,,,,,,,,,,,,,,,,,,,,,,,,,,,,,,,,,,,,,,,,,,,,,,,,,,,俺,i,,,e,0,0.7387,0,79,79,54,1,,
,,,,,,,,,,,,,1,001,2025-01-02_13h09.35.702,IAT(Formal),2021.2.3,Win32,60.24096386,,,,,,,,,,,,,,,,,,,,,,,,,,,,,,,,,,,,,,,,,,,,,,,,,,,,,冒失,i,,,i,1,0.7517,1,0,80,39,1,,
,,,,,,,,,,,,,1,001,2025-01-02_13h09.35.702,IAT(Formal),2021.2.3,Win32,60.24096386,,,,,,,,,,,,,,,,,,,,,,,,,,,,,,,,,,,,,,,,,,,,,,,,,,,,,无私,e,,,e,1,0.9259,1,1,81,22,1,,
,,,,,,,,,,,,,1,001,2025-01-02_13h09.35.702,IAT(Formal),2021.2.3,Win32,60.24096386,,,,,,,,,,,,,,,,,,,,,,,,,,,,,,,,,,,,,,,,,,,,,,,,,,,,,他们,e,,,e,1,0.8174,1,2,82,76,1,,
,,,,,,,,,,,,,1,001,2025-01-02_13h09.35.702,IAT(Formal),2021.2.3,Win32,60.24096386,,,,,,,,,,,,,,,,,,,,,,,,,,,,,,,,,,,,,,,,,,,,,,,,,,,,,他们,e,,,e,1,0.5675,1,3,83,66,1,,
,,,,,,,,,,,,,1,001,2025-01-02_13h09.35.702,IAT(Formal),2021.2.3,Win32,60.24096386,,,,,,,,,,,,,,,,,,,,,,,,,,,,,,,,,,,,,,,,,,,,,,,,,,,,,杰出,e,,,e,1,0.7178,1,4,84,13,1,,
,,,,,,,,,,,,,1,001,2025-01-02_13h09.35.702,IAT(Formal),2021.2.3,Win32,60.24096386,,,,,,,,,,,,,,,,,,,,,,,,,,,,,,,,,,,,,,,,,,,,,,,,,,,,,认真,e,,,e,1,0.5357,1,5,85,20,1,,
,,,,,,,,,,,,,1,001,2025-01-02_13h09.35.702,IAT(Formal),2021.2.3,Win32,60.24096386,,,,,,,,,,,,,,,,,,,,,,,,,,,,,,,,,,,,,,,,,,,,,,,,,,,,,正直,e,,,e,1,0.3913,1,6,86,16,1,,
,,,,,,,,,,,,,1,001,2025-01-02_13h09.35.702,IAT(Formal),2021.2.3,Win32,60.24096386,,,,,,,,,,,,,,,,,,,,,,,,,,,,,,,,,,,,,,,,,,,,,,,,,,,,,执拗,i,,,i,1,0.4336,1,7,87,40,1,,
,,,,,,,,,,,,,1,001,2025-01-02_13h09.35.702,IAT(Formal),2021.2.3,Win32,60.24096386,,,,,,,,,,,,,,,,,,,,,,,,,,,,,,,,,,,,,,,,,,,,,,,,,,,,,稳重,e,,,e,1,0.6501,1,8,88,21,1,,
,,,,,,,,,,,,,1,001,2025-01-02_13h09.35.702,IAT(Formal),2021.2.3,Win32,60.24096386,,,,,,,,,,,,,,,,,,,,,,,,,,,,,,,,,,,,,,,,,,,,,,,,,,,,,他的,e,,,i,0,0.5941,1,9,89,67,1,,
,,,,,,,,,,,,,1,001,2025-01-02_13h09.35.702,IAT(Formal),2021.2.3,Win32,60.24096386,,,,,,,,,,,,,,,,,,,,,,,,,,,,,,,,,,,,,,,,,,,,,,,,,,,,,优秀,e,,,e,1,0.5676,1,10,90,10,1,,
,,,,,,,,,,,,,1,001,2025-01-02_13h09.35.702,IAT(Formal),2021.2.3,Win32,60.24096386,,,,,,,,,,,,,,,,,,,,,,,,,,,,,,,,,,,,,,,,,,,,,,,,,,,,,俺,i,,,i,1,0.6402,1,11,91,64,1,,
,,,,,,,,,,,,,1,001,2025-01-02_13h09.35.702,IAT(Formal),2021.2.3,Win32,60.24096386,,,,,,,,,,,,,,,,,,,,,,,,,,,,,,,,,,,,,,,,,,,,,,,,,,,,,他的,e,,,e,1,0.4347,1,12,92,77,1,,
,,,,,,,,,,,,,1,001,2025-01-02_13h09.35.702,IAT(Formal),2021.2.3,Win32,60.24096386,,,,,,,,,,,,,,,,,,,,,,,,,,,,,,,,,,,,,,,,,,,,,,,,,,,,,自己,i,,,i,1,0.6169,1,13,93,53,1,,
,,,,,,,,,,,,,1,001,2025-01-02_13h09.35.702,IAT(Formal),2021.2.3,Win32,60.24096386,,,,,,,,,,,,,,,,,,,,,,,,,,,,,,,,,,,,,,,,,,,,,,,,,,,,,他,e,,,e,1,0.5552,1,14,94,65,1,,
,,,,,,,,,,,,,1,001,2025-01-02_13h09.35.702,IAT(Formal),2021.2.3,Win32,60.24096386,,,,,,,,,,,,,,,,,,,,,,,,,,,,,,,,,,,,,,,,,,,,,,,,,,,,,我们,i,,,i,1,0.7999,1,15,95,52,1,,
,,,,,,,,,,,,,1,001,2025-01-02_13h09.35.702,IAT(Formal),2021.2.3,Win32,60.24096386,,,,,,,,,,,,,,,,,,,,,,,,,,,,,,,,,,,,,,,,,,,,,,,,,,,,,自私,i,,,i,1,0.8826,1,16,96,43,1,,
,,,,,,,,,,,,,1,001,2025-01-02_13h09.35.702,IAT(Formal),2021.2.3,Win32,60.24096386,,,,,,,,,,,,,,,,,,,,,,,,,,,,,,,,,,,,,,,,,,,,,,,,,,,,,诚实,e,,,e,1,1.0376,1,17,97,15,1,,
,,,,,,,,,,,,,1,001,2025-01-02_13h09.35.702,IAT(Formal),2021.2.3,Win32,60.24096386,,,,,,,,,,,,,,,,,,,,,,,,,,,,,,,,,,,,,,,,,,,,,,,,,,,,,猖狂,i,,,i,1,0.6725,1,18,98,45,1,,
,,,,,,,,,,,,,1,001,2025-01-02_13h09.35.702,IAT(Formal),2021.2.3,Win32,60.24096386,,,,,,,,,,,,,,,,,,,,,,,,,,,,,,,,,,,,,,,,,,,,,,,,,,,,,聪明,e,,,e,1,0.9389,1,19,99,12,1,,
,,,,,,,,,,,,,1,001,2025-01-02_13h09.35.702,IAT(Formal),2021.2.3,Win32,60.24096386,,,,,,,,,,,,,,,,,,,,,,,,,,,,,,,,,,,,,,,,,,,,,,,,,,,,,俺,i,,,i,1,0.8384,1,20,100,74,1,,
,,,,,,,,,,,,,1,001,2025-01-02_13h09.35.702,IAT(Formal),2021.2.3,Win32,60.24096386,,,,,,,,,,,,,,,,,,,,,,,,,,,,,,,,,,,,,,,,,,,,,,,,,,,,,固执,i,,,i,1,0.8507,1,21,101,47,1,,
,,,,,,,,,,,,,1,001,2025-01-02_13h09.35.702,IAT(Formal),2021.2.3,Win32,60.24096386,,,,,,,,,,,,,,,,,,,,,,,,,,,,,,,,,,,,,,,,,,,,,,,,,,,,,他们,e,,,e,1,0.5836,1,22,102,56,1,,
,,,,,,,,,,,,,1,001,2025-01-02_13h09.35.702,IAT(Formal),2021.2.3,Win32,60.24096386,,,,,,,,,,,,,,,,,,,,,,,,,,,,,,,,,,,,,,,,,,,,,,,,,,,,,诚恳,e,,,e,1,0.5725,1,23,103,29,1,,
,,,,,,,,,,,,,1,001,2025-01-02_13h09.35.702,IAT(Formal),2021.2.3,Win32,60.24096386,,,,,,,,,,,,,,,,,,,,,,,,,,,,,,,,,,,,,,,,,,,,,,,,,,,,,他的,e,,,i,0,0.6382,1,24,104,57,1,,
,,,,,,,,,,,,,1,001,2025-01-02_13h09.35.702,IAT(Formal),2021.2.3,Win32,60.24096386,,,,,,,,,,,,,,,,,,,,,,,,,,,,,,,,,,,,,,,,,,,,,,,,,,,,,傲慢,i,,,i,1,0.795,1,25,105,37,1,,
,,,,,,,,,,,,,1,001,2025-01-02_13h09.35.702,IAT(Formal),2021.2.3,Win32,60.24096386,,,,,,,,,,,,,,,,,,,,,,,,,,,,,,,,,,,,,,,,,,,,,,,,,,,,,朴实,e,,,e,1,0.5892,1,26,106,24,1,,
,,,,,,,,,,,,,1,001,2025-01-02_13h09.35.702,IAT(Formal),2021.2.3,Win32,60.24096386,,,,,,,,,,,,,,,,,,,,,,,,,,,,,,,,,,,,,,,,,,,,,,,,,,,,,他,e,,,e,1,0.6498,1,27,107,55,1,,
,,,,,,,,,,,,,1,001,2025-01-02_13h09.35.702,IAT(Formal),2021.2.3,Win32,60.24096386,,,,,,,,,,,,,,,,,,,,,,,,,,,,,,,,,,,,,,,,,,,,,,,,,,,,,自己,i,,,i,1,0.5952,1,28,108,73,1,,
,,,,,,,,,,,,,1,001,2025-01-02_13h09.35.702,IAT(Formal),2021.2.3,Win32,60.24096386,,,,,,,,,,,,,,,,,,,,,,,,,,,,,,,,,,,,,,,,,,,,,,,,,,,,,他的,e,,,e,1,0.8865,1,29,109,7,1,,
,,,,,,,,,,,,,1,001,2025-01-02_13h09.35.702,IAT(Formal),2021.2.3,Win32,60.24096386,,,,,,,,,,,,,,,,,,,,,,,,,,,,,,,,,,,,,,,,,,,,,,,,,,,,,刻薄,i,,,i,1,0.8001,1,30,110,33,1,,
,,,,,,,,,,,,,1,001,2025-01-02_13h09.35.702,IAT(Formal),2021.2.3,Win32,60.24096386,,,,,,,,,,,,,,,,,,,,,,,,,,,,,,,,,,,,,,,,,,,,,,,,,,,,,悲观,i,,,i,1,0.7613,1,31,111,34,1,,
,,,,,,,,,,,,,1,001,2025-01-02_13h09.35.702,IAT(Formal),2021.2.3,Win32,60.24096386,,,,,,,,,,,,,,,,,,,,,,,,,,,,,,,,,,,,,,,,,,,,,,,,,,,,,我,i,,,i,1,0.7248,1,32,112,70,1,,
,,,,,,,,,,,,,1,001,2025-01-02_13h09.35.702,IAT(Formal),2021.2.3,Win32,60.24096386,,,,,,,,,,,,,,,,,,,,,,,,,,,,,,,,,,,,,,,,,,,,,,,,,,,,,活泼,e,,,i,0,0.7216,1,33,113,28,1,,
,,,,,,,,,,,,,1,001,2025-01-02_13h09.35.702,IAT(Formal),2021.2.3,Win32,60.24096386,,,,,,,,,,,,,,,,,,,,,,,,,,,,,,,,,,,,,,,,,,,,,,,,,,,,,愚蠢,i,,,i,1,0.5683,1,34,114,32,1,,
,,,,,,,,,,,,,1,001,2025-01-02_13h09.35.702,IAT(Formal),2021.2.3,Win32,60.24096386,,,,,,,,,,,,,,,,,,,,,,,,,,,,,,,,,,,,,,,,,,,,,,,,,,,,,他,e,,,e,1,0.6018,1,35,115,5,1,,
,,,,,,,,,,,,,1,001,2025-01-02_13h09.35.702,IAT(Formal),2021.2.3,Win32,60.24096386,,,,,,,,,,,,,,,,,,,,,,,,,,,,,,,,,,,,,,,,,,,,,,,,,,,,,崇高,e,,,e,1,1.1223,1,36,116,11,1,,
,,,,,,,,,,,,,1,001,2025-01-02_13h09.35.702,IAT(Formal),2021.2.3,Win32,60.24096386,,,,,,,,,,,,,,,,,,,,,,,,,,,,,,,,,,,,,,,,,,,,,,,,,,,,,冷静,e,,,e,1,0.5233,1,37,117,26,1,,
,,,,,,,,,,,,,1,001,2025-01-02_13h09.35.702,IAT(Formal),2021.2.3,Win32,60.24096386,,,,,,,,,,,,,,,,,,,,,,,,,,,,,,,,,,,,,,,,,,,,,,,,,,,,,自己,i,,,i,1,1.3378,1,38,118,3,1,,
,,,,,,,,,,,,,1,001,2025-01-02_13h09.35.702,IAT(Formal),2021.2.3,Win32,60.24096386,,,,,,,,,,,,,,,,,,,,,,,,,,,,,,,,,,,,,,,,,,,,,,,,,,,,,我,i,,,i,1,0.407,1,39,119,50,1,,
,,,,,,,,,,,,,1,001,2025-01-02_13h09.35.702,IAT(Formal),2021.2.3,Win32,60.24096386,,,,,,,,,,,,,,,,,,,,,,,,,,,,,,,,,,,,,,,,,,,,,,,,,,,,,他人,e,,,e,1,0.5696,1,40,120,58,1,,
,,,,,,,,,,,,,1,001,2025-01-02_13h09.35.702,IAT(Formal),2021.2.3,Win32,60.24096386,,,,,,,,,,,,,,,,,,,,,,,,,,,,,,,,,,,,,,,,,,,,,,,,,,,,,乐观,e,,,e,1,0.7088,1,41,121,14,1,,
,,,,,,,,,,,,,1,001,2025-01-02_13h09.35.702,IAT(Formal),2021.2.3,Win32,60.24096386,,,,,,,,,,,,,,,,,,,,,,,,,,,,,,,,,,,,,,,,,,,,,,,,,,,,,暴躁,i,,,i,1,0.7503,1,42,122,44,1,,
,,,,,,,,,,,,,1,001,2025-01-02_13h09.35.702,IAT(Formal),2021.2.3,Win32,60.24096386,,,,,,,,,,,,,,,,,,,,,,,,,,,,,,,,,,,,,,,,,,,,,,,,,,,,,鲁莽,i,,,i,1,0.5341,1,43,123,38,1,,
,,,,,,,,,,,,,1,001,2025-01-02_13h09.35.702,IAT(Formal),2021.2.3,Win32,60.24096386,,,,,,,,,,,,,,,,,,,,,,,,,,,,,,,,,,,,,,,,,,,,,,,,,,,,,勤奋,e,,,e,1,0.6015,1,44,124,18,1,,
,,,,,,,,,,,,,1,001,2025-01-02_13h09.35.702,IAT(Formal),2021.2.3,Win32,60.24096386,,,,,,,,,,,,,,,,,,,,,,,,,,,,,,,,,,,,,,,,,,,,,,,,,,,,,他,e,,,e,1,0.5671,1,45,125,75,1,,
,,,,,,,,,,,,,1,001,2025-01-02_13h09.35.702,IAT(Formal),2021.2.3,Win32,60.24096386,,,,,,,,,,,,,,,,,,,,,,,,,,,,,,,,,,,,,,,,,,,,,,,,,,,,,我,i,,,i,1,0.5097,1,46,126,60,1,,
,,,,,,,,,,,,,1,001,2025-01-02_13h09.35.702,IAT(Formal),2021.2.3,Win32,60.24096386,,,,,,,,,,,,,,,,,,,,,,,,,,,,,,,,,,,,,,,,,,,,,,,,,,,,,其他,e,,,e,1,1.2995,1,47,127,79,1,,
,,,,,,,,,,,,,1,001,2025-01-02_13h09.35.702,IAT(Formal),2021.2.3,Win32,60.24096386,,,,,,,,,,,,,,,,,,,,,,,,,,,,,,,,,,,,,,,,,,,,,,,,,,,,,细腻,e,,,i,0,1.0239,1,48,128,25,1,,
,,,,,,,,,,,,,1,001,2025-01-02_13h09.35.702,IAT(Formal),2021.2.3,Win32,60.24096386,,,,,,,,,,,,,,,,,,,,,,,,,,,,,,,,,,,,,,,,,,,,,,,,,,,,,我的,i,,,i,1,0.8189,1,49,129,61,1,,
,,,,,,,,,,,,,1,001,2025-01-02_13h09.35.702,IAT(Formal),2021.2.3,Win32,60.24096386,,,,,,,,,,,,,,,,,,,,,,,,,,,,,,,,,,,,,,,,,,,,,,,,,,,,,俺,i,,,i,1,0.5902,1,50,130,4,1,,
,,,,,,,,,,,,,1,001,2025-01-02_13h09.35.702,IAT(Formal),2021.2.3,Win32,60.24096386,,,,,,,,,,,,,,,,,,,,,,,,,,,,,,,,,,,,,,,,,,,,,,,,,,,,,我的,i,,,i,1,0.3702,1,51,131,71,1,,
,,,,,,,,,,,,,1,001,2025-01-02_13h09.35.702,IAT(Formal),2021.2.3,Win32,60.24096386,,,,,,,,,,,,,,,,,,,,,,,,,,,,,,,,,,,,,,,,,,,,,,,,,,,,,其他,e,,,i,0,0.4705,1,52,132,59,1,,
,,,,,,,,,,,,,1,001,2025-01-02_13h09.35.702,IAT(Formal),2021.2.3,Win32,60.24096386,,,,,,,,,,,,,,,,,,,,,,,,,,,,,,,,,,,,,,,,,,,,,,,,,,,,,轻率,i,,,i,1,0.6837,1,53,133,48,1,,
,,,,,,,,,,,,,1,001,2025-01-02_13h09.35.702,IAT(Formal),2021.2.3,Win32,60.24096386,,,,,,,,,,,,,,,,,,,,,,,,,,,,,,,,,,,,,,,,,,,,,,,,,,,,,他人,e,,,e,1,0.5676,1,54,134,78,1,,
,,,,,,,,,,,,,1,001,2025-01-02_13h09.35.702,IAT(Formal),2021.2.3,Win32,60.24096386,,,,,,,,,,,,,,,,,,,,,,,,,,,,,,,,,,,,,,,,,,,,,,,,,,,,,我们,i,,,i,1,0.7016,1,55,135,2,1,,
,,,,,,,,,,,,,1,001,2025-01-02_13h09.35.702,IAT(Formal),2021.2.3,Win32,60.24096386,,,,,,,,,,,,,,,,,,,,,,,,,,,,,,,,,,,,,,,,,,,,,,,,,,,,,机智,e,,,i,0,0.6833,1,56,136,19,1,,
,,,,,,,,,,,,,1,001,2025-01-02_13h09.35.702,IAT(Formal),2021.2.3,Win32,60.24096386,,,,,,,,,,,,,,,,,,,,,,,,,,,,,,,,,,,,,,,,,,,,,,,,,,,,,散漫,i,,,i,1,0.5055,1,57,137,41,1,,
,,,,,,,,,,,,,1,001,2025-01-02_13h09.35.702,IAT(Formal),2021.2.3,Win32,60.24096386,,,,,,,,,,,,,,,,,,,,,,,,,,,,,,,,,,,,,,,,,,,,,,,,,,,,,他们,e,,,e,1,0.7675,1,58,138,6,1,,
,,,,,,,,,,,,,1,001,2025-01-02_13h09.35.702,IAT(Formal),2021.2.3,Win32,60.24096386,,,,,,,,,,,,,,,,,,,,,,,,,,,,,,,,,,,,,,,,,,,,,,,,,,,,,我们,i,,,i,1,0.55,1,59,139,72,1,,
,,,,,,,,,,,,,1,001,2025-01-02_13h09.35.702,IAT(Formal),2021.2.3,Win32,60.24096386,,,,,,,,,,,,,,,,,,,,,,,,,,,,,,,,,,,,,,,,,,,,,,,,,,,,,自己,i,,,i,1,0.4796,1,60,140,63,1,,
,,,,,,,,,,,,,1,001,2025-01-02_13h09.35.702,IAT(Formal),2021.2.3,Win32,60.24096386,,,,,,,,,,,,,,,,,,,,,,,,,,,,,,,,,,,,,,,,,,,,,,,,,,,,,我们,i,,,i,1,0.4165,1,61,141,62,1,,
,,,,,,,,,,,,,1,001,2025-01-02_13h09.35.702,IAT(Formal),2021.2.3,Win32,60.24096386,,,,,,,,,,,,,,,,,,,,,,,,,,,,,,,,,,,,,,,,,,,,,,,,,,,,,虚伪,i,,,i,1,1.2301,1,62,142,31,1,,
,,,,,,,,,,,,,1,001,2025-01-02_13h09.35.702,IAT(Formal),2021.2.3,Win32,60.24096386,,,,,,,,,,,,,,,,,,,,,,,,,,,,,,,,,,,,,,,,,,,,,,,,,,,,,野蛮,i,,,i,1,0.4893,1,63,143,46,1,,
,,,,,,,,,,,,,1,001,2025-01-02_13h09.35.702,IAT(Formal),2021.2.3,Win32,60.24096386,,,,,,,,,,,,,,,,,,,,,,,,,,,,,,,,,,,,,,,,,,,,,,,,,,,,,我的,i,,,i,1,0.4636,1,64,144,1,1,,
,,,,,,,,,,,,,1,001,2025-01-02_13h09.35.702,IAT(Formal),2021.2.3,Win32,60.24096386,,,,,,,,,,,,,,,,,,,,,,,,,,,,,,,,,,,,,,,,,,,,,,,,,,,,,公正,e,,,e,1,0.7852,1,65,145,23,1,,
,,,,,,,,,,,,,1,001,2025-01-02_13h09.35.702,IAT(Formal),2021.2.3,Win32,60.24096386,,,,,,,,,,,,,,,,,,,,,,,,,,,,,,,,,,,,,,,,,,,,,,,,,,,,,俺,i,,,i,1,0.5456,1,66,146,54,1,,
,,,,,,,,,,,,,1,001,2025-01-02_13h09.35.702,IAT(Formal),2021.2.3,Win32,60.24096386,,,,,,,,,,,,,,,,,,,,,,,,,,,,,,,,,,,,,,,,,,,,,,,,,,,,,我的,i,,,i,1,0.4023,1,67,147,51,1,,
,,,,,,,,,,,,,1,001,2025-01-02_13h09.35.702,IAT(Formal),2021.2.3,Win32,60.24096386,,,,,,,,,,,,,,,,,,,,,,,,,,,,,,,,,,,,,,,,,,,,,,,,,,,,,凶狠,i,,,i,1,0.621,1,68,148,42,1,,
,,,,,,,,,,,,,1,001,2025-01-02_13h09.35.702,IAT(Formal),2021.2.3,Win32,60.24096386,,,,,,,,,,,,,,,,,,,,,,,,,,,,,,,,,,,,,,,,,,,,,,,,,,,,,勇敢,e,,,i,0,0.4926,1,69,149,17,1,,
,,,,,,,,,,,,,1,001,2025-01-02_13h09.35.702,IAT(Formal),2021.2.3,Win32,60.24096386,,,,,,,,,,,,,,,,,,,,,,,,,,,,,,,,,,,,,,,,,,,,,,,,,,,,,自卑,i,,,i,1,0.6287,1,70,150,36,1,,
,,,,,,,,,,,,,1,001,2025-01-02_13h09.35.702,IAT(Formal),2021.2.3,Win32,60.24096386,,,,,,,,,,,,,,,,,,,,,,,,,,,,,,,,,,,,,,,,,,,,,,,,,,,,,他人,e,,,e,1,0.7291,1,71,151,8,1,,
,,,,,,,,,,,,,1,001,2025-01-02_13h09.35.702,IAT(Formal),2021.2.3,Win32,60.24096386,,,,,,,,,,,,,,,,,,,,,,,,,,,,,,,,,,,,,,,,,,,,,,,,,,,,,其他,e,,,e,1,0.7419,1,72,152,69,1,,
,,,,,,,,,,,,,1,001,2025-01-02_13h09.35.702,IAT(Formal),2021.2.3,Win32,60.24096386,,,,,,,,,,,,,,,,,,,,,,,,,,,,,,,,,,,,,,,,,,,,,,,,,,,,,下贱,i,,,i,1,0.6791,1,73,153,49,1,,
,,,,,,,,,,,,,1,001,2025-01-02_13h09.35.702,IAT(Formal),2021.2.3,Win32,60.24096386,,,,,,,,,,,,,,,,,,,,,,,,,,,,,,,,,,,,,,,,,,,,,,,,,,,,,我,i,,,i,1,0.531,1,74,154,0,1,,
,,,,,,,,,,,,,1,001,2025-01-02_13h09.35.702,IAT(Formal),2021.2.3,Win32,60.24096386,,,,,,,,,,,,,,,,,,,,,,,,,,,,,,,,,,,,,,,,,,,,,,,,,,,,,他人,e,,,e,1,0.5582,1,75,155,68,1,,
,,,,,,,,,,,,,1,001,2025-01-02_13h09.35.702,IAT(Formal),2021.2.3,Win32,60.24096386,,,,,,,,,,,,,,,,,,,,,,,,,,,,,,,,,,,,,,,,,,,,,,,,,,,,,其他,e,,,e,1,0.4633,1,76,156,9,1,,
,,,,,,,,,,,,,1,001,2025-01-02_13h09.35.702,IAT(Formal),2021.2.3,Win32,60.24096386,,,,,,,,,,,,,,,,,,,,,,,,,,,,,,,,,,,,,,,,,,,,,,,,,,,,,热情,e,,,i,0,0.7733,1,77,157,27,1,,
,,,,,,,,,,,,,1,001,2025-01-02_13h09.35.702,IAT(Formal),2021.2.3,Win32,60.24096386,,,,,,,,,,,,,,,,,,,,,,,,,,,,,,,,,,,,,,,,,,,,,,,,,,,,,消极,i,,,e,0,0.9925,1,78,158,35,1,,
,,,,,,,,,,,,,1,001,2025-01-02_13h09.35.702,IAT(Formal),2021.2.3,Win32,60.24096386,,,,,,,,,,,,,,,,,,,,,,,,,,,,,,,,,,,,,,,,,,,,,,,,,,,,,卑鄙,i,,,i,1,0.5551,1,79,159,30,1,,
,,,,,,,,,,,,,1,001,2025-01-02_13h09.35.702,IAT(Formal),2021.2.3,Win32,60.24096386,,,,,,,,,,,,,,,,,,,,,,,,,,,,,,,,,,,,,,,,,,,,,,,,,,,,,,,,,,,,,,,,,space,0.8958