﻿Instruction1.keys,Instruction1.rt,Instruction2.keys,Instruction2.rt,key_resp_iso.keys,key_resp_iso.corr,key_resp_iso.rt,Practice_01.thisRepN,Practice_01.thisTrialN,Practice_01.thisN,Practice_01.thisIndex,Practice_01.ran,Words,ans,participant,session,date,expName,psychopyVersion,OS,frameRate,key_resp_3.keys,key_resp_3.rt,key_resp_ipn.keys,key_resp_ipn.corr,key_resp_ipn.rt,Practice_02.thisRepN,Practice_02.thisTrialN,Practice_02.thisN,Practice_02.thisIndex,Practice_02.ran,Words_ipn,ans_ipn,key_resp_4.keys,key_resp_4.rt,key_resp_t1.keys,key_resp_t1.corr,key_resp_t1.rt,Practice_T1.thisRepN,Practice_T1.thisTrialN,Practice_T1.thisN,Practice_T1.thisIndex,Practice_T1.ran,Words_t1,ans_t1,key_resp_5.keys,key_resp_5.rt,Formal_T1.thisRepN,Formal_T1.thisTrialN,Formal_T1.thisN,Formal_T1.thisIndex,Formal_T1.ran,key_resp_6.keys,key_resp_6.rt,key_resp_iso_reverse.keys,key_resp_iso_reverse.corr,key_resp_iso_reverse.rt,Practice_iso_Reverse.thisRepN,Practice_iso_Reverse.thisTrialN,Practice_iso_Reverse.thisN,Practice_iso_Reverse.thisIndex,Practice_iso_Reverse.ran,key_resp_7.keys,key_resp_7.rt,key_resp_t2_Practice.keys,key_resp_t2_Practice.corr,key_resp_t2_Practice.rt,Practice_t2_Reverse.thisRepN,Practice_t2_Reverse.thisTrialN,Practice_t2_Reverse.thisN,Practice_t2_Reverse.thisIndex,Practice_t2_Reverse.ran,Words_t2,ans_t2,key_resp_8.keys,key_resp_8.rt,key_resp_t2.keys,key_resp_t2.corr,key_resp_t2.rt,Formal_t2_reverse.thisRepN,Formal_t2_reverse.thisTrialN,Formal_t2_reverse.thisN,Formal_t2_reverse.thisIndex,Formal_t2_reverse.ran,key_instruct.keys,key_instruct.rt
space,31.949,space,88.166,i,1,0.625,0,0,0,9,1,其他,i,大米O.O,001,2025-01-02_14h17.25.287,IAT(Formal),2021.2.3,Win32,60.0240096,,,,,,,,,,,,,,,,,,,,,,,,,,,,,,,,,,,,,,,,,,,,,,,,,,,,,,,,,,,,,,,,,
,,,,e,1,0.53,0,1,1,3,1,自己,e,大米O.O,001,2025-01-02_14h17.25.287,IAT(Formal),2021.2.3,Win32,60.0240096,,,,,,,,,,,,,,,,,,,,,,,,,,,,,,,,,,,,,,,,,,,,,,,,,,,,,,,,,,,,,,,,,
,,,,i,1,0.441,0,2,2,6,1,他们,i,大米O.O,001,2025-01-02_14h17.25.287,IAT(Formal),2021.2.3,Win32,60.0240096,,,,,,,,,,,,,,,,,,,,,,,,,,,,,,,,,,,,,,,,,,,,,,,,,,,,,,,,,,,,,,,,,
,,,,i,1,0.569,0,3,3,5,1,他,i,大米O.O,001,2025-01-02_14h17.25.287,IAT(Formal),2021.2.3,Win32,60.0240096,,,,,,,,,,,,,,,,,,,,,,,,,,,,,,,,,,,,,,,,,,,,,,,,,,,,,,,,,,,,,,,,,
,,,,i,1,0.395,0,4,4,8,1,他人,i,大米O.O,001,2025-01-02_14h17.25.287,IAT(Formal),2021.2.3,Win32,60.0240096,,,,,,,,,,,,,,,,,,,,,,,,,,,,,,,,,,,,,,,,,,,,,,,,,,,,,,,,,,,,,,,,,
,,,,e,1,0.438,0,5,5,2,1,我们,e,大米O.O,001,2025-01-02_14h17.25.287,IAT(Formal),2021.2.3,Win32,60.0240096,,,,,,,,,,,,,,,,,,,,,,,,,,,,,,,,,,,,,,,,,,,,,,,,,,,,,,,,,,,,,,,,,
,,,,i,0,0.454,0,6,6,4,1,俺,e,大米O.O,001,2025-01-02_14h17.25.287,IAT(Formal),2021.2.3,Win32,60.0240096,,,,,,,,,,,,,,,,,,,,,,,,,,,,,,,,,,,,,,,,,,,,,,,,,,,,,,,,,,,,,,,,,
,,,,e,1,0.415,0,7,7,0,1,我,e,大米O.O,001,2025-01-02_14h17.25.287,IAT(Formal),2021.2.3,Win32,60.0240096,,,,,,,,,,,,,,,,,,,,,,,,,,,,,,,,,,,,,,,,,,,,,,,,,,,,,,,,,,,,,,,,,
,,,,i,1,0.428,0,8,8,7,1,他的,i,大米O.O,001,2025-01-02_14h17.25.287,IAT(Formal),2021.2.3,Win32,60.0240096,,,,,,,,,,,,,,,,,,,,,,,,,,,,,,,,,,,,,,,,,,,,,,,,,,,,,,,,,,,,,,,,,
,,,,e,1,0.446,0,9,9,1,1,我的,e,大米O.O,001,2025-01-02_14h17.25.287,IAT(Formal),2021.2.3,Win32,60.0240096,,,,,,,,,,,,,,,,,,,,,,,,,,,,,,,,,,,,,,,,,,,,,,,,,,,,,,,,,,,,,,,,,
,,,,,,,,,,,,,,大米O.O,001,2025-01-02_14h17.25.287,IAT(Formal),2021.2.3,Win32,60.0240096,space,7.616,i,1,0.98,0,0,0,22,1,愚蠢,i,,,,,,,,,,,,,,,,,,,,,,,,,,,,,,,,,,,,,,,,,,,,,,,,,,,,,
,,,,,,,,,,,,,,大米O.O,001,2025-01-02_14h17.25.287,IAT(Formal),2021.2.3,Win32,60.0240096,,,i,1,0.612,0,1,1,30,1,执拗,i,,,,,,,,,,,,,,,,,,,,,,,,,,,,,,,,,,,,,,,,,,,,,,,,,,,,,
,,,,,,,,,,,,,,大米O.O,001,2025-01-02_14h17.25.287,IAT(Formal),2021.2.3,Win32,60.0240096,,,e,1,0.503,0,2,2,7,1,勇敢,e,,,,,,,,,,,,,,,,,,,,,,,,,,,,,,,,,,,,,,,,,,,,,,,,,,,,,
,,,,,,,,,,,,,,大米O.O,001,2025-01-02_14h17.25.287,IAT(Formal),2021.2.3,Win32,60.0240096,,,i,1,0.486,0,3,3,24,1,悲观,i,,,,,,,,,,,,,,,,,,,,,,,,,,,,,,,,,,,,,,,,,,,,,,,,,,,,,
,,,,,,,,,,,,,,大米O.O,001,2025-01-02_14h17.25.287,IAT(Formal),2021.2.3,Win32,60.0240096,,,e,1,0.83,0,4,4,15,1,细腻,e,,,,,,,,,,,,,,,,,,,,,,,,,,,,,,,,,,,,,,,,,,,,,,,,,,,,,
,,,,,,,,,,,,,,大米O.O,001,2025-01-02_14h17.25.287,IAT(Formal),2021.2.3,Win32,60.0240096,,,i,1,0.59,0,5,5,23,1,刻薄,i,,,,,,,,,,,,,,,,,,,,,,,,,,,,,,,,,,,,,,,,,,,,,,,,,,,,,
,,,,,,,,,,,,,,大米O.O,001,2025-01-02_14h17.25.287,IAT(Formal),2021.2.3,Win32,60.0240096,,,e,1,0.835,0,6,6,16,1,冷静,e,,,,,,,,,,,,,,,,,,,,,,,,,,,,,,,,,,,,,,,,,,,,,,,,,,,,,
,,,,,,,,,,,,,,大米O.O,001,2025-01-02_14h17.25.287,IAT(Formal),2021.2.3,Win32,60.0240096,,,i,1,0.824,0,7,7,37,1,固执,i,,,,,,,,,,,,,,,,,,,,,,,,,,,,,,,,,,,,,,,,,,,,,,,,,,,,,
,,,,,,,,,,,,,,大米O.O,001,2025-01-02_14h17.25.287,IAT(Formal),2021.2.3,Win32,60.0240096,,,e,1,0.852,0,8,8,12,1,无私,e,,,,,,,,,,,,,,,,,,,,,,,,,,,,,,,,,,,,,,,,,,,,,,,,,,,,,
,,,,,,,,,,,,,,大米O.O,001,2025-01-02_14h17.25.287,IAT(Formal),2021.2.3,Win32,60.0240096,,,i,1,0.669,0,9,9,31,1,散漫,i,,,,,,,,,,,,,,,,,,,,,,,,,,,,,,,,,,,,,,,,,,,,,,,,,,,,,
,,,,,,,,,,,,,,大米O.O,001,2025-01-02_14h17.25.287,IAT(Formal),2021.2.3,Win32,60.0240096,,,i,1,0.713,0,10,10,29,1,冒失,i,,,,,,,,,,,,,,,,,,,,,,,,,,,,,,,,,,,,,,,,,,,,,,,,,,,,,
,,,,,,,,,,,,,,大米O.O,001,2025-01-02_14h17.25.287,IAT(Formal),2021.2.3,Win32,60.0240096,,,e,1,0.542,0,11,11,0,1,优秀,e,,,,,,,,,,,,,,,,,,,,,,,,,,,,,,,,,,,,,,,,,,,,,,,,,,,,,
,,,,,,,,,,,,,,大米O.O,001,2025-01-02_14h17.25.287,IAT(Formal),2021.2.3,Win32,60.0240096,,,i,1,0.504,0,12,12,35,1,猖狂,i,,,,,,,,,,,,,,,,,,,,,,,,,,,,,,,,,,,,,,,,,,,,,,,,,,,,,
,,,,,,,,,,,,,,大米O.O,001,2025-01-02_14h17.25.287,IAT(Formal),2021.2.3,Win32,60.0240096,,,e,1,0.605,0,13,13,19,1,诚恳,e,,,,,,,,,,,,,,,,,,,,,,,,,,,,,,,,,,,,,,,,,,,,,,,,,,,,,
,,,,,,,,,,,,,,大米O.O,001,2025-01-02_14h17.25.287,IAT(Formal),2021.2.3,Win32,60.0240096,,,e,1,0.724,0,14,14,13,1,公正,e,,,,,,,,,,,,,,,,,,,,,,,,,,,,,,,,,,,,,,,,,,,,,,,,,,,,,
,,,,,,,,,,,,,,大米O.O,001,2025-01-02_14h17.25.287,IAT(Formal),2021.2.3,Win32,60.0240096,,,i,1,0.536,0,15,15,26,1,自卑,i,,,,,,,,,,,,,,,,,,,,,,,,,,,,,,,,,,,,,,,,,,,,,,,,,,,,,
,,,,,,,,,,,,,,大米O.O,001,2025-01-02_14h17.25.287,IAT(Formal),2021.2.3,Win32,60.0240096,,,e,1,0.502,0,16,16,18,1,活泼,e,,,,,,,,,,,,,,,,,,,,,,,,,,,,,,,,,,,,,,,,,,,,,,,,,,,,,
,,,,,,,,,,,,,,大米O.O,001,2025-01-02_14h17.25.287,IAT(Formal),2021.2.3,Win32,60.0240096,,,e,1,0.519,0,17,17,5,1,诚实,e,,,,,,,,,,,,,,,,,,,,,,,,,,,,,,,,,,,,,,,,,,,,,,,,,,,,,
,,,,,,,,,,,,,,大米O.O,001,2025-01-02_14h17.25.287,IAT(Formal),2021.2.3,Win32,60.0240096,,,i,1,0.568,0,18,18,32,1,凶狠,i,,,,,,,,,,,,,,,,,,,,,,,,,,,,,,,,,,,,,,,,,,,,,,,,,,,,,
,,,,,,,,,,,,,,大米O.O,001,2025-01-02_14h17.25.287,IAT(Formal),2021.2.3,Win32,60.0240096,,,i,1,0.637,0,19,19,25,1,消极,i,,,,,,,,,,,,,,,,,,,,,,,,,,,,,,,,,,,,,,,,,,,,,,,,,,,,,
,,,,,,,,,,,,,,大米O.O,001,2025-01-02_14h17.25.287,IAT(Formal),2021.2.3,Win32,60.0240096,,,e,1,0.588,0,20,20,9,1,机智,e,,,,,,,,,,,,,,,,,,,,,,,,,,,,,,,,,,,,,,,,,,,,,,,,,,,,,
,,,,,,,,,,,,,,大米O.O,001,2025-01-02_14h17.25.287,IAT(Formal),2021.2.3,Win32,60.0240096,,,e,1,0.431,0,21,21,10,1,认真,e,,,,,,,,,,,,,,,,,,,,,,,,,,,,,,,,,,,,,,,,,,,,,,,,,,,,,
,,,,,,,,,,,,,,大米O.O,001,2025-01-02_14h17.25.287,IAT(Formal),2021.2.3,Win32,60.0240096,,,i,1,0.738,0,22,22,20,1,卑鄙,i,,,,,,,,,,,,,,,,,,,,,,,,,,,,,,,,,,,,,,,,,,,,,,,,,,,,,
,,,,,,,,,,,,,,大米O.O,001,2025-01-02_14h17.25.287,IAT(Formal),2021.2.3,Win32,60.0240096,,,e,1,0.567,0,23,23,1,1,崇高,e,,,,,,,,,,,,,,,,,,,,,,,,,,,,,,,,,,,,,,,,,,,,,,,,,,,,,
,,,,,,,,,,,,,,大米O.O,001,2025-01-02_14h17.25.287,IAT(Formal),2021.2.3,Win32,60.0240096,,,i,1,0.506,0,24,24,27,1,傲慢,i,,,,,,,,,,,,,,,,,,,,,,,,,,,,,,,,,,,,,,,,,,,,,,,,,,,,,
,,,,,,,,,,,,,,大米O.O,001,2025-01-02_14h17.25.287,IAT(Formal),2021.2.3,Win32,60.0240096,,,e,1,0.452,0,25,25,6,1,正直,e,,,,,,,,,,,,,,,,,,,,,,,,,,,,,,,,,,,,,,,,,,,,,,,,,,,,,
,,,,,,,,,,,,,,大米O.O,001,2025-01-02_14h17.25.287,IAT(Formal),2021.2.3,Win32,60.0240096,,,i,1,0.766,0,26,26,36,1,野蛮,i,,,,,,,,,,,,,,,,,,,,,,,,,,,,,,,,,,,,,,,,,,,,,,,,,,,,,
,,,,,,,,,,,,,,大米O.O,001,2025-01-02_14h17.25.287,IAT(Formal),2021.2.3,Win32,60.0240096,,,i,1,0.539,0,27,27,34,1,暴躁,i,,,,,,,,,,,,,,,,,,,,,,,,,,,,,,,,,,,,,,,,,,,,,,,,,,,,,
,,,,,,,,,,,,,,大米O.O,001,2025-01-02_14h17.25.287,IAT(Formal),2021.2.3,Win32,60.0240096,,,e,1,0.471,0,28,28,17,1,热情,e,,,,,,,,,,,,,,,,,,,,,,,,,,,,,,,,,,,,,,,,,,,,,,,,,,,,,
,,,,,,,,,,,,,,大米O.O,001,2025-01-02_14h17.25.287,IAT(Formal),2021.2.3,Win32,60.0240096,,,e,1,0.771,0,29,29,11,1,稳重,e,,,,,,,,,,,,,,,,,,,,,,,,,,,,,,,,,,,,,,,,,,,,,,,,,,,,,
,,,,,,,,,,,,,,大米O.O,001,2025-01-02_14h17.25.287,IAT(Formal),2021.2.3,Win32,60.0240096,,,e,1,0.54,0,30,30,2,1,聪明,e,,,,,,,,,,,,,,,,,,,,,,,,,,,,,,,,,,,,,,,,,,,,,,,,,,,,,
,,,,,,,,,,,,,,大米O.O,001,2025-01-02_14h17.25.287,IAT(Formal),2021.2.3,Win32,60.0240096,,,i,1,0.464,0,31,31,28,1,鲁莽,i,,,,,,,,,,,,,,,,,,,,,,,,,,,,,,,,,,,,,,,,,,,,,,,,,,,,,
,,,,,,,,,,,,,,大米O.O,001,2025-01-02_14h17.25.287,IAT(Formal),2021.2.3,Win32,60.0240096,,,i,1,0.713,0,32,32,39,1,下贱,i,,,,,,,,,,,,,,,,,,,,,,,,,,,,,,,,,,,,,,,,,,,,,,,,,,,,,
,,,,,,,,,,,,,,大米O.O,001,2025-01-02_14h17.25.287,IAT(Formal),2021.2.3,Win32,60.0240096,,,e,1,0.501,0,33,33,3,1,杰出,e,,,,,,,,,,,,,,,,,,,,,,,,,,,,,,,,,,,,,,,,,,,,,,,,,,,,,
,,,,,,,,,,,,,,大米O.O,001,2025-01-02_14h17.25.287,IAT(Formal),2021.2.3,Win32,60.0240096,,,i,1,0.643,0,34,34,33,1,自私,i,,,,,,,,,,,,,,,,,,,,,,,,,,,,,,,,,,,,,,,,,,,,,,,,,,,,,
,,,,,,,,,,,,,,大米O.O,001,2025-01-02_14h17.25.287,IAT(Formal),2021.2.3,Win32,60.0240096,,,i,1,0.79,0,35,35,21,1,虚伪,i,,,,,,,,,,,,,,,,,,,,,,,,,,,,,,,,,,,,,,,,,,,,,,,,,,,,,
,,,,,,,,,,,,,,大米O.O,001,2025-01-02_14h17.25.287,IAT(Formal),2021.2.3,Win32,60.0240096,,,e,1,0.629,0,36,36,8,1,勤奋,e,,,,,,,,,,,,,,,,,,,,,,,,,,,,,,,,,,,,,,,,,,,,,,,,,,,,,
,,,,,,,,,,,,,,大米O.O,001,2025-01-02_14h17.25.287,IAT(Formal),2021.2.3,Win32,60.0240096,,,i,1,0.57,0,37,37,38,1,轻率,i,,,,,,,,,,,,,,,,,,,,,,,,,,,,,,,,,,,,,,,,,,,,,,,,,,,,,
,,,,,,,,,,,,,,大米O.O,001,2025-01-02_14h17.25.287,IAT(Formal),2021.2.3,Win32,60.0240096,,,e,1,0.487,0,38,38,14,1,朴实,e,,,,,,,,,,,,,,,,,,,,,,,,,,,,,,,,,,,,,,,,,,,,,,,,,,,,,
,,,,,,,,,,,,,,大米O.O,001,2025-01-02_14h17.25.287,IAT(Formal),2021.2.3,Win32,60.0240096,,,e,1,0.553,0,39,39,4,1,乐观,e,,,,,,,,,,,,,,,,,,,,,,,,,,,,,,,,,,,,,,,,,,,,,,,,,,,,,
,,,,,,,,,,,,,,大米O.O,001,2025-01-02_14h17.25.287,IAT(Formal),2021.2.3,Win32,60.0240096,,,,,,,,,,,,,space,9.789,i,1,0.644,0,0,0,41,1,散漫,i,,,,,,,,,,,,,,,,,,,,,,,,,,,,,,,,,,,,,,,,,
,,,,,,,,,,,,,,大米O.O,001,2025-01-02_14h17.25.287,IAT(Formal),2021.2.3,Win32,60.0240096,,,,,,,,,,,,,,,i,1,0.404,0,1,1,8,1,他人,i,,,,,,,,,,,,,,,,,,,,,,,,,,,,,,,,,,,,,,,,,
,,,,,,,,,,,,,,大米O.O,001,2025-01-02_14h17.25.287,IAT(Formal),2021.2.3,Win32,60.0240096,,,,,,,,,,,,,,,i,1,0.569,0,2,2,47,1,固执,i,,,,,,,,,,,,,,,,,,,,,,,,,,,,,,,,,,,,,,,,,
,,,,,,,,,,,,,,大米O.O,001,2025-01-02_14h17.25.287,IAT(Formal),2021.2.3,Win32,60.0240096,,,,,,,,,,,,,,,e,1,0.534,0,3,3,51,1,我的,e,,,,,,,,,,,,,,,,,,,,,,,,,,,,,,,,,,,,,,,,,
,,,,,,,,,,,,,,大米O.O,001,2025-01-02_14h17.25.287,IAT(Formal),2021.2.3,Win32,60.0240096,,,,,,,,,,,,,,,e,1,0.549,0,4,4,60,1,我,e,,,,,,,,,,,,,,,,,,,,,,,,,,,,,,,,,,,,,,,,,
,,,,,,,,,,,,,,大米O.O,001,2025-01-02_14h17.25.287,IAT(Formal),2021.2.3,Win32,60.0240096,,,,,,,,,,,,,,,e,1,0.431,0,5,5,14,1,乐观,e,,,,,,,,,,,,,,,,,,,,,,,,,,,,,,,,,,,,,,,,,
,,,,,,,,,,,,,,大米O.O,001,2025-01-02_14h17.25.287,IAT(Formal),2021.2.3,Win32,60.0240096,,,,,,,,,,,,,,,i,1,0.482,0,6,6,46,1,野蛮,i,,,,,,,,,,,,,,,,,,,,,,,,,,,,,,,,,,,,,,,,,
,,,,,,,,,,,,,,大米O.O,001,2025-01-02_14h17.25.287,IAT(Formal),2021.2.3,Win32,60.0240096,,,,,,,,,,,,,,,i,1,0.556,0,7,7,30,1,卑鄙,i,,,,,,,,,,,,,,,,,,,,,,,,,,,,,,,,,,,,,,,,,
,,,,,,,,,,,,,,大米O.O,001,2025-01-02_14h17.25.287,IAT(Formal),2021.2.3,Win32,60.0240096,,,,,,,,,,,,,,,e,1,0.545,0,8,8,12,1,聪明,e,,,,,,,,,,,,,,,,,,,,,,,,,,,,,,,,,,,,,,,,,
,,,,,,,,,,,,,,大米O.O,001,2025-01-02_14h17.25.287,IAT(Formal),2021.2.3,Win32,60.0240096,,,,,,,,,,,,,,,e,1,0.528,0,9,9,19,1,机智,e,,,,,,,,,,,,,,,,,,,,,,,,,,,,,,,,,,,,,,,,,
,,,,,,,,,,,,,,大米O.O,001,2025-01-02_14h17.25.287,IAT(Formal),2021.2.3,Win32,60.0240096,,,,,,,,,,,,,,,i,1,0.529,0,10,10,58,1,他人,i,,,,,,,,,,,,,,,,,,,,,,,,,,,,,,,,,,,,,,,,,
,,,,,,,,,,,,,,大米O.O,001,2025-01-02_14h17.25.287,IAT(Formal),2021.2.3,Win32,60.0240096,,,,,,,,,,,,,,,i,1,0.559,0,11,11,34,1,悲观,i,,,,,,,,,,,,,,,,,,,,,,,,,,,,,,,,,,,,,,,,,
,,,,,,,,,,,,,,大米O.O,001,2025-01-02_14h17.25.287,IAT(Formal),2021.2.3,Win32,60.0240096,,,,,,,,,,,,,,,e,1,0.553,0,12,12,10,1,优秀,e,,,,,,,,,,,,,,,,,,,,,,,,,,,,,,,,,,,,,,,,,
,,,,,,,,,,,,,,大米O.O,001,2025-01-02_14h17.25.287,IAT(Formal),2021.2.3,Win32,60.0240096,,,,,,,,,,,,,,,e,1,0.511,0,13,13,62,1,我们,e,,,,,,,,,,,,,,,,,,,,,,,,,,,,,,,,,,,,,,,,,
,,,,,,,,,,,,,,大米O.O,001,2025-01-02_14h17.25.287,IAT(Formal),2021.2.3,Win32,60.0240096,,,,,,,,,,,,,,,i,1,0.492,0,14,14,32,1,愚蠢,i,,,,,,,,,,,,,,,,,,,,,,,,,,,,,,,,,,,,,,,,,
,,,,,,,,,,,,,,大米O.O,001,2025-01-02_14h17.25.287,IAT(Formal),2021.2.3,Win32,60.0240096,,,,,,,,,,,,,,,i,1,0.365,0,15,15,5,1,他,i,,,,,,,,,,,,,,,,,,,,,,,,,,,,,,,,,,,,,,,,,
,,,,,,,,,,,,,,大米O.O,001,2025-01-02_14h17.25.287,IAT(Formal),2021.2.3,Win32,60.0240096,,,,,,,,,,,,,,,i,1,0.464,0,16,16,66,1,他们,i,,,,,,,,,,,,,,,,,,,,,,,,,,,,,,,,,,,,,,,,,
,,,,,,,,,,,,,,大米O.O,001,2025-01-02_14h17.25.287,IAT(Formal),2021.2.3,Win32,60.0240096,,,,,,,,,,,,,,,e,1,0.449,0,17,17,70,1,我,e,,,,,,,,,,,,,,,,,,,,,,,,,,,,,,,,,,,,,,,,,
,,,,,,,,,,,,,,大米O.O,001,2025-01-02_14h17.25.287,IAT(Formal),2021.2.3,Win32,60.0240096,,,,,,,,,,,,,,,e,1,0.48,0,18,18,11,1,崇高,e,,,,,,,,,,,,,,,,,,,,,,,,,,,,,,,,,,,,,,,,,
,,,,,,,,,,,,,,大米O.O,001,2025-01-02_14h17.25.287,IAT(Formal),2021.2.3,Win32,60.0240096,,,,,,,,,,,,,,,e,1,0.669,0,19,19,3,1,自己,e,,,,,,,,,,,,,,,,,,,,,,,,,,,,,,,,,,,,,,,,,
,,,,,,,,,,,,,,大米O.O,001,2025-01-02_14h17.25.287,IAT(Formal),2021.2.3,Win32,60.0240096,,,,,,,,,,,,,,,i,1,0.595,0,20,20,56,1,他们,i,,,,,,,,,,,,,,,,,,,,,,,,,,,,,,,,,,,,,,,,,
,,,,,,,,,,,,,,大米O.O,001,2025-01-02_14h17.25.287,IAT(Formal),2021.2.3,Win32,60.0240096,,,,,,,,,,,,,,,i,1,0.613,0,21,21,39,1,冒失,i,,,,,,,,,,,,,,,,,,,,,,,,,,,,,,,,,,,,,,,,,
,,,,,,,,,,,,,,大米O.O,001,2025-01-02_14h17.25.287,IAT(Formal),2021.2.3,Win32,60.0240096,,,,,,,,,,,,,,,i,1,0.462,0,22,22,43,1,自私,i,,,,,,,,,,,,,,,,,,,,,,,,,,,,,,,,,,,,,,,,,
,,,,,,,,,,,,,,大米O.O,001,2025-01-02_14h17.25.287,IAT(Formal),2021.2.3,Win32,60.0240096,,,,,,,,,,,,,,,i,1,0.55,0,23,23,59,1,其他,i,,,,,,,,,,,,,,,,,,,,,,,,,,,,,,,,,,,,,,,,,
,,,,,,,,,,,,,,大米O.O,001,2025-01-02_14h17.25.287,IAT(Formal),2021.2.3,Win32,60.0240096,,,,,,,,,,,,,,,e,1,0.529,0,24,24,16,1,正直,e,,,,,,,,,,,,,,,,,,,,,,,,,,,,,,,,,,,,,,,,,
,,,,,,,,,,,,,,大米O.O,001,2025-01-02_14h17.25.287,IAT(Formal),2021.2.3,Win32,60.0240096,,,,,,,,,,,,,,,i,1,0.779,0,25,25,6,1,他们,i,,,,,,,,,,,,,,,,,,,,,,,,,,,,,,,,,,,,,,,,,
,,,,,,,,,,,,,,大米O.O,001,2025-01-02_14h17.25.287,IAT(Formal),2021.2.3,Win32,60.0240096,,,,,,,,,,,,,,,e,1,0.598,0,26,26,17,1,勇敢,e,,,,,,,,,,,,,,,,,,,,,,,,,,,,,,,,,,,,,,,,,
,,,,,,,,,,,,,,大米O.O,001,2025-01-02_14h17.25.287,IAT(Formal),2021.2.3,Win32,60.0240096,,,,,,,,,,,,,,,e,1,0.421,0,27,27,50,1,我,e,,,,,,,,,,,,,,,,,,,,,,,,,,,,,,,,,,,,,,,,,
,,,,,,,,,,,,,,大米O.O,001,2025-01-02_14h17.25.287,IAT(Formal),2021.2.3,Win32,60.0240096,,,,,,,,,,,,,,,i,1,0.542,0,28,28,7,1,他的,i,,,,,,,,,,,,,,,,,,,,,,,,,,,,,,,,,,,,,,,,,
,,,,,,,,,,,,,,大米O.O,001,2025-01-02_14h17.25.287,IAT(Formal),2021.2.3,Win32,60.0240096,,,,,,,,,,,,,,,i,1,0.453,0,29,29,65,1,他,i,,,,,,,,,,,,,,,,,,,,,,,,,,,,,,,,,,,,,,,,,
,,,,,,,,,,,,,,大米O.O,001,2025-01-02_14h17.25.287,IAT(Formal),2021.2.3,Win32,60.0240096,,,,,,,,,,,,,,,e,1,0.558,0,30,30,72,1,我们,e,,,,,,,,,,,,,,,,,,,,,,,,,,,,,,,,,,,,,,,,,
,,,,,,,,,,,,,,大米O.O,001,2025-01-02_14h17.25.287,IAT(Formal),2021.2.3,Win32,60.0240096,,,,,,,,,,,,,,,e,1,0.613,0,31,31,27,1,热情,e,,,,,,,,,,,,,,,,,,,,,,,,,,,,,,,,,,,,,,,,,
,,,,,,,,,,,,,,大米O.O,001,2025-01-02_14h17.25.287,IAT(Formal),2021.2.3,Win32,60.0240096,,,,,,,,,,,,,,,i,1,0.481,0,32,32,68,1,他人,i,,,,,,,,,,,,,,,,,,,,,,,,,,,,,,,,,,,,,,,,,
,,,,,,,,,,,,,,大米O.O,001,2025-01-02_14h17.25.287,IAT(Formal),2021.2.3,Win32,60.0240096,,,,,,,,,,,,,,,i,1,0.446,0,33,33,48,1,轻率,i,,,,,,,,,,,,,,,,,,,,,,,,,,,,,,,,,,,,,,,,,
,,,,,,,,,,,,,,大米O.O,001,2025-01-02_14h17.25.287,IAT(Formal),2021.2.3,Win32,60.0240096,,,,,,,,,,,,,,,e,1,0.482,0,34,34,2,1,我们,e,,,,,,,,,,,,,,,,,,,,,,,,,,,,,,,,,,,,,,,,,
,,,,,,,,,,,,,,大米O.O,001,2025-01-02_14h17.25.287,IAT(Formal),2021.2.3,Win32,60.0240096,,,,,,,,,,,,,,,e,1,0.433,0,35,35,64,1,俺,e,,,,,,,,,,,,,,,,,,,,,,,,,,,,,,,,,,,,,,,,,
,,,,,,,,,,,,,,大米O.O,001,2025-01-02_14h17.25.287,IAT(Formal),2021.2.3,Win32,60.0240096,,,,,,,,,,,,,,,i,1,0.457,0,36,36,38,1,鲁莽,i,,,,,,,,,,,,,,,,,,,,,,,,,,,,,,,,,,,,,,,,,
,,,,,,,,,,,,,,大米O.O,001,2025-01-02_14h17.25.287,IAT(Formal),2021.2.3,Win32,60.0240096,,,,,,,,,,,,,,,e,1,0.517,0,37,37,0,1,我,e,,,,,,,,,,,,,,,,,,,,,,,,,,,,,,,,,,,,,,,,,
,,,,,,,,,,,,,,大米O.O,001,2025-01-02_14h17.25.287,IAT(Formal),2021.2.3,Win32,60.0240096,,,,,,,,,,,,,,,i,1,0.47,0,38,38,42,1,凶狠,i,,,,,,,,,,,,,,,,,,,,,,,,,,,,,,,,,,,,,,,,,
,,,,,,,,,,,,,,大米O.O,001,2025-01-02_14h17.25.287,IAT(Formal),2021.2.3,Win32,60.0240096,,,,,,,,,,,,,,,i,1,0.705,0,39,39,40,1,执拗,i,,,,,,,,,,,,,,,,,,,,,,,,,,,,,,,,,,,,,,,,,
,,,,,,,,,,,,,,大米O.O,001,2025-01-02_14h17.25.287,IAT(Formal),2021.2.3,Win32,60.0240096,,,,,,,,,,,,,,,e,1,0.671,0,40,40,71,1,我的,e,,,,,,,,,,,,,,,,,,,,,,,,,,,,,,,,,,,,,,,,,
,,,,,,,,,,,,,,大米O.O,001,2025-01-02_14h17.25.287,IAT(Formal),2021.2.3,Win32,60.0240096,,,,,,,,,,,,,,,i,1,0.424,0,41,41,78,1,他人,i,,,,,,,,,,,,,,,,,,,,,,,,,,,,,,,,,,,,,,,,,
,,,,,,,,,,,,,,大米O.O,001,2025-01-02_14h17.25.287,IAT(Formal),2021.2.3,Win32,60.0240096,,,,,,,,,,,,,,,e,1,0.503,0,42,42,63,1,自己,e,,,,,,,,,,,,,,,,,,,,,,,,,,,,,,,,,,,,,,,,,
,,,,,,,,,,,,,,大米O.O,001,2025-01-02_14h17.25.287,IAT(Formal),2021.2.3,Win32,60.0240096,,,,,,,,,,,,,,,e,1,0.536,0,43,43,21,1,稳重,e,,,,,,,,,,,,,,,,,,,,,,,,,,,,,,,,,,,,,,,,,
,,,,,,,,,,,,,,大米O.O,001,2025-01-02_14h17.25.287,IAT(Formal),2021.2.3,Win32,60.0240096,,,,,,,,,,,,,,,e,1,0.445,0,44,44,73,1,自己,e,,,,,,,,,,,,,,,,,,,,,,,,,,,,,,,,,,,,,,,,,
,,,,,,,,,,,,,,大米O.O,001,2025-01-02_14h17.25.287,IAT(Formal),2021.2.3,Win32,60.0240096,,,,,,,,,,,,,,,e,1,0.567,0,45,45,23,1,公正,e,,,,,,,,,,,,,,,,,,,,,,,,,,,,,,,,,,,,,,,,,
,,,,,,,,,,,,,,大米O.O,001,2025-01-02_14h17.25.287,IAT(Formal),2021.2.3,Win32,60.0240096,,,,,,,,,,,,,,,i,1,0.6,0,46,46,75,1,他,i,,,,,,,,,,,,,,,,,,,,,,,,,,,,,,,,,,,,,,,,,
,,,,,,,,,,,,,,大米O.O,001,2025-01-02_14h17.25.287,IAT(Formal),2021.2.3,Win32,60.0240096,,,,,,,,,,,,,,,i,0,0.433,0,47,47,4,1,俺,e,,,,,,,,,,,,,,,,,,,,,,,,,,,,,,,,,,,,,,,,,
,,,,,,,,,,,,,,大米O.O,001,2025-01-02_14h17.25.287,IAT(Formal),2021.2.3,Win32,60.0240096,,,,,,,,,,,,,,,e,1,0.378,0,48,48,52,1,我们,e,,,,,,,,,,,,,,,,,,,,,,,,,,,,,,,,,,,,,,,,,
,,,,,,,,,,,,,,大米O.O,001,2025-01-02_14h17.25.287,IAT(Formal),2021.2.3,Win32,60.0240096,,,,,,,,,,,,,,,e,1,0.406,0,49,49,1,1,我的,e,,,,,,,,,,,,,,,,,,,,,,,,,,,,,,,,,,,,,,,,,
,,,,,,,,,,,,,,大米O.O,001,2025-01-02_14h17.25.287,IAT(Formal),2021.2.3,Win32,60.0240096,,,,,,,,,,,,,,,e,1,0.485,0,50,50,13,1,杰出,e,,,,,,,,,,,,,,,,,,,,,,,,,,,,,,,,,,,,,,,,,
,,,,,,,,,,,,,,大米O.O,001,2025-01-02_14h17.25.287,IAT(Formal),2021.2.3,Win32,60.0240096,,,,,,,,,,,,,,,i,1,0.552,0,51,51,36,1,自卑,i,,,,,,,,,,,,,,,,,,,,,,,,,,,,,,,,,,,,,,,,,
,,,,,,,,,,,,,,大米O.O,001,2025-01-02_14h17.25.287,IAT(Formal),2021.2.3,Win32,60.0240096,,,,,,,,,,,,,,,e,1,0.738,0,52,52,24,1,朴实,e,,,,,,,,,,,,,,,,,,,,,,,,,,,,,,,,,,,,,,,,,
,,,,,,,,,,,,,,大米O.O,001,2025-01-02_14h17.25.287,IAT(Formal),2021.2.3,Win32,60.0240096,,,,,,,,,,,,,,,e,1,0.79,0,53,53,22,1,无私,e,,,,,,,,,,,,,,,,,,,,,,,,,,,,,,,,,,,,,,,,,
,,,,,,,,,,,,,,大米O.O,001,2025-01-02_14h17.25.287,IAT(Formal),2021.2.3,Win32,60.0240096,,,,,,,,,,,,,,,i,1,0.55,0,54,54,79,1,其他,i,,,,,,,,,,,,,,,,,,,,,,,,,,,,,,,,,,,,,,,,,
,,,,,,,,,,,,,,大米O.O,001,2025-01-02_14h17.25.287,IAT(Formal),2021.2.3,Win32,60.0240096,,,,,,,,,,,,,,,e,1,0.577,0,55,55,26,1,冷静,e,,,,,,,,,,,,,,,,,,,,,,,,,,,,,,,,,,,,,,,,,
,,,,,,,,,,,,,,大米O.O,001,2025-01-02_14h17.25.287,IAT(Formal),2021.2.3,Win32,60.0240096,,,,,,,,,,,,,,,i,1,0.57,0,56,56,45,1,猖狂,i,,,,,,,,,,,,,,,,,,,,,,,,,,,,,,,,,,,,,,,,,
,,,,,,,,,,,,,,大米O.O,001,2025-01-02_14h17.25.287,IAT(Formal),2021.2.3,Win32,60.0240096,,,,,,,,,,,,,,,i,1,0.629,0,57,57,9,1,其他,i,,,,,,,,,,,,,,,,,,,,,,,,,,,,,,,,,,,,,,,,,
,,,,,,,,,,,,,,大米O.O,001,2025-01-02_14h17.25.287,IAT(Formal),2021.2.3,Win32,60.0240096,,,,,,,,,,,,,,,i,1,0.571,0,58,58,55,1,他,i,,,,,,,,,,,,,,,,,,,,,,,,,,,,,,,,,,,,,,,,,
,,,,,,,,,,,,,,大米O.O,001,2025-01-02_14h17.25.287,IAT(Formal),2021.2.3,Win32,60.0240096,,,,,,,,,,,,,,,e,1,0.504,0,59,59,61,1,我的,e,,,,,,,,,,,,,,,,,,,,,,,,,,,,,,,,,,,,,,,,,
,,,,,,,,,,,,,,大米O.O,001,2025-01-02_14h17.25.287,IAT(Formal),2021.2.3,Win32,60.0240096,,,,,,,,,,,,,,,e,1,0.442,0,60,60,53,1,自己,e,,,,,,,,,,,,,,,,,,,,,,,,,,,,,,,,,,,,,,,,,
,,,,,,,,,,,,,,大米O.O,001,2025-01-02_14h17.25.287,IAT(Formal),2021.2.3,Win32,60.0240096,,,,,,,,,,,,,,,e,1,0.455,0,61,61,29,1,诚恳,e,,,,,,,,,,,,,,,,,,,,,,,,,,,,,,,,,,,,,,,,,
,,,,,,,,,,,,,,大米O.O,001,2025-01-02_14h17.25.287,IAT(Formal),2021.2.3,Win32,60.0240096,,,,,,,,,,,,,,,e,1,0.453,0,62,62,18,1,勤奋,e,,,,,,,,,,,,,,,,,,,,,,,,,,,,,,,,,,,,,,,,,
,,,,,,,,,,,,,,大米O.O,001,2025-01-02_14h17.25.287,IAT(Formal),2021.2.3,Win32,60.0240096,,,,,,,,,,,,,,,e,1,0.575,0,63,63,20,1,认真,e,,,,,,,,,,,,,,,,,,,,,,,,,,,,,,,,,,,,,,,,,
,,,,,,,,,,,,,,大米O.O,001,2025-01-02_14h17.25.287,IAT(Formal),2021.2.3,Win32,60.0240096,,,,,,,,,,,,,,,e,1,0.445,0,64,64,15,1,诚实,e,,,,,,,,,,,,,,,,,,,,,,,,,,,,,,,,,,,,,,,,,
,,,,,,,,,,,,,,大米O.O,001,2025-01-02_14h17.25.287,IAT(Formal),2021.2.3,Win32,60.0240096,,,,,,,,,,,,,,,i,1,0.781,0,65,65,67,1,他的,i,,,,,,,,,,,,,,,,,,,,,,,,,,,,,,,,,,,,,,,,,
,,,,,,,,,,,,,,大米O.O,001,2025-01-02_14h17.25.287,IAT(Formal),2021.2.3,Win32,60.0240096,,,,,,,,,,,,,,,i,1,0.401,0,66,66,57,1,他的,i,,,,,,,,,,,,,,,,,,,,,,,,,,,,,,,,,,,,,,,,,
,,,,,,,,,,,,,,大米O.O,001,2025-01-02_14h17.25.287,IAT(Formal),2021.2.3,Win32,60.0240096,,,,,,,,,,,,,,,e,1,0.603,0,67,67,74,1,俺,e,,,,,,,,,,,,,,,,,,,,,,,,,,,,,,,,,,,,,,,,,
,,,,,,,,,,,,,,大米O.O,001,2025-01-02_14h17.25.287,IAT(Formal),2021.2.3,Win32,60.0240096,,,,,,,,,,,,,,,i,1,0.621,0,68,68,31,1,虚伪,i,,,,,,,,,,,,,,,,,,,,,,,,,,,,,,,,,,,,,,,,,
,,,,,,,,,,,,,,大米O.O,001,2025-01-02_14h17.25.287,IAT(Formal),2021.2.3,Win32,60.0240096,,,,,,,,,,,,,,,i,1,0.55,0,69,69,49,1,下贱,i,,,,,,,,,,,,,,,,,,,,,,,,,,,,,,,,,,,,,,,,,
,,,,,,,,,,,,,,大米O.O,001,2025-01-02_14h17.25.287,IAT(Formal),2021.2.3,Win32,60.0240096,,,,,,,,,,,,,,,i,1,0.491,0,70,70,35,1,消极,i,,,,,,,,,,,,,,,,,,,,,,,,,,,,,,,,,,,,,,,,,
,,,,,,,,,,,,,,大米O.O,001,2025-01-02_14h17.25.287,IAT(Formal),2021.2.3,Win32,60.0240096,,,,,,,,,,,,,,,e,1,0.594,0,71,71,25,1,细腻,e,,,,,,,,,,,,,,,,,,,,,,,,,,,,,,,,,,,,,,,,,
,,,,,,,,,,,,,,大米O.O,001,2025-01-02_14h17.25.287,IAT(Formal),2021.2.3,Win32,60.0240096,,,,,,,,,,,,,,,i,1,0.553,0,72,72,77,1,他的,i,,,,,,,,,,,,,,,,,,,,,,,,,,,,,,,,,,,,,,,,,
,,,,,,,,,,,,,,大米O.O,001,2025-01-02_14h17.25.287,IAT(Formal),2021.2.3,Win32,60.0240096,,,,,,,,,,,,,,,i,1,0.527,0,73,73,44,1,暴躁,i,,,,,,,,,,,,,,,,,,,,,,,,,,,,,,,,,,,,,,,,,
,,,,,,,,,,,,,,大米O.O,001,2025-01-02_14h17.25.287,IAT(Formal),2021.2.3,Win32,60.0240096,,,,,,,,,,,,,,,i,1,0.534,0,74,74,76,1,他们,i,,,,,,,,,,,,,,,,,,,,,,,,,,,,,,,,,,,,,,,,,
,,,,,,,,,,,,,,大米O.O,001,2025-01-02_14h17.25.287,IAT(Formal),2021.2.3,Win32,60.0240096,,,,,,,,,,,,,,,i,1,0.422,0,75,75,69,1,其他,i,,,,,,,,,,,,,,,,,,,,,,,,,,,,,,,,,,,,,,,,,
,,,,,,,,,,,,,,大米O.O,001,2025-01-02_14h17.25.287,IAT(Formal),2021.2.3,Win32,60.0240096,,,,,,,,,,,,,,,e,1,0.563,0,76,76,28,1,活泼,e,,,,,,,,,,,,,,,,,,,,,,,,,,,,,,,,,,,,,,,,,
,,,,,,,,,,,,,,大米O.O,001,2025-01-02_14h17.25.287,IAT(Formal),2021.2.3,Win32,60.0240096,,,,,,,,,,,,,,,i,0,0.566,0,77,77,54,1,俺,e,,,,,,,,,,,,,,,,,,,,,,,,,,,,,,,,,,,,,,,,,
,,,,,,,,,,,,,,大米O.O,001,2025-01-02_14h17.25.287,IAT(Formal),2021.2.3,Win32,60.0240096,,,,,,,,,,,,,,,i,1,0.585,0,78,78,33,1,刻薄,i,,,,,,,,,,,,,,,,,,,,,,,,,,,,,,,,,,,,,,,,,
,,,,,,,,,,,,,,大米O.O,001,2025-01-02_14h17.25.287,IAT(Formal),2021.2.3,Win32,60.0240096,,,,,,,,,,,,,,,i,1,0.453,0,79,79,37,1,傲慢,i,,,,,,,,,,,,,,,,,,,,,,,,,,,,,,,,,,,,,,,,,
,,,,,,,,,,,,,,大米O.O,001,2025-01-02_14h17.25.287,IAT(Formal),2021.2.3,Win32,60.0240096,,,,,,,,,,,,,,,i,1,0.553,,,,,,其他,i,space,19.682,0,0,0,9,1,,,,,,,,,,,,,,,,,,,,,,,,,,,,,,,,,,
,,,,,,,,,,,,,,大米O.O,001,2025-01-02_14h17.25.287,IAT(Formal),2021.2.3,Win32,60.0240096,,,,,,,,,,,,,,,i,1,0.417,,,,,,其他,i,,,0,1,1,59,1,,,,,,,,,,,,,,,,,,,,,,,,,,,,,,,,,,
,,,,,,,,,,,,,,大米O.O,001,2025-01-02_14h17.25.287,IAT(Formal),2021.2.3,Win32,60.0240096,,,,,,,,,,,,,,,e,1,0.477,,,,,,我们,e,,,0,2,2,2,1,,,,,,,,,,,,,,,,,,,,,,,,,,,,,,,,,,
,,,,,,,,,,,,,,大米O.O,001,2025-01-02_14h17.25.287,IAT(Formal),2021.2.3,Win32,60.0240096,,,,,,,,,,,,,,,e,1,0.375,,,,,,我,e,,,0,3,3,0,1,,,,,,,,,,,,,,,,,,,,,,,,,,,,,,,,,,
,,,,,,,,,,,,,,大米O.O,001,2025-01-02_14h17.25.287,IAT(Formal),2021.2.3,Win32,60.0240096,,,,,,,,,,,,,,,i,1,0.593,,,,,,其他,i,,,0,4,4,69,1,,,,,,,,,,,,,,,,,,,,,,,,,,,,,,,,,,
,,,,,,,,,,,,,,大米O.O,001,2025-01-02_14h17.25.287,IAT(Formal),2021.2.3,Win32,60.0240096,,,,,,,,,,,,,,,e,1,0.589,,,,,,俺,e,,,0,5,5,64,1,,,,,,,,,,,,,,,,,,,,,,,,,,,,,,,,,,
,,,,,,,,,,,,,,大米O.O,001,2025-01-02_14h17.25.287,IAT(Formal),2021.2.3,Win32,60.0240096,,,,,,,,,,,,,,,e,1,0.762,,,,,,乐观,e,,,0,6,6,14,1,,,,,,,,,,,,,,,,,,,,,,,,,,,,,,,,,,
,,,,,,,,,,,,,,大米O.O,001,2025-01-02_14h17.25.287,IAT(Formal),2021.2.3,Win32,60.0240096,,,,,,,,,,,,,,,e,1,0.485,,,,,,朴实,e,,,0,7,7,24,1,,,,,,,,,,,,,,,,,,,,,,,,,,,,,,,,,,
,,,,,,,,,,,,,,大米O.O,001,2025-01-02_14h17.25.287,IAT(Formal),2021.2.3,Win32,60.0240096,,,,,,,,,,,,,,,e,1,0.691,,,,,,稳重,e,,,0,8,8,21,1,,,,,,,,,,,,,,,,,,,,,,,,,,,,,,,,,,
,,,,,,,,,,,,,,大米O.O,001,2025-01-02_14h17.25.287,IAT(Formal),2021.2.3,Win32,60.0240096,,,,,,,,,,,,,,,e,1,0.447,,,,,,诚恳,e,,,0,9,9,29,1,,,,,,,,,,,,,,,,,,,,,,,,,,,,,,,,,,
,,,,,,,,,,,,,,大米O.O,001,2025-01-02_14h17.25.287,IAT(Formal),2021.2.3,Win32,60.0240096,,,,,,,,,,,,,,,i,1,0.703,,,,,,轻率,i,,,0,10,10,48,1,,,,,,,,,,,,,,,,,,,,,,,,,,,,,,,,,,
,,,,,,,,,,,,,,大米O.O,001,2025-01-02_14h17.25.287,IAT(Formal),2021.2.3,Win32,60.0240096,,,,,,,,,,,,,,,e,0,0.535,,,,,,他的,i,,,0,11,11,7,1,,,,,,,,,,,,,,,,,,,,,,,,,,,,,,,,,,
,,,,,,,,,,,,,,大米O.O,001,2025-01-02_14h17.25.287,IAT(Formal),2021.2.3,Win32,60.0240096,,,,,,,,,,,,,,,i,1,0.796,,,,,,鲁莽,i,,,0,12,12,38,1,,,,,,,,,,,,,,,,,,,,,,,,,,,,,,,,,,
,,,,,,,,,,,,,,大米O.O,001,2025-01-02_14h17.25.287,IAT(Formal),2021.2.3,Win32,60.0240096,,,,,,,,,,,,,,,i,0,0.466,,,,,,俺,e,,,0,13,13,54,1,,,,,,,,,,,,,,,,,,,,,,,,,,,,,,,,,,
,,,,,,,,,,,,,,大米O.O,001,2025-01-02_14h17.25.287,IAT(Formal),2021.2.3,Win32,60.0240096,,,,,,,,,,,,,,,i,1,0.645,,,,,,执拗,i,,,0,14,14,40,1,,,,,,,,,,,,,,,,,,,,,,,,,,,,,,,,,,
,,,,,,,,,,,,,,大米O.O,001,2025-01-02_14h17.25.287,IAT(Formal),2021.2.3,Win32,60.0240096,,,,,,,,,,,,,,,e,1,0.561,,,,,,活泼,e,,,0,15,15,28,1,,,,,,,,,,,,,,,,,,,,,,,,,,,,,,,,,,
,,,,,,,,,,,,,,大米O.O,001,2025-01-02_14h17.25.287,IAT(Formal),2021.2.3,Win32,60.0240096,,,,,,,,,,,,,,,e,1,0.569,,,,,,我的,e,,,0,16,16,51,1,,,,,,,,,,,,,,,,,,,,,,,,,,,,,,,,,,
,,,,,,,,,,,,,,大米O.O,001,2025-01-02_14h17.25.287,IAT(Formal),2021.2.3,Win32,60.0240096,,,,,,,,,,,,,,,i,1,0.571,,,,,,消极,i,,,0,17,17,35,1,,,,,,,,,,,,,,,,,,,,,,,,,,,,,,,,,,
,,,,,,,,,,,,,,大米O.O,001,2025-01-02_14h17.25.287,IAT(Formal),2021.2.3,Win32,60.0240096,,,,,,,,,,,,,,,e,1,0.557,,,,,,诚实,e,,,0,18,18,15,1,,,,,,,,,,,,,,,,,,,,,,,,,,,,,,,,,,
,,,,,,,,,,,,,,大米O.O,001,2025-01-02_14h17.25.287,IAT(Formal),2021.2.3,Win32,60.0240096,,,,,,,,,,,,,,,i,1,0.562,,,,,,他们,i,,,0,19,19,6,1,,,,,,,,,,,,,,,,,,,,,,,,,,,,,,,,,,
,,,,,,,,,,,,,,大米O.O,001,2025-01-02_14h17.25.287,IAT(Formal),2021.2.3,Win32,60.0240096,,,,,,,,,,,,,,,e,1,0.563,,,,,,热情,e,,,0,20,20,27,1,,,,,,,,,,,,,,,,,,,,,,,,,,,,,,,,,,
,,,,,,,,,,,,,,大米O.O,001,2025-01-02_14h17.25.287,IAT(Formal),2021.2.3,Win32,60.0240096,,,,,,,,,,,,,,,e,1,0.525,,,,,,正直,e,,,0,21,21,16,1,,,,,,,,,,,,,,,,,,,,,,,,,,,,,,,,,,
,,,,,,,,,,,,,,大米O.O,001,2025-01-02_14h17.25.287,IAT(Formal),2021.2.3,Win32,60.0240096,,,,,,,,,,,,,,,i,1,0.489,,,,,,他们,i,,,0,22,22,76,1,,,,,,,,,,,,,,,,,,,,,,,,,,,,,,,,,,
,,,,,,,,,,,,,,大米O.O,001,2025-01-02_14h17.25.287,IAT(Formal),2021.2.3,Win32,60.0240096,,,,,,,,,,,,,,,e,1,0.62,,,,,,聪明,e,,,0,23,23,12,1,,,,,,,,,,,,,,,,,,,,,,,,,,,,,,,,,,
,,,,,,,,,,,,,,大米O.O,001,2025-01-02_14h17.25.287,IAT(Formal),2021.2.3,Win32,60.0240096,,,,,,,,,,,,,,,i,1,0.54,,,,,,他们,i,,,0,24,24,66,1,,,,,,,,,,,,,,,,,,,,,,,,,,,,,,,,,,
,,,,,,,,,,,,,,大米O.O,001,2025-01-02_14h17.25.287,IAT(Formal),2021.2.3,Win32,60.0240096,,,,,,,,,,,,,,,i,1,0.53,,,,,,傲慢,i,,,0,25,25,37,1,,,,,,,,,,,,,,,,,,,,,,,,,,,,,,,,,,
,,,,,,,,,,,,,,大米O.O,001,2025-01-02_14h17.25.287,IAT(Formal),2021.2.3,Win32,60.0240096,,,,,,,,,,,,,,,e,1,0.48,,,,,,优秀,e,,,0,26,26,10,1,,,,,,,,,,,,,,,,,,,,,,,,,,,,,,,,,,
,,,,,,,,,,,,,,大米O.O,001,2025-01-02_14h17.25.287,IAT(Formal),2021.2.3,Win32,60.0240096,,,,,,,,,,,,,,,e,1,0.433,,,,,,我,e,,,0,27,27,60,1,,,,,,,,,,,,,,,,,,,,,,,,,,,,,,,,,,
,,,,,,,,,,,,,,大米O.O,001,2025-01-02_14h17.25.287,IAT(Formal),2021.2.3,Win32,60.0240096,,,,,,,,,,,,,,,i,1,0.52,,,,,,他们,i,,,0,28,28,56,1,,,,,,,,,,,,,,,,,,,,,,,,,,,,,,,,,,
,,,,,,,,,,,,,,大米O.O,001,2025-01-02_14h17.25.287,IAT(Formal),2021.2.3,Win32,60.0240096,,,,,,,,,,,,,,,i,1,0.613,,,,,,他人,i,,,0,29,29,68,1,,,,,,,,,,,,,,,,,,,,,,,,,,,,,,,,,,
,,,,,,,,,,,,,,大米O.O,001,2025-01-02_14h17.25.287,IAT(Formal),2021.2.3,Win32,60.0240096,,,,,,,,,,,,,,,e,1,0.569,,,,,,认真,e,,,0,30,30,20,1,,,,,,,,,,,,,,,,,,,,,,,,,,,,,,,,,,
,,,,,,,,,,,,,,大米O.O,001,2025-01-02_14h17.25.287,IAT(Formal),2021.2.3,Win32,60.0240096,,,,,,,,,,,,,,,e,1,0.555,,,,,,我的,e,,,0,31,31,1,1,,,,,,,,,,,,,,,,,,,,,,,,,,,,,,,,,,
,,,,,,,,,,,,,,大米O.O,001,2025-01-02_14h17.25.287,IAT(Formal),2021.2.3,Win32,60.0240096,,,,,,,,,,,,,,,e,1,0.611,,,,,,勇敢,e,,,0,32,32,17,1,,,,,,,,,,,,,,,,,,,,,,,,,,,,,,,,,,
,,,,,,,,,,,,,,大米O.O,001,2025-01-02_14h17.25.287,IAT(Formal),2021.2.3,Win32,60.0240096,,,,,,,,,,,,,,,e,1,0.709,,,,,,无私,e,,,0,33,33,22,1,,,,,,,,,,,,,,,,,,,,,,,,,,,,,,,,,,
,,,,,,,,,,,,,,大米O.O,001,2025-01-02_14h17.25.287,IAT(Formal),2021.2.3,Win32,60.0240096,,,,,,,,,,,,,,,i,1,0.517,,,,,,他,i,,,0,34,34,65,1,,,,,,,,,,,,,,,,,,,,,,,,,,,,,,,,,,
,,,,,,,,,,,,,,大米O.O,001,2025-01-02_14h17.25.287,IAT(Formal),2021.2.3,Win32,60.0240096,,,,,,,,,,,,,,,i,1,0.679,,,,,,悲观,i,,,0,35,35,34,1,,,,,,,,,,,,,,,,,,,,,,,,,,,,,,,,,,
,,,,,,,,,,,,,,大米O.O,001,2025-01-02_14h17.25.287,IAT(Formal),2021.2.3,Win32,60.0240096,,,,,,,,,,,,,,,i,1,0.587,,,,,,猖狂,i,,,0,36,36,45,1,,,,,,,,,,,,,,,,,,,,,,,,,,,,,,,,,,
,,,,,,,,,,,,,,大米O.O,001,2025-01-02_14h17.25.287,IAT(Formal),2021.2.3,Win32,60.0240096,,,,,,,,,,,,,,,e,1,0.656,,,,,,我,e,,,0,37,37,50,1,,,,,,,,,,,,,,,,,,,,,,,,,,,,,,,,,,
,,,,,,,,,,,,,,大米O.O,001,2025-01-02_14h17.25.287,IAT(Formal),2021.2.3,Win32,60.0240096,,,,,,,,,,,,,,,i,1,0.566,,,,,,散漫,i,,,0,38,38,41,1,,,,,,,,,,,,,,,,,,,,,,,,,,,,,,,,,,
,,,,,,,,,,,,,,大米O.O,001,2025-01-02_14h17.25.287,IAT(Formal),2021.2.3,Win32,60.0240096,,,,,,,,,,,,,,,i,1,0.648,,,,,,他的,i,,,0,39,39,57,1,,,,,,,,,,,,,,,,,,,,,,,,,,,,,,,,,,
,,,,,,,,,,,,,,大米O.O,001,2025-01-02_14h17.25.287,IAT(Formal),2021.2.3,Win32,60.0240096,,,,,,,,,,,,,,,i,1,0.548,,,,,,自私,i,,,0,40,40,43,1,,,,,,,,,,,,,,,,,,,,,,,,,,,,,,,,,,
,,,,,,,,,,,,,,大米O.O,001,2025-01-02_14h17.25.287,IAT(Formal),2021.2.3,Win32,60.0240096,,,,,,,,,,,,,,,e,1,0.602,,,,,,我们,e,,,0,41,41,62,1,,,,,,,,,,,,,,,,,,,,,,,,,,,,,,,,,,
,,,,,,,,,,,,,,大米O.O,001,2025-01-02_14h17.25.287,IAT(Formal),2021.2.3,Win32,60.0240096,,,,,,,,,,,,,,,e,1,0.467,,,,,,我们,e,,,0,42,42,52,1,,,,,,,,,,,,,,,,,,,,,,,,,,,,,,,,,,
,,,,,,,,,,,,,,大米O.O,001,2025-01-02_14h17.25.287,IAT(Formal),2021.2.3,Win32,60.0240096,,,,,,,,,,,,,,,i,1,0.65,,,,,,他人,i,,,0,43,43,78,1,,,,,,,,,,,,,,,,,,,,,,,,,,,,,,,,,,
,,,,,,,,,,,,,,大米O.O,001,2025-01-02_14h17.25.287,IAT(Formal),2021.2.3,Win32,60.0240096,,,,,,,,,,,,,,,i,1,0.492,,,,,,他的,i,,,0,44,44,77,1,,,,,,,,,,,,,,,,,,,,,,,,,,,,,,,,,,
,,,,,,,,,,,,,,大米O.O,001,2025-01-02_14h17.25.287,IAT(Formal),2021.2.3,Win32,60.0240096,,,,,,,,,,,,,,,e,1,0.764,,,,,,勤奋,e,,,0,45,45,18,1,,,,,,,,,,,,,,,,,,,,,,,,,,,,,,,,,,
,,,,,,,,,,,,,,大米O.O,001,2025-01-02_14h17.25.287,IAT(Formal),2021.2.3,Win32,60.0240096,,,,,,,,,,,,,,,e,1,0.488,,,,,,我,e,,,0,46,46,70,1,,,,,,,,,,,,,,,,,,,,,,,,,,,,,,,,,,
,,,,,,,,,,,,,,大米O.O,001,2025-01-02_14h17.25.287,IAT(Formal),2021.2.3,Win32,60.0240096,,,,,,,,,,,,,,,e,1,0.572,,,,,,冷静,e,,,0,47,47,26,1,,,,,,,,,,,,,,,,,,,,,,,,,,,,,,,,,,
,,,,,,,,,,,,,,大米O.O,001,2025-01-02_14h17.25.287,IAT(Formal),2021.2.3,Win32,60.0240096,,,,,,,,,,,,,,,e,1,0.481,,,,,,机智,e,,,0,48,48,19,1,,,,,,,,,,,,,,,,,,,,,,,,,,,,,,,,,,
,,,,,,,,,,,,,,大米O.O,001,2025-01-02_14h17.25.287,IAT(Formal),2021.2.3,Win32,60.0240096,,,,,,,,,,,,,,,i,1,0.559,,,,,,暴躁,i,,,0,49,49,44,1,,,,,,,,,,,,,,,,,,,,,,,,,,,,,,,,,,
,,,,,,,,,,,,,,大米O.O,001,2025-01-02_14h17.25.287,IAT(Formal),2021.2.3,Win32,60.0240096,,,,,,,,,,,,,,,i,1,0.427,,,,,,卑鄙,i,,,0,50,50,30,1,,,,,,,,,,,,,,,,,,,,,,,,,,,,,,,,,,
,,,,,,,,,,,,,,大米O.O,001,2025-01-02_14h17.25.287,IAT(Formal),2021.2.3,Win32,60.0240096,,,,,,,,,,,,,,,i,1,0.477,,,,,,虚伪,i,,,0,51,51,31,1,,,,,,,,,,,,,,,,,,,,,,,,,,,,,,,,,,
,,,,,,,,,,,,,,大米O.O,001,2025-01-02_14h17.25.287,IAT(Formal),2021.2.3,Win32,60.0240096,,,,,,,,,,,,,,,e,1,1.13,,,,,,细腻,e,,,0,52,52,25,1,,,,,,,,,,,,,,,,,,,,,,,,,,,,,,,,,,
,,,,,,,,,,,,,,大米O.O,001,2025-01-02_14h17.25.287,IAT(Formal),2021.2.3,Win32,60.0240096,,,,,,,,,,,,,,,e,1,0.516,,,,,,自己,e,,,0,53,53,63,1,,,,,,,,,,,,,,,,,,,,,,,,,,,,,,,,,,
,,,,,,,,,,,,,,大米O.O,001,2025-01-02_14h17.25.287,IAT(Formal),2021.2.3,Win32,60.0240096,,,,,,,,,,,,,,,i,1,0.684,,,,,,他,i,,,0,54,54,5,1,,,,,,,,,,,,,,,,,,,,,,,,,,,,,,,,,,
,,,,,,,,,,,,,,大米O.O,001,2025-01-02_14h17.25.287,IAT(Formal),2021.2.3,Win32,60.0240096,,,,,,,,,,,,,,,i,1,0.48,,,,,,他人,i,,,0,55,55,8,1,,,,,,,,,,,,,,,,,,,,,,,,,,,,,,,,,,
,,,,,,,,,,,,,,大米O.O,001,2025-01-02_14h17.25.287,IAT(Formal),2021.2.3,Win32,60.0240096,,,,,,,,,,,,,,,e,1,0.587,,,,,,我们,e,,,0,56,56,72,1,,,,,,,,,,,,,,,,,,,,,,,,,,,,,,,,,,
,,,,,,,,,,,,,,大米O.O,001,2025-01-02_14h17.25.287,IAT(Formal),2021.2.3,Win32,60.0240096,,,,,,,,,,,,,,,i,1,0.599,,,,,,他,i,,,0,57,57,75,1,,,,,,,,,,,,,,,,,,,,,,,,,,,,,,,,,,
,,,,,,,,,,,,,,大米O.O,001,2025-01-02_14h17.25.287,IAT(Formal),2021.2.3,Win32,60.0240096,,,,,,,,,,,,,,,i,1,0.512,,,,,,下贱,i,,,0,58,58,49,1,,,,,,,,,,,,,,,,,,,,,,,,,,,,,,,,,,
,,,,,,,,,,,,,,大米O.O,001,2025-01-02_14h17.25.287,IAT(Formal),2021.2.3,Win32,60.0240096,,,,,,,,,,,,,,,i,1,0.547,,,,,,愚蠢,i,,,0,59,59,32,1,,,,,,,,,,,,,,,,,,,,,,,,,,,,,,,,,,
,,,,,,,,,,,,,,大米O.O,001,2025-01-02_14h17.25.287,IAT(Formal),2021.2.3,Win32,60.0240096,,,,,,,,,,,,,,,e,1,0.452,,,,,,我的,e,,,0,60,60,71,1,,,,,,,,,,,,,,,,,,,,,,,,,,,,,,,,,,
,,,,,,,,,,,,,,大米O.O,001,2025-01-02_14h17.25.287,IAT(Formal),2021.2.3,Win32,60.0240096,,,,,,,,,,,,,,,i,1,0.474,,,,,,他人,i,,,0,61,61,58,1,,,,,,,,,,,,,,,,,,,,,,,,,,,,,,,,,,
,,,,,,,,,,,,,,大米O.O,001,2025-01-02_14h17.25.287,IAT(Formal),2021.2.3,Win32,60.0240096,,,,,,,,,,,,,,,e,1,0.654,,,,,,俺,e,,,0,62,62,74,1,,,,,,,,,,,,,,,,,,,,,,,,,,,,,,,,,,
,,,,,,,,,,,,,,大米O.O,001,2025-01-02_14h17.25.287,IAT(Formal),2021.2.3,Win32,60.0240096,,,,,,,,,,,,,,,i,1,0.584,,,,,,凶狠,i,,,0,63,63,42,1,,,,,,,,,,,,,,,,,,,,,,,,,,,,,,,,,,
,,,,,,,,,,,,,,大米O.O,001,2025-01-02_14h17.25.287,IAT(Formal),2021.2.3,Win32,60.0240096,,,,,,,,,,,,,,,i,1,0.782,,,,,,他的,i,,,0,64,64,67,1,,,,,,,,,,,,,,,,,,,,,,,,,,,,,,,,,,
,,,,,,,,,,,,,,大米O.O,001,2025-01-02_14h17.25.287,IAT(Formal),2021.2.3,Win32,60.0240096,,,,,,,,,,,,,,,e,1,0.6,,,,,,自己,e,,,0,65,65,3,1,,,,,,,,,,,,,,,,,,,,,,,,,,,,,,,,,,
,,,,,,,,,,,,,,大米O.O,001,2025-01-02_14h17.25.287,IAT(Formal),2021.2.3,Win32,60.0240096,,,,,,,,,,,,,,,e,1,0.563,,,,,,崇高,e,,,0,66,66,11,1,,,,,,,,,,,,,,,,,,,,,,,,,,,,,,,,,,
,,,,,,,,,,,,,,大米O.O,001,2025-01-02_14h17.25.287,IAT(Formal),2021.2.3,Win32,60.0240096,,,,,,,,,,,,,,,i,1,0.652,,,,,,固执,i,,,0,67,67,47,1,,,,,,,,,,,,,,,,,,,,,,,,,,,,,,,,,,
,,,,,,,,,,,,,,大米O.O,001,2025-01-02_14h17.25.287,IAT(Formal),2021.2.3,Win32,60.0240096,,,,,,,,,,,,,,,i,1,0.524,,,,,,刻薄,i,,,0,68,68,33,1,,,,,,,,,,,,,,,,,,,,,,,,,,,,,,,,,,
,,,,,,,,,,,,,,大米O.O,001,2025-01-02_14h17.25.287,IAT(Formal),2021.2.3,Win32,60.0240096,,,,,,,,,,,,,,,e,1,0.512,,,,,,公正,e,,,0,69,69,23,1,,,,,,,,,,,,,,,,,,,,,,,,,,,,,,,,,,
,,,,,,,,,,,,,,大米O.O,001,2025-01-02_14h17.25.287,IAT(Formal),2021.2.3,Win32,60.0240096,,,,,,,,,,,,,,,i,1,0.599,,,,,,其他,i,,,0,70,70,79,1,,,,,,,,,,,,,,,,,,,,,,,,,,,,,,,,,,
,,,,,,,,,,,,,,大米O.O,001,2025-01-02_14h17.25.287,IAT(Formal),2021.2.3,Win32,60.0240096,,,,,,,,,,,,,,,e,1,0.53,,,,,,我的,e,,,0,71,71,61,1,,,,,,,,,,,,,,,,,,,,,,,,,,,,,,,,,,
,,,,,,,,,,,,,,大米O.O,001,2025-01-02_14h17.25.287,IAT(Formal),2021.2.3,Win32,60.0240096,,,,,,,,,,,,,,,e,1,0.587,,,,,,自己,e,,,0,72,72,53,1,,,,,,,,,,,,,,,,,,,,,,,,,,,,,,,,,,
,,,,,,,,,,,,,,大米O.O,001,2025-01-02_14h17.25.287,IAT(Formal),2021.2.3,Win32,60.0240096,,,,,,,,,,,,,,,e,1,0.593,,,,,,俺,e,,,0,73,73,4,1,,,,,,,,,,,,,,,,,,,,,,,,,,,,,,,,,,
,,,,,,,,,,,,,,大米O.O,001,2025-01-02_14h17.25.287,IAT(Formal),2021.2.3,Win32,60.0240096,,,,,,,,,,,,,,,i,1,0.528,,,,,,自卑,i,,,0,74,74,36,1,,,,,,,,,,,,,,,,,,,,,,,,,,,,,,,,,,
,,,,,,,,,,,,,,大米O.O,001,2025-01-02_14h17.25.287,IAT(Formal),2021.2.3,Win32,60.0240096,,,,,,,,,,,,,,,e,1,0.579,,,,,,杰出,e,,,0,75,75,13,1,,,,,,,,,,,,,,,,,,,,,,,,,,,,,,,,,,
,,,,,,,,,,,,,,大米O.O,001,2025-01-02_14h17.25.287,IAT(Formal),2021.2.3,Win32,60.0240096,,,,,,,,,,,,,,,i,1,0.487,,,,,,他,i,,,0,76,76,55,1,,,,,,,,,,,,,,,,,,,,,,,,,,,,,,,,,,
,,,,,,,,,,,,,,大米O.O,001,2025-01-02_14h17.25.287,IAT(Formal),2021.2.3,Win32,60.0240096,,,,,,,,,,,,,,,i,1,0.547,,,,,,野蛮,i,,,0,77,77,46,1,,,,,,,,,,,,,,,,,,,,,,,,,,,,,,,,,,
,,,,,,,,,,,,,,大米O.O,001,2025-01-02_14h17.25.287,IAT(Formal),2021.2.3,Win32,60.0240096,,,,,,,,,,,,,,,e,1,0.522,,,,,,自己,e,,,0,78,78,73,1,,,,,,,,,,,,,,,,,,,,,,,,,,,,,,,,,,
,,,,,,,,,,,,,,大米O.O,001,2025-01-02_14h17.25.287,IAT(Formal),2021.2.3,Win32,60.0240096,,,,,,,,,,,,,,,i,1,0.599,,,,,,冒失,i,,,0,79,79,39,1,,,,,,,,,,,,,,,,,,,,,,,,,,,,,,,,,,
,,,,,,,,,,,,,,大米O.O,001,2025-01-02_14h17.25.287,IAT(Formal),2021.2.3,Win32,60.0240096,,,,,,,,,,,,,,,e,1,0.936,,,,,,我们,e,,,1,0,80,72,1,,,,,,,,,,,,,,,,,,,,,,,,,,,,,,,,,,
,,,,,,,,,,,,,,大米O.O,001,2025-01-02_14h17.25.287,IAT(Formal),2021.2.3,Win32,60.0240096,,,,,,,,,,,,,,,e,1,0.514,,,,,,自己,e,,,1,1,81,53,1,,,,,,,,,,,,,,,,,,,,,,,,,,,,,,,,,,
,,,,,,,,,,,,,,大米O.O,001,2025-01-02_14h17.25.287,IAT(Formal),2021.2.3,Win32,60.0240096,,,,,,,,,,,,,,,e,1,0.551,,,,,,俺,e,,,1,2,82,54,1,,,,,,,,,,,,,,,,,,,,,,,,,,,,,,,,,,
,,,,,,,,,,,,,,大米O.O,001,2025-01-02_14h17.25.287,IAT(Formal),2021.2.3,Win32,60.0240096,,,,,,,,,,,,,,,e,1,0.545,,,,,,自己,e,,,1,3,83,73,1,,,,,,,,,,,,,,,,,,,,,,,,,,,,,,,,,,
,,,,,,,,,,,,,,大米O.O,001,2025-01-02_14h17.25.287,IAT(Formal),2021.2.3,Win32,60.0240096,,,,,,,,,,,,,,,i,1,0.51,,,,,,他们,i,,,1,4,84,76,1,,,,,,,,,,,,,,,,,,,,,,,,,,,,,,,,,,
,,,,,,,,,,,,,,大米O.O,001,2025-01-02_14h17.25.287,IAT(Formal),2021.2.3,Win32,60.0240096,,,,,,,,,,,,,,,i,1,0.613,,,,,,傲慢,i,,,1,5,85,37,1,,,,,,,,,,,,,,,,,,,,,,,,,,,,,,,,,,
,,,,,,,,,,,,,,大米O.O,001,2025-01-02_14h17.25.287,IAT(Formal),2021.2.3,Win32,60.0240096,,,,,,,,,,,,,,,i,1,0.605,,,,,,鲁莽,i,,,1,6,86,38,1,,,,,,,,,,,,,,,,,,,,,,,,,,,,,,,,,,
,,,,,,,,,,,,,,大米O.O,001,2025-01-02_14h17.25.287,IAT(Formal),2021.2.3,Win32,60.0240096,,,,,,,,,,,,,,,e,1,0.864,,,,,,我们,e,,,1,7,87,62,1,,,,,,,,,,,,,,,,,,,,,,,,,,,,,,,,,,
,,,,,,,,,,,,,,大米O.O,001,2025-01-02_14h17.25.287,IAT(Formal),2021.2.3,Win32,60.0240096,,,,,,,,,,,,,,,i,1,0.582,,,,,,暴躁,i,,,1,8,88,44,1,,,,,,,,,,,,,,,,,,,,,,,,,,,,,,,,,,
,,,,,,,,,,,,,,大米O.O,001,2025-01-02_14h17.25.287,IAT(Formal),2021.2.3,Win32,60.0240096,,,,,,,,,,,,,,,e,1,0.529,,,,,,自己,e,,,1,9,89,3,1,,,,,,,,,,,,,,,,,,,,,,,,,,,,,,,,,,
,,,,,,,,,,,,,,大米O.O,001,2025-01-02_14h17.25.287,IAT(Formal),2021.2.3,Win32,60.0240096,,,,,,,,,,,,,,,i,1,1.117,,,,,,他,i,,,1,10,90,5,1,,,,,,,,,,,,,,,,,,,,,,,,,,,,,,,,,,
,,,,,,,,,,,,,,大米O.O,001,2025-01-02_14h17.25.287,IAT(Formal),2021.2.3,Win32,60.0240096,,,,,,,,,,,,,,,i,1,0.487,,,,,,其他,i,,,1,11,91,79,1,,,,,,,,,,,,,,,,,,,,,,,,,,,,,,,,,,
,,,,,,,,,,,,,,大米O.O,001,2025-01-02_14h17.25.287,IAT(Formal),2021.2.3,Win32,60.0240096,,,,,,,,,,,,,,,e,1,0.562,,,,,,热情,e,,,1,12,92,27,1,,,,,,,,,,,,,,,,,,,,,,,,,,,,,,,,,,
,,,,,,,,,,,,,,大米O.O,001,2025-01-02_14h17.25.287,IAT(Formal),2021.2.3,Win32,60.0240096,,,,,,,,,,,,,,,e,1,0.578,,,,,,我们,e,,,1,13,93,52,1,,,,,,,,,,,,,,,,,,,,,,,,,,,,,,,,,,
,,,,,,,,,,,,,,大米O.O,001,2025-01-02_14h17.25.287,IAT(Formal),2021.2.3,Win32,60.0240096,,,,,,,,,,,,,,,i,1,0.518,,,,,,其他,i,,,1,14,94,59,1,,,,,,,,,,,,,,,,,,,,,,,,,,,,,,,,,,
,,,,,,,,,,,,,,大米O.O,001,2025-01-02_14h17.25.287,IAT(Formal),2021.2.3,Win32,60.0240096,,,,,,,,,,,,,,,i,1,0.594,,,,,,执拗,i,,,1,15,95,40,1,,,,,,,,,,,,,,,,,,,,,,,,,,,,,,,,,,
,,,,,,,,,,,,,,大米O.O,001,2025-01-02_14h17.25.287,IAT(Formal),2021.2.3,Win32,60.0240096,,,,,,,,,,,,,,,e,1,0.554,,,,,,认真,e,,,1,16,96,20,1,,,,,,,,,,,,,,,,,,,,,,,,,,,,,,,,,,
,,,,,,,,,,,,,,大米O.O,001,2025-01-02_14h17.25.287,IAT(Formal),2021.2.3,Win32,60.0240096,,,,,,,,,,,,,,,e,1,0.525,,,,,,乐观,e,,,1,17,97,14,1,,,,,,,,,,,,,,,,,,,,,,,,,,,,,,,,,,
,,,,,,,,,,,,,,大米O.O,001,2025-01-02_14h17.25.287,IAT(Formal),2021.2.3,Win32,60.0240096,,,,,,,,,,,,,,,e,1,0.705,,,,,,细腻,e,,,1,18,98,25,1,,,,,,,,,,,,,,,,,,,,,,,,,,,,,,,,,,
,,,,,,,,,,,,,,大米O.O,001,2025-01-02_14h17.25.287,IAT(Formal),2021.2.3,Win32,60.0240096,,,,,,,,,,,,,,,e,1,0.545,,,,,,我的,e,,,1,19,99,51,1,,,,,,,,,,,,,,,,,,,,,,,,,,,,,,,,,,
,,,,,,,,,,,,,,大米O.O,001,2025-01-02_14h17.25.287,IAT(Formal),2021.2.3,Win32,60.0240096,,,,,,,,,,,,,,,e,1,0.525,,,,,,我的,e,,,1,20,100,61,1,,,,,,,,,,,,,,,,,,,,,,,,,,,,,,,,,,
,,,,,,,,,,,,,,大米O.O,001,2025-01-02_14h17.25.287,IAT(Formal),2021.2.3,Win32,60.0240096,,,,,,,,,,,,,,,i,1,0.554,,,,,,他们,i,,,1,21,101,66,1,,,,,,,,,,,,,,,,,,,,,,,,,,,,,,,,,,
,,,,,,,,,,,,,,大米O.O,001,2025-01-02_14h17.25.287,IAT(Formal),2021.2.3,Win32,60.0240096,,,,,,,,,,,,,,,e,1,0.632,,,,,,机智,e,,,1,22,102,19,1,,,,,,,,,,,,,,,,,,,,,,,,,,,,,,,,,,
,,,,,,,,,,,,,,大米O.O,001,2025-01-02_14h17.25.287,IAT(Formal),2021.2.3,Win32,60.0240096,,,,,,,,,,,,,,,i,1,0.7,,,,,,他的,i,,,1,23,103,67,1,,,,,,,,,,,,,,,,,,,,,,,,,,,,,,,,,,
,,,,,,,,,,,,,,大米O.O,001,2025-01-02_14h17.25.287,IAT(Formal),2021.2.3,Win32,60.0240096,,,,,,,,,,,,,,,e,1,0.483,,,,,,我,e,,,1,24,104,60,1,,,,,,,,,,,,,,,,,,,,,,,,,,,,,,,,,,
,,,,,,,,,,,,,,大米O.O,001,2025-01-02_14h17.25.287,IAT(Formal),2021.2.3,Win32,60.0240096,,,,,,,,,,,,,,,e,1,0.634,,,,,,俺,e,,,1,25,105,4,1,,,,,,,,,,,,,,,,,,,,,,,,,,,,,,,,,,
,,,,,,,,,,,,,,大米O.O,001,2025-01-02_14h17.25.287,IAT(Formal),2021.2.3,Win32,60.0240096,,,,,,,,,,,,,,,e,1,0.572,,,,,,正直,e,,,1,26,106,16,1,,,,,,,,,,,,,,,,,,,,,,,,,,,,,,,,,,
,,,,,,,,,,,,,,大米O.O,001,2025-01-02_14h17.25.287,IAT(Formal),2021.2.3,Win32,60.0240096,,,,,,,,,,,,,,,e,1,0.544,,,,,,冷静,e,,,1,27,107,26,1,,,,,,,,,,,,,,,,,,,,,,,,,,,,,,,,,,
,,,,,,,,,,,,,,大米O.O,001,2025-01-02_14h17.25.287,IAT(Formal),2021.2.3,Win32,60.0240096,,,,,,,,,,,,,,,i,1,0.845,,,,,,轻率,i,,,1,28,108,48,1,,,,,,,,,,,,,,,,,,,,,,,,,,,,,,,,,,
,,,,,,,,,,,,,,大米O.O,001,2025-01-02_14h17.25.287,IAT(Formal),2021.2.3,Win32,60.0240096,,,,,,,,,,,,,,,i,1,0.709,,,,,,其他,i,,,1,29,109,9,1,,,,,,,,,,,,,,,,,,,,,,,,,,,,,,,,,,
,,,,,,,,,,,,,,大米O.O,001,2025-01-02_14h17.25.287,IAT(Formal),2021.2.3,Win32,60.0240096,,,,,,,,,,,,,,,e,1,0.581,,,,,,勇敢,e,,,1,30,110,17,1,,,,,,,,,,,,,,,,,,,,,,,,,,,,,,,,,,
,,,,,,,,,,,,,,大米O.O,001,2025-01-02_14h17.25.287,IAT(Formal),2021.2.3,Win32,60.0240096,,,,,,,,,,,,,,,i,1,0.595,,,,,,下贱,i,,,1,31,111,49,1,,,,,,,,,,,,,,,,,,,,,,,,,,,,,,,,,,
,,,,,,,,,,,,,,大米O.O,001,2025-01-02_14h17.25.287,IAT(Formal),2021.2.3,Win32,60.0240096,,,,,,,,,,,,,,,e,1,0.58,,,,,,勤奋,e,,,1,32,112,18,1,,,,,,,,,,,,,,,,,,,,,,,,,,,,,,,,,,
,,,,,,,,,,,,,,大米O.O,001,2025-01-02_14h17.25.287,IAT(Formal),2021.2.3,Win32,60.0240096,,,,,,,,,,,,,,,e,1,0.933,,,,,,无私,e,,,1,33,113,22,1,,,,,,,,,,,,,,,,,,,,,,,,,,,,,,,,,,
,,,,,,,,,,,,,,大米O.O,001,2025-01-02_14h17.25.287,IAT(Formal),2021.2.3,Win32,60.0240096,,,,,,,,,,,,,,,i,1,0.618,,,,,,他的,i,,,1,34,114,77,1,,,,,,,,,,,,,,,,,,,,,,,,,,,,,,,,,,
,,,,,,,,,,,,,,大米O.O,001,2025-01-02_14h17.25.287,IAT(Formal),2021.2.3,Win32,60.0240096,,,,,,,,,,,,,,,i,1,0.456,,,,,,他人,i,,,1,35,115,8,1,,,,,,,,,,,,,,,,,,,,,,,,,,,,,,,,,,
,,,,,,,,,,,,,,大米O.O,001,2025-01-02_14h17.25.287,IAT(Formal),2021.2.3,Win32,60.0240096,,,,,,,,,,,,,,,i,1,0.869,,,,,,悲观,i,,,1,36,116,34,1,,,,,,,,,,,,,,,,,,,,,,,,,,,,,,,,,,
,,,,,,,,,,,,,,大米O.O,001,2025-01-02_14h17.25.287,IAT(Formal),2021.2.3,Win32,60.0240096,,,,,,,,,,,,,,,i,1,0.564,,,,,,他的,i,,,1,37,117,57,1,,,,,,,,,,,,,,,,,,,,,,,,,,,,,,,,,,
,,,,,,,,,,,,,,大米O.O,001,2025-01-02_14h17.25.287,IAT(Formal),2021.2.3,Win32,60.0240096,,,,,,,,,,,,,,,e,1,0.564,,,,,,杰出,e,,,1,38,118,13,1,,,,,,,,,,,,,,,,,,,,,,,,,,,,,,,,,,
,,,,,,,,,,,,,,大米O.O,001,2025-01-02_14h17.25.287,IAT(Formal),2021.2.3,Win32,60.0240096,,,,,,,,,,,,,,,i,1,0.703,,,,,,他们,i,,,1,39,119,56,1,,,,,,,,,,,,,,,,,,,,,,,,,,,,,,,,,,
,,,,,,,,,,,,,,大米O.O,001,2025-01-02_14h17.25.287,IAT(Formal),2021.2.3,Win32,60.0240096,,,,,,,,,,,,,,,e,1,1.134,,,,,,稳重,e,,,1,40,120,21,1,,,,,,,,,,,,,,,,,,,,,,,,,,,,,,,,,,
,,,,,,,,,,,,,,大米O.O,001,2025-01-02_14h17.25.287,IAT(Formal),2021.2.3,Win32,60.0240096,,,,,,,,,,,,,,,i,1,0.543,,,,,,卑鄙,i,,,1,41,121,30,1,,,,,,,,,,,,,,,,,,,,,,,,,,,,,,,,,,
,,,,,,,,,,,,,,大米O.O,001,2025-01-02_14h17.25.287,IAT(Formal),2021.2.3,Win32,60.0240096,,,,,,,,,,,,,,,e,1,0.627,,,,,,活泼,e,,,1,42,122,28,1,,,,,,,,,,,,,,,,,,,,,,,,,,,,,,,,,,
,,,,,,,,,,,,,,大米O.O,001,2025-01-02_14h17.25.287,IAT(Formal),2021.2.3,Win32,60.0240096,,,,,,,,,,,,,,,e,1,0.587,,,,,,自己,e,,,1,43,123,63,1,,,,,,,,,,,,,,,,,,,,,,,,,,,,,,,,,,
,,,,,,,,,,,,,,大米O.O,001,2025-01-02_14h17.25.287,IAT(Formal),2021.2.3,Win32,60.0240096,,,,,,,,,,,,,,,i,1,0.602,,,,,,愚蠢,i,,,1,44,124,32,1,,,,,,,,,,,,,,,,,,,,,,,,,,,,,,,,,,
,,,,,,,,,,,,,,大米O.O,001,2025-01-02_14h17.25.287,IAT(Formal),2021.2.3,Win32,60.0240096,,,,,,,,,,,,,,,e,1,0.728,,,,,,公正,e,,,1,45,125,23,1,,,,,,,,,,,,,,,,,,,,,,,,,,,,,,,,,,
,,,,,,,,,,,,,,大米O.O,001,2025-01-02_14h17.25.287,IAT(Formal),2021.2.3,Win32,60.0240096,,,,,,,,,,,,,,,i,1,0.502,,,,,,猖狂,i,,,1,46,126,45,1,,,,,,,,,,,,,,,,,,,,,,,,,,,,,,,,,,
,,,,,,,,,,,,,,大米O.O,001,2025-01-02_14h17.25.287,IAT(Formal),2021.2.3,Win32,60.0240096,,,,,,,,,,,,,,,e,1,0.777,,,,,,诚恳,e,,,1,47,127,29,1,,,,,,,,,,,,,,,,,,,,,,,,,,,,,,,,,,
,,,,,,,,,,,,,,大米O.O,001,2025-01-02_14h17.25.287,IAT(Formal),2021.2.3,Win32,60.0240096,,,,,,,,,,,,,,,i,1,0.57,,,,,,凶狠,i,,,1,48,128,42,1,,,,,,,,,,,,,,,,,,,,,,,,,,,,,,,,,,
,,,,,,,,,,,,,,大米O.O,001,2025-01-02_14h17.25.287,IAT(Formal),2021.2.3,Win32,60.0240096,,,,,,,,,,,,,,,i,1,0.585,,,,,,刻薄,i,,,1,49,129,33,1,,,,,,,,,,,,,,,,,,,,,,,,,,,,,,,,,,
,,,,,,,,,,,,,,大米O.O,001,2025-01-02_14h17.25.287,IAT(Formal),2021.2.3,Win32,60.0240096,,,,,,,,,,,,,,,i,1,0.5,,,,,,冒失,i,,,1,50,130,39,1,,,,,,,,,,,,,,,,,,,,,,,,,,,,,,,,,,
,,,,,,,,,,,,,,大米O.O,001,2025-01-02_14h17.25.287,IAT(Formal),2021.2.3,Win32,60.0240096,,,,,,,,,,,,,,,i,1,0.53,,,,,,他们,i,,,1,51,131,6,1,,,,,,,,,,,,,,,,,,,,,,,,,,,,,,,,,,
,,,,,,,,,,,,,,大米O.O,001,2025-01-02_14h17.25.287,IAT(Formal),2021.2.3,Win32,60.0240096,,,,,,,,,,,,,,,e,1,0.999,,,,,,俺,e,,,1,52,132,64,1,,,,,,,,,,,,,,,,,,,,,,,,,,,,,,,,,,
,,,,,,,,,,,,,,大米O.O,001,2025-01-02_14h17.25.287,IAT(Formal),2021.2.3,Win32,60.0240096,,,,,,,,,,,,,,,i,1,0.58,,,,,,自卑,i,,,1,53,133,36,1,,,,,,,,,,,,,,,,,,,,,,,,,,,,,,,,,,
,,,,,,,,,,,,,,大米O.O,001,2025-01-02_14h17.25.287,IAT(Formal),2021.2.3,Win32,60.0240096,,,,,,,,,,,,,,,e,1,0.694,,,,,,朴实,e,,,1,54,134,24,1,,,,,,,,,,,,,,,,,,,,,,,,,,,,,,,,,,
,,,,,,,,,,,,,,大米O.O,001,2025-01-02_14h17.25.287,IAT(Formal),2021.2.3,Win32,60.0240096,,,,,,,,,,,,,,,e,1,0.629,,,,,,我们,e,,,1,55,135,2,1,,,,,,,,,,,,,,,,,,,,,,,,,,,,,,,,,,
,,,,,,,,,,,,,,大米O.O,001,2025-01-02_14h17.25.287,IAT(Formal),2021.2.3,Win32,60.0240096,,,,,,,,,,,,,,,i,1,0.646,,,,,,野蛮,i,,,1,56,136,46,1,,,,,,,,,,,,,,,,,,,,,,,,,,,,,,,,,,
,,,,,,,,,,,,,,大米O.O,001,2025-01-02_14h17.25.287,IAT(Formal),2021.2.3,Win32,60.0240096,,,,,,,,,,,,,,,i,1,0.638,,,,,,自私,i,,,1,57,137,43,1,,,,,,,,,,,,,,,,,,,,,,,,,,,,,,,,,,
,,,,,,,,,,,,,,大米O.O,001,2025-01-02_14h17.25.287,IAT(Formal),2021.2.3,Win32,60.0240096,,,,,,,,,,,,,,,e,1,0.522,,,,,,优秀,e,,,1,58,138,10,1,,,,,,,,,,,,,,,,,,,,,,,,,,,,,,,,,,
,,,,,,,,,,,,,,大米O.O,001,2025-01-02_14h17.25.287,IAT(Formal),2021.2.3,Win32,60.0240096,,,,,,,,,,,,,,,i,1,0.532,,,,,,其他,i,,,1,59,139,69,1,,,,,,,,,,,,,,,,,,,,,,,,,,,,,,,,,,
,,,,,,,,,,,,,,大米O.O,001,2025-01-02_14h17.25.287,IAT(Formal),2021.2.3,Win32,60.0240096,,,,,,,,,,,,,,,i,1,0.603,,,,,,他的,i,,,1,60,140,7,1,,,,,,,,,,,,,,,,,,,,,,,,,,,,,,,,,,
,,,,,,,,,,,,,,大米O.O,001,2025-01-02_14h17.25.287,IAT(Formal),2021.2.3,Win32,60.0240096,,,,,,,,,,,,,,,e,1,0.514,,,,,,诚实,e,,,1,61,141,15,1,,,,,,,,,,,,,,,,,,,,,,,,,,,,,,,,,,
,,,,,,,,,,,,,,大米O.O,001,2025-01-02_14h17.25.287,IAT(Formal),2021.2.3,Win32,60.0240096,,,,,,,,,,,,,,,e,1,0.565,,,,,,我的,e,,,1,62,142,71,1,,,,,,,,,,,,,,,,,,,,,,,,,,,,,,,,,,
,,,,,,,,,,,,,,大米O.O,001,2025-01-02_14h17.25.287,IAT(Formal),2021.2.3,Win32,60.0240096,,,,,,,,,,,,,,,e,1,0.624,,,,,,我,e,,,1,63,143,70,1,,,,,,,,,,,,,,,,,,,,,,,,,,,,,,,,,,
,,,,,,,,,,,,,,大米O.O,001,2025-01-02_14h17.25.287,IAT(Formal),2021.2.3,Win32,60.0240096,,,,,,,,,,,,,,,i,1,0.646,,,,,,散漫,i,,,1,64,144,41,1,,,,,,,,,,,,,,,,,,,,,,,,,,,,,,,,,,
,,,,,,,,,,,,,,大米O.O,001,2025-01-02_14h17.25.287,IAT(Formal),2021.2.3,Win32,60.0240096,,,,,,,,,,,,,,,i,1,0.533,,,,,,他,i,,,1,65,145,65,1,,,,,,,,,,,,,,,,,,,,,,,,,,,,,,,,,,
,,,,,,,,,,,,,,大米O.O,001,2025-01-02_14h17.25.287,IAT(Formal),2021.2.3,Win32,60.0240096,,,,,,,,,,,,,,,i,1,0.401,,,,,,他,i,,,1,66,146,75,1,,,,,,,,,,,,,,,,,,,,,,,,,,,,,,,,,,
,,,,,,,,,,,,,,大米O.O,001,2025-01-02_14h17.25.287,IAT(Formal),2021.2.3,Win32,60.0240096,,,,,,,,,,,,,,,i,1,0.411,,,,,,他人,i,,,1,67,147,68,1,,,,,,,,,,,,,,,,,,,,,,,,,,,,,,,,,,
,,,,,,,,,,,,,,大米O.O,001,2025-01-02_14h17.25.287,IAT(Formal),2021.2.3,Win32,60.0240096,,,,,,,,,,,,,,,e,1,0.819,,,,,,聪明,e,,,1,68,148,12,1,,,,,,,,,,,,,,,,,,,,,,,,,,,,,,,,,,
,,,,,,,,,,,,,,大米O.O,001,2025-01-02_14h17.25.287,IAT(Formal),2021.2.3,Win32,60.0240096,,,,,,,,,,,,,,,e,1,0.406,,,,,,我的,e,,,1,69,149,1,1,,,,,,,,,,,,,,,,,,,,,,,,,,,,,,,,,,
,,,,,,,,,,,,,,大米O.O,001,2025-01-02_14h17.25.287,IAT(Formal),2021.2.3,Win32,60.0240096,,,,,,,,,,,,,,,e,1,0.544,,,,,,崇高,e,,,1,70,150,11,1,,,,,,,,,,,,,,,,,,,,,,,,,,,,,,,,,,
,,,,,,,,,,,,,,大米O.O,001,2025-01-02_14h17.25.287,IAT(Formal),2021.2.3,Win32,60.0240096,,,,,,,,,,,,,,,i,1,0.571,,,,,,虚伪,i,,,1,71,151,31,1,,,,,,,,,,,,,,,,,,,,,,,,,,,,,,,,,,
,,,,,,,,,,,,,,大米O.O,001,2025-01-02_14h17.25.287,IAT(Formal),2021.2.3,Win32,60.0240096,,,,,,,,,,,,,,,i,1,0.588,,,,,,他人,i,,,1,72,152,78,1,,,,,,,,,,,,,,,,,,,,,,,,,,,,,,,,,,
,,,,,,,,,,,,,,大米O.O,001,2025-01-02_14h17.25.287,IAT(Formal),2021.2.3,Win32,60.0240096,,,,,,,,,,,,,,,i,1,0.579,,,,,,消极,i,,,1,73,153,35,1,,,,,,,,,,,,,,,,,,,,,,,,,,,,,,,,,,
,,,,,,,,,,,,,,大米O.O,001,2025-01-02_14h17.25.287,IAT(Formal),2021.2.3,Win32,60.0240096,,,,,,,,,,,,,,,i,1,0.445,,,,,,他人,i,,,1,74,154,58,1,,,,,,,,,,,,,,,,,,,,,,,,,,,,,,,,,,
,,,,,,,,,,,,,,大米O.O,001,2025-01-02_14h17.25.287,IAT(Formal),2021.2.3,Win32,60.0240096,,,,,,,,,,,,,,,e,1,0.666,,,,,,俺,e,,,1,75,155,74,1,,,,,,,,,,,,,,,,,,,,,,,,,,,,,,,,,,
,,,,,,,,,,,,,,大米O.O,001,2025-01-02_14h17.25.287,IAT(Formal),2021.2.3,Win32,60.0240096,,,,,,,,,,,,,,,e,0,0.67,,,,,,固执,i,,,1,76,156,47,1,,,,,,,,,,,,,,,,,,,,,,,,,,,,,,,,,,
,,,,,,,,,,,,,,大米O.O,001,2025-01-02_14h17.25.287,IAT(Formal),2021.2.3,Win32,60.0240096,,,,,,,,,,,,,,,e,1,0.591,,,,,,我,e,,,1,77,157,0,1,,,,,,,,,,,,,,,,,,,,,,,,,,,,,,,,,,
,,,,,,,,,,,,,,大米O.O,001,2025-01-02_14h17.25.287,IAT(Formal),2021.2.3,Win32,60.0240096,,,,,,,,,,,,,,,e,1,0.493,,,,,,我,e,,,1,78,158,50,1,,,,,,,,,,,,,,,,,,,,,,,,,,,,,,,,,,
,,,,,,,,,,,,,,大米O.O,001,2025-01-02_14h17.25.287,IAT(Formal),2021.2.3,Win32,60.0240096,,,,,,,,,,,,,,,i,1,0.632,,,,,,他,i,,,1,79,159,55,1,,,,,,,,,,,,,,,,,,,,,,,,,,,,,,,,,,
,,,,,,,,,,,,他,e,大米O.O,001,2025-01-02_14h17.25.287,IAT(Formal),2021.2.3,Win32,60.0240096,,,,,,,,,,,,,,,,,,,,,,,,,,,,,,,,space,80.645,e,1,0.57,0,0,0,5,1,,,,,,,,,,,,,,,,,,,,,,,,
,,,,,,,,,,,,我的,i,大米O.O,001,2025-01-02_14h17.25.287,IAT(Formal),2021.2.3,Win32,60.0240096,,,,,,,,,,,,,,,,,,,,,,,,,,,,,,,,,,i,1,0.511,0,1,1,1,1,,,,,,,,,,,,,,,,,,,,,,,,
,,,,,,,,,,,,自己,i,大米O.O,001,2025-01-02_14h17.25.287,IAT(Formal),2021.2.3,Win32,60.0240096,,,,,,,,,,,,,,,,,,,,,,,,,,,,,,,,,,i,1,0.445,0,2,2,3,1,,,,,,,,,,,,,,,,,,,,,,,,
,,,,,,,,,,,,我们,i,大米O.O,001,2025-01-02_14h17.25.287,IAT(Formal),2021.2.3,Win32,60.0240096,,,,,,,,,,,,,,,,,,,,,,,,,,,,,,,,,,i,1,0.398,0,3,3,2,1,,,,,,,,,,,,,,,,,,,,,,,,
,,,,,,,,,,,,俺,i,大米O.O,001,2025-01-02_14h17.25.287,IAT(Formal),2021.2.3,Win32,60.0240096,,,,,,,,,,,,,,,,,,,,,,,,,,,,,,,,,,e,0,0.431,0,4,4,4,1,,,,,,,,,,,,,,,,,,,,,,,,
,,,,,,,,,,,,他们,e,大米O.O,001,2025-01-02_14h17.25.287,IAT(Formal),2021.2.3,Win32,60.0240096,,,,,,,,,,,,,,,,,,,,,,,,,,,,,,,,,,e,1,0.512,0,5,5,6,1,,,,,,,,,,,,,,,,,,,,,,,,
,,,,,,,,,,,,其他,e,大米O.O,001,2025-01-02_14h17.25.287,IAT(Formal),2021.2.3,Win32,60.0240096,,,,,,,,,,,,,,,,,,,,,,,,,,,,,,,,,,e,1,0.588,0,6,6,9,1,,,,,,,,,,,,,,,,,,,,,,,,
,,,,,,,,,,,,他的,e,大米O.O,001,2025-01-02_14h17.25.287,IAT(Formal),2021.2.3,Win32,60.0240096,,,,,,,,,,,,,,,,,,,,,,,,,,,,,,,,,,e,1,0.43,0,7,7,7,1,,,,,,,,,,,,,,,,,,,,,,,,
,,,,,,,,,,,,他人,e,大米O.O,001,2025-01-02_14h17.25.287,IAT(Formal),2021.2.3,Win32,60.0240096,,,,,,,,,,,,,,,,,,,,,,,,,,,,,,,,,,e,1,0.378,0,8,8,8,1,,,,,,,,,,,,,,,,,,,,,,,,
,,,,,,,,,,,,我,i,大米O.O,001,2025-01-02_14h17.25.287,IAT(Formal),2021.2.3,Win32,60.0240096,,,,,,,,,,,,,,,,,,,,,,,,,,,,,,,,,,i,1,0.35,0,9,9,0,1,,,,,,,,,,,,,,,,,,,,,,,,
,,,,,,,,,,,,,,大米O.O,001,2025-01-02_14h17.25.287,IAT(Formal),2021.2.3,Win32,60.0240096,,,,,,,,,,,,,,,,,,,,,,,,,,,,,,,,,,,,,,,,,,space,54.711,i,1,0.586,0,0,0,45,1,猖狂,i,,,,,,,,,,,,
,,,,,,,,,,,,,,大米O.O,001,2025-01-02_14h17.25.287,IAT(Formal),2021.2.3,Win32,60.0240096,,,,,,,,,,,,,,,,,,,,,,,,,,,,,,,,,,,,,,,,,,,,i,1,0.468,0,1,1,37,1,傲慢,i,,,,,,,,,,,,
,,,,,,,,,,,,,,大米O.O,001,2025-01-02_14h17.25.287,IAT(Formal),2021.2.3,Win32,60.0240096,,,,,,,,,,,,,,,,,,,,,,,,,,,,,,,,,,,,,,,,,,,,i,1,0.399,0,2,2,0,1,我,i,,,,,,,,,,,,
,,,,,,,,,,,,,,大米O.O,001,2025-01-02_14h17.25.287,IAT(Formal),2021.2.3,Win32,60.0240096,,,,,,,,,,,,,,,,,,,,,,,,,,,,,,,,,,,,,,,,,,,,i,0,0.518,0,3,3,19,1,机智,e,,,,,,,,,,,,
,,,,,,,,,,,,,,大米O.O,001,2025-01-02_14h17.25.287,IAT(Formal),2021.2.3,Win32,60.0240096,,,,,,,,,,,,,,,,,,,,,,,,,,,,,,,,,,,,,,,,,,,,e,1,0.496,0,4,4,10,1,优秀,e,,,,,,,,,,,,
,,,,,,,,,,,,,,大米O.O,001,2025-01-02_14h17.25.287,IAT(Formal),2021.2.3,Win32,60.0240096,,,,,,,,,,,,,,,,,,,,,,,,,,,,,,,,,,,,,,,,,,,,e,0,0.413,0,5,5,51,1,我的,i,,,,,,,,,,,,
,,,,,,,,,,,,,,大米O.O,001,2025-01-02_14h17.25.287,IAT(Formal),2021.2.3,Win32,60.0240096,,,,,,,,,,,,,,,,,,,,,,,,,,,,,,,,,,,,,,,,,,,,i,1,0.928,0,6,6,44,1,暴躁,i,,,,,,,,,,,,
,,,,,,,,,,,,,,大米O.O,001,2025-01-02_14h17.25.287,IAT(Formal),2021.2.3,Win32,60.0240096,,,,,,,,,,,,,,,,,,,,,,,,,,,,,,,,,,,,,,,,,,,,i,1,0.568,0,7,7,35,1,消极,i,,,,,,,,,,,,
,,,,,,,,,,,,,,大米O.O,001,2025-01-02_14h17.25.287,IAT(Formal),2021.2.3,Win32,60.0240096,,,,,,,,,,,,,,,,,,,,,,,,,,,,,,,,,,,,,,,,,,,,i,1,0.636,0,8,8,31,1,虚伪,i,,,,,,,,,,,,
,,,,,,,,,,,,,,大米O.O,001,2025-01-02_14h17.25.287,IAT(Formal),2021.2.3,Win32,60.0240096,,,,,,,,,,,,,,,,,,,,,,,,,,,,,,,,,,,,,,,,,,,,e,1,0.7,0,9,9,17,1,勇敢,e,,,,,,,,,,,,
,,,,,,,,,,,,,,大米O.O,001,2025-01-02_14h17.25.287,IAT(Formal),2021.2.3,Win32,60.0240096,,,,,,,,,,,,,,,,,,,,,,,,,,,,,,,,,,,,,,,,,,,,e,1,0.38,0,10,10,76,1,他们,e,,,,,,,,,,,,
,,,,,,,,,,,,,,大米O.O,001,2025-01-02_14h17.25.287,IAT(Formal),2021.2.3,Win32,60.0240096,,,,,,,,,,,,,,,,,,,,,,,,,,,,,,,,,,,,,,,,,,,,e,1,1.003,0,11,11,24,1,朴实,e,,,,,,,,,,,,
,,,,,,,,,,,,,,大米O.O,001,2025-01-02_14h17.25.287,IAT(Formal),2021.2.3,Win32,60.0240096,,,,,,,,,,,,,,,,,,,,,,,,,,,,,,,,,,,,,,,,,,,,e,1,0.667,0,12,12,65,1,他,e,,,,,,,,,,,,
,,,,,,,,,,,,,,大米O.O,001,2025-01-02_14h17.25.287,IAT(Formal),2021.2.3,Win32,60.0240096,,,,,,,,,,,,,,,,,,,,,,,,,,,,,,,,,,,,,,,,,,,,i,1,0.489,0,13,13,71,1,我的,i,,,,,,,,,,,,
,,,,,,,,,,,,,,大米O.O,001,2025-01-02_14h17.25.287,IAT(Formal),2021.2.3,Win32,60.0240096,,,,,,,,,,,,,,,,,,,,,,,,,,,,,,,,,,,,,,,,,,,,i,0,1.077,0,14,14,21,1,稳重,e,,,,,,,,,,,,
,,,,,,,,,,,,,,大米O.O,001,2025-01-02_14h17.25.287,IAT(Formal),2021.2.3,Win32,60.0240096,,,,,,,,,,,,,,,,,,,,,,,,,,,,,,,,,,,,,,,,,,,,e,1,0.545,0,15,15,20,1,认真,e,,,,,,,,,,,,
,,,,,,,,,,,,,,大米O.O,001,2025-01-02_14h17.25.287,IAT(Formal),2021.2.3,Win32,60.0240096,,,,,,,,,,,,,,,,,,,,,,,,,,,,,,,,,,,,,,,,,,,,i,0,0.547,0,16,16,67,1,他的,e,,,,,,,,,,,,
,,,,,,,,,,,,,,大米O.O,001,2025-01-02_14h17.25.287,IAT(Formal),2021.2.3,Win32,60.0240096,,,,,,,,,,,,,,,,,,,,,,,,,,,,,,,,,,,,,,,,,,,,i,1,0.846,0,17,17,42,1,凶狠,i,,,,,,,,,,,,
,,,,,,,,,,,,,,大米O.O,001,2025-01-02_14h17.25.287,IAT(Formal),2021.2.3,Win32,60.0240096,,,,,,,,,,,,,,,,,,,,,,,,,,,,,,,,,,,,,,,,,,,,i,1,0.535,0,18,18,32,1,愚蠢,i,,,,,,,,,,,,
,,,,,,,,,,,,,,大米O.O,001,2025-01-02_14h17.25.287,IAT(Formal),2021.2.3,Win32,60.0240096,,,,,,,,,,,,,,,,,,,,,,,,,,,,,,,,,,,,,,,,,,,,e,1,0.598,0,19,19,12,1,聪明,e,,,,,,,,,,,,
,,,,,,,,,,,,,,大米O.O,001,2025-01-02_14h17.25.287,IAT(Formal),2021.2.3,Win32,60.0240096,,,,,,,,,,,,,,,,,,,,,,,,,,,,,,,,,,,,,,,,,,,,e,1,0.458,0,20,20,28,1,活泼,e,,,,,,,,,,,,
,,,,,,,,,,,,,,大米O.O,001,2025-01-02_14h17.25.287,IAT(Formal),2021.2.3,Win32,60.0240096,,,,,,,,,,,,,,,,,,,,,,,,,,,,,,,,,,,,,,,,,,,,e,1,0.324,0,21,21,56,1,他们,e,,,,,,,,,,,,
,,,,,,,,,,,,,,大米O.O,001,2025-01-02_14h17.25.287,IAT(Formal),2021.2.3,Win32,60.0240096,,,,,,,,,,,,,,,,,,,,,,,,,,,,,,,,,,,,,,,,,,,,e,1,0.496,0,22,22,9,1,其他,e,,,,,,,,,,,,
,,,,,,,,,,,,,,大米O.O,001,2025-01-02_14h17.25.287,IAT(Formal),2021.2.3,Win32,60.0240096,,,,,,,,,,,,,,,,,,,,,,,,,,,,,,,,,,,,,,,,,,,,e,1,0.491,0,23,23,6,1,他们,e,,,,,,,,,,,,
,,,,,,,,,,,,,,大米O.O,001,2025-01-02_14h17.25.287,IAT(Formal),2021.2.3,Win32,60.0240096,,,,,,,,,,,,,,,,,,,,,,,,,,,,,,,,,,,,,,,,,,,,e,1,0.424,0,24,24,8,1,他人,e,,,,,,,,,,,,
,,,,,,,,,,,,,,大米O.O,001,2025-01-02_14h17.25.287,IAT(Formal),2021.2.3,Win32,60.0240096,,,,,,,,,,,,,,,,,,,,,,,,,,,,,,,,,,,,,,,,,,,,e,1,0.939,0,25,25,25,1,细腻,e,,,,,,,,,,,,
,,,,,,,,,,,,,,大米O.O,001,2025-01-02_14h17.25.287,IAT(Formal),2021.2.3,Win32,60.0240096,,,,,,,,,,,,,,,,,,,,,,,,,,,,,,,,,,,,,,,,,,,,i,0,0.579,0,26,26,18,1,勤奋,e,,,,,,,,,,,,
,,,,,,,,,,,,,,大米O.O,001,2025-01-02_14h17.25.287,IAT(Formal),2021.2.3,Win32,60.0240096,,,,,,,,,,,,,,,,,,,,,,,,,,,,,,,,,,,,,,,,,,,,i,1,0.595,0,27,27,36,1,自卑,i,,,,,,,,,,,,
,,,,,,,,,,,,,,大米O.O,001,2025-01-02_14h17.25.287,IAT(Formal),2021.2.3,Win32,60.0240096,,,,,,,,,,,,,,,,,,,,,,,,,,,,,,,,,,,,,,,,,,,,i,0,0.531,0,28,28,23,1,公正,e,,,,,,,,,,,,
,,,,,,,,,,,,,,大米O.O,001,2025-01-02_14h17.25.287,IAT(Formal),2021.2.3,Win32,60.0240096,,,,,,,,,,,,,,,,,,,,,,,,,,,,,,,,,,,,,,,,,,,,e,1,1.042,0,29,29,66,1,他们,e,,,,,,,,,,,,
,,,,,,,,,,,,,,大米O.O,001,2025-01-02_14h17.25.287,IAT(Formal),2021.2.3,Win32,60.0240096,,,,,,,,,,,,,,,,,,,,,,,,,,,,,,,,,,,,,,,,,,,,e,0,0.546,0,30,30,48,1,轻率,i,,,,,,,,,,,,
,,,,,,,,,,,,,,大米O.O,001,2025-01-02_14h17.25.287,IAT(Formal),2021.2.3,Win32,60.0240096,,,,,,,,,,,,,,,,,,,,,,,,,,,,,,,,,,,,,,,,,,,,i,1,0.651,0,31,31,40,1,执拗,i,,,,,,,,,,,,
,,,,,,,,,,,,,,大米O.O,001,2025-01-02_14h17.25.287,IAT(Formal),2021.2.3,Win32,60.0240096,,,,,,,,,,,,,,,,,,,,,,,,,,,,,,,,,,,,,,,,,,,,e,1,0.996,0,32,32,16,1,正直,e,,,,,,,,,,,,
,,,,,,,,,,,,,,大米O.O,001,2025-01-02_14h17.25.287,IAT(Formal),2021.2.3,Win32,60.0240096,,,,,,,,,,,,,,,,,,,,,,,,,,,,,,,,,,,,,,,,,,,,e,1,0.735,0,33,33,14,1,乐观,e,,,,,,,,,,,,
,,,,,,,,,,,,,,大米O.O,001,2025-01-02_14h17.25.287,IAT(Formal),2021.2.3,Win32,60.0240096,,,,,,,,,,,,,,,,,,,,,,,,,,,,,,,,,,,,,,,,,,,,e,0,0.466,0,34,34,70,1,我,i,,,,,,,,,,,,
,,,,,,,,,,,,,,大米O.O,001,2025-01-02_14h17.25.287,IAT(Formal),2021.2.3,Win32,60.0240096,,,,,,,,,,,,,,,,,,,,,,,,,,,,,,,,,,,,,,,,,,,,i,1,0.597,0,35,35,72,1,我们,i,,,,,,,,,,,,
,,,,,,,,,,,,,,大米O.O,001,2025-01-02_14h17.25.287,IAT(Formal),2021.2.3,Win32,60.0240096,,,,,,,,,,,,,,,,,,,,,,,,,,,,,,,,,,,,,,,,,,,,i,1,1.098,0,36,36,34,1,悲观,i,,,,,,,,,,,,
,,,,,,,,,,,,,,大米O.O,001,2025-01-02_14h17.25.287,IAT(Formal),2021.2.3,Win32,60.0240096,,,,,,,,,,,,,,,,,,,,,,,,,,,,,,,,,,,,,,,,,,,,e,1,0.654,0,37,37,78,1,他人,e,,,,,,,,,,,,
,,,,,,,,,,,,,,大米O.O,001,2025-01-02_14h17.25.287,IAT(Formal),2021.2.3,Win32,60.0240096,,,,,,,,,,,,,,,,,,,,,,,,,,,,,,,,,,,,,,,,,,,,i,1,0.603,0,38,38,2,1,我们,i,,,,,,,,,,,,
,,,,,,,,,,,,,,大米O.O,001,2025-01-02_14h17.25.287,IAT(Formal),2021.2.3,Win32,60.0240096,,,,,,,,,,,,,,,,,,,,,,,,,,,,,,,,,,,,,,,,,,,,e,1,0.951,0,39,39,22,1,无私,e,,,,,,,,,,,,
,,,,,,,,,,,,,,大米O.O,001,2025-01-02_14h17.25.287,IAT(Formal),2021.2.3,Win32,60.0240096,,,,,,,,,,,,,,,,,,,,,,,,,,,,,,,,,,,,,,,,,,,,e,1,0.817,0,40,40,79,1,其他,e,,,,,,,,,,,,
,,,,,,,,,,,,,,大米O.O,001,2025-01-02_14h17.25.287,IAT(Formal),2021.2.3,Win32,60.0240096,,,,,,,,,,,,,,,,,,,,,,,,,,,,,,,,,,,,,,,,,,,,i,1,0.515,0,41,41,52,1,我们,i,,,,,,,,,,,,
,,,,,,,,,,,,,,大米O.O,001,2025-01-02_14h17.25.287,IAT(Formal),2021.2.3,Win32,60.0240096,,,,,,,,,,,,,,,,,,,,,,,,,,,,,,,,,,,,,,,,,,,,e,1,1.131,0,42,42,68,1,他人,e,,,,,,,,,,,,
,,,,,,,,,,,,,,大米O.O,001,2025-01-02_14h17.25.287,IAT(Formal),2021.2.3,Win32,60.0240096,,,,,,,,,,,,,,,,,,,,,,,,,,,,,,,,,,,,,,,,,,,,i,1,0.703,0,43,43,49,1,下贱,i,,,,,,,,,,,,
,,,,,,,,,,,,,,大米O.O,001,2025-01-02_14h17.25.287,IAT(Formal),2021.2.3,Win32,60.0240096,,,,,,,,,,,,,,,,,,,,,,,,,,,,,,,,,,,,,,,,,,,,i,1,0.581,0,44,44,62,1,我们,i,,,,,,,,,,,,
,,,,,,,,,,,,,,大米O.O,001,2025-01-02_14h17.25.287,IAT(Formal),2021.2.3,Win32,60.0240096,,,,,,,,,,,,,,,,,,,,,,,,,,,,,,,,,,,,,,,,,,,,i,1,0.447,0,45,45,30,1,卑鄙,i,,,,,,,,,,,,
,,,,,,,,,,,,,,大米O.O,001,2025-01-02_14h17.25.287,IAT(Formal),2021.2.3,Win32,60.0240096,,,,,,,,,,,,,,,,,,,,,,,,,,,,,,,,,,,,,,,,,,,,e,1,0.569,0,46,46,58,1,他人,e,,,,,,,,,,,,
,,,,,,,,,,,,,,大米O.O,001,2025-01-02_14h17.25.287,IAT(Formal),2021.2.3,Win32,60.0240096,,,,,,,,,,,,,,,,,,,,,,,,,,,,,,,,,,,,,,,,,,,,e,1,0.886,0,47,47,26,1,冷静,e,,,,,,,,,,,,
,,,,,,,,,,,,,,大米O.O,001,2025-01-02_14h17.25.287,IAT(Formal),2021.2.3,Win32,60.0240096,,,,,,,,,,,,,,,,,,,,,,,,,,,,,,,,,,,,,,,,,,,,e,1,0.696,0,48,48,27,1,热情,e,,,,,,,,,,,,
,,,,,,,,,,,,,,大米O.O,001,2025-01-02_14h17.25.287,IAT(Formal),2021.2.3,Win32,60.0240096,,,,,,,,,,,,,,,,,,,,,,,,,,,,,,,,,,,,,,,,,,,,e,1,0.708,0,49,49,55,1,他,e,,,,,,,,,,,,
,,,,,,,,,,,,,,大米O.O,001,2025-01-02_14h17.25.287,IAT(Formal),2021.2.3,Win32,60.0240096,,,,,,,,,,,,,,,,,,,,,,,,,,,,,,,,,,,,,,,,,,,,i,1,1.049,0,50,50,53,1,自己,i,,,,,,,,,,,,
,,,,,,,,,,,,,,大米O.O,001,2025-01-02_14h17.25.287,IAT(Formal),2021.2.3,Win32,60.0240096,,,,,,,,,,,,,,,,,,,,,,,,,,,,,,,,,,,,,,,,,,,,e,1,0.8,0,51,51,7,1,他的,e,,,,,,,,,,,,
,,,,,,,,,,,,,,大米O.O,001,2025-01-02_14h17.25.287,IAT(Formal),2021.2.3,Win32,60.0240096,,,,,,,,,,,,,,,,,,,,,,,,,,,,,,,,,,,,,,,,,,,,i,1,0.527,0,52,52,1,1,我的,i,,,,,,,,,,,,
,,,,,,,,,,,,,,大米O.O,001,2025-01-02_14h17.25.287,IAT(Formal),2021.2.3,Win32,60.0240096,,,,,,,,,,,,,,,,,,,,,,,,,,,,,,,,,,,,,,,,,,,,i,1,0.472,0,53,53,39,1,冒失,i,,,,,,,,,,,,
,,,,,,,,,,,,,,大米O.O,001,2025-01-02_14h17.25.287,IAT(Formal),2021.2.3,Win32,60.0240096,,,,,,,,,,,,,,,,,,,,,,,,,,,,,,,,,,,,,,,,,,,,i,1,0.812,0,54,54,47,1,固执,i,,,,,,,,,,,,
,,,,,,,,,,,,,,大米O.O,001,2025-01-02_14h17.25.287,IAT(Formal),2021.2.3,Win32,60.0240096,,,,,,,,,,,,,,,,,,,,,,,,,,,,,,,,,,,,,,,,,,,,i,1,0.521,0,55,55,43,1,自私,i,,,,,,,,,,,,
,,,,,,,,,,,,,,大米O.O,001,2025-01-02_14h17.25.287,IAT(Formal),2021.2.3,Win32,60.0240096,,,,,,,,,,,,,,,,,,,,,,,,,,,,,,,,,,,,,,,,,,,,i,1,0.51,0,56,56,46,1,野蛮,i,,,,,,,,,,,,
,,,,,,,,,,,,,,大米O.O,001,2025-01-02_14h17.25.287,IAT(Formal),2021.2.3,Win32,60.0240096,,,,,,,,,,,,,,,,,,,,,,,,,,,,,,,,,,,,,,,,,,,,e,1,0.619,0,57,57,29,1,诚恳,e,,,,,,,,,,,,
,,,,,,,,,,,,,,大米O.O,001,2025-01-02_14h17.25.287,IAT(Formal),2021.2.3,Win32,60.0240096,,,,,,,,,,,,,,,,,,,,,,,,,,,,,,,,,,,,,,,,,,,,e,1,0.643,0,58,58,15,1,诚实,e,,,,,,,,,,,,
,,,,,,,,,,,,,,大米O.O,001,2025-01-02_14h17.25.287,IAT(Formal),2021.2.3,Win32,60.0240096,,,,,,,,,,,,,,,,,,,,,,,,,,,,,,,,,,,,,,,,,,,,i,1,0.553,0,59,59,3,1,自己,i,,,,,,,,,,,,
,,,,,,,,,,,,,,大米O.O,001,2025-01-02_14h17.25.287,IAT(Formal),2021.2.3,Win32,60.0240096,,,,,,,,,,,,,,,,,,,,,,,,,,,,,,,,,,,,,,,,,,,,i,1,0.449,0,60,60,50,1,我,i,,,,,,,,,,,,
,,,,,,,,,,,,,,大米O.O,001,2025-01-02_14h17.25.287,IAT(Formal),2021.2.3,Win32,60.0240096,,,,,,,,,,,,,,,,,,,,,,,,,,,,,,,,,,,,,,,,,,,,e,1,0.572,0,61,61,5,1,他,e,,,,,,,,,,,,
,,,,,,,,,,,,,,大米O.O,001,2025-01-02_14h17.25.287,IAT(Formal),2021.2.3,Win32,60.0240096,,,,,,,,,,,,,,,,,,,,,,,,,,,,,,,,,,,,,,,,,,,,e,1,0.727,0,62,62,13,1,杰出,e,,,,,,,,,,,,
,,,,,,,,,,,,,,大米O.O,001,2025-01-02_14h17.25.287,IAT(Formal),2021.2.3,Win32,60.0240096,,,,,,,,,,,,,,,,,,,,,,,,,,,,,,,,,,,,,,,,,,,,e,0,0.574,0,63,63,33,1,刻薄,i,,,,,,,,,,,,
,,,,,,,,,,,,,,大米O.O,001,2025-01-02_14h17.25.287,IAT(Formal),2021.2.3,Win32,60.0240096,,,,,,,,,,,,,,,,,,,,,,,,,,,,,,,,,,,,,,,,,,,,i,1,0.495,0,64,64,38,1,鲁莽,i,,,,,,,,,,,,
,,,,,,,,,,,,,,大米O.O,001,2025-01-02_14h17.25.287,IAT(Formal),2021.2.3,Win32,60.0240096,,,,,,,,,,,,,,,,,,,,,,,,,,,,,,,,,,,,,,,,,,,,i,1,0.48,0,65,65,41,1,散漫,i,,,,,,,,,,,,
,,,,,,,,,,,,,,大米O.O,001,2025-01-02_14h17.25.287,IAT(Formal),2021.2.3,Win32,60.0240096,,,,,,,,,,,,,,,,,,,,,,,,,,,,,,,,,,,,,,,,,,,,e,0,1.206,0,66,66,4,1,俺,i,,,,,,,,,,,,
,,,,,,,,,,,,,,大米O.O,001,2025-01-02_14h17.25.287,IAT(Formal),2021.2.3,Win32,60.0240096,,,,,,,,,,,,,,,,,,,,,,,,,,,,,,,,,,,,,,,,,,,,i,1,0.672,0,67,67,64,1,俺,i,,,,,,,,,,,,
,,,,,,,,,,,,,,大米O.O,001,2025-01-02_14h17.25.287,IAT(Formal),2021.2.3,Win32,60.0240096,,,,,,,,,,,,,,,,,,,,,,,,,,,,,,,,,,,,,,,,,,,,e,1,0.703,0,68,68,77,1,他的,e,,,,,,,,,,,,
,,,,,,,,,,,,,,大米O.O,001,2025-01-02_14h17.25.287,IAT(Formal),2021.2.3,Win32,60.0240096,,,,,,,,,,,,,,,,,,,,,,,,,,,,,,,,,,,,,,,,,,,,i,1,0.55,0,69,69,74,1,俺,i,,,,,,,,,,,,
,,,,,,,,,,,,,,大米O.O,001,2025-01-02_14h17.25.287,IAT(Formal),2021.2.3,Win32,60.0240096,,,,,,,,,,,,,,,,,,,,,,,,,,,,,,,,,,,,,,,,,,,,i,1,0.55,0,70,70,60,1,我,i,,,,,,,,,,,,
,,,,,,,,,,,,,,大米O.O,001,2025-01-02_14h17.25.287,IAT(Formal),2021.2.3,Win32,60.0240096,,,,,,,,,,,,,,,,,,,,,,,,,,,,,,,,,,,,,,,,,,,,i,1,0.429,0,71,71,61,1,我的,i,,,,,,,,,,,,
,,,,,,,,,,,,,,大米O.O,001,2025-01-02_14h17.25.287,IAT(Formal),2021.2.3,Win32,60.0240096,,,,,,,,,,,,,,,,,,,,,,,,,,,,,,,,,,,,,,,,,,,,e,1,0.75,0,72,72,69,1,其他,e,,,,,,,,,,,,
,,,,,,,,,,,,,,大米O.O,001,2025-01-02_14h17.25.287,IAT(Formal),2021.2.3,Win32,60.0240096,,,,,,,,,,,,,,,,,,,,,,,,,,,,,,,,,,,,,,,,,,,,e,1,0.668,0,73,73,11,1,崇高,e,,,,,,,,,,,,
,,,,,,,,,,,,,,大米O.O,001,2025-01-02_14h17.25.287,IAT(Formal),2021.2.3,Win32,60.0240096,,,,,,,,,,,,,,,,,,,,,,,,,,,,,,,,,,,,,,,,,,,,e,0,0.597,0,74,74,73,1,自己,i,,,,,,,,,,,,
,,,,,,,,,,,,,,大米O.O,001,2025-01-02_14h17.25.287,IAT(Formal),2021.2.3,Win32,60.0240096,,,,,,,,,,,,,,,,,,,,,,,,,,,,,,,,,,,,,,,,,,,,i,1,0.559,0,75,75,63,1,自己,i,,,,,,,,,,,,
,,,,,,,,,,,,,,大米O.O,001,2025-01-02_14h17.25.287,IAT(Formal),2021.2.3,Win32,60.0240096,,,,,,,,,,,,,,,,,,,,,,,,,,,,,,,,,,,,,,,,,,,,i,1,0.667,0,76,76,54,1,俺,i,,,,,,,,,,,,
,,,,,,,,,,,,,,大米O.O,001,2025-01-02_14h17.25.287,IAT(Formal),2021.2.3,Win32,60.0240096,,,,,,,,,,,,,,,,,,,,,,,,,,,,,,,,,,,,,,,,,,,,e,1,0.649,0,77,77,75,1,他,e,,,,,,,,,,,,
,,,,,,,,,,,,,,大米O.O,001,2025-01-02_14h17.25.287,IAT(Formal),2021.2.3,Win32,60.0240096,,,,,,,,,,,,,,,,,,,,,,,,,,,,,,,,,,,,,,,,,,,,e,1,0.581,0,78,78,59,1,其他,e,,,,,,,,,,,,
,,,,,,,,,,,,,,大米O.O,001,2025-01-02_14h17.25.287,IAT(Formal),2021.2.3,Win32,60.0240096,,,,,,,,,,,,,,,,,,,,,,,,,,,,,,,,,,,,,,,,,,,,e,1,0.489,0,79,79,57,1,他的,e,,,,,,,,,,,,
,,,,,,,,,,,,,,大米O.O,001,2025-01-02_14h17.25.287,IAT(Formal),2021.2.3,Win32,60.0240096,,,,,,,,,,,,,,,,,,,,,,,,,,,,,,,,,,,,,,,,,,,,,,,,,,,,虚伪,i,space,16.693,i,1,0.913,0,0,0,31,1,,
,,,,,,,,,,,,,,大米O.O,001,2025-01-02_14h17.25.287,IAT(Formal),2021.2.3,Win32,60.0240096,,,,,,,,,,,,,,,,,,,,,,,,,,,,,,,,,,,,,,,,,,,,,,,,,,,,活泼,e,,,e,1,0.58,0,1,1,28,1,,
,,,,,,,,,,,,,,大米O.O,001,2025-01-02_14h17.25.287,IAT(Formal),2021.2.3,Win32,60.0240096,,,,,,,,,,,,,,,,,,,,,,,,,,,,,,,,,,,,,,,,,,,,,,,,,,,,暴躁,i,,,i,1,0.601,0,2,2,44,1,,
,,,,,,,,,,,,,,大米O.O,001,2025-01-02_14h17.25.287,IAT(Formal),2021.2.3,Win32,60.0240096,,,,,,,,,,,,,,,,,,,,,,,,,,,,,,,,,,,,,,,,,,,,,,,,,,,,崇高,e,,,e,1,0.662,0,3,3,11,1,,
,,,,,,,,,,,,,,大米O.O,001,2025-01-02_14h17.25.287,IAT(Formal),2021.2.3,Win32,60.0240096,,,,,,,,,,,,,,,,,,,,,,,,,,,,,,,,,,,,,,,,,,,,,,,,,,,,他的,e,,,e,1,1.011,0,4,4,57,1,,
,,,,,,,,,,,,,,大米O.O,001,2025-01-02_14h17.25.287,IAT(Formal),2021.2.3,Win32,60.0240096,,,,,,,,,,,,,,,,,,,,,,,,,,,,,,,,,,,,,,,,,,,,,,,,,,,,其他,e,,,e,1,0.486,0,5,5,9,1,,
,,,,,,,,,,,,,,大米O.O,001,2025-01-02_14h17.25.287,IAT(Formal),2021.2.3,Win32,60.0240096,,,,,,,,,,,,,,,,,,,,,,,,,,,,,,,,,,,,,,,,,,,,,,,,,,,,野蛮,i,,,i,1,0.898,0,6,6,46,1,,
,,,,,,,,,,,,,,大米O.O,001,2025-01-02_14h17.25.287,IAT(Formal),2021.2.3,Win32,60.0240096,,,,,,,,,,,,,,,,,,,,,,,,,,,,,,,,,,,,,,,,,,,,,,,,,,,,杰出,e,,,e,1,0.771,0,7,7,13,1,,
,,,,,,,,,,,,,,大米O.O,001,2025-01-02_14h17.25.287,IAT(Formal),2021.2.3,Win32,60.0240096,,,,,,,,,,,,,,,,,,,,,,,,,,,,,,,,,,,,,,,,,,,,,,,,,,,,猖狂,i,,,i,1,0.547,0,8,8,45,1,,
,,,,,,,,,,,,,,大米O.O,001,2025-01-02_14h17.25.287,IAT(Formal),2021.2.3,Win32,60.0240096,,,,,,,,,,,,,,,,,,,,,,,,,,,,,,,,,,,,,,,,,,,,,,,,,,,,自己,i,,,i,1,0.768,0,9,9,63,1,,
,,,,,,,,,,,,,,大米O.O,001,2025-01-02_14h17.25.287,IAT(Formal),2021.2.3,Win32,60.0240096,,,,,,,,,,,,,,,,,,,,,,,,,,,,,,,,,,,,,,,,,,,,,,,,,,,,我,i,,,i,1,0.424,0,10,10,50,1,,
,,,,,,,,,,,,,,大米O.O,001,2025-01-02_14h17.25.287,IAT(Formal),2021.2.3,Win32,60.0240096,,,,,,,,,,,,,,,,,,,,,,,,,,,,,,,,,,,,,,,,,,,,,,,,,,,,朴实,e,,,e,1,0.838,0,11,11,24,1,,
,,,,,,,,,,,,,,大米O.O,001,2025-01-02_14h17.25.287,IAT(Formal),2021.2.3,Win32,60.0240096,,,,,,,,,,,,,,,,,,,,,,,,,,,,,,,,,,,,,,,,,,,,,,,,,,,,他,e,,,i,0,0.489,0,12,12,65,1,,
,,,,,,,,,,,,,,大米O.O,001,2025-01-02_14h17.25.287,IAT(Formal),2021.2.3,Win32,60.0240096,,,,,,,,,,,,,,,,,,,,,,,,,,,,,,,,,,,,,,,,,,,,,,,,,,,,我,i,,,i,1,0.51,0,13,13,0,1,,
,,,,,,,,,,,,,,大米O.O,001,2025-01-02_14h17.25.287,IAT(Formal),2021.2.3,Win32,60.0240096,,,,,,,,,,,,,,,,,,,,,,,,,,,,,,,,,,,,,,,,,,,,,,,,,,,,诚恳,e,,,e,1,0.88,0,14,14,29,1,,
,,,,,,,,,,,,,,大米O.O,001,2025-01-02_14h17.25.287,IAT(Formal),2021.2.3,Win32,60.0240096,,,,,,,,,,,,,,,,,,,,,,,,,,,,,,,,,,,,,,,,,,,,,,,,,,,,俺,i,,,i,1,0.534,0,15,15,64,1,,
,,,,,,,,,,,,,,大米O.O,001,2025-01-02_14h17.25.287,IAT(Formal),2021.2.3,Win32,60.0240096,,,,,,,,,,,,,,,,,,,,,,,,,,,,,,,,,,,,,,,,,,,,,,,,,,,,无私,e,,,e,1,0.552,0,16,16,22,1,,
,,,,,,,,,,,,,,大米O.O,001,2025-01-02_14h17.25.287,IAT(Formal),2021.2.3,Win32,60.0240096,,,,,,,,,,,,,,,,,,,,,,,,,,,,,,,,,,,,,,,,,,,,,,,,,,,,他们,e,,,e,1,0.61,0,17,17,76,1,,
,,,,,,,,,,,,,,大米O.O,001,2025-01-02_14h17.25.287,IAT(Formal),2021.2.3,Win32,60.0240096,,,,,,,,,,,,,,,,,,,,,,,,,,,,,,,,,,,,,,,,,,,,,,,,,,,,凶狠,i,,,i,1,0.712,0,18,18,42,1,,
,,,,,,,,,,,,,,大米O.O,001,2025-01-02_14h17.25.287,IAT(Formal),2021.2.3,Win32,60.0240096,,,,,,,,,,,,,,,,,,,,,,,,,,,,,,,,,,,,,,,,,,,,,,,,,,,,他们,e,,,i,0,0.603,0,19,19,6,1,,
,,,,,,,,,,,,,,大米O.O,001,2025-01-02_14h17.25.287,IAT(Formal),2021.2.3,Win32,60.0240096,,,,,,,,,,,,,,,,,,,,,,,,,,,,,,,,,,,,,,,,,,,,,,,,,,,,我的,i,,,i,1,0.614,0,20,20,51,1,,
,,,,,,,,,,,,,,大米O.O,001,2025-01-02_14h17.25.287,IAT(Formal),2021.2.3,Win32,60.0240096,,,,,,,,,,,,,,,,,,,,,,,,,,,,,,,,,,,,,,,,,,,,,,,,,,,,聪明,e,,,e,1,0.873,0,21,21,12,1,,
,,,,,,,,,,,,,,大米O.O,001,2025-01-02_14h17.25.287,IAT(Formal),2021.2.3,Win32,60.0240096,,,,,,,,,,,,,,,,,,,,,,,,,,,,,,,,,,,,,,,,,,,,,,,,,,,,细腻,e,,,e,1,1.036,0,22,22,25,1,,
,,,,,,,,,,,,,,大米O.O,001,2025-01-02_14h17.25.287,IAT(Formal),2021.2.3,Win32,60.0240096,,,,,,,,,,,,,,,,,,,,,,,,,,,,,,,,,,,,,,,,,,,,,,,,,,,,固执,i,,,i,1,0.777,0,23,23,47,1,,
,,,,,,,,,,,,,,大米O.O,001,2025-01-02_14h17.25.287,IAT(Formal),2021.2.3,Win32,60.0240096,,,,,,,,,,,,,,,,,,,,,,,,,,,,,,,,,,,,,,,,,,,,,,,,,,,,自己,i,,,i,1,0.436,0,24,24,73,1,,
,,,,,,,,,,,,,,大米O.O,001,2025-01-02_14h17.25.287,IAT(Formal),2021.2.3,Win32,60.0240096,,,,,,,,,,,,,,,,,,,,,,,,,,,,,,,,,,,,,,,,,,,,,,,,,,,,自己,i,,,i,1,0.467,0,25,25,3,1,,
,,,,,,,,,,,,,,大米O.O,001,2025-01-02_14h17.25.287,IAT(Formal),2021.2.3,Win32,60.0240096,,,,,,,,,,,,,,,,,,,,,,,,,,,,,,,,,,,,,,,,,,,,,,,,,,,,散漫,i,,,i,1,0.873,0,26,26,41,1,,
,,,,,,,,,,,,,,大米O.O,001,2025-01-02_14h17.25.287,IAT(Formal),2021.2.3,Win32,60.0240096,,,,,,,,,,,,,,,,,,,,,,,,,,,,,,,,,,,,,,,,,,,,,,,,,,,,我们,i,,,i,1,0.73,0,27,27,52,1,,
,,,,,,,,,,,,,,大米O.O,001,2025-01-02_14h17.25.287,IAT(Formal),2021.2.3,Win32,60.0240096,,,,,,,,,,,,,,,,,,,,,,,,,,,,,,,,,,,,,,,,,,,,,,,,,,,,其他,e,,,e,1,0.632,0,28,28,69,1,,
,,,,,,,,,,,,,,大米O.O,001,2025-01-02_14h17.25.287,IAT(Formal),2021.2.3,Win32,60.0240096,,,,,,,,,,,,,,,,,,,,,,,,,,,,,,,,,,,,,,,,,,,,,,,,,,,,愚蠢,i,,,e,0,1.356,0,29,29,32,1,,
,,,,,,,,,,,,,,大米O.O,001,2025-01-02_14h17.25.287,IAT(Formal),2021.2.3,Win32,60.0240096,,,,,,,,,,,,,,,,,,,,,,,,,,,,,,,,,,,,,,,,,,,,,,,,,,,,他,e,,,i,0,0.715,0,30,30,5,1,,
,,,,,,,,,,,,,,大米O.O,001,2025-01-02_14h17.25.287,IAT(Formal),2021.2.3,Win32,60.0240096,,,,,,,,,,,,,,,,,,,,,,,,,,,,,,,,,,,,,,,,,,,,,,,,,,,,正直,e,,,e,1,0.846,0,31,31,16,1,,
,,,,,,,,,,,,,,大米O.O,001,2025-01-02_14h17.25.287,IAT(Formal),2021.2.3,Win32,60.0240096,,,,,,,,,,,,,,,,,,,,,,,,,,,,,,,,,,,,,,,,,,,,,,,,,,,,稳重,e,,,e,1,0.596,0,32,32,21,1,,
,,,,,,,,,,,,,,大米O.O,001,2025-01-02_14h17.25.287,IAT(Formal),2021.2.3,Win32,60.0240096,,,,,,,,,,,,,,,,,,,,,,,,,,,,,,,,,,,,,,,,,,,,,,,,,,,,冷静,e,,,e,1,0.68,0,33,33,26,1,,
,,,,,,,,,,,,,,大米O.O,001,2025-01-02_14h17.25.287,IAT(Formal),2021.2.3,Win32,60.0240096,,,,,,,,,,,,,,,,,,,,,,,,,,,,,,,,,,,,,,,,,,,,,,,,,,,,消极,i,,,i,1,0.714,0,34,34,35,1,,
,,,,,,,,,,,,,,大米O.O,001,2025-01-02_14h17.25.287,IAT(Formal),2021.2.3,Win32,60.0240096,,,,,,,,,,,,,,,,,,,,,,,,,,,,,,,,,,,,,,,,,,,,,,,,,,,,其他,e,,,e,1,1.38,0,35,35,59,1,,
,,,,,,,,,,,,,,大米O.O,001,2025-01-02_14h17.25.287,IAT(Formal),2021.2.3,Win32,60.0240096,,,,,,,,,,,,,,,,,,,,,,,,,,,,,,,,,,,,,,,,,,,,,,,,,,,,下贱,i,,,i,1,0.68,0,36,36,49,1,,
,,,,,,,,,,,,,,大米O.O,001,2025-01-02_14h17.25.287,IAT(Formal),2021.2.3,Win32,60.0240096,,,,,,,,,,,,,,,,,,,,,,,,,,,,,,,,,,,,,,,,,,,,,,,,,,,,诚实,e,,,e,1,0.793,0,37,37,15,1,,
,,,,,,,,,,,,,,大米O.O,001,2025-01-02_14h17.25.287,IAT(Formal),2021.2.3,Win32,60.0240096,,,,,,,,,,,,,,,,,,,,,,,,,,,,,,,,,,,,,,,,,,,,,,,,,,,,傲慢,i,,,i,1,1.255,0,38,38,37,1,,
,,,,,,,,,,,,,,大米O.O,001,2025-01-02_14h17.25.287,IAT(Formal),2021.2.3,Win32,60.0240096,,,,,,,,,,,,,,,,,,,,,,,,,,,,,,,,,,,,,,,,,,,,,,,,,,,,勇敢,e,,,e,1,0.811,0,39,39,17,1,,
,,,,,,,,,,,,,,大米O.O,001,2025-01-02_14h17.25.287,IAT(Formal),2021.2.3,Win32,60.0240096,,,,,,,,,,,,,,,,,,,,,,,,,,,,,,,,,,,,,,,,,,,,,,,,,,,,我,i,,,i,1,0.785,0,40,40,60,1,,
,,,,,,,,,,,,,,大米O.O,001,2025-01-02_14h17.25.287,IAT(Formal),2021.2.3,Win32,60.0240096,,,,,,,,,,,,,,,,,,,,,,,,,,,,,,,,,,,,,,,,,,,,,,,,,,,,他,e,,,e,1,0.715,0,41,41,55,1,,
,,,,,,,,,,,,,,大米O.O,001,2025-01-02_14h17.25.287,IAT(Formal),2021.2.3,Win32,60.0240096,,,,,,,,,,,,,,,,,,,,,,,,,,,,,,,,,,,,,,,,,,,,,,,,,,,,鲁莽,i,,,i,1,0.658,0,42,42,38,1,,
,,,,,,,,,,,,,,大米O.O,001,2025-01-02_14h17.25.287,IAT(Formal),2021.2.3,Win32,60.0240096,,,,,,,,,,,,,,,,,,,,,,,,,,,,,,,,,,,,,,,,,,,,,,,,,,,,他们,e,,,i,0,0.718,0,43,43,56,1,,
,,,,,,,,,,,,,,大米O.O,001,2025-01-02_14h17.25.287,IAT(Formal),2021.2.3,Win32,60.0240096,,,,,,,,,,,,,,,,,,,,,,,,,,,,,,,,,,,,,,,,,,,,,,,,,,,,自卑,i,,,i,1,0.762,0,44,44,36,1,,
,,,,,,,,,,,,,,大米O.O,001,2025-01-02_14h17.25.287,IAT(Formal),2021.2.3,Win32,60.0240096,,,,,,,,,,,,,,,,,,,,,,,,,,,,,,,,,,,,,,,,,,,,,,,,,,,,他们,e,,,e,1,0.768,0,45,45,66,1,,
,,,,,,,,,,,,,,大米O.O,001,2025-01-02_14h17.25.287,IAT(Formal),2021.2.3,Win32,60.0240096,,,,,,,,,,,,,,,,,,,,,,,,,,,,,,,,,,,,,,,,,,,,,,,,,,,,执拗,i,,,i,1,0.838,0,46,46,40,1,,
,,,,,,,,,,,,,,大米O.O,001,2025-01-02_14h17.25.287,IAT(Formal),2021.2.3,Win32,60.0240096,,,,,,,,,,,,,,,,,,,,,,,,,,,,,,,,,,,,,,,,,,,,,,,,,,,,自己,i,,,i,1,0.712,0,47,47,53,1,,
,,,,,,,,,,,,,,大米O.O,001,2025-01-02_14h17.25.287,IAT(Formal),2021.2.3,Win32,60.0240096,,,,,,,,,,,,,,,,,,,,,,,,,,,,,,,,,,,,,,,,,,,,,,,,,,,,冒失,i,,,i,1,0.887,0,48,48,39,1,,
,,,,,,,,,,,,,,大米O.O,001,2025-01-02_14h17.25.287,IAT(Formal),2021.2.3,Win32,60.0240096,,,,,,,,,,,,,,,,,,,,,,,,,,,,,,,,,,,,,,,,,,,,,,,,,,,,我的,i,,,e,0,1.104,0,49,49,1,1,,
,,,,,,,,,,,,,,大米O.O,001,2025-01-02_14h17.25.287,IAT(Formal),2021.2.3,Win32,60.0240096,,,,,,,,,,,,,,,,,,,,,,,,,,,,,,,,,,,,,,,,,,,,,,,,,,,,我们,i,,,i,1,0.596,0,50,50,62,1,,
,,,,,,,,,,,,,,大米O.O,001,2025-01-02_14h17.25.287,IAT(Formal),2021.2.3,Win32,60.0240096,,,,,,,,,,,,,,,,,,,,,,,,,,,,,,,,,,,,,,,,,,,,,,,,,,,,他的,e,,,e,1,0.938,0,51,51,77,1,,
,,,,,,,,,,,,,,大米O.O,001,2025-01-02_14h17.25.287,IAT(Formal),2021.2.3,Win32,60.0240096,,,,,,,,,,,,,,,,,,,,,,,,,,,,,,,,,,,,,,,,,,,,,,,,,,,,轻率,i,,,i,1,0.618,0,52,52,48,1,,
,,,,,,,,,,,,,,大米O.O,001,2025-01-02_14h17.25.287,IAT(Formal),2021.2.3,Win32,60.0240096,,,,,,,,,,,,,,,,,,,,,,,,,,,,,,,,,,,,,,,,,,,,,,,,,,,,乐观,e,,,e,1,0.561,0,53,53,14,1,,
,,,,,,,,,,,,,,大米O.O,001,2025-01-02_14h17.25.287,IAT(Formal),2021.2.3,Win32,60.0240096,,,,,,,,,,,,,,,,,,,,,,,,,,,,,,,,,,,,,,,,,,,,,,,,,,,,他,e,,,e,1,0.92,0,54,54,75,1,,
,,,,,,,,,,,,,,大米O.O,001,2025-01-02_14h17.25.287,IAT(Formal),2021.2.3,Win32,60.0240096,,,,,,,,,,,,,,,,,,,,,,,,,,,,,,,,,,,,,,,,,,,,,,,,,,,,热情,e,,,e,1,0.738,0,55,55,27,1,,
,,,,,,,,,,,,,,大米O.O,001,2025-01-02_14h17.25.287,IAT(Formal),2021.2.3,Win32,60.0240096,,,,,,,,,,,,,,,,,,,,,,,,,,,,,,,,,,,,,,,,,,,,,,,,,,,,悲观,i,,,i,1,0.655,0,56,56,34,1,,
,,,,,,,,,,,,,,大米O.O,001,2025-01-02_14h17.25.287,IAT(Formal),2021.2.3,Win32,60.0240096,,,,,,,,,,,,,,,,,,,,,,,,,,,,,,,,,,,,,,,,,,,,,,,,,,,,我们,i,,,i,1,0.71,0,57,57,72,1,,
,,,,,,,,,,,,,,大米O.O,001,2025-01-02_14h17.25.287,IAT(Formal),2021.2.3,Win32,60.0240096,,,,,,,,,,,,,,,,,,,,,,,,,,,,,,,,,,,,,,,,,,,,,,,,,,,,优秀,e,,,e,1,0.801,0,58,58,10,1,,
,,,,,,,,,,,,,,大米O.O,001,2025-01-02_14h17.25.287,IAT(Formal),2021.2.3,Win32,60.0240096,,,,,,,,,,,,,,,,,,,,,,,,,,,,,,,,,,,,,,,,,,,,,,,,,,,,我的,i,,,i,1,1.324,0,59,59,71,1,,
,,,,,,,,,,,,,,大米O.O,001,2025-01-02_14h17.25.287,IAT(Formal),2021.2.3,Win32,60.0240096,,,,,,,,,,,,,,,,,,,,,,,,,,,,,,,,,,,,,,,,,,,,,,,,,,,,我的,i,,,i,1,0.519,0,60,60,61,1,,
,,,,,,,,,,,,,,大米O.O,001,2025-01-02_14h17.25.287,IAT(Formal),2021.2.3,Win32,60.0240096,,,,,,,,,,,,,,,,,,,,,,,,,,,,,,,,,,,,,,,,,,,,,,,,,,,,自私,i,,,e,0,0.678,0,61,61,43,1,,
,,,,,,,,,,,,,,大米O.O,001,2025-01-02_14h17.25.287,IAT(Formal),2021.2.3,Win32,60.0240096,,,,,,,,,,,,,,,,,,,,,,,,,,,,,,,,,,,,,,,,,,,,,,,,,,,,刻薄,i,,,i,1,0.595,0,62,62,33,1,,
,,,,,,,,,,,,,,大米O.O,001,2025-01-02_14h17.25.287,IAT(Formal),2021.2.3,Win32,60.0240096,,,,,,,,,,,,,,,,,,,,,,,,,,,,,,,,,,,,,,,,,,,,,,,,,,,,俺,i,,,i,1,0.739,0,63,63,4,1,,
,,,,,,,,,,,,,,大米O.O,001,2025-01-02_14h17.25.287,IAT(Formal),2021.2.3,Win32,60.0240096,,,,,,,,,,,,,,,,,,,,,,,,,,,,,,,,,,,,,,,,,,,,,,,,,,,,他人,e,,,e,1,1.076,0,64,64,58,1,,
,,,,,,,,,,,,,,大米O.O,001,2025-01-02_14h17.25.287,IAT(Formal),2021.2.3,Win32,60.0240096,,,,,,,,,,,,,,,,,,,,,,,,,,,,,,,,,,,,,,,,,,,,,,,,,,,,卑鄙,i,,,i,1,0.652,0,65,65,30,1,,
,,,,,,,,,,,,,,大米O.O,001,2025-01-02_14h17.25.287,IAT(Formal),2021.2.3,Win32,60.0240096,,,,,,,,,,,,,,,,,,,,,,,,,,,,,,,,,,,,,,,,,,,,,,,,,,,,我,i,,,i,1,0.966,0,66,66,70,1,,
,,,,,,,,,,,,,,大米O.O,001,2025-01-02_14h17.25.287,IAT(Formal),2021.2.3,Win32,60.0240096,,,,,,,,,,,,,,,,,,,,,,,,,,,,,,,,,,,,,,,,,,,,,,,,,,,,其他,e,,,e,1,1.014,0,67,67,79,1,,
,,,,,,,,,,,,,,大米O.O,001,2025-01-02_14h17.25.287,IAT(Formal),2021.2.3,Win32,60.0240096,,,,,,,,,,,,,,,,,,,,,,,,,,,,,,,,,,,,,,,,,,,,,,,,,,,,认真,e,,,e,1,0.837,0,68,68,20,1,,
,,,,,,,,,,,,,,大米O.O,001,2025-01-02_14h17.25.287,IAT(Formal),2021.2.3,Win32,60.0240096,,,,,,,,,,,,,,,,,,,,,,,,,,,,,,,,,,,,,,,,,,,,,,,,,,,,我们,i,,,i,1,0.786,0,69,69,2,1,,
,,,,,,,,,,,,,,大米O.O,001,2025-01-02_14h17.25.287,IAT(Formal),2021.2.3,Win32,60.0240096,,,,,,,,,,,,,,,,,,,,,,,,,,,,,,,,,,,,,,,,,,,,,,,,,,,,勤奋,e,,,e,1,0.749,0,70,70,18,1,,
,,,,,,,,,,,,,,大米O.O,001,2025-01-02_14h17.25.287,IAT(Formal),2021.2.3,Win32,60.0240096,,,,,,,,,,,,,,,,,,,,,,,,,,,,,,,,,,,,,,,,,,,,,,,,,,,,他的,e,,,i,0,0.694,0,71,71,67,1,,
,,,,,,,,,,,,,,大米O.O,001,2025-01-02_14h17.25.287,IAT(Formal),2021.2.3,Win32,60.0240096,,,,,,,,,,,,,,,,,,,,,,,,,,,,,,,,,,,,,,,,,,,,,,,,,,,,俺,i,,,i,1,0.665,0,72,72,54,1,,
,,,,,,,,,,,,,,大米O.O,001,2025-01-02_14h17.25.287,IAT(Formal),2021.2.3,Win32,60.0240096,,,,,,,,,,,,,,,,,,,,,,,,,,,,,,,,,,,,,,,,,,,,,,,,,,,,机智,e,,,e,1,0.644,0,73,73,19,1,,
,,,,,,,,,,,,,,大米O.O,001,2025-01-02_14h17.25.287,IAT(Formal),2021.2.3,Win32,60.0240096,,,,,,,,,,,,,,,,,,,,,,,,,,,,,,,,,,,,,,,,,,,,,,,,,,,,他人,e,,,e,1,0.416,0,74,74,78,1,,
,,,,,,,,,,,,,,大米O.O,001,2025-01-02_14h17.25.287,IAT(Formal),2021.2.3,Win32,60.0240096,,,,,,,,,,,,,,,,,,,,,,,,,,,,,,,,,,,,,,,,,,,,,,,,,,,,俺,i,,,i,1,0.753,0,75,75,74,1,,
,,,,,,,,,,,,,,大米O.O,001,2025-01-02_14h17.25.287,IAT(Formal),2021.2.3,Win32,60.0240096,,,,,,,,,,,,,,,,,,,,,,,,,,,,,,,,,,,,,,,,,,,,,,,,,,,,公正,e,,,e,1,0.639,0,76,76,23,1,,
,,,,,,,,,,,,,,大米O.O,001,2025-01-02_14h17.25.287,IAT(Formal),2021.2.3,Win32,60.0240096,,,,,,,,,,,,,,,,,,,,,,,,,,,,,,,,,,,,,,,,,,,,,,,,,,,,他人,e,,,e,1,0.468,0,77,77,8,1,,
,,,,,,,,,,,,,,大米O.O,001,2025-01-02_14h17.25.287,IAT(Formal),2021.2.3,Win32,60.0240096,,,,,,,,,,,,,,,,,,,,,,,,,,,,,,,,,,,,,,,,,,,,,,,,,,,,他人,e,,,i,0,0.686,0,78,78,68,1,,
,,,,,,,,,,,,,,大米O.O,001,2025-01-02_14h17.25.287,IAT(Formal),2021.2.3,Win32,60.0240096,,,,,,,,,,,,,,,,,,,,,,,,,,,,,,,,,,,,,,,,,,,,,,,,,,,,他的,e,,,e,1,0.554,0,79,79,7,1,,
,,,,,,,,,,,,,,大米O.O,001,2025-01-02_14h17.25.287,IAT(Formal),2021.2.3,Win32,60.0240096,,,,,,,,,,,,,,,,,,,,,,,,,,,,,,,,,,,,,,,,,,,,,,,,,,,,细腻,e,,,e,1,0.588,1,0,80,25,1,,
,,,,,,,,,,,,,,大米O.O,001,2025-01-02_14h17.25.287,IAT(Formal),2021.2.3,Win32,60.0240096,,,,,,,,,,,,,,,,,,,,,,,,,,,,,,,,,,,,,,,,,,,,,,,,,,,,机智,e,,,e,1,0.581,1,1,81,19,1,,
,,,,,,,,,,,,,,大米O.O,001,2025-01-02_14h17.25.287,IAT(Formal),2021.2.3,Win32,60.0240096,,,,,,,,,,,,,,,,,,,,,,,,,,,,,,,,,,,,,,,,,,,,,,,,,,,,聪明,e,,,e,1,0.563,1,2,82,12,1,,
,,,,,,,,,,,,,,大米O.O,001,2025-01-02_14h17.25.287,IAT(Formal),2021.2.3,Win32,60.0240096,,,,,,,,,,,,,,,,,,,,,,,,,,,,,,,,,,,,,,,,,,,,,,,,,,,,野蛮,i,,,i,1,0.619,1,3,83,46,1,,
,,,,,,,,,,,,,,大米O.O,001,2025-01-02_14h17.25.287,IAT(Formal),2021.2.3,Win32,60.0240096,,,,,,,,,,,,,,,,,,,,,,,,,,,,,,,,,,,,,,,,,,,,,,,,,,,,我们,i,,,i,1,0.786,1,4,84,2,1,,
,,,,,,,,,,,,,,大米O.O,001,2025-01-02_14h17.25.287,IAT(Formal),2021.2.3,Win32,60.0240096,,,,,,,,,,,,,,,,,,,,,,,,,,,,,,,,,,,,,,,,,,,,,,,,,,,,他们,e,,,e,1,0.662,1,5,85,56,1,,
,,,,,,,,,,,,,,大米O.O,001,2025-01-02_14h17.25.287,IAT(Formal),2021.2.3,Win32,60.0240096,,,,,,,,,,,,,,,,,,,,,,,,,,,,,,,,,,,,,,,,,,,,,,,,,,,,凶狠,i,,,i,1,0.64,1,6,86,42,1,,
,,,,,,,,,,,,,,大米O.O,001,2025-01-02_14h17.25.287,IAT(Formal),2021.2.3,Win32,60.0240096,,,,,,,,,,,,,,,,,,,,,,,,,,,,,,,,,,,,,,,,,,,,,,,,,,,,俺,i,,,i,1,0.774,1,7,87,74,1,,
,,,,,,,,,,,,,,大米O.O,001,2025-01-02_14h17.25.287,IAT(Formal),2021.2.3,Win32,60.0240096,,,,,,,,,,,,,,,,,,,,,,,,,,,,,,,,,,,,,,,,,,,,,,,,,,,,冒失,i,,,i,1,0.775,1,8,88,39,1,,
,,,,,,,,,,,,,,大米O.O,001,2025-01-02_14h17.25.287,IAT(Formal),2021.2.3,Win32,60.0240096,,,,,,,,,,,,,,,,,,,,,,,,,,,,,,,,,,,,,,,,,,,,,,,,,,,,暴躁,i,,,i,1,0.857,1,9,89,44,1,,
,,,,,,,,,,,,,,大米O.O,001,2025-01-02_14h17.25.287,IAT(Formal),2021.2.3,Win32,60.0240096,,,,,,,,,,,,,,,,,,,,,,,,,,,,,,,,,,,,,,,,,,,,,,,,,,,,自己,i,,,e,0,0.852,1,10,90,73,1,,
,,,,,,,,,,,,,,大米O.O,001,2025-01-02_14h17.25.287,IAT(Formal),2021.2.3,Win32,60.0240096,,,,,,,,,,,,,,,,,,,,,,,,,,,,,,,,,,,,,,,,,,,,,,,,,,,,他人,e,,,i,0,0.563,1,11,91,8,1,,
,,,,,,,,,,,,,,大米O.O,001,2025-01-02_14h17.25.287,IAT(Formal),2021.2.3,Win32,60.0240096,,,,,,,,,,,,,,,,,,,,,,,,,,,,,,,,,,,,,,,,,,,,,,,,,,,,执拗,i,,,i,1,0.863,1,12,92,40,1,,
,,,,,,,,,,,,,,大米O.O,001,2025-01-02_14h17.25.287,IAT(Formal),2021.2.3,Win32,60.0240096,,,,,,,,,,,,,,,,,,,,,,,,,,,,,,,,,,,,,,,,,,,,,,,,,,,,自卑,i,,,i,1,0.781,1,13,93,36,1,,
,,,,,,,,,,,,,,大米O.O,001,2025-01-02_14h17.25.287,IAT(Formal),2021.2.3,Win32,60.0240096,,,,,,,,,,,,,,,,,,,,,,,,,,,,,,,,,,,,,,,,,,,,,,,,,,,,我的,i,,,i,1,0.868,1,14,94,51,1,,
,,,,,,,,,,,,,,大米O.O,001,2025-01-02_14h17.25.287,IAT(Formal),2021.2.3,Win32,60.0240096,,,,,,,,,,,,,,,,,,,,,,,,,,,,,,,,,,,,,,,,,,,,,,,,,,,,我,i,,,i,1,0.651,1,15,95,70,1,,
,,,,,,,,,,,,,,大米O.O,001,2025-01-02_14h17.25.287,IAT(Formal),2021.2.3,Win32,60.0240096,,,,,,,,,,,,,,,,,,,,,,,,,,,,,,,,,,,,,,,,,,,,,,,,,,,,消极,i,,,i,1,0.645,1,16,96,35,1,,
,,,,,,,,,,,,,,大米O.O,001,2025-01-02_14h17.25.287,IAT(Formal),2021.2.3,Win32,60.0240096,,,,,,,,,,,,,,,,,,,,,,,,,,,,,,,,,,,,,,,,,,,,,,,,,,,,他们,e,,,e,1,0.702,1,17,97,76,1,,
,,,,,,,,,,,,,,大米O.O,001,2025-01-02_14h17.25.287,IAT(Formal),2021.2.3,Win32,60.0240096,,,,,,,,,,,,,,,,,,,,,,,,,,,,,,,,,,,,,,,,,,,,,,,,,,,,我,i,,,i,1,0.648,1,18,98,50,1,,
,,,,,,,,,,,,,,大米O.O,001,2025-01-02_14h17.25.287,IAT(Formal),2021.2.3,Win32,60.0240096,,,,,,,,,,,,,,,,,,,,,,,,,,,,,,,,,,,,,,,,,,,,,,,,,,,,优秀,e,,,e,1,1.098,1,19,99,10,1,,
,,,,,,,,,,,,,,大米O.O,001,2025-01-02_14h17.25.287,IAT(Formal),2021.2.3,Win32,60.0240096,,,,,,,,,,,,,,,,,,,,,,,,,,,,,,,,,,,,,,,,,,,,,,,,,,,,轻率,i,,,i,1,0.866,1,20,100,48,1,,
,,,,,,,,,,,,,,大米O.O,001,2025-01-02_14h17.25.287,IAT(Formal),2021.2.3,Win32,60.0240096,,,,,,,,,,,,,,,,,,,,,,,,,,,,,,,,,,,,,,,,,,,,,,,,,,,,其他,e,,,e,1,1.158,1,21,101,59,1,,
,,,,,,,,,,,,,,大米O.O,001,2025-01-02_14h17.25.287,IAT(Formal),2021.2.3,Win32,60.0240096,,,,,,,,,,,,,,,,,,,,,,,,,,,,,,,,,,,,,,,,,,,,,,,,,,,,公正,e,,,e,1,0.911,1,22,102,23,1,,
,,,,,,,,,,,,,,大米O.O,001,2025-01-02_14h17.25.287,IAT(Formal),2021.2.3,Win32,60.0240096,,,,,,,,,,,,,,,,,,,,,,,,,,,,,,,,,,,,,,,,,,,,,,,,,,,,正直,e,,,e,1,1.123,1,23,103,16,1,,
,,,,,,,,,,,,,,大米O.O,001,2025-01-02_14h17.25.287,IAT(Formal),2021.2.3,Win32,60.0240096,,,,,,,,,,,,,,,,,,,,,,,,,,,,,,,,,,,,,,,,,,,,,,,,,,,,俺,i,,,i,1,0.835,1,24,104,4,1,,
,,,,,,,,,,,,,,大米O.O,001,2025-01-02_14h17.25.287,IAT(Formal),2021.2.3,Win32,60.0240096,,,,,,,,,,,,,,,,,,,,,,,,,,,,,,,,,,,,,,,,,,,,,,,,,,,,自私,i,,,i,1,0.704,1,25,105,43,1,,
,,,,,,,,,,,,,,大米O.O,001,2025-01-02_14h17.25.287,IAT(Formal),2021.2.3,Win32,60.0240096,,,,,,,,,,,,,,,,,,,,,,,,,,,,,,,,,,,,,,,,,,,,,,,,,,,,其他,e,,,e,1,0.679,1,26,106,79,1,,
,,,,,,,,,,,,,,大米O.O,001,2025-01-02_14h17.25.287,IAT(Formal),2021.2.3,Win32,60.0240096,,,,,,,,,,,,,,,,,,,,,,,,,,,,,,,,,,,,,,,,,,,,,,,,,,,,诚恳,e,,,e,1,0.578,1,27,107,29,1,,
,,,,,,,,,,,,,,大米O.O,001,2025-01-02_14h17.25.287,IAT(Formal),2021.2.3,Win32,60.0240096,,,,,,,,,,,,,,,,,,,,,,,,,,,,,,,,,,,,,,,,,,,,,,,,,,,,下贱,i,,,i,1,0.583,1,28,108,49,1,,
,,,,,,,,,,,,,,大米O.O,001,2025-01-02_14h17.25.287,IAT(Formal),2021.2.3,Win32,60.0240096,,,,,,,,,,,,,,,,,,,,,,,,,,,,,,,,,,,,,,,,,,,,,,,,,,,,我的,i,,,i,1,0.974,1,29,109,1,1,,
,,,,,,,,,,,,,,大米O.O,001,2025-01-02_14h17.25.287,IAT(Formal),2021.2.3,Win32,60.0240096,,,,,,,,,,,,,,,,,,,,,,,,,,,,,,,,,,,,,,,,,,,,,,,,,,,,他的,e,,,e,1,0.809,1,30,110,67,1,,
,,,,,,,,,,,,,,大米O.O,001,2025-01-02_14h17.25.287,IAT(Formal),2021.2.3,Win32,60.0240096,,,,,,,,,,,,,,,,,,,,,,,,,,,,,,,,,,,,,,,,,,,,,,,,,,,,乐观,e,,,e,1,0.764,1,31,111,14,1,,
,,,,,,,,,,,,,,大米O.O,001,2025-01-02_14h17.25.287,IAT(Formal),2021.2.3,Win32,60.0240096,,,,,,,,,,,,,,,,,,,,,,,,,,,,,,,,,,,,,,,,,,,,,,,,,,,,他人,e,,,e,1,0.96,1,32,112,78,1,,
,,,,,,,,,,,,,,大米O.O,001,2025-01-02_14h17.25.287,IAT(Formal),2021.2.3,Win32,60.0240096,,,,,,,,,,,,,,,,,,,,,,,,,,,,,,,,,,,,,,,,,,,,,,,,,,,,愚蠢,i,,,i,1,0.659,1,33,113,32,1,,
,,,,,,,,,,,,,,大米O.O,001,2025-01-02_14h17.25.287,IAT(Formal),2021.2.3,Win32,60.0240096,,,,,,,,,,,,,,,,,,,,,,,,,,,,,,,,,,,,,,,,,,,,,,,,,,,,我们,i,,,i,1,0.801,1,34,114,62,1,,
,,,,,,,,,,,,,,大米O.O,001,2025-01-02_14h17.25.287,IAT(Formal),2021.2.3,Win32,60.0240096,,,,,,,,,,,,,,,,,,,,,,,,,,,,,,,,,,,,,,,,,,,,,,,,,,,,我,i,,,i,1,0.892,1,35,115,0,1,,
,,,,,,,,,,,,,,大米O.O,001,2025-01-02_14h17.25.287,IAT(Formal),2021.2.3,Win32,60.0240096,,,,,,,,,,,,,,,,,,,,,,,,,,,,,,,,,,,,,,,,,,,,,,,,,,,,勇敢,e,,,e,1,0.735,1,36,116,17,1,,
,,,,,,,,,,,,,,大米O.O,001,2025-01-02_14h17.25.287,IAT(Formal),2021.2.3,Win32,60.0240096,,,,,,,,,,,,,,,,,,,,,,,,,,,,,,,,,,,,,,,,,,,,,,,,,,,,俺,i,,,i,1,0.583,1,37,117,64,1,,
,,,,,,,,,,,,,,大米O.O,001,2025-01-02_14h17.25.287,IAT(Formal),2021.2.3,Win32,60.0240096,,,,,,,,,,,,,,,,,,,,,,,,,,,,,,,,,,,,,,,,,,,,,,,,,,,,我们,i,,,i,1,0.983,1,38,118,72,1,,
,,,,,,,,,,,,,,大米O.O,001,2025-01-02_14h17.25.287,IAT(Formal),2021.2.3,Win32,60.0240096,,,,,,,,,,,,,,,,,,,,,,,,,,,,,,,,,,,,,,,,,,,,,,,,,,,,他人,e,,,e,1,0.762,1,39,119,58,1,,
,,,,,,,,,,,,,,大米O.O,001,2025-01-02_14h17.25.287,IAT(Formal),2021.2.3,Win32,60.0240096,,,,,,,,,,,,,,,,,,,,,,,,,,,,,,,,,,,,,,,,,,,,,,,,,,,,他的,e,,,e,1,0.562,1,40,120,77,1,,
,,,,,,,,,,,,,,大米O.O,001,2025-01-02_14h17.25.287,IAT(Formal),2021.2.3,Win32,60.0240096,,,,,,,,,,,,,,,,,,,,,,,,,,,,,,,,,,,,,,,,,,,,,,,,,,,,其他,e,,,e,1,0.753,1,41,121,9,1,,
,,,,,,,,,,,,,,大米O.O,001,2025-01-02_14h17.25.287,IAT(Formal),2021.2.3,Win32,60.0240096,,,,,,,,,,,,,,,,,,,,,,,,,,,,,,,,,,,,,,,,,,,,,,,,,,,,诚实,e,,,e,1,1.215,1,42,122,15,1,,
,,,,,,,,,,,,,,大米O.O,001,2025-01-02_14h17.25.287,IAT(Formal),2021.2.3,Win32,60.0240096,,,,,,,,,,,,,,,,,,,,,,,,,,,,,,,,,,,,,,,,,,,,,,,,,,,,自己,i,,,e,0,0.796,1,43,123,53,1,,
,,,,,,,,,,,,,,大米O.O,001,2025-01-02_14h17.25.287,IAT(Formal),2021.2.3,Win32,60.0240096,,,,,,,,,,,,,,,,,,,,,,,,,,,,,,,,,,,,,,,,,,,,,,,,,,,,自己,i,,,i,1,0.449,1,44,124,63,1,,
,,,,,,,,,,,,,,大米O.O,001,2025-01-02_14h17.25.287,IAT(Formal),2021.2.3,Win32,60.0240096,,,,,,,,,,,,,,,,,,,,,,,,,,,,,,,,,,,,,,,,,,,,,,,,,,,,杰出,e,,,e,1,0.701,1,45,125,13,1,,
,,,,,,,,,,,,,,大米O.O,001,2025-01-02_14h17.25.287,IAT(Formal),2021.2.3,Win32,60.0240096,,,,,,,,,,,,,,,,,,,,,,,,,,,,,,,,,,,,,,,,,,,,,,,,,,,,他的,e,,,e,1,0.966,1,46,126,57,1,,
,,,,,,,,,,,,,,大米O.O,001,2025-01-02_14h17.25.287,IAT(Formal),2021.2.3,Win32,60.0240096,,,,,,,,,,,,,,,,,,,,,,,,,,,,,,,,,,,,,,,,,,,,,,,,,,,,他们,e,,,e,1,0.545,1,47,127,66,1,,
,,,,,,,,,,,,,,大米O.O,001,2025-01-02_14h17.25.287,IAT(Formal),2021.2.3,Win32,60.0240096,,,,,,,,,,,,,,,,,,,,,,,,,,,,,,,,,,,,,,,,,,,,,,,,,,,,固执,i,,,e,0,0.683,1,48,128,47,1,,
,,,,,,,,,,,,,,大米O.O,001,2025-01-02_14h17.25.287,IAT(Formal),2021.2.3,Win32,60.0240096,,,,,,,,,,,,,,,,,,,,,,,,,,,,,,,,,,,,,,,,,,,,,,,,,,,,我,i,,,i,1,0.884,1,49,129,60,1,,
,,,,,,,,,,,,,,大米O.O,001,2025-01-02_14h17.25.287,IAT(Formal),2021.2.3,Win32,60.0240096,,,,,,,,,,,,,,,,,,,,,,,,,,,,,,,,,,,,,,,,,,,,,,,,,,,,热情,e,,,e,1,0.681,1,50,130,27,1,,
,,,,,,,,,,,,,,大米O.O,001,2025-01-02_14h17.25.287,IAT(Formal),2021.2.3,Win32,60.0240096,,,,,,,,,,,,,,,,,,,,,,,,,,,,,,,,,,,,,,,,,,,,,,,,,,,,悲观,i,,,i,1,0.847,1,51,131,34,1,,
,,,,,,,,,,,,,,大米O.O,001,2025-01-02_14h17.25.287,IAT(Formal),2021.2.3,Win32,60.0240096,,,,,,,,,,,,,,,,,,,,,,,,,,,,,,,,,,,,,,,,,,,,,,,,,,,,勤奋,e,,,e,1,0.981,1,52,132,18,1,,
,,,,,,,,,,,,,,大米O.O,001,2025-01-02_14h17.25.287,IAT(Formal),2021.2.3,Win32,60.0240096,,,,,,,,,,,,,,,,,,,,,,,,,,,,,,,,,,,,,,,,,,,,,,,,,,,,他,e,,,i,0,0.585,1,53,133,5,1,,
,,,,,,,,,,,,,,大米O.O,001,2025-01-02_14h17.25.287,IAT(Formal),2021.2.3,Win32,60.0240096,,,,,,,,,,,,,,,,,,,,,,,,,,,,,,,,,,,,,,,,,,,,,,,,,,,,他的,e,,,e,1,0.472,1,54,134,7,1,,
,,,,,,,,,,,,,,大米O.O,001,2025-01-02_14h17.25.287,IAT(Formal),2021.2.3,Win32,60.0240096,,,,,,,,,,,,,,,,,,,,,,,,,,,,,,,,,,,,,,,,,,,,,,,,,,,,刻薄,i,,,i,1,0.543,1,55,135,33,1,,
,,,,,,,,,,,,,,大米O.O,001,2025-01-02_14h17.25.287,IAT(Formal),2021.2.3,Win32,60.0240096,,,,,,,,,,,,,,,,,,,,,,,,,,,,,,,,,,,,,,,,,,,,,,,,,,,,猖狂,i,,,i,1,0.764,1,56,136,45,1,,
,,,,,,,,,,,,,,大米O.O,001,2025-01-02_14h17.25.287,IAT(Formal),2021.2.3,Win32,60.0240096,,,,,,,,,,,,,,,,,,,,,,,,,,,,,,,,,,,,,,,,,,,,,,,,,,,,我的,i,,,i,1,1.204,1,57,137,61,1,,
,,,,,,,,,,,,,,大米O.O,001,2025-01-02_14h17.25.287,IAT(Formal),2021.2.3,Win32,60.0240096,,,,,,,,,,,,,,,,,,,,,,,,,,,,,,,,,,,,,,,,,,,,,,,,,,,,他们,e,,,e,1,0.532,1,58,138,6,1,,
,,,,,,,,,,,,,,大米O.O,001,2025-01-02_14h17.25.287,IAT(Formal),2021.2.3,Win32,60.0240096,,,,,,,,,,,,,,,,,,,,,,,,,,,,,,,,,,,,,,,,,,,,,,,,,,,,他人,e,,,e,1,0.624,1,59,139,68,1,,
,,,,,,,,,,,,,,大米O.O,001,2025-01-02_14h17.25.287,IAT(Formal),2021.2.3,Win32,60.0240096,,,,,,,,,,,,,,,,,,,,,,,,,,,,,,,,,,,,,,,,,,,,,,,,,,,,无私,e,,,e,1,0.908,1,60,140,22,1,,
,,,,,,,,,,,,,,大米O.O,001,2025-01-02_14h17.25.287,IAT(Formal),2021.2.3,Win32,60.0240096,,,,,,,,,,,,,,,,,,,,,,,,,,,,,,,,,,,,,,,,,,,,,,,,,,,,活泼,e,,,e,1,0.678,1,61,141,28,1,,
,,,,,,,,,,,,,,大米O.O,001,2025-01-02_14h17.25.287,IAT(Formal),2021.2.3,Win32,60.0240096,,,,,,,,,,,,,,,,,,,,,,,,,,,,,,,,,,,,,,,,,,,,,,,,,,,,我的,i,,,i,1,1.029,1,62,142,71,1,,
,,,,,,,,,,,,,,大米O.O,001,2025-01-02_14h17.25.287,IAT(Formal),2021.2.3,Win32,60.0240096,,,,,,,,,,,,,,,,,,,,,,,,,,,,,,,,,,,,,,,,,,,,,,,,,,,,散漫,i,,,i,1,1.395,1,63,143,41,1,,
,,,,,,,,,,,,,,大米O.O,001,2025-01-02_14h17.25.287,IAT(Formal),2021.2.3,Win32,60.0240096,,,,,,,,,,,,,,,,,,,,,,,,,,,,,,,,,,,,,,,,,,,,,,,,,,,,我们,i,,,i,1,1.445,1,64,144,52,1,,
,,,,,,,,,,,,,,大米O.O,001,2025-01-02_14h17.25.287,IAT(Formal),2021.2.3,Win32,60.0240096,,,,,,,,,,,,,,,,,,,,,,,,,,,,,,,,,,,,,,,,,,,,,,,,,,,,俺,i,,,i,1,0.566,1,65,145,54,1,,
,,,,,,,,,,,,,,大米O.O,001,2025-01-02_14h17.25.287,IAT(Formal),2021.2.3,Win32,60.0240096,,,,,,,,,,,,,,,,,,,,,,,,,,,,,,,,,,,,,,,,,,,,,,,,,,,,他,e,,,e,1,0.583,1,66,146,75,1,,
,,,,,,,,,,,,,,大米O.O,001,2025-01-02_14h17.25.287,IAT(Formal),2021.2.3,Win32,60.0240096,,,,,,,,,,,,,,,,,,,,,,,,,,,,,,,,,,,,,,,,,,,,,,,,,,,,鲁莽,i,,,i,1,0.802,1,67,147,38,1,,
,,,,,,,,,,,,,,大米O.O,001,2025-01-02_14h17.25.287,IAT(Formal),2021.2.3,Win32,60.0240096,,,,,,,,,,,,,,,,,,,,,,,,,,,,,,,,,,,,,,,,,,,,,,,,,,,,冷静,e,,,e,1,0.691,1,68,148,26,1,,
,,,,,,,,,,,,,,大米O.O,001,2025-01-02_14h17.25.287,IAT(Formal),2021.2.3,Win32,60.0240096,,,,,,,,,,,,,,,,,,,,,,,,,,,,,,,,,,,,,,,,,,,,,,,,,,,,稳重,e,,,e,1,0.885,1,69,149,21,1,,
,,,,,,,,,,,,,,大米O.O,001,2025-01-02_14h17.25.287,IAT(Formal),2021.2.3,Win32,60.0240096,,,,,,,,,,,,,,,,,,,,,,,,,,,,,,,,,,,,,,,,,,,,,,,,,,,,他,e,,,e,1,0.917,1,70,150,65,1,,
,,,,,,,,,,,,,,大米O.O,001,2025-01-02_14h17.25.287,IAT(Formal),2021.2.3,Win32,60.0240096,,,,,,,,,,,,,,,,,,,,,,,,,,,,,,,,,,,,,,,,,,,,,,,,,,,,他,e,,,e,1,0.616,1,71,151,55,1,,
,,,,,,,,,,,,,,大米O.O,001,2025-01-02_14h17.25.287,IAT(Formal),2021.2.3,Win32,60.0240096,,,,,,,,,,,,,,,,,,,,,,,,,,,,,,,,,,,,,,,,,,,,,,,,,,,,自己,i,,,i,1,0.826,1,72,152,3,1,,
,,,,,,,,,,,,,,大米O.O,001,2025-01-02_14h17.25.287,IAT(Formal),2021.2.3,Win32,60.0240096,,,,,,,,,,,,,,,,,,,,,,,,,,,,,,,,,,,,,,,,,,,,,,,,,,,,朴实,e,,,e,1,0.795,1,73,153,24,1,,
,,,,,,,,,,,,,,大米O.O,001,2025-01-02_14h17.25.287,IAT(Formal),2021.2.3,Win32,60.0240096,,,,,,,,,,,,,,,,,,,,,,,,,,,,,,,,,,,,,,,,,,,,,,,,,,,,认真,e,,,e,1,0.637,1,74,154,20,1,,
,,,,,,,,,,,,,,大米O.O,001,2025-01-02_14h17.25.287,IAT(Formal),2021.2.3,Win32,60.0240096,,,,,,,,,,,,,,,,,,,,,,,,,,,,,,,,,,,,,,,,,,,,,,,,,,,,傲慢,i,,,i,1,0.732,1,75,155,37,1,,
,,,,,,,,,,,,,,大米O.O,001,2025-01-02_14h17.25.287,IAT(Formal),2021.2.3,Win32,60.0240096,,,,,,,,,,,,,,,,,,,,,,,,,,,,,,,,,,,,,,,,,,,,,,,,,,,,崇高,e,,,e,1,0.645,1,76,156,11,1,,
,,,,,,,,,,,,,,大米O.O,001,2025-01-02_14h17.25.287,IAT(Formal),2021.2.3,Win32,60.0240096,,,,,,,,,,,,,,,,,,,,,,,,,,,,,,,,,,,,,,,,,,,,,,,,,,,,卑鄙,i,,,i,1,0.888,1,77,157,30,1,,
,,,,,,,,,,,,,,大米O.O,001,2025-01-02_14h17.25.287,IAT(Formal),2021.2.3,Win32,60.0240096,,,,,,,,,,,,,,,,,,,,,,,,,,,,,,,,,,,,,,,,,,,,,,,,,,,,虚伪,i,,,i,1,0.925,1,78,158,31,1,,
,,,,,,,,,,,,,,大米O.O,001,2025-01-02_14h17.25.287,IAT(Formal),2021.2.3,Win32,60.0240096,,,,,,,,,,,,,,,,,,,,,,,,,,,,,,,,,,,,,,,,,,,,,,,,,,,,其他,e,,,i,0,0.616,1,79,159,69,1,,
,,,,,,,,,,,,,,大米O.O,001,2025-01-02_14h17.25.287,IAT(Formal),2021.2.3,Win32,60.0240096,,,,,,,,,,,,,,,,,,,,,,,,,,,,,,,,,,,,,,,,,,,,,,,,,,,,,,,,,,,,,,,,space,1.979