﻿Instruction1.keys,Instruction1.rt,Instruction2.keys,Instruction2.rt,key_resp_iso.keys,key_resp_iso.corr,Practice_01.thisRepN,Practice_01.thisTrialN,Practice_01.thisN,Practice_01.thisIndex,Practice_01.ran,Words,ans,participant,session,date,expName,psychopyVersion,OS,frameRate,key_resp_3.keys,key_resp_3.rt,key_resp_ipn.keys,key_resp_ipn.corr,key_resp_ipn.rt,Practice_02.thisRepN,Practice_02.thisTrialN,Practice_02.thisN,Practice_02.thisIndex,Practice_02.ran,Words_ipn,ans_ipn,key_resp_4.keys,key_resp_4.rt,key_resp_t1.keys,key_resp_t1.corr,key_resp_t1.rt,Practice_T1.thisRepN,Practice_T1.thisTrialN,Practice_T1.thisN,Practice_T1.thisIndex,Practice_T1.ran,Words_t1,ans_t1,key_resp_5.keys,key_resp_5.rt,Formal_T1.thisRepN,Formal_T1.thisTrialN,Formal_T1.thisN,Formal_T1.thisIndex,Formal_T1.ran,key_resp_6.keys,key_resp_6.rt,key_resp_iso_reverse.keys,key_resp_iso_reverse.corr,Practice_iso_Reverse.thisRepN,Practice_iso_Reverse.thisTrialN,Practice_iso_Reverse.thisN,Practice_iso_Reverse.thisIndex,Practice_iso_Reverse.ran,key_resp_iso_reverse.rt,key_resp_7.keys,key_resp_7.rt,key_resp_t2_Practice.keys,key_resp_t2_Practice.corr,key_resp_t2_Practice.rt,Practice_t2_Reverse.thisRepN,Practice_t2_Reverse.thisTrialN,Practice_t2_Reverse.thisN,Practice_t2_Reverse.thisIndex,Practice_t2_Reverse.ran,Words_t2,ans_t2,key_resp_8.keys,key_resp_8.rt,key_resp_t2.keys,key_resp_t2.corr,key_resp_t2.rt,Formal_t2_reverse.thisRepN,Formal_t2_reverse.thisTrialN,Formal_t2_reverse.thisN,Formal_t2_reverse.thisIndex,Formal_t2_reverse.ran,key_instruct.keys,key_instruct.rt
space,5.326,space,17.086,,0,0,0,0,3,1,自己,e,1,001,2025-01-02_14h44.36.597,IAT(Formal),2021.2.3,Win32,60.0024001,,,,,,,,,,,,,,,,,,,,,,,,,,,,,,,,,,,,,,,,,,,,,,,,,,,,,,,,,,,,,,,,,
,,,,,0,0,1,1,4,1,俺,e,1,001,2025-01-02_14h44.36.597,IAT(Formal),2021.2.3,Win32,60.0024001,,,,,,,,,,,,,,,,,,,,,,,,,,,,,,,,,,,,,,,,,,,,,,,,,,,,,,,,,,,,,,,,,
,,,,,0,0,2,2,5,1,他,i,1,001,2025-01-02_14h44.36.597,IAT(Formal),2021.2.3,Win32,60.0024001,,,,,,,,,,,,,,,,,,,,,,,,,,,,,,,,,,,,,,,,,,,,,,,,,,,,,,,,,,,,,,,,,
,,,,,0,0,3,3,6,1,他们,i,1,001,2025-01-02_14h44.36.597,IAT(Formal),2021.2.3,Win32,60.0024001,,,,,,,,,,,,,,,,,,,,,,,,,,,,,,,,,,,,,,,,,,,,,,,,,,,,,,,,,,,,,,,,,
,,,,,0,0,4,4,8,1,他人,i,1,001,2025-01-02_14h44.36.597,IAT(Formal),2021.2.3,Win32,60.0024001,,,,,,,,,,,,,,,,,,,,,,,,,,,,,,,,,,,,,,,,,,,,,,,,,,,,,,,,,,,,,,,,,
,,,,,0,0,5,5,9,1,其他,i,1,001,2025-01-02_14h44.36.597,IAT(Formal),2021.2.3,Win32,60.0024001,,,,,,,,,,,,,,,,,,,,,,,,,,,,,,,,,,,,,,,,,,,,,,,,,,,,,,,,,,,,,,,,,
,,,,,0,0,6,6,2,1,我们,e,1,001,2025-01-02_14h44.36.597,IAT(Formal),2021.2.3,Win32,60.0024001,,,,,,,,,,,,,,,,,,,,,,,,,,,,,,,,,,,,,,,,,,,,,,,,,,,,,,,,,,,,,,,,,
,,,,,0,0,7,7,1,1,我的,e,1,001,2025-01-02_14h44.36.597,IAT(Formal),2021.2.3,Win32,60.0024001,,,,,,,,,,,,,,,,,,,,,,,,,,,,,,,,,,,,,,,,,,,,,,,,,,,,,,,,,,,,,,,,,
,,,,,0,0,8,8,0,1,我,e,1,001,2025-01-02_14h44.36.597,IAT(Formal),2021.2.3,Win32,60.0024001,,,,,,,,,,,,,,,,,,,,,,,,,,,,,,,,,,,,,,,,,,,,,,,,,,,,,,,,,,,,,,,,,
,,,,,0,0,9,9,7,1,他的,i,1,001,2025-01-02_14h44.36.597,IAT(Formal),2021.2.3,Win32,60.0024001,,,,,,,,,,,,,,,,,,,,,,,,,,,,,,,,,,,,,,,,,,,,,,,,,,,,,,,,,,,,,,,,,
,,,,,,,,,,,,,1,001,2025-01-02_14h44.36.597,IAT(Formal),2021.2.3,Win32,60.0024001,space,17.5968,e,1,1.2142,0,0,0,8,1,勤奋,e,,,,,,,,,,,,,,,,,,,,,,,,,,,,,,,,,,,,,,,,,,,,,,,,,,,,,
,,,,,,,,,,,,,1,001,2025-01-02_14h44.36.597,IAT(Formal),2021.2.3,Win32,60.0024001,,,e,1,0.8823,0,1,1,10,1,认真,e,,,,,,,,,,,,,,,,,,,,,,,,,,,,,,,,,,,,,,,,,,,,,,,,,,,,,
,,,,,,,,,,,,,1,001,2025-01-02_14h44.36.597,IAT(Formal),2021.2.3,Win32,60.0024001,,,i,1,1.0773,0,2,2,25,1,消极,i,,,,,,,,,,,,,,,,,,,,,,,,,,,,,,,,,,,,,,,,,,,,,,,,,,,,,
,,,,,,,,,,,,,1,001,2025-01-02_14h44.36.597,IAT(Formal),2021.2.3,Win32,60.0024001,,,e,1,1.0972,0,3,3,14,1,朴实,e,,,,,,,,,,,,,,,,,,,,,,,,,,,,,,,,,,,,,,,,,,,,,,,,,,,,,
,,,,,,,,,,,,,1,001,2025-01-02_14h44.36.597,IAT(Formal),2021.2.3,Win32,60.0024001,,,i,1,1.0481,0,4,4,29,1,冒失,i,,,,,,,,,,,,,,,,,,,,,,,,,,,,,,,,,,,,,,,,,,,,,,,,,,,,,
,,,,,,,,,,,,,1,001,2025-01-02_14h44.36.597,IAT(Formal),2021.2.3,Win32,60.0024001,,,e,1,0.6124,0,5,5,2,1,聪明,e,,,,,,,,,,,,,,,,,,,,,,,,,,,,,,,,,,,,,,,,,,,,,,,,,,,,,
,,,,,,,,,,,,,1,001,2025-01-02_14h44.36.597,IAT(Formal),2021.2.3,Win32,60.0024001,,,e,1,0.8375,0,6,6,12,1,无私,e,,,,,,,,,,,,,,,,,,,,,,,,,,,,,,,,,,,,,,,,,,,,,,,,,,,,,
,,,,,,,,,,,,,1,001,2025-01-02_14h44.36.597,IAT(Formal),2021.2.3,Win32,60.0024001,,,e,1,0.6687,0,7,7,18,1,活泼,e,,,,,,,,,,,,,,,,,,,,,,,,,,,,,,,,,,,,,,,,,,,,,,,,,,,,,
,,,,,,,,,,,,,1,001,2025-01-02_14h44.36.597,IAT(Formal),2021.2.3,Win32,60.0024001,,,e,0,0.6942,0,8,8,37,1,固执,i,,,,,,,,,,,,,,,,,,,,,,,,,,,,,,,,,,,,,,,,,,,,,,,,,,,,,
,,,,,,,,,,,,,1,001,2025-01-02_14h44.36.597,IAT(Formal),2021.2.3,Win32,60.0024001,,,e,1,1.1782,0,9,9,15,1,细腻,e,,,,,,,,,,,,,,,,,,,,,,,,,,,,,,,,,,,,,,,,,,,,,,,,,,,,,
,,,,,,,,,,,,,1,001,2025-01-02_14h44.36.597,IAT(Formal),2021.2.3,Win32,60.0024001,,,i,1,1.0914,0,10,10,27,1,傲慢,i,,,,,,,,,,,,,,,,,,,,,,,,,,,,,,,,,,,,,,,,,,,,,,,,,,,,,
,,,,,,,,,,,,,1,001,2025-01-02_14h44.36.597,IAT(Formal),2021.2.3,Win32,60.0024001,,,e,1,0.7695,0,11,11,6,1,正直,e,,,,,,,,,,,,,,,,,,,,,,,,,,,,,,,,,,,,,,,,,,,,,,,,,,,,,
,,,,,,,,,,,,,1,001,2025-01-02_14h44.36.597,IAT(Formal),2021.2.3,Win32,60.0024001,,,e,1,0.8152,0,12,12,4,1,乐观,e,,,,,,,,,,,,,,,,,,,,,,,,,,,,,,,,,,,,,,,,,,,,,,,,,,,,,
,,,,,,,,,,,,,1,001,2025-01-02_14h44.36.597,IAT(Formal),2021.2.3,Win32,60.0024001,,,i,1,1.0014,0,13,13,33,1,自私,i,,,,,,,,,,,,,,,,,,,,,,,,,,,,,,,,,,,,,,,,,,,,,,,,,,,,,
,,,,,,,,,,,,,1,001,2025-01-02_14h44.36.597,IAT(Formal),2021.2.3,Win32,60.0024001,,,e,1,0.6664,0,14,14,3,1,杰出,e,,,,,,,,,,,,,,,,,,,,,,,,,,,,,,,,,,,,,,,,,,,,,,,,,,,,,
,,,,,,,,,,,,,1,001,2025-01-02_14h44.36.597,IAT(Formal),2021.2.3,Win32,60.0024001,,,i,1,0.7128,0,15,15,32,1,凶狠,i,,,,,,,,,,,,,,,,,,,,,,,,,,,,,,,,,,,,,,,,,,,,,,,,,,,,,
,,,,,,,,,,,,,1,001,2025-01-02_14h44.36.597,IAT(Formal),2021.2.3,Win32,60.0024001,,,e,1,0.7127,0,16,16,5,1,诚实,e,,,,,,,,,,,,,,,,,,,,,,,,,,,,,,,,,,,,,,,,,,,,,,,,,,,,,
,,,,,,,,,,,,,1,001,2025-01-02_14h44.36.597,IAT(Formal),2021.2.3,Win32,60.0024001,,,e,1,0.6788,0,17,17,9,1,机智,e,,,,,,,,,,,,,,,,,,,,,,,,,,,,,,,,,,,,,,,,,,,,,,,,,,,,,
,,,,,,,,,,,,,1,001,2025-01-02_14h44.36.597,IAT(Formal),2021.2.3,Win32,60.0024001,,,e,1,0.6006,0,18,18,7,1,勇敢,e,,,,,,,,,,,,,,,,,,,,,,,,,,,,,,,,,,,,,,,,,,,,,,,,,,,,,
,,,,,,,,,,,,,1,001,2025-01-02_14h44.36.597,IAT(Formal),2021.2.3,Win32,60.0024001,,,i,1,0.9518,0,19,19,26,1,自卑,i,,,,,,,,,,,,,,,,,,,,,,,,,,,,,,,,,,,,,,,,,,,,,,,,,,,,,
,,,,,,,,,,,,,1,001,2025-01-02_14h44.36.597,IAT(Formal),2021.2.3,Win32,60.0024001,,,e,1,0.5134,0,20,20,17,1,热情,e,,,,,,,,,,,,,,,,,,,,,,,,,,,,,,,,,,,,,,,,,,,,,,,,,,,,,
,,,,,,,,,,,,,1,001,2025-01-02_14h44.36.597,IAT(Formal),2021.2.3,Win32,60.0024001,,,i,1,0.9394,0,21,21,28,1,鲁莽,i,,,,,,,,,,,,,,,,,,,,,,,,,,,,,,,,,,,,,,,,,,,,,,,,,,,,,
,,,,,,,,,,,,,1,001,2025-01-02_14h44.36.597,IAT(Formal),2021.2.3,Win32,60.0024001,,,e,1,0.5998,0,22,22,11,1,稳重,e,,,,,,,,,,,,,,,,,,,,,,,,,,,,,,,,,,,,,,,,,,,,,,,,,,,,,
,,,,,,,,,,,,,1,001,2025-01-02_14h44.36.597,IAT(Formal),2021.2.3,Win32,60.0024001,,,i,1,0.7414,0,23,23,23,1,刻薄,i,,,,,,,,,,,,,,,,,,,,,,,,,,,,,,,,,,,,,,,,,,,,,,,,,,,,,
,,,,,,,,,,,,,1,001,2025-01-02_14h44.36.597,IAT(Formal),2021.2.3,Win32,60.0024001,,,e,1,0.6595,0,24,24,19,1,诚恳,e,,,,,,,,,,,,,,,,,,,,,,,,,,,,,,,,,,,,,,,,,,,,,,,,,,,,,
,,,,,,,,,,,,,1,001,2025-01-02_14h44.36.597,IAT(Formal),2021.2.3,Win32,60.0024001,,,i,1,0.4265,0,25,25,24,1,悲观,i,,,,,,,,,,,,,,,,,,,,,,,,,,,,,,,,,,,,,,,,,,,,,,,,,,,,,
,,,,,,,,,,,,,1,001,2025-01-02_14h44.36.597,IAT(Formal),2021.2.3,Win32,60.0024001,,,e,0,0.428,0,26,26,36,1,野蛮,i,,,,,,,,,,,,,,,,,,,,,,,,,,,,,,,,,,,,,,,,,,,,,,,,,,,,,
,,,,,,,,,,,,,1,001,2025-01-02_14h44.36.597,IAT(Formal),2021.2.3,Win32,60.0024001,,,i,1,0.8979,0,27,27,34,1,暴躁,i,,,,,,,,,,,,,,,,,,,,,,,,,,,,,,,,,,,,,,,,,,,,,,,,,,,,,
,,,,,,,,,,,,,1,001,2025-01-02_14h44.36.597,IAT(Formal),2021.2.3,Win32,60.0024001,,,i,1,0.8755,0,28,28,22,1,愚蠢,i,,,,,,,,,,,,,,,,,,,,,,,,,,,,,,,,,,,,,,,,,,,,,,,,,,,,,
,,,,,,,,,,,,,1,001,2025-01-02_14h44.36.597,IAT(Formal),2021.2.3,Win32,60.0024001,,,i,1,1.4299,0,29,29,31,1,散漫,i,,,,,,,,,,,,,,,,,,,,,,,,,,,,,,,,,,,,,,,,,,,,,,,,,,,,,
,,,,,,,,,,,,,1,001,2025-01-02_14h44.36.597,IAT(Formal),2021.2.3,Win32,60.0024001,,,i,1,0.6662,0,30,30,39,1,下贱,i,,,,,,,,,,,,,,,,,,,,,,,,,,,,,,,,,,,,,,,,,,,,,,,,,,,,,
,,,,,,,,,,,,,1,001,2025-01-02_14h44.36.597,IAT(Formal),2021.2.3,Win32,60.0024001,,,e,1,1.1386,0,31,31,1,1,崇高,e,,,,,,,,,,,,,,,,,,,,,,,,,,,,,,,,,,,,,,,,,,,,,,,,,,,,,
,,,,,,,,,,,,,1,001,2025-01-02_14h44.36.597,IAT(Formal),2021.2.3,Win32,60.0024001,,,i,1,0.6795,0,32,32,35,1,猖狂,i,,,,,,,,,,,,,,,,,,,,,,,,,,,,,,,,,,,,,,,,,,,,,,,,,,,,,
,,,,,,,,,,,,,1,001,2025-01-02_14h44.36.597,IAT(Formal),2021.2.3,Win32,60.0024001,,,i,1,0.6466,0,33,33,21,1,虚伪,i,,,,,,,,,,,,,,,,,,,,,,,,,,,,,,,,,,,,,,,,,,,,,,,,,,,,,
,,,,,,,,,,,,,1,001,2025-01-02_14h44.36.597,IAT(Formal),2021.2.3,Win32,60.0024001,,,e,1,0.6989,0,34,34,13,1,公正,e,,,,,,,,,,,,,,,,,,,,,,,,,,,,,,,,,,,,,,,,,,,,,,,,,,,,,
,,,,,,,,,,,,,1,001,2025-01-02_14h44.36.597,IAT(Formal),2021.2.3,Win32,60.0024001,,,i,1,0.6235,0,35,35,38,1,轻率,i,,,,,,,,,,,,,,,,,,,,,,,,,,,,,,,,,,,,,,,,,,,,,,,,,,,,,
,,,,,,,,,,,,,1,001,2025-01-02_14h44.36.597,IAT(Formal),2021.2.3,Win32,60.0024001,,,e,1,0.7136,0,36,36,0,1,优秀,e,,,,,,,,,,,,,,,,,,,,,,,,,,,,,,,,,,,,,,,,,,,,,,,,,,,,,
,,,,,,,,,,,,,1,001,2025-01-02_14h44.36.597,IAT(Formal),2021.2.3,Win32,60.0024001,,,i,0,0.4501,0,37,37,16,1,冷静,e,,,,,,,,,,,,,,,,,,,,,,,,,,,,,,,,,,,,,,,,,,,,,,,,,,,,,
,,,,,,,,,,,,,1,001,2025-01-02_14h44.36.597,IAT(Formal),2021.2.3,Win32,60.0024001,,,i,1,0.6239,0,38,38,20,1,卑鄙,i,,,,,,,,,,,,,,,,,,,,,,,,,,,,,,,,,,,,,,,,,,,,,,,,,,,,,
,,,,,,,,,,,,,1,001,2025-01-02_14h44.36.597,IAT(Formal),2021.2.3,Win32,60.0024001,,,,0,,0,39,39,30,1,执拗,i,,,,,,,,,,,,,,,,,,,,,,,,,,,,,,,,,,,,,,,,,,,,,,,,,,,,,
,,,,,,,,,,,,,1,001,2025-01-02_14h44.36.597,IAT(Formal),2021.2.3,Win32,60.0024001,,,,,,,,,,,,,space,10.0991,i,1,0.8918,0,0,0,69,1,其他,i,,,,,,,,,,,,,,,,,,,,,,,,,,,,,,,,,,,,,,,,,
,,,,,,,,,,,,,1,001,2025-01-02_14h44.36.597,IAT(Formal),2021.2.3,Win32,60.0024001,,,,,,,,,,,,,,,e,1,0.9749,0,1,1,63,1,自己,e,,,,,,,,,,,,,,,,,,,,,,,,,,,,,,,,,,,,,,,,,
,,,,,,,,,,,,,1,001,2025-01-02_14h44.36.597,IAT(Formal),2021.2.3,Win32,60.0024001,,,,,,,,,,,,,,,i,1,0.6626,0,2,2,76,1,他们,i,,,,,,,,,,,,,,,,,,,,,,,,,,,,,,,,,,,,,,,,,
,,,,,,,,,,,,,1,001,2025-01-02_14h44.36.597,IAT(Formal),2021.2.3,Win32,60.0024001,,,,,,,,,,,,,,,e,1,0.5003,0,3,3,71,1,我的,e,,,,,,,,,,,,,,,,,,,,,,,,,,,,,,,,,,,,,,,,,
,,,,,,,,,,,,,1,001,2025-01-02_14h44.36.597,IAT(Formal),2021.2.3,Win32,60.0024001,,,,,,,,,,,,,,,e,1,0.9174,0,4,4,73,1,自己,e,,,,,,,,,,,,,,,,,,,,,,,,,,,,,,,,,,,,,,,,,
,,,,,,,,,,,,,1,001,2025-01-02_14h44.36.597,IAT(Formal),2021.2.3,Win32,60.0024001,,,,,,,,,,,,,,,e,1,0.6313,0,5,5,28,1,活泼,e,,,,,,,,,,,,,,,,,,,,,,,,,,,,,,,,,,,,,,,,,
,,,,,,,,,,,,,1,001,2025-01-02_14h44.36.597,IAT(Formal),2021.2.3,Win32,60.0024001,,,,,,,,,,,,,,,e,1,0.6168,0,6,6,13,1,杰出,e,,,,,,,,,,,,,,,,,,,,,,,,,,,,,,,,,,,,,,,,,
,,,,,,,,,,,,,1,001,2025-01-02_14h44.36.597,IAT(Formal),2021.2.3,Win32,60.0024001,,,,,,,,,,,,,,,e,1,0.5178,0,7,7,70,1,我,e,,,,,,,,,,,,,,,,,,,,,,,,,,,,,,,,,,,,,,,,,
,,,,,,,,,,,,,1,001,2025-01-02_14h44.36.597,IAT(Formal),2021.2.3,Win32,60.0024001,,,,,,,,,,,,,,,e,1,0.5409,0,8,8,50,1,我,e,,,,,,,,,,,,,,,,,,,,,,,,,,,,,,,,,,,,,,,,,
,,,,,,,,,,,,,1,001,2025-01-02_14h44.36.597,IAT(Formal),2021.2.3,Win32,60.0024001,,,,,,,,,,,,,,,e,1,0.4599,0,9,9,3,1,自己,e,,,,,,,,,,,,,,,,,,,,,,,,,,,,,,,,,,,,,,,,,
,,,,,,,,,,,,,1,001,2025-01-02_14h44.36.597,IAT(Formal),2021.2.3,Win32,60.0024001,,,,,,,,,,,,,,,i,1,0.73,0,10,10,41,1,散漫,i,,,,,,,,,,,,,,,,,,,,,,,,,,,,,,,,,,,,,,,,,
,,,,,,,,,,,,,1,001,2025-01-02_14h44.36.597,IAT(Formal),2021.2.3,Win32,60.0024001,,,,,,,,,,,,,,,e,1,0.5438,0,11,11,62,1,我们,e,,,,,,,,,,,,,,,,,,,,,,,,,,,,,,,,,,,,,,,,,
,,,,,,,,,,,,,1,001,2025-01-02_14h44.36.597,IAT(Formal),2021.2.3,Win32,60.0024001,,,,,,,,,,,,,,,i,1,1.085,0,12,12,37,1,傲慢,i,,,,,,,,,,,,,,,,,,,,,,,,,,,,,,,,,,,,,,,,,
,,,,,,,,,,,,,1,001,2025-01-02_14h44.36.597,IAT(Formal),2021.2.3,Win32,60.0024001,,,,,,,,,,,,,,,e,0,0.4423,0,13,13,58,1,他人,i,,,,,,,,,,,,,,,,,,,,,,,,,,,,,,,,,,,,,,,,,
,,,,,,,,,,,,,1,001,2025-01-02_14h44.36.597,IAT(Formal),2021.2.3,Win32,60.0024001,,,,,,,,,,,,,,,e,1,0.6693,0,14,14,11,1,崇高,e,,,,,,,,,,,,,,,,,,,,,,,,,,,,,,,,,,,,,,,,,
,,,,,,,,,,,,,1,001,2025-01-02_14h44.36.597,IAT(Formal),2021.2.3,Win32,60.0024001,,,,,,,,,,,,,,,e,1,0.5792,0,15,15,10,1,优秀,e,,,,,,,,,,,,,,,,,,,,,,,,,,,,,,,,,,,,,,,,,
,,,,,,,,,,,,,1,001,2025-01-02_14h44.36.597,IAT(Formal),2021.2.3,Win32,60.0024001,,,,,,,,,,,,,,,i,1,0.4834,0,16,16,68,1,他人,i,,,,,,,,,,,,,,,,,,,,,,,,,,,,,,,,,,,,,,,,,
,,,,,,,,,,,,,1,001,2025-01-02_14h44.36.597,IAT(Formal),2021.2.3,Win32,60.0024001,,,,,,,,,,,,,,,i,1,0.7293,0,17,17,59,1,其他,i,,,,,,,,,,,,,,,,,,,,,,,,,,,,,,,,,,,,,,,,,
,,,,,,,,,,,,,1,001,2025-01-02_14h44.36.597,IAT(Formal),2021.2.3,Win32,60.0024001,,,,,,,,,,,,,,,i,1,0.5952,0,18,18,66,1,他们,i,,,,,,,,,,,,,,,,,,,,,,,,,,,,,,,,,,,,,,,,,
,,,,,,,,,,,,,1,001,2025-01-02_14h44.36.597,IAT(Formal),2021.2.3,Win32,60.0024001,,,,,,,,,,,,,,,i,1,0.6321,0,19,19,34,1,悲观,i,,,,,,,,,,,,,,,,,,,,,,,,,,,,,,,,,,,,,,,,,
,,,,,,,,,,,,,1,001,2025-01-02_14h44.36.597,IAT(Formal),2021.2.3,Win32,60.0024001,,,,,,,,,,,,,,,i,1,0.9623,0,20,20,47,1,固执,i,,,,,,,,,,,,,,,,,,,,,,,,,,,,,,,,,,,,,,,,,
,,,,,,,,,,,,,1,001,2025-01-02_14h44.36.597,IAT(Formal),2021.2.3,Win32,60.0024001,,,,,,,,,,,,,,,i,1,0.5392,0,21,21,65,1,他,i,,,,,,,,,,,,,,,,,,,,,,,,,,,,,,,,,,,,,,,,,
,,,,,,,,,,,,,1,001,2025-01-02_14h44.36.597,IAT(Formal),2021.2.3,Win32,60.0024001,,,,,,,,,,,,,,,i,1,0.7832,0,22,22,78,1,他人,i,,,,,,,,,,,,,,,,,,,,,,,,,,,,,,,,,,,,,,,,,
,,,,,,,,,,,,,1,001,2025-01-02_14h44.36.597,IAT(Formal),2021.2.3,Win32,60.0024001,,,,,,,,,,,,,,,i,1,0.4989,0,23,23,7,1,他的,i,,,,,,,,,,,,,,,,,,,,,,,,,,,,,,,,,,,,,,,,,
,,,,,,,,,,,,,1,001,2025-01-02_14h44.36.597,IAT(Formal),2021.2.3,Win32,60.0024001,,,,,,,,,,,,,,,e,1,0.685,0,24,24,12,1,聪明,e,,,,,,,,,,,,,,,,,,,,,,,,,,,,,,,,,,,,,,,,,
,,,,,,,,,,,,,1,001,2025-01-02_14h44.36.597,IAT(Formal),2021.2.3,Win32,60.0024001,,,,,,,,,,,,,,,e,1,0.6827,0,25,25,61,1,我的,e,,,,,,,,,,,,,,,,,,,,,,,,,,,,,,,,,,,,,,,,,
,,,,,,,,,,,,,1,001,2025-01-02_14h44.36.597,IAT(Formal),2021.2.3,Win32,60.0024001,,,,,,,,,,,,,,,e,1,0.7809,0,26,26,72,1,我们,e,,,,,,,,,,,,,,,,,,,,,,,,,,,,,,,,,,,,,,,,,
,,,,,,,,,,,,,1,001,2025-01-02_14h44.36.597,IAT(Formal),2021.2.3,Win32,60.0024001,,,,,,,,,,,,,,,e,1,0.5978,0,27,27,16,1,正直,e,,,,,,,,,,,,,,,,,,,,,,,,,,,,,,,,,,,,,,,,,
,,,,,,,,,,,,,1,001,2025-01-02_14h44.36.597,IAT(Formal),2021.2.3,Win32,60.0024001,,,,,,,,,,,,,,,e,1,0.5686,0,28,28,17,1,勇敢,e,,,,,,,,,,,,,,,,,,,,,,,,,,,,,,,,,,,,,,,,,
,,,,,,,,,,,,,1,001,2025-01-02_14h44.36.597,IAT(Formal),2021.2.3,Win32,60.0024001,,,,,,,,,,,,,,,e,1,0.8809,0,29,29,29,1,诚恳,e,,,,,,,,,,,,,,,,,,,,,,,,,,,,,,,,,,,,,,,,,
,,,,,,,,,,,,,1,001,2025-01-02_14h44.36.597,IAT(Formal),2021.2.3,Win32,60.0024001,,,,,,,,,,,,,,,i,1,0.6487,0,30,30,49,1,下贱,i,,,,,,,,,,,,,,,,,,,,,,,,,,,,,,,,,,,,,,,,,
,,,,,,,,,,,,,1,001,2025-01-02_14h44.36.597,IAT(Formal),2021.2.3,Win32,60.0024001,,,,,,,,,,,,,,,e,1,0.8166,0,31,31,54,1,俺,e,,,,,,,,,,,,,,,,,,,,,,,,,,,,,,,,,,,,,,,,,
,,,,,,,,,,,,,1,001,2025-01-02_14h44.36.597,IAT(Formal),2021.2.3,Win32,60.0024001,,,,,,,,,,,,,,,e,1,0.5335,0,32,32,26,1,冷静,e,,,,,,,,,,,,,,,,,,,,,,,,,,,,,,,,,,,,,,,,,
,,,,,,,,,,,,,1,001,2025-01-02_14h44.36.597,IAT(Formal),2021.2.3,Win32,60.0024001,,,,,,,,,,,,,,,i,1,0.5079,0,33,33,35,1,消极,i,,,,,,,,,,,,,,,,,,,,,,,,,,,,,,,,,,,,,,,,,
,,,,,,,,,,,,,1,001,2025-01-02_14h44.36.597,IAT(Formal),2021.2.3,Win32,60.0024001,,,,,,,,,,,,,,,i,1,0.7764,0,34,34,36,1,自卑,i,,,,,,,,,,,,,,,,,,,,,,,,,,,,,,,,,,,,,,,,,
,,,,,,,,,,,,,1,001,2025-01-02_14h44.36.597,IAT(Formal),2021.2.3,Win32,60.0024001,,,,,,,,,,,,,,,e,1,0.6954,0,35,35,14,1,乐观,e,,,,,,,,,,,,,,,,,,,,,,,,,,,,,,,,,,,,,,,,,
,,,,,,,,,,,,,1,001,2025-01-02_14h44.36.597,IAT(Formal),2021.2.3,Win32,60.0024001,,,,,,,,,,,,,,,i,1,0.5983,0,36,36,43,1,自私,i,,,,,,,,,,,,,,,,,,,,,,,,,,,,,,,,,,,,,,,,,
,,,,,,,,,,,,,1,001,2025-01-02_14h44.36.597,IAT(Formal),2021.2.3,Win32,60.0024001,,,,,,,,,,,,,,,i,1,0.5504,0,37,37,79,1,其他,i,,,,,,,,,,,,,,,,,,,,,,,,,,,,,,,,,,,,,,,,,
,,,,,,,,,,,,,1,001,2025-01-02_14h44.36.597,IAT(Formal),2021.2.3,Win32,60.0024001,,,,,,,,,,,,,,,i,1,0.4952,0,38,38,55,1,他,i,,,,,,,,,,,,,,,,,,,,,,,,,,,,,,,,,,,,,,,,,
,,,,,,,,,,,,,1,001,2025-01-02_14h44.36.597,IAT(Formal),2021.2.3,Win32,60.0024001,,,,,,,,,,,,,,,i,1,0.6625,0,39,39,48,1,轻率,i,,,,,,,,,,,,,,,,,,,,,,,,,,,,,,,,,,,,,,,,,
,,,,,,,,,,,,,1,001,2025-01-02_14h44.36.597,IAT(Formal),2021.2.3,Win32,60.0024001,,,,,,,,,,,,,,,e,1,0.5671,0,40,40,74,1,俺,e,,,,,,,,,,,,,,,,,,,,,,,,,,,,,,,,,,,,,,,,,
,,,,,,,,,,,,,1,001,2025-01-02_14h44.36.597,IAT(Formal),2021.2.3,Win32,60.0024001,,,,,,,,,,,,,,,i,0,0.4785,0,41,41,64,1,俺,e,,,,,,,,,,,,,,,,,,,,,,,,,,,,,,,,,,,,,,,,,
,,,,,,,,,,,,,1,001,2025-01-02_14h44.36.597,IAT(Formal),2021.2.3,Win32,60.0024001,,,,,,,,,,,,,,,e,1,0.4177,0,42,42,1,1,我的,e,,,,,,,,,,,,,,,,,,,,,,,,,,,,,,,,,,,,,,,,,
,,,,,,,,,,,,,1,001,2025-01-02_14h44.36.597,IAT(Formal),2021.2.3,Win32,60.0024001,,,,,,,,,,,,,,,e,1,0.654,0,43,43,27,1,热情,e,,,,,,,,,,,,,,,,,,,,,,,,,,,,,,,,,,,,,,,,,
,,,,,,,,,,,,,1,001,2025-01-02_14h44.36.597,IAT(Formal),2021.2.3,Win32,60.0024001,,,,,,,,,,,,,,,e,1,0.5989,0,44,44,23,1,公正,e,,,,,,,,,,,,,,,,,,,,,,,,,,,,,,,,,,,,,,,,,
,,,,,,,,,,,,,1,001,2025-01-02_14h44.36.597,IAT(Formal),2021.2.3,Win32,60.0024001,,,,,,,,,,,,,,,e,1,0.6654,0,45,45,25,1,细腻,e,,,,,,,,,,,,,,,,,,,,,,,,,,,,,,,,,,,,,,,,,
,,,,,,,,,,,,,1,001,2025-01-02_14h44.36.597,IAT(Formal),2021.2.3,Win32,60.0024001,,,,,,,,,,,,,,,i,1,0.675,0,46,46,75,1,他,i,,,,,,,,,,,,,,,,,,,,,,,,,,,,,,,,,,,,,,,,,
,,,,,,,,,,,,,1,001,2025-01-02_14h44.36.597,IAT(Formal),2021.2.3,Win32,60.0024001,,,,,,,,,,,,,,,i,1,0.5995,0,47,47,30,1,卑鄙,i,,,,,,,,,,,,,,,,,,,,,,,,,,,,,,,,,,,,,,,,,
,,,,,,,,,,,,,1,001,2025-01-02_14h44.36.597,IAT(Formal),2021.2.3,Win32,60.0024001,,,,,,,,,,,,,,,e,1,0.6011,0,48,48,21,1,稳重,e,,,,,,,,,,,,,,,,,,,,,,,,,,,,,,,,,,,,,,,,,
,,,,,,,,,,,,,1,001,2025-01-02_14h44.36.597,IAT(Formal),2021.2.3,Win32,60.0024001,,,,,,,,,,,,,,,e,1,0.6187,0,49,49,0,1,我,e,,,,,,,,,,,,,,,,,,,,,,,,,,,,,,,,,,,,,,,,,
,,,,,,,,,,,,,1,001,2025-01-02_14h44.36.597,IAT(Formal),2021.2.3,Win32,60.0024001,,,,,,,,,,,,,,,i,1,0.6672,0,50,50,9,1,其他,i,,,,,,,,,,,,,,,,,,,,,,,,,,,,,,,,,,,,,,,,,
,,,,,,,,,,,,,1,001,2025-01-02_14h44.36.597,IAT(Formal),2021.2.3,Win32,60.0024001,,,,,,,,,,,,,,,e,1,0.7346,0,51,51,60,1,我,e,,,,,,,,,,,,,,,,,,,,,,,,,,,,,,,,,,,,,,,,,
,,,,,,,,,,,,,1,001,2025-01-02_14h44.36.597,IAT(Formal),2021.2.3,Win32,60.0024001,,,,,,,,,,,,,,,e,1,0.6266,0,52,52,4,1,俺,e,,,,,,,,,,,,,,,,,,,,,,,,,,,,,,,,,,,,,,,,,
,,,,,,,,,,,,,1,001,2025-01-02_14h44.36.597,IAT(Formal),2021.2.3,Win32,60.0024001,,,,,,,,,,,,,,,e,0,0.4394,0,53,53,67,1,他的,i,,,,,,,,,,,,,,,,,,,,,,,,,,,,,,,,,,,,,,,,,
,,,,,,,,,,,,,1,001,2025-01-02_14h44.36.597,IAT(Formal),2021.2.3,Win32,60.0024001,,,,,,,,,,,,,,,i,1,0.7148,0,54,54,45,1,猖狂,i,,,,,,,,,,,,,,,,,,,,,,,,,,,,,,,,,,,,,,,,,
,,,,,,,,,,,,,1,001,2025-01-02_14h44.36.597,IAT(Formal),2021.2.3,Win32,60.0024001,,,,,,,,,,,,,,,e,0,0.4546,0,55,55,56,1,他们,i,,,,,,,,,,,,,,,,,,,,,,,,,,,,,,,,,,,,,,,,,
,,,,,,,,,,,,,1,001,2025-01-02_14h44.36.597,IAT(Formal),2021.2.3,Win32,60.0024001,,,,,,,,,,,,,,,i,1,0.7139,0,56,56,32,1,愚蠢,i,,,,,,,,,,,,,,,,,,,,,,,,,,,,,,,,,,,,,,,,,
,,,,,,,,,,,,,1,001,2025-01-02_14h44.36.597,IAT(Formal),2021.2.3,Win32,60.0024001,,,,,,,,,,,,,,,i,1,1.1839,0,57,57,46,1,野蛮,i,,,,,,,,,,,,,,,,,,,,,,,,,,,,,,,,,,,,,,,,,
,,,,,,,,,,,,,1,001,2025-01-02_14h44.36.597,IAT(Formal),2021.2.3,Win32,60.0024001,,,,,,,,,,,,,,,e,1,0.633,0,58,58,19,1,机智,e,,,,,,,,,,,,,,,,,,,,,,,,,,,,,,,,,,,,,,,,,
,,,,,,,,,,,,,1,001,2025-01-02_14h44.36.597,IAT(Formal),2021.2.3,Win32,60.0024001,,,,,,,,,,,,,,,e,1,0.6987,0,59,59,2,1,我们,e,,,,,,,,,,,,,,,,,,,,,,,,,,,,,,,,,,,,,,,,,
,,,,,,,,,,,,,1,001,2025-01-02_14h44.36.597,IAT(Formal),2021.2.3,Win32,60.0024001,,,,,,,,,,,,,,,i,1,0.5449,0,60,60,57,1,他的,i,,,,,,,,,,,,,,,,,,,,,,,,,,,,,,,,,,,,,,,,,
,,,,,,,,,,,,,1,001,2025-01-02_14h44.36.597,IAT(Formal),2021.2.3,Win32,60.0024001,,,,,,,,,,,,,,,,0,,0,61,61,53,1,自己,e,,,,,,,,,,,,,,,,,,,,,,,,,,,,,,,,,,,,,,,,,
,,,,,,,,,,,,,1,001,2025-01-02_14h44.36.597,IAT(Formal),2021.2.3,Win32,60.0024001,,,,,,,,,,,,,,,i,1,0.4978,0,62,62,6,1,他们,i,,,,,,,,,,,,,,,,,,,,,,,,,,,,,,,,,,,,,,,,,
,,,,,,,,,,,,,1,001,2025-01-02_14h44.36.597,IAT(Formal),2021.2.3,Win32,60.0024001,,,,,,,,,,,,,,,i,1,0.6427,0,63,63,42,1,凶狠,i,,,,,,,,,,,,,,,,,,,,,,,,,,,,,,,,,,,,,,,,,
,,,,,,,,,,,,,1,001,2025-01-02_14h44.36.597,IAT(Formal),2021.2.3,Win32,60.0024001,,,,,,,,,,,,,,,e,1,0.617,0,64,64,51,1,我的,e,,,,,,,,,,,,,,,,,,,,,,,,,,,,,,,,,,,,,,,,,
,,,,,,,,,,,,,1,001,2025-01-02_14h44.36.597,IAT(Formal),2021.2.3,Win32,60.0024001,,,,,,,,,,,,,,,i,1,0.6451,0,65,65,44,1,暴躁,i,,,,,,,,,,,,,,,,,,,,,,,,,,,,,,,,,,,,,,,,,
,,,,,,,,,,,,,1,001,2025-01-02_14h44.36.597,IAT(Formal),2021.2.3,Win32,60.0024001,,,,,,,,,,,,,,,i,1,0.6291,0,66,66,39,1,冒失,i,,,,,,,,,,,,,,,,,,,,,,,,,,,,,,,,,,,,,,,,,
,,,,,,,,,,,,,1,001,2025-01-02_14h44.36.597,IAT(Formal),2021.2.3,Win32,60.0024001,,,,,,,,,,,,,,,e,1,0.6678,0,67,67,24,1,朴实,e,,,,,,,,,,,,,,,,,,,,,,,,,,,,,,,,,,,,,,,,,
,,,,,,,,,,,,,1,001,2025-01-02_14h44.36.597,IAT(Formal),2021.2.3,Win32,60.0024001,,,,,,,,,,,,,,,i,1,0.6145,0,68,68,31,1,虚伪,i,,,,,,,,,,,,,,,,,,,,,,,,,,,,,,,,,,,,,,,,,
,,,,,,,,,,,,,1,001,2025-01-02_14h44.36.597,IAT(Formal),2021.2.3,Win32,60.0024001,,,,,,,,,,,,,,,i,1,0.5642,0,69,69,5,1,他,i,,,,,,,,,,,,,,,,,,,,,,,,,,,,,,,,,,,,,,,,,
,,,,,,,,,,,,,1,001,2025-01-02_14h44.36.597,IAT(Formal),2021.2.3,Win32,60.0024001,,,,,,,,,,,,,,,i,1,0.6465,0,70,70,38,1,鲁莽,i,,,,,,,,,,,,,,,,,,,,,,,,,,,,,,,,,,,,,,,,,
,,,,,,,,,,,,,1,001,2025-01-02_14h44.36.597,IAT(Formal),2021.2.3,Win32,60.0024001,,,,,,,,,,,,,,,i,1,0.6039,0,71,71,33,1,刻薄,i,,,,,,,,,,,,,,,,,,,,,,,,,,,,,,,,,,,,,,,,,
,,,,,,,,,,,,,1,001,2025-01-02_14h44.36.597,IAT(Formal),2021.2.3,Win32,60.0024001,,,,,,,,,,,,,,,i,1,0.4819,0,72,72,8,1,他人,i,,,,,,,,,,,,,,,,,,,,,,,,,,,,,,,,,,,,,,,,,
,,,,,,,,,,,,,1,001,2025-01-02_14h44.36.597,IAT(Formal),2021.2.3,Win32,60.0024001,,,,,,,,,,,,,,,i,1,0.6256,0,73,73,40,1,执拗,i,,,,,,,,,,,,,,,,,,,,,,,,,,,,,,,,,,,,,,,,,
,,,,,,,,,,,,,1,001,2025-01-02_14h44.36.597,IAT(Formal),2021.2.3,Win32,60.0024001,,,,,,,,,,,,,,,e,1,0.6762,0,74,74,15,1,诚实,e,,,,,,,,,,,,,,,,,,,,,,,,,,,,,,,,,,,,,,,,,
,,,,,,,,,,,,,1,001,2025-01-02_14h44.36.597,IAT(Formal),2021.2.3,Win32,60.0024001,,,,,,,,,,,,,,,i,1,0.5004,0,75,75,77,1,他的,i,,,,,,,,,,,,,,,,,,,,,,,,,,,,,,,,,,,,,,,,,
,,,,,,,,,,,,,1,001,2025-01-02_14h44.36.597,IAT(Formal),2021.2.3,Win32,60.0024001,,,,,,,,,,,,,,,e,1,0.6146,0,76,76,18,1,勤奋,e,,,,,,,,,,,,,,,,,,,,,,,,,,,,,,,,,,,,,,,,,
,,,,,,,,,,,,,1,001,2025-01-02_14h44.36.597,IAT(Formal),2021.2.3,Win32,60.0024001,,,,,,,,,,,,,,,e,1,0.676,0,77,77,52,1,我们,e,,,,,,,,,,,,,,,,,,,,,,,,,,,,,,,,,,,,,,,,,
,,,,,,,,,,,,,1,001,2025-01-02_14h44.36.597,IAT(Formal),2021.2.3,Win32,60.0024001,,,,,,,,,,,,,,,e,1,0.7079,0,78,78,20,1,认真,e,,,,,,,,,,,,,,,,,,,,,,,,,,,,,,,,,,,,,,,,,
,,,,,,,,,,,,,1,001,2025-01-02_14h44.36.597,IAT(Formal),2021.2.3,Win32,60.0024001,,,,,,,,,,,,,,,e,1,0.6964,0,79,79,22,1,无私,e,,,,,,,,,,,,,,,,,,,,,,,,,,,,,,,,,,,,,,,,,
,,,,,,,,,,,,,1,001,2025-01-02_14h44.36.597,IAT(Formal),2021.2.3,Win32,60.0024001,,,,,,,,,,,,,,,e,1,0.6151,,,,,,俺,e,space,6.1089,0,0,0,74,1,,,,,,,,,,,,,,,,,,,,,,,,,,,,,,,,,,
,,,,,,,,,,,,,1,001,2025-01-02_14h44.36.597,IAT(Formal),2021.2.3,Win32,60.0024001,,,,,,,,,,,,,,,,0,,,,,,,他人,i,,,0,1,1,68,1,,,,,,,,,,,,,,,,,,,,,,,,,,,,,,,,,,
,,,,,,,,,,,,,1,001,2025-01-02_14h44.36.597,IAT(Formal),2021.2.3,Win32,60.0024001,,,,,,,,,,,,,,,e,0,0.496,,,,,,他的,i,,,0,2,2,57,1,,,,,,,,,,,,,,,,,,,,,,,,,,,,,,,,,,
,,,,,,,,,,,,,1,001,2025-01-02_14h44.36.597,IAT(Formal),2021.2.3,Win32,60.0024001,,,,,,,,,,,,,,,e,1,0.5794,,,,,,杰出,e,,,0,3,3,13,1,,,,,,,,,,,,,,,,,,,,,,,,,,,,,,,,,,
,,,,,,,,,,,,,1,001,2025-01-02_14h44.36.597,IAT(Formal),2021.2.3,Win32,60.0024001,,,,,,,,,,,,,,,i,1,0.5759,,,,,,鲁莽,i,,,0,4,4,38,1,,,,,,,,,,,,,,,,,,,,,,,,,,,,,,,,,,
,,,,,,,,,,,,,1,001,2025-01-02_14h44.36.597,IAT(Formal),2021.2.3,Win32,60.0024001,,,,,,,,,,,,,,,e,1,0.6522,,,,,,活泼,e,,,0,5,5,28,1,,,,,,,,,,,,,,,,,,,,,,,,,,,,,,,,,,
,,,,,,,,,,,,,1,001,2025-01-02_14h44.36.597,IAT(Formal),2021.2.3,Win32,60.0024001,,,,,,,,,,,,,,,i,1,0.6153,,,,,,其他,i,,,0,6,6,59,1,,,,,,,,,,,,,,,,,,,,,,,,,,,,,,,,,,
,,,,,,,,,,,,,1,001,2025-01-02_14h44.36.597,IAT(Formal),2021.2.3,Win32,60.0024001,,,,,,,,,,,,,,,i,1,0.5137,,,,,,他,i,,,0,7,7,65,1,,,,,,,,,,,,,,,,,,,,,,,,,,,,,,,,,,
,,,,,,,,,,,,,1,001,2025-01-02_14h44.36.597,IAT(Formal),2021.2.3,Win32,60.0024001,,,,,,,,,,,,,,,e,1,0.633,,,,,,细腻,e,,,0,8,8,25,1,,,,,,,,,,,,,,,,,,,,,,,,,,,,,,,,,,
,,,,,,,,,,,,,1,001,2025-01-02_14h44.36.597,IAT(Formal),2021.2.3,Win32,60.0024001,,,,,,,,,,,,,,,e,1,0.665,,,,,,机智,e,,,0,9,9,19,1,,,,,,,,,,,,,,,,,,,,,,,,,,,,,,,,,,
,,,,,,,,,,,,,1,001,2025-01-02_14h44.36.597,IAT(Formal),2021.2.3,Win32,60.0024001,,,,,,,,,,,,,,,e,1,0.4493,,,,,,优秀,e,,,0,10,10,10,1,,,,,,,,,,,,,,,,,,,,,,,,,,,,,,,,,,
,,,,,,,,,,,,,1,001,2025-01-02_14h44.36.597,IAT(Formal),2021.2.3,Win32,60.0024001,,,,,,,,,,,,,,,e,1,0.3959,,,,,,我的,e,,,0,11,11,51,1,,,,,,,,,,,,,,,,,,,,,,,,,,,,,,,,,,
,,,,,,,,,,,,,1,001,2025-01-02_14h44.36.597,IAT(Formal),2021.2.3,Win32,60.0024001,,,,,,,,,,,,,,,e,1,0.5724,,,,,,俺,e,,,0,12,12,4,1,,,,,,,,,,,,,,,,,,,,,,,,,,,,,,,,,,
,,,,,,,,,,,,,1,001,2025-01-02_14h44.36.597,IAT(Formal),2021.2.3,Win32,60.0024001,,,,,,,,,,,,,,,e,1,0.7183,,,,,,无私,e,,,0,13,13,22,1,,,,,,,,,,,,,,,,,,,,,,,,,,,,,,,,,,
,,,,,,,,,,,,,1,001,2025-01-02_14h44.36.597,IAT(Formal),2021.2.3,Win32,60.0024001,,,,,,,,,,,,,,,i,1,0.8355,,,,,,凶狠,i,,,0,14,14,42,1,,,,,,,,,,,,,,,,,,,,,,,,,,,,,,,,,,
,,,,,,,,,,,,,1,001,2025-01-02_14h44.36.597,IAT(Formal),2021.2.3,Win32,60.0024001,,,,,,,,,,,,,,,i,1,0.615,,,,,,暴躁,i,,,0,15,15,44,1,,,,,,,,,,,,,,,,,,,,,,,,,,,,,,,,,,
,,,,,,,,,,,,,1,001,2025-01-02_14h44.36.597,IAT(Formal),2021.2.3,Win32,60.0024001,,,,,,,,,,,,,,,e,1,0.5942,,,,,,崇高,e,,,0,16,16,11,1,,,,,,,,,,,,,,,,,,,,,,,,,,,,,,,,,,
,,,,,,,,,,,,,1,001,2025-01-02_14h44.36.597,IAT(Formal),2021.2.3,Win32,60.0024001,,,,,,,,,,,,,,,e,1,0.4639,,,,,,认真,e,,,0,17,17,20,1,,,,,,,,,,,,,,,,,,,,,,,,,,,,,,,,,,
,,,,,,,,,,,,,1,001,2025-01-02_14h44.36.597,IAT(Formal),2021.2.3,Win32,60.0024001,,,,,,,,,,,,,,,i,1,0.6271,,,,,,其他,i,,,0,18,18,9,1,,,,,,,,,,,,,,,,,,,,,,,,,,,,,,,,,,
,,,,,,,,,,,,,1,001,2025-01-02_14h44.36.597,IAT(Formal),2021.2.3,Win32,60.0024001,,,,,,,,,,,,,,,e,1,0.7352,,,,,,我们,e,,,0,19,19,72,1,,,,,,,,,,,,,,,,,,,,,,,,,,,,,,,,,,
,,,,,,,,,,,,,1,001,2025-01-02_14h44.36.597,IAT(Formal),2021.2.3,Win32,60.0024001,,,,,,,,,,,,,,,e,1,0.7475,,,,,,我的,e,,,0,20,20,1,1,,,,,,,,,,,,,,,,,,,,,,,,,,,,,,,,,,
,,,,,,,,,,,,,1,001,2025-01-02_14h44.36.597,IAT(Formal),2021.2.3,Win32,60.0024001,,,,,,,,,,,,,,,e,1,0.5011,,,,,,我的,e,,,0,21,21,61,1,,,,,,,,,,,,,,,,,,,,,,,,,,,,,,,,,,
,,,,,,,,,,,,,1,001,2025-01-02_14h44.36.597,IAT(Formal),2021.2.3,Win32,60.0024001,,,,,,,,,,,,,,,e,1,0.5696,,,,,,朴实,e,,,0,22,22,24,1,,,,,,,,,,,,,,,,,,,,,,,,,,,,,,,,,,
,,,,,,,,,,,,,1,001,2025-01-02_14h44.36.597,IAT(Formal),2021.2.3,Win32,60.0024001,,,,,,,,,,,,,,,i,1,0.6401,,,,,,执拗,i,,,0,23,23,40,1,,,,,,,,,,,,,,,,,,,,,,,,,,,,,,,,,,
,,,,,,,,,,,,,1,001,2025-01-02_14h44.36.597,IAT(Formal),2021.2.3,Win32,60.0024001,,,,,,,,,,,,,,,i,1,0.7877,,,,,,他,i,,,0,24,24,55,1,,,,,,,,,,,,,,,,,,,,,,,,,,,,,,,,,,
,,,,,,,,,,,,,1,001,2025-01-02_14h44.36.597,IAT(Formal),2021.2.3,Win32,60.0024001,,,,,,,,,,,,,,,e,1,0.6355,,,,,,我们,e,,,0,25,25,52,1,,,,,,,,,,,,,,,,,,,,,,,,,,,,,,,,,,
,,,,,,,,,,,,,1,001,2025-01-02_14h44.36.597,IAT(Formal),2021.2.3,Win32,60.0024001,,,,,,,,,,,,,,,i,1,0.5846,,,,,,其他,i,,,0,26,26,69,1,,,,,,,,,,,,,,,,,,,,,,,,,,,,,,,,,,
,,,,,,,,,,,,,1,001,2025-01-02_14h44.36.597,IAT(Formal),2021.2.3,Win32,60.0024001,,,,,,,,,,,,,,,e,1,0.4251,,,,,,我,e,,,0,27,27,0,1,,,,,,,,,,,,,,,,,,,,,,,,,,,,,,,,,,
,,,,,,,,,,,,,1,001,2025-01-02_14h44.36.597,IAT(Formal),2021.2.3,Win32,60.0024001,,,,,,,,,,,,,,,e,1,0.6916,,,,,,公正,e,,,0,28,28,23,1,,,,,,,,,,,,,,,,,,,,,,,,,,,,,,,,,,
,,,,,,,,,,,,,1,001,2025-01-02_14h44.36.597,IAT(Formal),2021.2.3,Win32,60.0024001,,,,,,,,,,,,,,,i,1,0.6091,,,,,,他的,i,,,0,29,29,67,1,,,,,,,,,,,,,,,,,,,,,,,,,,,,,,,,,,
,,,,,,,,,,,,,1,001,2025-01-02_14h44.36.597,IAT(Formal),2021.2.3,Win32,60.0024001,,,,,,,,,,,,,,,e,0,0.5212,,,,,,散漫,i,,,0,30,30,41,1,,,,,,,,,,,,,,,,,,,,,,,,,,,,,,,,,,
,,,,,,,,,,,,,1,001,2025-01-02_14h44.36.597,IAT(Formal),2021.2.3,Win32,60.0024001,,,,,,,,,,,,,,,i,1,0.6877,,,,,,他,i,,,0,31,31,5,1,,,,,,,,,,,,,,,,,,,,,,,,,,,,,,,,,,
,,,,,,,,,,,,,1,001,2025-01-02_14h44.36.597,IAT(Formal),2021.2.3,Win32,60.0024001,,,,,,,,,,,,,,,i,1,0.5954,,,,,,其他,i,,,0,32,32,79,1,,,,,,,,,,,,,,,,,,,,,,,,,,,,,,,,,,
,,,,,,,,,,,,,1,001,2025-01-02_14h44.36.597,IAT(Formal),2021.2.3,Win32,60.0024001,,,,,,,,,,,,,,,e,1,0.5652,,,,,,聪明,e,,,0,33,33,12,1,,,,,,,,,,,,,,,,,,,,,,,,,,,,,,,,,,
,,,,,,,,,,,,,1,001,2025-01-02_14h44.36.597,IAT(Formal),2021.2.3,Win32,60.0024001,,,,,,,,,,,,,,,i,1,0.7677,,,,,,固执,i,,,0,34,34,47,1,,,,,,,,,,,,,,,,,,,,,,,,,,,,,,,,,,
,,,,,,,,,,,,,1,001,2025-01-02_14h44.36.597,IAT(Formal),2021.2.3,Win32,60.0024001,,,,,,,,,,,,,,,e,1,0.5918,,,,,,我,e,,,0,35,35,60,1,,,,,,,,,,,,,,,,,,,,,,,,,,,,,,,,,,
,,,,,,,,,,,,,1,001,2025-01-02_14h44.36.597,IAT(Formal),2021.2.3,Win32,60.0024001,,,,,,,,,,,,,,,i,1,0.5621,,,,,,他,i,,,0,36,36,75,1,,,,,,,,,,,,,,,,,,,,,,,,,,,,,,,,,,
,,,,,,,,,,,,,1,001,2025-01-02_14h44.36.597,IAT(Formal),2021.2.3,Win32,60.0024001,,,,,,,,,,,,,,,i,1,0.4852,,,,,,他人,i,,,0,37,37,58,1,,,,,,,,,,,,,,,,,,,,,,,,,,,,,,,,,,
,,,,,,,,,,,,,1,001,2025-01-02_14h44.36.597,IAT(Formal),2021.2.3,Win32,60.0024001,,,,,,,,,,,,,,,e,1,0.6652,,,,,,俺,e,,,0,38,38,64,1,,,,,,,,,,,,,,,,,,,,,,,,,,,,,,,,,,
,,,,,,,,,,,,,1,001,2025-01-02_14h44.36.597,IAT(Formal),2021.2.3,Win32,60.0024001,,,,,,,,,,,,,,,i,0,0.6645,,,,,,我,e,,,0,39,39,70,1,,,,,,,,,,,,,,,,,,,,,,,,,,,,,,,,,,
,,,,,,,,,,,,,1,001,2025-01-02_14h44.36.597,IAT(Formal),2021.2.3,Win32,60.0024001,,,,,,,,,,,,,,,e,1,0.5193,,,,,,自己,e,,,0,40,40,63,1,,,,,,,,,,,,,,,,,,,,,,,,,,,,,,,,,,
,,,,,,,,,,,,,1,001,2025-01-02_14h44.36.597,IAT(Formal),2021.2.3,Win32,60.0024001,,,,,,,,,,,,,,,e,1,0.4165,,,,,,俺,e,,,0,41,41,54,1,,,,,,,,,,,,,,,,,,,,,,,,,,,,,,,,,,
,,,,,,,,,,,,,1,001,2025-01-02_14h44.36.597,IAT(Formal),2021.2.3,Win32,60.0024001,,,,,,,,,,,,,,,e,1,0.556,,,,,,乐观,e,,,0,42,42,14,1,,,,,,,,,,,,,,,,,,,,,,,,,,,,,,,,,,
,,,,,,,,,,,,,1,001,2025-01-02_14h44.36.597,IAT(Formal),2021.2.3,Win32,60.0024001,,,,,,,,,,,,,,,e,0,0.4321,,,,,,悲观,i,,,0,43,43,34,1,,,,,,,,,,,,,,,,,,,,,,,,,,,,,,,,,,
,,,,,,,,,,,,,1,001,2025-01-02_14h44.36.597,IAT(Formal),2021.2.3,Win32,60.0024001,,,,,,,,,,,,,,,i,1,0.6247,,,,,,消极,i,,,0,44,44,35,1,,,,,,,,,,,,,,,,,,,,,,,,,,,,,,,,,,
,,,,,,,,,,,,,1,001,2025-01-02_14h44.36.597,IAT(Formal),2021.2.3,Win32,60.0024001,,,,,,,,,,,,,,,e,1,0.6899,,,,,,勇敢,e,,,0,45,45,17,1,,,,,,,,,,,,,,,,,,,,,,,,,,,,,,,,,,
,,,,,,,,,,,,,1,001,2025-01-02_14h44.36.597,IAT(Formal),2021.2.3,Win32,60.0024001,,,,,,,,,,,,,,,i,1,0.547,,,,,,自卑,i,,,0,46,46,36,1,,,,,,,,,,,,,,,,,,,,,,,,,,,,,,,,,,
,,,,,,,,,,,,,1,001,2025-01-02_14h44.36.597,IAT(Formal),2021.2.3,Win32,60.0024001,,,,,,,,,,,,,,,i,1,0.6638,,,,,,猖狂,i,,,0,47,47,45,1,,,,,,,,,,,,,,,,,,,,,,,,,,,,,,,,,,
,,,,,,,,,,,,,1,001,2025-01-02_14h44.36.597,IAT(Formal),2021.2.3,Win32,60.0024001,,,,,,,,,,,,,,,i,1,0.5131,,,,,,傲慢,i,,,0,48,48,37,1,,,,,,,,,,,,,,,,,,,,,,,,,,,,,,,,,,
,,,,,,,,,,,,,1,001,2025-01-02_14h44.36.597,IAT(Formal),2021.2.3,Win32,60.0024001,,,,,,,,,,,,,,,e,1,0.5988,,,,,,自己,e,,,0,49,49,3,1,,,,,,,,,,,,,,,,,,,,,,,,,,,,,,,,,,
,,,,,,,,,,,,,1,001,2025-01-02_14h44.36.597,IAT(Formal),2021.2.3,Win32,60.0024001,,,,,,,,,,,,,,,i,1,0.7154,,,,,,他人,i,,,0,50,50,8,1,,,,,,,,,,,,,,,,,,,,,,,,,,,,,,,,,,
,,,,,,,,,,,,,1,001,2025-01-02_14h44.36.597,IAT(Formal),2021.2.3,Win32,60.0024001,,,,,,,,,,,,,,,e,1,0.8327,,,,,,热情,e,,,0,51,51,27,1,,,,,,,,,,,,,,,,,,,,,,,,,,,,,,,,,,
,,,,,,,,,,,,,1,001,2025-01-02_14h44.36.597,IAT(Formal),2021.2.3,Win32,60.0024001,,,,,,,,,,,,,,,i,1,0.4917,,,,,,他人,i,,,0,52,52,78,1,,,,,,,,,,,,,,,,,,,,,,,,,,,,,,,,,,
,,,,,,,,,,,,,1,001,2025-01-02_14h44.36.597,IAT(Formal),2021.2.3,Win32,60.0024001,,,,,,,,,,,,,,,e,1,0.5848,,,,,,我的,e,,,0,53,53,71,1,,,,,,,,,,,,,,,,,,,,,,,,,,,,,,,,,,
,,,,,,,,,,,,,1,001,2025-01-02_14h44.36.597,IAT(Formal),2021.2.3,Win32,60.0024001,,,,,,,,,,,,,,,e,1,0.6783,,,,,,我们,e,,,0,54,54,2,1,,,,,,,,,,,,,,,,,,,,,,,,,,,,,,,,,,
,,,,,,,,,,,,,1,001,2025-01-02_14h44.36.597,IAT(Formal),2021.2.3,Win32,60.0024001,,,,,,,,,,,,,,,e,0,0.4989,,,,,,虚伪,i,,,0,55,55,31,1,,,,,,,,,,,,,,,,,,,,,,,,,,,,,,,,,,
,,,,,,,,,,,,,1,001,2025-01-02_14h44.36.597,IAT(Formal),2021.2.3,Win32,60.0024001,,,,,,,,,,,,,,,i,1,0.4821,,,,,,他们,i,,,0,56,56,56,1,,,,,,,,,,,,,,,,,,,,,,,,,,,,,,,,,,
,,,,,,,,,,,,,1,001,2025-01-02_14h44.36.597,IAT(Formal),2021.2.3,Win32,60.0024001,,,,,,,,,,,,,,,i,1,0.4675,,,,,,他们,i,,,0,57,57,6,1,,,,,,,,,,,,,,,,,,,,,,,,,,,,,,,,,,
,,,,,,,,,,,,,1,001,2025-01-02_14h44.36.597,IAT(Formal),2021.2.3,Win32,60.0024001,,,,,,,,,,,,,,,e,1,0.5566,,,,,,勤奋,e,,,0,58,58,18,1,,,,,,,,,,,,,,,,,,,,,,,,,,,,,,,,,,
,,,,,,,,,,,,,1,001,2025-01-02_14h44.36.597,IAT(Formal),2021.2.3,Win32,60.0024001,,,,,,,,,,,,,,,i,1,0.6744,,,,,,刻薄,i,,,0,59,59,33,1,,,,,,,,,,,,,,,,,,,,,,,,,,,,,,,,,,
,,,,,,,,,,,,,1,001,2025-01-02_14h44.36.597,IAT(Formal),2021.2.3,Win32,60.0024001,,,,,,,,,,,,,,,i,1,0.595,,,,,,他们,i,,,0,60,60,66,1,,,,,,,,,,,,,,,,,,,,,,,,,,,,,,,,,,
,,,,,,,,,,,,,1,001,2025-01-02_14h44.36.597,IAT(Formal),2021.2.3,Win32,60.0024001,,,,,,,,,,,,,,,e,1,0.6138,,,,,,自己,e,,,0,61,61,73,1,,,,,,,,,,,,,,,,,,,,,,,,,,,,,,,,,,
,,,,,,,,,,,,,1,001,2025-01-02_14h44.36.597,IAT(Formal),2021.2.3,Win32,60.0024001,,,,,,,,,,,,,,,e,1,0.7459,,,,,,诚实,e,,,0,62,62,15,1,,,,,,,,,,,,,,,,,,,,,,,,,,,,,,,,,,
,,,,,,,,,,,,,1,001,2025-01-02_14h44.36.597,IAT(Formal),2021.2.3,Win32,60.0024001,,,,,,,,,,,,,,,i,1,0.6348,,,,,,野蛮,i,,,0,63,63,46,1,,,,,,,,,,,,,,,,,,,,,,,,,,,,,,,,,,
,,,,,,,,,,,,,1,001,2025-01-02_14h44.36.597,IAT(Formal),2021.2.3,Win32,60.0024001,,,,,,,,,,,,,,,e,1,0.5148,,,,,,我们,e,,,0,64,64,62,1,,,,,,,,,,,,,,,,,,,,,,,,,,,,,,,,,,
,,,,,,,,,,,,,1,001,2025-01-02_14h44.36.597,IAT(Formal),2021.2.3,Win32,60.0024001,,,,,,,,,,,,,,,i,1,0.6017,,,,,,他的,i,,,0,65,65,7,1,,,,,,,,,,,,,,,,,,,,,,,,,,,,,,,,,,
,,,,,,,,,,,,,1,001,2025-01-02_14h44.36.597,IAT(Formal),2021.2.3,Win32,60.0024001,,,,,,,,,,,,,,,i,1,0.5998,,,,,,冒失,i,,,0,66,66,39,1,,,,,,,,,,,,,,,,,,,,,,,,,,,,,,,,,,
,,,,,,,,,,,,,1,001,2025-01-02_14h44.36.597,IAT(Formal),2021.2.3,Win32,60.0024001,,,,,,,,,,,,,,,e,0,0.5452,,,,,,自私,i,,,0,67,67,43,1,,,,,,,,,,,,,,,,,,,,,,,,,,,,,,,,,,
,,,,,,,,,,,,,1,001,2025-01-02_14h44.36.597,IAT(Formal),2021.2.3,Win32,60.0024001,,,,,,,,,,,,,,,i,1,0.583,,,,,,卑鄙,i,,,0,68,68,30,1,,,,,,,,,,,,,,,,,,,,,,,,,,,,,,,,,,
,,,,,,,,,,,,,1,001,2025-01-02_14h44.36.597,IAT(Formal),2021.2.3,Win32,60.0024001,,,,,,,,,,,,,,,e,1,0.6809,,,,,,自己,e,,,0,69,69,53,1,,,,,,,,,,,,,,,,,,,,,,,,,,,,,,,,,,
,,,,,,,,,,,,,1,001,2025-01-02_14h44.36.597,IAT(Formal),2021.2.3,Win32,60.0024001,,,,,,,,,,,,,,,i,1,0.5555,,,,,,愚蠢,i,,,0,70,70,32,1,,,,,,,,,,,,,,,,,,,,,,,,,,,,,,,,,,
,,,,,,,,,,,,,1,001,2025-01-02_14h44.36.597,IAT(Formal),2021.2.3,Win32,60.0024001,,,,,,,,,,,,,,,i,1,0.6396,,,,,,轻率,i,,,0,71,71,48,1,,,,,,,,,,,,,,,,,,,,,,,,,,,,,,,,,,
,,,,,,,,,,,,,1,001,2025-01-02_14h44.36.597,IAT(Formal),2021.2.3,Win32,60.0024001,,,,,,,,,,,,,,,i,0,0.5168,,,,,,稳重,e,,,0,72,72,21,1,,,,,,,,,,,,,,,,,,,,,,,,,,,,,,,,,,
,,,,,,,,,,,,,1,001,2025-01-02_14h44.36.597,IAT(Formal),2021.2.3,Win32,60.0024001,,,,,,,,,,,,,,,e,0,0.4298,,,,,,下贱,i,,,0,73,73,49,1,,,,,,,,,,,,,,,,,,,,,,,,,,,,,,,,,,
,,,,,,,,,,,,,1,001,2025-01-02_14h44.36.597,IAT(Formal),2021.2.3,Win32,60.0024001,,,,,,,,,,,,,,,i,1,0.7398,,,,,,他的,i,,,0,74,74,77,1,,,,,,,,,,,,,,,,,,,,,,,,,,,,,,,,,,
,,,,,,,,,,,,,1,001,2025-01-02_14h44.36.597,IAT(Formal),2021.2.3,Win32,60.0024001,,,,,,,,,,,,,,,i,0,1.0488,,,,,,冷静,e,,,0,75,75,26,1,,,,,,,,,,,,,,,,,,,,,,,,,,,,,,,,,,
,,,,,,,,,,,,,1,001,2025-01-02_14h44.36.597,IAT(Formal),2021.2.3,Win32,60.0024001,,,,,,,,,,,,,,,e,1,0.9145,,,,,,正直,e,,,0,76,76,16,1,,,,,,,,,,,,,,,,,,,,,,,,,,,,,,,,,,
,,,,,,,,,,,,,1,001,2025-01-02_14h44.36.597,IAT(Formal),2021.2.3,Win32,60.0024001,,,,,,,,,,,,,,,i,1,0.8247,,,,,,他们,i,,,0,77,77,76,1,,,,,,,,,,,,,,,,,,,,,,,,,,,,,,,,,,
,,,,,,,,,,,,,1,001,2025-01-02_14h44.36.597,IAT(Formal),2021.2.3,Win32,60.0024001,,,,,,,,,,,,,,,e,1,0.533,,,,,,我,e,,,0,78,78,50,1,,,,,,,,,,,,,,,,,,,,,,,,,,,,,,,,,,
,,,,,,,,,,,,,1,001,2025-01-02_14h44.36.597,IAT(Formal),2021.2.3,Win32,60.0024001,,,,,,,,,,,,,,,e,1,0.7013,,,,,,诚恳,e,,,0,79,79,29,1,,,,,,,,,,,,,,,,,,,,,,,,,,,,,,,,,,
,,,,,,,,,,,,,1,001,2025-01-02_14h44.36.597,IAT(Formal),2021.2.3,Win32,60.0024001,,,,,,,,,,,,,,,e,1,0.4566,,,,,,我们,e,,,1,0,80,52,1,,,,,,,,,,,,,,,,,,,,,,,,,,,,,,,,,,
,,,,,,,,,,,,,1,001,2025-01-02_14h44.36.597,IAT(Formal),2021.2.3,Win32,60.0024001,,,,,,,,,,,,,,,i,1,0.7535,,,,,,下贱,i,,,1,1,81,49,1,,,,,,,,,,,,,,,,,,,,,,,,,,,,,,,,,,
,,,,,,,,,,,,,1,001,2025-01-02_14h44.36.597,IAT(Formal),2021.2.3,Win32,60.0024001,,,,,,,,,,,,,,,e,0,0.5298,,,,,,他的,i,,,1,2,82,67,1,,,,,,,,,,,,,,,,,,,,,,,,,,,,,,,,,,
,,,,,,,,,,,,,1,001,2025-01-02_14h44.36.597,IAT(Formal),2021.2.3,Win32,60.0024001,,,,,,,,,,,,,,,i,1,0.6425,,,,,,刻薄,i,,,1,3,83,33,1,,,,,,,,,,,,,,,,,,,,,,,,,,,,,,,,,,
,,,,,,,,,,,,,1,001,2025-01-02_14h44.36.597,IAT(Formal),2021.2.3,Win32,60.0024001,,,,,,,,,,,,,,,i,1,1.1742,,,,,,散漫,i,,,1,4,84,41,1,,,,,,,,,,,,,,,,,,,,,,,,,,,,,,,,,,
,,,,,,,,,,,,,1,001,2025-01-02_14h44.36.597,IAT(Formal),2021.2.3,Win32,60.0024001,,,,,,,,,,,,,,,i,1,0.615,,,,,,其他,i,,,1,5,85,59,1,,,,,,,,,,,,,,,,,,,,,,,,,,,,,,,,,,
,,,,,,,,,,,,,1,001,2025-01-02_14h44.36.597,IAT(Formal),2021.2.3,Win32,60.0024001,,,,,,,,,,,,,,,i,1,0.5559,,,,,,卑鄙,i,,,1,6,86,30,1,,,,,,,,,,,,,,,,,,,,,,,,,,,,,,,,,,
,,,,,,,,,,,,,1,001,2025-01-02_14h44.36.597,IAT(Formal),2021.2.3,Win32,60.0024001,,,,,,,,,,,,,,,i,1,0.9942,,,,,,他,i,,,1,7,87,75,1,,,,,,,,,,,,,,,,,,,,,,,,,,,,,,,,,,
,,,,,,,,,,,,,1,001,2025-01-02_14h44.36.597,IAT(Formal),2021.2.3,Win32,60.0024001,,,,,,,,,,,,,,,e,1,1.2506,,,,,,热情,e,,,1,8,88,27,1,,,,,,,,,,,,,,,,,,,,,,,,,,,,,,,,,,
,,,,,,,,,,,,,1,001,2025-01-02_14h44.36.597,IAT(Formal),2021.2.3,Win32,60.0024001,,,,,,,,,,,,,,,i,1,0.4937,,,,,,其他,i,,,1,9,89,79,1,,,,,,,,,,,,,,,,,,,,,,,,,,,,,,,,,,
,,,,,,,,,,,,,1,001,2025-01-02_14h44.36.597,IAT(Formal),2021.2.3,Win32,60.0024001,,,,,,,,,,,,,,,e,1,0.9832,,,,,,朴实,e,,,1,10,90,24,1,,,,,,,,,,,,,,,,,,,,,,,,,,,,,,,,,,
,,,,,,,,,,,,,1,001,2025-01-02_14h44.36.597,IAT(Formal),2021.2.3,Win32,60.0024001,,,,,,,,,,,,,,,e,1,0.6771,,,,,,崇高,e,,,1,11,91,11,1,,,,,,,,,,,,,,,,,,,,,,,,,,,,,,,,,,
,,,,,,,,,,,,,1,001,2025-01-02_14h44.36.597,IAT(Formal),2021.2.3,Win32,60.0024001,,,,,,,,,,,,,,,e,1,0.5332,,,,,,稳重,e,,,1,12,92,21,1,,,,,,,,,,,,,,,,,,,,,,,,,,,,,,,,,,
,,,,,,,,,,,,,1,001,2025-01-02_14h44.36.597,IAT(Formal),2021.2.3,Win32,60.0024001,,,,,,,,,,,,,,,i,1,0.6742,,,,,,虚伪,i,,,1,13,93,31,1,,,,,,,,,,,,,,,,,,,,,,,,,,,,,,,,,,
,,,,,,,,,,,,,1,001,2025-01-02_14h44.36.597,IAT(Formal),2021.2.3,Win32,60.0024001,,,,,,,,,,,,,,,e,1,0.6128,,,,,,我,e,,,1,14,94,60,1,,,,,,,,,,,,,,,,,,,,,,,,,,,,,,,,,,
,,,,,,,,,,,,,1,001,2025-01-02_14h44.36.597,IAT(Formal),2021.2.3,Win32,60.0024001,,,,,,,,,,,,,,,e,1,0.6479,,,,,,自己,e,,,1,15,95,3,1,,,,,,,,,,,,,,,,,,,,,,,,,,,,,,,,,,
,,,,,,,,,,,,,1,001,2025-01-02_14h44.36.597,IAT(Formal),2021.2.3,Win32,60.0024001,,,,,,,,,,,,,,,i,1,0.4585,,,,,,其他,i,,,1,16,96,9,1,,,,,,,,,,,,,,,,,,,,,,,,,,,,,,,,,,
,,,,,,,,,,,,,1,001,2025-01-02_14h44.36.597,IAT(Formal),2021.2.3,Win32,60.0024001,,,,,,,,,,,,,,,e,1,0.6505,,,,,,公正,e,,,1,17,97,23,1,,,,,,,,,,,,,,,,,,,,,,,,,,,,,,,,,,
,,,,,,,,,,,,,1,001,2025-01-02_14h44.36.597,IAT(Formal),2021.2.3,Win32,60.0024001,,,,,,,,,,,,,,,e,1,0.4522,,,,,,无私,e,,,1,18,98,22,1,,,,,,,,,,,,,,,,,,,,,,,,,,,,,,,,,,
,,,,,,,,,,,,,1,001,2025-01-02_14h44.36.597,IAT(Formal),2021.2.3,Win32,60.0024001,,,,,,,,,,,,,,,e,1,0.3676,,,,,,自己,e,,,1,19,99,73,1,,,,,,,,,,,,,,,,,,,,,,,,,,,,,,,,,,
,,,,,,,,,,,,,1,001,2025-01-02_14h44.36.597,IAT(Formal),2021.2.3,Win32,60.0024001,,,,,,,,,,,,,,,i,1,0.582,,,,,,鲁莽,i,,,1,20,100,38,1,,,,,,,,,,,,,,,,,,,,,,,,,,,,,,,,,,
,,,,,,,,,,,,,1,001,2025-01-02_14h44.36.597,IAT(Formal),2021.2.3,Win32,60.0024001,,,,,,,,,,,,,,,i,1,0.6859,,,,,,冒失,i,,,1,21,101,39,1,,,,,,,,,,,,,,,,,,,,,,,,,,,,,,,,,,
,,,,,,,,,,,,,1,001,2025-01-02_14h44.36.597,IAT(Formal),2021.2.3,Win32,60.0024001,,,,,,,,,,,,,,,e,1,0.4961,,,,,,我,e,,,1,22,102,70,1,,,,,,,,,,,,,,,,,,,,,,,,,,,,,,,,,,
,,,,,,,,,,,,,1,001,2025-01-02_14h44.36.597,IAT(Formal),2021.2.3,Win32,60.0024001,,,,,,,,,,,,,,,e,1,0.4633,,,,,,我的,e,,,1,23,103,51,1,,,,,,,,,,,,,,,,,,,,,,,,,,,,,,,,,,
,,,,,,,,,,,,,1,001,2025-01-02_14h44.36.597,IAT(Formal),2021.2.3,Win32,60.0024001,,,,,,,,,,,,,,,e,1,0.8457,,,,,,勇敢,e,,,1,24,104,17,1,,,,,,,,,,,,,,,,,,,,,,,,,,,,,,,,,,
,,,,,,,,,,,,,1,001,2025-01-02_14h44.36.597,IAT(Formal),2021.2.3,Win32,60.0024001,,,,,,,,,,,,,,,i,1,0.6961,,,,,,其他,i,,,1,25,105,69,1,,,,,,,,,,,,,,,,,,,,,,,,,,,,,,,,,,
,,,,,,,,,,,,,1,001,2025-01-02_14h44.36.597,IAT(Formal),2021.2.3,Win32,60.0024001,,,,,,,,,,,,,,,i,1,0.6042,,,,,,消极,i,,,1,26,106,35,1,,,,,,,,,,,,,,,,,,,,,,,,,,,,,,,,,,
,,,,,,,,,,,,,1,001,2025-01-02_14h44.36.597,IAT(Formal),2021.2.3,Win32,60.0024001,,,,,,,,,,,,,,,i,1,0.6355,,,,,,他的,i,,,1,27,107,57,1,,,,,,,,,,,,,,,,,,,,,,,,,,,,,,,,,,
,,,,,,,,,,,,,1,001,2025-01-02_14h44.36.597,IAT(Formal),2021.2.3,Win32,60.0024001,,,,,,,,,,,,,,,i,1,0.9496,,,,,,野蛮,i,,,1,28,108,46,1,,,,,,,,,,,,,,,,,,,,,,,,,,,,,,,,,,
,,,,,,,,,,,,,1,001,2025-01-02_14h44.36.597,IAT(Formal),2021.2.3,Win32,60.0024001,,,,,,,,,,,,,,,e,1,0.535,,,,,,自己,e,,,1,29,109,63,1,,,,,,,,,,,,,,,,,,,,,,,,,,,,,,,,,,
,,,,,,,,,,,,,1,001,2025-01-02_14h44.36.597,IAT(Formal),2021.2.3,Win32,60.0024001,,,,,,,,,,,,,,,e,1,0.6437,,,,,,活泼,e,,,1,30,110,28,1,,,,,,,,,,,,,,,,,,,,,,,,,,,,,,,,,,
,,,,,,,,,,,,,1,001,2025-01-02_14h44.36.597,IAT(Formal),2021.2.3,Win32,60.0024001,,,,,,,,,,,,,,,e,1,0.6617,,,,,,我,e,,,1,31,111,0,1,,,,,,,,,,,,,,,,,,,,,,,,,,,,,,,,,,
,,,,,,,,,,,,,1,001,2025-01-02_14h44.36.597,IAT(Formal),2021.2.3,Win32,60.0024001,,,,,,,,,,,,,,,e,0,0.7655,,,,,,傲慢,i,,,1,32,112,37,1,,,,,,,,,,,,,,,,,,,,,,,,,,,,,,,,,,
,,,,,,,,,,,,,1,001,2025-01-02_14h44.36.597,IAT(Formal),2021.2.3,Win32,60.0024001,,,,,,,,,,,,,,,i,1,0.4831,,,,,,他的,i,,,1,33,113,7,1,,,,,,,,,,,,,,,,,,,,,,,,,,,,,,,,,,
,,,,,,,,,,,,,1,001,2025-01-02_14h44.36.597,IAT(Formal),2021.2.3,Win32,60.0024001,,,,,,,,,,,,,,,e,1,0.5635,,,,,,我,e,,,1,34,114,50,1,,,,,,,,,,,,,,,,,,,,,,,,,,,,,,,,,,
,,,,,,,,,,,,,1,001,2025-01-02_14h44.36.597,IAT(Formal),2021.2.3,Win32,60.0024001,,,,,,,,,,,,,,,i,1,0.6132,,,,,,他,i,,,1,35,115,65,1,,,,,,,,,,,,,,,,,,,,,,,,,,,,,,,,,,
,,,,,,,,,,,,,1,001,2025-01-02_14h44.36.597,IAT(Formal),2021.2.3,Win32,60.0024001,,,,,,,,,,,,,,,e,1,0.6978,,,,,,俺,e,,,1,36,116,64,1,,,,,,,,,,,,,,,,,,,,,,,,,,,,,,,,,,
,,,,,,,,,,,,,1,001,2025-01-02_14h44.36.597,IAT(Formal),2021.2.3,Win32,60.0024001,,,,,,,,,,,,,,,i,1,0.6144,,,,,,轻率,i,,,1,37,117,48,1,,,,,,,,,,,,,,,,,,,,,,,,,,,,,,,,,,
,,,,,,,,,,,,,1,001,2025-01-02_14h44.36.597,IAT(Formal),2021.2.3,Win32,60.0024001,,,,,,,,,,,,,,,e,1,0.4336,,,,,,俺,e,,,1,38,118,4,1,,,,,,,,,,,,,,,,,,,,,,,,,,,,,,,,,,
,,,,,,,,,,,,,1,001,2025-01-02_14h44.36.597,IAT(Formal),2021.2.3,Win32,60.0024001,,,,,,,,,,,,,,,i,1,0.5331,,,,,,他人,i,,,1,39,119,58,1,,,,,,,,,,,,,,,,,,,,,,,,,,,,,,,,,,
,,,,,,,,,,,,,1,001,2025-01-02_14h44.36.597,IAT(Formal),2021.2.3,Win32,60.0024001,,,,,,,,,,,,,,,e,0,0.9233,,,,,,自私,i,,,1,40,120,43,1,,,,,,,,,,,,,,,,,,,,,,,,,,,,,,,,,,
,,,,,,,,,,,,,1,001,2025-01-02_14h44.36.597,IAT(Formal),2021.2.3,Win32,60.0024001,,,,,,,,,,,,,,,e,1,0.6564,,,,,,俺,e,,,1,41,121,54,1,,,,,,,,,,,,,,,,,,,,,,,,,,,,,,,,,,
,,,,,,,,,,,,,1,001,2025-01-02_14h44.36.597,IAT(Formal),2021.2.3,Win32,60.0024001,,,,,,,,,,,,,,,e,1,0.7096,,,,,,诚实,e,,,1,42,122,15,1,,,,,,,,,,,,,,,,,,,,,,,,,,,,,,,,,,
,,,,,,,,,,,,,1,001,2025-01-02_14h44.36.597,IAT(Formal),2021.2.3,Win32,60.0024001,,,,,,,,,,,,,,,e,0,0.499,,,,,,他的,i,,,1,43,123,77,1,,,,,,,,,,,,,,,,,,,,,,,,,,,,,,,,,,
,,,,,,,,,,,,,1,001,2025-01-02_14h44.36.597,IAT(Formal),2021.2.3,Win32,60.0024001,,,,,,,,,,,,,,,i,1,0.4327,,,,,,他们,i,,,1,44,124,76,1,,,,,,,,,,,,,,,,,,,,,,,,,,,,,,,,,,
,,,,,,,,,,,,,1,001,2025-01-02_14h44.36.597,IAT(Formal),2021.2.3,Win32,60.0024001,,,,,,,,,,,,,,,e,1,0.5736,,,,,,我的,e,,,1,45,125,1,1,,,,,,,,,,,,,,,,,,,,,,,,,,,,,,,,,,
,,,,,,,,,,,,,1,001,2025-01-02_14h44.36.597,IAT(Formal),2021.2.3,Win32,60.0024001,,,,,,,,,,,,,,,i,1,0.548,,,,,,凶狠,i,,,1,46,126,42,1,,,,,,,,,,,,,,,,,,,,,,,,,,,,,,,,,,
,,,,,,,,,,,,,1,001,2025-01-02_14h44.36.597,IAT(Formal),2021.2.3,Win32,60.0024001,,,,,,,,,,,,,,,i,1,0.5221,,,,,,自卑,i,,,1,47,127,36,1,,,,,,,,,,,,,,,,,,,,,,,,,,,,,,,,,,
,,,,,,,,,,,,,1,001,2025-01-02_14h44.36.597,IAT(Formal),2021.2.3,Win32,60.0024001,,,,,,,,,,,,,,,i,1,0.4651,,,,,,他人,i,,,1,48,128,78,1,,,,,,,,,,,,,,,,,,,,,,,,,,,,,,,,,,
,,,,,,,,,,,,,1,001,2025-01-02_14h44.36.597,IAT(Formal),2021.2.3,Win32,60.0024001,,,,,,,,,,,,,,,i,1,0.6313,,,,,,愚蠢,i,,,1,49,129,32,1,,,,,,,,,,,,,,,,,,,,,,,,,,,,,,,,,,
,,,,,,,,,,,,,1,001,2025-01-02_14h44.36.597,IAT(Formal),2021.2.3,Win32,60.0024001,,,,,,,,,,,,,,,e,1,0.634,,,,,,我们,e,,,1,50,130,2,1,,,,,,,,,,,,,,,,,,,,,,,,,,,,,,,,,,
,,,,,,,,,,,,,1,001,2025-01-02_14h44.36.597,IAT(Formal),2021.2.3,Win32,60.0024001,,,,,,,,,,,,,,,i,1,0.4509,,,,,,他们,i,,,1,51,131,56,1,,,,,,,,,,,,,,,,,,,,,,,,,,,,,,,,,,
,,,,,,,,,,,,,1,001,2025-01-02_14h44.36.597,IAT(Formal),2021.2.3,Win32,60.0024001,,,,,,,,,,,,,,,i,1,0.5413,,,,,,他们,i,,,1,52,132,6,1,,,,,,,,,,,,,,,,,,,,,,,,,,,,,,,,,,
,,,,,,,,,,,,,1,001,2025-01-02_14h44.36.597,IAT(Formal),2021.2.3,Win32,60.0024001,,,,,,,,,,,,,,,e,1,0.5082,,,,,,优秀,e,,,1,53,133,10,1,,,,,,,,,,,,,,,,,,,,,,,,,,,,,,,,,,
,,,,,,,,,,,,,1,001,2025-01-02_14h44.36.597,IAT(Formal),2021.2.3,Win32,60.0024001,,,,,,,,,,,,,,,e,1,0.5494,,,,,,我的,e,,,1,54,134,71,1,,,,,,,,,,,,,,,,,,,,,,,,,,,,,,,,,,
,,,,,,,,,,,,,1,001,2025-01-02_14h44.36.597,IAT(Formal),2021.2.3,Win32,60.0024001,,,,,,,,,,,,,,,e,1,0.8134,,,,,,冷静,e,,,1,55,135,26,1,,,,,,,,,,,,,,,,,,,,,,,,,,,,,,,,,,
,,,,,,,,,,,,,1,001,2025-01-02_14h44.36.597,IAT(Formal),2021.2.3,Win32,60.0024001,,,,,,,,,,,,,,,i,1,0.514,,,,,,他人,i,,,1,56,136,68,1,,,,,,,,,,,,,,,,,,,,,,,,,,,,,,,,,,
,,,,,,,,,,,,,1,001,2025-01-02_14h44.36.597,IAT(Formal),2021.2.3,Win32,60.0024001,,,,,,,,,,,,,,,i,1,0.6363,,,,,,暴躁,i,,,1,57,137,44,1,,,,,,,,,,,,,,,,,,,,,,,,,,,,,,,,,,
,,,,,,,,,,,,,1,001,2025-01-02_14h44.36.597,IAT(Formal),2021.2.3,Win32,60.0024001,,,,,,,,,,,,,,,,0,,,,,,,机智,e,,,1,58,138,19,1,,,,,,,,,,,,,,,,,,,,,,,,,,,,,,,,,,
,,,,,,,,,,,,,1,001,2025-01-02_14h44.36.597,IAT(Formal),2021.2.3,Win32,60.0024001,,,,,,,,,,,,,,,e,1,0.5949,,,,,,细腻,e,,,1,59,139,25,1,,,,,,,,,,,,,,,,,,,,,,,,,,,,,,,,,,
,,,,,,,,,,,,,1,001,2025-01-02_14h44.36.597,IAT(Formal),2021.2.3,Win32,60.0024001,,,,,,,,,,,,,,,e,0,0.4294,,,,,,猖狂,i,,,1,60,140,45,1,,,,,,,,,,,,,,,,,,,,,,,,,,,,,,,,,,
,,,,,,,,,,,,,1,001,2025-01-02_14h44.36.597,IAT(Formal),2021.2.3,Win32,60.0024001,,,,,,,,,,,,,,,i,0,0.467,,,,,,认真,e,,,1,61,141,20,1,,,,,,,,,,,,,,,,,,,,,,,,,,,,,,,,,,
,,,,,,,,,,,,,1,001,2025-01-02_14h44.36.597,IAT(Formal),2021.2.3,Win32,60.0024001,,,,,,,,,,,,,,,e,1,0.6654,,,,,,乐观,e,,,1,62,142,14,1,,,,,,,,,,,,,,,,,,,,,,,,,,,,,,,,,,
,,,,,,,,,,,,,1,001,2025-01-02_14h44.36.597,IAT(Formal),2021.2.3,Win32,60.0024001,,,,,,,,,,,,,,,e,1,0.5505,,,,,,俺,e,,,1,63,143,74,1,,,,,,,,,,,,,,,,,,,,,,,,,,,,,,,,,,
,,,,,,,,,,,,,1,001,2025-01-02_14h44.36.597,IAT(Formal),2021.2.3,Win32,60.0024001,,,,,,,,,,,,,,,i,1,0.5891,,,,,,他们,i,,,1,64,144,66,1,,,,,,,,,,,,,,,,,,,,,,,,,,,,,,,,,,
,,,,,,,,,,,,,1,001,2025-01-02_14h44.36.597,IAT(Formal),2021.2.3,Win32,60.0024001,,,,,,,,,,,,,,,i,1,0.6813,,,,,,他,i,,,1,65,145,5,1,,,,,,,,,,,,,,,,,,,,,,,,,,,,,,,,,,
,,,,,,,,,,,,,1,001,2025-01-02_14h44.36.597,IAT(Formal),2021.2.3,Win32,60.0024001,,,,,,,,,,,,,,,i,1,0.5888,,,,,,悲观,i,,,1,66,146,34,1,,,,,,,,,,,,,,,,,,,,,,,,,,,,,,,,,,
,,,,,,,,,,,,,1,001,2025-01-02_14h44.36.597,IAT(Formal),2021.2.3,Win32,60.0024001,,,,,,,,,,,,,,,e,1,0.5095,,,,,,自己,e,,,1,67,147,53,1,,,,,,,,,,,,,,,,,,,,,,,,,,,,,,,,,,
,,,,,,,,,,,,,1,001,2025-01-02_14h44.36.597,IAT(Formal),2021.2.3,Win32,60.0024001,,,,,,,,,,,,,,,i,1,0.8951,,,,,,固执,i,,,1,68,148,47,1,,,,,,,,,,,,,,,,,,,,,,,,,,,,,,,,,,
,,,,,,,,,,,,,1,001,2025-01-02_14h44.36.597,IAT(Formal),2021.2.3,Win32,60.0024001,,,,,,,,,,,,,,,e,1,0.4167,,,,,,我们,e,,,1,69,149,72,1,,,,,,,,,,,,,,,,,,,,,,,,,,,,,,,,,,
,,,,,,,,,,,,,1,001,2025-01-02_14h44.36.597,IAT(Formal),2021.2.3,Win32,60.0024001,,,,,,,,,,,,,,,e,1,0.4823,,,,,,我的,e,,,1,70,150,61,1,,,,,,,,,,,,,,,,,,,,,,,,,,,,,,,,,,
,,,,,,,,,,,,,1,001,2025-01-02_14h44.36.597,IAT(Formal),2021.2.3,Win32,60.0024001,,,,,,,,,,,,,,,e,1,0.6565,,,,,,聪明,e,,,1,71,151,12,1,,,,,,,,,,,,,,,,,,,,,,,,,,,,,,,,,,
,,,,,,,,,,,,,1,001,2025-01-02_14h44.36.597,IAT(Formal),2021.2.3,Win32,60.0024001,,,,,,,,,,,,,,,e,1,0.4673,,,,,,勤奋,e,,,1,72,152,18,1,,,,,,,,,,,,,,,,,,,,,,,,,,,,,,,,,,
,,,,,,,,,,,,,1,001,2025-01-02_14h44.36.597,IAT(Formal),2021.2.3,Win32,60.0024001,,,,,,,,,,,,,,,e,1,0.6624,,,,,,杰出,e,,,1,73,153,13,1,,,,,,,,,,,,,,,,,,,,,,,,,,,,,,,,,,
,,,,,,,,,,,,,1,001,2025-01-02_14h44.36.597,IAT(Formal),2021.2.3,Win32,60.0024001,,,,,,,,,,,,,,,e,1,0.4841,,,,,,我们,e,,,1,74,154,62,1,,,,,,,,,,,,,,,,,,,,,,,,,,,,,,,,,,
,,,,,,,,,,,,,1,001,2025-01-02_14h44.36.597,IAT(Formal),2021.2.3,Win32,60.0024001,,,,,,,,,,,,,,,i,1,0.5802,,,,,,他,i,,,1,75,155,55,1,,,,,,,,,,,,,,,,,,,,,,,,,,,,,,,,,,
,,,,,,,,,,,,,1,001,2025-01-02_14h44.36.597,IAT(Formal),2021.2.3,Win32,60.0024001,,,,,,,,,,,,,,,i,1,0.5513,,,,,,执拗,i,,,1,76,156,40,1,,,,,,,,,,,,,,,,,,,,,,,,,,,,,,,,,,
,,,,,,,,,,,,,1,001,2025-01-02_14h44.36.597,IAT(Formal),2021.2.3,Win32,60.0024001,,,,,,,,,,,,,,,e,1,0.7,,,,,,诚恳,e,,,1,77,157,29,1,,,,,,,,,,,,,,,,,,,,,,,,,,,,,,,,,,
,,,,,,,,,,,,,1,001,2025-01-02_14h44.36.597,IAT(Formal),2021.2.3,Win32,60.0024001,,,,,,,,,,,,,,,e,1,0.6218,,,,,,正直,e,,,1,78,158,16,1,,,,,,,,,,,,,,,,,,,,,,,,,,,,,,,,,,
,,,,,,,,,,,,,1,001,2025-01-02_14h44.36.597,IAT(Formal),2021.2.3,Win32,60.0024001,,,,,,,,,,,,,,,e,0,0.4456,,,,,,他人,i,,,1,79,159,8,1,,,,,,,,,,,,,,,,,,,,,,,,,,,,,,,,,,
,,,,,,,,,,,他们,e,1,001,2025-01-02_14h44.36.597,IAT(Formal),2021.2.3,Win32,60.0024001,,,,,,,,,,,,,,,,,,,,,,,,,,,,,,,,space,14.551,,0,0,0,0,6,1,,,,,,,,,,,,,,,,,,,,,,,,,
,,,,,,,,,,,我们,i,1,001,2025-01-02_14h44.36.597,IAT(Formal),2021.2.3,Win32,60.0024001,,,,,,,,,,,,,,,,,,,,,,,,,,,,,,,,,,i,1,0,1,1,2,1,0.9837,,,,,,,,,,,,,,,,,,,,,,,,
,,,,,,,,,,,他,e,1,001,2025-01-02_14h44.36.597,IAT(Formal),2021.2.3,Win32,60.0024001,,,,,,,,,,,,,,,,,,,,,,,,,,,,,,,,,,e,1,0,2,2,5,1,0.8046,,,,,,,,,,,,,,,,,,,,,,,,
,,,,,,,,,,,他人,e,1,001,2025-01-02_14h44.36.597,IAT(Formal),2021.2.3,Win32,60.0024001,,,,,,,,,,,,,,,,,,,,,,,,,,,,,,,,,,i,0,0,3,3,8,1,1.012,,,,,,,,,,,,,,,,,,,,,,,,
,,,,,,,,,,,俺,i,1,001,2025-01-02_14h44.36.597,IAT(Formal),2021.2.3,Win32,60.0024001,,,,,,,,,,,,,,,,,,,,,,,,,,,,,,,,,,i,1,0,4,4,4,1,0.7606,,,,,,,,,,,,,,,,,,,,,,,,
,,,,,,,,,,,他的,e,1,001,2025-01-02_14h44.36.597,IAT(Formal),2021.2.3,Win32,60.0024001,,,,,,,,,,,,,,,,,,,,,,,,,,,,,,,,,,e,1,0,5,5,7,1,0.6993,,,,,,,,,,,,,,,,,,,,,,,,
,,,,,,,,,,,自己,i,1,001,2025-01-02_14h44.36.597,IAT(Formal),2021.2.3,Win32,60.0024001,,,,,,,,,,,,,,,,,,,,,,,,,,,,,,,,,,i,1,0,6,6,3,1,0.5565,,,,,,,,,,,,,,,,,,,,,,,,
,,,,,,,,,,,我,i,1,001,2025-01-02_14h44.36.597,IAT(Formal),2021.2.3,Win32,60.0024001,,,,,,,,,,,,,,,,,,,,,,,,,,,,,,,,,,i,1,0,7,7,0,1,0.799,,,,,,,,,,,,,,,,,,,,,,,,
,,,,,,,,,,,其他,e,1,001,2025-01-02_14h44.36.597,IAT(Formal),2021.2.3,Win32,60.0024001,,,,,,,,,,,,,,,,,,,,,,,,,,,,,,,,,,e,1,0,8,8,9,1,0.7002,,,,,,,,,,,,,,,,,,,,,,,,
,,,,,,,,,,,我的,i,1,001,2025-01-02_14h44.36.597,IAT(Formal),2021.2.3,Win32,60.0024001,,,,,,,,,,,,,,,,,,,,,,,,,,,,,,,,,,i,1,0,9,9,1,1,0.5984,,,,,,,,,,,,,,,,,,,,,,,,
,,,,,,,,,,,,,1,001,2025-01-02_14h44.36.597,IAT(Formal),2021.2.3,Win32,60.0024001,,,,,,,,,,,,,,,,,,,,,,,,,,,,,,,,,,,,,,,,,,space,1.9972,i,0,0.9307,0,0,0,23,1,公正,e,,,,,,,,,,,,
,,,,,,,,,,,,,1,001,2025-01-02_14h44.36.597,IAT(Formal),2021.2.3,Win32,60.0024001,,,,,,,,,,,,,,,,,,,,,,,,,,,,,,,,,,,,,,,,,,,,e,1,0.7304,0,1,1,26,1,冷静,e,,,,,,,,,,,,
,,,,,,,,,,,,,1,001,2025-01-02_14h44.36.597,IAT(Formal),2021.2.3,Win32,60.0024001,,,,,,,,,,,,,,,,,,,,,,,,,,,,,,,,,,,,,,,,,,,,e,1,0.6224,0,2,2,12,1,聪明,e,,,,,,,,,,,,
,,,,,,,,,,,,,1,001,2025-01-02_14h44.36.597,IAT(Formal),2021.2.3,Win32,60.0024001,,,,,,,,,,,,,,,,,,,,,,,,,,,,,,,,,,,,,,,,,,,,,0,,0,3,3,22,1,无私,e,,,,,,,,,,,,
,,,,,,,,,,,,,1,001,2025-01-02_14h44.36.597,IAT(Formal),2021.2.3,Win32,60.0024001,,,,,,,,,,,,,,,,,,,,,,,,,,,,,,,,,,,,,,,,,,,,e,1,0.479,0,4,4,10,1,优秀,e,,,,,,,,,,,,
,,,,,,,,,,,,,1,001,2025-01-02_14h44.36.597,IAT(Formal),2021.2.3,Win32,60.0024001,,,,,,,,,,,,,,,,,,,,,,,,,,,,,,,,,,,,,,,,,,,,e,1,0.4239,0,5,5,24,1,朴实,e,,,,,,,,,,,,
,,,,,,,,,,,,,1,001,2025-01-02_14h44.36.597,IAT(Formal),2021.2.3,Win32,60.0024001,,,,,,,,,,,,,,,,,,,,,,,,,,,,,,,,,,,,,,,,,,,,e,0,0.4603,0,6,6,34,1,悲观,i,,,,,,,,,,,,
,,,,,,,,,,,,,1,001,2025-01-02_14h44.36.597,IAT(Formal),2021.2.3,Win32,60.0024001,,,,,,,,,,,,,,,,,,,,,,,,,,,,,,,,,,,,,,,,,,,,e,1,0.5097,0,7,7,68,1,他人,e,,,,,,,,,,,,
,,,,,,,,,,,,,1,001,2025-01-02_14h44.36.597,IAT(Formal),2021.2.3,Win32,60.0024001,,,,,,,,,,,,,,,,,,,,,,,,,,,,,,,,,,,,,,,,,,,,e,1,0.5382,0,8,8,78,1,他人,e,,,,,,,,,,,,
,,,,,,,,,,,,,1,001,2025-01-02_14h44.36.597,IAT(Formal),2021.2.3,Win32,60.0024001,,,,,,,,,,,,,,,,,,,,,,,,,,,,,,,,,,,,,,,,,,,,e,1,0.6827,0,9,9,25,1,细腻,e,,,,,,,,,,,,
,,,,,,,,,,,,,1,001,2025-01-02_14h44.36.597,IAT(Formal),2021.2.3,Win32,60.0024001,,,,,,,,,,,,,,,,,,,,,,,,,,,,,,,,,,,,,,,,,,,,i,0,0.8692,0,10,10,6,1,他们,e,,,,,,,,,,,,
,,,,,,,,,,,,,1,001,2025-01-02_14h44.36.597,IAT(Formal),2021.2.3,Win32,60.0024001,,,,,,,,,,,,,,,,,,,,,,,,,,,,,,,,,,,,,,,,,,,,i,1,1.0006,0,11,11,38,1,鲁莽,i,,,,,,,,,,,,
,,,,,,,,,,,,,1,001,2025-01-02_14h44.36.597,IAT(Formal),2021.2.3,Win32,60.0024001,,,,,,,,,,,,,,,,,,,,,,,,,,,,,,,,,,,,,,,,,,,,e,0,0.7142,0,12,12,1,1,我的,i,,,,,,,,,,,,
,,,,,,,,,,,,,1,001,2025-01-02_14h44.36.597,IAT(Formal),2021.2.3,Win32,60.0024001,,,,,,,,,,,,,,,,,,,,,,,,,,,,,,,,,,,,,,,,,,,,e,1,1.0157,0,13,13,69,1,其他,e,,,,,,,,,,,,
,,,,,,,,,,,,,1,001,2025-01-02_14h44.36.597,IAT(Formal),2021.2.3,Win32,60.0024001,,,,,,,,,,,,,,,,,,,,,,,,,,,,,,,,,,,,,,,,,,,,i,1,0.4865,0,14,14,0,1,我,i,,,,,,,,,,,,
,,,,,,,,,,,,,1,001,2025-01-02_14h44.36.597,IAT(Formal),2021.2.3,Win32,60.0024001,,,,,,,,,,,,,,,,,,,,,,,,,,,,,,,,,,,,,,,,,,,,e,1,1.1826,0,15,15,9,1,其他,e,,,,,,,,,,,,
,,,,,,,,,,,,,1,001,2025-01-02_14h44.36.597,IAT(Formal),2021.2.3,Win32,60.0024001,,,,,,,,,,,,,,,,,,,,,,,,,,,,,,,,,,,,,,,,,,,,i,0,0.7287,0,16,16,8,1,他人,e,,,,,,,,,,,,
,,,,,,,,,,,,,1,001,2025-01-02_14h44.36.597,IAT(Formal),2021.2.3,Win32,60.0024001,,,,,,,,,,,,,,,,,,,,,,,,,,,,,,,,,,,,,,,,,,,,e,1,0.7718,0,17,17,15,1,诚实,e,,,,,,,,,,,,
,,,,,,,,,,,,,1,001,2025-01-02_14h44.36.597,IAT(Formal),2021.2.3,Win32,60.0024001,,,,,,,,,,,,,,,,,,,,,,,,,,,,,,,,,,,,,,,,,,,,i,0,1.099,0,18,18,67,1,他的,e,,,,,,,,,,,,
,,,,,,,,,,,,,1,001,2025-01-02_14h44.36.597,IAT(Formal),2021.2.3,Win32,60.0024001,,,,,,,,,,,,,,,,,,,,,,,,,,,,,,,,,,,,,,,,,,,,e,0,0.4737,0,19,19,74,1,俺,i,,,,,,,,,,,,
,,,,,,,,,,,,,1,001,2025-01-02_14h44.36.597,IAT(Formal),2021.2.3,Win32,60.0024001,,,,,,,,,,,,,,,,,,,,,,,,,,,,,,,,,,,,,,,,,,,,i,1,0.7011,0,20,20,70,1,我,i,,,,,,,,,,,,
,,,,,,,,,,,,,1,001,2025-01-02_14h44.36.597,IAT(Formal),2021.2.3,Win32,60.0024001,,,,,,,,,,,,,,,,,,,,,,,,,,,,,,,,,,,,,,,,,,,,e,1,0.6683,0,21,21,77,1,他的,e,,,,,,,,,,,,
,,,,,,,,,,,,,1,001,2025-01-02_14h44.36.597,IAT(Formal),2021.2.3,Win32,60.0024001,,,,,,,,,,,,,,,,,,,,,,,,,,,,,,,,,,,,,,,,,,,,e,1,0.7969,0,22,22,18,1,勤奋,e,,,,,,,,,,,,
,,,,,,,,,,,,,1,001,2025-01-02_14h44.36.597,IAT(Formal),2021.2.3,Win32,60.0024001,,,,,,,,,,,,,,,,,,,,,,,,,,,,,,,,,,,,,,,,,,,,e,1,1.1397,0,23,23,7,1,他的,e,,,,,,,,,,,,
,,,,,,,,,,,,,1,001,2025-01-02_14h44.36.597,IAT(Formal),2021.2.3,Win32,60.0024001,,,,,,,,,,,,,,,,,,,,,,,,,,,,,,,,,,,,,,,,,,,,e,1,0.4936,0,24,24,66,1,他们,e,,,,,,,,,,,,
,,,,,,,,,,,,,1,001,2025-01-02_14h44.36.597,IAT(Formal),2021.2.3,Win32,60.0024001,,,,,,,,,,,,,,,,,,,,,,,,,,,,,,,,,,,,,,,,,,,,e,1,0.6211,0,25,25,28,1,活泼,e,,,,,,,,,,,,
,,,,,,,,,,,,,1,001,2025-01-02_14h44.36.597,IAT(Formal),2021.2.3,Win32,60.0024001,,,,,,,,,,,,,,,,,,,,,,,,,,,,,,,,,,,,,,,,,,,,e,1,0.566,0,26,26,21,1,稳重,e,,,,,,,,,,,,
,,,,,,,,,,,,,1,001,2025-01-02_14h44.36.597,IAT(Formal),2021.2.3,Win32,60.0024001,,,,,,,,,,,,,,,,,,,,,,,,,,,,,,,,,,,,,,,,,,,,e,0,0.515,0,27,27,46,1,野蛮,i,,,,,,,,,,,,
,,,,,,,,,,,,,1,001,2025-01-02_14h44.36.597,IAT(Formal),2021.2.3,Win32,60.0024001,,,,,,,,,,,,,,,,,,,,,,,,,,,,,,,,,,,,,,,,,,,,i,1,0.707,0,28,28,64,1,俺,i,,,,,,,,,,,,
,,,,,,,,,,,,,1,001,2025-01-02_14h44.36.597,IAT(Formal),2021.2.3,Win32,60.0024001,,,,,,,,,,,,,,,,,,,,,,,,,,,,,,,,,,,,,,,,,,,,i,1,1.0733,0,29,29,36,1,自卑,i,,,,,,,,,,,,
,,,,,,,,,,,,,1,001,2025-01-02_14h44.36.597,IAT(Formal),2021.2.3,Win32,60.0024001,,,,,,,,,,,,,,,,,,,,,,,,,,,,,,,,,,,,,,,,,,,,i,0,0.6481,0,30,30,59,1,其他,e,,,,,,,,,,,,
,,,,,,,,,,,,,1,001,2025-01-02_14h44.36.597,IAT(Formal),2021.2.3,Win32,60.0024001,,,,,,,,,,,,,,,,,,,,,,,,,,,,,,,,,,,,,,,,,,,,e,0,0.5739,0,31,31,52,1,我们,i,,,,,,,,,,,,
,,,,,,,,,,,,,1,001,2025-01-02_14h44.36.597,IAT(Formal),2021.2.3,Win32,60.0024001,,,,,,,,,,,,,,,,,,,,,,,,,,,,,,,,,,,,,,,,,,,,i,0,0.8008,0,32,32,65,1,他,e,,,,,,,,,,,,
,,,,,,,,,,,,,1,001,2025-01-02_14h44.36.597,IAT(Formal),2021.2.3,Win32,60.0024001,,,,,,,,,,,,,,,,,,,,,,,,,,,,,,,,,,,,,,,,,,,,i,1,1.0999,0,33,33,72,1,我们,i,,,,,,,,,,,,
,,,,,,,,,,,,,1,001,2025-01-02_14h44.36.597,IAT(Formal),2021.2.3,Win32,60.0024001,,,,,,,,,,,,,,,,,,,,,,,,,,,,,,,,,,,,,,,,,,,,i,1,1.0931,0,34,34,45,1,猖狂,i,,,,,,,,,,,,
,,,,,,,,,,,,,1,001,2025-01-02_14h44.36.597,IAT(Formal),2021.2.3,Win32,60.0024001,,,,,,,,,,,,,,,,,,,,,,,,,,,,,,,,,,,,,,,,,,,,e,1,1.1649,0,35,35,75,1,他,e,,,,,,,,,,,,
,,,,,,,,,,,,,1,001,2025-01-02_14h44.36.597,IAT(Formal),2021.2.3,Win32,60.0024001,,,,,,,,,,,,,,,,,,,,,,,,,,,,,,,,,,,,,,,,,,,,i,1,0.9371,0,36,36,49,1,下贱,i,,,,,,,,,,,,
,,,,,,,,,,,,,1,001,2025-01-02_14h44.36.597,IAT(Formal),2021.2.3,Win32,60.0024001,,,,,,,,,,,,,,,,,,,,,,,,,,,,,,,,,,,,,,,,,,,,i,1,0.6507,0,37,37,33,1,刻薄,i,,,,,,,,,,,,
,,,,,,,,,,,,,1,001,2025-01-02_14h44.36.597,IAT(Formal),2021.2.3,Win32,60.0024001,,,,,,,,,,,,,,,,,,,,,,,,,,,,,,,,,,,,,,,,,,,,e,1,0.8474,0,38,38,58,1,他人,e,,,,,,,,,,,,
,,,,,,,,,,,,,1,001,2025-01-02_14h44.36.597,IAT(Formal),2021.2.3,Win32,60.0024001,,,,,,,,,,,,,,,,,,,,,,,,,,,,,,,,,,,,,,,,,,,,i,1,0.7329,0,39,39,54,1,俺,i,,,,,,,,,,,,
,,,,,,,,,,,,,1,001,2025-01-02_14h44.36.597,IAT(Formal),2021.2.3,Win32,60.0024001,,,,,,,,,,,,,,,,,,,,,,,,,,,,,,,,,,,,,,,,,,,,e,1,0.9044,0,40,40,79,1,其他,e,,,,,,,,,,,,
,,,,,,,,,,,,,1,001,2025-01-02_14h44.36.597,IAT(Formal),2021.2.3,Win32,60.0024001,,,,,,,,,,,,,,,,,,,,,,,,,,,,,,,,,,,,,,,,,,,,i,1,0.7478,0,41,41,50,1,我,i,,,,,,,,,,,,
,,,,,,,,,,,,,1,001,2025-01-02_14h44.36.597,IAT(Formal),2021.2.3,Win32,60.0024001,,,,,,,,,,,,,,,,,,,,,,,,,,,,,,,,,,,,,,,,,,,,i,1,0.9005,0,42,42,31,1,虚伪,i,,,,,,,,,,,,
,,,,,,,,,,,,,1,001,2025-01-02_14h44.36.597,IAT(Formal),2021.2.3,Win32,60.0024001,,,,,,,,,,,,,,,,,,,,,,,,,,,,,,,,,,,,,,,,,,,,i,1,0.8467,0,43,43,61,1,我的,i,,,,,,,,,,,,
,,,,,,,,,,,,,1,001,2025-01-02_14h44.36.597,IAT(Formal),2021.2.3,Win32,60.0024001,,,,,,,,,,,,,,,,,,,,,,,,,,,,,,,,,,,,,,,,,,,,i,1,0.747,0,44,44,32,1,愚蠢,i,,,,,,,,,,,,
,,,,,,,,,,,,,1,001,2025-01-02_14h44.36.597,IAT(Formal),2021.2.3,Win32,60.0024001,,,,,,,,,,,,,,,,,,,,,,,,,,,,,,,,,,,,,,,,,,,,e,1,0.9328,0,45,45,29,1,诚恳,e,,,,,,,,,,,,
,,,,,,,,,,,,,1,001,2025-01-02_14h44.36.597,IAT(Formal),2021.2.3,Win32,60.0024001,,,,,,,,,,,,,,,,,,,,,,,,,,,,,,,,,,,,,,,,,,,,i,1,0.7914,0,46,46,35,1,消极,i,,,,,,,,,,,,
,,,,,,,,,,,,,1,001,2025-01-02_14h44.36.597,IAT(Formal),2021.2.3,Win32,60.0024001,,,,,,,,,,,,,,,,,,,,,,,,,,,,,,,,,,,,,,,,,,,,e,1,0.6741,0,47,47,57,1,他的,e,,,,,,,,,,,,
,,,,,,,,,,,,,1,001,2025-01-02_14h44.36.597,IAT(Formal),2021.2.3,Win32,60.0024001,,,,,,,,,,,,,,,,,,,,,,,,,,,,,,,,,,,,,,,,,,,,i,1,0.6974,0,48,48,53,1,自己,i,,,,,,,,,,,,
,,,,,,,,,,,,,1,001,2025-01-02_14h44.36.597,IAT(Formal),2021.2.3,Win32,60.0024001,,,,,,,,,,,,,,,,,,,,,,,,,,,,,,,,,,,,,,,,,,,,e,0,0.9297,0,49,49,63,1,自己,i,,,,,,,,,,,,
,,,,,,,,,,,,,1,001,2025-01-02_14h44.36.597,IAT(Formal),2021.2.3,Win32,60.0024001,,,,,,,,,,,,,,,,,,,,,,,,,,,,,,,,,,,,,,,,,,,,e,1,0.564,0,50,50,20,1,认真,e,,,,,,,,,,,,
,,,,,,,,,,,,,1,001,2025-01-02_14h44.36.597,IAT(Formal),2021.2.3,Win32,60.0024001,,,,,,,,,,,,,,,,,,,,,,,,,,,,,,,,,,,,,,,,,,,,e,0,0.6257,0,51,51,48,1,轻率,i,,,,,,,,,,,,
,,,,,,,,,,,,,1,001,2025-01-02_14h44.36.597,IAT(Formal),2021.2.3,Win32,60.0024001,,,,,,,,,,,,,,,,,,,,,,,,,,,,,,,,,,,,,,,,,,,,i,1,1.1396,0,52,52,40,1,执拗,i,,,,,,,,,,,,
,,,,,,,,,,,,,1,001,2025-01-02_14h44.36.597,IAT(Formal),2021.2.3,Win32,60.0024001,,,,,,,,,,,,,,,,,,,,,,,,,,,,,,,,,,,,,,,,,,,,i,1,0.6937,0,53,53,42,1,凶狠,i,,,,,,,,,,,,
,,,,,,,,,,,,,1,001,2025-01-02_14h44.36.597,IAT(Formal),2021.2.3,Win32,60.0024001,,,,,,,,,,,,,,,,,,,,,,,,,,,,,,,,,,,,,,,,,,,,i,1,0.5988,0,54,54,47,1,固执,i,,,,,,,,,,,,
,,,,,,,,,,,,,1,001,2025-01-02_14h44.36.597,IAT(Formal),2021.2.3,Win32,60.0024001,,,,,,,,,,,,,,,,,,,,,,,,,,,,,,,,,,,,,,,,,,,,i,1,0.6679,0,55,55,30,1,卑鄙,i,,,,,,,,,,,,
,,,,,,,,,,,,,1,001,2025-01-02_14h44.36.597,IAT(Formal),2021.2.3,Win32,60.0024001,,,,,,,,,,,,,,,,,,,,,,,,,,,,,,,,,,,,,,,,,,,,i,1,0.6082,0,56,56,37,1,傲慢,i,,,,,,,,,,,,
,,,,,,,,,,,,,1,001,2025-01-02_14h44.36.597,IAT(Formal),2021.2.3,Win32,60.0024001,,,,,,,,,,,,,,,,,,,,,,,,,,,,,,,,,,,,,,,,,,,,i,1,0.9026,0,57,57,3,1,自己,i,,,,,,,,,,,,
,,,,,,,,,,,,,1,001,2025-01-02_14h44.36.597,IAT(Formal),2021.2.3,Win32,60.0024001,,,,,,,,,,,,,,,,,,,,,,,,,,,,,,,,,,,,,,,,,,,,e,1,1.2508,0,58,58,27,1,热情,e,,,,,,,,,,,,
,,,,,,,,,,,,,1,001,2025-01-02_14h44.36.597,IAT(Formal),2021.2.3,Win32,60.0024001,,,,,,,,,,,,,,,,,,,,,,,,,,,,,,,,,,,,,,,,,,,,e,0,0.7122,0,59,59,73,1,自己,i,,,,,,,,,,,,
,,,,,,,,,,,,,1,001,2025-01-02_14h44.36.597,IAT(Formal),2021.2.3,Win32,60.0024001,,,,,,,,,,,,,,,,,,,,,,,,,,,,,,,,,,,,,,,,,,,,e,1,0.6101,0,60,60,16,1,正直,e,,,,,,,,,,,,
,,,,,,,,,,,,,1,001,2025-01-02_14h44.36.597,IAT(Formal),2021.2.3,Win32,60.0024001,,,,,,,,,,,,,,,,,,,,,,,,,,,,,,,,,,,,,,,,,,,,i,1,0.5655,0,61,61,44,1,暴躁,i,,,,,,,,,,,,
,,,,,,,,,,,,,1,001,2025-01-02_14h44.36.597,IAT(Formal),2021.2.3,Win32,60.0024001,,,,,,,,,,,,,,,,,,,,,,,,,,,,,,,,,,,,,,,,,,,,i,1,0.8681,0,62,62,62,1,我们,i,,,,,,,,,,,,
,,,,,,,,,,,,,1,001,2025-01-02_14h44.36.597,IAT(Formal),2021.2.3,Win32,60.0024001,,,,,,,,,,,,,,,,,,,,,,,,,,,,,,,,,,,,,,,,,,,,e,1,0.7503,0,63,63,17,1,勇敢,e,,,,,,,,,,,,
,,,,,,,,,,,,,1,001,2025-01-02_14h44.36.597,IAT(Formal),2021.2.3,Win32,60.0024001,,,,,,,,,,,,,,,,,,,,,,,,,,,,,,,,,,,,,,,,,,,,i,0,0.6983,0,64,64,19,1,机智,e,,,,,,,,,,,,
,,,,,,,,,,,,,1,001,2025-01-02_14h44.36.597,IAT(Formal),2021.2.3,Win32,60.0024001,,,,,,,,,,,,,,,,,,,,,,,,,,,,,,,,,,,,,,,,,,,,i,0,0.5882,0,65,65,56,1,他们,e,,,,,,,,,,,,
,,,,,,,,,,,,,1,001,2025-01-02_14h44.36.597,IAT(Formal),2021.2.3,Win32,60.0024001,,,,,,,,,,,,,,,,,,,,,,,,,,,,,,,,,,,,,,,,,,,,e,0,0.4765,0,66,66,51,1,我的,i,,,,,,,,,,,,
,,,,,,,,,,,,,1,001,2025-01-02_14h44.36.597,IAT(Formal),2021.2.3,Win32,60.0024001,,,,,,,,,,,,,,,,,,,,,,,,,,,,,,,,,,,,,,,,,,,,i,1,0.666,0,67,67,41,1,散漫,i,,,,,,,,,,,,
,,,,,,,,,,,,,1,001,2025-01-02_14h44.36.597,IAT(Formal),2021.2.3,Win32,60.0024001,,,,,,,,,,,,,,,,,,,,,,,,,,,,,,,,,,,,,,,,,,,,i,1,0.7336,0,68,68,4,1,俺,i,,,,,,,,,,,,
,,,,,,,,,,,,,1,001,2025-01-02_14h44.36.597,IAT(Formal),2021.2.3,Win32,60.0024001,,,,,,,,,,,,,,,,,,,,,,,,,,,,,,,,,,,,,,,,,,,,e,1,1.3298,0,69,69,13,1,杰出,e,,,,,,,,,,,,
,,,,,,,,,,,,,1,001,2025-01-02_14h44.36.597,IAT(Formal),2021.2.3,Win32,60.0024001,,,,,,,,,,,,,,,,,,,,,,,,,,,,,,,,,,,,,,,,,,,,e,1,0.847,0,70,70,11,1,崇高,e,,,,,,,,,,,,
,,,,,,,,,,,,,1,001,2025-01-02_14h44.36.597,IAT(Formal),2021.2.3,Win32,60.0024001,,,,,,,,,,,,,,,,,,,,,,,,,,,,,,,,,,,,,,,,,,,,i,0,0.4629,0,71,71,76,1,他们,e,,,,,,,,,,,,
,,,,,,,,,,,,,1,001,2025-01-02_14h44.36.597,IAT(Formal),2021.2.3,Win32,60.0024001,,,,,,,,,,,,,,,,,,,,,,,,,,,,,,,,,,,,,,,,,,,,e,1,0.4152,0,72,72,55,1,他,e,,,,,,,,,,,,
,,,,,,,,,,,,,1,001,2025-01-02_14h44.36.597,IAT(Formal),2021.2.3,Win32,60.0024001,,,,,,,,,,,,,,,,,,,,,,,,,,,,,,,,,,,,,,,,,,,,e,1,1.1632,0,73,73,14,1,乐观,e,,,,,,,,,,,,
,,,,,,,,,,,,,1,001,2025-01-02_14h44.36.597,IAT(Formal),2021.2.3,Win32,60.0024001,,,,,,,,,,,,,,,,,,,,,,,,,,,,,,,,,,,,,,,,,,,,e,0,0.4527,0,74,74,2,1,我们,i,,,,,,,,,,,,
,,,,,,,,,,,,,1,001,2025-01-02_14h44.36.597,IAT(Formal),2021.2.3,Win32,60.0024001,,,,,,,,,,,,,,,,,,,,,,,,,,,,,,,,,,,,,,,,,,,,e,1,0.6951,0,75,75,5,1,他,e,,,,,,,,,,,,
,,,,,,,,,,,,,1,001,2025-01-02_14h44.36.597,IAT(Formal),2021.2.3,Win32,60.0024001,,,,,,,,,,,,,,,,,,,,,,,,,,,,,,,,,,,,,,,,,,,,i,1,1.0003,0,76,76,43,1,自私,i,,,,,,,,,,,,
,,,,,,,,,,,,,1,001,2025-01-02_14h44.36.597,IAT(Formal),2021.2.3,Win32,60.0024001,,,,,,,,,,,,,,,,,,,,,,,,,,,,,,,,,,,,,,,,,,,,i,1,0.7659,0,77,77,39,1,冒失,i,,,,,,,,,,,,
,,,,,,,,,,,,,1,001,2025-01-02_14h44.36.597,IAT(Formal),2021.2.3,Win32,60.0024001,,,,,,,,,,,,,,,,,,,,,,,,,,,,,,,,,,,,,,,,,,,,e,0,0.4684,0,78,78,71,1,我的,i,,,,,,,,,,,,
,,,,,,,,,,,,,1,001,2025-01-02_14h44.36.597,IAT(Formal),2021.2.3,Win32,60.0024001,,,,,,,,,,,,,,,,,,,,,,,,,,,,,,,,,,,,,,,,,,,,i,1,0.4577,0,79,79,60,1,我,i,,,,,,,,,,,,
,,,,,,,,,,,,,1,001,2025-01-02_14h44.36.597,IAT(Formal),2021.2.3,Win32,60.0024001,,,,,,,,,,,,,,,,,,,,,,,,,,,,,,,,,,,,,,,,,,,,,,,,,,,,乐观,e,space,11.9301,e,1,0.8159,0,0,0,14,1,,
,,,,,,,,,,,,,1,001,2025-01-02_14h44.36.597,IAT(Formal),2021.2.3,Win32,60.0024001,,,,,,,,,,,,,,,,,,,,,,,,,,,,,,,,,,,,,,,,,,,,,,,,,,,,我们,i,,,i,1,0.9494,0,1,1,72,1,,
,,,,,,,,,,,,,1,001,2025-01-02_14h44.36.597,IAT(Formal),2021.2.3,Win32,60.0024001,,,,,,,,,,,,,,,,,,,,,,,,,,,,,,,,,,,,,,,,,,,,,,,,,,,,固执,i,,,i,1,0.6446,0,2,2,47,1,,
,,,,,,,,,,,,,1,001,2025-01-02_14h44.36.597,IAT(Formal),2021.2.3,Win32,60.0024001,,,,,,,,,,,,,,,,,,,,,,,,,,,,,,,,,,,,,,,,,,,,,,,,,,,,热情,e,,,i,0,0.6468,0,3,3,27,1,,
,,,,,,,,,,,,,1,001,2025-01-02_14h44.36.597,IAT(Formal),2021.2.3,Win32,60.0024001,,,,,,,,,,,,,,,,,,,,,,,,,,,,,,,,,,,,,,,,,,,,,,,,,,,,鲁莽,i,,,i,1,0.685,0,4,4,38,1,,
,,,,,,,,,,,,,1,001,2025-01-02_14h44.36.597,IAT(Formal),2021.2.3,Win32,60.0024001,,,,,,,,,,,,,,,,,,,,,,,,,,,,,,,,,,,,,,,,,,,,,,,,,,,,他的,e,,,e,1,0.8485,0,5,5,67,1,,
,,,,,,,,,,,,,1,001,2025-01-02_14h44.36.597,IAT(Formal),2021.2.3,Win32,60.0024001,,,,,,,,,,,,,,,,,,,,,,,,,,,,,,,,,,,,,,,,,,,,,,,,,,,,他们,e,,,e,1,0.983,0,6,6,76,1,,
,,,,,,,,,,,,,1,001,2025-01-02_14h44.36.597,IAT(Formal),2021.2.3,Win32,60.0024001,,,,,,,,,,,,,,,,,,,,,,,,,,,,,,,,,,,,,,,,,,,,,,,,,,,,他,e,,,e,1,0.6046,0,7,7,5,1,,
,,,,,,,,,,,,,1,001,2025-01-02_14h44.36.597,IAT(Formal),2021.2.3,Win32,60.0024001,,,,,,,,,,,,,,,,,,,,,,,,,,,,,,,,,,,,,,,,,,,,,,,,,,,,自己,i,,,i,1,0.856,0,8,8,3,1,,
,,,,,,,,,,,,,1,001,2025-01-02_14h44.36.597,IAT(Formal),2021.2.3,Win32,60.0024001,,,,,,,,,,,,,,,,,,,,,,,,,,,,,,,,,,,,,,,,,,,,,,,,,,,,公正,e,,,e,1,0.8484,0,9,9,23,1,,
,,,,,,,,,,,,,1,001,2025-01-02_14h44.36.597,IAT(Formal),2021.2.3,Win32,60.0024001,,,,,,,,,,,,,,,,,,,,,,,,,,,,,,,,,,,,,,,,,,,,,,,,,,,,其他,e,,,i,0,0.5862,0,10,10,79,1,,
,,,,,,,,,,,,,1,001,2025-01-02_14h44.36.597,IAT(Formal),2021.2.3,Win32,60.0024001,,,,,,,,,,,,,,,,,,,,,,,,,,,,,,,,,,,,,,,,,,,,,,,,,,,,刻薄,i,,,i,1,0.6802,0,11,11,33,1,,
,,,,,,,,,,,,,1,001,2025-01-02_14h44.36.597,IAT(Formal),2021.2.3,Win32,60.0024001,,,,,,,,,,,,,,,,,,,,,,,,,,,,,,,,,,,,,,,,,,,,,,,,,,,,他们,e,,,e,1,0.4934,0,12,12,66,1,,
,,,,,,,,,,,,,1,001,2025-01-02_14h44.36.597,IAT(Formal),2021.2.3,Win32,60.0024001,,,,,,,,,,,,,,,,,,,,,,,,,,,,,,,,,,,,,,,,,,,,,,,,,,,,我们,i,,,,0,,0,13,13,62,1,,
,,,,,,,,,,,,,1,001,2025-01-02_14h44.36.597,IAT(Formal),2021.2.3,Win32,60.0024001,,,,,,,,,,,,,,,,,,,,,,,,,,,,,,,,,,,,,,,,,,,,,,,,,,,,他们,e,,,e,1,0.7503,0,14,14,56,1,,
,,,,,,,,,,,,,1,001,2025-01-02_14h44.36.597,IAT(Formal),2021.2.3,Win32,60.0024001,,,,,,,,,,,,,,,,,,,,,,,,,,,,,,,,,,,,,,,,,,,,,,,,,,,,冷静,e,,,e,1,1.2657,0,15,15,26,1,,
,,,,,,,,,,,,,1,001,2025-01-02_14h44.36.597,IAT(Formal),2021.2.3,Win32,60.0024001,,,,,,,,,,,,,,,,,,,,,,,,,,,,,,,,,,,,,,,,,,,,,,,,,,,,我的,i,,,e,0,0.9386,0,16,16,71,1,,
,,,,,,,,,,,,,1,001,2025-01-02_14h44.36.597,IAT(Formal),2021.2.3,Win32,60.0024001,,,,,,,,,,,,,,,,,,,,,,,,,,,,,,,,,,,,,,,,,,,,,,,,,,,,猖狂,i,,,i,1,0.684,0,17,17,45,1,,
,,,,,,,,,,,,,1,001,2025-01-02_14h44.36.597,IAT(Formal),2021.2.3,Win32,60.0024001,,,,,,,,,,,,,,,,,,,,,,,,,,,,,,,,,,,,,,,,,,,,,,,,,,,,细腻,e,,,i,0,1.1002,0,18,18,25,1,,
,,,,,,,,,,,,,1,001,2025-01-02_14h44.36.597,IAT(Formal),2021.2.3,Win32,60.0024001,,,,,,,,,,,,,,,,,,,,,,,,,,,,,,,,,,,,,,,,,,,,,,,,,,,,朴实,e,,,e,1,0.5901,0,19,19,24,1,,
,,,,,,,,,,,,,1,001,2025-01-02_14h44.36.597,IAT(Formal),2021.2.3,Win32,60.0024001,,,,,,,,,,,,,,,,,,,,,,,,,,,,,,,,,,,,,,,,,,,,,,,,,,,,其他,e,,,e,1,0.7825,0,20,20,9,1,,
,,,,,,,,,,,,,1,001,2025-01-02_14h44.36.597,IAT(Formal),2021.2.3,Win32,60.0024001,,,,,,,,,,,,,,,,,,,,,,,,,,,,,,,,,,,,,,,,,,,,,,,,,,,,自私,i,,,i,1,0.8824,0,21,21,43,1,,
,,,,,,,,,,,,,1,001,2025-01-02_14h44.36.597,IAT(Formal),2021.2.3,Win32,60.0024001,,,,,,,,,,,,,,,,,,,,,,,,,,,,,,,,,,,,,,,,,,,,,,,,,,,,他的,e,,,e,1,0.8123,0,22,22,77,1,,
,,,,,,,,,,,,,1,001,2025-01-02_14h44.36.597,IAT(Formal),2021.2.3,Win32,60.0024001,,,,,,,,,,,,,,,,,,,,,,,,,,,,,,,,,,,,,,,,,,,,,,,,,,,,稳重,e,,,e,1,0.8576,0,23,23,21,1,,
,,,,,,,,,,,,,1,001,2025-01-02_14h44.36.597,IAT(Formal),2021.2.3,Win32,60.0024001,,,,,,,,,,,,,,,,,,,,,,,,,,,,,,,,,,,,,,,,,,,,,,,,,,,,勇敢,e,,,e,1,0.547,0,24,24,17,1,,
,,,,,,,,,,,,,1,001,2025-01-02_14h44.36.597,IAT(Formal),2021.2.3,Win32,60.0024001,,,,,,,,,,,,,,,,,,,,,,,,,,,,,,,,,,,,,,,,,,,,,,,,,,,,虚伪,i,,,i,1,0.7825,0,25,25,31,1,,
,,,,,,,,,,,,,1,001,2025-01-02_14h44.36.597,IAT(Formal),2021.2.3,Win32,60.0024001,,,,,,,,,,,,,,,,,,,,,,,,,,,,,,,,,,,,,,,,,,,,,,,,,,,,其他,e,,,e,1,0.9659,0,26,26,69,1,,
,,,,,,,,,,,,,1,001,2025-01-02_14h44.36.597,IAT(Formal),2021.2.3,Win32,60.0024001,,,,,,,,,,,,,,,,,,,,,,,,,,,,,,,,,,,,,,,,,,,,,,,,,,,,正直,e,,,e,1,0.8438,0,27,27,16,1,,
,,,,,,,,,,,,,1,001,2025-01-02_14h44.36.597,IAT(Formal),2021.2.3,Win32,60.0024001,,,,,,,,,,,,,,,,,,,,,,,,,,,,,,,,,,,,,,,,,,,,,,,,,,,,我们,i,,,i,1,0.698,0,28,28,52,1,,
,,,,,,,,,,,,,1,001,2025-01-02_14h44.36.597,IAT(Formal),2021.2.3,Win32,60.0024001,,,,,,,,,,,,,,,,,,,,,,,,,,,,,,,,,,,,,,,,,,,,,,,,,,,,他的,e,,,e,1,0.5799,0,29,29,7,1,,
,,,,,,,,,,,,,1,001,2025-01-02_14h44.36.597,IAT(Formal),2021.2.3,Win32,60.0024001,,,,,,,,,,,,,,,,,,,,,,,,,,,,,,,,,,,,,,,,,,,,,,,,,,,,我的,i,,,i,1,0.615,0,30,30,1,1,,
,,,,,,,,,,,,,1,001,2025-01-02_14h44.36.597,IAT(Formal),2021.2.3,Win32,60.0024001,,,,,,,,,,,,,,,,,,,,,,,,,,,,,,,,,,,,,,,,,,,,,,,,,,,,执拗,i,,,i,1,0.8203,0,31,31,40,1,,
,,,,,,,,,,,,,1,001,2025-01-02_14h44.36.597,IAT(Formal),2021.2.3,Win32,60.0024001,,,,,,,,,,,,,,,,,,,,,,,,,,,,,,,,,,,,,,,,,,,,,,,,,,,,他们,e,,,e,1,0.6804,0,32,32,6,1,,
,,,,,,,,,,,,,1,001,2025-01-02_14h44.36.597,IAT(Formal),2021.2.3,Win32,60.0024001,,,,,,,,,,,,,,,,,,,,,,,,,,,,,,,,,,,,,,,,,,,,,,,,,,,,自己,i,,,i,1,0.898,0,33,33,73,1,,
,,,,,,,,,,,,,1,001,2025-01-02_14h44.36.597,IAT(Formal),2021.2.3,Win32,60.0024001,,,,,,,,,,,,,,,,,,,,,,,,,,,,,,,,,,,,,,,,,,,,,,,,,,,,自己,i,,,i,1,0.5263,0,34,34,53,1,,
,,,,,,,,,,,,,1,001,2025-01-02_14h44.36.597,IAT(Formal),2021.2.3,Win32,60.0024001,,,,,,,,,,,,,,,,,,,,,,,,,,,,,,,,,,,,,,,,,,,,,,,,,,,,暴躁,i,,,i,1,0.8634,0,35,35,44,1,,
,,,,,,,,,,,,,1,001,2025-01-02_14h44.36.597,IAT(Formal),2021.2.3,Win32,60.0024001,,,,,,,,,,,,,,,,,,,,,,,,,,,,,,,,,,,,,,,,,,,,,,,,,,,,无私,e,,,e,1,1.0244,0,36,36,22,1,,
,,,,,,,,,,,,,1,001,2025-01-02_14h44.36.597,IAT(Formal),2021.2.3,Win32,60.0024001,,,,,,,,,,,,,,,,,,,,,,,,,,,,,,,,,,,,,,,,,,,,,,,,,,,,散漫,i,,,i,1,0.6341,0,37,37,41,1,,
,,,,,,,,,,,,,1,001,2025-01-02_14h44.36.597,IAT(Formal),2021.2.3,Win32,60.0024001,,,,,,,,,,,,,,,,,,,,,,,,,,,,,,,,,,,,,,,,,,,,,,,,,,,,俺,i,,,e,0,0.5625,0,38,38,54,1,,
,,,,,,,,,,,,,1,001,2025-01-02_14h44.36.597,IAT(Formal),2021.2.3,Win32,60.0024001,,,,,,,,,,,,,,,,,,,,,,,,,,,,,,,,,,,,,,,,,,,,,,,,,,,,勤奋,e,,,e,1,0.7579,0,39,39,18,1,,
,,,,,,,,,,,,,1,001,2025-01-02_14h44.36.597,IAT(Formal),2021.2.3,Win32,60.0024001,,,,,,,,,,,,,,,,,,,,,,,,,,,,,,,,,,,,,,,,,,,,,,,,,,,,傲慢,i,,,i,1,0.7755,0,40,40,37,1,,
,,,,,,,,,,,,,1,001,2025-01-02_14h44.36.597,IAT(Formal),2021.2.3,Win32,60.0024001,,,,,,,,,,,,,,,,,,,,,,,,,,,,,,,,,,,,,,,,,,,,,,,,,,,,我,i,,,i,1,1.1979,0,41,41,70,1,,
,,,,,,,,,,,,,1,001,2025-01-02_14h44.36.597,IAT(Formal),2021.2.3,Win32,60.0024001,,,,,,,,,,,,,,,,,,,,,,,,,,,,,,,,,,,,,,,,,,,,,,,,,,,,我的,i,,,i,1,0.7295,0,42,42,51,1,,
,,,,,,,,,,,,,1,001,2025-01-02_14h44.36.597,IAT(Formal),2021.2.3,Win32,60.0024001,,,,,,,,,,,,,,,,,,,,,,,,,,,,,,,,,,,,,,,,,,,,,,,,,,,,他人,e,,,e,1,0.5726,0,43,43,68,1,,
,,,,,,,,,,,,,1,001,2025-01-02_14h44.36.597,IAT(Formal),2021.2.3,Win32,60.0024001,,,,,,,,,,,,,,,,,,,,,,,,,,,,,,,,,,,,,,,,,,,,,,,,,,,,愚蠢,i,,,i,1,0.5811,0,44,44,32,1,,
,,,,,,,,,,,,,1,001,2025-01-02_14h44.36.597,IAT(Formal),2021.2.3,Win32,60.0024001,,,,,,,,,,,,,,,,,,,,,,,,,,,,,,,,,,,,,,,,,,,,,,,,,,,,认真,e,,,e,1,0.6768,0,45,45,20,1,,
,,,,,,,,,,,,,1,001,2025-01-02_14h44.36.597,IAT(Formal),2021.2.3,Win32,60.0024001,,,,,,,,,,,,,,,,,,,,,,,,,,,,,,,,,,,,,,,,,,,,,,,,,,,,他,e,,,e,1,0.8567,0,46,46,65,1,,
,,,,,,,,,,,,,1,001,2025-01-02_14h44.36.597,IAT(Formal),2021.2.3,Win32,60.0024001,,,,,,,,,,,,,,,,,,,,,,,,,,,,,,,,,,,,,,,,,,,,,,,,,,,,我,i,,,i,1,0.563,0,47,47,0,1,,
,,,,,,,,,,,,,1,001,2025-01-02_14h44.36.597,IAT(Formal),2021.2.3,Win32,60.0024001,,,,,,,,,,,,,,,,,,,,,,,,,,,,,,,,,,,,,,,,,,,,,,,,,,,,杰出,e,,,e,1,0.6175,0,48,48,13,1,,
,,,,,,,,,,,,,1,001,2025-01-02_14h44.36.597,IAT(Formal),2021.2.3,Win32,60.0024001,,,,,,,,,,,,,,,,,,,,,,,,,,,,,,,,,,,,,,,,,,,,,,,,,,,,消极,i,,,i,1,0.5631,0,49,49,35,1,,
,,,,,,,,,,,,,1,001,2025-01-02_14h44.36.597,IAT(Formal),2021.2.3,Win32,60.0024001,,,,,,,,,,,,,,,,,,,,,,,,,,,,,,,,,,,,,,,,,,,,,,,,,,,,优秀,e,,,e,1,0.6503,0,50,50,10,1,,
,,,,,,,,,,,,,1,001,2025-01-02_14h44.36.597,IAT(Formal),2021.2.3,Win32,60.0024001,,,,,,,,,,,,,,,,,,,,,,,,,,,,,,,,,,,,,,,,,,,,,,,,,,,,其他,e,,,i,0,0.502,0,51,51,59,1,,
,,,,,,,,,,,,,1,001,2025-01-02_14h44.36.597,IAT(Formal),2021.2.3,Win32,60.0024001,,,,,,,,,,,,,,,,,,,,,,,,,,,,,,,,,,,,,,,,,,,,,,,,,,,,机智,e,,,e,1,0.734,0,52,52,19,1,,
,,,,,,,,,,,,,1,001,2025-01-02_14h44.36.597,IAT(Formal),2021.2.3,Win32,60.0024001,,,,,,,,,,,,,,,,,,,,,,,,,,,,,,,,,,,,,,,,,,,,,,,,,,,,俺,i,,,i,1,0.5713,0,53,53,74,1,,
,,,,,,,,,,,,,1,001,2025-01-02_14h44.36.597,IAT(Formal),2021.2.3,Win32,60.0024001,,,,,,,,,,,,,,,,,,,,,,,,,,,,,,,,,,,,,,,,,,,,,,,,,,,,俺,i,,,i,1,0.702,0,54,54,64,1,,
,,,,,,,,,,,,,1,001,2025-01-02_14h44.36.597,IAT(Formal),2021.2.3,Win32,60.0024001,,,,,,,,,,,,,,,,,,,,,,,,,,,,,,,,,,,,,,,,,,,,,,,,,,,,他,e,,,i,0,0.4795,0,55,55,75,1,,
,,,,,,,,,,,,,1,001,2025-01-02_14h44.36.597,IAT(Formal),2021.2.3,Win32,60.0024001,,,,,,,,,,,,,,,,,,,,,,,,,,,,,,,,,,,,,,,,,,,,,,,,,,,,自卑,i,,,i,1,0.6643,0,56,56,36,1,,
,,,,,,,,,,,,,1,001,2025-01-02_14h44.36.597,IAT(Formal),2021.2.3,Win32,60.0024001,,,,,,,,,,,,,,,,,,,,,,,,,,,,,,,,,,,,,,,,,,,,,,,,,,,,崇高,e,,,e,1,0.5912,0,57,57,11,1,,
,,,,,,,,,,,,,1,001,2025-01-02_14h44.36.597,IAT(Formal),2021.2.3,Win32,60.0024001,,,,,,,,,,,,,,,,,,,,,,,,,,,,,,,,,,,,,,,,,,,,,,,,,,,,轻率,i,,,i,1,0.7476,0,58,58,48,1,,
,,,,,,,,,,,,,1,001,2025-01-02_14h44.36.597,IAT(Formal),2021.2.3,Win32,60.0024001,,,,,,,,,,,,,,,,,,,,,,,,,,,,,,,,,,,,,,,,,,,,,,,,,,,,自己,i,,,i,1,0.9413,0,59,59,63,1,,
,,,,,,,,,,,,,1,001,2025-01-02_14h44.36.597,IAT(Formal),2021.2.3,Win32,60.0024001,,,,,,,,,,,,,,,,,,,,,,,,,,,,,,,,,,,,,,,,,,,,,,,,,,,,卑鄙,i,,,i,1,0.7628,0,60,60,30,1,,
,,,,,,,,,,,,,1,001,2025-01-02_14h44.36.597,IAT(Formal),2021.2.3,Win32,60.0024001,,,,,,,,,,,,,,,,,,,,,,,,,,,,,,,,,,,,,,,,,,,,,,,,,,,,我的,i,,,i,1,0.8803,0,61,61,61,1,,
,,,,,,,,,,,,,1,001,2025-01-02_14h44.36.597,IAT(Formal),2021.2.3,Win32,60.0024001,,,,,,,,,,,,,,,,,,,,,,,,,,,,,,,,,,,,,,,,,,,,,,,,,,,,下贱,i,,,i,1,0.7493,0,62,62,49,1,,
,,,,,,,,,,,,,1,001,2025-01-02_14h44.36.597,IAT(Formal),2021.2.3,Win32,60.0024001,,,,,,,,,,,,,,,,,,,,,,,,,,,,,,,,,,,,,,,,,,,,,,,,,,,,诚恳,e,,,e,1,0.8497,0,63,63,29,1,,
,,,,,,,,,,,,,1,001,2025-01-02_14h44.36.597,IAT(Formal),2021.2.3,Win32,60.0024001,,,,,,,,,,,,,,,,,,,,,,,,,,,,,,,,,,,,,,,,,,,,,,,,,,,,野蛮,i,,,i,1,0.6977,0,64,64,46,1,,
,,,,,,,,,,,,,1,001,2025-01-02_14h44.36.597,IAT(Formal),2021.2.3,Win32,60.0024001,,,,,,,,,,,,,,,,,,,,,,,,,,,,,,,,,,,,,,,,,,,,,,,,,,,,俺,i,,,i,1,0.7982,0,65,65,4,1,,
,,,,,,,,,,,,,1,001,2025-01-02_14h44.36.597,IAT(Formal),2021.2.3,Win32,60.0024001,,,,,,,,,,,,,,,,,,,,,,,,,,,,,,,,,,,,,,,,,,,,,,,,,,,,我,i,,,e,0,0.9984,0,66,66,60,1,,
,,,,,,,,,,,,,1,001,2025-01-02_14h44.36.597,IAT(Formal),2021.2.3,Win32,60.0024001,,,,,,,,,,,,,,,,,,,,,,,,,,,,,,,,,,,,,,,,,,,,,,,,,,,,诚实,e,,,e,1,1.0639,0,67,67,15,1,,
,,,,,,,,,,,,,1,001,2025-01-02_14h44.36.597,IAT(Formal),2021.2.3,Win32,60.0024001,,,,,,,,,,,,,,,,,,,,,,,,,,,,,,,,,,,,,,,,,,,,,,,,,,,,我们,i,,,i,1,0.6505,0,68,68,2,1,,
,,,,,,,,,,,,,1,001,2025-01-02_14h44.36.597,IAT(Formal),2021.2.3,Win32,60.0024001,,,,,,,,,,,,,,,,,,,,,,,,,,,,,,,,,,,,,,,,,,,,,,,,,,,,聪明,e,,,e,1,0.6156,0,69,69,12,1,,
,,,,,,,,,,,,,1,001,2025-01-02_14h44.36.597,IAT(Formal),2021.2.3,Win32,60.0024001,,,,,,,,,,,,,,,,,,,,,,,,,,,,,,,,,,,,,,,,,,,,,,,,,,,,他人,e,,,e,1,1.1319,0,70,70,8,1,,
,,,,,,,,,,,,,1,001,2025-01-02_14h44.36.597,IAT(Formal),2021.2.3,Win32,60.0024001,,,,,,,,,,,,,,,,,,,,,,,,,,,,,,,,,,,,,,,,,,,,,,,,,,,,他,e,,,e,1,0.7311,0,71,71,55,1,,
,,,,,,,,,,,,,1,001,2025-01-02_14h44.36.597,IAT(Formal),2021.2.3,Win32,60.0024001,,,,,,,,,,,,,,,,,,,,,,,,,,,,,,,,,,,,,,,,,,,,,,,,,,,,他的,e,,,e,1,0.9331,0,72,72,57,1,,
,,,,,,,,,,,,,1,001,2025-01-02_14h44.36.597,IAT(Formal),2021.2.3,Win32,60.0024001,,,,,,,,,,,,,,,,,,,,,,,,,,,,,,,,,,,,,,,,,,,,,,,,,,,,活泼,e,,,e,1,0.7796,0,73,73,28,1,,
,,,,,,,,,,,,,1,001,2025-01-02_14h44.36.597,IAT(Formal),2021.2.3,Win32,60.0024001,,,,,,,,,,,,,,,,,,,,,,,,,,,,,,,,,,,,,,,,,,,,,,,,,,,,我,i,,,i,1,0.7679,0,74,74,50,1,,
,,,,,,,,,,,,,1,001,2025-01-02_14h44.36.597,IAT(Formal),2021.2.3,Win32,60.0024001,,,,,,,,,,,,,,,,,,,,,,,,,,,,,,,,,,,,,,,,,,,,,,,,,,,,悲观,i,,,i,1,0.7012,0,75,75,34,1,,
,,,,,,,,,,,,,1,001,2025-01-02_14h44.36.597,IAT(Formal),2021.2.3,Win32,60.0024001,,,,,,,,,,,,,,,,,,,,,,,,,,,,,,,,,,,,,,,,,,,,,,,,,,,,他人,e,,,i,0,0.741,0,76,76,78,1,,
,,,,,,,,,,,,,1,001,2025-01-02_14h44.36.597,IAT(Formal),2021.2.3,Win32,60.0024001,,,,,,,,,,,,,,,,,,,,,,,,,,,,,,,,,,,,,,,,,,,,,,,,,,,,他人,e,,,e,1,0.7003,0,77,77,58,1,,
,,,,,,,,,,,,,1,001,2025-01-02_14h44.36.597,IAT(Formal),2021.2.3,Win32,60.0024001,,,,,,,,,,,,,,,,,,,,,,,,,,,,,,,,,,,,,,,,,,,,,,,,,,,,凶狠,i,,,i,1,0.7045,0,78,78,42,1,,
,,,,,,,,,,,,,1,001,2025-01-02_14h44.36.597,IAT(Formal),2021.2.3,Win32,60.0024001,,,,,,,,,,,,,,,,,,,,,,,,,,,,,,,,,,,,,,,,,,,,,,,,,,,,冒失,i,,,i,1,0.6344,0,79,79,39,1,,
,,,,,,,,,,,,,1,001,2025-01-02_14h44.36.597,IAT(Formal),2021.2.3,Win32,60.0024001,,,,,,,,,,,,,,,,,,,,,,,,,,,,,,,,,,,,,,,,,,,,,,,,,,,,他的,e,,,i,0,0.8558,1,0,80,7,1,,
,,,,,,,,,,,,,1,001,2025-01-02_14h44.36.597,IAT(Formal),2021.2.3,Win32,60.0024001,,,,,,,,,,,,,,,,,,,,,,,,,,,,,,,,,,,,,,,,,,,,,,,,,,,,他们,e,,,e,1,0.4833,1,1,81,76,1,,
,,,,,,,,,,,,,1,001,2025-01-02_14h44.36.597,IAT(Formal),2021.2.3,Win32,60.0024001,,,,,,,,,,,,,,,,,,,,,,,,,,,,,,,,,,,,,,,,,,,,,,,,,,,,聪明,e,,,e,1,0.0794,1,2,82,12,1,,
,,,,,,,,,,,,,1,001,2025-01-02_14h44.36.597,IAT(Formal),2021.2.3,Win32,60.0024001,,,,,,,,,,,,,,,,,,,,,,,,,,,,,,,,,,,,,,,,,,,,,,,,,,,,我们,i,,,i,1,0.6315,1,3,83,52,1,,
,,,,,,,,,,,,,1,001,2025-01-02_14h44.36.597,IAT(Formal),2021.2.3,Win32,60.0024001,,,,,,,,,,,,,,,,,,,,,,,,,,,,,,,,,,,,,,,,,,,,,,,,,,,,正直,e,,,i,0,0.6733,1,4,84,16,1,,
,,,,,,,,,,,,,1,001,2025-01-02_14h44.36.597,IAT(Formal),2021.2.3,Win32,60.0024001,,,,,,,,,,,,,,,,,,,,,,,,,,,,,,,,,,,,,,,,,,,,,,,,,,,,刻薄,i,,,i,1,0.6487,1,5,85,33,1,,
,,,,,,,,,,,,,1,001,2025-01-02_14h44.36.597,IAT(Formal),2021.2.3,Win32,60.0024001,,,,,,,,,,,,,,,,,,,,,,,,,,,,,,,,,,,,,,,,,,,,,,,,,,,,我们,i,,,e,0,0.9117,1,6,86,62,1,,
,,,,,,,,,,,,,1,001,2025-01-02_14h44.36.597,IAT(Formal),2021.2.3,Win32,60.0024001,,,,,,,,,,,,,,,,,,,,,,,,,,,,,,,,,,,,,,,,,,,,,,,,,,,,勇敢,e,,,e,1,0.667,1,7,87,17,1,,
,,,,,,,,,,,,,1,001,2025-01-02_14h44.36.597,IAT(Formal),2021.2.3,Win32,60.0024001,,,,,,,,,,,,,,,,,,,,,,,,,,,,,,,,,,,,,,,,,,,,,,,,,,,,俺,i,,,i,1,0.8344,1,8,88,74,1,,
,,,,,,,,,,,,,1,001,2025-01-02_14h44.36.597,IAT(Formal),2021.2.3,Win32,60.0024001,,,,,,,,,,,,,,,,,,,,,,,,,,,,,,,,,,,,,,,,,,,,,,,,,,,,认真,e,,,e,1,0.8247,1,9,89,20,1,,
,,,,,,,,,,,,,1,001,2025-01-02_14h44.36.597,IAT(Formal),2021.2.3,Win32,60.0024001,,,,,,,,,,,,,,,,,,,,,,,,,,,,,,,,,,,,,,,,,,,,,,,,,,,,细腻,e,,,e,1,0.7566,1,10,90,25,1,,
,,,,,,,,,,,,,1,001,2025-01-02_14h44.36.597,IAT(Formal),2021.2.3,Win32,60.0024001,,,,,,,,,,,,,,,,,,,,,,,,,,,,,,,,,,,,,,,,,,,,,,,,,,,,勤奋,e,,,e,1,0.7547,1,11,91,18,1,,
,,,,,,,,,,,,,1,001,2025-01-02_14h44.36.597,IAT(Formal),2021.2.3,Win32,60.0024001,,,,,,,,,,,,,,,,,,,,,,,,,,,,,,,,,,,,,,,,,,,,,,,,,,,,散漫,i,,,e,0,0.4808,1,12,92,41,1,,
,,,,,,,,,,,,,1,001,2025-01-02_14h44.36.597,IAT(Formal),2021.2.3,Win32,60.0024001,,,,,,,,,,,,,,,,,,,,,,,,,,,,,,,,,,,,,,,,,,,,,,,,,,,,他们,e,,,i,0,0.5484,1,13,93,56,1,,
,,,,,,,,,,,,,1,001,2025-01-02_14h44.36.597,IAT(Formal),2021.2.3,Win32,60.0024001,,,,,,,,,,,,,,,,,,,,,,,,,,,,,,,,,,,,,,,,,,,,,,,,,,,,自己,i,,,i,1,0.6973,1,14,94,53,1,,
,,,,,,,,,,,,,1,001,2025-01-02_14h44.36.597,IAT(Formal),2021.2.3,Win32,60.0024001,,,,,,,,,,,,,,,,,,,,,,,,,,,,,,,,,,,,,,,,,,,,,,,,,,,,我,i,,,i,1,0.8693,1,15,95,50,1,,
,,,,,,,,,,,,,1,001,2025-01-02_14h44.36.597,IAT(Formal),2021.2.3,Win32,60.0024001,,,,,,,,,,,,,,,,,,,,,,,,,,,,,,,,,,,,,,,,,,,,,,,,,,,,他人,e,,,e,1,0.7492,1,16,96,8,1,,
,,,,,,,,,,,,,1,001,2025-01-02_14h44.36.597,IAT(Formal),2021.2.3,Win32,60.0024001,,,,,,,,,,,,,,,,,,,,,,,,,,,,,,,,,,,,,,,,,,,,,,,,,,,,傲慢,i,,,e,0,0.7966,1,17,97,37,1,,
,,,,,,,,,,,,,1,001,2025-01-02_14h44.36.597,IAT(Formal),2021.2.3,Win32,60.0024001,,,,,,,,,,,,,,,,,,,,,,,,,,,,,,,,,,,,,,,,,,,,,,,,,,,,我,i,,,i,1,0.6285,1,18,98,60,1,,
,,,,,,,,,,,,,1,001,2025-01-02_14h44.36.597,IAT(Formal),2021.2.3,Win32,60.0024001,,,,,,,,,,,,,,,,,,,,,,,,,,,,,,,,,,,,,,,,,,,,,,,,,,,,自己,i,,,i,1,1.2975,1,19,99,63,1,,
,,,,,,,,,,,,,1,001,2025-01-02_14h44.36.597,IAT(Formal),2021.2.3,Win32,60.0024001,,,,,,,,,,,,,,,,,,,,,,,,,,,,,,,,,,,,,,,,,,,,,,,,,,,,崇高,e,,,e,1,0.7713,1,20,100,11,1,,
,,,,,,,,,,,,,1,001,2025-01-02_14h44.36.597,IAT(Formal),2021.2.3,Win32,60.0024001,,,,,,,,,,,,,,,,,,,,,,,,,,,,,,,,,,,,,,,,,,,,,,,,,,,,我,i,,,i,1,0.7951,1,21,101,70,1,,
,,,,,,,,,,,,,1,001,2025-01-02_14h44.36.597,IAT(Formal),2021.2.3,Win32,60.0024001,,,,,,,,,,,,,,,,,,,,,,,,,,,,,,,,,,,,,,,,,,,,,,,,,,,,我的,i,,,i,1,0.8843,1,22,102,61,1,,
,,,,,,,,,,,,,1,001,2025-01-02_14h44.36.597,IAT(Formal),2021.2.3,Win32,60.0024001,,,,,,,,,,,,,,,,,,,,,,,,,,,,,,,,,,,,,,,,,,,,,,,,,,,,他,e,,,e,1,0.5829,1,23,103,75,1,,
,,,,,,,,,,,,,1,001,2025-01-02_14h44.36.597,IAT(Formal),2021.2.3,Win32,60.0024001,,,,,,,,,,,,,,,,,,,,,,,,,,,,,,,,,,,,,,,,,,,,,,,,,,,,稳重,e,,,e,1,0.7502,1,24,104,21,1,,
,,,,,,,,,,,,,1,001,2025-01-02_14h44.36.597,IAT(Formal),2021.2.3,Win32,60.0024001,,,,,,,,,,,,,,,,,,,,,,,,,,,,,,,,,,,,,,,,,,,,,,,,,,,,俺,i,,,e,0,0.5794,1,25,105,4,1,,
,,,,,,,,,,,,,1,001,2025-01-02_14h44.36.597,IAT(Formal),2021.2.3,Win32,60.0024001,,,,,,,,,,,,,,,,,,,,,,,,,,,,,,,,,,,,,,,,,,,,,,,,,,,,公正,e,,,e,1,0.6017,1,26,106,23,1,,
,,,,,,,,,,,,,1,001,2025-01-02_14h44.36.597,IAT(Formal),2021.2.3,Win32,60.0024001,,,,,,,,,,,,,,,,,,,,,,,,,,,,,,,,,,,,,,,,,,,,,,,,,,,,愚蠢,i,,,i,1,1.0031,1,27,107,32,1,,
,,,,,,,,,,,,,1,001,2025-01-02_14h44.36.597,IAT(Formal),2021.2.3,Win32,60.0024001,,,,,,,,,,,,,,,,,,,,,,,,,,,,,,,,,,,,,,,,,,,,,,,,,,,,优秀,e,,,e,1,0.628,1,28,108,10,1,,
,,,,,,,,,,,,,1,001,2025-01-02_14h44.36.597,IAT(Formal),2021.2.3,Win32,60.0024001,,,,,,,,,,,,,,,,,,,,,,,,,,,,,,,,,,,,,,,,,,,,,,,,,,,,他人,e,,,e,1,1.1519,1,29,109,78,1,,
,,,,,,,,,,,,,1,001,2025-01-02_14h44.36.597,IAT(Formal),2021.2.3,Win32,60.0024001,,,,,,,,,,,,,,,,,,,,,,,,,,,,,,,,,,,,,,,,,,,,,,,,,,,,他,e,,,e,1,0.8667,1,30,110,5,1,,
,,,,,,,,,,,,,1,001,2025-01-02_14h44.36.597,IAT(Formal),2021.2.3,Win32,60.0024001,,,,,,,,,,,,,,,,,,,,,,,,,,,,,,,,,,,,,,,,,,,,,,,,,,,,我的,i,,,i,1,0.8325,1,31,111,1,1,,
,,,,,,,,,,,,,1,001,2025-01-02_14h44.36.597,IAT(Formal),2021.2.3,Win32,60.0024001,,,,,,,,,,,,,,,,,,,,,,,,,,,,,,,,,,,,,,,,,,,,,,,,,,,,乐观,e,,,e,1,0.851,1,32,112,14,1,,
,,,,,,,,,,,,,1,001,2025-01-02_14h44.36.597,IAT(Formal),2021.2.3,Win32,60.0024001,,,,,,,,,,,,,,,,,,,,,,,,,,,,,,,,,,,,,,,,,,,,,,,,,,,,无私,e,,,e,1,1.067,1,33,113,22,1,,
,,,,,,,,,,,,,1,001,2025-01-02_14h44.36.597,IAT(Formal),2021.2.3,Win32,60.0024001,,,,,,,,,,,,,,,,,,,,,,,,,,,,,,,,,,,,,,,,,,,,,,,,,,,,他,e,,,e,1,0.9197,1,34,114,55,1,,
,,,,,,,,,,,,,1,001,2025-01-02_14h44.36.597,IAT(Formal),2021.2.3,Win32,60.0024001,,,,,,,,,,,,,,,,,,,,,,,,,,,,,,,,,,,,,,,,,,,,,,,,,,,,诚恳,e,,,e,1,0.5465,1,35,115,29,1,,
,,,,,,,,,,,,,1,001,2025-01-02_14h44.36.597,IAT(Formal),2021.2.3,Win32,60.0024001,,,,,,,,,,,,,,,,,,,,,,,,,,,,,,,,,,,,,,,,,,,,,,,,,,,,热情,e,,,e,1,0.6493,1,36,116,27,1,,
,,,,,,,,,,,,,1,001,2025-01-02_14h44.36.597,IAT(Formal),2021.2.3,Win32,60.0024001,,,,,,,,,,,,,,,,,,,,,,,,,,,,,,,,,,,,,,,,,,,,,,,,,,,,轻率,i,,,e,0,0.5765,1,37,117,48,1,,
,,,,,,,,,,,,,1,001,2025-01-02_14h44.36.597,IAT(Formal),2021.2.3,Win32,60.0024001,,,,,,,,,,,,,,,,,,,,,,,,,,,,,,,,,,,,,,,,,,,,,,,,,,,,鲁莽,i,,,i,1,0.5329,1,38,118,38,1,,
,,,,,,,,,,,,,1,001,2025-01-02_14h44.36.597,IAT(Formal),2021.2.3,Win32,60.0024001,,,,,,,,,,,,,,,,,,,,,,,,,,,,,,,,,,,,,,,,,,,,,,,,,,,,俺,i,,,i,1,0.8006,1,39,119,64,1,,
,,,,,,,,,,,,,1,001,2025-01-02_14h44.36.597,IAT(Formal),2021.2.3,Win32,60.0024001,,,,,,,,,,,,,,,,,,,,,,,,,,,,,,,,,,,,,,,,,,,,,,,,,,,,其他,e,,,i,0,0.6946,1,40,120,69,1,,
,,,,,,,,,,,,,1,001,2025-01-02_14h44.36.597,IAT(Formal),2021.2.3,Win32,60.0024001,,,,,,,,,,,,,,,,,,,,,,,,,,,,,,,,,,,,,,,,,,,,,,,,,,,,自己,i,,,i,1,0.899,1,41,121,3,1,,
,,,,,,,,,,,,,1,001,2025-01-02_14h44.36.597,IAT(Formal),2021.2.3,Win32,60.0024001,,,,,,,,,,,,,,,,,,,,,,,,,,,,,,,,,,,,,,,,,,,,,,,,,,,,其他,e,,,e,1,0.6969,1,42,122,59,1,,
,,,,,,,,,,,,,1,001,2025-01-02_14h44.36.597,IAT(Formal),2021.2.3,Win32,60.0024001,,,,,,,,,,,,,,,,,,,,,,,,,,,,,,,,,,,,,,,,,,,,,,,,,,,,固执,i,,,i,1,0.748,1,43,123,47,1,,
,,,,,,,,,,,,,1,001,2025-01-02_14h44.36.597,IAT(Formal),2021.2.3,Win32,60.0024001,,,,,,,,,,,,,,,,,,,,,,,,,,,,,,,,,,,,,,,,,,,,,,,,,,,,其他,e,,,e,1,0.684,1,44,124,9,1,,
,,,,,,,,,,,,,1,001,2025-01-02_14h44.36.597,IAT(Formal),2021.2.3,Win32,60.0024001,,,,,,,,,,,,,,,,,,,,,,,,,,,,,,,,,,,,,,,,,,,,,,,,,,,,自己,i,,,i,1,0.5475,1,45,125,73,1,,
,,,,,,,,,,,,,1,001,2025-01-02_14h44.36.597,IAT(Formal),2021.2.3,Win32,60.0024001,,,,,,,,,,,,,,,,,,,,,,,,,,,,,,,,,,,,,,,,,,,,,,,,,,,,暴躁,i,,,i,1,0.7509,1,46,126,44,1,,
,,,,,,,,,,,,,1,001,2025-01-02_14h44.36.597,IAT(Formal),2021.2.3,Win32,60.0024001,,,,,,,,,,,,,,,,,,,,,,,,,,,,,,,,,,,,,,,,,,,,,,,,,,,,我的,i,,,i,1,1.3003,1,47,127,51,1,,
,,,,,,,,,,,,,1,001,2025-01-02_14h44.36.597,IAT(Formal),2021.2.3,Win32,60.0024001,,,,,,,,,,,,,,,,,,,,,,,,,,,,,,,,,,,,,,,,,,,,,,,,,,,,执拗,i,,,i,1,0.5629,1,48,128,40,1,,
,,,,,,,,,,,,,1,001,2025-01-02_14h44.36.597,IAT(Formal),2021.2.3,Win32,60.0024001,,,,,,,,,,,,,,,,,,,,,,,,,,,,,,,,,,,,,,,,,,,,,,,,,,,,猖狂,i,,,i,1,0.5807,1,49,129,45,1,,
,,,,,,,,,,,,,1,001,2025-01-02_14h44.36.597,IAT(Formal),2021.2.3,Win32,60.0024001,,,,,,,,,,,,,,,,,,,,,,,,,,,,,,,,,,,,,,,,,,,,,,,,,,,,凶狠,i,,,i,1,0.4922,1,50,130,42,1,,
,,,,,,,,,,,,,1,001,2025-01-02_14h44.36.597,IAT(Formal),2021.2.3,Win32,60.0024001,,,,,,,,,,,,,,,,,,,,,,,,,,,,,,,,,,,,,,,,,,,,,,,,,,,,我的,i,,,i,1,0.9495,1,51,131,71,1,,
,,,,,,,,,,,,,1,001,2025-01-02_14h44.36.597,IAT(Formal),2021.2.3,Win32,60.0024001,,,,,,,,,,,,,,,,,,,,,,,,,,,,,,,,,,,,,,,,,,,,,,,,,,,,他的,e,,,e,1,0.6461,1,52,132,77,1,,
,,,,,,,,,,,,,1,001,2025-01-02_14h44.36.597,IAT(Formal),2021.2.3,Win32,60.0024001,,,,,,,,,,,,,,,,,,,,,,,,,,,,,,,,,,,,,,,,,,,,,,,,,,,,自卑,i,,,i,1,0.6164,1,53,133,36,1,,
,,,,,,,,,,,,,1,001,2025-01-02_14h44.36.597,IAT(Formal),2021.2.3,Win32,60.0024001,,,,,,,,,,,,,,,,,,,,,,,,,,,,,,,,,,,,,,,,,,,,,,,,,,,,虚伪,i,,,i,1,0.6405,1,54,134,31,1,,
,,,,,,,,,,,,,1,001,2025-01-02_14h44.36.597,IAT(Formal),2021.2.3,Win32,60.0024001,,,,,,,,,,,,,,,,,,,,,,,,,,,,,,,,,,,,,,,,,,,,,,,,,,,,下贱,i,,,i,1,0.4796,1,55,135,49,1,,
,,,,,,,,,,,,,1,001,2025-01-02_14h44.36.597,IAT(Formal),2021.2.3,Win32,60.0024001,,,,,,,,,,,,,,,,,,,,,,,,,,,,,,,,,,,,,,,,,,,,,,,,,,,,卑鄙,i,,,i,1,0.5988,1,56,136,30,1,,
,,,,,,,,,,,,,1,001,2025-01-02_14h44.36.597,IAT(Formal),2021.2.3,Win32,60.0024001,,,,,,,,,,,,,,,,,,,,,,,,,,,,,,,,,,,,,,,,,,,,,,,,,,,,杰出,e,,,e,1,0.8157,1,57,137,13,1,,
,,,,,,,,,,,,,1,001,2025-01-02_14h44.36.597,IAT(Formal),2021.2.3,Win32,60.0024001,,,,,,,,,,,,,,,,,,,,,,,,,,,,,,,,,,,,,,,,,,,,,,,,,,,,机智,e,,,e,1,0.4668,1,58,138,19,1,,
,,,,,,,,,,,,,1,001,2025-01-02_14h44.36.597,IAT(Formal),2021.2.3,Win32,60.0024001,,,,,,,,,,,,,,,,,,,,,,,,,,,,,,,,,,,,,,,,,,,,,,,,,,,,他人,e,,,e,1,0.8572,1,59,139,58,1,,
,,,,,,,,,,,,,1,001,2025-01-02_14h44.36.597,IAT(Formal),2021.2.3,Win32,60.0024001,,,,,,,,,,,,,,,,,,,,,,,,,,,,,,,,,,,,,,,,,,,,,,,,,,,,他们,e,,,e,1,0.4625,1,60,140,6,1,,
,,,,,,,,,,,,,1,001,2025-01-02_14h44.36.597,IAT(Formal),2021.2.3,Win32,60.0024001,,,,,,,,,,,,,,,,,,,,,,,,,,,,,,,,,,,,,,,,,,,,,,,,,,,,朴实,e,,,e,1,0.5291,1,61,141,24,1,,
,,,,,,,,,,,,,1,001,2025-01-02_14h44.36.597,IAT(Formal),2021.2.3,Win32,60.0024001,,,,,,,,,,,,,,,,,,,,,,,,,,,,,,,,,,,,,,,,,,,,,,,,,,,,野蛮,i,,,i,1,0.5956,1,62,142,46,1,,
,,,,,,,,,,,,,1,001,2025-01-02_14h44.36.597,IAT(Formal),2021.2.3,Win32,60.0024001,,,,,,,,,,,,,,,,,,,,,,,,,,,,,,,,,,,,,,,,,,,,,,,,,,,,活泼,e,,,e,1,0.6094,1,63,143,28,1,,
,,,,,,,,,,,,,1,001,2025-01-02_14h44.36.597,IAT(Formal),2021.2.3,Win32,60.0024001,,,,,,,,,,,,,,,,,,,,,,,,,,,,,,,,,,,,,,,,,,,,,,,,,,,,悲观,i,,,i,1,0.5658,1,64,144,34,1,,
,,,,,,,,,,,,,1,001,2025-01-02_14h44.36.597,IAT(Formal),2021.2.3,Win32,60.0024001,,,,,,,,,,,,,,,,,,,,,,,,,,,,,,,,,,,,,,,,,,,,,,,,,,,,诚实,e,,,e,1,0.6641,1,65,145,15,1,,
,,,,,,,,,,,,,1,001,2025-01-02_14h44.36.597,IAT(Formal),2021.2.3,Win32,60.0024001,,,,,,,,,,,,,,,,,,,,,,,,,,,,,,,,,,,,,,,,,,,,,,,,,,,,他们,e,,,i,0,0.4663,1,66,146,66,1,,
,,,,,,,,,,,,,1,001,2025-01-02_14h44.36.597,IAT(Formal),2021.2.3,Win32,60.0024001,,,,,,,,,,,,,,,,,,,,,,,,,,,,,,,,,,,,,,,,,,,,,,,,,,,,冒失,i,,,i,1,0.7974,1,67,147,39,1,,
,,,,,,,,,,,,,1,001,2025-01-02_14h44.36.597,IAT(Formal),2021.2.3,Win32,60.0024001,,,,,,,,,,,,,,,,,,,,,,,,,,,,,,,,,,,,,,,,,,,,,,,,,,,,俺,i,,,i,1,0.7476,1,68,148,54,1,,
,,,,,,,,,,,,,1,001,2025-01-02_14h44.36.597,IAT(Formal),2021.2.3,Win32,60.0024001,,,,,,,,,,,,,,,,,,,,,,,,,,,,,,,,,,,,,,,,,,,,,,,,,,,,消极,i,,,i,1,0.8609,1,69,149,35,1,,
,,,,,,,,,,,,,1,001,2025-01-02_14h44.36.597,IAT(Formal),2021.2.3,Win32,60.0024001,,,,,,,,,,,,,,,,,,,,,,,,,,,,,,,,,,,,,,,,,,,,,,,,,,,,我们,i,,,i,1,0.7545,1,70,150,72,1,,
,,,,,,,,,,,,,1,001,2025-01-02_14h44.36.597,IAT(Formal),2021.2.3,Win32,60.0024001,,,,,,,,,,,,,,,,,,,,,,,,,,,,,,,,,,,,,,,,,,,,,,,,,,,,冷静,e,,,i,0,0.4809,1,71,151,26,1,,
,,,,,,,,,,,,,1,001,2025-01-02_14h44.36.597,IAT(Formal),2021.2.3,Win32,60.0024001,,,,,,,,,,,,,,,,,,,,,,,,,,,,,,,,,,,,,,,,,,,,,,,,,,,,其他,e,,,i,0,0.5495,1,72,152,79,1,,
,,,,,,,,,,,,,1,001,2025-01-02_14h44.36.597,IAT(Formal),2021.2.3,Win32,60.0024001,,,,,,,,,,,,,,,,,,,,,,,,,,,,,,,,,,,,,,,,,,,,,,,,,,,,他的,e,,,e,1,0.9,1,73,153,67,1,,
,,,,,,,,,,,,,1,001,2025-01-02_14h44.36.597,IAT(Formal),2021.2.3,Win32,60.0024001,,,,,,,,,,,,,,,,,,,,,,,,,,,,,,,,,,,,,,,,,,,,,,,,,,,,他的,e,,,e,1,0.6183,1,74,154,57,1,,
,,,,,,,,,,,,,1,001,2025-01-02_14h44.36.597,IAT(Formal),2021.2.3,Win32,60.0024001,,,,,,,,,,,,,,,,,,,,,,,,,,,,,,,,,,,,,,,,,,,,,,,,,,,,我,i,,,i,1,0.773,1,75,155,0,1,,
,,,,,,,,,,,,,1,001,2025-01-02_14h44.36.597,IAT(Formal),2021.2.3,Win32,60.0024001,,,,,,,,,,,,,,,,,,,,,,,,,,,,,,,,,,,,,,,,,,,,,,,,,,,,我们,i,,,i,1,0.7784,1,76,156,2,1,,
,,,,,,,,,,,,,1,001,2025-01-02_14h44.36.597,IAT(Formal),2021.2.3,Win32,60.0024001,,,,,,,,,,,,,,,,,,,,,,,,,,,,,,,,,,,,,,,,,,,,,,,,,,,,他人,e,,,e,1,1.2458,1,77,157,68,1,,
,,,,,,,,,,,,,1,001,2025-01-02_14h44.36.597,IAT(Formal),2021.2.3,Win32,60.0024001,,,,,,,,,,,,,,,,,,,,,,,,,,,,,,,,,,,,,,,,,,,,,,,,,,,,自私,i,,,i,1,0.6671,1,78,158,43,1,,
,,,,,,,,,,,,,1,001,2025-01-02_14h44.36.597,IAT(Formal),2021.2.3,Win32,60.0024001,,,,,,,,,,,,,,,,,,,,,,,,,,,,,,,,,,,,,,,,,,,,,,,,,,,,他,e,,,i,0,0.9995,1,79,159,65,1,,
,,,,,,,,,,,,,1,001,2025-01-02_14h44.36.597,IAT(Formal),2021.2.3,Win32,60.0024001,,,,,,,,,,,,,,,,,,,,,,,,,,,,,,,,,,,,,,,,,,,,,,,,,,,,,,,,,,,,,,,,space,1.8457