﻿Instruction1.keys,Instruction1.rt,Instruction2.keys,Instruction2.rt,key_resp_iso.keys,key_resp_iso.corr,Practice_01.thisRepN,Practice_01.thisTrialN,Practice_01.thisN,Practice_01.thisIndex,Practice_01.ran,Words,ans,participant,session,date,expName,psychopyVersion,OS,frameRate,key_resp_iso.rt,key_resp_3.keys,key_resp_3.rt,key_resp_ipn.keys,key_resp_ipn.corr,key_resp_ipn.rt,Practice_02.thisRepN,Practice_02.thisTrialN,Practice_02.thisN,Practice_02.thisIndex,Practice_02.ran,Words_ipn,ans_ipn,key_resp_4.keys,key_resp_4.rt,key_resp_t1.keys,key_resp_t1.corr,key_resp_t1.rt,Practice_T1.thisRepN,Practice_T1.thisTrialN,Practice_T1.thisN,Practice_T1.thisIndex,Practice_T1.ran,Words_t1,ans_t1,key_resp_5.keys,key_resp_5.rt,Formal_T1.thisRepN,Formal_T1.thisTrialN,Formal_T1.thisN,Formal_T1.thisIndex,Formal_T1.ran,key_resp_6.keys,key_resp_6.rt,key_resp_iso_reverse.keys,key_resp_iso_reverse.corr,key_resp_iso_reverse.rt,Practice_iso_Reverse.thisRepN,Practice_iso_Reverse.thisTrialN,Practice_iso_Reverse.thisN,Practice_iso_Reverse.thisIndex,Practice_iso_Reverse.ran,key_resp_7.keys,key_resp_7.rt,key_resp_t2_Practice.keys,key_resp_t2_Practice.corr,key_resp_t2_Practice.rt,Practice_t2_Reverse.thisRepN,Practice_t2_Reverse.thisTrialN,Practice_t2_Reverse.thisN,Practice_t2_Reverse.thisIndex,Practice_t2_Reverse.ran,Words_t2,ans_t2,key_resp_8.keys,key_resp_8.rt,key_resp_t2.keys,key_resp_t2.corr,key_resp_t2.rt,Formal_t2_reverse.thisRepN,Formal_t2_reverse.thisTrialN,Formal_t2_reverse.thisN,Formal_t2_reverse.thisIndex,Formal_t2_reverse.ran,key_instruct.keys,key_instruct.rt
space,5.4701,space,22.9989,,0,0,0,0,2,1,我们,e,1,001,2024-08-23_14h03.14.353,IAT(Formal),2021.2.3,Win32,60.24096386,,,,,,,,,,,,,,,,,,,,,,,,,,,,,,,,,,,,,,,,,,,,,,,,,,,,,,,,,,,,,,,,,,
,,,,i,0,0,1,1,4,1,俺,e,1,001,2024-08-23_14h03.14.353,IAT(Formal),2021.2.3,Win32,60.24096386,0.7081,,,,,,,,,,,,,,,,,,,,,,,,,,,,,,,,,,,,,,,,,,,,,,,,,,,,,,,,,,,,,,,,,
,,,,i,1,0,2,2,7,1,他的,i,1,001,2024-08-23_14h03.14.353,IAT(Formal),2021.2.3,Win32,60.24096386,0.7082,,,,,,,,,,,,,,,,,,,,,,,,,,,,,,,,,,,,,,,,,,,,,,,,,,,,,,,,,,,,,,,,,
,,,,e,1,0,3,3,0,1,我,e,1,001,2024-08-23_14h03.14.353,IAT(Formal),2021.2.3,Win32,60.24096386,0.5018,,,,,,,,,,,,,,,,,,,,,,,,,,,,,,,,,,,,,,,,,,,,,,,,,,,,,,,,,,,,,,,,,
,,,,e,1,0,4,4,1,1,我的,e,1,001,2024-08-23_14h03.14.353,IAT(Formal),2021.2.3,Win32,60.24096386,0.4404,,,,,,,,,,,,,,,,,,,,,,,,,,,,,,,,,,,,,,,,,,,,,,,,,,,,,,,,,,,,,,,,,
,,,,i,1,0,5,5,5,1,他,i,1,001,2024-08-23_14h03.14.353,IAT(Formal),2021.2.3,Win32,60.24096386,0.4896,,,,,,,,,,,,,,,,,,,,,,,,,,,,,,,,,,,,,,,,,,,,,,,,,,,,,,,,,,,,,,,,,
,,,,i,1,0,6,6,8,1,他人,i,1,001,2024-08-23_14h03.14.353,IAT(Formal),2021.2.3,Win32,60.24096386,0.5889,,,,,,,,,,,,,,,,,,,,,,,,,,,,,,,,,,,,,,,,,,,,,,,,,,,,,,,,,,,,,,,,,
,,,,i,1,0,7,7,6,1,他们,i,1,001,2024-08-23_14h03.14.353,IAT(Formal),2021.2.3,Win32,60.24096386,0.4756,,,,,,,,,,,,,,,,,,,,,,,,,,,,,,,,,,,,,,,,,,,,,,,,,,,,,,,,,,,,,,,,,
,,,,i,1,0,8,8,9,1,其他,i,1,001,2024-08-23_14h03.14.353,IAT(Formal),2021.2.3,Win32,60.24096386,0.7624,,,,,,,,,,,,,,,,,,,,,,,,,,,,,,,,,,,,,,,,,,,,,,,,,,,,,,,,,,,,,,,,,
,,,,e,1,0,9,9,3,1,自己,e,1,001,2024-08-23_14h03.14.353,IAT(Formal),2021.2.3,Win32,60.24096386,0.5804,,,,,,,,,,,,,,,,,,,,,,,,,,,,,,,,,,,,,,,,,,,,,,,,,,,,,,,,,,,,,,,,,
,,,,,,,,,,,,,1,001,2024-08-23_14h03.14.353,IAT(Formal),2021.2.3,Win32,60.24096386,,space,18.6771,i,1,0.6504,0,0,0,22,1,愚蠢,i,,,,,,,,,,,,,,,,,,,,,,,,,,,,,,,,,,,,,,,,,,,,,,,,,,,,,
,,,,,,,,,,,,,1,001,2024-08-23_14h03.14.353,IAT(Formal),2021.2.3,Win32,60.24096386,,,,e,1,0.4582,0,1,1,0,1,优秀,e,,,,,,,,,,,,,,,,,,,,,,,,,,,,,,,,,,,,,,,,,,,,,,,,,,,,,
,,,,,,,,,,,,,1,001,2024-08-23_14h03.14.353,IAT(Formal),2021.2.3,Win32,60.24096386,,,,i,1,0.6445,0,2,2,32,1,凶狠,i,,,,,,,,,,,,,,,,,,,,,,,,,,,,,,,,,,,,,,,,,,,,,,,,,,,,,
,,,,,,,,,,,,,1,001,2024-08-23_14h03.14.353,IAT(Formal),2021.2.3,Win32,60.24096386,,,,e,1,0.7311,0,3,3,19,1,诚恳,e,,,,,,,,,,,,,,,,,,,,,,,,,,,,,,,,,,,,,,,,,,,,,,,,,,,,,
,,,,,,,,,,,,,1,001,2024-08-23_14h03.14.353,IAT(Formal),2021.2.3,Win32,60.24096386,,,,e,1,0.7763,0,4,4,15,1,细腻,e,,,,,,,,,,,,,,,,,,,,,,,,,,,,,,,,,,,,,,,,,,,,,,,,,,,,,
,,,,,,,,,,,,,1,001,2024-08-23_14h03.14.353,IAT(Formal),2021.2.3,Win32,60.24096386,,,,i,1,0.498,0,5,5,35,1,猖狂,i,,,,,,,,,,,,,,,,,,,,,,,,,,,,,,,,,,,,,,,,,,,,,,,,,,,,,
,,,,,,,,,,,,,1,001,2024-08-23_14h03.14.353,IAT(Formal),2021.2.3,Win32,60.24096386,,,,i,1,0.4438,0,6,6,33,1,自私,i,,,,,,,,,,,,,,,,,,,,,,,,,,,,,,,,,,,,,,,,,,,,,,,,,,,,,
,,,,,,,,,,,,,1,001,2024-08-23_14h03.14.353,IAT(Formal),2021.2.3,Win32,60.24096386,,,,e,1,0.5924,0,7,7,11,1,稳重,e,,,,,,,,,,,,,,,,,,,,,,,,,,,,,,,,,,,,,,,,,,,,,,,,,,,,,
,,,,,,,,,,,,,1,001,2024-08-23_14h03.14.353,IAT(Formal),2021.2.3,Win32,60.24096386,,,,e,1,0.606,0,8,8,16,1,冷静,e,,,,,,,,,,,,,,,,,,,,,,,,,,,,,,,,,,,,,,,,,,,,,,,,,,,,,
,,,,,,,,,,,,,1,001,2024-08-23_14h03.14.353,IAT(Formal),2021.2.3,Win32,60.24096386,,,,i,1,0.7741,0,9,9,31,1,散漫,i,,,,,,,,,,,,,,,,,,,,,,,,,,,,,,,,,,,,,,,,,,,,,,,,,,,,,
,,,,,,,,,,,,,1,001,2024-08-23_14h03.14.353,IAT(Formal),2021.2.3,Win32,60.24096386,,,,e,1,0.7754,0,10,10,14,1,朴实,e,,,,,,,,,,,,,,,,,,,,,,,,,,,,,,,,,,,,,,,,,,,,,,,,,,,,,
,,,,,,,,,,,,,1,001,2024-08-23_14h03.14.353,IAT(Formal),2021.2.3,Win32,60.24096386,,,,i,1,0.6607,0,11,11,27,1,傲慢,i,,,,,,,,,,,,,,,,,,,,,,,,,,,,,,,,,,,,,,,,,,,,,,,,,,,,,
,,,,,,,,,,,,,1,001,2024-08-23_14h03.14.353,IAT(Formal),2021.2.3,Win32,60.24096386,,,,e,1,0.6228,0,12,12,4,1,乐观,e,,,,,,,,,,,,,,,,,,,,,,,,,,,,,,,,,,,,,,,,,,,,,,,,,,,,,
,,,,,,,,,,,,,1,001,2024-08-23_14h03.14.353,IAT(Formal),2021.2.3,Win32,60.24096386,,,,e,1,0.5578,0,13,13,3,1,杰出,e,,,,,,,,,,,,,,,,,,,,,,,,,,,,,,,,,,,,,,,,,,,,,,,,,,,,,
,,,,,,,,,,,,,1,001,2024-08-23_14h03.14.353,IAT(Formal),2021.2.3,Win32,60.24096386,,,,i,1,0.5147,0,14,14,23,1,刻薄,i,,,,,,,,,,,,,,,,,,,,,,,,,,,,,,,,,,,,,,,,,,,,,,,,,,,,,
,,,,,,,,,,,,,1,001,2024-08-23_14h03.14.353,IAT(Formal),2021.2.3,Win32,60.24096386,,,,e,1,0.629,0,15,15,13,1,公正,e,,,,,,,,,,,,,,,,,,,,,,,,,,,,,,,,,,,,,,,,,,,,,,,,,,,,,
,,,,,,,,,,,,,1,001,2024-08-23_14h03.14.353,IAT(Formal),2021.2.3,Win32,60.24096386,,,,e,0,0.6015,0,16,16,38,1,轻率,i,,,,,,,,,,,,,,,,,,,,,,,,,,,,,,,,,,,,,,,,,,,,,,,,,,,,,
,,,,,,,,,,,,,1,001,2024-08-23_14h03.14.353,IAT(Formal),2021.2.3,Win32,60.24096386,,,,e,1,0.625,0,17,17,9,1,机智,e,,,,,,,,,,,,,,,,,,,,,,,,,,,,,,,,,,,,,,,,,,,,,,,,,,,,,
,,,,,,,,,,,,,1,001,2024-08-23_14h03.14.353,IAT(Formal),2021.2.3,Win32,60.24096386,,,,i,1,0.5822,0,18,18,20,1,卑鄙,i,,,,,,,,,,,,,,,,,,,,,,,,,,,,,,,,,,,,,,,,,,,,,,,,,,,,,
,,,,,,,,,,,,,1,001,2024-08-23_14h03.14.353,IAT(Formal),2021.2.3,Win32,60.24096386,,,,i,1,0.6131,0,19,19,25,1,消极,i,,,,,,,,,,,,,,,,,,,,,,,,,,,,,,,,,,,,,,,,,,,,,,,,,,,,,
,,,,,,,,,,,,,1,001,2024-08-23_14h03.14.353,IAT(Formal),2021.2.3,Win32,60.24096386,,,,i,1,0.6122,0,20,20,30,1,执拗,i,,,,,,,,,,,,,,,,,,,,,,,,,,,,,,,,,,,,,,,,,,,,,,,,,,,,,
,,,,,,,,,,,,,1,001,2024-08-23_14h03.14.353,IAT(Formal),2021.2.3,Win32,60.24096386,,,,e,1,0.6925,0,21,21,5,1,诚实,e,,,,,,,,,,,,,,,,,,,,,,,,,,,,,,,,,,,,,,,,,,,,,,,,,,,,,
,,,,,,,,,,,,,1,001,2024-08-23_14h03.14.353,IAT(Formal),2021.2.3,Win32,60.24096386,,,,i,1,0.5924,0,22,22,24,1,悲观,i,,,,,,,,,,,,,,,,,,,,,,,,,,,,,,,,,,,,,,,,,,,,,,,,,,,,,
,,,,,,,,,,,,,1,001,2024-08-23_14h03.14.353,IAT(Formal),2021.2.3,Win32,60.24096386,,,,e,1,0.6083,0,23,23,7,1,勇敢,e,,,,,,,,,,,,,,,,,,,,,,,,,,,,,,,,,,,,,,,,,,,,,,,,,,,,,
,,,,,,,,,,,,,1,001,2024-08-23_14h03.14.353,IAT(Formal),2021.2.3,Win32,60.24096386,,,,i,1,0.4452,0,24,24,37,1,固执,i,,,,,,,,,,,,,,,,,,,,,,,,,,,,,,,,,,,,,,,,,,,,,,,,,,,,,
,,,,,,,,,,,,,1,001,2024-08-23_14h03.14.353,IAT(Formal),2021.2.3,Win32,60.24096386,,,,i,1,0.6955,0,25,25,28,1,鲁莽,i,,,,,,,,,,,,,,,,,,,,,,,,,,,,,,,,,,,,,,,,,,,,,,,,,,,,,
,,,,,,,,,,,,,1,001,2024-08-23_14h03.14.353,IAT(Formal),2021.2.3,Win32,60.24096386,,,,i,1,0.6248,0,26,26,36,1,野蛮,i,,,,,,,,,,,,,,,,,,,,,,,,,,,,,,,,,,,,,,,,,,,,,,,,,,,,,
,,,,,,,,,,,,,1,001,2024-08-23_14h03.14.353,IAT(Formal),2021.2.3,Win32,60.24096386,,,,i,0,0.4597,0,27,27,12,1,无私,e,,,,,,,,,,,,,,,,,,,,,,,,,,,,,,,,,,,,,,,,,,,,,,,,,,,,,
,,,,,,,,,,,,,1,001,2024-08-23_14h03.14.353,IAT(Formal),2021.2.3,Win32,60.24096386,,,,i,1,0.5697,0,28,28,21,1,虚伪,i,,,,,,,,,,,,,,,,,,,,,,,,,,,,,,,,,,,,,,,,,,,,,,,,,,,,,
,,,,,,,,,,,,,1,001,2024-08-23_14h03.14.353,IAT(Formal),2021.2.3,Win32,60.24096386,,,,e,1,0.5915,0,29,29,2,1,聪明,e,,,,,,,,,,,,,,,,,,,,,,,,,,,,,,,,,,,,,,,,,,,,,,,,,,,,,
,,,,,,,,,,,,,1,001,2024-08-23_14h03.14.353,IAT(Formal),2021.2.3,Win32,60.24096386,,,,e,1,0.4671,0,30,30,10,1,认真,e,,,,,,,,,,,,,,,,,,,,,,,,,,,,,,,,,,,,,,,,,,,,,,,,,,,,,
,,,,,,,,,,,,,1,001,2024-08-23_14h03.14.353,IAT(Formal),2021.2.3,Win32,60.24096386,,,,e,1,0.6084,0,31,31,17,1,热情,e,,,,,,,,,,,,,,,,,,,,,,,,,,,,,,,,,,,,,,,,,,,,,,,,,,,,,
,,,,,,,,,,,,,1,001,2024-08-23_14h03.14.353,IAT(Formal),2021.2.3,Win32,60.24096386,,,,i,1,0.8436,0,32,32,26,1,自卑,i,,,,,,,,,,,,,,,,,,,,,,,,,,,,,,,,,,,,,,,,,,,,,,,,,,,,,
,,,,,,,,,,,,,1,001,2024-08-23_14h03.14.353,IAT(Formal),2021.2.3,Win32,60.24096386,,,,i,1,0.713,0,33,33,29,1,冒失,i,,,,,,,,,,,,,,,,,,,,,,,,,,,,,,,,,,,,,,,,,,,,,,,,,,,,,
,,,,,,,,,,,,,1,001,2024-08-23_14h03.14.353,IAT(Formal),2021.2.3,Win32,60.24096386,,,,e,1,0.593,0,34,34,6,1,正直,e,,,,,,,,,,,,,,,,,,,,,,,,,,,,,,,,,,,,,,,,,,,,,,,,,,,,,
,,,,,,,,,,,,,1,001,2024-08-23_14h03.14.353,IAT(Formal),2021.2.3,Win32,60.24096386,,,,e,1,0.8112,0,35,35,18,1,活泼,e,,,,,,,,,,,,,,,,,,,,,,,,,,,,,,,,,,,,,,,,,,,,,,,,,,,,,
,,,,,,,,,,,,,1,001,2024-08-23_14h03.14.353,IAT(Formal),2021.2.3,Win32,60.24096386,,,,e,1,0.5623,0,36,36,8,1,勤奋,e,,,,,,,,,,,,,,,,,,,,,,,,,,,,,,,,,,,,,,,,,,,,,,,,,,,,,
,,,,,,,,,,,,,1,001,2024-08-23_14h03.14.353,IAT(Formal),2021.2.3,Win32,60.24096386,,,,i,1,0.548,0,37,37,39,1,下贱,i,,,,,,,,,,,,,,,,,,,,,,,,,,,,,,,,,,,,,,,,,,,,,,,,,,,,,
,,,,,,,,,,,,,1,001,2024-08-23_14h03.14.353,IAT(Formal),2021.2.3,Win32,60.24096386,,,,e,1,0.625,0,38,38,1,1,崇高,e,,,,,,,,,,,,,,,,,,,,,,,,,,,,,,,,,,,,,,,,,,,,,,,,,,,,,
,,,,,,,,,,,,,1,001,2024-08-23_14h03.14.353,IAT(Formal),2021.2.3,Win32,60.24096386,,,,i,1,0.5312,0,39,39,34,1,暴躁,i,,,,,,,,,,,,,,,,,,,,,,,,,,,,,,,,,,,,,,,,,,,,,,,,,,,,,
,,,,,,,,,,,,,1,001,2024-08-23_14h03.14.353,IAT(Formal),2021.2.3,Win32,60.24096386,,,,,,,,,,,,,,space,17.6988,e,1,0.6488,0,0,0,28,1,活泼,e,,,,,,,,,,,,,,,,,,,,,,,,,,,,,,,,,,,,,,,,,
,,,,,,,,,,,,,1,001,2024-08-23_14h03.14.353,IAT(Formal),2021.2.3,Win32,60.24096386,,,,,,,,,,,,,,,,e,1,0.5779,0,1,1,51,1,我的,e,,,,,,,,,,,,,,,,,,,,,,,,,,,,,,,,,,,,,,,,,
,,,,,,,,,,,,,1,001,2024-08-23_14h03.14.353,IAT(Formal),2021.2.3,Win32,60.24096386,,,,,,,,,,,,,,,,i,1,0.6105,0,2,2,47,1,固执,i,,,,,,,,,,,,,,,,,,,,,,,,,,,,,,,,,,,,,,,,,
,,,,,,,,,,,,,1,001,2024-08-23_14h03.14.353,IAT(Formal),2021.2.3,Win32,60.24096386,,,,,,,,,,,,,,,,e,1,0.6816,0,3,3,12,1,聪明,e,,,,,,,,,,,,,,,,,,,,,,,,,,,,,,,,,,,,,,,,,
,,,,,,,,,,,,,1,001,2024-08-23_14h03.14.353,IAT(Formal),2021.2.3,Win32,60.24096386,,,,,,,,,,,,,,,,i,1,0.7585,0,4,4,77,1,他的,i,,,,,,,,,,,,,,,,,,,,,,,,,,,,,,,,,,,,,,,,,
,,,,,,,,,,,,,1,001,2024-08-23_14h03.14.353,IAT(Formal),2021.2.3,Win32,60.24096386,,,,,,,,,,,,,,,,e,1,0.5995,0,5,5,13,1,杰出,e,,,,,,,,,,,,,,,,,,,,,,,,,,,,,,,,,,,,,,,,,
,,,,,,,,,,,,,1,001,2024-08-23_14h03.14.353,IAT(Formal),2021.2.3,Win32,60.24096386,,,,,,,,,,,,,,,,e,1,0.5796,0,6,6,52,1,我们,e,,,,,,,,,,,,,,,,,,,,,,,,,,,,,,,,,,,,,,,,,
,,,,,,,,,,,,,1,001,2024-08-23_14h03.14.353,IAT(Formal),2021.2.3,Win32,60.24096386,,,,,,,,,,,,,,,,i,1,0.5446,0,7,7,8,1,他人,i,,,,,,,,,,,,,,,,,,,,,,,,,,,,,,,,,,,,,,,,,
,,,,,,,,,,,,,1,001,2024-08-23_14h03.14.353,IAT(Formal),2021.2.3,Win32,60.24096386,,,,,,,,,,,,,,,,i,1,0.5497,0,8,8,76,1,他们,i,,,,,,,,,,,,,,,,,,,,,,,,,,,,,,,,,,,,,,,,,
,,,,,,,,,,,,,1,001,2024-08-23_14h03.14.353,IAT(Formal),2021.2.3,Win32,60.24096386,,,,,,,,,,,,,,,,e,1,0.4842,0,9,9,72,1,我们,e,,,,,,,,,,,,,,,,,,,,,,,,,,,,,,,,,,,,,,,,,
,,,,,,,,,,,,,1,001,2024-08-23_14h03.14.353,IAT(Formal),2021.2.3,Win32,60.24096386,,,,,,,,,,,,,,,,i,1,0.5991,0,10,10,36,1,自卑,i,,,,,,,,,,,,,,,,,,,,,,,,,,,,,,,,,,,,,,,,,
,,,,,,,,,,,,,1,001,2024-08-23_14h03.14.353,IAT(Formal),2021.2.3,Win32,60.24096386,,,,,,,,,,,,,,,,i,1,0.4455,0,11,11,68,1,他人,i,,,,,,,,,,,,,,,,,,,,,,,,,,,,,,,,,,,,,,,,,
,,,,,,,,,,,,,1,001,2024-08-23_14h03.14.353,IAT(Formal),2021.2.3,Win32,60.24096386,,,,,,,,,,,,,,,,i,1,0.6983,0,12,12,69,1,其他,i,,,,,,,,,,,,,,,,,,,,,,,,,,,,,,,,,,,,,,,,,
,,,,,,,,,,,,,1,001,2024-08-23_14h03.14.353,IAT(Formal),2021.2.3,Win32,60.24096386,,,,,,,,,,,,,,,,i,1,0.4011,0,13,13,59,1,其他,i,,,,,,,,,,,,,,,,,,,,,,,,,,,,,,,,,,,,,,,,,
,,,,,,,,,,,,,1,001,2024-08-23_14h03.14.353,IAT(Formal),2021.2.3,Win32,60.24096386,,,,,,,,,,,,,,,,i,1,0.6198,0,14,14,38,1,鲁莽,i,,,,,,,,,,,,,,,,,,,,,,,,,,,,,,,,,,,,,,,,,
,,,,,,,,,,,,,1,001,2024-08-23_14h03.14.353,IAT(Formal),2021.2.3,Win32,60.24096386,,,,,,,,,,,,,,,,i,0,0.4519,0,15,15,29,1,诚恳,e,,,,,,,,,,,,,,,,,,,,,,,,,,,,,,,,,,,,,,,,,
,,,,,,,,,,,,,1,001,2024-08-23_14h03.14.353,IAT(Formal),2021.2.3,Win32,60.24096386,,,,,,,,,,,,,,,,i,1,0.5303,0,16,16,39,1,冒失,i,,,,,,,,,,,,,,,,,,,,,,,,,,,,,,,,,,,,,,,,,
,,,,,,,,,,,,,1,001,2024-08-23_14h03.14.353,IAT(Formal),2021.2.3,Win32,60.24096386,,,,,,,,,,,,,,,,i,1,0.5373,0,17,17,30,1,卑鄙,i,,,,,,,,,,,,,,,,,,,,,,,,,,,,,,,,,,,,,,,,,
,,,,,,,,,,,,,1,001,2024-08-23_14h03.14.353,IAT(Formal),2021.2.3,Win32,60.24096386,,,,,,,,,,,,,,,,e,1,0.7092,0,18,18,54,1,俺,e,,,,,,,,,,,,,,,,,,,,,,,,,,,,,,,,,,,,,,,,,
,,,,,,,,,,,,,1,001,2024-08-23_14h03.14.353,IAT(Formal),2021.2.3,Win32,60.24096386,,,,,,,,,,,,,,,,e,1,0.4621,0,19,19,20,1,认真,e,,,,,,,,,,,,,,,,,,,,,,,,,,,,,,,,,,,,,,,,,
,,,,,,,,,,,,,1,001,2024-08-23_14h03.14.353,IAT(Formal),2021.2.3,Win32,60.24096386,,,,,,,,,,,,,,,,i,1,0.5386,0,20,20,79,1,其他,i,,,,,,,,,,,,,,,,,,,,,,,,,,,,,,,,,,,,,,,,,
,,,,,,,,,,,,,1,001,2024-08-23_14h03.14.353,IAT(Formal),2021.2.3,Win32,60.24096386,,,,,,,,,,,,,,,,i,1,0.6031,0,21,21,48,1,轻率,i,,,,,,,,,,,,,,,,,,,,,,,,,,,,,,,,,,,,,,,,,
,,,,,,,,,,,,,1,001,2024-08-23_14h03.14.353,IAT(Formal),2021.2.3,Win32,60.24096386,,,,,,,,,,,,,,,,e,1,0.5798,0,22,22,26,1,冷静,e,,,,,,,,,,,,,,,,,,,,,,,,,,,,,,,,,,,,,,,,,
,,,,,,,,,,,,,1,001,2024-08-23_14h03.14.353,IAT(Formal),2021.2.3,Win32,60.24096386,,,,,,,,,,,,,,,,e,1,0.5489,0,23,23,2,1,我们,e,,,,,,,,,,,,,,,,,,,,,,,,,,,,,,,,,,,,,,,,,
,,,,,,,,,,,,,1,001,2024-08-23_14h03.14.353,IAT(Formal),2021.2.3,Win32,60.24096386,,,,,,,,,,,,,,,,i,1,0.5104,0,24,24,67,1,他的,i,,,,,,,,,,,,,,,,,,,,,,,,,,,,,,,,,,,,,,,,,
,,,,,,,,,,,,,1,001,2024-08-23_14h03.14.353,IAT(Formal),2021.2.3,Win32,60.24096386,,,,,,,,,,,,,,,,e,1,0.5701,0,25,25,23,1,公正,e,,,,,,,,,,,,,,,,,,,,,,,,,,,,,,,,,,,,,,,,,
,,,,,,,,,,,,,1,001,2024-08-23_14h03.14.353,IAT(Formal),2021.2.3,Win32,60.24096386,,,,,,,,,,,,,,,,e,1,0.867,0,26,26,14,1,乐观,e,,,,,,,,,,,,,,,,,,,,,,,,,,,,,,,,,,,,,,,,,
,,,,,,,,,,,,,1,001,2024-08-23_14h03.14.353,IAT(Formal),2021.2.3,Win32,60.24096386,,,,,,,,,,,,,,,,e,1,0.5284,0,27,27,74,1,俺,e,,,,,,,,,,,,,,,,,,,,,,,,,,,,,,,,,,,,,,,,,
,,,,,,,,,,,,,1,001,2024-08-23_14h03.14.353,IAT(Formal),2021.2.3,Win32,60.24096386,,,,,,,,,,,,,,,,e,1,0.6622,0,28,28,24,1,朴实,e,,,,,,,,,,,,,,,,,,,,,,,,,,,,,,,,,,,,,,,,,
,,,,,,,,,,,,,1,001,2024-08-23_14h03.14.353,IAT(Formal),2021.2.3,Win32,60.24096386,,,,,,,,,,,,,,,,e,1,0.4739,0,29,29,70,1,我,e,,,,,,,,,,,,,,,,,,,,,,,,,,,,,,,,,,,,,,,,,
,,,,,,,,,,,,,1,001,2024-08-23_14h03.14.353,IAT(Formal),2021.2.3,Win32,60.24096386,,,,,,,,,,,,,,,,i,1,0.4733,0,30,30,75,1,他,i,,,,,,,,,,,,,,,,,,,,,,,,,,,,,,,,,,,,,,,,,
,,,,,,,,,,,,,1,001,2024-08-23_14h03.14.353,IAT(Formal),2021.2.3,Win32,60.24096386,,,,,,,,,,,,,,,,i,1,0.672,0,31,31,45,1,猖狂,i,,,,,,,,,,,,,,,,,,,,,,,,,,,,,,,,,,,,,,,,,
,,,,,,,,,,,,,1,001,2024-08-23_14h03.14.353,IAT(Formal),2021.2.3,Win32,60.24096386,,,,,,,,,,,,,,,,e,1,0.786,0,32,32,73,1,自己,e,,,,,,,,,,,,,,,,,,,,,,,,,,,,,,,,,,,,,,,,,
,,,,,,,,,,,,,1,001,2024-08-23_14h03.14.353,IAT(Formal),2021.2.3,Win32,60.24096386,,,,,,,,,,,,,,,,i,1,0.518,0,33,33,42,1,凶狠,i,,,,,,,,,,,,,,,,,,,,,,,,,,,,,,,,,,,,,,,,,
,,,,,,,,,,,,,1,001,2024-08-23_14h03.14.353,IAT(Formal),2021.2.3,Win32,60.24096386,,,,,,,,,,,,,,,,i,1,0.6125,0,34,34,40,1,执拗,i,,,,,,,,,,,,,,,,,,,,,,,,,,,,,,,,,,,,,,,,,
,,,,,,,,,,,,,1,001,2024-08-23_14h03.14.353,IAT(Formal),2021.2.3,Win32,60.24096386,,,,,,,,,,,,,,,,e,1,0.4613,0,35,35,18,1,勤奋,e,,,,,,,,,,,,,,,,,,,,,,,,,,,,,,,,,,,,,,,,,
,,,,,,,,,,,,,1,001,2024-08-23_14h03.14.353,IAT(Formal),2021.2.3,Win32,60.24096386,,,,,,,,,,,,,,,,e,1,0.6312,0,36,36,19,1,机智,e,,,,,,,,,,,,,,,,,,,,,,,,,,,,,,,,,,,,,,,,,
,,,,,,,,,,,,,1,001,2024-08-23_14h03.14.353,IAT(Formal),2021.2.3,Win32,60.24096386,,,,,,,,,,,,,,,,e,1,0.5345,0,37,37,62,1,我们,e,,,,,,,,,,,,,,,,,,,,,,,,,,,,,,,,,,,,,,,,,
,,,,,,,,,,,,,1,001,2024-08-23_14h03.14.353,IAT(Formal),2021.2.3,Win32,60.24096386,,,,,,,,,,,,,,,,e,1,0.4821,0,38,38,4,1,俺,e,,,,,,,,,,,,,,,,,,,,,,,,,,,,,,,,,,,,,,,,,
,,,,,,,,,,,,,1,001,2024-08-23_14h03.14.353,IAT(Formal),2021.2.3,Win32,60.24096386,,,,,,,,,,,,,,,,e,1,0.4969,0,39,39,11,1,崇高,e,,,,,,,,,,,,,,,,,,,,,,,,,,,,,,,,,,,,,,,,,
,,,,,,,,,,,,,1,001,2024-08-23_14h03.14.353,IAT(Formal),2021.2.3,Win32,60.24096386,,,,,,,,,,,,,,,,i,1,0.7465,0,40,40,34,1,悲观,i,,,,,,,,,,,,,,,,,,,,,,,,,,,,,,,,,,,,,,,,,
,,,,,,,,,,,,,1,001,2024-08-23_14h03.14.353,IAT(Formal),2021.2.3,Win32,60.24096386,,,,,,,,,,,,,,,,i,1,0.49,0,41,41,5,1,他,i,,,,,,,,,,,,,,,,,,,,,,,,,,,,,,,,,,,,,,,,,
,,,,,,,,,,,,,1,001,2024-08-23_14h03.14.353,IAT(Formal),2021.2.3,Win32,60.24096386,,,,,,,,,,,,,,,,i,1,0.4152,0,42,42,55,1,他,i,,,,,,,,,,,,,,,,,,,,,,,,,,,,,,,,,,,,,,,,,
,,,,,,,,,,,,,1,001,2024-08-23_14h03.14.353,IAT(Formal),2021.2.3,Win32,60.24096386,,,,,,,,,,,,,,,,i,1,0.5283,0,43,43,31,1,虚伪,i,,,,,,,,,,,,,,,,,,,,,,,,,,,,,,,,,,,,,,,,,
,,,,,,,,,,,,,1,001,2024-08-23_14h03.14.353,IAT(Formal),2021.2.3,Win32,60.24096386,,,,,,,,,,,,,,,,i,1,0.454,0,44,44,7,1,他的,i,,,,,,,,,,,,,,,,,,,,,,,,,,,,,,,,,,,,,,,,,
,,,,,,,,,,,,,1,001,2024-08-23_14h03.14.353,IAT(Formal),2021.2.3,Win32,60.24096386,,,,,,,,,,,,,,,,e,1,0.4292,0,45,45,0,1,我,e,,,,,,,,,,,,,,,,,,,,,,,,,,,,,,,,,,,,,,,,,
,,,,,,,,,,,,,1,001,2024-08-23_14h03.14.353,IAT(Formal),2021.2.3,Win32,60.24096386,,,,,,,,,,,,,,,,i,1,0.517,0,46,46,44,1,暴躁,i,,,,,,,,,,,,,,,,,,,,,,,,,,,,,,,,,,,,,,,,,
,,,,,,,,,,,,,1,001,2024-08-23_14h03.14.353,IAT(Formal),2021.2.3,Win32,60.24096386,,,,,,,,,,,,,,,,e,1,0.5527,0,47,47,3,1,自己,e,,,,,,,,,,,,,,,,,,,,,,,,,,,,,,,,,,,,,,,,,
,,,,,,,,,,,,,1,001,2024-08-23_14h03.14.353,IAT(Formal),2021.2.3,Win32,60.24096386,,,,,,,,,,,,,,,,e,1,0.4956,0,48,48,64,1,俺,e,,,,,,,,,,,,,,,,,,,,,,,,,,,,,,,,,,,,,,,,,
,,,,,,,,,,,,,1,001,2024-08-23_14h03.14.353,IAT(Formal),2021.2.3,Win32,60.24096386,,,,,,,,,,,,,,,,e,1,0.6689,0,49,49,25,1,细腻,e,,,,,,,,,,,,,,,,,,,,,,,,,,,,,,,,,,,,,,,,,
,,,,,,,,,,,,,1,001,2024-08-23_14h03.14.353,IAT(Formal),2021.2.3,Win32,60.24096386,,,,,,,,,,,,,,,,i,1,0.5602,0,50,50,35,1,消极,i,,,,,,,,,,,,,,,,,,,,,,,,,,,,,,,,,,,,,,,,,
,,,,,,,,,,,,,1,001,2024-08-23_14h03.14.353,IAT(Formal),2021.2.3,Win32,60.24096386,,,,,,,,,,,,,,,,e,1,0.5181,0,51,51,10,1,优秀,e,,,,,,,,,,,,,,,,,,,,,,,,,,,,,,,,,,,,,,,,,
,,,,,,,,,,,,,1,001,2024-08-23_14h03.14.353,IAT(Formal),2021.2.3,Win32,60.24096386,,,,,,,,,,,,,,,,i,1,0.5638,0,52,52,46,1,野蛮,i,,,,,,,,,,,,,,,,,,,,,,,,,,,,,,,,,,,,,,,,,
,,,,,,,,,,,,,1,001,2024-08-23_14h03.14.353,IAT(Formal),2021.2.3,Win32,60.24096386,,,,,,,,,,,,,,,,i,1,0.6436,0,53,53,32,1,愚蠢,i,,,,,,,,,,,,,,,,,,,,,,,,,,,,,,,,,,,,,,,,,
,,,,,,,,,,,,,1,001,2024-08-23_14h03.14.353,IAT(Formal),2021.2.3,Win32,60.24096386,,,,,,,,,,,,,,,,e,1,0.5097,0,54,54,15,1,诚实,e,,,,,,,,,,,,,,,,,,,,,,,,,,,,,,,,,,,,,,,,,
,,,,,,,,,,,,,1,001,2024-08-23_14h03.14.353,IAT(Formal),2021.2.3,Win32,60.24096386,,,,,,,,,,,,,,,,e,1,0.5601,0,55,55,71,1,我的,e,,,,,,,,,,,,,,,,,,,,,,,,,,,,,,,,,,,,,,,,,
,,,,,,,,,,,,,1,001,2024-08-23_14h03.14.353,IAT(Formal),2021.2.3,Win32,60.24096386,,,,,,,,,,,,,,,,i,1,0.4701,0,56,56,49,1,下贱,i,,,,,,,,,,,,,,,,,,,,,,,,,,,,,,,,,,,,,,,,,
,,,,,,,,,,,,,1,001,2024-08-23_14h03.14.353,IAT(Formal),2021.2.3,Win32,60.24096386,,,,,,,,,,,,,,,,e,1,0.5245,0,57,57,27,1,热情,e,,,,,,,,,,,,,,,,,,,,,,,,,,,,,,,,,,,,,,,,,
,,,,,,,,,,,,,1,001,2024-08-23_14h03.14.353,IAT(Formal),2021.2.3,Win32,60.24096386,,,,,,,,,,,,,,,,i,1,0.5158,0,58,58,65,1,他,i,,,,,,,,,,,,,,,,,,,,,,,,,,,,,,,,,,,,,,,,,
,,,,,,,,,,,,,1,001,2024-08-23_14h03.14.353,IAT(Formal),2021.2.3,Win32,60.24096386,,,,,,,,,,,,,,,,e,1,0.4474,0,59,59,53,1,自己,e,,,,,,,,,,,,,,,,,,,,,,,,,,,,,,,,,,,,,,,,,
,,,,,,,,,,,,,1,001,2024-08-23_14h03.14.353,IAT(Formal),2021.2.3,Win32,60.24096386,,,,,,,,,,,,,,,,i,1,0.564,0,60,60,43,1,自私,i,,,,,,,,,,,,,,,,,,,,,,,,,,,,,,,,,,,,,,,,,
,,,,,,,,,,,,,1,001,2024-08-23_14h03.14.353,IAT(Formal),2021.2.3,Win32,60.24096386,,,,,,,,,,,,,,,,e,1,0.4713,0,61,61,61,1,我的,e,,,,,,,,,,,,,,,,,,,,,,,,,,,,,,,,,,,,,,,,,
,,,,,,,,,,,,,1,001,2024-08-23_14h03.14.353,IAT(Formal),2021.2.3,Win32,60.24096386,,,,,,,,,,,,,,,,e,1,0.4793,0,62,62,60,1,我,e,,,,,,,,,,,,,,,,,,,,,,,,,,,,,,,,,,,,,,,,,
,,,,,,,,,,,,,1,001,2024-08-23_14h03.14.353,IAT(Formal),2021.2.3,Win32,60.24096386,,,,,,,,,,,,,,,,e,1,0.4653,0,63,63,63,1,自己,e,,,,,,,,,,,,,,,,,,,,,,,,,,,,,,,,,,,,,,,,,
,,,,,,,,,,,,,1,001,2024-08-23_14h03.14.353,IAT(Formal),2021.2.3,Win32,60.24096386,,,,,,,,,,,,,,,,i,1,0.5316,0,64,64,33,1,刻薄,i,,,,,,,,,,,,,,,,,,,,,,,,,,,,,,,,,,,,,,,,,
,,,,,,,,,,,,,1,001,2024-08-23_14h03.14.353,IAT(Formal),2021.2.3,Win32,60.24096386,,,,,,,,,,,,,,,,i,1,0.6573,0,65,65,37,1,傲慢,i,,,,,,,,,,,,,,,,,,,,,,,,,,,,,,,,,,,,,,,,,
,,,,,,,,,,,,,1,001,2024-08-23_14h03.14.353,IAT(Formal),2021.2.3,Win32,60.24096386,,,,,,,,,,,,,,,,i,1,0.5733,0,66,66,41,1,散漫,i,,,,,,,,,,,,,,,,,,,,,,,,,,,,,,,,,,,,,,,,,
,,,,,,,,,,,,,1,001,2024-08-23_14h03.14.353,IAT(Formal),2021.2.3,Win32,60.24096386,,,,,,,,,,,,,,,,i,1,0.5653,0,67,67,56,1,他们,i,,,,,,,,,,,,,,,,,,,,,,,,,,,,,,,,,,,,,,,,,
,,,,,,,,,,,,,1,001,2024-08-23_14h03.14.353,IAT(Formal),2021.2.3,Win32,60.24096386,,,,,,,,,,,,,,,,e,1,0.4877,0,68,68,50,1,我,e,,,,,,,,,,,,,,,,,,,,,,,,,,,,,,,,,,,,,,,,,
,,,,,,,,,,,,,1,001,2024-08-23_14h03.14.353,IAT(Formal),2021.2.3,Win32,60.24096386,,,,,,,,,,,,,,,,i,1,0.3973,0,69,69,78,1,他人,i,,,,,,,,,,,,,,,,,,,,,,,,,,,,,,,,,,,,,,,,,
,,,,,,,,,,,,,1,001,2024-08-23_14h03.14.353,IAT(Formal),2021.2.3,Win32,60.24096386,,,,,,,,,,,,,,,,e,1,0.5594,0,70,70,1,1,我的,e,,,,,,,,,,,,,,,,,,,,,,,,,,,,,,,,,,,,,,,,,
,,,,,,,,,,,,,1,001,2024-08-23_14h03.14.353,IAT(Formal),2021.2.3,Win32,60.24096386,,,,,,,,,,,,,,,,i,1,0.4459,0,71,71,57,1,他的,i,,,,,,,,,,,,,,,,,,,,,,,,,,,,,,,,,,,,,,,,,
,,,,,,,,,,,,,1,001,2024-08-23_14h03.14.353,IAT(Formal),2021.2.3,Win32,60.24096386,,,,,,,,,,,,,,,,e,1,0.6624,0,72,72,16,1,正直,e,,,,,,,,,,,,,,,,,,,,,,,,,,,,,,,,,,,,,,,,,
,,,,,,,,,,,,,1,001,2024-08-23_14h03.14.353,IAT(Formal),2021.2.3,Win32,60.24096386,,,,,,,,,,,,,,,,i,1,0.4625,0,73,73,58,1,他人,i,,,,,,,,,,,,,,,,,,,,,,,,,,,,,,,,,,,,,,,,,
,,,,,,,,,,,,,1,001,2024-08-23_14h03.14.353,IAT(Formal),2021.2.3,Win32,60.24096386,,,,,,,,,,,,,,,,e,1,0.8652,0,74,74,22,1,无私,e,,,,,,,,,,,,,,,,,,,,,,,,,,,,,,,,,,,,,,,,,
,,,,,,,,,,,,,1,001,2024-08-23_14h03.14.353,IAT(Formal),2021.2.3,Win32,60.24096386,,,,,,,,,,,,,,,,i,1,0.5466,0,75,75,9,1,其他,i,,,,,,,,,,,,,,,,,,,,,,,,,,,,,,,,,,,,,,,,,
,,,,,,,,,,,,,1,001,2024-08-23_14h03.14.353,IAT(Formal),2021.2.3,Win32,60.24096386,,,,,,,,,,,,,,,,e,1,0.5187,0,76,76,17,1,勇敢,e,,,,,,,,,,,,,,,,,,,,,,,,,,,,,,,,,,,,,,,,,
,,,,,,,,,,,,,1,001,2024-08-23_14h03.14.353,IAT(Formal),2021.2.3,Win32,60.24096386,,,,,,,,,,,,,,,,e,1,0.7417,0,77,77,21,1,稳重,e,,,,,,,,,,,,,,,,,,,,,,,,,,,,,,,,,,,,,,,,,
,,,,,,,,,,,,,1,001,2024-08-23_14h03.14.353,IAT(Formal),2021.2.3,Win32,60.24096386,,,,,,,,,,,,,,,,i,1,0.4795,0,78,78,66,1,他们,i,,,,,,,,,,,,,,,,,,,,,,,,,,,,,,,,,,,,,,,,,
,,,,,,,,,,,,,1,001,2024-08-23_14h03.14.353,IAT(Formal),2021.2.3,Win32,60.24096386,,,,,,,,,,,,,,,,i,1,0.4748,0,79,79,6,1,他们,i,,,,,,,,,,,,,,,,,,,,,,,,,,,,,,,,,,,,,,,,,
,,,,,,,,,,,,,1,001,2024-08-23_14h03.14.353,IAT(Formal),2021.2.3,Win32,60.24096386,,,,,,,,,,,,,,,,e,1,0.4951,,,,,,我的,e,space,7.9604,0,0,0,51,1,,,,,,,,,,,,,,,,,,,,,,,,,,,,,,,,,,
,,,,,,,,,,,,,1,001,2024-08-23_14h03.14.353,IAT(Formal),2021.2.3,Win32,60.24096386,,,,,,,,,,,,,,,,e,1,0.4487,,,,,,我,e,,,0,1,1,60,1,,,,,,,,,,,,,,,,,,,,,,,,,,,,,,,,,,
,,,,,,,,,,,,,1,001,2024-08-23_14h03.14.353,IAT(Formal),2021.2.3,Win32,60.24096386,,,,,,,,,,,,,,,,e,1,0.5342,,,,,,正直,e,,,0,2,2,16,1,,,,,,,,,,,,,,,,,,,,,,,,,,,,,,,,,,
,,,,,,,,,,,,,1,001,2024-08-23_14h03.14.353,IAT(Formal),2021.2.3,Win32,60.24096386,,,,,,,,,,,,,,,,i,1,0.5799,,,,,,其他,i,,,0,3,3,59,1,,,,,,,,,,,,,,,,,,,,,,,,,,,,,,,,,,
,,,,,,,,,,,,,1,001,2024-08-23_14h03.14.353,IAT(Formal),2021.2.3,Win32,60.24096386,,,,,,,,,,,,,,,,e,1,0.5639,,,,,,细腻,e,,,0,4,4,25,1,,,,,,,,,,,,,,,,,,,,,,,,,,,,,,,,,,
,,,,,,,,,,,,,1,001,2024-08-23_14h03.14.353,IAT(Formal),2021.2.3,Win32,60.24096386,,,,,,,,,,,,,,,,i,1,0.4468,,,,,,他的,i,,,0,5,5,77,1,,,,,,,,,,,,,,,,,,,,,,,,,,,,,,,,,,
,,,,,,,,,,,,,1,001,2024-08-23_14h03.14.353,IAT(Formal),2021.2.3,Win32,60.24096386,,,,,,,,,,,,,,,,e,1,0.5189,,,,,,我们,e,,,0,6,6,2,1,,,,,,,,,,,,,,,,,,,,,,,,,,,,,,,,,,
,,,,,,,,,,,,,1,001,2024-08-23_14h03.14.353,IAT(Formal),2021.2.3,Win32,60.24096386,,,,,,,,,,,,,,,,i,1,0.5844,,,,,,散漫,i,,,0,7,7,41,1,,,,,,,,,,,,,,,,,,,,,,,,,,,,,,,,,,
,,,,,,,,,,,,,1,001,2024-08-23_14h03.14.353,IAT(Formal),2021.2.3,Win32,60.24096386,,,,,,,,,,,,,,,,i,1,0.5676,,,,,,刻薄,i,,,0,8,8,33,1,,,,,,,,,,,,,,,,,,,,,,,,,,,,,,,,,,
,,,,,,,,,,,,,1,001,2024-08-23_14h03.14.353,IAT(Formal),2021.2.3,Win32,60.24096386,,,,,,,,,,,,,,,,e,1,0.5829,,,,,,俺,e,,,0,9,9,4,1,,,,,,,,,,,,,,,,,,,,,,,,,,,,,,,,,,
,,,,,,,,,,,,,1,001,2024-08-23_14h03.14.353,IAT(Formal),2021.2.3,Win32,60.24096386,,,,,,,,,,,,,,,,e,1,0.5478,,,,,,我们,e,,,0,10,10,72,1,,,,,,,,,,,,,,,,,,,,,,,,,,,,,,,,,,
,,,,,,,,,,,,,1,001,2024-08-23_14h03.14.353,IAT(Formal),2021.2.3,Win32,60.24096386,,,,,,,,,,,,,,,,i,1,0.6173,,,,,,轻率,i,,,0,11,11,48,1,,,,,,,,,,,,,,,,,,,,,,,,,,,,,,,,,,
,,,,,,,,,,,,,1,001,2024-08-23_14h03.14.353,IAT(Formal),2021.2.3,Win32,60.24096386,,,,,,,,,,,,,,,,i,1,0.4377,,,,,,其他,i,,,0,12,12,9,1,,,,,,,,,,,,,,,,,,,,,,,,,,,,,,,,,,
,,,,,,,,,,,,,1,001,2024-08-23_14h03.14.353,IAT(Formal),2021.2.3,Win32,60.24096386,,,,,,,,,,,,,,,,i,1,0.4838,,,,,,消极,i,,,0,13,13,35,1,,,,,,,,,,,,,,,,,,,,,,,,,,,,,,,,,,
,,,,,,,,,,,,,1,001,2024-08-23_14h03.14.353,IAT(Formal),2021.2.3,Win32,60.24096386,,,,,,,,,,,,,,,,e,1,0.5309,,,,,,稳重,e,,,0,14,14,21,1,,,,,,,,,,,,,,,,,,,,,,,,,,,,,,,,,,
,,,,,,,,,,,,,1,001,2024-08-23_14h03.14.353,IAT(Formal),2021.2.3,Win32,60.24096386,,,,,,,,,,,,,,,,e,1,0.4157,,,,,,乐观,e,,,0,15,15,14,1,,,,,,,,,,,,,,,,,,,,,,,,,,,,,,,,,,
,,,,,,,,,,,,,1,001,2024-08-23_14h03.14.353,IAT(Formal),2021.2.3,Win32,60.24096386,,,,,,,,,,,,,,,,e,1,0.4202,,,,,,我的,e,,,0,16,16,1,1,,,,,,,,,,,,,,,,,,,,,,,,,,,,,,,,,,
,,,,,,,,,,,,,1,001,2024-08-23_14h03.14.353,IAT(Formal),2021.2.3,Win32,60.24096386,,,,,,,,,,,,,,,,i,1,0.5347,,,,,,凶狠,i,,,0,17,17,42,1,,,,,,,,,,,,,,,,,,,,,,,,,,,,,,,,,,
,,,,,,,,,,,,,1,001,2024-08-23_14h03.14.353,IAT(Formal),2021.2.3,Win32,60.24096386,,,,,,,,,,,,,,,,e,1,0.5211,,,,,,诚恳,e,,,0,18,18,29,1,,,,,,,,,,,,,,,,,,,,,,,,,,,,,,,,,,
,,,,,,,,,,,,,1,001,2024-08-23_14h03.14.353,IAT(Formal),2021.2.3,Win32,60.24096386,,,,,,,,,,,,,,,,e,1,0.4806,,,,,,自己,e,,,0,19,19,53,1,,,,,,,,,,,,,,,,,,,,,,,,,,,,,,,,,,
,,,,,,,,,,,,,1,001,2024-08-23_14h03.14.353,IAT(Formal),2021.2.3,Win32,60.24096386,,,,,,,,,,,,,,,,e,1,0.4809,,,,,,我,e,,,0,20,20,0,1,,,,,,,,,,,,,,,,,,,,,,,,,,,,,,,,,,
,,,,,,,,,,,,,1,001,2024-08-23_14h03.14.353,IAT(Formal),2021.2.3,Win32,60.24096386,,,,,,,,,,,,,,,,i,1,0.4611,,,,,,他,i,,,0,21,21,75,1,,,,,,,,,,,,,,,,,,,,,,,,,,,,,,,,,,
,,,,,,,,,,,,,1,001,2024-08-23_14h03.14.353,IAT(Formal),2021.2.3,Win32,60.24096386,,,,,,,,,,,,,,,,e,1,0.6981,,,,,,无私,e,,,0,22,22,22,1,,,,,,,,,,,,,,,,,,,,,,,,,,,,,,,,,,
,,,,,,,,,,,,,1,001,2024-08-23_14h03.14.353,IAT(Formal),2021.2.3,Win32,60.24096386,,,,,,,,,,,,,,,,e,0,0.5456,,,,,,他,i,,,0,23,23,65,1,,,,,,,,,,,,,,,,,,,,,,,,,,,,,,,,,,
,,,,,,,,,,,,,1,001,2024-08-23_14h03.14.353,IAT(Formal),2021.2.3,Win32,60.24096386,,,,,,,,,,,,,,,,e,1,0.5561,,,,,,我们,e,,,0,24,24,62,1,,,,,,,,,,,,,,,,,,,,,,,,,,,,,,,,,,
,,,,,,,,,,,,,1,001,2024-08-23_14h03.14.353,IAT(Formal),2021.2.3,Win32,60.24096386,,,,,,,,,,,,,,,,i,1,0.5334,,,,,,他们,i,,,0,25,25,76,1,,,,,,,,,,,,,,,,,,,,,,,,,,,,,,,,,,
,,,,,,,,,,,,,1,001,2024-08-23_14h03.14.353,IAT(Formal),2021.2.3,Win32,60.24096386,,,,,,,,,,,,,,,,e,1,0.6975,,,,,,俺,e,,,0,26,26,64,1,,,,,,,,,,,,,,,,,,,,,,,,,,,,,,,,,,
,,,,,,,,,,,,,1,001,2024-08-23_14h03.14.353,IAT(Formal),2021.2.3,Win32,60.24096386,,,,,,,,,,,,,,,,i,1,0.7296,,,,,,自卑,i,,,0,27,27,36,1,,,,,,,,,,,,,,,,,,,,,,,,,,,,,,,,,,
,,,,,,,,,,,,,1,001,2024-08-23_14h03.14.353,IAT(Formal),2021.2.3,Win32,60.24096386,,,,,,,,,,,,,,,,e,1,0.4831,,,,,,自己,e,,,0,28,28,73,1,,,,,,,,,,,,,,,,,,,,,,,,,,,,,,,,,,
,,,,,,,,,,,,,1,001,2024-08-23_14h03.14.353,IAT(Formal),2021.2.3,Win32,60.24096386,,,,,,,,,,,,,,,,e,1,0.5481,,,,,,俺,e,,,0,29,29,74,1,,,,,,,,,,,,,,,,,,,,,,,,,,,,,,,,,,
,,,,,,,,,,,,,1,001,2024-08-23_14h03.14.353,IAT(Formal),2021.2.3,Win32,60.24096386,,,,,,,,,,,,,,,,e,1,0.5734,,,,,,我们,e,,,0,30,30,52,1,,,,,,,,,,,,,,,,,,,,,,,,,,,,,,,,,,
,,,,,,,,,,,,,1,001,2024-08-23_14h03.14.353,IAT(Formal),2021.2.3,Win32,60.24096386,,,,,,,,,,,,,,,,i,1,0.5654,,,,,,悲观,i,,,0,31,31,34,1,,,,,,,,,,,,,,,,,,,,,,,,,,,,,,,,,,
,,,,,,,,,,,,,1,001,2024-08-23_14h03.14.353,IAT(Formal),2021.2.3,Win32,60.24096386,,,,,,,,,,,,,,,,i,1,0.55,,,,,,愚蠢,i,,,0,32,32,32,1,,,,,,,,,,,,,,,,,,,,,,,,,,,,,,,,,,
,,,,,,,,,,,,,1,001,2024-08-23_14h03.14.353,IAT(Formal),2021.2.3,Win32,60.24096386,,,,,,,,,,,,,,,,e,1,0.5227,,,,,,我,e,,,0,33,33,50,1,,,,,,,,,,,,,,,,,,,,,,,,,,,,,,,,,,
,,,,,,,,,,,,,1,001,2024-08-23_14h03.14.353,IAT(Formal),2021.2.3,Win32,60.24096386,,,,,,,,,,,,,,,,i,1,0.4924,,,,,,其他,i,,,0,34,34,79,1,,,,,,,,,,,,,,,,,,,,,,,,,,,,,,,,,,
,,,,,,,,,,,,,1,001,2024-08-23_14h03.14.353,IAT(Formal),2021.2.3,Win32,60.24096386,,,,,,,,,,,,,,,,i,1,0.5495,,,,,,他们,i,,,0,35,35,6,1,,,,,,,,,,,,,,,,,,,,,,,,,,,,,,,,,,
,,,,,,,,,,,,,1,001,2024-08-23_14h03.14.353,IAT(Formal),2021.2.3,Win32,60.24096386,,,,,,,,,,,,,,,,i,1,0.545,,,,,,傲慢,i,,,0,36,36,37,1,,,,,,,,,,,,,,,,,,,,,,,,,,,,,,,,,,
,,,,,,,,,,,,,1,001,2024-08-23_14h03.14.353,IAT(Formal),2021.2.3,Win32,60.24096386,,,,,,,,,,,,,,,,e,1,0.4793,,,,,,诚实,e,,,0,37,37,15,1,,,,,,,,,,,,,,,,,,,,,,,,,,,,,,,,,,
,,,,,,,,,,,,,1,001,2024-08-23_14h03.14.353,IAT(Formal),2021.2.3,Win32,60.24096386,,,,,,,,,,,,,,,,e,1,0.7846,,,,,,热情,e,,,0,38,38,27,1,,,,,,,,,,,,,,,,,,,,,,,,,,,,,,,,,,
,,,,,,,,,,,,,1,001,2024-08-23_14h03.14.353,IAT(Formal),2021.2.3,Win32,60.24096386,,,,,,,,,,,,,,,,i,1,0.5437,,,,,,其他,i,,,0,39,39,69,1,,,,,,,,,,,,,,,,,,,,,,,,,,,,,,,,,,
,,,,,,,,,,,,,1,001,2024-08-23_14h03.14.353,IAT(Formal),2021.2.3,Win32,60.24096386,,,,,,,,,,,,,,,,i,1,0.6292,,,,,,冒失,i,,,0,40,40,39,1,,,,,,,,,,,,,,,,,,,,,,,,,,,,,,,,,,
,,,,,,,,,,,,,1,001,2024-08-23_14h03.14.353,IAT(Formal),2021.2.3,Win32,60.24096386,,,,,,,,,,,,,,,,i,1,0.5253,,,,,,卑鄙,i,,,0,41,41,30,1,,,,,,,,,,,,,,,,,,,,,,,,,,,,,,,,,,
,,,,,,,,,,,,,1,001,2024-08-23_14h03.14.353,IAT(Formal),2021.2.3,Win32,60.24096386,,,,,,,,,,,,,,,,e,1,0.6598,,,,,,崇高,e,,,0,42,42,11,1,,,,,,,,,,,,,,,,,,,,,,,,,,,,,,,,,,
,,,,,,,,,,,,,1,001,2024-08-23_14h03.14.353,IAT(Formal),2021.2.3,Win32,60.24096386,,,,,,,,,,,,,,,,e,1,0.5087,,,,,,公正,e,,,0,43,43,23,1,,,,,,,,,,,,,,,,,,,,,,,,,,,,,,,,,,
,,,,,,,,,,,,,1,001,2024-08-23_14h03.14.353,IAT(Formal),2021.2.3,Win32,60.24096386,,,,,,,,,,,,,,,,e,1,0.4445,,,,,,我的,e,,,0,44,44,61,1,,,,,,,,,,,,,,,,,,,,,,,,,,,,,,,,,,
,,,,,,,,,,,,,1,001,2024-08-23_14h03.14.353,IAT(Formal),2021.2.3,Win32,60.24096386,,,,,,,,,,,,,,,,i,1,0.5111,,,,,,下贱,i,,,0,45,45,49,1,,,,,,,,,,,,,,,,,,,,,,,,,,,,,,,,,,
,,,,,,,,,,,,,1,001,2024-08-23_14h03.14.353,IAT(Formal),2021.2.3,Win32,60.24096386,,,,,,,,,,,,,,,,e,1,0.4961,,,,,,我,e,,,0,46,46,70,1,,,,,,,,,,,,,,,,,,,,,,,,,,,,,,,,,,
,,,,,,,,,,,,,1,001,2024-08-23_14h03.14.353,IAT(Formal),2021.2.3,Win32,60.24096386,,,,,,,,,,,,,,,,e,1,0.561,,,,,,勇敢,e,,,0,47,47,17,1,,,,,,,,,,,,,,,,,,,,,,,,,,,,,,,,,,
,,,,,,,,,,,,,1,001,2024-08-23_14h03.14.353,IAT(Formal),2021.2.3,Win32,60.24096386,,,,,,,,,,,,,,,,e,1,0.553,,,,,,冷静,e,,,0,48,48,26,1,,,,,,,,,,,,,,,,,,,,,,,,,,,,,,,,,,
,,,,,,,,,,,,,1,001,2024-08-23_14h03.14.353,IAT(Formal),2021.2.3,Win32,60.24096386,,,,,,,,,,,,,,,,e,1,0.4372,,,,,,自己,e,,,0,49,49,63,1,,,,,,,,,,,,,,,,,,,,,,,,,,,,,,,,,,
,,,,,,,,,,,,,1,001,2024-08-23_14h03.14.353,IAT(Formal),2021.2.3,Win32,60.24096386,,,,,,,,,,,,,,,,e,1,0.4819,,,,,,活泼,e,,,0,50,50,28,1,,,,,,,,,,,,,,,,,,,,,,,,,,,,,,,,,,
,,,,,,,,,,,,,1,001,2024-08-23_14h03.14.353,IAT(Formal),2021.2.3,Win32,60.24096386,,,,,,,,,,,,,,,,i,1,0.6798,,,,,,他的,i,,,0,51,51,57,1,,,,,,,,,,,,,,,,,,,,,,,,,,,,,,,,,,
,,,,,,,,,,,,,1,001,2024-08-23_14h03.14.353,IAT(Formal),2021.2.3,Win32,60.24096386,,,,,,,,,,,,,,,,i,1,0.5752,,,,,,鲁莽,i,,,0,52,52,38,1,,,,,,,,,,,,,,,,,,,,,,,,,,,,,,,,,,
,,,,,,,,,,,,,1,001,2024-08-23_14h03.14.353,IAT(Formal),2021.2.3,Win32,60.24096386,,,,,,,,,,,,,,,,i,1,0.5269,,,,,,他人,i,,,0,53,53,78,1,,,,,,,,,,,,,,,,,,,,,,,,,,,,,,,,,,
,,,,,,,,,,,,,1,001,2024-08-23_14h03.14.353,IAT(Formal),2021.2.3,Win32,60.24096386,,,,,,,,,,,,,,,,i,1,0.5188,,,,,,暴躁,i,,,0,54,54,44,1,,,,,,,,,,,,,,,,,,,,,,,,,,,,,,,,,,
,,,,,,,,,,,,,1,001,2024-08-23_14h03.14.353,IAT(Formal),2021.2.3,Win32,60.24096386,,,,,,,,,,,,,,,,i,1,0.5343,,,,,,他的,i,,,0,55,55,7,1,,,,,,,,,,,,,,,,,,,,,,,,,,,,,,,,,,
,,,,,,,,,,,,,1,001,2024-08-23_14h03.14.353,IAT(Formal),2021.2.3,Win32,60.24096386,,,,,,,,,,,,,,,,i,1,0.4844,,,,,,他人,i,,,0,56,56,58,1,,,,,,,,,,,,,,,,,,,,,,,,,,,,,,,,,,
,,,,,,,,,,,,,1,001,2024-08-23_14h03.14.353,IAT(Formal),2021.2.3,Win32,60.24096386,,,,,,,,,,,,,,,,e,1,0.6267,,,,,,认真,e,,,0,57,57,20,1,,,,,,,,,,,,,,,,,,,,,,,,,,,,,,,,,,
,,,,,,,,,,,,,1,001,2024-08-23_14h03.14.353,IAT(Formal),2021.2.3,Win32,60.24096386,,,,,,,,,,,,,,,,e,1,0.4867,,,,,,我的,e,,,0,58,58,71,1,,,,,,,,,,,,,,,,,,,,,,,,,,,,,,,,,,
,,,,,,,,,,,,,1,001,2024-08-23_14h03.14.353,IAT(Formal),2021.2.3,Win32,60.24096386,,,,,,,,,,,,,,,,i,1,0.8821,,,,,,自私,i,,,0,59,59,43,1,,,,,,,,,,,,,,,,,,,,,,,,,,,,,,,,,,
,,,,,,,,,,,,,1,001,2024-08-23_14h03.14.353,IAT(Formal),2021.2.3,Win32,60.24096386,,,,,,,,,,,,,,,,i,1,0.5881,,,,,,他人,i,,,0,60,60,8,1,,,,,,,,,,,,,,,,,,,,,,,,,,,,,,,,,,
,,,,,,,,,,,,,1,001,2024-08-23_14h03.14.353,IAT(Formal),2021.2.3,Win32,60.24096386,,,,,,,,,,,,,,,,i,1,0.4928,,,,,,虚伪,i,,,0,61,61,31,1,,,,,,,,,,,,,,,,,,,,,,,,,,,,,,,,,,
,,,,,,,,,,,,,1,001,2024-08-23_14h03.14.353,IAT(Formal),2021.2.3,Win32,60.24096386,,,,,,,,,,,,,,,,i,1,0.4666,,,,,,他人,i,,,0,62,62,68,1,,,,,,,,,,,,,,,,,,,,,,,,,,,,,,,,,,
,,,,,,,,,,,,,1,001,2024-08-23_14h03.14.353,IAT(Formal),2021.2.3,Win32,60.24096386,,,,,,,,,,,,,,,,i,1,0.4711,,,,,,执拗,i,,,0,63,63,40,1,,,,,,,,,,,,,,,,,,,,,,,,,,,,,,,,,,
,,,,,,,,,,,,,1,001,2024-08-23_14h03.14.353,IAT(Formal),2021.2.3,Win32,60.24096386,,,,,,,,,,,,,,,,i,1,0.4692,,,,,,他们,i,,,0,64,64,66,1,,,,,,,,,,,,,,,,,,,,,,,,,,,,,,,,,,
,,,,,,,,,,,,,1,001,2024-08-23_14h03.14.353,IAT(Formal),2021.2.3,Win32,60.24096386,,,,,,,,,,,,,,,,i,1,0.4474,,,,,,他,i,,,0,65,65,5,1,,,,,,,,,,,,,,,,,,,,,,,,,,,,,,,,,,
,,,,,,,,,,,,,1,001,2024-08-23_14h03.14.353,IAT(Formal),2021.2.3,Win32,60.24096386,,,,,,,,,,,,,,,,i,1,0.4168,,,,,,他,i,,,0,66,66,55,1,,,,,,,,,,,,,,,,,,,,,,,,,,,,,,,,,,
,,,,,,,,,,,,,1,001,2024-08-23_14h03.14.353,IAT(Formal),2021.2.3,Win32,60.24096386,,,,,,,,,,,,,,,,i,1,0.5125,,,,,,固执,i,,,0,67,67,47,1,,,,,,,,,,,,,,,,,,,,,,,,,,,,,,,,,,
,,,,,,,,,,,,,1,001,2024-08-23_14h03.14.353,IAT(Formal),2021.2.3,Win32,60.24096386,,,,,,,,,,,,,,,,e,1,0.5978,,,,,,俺,e,,,0,68,68,54,1,,,,,,,,,,,,,,,,,,,,,,,,,,,,,,,,,,
,,,,,,,,,,,,,1,001,2024-08-23_14h03.14.353,IAT(Formal),2021.2.3,Win32,60.24096386,,,,,,,,,,,,,,,,e,1,0.6742,,,,,,机智,e,,,0,69,69,19,1,,,,,,,,,,,,,,,,,,,,,,,,,,,,,,,,,,
,,,,,,,,,,,,,1,001,2024-08-23_14h03.14.353,IAT(Formal),2021.2.3,Win32,60.24096386,,,,,,,,,,,,,,,,e,1,0.4668,,,,,,杰出,e,,,0,70,70,13,1,,,,,,,,,,,,,,,,,,,,,,,,,,,,,,,,,,
,,,,,,,,,,,,,1,001,2024-08-23_14h03.14.353,IAT(Formal),2021.2.3,Win32,60.24096386,,,,,,,,,,,,,,,,e,1,0.5639,,,,,,勤奋,e,,,0,71,71,18,1,,,,,,,,,,,,,,,,,,,,,,,,,,,,,,,,,,
,,,,,,,,,,,,,1,001,2024-08-23_14h03.14.353,IAT(Formal),2021.2.3,Win32,60.24096386,,,,,,,,,,,,,,,,e,1,0.4279,,,,,,优秀,e,,,0,72,72,10,1,,,,,,,,,,,,,,,,,,,,,,,,,,,,,,,,,,
,,,,,,,,,,,,,1,001,2024-08-23_14h03.14.353,IAT(Formal),2021.2.3,Win32,60.24096386,,,,,,,,,,,,,,,,e,1,0.4467,,,,,,朴实,e,,,0,73,73,24,1,,,,,,,,,,,,,,,,,,,,,,,,,,,,,,,,,,
,,,,,,,,,,,,,1,001,2024-08-23_14h03.14.353,IAT(Formal),2021.2.3,Win32,60.24096386,,,,,,,,,,,,,,,,i,1,0.5754,,,,,,猖狂,i,,,0,74,74,45,1,,,,,,,,,,,,,,,,,,,,,,,,,,,,,,,,,,
,,,,,,,,,,,,,1,001,2024-08-23_14h03.14.353,IAT(Formal),2021.2.3,Win32,60.24096386,,,,,,,,,,,,,,,,e,1,0.6119,,,,,,自己,e,,,0,75,75,3,1,,,,,,,,,,,,,,,,,,,,,,,,,,,,,,,,,,
,,,,,,,,,,,,,1,001,2024-08-23_14h03.14.353,IAT(Formal),2021.2.3,Win32,60.24096386,,,,,,,,,,,,,,,,i,1,0.5588,,,,,,他们,i,,,0,76,76,56,1,,,,,,,,,,,,,,,,,,,,,,,,,,,,,,,,,,
,,,,,,,,,,,,,1,001,2024-08-23_14h03.14.353,IAT(Formal),2021.2.3,Win32,60.24096386,,,,,,,,,,,,,,,,i,1,0.4965,,,,,,他的,i,,,0,77,77,67,1,,,,,,,,,,,,,,,,,,,,,,,,,,,,,,,,,,
,,,,,,,,,,,,,1,001,2024-08-23_14h03.14.353,IAT(Formal),2021.2.3,Win32,60.24096386,,,,,,,,,,,,,,,,i,1,0.5428,,,,,,野蛮,i,,,0,78,78,46,1,,,,,,,,,,,,,,,,,,,,,,,,,,,,,,,,,,
,,,,,,,,,,,,,1,001,2024-08-23_14h03.14.353,IAT(Formal),2021.2.3,Win32,60.24096386,,,,,,,,,,,,,,,,e,1,0.6283,,,,,,聪明,e,,,0,79,79,12,1,,,,,,,,,,,,,,,,,,,,,,,,,,,,,,,,,,
,,,,,,,,,,,,,1,001,2024-08-23_14h03.14.353,IAT(Formal),2021.2.3,Win32,60.24096386,,,,,,,,,,,,,,,,e,1,0.5284,,,,,,冷静,e,,,1,0,80,26,1,,,,,,,,,,,,,,,,,,,,,,,,,,,,,,,,,,
,,,,,,,,,,,,,1,001,2024-08-23_14h03.14.353,IAT(Formal),2021.2.3,Win32,60.24096386,,,,,,,,,,,,,,,,e,1,0.4379,,,,,,我们,e,,,1,1,81,62,1,,,,,,,,,,,,,,,,,,,,,,,,,,,,,,,,,,
,,,,,,,,,,,,,1,001,2024-08-23_14h03.14.353,IAT(Formal),2021.2.3,Win32,60.24096386,,,,,,,,,,,,,,,,i,1,0.7228,,,,,,他们,i,,,1,2,82,6,1,,,,,,,,,,,,,,,,,,,,,,,,,,,,,,,,,,
,,,,,,,,,,,,,1,001,2024-08-23_14h03.14.353,IAT(Formal),2021.2.3,Win32,60.24096386,,,,,,,,,,,,,,,,e,1,0.6017,,,,,,活泼,e,,,1,3,83,28,1,,,,,,,,,,,,,,,,,,,,,,,,,,,,,,,,,,
,,,,,,,,,,,,,1,001,2024-08-23_14h03.14.353,IAT(Formal),2021.2.3,Win32,60.24096386,,,,,,,,,,,,,,,,e,1,0.4914,,,,,,机智,e,,,1,4,84,19,1,,,,,,,,,,,,,,,,,,,,,,,,,,,,,,,,,,
,,,,,,,,,,,,,1,001,2024-08-23_14h03.14.353,IAT(Formal),2021.2.3,Win32,60.24096386,,,,,,,,,,,,,,,,i,1,0.5586,,,,,,下贱,i,,,1,5,85,49,1,,,,,,,,,,,,,,,,,,,,,,,,,,,,,,,,,,
,,,,,,,,,,,,,1,001,2024-08-23_14h03.14.353,IAT(Formal),2021.2.3,Win32,60.24096386,,,,,,,,,,,,,,,,i,1,0.4169,,,,,,他人,i,,,1,6,86,78,1,,,,,,,,,,,,,,,,,,,,,,,,,,,,,,,,,,
,,,,,,,,,,,,,1,001,2024-08-23_14h03.14.353,IAT(Formal),2021.2.3,Win32,60.24096386,,,,,,,,,,,,,,,,i,1,0.5078,,,,,,愚蠢,i,,,1,7,87,32,1,,,,,,,,,,,,,,,,,,,,,,,,,,,,,,,,,,
,,,,,,,,,,,,,1,001,2024-08-23_14h03.14.353,IAT(Formal),2021.2.3,Win32,60.24096386,,,,,,,,,,,,,,,,e,1,0.5264,,,,,,我们,e,,,1,8,88,52,1,,,,,,,,,,,,,,,,,,,,,,,,,,,,,,,,,,
,,,,,,,,,,,,,1,001,2024-08-23_14h03.14.353,IAT(Formal),2021.2.3,Win32,60.24096386,,,,,,,,,,,,,,,,e,1,0.6463,,,,,,俺,e,,,1,9,89,74,1,,,,,,,,,,,,,,,,,,,,,,,,,,,,,,,,,,
,,,,,,,,,,,,,1,001,2024-08-23_14h03.14.353,IAT(Formal),2021.2.3,Win32,60.24096386,,,,,,,,,,,,,,,,e,1,0.4765,,,,,,俺,e,,,1,10,90,64,1,,,,,,,,,,,,,,,,,,,,,,,,,,,,,,,,,,
,,,,,,,,,,,,,1,001,2024-08-23_14h03.14.353,IAT(Formal),2021.2.3,Win32,60.24096386,,,,,,,,,,,,,,,,e,1,0.9097,,,,,,无私,e,,,1,11,91,22,1,,,,,,,,,,,,,,,,,,,,,,,,,,,,,,,,,,
,,,,,,,,,,,,,1,001,2024-08-23_14h03.14.353,IAT(Formal),2021.2.3,Win32,60.24096386,,,,,,,,,,,,,,,,e,1,0.5619,,,,,,公正,e,,,1,12,92,23,1,,,,,,,,,,,,,,,,,,,,,,,,,,,,,,,,,,
,,,,,,,,,,,,,1,001,2024-08-23_14h03.14.353,IAT(Formal),2021.2.3,Win32,60.24096386,,,,,,,,,,,,,,,,i,1,0.6442,,,,,,他的,i,,,1,13,93,77,1,,,,,,,,,,,,,,,,,,,,,,,,,,,,,,,,,,
,,,,,,,,,,,,,1,001,2024-08-23_14h03.14.353,IAT(Formal),2021.2.3,Win32,60.24096386,,,,,,,,,,,,,,,,i,1,0.5037,,,,,,傲慢,i,,,1,14,94,37,1,,,,,,,,,,,,,,,,,,,,,,,,,,,,,,,,,,
,,,,,,,,,,,,,1,001,2024-08-23_14h03.14.353,IAT(Formal),2021.2.3,Win32,60.24096386,,,,,,,,,,,,,,,,i,1,0.4427,,,,,,他人,i,,,1,15,95,8,1,,,,,,,,,,,,,,,,,,,,,,,,,,,,,,,,,,
,,,,,,,,,,,,,1,001,2024-08-23_14h03.14.353,IAT(Formal),2021.2.3,Win32,60.24096386,,,,,,,,,,,,,,,,i,1,0.484,,,,,,卑鄙,i,,,1,16,96,30,1,,,,,,,,,,,,,,,,,,,,,,,,,,,,,,,,,,
,,,,,,,,,,,,,1,001,2024-08-23_14h03.14.353,IAT(Formal),2021.2.3,Win32,60.24096386,,,,,,,,,,,,,,,,e,1,0.5614,,,,,,俺,e,,,1,17,97,54,1,,,,,,,,,,,,,,,,,,,,,,,,,,,,,,,,,,
,,,,,,,,,,,,,1,001,2024-08-23_14h03.14.353,IAT(Formal),2021.2.3,Win32,60.24096386,,,,,,,,,,,,,,,,e,1,0.4632,,,,,,我,e,,,1,18,98,60,1,,,,,,,,,,,,,,,,,,,,,,,,,,,,,,,,,,
,,,,,,,,,,,,,1,001,2024-08-23_14h03.14.353,IAT(Formal),2021.2.3,Win32,60.24096386,,,,,,,,,,,,,,,,i,1,0.5279,,,,,,散漫,i,,,1,19,99,41,1,,,,,,,,,,,,,,,,,,,,,,,,,,,,,,,,,,
,,,,,,,,,,,,,1,001,2024-08-23_14h03.14.353,IAT(Formal),2021.2.3,Win32,60.24096386,,,,,,,,,,,,,,,,e,1,0.4864,,,,,,自己,e,,,1,20,100,3,1,,,,,,,,,,,,,,,,,,,,,,,,,,,,,,,,,,
,,,,,,,,,,,,,1,001,2024-08-23_14h03.14.353,IAT(Formal),2021.2.3,Win32,60.24096386,,,,,,,,,,,,,,,,i,1,0.5622,,,,,,刻薄,i,,,1,21,101,33,1,,,,,,,,,,,,,,,,,,,,,,,,,,,,,,,,,,
,,,,,,,,,,,,,1,001,2024-08-23_14h03.14.353,IAT(Formal),2021.2.3,Win32,60.24096386,,,,,,,,,,,,,,,,i,1,0.5113,,,,,,他们,i,,,1,22,102,66,1,,,,,,,,,,,,,,,,,,,,,,,,,,,,,,,,,,
,,,,,,,,,,,,,1,001,2024-08-23_14h03.14.353,IAT(Formal),2021.2.3,Win32,60.24096386,,,,,,,,,,,,,,,,e,1,0.4981,,,,,,优秀,e,,,1,23,103,10,1,,,,,,,,,,,,,,,,,,,,,,,,,,,,,,,,,,
,,,,,,,,,,,,,1,001,2024-08-23_14h03.14.353,IAT(Formal),2021.2.3,Win32,60.24096386,,,,,,,,,,,,,,,,i,1,0.6295,,,,,,其他,i,,,1,24,104,79,1,,,,,,,,,,,,,,,,,,,,,,,,,,,,,,,,,,
,,,,,,,,,,,,,1,001,2024-08-23_14h03.14.353,IAT(Formal),2021.2.3,Win32,60.24096386,,,,,,,,,,,,,,,,i,1,0.53,,,,,,他,i,,,1,25,105,75,1,,,,,,,,,,,,,,,,,,,,,,,,,,,,,,,,,,
,,,,,,,,,,,,,1,001,2024-08-23_14h03.14.353,IAT(Formal),2021.2.3,Win32,60.24096386,,,,,,,,,,,,,,,,i,1,0.4512,,,,,,其他,i,,,1,26,106,69,1,,,,,,,,,,,,,,,,,,,,,,,,,,,,,,,,,,
,,,,,,,,,,,,,1,001,2024-08-23_14h03.14.353,IAT(Formal),2021.2.3,Win32,60.24096386,,,,,,,,,,,,,,,,e,1,0.4998,,,,,,我的,e,,,1,27,107,71,1,,,,,,,,,,,,,,,,,,,,,,,,,,,,,,,,,,
,,,,,,,,,,,,,1,001,2024-08-23_14h03.14.353,IAT(Formal),2021.2.3,Win32,60.24096386,,,,,,,,,,,,,,,,i,1,0.4896,,,,,,其他,i,,,1,28,108,9,1,,,,,,,,,,,,,,,,,,,,,,,,,,,,,,,,,,
,,,,,,,,,,,,,1,001,2024-08-23_14h03.14.353,IAT(Formal),2021.2.3,Win32,60.24096386,,,,,,,,,,,,,,,,e,1,0.4653,,,,,,崇高,e,,,1,29,109,11,1,,,,,,,,,,,,,,,,,,,,,,,,,,,,,,,,,,
,,,,,,,,,,,,,1,001,2024-08-23_14h03.14.353,IAT(Formal),2021.2.3,Win32,60.24096386,,,,,,,,,,,,,,,,i,1,0.5239,,,,,,猖狂,i,,,1,30,110,45,1,,,,,,,,,,,,,,,,,,,,,,,,,,,,,,,,,,
,,,,,,,,,,,,,1,001,2024-08-23_14h03.14.353,IAT(Formal),2021.2.3,Win32,60.24096386,,,,,,,,,,,,,,,,i,1,0.5666,,,,,,他,i,,,1,31,111,5,1,,,,,,,,,,,,,,,,,,,,,,,,,,,,,,,,,,
,,,,,,,,,,,,,1,001,2024-08-23_14h03.14.353,IAT(Formal),2021.2.3,Win32,60.24096386,,,,,,,,,,,,,,,,e,1,0.535,,,,,,乐观,e,,,1,32,112,14,1,,,,,,,,,,,,,,,,,,,,,,,,,,,,,,,,,,
,,,,,,,,,,,,,1,001,2024-08-23_14h03.14.353,IAT(Formal),2021.2.3,Win32,60.24096386,,,,,,,,,,,,,,,,i,1,0.5069,,,,,,野蛮,i,,,1,33,113,46,1,,,,,,,,,,,,,,,,,,,,,,,,,,,,,,,,,,
,,,,,,,,,,,,,1,001,2024-08-23_14h03.14.353,IAT(Formal),2021.2.3,Win32,60.24096386,,,,,,,,,,,,,,,,i,1,0.5518,,,,,,他们,i,,,1,34,114,56,1,,,,,,,,,,,,,,,,,,,,,,,,,,,,,,,,,,
,,,,,,,,,,,,,1,001,2024-08-23_14h03.14.353,IAT(Formal),2021.2.3,Win32,60.24096386,,,,,,,,,,,,,,,,i,1,0.55,,,,,,暴躁,i,,,1,35,115,44,1,,,,,,,,,,,,,,,,,,,,,,,,,,,,,,,,,,
,,,,,,,,,,,,,1,001,2024-08-23_14h03.14.353,IAT(Formal),2021.2.3,Win32,60.24096386,,,,,,,,,,,,,,,,e,1,0.578,,,,,,我,e,,,1,36,116,50,1,,,,,,,,,,,,,,,,,,,,,,,,,,,,,,,,,,
,,,,,,,,,,,,,1,001,2024-08-23_14h03.14.353,IAT(Formal),2021.2.3,Win32,60.24096386,,,,,,,,,,,,,,,,e,1,0.5648,,,,,,聪明,e,,,1,37,117,12,1,,,,,,,,,,,,,,,,,,,,,,,,,,,,,,,,,,
,,,,,,,,,,,,,1,001,2024-08-23_14h03.14.353,IAT(Formal),2021.2.3,Win32,60.24096386,,,,,,,,,,,,,,,,i,1,0.554,,,,,,虚伪,i,,,1,38,118,31,1,,,,,,,,,,,,,,,,,,,,,,,,,,,,,,,,,,
,,,,,,,,,,,,,1,001,2024-08-23_14h03.14.353,IAT(Formal),2021.2.3,Win32,60.24096386,,,,,,,,,,,,,,,,e,1,0.5622,,,,,,勇敢,e,,,1,39,119,17,1,,,,,,,,,,,,,,,,,,,,,,,,,,,,,,,,,,
,,,,,,,,,,,,,1,001,2024-08-23_14h03.14.353,IAT(Formal),2021.2.3,Win32,60.24096386,,,,,,,,,,,,,,,,e,1,0.544,,,,,,我们,e,,,1,40,120,72,1,,,,,,,,,,,,,,,,,,,,,,,,,,,,,,,,,,
,,,,,,,,,,,,,1,001,2024-08-23_14h03.14.353,IAT(Formal),2021.2.3,Win32,60.24096386,,,,,,,,,,,,,,,,e,1,0.5952,,,,,,诚恳,e,,,1,41,121,29,1,,,,,,,,,,,,,,,,,,,,,,,,,,,,,,,,,,
,,,,,,,,,,,,,1,001,2024-08-23_14h03.14.353,IAT(Formal),2021.2.3,Win32,60.24096386,,,,,,,,,,,,,,,,i,1,0.6299,,,,,,悲观,i,,,1,42,122,34,1,,,,,,,,,,,,,,,,,,,,,,,,,,,,,,,,,,
,,,,,,,,,,,,,1,001,2024-08-23_14h03.14.353,IAT(Formal),2021.2.3,Win32,60.24096386,,,,,,,,,,,,,,,,i,1,0.489,,,,,,鲁莽,i,,,1,43,123,38,1,,,,,,,,,,,,,,,,,,,,,,,,,,,,,,,,,,
,,,,,,,,,,,,,1,001,2024-08-23_14h03.14.353,IAT(Formal),2021.2.3,Win32,60.24096386,,,,,,,,,,,,,,,,e,1,0.5447,,,,,,勤奋,e,,,1,44,124,18,1,,,,,,,,,,,,,,,,,,,,,,,,,,,,,,,,,,
,,,,,,,,,,,,,1,001,2024-08-23_14h03.14.353,IAT(Formal),2021.2.3,Win32,60.24096386,,,,,,,,,,,,,,,,e,1,0.4157,,,,,,稳重,e,,,1,45,125,21,1,,,,,,,,,,,,,,,,,,,,,,,,,,,,,,,,,,
,,,,,,,,,,,,,1,001,2024-08-23_14h03.14.353,IAT(Formal),2021.2.3,Win32,60.24096386,,,,,,,,,,,,,,,,e,1,0.3905,,,,,,自己,e,,,1,46,126,63,1,,,,,,,,,,,,,,,,,,,,,,,,,,,,,,,,,,
,,,,,,,,,,,,,1,001,2024-08-23_14h03.14.353,IAT(Formal),2021.2.3,Win32,60.24096386,,,,,,,,,,,,,,,,e,1,0.4359,,,,,,我,e,,,1,47,127,70,1,,,,,,,,,,,,,,,,,,,,,,,,,,,,,,,,,,
,,,,,,,,,,,,,1,001,2024-08-23_14h03.14.353,IAT(Formal),2021.2.3,Win32,60.24096386,,,,,,,,,,,,,,,,e,1,0.4046,,,,,,我们,e,,,1,48,128,2,1,,,,,,,,,,,,,,,,,,,,,,,,,,,,,,,,,,
,,,,,,,,,,,,,1,001,2024-08-23_14h03.14.353,IAT(Formal),2021.2.3,Win32,60.24096386,,,,,,,,,,,,,,,,i,1,1.0116,,,,,,自卑,i,,,1,49,129,36,1,,,,,,,,,,,,,,,,,,,,,,,,,,,,,,,,,,
,,,,,,,,,,,,,1,001,2024-08-23_14h03.14.353,IAT(Formal),2021.2.3,Win32,60.24096386,,,,,,,,,,,,,,,,i,1,0.5424,,,,,,他的,i,,,1,50,130,57,1,,,,,,,,,,,,,,,,,,,,,,,,,,,,,,,,,,
,,,,,,,,,,,,,1,001,2024-08-23_14h03.14.353,IAT(Formal),2021.2.3,Win32,60.24096386,,,,,,,,,,,,,,,,i,1,0.5669,,,,,,轻率,i,,,1,51,131,48,1,,,,,,,,,,,,,,,,,,,,,,,,,,,,,,,,,,
,,,,,,,,,,,,,1,001,2024-08-23_14h03.14.353,IAT(Formal),2021.2.3,Win32,60.24096386,,,,,,,,,,,,,,,,i,1,0.5256,,,,,,固执,i,,,1,52,132,47,1,,,,,,,,,,,,,,,,,,,,,,,,,,,,,,,,,,
,,,,,,,,,,,,,1,001,2024-08-23_14h03.14.353,IAT(Formal),2021.2.3,Win32,60.24096386,,,,,,,,,,,,,,,,i,1,0.4539,,,,,,他人,i,,,1,53,133,68,1,,,,,,,,,,,,,,,,,,,,,,,,,,,,,,,,,,
,,,,,,,,,,,,,1,001,2024-08-23_14h03.14.353,IAT(Formal),2021.2.3,Win32,60.24096386,,,,,,,,,,,,,,,,i,1,0.4647,,,,,,他的,i,,,1,54,134,7,1,,,,,,,,,,,,,,,,,,,,,,,,,,,,,,,,,,
,,,,,,,,,,,,,1,001,2024-08-23_14h03.14.353,IAT(Formal),2021.2.3,Win32,60.24096386,,,,,,,,,,,,,,,,e,1,0.592,,,,,,朴实,e,,,1,55,135,24,1,,,,,,,,,,,,,,,,,,,,,,,,,,,,,,,,,,
,,,,,,,,,,,,,1,001,2024-08-23_14h03.14.353,IAT(Formal),2021.2.3,Win32,60.24096386,,,,,,,,,,,,,,,,i,1,0.6485,,,,,,执拗,i,,,1,56,136,40,1,,,,,,,,,,,,,,,,,,,,,,,,,,,,,,,,,,
,,,,,,,,,,,,,1,001,2024-08-23_14h03.14.353,IAT(Formal),2021.2.3,Win32,60.24096386,,,,,,,,,,,,,,,,i,1,0.5904,,,,,,他,i,,,1,57,137,55,1,,,,,,,,,,,,,,,,,,,,,,,,,,,,,,,,,,
,,,,,,,,,,,,,1,001,2024-08-23_14h03.14.353,IAT(Formal),2021.2.3,Win32,60.24096386,,,,,,,,,,,,,,,,e,1,0.6527,,,,,,细腻,e,,,1,58,138,25,1,,,,,,,,,,,,,,,,,,,,,,,,,,,,,,,,,,
,,,,,,,,,,,,,1,001,2024-08-23_14h03.14.353,IAT(Formal),2021.2.3,Win32,60.24096386,,,,,,,,,,,,,,,,e,1,0.5819,,,,,,诚实,e,,,1,59,139,15,1,,,,,,,,,,,,,,,,,,,,,,,,,,,,,,,,,,
,,,,,,,,,,,,,1,001,2024-08-23_14h03.14.353,IAT(Formal),2021.2.3,Win32,60.24096386,,,,,,,,,,,,,,,,e,1,0.4504,,,,,,我的,e,,,1,60,140,51,1,,,,,,,,,,,,,,,,,,,,,,,,,,,,,,,,,,
,,,,,,,,,,,,,1,001,2024-08-23_14h03.14.353,IAT(Formal),2021.2.3,Win32,60.24096386,,,,,,,,,,,,,,,,i,1,0.4935,,,,,,他,i,,,1,61,141,65,1,,,,,,,,,,,,,,,,,,,,,,,,,,,,,,,,,,
,,,,,,,,,,,,,1,001,2024-08-23_14h03.14.353,IAT(Formal),2021.2.3,Win32,60.24096386,,,,,,,,,,,,,,,,i,1,0.4788,,,,,,他人,i,,,1,62,142,58,1,,,,,,,,,,,,,,,,,,,,,,,,,,,,,,,,,,
,,,,,,,,,,,,,1,001,2024-08-23_14h03.14.353,IAT(Formal),2021.2.3,Win32,60.24096386,,,,,,,,,,,,,,,,i,1,0.516,,,,,,凶狠,i,,,1,63,143,42,1,,,,,,,,,,,,,,,,,,,,,,,,,,,,,,,,,,
,,,,,,,,,,,,,1,001,2024-08-23_14h03.14.353,IAT(Formal),2021.2.3,Win32,60.24096386,,,,,,,,,,,,,,,,e,1,0.5497,,,,,,杰出,e,,,1,64,144,13,1,,,,,,,,,,,,,,,,,,,,,,,,,,,,,,,,,,
,,,,,,,,,,,,,1,001,2024-08-23_14h03.14.353,IAT(Formal),2021.2.3,Win32,60.24096386,,,,,,,,,,,,,,,,e,1,0.4362,,,,,,我,e,,,1,65,145,0,1,,,,,,,,,,,,,,,,,,,,,,,,,,,,,,,,,,
,,,,,,,,,,,,,1,001,2024-08-23_14h03.14.353,IAT(Formal),2021.2.3,Win32,60.24096386,,,,,,,,,,,,,,,,e,1,0.6206,,,,,,热情,e,,,1,66,146,27,1,,,,,,,,,,,,,,,,,,,,,,,,,,,,,,,,,,
,,,,,,,,,,,,,1,001,2024-08-23_14h03.14.353,IAT(Formal),2021.2.3,Win32,60.24096386,,,,,,,,,,,,,,,,e,1,0.5628,,,,,,自己,e,,,1,67,147,53,1,,,,,,,,,,,,,,,,,,,,,,,,,,,,,,,,,,
,,,,,,,,,,,,,1,001,2024-08-23_14h03.14.353,IAT(Formal),2021.2.3,Win32,60.24096386,,,,,,,,,,,,,,,,i,1,0.577,,,,,,其他,i,,,1,68,148,59,1,,,,,,,,,,,,,,,,,,,,,,,,,,,,,,,,,,
,,,,,,,,,,,,,1,001,2024-08-23_14h03.14.353,IAT(Formal),2021.2.3,Win32,60.24096386,,,,,,,,,,,,,,,,i,1,0.4447,,,,,,消极,i,,,1,69,149,35,1,,,,,,,,,,,,,,,,,,,,,,,,,,,,,,,,,,
,,,,,,,,,,,,,1,001,2024-08-23_14h03.14.353,IAT(Formal),2021.2.3,Win32,60.24096386,,,,,,,,,,,,,,,,e,1,0.6641,,,,,,我的,e,,,1,70,150,61,1,,,,,,,,,,,,,,,,,,,,,,,,,,,,,,,,,,
,,,,,,,,,,,,,1,001,2024-08-23_14h03.14.353,IAT(Formal),2021.2.3,Win32,60.24096386,,,,,,,,,,,,,,,,i,1,0.505,,,,,,他们,i,,,1,71,151,76,1,,,,,,,,,,,,,,,,,,,,,,,,,,,,,,,,,,
,,,,,,,,,,,,,1,001,2024-08-23_14h03.14.353,IAT(Formal),2021.2.3,Win32,60.24096386,,,,,,,,,,,,,,,,i,1,0.5841,,,,,,自私,i,,,1,72,152,43,1,,,,,,,,,,,,,,,,,,,,,,,,,,,,,,,,,,
,,,,,,,,,,,,,1,001,2024-08-23_14h03.14.353,IAT(Formal),2021.2.3,Win32,60.24096386,,,,,,,,,,,,,,,,e,1,0.444,,,,,,我的,e,,,1,73,153,1,1,,,,,,,,,,,,,,,,,,,,,,,,,,,,,,,,,,
,,,,,,,,,,,,,1,001,2024-08-23_14h03.14.353,IAT(Formal),2021.2.3,Win32,60.24096386,,,,,,,,,,,,,,,,i,1,0.5878,,,,,,冒失,i,,,1,74,154,39,1,,,,,,,,,,,,,,,,,,,,,,,,,,,,,,,,,,
,,,,,,,,,,,,,1,001,2024-08-23_14h03.14.353,IAT(Formal),2021.2.3,Win32,60.24096386,,,,,,,,,,,,,,,,e,1,0.4981,,,,,,认真,e,,,1,75,155,20,1,,,,,,,,,,,,,,,,,,,,,,,,,,,,,,,,,,
,,,,,,,,,,,,,1,001,2024-08-23_14h03.14.353,IAT(Formal),2021.2.3,Win32,60.24096386,,,,,,,,,,,,,,,,e,1,0.4283,,,,,,正直,e,,,1,76,156,16,1,,,,,,,,,,,,,,,,,,,,,,,,,,,,,,,,,,
,,,,,,,,,,,,,1,001,2024-08-23_14h03.14.353,IAT(Formal),2021.2.3,Win32,60.24096386,,,,,,,,,,,,,,,,i,1,0.5296,,,,,,他的,i,,,1,77,157,67,1,,,,,,,,,,,,,,,,,,,,,,,,,,,,,,,,,,
,,,,,,,,,,,,,1,001,2024-08-23_14h03.14.353,IAT(Formal),2021.2.3,Win32,60.24096386,,,,,,,,,,,,,,,,e,1,0.4964,,,,,,自己,e,,,1,78,158,73,1,,,,,,,,,,,,,,,,,,,,,,,,,,,,,,,,,,
,,,,,,,,,,,,,1,001,2024-08-23_14h03.14.353,IAT(Formal),2021.2.3,Win32,60.24096386,,,,,,,,,,,,,,,,e,1,0.6206,,,,,,俺,e,,,1,79,159,4,1,,,,,,,,,,,,,,,,,,,,,,,,,,,,,,,,,,
,,,,,,,,,,,我的,i,1,001,2024-08-23_14h03.14.353,IAT(Formal),2021.2.3,Win32,60.24096386,,,,,,,,,,,,,,,,,,,,,,,,,,,,,,,,,space,48.9676,i,1,0.6237,0,0,0,1,1,,,,,,,,,,,,,,,,,,,,,,,,
,,,,,,,,,,,我,i,1,001,2024-08-23_14h03.14.353,IAT(Formal),2021.2.3,Win32,60.24096386,,,,,,,,,,,,,,,,,,,,,,,,,,,,,,,,,,,i,1,0.5052,0,1,1,0,1,,,,,,,,,,,,,,,,,,,,,,,,
,,,,,,,,,,,他人,e,1,001,2024-08-23_14h03.14.353,IAT(Formal),2021.2.3,Win32,60.24096386,,,,,,,,,,,,,,,,,,,,,,,,,,,,,,,,,,,e,1,0.4526,0,2,2,8,1,,,,,,,,,,,,,,,,,,,,,,,,
,,,,,,,,,,,俺,i,1,001,2024-08-23_14h03.14.353,IAT(Formal),2021.2.3,Win32,60.24096386,,,,,,,,,,,,,,,,,,,,,,,,,,,,,,,,,,,i,1,0.5134,0,3,3,4,1,,,,,,,,,,,,,,,,,,,,,,,,
,,,,,,,,,,,其他,e,1,001,2024-08-23_14h03.14.353,IAT(Formal),2021.2.3,Win32,60.24096386,,,,,,,,,,,,,,,,,,,,,,,,,,,,,,,,,,,e,1,0.5331,0,4,4,9,1,,,,,,,,,,,,,,,,,,,,,,,,
,,,,,,,,,,,自己,i,1,001,2024-08-23_14h03.14.353,IAT(Formal),2021.2.3,Win32,60.24096386,,,,,,,,,,,,,,,,,,,,,,,,,,,,,,,,,,,i,1,0.4982,0,5,5,3,1,,,,,,,,,,,,,,,,,,,,,,,,
,,,,,,,,,,,他的,e,1,001,2024-08-23_14h03.14.353,IAT(Formal),2021.2.3,Win32,60.24096386,,,,,,,,,,,,,,,,,,,,,,,,,,,,,,,,,,,e,1,0.5421,0,6,6,7,1,,,,,,,,,,,,,,,,,,,,,,,,
,,,,,,,,,,,他,e,1,001,2024-08-23_14h03.14.353,IAT(Formal),2021.2.3,Win32,60.24096386,,,,,,,,,,,,,,,,,,,,,,,,,,,,,,,,,,,e,1,0.6128,0,7,7,5,1,,,,,,,,,,,,,,,,,,,,,,,,
,,,,,,,,,,,他们,e,1,001,2024-08-23_14h03.14.353,IAT(Formal),2021.2.3,Win32,60.24096386,,,,,,,,,,,,,,,,,,,,,,,,,,,,,,,,,,,e,1,0.5203,0,8,8,6,1,,,,,,,,,,,,,,,,,,,,,,,,
,,,,,,,,,,,我们,i,1,001,2024-08-23_14h03.14.353,IAT(Formal),2021.2.3,Win32,60.24096386,,,,,,,,,,,,,,,,,,,,,,,,,,,,,,,,,,,i,1,0.4309,0,9,9,2,1,,,,,,,,,,,,,,,,,,,,,,,,
,,,,,,,,,,,,,1,001,2024-08-23_14h03.14.353,IAT(Formal),2021.2.3,Win32,60.24096386,,,,,,,,,,,,,,,,,,,,,,,,,,,,,,,,,,,,,,,,,,,space,24.1459,i,1,0.8894,0,0,0,0,1,我,i,,,,,,,,,,,,
,,,,,,,,,,,,,1,001,2024-08-23_14h03.14.353,IAT(Formal),2021.2.3,Win32,60.24096386,,,,,,,,,,,,,,,,,,,,,,,,,,,,,,,,,,,,,,,,,,,,,e,1,0.7865,0,1,1,59,1,其他,e,,,,,,,,,,,,
,,,,,,,,,,,,,1,001,2024-08-23_14h03.14.353,IAT(Formal),2021.2.3,Win32,60.24096386,,,,,,,,,,,,,,,,,,,,,,,,,,,,,,,,,,,,,,,,,,,,,e,0,0.7553,0,2,2,31,1,虚伪,i,,,,,,,,,,,,
,,,,,,,,,,,,,1,001,2024-08-23_14h03.14.353,IAT(Formal),2021.2.3,Win32,60.24096386,,,,,,,,,,,,,,,,,,,,,,,,,,,,,,,,,,,,,,,,,,,,,i,0,0.6917,0,3,3,13,1,杰出,e,,,,,,,,,,,,
,,,,,,,,,,,,,1,001,2024-08-23_14h03.14.353,IAT(Formal),2021.2.3,Win32,60.24096386,,,,,,,,,,,,,,,,,,,,,,,,,,,,,,,,,,,,,,,,,,,,,i,1,0.6526,0,4,4,50,1,我,i,,,,,,,,,,,,
,,,,,,,,,,,,,1,001,2024-08-23_14h03.14.353,IAT(Formal),2021.2.3,Win32,60.24096386,,,,,,,,,,,,,,,,,,,,,,,,,,,,,,,,,,,,,,,,,,,,,e,1,0.6468,0,5,5,79,1,其他,e,,,,,,,,,,,,
,,,,,,,,,,,,,1,001,2024-08-23_14h03.14.353,IAT(Formal),2021.2.3,Win32,60.24096386,,,,,,,,,,,,,,,,,,,,,,,,,,,,,,,,,,,,,,,,,,,,,i,1,0.6311,0,6,6,4,1,俺,i,,,,,,,,,,,,
,,,,,,,,,,,,,1,001,2024-08-23_14h03.14.353,IAT(Formal),2021.2.3,Win32,60.24096386,,,,,,,,,,,,,,,,,,,,,,,,,,,,,,,,,,,,,,,,,,,,,i,1,0.6968,0,7,7,1,1,我的,i,,,,,,,,,,,,
,,,,,,,,,,,,,1,001,2024-08-23_14h03.14.353,IAT(Formal),2021.2.3,Win32,60.24096386,,,,,,,,,,,,,,,,,,,,,,,,,,,,,,,,,,,,,,,,,,,,,i,1,0.6385,0,8,8,61,1,我的,i,,,,,,,,,,,,
,,,,,,,,,,,,,1,001,2024-08-23_14h03.14.353,IAT(Formal),2021.2.3,Win32,60.24096386,,,,,,,,,,,,,,,,,,,,,,,,,,,,,,,,,,,,,,,,,,,,,i,0,0.6888,0,9,9,9,1,其他,e,,,,,,,,,,,,
,,,,,,,,,,,,,1,001,2024-08-23_14h03.14.353,IAT(Formal),2021.2.3,Win32,60.24096386,,,,,,,,,,,,,,,,,,,,,,,,,,,,,,,,,,,,,,,,,,,,,i,0,0.763,0,10,10,11,1,崇高,e,,,,,,,,,,,,
,,,,,,,,,,,,,1,001,2024-08-23_14h03.14.353,IAT(Formal),2021.2.3,Win32,60.24096386,,,,,,,,,,,,,,,,,,,,,,,,,,,,,,,,,,,,,,,,,,,,,i,1,0.6985,0,11,11,62,1,我们,i,,,,,,,,,,,,
,,,,,,,,,,,,,1,001,2024-08-23_14h03.14.353,IAT(Formal),2021.2.3,Win32,60.24096386,,,,,,,,,,,,,,,,,,,,,,,,,,,,,,,,,,,,,,,,,,,,,e,1,0.5718,0,12,12,17,1,勇敢,e,,,,,,,,,,,,
,,,,,,,,,,,,,1,001,2024-08-23_14h03.14.353,IAT(Formal),2021.2.3,Win32,60.24096386,,,,,,,,,,,,,,,,,,,,,,,,,,,,,,,,,,,,,,,,,,,,,i,1,1.2447,0,13,13,30,1,卑鄙,i,,,,,,,,,,,,
,,,,,,,,,,,,,1,001,2024-08-23_14h03.14.353,IAT(Formal),2021.2.3,Win32,60.24096386,,,,,,,,,,,,,,,,,,,,,,,,,,,,,,,,,,,,,,,,,,,,,e,1,0.9178,0,14,14,18,1,勤奋,e,,,,,,,,,,,,
,,,,,,,,,,,,,1,001,2024-08-23_14h03.14.353,IAT(Formal),2021.2.3,Win32,60.24096386,,,,,,,,,,,,,,,,,,,,,,,,,,,,,,,,,,,,,,,,,,,,,,0,,0,15,15,74,1,俺,i,,,,,,,,,,,,
,,,,,,,,,,,,,1,001,2024-08-23_14h03.14.353,IAT(Formal),2021.2.3,Win32,60.24096386,,,,,,,,,,,,,,,,,,,,,,,,,,,,,,,,,,,,,,,,,,,,,i,0,1.0653,0,16,16,77,1,他的,e,,,,,,,,,,,,
,,,,,,,,,,,,,1,001,2024-08-23_14h03.14.353,IAT(Formal),2021.2.3,Win32,60.24096386,,,,,,,,,,,,,,,,,,,,,,,,,,,,,,,,,,,,,,,,,,,,,i,1,0.7204,0,17,17,64,1,俺,i,,,,,,,,,,,,
,,,,,,,,,,,,,1,001,2024-08-23_14h03.14.353,IAT(Formal),2021.2.3,Win32,60.24096386,,,,,,,,,,,,,,,,,,,,,,,,,,,,,,,,,,,,,,,,,,,,,e,1,0.7032,0,18,18,24,1,朴实,e,,,,,,,,,,,,
,,,,,,,,,,,,,1,001,2024-08-23_14h03.14.353,IAT(Formal),2021.2.3,Win32,60.24096386,,,,,,,,,,,,,,,,,,,,,,,,,,,,,,,,,,,,,,,,,,,,,e,0,0.781,0,19,19,48,1,轻率,i,,,,,,,,,,,,
,,,,,,,,,,,,,1,001,2024-08-23_14h03.14.353,IAT(Formal),2021.2.3,Win32,60.24096386,,,,,,,,,,,,,,,,,,,,,,,,,,,,,,,,,,,,,,,,,,,,,e,1,0.6631,0,20,20,5,1,他,e,,,,,,,,,,,,
,,,,,,,,,,,,,1,001,2024-08-23_14h03.14.353,IAT(Formal),2021.2.3,Win32,60.24096386,,,,,,,,,,,,,,,,,,,,,,,,,,,,,,,,,,,,,,,,,,,,,e,1,0.6847,0,21,21,6,1,他们,e,,,,,,,,,,,,
,,,,,,,,,,,,,1,001,2024-08-23_14h03.14.353,IAT(Formal),2021.2.3,Win32,60.24096386,,,,,,,,,,,,,,,,,,,,,,,,,,,,,,,,,,,,,,,,,,,,,i,1,0.768,0,22,22,63,1,自己,i,,,,,,,,,,,,
,,,,,,,,,,,,,1,001,2024-08-23_14h03.14.353,IAT(Formal),2021.2.3,Win32,60.24096386,,,,,,,,,,,,,,,,,,,,,,,,,,,,,,,,,,,,,,,,,,,,,e,1,0.6461,0,23,23,20,1,认真,e,,,,,,,,,,,,
,,,,,,,,,,,,,1,001,2024-08-23_14h03.14.353,IAT(Formal),2021.2.3,Win32,60.24096386,,,,,,,,,,,,,,,,,,,,,,,,,,,,,,,,,,,,,,,,,,,,,e,0,0.7458,0,24,24,38,1,鲁莽,i,,,,,,,,,,,,
,,,,,,,,,,,,,1,001,2024-08-23_14h03.14.353,IAT(Formal),2021.2.3,Win32,60.24096386,,,,,,,,,,,,,,,,,,,,,,,,,,,,,,,,,,,,,,,,,,,,,i,1,0.5378,0,25,25,51,1,我的,i,,,,,,,,,,,,
,,,,,,,,,,,,,1,001,2024-08-23_14h03.14.353,IAT(Formal),2021.2.3,Win32,60.24096386,,,,,,,,,,,,,,,,,,,,,,,,,,,,,,,,,,,,,,,,,,,,,e,1,0.7623,0,26,26,58,1,他人,e,,,,,,,,,,,,
,,,,,,,,,,,,,1,001,2024-08-23_14h03.14.353,IAT(Formal),2021.2.3,Win32,60.24096386,,,,,,,,,,,,,,,,,,,,,,,,,,,,,,,,,,,,,,,,,,,,,e,1,0.7411,0,27,27,19,1,机智,e,,,,,,,,,,,,
,,,,,,,,,,,,,1,001,2024-08-23_14h03.14.353,IAT(Formal),2021.2.3,Win32,60.24096386,,,,,,,,,,,,,,,,,,,,,,,,,,,,,,,,,,,,,,,,,,,,,e,1,0.5212,0,28,28,78,1,他人,e,,,,,,,,,,,,
,,,,,,,,,,,,,1,001,2024-08-23_14h03.14.353,IAT(Formal),2021.2.3,Win32,60.24096386,,,,,,,,,,,,,,,,,,,,,,,,,,,,,,,,,,,,,,,,,,,,,i,1,0.7459,0,29,29,34,1,悲观,i,,,,,,,,,,,,
,,,,,,,,,,,,,1,001,2024-08-23_14h03.14.353,IAT(Formal),2021.2.3,Win32,60.24096386,,,,,,,,,,,,,,,,,,,,,,,,,,,,,,,,,,,,,,,,,,,,,e,1,0.7214,0,30,30,28,1,活泼,e,,,,,,,,,,,,
,,,,,,,,,,,,,1,001,2024-08-23_14h03.14.353,IAT(Formal),2021.2.3,Win32,60.24096386,,,,,,,,,,,,,,,,,,,,,,,,,,,,,,,,,,,,,,,,,,,,,i,1,0.5547,0,31,31,72,1,我们,i,,,,,,,,,,,,
,,,,,,,,,,,,,1,001,2024-08-23_14h03.14.353,IAT(Formal),2021.2.3,Win32,60.24096386,,,,,,,,,,,,,,,,,,,,,,,,,,,,,,,,,,,,,,,,,,,,,e,0,0.8453,0,32,32,33,1,刻薄,i,,,,,,,,,,,,
,,,,,,,,,,,,,1,001,2024-08-23_14h03.14.353,IAT(Formal),2021.2.3,Win32,60.24096386,,,,,,,,,,,,,,,,,,,,,,,,,,,,,,,,,,,,,,,,,,,,,e,1,1.0774,0,33,33,69,1,其他,e,,,,,,,,,,,,
,,,,,,,,,,,,,1,001,2024-08-23_14h03.14.353,IAT(Formal),2021.2.3,Win32,60.24096386,,,,,,,,,,,,,,,,,,,,,,,,,,,,,,,,,,,,,,,,,,,,,e,0,0.7076,0,34,34,46,1,野蛮,i,,,,,,,,,,,,
,,,,,,,,,,,,,1,001,2024-08-23_14h03.14.353,IAT(Formal),2021.2.3,Win32,60.24096386,,,,,,,,,,,,,,,,,,,,,,,,,,,,,,,,,,,,,,,,,,,,,i,0,0.7671,0,35,35,10,1,优秀,e,,,,,,,,,,,,
,,,,,,,,,,,,,1,001,2024-08-23_14h03.14.353,IAT(Formal),2021.2.3,Win32,60.24096386,,,,,,,,,,,,,,,,,,,,,,,,,,,,,,,,,,,,,,,,,,,,,i,1,0.6735,0,36,36,54,1,俺,i,,,,,,,,,,,,
,,,,,,,,,,,,,1,001,2024-08-23_14h03.14.353,IAT(Formal),2021.2.3,Win32,60.24096386,,,,,,,,,,,,,,,,,,,,,,,,,,,,,,,,,,,,,,,,,,,,,e,1,1.2117,0,37,37,65,1,他,e,,,,,,,,,,,,
,,,,,,,,,,,,,1,001,2024-08-23_14h03.14.353,IAT(Formal),2021.2.3,Win32,60.24096386,,,,,,,,,,,,,,,,,,,,,,,,,,,,,,,,,,,,,,,,,,,,,i,1,0.9874,0,38,38,40,1,执拗,i,,,,,,,,,,,,
,,,,,,,,,,,,,1,001,2024-08-23_14h03.14.353,IAT(Formal),2021.2.3,Win32,60.24096386,,,,,,,,,,,,,,,,,,,,,,,,,,,,,,,,,,,,,,,,,,,,,i,1,0.5248,0,39,39,44,1,暴躁,i,,,,,,,,,,,,
,,,,,,,,,,,,,1,001,2024-08-23_14h03.14.353,IAT(Formal),2021.2.3,Win32,60.24096386,,,,,,,,,,,,,,,,,,,,,,,,,,,,,,,,,,,,,,,,,,,,,i,0,0.8713,0,40,40,22,1,无私,e,,,,,,,,,,,,
,,,,,,,,,,,,,1,001,2024-08-23_14h03.14.353,IAT(Formal),2021.2.3,Win32,60.24096386,,,,,,,,,,,,,,,,,,,,,,,,,,,,,,,,,,,,,,,,,,,,,e,0,0.8439,0,41,41,49,1,下贱,i,,,,,,,,,,,,
,,,,,,,,,,,,,1,001,2024-08-23_14h03.14.353,IAT(Formal),2021.2.3,Win32,60.24096386,,,,,,,,,,,,,,,,,,,,,,,,,,,,,,,,,,,,,,,,,,,,,e,1,0.7301,0,42,42,25,1,细腻,e,,,,,,,,,,,,
,,,,,,,,,,,,,1,001,2024-08-23_14h03.14.353,IAT(Formal),2021.2.3,Win32,60.24096386,,,,,,,,,,,,,,,,,,,,,,,,,,,,,,,,,,,,,,,,,,,,,e,1,0.9034,0,43,43,21,1,稳重,e,,,,,,,,,,,,
,,,,,,,,,,,,,1,001,2024-08-23_14h03.14.353,IAT(Formal),2021.2.3,Win32,60.24096386,,,,,,,,,,,,,,,,,,,,,,,,,,,,,,,,,,,,,,,,,,,,,e,1,1.1276,0,44,44,76,1,他们,e,,,,,,,,,,,,
,,,,,,,,,,,,,1,001,2024-08-23_14h03.14.353,IAT(Formal),2021.2.3,Win32,60.24096386,,,,,,,,,,,,,,,,,,,,,,,,,,,,,,,,,,,,,,,,,,,,,e,0,0.5674,0,45,45,35,1,消极,i,,,,,,,,,,,,
,,,,,,,,,,,,,1,001,2024-08-23_14h03.14.353,IAT(Formal),2021.2.3,Win32,60.24096386,,,,,,,,,,,,,,,,,,,,,,,,,,,,,,,,,,,,,,,,,,,,,i,0,0.7642,0,46,46,56,1,他们,e,,,,,,,,,,,,
,,,,,,,,,,,,,1,001,2024-08-23_14h03.14.353,IAT(Formal),2021.2.3,Win32,60.24096386,,,,,,,,,,,,,,,,,,,,,,,,,,,,,,,,,,,,,,,,,,,,,e,0,0.6976,0,47,47,39,1,冒失,i,,,,,,,,,,,,
,,,,,,,,,,,,,1,001,2024-08-23_14h03.14.353,IAT(Formal),2021.2.3,Win32,60.24096386,,,,,,,,,,,,,,,,,,,,,,,,,,,,,,,,,,,,,,,,,,,,,e,1,0.7293,0,48,48,29,1,诚恳,e,,,,,,,,,,,,
,,,,,,,,,,,,,1,001,2024-08-23_14h03.14.353,IAT(Formal),2021.2.3,Win32,60.24096386,,,,,,,,,,,,,,,,,,,,,,,,,,,,,,,,,,,,,,,,,,,,,e,1,0.7636,0,49,49,16,1,正直,e,,,,,,,,,,,,
,,,,,,,,,,,,,1,001,2024-08-23_14h03.14.353,IAT(Formal),2021.2.3,Win32,60.24096386,,,,,,,,,,,,,,,,,,,,,,,,,,,,,,,,,,,,,,,,,,,,,i,1,0.7133,0,50,50,52,1,我们,i,,,,,,,,,,,,
,,,,,,,,,,,,,1,001,2024-08-23_14h03.14.353,IAT(Formal),2021.2.3,Win32,60.24096386,,,,,,,,,,,,,,,,,,,,,,,,,,,,,,,,,,,,,,,,,,,,,i,1,0.895,0,51,51,53,1,自己,i,,,,,,,,,,,,
,,,,,,,,,,,,,1,001,2024-08-23_14h03.14.353,IAT(Formal),2021.2.3,Win32,60.24096386,,,,,,,,,,,,,,,,,,,,,,,,,,,,,,,,,,,,,,,,,,,,,e,1,0.6803,0,52,52,27,1,热情,e,,,,,,,,,,,,
,,,,,,,,,,,,,1,001,2024-08-23_14h03.14.353,IAT(Formal),2021.2.3,Win32,60.24096386,,,,,,,,,,,,,,,,,,,,,,,,,,,,,,,,,,,,,,,,,,,,,e,1,0.7407,0,53,53,57,1,他的,e,,,,,,,,,,,,
,,,,,,,,,,,,,1,001,2024-08-23_14h03.14.353,IAT(Formal),2021.2.3,Win32,60.24096386,,,,,,,,,,,,,,,,,,,,,,,,,,,,,,,,,,,,,,,,,,,,,i,1,0.5471,0,54,54,47,1,固执,i,,,,,,,,,,,,
,,,,,,,,,,,,,1,001,2024-08-23_14h03.14.353,IAT(Formal),2021.2.3,Win32,60.24096386,,,,,,,,,,,,,,,,,,,,,,,,,,,,,,,,,,,,,,,,,,,,,i,1,0.5791,0,55,55,42,1,凶狠,i,,,,,,,,,,,,
,,,,,,,,,,,,,1,001,2024-08-23_14h03.14.353,IAT(Formal),2021.2.3,Win32,60.24096386,,,,,,,,,,,,,,,,,,,,,,,,,,,,,,,,,,,,,,,,,,,,,e,1,0.7717,0,56,56,55,1,他,e,,,,,,,,,,,,
,,,,,,,,,,,,,1,001,2024-08-23_14h03.14.353,IAT(Formal),2021.2.3,Win32,60.24096386,,,,,,,,,,,,,,,,,,,,,,,,,,,,,,,,,,,,,,,,,,,,,e,1,0.5233,0,57,57,23,1,公正,e,,,,,,,,,,,,
,,,,,,,,,,,,,1,001,2024-08-23_14h03.14.353,IAT(Formal),2021.2.3,Win32,60.24096386,,,,,,,,,,,,,,,,,,,,,,,,,,,,,,,,,,,,,,,,,,,,,e,1,0.5802,0,58,58,66,1,他们,e,,,,,,,,,,,,
,,,,,,,,,,,,,1,001,2024-08-23_14h03.14.353,IAT(Formal),2021.2.3,Win32,60.24096386,,,,,,,,,,,,,,,,,,,,,,,,,,,,,,,,,,,,,,,,,,,,,e,1,0.6961,0,59,59,26,1,冷静,e,,,,,,,,,,,,
,,,,,,,,,,,,,1,001,2024-08-23_14h03.14.353,IAT(Formal),2021.2.3,Win32,60.24096386,,,,,,,,,,,,,,,,,,,,,,,,,,,,,,,,,,,,,,,,,,,,,i,1,0.5971,0,60,60,70,1,我,i,,,,,,,,,,,,
,,,,,,,,,,,,,1,001,2024-08-23_14h03.14.353,IAT(Formal),2021.2.3,Win32,60.24096386,,,,,,,,,,,,,,,,,,,,,,,,,,,,,,,,,,,,,,,,,,,,,i,1,0.5303,0,61,61,43,1,自私,i,,,,,,,,,,,,
,,,,,,,,,,,,,1,001,2024-08-23_14h03.14.353,IAT(Formal),2021.2.3,Win32,60.24096386,,,,,,,,,,,,,,,,,,,,,,,,,,,,,,,,,,,,,,,,,,,,,e,1,1.16,0,62,62,67,1,他的,e,,,,,,,,,,,,
,,,,,,,,,,,,,1,001,2024-08-23_14h03.14.353,IAT(Formal),2021.2.3,Win32,60.24096386,,,,,,,,,,,,,,,,,,,,,,,,,,,,,,,,,,,,,,,,,,,,,i,1,1.297,0,63,63,32,1,愚蠢,i,,,,,,,,,,,,
,,,,,,,,,,,,,1,001,2024-08-23_14h03.14.353,IAT(Formal),2021.2.3,Win32,60.24096386,,,,,,,,,,,,,,,,,,,,,,,,,,,,,,,,,,,,,,,,,,,,,e,1,0.6295,0,64,64,75,1,他,e,,,,,,,,,,,,
,,,,,,,,,,,,,1,001,2024-08-23_14h03.14.353,IAT(Formal),2021.2.3,Win32,60.24096386,,,,,,,,,,,,,,,,,,,,,,,,,,,,,,,,,,,,,,,,,,,,,i,1,0.9454,0,65,65,41,1,散漫,i,,,,,,,,,,,,
,,,,,,,,,,,,,1,001,2024-08-23_14h03.14.353,IAT(Formal),2021.2.3,Win32,60.24096386,,,,,,,,,,,,,,,,,,,,,,,,,,,,,,,,,,,,,,,,,,,,,e,1,0.614,0,66,66,7,1,他的,e,,,,,,,,,,,,
,,,,,,,,,,,,,1,001,2024-08-23_14h03.14.353,IAT(Formal),2021.2.3,Win32,60.24096386,,,,,,,,,,,,,,,,,,,,,,,,,,,,,,,,,,,,,,,,,,,,,e,1,0.7504,0,67,67,15,1,诚实,e,,,,,,,,,,,,
,,,,,,,,,,,,,1,001,2024-08-23_14h03.14.353,IAT(Formal),2021.2.3,Win32,60.24096386,,,,,,,,,,,,,,,,,,,,,,,,,,,,,,,,,,,,,,,,,,,,,e,1,0.5641,0,68,68,68,1,他人,e,,,,,,,,,,,,
,,,,,,,,,,,,,1,001,2024-08-23_14h03.14.353,IAT(Formal),2021.2.3,Win32,60.24096386,,,,,,,,,,,,,,,,,,,,,,,,,,,,,,,,,,,,,,,,,,,,,i,1,1.0775,0,69,69,36,1,自卑,i,,,,,,,,,,,,
,,,,,,,,,,,,,1,001,2024-08-23_14h03.14.353,IAT(Formal),2021.2.3,Win32,60.24096386,,,,,,,,,,,,,,,,,,,,,,,,,,,,,,,,,,,,,,,,,,,,,e,1,0.7298,0,70,70,14,1,乐观,e,,,,,,,,,,,,
,,,,,,,,,,,,,1,001,2024-08-23_14h03.14.353,IAT(Formal),2021.2.3,Win32,60.24096386,,,,,,,,,,,,,,,,,,,,,,,,,,,,,,,,,,,,,,,,,,,,,i,1,1.0006,0,71,71,60,1,我,i,,,,,,,,,,,,
,,,,,,,,,,,,,1,001,2024-08-23_14h03.14.353,IAT(Formal),2021.2.3,Win32,60.24096386,,,,,,,,,,,,,,,,,,,,,,,,,,,,,,,,,,,,,,,,,,,,,i,1,0.5413,0,72,72,37,1,傲慢,i,,,,,,,,,,,,
,,,,,,,,,,,,,1,001,2024-08-23_14h03.14.353,IAT(Formal),2021.2.3,Win32,60.24096386,,,,,,,,,,,,,,,,,,,,,,,,,,,,,,,,,,,,,,,,,,,,,i,1,0.8161,0,73,73,71,1,我的,i,,,,,,,,,,,,
,,,,,,,,,,,,,1,001,2024-08-23_14h03.14.353,IAT(Formal),2021.2.3,Win32,60.24096386,,,,,,,,,,,,,,,,,,,,,,,,,,,,,,,,,,,,,,,,,,,,,i,1,0.553,0,74,74,3,1,自己,i,,,,,,,,,,,,
,,,,,,,,,,,,,1,001,2024-08-23_14h03.14.353,IAT(Formal),2021.2.3,Win32,60.24096386,,,,,,,,,,,,,,,,,,,,,,,,,,,,,,,,,,,,,,,,,,,,,e,1,0.8505,0,75,75,12,1,聪明,e,,,,,,,,,,,,
,,,,,,,,,,,,,1,001,2024-08-23_14h03.14.353,IAT(Formal),2021.2.3,Win32,60.24096386,,,,,,,,,,,,,,,,,,,,,,,,,,,,,,,,,,,,,,,,,,,,,e,1,0.7955,0,76,76,8,1,他人,e,,,,,,,,,,,,
,,,,,,,,,,,,,1,001,2024-08-23_14h03.14.353,IAT(Formal),2021.2.3,Win32,60.24096386,,,,,,,,,,,,,,,,,,,,,,,,,,,,,,,,,,,,,,,,,,,,,i,1,0.5467,0,77,77,2,1,我们,i,,,,,,,,,,,,
,,,,,,,,,,,,,1,001,2024-08-23_14h03.14.353,IAT(Formal),2021.2.3,Win32,60.24096386,,,,,,,,,,,,,,,,,,,,,,,,,,,,,,,,,,,,,,,,,,,,,e,0,0.4974,0,78,78,73,1,自己,i,,,,,,,,,,,,
,,,,,,,,,,,,,1,001,2024-08-23_14h03.14.353,IAT(Formal),2021.2.3,Win32,60.24096386,,,,,,,,,,,,,,,,,,,,,,,,,,,,,,,,,,,,,,,,,,,,,i,1,0.9775,0,79,79,45,1,猖狂,i,,,,,,,,,,,,
,,,,,,,,,,,,,1,001,2024-08-23_14h03.14.353,IAT(Formal),2021.2.3,Win32,60.24096386,,,,,,,,,,,,,,,,,,,,,,,,,,,,,,,,,,,,,,,,,,,,,,,,,,,,,固执,i,space,19.5679,i,1,0.7255,0,0,0,47,1,,
,,,,,,,,,,,,,1,001,2024-08-23_14h03.14.353,IAT(Formal),2021.2.3,Win32,60.24096386,,,,,,,,,,,,,,,,,,,,,,,,,,,,,,,,,,,,,,,,,,,,,,,,,,,,,细腻,e,,,e,1,0.7247,0,1,1,25,1,,
,,,,,,,,,,,,,1,001,2024-08-23_14h03.14.353,IAT(Formal),2021.2.3,Win32,60.24096386,,,,,,,,,,,,,,,,,,,,,,,,,,,,,,,,,,,,,,,,,,,,,,,,,,,,,他人,e,,,e,1,0.4328,0,2,2,68,1,,
,,,,,,,,,,,,,1,001,2024-08-23_14h03.14.353,IAT(Formal),2021.2.3,Win32,60.24096386,,,,,,,,,,,,,,,,,,,,,,,,,,,,,,,,,,,,,,,,,,,,,,,,,,,,,卑鄙,i,,,i,1,0.9282,0,3,3,30,1,,
,,,,,,,,,,,,,1,001,2024-08-23_14h03.14.353,IAT(Formal),2021.2.3,Win32,60.24096386,,,,,,,,,,,,,,,,,,,,,,,,,,,,,,,,,,,,,,,,,,,,,,,,,,,,,我的,i,,,i,1,0.5113,0,4,4,1,1,,
,,,,,,,,,,,,,1,001,2024-08-23_14h03.14.353,IAT(Formal),2021.2.3,Win32,60.24096386,,,,,,,,,,,,,,,,,,,,,,,,,,,,,,,,,,,,,,,,,,,,,,,,,,,,,朴实,e,,,e,1,0.4534,0,5,5,24,1,,
,,,,,,,,,,,,,1,001,2024-08-23_14h03.14.353,IAT(Formal),2021.2.3,Win32,60.24096386,,,,,,,,,,,,,,,,,,,,,,,,,,,,,,,,,,,,,,,,,,,,,,,,,,,,,自己,i,,,i,1,0.6635,0,6,6,63,1,,
,,,,,,,,,,,,,1,001,2024-08-23_14h03.14.353,IAT(Formal),2021.2.3,Win32,60.24096386,,,,,,,,,,,,,,,,,,,,,,,,,,,,,,,,,,,,,,,,,,,,,,,,,,,,,我的,i,,,i,1,0.546,0,7,7,51,1,,
,,,,,,,,,,,,,1,001,2024-08-23_14h03.14.353,IAT(Formal),2021.2.3,Win32,60.24096386,,,,,,,,,,,,,,,,,,,,,,,,,,,,,,,,,,,,,,,,,,,,,,,,,,,,,机智,e,,,e,1,0.6634,0,8,8,19,1,,
,,,,,,,,,,,,,1,001,2024-08-23_14h03.14.353,IAT(Formal),2021.2.3,Win32,60.24096386,,,,,,,,,,,,,,,,,,,,,,,,,,,,,,,,,,,,,,,,,,,,,,,,,,,,,热情,e,,,e,1,0.4828,0,9,9,27,1,,
,,,,,,,,,,,,,1,001,2024-08-23_14h03.14.353,IAT(Formal),2021.2.3,Win32,60.24096386,,,,,,,,,,,,,,,,,,,,,,,,,,,,,,,,,,,,,,,,,,,,,,,,,,,,,俺,i,,,i,1,0.6437,0,10,10,74,1,,
,,,,,,,,,,,,,1,001,2024-08-23_14h03.14.353,IAT(Formal),2021.2.3,Win32,60.24096386,,,,,,,,,,,,,,,,,,,,,,,,,,,,,,,,,,,,,,,,,,,,,,,,,,,,,冷静,e,,,e,1,0.5608,0,11,11,26,1,,
,,,,,,,,,,,,,1,001,2024-08-23_14h03.14.353,IAT(Formal),2021.2.3,Win32,60.24096386,,,,,,,,,,,,,,,,,,,,,,,,,,,,,,,,,,,,,,,,,,,,,,,,,,,,,自己,i,,,i,1,0.6201,0,12,12,53,1,,
,,,,,,,,,,,,,1,001,2024-08-23_14h03.14.353,IAT(Formal),2021.2.3,Win32,60.24096386,,,,,,,,,,,,,,,,,,,,,,,,,,,,,,,,,,,,,,,,,,,,,,,,,,,,,他人,e,,,e,1,0.6288,0,13,13,8,1,,
,,,,,,,,,,,,,1,001,2024-08-23_14h03.14.353,IAT(Formal),2021.2.3,Win32,60.24096386,,,,,,,,,,,,,,,,,,,,,,,,,,,,,,,,,,,,,,,,,,,,,,,,,,,,,他的,e,,,e,1,0.6948,0,14,14,7,1,,
,,,,,,,,,,,,,1,001,2024-08-23_14h03.14.353,IAT(Formal),2021.2.3,Win32,60.24096386,,,,,,,,,,,,,,,,,,,,,,,,,,,,,,,,,,,,,,,,,,,,,,,,,,,,,他们,e,,,e,1,0.5803,0,15,15,56,1,,
,,,,,,,,,,,,,1,001,2024-08-23_14h03.14.353,IAT(Formal),2021.2.3,Win32,60.24096386,,,,,,,,,,,,,,,,,,,,,,,,,,,,,,,,,,,,,,,,,,,,,,,,,,,,,虚伪,i,,,i,1,0.9127,0,16,16,31,1,,
,,,,,,,,,,,,,1,001,2024-08-23_14h03.14.353,IAT(Formal),2021.2.3,Win32,60.24096386,,,,,,,,,,,,,,,,,,,,,,,,,,,,,,,,,,,,,,,,,,,,,,,,,,,,,诚恳,e,,,e,1,0.5998,0,17,17,29,1,,
,,,,,,,,,,,,,1,001,2024-08-23_14h03.14.353,IAT(Formal),2021.2.3,Win32,60.24096386,,,,,,,,,,,,,,,,,,,,,,,,,,,,,,,,,,,,,,,,,,,,,,,,,,,,,他们,e,,,e,1,0.5715,0,18,18,76,1,,
,,,,,,,,,,,,,1,001,2024-08-23_14h03.14.353,IAT(Formal),2021.2.3,Win32,60.24096386,,,,,,,,,,,,,,,,,,,,,,,,,,,,,,,,,,,,,,,,,,,,,,,,,,,,,其他,e,,,e,1,0.7284,0,19,19,69,1,,
,,,,,,,,,,,,,1,001,2024-08-23_14h03.14.353,IAT(Formal),2021.2.3,Win32,60.24096386,,,,,,,,,,,,,,,,,,,,,,,,,,,,,,,,,,,,,,,,,,,,,,,,,,,,,活泼,e,,,e,1,0.6416,0,20,20,28,1,,
,,,,,,,,,,,,,1,001,2024-08-23_14h03.14.353,IAT(Formal),2021.2.3,Win32,60.24096386,,,,,,,,,,,,,,,,,,,,,,,,,,,,,,,,,,,,,,,,,,,,,,,,,,,,,猖狂,i,,,i,1,0.6759,0,21,21,45,1,,
,,,,,,,,,,,,,1,001,2024-08-23_14h03.14.353,IAT(Formal),2021.2.3,Win32,60.24096386,,,,,,,,,,,,,,,,,,,,,,,,,,,,,,,,,,,,,,,,,,,,,,,,,,,,,我,i,,,i,1,0.5991,0,22,22,60,1,,
,,,,,,,,,,,,,1,001,2024-08-23_14h03.14.353,IAT(Formal),2021.2.3,Win32,60.24096386,,,,,,,,,,,,,,,,,,,,,,,,,,,,,,,,,,,,,,,,,,,,,,,,,,,,,无私,e,,,e,1,0.8402,0,23,23,22,1,,
,,,,,,,,,,,,,1,001,2024-08-23_14h03.14.353,IAT(Formal),2021.2.3,Win32,60.24096386,,,,,,,,,,,,,,,,,,,,,,,,,,,,,,,,,,,,,,,,,,,,,,,,,,,,,崇高,e,,,e,1,0.7178,0,24,24,11,1,,
,,,,,,,,,,,,,1,001,2024-08-23_14h03.14.353,IAT(Formal),2021.2.3,Win32,60.24096386,,,,,,,,,,,,,,,,,,,,,,,,,,,,,,,,,,,,,,,,,,,,,,,,,,,,,愚蠢,i,,,i,1,0.6311,0,25,25,32,1,,
,,,,,,,,,,,,,1,001,2024-08-23_14h03.14.353,IAT(Formal),2021.2.3,Win32,60.24096386,,,,,,,,,,,,,,,,,,,,,,,,,,,,,,,,,,,,,,,,,,,,,,,,,,,,,自私,i,,,i,1,0.7094,0,26,26,43,1,,
,,,,,,,,,,,,,1,001,2024-08-23_14h03.14.353,IAT(Formal),2021.2.3,Win32,60.24096386,,,,,,,,,,,,,,,,,,,,,,,,,,,,,,,,,,,,,,,,,,,,,,,,,,,,,我,i,,,i,1,0.5634,0,27,27,0,1,,
,,,,,,,,,,,,,1,001,2024-08-23_14h03.14.353,IAT(Formal),2021.2.3,Win32,60.24096386,,,,,,,,,,,,,,,,,,,,,,,,,,,,,,,,,,,,,,,,,,,,,,,,,,,,,认真,e,,,e,1,0.5099,0,28,28,20,1,,
,,,,,,,,,,,,,1,001,2024-08-23_14h03.14.353,IAT(Formal),2021.2.3,Win32,60.24096386,,,,,,,,,,,,,,,,,,,,,,,,,,,,,,,,,,,,,,,,,,,,,,,,,,,,,冒失,i,,,e,0,0.5455,0,29,29,39,1,,
,,,,,,,,,,,,,1,001,2024-08-23_14h03.14.353,IAT(Formal),2021.2.3,Win32,60.24096386,,,,,,,,,,,,,,,,,,,,,,,,,,,,,,,,,,,,,,,,,,,,,,,,,,,,,俺,i,,,i,1,0.5967,0,30,30,4,1,,
,,,,,,,,,,,,,1,001,2024-08-23_14h03.14.353,IAT(Formal),2021.2.3,Win32,60.24096386,,,,,,,,,,,,,,,,,,,,,,,,,,,,,,,,,,,,,,,,,,,,,,,,,,,,,我们,i,,,i,1,0.7636,0,31,31,2,1,,
,,,,,,,,,,,,,1,001,2024-08-23_14h03.14.353,IAT(Formal),2021.2.3,Win32,60.24096386,,,,,,,,,,,,,,,,,,,,,,,,,,,,,,,,,,,,,,,,,,,,,,,,,,,,,下贱,i,,,i,1,0.9288,0,32,32,49,1,,
,,,,,,,,,,,,,1,001,2024-08-23_14h03.14.353,IAT(Formal),2021.2.3,Win32,60.24096386,,,,,,,,,,,,,,,,,,,,,,,,,,,,,,,,,,,,,,,,,,,,,,,,,,,,,刻薄,i,,,i,1,0.5978,0,33,33,33,1,,
,,,,,,,,,,,,,1,001,2024-08-23_14h03.14.353,IAT(Formal),2021.2.3,Win32,60.24096386,,,,,,,,,,,,,,,,,,,,,,,,,,,,,,,,,,,,,,,,,,,,,,,,,,,,,他,e,,,e,1,0.663,0,34,34,5,1,,
,,,,,,,,,,,,,1,001,2024-08-23_14h03.14.353,IAT(Formal),2021.2.3,Win32,60.24096386,,,,,,,,,,,,,,,,,,,,,,,,,,,,,,,,,,,,,,,,,,,,,,,,,,,,,他人,e,,,e,1,0.5791,0,35,35,78,1,,
,,,,,,,,,,,,,1,001,2024-08-23_14h03.14.353,IAT(Formal),2021.2.3,Win32,60.24096386,,,,,,,,,,,,,,,,,,,,,,,,,,,,,,,,,,,,,,,,,,,,,,,,,,,,,他,e,,,e,1,0.5054,0,36,36,55,1,,
,,,,,,,,,,,,,1,001,2024-08-23_14h03.14.353,IAT(Formal),2021.2.3,Win32,60.24096386,,,,,,,,,,,,,,,,,,,,,,,,,,,,,,,,,,,,,,,,,,,,,,,,,,,,,我们,i,,,i,1,0.6667,0,37,37,52,1,,
,,,,,,,,,,,,,1,001,2024-08-23_14h03.14.353,IAT(Formal),2021.2.3,Win32,60.24096386,,,,,,,,,,,,,,,,,,,,,,,,,,,,,,,,,,,,,,,,,,,,,,,,,,,,,他的,e,,,e,1,0.7211,0,38,38,67,1,,
,,,,,,,,,,,,,1,001,2024-08-23_14h03.14.353,IAT(Formal),2021.2.3,Win32,60.24096386,,,,,,,,,,,,,,,,,,,,,,,,,,,,,,,,,,,,,,,,,,,,,,,,,,,,,他,e,,,e,1,0.7598,0,39,39,75,1,,
,,,,,,,,,,,,,1,001,2024-08-23_14h03.14.353,IAT(Formal),2021.2.3,Win32,60.24096386,,,,,,,,,,,,,,,,,,,,,,,,,,,,,,,,,,,,,,,,,,,,,,,,,,,,,消极,i,,,i,1,1.1048,0,40,40,35,1,,
,,,,,,,,,,,,,1,001,2024-08-23_14h03.14.353,IAT(Formal),2021.2.3,Win32,60.24096386,,,,,,,,,,,,,,,,,,,,,,,,,,,,,,,,,,,,,,,,,,,,,,,,,,,,,我的,i,,,i,1,0.45,0,41,41,61,1,,
,,,,,,,,,,,,,1,001,2024-08-23_14h03.14.353,IAT(Formal),2021.2.3,Win32,60.24096386,,,,,,,,,,,,,,,,,,,,,,,,,,,,,,,,,,,,,,,,,,,,,,,,,,,,,自己,i,,,i,1,0.6194,0,42,42,73,1,,
,,,,,,,,,,,,,1,001,2024-08-23_14h03.14.353,IAT(Formal),2021.2.3,Win32,60.24096386,,,,,,,,,,,,,,,,,,,,,,,,,,,,,,,,,,,,,,,,,,,,,,,,,,,,,执拗,i,,,i,1,0.8175,0,43,43,40,1,,
,,,,,,,,,,,,,1,001,2024-08-23_14h03.14.353,IAT(Formal),2021.2.3,Win32,60.24096386,,,,,,,,,,,,,,,,,,,,,,,,,,,,,,,,,,,,,,,,,,,,,,,,,,,,,悲观,i,,,i,1,0.5202,0,44,44,34,1,,
,,,,,,,,,,,,,1,001,2024-08-23_14h03.14.353,IAT(Formal),2021.2.3,Win32,60.24096386,,,,,,,,,,,,,,,,,,,,,,,,,,,,,,,,,,,,,,,,,,,,,,,,,,,,,勇敢,e,,,e,1,0.7042,0,45,45,17,1,,
,,,,,,,,,,,,,1,001,2024-08-23_14h03.14.353,IAT(Formal),2021.2.3,Win32,60.24096386,,,,,,,,,,,,,,,,,,,,,,,,,,,,,,,,,,,,,,,,,,,,,,,,,,,,,他人,e,,,e,1,0.5771,0,46,46,58,1,,
,,,,,,,,,,,,,1,001,2024-08-23_14h03.14.353,IAT(Formal),2021.2.3,Win32,60.24096386,,,,,,,,,,,,,,,,,,,,,,,,,,,,,,,,,,,,,,,,,,,,,,,,,,,,,稳重,e,,,e,1,0.5835,0,47,47,21,1,,
,,,,,,,,,,,,,1,001,2024-08-23_14h03.14.353,IAT(Formal),2021.2.3,Win32,60.24096386,,,,,,,,,,,,,,,,,,,,,,,,,,,,,,,,,,,,,,,,,,,,,,,,,,,,,他的,e,,,e,1,0.5166,0,48,48,77,1,,
,,,,,,,,,,,,,1,001,2024-08-23_14h03.14.353,IAT(Formal),2021.2.3,Win32,60.24096386,,,,,,,,,,,,,,,,,,,,,,,,,,,,,,,,,,,,,,,,,,,,,,,,,,,,,我,i,,,i,1,0.4898,0,49,49,70,1,,
,,,,,,,,,,,,,1,001,2024-08-23_14h03.14.353,IAT(Formal),2021.2.3,Win32,60.24096386,,,,,,,,,,,,,,,,,,,,,,,,,,,,,,,,,,,,,,,,,,,,,,,,,,,,,聪明,e,,,e,1,0.5236,0,50,50,12,1,,
,,,,,,,,,,,,,1,001,2024-08-23_14h03.14.353,IAT(Formal),2021.2.3,Win32,60.24096386,,,,,,,,,,,,,,,,,,,,,,,,,,,,,,,,,,,,,,,,,,,,,,,,,,,,,我,i,,,i,1,0.7205,0,51,51,50,1,,
,,,,,,,,,,,,,1,001,2024-08-23_14h03.14.353,IAT(Formal),2021.2.3,Win32,60.24096386,,,,,,,,,,,,,,,,,,,,,,,,,,,,,,,,,,,,,,,,,,,,,,,,,,,,,我们,i,,,i,1,0.578,0,52,52,62,1,,
,,,,,,,,,,,,,1,001,2024-08-23_14h03.14.353,IAT(Formal),2021.2.3,Win32,60.24096386,,,,,,,,,,,,,,,,,,,,,,,,,,,,,,,,,,,,,,,,,,,,,,,,,,,,,他的,e,,,e,1,0.6287,0,53,53,57,1,,
,,,,,,,,,,,,,1,001,2024-08-23_14h03.14.353,IAT(Formal),2021.2.3,Win32,60.24096386,,,,,,,,,,,,,,,,,,,,,,,,,,,,,,,,,,,,,,,,,,,,,,,,,,,,,俺,i,,,i,1,0.6969,0,54,54,64,1,,
,,,,,,,,,,,,,1,001,2024-08-23_14h03.14.353,IAT(Formal),2021.2.3,Win32,60.24096386,,,,,,,,,,,,,,,,,,,,,,,,,,,,,,,,,,,,,,,,,,,,,,,,,,,,,诚实,e,,,e,1,0.6928,0,55,55,15,1,,
,,,,,,,,,,,,,1,001,2024-08-23_14h03.14.353,IAT(Formal),2021.2.3,Win32,60.24096386,,,,,,,,,,,,,,,,,,,,,,,,,,,,,,,,,,,,,,,,,,,,,,,,,,,,,正直,e,,,e,1,0.6821,0,56,56,16,1,,
,,,,,,,,,,,,,1,001,2024-08-23_14h03.14.353,IAT(Formal),2021.2.3,Win32,60.24096386,,,,,,,,,,,,,,,,,,,,,,,,,,,,,,,,,,,,,,,,,,,,,,,,,,,,,勤奋,e,,,e,1,0.5616,0,57,57,18,1,,
,,,,,,,,,,,,,1,001,2024-08-23_14h03.14.353,IAT(Formal),2021.2.3,Win32,60.24096386,,,,,,,,,,,,,,,,,,,,,,,,,,,,,,,,,,,,,,,,,,,,,,,,,,,,,其他,e,,,e,1,0.6386,0,58,58,9,1,,
,,,,,,,,,,,,,1,001,2024-08-23_14h03.14.353,IAT(Formal),2021.2.3,Win32,60.24096386,,,,,,,,,,,,,,,,,,,,,,,,,,,,,,,,,,,,,,,,,,,,,,,,,,,,,他们,e,,,e,1,0.6431,0,59,59,66,1,,
,,,,,,,,,,,,,1,001,2024-08-23_14h03.14.353,IAT(Formal),2021.2.3,Win32,60.24096386,,,,,,,,,,,,,,,,,,,,,,,,,,,,,,,,,,,,,,,,,,,,,,,,,,,,,其他,e,,,e,1,0.5274,0,60,60,79,1,,
,,,,,,,,,,,,,1,001,2024-08-23_14h03.14.353,IAT(Formal),2021.2.3,Win32,60.24096386,,,,,,,,,,,,,,,,,,,,,,,,,,,,,,,,,,,,,,,,,,,,,,,,,,,,,傲慢,i,,,i,1,0.941,0,61,61,37,1,,
,,,,,,,,,,,,,1,001,2024-08-23_14h03.14.353,IAT(Formal),2021.2.3,Win32,60.24096386,,,,,,,,,,,,,,,,,,,,,,,,,,,,,,,,,,,,,,,,,,,,,,,,,,,,,杰出,e,,,e,1,0.628,0,62,62,13,1,,
,,,,,,,,,,,,,1,001,2024-08-23_14h03.14.353,IAT(Formal),2021.2.3,Win32,60.24096386,,,,,,,,,,,,,,,,,,,,,,,,,,,,,,,,,,,,,,,,,,,,,,,,,,,,,我的,i,,,i,1,0.5663,0,63,63,71,1,,
,,,,,,,,,,,,,1,001,2024-08-23_14h03.14.353,IAT(Formal),2021.2.3,Win32,60.24096386,,,,,,,,,,,,,,,,,,,,,,,,,,,,,,,,,,,,,,,,,,,,,,,,,,,,,轻率,i,,,i,1,0.8249,0,64,64,48,1,,
,,,,,,,,,,,,,1,001,2024-08-23_14h03.14.353,IAT(Formal),2021.2.3,Win32,60.24096386,,,,,,,,,,,,,,,,,,,,,,,,,,,,,,,,,,,,,,,,,,,,,,,,,,,,,俺,i,,,i,1,0.7276,0,65,65,54,1,,
,,,,,,,,,,,,,1,001,2024-08-23_14h03.14.353,IAT(Formal),2021.2.3,Win32,60.24096386,,,,,,,,,,,,,,,,,,,,,,,,,,,,,,,,,,,,,,,,,,,,,,,,,,,,,散漫,i,,,i,1,0.7272,0,66,66,41,1,,
,,,,,,,,,,,,,1,001,2024-08-23_14h03.14.353,IAT(Formal),2021.2.3,Win32,60.24096386,,,,,,,,,,,,,,,,,,,,,,,,,,,,,,,,,,,,,,,,,,,,,,,,,,,,,其他,e,,,e,1,0.6098,0,67,67,59,1,,
,,,,,,,,,,,,,1,001,2024-08-23_14h03.14.353,IAT(Formal),2021.2.3,Win32,60.24096386,,,,,,,,,,,,,,,,,,,,,,,,,,,,,,,,,,,,,,,,,,,,,,,,,,,,,野蛮,i,,,i,1,0.7179,0,68,68,46,1,,
,,,,,,,,,,,,,1,001,2024-08-23_14h03.14.353,IAT(Formal),2021.2.3,Win32,60.24096386,,,,,,,,,,,,,,,,,,,,,,,,,,,,,,,,,,,,,,,,,,,,,,,,,,,,,他们,e,,,e,1,0.7967,0,69,69,6,1,,
,,,,,,,,,,,,,1,001,2024-08-23_14h03.14.353,IAT(Formal),2021.2.3,Win32,60.24096386,,,,,,,,,,,,,,,,,,,,,,,,,,,,,,,,,,,,,,,,,,,,,,,,,,,,,他,e,,,e,1,0.5973,0,70,70,65,1,,
,,,,,,,,,,,,,1,001,2024-08-23_14h03.14.353,IAT(Formal),2021.2.3,Win32,60.24096386,,,,,,,,,,,,,,,,,,,,,,,,,,,,,,,,,,,,,,,,,,,,,,,,,,,,,鲁莽,i,,,i,1,0.5722,0,71,71,38,1,,
,,,,,,,,,,,,,1,001,2024-08-23_14h03.14.353,IAT(Formal),2021.2.3,Win32,60.24096386,,,,,,,,,,,,,,,,,,,,,,,,,,,,,,,,,,,,,,,,,,,,,,,,,,,,,自己,i,,,i,1,0.7621,0,72,72,3,1,,
,,,,,,,,,,,,,1,001,2024-08-23_14h03.14.353,IAT(Formal),2021.2.3,Win32,60.24096386,,,,,,,,,,,,,,,,,,,,,,,,,,,,,,,,,,,,,,,,,,,,,,,,,,,,,暴躁,i,,,i,1,0.6522,0,73,73,44,1,,
,,,,,,,,,,,,,1,001,2024-08-23_14h03.14.353,IAT(Formal),2021.2.3,Win32,60.24096386,,,,,,,,,,,,,,,,,,,,,,,,,,,,,,,,,,,,,,,,,,,,,,,,,,,,,公正,e,,,e,1,0.5476,0,74,74,23,1,,
,,,,,,,,,,,,,1,001,2024-08-23_14h03.14.353,IAT(Formal),2021.2.3,Win32,60.24096386,,,,,,,,,,,,,,,,,,,,,,,,,,,,,,,,,,,,,,,,,,,,,,,,,,,,,凶狠,i,,,i,1,0.6589,0,75,75,42,1,,
,,,,,,,,,,,,,1,001,2024-08-23_14h03.14.353,IAT(Formal),2021.2.3,Win32,60.24096386,,,,,,,,,,,,,,,,,,,,,,,,,,,,,,,,,,,,,,,,,,,,,,,,,,,,,我们,i,,,i,1,0.5794,0,76,76,72,1,,
,,,,,,,,,,,,,1,001,2024-08-23_14h03.14.353,IAT(Formal),2021.2.3,Win32,60.24096386,,,,,,,,,,,,,,,,,,,,,,,,,,,,,,,,,,,,,,,,,,,,,,,,,,,,,乐观,e,,,e,1,0.8769,0,77,77,14,1,,
,,,,,,,,,,,,,1,001,2024-08-23_14h03.14.353,IAT(Formal),2021.2.3,Win32,60.24096386,,,,,,,,,,,,,,,,,,,,,,,,,,,,,,,,,,,,,,,,,,,,,,,,,,,,,自卑,i,,,i,1,1.0071,0,78,78,36,1,,
,,,,,,,,,,,,,1,001,2024-08-23_14h03.14.353,IAT(Formal),2021.2.3,Win32,60.24096386,,,,,,,,,,,,,,,,,,,,,,,,,,,,,,,,,,,,,,,,,,,,,,,,,,,,,优秀,e,,,e,1,0.5052,0,79,79,10,1,,
,,,,,,,,,,,,,1,001,2024-08-23_14h03.14.353,IAT(Formal),2021.2.3,Win32,60.24096386,,,,,,,,,,,,,,,,,,,,,,,,,,,,,,,,,,,,,,,,,,,,,,,,,,,,,我,i,,,i,1,0.562,1,0,80,50,1,,
,,,,,,,,,,,,,1,001,2024-08-23_14h03.14.353,IAT(Formal),2021.2.3,Win32,60.24096386,,,,,,,,,,,,,,,,,,,,,,,,,,,,,,,,,,,,,,,,,,,,,,,,,,,,,无私,e,,,e,1,0.9922,1,1,81,22,1,,
,,,,,,,,,,,,,1,001,2024-08-23_14h03.14.353,IAT(Formal),2021.2.3,Win32,60.24096386,,,,,,,,,,,,,,,,,,,,,,,,,,,,,,,,,,,,,,,,,,,,,,,,,,,,,固执,i,,,i,1,0.6086,1,2,82,47,1,,
,,,,,,,,,,,,,1,001,2024-08-23_14h03.14.353,IAT(Formal),2021.2.3,Win32,60.24096386,,,,,,,,,,,,,,,,,,,,,,,,,,,,,,,,,,,,,,,,,,,,,,,,,,,,,其他,e,,,e,1,0.6106,1,3,83,69,1,,
,,,,,,,,,,,,,1,001,2024-08-23_14h03.14.353,IAT(Formal),2021.2.3,Win32,60.24096386,,,,,,,,,,,,,,,,,,,,,,,,,,,,,,,,,,,,,,,,,,,,,,,,,,,,,我们,i,,,i,1,0.6199,1,4,84,2,1,,
,,,,,,,,,,,,,1,001,2024-08-23_14h03.14.353,IAT(Formal),2021.2.3,Win32,60.24096386,,,,,,,,,,,,,,,,,,,,,,,,,,,,,,,,,,,,,,,,,,,,,,,,,,,,,崇高,e,,,e,1,0.6972,1,5,85,11,1,,
,,,,,,,,,,,,,1,001,2024-08-23_14h03.14.353,IAT(Formal),2021.2.3,Win32,60.24096386,,,,,,,,,,,,,,,,,,,,,,,,,,,,,,,,,,,,,,,,,,,,,,,,,,,,,公正,e,,,e,1,0.5186,1,6,86,23,1,,
,,,,,,,,,,,,,1,001,2024-08-23_14h03.14.353,IAT(Formal),2021.2.3,Win32,60.24096386,,,,,,,,,,,,,,,,,,,,,,,,,,,,,,,,,,,,,,,,,,,,,,,,,,,,,稳重,e,,,e,1,0.5228,1,7,87,21,1,,
,,,,,,,,,,,,,1,001,2024-08-23_14h03.14.353,IAT(Formal),2021.2.3,Win32,60.24096386,,,,,,,,,,,,,,,,,,,,,,,,,,,,,,,,,,,,,,,,,,,,,,,,,,,,,冷静,e,,,e,1,0.5802,1,8,88,26,1,,
,,,,,,,,,,,,,1,001,2024-08-23_14h03.14.353,IAT(Formal),2021.2.3,Win32,60.24096386,,,,,,,,,,,,,,,,,,,,,,,,,,,,,,,,,,,,,,,,,,,,,,,,,,,,,俺,i,,,i,1,0.7128,1,9,89,64,1,,
,,,,,,,,,,,,,1,001,2024-08-23_14h03.14.353,IAT(Formal),2021.2.3,Win32,60.24096386,,,,,,,,,,,,,,,,,,,,,,,,,,,,,,,,,,,,,,,,,,,,,,,,,,,,,俺,i,,,i,1,0.58,1,10,90,54,1,,
,,,,,,,,,,,,,1,001,2024-08-23_14h03.14.353,IAT(Formal),2021.2.3,Win32,60.24096386,,,,,,,,,,,,,,,,,,,,,,,,,,,,,,,,,,,,,,,,,,,,,,,,,,,,,其他,e,,,e,1,0.6121,1,11,91,59,1,,
,,,,,,,,,,,,,1,001,2024-08-23_14h03.14.353,IAT(Formal),2021.2.3,Win32,60.24096386,,,,,,,,,,,,,,,,,,,,,,,,,,,,,,,,,,,,,,,,,,,,,,,,,,,,,悲观,i,,,i,1,0.7462,1,12,92,34,1,,
,,,,,,,,,,,,,1,001,2024-08-23_14h03.14.353,IAT(Formal),2021.2.3,Win32,60.24096386,,,,,,,,,,,,,,,,,,,,,,,,,,,,,,,,,,,,,,,,,,,,,,,,,,,,,俺,i,,,i,1,0.6408,1,13,93,4,1,,
,,,,,,,,,,,,,1,001,2024-08-23_14h03.14.353,IAT(Formal),2021.2.3,Win32,60.24096386,,,,,,,,,,,,,,,,,,,,,,,,,,,,,,,,,,,,,,,,,,,,,,,,,,,,,他的,e,,,e,1,0.4966,1,14,94,7,1,,
,,,,,,,,,,,,,1,001,2024-08-23_14h03.14.353,IAT(Formal),2021.2.3,Win32,60.24096386,,,,,,,,,,,,,,,,,,,,,,,,,,,,,,,,,,,,,,,,,,,,,,,,,,,,,我的,i,,,i,1,0.5294,1,15,95,51,1,,
,,,,,,,,,,,,,1,001,2024-08-23_14h03.14.353,IAT(Formal),2021.2.3,Win32,60.24096386,,,,,,,,,,,,,,,,,,,,,,,,,,,,,,,,,,,,,,,,,,,,,,,,,,,,,自卑,i,,,i,1,0.779,1,16,96,36,1,,
,,,,,,,,,,,,,1,001,2024-08-23_14h03.14.353,IAT(Formal),2021.2.3,Win32,60.24096386,,,,,,,,,,,,,,,,,,,,,,,,,,,,,,,,,,,,,,,,,,,,,,,,,,,,,诚实,e,,,e,1,0.6884,1,17,97,15,1,,
,,,,,,,,,,,,,1,001,2024-08-23_14h03.14.353,IAT(Formal),2021.2.3,Win32,60.24096386,,,,,,,,,,,,,,,,,,,,,,,,,,,,,,,,,,,,,,,,,,,,,,,,,,,,,自私,i,,,e,0,1.1525,1,18,98,43,1,,
,,,,,,,,,,,,,1,001,2024-08-23_14h03.14.353,IAT(Formal),2021.2.3,Win32,60.24096386,,,,,,,,,,,,,,,,,,,,,,,,,,,,,,,,,,,,,,,,,,,,,,,,,,,,,暴躁,i,,,i,1,1.0328,1,19,99,44,1,,
,,,,,,,,,,,,,1,001,2024-08-23_14h03.14.353,IAT(Formal),2021.2.3,Win32,60.24096386,,,,,,,,,,,,,,,,,,,,,,,,,,,,,,,,,,,,,,,,,,,,,,,,,,,,,机智,e,,,e,1,0.5637,1,20,100,19,1,,
,,,,,,,,,,,,,1,001,2024-08-23_14h03.14.353,IAT(Formal),2021.2.3,Win32,60.24096386,,,,,,,,,,,,,,,,,,,,,,,,,,,,,,,,,,,,,,,,,,,,,,,,,,,,,执拗,i,,,i,1,0.8344,1,21,101,40,1,,
,,,,,,,,,,,,,1,001,2024-08-23_14h03.14.353,IAT(Formal),2021.2.3,Win32,60.24096386,,,,,,,,,,,,,,,,,,,,,,,,,,,,,,,,,,,,,,,,,,,,,,,,,,,,,刻薄,i,,,i,1,0.5811,1,22,102,33,1,,
,,,,,,,,,,,,,1,001,2024-08-23_14h03.14.353,IAT(Formal),2021.2.3,Win32,60.24096386,,,,,,,,,,,,,,,,,,,,,,,,,,,,,,,,,,,,,,,,,,,,,,,,,,,,,我的,i,,,i,1,0.5308,1,23,103,61,1,,
,,,,,,,,,,,,,1,001,2024-08-23_14h03.14.353,IAT(Formal),2021.2.3,Win32,60.24096386,,,,,,,,,,,,,,,,,,,,,,,,,,,,,,,,,,,,,,,,,,,,,,,,,,,,,他,e,,,e,1,0.6127,1,24,104,65,1,,
,,,,,,,,,,,,,1,001,2024-08-23_14h03.14.353,IAT(Formal),2021.2.3,Win32,60.24096386,,,,,,,,,,,,,,,,,,,,,,,,,,,,,,,,,,,,,,,,,,,,,,,,,,,,,诚恳,e,,,e,1,0.564,1,25,105,29,1,,
,,,,,,,,,,,,,1,001,2024-08-23_14h03.14.353,IAT(Formal),2021.2.3,Win32,60.24096386,,,,,,,,,,,,,,,,,,,,,,,,,,,,,,,,,,,,,,,,,,,,,,,,,,,,,虚伪,i,,,i,1,0.6801,1,26,106,31,1,,
,,,,,,,,,,,,,1,001,2024-08-23_14h03.14.353,IAT(Formal),2021.2.3,Win32,60.24096386,,,,,,,,,,,,,,,,,,,,,,,,,,,,,,,,,,,,,,,,,,,,,,,,,,,,,冒失,i,,,i,1,0.5706,1,27,107,39,1,,
,,,,,,,,,,,,,1,001,2024-08-23_14h03.14.353,IAT(Formal),2021.2.3,Win32,60.24096386,,,,,,,,,,,,,,,,,,,,,,,,,,,,,,,,,,,,,,,,,,,,,,,,,,,,,他人,e,,,e,1,0.564,1,28,108,58,1,,
,,,,,,,,,,,,,1,001,2024-08-23_14h03.14.353,IAT(Formal),2021.2.3,Win32,60.24096386,,,,,,,,,,,,,,,,,,,,,,,,,,,,,,,,,,,,,,,,,,,,,,,,,,,,,优秀,e,,,e,1,0.7115,1,29,109,10,1,,
,,,,,,,,,,,,,1,001,2024-08-23_14h03.14.353,IAT(Formal),2021.2.3,Win32,60.24096386,,,,,,,,,,,,,,,,,,,,,,,,,,,,,,,,,,,,,,,,,,,,,,,,,,,,,活泼,e,,,e,1,0.6837,1,30,110,28,1,,
,,,,,,,,,,,,,1,001,2024-08-23_14h03.14.353,IAT(Formal),2021.2.3,Win32,60.24096386,,,,,,,,,,,,,,,,,,,,,,,,,,,,,,,,,,,,,,,,,,,,,,,,,,,,,杰出,e,,,e,1,0.5239,1,31,111,13,1,,
,,,,,,,,,,,,,1,001,2024-08-23_14h03.14.353,IAT(Formal),2021.2.3,Win32,60.24096386,,,,,,,,,,,,,,,,,,,,,,,,,,,,,,,,,,,,,,,,,,,,,,,,,,,,,他人,e,,,e,1,0.4807,1,32,112,78,1,,
,,,,,,,,,,,,,1,001,2024-08-23_14h03.14.353,IAT(Formal),2021.2.3,Win32,60.24096386,,,,,,,,,,,,,,,,,,,,,,,,,,,,,,,,,,,,,,,,,,,,,,,,,,,,,他们,e,,,e,1,0.5883,1,33,113,76,1,,
,,,,,,,,,,,,,1,001,2024-08-23_14h03.14.353,IAT(Formal),2021.2.3,Win32,60.24096386,,,,,,,,,,,,,,,,,,,,,,,,,,,,,,,,,,,,,,,,,,,,,,,,,,,,,我的,i,,,i,1,0.5375,1,34,114,71,1,,
,,,,,,,,,,,,,1,001,2024-08-23_14h03.14.353,IAT(Formal),2021.2.3,Win32,60.24096386,,,,,,,,,,,,,,,,,,,,,,,,,,,,,,,,,,,,,,,,,,,,,,,,,,,,,我们,i,,,i,1,0.5633,1,35,115,62,1,,
,,,,,,,,,,,,,1,001,2024-08-23_14h03.14.353,IAT(Formal),2021.2.3,Win32,60.24096386,,,,,,,,,,,,,,,,,,,,,,,,,,,,,,,,,,,,,,,,,,,,,,,,,,,,,他,e,,,e,1,0.655,1,36,116,55,1,,
,,,,,,,,,,,,,1,001,2024-08-23_14h03.14.353,IAT(Formal),2021.2.3,Win32,60.24096386,,,,,,,,,,,,,,,,,,,,,,,,,,,,,,,,,,,,,,,,,,,,,,,,,,,,,愚蠢,i,,,i,1,0.7489,1,37,117,32,1,,
,,,,,,,,,,,,,1,001,2024-08-23_14h03.14.353,IAT(Formal),2021.2.3,Win32,60.24096386,,,,,,,,,,,,,,,,,,,,,,,,,,,,,,,,,,,,,,,,,,,,,,,,,,,,,他人,e,,,e,1,0.68,1,38,118,8,1,,
,,,,,,,,,,,,,1,001,2024-08-23_14h03.14.353,IAT(Formal),2021.2.3,Win32,60.24096386,,,,,,,,,,,,,,,,,,,,,,,,,,,,,,,,,,,,,,,,,,,,,,,,,,,,,我们,i,,,i,1,0.4825,1,39,119,52,1,,
,,,,,,,,,,,,,1,001,2024-08-23_14h03.14.353,IAT(Formal),2021.2.3,Win32,60.24096386,,,,,,,,,,,,,,,,,,,,,,,,,,,,,,,,,,,,,,,,,,,,,,,,,,,,,他的,e,,,e,1,0.7472,1,40,120,57,1,,
,,,,,,,,,,,,,1,001,2024-08-23_14h03.14.353,IAT(Formal),2021.2.3,Win32,60.24096386,,,,,,,,,,,,,,,,,,,,,,,,,,,,,,,,,,,,,,,,,,,,,,,,,,,,,他们,e,,,e,1,0.5512,1,41,121,66,1,,
,,,,,,,,,,,,,1,001,2024-08-23_14h03.14.353,IAT(Formal),2021.2.3,Win32,60.24096386,,,,,,,,,,,,,,,,,,,,,,,,,,,,,,,,,,,,,,,,,,,,,,,,,,,,,猖狂,i,,,i,1,0.7841,1,42,122,45,1,,
,,,,,,,,,,,,,1,001,2024-08-23_14h03.14.353,IAT(Formal),2021.2.3,Win32,60.24096386,,,,,,,,,,,,,,,,,,,,,,,,,,,,,,,,,,,,,,,,,,,,,,,,,,,,,我,i,,,i,1,0.4818,1,43,123,60,1,,
,,,,,,,,,,,,,1,001,2024-08-23_14h03.14.353,IAT(Formal),2021.2.3,Win32,60.24096386,,,,,,,,,,,,,,,,,,,,,,,,,,,,,,,,,,,,,,,,,,,,,,,,,,,,,他们,e,,,e,1,0.58,1,44,124,56,1,,
,,,,,,,,,,,,,1,001,2024-08-23_14h03.14.353,IAT(Formal),2021.2.3,Win32,60.24096386,,,,,,,,,,,,,,,,,,,,,,,,,,,,,,,,,,,,,,,,,,,,,,,,,,,,,他的,e,,,e,1,0.531,1,45,125,67,1,,
,,,,,,,,,,,,,1,001,2024-08-23_14h03.14.353,IAT(Formal),2021.2.3,Win32,60.24096386,,,,,,,,,,,,,,,,,,,,,,,,,,,,,,,,,,,,,,,,,,,,,,,,,,,,,鲁莽,i,,,i,1,0.7568,1,46,126,38,1,,
,,,,,,,,,,,,,1,001,2024-08-23_14h03.14.353,IAT(Formal),2021.2.3,Win32,60.24096386,,,,,,,,,,,,,,,,,,,,,,,,,,,,,,,,,,,,,,,,,,,,,,,,,,,,,其他,e,,,e,1,0.5856,1,47,127,79,1,,
,,,,,,,,,,,,,1,001,2024-08-23_14h03.14.353,IAT(Formal),2021.2.3,Win32,60.24096386,,,,,,,,,,,,,,,,,,,,,,,,,,,,,,,,,,,,,,,,,,,,,,,,,,,,,他人,e,,,e,1,0.8613,1,48,128,68,1,,
,,,,,,,,,,,,,1,001,2024-08-23_14h03.14.353,IAT(Formal),2021.2.3,Win32,60.24096386,,,,,,,,,,,,,,,,,,,,,,,,,,,,,,,,,,,,,,,,,,,,,,,,,,,,,认真,e,,,e,1,0.8455,1,49,129,20,1,,
,,,,,,,,,,,,,1,001,2024-08-23_14h03.14.353,IAT(Formal),2021.2.3,Win32,60.24096386,,,,,,,,,,,,,,,,,,,,,,,,,,,,,,,,,,,,,,,,,,,,,,,,,,,,,勇敢,e,,,e,1,0.6553,1,50,130,17,1,,
,,,,,,,,,,,,,1,001,2024-08-23_14h03.14.353,IAT(Formal),2021.2.3,Win32,60.24096386,,,,,,,,,,,,,,,,,,,,,,,,,,,,,,,,,,,,,,,,,,,,,,,,,,,,,自己,i,,,i,1,0.8044,1,51,131,3,1,,
,,,,,,,,,,,,,1,001,2024-08-23_14h03.14.353,IAT(Formal),2021.2.3,Win32,60.24096386,,,,,,,,,,,,,,,,,,,,,,,,,,,,,,,,,,,,,,,,,,,,,,,,,,,,,轻率,i,,,i,1,0.5958,1,52,132,48,1,,
,,,,,,,,,,,,,1,001,2024-08-23_14h03.14.353,IAT(Formal),2021.2.3,Win32,60.24096386,,,,,,,,,,,,,,,,,,,,,,,,,,,,,,,,,,,,,,,,,,,,,,,,,,,,,下贱,i,,,i,1,0.5135,1,53,133,49,1,,
,,,,,,,,,,,,,1,001,2024-08-23_14h03.14.353,IAT(Formal),2021.2.3,Win32,60.24096386,,,,,,,,,,,,,,,,,,,,,,,,,,,,,,,,,,,,,,,,,,,,,,,,,,,,,他的,e,,,e,1,0.7006,1,54,134,77,1,,
,,,,,,,,,,,,,1,001,2024-08-23_14h03.14.353,IAT(Formal),2021.2.3,Win32,60.24096386,,,,,,,,,,,,,,,,,,,,,,,,,,,,,,,,,,,,,,,,,,,,,,,,,,,,,乐观,e,,,e,1,1.3217,1,55,135,14,1,,
,,,,,,,,,,,,,1,001,2024-08-23_14h03.14.353,IAT(Formal),2021.2.3,Win32,60.24096386,,,,,,,,,,,,,,,,,,,,,,,,,,,,,,,,,,,,,,,,,,,,,,,,,,,,,自己,i,,,i,1,0.7333,1,56,136,73,1,,
,,,,,,,,,,,,,1,001,2024-08-23_14h03.14.353,IAT(Formal),2021.2.3,Win32,60.24096386,,,,,,,,,,,,,,,,,,,,,,,,,,,,,,,,,,,,,,,,,,,,,,,,,,,,,野蛮,i,,,i,1,0.763,1,57,137,46,1,,
,,,,,,,,,,,,,1,001,2024-08-23_14h03.14.353,IAT(Formal),2021.2.3,Win32,60.24096386,,,,,,,,,,,,,,,,,,,,,,,,,,,,,,,,,,,,,,,,,,,,,,,,,,,,,勤奋,e,,,e,1,0.9281,1,58,138,18,1,,
,,,,,,,,,,,,,1,001,2024-08-23_14h03.14.353,IAT(Formal),2021.2.3,Win32,60.24096386,,,,,,,,,,,,,,,,,,,,,,,,,,,,,,,,,,,,,,,,,,,,,,,,,,,,,他,e,,,e,1,0.6467,1,59,139,5,1,,
,,,,,,,,,,,,,1,001,2024-08-23_14h03.14.353,IAT(Formal),2021.2.3,Win32,60.24096386,,,,,,,,,,,,,,,,,,,,,,,,,,,,,,,,,,,,,,,,,,,,,,,,,,,,,热情,e,,,e,1,0.5137,1,60,140,27,1,,
,,,,,,,,,,,,,1,001,2024-08-23_14h03.14.353,IAT(Formal),2021.2.3,Win32,60.24096386,,,,,,,,,,,,,,,,,,,,,,,,,,,,,,,,,,,,,,,,,,,,,,,,,,,,,朴实,e,,,e,1,0.4975,1,61,141,24,1,,
,,,,,,,,,,,,,1,001,2024-08-23_14h03.14.353,IAT(Formal),2021.2.3,Win32,60.24096386,,,,,,,,,,,,,,,,,,,,,,,,,,,,,,,,,,,,,,,,,,,,,,,,,,,,,其他,e,,,e,1,0.6906,1,62,142,9,1,,
,,,,,,,,,,,,,1,001,2024-08-23_14h03.14.353,IAT(Formal),2021.2.3,Win32,60.24096386,,,,,,,,,,,,,,,,,,,,,,,,,,,,,,,,,,,,,,,,,,,,,,,,,,,,,细腻,e,,,e,1,0.6646,1,63,143,25,1,,
,,,,,,,,,,,,,1,001,2024-08-23_14h03.14.353,IAT(Formal),2021.2.3,Win32,60.24096386,,,,,,,,,,,,,,,,,,,,,,,,,,,,,,,,,,,,,,,,,,,,,,,,,,,,,自己,i,,,i,1,0.6321,1,64,144,53,1,,
,,,,,,,,,,,,,1,001,2024-08-23_14h03.14.353,IAT(Formal),2021.2.3,Win32,60.24096386,,,,,,,,,,,,,,,,,,,,,,,,,,,,,,,,,,,,,,,,,,,,,,,,,,,,,他们,e,,,e,1,0.7468,1,65,145,6,1,,
,,,,,,,,,,,,,1,001,2024-08-23_14h03.14.353,IAT(Formal),2021.2.3,Win32,60.24096386,,,,,,,,,,,,,,,,,,,,,,,,,,,,,,,,,,,,,,,,,,,,,,,,,,,,,傲慢,i,,,i,1,0.6554,1,66,146,37,1,,
,,,,,,,,,,,,,1,001,2024-08-23_14h03.14.353,IAT(Formal),2021.2.3,Win32,60.24096386,,,,,,,,,,,,,,,,,,,,,,,,,,,,,,,,,,,,,,,,,,,,,,,,,,,,,凶狠,i,,,i,1,0.4486,1,67,147,42,1,,
,,,,,,,,,,,,,1,001,2024-08-23_14h03.14.353,IAT(Formal),2021.2.3,Win32,60.24096386,,,,,,,,,,,,,,,,,,,,,,,,,,,,,,,,,,,,,,,,,,,,,,,,,,,,,我,i,,,i,1,0.8014,1,68,148,0,1,,
,,,,,,,,,,,,,1,001,2024-08-23_14h03.14.353,IAT(Formal),2021.2.3,Win32,60.24096386,,,,,,,,,,,,,,,,,,,,,,,,,,,,,,,,,,,,,,,,,,,,,,,,,,,,,散漫,i,,,i,1,0.7458,1,69,149,41,1,,
,,,,,,,,,,,,,1,001,2024-08-23_14h03.14.353,IAT(Formal),2021.2.3,Win32,60.24096386,,,,,,,,,,,,,,,,,,,,,,,,,,,,,,,,,,,,,,,,,,,,,,,,,,,,,我的,i,,,i,1,0.5031,1,70,150,1,1,,
,,,,,,,,,,,,,1,001,2024-08-23_14h03.14.353,IAT(Formal),2021.2.3,Win32,60.24096386,,,,,,,,,,,,,,,,,,,,,,,,,,,,,,,,,,,,,,,,,,,,,,,,,,,,,正直,e,,,e,1,0.477,1,71,151,16,1,,
,,,,,,,,,,,,,1,001,2024-08-23_14h03.14.353,IAT(Formal),2021.2.3,Win32,60.24096386,,,,,,,,,,,,,,,,,,,,,,,,,,,,,,,,,,,,,,,,,,,,,,,,,,,,,我们,i,,,e,0,0.4643,1,72,152,72,1,,
,,,,,,,,,,,,,1,001,2024-08-23_14h03.14.353,IAT(Formal),2021.2.3,Win32,60.24096386,,,,,,,,,,,,,,,,,,,,,,,,,,,,,,,,,,,,,,,,,,,,,,,,,,,,,自己,i,,,i,1,0.4751,1,73,153,63,1,,
,,,,,,,,,,,,,1,001,2024-08-23_14h03.14.353,IAT(Formal),2021.2.3,Win32,60.24096386,,,,,,,,,,,,,,,,,,,,,,,,,,,,,,,,,,,,,,,,,,,,,,,,,,,,,聪明,e,,,e,1,0.6553,1,74,154,12,1,,
,,,,,,,,,,,,,1,001,2024-08-23_14h03.14.353,IAT(Formal),2021.2.3,Win32,60.24096386,,,,,,,,,,,,,,,,,,,,,,,,,,,,,,,,,,,,,,,,,,,,,,,,,,,,,俺,i,,,i,1,0.6293,1,75,155,74,1,,
,,,,,,,,,,,,,1,001,2024-08-23_14h03.14.353,IAT(Formal),2021.2.3,Win32,60.24096386,,,,,,,,,,,,,,,,,,,,,,,,,,,,,,,,,,,,,,,,,,,,,,,,,,,,,我,i,,,i,1,0.4313,1,76,156,70,1,,
,,,,,,,,,,,,,1,001,2024-08-23_14h03.14.353,IAT(Formal),2021.2.3,Win32,60.24096386,,,,,,,,,,,,,,,,,,,,,,,,,,,,,,,,,,,,,,,,,,,,,,,,,,,,,消极,i,,,i,1,0.862,1,77,157,35,1,,
,,,,,,,,,,,,,1,001,2024-08-23_14h03.14.353,IAT(Formal),2021.2.3,Win32,60.24096386,,,,,,,,,,,,,,,,,,,,,,,,,,,,,,,,,,,,,,,,,,,,,,,,,,,,,卑鄙,i,,,i,1,0.6466,1,78,158,30,1,,
,,,,,,,,,,,,,1,001,2024-08-23_14h03.14.353,IAT(Formal),2021.2.3,Win32,60.24096386,,,,,,,,,,,,,,,,,,,,,,,,,,,,,,,,,,,,,,,,,,,,,,,,,,,,,他,e,,,e,1,0.6136,1,79,159,75,1,,
,,,,,,,,,,,,,1,001,2024-08-23_14h03.14.353,IAT(Formal),2021.2.3,Win32,60.24096386,,,,,,,,,,,,,,,,,,,,,,,,,,,,,,,,,,,,,,,,,,,,,,,,,,,,,,,,,,,,,,,,,space,2.2922