﻿Instruction1.keys,Instruction1.rt,Instruction2.keys,Instruction2.rt,key_resp_iso.keys,key_resp_iso.corr,key_resp_iso.rt,Practice_01.thisRepN,Practice_01.thisTrialN,Practice_01.thisN,Practice_01.thisIndex,Practice_01.ran,Words,ans,participant,session,date,expName,psychopyVersion,OS,frameRate,key_resp_3.keys,key_resp_3.rt,key_resp_ipn.keys,key_resp_ipn.corr,key_resp_ipn.rt,Practice_02.thisRepN,Practice_02.thisTrialN,Practice_02.thisN,Practice_02.thisIndex,Practice_02.ran,Words_ipn,ans_ipn,key_resp_4.keys,key_resp_4.rt,key_resp_t1.keys,key_resp_t1.corr,Practice_T1.thisRepN,Practice_T1.thisTrialN,Practice_T1.thisN,Practice_T1.thisIndex,Practice_T1.ran,Words_t1,ans_t1,key_resp_t1.rt,key_resp_5.keys,key_resp_5.rt,Formal_T1.thisRepN,Formal_T1.thisTrialN,Formal_T1.thisN,Formal_T1.thisIndex,Formal_T1.ran,key_resp_6.keys,key_resp_6.rt,key_resp_iso_reverse.keys,key_resp_iso_reverse.corr,key_resp_iso_reverse.rt,Practice_iso_Reverse.thisRepN,Practice_iso_Reverse.thisTrialN,Practice_iso_Reverse.thisN,Practice_iso_Reverse.thisIndex,Practice_iso_Reverse.ran,key_resp_7.keys,key_resp_7.rt,key_resp_t2_Practice.keys,key_resp_t2_Practice.corr,Practice_t2_Reverse.thisRepN,Practice_t2_Reverse.thisTrialN,Practice_t2_Reverse.thisN,Practice_t2_Reverse.thisIndex,Practice_t2_Reverse.ran,Words_t2,ans_t2,key_resp_t2_Practice.rt,key_resp_8.keys,key_resp_8.rt,key_resp_t2.keys,key_resp_t2.corr,key_resp_t2.rt,Formal_t2_reverse.thisRepN,Formal_t2_reverse.thisTrialN,Formal_t2_reverse.thisN,Formal_t2_reverse.thisIndex,Formal_t2_reverse.ran,key_instruct.keys,key_instruct.rt
space,3.5892,space,8.3986,e,1,0.7075,0,0,0,2,1,我们,e,1,001,2025-01-02_15h43.15.834,IAT(Formal),2021.2.3,Win32,142.8571429,,,,,,,,,,,,,,,,,,,,,,,,,,,,,,,,,,,,,,,,,,,,,,,,,,,,,,,,,,,,,,,,,
,,,,i,1,0.6118,0,1,1,9,1,其他,i,1,001,2025-01-02_15h43.15.834,IAT(Formal),2021.2.3,Win32,142.8571429,,,,,,,,,,,,,,,,,,,,,,,,,,,,,,,,,,,,,,,,,,,,,,,,,,,,,,,,,,,,,,,,,
,,,,e,1,0.3974,0,2,2,0,1,我,e,1,001,2025-01-02_15h43.15.834,IAT(Formal),2021.2.3,Win32,142.8571429,,,,,,,,,,,,,,,,,,,,,,,,,,,,,,,,,,,,,,,,,,,,,,,,,,,,,,,,,,,,,,,,,
,,,,i,1,0.6519,0,3,3,7,1,他的,i,1,001,2025-01-02_15h43.15.834,IAT(Formal),2021.2.3,Win32,142.8571429,,,,,,,,,,,,,,,,,,,,,,,,,,,,,,,,,,,,,,,,,,,,,,,,,,,,,,,,,,,,,,,,,
,,,,i,1,0.5642,0,4,4,6,1,他们,i,1,001,2025-01-02_15h43.15.834,IAT(Formal),2021.2.3,Win32,142.8571429,,,,,,,,,,,,,,,,,,,,,,,,,,,,,,,,,,,,,,,,,,,,,,,,,,,,,,,,,,,,,,,,,
,,,,i,1,0.4067,0,5,5,5,1,他,i,1,001,2025-01-02_15h43.15.834,IAT(Formal),2021.2.3,Win32,142.8571429,,,,,,,,,,,,,,,,,,,,,,,,,,,,,,,,,,,,,,,,,,,,,,,,,,,,,,,,,,,,,,,,,
,,,,e,1,0.404,0,6,6,1,1,我的,e,1,001,2025-01-02_15h43.15.834,IAT(Formal),2021.2.3,Win32,142.8571429,,,,,,,,,,,,,,,,,,,,,,,,,,,,,,,,,,,,,,,,,,,,,,,,,,,,,,,,,,,,,,,,,
,,,,e,1,0.4696,0,7,7,4,1,俺,e,1,001,2025-01-02_15h43.15.834,IAT(Formal),2021.2.3,Win32,142.8571429,,,,,,,,,,,,,,,,,,,,,,,,,,,,,,,,,,,,,,,,,,,,,,,,,,,,,,,,,,,,,,,,,
,,,,i,1,0.4319,0,8,8,8,1,他人,i,1,001,2025-01-02_15h43.15.834,IAT(Formal),2021.2.3,Win32,142.8571429,,,,,,,,,,,,,,,,,,,,,,,,,,,,,,,,,,,,,,,,,,,,,,,,,,,,,,,,,,,,,,,,,
,,,,e,1,0.4243,0,9,9,3,1,自己,e,1,001,2025-01-02_15h43.15.834,IAT(Formal),2021.2.3,Win32,142.8571429,,,,,,,,,,,,,,,,,,,,,,,,,,,,,,,,,,,,,,,,,,,,,,,,,,,,,,,,,,,,,,,,,
,,,,,,,,,,,,,,1,001,2025-01-02_15h43.15.834,IAT(Formal),2021.2.3,Win32,142.8571429,space,1.9957,e,1,0.8692,0,0,0,16,1,冷静,e,,,,,,,,,,,,,,,,,,,,,,,,,,,,,,,,,,,,,,,,,,,,,,,,,,,,,
,,,,,,,,,,,,,,1,001,2025-01-02_15h43.15.834,IAT(Formal),2021.2.3,Win32,142.8571429,,,i,1,0.4344,0,1,1,37,1,固执,i,,,,,,,,,,,,,,,,,,,,,,,,,,,,,,,,,,,,,,,,,,,,,,,,,,,,,
,,,,,,,,,,,,,,1,001,2025-01-02_15h43.15.834,IAT(Formal),2021.2.3,Win32,142.8571429,,,i,1,0.5276,0,2,2,28,1,鲁莽,i,,,,,,,,,,,,,,,,,,,,,,,,,,,,,,,,,,,,,,,,,,,,,,,,,,,,,
,,,,,,,,,,,,,,1,001,2025-01-02_15h43.15.834,IAT(Formal),2021.2.3,Win32,142.8571429,,,i,1,0.6157,0,3,3,27,1,傲慢,i,,,,,,,,,,,,,,,,,,,,,,,,,,,,,,,,,,,,,,,,,,,,,,,,,,,,,
,,,,,,,,,,,,,,1,001,2025-01-02_15h43.15.834,IAT(Formal),2021.2.3,Win32,142.8571429,,,i,1,0.6177,0,4,4,38,1,轻率,i,,,,,,,,,,,,,,,,,,,,,,,,,,,,,,,,,,,,,,,,,,,,,,,,,,,,,
,,,,,,,,,,,,,,1,001,2025-01-02_15h43.15.834,IAT(Formal),2021.2.3,Win32,142.8571429,,,e,1,0.4879,0,5,5,19,1,诚恳,e,,,,,,,,,,,,,,,,,,,,,,,,,,,,,,,,,,,,,,,,,,,,,,,,,,,,,
,,,,,,,,,,,,,,1,001,2025-01-02_15h43.15.834,IAT(Formal),2021.2.3,Win32,142.8571429,,,i,1,0.6158,0,6,6,26,1,自卑,i,,,,,,,,,,,,,,,,,,,,,,,,,,,,,,,,,,,,,,,,,,,,,,,,,,,,,
,,,,,,,,,,,,,,1,001,2025-01-02_15h43.15.834,IAT(Formal),2021.2.3,Win32,142.8571429,,,i,1,0.502,0,7,7,39,1,下贱,i,,,,,,,,,,,,,,,,,,,,,,,,,,,,,,,,,,,,,,,,,,,,,,,,,,,,,
,,,,,,,,,,,,,,1,001,2025-01-02_15h43.15.834,IAT(Formal),2021.2.3,Win32,142.8571429,,,i,1,0.6612,0,8,8,22,1,愚蠢,i,,,,,,,,,,,,,,,,,,,,,,,,,,,,,,,,,,,,,,,,,,,,,,,,,,,,,
,,,,,,,,,,,,,,1,001,2025-01-02_15h43.15.834,IAT(Formal),2021.2.3,Win32,142.8571429,,,e,1,0.8245,0,9,9,11,1,稳重,e,,,,,,,,,,,,,,,,,,,,,,,,,,,,,,,,,,,,,,,,,,,,,,,,,,,,,
,,,,,,,,,,,,,,1,001,2025-01-02_15h43.15.834,IAT(Formal),2021.2.3,Win32,142.8571429,,,i,1,0.707,0,10,10,31,1,散漫,i,,,,,,,,,,,,,,,,,,,,,,,,,,,,,,,,,,,,,,,,,,,,,,,,,,,,,
,,,,,,,,,,,,,,1,001,2025-01-02_15h43.15.834,IAT(Formal),2021.2.3,Win32,142.8571429,,,i,1,0.6086,0,11,11,23,1,刻薄,i,,,,,,,,,,,,,,,,,,,,,,,,,,,,,,,,,,,,,,,,,,,,,,,,,,,,,
,,,,,,,,,,,,,,1,001,2025-01-02_15h43.15.834,IAT(Formal),2021.2.3,Win32,142.8571429,,,e,1,0.5484,0,12,12,7,1,勇敢,e,,,,,,,,,,,,,,,,,,,,,,,,,,,,,,,,,,,,,,,,,,,,,,,,,,,,,
,,,,,,,,,,,,,,1,001,2025-01-02_15h43.15.834,IAT(Formal),2021.2.3,Win32,142.8571429,,,e,1,0.494,0,13,13,17,1,热情,e,,,,,,,,,,,,,,,,,,,,,,,,,,,,,,,,,,,,,,,,,,,,,,,,,,,,,
,,,,,,,,,,,,,,1,001,2025-01-02_15h43.15.834,IAT(Formal),2021.2.3,Win32,142.8571429,,,e,1,0.6305,0,14,14,9,1,机智,e,,,,,,,,,,,,,,,,,,,,,,,,,,,,,,,,,,,,,,,,,,,,,,,,,,,,,
,,,,,,,,,,,,,,1,001,2025-01-02_15h43.15.834,IAT(Formal),2021.2.3,Win32,142.8571429,,,e,1,0.4055,0,15,15,4,1,乐观,e,,,,,,,,,,,,,,,,,,,,,,,,,,,,,,,,,,,,,,,,,,,,,,,,,,,,,
,,,,,,,,,,,,,,1,001,2025-01-02_15h43.15.834,IAT(Formal),2021.2.3,Win32,142.8571429,,,i,1,0.5766,0,16,16,20,1,卑鄙,i,,,,,,,,,,,,,,,,,,,,,,,,,,,,,,,,,,,,,,,,,,,,,,,,,,,,,
,,,,,,,,,,,,,,1,001,2025-01-02_15h43.15.834,IAT(Formal),2021.2.3,Win32,142.8571429,,,e,1,0.4368,0,17,17,2,1,聪明,e,,,,,,,,,,,,,,,,,,,,,,,,,,,,,,,,,,,,,,,,,,,,,,,,,,,,,
,,,,,,,,,,,,,,1,001,2025-01-02_15h43.15.834,IAT(Formal),2021.2.3,Win32,142.8571429,,,i,1,0.4874,0,18,18,33,1,自私,i,,,,,,,,,,,,,,,,,,,,,,,,,,,,,,,,,,,,,,,,,,,,,,,,,,,,,
,,,,,,,,,,,,,,1,001,2025-01-02_15h43.15.834,IAT(Formal),2021.2.3,Win32,142.8571429,,,i,0,0.8559,0,19,19,14,1,朴实,e,,,,,,,,,,,,,,,,,,,,,,,,,,,,,,,,,,,,,,,,,,,,,,,,,,,,,
,,,,,,,,,,,,,,1,001,2025-01-02_15h43.15.834,IAT(Formal),2021.2.3,Win32,142.8571429,,,i,1,0.764,0,20,20,24,1,悲观,i,,,,,,,,,,,,,,,,,,,,,,,,,,,,,,,,,,,,,,,,,,,,,,,,,,,,,
,,,,,,,,,,,,,,1,001,2025-01-02_15h43.15.834,IAT(Formal),2021.2.3,Win32,142.8571429,,,e,1,0.4583,0,21,21,5,1,诚实,e,,,,,,,,,,,,,,,,,,,,,,,,,,,,,,,,,,,,,,,,,,,,,,,,,,,,,
,,,,,,,,,,,,,,1,001,2025-01-02_15h43.15.834,IAT(Formal),2021.2.3,Win32,142.8571429,,,i,1,0.4978,0,22,22,30,1,执拗,i,,,,,,,,,,,,,,,,,,,,,,,,,,,,,,,,,,,,,,,,,,,,,,,,,,,,,
,,,,,,,,,,,,,,1,001,2025-01-02_15h43.15.834,IAT(Formal),2021.2.3,Win32,142.8571429,,,e,1,0.8224,0,23,23,12,1,无私,e,,,,,,,,,,,,,,,,,,,,,,,,,,,,,,,,,,,,,,,,,,,,,,,,,,,,,
,,,,,,,,,,,,,,1,001,2025-01-02_15h43.15.834,IAT(Formal),2021.2.3,Win32,142.8571429,,,i,1,0.6389,0,24,24,21,1,虚伪,i,,,,,,,,,,,,,,,,,,,,,,,,,,,,,,,,,,,,,,,,,,,,,,,,,,,,,
,,,,,,,,,,,,,,1,001,2025-01-02_15h43.15.834,IAT(Formal),2021.2.3,Win32,142.8571429,,,e,0,0.7572,0,25,25,36,1,野蛮,i,,,,,,,,,,,,,,,,,,,,,,,,,,,,,,,,,,,,,,,,,,,,,,,,,,,,,
,,,,,,,,,,,,,,1,001,2025-01-02_15h43.15.834,IAT(Formal),2021.2.3,Win32,142.8571429,,,e,1,0.6473,0,26,26,1,1,崇高,e,,,,,,,,,,,,,,,,,,,,,,,,,,,,,,,,,,,,,,,,,,,,,,,,,,,,,
,,,,,,,,,,,,,,1,001,2025-01-02_15h43.15.834,IAT(Formal),2021.2.3,Win32,142.8571429,,,i,1,0.6236,0,27,27,32,1,凶狠,i,,,,,,,,,,,,,,,,,,,,,,,,,,,,,,,,,,,,,,,,,,,,,,,,,,,,,
,,,,,,,,,,,,,,1,001,2025-01-02_15h43.15.834,IAT(Formal),2021.2.3,Win32,142.8571429,,,i,1,0.6682,0,28,28,29,1,冒失,i,,,,,,,,,,,,,,,,,,,,,,,,,,,,,,,,,,,,,,,,,,,,,,,,,,,,,
,,,,,,,,,,,,,,1,001,2025-01-02_15h43.15.834,IAT(Formal),2021.2.3,Win32,142.8571429,,,e,1,0.4208,0,29,29,10,1,认真,e,,,,,,,,,,,,,,,,,,,,,,,,,,,,,,,,,,,,,,,,,,,,,,,,,,,,,
,,,,,,,,,,,,,,1,001,2025-01-02_15h43.15.834,IAT(Formal),2021.2.3,Win32,142.8571429,,,e,1,0.4401,0,30,30,18,1,活泼,e,,,,,,,,,,,,,,,,,,,,,,,,,,,,,,,,,,,,,,,,,,,,,,,,,,,,,
,,,,,,,,,,,,,,1,001,2025-01-02_15h43.15.834,IAT(Formal),2021.2.3,Win32,142.8571429,,,i,1,0.5778,0,31,31,35,1,猖狂,i,,,,,,,,,,,,,,,,,,,,,,,,,,,,,,,,,,,,,,,,,,,,,,,,,,,,,
,,,,,,,,,,,,,,1,001,2025-01-02_15h43.15.834,IAT(Formal),2021.2.3,Win32,142.8571429,,,i,1,0.6296,0,32,32,25,1,消极,i,,,,,,,,,,,,,,,,,,,,,,,,,,,,,,,,,,,,,,,,,,,,,,,,,,,,,
,,,,,,,,,,,,,,1,001,2025-01-02_15h43.15.834,IAT(Formal),2021.2.3,Win32,142.8571429,,,e,1,0.4846,0,33,33,13,1,公正,e,,,,,,,,,,,,,,,,,,,,,,,,,,,,,,,,,,,,,,,,,,,,,,,,,,,,,
,,,,,,,,,,,,,,1,001,2025-01-02_15h43.15.834,IAT(Formal),2021.2.3,Win32,142.8571429,,,e,1,0.5435,0,34,34,8,1,勤奋,e,,,,,,,,,,,,,,,,,,,,,,,,,,,,,,,,,,,,,,,,,,,,,,,,,,,,,
,,,,,,,,,,,,,,1,001,2025-01-02_15h43.15.834,IAT(Formal),2021.2.3,Win32,142.8571429,,,i,1,0.6319,0,35,35,34,1,暴躁,i,,,,,,,,,,,,,,,,,,,,,,,,,,,,,,,,,,,,,,,,,,,,,,,,,,,,,
,,,,,,,,,,,,,,1,001,2025-01-02_15h43.15.834,IAT(Formal),2021.2.3,Win32,142.8571429,,,e,1,0.692,0,36,36,3,1,杰出,e,,,,,,,,,,,,,,,,,,,,,,,,,,,,,,,,,,,,,,,,,,,,,,,,,,,,,
,,,,,,,,,,,,,,1,001,2025-01-02_15h43.15.834,IAT(Formal),2021.2.3,Win32,142.8571429,,,e,1,0.4808,0,37,37,0,1,优秀,e,,,,,,,,,,,,,,,,,,,,,,,,,,,,,,,,,,,,,,,,,,,,,,,,,,,,,
,,,,,,,,,,,,,,1,001,2025-01-02_15h43.15.834,IAT(Formal),2021.2.3,Win32,142.8571429,,,e,1,0.557,0,38,38,15,1,细腻,e,,,,,,,,,,,,,,,,,,,,,,,,,,,,,,,,,,,,,,,,,,,,,,,,,,,,,
,,,,,,,,,,,,,,1,001,2025-01-02_15h43.15.834,IAT(Formal),2021.2.3,Win32,142.8571429,,,e,1,0.4807,0,39,39,6,1,正直,e,,,,,,,,,,,,,,,,,,,,,,,,,,,,,,,,,,,,,,,,,,,,,,,,,,,,,
,,,,,,,,,,,,,,1,001,2025-01-02_15h43.15.834,IAT(Formal),2021.2.3,Win32,142.8571429,,,,,,,,,,,,,space,197.172,,0,0,0,0,28,1,活泼,e,,,,,,,,,,,,,,,,,,,,,,,,,,,,,,,,,,,,,,,,,,
,,,,,,,,,,,,,,1,001,2025-01-02_15h43.15.834,IAT(Formal),2021.2.3,Win32,142.8571429,,,,,,,,,,,,,,,e,1,0,1,1,2,1,我们,e,1.1177,,,,,,,,,,,,,,,,,,,,,,,,,,,,,,,,,,,,,,,,,
,,,,,,,,,,,,,,1,001,2025-01-02_15h43.15.834,IAT(Formal),2021.2.3,Win32,142.8571429,,,,,,,,,,,,,,,i,1,0,2,2,42,1,凶狠,i,0.6102,,,,,,,,,,,,,,,,,,,,,,,,,,,,,,,,,,,,,,,,,
,,,,,,,,,,,,,,1,001,2025-01-02_15h43.15.834,IAT(Formal),2021.2.3,Win32,142.8571429,,,,,,,,,,,,,,,e,1,0,3,3,18,1,勤奋,e,0.6004,,,,,,,,,,,,,,,,,,,,,,,,,,,,,,,,,,,,,,,,,
,,,,,,,,,,,,,,1,001,2025-01-02_15h43.15.834,IAT(Formal),2021.2.3,Win32,142.8571429,,,,,,,,,,,,,,,i,1,0,4,4,39,1,冒失,i,0.7238,,,,,,,,,,,,,,,,,,,,,,,,,,,,,,,,,,,,,,,,,
,,,,,,,,,,,,,,1,001,2025-01-02_15h43.15.834,IAT(Formal),2021.2.3,Win32,142.8571429,,,,,,,,,,,,,,,e,1,0,5,5,60,1,我,e,0.4358,,,,,,,,,,,,,,,,,,,,,,,,,,,,,,,,,,,,,,,,,
,,,,,,,,,,,,,,1,001,2025-01-02_15h43.15.834,IAT(Formal),2021.2.3,Win32,142.8571429,,,,,,,,,,,,,,,e,1,0,6,6,71,1,我的,e,0.4497,,,,,,,,,,,,,,,,,,,,,,,,,,,,,,,,,,,,,,,,,
,,,,,,,,,,,,,,1,001,2025-01-02_15h43.15.834,IAT(Formal),2021.2.3,Win32,142.8571429,,,,,,,,,,,,,,,i,1,0,7,7,37,1,傲慢,i,0.4586,,,,,,,,,,,,,,,,,,,,,,,,,,,,,,,,,,,,,,,,,
,,,,,,,,,,,,,,1,001,2025-01-02_15h43.15.834,IAT(Formal),2021.2.3,Win32,142.8571429,,,,,,,,,,,,,,,e,0,0,8,8,69,1,其他,i,0.4425,,,,,,,,,,,,,,,,,,,,,,,,,,,,,,,,,,,,,,,,,
,,,,,,,,,,,,,,1,001,2025-01-02_15h43.15.834,IAT(Formal),2021.2.3,Win32,142.8571429,,,,,,,,,,,,,,,e,0,0,9,9,67,1,他的,i,0.4009,,,,,,,,,,,,,,,,,,,,,,,,,,,,,,,,,,,,,,,,,
,,,,,,,,,,,,,,1,001,2025-01-02_15h43.15.834,IAT(Formal),2021.2.3,Win32,142.8571429,,,,,,,,,,,,,,,i,1,0,10,10,58,1,他人,i,0.5969,,,,,,,,,,,,,,,,,,,,,,,,,,,,,,,,,,,,,,,,,
,,,,,,,,,,,,,,1,001,2025-01-02_15h43.15.834,IAT(Formal),2021.2.3,Win32,142.8571429,,,,,,,,,,,,,,,i,1,0,11,11,78,1,他人,i,0.3967,,,,,,,,,,,,,,,,,,,,,,,,,,,,,,,,,,,,,,,,,
,,,,,,,,,,,,,,1,001,2025-01-02_15h43.15.834,IAT(Formal),2021.2.3,Win32,142.8571429,,,,,,,,,,,,,,,i,1,0,12,12,47,1,固执,i,0.5893,,,,,,,,,,,,,,,,,,,,,,,,,,,,,,,,,,,,,,,,,
,,,,,,,,,,,,,,1,001,2025-01-02_15h43.15.834,IAT(Formal),2021.2.3,Win32,142.8571429,,,,,,,,,,,,,,,e,1,0,13,13,20,1,认真,e,1.1674,,,,,,,,,,,,,,,,,,,,,,,,,,,,,,,,,,,,,,,,,
,,,,,,,,,,,,,,1,001,2025-01-02_15h43.15.834,IAT(Formal),2021.2.3,Win32,142.8571429,,,,,,,,,,,,,,,e,1,0,14,14,70,1,我,e,0.5073,,,,,,,,,,,,,,,,,,,,,,,,,,,,,,,,,,,,,,,,,
,,,,,,,,,,,,,,1,001,2025-01-02_15h43.15.834,IAT(Formal),2021.2.3,Win32,142.8571429,,,,,,,,,,,,,,,e,1,0,15,15,73,1,自己,e,0.4107,,,,,,,,,,,,,,,,,,,,,,,,,,,,,,,,,,,,,,,,,
,,,,,,,,,,,,,,1,001,2025-01-02_15h43.15.834,IAT(Formal),2021.2.3,Win32,142.8571429,,,,,,,,,,,,,,,e,1,0,16,16,26,1,冷静,e,0.593,,,,,,,,,,,,,,,,,,,,,,,,,,,,,,,,,,,,,,,,,
,,,,,,,,,,,,,,1,001,2025-01-02_15h43.15.834,IAT(Formal),2021.2.3,Win32,142.8571429,,,,,,,,,,,,,,,e,1,0,17,17,22,1,无私,e,0.5877,,,,,,,,,,,,,,,,,,,,,,,,,,,,,,,,,,,,,,,,,
,,,,,,,,,,,,,,1,001,2025-01-02_15h43.15.834,IAT(Formal),2021.2.3,Win32,142.8571429,,,,,,,,,,,,,,,i,1,0,18,18,30,1,卑鄙,i,0.6757,,,,,,,,,,,,,,,,,,,,,,,,,,,,,,,,,,,,,,,,,
,,,,,,,,,,,,,,1,001,2025-01-02_15h43.15.834,IAT(Formal),2021.2.3,Win32,142.8571429,,,,,,,,,,,,,,,i,1,0,19,19,75,1,他,i,0.5104,,,,,,,,,,,,,,,,,,,,,,,,,,,,,,,,,,,,,,,,,
,,,,,,,,,,,,,,1,001,2025-01-02_15h43.15.834,IAT(Formal),2021.2.3,Win32,142.8571429,,,,,,,,,,,,,,,i,1,0,20,20,48,1,轻率,i,0.6293,,,,,,,,,,,,,,,,,,,,,,,,,,,,,,,,,,,,,,,,,
,,,,,,,,,,,,,,1,001,2025-01-02_15h43.15.834,IAT(Formal),2021.2.3,Win32,142.8571429,,,,,,,,,,,,,,,e,1,0,21,21,61,1,我的,e,0.5065,,,,,,,,,,,,,,,,,,,,,,,,,,,,,,,,,,,,,,,,,
,,,,,,,,,,,,,,1,001,2025-01-02_15h43.15.834,IAT(Formal),2021.2.3,Win32,142.8571429,,,,,,,,,,,,,,,e,1,0,22,22,1,1,我的,e,0.4734,,,,,,,,,,,,,,,,,,,,,,,,,,,,,,,,,,,,,,,,,
,,,,,,,,,,,,,,1,001,2025-01-02_15h43.15.834,IAT(Formal),2021.2.3,Win32,142.8571429,,,,,,,,,,,,,,,e,1,0,23,23,53,1,自己,e,0.9523,,,,,,,,,,,,,,,,,,,,,,,,,,,,,,,,,,,,,,,,,
,,,,,,,,,,,,,,1,001,2025-01-02_15h43.15.834,IAT(Formal),2021.2.3,Win32,142.8571429,,,,,,,,,,,,,,,i,1,0,24,24,49,1,下贱,i,0.6954,,,,,,,,,,,,,,,,,,,,,,,,,,,,,,,,,,,,,,,,,
,,,,,,,,,,,,,,1,001,2025-01-02_15h43.15.834,IAT(Formal),2021.2.3,Win32,142.8571429,,,,,,,,,,,,,,,e,1,0,25,25,11,1,崇高,e,0.6214,,,,,,,,,,,,,,,,,,,,,,,,,,,,,,,,,,,,,,,,,
,,,,,,,,,,,,,,1,001,2025-01-02_15h43.15.834,IAT(Formal),2021.2.3,Win32,142.8571429,,,,,,,,,,,,,,,i,1,0,26,26,5,1,他,i,0.5355,,,,,,,,,,,,,,,,,,,,,,,,,,,,,,,,,,,,,,,,,
,,,,,,,,,,,,,,1,001,2025-01-02_15h43.15.834,IAT(Formal),2021.2.3,Win32,142.8571429,,,,,,,,,,,,,,,i,1,0,27,27,59,1,其他,i,0.5355,,,,,,,,,,,,,,,,,,,,,,,,,,,,,,,,,,,,,,,,,
,,,,,,,,,,,,,,1,001,2025-01-02_15h43.15.834,IAT(Formal),2021.2.3,Win32,142.8571429,,,,,,,,,,,,,,,e,1,0,28,28,13,1,杰出,e,0.6476,,,,,,,,,,,,,,,,,,,,,,,,,,,,,,,,,,,,,,,,,
,,,,,,,,,,,,,,1,001,2025-01-02_15h43.15.834,IAT(Formal),2021.2.3,Win32,142.8571429,,,,,,,,,,,,,,,e,1,0,29,29,17,1,勇敢,e,0.5665,,,,,,,,,,,,,,,,,,,,,,,,,,,,,,,,,,,,,,,,,
,,,,,,,,,,,,,,1,001,2025-01-02_15h43.15.834,IAT(Formal),2021.2.3,Win32,142.8571429,,,,,,,,,,,,,,,e,1,0,30,30,12,1,聪明,e,0.5227,,,,,,,,,,,,,,,,,,,,,,,,,,,,,,,,,,,,,,,,,
,,,,,,,,,,,,,,1,001,2025-01-02_15h43.15.834,IAT(Formal),2021.2.3,Win32,142.8571429,,,,,,,,,,,,,,,i,1,0,31,31,33,1,刻薄,i,0.5522,,,,,,,,,,,,,,,,,,,,,,,,,,,,,,,,,,,,,,,,,
,,,,,,,,,,,,,,1,001,2025-01-02_15h43.15.834,IAT(Formal),2021.2.3,Win32,142.8571429,,,,,,,,,,,,,,,i,1,0,32,32,65,1,他,i,0.6466,,,,,,,,,,,,,,,,,,,,,,,,,,,,,,,,,,,,,,,,,
,,,,,,,,,,,,,,1,001,2025-01-02_15h43.15.834,IAT(Formal),2021.2.3,Win32,142.8571429,,,,,,,,,,,,,,,e,1,0,33,33,4,1,俺,e,0.6068,,,,,,,,,,,,,,,,,,,,,,,,,,,,,,,,,,,,,,,,,
,,,,,,,,,,,,,,1,001,2025-01-02_15h43.15.834,IAT(Formal),2021.2.3,Win32,142.8571429,,,,,,,,,,,,,,,e,1,0,34,34,0,1,我,e,0.4414,,,,,,,,,,,,,,,,,,,,,,,,,,,,,,,,,,,,,,,,,
,,,,,,,,,,,,,,1,001,2025-01-02_15h43.15.834,IAT(Formal),2021.2.3,Win32,142.8571429,,,,,,,,,,,,,,,e,1,0,35,35,23,1,公正,e,0.5797,,,,,,,,,,,,,,,,,,,,,,,,,,,,,,,,,,,,,,,,,
,,,,,,,,,,,,,,1,001,2025-01-02_15h43.15.834,IAT(Formal),2021.2.3,Win32,142.8571429,,,,,,,,,,,,,,,i,1,0,36,36,55,1,他,i,0.4667,,,,,,,,,,,,,,,,,,,,,,,,,,,,,,,,,,,,,,,,,
,,,,,,,,,,,,,,1,001,2025-01-02_15h43.15.834,IAT(Formal),2021.2.3,Win32,142.8571429,,,,,,,,,,,,,,,e,1,0,37,37,52,1,我们,e,0.4241,,,,,,,,,,,,,,,,,,,,,,,,,,,,,,,,,,,,,,,,,
,,,,,,,,,,,,,,1,001,2025-01-02_15h43.15.834,IAT(Formal),2021.2.3,Win32,142.8571429,,,,,,,,,,,,,,,e,1,0,38,38,21,1,稳重,e,0.5431,,,,,,,,,,,,,,,,,,,,,,,,,,,,,,,,,,,,,,,,,
,,,,,,,,,,,,,,1,001,2025-01-02_15h43.15.834,IAT(Formal),2021.2.3,Win32,142.8571429,,,,,,,,,,,,,,,i,1,0,39,39,68,1,他人,i,0.4942,,,,,,,,,,,,,,,,,,,,,,,,,,,,,,,,,,,,,,,,,
,,,,,,,,,,,,,,1,001,2025-01-02_15h43.15.834,IAT(Formal),2021.2.3,Win32,142.8571429,,,,,,,,,,,,,,,e,1,0,40,40,50,1,我,e,0.4733,,,,,,,,,,,,,,,,,,,,,,,,,,,,,,,,,,,,,,,,,
,,,,,,,,,,,,,,1,001,2025-01-02_15h43.15.834,IAT(Formal),2021.2.3,Win32,142.8571429,,,,,,,,,,,,,,,i,1,0,41,41,31,1,虚伪,i,0.4942,,,,,,,,,,,,,,,,,,,,,,,,,,,,,,,,,,,,,,,,,
,,,,,,,,,,,,,,1,001,2025-01-02_15h43.15.834,IAT(Formal),2021.2.3,Win32,142.8571429,,,,,,,,,,,,,,,i,1,0,42,42,34,1,悲观,i,0.8133,,,,,,,,,,,,,,,,,,,,,,,,,,,,,,,,,,,,,,,,,
,,,,,,,,,,,,,,1,001,2025-01-02_15h43.15.834,IAT(Formal),2021.2.3,Win32,142.8571429,,,,,,,,,,,,,,,i,1,0,43,43,40,1,执拗,i,0.75,,,,,,,,,,,,,,,,,,,,,,,,,,,,,,,,,,,,,,,,,
,,,,,,,,,,,,,,1,001,2025-01-02_15h43.15.834,IAT(Formal),2021.2.3,Win32,142.8571429,,,,,,,,,,,,,,,i,1,0,44,44,8,1,他人,i,0.8964,,,,,,,,,,,,,,,,,,,,,,,,,,,,,,,,,,,,,,,,,
,,,,,,,,,,,,,,1,001,2025-01-02_15h43.15.834,IAT(Formal),2021.2.3,Win32,142.8571429,,,,,,,,,,,,,,,e,1,0,45,45,54,1,俺,e,0.5496,,,,,,,,,,,,,,,,,,,,,,,,,,,,,,,,,,,,,,,,,
,,,,,,,,,,,,,,1,001,2025-01-02_15h43.15.834,IAT(Formal),2021.2.3,Win32,142.8571429,,,,,,,,,,,,,,,e,1,0,46,46,27,1,热情,e,0.681,,,,,,,,,,,,,,,,,,,,,,,,,,,,,,,,,,,,,,,,,
,,,,,,,,,,,,,,1,001,2025-01-02_15h43.15.834,IAT(Formal),2021.2.3,Win32,142.8571429,,,,,,,,,,,,,,,e,1,0,47,47,14,1,乐观,e,0.799,,,,,,,,,,,,,,,,,,,,,,,,,,,,,,,,,,,,,,,,,
,,,,,,,,,,,,,,1,001,2025-01-02_15h43.15.834,IAT(Formal),2021.2.3,Win32,142.8571429,,,,,,,,,,,,,,,i,1,0,48,48,36,1,自卑,i,0.5563,,,,,,,,,,,,,,,,,,,,,,,,,,,,,,,,,,,,,,,,,
,,,,,,,,,,,,,,1,001,2025-01-02_15h43.15.834,IAT(Formal),2021.2.3,Win32,142.8571429,,,,,,,,,,,,,,,e,1,0,49,49,15,1,诚实,e,0.5418,,,,,,,,,,,,,,,,,,,,,,,,,,,,,,,,,,,,,,,,,
,,,,,,,,,,,,,,1,001,2025-01-02_15h43.15.834,IAT(Formal),2021.2.3,Win32,142.8571429,,,,,,,,,,,,,,,i,1,0,50,50,57,1,他的,i,0.598,,,,,,,,,,,,,,,,,,,,,,,,,,,,,,,,,,,,,,,,,
,,,,,,,,,,,,,,1,001,2025-01-02_15h43.15.834,IAT(Formal),2021.2.3,Win32,142.8571429,,,,,,,,,,,,,,,e,1,0,51,51,29,1,诚恳,e,0.5987,,,,,,,,,,,,,,,,,,,,,,,,,,,,,,,,,,,,,,,,,
,,,,,,,,,,,,,,1,001,2025-01-02_15h43.15.834,IAT(Formal),2021.2.3,Win32,142.8571429,,,,,,,,,,,,,,,e,1,0,52,52,3,1,自己,e,0.4796,,,,,,,,,,,,,,,,,,,,,,,,,,,,,,,,,,,,,,,,,
,,,,,,,,,,,,,,1,001,2025-01-02_15h43.15.834,IAT(Formal),2021.2.3,Win32,142.8571429,,,,,,,,,,,,,,,e,1,0,53,53,25,1,细腻,e,0.6608,,,,,,,,,,,,,,,,,,,,,,,,,,,,,,,,,,,,,,,,,
,,,,,,,,,,,,,,1,001,2025-01-02_15h43.15.834,IAT(Formal),2021.2.3,Win32,142.8571429,,,,,,,,,,,,,,,i,1,0,54,54,6,1,他们,i,1.2161,,,,,,,,,,,,,,,,,,,,,,,,,,,,,,,,,,,,,,,,,
,,,,,,,,,,,,,,1,001,2025-01-02_15h43.15.834,IAT(Formal),2021.2.3,Win32,142.8571429,,,,,,,,,,,,,,,e,0,0,55,55,79,1,其他,i,0.6873,,,,,,,,,,,,,,,,,,,,,,,,,,,,,,,,,,,,,,,,,
,,,,,,,,,,,,,,1,001,2025-01-02_15h43.15.834,IAT(Formal),2021.2.3,Win32,142.8571429,,,,,,,,,,,,,,,i,1,0,56,56,66,1,他们,i,0.4873,,,,,,,,,,,,,,,,,,,,,,,,,,,,,,,,,,,,,,,,,
,,,,,,,,,,,,,,1,001,2025-01-02_15h43.15.834,IAT(Formal),2021.2.3,Win32,142.8571429,,,,,,,,,,,,,,,e,1,0,57,57,64,1,俺,e,0.8343,,,,,,,,,,,,,,,,,,,,,,,,,,,,,,,,,,,,,,,,,
,,,,,,,,,,,,,,1,001,2025-01-02_15h43.15.834,IAT(Formal),2021.2.3,Win32,142.8571429,,,,,,,,,,,,,,,i,1,0,58,58,45,1,猖狂,i,0.5435,,,,,,,,,,,,,,,,,,,,,,,,,,,,,,,,,,,,,,,,,
,,,,,,,,,,,,,,1,001,2025-01-02_15h43.15.834,IAT(Formal),2021.2.3,Win32,142.8571429,,,,,,,,,,,,,,,e,1,0,59,59,74,1,俺,e,0.529,,,,,,,,,,,,,,,,,,,,,,,,,,,,,,,,,,,,,,,,,
,,,,,,,,,,,,,,1,001,2025-01-02_15h43.15.834,IAT(Formal),2021.2.3,Win32,142.8571429,,,,,,,,,,,,,,,i,1,0,60,60,46,1,野蛮,i,0.5291,,,,,,,,,,,,,,,,,,,,,,,,,,,,,,,,,,,,,,,,,
,,,,,,,,,,,,,,1,001,2025-01-02_15h43.15.834,IAT(Formal),2021.2.3,Win32,142.8571429,,,,,,,,,,,,,,,i,1,0,61,61,77,1,他的,i,0.6476,,,,,,,,,,,,,,,,,,,,,,,,,,,,,,,,,,,,,,,,,
,,,,,,,,,,,,,,1,001,2025-01-02_15h43.15.834,IAT(Formal),2021.2.3,Win32,142.8571429,,,,,,,,,,,,,,,i,1,0,62,62,9,1,其他,i,0.6004,,,,,,,,,,,,,,,,,,,,,,,,,,,,,,,,,,,,,,,,,
,,,,,,,,,,,,,,1,001,2025-01-02_15h43.15.834,IAT(Formal),2021.2.3,Win32,142.8571429,,,,,,,,,,,,,,,i,1,0,63,63,7,1,他的,i,0.487,,,,,,,,,,,,,,,,,,,,,,,,,,,,,,,,,,,,,,,,,
,,,,,,,,,,,,,,1,001,2025-01-02_15h43.15.834,IAT(Formal),2021.2.3,Win32,142.8571429,,,,,,,,,,,,,,,e,1,0,64,64,63,1,自己,e,0.5563,,,,,,,,,,,,,,,,,,,,,,,,,,,,,,,,,,,,,,,,,
,,,,,,,,,,,,,,1,001,2025-01-02_15h43.15.834,IAT(Formal),2021.2.3,Win32,142.8571429,,,,,,,,,,,,,,,e,1,0,65,65,62,1,我们,e,0.5579,,,,,,,,,,,,,,,,,,,,,,,,,,,,,,,,,,,,,,,,,
,,,,,,,,,,,,,,1,001,2025-01-02_15h43.15.834,IAT(Formal),2021.2.3,Win32,142.8571429,,,,,,,,,,,,,,,i,1,0,66,66,56,1,他们,i,0.5431,,,,,,,,,,,,,,,,,,,,,,,,,,,,,,,,,,,,,,,,,
,,,,,,,,,,,,,,1,001,2025-01-02_15h43.15.834,IAT(Formal),2021.2.3,Win32,142.8571429,,,,,,,,,,,,,,,e,1,0,67,67,16,1,正直,e,0.55,,,,,,,,,,,,,,,,,,,,,,,,,,,,,,,,,,,,,,,,,
,,,,,,,,,,,,,,1,001,2025-01-02_15h43.15.834,IAT(Formal),2021.2.3,Win32,142.8571429,,,,,,,,,,,,,,,i,1,0,68,68,32,1,愚蠢,i,0.5112,,,,,,,,,,,,,,,,,,,,,,,,,,,,,,,,,,,,,,,,,
,,,,,,,,,,,,,,1,001,2025-01-02_15h43.15.834,IAT(Formal),2021.2.3,Win32,142.8571429,,,,,,,,,,,,,,,e,1,0,69,69,51,1,我的,e,0.559,,,,,,,,,,,,,,,,,,,,,,,,,,,,,,,,,,,,,,,,,
,,,,,,,,,,,,,,1,001,2025-01-02_15h43.15.834,IAT(Formal),2021.2.3,Win32,142.8571429,,,,,,,,,,,,,,,e,1,0,70,70,10,1,优秀,e,0.5158,,,,,,,,,,,,,,,,,,,,,,,,,,,,,,,,,,,,,,,,,
,,,,,,,,,,,,,,1,001,2025-01-02_15h43.15.834,IAT(Formal),2021.2.3,Win32,142.8571429,,,,,,,,,,,,,,,e,1,0,71,71,24,1,朴实,e,0.6522,,,,,,,,,,,,,,,,,,,,,,,,,,,,,,,,,,,,,,,,,
,,,,,,,,,,,,,,1,001,2025-01-02_15h43.15.834,IAT(Formal),2021.2.3,Win32,142.8571429,,,,,,,,,,,,,,,i,1,0,72,72,44,1,暴躁,i,0.5443,,,,,,,,,,,,,,,,,,,,,,,,,,,,,,,,,,,,,,,,,
,,,,,,,,,,,,,,1,001,2025-01-02_15h43.15.834,IAT(Formal),2021.2.3,Win32,142.8571429,,,,,,,,,,,,,,,i,1,0,73,73,38,1,鲁莽,i,0.5992,,,,,,,,,,,,,,,,,,,,,,,,,,,,,,,,,,,,,,,,,
,,,,,,,,,,,,,,1,001,2025-01-02_15h43.15.834,IAT(Formal),2021.2.3,Win32,142.8571429,,,,,,,,,,,,,,,e,0,0,74,74,43,1,自私,i,0.7033,,,,,,,,,,,,,,,,,,,,,,,,,,,,,,,,,,,,,,,,,
,,,,,,,,,,,,,,1,001,2025-01-02_15h43.15.834,IAT(Formal),2021.2.3,Win32,142.8571429,,,,,,,,,,,,,,,i,1,0,75,75,35,1,消极,i,1.1979,,,,,,,,,,,,,,,,,,,,,,,,,,,,,,,,,,,,,,,,,
,,,,,,,,,,,,,,1,001,2025-01-02_15h43.15.834,IAT(Formal),2021.2.3,Win32,142.8571429,,,,,,,,,,,,,,,e,1,0,76,76,19,1,机智,e,0.7589,,,,,,,,,,,,,,,,,,,,,,,,,,,,,,,,,,,,,,,,,
,,,,,,,,,,,,,,1,001,2025-01-02_15h43.15.834,IAT(Formal),2021.2.3,Win32,142.8571429,,,,,,,,,,,,,,,e,1,0,77,77,72,1,我们,e,0.4266,,,,,,,,,,,,,,,,,,,,,,,,,,,,,,,,,,,,,,,,,
,,,,,,,,,,,,,,1,001,2025-01-02_15h43.15.834,IAT(Formal),2021.2.3,Win32,142.8571429,,,,,,,,,,,,,,,i,1,0,78,78,41,1,散漫,i,0.5018,,,,,,,,,,,,,,,,,,,,,,,,,,,,,,,,,,,,,,,,,
,,,,,,,,,,,,,,1,001,2025-01-02_15h43.15.834,IAT(Formal),2021.2.3,Win32,142.8571429,,,,,,,,,,,,,,,i,1,0,79,79,76,1,他们,i,0.5577,,,,,,,,,,,,,,,,,,,,,,,,,,,,,,,,,,,,,,,,,
,,,,,,,,,,,,,,1,001,2025-01-02_15h43.15.834,IAT(Formal),2021.2.3,Win32,142.8571429,,,,,,,,,,,,,,,e,1,,,,,,崇高,e,0.5661,space,168.5869,0,0,0,11,1,,,,,,,,,,,,,,,,,,,,,,,,,,,,,,,,,,
,,,,,,,,,,,,,,1,001,2025-01-02_15h43.15.834,IAT(Formal),2021.2.3,Win32,142.8571429,,,,,,,,,,,,,,,e,1,,,,,,我,e,0.3344,,,0,1,1,60,1,,,,,,,,,,,,,,,,,,,,,,,,,,,,,,,,,,
,,,,,,,,,,,,,,1,001,2025-01-02_15h43.15.834,IAT(Formal),2021.2.3,Win32,142.8571429,,,,,,,,,,,,,,,e,1,,,,,,自己,e,0.3411,,,0,2,2,53,1,,,,,,,,,,,,,,,,,,,,,,,,,,,,,,,,,,
,,,,,,,,,,,,,,1,001,2025-01-02_15h43.15.834,IAT(Formal),2021.2.3,Win32,142.8571429,,,,,,,,,,,,,,,i,1,,,,,,消极,i,0.4403,,,0,3,3,35,1,,,,,,,,,,,,,,,,,,,,,,,,,,,,,,,,,,
,,,,,,,,,,,,,,1,001,2025-01-02_15h43.15.834,IAT(Formal),2021.2.3,Win32,142.8571429,,,,,,,,,,,,,,,e,1,,,,,,我的,e,0.4407,,,0,4,4,61,1,,,,,,,,,,,,,,,,,,,,,,,,,,,,,,,,,,
,,,,,,,,,,,,,,1,001,2025-01-02_15h43.15.834,IAT(Formal),2021.2.3,Win32,142.8571429,,,,,,,,,,,,,,,e,1,,,,,,稳重,e,0.5667,,,0,5,5,21,1,,,,,,,,,,,,,,,,,,,,,,,,,,,,,,,,,,
,,,,,,,,,,,,,,1,001,2025-01-02_15h43.15.834,IAT(Formal),2021.2.3,Win32,142.8571429,,,,,,,,,,,,,,,e,1,,,,,,细腻,e,0.5386,,,0,6,6,25,1,,,,,,,,,,,,,,,,,,,,,,,,,,,,,,,,,,
,,,,,,,,,,,,,,1,001,2025-01-02_15h43.15.834,IAT(Formal),2021.2.3,Win32,142.8571429,,,,,,,,,,,,,,,e,1,,,,,,朴实,e,0.4179,,,0,7,7,24,1,,,,,,,,,,,,,,,,,,,,,,,,,,,,,,,,,,
,,,,,,,,,,,,,,1,001,2025-01-02_15h43.15.834,IAT(Formal),2021.2.3,Win32,142.8571429,,,,,,,,,,,,,,,e,1,,,,,,活泼,e,0.4836,,,0,8,8,28,1,,,,,,,,,,,,,,,,,,,,,,,,,,,,,,,,,,
,,,,,,,,,,,,,,1,001,2025-01-02_15h43.15.834,IAT(Formal),2021.2.3,Win32,142.8571429,,,,,,,,,,,,,,,e,1,,,,,,我的,e,0.3892,,,0,9,9,51,1,,,,,,,,,,,,,,,,,,,,,,,,,,,,,,,,,,
,,,,,,,,,,,,,,1,001,2025-01-02_15h43.15.834,IAT(Formal),2021.2.3,Win32,142.8571429,,,,,,,,,,,,,,,e,1,,,,,,自己,e,0.3625,,,0,10,10,73,1,,,,,,,,,,,,,,,,,,,,,,,,,,,,,,,,,,
,,,,,,,,,,,,,,1,001,2025-01-02_15h43.15.834,IAT(Formal),2021.2.3,Win32,142.8571429,,,,,,,,,,,,,,,i,1,,,,,,执拗,i,0.5458,,,0,11,11,40,1,,,,,,,,,,,,,,,,,,,,,,,,,,,,,,,,,,
,,,,,,,,,,,,,,1,001,2025-01-02_15h43.15.834,IAT(Formal),2021.2.3,Win32,142.8571429,,,,,,,,,,,,,,,e,0,,,,,,他,i,0.397,,,0,12,12,5,1,,,,,,,,,,,,,,,,,,,,,,,,,,,,,,,,,,
,,,,,,,,,,,,,,1,001,2025-01-02_15h43.15.834,IAT(Formal),2021.2.3,Win32,142.8571429,,,,,,,,,,,,,,,i,1,,,,,,其他,i,0.4952,,,0,13,13,59,1,,,,,,,,,,,,,,,,,,,,,,,,,,,,,,,,,,
,,,,,,,,,,,,,,1,001,2025-01-02_15h43.15.834,IAT(Formal),2021.2.3,Win32,142.8571429,,,,,,,,,,,,,,,e,1,,,,,,诚实,e,0.4458,,,0,14,14,15,1,,,,,,,,,,,,,,,,,,,,,,,,,,,,,,,,,,
,,,,,,,,,,,,,,1,001,2025-01-02_15h43.15.834,IAT(Formal),2021.2.3,Win32,142.8571429,,,,,,,,,,,,,,,e,1,,,,,,俺,e,0.4522,,,0,15,15,74,1,,,,,,,,,,,,,,,,,,,,,,,,,,,,,,,,,,
,,,,,,,,,,,,,,1,001,2025-01-02_15h43.15.834,IAT(Formal),2021.2.3,Win32,142.8571429,,,,,,,,,,,,,,,i,1,,,,,,野蛮,i,0.6057,,,0,16,16,46,1,,,,,,,,,,,,,,,,,,,,,,,,,,,,,,,,,,
,,,,,,,,,,,,,,1,001,2025-01-02_15h43.15.834,IAT(Formal),2021.2.3,Win32,142.8571429,,,,,,,,,,,,,,,e,1,,,,,,机智,e,0.5231,,,0,17,17,19,1,,,,,,,,,,,,,,,,,,,,,,,,,,,,,,,,,,
,,,,,,,,,,,,,,1,001,2025-01-02_15h43.15.834,IAT(Formal),2021.2.3,Win32,142.8571429,,,,,,,,,,,,,,,i,1,,,,,,他的,i,0.5088,,,0,18,18,77,1,,,,,,,,,,,,,,,,,,,,,,,,,,,,,,,,,,
,,,,,,,,,,,,,,1,001,2025-01-02_15h43.15.834,IAT(Formal),2021.2.3,Win32,142.8571429,,,,,,,,,,,,,,,e,1,,,,,,我,e,0.3854,,,0,19,19,70,1,,,,,,,,,,,,,,,,,,,,,,,,,,,,,,,,,,
,,,,,,,,,,,,,,1,001,2025-01-02_15h43.15.834,IAT(Formal),2021.2.3,Win32,142.8571429,,,,,,,,,,,,,,,i,1,,,,,,他的,i,0.584,,,0,20,20,67,1,,,,,,,,,,,,,,,,,,,,,,,,,,,,,,,,,,
,,,,,,,,,,,,,,1,001,2025-01-02_15h43.15.834,IAT(Formal),2021.2.3,Win32,142.8571429,,,,,,,,,,,,,,,i,1,,,,,,暴躁,i,0.5912,,,0,21,21,44,1,,,,,,,,,,,,,,,,,,,,,,,,,,,,,,,,,,
,,,,,,,,,,,,,,1,001,2025-01-02_15h43.15.834,IAT(Formal),2021.2.3,Win32,142.8571429,,,,,,,,,,,,,,,i,1,,,,,,猖狂,i,0.5761,,,0,22,22,45,1,,,,,,,,,,,,,,,,,,,,,,,,,,,,,,,,,,
,,,,,,,,,,,,,,1,001,2025-01-02_15h43.15.834,IAT(Formal),2021.2.3,Win32,142.8571429,,,,,,,,,,,,,,,i,0,,,,,,勤奋,e,0.4934,,,0,23,23,18,1,,,,,,,,,,,,,,,,,,,,,,,,,,,,,,,,,,
,,,,,,,,,,,,,,1,001,2025-01-02_15h43.15.834,IAT(Formal),2021.2.3,Win32,142.8571429,,,,,,,,,,,,,,,i,1,,,,,,他的,i,0.549,,,0,24,24,57,1,,,,,,,,,,,,,,,,,,,,,,,,,,,,,,,,,,
,,,,,,,,,,,,,,1,001,2025-01-02_15h43.15.834,IAT(Formal),2021.2.3,Win32,142.8571429,,,,,,,,,,,,,,,i,1,,,,,,他人,i,0.5079,,,0,25,25,68,1,,,,,,,,,,,,,,,,,,,,,,,,,,,,,,,,,,
,,,,,,,,,,,,,,1,001,2025-01-02_15h43.15.834,IAT(Formal),2021.2.3,Win32,142.8571429,,,,,,,,,,,,,,,i,1,,,,,,自卑,i,0.5629,,,0,26,26,36,1,,,,,,,,,,,,,,,,,,,,,,,,,,,,,,,,,,
,,,,,,,,,,,,,,1,001,2025-01-02_15h43.15.834,IAT(Formal),2021.2.3,Win32,142.8571429,,,,,,,,,,,,,,,e,1,,,,,,我们,e,0.4404,,,0,27,27,72,1,,,,,,,,,,,,,,,,,,,,,,,,,,,,,,,,,,
,,,,,,,,,,,,,,1,001,2025-01-02_15h43.15.834,IAT(Formal),2021.2.3,Win32,142.8571429,,,,,,,,,,,,,,,e,1,,,,,,俺,e,0.466,,,0,28,28,4,1,,,,,,,,,,,,,,,,,,,,,,,,,,,,,,,,,,
,,,,,,,,,,,,,,1,001,2025-01-02_15h43.15.834,IAT(Formal),2021.2.3,Win32,142.8571429,,,,,,,,,,,,,,,i,1,,,,,,他们,i,0.5146,,,0,29,29,66,1,,,,,,,,,,,,,,,,,,,,,,,,,,,,,,,,,,
,,,,,,,,,,,,,,1,001,2025-01-02_15h43.15.834,IAT(Formal),2021.2.3,Win32,142.8571429,,,,,,,,,,,,,,,i,1,,,,,,傲慢,i,0.5722,,,0,30,30,37,1,,,,,,,,,,,,,,,,,,,,,,,,,,,,,,,,,,
,,,,,,,,,,,,,,1,001,2025-01-02_15h43.15.834,IAT(Formal),2021.2.3,Win32,142.8571429,,,,,,,,,,,,,,,e,1,,,,,,我们,e,0.4609,,,0,31,31,52,1,,,,,,,,,,,,,,,,,,,,,,,,,,,,,,,,,,
,,,,,,,,,,,,,,1,001,2025-01-02_15h43.15.834,IAT(Formal),2021.2.3,Win32,142.8571429,,,,,,,,,,,,,,,e,1,,,,,,俺,e,0.4829,,,0,32,32,54,1,,,,,,,,,,,,,,,,,,,,,,,,,,,,,,,,,,
,,,,,,,,,,,,,,1,001,2025-01-02_15h43.15.834,IAT(Formal),2021.2.3,Win32,142.8571429,,,,,,,,,,,,,,,e,1,,,,,,我,e,0.3914,,,0,33,33,0,1,,,,,,,,,,,,,,,,,,,,,,,,,,,,,,,,,,
,,,,,,,,,,,,,,1,001,2025-01-02_15h43.15.834,IAT(Formal),2021.2.3,Win32,142.8571429,,,,,,,,,,,,,,,i,1,,,,,,卑鄙,i,0.53,,,0,34,34,30,1,,,,,,,,,,,,,,,,,,,,,,,,,,,,,,,,,,
,,,,,,,,,,,,,,1,001,2025-01-02_15h43.15.834,IAT(Formal),2021.2.3,Win32,142.8571429,,,,,,,,,,,,,,,e,1,,,,,,杰出,e,0.4458,,,0,35,35,13,1,,,,,,,,,,,,,,,,,,,,,,,,,,,,,,,,,,
,,,,,,,,,,,,,,1,001,2025-01-02_15h43.15.834,IAT(Formal),2021.2.3,Win32,142.8571429,,,,,,,,,,,,,,,e,1,,,,,,自己,e,0.3899,,,0,36,36,63,1,,,,,,,,,,,,,,,,,,,,,,,,,,,,,,,,,,
,,,,,,,,,,,,,,1,001,2025-01-02_15h43.15.834,IAT(Formal),2021.2.3,Win32,142.8571429,,,,,,,,,,,,,,,e,1,,,,,,我,e,0.3422,,,0,37,37,50,1,,,,,,,,,,,,,,,,,,,,,,,,,,,,,,,,,,
,,,,,,,,,,,,,,1,001,2025-01-02_15h43.15.834,IAT(Formal),2021.2.3,Win32,142.8571429,,,,,,,,,,,,,,,i,1,,,,,,他的,i,0.4521,,,0,38,38,7,1,,,,,,,,,,,,,,,,,,,,,,,,,,,,,,,,,,
,,,,,,,,,,,,,,1,001,2025-01-02_15h43.15.834,IAT(Formal),2021.2.3,Win32,142.8571429,,,,,,,,,,,,,,,i,1,,,,,,轻率,i,0.549,,,0,39,39,48,1,,,,,,,,,,,,,,,,,,,,,,,,,,,,,,,,,,
,,,,,,,,,,,,,,1,001,2025-01-02_15h43.15.834,IAT(Formal),2021.2.3,Win32,142.8571429,,,,,,,,,,,,,,,e,1,,,,,,我的,e,0.4132,,,0,40,40,1,1,,,,,,,,,,,,,,,,,,,,,,,,,,,,,,,,,,
,,,,,,,,,,,,,,1,001,2025-01-02_15h43.15.834,IAT(Formal),2021.2.3,Win32,142.8571429,,,,,,,,,,,,,,,e,1,,,,,,冷静,e,0.5787,,,0,41,41,26,1,,,,,,,,,,,,,,,,,,,,,,,,,,,,,,,,,,
,,,,,,,,,,,,,,1,001,2025-01-02_15h43.15.834,IAT(Formal),2021.2.3,Win32,142.8571429,,,,,,,,,,,,,,,i,1,,,,,,悲观,i,0.522,,,0,42,42,34,1,,,,,,,,,,,,,,,,,,,,,,,,,,,,,,,,,,
,,,,,,,,,,,,,,1,001,2025-01-02_15h43.15.834,IAT(Formal),2021.2.3,Win32,142.8571429,,,,,,,,,,,,,,,i,1,,,,,,其他,i,0.5288,,,0,43,43,69,1,,,,,,,,,,,,,,,,,,,,,,,,,,,,,,,,,,
,,,,,,,,,,,,,,1,001,2025-01-02_15h43.15.834,IAT(Formal),2021.2.3,Win32,142.8571429,,,,,,,,,,,,,,,e,0,,,,,,自私,i,0.5117,,,0,44,44,43,1,,,,,,,,,,,,,,,,,,,,,,,,,,,,,,,,,,
,,,,,,,,,,,,,,1,001,2025-01-02_15h43.15.834,IAT(Formal),2021.2.3,Win32,142.8571429,,,,,,,,,,,,,,,e,0,,,,,,刻薄,i,0.7096,,,0,45,45,33,1,,,,,,,,,,,,,,,,,,,,,,,,,,,,,,,,,,
,,,,,,,,,,,,,,1,001,2025-01-02_15h43.15.834,IAT(Formal),2021.2.3,Win32,142.8571429,,,,,,,,,,,,,,,i,1,,,,,,愚蠢,i,0.6267,,,0,46,46,32,1,,,,,,,,,,,,,,,,,,,,,,,,,,,,,,,,,,
,,,,,,,,,,,,,,1,001,2025-01-02_15h43.15.834,IAT(Formal),2021.2.3,Win32,142.8571429,,,,,,,,,,,,,,,i,1,,,,,,冒失,i,0.622,,,0,47,47,39,1,,,,,,,,,,,,,,,,,,,,,,,,,,,,,,,,,,
,,,,,,,,,,,,,,1,001,2025-01-02_15h43.15.834,IAT(Formal),2021.2.3,Win32,142.8571429,,,,,,,,,,,,,,,e,1,,,,,,勇敢,e,0.5659,,,0,48,48,17,1,,,,,,,,,,,,,,,,,,,,,,,,,,,,,,,,,,
,,,,,,,,,,,,,,1,001,2025-01-02_15h43.15.834,IAT(Formal),2021.2.3,Win32,142.8571429,,,,,,,,,,,,,,,e,1,,,,,,无私,e,0.7475,,,0,49,49,22,1,,,,,,,,,,,,,,,,,,,,,,,,,,,,,,,,,,
,,,,,,,,,,,,,,1,001,2025-01-02_15h43.15.834,IAT(Formal),2021.2.3,Win32,142.8571429,,,,,,,,,,,,,,,e,1,,,,,,公正,e,0.6818,,,0,50,50,23,1,,,,,,,,,,,,,,,,,,,,,,,,,,,,,,,,,,
,,,,,,,,,,,,,,1,001,2025-01-02_15h43.15.834,IAT(Formal),2021.2.3,Win32,142.8571429,,,,,,,,,,,,,,,e,1,,,,,,乐观,e,0.4276,,,0,51,51,14,1,,,,,,,,,,,,,,,,,,,,,,,,,,,,,,,,,,
,,,,,,,,,,,,,,1,001,2025-01-02_15h43.15.834,IAT(Formal),2021.2.3,Win32,142.8571429,,,,,,,,,,,,,,,e,1,,,,,,正直,e,0.4002,,,0,52,52,16,1,,,,,,,,,,,,,,,,,,,,,,,,,,,,,,,,,,
,,,,,,,,,,,,,,1,001,2025-01-02_15h43.15.834,IAT(Formal),2021.2.3,Win32,142.8571429,,,,,,,,,,,,,,,i,1,,,,,,他们,i,0.6357,,,0,53,53,76,1,,,,,,,,,,,,,,,,,,,,,,,,,,,,,,,,,,
,,,,,,,,,,,,,,1,001,2025-01-02_15h43.15.834,IAT(Formal),2021.2.3,Win32,142.8571429,,,,,,,,,,,,,,,e,1,,,,,,认真,e,0.5424,,,0,54,54,20,1,,,,,,,,,,,,,,,,,,,,,,,,,,,,,,,,,,
,,,,,,,,,,,,,,1,001,2025-01-02_15h43.15.834,IAT(Formal),2021.2.3,Win32,142.8571429,,,,,,,,,,,,,,,i,1,,,,,,他人,i,0.5149,,,0,55,55,58,1,,,,,,,,,,,,,,,,,,,,,,,,,,,,,,,,,,
,,,,,,,,,,,,,,1,001,2025-01-02_15h43.15.834,IAT(Formal),2021.2.3,Win32,142.8571429,,,,,,,,,,,,,,,e,1,,,,,,我的,e,0.4521,,,0,56,56,71,1,,,,,,,,,,,,,,,,,,,,,,,,,,,,,,,,,,
,,,,,,,,,,,,,,1,001,2025-01-02_15h43.15.834,IAT(Formal),2021.2.3,Win32,142.8571429,,,,,,,,,,,,,,,e,1,,,,,,自己,e,0.4388,,,0,57,57,3,1,,,,,,,,,,,,,,,,,,,,,,,,,,,,,,,,,,
,,,,,,,,,,,,,,1,001,2025-01-02_15h43.15.834,IAT(Formal),2021.2.3,Win32,142.8571429,,,,,,,,,,,,,,,i,1,,,,,,固执,i,0.4529,,,0,58,58,47,1,,,,,,,,,,,,,,,,,,,,,,,,,,,,,,,,,,
,,,,,,,,,,,,,,1,001,2025-01-02_15h43.15.834,IAT(Formal),2021.2.3,Win32,142.8571429,,,,,,,,,,,,,,,i,1,,,,,,他人,i,0.9033,,,0,59,59,78,1,,,,,,,,,,,,,,,,,,,,,,,,,,,,,,,,,,
,,,,,,,,,,,,,,1,001,2025-01-02_15h43.15.834,IAT(Formal),2021.2.3,Win32,142.8571429,,,,,,,,,,,,,,,i,1,,,,,,虚伪,i,0.5034,,,0,60,60,31,1,,,,,,,,,,,,,,,,,,,,,,,,,,,,,,,,,,
,,,,,,,,,,,,,,1,001,2025-01-02_15h43.15.834,IAT(Formal),2021.2.3,Win32,142.8571429,,,,,,,,,,,,,,,i,1,,,,,,他人,i,0.453,,,0,61,61,8,1,,,,,,,,,,,,,,,,,,,,,,,,,,,,,,,,,,
,,,,,,,,,,,,,,1,001,2025-01-02_15h43.15.834,IAT(Formal),2021.2.3,Win32,142.8571429,,,,,,,,,,,,,,,i,1,,,,,,鲁莽,i,0.6055,,,0,62,62,38,1,,,,,,,,,,,,,,,,,,,,,,,,,,,,,,,,,,
,,,,,,,,,,,,,,1,001,2025-01-02_15h43.15.834,IAT(Formal),2021.2.3,Win32,142.8571429,,,,,,,,,,,,,,,i,1,,,,,,散漫,i,0.4809,,,0,63,63,41,1,,,,,,,,,,,,,,,,,,,,,,,,,,,,,,,,,,
,,,,,,,,,,,,,,1,001,2025-01-02_15h43.15.834,IAT(Formal),2021.2.3,Win32,142.8571429,,,,,,,,,,,,,,,i,1,,,,,,他,i,0.6082,,,0,64,64,55,1,,,,,,,,,,,,,,,,,,,,,,,,,,,,,,,,,,
,,,,,,,,,,,,,,1,001,2025-01-02_15h43.15.834,IAT(Formal),2021.2.3,Win32,142.8571429,,,,,,,,,,,,,,,e,1,,,,,,我们,e,0.4404,,,0,65,65,2,1,,,,,,,,,,,,,,,,,,,,,,,,,,,,,,,,,,
,,,,,,,,,,,,,,1,001,2025-01-02_15h43.15.834,IAT(Formal),2021.2.3,Win32,142.8571429,,,,,,,,,,,,,,,e,1,,,,,,优秀,e,0.4177,,,0,66,66,10,1,,,,,,,,,,,,,,,,,,,,,,,,,,,,,,,,,,
,,,,,,,,,,,,,,1,001,2025-01-02_15h43.15.834,IAT(Formal),2021.2.3,Win32,142.8571429,,,,,,,,,,,,,,,e,1,,,,,,俺,e,0.5701,,,0,67,67,64,1,,,,,,,,,,,,,,,,,,,,,,,,,,,,,,,,,,
,,,,,,,,,,,,,,1,001,2025-01-02_15h43.15.834,IAT(Formal),2021.2.3,Win32,142.8571429,,,,,,,,,,,,,,,e,1,,,,,,聪明,e,0.4239,,,0,68,68,12,1,,,,,,,,,,,,,,,,,,,,,,,,,,,,,,,,,,
,,,,,,,,,,,,,,1,001,2025-01-02_15h43.15.834,IAT(Formal),2021.2.3,Win32,142.8571429,,,,,,,,,,,,,,,i,1,,,,,,凶狠,i,0.4239,,,0,69,69,42,1,,,,,,,,,,,,,,,,,,,,,,,,,,,,,,,,,,
,,,,,,,,,,,,,,1,001,2025-01-02_15h43.15.834,IAT(Formal),2021.2.3,Win32,142.8571429,,,,,,,,,,,,,,,e,1,,,,,,热情,e,0.5044,,,0,70,70,27,1,,,,,,,,,,,,,,,,,,,,,,,,,,,,,,,,,,
,,,,,,,,,,,,,,1,001,2025-01-02_15h43.15.834,IAT(Formal),2021.2.3,Win32,142.8571429,,,,,,,,,,,,,,,i,1,,,,,,他,i,0.5803,,,0,71,71,65,1,,,,,,,,,,,,,,,,,,,,,,,,,,,,,,,,,,
,,,,,,,,,,,,,,1,001,2025-01-02_15h43.15.834,IAT(Formal),2021.2.3,Win32,142.8571429,,,,,,,,,,,,,,,i,1,,,,,,下贱,i,0.5668,,,0,72,72,49,1,,,,,,,,,,,,,,,,,,,,,,,,,,,,,,,,,,
,,,,,,,,,,,,,,1,001,2025-01-02_15h43.15.834,IAT(Formal),2021.2.3,Win32,142.8571429,,,,,,,,,,,,,,,i,1,,,,,,其他,i,0.4217,,,0,73,73,9,1,,,,,,,,,,,,,,,,,,,,,,,,,,,,,,,,,,
,,,,,,,,,,,,,,1,001,2025-01-02_15h43.15.834,IAT(Formal),2021.2.3,Win32,142.8571429,,,,,,,,,,,,,,,e,1,,,,,,诚恳,e,0.6717,,,0,74,74,29,1,,,,,,,,,,,,,,,,,,,,,,,,,,,,,,,,,,
,,,,,,,,,,,,,,1,001,2025-01-02_15h43.15.834,IAT(Formal),2021.2.3,Win32,142.8571429,,,,,,,,,,,,,,,e,1,,,,,,我们,e,0.7296,,,0,75,75,62,1,,,,,,,,,,,,,,,,,,,,,,,,,,,,,,,,,,
,,,,,,,,,,,,,,1,001,2025-01-02_15h43.15.834,IAT(Formal),2021.2.3,Win32,142.8571429,,,,,,,,,,,,,,,i,1,,,,,,他们,i,0.6253,,,0,76,76,56,1,,,,,,,,,,,,,,,,,,,,,,,,,,,,,,,,,,
,,,,,,,,,,,,,,1,001,2025-01-02_15h43.15.834,IAT(Formal),2021.2.3,Win32,142.8571429,,,,,,,,,,,,,,,i,1,,,,,,其他,i,0.5999,,,0,77,77,79,1,,,,,,,,,,,,,,,,,,,,,,,,,,,,,,,,,,
,,,,,,,,,,,,,,1,001,2025-01-02_15h43.15.834,IAT(Formal),2021.2.3,Win32,142.8571429,,,,,,,,,,,,,,,i,1,,,,,,他们,i,0.3735,,,0,78,78,6,1,,,,,,,,,,,,,,,,,,,,,,,,,,,,,,,,,,
,,,,,,,,,,,,,,1,001,2025-01-02_15h43.15.834,IAT(Formal),2021.2.3,Win32,142.8571429,,,,,,,,,,,,,,,i,1,,,,,,他,i,0.4936,,,0,79,79,75,1,,,,,,,,,,,,,,,,,,,,,,,,,,,,,,,,,,
,,,,,,,,,,,,,,1,001,2025-01-02_15h43.15.834,IAT(Formal),2021.2.3,Win32,142.8571429,,,,,,,,,,,,,,,e,1,,,,,,我们,e,0.5285,,,1,0,80,62,1,,,,,,,,,,,,,,,,,,,,,,,,,,,,,,,,,,
,,,,,,,,,,,,,,1,001,2025-01-02_15h43.15.834,IAT(Formal),2021.2.3,Win32,142.8571429,,,,,,,,,,,,,,,i,1,,,,,,执拗,i,0.5601,,,1,1,81,40,1,,,,,,,,,,,,,,,,,,,,,,,,,,,,,,,,,,
,,,,,,,,,,,,,,1,001,2025-01-02_15h43.15.834,IAT(Formal),2021.2.3,Win32,142.8571429,,,,,,,,,,,,,,,i,1,,,,,,傲慢,i,0.5084,,,1,2,82,37,1,,,,,,,,,,,,,,,,,,,,,,,,,,,,,,,,,,
,,,,,,,,,,,,,,1,001,2025-01-02_15h43.15.834,IAT(Formal),2021.2.3,Win32,142.8571429,,,,,,,,,,,,,,,i,1,,,,,,自卑,i,0.6874,,,1,3,83,36,1,,,,,,,,,,,,,,,,,,,,,,,,,,,,,,,,,,
,,,,,,,,,,,,,,1,001,2025-01-02_15h43.15.834,IAT(Formal),2021.2.3,Win32,142.8571429,,,,,,,,,,,,,,,i,1,,,,,,他,i,0.7185,,,1,4,84,5,1,,,,,,,,,,,,,,,,,,,,,,,,,,,,,,,,,,
,,,,,,,,,,,,,,1,001,2025-01-02_15h43.15.834,IAT(Formal),2021.2.3,Win32,142.8571429,,,,,,,,,,,,,,,e,1,,,,,,我,e,0.6065,,,1,5,85,60,1,,,,,,,,,,,,,,,,,,,,,,,,,,,,,,,,,,
,,,,,,,,,,,,,,1,001,2025-01-02_15h43.15.834,IAT(Formal),2021.2.3,Win32,142.8571429,,,,,,,,,,,,,,,i,1,,,,,,其他,i,0.619,,,1,6,86,69,1,,,,,,,,,,,,,,,,,,,,,,,,,,,,,,,,,,
,,,,,,,,,,,,,,1,001,2025-01-02_15h43.15.834,IAT(Formal),2021.2.3,Win32,142.8571429,,,,,,,,,,,,,,,i,1,,,,,,他们,i,0.5637,,,1,7,87,76,1,,,,,,,,,,,,,,,,,,,,,,,,,,,,,,,,,,
,,,,,,,,,,,,,,1,001,2025-01-02_15h43.15.834,IAT(Formal),2021.2.3,Win32,142.8571429,,,,,,,,,,,,,,,e,1,,,,,,我的,e,0.5428,,,1,8,88,1,1,,,,,,,,,,,,,,,,,,,,,,,,,,,,,,,,,,
,,,,,,,,,,,,,,1,001,2025-01-02_15h43.15.834,IAT(Formal),2021.2.3,Win32,142.8571429,,,,,,,,,,,,,,,i,1,,,,,,轻率,i,0.6347,,,1,9,89,48,1,,,,,,,,,,,,,,,,,,,,,,,,,,,,,,,,,,
,,,,,,,,,,,,,,1,001,2025-01-02_15h43.15.834,IAT(Formal),2021.2.3,Win32,142.8571429,,,,,,,,,,,,,,,i,1,,,,,,他人,i,0.8898,,,1,10,90,78,1,,,,,,,,,,,,,,,,,,,,,,,,,,,,,,,,,,
,,,,,,,,,,,,,,1,001,2025-01-02_15h43.15.834,IAT(Formal),2021.2.3,Win32,142.8571429,,,,,,,,,,,,,,,e,1,,,,,,俺,e,0.535,,,1,11,91,74,1,,,,,,,,,,,,,,,,,,,,,,,,,,,,,,,,,,
,,,,,,,,,,,,,,1,001,2025-01-02_15h43.15.834,IAT(Formal),2021.2.3,Win32,142.8571429,,,,,,,,,,,,,,,e,1,,,,,,自己,e,0.4534,,,1,12,92,63,1,,,,,,,,,,,,,,,,,,,,,,,,,,,,,,,,,,
,,,,,,,,,,,,,,1,001,2025-01-02_15h43.15.834,IAT(Formal),2021.2.3,Win32,142.8571429,,,,,,,,,,,,,,,i,1,,,,,,卑鄙,i,0.5287,,,1,13,93,30,1,,,,,,,,,,,,,,,,,,,,,,,,,,,,,,,,,,
,,,,,,,,,,,,,,1,001,2025-01-02_15h43.15.834,IAT(Formal),2021.2.3,Win32,142.8571429,,,,,,,,,,,,,,,i,1,,,,,,他,i,0.7238,,,1,14,94,75,1,,,,,,,,,,,,,,,,,,,,,,,,,,,,,,,,,,
,,,,,,,,,,,,,,1,001,2025-01-02_15h43.15.834,IAT(Formal),2021.2.3,Win32,142.8571429,,,,,,,,,,,,,,,e,1,,,,,,我们,e,0.4359,,,1,15,95,72,1,,,,,,,,,,,,,,,,,,,,,,,,,,,,,,,,,,
,,,,,,,,,,,,,,1,001,2025-01-02_15h43.15.834,IAT(Formal),2021.2.3,Win32,142.8571429,,,,,,,,,,,,,,,e,1,,,,,,自己,e,0.3686,,,1,16,96,73,1,,,,,,,,,,,,,,,,,,,,,,,,,,,,,,,,,,
,,,,,,,,,,,,,,1,001,2025-01-02_15h43.15.834,IAT(Formal),2021.2.3,Win32,142.8571429,,,,,,,,,,,,,,,i,1,,,,,,他们,i,0.5931,,,1,17,97,6,1,,,,,,,,,,,,,,,,,,,,,,,,,,,,,,,,,,
,,,,,,,,,,,,,,1,001,2025-01-02_15h43.15.834,IAT(Formal),2021.2.3,Win32,142.8571429,,,,,,,,,,,,,,,i,1,,,,,,刻薄,i,0.613,,,1,18,98,33,1,,,,,,,,,,,,,,,,,,,,,,,,,,,,,,,,,,
,,,,,,,,,,,,,,1,001,2025-01-02_15h43.15.834,IAT(Formal),2021.2.3,Win32,142.8571429,,,,,,,,,,,,,,,e,1,,,,,,崇高,e,0.6205,,,1,19,99,11,1,,,,,,,,,,,,,,,,,,,,,,,,,,,,,,,,,,
,,,,,,,,,,,,,,1,001,2025-01-02_15h43.15.834,IAT(Formal),2021.2.3,Win32,142.8571429,,,,,,,,,,,,,,,e,1,,,,,,我的,e,0.3544,,,1,20,100,71,1,,,,,,,,,,,,,,,,,,,,,,,,,,,,,,,,,,
,,,,,,,,,,,,,,1,001,2025-01-02_15h43.15.834,IAT(Formal),2021.2.3,Win32,142.8571429,,,,,,,,,,,,,,,e,1,,,,,,诚实,e,0.4262,,,1,21,101,15,1,,,,,,,,,,,,,,,,,,,,,,,,,,,,,,,,,,
,,,,,,,,,,,,,,1,001,2025-01-02_15h43.15.834,IAT(Formal),2021.2.3,Win32,142.8571429,,,,,,,,,,,,,,,e,1,,,,,,我,e,0.5168,,,1,22,102,0,1,,,,,,,,,,,,,,,,,,,,,,,,,,,,,,,,,,
,,,,,,,,,,,,,,1,001,2025-01-02_15h43.15.834,IAT(Formal),2021.2.3,Win32,142.8571429,,,,,,,,,,,,,,,i,1,,,,,,下贱,i,0.5421,,,1,23,103,49,1,,,,,,,,,,,,,,,,,,,,,,,,,,,,,,,,,,
,,,,,,,,,,,,,,1,001,2025-01-02_15h43.15.834,IAT(Formal),2021.2.3,Win32,142.8571429,,,,,,,,,,,,,,,i,1,,,,,,他人,i,0.5641,,,1,24,104,68,1,,,,,,,,,,,,,,,,,,,,,,,,,,,,,,,,,,
,,,,,,,,,,,,,,1,001,2025-01-02_15h43.15.834,IAT(Formal),2021.2.3,Win32,142.8571429,,,,,,,,,,,,,,,i,0,,,,,,热情,e,0.7182,,,1,25,105,27,1,,,,,,,,,,,,,,,,,,,,,,,,,,,,,,,,,,
,,,,,,,,,,,,,,1,001,2025-01-02_15h43.15.834,IAT(Formal),2021.2.3,Win32,142.8571429,,,,,,,,,,,,,,,i,1,,,,,,他的,i,0.4487,,,1,26,106,7,1,,,,,,,,,,,,,,,,,,,,,,,,,,,,,,,,,,
,,,,,,,,,,,,,,1,001,2025-01-02_15h43.15.834,IAT(Formal),2021.2.3,Win32,142.8571429,,,,,,,,,,,,,,,i,0,,,,,,杰出,e,0.4745,,,1,27,107,13,1,,,,,,,,,,,,,,,,,,,,,,,,,,,,,,,,,,
,,,,,,,,,,,,,,1,001,2025-01-02_15h43.15.834,IAT(Formal),2021.2.3,Win32,142.8571429,,,,,,,,,,,,,,,i,1,,,,,,冒失,i,0.5247,,,1,28,108,39,1,,,,,,,,,,,,,,,,,,,,,,,,,,,,,,,,,,
,,,,,,,,,,,,,,1,001,2025-01-02_15h43.15.834,IAT(Formal),2021.2.3,Win32,142.8571429,,,,,,,,,,,,,,,i,1,,,,,,其他,i,0.7178,,,1,29,109,9,1,,,,,,,,,,,,,,,,,,,,,,,,,,,,,,,,,,
,,,,,,,,,,,,,,1,001,2025-01-02_15h43.15.834,IAT(Formal),2021.2.3,Win32,142.8571429,,,,,,,,,,,,,,,e,1,,,,,,我的,e,0.5582,,,1,30,110,51,1,,,,,,,,,,,,,,,,,,,,,,,,,,,,,,,,,,
,,,,,,,,,,,,,,1,001,2025-01-02_15h43.15.834,IAT(Formal),2021.2.3,Win32,142.8571429,,,,,,,,,,,,,,,i,1,,,,,,悲观,i,0.6329,,,1,31,111,34,1,,,,,,,,,,,,,,,,,,,,,,,,,,,,,,,,,,
,,,,,,,,,,,,,,1,001,2025-01-02_15h43.15.834,IAT(Formal),2021.2.3,Win32,142.8571429,,,,,,,,,,,,,,,e,1,,,,,,我,e,0.6214,,,1,32,112,50,1,,,,,,,,,,,,,,,,,,,,,,,,,,,,,,,,,,
,,,,,,,,,,,,,,1,001,2025-01-02_15h43.15.834,IAT(Formal),2021.2.3,Win32,142.8571429,,,,,,,,,,,,,,,i,1,,,,,,他们,i,0.5164,,,1,33,113,56,1,,,,,,,,,,,,,,,,,,,,,,,,,,,,,,,,,,
,,,,,,,,,,,,,,1,001,2025-01-02_15h43.15.834,IAT(Formal),2021.2.3,Win32,142.8571429,,,,,,,,,,,,,,,e,1,,,,,,自己,e,0.9008,,,1,34,114,53,1,,,,,,,,,,,,,,,,,,,,,,,,,,,,,,,,,,
,,,,,,,,,,,,,,1,001,2025-01-02_15h43.15.834,IAT(Formal),2021.2.3,Win32,142.8571429,,,,,,,,,,,,,,,e,1,,,,,,自己,e,0.4171,,,1,35,115,3,1,,,,,,,,,,,,,,,,,,,,,,,,,,,,,,,,,,
,,,,,,,,,,,,,,1,001,2025-01-02_15h43.15.834,IAT(Formal),2021.2.3,Win32,142.8571429,,,,,,,,,,,,,,,e,1,,,,,,聪明,e,0.4681,,,1,36,116,12,1,,,,,,,,,,,,,,,,,,,,,,,,,,,,,,,,,,
,,,,,,,,,,,,,,1,001,2025-01-02_15h43.15.834,IAT(Formal),2021.2.3,Win32,142.8571429,,,,,,,,,,,,,,,i,1,,,,,,虚伪,i,0.6129,,,1,37,117,31,1,,,,,,,,,,,,,,,,,,,,,,,,,,,,,,,,,,
,,,,,,,,,,,,,,1,001,2025-01-02_15h43.15.834,IAT(Formal),2021.2.3,Win32,142.8571429,,,,,,,,,,,,,,,i,1,,,,,,猖狂,i,0.4385,,,1,38,118,45,1,,,,,,,,,,,,,,,,,,,,,,,,,,,,,,,,,,
,,,,,,,,,,,,,,1,001,2025-01-02_15h43.15.834,IAT(Formal),2021.2.3,Win32,142.8571429,,,,,,,,,,,,,,,e,1,,,,,,我们,e,0.4949,,,1,39,119,52,1,,,,,,,,,,,,,,,,,,,,,,,,,,,,,,,,,,
,,,,,,,,,,,,,,1,001,2025-01-02_15h43.15.834,IAT(Formal),2021.2.3,Win32,142.8571429,,,,,,,,,,,,,,,e,1,,,,,,稳重,e,0.5148,,,1,40,120,21,1,,,,,,,,,,,,,,,,,,,,,,,,,,,,,,,,,,
,,,,,,,,,,,,,,1,001,2025-01-02_15h43.15.834,IAT(Formal),2021.2.3,Win32,142.8571429,,,,,,,,,,,,,,,e,0,,,,,,散漫,i,0.3801,,,1,41,121,41,1,,,,,,,,,,,,,,,,,,,,,,,,,,,,,,,,,,
,,,,,,,,,,,,,,1,001,2025-01-02_15h43.15.834,IAT(Formal),2021.2.3,Win32,142.8571429,,,,,,,,,,,,,,,i,1,,,,,,消极,i,0.5566,,,1,42,122,35,1,,,,,,,,,,,,,,,,,,,,,,,,,,,,,,,,,,
,,,,,,,,,,,,,,1,001,2025-01-02_15h43.15.834,IAT(Formal),2021.2.3,Win32,142.8571429,,,,,,,,,,,,,,,e,1,,,,,,俺,e,0.5857,,,1,43,123,4,1,,,,,,,,,,,,,,,,,,,,,,,,,,,,,,,,,,
,,,,,,,,,,,,,,1,001,2025-01-02_15h43.15.834,IAT(Formal),2021.2.3,Win32,142.8571429,,,,,,,,,,,,,,,i,1,,,,,,其他,i,0.5709,,,1,44,124,59,1,,,,,,,,,,,,,,,,,,,,,,,,,,,,,,,,,,
,,,,,,,,,,,,,,1,001,2025-01-02_15h43.15.834,IAT(Formal),2021.2.3,Win32,142.8571429,,,,,,,,,,,,,,,e,1,,,,,,优秀,e,0.542,,,1,45,125,10,1,,,,,,,,,,,,,,,,,,,,,,,,,,,,,,,,,,
,,,,,,,,,,,,,,1,001,2025-01-02_15h43.15.834,IAT(Formal),2021.2.3,Win32,142.8571429,,,,,,,,,,,,,,,e,1,,,,,,诚恳,e,0.4959,,,1,46,126,29,1,,,,,,,,,,,,,,,,,,,,,,,,,,,,,,,,,,
,,,,,,,,,,,,,,1,001,2025-01-02_15h43.15.834,IAT(Formal),2021.2.3,Win32,142.8571429,,,,,,,,,,,,,,,i,1,,,,,,野蛮,i,0.6671,,,1,47,127,46,1,,,,,,,,,,,,,,,,,,,,,,,,,,,,,,,,,,
,,,,,,,,,,,,,,1,001,2025-01-02_15h43.15.834,IAT(Formal),2021.2.3,Win32,142.8571429,,,,,,,,,,,,,,,e,1,,,,,,冷静,e,1.0223,,,1,48,128,26,1,,,,,,,,,,,,,,,,,,,,,,,,,,,,,,,,,,
,,,,,,,,,,,,,,1,001,2025-01-02_15h43.15.834,IAT(Formal),2021.2.3,Win32,142.8571429,,,,,,,,,,,,,,,e,1,,,,,,乐观,e,0.5442,,,1,49,129,14,1,,,,,,,,,,,,,,,,,,,,,,,,,,,,,,,,,,
,,,,,,,,,,,,,,1,001,2025-01-02_15h43.15.834,IAT(Formal),2021.2.3,Win32,142.8571429,,,,,,,,,,,,,,,e,1,,,,,,我,e,0.5118,,,1,50,130,70,1,,,,,,,,,,,,,,,,,,,,,,,,,,,,,,,,,,
,,,,,,,,,,,,,,1,001,2025-01-02_15h43.15.834,IAT(Formal),2021.2.3,Win32,142.8571429,,,,,,,,,,,,,,,i,1,,,,,,他人,i,0.5581,,,1,51,131,58,1,,,,,,,,,,,,,,,,,,,,,,,,,,,,,,,,,,
,,,,,,,,,,,,,,1,001,2025-01-02_15h43.15.834,IAT(Formal),2021.2.3,Win32,142.8571429,,,,,,,,,,,,,,,e,1,,,,,,公正,e,0.5216,,,1,52,132,23,1,,,,,,,,,,,,,,,,,,,,,,,,,,,,,,,,,,
,,,,,,,,,,,,,,1,001,2025-01-02_15h43.15.834,IAT(Formal),2021.2.3,Win32,142.8571429,,,,,,,,,,,,,,,e,1,,,,,,正直,e,0.4118,,,1,53,133,16,1,,,,,,,,,,,,,,,,,,,,,,,,,,,,,,,,,,
,,,,,,,,,,,,,,1,001,2025-01-02_15h43.15.834,IAT(Formal),2021.2.3,Win32,142.8571429,,,,,,,,,,,,,,,e,1,,,,,,认真,e,0.3907,,,1,54,134,20,1,,,,,,,,,,,,,,,,,,,,,,,,,,,,,,,,,,
,,,,,,,,,,,,,,1,001,2025-01-02_15h43.15.834,IAT(Formal),2021.2.3,Win32,142.8571429,,,,,,,,,,,,,,,e,1,,,,,,机智,e,0.4731,,,1,55,135,19,1,,,,,,,,,,,,,,,,,,,,,,,,,,,,,,,,,,
,,,,,,,,,,,,,,1,001,2025-01-02_15h43.15.834,IAT(Formal),2021.2.3,Win32,142.8571429,,,,,,,,,,,,,,,e,0,,,,,,他的,i,0.3906,,,1,56,136,77,1,,,,,,,,,,,,,,,,,,,,,,,,,,,,,,,,,,
,,,,,,,,,,,,,,1,001,2025-01-02_15h43.15.834,IAT(Formal),2021.2.3,Win32,142.8571429,,,,,,,,,,,,,,,e,1,,,,,,我的,e,0.4314,,,1,57,137,61,1,,,,,,,,,,,,,,,,,,,,,,,,,,,,,,,,,,
,,,,,,,,,,,,,,1,001,2025-01-02_15h43.15.834,IAT(Formal),2021.2.3,Win32,142.8571429,,,,,,,,,,,,,,,e,1,,,,,,俺,e,0.4588,,,1,58,138,54,1,,,,,,,,,,,,,,,,,,,,,,,,,,,,,,,,,,
,,,,,,,,,,,,,,1,001,2025-01-02_15h43.15.834,IAT(Formal),2021.2.3,Win32,142.8571429,,,,,,,,,,,,,,,e,1,,,,,,活泼,e,0.4957,,,1,59,139,28,1,,,,,,,,,,,,,,,,,,,,,,,,,,,,,,,,,,
,,,,,,,,,,,,,,1,001,2025-01-02_15h43.15.834,IAT(Formal),2021.2.3,Win32,142.8571429,,,,,,,,,,,,,,,i,1,,,,,,暴躁,i,0.4966,,,1,60,140,44,1,,,,,,,,,,,,,,,,,,,,,,,,,,,,,,,,,,
,,,,,,,,,,,,,,1,001,2025-01-02_15h43.15.834,IAT(Formal),2021.2.3,Win32,142.8571429,,,,,,,,,,,,,,,i,1,,,,,,他,i,0.518,,,1,61,141,65,1,,,,,,,,,,,,,,,,,,,,,,,,,,,,,,,,,,
,,,,,,,,,,,,,,1,001,2025-01-02_15h43.15.834,IAT(Formal),2021.2.3,Win32,142.8571429,,,,,,,,,,,,,,,e,1,,,,,,无私,e,0.6365,,,1,62,142,22,1,,,,,,,,,,,,,,,,,,,,,,,,,,,,,,,,,,
,,,,,,,,,,,,,,1,001,2025-01-02_15h43.15.834,IAT(Formal),2021.2.3,Win32,142.8571429,,,,,,,,,,,,,,,e,0,,,,,,他人,i,0.4013,,,1,63,143,8,1,,,,,,,,,,,,,,,,,,,,,,,,,,,,,,,,,,
,,,,,,,,,,,,,,1,001,2025-01-02_15h43.15.834,IAT(Formal),2021.2.3,Win32,142.8571429,,,,,,,,,,,,,,,i,1,,,,,,鲁莽,i,1.0438,,,1,64,144,38,1,,,,,,,,,,,,,,,,,,,,,,,,,,,,,,,,,,
,,,,,,,,,,,,,,1,001,2025-01-02_15h43.15.834,IAT(Formal),2021.2.3,Win32,142.8571429,,,,,,,,,,,,,,,i,1,,,,,,其他,i,0.56,,,1,65,145,79,1,,,,,,,,,,,,,,,,,,,,,,,,,,,,,,,,,,
,,,,,,,,,,,,,,1,001,2025-01-02_15h43.15.834,IAT(Formal),2021.2.3,Win32,142.8571429,,,,,,,,,,,,,,,i,1,,,,,,他,i,0.5311,,,1,66,146,55,1,,,,,,,,,,,,,,,,,,,,,,,,,,,,,,,,,,
,,,,,,,,,,,,,,1,001,2025-01-02_15h43.15.834,IAT(Formal),2021.2.3,Win32,142.8571429,,,,,,,,,,,,,,,i,1,,,,,,他们,i,0.4133,,,1,67,147,66,1,,,,,,,,,,,,,,,,,,,,,,,,,,,,,,,,,,
,,,,,,,,,,,,,,1,001,2025-01-02_15h43.15.834,IAT(Formal),2021.2.3,Win32,142.8571429,,,,,,,,,,,,,,,e,1,,,,,,朴实,e,0.5698,,,1,68,148,24,1,,,,,,,,,,,,,,,,,,,,,,,,,,,,,,,,,,
,,,,,,,,,,,,,,1,001,2025-01-02_15h43.15.834,IAT(Formal),2021.2.3,Win32,142.8571429,,,,,,,,,,,,,,,e,1,,,,,,细腻,e,0.5086,,,1,69,149,25,1,,,,,,,,,,,,,,,,,,,,,,,,,,,,,,,,,,
,,,,,,,,,,,,,,1,001,2025-01-02_15h43.15.834,IAT(Formal),2021.2.3,Win32,142.8571429,,,,,,,,,,,,,,,e,1,,,,,,勤奋,e,0.4389,,,1,70,150,18,1,,,,,,,,,,,,,,,,,,,,,,,,,,,,,,,,,,
,,,,,,,,,,,,,,1,001,2025-01-02_15h43.15.834,IAT(Formal),2021.2.3,Win32,142.8571429,,,,,,,,,,,,,,,e,1,,,,,,我们,e,0.3896,,,1,71,151,2,1,,,,,,,,,,,,,,,,,,,,,,,,,,,,,,,,,,
,,,,,,,,,,,,,,1,001,2025-01-02_15h43.15.834,IAT(Formal),2021.2.3,Win32,142.8571429,,,,,,,,,,,,,,,e,1,,,,,,俺,e,0.5561,,,1,72,152,64,1,,,,,,,,,,,,,,,,,,,,,,,,,,,,,,,,,,
,,,,,,,,,,,,,,1,001,2025-01-02_15h43.15.834,IAT(Formal),2021.2.3,Win32,142.8571429,,,,,,,,,,,,,,,i,1,,,,,,固执,i,0.4599,,,1,73,153,47,1,,,,,,,,,,,,,,,,,,,,,,,,,,,,,,,,,,
,,,,,,,,,,,,,,1,001,2025-01-02_15h43.15.834,IAT(Formal),2021.2.3,Win32,142.8571429,,,,,,,,,,,,,,,i,1,,,,,,他的,i,0.5492,,,1,74,154,57,1,,,,,,,,,,,,,,,,,,,,,,,,,,,,,,,,,,
,,,,,,,,,,,,,,1,001,2025-01-02_15h43.15.834,IAT(Formal),2021.2.3,Win32,142.8571429,,,,,,,,,,,,,,,e,0,,,,,,自私,i,0.9446,,,1,75,155,43,1,,,,,,,,,,,,,,,,,,,,,,,,,,,,,,,,,,
,,,,,,,,,,,,,,1,001,2025-01-02_15h43.15.834,IAT(Formal),2021.2.3,Win32,142.8571429,,,,,,,,,,,,,,,i,1,,,,,,愚蠢,i,0.4994,,,1,76,156,32,1,,,,,,,,,,,,,,,,,,,,,,,,,,,,,,,,,,
,,,,,,,,,,,,,,1,001,2025-01-02_15h43.15.834,IAT(Formal),2021.2.3,Win32,142.8571429,,,,,,,,,,,,,,,i,1,,,,,,凶狠,i,0.4591,,,1,77,157,42,1,,,,,,,,,,,,,,,,,,,,,,,,,,,,,,,,,,
,,,,,,,,,,,,,,1,001,2025-01-02_15h43.15.834,IAT(Formal),2021.2.3,Win32,142.8571429,,,,,,,,,,,,,,,e,1,,,,,,勇敢,e,0.6602,,,1,78,158,17,1,,,,,,,,,,,,,,,,,,,,,,,,,,,,,,,,,,
,,,,,,,,,,,,,,1,001,2025-01-02_15h43.15.834,IAT(Formal),2021.2.3,Win32,142.8571429,,,,,,,,,,,,,,,i,1,,,,,,他的,i,0.6391,,,1,79,159,67,1,,,,,,,,,,,,,,,,,,,,,,,,,,,,,,,,,,
,,,,,,,,,,,,俺,i,1,001,2025-01-02_15h43.15.834,IAT(Formal),2021.2.3,Win32,142.8571429,,,,,,,,,,,,,,,,,,,,,,,,,,,,,,,,space,6.0764,i,1,0.6587,0,0,0,4,1,,,,,,,,,,,,,,,,,,,,,,,,
,,,,,,,,,,,,他,e,1,001,2025-01-02_15h43.15.834,IAT(Formal),2021.2.3,Win32,142.8571429,,,,,,,,,,,,,,,,,,,,,,,,,,,,,,,,,,e,1,0.4934,0,1,1,5,1,,,,,,,,,,,,,,,,,,,,,,,,
,,,,,,,,,,,,我,i,1,001,2025-01-02_15h43.15.834,IAT(Formal),2021.2.3,Win32,142.8571429,,,,,,,,,,,,,,,,,,,,,,,,,,,,,,,,,,i,1,0.3668,0,2,2,0,1,,,,,,,,,,,,,,,,,,,,,,,,
,,,,,,,,,,,,我们,i,1,001,2025-01-02_15h43.15.834,IAT(Formal),2021.2.3,Win32,142.8571429,,,,,,,,,,,,,,,,,,,,,,,,,,,,,,,,,,i,1,0.5342,0,3,3,2,1,,,,,,,,,,,,,,,,,,,,,,,,
,,,,,,,,,,,,其他,e,1,001,2025-01-02_15h43.15.834,IAT(Formal),2021.2.3,Win32,142.8571429,,,,,,,,,,,,,,,,,,,,,,,,,,,,,,,,,,e,1,0.5131,0,4,4,9,1,,,,,,,,,,,,,,,,,,,,,,,,
,,,,,,,,,,,,他人,e,1,001,2025-01-02_15h43.15.834,IAT(Formal),2021.2.3,Win32,142.8571429,,,,,,,,,,,,,,,,,,,,,,,,,,,,,,,,,,e,1,0.4701,0,5,5,8,1,,,,,,,,,,,,,,,,,,,,,,,,
,,,,,,,,,,,,他的,e,1,001,2025-01-02_15h43.15.834,IAT(Formal),2021.2.3,Win32,142.8571429,,,,,,,,,,,,,,,,,,,,,,,,,,,,,,,,,,e,1,0.4789,0,6,6,7,1,,,,,,,,,,,,,,,,,,,,,,,,
,,,,,,,,,,,,自己,i,1,001,2025-01-02_15h43.15.834,IAT(Formal),2021.2.3,Win32,142.8571429,,,,,,,,,,,,,,,,,,,,,,,,,,,,,,,,,,i,1,0.472,0,7,7,3,1,,,,,,,,,,,,,,,,,,,,,,,,
,,,,,,,,,,,,我的,i,1,001,2025-01-02_15h43.15.834,IAT(Formal),2021.2.3,Win32,142.8571429,,,,,,,,,,,,,,,,,,,,,,,,,,,,,,,,,,e,0,0.4505,0,8,8,1,1,,,,,,,,,,,,,,,,,,,,,,,,
,,,,,,,,,,,,他们,e,1,001,2025-01-02_15h43.15.834,IAT(Formal),2021.2.3,Win32,142.8571429,,,,,,,,,,,,,,,,,,,,,,,,,,,,,,,,,,e,1,0.5155,0,9,9,6,1,,,,,,,,,,,,,,,,,,,,,,,,
,,,,,,,,,,,,,,1,001,2025-01-02_15h43.15.834,IAT(Formal),2021.2.3,Win32,142.8571429,,,,,,,,,,,,,,,,,,,,,,,,,,,,,,,,,,,,,,,,,,space,4.9985,,0,0,0,0,40,1,执拗,i,,,,,,,,,,,,,
,,,,,,,,,,,,,,1,001,2025-01-02_15h43.15.834,IAT(Formal),2021.2.3,Win32,142.8571429,,,,,,,,,,,,,,,,,,,,,,,,,,,,,,,,,,,,,,,,,,,,e,1,0,1,1,56,1,他们,e,0.8274,,,,,,,,,,,,
,,,,,,,,,,,,,,1,001,2025-01-02_15h43.15.834,IAT(Formal),2021.2.3,Win32,142.8571429,,,,,,,,,,,,,,,,,,,,,,,,,,,,,,,,,,,,,,,,,,,,i,1,0,2,2,71,1,我的,i,0.6053,,,,,,,,,,,,
,,,,,,,,,,,,,,1,001,2025-01-02_15h43.15.834,IAT(Formal),2021.2.3,Win32,142.8571429,,,,,,,,,,,,,,,,,,,,,,,,,,,,,,,,,,,,,,,,,,,,e,1,0,3,3,66,1,他们,e,0.718,,,,,,,,,,,,
,,,,,,,,,,,,,,1,001,2025-01-02_15h43.15.834,IAT(Formal),2021.2.3,Win32,142.8571429,,,,,,,,,,,,,,,,,,,,,,,,,,,,,,,,,,,,,,,,,,,,e,1,0,4,4,8,1,他人,e,0.5053,,,,,,,,,,,,
,,,,,,,,,,,,,,1,001,2025-01-02_15h43.15.834,IAT(Formal),2021.2.3,Win32,142.8571429,,,,,,,,,,,,,,,,,,,,,,,,,,,,,,,,,,,,,,,,,,,,i,0,0,5,5,10,1,优秀,e,0.7699,,,,,,,,,,,,
,,,,,,,,,,,,,,1,001,2025-01-02_15h43.15.834,IAT(Formal),2021.2.3,Win32,142.8571429,,,,,,,,,,,,,,,,,,,,,,,,,,,,,,,,,,,,,,,,,,,,e,0,0,6,6,33,1,刻薄,i,1.0003,,,,,,,,,,,,
,,,,,,,,,,,,,,1,001,2025-01-02_15h43.15.834,IAT(Formal),2021.2.3,Win32,142.8571429,,,,,,,,,,,,,,,,,,,,,,,,,,,,,,,,,,,,,,,,,,,,e,1,0,7,7,23,1,公正,e,0.7834,,,,,,,,,,,,
,,,,,,,,,,,,,,1,001,2025-01-02_15h43.15.834,IAT(Formal),2021.2.3,Win32,142.8571429,,,,,,,,,,,,,,,,,,,,,,,,,,,,,,,,,,,,,,,,,,,,e,1,0,8,8,21,1,稳重,e,1.0252,,,,,,,,,,,,
,,,,,,,,,,,,,,1,001,2025-01-02_15h43.15.834,IAT(Formal),2021.2.3,Win32,142.8571429,,,,,,,,,,,,,,,,,,,,,,,,,,,,,,,,,,,,,,,,,,,,e,1,0,9,9,28,1,活泼,e,0.5908,,,,,,,,,,,,
,,,,,,,,,,,,,,1,001,2025-01-02_15h43.15.834,IAT(Formal),2021.2.3,Win32,142.8571429,,,,,,,,,,,,,,,,,,,,,,,,,,,,,,,,,,,,,,,,,,,,i,1,0,10,10,63,1,自己,i,0.5718,,,,,,,,,,,,
,,,,,,,,,,,,,,1,001,2025-01-02_15h43.15.834,IAT(Formal),2021.2.3,Win32,142.8571429,,,,,,,,,,,,,,,,,,,,,,,,,,,,,,,,,,,,,,,,,,,,i,1,0,11,11,3,1,自己,i,0.4057,,,,,,,,,,,,
,,,,,,,,,,,,,,1,001,2025-01-02_15h43.15.834,IAT(Formal),2021.2.3,Win32,142.8571429,,,,,,,,,,,,,,,,,,,,,,,,,,,,,,,,,,,,,,,,,,,,i,1,0,12,12,43,1,自私,i,1.0844,,,,,,,,,,,,
,,,,,,,,,,,,,,1,001,2025-01-02_15h43.15.834,IAT(Formal),2021.2.3,Win32,142.8571429,,,,,,,,,,,,,,,,,,,,,,,,,,,,,,,,,,,,,,,,,,,,e,1,0,13,13,18,1,勤奋,e,1.097,,,,,,,,,,,,
,,,,,,,,,,,,,,1,001,2025-01-02_15h43.15.834,IAT(Formal),2021.2.3,Win32,142.8571429,,,,,,,,,,,,,,,,,,,,,,,,,,,,,,,,,,,,,,,,,,,,e,1,0,14,14,19,1,机智,e,0.5783,,,,,,,,,,,,
,,,,,,,,,,,,,,1,001,2025-01-02_15h43.15.834,IAT(Formal),2021.2.3,Win32,142.8571429,,,,,,,,,,,,,,,,,,,,,,,,,,,,,,,,,,,,,,,,,,,,e,1,0,15,15,77,1,他的,e,1.2198,,,,,,,,,,,,
,,,,,,,,,,,,,,1,001,2025-01-02_15h43.15.834,IAT(Formal),2021.2.3,Win32,142.8571429,,,,,,,,,,,,,,,,,,,,,,,,,,,,,,,,,,,,,,,,,,,,i,1,0,16,16,0,1,我,i,0.445,,,,,,,,,,,,
,,,,,,,,,,,,,,1,001,2025-01-02_15h43.15.834,IAT(Formal),2021.2.3,Win32,142.8571429,,,,,,,,,,,,,,,,,,,,,,,,,,,,,,,,,,,,,,,,,,,,i,1,0,17,17,51,1,我的,i,0.3335,,,,,,,,,,,,
,,,,,,,,,,,,,,1,001,2025-01-02_15h43.15.834,IAT(Formal),2021.2.3,Win32,142.8571429,,,,,,,,,,,,,,,,,,,,,,,,,,,,,,,,,,,,,,,,,,,,e,0,0,18,18,36,1,自卑,i,0.7105,,,,,,,,,,,,
,,,,,,,,,,,,,,1,001,2025-01-02_15h43.15.834,IAT(Formal),2021.2.3,Win32,142.8571429,,,,,,,,,,,,,,,,,,,,,,,,,,,,,,,,,,,,,,,,,,,,i,1,0,19,19,35,1,消极,i,0.4419,,,,,,,,,,,,
,,,,,,,,,,,,,,1,001,2025-01-02_15h43.15.834,IAT(Formal),2021.2.3,Win32,142.8571429,,,,,,,,,,,,,,,,,,,,,,,,,,,,,,,,,,,,,,,,,,,,e,1,0,20,20,17,1,勇敢,e,0.6126,,,,,,,,,,,,
,,,,,,,,,,,,,,1,001,2025-01-02_15h43.15.834,IAT(Formal),2021.2.3,Win32,142.8571429,,,,,,,,,,,,,,,,,,,,,,,,,,,,,,,,,,,,,,,,,,,,e,1,0,21,21,58,1,他人,e,0.4698,,,,,,,,,,,,
,,,,,,,,,,,,,,1,001,2025-01-02_15h43.15.834,IAT(Formal),2021.2.3,Win32,142.8571429,,,,,,,,,,,,,,,,,,,,,,,,,,,,,,,,,,,,,,,,,,,,i,0,0,22,22,59,1,其他,e,0.7746,,,,,,,,,,,,
,,,,,,,,,,,,,,1,001,2025-01-02_15h43.15.834,IAT(Formal),2021.2.3,Win32,142.8571429,,,,,,,,,,,,,,,,,,,,,,,,,,,,,,,,,,,,,,,,,,,,i,1,0,23,23,4,1,俺,i,0.6958,,,,,,,,,,,,
,,,,,,,,,,,,,,1,001,2025-01-02_15h43.15.834,IAT(Formal),2021.2.3,Win32,142.8571429,,,,,,,,,,,,,,,,,,,,,,,,,,,,,,,,,,,,,,,,,,,,i,0,0,24,24,12,1,聪明,e,1.1116,,,,,,,,,,,,
,,,,,,,,,,,,,,1,001,2025-01-02_15h43.15.834,IAT(Formal),2021.2.3,Win32,142.8571429,,,,,,,,,,,,,,,,,,,,,,,,,,,,,,,,,,,,,,,,,,,,i,1,0,25,25,50,1,我,i,0.7369,,,,,,,,,,,,
,,,,,,,,,,,,,,1,001,2025-01-02_15h43.15.834,IAT(Formal),2021.2.3,Win32,142.8571429,,,,,,,,,,,,,,,,,,,,,,,,,,,,,,,,,,,,,,,,,,,,e,1,0,26,26,11,1,崇高,e,0.6911,,,,,,,,,,,,
,,,,,,,,,,,,,,1,001,2025-01-02_15h43.15.834,IAT(Formal),2021.2.3,Win32,142.8571429,,,,,,,,,,,,,,,,,,,,,,,,,,,,,,,,,,,,,,,,,,,,i,1,0,27,27,49,1,下贱,i,0.8621,,,,,,,,,,,,
,,,,,,,,,,,,,,1,001,2025-01-02_15h43.15.834,IAT(Formal),2021.2.3,Win32,142.8571429,,,,,,,,,,,,,,,,,,,,,,,,,,,,,,,,,,,,,,,,,,,,e,1,0,28,28,24,1,朴实,e,0.6952,,,,,,,,,,,,
,,,,,,,,,,,,,,1,001,2025-01-02_15h43.15.834,IAT(Formal),2021.2.3,Win32,142.8571429,,,,,,,,,,,,,,,,,,,,,,,,,,,,,,,,,,,,,,,,,,,,i,1,0,29,29,62,1,我们,i,1.3846,,,,,,,,,,,,
,,,,,,,,,,,,,,1,001,2025-01-02_15h43.15.834,IAT(Formal),2021.2.3,Win32,142.8571429,,,,,,,,,,,,,,,,,,,,,,,,,,,,,,,,,,,,,,,,,,,,e,0,0,30,30,48,1,轻率,i,0.6336,,,,,,,,,,,,
,,,,,,,,,,,,,,1,001,2025-01-02_15h43.15.834,IAT(Formal),2021.2.3,Win32,142.8571429,,,,,,,,,,,,,,,,,,,,,,,,,,,,,,,,,,,,,,,,,,,,e,1,0,31,31,15,1,诚实,e,0.6053,,,,,,,,,,,,
,,,,,,,,,,,,,,1,001,2025-01-02_15h43.15.834,IAT(Formal),2021.2.3,Win32,142.8571429,,,,,,,,,,,,,,,,,,,,,,,,,,,,,,,,,,,,,,,,,,,,i,1,0,32,32,32,1,愚蠢,i,0.9407,,,,,,,,,,,,
,,,,,,,,,,,,,,1,001,2025-01-02_15h43.15.834,IAT(Formal),2021.2.3,Win32,142.8571429,,,,,,,,,,,,,,,,,,,,,,,,,,,,,,,,,,,,,,,,,,,,i,1,0,33,33,38,1,鲁莽,i,0.4658,,,,,,,,,,,,
,,,,,,,,,,,,,,1,001,2025-01-02_15h43.15.834,IAT(Formal),2021.2.3,Win32,142.8571429,,,,,,,,,,,,,,,,,,,,,,,,,,,,,,,,,,,,,,,,,,,,i,0,0,34,34,79,1,其他,e,1.0987,,,,,,,,,,,,
,,,,,,,,,,,,,,1,001,2025-01-02_15h43.15.834,IAT(Formal),2021.2.3,Win32,142.8571429,,,,,,,,,,,,,,,,,,,,,,,,,,,,,,,,,,,,,,,,,,,,i,1,0,35,35,70,1,我,i,0.4934,,,,,,,,,,,,
,,,,,,,,,,,,,,1,001,2025-01-02_15h43.15.834,IAT(Formal),2021.2.3,Win32,142.8571429,,,,,,,,,,,,,,,,,,,,,,,,,,,,,,,,,,,,,,,,,,,,e,1,0,36,36,7,1,他的,e,0.4831,,,,,,,,,,,,
,,,,,,,,,,,,,,1,001,2025-01-02_15h43.15.834,IAT(Formal),2021.2.3,Win32,142.8571429,,,,,,,,,,,,,,,,,,,,,,,,,,,,,,,,,,,,,,,,,,,,i,0,0,37,37,67,1,他的,e,0.6605,,,,,,,,,,,,
,,,,,,,,,,,,,,1,001,2025-01-02_15h43.15.834,IAT(Formal),2021.2.3,Win32,142.8571429,,,,,,,,,,,,,,,,,,,,,,,,,,,,,,,,,,,,,,,,,,,,i,0,0,38,38,14,1,乐观,e,1.313,,,,,,,,,,,,
,,,,,,,,,,,,,,1,001,2025-01-02_15h43.15.834,IAT(Formal),2021.2.3,Win32,142.8571429,,,,,,,,,,,,,,,,,,,,,,,,,,,,,,,,,,,,,,,,,,,,i,1,0,39,39,2,1,我们,i,0.7063,,,,,,,,,,,,
,,,,,,,,,,,,,,1,001,2025-01-02_15h43.15.834,IAT(Formal),2021.2.3,Win32,142.8571429,,,,,,,,,,,,,,,,,,,,,,,,,,,,,,,,,,,,,,,,,,,,e,1,0,40,40,6,1,他们,e,0.5322,,,,,,,,,,,,
,,,,,,,,,,,,,,1,001,2025-01-02_15h43.15.834,IAT(Formal),2021.2.3,Win32,142.8571429,,,,,,,,,,,,,,,,,,,,,,,,,,,,,,,,,,,,,,,,,,,,e,1,0,41,41,76,1,他们,e,0.4045,,,,,,,,,,,,
,,,,,,,,,,,,,,1,001,2025-01-02_15h43.15.834,IAT(Formal),2021.2.3,Win32,142.8571429,,,,,,,,,,,,,,,,,,,,,,,,,,,,,,,,,,,,,,,,,,,,i,1,0,42,42,52,1,我们,i,0.6186,,,,,,,,,,,,
,,,,,,,,,,,,,,1,001,2025-01-02_15h43.15.834,IAT(Formal),2021.2.3,Win32,142.8571429,,,,,,,,,,,,,,,,,,,,,,,,,,,,,,,,,,,,,,,,,,,,e,1,0,43,43,27,1,热情,e,0.7718,,,,,,,,,,,,
,,,,,,,,,,,,,,1,001,2025-01-02_15h43.15.834,IAT(Formal),2021.2.3,Win32,142.8571429,,,,,,,,,,,,,,,,,,,,,,,,,,,,,,,,,,,,,,,,,,,,e,1,0,44,44,9,1,其他,e,0.7159,,,,,,,,,,,,
,,,,,,,,,,,,,,1,001,2025-01-02_15h43.15.834,IAT(Formal),2021.2.3,Win32,142.8571429,,,,,,,,,,,,,,,,,,,,,,,,,,,,,,,,,,,,,,,,,,,,e,0,0,45,45,1,1,我的,i,0.3836,,,,,,,,,,,,
,,,,,,,,,,,,,,1,001,2025-01-02_15h43.15.834,IAT(Formal),2021.2.3,Win32,142.8571429,,,,,,,,,,,,,,,,,,,,,,,,,,,,,,,,,,,,,,,,,,,,i,1,0,46,46,60,1,我,i,0.5448,,,,,,,,,,,,
,,,,,,,,,,,,,,1,001,2025-01-02_15h43.15.834,IAT(Formal),2021.2.3,Win32,142.8571429,,,,,,,,,,,,,,,,,,,,,,,,,,,,,,,,,,,,,,,,,,,,e,1,0,47,47,68,1,他人,e,0.5797,,,,,,,,,,,,
,,,,,,,,,,,,,,1,001,2025-01-02_15h43.15.834,IAT(Formal),2021.2.3,Win32,142.8571429,,,,,,,,,,,,,,,,,,,,,,,,,,,,,,,,,,,,,,,,,,,,,0,0,48,48,45,1,猖狂,i,,,,,,,,,,,,,
,,,,,,,,,,,,,,1,001,2025-01-02_15h43.15.834,IAT(Formal),2021.2.3,Win32,142.8571429,,,,,,,,,,,,,,,,,,,,,,,,,,,,,,,,,,,,,,,,,,,,e,1,0,49,49,25,1,细腻,e,0.9808,,,,,,,,,,,,
,,,,,,,,,,,,,,1,001,2025-01-02_15h43.15.834,IAT(Formal),2021.2.3,Win32,142.8571429,,,,,,,,,,,,,,,,,,,,,,,,,,,,,,,,,,,,,,,,,,,,e,1,0,50,50,16,1,正直,e,1.0605,,,,,,,,,,,,
,,,,,,,,,,,,,,1,001,2025-01-02_15h43.15.834,IAT(Formal),2021.2.3,Win32,142.8571429,,,,,,,,,,,,,,,,,,,,,,,,,,,,,,,,,,,,,,,,,,,,e,1,0,51,51,65,1,他,e,0.8834,,,,,,,,,,,,
,,,,,,,,,,,,,,1,001,2025-01-02_15h43.15.834,IAT(Formal),2021.2.3,Win32,142.8571429,,,,,,,,,,,,,,,,,,,,,,,,,,,,,,,,,,,,,,,,,,,,i,1,0,52,52,34,1,悲观,i,0.7327,,,,,,,,,,,,
,,,,,,,,,,,,,,1,001,2025-01-02_15h43.15.834,IAT(Formal),2021.2.3,Win32,142.8571429,,,,,,,,,,,,,,,,,,,,,,,,,,,,,,,,,,,,,,,,,,,,,0,0,53,53,39,1,冒失,i,,,,,,,,,,,,,
,,,,,,,,,,,,,,1,001,2025-01-02_15h43.15.834,IAT(Formal),2021.2.3,Win32,142.8571429,,,,,,,,,,,,,,,,,,,,,,,,,,,,,,,,,,,,,,,,,,,,i,1,0,54,54,72,1,我们,i,0.6048,,,,,,,,,,,,
,,,,,,,,,,,,,,1,001,2025-01-02_15h43.15.834,IAT(Formal),2021.2.3,Win32,142.8571429,,,,,,,,,,,,,,,,,,,,,,,,,,,,,,,,,,,,,,,,,,,,e,1,0,55,55,29,1,诚恳,e,0.5993,,,,,,,,,,,,
,,,,,,,,,,,,,,1,001,2025-01-02_15h43.15.834,IAT(Formal),2021.2.3,Win32,142.8571429,,,,,,,,,,,,,,,,,,,,,,,,,,,,,,,,,,,,,,,,,,,,e,1,0,56,56,20,1,认真,e,0.9117,,,,,,,,,,,,
,,,,,,,,,,,,,,1,001,2025-01-02_15h43.15.834,IAT(Formal),2021.2.3,Win32,142.8571429,,,,,,,,,,,,,,,,,,,,,,,,,,,,,,,,,,,,,,,,,,,,i,1,0,57,57,30,1,卑鄙,i,0.57,,,,,,,,,,,,
,,,,,,,,,,,,,,1,001,2025-01-02_15h43.15.834,IAT(Formal),2021.2.3,Win32,142.8571429,,,,,,,,,,,,,,,,,,,,,,,,,,,,,,,,,,,,,,,,,,,,i,1,0,58,58,46,1,野蛮,i,0.7862,,,,,,,,,,,,
,,,,,,,,,,,,,,1,001,2025-01-02_15h43.15.834,IAT(Formal),2021.2.3,Win32,142.8571429,,,,,,,,,,,,,,,,,,,,,,,,,,,,,,,,,,,,,,,,,,,,i,1,0,59,59,44,1,暴躁,i,0.4737,,,,,,,,,,,,
,,,,,,,,,,,,,,1,001,2025-01-02_15h43.15.834,IAT(Formal),2021.2.3,Win32,142.8571429,,,,,,,,,,,,,,,,,,,,,,,,,,,,,,,,,,,,,,,,,,,,e,1,0,60,60,26,1,冷静,e,0.8719,,,,,,,,,,,,
,,,,,,,,,,,,,,1,001,2025-01-02_15h43.15.834,IAT(Formal),2021.2.3,Win32,142.8571429,,,,,,,,,,,,,,,,,,,,,,,,,,,,,,,,,,,,,,,,,,,,e,1,0,61,61,69,1,其他,e,0.8411,,,,,,,,,,,,
,,,,,,,,,,,,,,1,001,2025-01-02_15h43.15.834,IAT(Formal),2021.2.3,Win32,142.8571429,,,,,,,,,,,,,,,,,,,,,,,,,,,,,,,,,,,,,,,,,,,,e,1,0,62,62,22,1,无私,e,0.5356,,,,,,,,,,,,
,,,,,,,,,,,,,,1,001,2025-01-02_15h43.15.834,IAT(Formal),2021.2.3,Win32,142.8571429,,,,,,,,,,,,,,,,,,,,,,,,,,,,,,,,,,,,,,,,,,,,e,0,0,63,63,64,1,俺,i,0.4798,,,,,,,,,,,,
,,,,,,,,,,,,,,1,001,2025-01-02_15h43.15.834,IAT(Formal),2021.2.3,Win32,142.8571429,,,,,,,,,,,,,,,,,,,,,,,,,,,,,,,,,,,,,,,,,,,,e,1,0,64,64,75,1,他,e,0.5966,,,,,,,,,,,,
,,,,,,,,,,,,,,1,001,2025-01-02_15h43.15.834,IAT(Formal),2021.2.3,Win32,142.8571429,,,,,,,,,,,,,,,,,,,,,,,,,,,,,,,,,,,,,,,,,,,,e,1,0,65,65,78,1,他人,e,0.6541,,,,,,,,,,,,
,,,,,,,,,,,,,,1,001,2025-01-02_15h43.15.834,IAT(Formal),2021.2.3,Win32,142.8571429,,,,,,,,,,,,,,,,,,,,,,,,,,,,,,,,,,,,,,,,,,,,e,1,0,66,66,55,1,他,e,0.4032,,,,,,,,,,,,
,,,,,,,,,,,,,,1,001,2025-01-02_15h43.15.834,IAT(Formal),2021.2.3,Win32,142.8571429,,,,,,,,,,,,,,,,,,,,,,,,,,,,,,,,,,,,,,,,,,,,e,0,0,67,67,41,1,散漫,i,0.712,,,,,,,,,,,,
,,,,,,,,,,,,,,1,001,2025-01-02_15h43.15.834,IAT(Formal),2021.2.3,Win32,142.8571429,,,,,,,,,,,,,,,,,,,,,,,,,,,,,,,,,,,,,,,,,,,,e,1,0,68,68,5,1,他,e,0.5418,,,,,,,,,,,,
,,,,,,,,,,,,,,1,001,2025-01-02_15h43.15.834,IAT(Formal),2021.2.3,Win32,142.8571429,,,,,,,,,,,,,,,,,,,,,,,,,,,,,,,,,,,,,,,,,,,,i,1,0,69,69,74,1,俺,i,0.7226,,,,,,,,,,,,
,,,,,,,,,,,,,,1,001,2025-01-02_15h43.15.834,IAT(Formal),2021.2.3,Win32,142.8571429,,,,,,,,,,,,,,,,,,,,,,,,,,,,,,,,,,,,,,,,,,,,i,1,0,70,70,53,1,自己,i,0.5455,,,,,,,,,,,,
,,,,,,,,,,,,,,1,001,2025-01-02_15h43.15.834,IAT(Formal),2021.2.3,Win32,142.8571429,,,,,,,,,,,,,,,,,,,,,,,,,,,,,,,,,,,,,,,,,,,,i,1,0,71,71,61,1,我的,i,0.4238,,,,,,,,,,,,
,,,,,,,,,,,,,,1,001,2025-01-02_15h43.15.834,IAT(Formal),2021.2.3,Win32,142.8571429,,,,,,,,,,,,,,,,,,,,,,,,,,,,,,,,,,,,,,,,,,,,i,1,0,72,72,31,1,虚伪,i,0.7715,,,,,,,,,,,,
,,,,,,,,,,,,,,1,001,2025-01-02_15h43.15.834,IAT(Formal),2021.2.3,Win32,142.8571429,,,,,,,,,,,,,,,,,,,,,,,,,,,,,,,,,,,,,,,,,,,,e,1,0,73,73,13,1,杰出,e,0.662,,,,,,,,,,,,
,,,,,,,,,,,,,,1,001,2025-01-02_15h43.15.834,IAT(Formal),2021.2.3,Win32,142.8571429,,,,,,,,,,,,,,,,,,,,,,,,,,,,,,,,,,,,,,,,,,,,i,1,0,74,74,54,1,俺,i,0.6058,,,,,,,,,,,,
,,,,,,,,,,,,,,1,001,2025-01-02_15h43.15.834,IAT(Formal),2021.2.3,Win32,142.8571429,,,,,,,,,,,,,,,,,,,,,,,,,,,,,,,,,,,,,,,,,,,,e,0,0,75,75,37,1,傲慢,i,0.8203,,,,,,,,,,,,
,,,,,,,,,,,,,,1,001,2025-01-02_15h43.15.834,IAT(Formal),2021.2.3,Win32,142.8571429,,,,,,,,,,,,,,,,,,,,,,,,,,,,,,,,,,,,,,,,,,,,e,1,0,76,76,57,1,他的,e,0.6133,,,,,,,,,,,,
,,,,,,,,,,,,,,1,001,2025-01-02_15h43.15.834,IAT(Formal),2021.2.3,Win32,142.8571429,,,,,,,,,,,,,,,,,,,,,,,,,,,,,,,,,,,,,,,,,,,,i,1,0,77,77,73,1,自己,i,0.578,,,,,,,,,,,,
,,,,,,,,,,,,,,1,001,2025-01-02_15h43.15.834,IAT(Formal),2021.2.3,Win32,142.8571429,,,,,,,,,,,,,,,,,,,,,,,,,,,,,,,,,,,,,,,,,,,,i,1,0,78,78,42,1,凶狠,i,0.9522,,,,,,,,,,,,
,,,,,,,,,,,,,,1,001,2025-01-02_15h43.15.834,IAT(Formal),2021.2.3,Win32,142.8571429,,,,,,,,,,,,,,,,,,,,,,,,,,,,,,,,,,,,,,,,,,,,i,1,0,79,79,47,1,固执,i,0.55,,,,,,,,,,,,
,,,,,,,,,,,,,,1,001,2025-01-02_15h43.15.834,IAT(Formal),2021.2.3,Win32,142.8571429,,,,,,,,,,,,,,,,,,,,,,,,,,,,,,,,,,,,,,,,,,,,,,,,,,,朴实,e,,space,6.3769,e,1,1.2144,0,0,0,24,1,,
,,,,,,,,,,,,,,1,001,2025-01-02_15h43.15.834,IAT(Formal),2021.2.3,Win32,142.8571429,,,,,,,,,,,,,,,,,,,,,,,,,,,,,,,,,,,,,,,,,,,,,,,,,,,他们,e,,,,e,1,0.4967,0,1,1,6,1,,
,,,,,,,,,,,,,,1,001,2025-01-02_15h43.15.834,IAT(Formal),2021.2.3,Win32,142.8571429,,,,,,,,,,,,,,,,,,,,,,,,,,,,,,,,,,,,,,,,,,,,,,,,,,,刻薄,i,,,,e,0,0.6665,0,2,2,33,1,,
,,,,,,,,,,,,,,1,001,2025-01-02_15h43.15.834,IAT(Formal),2021.2.3,Win32,142.8571429,,,,,,,,,,,,,,,,,,,,,,,,,,,,,,,,,,,,,,,,,,,,,,,,,,,我的,i,,,,i,1,0.6678,0,3,3,51,1,,
,,,,,,,,,,,,,,1,001,2025-01-02_15h43.15.834,IAT(Formal),2021.2.3,Win32,142.8571429,,,,,,,,,,,,,,,,,,,,,,,,,,,,,,,,,,,,,,,,,,,,,,,,,,,我的,i,,,,i,1,0.4179,0,4,4,1,1,,
,,,,,,,,,,,,,,1,001,2025-01-02_15h43.15.834,IAT(Formal),2021.2.3,Win32,142.8571429,,,,,,,,,,,,,,,,,,,,,,,,,,,,,,,,,,,,,,,,,,,,,,,,,,,俺,i,,,,i,1,0.6468,0,5,5,64,1,,
,,,,,,,,,,,,,,1,001,2025-01-02_15h43.15.834,IAT(Formal),2021.2.3,Win32,142.8571429,,,,,,,,,,,,,,,,,,,,,,,,,,,,,,,,,,,,,,,,,,,,,,,,,,,我的,i,,,,i,1,0.4242,0,6,6,71,1,,
,,,,,,,,,,,,,,1,001,2025-01-02_15h43.15.834,IAT(Formal),2021.2.3,Win32,142.8571429,,,,,,,,,,,,,,,,,,,,,,,,,,,,,,,,,,,,,,,,,,,,,,,,,,,悲观,i,,,,i,1,0.517,0,7,7,34,1,,
,,,,,,,,,,,,,,1,001,2025-01-02_15h43.15.834,IAT(Formal),2021.2.3,Win32,142.8571429,,,,,,,,,,,,,,,,,,,,,,,,,,,,,,,,,,,,,,,,,,,,,,,,,,,他,e,,,,e,1,1.0192,0,8,8,55,1,,
,,,,,,,,,,,,,,1,001,2025-01-02_15h43.15.834,IAT(Formal),2021.2.3,Win32,142.8571429,,,,,,,,,,,,,,,,,,,,,,,,,,,,,,,,,,,,,,,,,,,,,,,,,,,乐观,e,,,,i,0,0.5919,0,9,9,14,1,,
,,,,,,,,,,,,,,1,001,2025-01-02_15h43.15.834,IAT(Formal),2021.2.3,Win32,142.8571429,,,,,,,,,,,,,,,,,,,,,,,,,,,,,,,,,,,,,,,,,,,,,,,,,,,执拗,i,,,,i,1,0.6557,0,10,10,40,1,,
,,,,,,,,,,,,,,1,001,2025-01-02_15h43.15.834,IAT(Formal),2021.2.3,Win32,142.8571429,,,,,,,,,,,,,,,,,,,,,,,,,,,,,,,,,,,,,,,,,,,,,,,,,,,俺,i,,,,i,1,0.696,0,11,11,54,1,,
,,,,,,,,,,,,,,1,001,2025-01-02_15h43.15.834,IAT(Formal),2021.2.3,Win32,142.8571429,,,,,,,,,,,,,,,,,,,,,,,,,,,,,,,,,,,,,,,,,,,,,,,,,,,他的,e,,,,e,1,0.5488,0,12,12,57,1,,
,,,,,,,,,,,,,,1,001,2025-01-02_15h43.15.834,IAT(Formal),2021.2.3,Win32,142.8571429,,,,,,,,,,,,,,,,,,,,,,,,,,,,,,,,,,,,,,,,,,,,,,,,,,,我,i,,,,i,1,0.598,0,13,13,50,1,,
,,,,,,,,,,,,,,1,001,2025-01-02_15h43.15.834,IAT(Formal),2021.2.3,Win32,142.8571429,,,,,,,,,,,,,,,,,,,,,,,,,,,,,,,,,,,,,,,,,,,,,,,,,,,自己,i,,,,i,1,0.5071,0,14,14,53,1,,
,,,,,,,,,,,,,,1,001,2025-01-02_15h43.15.834,IAT(Formal),2021.2.3,Win32,142.8571429,,,,,,,,,,,,,,,,,,,,,,,,,,,,,,,,,,,,,,,,,,,,,,,,,,,我,i,,,,i,1,0.5446,0,15,15,70,1,,
,,,,,,,,,,,,,,1,001,2025-01-02_15h43.15.834,IAT(Formal),2021.2.3,Win32,142.8571429,,,,,,,,,,,,,,,,,,,,,,,,,,,,,,,,,,,,,,,,,,,,,,,,,,,聪明,e,,,,e,1,1.2119,0,16,16,12,1,,
,,,,,,,,,,,,,,1,001,2025-01-02_15h43.15.834,IAT(Formal),2021.2.3,Win32,142.8571429,,,,,,,,,,,,,,,,,,,,,,,,,,,,,,,,,,,,,,,,,,,,,,,,,,,俺,i,,,,i,1,0.6969,0,17,17,4,1,,
,,,,,,,,,,,,,,1,001,2025-01-02_15h43.15.834,IAT(Formal),2021.2.3,Win32,142.8571429,,,,,,,,,,,,,,,,,,,,,,,,,,,,,,,,,,,,,,,,,,,,,,,,,,,公正,e,,,,e,1,0.8691,0,18,18,23,1,,
,,,,,,,,,,,,,,1,001,2025-01-02_15h43.15.834,IAT(Formal),2021.2.3,Win32,142.8571429,,,,,,,,,,,,,,,,,,,,,,,,,,,,,,,,,,,,,,,,,,,,,,,,,,,勤奋,e,,,,e,1,0.5463,0,19,19,18,1,,
,,,,,,,,,,,,,,1,001,2025-01-02_15h43.15.834,IAT(Formal),2021.2.3,Win32,142.8571429,,,,,,,,,,,,,,,,,,,,,,,,,,,,,,,,,,,,,,,,,,,,,,,,,,,其他,e,,,,e,1,0.7661,0,20,20,69,1,,
,,,,,,,,,,,,,,1,001,2025-01-02_15h43.15.834,IAT(Formal),2021.2.3,Win32,142.8571429,,,,,,,,,,,,,,,,,,,,,,,,,,,,,,,,,,,,,,,,,,,,,,,,,,,诚实,e,,,,e,1,0.6305,0,21,21,15,1,,
,,,,,,,,,,,,,,1,001,2025-01-02_15h43.15.834,IAT(Formal),2021.2.3,Win32,142.8571429,,,,,,,,,,,,,,,,,,,,,,,,,,,,,,,,,,,,,,,,,,,,,,,,,,,其他,e,,,,e,1,0.5915,0,22,22,59,1,,
,,,,,,,,,,,,,,1,001,2025-01-02_15h43.15.834,IAT(Formal),2021.2.3,Win32,142.8571429,,,,,,,,,,,,,,,,,,,,,,,,,,,,,,,,,,,,,,,,,,,,,,,,,,,崇高,e,,,,e,1,0.5463,0,23,23,11,1,,
,,,,,,,,,,,,,,1,001,2025-01-02_15h43.15.834,IAT(Formal),2021.2.3,Win32,142.8571429,,,,,,,,,,,,,,,,,,,,,,,,,,,,,,,,,,,,,,,,,,,,,,,,,,,细腻,e,,,,e,1,0.8607,0,24,24,25,1,,
,,,,,,,,,,,,,,1,001,2025-01-02_15h43.15.834,IAT(Formal),2021.2.3,Win32,142.8571429,,,,,,,,,,,,,,,,,,,,,,,,,,,,,,,,,,,,,,,,,,,,,,,,,,,认真,e,,,,e,1,0.4699,0,25,25,20,1,,
,,,,,,,,,,,,,,1,001,2025-01-02_15h43.15.834,IAT(Formal),2021.2.3,Win32,142.8571429,,,,,,,,,,,,,,,,,,,,,,,,,,,,,,,,,,,,,,,,,,,,,,,,,,,俺,i,,,,i,1,0.6396,0,26,26,74,1,,
,,,,,,,,,,,,,,1,001,2025-01-02_15h43.15.834,IAT(Formal),2021.2.3,Win32,142.8571429,,,,,,,,,,,,,,,,,,,,,,,,,,,,,,,,,,,,,,,,,,,,,,,,,,,他,e,,,,e,1,0.5377,0,27,27,75,1,,
,,,,,,,,,,,,,,1,001,2025-01-02_15h43.15.834,IAT(Formal),2021.2.3,Win32,142.8571429,,,,,,,,,,,,,,,,,,,,,,,,,,,,,,,,,,,,,,,,,,,,,,,,,,,我们,i,,,,i,1,0.7054,0,28,28,2,1,,
,,,,,,,,,,,,,,1,001,2025-01-02_15h43.15.834,IAT(Formal),2021.2.3,Win32,142.8571429,,,,,,,,,,,,,,,,,,,,,,,,,,,,,,,,,,,,,,,,,,,,,,,,,,,冷静,e,,,,e,1,0.6321,0,29,29,26,1,,
,,,,,,,,,,,,,,1,001,2025-01-02_15h43.15.834,IAT(Formal),2021.2.3,Win32,142.8571429,,,,,,,,,,,,,,,,,,,,,,,,,,,,,,,,,,,,,,,,,,,,,,,,,,,杰出,e,,,,e,1,0.9315,0,30,30,13,1,,
,,,,,,,,,,,,,,1,001,2025-01-02_15h43.15.834,IAT(Formal),2021.2.3,Win32,142.8571429,,,,,,,,,,,,,,,,,,,,,,,,,,,,,,,,,,,,,,,,,,,,,,,,,,,他的,e,,,,e,1,0.9106,0,31,31,7,1,,
,,,,,,,,,,,,,,1,001,2025-01-02_15h43.15.834,IAT(Formal),2021.2.3,Win32,142.8571429,,,,,,,,,,,,,,,,,,,,,,,,,,,,,,,,,,,,,,,,,,,,,,,,,,,鲁莽,i,,,,i,1,1.0011,0,32,32,38,1,,
,,,,,,,,,,,,,,1,001,2025-01-02_15h43.15.834,IAT(Formal),2021.2.3,Win32,142.8571429,,,,,,,,,,,,,,,,,,,,,,,,,,,,,,,,,,,,,,,,,,,,,,,,,,,我们,i,,,,i,1,0.3689,0,33,33,52,1,,
,,,,,,,,,,,,,,1,001,2025-01-02_15h43.15.834,IAT(Formal),2021.2.3,Win32,142.8571429,,,,,,,,,,,,,,,,,,,,,,,,,,,,,,,,,,,,,,,,,,,,,,,,,,,机智,e,,,,i,0,0.5435,0,34,34,19,1,,
,,,,,,,,,,,,,,1,001,2025-01-02_15h43.15.834,IAT(Formal),2021.2.3,Win32,142.8571429,,,,,,,,,,,,,,,,,,,,,,,,,,,,,,,,,,,,,,,,,,,,,,,,,,,散漫,i,,,,i,1,0.5765,0,35,35,41,1,,
,,,,,,,,,,,,,,1,001,2025-01-02_15h43.15.834,IAT(Formal),2021.2.3,Win32,142.8571429,,,,,,,,,,,,,,,,,,,,,,,,,,,,,,,,,,,,,,,,,,,,,,,,,,,稳重,e,,,,e,1,0.6743,0,36,36,21,1,,
,,,,,,,,,,,,,,1,001,2025-01-02_15h43.15.834,IAT(Formal),2021.2.3,Win32,142.8571429,,,,,,,,,,,,,,,,,,,,,,,,,,,,,,,,,,,,,,,,,,,,,,,,,,,他,e,,,,e,1,0.6114,0,37,37,65,1,,
,,,,,,,,,,,,,,1,001,2025-01-02_15h43.15.834,IAT(Formal),2021.2.3,Win32,142.8571429,,,,,,,,,,,,,,,,,,,,,,,,,,,,,,,,,,,,,,,,,,,,,,,,,,,凶狠,i,,,,i,1,0.5637,0,38,38,42,1,,
,,,,,,,,,,,,,,1,001,2025-01-02_15h43.15.834,IAT(Formal),2021.2.3,Win32,142.8571429,,,,,,,,,,,,,,,,,,,,,,,,,,,,,,,,,,,,,,,,,,,,,,,,,,,其他,e,,,,e,1,0.5561,0,39,39,9,1,,
,,,,,,,,,,,,,,1,001,2025-01-02_15h43.15.834,IAT(Formal),2021.2.3,Win32,142.8571429,,,,,,,,,,,,,,,,,,,,,,,,,,,,,,,,,,,,,,,,,,,,,,,,,,,他人,e,,,,e,1,1.3037,0,40,40,58,1,,
,,,,,,,,,,,,,,1,001,2025-01-02_15h43.15.834,IAT(Formal),2021.2.3,Win32,142.8571429,,,,,,,,,,,,,,,,,,,,,,,,,,,,,,,,,,,,,,,,,,,,,,,,,,,消极,i,,,,i,1,1.0616,0,41,41,35,1,,
,,,,,,,,,,,,,,1,001,2025-01-02_15h43.15.834,IAT(Formal),2021.2.3,Win32,142.8571429,,,,,,,,,,,,,,,,,,,,,,,,,,,,,,,,,,,,,,,,,,,,,,,,,,,暴躁,i,,,,i,1,0.4934,0,42,42,44,1,,
,,,,,,,,,,,,,,1,001,2025-01-02_15h43.15.834,IAT(Formal),2021.2.3,Win32,142.8571429,,,,,,,,,,,,,,,,,,,,,,,,,,,,,,,,,,,,,,,,,,,,,,,,,,,固执,i,,,,i,1,0.5487,0,43,43,47,1,,
,,,,,,,,,,,,,,1,001,2025-01-02_15h43.15.834,IAT(Formal),2021.2.3,Win32,142.8571429,,,,,,,,,,,,,,,,,,,,,,,,,,,,,,,,,,,,,,,,,,,,,,,,,,,我,i,,,,i,1,0.3878,0,44,44,0,1,,
,,,,,,,,,,,,,,1,001,2025-01-02_15h43.15.834,IAT(Formal),2021.2.3,Win32,142.8571429,,,,,,,,,,,,,,,,,,,,,,,,,,,,,,,,,,,,,,,,,,,,,,,,,,,他们,e,,,,e,1,0.6264,0,45,45,76,1,,
,,,,,,,,,,,,,,1,001,2025-01-02_15h43.15.834,IAT(Formal),2021.2.3,Win32,142.8571429,,,,,,,,,,,,,,,,,,,,,,,,,,,,,,,,,,,,,,,,,,,,,,,,,,,优秀,e,,,,e,1,0.78,0,46,46,10,1,,
,,,,,,,,,,,,,,1,001,2025-01-02_15h43.15.834,IAT(Formal),2021.2.3,Win32,142.8571429,,,,,,,,,,,,,,,,,,,,,,,,,,,,,,,,,,,,,,,,,,,,,,,,,,,自己,i,,,,e,0,0.4479,0,47,47,73,1,,
,,,,,,,,,,,,,,1,001,2025-01-02_15h43.15.834,IAT(Formal),2021.2.3,Win32,142.8571429,,,,,,,,,,,,,,,,,,,,,,,,,,,,,,,,,,,,,,,,,,,,,,,,,,,正直,e,,,,e,1,1.1189,0,48,48,16,1,,
,,,,,,,,,,,,,,1,001,2025-01-02_15h43.15.834,IAT(Formal),2021.2.3,Win32,142.8571429,,,,,,,,,,,,,,,,,,,,,,,,,,,,,,,,,,,,,,,,,,,,,,,,,,,虚伪,i,,,,i,1,0.7666,0,49,49,31,1,,
,,,,,,,,,,,,,,1,001,2025-01-02_15h43.15.834,IAT(Formal),2021.2.3,Win32,142.8571429,,,,,,,,,,,,,,,,,,,,,,,,,,,,,,,,,,,,,,,,,,,,,,,,,,,诚恳,e,,,,e,1,0.7518,0,50,50,29,1,,
,,,,,,,,,,,,,,1,001,2025-01-02_15h43.15.834,IAT(Formal),2021.2.3,Win32,142.8571429,,,,,,,,,,,,,,,,,,,,,,,,,,,,,,,,,,,,,,,,,,,,,,,,,,,野蛮,i,,,,i,1,1.3201,0,51,51,46,1,,
,,,,,,,,,,,,,,1,001,2025-01-02_15h43.15.834,IAT(Formal),2021.2.3,Win32,142.8571429,,,,,,,,,,,,,,,,,,,,,,,,,,,,,,,,,,,,,,,,,,,,,,,,,,,猖狂,i,,,,i,1,1.3378,0,52,52,45,1,,
,,,,,,,,,,,,,,1,001,2025-01-02_15h43.15.834,IAT(Formal),2021.2.3,Win32,142.8571429,,,,,,,,,,,,,,,,,,,,,,,,,,,,,,,,,,,,,,,,,,,,,,,,,,,我,i,,,,i,1,0.4458,0,53,53,60,1,,
,,,,,,,,,,,,,,1,001,2025-01-02_15h43.15.834,IAT(Formal),2021.2.3,Win32,142.8571429,,,,,,,,,,,,,,,,,,,,,,,,,,,,,,,,,,,,,,,,,,,,,,,,,,,下贱,i,,,,i,1,0.4868,0,54,54,49,1,,
,,,,,,,,,,,,,,1,001,2025-01-02_15h43.15.834,IAT(Formal),2021.2.3,Win32,142.8571429,,,,,,,,,,,,,,,,,,,,,,,,,,,,,,,,,,,,,,,,,,,,,,,,,,,冒失,i,,,,i,1,0.6398,0,55,55,39,1,,
,,,,,,,,,,,,,,1,001,2025-01-02_15h43.15.834,IAT(Formal),2021.2.3,Win32,142.8571429,,,,,,,,,,,,,,,,,,,,,,,,,,,,,,,,,,,,,,,,,,,,,,,,,,,他们,e,,,,e,1,0.5505,0,56,56,66,1,,
,,,,,,,,,,,,,,1,001,2025-01-02_15h43.15.834,IAT(Formal),2021.2.3,Win32,142.8571429,,,,,,,,,,,,,,,,,,,,,,,,,,,,,,,,,,,,,,,,,,,,,,,,,,,他,e,,,,e,1,0.5044,0,57,57,5,1,,
,,,,,,,,,,,,,,1,001,2025-01-02_15h43.15.834,IAT(Formal),2021.2.3,Win32,142.8571429,,,,,,,,,,,,,,,,,,,,,,,,,,,,,,,,,,,,,,,,,,,,,,,,,,,他们,e,,,,e,1,0.4524,0,58,58,56,1,,
,,,,,,,,,,,,,,1,001,2025-01-02_15h43.15.834,IAT(Formal),2021.2.3,Win32,142.8571429,,,,,,,,,,,,,,,,,,,,,,,,,,,,,,,,,,,,,,,,,,,,,,,,,,,他人,e,,,,e,1,0.4118,0,59,59,68,1,,
,,,,,,,,,,,,,,1,001,2025-01-02_15h43.15.834,IAT(Formal),2021.2.3,Win32,142.8571429,,,,,,,,,,,,,,,,,,,,,,,,,,,,,,,,,,,,,,,,,,,,,,,,,,,轻率,i,,,,i,1,0.7989,0,60,60,48,1,,
,,,,,,,,,,,,,,1,001,2025-01-02_15h43.15.834,IAT(Formal),2021.2.3,Win32,142.8571429,,,,,,,,,,,,,,,,,,,,,,,,,,,,,,,,,,,,,,,,,,,,,,,,,,,他人,e,,,,e,1,0.6258,0,61,61,8,1,,
,,,,,,,,,,,,,,1,001,2025-01-02_15h43.15.834,IAT(Formal),2021.2.3,Win32,142.8571429,,,,,,,,,,,,,,,,,,,,,,,,,,,,,,,,,,,,,,,,,,,,,,,,,,,我们,i,,,,i,1,1.1444,0,62,62,62,1,,
,,,,,,,,,,,,,,1,001,2025-01-02_15h43.15.834,IAT(Formal),2021.2.3,Win32,142.8571429,,,,,,,,,,,,,,,,,,,,,,,,,,,,,,,,,,,,,,,,,,,,,,,,,,,自私,i,,,,i,1,0.9827,0,63,63,43,1,,
,,,,,,,,,,,,,,1,001,2025-01-02_15h43.15.834,IAT(Formal),2021.2.3,Win32,142.8571429,,,,,,,,,,,,,,,,,,,,,,,,,,,,,,,,,,,,,,,,,,,,,,,,,,,他的,e,,,,e,1,0.5788,0,64,64,77,1,,
,,,,,,,,,,,,,,1,001,2025-01-02_15h43.15.834,IAT(Formal),2021.2.3,Win32,142.8571429,,,,,,,,,,,,,,,,,,,,,,,,,,,,,,,,,,,,,,,,,,,,,,,,,,,勇敢,e,,,,i,0,1.3937,0,65,65,17,1,,
,,,,,,,,,,,,,,1,001,2025-01-02_15h43.15.834,IAT(Formal),2021.2.3,Win32,142.8571429,,,,,,,,,,,,,,,,,,,,,,,,,,,,,,,,,,,,,,,,,,,,,,,,,,,无私,e,,,,i,0,0.4755,0,66,66,22,1,,
,,,,,,,,,,,,,,1,001,2025-01-02_15h43.15.834,IAT(Formal),2021.2.3,Win32,142.8571429,,,,,,,,,,,,,,,,,,,,,,,,,,,,,,,,,,,,,,,,,,,,,,,,,,,卑鄙,i,,,,i,1,0.6553,0,67,67,30,1,,
,,,,,,,,,,,,,,1,001,2025-01-02_15h43.15.834,IAT(Formal),2021.2.3,Win32,142.8571429,,,,,,,,,,,,,,,,,,,,,,,,,,,,,,,,,,,,,,,,,,,,,,,,,,,我们,i,,,,i,1,0.5306,0,68,68,72,1,,
,,,,,,,,,,,,,,1,001,2025-01-02_15h43.15.834,IAT(Formal),2021.2.3,Win32,142.8571429,,,,,,,,,,,,,,,,,,,,,,,,,,,,,,,,,,,,,,,,,,,,,,,,,,,他的,e,,,,e,1,0.495,0,69,69,67,1,,
,,,,,,,,,,,,,,1,001,2025-01-02_15h43.15.834,IAT(Formal),2021.2.3,Win32,142.8571429,,,,,,,,,,,,,,,,,,,,,,,,,,,,,,,,,,,,,,,,,,,,,,,,,,,他人,e,,,,e,1,0.4912,0,70,70,78,1,,
,,,,,,,,,,,,,,1,001,2025-01-02_15h43.15.834,IAT(Formal),2021.2.3,Win32,142.8571429,,,,,,,,,,,,,,,,,,,,,,,,,,,,,,,,,,,,,,,,,,,,,,,,,,,我的,i,,,,i,1,0.7648,0,71,71,61,1,,
,,,,,,,,,,,,,,1,001,2025-01-02_15h43.15.834,IAT(Formal),2021.2.3,Win32,142.8571429,,,,,,,,,,,,,,,,,,,,,,,,,,,,,,,,,,,,,,,,,,,,,,,,,,,其他,e,,,,e,1,0.654,0,72,72,79,1,,
,,,,,,,,,,,,,,1,001,2025-01-02_15h43.15.834,IAT(Formal),2021.2.3,Win32,142.8571429,,,,,,,,,,,,,,,,,,,,,,,,,,,,,,,,,,,,,,,,,,,,,,,,,,,活泼,e,,,,e,1,0.9034,0,73,73,28,1,,
,,,,,,,,,,,,,,1,001,2025-01-02_15h43.15.834,IAT(Formal),2021.2.3,Win32,142.8571429,,,,,,,,,,,,,,,,,,,,,,,,,,,,,,,,,,,,,,,,,,,,,,,,,,,自卑,i,,,,i,1,1.4543,0,74,74,36,1,,
,,,,,,,,,,,,,,1,001,2025-01-02_15h43.15.834,IAT(Formal),2021.2.3,Win32,142.8571429,,,,,,,,,,,,,,,,,,,,,,,,,,,,,,,,,,,,,,,,,,,,,,,,,,,热情,e,,,,e,1,0.564,0,75,75,27,1,,
,,,,,,,,,,,,,,1,001,2025-01-02_15h43.15.834,IAT(Formal),2021.2.3,Win32,142.8571429,,,,,,,,,,,,,,,,,,,,,,,,,,,,,,,,,,,,,,,,,,,,,,,,,,,愚蠢,i,,,,i,1,0.6828,0,76,76,32,1,,
,,,,,,,,,,,,,,1,001,2025-01-02_15h43.15.834,IAT(Formal),2021.2.3,Win32,142.8571429,,,,,,,,,,,,,,,,,,,,,,,,,,,,,,,,,,,,,,,,,,,,,,,,,,,傲慢,i,,,,i,1,1.0036,0,77,77,37,1,,
,,,,,,,,,,,,,,1,001,2025-01-02_15h43.15.834,IAT(Formal),2021.2.3,Win32,142.8571429,,,,,,,,,,,,,,,,,,,,,,,,,,,,,,,,,,,,,,,,,,,,,,,,,,,自己,i,,,,i,1,1.1049,0,78,78,3,1,,
,,,,,,,,,,,,,,1,001,2025-01-02_15h43.15.834,IAT(Formal),2021.2.3,Win32,142.8571429,,,,,,,,,,,,,,,,,,,,,,,,,,,,,,,,,,,,,,,,,,,,,,,,,,,自己,i,,,,i,1,0.5282,0,79,79,63,1,,
,,,,,,,,,,,,,,1,001,2025-01-02_15h43.15.834,IAT(Formal),2021.2.3,Win32,142.8571429,,,,,,,,,,,,,,,,,,,,,,,,,,,,,,,,,,,,,,,,,,,,,,,,,,,崇高,e,,,,e,1,0.8564,1,0,80,11,1,,
,,,,,,,,,,,,,,1,001,2025-01-02_15h43.15.834,IAT(Formal),2021.2.3,Win32,142.8571429,,,,,,,,,,,,,,,,,,,,,,,,,,,,,,,,,,,,,,,,,,,,,,,,,,,散漫,i,,,,,0,,1,1,81,41,1,,
,,,,,,,,,,,,,,1,001,2025-01-02_15h43.15.834,IAT(Formal),2021.2.3,Win32,142.8571429,,,,,,,,,,,,,,,,,,,,,,,,,,,,,,,,,,,,,,,,,,,,,,,,,,,公正,e,,,,e,1,0.5441,1,2,82,23,1,,
,,,,,,,,,,,,,,1,001,2025-01-02_15h43.15.834,IAT(Formal),2021.2.3,Win32,142.8571429,,,,,,,,,,,,,,,,,,,,,,,,,,,,,,,,,,,,,,,,,,,,,,,,,,,我的,i,,,,i,1,0.6258,1,3,83,51,1,,
,,,,,,,,,,,,,,1,001,2025-01-02_15h43.15.834,IAT(Formal),2021.2.3,Win32,142.8571429,,,,,,,,,,,,,,,,,,,,,,,,,,,,,,,,,,,,,,,,,,,,,,,,,,,暴躁,i,,,,i,1,0.4823,1,4,84,44,1,,
,,,,,,,,,,,,,,1,001,2025-01-02_15h43.15.834,IAT(Formal),2021.2.3,Win32,142.8571429,,,,,,,,,,,,,,,,,,,,,,,,,,,,,,,,,,,,,,,,,,,,,,,,,,,机智,e,,,,e,1,0.837,1,5,85,19,1,,
,,,,,,,,,,,,,,1,001,2025-01-02_15h43.15.834,IAT(Formal),2021.2.3,Win32,142.8571429,,,,,,,,,,,,,,,,,,,,,,,,,,,,,,,,,,,,,,,,,,,,,,,,,,,优秀,e,,,,e,1,0.7107,1,6,86,10,1,,
,,,,,,,,,,,,,,1,001,2025-01-02_15h43.15.834,IAT(Formal),2021.2.3,Win32,142.8571429,,,,,,,,,,,,,,,,,,,,,,,,,,,,,,,,,,,,,,,,,,,,,,,,,,,他们,e,,,,e,1,0.7652,1,7,87,76,1,,
,,,,,,,,,,,,,,1,001,2025-01-02_15h43.15.834,IAT(Formal),2021.2.3,Win32,142.8571429,,,,,,,,,,,,,,,,,,,,,,,,,,,,,,,,,,,,,,,,,,,,,,,,,,,自己,i,,,,i,1,0.5844,1,8,88,63,1,,
,,,,,,,,,,,,,,1,001,2025-01-02_15h43.15.834,IAT(Formal),2021.2.3,Win32,142.8571429,,,,,,,,,,,,,,,,,,,,,,,,,,,,,,,,,,,,,,,,,,,,,,,,,,,悲观,i,,,,i,1,0.911,1,9,89,34,1,,
,,,,,,,,,,,,,,1,001,2025-01-02_15h43.15.834,IAT(Formal),2021.2.3,Win32,142.8571429,,,,,,,,,,,,,,,,,,,,,,,,,,,,,,,,,,,,,,,,,,,,,,,,,,,执拗,i,,,,i,1,0.533,1,10,90,40,1,,
,,,,,,,,,,,,,,1,001,2025-01-02_15h43.15.834,IAT(Formal),2021.2.3,Win32,142.8571429,,,,,,,,,,,,,,,,,,,,,,,,,,,,,,,,,,,,,,,,,,,,,,,,,,,冷静,e,,,,e,1,1.0487,1,11,91,26,1,,
,,,,,,,,,,,,,,1,001,2025-01-02_15h43.15.834,IAT(Formal),2021.2.3,Win32,142.8571429,,,,,,,,,,,,,,,,,,,,,,,,,,,,,,,,,,,,,,,,,,,,,,,,,,,俺,i,,,,e,0,0.4118,1,12,92,64,1,,
,,,,,,,,,,,,,,1,001,2025-01-02_15h43.15.834,IAT(Formal),2021.2.3,Win32,142.8571429,,,,,,,,,,,,,,,,,,,,,,,,,,,,,,,,,,,,,,,,,,,,,,,,,,,我,i,,,,i,1,0.6128,1,13,93,70,1,,
,,,,,,,,,,,,,,1,001,2025-01-02_15h43.15.834,IAT(Formal),2021.2.3,Win32,142.8571429,,,,,,,,,,,,,,,,,,,,,,,,,,,,,,,,,,,,,,,,,,,,,,,,,,,我,i,,,,i,1,0.5434,1,14,94,50,1,,
,,,,,,,,,,,,,,1,001,2025-01-02_15h43.15.834,IAT(Formal),2021.2.3,Win32,142.8571429,,,,,,,,,,,,,,,,,,,,,,,,,,,,,,,,,,,,,,,,,,,,,,,,,,,他,e,,,,e,1,0.5038,1,15,95,65,1,,
,,,,,,,,,,,,,,1,001,2025-01-02_15h43.15.834,IAT(Formal),2021.2.3,Win32,142.8571429,,,,,,,,,,,,,,,,,,,,,,,,,,,,,,,,,,,,,,,,,,,,,,,,,,,我,i,,,,i,1,0.5007,1,16,96,60,1,,
,,,,,,,,,,,,,,1,001,2025-01-02_15h43.15.834,IAT(Formal),2021.2.3,Win32,142.8571429,,,,,,,,,,,,,,,,,,,,,,,,,,,,,,,,,,,,,,,,,,,,,,,,,,,俺,i,,,,e,0,0.6255,1,17,97,54,1,,
,,,,,,,,,,,,,,1,001,2025-01-02_15h43.15.834,IAT(Formal),2021.2.3,Win32,142.8571429,,,,,,,,,,,,,,,,,,,,,,,,,,,,,,,,,,,,,,,,,,,,,,,,,,,轻率,i,,,,i,1,1.08,1,18,98,48,1,,
,,,,,,,,,,,,,,1,001,2025-01-02_15h43.15.834,IAT(Formal),2021.2.3,Win32,142.8571429,,,,,,,,,,,,,,,,,,,,,,,,,,,,,,,,,,,,,,,,,,,,,,,,,,,他人,e,,,,e,1,0.6296,1,19,99,68,1,,
,,,,,,,,,,,,,,1,001,2025-01-02_15h43.15.834,IAT(Formal),2021.2.3,Win32,142.8571429,,,,,,,,,,,,,,,,,,,,,,,,,,,,,,,,,,,,,,,,,,,,,,,,,,,自己,i,,,,i,1,0.5356,1,20,100,73,1,,
,,,,,,,,,,,,,,1,001,2025-01-02_15h43.15.834,IAT(Formal),2021.2.3,Win32,142.8571429,,,,,,,,,,,,,,,,,,,,,,,,,,,,,,,,,,,,,,,,,,,,,,,,,,,自私,i,,,,i,1,1.2086,1,21,101,43,1,,
,,,,,,,,,,,,,,1,001,2025-01-02_15h43.15.834,IAT(Formal),2021.2.3,Win32,142.8571429,,,,,,,,,,,,,,,,,,,,,,,,,,,,,,,,,,,,,,,,,,,,,,,,,,,朴实,e,,,,e,1,0.717,1,22,102,24,1,,
,,,,,,,,,,,,,,1,001,2025-01-02_15h43.15.834,IAT(Formal),2021.2.3,Win32,142.8571429,,,,,,,,,,,,,,,,,,,,,,,,,,,,,,,,,,,,,,,,,,,,,,,,,,,他人,e,,,,e,1,0.6135,1,23,103,8,1,,
,,,,,,,,,,,,,,1,001,2025-01-02_15h43.15.834,IAT(Formal),2021.2.3,Win32,142.8571429,,,,,,,,,,,,,,,,,,,,,,,,,,,,,,,,,,,,,,,,,,,,,,,,,,,我的,i,,,,i,1,0.5259,1,24,104,1,1,,
,,,,,,,,,,,,,,1,001,2025-01-02_15h43.15.834,IAT(Formal),2021.2.3,Win32,142.8571429,,,,,,,,,,,,,,,,,,,,,,,,,,,,,,,,,,,,,,,,,,,,,,,,,,,俺,i,,,,e,0,0.5849,1,25,105,74,1,,
,,,,,,,,,,,,,,1,001,2025-01-02_15h43.15.834,IAT(Formal),2021.2.3,Win32,142.8571429,,,,,,,,,,,,,,,,,,,,,,,,,,,,,,,,,,,,,,,,,,,,,,,,,,,固执,i,,,,i,1,0.7037,1,26,106,47,1,,
,,,,,,,,,,,,,,1,001,2025-01-02_15h43.15.834,IAT(Formal),2021.2.3,Win32,142.8571429,,,,,,,,,,,,,,,,,,,,,,,,,,,,,,,,,,,,,,,,,,,,,,,,,,,冒失,i,,,,i,1,0.4904,1,27,107,39,1,,
,,,,,,,,,,,,,,1,001,2025-01-02_15h43.15.834,IAT(Formal),2021.2.3,Win32,142.8571429,,,,,,,,,,,,,,,,,,,,,,,,,,,,,,,,,,,,,,,,,,,,,,,,,,,我们,i,,,,i,1,0.6961,1,28,108,2,1,,
,,,,,,,,,,,,,,1,001,2025-01-02_15h43.15.834,IAT(Formal),2021.2.3,Win32,142.8571429,,,,,,,,,,,,,,,,,,,,,,,,,,,,,,,,,,,,,,,,,,,,,,,,,,,我们,i,,,,i,1,0.4526,1,29,109,52,1,,
,,,,,,,,,,,,,,1,001,2025-01-02_15h43.15.834,IAT(Formal),2021.2.3,Win32,142.8571429,,,,,,,,,,,,,,,,,,,,,,,,,,,,,,,,,,,,,,,,,,,,,,,,,,,勇敢,e,,,,i,0,0.6683,1,30,110,17,1,,
,,,,,,,,,,,,,,1,001,2025-01-02_15h43.15.834,IAT(Formal),2021.2.3,Win32,142.8571429,,,,,,,,,,,,,,,,,,,,,,,,,,,,,,,,,,,,,,,,,,,,,,,,,,,杰出,e,,,,e,1,0.4938,1,31,111,13,1,,
,,,,,,,,,,,,,,1,001,2025-01-02_15h43.15.834,IAT(Formal),2021.2.3,Win32,142.8571429,,,,,,,,,,,,,,,,,,,,,,,,,,,,,,,,,,,,,,,,,,,,,,,,,,,下贱,i,,,,i,1,0.7341,1,32,112,49,1,,
,,,,,,,,,,,,,,1,001,2025-01-02_15h43.15.834,IAT(Formal),2021.2.3,Win32,142.8571429,,,,,,,,,,,,,,,,,,,,,,,,,,,,,,,,,,,,,,,,,,,,,,,,,,,他,e,,,,e,1,0.6992,1,33,113,5,1,,
,,,,,,,,,,,,,,1,001,2025-01-02_15h43.15.834,IAT(Formal),2021.2.3,Win32,142.8571429,,,,,,,,,,,,,,,,,,,,,,,,,,,,,,,,,,,,,,,,,,,,,,,,,,,他们,e,,,,e,1,0.5033,1,34,114,56,1,,
,,,,,,,,,,,,,,1,001,2025-01-02_15h43.15.834,IAT(Formal),2021.2.3,Win32,142.8571429,,,,,,,,,,,,,,,,,,,,,,,,,,,,,,,,,,,,,,,,,,,,,,,,,,,他的,e,,,,e,1,0.463,1,35,115,7,1,,
,,,,,,,,,,,,,,1,001,2025-01-02_15h43.15.834,IAT(Formal),2021.2.3,Win32,142.8571429,,,,,,,,,,,,,,,,,,,,,,,,,,,,,,,,,,,,,,,,,,,,,,,,,,,自己,i,,,,i,1,0.5074,1,36,116,3,1,,
,,,,,,,,,,,,,,1,001,2025-01-02_15h43.15.834,IAT(Formal),2021.2.3,Win32,142.8571429,,,,,,,,,,,,,,,,,,,,,,,,,,,,,,,,,,,,,,,,,,,,,,,,,,,我的,i,,,,e,0,0.6283,1,37,117,61,1,,
,,,,,,,,,,,,,,1,001,2025-01-02_15h43.15.834,IAT(Formal),2021.2.3,Win32,142.8571429,,,,,,,,,,,,,,,,,,,,,,,,,,,,,,,,,,,,,,,,,,,,,,,,,,,我的,i,,,,i,1,0.6389,1,38,118,71,1,,
,,,,,,,,,,,,,,1,001,2025-01-02_15h43.15.834,IAT(Formal),2021.2.3,Win32,142.8571429,,,,,,,,,,,,,,,,,,,,,,,,,,,,,,,,,,,,,,,,,,,,,,,,,,,卑鄙,i,,,,i,1,0.7898,1,39,119,30,1,,
,,,,,,,,,,,,,,1,001,2025-01-02_15h43.15.834,IAT(Formal),2021.2.3,Win32,142.8571429,,,,,,,,,,,,,,,,,,,,,,,,,,,,,,,,,,,,,,,,,,,,,,,,,,,凶狠,i,,,,i,1,0.5082,1,40,120,42,1,,
,,,,,,,,,,,,,,1,001,2025-01-02_15h43.15.834,IAT(Formal),2021.2.3,Win32,142.8571429,,,,,,,,,,,,,,,,,,,,,,,,,,,,,,,,,,,,,,,,,,,,,,,,,,,我,i,,,,i,1,0.6487,1,41,121,0,1,,
,,,,,,,,,,,,,,1,001,2025-01-02_15h43.15.834,IAT(Formal),2021.2.3,Win32,142.8571429,,,,,,,,,,,,,,,,,,,,,,,,,,,,,,,,,,,,,,,,,,,,,,,,,,,刻薄,i,,,,i,1,0.8506,1,42,122,33,1,,
,,,,,,,,,,,,,,1,001,2025-01-02_15h43.15.834,IAT(Formal),2021.2.3,Win32,142.8571429,,,,,,,,,,,,,,,,,,,,,,,,,,,,,,,,,,,,,,,,,,,,,,,,,,,他,e,,,,e,1,0.6254,1,43,123,75,1,,
,,,,,,,,,,,,,,1,001,2025-01-02_15h43.15.834,IAT(Formal),2021.2.3,Win32,142.8571429,,,,,,,,,,,,,,,,,,,,,,,,,,,,,,,,,,,,,,,,,,,,,,,,,,,他们,e,,,,e,1,0.5507,1,44,124,66,1,,
,,,,,,,,,,,,,,1,001,2025-01-02_15h43.15.834,IAT(Formal),2021.2.3,Win32,142.8571429,,,,,,,,,,,,,,,,,,,,,,,,,,,,,,,,,,,,,,,,,,,,,,,,,,,他们,e,,,,e,1,0.4244,1,45,125,6,1,,
,,,,,,,,,,,,,,1,001,2025-01-02_15h43.15.834,IAT(Formal),2021.2.3,Win32,142.8571429,,,,,,,,,,,,,,,,,,,,,,,,,,,,,,,,,,,,,,,,,,,,,,,,,,,虚伪,i,,,,e,0,0.5255,1,46,126,31,1,,
,,,,,,,,,,,,,,1,001,2025-01-02_15h43.15.834,IAT(Formal),2021.2.3,Win32,142.8571429,,,,,,,,,,,,,,,,,,,,,,,,,,,,,,,,,,,,,,,,,,,,,,,,,,,他人,e,,,,e,1,0.4803,1,47,127,58,1,,
,,,,,,,,,,,,,,1,001,2025-01-02_15h43.15.834,IAT(Formal),2021.2.3,Win32,142.8571429,,,,,,,,,,,,,,,,,,,,,,,,,,,,,,,,,,,,,,,,,,,,,,,,,,,他,e,,,,e,1,0.4112,1,48,128,55,1,,
,,,,,,,,,,,,,,1,001,2025-01-02_15h43.15.834,IAT(Formal),2021.2.3,Win32,142.8571429,,,,,,,,,,,,,,,,,,,,,,,,,,,,,,,,,,,,,,,,,,,,,,,,,,,野蛮,i,,,,i,1,0.6161,1,49,129,46,1,,
,,,,,,,,,,,,,,1,001,2025-01-02_15h43.15.834,IAT(Formal),2021.2.3,Win32,142.8571429,,,,,,,,,,,,,,,,,,,,,,,,,,,,,,,,,,,,,,,,,,,,,,,,,,,稳重,e,,,,,0,,1,50,130,21,1,,
,,,,,,,,,,,,,,1,001,2025-01-02_15h43.15.834,IAT(Formal),2021.2.3,Win32,142.8571429,,,,,,,,,,,,,,,,,,,,,,,,,,,,,,,,,,,,,,,,,,,,,,,,,,,自卑,i,,,,i,1,1.0772,1,51,131,36,1,,
,,,,,,,,,,,,,,1,001,2025-01-02_15h43.15.834,IAT(Formal),2021.2.3,Win32,142.8571429,,,,,,,,,,,,,,,,,,,,,,,,,,,,,,,,,,,,,,,,,,,,,,,,,,,其他,e,,,,e,1,0.7258,1,52,132,69,1,,
,,,,,,,,,,,,,,1,001,2025-01-02_15h43.15.834,IAT(Formal),2021.2.3,Win32,142.8571429,,,,,,,,,,,,,,,,,,,,,,,,,,,,,,,,,,,,,,,,,,,,,,,,,,,他的,e,,,,e,1,0.5183,1,53,133,67,1,,
,,,,,,,,,,,,,,1,001,2025-01-02_15h43.15.834,IAT(Formal),2021.2.3,Win32,142.8571429,,,,,,,,,,,,,,,,,,,,,,,,,,,,,,,,,,,,,,,,,,,,,,,,,,,认真,e,,,,i,0,0.7877,1,54,134,20,1,,
,,,,,,,,,,,,,,1,001,2025-01-02_15h43.15.834,IAT(Formal),2021.2.3,Win32,142.8571429,,,,,,,,,,,,,,,,,,,,,,,,,,,,,,,,,,,,,,,,,,,,,,,,,,,愚蠢,i,,,,i,1,0.8058,1,55,135,32,1,,
,,,,,,,,,,,,,,1,001,2025-01-02_15h43.15.834,IAT(Formal),2021.2.3,Win32,142.8571429,,,,,,,,,,,,,,,,,,,,,,,,,,,,,,,,,,,,,,,,,,,,,,,,,,,自己,i,,,,i,1,0.5787,1,56,136,53,1,,
,,,,,,,,,,,,,,1,001,2025-01-02_15h43.15.834,IAT(Formal),2021.2.3,Win32,142.8571429,,,,,,,,,,,,,,,,,,,,,,,,,,,,,,,,,,,,,,,,,,,,,,,,,,,消极,i,,,,,0,,1,57,137,35,1,,
,,,,,,,,,,,,,,1,001,2025-01-02_15h43.15.834,IAT(Formal),2021.2.3,Win32,142.8571429,,,,,,,,,,,,,,,,,,,,,,,,,,,,,,,,,,,,,,,,,,,,,,,,,,,傲慢,i,,,,i,1,0.5772,1,58,138,37,1,,
,,,,,,,,,,,,,,1,001,2025-01-02_15h43.15.834,IAT(Formal),2021.2.3,Win32,142.8571429,,,,,,,,,,,,,,,,,,,,,,,,,,,,,,,,,,,,,,,,,,,,,,,,,,,他的,e,,,,e,1,0.691,1,59,139,57,1,,
,,,,,,,,,,,,,,1,001,2025-01-02_15h43.15.834,IAT(Formal),2021.2.3,Win32,142.8571429,,,,,,,,,,,,,,,,,,,,,,,,,,,,,,,,,,,,,,,,,,,,,,,,,,,诚恳,e,,,,i,0,1.042,1,60,140,29,1,,
,,,,,,,,,,,,,,1,001,2025-01-02_15h43.15.834,IAT(Formal),2021.2.3,Win32,142.8571429,,,,,,,,,,,,,,,,,,,,,,,,,,,,,,,,,,,,,,,,,,,,,,,,,,,鲁莽,i,,,,i,1,0.8133,1,61,141,38,1,,
,,,,,,,,,,,,,,1,001,2025-01-02_15h43.15.834,IAT(Formal),2021.2.3,Win32,142.8571429,,,,,,,,,,,,,,,,,,,,,,,,,,,,,,,,,,,,,,,,,,,,,,,,,,,无私,e,,,,e,1,0.5979,1,62,142,22,1,,
,,,,,,,,,,,,,,1,001,2025-01-02_15h43.15.834,IAT(Formal),2021.2.3,Win32,142.8571429,,,,,,,,,,,,,,,,,,,,,,,,,,,,,,,,,,,,,,,,,,,,,,,,,,,他人,e,,,,e,1,0.522,1,63,143,78,1,,
,,,,,,,,,,,,,,1,001,2025-01-02_15h43.15.834,IAT(Formal),2021.2.3,Win32,142.8571429,,,,,,,,,,,,,,,,,,,,,,,,,,,,,,,,,,,,,,,,,,,,,,,,,,,俺,i,,,,i,1,0.6914,1,64,144,4,1,,
,,,,,,,,,,,,,,1,001,2025-01-02_15h43.15.834,IAT(Formal),2021.2.3,Win32,142.8571429,,,,,,,,,,,,,,,,,,,,,,,,,,,,,,,,,,,,,,,,,,,,,,,,,,,猖狂,i,,,,i,1,1.0034,1,65,145,45,1,,
,,,,,,,,,,,,,,1,001,2025-01-02_15h43.15.834,IAT(Formal),2021.2.3,Win32,142.8571429,,,,,,,,,,,,,,,,,,,,,,,,,,,,,,,,,,,,,,,,,,,,,,,,,,,热情,e,,,,e,1,0.9494,1,66,146,27,1,,
,,,,,,,,,,,,,,1,001,2025-01-02_15h43.15.834,IAT(Formal),2021.2.3,Win32,142.8571429,,,,,,,,,,,,,,,,,,,,,,,,,,,,,,,,,,,,,,,,,,,,,,,,,,,聪明,e,,,,e,1,0.4593,1,67,147,12,1,,
,,,,,,,,,,,,,,1,001,2025-01-02_15h43.15.834,IAT(Formal),2021.2.3,Win32,142.8571429,,,,,,,,,,,,,,,,,,,,,,,,,,,,,,,,,,,,,,,,,,,,,,,,,,,他的,e,,,,e,1,0.4454,1,68,148,77,1,,
,,,,,,,,,,,,,,1,001,2025-01-02_15h43.15.834,IAT(Formal),2021.2.3,Win32,142.8571429,,,,,,,,,,,,,,,,,,,,,,,,,,,,,,,,,,,,,,,,,,,,,,,,,,,其他,e,,,,e,1,0.6815,1,69,149,59,1,,
,,,,,,,,,,,,,,1,001,2025-01-02_15h43.15.834,IAT(Formal),2021.2.3,Win32,142.8571429,,,,,,,,,,,,,,,,,,,,,,,,,,,,,,,,,,,,,,,,,,,,,,,,,,,其他,e,,,,e,1,0.3776,1,70,150,79,1,,
,,,,,,,,,,,,,,1,001,2025-01-02_15h43.15.834,IAT(Formal),2021.2.3,Win32,142.8571429,,,,,,,,,,,,,,,,,,,,,,,,,,,,,,,,,,,,,,,,,,,,,,,,,,,正直,e,,,,e,1,0.6962,1,71,151,16,1,,
,,,,,,,,,,,,,,1,001,2025-01-02_15h43.15.834,IAT(Formal),2021.2.3,Win32,142.8571429,,,,,,,,,,,,,,,,,,,,,,,,,,,,,,,,,,,,,,,,,,,,,,,,,,,活泼,e,,,,e,1,0.5512,1,72,152,28,1,,
,,,,,,,,,,,,,,1,001,2025-01-02_15h43.15.834,IAT(Formal),2021.2.3,Win32,142.8571429,,,,,,,,,,,,,,,,,,,,,,,,,,,,,,,,,,,,,,,,,,,,,,,,,,,其他,e,,,,e,1,0.6611,1,73,153,9,1,,
,,,,,,,,,,,,,,1,001,2025-01-02_15h43.15.834,IAT(Formal),2021.2.3,Win32,142.8571429,,,,,,,,,,,,,,,,,,,,,,,,,,,,,,,,,,,,,,,,,,,,,,,,,,,乐观,e,,,,e,1,0.5144,1,74,154,14,1,,
,,,,,,,,,,,,,,1,001,2025-01-02_15h43.15.834,IAT(Formal),2021.2.3,Win32,142.8571429,,,,,,,,,,,,,,,,,,,,,,,,,,,,,,,,,,,,,,,,,,,,,,,,,,,我们,i,,,,i,1,0.5299,1,75,155,62,1,,
,,,,,,,,,,,,,,1,001,2025-01-02_15h43.15.834,IAT(Formal),2021.2.3,Win32,142.8571429,,,,,,,,,,,,,,,,,,,,,,,,,,,,,,,,,,,,,,,,,,,,,,,,,,,诚实,e,,,,e,1,0.503,1,76,156,15,1,,
,,,,,,,,,,,,,,1,001,2025-01-02_15h43.15.834,IAT(Formal),2021.2.3,Win32,142.8571429,,,,,,,,,,,,,,,,,,,,,,,,,,,,,,,,,,,,,,,,,,,,,,,,,,,我们,i,,,,i,1,0.5563,1,77,157,72,1,,
,,,,,,,,,,,,,,1,001,2025-01-02_15h43.15.834,IAT(Formal),2021.2.3,Win32,142.8571429,,,,,,,,,,,,,,,,,,,,,,,,,,,,,,,,,,,,,,,,,,,,,,,,,,,细腻,e,,,,e,1,0.5491,1,78,158,25,1,,
,,,,,,,,,,,,,,1,001,2025-01-02_15h43.15.834,IAT(Formal),2021.2.3,Win32,142.8571429,,,,,,,,,,,,,,,,,,,,,,,,,,,,,,,,,,,,,,,,,,,,,,,,,,,勤奋,e,,,,e,1,0.4245,1,79,159,18,1,,
,,,,,,,,,,,,,,1,001,2025-01-02_15h43.15.834,IAT(Formal),2021.2.3,Win32,142.8571429,,,,,,,,,,,,,,,,,,,,,,,,,,,,,,,,,,,,,,,,,,,,,,,,,,,,,,,,,,,,,,,,space,0.9314