﻿Instruction1.keys,Instruction1.rt,Instruction2.keys,Instruction2.rt,key_resp_iso.keys,key_resp_iso.corr,key_resp_iso.rt,Practice_01.thisRepN,Practice_01.thisTrialN,Practice_01.thisN,Practice_01.thisIndex,Practice_01.ran,Words,ans,participant,session,date,expName,psychopyVersion,OS,frameRate,key_resp_3.keys,key_resp_3.rt,key_resp_ipn.keys,key_resp_ipn.corr,key_resp_ipn.rt,Practice_02.thisRepN,Practice_02.thisTrialN,Practice_02.thisN,Practice_02.thisIndex,Practice_02.ran,Words_ipn,ans_ipn,key_resp_4.keys,key_resp_4.rt,key_resp_t1.keys,key_resp_t1.corr,key_resp_t1.rt,Practice_T1.thisRepN,Practice_T1.thisTrialN,Practice_T1.thisN,Practice_T1.thisIndex,Practice_T1.ran,Words_t1,ans_t1,key_resp_5.keys,key_resp_5.rt,Formal_T1.thisRepN,Formal_T1.thisTrialN,Formal_T1.thisN,Formal_T1.thisIndex,Formal_T1.ran,key_resp_6.keys,key_resp_6.rt,key_resp_iso_reverse.keys,key_resp_iso_reverse.corr,key_resp_iso_reverse.rt,Practice_iso_Reverse.thisRepN,Practice_iso_Reverse.thisTrialN,Practice_iso_Reverse.thisN,Practice_iso_Reverse.thisIndex,Practice_iso_Reverse.ran,key_resp_7.keys,key_resp_7.rt,key_resp_t2_Practice.keys,key_resp_t2_Practice.corr,key_resp_t2_Practice.rt,Practice_t2_Reverse.thisRepN,Practice_t2_Reverse.thisTrialN,Practice_t2_Reverse.thisN,Practice_t2_Reverse.thisIndex,Practice_t2_Reverse.ran,Words_t2,ans_t2,key_resp_8.keys,key_resp_8.rt,key_resp_t2.keys,key_resp_t2.corr,key_resp_t2.rt,Formal_t2_reverse.thisRepN,Formal_t2_reverse.thisTrialN,Formal_t2_reverse.thisN,Formal_t2_reverse.thisIndex,Formal_t2_reverse.ran,key_instruct.keys,key_instruct.rt
space,2.5244,space,7.7442,i,1,0.5762,0,0,0,5,1,他,i,1,001,2025-01-02_16h15.49.579,IAT(Formal),2021.2.3,Win32,59.88023952,,,,,,,,,,,,,,,,,,,,,,,,,,,,,,,,,,,,,,,,,,,,,,,,,,,,,,,,,,,,,,,,,
,,,,i,1,0.4726,0,1,1,8,1,他人,i,1,001,2025-01-02_16h15.49.579,IAT(Formal),2021.2.3,Win32,59.88023952,,,,,,,,,,,,,,,,,,,,,,,,,,,,,,,,,,,,,,,,,,,,,,,,,,,,,,,,,,,,,,,,,
,,,,e,1,0.461,0,2,2,1,1,我的,e,1,001,2025-01-02_16h15.49.579,IAT(Formal),2021.2.3,Win32,59.88023952,,,,,,,,,,,,,,,,,,,,,,,,,,,,,,,,,,,,,,,,,,,,,,,,,,,,,,,,,,,,,,,,,
,,,,e,1,0.6089,0,3,3,4,1,俺,e,1,001,2025-01-02_16h15.49.579,IAT(Formal),2021.2.3,Win32,59.88023952,,,,,,,,,,,,,,,,,,,,,,,,,,,,,,,,,,,,,,,,,,,,,,,,,,,,,,,,,,,,,,,,,
,,,,e,1,0.5197,0,4,4,3,1,自己,e,1,001,2025-01-02_16h15.49.579,IAT(Formal),2021.2.3,Win32,59.88023952,,,,,,,,,,,,,,,,,,,,,,,,,,,,,,,,,,,,,,,,,,,,,,,,,,,,,,,,,,,,,,,,,
,,,,i,1,0.5554,0,5,5,9,1,其他,i,1,001,2025-01-02_16h15.49.579,IAT(Formal),2021.2.3,Win32,59.88023952,,,,,,,,,,,,,,,,,,,,,,,,,,,,,,,,,,,,,,,,,,,,,,,,,,,,,,,,,,,,,,,,,
,,,,e,1,0.5385,0,6,6,2,1,我们,e,1,001,2025-01-02_16h15.49.579,IAT(Formal),2021.2.3,Win32,59.88023952,,,,,,,,,,,,,,,,,,,,,,,,,,,,,,,,,,,,,,,,,,,,,,,,,,,,,,,,,,,,,,,,,
,,,,i,1,0.4626,0,7,7,6,1,他们,i,1,001,2025-01-02_16h15.49.579,IAT(Formal),2021.2.3,Win32,59.88023952,,,,,,,,,,,,,,,,,,,,,,,,,,,,,,,,,,,,,,,,,,,,,,,,,,,,,,,,,,,,,,,,,
,,,,e,1,0.4958,0,8,8,0,1,我,e,1,001,2025-01-02_16h15.49.579,IAT(Formal),2021.2.3,Win32,59.88023952,,,,,,,,,,,,,,,,,,,,,,,,,,,,,,,,,,,,,,,,,,,,,,,,,,,,,,,,,,,,,,,,,
,,,,i,1,0.4505,0,9,9,7,1,他的,i,1,001,2025-01-02_16h15.49.579,IAT(Formal),2021.2.3,Win32,59.88023952,,,,,,,,,,,,,,,,,,,,,,,,,,,,,,,,,,,,,,,,,,,,,,,,,,,,,,,,,,,,,,,,,
,,,,,,,,,,,,,,1,001,2025-01-02_16h15.49.579,IAT(Formal),2021.2.3,Win32,59.88023952,space,2.6351,e,1,0.6651,0,0,0,4,1,乐观,e,,,,,,,,,,,,,,,,,,,,,,,,,,,,,,,,,,,,,,,,,,,,,,,,,,,,,
,,,,,,,,,,,,,,1,001,2025-01-02_16h15.49.579,IAT(Formal),2021.2.3,Win32,59.88023952,,,e,1,0.6863,0,1,1,3,1,杰出,e,,,,,,,,,,,,,,,,,,,,,,,,,,,,,,,,,,,,,,,,,,,,,,,,,,,,,
,,,,,,,,,,,,,,1,001,2025-01-02_16h15.49.579,IAT(Formal),2021.2.3,Win32,59.88023952,,,e,1,0.5066,0,2,2,0,1,优秀,e,,,,,,,,,,,,,,,,,,,,,,,,,,,,,,,,,,,,,,,,,,,,,,,,,,,,,
,,,,,,,,,,,,,,1,001,2025-01-02_16h15.49.579,IAT(Formal),2021.2.3,Win32,59.88023952,,,i,1,0.6474,0,3,3,22,1,愚蠢,i,,,,,,,,,,,,,,,,,,,,,,,,,,,,,,,,,,,,,,,,,,,,,,,,,,,,,
,,,,,,,,,,,,,,1,001,2025-01-02_16h15.49.579,IAT(Formal),2021.2.3,Win32,59.88023952,,,i,0,0.4546,0,4,4,15,1,细腻,e,,,,,,,,,,,,,,,,,,,,,,,,,,,,,,,,,,,,,,,,,,,,,,,,,,,,,
,,,,,,,,,,,,,,1,001,2025-01-02_16h15.49.579,IAT(Formal),2021.2.3,Win32,59.88023952,,,i,1,0.718,0,5,5,20,1,卑鄙,i,,,,,,,,,,,,,,,,,,,,,,,,,,,,,,,,,,,,,,,,,,,,,,,,,,,,,
,,,,,,,,,,,,,,1,001,2025-01-02_16h15.49.579,IAT(Formal),2021.2.3,Win32,59.88023952,,,i,1,0.494,0,6,6,32,1,凶狠,i,,,,,,,,,,,,,,,,,,,,,,,,,,,,,,,,,,,,,,,,,,,,,,,,,,,,,
,,,,,,,,,,,,,,1,001,2025-01-02_16h15.49.579,IAT(Formal),2021.2.3,Win32,59.88023952,,,e,1,0.4987,0,7,7,17,1,热情,e,,,,,,,,,,,,,,,,,,,,,,,,,,,,,,,,,,,,,,,,,,,,,,,,,,,,,
,,,,,,,,,,,,,,1,001,2025-01-02_16h15.49.579,IAT(Formal),2021.2.3,Win32,59.88023952,,,i,1,0.6176,0,8,8,23,1,刻薄,i,,,,,,,,,,,,,,,,,,,,,,,,,,,,,,,,,,,,,,,,,,,,,,,,,,,,,
,,,,,,,,,,,,,,1,001,2025-01-02_16h15.49.579,IAT(Formal),2021.2.3,Win32,59.88023952,,,e,1,0.6924,0,9,9,11,1,稳重,e,,,,,,,,,,,,,,,,,,,,,,,,,,,,,,,,,,,,,,,,,,,,,,,,,,,,,
,,,,,,,,,,,,,,1,001,2025-01-02_16h15.49.579,IAT(Formal),2021.2.3,Win32,59.88023952,,,e,0,0.7292,0,10,10,38,1,轻率,i,,,,,,,,,,,,,,,,,,,,,,,,,,,,,,,,,,,,,,,,,,,,,,,,,,,,,
,,,,,,,,,,,,,,1,001,2025-01-02_16h15.49.579,IAT(Formal),2021.2.3,Win32,59.88023952,,,e,1,0.5256,0,11,11,19,1,诚恳,e,,,,,,,,,,,,,,,,,,,,,,,,,,,,,,,,,,,,,,,,,,,,,,,,,,,,,
,,,,,,,,,,,,,,1,001,2025-01-02_16h15.49.579,IAT(Formal),2021.2.3,Win32,59.88023952,,,e,1,0.6188,0,12,12,6,1,正直,e,,,,,,,,,,,,,,,,,,,,,,,,,,,,,,,,,,,,,,,,,,,,,,,,,,,,,
,,,,,,,,,,,,,,1,001,2025-01-02_16h15.49.579,IAT(Formal),2021.2.3,Win32,59.88023952,,,i,1,0.5411,0,13,13,21,1,虚伪,i,,,,,,,,,,,,,,,,,,,,,,,,,,,,,,,,,,,,,,,,,,,,,,,,,,,,,
,,,,,,,,,,,,,,1,001,2025-01-02_16h15.49.579,IAT(Formal),2021.2.3,Win32,59.88023952,,,i,1,0.8092,0,14,14,35,1,猖狂,i,,,,,,,,,,,,,,,,,,,,,,,,,,,,,,,,,,,,,,,,,,,,,,,,,,,,,
,,,,,,,,,,,,,,1,001,2025-01-02_16h15.49.579,IAT(Formal),2021.2.3,Win32,59.88023952,,,i,1,0.5432,0,15,15,39,1,下贱,i,,,,,,,,,,,,,,,,,,,,,,,,,,,,,,,,,,,,,,,,,,,,,,,,,,,,,
,,,,,,,,,,,,,,1,001,2025-01-02_16h15.49.579,IAT(Formal),2021.2.3,Win32,59.88023952,,,e,1,0.8522,0,16,16,7,1,勇敢,e,,,,,,,,,,,,,,,,,,,,,,,,,,,,,,,,,,,,,,,,,,,,,,,,,,,,,
,,,,,,,,,,,,,,1,001,2025-01-02_16h15.49.579,IAT(Formal),2021.2.3,Win32,59.88023952,,,,0,,0,17,17,12,1,无私,e,,,,,,,,,,,,,,,,,,,,,,,,,,,,,,,,,,,,,,,,,,,,,,,,,,,,,
,,,,,,,,,,,,,,1,001,2025-01-02_16h15.49.579,IAT(Formal),2021.2.3,Win32,59.88023952,,,i,1,0.667,0,18,18,31,1,散漫,i,,,,,,,,,,,,,,,,,,,,,,,,,,,,,,,,,,,,,,,,,,,,,,,,,,,,,
,,,,,,,,,,,,,,1,001,2025-01-02_16h15.49.579,IAT(Formal),2021.2.3,Win32,59.88023952,,,e,1,0.6927,0,19,19,18,1,活泼,e,,,,,,,,,,,,,,,,,,,,,,,,,,,,,,,,,,,,,,,,,,,,,,,,,,,,,
,,,,,,,,,,,,,,1,001,2025-01-02_16h15.49.579,IAT(Formal),2021.2.3,Win32,59.88023952,,,e,1,0.8346,0,20,20,2,1,聪明,e,,,,,,,,,,,,,,,,,,,,,,,,,,,,,,,,,,,,,,,,,,,,,,,,,,,,,
,,,,,,,,,,,,,,1,001,2025-01-02_16h15.49.579,IAT(Formal),2021.2.3,Win32,59.88023952,,,i,1,0.726,0,21,21,26,1,自卑,i,,,,,,,,,,,,,,,,,,,,,,,,,,,,,,,,,,,,,,,,,,,,,,,,,,,,,
,,,,,,,,,,,,,,1,001,2025-01-02_16h15.49.579,IAT(Formal),2021.2.3,Win32,59.88023952,,,i,1,0.5008,0,22,22,24,1,悲观,i,,,,,,,,,,,,,,,,,,,,,,,,,,,,,,,,,,,,,,,,,,,,,,,,,,,,,
,,,,,,,,,,,,,,1,001,2025-01-02_16h15.49.579,IAT(Formal),2021.2.3,Win32,59.88023952,,,i,1,0.5371,0,23,23,27,1,傲慢,i,,,,,,,,,,,,,,,,,,,,,,,,,,,,,,,,,,,,,,,,,,,,,,,,,,,,,
,,,,,,,,,,,,,,1,001,2025-01-02_16h15.49.579,IAT(Formal),2021.2.3,Win32,59.88023952,,,i,1,0.5025,0,24,24,28,1,鲁莽,i,,,,,,,,,,,,,,,,,,,,,,,,,,,,,,,,,,,,,,,,,,,,,,,,,,,,,
,,,,,,,,,,,,,,1,001,2025-01-02_16h15.49.579,IAT(Formal),2021.2.3,Win32,59.88023952,,,i,1,0.5295,0,25,25,34,1,暴躁,i,,,,,,,,,,,,,,,,,,,,,,,,,,,,,,,,,,,,,,,,,,,,,,,,,,,,,
,,,,,,,,,,,,,,1,001,2025-01-02_16h15.49.579,IAT(Formal),2021.2.3,Win32,59.88023952,,,i,1,0.5468,0,26,26,37,1,固执,i,,,,,,,,,,,,,,,,,,,,,,,,,,,,,,,,,,,,,,,,,,,,,,,,,,,,,
,,,,,,,,,,,,,,1,001,2025-01-02_16h15.49.579,IAT(Formal),2021.2.3,Win32,59.88023952,,,e,1,0.5079,0,27,27,9,1,机智,e,,,,,,,,,,,,,,,,,,,,,,,,,,,,,,,,,,,,,,,,,,,,,,,,,,,,,
,,,,,,,,,,,,,,1,001,2025-01-02_16h15.49.579,IAT(Formal),2021.2.3,Win32,59.88023952,,,e,1,0.7167,0,28,28,14,1,朴实,e,,,,,,,,,,,,,,,,,,,,,,,,,,,,,,,,,,,,,,,,,,,,,,,,,,,,,
,,,,,,,,,,,,,,1,001,2025-01-02_16h15.49.579,IAT(Formal),2021.2.3,Win32,59.88023952,,,e,1,1.0585,0,29,29,1,1,崇高,e,,,,,,,,,,,,,,,,,,,,,,,,,,,,,,,,,,,,,,,,,,,,,,,,,,,,,
,,,,,,,,,,,,,,1,001,2025-01-02_16h15.49.579,IAT(Formal),2021.2.3,Win32,59.88023952,,,e,1,0.8998,0,30,30,8,1,勤奋,e,,,,,,,,,,,,,,,,,,,,,,,,,,,,,,,,,,,,,,,,,,,,,,,,,,,,,
,,,,,,,,,,,,,,1,001,2025-01-02_16h15.49.579,IAT(Formal),2021.2.3,Win32,59.88023952,,,e,0,0.4289,0,31,31,36,1,野蛮,i,,,,,,,,,,,,,,,,,,,,,,,,,,,,,,,,,,,,,,,,,,,,,,,,,,,,,
,,,,,,,,,,,,,,1,001,2025-01-02_16h15.49.579,IAT(Formal),2021.2.3,Win32,59.88023952,,,i,1,0.5741,0,32,32,33,1,自私,i,,,,,,,,,,,,,,,,,,,,,,,,,,,,,,,,,,,,,,,,,,,,,,,,,,,,,
,,,,,,,,,,,,,,1,001,2025-01-02_16h15.49.579,IAT(Formal),2021.2.3,Win32,59.88023952,,,e,1,0.5401,0,33,33,5,1,诚实,e,,,,,,,,,,,,,,,,,,,,,,,,,,,,,,,,,,,,,,,,,,,,,,,,,,,,,
,,,,,,,,,,,,,,1,001,2025-01-02_16h15.49.579,IAT(Formal),2021.2.3,Win32,59.88023952,,,i,1,0.5356,0,34,34,25,1,消极,i,,,,,,,,,,,,,,,,,,,,,,,,,,,,,,,,,,,,,,,,,,,,,,,,,,,,,
,,,,,,,,,,,,,,1,001,2025-01-02_16h15.49.579,IAT(Formal),2021.2.3,Win32,59.88023952,,,i,0,0.5919,0,35,35,16,1,冷静,e,,,,,,,,,,,,,,,,,,,,,,,,,,,,,,,,,,,,,,,,,,,,,,,,,,,,,
,,,,,,,,,,,,,,1,001,2025-01-02_16h15.49.579,IAT(Formal),2021.2.3,Win32,59.88023952,,,e,1,0.9748,0,36,36,10,1,认真,e,,,,,,,,,,,,,,,,,,,,,,,,,,,,,,,,,,,,,,,,,,,,,,,,,,,,,
,,,,,,,,,,,,,,1,001,2025-01-02_16h15.49.579,IAT(Formal),2021.2.3,Win32,59.88023952,,,e,1,0.6591,0,37,37,13,1,公正,e,,,,,,,,,,,,,,,,,,,,,,,,,,,,,,,,,,,,,,,,,,,,,,,,,,,,,
,,,,,,,,,,,,,,1,001,2025-01-02_16h15.49.579,IAT(Formal),2021.2.3,Win32,59.88023952,,,i,1,0.7009,0,38,38,29,1,冒失,i,,,,,,,,,,,,,,,,,,,,,,,,,,,,,,,,,,,,,,,,,,,,,,,,,,,,,
,,,,,,,,,,,,,,1,001,2025-01-02_16h15.49.579,IAT(Formal),2021.2.3,Win32,59.88023952,,,i,1,0.7511,0,39,39,30,1,执拗,i,,,,,,,,,,,,,,,,,,,,,,,,,,,,,,,,,,,,,,,,,,,,,,,,,,,,,
,,,,,,,,,,,,,,1,001,2025-01-02_16h15.49.579,IAT(Formal),2021.2.3,Win32,59.88023952,,,,,,,,,,,,,space,5.415,e,1,0.4687,0,0,0,3,1,自己,e,,,,,,,,,,,,,,,,,,,,,,,,,,,,,,,,,,,,,,,,,
,,,,,,,,,,,,,,1,001,2025-01-02_16h15.49.579,IAT(Formal),2021.2.3,Win32,59.88023952,,,,,,,,,,,,,,,e,1,0.5137,0,1,1,74,1,俺,e,,,,,,,,,,,,,,,,,,,,,,,,,,,,,,,,,,,,,,,,,
,,,,,,,,,,,,,,1,001,2025-01-02_16h15.49.579,IAT(Formal),2021.2.3,Win32,59.88023952,,,,,,,,,,,,,,,i,1,0.6582,0,2,2,36,1,自卑,i,,,,,,,,,,,,,,,,,,,,,,,,,,,,,,,,,,,,,,,,,
,,,,,,,,,,,,,,1,001,2025-01-02_16h15.49.579,IAT(Formal),2021.2.3,Win32,59.88023952,,,,,,,,,,,,,,,e,1,0.4753,0,3,3,51,1,我的,e,,,,,,,,,,,,,,,,,,,,,,,,,,,,,,,,,,,,,,,,,
,,,,,,,,,,,,,,1,001,2025-01-02_16h15.49.579,IAT(Formal),2021.2.3,Win32,59.88023952,,,,,,,,,,,,,,,e,1,0.5798,0,4,4,10,1,优秀,e,,,,,,,,,,,,,,,,,,,,,,,,,,,,,,,,,,,,,,,,,
,,,,,,,,,,,,,,1,001,2025-01-02_16h15.49.579,IAT(Formal),2021.2.3,Win32,59.88023952,,,,,,,,,,,,,,,e,1,0.4828,0,5,5,11,1,崇高,e,,,,,,,,,,,,,,,,,,,,,,,,,,,,,,,,,,,,,,,,,
,,,,,,,,,,,,,,1,001,2025-01-02_16h15.49.579,IAT(Formal),2021.2.3,Win32,59.88023952,,,,,,,,,,,,,,,i,1,0.5326,0,6,6,46,1,野蛮,i,,,,,,,,,,,,,,,,,,,,,,,,,,,,,,,,,,,,,,,,,
,,,,,,,,,,,,,,1,001,2025-01-02_16h15.49.579,IAT(Formal),2021.2.3,Win32,59.88023952,,,,,,,,,,,,,,,e,1,0.4757,0,7,7,4,1,俺,e,,,,,,,,,,,,,,,,,,,,,,,,,,,,,,,,,,,,,,,,,
,,,,,,,,,,,,,,1,001,2025-01-02_16h15.49.579,IAT(Formal),2021.2.3,Win32,59.88023952,,,,,,,,,,,,,,,i,1,0.5909,0,8,8,33,1,刻薄,i,,,,,,,,,,,,,,,,,,,,,,,,,,,,,,,,,,,,,,,,,
,,,,,,,,,,,,,,1,001,2025-01-02_16h15.49.579,IAT(Formal),2021.2.3,Win32,59.88023952,,,,,,,,,,,,,,,i,1,0.5242,0,9,9,59,1,其他,i,,,,,,,,,,,,,,,,,,,,,,,,,,,,,,,,,,,,,,,,,
,,,,,,,,,,,,,,1,001,2025-01-02_16h15.49.579,IAT(Formal),2021.2.3,Win32,59.88023952,,,,,,,,,,,,,,,e,1,0.5595,0,10,10,15,1,诚实,e,,,,,,,,,,,,,,,,,,,,,,,,,,,,,,,,,,,,,,,,,
,,,,,,,,,,,,,,1,001,2025-01-02_16h15.49.579,IAT(Formal),2021.2.3,Win32,59.88023952,,,,,,,,,,,,,,,i,1,0.9613,0,11,11,44,1,暴躁,i,,,,,,,,,,,,,,,,,,,,,,,,,,,,,,,,,,,,,,,,,
,,,,,,,,,,,,,,1,001,2025-01-02_16h15.49.579,IAT(Formal),2021.2.3,Win32,59.88023952,,,,,,,,,,,,,,,e,1,0.468,0,12,12,72,1,我们,e,,,,,,,,,,,,,,,,,,,,,,,,,,,,,,,,,,,,,,,,,
,,,,,,,,,,,,,,1,001,2025-01-02_16h15.49.579,IAT(Formal),2021.2.3,Win32,59.88023952,,,,,,,,,,,,,,,i,1,0.4667,0,13,13,6,1,他们,i,,,,,,,,,,,,,,,,,,,,,,,,,,,,,,,,,,,,,,,,,
,,,,,,,,,,,,,,1,001,2025-01-02_16h15.49.579,IAT(Formal),2021.2.3,Win32,59.88023952,,,,,,,,,,,,,,,i,1,0.5333,0,14,14,42,1,凶狠,i,,,,,,,,,,,,,,,,,,,,,,,,,,,,,,,,,,,,,,,,,
,,,,,,,,,,,,,,1,001,2025-01-02_16h15.49.579,IAT(Formal),2021.2.3,Win32,59.88023952,,,,,,,,,,,,,,,e,1,0.4183,0,15,15,1,1,我的,e,,,,,,,,,,,,,,,,,,,,,,,,,,,,,,,,,,,,,,,,,
,,,,,,,,,,,,,,1,001,2025-01-02_16h15.49.579,IAT(Formal),2021.2.3,Win32,59.88023952,,,,,,,,,,,,,,,i,1,0.5569,0,16,16,40,1,执拗,i,,,,,,,,,,,,,,,,,,,,,,,,,,,,,,,,,,,,,,,,,
,,,,,,,,,,,,,,1,001,2025-01-02_16h15.49.579,IAT(Formal),2021.2.3,Win32,59.88023952,,,,,,,,,,,,,,,e,1,0.5286,0,17,17,53,1,自己,e,,,,,,,,,,,,,,,,,,,,,,,,,,,,,,,,,,,,,,,,,
,,,,,,,,,,,,,,1,001,2025-01-02_16h15.49.579,IAT(Formal),2021.2.3,Win32,59.88023952,,,,,,,,,,,,,,,i,1,0.4733,0,18,18,65,1,他,i,,,,,,,,,,,,,,,,,,,,,,,,,,,,,,,,,,,,,,,,,
,,,,,,,,,,,,,,1,001,2025-01-02_16h15.49.579,IAT(Formal),2021.2.3,Win32,59.88023952,,,,,,,,,,,,,,,e,1,0.5054,0,19,19,24,1,朴实,e,,,,,,,,,,,,,,,,,,,,,,,,,,,,,,,,,,,,,,,,,
,,,,,,,,,,,,,,1,001,2025-01-02_16h15.49.579,IAT(Formal),2021.2.3,Win32,59.88023952,,,,,,,,,,,,,,,i,1,0.5887,0,20,20,7,1,他的,i,,,,,,,,,,,,,,,,,,,,,,,,,,,,,,,,,,,,,,,,,
,,,,,,,,,,,,,,1,001,2025-01-02_16h15.49.579,IAT(Formal),2021.2.3,Win32,59.88023952,,,,,,,,,,,,,,,e,1,0.6064,0,21,21,54,1,俺,e,,,,,,,,,,,,,,,,,,,,,,,,,,,,,,,,,,,,,,,,,
,,,,,,,,,,,,,,1,001,2025-01-02_16h15.49.579,IAT(Formal),2021.2.3,Win32,59.88023952,,,,,,,,,,,,,,,e,0,0.5594,0,22,22,57,1,他的,i,,,,,,,,,,,,,,,,,,,,,,,,,,,,,,,,,,,,,,,,,
,,,,,,,,,,,,,,1,001,2025-01-02_16h15.49.579,IAT(Formal),2021.2.3,Win32,59.88023952,,,,,,,,,,,,,,,i,1,0.4693,0,23,23,67,1,他的,i,,,,,,,,,,,,,,,,,,,,,,,,,,,,,,,,,,,,,,,,,
,,,,,,,,,,,,,,1,001,2025-01-02_16h15.49.579,IAT(Formal),2021.2.3,Win32,59.88023952,,,,,,,,,,,,,,,e,1,0.5498,0,24,24,29,1,诚恳,e,,,,,,,,,,,,,,,,,,,,,,,,,,,,,,,,,,,,,,,,,
,,,,,,,,,,,,,,1,001,2025-01-02_16h15.49.579,IAT(Formal),2021.2.3,Win32,59.88023952,,,,,,,,,,,,,,,e,1,0.5615,0,25,25,61,1,我的,e,,,,,,,,,,,,,,,,,,,,,,,,,,,,,,,,,,,,,,,,,
,,,,,,,,,,,,,,1,001,2025-01-02_16h15.49.579,IAT(Formal),2021.2.3,Win32,59.88023952,,,,,,,,,,,,,,,e,1,0.6618,0,26,26,50,1,我,e,,,,,,,,,,,,,,,,,,,,,,,,,,,,,,,,,,,,,,,,,
,,,,,,,,,,,,,,1,001,2025-01-02_16h15.49.579,IAT(Formal),2021.2.3,Win32,59.88023952,,,,,,,,,,,,,,,e,1,0.6092,0,27,27,27,1,热情,e,,,,,,,,,,,,,,,,,,,,,,,,,,,,,,,,,,,,,,,,,
,,,,,,,,,,,,,,1,001,2025-01-02_16h15.49.579,IAT(Formal),2021.2.3,Win32,59.88023952,,,,,,,,,,,,,,,e,1,0.4305,0,28,28,70,1,我,e,,,,,,,,,,,,,,,,,,,,,,,,,,,,,,,,,,,,,,,,,
,,,,,,,,,,,,,,1,001,2025-01-02_16h15.49.579,IAT(Formal),2021.2.3,Win32,59.88023952,,,,,,,,,,,,,,,e,1,0.5018,0,29,29,18,1,勤奋,e,,,,,,,,,,,,,,,,,,,,,,,,,,,,,,,,,,,,,,,,,
,,,,,,,,,,,,,,1,001,2025-01-02_16h15.49.579,IAT(Formal),2021.2.3,Win32,59.88023952,,,,,,,,,,,,,,,i,1,0.6009,0,30,30,30,1,卑鄙,i,,,,,,,,,,,,,,,,,,,,,,,,,,,,,,,,,,,,,,,,,
,,,,,,,,,,,,,,1,001,2025-01-02_16h15.49.579,IAT(Formal),2021.2.3,Win32,59.88023952,,,,,,,,,,,,,,,i,1,0.8958,0,31,31,48,1,轻率,i,,,,,,,,,,,,,,,,,,,,,,,,,,,,,,,,,,,,,,,,,
,,,,,,,,,,,,,,1,001,2025-01-02_16h15.49.579,IAT(Formal),2021.2.3,Win32,59.88023952,,,,,,,,,,,,,,,i,1,0.5164,0,32,32,37,1,傲慢,i,,,,,,,,,,,,,,,,,,,,,,,,,,,,,,,,,,,,,,,,,
,,,,,,,,,,,,,,1,001,2025-01-02_16h15.49.579,IAT(Formal),2021.2.3,Win32,59.88023952,,,,,,,,,,,,,,,i,1,0.4216,0,33,33,41,1,散漫,i,,,,,,,,,,,,,,,,,,,,,,,,,,,,,,,,,,,,,,,,,
,,,,,,,,,,,,,,1,001,2025-01-02_16h15.49.579,IAT(Formal),2021.2.3,Win32,59.88023952,,,,,,,,,,,,,,,e,1,0.6192,0,34,34,64,1,俺,e,,,,,,,,,,,,,,,,,,,,,,,,,,,,,,,,,,,,,,,,,
,,,,,,,,,,,,,,1,001,2025-01-02_16h15.49.579,IAT(Formal),2021.2.3,Win32,59.88023952,,,,,,,,,,,,,,,i,1,0.5046,0,35,35,58,1,他人,i,,,,,,,,,,,,,,,,,,,,,,,,,,,,,,,,,,,,,,,,,
,,,,,,,,,,,,,,1,001,2025-01-02_16h15.49.579,IAT(Formal),2021.2.3,Win32,59.88023952,,,,,,,,,,,,,,,i,1,0.7915,0,36,36,43,1,自私,i,,,,,,,,,,,,,,,,,,,,,,,,,,,,,,,,,,,,,,,,,
,,,,,,,,,,,,,,1,001,2025-01-02_16h15.49.579,IAT(Formal),2021.2.3,Win32,59.88023952,,,,,,,,,,,,,,,e,1,0.5361,0,37,37,28,1,活泼,e,,,,,,,,,,,,,,,,,,,,,,,,,,,,,,,,,,,,,,,,,
,,,,,,,,,,,,,,1,001,2025-01-02_16h15.49.579,IAT(Formal),2021.2.3,Win32,59.88023952,,,,,,,,,,,,,,,e,1,0.5932,0,38,38,14,1,乐观,e,,,,,,,,,,,,,,,,,,,,,,,,,,,,,,,,,,,,,,,,,
,,,,,,,,,,,,,,1,001,2025-01-02_16h15.49.579,IAT(Formal),2021.2.3,Win32,59.88023952,,,,,,,,,,,,,,,e,1,0.5784,0,39,39,20,1,认真,e,,,,,,,,,,,,,,,,,,,,,,,,,,,,,,,,,,,,,,,,,
,,,,,,,,,,,,,,1,001,2025-01-02_16h15.49.579,IAT(Formal),2021.2.3,Win32,59.88023952,,,,,,,,,,,,,,,i,1,0.6026,0,40,40,38,1,鲁莽,i,,,,,,,,,,,,,,,,,,,,,,,,,,,,,,,,,,,,,,,,,
,,,,,,,,,,,,,,1,001,2025-01-02_16h15.49.579,IAT(Formal),2021.2.3,Win32,59.88023952,,,,,,,,,,,,,,,i,1,0.5926,0,41,41,9,1,其他,i,,,,,,,,,,,,,,,,,,,,,,,,,,,,,,,,,,,,,,,,,
,,,,,,,,,,,,,,1,001,2025-01-02_16h15.49.579,IAT(Formal),2021.2.3,Win32,59.88023952,,,,,,,,,,,,,,,i,1,0.4301,0,42,42,49,1,下贱,i,,,,,,,,,,,,,,,,,,,,,,,,,,,,,,,,,,,,,,,,,
,,,,,,,,,,,,,,1,001,2025-01-02_16h15.49.579,IAT(Formal),2021.2.3,Win32,59.88023952,,,,,,,,,,,,,,,i,1,0.5154,0,43,43,32,1,愚蠢,i,,,,,,,,,,,,,,,,,,,,,,,,,,,,,,,,,,,,,,,,,
,,,,,,,,,,,,,,1,001,2025-01-02_16h15.49.579,IAT(Formal),2021.2.3,Win32,59.88023952,,,,,,,,,,,,,,,i,1,0.5295,0,44,44,45,1,猖狂,i,,,,,,,,,,,,,,,,,,,,,,,,,,,,,,,,,,,,,,,,,
,,,,,,,,,,,,,,1,001,2025-01-02_16h15.49.579,IAT(Formal),2021.2.3,Win32,59.88023952,,,,,,,,,,,,,,,i,1,0.6297,0,45,45,77,1,他的,i,,,,,,,,,,,,,,,,,,,,,,,,,,,,,,,,,,,,,,,,,
,,,,,,,,,,,,,,1,001,2025-01-02_16h15.49.579,IAT(Formal),2021.2.3,Win32,59.88023952,,,,,,,,,,,,,,,e,1,0.6829,0,46,46,52,1,我们,e,,,,,,,,,,,,,,,,,,,,,,,,,,,,,,,,,,,,,,,,,
,,,,,,,,,,,,,,1,001,2025-01-02_16h15.49.579,IAT(Formal),2021.2.3,Win32,59.88023952,,,,,,,,,,,,,,,i,1,0.6269,0,47,47,75,1,他,i,,,,,,,,,,,,,,,,,,,,,,,,,,,,,,,,,,,,,,,,,
,,,,,,,,,,,,,,1,001,2025-01-02_16h15.49.579,IAT(Formal),2021.2.3,Win32,59.88023952,,,,,,,,,,,,,,,i,1,0.5124,0,48,48,79,1,其他,i,,,,,,,,,,,,,,,,,,,,,,,,,,,,,,,,,,,,,,,,,
,,,,,,,,,,,,,,1,001,2025-01-02_16h15.49.579,IAT(Formal),2021.2.3,Win32,59.88023952,,,,,,,,,,,,,,,i,1,0.3589,0,49,49,56,1,他们,i,,,,,,,,,,,,,,,,,,,,,,,,,,,,,,,,,,,,,,,,,
,,,,,,,,,,,,,,1,001,2025-01-02_16h15.49.579,IAT(Formal),2021.2.3,Win32,59.88023952,,,,,,,,,,,,,,,i,1,0.995,0,50,50,34,1,悲观,i,,,,,,,,,,,,,,,,,,,,,,,,,,,,,,,,,,,,,,,,,
,,,,,,,,,,,,,,1,001,2025-01-02_16h15.49.579,IAT(Formal),2021.2.3,Win32,59.88023952,,,,,,,,,,,,,,,i,1,0.6364,0,51,51,47,1,固执,i,,,,,,,,,,,,,,,,,,,,,,,,,,,,,,,,,,,,,,,,,
,,,,,,,,,,,,,,1,001,2025-01-02_16h15.49.579,IAT(Formal),2021.2.3,Win32,59.88023952,,,,,,,,,,,,,,,i,0,0.5257,0,52,52,22,1,无私,e,,,,,,,,,,,,,,,,,,,,,,,,,,,,,,,,,,,,,,,,,
,,,,,,,,,,,,,,1,001,2025-01-02_16h15.49.579,IAT(Formal),2021.2.3,Win32,59.88023952,,,,,,,,,,,,,,,e,1,1.3928,0,53,53,25,1,细腻,e,,,,,,,,,,,,,,,,,,,,,,,,,,,,,,,,,,,,,,,,,
,,,,,,,,,,,,,,1,001,2025-01-02_16h15.49.579,IAT(Formal),2021.2.3,Win32,59.88023952,,,,,,,,,,,,,,,e,1,0.5882,0,54,54,12,1,聪明,e,,,,,,,,,,,,,,,,,,,,,,,,,,,,,,,,,,,,,,,,,
,,,,,,,,,,,,,,1,001,2025-01-02_16h15.49.579,IAT(Formal),2021.2.3,Win32,59.88023952,,,,,,,,,,,,,,,e,1,0.6407,0,55,55,63,1,自己,e,,,,,,,,,,,,,,,,,,,,,,,,,,,,,,,,,,,,,,,,,
,,,,,,,,,,,,,,1,001,2025-01-02_16h15.49.579,IAT(Formal),2021.2.3,Win32,59.88023952,,,,,,,,,,,,,,,i,1,0.6247,0,56,56,78,1,他人,i,,,,,,,,,,,,,,,,,,,,,,,,,,,,,,,,,,,,,,,,,
,,,,,,,,,,,,,,1,001,2025-01-02_16h15.49.579,IAT(Formal),2021.2.3,Win32,59.88023952,,,,,,,,,,,,,,,i,1,0.4956,0,57,57,8,1,他人,i,,,,,,,,,,,,,,,,,,,,,,,,,,,,,,,,,,,,,,,,,
,,,,,,,,,,,,,,1,001,2025-01-02_16h15.49.579,IAT(Formal),2021.2.3,Win32,59.88023952,,,,,,,,,,,,,,,i,1,0.4167,0,58,58,68,1,他人,i,,,,,,,,,,,,,,,,,,,,,,,,,,,,,,,,,,,,,,,,,
,,,,,,,,,,,,,,1,001,2025-01-02_16h15.49.579,IAT(Formal),2021.2.3,Win32,59.88023952,,,,,,,,,,,,,,,i,1,0.5119,0,59,59,76,1,他们,i,,,,,,,,,,,,,,,,,,,,,,,,,,,,,,,,,,,,,,,,,
,,,,,,,,,,,,,,1,001,2025-01-02_16h15.49.579,IAT(Formal),2021.2.3,Win32,59.88023952,,,,,,,,,,,,,,,i,1,0.6002,0,60,60,35,1,消极,i,,,,,,,,,,,,,,,,,,,,,,,,,,,,,,,,,,,,,,,,,
,,,,,,,,,,,,,,1,001,2025-01-02_16h15.49.579,IAT(Formal),2021.2.3,Win32,59.88023952,,,,,,,,,,,,,,,e,1,0.4872,0,61,61,0,1,我,e,,,,,,,,,,,,,,,,,,,,,,,,,,,,,,,,,,,,,,,,,
,,,,,,,,,,,,,,1,001,2025-01-02_16h15.49.579,IAT(Formal),2021.2.3,Win32,59.88023952,,,,,,,,,,,,,,,i,1,0.5612,0,62,62,55,1,他,i,,,,,,,,,,,,,,,,,,,,,,,,,,,,,,,,,,,,,,,,,
,,,,,,,,,,,,,,1,001,2025-01-02_16h15.49.579,IAT(Formal),2021.2.3,Win32,59.88023952,,,,,,,,,,,,,,,i,1,0.4881,0,63,63,31,1,虚伪,i,,,,,,,,,,,,,,,,,,,,,,,,,,,,,,,,,,,,,,,,,
,,,,,,,,,,,,,,1,001,2025-01-02_16h15.49.579,IAT(Formal),2021.2.3,Win32,59.88023952,,,,,,,,,,,,,,,i,1,0.4924,0,64,64,66,1,他们,i,,,,,,,,,,,,,,,,,,,,,,,,,,,,,,,,,,,,,,,,,
,,,,,,,,,,,,,,1,001,2025-01-02_16h15.49.579,IAT(Formal),2021.2.3,Win32,59.88023952,,,,,,,,,,,,,,,e,1,0.9155,0,65,65,13,1,杰出,e,,,,,,,,,,,,,,,,,,,,,,,,,,,,,,,,,,,,,,,,,
,,,,,,,,,,,,,,1,001,2025-01-02_16h15.49.579,IAT(Formal),2021.2.3,Win32,59.88023952,,,,,,,,,,,,,,,e,1,0.5386,0,66,66,73,1,自己,e,,,,,,,,,,,,,,,,,,,,,,,,,,,,,,,,,,,,,,,,,
,,,,,,,,,,,,,,1,001,2025-01-02_16h15.49.579,IAT(Formal),2021.2.3,Win32,59.88023952,,,,,,,,,,,,,,,e,1,0.4998,0,67,67,16,1,正直,e,,,,,,,,,,,,,,,,,,,,,,,,,,,,,,,,,,,,,,,,,
,,,,,,,,,,,,,,1,001,2025-01-02_16h15.49.579,IAT(Formal),2021.2.3,Win32,59.88023952,,,,,,,,,,,,,,,i,1,0.5734,0,68,68,5,1,他,i,,,,,,,,,,,,,,,,,,,,,,,,,,,,,,,,,,,,,,,,,
,,,,,,,,,,,,,,1,001,2025-01-02_16h15.49.579,IAT(Formal),2021.2.3,Win32,59.88023952,,,,,,,,,,,,,,,i,1,0.6369,0,69,69,39,1,冒失,i,,,,,,,,,,,,,,,,,,,,,,,,,,,,,,,,,,,,,,,,,
,,,,,,,,,,,,,,1,001,2025-01-02_16h15.49.579,IAT(Formal),2021.2.3,Win32,59.88023952,,,,,,,,,,,,,,,i,1,0.3671,0,70,70,69,1,其他,i,,,,,,,,,,,,,,,,,,,,,,,,,,,,,,,,,,,,,,,,,
,,,,,,,,,,,,,,1,001,2025-01-02_16h15.49.579,IAT(Formal),2021.2.3,Win32,59.88023952,,,,,,,,,,,,,,,e,1,0.6802,0,71,71,21,1,稳重,e,,,,,,,,,,,,,,,,,,,,,,,,,,,,,,,,,,,,,,,,,
,,,,,,,,,,,,,,1,001,2025-01-02_16h15.49.579,IAT(Formal),2021.2.3,Win32,59.88023952,,,,,,,,,,,,,,,e,1,0.577,0,72,72,2,1,我们,e,,,,,,,,,,,,,,,,,,,,,,,,,,,,,,,,,,,,,,,,,
,,,,,,,,,,,,,,1,001,2025-01-02_16h15.49.579,IAT(Formal),2021.2.3,Win32,59.88023952,,,,,,,,,,,,,,,e,1,0.6185,0,73,73,19,1,机智,e,,,,,,,,,,,,,,,,,,,,,,,,,,,,,,,,,,,,,,,,,
,,,,,,,,,,,,,,1,001,2025-01-02_16h15.49.579,IAT(Formal),2021.2.3,Win32,59.88023952,,,,,,,,,,,,,,,e,1,0.4449,0,74,74,26,1,冷静,e,,,,,,,,,,,,,,,,,,,,,,,,,,,,,,,,,,,,,,,,,
,,,,,,,,,,,,,,1,001,2025-01-02_16h15.49.579,IAT(Formal),2021.2.3,Win32,59.88023952,,,,,,,,,,,,,,,e,1,0.504,0,75,75,62,1,我们,e,,,,,,,,,,,,,,,,,,,,,,,,,,,,,,,,,,,,,,,,,
,,,,,,,,,,,,,,1,001,2025-01-02_16h15.49.579,IAT(Formal),2021.2.3,Win32,59.88023952,,,,,,,,,,,,,,,e,1,0.539,0,76,76,17,1,勇敢,e,,,,,,,,,,,,,,,,,,,,,,,,,,,,,,,,,,,,,,,,,
,,,,,,,,,,,,,,1,001,2025-01-02_16h15.49.579,IAT(Formal),2021.2.3,Win32,59.88023952,,,,,,,,,,,,,,,e,1,0.4036,0,77,77,23,1,公正,e,,,,,,,,,,,,,,,,,,,,,,,,,,,,,,,,,,,,,,,,,
,,,,,,,,,,,,,,1,001,2025-01-02_16h15.49.579,IAT(Formal),2021.2.3,Win32,59.88023952,,,,,,,,,,,,,,,e,1,0.4653,0,78,78,71,1,我的,e,,,,,,,,,,,,,,,,,,,,,,,,,,,,,,,,,,,,,,,,,
,,,,,,,,,,,,,,1,001,2025-01-02_16h15.49.579,IAT(Formal),2021.2.3,Win32,59.88023952,,,,,,,,,,,,,,,e,1,0.5059,0,79,79,60,1,我,e,,,,,,,,,,,,,,,,,,,,,,,,,,,,,,,,,,,,,,,,,
,,,,,,,,,,,,,,1,001,2025-01-02_16h15.49.579,IAT(Formal),2021.2.3,Win32,59.88023952,,,,,,,,,,,,,,,e,1,0.8073,,,,,,勤奋,e,space,7.1916,0,0,0,18,1,,,,,,,,,,,,,,,,,,,,,,,,,,,,,,,,,,
,,,,,,,,,,,,,,1,001,2025-01-02_16h15.49.579,IAT(Formal),2021.2.3,Win32,59.88023952,,,,,,,,,,,,,,,i,1,0.707,,,,,,冒失,i,,,0,1,1,39,1,,,,,,,,,,,,,,,,,,,,,,,,,,,,,,,,,,
,,,,,,,,,,,,,,1,001,2025-01-02_16h15.49.579,IAT(Formal),2021.2.3,Win32,59.88023952,,,,,,,,,,,,,,,i,1,0.601,,,,,,自私,i,,,0,2,2,43,1,,,,,,,,,,,,,,,,,,,,,,,,,,,,,,,,,,
,,,,,,,,,,,,,,1,001,2025-01-02_16h15.49.579,IAT(Formal),2021.2.3,Win32,59.88023952,,,,,,,,,,,,,,,e,1,0.4012,,,,,,我们,e,,,0,3,3,52,1,,,,,,,,,,,,,,,,,,,,,,,,,,,,,,,,,,
,,,,,,,,,,,,,,1,001,2025-01-02_16h15.49.579,IAT(Formal),2021.2.3,Win32,59.88023952,,,,,,,,,,,,,,,e,1,0.3803,,,,,,诚实,e,,,0,4,4,15,1,,,,,,,,,,,,,,,,,,,,,,,,,,,,,,,,,,
,,,,,,,,,,,,,,1,001,2025-01-02_16h15.49.579,IAT(Formal),2021.2.3,Win32,59.88023952,,,,,,,,,,,,,,,e,1,0.4572,,,,,,机智,e,,,0,5,5,19,1,,,,,,,,,,,,,,,,,,,,,,,,,,,,,,,,,,
,,,,,,,,,,,,,,1,001,2025-01-02_16h15.49.579,IAT(Formal),2021.2.3,Win32,59.88023952,,,,,,,,,,,,,,,i,1,0.5278,,,,,,他,i,,,0,6,6,55,1,,,,,,,,,,,,,,,,,,,,,,,,,,,,,,,,,,
,,,,,,,,,,,,,,1,001,2025-01-02_16h15.49.579,IAT(Formal),2021.2.3,Win32,59.88023952,,,,,,,,,,,,,,,e,1,0.8003,,,,,,朴实,e,,,0,7,7,24,1,,,,,,,,,,,,,,,,,,,,,,,,,,,,,,,,,,
,,,,,,,,,,,,,,1,001,2025-01-02_16h15.49.579,IAT(Formal),2021.2.3,Win32,59.88023952,,,,,,,,,,,,,,,e,1,0.4648,,,,,,我,e,,,0,8,8,0,1,,,,,,,,,,,,,,,,,,,,,,,,,,,,,,,,,,
,,,,,,,,,,,,,,1,001,2025-01-02_16h15.49.579,IAT(Formal),2021.2.3,Win32,59.88023952,,,,,,,,,,,,,,,e,1,0.4832,,,,,,俺,e,,,0,9,9,74,1,,,,,,,,,,,,,,,,,,,,,,,,,,,,,,,,,,
,,,,,,,,,,,,,,1,001,2025-01-02_16h15.49.579,IAT(Formal),2021.2.3,Win32,59.88023952,,,,,,,,,,,,,,,i,1,1.2271,,,,,,悲观,i,,,0,10,10,34,1,,,,,,,,,,,,,,,,,,,,,,,,,,,,,,,,,,
,,,,,,,,,,,,,,1,001,2025-01-02_16h15.49.579,IAT(Formal),2021.2.3,Win32,59.88023952,,,,,,,,,,,,,,,i,1,0.6527,,,,,,他的,i,,,0,11,11,77,1,,,,,,,,,,,,,,,,,,,,,,,,,,,,,,,,,,
,,,,,,,,,,,,,,1,001,2025-01-02_16h15.49.579,IAT(Formal),2021.2.3,Win32,59.88023952,,,,,,,,,,,,,,,i,1,0.4394,,,,,,他人,i,,,0,12,12,8,1,,,,,,,,,,,,,,,,,,,,,,,,,,,,,,,,,,
,,,,,,,,,,,,,,1,001,2025-01-02_16h15.49.579,IAT(Formal),2021.2.3,Win32,59.88023952,,,,,,,,,,,,,,,i,1,0.4195,,,,,,他,i,,,0,13,13,5,1,,,,,,,,,,,,,,,,,,,,,,,,,,,,,,,,,,
,,,,,,,,,,,,,,1,001,2025-01-02_16h15.49.579,IAT(Formal),2021.2.3,Win32,59.88023952,,,,,,,,,,,,,,,e,1,0.6944,,,,,,公正,e,,,0,14,14,23,1,,,,,,,,,,,,,,,,,,,,,,,,,,,,,,,,,,
,,,,,,,,,,,,,,1,001,2025-01-02_16h15.49.579,IAT(Formal),2021.2.3,Win32,59.88023952,,,,,,,,,,,,,,,i,1,0.6178,,,,,,消极,i,,,0,15,15,35,1,,,,,,,,,,,,,,,,,,,,,,,,,,,,,,,,,,
,,,,,,,,,,,,,,1,001,2025-01-02_16h15.49.579,IAT(Formal),2021.2.3,Win32,59.88023952,,,,,,,,,,,,,,,i,1,0.5493,,,,,,野蛮,i,,,0,16,16,46,1,,,,,,,,,,,,,,,,,,,,,,,,,,,,,,,,,,
,,,,,,,,,,,,,,1,001,2025-01-02_16h15.49.579,IAT(Formal),2021.2.3,Win32,59.88023952,,,,,,,,,,,,,,,i,1,0.6328,,,,,,他的,i,,,0,17,17,7,1,,,,,,,,,,,,,,,,,,,,,,,,,,,,,,,,,,
,,,,,,,,,,,,,,1,001,2025-01-02_16h15.49.579,IAT(Formal),2021.2.3,Win32,59.88023952,,,,,,,,,,,,,,,e,1,0.5371,,,,,,我们,e,,,0,18,18,2,1,,,,,,,,,,,,,,,,,,,,,,,,,,,,,,,,,,
,,,,,,,,,,,,,,1,001,2025-01-02_16h15.49.579,IAT(Formal),2021.2.3,Win32,59.88023952,,,,,,,,,,,,,,,i,1,0.6201,,,,,,固执,i,,,0,19,19,47,1,,,,,,,,,,,,,,,,,,,,,,,,,,,,,,,,,,
,,,,,,,,,,,,,,1,001,2025-01-02_16h15.49.579,IAT(Formal),2021.2.3,Win32,59.88023952,,,,,,,,,,,,,,,i,0,0.4711,,,,,,俺,e,,,0,20,20,54,1,,,,,,,,,,,,,,,,,,,,,,,,,,,,,,,,,,
,,,,,,,,,,,,,,1,001,2025-01-02_16h15.49.579,IAT(Formal),2021.2.3,Win32,59.88023952,,,,,,,,,,,,,,,e,1,0.7788,,,,,,活泼,e,,,0,21,21,28,1,,,,,,,,,,,,,,,,,,,,,,,,,,,,,,,,,,
,,,,,,,,,,,,,,1,001,2025-01-02_16h15.49.579,IAT(Formal),2021.2.3,Win32,59.88023952,,,,,,,,,,,,,,,i,1,0.5618,,,,,,他人,i,,,0,22,22,78,1,,,,,,,,,,,,,,,,,,,,,,,,,,,,,,,,,,
,,,,,,,,,,,,,,1,001,2025-01-02_16h15.49.579,IAT(Formal),2021.2.3,Win32,59.88023952,,,,,,,,,,,,,,,e,1,0.685,,,,,,我的,e,,,0,23,23,1,1,,,,,,,,,,,,,,,,,,,,,,,,,,,,,,,,,,
,,,,,,,,,,,,,,1,001,2025-01-02_16h15.49.579,IAT(Formal),2021.2.3,Win32,59.88023952,,,,,,,,,,,,,,,i,1,0.6217,,,,,,轻率,i,,,0,24,24,48,1,,,,,,,,,,,,,,,,,,,,,,,,,,,,,,,,,,
,,,,,,,,,,,,,,1,001,2025-01-02_16h15.49.579,IAT(Formal),2021.2.3,Win32,59.88023952,,,,,,,,,,,,,,,e,1,0.5188,,,,,,正直,e,,,0,25,25,16,1,,,,,,,,,,,,,,,,,,,,,,,,,,,,,,,,,,
,,,,,,,,,,,,,,1,001,2025-01-02_16h15.49.579,IAT(Formal),2021.2.3,Win32,59.88023952,,,,,,,,,,,,,,,i,1,0.5531,,,,,,其他,i,,,0,26,26,69,1,,,,,,,,,,,,,,,,,,,,,,,,,,,,,,,,,,
,,,,,,,,,,,,,,1,001,2025-01-02_16h15.49.579,IAT(Formal),2021.2.3,Win32,59.88023952,,,,,,,,,,,,,,,e,1,0.4852,,,,,,我,e,,,0,27,27,70,1,,,,,,,,,,,,,,,,,,,,,,,,,,,,,,,,,,
,,,,,,,,,,,,,,1,001,2025-01-02_16h15.49.579,IAT(Formal),2021.2.3,Win32,59.88023952,,,,,,,,,,,,,,,i,1,0.5011,,,,,,鲁莽,i,,,0,28,28,38,1,,,,,,,,,,,,,,,,,,,,,,,,,,,,,,,,,,
,,,,,,,,,,,,,,1,001,2025-01-02_16h15.49.579,IAT(Formal),2021.2.3,Win32,59.88023952,,,,,,,,,,,,,,,e,1,0.5215,,,,,,乐观,e,,,0,29,29,14,1,,,,,,,,,,,,,,,,,,,,,,,,,,,,,,,,,,
,,,,,,,,,,,,,,1,001,2025-01-02_16h15.49.579,IAT(Formal),2021.2.3,Win32,59.88023952,,,,,,,,,,,,,,,i,1,0.4866,,,,,,其他,i,,,0,30,30,9,1,,,,,,,,,,,,,,,,,,,,,,,,,,,,,,,,,,
,,,,,,,,,,,,,,1,001,2025-01-02_16h15.49.579,IAT(Formal),2021.2.3,Win32,59.88023952,,,,,,,,,,,,,,,i,1,0.7085,,,,,,卑鄙,i,,,0,31,31,30,1,,,,,,,,,,,,,,,,,,,,,,,,,,,,,,,,,,
,,,,,,,,,,,,,,1,001,2025-01-02_16h15.49.579,IAT(Formal),2021.2.3,Win32,59.88023952,,,,,,,,,,,,,,,i,1,0.583,,,,,,散漫,i,,,0,32,32,41,1,,,,,,,,,,,,,,,,,,,,,,,,,,,,,,,,,,
,,,,,,,,,,,,,,1,001,2025-01-02_16h15.49.579,IAT(Formal),2021.2.3,Win32,59.88023952,,,,,,,,,,,,,,,e,1,0.7426,,,,,,冷静,e,,,0,33,33,26,1,,,,,,,,,,,,,,,,,,,,,,,,,,,,,,,,,,
,,,,,,,,,,,,,,1,001,2025-01-02_16h15.49.579,IAT(Formal),2021.2.3,Win32,59.88023952,,,,,,,,,,,,,,,i,1,0.5836,,,,,,其他,i,,,0,34,34,59,1,,,,,,,,,,,,,,,,,,,,,,,,,,,,,,,,,,
,,,,,,,,,,,,,,1,001,2025-01-02_16h15.49.579,IAT(Formal),2021.2.3,Win32,59.88023952,,,,,,,,,,,,,,,e,1,0.6715,,,,,,稳重,e,,,0,35,35,21,1,,,,,,,,,,,,,,,,,,,,,,,,,,,,,,,,,,
,,,,,,,,,,,,,,1,001,2025-01-02_16h15.49.579,IAT(Formal),2021.2.3,Win32,59.88023952,,,,,,,,,,,,,,,i,1,0.5054,,,,,,他的,i,,,0,36,36,57,1,,,,,,,,,,,,,,,,,,,,,,,,,,,,,,,,,,
,,,,,,,,,,,,,,1,001,2025-01-02_16h15.49.579,IAT(Formal),2021.2.3,Win32,59.88023952,,,,,,,,,,,,,,,e,1,0.5383,,,,,,我们,e,,,0,37,37,62,1,,,,,,,,,,,,,,,,,,,,,,,,,,,,,,,,,,
,,,,,,,,,,,,,,1,001,2025-01-02_16h15.49.579,IAT(Formal),2021.2.3,Win32,59.88023952,,,,,,,,,,,,,,,e,1,0.5642,,,,,,诚恳,e,,,0,38,38,29,1,,,,,,,,,,,,,,,,,,,,,,,,,,,,,,,,,,
,,,,,,,,,,,,,,1,001,2025-01-02_16h15.49.579,IAT(Formal),2021.2.3,Win32,59.88023952,,,,,,,,,,,,,,,e,1,0.6728,,,,,,自己,e,,,0,39,39,53,1,,,,,,,,,,,,,,,,,,,,,,,,,,,,,,,,,,
,,,,,,,,,,,,,,1,001,2025-01-02_16h15.49.579,IAT(Formal),2021.2.3,Win32,59.88023952,,,,,,,,,,,,,,,i,1,0.5771,,,,,,猖狂,i,,,0,40,40,45,1,,,,,,,,,,,,,,,,,,,,,,,,,,,,,,,,,,
,,,,,,,,,,,,,,1,001,2025-01-02_16h15.49.579,IAT(Formal),2021.2.3,Win32,59.88023952,,,,,,,,,,,,,,,i,1,0.5102,,,,,,他们,i,,,0,41,41,6,1,,,,,,,,,,,,,,,,,,,,,,,,,,,,,,,,,,
,,,,,,,,,,,,,,1,001,2025-01-02_16h15.49.579,IAT(Formal),2021.2.3,Win32,59.88023952,,,,,,,,,,,,,,,i,1,0.5285,,,,,,他们,i,,,0,42,42,76,1,,,,,,,,,,,,,,,,,,,,,,,,,,,,,,,,,,
,,,,,,,,,,,,,,1,001,2025-01-02_16h15.49.579,IAT(Formal),2021.2.3,Win32,59.88023952,,,,,,,,,,,,,,,i,1,0.5631,,,,,,他人,i,,,0,43,43,68,1,,,,,,,,,,,,,,,,,,,,,,,,,,,,,,,,,,
,,,,,,,,,,,,,,1,001,2025-01-02_16h15.49.579,IAT(Formal),2021.2.3,Win32,59.88023952,,,,,,,,,,,,,,,i,1,0.6743,,,,,,自卑,i,,,0,44,44,36,1,,,,,,,,,,,,,,,,,,,,,,,,,,,,,,,,,,
,,,,,,,,,,,,,,1,001,2025-01-02_16h15.49.579,IAT(Formal),2021.2.3,Win32,59.88023952,,,,,,,,,,,,,,,e,1,0.5924,,,,,,认真,e,,,0,45,45,20,1,,,,,,,,,,,,,,,,,,,,,,,,,,,,,,,,,,
,,,,,,,,,,,,,,1,001,2025-01-02_16h15.49.579,IAT(Formal),2021.2.3,Win32,59.88023952,,,,,,,,,,,,,,,e,1,0.7746,,,,,,崇高,e,,,0,46,46,11,1,,,,,,,,,,,,,,,,,,,,,,,,,,,,,,,,,,
,,,,,,,,,,,,,,1,001,2025-01-02_16h15.49.579,IAT(Formal),2021.2.3,Win32,59.88023952,,,,,,,,,,,,,,,e,1,0.8782,,,,,,我,e,,,0,47,47,50,1,,,,,,,,,,,,,,,,,,,,,,,,,,,,,,,,,,
,,,,,,,,,,,,,,1,001,2025-01-02_16h15.49.579,IAT(Formal),2021.2.3,Win32,59.88023952,,,,,,,,,,,,,,,e,1,0.5024,,,,,,俺,e,,,0,48,48,64,1,,,,,,,,,,,,,,,,,,,,,,,,,,,,,,,,,,
,,,,,,,,,,,,,,1,001,2025-01-02_16h15.49.579,IAT(Formal),2021.2.3,Win32,59.88023952,,,,,,,,,,,,,,,i,1,0.4612,,,,,,执拗,i,,,0,49,49,40,1,,,,,,,,,,,,,,,,,,,,,,,,,,,,,,,,,,
,,,,,,,,,,,,,,1,001,2025-01-02_16h15.49.579,IAT(Formal),2021.2.3,Win32,59.88023952,,,,,,,,,,,,,,,i,1,0.5052,,,,,,暴躁,i,,,0,50,50,44,1,,,,,,,,,,,,,,,,,,,,,,,,,,,,,,,,,,
,,,,,,,,,,,,,,1,001,2025-01-02_16h15.49.579,IAT(Formal),2021.2.3,Win32,59.88023952,,,,,,,,,,,,,,,i,1,0.4682,,,,,,他们,i,,,0,51,51,56,1,,,,,,,,,,,,,,,,,,,,,,,,,,,,,,,,,,
,,,,,,,,,,,,,,1,001,2025-01-02_16h15.49.579,IAT(Formal),2021.2.3,Win32,59.88023952,,,,,,,,,,,,,,,i,1,0.4701,,,,,,他的,i,,,0,52,52,67,1,,,,,,,,,,,,,,,,,,,,,,,,,,,,,,,,,,
,,,,,,,,,,,,,,1,001,2025-01-02_16h15.49.579,IAT(Formal),2021.2.3,Win32,59.88023952,,,,,,,,,,,,,,,i,1,1.0596,,,,,,虚伪,i,,,0,53,53,31,1,,,,,,,,,,,,,,,,,,,,,,,,,,,,,,,,,,
,,,,,,,,,,,,,,1,001,2025-01-02_16h15.49.579,IAT(Formal),2021.2.3,Win32,59.88023952,,,,,,,,,,,,,,,e,1,0.6318,,,,,,我们,e,,,0,54,54,72,1,,,,,,,,,,,,,,,,,,,,,,,,,,,,,,,,,,
,,,,,,,,,,,,,,1,001,2025-01-02_16h15.49.579,IAT(Formal),2021.2.3,Win32,59.88023952,,,,,,,,,,,,,,,i,1,0.4577,,,,,,他人,i,,,0,55,55,58,1,,,,,,,,,,,,,,,,,,,,,,,,,,,,,,,,,,
,,,,,,,,,,,,,,1,001,2025-01-02_16h15.49.579,IAT(Formal),2021.2.3,Win32,59.88023952,,,,,,,,,,,,,,,e,1,0.6095,,,,,,热情,e,,,0,56,56,27,1,,,,,,,,,,,,,,,,,,,,,,,,,,,,,,,,,,
,,,,,,,,,,,,,,1,001,2025-01-02_16h15.49.579,IAT(Formal),2021.2.3,Win32,59.88023952,,,,,,,,,,,,,,,e,1,0.6066,,,,,,自己,e,,,0,57,57,3,1,,,,,,,,,,,,,,,,,,,,,,,,,,,,,,,,,,
,,,,,,,,,,,,,,1,001,2025-01-02_16h15.49.579,IAT(Formal),2021.2.3,Win32,59.88023952,,,,,,,,,,,,,,,e,1,0.5678,,,,,,勇敢,e,,,0,58,58,17,1,,,,,,,,,,,,,,,,,,,,,,,,,,,,,,,,,,
,,,,,,,,,,,,,,1,001,2025-01-02_16h15.49.579,IAT(Formal),2021.2.3,Win32,59.88023952,,,,,,,,,,,,,,,e,1,0.3715,,,,,,优秀,e,,,0,59,59,10,1,,,,,,,,,,,,,,,,,,,,,,,,,,,,,,,,,,
,,,,,,,,,,,,,,1,001,2025-01-02_16h15.49.579,IAT(Formal),2021.2.3,Win32,59.88023952,,,,,,,,,,,,,,,e,1,0.4021,,,,,,我的,e,,,0,60,60,71,1,,,,,,,,,,,,,,,,,,,,,,,,,,,,,,,,,,
,,,,,,,,,,,,,,1,001,2025-01-02_16h15.49.579,IAT(Formal),2021.2.3,Win32,59.88023952,,,,,,,,,,,,,,,e,1,0.2866,,,,,,聪明,e,,,0,61,61,12,1,,,,,,,,,,,,,,,,,,,,,,,,,,,,,,,,,,
,,,,,,,,,,,,,,1,001,2025-01-02_16h15.49.579,IAT(Formal),2021.2.3,Win32,59.88023952,,,,,,,,,,,,,,,e,1,0.3788,,,,,,杰出,e,,,0,62,62,13,1,,,,,,,,,,,,,,,,,,,,,,,,,,,,,,,,,,
,,,,,,,,,,,,,,1,001,2025-01-02_16h15.49.579,IAT(Formal),2021.2.3,Win32,59.88023952,,,,,,,,,,,,,,,e,0,0.5035,,,,,,其他,i,,,0,63,63,79,1,,,,,,,,,,,,,,,,,,,,,,,,,,,,,,,,,,
,,,,,,,,,,,,,,1,001,2025-01-02_16h15.49.579,IAT(Formal),2021.2.3,Win32,59.88023952,,,,,,,,,,,,,,,e,1,0.5348,,,,,,我的,e,,,0,64,64,61,1,,,,,,,,,,,,,,,,,,,,,,,,,,,,,,,,,,
,,,,,,,,,,,,,,1,001,2025-01-02_16h15.49.579,IAT(Formal),2021.2.3,Win32,59.88023952,,,,,,,,,,,,,,,i,1,0.4765,,,,,,他,i,,,0,65,65,75,1,,,,,,,,,,,,,,,,,,,,,,,,,,,,,,,,,,
,,,,,,,,,,,,,,1,001,2025-01-02_16h15.49.579,IAT(Formal),2021.2.3,Win32,59.88023952,,,,,,,,,,,,,,,i,1,0.6589,,,,,,刻薄,i,,,0,66,66,33,1,,,,,,,,,,,,,,,,,,,,,,,,,,,,,,,,,,
,,,,,,,,,,,,,,1,001,2025-01-02_16h15.49.579,IAT(Formal),2021.2.3,Win32,59.88023952,,,,,,,,,,,,,,,i,1,0.6336,,,,,,他,i,,,0,67,67,65,1,,,,,,,,,,,,,,,,,,,,,,,,,,,,,,,,,,
,,,,,,,,,,,,,,1,001,2025-01-02_16h15.49.579,IAT(Formal),2021.2.3,Win32,59.88023952,,,,,,,,,,,,,,,e,1,0.4853,,,,,,我的,e,,,0,68,68,51,1,,,,,,,,,,,,,,,,,,,,,,,,,,,,,,,,,,
,,,,,,,,,,,,,,1,001,2025-01-02_16h15.49.579,IAT(Formal),2021.2.3,Win32,59.88023952,,,,,,,,,,,,,,,i,1,0.4837,,,,,,凶狠,i,,,0,69,69,42,1,,,,,,,,,,,,,,,,,,,,,,,,,,,,,,,,,,
,,,,,,,,,,,,,,1,001,2025-01-02_16h15.49.579,IAT(Formal),2021.2.3,Win32,59.88023952,,,,,,,,,,,,,,,i,1,0.4689,,,,,,傲慢,i,,,0,70,70,37,1,,,,,,,,,,,,,,,,,,,,,,,,,,,,,,,,,,
,,,,,,,,,,,,,,1,001,2025-01-02_16h15.49.579,IAT(Formal),2021.2.3,Win32,59.88023952,,,,,,,,,,,,,,,e,1,1.0198,,,,,,我,e,,,0,71,71,60,1,,,,,,,,,,,,,,,,,,,,,,,,,,,,,,,,,,
,,,,,,,,,,,,,,1,001,2025-01-02_16h15.49.579,IAT(Formal),2021.2.3,Win32,59.88023952,,,,,,,,,,,,,,,e,1,0.4773,,,,,,自己,e,,,0,72,72,63,1,,,,,,,,,,,,,,,,,,,,,,,,,,,,,,,,,,
,,,,,,,,,,,,,,1,001,2025-01-02_16h15.49.579,IAT(Formal),2021.2.3,Win32,59.88023952,,,,,,,,,,,,,,,i,1,0.5678,,,,,,他们,i,,,0,73,73,66,1,,,,,,,,,,,,,,,,,,,,,,,,,,,,,,,,,,
,,,,,,,,,,,,,,1,001,2025-01-02_16h15.49.579,IAT(Formal),2021.2.3,Win32,59.88023952,,,,,,,,,,,,,,,i,1,0.619,,,,,,愚蠢,i,,,0,74,74,32,1,,,,,,,,,,,,,,,,,,,,,,,,,,,,,,,,,,
,,,,,,,,,,,,,,1,001,2025-01-02_16h15.49.579,IAT(Formal),2021.2.3,Win32,59.88023952,,,,,,,,,,,,,,,i,1,0.5587,,,,,,下贱,i,,,0,75,75,49,1,,,,,,,,,,,,,,,,,,,,,,,,,,,,,,,,,,
,,,,,,,,,,,,,,1,001,2025-01-02_16h15.49.579,IAT(Formal),2021.2.3,Win32,59.88023952,,,,,,,,,,,,,,,e,1,1.0112,,,,,,细腻,e,,,0,76,76,25,1,,,,,,,,,,,,,,,,,,,,,,,,,,,,,,,,,,
,,,,,,,,,,,,,,1,001,2025-01-02_16h15.49.579,IAT(Formal),2021.2.3,Win32,59.88023952,,,,,,,,,,,,,,,e,1,0.8945,,,,,,俺,e,,,0,77,77,4,1,,,,,,,,,,,,,,,,,,,,,,,,,,,,,,,,,,
,,,,,,,,,,,,,,1,001,2025-01-02_16h15.49.579,IAT(Formal),2021.2.3,Win32,59.88023952,,,,,,,,,,,,,,,e,1,1.1423,,,,,,无私,e,,,0,78,78,22,1,,,,,,,,,,,,,,,,,,,,,,,,,,,,,,,,,,
,,,,,,,,,,,,,,1,001,2025-01-02_16h15.49.579,IAT(Formal),2021.2.3,Win32,59.88023952,,,,,,,,,,,,,,,e,1,0.4699,,,,,,自己,e,,,0,79,79,73,1,,,,,,,,,,,,,,,,,,,,,,,,,,,,,,,,,,
,,,,,,,,,,,,,,1,001,2025-01-02_16h15.49.579,IAT(Formal),2021.2.3,Win32,59.88023952,,,,,,,,,,,,,,,e,1,0.5619,,,,,,勤奋,e,,,1,0,80,18,1,,,,,,,,,,,,,,,,,,,,,,,,,,,,,,,,,,
,,,,,,,,,,,,,,1,001,2025-01-02_16h15.49.579,IAT(Formal),2021.2.3,Win32,59.88023952,,,,,,,,,,,,,,,e,1,0.4789,,,,,,我们,e,,,1,1,81,2,1,,,,,,,,,,,,,,,,,,,,,,,,,,,,,,,,,,
,,,,,,,,,,,,,,1,001,2025-01-02_16h15.49.579,IAT(Formal),2021.2.3,Win32,59.88023952,,,,,,,,,,,,,,,i,1,0.893,,,,,,轻率,i,,,1,2,82,48,1,,,,,,,,,,,,,,,,,,,,,,,,,,,,,,,,,,
,,,,,,,,,,,,,,1,001,2025-01-02_16h15.49.579,IAT(Formal),2021.2.3,Win32,59.88023952,,,,,,,,,,,,,,,i,1,0.4845,,,,,,他,i,,,1,3,83,55,1,,,,,,,,,,,,,,,,,,,,,,,,,,,,,,,,,,
,,,,,,,,,,,,,,1,001,2025-01-02_16h15.49.579,IAT(Formal),2021.2.3,Win32,59.88023952,,,,,,,,,,,,,,,i,0,0.1887,,,,,,我,e,,,1,4,84,60,1,,,,,,,,,,,,,,,,,,,,,,,,,,,,,,,,,,
,,,,,,,,,,,,,,1,001,2025-01-02_16h15.49.579,IAT(Formal),2021.2.3,Win32,59.88023952,,,,,,,,,,,,,,,e,1,0.5326,,,,,,我们,e,,,1,5,85,52,1,,,,,,,,,,,,,,,,,,,,,,,,,,,,,,,,,,
,,,,,,,,,,,,,,1,001,2025-01-02_16h15.49.579,IAT(Formal),2021.2.3,Win32,59.88023952,,,,,,,,,,,,,,,i,1,0.4429,,,,,,他的,i,,,1,6,86,7,1,,,,,,,,,,,,,,,,,,,,,,,,,,,,,,,,,,
,,,,,,,,,,,,,,1,001,2025-01-02_16h15.49.579,IAT(Formal),2021.2.3,Win32,59.88023952,,,,,,,,,,,,,,,i,1,0.6447,,,,,,自私,i,,,1,7,87,43,1,,,,,,,,,,,,,,,,,,,,,,,,,,,,,,,,,,
,,,,,,,,,,,,,,1,001,2025-01-02_16h15.49.579,IAT(Formal),2021.2.3,Win32,59.88023952,,,,,,,,,,,,,,,i,1,0.5512,,,,,,其他,i,,,1,8,88,69,1,,,,,,,,,,,,,,,,,,,,,,,,,,,,,,,,,,
,,,,,,,,,,,,,,1,001,2025-01-02_16h15.49.579,IAT(Formal),2021.2.3,Win32,59.88023952,,,,,,,,,,,,,,,e,1,0.5862,,,,,,稳重,e,,,1,9,89,21,1,,,,,,,,,,,,,,,,,,,,,,,,,,,,,,,,,,
,,,,,,,,,,,,,,1,001,2025-01-02_16h15.49.579,IAT(Formal),2021.2.3,Win32,59.88023952,,,,,,,,,,,,,,,i,1,0.6258,,,,,,悲观,i,,,1,10,90,34,1,,,,,,,,,,,,,,,,,,,,,,,,,,,,,,,,,,
,,,,,,,,,,,,,,1,001,2025-01-02_16h15.49.579,IAT(Formal),2021.2.3,Win32,59.88023952,,,,,,,,,,,,,,,e,1,0.6255,,,,,,我的,e,,,1,11,91,71,1,,,,,,,,,,,,,,,,,,,,,,,,,,,,,,,,,,
,,,,,,,,,,,,,,1,001,2025-01-02_16h15.49.579,IAT(Formal),2021.2.3,Win32,59.88023952,,,,,,,,,,,,,,,i,1,0.5776,,,,,,下贱,i,,,1,12,92,49,1,,,,,,,,,,,,,,,,,,,,,,,,,,,,,,,,,,
,,,,,,,,,,,,,,1,001,2025-01-02_16h15.49.579,IAT(Formal),2021.2.3,Win32,59.88023952,,,,,,,,,,,,,,,e,1,0.5883,,,,,,俺,e,,,1,13,93,54,1,,,,,,,,,,,,,,,,,,,,,,,,,,,,,,,,,,
,,,,,,,,,,,,,,1,001,2025-01-02_16h15.49.579,IAT(Formal),2021.2.3,Win32,59.88023952,,,,,,,,,,,,,,,i,1,0.6069,,,,,,他们,i,,,1,14,94,56,1,,,,,,,,,,,,,,,,,,,,,,,,,,,,,,,,,,
,,,,,,,,,,,,,,1,001,2025-01-02_16h15.49.579,IAT(Formal),2021.2.3,Win32,59.88023952,,,,,,,,,,,,,,,e,1,0.5228,,,,,,我的,e,,,1,15,95,51,1,,,,,,,,,,,,,,,,,,,,,,,,,,,,,,,,,,
,,,,,,,,,,,,,,1,001,2025-01-02_16h15.49.579,IAT(Formal),2021.2.3,Win32,59.88023952,,,,,,,,,,,,,,,i,1,0.6423,,,,,,自卑,i,,,1,16,96,36,1,,,,,,,,,,,,,,,,,,,,,,,,,,,,,,,,,,
,,,,,,,,,,,,,,1,001,2025-01-02_16h15.49.579,IAT(Formal),2021.2.3,Win32,59.88023952,,,,,,,,,,,,,,,e,1,0.5999,,,,,,朴实,e,,,1,17,97,24,1,,,,,,,,,,,,,,,,,,,,,,,,,,,,,,,,,,
,,,,,,,,,,,,,,1,001,2025-01-02_16h15.49.579,IAT(Formal),2021.2.3,Win32,59.88023952,,,,,,,,,,,,,,,i,1,0.5917,,,,,,他,i,,,1,18,98,65,1,,,,,,,,,,,,,,,,,,,,,,,,,,,,,,,,,,
,,,,,,,,,,,,,,1,001,2025-01-02_16h15.49.579,IAT(Formal),2021.2.3,Win32,59.88023952,,,,,,,,,,,,,,,i,1,0.6025,,,,,,傲慢,i,,,1,19,99,37,1,,,,,,,,,,,,,,,,,,,,,,,,,,,,,,,,,,
,,,,,,,,,,,,,,1,001,2025-01-02_16h15.49.579,IAT(Formal),2021.2.3,Win32,59.88023952,,,,,,,,,,,,,,,i,1,0.519,,,,,,凶狠,i,,,1,20,100,42,1,,,,,,,,,,,,,,,,,,,,,,,,,,,,,,,,,,
,,,,,,,,,,,,,,1,001,2025-01-02_16h15.49.579,IAT(Formal),2021.2.3,Win32,59.88023952,,,,,,,,,,,,,,,e,1,0.6841,,,,,,我,e,,,1,21,101,0,1,,,,,,,,,,,,,,,,,,,,,,,,,,,,,,,,,,
,,,,,,,,,,,,,,1,001,2025-01-02_16h15.49.579,IAT(Formal),2021.2.3,Win32,59.88023952,,,,,,,,,,,,,,,i,1,0.5216,,,,,,他的,i,,,1,22,102,67,1,,,,,,,,,,,,,,,,,,,,,,,,,,,,,,,,,,
,,,,,,,,,,,,,,1,001,2025-01-02_16h15.49.579,IAT(Formal),2021.2.3,Win32,59.88023952,,,,,,,,,,,,,,,i,1,0.5356,,,,,,他的,i,,,1,23,103,57,1,,,,,,,,,,,,,,,,,,,,,,,,,,,,,,,,,,
,,,,,,,,,,,,,,1,001,2025-01-02_16h15.49.579,IAT(Formal),2021.2.3,Win32,59.88023952,,,,,,,,,,,,,,,e,1,0.6338,,,,,,活泼,e,,,1,24,104,28,1,,,,,,,,,,,,,,,,,,,,,,,,,,,,,,,,,,
,,,,,,,,,,,,,,1,001,2025-01-02_16h15.49.579,IAT(Formal),2021.2.3,Win32,59.88023952,,,,,,,,,,,,,,,e,1,0.686,,,,,,杰出,e,,,1,25,105,13,1,,,,,,,,,,,,,,,,,,,,,,,,,,,,,,,,,,
,,,,,,,,,,,,,,1,001,2025-01-02_16h15.49.579,IAT(Formal),2021.2.3,Win32,59.88023952,,,,,,,,,,,,,,,e,1,0.4959,,,,,,乐观,e,,,1,26,106,14,1,,,,,,,,,,,,,,,,,,,,,,,,,,,,,,,,,,
,,,,,,,,,,,,,,1,001,2025-01-02_16h15.49.579,IAT(Formal),2021.2.3,Win32,59.88023952,,,,,,,,,,,,,,,e,1,0.5937,,,,,,诚实,e,,,1,27,107,15,1,,,,,,,,,,,,,,,,,,,,,,,,,,,,,,,,,,
,,,,,,,,,,,,,,1,001,2025-01-02_16h15.49.579,IAT(Formal),2021.2.3,Win32,59.88023952,,,,,,,,,,,,,,,e,1,0.6875,,,,,,我们,e,,,1,28,108,72,1,,,,,,,,,,,,,,,,,,,,,,,,,,,,,,,,,,
,,,,,,,,,,,,,,1,001,2025-01-02_16h15.49.579,IAT(Formal),2021.2.3,Win32,59.88023952,,,,,,,,,,,,,,,e,1,0.5537,,,,,,细腻,e,,,1,29,109,25,1,,,,,,,,,,,,,,,,,,,,,,,,,,,,,,,,,,
,,,,,,,,,,,,,,1,001,2025-01-02_16h15.49.579,IAT(Formal),2021.2.3,Win32,59.88023952,,,,,,,,,,,,,,,e,1,0.7388,,,,,,俺,e,,,1,30,110,4,1,,,,,,,,,,,,,,,,,,,,,,,,,,,,,,,,,,
,,,,,,,,,,,,,,1,001,2025-01-02_16h15.49.579,IAT(Formal),2021.2.3,Win32,59.88023952,,,,,,,,,,,,,,,i,1,0.6022,,,,,,其他,i,,,1,31,111,79,1,,,,,,,,,,,,,,,,,,,,,,,,,,,,,,,,,,
,,,,,,,,,,,,,,1,001,2025-01-02_16h15.49.579,IAT(Formal),2021.2.3,Win32,59.88023952,,,,,,,,,,,,,,,e,1,0.552,,,,,,我们,e,,,1,32,112,62,1,,,,,,,,,,,,,,,,,,,,,,,,,,,,,,,,,,
,,,,,,,,,,,,,,1,001,2025-01-02_16h15.49.579,IAT(Formal),2021.2.3,Win32,59.88023952,,,,,,,,,,,,,,,i,1,0.5042,,,,,,他人,i,,,1,33,113,68,1,,,,,,,,,,,,,,,,,,,,,,,,,,,,,,,,,,
,,,,,,,,,,,,,,1,001,2025-01-02_16h15.49.579,IAT(Formal),2021.2.3,Win32,59.88023952,,,,,,,,,,,,,,,i,1,0.4607,,,,,,他人,i,,,1,34,114,8,1,,,,,,,,,,,,,,,,,,,,,,,,,,,,,,,,,,
,,,,,,,,,,,,,,1,001,2025-01-02_16h15.49.579,IAT(Formal),2021.2.3,Win32,59.88023952,,,,,,,,,,,,,,,i,1,0.4259,,,,,,他,i,,,1,35,115,75,1,,,,,,,,,,,,,,,,,,,,,,,,,,,,,,,,,,
,,,,,,,,,,,,,,1,001,2025-01-02_16h15.49.579,IAT(Formal),2021.2.3,Win32,59.88023952,,,,,,,,,,,,,,,i,1,0.7514,,,,,,固执,i,,,1,36,116,47,1,,,,,,,,,,,,,,,,,,,,,,,,,,,,,,,,,,
,,,,,,,,,,,,,,1,001,2025-01-02_16h15.49.579,IAT(Formal),2021.2.3,Win32,59.88023952,,,,,,,,,,,,,,,e,1,0.6363,,,,,,聪明,e,,,1,37,117,12,1,,,,,,,,,,,,,,,,,,,,,,,,,,,,,,,,,,
,,,,,,,,,,,,,,1,001,2025-01-02_16h15.49.579,IAT(Formal),2021.2.3,Win32,59.88023952,,,,,,,,,,,,,,,i,0,0.5068,,,,,,冷静,e,,,1,38,118,26,1,,,,,,,,,,,,,,,,,,,,,,,,,,,,,,,,,,
,,,,,,,,,,,,,,1,001,2025-01-02_16h15.49.579,IAT(Formal),2021.2.3,Win32,59.88023952,,,,,,,,,,,,,,,e,1,0.6401,,,,,,我,e,,,1,39,119,50,1,,,,,,,,,,,,,,,,,,,,,,,,,,,,,,,,,,
,,,,,,,,,,,,,,1,001,2025-01-02_16h15.49.579,IAT(Formal),2021.2.3,Win32,59.88023952,,,,,,,,,,,,,,,i,1,0.5055,,,,,,他们,i,,,1,40,120,66,1,,,,,,,,,,,,,,,,,,,,,,,,,,,,,,,,,,
,,,,,,,,,,,,,,1,001,2025-01-02_16h15.49.579,IAT(Formal),2021.2.3,Win32,59.88023952,,,,,,,,,,,,,,,i,1,0.5703,,,,,,散漫,i,,,1,41,121,41,1,,,,,,,,,,,,,,,,,,,,,,,,,,,,,,,,,,
,,,,,,,,,,,,,,1,001,2025-01-02_16h15.49.579,IAT(Formal),2021.2.3,Win32,59.88023952,,,,,,,,,,,,,,,e,1,0.4708,,,,,,我的,e,,,1,42,122,1,1,,,,,,,,,,,,,,,,,,,,,,,,,,,,,,,,,,
,,,,,,,,,,,,,,1,001,2025-01-02_16h15.49.579,IAT(Formal),2021.2.3,Win32,59.88023952,,,,,,,,,,,,,,,e,1,0.5842,,,,,,机智,e,,,1,43,123,19,1,,,,,,,,,,,,,,,,,,,,,,,,,,,,,,,,,,
,,,,,,,,,,,,,,1,001,2025-01-02_16h15.49.579,IAT(Formal),2021.2.3,Win32,59.88023952,,,,,,,,,,,,,,,i,1,0.5192,,,,,,他人,i,,,1,44,124,78,1,,,,,,,,,,,,,,,,,,,,,,,,,,,,,,,,,,
,,,,,,,,,,,,,,1,001,2025-01-02_16h15.49.579,IAT(Formal),2021.2.3,Win32,59.88023952,,,,,,,,,,,,,,,e,1,0.6327,,,,,,无私,e,,,1,45,125,22,1,,,,,,,,,,,,,,,,,,,,,,,,,,,,,,,,,,
,,,,,,,,,,,,,,1,001,2025-01-02_16h15.49.579,IAT(Formal),2021.2.3,Win32,59.88023952,,,,,,,,,,,,,,,e,1,0.5024,,,,,,俺,e,,,1,46,126,64,1,,,,,,,,,,,,,,,,,,,,,,,,,,,,,,,,,,
,,,,,,,,,,,,,,1,001,2025-01-02_16h15.49.579,IAT(Formal),2021.2.3,Win32,59.88023952,,,,,,,,,,,,,,,e,1,0.7866,,,,,,自己,e,,,1,47,127,53,1,,,,,,,,,,,,,,,,,,,,,,,,,,,,,,,,,,
,,,,,,,,,,,,,,1,001,2025-01-02_16h15.49.579,IAT(Formal),2021.2.3,Win32,59.88023952,,,,,,,,,,,,,,,i,1,0.6623,,,,,,执拗,i,,,1,48,128,40,1,,,,,,,,,,,,,,,,,,,,,,,,,,,,,,,,,,
,,,,,,,,,,,,,,1,001,2025-01-02_16h15.49.579,IAT(Formal),2021.2.3,Win32,59.88023952,,,,,,,,,,,,,,,e,0,0.668,,,,,,虚伪,i,,,1,49,129,31,1,,,,,,,,,,,,,,,,,,,,,,,,,,,,,,,,,,
,,,,,,,,,,,,,,1,001,2025-01-02_16h15.49.579,IAT(Formal),2021.2.3,Win32,59.88023952,,,,,,,,,,,,,,,i,1,0.6444,,,,,,其他,i,,,1,50,130,59,1,,,,,,,,,,,,,,,,,,,,,,,,,,,,,,,,,,
,,,,,,,,,,,,,,1,001,2025-01-02_16h15.49.579,IAT(Formal),2021.2.3,Win32,59.88023952,,,,,,,,,,,,,,,i,1,0.6222,,,,,,暴躁,i,,,1,51,131,44,1,,,,,,,,,,,,,,,,,,,,,,,,,,,,,,,,,,
,,,,,,,,,,,,,,1,001,2025-01-02_16h15.49.579,IAT(Formal),2021.2.3,Win32,59.88023952,,,,,,,,,,,,,,,i,1,0.646,,,,,,他们,i,,,1,52,132,76,1,,,,,,,,,,,,,,,,,,,,,,,,,,,,,,,,,,
,,,,,,,,,,,,,,1,001,2025-01-02_16h15.49.579,IAT(Formal),2021.2.3,Win32,59.88023952,,,,,,,,,,,,,,,i,1,0.4337,,,,,,他,i,,,1,53,133,5,1,,,,,,,,,,,,,,,,,,,,,,,,,,,,,,,,,,
,,,,,,,,,,,,,,1,001,2025-01-02_16h15.49.579,IAT(Formal),2021.2.3,Win32,59.88023952,,,,,,,,,,,,,,,e,1,1.1673,,,,,,勇敢,e,,,1,54,134,17,1,,,,,,,,,,,,,,,,,,,,,,,,,,,,,,,,,,
,,,,,,,,,,,,,,1,001,2025-01-02_16h15.49.579,IAT(Formal),2021.2.3,Win32,59.88023952,,,,,,,,,,,,,,,e,1,0.7077,,,,,,俺,e,,,1,55,135,74,1,,,,,,,,,,,,,,,,,,,,,,,,,,,,,,,,,,
,,,,,,,,,,,,,,1,001,2025-01-02_16h15.49.579,IAT(Formal),2021.2.3,Win32,59.88023952,,,,,,,,,,,,,,,i,1,0.768,,,,,,他的,i,,,1,56,136,77,1,,,,,,,,,,,,,,,,,,,,,,,,,,,,,,,,,,
,,,,,,,,,,,,,,1,001,2025-01-02_16h15.49.579,IAT(Formal),2021.2.3,Win32,59.88023952,,,,,,,,,,,,,,,i,1,0.7582,,,,,,猖狂,i,,,1,57,137,45,1,,,,,,,,,,,,,,,,,,,,,,,,,,,,,,,,,,
,,,,,,,,,,,,,,1,001,2025-01-02_16h15.49.579,IAT(Formal),2021.2.3,Win32,59.88023952,,,,,,,,,,,,,,,e,1,0.7611,,,,,,自己,e,,,1,58,138,3,1,,,,,,,,,,,,,,,,,,,,,,,,,,,,,,,,,,
,,,,,,,,,,,,,,1,001,2025-01-02_16h15.49.579,IAT(Formal),2021.2.3,Win32,59.88023952,,,,,,,,,,,,,,,e,1,0.5361,,,,,,正直,e,,,1,59,139,16,1,,,,,,,,,,,,,,,,,,,,,,,,,,,,,,,,,,
,,,,,,,,,,,,,,1,001,2025-01-02_16h15.49.579,IAT(Formal),2021.2.3,Win32,59.88023952,,,,,,,,,,,,,,,i,1,0.7583,,,,,,愚蠢,i,,,1,60,140,32,1,,,,,,,,,,,,,,,,,,,,,,,,,,,,,,,,,,
,,,,,,,,,,,,,,1,001,2025-01-02_16h15.49.579,IAT(Formal),2021.2.3,Win32,59.88023952,,,,,,,,,,,,,,,e,1,0.5576,,,,,,我的,e,,,1,61,141,61,1,,,,,,,,,,,,,,,,,,,,,,,,,,,,,,,,,,
,,,,,,,,,,,,,,1,001,2025-01-02_16h15.49.579,IAT(Formal),2021.2.3,Win32,59.88023952,,,,,,,,,,,,,,,i,1,0.7414,,,,,,其他,i,,,1,62,142,9,1,,,,,,,,,,,,,,,,,,,,,,,,,,,,,,,,,,
,,,,,,,,,,,,,,1,001,2025-01-02_16h15.49.579,IAT(Formal),2021.2.3,Win32,59.88023952,,,,,,,,,,,,,,,i,1,0.7508,,,,,,卑鄙,i,,,1,63,143,30,1,,,,,,,,,,,,,,,,,,,,,,,,,,,,,,,,,,
,,,,,,,,,,,,,,1,001,2025-01-02_16h15.49.579,IAT(Formal),2021.2.3,Win32,59.88023952,,,,,,,,,,,,,,,e,1,0.6454,,,,,,自己,e,,,1,64,144,63,1,,,,,,,,,,,,,,,,,,,,,,,,,,,,,,,,,,
,,,,,,,,,,,,,,1,001,2025-01-02_16h15.49.579,IAT(Formal),2021.2.3,Win32,59.88023952,,,,,,,,,,,,,,,i,1,0.6406,,,,,,鲁莽,i,,,1,65,145,38,1,,,,,,,,,,,,,,,,,,,,,,,,,,,,,,,,,,
,,,,,,,,,,,,,,1,001,2025-01-02_16h15.49.579,IAT(Formal),2021.2.3,Win32,59.88023952,,,,,,,,,,,,,,,i,1,0.6591,,,,,,消极,i,,,1,66,146,35,1,,,,,,,,,,,,,,,,,,,,,,,,,,,,,,,,,,
,,,,,,,,,,,,,,1,001,2025-01-02_16h15.49.579,IAT(Formal),2021.2.3,Win32,59.88023952,,,,,,,,,,,,,,,e,1,0.6561,,,,,,崇高,e,,,1,67,147,11,1,,,,,,,,,,,,,,,,,,,,,,,,,,,,,,,,,,
,,,,,,,,,,,,,,1,001,2025-01-02_16h15.49.579,IAT(Formal),2021.2.3,Win32,59.88023952,,,,,,,,,,,,,,,e,1,0.664,,,,,,优秀,e,,,1,68,148,10,1,,,,,,,,,,,,,,,,,,,,,,,,,,,,,,,,,,
,,,,,,,,,,,,,,1,001,2025-01-02_16h15.49.579,IAT(Formal),2021.2.3,Win32,59.88023952,,,,,,,,,,,,,,,e,1,0.6448,,,,,,我,e,,,1,69,149,70,1,,,,,,,,,,,,,,,,,,,,,,,,,,,,,,,,,,
,,,,,,,,,,,,,,1,001,2025-01-02_16h15.49.579,IAT(Formal),2021.2.3,Win32,59.88023952,,,,,,,,,,,,,,,i,1,1.3693,,,,,,野蛮,i,,,1,70,150,46,1,,,,,,,,,,,,,,,,,,,,,,,,,,,,,,,,,,
,,,,,,,,,,,,,,1,001,2025-01-02_16h15.49.579,IAT(Formal),2021.2.3,Win32,59.88023952,,,,,,,,,,,,,,,i,1,0.6222,,,,,,冒失,i,,,1,71,151,39,1,,,,,,,,,,,,,,,,,,,,,,,,,,,,,,,,,,
,,,,,,,,,,,,,,1,001,2025-01-02_16h15.49.579,IAT(Formal),2021.2.3,Win32,59.88023952,,,,,,,,,,,,,,,e,1,0.6681,,,,,,诚恳,e,,,1,72,152,29,1,,,,,,,,,,,,,,,,,,,,,,,,,,,,,,,,,,
,,,,,,,,,,,,,,1,001,2025-01-02_16h15.49.579,IAT(Formal),2021.2.3,Win32,59.88023952,,,,,,,,,,,,,,,e,1,0.6307,,,,,,自己,e,,,1,73,153,73,1,,,,,,,,,,,,,,,,,,,,,,,,,,,,,,,,,,
,,,,,,,,,,,,,,1,001,2025-01-02_16h15.49.579,IAT(Formal),2021.2.3,Win32,59.88023952,,,,,,,,,,,,,,,i,1,0.6918,,,,,,刻薄,i,,,1,74,154,33,1,,,,,,,,,,,,,,,,,,,,,,,,,,,,,,,,,,
,,,,,,,,,,,,,,1,001,2025-01-02_16h15.49.579,IAT(Formal),2021.2.3,Win32,59.88023952,,,,,,,,,,,,,,,e,1,0.9074,,,,,,热情,e,,,1,75,155,27,1,,,,,,,,,,,,,,,,,,,,,,,,,,,,,,,,,,
,,,,,,,,,,,,,,1,001,2025-01-02_16h15.49.579,IAT(Formal),2021.2.3,Win32,59.88023952,,,,,,,,,,,,,,,i,1,0.6255,,,,,,他们,i,,,1,76,156,6,1,,,,,,,,,,,,,,,,,,,,,,,,,,,,,,,,,,
,,,,,,,,,,,,,,1,001,2025-01-02_16h15.49.579,IAT(Formal),2021.2.3,Win32,59.88023952,,,,,,,,,,,,,,,e,1,0.5785,,,,,,认真,e,,,1,77,157,20,1,,,,,,,,,,,,,,,,,,,,,,,,,,,,,,,,,,
,,,,,,,,,,,,,,1,001,2025-01-02_16h15.49.579,IAT(Formal),2021.2.3,Win32,59.88023952,,,,,,,,,,,,,,,e,1,0.9033,,,,,,公正,e,,,1,78,158,23,1,,,,,,,,,,,,,,,,,,,,,,,,,,,,,,,,,,
,,,,,,,,,,,,,,1,001,2025-01-02_16h15.49.579,IAT(Formal),2021.2.3,Win32,59.88023952,,,,,,,,,,,,,,,i,1,0.6094,,,,,,他人,i,,,1,79,159,58,1,,,,,,,,,,,,,,,,,,,,,,,,,,,,,,,,,,
,,,,,,,,,,,,他人,e,1,001,2025-01-02_16h15.49.579,IAT(Formal),2021.2.3,Win32,59.88023952,,,,,,,,,,,,,,,,,,,,,,,,,,,,,,,,space,10.1389,e,1,0.5021,0,0,0,8,1,,,,,,,,,,,,,,,,,,,,,,,,
,,,,,,,,,,,,他的,e,1,001,2025-01-02_16h15.49.579,IAT(Formal),2021.2.3,Win32,59.88023952,,,,,,,,,,,,,,,,,,,,,,,,,,,,,,,,,,e,1,0.4205,0,1,1,7,1,,,,,,,,,,,,,,,,,,,,,,,,
,,,,,,,,,,,,我们,i,1,001,2025-01-02_16h15.49.579,IAT(Formal),2021.2.3,Win32,59.88023952,,,,,,,,,,,,,,,,,,,,,,,,,,,,,,,,,,i,1,0.6264,0,2,2,2,1,,,,,,,,,,,,,,,,,,,,,,,,
,,,,,,,,,,,,他们,e,1,001,2025-01-02_16h15.49.579,IAT(Formal),2021.2.3,Win32,59.88023952,,,,,,,,,,,,,,,,,,,,,,,,,,,,,,,,,,e,1,0.569,0,3,3,6,1,,,,,,,,,,,,,,,,,,,,,,,,
,,,,,,,,,,,,我,i,1,001,2025-01-02_16h15.49.579,IAT(Formal),2021.2.3,Win32,59.88023952,,,,,,,,,,,,,,,,,,,,,,,,,,,,,,,,,,i,1,0.5245,0,4,4,0,1,,,,,,,,,,,,,,,,,,,,,,,,
,,,,,,,,,,,,我的,i,1,001,2025-01-02_16h15.49.579,IAT(Formal),2021.2.3,Win32,59.88023952,,,,,,,,,,,,,,,,,,,,,,,,,,,,,,,,,,i,1,0.4666,0,5,5,1,1,,,,,,,,,,,,,,,,,,,,,,,,
,,,,,,,,,,,,自己,i,1,001,2025-01-02_16h15.49.579,IAT(Formal),2021.2.3,Win32,59.88023952,,,,,,,,,,,,,,,,,,,,,,,,,,,,,,,,,,i,1,0.4862,0,6,6,3,1,,,,,,,,,,,,,,,,,,,,,,,,
,,,,,,,,,,,,其他,e,1,001,2025-01-02_16h15.49.579,IAT(Formal),2021.2.3,Win32,59.88023952,,,,,,,,,,,,,,,,,,,,,,,,,,,,,,,,,,e,1,0.6177,0,7,7,9,1,,,,,,,,,,,,,,,,,,,,,,,,
,,,,,,,,,,,,俺,i,1,001,2025-01-02_16h15.49.579,IAT(Formal),2021.2.3,Win32,59.88023952,,,,,,,,,,,,,,,,,,,,,,,,,,,,,,,,,,i,1,0.7342,0,8,8,4,1,,,,,,,,,,,,,,,,,,,,,,,,
,,,,,,,,,,,,他,e,1,001,2025-01-02_16h15.49.579,IAT(Formal),2021.2.3,Win32,59.88023952,,,,,,,,,,,,,,,,,,,,,,,,,,,,,,,,,,e,1,0.6854,0,9,9,5,1,,,,,,,,,,,,,,,,,,,,,,,,
,,,,,,,,,,,,,,1,001,2025-01-02_16h15.49.579,IAT(Formal),2021.2.3,Win32,59.88023952,,,,,,,,,,,,,,,,,,,,,,,,,,,,,,,,,,,,,,,,,,space,2.5721,i,1,1.0707,0,0,0,0,1,我,i,,,,,,,,,,,,
,,,,,,,,,,,,,,1,001,2025-01-02_16h15.49.579,IAT(Formal),2021.2.3,Win32,59.88023952,,,,,,,,,,,,,,,,,,,,,,,,,,,,,,,,,,,,,,,,,,,,i,1,0.5751,0,1,1,52,1,我们,i,,,,,,,,,,,,
,,,,,,,,,,,,,,1,001,2025-01-02_16h15.49.579,IAT(Formal),2021.2.3,Win32,59.88023952,,,,,,,,,,,,,,,,,,,,,,,,,,,,,,,,,,,,,,,,,,,,e,1,0.6666,0,2,2,68,1,他人,e,,,,,,,,,,,,
,,,,,,,,,,,,,,1,001,2025-01-02_16h15.49.579,IAT(Formal),2021.2.3,Win32,59.88023952,,,,,,,,,,,,,,,,,,,,,,,,,,,,,,,,,,,,,,,,,,,,e,1,0.6191,0,3,3,23,1,公正,e,,,,,,,,,,,,
,,,,,,,,,,,,,,1,001,2025-01-02_16h15.49.579,IAT(Formal),2021.2.3,Win32,59.88023952,,,,,,,,,,,,,,,,,,,,,,,,,,,,,,,,,,,,,,,,,,,,i,1,0.7367,0,4,4,74,1,俺,i,,,,,,,,,,,,
,,,,,,,,,,,,,,1,001,2025-01-02_16h15.49.579,IAT(Formal),2021.2.3,Win32,59.88023952,,,,,,,,,,,,,,,,,,,,,,,,,,,,,,,,,,,,,,,,,,,,e,1,0.9743,0,5,5,19,1,机智,e,,,,,,,,,,,,
,,,,,,,,,,,,,,1,001,2025-01-02_16h15.49.579,IAT(Formal),2021.2.3,Win32,59.88023952,,,,,,,,,,,,,,,,,,,,,,,,,,,,,,,,,,,,,,,,,,,,e,1,0.5971,0,6,6,9,1,其他,e,,,,,,,,,,,,
,,,,,,,,,,,,,,1,001,2025-01-02_16h15.49.579,IAT(Formal),2021.2.3,Win32,59.88023952,,,,,,,,,,,,,,,,,,,,,,,,,,,,,,,,,,,,,,,,,,,,e,1,0.6518,0,7,7,26,1,冷静,e,,,,,,,,,,,,
,,,,,,,,,,,,,,1,001,2025-01-02_16h15.49.579,IAT(Formal),2021.2.3,Win32,59.88023952,,,,,,,,,,,,,,,,,,,,,,,,,,,,,,,,,,,,,,,,,,,,e,1,0.6127,0,8,8,21,1,稳重,e,,,,,,,,,,,,
,,,,,,,,,,,,,,1,001,2025-01-02_16h15.49.579,IAT(Formal),2021.2.3,Win32,59.88023952,,,,,,,,,,,,,,,,,,,,,,,,,,,,,,,,,,,,,,,,,,,,e,1,0.6186,0,9,9,17,1,勇敢,e,,,,,,,,,,,,
,,,,,,,,,,,,,,1,001,2025-01-02_16h15.49.579,IAT(Formal),2021.2.3,Win32,59.88023952,,,,,,,,,,,,,,,,,,,,,,,,,,,,,,,,,,,,,,,,,,,,i,1,0.7697,0,10,10,71,1,我的,i,,,,,,,,,,,,
,,,,,,,,,,,,,,1,001,2025-01-02_16h15.49.579,IAT(Formal),2021.2.3,Win32,59.88023952,,,,,,,,,,,,,,,,,,,,,,,,,,,,,,,,,,,,,,,,,,,,e,1,1.3878,0,11,11,66,1,他们,e,,,,,,,,,,,,
,,,,,,,,,,,,,,1,001,2025-01-02_16h15.49.579,IAT(Formal),2021.2.3,Win32,59.88023952,,,,,,,,,,,,,,,,,,,,,,,,,,,,,,,,,,,,,,,,,,,,e,1,0.8598,0,12,12,67,1,他的,e,,,,,,,,,,,,
,,,,,,,,,,,,,,1,001,2025-01-02_16h15.49.579,IAT(Formal),2021.2.3,Win32,59.88023952,,,,,,,,,,,,,,,,,,,,,,,,,,,,,,,,,,,,,,,,,,,,i,1,0.6415,0,13,13,73,1,自己,i,,,,,,,,,,,,
,,,,,,,,,,,,,,1,001,2025-01-02_16h15.49.579,IAT(Formal),2021.2.3,Win32,59.88023952,,,,,,,,,,,,,,,,,,,,,,,,,,,,,,,,,,,,,,,,,,,,i,1,0.558,0,14,14,51,1,我的,i,,,,,,,,,,,,
,,,,,,,,,,,,,,1,001,2025-01-02_16h15.49.579,IAT(Formal),2021.2.3,Win32,59.88023952,,,,,,,,,,,,,,,,,,,,,,,,,,,,,,,,,,,,,,,,,,,,e,1,0.9301,0,15,15,7,1,他的,e,,,,,,,,,,,,
,,,,,,,,,,,,,,1,001,2025-01-02_16h15.49.579,IAT(Formal),2021.2.3,Win32,59.88023952,,,,,,,,,,,,,,,,,,,,,,,,,,,,,,,,,,,,,,,,,,,,e,1,1.4363,0,16,16,18,1,勤奋,e,,,,,,,,,,,,
,,,,,,,,,,,,,,1,001,2025-01-02_16h15.49.579,IAT(Formal),2021.2.3,Win32,59.88023952,,,,,,,,,,,,,,,,,,,,,,,,,,,,,,,,,,,,,,,,,,,,e,1,0.6675,0,17,17,56,1,他们,e,,,,,,,,,,,,
,,,,,,,,,,,,,,1,001,2025-01-02_16h15.49.579,IAT(Formal),2021.2.3,Win32,59.88023952,,,,,,,,,,,,,,,,,,,,,,,,,,,,,,,,,,,,,,,,,,,,i,1,0.6917,0,18,18,61,1,我的,i,,,,,,,,,,,,
,,,,,,,,,,,,,,1,001,2025-01-02_16h15.49.579,IAT(Formal),2021.2.3,Win32,59.88023952,,,,,,,,,,,,,,,,,,,,,,,,,,,,,,,,,,,,,,,,,,,,e,0,1.161,0,19,19,45,1,猖狂,i,,,,,,,,,,,,
,,,,,,,,,,,,,,1,001,2025-01-02_16h15.49.579,IAT(Formal),2021.2.3,Win32,59.88023952,,,,,,,,,,,,,,,,,,,,,,,,,,,,,,,,,,,,,,,,,,,,e,1,1.4001,0,20,20,25,1,细腻,e,,,,,,,,,,,,
,,,,,,,,,,,,,,1,001,2025-01-02_16h15.49.579,IAT(Formal),2021.2.3,Win32,59.88023952,,,,,,,,,,,,,,,,,,,,,,,,,,,,,,,,,,,,,,,,,,,,i,1,0.9055,0,21,21,38,1,鲁莽,i,,,,,,,,,,,,
,,,,,,,,,,,,,,1,001,2025-01-02_16h15.49.579,IAT(Formal),2021.2.3,Win32,59.88023952,,,,,,,,,,,,,,,,,,,,,,,,,,,,,,,,,,,,,,,,,,,,e,1,0.6066,0,22,22,57,1,他的,e,,,,,,,,,,,,
,,,,,,,,,,,,,,1,001,2025-01-02_16h15.49.579,IAT(Formal),2021.2.3,Win32,59.88023952,,,,,,,,,,,,,,,,,,,,,,,,,,,,,,,,,,,,,,,,,,,,e,0,0.9063,0,23,23,46,1,野蛮,i,,,,,,,,,,,,
,,,,,,,,,,,,,,1,001,2025-01-02_16h15.49.579,IAT(Formal),2021.2.3,Win32,59.88023952,,,,,,,,,,,,,,,,,,,,,,,,,,,,,,,,,,,,,,,,,,,,e,1,1.3675,0,24,24,79,1,其他,e,,,,,,,,,,,,
,,,,,,,,,,,,,,1,001,2025-01-02_16h15.49.579,IAT(Formal),2021.2.3,Win32,59.88023952,,,,,,,,,,,,,,,,,,,,,,,,,,,,,,,,,,,,,,,,,,,,i,1,0.4761,0,25,25,1,1,我的,i,,,,,,,,,,,,
,,,,,,,,,,,,,,1,001,2025-01-02_16h15.49.579,IAT(Formal),2021.2.3,Win32,59.88023952,,,,,,,,,,,,,,,,,,,,,,,,,,,,,,,,,,,,,,,,,,,,i,1,0.5839,0,26,26,37,1,傲慢,i,,,,,,,,,,,,
,,,,,,,,,,,,,,1,001,2025-01-02_16h15.49.579,IAT(Formal),2021.2.3,Win32,59.88023952,,,,,,,,,,,,,,,,,,,,,,,,,,,,,,,,,,,,,,,,,,,,,0,,0,27,27,70,1,我,i,,,,,,,,,,,,
,,,,,,,,,,,,,,1,001,2025-01-02_16h15.49.579,IAT(Formal),2021.2.3,Win32,59.88023952,,,,,,,,,,,,,,,,,,,,,,,,,,,,,,,,,,,,,,,,,,,,i,1,0.5382,0,28,28,4,1,俺,i,,,,,,,,,,,,
,,,,,,,,,,,,,,1,001,2025-01-02_16h15.49.579,IAT(Formal),2021.2.3,Win32,59.88023952,,,,,,,,,,,,,,,,,,,,,,,,,,,,,,,,,,,,,,,,,,,,e,1,1.0703,0,29,29,11,1,崇高,e,,,,,,,,,,,,
,,,,,,,,,,,,,,1,001,2025-01-02_16h15.49.579,IAT(Formal),2021.2.3,Win32,59.88023952,,,,,,,,,,,,,,,,,,,,,,,,,,,,,,,,,,,,,,,,,,,,e,1,1.0252,0,30,30,75,1,他,e,,,,,,,,,,,,
,,,,,,,,,,,,,,1,001,2025-01-02_16h15.49.579,IAT(Formal),2021.2.3,Win32,59.88023952,,,,,,,,,,,,,,,,,,,,,,,,,,,,,,,,,,,,,,,,,,,,e,0,0.5919,0,31,31,47,1,固执,i,,,,,,,,,,,,
,,,,,,,,,,,,,,1,001,2025-01-02_16h15.49.579,IAT(Formal),2021.2.3,Win32,59.88023952,,,,,,,,,,,,,,,,,,,,,,,,,,,,,,,,,,,,,,,,,,,,,0,,0,32,32,41,1,散漫,i,,,,,,,,,,,,
,,,,,,,,,,,,,,1,001,2025-01-02_16h15.49.579,IAT(Formal),2021.2.3,Win32,59.88023952,,,,,,,,,,,,,,,,,,,,,,,,,,,,,,,,,,,,,,,,,,,,e,1,0.9682,0,33,33,59,1,其他,e,,,,,,,,,,,,
,,,,,,,,,,,,,,1,001,2025-01-02_16h15.49.579,IAT(Formal),2021.2.3,Win32,59.88023952,,,,,,,,,,,,,,,,,,,,,,,,,,,,,,,,,,,,,,,,,,,,e,1,0.5408,0,34,34,76,1,他们,e,,,,,,,,,,,,
,,,,,,,,,,,,,,1,001,2025-01-02_16h15.49.579,IAT(Formal),2021.2.3,Win32,59.88023952,,,,,,,,,,,,,,,,,,,,,,,,,,,,,,,,,,,,,,,,,,,,i,0,0.5381,0,35,35,10,1,优秀,e,,,,,,,,,,,,
,,,,,,,,,,,,,,1,001,2025-01-02_16h15.49.579,IAT(Formal),2021.2.3,Win32,59.88023952,,,,,,,,,,,,,,,,,,,,,,,,,,,,,,,,,,,,,,,,,,,,e,1,0.9089,0,36,36,13,1,杰出,e,,,,,,,,,,,,
,,,,,,,,,,,,,,1,001,2025-01-02_16h15.49.579,IAT(Formal),2021.2.3,Win32,59.88023952,,,,,,,,,,,,,,,,,,,,,,,,,,,,,,,,,,,,,,,,,,,,i,1,0.8082,0,37,37,31,1,虚伪,i,,,,,,,,,,,,
,,,,,,,,,,,,,,1,001,2025-01-02_16h15.49.579,IAT(Formal),2021.2.3,Win32,59.88023952,,,,,,,,,,,,,,,,,,,,,,,,,,,,,,,,,,,,,,,,,,,,e,0,0.8673,0,38,38,32,1,愚蠢,i,,,,,,,,,,,,
,,,,,,,,,,,,,,1,001,2025-01-02_16h15.49.579,IAT(Formal),2021.2.3,Win32,59.88023952,,,,,,,,,,,,,,,,,,,,,,,,,,,,,,,,,,,,,,,,,,,,e,0,0.7418,0,39,39,48,1,轻率,i,,,,,,,,,,,,
,,,,,,,,,,,,,,1,001,2025-01-02_16h15.49.579,IAT(Formal),2021.2.3,Win32,59.88023952,,,,,,,,,,,,,,,,,,,,,,,,,,,,,,,,,,,,,,,,,,,,e,1,1.2209,0,40,40,14,1,乐观,e,,,,,,,,,,,,
,,,,,,,,,,,,,,1,001,2025-01-02_16h15.49.579,IAT(Formal),2021.2.3,Win32,59.88023952,,,,,,,,,,,,,,,,,,,,,,,,,,,,,,,,,,,,,,,,,,,,e,1,0.7496,0,41,41,5,1,他,e,,,,,,,,,,,,
,,,,,,,,,,,,,,1,001,2025-01-02_16h15.49.579,IAT(Formal),2021.2.3,Win32,59.88023952,,,,,,,,,,,,,,,,,,,,,,,,,,,,,,,,,,,,,,,,,,,,i,1,0.6175,0,42,42,60,1,我,i,,,,,,,,,,,,
,,,,,,,,,,,,,,1,001,2025-01-02_16h15.49.579,IAT(Formal),2021.2.3,Win32,59.88023952,,,,,,,,,,,,,,,,,,,,,,,,,,,,,,,,,,,,,,,,,,,,e,1,0.575,0,43,43,78,1,他人,e,,,,,,,,,,,,
,,,,,,,,,,,,,,1,001,2025-01-02_16h15.49.579,IAT(Formal),2021.2.3,Win32,59.88023952,,,,,,,,,,,,,,,,,,,,,,,,,,,,,,,,,,,,,,,,,,,,e,1,1.0759,0,44,44,27,1,热情,e,,,,,,,,,,,,
,,,,,,,,,,,,,,1,001,2025-01-02_16h15.49.579,IAT(Formal),2021.2.3,Win32,59.88023952,,,,,,,,,,,,,,,,,,,,,,,,,,,,,,,,,,,,,,,,,,,,e,1,0.6806,0,45,45,55,1,他,e,,,,,,,,,,,,
,,,,,,,,,,,,,,1,001,2025-01-02_16h15.49.579,IAT(Formal),2021.2.3,Win32,59.88023952,,,,,,,,,,,,,,,,,,,,,,,,,,,,,,,,,,,,,,,,,,,,e,1,0.6526,0,46,46,8,1,他人,e,,,,,,,,,,,,
,,,,,,,,,,,,,,1,001,2025-01-02_16h15.49.579,IAT(Formal),2021.2.3,Win32,59.88023952,,,,,,,,,,,,,,,,,,,,,,,,,,,,,,,,,,,,,,,,,,,,e,1,0.6366,0,47,47,69,1,其他,e,,,,,,,,,,,,
,,,,,,,,,,,,,,1,001,2025-01-02_16h15.49.579,IAT(Formal),2021.2.3,Win32,59.88023952,,,,,,,,,,,,,,,,,,,,,,,,,,,,,,,,,,,,,,,,,,,,i,1,1.0009,0,48,48,49,1,下贱,i,,,,,,,,,,,,
,,,,,,,,,,,,,,1,001,2025-01-02_16h15.49.579,IAT(Formal),2021.2.3,Win32,59.88023952,,,,,,,,,,,,,,,,,,,,,,,,,,,,,,,,,,,,,,,,,,,,e,0,0.8194,0,49,49,30,1,卑鄙,i,,,,,,,,,,,,
,,,,,,,,,,,,,,1,001,2025-01-02_16h15.49.579,IAT(Formal),2021.2.3,Win32,59.88023952,,,,,,,,,,,,,,,,,,,,,,,,,,,,,,,,,,,,,,,,,,,,i,1,0.9356,0,50,50,63,1,自己,i,,,,,,,,,,,,
,,,,,,,,,,,,,,1,001,2025-01-02_16h15.49.579,IAT(Formal),2021.2.3,Win32,59.88023952,,,,,,,,,,,,,,,,,,,,,,,,,,,,,,,,,,,,,,,,,,,,i,1,0.7242,0,51,51,72,1,我们,i,,,,,,,,,,,,
,,,,,,,,,,,,,,1,001,2025-01-02_16h15.49.579,IAT(Formal),2021.2.3,Win32,59.88023952,,,,,,,,,,,,,,,,,,,,,,,,,,,,,,,,,,,,,,,,,,,,i,1,0.9015,0,52,52,64,1,俺,i,,,,,,,,,,,,
,,,,,,,,,,,,,,1,001,2025-01-02_16h15.49.579,IAT(Formal),2021.2.3,Win32,59.88023952,,,,,,,,,,,,,,,,,,,,,,,,,,,,,,,,,,,,,,,,,,,,e,1,0.678,0,53,53,58,1,他人,e,,,,,,,,,,,,
,,,,,,,,,,,,,,1,001,2025-01-02_16h15.49.579,IAT(Formal),2021.2.3,Win32,59.88023952,,,,,,,,,,,,,,,,,,,,,,,,,,,,,,,,,,,,,,,,,,,,i,1,1.1202,0,54,54,33,1,刻薄,i,,,,,,,,,,,,
,,,,,,,,,,,,,,1,001,2025-01-02_16h15.49.579,IAT(Formal),2021.2.3,Win32,59.88023952,,,,,,,,,,,,,,,,,,,,,,,,,,,,,,,,,,,,,,,,,,,,e,1,1.0123,0,55,55,24,1,朴实,e,,,,,,,,,,,,
,,,,,,,,,,,,,,1,001,2025-01-02_16h15.49.579,IAT(Formal),2021.2.3,Win32,59.88023952,,,,,,,,,,,,,,,,,,,,,,,,,,,,,,,,,,,,,,,,,,,,,0,,0,56,56,22,1,无私,e,,,,,,,,,,,,
,,,,,,,,,,,,,,1,001,2025-01-02_16h15.49.579,IAT(Formal),2021.2.3,Win32,59.88023952,,,,,,,,,,,,,,,,,,,,,,,,,,,,,,,,,,,,,,,,,,,,,0,,0,57,57,34,1,悲观,i,,,,,,,,,,,,
,,,,,,,,,,,,,,1,001,2025-01-02_16h15.49.579,IAT(Formal),2021.2.3,Win32,59.88023952,,,,,,,,,,,,,,,,,,,,,,,,,,,,,,,,,,,,,,,,,,,,e,0,0.9292,0,58,58,53,1,自己,i,,,,,,,,,,,,
,,,,,,,,,,,,,,1,001,2025-01-02_16h15.49.579,IAT(Formal),2021.2.3,Win32,59.88023952,,,,,,,,,,,,,,,,,,,,,,,,,,,,,,,,,,,,,,,,,,,,i,1,1.229,0,59,59,39,1,冒失,i,,,,,,,,,,,,
,,,,,,,,,,,,,,1,001,2025-01-02_16h15.49.579,IAT(Formal),2021.2.3,Win32,59.88023952,,,,,,,,,,,,,,,,,,,,,,,,,,,,,,,,,,,,,,,,,,,,i,1,0.6833,0,60,60,54,1,俺,i,,,,,,,,,,,,
,,,,,,,,,,,,,,1,001,2025-01-02_16h15.49.579,IAT(Formal),2021.2.3,Win32,59.88023952,,,,,,,,,,,,,,,,,,,,,,,,,,,,,,,,,,,,,,,,,,,,e,1,0.6831,0,61,61,77,1,他的,e,,,,,,,,,,,,
,,,,,,,,,,,,,,1,001,2025-01-02_16h15.49.579,IAT(Formal),2021.2.3,Win32,59.88023952,,,,,,,,,,,,,,,,,,,,,,,,,,,,,,,,,,,,,,,,,,,,i,1,0.7836,0,62,62,2,1,我们,i,,,,,,,,,,,,
,,,,,,,,,,,,,,1,001,2025-01-02_16h15.49.579,IAT(Formal),2021.2.3,Win32,59.88023952,,,,,,,,,,,,,,,,,,,,,,,,,,,,,,,,,,,,,,,,,,,,e,1,0.9691,0,63,63,29,1,诚恳,e,,,,,,,,,,,,
,,,,,,,,,,,,,,1,001,2025-01-02_16h15.49.579,IAT(Formal),2021.2.3,Win32,59.88023952,,,,,,,,,,,,,,,,,,,,,,,,,,,,,,,,,,,,,,,,,,,,i,1,0.8625,0,64,64,42,1,凶狠,i,,,,,,,,,,,,
,,,,,,,,,,,,,,1,001,2025-01-02_16h15.49.579,IAT(Formal),2021.2.3,Win32,59.88023952,,,,,,,,,,,,,,,,,,,,,,,,,,,,,,,,,,,,,,,,,,,,i,1,1.1143,0,65,65,35,1,消极,i,,,,,,,,,,,,
,,,,,,,,,,,,,,1,001,2025-01-02_16h15.49.579,IAT(Formal),2021.2.3,Win32,59.88023952,,,,,,,,,,,,,,,,,,,,,,,,,,,,,,,,,,,,,,,,,,,,e,1,0.6557,0,66,66,20,1,认真,e,,,,,,,,,,,,
,,,,,,,,,,,,,,1,001,2025-01-02_16h15.49.579,IAT(Formal),2021.2.3,Win32,59.88023952,,,,,,,,,,,,,,,,,,,,,,,,,,,,,,,,,,,,,,,,,,,,i,1,0.7482,0,67,67,40,1,执拗,i,,,,,,,,,,,,
,,,,,,,,,,,,,,1,001,2025-01-02_16h15.49.579,IAT(Formal),2021.2.3,Win32,59.88023952,,,,,,,,,,,,,,,,,,,,,,,,,,,,,,,,,,,,,,,,,,,,e,1,0.7176,0,68,68,15,1,诚实,e,,,,,,,,,,,,
,,,,,,,,,,,,,,1,001,2025-01-02_16h15.49.579,IAT(Formal),2021.2.3,Win32,59.88023952,,,,,,,,,,,,,,,,,,,,,,,,,,,,,,,,,,,,,,,,,,,,e,1,0.7113,0,69,69,6,1,他们,e,,,,,,,,,,,,
,,,,,,,,,,,,,,1,001,2025-01-02_16h15.49.579,IAT(Formal),2021.2.3,Win32,59.88023952,,,,,,,,,,,,,,,,,,,,,,,,,,,,,,,,,,,,,,,,,,,,i,1,0.8184,0,70,70,62,1,我们,i,,,,,,,,,,,,
,,,,,,,,,,,,,,1,001,2025-01-02_16h15.49.579,IAT(Formal),2021.2.3,Win32,59.88023952,,,,,,,,,,,,,,,,,,,,,,,,,,,,,,,,,,,,,,,,,,,,e,1,0.8756,0,71,71,12,1,聪明,e,,,,,,,,,,,,
,,,,,,,,,,,,,,1,001,2025-01-02_16h15.49.579,IAT(Formal),2021.2.3,Win32,59.88023952,,,,,,,,,,,,,,,,,,,,,,,,,,,,,,,,,,,,,,,,,,,,i,1,0.7343,0,72,72,44,1,暴躁,i,,,,,,,,,,,,
,,,,,,,,,,,,,,1,001,2025-01-02_16h15.49.579,IAT(Formal),2021.2.3,Win32,59.88023952,,,,,,,,,,,,,,,,,,,,,,,,,,,,,,,,,,,,,,,,,,,,,0,,0,73,73,36,1,自卑,i,,,,,,,,,,,,
,,,,,,,,,,,,,,1,001,2025-01-02_16h15.49.579,IAT(Formal),2021.2.3,Win32,59.88023952,,,,,,,,,,,,,,,,,,,,,,,,,,,,,,,,,,,,,,,,,,,,i,1,0.6383,0,74,74,3,1,自己,i,,,,,,,,,,,,
,,,,,,,,,,,,,,1,001,2025-01-02_16h15.49.579,IAT(Formal),2021.2.3,Win32,59.88023952,,,,,,,,,,,,,,,,,,,,,,,,,,,,,,,,,,,,,,,,,,,,e,1,0.5704,0,75,75,65,1,他,e,,,,,,,,,,,,
,,,,,,,,,,,,,,1,001,2025-01-02_16h15.49.579,IAT(Formal),2021.2.3,Win32,59.88023952,,,,,,,,,,,,,,,,,,,,,,,,,,,,,,,,,,,,,,,,,,,,i,1,0.5453,0,76,76,50,1,我,i,,,,,,,,,,,,
,,,,,,,,,,,,,,1,001,2025-01-02_16h15.49.579,IAT(Formal),2021.2.3,Win32,59.88023952,,,,,,,,,,,,,,,,,,,,,,,,,,,,,,,,,,,,,,,,,,,,e,1,0.7937,0,77,77,28,1,活泼,e,,,,,,,,,,,,
,,,,,,,,,,,,,,1,001,2025-01-02_16h15.49.579,IAT(Formal),2021.2.3,Win32,59.88023952,,,,,,,,,,,,,,,,,,,,,,,,,,,,,,,,,,,,,,,,,,,,e,0,0.7739,0,78,78,43,1,自私,i,,,,,,,,,,,,
,,,,,,,,,,,,,,1,001,2025-01-02_16h15.49.579,IAT(Formal),2021.2.3,Win32,59.88023952,,,,,,,,,,,,,,,,,,,,,,,,,,,,,,,,,,,,,,,,,,,,e,1,0.7465,0,79,79,16,1,正直,e,,,,,,,,,,,,
,,,,,,,,,,,,,,1,001,2025-01-02_16h15.49.579,IAT(Formal),2021.2.3,Win32,59.88023952,,,,,,,,,,,,,,,,,,,,,,,,,,,,,,,,,,,,,,,,,,,,,,,,,,,,冷静,e,space,6.2682,e,1,0.9461,0,0,0,26,1,,
,,,,,,,,,,,,,,1,001,2025-01-02_16h15.49.579,IAT(Formal),2021.2.3,Win32,59.88023952,,,,,,,,,,,,,,,,,,,,,,,,,,,,,,,,,,,,,,,,,,,,,,,,,,,,他,e,,,e,1,0.5588,0,1,1,65,1,,
,,,,,,,,,,,,,,1,001,2025-01-02_16h15.49.579,IAT(Formal),2021.2.3,Win32,59.88023952,,,,,,,,,,,,,,,,,,,,,,,,,,,,,,,,,,,,,,,,,,,,,,,,,,,,热情,e,,,e,1,0.4073,0,2,2,27,1,,
,,,,,,,,,,,,,,1,001,2025-01-02_16h15.49.579,IAT(Formal),2021.2.3,Win32,59.88023952,,,,,,,,,,,,,,,,,,,,,,,,,,,,,,,,,,,,,,,,,,,,,,,,,,,,鲁莽,i,,,i,1,0.82,0,3,3,38,1,,
,,,,,,,,,,,,,,1,001,2025-01-02_16h15.49.579,IAT(Formal),2021.2.3,Win32,59.88023952,,,,,,,,,,,,,,,,,,,,,,,,,,,,,,,,,,,,,,,,,,,,,,,,,,,,悲观,i,,,,0,,0,4,4,34,1,,
,,,,,,,,,,,,,,1,001,2025-01-02_16h15.49.579,IAT(Formal),2021.2.3,Win32,59.88023952,,,,,,,,,,,,,,,,,,,,,,,,,,,,,,,,,,,,,,,,,,,,,,,,,,,,我的,i,,,i,1,0.734,0,5,5,1,1,,
,,,,,,,,,,,,,,1,001,2025-01-02_16h15.49.579,IAT(Formal),2021.2.3,Win32,59.88023952,,,,,,,,,,,,,,,,,,,,,,,,,,,,,,,,,,,,,,,,,,,,,,,,,,,,俺,i,,,i,1,0.7853,0,6,6,64,1,,
,,,,,,,,,,,,,,1,001,2025-01-02_16h15.49.579,IAT(Formal),2021.2.3,Win32,59.88023952,,,,,,,,,,,,,,,,,,,,,,,,,,,,,,,,,,,,,,,,,,,,,,,,,,,,他人,e,,,e,1,0.8196,0,7,7,8,1,,
,,,,,,,,,,,,,,1,001,2025-01-02_16h15.49.579,IAT(Formal),2021.2.3,Win32,59.88023952,,,,,,,,,,,,,,,,,,,,,,,,,,,,,,,,,,,,,,,,,,,,,,,,,,,,他,e,,,,0,,0,8,8,5,1,,
,,,,,,,,,,,,,,1,001,2025-01-02_16h15.49.579,IAT(Formal),2021.2.3,Win32,59.88023952,,,,,,,,,,,,,,,,,,,,,,,,,,,,,,,,,,,,,,,,,,,,,,,,,,,,他人,e,,,e,1,1.1006,0,9,9,58,1,,
,,,,,,,,,,,,,,1,001,2025-01-02_16h15.49.579,IAT(Formal),2021.2.3,Win32,59.88023952,,,,,,,,,,,,,,,,,,,,,,,,,,,,,,,,,,,,,,,,,,,,,,,,,,,,他,e,,,e,1,0.53,0,10,10,55,1,,
,,,,,,,,,,,,,,1,001,2025-01-02_16h15.49.579,IAT(Formal),2021.2.3,Win32,59.88023952,,,,,,,,,,,,,,,,,,,,,,,,,,,,,,,,,,,,,,,,,,,,,,,,,,,,公正,e,,,e,1,0.6759,0,11,11,23,1,,
,,,,,,,,,,,,,,1,001,2025-01-02_16h15.49.579,IAT(Formal),2021.2.3,Win32,59.88023952,,,,,,,,,,,,,,,,,,,,,,,,,,,,,,,,,,,,,,,,,,,,,,,,,,,,虚伪,i,,,i,1,1.0281,0,12,12,31,1,,
,,,,,,,,,,,,,,1,001,2025-01-02_16h15.49.579,IAT(Formal),2021.2.3,Win32,59.88023952,,,,,,,,,,,,,,,,,,,,,,,,,,,,,,,,,,,,,,,,,,,,,,,,,,,,固执,i,,,e,0,0.6524,0,13,13,47,1,,
,,,,,,,,,,,,,,1,001,2025-01-02_16h15.49.579,IAT(Formal),2021.2.3,Win32,59.88023952,,,,,,,,,,,,,,,,,,,,,,,,,,,,,,,,,,,,,,,,,,,,,,,,,,,,优秀,e,,,e,1,0.6394,0,14,14,10,1,,
,,,,,,,,,,,,,,1,001,2025-01-02_16h15.49.579,IAT(Formal),2021.2.3,Win32,59.88023952,,,,,,,,,,,,,,,,,,,,,,,,,,,,,,,,,,,,,,,,,,,,,,,,,,,,正直,e,,,e,1,0.4606,0,15,15,16,1,,
,,,,,,,,,,,,,,1,001,2025-01-02_16h15.49.579,IAT(Formal),2021.2.3,Win32,59.88023952,,,,,,,,,,,,,,,,,,,,,,,,,,,,,,,,,,,,,,,,,,,,,,,,,,,,勇敢,e,,,e,1,0.4212,0,16,16,17,1,,
,,,,,,,,,,,,,,1,001,2025-01-02_16h15.49.579,IAT(Formal),2021.2.3,Win32,59.88023952,,,,,,,,,,,,,,,,,,,,,,,,,,,,,,,,,,,,,,,,,,,,,,,,,,,,我,i,,,e,0,0.5522,0,17,17,50,1,,
,,,,,,,,,,,,,,1,001,2025-01-02_16h15.49.579,IAT(Formal),2021.2.3,Win32,59.88023952,,,,,,,,,,,,,,,,,,,,,,,,,,,,,,,,,,,,,,,,,,,,,,,,,,,,他,e,,,,0,,0,18,18,75,1,,
,,,,,,,,,,,,,,1,001,2025-01-02_16h15.49.579,IAT(Formal),2021.2.3,Win32,59.88023952,,,,,,,,,,,,,,,,,,,,,,,,,,,,,,,,,,,,,,,,,,,,,,,,,,,,诚实,e,,,e,1,0.5904,0,19,19,15,1,,
,,,,,,,,,,,,,,1,001,2025-01-02_16h15.49.579,IAT(Formal),2021.2.3,Win32,59.88023952,,,,,,,,,,,,,,,,,,,,,,,,,,,,,,,,,,,,,,,,,,,,,,,,,,,,冒失,i,,,i,1,0.7739,0,20,20,39,1,,
,,,,,,,,,,,,,,1,001,2025-01-02_16h15.49.579,IAT(Formal),2021.2.3,Win32,59.88023952,,,,,,,,,,,,,,,,,,,,,,,,,,,,,,,,,,,,,,,,,,,,,,,,,,,,我们,i,,,i,1,0.5947,0,21,21,62,1,,
,,,,,,,,,,,,,,1,001,2025-01-02_16h15.49.579,IAT(Formal),2021.2.3,Win32,59.88023952,,,,,,,,,,,,,,,,,,,,,,,,,,,,,,,,,,,,,,,,,,,,,,,,,,,,暴躁,i,,,i,1,0.8536,0,22,22,44,1,,
,,,,,,,,,,,,,,1,001,2025-01-02_16h15.49.579,IAT(Formal),2021.2.3,Win32,59.88023952,,,,,,,,,,,,,,,,,,,,,,,,,,,,,,,,,,,,,,,,,,,,,,,,,,,,凶狠,i,,,i,1,0.9024,0,23,23,42,1,,
,,,,,,,,,,,,,,1,001,2025-01-02_16h15.49.579,IAT(Formal),2021.2.3,Win32,59.88023952,,,,,,,,,,,,,,,,,,,,,,,,,,,,,,,,,,,,,,,,,,,,,,,,,,,,傲慢,i,,,i,1,1.2238,0,24,24,37,1,,
,,,,,,,,,,,,,,1,001,2025-01-02_16h15.49.579,IAT(Formal),2021.2.3,Win32,59.88023952,,,,,,,,,,,,,,,,,,,,,,,,,,,,,,,,,,,,,,,,,,,,,,,,,,,,诚恳,e,,,e,1,1.2628,0,25,25,29,1,,
,,,,,,,,,,,,,,1,001,2025-01-02_16h15.49.579,IAT(Formal),2021.2.3,Win32,59.88023952,,,,,,,,,,,,,,,,,,,,,,,,,,,,,,,,,,,,,,,,,,,,,,,,,,,,无私,e,,,e,1,0.709,0,26,26,22,1,,
,,,,,,,,,,,,,,1,001,2025-01-02_16h15.49.579,IAT(Formal),2021.2.3,Win32,59.88023952,,,,,,,,,,,,,,,,,,,,,,,,,,,,,,,,,,,,,,,,,,,,,,,,,,,,机智,e,,,e,1,0.6108,0,27,27,19,1,,
,,,,,,,,,,,,,,1,001,2025-01-02_16h15.49.579,IAT(Formal),2021.2.3,Win32,59.88023952,,,,,,,,,,,,,,,,,,,,,,,,,,,,,,,,,,,,,,,,,,,,,,,,,,,,聪明,e,,,e,1,0.8029,0,28,28,12,1,,
,,,,,,,,,,,,,,1,001,2025-01-02_16h15.49.579,IAT(Formal),2021.2.3,Win32,59.88023952,,,,,,,,,,,,,,,,,,,,,,,,,,,,,,,,,,,,,,,,,,,,,,,,,,,,其他,e,,,i,0,0.6765,0,29,29,59,1,,
,,,,,,,,,,,,,,1,001,2025-01-02_16h15.49.579,IAT(Formal),2021.2.3,Win32,59.88023952,,,,,,,,,,,,,,,,,,,,,,,,,,,,,,,,,,,,,,,,,,,,,,,,,,,,自卑,i,,,i,1,1.3356,0,30,30,36,1,,
,,,,,,,,,,,,,,1,001,2025-01-02_16h15.49.579,IAT(Formal),2021.2.3,Win32,59.88023952,,,,,,,,,,,,,,,,,,,,,,,,,,,,,,,,,,,,,,,,,,,,,,,,,,,,我,i,,,i,1,0.6056,0,31,31,70,1,,
,,,,,,,,,,,,,,1,001,2025-01-02_16h15.49.579,IAT(Formal),2021.2.3,Win32,59.88023952,,,,,,,,,,,,,,,,,,,,,,,,,,,,,,,,,,,,,,,,,,,,,,,,,,,,自己,i,,,i,1,0.5384,0,32,32,73,1,,
,,,,,,,,,,,,,,1,001,2025-01-02_16h15.49.579,IAT(Formal),2021.2.3,Win32,59.88023952,,,,,,,,,,,,,,,,,,,,,,,,,,,,,,,,,,,,,,,,,,,,,,,,,,,,自己,i,,,i,1,0.4511,0,33,33,63,1,,
,,,,,,,,,,,,,,1,001,2025-01-02_16h15.49.579,IAT(Formal),2021.2.3,Win32,59.88023952,,,,,,,,,,,,,,,,,,,,,,,,,,,,,,,,,,,,,,,,,,,,,,,,,,,,杰出,e,,,e,1,0.7705,0,34,34,13,1,,
,,,,,,,,,,,,,,1,001,2025-01-02_16h15.49.579,IAT(Formal),2021.2.3,Win32,59.88023952,,,,,,,,,,,,,,,,,,,,,,,,,,,,,,,,,,,,,,,,,,,,,,,,,,,,我们,i,,,e,0,0.889,0,35,35,72,1,,
,,,,,,,,,,,,,,1,001,2025-01-02_16h15.49.579,IAT(Formal),2021.2.3,Win32,59.88023952,,,,,,,,,,,,,,,,,,,,,,,,,,,,,,,,,,,,,,,,,,,,,,,,,,,,我的,i,,,i,1,0.9177,0,36,36,61,1,,
,,,,,,,,,,,,,,1,001,2025-01-02_16h15.49.579,IAT(Formal),2021.2.3,Win32,59.88023952,,,,,,,,,,,,,,,,,,,,,,,,,,,,,,,,,,,,,,,,,,,,,,,,,,,,卑鄙,i,,,i,1,0.9339,0,37,37,30,1,,
,,,,,,,,,,,,,,1,001,2025-01-02_16h15.49.579,IAT(Formal),2021.2.3,Win32,59.88023952,,,,,,,,,,,,,,,,,,,,,,,,,,,,,,,,,,,,,,,,,,,,,,,,,,,,消极,i,,,e,0,0.7886,0,38,38,35,1,,
,,,,,,,,,,,,,,1,001,2025-01-02_16h15.49.579,IAT(Formal),2021.2.3,Win32,59.88023952,,,,,,,,,,,,,,,,,,,,,,,,,,,,,,,,,,,,,,,,,,,,,,,,,,,,勤奋,e,,,,0,,0,39,39,18,1,,
,,,,,,,,,,,,,,1,001,2025-01-02_16h15.49.579,IAT(Formal),2021.2.3,Win32,59.88023952,,,,,,,,,,,,,,,,,,,,,,,,,,,,,,,,,,,,,,,,,,,,,,,,,,,,他人,e,,,e,1,0.5882,0,40,40,68,1,,
,,,,,,,,,,,,,,1,001,2025-01-02_16h15.49.579,IAT(Formal),2021.2.3,Win32,59.88023952,,,,,,,,,,,,,,,,,,,,,,,,,,,,,,,,,,,,,,,,,,,,,,,,,,,,我,i,,,i,1,0.5689,0,41,41,60,1,,
,,,,,,,,,,,,,,1,001,2025-01-02_16h15.49.579,IAT(Formal),2021.2.3,Win32,59.88023952,,,,,,,,,,,,,,,,,,,,,,,,,,,,,,,,,,,,,,,,,,,,,,,,,,,,自己,i,,,i,1,0.6638,0,42,42,3,1,,
,,,,,,,,,,,,,,1,001,2025-01-02_16h15.49.579,IAT(Formal),2021.2.3,Win32,59.88023952,,,,,,,,,,,,,,,,,,,,,,,,,,,,,,,,,,,,,,,,,,,,,,,,,,,,细腻,e,,,e,1,0.8054,0,43,43,25,1,,
,,,,,,,,,,,,,,1,001,2025-01-02_16h15.49.579,IAT(Formal),2021.2.3,Win32,59.88023952,,,,,,,,,,,,,,,,,,,,,,,,,,,,,,,,,,,,,,,,,,,,,,,,,,,,他们,e,,,e,1,0.6526,0,44,44,76,1,,
,,,,,,,,,,,,,,1,001,2025-01-02_16h15.49.579,IAT(Formal),2021.2.3,Win32,59.88023952,,,,,,,,,,,,,,,,,,,,,,,,,,,,,,,,,,,,,,,,,,,,,,,,,,,,他们,e,,,e,1,0.5528,0,45,45,6,1,,
,,,,,,,,,,,,,,1,001,2025-01-02_16h15.49.579,IAT(Formal),2021.2.3,Win32,59.88023952,,,,,,,,,,,,,,,,,,,,,,,,,,,,,,,,,,,,,,,,,,,,,,,,,,,,他们,e,,,e,1,0.5231,0,46,46,56,1,,
,,,,,,,,,,,,,,1,001,2025-01-02_16h15.49.579,IAT(Formal),2021.2.3,Win32,59.88023952,,,,,,,,,,,,,,,,,,,,,,,,,,,,,,,,,,,,,,,,,,,,,,,,,,,,刻薄,i,,,i,1,0.8348,0,47,47,33,1,,
,,,,,,,,,,,,,,1,001,2025-01-02_16h15.49.579,IAT(Formal),2021.2.3,Win32,59.88023952,,,,,,,,,,,,,,,,,,,,,,,,,,,,,,,,,,,,,,,,,,,,,,,,,,,,其他,e,,,e,1,0.5516,0,48,48,9,1,,
,,,,,,,,,,,,,,1,001,2025-01-02_16h15.49.579,IAT(Formal),2021.2.3,Win32,59.88023952,,,,,,,,,,,,,,,,,,,,,,,,,,,,,,,,,,,,,,,,,,,,,,,,,,,,自己,i,,,i,1,0.6188,0,49,49,53,1,,
,,,,,,,,,,,,,,1,001,2025-01-02_16h15.49.579,IAT(Formal),2021.2.3,Win32,59.88023952,,,,,,,,,,,,,,,,,,,,,,,,,,,,,,,,,,,,,,,,,,,,,,,,,,,,他人,e,,,e,1,0.5777,0,50,50,78,1,,
,,,,,,,,,,,,,,1,001,2025-01-02_16h15.49.579,IAT(Formal),2021.2.3,Win32,59.88023952,,,,,,,,,,,,,,,,,,,,,,,,,,,,,,,,,,,,,,,,,,,,,,,,,,,,愚蠢,i,,,i,1,0.9364,0,51,51,32,1,,
,,,,,,,,,,,,,,1,001,2025-01-02_16h15.49.579,IAT(Formal),2021.2.3,Win32,59.88023952,,,,,,,,,,,,,,,,,,,,,,,,,,,,,,,,,,,,,,,,,,,,,,,,,,,,他的,e,,,e,1,1.0199,0,52,52,57,1,,
,,,,,,,,,,,,,,1,001,2025-01-02_16h15.49.579,IAT(Formal),2021.2.3,Win32,59.88023952,,,,,,,,,,,,,,,,,,,,,,,,,,,,,,,,,,,,,,,,,,,,,,,,,,,,我,i,,,i,1,0.5186,0,53,53,0,1,,
,,,,,,,,,,,,,,1,001,2025-01-02_16h15.49.579,IAT(Formal),2021.2.3,Win32,59.88023952,,,,,,,,,,,,,,,,,,,,,,,,,,,,,,,,,,,,,,,,,,,,,,,,,,,,活泼,e,,,e,1,0.8355,0,54,54,28,1,,
,,,,,,,,,,,,,,1,001,2025-01-02_16h15.49.579,IAT(Formal),2021.2.3,Win32,59.88023952,,,,,,,,,,,,,,,,,,,,,,,,,,,,,,,,,,,,,,,,,,,,,,,,,,,,其他,e,,,e,1,0.9348,0,55,55,79,1,,
,,,,,,,,,,,,,,1,001,2025-01-02_16h15.49.579,IAT(Formal),2021.2.3,Win32,59.88023952,,,,,,,,,,,,,,,,,,,,,,,,,,,,,,,,,,,,,,,,,,,,,,,,,,,,猖狂,i,,,e,0,0.7612,0,56,56,45,1,,
,,,,,,,,,,,,,,1,001,2025-01-02_16h15.49.579,IAT(Formal),2021.2.3,Win32,59.88023952,,,,,,,,,,,,,,,,,,,,,,,,,,,,,,,,,,,,,,,,,,,,,,,,,,,,认真,e,,,e,1,1.0335,0,57,57,20,1,,
,,,,,,,,,,,,,,1,001,2025-01-02_16h15.49.579,IAT(Formal),2021.2.3,Win32,59.88023952,,,,,,,,,,,,,,,,,,,,,,,,,,,,,,,,,,,,,,,,,,,,,,,,,,,,他的,e,,,e,1,1.069,0,58,58,67,1,,
,,,,,,,,,,,,,,1,001,2025-01-02_16h15.49.579,IAT(Formal),2021.2.3,Win32,59.88023952,,,,,,,,,,,,,,,,,,,,,,,,,,,,,,,,,,,,,,,,,,,,,,,,,,,,我们,i,,,i,1,0.4979,0,59,59,52,1,,
,,,,,,,,,,,,,,1,001,2025-01-02_16h15.49.579,IAT(Formal),2021.2.3,Win32,59.88023952,,,,,,,,,,,,,,,,,,,,,,,,,,,,,,,,,,,,,,,,,,,,,,,,,,,,轻率,i,,,i,1,0.751,0,60,60,48,1,,
,,,,,,,,,,,,,,1,001,2025-01-02_16h15.49.579,IAT(Formal),2021.2.3,Win32,59.88023952,,,,,,,,,,,,,,,,,,,,,,,,,,,,,,,,,,,,,,,,,,,,,,,,,,,,俺,i,,,i,1,0.703,0,61,61,4,1,,
,,,,,,,,,,,,,,1,001,2025-01-02_16h15.49.579,IAT(Formal),2021.2.3,Win32,59.88023952,,,,,,,,,,,,,,,,,,,,,,,,,,,,,,,,,,,,,,,,,,,,,,,,,,,,执拗,i,,,i,1,0.7165,0,62,62,40,1,,
,,,,,,,,,,,,,,1,001,2025-01-02_16h15.49.579,IAT(Formal),2021.2.3,Win32,59.88023952,,,,,,,,,,,,,,,,,,,,,,,,,,,,,,,,,,,,,,,,,,,,,,,,,,,,乐观,e,,,e,1,0.6413,0,63,63,14,1,,
,,,,,,,,,,,,,,1,001,2025-01-02_16h15.49.579,IAT(Formal),2021.2.3,Win32,59.88023952,,,,,,,,,,,,,,,,,,,,,,,,,,,,,,,,,,,,,,,,,,,,,,,,,,,,野蛮,i,,,i,1,0.769,0,64,64,46,1,,
,,,,,,,,,,,,,,1,001,2025-01-02_16h15.49.579,IAT(Formal),2021.2.3,Win32,59.88023952,,,,,,,,,,,,,,,,,,,,,,,,,,,,,,,,,,,,,,,,,,,,,,,,,,,,自私,i,,,i,1,0.9189,0,65,65,43,1,,
,,,,,,,,,,,,,,1,001,2025-01-02_16h15.49.579,IAT(Formal),2021.2.3,Win32,59.88023952,,,,,,,,,,,,,,,,,,,,,,,,,,,,,,,,,,,,,,,,,,,,,,,,,,,,俺,i,,,i,1,0.4922,0,66,66,74,1,,
,,,,,,,,,,,,,,1,001,2025-01-02_16h15.49.579,IAT(Formal),2021.2.3,Win32,59.88023952,,,,,,,,,,,,,,,,,,,,,,,,,,,,,,,,,,,,,,,,,,,,,,,,,,,,散漫,i,,,,0,,0,67,67,41,1,,
,,,,,,,,,,,,,,1,001,2025-01-02_16h15.49.579,IAT(Formal),2021.2.3,Win32,59.88023952,,,,,,,,,,,,,,,,,,,,,,,,,,,,,,,,,,,,,,,,,,,,,,,,,,,,俺,i,,,,0,,0,68,68,54,1,,
,,,,,,,,,,,,,,1,001,2025-01-02_16h15.49.579,IAT(Formal),2021.2.3,Win32,59.88023952,,,,,,,,,,,,,,,,,,,,,,,,,,,,,,,,,,,,,,,,,,,,,,,,,,,,我的,i,,,i,1,0.3952,0,69,69,51,1,,
,,,,,,,,,,,,,,1,001,2025-01-02_16h15.49.579,IAT(Formal),2021.2.3,Win32,59.88023952,,,,,,,,,,,,,,,,,,,,,,,,,,,,,,,,,,,,,,,,,,,,,,,,,,,,崇高,e,,,e,1,0.6834,0,70,70,11,1,,
,,,,,,,,,,,,,,1,001,2025-01-02_16h15.49.579,IAT(Formal),2021.2.3,Win32,59.88023952,,,,,,,,,,,,,,,,,,,,,,,,,,,,,,,,,,,,,,,,,,,,,,,,,,,,稳重,e,,,e,1,0.8251,0,71,71,21,1,,
,,,,,,,,,,,,,,1,001,2025-01-02_16h15.49.579,IAT(Formal),2021.2.3,Win32,59.88023952,,,,,,,,,,,,,,,,,,,,,,,,,,,,,,,,,,,,,,,,,,,,,,,,,,,,我们,i,,,i,1,0.54,0,72,72,2,1,,
,,,,,,,,,,,,,,1,001,2025-01-02_16h15.49.579,IAT(Formal),2021.2.3,Win32,59.88023952,,,,,,,,,,,,,,,,,,,,,,,,,,,,,,,,,,,,,,,,,,,,,,,,,,,,他的,e,,,e,1,0.9276,0,73,73,7,1,,
,,,,,,,,,,,,,,1,001,2025-01-02_16h15.49.579,IAT(Formal),2021.2.3,Win32,59.88023952,,,,,,,,,,,,,,,,,,,,,,,,,,,,,,,,,,,,,,,,,,,,,,,,,,,,其他,e,,,e,1,1.0184,0,74,74,69,1,,
,,,,,,,,,,,,,,1,001,2025-01-02_16h15.49.579,IAT(Formal),2021.2.3,Win32,59.88023952,,,,,,,,,,,,,,,,,,,,,,,,,,,,,,,,,,,,,,,,,,,,,,,,,,,,朴实,e,,,i,0,0.7232,0,75,75,24,1,,
,,,,,,,,,,,,,,1,001,2025-01-02_16h15.49.579,IAT(Formal),2021.2.3,Win32,59.88023952,,,,,,,,,,,,,,,,,,,,,,,,,,,,,,,,,,,,,,,,,,,,,,,,,,,,我的,i,,,e,0,0.569,0,76,76,71,1,,
,,,,,,,,,,,,,,1,001,2025-01-02_16h15.49.579,IAT(Formal),2021.2.3,Win32,59.88023952,,,,,,,,,,,,,,,,,,,,,,,,,,,,,,,,,,,,,,,,,,,,,,,,,,,,他们,e,,,,0,,0,77,77,66,1,,
,,,,,,,,,,,,,,1,001,2025-01-02_16h15.49.579,IAT(Formal),2021.2.3,Win32,59.88023952,,,,,,,,,,,,,,,,,,,,,,,,,,,,,,,,,,,,,,,,,,,,,,,,,,,,下贱,i,,,i,1,1.3167,0,78,78,49,1,,
,,,,,,,,,,,,,,1,001,2025-01-02_16h15.49.579,IAT(Formal),2021.2.3,Win32,59.88023952,,,,,,,,,,,,,,,,,,,,,,,,,,,,,,,,,,,,,,,,,,,,,,,,,,,,他的,e,,,e,1,0.5851,0,79,79,77,1,,
,,,,,,,,,,,,,,1,001,2025-01-02_16h15.49.579,IAT(Formal),2021.2.3,Win32,59.88023952,,,,,,,,,,,,,,,,,,,,,,,,,,,,,,,,,,,,,,,,,,,,,,,,,,,,崇高,e,,,e,1,0.9201,1,0,80,11,1,,
,,,,,,,,,,,,,,1,001,2025-01-02_16h15.49.579,IAT(Formal),2021.2.3,Win32,59.88023952,,,,,,,,,,,,,,,,,,,,,,,,,,,,,,,,,,,,,,,,,,,,,,,,,,,,其他,e,,,e,1,0.864,1,1,81,69,1,,
,,,,,,,,,,,,,,1,001,2025-01-02_16h15.49.579,IAT(Formal),2021.2.3,Win32,59.88023952,,,,,,,,,,,,,,,,,,,,,,,,,,,,,,,,,,,,,,,,,,,,,,,,,,,,执拗,i,,,e,0,0.4696,1,2,82,40,1,,
,,,,,,,,,,,,,,1,001,2025-01-02_16h15.49.579,IAT(Formal),2021.2.3,Win32,59.88023952,,,,,,,,,,,,,,,,,,,,,,,,,,,,,,,,,,,,,,,,,,,,,,,,,,,,机智,e,,,e,1,0.9027,1,3,83,19,1,,
,,,,,,,,,,,,,,1,001,2025-01-02_16h15.49.579,IAT(Formal),2021.2.3,Win32,59.88023952,,,,,,,,,,,,,,,,,,,,,,,,,,,,,,,,,,,,,,,,,,,,,,,,,,,,他的,e,,,e,1,0.8193,1,4,84,57,1,,
,,,,,,,,,,,,,,1,001,2025-01-02_16h15.49.579,IAT(Formal),2021.2.3,Win32,59.88023952,,,,,,,,,,,,,,,,,,,,,,,,,,,,,,,,,,,,,,,,,,,,,,,,,,,,其他,e,,,e,1,1.1944,1,5,85,59,1,,
,,,,,,,,,,,,,,1,001,2025-01-02_16h15.49.579,IAT(Formal),2021.2.3,Win32,59.88023952,,,,,,,,,,,,,,,,,,,,,,,,,,,,,,,,,,,,,,,,,,,,,,,,,,,,猖狂,i,,,e,0,0.5347,1,6,86,45,1,,
,,,,,,,,,,,,,,1,001,2025-01-02_16h15.49.579,IAT(Formal),2021.2.3,Win32,59.88023952,,,,,,,,,,,,,,,,,,,,,,,,,,,,,,,,,,,,,,,,,,,,,,,,,,,,他的,e,,,e,1,0.5475,1,7,87,77,1,,
,,,,,,,,,,,,,,1,001,2025-01-02_16h15.49.579,IAT(Formal),2021.2.3,Win32,59.88023952,,,,,,,,,,,,,,,,,,,,,,,,,,,,,,,,,,,,,,,,,,,,,,,,,,,,优秀,e,,,e,1,0.6081,1,8,88,10,1,,
,,,,,,,,,,,,,,1,001,2025-01-02_16h15.49.579,IAT(Formal),2021.2.3,Win32,59.88023952,,,,,,,,,,,,,,,,,,,,,,,,,,,,,,,,,,,,,,,,,,,,,,,,,,,,诚恳,e,,,e,1,0.9745,1,9,89,29,1,,
,,,,,,,,,,,,,,1,001,2025-01-02_16h15.49.579,IAT(Formal),2021.2.3,Win32,59.88023952,,,,,,,,,,,,,,,,,,,,,,,,,,,,,,,,,,,,,,,,,,,,,,,,,,,,他,e,,,e,1,1.2894,1,10,90,5,1,,
,,,,,,,,,,,,,,1,001,2025-01-02_16h15.49.579,IAT(Formal),2021.2.3,Win32,59.88023952,,,,,,,,,,,,,,,,,,,,,,,,,,,,,,,,,,,,,,,,,,,,,,,,,,,,我,i,,,e,0,0.4018,1,11,91,0,1,,
,,,,,,,,,,,,,,1,001,2025-01-02_16h15.49.579,IAT(Formal),2021.2.3,Win32,59.88023952,,,,,,,,,,,,,,,,,,,,,,,,,,,,,,,,,,,,,,,,,,,,,,,,,,,,我的,i,,,i,1,0.4232,1,12,92,71,1,,
,,,,,,,,,,,,,,1,001,2025-01-02_16h15.49.579,IAT(Formal),2021.2.3,Win32,59.88023952,,,,,,,,,,,,,,,,,,,,,,,,,,,,,,,,,,,,,,,,,,,,,,,,,,,,冒失,i,,,e,0,0.6933,1,13,93,39,1,,
,,,,,,,,,,,,,,1,001,2025-01-02_16h15.49.579,IAT(Formal),2021.2.3,Win32,59.88023952,,,,,,,,,,,,,,,,,,,,,,,,,,,,,,,,,,,,,,,,,,,,,,,,,,,,认真,e,,,e,1,0.9197,1,14,94,20,1,,
,,,,,,,,,,,,,,1,001,2025-01-02_16h15.49.579,IAT(Formal),2021.2.3,Win32,59.88023952,,,,,,,,,,,,,,,,,,,,,,,,,,,,,,,,,,,,,,,,,,,,,,,,,,,,聪明,e,,,e,1,0.9335,1,15,95,12,1,,
,,,,,,,,,,,,,,1,001,2025-01-02_16h15.49.579,IAT(Formal),2021.2.3,Win32,59.88023952,,,,,,,,,,,,,,,,,,,,,,,,,,,,,,,,,,,,,,,,,,,,,,,,,,,,他们,e,,,,0,,1,16,96,66,1,,
,,,,,,,,,,,,,,1,001,2025-01-02_16h15.49.579,IAT(Formal),2021.2.3,Win32,59.88023952,,,,,,,,,,,,,,,,,,,,,,,,,,,,,,,,,,,,,,,,,,,,,,,,,,,,勤奋,e,,,e,1,0.8005,1,17,97,18,1,,
,,,,,,,,,,,,,,1,001,2025-01-02_16h15.49.579,IAT(Formal),2021.2.3,Win32,59.88023952,,,,,,,,,,,,,,,,,,,,,,,,,,,,,,,,,,,,,,,,,,,,,,,,,,,,他,e,,,e,1,1.0175,1,18,98,75,1,,
,,,,,,,,,,,,,,1,001,2025-01-02_16h15.49.579,IAT(Formal),2021.2.3,Win32,59.88023952,,,,,,,,,,,,,,,,,,,,,,,,,,,,,,,,,,,,,,,,,,,,,,,,,,,,其他,e,,,e,1,0.4689,1,19,99,9,1,,
,,,,,,,,,,,,,,1,001,2025-01-02_16h15.49.579,IAT(Formal),2021.2.3,Win32,59.88023952,,,,,,,,,,,,,,,,,,,,,,,,,,,,,,,,,,,,,,,,,,,,,,,,,,,,我,i,,,e,0,0.5949,1,20,100,70,1,,
,,,,,,,,,,,,,,1,001,2025-01-02_16h15.49.579,IAT(Formal),2021.2.3,Win32,59.88023952,,,,,,,,,,,,,,,,,,,,,,,,,,,,,,,,,,,,,,,,,,,,,,,,,,,,俺,i,,,i,1,0.6015,1,21,101,54,1,,
,,,,,,,,,,,,,,1,001,2025-01-02_16h15.49.579,IAT(Formal),2021.2.3,Win32,59.88023952,,,,,,,,,,,,,,,,,,,,,,,,,,,,,,,,,,,,,,,,,,,,,,,,,,,,自己,i,,,i,1,0.4779,1,22,102,63,1,,
,,,,,,,,,,,,,,1,001,2025-01-02_16h15.49.579,IAT(Formal),2021.2.3,Win32,59.88023952,,,,,,,,,,,,,,,,,,,,,,,,,,,,,,,,,,,,,,,,,,,,,,,,,,,,他们,e,,,e,1,0.5039,1,23,103,76,1,,
,,,,,,,,,,,,,,1,001,2025-01-02_16h15.49.579,IAT(Formal),2021.2.3,Win32,59.88023952,,,,,,,,,,,,,,,,,,,,,,,,,,,,,,,,,,,,,,,,,,,,,,,,,,,,我的,i,,,i,1,0.659,1,24,104,61,1,,
,,,,,,,,,,,,,,1,001,2025-01-02_16h15.49.579,IAT(Formal),2021.2.3,Win32,59.88023952,,,,,,,,,,,,,,,,,,,,,,,,,,,,,,,,,,,,,,,,,,,,,,,,,,,,我们,i,,,e,0,0.5873,1,25,105,52,1,,
,,,,,,,,,,,,,,1,001,2025-01-02_16h15.49.579,IAT(Formal),2021.2.3,Win32,59.88023952,,,,,,,,,,,,,,,,,,,,,,,,,,,,,,,,,,,,,,,,,,,,,,,,,,,,悲观,i,,,e,0,0.6257,1,26,106,34,1,,
,,,,,,,,,,,,,,1,001,2025-01-02_16h15.49.579,IAT(Formal),2021.2.3,Win32,59.88023952,,,,,,,,,,,,,,,,,,,,,,,,,,,,,,,,,,,,,,,,,,,,,,,,,,,,俺,i,,,i,1,0.5585,1,27,107,64,1,,
,,,,,,,,,,,,,,1,001,2025-01-02_16h15.49.579,IAT(Formal),2021.2.3,Win32,59.88023952,,,,,,,,,,,,,,,,,,,,,,,,,,,,,,,,,,,,,,,,,,,,,,,,,,,,固执,i,,,i,1,1.1525,1,28,108,47,1,,
,,,,,,,,,,,,,,1,001,2025-01-02_16h15.49.579,IAT(Formal),2021.2.3,Win32,59.88023952,,,,,,,,,,,,,,,,,,,,,,,,,,,,,,,,,,,,,,,,,,,,,,,,,,,,自己,i,,,i,1,0.4363,1,29,109,73,1,,
,,,,,,,,,,,,,,1,001,2025-01-02_16h15.49.579,IAT(Formal),2021.2.3,Win32,59.88023952,,,,,,,,,,,,,,,,,,,,,,,,,,,,,,,,,,,,,,,,,,,,,,,,,,,,他人,e,,,e,1,0.683,1,30,110,58,1,,
,,,,,,,,,,,,,,1,001,2025-01-02_16h15.49.579,IAT(Formal),2021.2.3,Win32,59.88023952,,,,,,,,,,,,,,,,,,,,,,,,,,,,,,,,,,,,,,,,,,,,,,,,,,,,鲁莽,i,,,e,0,1.019,1,31,111,38,1,,
,,,,,,,,,,,,,,1,001,2025-01-02_16h15.49.579,IAT(Formal),2021.2.3,Win32,59.88023952,,,,,,,,,,,,,,,,,,,,,,,,,,,,,,,,,,,,,,,,,,,,,,,,,,,,他的,e,,,e,1,0.5477,1,32,112,67,1,,
,,,,,,,,,,,,,,1,001,2025-01-02_16h15.49.579,IAT(Formal),2021.2.3,Win32,59.88023952,,,,,,,,,,,,,,,,,,,,,,,,,,,,,,,,,,,,,,,,,,,,,,,,,,,,散漫,i,,,i,1,0.819,1,33,113,41,1,,
,,,,,,,,,,,,,,1,001,2025-01-02_16h15.49.579,IAT(Formal),2021.2.3,Win32,59.88023952,,,,,,,,,,,,,,,,,,,,,,,,,,,,,,,,,,,,,,,,,,,,,,,,,,,,乐观,e,,,e,1,0.5768,1,34,114,14,1,,
,,,,,,,,,,,,,,1,001,2025-01-02_16h15.49.579,IAT(Formal),2021.2.3,Win32,59.88023952,,,,,,,,,,,,,,,,,,,,,,,,,,,,,,,,,,,,,,,,,,,,,,,,,,,,冷静,e,,,e,1,0.9103,1,35,115,26,1,,
,,,,,,,,,,,,,,1,001,2025-01-02_16h15.49.579,IAT(Formal),2021.2.3,Win32,59.88023952,,,,,,,,,,,,,,,,,,,,,,,,,,,,,,,,,,,,,,,,,,,,,,,,,,,,朴实,e,,,e,1,0.6529,1,36,116,24,1,,
,,,,,,,,,,,,,,1,001,2025-01-02_16h15.49.579,IAT(Formal),2021.2.3,Win32,59.88023952,,,,,,,,,,,,,,,,,,,,,,,,,,,,,,,,,,,,,,,,,,,,,,,,,,,,自己,i,,,i,1,0.664,1,37,117,53,1,,
,,,,,,,,,,,,,,1,001,2025-01-02_16h15.49.579,IAT(Formal),2021.2.3,Win32,59.88023952,,,,,,,,,,,,,,,,,,,,,,,,,,,,,,,,,,,,,,,,,,,,,,,,,,,,傲慢,i,,,i,1,0.4523,1,38,118,37,1,,
,,,,,,,,,,,,,,1,001,2025-01-02_16h15.49.579,IAT(Formal),2021.2.3,Win32,59.88023952,,,,,,,,,,,,,,,,,,,,,,,,,,,,,,,,,,,,,,,,,,,,,,,,,,,,野蛮,i,,,e,0,0.7491,1,39,119,46,1,,
,,,,,,,,,,,,,,1,001,2025-01-02_16h15.49.579,IAT(Formal),2021.2.3,Win32,59.88023952,,,,,,,,,,,,,,,,,,,,,,,,,,,,,,,,,,,,,,,,,,,,,,,,,,,,我的,i,,,i,1,0.8114,1,40,120,1,1,,
,,,,,,,,,,,,,,1,001,2025-01-02_16h15.49.579,IAT(Formal),2021.2.3,Win32,59.88023952,,,,,,,,,,,,,,,,,,,,,,,,,,,,,,,,,,,,,,,,,,,,,,,,,,,,下贱,i,,,i,1,0.8389,1,41,121,49,1,,
,,,,,,,,,,,,,,1,001,2025-01-02_16h15.49.579,IAT(Formal),2021.2.3,Win32,59.88023952,,,,,,,,,,,,,,,,,,,,,,,,,,,,,,,,,,,,,,,,,,,,,,,,,,,,消极,i,,,i,1,1.0459,1,42,122,35,1,,
,,,,,,,,,,,,,,1,001,2025-01-02_16h15.49.579,IAT(Formal),2021.2.3,Win32,59.88023952,,,,,,,,,,,,,,,,,,,,,,,,,,,,,,,,,,,,,,,,,,,,,,,,,,,,俺,i,,,e,0,1.2554,1,43,123,4,1,,
,,,,,,,,,,,,,,1,001,2025-01-02_16h15.49.579,IAT(Formal),2021.2.3,Win32,59.88023952,,,,,,,,,,,,,,,,,,,,,,,,,,,,,,,,,,,,,,,,,,,,,,,,,,,,愚蠢,i,,,i,1,1.1339,1,44,124,32,1,,
,,,,,,,,,,,,,,1,001,2025-01-02_16h15.49.579,IAT(Formal),2021.2.3,Win32,59.88023952,,,,,,,,,,,,,,,,,,,,,,,,,,,,,,,,,,,,,,,,,,,,,,,,,,,,他人,e,,,i,0,0.6511,1,45,125,78,1,,
,,,,,,,,,,,,,,1,001,2025-01-02_16h15.49.579,IAT(Formal),2021.2.3,Win32,59.88023952,,,,,,,,,,,,,,,,,,,,,,,,,,,,,,,,,,,,,,,,,,,,,,,,,,,,我的,i,,,i,1,0.7498,1,46,126,51,1,,
,,,,,,,,,,,,,,1,001,2025-01-02_16h15.49.579,IAT(Formal),2021.2.3,Win32,59.88023952,,,,,,,,,,,,,,,,,,,,,,,,,,,,,,,,,,,,,,,,,,,,,,,,,,,,暴躁,i,,,i,1,0.6452,1,47,127,44,1,,
,,,,,,,,,,,,,,1,001,2025-01-02_16h15.49.579,IAT(Formal),2021.2.3,Win32,59.88023952,,,,,,,,,,,,,,,,,,,,,,,,,,,,,,,,,,,,,,,,,,,,,,,,,,,,自私,i,,,i,1,0.5271,1,48,128,43,1,,
,,,,,,,,,,,,,,1,001,2025-01-02_16h15.49.579,IAT(Formal),2021.2.3,Win32,59.88023952,,,,,,,,,,,,,,,,,,,,,,,,,,,,,,,,,,,,,,,,,,,,,,,,,,,,轻率,i,,,i,1,0.5527,1,49,129,48,1,,
,,,,,,,,,,,,,,1,001,2025-01-02_16h15.49.579,IAT(Formal),2021.2.3,Win32,59.88023952,,,,,,,,,,,,,,,,,,,,,,,,,,,,,,,,,,,,,,,,,,,,,,,,,,,,我们,i,,,i,1,0.61,1,50,130,2,1,,
,,,,,,,,,,,,,,1,001,2025-01-02_16h15.49.579,IAT(Formal),2021.2.3,Win32,59.88023952,,,,,,,,,,,,,,,,,,,,,,,,,,,,,,,,,,,,,,,,,,,,,,,,,,,,正直,e,,,e,1,0.6029,1,51,131,16,1,,
,,,,,,,,,,,,,,1,001,2025-01-02_16h15.49.579,IAT(Formal),2021.2.3,Win32,59.88023952,,,,,,,,,,,,,,,,,,,,,,,,,,,,,,,,,,,,,,,,,,,,,,,,,,,,他,e,,,e,1,0.5822,1,52,132,55,1,,
,,,,,,,,,,,,,,1,001,2025-01-02_16h15.49.579,IAT(Formal),2021.2.3,Win32,59.88023952,,,,,,,,,,,,,,,,,,,,,,,,,,,,,,,,,,,,,,,,,,,,,,,,,,,,无私,e,,,e,1,0.5776,1,53,133,22,1,,
,,,,,,,,,,,,,,1,001,2025-01-02_16h15.49.579,IAT(Formal),2021.2.3,Win32,59.88023952,,,,,,,,,,,,,,,,,,,,,,,,,,,,,,,,,,,,,,,,,,,,,,,,,,,,他们,e,,,e,1,0.6171,1,54,134,56,1,,
,,,,,,,,,,,,,,1,001,2025-01-02_16h15.49.579,IAT(Formal),2021.2.3,Win32,59.88023952,,,,,,,,,,,,,,,,,,,,,,,,,,,,,,,,,,,,,,,,,,,,,,,,,,,,卑鄙,i,,,i,1,0.669,1,55,135,30,1,,
,,,,,,,,,,,,,,1,001,2025-01-02_16h15.49.579,IAT(Formal),2021.2.3,Win32,59.88023952,,,,,,,,,,,,,,,,,,,,,,,,,,,,,,,,,,,,,,,,,,,,,,,,,,,,杰出,e,,,i,0,1.3954,1,56,136,13,1,,
,,,,,,,,,,,,,,1,001,2025-01-02_16h15.49.579,IAT(Formal),2021.2.3,Win32,59.88023952,,,,,,,,,,,,,,,,,,,,,,,,,,,,,,,,,,,,,,,,,,,,,,,,,,,,他的,e,,,i,0,0.7171,1,57,137,7,1,,
,,,,,,,,,,,,,,1,001,2025-01-02_16h15.49.579,IAT(Formal),2021.2.3,Win32,59.88023952,,,,,,,,,,,,,,,,,,,,,,,,,,,,,,,,,,,,,,,,,,,,,,,,,,,,勇敢,e,,,,0,,1,58,138,17,1,,
,,,,,,,,,,,,,,1,001,2025-01-02_16h15.49.579,IAT(Formal),2021.2.3,Win32,59.88023952,,,,,,,,,,,,,,,,,,,,,,,,,,,,,,,,,,,,,,,,,,,,,,,,,,,,俺,i,,,i,1,0.6356,1,59,139,74,1,,
,,,,,,,,,,,,,,1,001,2025-01-02_16h15.49.579,IAT(Formal),2021.2.3,Win32,59.88023952,,,,,,,,,,,,,,,,,,,,,,,,,,,,,,,,,,,,,,,,,,,,,,,,,,,,热情,e,,,e,1,0.9684,1,60,140,27,1,,
,,,,,,,,,,,,,,1,001,2025-01-02_16h15.49.579,IAT(Formal),2021.2.3,Win32,59.88023952,,,,,,,,,,,,,,,,,,,,,,,,,,,,,,,,,,,,,,,,,,,,,,,,,,,,细腻,e,,,e,1,0.4933,1,61,141,25,1,,
,,,,,,,,,,,,,,1,001,2025-01-02_16h15.49.579,IAT(Formal),2021.2.3,Win32,59.88023952,,,,,,,,,,,,,,,,,,,,,,,,,,,,,,,,,,,,,,,,,,,,,,,,,,,,他们,e,,,e,1,0.6402,1,62,142,6,1,,
,,,,,,,,,,,,,,1,001,2025-01-02_16h15.49.579,IAT(Formal),2021.2.3,Win32,59.88023952,,,,,,,,,,,,,,,,,,,,,,,,,,,,,,,,,,,,,,,,,,,,,,,,,,,,刻薄,i,,,i,1,1.063,1,63,143,33,1,,
,,,,,,,,,,,,,,1,001,2025-01-02_16h15.49.579,IAT(Formal),2021.2.3,Win32,59.88023952,,,,,,,,,,,,,,,,,,,,,,,,,,,,,,,,,,,,,,,,,,,,,,,,,,,,其他,e,,,e,1,0.8678,1,64,144,79,1,,
,,,,,,,,,,,,,,1,001,2025-01-02_16h15.49.579,IAT(Formal),2021.2.3,Win32,59.88023952,,,,,,,,,,,,,,,,,,,,,,,,,,,,,,,,,,,,,,,,,,,,,,,,,,,,他人,e,,,i,0,1.3217,1,65,145,68,1,,
,,,,,,,,,,,,,,1,001,2025-01-02_16h15.49.579,IAT(Formal),2021.2.3,Win32,59.88023952,,,,,,,,,,,,,,,,,,,,,,,,,,,,,,,,,,,,,,,,,,,,,,,,,,,,他,e,,,,0,,1,66,146,65,1,,
,,,,,,,,,,,,,,1,001,2025-01-02_16h15.49.579,IAT(Formal),2021.2.3,Win32,59.88023952,,,,,,,,,,,,,,,,,,,,,,,,,,,,,,,,,,,,,,,,,,,,,,,,,,,,我们,i,,,i,1,0.494,1,67,147,62,1,,
,,,,,,,,,,,,,,1,001,2025-01-02_16h15.49.579,IAT(Formal),2021.2.3,Win32,59.88023952,,,,,,,,,,,,,,,,,,,,,,,,,,,,,,,,,,,,,,,,,,,,,,,,,,,,我们,i,,,i,1,0.9516,1,68,148,72,1,,
,,,,,,,,,,,,,,1,001,2025-01-02_16h15.49.579,IAT(Formal),2021.2.3,Win32,59.88023952,,,,,,,,,,,,,,,,,,,,,,,,,,,,,,,,,,,,,,,,,,,,,,,,,,,,他人,e,,,,0,,1,69,149,8,1,,
,,,,,,,,,,,,,,1,001,2025-01-02_16h15.49.579,IAT(Formal),2021.2.3,Win32,59.88023952,,,,,,,,,,,,,,,,,,,,,,,,,,,,,,,,,,,,,,,,,,,,,,,,,,,,活泼,e,,,e,1,1.4695,1,70,150,28,1,,
,,,,,,,,,,,,,,1,001,2025-01-02_16h15.49.579,IAT(Formal),2021.2.3,Win32,59.88023952,,,,,,,,,,,,,,,,,,,,,,,,,,,,,,,,,,,,,,,,,,,,,,,,,,,,我,i,,,i,1,0.8354,1,71,151,60,1,,
,,,,,,,,,,,,,,1,001,2025-01-02_16h15.49.579,IAT(Formal),2021.2.3,Win32,59.88023952,,,,,,,,,,,,,,,,,,,,,,,,,,,,,,,,,,,,,,,,,,,,,,,,,,,,虚伪,i,,,i,1,1.2875,1,72,152,31,1,,
,,,,,,,,,,,,,,1,001,2025-01-02_16h15.49.579,IAT(Formal),2021.2.3,Win32,59.88023952,,,,,,,,,,,,,,,,,,,,,,,,,,,,,,,,,,,,,,,,,,,,,,,,,,,,公正,e,,,e,1,0.526,1,73,153,23,1,,
,,,,,,,,,,,,,,1,001,2025-01-02_16h15.49.579,IAT(Formal),2021.2.3,Win32,59.88023952,,,,,,,,,,,,,,,,,,,,,,,,,,,,,,,,,,,,,,,,,,,,,,,,,,,,自卑,i,,,i,1,0.6806,1,74,154,36,1,,
,,,,,,,,,,,,,,1,001,2025-01-02_16h15.49.579,IAT(Formal),2021.2.3,Win32,59.88023952,,,,,,,,,,,,,,,,,,,,,,,,,,,,,,,,,,,,,,,,,,,,,,,,,,,,稳重,e,,,e,1,1.1429,1,75,155,21,1,,
,,,,,,,,,,,,,,1,001,2025-01-02_16h15.49.579,IAT(Formal),2021.2.3,Win32,59.88023952,,,,,,,,,,,,,,,,,,,,,,,,,,,,,,,,,,,,,,,,,,,,,,,,,,,,我,i,,,e,0,0.5027,1,76,156,50,1,,
,,,,,,,,,,,,,,1,001,2025-01-02_16h15.49.579,IAT(Formal),2021.2.3,Win32,59.88023952,,,,,,,,,,,,,,,,,,,,,,,,,,,,,,,,,,,,,,,,,,,,,,,,,,,,诚实,e,,,e,1,0.8107,1,77,157,15,1,,
,,,,,,,,,,,,,,1,001,2025-01-02_16h15.49.579,IAT(Formal),2021.2.3,Win32,59.88023952,,,,,,,,,,,,,,,,,,,,,,,,,,,,,,,,,,,,,,,,,,,,,,,,,,,,凶狠,i,,,i,1,0.736,1,78,158,42,1,,
,,,,,,,,,,,,,,1,001,2025-01-02_16h15.49.579,IAT(Formal),2021.2.3,Win32,59.88023952,,,,,,,,,,,,,,,,,,,,,,,,,,,,,,,,,,,,,,,,,,,,,,,,,,,,自己,i,,,e,0,0.8425,1,79,159,3,1,,
,,,,,,,,,,,,,,1,001,2025-01-02_16h15.49.579,IAT(Formal),2021.2.3,Win32,59.88023952,,,,,,,,,,,,,,,,,,,,,,,,,,,,,,,,,,,,,,,,,,,,,,,,,,,,,,,,,,,,,,,,space,1.315