﻿Instruction1.keys,Instruction1.rt,Instruction2.keys,Instruction2.rt,key_resp_iso.keys,key_resp_iso.corr,key_resp_iso.rt,Practice_01.thisRepN,Practice_01.thisTrialN,Practice_01.thisN,Practice_01.thisIndex,Practice_01.ran,Words,ans,participant,session,date,expName,psychopyVersion,OS,frameRate,key_resp_3.keys,key_resp_3.rt,key_resp_ipn.keys,key_resp_ipn.corr,key_resp_ipn.rt,Practice_02.thisRepN,Practice_02.thisTrialN,Practice_02.thisN,Practice_02.thisIndex,Practice_02.ran,Words_ipn,ans_ipn,key_resp_4.keys,key_resp_4.rt,key_resp_t1.keys,key_resp_t1.corr,key_resp_t1.rt,Practice_T1.thisRepN,Practice_T1.thisTrialN,Practice_T1.thisN,Practice_T1.thisIndex,Practice_T1.ran,Words_t1,ans_t1,key_resp_5.keys,key_resp_5.rt,Formal_T1.thisRepN,Formal_T1.thisTrialN,Formal_T1.thisN,Formal_T1.thisIndex,Formal_T1.ran,key_resp_6.keys,key_resp_6.rt,key_resp_iso_reverse.keys,key_resp_iso_reverse.corr,key_resp_iso_reverse.rt,Practice_iso_Reverse.thisRepN,Practice_iso_Reverse.thisTrialN,Practice_iso_Reverse.thisN,Practice_iso_Reverse.thisIndex,Practice_iso_Reverse.ran,key_resp_7.keys,key_resp_7.rt,key_resp_t2_Practice.keys,key_resp_t2_Practice.corr,key_resp_t2_Practice.rt,Practice_t2_Reverse.thisRepN,Practice_t2_Reverse.thisTrialN,Practice_t2_Reverse.thisN,Practice_t2_Reverse.thisIndex,Practice_t2_Reverse.ran,Words_t2,ans_t2,key_resp_8.keys,key_resp_8.rt,key_resp_t2.keys,key_resp_t2.corr,key_resp_t2.rt,Formal_t2_reverse.thisRepN,Formal_t2_reverse.thisTrialN,Formal_t2_reverse.thisN,Formal_t2_reverse.thisIndex,Formal_t2_reverse.ran,key_instruct.keys,key_instruct.rt
space,4.2367,space,7.6958,i,1,0.6403,0,0,0,9,1,其他,i,1,001,2025-01-02_19h23.33.430,IAT(Formal),2021.2.3,Win32,60.60606061,,,,,,,,,,,,,,,,,,,,,,,,,,,,,,,,,,,,,,,,,,,,,,,,,,,,,,,,,,,,,,,,,
,,,,e,1,0.4054,0,1,1,0,1,我,e,1,001,2025-01-02_19h23.33.430,IAT(Formal),2021.2.3,Win32,60.60606061,,,,,,,,,,,,,,,,,,,,,,,,,,,,,,,,,,,,,,,,,,,,,,,,,,,,,,,,,,,,,,,,,
,,,,e,1,0.4767,0,2,2,3,1,自己,e,1,001,2025-01-02_19h23.33.430,IAT(Formal),2021.2.3,Win32,60.60606061,,,,,,,,,,,,,,,,,,,,,,,,,,,,,,,,,,,,,,,,,,,,,,,,,,,,,,,,,,,,,,,,,
,,,,i,1,0.3476,0,3,3,7,1,他的,i,1,001,2025-01-02_19h23.33.430,IAT(Formal),2021.2.3,Win32,60.60606061,,,,,,,,,,,,,,,,,,,,,,,,,,,,,,,,,,,,,,,,,,,,,,,,,,,,,,,,,,,,,,,,,
,,,,e,1,0.3473,0,4,4,2,1,我们,e,1,001,2025-01-02_19h23.33.430,IAT(Formal),2021.2.3,Win32,60.60606061,,,,,,,,,,,,,,,,,,,,,,,,,,,,,,,,,,,,,,,,,,,,,,,,,,,,,,,,,,,,,,,,,
,,,,i,1,0.379,0,5,5,5,1,他,i,1,001,2025-01-02_19h23.33.430,IAT(Formal),2021.2.3,Win32,60.60606061,,,,,,,,,,,,,,,,,,,,,,,,,,,,,,,,,,,,,,,,,,,,,,,,,,,,,,,,,,,,,,,,,
,,,,i,1,0.5461,0,6,6,8,1,他人,i,1,001,2025-01-02_19h23.33.430,IAT(Formal),2021.2.3,Win32,60.60606061,,,,,,,,,,,,,,,,,,,,,,,,,,,,,,,,,,,,,,,,,,,,,,,,,,,,,,,,,,,,,,,,,
,,,,e,1,0.4771,0,7,7,4,1,俺,e,1,001,2025-01-02_19h23.33.430,IAT(Formal),2021.2.3,Win32,60.60606061,,,,,,,,,,,,,,,,,,,,,,,,,,,,,,,,,,,,,,,,,,,,,,,,,,,,,,,,,,,,,,,,,
,,,,i,1,0.5569,0,8,8,6,1,他们,i,1,001,2025-01-02_19h23.33.430,IAT(Formal),2021.2.3,Win32,60.60606061,,,,,,,,,,,,,,,,,,,,,,,,,,,,,,,,,,,,,,,,,,,,,,,,,,,,,,,,,,,,,,,,,
,,,,e,1,0.4416,0,9,9,1,1,我的,e,1,001,2025-01-02_19h23.33.430,IAT(Formal),2021.2.3,Win32,60.60606061,,,,,,,,,,,,,,,,,,,,,,,,,,,,,,,,,,,,,,,,,,,,,,,,,,,,,,,,,,,,,,,,,
,,,,,,,,,,,,,,1,001,2025-01-02_19h23.33.430,IAT(Formal),2021.2.3,Win32,60.60606061,space,3.7754,i,1,0.9624,0,0,0,22,1,愚蠢,i,,,,,,,,,,,,,,,,,,,,,,,,,,,,,,,,,,,,,,,,,,,,,,,,,,,,,
,,,,,,,,,,,,,,1,001,2025-01-02_19h23.33.430,IAT(Formal),2021.2.3,Win32,60.60606061,,,i,1,0.806,0,1,1,33,1,自私,i,,,,,,,,,,,,,,,,,,,,,,,,,,,,,,,,,,,,,,,,,,,,,,,,,,,,,
,,,,,,,,,,,,,,1,001,2025-01-02_19h23.33.430,IAT(Formal),2021.2.3,Win32,60.60606061,,,i,1,0.529,0,2,2,23,1,刻薄,i,,,,,,,,,,,,,,,,,,,,,,,,,,,,,,,,,,,,,,,,,,,,,,,,,,,,,
,,,,,,,,,,,,,,1,001,2025-01-02_19h23.33.430,IAT(Formal),2021.2.3,Win32,60.60606061,,,e,1,0.609,0,3,3,16,1,冷静,e,,,,,,,,,,,,,,,,,,,,,,,,,,,,,,,,,,,,,,,,,,,,,,,,,,,,,
,,,,,,,,,,,,,,1,001,2025-01-02_19h23.33.430,IAT(Formal),2021.2.3,Win32,60.60606061,,,e,1,0.4695,0,4,4,9,1,机智,e,,,,,,,,,,,,,,,,,,,,,,,,,,,,,,,,,,,,,,,,,,,,,,,,,,,,,
,,,,,,,,,,,,,,1,001,2025-01-02_19h23.33.430,IAT(Formal),2021.2.3,Win32,60.60606061,,,i,1,0.534,0,5,5,21,1,虚伪,i,,,,,,,,,,,,,,,,,,,,,,,,,,,,,,,,,,,,,,,,,,,,,,,,,,,,,
,,,,,,,,,,,,,,1,001,2025-01-02_19h23.33.430,IAT(Formal),2021.2.3,Win32,60.60606061,,,i,1,0.6427,0,6,6,38,1,轻率,i,,,,,,,,,,,,,,,,,,,,,,,,,,,,,,,,,,,,,,,,,,,,,,,,,,,,,
,,,,,,,,,,,,,,1,001,2025-01-02_19h23.33.430,IAT(Formal),2021.2.3,Win32,60.60606061,,,i,0,0.4559,0,7,7,12,1,无私,e,,,,,,,,,,,,,,,,,,,,,,,,,,,,,,,,,,,,,,,,,,,,,,,,,,,,,
,,,,,,,,,,,,,,1,001,2025-01-02_19h23.33.430,IAT(Formal),2021.2.3,Win32,60.60606061,,,e,1,0.4694,0,8,8,2,1,聪明,e,,,,,,,,,,,,,,,,,,,,,,,,,,,,,,,,,,,,,,,,,,,,,,,,,,,,,
,,,,,,,,,,,,,,1,001,2025-01-02_19h23.33.430,IAT(Formal),2021.2.3,Win32,60.60606061,,,i,1,0.6834,0,9,9,26,1,自卑,i,,,,,,,,,,,,,,,,,,,,,,,,,,,,,,,,,,,,,,,,,,,,,,,,,,,,,
,,,,,,,,,,,,,,1,001,2025-01-02_19h23.33.430,IAT(Formal),2021.2.3,Win32,60.60606061,,,e,1,0.5989,0,10,10,17,1,热情,e,,,,,,,,,,,,,,,,,,,,,,,,,,,,,,,,,,,,,,,,,,,,,,,,,,,,,
,,,,,,,,,,,,,,1,001,2025-01-02_19h23.33.430,IAT(Formal),2021.2.3,Win32,60.60606061,,,i,1,0.6512,0,11,11,20,1,卑鄙,i,,,,,,,,,,,,,,,,,,,,,,,,,,,,,,,,,,,,,,,,,,,,,,,,,,,,,
,,,,,,,,,,,,,,1,001,2025-01-02_19h23.33.430,IAT(Formal),2021.2.3,Win32,60.60606061,,,i,1,0.6879,0,12,12,31,1,散漫,i,,,,,,,,,,,,,,,,,,,,,,,,,,,,,,,,,,,,,,,,,,,,,,,,,,,,,
,,,,,,,,,,,,,,1,001,2025-01-02_19h23.33.430,IAT(Formal),2021.2.3,Win32,60.60606061,,,i,1,0.5424,0,13,13,32,1,凶狠,i,,,,,,,,,,,,,,,,,,,,,,,,,,,,,,,,,,,,,,,,,,,,,,,,,,,,,
,,,,,,,,,,,,,,1,001,2025-01-02_19h23.33.430,IAT(Formal),2021.2.3,Win32,60.60606061,,,e,1,0.5237,0,14,14,13,1,公正,e,,,,,,,,,,,,,,,,,,,,,,,,,,,,,,,,,,,,,,,,,,,,,,,,,,,,,
,,,,,,,,,,,,,,1,001,2025-01-02_19h23.33.430,IAT(Formal),2021.2.3,Win32,60.60606061,,,e,1,0.5784,0,15,15,11,1,稳重,e,,,,,,,,,,,,,,,,,,,,,,,,,,,,,,,,,,,,,,,,,,,,,,,,,,,,,
,,,,,,,,,,,,,,1,001,2025-01-02_19h23.33.430,IAT(Formal),2021.2.3,Win32,60.60606061,,,e,1,0.4865,0,16,16,7,1,勇敢,e,,,,,,,,,,,,,,,,,,,,,,,,,,,,,,,,,,,,,,,,,,,,,,,,,,,,,
,,,,,,,,,,,,,,1,001,2025-01-02_19h23.33.430,IAT(Formal),2021.2.3,Win32,60.60606061,,,i,1,0.6166,0,17,17,36,1,野蛮,i,,,,,,,,,,,,,,,,,,,,,,,,,,,,,,,,,,,,,,,,,,,,,,,,,,,,,
,,,,,,,,,,,,,,1,001,2025-01-02_19h23.33.430,IAT(Formal),2021.2.3,Win32,60.60606061,,,e,1,0.4615,0,18,18,18,1,活泼,e,,,,,,,,,,,,,,,,,,,,,,,,,,,,,,,,,,,,,,,,,,,,,,,,,,,,,
,,,,,,,,,,,,,,1,001,2025-01-02_19h23.33.430,IAT(Formal),2021.2.3,Win32,60.60606061,,,i,1,0.8966,0,19,19,37,1,固执,i,,,,,,,,,,,,,,,,,,,,,,,,,,,,,,,,,,,,,,,,,,,,,,,,,,,,,
,,,,,,,,,,,,,,1,001,2025-01-02_19h23.33.430,IAT(Formal),2021.2.3,Win32,60.60606061,,,i,1,0.7418,0,20,20,24,1,悲观,i,,,,,,,,,,,,,,,,,,,,,,,,,,,,,,,,,,,,,,,,,,,,,,,,,,,,,
,,,,,,,,,,,,,,1,001,2025-01-02_19h23.33.430,IAT(Formal),2021.2.3,Win32,60.60606061,,,e,1,0.5141,0,21,21,6,1,正直,e,,,,,,,,,,,,,,,,,,,,,,,,,,,,,,,,,,,,,,,,,,,,,,,,,,,,,
,,,,,,,,,,,,,,1,001,2025-01-02_19h23.33.430,IAT(Formal),2021.2.3,Win32,60.60606061,,,e,1,0.5435,0,22,22,14,1,朴实,e,,,,,,,,,,,,,,,,,,,,,,,,,,,,,,,,,,,,,,,,,,,,,,,,,,,,,
,,,,,,,,,,,,,,1,001,2025-01-02_19h23.33.430,IAT(Formal),2021.2.3,Win32,60.60606061,,,i,1,0.7855,0,23,23,30,1,执拗,i,,,,,,,,,,,,,,,,,,,,,,,,,,,,,,,,,,,,,,,,,,,,,,,,,,,,,
,,,,,,,,,,,,,,1,001,2025-01-02_19h23.33.430,IAT(Formal),2021.2.3,Win32,60.60606061,,,e,1,0.5304,0,24,24,5,1,诚实,e,,,,,,,,,,,,,,,,,,,,,,,,,,,,,,,,,,,,,,,,,,,,,,,,,,,,,
,,,,,,,,,,,,,,1,001,2025-01-02_19h23.33.430,IAT(Formal),2021.2.3,Win32,60.60606061,,,e,1,0.5446,0,25,25,19,1,诚恳,e,,,,,,,,,,,,,,,,,,,,,,,,,,,,,,,,,,,,,,,,,,,,,,,,,,,,,
,,,,,,,,,,,,,,1,001,2025-01-02_19h23.33.430,IAT(Formal),2021.2.3,Win32,60.60606061,,,e,1,0.5257,0,26,26,3,1,杰出,e,,,,,,,,,,,,,,,,,,,,,,,,,,,,,,,,,,,,,,,,,,,,,,,,,,,,,
,,,,,,,,,,,,,,1,001,2025-01-02_19h23.33.430,IAT(Formal),2021.2.3,Win32,60.60606061,,,i,1,0.5825,0,27,27,27,1,傲慢,i,,,,,,,,,,,,,,,,,,,,,,,,,,,,,,,,,,,,,,,,,,,,,,,,,,,,,
,,,,,,,,,,,,,,1,001,2025-01-02_19h23.33.430,IAT(Formal),2021.2.3,Win32,60.60606061,,,e,0,0.5398,0,28,28,29,1,冒失,i,,,,,,,,,,,,,,,,,,,,,,,,,,,,,,,,,,,,,,,,,,,,,,,,,,,,,
,,,,,,,,,,,,,,1,001,2025-01-02_19h23.33.430,IAT(Formal),2021.2.3,Win32,60.60606061,,,i,1,0.6461,0,29,29,25,1,消极,i,,,,,,,,,,,,,,,,,,,,,,,,,,,,,,,,,,,,,,,,,,,,,,,,,,,,,
,,,,,,,,,,,,,,1,001,2025-01-02_19h23.33.430,IAT(Formal),2021.2.3,Win32,60.60606061,,,e,1,0.6131,0,30,30,15,1,细腻,e,,,,,,,,,,,,,,,,,,,,,,,,,,,,,,,,,,,,,,,,,,,,,,,,,,,,,
,,,,,,,,,,,,,,1,001,2025-01-02_19h23.33.430,IAT(Formal),2021.2.3,Win32,60.60606061,,,i,1,0.6148,0,31,31,39,1,下贱,i,,,,,,,,,,,,,,,,,,,,,,,,,,,,,,,,,,,,,,,,,,,,,,,,,,,,,
,,,,,,,,,,,,,,1,001,2025-01-02_19h23.33.430,IAT(Formal),2021.2.3,Win32,60.60606061,,,e,1,1.2333,0,32,32,4,1,乐观,e,,,,,,,,,,,,,,,,,,,,,,,,,,,,,,,,,,,,,,,,,,,,,,,,,,,,,
,,,,,,,,,,,,,,1,001,2025-01-02_19h23.33.430,IAT(Formal),2021.2.3,Win32,60.60606061,,,e,1,0.5759,0,33,33,1,1,崇高,e,,,,,,,,,,,,,,,,,,,,,,,,,,,,,,,,,,,,,,,,,,,,,,,,,,,,,
,,,,,,,,,,,,,,1,001,2025-01-02_19h23.33.430,IAT(Formal),2021.2.3,Win32,60.60606061,,,e,1,0.4825,0,34,34,8,1,勤奋,e,,,,,,,,,,,,,,,,,,,,,,,,,,,,,,,,,,,,,,,,,,,,,,,,,,,,,
,,,,,,,,,,,,,,1,001,2025-01-02_19h23.33.430,IAT(Formal),2021.2.3,Win32,60.60606061,,,i,1,0.7183,0,35,35,35,1,猖狂,i,,,,,,,,,,,,,,,,,,,,,,,,,,,,,,,,,,,,,,,,,,,,,,,,,,,,,
,,,,,,,,,,,,,,1,001,2025-01-02_19h23.33.430,IAT(Formal),2021.2.3,Win32,60.60606061,,,e,1,0.443,0,36,36,10,1,认真,e,,,,,,,,,,,,,,,,,,,,,,,,,,,,,,,,,,,,,,,,,,,,,,,,,,,,,
,,,,,,,,,,,,,,1,001,2025-01-02_19h23.33.430,IAT(Formal),2021.2.3,Win32,60.60606061,,,i,1,0.701,0,37,37,34,1,暴躁,i,,,,,,,,,,,,,,,,,,,,,,,,,,,,,,,,,,,,,,,,,,,,,,,,,,,,,
,,,,,,,,,,,,,,1,001,2025-01-02_19h23.33.430,IAT(Formal),2021.2.3,Win32,60.60606061,,,i,1,0.759,0,38,38,28,1,鲁莽,i,,,,,,,,,,,,,,,,,,,,,,,,,,,,,,,,,,,,,,,,,,,,,,,,,,,,,
,,,,,,,,,,,,,,1,001,2025-01-02_19h23.33.430,IAT(Formal),2021.2.3,Win32,60.60606061,,,e,1,0.5822,0,39,39,0,1,优秀,e,,,,,,,,,,,,,,,,,,,,,,,,,,,,,,,,,,,,,,,,,,,,,,,,,,,,,
,,,,,,,,,,,,,,1,001,2025-01-02_19h23.33.430,IAT(Formal),2021.2.3,Win32,60.60606061,,,,,,,,,,,,,space,9.207,e,1,0.8641,0,0,0,62,1,我们,e,,,,,,,,,,,,,,,,,,,,,,,,,,,,,,,,,,,,,,,,,
,,,,,,,,,,,,,,1,001,2025-01-02_19h23.33.430,IAT(Formal),2021.2.3,Win32,60.60606061,,,,,,,,,,,,,,,e,1,0.596,0,1,1,22,1,无私,e,,,,,,,,,,,,,,,,,,,,,,,,,,,,,,,,,,,,,,,,,
,,,,,,,,,,,,,,1,001,2025-01-02_19h23.33.430,IAT(Formal),2021.2.3,Win32,60.60606061,,,,,,,,,,,,,,,i,1,0.6077,0,2,2,68,1,他人,i,,,,,,,,,,,,,,,,,,,,,,,,,,,,,,,,,,,,,,,,,
,,,,,,,,,,,,,,1,001,2025-01-02_19h23.33.430,IAT(Formal),2021.2.3,Win32,60.60606061,,,,,,,,,,,,,,,i,1,0.6116,0,3,3,47,1,固执,i,,,,,,,,,,,,,,,,,,,,,,,,,,,,,,,,,,,,,,,,,
,,,,,,,,,,,,,,1,001,2025-01-02_19h23.33.430,IAT(Formal),2021.2.3,Win32,60.60606061,,,,,,,,,,,,,,,i,1,0.7683,0,4,4,48,1,轻率,i,,,,,,,,,,,,,,,,,,,,,,,,,,,,,,,,,,,,,,,,,
,,,,,,,,,,,,,,1,001,2025-01-02_19h23.33.430,IAT(Formal),2021.2.3,Win32,60.60606061,,,,,,,,,,,,,,,e,1,0.6167,0,5,5,14,1,乐观,e,,,,,,,,,,,,,,,,,,,,,,,,,,,,,,,,,,,,,,,,,
,,,,,,,,,,,,,,1,001,2025-01-02_19h23.33.430,IAT(Formal),2021.2.3,Win32,60.60606061,,,,,,,,,,,,,,,i,1,0.5961,0,6,6,30,1,卑鄙,i,,,,,,,,,,,,,,,,,,,,,,,,,,,,,,,,,,,,,,,,,
,,,,,,,,,,,,,,1,001,2025-01-02_19h23.33.430,IAT(Formal),2021.2.3,Win32,60.60606061,,,,,,,,,,,,,,,e,1,0.5979,0,7,7,21,1,稳重,e,,,,,,,,,,,,,,,,,,,,,,,,,,,,,,,,,,,,,,,,,
,,,,,,,,,,,,,,1,001,2025-01-02_19h23.33.430,IAT(Formal),2021.2.3,Win32,60.60606061,,,,,,,,,,,,,,,e,1,0.4161,0,8,8,50,1,我,e,,,,,,,,,,,,,,,,,,,,,,,,,,,,,,,,,,,,,,,,,
,,,,,,,,,,,,,,1,001,2025-01-02_19h23.33.430,IAT(Formal),2021.2.3,Win32,60.60606061,,,,,,,,,,,,,,,e,1,0.4616,0,9,9,11,1,崇高,e,,,,,,,,,,,,,,,,,,,,,,,,,,,,,,,,,,,,,,,,,
,,,,,,,,,,,,,,1,001,2025-01-02_19h23.33.430,IAT(Formal),2021.2.3,Win32,60.60606061,,,,,,,,,,,,,,,i,1,0.5395,0,10,10,36,1,自卑,i,,,,,,,,,,,,,,,,,,,,,,,,,,,,,,,,,,,,,,,,,
,,,,,,,,,,,,,,1,001,2025-01-02_19h23.33.430,IAT(Formal),2021.2.3,Win32,60.60606061,,,,,,,,,,,,,,,i,1,0.4949,0,11,11,79,1,其他,i,,,,,,,,,,,,,,,,,,,,,,,,,,,,,,,,,,,,,,,,,
,,,,,,,,,,,,,,1,001,2025-01-02_19h23.33.430,IAT(Formal),2021.2.3,Win32,60.60606061,,,,,,,,,,,,,,,i,1,1.1397,0,12,12,38,1,鲁莽,i,,,,,,,,,,,,,,,,,,,,,,,,,,,,,,,,,,,,,,,,,
,,,,,,,,,,,,,,1,001,2025-01-02_19h23.33.430,IAT(Formal),2021.2.3,Win32,60.60606061,,,,,,,,,,,,,,,i,1,0.6532,0,13,13,7,1,他的,i,,,,,,,,,,,,,,,,,,,,,,,,,,,,,,,,,,,,,,,,,
,,,,,,,,,,,,,,1,001,2025-01-02_19h23.33.430,IAT(Formal),2021.2.3,Win32,60.60606061,,,,,,,,,,,,,,,i,0,0.4244,0,14,14,3,1,自己,e,,,,,,,,,,,,,,,,,,,,,,,,,,,,,,,,,,,,,,,,,
,,,,,,,,,,,,,,1,001,2025-01-02_19h23.33.430,IAT(Formal),2021.2.3,Win32,60.60606061,,,,,,,,,,,,,,,e,1,0.551,0,15,15,27,1,热情,e,,,,,,,,,,,,,,,,,,,,,,,,,,,,,,,,,,,,,,,,,
,,,,,,,,,,,,,,1,001,2025-01-02_19h23.33.430,IAT(Formal),2021.2.3,Win32,60.60606061,,,,,,,,,,,,,,,i,1,0.5624,0,16,16,5,1,他,i,,,,,,,,,,,,,,,,,,,,,,,,,,,,,,,,,,,,,,,,,
,,,,,,,,,,,,,,1,001,2025-01-02_19h23.33.430,IAT(Formal),2021.2.3,Win32,60.60606061,,,,,,,,,,,,,,,e,1,0.6749,0,17,17,26,1,冷静,e,,,,,,,,,,,,,,,,,,,,,,,,,,,,,,,,,,,,,,,,,
,,,,,,,,,,,,,,1,001,2025-01-02_19h23.33.430,IAT(Formal),2021.2.3,Win32,60.60606061,,,,,,,,,,,,,,,e,1,0.5545,0,18,18,71,1,我的,e,,,,,,,,,,,,,,,,,,,,,,,,,,,,,,,,,,,,,,,,,
,,,,,,,,,,,,,,1,001,2025-01-02_19h23.33.430,IAT(Formal),2021.2.3,Win32,60.60606061,,,,,,,,,,,,,,,i,1,0.5059,0,19,19,66,1,他们,i,,,,,,,,,,,,,,,,,,,,,,,,,,,,,,,,,,,,,,,,,
,,,,,,,,,,,,,,1,001,2025-01-02_19h23.33.430,IAT(Formal),2021.2.3,Win32,60.60606061,,,,,,,,,,,,,,,i,1,1.1227,0,20,20,37,1,傲慢,i,,,,,,,,,,,,,,,,,,,,,,,,,,,,,,,,,,,,,,,,,
,,,,,,,,,,,,,,1,001,2025-01-02_19h23.33.430,IAT(Formal),2021.2.3,Win32,60.60606061,,,,,,,,,,,,,,,e,1,0.5886,0,21,21,0,1,我,e,,,,,,,,,,,,,,,,,,,,,,,,,,,,,,,,,,,,,,,,,
,,,,,,,,,,,,,,1,001,2025-01-02_19h23.33.430,IAT(Formal),2021.2.3,Win32,60.60606061,,,,,,,,,,,,,,,e,1,0.513,0,22,22,54,1,俺,e,,,,,,,,,,,,,,,,,,,,,,,,,,,,,,,,,,,,,,,,,
,,,,,,,,,,,,,,1,001,2025-01-02_19h23.33.430,IAT(Formal),2021.2.3,Win32,60.60606061,,,,,,,,,,,,,,,i,1,0.5682,0,23,23,9,1,其他,i,,,,,,,,,,,,,,,,,,,,,,,,,,,,,,,,,,,,,,,,,
,,,,,,,,,,,,,,1,001,2025-01-02_19h23.33.430,IAT(Formal),2021.2.3,Win32,60.60606061,,,,,,,,,,,,,,,e,1,0.5834,0,24,24,64,1,俺,e,,,,,,,,,,,,,,,,,,,,,,,,,,,,,,,,,,,,,,,,,
,,,,,,,,,,,,,,1,001,2025-01-02_19h23.33.430,IAT(Formal),2021.2.3,Win32,60.60606061,,,,,,,,,,,,,,,e,1,0.7129,0,25,25,19,1,机智,e,,,,,,,,,,,,,,,,,,,,,,,,,,,,,,,,,,,,,,,,,
,,,,,,,,,,,,,,1,001,2025-01-02_19h23.33.430,IAT(Formal),2021.2.3,Win32,60.60606061,,,,,,,,,,,,,,,i,1,0.8149,0,26,26,32,1,愚蠢,i,,,,,,,,,,,,,,,,,,,,,,,,,,,,,,,,,,,,,,,,,
,,,,,,,,,,,,,,1,001,2025-01-02_19h23.33.430,IAT(Formal),2021.2.3,Win32,60.60606061,,,,,,,,,,,,,,,i,1,1.0996,0,27,27,43,1,自私,i,,,,,,,,,,,,,,,,,,,,,,,,,,,,,,,,,,,,,,,,,
,,,,,,,,,,,,,,1,001,2025-01-02_19h23.33.430,IAT(Formal),2021.2.3,Win32,60.60606061,,,,,,,,,,,,,,,e,1,0.603,0,28,28,63,1,自己,e,,,,,,,,,,,,,,,,,,,,,,,,,,,,,,,,,,,,,,,,,
,,,,,,,,,,,,,,1,001,2025-01-02_19h23.33.430,IAT(Formal),2021.2.3,Win32,60.60606061,,,,,,,,,,,,,,,i,1,0.7337,0,29,29,46,1,野蛮,i,,,,,,,,,,,,,,,,,,,,,,,,,,,,,,,,,,,,,,,,,
,,,,,,,,,,,,,,1,001,2025-01-02_19h23.33.430,IAT(Formal),2021.2.3,Win32,60.60606061,,,,,,,,,,,,,,,e,1,0.8979,0,30,30,1,1,我的,e,,,,,,,,,,,,,,,,,,,,,,,,,,,,,,,,,,,,,,,,,
,,,,,,,,,,,,,,1,001,2025-01-02_19h23.33.430,IAT(Formal),2021.2.3,Win32,60.60606061,,,,,,,,,,,,,,,i,1,0.6485,0,31,31,57,1,他的,i,,,,,,,,,,,,,,,,,,,,,,,,,,,,,,,,,,,,,,,,,
,,,,,,,,,,,,,,1,001,2025-01-02_19h23.33.430,IAT(Formal),2021.2.3,Win32,60.60606061,,,,,,,,,,,,,,,e,1,0.5898,0,32,32,29,1,诚恳,e,,,,,,,,,,,,,,,,,,,,,,,,,,,,,,,,,,,,,,,,,
,,,,,,,,,,,,,,1,001,2025-01-02_19h23.33.430,IAT(Formal),2021.2.3,Win32,60.60606061,,,,,,,,,,,,,,,i,1,0.7512,0,33,33,77,1,他的,i,,,,,,,,,,,,,,,,,,,,,,,,,,,,,,,,,,,,,,,,,
,,,,,,,,,,,,,,1,001,2025-01-02_19h23.33.430,IAT(Formal),2021.2.3,Win32,60.60606061,,,,,,,,,,,,,,,i,1,0.8383,0,34,34,75,1,他,i,,,,,,,,,,,,,,,,,,,,,,,,,,,,,,,,,,,,,,,,,
,,,,,,,,,,,,,,1,001,2025-01-02_19h23.33.430,IAT(Formal),2021.2.3,Win32,60.60606061,,,,,,,,,,,,,,,e,1,0.5612,0,35,35,2,1,我们,e,,,,,,,,,,,,,,,,,,,,,,,,,,,,,,,,,,,,,,,,,
,,,,,,,,,,,,,,1,001,2025-01-02_19h23.33.430,IAT(Formal),2021.2.3,Win32,60.60606061,,,,,,,,,,,,,,,e,1,0.6349,0,36,36,60,1,我,e,,,,,,,,,,,,,,,,,,,,,,,,,,,,,,,,,,,,,,,,,
,,,,,,,,,,,,,,1,001,2025-01-02_19h23.33.430,IAT(Formal),2021.2.3,Win32,60.60606061,,,,,,,,,,,,,,,e,1,0.4443,0,37,37,53,1,自己,e,,,,,,,,,,,,,,,,,,,,,,,,,,,,,,,,,,,,,,,,,
,,,,,,,,,,,,,,1,001,2025-01-02_19h23.33.430,IAT(Formal),2021.2.3,Win32,60.60606061,,,,,,,,,,,,,,,e,1,0.4843,0,38,38,74,1,俺,e,,,,,,,,,,,,,,,,,,,,,,,,,,,,,,,,,,,,,,,,,
,,,,,,,,,,,,,,1,001,2025-01-02_19h23.33.430,IAT(Formal),2021.2.3,Win32,60.60606061,,,,,,,,,,,,,,,e,1,0.4684,0,39,39,13,1,杰出,e,,,,,,,,,,,,,,,,,,,,,,,,,,,,,,,,,,,,,,,,,
,,,,,,,,,,,,,,1,001,2025-01-02_19h23.33.430,IAT(Formal),2021.2.3,Win32,60.60606061,,,,,,,,,,,,,,,e,1,0.4142,0,40,40,72,1,我们,e,,,,,,,,,,,,,,,,,,,,,,,,,,,,,,,,,,,,,,,,,
,,,,,,,,,,,,,,1,001,2025-01-02_19h23.33.430,IAT(Formal),2021.2.3,Win32,60.60606061,,,,,,,,,,,,,,,i,1,0.616,0,41,41,56,1,他们,i,,,,,,,,,,,,,,,,,,,,,,,,,,,,,,,,,,,,,,,,,
,,,,,,,,,,,,,,1,001,2025-01-02_19h23.33.430,IAT(Formal),2021.2.3,Win32,60.60606061,,,,,,,,,,,,,,,i,1,0.5334,0,42,42,35,1,消极,i,,,,,,,,,,,,,,,,,,,,,,,,,,,,,,,,,,,,,,,,,
,,,,,,,,,,,,,,1,001,2025-01-02_19h23.33.430,IAT(Formal),2021.2.3,Win32,60.60606061,,,,,,,,,,,,,,,i,1,0.8224,0,43,43,78,1,他人,i,,,,,,,,,,,,,,,,,,,,,,,,,,,,,,,,,,,,,,,,,
,,,,,,,,,,,,,,1,001,2025-01-02_19h23.33.430,IAT(Formal),2021.2.3,Win32,60.60606061,,,,,,,,,,,,,,,e,1,0.5452,0,44,44,16,1,正直,e,,,,,,,,,,,,,,,,,,,,,,,,,,,,,,,,,,,,,,,,,
,,,,,,,,,,,,,,1,001,2025-01-02_19h23.33.430,IAT(Formal),2021.2.3,Win32,60.60606061,,,,,,,,,,,,,,,i,1,0.6466,0,45,45,44,1,暴躁,i,,,,,,,,,,,,,,,,,,,,,,,,,,,,,,,,,,,,,,,,,
,,,,,,,,,,,,,,1,001,2025-01-02_19h23.33.430,IAT(Formal),2021.2.3,Win32,60.60606061,,,,,,,,,,,,,,,e,1,0.5479,0,46,46,17,1,勇敢,e,,,,,,,,,,,,,,,,,,,,,,,,,,,,,,,,,,,,,,,,,
,,,,,,,,,,,,,,1,001,2025-01-02_19h23.33.430,IAT(Formal),2021.2.3,Win32,60.60606061,,,,,,,,,,,,,,,e,1,0.5891,0,47,47,23,1,公正,e,,,,,,,,,,,,,,,,,,,,,,,,,,,,,,,,,,,,,,,,,
,,,,,,,,,,,,,,1,001,2025-01-02_19h23.33.430,IAT(Formal),2021.2.3,Win32,60.60606061,,,,,,,,,,,,,,,i,1,0.5423,0,48,48,65,1,他,i,,,,,,,,,,,,,,,,,,,,,,,,,,,,,,,,,,,,,,,,,
,,,,,,,,,,,,,,1,001,2025-01-02_19h23.33.430,IAT(Formal),2021.2.3,Win32,60.60606061,,,,,,,,,,,,,,,i,1,0.6372,0,49,49,33,1,刻薄,i,,,,,,,,,,,,,,,,,,,,,,,,,,,,,,,,,,,,,,,,,
,,,,,,,,,,,,,,1,001,2025-01-02_19h23.33.430,IAT(Formal),2021.2.3,Win32,60.60606061,,,,,,,,,,,,,,,i,1,0.4496,0,50,50,8,1,他人,i,,,,,,,,,,,,,,,,,,,,,,,,,,,,,,,,,,,,,,,,,
,,,,,,,,,,,,,,1,001,2025-01-02_19h23.33.430,IAT(Formal),2021.2.3,Win32,60.60606061,,,,,,,,,,,,,,,e,1,0.4972,0,51,51,10,1,优秀,e,,,,,,,,,,,,,,,,,,,,,,,,,,,,,,,,,,,,,,,,,
,,,,,,,,,,,,,,1,001,2025-01-02_19h23.33.430,IAT(Formal),2021.2.3,Win32,60.60606061,,,,,,,,,,,,,,,e,1,0.4596,0,52,52,20,1,认真,e,,,,,,,,,,,,,,,,,,,,,,,,,,,,,,,,,,,,,,,,,
,,,,,,,,,,,,,,1,001,2025-01-02_19h23.33.430,IAT(Formal),2021.2.3,Win32,60.60606061,,,,,,,,,,,,,,,e,1,0.5372,0,53,53,70,1,我,e,,,,,,,,,,,,,,,,,,,,,,,,,,,,,,,,,,,,,,,,,
,,,,,,,,,,,,,,1,001,2025-01-02_19h23.33.430,IAT(Formal),2021.2.3,Win32,60.60606061,,,,,,,,,,,,,,,e,1,0.4622,0,54,54,18,1,勤奋,e,,,,,,,,,,,,,,,,,,,,,,,,,,,,,,,,,,,,,,,,,
,,,,,,,,,,,,,,1,001,2025-01-02_19h23.33.430,IAT(Formal),2021.2.3,Win32,60.60606061,,,,,,,,,,,,,,,i,1,0.4979,0,55,55,45,1,猖狂,i,,,,,,,,,,,,,,,,,,,,,,,,,,,,,,,,,,,,,,,,,
,,,,,,,,,,,,,,1,001,2025-01-02_19h23.33.430,IAT(Formal),2021.2.3,Win32,60.60606061,,,,,,,,,,,,,,,e,1,0.5257,0,56,56,12,1,聪明,e,,,,,,,,,,,,,,,,,,,,,,,,,,,,,,,,,,,,,,,,,
,,,,,,,,,,,,,,1,001,2025-01-02_19h23.33.430,IAT(Formal),2021.2.3,Win32,60.60606061,,,,,,,,,,,,,,,e,1,0.5647,0,57,57,24,1,朴实,e,,,,,,,,,,,,,,,,,,,,,,,,,,,,,,,,,,,,,,,,,
,,,,,,,,,,,,,,1,001,2025-01-02_19h23.33.430,IAT(Formal),2021.2.3,Win32,60.60606061,,,,,,,,,,,,,,,i,1,0.5294,0,58,58,76,1,他们,i,,,,,,,,,,,,,,,,,,,,,,,,,,,,,,,,,,,,,,,,,
,,,,,,,,,,,,,,1,001,2025-01-02_19h23.33.430,IAT(Formal),2021.2.3,Win32,60.60606061,,,,,,,,,,,,,,,e,1,0.6189,0,59,59,51,1,我的,e,,,,,,,,,,,,,,,,,,,,,,,,,,,,,,,,,,,,,,,,,
,,,,,,,,,,,,,,1,001,2025-01-02_19h23.33.430,IAT(Formal),2021.2.3,Win32,60.60606061,,,,,,,,,,,,,,,e,1,0.5898,0,60,60,15,1,诚实,e,,,,,,,,,,,,,,,,,,,,,,,,,,,,,,,,,,,,,,,,,
,,,,,,,,,,,,,,1,001,2025-01-02_19h23.33.430,IAT(Formal),2021.2.3,Win32,60.60606061,,,,,,,,,,,,,,,e,0,0.3855,0,61,61,67,1,他的,i,,,,,,,,,,,,,,,,,,,,,,,,,,,,,,,,,,,,,,,,,
,,,,,,,,,,,,,,1,001,2025-01-02_19h23.33.430,IAT(Formal),2021.2.3,Win32,60.60606061,,,,,,,,,,,,,,,i,1,0.6316,0,62,62,34,1,悲观,i,,,,,,,,,,,,,,,,,,,,,,,,,,,,,,,,,,,,,,,,,
,,,,,,,,,,,,,,1,001,2025-01-02_19h23.33.430,IAT(Formal),2021.2.3,Win32,60.60606061,,,,,,,,,,,,,,,e,0,0.8733,0,63,63,39,1,冒失,i,,,,,,,,,,,,,,,,,,,,,,,,,,,,,,,,,,,,,,,,,
,,,,,,,,,,,,,,1,001,2025-01-02_19h23.33.430,IAT(Formal),2021.2.3,Win32,60.60606061,,,,,,,,,,,,,,,e,1,0.5388,0,64,64,28,1,活泼,e,,,,,,,,,,,,,,,,,,,,,,,,,,,,,,,,,,,,,,,,,
,,,,,,,,,,,,,,1,001,2025-01-02_19h23.33.430,IAT(Formal),2021.2.3,Win32,60.60606061,,,,,,,,,,,,,,,i,1,0.5378,0,65,65,41,1,散漫,i,,,,,,,,,,,,,,,,,,,,,,,,,,,,,,,,,,,,,,,,,
,,,,,,,,,,,,,,1,001,2025-01-02_19h23.33.430,IAT(Formal),2021.2.3,Win32,60.60606061,,,,,,,,,,,,,,,e,1,0.5486,0,66,66,73,1,自己,e,,,,,,,,,,,,,,,,,,,,,,,,,,,,,,,,,,,,,,,,,
,,,,,,,,,,,,,,1,001,2025-01-02_19h23.33.430,IAT(Formal),2021.2.3,Win32,60.60606061,,,,,,,,,,,,,,,i,1,0.592,0,67,67,58,1,他人,i,,,,,,,,,,,,,,,,,,,,,,,,,,,,,,,,,,,,,,,,,
,,,,,,,,,,,,,,1,001,2025-01-02_19h23.33.430,IAT(Formal),2021.2.3,Win32,60.60606061,,,,,,,,,,,,,,,i,1,0.8401,0,68,68,69,1,其他,i,,,,,,,,,,,,,,,,,,,,,,,,,,,,,,,,,,,,,,,,,
,,,,,,,,,,,,,,1,001,2025-01-02_19h23.33.430,IAT(Formal),2021.2.3,Win32,60.60606061,,,,,,,,,,,,,,,i,1,0.7061,0,69,69,31,1,虚伪,i,,,,,,,,,,,,,,,,,,,,,,,,,,,,,,,,,,,,,,,,,
,,,,,,,,,,,,,,1,001,2025-01-02_19h23.33.430,IAT(Formal),2021.2.3,Win32,60.60606061,,,,,,,,,,,,,,,e,1,0.6931,0,70,70,25,1,细腻,e,,,,,,,,,,,,,,,,,,,,,,,,,,,,,,,,,,,,,,,,,
,,,,,,,,,,,,,,1,001,2025-01-02_19h23.33.430,IAT(Formal),2021.2.3,Win32,60.60606061,,,,,,,,,,,,,,,i,1,0.5997,0,71,71,40,1,执拗,i,,,,,,,,,,,,,,,,,,,,,,,,,,,,,,,,,,,,,,,,,
,,,,,,,,,,,,,,1,001,2025-01-02_19h23.33.430,IAT(Formal),2021.2.3,Win32,60.60606061,,,,,,,,,,,,,,,i,1,0.5078,0,72,72,59,1,其他,i,,,,,,,,,,,,,,,,,,,,,,,,,,,,,,,,,,,,,,,,,
,,,,,,,,,,,,,,1,001,2025-01-02_19h23.33.430,IAT(Formal),2021.2.3,Win32,60.60606061,,,,,,,,,,,,,,,e,1,0.5357,0,73,73,61,1,我的,e,,,,,,,,,,,,,,,,,,,,,,,,,,,,,,,,,,,,,,,,,
,,,,,,,,,,,,,,1,001,2025-01-02_19h23.33.430,IAT(Formal),2021.2.3,Win32,60.60606061,,,,,,,,,,,,,,,i,1,0.7529,0,74,74,55,1,他,i,,,,,,,,,,,,,,,,,,,,,,,,,,,,,,,,,,,,,,,,,
,,,,,,,,,,,,,,1,001,2025-01-02_19h23.33.430,IAT(Formal),2021.2.3,Win32,60.60606061,,,,,,,,,,,,,,,i,1,0.596,0,75,75,42,1,凶狠,i,,,,,,,,,,,,,,,,,,,,,,,,,,,,,,,,,,,,,,,,,
,,,,,,,,,,,,,,1,001,2025-01-02_19h23.33.430,IAT(Formal),2021.2.3,Win32,60.60606061,,,,,,,,,,,,,,,i,1,1.456,0,76,76,6,1,他们,i,,,,,,,,,,,,,,,,,,,,,,,,,,,,,,,,,,,,,,,,,
,,,,,,,,,,,,,,1,001,2025-01-02_19h23.33.430,IAT(Formal),2021.2.3,Win32,60.60606061,,,,,,,,,,,,,,,e,1,0.5762,0,77,77,52,1,我们,e,,,,,,,,,,,,,,,,,,,,,,,,,,,,,,,,,,,,,,,,,
,,,,,,,,,,,,,,1,001,2025-01-02_19h23.33.430,IAT(Formal),2021.2.3,Win32,60.60606061,,,,,,,,,,,,,,,e,1,0.4704,0,78,78,4,1,俺,e,,,,,,,,,,,,,,,,,,,,,,,,,,,,,,,,,,,,,,,,,
,,,,,,,,,,,,,,1,001,2025-01-02_19h23.33.430,IAT(Formal),2021.2.3,Win32,60.60606061,,,,,,,,,,,,,,,,0,,0,79,79,49,1,下贱,i,,,,,,,,,,,,,,,,,,,,,,,,,,,,,,,,,,,,,,,,,
,,,,,,,,,,,,,,1,001,2025-01-02_19h23.33.430,IAT(Formal),2021.2.3,Win32,60.60606061,,,,,,,,,,,,,,,,0,,,,,,,猖狂,i,space,475.9705,0,0,0,45,1,,,,,,,,,,,,,,,,,,,,,,,,,,,,,,,,,,
,,,,,,,,,,,,,,1,001,2025-01-02_19h23.33.430,IAT(Formal),2021.2.3,Win32,60.60606061,,,,,,,,,,,,,,,,0,,,,,,,我,e,,,0,1,1,60,1,,,,,,,,,,,,,,,,,,,,,,,,,,,,,,,,,,
,,,,,,,,,,,,,,1,001,2025-01-02_19h23.33.430,IAT(Formal),2021.2.3,Win32,60.60606061,,,,,,,,,,,,,,,i,1,0.6314,,,,,,虚伪,i,,,0,2,2,31,1,,,,,,,,,,,,,,,,,,,,,,,,,,,,,,,,,,
,,,,,,,,,,,,,,1,001,2025-01-02_19h23.33.430,IAT(Formal),2021.2.3,Win32,60.60606061,,,,,,,,,,,,,,,i,1,0.5892,,,,,,愚蠢,i,,,0,3,3,32,1,,,,,,,,,,,,,,,,,,,,,,,,,,,,,,,,,,
,,,,,,,,,,,,,,1,001,2025-01-02_19h23.33.430,IAT(Formal),2021.2.3,Win32,60.60606061,,,,,,,,,,,,,,,e,1,0.7389,,,,,,公正,e,,,0,4,4,23,1,,,,,,,,,,,,,,,,,,,,,,,,,,,,,,,,,,
,,,,,,,,,,,,,,1,001,2025-01-02_19h23.33.430,IAT(Formal),2021.2.3,Win32,60.60606061,,,,,,,,,,,,,,,i,1,0.7219,,,,,,执拗,i,,,0,5,5,40,1,,,,,,,,,,,,,,,,,,,,,,,,,,,,,,,,,,
,,,,,,,,,,,,,,1,001,2025-01-02_19h23.33.430,IAT(Formal),2021.2.3,Win32,60.60606061,,,,,,,,,,,,,,,e,1,0.6097,,,,,,机智,e,,,0,6,6,19,1,,,,,,,,,,,,,,,,,,,,,,,,,,,,,,,,,,
,,,,,,,,,,,,,,1,001,2025-01-02_19h23.33.430,IAT(Formal),2021.2.3,Win32,60.60606061,,,,,,,,,,,,,,,e,1,0.4486,,,,,,勇敢,e,,,0,7,7,17,1,,,,,,,,,,,,,,,,,,,,,,,,,,,,,,,,,,
,,,,,,,,,,,,,,1,001,2025-01-02_19h23.33.430,IAT(Formal),2021.2.3,Win32,60.60606061,,,,,,,,,,,,,,,i,1,0.6824,,,,,,冒失,i,,,0,8,8,39,1,,,,,,,,,,,,,,,,,,,,,,,,,,,,,,,,,,
,,,,,,,,,,,,,,1,001,2025-01-02_19h23.33.430,IAT(Formal),2021.2.3,Win32,60.60606061,,,,,,,,,,,,,,,i,1,0.5907,,,,,,他们,i,,,0,9,9,56,1,,,,,,,,,,,,,,,,,,,,,,,,,,,,,,,,,,
,,,,,,,,,,,,,,1,001,2025-01-02_19h23.33.430,IAT(Formal),2021.2.3,Win32,60.60606061,,,,,,,,,,,,,,,i,0,0.0966,,,,,,俺,e,,,0,10,10,74,1,,,,,,,,,,,,,,,,,,,,,,,,,,,,,,,,,,
,,,,,,,,,,,,,,1,001,2025-01-02_19h23.33.430,IAT(Formal),2021.2.3,Win32,60.60606061,,,,,,,,,,,,,,,i,1,0.5833,,,,,,野蛮,i,,,0,11,11,46,1,,,,,,,,,,,,,,,,,,,,,,,,,,,,,,,,,,
,,,,,,,,,,,,,,1,001,2025-01-02_19h23.33.430,IAT(Formal),2021.2.3,Win32,60.60606061,,,,,,,,,,,,,,,i,1,0.5366,,,,,,他,i,,,0,12,12,5,1,,,,,,,,,,,,,,,,,,,,,,,,,,,,,,,,,,
,,,,,,,,,,,,,,1,001,2025-01-02_19h23.33.430,IAT(Formal),2021.2.3,Win32,60.60606061,,,,,,,,,,,,,,,e,1,0.4501,,,,,,自己,e,,,0,13,13,3,1,,,,,,,,,,,,,,,,,,,,,,,,,,,,,,,,,,
,,,,,,,,,,,,,,1,001,2025-01-02_19h23.33.430,IAT(Formal),2021.2.3,Win32,60.60606061,,,,,,,,,,,,,,,i,0,0.3641,,,,,,我的,e,,,0,14,14,51,1,,,,,,,,,,,,,,,,,,,,,,,,,,,,,,,,,,
,,,,,,,,,,,,,,1,001,2025-01-02_19h23.33.430,IAT(Formal),2021.2.3,Win32,60.60606061,,,,,,,,,,,,,,,e,1,0.4479,,,,,,我,e,,,0,15,15,0,1,,,,,,,,,,,,,,,,,,,,,,,,,,,,,,,,,,
,,,,,,,,,,,,,,1,001,2025-01-02_19h23.33.430,IAT(Formal),2021.2.3,Win32,60.60606061,,,,,,,,,,,,,,,i,1,0.5715,,,,,,其他,i,,,0,16,16,59,1,,,,,,,,,,,,,,,,,,,,,,,,,,,,,,,,,,
,,,,,,,,,,,,,,1,001,2025-01-02_19h23.33.430,IAT(Formal),2021.2.3,Win32,60.60606061,,,,,,,,,,,,,,,i,1,0.6391,,,,,,下贱,i,,,0,17,17,49,1,,,,,,,,,,,,,,,,,,,,,,,,,,,,,,,,,,
,,,,,,,,,,,,,,1,001,2025-01-02_19h23.33.430,IAT(Formal),2021.2.3,Win32,60.60606061,,,,,,,,,,,,,,,i,1,0.4988,,,,,,他的,i,,,0,18,18,57,1,,,,,,,,,,,,,,,,,,,,,,,,,,,,,,,,,,
,,,,,,,,,,,,,,1,001,2025-01-02_19h23.33.430,IAT(Formal),2021.2.3,Win32,60.60606061,,,,,,,,,,,,,,,i,1,0.6076,,,,,,他,i,,,0,19,19,55,1,,,,,,,,,,,,,,,,,,,,,,,,,,,,,,,,,,
,,,,,,,,,,,,,,1,001,2025-01-02_19h23.33.430,IAT(Formal),2021.2.3,Win32,60.60606061,,,,,,,,,,,,,,,i,1,0.7405,,,,,,卑鄙,i,,,0,20,20,30,1,,,,,,,,,,,,,,,,,,,,,,,,,,,,,,,,,,
,,,,,,,,,,,,,,1,001,2025-01-02_19h23.33.430,IAT(Formal),2021.2.3,Win32,60.60606061,,,,,,,,,,,,,,,e,1,0.4017,,,,,,我,e,,,0,21,21,70,1,,,,,,,,,,,,,,,,,,,,,,,,,,,,,,,,,,
,,,,,,,,,,,,,,1,001,2025-01-02_19h23.33.430,IAT(Formal),2021.2.3,Win32,60.60606061,,,,,,,,,,,,,,,e,1,0.541,,,,,,活泼,e,,,0,22,22,28,1,,,,,,,,,,,,,,,,,,,,,,,,,,,,,,,,,,
,,,,,,,,,,,,,,1,001,2025-01-02_19h23.33.430,IAT(Formal),2021.2.3,Win32,60.60606061,,,,,,,,,,,,,,,i,1,0.5799,,,,,,自卑,i,,,0,23,23,36,1,,,,,,,,,,,,,,,,,,,,,,,,,,,,,,,,,,
,,,,,,,,,,,,,,1,001,2025-01-02_19h23.33.430,IAT(Formal),2021.2.3,Win32,60.60606061,,,,,,,,,,,,,,,e,1,0.9356,,,,,,自己,e,,,0,24,24,53,1,,,,,,,,,,,,,,,,,,,,,,,,,,,,,,,,,,
,,,,,,,,,,,,,,1,001,2025-01-02_19h23.33.430,IAT(Formal),2021.2.3,Win32,60.60606061,,,,,,,,,,,,,,,i,1,0.5893,,,,,,他人,i,,,0,25,25,8,1,,,,,,,,,,,,,,,,,,,,,,,,,,,,,,,,,,
,,,,,,,,,,,,,,1,001,2025-01-02_19h23.33.430,IAT(Formal),2021.2.3,Win32,60.60606061,,,,,,,,,,,,,,,i,1,0.7668,,,,,,他人,i,,,0,26,26,78,1,,,,,,,,,,,,,,,,,,,,,,,,,,,,,,,,,,
,,,,,,,,,,,,,,1,001,2025-01-02_19h23.33.430,IAT(Formal),2021.2.3,Win32,60.60606061,,,,,,,,,,,,,,,,0,,,,,,,细腻,e,,,0,27,27,25,1,,,,,,,,,,,,,,,,,,,,,,,,,,,,,,,,,,
,,,,,,,,,,,,,,1,001,2025-01-02_19h23.33.430,IAT(Formal),2021.2.3,Win32,60.60606061,,,,,,,,,,,,,,,e,1,0.7019,,,,,,俺,e,,,0,28,28,54,1,,,,,,,,,,,,,,,,,,,,,,,,,,,,,,,,,,
,,,,,,,,,,,,,,1,001,2025-01-02_19h23.33.430,IAT(Formal),2021.2.3,Win32,60.60606061,,,,,,,,,,,,,,,e,1,0.514,,,,,,聪明,e,,,0,29,29,12,1,,,,,,,,,,,,,,,,,,,,,,,,,,,,,,,,,,
,,,,,,,,,,,,,,1,001,2025-01-02_19h23.33.430,IAT(Formal),2021.2.3,Win32,60.60606061,,,,,,,,,,,,,,,e,1,0.5112,,,,,,诚实,e,,,0,30,30,15,1,,,,,,,,,,,,,,,,,,,,,,,,,,,,,,,,,,
,,,,,,,,,,,,,,1,001,2025-01-02_19h23.33.430,IAT(Formal),2021.2.3,Win32,60.60606061,,,,,,,,,,,,,,,i,1,0.5612,,,,,,他们,i,,,0,31,31,66,1,,,,,,,,,,,,,,,,,,,,,,,,,,,,,,,,,,
,,,,,,,,,,,,,,1,001,2025-01-02_19h23.33.430,IAT(Formal),2021.2.3,Win32,60.60606061,,,,,,,,,,,,,,,e,1,1.4456,,,,,,我们,e,,,0,32,32,72,1,,,,,,,,,,,,,,,,,,,,,,,,,,,,,,,,,,
,,,,,,,,,,,,,,1,001,2025-01-02_19h23.33.430,IAT(Formal),2021.2.3,Win32,60.60606061,,,,,,,,,,,,,,,i,1,0.7152,,,,,,自私,i,,,0,33,33,43,1,,,,,,,,,,,,,,,,,,,,,,,,,,,,,,,,,,
,,,,,,,,,,,,,,1,001,2025-01-02_19h23.33.430,IAT(Formal),2021.2.3,Win32,60.60606061,,,,,,,,,,,,,,,i,1,0.8201,,,,,,他的,i,,,0,34,34,77,1,,,,,,,,,,,,,,,,,,,,,,,,,,,,,,,,,,
,,,,,,,,,,,,,,1,001,2025-01-02_19h23.33.430,IAT(Formal),2021.2.3,Win32,60.60606061,,,,,,,,,,,,,,,i,1,0.5845,,,,,,他的,i,,,0,35,35,7,1,,,,,,,,,,,,,,,,,,,,,,,,,,,,,,,,,,
,,,,,,,,,,,,,,1,001,2025-01-02_19h23.33.430,IAT(Formal),2021.2.3,Win32,60.60606061,,,,,,,,,,,,,,,i,1,1.1459,,,,,,他,i,,,0,36,36,75,1,,,,,,,,,,,,,,,,,,,,,,,,,,,,,,,,,,
,,,,,,,,,,,,,,1,001,2025-01-02_19h23.33.430,IAT(Formal),2021.2.3,Win32,60.60606061,,,,,,,,,,,,,,,i,1,0.7913,,,,,,他,i,,,0,37,37,65,1,,,,,,,,,,,,,,,,,,,,,,,,,,,,,,,,,,
,,,,,,,,,,,,,,1,001,2025-01-02_19h23.33.430,IAT(Formal),2021.2.3,Win32,60.60606061,,,,,,,,,,,,,,,i,1,0.5475,,,,,,他的,i,,,0,38,38,67,1,,,,,,,,,,,,,,,,,,,,,,,,,,,,,,,,,,
,,,,,,,,,,,,,,1,001,2025-01-02_19h23.33.430,IAT(Formal),2021.2.3,Win32,60.60606061,,,,,,,,,,,,,,,e,1,0.5881,,,,,,稳重,e,,,0,39,39,21,1,,,,,,,,,,,,,,,,,,,,,,,,,,,,,,,,,,
,,,,,,,,,,,,,,1,001,2025-01-02_19h23.33.430,IAT(Formal),2021.2.3,Win32,60.60606061,,,,,,,,,,,,,,,e,1,0.5141,,,,,,我们,e,,,0,40,40,2,1,,,,,,,,,,,,,,,,,,,,,,,,,,,,,,,,,,
,,,,,,,,,,,,,,1,001,2025-01-02_19h23.33.430,IAT(Formal),2021.2.3,Win32,60.60606061,,,,,,,,,,,,,,,e,1,0.6205,,,,,,自己,e,,,0,41,41,73,1,,,,,,,,,,,,,,,,,,,,,,,,,,,,,,,,,,
,,,,,,,,,,,,,,1,001,2025-01-02_19h23.33.430,IAT(Formal),2021.2.3,Win32,60.60606061,,,,,,,,,,,,,,,i,1,0.6466,,,,,,凶狠,i,,,0,42,42,42,1,,,,,,,,,,,,,,,,,,,,,,,,,,,,,,,,,,
,,,,,,,,,,,,,,1,001,2025-01-02_19h23.33.430,IAT(Formal),2021.2.3,Win32,60.60606061,,,,,,,,,,,,,,,i,1,0.7889,,,,,,消极,i,,,0,43,43,35,1,,,,,,,,,,,,,,,,,,,,,,,,,,,,,,,,,,
,,,,,,,,,,,,,,1,001,2025-01-02_19h23.33.430,IAT(Formal),2021.2.3,Win32,60.60606061,,,,,,,,,,,,,,,i,1,0.6635,,,,,,他人,i,,,0,44,44,68,1,,,,,,,,,,,,,,,,,,,,,,,,,,,,,,,,,,
,,,,,,,,,,,,,,1,001,2025-01-02_19h23.33.430,IAT(Formal),2021.2.3,Win32,60.60606061,,,,,,,,,,,,,,,i,1,0.6232,,,,,,刻薄,i,,,0,45,45,33,1,,,,,,,,,,,,,,,,,,,,,,,,,,,,,,,,,,
,,,,,,,,,,,,,,1,001,2025-01-02_19h23.33.430,IAT(Formal),2021.2.3,Win32,60.60606061,,,,,,,,,,,,,,,i,0,0.7772,,,,,,无私,e,,,0,46,46,22,1,,,,,,,,,,,,,,,,,,,,,,,,,,,,,,,,,,
,,,,,,,,,,,,,,1,001,2025-01-02_19h23.33.430,IAT(Formal),2021.2.3,Win32,60.60606061,,,,,,,,,,,,,,,e,1,0.5875,,,,,,崇高,e,,,0,47,47,11,1,,,,,,,,,,,,,,,,,,,,,,,,,,,,,,,,,,
,,,,,,,,,,,,,,1,001,2025-01-02_19h23.33.430,IAT(Formal),2021.2.3,Win32,60.60606061,,,,,,,,,,,,,,,e,1,0.5171,,,,,,冷静,e,,,0,48,48,26,1,,,,,,,,,,,,,,,,,,,,,,,,,,,,,,,,,,
,,,,,,,,,,,,,,1,001,2025-01-02_19h23.33.430,IAT(Formal),2021.2.3,Win32,60.60606061,,,,,,,,,,,,,,,e,1,0.5041,,,,,,乐观,e,,,0,49,49,14,1,,,,,,,,,,,,,,,,,,,,,,,,,,,,,,,,,,
,,,,,,,,,,,,,,1,001,2025-01-02_19h23.33.430,IAT(Formal),2021.2.3,Win32,60.60606061,,,,,,,,,,,,,,,i,1,0.9897,,,,,,其他,i,,,0,50,50,69,1,,,,,,,,,,,,,,,,,,,,,,,,,,,,,,,,,,
,,,,,,,,,,,,,,1,001,2025-01-02_19h23.33.430,IAT(Formal),2021.2.3,Win32,60.60606061,,,,,,,,,,,,,,,i,1,0.6462,,,,,,轻率,i,,,0,51,51,48,1,,,,,,,,,,,,,,,,,,,,,,,,,,,,,,,,,,
,,,,,,,,,,,,,,1,001,2025-01-02_19h23.33.430,IAT(Formal),2021.2.3,Win32,60.60606061,,,,,,,,,,,,,,,i,1,0.596,,,,,,固执,i,,,0,52,52,47,1,,,,,,,,,,,,,,,,,,,,,,,,,,,,,,,,,,
,,,,,,,,,,,,,,1,001,2025-01-02_19h23.33.430,IAT(Formal),2021.2.3,Win32,60.60606061,,,,,,,,,,,,,,,e,1,0.7435,,,,,,我的,e,,,0,53,53,71,1,,,,,,,,,,,,,,,,,,,,,,,,,,,,,,,,,,
,,,,,,,,,,,,,,1,001,2025-01-02_19h23.33.430,IAT(Formal),2021.2.3,Win32,60.60606061,,,,,,,,,,,,,,,e,1,0.4948,,,,,,正直,e,,,0,54,54,16,1,,,,,,,,,,,,,,,,,,,,,,,,,,,,,,,,,,
,,,,,,,,,,,,,,1,001,2025-01-02_19h23.33.430,IAT(Formal),2021.2.3,Win32,60.60606061,,,,,,,,,,,,,,,i,1,0.8081,,,,,,悲观,i,,,0,55,55,34,1,,,,,,,,,,,,,,,,,,,,,,,,,,,,,,,,,,
,,,,,,,,,,,,,,1,001,2025-01-02_19h23.33.430,IAT(Formal),2021.2.3,Win32,60.60606061,,,,,,,,,,,,,,,e,1,0.9459,,,,,,我们,e,,,0,56,56,52,1,,,,,,,,,,,,,,,,,,,,,,,,,,,,,,,,,,
,,,,,,,,,,,,,,1,001,2025-01-02_19h23.33.430,IAT(Formal),2021.2.3,Win32,60.60606061,,,,,,,,,,,,,,,e,1,0.7072,,,,,,俺,e,,,0,57,57,4,1,,,,,,,,,,,,,,,,,,,,,,,,,,,,,,,,,,
,,,,,,,,,,,,,,1,001,2025-01-02_19h23.33.430,IAT(Formal),2021.2.3,Win32,60.60606061,,,,,,,,,,,,,,,e,1,0.4097,,,,,,我,e,,,0,58,58,50,1,,,,,,,,,,,,,,,,,,,,,,,,,,,,,,,,,,
,,,,,,,,,,,,,,1,001,2025-01-02_19h23.33.430,IAT(Formal),2021.2.3,Win32,60.60606061,,,,,,,,,,,,,,,i,1,0.5496,,,,,,暴躁,i,,,0,59,59,44,1,,,,,,,,,,,,,,,,,,,,,,,,,,,,,,,,,,
,,,,,,,,,,,,,,1,001,2025-01-02_19h23.33.430,IAT(Formal),2021.2.3,Win32,60.60606061,,,,,,,,,,,,,,,i,1,0.4829,,,,,,其他,i,,,0,60,60,9,1,,,,,,,,,,,,,,,,,,,,,,,,,,,,,,,,,,
,,,,,,,,,,,,,,1,001,2025-01-02_19h23.33.430,IAT(Formal),2021.2.3,Win32,60.60606061,,,,,,,,,,,,,,,e,1,0.8786,,,,,,认真,e,,,0,61,61,20,1,,,,,,,,,,,,,,,,,,,,,,,,,,,,,,,,,,
,,,,,,,,,,,,,,1,001,2025-01-02_19h23.33.430,IAT(Formal),2021.2.3,Win32,60.60606061,,,,,,,,,,,,,,,e,1,0.3777,,,,,,优秀,e,,,0,62,62,10,1,,,,,,,,,,,,,,,,,,,,,,,,,,,,,,,,,,
,,,,,,,,,,,,,,1,001,2025-01-02_19h23.33.430,IAT(Formal),2021.2.3,Win32,60.60606061,,,,,,,,,,,,,,,e,1,0.8118,,,,,,杰出,e,,,0,63,63,13,1,,,,,,,,,,,,,,,,,,,,,,,,,,,,,,,,,,
,,,,,,,,,,,,,,1,001,2025-01-02_19h23.33.430,IAT(Formal),2021.2.3,Win32,60.60606061,,,,,,,,,,,,,,,e,1,0.4006,,,,,,热情,e,,,0,64,64,27,1,,,,,,,,,,,,,,,,,,,,,,,,,,,,,,,,,,
,,,,,,,,,,,,,,1,001,2025-01-02_19h23.33.430,IAT(Formal),2021.2.3,Win32,60.60606061,,,,,,,,,,,,,,,i,1,0.5154,,,,,,傲慢,i,,,0,65,65,37,1,,,,,,,,,,,,,,,,,,,,,,,,,,,,,,,,,,
,,,,,,,,,,,,,,1,001,2025-01-02_19h23.33.430,IAT(Formal),2021.2.3,Win32,60.60606061,,,,,,,,,,,,,,,e,1,0.4379,,,,,,诚恳,e,,,0,66,66,29,1,,,,,,,,,,,,,,,,,,,,,,,,,,,,,,,,,,
,,,,,,,,,,,,,,1,001,2025-01-02_19h23.33.430,IAT(Formal),2021.2.3,Win32,60.60606061,,,,,,,,,,,,,,,e,1,0.4393,,,,,,我们,e,,,0,67,67,62,1,,,,,,,,,,,,,,,,,,,,,,,,,,,,,,,,,,
,,,,,,,,,,,,,,1,001,2025-01-02_19h23.33.430,IAT(Formal),2021.2.3,Win32,60.60606061,,,,,,,,,,,,,,,i,1,0.4982,,,,,,他们,i,,,0,68,68,76,1,,,,,,,,,,,,,,,,,,,,,,,,,,,,,,,,,,
,,,,,,,,,,,,,,1,001,2025-01-02_19h23.33.430,IAT(Formal),2021.2.3,Win32,60.60606061,,,,,,,,,,,,,,,i,1,0.6302,,,,,,散漫,i,,,0,69,69,41,1,,,,,,,,,,,,,,,,,,,,,,,,,,,,,,,,,,
,,,,,,,,,,,,,,1,001,2025-01-02_19h23.33.430,IAT(Formal),2021.2.3,Win32,60.60606061,,,,,,,,,,,,,,,i,1,0.4933,,,,,,他人,i,,,0,70,70,58,1,,,,,,,,,,,,,,,,,,,,,,,,,,,,,,,,,,
,,,,,,,,,,,,,,1,001,2025-01-02_19h23.33.430,IAT(Formal),2021.2.3,Win32,60.60606061,,,,,,,,,,,,,,,e,1,0.8545,,,,,,朴实,e,,,0,71,71,24,1,,,,,,,,,,,,,,,,,,,,,,,,,,,,,,,,,,
,,,,,,,,,,,,,,1,001,2025-01-02_19h23.33.430,IAT(Formal),2021.2.3,Win32,60.60606061,,,,,,,,,,,,,,,i,1,0.5387,,,,,,他们,i,,,0,72,72,6,1,,,,,,,,,,,,,,,,,,,,,,,,,,,,,,,,,,
,,,,,,,,,,,,,,1,001,2025-01-02_19h23.33.430,IAT(Formal),2021.2.3,Win32,60.60606061,,,,,,,,,,,,,,,e,1,0.5807,,,,,,俺,e,,,0,73,73,64,1,,,,,,,,,,,,,,,,,,,,,,,,,,,,,,,,,,
,,,,,,,,,,,,,,1,001,2025-01-02_19h23.33.430,IAT(Formal),2021.2.3,Win32,60.60606061,,,,,,,,,,,,,,,e,1,0.5616,,,,,,我的,e,,,0,74,74,61,1,,,,,,,,,,,,,,,,,,,,,,,,,,,,,,,,,,
,,,,,,,,,,,,,,1,001,2025-01-02_19h23.33.430,IAT(Formal),2021.2.3,Win32,60.60606061,,,,,,,,,,,,,,,e,1,0.4333,,,,,,自己,e,,,0,75,75,63,1,,,,,,,,,,,,,,,,,,,,,,,,,,,,,,,,,,
,,,,,,,,,,,,,,1,001,2025-01-02_19h23.33.430,IAT(Formal),2021.2.3,Win32,60.60606061,,,,,,,,,,,,,,,e,1,0.5968,,,,,,勤奋,e,,,0,76,76,18,1,,,,,,,,,,,,,,,,,,,,,,,,,,,,,,,,,,
,,,,,,,,,,,,,,1,001,2025-01-02_19h23.33.430,IAT(Formal),2021.2.3,Win32,60.60606061,,,,,,,,,,,,,,,i,1,0.6802,,,,,,鲁莽,i,,,0,77,77,38,1,,,,,,,,,,,,,,,,,,,,,,,,,,,,,,,,,,
,,,,,,,,,,,,,,1,001,2025-01-02_19h23.33.430,IAT(Formal),2021.2.3,Win32,60.60606061,,,,,,,,,,,,,,,i,0,0.499,,,,,,我的,e,,,0,78,78,1,1,,,,,,,,,,,,,,,,,,,,,,,,,,,,,,,,,,
,,,,,,,,,,,,,,1,001,2025-01-02_19h23.33.430,IAT(Formal),2021.2.3,Win32,60.60606061,,,,,,,,,,,,,,,i,1,0.5673,,,,,,其他,i,,,0,79,79,79,1,,,,,,,,,,,,,,,,,,,,,,,,,,,,,,,,,,
,,,,,,,,,,,,,,1,001,2025-01-02_19h23.33.430,IAT(Formal),2021.2.3,Win32,60.60606061,,,,,,,,,,,,,,,i,1,0.5618,,,,,,他人,i,,,1,0,80,8,1,,,,,,,,,,,,,,,,,,,,,,,,,,,,,,,,,,
,,,,,,,,,,,,,,1,001,2025-01-02_19h23.33.430,IAT(Formal),2021.2.3,Win32,60.60606061,,,,,,,,,,,,,,,e,1,0.5009,,,,,,机智,e,,,1,1,81,19,1,,,,,,,,,,,,,,,,,,,,,,,,,,,,,,,,,,
,,,,,,,,,,,,,,1,001,2025-01-02_19h23.33.430,IAT(Formal),2021.2.3,Win32,60.60606061,,,,,,,,,,,,,,,e,1,0.5177,,,,,,杰出,e,,,1,2,82,13,1,,,,,,,,,,,,,,,,,,,,,,,,,,,,,,,,,,
,,,,,,,,,,,,,,1,001,2025-01-02_19h23.33.430,IAT(Formal),2021.2.3,Win32,60.60606061,,,,,,,,,,,,,,,i,1,0.8932,,,,,,他人,i,,,1,3,83,58,1,,,,,,,,,,,,,,,,,,,,,,,,,,,,,,,,,,
,,,,,,,,,,,,,,1,001,2025-01-02_19h23.33.430,IAT(Formal),2021.2.3,Win32,60.60606061,,,,,,,,,,,,,,,e,1,0.4955,,,,,,我的,e,,,1,4,84,71,1,,,,,,,,,,,,,,,,,,,,,,,,,,,,,,,,,,
,,,,,,,,,,,,,,1,001,2025-01-02_19h23.33.430,IAT(Formal),2021.2.3,Win32,60.60606061,,,,,,,,,,,,,,,e,1,0.4909,,,,,,公正,e,,,1,5,85,23,1,,,,,,,,,,,,,,,,,,,,,,,,,,,,,,,,,,
,,,,,,,,,,,,,,1,001,2025-01-02_19h23.33.430,IAT(Formal),2021.2.3,Win32,60.60606061,,,,,,,,,,,,,,,i,1,0.6486,,,,,,其他,i,,,1,6,86,69,1,,,,,,,,,,,,,,,,,,,,,,,,,,,,,,,,,,
,,,,,,,,,,,,,,1,001,2025-01-02_19h23.33.430,IAT(Formal),2021.2.3,Win32,60.60606061,,,,,,,,,,,,,,,i,1,1.2743,,,,,,他的,i,,,1,7,87,67,1,,,,,,,,,,,,,,,,,,,,,,,,,,,,,,,,,,
,,,,,,,,,,,,,,1,001,2025-01-02_19h23.33.430,IAT(Formal),2021.2.3,Win32,60.60606061,,,,,,,,,,,,,,,i,1,1.1079,,,,,,他,i,,,1,8,88,5,1,,,,,,,,,,,,,,,,,,,,,,,,,,,,,,,,,,
,,,,,,,,,,,,,,1,001,2025-01-02_19h23.33.430,IAT(Formal),2021.2.3,Win32,60.60606061,,,,,,,,,,,,,,,e,1,0.6404,,,,,,俺,e,,,1,9,89,64,1,,,,,,,,,,,,,,,,,,,,,,,,,,,,,,,,,,
,,,,,,,,,,,,,,1,001,2025-01-02_19h23.33.430,IAT(Formal),2021.2.3,Win32,60.60606061,,,,,,,,,,,,,,,e,1,0.4216,,,,,,我,e,,,1,10,90,70,1,,,,,,,,,,,,,,,,,,,,,,,,,,,,,,,,,,
,,,,,,,,,,,,,,1,001,2025-01-02_19h23.33.430,IAT(Formal),2021.2.3,Win32,60.60606061,,,,,,,,,,,,,,,i,1,0.6548,,,,,,鲁莽,i,,,1,11,91,38,1,,,,,,,,,,,,,,,,,,,,,,,,,,,,,,,,,,
,,,,,,,,,,,,,,1,001,2025-01-02_19h23.33.430,IAT(Formal),2021.2.3,Win32,60.60606061,,,,,,,,,,,,,,,e,1,0.4145,,,,,,活泼,e,,,1,12,92,28,1,,,,,,,,,,,,,,,,,,,,,,,,,,,,,,,,,,
,,,,,,,,,,,,,,1,001,2025-01-02_19h23.33.430,IAT(Formal),2021.2.3,Win32,60.60606061,,,,,,,,,,,,,,,e,1,0.4832,,,,,,乐观,e,,,1,13,93,14,1,,,,,,,,,,,,,,,,,,,,,,,,,,,,,,,,,,
,,,,,,,,,,,,,,1,001,2025-01-02_19h23.33.430,IAT(Formal),2021.2.3,Win32,60.60606061,,,,,,,,,,,,,,,e,1,0.4162,,,,,,自己,e,,,1,14,94,73,1,,,,,,,,,,,,,,,,,,,,,,,,,,,,,,,,,,
,,,,,,,,,,,,,,1,001,2025-01-02_19h23.33.430,IAT(Formal),2021.2.3,Win32,60.60606061,,,,,,,,,,,,,,,e,1,0.5964,,,,,,自己,e,,,1,15,95,63,1,,,,,,,,,,,,,,,,,,,,,,,,,,,,,,,,,,
,,,,,,,,,,,,,,1,001,2025-01-02_19h23.33.430,IAT(Formal),2021.2.3,Win32,60.60606061,,,,,,,,,,,,,,,i,1,0.5201,,,,,,他人,i,,,1,16,96,68,1,,,,,,,,,,,,,,,,,,,,,,,,,,,,,,,,,,
,,,,,,,,,,,,,,1,001,2025-01-02_19h23.33.430,IAT(Formal),2021.2.3,Win32,60.60606061,,,,,,,,,,,,,,,e,0,0.743,,,,,,他的,i,,,1,17,97,57,1,,,,,,,,,,,,,,,,,,,,,,,,,,,,,,,,,,
,,,,,,,,,,,,,,1,001,2025-01-02_19h23.33.430,IAT(Formal),2021.2.3,Win32,60.60606061,,,,,,,,,,,,,,,e,1,0.5129,,,,,,诚实,e,,,1,18,98,15,1,,,,,,,,,,,,,,,,,,,,,,,,,,,,,,,,,,
,,,,,,,,,,,,,,1,001,2025-01-02_19h23.33.430,IAT(Formal),2021.2.3,Win32,60.60606061,,,,,,,,,,,,,,,e,1,0.4915,,,,,,我,e,,,1,19,99,60,1,,,,,,,,,,,,,,,,,,,,,,,,,,,,,,,,,,
,,,,,,,,,,,,,,1,001,2025-01-02_19h23.33.430,IAT(Formal),2021.2.3,Win32,60.60606061,,,,,,,,,,,,,,,e,1,0.4114,,,,,,我们,e,,,1,20,100,2,1,,,,,,,,,,,,,,,,,,,,,,,,,,,,,,,,,,
,,,,,,,,,,,,,,1,001,2025-01-02_19h23.33.430,IAT(Formal),2021.2.3,Win32,60.60606061,,,,,,,,,,,,,,,i,1,0.4074,,,,,,他们,i,,,1,21,101,56,1,,,,,,,,,,,,,,,,,,,,,,,,,,,,,,,,,,
,,,,,,,,,,,,,,1,001,2025-01-02_19h23.33.430,IAT(Formal),2021.2.3,Win32,60.60606061,,,,,,,,,,,,,,,i,1,0.6312,,,,,,傲慢,i,,,1,22,102,37,1,,,,,,,,,,,,,,,,,,,,,,,,,,,,,,,,,,
,,,,,,,,,,,,,,1,001,2025-01-02_19h23.33.430,IAT(Formal),2021.2.3,Win32,60.60606061,,,,,,,,,,,,,,,i,1,0.679,,,,,,卑鄙,i,,,1,23,103,30,1,,,,,,,,,,,,,,,,,,,,,,,,,,,,,,,,,,
,,,,,,,,,,,,,,1,001,2025-01-02_19h23.33.430,IAT(Formal),2021.2.3,Win32,60.60606061,,,,,,,,,,,,,,,e,1,0.6749,,,,,,我们,e,,,1,24,104,72,1,,,,,,,,,,,,,,,,,,,,,,,,,,,,,,,,,,
,,,,,,,,,,,,,,1,001,2025-01-02_19h23.33.430,IAT(Formal),2021.2.3,Win32,60.60606061,,,,,,,,,,,,,,,i,1,0.5616,,,,,,下贱,i,,,1,25,105,49,1,,,,,,,,,,,,,,,,,,,,,,,,,,,,,,,,,,
,,,,,,,,,,,,,,1,001,2025-01-02_19h23.33.430,IAT(Formal),2021.2.3,Win32,60.60606061,,,,,,,,,,,,,,,i,1,1.0158,,,,,,他人,i,,,1,26,106,78,1,,,,,,,,,,,,,,,,,,,,,,,,,,,,,,,,,,
,,,,,,,,,,,,,,1,001,2025-01-02_19h23.33.430,IAT(Formal),2021.2.3,Win32,60.60606061,,,,,,,,,,,,,,,i,1,0.7487,,,,,,刻薄,i,,,1,27,107,33,1,,,,,,,,,,,,,,,,,,,,,,,,,,,,,,,,,,
,,,,,,,,,,,,,,1,001,2025-01-02_19h23.33.430,IAT(Formal),2021.2.3,Win32,60.60606061,,,,,,,,,,,,,,,e,1,0.4498,,,,,,俺,e,,,1,28,108,54,1,,,,,,,,,,,,,,,,,,,,,,,,,,,,,,,,,,
,,,,,,,,,,,,,,1,001,2025-01-02_19h23.33.430,IAT(Formal),2021.2.3,Win32,60.60606061,,,,,,,,,,,,,,,e,1,0.5123,,,,,,优秀,e,,,1,29,109,10,1,,,,,,,,,,,,,,,,,,,,,,,,,,,,,,,,,,
,,,,,,,,,,,,,,1,001,2025-01-02_19h23.33.430,IAT(Formal),2021.2.3,Win32,60.60606061,,,,,,,,,,,,,,,e,1,0.7994,,,,,,稳重,e,,,1,30,110,21,1,,,,,,,,,,,,,,,,,,,,,,,,,,,,,,,,,,
,,,,,,,,,,,,,,1,001,2025-01-02_19h23.33.430,IAT(Formal),2021.2.3,Win32,60.60606061,,,,,,,,,,,,,,,e,1,0.4297,,,,,,诚恳,e,,,1,31,111,29,1,,,,,,,,,,,,,,,,,,,,,,,,,,,,,,,,,,
,,,,,,,,,,,,,,1,001,2025-01-02_19h23.33.430,IAT(Formal),2021.2.3,Win32,60.60606061,,,,,,,,,,,,,,,i,1,0.5417,,,,,,他的,i,,,1,32,112,77,1,,,,,,,,,,,,,,,,,,,,,,,,,,,,,,,,,,
,,,,,,,,,,,,,,1,001,2025-01-02_19h23.33.430,IAT(Formal),2021.2.3,Win32,60.60606061,,,,,,,,,,,,,,,i,1,0.6131,,,,,,其他,i,,,1,33,113,59,1,,,,,,,,,,,,,,,,,,,,,,,,,,,,,,,,,,
,,,,,,,,,,,,,,1,001,2025-01-02_19h23.33.430,IAT(Formal),2021.2.3,Win32,60.60606061,,,,,,,,,,,,,,,i,1,0.8906,,,,,,凶狠,i,,,1,34,114,42,1,,,,,,,,,,,,,,,,,,,,,,,,,,,,,,,,,,
,,,,,,,,,,,,,,1,001,2025-01-02_19h23.33.430,IAT(Formal),2021.2.3,Win32,60.60606061,,,,,,,,,,,,,,,i,1,0.5951,,,,,,他们,i,,,1,35,115,66,1,,,,,,,,,,,,,,,,,,,,,,,,,,,,,,,,,,
,,,,,,,,,,,,,,1,001,2025-01-02_19h23.33.430,IAT(Formal),2021.2.3,Win32,60.60606061,,,,,,,,,,,,,,,i,1,0.6521,,,,,,愚蠢,i,,,1,36,116,32,1,,,,,,,,,,,,,,,,,,,,,,,,,,,,,,,,,,
,,,,,,,,,,,,,,1,001,2025-01-02_19h23.33.430,IAT(Formal),2021.2.3,Win32,60.60606061,,,,,,,,,,,,,,,e,1,0.5139,,,,,,勤奋,e,,,1,37,117,18,1,,,,,,,,,,,,,,,,,,,,,,,,,,,,,,,,,,
,,,,,,,,,,,,,,1,001,2025-01-02_19h23.33.430,IAT(Formal),2021.2.3,Win32,60.60606061,,,,,,,,,,,,,,,e,0,0.2615,,,,,,野蛮,i,,,1,38,118,46,1,,,,,,,,,,,,,,,,,,,,,,,,,,,,,,,,,,
,,,,,,,,,,,,,,1,001,2025-01-02_19h23.33.430,IAT(Formal),2021.2.3,Win32,60.60606061,,,,,,,,,,,,,,,e,1,0.6549,,,,,,认真,e,,,1,39,119,20,1,,,,,,,,,,,,,,,,,,,,,,,,,,,,,,,,,,
,,,,,,,,,,,,,,1,001,2025-01-02_19h23.33.430,IAT(Formal),2021.2.3,Win32,60.60606061,,,,,,,,,,,,,,,e,0,0.4413,,,,,,其他,i,,,1,40,120,9,1,,,,,,,,,,,,,,,,,,,,,,,,,,,,,,,,,,
,,,,,,,,,,,,,,1,001,2025-01-02_19h23.33.430,IAT(Formal),2021.2.3,Win32,60.60606061,,,,,,,,,,,,,,,i,1,0.6363,,,,,,消极,i,,,1,41,121,35,1,,,,,,,,,,,,,,,,,,,,,,,,,,,,,,,,,,
,,,,,,,,,,,,,,1,001,2025-01-02_19h23.33.430,IAT(Formal),2021.2.3,Win32,60.60606061,,,,,,,,,,,,,,,i,1,0.5134,,,,,,他,i,,,1,42,122,65,1,,,,,,,,,,,,,,,,,,,,,,,,,,,,,,,,,,
,,,,,,,,,,,,,,1,001,2025-01-02_19h23.33.430,IAT(Formal),2021.2.3,Win32,60.60606061,,,,,,,,,,,,,,,e,1,0.4544,,,,,,我,e,,,1,43,123,0,1,,,,,,,,,,,,,,,,,,,,,,,,,,,,,,,,,,
,,,,,,,,,,,,,,1,001,2025-01-02_19h23.33.430,IAT(Formal),2021.2.3,Win32,60.60606061,,,,,,,,,,,,,,,i,1,0.6765,,,,,,虚伪,i,,,1,44,124,31,1,,,,,,,,,,,,,,,,,,,,,,,,,,,,,,,,,,
,,,,,,,,,,,,,,1,001,2025-01-02_19h23.33.430,IAT(Formal),2021.2.3,Win32,60.60606061,,,,,,,,,,,,,,,i,1,0.6655,,,,,,固执,i,,,1,45,125,47,1,,,,,,,,,,,,,,,,,,,,,,,,,,,,,,,,,,
,,,,,,,,,,,,,,1,001,2025-01-02_19h23.33.430,IAT(Formal),2021.2.3,Win32,60.60606061,,,,,,,,,,,,,,,e,1,0.5786,,,,,,崇高,e,,,1,46,126,11,1,,,,,,,,,,,,,,,,,,,,,,,,,,,,,,,,,,
,,,,,,,,,,,,,,1,001,2025-01-02_19h23.33.430,IAT(Formal),2021.2.3,Win32,60.60606061,,,,,,,,,,,,,,,e,1,0.669,,,,,,俺,e,,,1,47,127,4,1,,,,,,,,,,,,,,,,,,,,,,,,,,,,,,,,,,
,,,,,,,,,,,,,,1,001,2025-01-02_19h23.33.430,IAT(Formal),2021.2.3,Win32,60.60606061,,,,,,,,,,,,,,,i,1,0.5663,,,,,,自卑,i,,,1,48,128,36,1,,,,,,,,,,,,,,,,,,,,,,,,,,,,,,,,,,
,,,,,,,,,,,,,,1,001,2025-01-02_19h23.33.430,IAT(Formal),2021.2.3,Win32,60.60606061,,,,,,,,,,,,,,,e,1,0.4916,,,,,,我的,e,,,1,49,129,51,1,,,,,,,,,,,,,,,,,,,,,,,,,,,,,,,,,,
,,,,,,,,,,,,,,1,001,2025-01-02_19h23.33.430,IAT(Formal),2021.2.3,Win32,60.60606061,,,,,,,,,,,,,,,i,1,0.4571,,,,,,其他,i,,,1,50,130,79,1,,,,,,,,,,,,,,,,,,,,,,,,,,,,,,,,,,
,,,,,,,,,,,,,,1,001,2025-01-02_19h23.33.430,IAT(Formal),2021.2.3,Win32,60.60606061,,,,,,,,,,,,,,,i,1,0.6913,,,,,,冒失,i,,,1,51,131,39,1,,,,,,,,,,,,,,,,,,,,,,,,,,,,,,,,,,
,,,,,,,,,,,,,,1,001,2025-01-02_19h23.33.430,IAT(Formal),2021.2.3,Win32,60.60606061,,,,,,,,,,,,,,,e,1,0.9027,,,,,,我,e,,,1,52,132,50,1,,,,,,,,,,,,,,,,,,,,,,,,,,,,,,,,,,
,,,,,,,,,,,,,,1,001,2025-01-02_19h23.33.430,IAT(Formal),2021.2.3,Win32,60.60606061,,,,,,,,,,,,,,,e,1,0.4853,,,,,,自己,e,,,1,53,133,3,1,,,,,,,,,,,,,,,,,,,,,,,,,,,,,,,,,,
,,,,,,,,,,,,,,1,001,2025-01-02_19h23.33.430,IAT(Formal),2021.2.3,Win32,60.60606061,,,,,,,,,,,,,,,i,1,0.696,,,,,,执拗,i,,,1,54,134,40,1,,,,,,,,,,,,,,,,,,,,,,,,,,,,,,,,,,
,,,,,,,,,,,,,,1,001,2025-01-02_19h23.33.430,IAT(Formal),2021.2.3,Win32,60.60606061,,,,,,,,,,,,,,,e,1,0.4657,,,,,,自己,e,,,1,55,135,53,1,,,,,,,,,,,,,,,,,,,,,,,,,,,,,,,,,,
,,,,,,,,,,,,,,1,001,2025-01-02_19h23.33.430,IAT(Formal),2021.2.3,Win32,60.60606061,,,,,,,,,,,,,,,e,1,0.507,,,,,,热情,e,,,1,56,136,27,1,,,,,,,,,,,,,,,,,,,,,,,,,,,,,,,,,,
,,,,,,,,,,,,,,1,001,2025-01-02_19h23.33.430,IAT(Formal),2021.2.3,Win32,60.60606061,,,,,,,,,,,,,,,i,1,0.6227,,,,,,他们,i,,,1,57,137,6,1,,,,,,,,,,,,,,,,,,,,,,,,,,,,,,,,,,
,,,,,,,,,,,,,,1,001,2025-01-02_19h23.33.430,IAT(Formal),2021.2.3,Win32,60.60606061,,,,,,,,,,,,,,,e,1,0.5125,,,,,,细腻,e,,,1,58,138,25,1,,,,,,,,,,,,,,,,,,,,,,,,,,,,,,,,,,
,,,,,,,,,,,,,,1,001,2025-01-02_19h23.33.430,IAT(Formal),2021.2.3,Win32,60.60606061,,,,,,,,,,,,,,,e,0,0.4468,,,,,,他,i,,,1,59,139,75,1,,,,,,,,,,,,,,,,,,,,,,,,,,,,,,,,,,
,,,,,,,,,,,,,,1,001,2025-01-02_19h23.33.430,IAT(Formal),2021.2.3,Win32,60.60606061,,,,,,,,,,,,,,,i,1,0.5199,,,,,,暴躁,i,,,1,60,140,44,1,,,,,,,,,,,,,,,,,,,,,,,,,,,,,,,,,,
,,,,,,,,,,,,,,1,001,2025-01-02_19h23.33.430,IAT(Formal),2021.2.3,Win32,60.60606061,,,,,,,,,,,,,,,e,1,0.53,,,,,,俺,e,,,1,61,141,74,1,,,,,,,,,,,,,,,,,,,,,,,,,,,,,,,,,,
,,,,,,,,,,,,,,1,001,2025-01-02_19h23.33.430,IAT(Formal),2021.2.3,Win32,60.60606061,,,,,,,,,,,,,,,i,1,0.4891,,,,,,悲观,i,,,1,62,142,34,1,,,,,,,,,,,,,,,,,,,,,,,,,,,,,,,,,,
,,,,,,,,,,,,,,1,001,2025-01-02_19h23.33.430,IAT(Formal),2021.2.3,Win32,60.60606061,,,,,,,,,,,,,,,i,1,0.7358,,,,,,他们,i,,,1,63,143,76,1,,,,,,,,,,,,,,,,,,,,,,,,,,,,,,,,,,
,,,,,,,,,,,,,,1,001,2025-01-02_19h23.33.430,IAT(Formal),2021.2.3,Win32,60.60606061,,,,,,,,,,,,,,,e,1,0.8114,,,,,,勇敢,e,,,1,64,144,17,1,,,,,,,,,,,,,,,,,,,,,,,,,,,,,,,,,,
,,,,,,,,,,,,,,1,001,2025-01-02_19h23.33.430,IAT(Formal),2021.2.3,Win32,60.60606061,,,,,,,,,,,,,,,i,1,0.6266,,,,,,他,i,,,1,65,145,55,1,,,,,,,,,,,,,,,,,,,,,,,,,,,,,,,,,,
,,,,,,,,,,,,,,1,001,2025-01-02_19h23.33.430,IAT(Formal),2021.2.3,Win32,60.60606061,,,,,,,,,,,,,,,i,1,0.5784,,,,,,散漫,i,,,1,66,146,41,1,,,,,,,,,,,,,,,,,,,,,,,,,,,,,,,,,,
,,,,,,,,,,,,,,1,001,2025-01-02_19h23.33.430,IAT(Formal),2021.2.3,Win32,60.60606061,,,,,,,,,,,,,,,i,1,0.5115,,,,,,自私,i,,,1,67,147,43,1,,,,,,,,,,,,,,,,,,,,,,,,,,,,,,,,,,
,,,,,,,,,,,,,,1,001,2025-01-02_19h23.33.430,IAT(Formal),2021.2.3,Win32,60.60606061,,,,,,,,,,,,,,,e,1,0.3983,,,,,,我们,e,,,1,68,148,52,1,,,,,,,,,,,,,,,,,,,,,,,,,,,,,,,,,,
,,,,,,,,,,,,,,1,001,2025-01-02_19h23.33.430,IAT(Formal),2021.2.3,Win32,60.60606061,,,,,,,,,,,,,,,i,1,0.5548,,,,,,猖狂,i,,,1,69,149,45,1,,,,,,,,,,,,,,,,,,,,,,,,,,,,,,,,,,
,,,,,,,,,,,,,,1,001,2025-01-02_19h23.33.430,IAT(Formal),2021.2.3,Win32,60.60606061,,,,,,,,,,,,,,,i,0,0.6619,,,,,,冷静,e,,,1,70,150,26,1,,,,,,,,,,,,,,,,,,,,,,,,,,,,,,,,,,
,,,,,,,,,,,,,,1,001,2025-01-02_19h23.33.430,IAT(Formal),2021.2.3,Win32,60.60606061,,,,,,,,,,,,,,,e,1,0.6057,,,,,,正直,e,,,1,71,151,16,1,,,,,,,,,,,,,,,,,,,,,,,,,,,,,,,,,,
,,,,,,,,,,,,,,1,001,2025-01-02_19h23.33.430,IAT(Formal),2021.2.3,Win32,60.60606061,,,,,,,,,,,,,,,i,1,0.6624,,,,,,轻率,i,,,1,72,152,48,1,,,,,,,,,,,,,,,,,,,,,,,,,,,,,,,,,,
,,,,,,,,,,,,,,1,001,2025-01-02_19h23.33.430,IAT(Formal),2021.2.3,Win32,60.60606061,,,,,,,,,,,,,,,e,1,0.4959,,,,,,朴实,e,,,1,73,153,24,1,,,,,,,,,,,,,,,,,,,,,,,,,,,,,,,,,,
,,,,,,,,,,,,,,1,001,2025-01-02_19h23.33.430,IAT(Formal),2021.2.3,Win32,60.60606061,,,,,,,,,,,,,,,e,1,0.3826,,,,,,我们,e,,,1,74,154,62,1,,,,,,,,,,,,,,,,,,,,,,,,,,,,,,,,,,
,,,,,,,,,,,,,,1,001,2025-01-02_19h23.33.430,IAT(Formal),2021.2.3,Win32,60.60606061,,,,,,,,,,,,,,,e,1,0.5059,,,,,,聪明,e,,,1,75,155,12,1,,,,,,,,,,,,,,,,,,,,,,,,,,,,,,,,,,
,,,,,,,,,,,,,,1,001,2025-01-02_19h23.33.430,IAT(Formal),2021.2.3,Win32,60.60606061,,,,,,,,,,,,,,,e,1,0.5254,,,,,,我的,e,,,1,76,156,1,1,,,,,,,,,,,,,,,,,,,,,,,,,,,,,,,,,,
,,,,,,,,,,,,,,1,001,2025-01-02_19h23.33.430,IAT(Formal),2021.2.3,Win32,60.60606061,,,,,,,,,,,,,,,i,1,0.4522,,,,,,他的,i,,,1,77,157,7,1,,,,,,,,,,,,,,,,,,,,,,,,,,,,,,,,,,
,,,,,,,,,,,,,,1,001,2025-01-02_19h23.33.430,IAT(Formal),2021.2.3,Win32,60.60606061,,,,,,,,,,,,,,,e,1,0.5,,,,,,我的,e,,,1,78,158,61,1,,,,,,,,,,,,,,,,,,,,,,,,,,,,,,,,,,
,,,,,,,,,,,,,,1,001,2025-01-02_19h23.33.430,IAT(Formal),2021.2.3,Win32,60.60606061,,,,,,,,,,,,,,,e,1,0.5455,,,,,,无私,e,,,1,79,159,22,1,,,,,,,,,,,,,,,,,,,,,,,,,,,,,,,,,,
,,,,,,,,,,,,俺,i,1,001,2025-01-02_19h23.33.430,IAT(Formal),2021.2.3,Win32,60.60606061,,,,,,,,,,,,,,,,,,,,,,,,,,,,,,,,space,6.3659,i,1,0.7059,0,0,0,4,1,,,,,,,,,,,,,,,,,,,,,,,,
,,,,,,,,,,,,他们,e,1,001,2025-01-02_19h23.33.430,IAT(Formal),2021.2.3,Win32,60.60606061,,,,,,,,,,,,,,,,,,,,,,,,,,,,,,,,,,e,1,0.4015,0,1,1,6,1,,,,,,,,,,,,,,,,,,,,,,,,
,,,,,,,,,,,,我的,i,1,001,2025-01-02_19h23.33.430,IAT(Formal),2021.2.3,Win32,60.60606061,,,,,,,,,,,,,,,,,,,,,,,,,,,,,,,,,,i,1,0.6985,0,2,2,1,1,,,,,,,,,,,,,,,,,,,,,,,,
,,,,,,,,,,,,他,e,1,001,2025-01-02_19h23.33.430,IAT(Formal),2021.2.3,Win32,60.60606061,,,,,,,,,,,,,,,,,,,,,,,,,,,,,,,,,,e,1,0.4685,0,3,3,5,1,,,,,,,,,,,,,,,,,,,,,,,,
,,,,,,,,,,,,他人,e,1,001,2025-01-02_19h23.33.430,IAT(Formal),2021.2.3,Win32,60.60606061,,,,,,,,,,,,,,,,,,,,,,,,,,,,,,,,,,e,1,0.6682,0,4,4,8,1,,,,,,,,,,,,,,,,,,,,,,,,
,,,,,,,,,,,,其他,e,1,001,2025-01-02_19h23.33.430,IAT(Formal),2021.2.3,Win32,60.60606061,,,,,,,,,,,,,,,,,,,,,,,,,,,,,,,,,,e,1,0.4133,0,5,5,9,1,,,,,,,,,,,,,,,,,,,,,,,,
,,,,,,,,,,,,我,i,1,001,2025-01-02_19h23.33.430,IAT(Formal),2021.2.3,Win32,60.60606061,,,,,,,,,,,,,,,,,,,,,,,,,,,,,,,,,,i,1,0.4493,0,6,6,0,1,,,,,,,,,,,,,,,,,,,,,,,,
,,,,,,,,,,,,自己,i,1,001,2025-01-02_19h23.33.430,IAT(Formal),2021.2.3,Win32,60.60606061,,,,,,,,,,,,,,,,,,,,,,,,,,,,,,,,,,i,1,0.472,0,7,7,3,1,,,,,,,,,,,,,,,,,,,,,,,,
,,,,,,,,,,,,我们,i,1,001,2025-01-02_19h23.33.430,IAT(Formal),2021.2.3,Win32,60.60606061,,,,,,,,,,,,,,,,,,,,,,,,,,,,,,,,,,i,1,0.4101,0,8,8,2,1,,,,,,,,,,,,,,,,,,,,,,,,
,,,,,,,,,,,,他的,e,1,001,2025-01-02_19h23.33.430,IAT(Formal),2021.2.3,Win32,60.60606061,,,,,,,,,,,,,,,,,,,,,,,,,,,,,,,,,,e,1,0.6796,0,9,9,7,1,,,,,,,,,,,,,,,,,,,,,,,,
,,,,,,,,,,,,,,1,001,2025-01-02_19h23.33.430,IAT(Formal),2021.2.3,Win32,60.60606061,,,,,,,,,,,,,,,,,,,,,,,,,,,,,,,,,,,,,,,,,,space,4.1955,i,1,0.7057,0,0,0,74,1,俺,i,,,,,,,,,,,,
,,,,,,,,,,,,,,1,001,2025-01-02_19h23.33.430,IAT(Formal),2021.2.3,Win32,60.60606061,,,,,,,,,,,,,,,,,,,,,,,,,,,,,,,,,,,,,,,,,,,,i,1,0.6412,0,1,1,50,1,我,i,,,,,,,,,,,,
,,,,,,,,,,,,,,1,001,2025-01-02_19h23.33.430,IAT(Formal),2021.2.3,Win32,60.60606061,,,,,,,,,,,,,,,,,,,,,,,,,,,,,,,,,,,,,,,,,,,,e,1,0.6426,0,2,2,10,1,优秀,e,,,,,,,,,,,,
,,,,,,,,,,,,,,1,001,2025-01-02_19h23.33.430,IAT(Formal),2021.2.3,Win32,60.60606061,,,,,,,,,,,,,,,,,,,,,,,,,,,,,,,,,,,,,,,,,,,,i,1,0.8219,0,3,3,48,1,轻率,i,,,,,,,,,,,,
,,,,,,,,,,,,,,1,001,2025-01-02_19h23.33.430,IAT(Formal),2021.2.3,Win32,60.60606061,,,,,,,,,,,,,,,,,,,,,,,,,,,,,,,,,,,,,,,,,,,,i,1,0.5675,0,4,4,61,1,我的,i,,,,,,,,,,,,
,,,,,,,,,,,,,,1,001,2025-01-02_19h23.33.430,IAT(Formal),2021.2.3,Win32,60.60606061,,,,,,,,,,,,,,,,,,,,,,,,,,,,,,,,,,,,,,,,,,,,e,1,0.4169,0,5,5,75,1,他,e,,,,,,,,,,,,
,,,,,,,,,,,,,,1,001,2025-01-02_19h23.33.430,IAT(Formal),2021.2.3,Win32,60.60606061,,,,,,,,,,,,,,,,,,,,,,,,,,,,,,,,,,,,,,,,,,,,i,1,0.5175,0,6,6,30,1,卑鄙,i,,,,,,,,,,,,
,,,,,,,,,,,,,,1,001,2025-01-02_19h23.33.430,IAT(Formal),2021.2.3,Win32,60.60606061,,,,,,,,,,,,,,,,,,,,,,,,,,,,,,,,,,,,,,,,,,,,e,1,0.6334,0,7,7,23,1,公正,e,,,,,,,,,,,,
,,,,,,,,,,,,,,1,001,2025-01-02_19h23.33.430,IAT(Formal),2021.2.3,Win32,60.60606061,,,,,,,,,,,,,,,,,,,,,,,,,,,,,,,,,,,,,,,,,,,,i,1,0.5504,0,8,8,0,1,我,i,,,,,,,,,,,,
,,,,,,,,,,,,,,1,001,2025-01-02_19h23.33.430,IAT(Formal),2021.2.3,Win32,60.60606061,,,,,,,,,,,,,,,,,,,,,,,,,,,,,,,,,,,,,,,,,,,,e,0,0.5522,0,9,9,41,1,散漫,i,,,,,,,,,,,,
,,,,,,,,,,,,,,1,001,2025-01-02_19h23.33.430,IAT(Formal),2021.2.3,Win32,60.60606061,,,,,,,,,,,,,,,,,,,,,,,,,,,,,,,,,,,,,,,,,,,,e,1,0.7165,0,10,10,59,1,其他,e,,,,,,,,,,,,
,,,,,,,,,,,,,,1,001,2025-01-02_19h23.33.430,IAT(Formal),2021.2.3,Win32,60.60606061,,,,,,,,,,,,,,,,,,,,,,,,,,,,,,,,,,,,,,,,,,,,i,1,0.9869,0,11,11,39,1,冒失,i,,,,,,,,,,,,
,,,,,,,,,,,,,,1,001,2025-01-02_19h23.33.430,IAT(Formal),2021.2.3,Win32,60.60606061,,,,,,,,,,,,,,,,,,,,,,,,,,,,,,,,,,,,,,,,,,,,e,1,0.5834,0,12,12,67,1,他的,e,,,,,,,,,,,,
,,,,,,,,,,,,,,1,001,2025-01-02_19h23.33.430,IAT(Formal),2021.2.3,Win32,60.60606061,,,,,,,,,,,,,,,,,,,,,,,,,,,,,,,,,,,,,,,,,,,,i,1,0.4515,0,13,13,3,1,自己,i,,,,,,,,,,,,
,,,,,,,,,,,,,,1,001,2025-01-02_19h23.33.430,IAT(Formal),2021.2.3,Win32,60.60606061,,,,,,,,,,,,,,,,,,,,,,,,,,,,,,,,,,,,,,,,,,,,e,1,0.6835,0,14,14,56,1,他们,e,,,,,,,,,,,,
,,,,,,,,,,,,,,1,001,2025-01-02_19h23.33.430,IAT(Formal),2021.2.3,Win32,60.60606061,,,,,,,,,,,,,,,,,,,,,,,,,,,,,,,,,,,,,,,,,,,,i,1,0.8881,0,15,15,44,1,暴躁,i,,,,,,,,,,,,
,,,,,,,,,,,,,,1,001,2025-01-02_19h23.33.430,IAT(Formal),2021.2.3,Win32,60.60606061,,,,,,,,,,,,,,,,,,,,,,,,,,,,,,,,,,,,,,,,,,,,i,1,0.9071,0,16,16,36,1,自卑,i,,,,,,,,,,,,
,,,,,,,,,,,,,,1,001,2025-01-02_19h23.33.430,IAT(Formal),2021.2.3,Win32,60.60606061,,,,,,,,,,,,,,,,,,,,,,,,,,,,,,,,,,,,,,,,,,,,i,1,0.5623,0,17,17,63,1,自己,i,,,,,,,,,,,,
,,,,,,,,,,,,,,1,001,2025-01-02_19h23.33.430,IAT(Formal),2021.2.3,Win32,60.60606061,,,,,,,,,,,,,,,,,,,,,,,,,,,,,,,,,,,,,,,,,,,,i,1,0.5913,0,18,18,4,1,俺,i,,,,,,,,,,,,
,,,,,,,,,,,,,,1,001,2025-01-02_19h23.33.430,IAT(Formal),2021.2.3,Win32,60.60606061,,,,,,,,,,,,,,,,,,,,,,,,,,,,,,,,,,,,,,,,,,,,e,1,0.4876,0,19,19,6,1,他们,e,,,,,,,,,,,,
,,,,,,,,,,,,,,1,001,2025-01-02_19h23.33.430,IAT(Formal),2021.2.3,Win32,60.60606061,,,,,,,,,,,,,,,,,,,,,,,,,,,,,,,,,,,,,,,,,,,,i,0,0.7589,0,20,20,13,1,杰出,e,,,,,,,,,,,,
,,,,,,,,,,,,,,1,001,2025-01-02_19h23.33.430,IAT(Formal),2021.2.3,Win32,60.60606061,,,,,,,,,,,,,,,,,,,,,,,,,,,,,,,,,,,,,,,,,,,,i,1,0.9629,0,21,21,34,1,悲观,i,,,,,,,,,,,,
,,,,,,,,,,,,,,1,001,2025-01-02_19h23.33.430,IAT(Formal),2021.2.3,Win32,60.60606061,,,,,,,,,,,,,,,,,,,,,,,,,,,,,,,,,,,,,,,,,,,,i,1,0.6395,0,22,22,52,1,我们,i,,,,,,,,,,,,
,,,,,,,,,,,,,,1,001,2025-01-02_19h23.33.430,IAT(Formal),2021.2.3,Win32,60.60606061,,,,,,,,,,,,,,,,,,,,,,,,,,,,,,,,,,,,,,,,,,,,i,0,0.841,0,23,23,16,1,正直,e,,,,,,,,,,,,
,,,,,,,,,,,,,,1,001,2025-01-02_19h23.33.430,IAT(Formal),2021.2.3,Win32,60.60606061,,,,,,,,,,,,,,,,,,,,,,,,,,,,,,,,,,,,,,,,,,,,,0,,0,24,24,45,1,猖狂,i,,,,,,,,,,,,
,,,,,,,,,,,,,,1,001,2025-01-02_19h23.33.430,IAT(Formal),2021.2.3,Win32,60.60606061,,,,,,,,,,,,,,,,,,,,,,,,,,,,,,,,,,,,,,,,,,,,i,1,0.8087,0,25,25,43,1,自私,i,,,,,,,,,,,,
,,,,,,,,,,,,,,1,001,2025-01-02_19h23.33.430,IAT(Formal),2021.2.3,Win32,60.60606061,,,,,,,,,,,,,,,,,,,,,,,,,,,,,,,,,,,,,,,,,,,,e,1,0.7058,0,26,26,78,1,他人,e,,,,,,,,,,,,
,,,,,,,,,,,,,,1,001,2025-01-02_19h23.33.430,IAT(Formal),2021.2.3,Win32,60.60606061,,,,,,,,,,,,,,,,,,,,,,,,,,,,,,,,,,,,,,,,,,,,i,1,0.8522,0,27,27,62,1,我们,i,,,,,,,,,,,,
,,,,,,,,,,,,,,1,001,2025-01-02_19h23.33.430,IAT(Formal),2021.2.3,Win32,60.60606061,,,,,,,,,,,,,,,,,,,,,,,,,,,,,,,,,,,,,,,,,,,,e,1,0.9009,0,28,28,55,1,他,e,,,,,,,,,,,,
,,,,,,,,,,,,,,1,001,2025-01-02_19h23.33.430,IAT(Formal),2021.2.3,Win32,60.60606061,,,,,,,,,,,,,,,,,,,,,,,,,,,,,,,,,,,,,,,,,,,,i,1,0.756,0,29,29,31,1,虚伪,i,,,,,,,,,,,,
,,,,,,,,,,,,,,1,001,2025-01-02_19h23.33.430,IAT(Formal),2021.2.3,Win32,60.60606061,,,,,,,,,,,,,,,,,,,,,,,,,,,,,,,,,,,,,,,,,,,,e,1,0.4505,0,30,30,69,1,其他,e,,,,,,,,,,,,
,,,,,,,,,,,,,,1,001,2025-01-02_19h23.33.430,IAT(Formal),2021.2.3,Win32,60.60606061,,,,,,,,,,,,,,,,,,,,,,,,,,,,,,,,,,,,,,,,,,,,e,1,0.4916,0,31,31,65,1,他,e,,,,,,,,,,,,
,,,,,,,,,,,,,,1,001,2025-01-02_19h23.33.430,IAT(Formal),2021.2.3,Win32,60.60606061,,,,,,,,,,,,,,,,,,,,,,,,,,,,,,,,,,,,,,,,,,,,e,1,0.4363,0,32,32,58,1,他人,e,,,,,,,,,,,,
,,,,,,,,,,,,,,1,001,2025-01-02_19h23.33.430,IAT(Formal),2021.2.3,Win32,60.60606061,,,,,,,,,,,,,,,,,,,,,,,,,,,,,,,,,,,,,,,,,,,,i,0,0.8448,0,33,33,29,1,诚恳,e,,,,,,,,,,,,
,,,,,,,,,,,,,,1,001,2025-01-02_19h23.33.430,IAT(Formal),2021.2.3,Win32,60.60606061,,,,,,,,,,,,,,,,,,,,,,,,,,,,,,,,,,,,,,,,,,,,e,1,0.4336,0,34,34,8,1,他人,e,,,,,,,,,,,,
,,,,,,,,,,,,,,1,001,2025-01-02_19h23.33.430,IAT(Formal),2021.2.3,Win32,60.60606061,,,,,,,,,,,,,,,,,,,,,,,,,,,,,,,,,,,,,,,,,,,,i,1,0.6208,0,35,35,2,1,我们,i,,,,,,,,,,,,
,,,,,,,,,,,,,,1,001,2025-01-02_19h23.33.430,IAT(Formal),2021.2.3,Win32,60.60606061,,,,,,,,,,,,,,,,,,,,,,,,,,,,,,,,,,,,,,,,,,,,i,0,0.7901,0,36,36,28,1,活泼,e,,,,,,,,,,,,
,,,,,,,,,,,,,,1,001,2025-01-02_19h23.33.430,IAT(Formal),2021.2.3,Win32,60.60606061,,,,,,,,,,,,,,,,,,,,,,,,,,,,,,,,,,,,,,,,,,,,e,1,0.7846,0,37,37,27,1,热情,e,,,,,,,,,,,,
,,,,,,,,,,,,,,1,001,2025-01-02_19h23.33.430,IAT(Formal),2021.2.3,Win32,60.60606061,,,,,,,,,,,,,,,,,,,,,,,,,,,,,,,,,,,,,,,,,,,,e,1,0.4612,0,38,38,19,1,机智,e,,,,,,,,,,,,
,,,,,,,,,,,,,,1,001,2025-01-02_19h23.33.430,IAT(Formal),2021.2.3,Win32,60.60606061,,,,,,,,,,,,,,,,,,,,,,,,,,,,,,,,,,,,,,,,,,,,e,1,0.594,0,39,39,15,1,诚实,e,,,,,,,,,,,,
,,,,,,,,,,,,,,1,001,2025-01-02_19h23.33.430,IAT(Formal),2021.2.3,Win32,60.60606061,,,,,,,,,,,,,,,,,,,,,,,,,,,,,,,,,,,,,,,,,,,,e,1,0.7432,0,40,40,9,1,其他,e,,,,,,,,,,,,
,,,,,,,,,,,,,,1,001,2025-01-02_19h23.33.430,IAT(Formal),2021.2.3,Win32,60.60606061,,,,,,,,,,,,,,,,,,,,,,,,,,,,,,,,,,,,,,,,,,,,i,1,0.8171,0,41,41,33,1,刻薄,i,,,,,,,,,,,,
,,,,,,,,,,,,,,1,001,2025-01-02_19h23.33.430,IAT(Formal),2021.2.3,Win32,60.60606061,,,,,,,,,,,,,,,,,,,,,,,,,,,,,,,,,,,,,,,,,,,,i,1,0.6503,0,42,42,72,1,我们,i,,,,,,,,,,,,
,,,,,,,,,,,,,,1,001,2025-01-02_19h23.33.430,IAT(Formal),2021.2.3,Win32,60.60606061,,,,,,,,,,,,,,,,,,,,,,,,,,,,,,,,,,,,,,,,,,,,e,1,0.5928,0,43,43,7,1,他的,e,,,,,,,,,,,,
,,,,,,,,,,,,,,1,001,2025-01-02_19h23.33.430,IAT(Formal),2021.2.3,Win32,60.60606061,,,,,,,,,,,,,,,,,,,,,,,,,,,,,,,,,,,,,,,,,,,,i,1,0.6327,0,44,44,54,1,俺,i,,,,,,,,,,,,
,,,,,,,,,,,,,,1,001,2025-01-02_19h23.33.430,IAT(Formal),2021.2.3,Win32,60.60606061,,,,,,,,,,,,,,,,,,,,,,,,,,,,,,,,,,,,,,,,,,,,e,1,0.5608,0,45,45,77,1,他的,e,,,,,,,,,,,,
,,,,,,,,,,,,,,1,001,2025-01-02_19h23.33.430,IAT(Formal),2021.2.3,Win32,60.60606061,,,,,,,,,,,,,,,,,,,,,,,,,,,,,,,,,,,,,,,,,,,,i,1,0.6172,0,46,46,70,1,我,i,,,,,,,,,,,,
,,,,,,,,,,,,,,1,001,2025-01-02_19h23.33.430,IAT(Formal),2021.2.3,Win32,60.60606061,,,,,,,,,,,,,,,,,,,,,,,,,,,,,,,,,,,,,,,,,,,,e,0,0.5003,0,47,47,46,1,野蛮,i,,,,,,,,,,,,
,,,,,,,,,,,,,,1,001,2025-01-02_19h23.33.430,IAT(Formal),2021.2.3,Win32,60.60606061,,,,,,,,,,,,,,,,,,,,,,,,,,,,,,,,,,,,,,,,,,,,i,0,0.8836,0,48,48,11,1,崇高,e,,,,,,,,,,,,
,,,,,,,,,,,,,,1,001,2025-01-02_19h23.33.430,IAT(Formal),2021.2.3,Win32,60.60606061,,,,,,,,,,,,,,,,,,,,,,,,,,,,,,,,,,,,,,,,,,,,e,0,0.6194,0,49,49,42,1,凶狠,i,,,,,,,,,,,,
,,,,,,,,,,,,,,1,001,2025-01-02_19h23.33.430,IAT(Formal),2021.2.3,Win32,60.60606061,,,,,,,,,,,,,,,,,,,,,,,,,,,,,,,,,,,,,,,,,,,,e,1,0.6587,0,50,50,20,1,认真,e,,,,,,,,,,,,
,,,,,,,,,,,,,,1,001,2025-01-02_19h23.33.430,IAT(Formal),2021.2.3,Win32,60.60606061,,,,,,,,,,,,,,,,,,,,,,,,,,,,,,,,,,,,,,,,,,,,,0,,0,51,51,35,1,消极,i,,,,,,,,,,,,
,,,,,,,,,,,,,,1,001,2025-01-02_19h23.33.430,IAT(Formal),2021.2.3,Win32,60.60606061,,,,,,,,,,,,,,,,,,,,,,,,,,,,,,,,,,,,,,,,,,,,i,0,0.1581,0,52,52,17,1,勇敢,e,,,,,,,,,,,,
,,,,,,,,,,,,,,1,001,2025-01-02_19h23.33.430,IAT(Formal),2021.2.3,Win32,60.60606061,,,,,,,,,,,,,,,,,,,,,,,,,,,,,,,,,,,,,,,,,,,,e,1,0.5084,0,53,53,76,1,他们,e,,,,,,,,,,,,
,,,,,,,,,,,,,,1,001,2025-01-02_19h23.33.430,IAT(Formal),2021.2.3,Win32,60.60606061,,,,,,,,,,,,,,,,,,,,,,,,,,,,,,,,,,,,,,,,,,,,i,1,0.6612,0,54,54,53,1,自己,i,,,,,,,,,,,,
,,,,,,,,,,,,,,1,001,2025-01-02_19h23.33.430,IAT(Formal),2021.2.3,Win32,60.60606061,,,,,,,,,,,,,,,,,,,,,,,,,,,,,,,,,,,,,,,,,,,,i,1,0.768,0,55,55,51,1,我的,i,,,,,,,,,,,,
,,,,,,,,,,,,,,1,001,2025-01-02_19h23.33.430,IAT(Formal),2021.2.3,Win32,60.60606061,,,,,,,,,,,,,,,,,,,,,,,,,,,,,,,,,,,,,,,,,,,,e,0,0.7678,0,56,56,32,1,愚蠢,i,,,,,,,,,,,,
,,,,,,,,,,,,,,1,001,2025-01-02_19h23.33.430,IAT(Formal),2021.2.3,Win32,60.60606061,,,,,,,,,,,,,,,,,,,,,,,,,,,,,,,,,,,,,,,,,,,,i,1,1.0173,0,57,57,37,1,傲慢,i,,,,,,,,,,,,
,,,,,,,,,,,,,,1,001,2025-01-02_19h23.33.430,IAT(Formal),2021.2.3,Win32,60.60606061,,,,,,,,,,,,,,,,,,,,,,,,,,,,,,,,,,,,,,,,,,,,,0,,0,58,58,47,1,固执,i,,,,,,,,,,,,
,,,,,,,,,,,,,,1,001,2025-01-02_19h23.33.430,IAT(Formal),2021.2.3,Win32,60.60606061,,,,,,,,,,,,,,,,,,,,,,,,,,,,,,,,,,,,,,,,,,,,i,0,0.3128,0,59,59,25,1,细腻,e,,,,,,,,,,,,
,,,,,,,,,,,,,,1,001,2025-01-02_19h23.33.430,IAT(Formal),2021.2.3,Win32,60.60606061,,,,,,,,,,,,,,,,,,,,,,,,,,,,,,,,,,,,,,,,,,,,e,1,0.4731,0,60,60,68,1,他人,e,,,,,,,,,,,,
,,,,,,,,,,,,,,1,001,2025-01-02_19h23.33.430,IAT(Formal),2021.2.3,Win32,60.60606061,,,,,,,,,,,,,,,,,,,,,,,,,,,,,,,,,,,,,,,,,,,,i,1,0.5774,0,61,61,64,1,俺,i,,,,,,,,,,,,
,,,,,,,,,,,,,,1,001,2025-01-02_19h23.33.430,IAT(Formal),2021.2.3,Win32,60.60606061,,,,,,,,,,,,,,,,,,,,,,,,,,,,,,,,,,,,,,,,,,,,e,1,0.9167,0,62,62,22,1,无私,e,,,,,,,,,,,,
,,,,,,,,,,,,,,1,001,2025-01-02_19h23.33.430,IAT(Formal),2021.2.3,Win32,60.60606061,,,,,,,,,,,,,,,,,,,,,,,,,,,,,,,,,,,,,,,,,,,,,0,,0,63,63,21,1,稳重,e,,,,,,,,,,,,
,,,,,,,,,,,,,,1,001,2025-01-02_19h23.33.430,IAT(Formal),2021.2.3,Win32,60.60606061,,,,,,,,,,,,,,,,,,,,,,,,,,,,,,,,,,,,,,,,,,,,e,0,0.1684,0,64,64,40,1,执拗,i,,,,,,,,,,,,
,,,,,,,,,,,,,,1,001,2025-01-02_19h23.33.430,IAT(Formal),2021.2.3,Win32,60.60606061,,,,,,,,,,,,,,,,,,,,,,,,,,,,,,,,,,,,,,,,,,,,i,1,1.2508,0,65,65,60,1,我,i,,,,,,,,,,,,
,,,,,,,,,,,,,,1,001,2025-01-02_19h23.33.430,IAT(Formal),2021.2.3,Win32,60.60606061,,,,,,,,,,,,,,,,,,,,,,,,,,,,,,,,,,,,,,,,,,,,e,1,1.3254,0,66,66,5,1,他,e,,,,,,,,,,,,
,,,,,,,,,,,,,,1,001,2025-01-02_19h23.33.430,IAT(Formal),2021.2.3,Win32,60.60606061,,,,,,,,,,,,,,,,,,,,,,,,,,,,,,,,,,,,,,,,,,,,e,1,1.0201,0,67,67,79,1,其他,e,,,,,,,,,,,,
,,,,,,,,,,,,,,1,001,2025-01-02_19h23.33.430,IAT(Formal),2021.2.3,Win32,60.60606061,,,,,,,,,,,,,,,,,,,,,,,,,,,,,,,,,,,,,,,,,,,,e,1,1.0847,0,68,68,57,1,他的,e,,,,,,,,,,,,
,,,,,,,,,,,,,,1,001,2025-01-02_19h23.33.430,IAT(Formal),2021.2.3,Win32,60.60606061,,,,,,,,,,,,,,,,,,,,,,,,,,,,,,,,,,,,,,,,,,,,,0,,0,69,69,1,1,我的,i,,,,,,,,,,,,
,,,,,,,,,,,,,,1,001,2025-01-02_19h23.33.430,IAT(Formal),2021.2.3,Win32,60.60606061,,,,,,,,,,,,,,,,,,,,,,,,,,,,,,,,,,,,,,,,,,,,,0,,0,70,70,66,1,他们,e,,,,,,,,,,,,
,,,,,,,,,,,,,,1,001,2025-01-02_19h23.33.430,IAT(Formal),2021.2.3,Win32,60.60606061,,,,,,,,,,,,,,,,,,,,,,,,,,,,,,,,,,,,,,,,,,,,e,1,0.9255,0,71,71,24,1,朴实,e,,,,,,,,,,,,
,,,,,,,,,,,,,,1,001,2025-01-02_19h23.33.430,IAT(Formal),2021.2.3,Win32,60.60606061,,,,,,,,,,,,,,,,,,,,,,,,,,,,,,,,,,,,,,,,,,,,i,1,1.0696,0,72,72,49,1,下贱,i,,,,,,,,,,,,
,,,,,,,,,,,,,,1,001,2025-01-02_19h23.33.430,IAT(Formal),2021.2.3,Win32,60.60606061,,,,,,,,,,,,,,,,,,,,,,,,,,,,,,,,,,,,,,,,,,,,i,1,0.8431,0,73,73,73,1,自己,i,,,,,,,,,,,,
,,,,,,,,,,,,,,1,001,2025-01-02_19h23.33.430,IAT(Formal),2021.2.3,Win32,60.60606061,,,,,,,,,,,,,,,,,,,,,,,,,,,,,,,,,,,,,,,,,,,,i,1,0.9017,0,74,74,38,1,鲁莽,i,,,,,,,,,,,,
,,,,,,,,,,,,,,1,001,2025-01-02_19h23.33.430,IAT(Formal),2021.2.3,Win32,60.60606061,,,,,,,,,,,,,,,,,,,,,,,,,,,,,,,,,,,,,,,,,,,,i,1,0.8256,0,75,75,71,1,我的,i,,,,,,,,,,,,
,,,,,,,,,,,,,,1,001,2025-01-02_19h23.33.430,IAT(Formal),2021.2.3,Win32,60.60606061,,,,,,,,,,,,,,,,,,,,,,,,,,,,,,,,,,,,,,,,,,,,e,1,1.0516,0,76,76,18,1,勤奋,e,,,,,,,,,,,,
,,,,,,,,,,,,,,1,001,2025-01-02_19h23.33.430,IAT(Formal),2021.2.3,Win32,60.60606061,,,,,,,,,,,,,,,,,,,,,,,,,,,,,,,,,,,,,,,,,,,,e,1,1.0665,0,77,77,26,1,冷静,e,,,,,,,,,,,,
,,,,,,,,,,,,,,1,001,2025-01-02_19h23.33.430,IAT(Formal),2021.2.3,Win32,60.60606061,,,,,,,,,,,,,,,,,,,,,,,,,,,,,,,,,,,,,,,,,,,,e,1,0.7572,0,78,78,14,1,乐观,e,,,,,,,,,,,,
,,,,,,,,,,,,,,1,001,2025-01-02_19h23.33.430,IAT(Formal),2021.2.3,Win32,60.60606061,,,,,,,,,,,,,,,,,,,,,,,,,,,,,,,,,,,,,,,,,,,,e,1,0.4886,0,79,79,12,1,聪明,e,,,,,,,,,,,,
,,,,,,,,,,,,,,1,001,2025-01-02_19h23.33.430,IAT(Formal),2021.2.3,Win32,60.60606061,,,,,,,,,,,,,,,,,,,,,,,,,,,,,,,,,,,,,,,,,,,,,,,,,,,,我们,i,space,23.3196,i,1,0.6716,0,0,0,2,1,,
,,,,,,,,,,,,,,1,001,2025-01-02_19h23.33.430,IAT(Formal),2021.2.3,Win32,60.60606061,,,,,,,,,,,,,,,,,,,,,,,,,,,,,,,,,,,,,,,,,,,,,,,,,,,,勤奋,e,,,i,0,0.7635,0,1,1,18,1,,
,,,,,,,,,,,,,,1,001,2025-01-02_19h23.33.430,IAT(Formal),2021.2.3,Win32,60.60606061,,,,,,,,,,,,,,,,,,,,,,,,,,,,,,,,,,,,,,,,,,,,,,,,,,,,聪明,e,,,e,1,0.5617,0,2,2,12,1,,
,,,,,,,,,,,,,,1,001,2025-01-02_19h23.33.430,IAT(Formal),2021.2.3,Win32,60.60606061,,,,,,,,,,,,,,,,,,,,,,,,,,,,,,,,,,,,,,,,,,,,,,,,,,,,执拗,i,,,i,1,0.7306,0,3,3,40,1,,
,,,,,,,,,,,,,,1,001,2025-01-02_19h23.33.430,IAT(Formal),2021.2.3,Win32,60.60606061,,,,,,,,,,,,,,,,,,,,,,,,,,,,,,,,,,,,,,,,,,,,,,,,,,,,鲁莽,i,,,i,1,0.9377,0,4,4,38,1,,
,,,,,,,,,,,,,,1,001,2025-01-02_19h23.33.430,IAT(Formal),2021.2.3,Win32,60.60606061,,,,,,,,,,,,,,,,,,,,,,,,,,,,,,,,,,,,,,,,,,,,,,,,,,,,固执,i,,,i,1,0.7146,0,5,5,47,1,,
,,,,,,,,,,,,,,1,001,2025-01-02_19h23.33.430,IAT(Formal),2021.2.3,Win32,60.60606061,,,,,,,,,,,,,,,,,,,,,,,,,,,,,,,,,,,,,,,,,,,,,,,,,,,,杰出,e,,,e,1,0.596,0,6,6,13,1,,
,,,,,,,,,,,,,,1,001,2025-01-02_19h23.33.430,IAT(Formal),2021.2.3,Win32,60.60606061,,,,,,,,,,,,,,,,,,,,,,,,,,,,,,,,,,,,,,,,,,,,,,,,,,,,我,i,,,i,1,0.5953,0,7,7,60,1,,
,,,,,,,,,,,,,,1,001,2025-01-02_19h23.33.430,IAT(Formal),2021.2.3,Win32,60.60606061,,,,,,,,,,,,,,,,,,,,,,,,,,,,,,,,,,,,,,,,,,,,,,,,,,,,俺,i,,,i,1,0.5501,0,8,8,54,1,,
,,,,,,,,,,,,,,1,001,2025-01-02_19h23.33.430,IAT(Formal),2021.2.3,Win32,60.60606061,,,,,,,,,,,,,,,,,,,,,,,,,,,,,,,,,,,,,,,,,,,,,,,,,,,,他,e,,,e,1,0.4645,0,9,9,55,1,,
,,,,,,,,,,,,,,1,001,2025-01-02_19h23.33.430,IAT(Formal),2021.2.3,Win32,60.60606061,,,,,,,,,,,,,,,,,,,,,,,,,,,,,,,,,,,,,,,,,,,,,,,,,,,,他们,e,,,e,1,0.4417,0,10,10,66,1,,
,,,,,,,,,,,,,,1,001,2025-01-02_19h23.33.430,IAT(Formal),2021.2.3,Win32,60.60606061,,,,,,,,,,,,,,,,,,,,,,,,,,,,,,,,,,,,,,,,,,,,,,,,,,,,他人,e,,,e,1,0.4726,0,11,11,58,1,,
,,,,,,,,,,,,,,1,001,2025-01-02_19h23.33.430,IAT(Formal),2021.2.3,Win32,60.60606061,,,,,,,,,,,,,,,,,,,,,,,,,,,,,,,,,,,,,,,,,,,,,,,,,,,,他的,e,,,e,1,0.4372,0,12,12,77,1,,
,,,,,,,,,,,,,,1,001,2025-01-02_19h23.33.430,IAT(Formal),2021.2.3,Win32,60.60606061,,,,,,,,,,,,,,,,,,,,,,,,,,,,,,,,,,,,,,,,,,,,,,,,,,,,乐观,e,,,e,1,0.7799,0,13,13,14,1,,
,,,,,,,,,,,,,,1,001,2025-01-02_19h23.33.430,IAT(Formal),2021.2.3,Win32,60.60606061,,,,,,,,,,,,,,,,,,,,,,,,,,,,,,,,,,,,,,,,,,,,,,,,,,,,他们,e,,,e,1,0.4793,0,14,14,76,1,,
,,,,,,,,,,,,,,1,001,2025-01-02_19h23.33.430,IAT(Formal),2021.2.3,Win32,60.60606061,,,,,,,,,,,,,,,,,,,,,,,,,,,,,,,,,,,,,,,,,,,,,,,,,,,,活泼,e,,,e,1,0.6108,0,15,15,28,1,,
,,,,,,,,,,,,,,1,001,2025-01-02_19h23.33.430,IAT(Formal),2021.2.3,Win32,60.60606061,,,,,,,,,,,,,,,,,,,,,,,,,,,,,,,,,,,,,,,,,,,,,,,,,,,,其他,e,,,e,1,0.5379,0,16,16,69,1,,
,,,,,,,,,,,,,,1,001,2025-01-02_19h23.33.430,IAT(Formal),2021.2.3,Win32,60.60606061,,,,,,,,,,,,,,,,,,,,,,,,,,,,,,,,,,,,,,,,,,,,,,,,,,,,散漫,i,,,,0,,0,17,17,41,1,,
,,,,,,,,,,,,,,1,001,2025-01-02_19h23.33.430,IAT(Formal),2021.2.3,Win32,60.60606061,,,,,,,,,,,,,,,,,,,,,,,,,,,,,,,,,,,,,,,,,,,,,,,,,,,,俺,i,,,i,1,0.5338,0,18,18,74,1,,
,,,,,,,,,,,,,,1,001,2025-01-02_19h23.33.430,IAT(Formal),2021.2.3,Win32,60.60606061,,,,,,,,,,,,,,,,,,,,,,,,,,,,,,,,,,,,,,,,,,,,,,,,,,,,愚蠢,i,,,i,1,0.8849,0,19,19,32,1,,
,,,,,,,,,,,,,,1,001,2025-01-02_19h23.33.430,IAT(Formal),2021.2.3,Win32,60.60606061,,,,,,,,,,,,,,,,,,,,,,,,,,,,,,,,,,,,,,,,,,,,,,,,,,,,细腻,e,,,i,0,0.678,0,20,20,25,1,,
,,,,,,,,,,,,,,1,001,2025-01-02_19h23.33.430,IAT(Formal),2021.2.3,Win32,60.60606061,,,,,,,,,,,,,,,,,,,,,,,,,,,,,,,,,,,,,,,,,,,,,,,,,,,,我的,i,,,i,1,0.4522,0,21,21,1,1,,
,,,,,,,,,,,,,,1,001,2025-01-02_19h23.33.430,IAT(Formal),2021.2.3,Win32,60.60606061,,,,,,,,,,,,,,,,,,,,,,,,,,,,,,,,,,,,,,,,,,,,,,,,,,,,暴躁,i,,,i,1,0.8339,0,22,22,44,1,,
,,,,,,,,,,,,,,1,001,2025-01-02_19h23.33.430,IAT(Formal),2021.2.3,Win32,60.60606061,,,,,,,,,,,,,,,,,,,,,,,,,,,,,,,,,,,,,,,,,,,,,,,,,,,,我,i,,,i,1,0.4886,0,23,23,70,1,,
,,,,,,,,,,,,,,1,001,2025-01-02_19h23.33.430,IAT(Formal),2021.2.3,Win32,60.60606061,,,,,,,,,,,,,,,,,,,,,,,,,,,,,,,,,,,,,,,,,,,,,,,,,,,,崇高,e,,,i,0,0.671,0,24,24,11,1,,
,,,,,,,,,,,,,,1,001,2025-01-02_19h23.33.430,IAT(Formal),2021.2.3,Win32,60.60606061,,,,,,,,,,,,,,,,,,,,,,,,,,,,,,,,,,,,,,,,,,,,,,,,,,,,自卑,i,,,i,1,0.9799,0,25,25,36,1,,
,,,,,,,,,,,,,,1,001,2025-01-02_19h23.33.430,IAT(Formal),2021.2.3,Win32,60.60606061,,,,,,,,,,,,,,,,,,,,,,,,,,,,,,,,,,,,,,,,,,,,,,,,,,,,朴实,e,,,e,1,0.7743,0,26,26,24,1,,
,,,,,,,,,,,,,,1,001,2025-01-02_19h23.33.430,IAT(Formal),2021.2.3,Win32,60.60606061,,,,,,,,,,,,,,,,,,,,,,,,,,,,,,,,,,,,,,,,,,,,,,,,,,,,悲观,i,,,i,1,0.7005,0,27,27,34,1,,
,,,,,,,,,,,,,,1,001,2025-01-02_19h23.33.430,IAT(Formal),2021.2.3,Win32,60.60606061,,,,,,,,,,,,,,,,,,,,,,,,,,,,,,,,,,,,,,,,,,,,,,,,,,,,刻薄,i,,,i,1,0.7079,0,28,28,33,1,,
,,,,,,,,,,,,,,1,001,2025-01-02_19h23.33.430,IAT(Formal),2021.2.3,Win32,60.60606061,,,,,,,,,,,,,,,,,,,,,,,,,,,,,,,,,,,,,,,,,,,,,,,,,,,,其他,e,,,e,1,0.5037,0,29,29,79,1,,
,,,,,,,,,,,,,,1,001,2025-01-02_19h23.33.430,IAT(Formal),2021.2.3,Win32,60.60606061,,,,,,,,,,,,,,,,,,,,,,,,,,,,,,,,,,,,,,,,,,,,,,,,,,,,我的,i,,,i,1,0.7719,0,30,30,71,1,,
,,,,,,,,,,,,,,1,001,2025-01-02_19h23.33.430,IAT(Formal),2021.2.3,Win32,60.60606061,,,,,,,,,,,,,,,,,,,,,,,,,,,,,,,,,,,,,,,,,,,,,,,,,,,,勇敢,e,,,,0,,0,31,31,17,1,,
,,,,,,,,,,,,,,1,001,2025-01-02_19h23.33.430,IAT(Formal),2021.2.3,Win32,60.60606061,,,,,,,,,,,,,,,,,,,,,,,,,,,,,,,,,,,,,,,,,,,,,,,,,,,,公正,e,,,e,1,0.6402,0,32,32,23,1,,
,,,,,,,,,,,,,,1,001,2025-01-02_19h23.33.430,IAT(Formal),2021.2.3,Win32,60.60606061,,,,,,,,,,,,,,,,,,,,,,,,,,,,,,,,,,,,,,,,,,,,,,,,,,,,正直,e,,,e,1,0.5555,0,33,33,16,1,,
,,,,,,,,,,,,,,1,001,2025-01-02_19h23.33.430,IAT(Formal),2021.2.3,Win32,60.60606061,,,,,,,,,,,,,,,,,,,,,,,,,,,,,,,,,,,,,,,,,,,,,,,,,,,,自己,i,,,i,1,0.5338,0,34,34,53,1,,
,,,,,,,,,,,,,,1,001,2025-01-02_19h23.33.430,IAT(Formal),2021.2.3,Win32,60.60606061,,,,,,,,,,,,,,,,,,,,,,,,,,,,,,,,,,,,,,,,,,,,,,,,,,,,他们,e,,,e,1,0.4691,0,35,35,56,1,,
,,,,,,,,,,,,,,1,001,2025-01-02_19h23.33.430,IAT(Formal),2021.2.3,Win32,60.60606061,,,,,,,,,,,,,,,,,,,,,,,,,,,,,,,,,,,,,,,,,,,,,,,,,,,,他的,e,,,e,1,0.635,0,36,36,67,1,,
,,,,,,,,,,,,,,1,001,2025-01-02_19h23.33.430,IAT(Formal),2021.2.3,Win32,60.60606061,,,,,,,,,,,,,,,,,,,,,,,,,,,,,,,,,,,,,,,,,,,,,,,,,,,,其他,e,,,e,1,1.2506,0,37,37,59,1,,
,,,,,,,,,,,,,,1,001,2025-01-02_19h23.33.430,IAT(Formal),2021.2.3,Win32,60.60606061,,,,,,,,,,,,,,,,,,,,,,,,,,,,,,,,,,,,,,,,,,,,,,,,,,,,热情,e,,,e,1,0.5664,0,38,38,27,1,,
,,,,,,,,,,,,,,1,001,2025-01-02_19h23.33.430,IAT(Formal),2021.2.3,Win32,60.60606061,,,,,,,,,,,,,,,,,,,,,,,,,,,,,,,,,,,,,,,,,,,,,,,,,,,,自私,i,,,i,1,0.7038,0,39,39,43,1,,
,,,,,,,,,,,,,,1,001,2025-01-02_19h23.33.430,IAT(Formal),2021.2.3,Win32,60.60606061,,,,,,,,,,,,,,,,,,,,,,,,,,,,,,,,,,,,,,,,,,,,,,,,,,,,稳重,e,,,e,1,0.6359,0,40,40,21,1,,
,,,,,,,,,,,,,,1,001,2025-01-02_19h23.33.430,IAT(Formal),2021.2.3,Win32,60.60606061,,,,,,,,,,,,,,,,,,,,,,,,,,,,,,,,,,,,,,,,,,,,,,,,,,,,我,i,,,e,0,0.701,0,41,41,0,1,,
,,,,,,,,,,,,,,1,001,2025-01-02_19h23.33.430,IAT(Formal),2021.2.3,Win32,60.60606061,,,,,,,,,,,,,,,,,,,,,,,,,,,,,,,,,,,,,,,,,,,,,,,,,,,,他人,e,,,e,1,1.1017,0,42,42,78,1,,
,,,,,,,,,,,,,,1,001,2025-01-02_19h23.33.430,IAT(Formal),2021.2.3,Win32,60.60606061,,,,,,,,,,,,,,,,,,,,,,,,,,,,,,,,,,,,,,,,,,,,,,,,,,,,冷静,e,,,e,1,0.8633,0,43,43,26,1,,
,,,,,,,,,,,,,,1,001,2025-01-02_19h23.33.430,IAT(Formal),2021.2.3,Win32,60.60606061,,,,,,,,,,,,,,,,,,,,,,,,,,,,,,,,,,,,,,,,,,,,,,,,,,,,他,e,,,e,1,0.4795,0,44,44,65,1,,
,,,,,,,,,,,,,,1,001,2025-01-02_19h23.33.430,IAT(Formal),2021.2.3,Win32,60.60606061,,,,,,,,,,,,,,,,,,,,,,,,,,,,,,,,,,,,,,,,,,,,,,,,,,,,我,i,,,e,0,0.9858,0,45,45,50,1,,
,,,,,,,,,,,,,,1,001,2025-01-02_19h23.33.430,IAT(Formal),2021.2.3,Win32,60.60606061,,,,,,,,,,,,,,,,,,,,,,,,,,,,,,,,,,,,,,,,,,,,,,,,,,,,他人,e,,,e,1,0.8629,0,46,46,8,1,,
,,,,,,,,,,,,,,1,001,2025-01-02_19h23.33.430,IAT(Formal),2021.2.3,Win32,60.60606061,,,,,,,,,,,,,,,,,,,,,,,,,,,,,,,,,,,,,,,,,,,,,,,,,,,,野蛮,i,,,i,1,0.8174,0,47,47,46,1,,
,,,,,,,,,,,,,,1,001,2025-01-02_19h23.33.430,IAT(Formal),2021.2.3,Win32,60.60606061,,,,,,,,,,,,,,,,,,,,,,,,,,,,,,,,,,,,,,,,,,,,,,,,,,,,我的,i,,,i,1,0.5516,0,48,48,51,1,,
,,,,,,,,,,,,,,1,001,2025-01-02_19h23.33.430,IAT(Formal),2021.2.3,Win32,60.60606061,,,,,,,,,,,,,,,,,,,,,,,,,,,,,,,,,,,,,,,,,,,,,,,,,,,,我们,i,,,i,1,0.4411,0,49,49,72,1,,
,,,,,,,,,,,,,,1,001,2025-01-02_19h23.33.430,IAT(Formal),2021.2.3,Win32,60.60606061,,,,,,,,,,,,,,,,,,,,,,,,,,,,,,,,,,,,,,,,,,,,,,,,,,,,俺,i,,,i,1,0.6411,0,50,50,64,1,,
,,,,,,,,,,,,,,1,001,2025-01-02_19h23.33.430,IAT(Formal),2021.2.3,Win32,60.60606061,,,,,,,,,,,,,,,,,,,,,,,,,,,,,,,,,,,,,,,,,,,,,,,,,,,,我的,i,,,i,1,0.6857,0,51,51,61,1,,
,,,,,,,,,,,,,,1,001,2025-01-02_19h23.33.430,IAT(Formal),2021.2.3,Win32,60.60606061,,,,,,,,,,,,,,,,,,,,,,,,,,,,,,,,,,,,,,,,,,,,,,,,,,,,诚实,e,,,i,0,0.5029,0,52,52,15,1,,
,,,,,,,,,,,,,,1,001,2025-01-02_19h23.33.430,IAT(Formal),2021.2.3,Win32,60.60606061,,,,,,,,,,,,,,,,,,,,,,,,,,,,,,,,,,,,,,,,,,,,,,,,,,,,他的,e,,,e,1,0.5245,0,53,53,57,1,,
,,,,,,,,,,,,,,1,001,2025-01-02_19h23.33.430,IAT(Formal),2021.2.3,Win32,60.60606061,,,,,,,,,,,,,,,,,,,,,,,,,,,,,,,,,,,,,,,,,,,,,,,,,,,,认真,e,,,e,1,0.7352,0,54,54,20,1,,
,,,,,,,,,,,,,,1,001,2025-01-02_19h23.33.430,IAT(Formal),2021.2.3,Win32,60.60606061,,,,,,,,,,,,,,,,,,,,,,,,,,,,,,,,,,,,,,,,,,,,,,,,,,,,其他,e,,,e,1,0.7528,0,55,55,9,1,,
,,,,,,,,,,,,,,1,001,2025-01-02_19h23.33.430,IAT(Formal),2021.2.3,Win32,60.60606061,,,,,,,,,,,,,,,,,,,,,,,,,,,,,,,,,,,,,,,,,,,,,,,,,,,,猖狂,i,,,,0,,0,56,56,45,1,,
,,,,,,,,,,,,,,1,001,2025-01-02_19h23.33.430,IAT(Formal),2021.2.3,Win32,60.60606061,,,,,,,,,,,,,,,,,,,,,,,,,,,,,,,,,,,,,,,,,,,,,,,,,,,,我们,i,,,i,1,0.9094,0,57,57,62,1,,
,,,,,,,,,,,,,,1,001,2025-01-02_19h23.33.430,IAT(Formal),2021.2.3,Win32,60.60606061,,,,,,,,,,,,,,,,,,,,,,,,,,,,,,,,,,,,,,,,,,,,,,,,,,,,凶狠,i,,,e,0,0.6338,0,58,58,42,1,,
,,,,,,,,,,,,,,1,001,2025-01-02_19h23.33.430,IAT(Formal),2021.2.3,Win32,60.60606061,,,,,,,,,,,,,,,,,,,,,,,,,,,,,,,,,,,,,,,,,,,,,,,,,,,,他们,e,,,,0,,0,59,59,6,1,,
,,,,,,,,,,,,,,1,001,2025-01-02_19h23.33.430,IAT(Formal),2021.2.3,Win32,60.60606061,,,,,,,,,,,,,,,,,,,,,,,,,,,,,,,,,,,,,,,,,,,,,,,,,,,,下贱,i,,,i,1,1.0836,0,60,60,49,1,,
,,,,,,,,,,,,,,1,001,2025-01-02_19h23.33.430,IAT(Formal),2021.2.3,Win32,60.60606061,,,,,,,,,,,,,,,,,,,,,,,,,,,,,,,,,,,,,,,,,,,,,,,,,,,,机智,e,,,i,0,0.8179,0,61,61,19,1,,
,,,,,,,,,,,,,,1,001,2025-01-02_19h23.33.430,IAT(Formal),2021.2.3,Win32,60.60606061,,,,,,,,,,,,,,,,,,,,,,,,,,,,,,,,,,,,,,,,,,,,,,,,,,,,他的,e,,,e,1,0.5616,0,62,62,7,1,,
,,,,,,,,,,,,,,1,001,2025-01-02_19h23.33.430,IAT(Formal),2021.2.3,Win32,60.60606061,,,,,,,,,,,,,,,,,,,,,,,,,,,,,,,,,,,,,,,,,,,,,,,,,,,,自己,i,,,i,1,0.6011,0,63,63,73,1,,
,,,,,,,,,,,,,,1,001,2025-01-02_19h23.33.430,IAT(Formal),2021.2.3,Win32,60.60606061,,,,,,,,,,,,,,,,,,,,,,,,,,,,,,,,,,,,,,,,,,,,,,,,,,,,俺,i,,,i,1,0.6189,0,64,64,4,1,,
,,,,,,,,,,,,,,1,001,2025-01-02_19h23.33.430,IAT(Formal),2021.2.3,Win32,60.60606061,,,,,,,,,,,,,,,,,,,,,,,,,,,,,,,,,,,,,,,,,,,,,,,,,,,,诚恳,e,,,i,0,0.7361,0,65,65,29,1,,
,,,,,,,,,,,,,,1,001,2025-01-02_19h23.33.430,IAT(Formal),2021.2.3,Win32,60.60606061,,,,,,,,,,,,,,,,,,,,,,,,,,,,,,,,,,,,,,,,,,,,,,,,,,,,消极,i,,,i,1,0.8181,0,66,66,35,1,,
,,,,,,,,,,,,,,1,001,2025-01-02_19h23.33.430,IAT(Formal),2021.2.3,Win32,60.60606061,,,,,,,,,,,,,,,,,,,,,,,,,,,,,,,,,,,,,,,,,,,,,,,,,,,,冒失,i,,,i,1,0.758,0,67,67,39,1,,
,,,,,,,,,,,,,,1,001,2025-01-02_19h23.33.430,IAT(Formal),2021.2.3,Win32,60.60606061,,,,,,,,,,,,,,,,,,,,,,,,,,,,,,,,,,,,,,,,,,,,,,,,,,,,优秀,e,,,i,0,0.5735,0,68,68,10,1,,
,,,,,,,,,,,,,,1,001,2025-01-02_19h23.33.430,IAT(Formal),2021.2.3,Win32,60.60606061,,,,,,,,,,,,,,,,,,,,,,,,,,,,,,,,,,,,,,,,,,,,,,,,,,,,他,e,,,e,1,0.5174,0,69,69,75,1,,
,,,,,,,,,,,,,,1,001,2025-01-02_19h23.33.430,IAT(Formal),2021.2.3,Win32,60.60606061,,,,,,,,,,,,,,,,,,,,,,,,,,,,,,,,,,,,,,,,,,,,,,,,,,,,傲慢,i,,,i,1,0.8919,0,70,70,37,1,,
,,,,,,,,,,,,,,1,001,2025-01-02_19h23.33.430,IAT(Formal),2021.2.3,Win32,60.60606061,,,,,,,,,,,,,,,,,,,,,,,,,,,,,,,,,,,,,,,,,,,,,,,,,,,,轻率,i,,,i,1,0.8185,0,71,71,48,1,,
,,,,,,,,,,,,,,1,001,2025-01-02_19h23.33.430,IAT(Formal),2021.2.3,Win32,60.60606061,,,,,,,,,,,,,,,,,,,,,,,,,,,,,,,,,,,,,,,,,,,,,,,,,,,,他,e,,,e,1,0.5845,0,72,72,5,1,,
,,,,,,,,,,,,,,1,001,2025-01-02_19h23.33.430,IAT(Formal),2021.2.3,Win32,60.60606061,,,,,,,,,,,,,,,,,,,,,,,,,,,,,,,,,,,,,,,,,,,,,,,,,,,,自己,i,,,i,1,0.5625,0,73,73,63,1,,
,,,,,,,,,,,,,,1,001,2025-01-02_19h23.33.430,IAT(Formal),2021.2.3,Win32,60.60606061,,,,,,,,,,,,,,,,,,,,,,,,,,,,,,,,,,,,,,,,,,,,,,,,,,,,我们,i,,,i,1,0.7563,0,74,74,52,1,,
,,,,,,,,,,,,,,1,001,2025-01-02_19h23.33.430,IAT(Formal),2021.2.3,Win32,60.60606061,,,,,,,,,,,,,,,,,,,,,,,,,,,,,,,,,,,,,,,,,,,,,,,,,,,,卑鄙,i,,,i,1,0.679,0,75,75,30,1,,
,,,,,,,,,,,,,,1,001,2025-01-02_19h23.33.430,IAT(Formal),2021.2.3,Win32,60.60606061,,,,,,,,,,,,,,,,,,,,,,,,,,,,,,,,,,,,,,,,,,,,,,,,,,,,无私,e,,,e,1,0.7697,0,76,76,22,1,,
,,,,,,,,,,,,,,1,001,2025-01-02_19h23.33.430,IAT(Formal),2021.2.3,Win32,60.60606061,,,,,,,,,,,,,,,,,,,,,,,,,,,,,,,,,,,,,,,,,,,,,,,,,,,,他人,e,,,e,1,0.48,0,77,77,68,1,,
,,,,,,,,,,,,,,1,001,2025-01-02_19h23.33.430,IAT(Formal),2021.2.3,Win32,60.60606061,,,,,,,,,,,,,,,,,,,,,,,,,,,,,,,,,,,,,,,,,,,,,,,,,,,,虚伪,i,,,e,0,0.4927,0,78,78,31,1,,
,,,,,,,,,,,,,,1,001,2025-01-02_19h23.33.430,IAT(Formal),2021.2.3,Win32,60.60606061,,,,,,,,,,,,,,,,,,,,,,,,,,,,,,,,,,,,,,,,,,,,,,,,,,,,自己,i,,,i,1,0.6587,0,79,79,3,1,,
,,,,,,,,,,,,,,1,001,2025-01-02_19h23.33.430,IAT(Formal),2021.2.3,Win32,60.60606061,,,,,,,,,,,,,,,,,,,,,,,,,,,,,,,,,,,,,,,,,,,,,,,,,,,,自私,i,,,i,1,0.5908,1,0,80,43,1,,
,,,,,,,,,,,,,,1,001,2025-01-02_19h23.33.430,IAT(Formal),2021.2.3,Win32,60.60606061,,,,,,,,,,,,,,,,,,,,,,,,,,,,,,,,,,,,,,,,,,,,,,,,,,,,他人,e,,,e,1,0.5525,1,1,81,68,1,,
,,,,,,,,,,,,,,1,001,2025-01-02_19h23.33.430,IAT(Formal),2021.2.3,Win32,60.60606061,,,,,,,,,,,,,,,,,,,,,,,,,,,,,,,,,,,,,,,,,,,,,,,,,,,,我们,i,,,i,1,0.4694,1,2,82,72,1,,
,,,,,,,,,,,,,,1,001,2025-01-02_19h23.33.430,IAT(Formal),2021.2.3,Win32,60.60606061,,,,,,,,,,,,,,,,,,,,,,,,,,,,,,,,,,,,,,,,,,,,,,,,,,,,勤奋,e,,,e,1,0.6561,1,3,83,18,1,,
,,,,,,,,,,,,,,1,001,2025-01-02_19h23.33.430,IAT(Formal),2021.2.3,Win32,60.60606061,,,,,,,,,,,,,,,,,,,,,,,,,,,,,,,,,,,,,,,,,,,,,,,,,,,,虚伪,i,,,i,1,0.8516,1,4,84,31,1,,
,,,,,,,,,,,,,,1,001,2025-01-02_19h23.33.430,IAT(Formal),2021.2.3,Win32,60.60606061,,,,,,,,,,,,,,,,,,,,,,,,,,,,,,,,,,,,,,,,,,,,,,,,,,,,诚实,e,,,e,1,0.7773,1,5,85,15,1,,
,,,,,,,,,,,,,,1,001,2025-01-02_19h23.33.430,IAT(Formal),2021.2.3,Win32,60.60606061,,,,,,,,,,,,,,,,,,,,,,,,,,,,,,,,,,,,,,,,,,,,,,,,,,,,他人,e,,,e,1,0.6443,1,6,86,78,1,,
,,,,,,,,,,,,,,1,001,2025-01-02_19h23.33.430,IAT(Formal),2021.2.3,Win32,60.60606061,,,,,,,,,,,,,,,,,,,,,,,,,,,,,,,,,,,,,,,,,,,,,,,,,,,,猖狂,i,,,i,1,0.7896,1,7,87,45,1,,
,,,,,,,,,,,,,,1,001,2025-01-02_19h23.33.430,IAT(Formal),2021.2.3,Win32,60.60606061,,,,,,,,,,,,,,,,,,,,,,,,,,,,,,,,,,,,,,,,,,,,,,,,,,,,勇敢,e,,,e,1,0.6755,1,8,88,17,1,,
,,,,,,,,,,,,,,1,001,2025-01-02_19h23.33.430,IAT(Formal),2021.2.3,Win32,60.60606061,,,,,,,,,,,,,,,,,,,,,,,,,,,,,,,,,,,,,,,,,,,,,,,,,,,,自卑,i,,,i,1,0.8572,1,9,89,36,1,,
,,,,,,,,,,,,,,1,001,2025-01-02_19h23.33.430,IAT(Formal),2021.2.3,Win32,60.60606061,,,,,,,,,,,,,,,,,,,,,,,,,,,,,,,,,,,,,,,,,,,,,,,,,,,,他们,e,,,e,1,0.5116,1,10,90,66,1,,
,,,,,,,,,,,,,,1,001,2025-01-02_19h23.33.430,IAT(Formal),2021.2.3,Win32,60.60606061,,,,,,,,,,,,,,,,,,,,,,,,,,,,,,,,,,,,,,,,,,,,,,,,,,,,活泼,e,,,e,1,0.7187,1,11,91,28,1,,
,,,,,,,,,,,,,,1,001,2025-01-02_19h23.33.430,IAT(Formal),2021.2.3,Win32,60.60606061,,,,,,,,,,,,,,,,,,,,,,,,,,,,,,,,,,,,,,,,,,,,,,,,,,,,朴实,e,,,e,1,0.6012,1,12,92,24,1,,
,,,,,,,,,,,,,,1,001,2025-01-02_19h23.33.430,IAT(Formal),2021.2.3,Win32,60.60606061,,,,,,,,,,,,,,,,,,,,,,,,,,,,,,,,,,,,,,,,,,,,,,,,,,,,冷静,e,,,e,1,0.6508,1,13,93,26,1,,
,,,,,,,,,,,,,,1,001,2025-01-02_19h23.33.430,IAT(Formal),2021.2.3,Win32,60.60606061,,,,,,,,,,,,,,,,,,,,,,,,,,,,,,,,,,,,,,,,,,,,,,,,,,,,公正,e,,,e,1,0.4681,1,14,94,23,1,,
,,,,,,,,,,,,,,1,001,2025-01-02_19h23.33.430,IAT(Formal),2021.2.3,Win32,60.60606061,,,,,,,,,,,,,,,,,,,,,,,,,,,,,,,,,,,,,,,,,,,,,,,,,,,,聪明,e,,,e,1,0.4514,1,15,95,12,1,,
,,,,,,,,,,,,,,1,001,2025-01-02_19h23.33.430,IAT(Formal),2021.2.3,Win32,60.60606061,,,,,,,,,,,,,,,,,,,,,,,,,,,,,,,,,,,,,,,,,,,,,,,,,,,,我们,i,,,i,1,0.6509,1,16,96,62,1,,
,,,,,,,,,,,,,,1,001,2025-01-02_19h23.33.430,IAT(Formal),2021.2.3,Win32,60.60606061,,,,,,,,,,,,,,,,,,,,,,,,,,,,,,,,,,,,,,,,,,,,,,,,,,,,愚蠢,i,,,,0,,1,17,97,32,1,,
,,,,,,,,,,,,,,1,001,2025-01-02_19h23.33.430,IAT(Formal),2021.2.3,Win32,60.60606061,,,,,,,,,,,,,,,,,,,,,,,,,,,,,,,,,,,,,,,,,,,,,,,,,,,,他们,e,,,e,1,0.4585,1,18,98,6,1,,
,,,,,,,,,,,,,,1,001,2025-01-02_19h23.33.430,IAT(Formal),2021.2.3,Win32,60.60606061,,,,,,,,,,,,,,,,,,,,,,,,,,,,,,,,,,,,,,,,,,,,,,,,,,,,执拗,i,,,i,1,0.8414,1,19,99,40,1,,
,,,,,,,,,,,,,,1,001,2025-01-02_19h23.33.430,IAT(Formal),2021.2.3,Win32,60.60606061,,,,,,,,,,,,,,,,,,,,,,,,,,,,,,,,,,,,,,,,,,,,,,,,,,,,其他,e,,,e,1,0.5853,1,20,100,79,1,,
,,,,,,,,,,,,,,1,001,2025-01-02_19h23.33.430,IAT(Formal),2021.2.3,Win32,60.60606061,,,,,,,,,,,,,,,,,,,,,,,,,,,,,,,,,,,,,,,,,,,,,,,,,,,,自己,i,,,i,1,0.5226,1,21,101,63,1,,
,,,,,,,,,,,,,,1,001,2025-01-02_19h23.33.430,IAT(Formal),2021.2.3,Win32,60.60606061,,,,,,,,,,,,,,,,,,,,,,,,,,,,,,,,,,,,,,,,,,,,,,,,,,,,我,i,,,i,1,0.5565,1,22,102,50,1,,
,,,,,,,,,,,,,,1,001,2025-01-02_19h23.33.430,IAT(Formal),2021.2.3,Win32,60.60606061,,,,,,,,,,,,,,,,,,,,,,,,,,,,,,,,,,,,,,,,,,,,,,,,,,,,他,e,,,e,1,0.5844,1,23,103,5,1,,
,,,,,,,,,,,,,,1,001,2025-01-02_19h23.33.430,IAT(Formal),2021.2.3,Win32,60.60606061,,,,,,,,,,,,,,,,,,,,,,,,,,,,,,,,,,,,,,,,,,,,,,,,,,,,悲观,i,,,i,1,0.7347,1,24,104,34,1,,
,,,,,,,,,,,,,,1,001,2025-01-02_19h23.33.430,IAT(Formal),2021.2.3,Win32,60.60606061,,,,,,,,,,,,,,,,,,,,,,,,,,,,,,,,,,,,,,,,,,,,,,,,,,,,杰出,e,,,i,0,0.4799,1,25,105,13,1,,
,,,,,,,,,,,,,,1,001,2025-01-02_19h23.33.430,IAT(Formal),2021.2.3,Win32,60.60606061,,,,,,,,,,,,,,,,,,,,,,,,,,,,,,,,,,,,,,,,,,,,,,,,,,,,鲁莽,i,,,i,1,0.673,1,26,106,38,1,,
,,,,,,,,,,,,,,1,001,2025-01-02_19h23.33.430,IAT(Formal),2021.2.3,Win32,60.60606061,,,,,,,,,,,,,,,,,,,,,,,,,,,,,,,,,,,,,,,,,,,,,,,,,,,,他们,e,,,e,1,0.5425,1,27,107,56,1,,
,,,,,,,,,,,,,,1,001,2025-01-02_19h23.33.430,IAT(Formal),2021.2.3,Win32,60.60606061,,,,,,,,,,,,,,,,,,,,,,,,,,,,,,,,,,,,,,,,,,,,,,,,,,,,我的,i,,,i,1,0.495,1,28,108,61,1,,
,,,,,,,,,,,,,,1,001,2025-01-02_19h23.33.430,IAT(Formal),2021.2.3,Win32,60.60606061,,,,,,,,,,,,,,,,,,,,,,,,,,,,,,,,,,,,,,,,,,,,,,,,,,,,无私,e,,,i,0,0.7509,1,29,109,22,1,,
,,,,,,,,,,,,,,1,001,2025-01-02_19h23.33.430,IAT(Formal),2021.2.3,Win32,60.60606061,,,,,,,,,,,,,,,,,,,,,,,,,,,,,,,,,,,,,,,,,,,,,,,,,,,,俺,i,,,i,1,0.4383,1,30,110,64,1,,
,,,,,,,,,,,,,,1,001,2025-01-02_19h23.33.430,IAT(Formal),2021.2.3,Win32,60.60606061,,,,,,,,,,,,,,,,,,,,,,,,,,,,,,,,,,,,,,,,,,,,,,,,,,,,其他,e,,,e,1,0.4751,1,31,111,69,1,,
,,,,,,,,,,,,,,1,001,2025-01-02_19h23.33.430,IAT(Formal),2021.2.3,Win32,60.60606061,,,,,,,,,,,,,,,,,,,,,,,,,,,,,,,,,,,,,,,,,,,,,,,,,,,,他们,e,,,e,1,0.4846,1,32,112,76,1,,
,,,,,,,,,,,,,,1,001,2025-01-02_19h23.33.430,IAT(Formal),2021.2.3,Win32,60.60606061,,,,,,,,,,,,,,,,,,,,,,,,,,,,,,,,,,,,,,,,,,,,,,,,,,,,暴躁,i,,,i,1,0.817,1,33,113,44,1,,
,,,,,,,,,,,,,,1,001,2025-01-02_19h23.33.430,IAT(Formal),2021.2.3,Win32,60.60606061,,,,,,,,,,,,,,,,,,,,,,,,,,,,,,,,,,,,,,,,,,,,,,,,,,,,傲慢,i,,,i,1,0.7513,1,34,114,37,1,,
,,,,,,,,,,,,,,1,001,2025-01-02_19h23.33.430,IAT(Formal),2021.2.3,Win32,60.60606061,,,,,,,,,,,,,,,,,,,,,,,,,,,,,,,,,,,,,,,,,,,,,,,,,,,,他,e,,,e,1,0.5294,1,35,115,65,1,,
,,,,,,,,,,,,,,1,001,2025-01-02_19h23.33.430,IAT(Formal),2021.2.3,Win32,60.60606061,,,,,,,,,,,,,,,,,,,,,,,,,,,,,,,,,,,,,,,,,,,,,,,,,,,,崇高,e,,,e,1,0.8003,1,36,116,11,1,,
,,,,,,,,,,,,,,1,001,2025-01-02_19h23.33.430,IAT(Formal),2021.2.3,Win32,60.60606061,,,,,,,,,,,,,,,,,,,,,,,,,,,,,,,,,,,,,,,,,,,,,,,,,,,,机智,e,,,e,1,0.5117,1,37,117,19,1,,
,,,,,,,,,,,,,,1,001,2025-01-02_19h23.33.430,IAT(Formal),2021.2.3,Win32,60.60606061,,,,,,,,,,,,,,,,,,,,,,,,,,,,,,,,,,,,,,,,,,,,,,,,,,,,认真,e,,,e,1,0.4513,1,38,118,20,1,,
,,,,,,,,,,,,,,1,001,2025-01-02_19h23.33.430,IAT(Formal),2021.2.3,Win32,60.60606061,,,,,,,,,,,,,,,,,,,,,,,,,,,,,,,,,,,,,,,,,,,,,,,,,,,,我,i,,,i,1,0.5679,1,39,119,60,1,,
,,,,,,,,,,,,,,1,001,2025-01-02_19h23.33.430,IAT(Formal),2021.2.3,Win32,60.60606061,,,,,,,,,,,,,,,,,,,,,,,,,,,,,,,,,,,,,,,,,,,,,,,,,,,,其他,e,,,e,1,0.5528,1,40,120,59,1,,
,,,,,,,,,,,,,,1,001,2025-01-02_19h23.33.430,IAT(Formal),2021.2.3,Win32,60.60606061,,,,,,,,,,,,,,,,,,,,,,,,,,,,,,,,,,,,,,,,,,,,,,,,,,,,下贱,i,,,i,1,0.7596,1,41,121,49,1,,
,,,,,,,,,,,,,,1,001,2025-01-02_19h23.33.430,IAT(Formal),2021.2.3,Win32,60.60606061,,,,,,,,,,,,,,,,,,,,,,,,,,,,,,,,,,,,,,,,,,,,,,,,,,,,冒失,i,,,e,0,0.5178,1,42,122,39,1,,
,,,,,,,,,,,,,,1,001,2025-01-02_19h23.33.430,IAT(Formal),2021.2.3,Win32,60.60606061,,,,,,,,,,,,,,,,,,,,,,,,,,,,,,,,,,,,,,,,,,,,,,,,,,,,他的,e,,,i,0,0.6597,1,43,123,77,1,,
,,,,,,,,,,,,,,1,001,2025-01-02_19h23.33.430,IAT(Formal),2021.2.3,Win32,60.60606061,,,,,,,,,,,,,,,,,,,,,,,,,,,,,,,,,,,,,,,,,,,,,,,,,,,,散漫,i,,,e,0,0.985,1,44,124,41,1,,
,,,,,,,,,,,,,,1,001,2025-01-02_19h23.33.430,IAT(Formal),2021.2.3,Win32,60.60606061,,,,,,,,,,,,,,,,,,,,,,,,,,,,,,,,,,,,,,,,,,,,,,,,,,,,俺,i,,,i,1,0.5933,1,45,125,4,1,,
,,,,,,,,,,,,,,1,001,2025-01-02_19h23.33.430,IAT(Formal),2021.2.3,Win32,60.60606061,,,,,,,,,,,,,,,,,,,,,,,,,,,,,,,,,,,,,,,,,,,,,,,,,,,,他,e,,,e,1,0.5693,1,46,126,75,1,,
,,,,,,,,,,,,,,1,001,2025-01-02_19h23.33.430,IAT(Formal),2021.2.3,Win32,60.60606061,,,,,,,,,,,,,,,,,,,,,,,,,,,,,,,,,,,,,,,,,,,,,,,,,,,,乐观,e,,,e,1,0.6195,1,47,127,14,1,,
,,,,,,,,,,,,,,1,001,2025-01-02_19h23.33.430,IAT(Formal),2021.2.3,Win32,60.60606061,,,,,,,,,,,,,,,,,,,,,,,,,,,,,,,,,,,,,,,,,,,,,,,,,,,,野蛮,i,,,i,1,0.7503,1,48,128,46,1,,
,,,,,,,,,,,,,,1,001,2025-01-02_19h23.33.430,IAT(Formal),2021.2.3,Win32,60.60606061,,,,,,,,,,,,,,,,,,,,,,,,,,,,,,,,,,,,,,,,,,,,,,,,,,,,热情,e,,,e,1,0.6503,1,49,129,27,1,,
,,,,,,,,,,,,,,1,001,2025-01-02_19h23.33.430,IAT(Formal),2021.2.3,Win32,60.60606061,,,,,,,,,,,,,,,,,,,,,,,,,,,,,,,,,,,,,,,,,,,,,,,,,,,,刻薄,i,,,i,1,0.8676,1,50,130,33,1,,
,,,,,,,,,,,,,,1,001,2025-01-02_19h23.33.430,IAT(Formal),2021.2.3,Win32,60.60606061,,,,,,,,,,,,,,,,,,,,,,,,,,,,,,,,,,,,,,,,,,,,,,,,,,,,他的,e,,,e,1,0.6052,1,51,131,7,1,,
,,,,,,,,,,,,,,1,001,2025-01-02_19h23.33.430,IAT(Formal),2021.2.3,Win32,60.60606061,,,,,,,,,,,,,,,,,,,,,,,,,,,,,,,,,,,,,,,,,,,,,,,,,,,,俺,i,,,i,1,0.8123,1,52,132,74,1,,
,,,,,,,,,,,,,,1,001,2025-01-02_19h23.33.430,IAT(Formal),2021.2.3,Win32,60.60606061,,,,,,,,,,,,,,,,,,,,,,,,,,,,,,,,,,,,,,,,,,,,,,,,,,,,他人,e,,,e,1,0.5003,1,53,133,58,1,,
,,,,,,,,,,,,,,1,001,2025-01-02_19h23.33.430,IAT(Formal),2021.2.3,Win32,60.60606061,,,,,,,,,,,,,,,,,,,,,,,,,,,,,,,,,,,,,,,,,,,,,,,,,,,,自己,i,,,e,0,0.538,1,54,134,73,1,,
,,,,,,,,,,,,,,1,001,2025-01-02_19h23.33.430,IAT(Formal),2021.2.3,Win32,60.60606061,,,,,,,,,,,,,,,,,,,,,,,,,,,,,,,,,,,,,,,,,,,,,,,,,,,,俺,i,,,i,1,0.6337,1,55,135,54,1,,
,,,,,,,,,,,,,,1,001,2025-01-02_19h23.33.430,IAT(Formal),2021.2.3,Win32,60.60606061,,,,,,,,,,,,,,,,,,,,,,,,,,,,,,,,,,,,,,,,,,,,,,,,,,,,他的,e,,,e,1,0.6508,1,56,136,67,1,,
,,,,,,,,,,,,,,1,001,2025-01-02_19h23.33.430,IAT(Formal),2021.2.3,Win32,60.60606061,,,,,,,,,,,,,,,,,,,,,,,,,,,,,,,,,,,,,,,,,,,,,,,,,,,,我,i,,,i,1,0.5012,1,57,137,0,1,,
,,,,,,,,,,,,,,1,001,2025-01-02_19h23.33.430,IAT(Formal),2021.2.3,Win32,60.60606061,,,,,,,,,,,,,,,,,,,,,,,,,,,,,,,,,,,,,,,,,,,,,,,,,,,,优秀,e,,,e,1,0.5046,1,58,138,10,1,,
,,,,,,,,,,,,,,1,001,2025-01-02_19h23.33.430,IAT(Formal),2021.2.3,Win32,60.60606061,,,,,,,,,,,,,,,,,,,,,,,,,,,,,,,,,,,,,,,,,,,,,,,,,,,,诚恳,e,,,e,1,0.6012,1,59,139,29,1,,
,,,,,,,,,,,,,,1,001,2025-01-02_19h23.33.430,IAT(Formal),2021.2.3,Win32,60.60606061,,,,,,,,,,,,,,,,,,,,,,,,,,,,,,,,,,,,,,,,,,,,,,,,,,,,自己,i,,,i,1,0.8606,1,60,140,53,1,,
,,,,,,,,,,,,,,1,001,2025-01-02_19h23.33.430,IAT(Formal),2021.2.3,Win32,60.60606061,,,,,,,,,,,,,,,,,,,,,,,,,,,,,,,,,,,,,,,,,,,,,,,,,,,,我的,i,,,i,1,0.7128,1,61,141,51,1,,
,,,,,,,,,,,,,,1,001,2025-01-02_19h23.33.430,IAT(Formal),2021.2.3,Win32,60.60606061,,,,,,,,,,,,,,,,,,,,,,,,,,,,,,,,,,,,,,,,,,,,,,,,,,,,我的,i,,,e,0,1.1421,1,62,142,71,1,,
,,,,,,,,,,,,,,1,001,2025-01-02_19h23.33.430,IAT(Formal),2021.2.3,Win32,60.60606061,,,,,,,,,,,,,,,,,,,,,,,,,,,,,,,,,,,,,,,,,,,,,,,,,,,,正直,e,,,e,1,0.6616,1,63,143,16,1,,
,,,,,,,,,,,,,,1,001,2025-01-02_19h23.33.430,IAT(Formal),2021.2.3,Win32,60.60606061,,,,,,,,,,,,,,,,,,,,,,,,,,,,,,,,,,,,,,,,,,,,,,,,,,,,他人,e,,,e,1,0.8895,1,64,144,8,1,,
,,,,,,,,,,,,,,1,001,2025-01-02_19h23.33.430,IAT(Formal),2021.2.3,Win32,60.60606061,,,,,,,,,,,,,,,,,,,,,,,,,,,,,,,,,,,,,,,,,,,,,,,,,,,,固执,i,,,i,1,0.7344,1,65,145,47,1,,
,,,,,,,,,,,,,,1,001,2025-01-02_19h23.33.430,IAT(Formal),2021.2.3,Win32,60.60606061,,,,,,,,,,,,,,,,,,,,,,,,,,,,,,,,,,,,,,,,,,,,,,,,,,,,卑鄙,i,,,i,1,0.4575,1,66,146,30,1,,
,,,,,,,,,,,,,,1,001,2025-01-02_19h23.33.430,IAT(Formal),2021.2.3,Win32,60.60606061,,,,,,,,,,,,,,,,,,,,,,,,,,,,,,,,,,,,,,,,,,,,,,,,,,,,我,i,,,i,1,0.4859,1,67,147,70,1,,
,,,,,,,,,,,,,,1,001,2025-01-02_19h23.33.430,IAT(Formal),2021.2.3,Win32,60.60606061,,,,,,,,,,,,,,,,,,,,,,,,,,,,,,,,,,,,,,,,,,,,,,,,,,,,凶狠,i,,,i,1,0.5577,1,68,148,42,1,,
,,,,,,,,,,,,,,1,001,2025-01-02_19h23.33.430,IAT(Formal),2021.2.3,Win32,60.60606061,,,,,,,,,,,,,,,,,,,,,,,,,,,,,,,,,,,,,,,,,,,,,,,,,,,,稳重,e,,,i,0,0.8067,1,69,149,21,1,,
,,,,,,,,,,,,,,1,001,2025-01-02_19h23.33.430,IAT(Formal),2021.2.3,Win32,60.60606061,,,,,,,,,,,,,,,,,,,,,,,,,,,,,,,,,,,,,,,,,,,,,,,,,,,,轻率,i,,,i,1,0.7932,1,70,150,48,1,,
,,,,,,,,,,,,,,1,001,2025-01-02_19h23.33.430,IAT(Formal),2021.2.3,Win32,60.60606061,,,,,,,,,,,,,,,,,,,,,,,,,,,,,,,,,,,,,,,,,,,,,,,,,,,,消极,i,,,i,1,0.6256,1,71,151,35,1,,
,,,,,,,,,,,,,,1,001,2025-01-02_19h23.33.430,IAT(Formal),2021.2.3,Win32,60.60606061,,,,,,,,,,,,,,,,,,,,,,,,,,,,,,,,,,,,,,,,,,,,,,,,,,,,我们,i,,,i,1,0.477,1,72,152,52,1,,
,,,,,,,,,,,,,,1,001,2025-01-02_19h23.33.430,IAT(Formal),2021.2.3,Win32,60.60606061,,,,,,,,,,,,,,,,,,,,,,,,,,,,,,,,,,,,,,,,,,,,,,,,,,,,我的,i,,,i,1,0.467,1,73,153,1,1,,
,,,,,,,,,,,,,,1,001,2025-01-02_19h23.33.430,IAT(Formal),2021.2.3,Win32,60.60606061,,,,,,,,,,,,,,,,,,,,,,,,,,,,,,,,,,,,,,,,,,,,,,,,,,,,细腻,e,,,i,0,0.4182,1,74,154,25,1,,
,,,,,,,,,,,,,,1,001,2025-01-02_19h23.33.430,IAT(Formal),2021.2.3,Win32,60.60606061,,,,,,,,,,,,,,,,,,,,,,,,,,,,,,,,,,,,,,,,,,,,,,,,,,,,他的,e,,,e,1,0.4921,1,75,155,57,1,,
,,,,,,,,,,,,,,1,001,2025-01-02_19h23.33.430,IAT(Formal),2021.2.3,Win32,60.60606061,,,,,,,,,,,,,,,,,,,,,,,,,,,,,,,,,,,,,,,,,,,,,,,,,,,,其他,e,,,e,1,0.44,1,76,156,9,1,,
,,,,,,,,,,,,,,1,001,2025-01-02_19h23.33.430,IAT(Formal),2021.2.3,Win32,60.60606061,,,,,,,,,,,,,,,,,,,,,,,,,,,,,,,,,,,,,,,,,,,,,,,,,,,,他,e,,,e,1,0.4605,1,77,157,55,1,,
,,,,,,,,,,,,,,1,001,2025-01-02_19h23.33.430,IAT(Formal),2021.2.3,Win32,60.60606061,,,,,,,,,,,,,,,,,,,,,,,,,,,,,,,,,,,,,,,,,,,,,,,,,,,,我们,i,,,i,1,0.4851,1,78,158,2,1,,
,,,,,,,,,,,,,,1,001,2025-01-02_19h23.33.430,IAT(Formal),2021.2.3,Win32,60.60606061,,,,,,,,,,,,,,,,,,,,,,,,,,,,,,,,,,,,,,,,,,,,,,,,,,,,自己,i,,,i,1,0.6238,1,79,159,3,1,,
,,,,,,,,,,,,,,1,001,2025-01-02_19h23.33.430,IAT(Formal),2021.2.3,Win32,60.60606061,,,,,,,,,,,,,,,,,,,,,,,,,,,,,,,,,,,,,,,,,,,,,,,,,,,,,,,,,,,,,,,,space,1.5895