﻿Instruction1.keys,Instruction1.rt,Instruction2.keys,Instruction2.rt,key_resp_iso.keys,key_resp_iso.corr,Practice_01.thisRepN,Practice_01.thisTrialN,Practice_01.thisN,Practice_01.thisIndex,Practice_01.ran,Words,ans,participant,session,date,expName,psychopyVersion,OS,frameRate,key_resp_iso.rt,key_resp_3.keys,key_resp_3.rt,key_resp_ipn.keys,key_resp_ipn.corr,key_resp_ipn.rt,Practice_02.thisRepN,Practice_02.thisTrialN,Practice_02.thisN,Practice_02.thisIndex,Practice_02.ran,Words_ipn,ans_ipn,key_resp_4.keys,key_resp_4.rt,key_resp_t1.keys,key_resp_t1.corr,key_resp_t1.rt,Practice_T1.thisRepN,Practice_T1.thisTrialN,Practice_T1.thisN,Practice_T1.thisIndex,Practice_T1.ran,Words_t1,ans_t1,key_resp_5.keys,key_resp_5.rt,Formal_T1.thisRepN,Formal_T1.thisTrialN,Formal_T1.thisN,Formal_T1.thisIndex,Formal_T1.ran,key_resp_6.keys,key_resp_6.rt,key_resp_iso_reverse.keys,key_resp_iso_reverse.corr,key_resp_iso_reverse.rt,Practice_iso_Reverse.thisRepN,Practice_iso_Reverse.thisTrialN,Practice_iso_Reverse.thisN,Practice_iso_Reverse.thisIndex,Practice_iso_Reverse.ran,key_resp_7.keys,key_resp_7.rt,key_resp_t2_Practice.keys,key_resp_t2_Practice.corr,key_resp_t2_Practice.rt,Practice_t2_Reverse.thisRepN,Practice_t2_Reverse.thisTrialN,Practice_t2_Reverse.thisN,Practice_t2_Reverse.thisIndex,Practice_t2_Reverse.ran,Words_t2,ans_t2,key_resp_8.keys,key_resp_8.rt,key_resp_t2.keys,key_resp_t2.corr,key_resp_t2.rt,Formal_t2_reverse.thisRepN,Formal_t2_reverse.thisTrialN,Formal_t2_reverse.thisN,Formal_t2_reverse.thisIndex,Formal_t2_reverse.ran,key_instruct.keys,key_instruct.rt
space,7.7683,space,7.7849,,0,0,0,0,2,1,我们,e,1,001,2025-01-02_21h02.29.648,IAT(Formal),2021.2.3,Win32,59.88023952,,,,,,,,,,,,,,,,,,,,,,,,,,,,,,,,,,,,,,,,,,,,,,,,,,,,,,,,,,,,,,,,,,
,,,,e,1,0,1,1,4,1,俺,e,1,001,2025-01-02_21h02.29.648,IAT(Formal),2021.2.3,Win32,59.88023952,0.9514,,,,,,,,,,,,,,,,,,,,,,,,,,,,,,,,,,,,,,,,,,,,,,,,,,,,,,,,,,,,,,,,,
,,,,i,1,0,2,2,6,1,他们,i,1,001,2025-01-02_21h02.29.648,IAT(Formal),2021.2.3,Win32,59.88023952,0.8348,,,,,,,,,,,,,,,,,,,,,,,,,,,,,,,,,,,,,,,,,,,,,,,,,,,,,,,,,,,,,,,,,
,,,,i,1,0,3,3,8,1,他人,i,1,001,2025-01-02_21h02.29.648,IAT(Formal),2021.2.3,Win32,59.88023952,0.7966,,,,,,,,,,,,,,,,,,,,,,,,,,,,,,,,,,,,,,,,,,,,,,,,,,,,,,,,,,,,,,,,,
,,,,e,1,0,4,4,1,1,我的,e,1,001,2025-01-02_21h02.29.648,IAT(Formal),2021.2.3,Win32,59.88023952,0.6401,,,,,,,,,,,,,,,,,,,,,,,,,,,,,,,,,,,,,,,,,,,,,,,,,,,,,,,,,,,,,,,,,
,,,,i,1,0,5,5,5,1,他,i,1,001,2025-01-02_21h02.29.648,IAT(Formal),2021.2.3,Win32,59.88023952,0.675,,,,,,,,,,,,,,,,,,,,,,,,,,,,,,,,,,,,,,,,,,,,,,,,,,,,,,,,,,,,,,,,,
,,,,e,1,0,6,6,3,1,自己,e,1,001,2025-01-02_21h02.29.648,IAT(Formal),2021.2.3,Win32,59.88023952,0.635,,,,,,,,,,,,,,,,,,,,,,,,,,,,,,,,,,,,,,,,,,,,,,,,,,,,,,,,,,,,,,,,,
,,,,i,1,0,7,7,7,1,他的,i,1,001,2025-01-02_21h02.29.648,IAT(Formal),2021.2.3,Win32,59.88023952,0.6999,,,,,,,,,,,,,,,,,,,,,,,,,,,,,,,,,,,,,,,,,,,,,,,,,,,,,,,,,,,,,,,,,
,,,,i,1,0,8,8,9,1,其他,i,1,001,2025-01-02_21h02.29.648,IAT(Formal),2021.2.3,Win32,59.88023952,0.9334,,,,,,,,,,,,,,,,,,,,,,,,,,,,,,,,,,,,,,,,,,,,,,,,,,,,,,,,,,,,,,,,,
,,,,e,1,0,9,9,0,1,我,e,1,001,2025-01-02_21h02.29.648,IAT(Formal),2021.2.3,Win32,59.88023952,0.7319,,,,,,,,,,,,,,,,,,,,,,,,,,,,,,,,,,,,,,,,,,,,,,,,,,,,,,,,,,,,,,,,,
,,,,,,,,,,,,,1,001,2025-01-02_21h02.29.648,IAT(Formal),2021.2.3,Win32,59.88023952,,space,8.783,e,1,0.7495,0,0,0,6,1,正直,e,,,,,,,,,,,,,,,,,,,,,,,,,,,,,,,,,,,,,,,,,,,,,,,,,,,,,
,,,,,,,,,,,,,1,001,2025-01-02_21h02.29.648,IAT(Formal),2021.2.3,Win32,59.88023952,,,,i,1,0.5904,0,1,1,26,1,自卑,i,,,,,,,,,,,,,,,,,,,,,,,,,,,,,,,,,,,,,,,,,,,,,,,,,,,,,
,,,,,,,,,,,,,1,001,2025-01-02_21h02.29.648,IAT(Formal),2021.2.3,Win32,59.88023952,,,,i,1,1.1634,0,2,2,38,1,轻率,i,,,,,,,,,,,,,,,,,,,,,,,,,,,,,,,,,,,,,,,,,,,,,,,,,,,,,
,,,,,,,,,,,,,1,001,2025-01-02_21h02.29.648,IAT(Formal),2021.2.3,Win32,59.88023952,,,,e,1,0.7147,0,3,3,15,1,细腻,e,,,,,,,,,,,,,,,,,,,,,,,,,,,,,,,,,,,,,,,,,,,,,,,,,,,,,
,,,,,,,,,,,,,1,001,2025-01-02_21h02.29.648,IAT(Formal),2021.2.3,Win32,59.88023952,,,,i,1,0.7065,0,4,4,25,1,消极,i,,,,,,,,,,,,,,,,,,,,,,,,,,,,,,,,,,,,,,,,,,,,,,,,,,,,,
,,,,,,,,,,,,,1,001,2025-01-02_21h02.29.648,IAT(Formal),2021.2.3,Win32,59.88023952,,,,i,1,0.7843,0,5,5,28,1,鲁莽,i,,,,,,,,,,,,,,,,,,,,,,,,,,,,,,,,,,,,,,,,,,,,,,,,,,,,,
,,,,,,,,,,,,,1,001,2025-01-02_21h02.29.648,IAT(Formal),2021.2.3,Win32,59.88023952,,,,i,1,0.6872,0,6,6,29,1,冒失,i,,,,,,,,,,,,,,,,,,,,,,,,,,,,,,,,,,,,,,,,,,,,,,,,,,,,,
,,,,,,,,,,,,,1,001,2025-01-02_21h02.29.648,IAT(Formal),2021.2.3,Win32,59.88023952,,,,e,1,0.5329,0,7,7,4,1,乐观,e,,,,,,,,,,,,,,,,,,,,,,,,,,,,,,,,,,,,,,,,,,,,,,,,,,,,,
,,,,,,,,,,,,,1,001,2025-01-02_21h02.29.648,IAT(Formal),2021.2.3,Win32,59.88023952,,,,i,1,0.7222,0,8,8,24,1,悲观,i,,,,,,,,,,,,,,,,,,,,,,,,,,,,,,,,,,,,,,,,,,,,,,,,,,,,,
,,,,,,,,,,,,,1,001,2025-01-02_21h02.29.648,IAT(Formal),2021.2.3,Win32,59.88023952,,,,i,1,0.6812,0,9,9,39,1,下贱,i,,,,,,,,,,,,,,,,,,,,,,,,,,,,,,,,,,,,,,,,,,,,,,,,,,,,,
,,,,,,,,,,,,,1,001,2025-01-02_21h02.29.648,IAT(Formal),2021.2.3,Win32,59.88023952,,,,e,1,0.8651,0,10,10,12,1,无私,e,,,,,,,,,,,,,,,,,,,,,,,,,,,,,,,,,,,,,,,,,,,,,,,,,,,,,
,,,,,,,,,,,,,1,001,2025-01-02_21h02.29.648,IAT(Formal),2021.2.3,Win32,59.88023952,,,,e,1,0.6324,0,11,11,1,1,崇高,e,,,,,,,,,,,,,,,,,,,,,,,,,,,,,,,,,,,,,,,,,,,,,,,,,,,,,
,,,,,,,,,,,,,1,001,2025-01-02_21h02.29.648,IAT(Formal),2021.2.3,Win32,59.88023952,,,,e,1,0.6716,0,12,12,17,1,热情,e,,,,,,,,,,,,,,,,,,,,,,,,,,,,,,,,,,,,,,,,,,,,,,,,,,,,,
,,,,,,,,,,,,,1,001,2025-01-02_21h02.29.648,IAT(Formal),2021.2.3,Win32,59.88023952,,,,e,1,0.7003,0,13,13,13,1,公正,e,,,,,,,,,,,,,,,,,,,,,,,,,,,,,,,,,,,,,,,,,,,,,,,,,,,,,
,,,,,,,,,,,,,1,001,2025-01-02_21h02.29.648,IAT(Formal),2021.2.3,Win32,59.88023952,,,,e,1,0.6394,0,14,14,14,1,朴实,e,,,,,,,,,,,,,,,,,,,,,,,,,,,,,,,,,,,,,,,,,,,,,,,,,,,,,
,,,,,,,,,,,,,1,001,2025-01-02_21h02.29.648,IAT(Formal),2021.2.3,Win32,59.88023952,,,,i,1,0.8256,0,15,15,31,1,散漫,i,,,,,,,,,,,,,,,,,,,,,,,,,,,,,,,,,,,,,,,,,,,,,,,,,,,,,
,,,,,,,,,,,,,1,001,2025-01-02_21h02.29.648,IAT(Formal),2021.2.3,Win32,59.88023952,,,,e,1,0.6791,0,16,16,8,1,勤奋,e,,,,,,,,,,,,,,,,,,,,,,,,,,,,,,,,,,,,,,,,,,,,,,,,,,,,,
,,,,,,,,,,,,,1,001,2025-01-02_21h02.29.648,IAT(Formal),2021.2.3,Win32,59.88023952,,,,e,1,0.6426,0,17,17,7,1,勇敢,e,,,,,,,,,,,,,,,,,,,,,,,,,,,,,,,,,,,,,,,,,,,,,,,,,,,,,
,,,,,,,,,,,,,1,001,2025-01-02_21h02.29.648,IAT(Formal),2021.2.3,Win32,59.88023952,,,,i,1,1.0959,0,18,18,37,1,固执,i,,,,,,,,,,,,,,,,,,,,,,,,,,,,,,,,,,,,,,,,,,,,,,,,,,,,,
,,,,,,,,,,,,,1,001,2025-01-02_21h02.29.648,IAT(Formal),2021.2.3,Win32,59.88023952,,,,e,1,0.6615,0,19,19,9,1,机智,e,,,,,,,,,,,,,,,,,,,,,,,,,,,,,,,,,,,,,,,,,,,,,,,,,,,,,
,,,,,,,,,,,,,1,001,2025-01-02_21h02.29.648,IAT(Formal),2021.2.3,Win32,59.88023952,,,,i,1,0.7022,0,20,20,21,1,虚伪,i,,,,,,,,,,,,,,,,,,,,,,,,,,,,,,,,,,,,,,,,,,,,,,,,,,,,,
,,,,,,,,,,,,,1,001,2025-01-02_21h02.29.648,IAT(Formal),2021.2.3,Win32,59.88023952,,,,i,1,0.834,0,21,21,22,1,愚蠢,i,,,,,,,,,,,,,,,,,,,,,,,,,,,,,,,,,,,,,,,,,,,,,,,,,,,,,
,,,,,,,,,,,,,1,001,2025-01-02_21h02.29.648,IAT(Formal),2021.2.3,Win32,59.88023952,,,,i,1,0.8572,0,22,22,36,1,野蛮,i,,,,,,,,,,,,,,,,,,,,,,,,,,,,,,,,,,,,,,,,,,,,,,,,,,,,,
,,,,,,,,,,,,,1,001,2025-01-02_21h02.29.648,IAT(Formal),2021.2.3,Win32,59.88023952,,,,e,1,0.7306,0,23,23,11,1,稳重,e,,,,,,,,,,,,,,,,,,,,,,,,,,,,,,,,,,,,,,,,,,,,,,,,,,,,,
,,,,,,,,,,,,,1,001,2025-01-02_21h02.29.648,IAT(Formal),2021.2.3,Win32,59.88023952,,,,e,1,0.6597,0,24,24,5,1,诚实,e,,,,,,,,,,,,,,,,,,,,,,,,,,,,,,,,,,,,,,,,,,,,,,,,,,,,,
,,,,,,,,,,,,,1,001,2025-01-02_21h02.29.648,IAT(Formal),2021.2.3,Win32,59.88023952,,,,e,1,0.7149,0,25,25,3,1,杰出,e,,,,,,,,,,,,,,,,,,,,,,,,,,,,,,,,,,,,,,,,,,,,,,,,,,,,,
,,,,,,,,,,,,,1,001,2025-01-02_21h02.29.648,IAT(Formal),2021.2.3,Win32,59.88023952,,,,e,1,0.975,0,26,26,18,1,活泼,e,,,,,,,,,,,,,,,,,,,,,,,,,,,,,,,,,,,,,,,,,,,,,,,,,,,,,
,,,,,,,,,,,,,1,001,2025-01-02_21h02.29.648,IAT(Formal),2021.2.3,Win32,59.88023952,,,,i,1,0.5804,0,27,27,35,1,猖狂,i,,,,,,,,,,,,,,,,,,,,,,,,,,,,,,,,,,,,,,,,,,,,,,,,,,,,,
,,,,,,,,,,,,,1,001,2025-01-02_21h02.29.648,IAT(Formal),2021.2.3,Win32,59.88023952,,,,i,1,0.8149,0,28,28,30,1,执拗,i,,,,,,,,,,,,,,,,,,,,,,,,,,,,,,,,,,,,,,,,,,,,,,,,,,,,,
,,,,,,,,,,,,,1,001,2025-01-02_21h02.29.648,IAT(Formal),2021.2.3,Win32,59.88023952,,,,e,1,0.8648,0,29,29,2,1,聪明,e,,,,,,,,,,,,,,,,,,,,,,,,,,,,,,,,,,,,,,,,,,,,,,,,,,,,,
,,,,,,,,,,,,,1,001,2025-01-02_21h02.29.648,IAT(Formal),2021.2.3,Win32,59.88023952,,,,i,1,0.6647,0,30,30,34,1,暴躁,i,,,,,,,,,,,,,,,,,,,,,,,,,,,,,,,,,,,,,,,,,,,,,,,,,,,,,
,,,,,,,,,,,,,1,001,2025-01-02_21h02.29.648,IAT(Formal),2021.2.3,Win32,59.88023952,,,,i,1,0.7885,0,31,31,20,1,卑鄙,i,,,,,,,,,,,,,,,,,,,,,,,,,,,,,,,,,,,,,,,,,,,,,,,,,,,,,
,,,,,,,,,,,,,1,001,2025-01-02_21h02.29.648,IAT(Formal),2021.2.3,Win32,59.88023952,,,,i,1,0.931,0,32,32,33,1,自私,i,,,,,,,,,,,,,,,,,,,,,,,,,,,,,,,,,,,,,,,,,,,,,,,,,,,,,
,,,,,,,,,,,,,1,001,2025-01-02_21h02.29.648,IAT(Formal),2021.2.3,Win32,59.88023952,,,,i,1,0.7937,0,33,33,32,1,凶狠,i,,,,,,,,,,,,,,,,,,,,,,,,,,,,,,,,,,,,,,,,,,,,,,,,,,,,,
,,,,,,,,,,,,,1,001,2025-01-02_21h02.29.648,IAT(Formal),2021.2.3,Win32,59.88023952,,,,e,1,0.7625,0,34,34,10,1,认真,e,,,,,,,,,,,,,,,,,,,,,,,,,,,,,,,,,,,,,,,,,,,,,,,,,,,,,
,,,,,,,,,,,,,1,001,2025-01-02_21h02.29.648,IAT(Formal),2021.2.3,Win32,59.88023952,,,,i,1,0.9867,0,35,35,27,1,傲慢,i,,,,,,,,,,,,,,,,,,,,,,,,,,,,,,,,,,,,,,,,,,,,,,,,,,,,,
,,,,,,,,,,,,,1,001,2025-01-02_21h02.29.648,IAT(Formal),2021.2.3,Win32,59.88023952,,,,e,1,0.8747,0,36,36,16,1,冷静,e,,,,,,,,,,,,,,,,,,,,,,,,,,,,,,,,,,,,,,,,,,,,,,,,,,,,,
,,,,,,,,,,,,,1,001,2025-01-02_21h02.29.648,IAT(Formal),2021.2.3,Win32,59.88023952,,,,i,1,0.765,0,37,37,23,1,刻薄,i,,,,,,,,,,,,,,,,,,,,,,,,,,,,,,,,,,,,,,,,,,,,,,,,,,,,,
,,,,,,,,,,,,,1,001,2025-01-02_21h02.29.648,IAT(Formal),2021.2.3,Win32,59.88023952,,,,e,1,0.6999,0,38,38,19,1,诚恳,e,,,,,,,,,,,,,,,,,,,,,,,,,,,,,,,,,,,,,,,,,,,,,,,,,,,,,
,,,,,,,,,,,,,1,001,2025-01-02_21h02.29.648,IAT(Formal),2021.2.3,Win32,59.88023952,,,,e,1,0.6648,0,39,39,0,1,优秀,e,,,,,,,,,,,,,,,,,,,,,,,,,,,,,,,,,,,,,,,,,,,,,,,,,,,,,
,,,,,,,,,,,,,1,001,2025-01-02_21h02.29.648,IAT(Formal),2021.2.3,Win32,59.88023952,,,,,,,,,,,,,,space,6.0159,e,1,0.9086,0,0,0,23,1,公正,e,,,,,,,,,,,,,,,,,,,,,,,,,,,,,,,,,,,,,,,,,
,,,,,,,,,,,,,1,001,2025-01-02_21h02.29.648,IAT(Formal),2021.2.3,Win32,59.88023952,,,,,,,,,,,,,,,,i,1,0.9673,0,1,1,56,1,他们,i,,,,,,,,,,,,,,,,,,,,,,,,,,,,,,,,,,,,,,,,,
,,,,,,,,,,,,,1,001,2025-01-02_21h02.29.648,IAT(Formal),2021.2.3,Win32,59.88023952,,,,,,,,,,,,,,,,e,1,0.9468,0,2,2,13,1,杰出,e,,,,,,,,,,,,,,,,,,,,,,,,,,,,,,,,,,,,,,,,,
,,,,,,,,,,,,,1,001,2025-01-02_21h02.29.648,IAT(Formal),2021.2.3,Win32,59.88023952,,,,,,,,,,,,,,,,i,1,0.6996,0,3,3,57,1,他的,i,,,,,,,,,,,,,,,,,,,,,,,,,,,,,,,,,,,,,,,,,
,,,,,,,,,,,,,1,001,2025-01-02_21h02.29.648,IAT(Formal),2021.2.3,Win32,59.88023952,,,,,,,,,,,,,,,,e,1,0.705,0,4,4,63,1,自己,e,,,,,,,,,,,,,,,,,,,,,,,,,,,,,,,,,,,,,,,,,
,,,,,,,,,,,,,1,001,2025-01-02_21h02.29.648,IAT(Formal),2021.2.3,Win32,59.88023952,,,,,,,,,,,,,,,,i,1,0.7401,0,5,5,47,1,固执,i,,,,,,,,,,,,,,,,,,,,,,,,,,,,,,,,,,,,,,,,,
,,,,,,,,,,,,,1,001,2025-01-02_21h02.29.648,IAT(Formal),2021.2.3,Win32,59.88023952,,,,,,,,,,,,,,,,i,1,0.9984,0,6,6,66,1,他们,i,,,,,,,,,,,,,,,,,,,,,,,,,,,,,,,,,,,,,,,,,
,,,,,,,,,,,,,1,001,2025-01-02_21h02.29.648,IAT(Formal),2021.2.3,Win32,59.88023952,,,,,,,,,,,,,,,,e,1,0.7282,0,7,7,29,1,诚恳,e,,,,,,,,,,,,,,,,,,,,,,,,,,,,,,,,,,,,,,,,,
,,,,,,,,,,,,,1,001,2025-01-02_21h02.29.648,IAT(Formal),2021.2.3,Win32,59.88023952,,,,,,,,,,,,,,,,i,1,0.7007,0,8,8,41,1,散漫,i,,,,,,,,,,,,,,,,,,,,,,,,,,,,,,,,,,,,,,,,,
,,,,,,,,,,,,,1,001,2025-01-02_21h02.29.648,IAT(Formal),2021.2.3,Win32,59.88023952,,,,,,,,,,,,,,,,e,1,1.1714,0,9,9,54,1,俺,e,,,,,,,,,,,,,,,,,,,,,,,,,,,,,,,,,,,,,,,,,
,,,,,,,,,,,,,1,001,2025-01-02_21h02.29.648,IAT(Formal),2021.2.3,Win32,59.88023952,,,,,,,,,,,,,,,,i,1,0.8309,0,10,10,44,1,暴躁,i,,,,,,,,,,,,,,,,,,,,,,,,,,,,,,,,,,,,,,,,,
,,,,,,,,,,,,,1,001,2025-01-02_21h02.29.648,IAT(Formal),2021.2.3,Win32,59.88023952,,,,,,,,,,,,,,,,e,1,0.7662,0,11,11,60,1,我,e,,,,,,,,,,,,,,,,,,,,,,,,,,,,,,,,,,,,,,,,,
,,,,,,,,,,,,,1,001,2025-01-02_21h02.29.648,IAT(Formal),2021.2.3,Win32,59.88023952,,,,,,,,,,,,,,,,i,1,0.7323,0,12,12,31,1,虚伪,i,,,,,,,,,,,,,,,,,,,,,,,,,,,,,,,,,,,,,,,,,
,,,,,,,,,,,,,1,001,2025-01-02_21h02.29.648,IAT(Formal),2021.2.3,Win32,59.88023952,,,,,,,,,,,,,,,,e,1,0.936,0,13,13,52,1,我们,e,,,,,,,,,,,,,,,,,,,,,,,,,,,,,,,,,,,,,,,,,
,,,,,,,,,,,,,1,001,2025-01-02_21h02.29.648,IAT(Formal),2021.2.3,Win32,59.88023952,,,,,,,,,,,,,,,,e,1,0.7425,0,14,14,20,1,认真,e,,,,,,,,,,,,,,,,,,,,,,,,,,,,,,,,,,,,,,,,,
,,,,,,,,,,,,,1,001,2025-01-02_21h02.29.648,IAT(Formal),2021.2.3,Win32,59.88023952,,,,,,,,,,,,,,,,i,1,0.9287,0,15,15,65,1,他,i,,,,,,,,,,,,,,,,,,,,,,,,,,,,,,,,,,,,,,,,,
,,,,,,,,,,,,,1,001,2025-01-02_21h02.29.648,IAT(Formal),2021.2.3,Win32,59.88023952,,,,,,,,,,,,,,,,e,1,0.773,0,16,16,0,1,我,e,,,,,,,,,,,,,,,,,,,,,,,,,,,,,,,,,,,,,,,,,
,,,,,,,,,,,,,1,001,2025-01-02_21h02.29.648,IAT(Formal),2021.2.3,Win32,59.88023952,,,,,,,,,,,,,,,,e,1,0.7253,0,17,17,17,1,勇敢,e,,,,,,,,,,,,,,,,,,,,,,,,,,,,,,,,,,,,,,,,,
,,,,,,,,,,,,,1,001,2025-01-02_21h02.29.648,IAT(Formal),2021.2.3,Win32,59.88023952,,,,,,,,,,,,,,,,e,1,0.7295,0,18,18,25,1,细腻,e,,,,,,,,,,,,,,,,,,,,,,,,,,,,,,,,,,,,,,,,,
,,,,,,,,,,,,,1,001,2025-01-02_21h02.29.648,IAT(Formal),2021.2.3,Win32,59.88023952,,,,,,,,,,,,,,,,e,1,0.7026,0,19,19,21,1,稳重,e,,,,,,,,,,,,,,,,,,,,,,,,,,,,,,,,,,,,,,,,,
,,,,,,,,,,,,,1,001,2025-01-02_21h02.29.648,IAT(Formal),2021.2.3,Win32,59.88023952,,,,,,,,,,,,,,,,e,1,0.8684,0,20,20,18,1,勤奋,e,,,,,,,,,,,,,,,,,,,,,,,,,,,,,,,,,,,,,,,,,
,,,,,,,,,,,,,1,001,2025-01-02_21h02.29.648,IAT(Formal),2021.2.3,Win32,59.88023952,,,,,,,,,,,,,,,,i,1,0.7094,0,21,21,36,1,自卑,i,,,,,,,,,,,,,,,,,,,,,,,,,,,,,,,,,,,,,,,,,
,,,,,,,,,,,,,1,001,2025-01-02_21h02.29.648,IAT(Formal),2021.2.3,Win32,59.88023952,,,,,,,,,,,,,,,,i,1,0.5966,0,22,22,42,1,凶狠,i,,,,,,,,,,,,,,,,,,,,,,,,,,,,,,,,,,,,,,,,,
,,,,,,,,,,,,,1,001,2025-01-02_21h02.29.648,IAT(Formal),2021.2.3,Win32,59.88023952,,,,,,,,,,,,,,,,i,1,0.634,0,23,23,75,1,他,i,,,,,,,,,,,,,,,,,,,,,,,,,,,,,,,,,,,,,,,,,
,,,,,,,,,,,,,1,001,2025-01-02_21h02.29.648,IAT(Formal),2021.2.3,Win32,59.88023952,,,,,,,,,,,,,,,,e,1,0.6623,0,24,24,50,1,我,e,,,,,,,,,,,,,,,,,,,,,,,,,,,,,,,,,,,,,,,,,
,,,,,,,,,,,,,1,001,2025-01-02_21h02.29.648,IAT(Formal),2021.2.3,Win32,59.88023952,,,,,,,,,,,,,,,,i,1,0.6747,0,25,25,8,1,他人,i,,,,,,,,,,,,,,,,,,,,,,,,,,,,,,,,,,,,,,,,,
,,,,,,,,,,,,,1,001,2025-01-02_21h02.29.648,IAT(Formal),2021.2.3,Win32,59.88023952,,,,,,,,,,,,,,,,i,1,0.771,0,26,26,45,1,猖狂,i,,,,,,,,,,,,,,,,,,,,,,,,,,,,,,,,,,,,,,,,,
,,,,,,,,,,,,,1,001,2025-01-02_21h02.29.648,IAT(Formal),2021.2.3,Win32,59.88023952,,,,,,,,,,,,,,,,e,1,0.671,0,27,27,72,1,我们,e,,,,,,,,,,,,,,,,,,,,,,,,,,,,,,,,,,,,,,,,,
,,,,,,,,,,,,,1,001,2025-01-02_21h02.29.648,IAT(Formal),2021.2.3,Win32,59.88023952,,,,,,,,,,,,,,,,i,1,0.7694,0,28,28,43,1,自私,i,,,,,,,,,,,,,,,,,,,,,,,,,,,,,,,,,,,,,,,,,
,,,,,,,,,,,,,1,001,2025-01-02_21h02.29.648,IAT(Formal),2021.2.3,Win32,59.88023952,,,,,,,,,,,,,,,,e,1,0.673,0,29,29,2,1,我们,e,,,,,,,,,,,,,,,,,,,,,,,,,,,,,,,,,,,,,,,,,
,,,,,,,,,,,,,1,001,2025-01-02_21h02.29.648,IAT(Formal),2021.2.3,Win32,59.88023952,,,,,,,,,,,,,,,,e,1,0.6314,0,30,30,10,1,优秀,e,,,,,,,,,,,,,,,,,,,,,,,,,,,,,,,,,,,,,,,,,
,,,,,,,,,,,,,1,001,2025-01-02_21h02.29.648,IAT(Formal),2021.2.3,Win32,59.88023952,,,,,,,,,,,,,,,,e,1,0.6997,0,31,31,14,1,乐观,e,,,,,,,,,,,,,,,,,,,,,,,,,,,,,,,,,,,,,,,,,
,,,,,,,,,,,,,1,001,2025-01-02_21h02.29.648,IAT(Formal),2021.2.3,Win32,59.88023952,,,,,,,,,,,,,,,,e,1,0.8125,0,32,32,1,1,我的,e,,,,,,,,,,,,,,,,,,,,,,,,,,,,,,,,,,,,,,,,,
,,,,,,,,,,,,,1,001,2025-01-02_21h02.29.648,IAT(Formal),2021.2.3,Win32,59.88023952,,,,,,,,,,,,,,,,i,1,0.8346,0,33,33,55,1,他,i,,,,,,,,,,,,,,,,,,,,,,,,,,,,,,,,,,,,,,,,,
,,,,,,,,,,,,,1,001,2025-01-02_21h02.29.648,IAT(Formal),2021.2.3,Win32,59.88023952,,,,,,,,,,,,,,,,i,1,0.7691,0,34,34,49,1,下贱,i,,,,,,,,,,,,,,,,,,,,,,,,,,,,,,,,,,,,,,,,,
,,,,,,,,,,,,,1,001,2025-01-02_21h02.29.648,IAT(Formal),2021.2.3,Win32,59.88023952,,,,,,,,,,,,,,,,e,1,0.7863,0,35,35,70,1,我,e,,,,,,,,,,,,,,,,,,,,,,,,,,,,,,,,,,,,,,,,,
,,,,,,,,,,,,,1,001,2025-01-02_21h02.29.648,IAT(Formal),2021.2.3,Win32,59.88023952,,,,,,,,,,,,,,,,i,1,1.0162,0,36,36,76,1,他们,i,,,,,,,,,,,,,,,,,,,,,,,,,,,,,,,,,,,,,,,,,
,,,,,,,,,,,,,1,001,2025-01-02_21h02.29.648,IAT(Formal),2021.2.3,Win32,59.88023952,,,,,,,,,,,,,,,,e,1,0.7135,0,37,37,53,1,自己,e,,,,,,,,,,,,,,,,,,,,,,,,,,,,,,,,,,,,,,,,,
,,,,,,,,,,,,,1,001,2025-01-02_21h02.29.648,IAT(Formal),2021.2.3,Win32,59.88023952,,,,,,,,,,,,,,,,e,1,0.6993,0,38,38,24,1,朴实,e,,,,,,,,,,,,,,,,,,,,,,,,,,,,,,,,,,,,,,,,,
,,,,,,,,,,,,,1,001,2025-01-02_21h02.29.648,IAT(Formal),2021.2.3,Win32,59.88023952,,,,,,,,,,,,,,,,i,1,0.8668,0,39,39,78,1,他人,i,,,,,,,,,,,,,,,,,,,,,,,,,,,,,,,,,,,,,,,,,
,,,,,,,,,,,,,1,001,2025-01-02_21h02.29.648,IAT(Formal),2021.2.3,Win32,59.88023952,,,,,,,,,,,,,,,,e,1,0.6815,0,40,40,73,1,自己,e,,,,,,,,,,,,,,,,,,,,,,,,,,,,,,,,,,,,,,,,,
,,,,,,,,,,,,,1,001,2025-01-02_21h02.29.648,IAT(Formal),2021.2.3,Win32,59.88023952,,,,,,,,,,,,,,,,i,1,0.7919,0,41,41,79,1,其他,i,,,,,,,,,,,,,,,,,,,,,,,,,,,,,,,,,,,,,,,,,
,,,,,,,,,,,,,1,001,2025-01-02_21h02.29.648,IAT(Formal),2021.2.3,Win32,59.88023952,,,,,,,,,,,,,,,,e,1,0.6421,0,42,42,51,1,我的,e,,,,,,,,,,,,,,,,,,,,,,,,,,,,,,,,,,,,,,,,,
,,,,,,,,,,,,,1,001,2025-01-02_21h02.29.648,IAT(Formal),2021.2.3,Win32,59.88023952,,,,,,,,,,,,,,,,i,1,0.7663,0,43,43,59,1,其他,i,,,,,,,,,,,,,,,,,,,,,,,,,,,,,,,,,,,,,,,,,
,,,,,,,,,,,,,1,001,2025-01-02_21h02.29.648,IAT(Formal),2021.2.3,Win32,59.88023952,,,,,,,,,,,,,,,,i,1,0.8072,0,44,44,6,1,他们,i,,,,,,,,,,,,,,,,,,,,,,,,,,,,,,,,,,,,,,,,,
,,,,,,,,,,,,,1,001,2025-01-02_21h02.29.648,IAT(Formal),2021.2.3,Win32,59.88023952,,,,,,,,,,,,,,,,e,1,0.6354,0,45,45,61,1,我的,e,,,,,,,,,,,,,,,,,,,,,,,,,,,,,,,,,,,,,,,,,
,,,,,,,,,,,,,1,001,2025-01-02_21h02.29.648,IAT(Formal),2021.2.3,Win32,59.88023952,,,,,,,,,,,,,,,,i,1,0.7069,0,46,46,69,1,其他,i,,,,,,,,,,,,,,,,,,,,,,,,,,,,,,,,,,,,,,,,,
,,,,,,,,,,,,,1,001,2025-01-02_21h02.29.648,IAT(Formal),2021.2.3,Win32,59.88023952,,,,,,,,,,,,,,,,e,1,0.7344,0,47,47,64,1,俺,e,,,,,,,,,,,,,,,,,,,,,,,,,,,,,,,,,,,,,,,,,
,,,,,,,,,,,,,1,001,2025-01-02_21h02.29.648,IAT(Formal),2021.2.3,Win32,59.88023952,,,,,,,,,,,,,,,,i,1,0.6983,0,48,48,30,1,卑鄙,i,,,,,,,,,,,,,,,,,,,,,,,,,,,,,,,,,,,,,,,,,
,,,,,,,,,,,,,1,001,2025-01-02_21h02.29.648,IAT(Formal),2021.2.3,Win32,59.88023952,,,,,,,,,,,,,,,,i,1,0.6683,0,49,49,38,1,鲁莽,i,,,,,,,,,,,,,,,,,,,,,,,,,,,,,,,,,,,,,,,,,
,,,,,,,,,,,,,1,001,2025-01-02_21h02.29.648,IAT(Formal),2021.2.3,Win32,59.88023952,,,,,,,,,,,,,,,,i,1,0.6698,0,50,50,48,1,轻率,i,,,,,,,,,,,,,,,,,,,,,,,,,,,,,,,,,,,,,,,,,
,,,,,,,,,,,,,1,001,2025-01-02_21h02.29.648,IAT(Formal),2021.2.3,Win32,59.88023952,,,,,,,,,,,,,,,,i,1,0.6658,0,51,51,37,1,傲慢,i,,,,,,,,,,,,,,,,,,,,,,,,,,,,,,,,,,,,,,,,,
,,,,,,,,,,,,,1,001,2025-01-02_21h02.29.648,IAT(Formal),2021.2.3,Win32,59.88023952,,,,,,,,,,,,,,,,i,1,0.6695,0,52,52,33,1,刻薄,i,,,,,,,,,,,,,,,,,,,,,,,,,,,,,,,,,,,,,,,,,
,,,,,,,,,,,,,1,001,2025-01-02_21h02.29.648,IAT(Formal),2021.2.3,Win32,59.88023952,,,,,,,,,,,,,,,,i,1,0.9497,0,53,53,7,1,他的,i,,,,,,,,,,,,,,,,,,,,,,,,,,,,,,,,,,,,,,,,,
,,,,,,,,,,,,,1,001,2025-01-02_21h02.29.648,IAT(Formal),2021.2.3,Win32,59.88023952,,,,,,,,,,,,,,,,e,1,0.5949,0,54,54,16,1,正直,e,,,,,,,,,,,,,,,,,,,,,,,,,,,,,,,,,,,,,,,,,
,,,,,,,,,,,,,1,001,2025-01-02_21h02.29.648,IAT(Formal),2021.2.3,Win32,59.88023952,,,,,,,,,,,,,,,,i,1,0.967,0,55,55,5,1,他,i,,,,,,,,,,,,,,,,,,,,,,,,,,,,,,,,,,,,,,,,,
,,,,,,,,,,,,,1,001,2025-01-02_21h02.29.648,IAT(Formal),2021.2.3,Win32,59.88023952,,,,,,,,,,,,,,,,i,1,0.7401,0,56,56,40,1,执拗,i,,,,,,,,,,,,,,,,,,,,,,,,,,,,,,,,,,,,,,,,,
,,,,,,,,,,,,,1,001,2025-01-02_21h02.29.648,IAT(Formal),2021.2.3,Win32,59.88023952,,,,,,,,,,,,,,,,i,1,0.9325,0,57,57,67,1,他的,i,,,,,,,,,,,,,,,,,,,,,,,,,,,,,,,,,,,,,,,,,
,,,,,,,,,,,,,1,001,2025-01-02_21h02.29.648,IAT(Formal),2021.2.3,Win32,59.88023952,,,,,,,,,,,,,,,,i,1,0.6296,0,58,58,32,1,愚蠢,i,,,,,,,,,,,,,,,,,,,,,,,,,,,,,,,,,,,,,,,,,
,,,,,,,,,,,,,1,001,2025-01-02_21h02.29.648,IAT(Formal),2021.2.3,Win32,59.88023952,,,,,,,,,,,,,,,,i,1,1.1675,0,59,59,9,1,其他,i,,,,,,,,,,,,,,,,,,,,,,,,,,,,,,,,,,,,,,,,,
,,,,,,,,,,,,,1,001,2025-01-02_21h02.29.648,IAT(Formal),2021.2.3,Win32,59.88023952,,,,,,,,,,,,,,,,e,1,0.6947,0,60,60,71,1,我的,e,,,,,,,,,,,,,,,,,,,,,,,,,,,,,,,,,,,,,,,,,
,,,,,,,,,,,,,1,001,2025-01-02_21h02.29.648,IAT(Formal),2021.2.3,Win32,59.88023952,,,,,,,,,,,,,,,,e,1,0.7352,0,61,61,22,1,无私,e,,,,,,,,,,,,,,,,,,,,,,,,,,,,,,,,,,,,,,,,,
,,,,,,,,,,,,,1,001,2025-01-02_21h02.29.648,IAT(Formal),2021.2.3,Win32,59.88023952,,,,,,,,,,,,,,,,e,1,0.6692,0,62,62,19,1,机智,e,,,,,,,,,,,,,,,,,,,,,,,,,,,,,,,,,,,,,,,,,
,,,,,,,,,,,,,1,001,2025-01-02_21h02.29.648,IAT(Formal),2021.2.3,Win32,59.88023952,,,,,,,,,,,,,,,,i,1,0.9286,0,63,63,77,1,他的,i,,,,,,,,,,,,,,,,,,,,,,,,,,,,,,,,,,,,,,,,,
,,,,,,,,,,,,,1,001,2025-01-02_21h02.29.648,IAT(Formal),2021.2.3,Win32,59.88023952,,,,,,,,,,,,,,,,i,1,0.7689,0,64,64,39,1,冒失,i,,,,,,,,,,,,,,,,,,,,,,,,,,,,,,,,,,,,,,,,,
,,,,,,,,,,,,,1,001,2025-01-02_21h02.29.648,IAT(Formal),2021.2.3,Win32,59.88023952,,,,,,,,,,,,,,,,e,1,0.7413,0,65,65,12,1,聪明,e,,,,,,,,,,,,,,,,,,,,,,,,,,,,,,,,,,,,,,,,,
,,,,,,,,,,,,,1,001,2025-01-02_21h02.29.648,IAT(Formal),2021.2.3,Win32,59.88023952,,,,,,,,,,,,,,,,e,1,0.7722,0,66,66,26,1,冷静,e,,,,,,,,,,,,,,,,,,,,,,,,,,,,,,,,,,,,,,,,,
,,,,,,,,,,,,,1,001,2025-01-02_21h02.29.648,IAT(Formal),2021.2.3,Win32,59.88023952,,,,,,,,,,,,,,,,e,1,0.7372,0,67,67,62,1,我们,e,,,,,,,,,,,,,,,,,,,,,,,,,,,,,,,,,,,,,,,,,
,,,,,,,,,,,,,1,001,2025-01-02_21h02.29.648,IAT(Formal),2021.2.3,Win32,59.88023952,,,,,,,,,,,,,,,,i,1,0.7026,0,68,68,34,1,悲观,i,,,,,,,,,,,,,,,,,,,,,,,,,,,,,,,,,,,,,,,,,
,,,,,,,,,,,,,1,001,2025-01-02_21h02.29.648,IAT(Formal),2021.2.3,Win32,59.88023952,,,,,,,,,,,,,,,,e,1,0.7981,0,69,69,11,1,崇高,e,,,,,,,,,,,,,,,,,,,,,,,,,,,,,,,,,,,,,,,,,
,,,,,,,,,,,,,1,001,2025-01-02_21h02.29.648,IAT(Formal),2021.2.3,Win32,59.88023952,,,,,,,,,,,,,,,,e,1,0.634,0,70,70,27,1,热情,e,,,,,,,,,,,,,,,,,,,,,,,,,,,,,,,,,,,,,,,,,
,,,,,,,,,,,,,1,001,2025-01-02_21h02.29.648,IAT(Formal),2021.2.3,Win32,59.88023952,,,,,,,,,,,,,,,,e,1,0.6391,0,71,71,3,1,自己,e,,,,,,,,,,,,,,,,,,,,,,,,,,,,,,,,,,,,,,,,,
,,,,,,,,,,,,,1,001,2025-01-02_21h02.29.648,IAT(Formal),2021.2.3,Win32,59.88023952,,,,,,,,,,,,,,,,i,1,0.7016,0,72,72,35,1,消极,i,,,,,,,,,,,,,,,,,,,,,,,,,,,,,,,,,,,,,,,,,
,,,,,,,,,,,,,1,001,2025-01-02_21h02.29.648,IAT(Formal),2021.2.3,Win32,59.88023952,,,,,,,,,,,,,,,,e,1,1.0045,0,73,73,74,1,俺,e,,,,,,,,,,,,,,,,,,,,,,,,,,,,,,,,,,,,,,,,,
,,,,,,,,,,,,,1,001,2025-01-02_21h02.29.648,IAT(Formal),2021.2.3,Win32,59.88023952,,,,,,,,,,,,,,,,i,1,0.7344,0,74,74,68,1,他人,i,,,,,,,,,,,,,,,,,,,,,,,,,,,,,,,,,,,,,,,,,
,,,,,,,,,,,,,1,001,2025-01-02_21h02.29.648,IAT(Formal),2021.2.3,Win32,59.88023952,,,,,,,,,,,,,,,,e,1,0.6746,0,75,75,15,1,诚实,e,,,,,,,,,,,,,,,,,,,,,,,,,,,,,,,,,,,,,,,,,
,,,,,,,,,,,,,1,001,2025-01-02_21h02.29.648,IAT(Formal),2021.2.3,Win32,59.88023952,,,,,,,,,,,,,,,,e,1,0.7037,0,76,76,28,1,活泼,e,,,,,,,,,,,,,,,,,,,,,,,,,,,,,,,,,,,,,,,,,
,,,,,,,,,,,,,1,001,2025-01-02_21h02.29.648,IAT(Formal),2021.2.3,Win32,59.88023952,,,,,,,,,,,,,,,,i,1,0.8312,0,77,77,46,1,野蛮,i,,,,,,,,,,,,,,,,,,,,,,,,,,,,,,,,,,,,,,,,,
,,,,,,,,,,,,,1,001,2025-01-02_21h02.29.648,IAT(Formal),2021.2.3,Win32,59.88023952,,,,,,,,,,,,,,,,e,1,0.7737,0,78,78,4,1,俺,e,,,,,,,,,,,,,,,,,,,,,,,,,,,,,,,,,,,,,,,,,
,,,,,,,,,,,,,1,001,2025-01-02_21h02.29.648,IAT(Formal),2021.2.3,Win32,59.88023952,,,,,,,,,,,,,,,,i,1,0.7327,0,79,79,58,1,他人,i,,,,,,,,,,,,,,,,,,,,,,,,,,,,,,,,,,,,,,,,,
,,,,,,,,,,,,,1,001,2025-01-02_21h02.29.648,IAT(Formal),2021.2.3,Win32,59.88023952,,,,,,,,,,,,,,,,i,1,0.7997,,,,,,其他,i,space,9.9134,0,0,0,9,1,,,,,,,,,,,,,,,,,,,,,,,,,,,,,,,,,,
,,,,,,,,,,,,,1,001,2025-01-02_21h02.29.648,IAT(Formal),2021.2.3,Win32,59.88023952,,,,,,,,,,,,,,,,i,1,0.6295,,,,,,固执,i,,,0,1,1,47,1,,,,,,,,,,,,,,,,,,,,,,,,,,,,,,,,,,
,,,,,,,,,,,,,1,001,2025-01-02_21h02.29.648,IAT(Formal),2021.2.3,Win32,59.88023952,,,,,,,,,,,,,,,,i,1,0.6978,,,,,,愚蠢,i,,,0,2,2,32,1,,,,,,,,,,,,,,,,,,,,,,,,,,,,,,,,,,
,,,,,,,,,,,,,1,001,2025-01-02_21h02.29.648,IAT(Formal),2021.2.3,Win32,59.88023952,,,,,,,,,,,,,,,,i,1,0.837,,,,,,他的,i,,,0,3,3,67,1,,,,,,,,,,,,,,,,,,,,,,,,,,,,,,,,,,
,,,,,,,,,,,,,1,001,2025-01-02_21h02.29.648,IAT(Formal),2021.2.3,Win32,59.88023952,,,,,,,,,,,,,,,,i,1,0.636,,,,,,他的,i,,,0,4,4,7,1,,,,,,,,,,,,,,,,,,,,,,,,,,,,,,,,,,
,,,,,,,,,,,,,1,001,2025-01-02_21h02.29.648,IAT(Formal),2021.2.3,Win32,59.88023952,,,,,,,,,,,,,,,,i,1,0.6619,,,,,,他们,i,,,0,5,5,56,1,,,,,,,,,,,,,,,,,,,,,,,,,,,,,,,,,,
,,,,,,,,,,,,,1,001,2025-01-02_21h02.29.648,IAT(Formal),2021.2.3,Win32,59.88023952,,,,,,,,,,,,,,,,e,1,0.664,,,,,,我的,e,,,0,6,6,61,1,,,,,,,,,,,,,,,,,,,,,,,,,,,,,,,,,,
,,,,,,,,,,,,,1,001,2025-01-02_21h02.29.648,IAT(Formal),2021.2.3,Win32,59.88023952,,,,,,,,,,,,,,,,e,1,0.5695,,,,,,认真,e,,,0,7,7,20,1,,,,,,,,,,,,,,,,,,,,,,,,,,,,,,,,,,
,,,,,,,,,,,,,1,001,2025-01-02_21h02.29.648,IAT(Formal),2021.2.3,Win32,59.88023952,,,,,,,,,,,,,,,,e,1,0.6401,,,,,,杰出,e,,,0,8,8,13,1,,,,,,,,,,,,,,,,,,,,,,,,,,,,,,,,,,
,,,,,,,,,,,,,1,001,2025-01-02_21h02.29.648,IAT(Formal),2021.2.3,Win32,59.88023952,,,,,,,,,,,,,,,,e,1,0.6637,,,,,,我,e,,,0,9,9,50,1,,,,,,,,,,,,,,,,,,,,,,,,,,,,,,,,,,
,,,,,,,,,,,,,1,001,2025-01-02_21h02.29.648,IAT(Formal),2021.2.3,Win32,59.88023952,,,,,,,,,,,,,,,,i,1,0.6973,,,,,,他的,i,,,0,10,10,77,1,,,,,,,,,,,,,,,,,,,,,,,,,,,,,,,,,,
,,,,,,,,,,,,,1,001,2025-01-02_21h02.29.648,IAT(Formal),2021.2.3,Win32,59.88023952,,,,,,,,,,,,,,,,i,1,0.833,,,,,,他们,i,,,0,11,11,6,1,,,,,,,,,,,,,,,,,,,,,,,,,,,,,,,,,,
,,,,,,,,,,,,,1,001,2025-01-02_21h02.29.648,IAT(Formal),2021.2.3,Win32,59.88023952,,,,,,,,,,,,,,,,e,1,0.7364,,,,,,我,e,,,0,12,12,70,1,,,,,,,,,,,,,,,,,,,,,,,,,,,,,,,,,,
,,,,,,,,,,,,,1,001,2025-01-02_21h02.29.648,IAT(Formal),2021.2.3,Win32,59.88023952,,,,,,,,,,,,,,,,e,1,0.6429,,,,,,我,e,,,0,13,13,60,1,,,,,,,,,,,,,,,,,,,,,,,,,,,,,,,,,,
,,,,,,,,,,,,,1,001,2025-01-02_21h02.29.648,IAT(Formal),2021.2.3,Win32,59.88023952,,,,,,,,,,,,,,,,e,1,0.6284,,,,,,热情,e,,,0,14,14,27,1,,,,,,,,,,,,,,,,,,,,,,,,,,,,,,,,,,
,,,,,,,,,,,,,1,001,2025-01-02_21h02.29.648,IAT(Formal),2021.2.3,Win32,59.88023952,,,,,,,,,,,,,,,,i,1,0.7064,,,,,,凶狠,i,,,0,15,15,42,1,,,,,,,,,,,,,,,,,,,,,,,,,,,,,,,,,,
,,,,,,,,,,,,,1,001,2025-01-02_21h02.29.648,IAT(Formal),2021.2.3,Win32,59.88023952,,,,,,,,,,,,,,,,i,1,0.7332,,,,,,鲁莽,i,,,0,16,16,38,1,,,,,,,,,,,,,,,,,,,,,,,,,,,,,,,,,,
,,,,,,,,,,,,,1,001,2025-01-02_21h02.29.648,IAT(Formal),2021.2.3,Win32,59.88023952,,,,,,,,,,,,,,,,i,1,1.039,,,,,,他的,i,,,0,17,17,57,1,,,,,,,,,,,,,,,,,,,,,,,,,,,,,,,,,,
,,,,,,,,,,,,,1,001,2025-01-02_21h02.29.648,IAT(Formal),2021.2.3,Win32,59.88023952,,,,,,,,,,,,,,,,i,1,1.0362,,,,,,自私,i,,,0,18,18,43,1,,,,,,,,,,,,,,,,,,,,,,,,,,,,,,,,,,
,,,,,,,,,,,,,1,001,2025-01-02_21h02.29.648,IAT(Formal),2021.2.3,Win32,59.88023952,,,,,,,,,,,,,,,,e,1,0.6966,,,,,,公正,e,,,0,19,19,23,1,,,,,,,,,,,,,,,,,,,,,,,,,,,,,,,,,,
,,,,,,,,,,,,,1,001,2025-01-02_21h02.29.648,IAT(Formal),2021.2.3,Win32,59.88023952,,,,,,,,,,,,,,,,e,1,0.7693,,,,,,崇高,e,,,0,20,20,11,1,,,,,,,,,,,,,,,,,,,,,,,,,,,,,,,,,,
,,,,,,,,,,,,,1,001,2025-01-02_21h02.29.648,IAT(Formal),2021.2.3,Win32,59.88023952,,,,,,,,,,,,,,,,i,1,0.7638,,,,,,他们,i,,,0,21,21,76,1,,,,,,,,,,,,,,,,,,,,,,,,,,,,,,,,,,
,,,,,,,,,,,,,1,001,2025-01-02_21h02.29.648,IAT(Formal),2021.2.3,Win32,59.88023952,,,,,,,,,,,,,,,,e,1,0.8987,,,,,,优秀,e,,,0,22,22,10,1,,,,,,,,,,,,,,,,,,,,,,,,,,,,,,,,,,
,,,,,,,,,,,,,1,001,2025-01-02_21h02.29.648,IAT(Formal),2021.2.3,Win32,59.88023952,,,,,,,,,,,,,,,,i,0,0.8306,,,,,,无私,e,,,0,23,23,22,1,,,,,,,,,,,,,,,,,,,,,,,,,,,,,,,,,,
,,,,,,,,,,,,,1,001,2025-01-02_21h02.29.648,IAT(Formal),2021.2.3,Win32,59.88023952,,,,,,,,,,,,,,,,i,1,0.7645,,,,,,虚伪,i,,,0,24,24,31,1,,,,,,,,,,,,,,,,,,,,,,,,,,,,,,,,,,
,,,,,,,,,,,,,1,001,2025-01-02_21h02.29.648,IAT(Formal),2021.2.3,Win32,59.88023952,,,,,,,,,,,,,,,,e,1,0.7398,,,,,,朴实,e,,,0,25,25,24,1,,,,,,,,,,,,,,,,,,,,,,,,,,,,,,,,,,
,,,,,,,,,,,,,1,001,2025-01-02_21h02.29.648,IAT(Formal),2021.2.3,Win32,59.88023952,,,,,,,,,,,,,,,,i,1,0.7331,,,,,,野蛮,i,,,0,26,26,46,1,,,,,,,,,,,,,,,,,,,,,,,,,,,,,,,,,,
,,,,,,,,,,,,,1,001,2025-01-02_21h02.29.648,IAT(Formal),2021.2.3,Win32,59.88023952,,,,,,,,,,,,,,,,e,1,0.7952,,,,,,我的,e,,,0,27,27,51,1,,,,,,,,,,,,,,,,,,,,,,,,,,,,,,,,,,
,,,,,,,,,,,,,1,001,2025-01-02_21h02.29.648,IAT(Formal),2021.2.3,Win32,59.88023952,,,,,,,,,,,,,,,,i,1,0.8299,,,,,,他人,i,,,0,28,28,78,1,,,,,,,,,,,,,,,,,,,,,,,,,,,,,,,,,,
,,,,,,,,,,,,,1,001,2025-01-02_21h02.29.648,IAT(Formal),2021.2.3,Win32,59.88023952,,,,,,,,,,,,,,,,i,1,0.8335,,,,,,他人,i,,,0,29,29,68,1,,,,,,,,,,,,,,,,,,,,,,,,,,,,,,,,,,
,,,,,,,,,,,,,1,001,2025-01-02_21h02.29.648,IAT(Formal),2021.2.3,Win32,59.88023952,,,,,,,,,,,,,,,,i,1,0.7289,,,,,,冒失,i,,,0,30,30,39,1,,,,,,,,,,,,,,,,,,,,,,,,,,,,,,,,,,
,,,,,,,,,,,,,1,001,2025-01-02_21h02.29.648,IAT(Formal),2021.2.3,Win32,59.88023952,,,,,,,,,,,,,,,,e,1,0.6311,,,,,,我们,e,,,0,31,31,2,1,,,,,,,,,,,,,,,,,,,,,,,,,,,,,,,,,,
,,,,,,,,,,,,,1,001,2025-01-02_21h02.29.648,IAT(Formal),2021.2.3,Win32,59.88023952,,,,,,,,,,,,,,,,e,1,0.7985,,,,,,我的,e,,,0,32,32,1,1,,,,,,,,,,,,,,,,,,,,,,,,,,,,,,,,,,
,,,,,,,,,,,,,1,001,2025-01-02_21h02.29.648,IAT(Formal),2021.2.3,Win32,59.88023952,,,,,,,,,,,,,,,,i,1,0.7337,,,,,,其他,i,,,0,33,33,79,1,,,,,,,,,,,,,,,,,,,,,,,,,,,,,,,,,,
,,,,,,,,,,,,,1,001,2025-01-02_21h02.29.648,IAT(Formal),2021.2.3,Win32,59.88023952,,,,,,,,,,,,,,,,i,1,0.7674,,,,,,其他,i,,,0,34,34,59,1,,,,,,,,,,,,,,,,,,,,,,,,,,,,,,,,,,
,,,,,,,,,,,,,1,001,2025-01-02_21h02.29.648,IAT(Formal),2021.2.3,Win32,59.88023952,,,,,,,,,,,,,,,,i,1,0.8745,,,,,,他,i,,,0,35,35,5,1,,,,,,,,,,,,,,,,,,,,,,,,,,,,,,,,,,
,,,,,,,,,,,,,1,001,2025-01-02_21h02.29.648,IAT(Formal),2021.2.3,Win32,59.88023952,,,,,,,,,,,,,,,,i,1,0.7289,,,,,,他人,i,,,0,36,36,8,1,,,,,,,,,,,,,,,,,,,,,,,,,,,,,,,,,,
,,,,,,,,,,,,,1,001,2025-01-02_21h02.29.648,IAT(Formal),2021.2.3,Win32,59.88023952,,,,,,,,,,,,,,,,i,1,0.6936,,,,,,卑鄙,i,,,0,37,37,30,1,,,,,,,,,,,,,,,,,,,,,,,,,,,,,,,,,,
,,,,,,,,,,,,,1,001,2025-01-02_21h02.29.648,IAT(Formal),2021.2.3,Win32,59.88023952,,,,,,,,,,,,,,,,e,1,0.7399,,,,,,机智,e,,,0,38,38,19,1,,,,,,,,,,,,,,,,,,,,,,,,,,,,,,,,,,
,,,,,,,,,,,,,1,001,2025-01-02_21h02.29.648,IAT(Formal),2021.2.3,Win32,59.88023952,,,,,,,,,,,,,,,,i,1,0.6679,,,,,,散漫,i,,,0,39,39,41,1,,,,,,,,,,,,,,,,,,,,,,,,,,,,,,,,,,
,,,,,,,,,,,,,1,001,2025-01-02_21h02.29.648,IAT(Formal),2021.2.3,Win32,59.88023952,,,,,,,,,,,,,,,,i,1,0.604,,,,,,下贱,i,,,0,40,40,49,1,,,,,,,,,,,,,,,,,,,,,,,,,,,,,,,,,,
,,,,,,,,,,,,,1,001,2025-01-02_21h02.29.648,IAT(Formal),2021.2.3,Win32,59.88023952,,,,,,,,,,,,,,,,e,1,0.6661,,,,,,我们,e,,,0,41,41,72,1,,,,,,,,,,,,,,,,,,,,,,,,,,,,,,,,,,
,,,,,,,,,,,,,1,001,2025-01-02_21h02.29.648,IAT(Formal),2021.2.3,Win32,59.88023952,,,,,,,,,,,,,,,,e,1,0.5384,,,,,,自己,e,,,0,42,42,63,1,,,,,,,,,,,,,,,,,,,,,,,,,,,,,,,,,,
,,,,,,,,,,,,,1,001,2025-01-02_21h02.29.648,IAT(Formal),2021.2.3,Win32,59.88023952,,,,,,,,,,,,,,,,e,1,0.6658,,,,,,正直,e,,,0,43,43,16,1,,,,,,,,,,,,,,,,,,,,,,,,,,,,,,,,,,
,,,,,,,,,,,,,1,001,2025-01-02_21h02.29.648,IAT(Formal),2021.2.3,Win32,59.88023952,,,,,,,,,,,,,,,,i,1,0.664,,,,,,其他,i,,,0,44,44,69,1,,,,,,,,,,,,,,,,,,,,,,,,,,,,,,,,,,
,,,,,,,,,,,,,1,001,2025-01-02_21h02.29.648,IAT(Formal),2021.2.3,Win32,59.88023952,,,,,,,,,,,,,,,,i,1,0.7672,,,,,,暴躁,i,,,0,45,45,44,1,,,,,,,,,,,,,,,,,,,,,,,,,,,,,,,,,,
,,,,,,,,,,,,,1,001,2025-01-02_21h02.29.648,IAT(Formal),2021.2.3,Win32,59.88023952,,,,,,,,,,,,,,,,e,1,0.6657,,,,,,勇敢,e,,,0,46,46,17,1,,,,,,,,,,,,,,,,,,,,,,,,,,,,,,,,,,
,,,,,,,,,,,,,1,001,2025-01-02_21h02.29.648,IAT(Formal),2021.2.3,Win32,59.88023952,,,,,,,,,,,,,,,,e,1,0.697,,,,,,我的,e,,,0,47,47,71,1,,,,,,,,,,,,,,,,,,,,,,,,,,,,,,,,,,
,,,,,,,,,,,,,1,001,2025-01-02_21h02.29.648,IAT(Formal),2021.2.3,Win32,59.88023952,,,,,,,,,,,,,,,,e,1,0.6312,,,,,,聪明,e,,,0,48,48,12,1,,,,,,,,,,,,,,,,,,,,,,,,,,,,,,,,,,
,,,,,,,,,,,,,1,001,2025-01-02_21h02.29.648,IAT(Formal),2021.2.3,Win32,59.88023952,,,,,,,,,,,,,,,,e,1,0.7043,,,,,,活泼,e,,,0,49,49,28,1,,,,,,,,,,,,,,,,,,,,,,,,,,,,,,,,,,
,,,,,,,,,,,,,1,001,2025-01-02_21h02.29.648,IAT(Formal),2021.2.3,Win32,59.88023952,,,,,,,,,,,,,,,,e,1,0.6338,,,,,,自己,e,,,0,50,50,3,1,,,,,,,,,,,,,,,,,,,,,,,,,,,,,,,,,,
,,,,,,,,,,,,,1,001,2025-01-02_21h02.29.648,IAT(Formal),2021.2.3,Win32,59.88023952,,,,,,,,,,,,,,,,e,1,0.6664,,,,,,稳重,e,,,0,51,51,21,1,,,,,,,,,,,,,,,,,,,,,,,,,,,,,,,,,,
,,,,,,,,,,,,,1,001,2025-01-02_21h02.29.648,IAT(Formal),2021.2.3,Win32,59.88023952,,,,,,,,,,,,,,,,e,1,0.5682,,,,,,自己,e,,,0,52,52,53,1,,,,,,,,,,,,,,,,,,,,,,,,,,,,,,,,,,
,,,,,,,,,,,,,1,001,2025-01-02_21h02.29.648,IAT(Formal),2021.2.3,Win32,59.88023952,,,,,,,,,,,,,,,,i,1,0.666,,,,,,傲慢,i,,,0,53,53,37,1,,,,,,,,,,,,,,,,,,,,,,,,,,,,,,,,,,
,,,,,,,,,,,,,1,001,2025-01-02_21h02.29.648,IAT(Formal),2021.2.3,Win32,59.88023952,,,,,,,,,,,,,,,,e,1,0.6983,,,,,,勤奋,e,,,0,54,54,18,1,,,,,,,,,,,,,,,,,,,,,,,,,,,,,,,,,,
,,,,,,,,,,,,,1,001,2025-01-02_21h02.29.648,IAT(Formal),2021.2.3,Win32,59.88023952,,,,,,,,,,,,,,,,e,1,0.7953,,,,,,俺,e,,,0,55,55,4,1,,,,,,,,,,,,,,,,,,,,,,,,,,,,,,,,,,
,,,,,,,,,,,,,1,001,2025-01-02_21h02.29.648,IAT(Formal),2021.2.3,Win32,59.88023952,,,,,,,,,,,,,,,,i,1,0.8725,,,,,,他,i,,,0,56,56,65,1,,,,,,,,,,,,,,,,,,,,,,,,,,,,,,,,,,
,,,,,,,,,,,,,1,001,2025-01-02_21h02.29.648,IAT(Formal),2021.2.3,Win32,59.88023952,,,,,,,,,,,,,,,,e,1,0.9017,,,,,,俺,e,,,0,57,57,64,1,,,,,,,,,,,,,,,,,,,,,,,,,,,,,,,,,,
,,,,,,,,,,,,,1,001,2025-01-02_21h02.29.648,IAT(Formal),2021.2.3,Win32,59.88023952,,,,,,,,,,,,,,,,e,1,0.6368,,,,,,我,e,,,0,58,58,0,1,,,,,,,,,,,,,,,,,,,,,,,,,,,,,,,,,,
,,,,,,,,,,,,,1,001,2025-01-02_21h02.29.648,IAT(Formal),2021.2.3,Win32,59.88023952,,,,,,,,,,,,,,,,e,1,0.6033,,,,,,我们,e,,,0,59,59,52,1,,,,,,,,,,,,,,,,,,,,,,,,,,,,,,,,,,
,,,,,,,,,,,,,1,001,2025-01-02_21h02.29.648,IAT(Formal),2021.2.3,Win32,59.88023952,,,,,,,,,,,,,,,,e,1,0.6624,,,,,,诚恳,e,,,0,60,60,29,1,,,,,,,,,,,,,,,,,,,,,,,,,,,,,,,,,,
,,,,,,,,,,,,,1,001,2025-01-02_21h02.29.648,IAT(Formal),2021.2.3,Win32,59.88023952,,,,,,,,,,,,,,,,e,1,0.6322,,,,,,俺,e,,,0,61,61,74,1,,,,,,,,,,,,,,,,,,,,,,,,,,,,,,,,,,
,,,,,,,,,,,,,1,001,2025-01-02_21h02.29.648,IAT(Formal),2021.2.3,Win32,59.88023952,,,,,,,,,,,,,,,,e,1,0.5953,,,,,,我们,e,,,0,62,62,62,1,,,,,,,,,,,,,,,,,,,,,,,,,,,,,,,,,,
,,,,,,,,,,,,,1,001,2025-01-02_21h02.29.648,IAT(Formal),2021.2.3,Win32,59.88023952,,,,,,,,,,,,,,,,i,1,0.6627,,,,,,他人,i,,,0,63,63,58,1,,,,,,,,,,,,,,,,,,,,,,,,,,,,,,,,,,
,,,,,,,,,,,,,1,001,2025-01-02_21h02.29.648,IAT(Formal),2021.2.3,Win32,59.88023952,,,,,,,,,,,,,,,,i,1,0.8692,,,,,,执拗,i,,,0,64,64,40,1,,,,,,,,,,,,,,,,,,,,,,,,,,,,,,,,,,
,,,,,,,,,,,,,1,001,2025-01-02_21h02.29.648,IAT(Formal),2021.2.3,Win32,59.88023952,,,,,,,,,,,,,,,,e,1,0.898,,,,,,俺,e,,,0,65,65,54,1,,,,,,,,,,,,,,,,,,,,,,,,,,,,,,,,,,
,,,,,,,,,,,,,1,001,2025-01-02_21h02.29.648,IAT(Formal),2021.2.3,Win32,59.88023952,,,,,,,,,,,,,,,,i,1,1.3649,,,,,,他们,i,,,0,66,66,66,1,,,,,,,,,,,,,,,,,,,,,,,,,,,,,,,,,,
,,,,,,,,,,,,,1,001,2025-01-02_21h02.29.648,IAT(Formal),2021.2.3,Win32,59.88023952,,,,,,,,,,,,,,,,i,1,0.6971,,,,,,他,i,,,0,67,67,75,1,,,,,,,,,,,,,,,,,,,,,,,,,,,,,,,,,,
,,,,,,,,,,,,,1,001,2025-01-02_21h02.29.648,IAT(Formal),2021.2.3,Win32,59.88023952,,,,,,,,,,,,,,,,i,1,0.798,,,,,,消极,i,,,0,68,68,35,1,,,,,,,,,,,,,,,,,,,,,,,,,,,,,,,,,,
,,,,,,,,,,,,,1,001,2025-01-02_21h02.29.648,IAT(Formal),2021.2.3,Win32,59.88023952,,,,,,,,,,,,,,,,i,1,0.6948,,,,,,刻薄,i,,,0,69,69,33,1,,,,,,,,,,,,,,,,,,,,,,,,,,,,,,,,,,
,,,,,,,,,,,,,1,001,2025-01-02_21h02.29.648,IAT(Formal),2021.2.3,Win32,59.88023952,,,,,,,,,,,,,,,,e,1,0.7638,,,,,,细腻,e,,,0,70,70,25,1,,,,,,,,,,,,,,,,,,,,,,,,,,,,,,,,,,
,,,,,,,,,,,,,1,001,2025-01-02_21h02.29.648,IAT(Formal),2021.2.3,Win32,59.88023952,,,,,,,,,,,,,,,,i,1,0.8687,,,,,,他,i,,,0,71,71,55,1,,,,,,,,,,,,,,,,,,,,,,,,,,,,,,,,,,
,,,,,,,,,,,,,1,001,2025-01-02_21h02.29.648,IAT(Formal),2021.2.3,Win32,59.88023952,,,,,,,,,,,,,,,,i,1,0.7267,,,,,,猖狂,i,,,0,72,72,45,1,,,,,,,,,,,,,,,,,,,,,,,,,,,,,,,,,,
,,,,,,,,,,,,,1,001,2025-01-02_21h02.29.648,IAT(Formal),2021.2.3,Win32,59.88023952,,,,,,,,,,,,,,,,e,1,0.6976,,,,,,诚实,e,,,0,73,73,15,1,,,,,,,,,,,,,,,,,,,,,,,,,,,,,,,,,,
,,,,,,,,,,,,,1,001,2025-01-02_21h02.29.648,IAT(Formal),2021.2.3,Win32,59.88023952,,,,,,,,,,,,,,,,e,1,0.5999,,,,,,乐观,e,,,0,74,74,14,1,,,,,,,,,,,,,,,,,,,,,,,,,,,,,,,,,,
,,,,,,,,,,,,,1,001,2025-01-02_21h02.29.648,IAT(Formal),2021.2.3,Win32,59.88023952,,,,,,,,,,,,,,,,e,1,0.5977,,,,,,冷静,e,,,0,75,75,26,1,,,,,,,,,,,,,,,,,,,,,,,,,,,,,,,,,,
,,,,,,,,,,,,,1,001,2025-01-02_21h02.29.648,IAT(Formal),2021.2.3,Win32,59.88023952,,,,,,,,,,,,,,,,i,1,0.8003,,,,,,悲观,i,,,0,76,76,34,1,,,,,,,,,,,,,,,,,,,,,,,,,,,,,,,,,,
,,,,,,,,,,,,,1,001,2025-01-02_21h02.29.648,IAT(Formal),2021.2.3,Win32,59.88023952,,,,,,,,,,,,,,,,i,1,0.9027,,,,,,轻率,i,,,0,77,77,48,1,,,,,,,,,,,,,,,,,,,,,,,,,,,,,,,,,,
,,,,,,,,,,,,,1,001,2025-01-02_21h02.29.648,IAT(Formal),2021.2.3,Win32,59.88023952,,,,,,,,,,,,,,,,i,1,0.7955,,,,,,自卑,i,,,0,78,78,36,1,,,,,,,,,,,,,,,,,,,,,,,,,,,,,,,,,,
,,,,,,,,,,,,,1,001,2025-01-02_21h02.29.648,IAT(Formal),2021.2.3,Win32,59.88023952,,,,,,,,,,,,,,,,e,1,0.7657,,,,,,自己,e,,,0,79,79,73,1,,,,,,,,,,,,,,,,,,,,,,,,,,,,,,,,,,
,,,,,,,,,,,,,1,001,2025-01-02_21h02.29.648,IAT(Formal),2021.2.3,Win32,59.88023952,,,,,,,,,,,,,,,,i,1,0.668,,,,,,下贱,i,,,1,0,80,49,1,,,,,,,,,,,,,,,,,,,,,,,,,,,,,,,,,,
,,,,,,,,,,,,,1,001,2025-01-02_21h02.29.648,IAT(Formal),2021.2.3,Win32,59.88023952,,,,,,,,,,,,,,,,i,0,0.9988,,,,,,俺,e,,,1,1,81,54,1,,,,,,,,,,,,,,,,,,,,,,,,,,,,,,,,,,
,,,,,,,,,,,,,1,001,2025-01-02_21h02.29.648,IAT(Formal),2021.2.3,Win32,59.88023952,,,,,,,,,,,,,,,,i,1,0.7645,,,,,,他的,i,,,1,2,82,77,1,,,,,,,,,,,,,,,,,,,,,,,,,,,,,,,,,,
,,,,,,,,,,,,,1,001,2025-01-02_21h02.29.648,IAT(Formal),2021.2.3,Win32,59.88023952,,,,,,,,,,,,,,,,e,1,0.7396,,,,,,自己,e,,,1,3,83,63,1,,,,,,,,,,,,,,,,,,,,,,,,,,,,,,,,,,
,,,,,,,,,,,,,1,001,2025-01-02_21h02.29.648,IAT(Formal),2021.2.3,Win32,59.88023952,,,,,,,,,,,,,,,,i,1,0.9988,,,,,,他的,i,,,1,4,84,67,1,,,,,,,,,,,,,,,,,,,,,,,,,,,,,,,,,,
,,,,,,,,,,,,,1,001,2025-01-02_21h02.29.648,IAT(Formal),2021.2.3,Win32,59.88023952,,,,,,,,,,,,,,,,i,1,0.7351,,,,,,猖狂,i,,,1,5,85,45,1,,,,,,,,,,,,,,,,,,,,,,,,,,,,,,,,,,
,,,,,,,,,,,,,1,001,2025-01-02_21h02.29.648,IAT(Formal),2021.2.3,Win32,59.88023952,,,,,,,,,,,,,,,,e,1,0.77,,,,,,我们,e,,,1,6,86,52,1,,,,,,,,,,,,,,,,,,,,,,,,,,,,,,,,,,
,,,,,,,,,,,,,1,001,2025-01-02_21h02.29.648,IAT(Formal),2021.2.3,Win32,59.88023952,,,,,,,,,,,,,,,,e,1,0.564,,,,,,我,e,,,1,7,87,50,1,,,,,,,,,,,,,,,,,,,,,,,,,,,,,,,,,,
,,,,,,,,,,,,,1,001,2025-01-02_21h02.29.648,IAT(Formal),2021.2.3,Win32,59.88023952,,,,,,,,,,,,,,,,e,1,0.7332,,,,,,勤奋,e,,,1,8,88,18,1,,,,,,,,,,,,,,,,,,,,,,,,,,,,,,,,,,
,,,,,,,,,,,,,1,001,2025-01-02_21h02.29.648,IAT(Formal),2021.2.3,Win32,59.88023952,,,,,,,,,,,,,,,,e,1,0.6676,,,,,,优秀,e,,,1,9,89,10,1,,,,,,,,,,,,,,,,,,,,,,,,,,,,,,,,,,
,,,,,,,,,,,,,1,001,2025-01-02_21h02.29.648,IAT(Formal),2021.2.3,Win32,59.88023952,,,,,,,,,,,,,,,,e,1,0.8991,,,,,,我,e,,,1,10,90,60,1,,,,,,,,,,,,,,,,,,,,,,,,,,,,,,,,,,
,,,,,,,,,,,,,1,001,2025-01-02_21h02.29.648,IAT(Formal),2021.2.3,Win32,59.88023952,,,,,,,,,,,,,,,,e,1,0.7061,,,,,,无私,e,,,1,11,91,22,1,,,,,,,,,,,,,,,,,,,,,,,,,,,,,,,,,,
,,,,,,,,,,,,,1,001,2025-01-02_21h02.29.648,IAT(Formal),2021.2.3,Win32,59.88023952,,,,,,,,,,,,,,,,e,1,0.5364,,,,,,我的,e,,,1,12,92,1,1,,,,,,,,,,,,,,,,,,,,,,,,,,,,,,,,,,
,,,,,,,,,,,,,1,001,2025-01-02_21h02.29.648,IAT(Formal),2021.2.3,Win32,59.88023952,,,,,,,,,,,,,,,,i,1,0.7971,,,,,,凶狠,i,,,1,13,93,42,1,,,,,,,,,,,,,,,,,,,,,,,,,,,,,,,,,,
,,,,,,,,,,,,,1,001,2025-01-02_21h02.29.648,IAT(Formal),2021.2.3,Win32,59.88023952,,,,,,,,,,,,,,,,i,1,0.7302,,,,,,散漫,i,,,1,14,94,41,1,,,,,,,,,,,,,,,,,,,,,,,,,,,,,,,,,,
,,,,,,,,,,,,,1,001,2025-01-02_21h02.29.648,IAT(Formal),2021.2.3,Win32,59.88023952,,,,,,,,,,,,,,,,e,1,0.7627,,,,,,勇敢,e,,,1,15,95,17,1,,,,,,,,,,,,,,,,,,,,,,,,,,,,,,,,,,
,,,,,,,,,,,,,1,001,2025-01-02_21h02.29.648,IAT(Formal),2021.2.3,Win32,59.88023952,,,,,,,,,,,,,,,,e,1,0.7299,,,,,,稳重,e,,,1,16,96,21,1,,,,,,,,,,,,,,,,,,,,,,,,,,,,,,,,,,
,,,,,,,,,,,,,1,001,2025-01-02_21h02.29.648,IAT(Formal),2021.2.3,Win32,59.88023952,,,,,,,,,,,,,,,,e,1,0.5957,,,,,,聪明,e,,,1,17,97,12,1,,,,,,,,,,,,,,,,,,,,,,,,,,,,,,,,,,
,,,,,,,,,,,,,1,001,2025-01-02_21h02.29.648,IAT(Formal),2021.2.3,Win32,59.88023952,,,,,,,,,,,,,,,,e,1,0.6314,,,,,,我的,e,,,1,18,98,51,1,,,,,,,,,,,,,,,,,,,,,,,,,,,,,,,,,,
,,,,,,,,,,,,,1,001,2025-01-02_21h02.29.648,IAT(Formal),2021.2.3,Win32,59.88023952,,,,,,,,,,,,,,,,i,1,0.7293,,,,,,他人,i,,,1,19,99,58,1,,,,,,,,,,,,,,,,,,,,,,,,,,,,,,,,,,
,,,,,,,,,,,,,1,001,2025-01-02_21h02.29.648,IAT(Formal),2021.2.3,Win32,59.88023952,,,,,,,,,,,,,,,,i,1,1.1963,,,,,,他们,i,,,1,20,100,6,1,,,,,,,,,,,,,,,,,,,,,,,,,,,,,,,,,,
,,,,,,,,,,,,,1,001,2025-01-02_21h02.29.648,IAT(Formal),2021.2.3,Win32,59.88023952,,,,,,,,,,,,,,,,i,1,0.6705,,,,,,其他,i,,,1,21,101,69,1,,,,,,,,,,,,,,,,,,,,,,,,,,,,,,,,,,
,,,,,,,,,,,,,1,001,2025-01-02_21h02.29.648,IAT(Formal),2021.2.3,Win32,59.88023952,,,,,,,,,,,,,,,,i,1,0.6945,,,,,,轻率,i,,,1,22,102,48,1,,,,,,,,,,,,,,,,,,,,,,,,,,,,,,,,,,
,,,,,,,,,,,,,1,001,2025-01-02_21h02.29.648,IAT(Formal),2021.2.3,Win32,59.88023952,,,,,,,,,,,,,,,,e,1,0.8981,,,,,,乐观,e,,,1,23,103,14,1,,,,,,,,,,,,,,,,,,,,,,,,,,,,,,,,,,
,,,,,,,,,,,,,1,001,2025-01-02_21h02.29.648,IAT(Formal),2021.2.3,Win32,59.88023952,,,,,,,,,,,,,,,,i,1,0.8386,,,,,,他们,i,,,1,24,104,56,1,,,,,,,,,,,,,,,,,,,,,,,,,,,,,,,,,,
,,,,,,,,,,,,,1,001,2025-01-02_21h02.29.648,IAT(Formal),2021.2.3,Win32,59.88023952,,,,,,,,,,,,,,,,i,1,1.0278,,,,,,他,i,,,1,25,105,65,1,,,,,,,,,,,,,,,,,,,,,,,,,,,,,,,,,,
,,,,,,,,,,,,,1,001,2025-01-02_21h02.29.648,IAT(Formal),2021.2.3,Win32,59.88023952,,,,,,,,,,,,,,,,i,1,0.9397,,,,,,消极,i,,,1,26,106,35,1,,,,,,,,,,,,,,,,,,,,,,,,,,,,,,,,,,
,,,,,,,,,,,,,1,001,2025-01-02_21h02.29.648,IAT(Formal),2021.2.3,Win32,59.88023952,,,,,,,,,,,,,,,,i,1,0.6622,,,,,,固执,i,,,1,27,107,47,1,,,,,,,,,,,,,,,,,,,,,,,,,,,,,,,,,,
,,,,,,,,,,,,,1,001,2025-01-02_21h02.29.648,IAT(Formal),2021.2.3,Win32,59.88023952,,,,,,,,,,,,,,,,e,1,1.4332,,,,,,俺,e,,,1,28,108,74,1,,,,,,,,,,,,,,,,,,,,,,,,,,,,,,,,,,
,,,,,,,,,,,,,1,001,2025-01-02_21h02.29.648,IAT(Formal),2021.2.3,Win32,59.88023952,,,,,,,,,,,,,,,,i,1,0.7348,,,,,,他们,i,,,1,29,109,76,1,,,,,,,,,,,,,,,,,,,,,,,,,,,,,,,,,,
,,,,,,,,,,,,,1,001,2025-01-02_21h02.29.648,IAT(Formal),2021.2.3,Win32,59.88023952,,,,,,,,,,,,,,,,e,1,0.761,,,,,,我们,e,,,1,30,110,2,1,,,,,,,,,,,,,,,,,,,,,,,,,,,,,,,,,,
,,,,,,,,,,,,,1,001,2025-01-02_21h02.29.648,IAT(Formal),2021.2.3,Win32,59.88023952,,,,,,,,,,,,,,,,e,1,0.5738,,,,,,我的,e,,,1,31,111,71,1,,,,,,,,,,,,,,,,,,,,,,,,,,,,,,,,,,
,,,,,,,,,,,,,1,001,2025-01-02_21h02.29.648,IAT(Formal),2021.2.3,Win32,59.88023952,,,,,,,,,,,,,,,,i,1,0.7059,,,,,,卑鄙,i,,,1,32,112,30,1,,,,,,,,,,,,,,,,,,,,,,,,,,,,,,,,,,
,,,,,,,,,,,,,1,001,2025-01-02_21h02.29.648,IAT(Formal),2021.2.3,Win32,59.88023952,,,,,,,,,,,,,,,,i,1,0.7681,,,,,,其他,i,,,1,33,113,79,1,,,,,,,,,,,,,,,,,,,,,,,,,,,,,,,,,,
,,,,,,,,,,,,,1,001,2025-01-02_21h02.29.648,IAT(Formal),2021.2.3,Win32,59.88023952,,,,,,,,,,,,,,,,i,1,0.9315,,,,,,他们,i,,,1,34,114,66,1,,,,,,,,,,,,,,,,,,,,,,,,,,,,,,,,,,
,,,,,,,,,,,,,1,001,2025-01-02_21h02.29.648,IAT(Formal),2021.2.3,Win32,59.88023952,,,,,,,,,,,,,,,,e,1,0.766,,,,,,崇高,e,,,1,35,115,11,1,,,,,,,,,,,,,,,,,,,,,,,,,,,,,,,,,,
,,,,,,,,,,,,,1,001,2025-01-02_21h02.29.648,IAT(Formal),2021.2.3,Win32,59.88023952,,,,,,,,,,,,,,,,e,1,0.7681,,,,,,朴实,e,,,1,36,116,24,1,,,,,,,,,,,,,,,,,,,,,,,,,,,,,,,,,,
,,,,,,,,,,,,,1,001,2025-01-02_21h02.29.648,IAT(Formal),2021.2.3,Win32,59.88023952,,,,,,,,,,,,,,,,i,1,0.8024,,,,,,他人,i,,,1,37,117,68,1,,,,,,,,,,,,,,,,,,,,,,,,,,,,,,,,,,
,,,,,,,,,,,,,1,001,2025-01-02_21h02.29.648,IAT(Formal),2021.2.3,Win32,59.88023952,,,,,,,,,,,,,,,,e,1,0.7627,,,,,,俺,e,,,1,38,118,64,1,,,,,,,,,,,,,,,,,,,,,,,,,,,,,,,,,,
,,,,,,,,,,,,,1,001,2025-01-02_21h02.29.648,IAT(Formal),2021.2.3,Win32,59.88023952,,,,,,,,,,,,,,,,e,1,0.6316,,,,,,机智,e,,,1,39,119,19,1,,,,,,,,,,,,,,,,,,,,,,,,,,,,,,,,,,
,,,,,,,,,,,,,1,001,2025-01-02_21h02.29.648,IAT(Formal),2021.2.3,Win32,59.88023952,,,,,,,,,,,,,,,,i,1,0.6663,,,,,,其他,i,,,1,40,120,9,1,,,,,,,,,,,,,,,,,,,,,,,,,,,,,,,,,,
,,,,,,,,,,,,,1,001,2025-01-02_21h02.29.648,IAT(Formal),2021.2.3,Win32,59.88023952,,,,,,,,,,,,,,,,e,1,0.7329,,,,,,我们,e,,,1,41,121,72,1,,,,,,,,,,,,,,,,,,,,,,,,,,,,,,,,,,
,,,,,,,,,,,,,1,001,2025-01-02_21h02.29.648,IAT(Formal),2021.2.3,Win32,59.88023952,,,,,,,,,,,,,,,,i,1,0.7013,,,,,,他,i,,,1,42,122,75,1,,,,,,,,,,,,,,,,,,,,,,,,,,,,,,,,,,
,,,,,,,,,,,,,1,001,2025-01-02_21h02.29.648,IAT(Formal),2021.2.3,Win32,59.88023952,,,,,,,,,,,,,,,,i,1,0.9728,,,,,,自卑,i,,,1,43,123,36,1,,,,,,,,,,,,,,,,,,,,,,,,,,,,,,,,,,
,,,,,,,,,,,,,1,001,2025-01-02_21h02.29.648,IAT(Formal),2021.2.3,Win32,59.88023952,,,,,,,,,,,,,,,,e,1,0.7669,,,,,,活泼,e,,,1,44,124,28,1,,,,,,,,,,,,,,,,,,,,,,,,,,,,,,,,,,
,,,,,,,,,,,,,1,001,2025-01-02_21h02.29.648,IAT(Formal),2021.2.3,Win32,59.88023952,,,,,,,,,,,,,,,,e,1,0.8643,,,,,,我们,e,,,1,45,125,62,1,,,,,,,,,,,,,,,,,,,,,,,,,,,,,,,,,,
,,,,,,,,,,,,,1,001,2025-01-02_21h02.29.648,IAT(Formal),2021.2.3,Win32,59.88023952,,,,,,,,,,,,,,,,i,1,0.6648,,,,,,冒失,i,,,1,46,126,39,1,,,,,,,,,,,,,,,,,,,,,,,,,,,,,,,,,,
,,,,,,,,,,,,,1,001,2025-01-02_21h02.29.648,IAT(Formal),2021.2.3,Win32,59.88023952,,,,,,,,,,,,,,,,i,1,0.9721,,,,,,悲观,i,,,1,47,127,34,1,,,,,,,,,,,,,,,,,,,,,,,,,,,,,,,,,,
,,,,,,,,,,,,,1,001,2025-01-02_21h02.29.648,IAT(Formal),2021.2.3,Win32,59.88023952,,,,,,,,,,,,,,,,i,1,0.7301,,,,,,他人,i,,,1,48,128,78,1,,,,,,,,,,,,,,,,,,,,,,,,,,,,,,,,,,
,,,,,,,,,,,,,1,001,2025-01-02_21h02.29.648,IAT(Formal),2021.2.3,Win32,59.88023952,,,,,,,,,,,,,,,,e,1,0.8373,,,,,,自己,e,,,1,49,129,73,1,,,,,,,,,,,,,,,,,,,,,,,,,,,,,,,,,,
,,,,,,,,,,,,,1,001,2025-01-02_21h02.29.648,IAT(Formal),2021.2.3,Win32,59.88023952,,,,,,,,,,,,,,,,i,1,1.1343,,,,,,他,i,,,1,50,130,55,1,,,,,,,,,,,,,,,,,,,,,,,,,,,,,,,,,,
,,,,,,,,,,,,,1,001,2025-01-02_21h02.29.648,IAT(Formal),2021.2.3,Win32,59.88023952,,,,,,,,,,,,,,,,i,1,0.7648,,,,,,暴躁,i,,,1,51,131,44,1,,,,,,,,,,,,,,,,,,,,,,,,,,,,,,,,,,
,,,,,,,,,,,,,1,001,2025-01-02_21h02.29.648,IAT(Formal),2021.2.3,Win32,59.88023952,,,,,,,,,,,,,,,,e,1,0.8,,,,,,认真,e,,,1,52,132,20,1,,,,,,,,,,,,,,,,,,,,,,,,,,,,,,,,,,
,,,,,,,,,,,,,1,001,2025-01-02_21h02.29.648,IAT(Formal),2021.2.3,Win32,59.88023952,,,,,,,,,,,,,,,,i,1,0.7679,,,,,,刻薄,i,,,1,53,133,33,1,,,,,,,,,,,,,,,,,,,,,,,,,,,,,,,,,,
,,,,,,,,,,,,,1,001,2025-01-02_21h02.29.648,IAT(Formal),2021.2.3,Win32,59.88023952,,,,,,,,,,,,,,,,e,1,0.8853,,,,,,我,e,,,1,54,134,70,1,,,,,,,,,,,,,,,,,,,,,,,,,,,,,,,,,,
,,,,,,,,,,,,,1,001,2025-01-02_21h02.29.648,IAT(Formal),2021.2.3,Win32,59.88023952,,,,,,,,,,,,,,,,i,1,0.8502,,,,,,傲慢,i,,,1,55,135,37,1,,,,,,,,,,,,,,,,,,,,,,,,,,,,,,,,,,
,,,,,,,,,,,,,1,001,2025-01-02_21h02.29.648,IAT(Formal),2021.2.3,Win32,59.88023952,,,,,,,,,,,,,,,,e,1,0.9103,,,,,,细腻,e,,,1,56,136,25,1,,,,,,,,,,,,,,,,,,,,,,,,,,,,,,,,,,
,,,,,,,,,,,,,1,001,2025-01-02_21h02.29.648,IAT(Formal),2021.2.3,Win32,59.88023952,,,,,,,,,,,,,,,,i,1,0.7007,,,,,,愚蠢,i,,,1,57,137,32,1,,,,,,,,,,,,,,,,,,,,,,,,,,,,,,,,,,
,,,,,,,,,,,,,1,001,2025-01-02_21h02.29.648,IAT(Formal),2021.2.3,Win32,59.88023952,,,,,,,,,,,,,,,,e,1,0.8956,,,,,,正直,e,,,1,58,138,16,1,,,,,,,,,,,,,,,,,,,,,,,,,,,,,,,,,,
,,,,,,,,,,,,,1,001,2025-01-02_21h02.29.648,IAT(Formal),2021.2.3,Win32,59.88023952,,,,,,,,,,,,,,,,e,1,0.699,,,,,,热情,e,,,1,59,139,27,1,,,,,,,,,,,,,,,,,,,,,,,,,,,,,,,,,,
,,,,,,,,,,,,,1,001,2025-01-02_21h02.29.648,IAT(Formal),2021.2.3,Win32,59.88023952,,,,,,,,,,,,,,,,i,1,0.7973,,,,,,执拗,i,,,1,60,140,40,1,,,,,,,,,,,,,,,,,,,,,,,,,,,,,,,,,,
,,,,,,,,,,,,,1,001,2025-01-02_21h02.29.648,IAT(Formal),2021.2.3,Win32,59.88023952,,,,,,,,,,,,,,,,e,1,0.6987,,,,,,我的,e,,,1,61,141,61,1,,,,,,,,,,,,,,,,,,,,,,,,,,,,,,,,,,
,,,,,,,,,,,,,1,001,2025-01-02_21h02.29.648,IAT(Formal),2021.2.3,Win32,59.88023952,,,,,,,,,,,,,,,,e,1,0.7135,,,,,,冷静,e,,,1,62,142,26,1,,,,,,,,,,,,,,,,,,,,,,,,,,,,,,,,,,
,,,,,,,,,,,,,1,001,2025-01-02_21h02.29.648,IAT(Formal),2021.2.3,Win32,59.88023952,,,,,,,,,,,,,,,,e,1,0.6327,,,,,,杰出,e,,,1,63,143,13,1,,,,,,,,,,,,,,,,,,,,,,,,,,,,,,,,,,
,,,,,,,,,,,,,1,001,2025-01-02_21h02.29.648,IAT(Formal),2021.2.3,Win32,59.88023952,,,,,,,,,,,,,,,,i,1,0.8037,,,,,,他的,i,,,1,64,144,57,1,,,,,,,,,,,,,,,,,,,,,,,,,,,,,,,,,,
,,,,,,,,,,,,,1,001,2025-01-02_21h02.29.648,IAT(Formal),2021.2.3,Win32,59.88023952,,,,,,,,,,,,,,,,i,1,0.806,,,,,,其他,i,,,1,65,145,59,1,,,,,,,,,,,,,,,,,,,,,,,,,,,,,,,,,,
,,,,,,,,,,,,,1,001,2025-01-02_21h02.29.648,IAT(Formal),2021.2.3,Win32,59.88023952,,,,,,,,,,,,,,,,e,1,0.6395,,,,,,诚实,e,,,1,66,146,15,1,,,,,,,,,,,,,,,,,,,,,,,,,,,,,,,,,,
,,,,,,,,,,,,,1,001,2025-01-02_21h02.29.648,IAT(Formal),2021.2.3,Win32,59.88023952,,,,,,,,,,,,,,,,i,1,0.6642,,,,,,他,i,,,1,67,147,5,1,,,,,,,,,,,,,,,,,,,,,,,,,,,,,,,,,,
,,,,,,,,,,,,,1,001,2025-01-02_21h02.29.648,IAT(Formal),2021.2.3,Win32,59.88023952,,,,,,,,,,,,,,,,e,1,0.7329,,,,,,自己,e,,,1,68,148,3,1,,,,,,,,,,,,,,,,,,,,,,,,,,,,,,,,,,
,,,,,,,,,,,,,1,001,2025-01-02_21h02.29.648,IAT(Formal),2021.2.3,Win32,59.88023952,,,,,,,,,,,,,,,,e,1,0.6451,,,,,,诚恳,e,,,1,69,149,29,1,,,,,,,,,,,,,,,,,,,,,,,,,,,,,,,,,,
,,,,,,,,,,,,,1,001,2025-01-02_21h02.29.648,IAT(Formal),2021.2.3,Win32,59.88023952,,,,,,,,,,,,,,,,i,1,0.6692,,,,,,他的,i,,,1,70,150,7,1,,,,,,,,,,,,,,,,,,,,,,,,,,,,,,,,,,
,,,,,,,,,,,,,1,001,2025-01-02_21h02.29.648,IAT(Formal),2021.2.3,Win32,59.88023952,,,,,,,,,,,,,,,,e,1,0.6696,,,,,,我,e,,,1,71,151,0,1,,,,,,,,,,,,,,,,,,,,,,,,,,,,,,,,,,
,,,,,,,,,,,,,1,001,2025-01-02_21h02.29.648,IAT(Formal),2021.2.3,Win32,59.88023952,,,,,,,,,,,,,,,,i,1,0.7753,,,,,,野蛮,i,,,1,72,152,46,1,,,,,,,,,,,,,,,,,,,,,,,,,,,,,,,,,,
,,,,,,,,,,,,,1,001,2025-01-02_21h02.29.648,IAT(Formal),2021.2.3,Win32,59.88023952,,,,,,,,,,,,,,,,e,1,1.1126,,,,,,俺,e,,,1,73,153,4,1,,,,,,,,,,,,,,,,,,,,,,,,,,,,,,,,,,
,,,,,,,,,,,,,1,001,2025-01-02_21h02.29.648,IAT(Formal),2021.2.3,Win32,59.88023952,,,,,,,,,,,,,,,,i,1,0.6705,,,,,,虚伪,i,,,1,74,154,31,1,,,,,,,,,,,,,,,,,,,,,,,,,,,,,,,,,,
,,,,,,,,,,,,,1,001,2025-01-02_21h02.29.648,IAT(Formal),2021.2.3,Win32,59.88023952,,,,,,,,,,,,,,,,e,1,0.7013,,,,,,自己,e,,,1,75,155,53,1,,,,,,,,,,,,,,,,,,,,,,,,,,,,,,,,,,
,,,,,,,,,,,,,1,001,2025-01-02_21h02.29.648,IAT(Formal),2021.2.3,Win32,59.88023952,,,,,,,,,,,,,,,,i,1,1.1308,,,,,,自私,i,,,1,76,156,43,1,,,,,,,,,,,,,,,,,,,,,,,,,,,,,,,,,,
,,,,,,,,,,,,,1,001,2025-01-02_21h02.29.648,IAT(Formal),2021.2.3,Win32,59.88023952,,,,,,,,,,,,,,,,e,1,0.7375,,,,,,公正,e,,,1,77,157,23,1,,,,,,,,,,,,,,,,,,,,,,,,,,,,,,,,,,
,,,,,,,,,,,,,1,001,2025-01-02_21h02.29.648,IAT(Formal),2021.2.3,Win32,59.88023952,,,,,,,,,,,,,,,,i,1,0.6966,,,,,,他人,i,,,1,78,158,8,1,,,,,,,,,,,,,,,,,,,,,,,,,,,,,,,,,,
,,,,,,,,,,,,,1,001,2025-01-02_21h02.29.648,IAT(Formal),2021.2.3,Win32,59.88023952,,,,,,,,,,,,,,,,i,1,0.7631,,,,,,鲁莽,i,,,1,79,159,38,1,,,,,,,,,,,,,,,,,,,,,,,,,,,,,,,,,,
,,,,,,,,,,,他们,e,1,001,2025-01-02_21h02.29.648,IAT(Formal),2021.2.3,Win32,59.88023952,,,,,,,,,,,,,,,,,,,,,,,,,,,,,,,,,space,13.6651,e,1,1.0348,0,0,0,6,1,,,,,,,,,,,,,,,,,,,,,,,,
,,,,,,,,,,,我的,i,1,001,2025-01-02_21h02.29.648,IAT(Formal),2021.2.3,Win32,59.88023952,,,,,,,,,,,,,,,,,,,,,,,,,,,,,,,,,,,i,1,1.1008,0,1,1,1,1,,,,,,,,,,,,,,,,,,,,,,,,
,,,,,,,,,,,自己,i,1,001,2025-01-02_21h02.29.648,IAT(Formal),2021.2.3,Win32,59.88023952,,,,,,,,,,,,,,,,,,,,,,,,,,,,,,,,,,,i,1,0.8355,0,2,2,3,1,,,,,,,,,,,,,,,,,,,,,,,,
,,,,,,,,,,,他的,e,1,001,2025-01-02_21h02.29.648,IAT(Formal),2021.2.3,Win32,59.88023952,,,,,,,,,,,,,,,,,,,,,,,,,,,,,,,,,,,e,1,0.6996,0,3,3,7,1,,,,,,,,,,,,,,,,,,,,,,,,
,,,,,,,,,,,他人,e,1,001,2025-01-02_21h02.29.648,IAT(Formal),2021.2.3,Win32,59.88023952,,,,,,,,,,,,,,,,,,,,,,,,,,,,,,,,,,,e,1,0.6806,0,4,4,8,1,,,,,,,,,,,,,,,,,,,,,,,,
,,,,,,,,,,,俺,i,1,001,2025-01-02_21h02.29.648,IAT(Formal),2021.2.3,Win32,59.88023952,,,,,,,,,,,,,,,,,,,,,,,,,,,,,,,,,,,i,1,0.7676,0,5,5,4,1,,,,,,,,,,,,,,,,,,,,,,,,
,,,,,,,,,,,我们,i,1,001,2025-01-02_21h02.29.648,IAT(Formal),2021.2.3,Win32,59.88023952,,,,,,,,,,,,,,,,,,,,,,,,,,,,,,,,,,,i,1,0.8654,0,6,6,2,1,,,,,,,,,,,,,,,,,,,,,,,,
,,,,,,,,,,,我,i,1,001,2025-01-02_21h02.29.648,IAT(Formal),2021.2.3,Win32,59.88023952,,,,,,,,,,,,,,,,,,,,,,,,,,,,,,,,,,,i,1,0.6103,0,7,7,0,1,,,,,,,,,,,,,,,,,,,,,,,,
,,,,,,,,,,,其他,e,1,001,2025-01-02_21h02.29.648,IAT(Formal),2021.2.3,Win32,59.88023952,,,,,,,,,,,,,,,,,,,,,,,,,,,,,,,,,,,e,1,0.6685,0,8,8,9,1,,,,,,,,,,,,,,,,,,,,,,,,
,,,,,,,,,,,他,e,1,001,2025-01-02_21h02.29.648,IAT(Formal),2021.2.3,Win32,59.88023952,,,,,,,,,,,,,,,,,,,,,,,,,,,,,,,,,,,e,1,0.5315,0,9,9,5,1,,,,,,,,,,,,,,,,,,,,,,,,
,,,,,,,,,,,,,1,001,2025-01-02_21h02.29.648,IAT(Formal),2021.2.3,Win32,59.88023952,,,,,,,,,,,,,,,,,,,,,,,,,,,,,,,,,,,,,,,,,,,space,6.8024,i,1,1.231,0,0,0,71,1,我的,i,,,,,,,,,,,,
,,,,,,,,,,,,,1,001,2025-01-02_21h02.29.648,IAT(Formal),2021.2.3,Win32,59.88023952,,,,,,,,,,,,,,,,,,,,,,,,,,,,,,,,,,,,,,,,,,,,,e,1,0.8752,0,1,1,65,1,他,e,,,,,,,,,,,,
,,,,,,,,,,,,,1,001,2025-01-02_21h02.29.648,IAT(Formal),2021.2.3,Win32,59.88023952,,,,,,,,,,,,,,,,,,,,,,,,,,,,,,,,,,,,,,,,,,,,,i,1,0.8764,0,2,2,72,1,我们,i,,,,,,,,,,,,
,,,,,,,,,,,,,1,001,2025-01-02_21h02.29.648,IAT(Formal),2021.2.3,Win32,59.88023952,,,,,,,,,,,,,,,,,,,,,,,,,,,,,,,,,,,,,,,,,,,,,i,1,0.7337,0,3,3,52,1,我们,i,,,,,,,,,,,,
,,,,,,,,,,,,,1,001,2025-01-02_21h02.29.648,IAT(Formal),2021.2.3,Win32,59.88023952,,,,,,,,,,,,,,,,,,,,,,,,,,,,,,,,,,,,,,,,,,,,,i,1,0.7109,0,4,4,53,1,自己,i,,,,,,,,,,,,
,,,,,,,,,,,,,1,001,2025-01-02_21h02.29.648,IAT(Formal),2021.2.3,Win32,59.88023952,,,,,,,,,,,,,,,,,,,,,,,,,,,,,,,,,,,,,,,,,,,,,i,0,0.8,0,5,5,18,1,勤奋,e,,,,,,,,,,,,
,,,,,,,,,,,,,1,001,2025-01-02_21h02.29.648,IAT(Formal),2021.2.3,Win32,59.88023952,,,,,,,,,,,,,,,,,,,,,,,,,,,,,,,,,,,,,,,,,,,,,e,1,1.1672,0,6,6,7,1,他的,e,,,,,,,,,,,,
,,,,,,,,,,,,,1,001,2025-01-02_21h02.29.648,IAT(Formal),2021.2.3,Win32,59.88023952,,,,,,,,,,,,,,,,,,,,,,,,,,,,,,,,,,,,,,,,,,,,,i,1,1.0704,0,7,7,61,1,我的,i,,,,,,,,,,,,
,,,,,,,,,,,,,1,001,2025-01-02_21h02.29.648,IAT(Formal),2021.2.3,Win32,59.88023952,,,,,,,,,,,,,,,,,,,,,,,,,,,,,,,,,,,,,,,,,,,,,i,1,1.2004,0,8,8,0,1,我,i,,,,,,,,,,,,
,,,,,,,,,,,,,1,001,2025-01-02_21h02.29.648,IAT(Formal),2021.2.3,Win32,59.88023952,,,,,,,,,,,,,,,,,,,,,,,,,,,,,,,,,,,,,,,,,,,,,e,1,0.9992,0,9,9,28,1,活泼,e,,,,,,,,,,,,
,,,,,,,,,,,,,1,001,2025-01-02_21h02.29.648,IAT(Formal),2021.2.3,Win32,59.88023952,,,,,,,,,,,,,,,,,,,,,,,,,,,,,,,,,,,,,,,,,,,,,i,1,1.0992,0,10,10,48,1,轻率,i,,,,,,,,,,,,
,,,,,,,,,,,,,1,001,2025-01-02_21h02.29.648,IAT(Formal),2021.2.3,Win32,59.88023952,,,,,,,,,,,,,,,,,,,,,,,,,,,,,,,,,,,,,,,,,,,,,i,1,0.9665,0,11,11,39,1,冒失,i,,,,,,,,,,,,
,,,,,,,,,,,,,1,001,2025-01-02_21h02.29.648,IAT(Formal),2021.2.3,Win32,59.88023952,,,,,,,,,,,,,,,,,,,,,,,,,,,,,,,,,,,,,,,,,,,,,e,1,0.8666,0,12,12,11,1,崇高,e,,,,,,,,,,,,
,,,,,,,,,,,,,1,001,2025-01-02_21h02.29.648,IAT(Formal),2021.2.3,Win32,59.88023952,,,,,,,,,,,,,,,,,,,,,,,,,,,,,,,,,,,,,,,,,,,,,i,1,1.0663,0,13,13,35,1,消极,i,,,,,,,,,,,,
,,,,,,,,,,,,,1,001,2025-01-02_21h02.29.648,IAT(Formal),2021.2.3,Win32,59.88023952,,,,,,,,,,,,,,,,,,,,,,,,,,,,,,,,,,,,,,,,,,,,,e,1,0.8418,0,14,14,13,1,杰出,e,,,,,,,,,,,,
,,,,,,,,,,,,,1,001,2025-01-02_21h02.29.648,IAT(Formal),2021.2.3,Win32,59.88023952,,,,,,,,,,,,,,,,,,,,,,,,,,,,,,,,,,,,,,,,,,,,,,0,,0,15,15,21,1,稳重,e,,,,,,,,,,,,
,,,,,,,,,,,,,1,001,2025-01-02_21h02.29.648,IAT(Formal),2021.2.3,Win32,59.88023952,,,,,,,,,,,,,,,,,,,,,,,,,,,,,,,,,,,,,,,,,,,,,i,1,1.0637,0,16,16,73,1,自己,i,,,,,,,,,,,,
,,,,,,,,,,,,,1,001,2025-01-02_21h02.29.648,IAT(Formal),2021.2.3,Win32,59.88023952,,,,,,,,,,,,,,,,,,,,,,,,,,,,,,,,,,,,,,,,,,,,,e,1,1.1997,0,17,17,76,1,他们,e,,,,,,,,,,,,
,,,,,,,,,,,,,1,001,2025-01-02_21h02.29.648,IAT(Formal),2021.2.3,Win32,59.88023952,,,,,,,,,,,,,,,,,,,,,,,,,,,,,,,,,,,,,,,,,,,,,e,1,0.8662,0,18,18,55,1,他,e,,,,,,,,,,,,
,,,,,,,,,,,,,1,001,2025-01-02_21h02.29.648,IAT(Formal),2021.2.3,Win32,59.88023952,,,,,,,,,,,,,,,,,,,,,,,,,,,,,,,,,,,,,,,,,,,,,i,1,1.3729,0,19,19,38,1,鲁莽,i,,,,,,,,,,,,
,,,,,,,,,,,,,1,001,2025-01-02_21h02.29.648,IAT(Formal),2021.2.3,Win32,59.88023952,,,,,,,,,,,,,,,,,,,,,,,,,,,,,,,,,,,,,,,,,,,,,i,1,0.899,0,20,20,60,1,我,i,,,,,,,,,,,,
,,,,,,,,,,,,,1,001,2025-01-02_21h02.29.648,IAT(Formal),2021.2.3,Win32,59.88023952,,,,,,,,,,,,,,,,,,,,,,,,,,,,,,,,,,,,,,,,,,,,,e,1,0.7292,0,21,21,68,1,他人,e,,,,,,,,,,,,
,,,,,,,,,,,,,1,001,2025-01-02_21h02.29.648,IAT(Formal),2021.2.3,Win32,59.88023952,,,,,,,,,,,,,,,,,,,,,,,,,,,,,,,,,,,,,,,,,,,,,,0,,0,22,22,34,1,悲观,i,,,,,,,,,,,,
,,,,,,,,,,,,,1,001,2025-01-02_21h02.29.648,IAT(Formal),2021.2.3,Win32,59.88023952,,,,,,,,,,,,,,,,,,,,,,,,,,,,,,,,,,,,,,,,,,,,,i,1,1.1015,0,23,23,3,1,自己,i,,,,,,,,,,,,
,,,,,,,,,,,,,1,001,2025-01-02_21h02.29.648,IAT(Formal),2021.2.3,Win32,59.88023952,,,,,,,,,,,,,,,,,,,,,,,,,,,,,,,,,,,,,,,,,,,,,e,1,0.9008,0,24,24,25,1,细腻,e,,,,,,,,,,,,
,,,,,,,,,,,,,1,001,2025-01-02_21h02.29.648,IAT(Formal),2021.2.3,Win32,59.88023952,,,,,,,,,,,,,,,,,,,,,,,,,,,,,,,,,,,,,,,,,,,,,i,1,0.8961,0,25,25,1,1,我的,i,,,,,,,,,,,,
,,,,,,,,,,,,,1,001,2025-01-02_21h02.29.648,IAT(Formal),2021.2.3,Win32,59.88023952,,,,,,,,,,,,,,,,,,,,,,,,,,,,,,,,,,,,,,,,,,,,,i,1,0.6643,0,26,26,45,1,猖狂,i,,,,,,,,,,,,
,,,,,,,,,,,,,1,001,2025-01-02_21h02.29.648,IAT(Formal),2021.2.3,Win32,59.88023952,,,,,,,,,,,,,,,,,,,,,,,,,,,,,,,,,,,,,,,,,,,,,e,1,0.9365,0,27,27,9,1,其他,e,,,,,,,,,,,,
,,,,,,,,,,,,,1,001,2025-01-02_21h02.29.648,IAT(Formal),2021.2.3,Win32,59.88023952,,,,,,,,,,,,,,,,,,,,,,,,,,,,,,,,,,,,,,,,,,,,,i,1,1.0963,0,28,28,54,1,俺,i,,,,,,,,,,,,
,,,,,,,,,,,,,1,001,2025-01-02_21h02.29.648,IAT(Formal),2021.2.3,Win32,59.88023952,,,,,,,,,,,,,,,,,,,,,,,,,,,,,,,,,,,,,,,,,,,,,i,1,0.7667,0,29,29,64,1,俺,i,,,,,,,,,,,,
,,,,,,,,,,,,,1,001,2025-01-02_21h02.29.648,IAT(Formal),2021.2.3,Win32,59.88023952,,,,,,,,,,,,,,,,,,,,,,,,,,,,,,,,,,,,,,,,,,,,,i,1,0.9312,0,30,30,31,1,虚伪,i,,,,,,,,,,,,
,,,,,,,,,,,,,1,001,2025-01-02_21h02.29.648,IAT(Formal),2021.2.3,Win32,59.88023952,,,,,,,,,,,,,,,,,,,,,,,,,,,,,,,,,,,,,,,,,,,,,e,1,0.9626,0,31,31,22,1,无私,e,,,,,,,,,,,,
,,,,,,,,,,,,,1,001,2025-01-02_21h02.29.648,IAT(Formal),2021.2.3,Win32,59.88023952,,,,,,,,,,,,,,,,,,,,,,,,,,,,,,,,,,,,,,,,,,,,,e,1,0.6948,0,32,32,10,1,优秀,e,,,,,,,,,,,,
,,,,,,,,,,,,,1,001,2025-01-02_21h02.29.648,IAT(Formal),2021.2.3,Win32,59.88023952,,,,,,,,,,,,,,,,,,,,,,,,,,,,,,,,,,,,,,,,,,,,,i,1,0.7995,0,33,33,47,1,固执,i,,,,,,,,,,,,
,,,,,,,,,,,,,1,001,2025-01-02_21h02.29.648,IAT(Formal),2021.2.3,Win32,59.88023952,,,,,,,,,,,,,,,,,,,,,,,,,,,,,,,,,,,,,,,,,,,,,i,1,0.8617,0,34,34,37,1,傲慢,i,,,,,,,,,,,,
,,,,,,,,,,,,,1,001,2025-01-02_21h02.29.648,IAT(Formal),2021.2.3,Win32,59.88023952,,,,,,,,,,,,,,,,,,,,,,,,,,,,,,,,,,,,,,,,,,,,,e,1,0.7299,0,35,35,14,1,乐观,e,,,,,,,,,,,,
,,,,,,,,,,,,,1,001,2025-01-02_21h02.29.648,IAT(Formal),2021.2.3,Win32,59.88023952,,,,,,,,,,,,,,,,,,,,,,,,,,,,,,,,,,,,,,,,,,,,,i,1,0.7497,0,36,36,40,1,执拗,i,,,,,,,,,,,,
,,,,,,,,,,,,,1,001,2025-01-02_21h02.29.648,IAT(Formal),2021.2.3,Win32,59.88023952,,,,,,,,,,,,,,,,,,,,,,,,,,,,,,,,,,,,,,,,,,,,,i,1,0.7343,0,37,37,49,1,下贱,i,,,,,,,,,,,,
,,,,,,,,,,,,,1,001,2025-01-02_21h02.29.648,IAT(Formal),2021.2.3,Win32,59.88023952,,,,,,,,,,,,,,,,,,,,,,,,,,,,,,,,,,,,,,,,,,,,,e,1,1.198,0,38,38,67,1,他的,e,,,,,,,,,,,,
,,,,,,,,,,,,,1,001,2025-01-02_21h02.29.648,IAT(Formal),2021.2.3,Win32,59.88023952,,,,,,,,,,,,,,,,,,,,,,,,,,,,,,,,,,,,,,,,,,,,,e,1,0.7646,0,39,39,8,1,他人,e,,,,,,,,,,,,
,,,,,,,,,,,,,1,001,2025-01-02_21h02.29.648,IAT(Formal),2021.2.3,Win32,59.88023952,,,,,,,,,,,,,,,,,,,,,,,,,,,,,,,,,,,,,,,,,,,,,e,1,1.1019,0,40,40,56,1,他们,e,,,,,,,,,,,,
,,,,,,,,,,,,,1,001,2025-01-02_21h02.29.648,IAT(Formal),2021.2.3,Win32,59.88023952,,,,,,,,,,,,,,,,,,,,,,,,,,,,,,,,,,,,,,,,,,,,,i,1,0.8406,0,41,41,46,1,野蛮,i,,,,,,,,,,,,
,,,,,,,,,,,,,1,001,2025-01-02_21h02.29.648,IAT(Formal),2021.2.3,Win32,59.88023952,,,,,,,,,,,,,,,,,,,,,,,,,,,,,,,,,,,,,,,,,,,,,i,1,0.6636,0,42,42,41,1,散漫,i,,,,,,,,,,,,
,,,,,,,,,,,,,1,001,2025-01-02_21h02.29.648,IAT(Formal),2021.2.3,Win32,59.88023952,,,,,,,,,,,,,,,,,,,,,,,,,,,,,,,,,,,,,,,,,,,,,e,1,0.7657,0,43,43,16,1,正直,e,,,,,,,,,,,,
,,,,,,,,,,,,,1,001,2025-01-02_21h02.29.648,IAT(Formal),2021.2.3,Win32,59.88023952,,,,,,,,,,,,,,,,,,,,,,,,,,,,,,,,,,,,,,,,,,,,,,0,,0,44,44,2,1,我们,i,,,,,,,,,,,,
,,,,,,,,,,,,,1,001,2025-01-02_21h02.29.648,IAT(Formal),2021.2.3,Win32,59.88023952,,,,,,,,,,,,,,,,,,,,,,,,,,,,,,,,,,,,,,,,,,,,,e,1,1.2668,0,45,45,66,1,他们,e,,,,,,,,,,,,
,,,,,,,,,,,,,1,001,2025-01-02_21h02.29.648,IAT(Formal),2021.2.3,Win32,59.88023952,,,,,,,,,,,,,,,,,,,,,,,,,,,,,,,,,,,,,,,,,,,,,i,1,1.2328,0,46,46,63,1,自己,i,,,,,,,,,,,,
,,,,,,,,,,,,,1,001,2025-01-02_21h02.29.648,IAT(Formal),2021.2.3,Win32,59.88023952,,,,,,,,,,,,,,,,,,,,,,,,,,,,,,,,,,,,,,,,,,,,,e,1,0.838,0,47,47,59,1,其他,e,,,,,,,,,,,,
,,,,,,,,,,,,,1,001,2025-01-02_21h02.29.648,IAT(Formal),2021.2.3,Win32,59.88023952,,,,,,,,,,,,,,,,,,,,,,,,,,,,,,,,,,,,,,,,,,,,,e,1,0.9003,0,48,48,78,1,他人,e,,,,,,,,,,,,
,,,,,,,,,,,,,1,001,2025-01-02_21h02.29.648,IAT(Formal),2021.2.3,Win32,59.88023952,,,,,,,,,,,,,,,,,,,,,,,,,,,,,,,,,,,,,,,,,,,,,e,1,1.43,0,49,49,26,1,冷静,e,,,,,,,,,,,,
,,,,,,,,,,,,,1,001,2025-01-02_21h02.29.648,IAT(Formal),2021.2.3,Win32,59.88023952,,,,,,,,,,,,,,,,,,,,,,,,,,,,,,,,,,,,,,,,,,,,,e,1,0.5388,0,50,50,12,1,聪明,e,,,,,,,,,,,,
,,,,,,,,,,,,,1,001,2025-01-02_21h02.29.648,IAT(Formal),2021.2.3,Win32,59.88023952,,,,,,,,,,,,,,,,,,,,,,,,,,,,,,,,,,,,,,,,,,,,,i,1,0.7338,0,51,51,36,1,自卑,i,,,,,,,,,,,,
,,,,,,,,,,,,,1,001,2025-01-02_21h02.29.648,IAT(Formal),2021.2.3,Win32,59.88023952,,,,,,,,,,,,,,,,,,,,,,,,,,,,,,,,,,,,,,,,,,,,,i,1,1.099,0,52,52,43,1,自私,i,,,,,,,,,,,,
,,,,,,,,,,,,,1,001,2025-01-02_21h02.29.648,IAT(Formal),2021.2.3,Win32,59.88023952,,,,,,,,,,,,,,,,,,,,,,,,,,,,,,,,,,,,,,,,,,,,,e,1,1.0041,0,53,53,6,1,他们,e,,,,,,,,,,,,
,,,,,,,,,,,,,1,001,2025-01-02_21h02.29.648,IAT(Formal),2021.2.3,Win32,59.88023952,,,,,,,,,,,,,,,,,,,,,,,,,,,,,,,,,,,,,,,,,,,,,,0,,0,54,54,27,1,热情,e,,,,,,,,,,,,
,,,,,,,,,,,,,1,001,2025-01-02_21h02.29.648,IAT(Formal),2021.2.3,Win32,59.88023952,,,,,,,,,,,,,,,,,,,,,,,,,,,,,,,,,,,,,,,,,,,,,e,1,0.9694,0,55,55,17,1,勇敢,e,,,,,,,,,,,,
,,,,,,,,,,,,,1,001,2025-01-02_21h02.29.648,IAT(Formal),2021.2.3,Win32,59.88023952,,,,,,,,,,,,,,,,,,,,,,,,,,,,,,,,,,,,,,,,,,,,,i,1,1.2319,0,56,56,32,1,愚蠢,i,,,,,,,,,,,,
,,,,,,,,,,,,,1,001,2025-01-02_21h02.29.648,IAT(Formal),2021.2.3,Win32,59.88023952,,,,,,,,,,,,,,,,,,,,,,,,,,,,,,,,,,,,,,,,,,,,,e,1,0.9029,0,57,57,57,1,他的,e,,,,,,,,,,,,
,,,,,,,,,,,,,1,001,2025-01-02_21h02.29.648,IAT(Formal),2021.2.3,Win32,59.88023952,,,,,,,,,,,,,,,,,,,,,,,,,,,,,,,,,,,,,,,,,,,,,i,1,0.7956,0,58,58,50,1,我,i,,,,,,,,,,,,
,,,,,,,,,,,,,1,001,2025-01-02_21h02.29.648,IAT(Formal),2021.2.3,Win32,59.88023952,,,,,,,,,,,,,,,,,,,,,,,,,,,,,,,,,,,,,,,,,,,,,e,1,0.8369,0,59,59,79,1,其他,e,,,,,,,,,,,,
,,,,,,,,,,,,,1,001,2025-01-02_21h02.29.648,IAT(Formal),2021.2.3,Win32,59.88023952,,,,,,,,,,,,,,,,,,,,,,,,,,,,,,,,,,,,,,,,,,,,,e,1,1.4293,0,60,60,29,1,诚恳,e,,,,,,,,,,,,
,,,,,,,,,,,,,1,001,2025-01-02_21h02.29.648,IAT(Formal),2021.2.3,Win32,59.88023952,,,,,,,,,,,,,,,,,,,,,,,,,,,,,,,,,,,,,,,,,,,,,i,1,0.8009,0,61,61,62,1,我们,i,,,,,,,,,,,,
,,,,,,,,,,,,,1,001,2025-01-02_21h02.29.648,IAT(Formal),2021.2.3,Win32,59.88023952,,,,,,,,,,,,,,,,,,,,,,,,,,,,,,,,,,,,,,,,,,,,,i,1,0.8002,0,62,62,44,1,暴躁,i,,,,,,,,,,,,
,,,,,,,,,,,,,1,001,2025-01-02_21h02.29.648,IAT(Formal),2021.2.3,Win32,59.88023952,,,,,,,,,,,,,,,,,,,,,,,,,,,,,,,,,,,,,,,,,,,,,i,1,1.0631,0,63,63,74,1,俺,i,,,,,,,,,,,,
,,,,,,,,,,,,,1,001,2025-01-02_21h02.29.648,IAT(Formal),2021.2.3,Win32,59.88023952,,,,,,,,,,,,,,,,,,,,,,,,,,,,,,,,,,,,,,,,,,,,,e,1,1.0015,0,64,64,19,1,机智,e,,,,,,,,,,,,
,,,,,,,,,,,,,1,001,2025-01-02_21h02.29.648,IAT(Formal),2021.2.3,Win32,59.88023952,,,,,,,,,,,,,,,,,,,,,,,,,,,,,,,,,,,,,,,,,,,,,e,1,0.8665,0,65,65,75,1,他,e,,,,,,,,,,,,
,,,,,,,,,,,,,1,001,2025-01-02_21h02.29.648,IAT(Formal),2021.2.3,Win32,59.88023952,,,,,,,,,,,,,,,,,,,,,,,,,,,,,,,,,,,,,,,,,,,,,e,1,0.967,0,66,66,15,1,诚实,e,,,,,,,,,,,,
,,,,,,,,,,,,,1,001,2025-01-02_21h02.29.648,IAT(Formal),2021.2.3,Win32,59.88023952,,,,,,,,,,,,,,,,,,,,,,,,,,,,,,,,,,,,,,,,,,,,,e,1,0.7612,0,67,67,23,1,公正,e,,,,,,,,,,,,
,,,,,,,,,,,,,1,001,2025-01-02_21h02.29.648,IAT(Formal),2021.2.3,Win32,59.88023952,,,,,,,,,,,,,,,,,,,,,,,,,,,,,,,,,,,,,,,,,,,,,e,0,0.6654,0,68,68,51,1,我的,i,,,,,,,,,,,,
,,,,,,,,,,,,,1,001,2025-01-02_21h02.29.648,IAT(Formal),2021.2.3,Win32,59.88023952,,,,,,,,,,,,,,,,,,,,,,,,,,,,,,,,,,,,,,,,,,,,,e,1,1.2728,0,69,69,24,1,朴实,e,,,,,,,,,,,,
,,,,,,,,,,,,,1,001,2025-01-02_21h02.29.648,IAT(Formal),2021.2.3,Win32,59.88023952,,,,,,,,,,,,,,,,,,,,,,,,,,,,,,,,,,,,,,,,,,,,,i,1,0.8988,0,70,70,33,1,刻薄,i,,,,,,,,,,,,
,,,,,,,,,,,,,1,001,2025-01-02_21h02.29.648,IAT(Formal),2021.2.3,Win32,59.88023952,,,,,,,,,,,,,,,,,,,,,,,,,,,,,,,,,,,,,,,,,,,,,,0,,0,71,71,69,1,其他,e,,,,,,,,,,,,
,,,,,,,,,,,,,1,001,2025-01-02_21h02.29.648,IAT(Formal),2021.2.3,Win32,59.88023952,,,,,,,,,,,,,,,,,,,,,,,,,,,,,,,,,,,,,,,,,,,,,e,1,0.744,0,72,72,5,1,他,e,,,,,,,,,,,,
,,,,,,,,,,,,,1,001,2025-01-02_21h02.29.648,IAT(Formal),2021.2.3,Win32,59.88023952,,,,,,,,,,,,,,,,,,,,,,,,,,,,,,,,,,,,,,,,,,,,,e,1,1.0938,0,73,73,20,1,认真,e,,,,,,,,,,,,
,,,,,,,,,,,,,1,001,2025-01-02_21h02.29.648,IAT(Formal),2021.2.3,Win32,59.88023952,,,,,,,,,,,,,,,,,,,,,,,,,,,,,,,,,,,,,,,,,,,,,i,1,0.7086,0,74,74,42,1,凶狠,i,,,,,,,,,,,,
,,,,,,,,,,,,,1,001,2025-01-02_21h02.29.648,IAT(Formal),2021.2.3,Win32,59.88023952,,,,,,,,,,,,,,,,,,,,,,,,,,,,,,,,,,,,,,,,,,,,,e,0,0.8355,0,75,75,4,1,俺,i,,,,,,,,,,,,
,,,,,,,,,,,,,1,001,2025-01-02_21h02.29.648,IAT(Formal),2021.2.3,Win32,59.88023952,,,,,,,,,,,,,,,,,,,,,,,,,,,,,,,,,,,,,,,,,,,,,e,1,0.7599,0,76,76,77,1,他的,e,,,,,,,,,,,,
,,,,,,,,,,,,,1,001,2025-01-02_21h02.29.648,IAT(Formal),2021.2.3,Win32,59.88023952,,,,,,,,,,,,,,,,,,,,,,,,,,,,,,,,,,,,,,,,,,,,,i,1,1.007,0,77,77,30,1,卑鄙,i,,,,,,,,,,,,
,,,,,,,,,,,,,1,001,2025-01-02_21h02.29.648,IAT(Formal),2021.2.3,Win32,59.88023952,,,,,,,,,,,,,,,,,,,,,,,,,,,,,,,,,,,,,,,,,,,,,i,1,0.7704,0,78,78,70,1,我,i,,,,,,,,,,,,
,,,,,,,,,,,,,1,001,2025-01-02_21h02.29.648,IAT(Formal),2021.2.3,Win32,59.88023952,,,,,,,,,,,,,,,,,,,,,,,,,,,,,,,,,,,,,,,,,,,,,e,1,0.6952,0,79,79,58,1,他人,e,,,,,,,,,,,,
,,,,,,,,,,,,,1,001,2025-01-02_21h02.29.648,IAT(Formal),2021.2.3,Win32,59.88023952,,,,,,,,,,,,,,,,,,,,,,,,,,,,,,,,,,,,,,,,,,,,,,,,,,,,,其他,e,space,14.5923,e,1,0.9316,0,0,0,69,1,,
,,,,,,,,,,,,,1,001,2025-01-02_21h02.29.648,IAT(Formal),2021.2.3,Win32,59.88023952,,,,,,,,,,,,,,,,,,,,,,,,,,,,,,,,,,,,,,,,,,,,,,,,,,,,,他人,e,,,e,1,1.0303,0,1,1,78,1,,
,,,,,,,,,,,,,1,001,2025-01-02_21h02.29.648,IAT(Formal),2021.2.3,Win32,59.88023952,,,,,,,,,,,,,,,,,,,,,,,,,,,,,,,,,,,,,,,,,,,,,,,,,,,,,我们,i,,,i,1,0.5067,0,2,2,2,1,,
,,,,,,,,,,,,,1,001,2025-01-02_21h02.29.648,IAT(Formal),2021.2.3,Win32,59.88023952,,,,,,,,,,,,,,,,,,,,,,,,,,,,,,,,,,,,,,,,,,,,,,,,,,,,,刻薄,i,,,i,1,0.6664,0,3,3,33,1,,
,,,,,,,,,,,,,1,001,2025-01-02_21h02.29.648,IAT(Formal),2021.2.3,Win32,59.88023952,,,,,,,,,,,,,,,,,,,,,,,,,,,,,,,,,,,,,,,,,,,,,,,,,,,,,聪明,e,,,e,1,0.7312,0,4,4,12,1,,
,,,,,,,,,,,,,1,001,2025-01-02_21h02.29.648,IAT(Formal),2021.2.3,Win32,59.88023952,,,,,,,,,,,,,,,,,,,,,,,,,,,,,,,,,,,,,,,,,,,,,,,,,,,,,愚蠢,i,,,i,1,0.7991,0,5,5,32,1,,
,,,,,,,,,,,,,1,001,2025-01-02_21h02.29.648,IAT(Formal),2021.2.3,Win32,59.88023952,,,,,,,,,,,,,,,,,,,,,,,,,,,,,,,,,,,,,,,,,,,,,,,,,,,,,俺,i,,,i,1,1.2001,0,6,6,64,1,,
,,,,,,,,,,,,,1,001,2025-01-02_21h02.29.648,IAT(Formal),2021.2.3,Win32,59.88023952,,,,,,,,,,,,,,,,,,,,,,,,,,,,,,,,,,,,,,,,,,,,,,,,,,,,,无私,e,,,e,1,0.8006,0,7,7,22,1,,
,,,,,,,,,,,,,1,001,2025-01-02_21h02.29.648,IAT(Formal),2021.2.3,Win32,59.88023952,,,,,,,,,,,,,,,,,,,,,,,,,,,,,,,,,,,,,,,,,,,,,,,,,,,,,他的,e,,,e,1,0.8339,0,8,8,57,1,,
,,,,,,,,,,,,,1,001,2025-01-02_21h02.29.648,IAT(Formal),2021.2.3,Win32,59.88023952,,,,,,,,,,,,,,,,,,,,,,,,,,,,,,,,,,,,,,,,,,,,,,,,,,,,,他们,e,,,e,1,0.6666,0,9,9,6,1,,
,,,,,,,,,,,,,1,001,2025-01-02_21h02.29.648,IAT(Formal),2021.2.3,Win32,59.88023952,,,,,,,,,,,,,,,,,,,,,,,,,,,,,,,,,,,,,,,,,,,,,,,,,,,,,执拗,i,,,i,1,0.7988,0,10,10,40,1,,
,,,,,,,,,,,,,1,001,2025-01-02_21h02.29.648,IAT(Formal),2021.2.3,Win32,59.88023952,,,,,,,,,,,,,,,,,,,,,,,,,,,,,,,,,,,,,,,,,,,,,,,,,,,,,正直,e,,,e,1,0.766,0,11,11,16,1,,
,,,,,,,,,,,,,1,001,2025-01-02_21h02.29.648,IAT(Formal),2021.2.3,Win32,59.88023952,,,,,,,,,,,,,,,,,,,,,,,,,,,,,,,,,,,,,,,,,,,,,,,,,,,,,自卑,i,,,i,1,1.0667,0,12,12,36,1,,
,,,,,,,,,,,,,1,001,2025-01-02_21h02.29.648,IAT(Formal),2021.2.3,Win32,59.88023952,,,,,,,,,,,,,,,,,,,,,,,,,,,,,,,,,,,,,,,,,,,,,,,,,,,,,俺,i,,,i,1,1.0001,0,13,13,4,1,,
,,,,,,,,,,,,,1,001,2025-01-02_21h02.29.648,IAT(Formal),2021.2.3,Win32,59.88023952,,,,,,,,,,,,,,,,,,,,,,,,,,,,,,,,,,,,,,,,,,,,,,,,,,,,,鲁莽,i,,,i,1,0.871,0,14,14,38,1,,
,,,,,,,,,,,,,1,001,2025-01-02_21h02.29.648,IAT(Formal),2021.2.3,Win32,59.88023952,,,,,,,,,,,,,,,,,,,,,,,,,,,,,,,,,,,,,,,,,,,,,,,,,,,,,勇敢,e,,,e,1,0.7651,0,15,15,17,1,,
,,,,,,,,,,,,,1,001,2025-01-02_21h02.29.648,IAT(Formal),2021.2.3,Win32,59.88023952,,,,,,,,,,,,,,,,,,,,,,,,,,,,,,,,,,,,,,,,,,,,,,,,,,,,,我的,i,,,i,1,0.8442,0,16,16,71,1,,
,,,,,,,,,,,,,1,001,2025-01-02_21h02.29.648,IAT(Formal),2021.2.3,Win32,59.88023952,,,,,,,,,,,,,,,,,,,,,,,,,,,,,,,,,,,,,,,,,,,,,,,,,,,,,固执,i,,,,0,,0,17,17,47,1,,
,,,,,,,,,,,,,1,001,2025-01-02_21h02.29.648,IAT(Formal),2021.2.3,Win32,59.88023952,,,,,,,,,,,,,,,,,,,,,,,,,,,,,,,,,,,,,,,,,,,,,,,,,,,,,我们,i,,,i,1,0.9351,0,18,18,72,1,,
,,,,,,,,,,,,,1,001,2025-01-02_21h02.29.648,IAT(Formal),2021.2.3,Win32,59.88023952,,,,,,,,,,,,,,,,,,,,,,,,,,,,,,,,,,,,,,,,,,,,,,,,,,,,,猖狂,i,,,i,1,0.7686,0,19,19,45,1,,
,,,,,,,,,,,,,1,001,2025-01-02_21h02.29.648,IAT(Formal),2021.2.3,Win32,59.88023952,,,,,,,,,,,,,,,,,,,,,,,,,,,,,,,,,,,,,,,,,,,,,,,,,,,,,冒失,i,,,i,1,0.775,0,20,20,39,1,,
,,,,,,,,,,,,,1,001,2025-01-02_21h02.29.648,IAT(Formal),2021.2.3,Win32,59.88023952,,,,,,,,,,,,,,,,,,,,,,,,,,,,,,,,,,,,,,,,,,,,,,,,,,,,,他,e,,,e,1,1.0689,0,21,21,5,1,,
,,,,,,,,,,,,,1,001,2025-01-02_21h02.29.648,IAT(Formal),2021.2.3,Win32,59.88023952,,,,,,,,,,,,,,,,,,,,,,,,,,,,,,,,,,,,,,,,,,,,,,,,,,,,,我们,i,,,i,1,0.8769,0,22,22,62,1,,
,,,,,,,,,,,,,1,001,2025-01-02_21h02.29.648,IAT(Formal),2021.2.3,Win32,59.88023952,,,,,,,,,,,,,,,,,,,,,,,,,,,,,,,,,,,,,,,,,,,,,,,,,,,,,他人,e,,,e,1,0.9347,0,23,23,58,1,,
,,,,,,,,,,,,,1,001,2025-01-02_21h02.29.648,IAT(Formal),2021.2.3,Win32,59.88023952,,,,,,,,,,,,,,,,,,,,,,,,,,,,,,,,,,,,,,,,,,,,,,,,,,,,,虚伪,i,,,i,1,1.3652,0,24,24,31,1,,
,,,,,,,,,,,,,1,001,2025-01-02_21h02.29.648,IAT(Formal),2021.2.3,Win32,59.88023952,,,,,,,,,,,,,,,,,,,,,,,,,,,,,,,,,,,,,,,,,,,,,,,,,,,,,稳重,e,,,e,1,0.8667,0,25,25,21,1,,
,,,,,,,,,,,,,1,001,2025-01-02_21h02.29.648,IAT(Formal),2021.2.3,Win32,59.88023952,,,,,,,,,,,,,,,,,,,,,,,,,,,,,,,,,,,,,,,,,,,,,,,,,,,,,杰出,e,,,e,1,0.7401,0,26,26,13,1,,
,,,,,,,,,,,,,1,001,2025-01-02_21h02.29.648,IAT(Formal),2021.2.3,Win32,59.88023952,,,,,,,,,,,,,,,,,,,,,,,,,,,,,,,,,,,,,,,,,,,,,,,,,,,,,他们,e,,,e,1,1.1005,0,27,27,66,1,,
,,,,,,,,,,,,,1,001,2025-01-02_21h02.29.648,IAT(Formal),2021.2.3,Win32,59.88023952,,,,,,,,,,,,,,,,,,,,,,,,,,,,,,,,,,,,,,,,,,,,,,,,,,,,,其他,e,,,e,1,1.0998,0,28,28,59,1,,
,,,,,,,,,,,,,1,001,2025-01-02_21h02.29.648,IAT(Formal),2021.2.3,Win32,59.88023952,,,,,,,,,,,,,,,,,,,,,,,,,,,,,,,,,,,,,,,,,,,,,,,,,,,,,散漫,i,,,i,1,1.0358,0,29,29,41,1,,
,,,,,,,,,,,,,1,001,2025-01-02_21h02.29.648,IAT(Formal),2021.2.3,Win32,59.88023952,,,,,,,,,,,,,,,,,,,,,,,,,,,,,,,,,,,,,,,,,,,,,,,,,,,,,公正,e,,,e,1,0.7663,0,30,30,23,1,,
,,,,,,,,,,,,,1,001,2025-01-02_21h02.29.648,IAT(Formal),2021.2.3,Win32,59.88023952,,,,,,,,,,,,,,,,,,,,,,,,,,,,,,,,,,,,,,,,,,,,,,,,,,,,,冷静,e,,,e,1,1.3672,0,31,31,26,1,,
,,,,,,,,,,,,,1,001,2025-01-02_21h02.29.648,IAT(Formal),2021.2.3,Win32,59.88023952,,,,,,,,,,,,,,,,,,,,,,,,,,,,,,,,,,,,,,,,,,,,,,,,,,,,,他人,e,,,e,1,0.899,0,32,32,8,1,,
,,,,,,,,,,,,,1,001,2025-01-02_21h02.29.648,IAT(Formal),2021.2.3,Win32,59.88023952,,,,,,,,,,,,,,,,,,,,,,,,,,,,,,,,,,,,,,,,,,,,,,,,,,,,,我的,i,,,i,1,0.7432,0,33,33,51,1,,
,,,,,,,,,,,,,1,001,2025-01-02_21h02.29.648,IAT(Formal),2021.2.3,Win32,59.88023952,,,,,,,,,,,,,,,,,,,,,,,,,,,,,,,,,,,,,,,,,,,,,,,,,,,,,俺,i,,,i,1,0.8993,0,34,34,54,1,,
,,,,,,,,,,,,,1,001,2025-01-02_21h02.29.648,IAT(Formal),2021.2.3,Win32,59.88023952,,,,,,,,,,,,,,,,,,,,,,,,,,,,,,,,,,,,,,,,,,,,,,,,,,,,,卑鄙,i,,,i,1,0.7756,0,35,35,30,1,,
,,,,,,,,,,,,,1,001,2025-01-02_21h02.29.648,IAT(Formal),2021.2.3,Win32,59.88023952,,,,,,,,,,,,,,,,,,,,,,,,,,,,,,,,,,,,,,,,,,,,,,,,,,,,,野蛮,i,,,i,1,0.7335,0,36,36,46,1,,
,,,,,,,,,,,,,1,001,2025-01-02_21h02.29.648,IAT(Formal),2021.2.3,Win32,59.88023952,,,,,,,,,,,,,,,,,,,,,,,,,,,,,,,,,,,,,,,,,,,,,,,,,,,,,乐观,e,,,e,1,0.7651,0,37,37,14,1,,
,,,,,,,,,,,,,1,001,2025-01-02_21h02.29.648,IAT(Formal),2021.2.3,Win32,59.88023952,,,,,,,,,,,,,,,,,,,,,,,,,,,,,,,,,,,,,,,,,,,,,,,,,,,,,他的,e,,,e,1,0.9468,0,38,38,77,1,,
,,,,,,,,,,,,,1,001,2025-01-02_21h02.29.648,IAT(Formal),2021.2.3,Win32,59.88023952,,,,,,,,,,,,,,,,,,,,,,,,,,,,,,,,,,,,,,,,,,,,,,,,,,,,,下贱,i,,,i,1,0.93,0,39,39,49,1,,
,,,,,,,,,,,,,1,001,2025-01-02_21h02.29.648,IAT(Formal),2021.2.3,Win32,59.88023952,,,,,,,,,,,,,,,,,,,,,,,,,,,,,,,,,,,,,,,,,,,,,,,,,,,,,自己,i,,,i,1,0.7986,0,40,40,73,1,,
,,,,,,,,,,,,,1,001,2025-01-02_21h02.29.648,IAT(Formal),2021.2.3,Win32,59.88023952,,,,,,,,,,,,,,,,,,,,,,,,,,,,,,,,,,,,,,,,,,,,,,,,,,,,,诚实,e,,,e,1,0.8688,0,41,41,15,1,,
,,,,,,,,,,,,,1,001,2025-01-02_21h02.29.648,IAT(Formal),2021.2.3,Win32,59.88023952,,,,,,,,,,,,,,,,,,,,,,,,,,,,,,,,,,,,,,,,,,,,,,,,,,,,,自己,i,,,i,1,0.7662,0,42,42,3,1,,
,,,,,,,,,,,,,1,001,2025-01-02_21h02.29.648,IAT(Formal),2021.2.3,Win32,59.88023952,,,,,,,,,,,,,,,,,,,,,,,,,,,,,,,,,,,,,,,,,,,,,,,,,,,,,自私,i,,,i,1,1.1999,0,43,43,43,1,,
,,,,,,,,,,,,,1,001,2025-01-02_21h02.29.648,IAT(Formal),2021.2.3,Win32,59.88023952,,,,,,,,,,,,,,,,,,,,,,,,,,,,,,,,,,,,,,,,,,,,,,,,,,,,,他的,e,,,e,1,0.9029,0,44,44,67,1,,
,,,,,,,,,,,,,1,001,2025-01-02_21h02.29.648,IAT(Formal),2021.2.3,Win32,59.88023952,,,,,,,,,,,,,,,,,,,,,,,,,,,,,,,,,,,,,,,,,,,,,,,,,,,,,我,i,,,i,1,1.0433,0,45,45,50,1,,
,,,,,,,,,,,,,1,001,2025-01-02_21h02.29.648,IAT(Formal),2021.2.3,Win32,59.88023952,,,,,,,,,,,,,,,,,,,,,,,,,,,,,,,,,,,,,,,,,,,,,,,,,,,,,俺,i,,,i,1,0.7644,0,46,46,74,1,,
,,,,,,,,,,,,,1,001,2025-01-02_21h02.29.648,IAT(Formal),2021.2.3,Win32,59.88023952,,,,,,,,,,,,,,,,,,,,,,,,,,,,,,,,,,,,,,,,,,,,,,,,,,,,,自己,i,,,i,1,0.9454,0,47,47,53,1,,
,,,,,,,,,,,,,1,001,2025-01-02_21h02.29.648,IAT(Formal),2021.2.3,Win32,59.88023952,,,,,,,,,,,,,,,,,,,,,,,,,,,,,,,,,,,,,,,,,,,,,,,,,,,,,我,i,,,i,1,0.6439,0,48,48,0,1,,
,,,,,,,,,,,,,1,001,2025-01-02_21h02.29.648,IAT(Formal),2021.2.3,Win32,59.88023952,,,,,,,,,,,,,,,,,,,,,,,,,,,,,,,,,,,,,,,,,,,,,,,,,,,,,崇高,e,,,e,1,0.8324,0,49,49,11,1,,
,,,,,,,,,,,,,1,001,2025-01-02_21h02.29.648,IAT(Formal),2021.2.3,Win32,59.88023952,,,,,,,,,,,,,,,,,,,,,,,,,,,,,,,,,,,,,,,,,,,,,,,,,,,,,他,e,,,e,1,1.4171,0,50,50,55,1,,
,,,,,,,,,,,,,1,001,2025-01-02_21h02.29.648,IAT(Formal),2021.2.3,Win32,59.88023952,,,,,,,,,,,,,,,,,,,,,,,,,,,,,,,,,,,,,,,,,,,,,,,,,,,,,他,e,,,e,1,0.634,0,51,51,65,1,,
,,,,,,,,,,,,,1,001,2025-01-02_21h02.29.648,IAT(Formal),2021.2.3,Win32,59.88023952,,,,,,,,,,,,,,,,,,,,,,,,,,,,,,,,,,,,,,,,,,,,,,,,,,,,,优秀,e,,,e,1,0.9385,0,52,52,10,1,,
,,,,,,,,,,,,,1,001,2025-01-02_21h02.29.648,IAT(Formal),2021.2.3,Win32,59.88023952,,,,,,,,,,,,,,,,,,,,,,,,,,,,,,,,,,,,,,,,,,,,,,,,,,,,,朴实,e,,,e,1,0.6095,0,53,53,24,1,,
,,,,,,,,,,,,,1,001,2025-01-02_21h02.29.648,IAT(Formal),2021.2.3,Win32,59.88023952,,,,,,,,,,,,,,,,,,,,,,,,,,,,,,,,,,,,,,,,,,,,,,,,,,,,,诚恳,e,,,e,1,0.6357,0,54,54,29,1,,
,,,,,,,,,,,,,1,001,2025-01-02_21h02.29.648,IAT(Formal),2021.2.3,Win32,59.88023952,,,,,,,,,,,,,,,,,,,,,,,,,,,,,,,,,,,,,,,,,,,,,,,,,,,,,消极,i,,,i,1,0.766,0,55,55,35,1,,
,,,,,,,,,,,,,1,001,2025-01-02_21h02.29.648,IAT(Formal),2021.2.3,Win32,59.88023952,,,,,,,,,,,,,,,,,,,,,,,,,,,,,,,,,,,,,,,,,,,,,,,,,,,,,机智,e,,,e,1,0.8004,0,56,56,19,1,,
,,,,,,,,,,,,,1,001,2025-01-02_21h02.29.648,IAT(Formal),2021.2.3,Win32,59.88023952,,,,,,,,,,,,,,,,,,,,,,,,,,,,,,,,,,,,,,,,,,,,,,,,,,,,,其他,e,,,e,1,0.8319,0,57,57,79,1,,
,,,,,,,,,,,,,1,001,2025-01-02_21h02.29.648,IAT(Formal),2021.2.3,Win32,59.88023952,,,,,,,,,,,,,,,,,,,,,,,,,,,,,,,,,,,,,,,,,,,,,,,,,,,,,细腻,e,,,e,1,0.7048,0,58,58,25,1,,
,,,,,,,,,,,,,1,001,2025-01-02_21h02.29.648,IAT(Formal),2021.2.3,Win32,59.88023952,,,,,,,,,,,,,,,,,,,,,,,,,,,,,,,,,,,,,,,,,,,,,,,,,,,,,傲慢,i,,,i,1,0.7348,0,59,59,37,1,,
,,,,,,,,,,,,,1,001,2025-01-02_21h02.29.648,IAT(Formal),2021.2.3,Win32,59.88023952,,,,,,,,,,,,,,,,,,,,,,,,,,,,,,,,,,,,,,,,,,,,,,,,,,,,,我们,i,,,i,1,0.8352,0,60,60,52,1,,
,,,,,,,,,,,,,1,001,2025-01-02_21h02.29.648,IAT(Formal),2021.2.3,Win32,59.88023952,,,,,,,,,,,,,,,,,,,,,,,,,,,,,,,,,,,,,,,,,,,,,,,,,,,,,他,e,,,e,1,0.7661,0,61,61,75,1,,
,,,,,,,,,,,,,1,001,2025-01-02_21h02.29.648,IAT(Formal),2021.2.3,Win32,59.88023952,,,,,,,,,,,,,,,,,,,,,,,,,,,,,,,,,,,,,,,,,,,,,,,,,,,,,他人,e,,,e,1,0.765,0,62,62,68,1,,
,,,,,,,,,,,,,1,001,2025-01-02_21h02.29.648,IAT(Formal),2021.2.3,Win32,59.88023952,,,,,,,,,,,,,,,,,,,,,,,,,,,,,,,,,,,,,,,,,,,,,,,,,,,,,凶狠,i,,,i,1,0.9985,0,63,63,42,1,,
,,,,,,,,,,,,,1,001,2025-01-02_21h02.29.648,IAT(Formal),2021.2.3,Win32,59.88023952,,,,,,,,,,,,,,,,,,,,,,,,,,,,,,,,,,,,,,,,,,,,,,,,,,,,,我,i,,,i,1,0.9681,0,64,64,60,1,,
,,,,,,,,,,,,,1,001,2025-01-02_21h02.29.648,IAT(Formal),2021.2.3,Win32,59.88023952,,,,,,,,,,,,,,,,,,,,,,,,,,,,,,,,,,,,,,,,,,,,,,,,,,,,,活泼,e,,,e,1,0.8993,0,65,65,28,1,,
,,,,,,,,,,,,,1,001,2025-01-02_21h02.29.648,IAT(Formal),2021.2.3,Win32,59.88023952,,,,,,,,,,,,,,,,,,,,,,,,,,,,,,,,,,,,,,,,,,,,,,,,,,,,,轻率,i,,,i,1,0.9346,0,66,66,48,1,,
,,,,,,,,,,,,,1,001,2025-01-02_21h02.29.648,IAT(Formal),2021.2.3,Win32,59.88023952,,,,,,,,,,,,,,,,,,,,,,,,,,,,,,,,,,,,,,,,,,,,,,,,,,,,,勤奋,e,,,e,1,0.6966,0,67,67,18,1,,
,,,,,,,,,,,,,1,001,2025-01-02_21h02.29.648,IAT(Formal),2021.2.3,Win32,59.88023952,,,,,,,,,,,,,,,,,,,,,,,,,,,,,,,,,,,,,,,,,,,,,,,,,,,,,他们,e,,,e,1,0.9023,0,68,68,76,1,,
,,,,,,,,,,,,,1,001,2025-01-02_21h02.29.648,IAT(Formal),2021.2.3,Win32,59.88023952,,,,,,,,,,,,,,,,,,,,,,,,,,,,,,,,,,,,,,,,,,,,,,,,,,,,,我,i,,,i,1,0.7622,0,69,69,70,1,,
,,,,,,,,,,,,,1,001,2025-01-02_21h02.29.648,IAT(Formal),2021.2.3,Win32,59.88023952,,,,,,,,,,,,,,,,,,,,,,,,,,,,,,,,,,,,,,,,,,,,,,,,,,,,,暴躁,i,,,i,1,0.7982,0,70,70,44,1,,
,,,,,,,,,,,,,1,001,2025-01-02_21h02.29.648,IAT(Formal),2021.2.3,Win32,59.88023952,,,,,,,,,,,,,,,,,,,,,,,,,,,,,,,,,,,,,,,,,,,,,,,,,,,,,认真,e,,,e,1,0.8593,0,71,71,20,1,,
,,,,,,,,,,,,,1,001,2025-01-02_21h02.29.648,IAT(Formal),2021.2.3,Win32,59.88023952,,,,,,,,,,,,,,,,,,,,,,,,,,,,,,,,,,,,,,,,,,,,,,,,,,,,,我的,i,,,e,0,0.969,0,72,72,61,1,,
,,,,,,,,,,,,,1,001,2025-01-02_21h02.29.648,IAT(Formal),2021.2.3,Win32,59.88023952,,,,,,,,,,,,,,,,,,,,,,,,,,,,,,,,,,,,,,,,,,,,,,,,,,,,,其他,e,,,e,1,0.7648,0,73,73,9,1,,
,,,,,,,,,,,,,1,001,2025-01-02_21h02.29.648,IAT(Formal),2021.2.3,Win32,59.88023952,,,,,,,,,,,,,,,,,,,,,,,,,,,,,,,,,,,,,,,,,,,,,,,,,,,,,他的,e,,,e,1,1.2639,0,74,74,7,1,,
,,,,,,,,,,,,,1,001,2025-01-02_21h02.29.648,IAT(Formal),2021.2.3,Win32,59.88023952,,,,,,,,,,,,,,,,,,,,,,,,,,,,,,,,,,,,,,,,,,,,,,,,,,,,,他们,e,,,e,1,0.732,0,75,75,56,1,,
,,,,,,,,,,,,,1,001,2025-01-02_21h02.29.648,IAT(Formal),2021.2.3,Win32,59.88023952,,,,,,,,,,,,,,,,,,,,,,,,,,,,,,,,,,,,,,,,,,,,,,,,,,,,,我的,i,,,i,1,0.8309,0,76,76,1,1,,
,,,,,,,,,,,,,1,001,2025-01-02_21h02.29.648,IAT(Formal),2021.2.3,Win32,59.88023952,,,,,,,,,,,,,,,,,,,,,,,,,,,,,,,,,,,,,,,,,,,,,,,,,,,,,自己,i,,,i,1,0.9052,0,77,77,63,1,,
,,,,,,,,,,,,,1,001,2025-01-02_21h02.29.648,IAT(Formal),2021.2.3,Win32,59.88023952,,,,,,,,,,,,,,,,,,,,,,,,,,,,,,,,,,,,,,,,,,,,,,,,,,,,,悲观,i,,,i,1,1.2042,0,78,78,34,1,,
,,,,,,,,,,,,,1,001,2025-01-02_21h02.29.648,IAT(Formal),2021.2.3,Win32,59.88023952,,,,,,,,,,,,,,,,,,,,,,,,,,,,,,,,,,,,,,,,,,,,,,,,,,,,,热情,e,,,e,1,0.6667,0,79,79,27,1,,
,,,,,,,,,,,,,1,001,2025-01-02_21h02.29.648,IAT(Formal),2021.2.3,Win32,59.88023952,,,,,,,,,,,,,,,,,,,,,,,,,,,,,,,,,,,,,,,,,,,,,,,,,,,,,散漫,i,,,i,1,0.668,1,0,80,41,1,,
,,,,,,,,,,,,,1,001,2025-01-02_21h02.29.648,IAT(Formal),2021.2.3,Win32,59.88023952,,,,,,,,,,,,,,,,,,,,,,,,,,,,,,,,,,,,,,,,,,,,,,,,,,,,,我的,i,,,i,1,0.9015,1,1,81,71,1,,
,,,,,,,,,,,,,1,001,2025-01-02_21h02.29.648,IAT(Formal),2021.2.3,Win32,59.88023952,,,,,,,,,,,,,,,,,,,,,,,,,,,,,,,,,,,,,,,,,,,,,,,,,,,,,他人,e,,,e,1,0.7702,1,2,82,78,1,,
,,,,,,,,,,,,,1,001,2025-01-02_21h02.29.648,IAT(Formal),2021.2.3,Win32,59.88023952,,,,,,,,,,,,,,,,,,,,,,,,,,,,,,,,,,,,,,,,,,,,,,,,,,,,,我的,i,,,i,1,1.2298,1,3,83,51,1,,
,,,,,,,,,,,,,1,001,2025-01-02_21h02.29.648,IAT(Formal),2021.2.3,Win32,59.88023952,,,,,,,,,,,,,,,,,,,,,,,,,,,,,,,,,,,,,,,,,,,,,,,,,,,,,他,e,,,e,1,0.9681,1,4,84,5,1,,
,,,,,,,,,,,,,1,001,2025-01-02_21h02.29.648,IAT(Formal),2021.2.3,Win32,59.88023952,,,,,,,,,,,,,,,,,,,,,,,,,,,,,,,,,,,,,,,,,,,,,,,,,,,,,俺,i,,,i,1,1.2341,1,5,85,74,1,,
,,,,,,,,,,,,,1,001,2025-01-02_21h02.29.648,IAT(Formal),2021.2.3,Win32,59.88023952,,,,,,,,,,,,,,,,,,,,,,,,,,,,,,,,,,,,,,,,,,,,,,,,,,,,,朴实,e,,,e,1,0.8673,1,6,86,24,1,,
,,,,,,,,,,,,,1,001,2025-01-02_21h02.29.648,IAT(Formal),2021.2.3,Win32,59.88023952,,,,,,,,,,,,,,,,,,,,,,,,,,,,,,,,,,,,,,,,,,,,,,,,,,,,,俺,i,,,i,1,1.1648,1,7,87,4,1,,
,,,,,,,,,,,,,1,001,2025-01-02_21h02.29.648,IAT(Formal),2021.2.3,Win32,59.88023952,,,,,,,,,,,,,,,,,,,,,,,,,,,,,,,,,,,,,,,,,,,,,,,,,,,,,固执,i,,,i,1,1.1982,1,8,88,47,1,,
,,,,,,,,,,,,,1,001,2025-01-02_21h02.29.648,IAT(Formal),2021.2.3,Win32,59.88023952,,,,,,,,,,,,,,,,,,,,,,,,,,,,,,,,,,,,,,,,,,,,,,,,,,,,,正直,e,,,e,1,0.6694,1,9,89,16,1,,
,,,,,,,,,,,,,1,001,2025-01-02_21h02.29.648,IAT(Formal),2021.2.3,Win32,59.88023952,,,,,,,,,,,,,,,,,,,,,,,,,,,,,,,,,,,,,,,,,,,,,,,,,,,,,我们,i,,,i,1,0.9356,1,10,90,52,1,,
,,,,,,,,,,,,,1,001,2025-01-02_21h02.29.648,IAT(Formal),2021.2.3,Win32,59.88023952,,,,,,,,,,,,,,,,,,,,,,,,,,,,,,,,,,,,,,,,,,,,,,,,,,,,,我们,i,,,i,1,0.9004,1,11,91,2,1,,
,,,,,,,,,,,,,1,001,2025-01-02_21h02.29.648,IAT(Formal),2021.2.3,Win32,59.88023952,,,,,,,,,,,,,,,,,,,,,,,,,,,,,,,,,,,,,,,,,,,,,,,,,,,,,消极,i,,,i,1,1.1026,1,12,92,35,1,,
,,,,,,,,,,,,,1,001,2025-01-02_21h02.29.648,IAT(Formal),2021.2.3,Win32,59.88023952,,,,,,,,,,,,,,,,,,,,,,,,,,,,,,,,,,,,,,,,,,,,,,,,,,,,,他人,e,,,e,1,0.9328,1,13,93,8,1,,
,,,,,,,,,,,,,1,001,2025-01-02_21h02.29.648,IAT(Formal),2021.2.3,Win32,59.88023952,,,,,,,,,,,,,,,,,,,,,,,,,,,,,,,,,,,,,,,,,,,,,,,,,,,,,其他,e,,,e,1,0.6643,1,14,94,59,1,,
,,,,,,,,,,,,,1,001,2025-01-02_21h02.29.648,IAT(Formal),2021.2.3,Win32,59.88023952,,,,,,,,,,,,,,,,,,,,,,,,,,,,,,,,,,,,,,,,,,,,,,,,,,,,,暴躁,i,,,i,1,0.9684,1,15,95,44,1,,
,,,,,,,,,,,,,1,001,2025-01-02_21h02.29.648,IAT(Formal),2021.2.3,Win32,59.88023952,,,,,,,,,,,,,,,,,,,,,,,,,,,,,,,,,,,,,,,,,,,,,,,,,,,,,他人,e,,,e,1,0.9025,1,16,96,68,1,,
,,,,,,,,,,,,,1,001,2025-01-02_21h02.29.648,IAT(Formal),2021.2.3,Win32,59.88023952,,,,,,,,,,,,,,,,,,,,,,,,,,,,,,,,,,,,,,,,,,,,,,,,,,,,,我,i,,,i,1,1.3012,1,17,97,60,1,,
,,,,,,,,,,,,,1,001,2025-01-02_21h02.29.648,IAT(Formal),2021.2.3,Win32,59.88023952,,,,,,,,,,,,,,,,,,,,,,,,,,,,,,,,,,,,,,,,,,,,,,,,,,,,,我的,i,,,i,1,0.6991,1,18,98,61,1,,
,,,,,,,,,,,,,1,001,2025-01-02_21h02.29.648,IAT(Formal),2021.2.3,Win32,59.88023952,,,,,,,,,,,,,,,,,,,,,,,,,,,,,,,,,,,,,,,,,,,,,,,,,,,,,勤奋,e,,,e,1,0.906,1,19,99,18,1,,
,,,,,,,,,,,,,1,001,2025-01-02_21h02.29.648,IAT(Formal),2021.2.3,Win32,59.88023952,,,,,,,,,,,,,,,,,,,,,,,,,,,,,,,,,,,,,,,,,,,,,,,,,,,,,愚蠢,i,,,i,1,0.7013,1,20,100,32,1,,
,,,,,,,,,,,,,1,001,2025-01-02_21h02.29.648,IAT(Formal),2021.2.3,Win32,59.88023952,,,,,,,,,,,,,,,,,,,,,,,,,,,,,,,,,,,,,,,,,,,,,,,,,,,,,活泼,e,,,e,1,0.8284,1,21,101,28,1,,
,,,,,,,,,,,,,1,001,2025-01-02_21h02.29.648,IAT(Formal),2021.2.3,Win32,59.88023952,,,,,,,,,,,,,,,,,,,,,,,,,,,,,,,,,,,,,,,,,,,,,,,,,,,,,自己,i,,,i,1,0.7971,1,22,102,73,1,,
,,,,,,,,,,,,,1,001,2025-01-02_21h02.29.648,IAT(Formal),2021.2.3,Win32,59.88023952,,,,,,,,,,,,,,,,,,,,,,,,,,,,,,,,,,,,,,,,,,,,,,,,,,,,,俺,i,,,i,1,0.7975,1,23,103,64,1,,
,,,,,,,,,,,,,1,001,2025-01-02_21h02.29.648,IAT(Formal),2021.2.3,Win32,59.88023952,,,,,,,,,,,,,,,,,,,,,,,,,,,,,,,,,,,,,,,,,,,,,,,,,,,,,诚恳,e,,,e,1,1.0956,1,24,104,29,1,,
,,,,,,,,,,,,,1,001,2025-01-02_21h02.29.648,IAT(Formal),2021.2.3,Win32,59.88023952,,,,,,,,,,,,,,,,,,,,,,,,,,,,,,,,,,,,,,,,,,,,,,,,,,,,,俺,i,,,i,1,0.9986,1,25,105,54,1,,
,,,,,,,,,,,,,1,001,2025-01-02_21h02.29.648,IAT(Formal),2021.2.3,Win32,59.88023952,,,,,,,,,,,,,,,,,,,,,,,,,,,,,,,,,,,,,,,,,,,,,,,,,,,,,他们,e,,,e,1,1.1954,1,26,106,66,1,,
,,,,,,,,,,,,,1,001,2025-01-02_21h02.29.648,IAT(Formal),2021.2.3,Win32,59.88023952,,,,,,,,,,,,,,,,,,,,,,,,,,,,,,,,,,,,,,,,,,,,,,,,,,,,,下贱,i,,,i,1,1.1326,1,27,107,49,1,,
,,,,,,,,,,,,,1,001,2025-01-02_21h02.29.648,IAT(Formal),2021.2.3,Win32,59.88023952,,,,,,,,,,,,,,,,,,,,,,,,,,,,,,,,,,,,,,,,,,,,,,,,,,,,,我,i,,,i,1,1.4371,1,28,108,0,1,,
,,,,,,,,,,,,,1,001,2025-01-02_21h02.29.648,IAT(Formal),2021.2.3,Win32,59.88023952,,,,,,,,,,,,,,,,,,,,,,,,,,,,,,,,,,,,,,,,,,,,,,,,,,,,,细腻,e,,,e,1,0.9676,1,29,109,25,1,,
,,,,,,,,,,,,,1,001,2025-01-02_21h02.29.648,IAT(Formal),2021.2.3,Win32,59.88023952,,,,,,,,,,,,,,,,,,,,,,,,,,,,,,,,,,,,,,,,,,,,,,,,,,,,,他的,e,,,,0,,1,30,110,77,1,,
,,,,,,,,,,,,,1,001,2025-01-02_21h02.29.648,IAT(Formal),2021.2.3,Win32,59.88023952,,,,,,,,,,,,,,,,,,,,,,,,,,,,,,,,,,,,,,,,,,,,,,,,,,,,,稳重,e,,,,0,,1,31,111,21,1,,
,,,,,,,,,,,,,1,001,2025-01-02_21h02.29.648,IAT(Formal),2021.2.3,Win32,59.88023952,,,,,,,,,,,,,,,,,,,,,,,,,,,,,,,,,,,,,,,,,,,,,,,,,,,,,他的,e,,,e,1,0.9011,1,32,112,7,1,,
,,,,,,,,,,,,,1,001,2025-01-02_21h02.29.648,IAT(Formal),2021.2.3,Win32,59.88023952,,,,,,,,,,,,,,,,,,,,,,,,,,,,,,,,,,,,,,,,,,,,,,,,,,,,,卑鄙,i,,,i,1,1.3011,1,33,113,30,1,,
,,,,,,,,,,,,,1,001,2025-01-02_21h02.29.648,IAT(Formal),2021.2.3,Win32,59.88023952,,,,,,,,,,,,,,,,,,,,,,,,,,,,,,,,,,,,,,,,,,,,,,,,,,,,,聪明,e,,,e,1,0.7644,1,34,114,12,1,,
,,,,,,,,,,,,,1,001,2025-01-02_21h02.29.648,IAT(Formal),2021.2.3,Win32,59.88023952,,,,,,,,,,,,,,,,,,,,,,,,,,,,,,,,,,,,,,,,,,,,,,,,,,,,,其他,e,,,e,1,0.8327,1,35,115,69,1,,
,,,,,,,,,,,,,1,001,2025-01-02_21h02.29.648,IAT(Formal),2021.2.3,Win32,59.88023952,,,,,,,,,,,,,,,,,,,,,,,,,,,,,,,,,,,,,,,,,,,,,,,,,,,,,我们,i,,,i,1,1.1666,1,36,116,62,1,,
,,,,,,,,,,,,,1,001,2025-01-02_21h02.29.648,IAT(Formal),2021.2.3,Win32,59.88023952,,,,,,,,,,,,,,,,,,,,,,,,,,,,,,,,,,,,,,,,,,,,,,,,,,,,,我,i,,,i,1,1.129,1,37,117,70,1,,
,,,,,,,,,,,,,1,001,2025-01-02_21h02.29.648,IAT(Formal),2021.2.3,Win32,59.88023952,,,,,,,,,,,,,,,,,,,,,,,,,,,,,,,,,,,,,,,,,,,,,,,,,,,,,乐观,e,,,e,1,0.9407,1,38,118,14,1,,
,,,,,,,,,,,,,1,001,2025-01-02_21h02.29.648,IAT(Formal),2021.2.3,Win32,59.88023952,,,,,,,,,,,,,,,,,,,,,,,,,,,,,,,,,,,,,,,,,,,,,,,,,,,,,悲观,i,,,,0,,1,39,119,34,1,,
,,,,,,,,,,,,,1,001,2025-01-02_21h02.29.648,IAT(Formal),2021.2.3,Win32,59.88023952,,,,,,,,,,,,,,,,,,,,,,,,,,,,,,,,,,,,,,,,,,,,,,,,,,,,,其他,e,,,,0,,1,40,120,79,1,,
,,,,,,,,,,,,,1,001,2025-01-02_21h02.29.648,IAT(Formal),2021.2.3,Win32,59.88023952,,,,,,,,,,,,,,,,,,,,,,,,,,,,,,,,,,,,,,,,,,,,,,,,,,,,,崇高,e,,,,0,,1,41,121,11,1,,
,,,,,,,,,,,,,1,001,2025-01-02_21h02.29.648,IAT(Formal),2021.2.3,Win32,59.88023952,,,,,,,,,,,,,,,,,,,,,,,,,,,,,,,,,,,,,,,,,,,,,,,,,,,,,他们,e,,,,0,,1,42,122,76,1,,
,,,,,,,,,,,,,1,001,2025-01-02_21h02.29.648,IAT(Formal),2021.2.3,Win32,59.88023952,,,,,,,,,,,,,,,,,,,,,,,,,,,,,,,,,,,,,,,,,,,,,,,,,,,,,他人,e,,,,0,,1,43,123,58,1,,
,,,,,,,,,,,,,1,001,2025-01-02_21h02.29.648,IAT(Formal),2021.2.3,Win32,59.88023952,,,,,,,,,,,,,,,,,,,,,,,,,,,,,,,,,,,,,,,,,,,,,,,,,,,,,杰出,e,,,,0,,1,44,124,13,1,,
,,,,,,,,,,,,,1,001,2025-01-02_21h02.29.648,IAT(Formal),2021.2.3,Win32,59.88023952,,,,,,,,,,,,,,,,,,,,,,,,,,,,,,,,,,,,,,,,,,,,,,,,,,,,,猖狂,i,,,,0,,1,45,125,45,1,,
,,,,,,,,,,,,,1,001,2025-01-02_21h02.29.648,IAT(Formal),2021.2.3,Win32,59.88023952,,,,,,,,,,,,,,,,,,,,,,,,,,,,,,,,,,,,,,,,,,,,,,,,,,,,,冷静,e,,,,0,,1,46,126,26,1,,
,,,,,,,,,,,,,1,001,2025-01-02_21h02.29.648,IAT(Formal),2021.2.3,Win32,59.88023952,,,,,,,,,,,,,,,,,,,,,,,,,,,,,,,,,,,,,,,,,,,,,,,,,,,,,无私,e,,,,0,,1,47,127,22,1,,
,,,,,,,,,,,,,1,001,2025-01-02_21h02.29.648,IAT(Formal),2021.2.3,Win32,59.88023952,,,,,,,,,,,,,,,,,,,,,,,,,,,,,,,,,,,,,,,,,,,,,,,,,,,,,他们,e,,,,0,,1,48,128,6,1,,
,,,,,,,,,,,,,1,001,2025-01-02_21h02.29.648,IAT(Formal),2021.2.3,Win32,59.88023952,,,,,,,,,,,,,,,,,,,,,,,,,,,,,,,,,,,,,,,,,,,,,,,,,,,,,自己,i,,,e,0,1.4066,1,49,129,53,1,,
,,,,,,,,,,,,,1,001,2025-01-02_21h02.29.648,IAT(Formal),2021.2.3,Win32,59.88023952,,,,,,,,,,,,,,,,,,,,,,,,,,,,,,,,,,,,,,,,,,,,,,,,,,,,,优秀,e,,,e,1,0.9361,1,50,130,10,1,,
,,,,,,,,,,,,,1,001,2025-01-02_21h02.29.648,IAT(Formal),2021.2.3,Win32,59.88023952,,,,,,,,,,,,,,,,,,,,,,,,,,,,,,,,,,,,,,,,,,,,,,,,,,,,,他的,e,,,e,1,1.1344,1,51,131,57,1,,
,,,,,,,,,,,,,1,001,2025-01-02_21h02.29.648,IAT(Formal),2021.2.3,Win32,59.88023952,,,,,,,,,,,,,,,,,,,,,,,,,,,,,,,,,,,,,,,,,,,,,,,,,,,,,刻薄,i,,,i,1,0.832,1,52,132,33,1,,
,,,,,,,,,,,,,1,001,2025-01-02_21h02.29.648,IAT(Formal),2021.2.3,Win32,59.88023952,,,,,,,,,,,,,,,,,,,,,,,,,,,,,,,,,,,,,,,,,,,,,,,,,,,,,傲慢,i,,,i,1,0.8338,1,53,133,37,1,,
,,,,,,,,,,,,,1,001,2025-01-02_21h02.29.648,IAT(Formal),2021.2.3,Win32,59.88023952,,,,,,,,,,,,,,,,,,,,,,,,,,,,,,,,,,,,,,,,,,,,,,,,,,,,,机智,e,,,e,1,0.8665,1,54,134,19,1,,
,,,,,,,,,,,,,1,001,2025-01-02_21h02.29.648,IAT(Formal),2021.2.3,Win32,59.88023952,,,,,,,,,,,,,,,,,,,,,,,,,,,,,,,,,,,,,,,,,,,,,,,,,,,,,我们,i,,,i,1,0.9679,1,55,135,72,1,,
,,,,,,,,,,,,,1,001,2025-01-02_21h02.29.648,IAT(Formal),2021.2.3,Win32,59.88023952,,,,,,,,,,,,,,,,,,,,,,,,,,,,,,,,,,,,,,,,,,,,,,,,,,,,,自己,i,,,i,1,0.967,1,56,136,63,1,,
,,,,,,,,,,,,,1,001,2025-01-02_21h02.29.648,IAT(Formal),2021.2.3,Win32,59.88023952,,,,,,,,,,,,,,,,,,,,,,,,,,,,,,,,,,,,,,,,,,,,,,,,,,,,,他们,e,,,e,1,0.7694,1,57,137,56,1,,
,,,,,,,,,,,,,1,001,2025-01-02_21h02.29.648,IAT(Formal),2021.2.3,Win32,59.88023952,,,,,,,,,,,,,,,,,,,,,,,,,,,,,,,,,,,,,,,,,,,,,,,,,,,,,执拗,i,,,i,1,1,1,58,138,40,1,,
,,,,,,,,,,,,,1,001,2025-01-02_21h02.29.648,IAT(Formal),2021.2.3,Win32,59.88023952,,,,,,,,,,,,,,,,,,,,,,,,,,,,,,,,,,,,,,,,,,,,,,,,,,,,,自私,i,,,,0,,1,59,139,43,1,,
,,,,,,,,,,,,,1,001,2025-01-02_21h02.29.648,IAT(Formal),2021.2.3,Win32,59.88023952,,,,,,,,,,,,,,,,,,,,,,,,,,,,,,,,,,,,,,,,,,,,,,,,,,,,,诚实,e,,,e,1,0.6683,1,60,140,15,1,,
,,,,,,,,,,,,,1,001,2025-01-02_21h02.29.648,IAT(Formal),2021.2.3,Win32,59.88023952,,,,,,,,,,,,,,,,,,,,,,,,,,,,,,,,,,,,,,,,,,,,,,,,,,,,,他,e,,,e,1,1.0688,1,61,141,65,1,,
,,,,,,,,,,,,,1,001,2025-01-02_21h02.29.648,IAT(Formal),2021.2.3,Win32,59.88023952,,,,,,,,,,,,,,,,,,,,,,,,,,,,,,,,,,,,,,,,,,,,,,,,,,,,,认真,e,,,e,1,1.4327,1,62,142,20,1,,
,,,,,,,,,,,,,1,001,2025-01-02_21h02.29.648,IAT(Formal),2021.2.3,Win32,59.88023952,,,,,,,,,,,,,,,,,,,,,,,,,,,,,,,,,,,,,,,,,,,,,,,,,,,,,他的,e,,,e,1,0.9678,1,63,143,67,1,,
,,,,,,,,,,,,,1,001,2025-01-02_21h02.29.648,IAT(Formal),2021.2.3,Win32,59.88023952,,,,,,,,,,,,,,,,,,,,,,,,,,,,,,,,,,,,,,,,,,,,,,,,,,,,,虚伪,i,,,i,1,0.8291,1,64,144,31,1,,
,,,,,,,,,,,,,1,001,2025-01-02_21h02.29.648,IAT(Formal),2021.2.3,Win32,59.88023952,,,,,,,,,,,,,,,,,,,,,,,,,,,,,,,,,,,,,,,,,,,,,,,,,,,,,野蛮,i,,,i,1,1.3345,1,65,145,46,1,,
,,,,,,,,,,,,,1,001,2025-01-02_21h02.29.648,IAT(Formal),2021.2.3,Win32,59.88023952,,,,,,,,,,,,,,,,,,,,,,,,,,,,,,,,,,,,,,,,,,,,,,,,,,,,,公正,e,,,e,1,0.7441,1,66,146,23,1,,
,,,,,,,,,,,,,1,001,2025-01-02_21h02.29.648,IAT(Formal),2021.2.3,Win32,59.88023952,,,,,,,,,,,,,,,,,,,,,,,,,,,,,,,,,,,,,,,,,,,,,,,,,,,,,冒失,i,,,i,1,0.8312,1,67,147,39,1,,
,,,,,,,,,,,,,1,001,2025-01-02_21h02.29.648,IAT(Formal),2021.2.3,Win32,59.88023952,,,,,,,,,,,,,,,,,,,,,,,,,,,,,,,,,,,,,,,,,,,,,,,,,,,,,轻率,i,,,i,1,0.7634,1,68,148,48,1,,
,,,,,,,,,,,,,1,001,2025-01-02_21h02.29.648,IAT(Formal),2021.2.3,Win32,59.88023952,,,,,,,,,,,,,,,,,,,,,,,,,,,,,,,,,,,,,,,,,,,,,,,,,,,,,自己,i,,,,0,,1,69,149,3,1,,
,,,,,,,,,,,,,1,001,2025-01-02_21h02.29.648,IAT(Formal),2021.2.3,Win32,59.88023952,,,,,,,,,,,,,,,,,,,,,,,,,,,,,,,,,,,,,,,,,,,,,,,,,,,,,我,i,,,i,1,0.5991,1,70,150,50,1,,
,,,,,,,,,,,,,1,001,2025-01-02_21h02.29.648,IAT(Formal),2021.2.3,Win32,59.88023952,,,,,,,,,,,,,,,,,,,,,,,,,,,,,,,,,,,,,,,,,,,,,,,,,,,,,凶狠,i,,,i,1,0.8047,1,71,151,42,1,,
,,,,,,,,,,,,,1,001,2025-01-02_21h02.29.648,IAT(Formal),2021.2.3,Win32,59.88023952,,,,,,,,,,,,,,,,,,,,,,,,,,,,,,,,,,,,,,,,,,,,,,,,,,,,,他,e,,,e,1,0.6347,1,72,152,75,1,,
,,,,,,,,,,,,,1,001,2025-01-02_21h02.29.648,IAT(Formal),2021.2.3,Win32,59.88023952,,,,,,,,,,,,,,,,,,,,,,,,,,,,,,,,,,,,,,,,,,,,,,,,,,,,,我的,i,,,i,1,0.7691,1,73,153,1,1,,
,,,,,,,,,,,,,1,001,2025-01-02_21h02.29.648,IAT(Formal),2021.2.3,Win32,59.88023952,,,,,,,,,,,,,,,,,,,,,,,,,,,,,,,,,,,,,,,,,,,,,,,,,,,,,自卑,i,,,i,1,0.769,1,74,154,36,1,,
,,,,,,,,,,,,,1,001,2025-01-02_21h02.29.648,IAT(Formal),2021.2.3,Win32,59.88023952,,,,,,,,,,,,,,,,,,,,,,,,,,,,,,,,,,,,,,,,,,,,,,,,,,,,,他,e,,,e,1,0.7654,1,75,155,55,1,,
,,,,,,,,,,,,,1,001,2025-01-02_21h02.29.648,IAT(Formal),2021.2.3,Win32,59.88023952,,,,,,,,,,,,,,,,,,,,,,,,,,,,,,,,,,,,,,,,,,,,,,,,,,,,,勇敢,e,,,e,1,1.2964,1,76,156,17,1,,
,,,,,,,,,,,,,1,001,2025-01-02_21h02.29.648,IAT(Formal),2021.2.3,Win32,59.88023952,,,,,,,,,,,,,,,,,,,,,,,,,,,,,,,,,,,,,,,,,,,,,,,,,,,,,其他,e,,,e,1,0.9342,1,77,157,9,1,,
,,,,,,,,,,,,,1,001,2025-01-02_21h02.29.648,IAT(Formal),2021.2.3,Win32,59.88023952,,,,,,,,,,,,,,,,,,,,,,,,,,,,,,,,,,,,,,,,,,,,,,,,,,,,,鲁莽,i,,,i,1,0.8337,1,78,158,38,1,,
,,,,,,,,,,,,,1,001,2025-01-02_21h02.29.648,IAT(Formal),2021.2.3,Win32,59.88023952,,,,,,,,,,,,,,,,,,,,,,,,,,,,,,,,,,,,,,,,,,,,,,,,,,,,,热情,e,,,i,0,1.2343,1,79,159,27,1,,
,,,,,,,,,,,,,1,001,2025-01-02_21h02.29.648,IAT(Formal),2021.2.3,Win32,59.88023952,,,,,,,,,,,,,,,,,,,,,,,,,,,,,,,,,,,,,,,,,,,,,,,,,,,,,,,,,,,,,,,,,space,2.4947