﻿Instruction1.keys,Instruction1.rt,Instruction2.keys,Instruction2.rt,key_resp_iso.keys,key_resp_iso.corr,Practice_01.thisRepN,Practice_01.thisTrialN,Practice_01.thisN,Practice_01.thisIndex,Practice_01.ran,Words,ans,participant,session,date,expName,psychopyVersion,OS,frameRate,key_resp_iso.rt,key_resp_3.keys,key_resp_3.rt,key_resp_ipn.keys,key_resp_ipn.corr,key_resp_ipn.rt,Practice_02.thisRepN,Practice_02.thisTrialN,Practice_02.thisN,Practice_02.thisIndex,Practice_02.ran,Words_ipn,ans_ipn,key_resp_4.keys,key_resp_4.rt,key_resp_t1.keys,key_resp_t1.corr,key_resp_t1.rt,Practice_T1.thisRepN,Practice_T1.thisTrialN,Practice_T1.thisN,Practice_T1.thisIndex,Practice_T1.ran,Words_t1,ans_t1,key_resp_5.keys,key_resp_5.rt,Formal_T1.thisRepN,Formal_T1.thisTrialN,Formal_T1.thisN,Formal_T1.thisIndex,Formal_T1.ran,key_resp_6.keys,key_resp_6.rt,key_resp_iso_reverse.keys,key_resp_iso_reverse.corr,key_resp_iso_reverse.rt,Practice_iso_Reverse.thisRepN,Practice_iso_Reverse.thisTrialN,Practice_iso_Reverse.thisN,Practice_iso_Reverse.thisIndex,Practice_iso_Reverse.ran,key_resp_7.keys,key_resp_7.rt,key_resp_t2_Practice.keys,key_resp_t2_Practice.corr,key_resp_t2_Practice.rt,Practice_t2_Reverse.thisRepN,Practice_t2_Reverse.thisTrialN,Practice_t2_Reverse.thisN,Practice_t2_Reverse.thisIndex,Practice_t2_Reverse.ran,Words_t2,ans_t2,key_resp_8.keys,key_resp_8.rt,key_resp_t2.keys,key_resp_t2.corr,key_resp_t2.rt,Formal_t2_reverse.thisRepN,Formal_t2_reverse.thisTrialN,Formal_t2_reverse.thisN,Formal_t2_reverse.thisIndex,Formal_t2_reverse.ran,key_instruct.keys,key_instruct.rt
space,3.048,space,4.7677,,0,0,0,0,1,1,我的,e,1,001,2025-01-14_12h18.21.616,IAT(Formal),2021.2.3,Win32,60.97560976,,,,,,,,,,,,,,,,,,,,,,,,,,,,,,,,,,,,,,,,,,,,,,,,,,,,,,,,,,,,,,,,,,
,,,,,0,0,1,1,2,1,我们,e,1,001,2025-01-14_12h18.21.616,IAT(Formal),2021.2.3,Win32,60.97560976,,,,,,,,,,,,,,,,,,,,,,,,,,,,,,,,,,,,,,,,,,,,,,,,,,,,,,,,,,,,,,,,,,
,,,,e,0,0,2,2,6,1,他们,i,1,001,2025-01-14_12h18.21.616,IAT(Formal),2021.2.3,Win32,60.97560976,0.5549,,,,,,,,,,,,,,,,,,,,,,,,,,,,,,,,,,,,,,,,,,,,,,,,,,,,,,,,,,,,,,,,,
,,,,e,0,0,3,3,8,1,他人,i,1,001,2025-01-14_12h18.21.616,IAT(Formal),2021.2.3,Win32,60.97560976,0.325,,,,,,,,,,,,,,,,,,,,,,,,,,,,,,,,,,,,,,,,,,,,,,,,,,,,,,,,,,,,,,,,,
,,,,i,0,0,4,4,0,1,我,e,1,001,2025-01-14_12h18.21.616,IAT(Formal),2021.2.3,Win32,60.97560976,0.9786,,,,,,,,,,,,,,,,,,,,,,,,,,,,,,,,,,,,,,,,,,,,,,,,,,,,,,,,,,,,,,,,,
,,,,i,0,0,5,5,4,1,俺,e,1,001,2025-01-14_12h18.21.616,IAT(Formal),2021.2.3,Win32,60.97560976,0.2995,,,,,,,,,,,,,,,,,,,,,,,,,,,,,,,,,,,,,,,,,,,,,,,,,,,,,,,,,,,,,,,,,
,,,,,0,0,6,6,5,1,他,i,1,001,2025-01-14_12h18.21.616,IAT(Formal),2021.2.3,Win32,60.97560976,,,,,,,,,,,,,,,,,,,,,,,,,,,,,,,,,,,,,,,,,,,,,,,,,,,,,,,,,,,,,,,,,,
,,,,e,1,0,7,7,3,1,自己,e,1,001,2025-01-14_12h18.21.616,IAT(Formal),2021.2.3,Win32,60.97560976,0.1346,,,,,,,,,,,,,,,,,,,,,,,,,,,,,,,,,,,,,,,,,,,,,,,,,,,,,,,,,,,,,,,,,
,,,,i,1,0,8,8,7,1,他的,i,1,001,2025-01-14_12h18.21.616,IAT(Formal),2021.2.3,Win32,60.97560976,0.4989,,,,,,,,,,,,,,,,,,,,,,,,,,,,,,,,,,,,,,,,,,,,,,,,,,,,,,,,,,,,,,,,,
,,,,i,1,0,9,9,9,1,其他,i,1,001,2025-01-14_12h18.21.616,IAT(Formal),2021.2.3,Win32,60.97560976,0.5194,,,,,,,,,,,,,,,,,,,,,,,,,,,,,,,,,,,,,,,,,,,,,,,,,,,,,,,,,,,,,,,,,
,,,,,,,,,,,,,1,001,2025-01-14_12h18.21.616,IAT(Formal),2021.2.3,Win32,60.97560976,,space,3.1372,i,1,0.5044,0,0,0,31,1,散漫,i,,,,,,,,,,,,,,,,,,,,,,,,,,,,,,,,,,,,,,,,,,,,,,,,,,,,,
,,,,,,,,,,,,,1,001,2025-01-14_12h18.21.616,IAT(Formal),2021.2.3,Win32,60.97560976,,,,e,1,0.4383,0,1,1,3,1,杰出,e,,,,,,,,,,,,,,,,,,,,,,,,,,,,,,,,,,,,,,,,,,,,,,,,,,,,,
,,,,,,,,,,,,,1,001,2025-01-14_12h18.21.616,IAT(Formal),2021.2.3,Win32,60.97560976,,,,e,1,0.6149,0,2,2,12,1,无私,e,,,,,,,,,,,,,,,,,,,,,,,,,,,,,,,,,,,,,,,,,,,,,,,,,,,,,
,,,,,,,,,,,,,1,001,2025-01-14_12h18.21.616,IAT(Formal),2021.2.3,Win32,60.97560976,,,,i,1,0.5031,0,3,3,36,1,野蛮,i,,,,,,,,,,,,,,,,,,,,,,,,,,,,,,,,,,,,,,,,,,,,,,,,,,,,,
,,,,,,,,,,,,,1,001,2025-01-14_12h18.21.616,IAT(Formal),2021.2.3,Win32,60.97560976,,,,e,1,0.4597,0,4,4,10,1,认真,e,,,,,,,,,,,,,,,,,,,,,,,,,,,,,,,,,,,,,,,,,,,,,,,,,,,,,
,,,,,,,,,,,,,1,001,2025-01-14_12h18.21.616,IAT(Formal),2021.2.3,Win32,60.97560976,,,,e,1,0.4673,0,5,5,11,1,稳重,e,,,,,,,,,,,,,,,,,,,,,,,,,,,,,,,,,,,,,,,,,,,,,,,,,,,,,
,,,,,,,,,,,,,1,001,2025-01-14_12h18.21.616,IAT(Formal),2021.2.3,Win32,60.97560976,,,,i,1,0.4035,0,6,6,29,1,冒失,i,,,,,,,,,,,,,,,,,,,,,,,,,,,,,,,,,,,,,,,,,,,,,,,,,,,,,
,,,,,,,,,,,,,1,001,2025-01-14_12h18.21.616,IAT(Formal),2021.2.3,Win32,60.97560976,,,,e,1,0.4122,0,7,7,4,1,乐观,e,,,,,,,,,,,,,,,,,,,,,,,,,,,,,,,,,,,,,,,,,,,,,,,,,,,,,
,,,,,,,,,,,,,1,001,2025-01-14_12h18.21.616,IAT(Formal),2021.2.3,Win32,60.97560976,,,,e,1,0.3353,0,8,8,6,1,正直,e,,,,,,,,,,,,,,,,,,,,,,,,,,,,,,,,,,,,,,,,,,,,,,,,,,,,,
,,,,,,,,,,,,,1,001,2025-01-14_12h18.21.616,IAT(Formal),2021.2.3,Win32,60.97560976,,,,e,1,0.3536,0,9,9,9,1,机智,e,,,,,,,,,,,,,,,,,,,,,,,,,,,,,,,,,,,,,,,,,,,,,,,,,,,,,
,,,,,,,,,,,,,1,001,2025-01-14_12h18.21.616,IAT(Formal),2021.2.3,Win32,60.97560976,,,,e,1,0.3716,0,10,10,17,1,热情,e,,,,,,,,,,,,,,,,,,,,,,,,,,,,,,,,,,,,,,,,,,,,,,,,,,,,,
,,,,,,,,,,,,,1,001,2025-01-14_12h18.21.616,IAT(Formal),2021.2.3,Win32,60.97560976,,,,i,1,0.4165,0,11,11,24,1,悲观,i,,,,,,,,,,,,,,,,,,,,,,,,,,,,,,,,,,,,,,,,,,,,,,,,,,,,,
,,,,,,,,,,,,,1,001,2025-01-14_12h18.21.616,IAT(Formal),2021.2.3,Win32,60.97560976,,,,e,1,0.4328,0,12,12,7,1,勇敢,e,,,,,,,,,,,,,,,,,,,,,,,,,,,,,,,,,,,,,,,,,,,,,,,,,,,,,
,,,,,,,,,,,,,1,001,2025-01-14_12h18.21.616,IAT(Formal),2021.2.3,Win32,60.97560976,,,,i,1,0.455,0,13,13,28,1,鲁莽,i,,,,,,,,,,,,,,,,,,,,,,,,,,,,,,,,,,,,,,,,,,,,,,,,,,,,,
,,,,,,,,,,,,,1,001,2025-01-14_12h18.21.616,IAT(Formal),2021.2.3,Win32,60.97560976,,,,i,1,0.4158,0,14,14,20,1,卑鄙,i,,,,,,,,,,,,,,,,,,,,,,,,,,,,,,,,,,,,,,,,,,,,,,,,,,,,,
,,,,,,,,,,,,,1,001,2025-01-14_12h18.21.616,IAT(Formal),2021.2.3,Win32,60.97560976,,,,i,1,0.4339,0,15,15,26,1,自卑,i,,,,,,,,,,,,,,,,,,,,,,,,,,,,,,,,,,,,,,,,,,,,,,,,,,,,,
,,,,,,,,,,,,,1,001,2025-01-14_12h18.21.616,IAT(Formal),2021.2.3,Win32,60.97560976,,,,i,1,0.4407,0,16,16,37,1,固执,i,,,,,,,,,,,,,,,,,,,,,,,,,,,,,,,,,,,,,,,,,,,,,,,,,,,,,
,,,,,,,,,,,,,1,001,2025-01-14_12h18.21.616,IAT(Formal),2021.2.3,Win32,60.97560976,,,,i,1,0.3996,0,17,17,23,1,刻薄,i,,,,,,,,,,,,,,,,,,,,,,,,,,,,,,,,,,,,,,,,,,,,,,,,,,,,,
,,,,,,,,,,,,,1,001,2025-01-14_12h18.21.616,IAT(Formal),2021.2.3,Win32,60.97560976,,,,i,1,0.3855,0,18,18,39,1,下贱,i,,,,,,,,,,,,,,,,,,,,,,,,,,,,,,,,,,,,,,,,,,,,,,,,,,,,,
,,,,,,,,,,,,,1,001,2025-01-14_12h18.21.616,IAT(Formal),2021.2.3,Win32,60.97560976,,,,i,1,0.4444,0,19,19,25,1,消极,i,,,,,,,,,,,,,,,,,,,,,,,,,,,,,,,,,,,,,,,,,,,,,,,,,,,,,
,,,,,,,,,,,,,1,001,2025-01-14_12h18.21.616,IAT(Formal),2021.2.3,Win32,60.97560976,,,,i,1,0.4599,0,20,20,30,1,执拗,i,,,,,,,,,,,,,,,,,,,,,,,,,,,,,,,,,,,,,,,,,,,,,,,,,,,,,
,,,,,,,,,,,,,1,001,2025-01-14_12h18.21.616,IAT(Formal),2021.2.3,Win32,60.97560976,,,,e,1,0.4429,0,21,21,14,1,朴实,e,,,,,,,,,,,,,,,,,,,,,,,,,,,,,,,,,,,,,,,,,,,,,,,,,,,,,
,,,,,,,,,,,,,1,001,2025-01-14_12h18.21.616,IAT(Formal),2021.2.3,Win32,60.97560976,,,,e,1,0.4028,0,22,22,0,1,优秀,e,,,,,,,,,,,,,,,,,,,,,,,,,,,,,,,,,,,,,,,,,,,,,,,,,,,,,
,,,,,,,,,,,,,1,001,2025-01-14_12h18.21.616,IAT(Formal),2021.2.3,Win32,60.97560976,,,,i,1,0.4289,0,23,23,21,1,虚伪,i,,,,,,,,,,,,,,,,,,,,,,,,,,,,,,,,,,,,,,,,,,,,,,,,,,,,,
,,,,,,,,,,,,,1,001,2025-01-14_12h18.21.616,IAT(Formal),2021.2.3,Win32,60.97560976,,,,i,1,0.5214,0,24,24,33,1,自私,i,,,,,,,,,,,,,,,,,,,,,,,,,,,,,,,,,,,,,,,,,,,,,,,,,,,,,
,,,,,,,,,,,,,1,001,2025-01-14_12h18.21.616,IAT(Formal),2021.2.3,Win32,60.97560976,,,,i,1,0.4558,0,25,25,22,1,愚蠢,i,,,,,,,,,,,,,,,,,,,,,,,,,,,,,,,,,,,,,,,,,,,,,,,,,,,,,
,,,,,,,,,,,,,1,001,2025-01-14_12h18.21.616,IAT(Formal),2021.2.3,Win32,60.97560976,,,,e,1,0.4743,0,26,26,13,1,公正,e,,,,,,,,,,,,,,,,,,,,,,,,,,,,,,,,,,,,,,,,,,,,,,,,,,,,,
,,,,,,,,,,,,,1,001,2025-01-14_12h18.21.616,IAT(Formal),2021.2.3,Win32,60.97560976,,,,i,1,0.4233,0,27,27,27,1,傲慢,i,,,,,,,,,,,,,,,,,,,,,,,,,,,,,,,,,,,,,,,,,,,,,,,,,,,,,
,,,,,,,,,,,,,1,001,2025-01-14_12h18.21.616,IAT(Formal),2021.2.3,Win32,60.97560976,,,,i,1,0.3922,0,28,28,32,1,凶狠,i,,,,,,,,,,,,,,,,,,,,,,,,,,,,,,,,,,,,,,,,,,,,,,,,,,,,,
,,,,,,,,,,,,,1,001,2025-01-14_12h18.21.616,IAT(Formal),2021.2.3,Win32,60.97560976,,,,e,1,0.4493,0,29,29,8,1,勤奋,e,,,,,,,,,,,,,,,,,,,,,,,,,,,,,,,,,,,,,,,,,,,,,,,,,,,,,
,,,,,,,,,,,,,1,001,2025-01-14_12h18.21.616,IAT(Formal),2021.2.3,Win32,60.97560976,,,,e,1,0.5376,0,30,30,1,1,崇高,e,,,,,,,,,,,,,,,,,,,,,,,,,,,,,,,,,,,,,,,,,,,,,,,,,,,,,
,,,,,,,,,,,,,1,001,2025-01-14_12h18.21.616,IAT(Formal),2021.2.3,Win32,60.97560976,,,,i,1,0.5156,0,31,31,34,1,暴躁,i,,,,,,,,,,,,,,,,,,,,,,,,,,,,,,,,,,,,,,,,,,,,,,,,,,,,,
,,,,,,,,,,,,,1,001,2025-01-14_12h18.21.616,IAT(Formal),2021.2.3,Win32,60.97560976,,,,i,1,0.7374,0,32,32,35,1,猖狂,i,,,,,,,,,,,,,,,,,,,,,,,,,,,,,,,,,,,,,,,,,,,,,,,,,,,,,
,,,,,,,,,,,,,1,001,2025-01-14_12h18.21.616,IAT(Formal),2021.2.3,Win32,60.97560976,,,,e,1,0.4685,0,33,33,19,1,诚恳,e,,,,,,,,,,,,,,,,,,,,,,,,,,,,,,,,,,,,,,,,,,,,,,,,,,,,,
,,,,,,,,,,,,,1,001,2025-01-14_12h18.21.616,IAT(Formal),2021.2.3,Win32,60.97560976,,,,e,1,0.4686,0,34,34,2,1,聪明,e,,,,,,,,,,,,,,,,,,,,,,,,,,,,,,,,,,,,,,,,,,,,,,,,,,,,,
,,,,,,,,,,,,,1,001,2025-01-14_12h18.21.616,IAT(Formal),2021.2.3,Win32,60.97560976,,,,i,1,0.4681,0,35,35,38,1,轻率,i,,,,,,,,,,,,,,,,,,,,,,,,,,,,,,,,,,,,,,,,,,,,,,,,,,,,,
,,,,,,,,,,,,,1,001,2025-01-14_12h18.21.616,IAT(Formal),2021.2.3,Win32,60.97560976,,,,e,1,0.427,0,36,36,5,1,诚实,e,,,,,,,,,,,,,,,,,,,,,,,,,,,,,,,,,,,,,,,,,,,,,,,,,,,,,
,,,,,,,,,,,,,1,001,2025-01-14_12h18.21.616,IAT(Formal),2021.2.3,Win32,60.97560976,,,,e,1,0.6027,0,37,37,16,1,冷静,e,,,,,,,,,,,,,,,,,,,,,,,,,,,,,,,,,,,,,,,,,,,,,,,,,,,,,
,,,,,,,,,,,,,1,001,2025-01-14_12h18.21.616,IAT(Formal),2021.2.3,Win32,60.97560976,,,,e,1,0.4662,0,38,38,18,1,活泼,e,,,,,,,,,,,,,,,,,,,,,,,,,,,,,,,,,,,,,,,,,,,,,,,,,,,,,
,,,,,,,,,,,,,1,001,2025-01-14_12h18.21.616,IAT(Formal),2021.2.3,Win32,60.97560976,,,,e,1,0.4739,0,39,39,15,1,细腻,e,,,,,,,,,,,,,,,,,,,,,,,,,,,,,,,,,,,,,,,,,,,,,,,,,,,,,
,,,,,,,,,,,,,1,001,2025-01-14_12h18.21.616,IAT(Formal),2021.2.3,Win32,60.97560976,,,,,,,,,,,,,,space,7.6542,e,1,0.3889,0,0,0,20,1,认真,e,,,,,,,,,,,,,,,,,,,,,,,,,,,,,,,,,,,,,,,,,
,,,,,,,,,,,,,1,001,2025-01-14_12h18.21.616,IAT(Formal),2021.2.3,Win32,60.97560976,,,,,,,,,,,,,,,,e,1,0.3607,0,1,1,23,1,公正,e,,,,,,,,,,,,,,,,,,,,,,,,,,,,,,,,,,,,,,,,,
,,,,,,,,,,,,,1,001,2025-01-14_12h18.21.616,IAT(Formal),2021.2.3,Win32,60.97560976,,,,,,,,,,,,,,,,e,0,0.3318,0,2,2,40,1,执拗,i,,,,,,,,,,,,,,,,,,,,,,,,,,,,,,,,,,,,,,,,,
,,,,,,,,,,,,,1,001,2025-01-14_12h18.21.616,IAT(Formal),2021.2.3,Win32,60.97560976,,,,,,,,,,,,,,,,i,1,0.6878,0,3,3,7,1,他的,i,,,,,,,,,,,,,,,,,,,,,,,,,,,,,,,,,,,,,,,,,
,,,,,,,,,,,,,1,001,2025-01-14_12h18.21.616,IAT(Formal),2021.2.3,Win32,60.97560976,,,,,,,,,,,,,,,,e,1,0.4204,0,4,4,13,1,杰出,e,,,,,,,,,,,,,,,,,,,,,,,,,,,,,,,,,,,,,,,,,
,,,,,,,,,,,,,1,001,2025-01-14_12h18.21.616,IAT(Formal),2021.2.3,Win32,60.97560976,,,,,,,,,,,,,,,,e,1,0.5108,0,5,5,60,1,我,e,,,,,,,,,,,,,,,,,,,,,,,,,,,,,,,,,,,,,,,,,
,,,,,,,,,,,,,1,001,2025-01-14_12h18.21.616,IAT(Formal),2021.2.3,Win32,60.97560976,,,,,,,,,,,,,,,,e,1,0.6368,0,6,6,4,1,俺,e,,,,,,,,,,,,,,,,,,,,,,,,,,,,,,,,,,,,,,,,,
,,,,,,,,,,,,,1,001,2025-01-14_12h18.21.616,IAT(Formal),2021.2.3,Win32,60.97560976,,,,,,,,,,,,,,,,i,1,0.4912,0,7,7,35,1,消极,i,,,,,,,,,,,,,,,,,,,,,,,,,,,,,,,,,,,,,,,,,
,,,,,,,,,,,,,1,001,2025-01-14_12h18.21.616,IAT(Formal),2021.2.3,Win32,60.97560976,,,,,,,,,,,,,,,,e,1,0.3856,0,8,8,16,1,正直,e,,,,,,,,,,,,,,,,,,,,,,,,,,,,,,,,,,,,,,,,,
,,,,,,,,,,,,,1,001,2025-01-14_12h18.21.616,IAT(Formal),2021.2.3,Win32,60.97560976,,,,,,,,,,,,,,,,e,1,0.4516,0,9,9,53,1,自己,e,,,,,,,,,,,,,,,,,,,,,,,,,,,,,,,,,,,,,,,,,
,,,,,,,,,,,,,1,001,2025-01-14_12h18.21.616,IAT(Formal),2021.2.3,Win32,60.97560976,,,,,,,,,,,,,,,,e,1,0.7165,0,10,10,21,1,稳重,e,,,,,,,,,,,,,,,,,,,,,,,,,,,,,,,,,,,,,,,,,
,,,,,,,,,,,,,1,001,2025-01-14_12h18.21.616,IAT(Formal),2021.2.3,Win32,60.97560976,,,,,,,,,,,,,,,,i,1,0.8069,0,11,11,76,1,他们,i,,,,,,,,,,,,,,,,,,,,,,,,,,,,,,,,,,,,,,,,,
,,,,,,,,,,,,,1,001,2025-01-14_12h18.21.616,IAT(Formal),2021.2.3,Win32,60.97560976,,,,,,,,,,,,,,,,e,1,0.607,0,12,12,29,1,诚恳,e,,,,,,,,,,,,,,,,,,,,,,,,,,,,,,,,,,,,,,,,,
,,,,,,,,,,,,,1,001,2025-01-14_12h18.21.616,IAT(Formal),2021.2.3,Win32,60.97560976,,,,,,,,,,,,,,,,i,1,0.4406,0,13,13,75,1,他,i,,,,,,,,,,,,,,,,,,,,,,,,,,,,,,,,,,,,,,,,,
,,,,,,,,,,,,,1,001,2025-01-14_12h18.21.616,IAT(Formal),2021.2.3,Win32,60.97560976,,,,,,,,,,,,,,,,i,1,0.5295,0,14,14,31,1,虚伪,i,,,,,,,,,,,,,,,,,,,,,,,,,,,,,,,,,,,,,,,,,
,,,,,,,,,,,,,1,001,2025-01-14_12h18.21.616,IAT(Formal),2021.2.3,Win32,60.97560976,,,,,,,,,,,,,,,,e,1,0.4786,0,15,15,27,1,热情,e,,,,,,,,,,,,,,,,,,,,,,,,,,,,,,,,,,,,,,,,,
,,,,,,,,,,,,,1,001,2025-01-14_12h18.21.616,IAT(Formal),2021.2.3,Win32,60.97560976,,,,,,,,,,,,,,,,i,1,0.558,0,16,16,55,1,他,i,,,,,,,,,,,,,,,,,,,,,,,,,,,,,,,,,,,,,,,,,
,,,,,,,,,,,,,1,001,2025-01-14_12h18.21.616,IAT(Formal),2021.2.3,Win32,60.97560976,,,,,,,,,,,,,,,,e,1,0.4148,0,17,17,11,1,崇高,e,,,,,,,,,,,,,,,,,,,,,,,,,,,,,,,,,,,,,,,,,
,,,,,,,,,,,,,1,001,2025-01-14_12h18.21.616,IAT(Formal),2021.2.3,Win32,60.97560976,,,,,,,,,,,,,,,,e,1,1.3358,0,18,18,12,1,聪明,e,,,,,,,,,,,,,,,,,,,,,,,,,,,,,,,,,,,,,,,,,
,,,,,,,,,,,,,1,001,2025-01-14_12h18.21.616,IAT(Formal),2021.2.3,Win32,60.97560976,,,,,,,,,,,,,,,,i,1,0.4366,0,19,19,43,1,自私,i,,,,,,,,,,,,,,,,,,,,,,,,,,,,,,,,,,,,,,,,,
,,,,,,,,,,,,,1,001,2025-01-14_12h18.21.616,IAT(Formal),2021.2.3,Win32,60.97560976,,,,,,,,,,,,,,,,i,1,0.4028,0,20,20,49,1,下贱,i,,,,,,,,,,,,,,,,,,,,,,,,,,,,,,,,,,,,,,,,,
,,,,,,,,,,,,,1,001,2025-01-14_12h18.21.616,IAT(Formal),2021.2.3,Win32,60.97560976,,,,,,,,,,,,,,,,i,1,0.5577,0,21,21,77,1,他的,i,,,,,,,,,,,,,,,,,,,,,,,,,,,,,,,,,,,,,,,,,
,,,,,,,,,,,,,1,001,2025-01-14_12h18.21.616,IAT(Formal),2021.2.3,Win32,60.97560976,,,,,,,,,,,,,,,,e,1,0.5046,0,22,22,64,1,俺,e,,,,,,,,,,,,,,,,,,,,,,,,,,,,,,,,,,,,,,,,,
,,,,,,,,,,,,,1,001,2025-01-14_12h18.21.616,IAT(Formal),2021.2.3,Win32,60.97560976,,,,,,,,,,,,,,,,e,1,0.51,0,23,23,73,1,自己,e,,,,,,,,,,,,,,,,,,,,,,,,,,,,,,,,,,,,,,,,,
,,,,,,,,,,,,,1,001,2025-01-14_12h18.21.616,IAT(Formal),2021.2.3,Win32,60.97560976,,,,,,,,,,,,,,,,e,1,0.6105,0,24,24,22,1,无私,e,,,,,,,,,,,,,,,,,,,,,,,,,,,,,,,,,,,,,,,,,
,,,,,,,,,,,,,1,001,2025-01-14_12h18.21.616,IAT(Formal),2021.2.3,Win32,60.97560976,,,,,,,,,,,,,,,,e,1,0.4908,0,25,25,19,1,机智,e,,,,,,,,,,,,,,,,,,,,,,,,,,,,,,,,,,,,,,,,,
,,,,,,,,,,,,,1,001,2025-01-14_12h18.21.616,IAT(Formal),2021.2.3,Win32,60.97560976,,,,,,,,,,,,,,,,e,1,0.4823,0,26,26,72,1,我们,e,,,,,,,,,,,,,,,,,,,,,,,,,,,,,,,,,,,,,,,,,
,,,,,,,,,,,,,1,001,2025-01-14_12h18.21.616,IAT(Formal),2021.2.3,Win32,60.97560976,,,,,,,,,,,,,,,,i,1,0.4476,0,27,27,56,1,他们,i,,,,,,,,,,,,,,,,,,,,,,,,,,,,,,,,,,,,,,,,,
,,,,,,,,,,,,,1,001,2025-01-14_12h18.21.616,IAT(Formal),2021.2.3,Win32,60.97560976,,,,,,,,,,,,,,,,i,1,0.4151,0,28,28,42,1,凶狠,i,,,,,,,,,,,,,,,,,,,,,,,,,,,,,,,,,,,,,,,,,
,,,,,,,,,,,,,1,001,2025-01-14_12h18.21.616,IAT(Formal),2021.2.3,Win32,60.97560976,,,,,,,,,,,,,,,,e,1,0.4735,0,29,29,50,1,我,e,,,,,,,,,,,,,,,,,,,,,,,,,,,,,,,,,,,,,,,,,
,,,,,,,,,,,,,1,001,2025-01-14_12h18.21.616,IAT(Formal),2021.2.3,Win32,60.97560976,,,,,,,,,,,,,,,,e,1,0.4866,0,30,30,62,1,我们,e,,,,,,,,,,,,,,,,,,,,,,,,,,,,,,,,,,,,,,,,,
,,,,,,,,,,,,,1,001,2025-01-14_12h18.21.616,IAT(Formal),2021.2.3,Win32,60.97560976,,,,,,,,,,,,,,,,e,1,0.4928,0,31,31,18,1,勤奋,e,,,,,,,,,,,,,,,,,,,,,,,,,,,,,,,,,,,,,,,,,
,,,,,,,,,,,,,1,001,2025-01-14_12h18.21.616,IAT(Formal),2021.2.3,Win32,60.97560976,,,,,,,,,,,,,,,,i,1,0.5703,0,32,32,30,1,卑鄙,i,,,,,,,,,,,,,,,,,,,,,,,,,,,,,,,,,,,,,,,,,
,,,,,,,,,,,,,1,001,2025-01-14_12h18.21.616,IAT(Formal),2021.2.3,Win32,60.97560976,,,,,,,,,,,,,,,,i,1,0.5329,0,33,33,6,1,他们,i,,,,,,,,,,,,,,,,,,,,,,,,,,,,,,,,,,,,,,,,,
,,,,,,,,,,,,,1,001,2025-01-14_12h18.21.616,IAT(Formal),2021.2.3,Win32,60.97560976,,,,,,,,,,,,,,,,e,1,0.3848,0,34,34,1,1,我的,e,,,,,,,,,,,,,,,,,,,,,,,,,,,,,,,,,,,,,,,,,
,,,,,,,,,,,,,1,001,2025-01-14_12h18.21.616,IAT(Formal),2021.2.3,Win32,60.97560976,,,,,,,,,,,,,,,,i,1,0.4753,0,35,35,47,1,固执,i,,,,,,,,,,,,,,,,,,,,,,,,,,,,,,,,,,,,,,,,,
,,,,,,,,,,,,,1,001,2025-01-14_12h18.21.616,IAT(Formal),2021.2.3,Win32,60.97560976,,,,,,,,,,,,,,,,e,1,0.7398,0,36,36,63,1,自己,e,,,,,,,,,,,,,,,,,,,,,,,,,,,,,,,,,,,,,,,,,
,,,,,,,,,,,,,1,001,2025-01-14_12h18.21.616,IAT(Formal),2021.2.3,Win32,60.97560976,,,,,,,,,,,,,,,,i,1,0.4919,0,37,37,36,1,自卑,i,,,,,,,,,,,,,,,,,,,,,,,,,,,,,,,,,,,,,,,,,
,,,,,,,,,,,,,1,001,2025-01-14_12h18.21.616,IAT(Formal),2021.2.3,Win32,60.97560976,,,,,,,,,,,,,,,,i,1,0.506,0,38,38,44,1,暴躁,i,,,,,,,,,,,,,,,,,,,,,,,,,,,,,,,,,,,,,,,,,
,,,,,,,,,,,,,1,001,2025-01-14_12h18.21.616,IAT(Formal),2021.2.3,Win32,60.97560976,,,,,,,,,,,,,,,,i,1,0.7838,0,39,39,79,1,其他,i,,,,,,,,,,,,,,,,,,,,,,,,,,,,,,,,,,,,,,,,,
,,,,,,,,,,,,,1,001,2025-01-14_12h18.21.616,IAT(Formal),2021.2.3,Win32,60.97560976,,,,,,,,,,,,,,,,i,1,0.5212,0,40,40,41,1,散漫,i,,,,,,,,,,,,,,,,,,,,,,,,,,,,,,,,,,,,,,,,,
,,,,,,,,,,,,,1,001,2025-01-14_12h18.21.616,IAT(Formal),2021.2.3,Win32,60.97560976,,,,,,,,,,,,,,,,i,1,0.4471,0,41,41,78,1,他人,i,,,,,,,,,,,,,,,,,,,,,,,,,,,,,,,,,,,,,,,,,
,,,,,,,,,,,,,1,001,2025-01-14_12h18.21.616,IAT(Formal),2021.2.3,Win32,60.97560976,,,,,,,,,,,,,,,,i,1,0.5024,0,42,42,59,1,其他,i,,,,,,,,,,,,,,,,,,,,,,,,,,,,,,,,,,,,,,,,,
,,,,,,,,,,,,,1,001,2025-01-14_12h18.21.616,IAT(Formal),2021.2.3,Win32,60.97560976,,,,,,,,,,,,,,,,e,1,0.5397,0,43,43,26,1,冷静,e,,,,,,,,,,,,,,,,,,,,,,,,,,,,,,,,,,,,,,,,,
,,,,,,,,,,,,,1,001,2025-01-14_12h18.21.616,IAT(Formal),2021.2.3,Win32,60.97560976,,,,,,,,,,,,,,,,i,0,0.543,0,44,44,74,1,俺,e,,,,,,,,,,,,,,,,,,,,,,,,,,,,,,,,,,,,,,,,,
,,,,,,,,,,,,,1,001,2025-01-14_12h18.21.616,IAT(Formal),2021.2.3,Win32,60.97560976,,,,,,,,,,,,,,,,i,1,0.4189,0,45,45,65,1,他,i,,,,,,,,,,,,,,,,,,,,,,,,,,,,,,,,,,,,,,,,,
,,,,,,,,,,,,,1,001,2025-01-14_12h18.21.616,IAT(Formal),2021.2.3,Win32,60.97560976,,,,,,,,,,,,,,,,i,1,0.6054,0,46,46,69,1,其他,i,,,,,,,,,,,,,,,,,,,,,,,,,,,,,,,,,,,,,,,,,
,,,,,,,,,,,,,1,001,2025-01-14_12h18.21.616,IAT(Formal),2021.2.3,Win32,60.97560976,,,,,,,,,,,,,,,,i,1,0.5483,0,47,47,48,1,轻率,i,,,,,,,,,,,,,,,,,,,,,,,,,,,,,,,,,,,,,,,,,
,,,,,,,,,,,,,1,001,2025-01-14_12h18.21.616,IAT(Formal),2021.2.3,Win32,60.97560976,,,,,,,,,,,,,,,,i,1,0.5342,0,48,48,45,1,猖狂,i,,,,,,,,,,,,,,,,,,,,,,,,,,,,,,,,,,,,,,,,,
,,,,,,,,,,,,,1,001,2025-01-14_12h18.21.616,IAT(Formal),2021.2.3,Win32,60.97560976,,,,,,,,,,,,,,,,i,1,0.4831,0,49,49,38,1,鲁莽,i,,,,,,,,,,,,,,,,,,,,,,,,,,,,,,,,,,,,,,,,,
,,,,,,,,,,,,,1,001,2025-01-14_12h18.21.616,IAT(Formal),2021.2.3,Win32,60.97560976,,,,,,,,,,,,,,,,i,1,0.6414,0,50,50,8,1,他人,i,,,,,,,,,,,,,,,,,,,,,,,,,,,,,,,,,,,,,,,,,
,,,,,,,,,,,,,1,001,2025-01-14_12h18.21.616,IAT(Formal),2021.2.3,Win32,60.97560976,,,,,,,,,,,,,,,,e,1,0.7218,0,51,51,24,1,朴实,e,,,,,,,,,,,,,,,,,,,,,,,,,,,,,,,,,,,,,,,,,
,,,,,,,,,,,,,1,001,2025-01-14_12h18.21.616,IAT(Formal),2021.2.3,Win32,60.97560976,,,,,,,,,,,,,,,,i,1,0.4706,0,52,52,32,1,愚蠢,i,,,,,,,,,,,,,,,,,,,,,,,,,,,,,,,,,,,,,,,,,
,,,,,,,,,,,,,1,001,2025-01-14_12h18.21.616,IAT(Formal),2021.2.3,Win32,60.97560976,,,,,,,,,,,,,,,,i,1,0.4779,0,53,53,5,1,他,i,,,,,,,,,,,,,,,,,,,,,,,,,,,,,,,,,,,,,,,,,
,,,,,,,,,,,,,1,001,2025-01-14_12h18.21.616,IAT(Formal),2021.2.3,Win32,60.97560976,,,,,,,,,,,,,,,,i,1,0.4678,0,54,54,58,1,他人,i,,,,,,,,,,,,,,,,,,,,,,,,,,,,,,,,,,,,,,,,,
,,,,,,,,,,,,,1,001,2025-01-14_12h18.21.616,IAT(Formal),2021.2.3,Win32,60.97560976,,,,,,,,,,,,,,,,i,1,0.4131,0,55,55,68,1,他人,i,,,,,,,,,,,,,,,,,,,,,,,,,,,,,,,,,,,,,,,,,
,,,,,,,,,,,,,1,001,2025-01-14_12h18.21.616,IAT(Formal),2021.2.3,Win32,60.97560976,,,,,,,,,,,,,,,,i,1,0.46,0,56,56,37,1,傲慢,i,,,,,,,,,,,,,,,,,,,,,,,,,,,,,,,,,,,,,,,,,
,,,,,,,,,,,,,1,001,2025-01-14_12h18.21.616,IAT(Formal),2021.2.3,Win32,60.97560976,,,,,,,,,,,,,,,,e,1,0.4353,0,57,57,0,1,我,e,,,,,,,,,,,,,,,,,,,,,,,,,,,,,,,,,,,,,,,,,
,,,,,,,,,,,,,1,001,2025-01-14_12h18.21.616,IAT(Formal),2021.2.3,Win32,60.97560976,,,,,,,,,,,,,,,,e,1,0.4359,0,58,58,28,1,活泼,e,,,,,,,,,,,,,,,,,,,,,,,,,,,,,,,,,,,,,,,,,
,,,,,,,,,,,,,1,001,2025-01-14_12h18.21.616,IAT(Formal),2021.2.3,Win32,60.97560976,,,,,,,,,,,,,,,,i,1,0.4516,0,59,59,66,1,他们,i,,,,,,,,,,,,,,,,,,,,,,,,,,,,,,,,,,,,,,,,,
,,,,,,,,,,,,,1,001,2025-01-14_12h18.21.616,IAT(Formal),2021.2.3,Win32,60.97560976,,,,,,,,,,,,,,,,e,1,0.4827,0,60,60,17,1,勇敢,e,,,,,,,,,,,,,,,,,,,,,,,,,,,,,,,,,,,,,,,,,
,,,,,,,,,,,,,1,001,2025-01-14_12h18.21.616,IAT(Formal),2021.2.3,Win32,60.97560976,,,,,,,,,,,,,,,,e,1,0.6581,0,61,61,2,1,我们,e,,,,,,,,,,,,,,,,,,,,,,,,,,,,,,,,,,,,,,,,,
,,,,,,,,,,,,,1,001,2025-01-14_12h18.21.616,IAT(Formal),2021.2.3,Win32,60.97560976,,,,,,,,,,,,,,,,e,1,0.7354,0,62,62,51,1,我的,e,,,,,,,,,,,,,,,,,,,,,,,,,,,,,,,,,,,,,,,,,
,,,,,,,,,,,,,1,001,2025-01-14_12h18.21.616,IAT(Formal),2021.2.3,Win32,60.97560976,,,,,,,,,,,,,,,,e,1,0.4935,0,63,63,61,1,我的,e,,,,,,,,,,,,,,,,,,,,,,,,,,,,,,,,,,,,,,,,,
,,,,,,,,,,,,,1,001,2025-01-14_12h18.21.616,IAT(Formal),2021.2.3,Win32,60.97560976,,,,,,,,,,,,,,,,e,1,0.5621,0,64,64,3,1,自己,e,,,,,,,,,,,,,,,,,,,,,,,,,,,,,,,,,,,,,,,,,
,,,,,,,,,,,,,1,001,2025-01-14_12h18.21.616,IAT(Formal),2021.2.3,Win32,60.97560976,,,,,,,,,,,,,,,,i,1,0.4844,0,65,65,34,1,悲观,i,,,,,,,,,,,,,,,,,,,,,,,,,,,,,,,,,,,,,,,,,
,,,,,,,,,,,,,1,001,2025-01-14_12h18.21.616,IAT(Formal),2021.2.3,Win32,60.97560976,,,,,,,,,,,,,,,,i,1,0.5704,0,66,66,46,1,野蛮,i,,,,,,,,,,,,,,,,,,,,,,,,,,,,,,,,,,,,,,,,,
,,,,,,,,,,,,,1,001,2025-01-14_12h18.21.616,IAT(Formal),2021.2.3,Win32,60.97560976,,,,,,,,,,,,,,,,i,1,0.6464,0,67,67,9,1,其他,i,,,,,,,,,,,,,,,,,,,,,,,,,,,,,,,,,,,,,,,,,
,,,,,,,,,,,,,1,001,2025-01-14_12h18.21.616,IAT(Formal),2021.2.3,Win32,60.97560976,,,,,,,,,,,,,,,,e,1,0.5893,0,68,68,15,1,诚实,e,,,,,,,,,,,,,,,,,,,,,,,,,,,,,,,,,,,,,,,,,
,,,,,,,,,,,,,1,001,2025-01-14_12h18.21.616,IAT(Formal),2021.2.3,Win32,60.97560976,,,,,,,,,,,,,,,,e,1,0.4554,0,69,69,52,1,我们,e,,,,,,,,,,,,,,,,,,,,,,,,,,,,,,,,,,,,,,,,,
,,,,,,,,,,,,,1,001,2025-01-14_12h18.21.616,IAT(Formal),2021.2.3,Win32,60.97560976,,,,,,,,,,,,,,,,e,1,0.5106,0,70,70,54,1,俺,e,,,,,,,,,,,,,,,,,,,,,,,,,,,,,,,,,,,,,,,,,
,,,,,,,,,,,,,1,001,2025-01-14_12h18.21.616,IAT(Formal),2021.2.3,Win32,60.97560976,,,,,,,,,,,,,,,,e,1,0.4133,0,71,71,70,1,我,e,,,,,,,,,,,,,,,,,,,,,,,,,,,,,,,,,,,,,,,,,
,,,,,,,,,,,,,1,001,2025-01-14_12h18.21.616,IAT(Formal),2021.2.3,Win32,60.97560976,,,,,,,,,,,,,,,,i,1,0.4847,0,72,72,33,1,刻薄,i,,,,,,,,,,,,,,,,,,,,,,,,,,,,,,,,,,,,,,,,,
,,,,,,,,,,,,,1,001,2025-01-14_12h18.21.616,IAT(Formal),2021.2.3,Win32,60.97560976,,,,,,,,,,,,,,,,i,1,0.4349,0,73,73,39,1,冒失,i,,,,,,,,,,,,,,,,,,,,,,,,,,,,,,,,,,,,,,,,,
,,,,,,,,,,,,,1,001,2025-01-14_12h18.21.616,IAT(Formal),2021.2.3,Win32,60.97560976,,,,,,,,,,,,,,,,i,1,0.5155,0,74,74,67,1,他的,i,,,,,,,,,,,,,,,,,,,,,,,,,,,,,,,,,,,,,,,,,
,,,,,,,,,,,,,1,001,2025-01-14_12h18.21.616,IAT(Formal),2021.2.3,Win32,60.97560976,,,,,,,,,,,,,,,,e,1,0.5512,0,75,75,14,1,乐观,e,,,,,,,,,,,,,,,,,,,,,,,,,,,,,,,,,,,,,,,,,
,,,,,,,,,,,,,1,001,2025-01-14_12h18.21.616,IAT(Formal),2021.2.3,Win32,60.97560976,,,,,,,,,,,,,,,,e,1,0.515,0,76,76,10,1,优秀,e,,,,,,,,,,,,,,,,,,,,,,,,,,,,,,,,,,,,,,,,,
,,,,,,,,,,,,,1,001,2025-01-14_12h18.21.616,IAT(Formal),2021.2.3,Win32,60.97560976,,,,,,,,,,,,,,,,i,1,0.4865,0,77,77,57,1,他的,i,,,,,,,,,,,,,,,,,,,,,,,,,,,,,,,,,,,,,,,,,
,,,,,,,,,,,,,1,001,2025-01-14_12h18.21.616,IAT(Formal),2021.2.3,Win32,60.97560976,,,,,,,,,,,,,,,,e,1,0.5181,0,78,78,25,1,细腻,e,,,,,,,,,,,,,,,,,,,,,,,,,,,,,,,,,,,,,,,,,
,,,,,,,,,,,,,1,001,2025-01-14_12h18.21.616,IAT(Formal),2021.2.3,Win32,60.97560976,,,,,,,,,,,,,,,,e,1,0.4505,0,79,79,71,1,我的,e,,,,,,,,,,,,,,,,,,,,,,,,,,,,,,,,,,,,,,,,,
,,,,,,,,,,,,,1,001,2025-01-14_12h18.21.616,IAT(Formal),2021.2.3,Win32,60.97560976,,,,,,,,,,,,,,,,i,1,0.4592,,,,,,他人,i,space,5.5442,0,0,0,68,1,,,,,,,,,,,,,,,,,,,,,,,,,,,,,,,,,,
,,,,,,,,,,,,,1,001,2025-01-14_12h18.21.616,IAT(Formal),2021.2.3,Win32,60.97560976,,,,,,,,,,,,,,,,e,1,0.3885,,,,,,我,e,,,0,1,1,70,1,,,,,,,,,,,,,,,,,,,,,,,,,,,,,,,,,,
,,,,,,,,,,,,,1,001,2025-01-14_12h18.21.616,IAT(Formal),2021.2.3,Win32,60.97560976,,,,,,,,,,,,,,,,i,1,0.6053,,,,,,其他,i,,,0,2,2,69,1,,,,,,,,,,,,,,,,,,,,,,,,,,,,,,,,,,
,,,,,,,,,,,,,1,001,2025-01-14_12h18.21.616,IAT(Formal),2021.2.3,Win32,60.97560976,,,,,,,,,,,,,,,,i,1,0.4721,,,,,,他们,i,,,0,3,3,66,1,,,,,,,,,,,,,,,,,,,,,,,,,,,,,,,,,,
,,,,,,,,,,,,,1,001,2025-01-14_12h18.21.616,IAT(Formal),2021.2.3,Win32,60.97560976,,,,,,,,,,,,,,,,i,1,0.5103,,,,,,他,i,,,0,4,4,65,1,,,,,,,,,,,,,,,,,,,,,,,,,,,,,,,,,,
,,,,,,,,,,,,,1,001,2025-01-14_12h18.21.616,IAT(Formal),2021.2.3,Win32,60.97560976,,,,,,,,,,,,,,,,i,1,0.4447,,,,,,他,i,,,0,5,5,75,1,,,,,,,,,,,,,,,,,,,,,,,,,,,,,,,,,,
,,,,,,,,,,,,,1,001,2025-01-14_12h18.21.616,IAT(Formal),2021.2.3,Win32,60.97560976,,,,,,,,,,,,,,,,e,1,0.5075,,,,,,杰出,e,,,0,6,6,13,1,,,,,,,,,,,,,,,,,,,,,,,,,,,,,,,,,,
,,,,,,,,,,,,,1,001,2025-01-14_12h18.21.616,IAT(Formal),2021.2.3,Win32,60.97560976,,,,,,,,,,,,,,,,e,1,0.3999,,,,,,我,e,,,0,7,7,60,1,,,,,,,,,,,,,,,,,,,,,,,,,,,,,,,,,,
,,,,,,,,,,,,,1,001,2025-01-14_12h18.21.616,IAT(Formal),2021.2.3,Win32,60.97560976,,,,,,,,,,,,,,,,i,1,0.4488,,,,,,他人,i,,,0,8,8,8,1,,,,,,,,,,,,,,,,,,,,,,,,,,,,,,,,,,
,,,,,,,,,,,,,1,001,2025-01-14_12h18.21.616,IAT(Formal),2021.2.3,Win32,60.97560976,,,,,,,,,,,,,,,,i,1,0.5771,,,,,,执拗,i,,,0,9,9,40,1,,,,,,,,,,,,,,,,,,,,,,,,,,,,,,,,,,
,,,,,,,,,,,,,1,001,2025-01-14_12h18.21.616,IAT(Formal),2021.2.3,Win32,60.97560976,,,,,,,,,,,,,,,,i,1,0.4582,,,,,,他,i,,,0,10,10,5,1,,,,,,,,,,,,,,,,,,,,,,,,,,,,,,,,,,
,,,,,,,,,,,,,1,001,2025-01-14_12h18.21.616,IAT(Formal),2021.2.3,Win32,60.97560976,,,,,,,,,,,,,,,,e,1,0.4267,,,,,,热情,e,,,0,11,11,27,1,,,,,,,,,,,,,,,,,,,,,,,,,,,,,,,,,,
,,,,,,,,,,,,,1,001,2025-01-14_12h18.21.616,IAT(Formal),2021.2.3,Win32,60.97560976,,,,,,,,,,,,,,,,i,1,0.5401,,,,,,其他,i,,,0,12,12,79,1,,,,,,,,,,,,,,,,,,,,,,,,,,,,,,,,,,
,,,,,,,,,,,,,1,001,2025-01-14_12h18.21.616,IAT(Formal),2021.2.3,Win32,60.97560976,,,,,,,,,,,,,,,,e,1,0.4638,,,,,,机智,e,,,0,13,13,19,1,,,,,,,,,,,,,,,,,,,,,,,,,,,,,,,,,,
,,,,,,,,,,,,,1,001,2025-01-14_12h18.21.616,IAT(Formal),2021.2.3,Win32,60.97560976,,,,,,,,,,,,,,,,i,1,0.4464,,,,,,他人,i,,,0,14,14,78,1,,,,,,,,,,,,,,,,,,,,,,,,,,,,,,,,,,
,,,,,,,,,,,,,1,001,2025-01-14_12h18.21.616,IAT(Formal),2021.2.3,Win32,60.97560976,,,,,,,,,,,,,,,,e,1,0.4385,,,,,,自己,e,,,0,15,15,63,1,,,,,,,,,,,,,,,,,,,,,,,,,,,,,,,,,,
,,,,,,,,,,,,,1,001,2025-01-14_12h18.21.616,IAT(Formal),2021.2.3,Win32,60.97560976,,,,,,,,,,,,,,,,e,1,0.4689,,,,,,我们,e,,,0,16,16,52,1,,,,,,,,,,,,,,,,,,,,,,,,,,,,,,,,,,
,,,,,,,,,,,,,1,001,2025-01-14_12h18.21.616,IAT(Formal),2021.2.3,Win32,60.97560976,,,,,,,,,,,,,,,,e,1,0.3819,,,,,,认真,e,,,0,17,17,20,1,,,,,,,,,,,,,,,,,,,,,,,,,,,,,,,,,,
,,,,,,,,,,,,,1,001,2025-01-14_12h18.21.616,IAT(Formal),2021.2.3,Win32,60.97560976,,,,,,,,,,,,,,,,i,1,0.4396,,,,,,他人,i,,,0,18,18,58,1,,,,,,,,,,,,,,,,,,,,,,,,,,,,,,,,,,
,,,,,,,,,,,,,1,001,2025-01-14_12h18.21.616,IAT(Formal),2021.2.3,Win32,60.97560976,,,,,,,,,,,,,,,,i,1,0.4574,,,,,,凶狠,i,,,0,19,19,42,1,,,,,,,,,,,,,,,,,,,,,,,,,,,,,,,,,,
,,,,,,,,,,,,,1,001,2025-01-14_12h18.21.616,IAT(Formal),2021.2.3,Win32,60.97560976,,,,,,,,,,,,,,,,e,1,0.4387,,,,,,勤奋,e,,,0,20,20,18,1,,,,,,,,,,,,,,,,,,,,,,,,,,,,,,,,,,
,,,,,,,,,,,,,1,001,2025-01-14_12h18.21.616,IAT(Formal),2021.2.3,Win32,60.97560976,,,,,,,,,,,,,,,,i,1,0.5909,,,,,,自私,i,,,0,21,21,43,1,,,,,,,,,,,,,,,,,,,,,,,,,,,,,,,,,,
,,,,,,,,,,,,,1,001,2025-01-14_12h18.21.616,IAT(Formal),2021.2.3,Win32,60.97560976,,,,,,,,,,,,,,,,e,1,0.537,,,,,,乐观,e,,,0,22,22,14,1,,,,,,,,,,,,,,,,,,,,,,,,,,,,,,,,,,
,,,,,,,,,,,,,1,001,2025-01-14_12h18.21.616,IAT(Formal),2021.2.3,Win32,60.97560976,,,,,,,,,,,,,,,,i,1,0.4047,,,,,,他的,i,,,0,23,23,77,1,,,,,,,,,,,,,,,,,,,,,,,,,,,,,,,,,,
,,,,,,,,,,,,,1,001,2025-01-14_12h18.21.616,IAT(Formal),2021.2.3,Win32,60.97560976,,,,,,,,,,,,,,,,e,1,0.6313,,,,,,自己,e,,,0,24,24,73,1,,,,,,,,,,,,,,,,,,,,,,,,,,,,,,,,,,
,,,,,,,,,,,,,1,001,2025-01-14_12h18.21.616,IAT(Formal),2021.2.3,Win32,60.97560976,,,,,,,,,,,,,,,,i,1,0.4942,,,,,,野蛮,i,,,0,25,25,46,1,,,,,,,,,,,,,,,,,,,,,,,,,,,,,,,,,,
,,,,,,,,,,,,,1,001,2025-01-14_12h18.21.616,IAT(Formal),2021.2.3,Win32,60.97560976,,,,,,,,,,,,,,,,e,1,0.5083,,,,,,无私,e,,,0,26,26,22,1,,,,,,,,,,,,,,,,,,,,,,,,,,,,,,,,,,
,,,,,,,,,,,,,1,001,2025-01-14_12h18.21.616,IAT(Formal),2021.2.3,Win32,60.97560976,,,,,,,,,,,,,,,,e,1,0.6828,,,,,,我的,e,,,0,27,27,51,1,,,,,,,,,,,,,,,,,,,,,,,,,,,,,,,,,,
,,,,,,,,,,,,,1,001,2025-01-14_12h18.21.616,IAT(Formal),2021.2.3,Win32,60.97560976,,,,,,,,,,,,,,,,e,1,0.3909,,,,,,聪明,e,,,0,28,28,12,1,,,,,,,,,,,,,,,,,,,,,,,,,,,,,,,,,,
,,,,,,,,,,,,,1,001,2025-01-14_12h18.21.616,IAT(Formal),2021.2.3,Win32,60.97560976,,,,,,,,,,,,,,,,e,1,0.4186,,,,,,我们,e,,,0,29,29,62,1,,,,,,,,,,,,,,,,,,,,,,,,,,,,,,,,,,
,,,,,,,,,,,,,1,001,2025-01-14_12h18.21.616,IAT(Formal),2021.2.3,Win32,60.97560976,,,,,,,,,,,,,,,,e,1,0.3956,,,,,,我们,e,,,0,30,30,2,1,,,,,,,,,,,,,,,,,,,,,,,,,,,,,,,,,,
,,,,,,,,,,,,,1,001,2025-01-14_12h18.21.616,IAT(Formal),2021.2.3,Win32,60.97560976,,,,,,,,,,,,,,,,e,1,0.3956,,,,,,自己,e,,,0,31,31,53,1,,,,,,,,,,,,,,,,,,,,,,,,,,,,,,,,,,
,,,,,,,,,,,,,1,001,2025-01-14_12h18.21.616,IAT(Formal),2021.2.3,Win32,60.97560976,,,,,,,,,,,,,,,,i,1,0.4783,,,,,,他的,i,,,0,32,32,67,1,,,,,,,,,,,,,,,,,,,,,,,,,,,,,,,,,,
,,,,,,,,,,,,,1,001,2025-01-14_12h18.21.616,IAT(Formal),2021.2.3,Win32,60.97560976,,,,,,,,,,,,,,,,i,1,0.6369,,,,,,虚伪,i,,,0,33,33,31,1,,,,,,,,,,,,,,,,,,,,,,,,,,,,,,,,,,
,,,,,,,,,,,,,1,001,2025-01-14_12h18.21.616,IAT(Formal),2021.2.3,Win32,60.97560976,,,,,,,,,,,,,,,,i,1,0.4362,,,,,,暴躁,i,,,0,34,34,44,1,,,,,,,,,,,,,,,,,,,,,,,,,,,,,,,,,,
,,,,,,,,,,,,,1,001,2025-01-14_12h18.21.616,IAT(Formal),2021.2.3,Win32,60.97560976,,,,,,,,,,,,,,,,e,1,0.5664,,,,,,我,e,,,0,35,35,50,1,,,,,,,,,,,,,,,,,,,,,,,,,,,,,,,,,,
,,,,,,,,,,,,,1,001,2025-01-14_12h18.21.616,IAT(Formal),2021.2.3,Win32,60.97560976,,,,,,,,,,,,,,,,e,1,0.5261,,,,,,正直,e,,,0,36,36,16,1,,,,,,,,,,,,,,,,,,,,,,,,,,,,,,,,,,
,,,,,,,,,,,,,1,001,2025-01-14_12h18.21.616,IAT(Formal),2021.2.3,Win32,60.97560976,,,,,,,,,,,,,,,,e,1,0.563,,,,,,俺,e,,,0,37,37,74,1,,,,,,,,,,,,,,,,,,,,,,,,,,,,,,,,,,
,,,,,,,,,,,,,1,001,2025-01-14_12h18.21.616,IAT(Formal),2021.2.3,Win32,60.97560976,,,,,,,,,,,,,,,,i,1,0.5253,,,,,,其他,i,,,0,38,38,9,1,,,,,,,,,,,,,,,,,,,,,,,,,,,,,,,,,,
,,,,,,,,,,,,,1,001,2025-01-14_12h18.21.616,IAT(Formal),2021.2.3,Win32,60.97560976,,,,,,,,,,,,,,,,i,1,0.7325,,,,,,轻率,i,,,0,39,39,48,1,,,,,,,,,,,,,,,,,,,,,,,,,,,,,,,,,,
,,,,,,,,,,,,,1,001,2025-01-14_12h18.21.616,IAT(Formal),2021.2.3,Win32,60.97560976,,,,,,,,,,,,,,,,i,1,0.4524,,,,,,散漫,i,,,0,40,40,41,1,,,,,,,,,,,,,,,,,,,,,,,,,,,,,,,,,,
,,,,,,,,,,,,,1,001,2025-01-14_12h18.21.616,IAT(Formal),2021.2.3,Win32,60.97560976,,,,,,,,,,,,,,,,e,1,0.7107,,,,,,我的,e,,,0,41,41,71,1,,,,,,,,,,,,,,,,,,,,,,,,,,,,,,,,,,
,,,,,,,,,,,,,1,001,2025-01-14_12h18.21.616,IAT(Formal),2021.2.3,Win32,60.97560976,,,,,,,,,,,,,,,,i,1,0.482,,,,,,他们,i,,,0,42,42,56,1,,,,,,,,,,,,,,,,,,,,,,,,,,,,,,,,,,
,,,,,,,,,,,,,1,001,2025-01-14_12h18.21.616,IAT(Formal),2021.2.3,Win32,60.97560976,,,,,,,,,,,,,,,,e,1,0.4959,,,,,,朴实,e,,,0,43,43,24,1,,,,,,,,,,,,,,,,,,,,,,,,,,,,,,,,,,
,,,,,,,,,,,,,1,001,2025-01-14_12h18.21.616,IAT(Formal),2021.2.3,Win32,60.97560976,,,,,,,,,,,,,,,,e,1,0.6465,,,,,,我的,e,,,0,44,44,1,1,,,,,,,,,,,,,,,,,,,,,,,,,,,,,,,,,,
,,,,,,,,,,,,,1,001,2025-01-14_12h18.21.616,IAT(Formal),2021.2.3,Win32,60.97560976,,,,,,,,,,,,,,,,i,1,0.471,,,,,,下贱,i,,,0,45,45,49,1,,,,,,,,,,,,,,,,,,,,,,,,,,,,,,,,,,
,,,,,,,,,,,,,1,001,2025-01-14_12h18.21.616,IAT(Formal),2021.2.3,Win32,60.97560976,,,,,,,,,,,,,,,,i,1,0.5256,,,,,,鲁莽,i,,,0,46,46,38,1,,,,,,,,,,,,,,,,,,,,,,,,,,,,,,,,,,
,,,,,,,,,,,,,1,001,2025-01-14_12h18.21.616,IAT(Formal),2021.2.3,Win32,60.97560976,,,,,,,,,,,,,,,,e,1,0.4411,,,,,,诚恳,e,,,0,47,47,29,1,,,,,,,,,,,,,,,,,,,,,,,,,,,,,,,,,,
,,,,,,,,,,,,,1,001,2025-01-14_12h18.21.616,IAT(Formal),2021.2.3,Win32,60.97560976,,,,,,,,,,,,,,,,e,1,0.4341,,,,,,公正,e,,,0,48,48,23,1,,,,,,,,,,,,,,,,,,,,,,,,,,,,,,,,,,
,,,,,,,,,,,,,1,001,2025-01-14_12h18.21.616,IAT(Formal),2021.2.3,Win32,60.97560976,,,,,,,,,,,,,,,,e,1,0.4108,,,,,,我,e,,,0,49,49,0,1,,,,,,,,,,,,,,,,,,,,,,,,,,,,,,,,,,
,,,,,,,,,,,,,1,001,2025-01-14_12h18.21.616,IAT(Formal),2021.2.3,Win32,60.97560976,,,,,,,,,,,,,,,,i,1,0.4437,,,,,,猖狂,i,,,0,50,50,45,1,,,,,,,,,,,,,,,,,,,,,,,,,,,,,,,,,,
,,,,,,,,,,,,,1,001,2025-01-14_12h18.21.616,IAT(Formal),2021.2.3,Win32,60.97560976,,,,,,,,,,,,,,,,e,1,0.5404,,,,,,稳重,e,,,0,51,51,21,1,,,,,,,,,,,,,,,,,,,,,,,,,,,,,,,,,,
,,,,,,,,,,,,,1,001,2025-01-14_12h18.21.616,IAT(Formal),2021.2.3,Win32,60.97560976,,,,,,,,,,,,,,,,e,1,0.4554,,,,,,优秀,e,,,0,52,52,10,1,,,,,,,,,,,,,,,,,,,,,,,,,,,,,,,,,,
,,,,,,,,,,,,,1,001,2025-01-14_12h18.21.616,IAT(Formal),2021.2.3,Win32,60.97560976,,,,,,,,,,,,,,,,i,1,0.4704,,,,,,自卑,i,,,0,53,53,36,1,,,,,,,,,,,,,,,,,,,,,,,,,,,,,,,,,,
,,,,,,,,,,,,,1,001,2025-01-14_12h18.21.616,IAT(Formal),2021.2.3,Win32,60.97560976,,,,,,,,,,,,,,,,e,1,0.3985,,,,,,我的,e,,,0,54,54,61,1,,,,,,,,,,,,,,,,,,,,,,,,,,,,,,,,,,
,,,,,,,,,,,,,1,001,2025-01-14_12h18.21.616,IAT(Formal),2021.2.3,Win32,60.97560976,,,,,,,,,,,,,,,,i,1,0.446,,,,,,其他,i,,,0,55,55,59,1,,,,,,,,,,,,,,,,,,,,,,,,,,,,,,,,,,
,,,,,,,,,,,,,1,001,2025-01-14_12h18.21.616,IAT(Formal),2021.2.3,Win32,60.97560976,,,,,,,,,,,,,,,,e,1,0.5582,,,,,,冷静,e,,,0,56,56,26,1,,,,,,,,,,,,,,,,,,,,,,,,,,,,,,,,,,
,,,,,,,,,,,,,1,001,2025-01-14_12h18.21.616,IAT(Formal),2021.2.3,Win32,60.97560976,,,,,,,,,,,,,,,,e,1,0.49,,,,,,自己,e,,,0,57,57,3,1,,,,,,,,,,,,,,,,,,,,,,,,,,,,,,,,,,
,,,,,,,,,,,,,1,001,2025-01-14_12h18.21.616,IAT(Formal),2021.2.3,Win32,60.97560976,,,,,,,,,,,,,,,,e,1,0.5517,,,,,,细腻,e,,,0,58,58,25,1,,,,,,,,,,,,,,,,,,,,,,,,,,,,,,,,,,
,,,,,,,,,,,,,1,001,2025-01-14_12h18.21.616,IAT(Formal),2021.2.3,Win32,60.97560976,,,,,,,,,,,,,,,,i,1,0.5397,,,,,,刻薄,i,,,0,59,59,33,1,,,,,,,,,,,,,,,,,,,,,,,,,,,,,,,,,,
,,,,,,,,,,,,,1,001,2025-01-14_12h18.21.616,IAT(Formal),2021.2.3,Win32,60.97560976,,,,,,,,,,,,,,,,i,1,0.5275,,,,,,他的,i,,,0,60,60,7,1,,,,,,,,,,,,,,,,,,,,,,,,,,,,,,,,,,
,,,,,,,,,,,,,1,001,2025-01-14_12h18.21.616,IAT(Formal),2021.2.3,Win32,60.97560976,,,,,,,,,,,,,,,,i,1,0.4842,,,,,,他,i,,,0,61,61,55,1,,,,,,,,,,,,,,,,,,,,,,,,,,,,,,,,,,
,,,,,,,,,,,,,1,001,2025-01-14_12h18.21.616,IAT(Formal),2021.2.3,Win32,60.97560976,,,,,,,,,,,,,,,,i,1,0.5457,,,,,,愚蠢,i,,,0,62,62,32,1,,,,,,,,,,,,,,,,,,,,,,,,,,,,,,,,,,
,,,,,,,,,,,,,1,001,2025-01-14_12h18.21.616,IAT(Formal),2021.2.3,Win32,60.97560976,,,,,,,,,,,,,,,,i,1,0.4619,,,,,,他们,i,,,0,63,63,6,1,,,,,,,,,,,,,,,,,,,,,,,,,,,,,,,,,,
,,,,,,,,,,,,,1,001,2025-01-14_12h18.21.616,IAT(Formal),2021.2.3,Win32,60.97560976,,,,,,,,,,,,,,,,i,1,0.5973,,,,,,固执,i,,,0,64,64,47,1,,,,,,,,,,,,,,,,,,,,,,,,,,,,,,,,,,
,,,,,,,,,,,,,1,001,2025-01-14_12h18.21.616,IAT(Formal),2021.2.3,Win32,60.97560976,,,,,,,,,,,,,,,,i,1,0.4165,,,,,,冒失,i,,,0,65,65,39,1,,,,,,,,,,,,,,,,,,,,,,,,,,,,,,,,,,
,,,,,,,,,,,,,1,001,2025-01-14_12h18.21.616,IAT(Formal),2021.2.3,Win32,60.97560976,,,,,,,,,,,,,,,,i,1,0.3909,,,,,,傲慢,i,,,0,66,66,37,1,,,,,,,,,,,,,,,,,,,,,,,,,,,,,,,,,,
,,,,,,,,,,,,,1,001,2025-01-14_12h18.21.616,IAT(Formal),2021.2.3,Win32,60.97560976,,,,,,,,,,,,,,,,e,1,0.6173,,,,,,俺,e,,,0,67,67,54,1,,,,,,,,,,,,,,,,,,,,,,,,,,,,,,,,,,
,,,,,,,,,,,,,1,001,2025-01-14_12h18.21.616,IAT(Formal),2021.2.3,Win32,60.97560976,,,,,,,,,,,,,,,,e,1,0.4594,,,,,,俺,e,,,0,68,68,64,1,,,,,,,,,,,,,,,,,,,,,,,,,,,,,,,,,,
,,,,,,,,,,,,,1,001,2025-01-14_12h18.21.616,IAT(Formal),2021.2.3,Win32,60.97560976,,,,,,,,,,,,,,,,e,1,0.4169,,,,,,活泼,e,,,0,69,69,28,1,,,,,,,,,,,,,,,,,,,,,,,,,,,,,,,,,,
,,,,,,,,,,,,,1,001,2025-01-14_12h18.21.616,IAT(Formal),2021.2.3,Win32,60.97560976,,,,,,,,,,,,,,,,i,1,0.5368,,,,,,他们,i,,,0,70,70,76,1,,,,,,,,,,,,,,,,,,,,,,,,,,,,,,,,,,
,,,,,,,,,,,,,1,001,2025-01-14_12h18.21.616,IAT(Formal),2021.2.3,Win32,60.97560976,,,,,,,,,,,,,,,,e,1,0.5328,,,,,,俺,e,,,0,71,71,4,1,,,,,,,,,,,,,,,,,,,,,,,,,,,,,,,,,,
,,,,,,,,,,,,,1,001,2025-01-14_12h18.21.616,IAT(Formal),2021.2.3,Win32,60.97560976,,,,,,,,,,,,,,,,i,1,0.4642,,,,,,悲观,i,,,0,72,72,34,1,,,,,,,,,,,,,,,,,,,,,,,,,,,,,,,,,,
,,,,,,,,,,,,,1,001,2025-01-14_12h18.21.616,IAT(Formal),2021.2.3,Win32,60.97560976,,,,,,,,,,,,,,,,e,1,0.5122,,,,,,勇敢,e,,,0,73,73,17,1,,,,,,,,,,,,,,,,,,,,,,,,,,,,,,,,,,
,,,,,,,,,,,,,1,001,2025-01-14_12h18.21.616,IAT(Formal),2021.2.3,Win32,60.97560976,,,,,,,,,,,,,,,,e,1,0.4343,,,,,,诚实,e,,,0,74,74,15,1,,,,,,,,,,,,,,,,,,,,,,,,,,,,,,,,,,
,,,,,,,,,,,,,1,001,2025-01-14_12h18.21.616,IAT(Formal),2021.2.3,Win32,60.97560976,,,,,,,,,,,,,,,,i,1,0.4157,,,,,,他的,i,,,0,75,75,57,1,,,,,,,,,,,,,,,,,,,,,,,,,,,,,,,,,,
,,,,,,,,,,,,,1,001,2025-01-14_12h18.21.616,IAT(Formal),2021.2.3,Win32,60.97560976,,,,,,,,,,,,,,,,e,1,0.4705,,,,,,我们,e,,,0,76,76,72,1,,,,,,,,,,,,,,,,,,,,,,,,,,,,,,,,,,
,,,,,,,,,,,,,1,001,2025-01-14_12h18.21.616,IAT(Formal),2021.2.3,Win32,60.97560976,,,,,,,,,,,,,,,,i,1,0.5324,,,,,,卑鄙,i,,,0,77,77,30,1,,,,,,,,,,,,,,,,,,,,,,,,,,,,,,,,,,
,,,,,,,,,,,,,1,001,2025-01-14_12h18.21.616,IAT(Formal),2021.2.3,Win32,60.97560976,,,,,,,,,,,,,,,,e,1,0.5365,,,,,,崇高,e,,,0,78,78,11,1,,,,,,,,,,,,,,,,,,,,,,,,,,,,,,,,,,
,,,,,,,,,,,,,1,001,2025-01-14_12h18.21.616,IAT(Formal),2021.2.3,Win32,60.97560976,,,,,,,,,,,,,,,,i,1,0.4371,,,,,,消极,i,,,0,79,79,35,1,,,,,,,,,,,,,,,,,,,,,,,,,,,,,,,,,,
,,,,,,,,,,,,,1,001,2025-01-14_12h18.21.616,IAT(Formal),2021.2.3,Win32,60.97560976,,,,,,,,,,,,,,,,i,1,0.4768,,,,,,猖狂,i,,,1,0,80,45,1,,,,,,,,,,,,,,,,,,,,,,,,,,,,,,,,,,
,,,,,,,,,,,,,1,001,2025-01-14_12h18.21.616,IAT(Formal),2021.2.3,Win32,60.97560976,,,,,,,,,,,,,,,,i,0,0.4668,,,,,,稳重,e,,,1,1,81,21,1,,,,,,,,,,,,,,,,,,,,,,,,,,,,,,,,,,
,,,,,,,,,,,,,1,001,2025-01-14_12h18.21.616,IAT(Formal),2021.2.3,Win32,60.97560976,,,,,,,,,,,,,,,,i,1,0.5221,,,,,,固执,i,,,1,2,82,47,1,,,,,,,,,,,,,,,,,,,,,,,,,,,,,,,,,,
,,,,,,,,,,,,,1,001,2025-01-14_12h18.21.616,IAT(Formal),2021.2.3,Win32,60.97560976,,,,,,,,,,,,,,,,e,1,0.4706,,,,,,我们,e,,,1,3,83,72,1,,,,,,,,,,,,,,,,,,,,,,,,,,,,,,,,,,
,,,,,,,,,,,,,1,001,2025-01-14_12h18.21.616,IAT(Formal),2021.2.3,Win32,60.97560976,,,,,,,,,,,,,,,,i,1,0.5168,,,,,,暴躁,i,,,1,4,84,44,1,,,,,,,,,,,,,,,,,,,,,,,,,,,,,,,,,,
,,,,,,,,,,,,,1,001,2025-01-14_12h18.21.616,IAT(Formal),2021.2.3,Win32,60.97560976,,,,,,,,,,,,,,,,e,1,0.5858,,,,,,无私,e,,,1,5,85,22,1,,,,,,,,,,,,,,,,,,,,,,,,,,,,,,,,,,
,,,,,,,,,,,,,1,001,2025-01-14_12h18.21.616,IAT(Formal),2021.2.3,Win32,60.97560976,,,,,,,,,,,,,,,,i,1,0.5165,,,,,,他的,i,,,1,6,86,7,1,,,,,,,,,,,,,,,,,,,,,,,,,,,,,,,,,,
,,,,,,,,,,,,,1,001,2025-01-14_12h18.21.616,IAT(Formal),2021.2.3,Win32,60.97560976,,,,,,,,,,,,,,,,e,1,0.4811,,,,,,细腻,e,,,1,7,87,25,1,,,,,,,,,,,,,,,,,,,,,,,,,,,,,,,,,,
,,,,,,,,,,,,,1,001,2025-01-14_12h18.21.616,IAT(Formal),2021.2.3,Win32,60.97560976,,,,,,,,,,,,,,,,e,1,0.5483,,,,,,俺,e,,,1,8,88,74,1,,,,,,,,,,,,,,,,,,,,,,,,,,,,,,,,,,
,,,,,,,,,,,,,1,001,2025-01-14_12h18.21.616,IAT(Formal),2021.2.3,Win32,60.97560976,,,,,,,,,,,,,,,,i,1,0.6016,,,,,,消极,i,,,1,9,89,35,1,,,,,,,,,,,,,,,,,,,,,,,,,,,,,,,,,,
,,,,,,,,,,,,,1,001,2025-01-14_12h18.21.616,IAT(Formal),2021.2.3,Win32,60.97560976,,,,,,,,,,,,,,,,i,1,0.5457,,,,,,他,i,,,1,10,90,75,1,,,,,,,,,,,,,,,,,,,,,,,,,,,,,,,,,,
,,,,,,,,,,,,,1,001,2025-01-14_12h18.21.616,IAT(Formal),2021.2.3,Win32,60.97560976,,,,,,,,,,,,,,,,e,1,0.5571,,,,,,俺,e,,,1,11,91,4,1,,,,,,,,,,,,,,,,,,,,,,,,,,,,,,,,,,
,,,,,,,,,,,,,1,001,2025-01-14_12h18.21.616,IAT(Formal),2021.2.3,Win32,60.97560976,,,,,,,,,,,,,,,,e,1,0.5053,,,,,,我的,e,,,1,12,92,51,1,,,,,,,,,,,,,,,,,,,,,,,,,,,,,,,,,,
,,,,,,,,,,,,,1,001,2025-01-14_12h18.21.616,IAT(Formal),2021.2.3,Win32,60.97560976,,,,,,,,,,,,,,,,e,1,0.4621,,,,,,活泼,e,,,1,13,93,28,1,,,,,,,,,,,,,,,,,,,,,,,,,,,,,,,,,,
,,,,,,,,,,,,,1,001,2025-01-14_12h18.21.616,IAT(Formal),2021.2.3,Win32,60.97560976,,,,,,,,,,,,,,,,e,1,0.4068,,,,,,我们,e,,,1,14,94,62,1,,,,,,,,,,,,,,,,,,,,,,,,,,,,,,,,,,
,,,,,,,,,,,,,1,001,2025-01-14_12h18.21.616,IAT(Formal),2021.2.3,Win32,60.97560976,,,,,,,,,,,,,,,,e,1,0.3864,,,,,,我们,e,,,1,15,95,52,1,,,,,,,,,,,,,,,,,,,,,,,,,,,,,,,,,,
,,,,,,,,,,,,,1,001,2025-01-14_12h18.21.616,IAT(Formal),2021.2.3,Win32,60.97560976,,,,,,,,,,,,,,,,i,1,0.4421,,,,,,他的,i,,,1,16,96,77,1,,,,,,,,,,,,,,,,,,,,,,,,,,,,,,,,,,
,,,,,,,,,,,,,1,001,2025-01-14_12h18.21.616,IAT(Formal),2021.2.3,Win32,60.97560976,,,,,,,,,,,,,,,,e,1,0.3768,,,,,,俺,e,,,1,17,97,54,1,,,,,,,,,,,,,,,,,,,,,,,,,,,,,,,,,,
,,,,,,,,,,,,,1,001,2025-01-14_12h18.21.616,IAT(Formal),2021.2.3,Win32,60.97560976,,,,,,,,,,,,,,,,i,1,0.3882,,,,,,凶狠,i,,,1,18,98,42,1,,,,,,,,,,,,,,,,,,,,,,,,,,,,,,,,,,
,,,,,,,,,,,,,1,001,2025-01-14_12h18.21.616,IAT(Formal),2021.2.3,Win32,60.97560976,,,,,,,,,,,,,,,,i,1,0.5028,,,,,,他们,i,,,1,19,99,66,1,,,,,,,,,,,,,,,,,,,,,,,,,,,,,,,,,,
,,,,,,,,,,,,,1,001,2025-01-14_12h18.21.616,IAT(Formal),2021.2.3,Win32,60.97560976,,,,,,,,,,,,,,,,i,1,0.773,,,,,,执拗,i,,,1,20,100,40,1,,,,,,,,,,,,,,,,,,,,,,,,,,,,,,,,,,
,,,,,,,,,,,,,1,001,2025-01-14_12h18.21.616,IAT(Formal),2021.2.3,Win32,60.97560976,,,,,,,,,,,,,,,,e,1,0.4207,,,,,,勤奋,e,,,1,21,101,18,1,,,,,,,,,,,,,,,,,,,,,,,,,,,,,,,,,,
,,,,,,,,,,,,,1,001,2025-01-14_12h18.21.616,IAT(Formal),2021.2.3,Win32,60.97560976,,,,,,,,,,,,,,,,e,1,0.5913,,,,,,我的,e,,,1,22,102,1,1,,,,,,,,,,,,,,,,,,,,,,,,,,,,,,,,,,
,,,,,,,,,,,,,1,001,2025-01-14_12h18.21.616,IAT(Formal),2021.2.3,Win32,60.97560976,,,,,,,,,,,,,,,,e,1,0.4112,,,,,,我的,e,,,1,23,103,61,1,,,,,,,,,,,,,,,,,,,,,,,,,,,,,,,,,,
,,,,,,,,,,,,,1,001,2025-01-14_12h18.21.616,IAT(Formal),2021.2.3,Win32,60.97560976,,,,,,,,,,,,,,,,i,1,0.4346,,,,,,他的,i,,,1,24,104,67,1,,,,,,,,,,,,,,,,,,,,,,,,,,,,,,,,,,
,,,,,,,,,,,,,1,001,2025-01-14_12h18.21.616,IAT(Formal),2021.2.3,Win32,60.97560976,,,,,,,,,,,,,,,,i,1,0.562,,,,,,自私,i,,,1,25,105,43,1,,,,,,,,,,,,,,,,,,,,,,,,,,,,,,,,,,
,,,,,,,,,,,,,1,001,2025-01-14_12h18.21.616,IAT(Formal),2021.2.3,Win32,60.97560976,,,,,,,,,,,,,,,,i,1,0.4301,,,,,,冒失,i,,,1,26,106,39,1,,,,,,,,,,,,,,,,,,,,,,,,,,,,,,,,,,
,,,,,,,,,,,,,1,001,2025-01-14_12h18.21.616,IAT(Formal),2021.2.3,Win32,60.97560976,,,,,,,,,,,,,,,,e,1,0.4941,,,,,,我,e,,,1,27,107,60,1,,,,,,,,,,,,,,,,,,,,,,,,,,,,,,,,,,
,,,,,,,,,,,,,1,001,2025-01-14_12h18.21.616,IAT(Formal),2021.2.3,Win32,60.97560976,,,,,,,,,,,,,,,,e,1,0.4599,,,,,,机智,e,,,1,28,108,19,1,,,,,,,,,,,,,,,,,,,,,,,,,,,,,,,,,,
,,,,,,,,,,,,,1,001,2025-01-14_12h18.21.616,IAT(Formal),2021.2.3,Win32,60.97560976,,,,,,,,,,,,,,,,i,1,0.459,,,,,,自卑,i,,,1,29,109,36,1,,,,,,,,,,,,,,,,,,,,,,,,,,,,,,,,,,
,,,,,,,,,,,,,1,001,2025-01-14_12h18.21.616,IAT(Formal),2021.2.3,Win32,60.97560976,,,,,,,,,,,,,,,,e,1,0.483,,,,,,俺,e,,,1,30,110,64,1,,,,,,,,,,,,,,,,,,,,,,,,,,,,,,,,,,
,,,,,,,,,,,,,1,001,2025-01-14_12h18.21.616,IAT(Formal),2021.2.3,Win32,60.97560976,,,,,,,,,,,,,,,,e,1,0.4802,,,,,,自己,e,,,1,31,111,63,1,,,,,,,,,,,,,,,,,,,,,,,,,,,,,,,,,,
,,,,,,,,,,,,,1,001,2025-01-14_12h18.21.616,IAT(Formal),2021.2.3,Win32,60.97560976,,,,,,,,,,,,,,,,e,1,0.4821,,,,,,诚实,e,,,1,32,112,15,1,,,,,,,,,,,,,,,,,,,,,,,,,,,,,,,,,,
,,,,,,,,,,,,,1,001,2025-01-14_12h18.21.616,IAT(Formal),2021.2.3,Win32,60.97560976,,,,,,,,,,,,,,,,e,1,0.6212,,,,,,冷静,e,,,1,33,113,26,1,,,,,,,,,,,,,,,,,,,,,,,,,,,,,,,,,,
,,,,,,,,,,,,,1,001,2025-01-14_12h18.21.616,IAT(Formal),2021.2.3,Win32,60.97560976,,,,,,,,,,,,,,,,i,1,0.5561,,,,,,他们,i,,,1,34,114,76,1,,,,,,,,,,,,,,,,,,,,,,,,,,,,,,,,,,
,,,,,,,,,,,,,1,001,2025-01-14_12h18.21.616,IAT(Formal),2021.2.3,Win32,60.97560976,,,,,,,,,,,,,,,,e,1,0.5441,,,,,,崇高,e,,,1,35,115,11,1,,,,,,,,,,,,,,,,,,,,,,,,,,,,,,,,,,
,,,,,,,,,,,,,1,001,2025-01-14_12h18.21.616,IAT(Formal),2021.2.3,Win32,60.97560976,,,,,,,,,,,,,,,,i,1,0.4834,,,,,,其他,i,,,1,36,116,9,1,,,,,,,,,,,,,,,,,,,,,,,,,,,,,,,,,,
,,,,,,,,,,,,,1,001,2025-01-14_12h18.21.616,IAT(Formal),2021.2.3,Win32,60.97560976,,,,,,,,,,,,,,,,e,1,0.4327,,,,,,热情,e,,,1,37,117,27,1,,,,,,,,,,,,,,,,,,,,,,,,,,,,,,,,,,
,,,,,,,,,,,,,1,001,2025-01-14_12h18.21.616,IAT(Formal),2021.2.3,Win32,60.97560976,,,,,,,,,,,,,,,,i,1,0.4822,,,,,,他人,i,,,1,38,118,8,1,,,,,,,,,,,,,,,,,,,,,,,,,,,,,,,,,,
,,,,,,,,,,,,,1,001,2025-01-14_12h18.21.616,IAT(Formal),2021.2.3,Win32,60.97560976,,,,,,,,,,,,,,,,i,1,0.5039,,,,,,下贱,i,,,1,39,119,49,1,,,,,,,,,,,,,,,,,,,,,,,,,,,,,,,,,,
,,,,,,,,,,,,,1,001,2025-01-14_12h18.21.616,IAT(Formal),2021.2.3,Win32,60.97560976,,,,,,,,,,,,,,,,i,1,0.487,,,,,,他,i,,,1,40,120,65,1,,,,,,,,,,,,,,,,,,,,,,,,,,,,,,,,,,
,,,,,,,,,,,,,1,001,2025-01-14_12h18.21.616,IAT(Formal),2021.2.3,Win32,60.97560976,,,,,,,,,,,,,,,,i,1,0.491,,,,,,虚伪,i,,,1,41,121,31,1,,,,,,,,,,,,,,,,,,,,,,,,,,,,,,,,,,
,,,,,,,,,,,,,1,001,2025-01-14_12h18.21.616,IAT(Formal),2021.2.3,Win32,60.97560976,,,,,,,,,,,,,,,,i,1,0.6433,,,,,,悲观,i,,,1,42,122,34,1,,,,,,,,,,,,,,,,,,,,,,,,,,,,,,,,,,
,,,,,,,,,,,,,1,001,2025-01-14_12h18.21.616,IAT(Formal),2021.2.3,Win32,60.97560976,,,,,,,,,,,,,,,,i,1,0.4561,,,,,,其他,i,,,1,43,123,59,1,,,,,,,,,,,,,,,,,,,,,,,,,,,,,,,,,,
,,,,,,,,,,,,,1,001,2025-01-14_12h18.21.616,IAT(Formal),2021.2.3,Win32,60.97560976,,,,,,,,,,,,,,,,i,0,0.409,,,,,,自己,e,,,1,44,124,53,1,,,,,,,,,,,,,,,,,,,,,,,,,,,,,,,,,,
,,,,,,,,,,,,,1,001,2025-01-14_12h18.21.616,IAT(Formal),2021.2.3,Win32,60.97560976,,,,,,,,,,,,,,,,i,1,0.5473,,,,,,其他,i,,,1,45,125,69,1,,,,,,,,,,,,,,,,,,,,,,,,,,,,,,,,,,
,,,,,,,,,,,,,1,001,2025-01-14_12h18.21.616,IAT(Formal),2021.2.3,Win32,60.97560976,,,,,,,,,,,,,,,,e,1,0.6219,,,,,,自己,e,,,1,46,126,73,1,,,,,,,,,,,,,,,,,,,,,,,,,,,,,,,,,,
,,,,,,,,,,,,,1,001,2025-01-14_12h18.21.616,IAT(Formal),2021.2.3,Win32,60.97560976,,,,,,,,,,,,,,,,i,1,0.4701,,,,,,他们,i,,,1,47,127,56,1,,,,,,,,,,,,,,,,,,,,,,,,,,,,,,,,,,
,,,,,,,,,,,,,1,001,2025-01-14_12h18.21.616,IAT(Formal),2021.2.3,Win32,60.97560976,,,,,,,,,,,,,,,,i,1,0.5809,,,,,,轻率,i,,,1,48,128,48,1,,,,,,,,,,,,,,,,,,,,,,,,,,,,,,,,,,
,,,,,,,,,,,,,1,001,2025-01-14_12h18.21.616,IAT(Formal),2021.2.3,Win32,60.97560976,,,,,,,,,,,,,,,,e,1,0.7576,,,,,,聪明,e,,,1,49,129,12,1,,,,,,,,,,,,,,,,,,,,,,,,,,,,,,,,,,
,,,,,,,,,,,,,1,001,2025-01-14_12h18.21.616,IAT(Formal),2021.2.3,Win32,60.97560976,,,,,,,,,,,,,,,,i,1,0.5161,,,,,,他,i,,,1,50,130,5,1,,,,,,,,,,,,,,,,,,,,,,,,,,,,,,,,,,
,,,,,,,,,,,,,1,001,2025-01-14_12h18.21.616,IAT(Formal),2021.2.3,Win32,60.97560976,,,,,,,,,,,,,,,,e,1,0.4446,,,,,,我,e,,,1,51,131,0,1,,,,,,,,,,,,,,,,,,,,,,,,,,,,,,,,,,
,,,,,,,,,,,,,1,001,2025-01-14_12h18.21.616,IAT(Formal),2021.2.3,Win32,60.97560976,,,,,,,,,,,,,,,,i,1,0.4946,,,,,,鲁莽,i,,,1,52,132,38,1,,,,,,,,,,,,,,,,,,,,,,,,,,,,,,,,,,
,,,,,,,,,,,,,1,001,2025-01-14_12h18.21.616,IAT(Formal),2021.2.3,Win32,60.97560976,,,,,,,,,,,,,,,,i,1,0.5504,,,,,,其他,i,,,1,53,133,79,1,,,,,,,,,,,,,,,,,,,,,,,,,,,,,,,,,,
,,,,,,,,,,,,,1,001,2025-01-14_12h18.21.616,IAT(Formal),2021.2.3,Win32,60.97560976,,,,,,,,,,,,,,,,e,1,0.4699,,,,,,优秀,e,,,1,54,134,10,1,,,,,,,,,,,,,,,,,,,,,,,,,,,,,,,,,,
,,,,,,,,,,,,,1,001,2025-01-14_12h18.21.616,IAT(Formal),2021.2.3,Win32,60.97560976,,,,,,,,,,,,,,,,i,1,0.4875,,,,,,傲慢,i,,,1,55,135,37,1,,,,,,,,,,,,,,,,,,,,,,,,,,,,,,,,,,
,,,,,,,,,,,,,1,001,2025-01-14_12h18.21.616,IAT(Formal),2021.2.3,Win32,60.97560976,,,,,,,,,,,,,,,,e,1,0.4687,,,,,,我们,e,,,1,56,136,2,1,,,,,,,,,,,,,,,,,,,,,,,,,,,,,,,,,,
,,,,,,,,,,,,,1,001,2025-01-14_12h18.21.616,IAT(Formal),2021.2.3,Win32,60.97560976,,,,,,,,,,,,,,,,i,1,0.4428,,,,,,散漫,i,,,1,57,137,41,1,,,,,,,,,,,,,,,,,,,,,,,,,,,,,,,,,,
,,,,,,,,,,,,,1,001,2025-01-14_12h18.21.616,IAT(Formal),2021.2.3,Win32,60.97560976,,,,,,,,,,,,,,,,e,1,0.4753,,,,,,乐观,e,,,1,58,138,14,1,,,,,,,,,,,,,,,,,,,,,,,,,,,,,,,,,,
,,,,,,,,,,,,,1,001,2025-01-14_12h18.21.616,IAT(Formal),2021.2.3,Win32,60.97560976,,,,,,,,,,,,,,,,e,1,0.4732,,,,,,认真,e,,,1,59,139,20,1,,,,,,,,,,,,,,,,,,,,,,,,,,,,,,,,,,
,,,,,,,,,,,,,1,001,2025-01-14_12h18.21.616,IAT(Formal),2021.2.3,Win32,60.97560976,,,,,,,,,,,,,,,,e,1,0.6812,,,,,,自己,e,,,1,60,140,3,1,,,,,,,,,,,,,,,,,,,,,,,,,,,,,,,,,,
,,,,,,,,,,,,,1,001,2025-01-14_12h18.21.616,IAT(Formal),2021.2.3,Win32,60.97560976,,,,,,,,,,,,,,,,e,1,0.5653,,,,,,诚恳,e,,,1,61,141,29,1,,,,,,,,,,,,,,,,,,,,,,,,,,,,,,,,,,
,,,,,,,,,,,,,1,001,2025-01-14_12h18.21.616,IAT(Formal),2021.2.3,Win32,60.97560976,,,,,,,,,,,,,,,,e,1,0.5523,,,,,,我的,e,,,1,62,142,71,1,,,,,,,,,,,,,,,,,,,,,,,,,,,,,,,,,,
,,,,,,,,,,,,,1,001,2025-01-14_12h18.21.616,IAT(Formal),2021.2.3,Win32,60.97560976,,,,,,,,,,,,,,,,i,1,0.468,,,,,,他,i,,,1,63,143,55,1,,,,,,,,,,,,,,,,,,,,,,,,,,,,,,,,,,
,,,,,,,,,,,,,1,001,2025-01-14_12h18.21.616,IAT(Formal),2021.2.3,Win32,60.97560976,,,,,,,,,,,,,,,,i,1,0.6353,,,,,,他们,i,,,1,64,144,6,1,,,,,,,,,,,,,,,,,,,,,,,,,,,,,,,,,,
,,,,,,,,,,,,,1,001,2025-01-14_12h18.21.616,IAT(Formal),2021.2.3,Win32,60.97560976,,,,,,,,,,,,,,,,i,1,0.4829,,,,,,他人,i,,,1,65,145,78,1,,,,,,,,,,,,,,,,,,,,,,,,,,,,,,,,,,
,,,,,,,,,,,,,1,001,2025-01-14_12h18.21.616,IAT(Formal),2021.2.3,Win32,60.97560976,,,,,,,,,,,,,,,,e,1,0.504,,,,,,我,e,,,1,66,146,50,1,,,,,,,,,,,,,,,,,,,,,,,,,,,,,,,,,,
,,,,,,,,,,,,,1,001,2025-01-14_12h18.21.616,IAT(Formal),2021.2.3,Win32,60.97560976,,,,,,,,,,,,,,,,e,1,0.5011,,,,,,正直,e,,,1,67,147,16,1,,,,,,,,,,,,,,,,,,,,,,,,,,,,,,,,,,
,,,,,,,,,,,,,1,001,2025-01-14_12h18.21.616,IAT(Formal),2021.2.3,Win32,60.97560976,,,,,,,,,,,,,,,,i,1,0.4745,,,,,,他人,i,,,1,68,148,58,1,,,,,,,,,,,,,,,,,,,,,,,,,,,,,,,,,,
,,,,,,,,,,,,,1,001,2025-01-14_12h18.21.616,IAT(Formal),2021.2.3,Win32,60.97560976,,,,,,,,,,,,,,,,i,1,0.6339,,,,,,刻薄,i,,,1,69,149,33,1,,,,,,,,,,,,,,,,,,,,,,,,,,,,,,,,,,
,,,,,,,,,,,,,1,001,2025-01-14_12h18.21.616,IAT(Formal),2021.2.3,Win32,60.97560976,,,,,,,,,,,,,,,,i,1,0.4338,,,,,,卑鄙,i,,,1,70,150,30,1,,,,,,,,,,,,,,,,,,,,,,,,,,,,,,,,,,
,,,,,,,,,,,,,1,001,2025-01-14_12h18.21.616,IAT(Formal),2021.2.3,Win32,60.97560976,,,,,,,,,,,,,,,,e,1,0.4894,,,,,,杰出,e,,,1,71,151,13,1,,,,,,,,,,,,,,,,,,,,,,,,,,,,,,,,,,
,,,,,,,,,,,,,1,001,2025-01-14_12h18.21.616,IAT(Formal),2021.2.3,Win32,60.97560976,,,,,,,,,,,,,,,,i,1,0.4403,,,,,,愚蠢,i,,,1,72,152,32,1,,,,,,,,,,,,,,,,,,,,,,,,,,,,,,,,,,
,,,,,,,,,,,,,1,001,2025-01-14_12h18.21.616,IAT(Formal),2021.2.3,Win32,60.97560976,,,,,,,,,,,,,,,,i,1,0.4822,,,,,,他的,i,,,1,73,153,57,1,,,,,,,,,,,,,,,,,,,,,,,,,,,,,,,,,,
,,,,,,,,,,,,,1,001,2025-01-14_12h18.21.616,IAT(Formal),2021.2.3,Win32,60.97560976,,,,,,,,,,,,,,,,i,1,0.4934,,,,,,野蛮,i,,,1,74,154,46,1,,,,,,,,,,,,,,,,,,,,,,,,,,,,,,,,,,
,,,,,,,,,,,,,1,001,2025-01-14_12h18.21.616,IAT(Formal),2021.2.3,Win32,60.97560976,,,,,,,,,,,,,,,,e,1,0.5395,,,,,,朴实,e,,,1,75,155,24,1,,,,,,,,,,,,,,,,,,,,,,,,,,,,,,,,,,
,,,,,,,,,,,,,1,001,2025-01-14_12h18.21.616,IAT(Formal),2021.2.3,Win32,60.97560976,,,,,,,,,,,,,,,,e,1,0.944,,,,,,我,e,,,1,76,156,70,1,,,,,,,,,,,,,,,,,,,,,,,,,,,,,,,,,,
,,,,,,,,,,,,,1,001,2025-01-14_12h18.21.616,IAT(Formal),2021.2.3,Win32,60.97560976,,,,,,,,,,,,,,,,e,1,0.5215,,,,,,公正,e,,,1,77,157,23,1,,,,,,,,,,,,,,,,,,,,,,,,,,,,,,,,,,
,,,,,,,,,,,,,1,001,2025-01-14_12h18.21.616,IAT(Formal),2021.2.3,Win32,60.97560976,,,,,,,,,,,,,,,,i,1,0.5513,,,,,,他人,i,,,1,78,158,68,1,,,,,,,,,,,,,,,,,,,,,,,,,,,,,,,,,,
,,,,,,,,,,,,,1,001,2025-01-14_12h18.21.616,IAT(Formal),2021.2.3,Win32,60.97560976,,,,,,,,,,,,,,,,e,1,0.4262,,,,,,勇敢,e,,,1,79,159,17,1,,,,,,,,,,,,,,,,,,,,,,,,,,,,,,,,,,
,,,,,,,,,,,俺,i,1,001,2025-01-14_12h18.21.616,IAT(Formal),2021.2.3,Win32,60.97560976,,,,,,,,,,,,,,,,,,,,,,,,,,,,,,,,,space,4.2157,e,0,0.4757,0,0,0,4,1,,,,,,,,,,,,,,,,,,,,,,,,
,,,,,,,,,,,其他,e,1,001,2025-01-14_12h18.21.616,IAT(Formal),2021.2.3,Win32,60.97560976,,,,,,,,,,,,,,,,,,,,,,,,,,,,,,,,,,,e,1,0.7397,0,1,1,9,1,,,,,,,,,,,,,,,,,,,,,,,,
,,,,,,,,,,,他们,e,1,001,2025-01-14_12h18.21.616,IAT(Formal),2021.2.3,Win32,60.97560976,,,,,,,,,,,,,,,,,,,,,,,,,,,,,,,,,,,e,1,0.7663,0,2,2,6,1,,,,,,,,,,,,,,,,,,,,,,,,
,,,,,,,,,,,他,e,1,001,2025-01-14_12h18.21.616,IAT(Formal),2021.2.3,Win32,60.97560976,,,,,,,,,,,,,,,,,,,,,,,,,,,,,,,,,,,e,1,0.489,0,3,3,5,1,,,,,,,,,,,,,,,,,,,,,,,,
,,,,,,,,,,,他人,e,1,001,2025-01-14_12h18.21.616,IAT(Formal),2021.2.3,Win32,60.97560976,,,,,,,,,,,,,,,,,,,,,,,,,,,,,,,,,,,e,1,0.3986,0,4,4,8,1,,,,,,,,,,,,,,,,,,,,,,,,
,,,,,,,,,,,我,i,1,001,2025-01-14_12h18.21.616,IAT(Formal),2021.2.3,Win32,60.97560976,,,,,,,,,,,,,,,,,,,,,,,,,,,,,,,,,,,i,1,0.5053,0,5,5,0,1,,,,,,,,,,,,,,,,,,,,,,,,
,,,,,,,,,,,我们,i,1,001,2025-01-14_12h18.21.616,IAT(Formal),2021.2.3,Win32,60.97560976,,,,,,,,,,,,,,,,,,,,,,,,,,,,,,,,,,,i,1,0.4792,0,6,6,2,1,,,,,,,,,,,,,,,,,,,,,,,,
,,,,,,,,,,,我的,i,1,001,2025-01-14_12h18.21.616,IAT(Formal),2021.2.3,Win32,60.97560976,,,,,,,,,,,,,,,,,,,,,,,,,,,,,,,,,,,i,1,0.3839,0,7,7,1,1,,,,,,,,,,,,,,,,,,,,,,,,
,,,,,,,,,,,他的,e,1,001,2025-01-14_12h18.21.616,IAT(Formal),2021.2.3,Win32,60.97560976,,,,,,,,,,,,,,,,,,,,,,,,,,,,,,,,,,,e,1,0.5361,0,8,8,7,1,,,,,,,,,,,,,,,,,,,,,,,,
,,,,,,,,,,,自己,i,1,001,2025-01-14_12h18.21.616,IAT(Formal),2021.2.3,Win32,60.97560976,,,,,,,,,,,,,,,,,,,,,,,,,,,,,,,,,,,i,1,0.4907,0,9,9,3,1,,,,,,,,,,,,,,,,,,,,,,,,
,,,,,,,,,,,,,1,001,2025-01-14_12h18.21.616,IAT(Formal),2021.2.3,Win32,60.97560976,,,,,,,,,,,,,,,,,,,,,,,,,,,,,,,,,,,,,,,,,,,space,7.7059,i,1,0.521,0,0,0,51,1,我的,i,,,,,,,,,,,,
,,,,,,,,,,,,,1,001,2025-01-14_12h18.21.616,IAT(Formal),2021.2.3,Win32,60.97560976,,,,,,,,,,,,,,,,,,,,,,,,,,,,,,,,,,,,,,,,,,,,,e,1,0.7263,0,1,1,25,1,细腻,e,,,,,,,,,,,,
,,,,,,,,,,,,,1,001,2025-01-14_12h18.21.616,IAT(Formal),2021.2.3,Win32,60.97560976,,,,,,,,,,,,,,,,,,,,,,,,,,,,,,,,,,,,,,,,,,,,,i,1,0.5547,0,2,2,71,1,我的,i,,,,,,,,,,,,
,,,,,,,,,,,,,1,001,2025-01-14_12h18.21.616,IAT(Formal),2021.2.3,Win32,60.97560976,,,,,,,,,,,,,,,,,,,,,,,,,,,,,,,,,,,,,,,,,,,,,e,1,1.0297,0,3,3,16,1,正直,e,,,,,,,,,,,,
,,,,,,,,,,,,,1,001,2025-01-14_12h18.21.616,IAT(Formal),2021.2.3,Win32,60.97560976,,,,,,,,,,,,,,,,,,,,,,,,,,,,,,,,,,,,,,,,,,,,,e,1,0.5517,0,4,4,21,1,稳重,e,,,,,,,,,,,,
,,,,,,,,,,,,,1,001,2025-01-14_12h18.21.616,IAT(Formal),2021.2.3,Win32,60.97560976,,,,,,,,,,,,,,,,,,,,,,,,,,,,,,,,,,,,,,,,,,,,,i,1,0.8591,0,5,5,45,1,猖狂,i,,,,,,,,,,,,
,,,,,,,,,,,,,1,001,2025-01-14_12h18.21.616,IAT(Formal),2021.2.3,Win32,60.97560976,,,,,,,,,,,,,,,,,,,,,,,,,,,,,,,,,,,,,,,,,,,,,i,1,0.5848,0,6,6,38,1,鲁莽,i,,,,,,,,,,,,
,,,,,,,,,,,,,1,001,2025-01-14_12h18.21.616,IAT(Formal),2021.2.3,Win32,60.97560976,,,,,,,,,,,,,,,,,,,,,,,,,,,,,,,,,,,,,,,,,,,,,e,1,0.762,0,7,7,14,1,乐观,e,,,,,,,,,,,,
,,,,,,,,,,,,,1,001,2025-01-14_12h18.21.616,IAT(Formal),2021.2.3,Win32,60.97560976,,,,,,,,,,,,,,,,,,,,,,,,,,,,,,,,,,,,,,,,,,,,,i,1,0.8994,0,8,8,4,1,俺,i,,,,,,,,,,,,
,,,,,,,,,,,,,1,001,2025-01-14_12h18.21.616,IAT(Formal),2021.2.3,Win32,60.97560976,,,,,,,,,,,,,,,,,,,,,,,,,,,,,,,,,,,,,,,,,,,,,e,1,0.6664,0,9,9,79,1,其他,e,,,,,,,,,,,,
,,,,,,,,,,,,,1,001,2025-01-14_12h18.21.616,IAT(Formal),2021.2.3,Win32,60.97560976,,,,,,,,,,,,,,,,,,,,,,,,,,,,,,,,,,,,,,,,,,,,,i,0,0.5611,0,10,10,57,1,他的,e,,,,,,,,,,,,
,,,,,,,,,,,,,1,001,2025-01-14_12h18.21.616,IAT(Formal),2021.2.3,Win32,60.97560976,,,,,,,,,,,,,,,,,,,,,,,,,,,,,,,,,,,,,,,,,,,,,i,1,0.5395,0,11,11,53,1,自己,i,,,,,,,,,,,,
,,,,,,,,,,,,,1,001,2025-01-14_12h18.21.616,IAT(Formal),2021.2.3,Win32,60.97560976,,,,,,,,,,,,,,,,,,,,,,,,,,,,,,,,,,,,,,,,,,,,,e,1,0.9435,0,12,12,11,1,崇高,e,,,,,,,,,,,,
,,,,,,,,,,,,,1,001,2025-01-14_12h18.21.616,IAT(Formal),2021.2.3,Win32,60.97560976,,,,,,,,,,,,,,,,,,,,,,,,,,,,,,,,,,,,,,,,,,,,,e,1,1.148,0,13,13,68,1,他人,e,,,,,,,,,,,,
,,,,,,,,,,,,,1,001,2025-01-14_12h18.21.616,IAT(Formal),2021.2.3,Win32,60.97560976,,,,,,,,,,,,,,,,,,,,,,,,,,,,,,,,,,,,,,,,,,,,,i,1,0.639,0,14,14,36,1,自卑,i,,,,,,,,,,,,
,,,,,,,,,,,,,1,001,2025-01-14_12h18.21.616,IAT(Formal),2021.2.3,Win32,60.97560976,,,,,,,,,,,,,,,,,,,,,,,,,,,,,,,,,,,,,,,,,,,,,e,1,0.5336,0,15,15,66,1,他们,e,,,,,,,,,,,,
,,,,,,,,,,,,,1,001,2025-01-14_12h18.21.616,IAT(Formal),2021.2.3,Win32,60.97560976,,,,,,,,,,,,,,,,,,,,,,,,,,,,,,,,,,,,,,,,,,,,,i,0,0.8513,0,16,16,10,1,优秀,e,,,,,,,,,,,,
,,,,,,,,,,,,,1,001,2025-01-14_12h18.21.616,IAT(Formal),2021.2.3,Win32,60.97560976,,,,,,,,,,,,,,,,,,,,,,,,,,,,,,,,,,,,,,,,,,,,,i,1,0.4981,0,17,17,46,1,野蛮,i,,,,,,,,,,,,
,,,,,,,,,,,,,1,001,2025-01-14_12h18.21.616,IAT(Formal),2021.2.3,Win32,60.97560976,,,,,,,,,,,,,,,,,,,,,,,,,,,,,,,,,,,,,,,,,,,,,e,1,0.7661,0,18,18,13,1,杰出,e,,,,,,,,,,,,
,,,,,,,,,,,,,1,001,2025-01-14_12h18.21.616,IAT(Formal),2021.2.3,Win32,60.97560976,,,,,,,,,,,,,,,,,,,,,,,,,,,,,,,,,,,,,,,,,,,,,i,1,0.6405,0,19,19,70,1,我,i,,,,,,,,,,,,
,,,,,,,,,,,,,1,001,2025-01-14_12h18.21.616,IAT(Formal),2021.2.3,Win32,60.97560976,,,,,,,,,,,,,,,,,,,,,,,,,,,,,,,,,,,,,,,,,,,,,e,1,0.5364,0,20,20,17,1,勇敢,e,,,,,,,,,,,,
,,,,,,,,,,,,,1,001,2025-01-14_12h18.21.616,IAT(Formal),2021.2.3,Win32,60.97560976,,,,,,,,,,,,,,,,,,,,,,,,,,,,,,,,,,,,,,,,,,,,,i,0,0.668,0,21,21,67,1,他的,e,,,,,,,,,,,,
,,,,,,,,,,,,,1,001,2025-01-14_12h18.21.616,IAT(Formal),2021.2.3,Win32,60.97560976,,,,,,,,,,,,,,,,,,,,,,,,,,,,,,,,,,,,,,,,,,,,,e,1,0.4932,0,22,22,7,1,他的,e,,,,,,,,,,,,
,,,,,,,,,,,,,1,001,2025-01-14_12h18.21.616,IAT(Formal),2021.2.3,Win32,60.97560976,,,,,,,,,,,,,,,,,,,,,,,,,,,,,,,,,,,,,,,,,,,,,i,1,0.7063,0,23,23,44,1,暴躁,i,,,,,,,,,,,,
,,,,,,,,,,,,,1,001,2025-01-14_12h18.21.616,IAT(Formal),2021.2.3,Win32,60.97560976,,,,,,,,,,,,,,,,,,,,,,,,,,,,,,,,,,,,,,,,,,,,,i,1,1.0468,0,24,24,33,1,刻薄,i,,,,,,,,,,,,
,,,,,,,,,,,,,1,001,2025-01-14_12h18.21.616,IAT(Formal),2021.2.3,Win32,60.97560976,,,,,,,,,,,,,,,,,,,,,,,,,,,,,,,,,,,,,,,,,,,,,i,1,0.6054,0,25,25,31,1,虚伪,i,,,,,,,,,,,,
,,,,,,,,,,,,,1,001,2025-01-14_12h18.21.616,IAT(Formal),2021.2.3,Win32,60.97560976,,,,,,,,,,,,,,,,,,,,,,,,,,,,,,,,,,,,,,,,,,,,,e,1,1.0224,0,26,26,69,1,其他,e,,,,,,,,,,,,
,,,,,,,,,,,,,1,001,2025-01-14_12h18.21.616,IAT(Formal),2021.2.3,Win32,60.97560976,,,,,,,,,,,,,,,,,,,,,,,,,,,,,,,,,,,,,,,,,,,,,e,1,0.473,0,27,27,6,1,他们,e,,,,,,,,,,,,
,,,,,,,,,,,,,1,001,2025-01-14_12h18.21.616,IAT(Formal),2021.2.3,Win32,60.97560976,,,,,,,,,,,,,,,,,,,,,,,,,,,,,,,,,,,,,,,,,,,,,i,1,0.7176,0,28,28,40,1,执拗,i,,,,,,,,,,,,
,,,,,,,,,,,,,1,001,2025-01-14_12h18.21.616,IAT(Formal),2021.2.3,Win32,60.97560976,,,,,,,,,,,,,,,,,,,,,,,,,,,,,,,,,,,,,,,,,,,,,i,1,0.6828,0,29,29,0,1,我,i,,,,,,,,,,,,
,,,,,,,,,,,,,1,001,2025-01-14_12h18.21.616,IAT(Formal),2021.2.3,Win32,60.97560976,,,,,,,,,,,,,,,,,,,,,,,,,,,,,,,,,,,,,,,,,,,,,i,1,0.729,0,30,30,47,1,固执,i,,,,,,,,,,,,
,,,,,,,,,,,,,1,001,2025-01-14_12h18.21.616,IAT(Formal),2021.2.3,Win32,60.97560976,,,,,,,,,,,,,,,,,,,,,,,,,,,,,,,,,,,,,,,,,,,,,i,1,0.4435,0,31,31,37,1,傲慢,i,,,,,,,,,,,,
,,,,,,,,,,,,,1,001,2025-01-14_12h18.21.616,IAT(Formal),2021.2.3,Win32,60.97560976,,,,,,,,,,,,,,,,,,,,,,,,,,,,,,,,,,,,,,,,,,,,,e,0,0.757,0,32,32,72,1,我们,i,,,,,,,,,,,,
,,,,,,,,,,,,,1,001,2025-01-14_12h18.21.616,IAT(Formal),2021.2.3,Win32,60.97560976,,,,,,,,,,,,,,,,,,,,,,,,,,,,,,,,,,,,,,,,,,,,,e,1,0.3825,0,33,33,58,1,他人,e,,,,,,,,,,,,
,,,,,,,,,,,,,1,001,2025-01-14_12h18.21.616,IAT(Formal),2021.2.3,Win32,60.97560976,,,,,,,,,,,,,,,,,,,,,,,,,,,,,,,,,,,,,,,,,,,,,e,1,0.8337,0,34,34,55,1,他,e,,,,,,,,,,,,
,,,,,,,,,,,,,1,001,2025-01-14_12h18.21.616,IAT(Formal),2021.2.3,Win32,60.97560976,,,,,,,,,,,,,,,,,,,,,,,,,,,,,,,,,,,,,,,,,,,,,i,1,0.5769,0,35,35,39,1,冒失,i,,,,,,,,,,,,
,,,,,,,,,,,,,1,001,2025-01-14_12h18.21.616,IAT(Formal),2021.2.3,Win32,60.97560976,,,,,,,,,,,,,,,,,,,,,,,,,,,,,,,,,,,,,,,,,,,,,i,1,0.4906,0,36,36,35,1,消极,i,,,,,,,,,,,,
,,,,,,,,,,,,,1,001,2025-01-14_12h18.21.616,IAT(Formal),2021.2.3,Win32,60.97560976,,,,,,,,,,,,,,,,,,,,,,,,,,,,,,,,,,,,,,,,,,,,,e,1,0.5312,0,37,37,12,1,聪明,e,,,,,,,,,,,,
,,,,,,,,,,,,,1,001,2025-01-14_12h18.21.616,IAT(Formal),2021.2.3,Win32,60.97560976,,,,,,,,,,,,,,,,,,,,,,,,,,,,,,,,,,,,,,,,,,,,,i,1,0.852,0,38,38,3,1,自己,i,,,,,,,,,,,,
,,,,,,,,,,,,,1,001,2025-01-14_12h18.21.616,IAT(Formal),2021.2.3,Win32,60.97560976,,,,,,,,,,,,,,,,,,,,,,,,,,,,,,,,,,,,,,,,,,,,,i,1,0.4524,0,39,39,50,1,我,i,,,,,,,,,,,,
,,,,,,,,,,,,,1,001,2025-01-14_12h18.21.616,IAT(Formal),2021.2.3,Win32,60.97560976,,,,,,,,,,,,,,,,,,,,,,,,,,,,,,,,,,,,,,,,,,,,,i,1,0.8923,0,40,40,43,1,自私,i,,,,,,,,,,,,
,,,,,,,,,,,,,1,001,2025-01-14_12h18.21.616,IAT(Formal),2021.2.3,Win32,60.97560976,,,,,,,,,,,,,,,,,,,,,,,,,,,,,,,,,,,,,,,,,,,,,i,1,0.4654,0,41,41,41,1,散漫,i,,,,,,,,,,,,
,,,,,,,,,,,,,1,001,2025-01-14_12h18.21.616,IAT(Formal),2021.2.3,Win32,60.97560976,,,,,,,,,,,,,,,,,,,,,,,,,,,,,,,,,,,,,,,,,,,,,i,0,0.4799,0,42,42,26,1,冷静,e,,,,,,,,,,,,
,,,,,,,,,,,,,1,001,2025-01-14_12h18.21.616,IAT(Formal),2021.2.3,Win32,60.97560976,,,,,,,,,,,,,,,,,,,,,,,,,,,,,,,,,,,,,,,,,,,,,e,1,0.5753,0,43,43,8,1,他人,e,,,,,,,,,,,,
,,,,,,,,,,,,,1,001,2025-01-14_12h18.21.616,IAT(Formal),2021.2.3,Win32,60.97560976,,,,,,,,,,,,,,,,,,,,,,,,,,,,,,,,,,,,,,,,,,,,,e,1,0.888,0,44,44,20,1,认真,e,,,,,,,,,,,,
,,,,,,,,,,,,,1,001,2025-01-14_12h18.21.616,IAT(Formal),2021.2.3,Win32,60.97560976,,,,,,,,,,,,,,,,,,,,,,,,,,,,,,,,,,,,,,,,,,,,,e,1,0.6945,0,45,45,27,1,热情,e,,,,,,,,,,,,
,,,,,,,,,,,,,1,001,2025-01-14_12h18.21.616,IAT(Formal),2021.2.3,Win32,60.97560976,,,,,,,,,,,,,,,,,,,,,,,,,,,,,,,,,,,,,,,,,,,,,i,1,0.4683,0,46,46,49,1,下贱,i,,,,,,,,,,,,
,,,,,,,,,,,,,1,001,2025-01-14_12h18.21.616,IAT(Formal),2021.2.3,Win32,60.97560976,,,,,,,,,,,,,,,,,,,,,,,,,,,,,,,,,,,,,,,,,,,,,e,1,0.6677,0,47,47,9,1,其他,e,,,,,,,,,,,,
,,,,,,,,,,,,,1,001,2025-01-14_12h18.21.616,IAT(Formal),2021.2.3,Win32,60.97560976,,,,,,,,,,,,,,,,,,,,,,,,,,,,,,,,,,,,,,,,,,,,,e,1,0.9046,0,48,48,24,1,朴实,e,,,,,,,,,,,,
,,,,,,,,,,,,,1,001,2025-01-14_12h18.21.616,IAT(Formal),2021.2.3,Win32,60.97560976,,,,,,,,,,,,,,,,,,,,,,,,,,,,,,,,,,,,,,,,,,,,,e,1,0.4214,0,49,49,15,1,诚实,e,,,,,,,,,,,,
,,,,,,,,,,,,,1,001,2025-01-14_12h18.21.616,IAT(Formal),2021.2.3,Win32,60.97560976,,,,,,,,,,,,,,,,,,,,,,,,,,,,,,,,,,,,,,,,,,,,,i,1,0.4327,0,50,50,30,1,卑鄙,i,,,,,,,,,,,,
,,,,,,,,,,,,,1,001,2025-01-14_12h18.21.616,IAT(Formal),2021.2.3,Win32,60.97560976,,,,,,,,,,,,,,,,,,,,,,,,,,,,,,,,,,,,,,,,,,,,,i,1,0.6877,0,51,51,1,1,我的,i,,,,,,,,,,,,
,,,,,,,,,,,,,1,001,2025-01-14_12h18.21.616,IAT(Formal),2021.2.3,Win32,60.97560976,,,,,,,,,,,,,,,,,,,,,,,,,,,,,,,,,,,,,,,,,,,,,e,1,0.9721,0,52,52,22,1,无私,e,,,,,,,,,,,,
,,,,,,,,,,,,,1,001,2025-01-14_12h18.21.616,IAT(Formal),2021.2.3,Win32,60.97560976,,,,,,,,,,,,,,,,,,,,,,,,,,,,,,,,,,,,,,,,,,,,,i,1,0.5586,0,53,53,60,1,我,i,,,,,,,,,,,,
,,,,,,,,,,,,,1,001,2025-01-14_12h18.21.616,IAT(Formal),2021.2.3,Win32,60.97560976,,,,,,,,,,,,,,,,,,,,,,,,,,,,,,,,,,,,,,,,,,,,,i,1,0.5048,0,54,54,63,1,自己,i,,,,,,,,,,,,
,,,,,,,,,,,,,1,001,2025-01-14_12h18.21.616,IAT(Formal),2021.2.3,Win32,60.97560976,,,,,,,,,,,,,,,,,,,,,,,,,,,,,,,,,,,,,,,,,,,,,e,1,0.4229,0,55,55,5,1,他,e,,,,,,,,,,,,
,,,,,,,,,,,,,1,001,2025-01-14_12h18.21.616,IAT(Formal),2021.2.3,Win32,60.97560976,,,,,,,,,,,,,,,,,,,,,,,,,,,,,,,,,,,,,,,,,,,,,e,1,0.5846,0,56,56,23,1,公正,e,,,,,,,,,,,,
,,,,,,,,,,,,,1,001,2025-01-14_12h18.21.616,IAT(Formal),2021.2.3,Win32,60.97560976,,,,,,,,,,,,,,,,,,,,,,,,,,,,,,,,,,,,,,,,,,,,,i,1,0.5451,0,57,57,48,1,轻率,i,,,,,,,,,,,,
,,,,,,,,,,,,,1,001,2025-01-14_12h18.21.616,IAT(Formal),2021.2.3,Win32,60.97560976,,,,,,,,,,,,,,,,,,,,,,,,,,,,,,,,,,,,,,,,,,,,,e,1,0.765,0,58,58,77,1,他的,e,,,,,,,,,,,,
,,,,,,,,,,,,,1,001,2025-01-14_12h18.21.616,IAT(Formal),2021.2.3,Win32,60.97560976,,,,,,,,,,,,,,,,,,,,,,,,,,,,,,,,,,,,,,,,,,,,,i,1,0.5045,0,59,59,73,1,自己,i,,,,,,,,,,,,
,,,,,,,,,,,,,1,001,2025-01-14_12h18.21.616,IAT(Formal),2021.2.3,Win32,60.97560976,,,,,,,,,,,,,,,,,,,,,,,,,,,,,,,,,,,,,,,,,,,,,e,0,0.6217,0,60,60,52,1,我们,i,,,,,,,,,,,,
,,,,,,,,,,,,,1,001,2025-01-14_12h18.21.616,IAT(Formal),2021.2.3,Win32,60.97560976,,,,,,,,,,,,,,,,,,,,,,,,,,,,,,,,,,,,,,,,,,,,,i,1,0.717,0,61,61,34,1,悲观,i,,,,,,,,,,,,
,,,,,,,,,,,,,1,001,2025-01-14_12h18.21.616,IAT(Formal),2021.2.3,Win32,60.97560976,,,,,,,,,,,,,,,,,,,,,,,,,,,,,,,,,,,,,,,,,,,,,i,1,0.9367,0,62,62,62,1,我们,i,,,,,,,,,,,,
,,,,,,,,,,,,,1,001,2025-01-14_12h18.21.616,IAT(Formal),2021.2.3,Win32,60.97560976,,,,,,,,,,,,,,,,,,,,,,,,,,,,,,,,,,,,,,,,,,,,,e,1,0.757,0,63,63,76,1,他们,e,,,,,,,,,,,,
,,,,,,,,,,,,,1,001,2025-01-14_12h18.21.616,IAT(Formal),2021.2.3,Win32,60.97560976,,,,,,,,,,,,,,,,,,,,,,,,,,,,,,,,,,,,,,,,,,,,,e,1,0.8242,0,64,64,19,1,机智,e,,,,,,,,,,,,
,,,,,,,,,,,,,1,001,2025-01-14_12h18.21.616,IAT(Formal),2021.2.3,Win32,60.97560976,,,,,,,,,,,,,,,,,,,,,,,,,,,,,,,,,,,,,,,,,,,,,i,1,0.8415,0,65,65,54,1,俺,i,,,,,,,,,,,,
,,,,,,,,,,,,,1,001,2025-01-14_12h18.21.616,IAT(Formal),2021.2.3,Win32,60.97560976,,,,,,,,,,,,,,,,,,,,,,,,,,,,,,,,,,,,,,,,,,,,,i,1,0.4677,0,66,66,74,1,俺,i,,,,,,,,,,,,
,,,,,,,,,,,,,1,001,2025-01-14_12h18.21.616,IAT(Formal),2021.2.3,Win32,60.97560976,,,,,,,,,,,,,,,,,,,,,,,,,,,,,,,,,,,,,,,,,,,,,i,1,0.5842,0,67,67,32,1,愚蠢,i,,,,,,,,,,,,
,,,,,,,,,,,,,1,001,2025-01-14_12h18.21.616,IAT(Formal),2021.2.3,Win32,60.97560976,,,,,,,,,,,,,,,,,,,,,,,,,,,,,,,,,,,,,,,,,,,,,e,1,0.6022,0,68,68,65,1,他,e,,,,,,,,,,,,
,,,,,,,,,,,,,1,001,2025-01-14_12h18.21.616,IAT(Formal),2021.2.3,Win32,60.97560976,,,,,,,,,,,,,,,,,,,,,,,,,,,,,,,,,,,,,,,,,,,,,i,1,0.6107,0,69,69,2,1,我们,i,,,,,,,,,,,,
,,,,,,,,,,,,,1,001,2025-01-14_12h18.21.616,IAT(Formal),2021.2.3,Win32,60.97560976,,,,,,,,,,,,,,,,,,,,,,,,,,,,,,,,,,,,,,,,,,,,,e,1,0.9657,0,70,70,29,1,诚恳,e,,,,,,,,,,,,
,,,,,,,,,,,,,1,001,2025-01-14_12h18.21.616,IAT(Formal),2021.2.3,Win32,60.97560976,,,,,,,,,,,,,,,,,,,,,,,,,,,,,,,,,,,,,,,,,,,,,e,1,0.5729,0,71,71,18,1,勤奋,e,,,,,,,,,,,,
,,,,,,,,,,,,,1,001,2025-01-14_12h18.21.616,IAT(Formal),2021.2.3,Win32,60.97560976,,,,,,,,,,,,,,,,,,,,,,,,,,,,,,,,,,,,,,,,,,,,,i,1,0.5671,0,72,72,61,1,我的,i,,,,,,,,,,,,
,,,,,,,,,,,,,1,001,2025-01-14_12h18.21.616,IAT(Formal),2021.2.3,Win32,60.97560976,,,,,,,,,,,,,,,,,,,,,,,,,,,,,,,,,,,,,,,,,,,,,e,1,0.5537,0,73,73,56,1,他们,e,,,,,,,,,,,,
,,,,,,,,,,,,,1,001,2025-01-14_12h18.21.616,IAT(Formal),2021.2.3,Win32,60.97560976,,,,,,,,,,,,,,,,,,,,,,,,,,,,,,,,,,,,,,,,,,,,,i,1,0.5017,0,74,74,42,1,凶狠,i,,,,,,,,,,,,
,,,,,,,,,,,,,1,001,2025-01-14_12h18.21.616,IAT(Formal),2021.2.3,Win32,60.97560976,,,,,,,,,,,,,,,,,,,,,,,,,,,,,,,,,,,,,,,,,,,,,e,1,0.4911,0,75,75,75,1,他,e,,,,,,,,,,,,
,,,,,,,,,,,,,1,001,2025-01-14_12h18.21.616,IAT(Formal),2021.2.3,Win32,60.97560976,,,,,,,,,,,,,,,,,,,,,,,,,,,,,,,,,,,,,,,,,,,,,i,1,0.6085,0,76,76,64,1,俺,i,,,,,,,,,,,,
,,,,,,,,,,,,,1,001,2025-01-14_12h18.21.616,IAT(Formal),2021.2.3,Win32,60.97560976,,,,,,,,,,,,,,,,,,,,,,,,,,,,,,,,,,,,,,,,,,,,,e,1,0.6017,0,77,77,78,1,他人,e,,,,,,,,,,,,
,,,,,,,,,,,,,1,001,2025-01-14_12h18.21.616,IAT(Formal),2021.2.3,Win32,60.97560976,,,,,,,,,,,,,,,,,,,,,,,,,,,,,,,,,,,,,,,,,,,,,e,1,0.7713,0,78,78,59,1,其他,e,,,,,,,,,,,,
,,,,,,,,,,,,,1,001,2025-01-14_12h18.21.616,IAT(Formal),2021.2.3,Win32,60.97560976,,,,,,,,,,,,,,,,,,,,,,,,,,,,,,,,,,,,,,,,,,,,,e,1,0.7824,0,79,79,28,1,活泼,e,,,,,,,,,,,,
,,,,,,,,,,,,,1,001,2025-01-14_12h18.21.616,IAT(Formal),2021.2.3,Win32,60.97560976,,,,,,,,,,,,,,,,,,,,,,,,,,,,,,,,,,,,,,,,,,,,,,,,,,,,,他,e,space,5.5132,e,1,0.7333,0,0,0,75,1,,
,,,,,,,,,,,,,1,001,2025-01-14_12h18.21.616,IAT(Formal),2021.2.3,Win32,60.97560976,,,,,,,,,,,,,,,,,,,,,,,,,,,,,,,,,,,,,,,,,,,,,,,,,,,,,朴实,e,,,e,1,0.7199,0,1,1,24,1,,
,,,,,,,,,,,,,1,001,2025-01-14_12h18.21.616,IAT(Formal),2021.2.3,Win32,60.97560976,,,,,,,,,,,,,,,,,,,,,,,,,,,,,,,,,,,,,,,,,,,,,,,,,,,,,消极,i,,,i,1,0.5958,0,2,2,35,1,,
,,,,,,,,,,,,,1,001,2025-01-14_12h18.21.616,IAT(Formal),2021.2.3,Win32,60.97560976,,,,,,,,,,,,,,,,,,,,,,,,,,,,,,,,,,,,,,,,,,,,,,,,,,,,,我的,i,,,i,1,0.5651,0,3,3,71,1,,
,,,,,,,,,,,,,1,001,2025-01-14_12h18.21.616,IAT(Formal),2021.2.3,Win32,60.97560976,,,,,,,,,,,,,,,,,,,,,,,,,,,,,,,,,,,,,,,,,,,,,,,,,,,,,优秀,e,,,e,1,0.5277,0,4,4,10,1,,
,,,,,,,,,,,,,1,001,2025-01-14_12h18.21.616,IAT(Formal),2021.2.3,Win32,60.97560976,,,,,,,,,,,,,,,,,,,,,,,,,,,,,,,,,,,,,,,,,,,,,,,,,,,,,俺,i,,,i,1,0.4925,0,5,5,74,1,,
,,,,,,,,,,,,,1,001,2025-01-14_12h18.21.616,IAT(Formal),2021.2.3,Win32,60.97560976,,,,,,,,,,,,,,,,,,,,,,,,,,,,,,,,,,,,,,,,,,,,,,,,,,,,,他,e,,,e,1,0.4669,0,6,6,65,1,,
,,,,,,,,,,,,,1,001,2025-01-14_12h18.21.616,IAT(Formal),2021.2.3,Win32,60.97560976,,,,,,,,,,,,,,,,,,,,,,,,,,,,,,,,,,,,,,,,,,,,,,,,,,,,,执拗,i,,,i,1,0.5301,0,7,7,40,1,,
,,,,,,,,,,,,,1,001,2025-01-14_12h18.21.616,IAT(Formal),2021.2.3,Win32,60.97560976,,,,,,,,,,,,,,,,,,,,,,,,,,,,,,,,,,,,,,,,,,,,,,,,,,,,,我,i,,,i,1,0.6694,0,8,8,0,1,,
,,,,,,,,,,,,,1,001,2025-01-14_12h18.21.616,IAT(Formal),2021.2.3,Win32,60.97560976,,,,,,,,,,,,,,,,,,,,,,,,,,,,,,,,,,,,,,,,,,,,,,,,,,,,,他人,e,,,e,1,0.5721,0,9,9,78,1,,
,,,,,,,,,,,,,1,001,2025-01-14_12h18.21.616,IAT(Formal),2021.2.3,Win32,60.97560976,,,,,,,,,,,,,,,,,,,,,,,,,,,,,,,,,,,,,,,,,,,,,,,,,,,,,他人,e,,,e,1,1.2009,0,10,10,58,1,,
,,,,,,,,,,,,,1,001,2025-01-14_12h18.21.616,IAT(Formal),2021.2.3,Win32,60.97560976,,,,,,,,,,,,,,,,,,,,,,,,,,,,,,,,,,,,,,,,,,,,,,,,,,,,,他的,e,,,e,1,0.7917,0,11,11,77,1,,
,,,,,,,,,,,,,1,001,2025-01-14_12h18.21.616,IAT(Formal),2021.2.3,Win32,60.97560976,,,,,,,,,,,,,,,,,,,,,,,,,,,,,,,,,,,,,,,,,,,,,,,,,,,,,固执,i,,,i,1,0.5696,0,12,12,47,1,,
,,,,,,,,,,,,,1,001,2025-01-14_12h18.21.616,IAT(Formal),2021.2.3,Win32,60.97560976,,,,,,,,,,,,,,,,,,,,,,,,,,,,,,,,,,,,,,,,,,,,,,,,,,,,,他们,e,,,e,1,1.1086,0,13,13,76,1,,
,,,,,,,,,,,,,1,001,2025-01-14_12h18.21.616,IAT(Formal),2021.2.3,Win32,60.97560976,,,,,,,,,,,,,,,,,,,,,,,,,,,,,,,,,,,,,,,,,,,,,,,,,,,,,我,i,,,i,1,0.4497,0,14,14,70,1,,
,,,,,,,,,,,,,1,001,2025-01-14_12h18.21.616,IAT(Formal),2021.2.3,Win32,60.97560976,,,,,,,,,,,,,,,,,,,,,,,,,,,,,,,,,,,,,,,,,,,,,,,,,,,,,细腻,e,,,e,1,0.6887,0,15,15,25,1,,
,,,,,,,,,,,,,1,001,2025-01-14_12h18.21.616,IAT(Formal),2021.2.3,Win32,60.97560976,,,,,,,,,,,,,,,,,,,,,,,,,,,,,,,,,,,,,,,,,,,,,,,,,,,,,杰出,e,,,e,1,0.677,0,16,16,13,1,,
,,,,,,,,,,,,,1,001,2025-01-14_12h18.21.616,IAT(Formal),2021.2.3,Win32,60.97560976,,,,,,,,,,,,,,,,,,,,,,,,,,,,,,,,,,,,,,,,,,,,,,,,,,,,,凶狠,i,,,i,1,0.4595,0,17,17,42,1,,
,,,,,,,,,,,,,1,001,2025-01-14_12h18.21.616,IAT(Formal),2021.2.3,Win32,60.97560976,,,,,,,,,,,,,,,,,,,,,,,,,,,,,,,,,,,,,,,,,,,,,,,,,,,,,他们,e,,,e,1,0.4917,0,18,18,6,1,,
,,,,,,,,,,,,,1,001,2025-01-14_12h18.21.616,IAT(Formal),2021.2.3,Win32,60.97560976,,,,,,,,,,,,,,,,,,,,,,,,,,,,,,,,,,,,,,,,,,,,,,,,,,,,,其他,e,,,e,1,0.6417,0,19,19,79,1,,
,,,,,,,,,,,,,1,001,2025-01-14_12h18.21.616,IAT(Formal),2021.2.3,Win32,60.97560976,,,,,,,,,,,,,,,,,,,,,,,,,,,,,,,,,,,,,,,,,,,,,,,,,,,,,勤奋,e,,,e,1,0.5702,0,20,20,18,1,,
,,,,,,,,,,,,,1,001,2025-01-14_12h18.21.616,IAT(Formal),2021.2.3,Win32,60.97560976,,,,,,,,,,,,,,,,,,,,,,,,,,,,,,,,,,,,,,,,,,,,,,,,,,,,,我的,i,,,i,1,0.5305,0,21,21,61,1,,
,,,,,,,,,,,,,1,001,2025-01-14_12h18.21.616,IAT(Formal),2021.2.3,Win32,60.97560976,,,,,,,,,,,,,,,,,,,,,,,,,,,,,,,,,,,,,,,,,,,,,,,,,,,,,俺,i,,,i,1,0.6704,0,22,22,4,1,,
,,,,,,,,,,,,,1,001,2025-01-14_12h18.21.616,IAT(Formal),2021.2.3,Win32,60.97560976,,,,,,,,,,,,,,,,,,,,,,,,,,,,,,,,,,,,,,,,,,,,,,,,,,,,,我们,i,,,i,1,0.6772,0,23,23,2,1,,
,,,,,,,,,,,,,1,001,2025-01-14_12h18.21.616,IAT(Formal),2021.2.3,Win32,60.97560976,,,,,,,,,,,,,,,,,,,,,,,,,,,,,,,,,,,,,,,,,,,,,,,,,,,,,暴躁,i,,,i,1,0.581,0,24,24,44,1,,
,,,,,,,,,,,,,1,001,2025-01-14_12h18.21.616,IAT(Formal),2021.2.3,Win32,60.97560976,,,,,,,,,,,,,,,,,,,,,,,,,,,,,,,,,,,,,,,,,,,,,,,,,,,,,勇敢,e,,,e,1,0.7816,0,25,25,17,1,,
,,,,,,,,,,,,,1,001,2025-01-14_12h18.21.616,IAT(Formal),2021.2.3,Win32,60.97560976,,,,,,,,,,,,,,,,,,,,,,,,,,,,,,,,,,,,,,,,,,,,,,,,,,,,,虚伪,i,,,i,1,0.5919,0,26,26,31,1,,
,,,,,,,,,,,,,1,001,2025-01-14_12h18.21.616,IAT(Formal),2021.2.3,Win32,60.97560976,,,,,,,,,,,,,,,,,,,,,,,,,,,,,,,,,,,,,,,,,,,,,,,,,,,,,轻率,i,,,i,1,0.5681,0,27,27,48,1,,
,,,,,,,,,,,,,1,001,2025-01-14_12h18.21.616,IAT(Formal),2021.2.3,Win32,60.97560976,,,,,,,,,,,,,,,,,,,,,,,,,,,,,,,,,,,,,,,,,,,,,,,,,,,,,下贱,i,,,i,1,0.5398,0,28,28,49,1,,
,,,,,,,,,,,,,1,001,2025-01-14_12h18.21.616,IAT(Formal),2021.2.3,Win32,60.97560976,,,,,,,,,,,,,,,,,,,,,,,,,,,,,,,,,,,,,,,,,,,,,,,,,,,,,愚蠢,i,,,i,1,0.7996,0,29,29,32,1,,
,,,,,,,,,,,,,1,001,2025-01-14_12h18.21.616,IAT(Formal),2021.2.3,Win32,60.97560976,,,,,,,,,,,,,,,,,,,,,,,,,,,,,,,,,,,,,,,,,,,,,,,,,,,,,刻薄,i,,,i,1,0.4656,0,30,30,33,1,,
,,,,,,,,,,,,,1,001,2025-01-14_12h18.21.616,IAT(Formal),2021.2.3,Win32,60.97560976,,,,,,,,,,,,,,,,,,,,,,,,,,,,,,,,,,,,,,,,,,,,,,,,,,,,,自卑,i,,,i,1,0.5043,0,31,31,36,1,,
,,,,,,,,,,,,,1,001,2025-01-14_12h18.21.616,IAT(Formal),2021.2.3,Win32,60.97560976,,,,,,,,,,,,,,,,,,,,,,,,,,,,,,,,,,,,,,,,,,,,,,,,,,,,,我,i,,,i,1,0.8117,0,32,32,50,1,,
,,,,,,,,,,,,,1,001,2025-01-14_12h18.21.616,IAT(Formal),2021.2.3,Win32,60.97560976,,,,,,,,,,,,,,,,,,,,,,,,,,,,,,,,,,,,,,,,,,,,,,,,,,,,,他的,e,,,e,1,0.5329,0,33,33,57,1,,
,,,,,,,,,,,,,1,001,2025-01-14_12h18.21.616,IAT(Formal),2021.2.3,Win32,60.97560976,,,,,,,,,,,,,,,,,,,,,,,,,,,,,,,,,,,,,,,,,,,,,,,,,,,,,自己,i,,,i,1,0.5307,0,34,34,3,1,,
,,,,,,,,,,,,,1,001,2025-01-14_12h18.21.616,IAT(Formal),2021.2.3,Win32,60.97560976,,,,,,,,,,,,,,,,,,,,,,,,,,,,,,,,,,,,,,,,,,,,,,,,,,,,,他的,e,,,e,1,0.502,0,35,35,67,1,,
,,,,,,,,,,,,,1,001,2025-01-14_12h18.21.616,IAT(Formal),2021.2.3,Win32,60.97560976,,,,,,,,,,,,,,,,,,,,,,,,,,,,,,,,,,,,,,,,,,,,,,,,,,,,,我们,i,,,i,1,0.4994,0,36,36,62,1,,
,,,,,,,,,,,,,1,001,2025-01-14_12h18.21.616,IAT(Formal),2021.2.3,Win32,60.97560976,,,,,,,,,,,,,,,,,,,,,,,,,,,,,,,,,,,,,,,,,,,,,,,,,,,,,诚实,e,,,e,1,0.3832,0,37,37,15,1,,
,,,,,,,,,,,,,1,001,2025-01-14_12h18.21.616,IAT(Formal),2021.2.3,Win32,60.97560976,,,,,,,,,,,,,,,,,,,,,,,,,,,,,,,,,,,,,,,,,,,,,,,,,,,,,我们,i,,,i,1,0.5087,0,38,38,72,1,,
,,,,,,,,,,,,,1,001,2025-01-14_12h18.21.616,IAT(Formal),2021.2.3,Win32,60.97560976,,,,,,,,,,,,,,,,,,,,,,,,,,,,,,,,,,,,,,,,,,,,,,,,,,,,,冒失,i,,,i,1,0.5284,0,39,39,39,1,,
,,,,,,,,,,,,,1,001,2025-01-14_12h18.21.616,IAT(Formal),2021.2.3,Win32,60.97560976,,,,,,,,,,,,,,,,,,,,,,,,,,,,,,,,,,,,,,,,,,,,,,,,,,,,,散漫,i,,,i,1,0.5097,0,40,40,41,1,,
,,,,,,,,,,,,,1,001,2025-01-14_12h18.21.616,IAT(Formal),2021.2.3,Win32,60.97560976,,,,,,,,,,,,,,,,,,,,,,,,,,,,,,,,,,,,,,,,,,,,,,,,,,,,,其他,e,,,i,0,0.5319,0,41,41,69,1,,
,,,,,,,,,,,,,1,001,2025-01-14_12h18.21.616,IAT(Formal),2021.2.3,Win32,60.97560976,,,,,,,,,,,,,,,,,,,,,,,,,,,,,,,,,,,,,,,,,,,,,,,,,,,,,我,i,,,i,1,0.4291,0,42,42,60,1,,
,,,,,,,,,,,,,1,001,2025-01-14_12h18.21.616,IAT(Formal),2021.2.3,Win32,60.97560976,,,,,,,,,,,,,,,,,,,,,,,,,,,,,,,,,,,,,,,,,,,,,,,,,,,,,自私,i,,,i,1,0.6554,0,43,43,43,1,,
,,,,,,,,,,,,,1,001,2025-01-14_12h18.21.616,IAT(Formal),2021.2.3,Win32,60.97560976,,,,,,,,,,,,,,,,,,,,,,,,,,,,,,,,,,,,,,,,,,,,,,,,,,,,,热情,e,,,e,1,0.5401,0,44,44,27,1,,
,,,,,,,,,,,,,1,001,2025-01-14_12h18.21.616,IAT(Formal),2021.2.3,Win32,60.97560976,,,,,,,,,,,,,,,,,,,,,,,,,,,,,,,,,,,,,,,,,,,,,,,,,,,,,他们,e,,,e,1,0.8407,0,45,45,56,1,,
,,,,,,,,,,,,,1,001,2025-01-14_12h18.21.616,IAT(Formal),2021.2.3,Win32,60.97560976,,,,,,,,,,,,,,,,,,,,,,,,,,,,,,,,,,,,,,,,,,,,,,,,,,,,,认真,e,,,e,1,0.7529,0,46,46,20,1,,
,,,,,,,,,,,,,1,001,2025-01-14_12h18.21.616,IAT(Formal),2021.2.3,Win32,60.97560976,,,,,,,,,,,,,,,,,,,,,,,,,,,,,,,,,,,,,,,,,,,,,,,,,,,,,机智,e,,,e,1,0.5808,0,47,47,19,1,,
,,,,,,,,,,,,,1,001,2025-01-14_12h18.21.616,IAT(Formal),2021.2.3,Win32,60.97560976,,,,,,,,,,,,,,,,,,,,,,,,,,,,,,,,,,,,,,,,,,,,,,,,,,,,,崇高,e,,,e,1,0.431,0,48,48,11,1,,
,,,,,,,,,,,,,1,001,2025-01-14_12h18.21.616,IAT(Formal),2021.2.3,Win32,60.97560976,,,,,,,,,,,,,,,,,,,,,,,,,,,,,,,,,,,,,,,,,,,,,,,,,,,,,他,e,,,e,1,0.6943,0,49,49,55,1,,
,,,,,,,,,,,,,1,001,2025-01-14_12h18.21.616,IAT(Formal),2021.2.3,Win32,60.97560976,,,,,,,,,,,,,,,,,,,,,,,,,,,,,,,,,,,,,,,,,,,,,,,,,,,,,他们,e,,,e,1,0.507,0,50,50,66,1,,
,,,,,,,,,,,,,1,001,2025-01-14_12h18.21.616,IAT(Formal),2021.2.3,Win32,60.97560976,,,,,,,,,,,,,,,,,,,,,,,,,,,,,,,,,,,,,,,,,,,,,,,,,,,,,自己,i,,,i,1,0.5285,0,51,51,73,1,,
,,,,,,,,,,,,,1,001,2025-01-14_12h18.21.616,IAT(Formal),2021.2.3,Win32,60.97560976,,,,,,,,,,,,,,,,,,,,,,,,,,,,,,,,,,,,,,,,,,,,,,,,,,,,,悲观,i,,,i,1,0.6207,0,52,52,34,1,,
,,,,,,,,,,,,,1,001,2025-01-14_12h18.21.616,IAT(Formal),2021.2.3,Win32,60.97560976,,,,,,,,,,,,,,,,,,,,,,,,,,,,,,,,,,,,,,,,,,,,,,,,,,,,,乐观,e,,,e,1,0.5084,0,53,53,14,1,,
,,,,,,,,,,,,,1,001,2025-01-14_12h18.21.616,IAT(Formal),2021.2.3,Win32,60.97560976,,,,,,,,,,,,,,,,,,,,,,,,,,,,,,,,,,,,,,,,,,,,,,,,,,,,,正直,e,,,e,1,0.4352,0,54,54,16,1,,
,,,,,,,,,,,,,1,001,2025-01-14_12h18.21.616,IAT(Formal),2021.2.3,Win32,60.97560976,,,,,,,,,,,,,,,,,,,,,,,,,,,,,,,,,,,,,,,,,,,,,,,,,,,,,他,e,,,e,1,0.5502,0,55,55,5,1,,
,,,,,,,,,,,,,1,001,2025-01-14_12h18.21.616,IAT(Formal),2021.2.3,Win32,60.97560976,,,,,,,,,,,,,,,,,,,,,,,,,,,,,,,,,,,,,,,,,,,,,,,,,,,,,我的,i,,,i,1,0.5502,0,56,56,51,1,,
,,,,,,,,,,,,,1,001,2025-01-14_12h18.21.616,IAT(Formal),2021.2.3,Win32,60.97560976,,,,,,,,,,,,,,,,,,,,,,,,,,,,,,,,,,,,,,,,,,,,,,,,,,,,,猖狂,i,,,i,1,0.5292,0,57,57,45,1,,
,,,,,,,,,,,,,1,001,2025-01-14_12h18.21.616,IAT(Formal),2021.2.3,Win32,60.97560976,,,,,,,,,,,,,,,,,,,,,,,,,,,,,,,,,,,,,,,,,,,,,,,,,,,,,诚恳,e,,,e,1,0.4858,0,58,58,29,1,,
,,,,,,,,,,,,,1,001,2025-01-14_12h18.21.616,IAT(Formal),2021.2.3,Win32,60.97560976,,,,,,,,,,,,,,,,,,,,,,,,,,,,,,,,,,,,,,,,,,,,,,,,,,,,,卑鄙,i,,,i,1,0.4839,0,59,59,30,1,,
,,,,,,,,,,,,,1,001,2025-01-14_12h18.21.616,IAT(Formal),2021.2.3,Win32,60.97560976,,,,,,,,,,,,,,,,,,,,,,,,,,,,,,,,,,,,,,,,,,,,,,,,,,,,,俺,i,,,i,1,0.5695,0,60,60,64,1,,
,,,,,,,,,,,,,1,001,2025-01-14_12h18.21.616,IAT(Formal),2021.2.3,Win32,60.97560976,,,,,,,,,,,,,,,,,,,,,,,,,,,,,,,,,,,,,,,,,,,,,,,,,,,,,公正,e,,,e,1,0.5246,0,61,61,23,1,,
,,,,,,,,,,,,,1,001,2025-01-14_12h18.21.616,IAT(Formal),2021.2.3,Win32,60.97560976,,,,,,,,,,,,,,,,,,,,,,,,,,,,,,,,,,,,,,,,,,,,,,,,,,,,,俺,i,,,i,1,0.5048,0,62,62,54,1,,
,,,,,,,,,,,,,1,001,2025-01-14_12h18.21.616,IAT(Formal),2021.2.3,Win32,60.97560976,,,,,,,,,,,,,,,,,,,,,,,,,,,,,,,,,,,,,,,,,,,,,,,,,,,,,无私,e,,,e,1,0.9983,0,63,63,22,1,,
,,,,,,,,,,,,,1,001,2025-01-14_12h18.21.616,IAT(Formal),2021.2.3,Win32,60.97560976,,,,,,,,,,,,,,,,,,,,,,,,,,,,,,,,,,,,,,,,,,,,,,,,,,,,,我的,i,,,i,1,0.5931,0,64,64,1,1,,
,,,,,,,,,,,,,1,001,2025-01-14_12h18.21.616,IAT(Formal),2021.2.3,Win32,60.97560976,,,,,,,,,,,,,,,,,,,,,,,,,,,,,,,,,,,,,,,,,,,,,,,,,,,,,他人,e,,,e,1,0.5458,0,65,65,68,1,,
,,,,,,,,,,,,,1,001,2025-01-14_12h18.21.616,IAT(Formal),2021.2.3,Win32,60.97560976,,,,,,,,,,,,,,,,,,,,,,,,,,,,,,,,,,,,,,,,,,,,,,,,,,,,,自己,i,,,i,1,0.5342,0,66,66,63,1,,
,,,,,,,,,,,,,1,001,2025-01-14_12h18.21.616,IAT(Formal),2021.2.3,Win32,60.97560976,,,,,,,,,,,,,,,,,,,,,,,,,,,,,,,,,,,,,,,,,,,,,,,,,,,,,鲁莽,i,,,i,1,0.546,0,67,67,38,1,,
,,,,,,,,,,,,,1,001,2025-01-14_12h18.21.616,IAT(Formal),2021.2.3,Win32,60.97560976,,,,,,,,,,,,,,,,,,,,,,,,,,,,,,,,,,,,,,,,,,,,,,,,,,,,,他人,e,,,e,1,0.5418,0,68,68,8,1,,
,,,,,,,,,,,,,1,001,2025-01-14_12h18.21.616,IAT(Formal),2021.2.3,Win32,60.97560976,,,,,,,,,,,,,,,,,,,,,,,,,,,,,,,,,,,,,,,,,,,,,,,,,,,,,野蛮,i,,,i,1,0.5464,0,69,69,46,1,,
,,,,,,,,,,,,,1,001,2025-01-14_12h18.21.616,IAT(Formal),2021.2.3,Win32,60.97560976,,,,,,,,,,,,,,,,,,,,,,,,,,,,,,,,,,,,,,,,,,,,,,,,,,,,,我们,i,,,i,1,0.5574,0,70,70,52,1,,
,,,,,,,,,,,,,1,001,2025-01-14_12h18.21.616,IAT(Formal),2021.2.3,Win32,60.97560976,,,,,,,,,,,,,,,,,,,,,,,,,,,,,,,,,,,,,,,,,,,,,,,,,,,,,活泼,e,,,e,1,0.5466,0,71,71,28,1,,
,,,,,,,,,,,,,1,001,2025-01-14_12h18.21.616,IAT(Formal),2021.2.3,Win32,60.97560976,,,,,,,,,,,,,,,,,,,,,,,,,,,,,,,,,,,,,,,,,,,,,,,,,,,,,其他,e,,,i,0,0.8125,0,72,72,59,1,,
,,,,,,,,,,,,,1,001,2025-01-14_12h18.21.616,IAT(Formal),2021.2.3,Win32,60.97560976,,,,,,,,,,,,,,,,,,,,,,,,,,,,,,,,,,,,,,,,,,,,,,,,,,,,,聪明,e,,,e,1,0.5644,0,73,73,12,1,,
,,,,,,,,,,,,,1,001,2025-01-14_12h18.21.616,IAT(Formal),2021.2.3,Win32,60.97560976,,,,,,,,,,,,,,,,,,,,,,,,,,,,,,,,,,,,,,,,,,,,,,,,,,,,,冷静,e,,,e,1,0.8235,0,74,74,26,1,,
,,,,,,,,,,,,,1,001,2025-01-14_12h18.21.616,IAT(Formal),2021.2.3,Win32,60.97560976,,,,,,,,,,,,,,,,,,,,,,,,,,,,,,,,,,,,,,,,,,,,,,,,,,,,,他的,e,,,e,1,0.4317,0,75,75,7,1,,
,,,,,,,,,,,,,1,001,2025-01-14_12h18.21.616,IAT(Formal),2021.2.3,Win32,60.97560976,,,,,,,,,,,,,,,,,,,,,,,,,,,,,,,,,,,,,,,,,,,,,,,,,,,,,自己,i,,,i,1,0.5363,0,76,76,53,1,,
,,,,,,,,,,,,,1,001,2025-01-14_12h18.21.616,IAT(Formal),2021.2.3,Win32,60.97560976,,,,,,,,,,,,,,,,,,,,,,,,,,,,,,,,,,,,,,,,,,,,,,,,,,,,,其他,e,,,e,1,0.5227,0,77,77,9,1,,
,,,,,,,,,,,,,1,001,2025-01-14_12h18.21.616,IAT(Formal),2021.2.3,Win32,60.97560976,,,,,,,,,,,,,,,,,,,,,,,,,,,,,,,,,,,,,,,,,,,,,,,,,,,,,傲慢,i,,,i,1,0.5837,0,78,78,37,1,,
,,,,,,,,,,,,,1,001,2025-01-14_12h18.21.616,IAT(Formal),2021.2.3,Win32,60.97560976,,,,,,,,,,,,,,,,,,,,,,,,,,,,,,,,,,,,,,,,,,,,,,,,,,,,,稳重,e,,,e,1,0.4504,0,79,79,21,1,,
,,,,,,,,,,,,,1,001,2025-01-14_12h18.21.616,IAT(Formal),2021.2.3,Win32,60.97560976,,,,,,,,,,,,,,,,,,,,,,,,,,,,,,,,,,,,,,,,,,,,,,,,,,,,,他,e,,,e,1,0.5223,1,0,80,5,1,,
,,,,,,,,,,,,,1,001,2025-01-14_12h18.21.616,IAT(Formal),2021.2.3,Win32,60.97560976,,,,,,,,,,,,,,,,,,,,,,,,,,,,,,,,,,,,,,,,,,,,,,,,,,,,,消极,i,,,i,1,0.645,1,1,81,35,1,,
,,,,,,,,,,,,,1,001,2025-01-14_12h18.21.616,IAT(Formal),2021.2.3,Win32,60.97560976,,,,,,,,,,,,,,,,,,,,,,,,,,,,,,,,,,,,,,,,,,,,,,,,,,,,,俺,i,,,e,0,0.5405,1,2,82,4,1,,
,,,,,,,,,,,,,1,001,2025-01-14_12h18.21.616,IAT(Formal),2021.2.3,Win32,60.97560976,,,,,,,,,,,,,,,,,,,,,,,,,,,,,,,,,,,,,,,,,,,,,,,,,,,,,轻率,i,,,i,1,0.665,1,3,83,48,1,,
,,,,,,,,,,,,,1,001,2025-01-14_12h18.21.616,IAT(Formal),2021.2.3,Win32,60.97560976,,,,,,,,,,,,,,,,,,,,,,,,,,,,,,,,,,,,,,,,,,,,,,,,,,,,,热情,e,,,e,1,0.5755,1,4,84,27,1,,
,,,,,,,,,,,,,1,001,2025-01-14_12h18.21.616,IAT(Formal),2021.2.3,Win32,60.97560976,,,,,,,,,,,,,,,,,,,,,,,,,,,,,,,,,,,,,,,,,,,,,,,,,,,,,自私,i,,,i,1,0.6104,1,5,85,43,1,,
,,,,,,,,,,,,,1,001,2025-01-14_12h18.21.616,IAT(Formal),2021.2.3,Win32,60.97560976,,,,,,,,,,,,,,,,,,,,,,,,,,,,,,,,,,,,,,,,,,,,,,,,,,,,,他们,e,,,e,1,0.5565,1,6,86,56,1,,
,,,,,,,,,,,,,1,001,2025-01-14_12h18.21.616,IAT(Formal),2021.2.3,Win32,60.97560976,,,,,,,,,,,,,,,,,,,,,,,,,,,,,,,,,,,,,,,,,,,,,,,,,,,,,其他,e,,,e,1,0.774,1,7,87,59,1,,
,,,,,,,,,,,,,1,001,2025-01-14_12h18.21.616,IAT(Formal),2021.2.3,Win32,60.97560976,,,,,,,,,,,,,,,,,,,,,,,,,,,,,,,,,,,,,,,,,,,,,,,,,,,,,其他,e,,,e,1,0.4912,1,8,88,79,1,,
,,,,,,,,,,,,,1,001,2025-01-14_12h18.21.616,IAT(Formal),2021.2.3,Win32,60.97560976,,,,,,,,,,,,,,,,,,,,,,,,,,,,,,,,,,,,,,,,,,,,,,,,,,,,,傲慢,i,,,i,1,0.5763,1,9,89,37,1,,
,,,,,,,,,,,,,1,001,2025-01-14_12h18.21.616,IAT(Formal),2021.2.3,Win32,60.97560976,,,,,,,,,,,,,,,,,,,,,,,,,,,,,,,,,,,,,,,,,,,,,,,,,,,,,我的,i,,,i,1,0.6989,1,10,90,1,1,,
,,,,,,,,,,,,,1,001,2025-01-14_12h18.21.616,IAT(Formal),2021.2.3,Win32,60.97560976,,,,,,,,,,,,,,,,,,,,,,,,,,,,,,,,,,,,,,,,,,,,,,,,,,,,,无私,e,,,e,1,1.0565,1,11,91,22,1,,
,,,,,,,,,,,,,1,001,2025-01-14_12h18.21.616,IAT(Formal),2021.2.3,Win32,60.97560976,,,,,,,,,,,,,,,,,,,,,,,,,,,,,,,,,,,,,,,,,,,,,,,,,,,,,我,i,,,i,1,0.798,1,12,92,0,1,,
,,,,,,,,,,,,,1,001,2025-01-14_12h18.21.616,IAT(Formal),2021.2.3,Win32,60.97560976,,,,,,,,,,,,,,,,,,,,,,,,,,,,,,,,,,,,,,,,,,,,,,,,,,,,,自己,i,,,i,1,0.7422,1,13,93,73,1,,
,,,,,,,,,,,,,1,001,2025-01-14_12h18.21.616,IAT(Formal),2021.2.3,Win32,60.97560976,,,,,,,,,,,,,,,,,,,,,,,,,,,,,,,,,,,,,,,,,,,,,,,,,,,,,猖狂,i,,,i,1,1.1455,1,14,94,45,1,,
,,,,,,,,,,,,,1,001,2025-01-14_12h18.21.616,IAT(Formal),2021.2.3,Win32,60.97560976,,,,,,,,,,,,,,,,,,,,,,,,,,,,,,,,,,,,,,,,,,,,,,,,,,,,,冷静,e,,,e,1,0.5828,1,15,95,26,1,,
,,,,,,,,,,,,,1,001,2025-01-14_12h18.21.616,IAT(Formal),2021.2.3,Win32,60.97560976,,,,,,,,,,,,,,,,,,,,,,,,,,,,,,,,,,,,,,,,,,,,,,,,,,,,,乐观,e,,,e,1,0.5767,1,16,96,14,1,,
,,,,,,,,,,,,,1,001,2025-01-14_12h18.21.616,IAT(Formal),2021.2.3,Win32,60.97560976,,,,,,,,,,,,,,,,,,,,,,,,,,,,,,,,,,,,,,,,,,,,,,,,,,,,,聪明,e,,,e,1,0.8507,1,17,97,12,1,,
,,,,,,,,,,,,,1,001,2025-01-14_12h18.21.616,IAT(Formal),2021.2.3,Win32,60.97560976,,,,,,,,,,,,,,,,,,,,,,,,,,,,,,,,,,,,,,,,,,,,,,,,,,,,,我们,i,,,i,1,0.6077,1,18,98,62,1,,
,,,,,,,,,,,,,1,001,2025-01-14_12h18.21.616,IAT(Formal),2021.2.3,Win32,60.97560976,,,,,,,,,,,,,,,,,,,,,,,,,,,,,,,,,,,,,,,,,,,,,,,,,,,,,暴躁,i,,,i,1,0.5694,1,19,99,44,1,,
,,,,,,,,,,,,,1,001,2025-01-14_12h18.21.616,IAT(Formal),2021.2.3,Win32,60.97560976,,,,,,,,,,,,,,,,,,,,,,,,,,,,,,,,,,,,,,,,,,,,,,,,,,,,,愚蠢,i,,,i,1,0.5166,1,20,100,32,1,,
,,,,,,,,,,,,,1,001,2025-01-14_12h18.21.616,IAT(Formal),2021.2.3,Win32,60.97560976,,,,,,,,,,,,,,,,,,,,,,,,,,,,,,,,,,,,,,,,,,,,,,,,,,,,,诚恳,e,,,e,1,0.5534,1,21,101,29,1,,
,,,,,,,,,,,,,1,001,2025-01-14_12h18.21.616,IAT(Formal),2021.2.3,Win32,60.97560976,,,,,,,,,,,,,,,,,,,,,,,,,,,,,,,,,,,,,,,,,,,,,,,,,,,,,固执,i,,,i,1,0.6048,1,22,102,47,1,,
,,,,,,,,,,,,,1,001,2025-01-14_12h18.21.616,IAT(Formal),2021.2.3,Win32,60.97560976,,,,,,,,,,,,,,,,,,,,,,,,,,,,,,,,,,,,,,,,,,,,,,,,,,,,,他的,e,,,e,1,0.6049,1,23,103,57,1,,
,,,,,,,,,,,,,1,001,2025-01-14_12h18.21.616,IAT(Formal),2021.2.3,Win32,60.97560976,,,,,,,,,,,,,,,,,,,,,,,,,,,,,,,,,,,,,,,,,,,,,,,,,,,,,其他,e,,,e,1,0.7105,1,24,104,9,1,,
,,,,,,,,,,,,,1,001,2025-01-14_12h18.21.616,IAT(Formal),2021.2.3,Win32,60.97560976,,,,,,,,,,,,,,,,,,,,,,,,,,,,,,,,,,,,,,,,,,,,,,,,,,,,,虚伪,i,,,i,1,0.451,1,25,105,31,1,,
,,,,,,,,,,,,,1,001,2025-01-14_12h18.21.616,IAT(Formal),2021.2.3,Win32,60.97560976,,,,,,,,,,,,,,,,,,,,,,,,,,,,,,,,,,,,,,,,,,,,,,,,,,,,,他人,e,,,e,1,0.6446,1,26,106,8,1,,
,,,,,,,,,,,,,1,001,2025-01-14_12h18.21.616,IAT(Formal),2021.2.3,Win32,60.97560976,,,,,,,,,,,,,,,,,,,,,,,,,,,,,,,,,,,,,,,,,,,,,,,,,,,,,崇高,e,,,e,1,0.5955,1,27,107,11,1,,
,,,,,,,,,,,,,1,001,2025-01-14_12h18.21.616,IAT(Formal),2021.2.3,Win32,60.97560976,,,,,,,,,,,,,,,,,,,,,,,,,,,,,,,,,,,,,,,,,,,,,,,,,,,,,勤奋,e,,,e,1,0.4359,1,28,108,18,1,,
,,,,,,,,,,,,,1,001,2025-01-14_12h18.21.616,IAT(Formal),2021.2.3,Win32,60.97560976,,,,,,,,,,,,,,,,,,,,,,,,,,,,,,,,,,,,,,,,,,,,,,,,,,,,,野蛮,i,,,i,1,0.4942,1,29,109,46,1,,
,,,,,,,,,,,,,1,001,2025-01-14_12h18.21.616,IAT(Formal),2021.2.3,Win32,60.97560976,,,,,,,,,,,,,,,,,,,,,,,,,,,,,,,,,,,,,,,,,,,,,,,,,,,,,执拗,i,,,i,1,0.6357,1,30,110,40,1,,
,,,,,,,,,,,,,1,001,2025-01-14_12h18.21.616,IAT(Formal),2021.2.3,Win32,60.97560976,,,,,,,,,,,,,,,,,,,,,,,,,,,,,,,,,,,,,,,,,,,,,,,,,,,,,我们,i,,,i,1,0.7226,1,31,111,52,1,,
,,,,,,,,,,,,,1,001,2025-01-14_12h18.21.616,IAT(Formal),2021.2.3,Win32,60.97560976,,,,,,,,,,,,,,,,,,,,,,,,,,,,,,,,,,,,,,,,,,,,,,,,,,,,,其他,e,,,e,1,0.528,1,32,112,69,1,,
,,,,,,,,,,,,,1,001,2025-01-14_12h18.21.616,IAT(Formal),2021.2.3,Win32,60.97560976,,,,,,,,,,,,,,,,,,,,,,,,,,,,,,,,,,,,,,,,,,,,,,,,,,,,,俺,i,,,i,1,0.5393,1,33,113,64,1,,
,,,,,,,,,,,,,1,001,2025-01-14_12h18.21.616,IAT(Formal),2021.2.3,Win32,60.97560976,,,,,,,,,,,,,,,,,,,,,,,,,,,,,,,,,,,,,,,,,,,,,,,,,,,,,我,i,,,i,1,0.623,1,34,114,50,1,,
,,,,,,,,,,,,,1,001,2025-01-14_12h18.21.616,IAT(Formal),2021.2.3,Win32,60.97560976,,,,,,,,,,,,,,,,,,,,,,,,,,,,,,,,,,,,,,,,,,,,,,,,,,,,,凶狠,i,,,i,1,0.4718,1,35,115,42,1,,
,,,,,,,,,,,,,1,001,2025-01-14_12h18.21.616,IAT(Formal),2021.2.3,Win32,60.97560976,,,,,,,,,,,,,,,,,,,,,,,,,,,,,,,,,,,,,,,,,,,,,,,,,,,,,他人,e,,,e,1,0.5919,1,36,116,78,1,,
,,,,,,,,,,,,,1,001,2025-01-14_12h18.21.616,IAT(Formal),2021.2.3,Win32,60.97560976,,,,,,,,,,,,,,,,,,,,,,,,,,,,,,,,,,,,,,,,,,,,,,,,,,,,,我们,i,,,i,1,0.4812,1,37,117,2,1,,
,,,,,,,,,,,,,1,001,2025-01-14_12h18.21.616,IAT(Formal),2021.2.3,Win32,60.97560976,,,,,,,,,,,,,,,,,,,,,,,,,,,,,,,,,,,,,,,,,,,,,,,,,,,,,细腻,e,,,e,1,0.9812,1,38,118,25,1,,
,,,,,,,,,,,,,1,001,2025-01-14_12h18.21.616,IAT(Formal),2021.2.3,Win32,60.97560976,,,,,,,,,,,,,,,,,,,,,,,,,,,,,,,,,,,,,,,,,,,,,,,,,,,,,俺,i,,,i,1,0.5919,1,39,119,54,1,,
,,,,,,,,,,,,,1,001,2025-01-14_12h18.21.616,IAT(Formal),2021.2.3,Win32,60.97560976,,,,,,,,,,,,,,,,,,,,,,,,,,,,,,,,,,,,,,,,,,,,,,,,,,,,,他们,e,,,e,1,0.6983,1,40,120,76,1,,
,,,,,,,,,,,,,1,001,2025-01-14_12h18.21.616,IAT(Formal),2021.2.3,Win32,60.97560976,,,,,,,,,,,,,,,,,,,,,,,,,,,,,,,,,,,,,,,,,,,,,,,,,,,,,散漫,i,,,i,1,0.6644,1,41,121,41,1,,
,,,,,,,,,,,,,1,001,2025-01-14_12h18.21.616,IAT(Formal),2021.2.3,Win32,60.97560976,,,,,,,,,,,,,,,,,,,,,,,,,,,,,,,,,,,,,,,,,,,,,,,,,,,,,他,e,,,,0,,1,42,122,75,1,,
,,,,,,,,,,,,,1,001,2025-01-14_12h18.21.616,IAT(Formal),2021.2.3,Win32,60.97560976,,,,,,,,,,,,,,,,,,,,,,,,,,,,,,,,,,,,,,,,,,,,,,,,,,,,,他人,e,,,e,1,0.5319,1,43,123,68,1,,
,,,,,,,,,,,,,1,001,2025-01-14_12h18.21.616,IAT(Formal),2021.2.3,Win32,60.97560976,,,,,,,,,,,,,,,,,,,,,,,,,,,,,,,,,,,,,,,,,,,,,,,,,,,,,自己,i,,,i,1,0.67,1,44,124,53,1,,
,,,,,,,,,,,,,1,001,2025-01-14_12h18.21.616,IAT(Formal),2021.2.3,Win32,60.97560976,,,,,,,,,,,,,,,,,,,,,,,,,,,,,,,,,,,,,,,,,,,,,,,,,,,,,他,e,,,e,1,0.5482,1,45,125,65,1,,
,,,,,,,,,,,,,1,001,2025-01-14_12h18.21.616,IAT(Formal),2021.2.3,Win32,60.97560976,,,,,,,,,,,,,,,,,,,,,,,,,,,,,,,,,,,,,,,,,,,,,,,,,,,,,活泼,e,,,e,1,0.56,1,46,126,28,1,,
,,,,,,,,,,,,,1,001,2025-01-14_12h18.21.616,IAT(Formal),2021.2.3,Win32,60.97560976,,,,,,,,,,,,,,,,,,,,,,,,,,,,,,,,,,,,,,,,,,,,,,,,,,,,,他人,e,,,e,1,0.5488,1,47,127,58,1,,
,,,,,,,,,,,,,1,001,2025-01-14_12h18.21.616,IAT(Formal),2021.2.3,Win32,60.97560976,,,,,,,,,,,,,,,,,,,,,,,,,,,,,,,,,,,,,,,,,,,,,,,,,,,,,他的,e,,,e,1,0.4214,1,48,128,67,1,,
,,,,,,,,,,,,,1,001,2025-01-14_12h18.21.616,IAT(Formal),2021.2.3,Win32,60.97560976,,,,,,,,,,,,,,,,,,,,,,,,,,,,,,,,,,,,,,,,,,,,,,,,,,,,,我们,i,,,i,1,0.624,1,49,129,72,1,,
,,,,,,,,,,,,,1,001,2025-01-14_12h18.21.616,IAT(Formal),2021.2.3,Win32,60.97560976,,,,,,,,,,,,,,,,,,,,,,,,,,,,,,,,,,,,,,,,,,,,,,,,,,,,,优秀,e,,,e,1,0.6065,1,50,130,10,1,,
,,,,,,,,,,,,,1,001,2025-01-14_12h18.21.616,IAT(Formal),2021.2.3,Win32,60.97560976,,,,,,,,,,,,,,,,,,,,,,,,,,,,,,,,,,,,,,,,,,,,,,,,,,,,,他的,e,,,e,1,0.4895,1,51,131,77,1,,
,,,,,,,,,,,,,1,001,2025-01-14_12h18.21.616,IAT(Formal),2021.2.3,Win32,60.97560976,,,,,,,,,,,,,,,,,,,,,,,,,,,,,,,,,,,,,,,,,,,,,,,,,,,,,鲁莽,i,,,i,1,0.5101,1,52,132,38,1,,
,,,,,,,,,,,,,1,001,2025-01-14_12h18.21.616,IAT(Formal),2021.2.3,Win32,60.97560976,,,,,,,,,,,,,,,,,,,,,,,,,,,,,,,,,,,,,,,,,,,,,,,,,,,,,我,i,,,i,1,0.6994,1,53,133,70,1,,
,,,,,,,,,,,,,1,001,2025-01-14_12h18.21.616,IAT(Formal),2021.2.3,Win32,60.97560976,,,,,,,,,,,,,,,,,,,,,,,,,,,,,,,,,,,,,,,,,,,,,,,,,,,,,我的,i,,,i,1,0.6563,1,54,134,71,1,,
,,,,,,,,,,,,,1,001,2025-01-14_12h18.21.616,IAT(Formal),2021.2.3,Win32,60.97560976,,,,,,,,,,,,,,,,,,,,,,,,,,,,,,,,,,,,,,,,,,,,,,,,,,,,,我的,i,,,i,1,0.4903,1,55,135,51,1,,
,,,,,,,,,,,,,1,001,2025-01-14_12h18.21.616,IAT(Formal),2021.2.3,Win32,60.97560976,,,,,,,,,,,,,,,,,,,,,,,,,,,,,,,,,,,,,,,,,,,,,,,,,,,,,勇敢,e,,,e,1,0.4491,1,56,136,17,1,,
,,,,,,,,,,,,,1,001,2025-01-14_12h18.21.616,IAT(Formal),2021.2.3,Win32,60.97560976,,,,,,,,,,,,,,,,,,,,,,,,,,,,,,,,,,,,,,,,,,,,,,,,,,,,,朴实,e,,,e,1,0.4689,1,57,137,24,1,,
,,,,,,,,,,,,,1,001,2025-01-14_12h18.21.616,IAT(Formal),2021.2.3,Win32,60.97560976,,,,,,,,,,,,,,,,,,,,,,,,,,,,,,,,,,,,,,,,,,,,,,,,,,,,,认真,e,,,e,1,0.4931,1,58,138,20,1,,
,,,,,,,,,,,,,1,001,2025-01-14_12h18.21.616,IAT(Formal),2021.2.3,Win32,60.97560976,,,,,,,,,,,,,,,,,,,,,,,,,,,,,,,,,,,,,,,,,,,,,,,,,,,,,杰出,e,,,e,1,0.4109,1,59,139,13,1,,
,,,,,,,,,,,,,1,001,2025-01-14_12h18.21.616,IAT(Formal),2021.2.3,Win32,60.97560976,,,,,,,,,,,,,,,,,,,,,,,,,,,,,,,,,,,,,,,,,,,,,,,,,,,,,公正,e,,,e,1,0.4283,1,60,140,23,1,,
,,,,,,,,,,,,,1,001,2025-01-14_12h18.21.616,IAT(Formal),2021.2.3,Win32,60.97560976,,,,,,,,,,,,,,,,,,,,,,,,,,,,,,,,,,,,,,,,,,,,,,,,,,,,,正直,e,,,e,1,0.3736,1,61,141,16,1,,
,,,,,,,,,,,,,1,001,2025-01-14_12h18.21.616,IAT(Formal),2021.2.3,Win32,60.97560976,,,,,,,,,,,,,,,,,,,,,,,,,,,,,,,,,,,,,,,,,,,,,,,,,,,,,他们,e,,,e,1,0.5681,1,62,142,6,1,,
,,,,,,,,,,,,,1,001,2025-01-14_12h18.21.616,IAT(Formal),2021.2.3,Win32,60.97560976,,,,,,,,,,,,,,,,,,,,,,,,,,,,,,,,,,,,,,,,,,,,,,,,,,,,,稳重,e,,,e,1,0.4576,1,63,143,21,1,,
,,,,,,,,,,,,,1,001,2025-01-14_12h18.21.616,IAT(Formal),2021.2.3,Win32,60.97560976,,,,,,,,,,,,,,,,,,,,,,,,,,,,,,,,,,,,,,,,,,,,,,,,,,,,,我的,i,,,i,1,0.4412,1,64,144,61,1,,
,,,,,,,,,,,,,1,001,2025-01-14_12h18.21.616,IAT(Formal),2021.2.3,Win32,60.97560976,,,,,,,,,,,,,,,,,,,,,,,,,,,,,,,,,,,,,,,,,,,,,,,,,,,,,自卑,i,,,i,1,0.4419,1,65,145,36,1,,
,,,,,,,,,,,,,1,001,2025-01-14_12h18.21.616,IAT(Formal),2021.2.3,Win32,60.97560976,,,,,,,,,,,,,,,,,,,,,,,,,,,,,,,,,,,,,,,,,,,,,,,,,,,,,我,i,,,i,1,0.5466,1,66,146,60,1,,
,,,,,,,,,,,,,1,001,2025-01-14_12h18.21.616,IAT(Formal),2021.2.3,Win32,60.97560976,,,,,,,,,,,,,,,,,,,,,,,,,,,,,,,,,,,,,,,,,,,,,,,,,,,,,下贱,i,,,i,1,0.4611,1,67,147,49,1,,
,,,,,,,,,,,,,1,001,2025-01-14_12h18.21.616,IAT(Formal),2021.2.3,Win32,60.97560976,,,,,,,,,,,,,,,,,,,,,,,,,,,,,,,,,,,,,,,,,,,,,,,,,,,,,他们,e,,,e,1,0.5254,1,68,148,66,1,,
,,,,,,,,,,,,,1,001,2025-01-14_12h18.21.616,IAT(Formal),2021.2.3,Win32,60.97560976,,,,,,,,,,,,,,,,,,,,,,,,,,,,,,,,,,,,,,,,,,,,,,,,,,,,,俺,i,,,i,1,0.4828,1,69,149,74,1,,
,,,,,,,,,,,,,1,001,2025-01-14_12h18.21.616,IAT(Formal),2021.2.3,Win32,60.97560976,,,,,,,,,,,,,,,,,,,,,,,,,,,,,,,,,,,,,,,,,,,,,,,,,,,,,悲观,i,,,i,1,0.5188,1,70,150,34,1,,
,,,,,,,,,,,,,1,001,2025-01-14_12h18.21.616,IAT(Formal),2021.2.3,Win32,60.97560976,,,,,,,,,,,,,,,,,,,,,,,,,,,,,,,,,,,,,,,,,,,,,,,,,,,,,诚实,e,,,e,1,0.5084,1,71,151,15,1,,
,,,,,,,,,,,,,1,001,2025-01-14_12h18.21.616,IAT(Formal),2021.2.3,Win32,60.97560976,,,,,,,,,,,,,,,,,,,,,,,,,,,,,,,,,,,,,,,,,,,,,,,,,,,,,自己,i,,,i,1,0.5532,1,72,152,3,1,,
,,,,,,,,,,,,,1,001,2025-01-14_12h18.21.616,IAT(Formal),2021.2.3,Win32,60.97560976,,,,,,,,,,,,,,,,,,,,,,,,,,,,,,,,,,,,,,,,,,,,,,,,,,,,,刻薄,i,,,i,1,0.5497,1,73,153,33,1,,
,,,,,,,,,,,,,1,001,2025-01-14_12h18.21.616,IAT(Formal),2021.2.3,Win32,60.97560976,,,,,,,,,,,,,,,,,,,,,,,,,,,,,,,,,,,,,,,,,,,,,,,,,,,,,冒失,i,,,i,1,0.479,1,74,154,39,1,,
,,,,,,,,,,,,,1,001,2025-01-14_12h18.21.616,IAT(Formal),2021.2.3,Win32,60.97560976,,,,,,,,,,,,,,,,,,,,,,,,,,,,,,,,,,,,,,,,,,,,,,,,,,,,,他的,e,,,e,1,0.6159,1,75,155,7,1,,
,,,,,,,,,,,,,1,001,2025-01-14_12h18.21.616,IAT(Formal),2021.2.3,Win32,60.97560976,,,,,,,,,,,,,,,,,,,,,,,,,,,,,,,,,,,,,,,,,,,,,,,,,,,,,自己,i,,,i,1,0.4865,1,76,156,63,1,,
,,,,,,,,,,,,,1,001,2025-01-14_12h18.21.616,IAT(Formal),2021.2.3,Win32,60.97560976,,,,,,,,,,,,,,,,,,,,,,,,,,,,,,,,,,,,,,,,,,,,,,,,,,,,,他,e,,,e,1,0.4594,1,77,157,55,1,,
,,,,,,,,,,,,,1,001,2025-01-14_12h18.21.616,IAT(Formal),2021.2.3,Win32,60.97560976,,,,,,,,,,,,,,,,,,,,,,,,,,,,,,,,,,,,,,,,,,,,,,,,,,,,,机智,e,,,e,1,0.4439,1,78,158,19,1,,
,,,,,,,,,,,,,1,001,2025-01-14_12h18.21.616,IAT(Formal),2021.2.3,Win32,60.97560976,,,,,,,,,,,,,,,,,,,,,,,,,,,,,,,,,,,,,,,,,,,,,,,,,,,,,卑鄙,i,,,i,1,0.4601,1,79,159,30,1,,
,,,,,,,,,,,,,1,001,2025-01-14_12h18.21.616,IAT(Formal),2021.2.3,Win32,60.97560976,,,,,,,,,,,,,,,,,,,,,,,,,,,,,,,,,,,,,,,,,,,,,,,,,,,,,,,,,,,,,,,,,space,0.9828