﻿Instruction1.keys,Instruction1.rt,Instruction2.keys,Instruction2.rt,key_resp_iso.keys,key_resp_iso.corr,Practice_01.thisRepN,Practice_01.thisTrialN,Practice_01.thisN,Practice_01.thisIndex,Practice_01.ran,Words,ans,participant,session,date,expName,psychopyVersion,OS,frameRate,key_resp_iso.rt,key_resp_3.keys,key_resp_3.rt,key_resp_ipn.keys,key_resp_ipn.corr,key_resp_ipn.rt,Practice_02.thisRepN,Practice_02.thisTrialN,Practice_02.thisN,Practice_02.thisIndex,Practice_02.ran,Words_ipn,ans_ipn,key_resp_4.keys,key_resp_4.rt,key_resp_t1.keys,key_resp_t1.corr,key_resp_t1.rt,Practice_T1.thisRepN,Practice_T1.thisTrialN,Practice_T1.thisN,Practice_T1.thisIndex,Practice_T1.ran,Words_t1,ans_t1,key_resp_5.keys,key_resp_5.rt,Formal_T1.thisRepN,Formal_T1.thisTrialN,Formal_T1.thisN,Formal_T1.thisIndex,Formal_T1.ran,key_resp_6.keys,key_resp_6.rt,key_resp_iso_reverse.keys,key_resp_iso_reverse.corr,key_resp_iso_reverse.rt,Practice_iso_Reverse.thisRepN,Practice_iso_Reverse.thisTrialN,Practice_iso_Reverse.thisN,Practice_iso_Reverse.thisIndex,Practice_iso_Reverse.ran,key_resp_7.keys,key_resp_7.rt,key_resp_t2_Practice.keys,key_resp_t2_Practice.corr,key_resp_t2_Practice.rt,Practice_t2_Reverse.thisRepN,Practice_t2_Reverse.thisTrialN,Practice_t2_Reverse.thisN,Practice_t2_Reverse.thisIndex,Practice_t2_Reverse.ran,Words_t2,ans_t2,key_resp_8.keys,key_resp_8.rt,key_resp_t2.keys,key_resp_t2.corr,key_resp_t2.rt,Formal_t2_reverse.thisRepN,Formal_t2_reverse.thisTrialN,Formal_t2_reverse.thisN,Formal_t2_reverse.thisIndex,Formal_t2_reverse.ran,key_instruct.keys,key_instruct.rt
space,5.5878,space,2.5777,,0,0,0,0,6,1,他们,i,1,001,2025-01-14_13h13.12.079,IAT(Formal),2021.2.3,Win32,60.60606061,,,,,,,,,,,,,,,,,,,,,,,,,,,,,,,,,,,,,,,,,,,,,,,,,,,,,,,,,,,,,,,,,,
,,,,e,1,0,1,1,1,1,我的,e,1,001,2025-01-14_13h13.12.079,IAT(Formal),2021.2.3,Win32,60.60606061,0.8906,,,,,,,,,,,,,,,,,,,,,,,,,,,,,,,,,,,,,,,,,,,,,,,,,,,,,,,,,,,,,,,,,
,,,,i,1,0,2,2,7,1,他的,i,1,001,2025-01-14_13h13.12.079,IAT(Formal),2021.2.3,Win32,60.60606061,0.4864,,,,,,,,,,,,,,,,,,,,,,,,,,,,,,,,,,,,,,,,,,,,,,,,,,,,,,,,,,,,,,,,,
,,,,e,1,0,3,3,0,1,我,e,1,001,2025-01-14_13h13.12.079,IAT(Formal),2021.2.3,Win32,60.60606061,0.4557,,,,,,,,,,,,,,,,,,,,,,,,,,,,,,,,,,,,,,,,,,,,,,,,,,,,,,,,,,,,,,,,,
,,,,i,1,0,4,4,9,1,其他,i,1,001,2025-01-14_13h13.12.079,IAT(Formal),2021.2.3,Win32,60.60606061,0.5984,,,,,,,,,,,,,,,,,,,,,,,,,,,,,,,,,,,,,,,,,,,,,,,,,,,,,,,,,,,,,,,,,
,,,,e,1,0,5,5,2,1,我们,e,1,001,2025-01-14_13h13.12.079,IAT(Formal),2021.2.3,Win32,60.60606061,0.4072,,,,,,,,,,,,,,,,,,,,,,,,,,,,,,,,,,,,,,,,,,,,,,,,,,,,,,,,,,,,,,,,,
,,,,,0,0,6,6,3,1,自己,e,1,001,2025-01-14_13h13.12.079,IAT(Formal),2021.2.3,Win32,60.60606061,,,,,,,,,,,,,,,,,,,,,,,,,,,,,,,,,,,,,,,,,,,,,,,,,,,,,,,,,,,,,,,,,,
,,,,i,1,0,7,7,5,1,他,i,1,001,2025-01-14_13h13.12.079,IAT(Formal),2021.2.3,Win32,60.60606061,0.915,,,,,,,,,,,,,,,,,,,,,,,,,,,,,,,,,,,,,,,,,,,,,,,,,,,,,,,,,,,,,,,,,
,,,,e,1,0,8,8,4,1,俺,e,1,001,2025-01-14_13h13.12.079,IAT(Formal),2021.2.3,Win32,60.60606061,0.6168,,,,,,,,,,,,,,,,,,,,,,,,,,,,,,,,,,,,,,,,,,,,,,,,,,,,,,,,,,,,,,,,,
,,,,i,1,0,9,9,8,1,他人,i,1,001,2025-01-14_13h13.12.079,IAT(Formal),2021.2.3,Win32,60.60606061,0.6447,,,,,,,,,,,,,,,,,,,,,,,,,,,,,,,,,,,,,,,,,,,,,,,,,,,,,,,,,,,,,,,,,
,,,,,,,,,,,,,1,001,2025-01-14_13h13.12.079,IAT(Formal),2021.2.3,Win32,60.60606061,,space,5.4994,i,1,1.3796,0,0,0,29,1,冒失,i,,,,,,,,,,,,,,,,,,,,,,,,,,,,,,,,,,,,,,,,,,,,,,,,,,,,,
,,,,,,,,,,,,,1,001,2025-01-14_13h13.12.079,IAT(Formal),2021.2.3,Win32,60.60606061,,,,e,1,0.4935,0,1,1,9,1,机智,e,,,,,,,,,,,,,,,,,,,,,,,,,,,,,,,,,,,,,,,,,,,,,,,,,,,,,
,,,,,,,,,,,,,1,001,2025-01-14_13h13.12.079,IAT(Formal),2021.2.3,Win32,60.60606061,,,,e,1,0.7787,0,2,2,6,1,正直,e,,,,,,,,,,,,,,,,,,,,,,,,,,,,,,,,,,,,,,,,,,,,,,,,,,,,,
,,,,,,,,,,,,,1,001,2025-01-14_13h13.12.079,IAT(Formal),2021.2.3,Win32,60.60606061,,,,i,1,0.5597,0,3,3,32,1,凶狠,i,,,,,,,,,,,,,,,,,,,,,,,,,,,,,,,,,,,,,,,,,,,,,,,,,,,,,
,,,,,,,,,,,,,1,001,2025-01-14_13h13.12.079,IAT(Formal),2021.2.3,Win32,60.60606061,,,,e,1,0.7614,0,4,4,18,1,活泼,e,,,,,,,,,,,,,,,,,,,,,,,,,,,,,,,,,,,,,,,,,,,,,,,,,,,,,
,,,,,,,,,,,,,1,001,2025-01-14_13h13.12.079,IAT(Formal),2021.2.3,Win32,60.60606061,,,,e,1,0.6555,0,5,5,16,1,冷静,e,,,,,,,,,,,,,,,,,,,,,,,,,,,,,,,,,,,,,,,,,,,,,,,,,,,,,
,,,,,,,,,,,,,1,001,2025-01-14_13h13.12.079,IAT(Formal),2021.2.3,Win32,60.60606061,,,,e,1,0.5205,0,6,6,19,1,诚恳,e,,,,,,,,,,,,,,,,,,,,,,,,,,,,,,,,,,,,,,,,,,,,,,,,,,,,,
,,,,,,,,,,,,,1,001,2025-01-14_13h13.12.079,IAT(Formal),2021.2.3,Win32,60.60606061,,,,e,1,0.5789,0,7,7,8,1,勤奋,e,,,,,,,,,,,,,,,,,,,,,,,,,,,,,,,,,,,,,,,,,,,,,,,,,,,,,
,,,,,,,,,,,,,1,001,2025-01-14_13h13.12.079,IAT(Formal),2021.2.3,Win32,60.60606061,,,,e,1,0.3787,0,8,8,0,1,优秀,e,,,,,,,,,,,,,,,,,,,,,,,,,,,,,,,,,,,,,,,,,,,,,,,,,,,,,
,,,,,,,,,,,,,1,001,2025-01-14_13h13.12.079,IAT(Formal),2021.2.3,Win32,60.60606061,,,,i,1,0.7535,0,9,9,33,1,自私,i,,,,,,,,,,,,,,,,,,,,,,,,,,,,,,,,,,,,,,,,,,,,,,,,,,,,,
,,,,,,,,,,,,,1,001,2025-01-14_13h13.12.079,IAT(Formal),2021.2.3,Win32,60.60606061,,,,e,1,0.7772,0,10,10,13,1,公正,e,,,,,,,,,,,,,,,,,,,,,,,,,,,,,,,,,,,,,,,,,,,,,,,,,,,,,
,,,,,,,,,,,,,1,001,2025-01-14_13h13.12.079,IAT(Formal),2021.2.3,Win32,60.60606061,,,,i,1,0.5995,0,11,11,22,1,愚蠢,i,,,,,,,,,,,,,,,,,,,,,,,,,,,,,,,,,,,,,,,,,,,,,,,,,,,,,
,,,,,,,,,,,,,1,001,2025-01-14_13h13.12.079,IAT(Formal),2021.2.3,Win32,60.60606061,,,,e,1,0.528,0,12,12,15,1,细腻,e,,,,,,,,,,,,,,,,,,,,,,,,,,,,,,,,,,,,,,,,,,,,,,,,,,,,,
,,,,,,,,,,,,,1,001,2025-01-14_13h13.12.079,IAT(Formal),2021.2.3,Win32,60.60606061,,,,e,0,0.5315,0,13,13,31,1,散漫,i,,,,,,,,,,,,,,,,,,,,,,,,,,,,,,,,,,,,,,,,,,,,,,,,,,,,,
,,,,,,,,,,,,,1,001,2025-01-14_13h13.12.079,IAT(Formal),2021.2.3,Win32,60.60606061,,,,e,1,0.5745,0,14,14,3,1,杰出,e,,,,,,,,,,,,,,,,,,,,,,,,,,,,,,,,,,,,,,,,,,,,,,,,,,,,,
,,,,,,,,,,,,,1,001,2025-01-14_13h13.12.079,IAT(Formal),2021.2.3,Win32,60.60606061,,,,i,1,0.4988,0,15,15,27,1,傲慢,i,,,,,,,,,,,,,,,,,,,,,,,,,,,,,,,,,,,,,,,,,,,,,,,,,,,,,
,,,,,,,,,,,,,1,001,2025-01-14_13h13.12.079,IAT(Formal),2021.2.3,Win32,60.60606061,,,,i,1,0.4809,0,16,16,35,1,猖狂,i,,,,,,,,,,,,,,,,,,,,,,,,,,,,,,,,,,,,,,,,,,,,,,,,,,,,,
,,,,,,,,,,,,,1,001,2025-01-14_13h13.12.079,IAT(Formal),2021.2.3,Win32,60.60606061,,,,e,1,0.4988,0,17,17,2,1,聪明,e,,,,,,,,,,,,,,,,,,,,,,,,,,,,,,,,,,,,,,,,,,,,,,,,,,,,,
,,,,,,,,,,,,,1,001,2025-01-14_13h13.12.079,IAT(Formal),2021.2.3,Win32,60.60606061,,,,i,1,0.6318,0,18,18,20,1,卑鄙,i,,,,,,,,,,,,,,,,,,,,,,,,,,,,,,,,,,,,,,,,,,,,,,,,,,,,,
,,,,,,,,,,,,,1,001,2025-01-14_13h13.12.079,IAT(Formal),2021.2.3,Win32,60.60606061,,,,i,1,0.6004,0,19,19,28,1,鲁莽,i,,,,,,,,,,,,,,,,,,,,,,,,,,,,,,,,,,,,,,,,,,,,,,,,,,,,,
,,,,,,,,,,,,,1,001,2025-01-14_13h13.12.079,IAT(Formal),2021.2.3,Win32,60.60606061,,,,e,1,0.546,0,20,20,17,1,热情,e,,,,,,,,,,,,,,,,,,,,,,,,,,,,,,,,,,,,,,,,,,,,,,,,,,,,,
,,,,,,,,,,,,,1,001,2025-01-14_13h13.12.079,IAT(Formal),2021.2.3,Win32,60.60606061,,,,e,1,0.6912,0,21,21,10,1,认真,e,,,,,,,,,,,,,,,,,,,,,,,,,,,,,,,,,,,,,,,,,,,,,,,,,,,,,
,,,,,,,,,,,,,1,001,2025-01-14_13h13.12.079,IAT(Formal),2021.2.3,Win32,60.60606061,,,,e,1,0.5326,0,22,22,14,1,朴实,e,,,,,,,,,,,,,,,,,,,,,,,,,,,,,,,,,,,,,,,,,,,,,,,,,,,,,
,,,,,,,,,,,,,1,001,2025-01-14_13h13.12.079,IAT(Formal),2021.2.3,Win32,60.60606061,,,,e,0,0.4997,0,23,23,38,1,轻率,i,,,,,,,,,,,,,,,,,,,,,,,,,,,,,,,,,,,,,,,,,,,,,,,,,,,,,
,,,,,,,,,,,,,1,001,2025-01-14_13h13.12.079,IAT(Formal),2021.2.3,Win32,60.60606061,,,,i,1,0.6667,0,24,24,36,1,野蛮,i,,,,,,,,,,,,,,,,,,,,,,,,,,,,,,,,,,,,,,,,,,,,,,,,,,,,,
,,,,,,,,,,,,,1,001,2025-01-14_13h13.12.079,IAT(Formal),2021.2.3,Win32,60.60606061,,,,i,1,1.1007,0,25,25,26,1,自卑,i,,,,,,,,,,,,,,,,,,,,,,,,,,,,,,,,,,,,,,,,,,,,,,,,,,,,,
,,,,,,,,,,,,,1,001,2025-01-14_13h13.12.079,IAT(Formal),2021.2.3,Win32,60.60606061,,,,i,1,0.5154,0,26,26,21,1,虚伪,i,,,,,,,,,,,,,,,,,,,,,,,,,,,,,,,,,,,,,,,,,,,,,,,,,,,,,
,,,,,,,,,,,,,1,001,2025-01-14_13h13.12.079,IAT(Formal),2021.2.3,Win32,60.60606061,,,,i,1,0.6451,0,27,27,39,1,下贱,i,,,,,,,,,,,,,,,,,,,,,,,,,,,,,,,,,,,,,,,,,,,,,,,,,,,,,
,,,,,,,,,,,,,1,001,2025-01-14_13h13.12.079,IAT(Formal),2021.2.3,Win32,60.60606061,,,,e,1,0.7294,0,28,28,5,1,诚实,e,,,,,,,,,,,,,,,,,,,,,,,,,,,,,,,,,,,,,,,,,,,,,,,,,,,,,
,,,,,,,,,,,,,1,001,2025-01-14_13h13.12.079,IAT(Formal),2021.2.3,Win32,60.60606061,,,,e,1,0.6262,0,29,29,4,1,乐观,e,,,,,,,,,,,,,,,,,,,,,,,,,,,,,,,,,,,,,,,,,,,,,,,,,,,,,
,,,,,,,,,,,,,1,001,2025-01-14_13h13.12.079,IAT(Formal),2021.2.3,Win32,60.60606061,,,,i,1,0.6491,0,30,30,24,1,悲观,i,,,,,,,,,,,,,,,,,,,,,,,,,,,,,,,,,,,,,,,,,,,,,,,,,,,,,
,,,,,,,,,,,,,1,001,2025-01-14_13h13.12.079,IAT(Formal),2021.2.3,Win32,60.60606061,,,,i,1,0.6311,0,31,31,37,1,固执,i,,,,,,,,,,,,,,,,,,,,,,,,,,,,,,,,,,,,,,,,,,,,,,,,,,,,,
,,,,,,,,,,,,,1,001,2025-01-14_13h13.12.079,IAT(Formal),2021.2.3,Win32,60.60606061,,,,i,1,0.6132,0,32,32,23,1,刻薄,i,,,,,,,,,,,,,,,,,,,,,,,,,,,,,,,,,,,,,,,,,,,,,,,,,,,,,
,,,,,,,,,,,,,1,001,2025-01-14_13h13.12.079,IAT(Formal),2021.2.3,Win32,60.60606061,,,,i,1,0.601,0,33,33,25,1,消极,i,,,,,,,,,,,,,,,,,,,,,,,,,,,,,,,,,,,,,,,,,,,,,,,,,,,,,
,,,,,,,,,,,,,1,001,2025-01-14_13h13.12.079,IAT(Formal),2021.2.3,Win32,60.60606061,,,,i,1,0.6099,0,34,34,30,1,执拗,i,,,,,,,,,,,,,,,,,,,,,,,,,,,,,,,,,,,,,,,,,,,,,,,,,,,,,
,,,,,,,,,,,,,1,001,2025-01-14_13h13.12.079,IAT(Formal),2021.2.3,Win32,60.60606061,,,,i,0,0.7639,0,35,35,11,1,稳重,e,,,,,,,,,,,,,,,,,,,,,,,,,,,,,,,,,,,,,,,,,,,,,,,,,,,,,
,,,,,,,,,,,,,1,001,2025-01-14_13h13.12.079,IAT(Formal),2021.2.3,Win32,60.60606061,,,,i,1,0.7083,0,36,36,34,1,暴躁,i,,,,,,,,,,,,,,,,,,,,,,,,,,,,,,,,,,,,,,,,,,,,,,,,,,,,,
,,,,,,,,,,,,,1,001,2025-01-14_13h13.12.079,IAT(Formal),2021.2.3,Win32,60.60606061,,,,e,1,0.7654,0,37,37,1,1,崇高,e,,,,,,,,,,,,,,,,,,,,,,,,,,,,,,,,,,,,,,,,,,,,,,,,,,,,,
,,,,,,,,,,,,,1,001,2025-01-14_13h13.12.079,IAT(Formal),2021.2.3,Win32,60.60606061,,,,i,0,0.8295,0,38,38,12,1,无私,e,,,,,,,,,,,,,,,,,,,,,,,,,,,,,,,,,,,,,,,,,,,,,,,,,,,,,
,,,,,,,,,,,,,1,001,2025-01-14_13h13.12.079,IAT(Formal),2021.2.3,Win32,60.60606061,,,,e,1,0.9311,0,39,39,7,1,勇敢,e,,,,,,,,,,,,,,,,,,,,,,,,,,,,,,,,,,,,,,,,,,,,,,,,,,,,,
,,,,,,,,,,,,,1,001,2025-01-14_13h13.12.079,IAT(Formal),2021.2.3,Win32,60.60606061,,,,,,,,,,,,,,space,3.6053,e,1,0.6977,0,0,0,10,1,优秀,e,,,,,,,,,,,,,,,,,,,,,,,,,,,,,,,,,,,,,,,,,
,,,,,,,,,,,,,1,001,2025-01-14_13h13.12.079,IAT(Formal),2021.2.3,Win32,60.60606061,,,,,,,,,,,,,,,,i,1,0.5477,0,1,1,68,1,他人,i,,,,,,,,,,,,,,,,,,,,,,,,,,,,,,,,,,,,,,,,,
,,,,,,,,,,,,,1,001,2025-01-14_13h13.12.079,IAT(Formal),2021.2.3,Win32,60.60606061,,,,,,,,,,,,,,,,i,1,0.5628,0,2,2,65,1,他,i,,,,,,,,,,,,,,,,,,,,,,,,,,,,,,,,,,,,,,,,,
,,,,,,,,,,,,,1,001,2025-01-14_13h13.12.079,IAT(Formal),2021.2.3,Win32,60.60606061,,,,,,,,,,,,,,,,e,1,0.6061,0,3,3,54,1,俺,e,,,,,,,,,,,,,,,,,,,,,,,,,,,,,,,,,,,,,,,,,
,,,,,,,,,,,,,1,001,2025-01-14_13h13.12.079,IAT(Formal),2021.2.3,Win32,60.60606061,,,,,,,,,,,,,,,,e,1,0.6836,0,4,4,14,1,乐观,e,,,,,,,,,,,,,,,,,,,,,,,,,,,,,,,,,,,,,,,,,
,,,,,,,,,,,,,1,001,2025-01-14_13h13.12.079,IAT(Formal),2021.2.3,Win32,60.60606061,,,,,,,,,,,,,,,,e,1,1.038,0,5,5,22,1,无私,e,,,,,,,,,,,,,,,,,,,,,,,,,,,,,,,,,,,,,,,,,
,,,,,,,,,,,,,1,001,2025-01-14_13h13.12.079,IAT(Formal),2021.2.3,Win32,60.60606061,,,,,,,,,,,,,,,,i,1,0.7472,0,6,6,47,1,固执,i,,,,,,,,,,,,,,,,,,,,,,,,,,,,,,,,,,,,,,,,,
,,,,,,,,,,,,,1,001,2025-01-14_13h13.12.079,IAT(Formal),2021.2.3,Win32,60.60606061,,,,,,,,,,,,,,,,i,1,0.5854,0,7,7,78,1,他人,i,,,,,,,,,,,,,,,,,,,,,,,,,,,,,,,,,,,,,,,,,
,,,,,,,,,,,,,1,001,2025-01-14_13h13.12.079,IAT(Formal),2021.2.3,Win32,60.60606061,,,,,,,,,,,,,,,,i,1,0.4494,0,8,8,7,1,他的,i,,,,,,,,,,,,,,,,,,,,,,,,,,,,,,,,,,,,,,,,,
,,,,,,,,,,,,,1,001,2025-01-14_13h13.12.079,IAT(Formal),2021.2.3,Win32,60.60606061,,,,,,,,,,,,,,,,i,1,0.6555,0,9,9,33,1,刻薄,i,,,,,,,,,,,,,,,,,,,,,,,,,,,,,,,,,,,,,,,,,
,,,,,,,,,,,,,1,001,2025-01-14_13h13.12.079,IAT(Formal),2021.2.3,Win32,60.60606061,,,,,,,,,,,,,,,,i,1,0.553,0,10,10,57,1,他的,i,,,,,,,,,,,,,,,,,,,,,,,,,,,,,,,,,,,,,,,,,
,,,,,,,,,,,,,1,001,2025-01-14_13h13.12.079,IAT(Formal),2021.2.3,Win32,60.60606061,,,,,,,,,,,,,,,,e,1,0.8428,0,11,11,0,1,我,e,,,,,,,,,,,,,,,,,,,,,,,,,,,,,,,,,,,,,,,,,
,,,,,,,,,,,,,1,001,2025-01-14_13h13.12.079,IAT(Formal),2021.2.3,Win32,60.60606061,,,,,,,,,,,,,,,,i,1,0.7462,0,12,12,38,1,鲁莽,i,,,,,,,,,,,,,,,,,,,,,,,,,,,,,,,,,,,,,,,,,
,,,,,,,,,,,,,1,001,2025-01-14_13h13.12.079,IAT(Formal),2021.2.3,Win32,60.60606061,,,,,,,,,,,,,,,,i,1,0.5865,0,13,13,31,1,虚伪,i,,,,,,,,,,,,,,,,,,,,,,,,,,,,,,,,,,,,,,,,,
,,,,,,,,,,,,,1,001,2025-01-14_13h13.12.079,IAT(Formal),2021.2.3,Win32,60.60606061,,,,,,,,,,,,,,,,i,1,0.55,0,14,14,75,1,他,i,,,,,,,,,,,,,,,,,,,,,,,,,,,,,,,,,,,,,,,,,
,,,,,,,,,,,,,1,001,2025-01-14_13h13.12.079,IAT(Formal),2021.2.3,Win32,60.60606061,,,,,,,,,,,,,,,,e,1,0.7086,0,15,15,23,1,公正,e,,,,,,,,,,,,,,,,,,,,,,,,,,,,,,,,,,,,,,,,,
,,,,,,,,,,,,,1,001,2025-01-14_13h13.12.079,IAT(Formal),2021.2.3,Win32,60.60606061,,,,,,,,,,,,,,,,e,1,0.5996,0,16,16,71,1,我的,e,,,,,,,,,,,,,,,,,,,,,,,,,,,,,,,,,,,,,,,,,
,,,,,,,,,,,,,1,001,2025-01-14_13h13.12.079,IAT(Formal),2021.2.3,Win32,60.60606061,,,,,,,,,,,,,,,,e,1,0.6671,0,17,17,70,1,我,e,,,,,,,,,,,,,,,,,,,,,,,,,,,,,,,,,,,,,,,,,
,,,,,,,,,,,,,1,001,2025-01-14_13h13.12.079,IAT(Formal),2021.2.3,Win32,60.60606061,,,,,,,,,,,,,,,,i,1,0.8305,0,18,18,5,1,他,i,,,,,,,,,,,,,,,,,,,,,,,,,,,,,,,,,,,,,,,,,
,,,,,,,,,,,,,1,001,2025-01-14_13h13.12.079,IAT(Formal),2021.2.3,Win32,60.60606061,,,,,,,,,,,,,,,,i,1,0.6807,0,19,19,42,1,凶狠,i,,,,,,,,,,,,,,,,,,,,,,,,,,,,,,,,,,,,,,,,,
,,,,,,,,,,,,,1,001,2025-01-14_13h13.12.079,IAT(Formal),2021.2.3,Win32,60.60606061,,,,,,,,,,,,,,,,e,1,0.6124,0,20,20,16,1,正直,e,,,,,,,,,,,,,,,,,,,,,,,,,,,,,,,,,,,,,,,,,
,,,,,,,,,,,,,1,001,2025-01-14_13h13.12.079,IAT(Formal),2021.2.3,Win32,60.60606061,,,,,,,,,,,,,,,,i,1,0.799,0,21,21,39,1,冒失,i,,,,,,,,,,,,,,,,,,,,,,,,,,,,,,,,,,,,,,,,,
,,,,,,,,,,,,,1,001,2025-01-14_13h13.12.079,IAT(Formal),2021.2.3,Win32,60.60606061,,,,,,,,,,,,,,,,i,1,0.5826,0,22,22,56,1,他们,i,,,,,,,,,,,,,,,,,,,,,,,,,,,,,,,,,,,,,,,,,
,,,,,,,,,,,,,1,001,2025-01-14_13h13.12.079,IAT(Formal),2021.2.3,Win32,60.60606061,,,,,,,,,,,,,,,,e,1,0.5961,0,23,23,27,1,热情,e,,,,,,,,,,,,,,,,,,,,,,,,,,,,,,,,,,,,,,,,,
,,,,,,,,,,,,,1,001,2025-01-14_13h13.12.079,IAT(Formal),2021.2.3,Win32,60.60606061,,,,,,,,,,,,,,,,e,1,0.9629,0,24,24,4,1,俺,e,,,,,,,,,,,,,,,,,,,,,,,,,,,,,,,,,,,,,,,,,
,,,,,,,,,,,,,1,001,2025-01-14_13h13.12.079,IAT(Formal),2021.2.3,Win32,60.60606061,,,,,,,,,,,,,,,,e,1,0.7839,0,25,25,18,1,勤奋,e,,,,,,,,,,,,,,,,,,,,,,,,,,,,,,,,,,,,,,,,,
,,,,,,,,,,,,,1,001,2025-01-14_13h13.12.079,IAT(Formal),2021.2.3,Win32,60.60606061,,,,,,,,,,,,,,,,i,1,0.7308,0,26,26,69,1,其他,i,,,,,,,,,,,,,,,,,,,,,,,,,,,,,,,,,,,,,,,,,
,,,,,,,,,,,,,1,001,2025-01-14_13h13.12.079,IAT(Formal),2021.2.3,Win32,60.60606061,,,,,,,,,,,,,,,,e,1,0.6633,0,27,27,64,1,俺,e,,,,,,,,,,,,,,,,,,,,,,,,,,,,,,,,,,,,,,,,,
,,,,,,,,,,,,,1,001,2025-01-14_13h13.12.079,IAT(Formal),2021.2.3,Win32,60.60606061,,,,,,,,,,,,,,,,i,1,0.7936,0,28,28,45,1,猖狂,i,,,,,,,,,,,,,,,,,,,,,,,,,,,,,,,,,,,,,,,,,
,,,,,,,,,,,,,1,001,2025-01-14_13h13.12.079,IAT(Formal),2021.2.3,Win32,60.60606061,,,,,,,,,,,,,,,,i,1,0.8066,0,29,29,9,1,其他,i,,,,,,,,,,,,,,,,,,,,,,,,,,,,,,,,,,,,,,,,,
,,,,,,,,,,,,,1,001,2025-01-14_13h13.12.079,IAT(Formal),2021.2.3,Win32,60.60606061,,,,,,,,,,,,,,,,e,1,0.5006,0,30,30,51,1,我的,e,,,,,,,,,,,,,,,,,,,,,,,,,,,,,,,,,,,,,,,,,
,,,,,,,,,,,,,1,001,2025-01-14_13h13.12.079,IAT(Formal),2021.2.3,Win32,60.60606061,,,,,,,,,,,,,,,,e,1,0.6003,0,31,31,25,1,细腻,e,,,,,,,,,,,,,,,,,,,,,,,,,,,,,,,,,,,,,,,,,
,,,,,,,,,,,,,1,001,2025-01-14_13h13.12.079,IAT(Formal),2021.2.3,Win32,60.60606061,,,,,,,,,,,,,,,,e,1,0.4649,0,32,32,53,1,自己,e,,,,,,,,,,,,,,,,,,,,,,,,,,,,,,,,,,,,,,,,,
,,,,,,,,,,,,,1,001,2025-01-14_13h13.12.079,IAT(Formal),2021.2.3,Win32,60.60606061,,,,,,,,,,,,,,,,e,1,0.5265,0,33,33,2,1,我们,e,,,,,,,,,,,,,,,,,,,,,,,,,,,,,,,,,,,,,,,,,
,,,,,,,,,,,,,1,001,2025-01-14_13h13.12.079,IAT(Formal),2021.2.3,Win32,60.60606061,,,,,,,,,,,,,,,,i,1,0.5921,0,34,34,67,1,他的,i,,,,,,,,,,,,,,,,,,,,,,,,,,,,,,,,,,,,,,,,,
,,,,,,,,,,,,,1,001,2025-01-14_13h13.12.079,IAT(Formal),2021.2.3,Win32,60.60606061,,,,,,,,,,,,,,,,e,1,0.6139,0,35,35,29,1,诚恳,e,,,,,,,,,,,,,,,,,,,,,,,,,,,,,,,,,,,,,,,,,
,,,,,,,,,,,,,1,001,2025-01-14_13h13.12.079,IAT(Formal),2021.2.3,Win32,60.60606061,,,,,,,,,,,,,,,,e,1,0.618,0,36,36,24,1,朴实,e,,,,,,,,,,,,,,,,,,,,,,,,,,,,,,,,,,,,,,,,,
,,,,,,,,,,,,,1,001,2025-01-14_13h13.12.079,IAT(Formal),2021.2.3,Win32,60.60606061,,,,,,,,,,,,,,,,i,1,0.5961,0,37,37,34,1,悲观,i,,,,,,,,,,,,,,,,,,,,,,,,,,,,,,,,,,,,,,,,,
,,,,,,,,,,,,,1,001,2025-01-14_13h13.12.079,IAT(Formal),2021.2.3,Win32,60.60606061,,,,,,,,,,,,,,,,i,1,1.2311,0,38,38,44,1,暴躁,i,,,,,,,,,,,,,,,,,,,,,,,,,,,,,,,,,,,,,,,,,
,,,,,,,,,,,,,1,001,2025-01-14_13h13.12.079,IAT(Formal),2021.2.3,Win32,60.60606061,,,,,,,,,,,,,,,,i,1,0.6983,0,39,39,8,1,他人,i,,,,,,,,,,,,,,,,,,,,,,,,,,,,,,,,,,,,,,,,,
,,,,,,,,,,,,,1,001,2025-01-14_13h13.12.079,IAT(Formal),2021.2.3,Win32,60.60606061,,,,,,,,,,,,,,,,e,1,0.5555,0,40,40,52,1,我们,e,,,,,,,,,,,,,,,,,,,,,,,,,,,,,,,,,,,,,,,,,
,,,,,,,,,,,,,1,001,2025-01-14_13h13.12.079,IAT(Formal),2021.2.3,Win32,60.60606061,,,,,,,,,,,,,,,,i,1,0.4805,0,41,41,77,1,他的,i,,,,,,,,,,,,,,,,,,,,,,,,,,,,,,,,,,,,,,,,,
,,,,,,,,,,,,,1,001,2025-01-14_13h13.12.079,IAT(Formal),2021.2.3,Win32,60.60606061,,,,,,,,,,,,,,,,e,1,0.572,0,42,42,74,1,俺,e,,,,,,,,,,,,,,,,,,,,,,,,,,,,,,,,,,,,,,,,,
,,,,,,,,,,,,,1,001,2025-01-14_13h13.12.079,IAT(Formal),2021.2.3,Win32,60.60606061,,,,,,,,,,,,,,,,e,1,0.677,0,43,43,12,1,聪明,e,,,,,,,,,,,,,,,,,,,,,,,,,,,,,,,,,,,,,,,,,
,,,,,,,,,,,,,1,001,2025-01-14_13h13.12.079,IAT(Formal),2021.2.3,Win32,60.60606061,,,,,,,,,,,,,,,,i,1,0.531,0,44,44,46,1,野蛮,i,,,,,,,,,,,,,,,,,,,,,,,,,,,,,,,,,,,,,,,,,
,,,,,,,,,,,,,1,001,2025-01-14_13h13.12.079,IAT(Formal),2021.2.3,Win32,60.60606061,,,,,,,,,,,,,,,,i,1,0.7136,0,45,45,79,1,其他,i,,,,,,,,,,,,,,,,,,,,,,,,,,,,,,,,,,,,,,,,,
,,,,,,,,,,,,,1,001,2025-01-14_13h13.12.079,IAT(Formal),2021.2.3,Win32,60.60606061,,,,,,,,,,,,,,,,,0,,0,46,46,60,1,我,e,,,,,,,,,,,,,,,,,,,,,,,,,,,,,,,,,,,,,,,,,
,,,,,,,,,,,,,1,001,2025-01-14_13h13.12.079,IAT(Formal),2021.2.3,Win32,60.60606061,,,,,,,,,,,,,,,,i,1,0.4297,0,47,47,55,1,他,i,,,,,,,,,,,,,,,,,,,,,,,,,,,,,,,,,,,,,,,,,
,,,,,,,,,,,,,1,001,2025-01-14_13h13.12.079,IAT(Formal),2021.2.3,Win32,60.60606061,,,,,,,,,,,,,,,,i,1,0.4213,0,48,48,6,1,他们,i,,,,,,,,,,,,,,,,,,,,,,,,,,,,,,,,,,,,,,,,,
,,,,,,,,,,,,,1,001,2025-01-14_13h13.12.079,IAT(Formal),2021.2.3,Win32,60.60606061,,,,,,,,,,,,,,,,i,0,0.3777,0,49,49,26,1,冷静,e,,,,,,,,,,,,,,,,,,,,,,,,,,,,,,,,,,,,,,,,,
,,,,,,,,,,,,,1,001,2025-01-14_13h13.12.079,IAT(Formal),2021.2.3,Win32,60.60606061,,,,,,,,,,,,,,,,e,1,0.6682,0,50,50,61,1,我的,e,,,,,,,,,,,,,,,,,,,,,,,,,,,,,,,,,,,,,,,,,
,,,,,,,,,,,,,1,001,2025-01-14_13h13.12.079,IAT(Formal),2021.2.3,Win32,60.60606061,,,,,,,,,,,,,,,,e,1,0.5375,0,51,51,20,1,认真,e,,,,,,,,,,,,,,,,,,,,,,,,,,,,,,,,,,,,,,,,,
,,,,,,,,,,,,,1,001,2025-01-14_13h13.12.079,IAT(Formal),2021.2.3,Win32,60.60606061,,,,,,,,,,,,,,,,i,1,0.6361,0,52,52,58,1,他人,i,,,,,,,,,,,,,,,,,,,,,,,,,,,,,,,,,,,,,,,,,
,,,,,,,,,,,,,1,001,2025-01-14_13h13.12.079,IAT(Formal),2021.2.3,Win32,60.60606061,,,,,,,,,,,,,,,,e,1,0.9698,0,53,53,15,1,诚实,e,,,,,,,,,,,,,,,,,,,,,,,,,,,,,,,,,,,,,,,,,
,,,,,,,,,,,,,1,001,2025-01-14_13h13.12.079,IAT(Formal),2021.2.3,Win32,60.60606061,,,,,,,,,,,,,,,,i,1,0.5545,0,54,54,49,1,下贱,i,,,,,,,,,,,,,,,,,,,,,,,,,,,,,,,,,,,,,,,,,
,,,,,,,,,,,,,1,001,2025-01-14_13h13.12.079,IAT(Formal),2021.2.3,Win32,60.60606061,,,,,,,,,,,,,,,,e,1,0.8584,0,55,55,50,1,我,e,,,,,,,,,,,,,,,,,,,,,,,,,,,,,,,,,,,,,,,,,
,,,,,,,,,,,,,1,001,2025-01-14_13h13.12.079,IAT(Formal),2021.2.3,Win32,60.60606061,,,,,,,,,,,,,,,,i,1,1.1371,0,56,56,37,1,傲慢,i,,,,,,,,,,,,,,,,,,,,,,,,,,,,,,,,,,,,,,,,,
,,,,,,,,,,,,,1,001,2025-01-14_13h13.12.079,IAT(Formal),2021.2.3,Win32,60.60606061,,,,,,,,,,,,,,,,i,1,0.6309,0,57,57,30,1,卑鄙,i,,,,,,,,,,,,,,,,,,,,,,,,,,,,,,,,,,,,,,,,,
,,,,,,,,,,,,,1,001,2025-01-14_13h13.12.079,IAT(Formal),2021.2.3,Win32,60.60606061,,,,,,,,,,,,,,,,i,1,0.5639,0,58,58,59,1,其他,i,,,,,,,,,,,,,,,,,,,,,,,,,,,,,,,,,,,,,,,,,
,,,,,,,,,,,,,1,001,2025-01-14_13h13.12.079,IAT(Formal),2021.2.3,Win32,60.60606061,,,,,,,,,,,,,,,,i,0,0.4912,0,59,59,17,1,勇敢,e,,,,,,,,,,,,,,,,,,,,,,,,,,,,,,,,,,,,,,,,,
,,,,,,,,,,,,,1,001,2025-01-14_13h13.12.079,IAT(Formal),2021.2.3,Win32,60.60606061,,,,,,,,,,,,,,,,e,1,0.6344,0,60,60,73,1,自己,e,,,,,,,,,,,,,,,,,,,,,,,,,,,,,,,,,,,,,,,,,
,,,,,,,,,,,,,1,001,2025-01-14_13h13.12.079,IAT(Formal),2021.2.3,Win32,60.60606061,,,,,,,,,,,,,,,,i,1,0.9531,0,61,61,32,1,愚蠢,i,,,,,,,,,,,,,,,,,,,,,,,,,,,,,,,,,,,,,,,,,
,,,,,,,,,,,,,1,001,2025-01-14_13h13.12.079,IAT(Formal),2021.2.3,Win32,60.60606061,,,,,,,,,,,,,,,,e,1,0.5684,0,62,62,63,1,自己,e,,,,,,,,,,,,,,,,,,,,,,,,,,,,,,,,,,,,,,,,,
,,,,,,,,,,,,,1,001,2025-01-14_13h13.12.079,IAT(Formal),2021.2.3,Win32,60.60606061,,,,,,,,,,,,,,,,e,1,1.4085,0,63,63,11,1,崇高,e,,,,,,,,,,,,,,,,,,,,,,,,,,,,,,,,,,,,,,,,,
,,,,,,,,,,,,,1,001,2025-01-14_13h13.12.079,IAT(Formal),2021.2.3,Win32,60.60606061,,,,,,,,,,,,,,,,e,1,0.7856,0,64,64,19,1,机智,e,,,,,,,,,,,,,,,,,,,,,,,,,,,,,,,,,,,,,,,,,
,,,,,,,,,,,,,1,001,2025-01-14_13h13.12.079,IAT(Formal),2021.2.3,Win32,60.60606061,,,,,,,,,,,,,,,,,0,,0,65,65,1,1,我的,e,,,,,,,,,,,,,,,,,,,,,,,,,,,,,,,,,,,,,,,,,
,,,,,,,,,,,,,1,001,2025-01-14_13h13.12.079,IAT(Formal),2021.2.3,Win32,60.60606061,,,,,,,,,,,,,,,,i,1,0.7973,0,66,66,48,1,轻率,i,,,,,,,,,,,,,,,,,,,,,,,,,,,,,,,,,,,,,,,,,
,,,,,,,,,,,,,1,001,2025-01-14_13h13.12.079,IAT(Formal),2021.2.3,Win32,60.60606061,,,,,,,,,,,,,,,,i,1,0.6168,0,67,67,43,1,自私,i,,,,,,,,,,,,,,,,,,,,,,,,,,,,,,,,,,,,,,,,,
,,,,,,,,,,,,,1,001,2025-01-14_13h13.12.079,IAT(Formal),2021.2.3,Win32,60.60606061,,,,,,,,,,,,,,,,e,1,0.7843,0,68,68,21,1,稳重,e,,,,,,,,,,,,,,,,,,,,,,,,,,,,,,,,,,,,,,,,,
,,,,,,,,,,,,,1,001,2025-01-14_13h13.12.079,IAT(Formal),2021.2.3,Win32,60.60606061,,,,,,,,,,,,,,,,e,1,0.6372,0,69,69,3,1,自己,e,,,,,,,,,,,,,,,,,,,,,,,,,,,,,,,,,,,,,,,,,
,,,,,,,,,,,,,1,001,2025-01-14_13h13.12.079,IAT(Formal),2021.2.3,Win32,60.60606061,,,,,,,,,,,,,,,,i,1,0.7171,0,70,70,36,1,自卑,i,,,,,,,,,,,,,,,,,,,,,,,,,,,,,,,,,,,,,,,,,
,,,,,,,,,,,,,1,001,2025-01-14_13h13.12.079,IAT(Formal),2021.2.3,Win32,60.60606061,,,,,,,,,,,,,,,,i,1,0.6362,0,71,71,40,1,执拗,i,,,,,,,,,,,,,,,,,,,,,,,,,,,,,,,,,,,,,,,,,
,,,,,,,,,,,,,1,001,2025-01-14_13h13.12.079,IAT(Formal),2021.2.3,Win32,60.60606061,,,,,,,,,,,,,,,,e,1,0.5882,0,72,72,72,1,我们,e,,,,,,,,,,,,,,,,,,,,,,,,,,,,,,,,,,,,,,,,,
,,,,,,,,,,,,,1,001,2025-01-14_13h13.12.079,IAT(Formal),2021.2.3,Win32,60.60606061,,,,,,,,,,,,,,,,e,1,0.7285,0,73,73,13,1,杰出,e,,,,,,,,,,,,,,,,,,,,,,,,,,,,,,,,,,,,,,,,,
,,,,,,,,,,,,,1,001,2025-01-14_13h13.12.079,IAT(Formal),2021.2.3,Win32,60.60606061,,,,,,,,,,,,,,,,i,1,0.6695,0,74,74,35,1,消极,i,,,,,,,,,,,,,,,,,,,,,,,,,,,,,,,,,,,,,,,,,
,,,,,,,,,,,,,1,001,2025-01-14_13h13.12.079,IAT(Formal),2021.2.3,Win32,60.60606061,,,,,,,,,,,,,,,,e,1,1.1608,0,75,75,28,1,活泼,e,,,,,,,,,,,,,,,,,,,,,,,,,,,,,,,,,,,,,,,,,
,,,,,,,,,,,,,1,001,2025-01-14_13h13.12.079,IAT(Formal),2021.2.3,Win32,60.60606061,,,,,,,,,,,,,,,,i,1,0.6514,0,76,76,41,1,散漫,i,,,,,,,,,,,,,,,,,,,,,,,,,,,,,,,,,,,,,,,,,
,,,,,,,,,,,,,1,001,2025-01-14_13h13.12.079,IAT(Formal),2021.2.3,Win32,60.60606061,,,,,,,,,,,,,,,,e,1,0.9304,0,77,77,62,1,我们,e,,,,,,,,,,,,,,,,,,,,,,,,,,,,,,,,,,,,,,,,,
,,,,,,,,,,,,,1,001,2025-01-14_13h13.12.079,IAT(Formal),2021.2.3,Win32,60.60606061,,,,,,,,,,,,,,,,i,1,0.5607,0,78,78,76,1,他们,i,,,,,,,,,,,,,,,,,,,,,,,,,,,,,,,,,,,,,,,,,
,,,,,,,,,,,,,1,001,2025-01-14_13h13.12.079,IAT(Formal),2021.2.3,Win32,60.60606061,,,,,,,,,,,,,,,,i,1,0.6699,0,79,79,66,1,他们,i,,,,,,,,,,,,,,,,,,,,,,,,,,,,,,,,,,,,,,,,,
,,,,,,,,,,,,,1,001,2025-01-14_13h13.12.079,IAT(Formal),2021.2.3,Win32,60.60606061,,,,,,,,,,,,,,,,e,1,0.6647,,,,,,崇高,e,space,5.028,0,0,0,11,1,,,,,,,,,,,,,,,,,,,,,,,,,,,,,,,,,,
,,,,,,,,,,,,,1,001,2025-01-14_13h13.12.079,IAT(Formal),2021.2.3,Win32,60.60606061,,,,,,,,,,,,,,,,i,1,0.552,,,,,,他们,i,,,0,1,1,66,1,,,,,,,,,,,,,,,,,,,,,,,,,,,,,,,,,,
,,,,,,,,,,,,,1,001,2025-01-14_13h13.12.079,IAT(Formal),2021.2.3,Win32,60.60606061,,,,,,,,,,,,,,,,i,1,1.1776,,,,,,傲慢,i,,,0,2,2,37,1,,,,,,,,,,,,,,,,,,,,,,,,,,,,,,,,,,
,,,,,,,,,,,,,1,001,2025-01-14_13h13.12.079,IAT(Formal),2021.2.3,Win32,60.60606061,,,,,,,,,,,,,,,,e,1,0.7473,,,,,,俺,e,,,0,3,3,64,1,,,,,,,,,,,,,,,,,,,,,,,,,,,,,,,,,,
,,,,,,,,,,,,,1,001,2025-01-14_13h13.12.079,IAT(Formal),2021.2.3,Win32,60.60606061,,,,,,,,,,,,,,,,e,1,0.6529,,,,,,聪明,e,,,0,4,4,12,1,,,,,,,,,,,,,,,,,,,,,,,,,,,,,,,,,,
,,,,,,,,,,,,,1,001,2025-01-14_13h13.12.079,IAT(Formal),2021.2.3,Win32,60.60606061,,,,,,,,,,,,,,,,e,1,0.6978,,,,,,我的,e,,,0,5,5,71,1,,,,,,,,,,,,,,,,,,,,,,,,,,,,,,,,,,
,,,,,,,,,,,,,1,001,2025-01-14_13h13.12.079,IAT(Formal),2021.2.3,Win32,60.60606061,,,,,,,,,,,,,,,,i,1,0.4877,,,,,,他,i,,,0,6,6,65,1,,,,,,,,,,,,,,,,,,,,,,,,,,,,,,,,,,
,,,,,,,,,,,,,1,001,2025-01-14_13h13.12.079,IAT(Formal),2021.2.3,Win32,60.60606061,,,,,,,,,,,,,,,,i,1,0.5292,,,,,,愚蠢,i,,,0,7,7,32,1,,,,,,,,,,,,,,,,,,,,,,,,,,,,,,,,,,
,,,,,,,,,,,,,1,001,2025-01-14_13h13.12.079,IAT(Formal),2021.2.3,Win32,60.60606061,,,,,,,,,,,,,,,,i,1,0.57,,,,,,他的,i,,,0,8,8,57,1,,,,,,,,,,,,,,,,,,,,,,,,,,,,,,,,,,
,,,,,,,,,,,,,1,001,2025-01-14_13h13.12.079,IAT(Formal),2021.2.3,Win32,60.60606061,,,,,,,,,,,,,,,,i,1,0.9541,,,,,,轻率,i,,,0,9,9,48,1,,,,,,,,,,,,,,,,,,,,,,,,,,,,,,,,,,
,,,,,,,,,,,,,1,001,2025-01-14_13h13.12.079,IAT(Formal),2021.2.3,Win32,60.60606061,,,,,,,,,,,,,,,,i,1,0.5125,,,,,,执拗,i,,,0,10,10,40,1,,,,,,,,,,,,,,,,,,,,,,,,,,,,,,,,,,
,,,,,,,,,,,,,1,001,2025-01-14_13h13.12.079,IAT(Formal),2021.2.3,Win32,60.60606061,,,,,,,,,,,,,,,,e,1,0.95,,,,,,我们,e,,,0,11,11,62,1,,,,,,,,,,,,,,,,,,,,,,,,,,,,,,,,,,
,,,,,,,,,,,,,1,001,2025-01-14_13h13.12.079,IAT(Formal),2021.2.3,Win32,60.60606061,,,,,,,,,,,,,,,,e,1,0.7101,,,,,,我们,e,,,0,12,12,72,1,,,,,,,,,,,,,,,,,,,,,,,,,,,,,,,,,,
,,,,,,,,,,,,,1,001,2025-01-14_13h13.12.079,IAT(Formal),2021.2.3,Win32,60.60606061,,,,,,,,,,,,,,,,e,1,0.7492,,,,,,认真,e,,,0,13,13,20,1,,,,,,,,,,,,,,,,,,,,,,,,,,,,,,,,,,
,,,,,,,,,,,,,1,001,2025-01-14_13h13.12.079,IAT(Formal),2021.2.3,Win32,60.60606061,,,,,,,,,,,,,,,,,0,,,,,,,我,e,,,0,14,14,60,1,,,,,,,,,,,,,,,,,,,,,,,,,,,,,,,,,,
,,,,,,,,,,,,,1,001,2025-01-14_13h13.12.079,IAT(Formal),2021.2.3,Win32,60.60606061,,,,,,,,,,,,,,,,i,1,0.4682,,,,,,他,i,,,0,15,15,75,1,,,,,,,,,,,,,,,,,,,,,,,,,,,,,,,,,,
,,,,,,,,,,,,,1,001,2025-01-14_13h13.12.079,IAT(Formal),2021.2.3,Win32,60.60606061,,,,,,,,,,,,,,,,i,1,0.5407,,,,,,他人,i,,,0,16,16,58,1,,,,,,,,,,,,,,,,,,,,,,,,,,,,,,,,,,
,,,,,,,,,,,,,1,001,2025-01-14_13h13.12.079,IAT(Formal),2021.2.3,Win32,60.60606061,,,,,,,,,,,,,,,,i,1,0.4623,,,,,,他的,i,,,0,17,17,67,1,,,,,,,,,,,,,,,,,,,,,,,,,,,,,,,,,,
,,,,,,,,,,,,,1,001,2025-01-14_13h13.12.079,IAT(Formal),2021.2.3,Win32,60.60606061,,,,,,,,,,,,,,,,i,0,1.3303,,,,,,热情,e,,,0,18,18,27,1,,,,,,,,,,,,,,,,,,,,,,,,,,,,,,,,,,
,,,,,,,,,,,,,1,001,2025-01-14_13h13.12.079,IAT(Formal),2021.2.3,Win32,60.60606061,,,,,,,,,,,,,,,,e,1,0.548,,,,,,我们,e,,,0,19,19,52,1,,,,,,,,,,,,,,,,,,,,,,,,,,,,,,,,,,
,,,,,,,,,,,,,1,001,2025-01-14_13h13.12.079,IAT(Formal),2021.2.3,Win32,60.60606061,,,,,,,,,,,,,,,,e,1,0.714,,,,,,自己,e,,,0,20,20,53,1,,,,,,,,,,,,,,,,,,,,,,,,,,,,,,,,,,
,,,,,,,,,,,,,1,001,2025-01-14_13h13.12.079,IAT(Formal),2021.2.3,Win32,60.60606061,,,,,,,,,,,,,,,,i,1,1.0124,,,,,,其他,i,,,0,21,21,79,1,,,,,,,,,,,,,,,,,,,,,,,,,,,,,,,,,,
,,,,,,,,,,,,,1,001,2025-01-14_13h13.12.079,IAT(Formal),2021.2.3,Win32,60.60606061,,,,,,,,,,,,,,,,i,1,1.0195,,,,,,其他,i,,,0,22,22,9,1,,,,,,,,,,,,,,,,,,,,,,,,,,,,,,,,,,
,,,,,,,,,,,,,1,001,2025-01-14_13h13.12.079,IAT(Formal),2021.2.3,Win32,60.60606061,,,,,,,,,,,,,,,,e,1,0.5885,,,,,,公正,e,,,0,23,23,23,1,,,,,,,,,,,,,,,,,,,,,,,,,,,,,,,,,,
,,,,,,,,,,,,,1,001,2025-01-14_13h13.12.079,IAT(Formal),2021.2.3,Win32,60.60606061,,,,,,,,,,,,,,,,i,0,0.7018,,,,,,正直,e,,,0,24,24,16,1,,,,,,,,,,,,,,,,,,,,,,,,,,,,,,,,,,
,,,,,,,,,,,,,1,001,2025-01-14_13h13.12.079,IAT(Formal),2021.2.3,Win32,60.60606061,,,,,,,,,,,,,,,,e,1,0.7017,,,,,,朴实,e,,,0,25,25,24,1,,,,,,,,,,,,,,,,,,,,,,,,,,,,,,,,,,
,,,,,,,,,,,,,1,001,2025-01-14_13h13.12.079,IAT(Formal),2021.2.3,Win32,60.60606061,,,,,,,,,,,,,,,,e,1,0.6613,,,,,,我的,e,,,0,26,26,61,1,,,,,,,,,,,,,,,,,,,,,,,,,,,,,,,,,,
,,,,,,,,,,,,,1,001,2025-01-14_13h13.12.079,IAT(Formal),2021.2.3,Win32,60.60606061,,,,,,,,,,,,,,,,e,1,0.5807,,,,,,俺,e,,,0,27,27,4,1,,,,,,,,,,,,,,,,,,,,,,,,,,,,,,,,,,
,,,,,,,,,,,,,1,001,2025-01-14_13h13.12.079,IAT(Formal),2021.2.3,Win32,60.60606061,,,,,,,,,,,,,,,,i,1,0.7157,,,,,,散漫,i,,,0,28,28,41,1,,,,,,,,,,,,,,,,,,,,,,,,,,,,,,,,,,
,,,,,,,,,,,,,1,001,2025-01-14_13h13.12.079,IAT(Formal),2021.2.3,Win32,60.60606061,,,,,,,,,,,,,,,,e,1,0.6443,,,,,,杰出,e,,,0,29,29,13,1,,,,,,,,,,,,,,,,,,,,,,,,,,,,,,,,,,
,,,,,,,,,,,,,1,001,2025-01-14_13h13.12.079,IAT(Formal),2021.2.3,Win32,60.60606061,,,,,,,,,,,,,,,,i,1,0.8971,,,,,,他们,i,,,0,30,30,56,1,,,,,,,,,,,,,,,,,,,,,,,,,,,,,,,,,,
,,,,,,,,,,,,,1,001,2025-01-14_13h13.12.079,IAT(Formal),2021.2.3,Win32,60.60606061,,,,,,,,,,,,,,,,e,1,0.5464,,,,,,机智,e,,,0,31,31,19,1,,,,,,,,,,,,,,,,,,,,,,,,,,,,,,,,,,
,,,,,,,,,,,,,1,001,2025-01-14_13h13.12.079,IAT(Formal),2021.2.3,Win32,60.60606061,,,,,,,,,,,,,,,,i,1,1.0474,,,,,,固执,i,,,0,32,32,47,1,,,,,,,,,,,,,,,,,,,,,,,,,,,,,,,,,,
,,,,,,,,,,,,,1,001,2025-01-14_13h13.12.079,IAT(Formal),2021.2.3,Win32,60.60606061,,,,,,,,,,,,,,,,i,1,0.6966,,,,,,他人,i,,,0,33,33,8,1,,,,,,,,,,,,,,,,,,,,,,,,,,,,,,,,,,
,,,,,,,,,,,,,1,001,2025-01-14_13h13.12.079,IAT(Formal),2021.2.3,Win32,60.60606061,,,,,,,,,,,,,,,,i,0,0.4014,,,,,,自己,e,,,0,34,34,63,1,,,,,,,,,,,,,,,,,,,,,,,,,,,,,,,,,,
,,,,,,,,,,,,,1,001,2025-01-14_13h13.12.079,IAT(Formal),2021.2.3,Win32,60.60606061,,,,,,,,,,,,,,,,e,1,0.4867,,,,,,俺,e,,,0,35,35,74,1,,,,,,,,,,,,,,,,,,,,,,,,,,,,,,,,,,
,,,,,,,,,,,,,1,001,2025-01-14_13h13.12.079,IAT(Formal),2021.2.3,Win32,60.60606061,,,,,,,,,,,,,,,,e,1,1.0656,,,,,,诚恳,e,,,0,36,36,29,1,,,,,,,,,,,,,,,,,,,,,,,,,,,,,,,,,,
,,,,,,,,,,,,,1,001,2025-01-14_13h13.12.079,IAT(Formal),2021.2.3,Win32,60.60606061,,,,,,,,,,,,,,,,i,1,0.6129,,,,,,他人,i,,,0,37,37,68,1,,,,,,,,,,,,,,,,,,,,,,,,,,,,,,,,,,
,,,,,,,,,,,,,1,001,2025-01-14_13h13.12.079,IAT(Formal),2021.2.3,Win32,60.60606061,,,,,,,,,,,,,,,,i,1,0.7378,,,,,,刻薄,i,,,0,38,38,33,1,,,,,,,,,,,,,,,,,,,,,,,,,,,,,,,,,,
,,,,,,,,,,,,,1,001,2025-01-14_13h13.12.079,IAT(Formal),2021.2.3,Win32,60.60606061,,,,,,,,,,,,,,,,i,1,0.7981,,,,,,鲁莽,i,,,0,39,39,38,1,,,,,,,,,,,,,,,,,,,,,,,,,,,,,,,,,,
,,,,,,,,,,,,,1,001,2025-01-14_13h13.12.079,IAT(Formal),2021.2.3,Win32,60.60606061,,,,,,,,,,,,,,,,i,1,0.6149,,,,,,其他,i,,,0,40,40,69,1,,,,,,,,,,,,,,,,,,,,,,,,,,,,,,,,,,
,,,,,,,,,,,,,1,001,2025-01-14_13h13.12.079,IAT(Formal),2021.2.3,Win32,60.60606061,,,,,,,,,,,,,,,,e,1,0.7105,,,,,,乐观,e,,,0,41,41,14,1,,,,,,,,,,,,,,,,,,,,,,,,,,,,,,,,,,
,,,,,,,,,,,,,1,001,2025-01-14_13h13.12.079,IAT(Formal),2021.2.3,Win32,60.60606061,,,,,,,,,,,,,,,,i,1,0.5805,,,,,,卑鄙,i,,,0,42,42,30,1,,,,,,,,,,,,,,,,,,,,,,,,,,,,,,,,,,
,,,,,,,,,,,,,1,001,2025-01-14_13h13.12.079,IAT(Formal),2021.2.3,Win32,60.60606061,,,,,,,,,,,,,,,,e,1,0.6301,,,,,,我,e,,,0,43,43,0,1,,,,,,,,,,,,,,,,,,,,,,,,,,,,,,,,,,
,,,,,,,,,,,,,1,001,2025-01-14_13h13.12.079,IAT(Formal),2021.2.3,Win32,60.60606061,,,,,,,,,,,,,,,,e,1,0.6278,,,,,,俺,e,,,0,44,44,54,1,,,,,,,,,,,,,,,,,,,,,,,,,,,,,,,,,,
,,,,,,,,,,,,,1,001,2025-01-14_13h13.12.079,IAT(Formal),2021.2.3,Win32,60.60606061,,,,,,,,,,,,,,,,e,1,1.0274,,,,,,活泼,e,,,0,45,45,28,1,,,,,,,,,,,,,,,,,,,,,,,,,,,,,,,,,,
,,,,,,,,,,,,,1,001,2025-01-14_13h13.12.079,IAT(Formal),2021.2.3,Win32,60.60606061,,,,,,,,,,,,,,,,e,1,0.4614,,,,,,我的,e,,,0,46,46,1,1,,,,,,,,,,,,,,,,,,,,,,,,,,,,,,,,,,
,,,,,,,,,,,,,1,001,2025-01-14_13h13.12.079,IAT(Formal),2021.2.3,Win32,60.60606061,,,,,,,,,,,,,,,,e,1,0.7412,,,,,,我的,e,,,0,47,47,51,1,,,,,,,,,,,,,,,,,,,,,,,,,,,,,,,,,,
,,,,,,,,,,,,,1,001,2025-01-14_13h13.12.079,IAT(Formal),2021.2.3,Win32,60.60606061,,,,,,,,,,,,,,,,i,1,0.5149,,,,,,他们,i,,,0,48,48,76,1,,,,,,,,,,,,,,,,,,,,,,,,,,,,,,,,,,
,,,,,,,,,,,,,1,001,2025-01-14_13h13.12.079,IAT(Formal),2021.2.3,Win32,60.60606061,,,,,,,,,,,,,,,,i,1,0.6478,,,,,,下贱,i,,,0,49,49,49,1,,,,,,,,,,,,,,,,,,,,,,,,,,,,,,,,,,
,,,,,,,,,,,,,1,001,2025-01-14_13h13.12.079,IAT(Formal),2021.2.3,Win32,60.60606061,,,,,,,,,,,,,,,,e,1,0.8021,,,,,,我们,e,,,0,50,50,2,1,,,,,,,,,,,,,,,,,,,,,,,,,,,,,,,,,,
,,,,,,,,,,,,,1,001,2025-01-14_13h13.12.079,IAT(Formal),2021.2.3,Win32,60.60606061,,,,,,,,,,,,,,,,,0,,,,,,,其他,i,,,0,51,51,59,1,,,,,,,,,,,,,,,,,,,,,,,,,,,,,,,,,,
,,,,,,,,,,,,,1,001,2025-01-14_13h13.12.079,IAT(Formal),2021.2.3,Win32,60.60606061,,,,,,,,,,,,,,,,i,1,0.5646,,,,,,他人,i,,,0,52,52,78,1,,,,,,,,,,,,,,,,,,,,,,,,,,,,,,,,,,
,,,,,,,,,,,,,1,001,2025-01-14_13h13.12.079,IAT(Formal),2021.2.3,Win32,60.60606061,,,,,,,,,,,,,,,,e,1,0.5475,,,,,,勤奋,e,,,0,53,53,18,1,,,,,,,,,,,,,,,,,,,,,,,,,,,,,,,,,,
,,,,,,,,,,,,,1,001,2025-01-14_13h13.12.079,IAT(Formal),2021.2.3,Win32,60.60606061,,,,,,,,,,,,,,,,e,1,0.8965,,,,,,稳重,e,,,0,54,54,21,1,,,,,,,,,,,,,,,,,,,,,,,,,,,,,,,,,,
,,,,,,,,,,,,,1,001,2025-01-14_13h13.12.079,IAT(Formal),2021.2.3,Win32,60.60606061,,,,,,,,,,,,,,,,e,1,0.5355,,,,,,自己,e,,,0,55,55,73,1,,,,,,,,,,,,,,,,,,,,,,,,,,,,,,,,,,
,,,,,,,,,,,,,1,001,2025-01-14_13h13.12.079,IAT(Formal),2021.2.3,Win32,60.60606061,,,,,,,,,,,,,,,,i,1,0.67,,,,,,他,i,,,0,56,56,55,1,,,,,,,,,,,,,,,,,,,,,,,,,,,,,,,,,,
,,,,,,,,,,,,,1,001,2025-01-14_13h13.12.079,IAT(Formal),2021.2.3,Win32,60.60606061,,,,,,,,,,,,,,,,e,1,0.597,,,,,,细腻,e,,,0,57,57,25,1,,,,,,,,,,,,,,,,,,,,,,,,,,,,,,,,,,
,,,,,,,,,,,,,1,001,2025-01-14_13h13.12.079,IAT(Formal),2021.2.3,Win32,60.60606061,,,,,,,,,,,,,,,,i,1,1.0638,,,,,,暴躁,i,,,0,58,58,44,1,,,,,,,,,,,,,,,,,,,,,,,,,,,,,,,,,,
,,,,,,,,,,,,,1,001,2025-01-14_13h13.12.079,IAT(Formal),2021.2.3,Win32,60.60606061,,,,,,,,,,,,,,,,e,1,0.8342,,,,,,无私,e,,,0,59,59,22,1,,,,,,,,,,,,,,,,,,,,,,,,,,,,,,,,,,
,,,,,,,,,,,,,1,001,2025-01-14_13h13.12.079,IAT(Formal),2021.2.3,Win32,60.60606061,,,,,,,,,,,,,,,,e,1,1.1805,,,,,,诚实,e,,,0,60,60,15,1,,,,,,,,,,,,,,,,,,,,,,,,,,,,,,,,,,
,,,,,,,,,,,,,1,001,2025-01-14_13h13.12.079,IAT(Formal),2021.2.3,Win32,60.60606061,,,,,,,,,,,,,,,,i,1,0.6052,,,,,,猖狂,i,,,0,61,61,45,1,,,,,,,,,,,,,,,,,,,,,,,,,,,,,,,,,,
,,,,,,,,,,,,,1,001,2025-01-14_13h13.12.079,IAT(Formal),2021.2.3,Win32,60.60606061,,,,,,,,,,,,,,,,,0,,,,,,,野蛮,i,,,0,62,62,46,1,,,,,,,,,,,,,,,,,,,,,,,,,,,,,,,,,,
,,,,,,,,,,,,,1,001,2025-01-14_13h13.12.079,IAT(Formal),2021.2.3,Win32,60.60606061,,,,,,,,,,,,,,,,e,1,0.6514,,,,,,优秀,e,,,0,63,63,10,1,,,,,,,,,,,,,,,,,,,,,,,,,,,,,,,,,,
,,,,,,,,,,,,,1,001,2025-01-14_13h13.12.079,IAT(Formal),2021.2.3,Win32,60.60606061,,,,,,,,,,,,,,,,e,1,0.7903,,,,,,勇敢,e,,,0,64,64,17,1,,,,,,,,,,,,,,,,,,,,,,,,,,,,,,,,,,
,,,,,,,,,,,,,1,001,2025-01-14_13h13.12.079,IAT(Formal),2021.2.3,Win32,60.60606061,,,,,,,,,,,,,,,,i,1,0.9221,,,,,,虚伪,i,,,0,65,65,31,1,,,,,,,,,,,,,,,,,,,,,,,,,,,,,,,,,,
,,,,,,,,,,,,,1,001,2025-01-14_13h13.12.079,IAT(Formal),2021.2.3,Win32,60.60606061,,,,,,,,,,,,,,,,e,0,0.711,,,,,,他们,i,,,0,66,66,6,1,,,,,,,,,,,,,,,,,,,,,,,,,,,,,,,,,,
,,,,,,,,,,,,,1,001,2025-01-14_13h13.12.079,IAT(Formal),2021.2.3,Win32,60.60606061,,,,,,,,,,,,,,,,e,1,0.6267,,,,,,自己,e,,,0,67,67,3,1,,,,,,,,,,,,,,,,,,,,,,,,,,,,,,,,,,
,,,,,,,,,,,,,1,001,2025-01-14_13h13.12.079,IAT(Formal),2021.2.3,Win32,60.60606061,,,,,,,,,,,,,,,,i,0,0.7664,,,,,,冷静,e,,,0,68,68,26,1,,,,,,,,,,,,,,,,,,,,,,,,,,,,,,,,,,
,,,,,,,,,,,,,1,001,2025-01-14_13h13.12.079,IAT(Formal),2021.2.3,Win32,60.60606061,,,,,,,,,,,,,,,,i,1,0.5621,,,,,,凶狠,i,,,0,69,69,42,1,,,,,,,,,,,,,,,,,,,,,,,,,,,,,,,,,,
,,,,,,,,,,,,,1,001,2025-01-14_13h13.12.079,IAT(Formal),2021.2.3,Win32,60.60606061,,,,,,,,,,,,,,,,e,1,0.6632,,,,,,我,e,,,0,70,70,50,1,,,,,,,,,,,,,,,,,,,,,,,,,,,,,,,,,,
,,,,,,,,,,,,,1,001,2025-01-14_13h13.12.079,IAT(Formal),2021.2.3,Win32,60.60606061,,,,,,,,,,,,,,,,i,1,0.6054,,,,,,他的,i,,,0,71,71,77,1,,,,,,,,,,,,,,,,,,,,,,,,,,,,,,,,,,
,,,,,,,,,,,,,1,001,2025-01-14_13h13.12.079,IAT(Formal),2021.2.3,Win32,60.60606061,,,,,,,,,,,,,,,,i,1,0.9453,,,,,,自私,i,,,0,72,72,43,1,,,,,,,,,,,,,,,,,,,,,,,,,,,,,,,,,,
,,,,,,,,,,,,,1,001,2025-01-14_13h13.12.079,IAT(Formal),2021.2.3,Win32,60.60606061,,,,,,,,,,,,,,,,i,1,0.8017,,,,,,自卑,i,,,0,73,73,36,1,,,,,,,,,,,,,,,,,,,,,,,,,,,,,,,,,,
,,,,,,,,,,,,,1,001,2025-01-14_13h13.12.079,IAT(Formal),2021.2.3,Win32,60.60606061,,,,,,,,,,,,,,,,i,1,1.0364,,,,,,他,i,,,0,74,74,5,1,,,,,,,,,,,,,,,,,,,,,,,,,,,,,,,,,,
,,,,,,,,,,,,,1,001,2025-01-14_13h13.12.079,IAT(Formal),2021.2.3,Win32,60.60606061,,,,,,,,,,,,,,,,i,1,0.6003,,,,,,消极,i,,,0,75,75,35,1,,,,,,,,,,,,,,,,,,,,,,,,,,,,,,,,,,
,,,,,,,,,,,,,1,001,2025-01-14_13h13.12.079,IAT(Formal),2021.2.3,Win32,60.60606061,,,,,,,,,,,,,,,,i,1,0.6658,,,,,,冒失,i,,,0,76,76,39,1,,,,,,,,,,,,,,,,,,,,,,,,,,,,,,,,,,
,,,,,,,,,,,,,1,001,2025-01-14_13h13.12.079,IAT(Formal),2021.2.3,Win32,60.60606061,,,,,,,,,,,,,,,,i,1,0.4805,,,,,,他的,i,,,0,77,77,7,1,,,,,,,,,,,,,,,,,,,,,,,,,,,,,,,,,,
,,,,,,,,,,,,,1,001,2025-01-14_13h13.12.079,IAT(Formal),2021.2.3,Win32,60.60606061,,,,,,,,,,,,,,,,e,1,0.4822,,,,,,我,e,,,0,78,78,70,1,,,,,,,,,,,,,,,,,,,,,,,,,,,,,,,,,,
,,,,,,,,,,,,,1,001,2025-01-14_13h13.12.079,IAT(Formal),2021.2.3,Win32,60.60606061,,,,,,,,,,,,,,,,i,1,0.4982,,,,,,悲观,i,,,0,79,79,34,1,,,,,,,,,,,,,,,,,,,,,,,,,,,,,,,,,,
,,,,,,,,,,,,,1,001,2025-01-14_13h13.12.079,IAT(Formal),2021.2.3,Win32,60.60606061,,,,,,,,,,,,,,,,i,1,0.4821,,,,,,刻薄,i,,,1,0,80,33,1,,,,,,,,,,,,,,,,,,,,,,,,,,,,,,,,,,
,,,,,,,,,,,,,1,001,2025-01-14_13h13.12.079,IAT(Formal),2021.2.3,Win32,60.60606061,,,,,,,,,,,,,,,,e,1,0.6121,,,,,,俺,e,,,1,1,81,54,1,,,,,,,,,,,,,,,,,,,,,,,,,,,,,,,,,,
,,,,,,,,,,,,,1,001,2025-01-14_13h13.12.079,IAT(Formal),2021.2.3,Win32,60.60606061,,,,,,,,,,,,,,,,i,1,1.3157,,,,,,其他,i,,,1,2,82,9,1,,,,,,,,,,,,,,,,,,,,,,,,,,,,,,,,,,
,,,,,,,,,,,,,1,001,2025-01-14_13h13.12.079,IAT(Formal),2021.2.3,Win32,60.60606061,,,,,,,,,,,,,,,,i,1,0.5809,,,,,,轻率,i,,,1,3,83,48,1,,,,,,,,,,,,,,,,,,,,,,,,,,,,,,,,,,
,,,,,,,,,,,,,1,001,2025-01-14_13h13.12.079,IAT(Formal),2021.2.3,Win32,60.60606061,,,,,,,,,,,,,,,,e,1,1.0875,,,,,,我的,e,,,1,4,84,1,1,,,,,,,,,,,,,,,,,,,,,,,,,,,,,,,,,,
,,,,,,,,,,,,,1,001,2025-01-14_13h13.12.079,IAT(Formal),2021.2.3,Win32,60.60606061,,,,,,,,,,,,,,,,e,1,0.7476,,,,,,冷静,e,,,1,5,85,26,1,,,,,,,,,,,,,,,,,,,,,,,,,,,,,,,,,,
,,,,,,,,,,,,,1,001,2025-01-14_13h13.12.079,IAT(Formal),2021.2.3,Win32,60.60606061,,,,,,,,,,,,,,,,i,1,0.6433,,,,,,他人,i,,,1,6,86,68,1,,,,,,,,,,,,,,,,,,,,,,,,,,,,,,,,,,
,,,,,,,,,,,,,1,001,2025-01-14_13h13.12.079,IAT(Formal),2021.2.3,Win32,60.60606061,,,,,,,,,,,,,,,,e,1,1.247,,,,,,正直,e,,,1,7,87,16,1,,,,,,,,,,,,,,,,,,,,,,,,,,,,,,,,,,
,,,,,,,,,,,,,1,001,2025-01-14_13h13.12.079,IAT(Formal),2021.2.3,Win32,60.60606061,,,,,,,,,,,,,,,,i,1,0.6472,,,,,,他人,i,,,1,8,88,8,1,,,,,,,,,,,,,,,,,,,,,,,,,,,,,,,,,,
,,,,,,,,,,,,,1,001,2025-01-14_13h13.12.079,IAT(Formal),2021.2.3,Win32,60.60606061,,,,,,,,,,,,,,,,e,1,0.634,,,,,,勤奋,e,,,1,9,89,18,1,,,,,,,,,,,,,,,,,,,,,,,,,,,,,,,,,,
,,,,,,,,,,,,,1,001,2025-01-14_13h13.12.079,IAT(Formal),2021.2.3,Win32,60.60606061,,,,,,,,,,,,,,,,,0,,,,,,,卑鄙,i,,,1,10,90,30,1,,,,,,,,,,,,,,,,,,,,,,,,,,,,,,,,,,
,,,,,,,,,,,,,1,001,2025-01-14_13h13.12.079,IAT(Formal),2021.2.3,Win32,60.60606061,,,,,,,,,,,,,,,,i,1,0.6153,,,,,,其他,i,,,1,11,91,79,1,,,,,,,,,,,,,,,,,,,,,,,,,,,,,,,,,,
,,,,,,,,,,,,,1,001,2025-01-14_13h13.12.079,IAT(Formal),2021.2.3,Win32,60.60606061,,,,,,,,,,,,,,,,i,1,0.8159,,,,,,下贱,i,,,1,12,92,49,1,,,,,,,,,,,,,,,,,,,,,,,,,,,,,,,,,,
,,,,,,,,,,,,,1,001,2025-01-14_13h13.12.079,IAT(Formal),2021.2.3,Win32,60.60606061,,,,,,,,,,,,,,,,,0,,,,,,,鲁莽,i,,,1,13,93,38,1,,,,,,,,,,,,,,,,,,,,,,,,,,,,,,,,,,
,,,,,,,,,,,,,1,001,2025-01-14_13h13.12.079,IAT(Formal),2021.2.3,Win32,60.60606061,,,,,,,,,,,,,,,,e,1,0.5332,,,,,,我的,e,,,1,14,94,61,1,,,,,,,,,,,,,,,,,,,,,,,,,,,,,,,,,,
,,,,,,,,,,,,,1,001,2025-01-14_13h13.12.079,IAT(Formal),2021.2.3,Win32,60.60606061,,,,,,,,,,,,,,,,i,0,0.617,,,,,,杰出,e,,,1,15,95,13,1,,,,,,,,,,,,,,,,,,,,,,,,,,,,,,,,,,
,,,,,,,,,,,,,1,001,2025-01-14_13h13.12.079,IAT(Formal),2021.2.3,Win32,60.60606061,,,,,,,,,,,,,,,,e,1,0.5329,,,,,,我们,e,,,1,16,96,52,1,,,,,,,,,,,,,,,,,,,,,,,,,,,,,,,,,,
,,,,,,,,,,,,,1,001,2025-01-14_13h13.12.079,IAT(Formal),2021.2.3,Win32,60.60606061,,,,,,,,,,,,,,,,i,1,1.1658,,,,,,悲观,i,,,1,17,97,34,1,,,,,,,,,,,,,,,,,,,,,,,,,,,,,,,,,,
,,,,,,,,,,,,,1,001,2025-01-14_13h13.12.079,IAT(Formal),2021.2.3,Win32,60.60606061,,,,,,,,,,,,,,,,,0,,,,,,,自己,e,,,1,18,98,63,1,,,,,,,,,,,,,,,,,,,,,,,,,,,,,,,,,,
,,,,,,,,,,,,,1,001,2025-01-14_13h13.12.079,IAT(Formal),2021.2.3,Win32,60.60606061,,,,,,,,,,,,,,,,e,1,0.5932,,,,,,我们,e,,,1,19,99,72,1,,,,,,,,,,,,,,,,,,,,,,,,,,,,,,,,,,
,,,,,,,,,,,,,1,001,2025-01-14_13h13.12.079,IAT(Formal),2021.2.3,Win32,60.60606061,,,,,,,,,,,,,,,,e,1,0.6847,,,,,,稳重,e,,,1,20,100,21,1,,,,,,,,,,,,,,,,,,,,,,,,,,,,,,,,,,
,,,,,,,,,,,,,1,001,2025-01-14_13h13.12.079,IAT(Formal),2021.2.3,Win32,60.60606061,,,,,,,,,,,,,,,,e,1,0.4806,,,,,,机智,e,,,1,21,101,19,1,,,,,,,,,,,,,,,,,,,,,,,,,,,,,,,,,,
,,,,,,,,,,,,,1,001,2025-01-14_13h13.12.079,IAT(Formal),2021.2.3,Win32,60.60606061,,,,,,,,,,,,,,,,,0,,,,,,,我的,e,,,1,22,102,51,1,,,,,,,,,,,,,,,,,,,,,,,,,,,,,,,,,,
,,,,,,,,,,,,,1,001,2025-01-14_13h13.12.079,IAT(Formal),2021.2.3,Win32,60.60606061,,,,,,,,,,,,,,,,,0,,,,,,,其他,i,,,1,23,103,69,1,,,,,,,,,,,,,,,,,,,,,,,,,,,,,,,,,,
,,,,,,,,,,,,,1,001,2025-01-14_13h13.12.079,IAT(Formal),2021.2.3,Win32,60.60606061,,,,,,,,,,,,,,,,e,1,0.7954,,,,,,朴实,e,,,1,24,104,24,1,,,,,,,,,,,,,,,,,,,,,,,,,,,,,,,,,,
,,,,,,,,,,,,,1,001,2025-01-14_13h13.12.079,IAT(Formal),2021.2.3,Win32,60.60606061,,,,,,,,,,,,,,,,e,1,0.5187,,,,,,我的,e,,,1,25,105,71,1,,,,,,,,,,,,,,,,,,,,,,,,,,,,,,,,,,
,,,,,,,,,,,,,1,001,2025-01-14_13h13.12.079,IAT(Formal),2021.2.3,Win32,60.60606061,,,,,,,,,,,,,,,,,0,,,,,,,俺,e,,,1,26,106,4,1,,,,,,,,,,,,,,,,,,,,,,,,,,,,,,,,,,
,,,,,,,,,,,,,1,001,2025-01-14_13h13.12.079,IAT(Formal),2021.2.3,Win32,60.60606061,,,,,,,,,,,,,,,,e,1,0.7085,,,,,,诚实,e,,,1,27,107,15,1,,,,,,,,,,,,,,,,,,,,,,,,,,,,,,,,,,
,,,,,,,,,,,,,1,001,2025-01-14_13h13.12.079,IAT(Formal),2021.2.3,Win32,60.60606061,,,,,,,,,,,,,,,,i,1,0.6684,,,,,,他的,i,,,1,28,108,57,1,,,,,,,,,,,,,,,,,,,,,,,,,,,,,,,,,,
,,,,,,,,,,,,,1,001,2025-01-14_13h13.12.079,IAT(Formal),2021.2.3,Win32,60.60606061,,,,,,,,,,,,,,,,i,1,0.4512,,,,,,他们,i,,,1,29,109,66,1,,,,,,,,,,,,,,,,,,,,,,,,,,,,,,,,,,
,,,,,,,,,,,,,1,001,2025-01-14_13h13.12.079,IAT(Formal),2021.2.3,Win32,60.60606061,,,,,,,,,,,,,,,,e,1,0.5806,,,,,,我,e,,,1,30,110,60,1,,,,,,,,,,,,,,,,,,,,,,,,,,,,,,,,,,
,,,,,,,,,,,,,1,001,2025-01-14_13h13.12.079,IAT(Formal),2021.2.3,Win32,60.60606061,,,,,,,,,,,,,,,,e,1,0.5692,,,,,,我们,e,,,1,31,111,2,1,,,,,,,,,,,,,,,,,,,,,,,,,,,,,,,,,,
,,,,,,,,,,,,,1,001,2025-01-14_13h13.12.079,IAT(Formal),2021.2.3,Win32,60.60606061,,,,,,,,,,,,,,,,e,1,0.5611,,,,,,细腻,e,,,1,32,112,25,1,,,,,,,,,,,,,,,,,,,,,,,,,,,,,,,,,,
,,,,,,,,,,,,,1,001,2025-01-14_13h13.12.079,IAT(Formal),2021.2.3,Win32,60.60606061,,,,,,,,,,,,,,,,i,1,0.6793,,,,,,执拗,i,,,1,33,113,40,1,,,,,,,,,,,,,,,,,,,,,,,,,,,,,,,,,,
,,,,,,,,,,,,,1,001,2025-01-14_13h13.12.079,IAT(Formal),2021.2.3,Win32,60.60606061,,,,,,,,,,,,,,,,i,1,0.5856,,,,,,猖狂,i,,,1,34,114,45,1,,,,,,,,,,,,,,,,,,,,,,,,,,,,,,,,,,
,,,,,,,,,,,,,1,001,2025-01-14_13h13.12.079,IAT(Formal),2021.2.3,Win32,60.60606061,,,,,,,,,,,,,,,,e,1,0.6143,,,,,,优秀,e,,,1,35,115,10,1,,,,,,,,,,,,,,,,,,,,,,,,,,,,,,,,,,
,,,,,,,,,,,,,1,001,2025-01-14_13h13.12.079,IAT(Formal),2021.2.3,Win32,60.60606061,,,,,,,,,,,,,,,,i,1,0.5353,,,,,,其他,i,,,1,36,116,59,1,,,,,,,,,,,,,,,,,,,,,,,,,,,,,,,,,,
,,,,,,,,,,,,,1,001,2025-01-14_13h13.12.079,IAT(Formal),2021.2.3,Win32,60.60606061,,,,,,,,,,,,,,,,e,1,0.4985,,,,,,自己,e,,,1,37,117,53,1,,,,,,,,,,,,,,,,,,,,,,,,,,,,,,,,,,
,,,,,,,,,,,,,1,001,2025-01-14_13h13.12.079,IAT(Formal),2021.2.3,Win32,60.60606061,,,,,,,,,,,,,,,,e,1,0.5496,,,,,,俺,e,,,1,38,118,64,1,,,,,,,,,,,,,,,,,,,,,,,,,,,,,,,,,,
,,,,,,,,,,,,,1,001,2025-01-14_13h13.12.079,IAT(Formal),2021.2.3,Win32,60.60606061,,,,,,,,,,,,,,,,i,1,0.7314,,,,,,散漫,i,,,1,39,119,41,1,,,,,,,,,,,,,,,,,,,,,,,,,,,,,,,,,,
,,,,,,,,,,,,,1,001,2025-01-14_13h13.12.079,IAT(Formal),2021.2.3,Win32,60.60606061,,,,,,,,,,,,,,,,e,1,0.5641,,,,,,我,e,,,1,40,120,0,1,,,,,,,,,,,,,,,,,,,,,,,,,,,,,,,,,,
,,,,,,,,,,,,,1,001,2025-01-14_13h13.12.079,IAT(Formal),2021.2.3,Win32,60.60606061,,,,,,,,,,,,,,,,i,1,0.4828,,,,,,他们,i,,,1,41,121,56,1,,,,,,,,,,,,,,,,,,,,,,,,,,,,,,,,,,
,,,,,,,,,,,,,1,001,2025-01-14_13h13.12.079,IAT(Formal),2021.2.3,Win32,60.60606061,,,,,,,,,,,,,,,,e,1,0.5925,,,,,,乐观,e,,,1,42,122,14,1,,,,,,,,,,,,,,,,,,,,,,,,,,,,,,,,,,
,,,,,,,,,,,,,1,001,2025-01-14_13h13.12.079,IAT(Formal),2021.2.3,Win32,60.60606061,,,,,,,,,,,,,,,,e,1,0.5123,,,,,,我,e,,,1,43,123,70,1,,,,,,,,,,,,,,,,,,,,,,,,,,,,,,,,,,
,,,,,,,,,,,,,1,001,2025-01-14_13h13.12.079,IAT(Formal),2021.2.3,Win32,60.60606061,,,,,,,,,,,,,,,,e,1,0.5027,,,,,,公正,e,,,1,44,124,23,1,,,,,,,,,,,,,,,,,,,,,,,,,,,,,,,,,,
,,,,,,,,,,,,,1,001,2025-01-14_13h13.12.079,IAT(Formal),2021.2.3,Win32,60.60606061,,,,,,,,,,,,,,,,i,1,0.5147,,,,,,他的,i,,,1,45,125,77,1,,,,,,,,,,,,,,,,,,,,,,,,,,,,,,,,,,
,,,,,,,,,,,,,1,001,2025-01-14_13h13.12.079,IAT(Formal),2021.2.3,Win32,60.60606061,,,,,,,,,,,,,,,,e,1,0.4654,,,,,,自己,e,,,1,46,126,3,1,,,,,,,,,,,,,,,,,,,,,,,,,,,,,,,,,,
,,,,,,,,,,,,,1,001,2025-01-14_13h13.12.079,IAT(Formal),2021.2.3,Win32,60.60606061,,,,,,,,,,,,,,,,i,1,0.4962,,,,,,暴躁,i,,,1,47,127,44,1,,,,,,,,,,,,,,,,,,,,,,,,,,,,,,,,,,
,,,,,,,,,,,,,1,001,2025-01-14_13h13.12.079,IAT(Formal),2021.2.3,Win32,60.60606061,,,,,,,,,,,,,,,,e,0,0.4132,,,,,,冒失,i,,,1,48,128,39,1,,,,,,,,,,,,,,,,,,,,,,,,,,,,,,,,,,
,,,,,,,,,,,,,1,001,2025-01-14_13h13.12.079,IAT(Formal),2021.2.3,Win32,60.60606061,,,,,,,,,,,,,,,,i,1,0.7484,,,,,,他人,i,,,1,49,129,78,1,,,,,,,,,,,,,,,,,,,,,,,,,,,,,,,,,,
,,,,,,,,,,,,,1,001,2025-01-14_13h13.12.079,IAT(Formal),2021.2.3,Win32,60.60606061,,,,,,,,,,,,,,,,i,1,0.4871,,,,,,虚伪,i,,,1,50,130,31,1,,,,,,,,,,,,,,,,,,,,,,,,,,,,,,,,,,
,,,,,,,,,,,,,1,001,2025-01-14_13h13.12.079,IAT(Formal),2021.2.3,Win32,60.60606061,,,,,,,,,,,,,,,,i,1,0.4685,,,,,,傲慢,i,,,1,51,131,37,1,,,,,,,,,,,,,,,,,,,,,,,,,,,,,,,,,,
,,,,,,,,,,,,,1,001,2025-01-14_13h13.12.079,IAT(Formal),2021.2.3,Win32,60.60606061,,,,,,,,,,,,,,,,e,0,0.6143,,,,,,自私,i,,,1,52,132,43,1,,,,,,,,,,,,,,,,,,,,,,,,,,,,,,,,,,
,,,,,,,,,,,,,1,001,2025-01-14_13h13.12.079,IAT(Formal),2021.2.3,Win32,60.60606061,,,,,,,,,,,,,,,,i,1,0.9008,,,,,,他们,i,,,1,53,133,6,1,,,,,,,,,,,,,,,,,,,,,,,,,,,,,,,,,,
,,,,,,,,,,,,,1,001,2025-01-14_13h13.12.079,IAT(Formal),2021.2.3,Win32,60.60606061,,,,,,,,,,,,,,,,i,1,0.7555,,,,,,自卑,i,,,1,54,134,36,1,,,,,,,,,,,,,,,,,,,,,,,,,,,,,,,,,,
,,,,,,,,,,,,,1,001,2025-01-14_13h13.12.079,IAT(Formal),2021.2.3,Win32,60.60606061,,,,,,,,,,,,,,,,i,1,0.682,,,,,,固执,i,,,1,55,135,47,1,,,,,,,,,,,,,,,,,,,,,,,,,,,,,,,,,,
,,,,,,,,,,,,,1,001,2025-01-14_13h13.12.079,IAT(Formal),2021.2.3,Win32,60.60606061,,,,,,,,,,,,,,,,e,1,0.9622,,,,,,热情,e,,,1,56,136,27,1,,,,,,,,,,,,,,,,,,,,,,,,,,,,,,,,,,
,,,,,,,,,,,,,1,001,2025-01-14_13h13.12.079,IAT(Formal),2021.2.3,Win32,60.60606061,,,,,,,,,,,,,,,,e,1,0.6504,,,,,,俺,e,,,1,57,137,74,1,,,,,,,,,,,,,,,,,,,,,,,,,,,,,,,,,,
,,,,,,,,,,,,,1,001,2025-01-14_13h13.12.079,IAT(Formal),2021.2.3,Win32,60.60606061,,,,,,,,,,,,,,,,e,1,0.4787,,,,,,我,e,,,1,58,138,50,1,,,,,,,,,,,,,,,,,,,,,,,,,,,,,,,,,,
,,,,,,,,,,,,,1,001,2025-01-14_13h13.12.079,IAT(Formal),2021.2.3,Win32,60.60606061,,,,,,,,,,,,,,,,i,1,0.4687,,,,,,他人,i,,,1,59,139,58,1,,,,,,,,,,,,,,,,,,,,,,,,,,,,,,,,,,
,,,,,,,,,,,,,1,001,2025-01-14_13h13.12.079,IAT(Formal),2021.2.3,Win32,60.60606061,,,,,,,,,,,,,,,,i,1,0.5544,,,,,,凶狠,i,,,1,60,140,42,1,,,,,,,,,,,,,,,,,,,,,,,,,,,,,,,,,,
,,,,,,,,,,,,,1,001,2025-01-14_13h13.12.079,IAT(Formal),2021.2.3,Win32,60.60606061,,,,,,,,,,,,,,,,i,1,0.5451,,,,,,他的,i,,,1,61,141,7,1,,,,,,,,,,,,,,,,,,,,,,,,,,,,,,,,,,
,,,,,,,,,,,,,1,001,2025-01-14_13h13.12.079,IAT(Formal),2021.2.3,Win32,60.60606061,,,,,,,,,,,,,,,,i,1,0.9637,,,,,,他,i,,,1,62,142,65,1,,,,,,,,,,,,,,,,,,,,,,,,,,,,,,,,,,
,,,,,,,,,,,,,1,001,2025-01-14_13h13.12.079,IAT(Formal),2021.2.3,Win32,60.60606061,,,,,,,,,,,,,,,,e,1,0.718,,,,,,崇高,e,,,1,63,143,11,1,,,,,,,,,,,,,,,,,,,,,,,,,,,,,,,,,,
,,,,,,,,,,,,,1,001,2025-01-14_13h13.12.079,IAT(Formal),2021.2.3,Win32,60.60606061,,,,,,,,,,,,,,,,e,1,0.9382,,,,,,无私,e,,,1,64,144,22,1,,,,,,,,,,,,,,,,,,,,,,,,,,,,,,,,,,
,,,,,,,,,,,,,1,001,2025-01-14_13h13.12.079,IAT(Formal),2021.2.3,Win32,60.60606061,,,,,,,,,,,,,,,,i,1,0.637,,,,,,他,i,,,1,65,145,75,1,,,,,,,,,,,,,,,,,,,,,,,,,,,,,,,,,,
,,,,,,,,,,,,,1,001,2025-01-14_13h13.12.079,IAT(Formal),2021.2.3,Win32,60.60606061,,,,,,,,,,,,,,,,i,1,0.5756,,,,,,他们,i,,,1,66,146,76,1,,,,,,,,,,,,,,,,,,,,,,,,,,,,,,,,,,
,,,,,,,,,,,,,1,001,2025-01-14_13h13.12.079,IAT(Formal),2021.2.3,Win32,60.60606061,,,,,,,,,,,,,,,,e,1,0.5096,,,,,,聪明,e,,,1,67,147,12,1,,,,,,,,,,,,,,,,,,,,,,,,,,,,,,,,,,
,,,,,,,,,,,,,1,001,2025-01-14_13h13.12.079,IAT(Formal),2021.2.3,Win32,60.60606061,,,,,,,,,,,,,,,,e,1,0.5686,,,,,,认真,e,,,1,68,148,20,1,,,,,,,,,,,,,,,,,,,,,,,,,,,,,,,,,,
,,,,,,,,,,,,,1,001,2025-01-14_13h13.12.079,IAT(Formal),2021.2.3,Win32,60.60606061,,,,,,,,,,,,,,,,e,1,0.7028,,,,,,诚恳,e,,,1,69,149,29,1,,,,,,,,,,,,,,,,,,,,,,,,,,,,,,,,,,
,,,,,,,,,,,,,1,001,2025-01-14_13h13.12.079,IAT(Formal),2021.2.3,Win32,60.60606061,,,,,,,,,,,,,,,,i,1,0.543,,,,,,他,i,,,1,70,150,5,1,,,,,,,,,,,,,,,,,,,,,,,,,,,,,,,,,,
,,,,,,,,,,,,,1,001,2025-01-14_13h13.12.079,IAT(Formal),2021.2.3,Win32,60.60606061,,,,,,,,,,,,,,,,i,0,0.3778,,,,,,自己,e,,,1,71,151,73,1,,,,,,,,,,,,,,,,,,,,,,,,,,,,,,,,,,
,,,,,,,,,,,,,1,001,2025-01-14_13h13.12.079,IAT(Formal),2021.2.3,Win32,60.60606061,,,,,,,,,,,,,,,,e,1,0.571,,,,,,我们,e,,,1,72,152,62,1,,,,,,,,,,,,,,,,,,,,,,,,,,,,,,,,,,
,,,,,,,,,,,,,1,001,2025-01-14_13h13.12.079,IAT(Formal),2021.2.3,Win32,60.60606061,,,,,,,,,,,,,,,,e,1,0.8275,,,,,,勇敢,e,,,1,73,153,17,1,,,,,,,,,,,,,,,,,,,,,,,,,,,,,,,,,,
,,,,,,,,,,,,,1,001,2025-01-14_13h13.12.079,IAT(Formal),2021.2.3,Win32,60.60606061,,,,,,,,,,,,,,,,i,1,0.7381,,,,,,野蛮,i,,,1,74,154,46,1,,,,,,,,,,,,,,,,,,,,,,,,,,,,,,,,,,
,,,,,,,,,,,,,1,001,2025-01-14_13h13.12.079,IAT(Formal),2021.2.3,Win32,60.60606061,,,,,,,,,,,,,,,,i,1,0.5836,,,,,,消极,i,,,1,75,155,35,1,,,,,,,,,,,,,,,,,,,,,,,,,,,,,,,,,,
,,,,,,,,,,,,,1,001,2025-01-14_13h13.12.079,IAT(Formal),2021.2.3,Win32,60.60606061,,,,,,,,,,,,,,,,i,1,0.5393,,,,,,他的,i,,,1,76,156,67,1,,,,,,,,,,,,,,,,,,,,,,,,,,,,,,,,,,
,,,,,,,,,,,,,1,001,2025-01-14_13h13.12.079,IAT(Formal),2021.2.3,Win32,60.60606061,,,,,,,,,,,,,,,,i,1,0.4671,,,,,,他,i,,,1,77,157,55,1,,,,,,,,,,,,,,,,,,,,,,,,,,,,,,,,,,
,,,,,,,,,,,,,1,001,2025-01-14_13h13.12.079,IAT(Formal),2021.2.3,Win32,60.60606061,,,,,,,,,,,,,,,,e,1,0.5177,,,,,,活泼,e,,,1,78,158,28,1,,,,,,,,,,,,,,,,,,,,,,,,,,,,,,,,,,
,,,,,,,,,,,,,1,001,2025-01-14_13h13.12.079,IAT(Formal),2021.2.3,Win32,60.60606061,,,,,,,,,,,,,,,,i,1,0.7701,,,,,,愚蠢,i,,,1,79,159,32,1,,,,,,,,,,,,,,,,,,,,,,,,,,,,,,,,,,
,,,,,,,,,,,我们,i,1,001,2025-01-14_13h13.12.079,IAT(Formal),2021.2.3,Win32,60.60606061,,,,,,,,,,,,,,,,,,,,,,,,,,,,,,,,,space,6.5076,i,1,1.2235,0,0,0,2,1,,,,,,,,,,,,,,,,,,,,,,,,
,,,,,,,,,,,他的,e,1,001,2025-01-14_13h13.12.079,IAT(Formal),2021.2.3,Win32,60.60606061,,,,,,,,,,,,,,,,,,,,,,,,,,,,,,,,,,,e,1,0.4725,0,1,1,7,1,,,,,,,,,,,,,,,,,,,,,,,,
,,,,,,,,,,,我,i,1,001,2025-01-14_13h13.12.079,IAT(Formal),2021.2.3,Win32,60.60606061,,,,,,,,,,,,,,,,,,,,,,,,,,,,,,,,,,,i,1,0.4348,0,2,2,0,1,,,,,,,,,,,,,,,,,,,,,,,,
,,,,,,,,,,,我的,i,1,001,2025-01-14_13h13.12.079,IAT(Formal),2021.2.3,Win32,60.60606061,,,,,,,,,,,,,,,,,,,,,,,,,,,,,,,,,,,i,1,0.4253,0,3,3,1,1,,,,,,,,,,,,,,,,,,,,,,,,
,,,,,,,,,,,他,e,1,001,2025-01-14_13h13.12.079,IAT(Formal),2021.2.3,Win32,60.60606061,,,,,,,,,,,,,,,,,,,,,,,,,,,,,,,,,,,e,1,0.5017,0,4,4,5,1,,,,,,,,,,,,,,,,,,,,,,,,
,,,,,,,,,,,他人,e,1,001,2025-01-14_13h13.12.079,IAT(Formal),2021.2.3,Win32,60.60606061,,,,,,,,,,,,,,,,,,,,,,,,,,,,,,,,,,,e,1,0.7363,0,5,5,8,1,,,,,,,,,,,,,,,,,,,,,,,,
,,,,,,,,,,,他们,e,1,001,2025-01-14_13h13.12.079,IAT(Formal),2021.2.3,Win32,60.60606061,,,,,,,,,,,,,,,,,,,,,,,,,,,,,,,,,,,e,1,0.4847,0,6,6,6,1,,,,,,,,,,,,,,,,,,,,,,,,
,,,,,,,,,,,俺,i,1,001,2025-01-14_13h13.12.079,IAT(Formal),2021.2.3,Win32,60.60606061,,,,,,,,,,,,,,,,,,,,,,,,,,,,,,,,,,,i,1,0.5491,0,7,7,4,1,,,,,,,,,,,,,,,,,,,,,,,,
,,,,,,,,,,,自己,i,1,001,2025-01-14_13h13.12.079,IAT(Formal),2021.2.3,Win32,60.60606061,,,,,,,,,,,,,,,,,,,,,,,,,,,,,,,,,,,i,1,0.5541,0,8,8,3,1,,,,,,,,,,,,,,,,,,,,,,,,
,,,,,,,,,,,其他,e,1,001,2025-01-14_13h13.12.079,IAT(Formal),2021.2.3,Win32,60.60606061,,,,,,,,,,,,,,,,,,,,,,,,,,,,,,,,,,,e,1,0.7047,0,9,9,9,1,,,,,,,,,,,,,,,,,,,,,,,,
,,,,,,,,,,,,,1,001,2025-01-14_13h13.12.079,IAT(Formal),2021.2.3,Win32,60.60606061,,,,,,,,,,,,,,,,,,,,,,,,,,,,,,,,,,,,,,,,,,,space,3.9563,i,1,0.6151,0,0,0,2,1,我们,i,,,,,,,,,,,,
,,,,,,,,,,,,,1,001,2025-01-14_13h13.12.079,IAT(Formal),2021.2.3,Win32,60.60606061,,,,,,,,,,,,,,,,,,,,,,,,,,,,,,,,,,,,,,,,,,,,,i,1,0.5734,0,1,1,62,1,我们,i,,,,,,,,,,,,
,,,,,,,,,,,,,1,001,2025-01-14_13h13.12.079,IAT(Formal),2021.2.3,Win32,60.60606061,,,,,,,,,,,,,,,,,,,,,,,,,,,,,,,,,,,,,,,,,,,,,e,1,1.0526,0,2,2,20,1,认真,e,,,,,,,,,,,,
,,,,,,,,,,,,,1,001,2025-01-14_13h13.12.079,IAT(Formal),2021.2.3,Win32,60.60606061,,,,,,,,,,,,,,,,,,,,,,,,,,,,,,,,,,,,,,,,,,,,,e,1,0.6119,0,3,3,13,1,杰出,e,,,,,,,,,,,,
,,,,,,,,,,,,,1,001,2025-01-14_13h13.12.079,IAT(Formal),2021.2.3,Win32,60.60606061,,,,,,,,,,,,,,,,,,,,,,,,,,,,,,,,,,,,,,,,,,,,,e,1,0.8034,0,4,4,14,1,乐观,e,,,,,,,,,,,,
,,,,,,,,,,,,,1,001,2025-01-14_13h13.12.079,IAT(Formal),2021.2.3,Win32,60.60606061,,,,,,,,,,,,,,,,,,,,,,,,,,,,,,,,,,,,,,,,,,,,,e,1,0.6366,0,5,5,29,1,诚恳,e,,,,,,,,,,,,
,,,,,,,,,,,,,1,001,2025-01-14_13h13.12.079,IAT(Formal),2021.2.3,Win32,60.60606061,,,,,,,,,,,,,,,,,,,,,,,,,,,,,,,,,,,,,,,,,,,,,e,1,0.8296,0,6,6,66,1,他们,e,,,,,,,,,,,,
,,,,,,,,,,,,,1,001,2025-01-14_13h13.12.079,IAT(Formal),2021.2.3,Win32,60.60606061,,,,,,,,,,,,,,,,,,,,,,,,,,,,,,,,,,,,,,,,,,,,,e,0,0.773,0,7,7,48,1,轻率,i,,,,,,,,,,,,
,,,,,,,,,,,,,1,001,2025-01-14_13h13.12.079,IAT(Formal),2021.2.3,Win32,60.60606061,,,,,,,,,,,,,,,,,,,,,,,,,,,,,,,,,,,,,,,,,,,,,e,1,0.6639,0,8,8,6,1,他们,e,,,,,,,,,,,,
,,,,,,,,,,,,,1,001,2025-01-14_13h13.12.079,IAT(Formal),2021.2.3,Win32,60.60606061,,,,,,,,,,,,,,,,,,,,,,,,,,,,,,,,,,,,,,,,,,,,,i,1,1.0043,0,9,9,40,1,执拗,i,,,,,,,,,,,,
,,,,,,,,,,,,,1,001,2025-01-14_13h13.12.079,IAT(Formal),2021.2.3,Win32,60.60606061,,,,,,,,,,,,,,,,,,,,,,,,,,,,,,,,,,,,,,,,,,,,,e,1,0.5175,0,10,10,58,1,他人,e,,,,,,,,,,,,
,,,,,,,,,,,,,1,001,2025-01-14_13h13.12.079,IAT(Formal),2021.2.3,Win32,60.60606061,,,,,,,,,,,,,,,,,,,,,,,,,,,,,,,,,,,,,,,,,,,,,e,1,0.5461,0,11,11,5,1,他,e,,,,,,,,,,,,
,,,,,,,,,,,,,1,001,2025-01-14_13h13.12.079,IAT(Formal),2021.2.3,Win32,60.60606061,,,,,,,,,,,,,,,,,,,,,,,,,,,,,,,,,,,,,,,,,,,,,e,1,0.5186,0,12,12,65,1,他,e,,,,,,,,,,,,
,,,,,,,,,,,,,1,001,2025-01-14_13h13.12.079,IAT(Formal),2021.2.3,Win32,60.60606061,,,,,,,,,,,,,,,,,,,,,,,,,,,,,,,,,,,,,,,,,,,,,i,1,0.6484,0,13,13,73,1,自己,i,,,,,,,,,,,,
,,,,,,,,,,,,,1,001,2025-01-14_13h13.12.079,IAT(Formal),2021.2.3,Win32,60.60606061,,,,,,,,,,,,,,,,,,,,,,,,,,,,,,,,,,,,,,,,,,,,,i,1,0.4553,0,14,14,63,1,自己,i,,,,,,,,,,,,
,,,,,,,,,,,,,1,001,2025-01-14_13h13.12.079,IAT(Formal),2021.2.3,Win32,60.60606061,,,,,,,,,,,,,,,,,,,,,,,,,,,,,,,,,,,,,,,,,,,,,i,1,0.6562,0,15,15,50,1,我,i,,,,,,,,,,,,
,,,,,,,,,,,,,1,001,2025-01-14_13h13.12.079,IAT(Formal),2021.2.3,Win32,60.60606061,,,,,,,,,,,,,,,,,,,,,,,,,,,,,,,,,,,,,,,,,,,,,i,1,0.5799,0,16,16,36,1,自卑,i,,,,,,,,,,,,
,,,,,,,,,,,,,1,001,2025-01-14_13h13.12.079,IAT(Formal),2021.2.3,Win32,60.60606061,,,,,,,,,,,,,,,,,,,,,,,,,,,,,,,,,,,,,,,,,,,,,i,1,0.687,0,17,17,64,1,俺,i,,,,,,,,,,,,
,,,,,,,,,,,,,1,001,2025-01-14_13h13.12.079,IAT(Formal),2021.2.3,Win32,60.60606061,,,,,,,,,,,,,,,,,,,,,,,,,,,,,,,,,,,,,,,,,,,,,i,0,0.8313,0,18,18,23,1,公正,e,,,,,,,,,,,,
,,,,,,,,,,,,,1,001,2025-01-14_13h13.12.079,IAT(Formal),2021.2.3,Win32,60.60606061,,,,,,,,,,,,,,,,,,,,,,,,,,,,,,,,,,,,,,,,,,,,,i,1,0.5353,0,19,19,71,1,我的,i,,,,,,,,,,,,
,,,,,,,,,,,,,1,001,2025-01-14_13h13.12.079,IAT(Formal),2021.2.3,Win32,60.60606061,,,,,,,,,,,,,,,,,,,,,,,,,,,,,,,,,,,,,,,,,,,,,e,1,0.6201,0,20,20,68,1,他人,e,,,,,,,,,,,,
,,,,,,,,,,,,,1,001,2025-01-14_13h13.12.079,IAT(Formal),2021.2.3,Win32,60.60606061,,,,,,,,,,,,,,,,,,,,,,,,,,,,,,,,,,,,,,,,,,,,,e,1,1.4196,0,21,21,26,1,冷静,e,,,,,,,,,,,,
,,,,,,,,,,,,,1,001,2025-01-14_13h13.12.079,IAT(Formal),2021.2.3,Win32,60.60606061,,,,,,,,,,,,,,,,,,,,,,,,,,,,,,,,,,,,,,,,,,,,,e,1,0.5652,0,22,22,27,1,热情,e,,,,,,,,,,,,
,,,,,,,,,,,,,1,001,2025-01-14_13h13.12.079,IAT(Formal),2021.2.3,Win32,60.60606061,,,,,,,,,,,,,,,,,,,,,,,,,,,,,,,,,,,,,,,,,,,,,i,1,0.7623,0,23,23,74,1,俺,i,,,,,,,,,,,,
,,,,,,,,,,,,,1,001,2025-01-14_13h13.12.079,IAT(Formal),2021.2.3,Win32,60.60606061,,,,,,,,,,,,,,,,,,,,,,,,,,,,,,,,,,,,,,,,,,,,,i,1,0.9965,0,24,24,32,1,愚蠢,i,,,,,,,,,,,,
,,,,,,,,,,,,,1,001,2025-01-14_13h13.12.079,IAT(Formal),2021.2.3,Win32,60.60606061,,,,,,,,,,,,,,,,,,,,,,,,,,,,,,,,,,,,,,,,,,,,,e,1,0.784,0,25,25,9,1,其他,e,,,,,,,,,,,,
,,,,,,,,,,,,,1,001,2025-01-14_13h13.12.079,IAT(Formal),2021.2.3,Win32,60.60606061,,,,,,,,,,,,,,,,,,,,,,,,,,,,,,,,,,,,,,,,,,,,,e,1,0.7409,0,26,26,56,1,他们,e,,,,,,,,,,,,
,,,,,,,,,,,,,1,001,2025-01-14_13h13.12.079,IAT(Formal),2021.2.3,Win32,60.60606061,,,,,,,,,,,,,,,,,,,,,,,,,,,,,,,,,,,,,,,,,,,,,e,1,0.5376,0,27,27,59,1,其他,e,,,,,,,,,,,,
,,,,,,,,,,,,,1,001,2025-01-14_13h13.12.079,IAT(Formal),2021.2.3,Win32,60.60606061,,,,,,,,,,,,,,,,,,,,,,,,,,,,,,,,,,,,,,,,,,,,,i,1,0.6338,0,28,28,52,1,我们,i,,,,,,,,,,,,
,,,,,,,,,,,,,1,001,2025-01-14_13h13.12.079,IAT(Formal),2021.2.3,Win32,60.60606061,,,,,,,,,,,,,,,,,,,,,,,,,,,,,,,,,,,,,,,,,,,,,e,1,0.6005,0,29,29,78,1,他人,e,,,,,,,,,,,,
,,,,,,,,,,,,,1,001,2025-01-14_13h13.12.079,IAT(Formal),2021.2.3,Win32,60.60606061,,,,,,,,,,,,,,,,,,,,,,,,,,,,,,,,,,,,,,,,,,,,,e,1,0.6741,0,30,30,28,1,活泼,e,,,,,,,,,,,,
,,,,,,,,,,,,,1,001,2025-01-14_13h13.12.079,IAT(Formal),2021.2.3,Win32,60.60606061,,,,,,,,,,,,,,,,,,,,,,,,,,,,,,,,,,,,,,,,,,,,,e,1,0.6886,0,31,31,12,1,聪明,e,,,,,,,,,,,,
,,,,,,,,,,,,,1,001,2025-01-14_13h13.12.079,IAT(Formal),2021.2.3,Win32,60.60606061,,,,,,,,,,,,,,,,,,,,,,,,,,,,,,,,,,,,,,,,,,,,,i,1,0.7797,0,32,32,47,1,固执,i,,,,,,,,,,,,
,,,,,,,,,,,,,1,001,2025-01-14_13h13.12.079,IAT(Formal),2021.2.3,Win32,60.60606061,,,,,,,,,,,,,,,,,,,,,,,,,,,,,,,,,,,,,,,,,,,,,i,1,0.5771,0,33,33,1,1,我的,i,,,,,,,,,,,,
,,,,,,,,,,,,,1,001,2025-01-14_13h13.12.079,IAT(Formal),2021.2.3,Win32,60.60606061,,,,,,,,,,,,,,,,,,,,,,,,,,,,,,,,,,,,,,,,,,,,,e,1,0.5793,0,34,34,57,1,他的,e,,,,,,,,,,,,
,,,,,,,,,,,,,1,001,2025-01-14_13h13.12.079,IAT(Formal),2021.2.3,Win32,60.60606061,,,,,,,,,,,,,,,,,,,,,,,,,,,,,,,,,,,,,,,,,,,,,i,1,0.5796,0,35,35,61,1,我的,i,,,,,,,,,,,,
,,,,,,,,,,,,,1,001,2025-01-14_13h13.12.079,IAT(Formal),2021.2.3,Win32,60.60606061,,,,,,,,,,,,,,,,,,,,,,,,,,,,,,,,,,,,,,,,,,,,,i,1,0.4797,0,36,36,53,1,自己,i,,,,,,,,,,,,
,,,,,,,,,,,,,1,001,2025-01-14_13h13.12.079,IAT(Formal),2021.2.3,Win32,60.60606061,,,,,,,,,,,,,,,,,,,,,,,,,,,,,,,,,,,,,,,,,,,,,i,0,0.8714,0,37,37,19,1,机智,e,,,,,,,,,,,,
,,,,,,,,,,,,,1,001,2025-01-14_13h13.12.079,IAT(Formal),2021.2.3,Win32,60.60606061,,,,,,,,,,,,,,,,,,,,,,,,,,,,,,,,,,,,,,,,,,,,,e,1,0.6644,0,38,38,22,1,无私,e,,,,,,,,,,,,
,,,,,,,,,,,,,1,001,2025-01-14_13h13.12.079,IAT(Formal),2021.2.3,Win32,60.60606061,,,,,,,,,,,,,,,,,,,,,,,,,,,,,,,,,,,,,,,,,,,,,i,1,0.7056,0,39,39,34,1,悲观,i,,,,,,,,,,,,
,,,,,,,,,,,,,1,001,2025-01-14_13h13.12.079,IAT(Formal),2021.2.3,Win32,60.60606061,,,,,,,,,,,,,,,,,,,,,,,,,,,,,,,,,,,,,,,,,,,,,i,1,0.9146,0,40,40,37,1,傲慢,i,,,,,,,,,,,,
,,,,,,,,,,,,,1,001,2025-01-14_13h13.12.079,IAT(Formal),2021.2.3,Win32,60.60606061,,,,,,,,,,,,,,,,,,,,,,,,,,,,,,,,,,,,,,,,,,,,,e,1,0.7276,0,41,41,10,1,优秀,e,,,,,,,,,,,,
,,,,,,,,,,,,,1,001,2025-01-14_13h13.12.079,IAT(Formal),2021.2.3,Win32,60.60606061,,,,,,,,,,,,,,,,,,,,,,,,,,,,,,,,,,,,,,,,,,,,,i,1,0.7459,0,42,42,44,1,暴躁,i,,,,,,,,,,,,
,,,,,,,,,,,,,1,001,2025-01-14_13h13.12.079,IAT(Formal),2021.2.3,Win32,60.60606061,,,,,,,,,,,,,,,,,,,,,,,,,,,,,,,,,,,,,,,,,,,,,i,0,0.5505,0,43,43,18,1,勤奋,e,,,,,,,,,,,,
,,,,,,,,,,,,,1,001,2025-01-14_13h13.12.079,IAT(Formal),2021.2.3,Win32,60.60606061,,,,,,,,,,,,,,,,,,,,,,,,,,,,,,,,,,,,,,,,,,,,,i,1,0.8946,0,44,44,38,1,鲁莽,i,,,,,,,,,,,,
,,,,,,,,,,,,,1,001,2025-01-14_13h13.12.079,IAT(Formal),2021.2.3,Win32,60.60606061,,,,,,,,,,,,,,,,,,,,,,,,,,,,,,,,,,,,,,,,,,,,,i,1,0.6282,0,45,45,51,1,我的,i,,,,,,,,,,,,
,,,,,,,,,,,,,1,001,2025-01-14_13h13.12.079,IAT(Formal),2021.2.3,Win32,60.60606061,,,,,,,,,,,,,,,,,,,,,,,,,,,,,,,,,,,,,,,,,,,,,i,1,0.5955,0,46,46,3,1,自己,i,,,,,,,,,,,,
,,,,,,,,,,,,,1,001,2025-01-14_13h13.12.079,IAT(Formal),2021.2.3,Win32,60.60606061,,,,,,,,,,,,,,,,,,,,,,,,,,,,,,,,,,,,,,,,,,,,,i,1,0.7946,0,47,47,49,1,下贱,i,,,,,,,,,,,,
,,,,,,,,,,,,,1,001,2025-01-14_13h13.12.079,IAT(Formal),2021.2.3,Win32,60.60606061,,,,,,,,,,,,,,,,,,,,,,,,,,,,,,,,,,,,,,,,,,,,,i,1,0.8828,0,48,48,31,1,虚伪,i,,,,,,,,,,,,
,,,,,,,,,,,,,1,001,2025-01-14_13h13.12.079,IAT(Formal),2021.2.3,Win32,60.60606061,,,,,,,,,,,,,,,,,,,,,,,,,,,,,,,,,,,,,,,,,,,,,i,1,0.8327,0,49,49,4,1,俺,i,,,,,,,,,,,,
,,,,,,,,,,,,,1,001,2025-01-14_13h13.12.079,IAT(Formal),2021.2.3,Win32,60.60606061,,,,,,,,,,,,,,,,,,,,,,,,,,,,,,,,,,,,,,,,,,,,,i,1,0.4624,0,50,50,70,1,我,i,,,,,,,,,,,,
,,,,,,,,,,,,,1,001,2025-01-14_13h13.12.079,IAT(Formal),2021.2.3,Win32,60.60606061,,,,,,,,,,,,,,,,,,,,,,,,,,,,,,,,,,,,,,,,,,,,,e,0,0.7669,0,51,51,33,1,刻薄,i,,,,,,,,,,,,
,,,,,,,,,,,,,1,001,2025-01-14_13h13.12.079,IAT(Formal),2021.2.3,Win32,60.60606061,,,,,,,,,,,,,,,,,,,,,,,,,,,,,,,,,,,,,,,,,,,,,e,1,0.8694,0,52,52,79,1,其他,e,,,,,,,,,,,,
,,,,,,,,,,,,,1,001,2025-01-14_13h13.12.079,IAT(Formal),2021.2.3,Win32,60.60606061,,,,,,,,,,,,,,,,,,,,,,,,,,,,,,,,,,,,,,,,,,,,,i,1,0.567,0,53,53,60,1,我,i,,,,,,,,,,,,
,,,,,,,,,,,,,1,001,2025-01-14_13h13.12.079,IAT(Formal),2021.2.3,Win32,60.60606061,,,,,,,,,,,,,,,,,,,,,,,,,,,,,,,,,,,,,,,,,,,,,i,1,0.617,0,54,54,54,1,俺,i,,,,,,,,,,,,
,,,,,,,,,,,,,1,001,2025-01-14_13h13.12.079,IAT(Formal),2021.2.3,Win32,60.60606061,,,,,,,,,,,,,,,,,,,,,,,,,,,,,,,,,,,,,,,,,,,,,i,0,0.5131,0,55,55,25,1,细腻,e,,,,,,,,,,,,
,,,,,,,,,,,,,1,001,2025-01-14_13h13.12.079,IAT(Formal),2021.2.3,Win32,60.60606061,,,,,,,,,,,,,,,,,,,,,,,,,,,,,,,,,,,,,,,,,,,,,e,1,0.7087,0,56,56,75,1,他,e,,,,,,,,,,,,
,,,,,,,,,,,,,1,001,2025-01-14_13h13.12.079,IAT(Formal),2021.2.3,Win32,60.60606061,,,,,,,,,,,,,,,,,,,,,,,,,,,,,,,,,,,,,,,,,,,,,i,1,0.862,0,57,57,39,1,冒失,i,,,,,,,,,,,,
,,,,,,,,,,,,,1,001,2025-01-14_13h13.12.079,IAT(Formal),2021.2.3,Win32,60.60606061,,,,,,,,,,,,,,,,,,,,,,,,,,,,,,,,,,,,,,,,,,,,,e,1,0.7993,0,58,58,69,1,其他,e,,,,,,,,,,,,
,,,,,,,,,,,,,1,001,2025-01-14_13h13.12.079,IAT(Formal),2021.2.3,Win32,60.60606061,,,,,,,,,,,,,,,,,,,,,,,,,,,,,,,,,,,,,,,,,,,,,i,0,0.8017,0,59,59,11,1,崇高,e,,,,,,,,,,,,
,,,,,,,,,,,,,1,001,2025-01-14_13h13.12.079,IAT(Formal),2021.2.3,Win32,60.60606061,,,,,,,,,,,,,,,,,,,,,,,,,,,,,,,,,,,,,,,,,,,,,i,1,0.961,0,60,60,43,1,自私,i,,,,,,,,,,,,
,,,,,,,,,,,,,1,001,2025-01-14_13h13.12.079,IAT(Formal),2021.2.3,Win32,60.60606061,,,,,,,,,,,,,,,,,,,,,,,,,,,,,,,,,,,,,,,,,,,,,e,1,0.7779,0,61,61,21,1,稳重,e,,,,,,,,,,,,
,,,,,,,,,,,,,1,001,2025-01-14_13h13.12.079,IAT(Formal),2021.2.3,Win32,60.60606061,,,,,,,,,,,,,,,,,,,,,,,,,,,,,,,,,,,,,,,,,,,,,i,1,0.9967,0,62,62,42,1,凶狠,i,,,,,,,,,,,,
,,,,,,,,,,,,,1,001,2025-01-14_13h13.12.079,IAT(Formal),2021.2.3,Win32,60.60606061,,,,,,,,,,,,,,,,,,,,,,,,,,,,,,,,,,,,,,,,,,,,,e,1,0.7953,0,63,63,8,1,他人,e,,,,,,,,,,,,
,,,,,,,,,,,,,1,001,2025-01-14_13h13.12.079,IAT(Formal),2021.2.3,Win32,60.60606061,,,,,,,,,,,,,,,,,,,,,,,,,,,,,,,,,,,,,,,,,,,,,e,1,0.5158,0,64,64,67,1,他的,e,,,,,,,,,,,,
,,,,,,,,,,,,,1,001,2025-01-14_13h13.12.079,IAT(Formal),2021.2.3,Win32,60.60606061,,,,,,,,,,,,,,,,,,,,,,,,,,,,,,,,,,,,,,,,,,,,,e,1,1.4473,0,65,65,16,1,正直,e,,,,,,,,,,,,
,,,,,,,,,,,,,1,001,2025-01-14_13h13.12.079,IAT(Formal),2021.2.3,Win32,60.60606061,,,,,,,,,,,,,,,,,,,,,,,,,,,,,,,,,,,,,,,,,,,,,e,1,0.6866,0,66,66,24,1,朴实,e,,,,,,,,,,,,
,,,,,,,,,,,,,1,001,2025-01-14_13h13.12.079,IAT(Formal),2021.2.3,Win32,60.60606061,,,,,,,,,,,,,,,,,,,,,,,,,,,,,,,,,,,,,,,,,,,,,i,1,0.804,0,67,67,46,1,野蛮,i,,,,,,,,,,,,
,,,,,,,,,,,,,1,001,2025-01-14_13h13.12.079,IAT(Formal),2021.2.3,Win32,60.60606061,,,,,,,,,,,,,,,,,,,,,,,,,,,,,,,,,,,,,,,,,,,,,i,1,1.0276,0,68,68,45,1,猖狂,i,,,,,,,,,,,,
,,,,,,,,,,,,,1,001,2025-01-14_13h13.12.079,IAT(Formal),2021.2.3,Win32,60.60606061,,,,,,,,,,,,,,,,,,,,,,,,,,,,,,,,,,,,,,,,,,,,,,0,,0,69,69,15,1,诚实,e,,,,,,,,,,,,
,,,,,,,,,,,,,1,001,2025-01-14_13h13.12.079,IAT(Formal),2021.2.3,Win32,60.60606061,,,,,,,,,,,,,,,,,,,,,,,,,,,,,,,,,,,,,,,,,,,,,i,1,0.6664,0,70,70,0,1,我,i,,,,,,,,,,,,
,,,,,,,,,,,,,1,001,2025-01-14_13h13.12.079,IAT(Formal),2021.2.3,Win32,60.60606061,,,,,,,,,,,,,,,,,,,,,,,,,,,,,,,,,,,,,,,,,,,,,e,0,0.6511,0,71,71,30,1,卑鄙,i,,,,,,,,,,,,
,,,,,,,,,,,,,1,001,2025-01-14_13h13.12.079,IAT(Formal),2021.2.3,Win32,60.60606061,,,,,,,,,,,,,,,,,,,,,,,,,,,,,,,,,,,,,,,,,,,,,e,1,0.5996,0,72,72,17,1,勇敢,e,,,,,,,,,,,,
,,,,,,,,,,,,,1,001,2025-01-14_13h13.12.079,IAT(Formal),2021.2.3,Win32,60.60606061,,,,,,,,,,,,,,,,,,,,,,,,,,,,,,,,,,,,,,,,,,,,,i,1,0.998,0,73,73,41,1,散漫,i,,,,,,,,,,,,
,,,,,,,,,,,,,1,001,2025-01-14_13h13.12.079,IAT(Formal),2021.2.3,Win32,60.60606061,,,,,,,,,,,,,,,,,,,,,,,,,,,,,,,,,,,,,,,,,,,,,e,1,0.5867,0,74,74,77,1,他的,e,,,,,,,,,,,,
,,,,,,,,,,,,,1,001,2025-01-14_13h13.12.079,IAT(Formal),2021.2.3,Win32,60.60606061,,,,,,,,,,,,,,,,,,,,,,,,,,,,,,,,,,,,,,,,,,,,,e,1,0.5629,0,75,75,55,1,他,e,,,,,,,,,,,,
,,,,,,,,,,,,,1,001,2025-01-14_13h13.12.079,IAT(Formal),2021.2.3,Win32,60.60606061,,,,,,,,,,,,,,,,,,,,,,,,,,,,,,,,,,,,,,,,,,,,,e,1,0.5136,0,76,76,7,1,他的,e,,,,,,,,,,,,
,,,,,,,,,,,,,1,001,2025-01-14_13h13.12.079,IAT(Formal),2021.2.3,Win32,60.60606061,,,,,,,,,,,,,,,,,,,,,,,,,,,,,,,,,,,,,,,,,,,,,i,1,0.7464,0,77,77,72,1,我们,i,,,,,,,,,,,,
,,,,,,,,,,,,,1,001,2025-01-14_13h13.12.079,IAT(Formal),2021.2.3,Win32,60.60606061,,,,,,,,,,,,,,,,,,,,,,,,,,,,,,,,,,,,,,,,,,,,,e,1,0.6302,0,78,78,76,1,他们,e,,,,,,,,,,,,
,,,,,,,,,,,,,1,001,2025-01-14_13h13.12.079,IAT(Formal),2021.2.3,Win32,60.60606061,,,,,,,,,,,,,,,,,,,,,,,,,,,,,,,,,,,,,,,,,,,,,e,0,0.7361,0,79,79,35,1,消极,i,,,,,,,,,,,,
,,,,,,,,,,,,,1,001,2025-01-14_13h13.12.079,IAT(Formal),2021.2.3,Win32,60.60606061,,,,,,,,,,,,,,,,,,,,,,,,,,,,,,,,,,,,,,,,,,,,,,,,,,,,,傲慢,i,space,21.7261,i,1,1.3182,0,0,0,37,1,,
,,,,,,,,,,,,,1,001,2025-01-14_13h13.12.079,IAT(Formal),2021.2.3,Win32,60.60606061,,,,,,,,,,,,,,,,,,,,,,,,,,,,,,,,,,,,,,,,,,,,,,,,,,,,,我们,i,,,i,1,0.4444,0,1,1,62,1,,
,,,,,,,,,,,,,1,001,2025-01-14_13h13.12.079,IAT(Formal),2021.2.3,Win32,60.60606061,,,,,,,,,,,,,,,,,,,,,,,,,,,,,,,,,,,,,,,,,,,,,,,,,,,,,俺,i,,,i,1,0.5848,0,2,2,4,1,,
,,,,,,,,,,,,,1,001,2025-01-14_13h13.12.079,IAT(Formal),2021.2.3,Win32,60.60606061,,,,,,,,,,,,,,,,,,,,,,,,,,,,,,,,,,,,,,,,,,,,,,,,,,,,,刻薄,i,,,e,0,0.7018,0,3,3,33,1,,
,,,,,,,,,,,,,1,001,2025-01-14_13h13.12.079,IAT(Formal),2021.2.3,Win32,60.60606061,,,,,,,,,,,,,,,,,,,,,,,,,,,,,,,,,,,,,,,,,,,,,,,,,,,,,他们,e,,,e,1,0.751,0,4,4,6,1,,
,,,,,,,,,,,,,1,001,2025-01-14_13h13.12.079,IAT(Formal),2021.2.3,Win32,60.60606061,,,,,,,,,,,,,,,,,,,,,,,,,,,,,,,,,,,,,,,,,,,,,,,,,,,,,优秀,e,,,e,1,0.5009,0,5,5,10,1,,
,,,,,,,,,,,,,1,001,2025-01-14_13h13.12.079,IAT(Formal),2021.2.3,Win32,60.60606061,,,,,,,,,,,,,,,,,,,,,,,,,,,,,,,,,,,,,,,,,,,,,,,,,,,,,他的,e,,,e,1,0.4529,0,6,6,7,1,,
,,,,,,,,,,,,,1,001,2025-01-14_13h13.12.079,IAT(Formal),2021.2.3,Win32,60.60606061,,,,,,,,,,,,,,,,,,,,,,,,,,,,,,,,,,,,,,,,,,,,,,,,,,,,,他人,e,,,e,1,0.4553,0,7,7,68,1,,
,,,,,,,,,,,,,1,001,2025-01-14_13h13.12.079,IAT(Formal),2021.2.3,Win32,60.60606061,,,,,,,,,,,,,,,,,,,,,,,,,,,,,,,,,,,,,,,,,,,,,,,,,,,,,他的,e,,,e,1,0.5058,0,8,8,57,1,,
,,,,,,,,,,,,,1,001,2025-01-14_13h13.12.079,IAT(Formal),2021.2.3,Win32,60.60606061,,,,,,,,,,,,,,,,,,,,,,,,,,,,,,,,,,,,,,,,,,,,,,,,,,,,,他,e,,,e,1,0.5048,0,9,9,55,1,,
,,,,,,,,,,,,,1,001,2025-01-14_13h13.12.079,IAT(Formal),2021.2.3,Win32,60.60606061,,,,,,,,,,,,,,,,,,,,,,,,,,,,,,,,,,,,,,,,,,,,,,,,,,,,,他们,e,,,e,1,0.4208,0,10,10,76,1,,
,,,,,,,,,,,,,1,001,2025-01-14_13h13.12.079,IAT(Formal),2021.2.3,Win32,60.60606061,,,,,,,,,,,,,,,,,,,,,,,,,,,,,,,,,,,,,,,,,,,,,,,,,,,,,活泼,e,,,i,0,0.5375,0,11,11,28,1,,
,,,,,,,,,,,,,1,001,2025-01-14_13h13.12.079,IAT(Formal),2021.2.3,Win32,60.60606061,,,,,,,,,,,,,,,,,,,,,,,,,,,,,,,,,,,,,,,,,,,,,,,,,,,,,我,i,,,i,1,0.6293,0,12,12,60,1,,
,,,,,,,,,,,,,1,001,2025-01-14_13h13.12.079,IAT(Formal),2021.2.3,Win32,60.60606061,,,,,,,,,,,,,,,,,,,,,,,,,,,,,,,,,,,,,,,,,,,,,,,,,,,,,他人,e,,,e,1,0.5364,0,13,13,8,1,,
,,,,,,,,,,,,,1,001,2025-01-14_13h13.12.079,IAT(Formal),2021.2.3,Win32,60.60606061,,,,,,,,,,,,,,,,,,,,,,,,,,,,,,,,,,,,,,,,,,,,,,,,,,,,,执拗,i,,,i,1,0.5428,0,14,14,40,1,,
,,,,,,,,,,,,,1,001,2025-01-14_13h13.12.079,IAT(Formal),2021.2.3,Win32,60.60606061,,,,,,,,,,,,,,,,,,,,,,,,,,,,,,,,,,,,,,,,,,,,,,,,,,,,,细腻,e,,,e,1,1.0545,0,15,15,25,1,,
,,,,,,,,,,,,,1,001,2025-01-14_13h13.12.079,IAT(Formal),2021.2.3,Win32,60.60606061,,,,,,,,,,,,,,,,,,,,,,,,,,,,,,,,,,,,,,,,,,,,,,,,,,,,,消极,i,,,i,1,0.6378,0,16,16,35,1,,
,,,,,,,,,,,,,1,001,2025-01-14_13h13.12.079,IAT(Formal),2021.2.3,Win32,60.60606061,,,,,,,,,,,,,,,,,,,,,,,,,,,,,,,,,,,,,,,,,,,,,,,,,,,,,我的,i,,,i,1,0.6378,0,17,17,61,1,,
,,,,,,,,,,,,,1,001,2025-01-14_13h13.12.079,IAT(Formal),2021.2.3,Win32,60.60606061,,,,,,,,,,,,,,,,,,,,,,,,,,,,,,,,,,,,,,,,,,,,,,,,,,,,,自卑,i,,,i,1,0.926,0,18,18,36,1,,
,,,,,,,,,,,,,1,001,2025-01-14_13h13.12.079,IAT(Formal),2021.2.3,Win32,60.60606061,,,,,,,,,,,,,,,,,,,,,,,,,,,,,,,,,,,,,,,,,,,,,,,,,,,,,猖狂,i,,,i,1,0.8571,0,19,19,45,1,,
,,,,,,,,,,,,,1,001,2025-01-14_13h13.12.079,IAT(Formal),2021.2.3,Win32,60.60606061,,,,,,,,,,,,,,,,,,,,,,,,,,,,,,,,,,,,,,,,,,,,,,,,,,,,,悲观,i,,,i,1,0.5849,0,20,20,34,1,,
,,,,,,,,,,,,,1,001,2025-01-14_13h13.12.079,IAT(Formal),2021.2.3,Win32,60.60606061,,,,,,,,,,,,,,,,,,,,,,,,,,,,,,,,,,,,,,,,,,,,,,,,,,,,,散漫,i,,,i,1,0.592,0,21,21,41,1,,
,,,,,,,,,,,,,1,001,2025-01-14_13h13.12.079,IAT(Formal),2021.2.3,Win32,60.60606061,,,,,,,,,,,,,,,,,,,,,,,,,,,,,,,,,,,,,,,,,,,,,,,,,,,,,我的,i,,,i,1,0.6881,0,22,22,51,1,,
,,,,,,,,,,,,,1,001,2025-01-14_13h13.12.079,IAT(Formal),2021.2.3,Win32,60.60606061,,,,,,,,,,,,,,,,,,,,,,,,,,,,,,,,,,,,,,,,,,,,,,,,,,,,,机智,e,,,i,0,0.5411,0,23,23,19,1,,
,,,,,,,,,,,,,1,001,2025-01-14_13h13.12.079,IAT(Formal),2021.2.3,Win32,60.60606061,,,,,,,,,,,,,,,,,,,,,,,,,,,,,,,,,,,,,,,,,,,,,,,,,,,,,公正,e,,,e,1,0.7528,0,24,24,23,1,,
,,,,,,,,,,,,,1,001,2025-01-14_13h13.12.079,IAT(Formal),2021.2.3,Win32,60.60606061,,,,,,,,,,,,,,,,,,,,,,,,,,,,,,,,,,,,,,,,,,,,,,,,,,,,,他们,e,,,e,1,0.6202,0,25,25,66,1,,
,,,,,,,,,,,,,1,001,2025-01-14_13h13.12.079,IAT(Formal),2021.2.3,Win32,60.60606061,,,,,,,,,,,,,,,,,,,,,,,,,,,,,,,,,,,,,,,,,,,,,,,,,,,,,其他,e,,,e,1,0.5539,0,26,26,79,1,,
,,,,,,,,,,,,,1,001,2025-01-14_13h13.12.079,IAT(Formal),2021.2.3,Win32,60.60606061,,,,,,,,,,,,,,,,,,,,,,,,,,,,,,,,,,,,,,,,,,,,,,,,,,,,,我们,i,,,i,1,0.4504,0,27,27,52,1,,
,,,,,,,,,,,,,1,001,2025-01-14_13h13.12.079,IAT(Formal),2021.2.3,Win32,60.60606061,,,,,,,,,,,,,,,,,,,,,,,,,,,,,,,,,,,,,,,,,,,,,,,,,,,,,我的,i,,,i,1,0.4181,0,28,28,71,1,,
,,,,,,,,,,,,,1,001,2025-01-14_13h13.12.079,IAT(Formal),2021.2.3,Win32,60.60606061,,,,,,,,,,,,,,,,,,,,,,,,,,,,,,,,,,,,,,,,,,,,,,,,,,,,,自私,i,,,i,1,1.0607,0,29,29,43,1,,
,,,,,,,,,,,,,1,001,2025-01-14_13h13.12.079,IAT(Formal),2021.2.3,Win32,60.60606061,,,,,,,,,,,,,,,,,,,,,,,,,,,,,,,,,,,,,,,,,,,,,,,,,,,,,鲁莽,i,,,i,1,0.5411,0,30,30,38,1,,
,,,,,,,,,,,,,1,001,2025-01-14_13h13.12.079,IAT(Formal),2021.2.3,Win32,60.60606061,,,,,,,,,,,,,,,,,,,,,,,,,,,,,,,,,,,,,,,,,,,,,,,,,,,,,自己,i,,,i,1,0.4675,0,31,31,53,1,,
,,,,,,,,,,,,,1,001,2025-01-14_13h13.12.079,IAT(Formal),2021.2.3,Win32,60.60606061,,,,,,,,,,,,,,,,,,,,,,,,,,,,,,,,,,,,,,,,,,,,,,,,,,,,,自己,i,,,i,1,0.4164,0,32,32,63,1,,
,,,,,,,,,,,,,1,001,2025-01-14_13h13.12.079,IAT(Formal),2021.2.3,Win32,60.60606061,,,,,,,,,,,,,,,,,,,,,,,,,,,,,,,,,,,,,,,,,,,,,,,,,,,,,杰出,e,,,e,1,1.0117,0,33,33,13,1,,
,,,,,,,,,,,,,1,001,2025-01-14_13h13.12.079,IAT(Formal),2021.2.3,Win32,60.60606061,,,,,,,,,,,,,,,,,,,,,,,,,,,,,,,,,,,,,,,,,,,,,,,,,,,,,他人,e,,,e,1,0.7278,0,34,34,78,1,,
,,,,,,,,,,,,,1,001,2025-01-14_13h13.12.079,IAT(Formal),2021.2.3,Win32,60.60606061,,,,,,,,,,,,,,,,,,,,,,,,,,,,,,,,,,,,,,,,,,,,,,,,,,,,,我们,i,,,i,1,0.5749,0,35,35,2,1,,
,,,,,,,,,,,,,1,001,2025-01-14_13h13.12.079,IAT(Formal),2021.2.3,Win32,60.60606061,,,,,,,,,,,,,,,,,,,,,,,,,,,,,,,,,,,,,,,,,,,,,,,,,,,,,其他,e,,,e,1,0.6056,0,36,36,59,1,,
,,,,,,,,,,,,,1,001,2025-01-14_13h13.12.079,IAT(Formal),2021.2.3,Win32,60.60606061,,,,,,,,,,,,,,,,,,,,,,,,,,,,,,,,,,,,,,,,,,,,,,,,,,,,,朴实,e,,,e,1,0.959,0,37,37,24,1,,
,,,,,,,,,,,,,1,001,2025-01-14_13h13.12.079,IAT(Formal),2021.2.3,Win32,60.60606061,,,,,,,,,,,,,,,,,,,,,,,,,,,,,,,,,,,,,,,,,,,,,,,,,,,,,我,i,,,i,1,0.4933,0,38,38,50,1,,
,,,,,,,,,,,,,1,001,2025-01-14_13h13.12.079,IAT(Formal),2021.2.3,Win32,60.60606061,,,,,,,,,,,,,,,,,,,,,,,,,,,,,,,,,,,,,,,,,,,,,,,,,,,,,勇敢,e,,,i,0,0.8185,0,39,39,17,1,,
,,,,,,,,,,,,,1,001,2025-01-14_13h13.12.079,IAT(Formal),2021.2.3,Win32,60.60606061,,,,,,,,,,,,,,,,,,,,,,,,,,,,,,,,,,,,,,,,,,,,,,,,,,,,,他,e,,,e,1,0.6062,0,40,40,75,1,,
,,,,,,,,,,,,,1,001,2025-01-14_13h13.12.079,IAT(Formal),2021.2.3,Win32,60.60606061,,,,,,,,,,,,,,,,,,,,,,,,,,,,,,,,,,,,,,,,,,,,,,,,,,,,,他的,e,,,e,1,0.961,0,41,41,77,1,,
,,,,,,,,,,,,,1,001,2025-01-14_13h13.12.079,IAT(Formal),2021.2.3,Win32,60.60606061,,,,,,,,,,,,,,,,,,,,,,,,,,,,,,,,,,,,,,,,,,,,,,,,,,,,,正直,e,,,e,1,0.61,0,42,42,16,1,,
,,,,,,,,,,,,,1,001,2025-01-14_13h13.12.079,IAT(Formal),2021.2.3,Win32,60.60606061,,,,,,,,,,,,,,,,,,,,,,,,,,,,,,,,,,,,,,,,,,,,,,,,,,,,,凶狠,i,,,i,1,0.855,0,43,43,42,1,,
,,,,,,,,,,,,,1,001,2025-01-14_13h13.12.079,IAT(Formal),2021.2.3,Win32,60.60606061,,,,,,,,,,,,,,,,,,,,,,,,,,,,,,,,,,,,,,,,,,,,,,,,,,,,,冷静,e,,,i,0,0.7347,0,44,44,26,1,,
,,,,,,,,,,,,,1,001,2025-01-14_13h13.12.079,IAT(Formal),2021.2.3,Win32,60.60606061,,,,,,,,,,,,,,,,,,,,,,,,,,,,,,,,,,,,,,,,,,,,,,,,,,,,,稳重,e,,,e,1,0.9218,0,45,45,21,1,,
,,,,,,,,,,,,,1,001,2025-01-14_13h13.12.079,IAT(Formal),2021.2.3,Win32,60.60606061,,,,,,,,,,,,,,,,,,,,,,,,,,,,,,,,,,,,,,,,,,,,,,,,,,,,,认真,e,,,e,1,0.5839,0,46,46,20,1,,
,,,,,,,,,,,,,1,001,2025-01-14_13h13.12.079,IAT(Formal),2021.2.3,Win32,60.60606061,,,,,,,,,,,,,,,,,,,,,,,,,,,,,,,,,,,,,,,,,,,,,,,,,,,,,其他,e,,,e,1,1.0535,0,47,47,69,1,,
,,,,,,,,,,,,,1,001,2025-01-14_13h13.12.079,IAT(Formal),2021.2.3,Win32,60.60606061,,,,,,,,,,,,,,,,,,,,,,,,,,,,,,,,,,,,,,,,,,,,,,,,,,,,,轻率,i,,,e,0,0.6872,0,48,48,48,1,,
,,,,,,,,,,,,,1,001,2025-01-14_13h13.12.079,IAT(Formal),2021.2.3,Win32,60.60606061,,,,,,,,,,,,,,,,,,,,,,,,,,,,,,,,,,,,,,,,,,,,,,,,,,,,,自己,i,,,i,1,1.1734,0,49,49,73,1,,
,,,,,,,,,,,,,1,001,2025-01-14_13h13.12.079,IAT(Formal),2021.2.3,Win32,60.60606061,,,,,,,,,,,,,,,,,,,,,,,,,,,,,,,,,,,,,,,,,,,,,,,,,,,,,聪明,e,,,e,1,0.5409,0,50,50,12,1,,
,,,,,,,,,,,,,1,001,2025-01-14_13h13.12.079,IAT(Formal),2021.2.3,Win32,60.60606061,,,,,,,,,,,,,,,,,,,,,,,,,,,,,,,,,,,,,,,,,,,,,,,,,,,,,我,i,,,i,1,0.6046,0,51,51,0,1,,
,,,,,,,,,,,,,1,001,2025-01-14_13h13.12.079,IAT(Formal),2021.2.3,Win32,60.60606061,,,,,,,,,,,,,,,,,,,,,,,,,,,,,,,,,,,,,,,,,,,,,,,,,,,,,冒失,i,,,i,1,0.7873,0,52,52,39,1,,
,,,,,,,,,,,,,1,001,2025-01-14_13h13.12.079,IAT(Formal),2021.2.3,Win32,60.60606061,,,,,,,,,,,,,,,,,,,,,,,,,,,,,,,,,,,,,,,,,,,,,,,,,,,,,虚伪,i,,,e,0,0.7683,0,53,53,31,1,,
,,,,,,,,,,,,,1,001,2025-01-14_13h13.12.079,IAT(Formal),2021.2.3,Win32,60.60606061,,,,,,,,,,,,,,,,,,,,,,,,,,,,,,,,,,,,,,,,,,,,,,,,,,,,,他人,e,,,e,1,0.6035,0,54,54,58,1,,
,,,,,,,,,,,,,1,001,2025-01-14_13h13.12.079,IAT(Formal),2021.2.3,Win32,60.60606061,,,,,,,,,,,,,,,,,,,,,,,,,,,,,,,,,,,,,,,,,,,,,,,,,,,,,固执,i,,,e,0,0.4893,0,55,55,47,1,,
,,,,,,,,,,,,,1,001,2025-01-14_13h13.12.079,IAT(Formal),2021.2.3,Win32,60.60606061,,,,,,,,,,,,,,,,,,,,,,,,,,,,,,,,,,,,,,,,,,,,,,,,,,,,,他的,e,,,e,1,0.4034,0,56,56,67,1,,
,,,,,,,,,,,,,1,001,2025-01-14_13h13.12.079,IAT(Formal),2021.2.3,Win32,60.60606061,,,,,,,,,,,,,,,,,,,,,,,,,,,,,,,,,,,,,,,,,,,,,,,,,,,,,我们,i,,,i,1,0.507,0,57,57,72,1,,
,,,,,,,,,,,,,1,001,2025-01-14_13h13.12.079,IAT(Formal),2021.2.3,Win32,60.60606061,,,,,,,,,,,,,,,,,,,,,,,,,,,,,,,,,,,,,,,,,,,,,,,,,,,,,他,e,,,e,1,0.6776,0,58,58,5,1,,
,,,,,,,,,,,,,1,001,2025-01-14_13h13.12.079,IAT(Formal),2021.2.3,Win32,60.60606061,,,,,,,,,,,,,,,,,,,,,,,,,,,,,,,,,,,,,,,,,,,,,,,,,,,,,自己,i,,,i,1,0.7354,0,59,59,3,1,,
,,,,,,,,,,,,,1,001,2025-01-14_13h13.12.079,IAT(Formal),2021.2.3,Win32,60.60606061,,,,,,,,,,,,,,,,,,,,,,,,,,,,,,,,,,,,,,,,,,,,,,,,,,,,,俺,i,,,i,1,0.5084,0,60,60,54,1,,
,,,,,,,,,,,,,1,001,2025-01-14_13h13.12.079,IAT(Formal),2021.2.3,Win32,60.60606061,,,,,,,,,,,,,,,,,,,,,,,,,,,,,,,,,,,,,,,,,,,,,,,,,,,,,热情,e,,,i,0,0.9907,0,61,61,27,1,,
,,,,,,,,,,,,,1,001,2025-01-14_13h13.12.079,IAT(Formal),2021.2.3,Win32,60.60606061,,,,,,,,,,,,,,,,,,,,,,,,,,,,,,,,,,,,,,,,,,,,,,,,,,,,,诚实,e,,,e,1,0.8545,0,62,62,15,1,,
,,,,,,,,,,,,,1,001,2025-01-14_13h13.12.079,IAT(Formal),2021.2.3,Win32,60.60606061,,,,,,,,,,,,,,,,,,,,,,,,,,,,,,,,,,,,,,,,,,,,,,,,,,,,,勤奋,e,,,e,1,0.6079,0,63,63,18,1,,
,,,,,,,,,,,,,1,001,2025-01-14_13h13.12.079,IAT(Formal),2021.2.3,Win32,60.60606061,,,,,,,,,,,,,,,,,,,,,,,,,,,,,,,,,,,,,,,,,,,,,,,,,,,,,俺,i,,,i,1,0.551,0,64,64,64,1,,
,,,,,,,,,,,,,1,001,2025-01-14_13h13.12.079,IAT(Formal),2021.2.3,Win32,60.60606061,,,,,,,,,,,,,,,,,,,,,,,,,,,,,,,,,,,,,,,,,,,,,,,,,,,,,无私,e,,,e,1,1.0903,0,65,65,22,1,,
,,,,,,,,,,,,,1,001,2025-01-14_13h13.12.079,IAT(Formal),2021.2.3,Win32,60.60606061,,,,,,,,,,,,,,,,,,,,,,,,,,,,,,,,,,,,,,,,,,,,,,,,,,,,,下贱,i,,,i,1,0.6436,0,66,66,49,1,,
,,,,,,,,,,,,,1,001,2025-01-14_13h13.12.079,IAT(Formal),2021.2.3,Win32,60.60606061,,,,,,,,,,,,,,,,,,,,,,,,,,,,,,,,,,,,,,,,,,,,,,,,,,,,,其他,e,,,e,1,0.7025,0,67,67,9,1,,
,,,,,,,,,,,,,1,001,2025-01-14_13h13.12.079,IAT(Formal),2021.2.3,Win32,60.60606061,,,,,,,,,,,,,,,,,,,,,,,,,,,,,,,,,,,,,,,,,,,,,,,,,,,,,愚蠢,i,,,i,1,0.9748,0,68,68,32,1,,
,,,,,,,,,,,,,1,001,2025-01-14_13h13.12.079,IAT(Formal),2021.2.3,Win32,60.60606061,,,,,,,,,,,,,,,,,,,,,,,,,,,,,,,,,,,,,,,,,,,,,,,,,,,,,崇高,e,,,,0,,0,69,69,11,1,,
,,,,,,,,,,,,,1,001,2025-01-14_13h13.12.079,IAT(Formal),2021.2.3,Win32,60.60606061,,,,,,,,,,,,,,,,,,,,,,,,,,,,,,,,,,,,,,,,,,,,,,,,,,,,,俺,i,,,i,1,0.7597,0,70,70,74,1,,
,,,,,,,,,,,,,1,001,2025-01-14_13h13.12.079,IAT(Formal),2021.2.3,Win32,60.60606061,,,,,,,,,,,,,,,,,,,,,,,,,,,,,,,,,,,,,,,,,,,,,,,,,,,,,他们,e,,,e,1,0.6702,0,71,71,56,1,,
,,,,,,,,,,,,,1,001,2025-01-14_13h13.12.079,IAT(Formal),2021.2.3,Win32,60.60606061,,,,,,,,,,,,,,,,,,,,,,,,,,,,,,,,,,,,,,,,,,,,,,,,,,,,,暴躁,i,,,i,1,1.2549,0,72,72,44,1,,
,,,,,,,,,,,,,1,001,2025-01-14_13h13.12.079,IAT(Formal),2021.2.3,Win32,60.60606061,,,,,,,,,,,,,,,,,,,,,,,,,,,,,,,,,,,,,,,,,,,,,,,,,,,,,他,e,,,e,1,0.7502,0,73,73,65,1,,
,,,,,,,,,,,,,1,001,2025-01-14_13h13.12.079,IAT(Formal),2021.2.3,Win32,60.60606061,,,,,,,,,,,,,,,,,,,,,,,,,,,,,,,,,,,,,,,,,,,,,,,,,,,,,我的,i,,,i,1,0.5858,0,74,74,1,1,,
,,,,,,,,,,,,,1,001,2025-01-14_13h13.12.079,IAT(Formal),2021.2.3,Win32,60.60606061,,,,,,,,,,,,,,,,,,,,,,,,,,,,,,,,,,,,,,,,,,,,,,,,,,,,,卑鄙,i,,,,0,,0,75,75,30,1,,
,,,,,,,,,,,,,1,001,2025-01-14_13h13.12.079,IAT(Formal),2021.2.3,Win32,60.60606061,,,,,,,,,,,,,,,,,,,,,,,,,,,,,,,,,,,,,,,,,,,,,,,,,,,,,我,i,,,i,1,1.0022,0,76,76,70,1,,
,,,,,,,,,,,,,1,001,2025-01-14_13h13.12.079,IAT(Formal),2021.2.3,Win32,60.60606061,,,,,,,,,,,,,,,,,,,,,,,,,,,,,,,,,,,,,,,,,,,,,,,,,,,,,野蛮,i,,,i,1,0.7514,0,77,77,46,1,,
,,,,,,,,,,,,,1,001,2025-01-14_13h13.12.079,IAT(Formal),2021.2.3,Win32,60.60606061,,,,,,,,,,,,,,,,,,,,,,,,,,,,,,,,,,,,,,,,,,,,,,,,,,,,,诚恳,e,,,e,1,0.7431,0,78,78,29,1,,
,,,,,,,,,,,,,1,001,2025-01-14_13h13.12.079,IAT(Formal),2021.2.3,Win32,60.60606061,,,,,,,,,,,,,,,,,,,,,,,,,,,,,,,,,,,,,,,,,,,,,,,,,,,,,乐观,e,,,i,0,0.8552,0,79,79,14,1,,
,,,,,,,,,,,,,1,001,2025-01-14_13h13.12.079,IAT(Formal),2021.2.3,Win32,60.60606061,,,,,,,,,,,,,,,,,,,,,,,,,,,,,,,,,,,,,,,,,,,,,,,,,,,,,崇高,e,,,e,1,1.0715,1,0,80,11,1,,
,,,,,,,,,,,,,1,001,2025-01-14_13h13.12.079,IAT(Formal),2021.2.3,Win32,60.60606061,,,,,,,,,,,,,,,,,,,,,,,,,,,,,,,,,,,,,,,,,,,,,,,,,,,,,乐观,e,,,e,1,0.6123,1,1,81,14,1,,
,,,,,,,,,,,,,1,001,2025-01-14_13h13.12.079,IAT(Formal),2021.2.3,Win32,60.60606061,,,,,,,,,,,,,,,,,,,,,,,,,,,,,,,,,,,,,,,,,,,,,,,,,,,,,自己,i,,,i,1,0.7507,1,2,82,3,1,,
,,,,,,,,,,,,,1,001,2025-01-14_13h13.12.079,IAT(Formal),2021.2.3,Win32,60.60606061,,,,,,,,,,,,,,,,,,,,,,,,,,,,,,,,,,,,,,,,,,,,,,,,,,,,,鲁莽,i,,,e,0,0.5766,1,3,83,38,1,,
,,,,,,,,,,,,,1,001,2025-01-14_13h13.12.079,IAT(Formal),2021.2.3,Win32,60.60606061,,,,,,,,,,,,,,,,,,,,,,,,,,,,,,,,,,,,,,,,,,,,,,,,,,,,,我们,i,,,i,1,0.6185,1,4,84,62,1,,
,,,,,,,,,,,,,1,001,2025-01-14_13h13.12.079,IAT(Formal),2021.2.3,Win32,60.60606061,,,,,,,,,,,,,,,,,,,,,,,,,,,,,,,,,,,,,,,,,,,,,,,,,,,,,我,i,,,i,1,0.5866,1,5,85,50,1,,
,,,,,,,,,,,,,1,001,2025-01-14_13h13.12.079,IAT(Formal),2021.2.3,Win32,60.60606061,,,,,,,,,,,,,,,,,,,,,,,,,,,,,,,,,,,,,,,,,,,,,,,,,,,,,俺,i,,,i,1,0.7286,1,6,86,54,1,,
,,,,,,,,,,,,,1,001,2025-01-14_13h13.12.079,IAT(Formal),2021.2.3,Win32,60.60606061,,,,,,,,,,,,,,,,,,,,,,,,,,,,,,,,,,,,,,,,,,,,,,,,,,,,,他,e,,,e,1,0.5614,1,7,87,5,1,,
,,,,,,,,,,,,,1,001,2025-01-14_13h13.12.079,IAT(Formal),2021.2.3,Win32,60.60606061,,,,,,,,,,,,,,,,,,,,,,,,,,,,,,,,,,,,,,,,,,,,,,,,,,,,,其他,e,,,e,1,0.6221,1,8,88,9,1,,
,,,,,,,,,,,,,1,001,2025-01-14_13h13.12.079,IAT(Formal),2021.2.3,Win32,60.60606061,,,,,,,,,,,,,,,,,,,,,,,,,,,,,,,,,,,,,,,,,,,,,,,,,,,,,他的,e,,,e,1,0.4753,1,9,89,77,1,,
,,,,,,,,,,,,,1,001,2025-01-14_13h13.12.079,IAT(Formal),2021.2.3,Win32,60.60606061,,,,,,,,,,,,,,,,,,,,,,,,,,,,,,,,,,,,,,,,,,,,,,,,,,,,,朴实,e,,,e,1,0.7434,1,10,90,24,1,,
,,,,,,,,,,,,,1,001,2025-01-14_13h13.12.079,IAT(Formal),2021.2.3,Win32,60.60606061,,,,,,,,,,,,,,,,,,,,,,,,,,,,,,,,,,,,,,,,,,,,,,,,,,,,,冒失,i,,,i,1,0.7106,1,11,91,39,1,,
,,,,,,,,,,,,,1,001,2025-01-14_13h13.12.079,IAT(Formal),2021.2.3,Win32,60.60606061,,,,,,,,,,,,,,,,,,,,,,,,,,,,,,,,,,,,,,,,,,,,,,,,,,,,,虚伪,i,,,i,1,0.7892,1,12,92,31,1,,
,,,,,,,,,,,,,1,001,2025-01-14_13h13.12.079,IAT(Formal),2021.2.3,Win32,60.60606061,,,,,,,,,,,,,,,,,,,,,,,,,,,,,,,,,,,,,,,,,,,,,,,,,,,,,机智,e,,,e,1,1.0392,1,13,93,19,1,,
,,,,,,,,,,,,,1,001,2025-01-14_13h13.12.079,IAT(Formal),2021.2.3,Win32,60.60606061,,,,,,,,,,,,,,,,,,,,,,,,,,,,,,,,,,,,,,,,,,,,,,,,,,,,,他的,e,,,e,1,0.66,1,14,94,67,1,,
,,,,,,,,,,,,,1,001,2025-01-14_13h13.12.079,IAT(Formal),2021.2.3,Win32,60.60606061,,,,,,,,,,,,,,,,,,,,,,,,,,,,,,,,,,,,,,,,,,,,,,,,,,,,,我的,i,,,i,1,0.4967,1,15,95,71,1,,
,,,,,,,,,,,,,1,001,2025-01-14_13h13.12.079,IAT(Formal),2021.2.3,Win32,60.60606061,,,,,,,,,,,,,,,,,,,,,,,,,,,,,,,,,,,,,,,,,,,,,,,,,,,,,优秀,e,,,e,1,0.8441,1,16,96,10,1,,
,,,,,,,,,,,,,1,001,2025-01-14_13h13.12.079,IAT(Formal),2021.2.3,Win32,60.60606061,,,,,,,,,,,,,,,,,,,,,,,,,,,,,,,,,,,,,,,,,,,,,,,,,,,,,他,e,,,e,1,1.1166,1,17,97,65,1,,
,,,,,,,,,,,,,1,001,2025-01-14_13h13.12.079,IAT(Formal),2021.2.3,Win32,60.60606061,,,,,,,,,,,,,,,,,,,,,,,,,,,,,,,,,,,,,,,,,,,,,,,,,,,,,勇敢,e,,,e,1,0.8224,1,18,98,17,1,,
,,,,,,,,,,,,,1,001,2025-01-14_13h13.12.079,IAT(Formal),2021.2.3,Win32,60.60606061,,,,,,,,,,,,,,,,,,,,,,,,,,,,,,,,,,,,,,,,,,,,,,,,,,,,,他们,e,,,e,1,0.5434,1,19,99,76,1,,
,,,,,,,,,,,,,1,001,2025-01-14_13h13.12.079,IAT(Formal),2021.2.3,Win32,60.60606061,,,,,,,,,,,,,,,,,,,,,,,,,,,,,,,,,,,,,,,,,,,,,,,,,,,,,他,e,,,e,1,0.5519,1,20,100,55,1,,
,,,,,,,,,,,,,1,001,2025-01-14_13h13.12.079,IAT(Formal),2021.2.3,Win32,60.60606061,,,,,,,,,,,,,,,,,,,,,,,,,,,,,,,,,,,,,,,,,,,,,,,,,,,,,他人,e,,,e,1,0.5328,1,21,101,58,1,,
,,,,,,,,,,,,,1,001,2025-01-14_13h13.12.079,IAT(Formal),2021.2.3,Win32,60.60606061,,,,,,,,,,,,,,,,,,,,,,,,,,,,,,,,,,,,,,,,,,,,,,,,,,,,,勤奋,e,,,e,1,0.799,1,22,102,18,1,,
,,,,,,,,,,,,,1,001,2025-01-14_13h13.12.079,IAT(Formal),2021.2.3,Win32,60.60606061,,,,,,,,,,,,,,,,,,,,,,,,,,,,,,,,,,,,,,,,,,,,,,,,,,,,,自己,i,,,i,1,0.6406,1,23,103,63,1,,
,,,,,,,,,,,,,1,001,2025-01-14_13h13.12.079,IAT(Formal),2021.2.3,Win32,60.60606061,,,,,,,,,,,,,,,,,,,,,,,,,,,,,,,,,,,,,,,,,,,,,,,,,,,,,我们,i,,,i,1,0.7063,1,24,104,72,1,,
,,,,,,,,,,,,,1,001,2025-01-14_13h13.12.079,IAT(Formal),2021.2.3,Win32,60.60606061,,,,,,,,,,,,,,,,,,,,,,,,,,,,,,,,,,,,,,,,,,,,,,,,,,,,,自卑,i,,,i,1,0.7349,1,25,105,36,1,,
,,,,,,,,,,,,,1,001,2025-01-14_13h13.12.079,IAT(Formal),2021.2.3,Win32,60.60606061,,,,,,,,,,,,,,,,,,,,,,,,,,,,,,,,,,,,,,,,,,,,,,,,,,,,,无私,e,,,e,1,0.6714,1,26,106,22,1,,
,,,,,,,,,,,,,1,001,2025-01-14_13h13.12.079,IAT(Formal),2021.2.3,Win32,60.60606061,,,,,,,,,,,,,,,,,,,,,,,,,,,,,,,,,,,,,,,,,,,,,,,,,,,,,俺,i,,,i,1,0.6496,1,27,107,4,1,,
,,,,,,,,,,,,,1,001,2025-01-14_13h13.12.079,IAT(Formal),2021.2.3,Win32,60.60606061,,,,,,,,,,,,,,,,,,,,,,,,,,,,,,,,,,,,,,,,,,,,,,,,,,,,,其他,e,,,e,1,0.9707,1,28,108,79,1,,
,,,,,,,,,,,,,1,001,2025-01-14_13h13.12.079,IAT(Formal),2021.2.3,Win32,60.60606061,,,,,,,,,,,,,,,,,,,,,,,,,,,,,,,,,,,,,,,,,,,,,,,,,,,,,悲观,i,,,i,1,0.9248,1,29,109,34,1,,
,,,,,,,,,,,,,1,001,2025-01-14_13h13.12.079,IAT(Formal),2021.2.3,Win32,60.60606061,,,,,,,,,,,,,,,,,,,,,,,,,,,,,,,,,,,,,,,,,,,,,,,,,,,,,他,e,,,e,1,0.5937,1,30,110,75,1,,
,,,,,,,,,,,,,1,001,2025-01-14_13h13.12.079,IAT(Formal),2021.2.3,Win32,60.60606061,,,,,,,,,,,,,,,,,,,,,,,,,,,,,,,,,,,,,,,,,,,,,,,,,,,,,我,i,,,i,1,0.5715,1,31,111,60,1,,
,,,,,,,,,,,,,1,001,2025-01-14_13h13.12.079,IAT(Formal),2021.2.3,Win32,60.60606061,,,,,,,,,,,,,,,,,,,,,,,,,,,,,,,,,,,,,,,,,,,,,,,,,,,,,诚实,e,,,e,1,0.9599,1,32,112,15,1,,
,,,,,,,,,,,,,1,001,2025-01-14_13h13.12.079,IAT(Formal),2021.2.3,Win32,60.60606061,,,,,,,,,,,,,,,,,,,,,,,,,,,,,,,,,,,,,,,,,,,,,,,,,,,,,消极,i,,,i,1,0.6706,1,33,113,35,1,,
,,,,,,,,,,,,,1,001,2025-01-14_13h13.12.079,IAT(Formal),2021.2.3,Win32,60.60606061,,,,,,,,,,,,,,,,,,,,,,,,,,,,,,,,,,,,,,,,,,,,,,,,,,,,,我们,i,,,i,1,0.6384,1,34,114,2,1,,
,,,,,,,,,,,,,1,001,2025-01-14_13h13.12.079,IAT(Formal),2021.2.3,Win32,60.60606061,,,,,,,,,,,,,,,,,,,,,,,,,,,,,,,,,,,,,,,,,,,,,,,,,,,,,暴躁,i,,,i,1,0.7361,1,35,115,44,1,,
,,,,,,,,,,,,,1,001,2025-01-14_13h13.12.079,IAT(Formal),2021.2.3,Win32,60.60606061,,,,,,,,,,,,,,,,,,,,,,,,,,,,,,,,,,,,,,,,,,,,,,,,,,,,,正直,e,,,e,1,1.1205,1,36,116,16,1,,
,,,,,,,,,,,,,1,001,2025-01-14_13h13.12.079,IAT(Formal),2021.2.3,Win32,60.60606061,,,,,,,,,,,,,,,,,,,,,,,,,,,,,,,,,,,,,,,,,,,,,,,,,,,,,热情,e,,,e,1,0.4524,1,37,117,27,1,,
,,,,,,,,,,,,,1,001,2025-01-14_13h13.12.079,IAT(Formal),2021.2.3,Win32,60.60606061,,,,,,,,,,,,,,,,,,,,,,,,,,,,,,,,,,,,,,,,,,,,,,,,,,,,,自私,i,,,i,1,0.5606,1,38,118,43,1,,
,,,,,,,,,,,,,1,001,2025-01-14_13h13.12.079,IAT(Formal),2021.2.3,Win32,60.60606061,,,,,,,,,,,,,,,,,,,,,,,,,,,,,,,,,,,,,,,,,,,,,,,,,,,,,稳重,e,,,e,1,0.7678,1,39,119,21,1,,
,,,,,,,,,,,,,1,001,2025-01-14_13h13.12.079,IAT(Formal),2021.2.3,Win32,60.60606061,,,,,,,,,,,,,,,,,,,,,,,,,,,,,,,,,,,,,,,,,,,,,,,,,,,,,诚恳,e,,,e,1,0.4909,1,40,120,29,1,,
,,,,,,,,,,,,,1,001,2025-01-14_13h13.12.079,IAT(Formal),2021.2.3,Win32,60.60606061,,,,,,,,,,,,,,,,,,,,,,,,,,,,,,,,,,,,,,,,,,,,,,,,,,,,,活泼,e,,,e,1,0.5213,1,41,121,28,1,,
,,,,,,,,,,,,,1,001,2025-01-14_13h13.12.079,IAT(Formal),2021.2.3,Win32,60.60606061,,,,,,,,,,,,,,,,,,,,,,,,,,,,,,,,,,,,,,,,,,,,,,,,,,,,,杰出,e,,,e,1,0.5013,1,42,122,13,1,,
,,,,,,,,,,,,,1,001,2025-01-14_13h13.12.079,IAT(Formal),2021.2.3,Win32,60.60606061,,,,,,,,,,,,,,,,,,,,,,,,,,,,,,,,,,,,,,,,,,,,,,,,,,,,,固执,i,,,i,1,0.6205,1,43,123,47,1,,
,,,,,,,,,,,,,1,001,2025-01-14_13h13.12.079,IAT(Formal),2021.2.3,Win32,60.60606061,,,,,,,,,,,,,,,,,,,,,,,,,,,,,,,,,,,,,,,,,,,,,,,,,,,,,傲慢,i,,,i,1,0.5179,1,44,124,37,1,,
,,,,,,,,,,,,,1,001,2025-01-14_13h13.12.079,IAT(Formal),2021.2.3,Win32,60.60606061,,,,,,,,,,,,,,,,,,,,,,,,,,,,,,,,,,,,,,,,,,,,,,,,,,,,,自己,i,,,i,1,0.5771,1,45,125,73,1,,
,,,,,,,,,,,,,1,001,2025-01-14_13h13.12.079,IAT(Formal),2021.2.3,Win32,60.60606061,,,,,,,,,,,,,,,,,,,,,,,,,,,,,,,,,,,,,,,,,,,,,,,,,,,,,我的,i,,,i,1,0.4889,1,46,126,1,1,,
,,,,,,,,,,,,,1,001,2025-01-14_13h13.12.079,IAT(Formal),2021.2.3,Win32,60.60606061,,,,,,,,,,,,,,,,,,,,,,,,,,,,,,,,,,,,,,,,,,,,,,,,,,,,,执拗,i,,,i,1,0.7664,1,47,127,40,1,,
,,,,,,,,,,,,,1,001,2025-01-14_13h13.12.079,IAT(Formal),2021.2.3,Win32,60.60606061,,,,,,,,,,,,,,,,,,,,,,,,,,,,,,,,,,,,,,,,,,,,,,,,,,,,,下贱,i,,,i,1,0.4591,1,48,128,49,1,,
,,,,,,,,,,,,,1,001,2025-01-14_13h13.12.079,IAT(Formal),2021.2.3,Win32,60.60606061,,,,,,,,,,,,,,,,,,,,,,,,,,,,,,,,,,,,,,,,,,,,,,,,,,,,,他们,e,,,e,1,0.5883,1,49,129,6,1,,
,,,,,,,,,,,,,1,001,2025-01-14_13h13.12.079,IAT(Formal),2021.2.3,Win32,60.60606061,,,,,,,,,,,,,,,,,,,,,,,,,,,,,,,,,,,,,,,,,,,,,,,,,,,,,俺,i,,,i,1,0.5359,1,50,130,64,1,,
,,,,,,,,,,,,,1,001,2025-01-14_13h13.12.079,IAT(Formal),2021.2.3,Win32,60.60606061,,,,,,,,,,,,,,,,,,,,,,,,,,,,,,,,,,,,,,,,,,,,,,,,,,,,,我的,i,,,i,1,0.5015,1,51,131,61,1,,
,,,,,,,,,,,,,1,001,2025-01-14_13h13.12.079,IAT(Formal),2021.2.3,Win32,60.60606061,,,,,,,,,,,,,,,,,,,,,,,,,,,,,,,,,,,,,,,,,,,,,,,,,,,,,细腻,e,,,e,1,0.8589,1,52,132,25,1,,
,,,,,,,,,,,,,1,001,2025-01-14_13h13.12.079,IAT(Formal),2021.2.3,Win32,60.60606061,,,,,,,,,,,,,,,,,,,,,,,,,,,,,,,,,,,,,,,,,,,,,,,,,,,,,愚蠢,i,,,i,1,0.6794,1,53,133,32,1,,
,,,,,,,,,,,,,1,001,2025-01-14_13h13.12.079,IAT(Formal),2021.2.3,Win32,60.60606061,,,,,,,,,,,,,,,,,,,,,,,,,,,,,,,,,,,,,,,,,,,,,,,,,,,,,他们,e,,,e,1,0.4901,1,54,134,66,1,,
,,,,,,,,,,,,,1,001,2025-01-14_13h13.12.079,IAT(Formal),2021.2.3,Win32,60.60606061,,,,,,,,,,,,,,,,,,,,,,,,,,,,,,,,,,,,,,,,,,,,,,,,,,,,,卑鄙,i,,,i,1,0.6231,1,55,135,30,1,,
,,,,,,,,,,,,,1,001,2025-01-14_13h13.12.079,IAT(Formal),2021.2.3,Win32,60.60606061,,,,,,,,,,,,,,,,,,,,,,,,,,,,,,,,,,,,,,,,,,,,,,,,,,,,,我,i,,,i,1,0.5358,1,56,136,70,1,,
,,,,,,,,,,,,,1,001,2025-01-14_13h13.12.079,IAT(Formal),2021.2.3,Win32,60.60606061,,,,,,,,,,,,,,,,,,,,,,,,,,,,,,,,,,,,,,,,,,,,,,,,,,,,,凶狠,i,,,i,1,0.7224,1,57,137,42,1,,
,,,,,,,,,,,,,1,001,2025-01-14_13h13.12.079,IAT(Formal),2021.2.3,Win32,60.60606061,,,,,,,,,,,,,,,,,,,,,,,,,,,,,,,,,,,,,,,,,,,,,,,,,,,,,轻率,i,,,i,1,0.7007,1,58,138,48,1,,
,,,,,,,,,,,,,1,001,2025-01-14_13h13.12.079,IAT(Formal),2021.2.3,Win32,60.60606061,,,,,,,,,,,,,,,,,,,,,,,,,,,,,,,,,,,,,,,,,,,,,,,,,,,,,其他,e,,,e,1,0.7075,1,59,139,69,1,,
,,,,,,,,,,,,,1,001,2025-01-14_13h13.12.079,IAT(Formal),2021.2.3,Win32,60.60606061,,,,,,,,,,,,,,,,,,,,,,,,,,,,,,,,,,,,,,,,,,,,,,,,,,,,,刻薄,i,,,i,1,0.9219,1,60,140,33,1,,
,,,,,,,,,,,,,1,001,2025-01-14_13h13.12.079,IAT(Formal),2021.2.3,Win32,60.60606061,,,,,,,,,,,,,,,,,,,,,,,,,,,,,,,,,,,,,,,,,,,,,,,,,,,,,其他,e,,,e,1,0.5938,1,61,141,59,1,,
,,,,,,,,,,,,,1,001,2025-01-14_13h13.12.079,IAT(Formal),2021.2.3,Win32,60.60606061,,,,,,,,,,,,,,,,,,,,,,,,,,,,,,,,,,,,,,,,,,,,,,,,,,,,,他的,e,,,e,1,0.5892,1,62,142,7,1,,
,,,,,,,,,,,,,1,001,2025-01-14_13h13.12.079,IAT(Formal),2021.2.3,Win32,60.60606061,,,,,,,,,,,,,,,,,,,,,,,,,,,,,,,,,,,,,,,,,,,,,,,,,,,,,我的,i,,,i,1,0.7433,1,63,143,51,1,,
,,,,,,,,,,,,,1,001,2025-01-14_13h13.12.079,IAT(Formal),2021.2.3,Win32,60.60606061,,,,,,,,,,,,,,,,,,,,,,,,,,,,,,,,,,,,,,,,,,,,,,,,,,,,,我们,i,,,i,1,0.4712,1,64,144,52,1,,
,,,,,,,,,,,,,1,001,2025-01-14_13h13.12.079,IAT(Formal),2021.2.3,Win32,60.60606061,,,,,,,,,,,,,,,,,,,,,,,,,,,,,,,,,,,,,,,,,,,,,,,,,,,,,猖狂,i,,,i,1,0.8991,1,65,145,45,1,,
,,,,,,,,,,,,,1,001,2025-01-14_13h13.12.079,IAT(Formal),2021.2.3,Win32,60.60606061,,,,,,,,,,,,,,,,,,,,,,,,,,,,,,,,,,,,,,,,,,,,,,,,,,,,,冷静,e,,,e,1,0.6548,1,66,146,26,1,,
,,,,,,,,,,,,,1,001,2025-01-14_13h13.12.079,IAT(Formal),2021.2.3,Win32,60.60606061,,,,,,,,,,,,,,,,,,,,,,,,,,,,,,,,,,,,,,,,,,,,,,,,,,,,,聪明,e,,,e,1,0.6202,1,67,147,12,1,,
,,,,,,,,,,,,,1,001,2025-01-14_13h13.12.079,IAT(Formal),2021.2.3,Win32,60.60606061,,,,,,,,,,,,,,,,,,,,,,,,,,,,,,,,,,,,,,,,,,,,,,,,,,,,,我,i,,,i,1,0.6698,1,68,148,0,1,,
,,,,,,,,,,,,,1,001,2025-01-14_13h13.12.079,IAT(Formal),2021.2.3,Win32,60.60606061,,,,,,,,,,,,,,,,,,,,,,,,,,,,,,,,,,,,,,,,,,,,,,,,,,,,,俺,i,,,i,1,0.7684,1,69,149,74,1,,
,,,,,,,,,,,,,1,001,2025-01-14_13h13.12.079,IAT(Formal),2021.2.3,Win32,60.60606061,,,,,,,,,,,,,,,,,,,,,,,,,,,,,,,,,,,,,,,,,,,,,,,,,,,,,野蛮,i,,,e,0,0.8225,1,70,150,46,1,,
,,,,,,,,,,,,,1,001,2025-01-14_13h13.12.079,IAT(Formal),2021.2.3,Win32,60.60606061,,,,,,,,,,,,,,,,,,,,,,,,,,,,,,,,,,,,,,,,,,,,,,,,,,,,,公正,e,,,e,1,0.6069,1,71,151,23,1,,
,,,,,,,,,,,,,1,001,2025-01-14_13h13.12.079,IAT(Formal),2021.2.3,Win32,60.60606061,,,,,,,,,,,,,,,,,,,,,,,,,,,,,,,,,,,,,,,,,,,,,,,,,,,,,散漫,i,,,i,1,0.6862,1,72,152,41,1,,
,,,,,,,,,,,,,1,001,2025-01-14_13h13.12.079,IAT(Formal),2021.2.3,Win32,60.60606061,,,,,,,,,,,,,,,,,,,,,,,,,,,,,,,,,,,,,,,,,,,,,,,,,,,,,他人,e,,,e,1,0.5709,1,73,153,78,1,,
,,,,,,,,,,,,,1,001,2025-01-14_13h13.12.079,IAT(Formal),2021.2.3,Win32,60.60606061,,,,,,,,,,,,,,,,,,,,,,,,,,,,,,,,,,,,,,,,,,,,,,,,,,,,,他人,e,,,e,1,0.4417,1,74,154,8,1,,
,,,,,,,,,,,,,1,001,2025-01-14_13h13.12.079,IAT(Formal),2021.2.3,Win32,60.60606061,,,,,,,,,,,,,,,,,,,,,,,,,,,,,,,,,,,,,,,,,,,,,,,,,,,,,他人,e,,,e,1,0.454,1,75,155,68,1,,
,,,,,,,,,,,,,1,001,2025-01-14_13h13.12.079,IAT(Formal),2021.2.3,Win32,60.60606061,,,,,,,,,,,,,,,,,,,,,,,,,,,,,,,,,,,,,,,,,,,,,,,,,,,,,自己,i,,,i,1,0.5851,1,76,156,53,1,,
,,,,,,,,,,,,,1,001,2025-01-14_13h13.12.079,IAT(Formal),2021.2.3,Win32,60.60606061,,,,,,,,,,,,,,,,,,,,,,,,,,,,,,,,,,,,,,,,,,,,,,,,,,,,,他的,e,,,e,1,0.6154,1,77,157,57,1,,
,,,,,,,,,,,,,1,001,2025-01-14_13h13.12.079,IAT(Formal),2021.2.3,Win32,60.60606061,,,,,,,,,,,,,,,,,,,,,,,,,,,,,,,,,,,,,,,,,,,,,,,,,,,,,认真,e,,,e,1,0.7185,1,78,158,20,1,,
,,,,,,,,,,,,,1,001,2025-01-14_13h13.12.079,IAT(Formal),2021.2.3,Win32,60.60606061,,,,,,,,,,,,,,,,,,,,,,,,,,,,,,,,,,,,,,,,,,,,,,,,,,,,,他们,e,,,e,1,0.4732,1,79,159,56,1,,
,,,,,,,,,,,,,1,001,2025-01-14_13h13.12.079,IAT(Formal),2021.2.3,Win32,60.60606061,,,,,,,,,,,,,,,,,,,,,,,,,,,,,,,,,,,,,,,,,,,,,,,,,,,,,,,,,,,,,,,,,space,1.2071