﻿Instruction1.keys,Instruction1.rt,Instruction2.keys,Instruction2.rt,key_resp_iso.keys,key_resp_iso.corr,key_resp_iso.rt,Practice_01.thisRepN,Practice_01.thisTrialN,Practice_01.thisN,Practice_01.thisIndex,Practice_01.ran,Words,ans,participant,session,date,expName,psychopyVersion,OS,frameRate,key_resp_3.keys,key_resp_3.rt,key_resp_ipn.keys,key_resp_ipn.corr,key_resp_ipn.rt,Practice_02.thisRepN,Practice_02.thisTrialN,Practice_02.thisN,Practice_02.thisIndex,Practice_02.ran,Words_ipn,ans_ipn,key_resp_4.keys,key_resp_4.rt,key_resp_t1.keys,key_resp_t1.corr,key_resp_t1.rt,Practice_T1.thisRepN,Practice_T1.thisTrialN,Practice_T1.thisN,Practice_T1.thisIndex,Practice_T1.ran,Words_t1,ans_t1,key_resp_5.keys,key_resp_5.rt,Formal_T1.thisRepN,Formal_T1.thisTrialN,Formal_T1.thisN,Formal_T1.thisIndex,Formal_T1.ran,key_resp_6.keys,key_resp_6.rt,key_resp_iso_reverse.keys,key_resp_iso_reverse.corr,key_resp_iso_reverse.rt,Practice_iso_Reverse.thisRepN,Practice_iso_Reverse.thisTrialN,Practice_iso_Reverse.thisN,Practice_iso_Reverse.thisIndex,Practice_iso_Reverse.ran,key_resp_7.keys,key_resp_7.rt,key_resp_t2_Practice.keys,key_resp_t2_Practice.corr,Practice_t2_Reverse.thisRepN,Practice_t2_Reverse.thisTrialN,Practice_t2_Reverse.thisN,Practice_t2_Reverse.thisIndex,Practice_t2_Reverse.ran,Words_t2,ans_t2,key_resp_t2_Practice.rt,key_resp_8.keys,key_resp_8.rt,key_resp_t2.keys,key_resp_t2.corr,key_resp_t2.rt,Formal_t2_reverse.thisRepN,Formal_t2_reverse.thisTrialN,Formal_t2_reverse.thisN,Formal_t2_reverse.thisIndex,Formal_t2_reverse.ran,key_instruct.keys,key_instruct.rt
space,5.0825,space,4.2981,i,1,1.0453,0,0,0,7,1,他的,i,1,001,2025-01-14_14h09.00.075,IAT(Formal),2021.2.3,Win32,119.047619,,,,,,,,,,,,,,,,,,,,,,,,,,,,,,,,,,,,,,,,,,,,,,,,,,,,,,,,,,,,,,,,,
,,,,e,1,0.345,0,1,1,3,1,自己,e,1,001,2025-01-14_14h09.00.075,IAT(Formal),2021.2.3,Win32,119.047619,,,,,,,,,,,,,,,,,,,,,,,,,,,,,,,,,,,,,,,,,,,,,,,,,,,,,,,,,,,,,,,,,
,,,,i,1,0.3829,0,2,2,8,1,他人,i,1,001,2025-01-14_14h09.00.075,IAT(Formal),2021.2.3,Win32,119.047619,,,,,,,,,,,,,,,,,,,,,,,,,,,,,,,,,,,,,,,,,,,,,,,,,,,,,,,,,,,,,,,,,
,,,,e,1,0.3989,0,3,3,0,1,我,e,1,001,2025-01-14_14h09.00.075,IAT(Formal),2021.2.3,Win32,119.047619,,,,,,,,,,,,,,,,,,,,,,,,,,,,,,,,,,,,,,,,,,,,,,,,,,,,,,,,,,,,,,,,,
,,,,i,1,0.3545,0,4,4,6,1,他们,i,1,001,2025-01-14_14h09.00.075,IAT(Formal),2021.2.3,Win32,119.047619,,,,,,,,,,,,,,,,,,,,,,,,,,,,,,,,,,,,,,,,,,,,,,,,,,,,,,,,,,,,,,,,,
,,,,e,1,0.3757,0,5,5,2,1,我们,e,1,001,2025-01-14_14h09.00.075,IAT(Formal),2021.2.3,Win32,119.047619,,,,,,,,,,,,,,,,,,,,,,,,,,,,,,,,,,,,,,,,,,,,,,,,,,,,,,,,,,,,,,,,,
,,,,e,1,0.4994,0,6,6,4,1,俺,e,1,001,2025-01-14_14h09.00.075,IAT(Formal),2021.2.3,Win32,119.047619,,,,,,,,,,,,,,,,,,,,,,,,,,,,,,,,,,,,,,,,,,,,,,,,,,,,,,,,,,,,,,,,,
,,,,i,1,0.5572,0,7,7,5,1,他,i,1,001,2025-01-14_14h09.00.075,IAT(Formal),2021.2.3,Win32,119.047619,,,,,,,,,,,,,,,,,,,,,,,,,,,,,,,,,,,,,,,,,,,,,,,,,,,,,,,,,,,,,,,,,
,,,,e,1,0.4866,0,8,8,1,1,我的,e,1,001,2025-01-14_14h09.00.075,IAT(Formal),2021.2.3,Win32,119.047619,,,,,,,,,,,,,,,,,,,,,,,,,,,,,,,,,,,,,,,,,,,,,,,,,,,,,,,,,,,,,,,,,
,,,,i,1,0.6067,0,9,9,9,1,其他,i,1,001,2025-01-14_14h09.00.075,IAT(Formal),2021.2.3,Win32,119.047619,,,,,,,,,,,,,,,,,,,,,,,,,,,,,,,,,,,,,,,,,,,,,,,,,,,,,,,,,,,,,,,,,
,,,,,,,,,,,,,,1,001,2025-01-14_14h09.00.075,IAT(Formal),2021.2.3,Win32,119.047619,space,3.1733,i,1,0.7405,0,0,0,35,1,猖狂,i,,,,,,,,,,,,,,,,,,,,,,,,,,,,,,,,,,,,,,,,,,,,,,,,,,,,,
,,,,,,,,,,,,,,1,001,2025-01-14_14h09.00.075,IAT(Formal),2021.2.3,Win32,119.047619,,,i,1,0.4637,0,1,1,39,1,下贱,i,,,,,,,,,,,,,,,,,,,,,,,,,,,,,,,,,,,,,,,,,,,,,,,,,,,,,
,,,,,,,,,,,,,,1,001,2025-01-14_14h09.00.075,IAT(Formal),2021.2.3,Win32,119.047619,,,i,1,0.7329,0,2,2,32,1,凶狠,i,,,,,,,,,,,,,,,,,,,,,,,,,,,,,,,,,,,,,,,,,,,,,,,,,,,,,
,,,,,,,,,,,,,,1,001,2025-01-14_14h09.00.075,IAT(Formal),2021.2.3,Win32,119.047619,,,i,1,0.5928,0,3,3,26,1,自卑,i,,,,,,,,,,,,,,,,,,,,,,,,,,,,,,,,,,,,,,,,,,,,,,,,,,,,,
,,,,,,,,,,,,,,1,001,2025-01-14_14h09.00.075,IAT(Formal),2021.2.3,Win32,119.047619,,,i,1,0.631,0,4,4,37,1,固执,i,,,,,,,,,,,,,,,,,,,,,,,,,,,,,,,,,,,,,,,,,,,,,,,,,,,,,
,,,,,,,,,,,,,,1,001,2025-01-14_14h09.00.075,IAT(Formal),2021.2.3,Win32,119.047619,,,i,1,0.4818,0,5,5,22,1,愚蠢,i,,,,,,,,,,,,,,,,,,,,,,,,,,,,,,,,,,,,,,,,,,,,,,,,,,,,,
,,,,,,,,,,,,,,1,001,2025-01-14_14h09.00.075,IAT(Formal),2021.2.3,Win32,119.047619,,,i,1,0.4249,0,6,6,20,1,卑鄙,i,,,,,,,,,,,,,,,,,,,,,,,,,,,,,,,,,,,,,,,,,,,,,,,,,,,,,
,,,,,,,,,,,,,,1,001,2025-01-14_14h09.00.075,IAT(Formal),2021.2.3,Win32,119.047619,,,i,1,0.4403,0,7,7,28,1,鲁莽,i,,,,,,,,,,,,,,,,,,,,,,,,,,,,,,,,,,,,,,,,,,,,,,,,,,,,,
,,,,,,,,,,,,,,1,001,2025-01-14_14h09.00.075,IAT(Formal),2021.2.3,Win32,119.047619,,,i,1,0.4419,0,8,8,27,1,傲慢,i,,,,,,,,,,,,,,,,,,,,,,,,,,,,,,,,,,,,,,,,,,,,,,,,,,,,,
,,,,,,,,,,,,,,1,001,2025-01-14_14h09.00.075,IAT(Formal),2021.2.3,Win32,119.047619,,,i,1,0.517,0,9,9,21,1,虚伪,i,,,,,,,,,,,,,,,,,,,,,,,,,,,,,,,,,,,,,,,,,,,,,,,,,,,,,
,,,,,,,,,,,,,,1,001,2025-01-14_14h09.00.075,IAT(Formal),2021.2.3,Win32,119.047619,,,e,1,0.4566,0,10,10,5,1,诚实,e,,,,,,,,,,,,,,,,,,,,,,,,,,,,,,,,,,,,,,,,,,,,,,,,,,,,,
,,,,,,,,,,,,,,1,001,2025-01-14_14h09.00.075,IAT(Formal),2021.2.3,Win32,119.047619,,,i,1,0.5584,0,11,11,38,1,轻率,i,,,,,,,,,,,,,,,,,,,,,,,,,,,,,,,,,,,,,,,,,,,,,,,,,,,,,
,,,,,,,,,,,,,,1,001,2025-01-14_14h09.00.075,IAT(Formal),2021.2.3,Win32,119.047619,,,i,1,0.4558,0,12,12,23,1,刻薄,i,,,,,,,,,,,,,,,,,,,,,,,,,,,,,,,,,,,,,,,,,,,,,,,,,,,,,
,,,,,,,,,,,,,,1,001,2025-01-14_14h09.00.075,IAT(Formal),2021.2.3,Win32,119.047619,,,e,1,0.6943,0,13,13,9,1,机智,e,,,,,,,,,,,,,,,,,,,,,,,,,,,,,,,,,,,,,,,,,,,,,,,,,,,,,
,,,,,,,,,,,,,,1,001,2025-01-14_14h09.00.075,IAT(Formal),2021.2.3,Win32,119.047619,,,i,1,0.6945,0,14,14,36,1,野蛮,i,,,,,,,,,,,,,,,,,,,,,,,,,,,,,,,,,,,,,,,,,,,,,,,,,,,,,
,,,,,,,,,,,,,,1,001,2025-01-14_14h09.00.075,IAT(Formal),2021.2.3,Win32,119.047619,,,e,1,0.6,0,15,15,11,1,稳重,e,,,,,,,,,,,,,,,,,,,,,,,,,,,,,,,,,,,,,,,,,,,,,,,,,,,,,
,,,,,,,,,,,,,,1,001,2025-01-14_14h09.00.075,IAT(Formal),2021.2.3,Win32,119.047619,,,e,1,0.4868,0,16,16,18,1,活泼,e,,,,,,,,,,,,,,,,,,,,,,,,,,,,,,,,,,,,,,,,,,,,,,,,,,,,,
,,,,,,,,,,,,,,1,001,2025-01-14_14h09.00.075,IAT(Formal),2021.2.3,Win32,119.047619,,,i,1,0.7392,0,17,17,24,1,悲观,i,,,,,,,,,,,,,,,,,,,,,,,,,,,,,,,,,,,,,,,,,,,,,,,,,,,,,
,,,,,,,,,,,,,,1,001,2025-01-14_14h09.00.075,IAT(Formal),2021.2.3,Win32,119.047619,,,e,1,0.4706,0,18,18,2,1,聪明,e,,,,,,,,,,,,,,,,,,,,,,,,,,,,,,,,,,,,,,,,,,,,,,,,,,,,,
,,,,,,,,,,,,,,1,001,2025-01-14_14h09.00.075,IAT(Formal),2021.2.3,Win32,119.047619,,,e,1,1.0659,0,19,19,7,1,勇敢,e,,,,,,,,,,,,,,,,,,,,,,,,,,,,,,,,,,,,,,,,,,,,,,,,,,,,,
,,,,,,,,,,,,,,1,001,2025-01-14_14h09.00.075,IAT(Formal),2021.2.3,Win32,119.047619,,,e,1,0.5236,0,20,20,4,1,乐观,e,,,,,,,,,,,,,,,,,,,,,,,,,,,,,,,,,,,,,,,,,,,,,,,,,,,,,
,,,,,,,,,,,,,,1,001,2025-01-14_14h09.00.075,IAT(Formal),2021.2.3,Win32,119.047619,,,i,1,0.8034,0,21,21,31,1,散漫,i,,,,,,,,,,,,,,,,,,,,,,,,,,,,,,,,,,,,,,,,,,,,,,,,,,,,,
,,,,,,,,,,,,,,1,001,2025-01-14_14h09.00.075,IAT(Formal),2021.2.3,Win32,119.047619,,,i,1,0.5228,0,22,22,30,1,执拗,i,,,,,,,,,,,,,,,,,,,,,,,,,,,,,,,,,,,,,,,,,,,,,,,,,,,,,
,,,,,,,,,,,,,,1,001,2025-01-14_14h09.00.075,IAT(Formal),2021.2.3,Win32,119.047619,,,i,1,0.6659,0,23,23,34,1,暴躁,i,,,,,,,,,,,,,,,,,,,,,,,,,,,,,,,,,,,,,,,,,,,,,,,,,,,,,
,,,,,,,,,,,,,,1,001,2025-01-14_14h09.00.075,IAT(Formal),2021.2.3,Win32,119.047619,,,e,1,0.555,0,24,24,15,1,细腻,e,,,,,,,,,,,,,,,,,,,,,,,,,,,,,,,,,,,,,,,,,,,,,,,,,,,,,
,,,,,,,,,,,,,,1,001,2025-01-14_14h09.00.075,IAT(Formal),2021.2.3,Win32,119.047619,,,e,1,0.4043,0,25,25,6,1,正直,e,,,,,,,,,,,,,,,,,,,,,,,,,,,,,,,,,,,,,,,,,,,,,,,,,,,,,
,,,,,,,,,,,,,,1,001,2025-01-14_14h09.00.075,IAT(Formal),2021.2.3,Win32,119.047619,,,i,1,0.5893,0,26,26,29,1,冒失,i,,,,,,,,,,,,,,,,,,,,,,,,,,,,,,,,,,,,,,,,,,,,,,,,,,,,,
,,,,,,,,,,,,,,1,001,2025-01-14_14h09.00.075,IAT(Formal),2021.2.3,Win32,119.047619,,,e,1,0.9414,0,27,27,16,1,冷静,e,,,,,,,,,,,,,,,,,,,,,,,,,,,,,,,,,,,,,,,,,,,,,,,,,,,,,
,,,,,,,,,,,,,,1,001,2025-01-14_14h09.00.075,IAT(Formal),2021.2.3,Win32,119.047619,,,e,1,0.4782,0,28,28,14,1,朴实,e,,,,,,,,,,,,,,,,,,,,,,,,,,,,,,,,,,,,,,,,,,,,,,,,,,,,,
,,,,,,,,,,,,,,1,001,2025-01-14_14h09.00.075,IAT(Formal),2021.2.3,Win32,119.047619,,,e,1,0.5298,0,29,29,8,1,勤奋,e,,,,,,,,,,,,,,,,,,,,,,,,,,,,,,,,,,,,,,,,,,,,,,,,,,,,,
,,,,,,,,,,,,,,1,001,2025-01-14_14h09.00.075,IAT(Formal),2021.2.3,Win32,119.047619,,,e,1,0.6302,0,30,30,17,1,热情,e,,,,,,,,,,,,,,,,,,,,,,,,,,,,,,,,,,,,,,,,,,,,,,,,,,,,,
,,,,,,,,,,,,,,1,001,2025-01-14_14h09.00.075,IAT(Formal),2021.2.3,Win32,119.047619,,,e,1,0.4267,0,31,31,3,1,杰出,e,,,,,,,,,,,,,,,,,,,,,,,,,,,,,,,,,,,,,,,,,,,,,,,,,,,,,
,,,,,,,,,,,,,,1,001,2025-01-14_14h09.00.075,IAT(Formal),2021.2.3,Win32,119.047619,,,e,1,0.4144,0,32,32,19,1,诚恳,e,,,,,,,,,,,,,,,,,,,,,,,,,,,,,,,,,,,,,,,,,,,,,,,,,,,,,
,,,,,,,,,,,,,,1,001,2025-01-14_14h09.00.075,IAT(Formal),2021.2.3,Win32,119.047619,,,e,1,0.4003,0,33,33,10,1,认真,e,,,,,,,,,,,,,,,,,,,,,,,,,,,,,,,,,,,,,,,,,,,,,,,,,,,,,
,,,,,,,,,,,,,,1,001,2025-01-14_14h09.00.075,IAT(Formal),2021.2.3,Win32,119.047619,,,i,1,0.8816,0,34,34,25,1,消极,i,,,,,,,,,,,,,,,,,,,,,,,,,,,,,,,,,,,,,,,,,,,,,,,,,,,,,
,,,,,,,,,,,,,,1,001,2025-01-14_14h09.00.075,IAT(Formal),2021.2.3,Win32,119.047619,,,e,1,0.6799,0,35,35,12,1,无私,e,,,,,,,,,,,,,,,,,,,,,,,,,,,,,,,,,,,,,,,,,,,,,,,,,,,,,
,,,,,,,,,,,,,,1,001,2025-01-14_14h09.00.075,IAT(Formal),2021.2.3,Win32,119.047619,,,e,1,0.3898,0,36,36,13,1,公正,e,,,,,,,,,,,,,,,,,,,,,,,,,,,,,,,,,,,,,,,,,,,,,,,,,,,,,
,,,,,,,,,,,,,,1,001,2025-01-14_14h09.00.075,IAT(Formal),2021.2.3,Win32,119.047619,,,e,1,0.4236,0,37,37,1,1,崇高,e,,,,,,,,,,,,,,,,,,,,,,,,,,,,,,,,,,,,,,,,,,,,,,,,,,,,,
,,,,,,,,,,,,,,1,001,2025-01-14_14h09.00.075,IAT(Formal),2021.2.3,Win32,119.047619,,,i,1,0.9071,0,38,38,33,1,自私,i,,,,,,,,,,,,,,,,,,,,,,,,,,,,,,,,,,,,,,,,,,,,,,,,,,,,,
,,,,,,,,,,,,,,1,001,2025-01-14_14h09.00.075,IAT(Formal),2021.2.3,Win32,119.047619,,,e,1,0.397,0,39,39,0,1,优秀,e,,,,,,,,,,,,,,,,,,,,,,,,,,,,,,,,,,,,,,,,,,,,,,,,,,,,,
,,,,,,,,,,,,,,1,001,2025-01-14_14h09.00.075,IAT(Formal),2021.2.3,Win32,119.047619,,,,,,,,,,,,,space,6.506,e,1,0.5443,0,0,0,52,1,我们,e,,,,,,,,,,,,,,,,,,,,,,,,,,,,,,,,,,,,,,,,,
,,,,,,,,,,,,,,1,001,2025-01-14_14h09.00.075,IAT(Formal),2021.2.3,Win32,119.047619,,,,,,,,,,,,,,,e,1,0.4465,0,1,1,19,1,机智,e,,,,,,,,,,,,,,,,,,,,,,,,,,,,,,,,,,,,,,,,,
,,,,,,,,,,,,,,1,001,2025-01-14_14h09.00.075,IAT(Formal),2021.2.3,Win32,119.047619,,,,,,,,,,,,,,,e,1,0.6317,0,2,2,22,1,无私,e,,,,,,,,,,,,,,,,,,,,,,,,,,,,,,,,,,,,,,,,,
,,,,,,,,,,,,,,1,001,2025-01-14_14h09.00.075,IAT(Formal),2021.2.3,Win32,119.047619,,,,,,,,,,,,,,,e,1,0.4383,0,3,3,17,1,勇敢,e,,,,,,,,,,,,,,,,,,,,,,,,,,,,,,,,,,,,,,,,,
,,,,,,,,,,,,,,1,001,2025-01-14_14h09.00.075,IAT(Formal),2021.2.3,Win32,119.047619,,,,,,,,,,,,,,,i,1,0.5003,0,4,4,55,1,他,i,,,,,,,,,,,,,,,,,,,,,,,,,,,,,,,,,,,,,,,,,
,,,,,,,,,,,,,,1,001,2025-01-14_14h09.00.075,IAT(Formal),2021.2.3,Win32,119.047619,,,,,,,,,,,,,,,i,1,0.553,0,5,5,9,1,其他,i,,,,,,,,,,,,,,,,,,,,,,,,,,,,,,,,,,,,,,,,,
,,,,,,,,,,,,,,1,001,2025-01-14_14h09.00.075,IAT(Formal),2021.2.3,Win32,119.047619,,,,,,,,,,,,,,,i,1,0.4512,0,6,6,6,1,他们,i,,,,,,,,,,,,,,,,,,,,,,,,,,,,,,,,,,,,,,,,,
,,,,,,,,,,,,,,1,001,2025-01-14_14h09.00.075,IAT(Formal),2021.2.3,Win32,119.047619,,,,,,,,,,,,,,,i,1,0.4352,0,7,7,56,1,他们,i,,,,,,,,,,,,,,,,,,,,,,,,,,,,,,,,,,,,,,,,,
,,,,,,,,,,,,,,1,001,2025-01-14_14h09.00.075,IAT(Formal),2021.2.3,Win32,119.047619,,,,,,,,,,,,,,,i,1,0.393,0,8,8,75,1,他,i,,,,,,,,,,,,,,,,,,,,,,,,,,,,,,,,,,,,,,,,,
,,,,,,,,,,,,,,1,001,2025-01-14_14h09.00.075,IAT(Formal),2021.2.3,Win32,119.047619,,,,,,,,,,,,,,,e,1,0.5668,0,9,9,26,1,冷静,e,,,,,,,,,,,,,,,,,,,,,,,,,,,,,,,,,,,,,,,,,
,,,,,,,,,,,,,,1,001,2025-01-14_14h09.00.075,IAT(Formal),2021.2.3,Win32,119.047619,,,,,,,,,,,,,,,e,1,0.4665,0,10,10,54,1,俺,e,,,,,,,,,,,,,,,,,,,,,,,,,,,,,,,,,,,,,,,,,
,,,,,,,,,,,,,,1,001,2025-01-14_14h09.00.075,IAT(Formal),2021.2.3,Win32,119.047619,,,,,,,,,,,,,,,e,1,0.5838,0,11,11,51,1,我的,e,,,,,,,,,,,,,,,,,,,,,,,,,,,,,,,,,,,,,,,,,
,,,,,,,,,,,,,,1,001,2025-01-14_14h09.00.075,IAT(Formal),2021.2.3,Win32,119.047619,,,,,,,,,,,,,,,e,1,0.4002,0,12,12,73,1,自己,e,,,,,,,,,,,,,,,,,,,,,,,,,,,,,,,,,,,,,,,,,
,,,,,,,,,,,,,,1,001,2025-01-14_14h09.00.075,IAT(Formal),2021.2.3,Win32,119.047619,,,,,,,,,,,,,,,i,1,0.3889,0,13,13,8,1,他人,i,,,,,,,,,,,,,,,,,,,,,,,,,,,,,,,,,,,,,,,,,
,,,,,,,,,,,,,,1,001,2025-01-14_14h09.00.075,IAT(Formal),2021.2.3,Win32,119.047619,,,,,,,,,,,,,,,i,1,0.6438,0,14,14,34,1,悲观,i,,,,,,,,,,,,,,,,,,,,,,,,,,,,,,,,,,,,,,,,,
,,,,,,,,,,,,,,1,001,2025-01-14_14h09.00.075,IAT(Formal),2021.2.3,Win32,119.047619,,,,,,,,,,,,,,,e,1,0.55,0,15,15,13,1,杰出,e,,,,,,,,,,,,,,,,,,,,,,,,,,,,,,,,,,,,,,,,,
,,,,,,,,,,,,,,1,001,2025-01-14_14h09.00.075,IAT(Formal),2021.2.3,Win32,119.047619,,,,,,,,,,,,,,,i,1,1.073,0,16,16,41,1,散漫,i,,,,,,,,,,,,,,,,,,,,,,,,,,,,,,,,,,,,,,,,,
,,,,,,,,,,,,,,1,001,2025-01-14_14h09.00.075,IAT(Formal),2021.2.3,Win32,119.047619,,,,,,,,,,,,,,,e,1,0.4463,0,17,17,71,1,我的,e,,,,,,,,,,,,,,,,,,,,,,,,,,,,,,,,,,,,,,,,,
,,,,,,,,,,,,,,1,001,2025-01-14_14h09.00.075,IAT(Formal),2021.2.3,Win32,119.047619,,,,,,,,,,,,,,,e,1,0.9497,0,18,18,29,1,诚恳,e,,,,,,,,,,,,,,,,,,,,,,,,,,,,,,,,,,,,,,,,,
,,,,,,,,,,,,,,1,001,2025-01-14_14h09.00.075,IAT(Formal),2021.2.3,Win32,119.047619,,,,,,,,,,,,,,,e,1,0.3835,0,19,19,53,1,自己,e,,,,,,,,,,,,,,,,,,,,,,,,,,,,,,,,,,,,,,,,,
,,,,,,,,,,,,,,1,001,2025-01-14_14h09.00.075,IAT(Formal),2021.2.3,Win32,119.047619,,,,,,,,,,,,,,,e,0,0.3514,0,20,20,58,1,他人,i,,,,,,,,,,,,,,,,,,,,,,,,,,,,,,,,,,,,,,,,,
,,,,,,,,,,,,,,1,001,2025-01-14_14h09.00.075,IAT(Formal),2021.2.3,Win32,119.047619,,,,,,,,,,,,,,,e,1,0.5334,0,21,21,4,1,俺,e,,,,,,,,,,,,,,,,,,,,,,,,,,,,,,,,,,,,,,,,,
,,,,,,,,,,,,,,1,001,2025-01-14_14h09.00.075,IAT(Formal),2021.2.3,Win32,119.047619,,,,,,,,,,,,,,,i,1,0.4006,0,22,22,5,1,他,i,,,,,,,,,,,,,,,,,,,,,,,,,,,,,,,,,,,,,,,,,
,,,,,,,,,,,,,,1,001,2025-01-14_14h09.00.075,IAT(Formal),2021.2.3,Win32,119.047619,,,,,,,,,,,,,,,e,1,0.8094,0,23,23,14,1,乐观,e,,,,,,,,,,,,,,,,,,,,,,,,,,,,,,,,,,,,,,,,,
,,,,,,,,,,,,,,1,001,2025-01-14_14h09.00.075,IAT(Formal),2021.2.3,Win32,119.047619,,,,,,,,,,,,,,,e,1,0.3679,0,24,24,50,1,我,e,,,,,,,,,,,,,,,,,,,,,,,,,,,,,,,,,,,,,,,,,
,,,,,,,,,,,,,,1,001,2025-01-14_14h09.00.075,IAT(Formal),2021.2.3,Win32,119.047619,,,,,,,,,,,,,,,i,1,0.4178,0,25,25,66,1,他们,i,,,,,,,,,,,,,,,,,,,,,,,,,,,,,,,,,,,,,,,,,
,,,,,,,,,,,,,,1,001,2025-01-14_14h09.00.075,IAT(Formal),2021.2.3,Win32,119.047619,,,,,,,,,,,,,,,e,1,0.5788,0,26,26,24,1,朴实,e,,,,,,,,,,,,,,,,,,,,,,,,,,,,,,,,,,,,,,,,,
,,,,,,,,,,,,,,1,001,2025-01-14_14h09.00.075,IAT(Formal),2021.2.3,Win32,119.047619,,,,,,,,,,,,,,,e,1,0.4675,0,27,27,64,1,俺,e,,,,,,,,,,,,,,,,,,,,,,,,,,,,,,,,,,,,,,,,,
,,,,,,,,,,,,,,1,001,2025-01-14_14h09.00.075,IAT(Formal),2021.2.3,Win32,119.047619,,,,,,,,,,,,,,,i,1,0.7268,0,28,28,40,1,执拗,i,,,,,,,,,,,,,,,,,,,,,,,,,,,,,,,,,,,,,,,,,
,,,,,,,,,,,,,,1,001,2025-01-14_14h09.00.075,IAT(Formal),2021.2.3,Win32,119.047619,,,,,,,,,,,,,,,i,1,0.5343,0,29,29,47,1,固执,i,,,,,,,,,,,,,,,,,,,,,,,,,,,,,,,,,,,,,,,,,
,,,,,,,,,,,,,,1,001,2025-01-14_14h09.00.075,IAT(Formal),2021.2.3,Win32,119.047619,,,,,,,,,,,,,,,e,1,0.5152,0,30,30,11,1,崇高,e,,,,,,,,,,,,,,,,,,,,,,,,,,,,,,,,,,,,,,,,,
,,,,,,,,,,,,,,1,001,2025-01-14_14h09.00.075,IAT(Formal),2021.2.3,Win32,119.047619,,,,,,,,,,,,,,,e,1,0.3935,0,31,31,61,1,我的,e,,,,,,,,,,,,,,,,,,,,,,,,,,,,,,,,,,,,,,,,,
,,,,,,,,,,,,,,1,001,2025-01-14_14h09.00.075,IAT(Formal),2021.2.3,Win32,119.047619,,,,,,,,,,,,,,,e,1,0.5936,0,32,32,25,1,细腻,e,,,,,,,,,,,,,,,,,,,,,,,,,,,,,,,,,,,,,,,,,
,,,,,,,,,,,,,,1,001,2025-01-14_14h09.00.075,IAT(Formal),2021.2.3,Win32,119.047619,,,,,,,,,,,,,,,e,1,0.5024,0,33,33,62,1,我们,e,,,,,,,,,,,,,,,,,,,,,,,,,,,,,,,,,,,,,,,,,
,,,,,,,,,,,,,,1,001,2025-01-14_14h09.00.075,IAT(Formal),2021.2.3,Win32,119.047619,,,,,,,,,,,,,,,i,1,0.8179,0,34,34,48,1,轻率,i,,,,,,,,,,,,,,,,,,,,,,,,,,,,,,,,,,,,,,,,,
,,,,,,,,,,,,,,1,001,2025-01-14_14h09.00.075,IAT(Formal),2021.2.3,Win32,119.047619,,,,,,,,,,,,,,,i,1,0.8258,0,35,35,49,1,下贱,i,,,,,,,,,,,,,,,,,,,,,,,,,,,,,,,,,,,,,,,,,
,,,,,,,,,,,,,,1,001,2025-01-14_14h09.00.075,IAT(Formal),2021.2.3,Win32,119.047619,,,,,,,,,,,,,,,i,1,0.755,0,36,36,44,1,暴躁,i,,,,,,,,,,,,,,,,,,,,,,,,,,,,,,,,,,,,,,,,,
,,,,,,,,,,,,,,1,001,2025-01-14_14h09.00.075,IAT(Formal),2021.2.3,Win32,119.047619,,,,,,,,,,,,,,,e,1,0.4302,0,37,37,70,1,我,e,,,,,,,,,,,,,,,,,,,,,,,,,,,,,,,,,,,,,,,,,
,,,,,,,,,,,,,,1,001,2025-01-14_14h09.00.075,IAT(Formal),2021.2.3,Win32,119.047619,,,,,,,,,,,,,,,e,1,0.5007,0,38,38,63,1,自己,e,,,,,,,,,,,,,,,,,,,,,,,,,,,,,,,,,,,,,,,,,
,,,,,,,,,,,,,,1,001,2025-01-14_14h09.00.075,IAT(Formal),2021.2.3,Win32,119.047619,,,,,,,,,,,,,,,i,1,0.4858,0,39,39,77,1,他的,i,,,,,,,,,,,,,,,,,,,,,,,,,,,,,,,,,,,,,,,,,
,,,,,,,,,,,,,,1,001,2025-01-14_14h09.00.075,IAT(Formal),2021.2.3,Win32,119.047619,,,,,,,,,,,,,,,i,1,0.7584,0,40,40,31,1,虚伪,i,,,,,,,,,,,,,,,,,,,,,,,,,,,,,,,,,,,,,,,,,
,,,,,,,,,,,,,,1,001,2025-01-14_14h09.00.075,IAT(Formal),2021.2.3,Win32,119.047619,,,,,,,,,,,,,,,e,1,0.534,0,41,41,23,1,公正,e,,,,,,,,,,,,,,,,,,,,,,,,,,,,,,,,,,,,,,,,,
,,,,,,,,,,,,,,1,001,2025-01-14_14h09.00.075,IAT(Formal),2021.2.3,Win32,119.047619,,,,,,,,,,,,,,,i,1,0.4941,0,42,42,32,1,愚蠢,i,,,,,,,,,,,,,,,,,,,,,,,,,,,,,,,,,,,,,,,,,
,,,,,,,,,,,,,,1,001,2025-01-14_14h09.00.075,IAT(Formal),2021.2.3,Win32,119.047619,,,,,,,,,,,,,,,i,1,0.6267,0,43,43,46,1,野蛮,i,,,,,,,,,,,,,,,,,,,,,,,,,,,,,,,,,,,,,,,,,
,,,,,,,,,,,,,,1,001,2025-01-14_14h09.00.075,IAT(Formal),2021.2.3,Win32,119.047619,,,,,,,,,,,,,,,i,1,0.4391,0,44,44,42,1,凶狠,i,,,,,,,,,,,,,,,,,,,,,,,,,,,,,,,,,,,,,,,,,
,,,,,,,,,,,,,,1,001,2025-01-14_14h09.00.075,IAT(Formal),2021.2.3,Win32,119.047619,,,,,,,,,,,,,,,e,1,0.4254,0,45,45,1,1,我的,e,,,,,,,,,,,,,,,,,,,,,,,,,,,,,,,,,,,,,,,,,
,,,,,,,,,,,,,,1,001,2025-01-14_14h09.00.075,IAT(Formal),2021.2.3,Win32,119.047619,,,,,,,,,,,,,,,i,1,0.4868,0,46,46,37,1,傲慢,i,,,,,,,,,,,,,,,,,,,,,,,,,,,,,,,,,,,,,,,,,
,,,,,,,,,,,,,,1,001,2025-01-14_14h09.00.075,IAT(Formal),2021.2.3,Win32,119.047619,,,,,,,,,,,,,,,i,1,0.6182,0,47,47,57,1,他的,i,,,,,,,,,,,,,,,,,,,,,,,,,,,,,,,,,,,,,,,,,
,,,,,,,,,,,,,,1,001,2025-01-14_14h09.00.075,IAT(Formal),2021.2.3,Win32,119.047619,,,,,,,,,,,,,,,i,1,0.5086,0,48,48,68,1,他人,i,,,,,,,,,,,,,,,,,,,,,,,,,,,,,,,,,,,,,,,,,
,,,,,,,,,,,,,,1,001,2025-01-14_14h09.00.075,IAT(Formal),2021.2.3,Win32,119.047619,,,,,,,,,,,,,,,i,1,0.5338,0,49,49,79,1,其他,i,,,,,,,,,,,,,,,,,,,,,,,,,,,,,,,,,,,,,,,,,
,,,,,,,,,,,,,,1,001,2025-01-14_14h09.00.075,IAT(Formal),2021.2.3,Win32,119.047619,,,,,,,,,,,,,,,e,1,0.5831,0,50,50,27,1,热情,e,,,,,,,,,,,,,,,,,,,,,,,,,,,,,,,,,,,,,,,,,
,,,,,,,,,,,,,,1,001,2025-01-14_14h09.00.075,IAT(Formal),2021.2.3,Win32,119.047619,,,,,,,,,,,,,,,i,1,0.5007,0,51,51,38,1,鲁莽,i,,,,,,,,,,,,,,,,,,,,,,,,,,,,,,,,,,,,,,,,,
,,,,,,,,,,,,,,1,001,2025-01-14_14h09.00.075,IAT(Formal),2021.2.3,Win32,119.047619,,,,,,,,,,,,,,,e,1,0.617,0,52,52,18,1,勤奋,e,,,,,,,,,,,,,,,,,,,,,,,,,,,,,,,,,,,,,,,,,
,,,,,,,,,,,,,,1,001,2025-01-14_14h09.00.075,IAT(Formal),2021.2.3,Win32,119.047619,,,,,,,,,,,,,,,e,1,0.4922,0,53,53,16,1,正直,e,,,,,,,,,,,,,,,,,,,,,,,,,,,,,,,,,,,,,,,,,
,,,,,,,,,,,,,,1,001,2025-01-14_14h09.00.075,IAT(Formal),2021.2.3,Win32,119.047619,,,,,,,,,,,,,,,e,1,0.418,0,54,54,0,1,我,e,,,,,,,,,,,,,,,,,,,,,,,,,,,,,,,,,,,,,,,,,
,,,,,,,,,,,,,,1,001,2025-01-14_14h09.00.075,IAT(Formal),2021.2.3,Win32,119.047619,,,,,,,,,,,,,,,e,1,0.4754,0,55,55,20,1,认真,e,,,,,,,,,,,,,,,,,,,,,,,,,,,,,,,,,,,,,,,,,
,,,,,,,,,,,,,,1,001,2025-01-14_14h09.00.075,IAT(Formal),2021.2.3,Win32,119.047619,,,,,,,,,,,,,,,e,1,0.4582,0,56,56,60,1,我,e,,,,,,,,,,,,,,,,,,,,,,,,,,,,,,,,,,,,,,,,,
,,,,,,,,,,,,,,1,001,2025-01-14_14h09.00.075,IAT(Formal),2021.2.3,Win32,119.047619,,,,,,,,,,,,,,,i,1,0.6592,0,57,57,33,1,刻薄,i,,,,,,,,,,,,,,,,,,,,,,,,,,,,,,,,,,,,,,,,,
,,,,,,,,,,,,,,1,001,2025-01-14_14h09.00.075,IAT(Formal),2021.2.3,Win32,119.047619,,,,,,,,,,,,,,,e,1,0.4603,0,58,58,2,1,我们,e,,,,,,,,,,,,,,,,,,,,,,,,,,,,,,,,,,,,,,,,,
,,,,,,,,,,,,,,1,001,2025-01-14_14h09.00.075,IAT(Formal),2021.2.3,Win32,119.047619,,,,,,,,,,,,,,,i,1,0.4759,0,59,59,67,1,他的,i,,,,,,,,,,,,,,,,,,,,,,,,,,,,,,,,,,,,,,,,,
,,,,,,,,,,,,,,1,001,2025-01-14_14h09.00.075,IAT(Formal),2021.2.3,Win32,119.047619,,,,,,,,,,,,,,,i,1,0.5434,0,60,60,30,1,卑鄙,i,,,,,,,,,,,,,,,,,,,,,,,,,,,,,,,,,,,,,,,,,
,,,,,,,,,,,,,,1,001,2025-01-14_14h09.00.075,IAT(Formal),2021.2.3,Win32,119.047619,,,,,,,,,,,,,,,e,1,0.604,0,61,61,12,1,聪明,e,,,,,,,,,,,,,,,,,,,,,,,,,,,,,,,,,,,,,,,,,
,,,,,,,,,,,,,,1,001,2025-01-14_14h09.00.075,IAT(Formal),2021.2.3,Win32,119.047619,,,,,,,,,,,,,,,i,1,0.7856,0,62,62,65,1,他,i,,,,,,,,,,,,,,,,,,,,,,,,,,,,,,,,,,,,,,,,,
,,,,,,,,,,,,,,1,001,2025-01-14_14h09.00.075,IAT(Formal),2021.2.3,Win32,119.047619,,,,,,,,,,,,,,,i,1,0.7,0,63,63,39,1,冒失,i,,,,,,,,,,,,,,,,,,,,,,,,,,,,,,,,,,,,,,,,,
,,,,,,,,,,,,,,1,001,2025-01-14_14h09.00.075,IAT(Formal),2021.2.3,Win32,119.047619,,,,,,,,,,,,,,,i,1,0.5426,0,64,64,45,1,猖狂,i,,,,,,,,,,,,,,,,,,,,,,,,,,,,,,,,,,,,,,,,,
,,,,,,,,,,,,,,1,001,2025-01-14_14h09.00.075,IAT(Formal),2021.2.3,Win32,119.047619,,,,,,,,,,,,,,,e,1,0.4757,0,65,65,72,1,我们,e,,,,,,,,,,,,,,,,,,,,,,,,,,,,,,,,,,,,,,,,,
,,,,,,,,,,,,,,1,001,2025-01-14_14h09.00.075,IAT(Formal),2021.2.3,Win32,119.047619,,,,,,,,,,,,,,,i,1,0.5166,0,66,66,78,1,他人,i,,,,,,,,,,,,,,,,,,,,,,,,,,,,,,,,,,,,,,,,,
,,,,,,,,,,,,,,1,001,2025-01-14_14h09.00.075,IAT(Formal),2021.2.3,Win32,119.047619,,,,,,,,,,,,,,,e,1,0.5757,0,67,67,74,1,俺,e,,,,,,,,,,,,,,,,,,,,,,,,,,,,,,,,,,,,,,,,,
,,,,,,,,,,,,,,1,001,2025-01-14_14h09.00.075,IAT(Formal),2021.2.3,Win32,119.047619,,,,,,,,,,,,,,,e,1,0.5831,0,68,68,3,1,自己,e,,,,,,,,,,,,,,,,,,,,,,,,,,,,,,,,,,,,,,,,,
,,,,,,,,,,,,,,1,001,2025-01-14_14h09.00.075,IAT(Formal),2021.2.3,Win32,119.047619,,,,,,,,,,,,,,,i,1,0.5932,0,69,69,76,1,他们,i,,,,,,,,,,,,,,,,,,,,,,,,,,,,,,,,,,,,,,,,,
,,,,,,,,,,,,,,1,001,2025-01-14_14h09.00.075,IAT(Formal),2021.2.3,Win32,119.047619,,,,,,,,,,,,,,,i,1,0.5593,0,70,70,35,1,消极,i,,,,,,,,,,,,,,,,,,,,,,,,,,,,,,,,,,,,,,,,,
,,,,,,,,,,,,,,1,001,2025-01-14_14h09.00.075,IAT(Formal),2021.2.3,Win32,119.047619,,,,,,,,,,,,,,,e,1,0.634,0,71,71,28,1,活泼,e,,,,,,,,,,,,,,,,,,,,,,,,,,,,,,,,,,,,,,,,,
,,,,,,,,,,,,,,1,001,2025-01-14_14h09.00.075,IAT(Formal),2021.2.3,Win32,119.047619,,,,,,,,,,,,,,,i,1,0.8587,0,72,72,7,1,他的,i,,,,,,,,,,,,,,,,,,,,,,,,,,,,,,,,,,,,,,,,,
,,,,,,,,,,,,,,1,001,2025-01-14_14h09.00.075,IAT(Formal),2021.2.3,Win32,119.047619,,,,,,,,,,,,,,,i,1,0.728,0,73,73,69,1,其他,i,,,,,,,,,,,,,,,,,,,,,,,,,,,,,,,,,,,,,,,,,
,,,,,,,,,,,,,,1,001,2025-01-14_14h09.00.075,IAT(Formal),2021.2.3,Win32,119.047619,,,,,,,,,,,,,,,e,1,0.6007,0,74,74,10,1,优秀,e,,,,,,,,,,,,,,,,,,,,,,,,,,,,,,,,,,,,,,,,,
,,,,,,,,,,,,,,1,001,2025-01-14_14h09.00.075,IAT(Formal),2021.2.3,Win32,119.047619,,,,,,,,,,,,,,,i,1,0.5228,0,75,75,59,1,其他,i,,,,,,,,,,,,,,,,,,,,,,,,,,,,,,,,,,,,,,,,,
,,,,,,,,,,,,,,1,001,2025-01-14_14h09.00.075,IAT(Formal),2021.2.3,Win32,119.047619,,,,,,,,,,,,,,,e,1,0.5504,0,76,76,15,1,诚实,e,,,,,,,,,,,,,,,,,,,,,,,,,,,,,,,,,,,,,,,,,
,,,,,,,,,,,,,,1,001,2025-01-14_14h09.00.075,IAT(Formal),2021.2.3,Win32,119.047619,,,,,,,,,,,,,,,i,1,1.0649,0,77,77,43,1,自私,i,,,,,,,,,,,,,,,,,,,,,,,,,,,,,,,,,,,,,,,,,
,,,,,,,,,,,,,,1,001,2025-01-14_14h09.00.075,IAT(Formal),2021.2.3,Win32,119.047619,,,,,,,,,,,,,,,i,1,0.6091,0,78,78,36,1,自卑,i,,,,,,,,,,,,,,,,,,,,,,,,,,,,,,,,,,,,,,,,,
,,,,,,,,,,,,,,1,001,2025-01-14_14h09.00.075,IAT(Formal),2021.2.3,Win32,119.047619,,,,,,,,,,,,,,,e,1,0.5265,0,79,79,21,1,稳重,e,,,,,,,,,,,,,,,,,,,,,,,,,,,,,,,,,,,,,,,,,
,,,,,,,,,,,,,,1,001,2025-01-14_14h09.00.075,IAT(Formal),2021.2.3,Win32,119.047619,,,,,,,,,,,,,,,i,1,0.7471,,,,,,消极,i,space,4.3508,0,0,0,35,1,,,,,,,,,,,,,,,,,,,,,,,,,,,,,,,,,,
,,,,,,,,,,,,,,1,001,2025-01-14_14h09.00.075,IAT(Formal),2021.2.3,Win32,119.047619,,,,,,,,,,,,,,,i,1,0.5845,,,,,,凶狠,i,,,0,1,1,42,1,,,,,,,,,,,,,,,,,,,,,,,,,,,,,,,,,,
,,,,,,,,,,,,,,1,001,2025-01-14_14h09.00.075,IAT(Formal),2021.2.3,Win32,119.047619,,,,,,,,,,,,,,,i,1,0.5484,,,,,,猖狂,i,,,0,2,2,45,1,,,,,,,,,,,,,,,,,,,,,,,,,,,,,,,,,,
,,,,,,,,,,,,,,1,001,2025-01-14_14h09.00.075,IAT(Formal),2021.2.3,Win32,119.047619,,,,,,,,,,,,,,,i,1,0.369,,,,,,他们,i,,,0,3,3,66,1,,,,,,,,,,,,,,,,,,,,,,,,,,,,,,,,,,
,,,,,,,,,,,,,,1,001,2025-01-14_14h09.00.075,IAT(Formal),2021.2.3,Win32,119.047619,,,,,,,,,,,,,,,e,1,0.5179,,,,,,俺,e,,,0,4,4,4,1,,,,,,,,,,,,,,,,,,,,,,,,,,,,,,,,,,
,,,,,,,,,,,,,,1,001,2025-01-14_14h09.00.075,IAT(Formal),2021.2.3,Win32,119.047619,,,,,,,,,,,,,,,e,1,0.5089,,,,,,热情,e,,,0,5,5,27,1,,,,,,,,,,,,,,,,,,,,,,,,,,,,,,,,,,
,,,,,,,,,,,,,,1,001,2025-01-14_14h09.00.075,IAT(Formal),2021.2.3,Win32,119.047619,,,,,,,,,,,,,,,i,1,0.6356,,,,,,其他,i,,,0,6,6,59,1,,,,,,,,,,,,,,,,,,,,,,,,,,,,,,,,,,
,,,,,,,,,,,,,,1,001,2025-01-14_14h09.00.075,IAT(Formal),2021.2.3,Win32,119.047619,,,,,,,,,,,,,,,e,1,0.4308,,,,,,自己,e,,,0,7,7,53,1,,,,,,,,,,,,,,,,,,,,,,,,,,,,,,,,,,
,,,,,,,,,,,,,,1,001,2025-01-14_14h09.00.075,IAT(Formal),2021.2.3,Win32,119.047619,,,,,,,,,,,,,,,e,1,0.3933,,,,,,俺,e,,,0,8,8,54,1,,,,,,,,,,,,,,,,,,,,,,,,,,,,,,,,,,
,,,,,,,,,,,,,,1,001,2025-01-14_14h09.00.075,IAT(Formal),2021.2.3,Win32,119.047619,,,,,,,,,,,,,,,i,1,0.4456,,,,,,他的,i,,,0,9,9,67,1,,,,,,,,,,,,,,,,,,,,,,,,,,,,,,,,,,
,,,,,,,,,,,,,,1,001,2025-01-14_14h09.00.075,IAT(Formal),2021.2.3,Win32,119.047619,,,,,,,,,,,,,,,e,1,0.9497,,,,,,稳重,e,,,0,10,10,21,1,,,,,,,,,,,,,,,,,,,,,,,,,,,,,,,,,,
,,,,,,,,,,,,,,1,001,2025-01-14_14h09.00.075,IAT(Formal),2021.2.3,Win32,119.047619,,,,,,,,,,,,,,,e,1,0.4451,,,,,,自己,e,,,0,11,11,63,1,,,,,,,,,,,,,,,,,,,,,,,,,,,,,,,,,,
,,,,,,,,,,,,,,1,001,2025-01-14_14h09.00.075,IAT(Formal),2021.2.3,Win32,119.047619,,,,,,,,,,,,,,,e,1,0.6096,,,,,,细腻,e,,,0,12,12,25,1,,,,,,,,,,,,,,,,,,,,,,,,,,,,,,,,,,
,,,,,,,,,,,,,,1,001,2025-01-14_14h09.00.075,IAT(Formal),2021.2.3,Win32,119.047619,,,,,,,,,,,,,,,e,1,0.4584,,,,,,公正,e,,,0,13,13,23,1,,,,,,,,,,,,,,,,,,,,,,,,,,,,,,,,,,
,,,,,,,,,,,,,,1,001,2025-01-14_14h09.00.075,IAT(Formal),2021.2.3,Win32,119.047619,,,,,,,,,,,,,,,e,1,0.448,,,,,,勇敢,e,,,0,14,14,17,1,,,,,,,,,,,,,,,,,,,,,,,,,,,,,,,,,,
,,,,,,,,,,,,,,1,001,2025-01-14_14h09.00.075,IAT(Formal),2021.2.3,Win32,119.047619,,,,,,,,,,,,,,,i,1,0.4,,,,,,他,i,,,0,15,15,75,1,,,,,,,,,,,,,,,,,,,,,,,,,,,,,,,,,,
,,,,,,,,,,,,,,1,001,2025-01-14_14h09.00.075,IAT(Formal),2021.2.3,Win32,119.047619,,,,,,,,,,,,,,,e,1,0.5387,,,,,,我的,e,,,0,16,16,51,1,,,,,,,,,,,,,,,,,,,,,,,,,,,,,,,,,,
,,,,,,,,,,,,,,1,001,2025-01-14_14h09.00.075,IAT(Formal),2021.2.3,Win32,119.047619,,,,,,,,,,,,,,,e,1,0.6006,,,,,,崇高,e,,,0,17,17,11,1,,,,,,,,,,,,,,,,,,,,,,,,,,,,,,,,,,
,,,,,,,,,,,,,,1,001,2025-01-14_14h09.00.075,IAT(Formal),2021.2.3,Win32,119.047619,,,,,,,,,,,,,,,i,1,0.7587,,,,,,他人,i,,,0,18,18,68,1,,,,,,,,,,,,,,,,,,,,,,,,,,,,,,,,,,
,,,,,,,,,,,,,,1,001,2025-01-14_14h09.00.075,IAT(Formal),2021.2.3,Win32,119.047619,,,,,,,,,,,,,,,i,1,0.4848,,,,,,他们,i,,,0,19,19,6,1,,,,,,,,,,,,,,,,,,,,,,,,,,,,,,,,,,
,,,,,,,,,,,,,,1,001,2025-01-14_14h09.00.075,IAT(Formal),2021.2.3,Win32,119.047619,,,,,,,,,,,,,,,e,1,0.5972,,,,,,聪明,e,,,0,20,20,12,1,,,,,,,,,,,,,,,,,,,,,,,,,,,,,,,,,,
,,,,,,,,,,,,,,1,001,2025-01-14_14h09.00.075,IAT(Formal),2021.2.3,Win32,119.047619,,,,,,,,,,,,,,,e,1,0.4513,,,,,,活泼,e,,,0,21,21,28,1,,,,,,,,,,,,,,,,,,,,,,,,,,,,,,,,,,
,,,,,,,,,,,,,,1,001,2025-01-14_14h09.00.075,IAT(Formal),2021.2.3,Win32,119.047619,,,,,,,,,,,,,,,e,1,0.6259,,,,,,诚实,e,,,0,22,22,15,1,,,,,,,,,,,,,,,,,,,,,,,,,,,,,,,,,,
,,,,,,,,,,,,,,1,001,2025-01-14_14h09.00.075,IAT(Formal),2021.2.3,Win32,119.047619,,,,,,,,,,,,,,,e,1,0.4856,,,,,,乐观,e,,,0,23,23,14,1,,,,,,,,,,,,,,,,,,,,,,,,,,,,,,,,,,
,,,,,,,,,,,,,,1,001,2025-01-14_14h09.00.075,IAT(Formal),2021.2.3,Win32,119.047619,,,,,,,,,,,,,,,e,1,0.4552,,,,,,我们,e,,,0,24,24,2,1,,,,,,,,,,,,,,,,,,,,,,,,,,,,,,,,,,
,,,,,,,,,,,,,,1,001,2025-01-14_14h09.00.075,IAT(Formal),2021.2.3,Win32,119.047619,,,,,,,,,,,,,,,e,1,0.423,,,,,,我们,e,,,0,25,25,62,1,,,,,,,,,,,,,,,,,,,,,,,,,,,,,,,,,,
,,,,,,,,,,,,,,1,001,2025-01-14_14h09.00.075,IAT(Formal),2021.2.3,Win32,119.047619,,,,,,,,,,,,,,,e,1,0.4956,,,,,,自己,e,,,0,26,26,73,1,,,,,,,,,,,,,,,,,,,,,,,,,,,,,,,,,,
,,,,,,,,,,,,,,1,001,2025-01-14_14h09.00.075,IAT(Formal),2021.2.3,Win32,119.047619,,,,,,,,,,,,,,,e,1,1.0251,,,,,,杰出,e,,,0,27,27,13,1,,,,,,,,,,,,,,,,,,,,,,,,,,,,,,,,,,
,,,,,,,,,,,,,,1,001,2025-01-14_14h09.00.075,IAT(Formal),2021.2.3,Win32,119.047619,,,,,,,,,,,,,,,i,1,0.5682,,,,,,悲观,i,,,0,28,28,34,1,,,,,,,,,,,,,,,,,,,,,,,,,,,,,,,,,,
,,,,,,,,,,,,,,1,001,2025-01-14_14h09.00.075,IAT(Formal),2021.2.3,Win32,119.047619,,,,,,,,,,,,,,,e,1,0.4086,,,,,,正直,e,,,0,29,29,16,1,,,,,,,,,,,,,,,,,,,,,,,,,,,,,,,,,,
,,,,,,,,,,,,,,1,001,2025-01-14_14h09.00.075,IAT(Formal),2021.2.3,Win32,119.047619,,,,,,,,,,,,,,,e,1,0.5505,,,,,,勤奋,e,,,0,30,30,18,1,,,,,,,,,,,,,,,,,,,,,,,,,,,,,,,,,,
,,,,,,,,,,,,,,1,001,2025-01-14_14h09.00.075,IAT(Formal),2021.2.3,Win32,119.047619,,,,,,,,,,,,,,,i,1,0.5508,,,,,,刻薄,i,,,0,31,31,33,1,,,,,,,,,,,,,,,,,,,,,,,,,,,,,,,,,,
,,,,,,,,,,,,,,1,001,2025-01-14_14h09.00.075,IAT(Formal),2021.2.3,Win32,119.047619,,,,,,,,,,,,,,,e,1,0.5604,,,,,,诚恳,e,,,0,32,32,29,1,,,,,,,,,,,,,,,,,,,,,,,,,,,,,,,,,,
,,,,,,,,,,,,,,1,001,2025-01-14_14h09.00.075,IAT(Formal),2021.2.3,Win32,119.047619,,,,,,,,,,,,,,,i,1,0.6265,,,,,,他们,i,,,0,33,33,56,1,,,,,,,,,,,,,,,,,,,,,,,,,,,,,,,,,,
,,,,,,,,,,,,,,1,001,2025-01-14_14h09.00.075,IAT(Formal),2021.2.3,Win32,119.047619,,,,,,,,,,,,,,,e,1,0.4331,,,,,,我的,e,,,0,34,34,1,1,,,,,,,,,,,,,,,,,,,,,,,,,,,,,,,,,,
,,,,,,,,,,,,,,1,001,2025-01-14_14h09.00.075,IAT(Formal),2021.2.3,Win32,119.047619,,,,,,,,,,,,,,,e,1,0.4337,,,,,,自己,e,,,0,35,35,3,1,,,,,,,,,,,,,,,,,,,,,,,,,,,,,,,,,,
,,,,,,,,,,,,,,1,001,2025-01-14_14h09.00.075,IAT(Formal),2021.2.3,Win32,119.047619,,,,,,,,,,,,,,,i,1,0.6589,,,,,,他,i,,,0,36,36,65,1,,,,,,,,,,,,,,,,,,,,,,,,,,,,,,,,,,
,,,,,,,,,,,,,,1,001,2025-01-14_14h09.00.075,IAT(Formal),2021.2.3,Win32,119.047619,,,,,,,,,,,,,,,i,1,0.5181,,,,,,散漫,i,,,0,37,37,41,1,,,,,,,,,,,,,,,,,,,,,,,,,,,,,,,,,,
,,,,,,,,,,,,,,1,001,2025-01-14_14h09.00.075,IAT(Formal),2021.2.3,Win32,119.047619,,,,,,,,,,,,,,,i,1,0.4908,,,,,,他的,i,,,0,38,38,57,1,,,,,,,,,,,,,,,,,,,,,,,,,,,,,,,,,,
,,,,,,,,,,,,,,1,001,2025-01-14_14h09.00.075,IAT(Formal),2021.2.3,Win32,119.047619,,,,,,,,,,,,,,,i,1,0.4925,,,,,,其他,i,,,0,39,39,79,1,,,,,,,,,,,,,,,,,,,,,,,,,,,,,,,,,,
,,,,,,,,,,,,,,1,001,2025-01-14_14h09.00.075,IAT(Formal),2021.2.3,Win32,119.047619,,,,,,,,,,,,,,,i,1,0.5403,,,,,,他人,i,,,0,40,40,78,1,,,,,,,,,,,,,,,,,,,,,,,,,,,,,,,,,,
,,,,,,,,,,,,,,1,001,2025-01-14_14h09.00.075,IAT(Formal),2021.2.3,Win32,119.047619,,,,,,,,,,,,,,,i,1,0.547,,,,,,自卑,i,,,0,41,41,36,1,,,,,,,,,,,,,,,,,,,,,,,,,,,,,,,,,,
,,,,,,,,,,,,,,1,001,2025-01-14_14h09.00.075,IAT(Formal),2021.2.3,Win32,119.047619,,,,,,,,,,,,,,,i,1,0.5608,,,,,,下贱,i,,,0,42,42,49,1,,,,,,,,,,,,,,,,,,,,,,,,,,,,,,,,,,
,,,,,,,,,,,,,,1,001,2025-01-14_14h09.00.075,IAT(Formal),2021.2.3,Win32,119.047619,,,,,,,,,,,,,,,e,1,0.5014,,,,,,我们,e,,,0,43,43,52,1,,,,,,,,,,,,,,,,,,,,,,,,,,,,,,,,,,
,,,,,,,,,,,,,,1,001,2025-01-14_14h09.00.075,IAT(Formal),2021.2.3,Win32,119.047619,,,,,,,,,,,,,,,i,1,0.4759,,,,,,野蛮,i,,,0,44,44,46,1,,,,,,,,,,,,,,,,,,,,,,,,,,,,,,,,,,
,,,,,,,,,,,,,,1,001,2025-01-14_14h09.00.075,IAT(Formal),2021.2.3,Win32,119.047619,,,,,,,,,,,,,,,i,1,0.6081,,,,,,其他,i,,,0,45,45,69,1,,,,,,,,,,,,,,,,,,,,,,,,,,,,,,,,,,
,,,,,,,,,,,,,,1,001,2025-01-14_14h09.00.075,IAT(Formal),2021.2.3,Win32,119.047619,,,,,,,,,,,,,,,,0,,,,,,,冷静,e,,,0,46,46,26,1,,,,,,,,,,,,,,,,,,,,,,,,,,,,,,,,,,
,,,,,,,,,,,,,,1,001,2025-01-14_14h09.00.075,IAT(Formal),2021.2.3,Win32,119.047619,,,,,,,,,,,,,,,i,1,1.4677,,,,,,他们,i,,,0,47,47,76,1,,,,,,,,,,,,,,,,,,,,,,,,,,,,,,,,,,
,,,,,,,,,,,,,,1,001,2025-01-14_14h09.00.075,IAT(Formal),2021.2.3,Win32,119.047619,,,,,,,,,,,,,,,i,1,0.5945,,,,,,卑鄙,i,,,0,48,48,30,1,,,,,,,,,,,,,,,,,,,,,,,,,,,,,,,,,,
,,,,,,,,,,,,,,1,001,2025-01-14_14h09.00.075,IAT(Formal),2021.2.3,Win32,119.047619,,,,,,,,,,,,,,,e,1,0.8511,,,,,,认真,e,,,0,49,49,20,1,,,,,,,,,,,,,,,,,,,,,,,,,,,,,,,,,,
,,,,,,,,,,,,,,1,001,2025-01-14_14h09.00.075,IAT(Formal),2021.2.3,Win32,119.047619,,,,,,,,,,,,,,,i,1,0.559,,,,,,他的,i,,,0,50,50,7,1,,,,,,,,,,,,,,,,,,,,,,,,,,,,,,,,,,
,,,,,,,,,,,,,,1,001,2025-01-14_14h09.00.075,IAT(Formal),2021.2.3,Win32,119.047619,,,,,,,,,,,,,,,e,1,0.4915,,,,,,我的,e,,,0,51,51,71,1,,,,,,,,,,,,,,,,,,,,,,,,,,,,,,,,,,
,,,,,,,,,,,,,,1,001,2025-01-14_14h09.00.075,IAT(Formal),2021.2.3,Win32,119.047619,,,,,,,,,,,,,,,e,1,0.4118,,,,,,我,e,,,0,52,52,50,1,,,,,,,,,,,,,,,,,,,,,,,,,,,,,,,,,,
,,,,,,,,,,,,,,1,001,2025-01-14_14h09.00.075,IAT(Formal),2021.2.3,Win32,119.047619,,,,,,,,,,,,,,,i,1,0.651,,,,,,他人,i,,,0,53,53,8,1,,,,,,,,,,,,,,,,,,,,,,,,,,,,,,,,,,
,,,,,,,,,,,,,,1,001,2025-01-14_14h09.00.075,IAT(Formal),2021.2.3,Win32,119.047619,,,,,,,,,,,,,,,i,1,0.7174,,,,,,执拗,i,,,0,54,54,40,1,,,,,,,,,,,,,,,,,,,,,,,,,,,,,,,,,,
,,,,,,,,,,,,,,1,001,2025-01-14_14h09.00.075,IAT(Formal),2021.2.3,Win32,119.047619,,,,,,,,,,,,,,,e,1,0.5871,,,,,,无私,e,,,0,55,55,22,1,,,,,,,,,,,,,,,,,,,,,,,,,,,,,,,,,,
,,,,,,,,,,,,,,1,001,2025-01-14_14h09.00.075,IAT(Formal),2021.2.3,Win32,119.047619,,,,,,,,,,,,,,,i,1,0.5131,,,,,,愚蠢,i,,,0,56,56,32,1,,,,,,,,,,,,,,,,,,,,,,,,,,,,,,,,,,
,,,,,,,,,,,,,,1,001,2025-01-14_14h09.00.075,IAT(Formal),2021.2.3,Win32,119.047619,,,,,,,,,,,,,,,e,1,0.4011,,,,,,我的,e,,,0,57,57,61,1,,,,,,,,,,,,,,,,,,,,,,,,,,,,,,,,,,
,,,,,,,,,,,,,,1,001,2025-01-14_14h09.00.075,IAT(Formal),2021.2.3,Win32,119.047619,,,,,,,,,,,,,,,e,1,0.4939,,,,,,朴实,e,,,0,58,58,24,1,,,,,,,,,,,,,,,,,,,,,,,,,,,,,,,,,,
,,,,,,,,,,,,,,1,001,2025-01-14_14h09.00.075,IAT(Formal),2021.2.3,Win32,119.047619,,,,,,,,,,,,,,,i,1,0.5527,,,,,,轻率,i,,,0,59,59,48,1,,,,,,,,,,,,,,,,,,,,,,,,,,,,,,,,,,
,,,,,,,,,,,,,,1,001,2025-01-14_14h09.00.075,IAT(Formal),2021.2.3,Win32,119.047619,,,,,,,,,,,,,,,e,1,0.4513,,,,,,我,e,,,0,60,60,60,1,,,,,,,,,,,,,,,,,,,,,,,,,,,,,,,,,,
,,,,,,,,,,,,,,1,001,2025-01-14_14h09.00.075,IAT(Formal),2021.2.3,Win32,119.047619,,,,,,,,,,,,,,,i,1,0.667,,,,,,虚伪,i,,,0,61,61,31,1,,,,,,,,,,,,,,,,,,,,,,,,,,,,,,,,,,
,,,,,,,,,,,,,,1,001,2025-01-14_14h09.00.075,IAT(Formal),2021.2.3,Win32,119.047619,,,,,,,,,,,,,,,e,1,0.4007,,,,,,我们,e,,,0,62,62,72,1,,,,,,,,,,,,,,,,,,,,,,,,,,,,,,,,,,
,,,,,,,,,,,,,,1,001,2025-01-14_14h09.00.075,IAT(Formal),2021.2.3,Win32,119.047619,,,,,,,,,,,,,,,e,1,0.5455,,,,,,机智,e,,,0,63,63,19,1,,,,,,,,,,,,,,,,,,,,,,,,,,,,,,,,,,
,,,,,,,,,,,,,,1,001,2025-01-14_14h09.00.075,IAT(Formal),2021.2.3,Win32,119.047619,,,,,,,,,,,,,,,i,1,0.6516,,,,,,其他,i,,,0,64,64,9,1,,,,,,,,,,,,,,,,,,,,,,,,,,,,,,,,,,
,,,,,,,,,,,,,,1,001,2025-01-14_14h09.00.075,IAT(Formal),2021.2.3,Win32,119.047619,,,,,,,,,,,,,,,i,1,0.4849,,,,,,暴躁,i,,,0,65,65,44,1,,,,,,,,,,,,,,,,,,,,,,,,,,,,,,,,,,
,,,,,,,,,,,,,,1,001,2025-01-14_14h09.00.075,IAT(Formal),2021.2.3,Win32,119.047619,,,,,,,,,,,,,,,i,1,0.5345,,,,,,他,i,,,0,66,66,55,1,,,,,,,,,,,,,,,,,,,,,,,,,,,,,,,,,,
,,,,,,,,,,,,,,1,001,2025-01-14_14h09.00.075,IAT(Formal),2021.2.3,Win32,119.047619,,,,,,,,,,,,,,,i,1,0.4336,,,,,,傲慢,i,,,0,67,67,37,1,,,,,,,,,,,,,,,,,,,,,,,,,,,,,,,,,,
,,,,,,,,,,,,,,1,001,2025-01-14_14h09.00.075,IAT(Formal),2021.2.3,Win32,119.047619,,,,,,,,,,,,,,,e,1,0.4918,,,,,,俺,e,,,0,68,68,64,1,,,,,,,,,,,,,,,,,,,,,,,,,,,,,,,,,,
,,,,,,,,,,,,,,1,001,2025-01-14_14h09.00.075,IAT(Formal),2021.2.3,Win32,119.047619,,,,,,,,,,,,,,,i,1,0.5068,,,,,,固执,i,,,0,69,69,47,1,,,,,,,,,,,,,,,,,,,,,,,,,,,,,,,,,,
,,,,,,,,,,,,,,1,001,2025-01-14_14h09.00.075,IAT(Formal),2021.2.3,Win32,119.047619,,,,,,,,,,,,,,,e,1,0.4696,,,,,,我,e,,,0,70,70,0,1,,,,,,,,,,,,,,,,,,,,,,,,,,,,,,,,,,
,,,,,,,,,,,,,,1,001,2025-01-14_14h09.00.075,IAT(Formal),2021.2.3,Win32,119.047619,,,,,,,,,,,,,,,i,1,0.7013,,,,,,他人,i,,,0,71,71,58,1,,,,,,,,,,,,,,,,,,,,,,,,,,,,,,,,,,
,,,,,,,,,,,,,,1,001,2025-01-14_14h09.00.075,IAT(Formal),2021.2.3,Win32,119.047619,,,,,,,,,,,,,,,i,1,0.5425,,,,,,他的,i,,,0,72,72,77,1,,,,,,,,,,,,,,,,,,,,,,,,,,,,,,,,,,
,,,,,,,,,,,,,,1,001,2025-01-14_14h09.00.075,IAT(Formal),2021.2.3,Win32,119.047619,,,,,,,,,,,,,,,e,1,0.5092,,,,,,我,e,,,0,73,73,70,1,,,,,,,,,,,,,,,,,,,,,,,,,,,,,,,,,,
,,,,,,,,,,,,,,1,001,2025-01-14_14h09.00.075,IAT(Formal),2021.2.3,Win32,119.047619,,,,,,,,,,,,,,,i,1,0.5859,,,,,,他,i,,,0,74,74,5,1,,,,,,,,,,,,,,,,,,,,,,,,,,,,,,,,,,
,,,,,,,,,,,,,,1,001,2025-01-14_14h09.00.075,IAT(Formal),2021.2.3,Win32,119.047619,,,,,,,,,,,,,,,i,1,0.4762,,,,,,自私,i,,,0,75,75,43,1,,,,,,,,,,,,,,,,,,,,,,,,,,,,,,,,,,
,,,,,,,,,,,,,,1,001,2025-01-14_14h09.00.075,IAT(Formal),2021.2.3,Win32,119.047619,,,,,,,,,,,,,,,i,1,0.6673,,,,,,冒失,i,,,0,76,76,39,1,,,,,,,,,,,,,,,,,,,,,,,,,,,,,,,,,,
,,,,,,,,,,,,,,1,001,2025-01-14_14h09.00.075,IAT(Formal),2021.2.3,Win32,119.047619,,,,,,,,,,,,,,,e,1,0.5167,,,,,,优秀,e,,,0,77,77,10,1,,,,,,,,,,,,,,,,,,,,,,,,,,,,,,,,,,
,,,,,,,,,,,,,,1,001,2025-01-14_14h09.00.075,IAT(Formal),2021.2.3,Win32,119.047619,,,,,,,,,,,,,,,e,1,0.5511,,,,,,俺,e,,,0,78,78,74,1,,,,,,,,,,,,,,,,,,,,,,,,,,,,,,,,,,
,,,,,,,,,,,,,,1,001,2025-01-14_14h09.00.075,IAT(Formal),2021.2.3,Win32,119.047619,,,,,,,,,,,,,,,i,1,0.8921,,,,,,鲁莽,i,,,0,79,79,38,1,,,,,,,,,,,,,,,,,,,,,,,,,,,,,,,,,,
,,,,,,,,,,,,,,1,001,2025-01-14_14h09.00.075,IAT(Formal),2021.2.3,Win32,119.047619,,,,,,,,,,,,,,,e,1,0.4174,,,,,,自己,e,,,1,0,80,73,1,,,,,,,,,,,,,,,,,,,,,,,,,,,,,,,,,,
,,,,,,,,,,,,,,1,001,2025-01-14_14h09.00.075,IAT(Formal),2021.2.3,Win32,119.047619,,,,,,,,,,,,,,,i,1,0.503,,,,,,其他,i,,,1,1,81,79,1,,,,,,,,,,,,,,,,,,,,,,,,,,,,,,,,,,
,,,,,,,,,,,,,,1,001,2025-01-14_14h09.00.075,IAT(Formal),2021.2.3,Win32,119.047619,,,,,,,,,,,,,,,i,1,0.5003,,,,,,虚伪,i,,,1,2,82,31,1,,,,,,,,,,,,,,,,,,,,,,,,,,,,,,,,,,
,,,,,,,,,,,,,,1,001,2025-01-14_14h09.00.075,IAT(Formal),2021.2.3,Win32,119.047619,,,,,,,,,,,,,,,e,1,0.4677,,,,,,我,e,,,1,3,83,60,1,,,,,,,,,,,,,,,,,,,,,,,,,,,,,,,,,,
,,,,,,,,,,,,,,1,001,2025-01-14_14h09.00.075,IAT(Formal),2021.2.3,Win32,119.047619,,,,,,,,,,,,,,,e,1,0.5113,,,,,,俺,e,,,1,4,84,64,1,,,,,,,,,,,,,,,,,,,,,,,,,,,,,,,,,,
,,,,,,,,,,,,,,1,001,2025-01-14_14h09.00.075,IAT(Formal),2021.2.3,Win32,119.047619,,,,,,,,,,,,,,,e,1,0.5267,,,,,,认真,e,,,1,5,85,20,1,,,,,,,,,,,,,,,,,,,,,,,,,,,,,,,,,,
,,,,,,,,,,,,,,1,001,2025-01-14_14h09.00.075,IAT(Formal),2021.2.3,Win32,119.047619,,,,,,,,,,,,,,,i,1,0.6919,,,,,,自私,i,,,1,6,86,43,1,,,,,,,,,,,,,,,,,,,,,,,,,,,,,,,,,,
,,,,,,,,,,,,,,1,001,2025-01-14_14h09.00.075,IAT(Formal),2021.2.3,Win32,119.047619,,,,,,,,,,,,,,,e,1,0.5342,,,,,,杰出,e,,,1,7,87,13,1,,,,,,,,,,,,,,,,,,,,,,,,,,,,,,,,,,
,,,,,,,,,,,,,,1,001,2025-01-14_14h09.00.075,IAT(Formal),2021.2.3,Win32,119.047619,,,,,,,,,,,,,,,i,1,0.4866,,,,,,自卑,i,,,1,8,88,36,1,,,,,,,,,,,,,,,,,,,,,,,,,,,,,,,,,,
,,,,,,,,,,,,,,1,001,2025-01-14_14h09.00.075,IAT(Formal),2021.2.3,Win32,119.047619,,,,,,,,,,,,,,,i,1,0.7121,,,,,,凶狠,i,,,1,9,89,42,1,,,,,,,,,,,,,,,,,,,,,,,,,,,,,,,,,,
,,,,,,,,,,,,,,1,001,2025-01-14_14h09.00.075,IAT(Formal),2021.2.3,Win32,119.047619,,,,,,,,,,,,,,,e,1,0.5674,,,,,,乐观,e,,,1,10,90,14,1,,,,,,,,,,,,,,,,,,,,,,,,,,,,,,,,,,
,,,,,,,,,,,,,,1,001,2025-01-14_14h09.00.075,IAT(Formal),2021.2.3,Win32,119.047619,,,,,,,,,,,,,,,e,1,0.6343,,,,,,热情,e,,,1,11,91,27,1,,,,,,,,,,,,,,,,,,,,,,,,,,,,,,,,,,
,,,,,,,,,,,,,,1,001,2025-01-14_14h09.00.075,IAT(Formal),2021.2.3,Win32,119.047619,,,,,,,,,,,,,,,i,1,0.4678,,,,,,傲慢,i,,,1,12,92,37,1,,,,,,,,,,,,,,,,,,,,,,,,,,,,,,,,,,
,,,,,,,,,,,,,,1,001,2025-01-14_14h09.00.075,IAT(Formal),2021.2.3,Win32,119.047619,,,,,,,,,,,,,,,i,1,0.492,,,,,,他人,i,,,1,13,93,8,1,,,,,,,,,,,,,,,,,,,,,,,,,,,,,,,,,,
,,,,,,,,,,,,,,1,001,2025-01-14_14h09.00.075,IAT(Formal),2021.2.3,Win32,119.047619,,,,,,,,,,,,,,,i,1,0.5358,,,,,,他,i,,,1,14,94,55,1,,,,,,,,,,,,,,,,,,,,,,,,,,,,,,,,,,
,,,,,,,,,,,,,,1,001,2025-01-14_14h09.00.075,IAT(Formal),2021.2.3,Win32,119.047619,,,,,,,,,,,,,,,e,1,0.5089,,,,,,我们,e,,,1,15,95,2,1,,,,,,,,,,,,,,,,,,,,,,,,,,,,,,,,,,
,,,,,,,,,,,,,,1,001,2025-01-14_14h09.00.075,IAT(Formal),2021.2.3,Win32,119.047619,,,,,,,,,,,,,,,i,1,0.5187,,,,,,野蛮,i,,,1,16,96,46,1,,,,,,,,,,,,,,,,,,,,,,,,,,,,,,,,,,
,,,,,,,,,,,,,,1,001,2025-01-14_14h09.00.075,IAT(Formal),2021.2.3,Win32,119.047619,,,,,,,,,,,,,,,i,1,0.5265,,,,,,他们,i,,,1,17,97,56,1,,,,,,,,,,,,,,,,,,,,,,,,,,,,,,,,,,
,,,,,,,,,,,,,,1,001,2025-01-14_14h09.00.075,IAT(Formal),2021.2.3,Win32,119.047619,,,,,,,,,,,,,,,i,1,0.4933,,,,,,暴躁,i,,,1,18,98,44,1,,,,,,,,,,,,,,,,,,,,,,,,,,,,,,,,,,
,,,,,,,,,,,,,,1,001,2025-01-14_14h09.00.075,IAT(Formal),2021.2.3,Win32,119.047619,,,,,,,,,,,,,,,i,1,0.5511,,,,,,他,i,,,1,19,99,65,1,,,,,,,,,,,,,,,,,,,,,,,,,,,,,,,,,,
,,,,,,,,,,,,,,1,001,2025-01-14_14h09.00.075,IAT(Formal),2021.2.3,Win32,119.047619,,,,,,,,,,,,,,,i,1,0.5418,,,,,,他的,i,,,1,20,100,7,1,,,,,,,,,,,,,,,,,,,,,,,,,,,,,,,,,,
,,,,,,,,,,,,,,1,001,2025-01-14_14h09.00.075,IAT(Formal),2021.2.3,Win32,119.047619,,,,,,,,,,,,,,,e,1,0.5012,,,,,,诚实,e,,,1,21,101,15,1,,,,,,,,,,,,,,,,,,,,,,,,,,,,,,,,,,
,,,,,,,,,,,,,,1,001,2025-01-14_14h09.00.075,IAT(Formal),2021.2.3,Win32,119.047619,,,,,,,,,,,,,,,i,1,0.5423,,,,,,他的,i,,,1,22,102,67,1,,,,,,,,,,,,,,,,,,,,,,,,,,,,,,,,,,
,,,,,,,,,,,,,,1,001,2025-01-14_14h09.00.075,IAT(Formal),2021.2.3,Win32,119.047619,,,,,,,,,,,,,,,i,1,0.6846,,,,,,他,i,,,1,23,103,5,1,,,,,,,,,,,,,,,,,,,,,,,,,,,,,,,,,,
,,,,,,,,,,,,,,1,001,2025-01-14_14h09.00.075,IAT(Formal),2021.2.3,Win32,119.047619,,,,,,,,,,,,,,,e,1,0.7005,,,,,,自己,e,,,1,24,104,63,1,,,,,,,,,,,,,,,,,,,,,,,,,,,,,,,,,,
,,,,,,,,,,,,,,1,001,2025-01-14_14h09.00.075,IAT(Formal),2021.2.3,Win32,119.047619,,,,,,,,,,,,,,,e,1,0.4844,,,,,,我的,e,,,1,25,105,61,1,,,,,,,,,,,,,,,,,,,,,,,,,,,,,,,,,,
,,,,,,,,,,,,,,1,001,2025-01-14_14h09.00.075,IAT(Formal),2021.2.3,Win32,119.047619,,,,,,,,,,,,,,,e,1,0.6014,,,,,,细腻,e,,,1,26,106,25,1,,,,,,,,,,,,,,,,,,,,,,,,,,,,,,,,,,
,,,,,,,,,,,,,,1,001,2025-01-14_14h09.00.075,IAT(Formal),2021.2.3,Win32,119.047619,,,,,,,,,,,,,,,i,1,0.4784,,,,,,卑鄙,i,,,1,27,107,30,1,,,,,,,,,,,,,,,,,,,,,,,,,,,,,,,,,,
,,,,,,,,,,,,,,1,001,2025-01-14_14h09.00.075,IAT(Formal),2021.2.3,Win32,119.047619,,,,,,,,,,,,,,,i,1,0.8184,,,,,,消极,i,,,1,28,108,35,1,,,,,,,,,,,,,,,,,,,,,,,,,,,,,,,,,,
,,,,,,,,,,,,,,1,001,2025-01-14_14h09.00.075,IAT(Formal),2021.2.3,Win32,119.047619,,,,,,,,,,,,,,,e,1,0.5162,,,,,,活泼,e,,,1,29,109,28,1,,,,,,,,,,,,,,,,,,,,,,,,,,,,,,,,,,
,,,,,,,,,,,,,,1,001,2025-01-14_14h09.00.075,IAT(Formal),2021.2.3,Win32,119.047619,,,,,,,,,,,,,,,i,1,0.562,,,,,,他们,i,,,1,30,110,6,1,,,,,,,,,,,,,,,,,,,,,,,,,,,,,,,,,,
,,,,,,,,,,,,,,1,001,2025-01-14_14h09.00.075,IAT(Formal),2021.2.3,Win32,119.047619,,,,,,,,,,,,,,,i,1,0.5207,,,,,,他们,i,,,1,31,111,76,1,,,,,,,,,,,,,,,,,,,,,,,,,,,,,,,,,,
,,,,,,,,,,,,,,1,001,2025-01-14_14h09.00.075,IAT(Formal),2021.2.3,Win32,119.047619,,,,,,,,,,,,,,,i,1,0.5719,,,,,,他的,i,,,1,32,112,77,1,,,,,,,,,,,,,,,,,,,,,,,,,,,,,,,,,,
,,,,,,,,,,,,,,1,001,2025-01-14_14h09.00.075,IAT(Formal),2021.2.3,Win32,119.047619,,,,,,,,,,,,,,,e,1,0.6005,,,,,,优秀,e,,,1,33,113,10,1,,,,,,,,,,,,,,,,,,,,,,,,,,,,,,,,,,
,,,,,,,,,,,,,,1,001,2025-01-14_14h09.00.075,IAT(Formal),2021.2.3,Win32,119.047619,,,,,,,,,,,,,,,e,1,0.3722,,,,,,自己,e,,,1,34,114,3,1,,,,,,,,,,,,,,,,,,,,,,,,,,,,,,,,,,
,,,,,,,,,,,,,,1,001,2025-01-14_14h09.00.075,IAT(Formal),2021.2.3,Win32,119.047619,,,,,,,,,,,,,,,e,1,0.3772,,,,,,我们,e,,,1,35,115,62,1,,,,,,,,,,,,,,,,,,,,,,,,,,,,,,,,,,
,,,,,,,,,,,,,,1,001,2025-01-14_14h09.00.075,IAT(Formal),2021.2.3,Win32,119.047619,,,,,,,,,,,,,,,e,1,0.4814,,,,,,机智,e,,,1,36,116,19,1,,,,,,,,,,,,,,,,,,,,,,,,,,,,,,,,,,
,,,,,,,,,,,,,,1,001,2025-01-14_14h09.00.075,IAT(Formal),2021.2.3,Win32,119.047619,,,,,,,,,,,,,,,i,1,0.6002,,,,,,其他,i,,,1,37,117,59,1,,,,,,,,,,,,,,,,,,,,,,,,,,,,,,,,,,
,,,,,,,,,,,,,,1,001,2025-01-14_14h09.00.075,IAT(Formal),2021.2.3,Win32,119.047619,,,,,,,,,,,,,,,e,1,0.6346,,,,,,勤奋,e,,,1,38,118,18,1,,,,,,,,,,,,,,,,,,,,,,,,,,,,,,,,,,
,,,,,,,,,,,,,,1,001,2025-01-14_14h09.00.075,IAT(Formal),2021.2.3,Win32,119.047619,,,,,,,,,,,,,,,i,1,0.4926,,,,,,其他,i,,,1,39,119,69,1,,,,,,,,,,,,,,,,,,,,,,,,,,,,,,,,,,
,,,,,,,,,,,,,,1,001,2025-01-14_14h09.00.075,IAT(Formal),2021.2.3,Win32,119.047619,,,,,,,,,,,,,,,e,1,1.2756,,,,,,聪明,e,,,1,40,120,12,1,,,,,,,,,,,,,,,,,,,,,,,,,,,,,,,,,,
,,,,,,,,,,,,,,1,001,2025-01-14_14h09.00.075,IAT(Formal),2021.2.3,Win32,119.047619,,,,,,,,,,,,,,,i,1,0.7516,,,,,,冒失,i,,,1,41,121,39,1,,,,,,,,,,,,,,,,,,,,,,,,,,,,,,,,,,
,,,,,,,,,,,,,,1,001,2025-01-14_14h09.00.075,IAT(Formal),2021.2.3,Win32,119.047619,,,,,,,,,,,,,,,i,1,0.5003,,,,,,其他,i,,,1,42,122,9,1,,,,,,,,,,,,,,,,,,,,,,,,,,,,,,,,,,
,,,,,,,,,,,,,,1,001,2025-01-14_14h09.00.075,IAT(Formal),2021.2.3,Win32,119.047619,,,,,,,,,,,,,,,i,1,0.4257,,,,,,固执,i,,,1,43,123,47,1,,,,,,,,,,,,,,,,,,,,,,,,,,,,,,,,,,
,,,,,,,,,,,,,,1,001,2025-01-14_14h09.00.075,IAT(Formal),2021.2.3,Win32,119.047619,,,,,,,,,,,,,,,e,1,0.6255,,,,,,崇高,e,,,1,44,124,11,1,,,,,,,,,,,,,,,,,,,,,,,,,,,,,,,,,,
,,,,,,,,,,,,,,1,001,2025-01-14_14h09.00.075,IAT(Formal),2021.2.3,Win32,119.047619,,,,,,,,,,,,,,,e,1,1.2866,,,,,,勇敢,e,,,1,45,125,17,1,,,,,,,,,,,,,,,,,,,,,,,,,,,,,,,,,,
,,,,,,,,,,,,,,1,001,2025-01-14_14h09.00.075,IAT(Formal),2021.2.3,Win32,119.047619,,,,,,,,,,,,,,,e,1,0.528,,,,,,俺,e,,,1,46,126,54,1,,,,,,,,,,,,,,,,,,,,,,,,,,,,,,,,,,
,,,,,,,,,,,,,,1,001,2025-01-14_14h09.00.075,IAT(Formal),2021.2.3,Win32,119.047619,,,,,,,,,,,,,,,i,1,1.3258,,,,,,他人,i,,,1,47,127,78,1,,,,,,,,,,,,,,,,,,,,,,,,,,,,,,,,,,
,,,,,,,,,,,,,,1,001,2025-01-14_14h09.00.075,IAT(Formal),2021.2.3,Win32,119.047619,,,,,,,,,,,,,,,e,1,0.4595,,,,,,我的,e,,,1,48,128,1,1,,,,,,,,,,,,,,,,,,,,,,,,,,,,,,,,,,
,,,,,,,,,,,,,,1,001,2025-01-14_14h09.00.075,IAT(Formal),2021.2.3,Win32,119.047619,,,,,,,,,,,,,,,e,1,0.451,,,,,,自己,e,,,1,49,129,53,1,,,,,,,,,,,,,,,,,,,,,,,,,,,,,,,,,,
,,,,,,,,,,,,,,1,001,2025-01-14_14h09.00.075,IAT(Formal),2021.2.3,Win32,119.047619,,,,,,,,,,,,,,,e,1,0.5422,,,,,,冷静,e,,,1,50,130,26,1,,,,,,,,,,,,,,,,,,,,,,,,,,,,,,,,,,
,,,,,,,,,,,,,,1,001,2025-01-14_14h09.00.075,IAT(Formal),2021.2.3,Win32,119.047619,,,,,,,,,,,,,,,e,1,0.4586,,,,,,我们,e,,,1,51,131,72,1,,,,,,,,,,,,,,,,,,,,,,,,,,,,,,,,,,
,,,,,,,,,,,,,,1,001,2025-01-14_14h09.00.075,IAT(Formal),2021.2.3,Win32,119.047619,,,,,,,,,,,,,,,e,1,0.433,,,,,,我,e,,,1,52,132,0,1,,,,,,,,,,,,,,,,,,,,,,,,,,,,,,,,,,
,,,,,,,,,,,,,,1,001,2025-01-14_14h09.00.075,IAT(Formal),2021.2.3,Win32,119.047619,,,,,,,,,,,,,,,i,1,0.7759,,,,,,执拗,i,,,1,53,133,40,1,,,,,,,,,,,,,,,,,,,,,,,,,,,,,,,,,,
,,,,,,,,,,,,,,1,001,2025-01-14_14h09.00.075,IAT(Formal),2021.2.3,Win32,119.047619,,,,,,,,,,,,,,,e,1,0.5732,,,,,,公正,e,,,1,54,134,23,1,,,,,,,,,,,,,,,,,,,,,,,,,,,,,,,,,,
,,,,,,,,,,,,,,1,001,2025-01-14_14h09.00.075,IAT(Formal),2021.2.3,Win32,119.047619,,,,,,,,,,,,,,,i,1,0.7414,,,,,,下贱,i,,,1,55,135,49,1,,,,,,,,,,,,,,,,,,,,,,,,,,,,,,,,,,
,,,,,,,,,,,,,,1,001,2025-01-14_14h09.00.075,IAT(Formal),2021.2.3,Win32,119.047619,,,,,,,,,,,,,,,i,1,0.9899,,,,,,轻率,i,,,1,56,136,48,1,,,,,,,,,,,,,,,,,,,,,,,,,,,,,,,,,,
,,,,,,,,,,,,,,1,001,2025-01-14_14h09.00.075,IAT(Formal),2021.2.3,Win32,119.047619,,,,,,,,,,,,,,,i,1,0.5678,,,,,,他们,i,,,1,57,137,66,1,,,,,,,,,,,,,,,,,,,,,,,,,,,,,,,,,,
,,,,,,,,,,,,,,1,001,2025-01-14_14h09.00.075,IAT(Formal),2021.2.3,Win32,119.047619,,,,,,,,,,,,,,,e,1,0.6511,,,,,,无私,e,,,1,58,138,22,1,,,,,,,,,,,,,,,,,,,,,,,,,,,,,,,,,,
,,,,,,,,,,,,,,1,001,2025-01-14_14h09.00.075,IAT(Formal),2021.2.3,Win32,119.047619,,,,,,,,,,,,,,,e,1,1.45,,,,,,正直,e,,,1,59,139,16,1,,,,,,,,,,,,,,,,,,,,,,,,,,,,,,,,,,
,,,,,,,,,,,,,,1,001,2025-01-14_14h09.00.075,IAT(Formal),2021.2.3,Win32,119.047619,,,,,,,,,,,,,,,i,1,1.1094,,,,,,愚蠢,i,,,1,60,140,32,1,,,,,,,,,,,,,,,,,,,,,,,,,,,,,,,,,,
,,,,,,,,,,,,,,1,001,2025-01-14_14h09.00.075,IAT(Formal),2021.2.3,Win32,119.047619,,,,,,,,,,,,,,,i,1,0.553,,,,,,猖狂,i,,,1,61,141,45,1,,,,,,,,,,,,,,,,,,,,,,,,,,,,,,,,,,
,,,,,,,,,,,,,,1,001,2025-01-14_14h09.00.075,IAT(Formal),2021.2.3,Win32,119.047619,,,,,,,,,,,,,,,e,1,0.4838,,,,,,俺,e,,,1,62,142,74,1,,,,,,,,,,,,,,,,,,,,,,,,,,,,,,,,,,
,,,,,,,,,,,,,,1,001,2025-01-14_14h09.00.075,IAT(Formal),2021.2.3,Win32,119.047619,,,,,,,,,,,,,,,i,1,0.5251,,,,,,鲁莽,i,,,1,63,143,38,1,,,,,,,,,,,,,,,,,,,,,,,,,,,,,,,,,,
,,,,,,,,,,,,,,1,001,2025-01-14_14h09.00.075,IAT(Formal),2021.2.3,Win32,119.047619,,,,,,,,,,,,,,,i,1,0.7337,,,,,,他的,i,,,1,64,144,57,1,,,,,,,,,,,,,,,,,,,,,,,,,,,,,,,,,,
,,,,,,,,,,,,,,1,001,2025-01-14_14h09.00.075,IAT(Formal),2021.2.3,Win32,119.047619,,,,,,,,,,,,,,,e,1,0.5795,,,,,,我的,e,,,1,65,145,71,1,,,,,,,,,,,,,,,,,,,,,,,,,,,,,,,,,,
,,,,,,,,,,,,,,1,001,2025-01-14_14h09.00.075,IAT(Formal),2021.2.3,Win32,119.047619,,,,,,,,,,,,,,,i,1,0.4676,,,,,,刻薄,i,,,1,66,146,33,1,,,,,,,,,,,,,,,,,,,,,,,,,,,,,,,,,,
,,,,,,,,,,,,,,1,001,2025-01-14_14h09.00.075,IAT(Formal),2021.2.3,Win32,119.047619,,,,,,,,,,,,,,,e,1,0.5589,,,,,,俺,e,,,1,67,147,4,1,,,,,,,,,,,,,,,,,,,,,,,,,,,,,,,,,,
,,,,,,,,,,,,,,1,001,2025-01-14_14h09.00.075,IAT(Formal),2021.2.3,Win32,119.047619,,,,,,,,,,,,,,,e,1,0.3501,,,,,,我,e,,,1,68,148,70,1,,,,,,,,,,,,,,,,,,,,,,,,,,,,,,,,,,
,,,,,,,,,,,,,,1,001,2025-01-14_14h09.00.075,IAT(Formal),2021.2.3,Win32,119.047619,,,,,,,,,,,,,,,i,1,0.3759,,,,,,他,i,,,1,69,149,75,1,,,,,,,,,,,,,,,,,,,,,,,,,,,,,,,,,,
,,,,,,,,,,,,,,1,001,2025-01-14_14h09.00.075,IAT(Formal),2021.2.3,Win32,119.047619,,,,,,,,,,,,,,,e,1,0.6085,,,,,,诚恳,e,,,1,70,150,29,1,,,,,,,,,,,,,,,,,,,,,,,,,,,,,,,,,,
,,,,,,,,,,,,,,1,001,2025-01-14_14h09.00.075,IAT(Formal),2021.2.3,Win32,119.047619,,,,,,,,,,,,,,,e,1,0.4163,,,,,,我的,e,,,1,71,151,51,1,,,,,,,,,,,,,,,,,,,,,,,,,,,,,,,,,,
,,,,,,,,,,,,,,1,001,2025-01-14_14h09.00.075,IAT(Formal),2021.2.3,Win32,119.047619,,,,,,,,,,,,,,,e,1,0.5679,,,,,,朴实,e,,,1,72,152,24,1,,,,,,,,,,,,,,,,,,,,,,,,,,,,,,,,,,
,,,,,,,,,,,,,,1,001,2025-01-14_14h09.00.075,IAT(Formal),2021.2.3,Win32,119.047619,,,,,,,,,,,,,,,i,1,0.4167,,,,,,他人,i,,,1,73,153,58,1,,,,,,,,,,,,,,,,,,,,,,,,,,,,,,,,,,
,,,,,,,,,,,,,,1,001,2025-01-14_14h09.00.075,IAT(Formal),2021.2.3,Win32,119.047619,,,,,,,,,,,,,,,e,1,0.5011,,,,,,我们,e,,,1,74,154,52,1,,,,,,,,,,,,,,,,,,,,,,,,,,,,,,,,,,
,,,,,,,,,,,,,,1,001,2025-01-14_14h09.00.075,IAT(Formal),2021.2.3,Win32,119.047619,,,,,,,,,,,,,,,i,1,0.4109,,,,,,他人,i,,,1,75,155,68,1,,,,,,,,,,,,,,,,,,,,,,,,,,,,,,,,,,
,,,,,,,,,,,,,,1,001,2025-01-14_14h09.00.075,IAT(Formal),2021.2.3,Win32,119.047619,,,,,,,,,,,,,,,i,1,0.6256,,,,,,悲观,i,,,1,76,156,34,1,,,,,,,,,,,,,,,,,,,,,,,,,,,,,,,,,,
,,,,,,,,,,,,,,1,001,2025-01-14_14h09.00.075,IAT(Formal),2021.2.3,Win32,119.047619,,,,,,,,,,,,,,,i,1,0.6184,,,,,,散漫,i,,,1,77,157,41,1,,,,,,,,,,,,,,,,,,,,,,,,,,,,,,,,,,
,,,,,,,,,,,,,,1,001,2025-01-14_14h09.00.075,IAT(Formal),2021.2.3,Win32,119.047619,,,,,,,,,,,,,,,e,1,0.4936,,,,,,我,e,,,1,78,158,50,1,,,,,,,,,,,,,,,,,,,,,,,,,,,,,,,,,,
,,,,,,,,,,,,,,1,001,2025-01-14_14h09.00.075,IAT(Formal),2021.2.3,Win32,119.047619,,,,,,,,,,,,,,,e,1,0.592,,,,,,稳重,e,,,1,79,159,21,1,,,,,,,,,,,,,,,,,,,,,,,,,,,,,,,,,,
,,,,,,,,,,,,自己,i,1,001,2025-01-14_14h09.00.075,IAT(Formal),2021.2.3,Win32,119.047619,,,,,,,,,,,,,,,,,,,,,,,,,,,,,,,,space,16.9208,i,1,0.5184,0,0,0,3,1,,,,,,,,,,,,,,,,,,,,,,,,
,,,,,,,,,,,,他,e,1,001,2025-01-14_14h09.00.075,IAT(Formal),2021.2.3,Win32,119.047619,,,,,,,,,,,,,,,,,,,,,,,,,,,,,,,,,,e,1,0.3654,0,1,1,5,1,,,,,,,,,,,,,,,,,,,,,,,,
,,,,,,,,,,,,我们,i,1,001,2025-01-14_14h09.00.075,IAT(Formal),2021.2.3,Win32,119.047619,,,,,,,,,,,,,,,,,,,,,,,,,,,,,,,,,,i,1,0.5943,0,2,2,2,1,,,,,,,,,,,,,,,,,,,,,,,,
,,,,,,,,,,,,他的,e,1,001,2025-01-14_14h09.00.075,IAT(Formal),2021.2.3,Win32,119.047619,,,,,,,,,,,,,,,,,,,,,,,,,,,,,,,,,,e,1,0.4571,0,3,3,7,1,,,,,,,,,,,,,,,,,,,,,,,,
,,,,,,,,,,,,我的,i,1,001,2025-01-14_14h09.00.075,IAT(Formal),2021.2.3,Win32,119.047619,,,,,,,,,,,,,,,,,,,,,,,,,,,,,,,,,,i,1,0.3575,0,4,4,1,1,,,,,,,,,,,,,,,,,,,,,,,,
,,,,,,,,,,,,他人,e,1,001,2025-01-14_14h09.00.075,IAT(Formal),2021.2.3,Win32,119.047619,,,,,,,,,,,,,,,,,,,,,,,,,,,,,,,,,,e,1,0.4412,0,5,5,8,1,,,,,,,,,,,,,,,,,,,,,,,,
,,,,,,,,,,,,他们,e,1,001,2025-01-14_14h09.00.075,IAT(Formal),2021.2.3,Win32,119.047619,,,,,,,,,,,,,,,,,,,,,,,,,,,,,,,,,,e,1,0.326,0,6,6,6,1,,,,,,,,,,,,,,,,,,,,,,,,
,,,,,,,,,,,,我,i,1,001,2025-01-14_14h09.00.075,IAT(Formal),2021.2.3,Win32,119.047619,,,,,,,,,,,,,,,,,,,,,,,,,,,,,,,,,,i,1,0.457,0,7,7,0,1,,,,,,,,,,,,,,,,,,,,,,,,
,,,,,,,,,,,,俺,i,1,001,2025-01-14_14h09.00.075,IAT(Formal),2021.2.3,Win32,119.047619,,,,,,,,,,,,,,,,,,,,,,,,,,,,,,,,,,i,1,0.5088,0,8,8,4,1,,,,,,,,,,,,,,,,,,,,,,,,
,,,,,,,,,,,,其他,e,1,001,2025-01-14_14h09.00.075,IAT(Formal),2021.2.3,Win32,119.047619,,,,,,,,,,,,,,,,,,,,,,,,,,,,,,,,,,e,1,0.4433,0,9,9,9,1,,,,,,,,,,,,,,,,,,,,,,,,
,,,,,,,,,,,,,,1,001,2025-01-14_14h09.00.075,IAT(Formal),2021.2.3,Win32,119.047619,,,,,,,,,,,,,,,,,,,,,,,,,,,,,,,,,,,,,,,,,,space,5.2588,,0,0,0,0,25,1,细腻,e,,,,,,,,,,,,,
,,,,,,,,,,,,,,1,001,2025-01-14_14h09.00.075,IAT(Formal),2021.2.3,Win32,119.047619,,,,,,,,,,,,,,,,,,,,,,,,,,,,,,,,,,,,,,,,,,,,i,1,0,1,1,73,1,自己,i,0.8168,,,,,,,,,,,,
,,,,,,,,,,,,,,1,001,2025-01-14_14h09.00.075,IAT(Formal),2021.2.3,Win32,119.047619,,,,,,,,,,,,,,,,,,,,,,,,,,,,,,,,,,,,,,,,,,,,e,1,0,2,2,67,1,他的,e,0.6272,,,,,,,,,,,,
,,,,,,,,,,,,,,1,001,2025-01-14_14h09.00.075,IAT(Formal),2021.2.3,Win32,119.047619,,,,,,,,,,,,,,,,,,,,,,,,,,,,,,,,,,,,,,,,,,,,e,1,0,3,3,57,1,他的,e,0.5518,,,,,,,,,,,,
,,,,,,,,,,,,,,1,001,2025-01-14_14h09.00.075,IAT(Formal),2021.2.3,Win32,119.047619,,,,,,,,,,,,,,,,,,,,,,,,,,,,,,,,,,,,,,,,,,,,e,1,0,4,4,58,1,他人,e,0.5288,,,,,,,,,,,,
,,,,,,,,,,,,,,1,001,2025-01-14_14h09.00.075,IAT(Formal),2021.2.3,Win32,119.047619,,,,,,,,,,,,,,,,,,,,,,,,,,,,,,,,,,,,,,,,,,,,i,1,0,5,5,52,1,我们,i,0.5508,,,,,,,,,,,,
,,,,,,,,,,,,,,1,001,2025-01-14_14h09.00.075,IAT(Formal),2021.2.3,Win32,119.047619,,,,,,,,,,,,,,,,,,,,,,,,,,,,,,,,,,,,,,,,,,,,i,0,0,6,6,14,1,乐观,e,0.8641,,,,,,,,,,,,
,,,,,,,,,,,,,,1,001,2025-01-14_14h09.00.075,IAT(Formal),2021.2.3,Win32,119.047619,,,,,,,,,,,,,,,,,,,,,,,,,,,,,,,,,,,,,,,,,,,,e,1,0,7,7,6,1,他们,e,0.645,,,,,,,,,,,,
,,,,,,,,,,,,,,1,001,2025-01-14_14h09.00.075,IAT(Formal),2021.2.3,Win32,119.047619,,,,,,,,,,,,,,,,,,,,,,,,,,,,,,,,,,,,,,,,,,,,,0,0,8,8,10,1,优秀,e,,,,,,,,,,,,,
,,,,,,,,,,,,,,1,001,2025-01-14_14h09.00.075,IAT(Formal),2021.2.3,Win32,119.047619,,,,,,,,,,,,,,,,,,,,,,,,,,,,,,,,,,,,,,,,,,,,i,0,0,9,9,21,1,稳重,e,1.3858,,,,,,,,,,,,
,,,,,,,,,,,,,,1,001,2025-01-14_14h09.00.075,IAT(Formal),2021.2.3,Win32,119.047619,,,,,,,,,,,,,,,,,,,,,,,,,,,,,,,,,,,,,,,,,,,,i,1,0,10,10,71,1,我的,i,0.7505,,,,,,,,,,,,
,,,,,,,,,,,,,,1,001,2025-01-14_14h09.00.075,IAT(Formal),2021.2.3,Win32,119.047619,,,,,,,,,,,,,,,,,,,,,,,,,,,,,,,,,,,,,,,,,,,,i,1,0,11,11,2,1,我们,i,0.5276,,,,,,,,,,,,
,,,,,,,,,,,,,,1,001,2025-01-14_14h09.00.075,IAT(Formal),2021.2.3,Win32,119.047619,,,,,,,,,,,,,,,,,,,,,,,,,,,,,,,,,,,,,,,,,,,,e,1,0,12,12,77,1,他的,e,0.5077,,,,,,,,,,,,
,,,,,,,,,,,,,,1,001,2025-01-14_14h09.00.075,IAT(Formal),2021.2.3,Win32,119.047619,,,,,,,,,,,,,,,,,,,,,,,,,,,,,,,,,,,,,,,,,,,,e,0,0,13,13,34,1,悲观,i,0.7675,,,,,,,,,,,,
,,,,,,,,,,,,,,1,001,2025-01-14_14h09.00.075,IAT(Formal),2021.2.3,Win32,119.047619,,,,,,,,,,,,,,,,,,,,,,,,,,,,,,,,,,,,,,,,,,,,e,1,0,14,14,75,1,他,e,0.4839,,,,,,,,,,,,
,,,,,,,,,,,,,,1,001,2025-01-14_14h09.00.075,IAT(Formal),2021.2.3,Win32,119.047619,,,,,,,,,,,,,,,,,,,,,,,,,,,,,,,,,,,,,,,,,,,,i,0,0,15,15,12,1,聪明,e,1.0308,,,,,,,,,,,,
,,,,,,,,,,,,,,1,001,2025-01-14_14h09.00.075,IAT(Formal),2021.2.3,Win32,119.047619,,,,,,,,,,,,,,,,,,,,,,,,,,,,,,,,,,,,,,,,,,,,,0,0,16,16,46,1,野蛮,i,,,,,,,,,,,,,
,,,,,,,,,,,,,,1,001,2025-01-14_14h09.00.075,IAT(Formal),2021.2.3,Win32,119.047619,,,,,,,,,,,,,,,,,,,,,,,,,,,,,,,,,,,,,,,,,,,,i,0,0,17,17,19,1,机智,e,0.9397,,,,,,,,,,,,
,,,,,,,,,,,,,,1,001,2025-01-14_14h09.00.075,IAT(Formal),2021.2.3,Win32,119.047619,,,,,,,,,,,,,,,,,,,,,,,,,,,,,,,,,,,,,,,,,,,,e,1,0,18,18,13,1,杰出,e,1.4421,,,,,,,,,,,,
,,,,,,,,,,,,,,1,001,2025-01-14_14h09.00.075,IAT(Formal),2021.2.3,Win32,119.047619,,,,,,,,,,,,,,,,,,,,,,,,,,,,,,,,,,,,,,,,,,,,e,1,0,19,19,17,1,勇敢,e,0.513,,,,,,,,,,,,
,,,,,,,,,,,,,,1,001,2025-01-14_14h09.00.075,IAT(Formal),2021.2.3,Win32,119.047619,,,,,,,,,,,,,,,,,,,,,,,,,,,,,,,,,,,,,,,,,,,,i,1,0,20,20,70,1,我,i,0.6336,,,,,,,,,,,,
,,,,,,,,,,,,,,1,001,2025-01-14_14h09.00.075,IAT(Formal),2021.2.3,Win32,119.047619,,,,,,,,,,,,,,,,,,,,,,,,,,,,,,,,,,,,,,,,,,,,i,1,0,21,21,60,1,我,i,0.483,,,,,,,,,,,,
,,,,,,,,,,,,,,1,001,2025-01-14_14h09.00.075,IAT(Formal),2021.2.3,Win32,119.047619,,,,,,,,,,,,,,,,,,,,,,,,,,,,,,,,,,,,,,,,,,,,e,1,0,22,22,29,1,诚恳,e,0.9202,,,,,,,,,,,,
,,,,,,,,,,,,,,1,001,2025-01-14_14h09.00.075,IAT(Formal),2021.2.3,Win32,119.047619,,,,,,,,,,,,,,,,,,,,,,,,,,,,,,,,,,,,,,,,,,,,e,1,0,23,23,20,1,认真,e,0.6055,,,,,,,,,,,,
,,,,,,,,,,,,,,1,001,2025-01-14_14h09.00.075,IAT(Formal),2021.2.3,Win32,119.047619,,,,,,,,,,,,,,,,,,,,,,,,,,,,,,,,,,,,,,,,,,,,i,1,0,24,24,35,1,消极,i,0.9141,,,,,,,,,,,,
,,,,,,,,,,,,,,1,001,2025-01-14_14h09.00.075,IAT(Formal),2021.2.3,Win32,119.047619,,,,,,,,,,,,,,,,,,,,,,,,,,,,,,,,,,,,,,,,,,,,e,1,0,25,25,79,1,其他,e,0.6375,,,,,,,,,,,,
,,,,,,,,,,,,,,1,001,2025-01-14_14h09.00.075,IAT(Formal),2021.2.3,Win32,119.047619,,,,,,,,,,,,,,,,,,,,,,,,,,,,,,,,,,,,,,,,,,,,i,1,0,26,26,44,1,暴躁,i,0.6433,,,,,,,,,,,,
,,,,,,,,,,,,,,1,001,2025-01-14_14h09.00.075,IAT(Formal),2021.2.3,Win32,119.047619,,,,,,,,,,,,,,,,,,,,,,,,,,,,,,,,,,,,,,,,,,,,e,1,0,27,27,18,1,勤奋,e,0.7672,,,,,,,,,,,,
,,,,,,,,,,,,,,1,001,2025-01-14_14h09.00.075,IAT(Formal),2021.2.3,Win32,119.047619,,,,,,,,,,,,,,,,,,,,,,,,,,,,,,,,,,,,,,,,,,,,e,1,0,28,28,66,1,他们,e,0.5323,,,,,,,,,,,,
,,,,,,,,,,,,,,1,001,2025-01-14_14h09.00.075,IAT(Formal),2021.2.3,Win32,119.047619,,,,,,,,,,,,,,,,,,,,,,,,,,,,,,,,,,,,,,,,,,,,i,1,0,29,29,4,1,俺,i,0.4838,,,,,,,,,,,,
,,,,,,,,,,,,,,1,001,2025-01-14_14h09.00.075,IAT(Formal),2021.2.3,Win32,119.047619,,,,,,,,,,,,,,,,,,,,,,,,,,,,,,,,,,,,,,,,,,,,i,1,0,30,30,0,1,我,i,0.5346,,,,,,,,,,,,
,,,,,,,,,,,,,,1,001,2025-01-14_14h09.00.075,IAT(Formal),2021.2.3,Win32,119.047619,,,,,,,,,,,,,,,,,,,,,,,,,,,,,,,,,,,,,,,,,,,,e,1,0,31,31,9,1,其他,e,0.5161,,,,,,,,,,,,
,,,,,,,,,,,,,,1,001,2025-01-14_14h09.00.075,IAT(Formal),2021.2.3,Win32,119.047619,,,,,,,,,,,,,,,,,,,,,,,,,,,,,,,,,,,,,,,,,,,,e,1,0,32,32,28,1,活泼,e,0.7884,,,,,,,,,,,,
,,,,,,,,,,,,,,1,001,2025-01-14_14h09.00.075,IAT(Formal),2021.2.3,Win32,119.047619,,,,,,,,,,,,,,,,,,,,,,,,,,,,,,,,,,,,,,,,,,,,e,1,0,33,33,8,1,他人,e,0.4492,,,,,,,,,,,,
,,,,,,,,,,,,,,1,001,2025-01-14_14h09.00.075,IAT(Formal),2021.2.3,Win32,119.047619,,,,,,,,,,,,,,,,,,,,,,,,,,,,,,,,,,,,,,,,,,,,i,1,0,34,34,1,1,我的,i,0.5225,,,,,,,,,,,,
,,,,,,,,,,,,,,1,001,2025-01-14_14h09.00.075,IAT(Formal),2021.2.3,Win32,119.047619,,,,,,,,,,,,,,,,,,,,,,,,,,,,,,,,,,,,,,,,,,,,i,1,0,35,35,36,1,自卑,i,0.8347,,,,,,,,,,,,
,,,,,,,,,,,,,,1,001,2025-01-14_14h09.00.075,IAT(Formal),2021.2.3,Win32,119.047619,,,,,,,,,,,,,,,,,,,,,,,,,,,,,,,,,,,,,,,,,,,,i,1,0,36,36,42,1,凶狠,i,1.1886,,,,,,,,,,,,
,,,,,,,,,,,,,,1,001,2025-01-14_14h09.00.075,IAT(Formal),2021.2.3,Win32,119.047619,,,,,,,,,,,,,,,,,,,,,,,,,,,,,,,,,,,,,,,,,,,,e,1,0,37,37,56,1,他们,e,0.4569,,,,,,,,,,,,
,,,,,,,,,,,,,,1,001,2025-01-14_14h09.00.075,IAT(Formal),2021.2.3,Win32,119.047619,,,,,,,,,,,,,,,,,,,,,,,,,,,,,,,,,,,,,,,,,,,,i,1,0,38,38,41,1,散漫,i,0.8471,,,,,,,,,,,,
,,,,,,,,,,,,,,1,001,2025-01-14_14h09.00.075,IAT(Formal),2021.2.3,Win32,119.047619,,,,,,,,,,,,,,,,,,,,,,,,,,,,,,,,,,,,,,,,,,,,i,1,0,39,39,62,1,我们,i,0.5249,,,,,,,,,,,,
,,,,,,,,,,,,,,1,001,2025-01-14_14h09.00.075,IAT(Formal),2021.2.3,Win32,119.047619,,,,,,,,,,,,,,,,,,,,,,,,,,,,,,,,,,,,,,,,,,,,e,1,0,40,40,78,1,他人,e,0.4485,,,,,,,,,,,,
,,,,,,,,,,,,,,1,001,2025-01-14_14h09.00.075,IAT(Formal),2021.2.3,Win32,119.047619,,,,,,,,,,,,,,,,,,,,,,,,,,,,,,,,,,,,,,,,,,,,i,1,0,41,41,49,1,下贱,i,0.7281,,,,,,,,,,,,
,,,,,,,,,,,,,,1,001,2025-01-14_14h09.00.075,IAT(Formal),2021.2.3,Win32,119.047619,,,,,,,,,,,,,,,,,,,,,,,,,,,,,,,,,,,,,,,,,,,,i,1,0,42,42,53,1,自己,i,0.4517,,,,,,,,,,,,
,,,,,,,,,,,,,,1,001,2025-01-14_14h09.00.075,IAT(Formal),2021.2.3,Win32,119.047619,,,,,,,,,,,,,,,,,,,,,,,,,,,,,,,,,,,,,,,,,,,,i,1,0,43,43,51,1,我的,i,0.5675,,,,,,,,,,,,
,,,,,,,,,,,,,,1,001,2025-01-14_14h09.00.075,IAT(Formal),2021.2.3,Win32,119.047619,,,,,,,,,,,,,,,,,,,,,,,,,,,,,,,,,,,,,,,,,,,,i,1,0,44,44,45,1,猖狂,i,0.8716,,,,,,,,,,,,
,,,,,,,,,,,,,,1,001,2025-01-14_14h09.00.075,IAT(Formal),2021.2.3,Win32,119.047619,,,,,,,,,,,,,,,,,,,,,,,,,,,,,,,,,,,,,,,,,,,,i,1,0,45,45,3,1,自己,i,0.4734,,,,,,,,,,,,
,,,,,,,,,,,,,,1,001,2025-01-14_14h09.00.075,IAT(Formal),2021.2.3,Win32,119.047619,,,,,,,,,,,,,,,,,,,,,,,,,,,,,,,,,,,,,,,,,,,,e,1,0,46,46,26,1,冷静,e,0.7769,,,,,,,,,,,,
,,,,,,,,,,,,,,1,001,2025-01-14_14h09.00.075,IAT(Formal),2021.2.3,Win32,119.047619,,,,,,,,,,,,,,,,,,,,,,,,,,,,,,,,,,,,,,,,,,,,i,1,0,47,47,72,1,我们,i,0.5833,,,,,,,,,,,,
,,,,,,,,,,,,,,1,001,2025-01-14_14h09.00.075,IAT(Formal),2021.2.3,Win32,119.047619,,,,,,,,,,,,,,,,,,,,,,,,,,,,,,,,,,,,,,,,,,,,i,1,0,48,48,50,1,我,i,0.4526,,,,,,,,,,,,
,,,,,,,,,,,,,,1,001,2025-01-14_14h09.00.075,IAT(Formal),2021.2.3,Win32,119.047619,,,,,,,,,,,,,,,,,,,,,,,,,,,,,,,,,,,,,,,,,,,,i,1,0,49,49,47,1,固执,i,0.7148,,,,,,,,,,,,
,,,,,,,,,,,,,,1,001,2025-01-14_14h09.00.075,IAT(Formal),2021.2.3,Win32,119.047619,,,,,,,,,,,,,,,,,,,,,,,,,,,,,,,,,,,,,,,,,,,,e,1,0,50,50,59,1,其他,e,0.617,,,,,,,,,,,,
,,,,,,,,,,,,,,1,001,2025-01-14_14h09.00.075,IAT(Formal),2021.2.3,Win32,119.047619,,,,,,,,,,,,,,,,,,,,,,,,,,,,,,,,,,,,,,,,,,,,e,1,0,51,51,22,1,无私,e,1.0564,,,,,,,,,,,,
,,,,,,,,,,,,,,1,001,2025-01-14_14h09.00.075,IAT(Formal),2021.2.3,Win32,119.047619,,,,,,,,,,,,,,,,,,,,,,,,,,,,,,,,,,,,,,,,,,,,i,1,0,52,52,30,1,卑鄙,i,0.4812,,,,,,,,,,,,
,,,,,,,,,,,,,,1,001,2025-01-14_14h09.00.075,IAT(Formal),2021.2.3,Win32,119.047619,,,,,,,,,,,,,,,,,,,,,,,,,,,,,,,,,,,,,,,,,,,,i,1,0,53,53,31,1,虚伪,i,1.0999,,,,,,,,,,,,
,,,,,,,,,,,,,,1,001,2025-01-14_14h09.00.075,IAT(Formal),2021.2.3,Win32,119.047619,,,,,,,,,,,,,,,,,,,,,,,,,,,,,,,,,,,,,,,,,,,,e,1,0,54,54,55,1,他,e,0.4929,,,,,,,,,,,,
,,,,,,,,,,,,,,1,001,2025-01-14_14h09.00.075,IAT(Formal),2021.2.3,Win32,119.047619,,,,,,,,,,,,,,,,,,,,,,,,,,,,,,,,,,,,,,,,,,,,i,1,0,55,55,74,1,俺,i,0.9487,,,,,,,,,,,,
,,,,,,,,,,,,,,1,001,2025-01-14_14h09.00.075,IAT(Formal),2021.2.3,Win32,119.047619,,,,,,,,,,,,,,,,,,,,,,,,,,,,,,,,,,,,,,,,,,,,i,1,0,56,56,33,1,刻薄,i,0.376,,,,,,,,,,,,
,,,,,,,,,,,,,,1,001,2025-01-14_14h09.00.075,IAT(Formal),2021.2.3,Win32,119.047619,,,,,,,,,,,,,,,,,,,,,,,,,,,,,,,,,,,,,,,,,,,,i,1,0,57,57,54,1,俺,i,0.5343,,,,,,,,,,,,
,,,,,,,,,,,,,,1,001,2025-01-14_14h09.00.075,IAT(Formal),2021.2.3,Win32,119.047619,,,,,,,,,,,,,,,,,,,,,,,,,,,,,,,,,,,,,,,,,,,,i,1,0,58,58,64,1,俺,i,0.425,,,,,,,,,,,,
,,,,,,,,,,,,,,1,001,2025-01-14_14h09.00.075,IAT(Formal),2021.2.3,Win32,119.047619,,,,,,,,,,,,,,,,,,,,,,,,,,,,,,,,,,,,,,,,,,,,e,0,0,59,59,61,1,我的,i,0.4305,,,,,,,,,,,,
,,,,,,,,,,,,,,1,001,2025-01-14_14h09.00.075,IAT(Formal),2021.2.3,Win32,119.047619,,,,,,,,,,,,,,,,,,,,,,,,,,,,,,,,,,,,,,,,,,,,i,1,0,60,60,37,1,傲慢,i,0.7213,,,,,,,,,,,,
,,,,,,,,,,,,,,1,001,2025-01-14_14h09.00.075,IAT(Formal),2021.2.3,Win32,119.047619,,,,,,,,,,,,,,,,,,,,,,,,,,,,,,,,,,,,,,,,,,,,i,1,0,61,61,39,1,冒失,i,0.6969,,,,,,,,,,,,
,,,,,,,,,,,,,,1,001,2025-01-14_14h09.00.075,IAT(Formal),2021.2.3,Win32,119.047619,,,,,,,,,,,,,,,,,,,,,,,,,,,,,,,,,,,,,,,,,,,,e,1,0,62,62,69,1,其他,e,1.4851,,,,,,,,,,,,
,,,,,,,,,,,,,,1,001,2025-01-14_14h09.00.075,IAT(Formal),2021.2.3,Win32,119.047619,,,,,,,,,,,,,,,,,,,,,,,,,,,,,,,,,,,,,,,,,,,,i,1,0,63,63,48,1,轻率,i,0.6501,,,,,,,,,,,,
,,,,,,,,,,,,,,1,001,2025-01-14_14h09.00.075,IAT(Formal),2021.2.3,Win32,119.047619,,,,,,,,,,,,,,,,,,,,,,,,,,,,,,,,,,,,,,,,,,,,e,1,0,64,64,68,1,他人,e,0.5496,,,,,,,,,,,,
,,,,,,,,,,,,,,1,001,2025-01-14_14h09.00.075,IAT(Formal),2021.2.3,Win32,119.047619,,,,,,,,,,,,,,,,,,,,,,,,,,,,,,,,,,,,,,,,,,,,i,1,0,65,65,43,1,自私,i,1.2971,,,,,,,,,,,,
,,,,,,,,,,,,,,1,001,2025-01-14_14h09.00.075,IAT(Formal),2021.2.3,Win32,119.047619,,,,,,,,,,,,,,,,,,,,,,,,,,,,,,,,,,,,,,,,,,,,e,1,0,66,66,24,1,朴实,e,0.782,,,,,,,,,,,,
,,,,,,,,,,,,,,1,001,2025-01-14_14h09.00.075,IAT(Formal),2021.2.3,Win32,119.047619,,,,,,,,,,,,,,,,,,,,,,,,,,,,,,,,,,,,,,,,,,,,i,1,0,67,67,38,1,鲁莽,i,0.5037,,,,,,,,,,,,
,,,,,,,,,,,,,,1,001,2025-01-14_14h09.00.075,IAT(Formal),2021.2.3,Win32,119.047619,,,,,,,,,,,,,,,,,,,,,,,,,,,,,,,,,,,,,,,,,,,,e,1,0,68,68,16,1,正直,e,0.577,,,,,,,,,,,,
,,,,,,,,,,,,,,1,001,2025-01-14_14h09.00.075,IAT(Formal),2021.2.3,Win32,119.047619,,,,,,,,,,,,,,,,,,,,,,,,,,,,,,,,,,,,,,,,,,,,i,1,0,69,69,63,1,自己,i,0.5288,,,,,,,,,,,,
,,,,,,,,,,,,,,1,001,2025-01-14_14h09.00.075,IAT(Formal),2021.2.3,Win32,119.047619,,,,,,,,,,,,,,,,,,,,,,,,,,,,,,,,,,,,,,,,,,,,e,1,0,70,70,76,1,他们,e,0.5,,,,,,,,,,,,
,,,,,,,,,,,,,,1,001,2025-01-14_14h09.00.075,IAT(Formal),2021.2.3,Win32,119.047619,,,,,,,,,,,,,,,,,,,,,,,,,,,,,,,,,,,,,,,,,,,,e,1,0,71,71,23,1,公正,e,0.8988,,,,,,,,,,,,
,,,,,,,,,,,,,,1,001,2025-01-14_14h09.00.075,IAT(Formal),2021.2.3,Win32,119.047619,,,,,,,,,,,,,,,,,,,,,,,,,,,,,,,,,,,,,,,,,,,,e,1,0,72,72,11,1,崇高,e,0.5647,,,,,,,,,,,,
,,,,,,,,,,,,,,1,001,2025-01-14_14h09.00.075,IAT(Formal),2021.2.3,Win32,119.047619,,,,,,,,,,,,,,,,,,,,,,,,,,,,,,,,,,,,,,,,,,,,e,1,0,73,73,5,1,他,e,0.6766,,,,,,,,,,,,
,,,,,,,,,,,,,,1,001,2025-01-14_14h09.00.075,IAT(Formal),2021.2.3,Win32,119.047619,,,,,,,,,,,,,,,,,,,,,,,,,,,,,,,,,,,,,,,,,,,,e,1,0,74,74,15,1,诚实,e,0.5341,,,,,,,,,,,,
,,,,,,,,,,,,,,1,001,2025-01-14_14h09.00.075,IAT(Formal),2021.2.3,Win32,119.047619,,,,,,,,,,,,,,,,,,,,,,,,,,,,,,,,,,,,,,,,,,,,e,0,0,75,75,40,1,执拗,i,0.4649,,,,,,,,,,,,
,,,,,,,,,,,,,,1,001,2025-01-14_14h09.00.075,IAT(Formal),2021.2.3,Win32,119.047619,,,,,,,,,,,,,,,,,,,,,,,,,,,,,,,,,,,,,,,,,,,,i,1,0,76,76,32,1,愚蠢,i,0.6372,,,,,,,,,,,,
,,,,,,,,,,,,,,1,001,2025-01-14_14h09.00.075,IAT(Formal),2021.2.3,Win32,119.047619,,,,,,,,,,,,,,,,,,,,,,,,,,,,,,,,,,,,,,,,,,,,e,1,0,77,77,65,1,他,e,0.7379,,,,,,,,,,,,
,,,,,,,,,,,,,,1,001,2025-01-14_14h09.00.075,IAT(Formal),2021.2.3,Win32,119.047619,,,,,,,,,,,,,,,,,,,,,,,,,,,,,,,,,,,,,,,,,,,,e,1,0,78,78,7,1,他的,e,0.451,,,,,,,,,,,,
,,,,,,,,,,,,,,1,001,2025-01-14_14h09.00.075,IAT(Formal),2021.2.3,Win32,119.047619,,,,,,,,,,,,,,,,,,,,,,,,,,,,,,,,,,,,,,,,,,,,e,1,0,79,79,27,1,热情,e,0.6726,,,,,,,,,,,,
,,,,,,,,,,,,,,1,001,2025-01-14_14h09.00.075,IAT(Formal),2021.2.3,Win32,119.047619,,,,,,,,,,,,,,,,,,,,,,,,,,,,,,,,,,,,,,,,,,,,,,,,,,,俺,i,,space,5.2049,i,1,1.2336,0,0,0,64,1,,
,,,,,,,,,,,,,,1,001,2025-01-14_14h09.00.075,IAT(Formal),2021.2.3,Win32,119.047619,,,,,,,,,,,,,,,,,,,,,,,,,,,,,,,,,,,,,,,,,,,,,,,,,,,他人,e,,,,e,1,0.5426,0,1,1,68,1,,
,,,,,,,,,,,,,,1,001,2025-01-14_14h09.00.075,IAT(Formal),2021.2.3,Win32,119.047619,,,,,,,,,,,,,,,,,,,,,,,,,,,,,,,,,,,,,,,,,,,,,,,,,,,固执,i,,,,i,1,0.627,0,2,2,47,1,,
,,,,,,,,,,,,,,1,001,2025-01-14_14h09.00.075,IAT(Formal),2021.2.3,Win32,119.047619,,,,,,,,,,,,,,,,,,,,,,,,,,,,,,,,,,,,,,,,,,,,,,,,,,,正直,e,,,,e,1,0.639,0,3,3,16,1,,
,,,,,,,,,,,,,,1,001,2025-01-14_14h09.00.075,IAT(Formal),2021.2.3,Win32,119.047619,,,,,,,,,,,,,,,,,,,,,,,,,,,,,,,,,,,,,,,,,,,,,,,,,,,勤奋,e,,,,e,1,0.9009,0,4,4,18,1,,
,,,,,,,,,,,,,,1,001,2025-01-14_14h09.00.075,IAT(Formal),2021.2.3,Win32,119.047619,,,,,,,,,,,,,,,,,,,,,,,,,,,,,,,,,,,,,,,,,,,,,,,,,,,他人,e,,,,e,1,0.483,0,5,5,58,1,,
,,,,,,,,,,,,,,1,001,2025-01-14_14h09.00.075,IAT(Formal),2021.2.3,Win32,119.047619,,,,,,,,,,,,,,,,,,,,,,,,,,,,,,,,,,,,,,,,,,,,,,,,,,,自己,i,,,,i,1,0.476,0,6,6,73,1,,
,,,,,,,,,,,,,,1,001,2025-01-14_14h09.00.075,IAT(Formal),2021.2.3,Win32,119.047619,,,,,,,,,,,,,,,,,,,,,,,,,,,,,,,,,,,,,,,,,,,,,,,,,,,暴躁,i,,,,i,1,0.4708,0,7,7,44,1,,
,,,,,,,,,,,,,,1,001,2025-01-14_14h09.00.075,IAT(Formal),2021.2.3,Win32,119.047619,,,,,,,,,,,,,,,,,,,,,,,,,,,,,,,,,,,,,,,,,,,,,,,,,,,认真,e,,,,e,1,0.8397,0,8,8,20,1,,
,,,,,,,,,,,,,,1,001,2025-01-14_14h09.00.075,IAT(Formal),2021.2.3,Win32,119.047619,,,,,,,,,,,,,,,,,,,,,,,,,,,,,,,,,,,,,,,,,,,,,,,,,,,无私,e,,,,e,1,0.8339,0,9,9,22,1,,
,,,,,,,,,,,,,,1,001,2025-01-14_14h09.00.075,IAT(Formal),2021.2.3,Win32,119.047619,,,,,,,,,,,,,,,,,,,,,,,,,,,,,,,,,,,,,,,,,,,,,,,,,,,自卑,i,,,,i,1,0.6501,0,10,10,36,1,,
,,,,,,,,,,,,,,1,001,2025-01-14_14h09.00.075,IAT(Formal),2021.2.3,Win32,119.047619,,,,,,,,,,,,,,,,,,,,,,,,,,,,,,,,,,,,,,,,,,,,,,,,,,,我们,i,,,,i,1,0.5925,0,11,11,2,1,,
,,,,,,,,,,,,,,1,001,2025-01-14_14h09.00.075,IAT(Formal),2021.2.3,Win32,119.047619,,,,,,,,,,,,,,,,,,,,,,,,,,,,,,,,,,,,,,,,,,,,,,,,,,,机智,e,,,,e,1,0.6332,0,12,12,19,1,,
,,,,,,,,,,,,,,1,001,2025-01-14_14h09.00.075,IAT(Formal),2021.2.3,Win32,119.047619,,,,,,,,,,,,,,,,,,,,,,,,,,,,,,,,,,,,,,,,,,,,,,,,,,,冷静,e,,,,e,1,0.7169,0,13,13,26,1,,
,,,,,,,,,,,,,,1,001,2025-01-14_14h09.00.075,IAT(Formal),2021.2.3,Win32,119.047619,,,,,,,,,,,,,,,,,,,,,,,,,,,,,,,,,,,,,,,,,,,,,,,,,,,我,i,,,,i,1,0.6519,0,14,14,60,1,,
,,,,,,,,,,,,,,1,001,2025-01-14_14h09.00.075,IAT(Formal),2021.2.3,Win32,119.047619,,,,,,,,,,,,,,,,,,,,,,,,,,,,,,,,,,,,,,,,,,,,,,,,,,,下贱,i,,,,i,1,0.5754,0,15,15,49,1,,
,,,,,,,,,,,,,,1,001,2025-01-14_14h09.00.075,IAT(Formal),2021.2.3,Win32,119.047619,,,,,,,,,,,,,,,,,,,,,,,,,,,,,,,,,,,,,,,,,,,,,,,,,,,他,e,,,,e,1,0.4746,0,16,16,75,1,,
,,,,,,,,,,,,,,1,001,2025-01-14_14h09.00.075,IAT(Formal),2021.2.3,Win32,119.047619,,,,,,,,,,,,,,,,,,,,,,,,,,,,,,,,,,,,,,,,,,,,,,,,,,,我,i,,,,i,1,0.4757,0,17,17,70,1,,
,,,,,,,,,,,,,,1,001,2025-01-14_14h09.00.075,IAT(Formal),2021.2.3,Win32,119.047619,,,,,,,,,,,,,,,,,,,,,,,,,,,,,,,,,,,,,,,,,,,,,,,,,,,猖狂,i,,,,i,1,0.5766,0,18,18,45,1,,
,,,,,,,,,,,,,,1,001,2025-01-14_14h09.00.075,IAT(Formal),2021.2.3,Win32,119.047619,,,,,,,,,,,,,,,,,,,,,,,,,,,,,,,,,,,,,,,,,,,,,,,,,,,其他,e,,,,e,1,0.5685,0,19,19,59,1,,
,,,,,,,,,,,,,,1,001,2025-01-14_14h09.00.075,IAT(Formal),2021.2.3,Win32,119.047619,,,,,,,,,,,,,,,,,,,,,,,,,,,,,,,,,,,,,,,,,,,,,,,,,,,冒失,i,,,,i,1,0.6589,0,20,20,39,1,,
,,,,,,,,,,,,,,1,001,2025-01-14_14h09.00.075,IAT(Formal),2021.2.3,Win32,119.047619,,,,,,,,,,,,,,,,,,,,,,,,,,,,,,,,,,,,,,,,,,,,,,,,,,,卑鄙,i,,,,i,1,0.5423,0,21,21,30,1,,
,,,,,,,,,,,,,,1,001,2025-01-14_14h09.00.075,IAT(Formal),2021.2.3,Win32,119.047619,,,,,,,,,,,,,,,,,,,,,,,,,,,,,,,,,,,,,,,,,,,,,,,,,,,他们,e,,,,e,1,0.451,0,22,22,6,1,,
,,,,,,,,,,,,,,1,001,2025-01-14_14h09.00.075,IAT(Formal),2021.2.3,Win32,119.047619,,,,,,,,,,,,,,,,,,,,,,,,,,,,,,,,,,,,,,,,,,,,,,,,,,,他们,e,,,,e,1,0.5111,0,23,23,66,1,,
,,,,,,,,,,,,,,1,001,2025-01-14_14h09.00.075,IAT(Formal),2021.2.3,Win32,119.047619,,,,,,,,,,,,,,,,,,,,,,,,,,,,,,,,,,,,,,,,,,,,,,,,,,,他人,e,,,,e,1,0.4762,0,24,24,8,1,,
,,,,,,,,,,,,,,1,001,2025-01-14_14h09.00.075,IAT(Formal),2021.2.3,Win32,119.047619,,,,,,,,,,,,,,,,,,,,,,,,,,,,,,,,,,,,,,,,,,,,,,,,,,,自己,i,,,,i,1,0.5007,0,25,25,53,1,,
,,,,,,,,,,,,,,1,001,2025-01-14_14h09.00.075,IAT(Formal),2021.2.3,Win32,119.047619,,,,,,,,,,,,,,,,,,,,,,,,,,,,,,,,,,,,,,,,,,,,,,,,,,,他的,e,,,,e,1,0.4792,0,26,26,77,1,,
,,,,,,,,,,,,,,1,001,2025-01-14_14h09.00.075,IAT(Formal),2021.2.3,Win32,119.047619,,,,,,,,,,,,,,,,,,,,,,,,,,,,,,,,,,,,,,,,,,,,,,,,,,,聪明,e,,,,e,1,0.6614,0,27,27,12,1,,
,,,,,,,,,,,,,,1,001,2025-01-14_14h09.00.075,IAT(Formal),2021.2.3,Win32,119.047619,,,,,,,,,,,,,,,,,,,,,,,,,,,,,,,,,,,,,,,,,,,,,,,,,,,细腻,e,,,,e,1,0.5863,0,28,28,25,1,,
,,,,,,,,,,,,,,1,001,2025-01-14_14h09.00.075,IAT(Formal),2021.2.3,Win32,119.047619,,,,,,,,,,,,,,,,,,,,,,,,,,,,,,,,,,,,,,,,,,,,,,,,,,,他人,e,,,,e,1,0.5762,0,29,29,78,1,,
,,,,,,,,,,,,,,1,001,2025-01-14_14h09.00.075,IAT(Formal),2021.2.3,Win32,119.047619,,,,,,,,,,,,,,,,,,,,,,,,,,,,,,,,,,,,,,,,,,,,,,,,,,,诚实,e,,,,e,1,0.5425,0,30,30,15,1,,
,,,,,,,,,,,,,,1,001,2025-01-14_14h09.00.075,IAT(Formal),2021.2.3,Win32,119.047619,,,,,,,,,,,,,,,,,,,,,,,,,,,,,,,,,,,,,,,,,,,,,,,,,,,我的,i,,,,i,1,0.7863,0,31,31,71,1,,
,,,,,,,,,,,,,,1,001,2025-01-14_14h09.00.075,IAT(Formal),2021.2.3,Win32,119.047619,,,,,,,,,,,,,,,,,,,,,,,,,,,,,,,,,,,,,,,,,,,,,,,,,,,我们,i,,,,i,1,0.5756,0,32,32,72,1,,
,,,,,,,,,,,,,,1,001,2025-01-14_14h09.00.075,IAT(Formal),2021.2.3,Win32,119.047619,,,,,,,,,,,,,,,,,,,,,,,,,,,,,,,,,,,,,,,,,,,,,,,,,,,我们,i,,,,i,1,0.3757,0,33,33,62,1,,
,,,,,,,,,,,,,,1,001,2025-01-14_14h09.00.075,IAT(Formal),2021.2.3,Win32,119.047619,,,,,,,,,,,,,,,,,,,,,,,,,,,,,,,,,,,,,,,,,,,,,,,,,,,他的,e,,,,e,1,0.4701,0,34,34,57,1,,
,,,,,,,,,,,,,,1,001,2025-01-14_14h09.00.075,IAT(Formal),2021.2.3,Win32,119.047619,,,,,,,,,,,,,,,,,,,,,,,,,,,,,,,,,,,,,,,,,,,,,,,,,,,公正,e,,,,e,1,0.5834,0,35,35,23,1,,
,,,,,,,,,,,,,,1,001,2025-01-14_14h09.00.075,IAT(Formal),2021.2.3,Win32,119.047619,,,,,,,,,,,,,,,,,,,,,,,,,,,,,,,,,,,,,,,,,,,,,,,,,,,崇高,e,,,,e,1,0.469,0,36,36,11,1,,
,,,,,,,,,,,,,,1,001,2025-01-14_14h09.00.075,IAT(Formal),2021.2.3,Win32,119.047619,,,,,,,,,,,,,,,,,,,,,,,,,,,,,,,,,,,,,,,,,,,,,,,,,,,刻薄,i,,,,i,1,0.7587,0,37,37,33,1,,
,,,,,,,,,,,,,,1,001,2025-01-14_14h09.00.075,IAT(Formal),2021.2.3,Win32,119.047619,,,,,,,,,,,,,,,,,,,,,,,,,,,,,,,,,,,,,,,,,,,,,,,,,,,消极,i,,,,i,1,0.5918,0,38,38,35,1,,
,,,,,,,,,,,,,,1,001,2025-01-14_14h09.00.075,IAT(Formal),2021.2.3,Win32,119.047619,,,,,,,,,,,,,,,,,,,,,,,,,,,,,,,,,,,,,,,,,,,,,,,,,,,悲观,i,,,,i,1,0.6518,0,39,39,34,1,,
,,,,,,,,,,,,,,1,001,2025-01-14_14h09.00.075,IAT(Formal),2021.2.3,Win32,119.047619,,,,,,,,,,,,,,,,,,,,,,,,,,,,,,,,,,,,,,,,,,,,,,,,,,,活泼,e,,,,e,1,0.9443,0,40,40,28,1,,
,,,,,,,,,,,,,,1,001,2025-01-14_14h09.00.075,IAT(Formal),2021.2.3,Win32,119.047619,,,,,,,,,,,,,,,,,,,,,,,,,,,,,,,,,,,,,,,,,,,,,,,,,,,凶狠,i,,,,i,1,1.1587,0,41,41,42,1,,
,,,,,,,,,,,,,,1,001,2025-01-14_14h09.00.075,IAT(Formal),2021.2.3,Win32,119.047619,,,,,,,,,,,,,,,,,,,,,,,,,,,,,,,,,,,,,,,,,,,,,,,,,,,我的,i,,,,i,1,0.5598,0,42,42,1,1,,
,,,,,,,,,,,,,,1,001,2025-01-14_14h09.00.075,IAT(Formal),2021.2.3,Win32,119.047619,,,,,,,,,,,,,,,,,,,,,,,,,,,,,,,,,,,,,,,,,,,,,,,,,,,诚恳,e,,,,e,1,0.7127,0,43,43,29,1,,
,,,,,,,,,,,,,,1,001,2025-01-14_14h09.00.075,IAT(Formal),2021.2.3,Win32,119.047619,,,,,,,,,,,,,,,,,,,,,,,,,,,,,,,,,,,,,,,,,,,,,,,,,,,俺,i,,,,i,1,0.5756,0,44,44,74,1,,
,,,,,,,,,,,,,,1,001,2025-01-14_14h09.00.075,IAT(Formal),2021.2.3,Win32,119.047619,,,,,,,,,,,,,,,,,,,,,,,,,,,,,,,,,,,,,,,,,,,,,,,,,,,其他,e,,,,e,1,0.4925,0,45,45,79,1,,
,,,,,,,,,,,,,,1,001,2025-01-14_14h09.00.075,IAT(Formal),2021.2.3,Win32,119.047619,,,,,,,,,,,,,,,,,,,,,,,,,,,,,,,,,,,,,,,,,,,,,,,,,,,自己,i,,,,i,1,0.4341,0,46,46,63,1,,
,,,,,,,,,,,,,,1,001,2025-01-14_14h09.00.075,IAT(Formal),2021.2.3,Win32,119.047619,,,,,,,,,,,,,,,,,,,,,,,,,,,,,,,,,,,,,,,,,,,,,,,,,,,虚伪,i,,,,i,1,0.492,0,47,47,31,1,,
,,,,,,,,,,,,,,1,001,2025-01-14_14h09.00.075,IAT(Formal),2021.2.3,Win32,119.047619,,,,,,,,,,,,,,,,,,,,,,,,,,,,,,,,,,,,,,,,,,,,,,,,,,,我的,i,,,,i,1,0.5499,0,48,48,51,1,,
,,,,,,,,,,,,,,1,001,2025-01-14_14h09.00.075,IAT(Formal),2021.2.3,Win32,119.047619,,,,,,,,,,,,,,,,,,,,,,,,,,,,,,,,,,,,,,,,,,,,,,,,,,,自私,i,,,,e,0,0.6518,0,49,49,43,1,,
,,,,,,,,,,,,,,1,001,2025-01-14_14h09.00.075,IAT(Formal),2021.2.3,Win32,119.047619,,,,,,,,,,,,,,,,,,,,,,,,,,,,,,,,,,,,,,,,,,,,,,,,,,,朴实,e,,,,e,1,0.5341,0,50,50,24,1,,
,,,,,,,,,,,,,,1,001,2025-01-14_14h09.00.075,IAT(Formal),2021.2.3,Win32,119.047619,,,,,,,,,,,,,,,,,,,,,,,,,,,,,,,,,,,,,,,,,,,,,,,,,,,他,e,,,,e,1,0.6674,0,51,51,5,1,,
,,,,,,,,,,,,,,1,001,2025-01-14_14h09.00.075,IAT(Formal),2021.2.3,Win32,119.047619,,,,,,,,,,,,,,,,,,,,,,,,,,,,,,,,,,,,,,,,,,,,,,,,,,,他,e,,,,e,1,0.4932,0,52,52,55,1,,
,,,,,,,,,,,,,,1,001,2025-01-14_14h09.00.075,IAT(Formal),2021.2.3,Win32,119.047619,,,,,,,,,,,,,,,,,,,,,,,,,,,,,,,,,,,,,,,,,,,,,,,,,,,稳重,e,,,,e,1,0.6669,0,53,53,21,1,,
,,,,,,,,,,,,,,1,001,2025-01-14_14h09.00.075,IAT(Formal),2021.2.3,Win32,119.047619,,,,,,,,,,,,,,,,,,,,,,,,,,,,,,,,,,,,,,,,,,,,,,,,,,,傲慢,i,,,,i,1,0.518,0,54,54,37,1,,
,,,,,,,,,,,,,,1,001,2025-01-14_14h09.00.075,IAT(Formal),2021.2.3,Win32,119.047619,,,,,,,,,,,,,,,,,,,,,,,,,,,,,,,,,,,,,,,,,,,,,,,,,,,轻率,i,,,,i,1,0.6329,0,55,55,48,1,,
,,,,,,,,,,,,,,1,001,2025-01-14_14h09.00.075,IAT(Formal),2021.2.3,Win32,119.047619,,,,,,,,,,,,,,,,,,,,,,,,,,,,,,,,,,,,,,,,,,,,,,,,,,,俺,i,,,,i,1,0.6641,0,56,56,54,1,,
,,,,,,,,,,,,,,1,001,2025-01-14_14h09.00.075,IAT(Formal),2021.2.3,Win32,119.047619,,,,,,,,,,,,,,,,,,,,,,,,,,,,,,,,,,,,,,,,,,,,,,,,,,,自己,i,,,,i,1,0.4672,0,57,57,3,1,,
,,,,,,,,,,,,,,1,001,2025-01-14_14h09.00.075,IAT(Formal),2021.2.3,Win32,119.047619,,,,,,,,,,,,,,,,,,,,,,,,,,,,,,,,,,,,,,,,,,,,,,,,,,,他,e,,,,e,1,0.6424,0,58,58,65,1,,
,,,,,,,,,,,,,,1,001,2025-01-14_14h09.00.075,IAT(Formal),2021.2.3,Win32,119.047619,,,,,,,,,,,,,,,,,,,,,,,,,,,,,,,,,,,,,,,,,,,,,,,,,,,他的,e,,,,e,1,0.5256,0,59,59,7,1,,
,,,,,,,,,,,,,,1,001,2025-01-14_14h09.00.075,IAT(Formal),2021.2.3,Win32,119.047619,,,,,,,,,,,,,,,,,,,,,,,,,,,,,,,,,,,,,,,,,,,,,,,,,,,杰出,e,,,,e,1,1.098,0,60,60,13,1,,
,,,,,,,,,,,,,,1,001,2025-01-14_14h09.00.075,IAT(Formal),2021.2.3,Win32,119.047619,,,,,,,,,,,,,,,,,,,,,,,,,,,,,,,,,,,,,,,,,,,,,,,,,,,其他,e,,,,i,0,0.5179,0,61,61,9,1,,
,,,,,,,,,,,,,,1,001,2025-01-14_14h09.00.075,IAT(Formal),2021.2.3,Win32,119.047619,,,,,,,,,,,,,,,,,,,,,,,,,,,,,,,,,,,,,,,,,,,,,,,,,,,他的,e,,,,e,1,0.5943,0,62,62,67,1,,
,,,,,,,,,,,,,,1,001,2025-01-14_14h09.00.075,IAT(Formal),2021.2.3,Win32,119.047619,,,,,,,,,,,,,,,,,,,,,,,,,,,,,,,,,,,,,,,,,,,,,,,,,,,乐观,e,,,,e,1,0.6004,0,63,63,14,1,,
,,,,,,,,,,,,,,1,001,2025-01-14_14h09.00.075,IAT(Formal),2021.2.3,Win32,119.047619,,,,,,,,,,,,,,,,,,,,,,,,,,,,,,,,,,,,,,,,,,,,,,,,,,,愚蠢,i,,,,i,1,0.6337,0,64,64,32,1,,
,,,,,,,,,,,,,,1,001,2025-01-14_14h09.00.075,IAT(Formal),2021.2.3,Win32,119.047619,,,,,,,,,,,,,,,,,,,,,,,,,,,,,,,,,,,,,,,,,,,,,,,,,,,我,i,,,,i,1,0.7746,0,65,65,50,1,,
,,,,,,,,,,,,,,1,001,2025-01-14_14h09.00.075,IAT(Formal),2021.2.3,Win32,119.047619,,,,,,,,,,,,,,,,,,,,,,,,,,,,,,,,,,,,,,,,,,,,,,,,,,,鲁莽,i,,,,,0,,0,66,66,38,1,,
,,,,,,,,,,,,,,1,001,2025-01-14_14h09.00.075,IAT(Formal),2021.2.3,Win32,119.047619,,,,,,,,,,,,,,,,,,,,,,,,,,,,,,,,,,,,,,,,,,,,,,,,,,,我,i,,,,i,1,0.6918,0,67,67,0,1,,
,,,,,,,,,,,,,,1,001,2025-01-14_14h09.00.075,IAT(Formal),2021.2.3,Win32,119.047619,,,,,,,,,,,,,,,,,,,,,,,,,,,,,,,,,,,,,,,,,,,,,,,,,,,我们,i,,,,i,1,0.6336,0,68,68,52,1,,
,,,,,,,,,,,,,,1,001,2025-01-14_14h09.00.075,IAT(Formal),2021.2.3,Win32,119.047619,,,,,,,,,,,,,,,,,,,,,,,,,,,,,,,,,,,,,,,,,,,,,,,,,,,其他,e,,,,e,1,0.8586,0,69,69,69,1,,
,,,,,,,,,,,,,,1,001,2025-01-14_14h09.00.075,IAT(Formal),2021.2.3,Win32,119.047619,,,,,,,,,,,,,,,,,,,,,,,,,,,,,,,,,,,,,,,,,,,,,,,,,,,他们,e,,,,e,1,0.5917,0,70,70,76,1,,
,,,,,,,,,,,,,,1,001,2025-01-14_14h09.00.075,IAT(Formal),2021.2.3,Win32,119.047619,,,,,,,,,,,,,,,,,,,,,,,,,,,,,,,,,,,,,,,,,,,,,,,,,,,我的,i,,,,i,1,0.5097,0,71,71,61,1,,
,,,,,,,,,,,,,,1,001,2025-01-14_14h09.00.075,IAT(Formal),2021.2.3,Win32,119.047619,,,,,,,,,,,,,,,,,,,,,,,,,,,,,,,,,,,,,,,,,,,,,,,,,,,勇敢,e,,,,e,1,0.6263,0,72,72,17,1,,
,,,,,,,,,,,,,,1,001,2025-01-14_14h09.00.075,IAT(Formal),2021.2.3,Win32,119.047619,,,,,,,,,,,,,,,,,,,,,,,,,,,,,,,,,,,,,,,,,,,,,,,,,,,热情,e,,,,e,1,0.4861,0,73,73,27,1,,
,,,,,,,,,,,,,,1,001,2025-01-14_14h09.00.075,IAT(Formal),2021.2.3,Win32,119.047619,,,,,,,,,,,,,,,,,,,,,,,,,,,,,,,,,,,,,,,,,,,,,,,,,,,俺,i,,,,i,1,0.6117,0,74,74,4,1,,
,,,,,,,,,,,,,,1,001,2025-01-14_14h09.00.075,IAT(Formal),2021.2.3,Win32,119.047619,,,,,,,,,,,,,,,,,,,,,,,,,,,,,,,,,,,,,,,,,,,,,,,,,,,优秀,e,,,,e,1,0.7745,0,75,75,10,1,,
,,,,,,,,,,,,,,1,001,2025-01-14_14h09.00.075,IAT(Formal),2021.2.3,Win32,119.047619,,,,,,,,,,,,,,,,,,,,,,,,,,,,,,,,,,,,,,,,,,,,,,,,,,,野蛮,i,,,,i,1,0.4174,0,76,76,46,1,,
,,,,,,,,,,,,,,1,001,2025-01-14_14h09.00.075,IAT(Formal),2021.2.3,Win32,119.047619,,,,,,,,,,,,,,,,,,,,,,,,,,,,,,,,,,,,,,,,,,,,,,,,,,,他们,e,,,,e,1,0.5347,0,77,77,56,1,,
,,,,,,,,,,,,,,1,001,2025-01-14_14h09.00.075,IAT(Formal),2021.2.3,Win32,119.047619,,,,,,,,,,,,,,,,,,,,,,,,,,,,,,,,,,,,,,,,,,,,,,,,,,,散漫,i,,,,i,1,0.5599,0,78,78,41,1,,
,,,,,,,,,,,,,,1,001,2025-01-14_14h09.00.075,IAT(Formal),2021.2.3,Win32,119.047619,,,,,,,,,,,,,,,,,,,,,,,,,,,,,,,,,,,,,,,,,,,,,,,,,,,执拗,i,,,,i,1,0.7671,0,79,79,40,1,,
,,,,,,,,,,,,,,1,001,2025-01-14_14h09.00.075,IAT(Formal),2021.2.3,Win32,119.047619,,,,,,,,,,,,,,,,,,,,,,,,,,,,,,,,,,,,,,,,,,,,,,,,,,,优秀,e,,,,e,1,0.7846,1,0,80,10,1,,
,,,,,,,,,,,,,,1,001,2025-01-14_14h09.00.075,IAT(Formal),2021.2.3,Win32,119.047619,,,,,,,,,,,,,,,,,,,,,,,,,,,,,,,,,,,,,,,,,,,,,,,,,,,俺,i,,,,i,1,0.701,1,1,81,64,1,,
,,,,,,,,,,,,,,1,001,2025-01-14_14h09.00.075,IAT(Formal),2021.2.3,Win32,119.047619,,,,,,,,,,,,,,,,,,,,,,,,,,,,,,,,,,,,,,,,,,,,,,,,,,,我的,i,,,,i,1,0.4592,1,2,82,51,1,,
,,,,,,,,,,,,,,1,001,2025-01-14_14h09.00.075,IAT(Formal),2021.2.3,Win32,119.047619,,,,,,,,,,,,,,,,,,,,,,,,,,,,,,,,,,,,,,,,,,,,,,,,,,,活泼,e,,,,e,1,0.825,1,3,83,28,1,,
,,,,,,,,,,,,,,1,001,2025-01-14_14h09.00.075,IAT(Formal),2021.2.3,Win32,119.047619,,,,,,,,,,,,,,,,,,,,,,,,,,,,,,,,,,,,,,,,,,,,,,,,,,,我,i,,,,i,1,0.5586,1,4,84,60,1,,
,,,,,,,,,,,,,,1,001,2025-01-14_14h09.00.075,IAT(Formal),2021.2.3,Win32,119.047619,,,,,,,,,,,,,,,,,,,,,,,,,,,,,,,,,,,,,,,,,,,,,,,,,,,卑鄙,i,,,,i,1,0.8762,1,5,85,30,1,,
,,,,,,,,,,,,,,1,001,2025-01-14_14h09.00.075,IAT(Formal),2021.2.3,Win32,119.047619,,,,,,,,,,,,,,,,,,,,,,,,,,,,,,,,,,,,,,,,,,,,,,,,,,,他,e,,,,e,1,0.5174,1,6,86,75,1,,
,,,,,,,,,,,,,,1,001,2025-01-14_14h09.00.075,IAT(Formal),2021.2.3,Win32,119.047619,,,,,,,,,,,,,,,,,,,,,,,,,,,,,,,,,,,,,,,,,,,,,,,,,,,轻率,i,,,,i,1,0.5516,1,7,87,48,1,,
,,,,,,,,,,,,,,1,001,2025-01-14_14h09.00.075,IAT(Formal),2021.2.3,Win32,119.047619,,,,,,,,,,,,,,,,,,,,,,,,,,,,,,,,,,,,,,,,,,,,,,,,,,,冷静,e,,,,e,1,0.8096,1,8,88,26,1,,
,,,,,,,,,,,,,,1,001,2025-01-14_14h09.00.075,IAT(Formal),2021.2.3,Win32,119.047619,,,,,,,,,,,,,,,,,,,,,,,,,,,,,,,,,,,,,,,,,,,,,,,,,,,我,i,,,,i,1,0.5448,1,9,89,70,1,,
,,,,,,,,,,,,,,1,001,2025-01-14_14h09.00.075,IAT(Formal),2021.2.3,Win32,119.047619,,,,,,,,,,,,,,,,,,,,,,,,,,,,,,,,,,,,,,,,,,,,,,,,,,,其他,e,,,,i,0,1.4097,1,10,90,69,1,,
,,,,,,,,,,,,,,1,001,2025-01-14_14h09.00.075,IAT(Formal),2021.2.3,Win32,119.047619,,,,,,,,,,,,,,,,,,,,,,,,,,,,,,,,,,,,,,,,,,,,,,,,,,,我,i,,,,i,1,0.5096,1,11,91,50,1,,
,,,,,,,,,,,,,,1,001,2025-01-14_14h09.00.075,IAT(Formal),2021.2.3,Win32,119.047619,,,,,,,,,,,,,,,,,,,,,,,,,,,,,,,,,,,,,,,,,,,,,,,,,,,他人,e,,,,e,1,0.4867,1,12,92,78,1,,
,,,,,,,,,,,,,,1,001,2025-01-14_14h09.00.075,IAT(Formal),2021.2.3,Win32,119.047619,,,,,,,,,,,,,,,,,,,,,,,,,,,,,,,,,,,,,,,,,,,,,,,,,,,刻薄,i,,,,i,1,0.5584,1,13,93,33,1,,
,,,,,,,,,,,,,,1,001,2025-01-14_14h09.00.075,IAT(Formal),2021.2.3,Win32,119.047619,,,,,,,,,,,,,,,,,,,,,,,,,,,,,,,,,,,,,,,,,,,,,,,,,,,聪明,e,,,,e,1,0.5585,1,14,94,12,1,,
,,,,,,,,,,,,,,1,001,2025-01-14_14h09.00.075,IAT(Formal),2021.2.3,Win32,119.047619,,,,,,,,,,,,,,,,,,,,,,,,,,,,,,,,,,,,,,,,,,,,,,,,,,,凶狠,i,,,,i,1,0.5757,1,15,95,42,1,,
,,,,,,,,,,,,,,1,001,2025-01-14_14h09.00.075,IAT(Formal),2021.2.3,Win32,119.047619,,,,,,,,,,,,,,,,,,,,,,,,,,,,,,,,,,,,,,,,,,,,,,,,,,,悲观,i,,,,i,1,0.8608,1,16,96,34,1,,
,,,,,,,,,,,,,,1,001,2025-01-14_14h09.00.075,IAT(Formal),2021.2.3,Win32,119.047619,,,,,,,,,,,,,,,,,,,,,,,,,,,,,,,,,,,,,,,,,,,,,,,,,,,他们,e,,,,e,1,0.4423,1,17,97,6,1,,
,,,,,,,,,,,,,,1,001,2025-01-14_14h09.00.075,IAT(Formal),2021.2.3,Win32,119.047619,,,,,,,,,,,,,,,,,,,,,,,,,,,,,,,,,,,,,,,,,,,,,,,,,,,愚蠢,i,,,,i,1,0.526,1,18,98,32,1,,
,,,,,,,,,,,,,,1,001,2025-01-14_14h09.00.075,IAT(Formal),2021.2.3,Win32,119.047619,,,,,,,,,,,,,,,,,,,,,,,,,,,,,,,,,,,,,,,,,,,,,,,,,,,他的,e,,,,e,1,0.5418,1,19,99,67,1,,
,,,,,,,,,,,,,,1,001,2025-01-14_14h09.00.075,IAT(Formal),2021.2.3,Win32,119.047619,,,,,,,,,,,,,,,,,,,,,,,,,,,,,,,,,,,,,,,,,,,,,,,,,,,他,e,,,,e,1,0.4588,1,20,100,55,1,,
,,,,,,,,,,,,,,1,001,2025-01-14_14h09.00.075,IAT(Formal),2021.2.3,Win32,119.047619,,,,,,,,,,,,,,,,,,,,,,,,,,,,,,,,,,,,,,,,,,,,,,,,,,,散漫,i,,,,i,1,0.5283,1,21,101,41,1,,
,,,,,,,,,,,,,,1,001,2025-01-14_14h09.00.075,IAT(Formal),2021.2.3,Win32,119.047619,,,,,,,,,,,,,,,,,,,,,,,,,,,,,,,,,,,,,,,,,,,,,,,,,,,自己,i,,,,i,1,0.6118,1,22,102,73,1,,
,,,,,,,,,,,,,,1,001,2025-01-14_14h09.00.075,IAT(Formal),2021.2.3,Win32,119.047619,,,,,,,,,,,,,,,,,,,,,,,,,,,,,,,,,,,,,,,,,,,,,,,,,,,我的,i,,,,i,1,0.4515,1,23,103,61,1,,
,,,,,,,,,,,,,,1,001,2025-01-14_14h09.00.075,IAT(Formal),2021.2.3,Win32,119.047619,,,,,,,,,,,,,,,,,,,,,,,,,,,,,,,,,,,,,,,,,,,,,,,,,,,我的,i,,,,i,1,0.4419,1,24,104,1,1,,
,,,,,,,,,,,,,,1,001,2025-01-14_14h09.00.075,IAT(Formal),2021.2.3,Win32,119.047619,,,,,,,,,,,,,,,,,,,,,,,,,,,,,,,,,,,,,,,,,,,,,,,,,,,他们,e,,,,e,1,0.5687,1,25,105,56,1,,
,,,,,,,,,,,,,,1,001,2025-01-14_14h09.00.075,IAT(Formal),2021.2.3,Win32,119.047619,,,,,,,,,,,,,,,,,,,,,,,,,,,,,,,,,,,,,,,,,,,,,,,,,,,猖狂,i,,,,i,1,0.7088,1,26,106,45,1,,
,,,,,,,,,,,,,,1,001,2025-01-14_14h09.00.075,IAT(Formal),2021.2.3,Win32,119.047619,,,,,,,,,,,,,,,,,,,,,,,,,,,,,,,,,,,,,,,,,,,,,,,,,,,执拗,i,,,,i,1,0.643,1,27,107,40,1,,
,,,,,,,,,,,,,,1,001,2025-01-14_14h09.00.075,IAT(Formal),2021.2.3,Win32,119.047619,,,,,,,,,,,,,,,,,,,,,,,,,,,,,,,,,,,,,,,,,,,,,,,,,,,他的,e,,,,e,1,0.6305,1,28,108,77,1,,
,,,,,,,,,,,,,,1,001,2025-01-14_14h09.00.075,IAT(Formal),2021.2.3,Win32,119.047619,,,,,,,,,,,,,,,,,,,,,,,,,,,,,,,,,,,,,,,,,,,,,,,,,,,暴躁,i,,,,i,1,0.6007,1,29,109,44,1,,
,,,,,,,,,,,,,,1,001,2025-01-14_14h09.00.075,IAT(Formal),2021.2.3,Win32,119.047619,,,,,,,,,,,,,,,,,,,,,,,,,,,,,,,,,,,,,,,,,,,,,,,,,,,自己,i,,,,i,1,0.6495,1,30,110,3,1,,
,,,,,,,,,,,,,,1,001,2025-01-14_14h09.00.075,IAT(Formal),2021.2.3,Win32,119.047619,,,,,,,,,,,,,,,,,,,,,,,,,,,,,,,,,,,,,,,,,,,,,,,,,,,诚实,e,,,,e,1,0.9358,1,31,111,15,1,,
,,,,,,,,,,,,,,1,001,2025-01-14_14h09.00.075,IAT(Formal),2021.2.3,Win32,119.047619,,,,,,,,,,,,,,,,,,,,,,,,,,,,,,,,,,,,,,,,,,,,,,,,,,,公正,e,,,,e,1,0.634,1,32,112,23,1,,
,,,,,,,,,,,,,,1,001,2025-01-14_14h09.00.075,IAT(Formal),2021.2.3,Win32,119.047619,,,,,,,,,,,,,,,,,,,,,,,,,,,,,,,,,,,,,,,,,,,,,,,,,,,勇敢,e,,,,e,1,0.6658,1,33,113,17,1,,
,,,,,,,,,,,,,,1,001,2025-01-14_14h09.00.075,IAT(Formal),2021.2.3,Win32,119.047619,,,,,,,,,,,,,,,,,,,,,,,,,,,,,,,,,,,,,,,,,,,,,,,,,,,认真,e,,,,i,0,0.043,1,34,114,20,1,,
,,,,,,,,,,,,,,1,001,2025-01-14_14h09.00.075,IAT(Formal),2021.2.3,Win32,119.047619,,,,,,,,,,,,,,,,,,,,,,,,,,,,,,,,,,,,,,,,,,,,,,,,,,,他人,e,,,,e,1,0.5007,1,35,115,68,1,,
,,,,,,,,,,,,,,1,001,2025-01-14_14h09.00.075,IAT(Formal),2021.2.3,Win32,119.047619,,,,,,,,,,,,,,,,,,,,,,,,,,,,,,,,,,,,,,,,,,,,,,,,,,,冒失,i,,,,i,1,0.5346,1,36,116,39,1,,
,,,,,,,,,,,,,,1,001,2025-01-14_14h09.00.075,IAT(Formal),2021.2.3,Win32,119.047619,,,,,,,,,,,,,,,,,,,,,,,,,,,,,,,,,,,,,,,,,,,,,,,,,,,细腻,e,,,,e,1,0.6765,1,37,117,25,1,,
,,,,,,,,,,,,,,1,001,2025-01-14_14h09.00.075,IAT(Formal),2021.2.3,Win32,119.047619,,,,,,,,,,,,,,,,,,,,,,,,,,,,,,,,,,,,,,,,,,,,,,,,,,,他们,e,,,,e,1,0.4594,1,38,118,76,1,,
,,,,,,,,,,,,,,1,001,2025-01-14_14h09.00.075,IAT(Formal),2021.2.3,Win32,119.047619,,,,,,,,,,,,,,,,,,,,,,,,,,,,,,,,,,,,,,,,,,,,,,,,,,,他人,e,,,,e,1,0.4753,1,39,119,8,1,,
,,,,,,,,,,,,,,1,001,2025-01-14_14h09.00.075,IAT(Formal),2021.2.3,Win32,119.047619,,,,,,,,,,,,,,,,,,,,,,,,,,,,,,,,,,,,,,,,,,,,,,,,,,,消极,i,,,,i,1,0.6921,1,40,120,35,1,,
,,,,,,,,,,,,,,1,001,2025-01-14_14h09.00.075,IAT(Formal),2021.2.3,Win32,119.047619,,,,,,,,,,,,,,,,,,,,,,,,,,,,,,,,,,,,,,,,,,,,,,,,,,,他的,e,,,,e,1,0.4587,1,41,121,57,1,,
,,,,,,,,,,,,,,1,001,2025-01-14_14h09.00.075,IAT(Formal),2021.2.3,Win32,119.047619,,,,,,,,,,,,,,,,,,,,,,,,,,,,,,,,,,,,,,,,,,,,,,,,,,,虚伪,i,,,,i,1,0.618,1,42,122,31,1,,
,,,,,,,,,,,,,,1,001,2025-01-14_14h09.00.075,IAT(Formal),2021.2.3,Win32,119.047619,,,,,,,,,,,,,,,,,,,,,,,,,,,,,,,,,,,,,,,,,,,,,,,,,,,热情,e,,,,e,1,0.5424,1,43,123,27,1,,
,,,,,,,,,,,,,,1,001,2025-01-14_14h09.00.075,IAT(Formal),2021.2.3,Win32,119.047619,,,,,,,,,,,,,,,,,,,,,,,,,,,,,,,,,,,,,,,,,,,,,,,,,,,我的,i,,,,e,0,0.4362,1,44,124,71,1,,
,,,,,,,,,,,,,,1,001,2025-01-14_14h09.00.075,IAT(Formal),2021.2.3,Win32,119.047619,,,,,,,,,,,,,,,,,,,,,,,,,,,,,,,,,,,,,,,,,,,,,,,,,,,正直,e,,,,e,1,0.618,1,45,125,16,1,,
,,,,,,,,,,,,,,1,001,2025-01-14_14h09.00.075,IAT(Formal),2021.2.3,Win32,119.047619,,,,,,,,,,,,,,,,,,,,,,,,,,,,,,,,,,,,,,,,,,,,,,,,,,,自卑,i,,,,i,1,0.559,1,46,126,36,1,,
,,,,,,,,,,,,,,1,001,2025-01-14_14h09.00.075,IAT(Formal),2021.2.3,Win32,119.047619,,,,,,,,,,,,,,,,,,,,,,,,,,,,,,,,,,,,,,,,,,,,,,,,,,,他人,e,,,,e,1,0.4855,1,47,127,58,1,,
,,,,,,,,,,,,,,1,001,2025-01-14_14h09.00.075,IAT(Formal),2021.2.3,Win32,119.047619,,,,,,,,,,,,,,,,,,,,,,,,,,,,,,,,,,,,,,,,,,,,,,,,,,,杰出,e,,,,e,1,0.5919,1,48,128,13,1,,
,,,,,,,,,,,,,,1,001,2025-01-14_14h09.00.075,IAT(Formal),2021.2.3,Win32,119.047619,,,,,,,,,,,,,,,,,,,,,,,,,,,,,,,,,,,,,,,,,,,,,,,,,,,我们,i,,,,i,1,0.5412,1,49,129,72,1,,
,,,,,,,,,,,,,,1,001,2025-01-14_14h09.00.075,IAT(Formal),2021.2.3,Win32,119.047619,,,,,,,,,,,,,,,,,,,,,,,,,,,,,,,,,,,,,,,,,,,,,,,,,,,我们,i,,,,i,1,0.4088,1,50,130,2,1,,
,,,,,,,,,,,,,,1,001,2025-01-14_14h09.00.075,IAT(Formal),2021.2.3,Win32,119.047619,,,,,,,,,,,,,,,,,,,,,,,,,,,,,,,,,,,,,,,,,,,,,,,,,,,我们,i,,,,i,1,0.441,1,51,131,62,1,,
,,,,,,,,,,,,,,1,001,2025-01-14_14h09.00.075,IAT(Formal),2021.2.3,Win32,119.047619,,,,,,,,,,,,,,,,,,,,,,,,,,,,,,,,,,,,,,,,,,,,,,,,,,,野蛮,i,,,,i,1,0.6015,1,52,132,46,1,,
,,,,,,,,,,,,,,1,001,2025-01-14_14h09.00.075,IAT(Formal),2021.2.3,Win32,119.047619,,,,,,,,,,,,,,,,,,,,,,,,,,,,,,,,,,,,,,,,,,,,,,,,,,,我们,i,,,,i,1,0.5006,1,53,133,52,1,,
,,,,,,,,,,,,,,1,001,2025-01-14_14h09.00.075,IAT(Formal),2021.2.3,Win32,119.047619,,,,,,,,,,,,,,,,,,,,,,,,,,,,,,,,,,,,,,,,,,,,,,,,,,,朴实,e,,,,e,1,0.6608,1,54,134,24,1,,
,,,,,,,,,,,,,,1,001,2025-01-14_14h09.00.075,IAT(Formal),2021.2.3,Win32,119.047619,,,,,,,,,,,,,,,,,,,,,,,,,,,,,,,,,,,,,,,,,,,,,,,,,,,稳重,e,,,,e,1,0.7417,1,55,135,21,1,,
,,,,,,,,,,,,,,1,001,2025-01-14_14h09.00.075,IAT(Formal),2021.2.3,Win32,119.047619,,,,,,,,,,,,,,,,,,,,,,,,,,,,,,,,,,,,,,,,,,,,,,,,,,,我,i,,,,i,1,0.5831,1,56,136,0,1,,
,,,,,,,,,,,,,,1,001,2025-01-14_14h09.00.075,IAT(Formal),2021.2.3,Win32,119.047619,,,,,,,,,,,,,,,,,,,,,,,,,,,,,,,,,,,,,,,,,,,,,,,,,,,其他,e,,,,e,1,0.7095,1,57,137,79,1,,
,,,,,,,,,,,,,,1,001,2025-01-14_14h09.00.075,IAT(Formal),2021.2.3,Win32,119.047619,,,,,,,,,,,,,,,,,,,,,,,,,,,,,,,,,,,,,,,,,,,,,,,,,,,俺,i,,,,i,1,0.8433,1,58,138,4,1,,
,,,,,,,,,,,,,,1,001,2025-01-14_14h09.00.075,IAT(Formal),2021.2.3,Win32,119.047619,,,,,,,,,,,,,,,,,,,,,,,,,,,,,,,,,,,,,,,,,,,,,,,,,,,下贱,i,,,,i,1,0.8167,1,59,139,49,1,,
,,,,,,,,,,,,,,1,001,2025-01-14_14h09.00.075,IAT(Formal),2021.2.3,Win32,119.047619,,,,,,,,,,,,,,,,,,,,,,,,,,,,,,,,,,,,,,,,,,,,,,,,,,,自私,i,,,,i,1,0.7096,1,60,140,43,1,,
,,,,,,,,,,,,,,1,001,2025-01-14_14h09.00.075,IAT(Formal),2021.2.3,Win32,119.047619,,,,,,,,,,,,,,,,,,,,,,,,,,,,,,,,,,,,,,,,,,,,,,,,,,,机智,e,,,,e,1,0.6418,1,61,141,19,1,,
,,,,,,,,,,,,,,1,001,2025-01-14_14h09.00.075,IAT(Formal),2021.2.3,Win32,119.047619,,,,,,,,,,,,,,,,,,,,,,,,,,,,,,,,,,,,,,,,,,,,,,,,,,,俺,i,,,,i,1,0.5672,1,62,142,54,1,,
,,,,,,,,,,,,,,1,001,2025-01-14_14h09.00.075,IAT(Formal),2021.2.3,Win32,119.047619,,,,,,,,,,,,,,,,,,,,,,,,,,,,,,,,,,,,,,,,,,,,,,,,,,,无私,e,,,,e,1,1.1425,1,63,143,22,1,,
,,,,,,,,,,,,,,1,001,2025-01-14_14h09.00.075,IAT(Formal),2021.2.3,Win32,119.047619,,,,,,,,,,,,,,,,,,,,,,,,,,,,,,,,,,,,,,,,,,,,,,,,,,,勤奋,e,,,,e,1,0.5667,1,64,144,18,1,,
,,,,,,,,,,,,,,1,001,2025-01-14_14h09.00.075,IAT(Formal),2021.2.3,Win32,119.047619,,,,,,,,,,,,,,,,,,,,,,,,,,,,,,,,,,,,,,,,,,,,,,,,,,,自己,i,,,,i,1,1.3004,1,65,145,63,1,,
,,,,,,,,,,,,,,1,001,2025-01-14_14h09.00.075,IAT(Formal),2021.2.3,Win32,119.047619,,,,,,,,,,,,,,,,,,,,,,,,,,,,,,,,,,,,,,,,,,,,,,,,,,,他们,e,,,,e,1,0.5353,1,66,146,66,1,,
,,,,,,,,,,,,,,1,001,2025-01-14_14h09.00.075,IAT(Formal),2021.2.3,Win32,119.047619,,,,,,,,,,,,,,,,,,,,,,,,,,,,,,,,,,,,,,,,,,,,,,,,,,,诚恳,e,,,,e,1,0.5511,1,67,147,29,1,,
,,,,,,,,,,,,,,1,001,2025-01-14_14h09.00.075,IAT(Formal),2021.2.3,Win32,119.047619,,,,,,,,,,,,,,,,,,,,,,,,,,,,,,,,,,,,,,,,,,,,,,,,,,,固执,i,,,,i,1,0.8005,1,68,148,47,1,,
,,,,,,,,,,,,,,1,001,2025-01-14_14h09.00.075,IAT(Formal),2021.2.3,Win32,119.047619,,,,,,,,,,,,,,,,,,,,,,,,,,,,,,,,,,,,,,,,,,,,,,,,,,,他的,e,,,,e,1,0.7343,1,69,149,7,1,,
,,,,,,,,,,,,,,1,001,2025-01-14_14h09.00.075,IAT(Formal),2021.2.3,Win32,119.047619,,,,,,,,,,,,,,,,,,,,,,,,,,,,,,,,,,,,,,,,,,,,,,,,,,,他,e,,,,e,1,0.5184,1,70,150,65,1,,
,,,,,,,,,,,,,,1,001,2025-01-14_14h09.00.075,IAT(Formal),2021.2.3,Win32,119.047619,,,,,,,,,,,,,,,,,,,,,,,,,,,,,,,,,,,,,,,,,,,,,,,,,,,乐观,e,,,,e,1,0.8261,1,71,151,14,1,,
,,,,,,,,,,,,,,1,001,2025-01-14_14h09.00.075,IAT(Formal),2021.2.3,Win32,119.047619,,,,,,,,,,,,,,,,,,,,,,,,,,,,,,,,,,,,,,,,,,,,,,,,,,,俺,i,,,,i,1,0.5445,1,72,152,74,1,,
,,,,,,,,,,,,,,1,001,2025-01-14_14h09.00.075,IAT(Formal),2021.2.3,Win32,119.047619,,,,,,,,,,,,,,,,,,,,,,,,,,,,,,,,,,,,,,,,,,,,,,,,,,,鲁莽,i,,,,i,1,0.7013,1,73,153,38,1,,
,,,,,,,,,,,,,,1,001,2025-01-14_14h09.00.075,IAT(Formal),2021.2.3,Win32,119.047619,,,,,,,,,,,,,,,,,,,,,,,,,,,,,,,,,,,,,,,,,,,,,,,,,,,他,e,,,,e,1,0.6319,1,74,154,5,1,,
,,,,,,,,,,,,,,1,001,2025-01-14_14h09.00.075,IAT(Formal),2021.2.3,Win32,119.047619,,,,,,,,,,,,,,,,,,,,,,,,,,,,,,,,,,,,,,,,,,,,,,,,,,,崇高,e,,,,e,1,0.8416,1,75,155,11,1,,
,,,,,,,,,,,,,,1,001,2025-01-14_14h09.00.075,IAT(Formal),2021.2.3,Win32,119.047619,,,,,,,,,,,,,,,,,,,,,,,,,,,,,,,,,,,,,,,,,,,,,,,,,,,傲慢,i,,,,i,1,0.5922,1,76,156,37,1,,
,,,,,,,,,,,,,,1,001,2025-01-14_14h09.00.075,IAT(Formal),2021.2.3,Win32,119.047619,,,,,,,,,,,,,,,,,,,,,,,,,,,,,,,,,,,,,,,,,,,,,,,,,,,其他,e,,,,e,1,0.6915,1,77,157,59,1,,
,,,,,,,,,,,,,,1,001,2025-01-14_14h09.00.075,IAT(Formal),2021.2.3,Win32,119.047619,,,,,,,,,,,,,,,,,,,,,,,,,,,,,,,,,,,,,,,,,,,,,,,,,,,自己,i,,,,i,1,0.8263,1,78,158,53,1,,
,,,,,,,,,,,,,,1,001,2025-01-14_14h09.00.075,IAT(Formal),2021.2.3,Win32,119.047619,,,,,,,,,,,,,,,,,,,,,,,,,,,,,,,,,,,,,,,,,,,,,,,,,,,其他,e,,,,e,1,0.6921,1,79,159,9,1,,
,,,,,,,,,,,,,,1,001,2025-01-14_14h09.00.075,IAT(Formal),2021.2.3,Win32,119.047619,,,,,,,,,,,,,,,,,,,,,,,,,,,,,,,,,,,,,,,,,,,,,,,,,,,,,,,,,,,,,,,,space,1.6588