﻿Instruction1.keys,Instruction1.rt,Instruction2.keys,Instruction2.rt,key_resp_iso.keys,key_resp_iso.corr,key_resp_iso.rt,Practice_01.thisRepN,Practice_01.thisTrialN,Practice_01.thisN,Practice_01.thisIndex,Practice_01.ran,Words,ans,participant,session,date,expName,psychopyVersion,OS,frameRate,key_resp_3.keys,key_resp_3.rt,key_resp_ipn.keys,key_resp_ipn.corr,key_resp_ipn.rt,Practice_02.thisRepN,Practice_02.thisTrialN,Practice_02.thisN,Practice_02.thisIndex,Practice_02.ran,Words_ipn,ans_ipn,key_resp_4.keys,key_resp_4.rt,key_resp_t1.keys,key_resp_t1.corr,key_resp_t1.rt,Practice_T1.thisRepN,Practice_T1.thisTrialN,Practice_T1.thisN,Practice_T1.thisIndex,Practice_T1.ran,Words_t1,ans_t1,key_resp_5.keys,key_resp_5.rt,Formal_T1.thisRepN,Formal_T1.thisTrialN,Formal_T1.thisN,Formal_T1.thisIndex,Formal_T1.ran,key_resp_6.keys,key_resp_6.rt,key_resp_iso_reverse.keys,key_resp_iso_reverse.corr,key_resp_iso_reverse.rt,Practice_iso_Reverse.thisRepN,Practice_iso_Reverse.thisTrialN,Practice_iso_Reverse.thisN,Practice_iso_Reverse.thisIndex,Practice_iso_Reverse.ran,key_resp_7.keys,key_resp_7.rt,key_resp_t2_Practice.keys,key_resp_t2_Practice.corr,Practice_t2_Reverse.thisRepN,Practice_t2_Reverse.thisTrialN,Practice_t2_Reverse.thisN,Practice_t2_Reverse.thisIndex,Practice_t2_Reverse.ran,Words_t2,ans_t2,key_resp_t2_Practice.rt,key_resp_8.keys,key_resp_8.rt,key_resp_t2.keys,key_resp_t2.corr,key_resp_t2.rt,Formal_t2_reverse.thisRepN,Formal_t2_reverse.thisTrialN,Formal_t2_reverse.thisN,Formal_t2_reverse.thisIndex,Formal_t2_reverse.ran,key_instruct.keys,key_instruct.rt
space,64.736,space,25.3961,e,1,1.0882,0,0,0,3,1,自己,e,冶成福,001,2025-01-17_14h51.36.061,IAT(Formal),2021.2.3,Win32,59.88023952,,,,,,,,,,,,,,,,,,,,,,,,,,,,,,,,,,,,,,,,,,,,,,,,,,,,,,,,,,,,,,,,,
,,,,e,1,0.9242,0,1,1,2,1,我们,e,冶成福,001,2025-01-17_14h51.36.061,IAT(Formal),2021.2.3,Win32,59.88023952,,,,,,,,,,,,,,,,,,,,,,,,,,,,,,,,,,,,,,,,,,,,,,,,,,,,,,,,,,,,,,,,,
,,,,i,1,0.7794,0,2,2,8,1,他人,i,冶成福,001,2025-01-17_14h51.36.061,IAT(Formal),2021.2.3,Win32,59.88023952,,,,,,,,,,,,,,,,,,,,,,,,,,,,,,,,,,,,,,,,,,,,,,,,,,,,,,,,,,,,,,,,,
,,,,i,1,0.3857,0,3,3,6,1,他们,i,冶成福,001,2025-01-17_14h51.36.061,IAT(Formal),2021.2.3,Win32,59.88023952,,,,,,,,,,,,,,,,,,,,,,,,,,,,,,,,,,,,,,,,,,,,,,,,,,,,,,,,,,,,,,,,,
,,,,e,1,0.7675,0,4,4,1,1,我的,e,冶成福,001,2025-01-17_14h51.36.061,IAT(Formal),2021.2.3,Win32,59.88023952,,,,,,,,,,,,,,,,,,,,,,,,,,,,,,,,,,,,,,,,,,,,,,,,,,,,,,,,,,,,,,,,,
,,,,i,1,0.7115,0,5,5,9,1,其他,i,冶成福,001,2025-01-17_14h51.36.061,IAT(Formal),2021.2.3,Win32,59.88023952,,,,,,,,,,,,,,,,,,,,,,,,,,,,,,,,,,,,,,,,,,,,,,,,,,,,,,,,,,,,,,,,,
,,,,e,1,0.5116,0,6,6,0,1,我,e,冶成福,001,2025-01-17_14h51.36.061,IAT(Formal),2021.2.3,Win32,59.88023952,,,,,,,,,,,,,,,,,,,,,,,,,,,,,,,,,,,,,,,,,,,,,,,,,,,,,,,,,,,,,,,,,
,,,,i,1,0.7423,0,7,7,7,1,他的,i,冶成福,001,2025-01-17_14h51.36.061,IAT(Formal),2021.2.3,Win32,59.88023952,,,,,,,,,,,,,,,,,,,,,,,,,,,,,,,,,,,,,,,,,,,,,,,,,,,,,,,,,,,,,,,,,
,,,,i,1,0.4796,0,8,8,5,1,他,i,冶成福,001,2025-01-17_14h51.36.061,IAT(Formal),2021.2.3,Win32,59.88023952,,,,,,,,,,,,,,,,,,,,,,,,,,,,,,,,,,,,,,,,,,,,,,,,,,,,,,,,,,,,,,,,,
,,,,e,1,0.8308,0,9,9,4,1,俺,e,冶成福,001,2025-01-17_14h51.36.061,IAT(Formal),2021.2.3,Win32,59.88023952,,,,,,,,,,,,,,,,,,,,,,,,,,,,,,,,,,,,,,,,,,,,,,,,,,,,,,,,,,,,,,,,,
,,,,,,,,,,,,,,冶成福,001,2025-01-17_14h51.36.061,IAT(Formal),2021.2.3,Win32,59.88023952,space,4.1473,i,0,0.9209,0,0,0,3,1,杰出,e,,,,,,,,,,,,,,,,,,,,,,,,,,,,,,,,,,,,,,,,,,,,,,,,,,,,,
,,,,,,,,,,,,,,冶成福,001,2025-01-17_14h51.36.061,IAT(Formal),2021.2.3,Win32,59.88023952,,,e,1,0.7621,0,1,1,16,1,冷静,e,,,,,,,,,,,,,,,,,,,,,,,,,,,,,,,,,,,,,,,,,,,,,,,,,,,,,
,,,,,,,,,,,,,,冶成福,001,2025-01-17_14h51.36.061,IAT(Formal),2021.2.3,Win32,59.88023952,,,e,1,0.5119,0,2,2,10,1,认真,e,,,,,,,,,,,,,,,,,,,,,,,,,,,,,,,,,,,,,,,,,,,,,,,,,,,,,
,,,,,,,,,,,,,,冶成福,001,2025-01-17_14h51.36.061,IAT(Formal),2021.2.3,Win32,59.88023952,,,i,1,0.6515,0,3,3,30,1,执拗,i,,,,,,,,,,,,,,,,,,,,,,,,,,,,,,,,,,,,,,,,,,,,,,,,,,,,,
,,,,,,,,,,,,,,冶成福,001,2025-01-17_14h51.36.061,IAT(Formal),2021.2.3,Win32,59.88023952,,,i,0,0.9857,0,4,4,11,1,稳重,e,,,,,,,,,,,,,,,,,,,,,,,,,,,,,,,,,,,,,,,,,,,,,,,,,,,,,
,,,,,,,,,,,,,,冶成福,001,2025-01-17_14h51.36.061,IAT(Formal),2021.2.3,Win32,59.88023952,,,,0,,0,5,5,4,1,乐观,e,,,,,,,,,,,,,,,,,,,,,,,,,,,,,,,,,,,,,,,,,,,,,,,,,,,,,
,,,,,,,,,,,,,,冶成福,001,2025-01-17_14h51.36.061,IAT(Formal),2021.2.3,Win32,59.88023952,,,i,1,0.6764,0,6,6,23,1,刻薄,i,,,,,,,,,,,,,,,,,,,,,,,,,,,,,,,,,,,,,,,,,,,,,,,,,,,,,
,,,,,,,,,,,,,,冶成福,001,2025-01-17_14h51.36.061,IAT(Formal),2021.2.3,Win32,59.88023952,,,i,1,0.7071,0,7,7,36,1,野蛮,i,,,,,,,,,,,,,,,,,,,,,,,,,,,,,,,,,,,,,,,,,,,,,,,,,,,,,
,,,,,,,,,,,,,,冶成福,001,2025-01-17_14h51.36.061,IAT(Formal),2021.2.3,Win32,59.88023952,,,i,1,0.9094,0,8,8,35,1,猖狂,i,,,,,,,,,,,,,,,,,,,,,,,,,,,,,,,,,,,,,,,,,,,,,,,,,,,,,
,,,,,,,,,,,,,,冶成福,001,2025-01-17_14h51.36.061,IAT(Formal),2021.2.3,Win32,59.88023952,,,e,1,0.5433,0,9,9,19,1,诚恳,e,,,,,,,,,,,,,,,,,,,,,,,,,,,,,,,,,,,,,,,,,,,,,,,,,,,,,
,,,,,,,,,,,,,,冶成福,001,2025-01-17_14h51.36.061,IAT(Formal),2021.2.3,Win32,59.88023952,,,i,1,0.6595,0,10,10,34,1,暴躁,i,,,,,,,,,,,,,,,,,,,,,,,,,,,,,,,,,,,,,,,,,,,,,,,,,,,,,
,,,,,,,,,,,,,,冶成福,001,2025-01-17_14h51.36.061,IAT(Formal),2021.2.3,Win32,59.88023952,,,i,1,0.7012,0,11,11,33,1,自私,i,,,,,,,,,,,,,,,,,,,,,,,,,,,,,,,,,,,,,,,,,,,,,,,,,,,,,
,,,,,,,,,,,,,,冶成福,001,2025-01-17_14h51.36.061,IAT(Formal),2021.2.3,Win32,59.88023952,,,i,1,0.625,0,12,12,29,1,冒失,i,,,,,,,,,,,,,,,,,,,,,,,,,,,,,,,,,,,,,,,,,,,,,,,,,,,,,
,,,,,,,,,,,,,,冶成福,001,2025-01-17_14h51.36.061,IAT(Formal),2021.2.3,Win32,59.88023952,,,i,0,0.9255,0,13,13,18,1,活泼,e,,,,,,,,,,,,,,,,,,,,,,,,,,,,,,,,,,,,,,,,,,,,,,,,,,,,,
,,,,,,,,,,,,,,冶成福,001,2025-01-17_14h51.36.061,IAT(Formal),2021.2.3,Win32,59.88023952,,,e,1,0.5501,0,14,14,14,1,朴实,e,,,,,,,,,,,,,,,,,,,,,,,,,,,,,,,,,,,,,,,,,,,,,,,,,,,,,
,,,,,,,,,,,,,,冶成福,001,2025-01-17_14h51.36.061,IAT(Formal),2021.2.3,Win32,59.88023952,,,e,1,0.9368,0,15,15,17,1,热情,e,,,,,,,,,,,,,,,,,,,,,,,,,,,,,,,,,,,,,,,,,,,,,,,,,,,,,
,,,,,,,,,,,,,,冶成福,001,2025-01-17_14h51.36.061,IAT(Formal),2021.2.3,Win32,59.88023952,,,e,1,0.5422,0,16,16,8,1,勤奋,e,,,,,,,,,,,,,,,,,,,,,,,,,,,,,,,,,,,,,,,,,,,,,,,,,,,,,
,,,,,,,,,,,,,,冶成福,001,2025-01-17_14h51.36.061,IAT(Formal),2021.2.3,Win32,59.88023952,,,,0,,0,17,17,13,1,公正,e,,,,,,,,,,,,,,,,,,,,,,,,,,,,,,,,,,,,,,,,,,,,,,,,,,,,,
,,,,,,,,,,,,,,冶成福,001,2025-01-17_14h51.36.061,IAT(Formal),2021.2.3,Win32,59.88023952,,,i,1,0.6986,0,18,18,38,1,轻率,i,,,,,,,,,,,,,,,,,,,,,,,,,,,,,,,,,,,,,,,,,,,,,,,,,,,,,
,,,,,,,,,,,,,,冶成福,001,2025-01-17_14h51.36.061,IAT(Formal),2021.2.3,Win32,59.88023952,,,e,1,0.6314,0,19,19,0,1,优秀,e,,,,,,,,,,,,,,,,,,,,,,,,,,,,,,,,,,,,,,,,,,,,,,,,,,,,,
,,,,,,,,,,,,,,冶成福,001,2025-01-17_14h51.36.061,IAT(Formal),2021.2.3,Win32,59.88023952,,,e,1,0.5999,0,20,20,6,1,正直,e,,,,,,,,,,,,,,,,,,,,,,,,,,,,,,,,,,,,,,,,,,,,,,,,,,,,,
,,,,,,,,,,,,,,冶成福,001,2025-01-17_14h51.36.061,IAT(Formal),2021.2.3,Win32,59.88023952,,,e,0,0.6899,0,21,21,27,1,傲慢,i,,,,,,,,,,,,,,,,,,,,,,,,,,,,,,,,,,,,,,,,,,,,,,,,,,,,,
,,,,,,,,,,,,,,冶成福,001,2025-01-17_14h51.36.061,IAT(Formal),2021.2.3,Win32,59.88023952,,,e,1,0.5681,0,22,22,5,1,诚实,e,,,,,,,,,,,,,,,,,,,,,,,,,,,,,,,,,,,,,,,,,,,,,,,,,,,,,
,,,,,,,,,,,,,,冶成福,001,2025-01-17_14h51.36.061,IAT(Formal),2021.2.3,Win32,59.88023952,,,i,1,0.7105,0,23,23,21,1,虚伪,i,,,,,,,,,,,,,,,,,,,,,,,,,,,,,,,,,,,,,,,,,,,,,,,,,,,,,
,,,,,,,,,,,,,,冶成福,001,2025-01-17_14h51.36.061,IAT(Formal),2021.2.3,Win32,59.88023952,,,e,1,0.9417,0,24,24,7,1,勇敢,e,,,,,,,,,,,,,,,,,,,,,,,,,,,,,,,,,,,,,,,,,,,,,,,,,,,,,
,,,,,,,,,,,,,,冶成福,001,2025-01-17_14h51.36.061,IAT(Formal),2021.2.3,Win32,59.88023952,,,i,1,0.6416,0,25,25,39,1,下贱,i,,,,,,,,,,,,,,,,,,,,,,,,,,,,,,,,,,,,,,,,,,,,,,,,,,,,,
,,,,,,,,,,,,,,冶成福,001,2025-01-17_14h51.36.061,IAT(Formal),2021.2.3,Win32,59.88023952,,,i,1,0.6756,0,26,26,24,1,悲观,i,,,,,,,,,,,,,,,,,,,,,,,,,,,,,,,,,,,,,,,,,,,,,,,,,,,,,
,,,,,,,,,,,,,,冶成福,001,2025-01-17_14h51.36.061,IAT(Formal),2021.2.3,Win32,59.88023952,,,i,1,0.6612,0,27,27,20,1,卑鄙,i,,,,,,,,,,,,,,,,,,,,,,,,,,,,,,,,,,,,,,,,,,,,,,,,,,,,,
,,,,,,,,,,,,,,冶成福,001,2025-01-17_14h51.36.061,IAT(Formal),2021.2.3,Win32,59.88023952,,,e,1,1.1019,0,28,28,15,1,细腻,e,,,,,,,,,,,,,,,,,,,,,,,,,,,,,,,,,,,,,,,,,,,,,,,,,,,,,
,,,,,,,,,,,,,,冶成福,001,2025-01-17_14h51.36.061,IAT(Formal),2021.2.3,Win32,59.88023952,,,i,1,0.6654,0,29,29,37,1,固执,i,,,,,,,,,,,,,,,,,,,,,,,,,,,,,,,,,,,,,,,,,,,,,,,,,,,,,
,,,,,,,,,,,,,,冶成福,001,2025-01-17_14h51.36.061,IAT(Formal),2021.2.3,Win32,59.88023952,,,i,1,0.7306,0,30,30,28,1,鲁莽,i,,,,,,,,,,,,,,,,,,,,,,,,,,,,,,,,,,,,,,,,,,,,,,,,,,,,,
,,,,,,,,,,,,,,冶成福,001,2025-01-17_14h51.36.061,IAT(Formal),2021.2.3,Win32,59.88023952,,,i,0,0.8483,0,31,31,1,1,崇高,e,,,,,,,,,,,,,,,,,,,,,,,,,,,,,,,,,,,,,,,,,,,,,,,,,,,,,
,,,,,,,,,,,,,,冶成福,001,2025-01-17_14h51.36.061,IAT(Formal),2021.2.3,Win32,59.88023952,,,i,1,0.6887,0,32,32,31,1,散漫,i,,,,,,,,,,,,,,,,,,,,,,,,,,,,,,,,,,,,,,,,,,,,,,,,,,,,,
,,,,,,,,,,,,,,冶成福,001,2025-01-17_14h51.36.061,IAT(Formal),2021.2.3,Win32,59.88023952,,,i,1,0.8223,0,33,33,25,1,消极,i,,,,,,,,,,,,,,,,,,,,,,,,,,,,,,,,,,,,,,,,,,,,,,,,,,,,,
,,,,,,,,,,,,,,冶成福,001,2025-01-17_14h51.36.061,IAT(Formal),2021.2.3,Win32,59.88023952,,,e,1,1.1378,0,34,34,12,1,无私,e,,,,,,,,,,,,,,,,,,,,,,,,,,,,,,,,,,,,,,,,,,,,,,,,,,,,,
,,,,,,,,,,,,,,冶成福,001,2025-01-17_14h51.36.061,IAT(Formal),2021.2.3,Win32,59.88023952,,,i,1,0.7498,0,35,35,26,1,自卑,i,,,,,,,,,,,,,,,,,,,,,,,,,,,,,,,,,,,,,,,,,,,,,,,,,,,,,
,,,,,,,,,,,,,,冶成福,001,2025-01-17_14h51.36.061,IAT(Formal),2021.2.3,Win32,59.88023952,,,i,1,0.8747,0,36,36,22,1,愚蠢,i,,,,,,,,,,,,,,,,,,,,,,,,,,,,,,,,,,,,,,,,,,,,,,,,,,,,,
,,,,,,,,,,,,,,冶成福,001,2025-01-17_14h51.36.061,IAT(Formal),2021.2.3,Win32,59.88023952,,,e,1,0.6005,0,37,37,2,1,聪明,e,,,,,,,,,,,,,,,,,,,,,,,,,,,,,,,,,,,,,,,,,,,,,,,,,,,,,
,,,,,,,,,,,,,,冶成福,001,2025-01-17_14h51.36.061,IAT(Formal),2021.2.3,Win32,59.88023952,,,i,1,0.7456,0,38,38,32,1,凶狠,i,,,,,,,,,,,,,,,,,,,,,,,,,,,,,,,,,,,,,,,,,,,,,,,,,,,,,
,,,,,,,,,,,,,,冶成福,001,2025-01-17_14h51.36.061,IAT(Formal),2021.2.3,Win32,59.88023952,,,e,1,0.7284,0,39,39,9,1,机智,e,,,,,,,,,,,,,,,,,,,,,,,,,,,,,,,,,,,,,,,,,,,,,,,,,,,,,
,,,,,,,,,,,,,,冶成福,001,2025-01-17_14h51.36.061,IAT(Formal),2021.2.3,Win32,59.88023952,,,,,,,,,,,,,space,14.1118,e,1,1.4035,0,0,0,73,1,自己,e,,,,,,,,,,,,,,,,,,,,,,,,,,,,,,,,,,,,,,,,,
,,,,,,,,,,,,,,冶成福,001,2025-01-17_14h51.36.061,IAT(Formal),2021.2.3,Win32,59.88023952,,,,,,,,,,,,,,,i,1,0.7149,0,1,1,40,1,执拗,i,,,,,,,,,,,,,,,,,,,,,,,,,,,,,,,,,,,,,,,,,
,,,,,,,,,,,,,,冶成福,001,2025-01-17_14h51.36.061,IAT(Formal),2021.2.3,Win32,59.88023952,,,,,,,,,,,,,,,i,1,0.846,0,2,2,49,1,下贱,i,,,,,,,,,,,,,,,,,,,,,,,,,,,,,,,,,,,,,,,,,
,,,,,,,,,,,,,,冶成福,001,2025-01-17_14h51.36.061,IAT(Formal),2021.2.3,Win32,59.88023952,,,,,,,,,,,,,,,e,1,0.7097,0,3,3,13,1,杰出,e,,,,,,,,,,,,,,,,,,,,,,,,,,,,,,,,,,,,,,,,,
,,,,,,,,,,,,,,冶成福,001,2025-01-17_14h51.36.061,IAT(Formal),2021.2.3,Win32,59.88023952,,,,,,,,,,,,,,,e,1,0.8558,0,4,4,15,1,诚实,e,,,,,,,,,,,,,,,,,,,,,,,,,,,,,,,,,,,,,,,,,
,,,,,,,,,,,,,,冶成福,001,2025-01-17_14h51.36.061,IAT(Formal),2021.2.3,Win32,59.88023952,,,,,,,,,,,,,,,e,1,0.5632,0,5,5,28,1,活泼,e,,,,,,,,,,,,,,,,,,,,,,,,,,,,,,,,,,,,,,,,,
,,,,,,,,,,,,,,冶成福,001,2025-01-17_14h51.36.061,IAT(Formal),2021.2.3,Win32,59.88023952,,,,,,,,,,,,,,,e,1,0.5608,0,6,6,20,1,认真,e,,,,,,,,,,,,,,,,,,,,,,,,,,,,,,,,,,,,,,,,,
,,,,,,,,,,,,,,冶成福,001,2025-01-17_14h51.36.061,IAT(Formal),2021.2.3,Win32,59.88023952,,,,,,,,,,,,,,,i,1,0.7814,0,7,7,58,1,他人,i,,,,,,,,,,,,,,,,,,,,,,,,,,,,,,,,,,,,,,,,,
,,,,,,,,,,,,,,冶成福,001,2025-01-17_14h51.36.061,IAT(Formal),2021.2.3,Win32,59.88023952,,,,,,,,,,,,,,,e,0,0.9299,0,8,8,34,1,悲观,i,,,,,,,,,,,,,,,,,,,,,,,,,,,,,,,,,,,,,,,,,
,,,,,,,,,,,,,,冶成福,001,2025-01-17_14h51.36.061,IAT(Formal),2021.2.3,Win32,59.88023952,,,,,,,,,,,,,,,i,1,0.0292,0,9,9,43,1,自私,i,,,,,,,,,,,,,,,,,,,,,,,,,,,,,,,,,,,,,,,,,
,,,,,,,,,,,,,,冶成福,001,2025-01-17_14h51.36.061,IAT(Formal),2021.2.3,Win32,59.88023952,,,,,,,,,,,,,,,i,1,0.9335,0,10,10,8,1,他人,i,,,,,,,,,,,,,,,,,,,,,,,,,,,,,,,,,,,,,,,,,
,,,,,,,,,,,,,,冶成福,001,2025-01-17_14h51.36.061,IAT(Formal),2021.2.3,Win32,59.88023952,,,,,,,,,,,,,,,i,1,0.7567,0,11,11,39,1,冒失,i,,,,,,,,,,,,,,,,,,,,,,,,,,,,,,,,,,,,,,,,,
,,,,,,,,,,,,,,冶成福,001,2025-01-17_14h51.36.061,IAT(Formal),2021.2.3,Win32,59.88023952,,,,,,,,,,,,,,,i,1,0.5758,0,12,12,44,1,暴躁,i,,,,,,,,,,,,,,,,,,,,,,,,,,,,,,,,,,,,,,,,,
,,,,,,,,,,,,,,冶成福,001,2025-01-17_14h51.36.061,IAT(Formal),2021.2.3,Win32,59.88023952,,,,,,,,,,,,,,,e,1,0.877,0,13,13,74,1,俺,e,,,,,,,,,,,,,,,,,,,,,,,,,,,,,,,,,,,,,,,,,
,,,,,,,,,,,,,,冶成福,001,2025-01-17_14h51.36.061,IAT(Formal),2021.2.3,Win32,59.88023952,,,,,,,,,,,,,,,i,1,0.8805,0,14,14,56,1,他们,i,,,,,,,,,,,,,,,,,,,,,,,,,,,,,,,,,,,,,,,,,
,,,,,,,,,,,,,,冶成福,001,2025-01-17_14h51.36.061,IAT(Formal),2021.2.3,Win32,59.88023952,,,,,,,,,,,,,,,i,1,0.6174,0,15,15,31,1,虚伪,i,,,,,,,,,,,,,,,,,,,,,,,,,,,,,,,,,,,,,,,,,
,,,,,,,,,,,,,,冶成福,001,2025-01-17_14h51.36.061,IAT(Formal),2021.2.3,Win32,59.88023952,,,,,,,,,,,,,,,e,1,0.9125,0,16,16,21,1,稳重,e,,,,,,,,,,,,,,,,,,,,,,,,,,,,,,,,,,,,,,,,,
,,,,,,,,,,,,,,冶成福,001,2025-01-17_14h51.36.061,IAT(Formal),2021.2.3,Win32,59.88023952,,,,,,,,,,,,,,,i,1,0.8925,0,17,17,30,1,卑鄙,i,,,,,,,,,,,,,,,,,,,,,,,,,,,,,,,,,,,,,,,,,
,,,,,,,,,,,,,,冶成福,001,2025-01-17_14h51.36.061,IAT(Formal),2021.2.3,Win32,59.88023952,,,,,,,,,,,,,,,e,1,1.2652,0,18,18,51,1,我的,e,,,,,,,,,,,,,,,,,,,,,,,,,,,,,,,,,,,,,,,,,
,,,,,,,,,,,,,,冶成福,001,2025-01-17_14h51.36.061,IAT(Formal),2021.2.3,Win32,59.88023952,,,,,,,,,,,,,,,i,1,0.6152,0,19,19,36,1,自卑,i,,,,,,,,,,,,,,,,,,,,,,,,,,,,,,,,,,,,,,,,,
,,,,,,,,,,,,,,冶成福,001,2025-01-17_14h51.36.061,IAT(Formal),2021.2.3,Win32,59.88023952,,,,,,,,,,,,,,,e,1,0.8494,0,20,20,71,1,我的,e,,,,,,,,,,,,,,,,,,,,,,,,,,,,,,,,,,,,,,,,,
,,,,,,,,,,,,,,冶成福,001,2025-01-17_14h51.36.061,IAT(Formal),2021.2.3,Win32,59.88023952,,,,,,,,,,,,,,,e,1,0.9361,0,21,21,23,1,公正,e,,,,,,,,,,,,,,,,,,,,,,,,,,,,,,,,,,,,,,,,,
,,,,,,,,,,,,,,冶成福,001,2025-01-17_14h51.36.061,IAT(Formal),2021.2.3,Win32,59.88023952,,,,,,,,,,,,,,,e,1,0.891,0,22,22,12,1,聪明,e,,,,,,,,,,,,,,,,,,,,,,,,,,,,,,,,,,,,,,,,,
,,,,,,,,,,,,,,冶成福,001,2025-01-17_14h51.36.061,IAT(Formal),2021.2.3,Win32,59.88023952,,,,,,,,,,,,,,,e,1,0.5991,0,23,23,17,1,勇敢,e,,,,,,,,,,,,,,,,,,,,,,,,,,,,,,,,,,,,,,,,,
,,,,,,,,,,,,,,冶成福,001,2025-01-17_14h51.36.061,IAT(Formal),2021.2.3,Win32,59.88023952,,,,,,,,,,,,,,,i,1,0.709,0,24,24,32,1,愚蠢,i,,,,,,,,,,,,,,,,,,,,,,,,,,,,,,,,,,,,,,,,,
,,,,,,,,,,,,,,冶成福,001,2025-01-17_14h51.36.061,IAT(Formal),2021.2.3,Win32,59.88023952,,,,,,,,,,,,,,,i,1,1.4658,0,25,25,48,1,轻率,i,,,,,,,,,,,,,,,,,,,,,,,,,,,,,,,,,,,,,,,,,
,,,,,,,,,,,,,,冶成福,001,2025-01-17_14h51.36.061,IAT(Formal),2021.2.3,Win32,59.88023952,,,,,,,,,,,,,,,e,1,1.4292,0,26,26,52,1,我们,e,,,,,,,,,,,,,,,,,,,,,,,,,,,,,,,,,,,,,,,,,
,,,,,,,,,,,,,,冶成福,001,2025-01-17_14h51.36.061,IAT(Formal),2021.2.3,Win32,59.88023952,,,,,,,,,,,,,,,e,1,1.1393,0,27,27,50,1,我,e,,,,,,,,,,,,,,,,,,,,,,,,,,,,,,,,,,,,,,,,,
,,,,,,,,,,,,,,冶成福,001,2025-01-17_14h51.36.061,IAT(Formal),2021.2.3,Win32,59.88023952,,,,,,,,,,,,,,,i,1,1.3297,0,28,28,46,1,野蛮,i,,,,,,,,,,,,,,,,,,,,,,,,,,,,,,,,,,,,,,,,,
,,,,,,,,,,,,,,冶成福,001,2025-01-17_14h51.36.061,IAT(Formal),2021.2.3,Win32,59.88023952,,,,,,,,,,,,,,,i,1,0.6493,0,29,29,76,1,他们,i,,,,,,,,,,,,,,,,,,,,,,,,,,,,,,,,,,,,,,,,,
,,,,,,,,,,,,,,冶成福,001,2025-01-17_14h51.36.061,IAT(Formal),2021.2.3,Win32,59.88023952,,,,,,,,,,,,,,,,0,,0,30,30,2,1,我们,e,,,,,,,,,,,,,,,,,,,,,,,,,,,,,,,,,,,,,,,,,
,,,,,,,,,,,,,,冶成福,001,2025-01-17_14h51.36.061,IAT(Formal),2021.2.3,Win32,59.88023952,,,,,,,,,,,,,,,e,1,0.599,0,31,31,63,1,自己,e,,,,,,,,,,,,,,,,,,,,,,,,,,,,,,,,,,,,,,,,,
,,,,,,,,,,,,,,冶成福,001,2025-01-17_14h51.36.061,IAT(Formal),2021.2.3,Win32,59.88023952,,,,,,,,,,,,,,,i,1,0.6517,0,32,32,47,1,固执,i,,,,,,,,,,,,,,,,,,,,,,,,,,,,,,,,,,,,,,,,,
,,,,,,,,,,,,,,冶成福,001,2025-01-17_14h51.36.061,IAT(Formal),2021.2.3,Win32,59.88023952,,,,,,,,,,,,,,,i,1,0.6492,0,33,33,69,1,其他,i,,,,,,,,,,,,,,,,,,,,,,,,,,,,,,,,,,,,,,,,,
,,,,,,,,,,,,,,冶成福,001,2025-01-17_14h51.36.061,IAT(Formal),2021.2.3,Win32,59.88023952,,,,,,,,,,,,,,,e,1,0.9703,0,34,34,25,1,细腻,e,,,,,,,,,,,,,,,,,,,,,,,,,,,,,,,,,,,,,,,,,
,,,,,,,,,,,,,,冶成福,001,2025-01-17_14h51.36.061,IAT(Formal),2021.2.3,Win32,59.88023952,,,,,,,,,,,,,,,,0,,0,35,35,72,1,我们,e,,,,,,,,,,,,,,,,,,,,,,,,,,,,,,,,,,,,,,,,,
,,,,,,,,,,,,,,冶成福,001,2025-01-17_14h51.36.061,IAT(Formal),2021.2.3,Win32,59.88023952,,,,,,,,,,,,,,,,0,,0,36,36,4,1,俺,e,,,,,,,,,,,,,,,,,,,,,,,,,,,,,,,,,,,,,,,,,
,,,,,,,,,,,,,,冶成福,001,2025-01-17_14h51.36.061,IAT(Formal),2021.2.3,Win32,59.88023952,,,,,,,,,,,,,,,i,1,0.5961,0,37,37,79,1,其他,i,,,,,,,,,,,,,,,,,,,,,,,,,,,,,,,,,,,,,,,,,
,,,,,,,,,,,,,,冶成福,001,2025-01-17_14h51.36.061,IAT(Formal),2021.2.3,Win32,59.88023952,,,,,,,,,,,,,,,e,1,0.682,0,38,38,64,1,俺,e,,,,,,,,,,,,,,,,,,,,,,,,,,,,,,,,,,,,,,,,,
,,,,,,,,,,,,,,冶成福,001,2025-01-17_14h51.36.061,IAT(Formal),2021.2.3,Win32,59.88023952,,,,,,,,,,,,,,,,0,,0,39,39,67,1,他的,i,,,,,,,,,,,,,,,,,,,,,,,,,,,,,,,,,,,,,,,,,
,,,,,,,,,,,,,,冶成福,001,2025-01-17_14h51.36.061,IAT(Formal),2021.2.3,Win32,59.88023952,,,,,,,,,,,,,,,i,1,0.627,0,40,40,35,1,消极,i,,,,,,,,,,,,,,,,,,,,,,,,,,,,,,,,,,,,,,,,,
,,,,,,,,,,,,,,冶成福,001,2025-01-17_14h51.36.061,IAT(Formal),2021.2.3,Win32,59.88023952,,,,,,,,,,,,,,,i,1,0.66,0,41,41,57,1,他的,i,,,,,,,,,,,,,,,,,,,,,,,,,,,,,,,,,,,,,,,,,
,,,,,,,,,,,,,,冶成福,001,2025-01-17_14h51.36.061,IAT(Formal),2021.2.3,Win32,59.88023952,,,,,,,,,,,,,,,i,1,1.2468,0,42,42,9,1,其他,i,,,,,,,,,,,,,,,,,,,,,,,,,,,,,,,,,,,,,,,,,
,,,,,,,,,,,,,,冶成福,001,2025-01-17_14h51.36.061,IAT(Formal),2021.2.3,Win32,59.88023952,,,,,,,,,,,,,,,i,0,0.8123,0,43,43,53,1,自己,e,,,,,,,,,,,,,,,,,,,,,,,,,,,,,,,,,,,,,,,,,
,,,,,,,,,,,,,,冶成福,001,2025-01-17_14h51.36.061,IAT(Formal),2021.2.3,Win32,59.88023952,,,,,,,,,,,,,,,,0,,0,44,44,3,1,自己,e,,,,,,,,,,,,,,,,,,,,,,,,,,,,,,,,,,,,,,,,,
,,,,,,,,,,,,,,冶成福,001,2025-01-17_14h51.36.061,IAT(Formal),2021.2.3,Win32,59.88023952,,,,,,,,,,,,,,,,0,,0,45,45,5,1,他,i,,,,,,,,,,,,,,,,,,,,,,,,,,,,,,,,,,,,,,,,,
,,,,,,,,,,,,,,冶成福,001,2025-01-17_14h51.36.061,IAT(Formal),2021.2.3,Win32,59.88023952,,,,,,,,,,,,,,,e,1,0.7331,0,46,46,10,1,优秀,e,,,,,,,,,,,,,,,,,,,,,,,,,,,,,,,,,,,,,,,,,
,,,,,,,,,,,,,,冶成福,001,2025-01-17_14h51.36.061,IAT(Formal),2021.2.3,Win32,59.88023952,,,,,,,,,,,,,,,,0,,0,47,47,68,1,他人,i,,,,,,,,,,,,,,,,,,,,,,,,,,,,,,,,,,,,,,,,,
,,,,,,,,,,,,,,冶成福,001,2025-01-17_14h51.36.061,IAT(Formal),2021.2.3,Win32,59.88023952,,,,,,,,,,,,,,,,0,,0,48,48,45,1,猖狂,i,,,,,,,,,,,,,,,,,,,,,,,,,,,,,,,,,,,,,,,,,
,,,,,,,,,,,,,,冶成福,001,2025-01-17_14h51.36.061,IAT(Formal),2021.2.3,Win32,59.88023952,,,,,,,,,,,,,,,,0,,0,49,49,24,1,朴实,e,,,,,,,,,,,,,,,,,,,,,,,,,,,,,,,,,,,,,,,,,
,,,,,,,,,,,,,,冶成福,001,2025-01-17_14h51.36.061,IAT(Formal),2021.2.3,Win32,59.88023952,,,,,,,,,,,,,,,,0,,0,50,50,62,1,我们,e,,,,,,,,,,,,,,,,,,,,,,,,,,,,,,,,,,,,,,,,,
,,,,,,,,,,,,,,冶成福,001,2025-01-17_14h51.36.061,IAT(Formal),2021.2.3,Win32,59.88023952,,,,,,,,,,,,,,,i,1,0.2644,0,51,51,42,1,凶狠,i,,,,,,,,,,,,,,,,,,,,,,,,,,,,,,,,,,,,,,,,,
,,,,,,,,,,,,,,冶成福,001,2025-01-17_14h51.36.061,IAT(Formal),2021.2.3,Win32,59.88023952,,,,,,,,,,,,,,,i,0,0.8641,0,52,52,22,1,无私,e,,,,,,,,,,,,,,,,,,,,,,,,,,,,,,,,,,,,,,,,,
,,,,,,,,,,,,,,冶成福,001,2025-01-17_14h51.36.061,IAT(Formal),2021.2.3,Win32,59.88023952,,,,,,,,,,,,,,,i,1,1.0197,0,53,53,6,1,他们,i,,,,,,,,,,,,,,,,,,,,,,,,,,,,,,,,,,,,,,,,,
,,,,,,,,,,,,,,冶成福,001,2025-01-17_14h51.36.061,IAT(Formal),2021.2.3,Win32,59.88023952,,,,,,,,,,,,,,,,0,,0,54,54,59,1,其他,i,,,,,,,,,,,,,,,,,,,,,,,,,,,,,,,,,,,,,,,,,
,,,,,,,,,,,,,,冶成福,001,2025-01-17_14h51.36.061,IAT(Formal),2021.2.3,Win32,59.88023952,,,,,,,,,,,,,,,,0,,0,55,55,27,1,热情,e,,,,,,,,,,,,,,,,,,,,,,,,,,,,,,,,,,,,,,,,,
,,,,,,,,,,,,,,冶成福,001,2025-01-17_14h51.36.061,IAT(Formal),2021.2.3,Win32,59.88023952,,,,,,,,,,,,,,,,0,,0,56,56,75,1,他,i,,,,,,,,,,,,,,,,,,,,,,,,,,,,,,,,,,,,,,,,,
,,,,,,,,,,,,,,冶成福,001,2025-01-17_14h51.36.061,IAT(Formal),2021.2.3,Win32,59.88023952,,,,,,,,,,,,,,,i,1,0.8144,0,57,57,77,1,他的,i,,,,,,,,,,,,,,,,,,,,,,,,,,,,,,,,,,,,,,,,,
,,,,,,,,,,,,,,冶成福,001,2025-01-17_14h51.36.061,IAT(Formal),2021.2.3,Win32,59.88023952,,,,,,,,,,,,,,,,0,,0,58,58,16,1,正直,e,,,,,,,,,,,,,,,,,,,,,,,,,,,,,,,,,,,,,,,,,
,,,,,,,,,,,,,,冶成福,001,2025-01-17_14h51.36.061,IAT(Formal),2021.2.3,Win32,59.88023952,,,,,,,,,,,,,,,,0,,0,59,59,18,1,勤奋,e,,,,,,,,,,,,,,,,,,,,,,,,,,,,,,,,,,,,,,,,,
,,,,,,,,,,,,,,冶成福,001,2025-01-17_14h51.36.061,IAT(Formal),2021.2.3,Win32,59.88023952,,,,,,,,,,,,,,,,0,,0,60,60,14,1,乐观,e,,,,,,,,,,,,,,,,,,,,,,,,,,,,,,,,,,,,,,,,,
,,,,,,,,,,,,,,冶成福,001,2025-01-17_14h51.36.061,IAT(Formal),2021.2.3,Win32,59.88023952,,,,,,,,,,,,,,,,0,,0,61,61,38,1,鲁莽,i,,,,,,,,,,,,,,,,,,,,,,,,,,,,,,,,,,,,,,,,,
,,,,,,,,,,,,,,冶成福,001,2025-01-17_14h51.36.061,IAT(Formal),2021.2.3,Win32,59.88023952,,,,,,,,,,,,,,,i,1,0.9395,0,62,62,78,1,他人,i,,,,,,,,,,,,,,,,,,,,,,,,,,,,,,,,,,,,,,,,,
,,,,,,,,,,,,,,冶成福,001,2025-01-17_14h51.36.061,IAT(Formal),2021.2.3,Win32,59.88023952,,,,,,,,,,,,,,,,0,,0,63,63,65,1,他,i,,,,,,,,,,,,,,,,,,,,,,,,,,,,,,,,,,,,,,,,,
,,,,,,,,,,,,,,冶成福,001,2025-01-17_14h51.36.061,IAT(Formal),2021.2.3,Win32,59.88023952,,,,,,,,,,,,,,,,0,,0,64,64,11,1,崇高,e,,,,,,,,,,,,,,,,,,,,,,,,,,,,,,,,,,,,,,,,,
,,,,,,,,,,,,,,冶成福,001,2025-01-17_14h51.36.061,IAT(Formal),2021.2.3,Win32,59.88023952,,,,,,,,,,,,,,,,0,,0,65,65,41,1,散漫,i,,,,,,,,,,,,,,,,,,,,,,,,,,,,,,,,,,,,,,,,,
,,,,,,,,,,,,,,冶成福,001,2025-01-17_14h51.36.061,IAT(Formal),2021.2.3,Win32,59.88023952,,,,,,,,,,,,,,,,0,,0,66,66,54,1,俺,e,,,,,,,,,,,,,,,,,,,,,,,,,,,,,,,,,,,,,,,,,
,,,,,,,,,,,,,,冶成福,001,2025-01-17_14h51.36.061,IAT(Formal),2021.2.3,Win32,59.88023952,,,,,,,,,,,,,,,i,1,0.1386,0,67,67,37,1,傲慢,i,,,,,,,,,,,,,,,,,,,,,,,,,,,,,,,,,,,,,,,,,
,,,,,,,,,,,,,,冶成福,001,2025-01-17_14h51.36.061,IAT(Formal),2021.2.3,Win32,59.88023952,,,,,,,,,,,,,,,i,1,0.4293,0,68,68,7,1,他的,i,,,,,,,,,,,,,,,,,,,,,,,,,,,,,,,,,,,,,,,,,
,,,,,,,,,,,,,,冶成福,001,2025-01-17_14h51.36.061,IAT(Formal),2021.2.3,Win32,59.88023952,,,,,,,,,,,,,,,,0,,0,69,69,19,1,机智,e,,,,,,,,,,,,,,,,,,,,,,,,,,,,,,,,,,,,,,,,,
,,,,,,,,,,,,,,冶成福,001,2025-01-17_14h51.36.061,IAT(Formal),2021.2.3,Win32,59.88023952,,,,,,,,,,,,,,,i,0,0.6674,0,70,70,0,1,我,e,,,,,,,,,,,,,,,,,,,,,,,,,,,,,,,,,,,,,,,,,
,,,,,,,,,,,,,,冶成福,001,2025-01-17_14h51.36.061,IAT(Formal),2021.2.3,Win32,59.88023952,,,,,,,,,,,,,,,,0,,0,71,71,55,1,他,i,,,,,,,,,,,,,,,,,,,,,,,,,,,,,,,,,,,,,,,,,
,,,,,,,,,,,,,,冶成福,001,2025-01-17_14h51.36.061,IAT(Formal),2021.2.3,Win32,59.88023952,,,,,,,,,,,,,,,,0,,0,72,72,61,1,我的,e,,,,,,,,,,,,,,,,,,,,,,,,,,,,,,,,,,,,,,,,,
,,,,,,,,,,,,,,冶成福,001,2025-01-17_14h51.36.061,IAT(Formal),2021.2.3,Win32,59.88023952,,,,,,,,,,,,,,,,0,,0,73,73,33,1,刻薄,i,,,,,,,,,,,,,,,,,,,,,,,,,,,,,,,,,,,,,,,,,
,,,,,,,,,,,,,,冶成福,001,2025-01-17_14h51.36.061,IAT(Formal),2021.2.3,Win32,59.88023952,,,,,,,,,,,,,,,,0,,0,74,74,29,1,诚恳,e,,,,,,,,,,,,,,,,,,,,,,,,,,,,,,,,,,,,,,,,,
,,,,,,,,,,,,,,冶成福,001,2025-01-17_14h51.36.061,IAT(Formal),2021.2.3,Win32,59.88023952,,,,,,,,,,,,,,,,0,,0,75,75,1,1,我的,e,,,,,,,,,,,,,,,,,,,,,,,,,,,,,,,,,,,,,,,,,
,,,,,,,,,,,,,,冶成福,001,2025-01-17_14h51.36.061,IAT(Formal),2021.2.3,Win32,59.88023952,,,,,,,,,,,,,,,,0,,0,76,76,60,1,我,e,,,,,,,,,,,,,,,,,,,,,,,,,,,,,,,,,,,,,,,,,
,,,,,,,,,,,,,,冶成福,001,2025-01-17_14h51.36.061,IAT(Formal),2021.2.3,Win32,59.88023952,,,,,,,,,,,,,,,i,0,1.1145,0,77,77,26,1,冷静,e,,,,,,,,,,,,,,,,,,,,,,,,,,,,,,,,,,,,,,,,,
,,,,,,,,,,,,,,冶成福,001,2025-01-17_14h51.36.061,IAT(Formal),2021.2.3,Win32,59.88023952,,,,,,,,,,,,,,,i,1,0.1846,0,78,78,66,1,他们,i,,,,,,,,,,,,,,,,,,,,,,,,,,,,,,,,,,,,,,,,,
,,,,,,,,,,,,,,冶成福,001,2025-01-17_14h51.36.061,IAT(Formal),2021.2.3,Win32,59.88023952,,,,,,,,,,,,,,,,0,,0,79,79,70,1,我,e,,,,,,,,,,,,,,,,,,,,,,,,,,,,,,,,,,,,,,,,,
,,,,,,,,,,,,,,冶成福,001,2025-01-17_14h51.36.061,IAT(Formal),2021.2.3,Win32,59.88023952,,,,,,,,,,,,,,,,0,,,,,,,自己,e,space,127.5848,0,0,0,63,1,,,,,,,,,,,,,,,,,,,,,,,,,,,,,,,,,,
,,,,,,,,,,,,,,冶成福,001,2025-01-17_14h51.36.061,IAT(Formal),2021.2.3,Win32,59.88023952,,,,,,,,,,,,,,,,0,,,,,,,乐观,e,,,0,1,1,14,1,,,,,,,,,,,,,,,,,,,,,,,,,,,,,,,,,,
,,,,,,,,,,,,,,冶成福,001,2025-01-17_14h51.36.061,IAT(Formal),2021.2.3,Win32,59.88023952,,,,,,,,,,,,,,,,0,,,,,,,俺,e,,,0,2,2,64,1,,,,,,,,,,,,,,,,,,,,,,,,,,,,,,,,,,
,,,,,,,,,,,,,,冶成福,001,2025-01-17_14h51.36.061,IAT(Formal),2021.2.3,Win32,59.88023952,,,,,,,,,,,,,,,e,0,0.8979,,,,,,他们,i,,,0,3,3,66,1,,,,,,,,,,,,,,,,,,,,,,,,,,,,,,,,,,
,,,,,,,,,,,,,,冶成福,001,2025-01-17_14h51.36.061,IAT(Formal),2021.2.3,Win32,59.88023952,,,,,,,,,,,,,,,i,0,0.9619,,,,,,聪明,e,,,0,4,4,12,1,,,,,,,,,,,,,,,,,,,,,,,,,,,,,,,,,,
,,,,,,,,,,,,,,冶成福,001,2025-01-17_14h51.36.061,IAT(Formal),2021.2.3,Win32,59.88023952,,,,,,,,,,,,,,,e,1,0.7768,,,,,,俺,e,,,0,5,5,4,1,,,,,,,,,,,,,,,,,,,,,,,,,,,,,,,,,,
,,,,,,,,,,,,,,冶成福,001,2025-01-17_14h51.36.061,IAT(Formal),2021.2.3,Win32,59.88023952,,,,,,,,,,,,,,,e,1,0.58,,,,,,自己,e,,,0,6,6,53,1,,,,,,,,,,,,,,,,,,,,,,,,,,,,,,,,,,
,,,,,,,,,,,,,,冶成福,001,2025-01-17_14h51.36.061,IAT(Formal),2021.2.3,Win32,59.88023952,,,,,,,,,,,,,,,e,1,0.5645,,,,,,我们,e,,,0,7,7,62,1,,,,,,,,,,,,,,,,,,,,,,,,,,,,,,,,,,
,,,,,,,,,,,,,,冶成福,001,2025-01-17_14h51.36.061,IAT(Formal),2021.2.3,Win32,59.88023952,,,,,,,,,,,,,,,i,1,0.6479,,,,,,他的,i,,,0,8,8,77,1,,,,,,,,,,,,,,,,,,,,,,,,,,,,,,,,,,
,,,,,,,,,,,,,,冶成福,001,2025-01-17_14h51.36.061,IAT(Formal),2021.2.3,Win32,59.88023952,,,,,,,,,,,,,,,e,1,0.8507,,,,,,自己,e,,,0,9,9,3,1,,,,,,,,,,,,,,,,,,,,,,,,,,,,,,,,,,
,,,,,,,,,,,,,,冶成福,001,2025-01-17_14h51.36.061,IAT(Formal),2021.2.3,Win32,59.88023952,,,,,,,,,,,,,,,e,1,0.5733,,,,,,自己,e,,,0,10,10,73,1,,,,,,,,,,,,,,,,,,,,,,,,,,,,,,,,,,
,,,,,,,,,,,,,,冶成福,001,2025-01-17_14h51.36.061,IAT(Formal),2021.2.3,Win32,59.88023952,,,,,,,,,,,,,,,i,1,1.1153,,,,,,其他,i,,,0,11,11,9,1,,,,,,,,,,,,,,,,,,,,,,,,,,,,,,,,,,
,,,,,,,,,,,,,,冶成福,001,2025-01-17_14h51.36.061,IAT(Formal),2021.2.3,Win32,59.88023952,,,,,,,,,,,,,,,i,1,1.0469,,,,,,悲观,i,,,0,12,12,34,1,,,,,,,,,,,,,,,,,,,,,,,,,,,,,,,,,,
,,,,,,,,,,,,,,冶成福,001,2025-01-17_14h51.36.061,IAT(Formal),2021.2.3,Win32,59.88023952,,,,,,,,,,,,,,,i,1,0.6477,,,,,,其他,i,,,0,13,13,59,1,,,,,,,,,,,,,,,,,,,,,,,,,,,,,,,,,,
,,,,,,,,,,,,,,冶成福,001,2025-01-17_14h51.36.061,IAT(Formal),2021.2.3,Win32,59.88023952,,,,,,,,,,,,,,,i,1,1.1879,,,,,,愚蠢,i,,,0,14,14,32,1,,,,,,,,,,,,,,,,,,,,,,,,,,,,,,,,,,
,,,,,,,,,,,,,,冶成福,001,2025-01-17_14h51.36.061,IAT(Formal),2021.2.3,Win32,59.88023952,,,,,,,,,,,,,,,e,1,0.6293,,,,,,我们,e,,,0,15,15,72,1,,,,,,,,,,,,,,,,,,,,,,,,,,,,,,,,,,
,,,,,,,,,,,,,,冶成福,001,2025-01-17_14h51.36.061,IAT(Formal),2021.2.3,Win32,59.88023952,,,,,,,,,,,,,,,i,0,0.5297,,,,,,稳重,e,,,0,16,16,21,1,,,,,,,,,,,,,,,,,,,,,,,,,,,,,,,,,,
,,,,,,,,,,,,,,冶成福,001,2025-01-17_14h51.36.061,IAT(Formal),2021.2.3,Win32,59.88023952,,,,,,,,,,,,,,,e,1,0.8043,,,,,,勤奋,e,,,0,17,17,18,1,,,,,,,,,,,,,,,,,,,,,,,,,,,,,,,,,,
,,,,,,,,,,,,,,冶成福,001,2025-01-17_14h51.36.061,IAT(Formal),2021.2.3,Win32,59.88023952,,,,,,,,,,,,,,,,0,,,,,,,其他,i,,,0,18,18,79,1,,,,,,,,,,,,,,,,,,,,,,,,,,,,,,,,,,
,,,,,,,,,,,,,,冶成福,001,2025-01-17_14h51.36.061,IAT(Formal),2021.2.3,Win32,59.88023952,,,,,,,,,,,,,,,i,1,0.9181,,,,,,固执,i,,,0,19,19,47,1,,,,,,,,,,,,,,,,,,,,,,,,,,,,,,,,,,
,,,,,,,,,,,,,,冶成福,001,2025-01-17_14h51.36.061,IAT(Formal),2021.2.3,Win32,59.88023952,,,,,,,,,,,,,,,i,1,1.2643,,,,,,虚伪,i,,,0,20,20,31,1,,,,,,,,,,,,,,,,,,,,,,,,,,,,,,,,,,
,,,,,,,,,,,,,,冶成福,001,2025-01-17_14h51.36.061,IAT(Formal),2021.2.3,Win32,59.88023952,,,,,,,,,,,,,,,i,1,0.9457,,,,,,鲁莽,i,,,0,21,21,38,1,,,,,,,,,,,,,,,,,,,,,,,,,,,,,,,,,,
,,,,,,,,,,,,,,冶成福,001,2025-01-17_14h51.36.061,IAT(Formal),2021.2.3,Win32,59.88023952,,,,,,,,,,,,,,,,0,,,,,,,诚实,e,,,0,22,22,15,1,,,,,,,,,,,,,,,,,,,,,,,,,,,,,,,,,,
,,,,,,,,,,,,,,冶成福,001,2025-01-17_14h51.36.061,IAT(Formal),2021.2.3,Win32,59.88023952,,,,,,,,,,,,,,,i,1,1.4645,,,,,,他人,i,,,0,23,23,58,1,,,,,,,,,,,,,,,,,,,,,,,,,,,,,,,,,,
,,,,,,,,,,,,,,冶成福,001,2025-01-17_14h51.36.061,IAT(Formal),2021.2.3,Win32,59.88023952,,,,,,,,,,,,,,,,0,,,,,,,我,e,,,0,24,24,0,1,,,,,,,,,,,,,,,,,,,,,,,,,,,,,,,,,,
,,,,,,,,,,,,,,冶成福,001,2025-01-17_14h51.36.061,IAT(Formal),2021.2.3,Win32,59.88023952,,,,,,,,,,,,,,,,0,,,,,,,暴躁,i,,,0,25,25,44,1,,,,,,,,,,,,,,,,,,,,,,,,,,,,,,,,,,
,,,,,,,,,,,,,,冶成福,001,2025-01-17_14h51.36.061,IAT(Formal),2021.2.3,Win32,59.88023952,,,,,,,,,,,,,,,e,1,1.323,,,,,,崇高,e,,,0,26,26,11,1,,,,,,,,,,,,,,,,,,,,,,,,,,,,,,,,,,
,,,,,,,,,,,,,,冶成福,001,2025-01-17_14h51.36.061,IAT(Formal),2021.2.3,Win32,59.88023952,,,,,,,,,,,,,,,,0,,,,,,,杰出,e,,,0,27,27,13,1,,,,,,,,,,,,,,,,,,,,,,,,,,,,,,,,,,
,,,,,,,,,,,,,,冶成福,001,2025-01-17_14h51.36.061,IAT(Formal),2021.2.3,Win32,59.88023952,,,,,,,,,,,,,,,e,1,1.2872,,,,,,我们,e,,,0,28,28,52,1,,,,,,,,,,,,,,,,,,,,,,,,,,,,,,,,,,
,,,,,,,,,,,,,,冶成福,001,2025-01-17_14h51.36.061,IAT(Formal),2021.2.3,Win32,59.88023952,,,,,,,,,,,,,,,i,1,0.1625,,,,,,卑鄙,i,,,0,29,29,30,1,,,,,,,,,,,,,,,,,,,,,,,,,,,,,,,,,,
,,,,,,,,,,,,,,冶成福,001,2025-01-17_14h51.36.061,IAT(Formal),2021.2.3,Win32,59.88023952,,,,,,,,,,,,,,,e,1,1.1732,,,,,,俺,e,,,0,30,30,54,1,,,,,,,,,,,,,,,,,,,,,,,,,,,,,,,,,,
,,,,,,,,,,,,,,冶成福,001,2025-01-17_14h51.36.061,IAT(Formal),2021.2.3,Win32,59.88023952,,,,,,,,,,,,,,,i,1,0.7093,,,,,,下贱,i,,,0,31,31,49,1,,,,,,,,,,,,,,,,,,,,,,,,,,,,,,,,,,
,,,,,,,,,,,,,,冶成福,001,2025-01-17_14h51.36.061,IAT(Formal),2021.2.3,Win32,59.88023952,,,,,,,,,,,,,,,e,0,1.3657,,,,,,他人,i,,,0,32,32,8,1,,,,,,,,,,,,,,,,,,,,,,,,,,,,,,,,,,
,,,,,,,,,,,,,,冶成福,001,2025-01-17_14h51.36.061,IAT(Formal),2021.2.3,Win32,59.88023952,,,,,,,,,,,,,,,i,1,0.5509,,,,,,他们,i,,,0,33,33,6,1,,,,,,,,,,,,,,,,,,,,,,,,,,,,,,,,,,
,,,,,,,,,,,,,,冶成福,001,2025-01-17_14h51.36.061,IAT(Formal),2021.2.3,Win32,59.88023952,,,,,,,,,,,,,,,,0,,,,,,,我,e,,,0,34,34,60,1,,,,,,,,,,,,,,,,,,,,,,,,,,,,,,,,,,
,,,,,,,,,,,,,,冶成福,001,2025-01-17_14h51.36.061,IAT(Formal),2021.2.3,Win32,59.88023952,,,,,,,,,,,,,,,e,1,1.0143,,,,,,我的,e,,,0,35,35,1,1,,,,,,,,,,,,,,,,,,,,,,,,,,,,,,,,,,
,,,,,,,,,,,,,,冶成福,001,2025-01-17_14h51.36.061,IAT(Formal),2021.2.3,Win32,59.88023952,,,,,,,,,,,,,,,i,1,0.762,,,,,,他人,i,,,0,36,36,68,1,,,,,,,,,,,,,,,,,,,,,,,,,,,,,,,,,,
,,,,,,,,,,,,,,冶成福,001,2025-01-17_14h51.36.061,IAT(Formal),2021.2.3,Win32,59.88023952,,,,,,,,,,,,,,,e,1,0.7326,,,,,,我们,e,,,0,37,37,2,1,,,,,,,,,,,,,,,,,,,,,,,,,,,,,,,,,,
,,,,,,,,,,,,,,冶成福,001,2025-01-17_14h51.36.061,IAT(Formal),2021.2.3,Win32,59.88023952,,,,,,,,,,,,,,,i,1,0.5482,,,,,,他,i,,,0,38,38,75,1,,,,,,,,,,,,,,,,,,,,,,,,,,,,,,,,,,
,,,,,,,,,,,,,,冶成福,001,2025-01-17_14h51.36.061,IAT(Formal),2021.2.3,Win32,59.88023952,,,,,,,,,,,,,,,e,1,1.0794,,,,,,认真,e,,,0,39,39,20,1,,,,,,,,,,,,,,,,,,,,,,,,,,,,,,,,,,
,,,,,,,,,,,,,,冶成福,001,2025-01-17_14h51.36.061,IAT(Formal),2021.2.3,Win32,59.88023952,,,,,,,,,,,,,,,e,1,0.8646,,,,,,我的,e,,,0,40,40,51,1,,,,,,,,,,,,,,,,,,,,,,,,,,,,,,,,,,
,,,,,,,,,,,,,,冶成福,001,2025-01-17_14h51.36.061,IAT(Formal),2021.2.3,Win32,59.88023952,,,,,,,,,,,,,,,e,1,1.3378,,,,,,朴实,e,,,0,41,41,24,1,,,,,,,,,,,,,,,,,,,,,,,,,,,,,,,,,,
,,,,,,,,,,,,,,冶成福,001,2025-01-17_14h51.36.061,IAT(Formal),2021.2.3,Win32,59.88023952,,,,,,,,,,,,,,,e,1,1.3992,,,,,,优秀,e,,,0,42,42,10,1,,,,,,,,,,,,,,,,,,,,,,,,,,,,,,,,,,
,,,,,,,,,,,,,,冶成福,001,2025-01-17_14h51.36.061,IAT(Formal),2021.2.3,Win32,59.88023952,,,,,,,,,,,,,,,e,1,1.103,,,,,,机智,e,,,0,43,43,19,1,,,,,,,,,,,,,,,,,,,,,,,,,,,,,,,,,,
,,,,,,,,,,,,,,冶成福,001,2025-01-17_14h51.36.061,IAT(Formal),2021.2.3,Win32,59.88023952,,,,,,,,,,,,,,,,0,,,,,,,正直,e,,,0,44,44,16,1,,,,,,,,,,,,,,,,,,,,,,,,,,,,,,,,,,
,,,,,,,,,,,,,,冶成福,001,2025-01-17_14h51.36.061,IAT(Formal),2021.2.3,Win32,59.88023952,,,,,,,,,,,,,,,,0,,,,,,,诚恳,e,,,0,45,45,29,1,,,,,,,,,,,,,,,,,,,,,,,,,,,,,,,,,,
,,,,,,,,,,,,,,冶成福,001,2025-01-17_14h51.36.061,IAT(Formal),2021.2.3,Win32,59.88023952,,,,,,,,,,,,,,,e,1,0.5822,,,,,,活泼,e,,,0,46,46,28,1,,,,,,,,,,,,,,,,,,,,,,,,,,,,,,,,,,
,,,,,,,,,,,,,,冶成福,001,2025-01-17_14h51.36.061,IAT(Formal),2021.2.3,Win32,59.88023952,,,,,,,,,,,,,,,i,1,1.0668,,,,,,他的,i,,,0,47,47,7,1,,,,,,,,,,,,,,,,,,,,,,,,,,,,,,,,,,
,,,,,,,,,,,,,,冶成福,001,2025-01-17_14h51.36.061,IAT(Formal),2021.2.3,Win32,59.88023952,,,,,,,,,,,,,,,e,1,1.0638,,,,,,我的,e,,,0,48,48,61,1,,,,,,,,,,,,,,,,,,,,,,,,,,,,,,,,,,
,,,,,,,,,,,,,,冶成福,001,2025-01-17_14h51.36.061,IAT(Formal),2021.2.3,Win32,59.88023952,,,,,,,,,,,,,,,i,1,1.0186,,,,,,轻率,i,,,0,49,49,48,1,,,,,,,,,,,,,,,,,,,,,,,,,,,,,,,,,,
,,,,,,,,,,,,,,冶成福,001,2025-01-17_14h51.36.061,IAT(Formal),2021.2.3,Win32,59.88023952,,,,,,,,,,,,,,,i,1,0.6401,,,,,,自私,i,,,0,50,50,43,1,,,,,,,,,,,,,,,,,,,,,,,,,,,,,,,,,,
,,,,,,,,,,,,,,冶成福,001,2025-01-17_14h51.36.061,IAT(Formal),2021.2.3,Win32,59.88023952,,,,,,,,,,,,,,,i,1,0.6506,,,,,,猖狂,i,,,0,51,51,45,1,,,,,,,,,,,,,,,,,,,,,,,,,,,,,,,,,,
,,,,,,,,,,,,,,冶成福,001,2025-01-17_14h51.36.061,IAT(Formal),2021.2.3,Win32,59.88023952,,,,,,,,,,,,,,,i,1,0.6841,,,,,,他们,i,,,0,52,52,56,1,,,,,,,,,,,,,,,,,,,,,,,,,,,,,,,,,,
,,,,,,,,,,,,,,冶成福,001,2025-01-17_14h51.36.061,IAT(Formal),2021.2.3,Win32,59.88023952,,,,,,,,,,,,,,,e,1,1.0447,,,,,,热情,e,,,0,53,53,27,1,,,,,,,,,,,,,,,,,,,,,,,,,,,,,,,,,,
,,,,,,,,,,,,,,冶成福,001,2025-01-17_14h51.36.061,IAT(Formal),2021.2.3,Win32,59.88023952,,,,,,,,,,,,,,,e,1,0.7719,,,,,,我,e,,,0,54,54,50,1,,,,,,,,,,,,,,,,,,,,,,,,,,,,,,,,,,
,,,,,,,,,,,,,,冶成福,001,2025-01-17_14h51.36.061,IAT(Formal),2021.2.3,Win32,59.88023952,,,,,,,,,,,,,,,,0,,,,,,,冒失,i,,,0,55,55,39,1,,,,,,,,,,,,,,,,,,,,,,,,,,,,,,,,,,
,,,,,,,,,,,,,,冶成福,001,2025-01-17_14h51.36.061,IAT(Formal),2021.2.3,Win32,59.88023952,,,,,,,,,,,,,,,i,0,0.6254,,,,,,我,e,,,0,56,56,70,1,,,,,,,,,,,,,,,,,,,,,,,,,,,,,,,,,,
,,,,,,,,,,,,,,冶成福,001,2025-01-17_14h51.36.061,IAT(Formal),2021.2.3,Win32,59.88023952,,,,,,,,,,,,,,,i,1,0.6519,,,,,,刻薄,i,,,0,57,57,33,1,,,,,,,,,,,,,,,,,,,,,,,,,,,,,,,,,,
,,,,,,,,,,,,,,冶成福,001,2025-01-17_14h51.36.061,IAT(Formal),2021.2.3,Win32,59.88023952,,,,,,,,,,,,,,,i,1,1.384,,,,,,野蛮,i,,,0,58,58,46,1,,,,,,,,,,,,,,,,,,,,,,,,,,,,,,,,,,
,,,,,,,,,,,,,,冶成福,001,2025-01-17_14h51.36.061,IAT(Formal),2021.2.3,Win32,59.88023952,,,,,,,,,,,,,,,e,0,1.1823,,,,,,散漫,i,,,0,59,59,41,1,,,,,,,,,,,,,,,,,,,,,,,,,,,,,,,,,,
,,,,,,,,,,,,,,冶成福,001,2025-01-17_14h51.36.061,IAT(Formal),2021.2.3,Win32,59.88023952,,,,,,,,,,,,,,,i,1,0.5442,,,,,,他,i,,,0,60,60,65,1,,,,,,,,,,,,,,,,,,,,,,,,,,,,,,,,,,
,,,,,,,,,,,,,,冶成福,001,2025-01-17_14h51.36.061,IAT(Formal),2021.2.3,Win32,59.88023952,,,,,,,,,,,,,,,i,1,0.5782,,,,,,自卑,i,,,0,61,61,36,1,,,,,,,,,,,,,,,,,,,,,,,,,,,,,,,,,,
,,,,,,,,,,,,,,冶成福,001,2025-01-17_14h51.36.061,IAT(Formal),2021.2.3,Win32,59.88023952,,,,,,,,,,,,,,,i,1,0.5624,,,,,,执拗,i,,,0,62,62,40,1,,,,,,,,,,,,,,,,,,,,,,,,,,,,,,,,,,
,,,,,,,,,,,,,,冶成福,001,2025-01-17_14h51.36.061,IAT(Formal),2021.2.3,Win32,59.88023952,,,,,,,,,,,,,,,i,1,0.5305,,,,,,他,i,,,0,63,63,55,1,,,,,,,,,,,,,,,,,,,,,,,,,,,,,,,,,,
,,,,,,,,,,,,,,冶成福,001,2025-01-17_14h51.36.061,IAT(Formal),2021.2.3,Win32,59.88023952,,,,,,,,,,,,,,,i,1,0.6949,,,,,,傲慢,i,,,0,64,64,37,1,,,,,,,,,,,,,,,,,,,,,,,,,,,,,,,,,,
,,,,,,,,,,,,,,冶成福,001,2025-01-17_14h51.36.061,IAT(Formal),2021.2.3,Win32,59.88023952,,,,,,,,,,,,,,,i,0,0.6475,,,,,,公正,e,,,0,65,65,23,1,,,,,,,,,,,,,,,,,,,,,,,,,,,,,,,,,,
,,,,,,,,,,,,,,冶成福,001,2025-01-17_14h51.36.061,IAT(Formal),2021.2.3,Win32,59.88023952,,,,,,,,,,,,,,,e,1,1.2479,,,,,,我的,e,,,0,66,66,71,1,,,,,,,,,,,,,,,,,,,,,,,,,,,,,,,,,,
,,,,,,,,,,,,,,冶成福,001,2025-01-17_14h51.36.061,IAT(Formal),2021.2.3,Win32,59.88023952,,,,,,,,,,,,,,,,0,,,,,,,他,i,,,0,67,67,5,1,,,,,,,,,,,,,,,,,,,,,,,,,,,,,,,,,,
,,,,,,,,,,,,,,冶成福,001,2025-01-17_14h51.36.061,IAT(Formal),2021.2.3,Win32,59.88023952,,,,,,,,,,,,,,,e,0,0.6968,,,,,,消极,i,,,0,68,68,35,1,,,,,,,,,,,,,,,,,,,,,,,,,,,,,,,,,,
,,,,,,,,,,,,,,冶成福,001,2025-01-17_14h51.36.061,IAT(Formal),2021.2.3,Win32,59.88023952,,,,,,,,,,,,,,,i,1,0.5894,,,,,,他的,i,,,0,69,69,67,1,,,,,,,,,,,,,,,,,,,,,,,,,,,,,,,,,,
,,,,,,,,,,,,,,冶成福,001,2025-01-17_14h51.36.061,IAT(Formal),2021.2.3,Win32,59.88023952,,,,,,,,,,,,,,,i,1,0.5539,,,,,,他人,i,,,0,70,70,78,1,,,,,,,,,,,,,,,,,,,,,,,,,,,,,,,,,,
,,,,,,,,,,,,,,冶成福,001,2025-01-17_14h51.36.061,IAT(Formal),2021.2.3,Win32,59.88023952,,,,,,,,,,,,,,,e,1,1.2644,,,,,,无私,e,,,0,71,71,22,1,,,,,,,,,,,,,,,,,,,,,,,,,,,,,,,,,,
,,,,,,,,,,,,,,冶成福,001,2025-01-17_14h51.36.061,IAT(Formal),2021.2.3,Win32,59.88023952,,,,,,,,,,,,,,,e,0,1.1012,,,,,,凶狠,i,,,0,72,72,42,1,,,,,,,,,,,,,,,,,,,,,,,,,,,,,,,,,,
,,,,,,,,,,,,,,冶成福,001,2025-01-17_14h51.36.061,IAT(Formal),2021.2.3,Win32,59.88023952,,,,,,,,,,,,,,,i,1,0.8872,,,,,,他们,i,,,0,73,73,76,1,,,,,,,,,,,,,,,,,,,,,,,,,,,,,,,,,,
,,,,,,,,,,,,,,冶成福,001,2025-01-17_14h51.36.061,IAT(Formal),2021.2.3,Win32,59.88023952,,,,,,,,,,,,,,,i,0,0.6493,,,,,,俺,e,,,0,74,74,74,1,,,,,,,,,,,,,,,,,,,,,,,,,,,,,,,,,,
,,,,,,,,,,,,,,冶成福,001,2025-01-17_14h51.36.061,IAT(Formal),2021.2.3,Win32,59.88023952,,,,,,,,,,,,,,,i,1,1.3478,,,,,,其他,i,,,0,75,75,69,1,,,,,,,,,,,,,,,,,,,,,,,,,,,,,,,,,,
,,,,,,,,,,,,,,冶成福,001,2025-01-17_14h51.36.061,IAT(Formal),2021.2.3,Win32,59.88023952,,,,,,,,,,,,,,,e,1,1.3488,,,,,,冷静,e,,,0,76,76,26,1,,,,,,,,,,,,,,,,,,,,,,,,,,,,,,,,,,
,,,,,,,,,,,,,,冶成福,001,2025-01-17_14h51.36.061,IAT(Formal),2021.2.3,Win32,59.88023952,,,,,,,,,,,,,,,,0,,,,,,,细腻,e,,,0,77,77,25,1,,,,,,,,,,,,,,,,,,,,,,,,,,,,,,,,,,
,,,,,,,,,,,,,,冶成福,001,2025-01-17_14h51.36.061,IAT(Formal),2021.2.3,Win32,59.88023952,,,,,,,,,,,,,,,i,1,0.9674,,,,,,他的,i,,,0,78,78,57,1,,,,,,,,,,,,,,,,,,,,,,,,,,,,,,,,,,
,,,,,,,,,,,,,,冶成福,001,2025-01-17_14h51.36.061,IAT(Formal),2021.2.3,Win32,59.88023952,,,,,,,,,,,,,,,e,1,0.755,,,,,,勇敢,e,,,0,79,79,17,1,,,,,,,,,,,,,,,,,,,,,,,,,,,,,,,,,,
,,,,,,,,,,,,,,冶成福,001,2025-01-17_14h51.36.061,IAT(Formal),2021.2.3,Win32,59.88023952,,,,,,,,,,,,,,,e,0,0.6964,,,,,,他的,i,,,1,0,80,77,1,,,,,,,,,,,,,,,,,,,,,,,,,,,,,,,,,,
,,,,,,,,,,,,,,冶成福,001,2025-01-17_14h51.36.061,IAT(Formal),2021.2.3,Win32,59.88023952,,,,,,,,,,,,,,,i,1,1.1461,,,,,,他,i,,,1,1,81,65,1,,,,,,,,,,,,,,,,,,,,,,,,,,,,,,,,,,
,,,,,,,,,,,,,,冶成福,001,2025-01-17_14h51.36.061,IAT(Formal),2021.2.3,Win32,59.88023952,,,,,,,,,,,,,,,i,0,1.4248,,,,,,我,e,,,1,2,82,50,1,,,,,,,,,,,,,,,,,,,,,,,,,,,,,,,,,,
,,,,,,,,,,,,,,冶成福,001,2025-01-17_14h51.36.061,IAT(Formal),2021.2.3,Win32,59.88023952,,,,,,,,,,,,,,,i,1,0.9184,,,,,,消极,i,,,1,3,83,35,1,,,,,,,,,,,,,,,,,,,,,,,,,,,,,,,,,,
,,,,,,,,,,,,,,冶成福,001,2025-01-17_14h51.36.061,IAT(Formal),2021.2.3,Win32,59.88023952,,,,,,,,,,,,,,,e,1,0.7135,,,,,,乐观,e,,,1,4,84,14,1,,,,,,,,,,,,,,,,,,,,,,,,,,,,,,,,,,
,,,,,,,,,,,,,,冶成福,001,2025-01-17_14h51.36.061,IAT(Formal),2021.2.3,Win32,59.88023952,,,,,,,,,,,,,,,e,1,0.854,,,,,,俺,e,,,1,5,85,74,1,,,,,,,,,,,,,,,,,,,,,,,,,,,,,,,,,,
,,,,,,,,,,,,,,冶成福,001,2025-01-17_14h51.36.061,IAT(Formal),2021.2.3,Win32,59.88023952,,,,,,,,,,,,,,,i,0,0.7677,,,,,,杰出,e,,,1,6,86,13,1,,,,,,,,,,,,,,,,,,,,,,,,,,,,,,,,,,
,,,,,,,,,,,,,,冶成福,001,2025-01-17_14h51.36.061,IAT(Formal),2021.2.3,Win32,59.88023952,,,,,,,,,,,,,,,e,1,0.738,,,,,,冷静,e,,,1,7,87,26,1,,,,,,,,,,,,,,,,,,,,,,,,,,,,,,,,,,
,,,,,,,,,,,,,,冶成福,001,2025-01-17_14h51.36.061,IAT(Formal),2021.2.3,Win32,59.88023952,,,,,,,,,,,,,,,e,1,1.1117,,,,,,自己,e,,,1,8,88,63,1,,,,,,,,,,,,,,,,,,,,,,,,,,,,,,,,,,
,,,,,,,,,,,,,,冶成福,001,2025-01-17_14h51.36.061,IAT(Formal),2021.2.3,Win32,59.88023952,,,,,,,,,,,,,,,i,1,0.8649,,,,,,他人,i,,,1,9,89,68,1,,,,,,,,,,,,,,,,,,,,,,,,,,,,,,,,,,
,,,,,,,,,,,,,,冶成福,001,2025-01-17_14h51.36.061,IAT(Formal),2021.2.3,Win32,59.88023952,,,,,,,,,,,,,,,i,1,1.4086,,,,,,悲观,i,,,1,10,90,34,1,,,,,,,,,,,,,,,,,,,,,,,,,,,,,,,,,,
,,,,,,,,,,,,,,冶成福,001,2025-01-17_14h51.36.061,IAT(Formal),2021.2.3,Win32,59.88023952,,,,,,,,,,,,,,,e,1,0.948,,,,,,俺,e,,,1,11,91,54,1,,,,,,,,,,,,,,,,,,,,,,,,,,,,,,,,,,
,,,,,,,,,,,,,,冶成福,001,2025-01-17_14h51.36.061,IAT(Formal),2021.2.3,Win32,59.88023952,,,,,,,,,,,,,,,e,1,0.7862,,,,,,聪明,e,,,1,12,92,12,1,,,,,,,,,,,,,,,,,,,,,,,,,,,,,,,,,,
,,,,,,,,,,,,,,冶成福,001,2025-01-17_14h51.36.061,IAT(Formal),2021.2.3,Win32,59.88023952,,,,,,,,,,,,,,,e,1,0.7076,,,,,,优秀,e,,,1,13,93,10,1,,,,,,,,,,,,,,,,,,,,,,,,,,,,,,,,,,
,,,,,,,,,,,,,,冶成福,001,2025-01-17_14h51.36.061,IAT(Formal),2021.2.3,Win32,59.88023952,,,,,,,,,,,,,,,e,0,0.8365,,,,,,他的,i,,,1,14,94,57,1,,,,,,,,,,,,,,,,,,,,,,,,,,,,,,,,,,
,,,,,,,,,,,,,,冶成福,001,2025-01-17_14h51.36.061,IAT(Formal),2021.2.3,Win32,59.88023952,,,,,,,,,,,,,,,e,0,1.3139,,,,,,他们,i,,,1,15,95,6,1,,,,,,,,,,,,,,,,,,,,,,,,,,,,,,,,,,
,,,,,,,,,,,,,,冶成福,001,2025-01-17_14h51.36.061,IAT(Formal),2021.2.3,Win32,59.88023952,,,,,,,,,,,,,,,i,1,1.4047,,,,,,他们,i,,,1,16,96,66,1,,,,,,,,,,,,,,,,,,,,,,,,,,,,,,,,,,
,,,,,,,,,,,,,,冶成福,001,2025-01-17_14h51.36.061,IAT(Formal),2021.2.3,Win32,59.88023952,,,,,,,,,,,,,,,e,1,1.3218,,,,,,诚恳,e,,,1,17,97,29,1,,,,,,,,,,,,,,,,,,,,,,,,,,,,,,,,,,
,,,,,,,,,,,,,,冶成福,001,2025-01-17_14h51.36.061,IAT(Formal),2021.2.3,Win32,59.88023952,,,,,,,,,,,,,,,e,1,1.4522,,,,,,我的,e,,,1,18,98,51,1,,,,,,,,,,,,,,,,,,,,,,,,,,,,,,,,,,
,,,,,,,,,,,,,,冶成福,001,2025-01-17_14h51.36.061,IAT(Formal),2021.2.3,Win32,59.88023952,,,,,,,,,,,,,,,,0,,,,,,,下贱,i,,,1,19,99,49,1,,,,,,,,,,,,,,,,,,,,,,,,,,,,,,,,,,
,,,,,,,,,,,,,,冶成福,001,2025-01-17_14h51.36.061,IAT(Formal),2021.2.3,Win32,59.88023952,,,,,,,,,,,,,,,,0,,,,,,,自己,e,,,1,20,100,73,1,,,,,,,,,,,,,,,,,,,,,,,,,,,,,,,,,,
,,,,,,,,,,,,,,冶成福,001,2025-01-17_14h51.36.061,IAT(Formal),2021.2.3,Win32,59.88023952,,,,,,,,,,,,,,,i,1,0.5309,,,,,,自卑,i,,,1,21,101,36,1,,,,,,,,,,,,,,,,,,,,,,,,,,,,,,,,,,
,,,,,,,,,,,,,,冶成福,001,2025-01-17_14h51.36.061,IAT(Formal),2021.2.3,Win32,59.88023952,,,,,,,,,,,,,,,i,1,0.9785,,,,,,轻率,i,,,1,22,102,48,1,,,,,,,,,,,,,,,,,,,,,,,,,,,,,,,,,,
,,,,,,,,,,,,,,冶成福,001,2025-01-17_14h51.36.061,IAT(Formal),2021.2.3,Win32,59.88023952,,,,,,,,,,,,,,,i,1,0.8474,,,,,,他,i,,,1,23,103,75,1,,,,,,,,,,,,,,,,,,,,,,,,,,,,,,,,,,
,,,,,,,,,,,,,,冶成福,001,2025-01-17_14h51.36.061,IAT(Formal),2021.2.3,Win32,59.88023952,,,,,,,,,,,,,,,i,1,0.5223,,,,,,他,i,,,1,24,104,55,1,,,,,,,,,,,,,,,,,,,,,,,,,,,,,,,,,,
,,,,,,,,,,,,,,冶成福,001,2025-01-17_14h51.36.061,IAT(Formal),2021.2.3,Win32,59.88023952,,,,,,,,,,,,,,,e,1,0.7126,,,,,,稳重,e,,,1,25,105,21,1,,,,,,,,,,,,,,,,,,,,,,,,,,,,,,,,,,
,,,,,,,,,,,,,,冶成福,001,2025-01-17_14h51.36.061,IAT(Formal),2021.2.3,Win32,59.88023952,,,,,,,,,,,,,,,i,0,0.847,,,,,,活泼,e,,,1,26,106,28,1,,,,,,,,,,,,,,,,,,,,,,,,,,,,,,,,,,
,,,,,,,,,,,,,,冶成福,001,2025-01-17_14h51.36.061,IAT(Formal),2021.2.3,Win32,59.88023952,,,,,,,,,,,,,,,i,1,0.5822,,,,,,其他,i,,,1,27,107,59,1,,,,,,,,,,,,,,,,,,,,,,,,,,,,,,,,,,
,,,,,,,,,,,,,,冶成福,001,2025-01-17_14h51.36.061,IAT(Formal),2021.2.3,Win32,59.88023952,,,,,,,,,,,,,,,e,1,0.9452,,,,,,自己,e,,,1,28,108,3,1,,,,,,,,,,,,,,,,,,,,,,,,,,,,,,,,,,
,,,,,,,,,,,,,,冶成福,001,2025-01-17_14h51.36.061,IAT(Formal),2021.2.3,Win32,59.88023952,,,,,,,,,,,,,,,i,1,0.6866,,,,,,愚蠢,i,,,1,29,109,32,1,,,,,,,,,,,,,,,,,,,,,,,,,,,,,,,,,,
,,,,,,,,,,,,,,冶成福,001,2025-01-17_14h51.36.061,IAT(Formal),2021.2.3,Win32,59.88023952,,,,,,,,,,,,,,,i,0,0.9655,,,,,,我们,e,,,1,30,110,52,1,,,,,,,,,,,,,,,,,,,,,,,,,,,,,,,,,,
,,,,,,,,,,,,,,冶成福,001,2025-01-17_14h51.36.061,IAT(Formal),2021.2.3,Win32,59.88023952,,,,,,,,,,,,,,,e,1,0.8261,,,,,,我们,e,,,1,31,111,62,1,,,,,,,,,,,,,,,,,,,,,,,,,,,,,,,,,,
,,,,,,,,,,,,,,冶成福,001,2025-01-17_14h51.36.061,IAT(Formal),2021.2.3,Win32,59.88023952,,,,,,,,,,,,,,,e,1,0.8431,,,,,,诚实,e,,,1,32,112,15,1,,,,,,,,,,,,,,,,,,,,,,,,,,,,,,,,,,
,,,,,,,,,,,,,,冶成福,001,2025-01-17_14h51.36.061,IAT(Formal),2021.2.3,Win32,59.88023952,,,,,,,,,,,,,,,,0,,,,,,,我的,e,,,1,33,113,61,1,,,,,,,,,,,,,,,,,,,,,,,,,,,,,,,,,,
,,,,,,,,,,,,,,冶成福,001,2025-01-17_14h51.36.061,IAT(Formal),2021.2.3,Win32,59.88023952,,,,,,,,,,,,,,,e,1,0.8042,,,,,,正直,e,,,1,34,114,16,1,,,,,,,,,,,,,,,,,,,,,,,,,,,,,,,,,,
,,,,,,,,,,,,,,冶成福,001,2025-01-17_14h51.36.061,IAT(Formal),2021.2.3,Win32,59.88023952,,,,,,,,,,,,,,,e,0,0.7984,,,,,,他们,i,,,1,35,115,76,1,,,,,,,,,,,,,,,,,,,,,,,,,,,,,,,,,,
,,,,,,,,,,,,,,冶成福,001,2025-01-17_14h51.36.061,IAT(Formal),2021.2.3,Win32,59.88023952,,,,,,,,,,,,,,,,0,,,,,,,执拗,i,,,1,36,116,40,1,,,,,,,,,,,,,,,,,,,,,,,,,,,,,,,,,,
,,,,,,,,,,,,,,冶成福,001,2025-01-17_14h51.36.061,IAT(Formal),2021.2.3,Win32,59.88023952,,,,,,,,,,,,,,,i,1,0.8648,,,,,,散漫,i,,,1,37,117,41,1,,,,,,,,,,,,,,,,,,,,,,,,,,,,,,,,,,
,,,,,,,,,,,,,,冶成福,001,2025-01-17_14h51.36.061,IAT(Formal),2021.2.3,Win32,59.88023952,,,,,,,,,,,,,,,e,1,0.8208,,,,,,我,e,,,1,38,118,60,1,,,,,,,,,,,,,,,,,,,,,,,,,,,,,,,,,,
,,,,,,,,,,,,,,冶成福,001,2025-01-17_14h51.36.061,IAT(Formal),2021.2.3,Win32,59.88023952,,,,,,,,,,,,,,,i,1,1.0466,,,,,,鲁莽,i,,,1,39,119,38,1,,,,,,,,,,,,,,,,,,,,,,,,,,,,,,,,,,
,,,,,,,,,,,,,,冶成福,001,2025-01-17_14h51.36.061,IAT(Formal),2021.2.3,Win32,59.88023952,,,,,,,,,,,,,,,i,0,0.7666,,,,,,崇高,e,,,1,40,120,11,1,,,,,,,,,,,,,,,,,,,,,,,,,,,,,,,,,,
,,,,,,,,,,,,,,冶成福,001,2025-01-17_14h51.36.061,IAT(Formal),2021.2.3,Win32,59.88023952,,,,,,,,,,,,,,,,0,,,,,,,他人,i,,,1,41,121,8,1,,,,,,,,,,,,,,,,,,,,,,,,,,,,,,,,,,
,,,,,,,,,,,,,,冶成福,001,2025-01-17_14h51.36.061,IAT(Formal),2021.2.3,Win32,59.88023952,,,,,,,,,,,,,,,i,1,1.2197,,,,,,其他,i,,,1,42,122,79,1,,,,,,,,,,,,,,,,,,,,,,,,,,,,,,,,,,
,,,,,,,,,,,,,,冶成福,001,2025-01-17_14h51.36.061,IAT(Formal),2021.2.3,Win32,59.88023952,,,,,,,,,,,,,,,e,1,0.9614,,,,,,无私,e,,,1,43,123,22,1,,,,,,,,,,,,,,,,,,,,,,,,,,,,,,,,,,
,,,,,,,,,,,,,,冶成福,001,2025-01-17_14h51.36.061,IAT(Formal),2021.2.3,Win32,59.88023952,,,,,,,,,,,,,,,i,1,1.029,,,,,,野蛮,i,,,1,44,124,46,1,,,,,,,,,,,,,,,,,,,,,,,,,,,,,,,,,,
,,,,,,,,,,,,,,冶成福,001,2025-01-17_14h51.36.061,IAT(Formal),2021.2.3,Win32,59.88023952,,,,,,,,,,,,,,,i,1,0.5817,,,,,,他人,i,,,1,45,125,58,1,,,,,,,,,,,,,,,,,,,,,,,,,,,,,,,,,,
,,,,,,,,,,,,,,冶成福,001,2025-01-17_14h51.36.061,IAT(Formal),2021.2.3,Win32,59.88023952,,,,,,,,,,,,,,,e,1,0.6822,,,,,,认真,e,,,1,46,126,20,1,,,,,,,,,,,,,,,,,,,,,,,,,,,,,,,,,,
,,,,,,,,,,,,,,冶成福,001,2025-01-17_14h51.36.061,IAT(Formal),2021.2.3,Win32,59.88023952,,,,,,,,,,,,,,,e,1,1.1287,,,,,,热情,e,,,1,47,127,27,1,,,,,,,,,,,,,,,,,,,,,,,,,,,,,,,,,,
,,,,,,,,,,,,,,冶成福,001,2025-01-17_14h51.36.061,IAT(Formal),2021.2.3,Win32,59.88023952,,,,,,,,,,,,,,,i,1,0.4331,,,,,,傲慢,i,,,1,48,128,37,1,,,,,,,,,,,,,,,,,,,,,,,,,,,,,,,,,,
,,,,,,,,,,,,,,冶成福,001,2025-01-17_14h51.36.061,IAT(Formal),2021.2.3,Win32,59.88023952,,,,,,,,,,,,,,,,0,,,,,,,勤奋,e,,,1,49,129,18,1,,,,,,,,,,,,,,,,,,,,,,,,,,,,,,,,,,
,,,,,,,,,,,,,,冶成福,001,2025-01-17_14h51.36.061,IAT(Formal),2021.2.3,Win32,59.88023952,,,,,,,,,,,,,,,i,1,0.3987,,,,,,他的,i,,,1,50,130,7,1,,,,,,,,,,,,,,,,,,,,,,,,,,,,,,,,,,
,,,,,,,,,,,,,,冶成福,001,2025-01-17_14h51.36.061,IAT(Formal),2021.2.3,Win32,59.88023952,,,,,,,,,,,,,,,,0,,,,,,,公正,e,,,1,51,131,23,1,,,,,,,,,,,,,,,,,,,,,,,,,,,,,,,,,,
,,,,,,,,,,,,,,冶成福,001,2025-01-17_14h51.36.061,IAT(Formal),2021.2.3,Win32,59.88023952,,,,,,,,,,,,,,,,0,,,,,,,我们,e,,,1,52,132,72,1,,,,,,,,,,,,,,,,,,,,,,,,,,,,,,,,,,
,,,,,,,,,,,,,,冶成福,001,2025-01-17_14h51.36.061,IAT(Formal),2021.2.3,Win32,59.88023952,,,,,,,,,,,,,,,i,0,0.4329,,,,,,我的,e,,,1,53,133,1,1,,,,,,,,,,,,,,,,,,,,,,,,,,,,,,,,,,
,,,,,,,,,,,,,,冶成福,001,2025-01-17_14h51.36.061,IAT(Formal),2021.2.3,Win32,59.88023952,,,,,,,,,,,,,,,e,0,0.9196,,,,,,猖狂,i,,,1,54,134,45,1,,,,,,,,,,,,,,,,,,,,,,,,,,,,,,,,,,
,,,,,,,,,,,,,,冶成福,001,2025-01-17_14h51.36.061,IAT(Formal),2021.2.3,Win32,59.88023952,,,,,,,,,,,,,,,e,0,0.4337,,,,,,固执,i,,,1,55,135,47,1,,,,,,,,,,,,,,,,,,,,,,,,,,,,,,,,,,
,,,,,,,,,,,,,,冶成福,001,2025-01-17_14h51.36.061,IAT(Formal),2021.2.3,Win32,59.88023952,,,,,,,,,,,,,,,e,0,1.3849,,,,,,他的,i,,,1,56,136,67,1,,,,,,,,,,,,,,,,,,,,,,,,,,,,,,,,,,
,,,,,,,,,,,,,,冶成福,001,2025-01-17_14h51.36.061,IAT(Formal),2021.2.3,Win32,59.88023952,,,,,,,,,,,,,,,e,1,0.9644,,,,,,俺,e,,,1,57,137,64,1,,,,,,,,,,,,,,,,,,,,,,,,,,,,,,,,,,
,,,,,,,,,,,,,,冶成福,001,2025-01-17_14h51.36.061,IAT(Formal),2021.2.3,Win32,59.88023952,,,,,,,,,,,,,,,e,1,0.7339,,,,,,勇敢,e,,,1,58,138,17,1,,,,,,,,,,,,,,,,,,,,,,,,,,,,,,,,,,
,,,,,,,,,,,,,,冶成福,001,2025-01-17_14h51.36.061,IAT(Formal),2021.2.3,Win32,59.88023952,,,,,,,,,,,,,,,,0,,,,,,,冒失,i,,,1,59,139,39,1,,,,,,,,,,,,,,,,,,,,,,,,,,,,,,,,,,
,,,,,,,,,,,,,,冶成福,001,2025-01-17_14h51.36.061,IAT(Formal),2021.2.3,Win32,59.88023952,,,,,,,,,,,,,,,e,0,1.1308,,,,,,凶狠,i,,,1,60,140,42,1,,,,,,,,,,,,,,,,,,,,,,,,,,,,,,,,,,
,,,,,,,,,,,,,,冶成福,001,2025-01-17_14h51.36.061,IAT(Formal),2021.2.3,Win32,59.88023952,,,,,,,,,,,,,,,i,1,0.3486,,,,,,他人,i,,,1,61,141,78,1,,,,,,,,,,,,,,,,,,,,,,,,,,,,,,,,,,
,,,,,,,,,,,,,,冶成福,001,2025-01-17_14h51.36.061,IAT(Formal),2021.2.3,Win32,59.88023952,,,,,,,,,,,,,,,i,0,0.946,,,,,,机智,e,,,1,62,142,19,1,,,,,,,,,,,,,,,,,,,,,,,,,,,,,,,,,,
,,,,,,,,,,,,,,冶成福,001,2025-01-17_14h51.36.061,IAT(Formal),2021.2.3,Win32,59.88023952,,,,,,,,,,,,,,,i,0,0.5959,,,,,,朴实,e,,,1,63,143,24,1,,,,,,,,,,,,,,,,,,,,,,,,,,,,,,,,,,
,,,,,,,,,,,,,,冶成福,001,2025-01-17_14h51.36.061,IAT(Formal),2021.2.3,Win32,59.88023952,,,,,,,,,,,,,,,e,1,0.9016,,,,,,我,e,,,1,64,144,70,1,,,,,,,,,,,,,,,,,,,,,,,,,,,,,,,,,,
,,,,,,,,,,,,,,冶成福,001,2025-01-17_14h51.36.061,IAT(Formal),2021.2.3,Win32,59.88023952,,,,,,,,,,,,,,,i,1,0.5377,,,,,,他们,i,,,1,65,145,56,1,,,,,,,,,,,,,,,,,,,,,,,,,,,,,,,,,,
,,,,,,,,,,,,,,冶成福,001,2025-01-17_14h51.36.061,IAT(Formal),2021.2.3,Win32,59.88023952,,,,,,,,,,,,,,,e,0,1.2697,,,,,,暴躁,i,,,1,66,146,44,1,,,,,,,,,,,,,,,,,,,,,,,,,,,,,,,,,,
,,,,,,,,,,,,,,冶成福,001,2025-01-17_14h51.36.061,IAT(Formal),2021.2.3,Win32,59.88023952,,,,,,,,,,,,,,,i,1,0.6842,,,,,,卑鄙,i,,,1,67,147,30,1,,,,,,,,,,,,,,,,,,,,,,,,,,,,,,,,,,
,,,,,,,,,,,,,,冶成福,001,2025-01-17_14h51.36.061,IAT(Formal),2021.2.3,Win32,59.88023952,,,,,,,,,,,,,,,i,1,0.5211,,,,,,刻薄,i,,,1,68,148,33,1,,,,,,,,,,,,,,,,,,,,,,,,,,,,,,,,,,
,,,,,,,,,,,,,,冶成福,001,2025-01-17_14h51.36.061,IAT(Formal),2021.2.3,Win32,59.88023952,,,,,,,,,,,,,,,e,1,0.6705,,,,,,我们,e,,,1,69,149,2,1,,,,,,,,,,,,,,,,,,,,,,,,,,,,,,,,,,
,,,,,,,,,,,,,,冶成福,001,2025-01-17_14h51.36.061,IAT(Formal),2021.2.3,Win32,59.88023952,,,,,,,,,,,,,,,e,1,0.6872,,,,,,细腻,e,,,1,70,150,25,1,,,,,,,,,,,,,,,,,,,,,,,,,,,,,,,,,,
,,,,,,,,,,,,,,冶成福,001,2025-01-17_14h51.36.061,IAT(Formal),2021.2.3,Win32,59.88023952,,,,,,,,,,,,,,,i,1,0.613,,,,,,其他,i,,,1,71,151,69,1,,,,,,,,,,,,,,,,,,,,,,,,,,,,,,,,,,
,,,,,,,,,,,,,,冶成福,001,2025-01-17_14h51.36.061,IAT(Formal),2021.2.3,Win32,59.88023952,,,,,,,,,,,,,,,i,1,0.6934,,,,,,自私,i,,,1,72,152,43,1,,,,,,,,,,,,,,,,,,,,,,,,,,,,,,,,,,
,,,,,,,,,,,,,,冶成福,001,2025-01-17_14h51.36.061,IAT(Formal),2021.2.3,Win32,59.88023952,,,,,,,,,,,,,,,e,1,0.6395,,,,,,我,e,,,1,73,153,0,1,,,,,,,,,,,,,,,,,,,,,,,,,,,,,,,,,,
,,,,,,,,,,,,,,冶成福,001,2025-01-17_14h51.36.061,IAT(Formal),2021.2.3,Win32,59.88023952,,,,,,,,,,,,,,,i,1,0.5549,,,,,,他,i,,,1,74,154,5,1,,,,,,,,,,,,,,,,,,,,,,,,,,,,,,,,,,
,,,,,,,,,,,,,,冶成福,001,2025-01-17_14h51.36.061,IAT(Formal),2021.2.3,Win32,59.88023952,,,,,,,,,,,,,,,i,1,0.6363,,,,,,虚伪,i,,,1,75,155,31,1,,,,,,,,,,,,,,,,,,,,,,,,,,,,,,,,,,
,,,,,,,,,,,,,,冶成福,001,2025-01-17_14h51.36.061,IAT(Formal),2021.2.3,Win32,59.88023952,,,,,,,,,,,,,,,i,0,0.6355,,,,,,俺,e,,,1,76,156,4,1,,,,,,,,,,,,,,,,,,,,,,,,,,,,,,,,,,
,,,,,,,,,,,,,,冶成福,001,2025-01-17_14h51.36.061,IAT(Formal),2021.2.3,Win32,59.88023952,,,,,,,,,,,,,,,e,1,0.8379,,,,,,我的,e,,,1,77,157,71,1,,,,,,,,,,,,,,,,,,,,,,,,,,,,,,,,,,
,,,,,,,,,,,,,,冶成福,001,2025-01-17_14h51.36.061,IAT(Formal),2021.2.3,Win32,59.88023952,,,,,,,,,,,,,,,i,1,0.5067,,,,,,其他,i,,,1,78,158,9,1,,,,,,,,,,,,,,,,,,,,,,,,,,,,,,,,,,
,,,,,,,,,,,,,,冶成福,001,2025-01-17_14h51.36.061,IAT(Formal),2021.2.3,Win32,59.88023952,,,,,,,,,,,,,,,e,1,0.5831,,,,,,自己,e,,,1,79,159,53,1,,,,,,,,,,,,,,,,,,,,,,,,,,,,,,,,,,
,,,,,,,,,,,,其他,e,冶成福,001,2025-01-17_14h51.36.061,IAT(Formal),2021.2.3,Win32,59.88023952,,,,,,,,,,,,,,,,,,,,,,,,,,,,,,,,space,54.3754,e,1,0.6507,0,0,0,9,1,,,,,,,,,,,,,,,,,,,,,,,,
,,,,,,,,,,,,他人,e,冶成福,001,2025-01-17_14h51.36.061,IAT(Formal),2021.2.3,Win32,59.88023952,,,,,,,,,,,,,,,,,,,,,,,,,,,,,,,,,,e,1,0.6347,0,1,1,8,1,,,,,,,,,,,,,,,,,,,,,,,,
,,,,,,,,,,,,他们,e,冶成福,001,2025-01-17_14h51.36.061,IAT(Formal),2021.2.3,Win32,59.88023952,,,,,,,,,,,,,,,,,,,,,,,,,,,,,,,,,,e,1,0.7512,0,2,2,6,1,,,,,,,,,,,,,,,,,,,,,,,,
,,,,,,,,,,,,我的,i,冶成福,001,2025-01-17_14h51.36.061,IAT(Formal),2021.2.3,Win32,59.88023952,,,,,,,,,,,,,,,,,,,,,,,,,,,,,,,,,,i,1,1.3837,0,3,3,1,1,,,,,,,,,,,,,,,,,,,,,,,,
,,,,,,,,,,,,自己,i,冶成福,001,2025-01-17_14h51.36.061,IAT(Formal),2021.2.3,Win32,59.88023952,,,,,,,,,,,,,,,,,,,,,,,,,,,,,,,,,,e,0,0.6346,0,4,4,3,1,,,,,,,,,,,,,,,,,,,,,,,,
,,,,,,,,,,,,他,e,冶成福,001,2025-01-17_14h51.36.061,IAT(Formal),2021.2.3,Win32,59.88023952,,,,,,,,,,,,,,,,,,,,,,,,,,,,,,,,,,e,1,1.05,0,5,5,5,1,,,,,,,,,,,,,,,,,,,,,,,,
,,,,,,,,,,,,他的,e,冶成福,001,2025-01-17_14h51.36.061,IAT(Formal),2021.2.3,Win32,59.88023952,,,,,,,,,,,,,,,,,,,,,,,,,,,,,,,,,,e,1,0.4515,0,6,6,7,1,,,,,,,,,,,,,,,,,,,,,,,,
,,,,,,,,,,,,我们,i,冶成福,001,2025-01-17_14h51.36.061,IAT(Formal),2021.2.3,Win32,59.88023952,,,,,,,,,,,,,,,,,,,,,,,,,,,,,,,,,,i,1,0.4262,0,7,7,2,1,,,,,,,,,,,,,,,,,,,,,,,,
,,,,,,,,,,,,俺,i,冶成福,001,2025-01-17_14h51.36.061,IAT(Formal),2021.2.3,Win32,59.88023952,,,,,,,,,,,,,,,,,,,,,,,,,,,,,,,,,,,0,,0,8,8,4,1,,,,,,,,,,,,,,,,,,,,,,,,
,,,,,,,,,,,,我,i,冶成福,001,2025-01-17_14h51.36.061,IAT(Formal),2021.2.3,Win32,59.88023952,,,,,,,,,,,,,,,,,,,,,,,,,,,,,,,,,,i,1,0.6183,0,9,9,0,1,,,,,,,,,,,,,,,,,,,,,,,,
,,,,,,,,,,,,,,冶成福,001,2025-01-17_14h51.36.061,IAT(Formal),2021.2.3,Win32,59.88023952,,,,,,,,,,,,,,,,,,,,,,,,,,,,,,,,,,,,,,,,,,space,3.0763,,0,0,0,0,14,1,乐观,e,,,,,,,,,,,,,
,,,,,,,,,,,,,,冶成福,001,2025-01-17_14h51.36.061,IAT(Formal),2021.2.3,Win32,59.88023952,,,,,,,,,,,,,,,,,,,,,,,,,,,,,,,,,,,,,,,,,,,,i,0,0,1,1,15,1,诚实,e,0.4008,,,,,,,,,,,,
,,,,,,,,,,,,,,冶成福,001,2025-01-17_14h51.36.061,IAT(Formal),2021.2.3,Win32,59.88023952,,,,,,,,,,,,,,,,,,,,,,,,,,,,,,,,,,,,,,,,,,,,e,1,0,2,2,11,1,崇高,e,0.3305,,,,,,,,,,,,
,,,,,,,,,,,,,,冶成福,001,2025-01-17_14h51.36.061,IAT(Formal),2021.2.3,Win32,59.88023952,,,,,,,,,,,,,,,,,,,,,,,,,,,,,,,,,,,,,,,,,,,,i,0,0,3,3,78,1,他人,e,1.0971,,,,,,,,,,,,
,,,,,,,,,,,,,,冶成福,001,2025-01-17_14h51.36.061,IAT(Formal),2021.2.3,Win32,59.88023952,,,,,,,,,,,,,,,,,,,,,,,,,,,,,,,,,,,,,,,,,,,,e,0,0,4,4,30,1,卑鄙,i,1.3664,,,,,,,,,,,,
,,,,,,,,,,,,,,冶成福,001,2025-01-17_14h51.36.061,IAT(Formal),2021.2.3,Win32,59.88023952,,,,,,,,,,,,,,,,,,,,,,,,,,,,,,,,,,,,,,,,,,,,e,1,0,5,5,66,1,他们,e,1.1682,,,,,,,,,,,,
,,,,,,,,,,,,,,冶成福,001,2025-01-17_14h51.36.061,IAT(Formal),2021.2.3,Win32,59.88023952,,,,,,,,,,,,,,,,,,,,,,,,,,,,,,,,,,,,,,,,,,,,i,1,0,6,6,40,1,执拗,i,1.0634,,,,,,,,,,,,
,,,,,,,,,,,,,,冶成福,001,2025-01-17_14h51.36.061,IAT(Formal),2021.2.3,Win32,59.88023952,,,,,,,,,,,,,,,,,,,,,,,,,,,,,,,,,,,,,,,,,,,,e,1,0,7,7,77,1,他的,e,0.7146,,,,,,,,,,,,
,,,,,,,,,,,,,,冶成福,001,2025-01-17_14h51.36.061,IAT(Formal),2021.2.3,Win32,59.88023952,,,,,,,,,,,,,,,,,,,,,,,,,,,,,,,,,,,,,,,,,,,,i,1,0,8,8,3,1,自己,i,1.1344,,,,,,,,,,,,
,,,,,,,,,,,,,,冶成福,001,2025-01-17_14h51.36.061,IAT(Formal),2021.2.3,Win32,59.88023952,,,,,,,,,,,,,,,,,,,,,,,,,,,,,,,,,,,,,,,,,,,,i,0,0,9,9,29,1,诚恳,e,0.7806,,,,,,,,,,,,
,,,,,,,,,,,,,,冶成福,001,2025-01-17_14h51.36.061,IAT(Formal),2021.2.3,Win32,59.88023952,,,,,,,,,,,,,,,,,,,,,,,,,,,,,,,,,,,,,,,,,,,,i,1,0,10,10,71,1,我的,i,1.0366,,,,,,,,,,,,
,,,,,,,,,,,,,,冶成福,001,2025-01-17_14h51.36.061,IAT(Formal),2021.2.3,Win32,59.88023952,,,,,,,,,,,,,,,,,,,,,,,,,,,,,,,,,,,,,,,,,,,,,0,0,11,11,41,1,散漫,i,,,,,,,,,,,,,
,,,,,,,,,,,,,,冶成福,001,2025-01-17_14h51.36.061,IAT(Formal),2021.2.3,Win32,59.88023952,,,,,,,,,,,,,,,,,,,,,,,,,,,,,,,,,,,,,,,,,,,,i,1,0,12,12,54,1,俺,i,1.0003,,,,,,,,,,,,
,,,,,,,,,,,,,,冶成福,001,2025-01-17_14h51.36.061,IAT(Formal),2021.2.3,Win32,59.88023952,,,,,,,,,,,,,,,,,,,,,,,,,,,,,,,,,,,,,,,,,,,,i,1,0,13,13,31,1,虚伪,i,0.7014,,,,,,,,,,,,
,,,,,,,,,,,,,,冶成福,001,2025-01-17_14h51.36.061,IAT(Formal),2021.2.3,Win32,59.88023952,,,,,,,,,,,,,,,,,,,,,,,,,,,,,,,,,,,,,,,,,,,,i,1,0,14,14,44,1,暴躁,i,0.6172,,,,,,,,,,,,
,,,,,,,,,,,,,,冶成福,001,2025-01-17_14h51.36.061,IAT(Formal),2021.2.3,Win32,59.88023952,,,,,,,,,,,,,,,,,,,,,,,,,,,,,,,,,,,,,,,,,,,,e,1,0,15,15,9,1,其他,e,0.8999,,,,,,,,,,,,
,,,,,,,,,,,,,,冶成福,001,2025-01-17_14h51.36.061,IAT(Formal),2021.2.3,Win32,59.88023952,,,,,,,,,,,,,,,,,,,,,,,,,,,,,,,,,,,,,,,,,,,,i,0,0,16,16,18,1,勤奋,e,0.9795,,,,,,,,,,,,
,,,,,,,,,,,,,,冶成福,001,2025-01-17_14h51.36.061,IAT(Formal),2021.2.3,Win32,59.88023952,,,,,,,,,,,,,,,,,,,,,,,,,,,,,,,,,,,,,,,,,,,,i,0,0,17,17,58,1,他人,e,0.6048,,,,,,,,,,,,
,,,,,,,,,,,,,,冶成福,001,2025-01-17_14h51.36.061,IAT(Formal),2021.2.3,Win32,59.88023952,,,,,,,,,,,,,,,,,,,,,,,,,,,,,,,,,,,,,,,,,,,,i,1,0,18,18,2,1,我们,i,0.7888,,,,,,,,,,,,
,,,,,,,,,,,,,,冶成福,001,2025-01-17_14h51.36.061,IAT(Formal),2021.2.3,Win32,59.88023952,,,,,,,,,,,,,,,,,,,,,,,,,,,,,,,,,,,,,,,,,,,,i,1,0,19,19,50,1,我,i,0.5877,,,,,,,,,,,,
,,,,,,,,,,,,,,冶成福,001,2025-01-17_14h51.36.061,IAT(Formal),2021.2.3,Win32,59.88023952,,,,,,,,,,,,,,,,,,,,,,,,,,,,,,,,,,,,,,,,,,,,i,1,0,20,20,62,1,我们,i,0.5529,,,,,,,,,,,,
,,,,,,,,,,,,,,冶成福,001,2025-01-17_14h51.36.061,IAT(Formal),2021.2.3,Win32,59.88023952,,,,,,,,,,,,,,,,,,,,,,,,,,,,,,,,,,,,,,,,,,,,,0,0,21,21,28,1,活泼,e,,,,,,,,,,,,,
,,,,,,,,,,,,,,冶成福,001,2025-01-17_14h51.36.061,IAT(Formal),2021.2.3,Win32,59.88023952,,,,,,,,,,,,,,,,,,,,,,,,,,,,,,,,,,,,,,,,,,,,i,1,0,22,22,1,1,我的,i,1.3307,,,,,,,,,,,,
,,,,,,,,,,,,,,冶成福,001,2025-01-17_14h51.36.061,IAT(Formal),2021.2.3,Win32,59.88023952,,,,,,,,,,,,,,,,,,,,,,,,,,,,,,,,,,,,,,,,,,,,i,1,0,23,23,35,1,消极,i,0.8485,,,,,,,,,,,,
,,,,,,,,,,,,,,冶成福,001,2025-01-17_14h51.36.061,IAT(Formal),2021.2.3,Win32,59.88023952,,,,,,,,,,,,,,,,,,,,,,,,,,,,,,,,,,,,,,,,,,,,i,0,0,24,24,76,1,他们,e,0.8965,,,,,,,,,,,,
,,,,,,,,,,,,,,冶成福,001,2025-01-17_14h51.36.061,IAT(Formal),2021.2.3,Win32,59.88023952,,,,,,,,,,,,,,,,,,,,,,,,,,,,,,,,,,,,,,,,,,,,e,0,0,25,25,33,1,刻薄,i,1.0783,,,,,,,,,,,,
,,,,,,,,,,,,,,冶成福,001,2025-01-17_14h51.36.061,IAT(Formal),2021.2.3,Win32,59.88023952,,,,,,,,,,,,,,,,,,,,,,,,,,,,,,,,,,,,,,,,,,,,i,1,0,26,26,64,1,俺,i,1.3809,,,,,,,,,,,,
,,,,,,,,,,,,,,冶成福,001,2025-01-17_14h51.36.061,IAT(Formal),2021.2.3,Win32,59.88023952,,,,,,,,,,,,,,,,,,,,,,,,,,,,,,,,,,,,,,,,,,,,e,1,0,27,27,27,1,热情,e,1.3458,,,,,,,,,,,,
,,,,,,,,,,,,,,冶成福,001,2025-01-17_14h51.36.061,IAT(Formal),2021.2.3,Win32,59.88023952,,,,,,,,,,,,,,,,,,,,,,,,,,,,,,,,,,,,,,,,,,,,e,1,0,28,28,16,1,正直,e,0.8117,,,,,,,,,,,,
,,,,,,,,,,,,,,冶成福,001,2025-01-17_14h51.36.061,IAT(Formal),2021.2.3,Win32,59.88023952,,,,,,,,,,,,,,,,,,,,,,,,,,,,,,,,,,,,,,,,,,,,i,1,0,29,29,45,1,猖狂,i,1.1537,,,,,,,,,,,,
,,,,,,,,,,,,,,冶成福,001,2025-01-17_14h51.36.061,IAT(Formal),2021.2.3,Win32,59.88023952,,,,,,,,,,,,,,,,,,,,,,,,,,,,,,,,,,,,,,,,,,,,e,1,0,30,30,69,1,其他,e,0.8374,,,,,,,,,,,,
,,,,,,,,,,,,,,冶成福,001,2025-01-17_14h51.36.061,IAT(Formal),2021.2.3,Win32,59.88023952,,,,,,,,,,,,,,,,,,,,,,,,,,,,,,,,,,,,,,,,,,,,e,1,0,31,31,5,1,他,e,0.7881,,,,,,,,,,,,
,,,,,,,,,,,,,,冶成福,001,2025-01-17_14h51.36.061,IAT(Formal),2021.2.3,Win32,59.88023952,,,,,,,,,,,,,,,,,,,,,,,,,,,,,,,,,,,,,,,,,,,,,0,0,32,32,39,1,冒失,i,,,,,,,,,,,,,
,,,,,,,,,,,,,,冶成福,001,2025-01-17_14h51.36.061,IAT(Formal),2021.2.3,Win32,59.88023952,,,,,,,,,,,,,,,,,,,,,,,,,,,,,,,,,,,,,,,,,,,,e,1,0,33,33,65,1,他,e,0.8995,,,,,,,,,,,,
,,,,,,,,,,,,,,冶成福,001,2025-01-17_14h51.36.061,IAT(Formal),2021.2.3,Win32,59.88023952,,,,,,,,,,,,,,,,,,,,,,,,,,,,,,,,,,,,,,,,,,,,e,1,0,34,34,68,1,他人,e,0.646,,,,,,,,,,,,
,,,,,,,,,,,,,,冶成福,001,2025-01-17_14h51.36.061,IAT(Formal),2021.2.3,Win32,59.88023952,,,,,,,,,,,,,,,,,,,,,,,,,,,,,,,,,,,,,,,,,,,,i,1,0,35,35,46,1,野蛮,i,0.7709,,,,,,,,,,,,
,,,,,,,,,,,,,,冶成福,001,2025-01-17_14h51.36.061,IAT(Formal),2021.2.3,Win32,59.88023952,,,,,,,,,,,,,,,,,,,,,,,,,,,,,,,,,,,,,,,,,,,,e,1,0,36,36,19,1,机智,e,0.884,,,,,,,,,,,,
,,,,,,,,,,,,,,冶成福,001,2025-01-17_14h51.36.061,IAT(Formal),2021.2.3,Win32,59.88023952,,,,,,,,,,,,,,,,,,,,,,,,,,,,,,,,,,,,,,,,,,,,e,1,0,37,37,25,1,细腻,e,0.6526,,,,,,,,,,,,
,,,,,,,,,,,,,,冶成福,001,2025-01-17_14h51.36.061,IAT(Formal),2021.2.3,Win32,59.88023952,,,,,,,,,,,,,,,,,,,,,,,,,,,,,,,,,,,,,,,,,,,,i,0,0,38,38,6,1,他们,e,0.8888,,,,,,,,,,,,
,,,,,,,,,,,,,,冶成福,001,2025-01-17_14h51.36.061,IAT(Formal),2021.2.3,Win32,59.88023952,,,,,,,,,,,,,,,,,,,,,,,,,,,,,,,,,,,,,,,,,,,,e,1,0,39,39,22,1,无私,e,0.6359,,,,,,,,,,,,
,,,,,,,,,,,,,,冶成福,001,2025-01-17_14h51.36.061,IAT(Formal),2021.2.3,Win32,59.88023952,,,,,,,,,,,,,,,,,,,,,,,,,,,,,,,,,,,,,,,,,,,,i,1,0,40,40,37,1,傲慢,i,1.1797,,,,,,,,,,,,
,,,,,,,,,,,,,,冶成福,001,2025-01-17_14h51.36.061,IAT(Formal),2021.2.3,Win32,59.88023952,,,,,,,,,,,,,,,,,,,,,,,,,,,,,,,,,,,,,,,,,,,,i,1,0,41,41,72,1,我们,i,0.9925,,,,,,,,,,,,
,,,,,,,,,,,,,,冶成福,001,2025-01-17_14h51.36.061,IAT(Formal),2021.2.3,Win32,59.88023952,,,,,,,,,,,,,,,,,,,,,,,,,,,,,,,,,,,,,,,,,,,,e,1,0,42,42,75,1,他,e,1.0194,,,,,,,,,,,,
,,,,,,,,,,,,,,冶成福,001,2025-01-17_14h51.36.061,IAT(Formal),2021.2.3,Win32,59.88023952,,,,,,,,,,,,,,,,,,,,,,,,,,,,,,,,,,,,,,,,,,,,i,1,0,43,43,34,1,悲观,i,1.2833,,,,,,,,,,,,
,,,,,,,,,,,,,,冶成福,001,2025-01-17_14h51.36.061,IAT(Formal),2021.2.3,Win32,59.88023952,,,,,,,,,,,,,,,,,,,,,,,,,,,,,,,,,,,,,,,,,,,,i,1,0,44,44,47,1,固执,i,0.846,,,,,,,,,,,,
,,,,,,,,,,,,,,冶成福,001,2025-01-17_14h51.36.061,IAT(Formal),2021.2.3,Win32,59.88023952,,,,,,,,,,,,,,,,,,,,,,,,,,,,,,,,,,,,,,,,,,,,i,1,0,45,45,38,1,鲁莽,i,0.6801,,,,,,,,,,,,
,,,,,,,,,,,,,,冶成福,001,2025-01-17_14h51.36.061,IAT(Formal),2021.2.3,Win32,59.88023952,,,,,,,,,,,,,,,,,,,,,,,,,,,,,,,,,,,,,,,,,,,,e,1,0,46,46,8,1,他人,e,0.6804,,,,,,,,,,,,
,,,,,,,,,,,,,,冶成福,001,2025-01-17_14h51.36.061,IAT(Formal),2021.2.3,Win32,59.88023952,,,,,,,,,,,,,,,,,,,,,,,,,,,,,,,,,,,,,,,,,,,,e,1,0,47,47,24,1,朴实,e,1.0854,,,,,,,,,,,,
,,,,,,,,,,,,,,冶成福,001,2025-01-17_14h51.36.061,IAT(Formal),2021.2.3,Win32,59.88023952,,,,,,,,,,,,,,,,,,,,,,,,,,,,,,,,,,,,,,,,,,,,i,1,0,48,48,52,1,我们,i,0.5728,,,,,,,,,,,,
,,,,,,,,,,,,,,冶成福,001,2025-01-17_14h51.36.061,IAT(Formal),2021.2.3,Win32,59.88023952,,,,,,,,,,,,,,,,,,,,,,,,,,,,,,,,,,,,,,,,,,,,e,1,0,49,49,7,1,他的,e,0.8697,,,,,,,,,,,,
,,,,,,,,,,,,,,冶成福,001,2025-01-17_14h51.36.061,IAT(Formal),2021.2.3,Win32,59.88023952,,,,,,,,,,,,,,,,,,,,,,,,,,,,,,,,,,,,,,,,,,,,e,1,0,50,50,79,1,其他,e,0.6148,,,,,,,,,,,,
,,,,,,,,,,,,,,冶成福,001,2025-01-17_14h51.36.061,IAT(Formal),2021.2.3,Win32,59.88023952,,,,,,,,,,,,,,,,,,,,,,,,,,,,,,,,,,,,,,,,,,,,e,0,0,51,51,4,1,俺,i,0.6037,,,,,,,,,,,,
,,,,,,,,,,,,,,冶成福,001,2025-01-17_14h51.36.061,IAT(Formal),2021.2.3,Win32,59.88023952,,,,,,,,,,,,,,,,,,,,,,,,,,,,,,,,,,,,,,,,,,,,i,1,0,52,52,73,1,自己,i,0.5842,,,,,,,,,,,,
,,,,,,,,,,,,,,冶成福,001,2025-01-17_14h51.36.061,IAT(Formal),2021.2.3,Win32,59.88023952,,,,,,,,,,,,,,,,,,,,,,,,,,,,,,,,,,,,,,,,,,,,i,1,0,53,53,74,1,俺,i,0.447,,,,,,,,,,,,
,,,,,,,,,,,,,,冶成福,001,2025-01-17_14h51.36.061,IAT(Formal),2021.2.3,Win32,59.88023952,,,,,,,,,,,,,,,,,,,,,,,,,,,,,,,,,,,,,,,,,,,,i,0,0,54,54,55,1,他,e,0.5159,,,,,,,,,,,,
,,,,,,,,,,,,,,冶成福,001,2025-01-17_14h51.36.061,IAT(Formal),2021.2.3,Win32,59.88023952,,,,,,,,,,,,,,,,,,,,,,,,,,,,,,,,,,,,,,,,,,,,e,1,0,55,55,20,1,认真,e,0.9012,,,,,,,,,,,,
,,,,,,,,,,,,,,冶成福,001,2025-01-17_14h51.36.061,IAT(Formal),2021.2.3,Win32,59.88023952,,,,,,,,,,,,,,,,,,,,,,,,,,,,,,,,,,,,,,,,,,,,i,1,0,56,56,63,1,自己,i,0.681,,,,,,,,,,,,
,,,,,,,,,,,,,,冶成福,001,2025-01-17_14h51.36.061,IAT(Formal),2021.2.3,Win32,59.88023952,,,,,,,,,,,,,,,,,,,,,,,,,,,,,,,,,,,,,,,,,,,,e,1,0,57,57,10,1,优秀,e,1.2789,,,,,,,,,,,,
,,,,,,,,,,,,,,冶成福,001,2025-01-17_14h51.36.061,IAT(Formal),2021.2.3,Win32,59.88023952,,,,,,,,,,,,,,,,,,,,,,,,,,,,,,,,,,,,,,,,,,,,i,1,0,58,58,53,1,自己,i,0.8161,,,,,,,,,,,,
,,,,,,,,,,,,,,冶成福,001,2025-01-17_14h51.36.061,IAT(Formal),2021.2.3,Win32,59.88023952,,,,,,,,,,,,,,,,,,,,,,,,,,,,,,,,,,,,,,,,,,,,e,0,0,59,59,61,1,我的,i,1.1642,,,,,,,,,,,,
,,,,,,,,,,,,,,冶成福,001,2025-01-17_14h51.36.061,IAT(Formal),2021.2.3,Win32,59.88023952,,,,,,,,,,,,,,,,,,,,,,,,,,,,,,,,,,,,,,,,,,,,e,1,0,60,60,21,1,稳重,e,1.0173,,,,,,,,,,,,
,,,,,,,,,,,,,,冶成福,001,2025-01-17_14h51.36.061,IAT(Formal),2021.2.3,Win32,59.88023952,,,,,,,,,,,,,,,,,,,,,,,,,,,,,,,,,,,,,,,,,,,,i,0,0,61,61,56,1,他们,e,0.781,,,,,,,,,,,,
,,,,,,,,,,,,,,冶成福,001,2025-01-17_14h51.36.061,IAT(Formal),2021.2.3,Win32,59.88023952,,,,,,,,,,,,,,,,,,,,,,,,,,,,,,,,,,,,,,,,,,,,,0,0,62,62,12,1,聪明,e,,,,,,,,,,,,,
,,,,,,,,,,,,,,冶成福,001,2025-01-17_14h51.36.061,IAT(Formal),2021.2.3,Win32,59.88023952,,,,,,,,,,,,,,,,,,,,,,,,,,,,,,,,,,,,,,,,,,,,i,1,0,63,63,51,1,我的,i,0.7305,,,,,,,,,,,,
,,,,,,,,,,,,,,冶成福,001,2025-01-17_14h51.36.061,IAT(Formal),2021.2.3,Win32,59.88023952,,,,,,,,,,,,,,,,,,,,,,,,,,,,,,,,,,,,,,,,,,,,i,1,0,64,64,43,1,自私,i,0.6201,,,,,,,,,,,,
,,,,,,,,,,,,,,冶成福,001,2025-01-17_14h51.36.061,IAT(Formal),2021.2.3,Win32,59.88023952,,,,,,,,,,,,,,,,,,,,,,,,,,,,,,,,,,,,,,,,,,,,e,1,0,65,65,59,1,其他,e,0.6641,,,,,,,,,,,,
,,,,,,,,,,,,,,冶成福,001,2025-01-17_14h51.36.061,IAT(Formal),2021.2.3,Win32,59.88023952,,,,,,,,,,,,,,,,,,,,,,,,,,,,,,,,,,,,,,,,,,,,i,1,0,66,66,36,1,自卑,i,0.6384,,,,,,,,,,,,
,,,,,,,,,,,,,,冶成福,001,2025-01-17_14h51.36.061,IAT(Formal),2021.2.3,Win32,59.88023952,,,,,,,,,,,,,,,,,,,,,,,,,,,,,,,,,,,,,,,,,,,,e,1,0,67,67,23,1,公正,e,0.6296,,,,,,,,,,,,
,,,,,,,,,,,,,,冶成福,001,2025-01-17_14h51.36.061,IAT(Formal),2021.2.3,Win32,59.88023952,,,,,,,,,,,,,,,,,,,,,,,,,,,,,,,,,,,,,,,,,,,,i,1,0,68,68,0,1,我,i,0.5902,,,,,,,,,,,,
,,,,,,,,,,,,,,冶成福,001,2025-01-17_14h51.36.061,IAT(Formal),2021.2.3,Win32,59.88023952,,,,,,,,,,,,,,,,,,,,,,,,,,,,,,,,,,,,,,,,,,,,i,1,0,69,69,32,1,愚蠢,i,0.6296,,,,,,,,,,,,
,,,,,,,,,,,,,,冶成福,001,2025-01-17_14h51.36.061,IAT(Formal),2021.2.3,Win32,59.88023952,,,,,,,,,,,,,,,,,,,,,,,,,,,,,,,,,,,,,,,,,,,,i,1,0,70,70,48,1,轻率,i,1.2382,,,,,,,,,,,,
,,,,,,,,,,,,,,冶成福,001,2025-01-17_14h51.36.061,IAT(Formal),2021.2.3,Win32,59.88023952,,,,,,,,,,,,,,,,,,,,,,,,,,,,,,,,,,,,,,,,,,,,e,1,0,71,71,67,1,他的,e,0.8162,,,,,,,,,,,,
,,,,,,,,,,,,,,冶成福,001,2025-01-17_14h51.36.061,IAT(Formal),2021.2.3,Win32,59.88023952,,,,,,,,,,,,,,,,,,,,,,,,,,,,,,,,,,,,,,,,,,,,,0,0,72,72,17,1,勇敢,e,,,,,,,,,,,,,
,,,,,,,,,,,,,,冶成福,001,2025-01-17_14h51.36.061,IAT(Formal),2021.2.3,Win32,59.88023952,,,,,,,,,,,,,,,,,,,,,,,,,,,,,,,,,,,,,,,,,,,,i,1,0,73,73,70,1,我,i,0.5135,,,,,,,,,,,,
,,,,,,,,,,,,,,冶成福,001,2025-01-17_14h51.36.061,IAT(Formal),2021.2.3,Win32,59.88023952,,,,,,,,,,,,,,,,,,,,,,,,,,,,,,,,,,,,,,,,,,,,e,1,0,74,74,13,1,杰出,e,0.8843,,,,,,,,,,,,
,,,,,,,,,,,,,,冶成福,001,2025-01-17_14h51.36.061,IAT(Formal),2021.2.3,Win32,59.88023952,,,,,,,,,,,,,,,,,,,,,,,,,,,,,,,,,,,,,,,,,,,,e,1,0,75,75,57,1,他的,e,0.7654,,,,,,,,,,,,
,,,,,,,,,,,,,,冶成福,001,2025-01-17_14h51.36.061,IAT(Formal),2021.2.3,Win32,59.88023952,,,,,,,,,,,,,,,,,,,,,,,,,,,,,,,,,,,,,,,,,,,,i,1,0,76,76,42,1,凶狠,i,0.6015,,,,,,,,,,,,
,,,,,,,,,,,,,,冶成福,001,2025-01-17_14h51.36.061,IAT(Formal),2021.2.3,Win32,59.88023952,,,,,,,,,,,,,,,,,,,,,,,,,,,,,,,,,,,,,,,,,,,,i,1,0,77,77,49,1,下贱,i,0.6989,,,,,,,,,,,,
,,,,,,,,,,,,,,冶成福,001,2025-01-17_14h51.36.061,IAT(Formal),2021.2.3,Win32,59.88023952,,,,,,,,,,,,,,,,,,,,,,,,,,,,,,,,,,,,,,,,,,,,i,1,0,78,78,60,1,我,i,0.9054,,,,,,,,,,,,
,,,,,,,,,,,,,,冶成福,001,2025-01-17_14h51.36.061,IAT(Formal),2021.2.3,Win32,59.88023952,,,,,,,,,,,,,,,,,,,,,,,,,,,,,,,,,,,,,,,,,,,,e,1,0,79,79,26,1,冷静,e,0.9339,,,,,,,,,,,,
,,,,,,,,,,,,,,冶成福,001,2025-01-17_14h51.36.061,IAT(Formal),2021.2.3,Win32,59.88023952,,,,,,,,,,,,,,,,,,,,,,,,,,,,,,,,,,,,,,,,,,,,,,,,,,,他的,e,,space,11.6687,i,0,0.9712,0,0,0,57,1,,
,,,,,,,,,,,,,,冶成福,001,2025-01-17_14h51.36.061,IAT(Formal),2021.2.3,Win32,59.88023952,,,,,,,,,,,,,,,,,,,,,,,,,,,,,,,,,,,,,,,,,,,,,,,,,,,俺,i,,,,i,1,0.6647,0,1,1,74,1,,
,,,,,,,,,,,,,,冶成福,001,2025-01-17_14h51.36.061,IAT(Formal),2021.2.3,Win32,59.88023952,,,,,,,,,,,,,,,,,,,,,,,,,,,,,,,,,,,,,,,,,,,,,,,,,,,热情,e,,,,e,1,0.9414,0,2,2,27,1,,
,,,,,,,,,,,,,,冶成福,001,2025-01-17_14h51.36.061,IAT(Formal),2021.2.3,Win32,59.88023952,,,,,,,,,,,,,,,,,,,,,,,,,,,,,,,,,,,,,,,,,,,,,,,,,,,虚伪,i,,,,i,1,0.749,0,3,3,31,1,,
,,,,,,,,,,,,,,冶成福,001,2025-01-17_14h51.36.061,IAT(Formal),2021.2.3,Win32,59.88023952,,,,,,,,,,,,,,,,,,,,,,,,,,,,,,,,,,,,,,,,,,,,,,,,,,,我,i,,,,i,1,0.7662,0,4,4,50,1,,
,,,,,,,,,,,,,,冶成福,001,2025-01-17_14h51.36.061,IAT(Formal),2021.2.3,Win32,59.88023952,,,,,,,,,,,,,,,,,,,,,,,,,,,,,,,,,,,,,,,,,,,,,,,,,,,其他,e,,,,e,1,1.1968,0,5,5,69,1,,
,,,,,,,,,,,,,,冶成福,001,2025-01-17_14h51.36.061,IAT(Formal),2021.2.3,Win32,59.88023952,,,,,,,,,,,,,,,,,,,,,,,,,,,,,,,,,,,,,,,,,,,,,,,,,,,俺,i,,,,i,1,0.5008,0,6,6,64,1,,
,,,,,,,,,,,,,,冶成福,001,2025-01-17_14h51.36.061,IAT(Formal),2021.2.3,Win32,59.88023952,,,,,,,,,,,,,,,,,,,,,,,,,,,,,,,,,,,,,,,,,,,,,,,,,,,轻率,i,,,,i,1,0.8231,0,7,7,48,1,,
,,,,,,,,,,,,,,冶成福,001,2025-01-17_14h51.36.061,IAT(Formal),2021.2.3,Win32,59.88023952,,,,,,,,,,,,,,,,,,,,,,,,,,,,,,,,,,,,,,,,,,,,,,,,,,,他们,e,,,,i,0,0.486,0,8,8,56,1,,
,,,,,,,,,,,,,,冶成福,001,2025-01-17_14h51.36.061,IAT(Formal),2021.2.3,Win32,59.88023952,,,,,,,,,,,,,,,,,,,,,,,,,,,,,,,,,,,,,,,,,,,,,,,,,,,其他,e,,,,e,1,0.6003,0,9,9,79,1,,
,,,,,,,,,,,,,,冶成福,001,2025-01-17_14h51.36.061,IAT(Formal),2021.2.3,Win32,59.88023952,,,,,,,,,,,,,,,,,,,,,,,,,,,,,,,,,,,,,,,,,,,,,,,,,,,自己,i,,,,i,1,0.5695,0,10,10,73,1,,
,,,,,,,,,,,,,,冶成福,001,2025-01-17_14h51.36.061,IAT(Formal),2021.2.3,Win32,59.88023952,,,,,,,,,,,,,,,,,,,,,,,,,,,,,,,,,,,,,,,,,,,,,,,,,,,自私,i,,,,i,1,0.7277,0,11,11,43,1,,
,,,,,,,,,,,,,,冶成福,001,2025-01-17_14h51.36.061,IAT(Formal),2021.2.3,Win32,59.88023952,,,,,,,,,,,,,,,,,,,,,,,,,,,,,,,,,,,,,,,,,,,,,,,,,,,正直,e,,,,e,1,0.5957,0,12,12,16,1,,
,,,,,,,,,,,,,,冶成福,001,2025-01-17_14h51.36.061,IAT(Formal),2021.2.3,Win32,59.88023952,,,,,,,,,,,,,,,,,,,,,,,,,,,,,,,,,,,,,,,,,,,,,,,,,,,他们,e,,,,i,0,1.187,0,13,13,76,1,,
,,,,,,,,,,,,,,冶成福,001,2025-01-17_14h51.36.061,IAT(Formal),2021.2.3,Win32,59.88023952,,,,,,,,,,,,,,,,,,,,,,,,,,,,,,,,,,,,,,,,,,,,,,,,,,,鲁莽,i,,,,i,1,0.717,0,14,14,38,1,,
,,,,,,,,,,,,,,冶成福,001,2025-01-17_14h51.36.061,IAT(Formal),2021.2.3,Win32,59.88023952,,,,,,,,,,,,,,,,,,,,,,,,,,,,,,,,,,,,,,,,,,,,,,,,,,,散漫,i,,,,i,1,0.6706,0,15,15,41,1,,
,,,,,,,,,,,,,,冶成福,001,2025-01-17_14h51.36.061,IAT(Formal),2021.2.3,Win32,59.88023952,,,,,,,,,,,,,,,,,,,,,,,,,,,,,,,,,,,,,,,,,,,,,,,,,,,猖狂,i,,,,i,1,0.5828,0,16,16,45,1,,
,,,,,,,,,,,,,,冶成福,001,2025-01-17_14h51.36.061,IAT(Formal),2021.2.3,Win32,59.88023952,,,,,,,,,,,,,,,,,,,,,,,,,,,,,,,,,,,,,,,,,,,,,,,,,,,他,e,,,,e,1,0.6786,0,17,17,65,1,,
,,,,,,,,,,,,,,冶成福,001,2025-01-17_14h51.36.061,IAT(Formal),2021.2.3,Win32,59.88023952,,,,,,,,,,,,,,,,,,,,,,,,,,,,,,,,,,,,,,,,,,,,,,,,,,,他人,e,,,,e,1,0.5741,0,18,18,58,1,,
,,,,,,,,,,,,,,冶成福,001,2025-01-17_14h51.36.061,IAT(Formal),2021.2.3,Win32,59.88023952,,,,,,,,,,,,,,,,,,,,,,,,,,,,,,,,,,,,,,,,,,,,,,,,,,,野蛮,i,,,,i,1,0.748,0,19,19,46,1,,
,,,,,,,,,,,,,,冶成福,001,2025-01-17_14h51.36.061,IAT(Formal),2021.2.3,Win32,59.88023952,,,,,,,,,,,,,,,,,,,,,,,,,,,,,,,,,,,,,,,,,,,,,,,,,,,俺,i,,,,i,1,0.9984,0,20,20,4,1,,
,,,,,,,,,,,,,,冶成福,001,2025-01-17_14h51.36.061,IAT(Formal),2021.2.3,Win32,59.88023952,,,,,,,,,,,,,,,,,,,,,,,,,,,,,,,,,,,,,,,,,,,,,,,,,,,他,e,,,,e,1,0.7408,0,21,21,75,1,,
,,,,,,,,,,,,,,冶成福,001,2025-01-17_14h51.36.061,IAT(Formal),2021.2.3,Win32,59.88023952,,,,,,,,,,,,,,,,,,,,,,,,,,,,,,,,,,,,,,,,,,,,,,,,,,,自己,i,,,,i,1,0.6488,0,22,22,53,1,,
,,,,,,,,,,,,,,冶成福,001,2025-01-17_14h51.36.061,IAT(Formal),2021.2.3,Win32,59.88023952,,,,,,,,,,,,,,,,,,,,,,,,,,,,,,,,,,,,,,,,,,,,,,,,,,,傲慢,i,,,,i,1,0.8066,0,23,23,37,1,,
,,,,,,,,,,,,,,冶成福,001,2025-01-17_14h51.36.061,IAT(Formal),2021.2.3,Win32,59.88023952,,,,,,,,,,,,,,,,,,,,,,,,,,,,,,,,,,,,,,,,,,,,,,,,,,,凶狠,i,,,,i,1,0.9001,0,24,24,42,1,,
,,,,,,,,,,,,,,冶成福,001,2025-01-17_14h51.36.061,IAT(Formal),2021.2.3,Win32,59.88023952,,,,,,,,,,,,,,,,,,,,,,,,,,,,,,,,,,,,,,,,,,,,,,,,,,,固执,i,,,,i,1,0.683,0,25,25,47,1,,
,,,,,,,,,,,,,,冶成福,001,2025-01-17_14h51.36.061,IAT(Formal),2021.2.3,Win32,59.88023952,,,,,,,,,,,,,,,,,,,,,,,,,,,,,,,,,,,,,,,,,,,,,,,,,,,优秀,e,,,,e,1,0.6861,0,26,26,10,1,,
,,,,,,,,,,,,,,冶成福,001,2025-01-17_14h51.36.061,IAT(Formal),2021.2.3,Win32,59.88023952,,,,,,,,,,,,,,,,,,,,,,,,,,,,,,,,,,,,,,,,,,,,,,,,,,,崇高,e,,,,e,1,0.8019,0,27,27,11,1,,
,,,,,,,,,,,,,,冶成福,001,2025-01-17_14h51.36.061,IAT(Formal),2021.2.3,Win32,59.88023952,,,,,,,,,,,,,,,,,,,,,,,,,,,,,,,,,,,,,,,,,,,,,,,,,,,勤奋,e,,,,e,1,1.2933,0,28,28,18,1,,
,,,,,,,,,,,,,,冶成福,001,2025-01-17_14h51.36.061,IAT(Formal),2021.2.3,Win32,59.88023952,,,,,,,,,,,,,,,,,,,,,,,,,,,,,,,,,,,,,,,,,,,,,,,,,,,消极,i,,,,i,1,0.5805,0,29,29,35,1,,
,,,,,,,,,,,,,,冶成福,001,2025-01-17_14h51.36.061,IAT(Formal),2021.2.3,Win32,59.88023952,,,,,,,,,,,,,,,,,,,,,,,,,,,,,,,,,,,,,,,,,,,,,,,,,,,其他,e,,,,e,1,1.0181,0,30,30,59,1,,
,,,,,,,,,,,,,,冶成福,001,2025-01-17_14h51.36.061,IAT(Formal),2021.2.3,Win32,59.88023952,,,,,,,,,,,,,,,,,,,,,,,,,,,,,,,,,,,,,,,,,,,,,,,,,,,公正,e,,,,i,0,0.7449,0,31,31,23,1,,
,,,,,,,,,,,,,,冶成福,001,2025-01-17_14h51.36.061,IAT(Formal),2021.2.3,Win32,59.88023952,,,,,,,,,,,,,,,,,,,,,,,,,,,,,,,,,,,,,,,,,,,,,,,,,,,执拗,i,,,,i,1,0.6915,0,32,32,40,1,,
,,,,,,,,,,,,,,冶成福,001,2025-01-17_14h51.36.061,IAT(Formal),2021.2.3,Win32,59.88023952,,,,,,,,,,,,,,,,,,,,,,,,,,,,,,,,,,,,,,,,,,,,,,,,,,,自己,i,,,,i,1,0.7127,0,33,33,3,1,,
,,,,,,,,,,,,,,冶成福,001,2025-01-17_14h51.36.061,IAT(Formal),2021.2.3,Win32,59.88023952,,,,,,,,,,,,,,,,,,,,,,,,,,,,,,,,,,,,,,,,,,,,,,,,,,,机智,e,,,,e,1,1.3805,0,34,34,19,1,,
,,,,,,,,,,,,,,冶成福,001,2025-01-17_14h51.36.061,IAT(Formal),2021.2.3,Win32,59.88023952,,,,,,,,,,,,,,,,,,,,,,,,,,,,,,,,,,,,,,,,,,,,,,,,,,,我们,i,,,,e,0,1.0818,0,35,35,72,1,,
,,,,,,,,,,,,,,冶成福,001,2025-01-17_14h51.36.061,IAT(Formal),2021.2.3,Win32,59.88023952,,,,,,,,,,,,,,,,,,,,,,,,,,,,,,,,,,,,,,,,,,,,,,,,,,,悲观,i,,,,e,0,0.9585,0,36,36,34,1,,
,,,,,,,,,,,,,,冶成福,001,2025-01-17_14h51.36.061,IAT(Formal),2021.2.3,Win32,59.88023952,,,,,,,,,,,,,,,,,,,,,,,,,,,,,,,,,,,,,,,,,,,,,,,,,,,他人,e,,,,i,0,0.5471,0,37,37,8,1,,
,,,,,,,,,,,,,,冶成福,001,2025-01-17_14h51.36.061,IAT(Formal),2021.2.3,Win32,59.88023952,,,,,,,,,,,,,,,,,,,,,,,,,,,,,,,,,,,,,,,,,,,,,,,,,,,他的,e,,,,i,0,1.0645,0,38,38,7,1,,
,,,,,,,,,,,,,,冶成福,001,2025-01-17_14h51.36.061,IAT(Formal),2021.2.3,Win32,59.88023952,,,,,,,,,,,,,,,,,,,,,,,,,,,,,,,,,,,,,,,,,,,,,,,,,,,俺,i,,,,i,1,0.7208,0,39,39,54,1,,
,,,,,,,,,,,,,,冶成福,001,2025-01-17_14h51.36.061,IAT(Formal),2021.2.3,Win32,59.88023952,,,,,,,,,,,,,,,,,,,,,,,,,,,,,,,,,,,,,,,,,,,,,,,,,,,我,i,,,,i,1,0.6668,0,40,40,60,1,,
,,,,,,,,,,,,,,冶成福,001,2025-01-17_14h51.36.061,IAT(Formal),2021.2.3,Win32,59.88023952,,,,,,,,,,,,,,,,,,,,,,,,,,,,,,,,,,,,,,,,,,,,,,,,,,,他,e,,,,e,1,0.5858,0,41,41,55,1,,
,,,,,,,,,,,,,,冶成福,001,2025-01-17_14h51.36.061,IAT(Formal),2021.2.3,Win32,59.88023952,,,,,,,,,,,,,,,,,,,,,,,,,,,,,,,,,,,,,,,,,,,,,,,,,,,聪明,e,,,,e,1,0.9714,0,42,42,12,1,,
,,,,,,,,,,,,,,冶成福,001,2025-01-17_14h51.36.061,IAT(Formal),2021.2.3,Win32,59.88023952,,,,,,,,,,,,,,,,,,,,,,,,,,,,,,,,,,,,,,,,,,,,,,,,,,,我,i,,,,i,1,0.5675,0,43,43,70,1,,
,,,,,,,,,,,,,,冶成福,001,2025-01-17_14h51.36.061,IAT(Formal),2021.2.3,Win32,59.88023952,,,,,,,,,,,,,,,,,,,,,,,,,,,,,,,,,,,,,,,,,,,,,,,,,,,诚恳,e,,,,e,1,0.5784,0,44,44,29,1,,
,,,,,,,,,,,,,,冶成福,001,2025-01-17_14h51.36.061,IAT(Formal),2021.2.3,Win32,59.88023952,,,,,,,,,,,,,,,,,,,,,,,,,,,,,,,,,,,,,,,,,,,,,,,,,,,他们,e,,,,e,1,0.7128,0,45,45,6,1,,
,,,,,,,,,,,,,,冶成福,001,2025-01-17_14h51.36.061,IAT(Formal),2021.2.3,Win32,59.88023952,,,,,,,,,,,,,,,,,,,,,,,,,,,,,,,,,,,,,,,,,,,,,,,,,,,他,e,,,,e,1,0.4618,0,46,46,5,1,,
,,,,,,,,,,,,,,冶成福,001,2025-01-17_14h51.36.061,IAT(Formal),2021.2.3,Win32,59.88023952,,,,,,,,,,,,,,,,,,,,,,,,,,,,,,,,,,,,,,,,,,,,,,,,,,,朴实,e,,,,e,1,0.8467,0,47,47,24,1,,
,,,,,,,,,,,,,,冶成福,001,2025-01-17_14h51.36.061,IAT(Formal),2021.2.3,Win32,59.88023952,,,,,,,,,,,,,,,,,,,,,,,,,,,,,,,,,,,,,,,,,,,,,,,,,,,活泼,e,,,,e,1,0.6036,0,48,48,28,1,,
,,,,,,,,,,,,,,冶成福,001,2025-01-17_14h51.36.061,IAT(Formal),2021.2.3,Win32,59.88023952,,,,,,,,,,,,,,,,,,,,,,,,,,,,,,,,,,,,,,,,,,,,,,,,,,,细腻,e,,,,e,1,0.5857,0,49,49,25,1,,
,,,,,,,,,,,,,,冶成福,001,2025-01-17_14h51.36.061,IAT(Formal),2021.2.3,Win32,59.88023952,,,,,,,,,,,,,,,,,,,,,,,,,,,,,,,,,,,,,,,,,,,,,,,,,,,他人,e,,,,e,1,0.6639,0,50,50,68,1,,
,,,,,,,,,,,,,,冶成福,001,2025-01-17_14h51.36.061,IAT(Formal),2021.2.3,Win32,59.88023952,,,,,,,,,,,,,,,,,,,,,,,,,,,,,,,,,,,,,,,,,,,,,,,,,,,我的,i,,,,i,1,0.6565,0,51,51,1,1,,
,,,,,,,,,,,,,,冶成福,001,2025-01-17_14h51.36.061,IAT(Formal),2021.2.3,Win32,59.88023952,,,,,,,,,,,,,,,,,,,,,,,,,,,,,,,,,,,,,,,,,,,,,,,,,,,稳重,e,,,,e,1,0.7725,0,52,52,21,1,,
,,,,,,,,,,,,,,冶成福,001,2025-01-17_14h51.36.061,IAT(Formal),2021.2.3,Win32,59.88023952,,,,,,,,,,,,,,,,,,,,,,,,,,,,,,,,,,,,,,,,,,,,,,,,,,,认真,e,,,,e,1,0.6137,0,53,53,20,1,,
,,,,,,,,,,,,,,冶成福,001,2025-01-17_14h51.36.061,IAT(Formal),2021.2.3,Win32,59.88023952,,,,,,,,,,,,,,,,,,,,,,,,,,,,,,,,,,,,,,,,,,,,,,,,,,,无私,e,,,,e,1,0.6362,0,54,54,22,1,,
,,,,,,,,,,,,,,冶成福,001,2025-01-17_14h51.36.061,IAT(Formal),2021.2.3,Win32,59.88023952,,,,,,,,,,,,,,,,,,,,,,,,,,,,,,,,,,,,,,,,,,,,,,,,,,,杰出,e,,,,e,1,0.5651,0,55,55,13,1,,
,,,,,,,,,,,,,,冶成福,001,2025-01-17_14h51.36.061,IAT(Formal),2021.2.3,Win32,59.88023952,,,,,,,,,,,,,,,,,,,,,,,,,,,,,,,,,,,,,,,,,,,,,,,,,,,他人,e,,,,e,1,0.7653,0,56,56,78,1,,
,,,,,,,,,,,,,,冶成福,001,2025-01-17_14h51.36.061,IAT(Formal),2021.2.3,Win32,59.88023952,,,,,,,,,,,,,,,,,,,,,,,,,,,,,,,,,,,,,,,,,,,,,,,,,,,冒失,i,,,,i,1,0.794,0,57,57,39,1,,
,,,,,,,,,,,,,,冶成福,001,2025-01-17_14h51.36.061,IAT(Formal),2021.2.3,Win32,59.88023952,,,,,,,,,,,,,,,,,,,,,,,,,,,,,,,,,,,,,,,,,,,,,,,,,,,下贱,i,,,,i,1,0.5606,0,58,58,49,1,,
,,,,,,,,,,,,,,冶成福,001,2025-01-17_14h51.36.061,IAT(Formal),2021.2.3,Win32,59.88023952,,,,,,,,,,,,,,,,,,,,,,,,,,,,,,,,,,,,,,,,,,,,,,,,,,,暴躁,i,,,,i,1,0.9143,0,59,59,44,1,,
,,,,,,,,,,,,,,冶成福,001,2025-01-17_14h51.36.061,IAT(Formal),2021.2.3,Win32,59.88023952,,,,,,,,,,,,,,,,,,,,,,,,,,,,,,,,,,,,,,,,,,,,,,,,,,,勇敢,e,,,,e,1,0.6741,0,60,60,17,1,,
,,,,,,,,,,,,,,冶成福,001,2025-01-17_14h51.36.061,IAT(Formal),2021.2.3,Win32,59.88023952,,,,,,,,,,,,,,,,,,,,,,,,,,,,,,,,,,,,,,,,,,,,,,,,,,,愚蠢,i,,,,i,1,0.7901,0,61,61,32,1,,
,,,,,,,,,,,,,,冶成福,001,2025-01-17_14h51.36.061,IAT(Formal),2021.2.3,Win32,59.88023952,,,,,,,,,,,,,,,,,,,,,,,,,,,,,,,,,,,,,,,,,,,,,,,,,,,卑鄙,i,,,,i,1,0.72,0,62,62,30,1,,
,,,,,,,,,,,,,,冶成福,001,2025-01-17_14h51.36.061,IAT(Formal),2021.2.3,Win32,59.88023952,,,,,,,,,,,,,,,,,,,,,,,,,,,,,,,,,,,,,,,,,,,,,,,,,,,我们,i,,,,i,1,0.9975,0,63,63,2,1,,
,,,,,,,,,,,,,,冶成福,001,2025-01-17_14h51.36.061,IAT(Formal),2021.2.3,Win32,59.88023952,,,,,,,,,,,,,,,,,,,,,,,,,,,,,,,,,,,,,,,,,,,,,,,,,,,自己,i,,,,i,1,0.597,0,64,64,63,1,,
,,,,,,,,,,,,,,冶成福,001,2025-01-17_14h51.36.061,IAT(Formal),2021.2.3,Win32,59.88023952,,,,,,,,,,,,,,,,,,,,,,,,,,,,,,,,,,,,,,,,,,,,,,,,,,,我的,i,,,,i,1,1.1309,0,65,65,71,1,,
,,,,,,,,,,,,,,冶成福,001,2025-01-17_14h51.36.061,IAT(Formal),2021.2.3,Win32,59.88023952,,,,,,,,,,,,,,,,,,,,,,,,,,,,,,,,,,,,,,,,,,,,,,,,,,,我们,i,,,,i,1,0.6989,0,66,66,52,1,,
,,,,,,,,,,,,,,冶成福,001,2025-01-17_14h51.36.061,IAT(Formal),2021.2.3,Win32,59.88023952,,,,,,,,,,,,,,,,,,,,,,,,,,,,,,,,,,,,,,,,,,,,,,,,,,,诚实,e,,,,e,1,1.368,0,67,67,15,1,,
,,,,,,,,,,,,,,冶成福,001,2025-01-17_14h51.36.061,IAT(Formal),2021.2.3,Win32,59.88023952,,,,,,,,,,,,,,,,,,,,,,,,,,,,,,,,,,,,,,,,,,,,,,,,,,,乐观,e,,,,e,1,0.7141,0,68,68,14,1,,
,,,,,,,,,,,,,,冶成福,001,2025-01-17_14h51.36.061,IAT(Formal),2021.2.3,Win32,59.88023952,,,,,,,,,,,,,,,,,,,,,,,,,,,,,,,,,,,,,,,,,,,,,,,,,,,他们,e,,,,i,0,0.5667,0,69,69,66,1,,
,,,,,,,,,,,,,,冶成福,001,2025-01-17_14h51.36.061,IAT(Formal),2021.2.3,Win32,59.88023952,,,,,,,,,,,,,,,,,,,,,,,,,,,,,,,,,,,,,,,,,,,,,,,,,,,我的,i,,,,i,1,0.6137,0,70,70,51,1,,
,,,,,,,,,,,,,,冶成福,001,2025-01-17_14h51.36.061,IAT(Formal),2021.2.3,Win32,59.88023952,,,,,,,,,,,,,,,,,,,,,,,,,,,,,,,,,,,,,,,,,,,,,,,,,,,冷静,e,,,,e,1,0.7828,0,71,71,26,1,,
,,,,,,,,,,,,,,冶成福,001,2025-01-17_14h51.36.061,IAT(Formal),2021.2.3,Win32,59.88023952,,,,,,,,,,,,,,,,,,,,,,,,,,,,,,,,,,,,,,,,,,,,,,,,,,,其他,e,,,,e,1,0.8189,0,72,72,9,1,,
,,,,,,,,,,,,,,冶成福,001,2025-01-17_14h51.36.061,IAT(Formal),2021.2.3,Win32,59.88023952,,,,,,,,,,,,,,,,,,,,,,,,,,,,,,,,,,,,,,,,,,,,,,,,,,,他的,e,,,,e,1,0.7473,0,73,73,67,1,,
,,,,,,,,,,,,,,冶成福,001,2025-01-17_14h51.36.061,IAT(Formal),2021.2.3,Win32,59.88023952,,,,,,,,,,,,,,,,,,,,,,,,,,,,,,,,,,,,,,,,,,,,,,,,,,,我的,i,,,,i,1,1.157,0,74,74,61,1,,
,,,,,,,,,,,,,,冶成福,001,2025-01-17_14h51.36.061,IAT(Formal),2021.2.3,Win32,59.88023952,,,,,,,,,,,,,,,,,,,,,,,,,,,,,,,,,,,,,,,,,,,,,,,,,,,我们,i,,,,i,1,0.4825,0,75,75,62,1,,
,,,,,,,,,,,,,,冶成福,001,2025-01-17_14h51.36.061,IAT(Formal),2021.2.3,Win32,59.88023952,,,,,,,,,,,,,,,,,,,,,,,,,,,,,,,,,,,,,,,,,,,,,,,,,,,刻薄,i,,,,i,1,1.2174,0,76,76,33,1,,
,,,,,,,,,,,,,,冶成福,001,2025-01-17_14h51.36.061,IAT(Formal),2021.2.3,Win32,59.88023952,,,,,,,,,,,,,,,,,,,,,,,,,,,,,,,,,,,,,,,,,,,,,,,,,,,他的,e,,,,e,1,0.7645,0,77,77,77,1,,
,,,,,,,,,,,,,,冶成福,001,2025-01-17_14h51.36.061,IAT(Formal),2021.2.3,Win32,59.88023952,,,,,,,,,,,,,,,,,,,,,,,,,,,,,,,,,,,,,,,,,,,,,,,,,,,我,i,,,,i,1,1.0476,0,78,78,0,1,,
,,,,,,,,,,,,,,冶成福,001,2025-01-17_14h51.36.061,IAT(Formal),2021.2.3,Win32,59.88023952,,,,,,,,,,,,,,,,,,,,,,,,,,,,,,,,,,,,,,,,,,,,,,,,,,,自卑,i,,,,i,1,0.8136,0,79,79,36,1,,
,,,,,,,,,,,,,,冶成福,001,2025-01-17_14h51.36.061,IAT(Formal),2021.2.3,Win32,59.88023952,,,,,,,,,,,,,,,,,,,,,,,,,,,,,,,,,,,,,,,,,,,,,,,,,,,轻率,i,,,,i,1,1.0942,1,0,80,48,1,,
,,,,,,,,,,,,,,冶成福,001,2025-01-17_14h51.36.061,IAT(Formal),2021.2.3,Win32,59.88023952,,,,,,,,,,,,,,,,,,,,,,,,,,,,,,,,,,,,,,,,,,,,,,,,,,,我们,i,,,,i,1,1.0474,1,1,81,72,1,,
,,,,,,,,,,,,,,冶成福,001,2025-01-17_14h51.36.061,IAT(Formal),2021.2.3,Win32,59.88023952,,,,,,,,,,,,,,,,,,,,,,,,,,,,,,,,,,,,,,,,,,,,,,,,,,,他人,e,,,,e,1,0.8112,1,2,82,58,1,,
,,,,,,,,,,,,,,冶成福,001,2025-01-17_14h51.36.061,IAT(Formal),2021.2.3,Win32,59.88023952,,,,,,,,,,,,,,,,,,,,,,,,,,,,,,,,,,,,,,,,,,,,,,,,,,,俺,i,,,,i,1,0.6121,1,3,83,54,1,,
,,,,,,,,,,,,,,冶成福,001,2025-01-17_14h51.36.061,IAT(Formal),2021.2.3,Win32,59.88023952,,,,,,,,,,,,,,,,,,,,,,,,,,,,,,,,,,,,,,,,,,,,,,,,,,,崇高,e,,,,e,1,0.7618,1,4,84,11,1,,
,,,,,,,,,,,,,,冶成福,001,2025-01-17_14h51.36.061,IAT(Formal),2021.2.3,Win32,59.88023952,,,,,,,,,,,,,,,,,,,,,,,,,,,,,,,,,,,,,,,,,,,,,,,,,,,我们,i,,,,i,1,0.9499,1,5,85,2,1,,
,,,,,,,,,,,,,,冶成福,001,2025-01-17_14h51.36.061,IAT(Formal),2021.2.3,Win32,59.88023952,,,,,,,,,,,,,,,,,,,,,,,,,,,,,,,,,,,,,,,,,,,,,,,,,,,暴躁,i,,,,i,1,0.747,1,6,86,44,1,,
,,,,,,,,,,,,,,冶成福,001,2025-01-17_14h51.36.061,IAT(Formal),2021.2.3,Win32,59.88023952,,,,,,,,,,,,,,,,,,,,,,,,,,,,,,,,,,,,,,,,,,,,,,,,,,,消极,i,,,,e,0,1.0531,1,7,87,35,1,,
,,,,,,,,,,,,,,冶成福,001,2025-01-17_14h51.36.061,IAT(Formal),2021.2.3,Win32,59.88023952,,,,,,,,,,,,,,,,,,,,,,,,,,,,,,,,,,,,,,,,,,,,,,,,,,,冷静,e,,,,e,1,0.8052,1,8,88,26,1,,
,,,,,,,,,,,,,,冶成福,001,2025-01-17_14h51.36.061,IAT(Formal),2021.2.3,Win32,59.88023952,,,,,,,,,,,,,,,,,,,,,,,,,,,,,,,,,,,,,,,,,,,,,,,,,,,我们,i,,,,i,1,0.7709,1,9,89,52,1,,
,,,,,,,,,,,,,,冶成福,001,2025-01-17_14h51.36.061,IAT(Formal),2021.2.3,Win32,59.88023952,,,,,,,,,,,,,,,,,,,,,,,,,,,,,,,,,,,,,,,,,,,,,,,,,,,正直,e,,,,e,1,0.7227,1,10,90,16,1,,
,,,,,,,,,,,,,,冶成福,001,2025-01-17_14h51.36.061,IAT(Formal),2021.2.3,Win32,59.88023952,,,,,,,,,,,,,,,,,,,,,,,,,,,,,,,,,,,,,,,,,,,,,,,,,,,我的,i,,,,i,1,0.7464,1,11,91,61,1,,
,,,,,,,,,,,,,,冶成福,001,2025-01-17_14h51.36.061,IAT(Formal),2021.2.3,Win32,59.88023952,,,,,,,,,,,,,,,,,,,,,,,,,,,,,,,,,,,,,,,,,,,,,,,,,,,他,e,,,,e,1,0.7049,1,12,92,5,1,,
,,,,,,,,,,,,,,冶成福,001,2025-01-17_14h51.36.061,IAT(Formal),2021.2.3,Win32,59.88023952,,,,,,,,,,,,,,,,,,,,,,,,,,,,,,,,,,,,,,,,,,,,,,,,,,,其他,e,,,,e,1,0.6812,1,13,93,59,1,,
,,,,,,,,,,,,,,冶成福,001,2025-01-17_14h51.36.061,IAT(Formal),2021.2.3,Win32,59.88023952,,,,,,,,,,,,,,,,,,,,,,,,,,,,,,,,,,,,,,,,,,,,,,,,,,,他人,e,,,,e,1,0.5628,1,14,94,68,1,,
,,,,,,,,,,,,,,冶成福,001,2025-01-17_14h51.36.061,IAT(Formal),2021.2.3,Win32,59.88023952,,,,,,,,,,,,,,,,,,,,,,,,,,,,,,,,,,,,,,,,,,,,,,,,,,,他的,e,,,,e,1,0.5332,1,15,95,57,1,,
,,,,,,,,,,,,,,冶成福,001,2025-01-17_14h51.36.061,IAT(Formal),2021.2.3,Win32,59.88023952,,,,,,,,,,,,,,,,,,,,,,,,,,,,,,,,,,,,,,,,,,,,,,,,,,,他,e,,,,e,1,0.5295,1,16,96,55,1,,
,,,,,,,,,,,,,,冶成福,001,2025-01-17_14h51.36.061,IAT(Formal),2021.2.3,Win32,59.88023952,,,,,,,,,,,,,,,,,,,,,,,,,,,,,,,,,,,,,,,,,,,,,,,,,,,其他,e,,,,e,1,0.5804,1,17,97,79,1,,
,,,,,,,,,,,,,,冶成福,001,2025-01-17_14h51.36.061,IAT(Formal),2021.2.3,Win32,59.88023952,,,,,,,,,,,,,,,,,,,,,,,,,,,,,,,,,,,,,,,,,,,,,,,,,,,我们,i,,,,i,1,0.8302,1,18,98,62,1,,
,,,,,,,,,,,,,,冶成福,001,2025-01-17_14h51.36.061,IAT(Formal),2021.2.3,Win32,59.88023952,,,,,,,,,,,,,,,,,,,,,,,,,,,,,,,,,,,,,,,,,,,,,,,,,,,野蛮,i,,,,i,1,1.1542,1,19,99,46,1,,
,,,,,,,,,,,,,,冶成福,001,2025-01-17_14h51.36.061,IAT(Formal),2021.2.3,Win32,59.88023952,,,,,,,,,,,,,,,,,,,,,,,,,,,,,,,,,,,,,,,,,,,,,,,,,,,虚伪,i,,,,i,1,0.6792,1,20,100,31,1,,
,,,,,,,,,,,,,,冶成福,001,2025-01-17_14h51.36.061,IAT(Formal),2021.2.3,Win32,59.88023952,,,,,,,,,,,,,,,,,,,,,,,,,,,,,,,,,,,,,,,,,,,,,,,,,,,自私,i,,,,i,1,0.831,1,21,101,43,1,,
,,,,,,,,,,,,,,冶成福,001,2025-01-17_14h51.36.061,IAT(Formal),2021.2.3,Win32,59.88023952,,,,,,,,,,,,,,,,,,,,,,,,,,,,,,,,,,,,,,,,,,,,,,,,,,,勤奋,e,,,,e,1,0.8702,1,22,102,18,1,,
,,,,,,,,,,,,,,冶成福,001,2025-01-17_14h51.36.061,IAT(Formal),2021.2.3,Win32,59.88023952,,,,,,,,,,,,,,,,,,,,,,,,,,,,,,,,,,,,,,,,,,,,,,,,,,,我,i,,,,e,0,1.099,1,23,103,70,1,,
,,,,,,,,,,,,,,冶成福,001,2025-01-17_14h51.36.061,IAT(Formal),2021.2.3,Win32,59.88023952,,,,,,,,,,,,,,,,,,,,,,,,,,,,,,,,,,,,,,,,,,,,,,,,,,,他的,e,,,,i,0,0.2813,1,24,104,67,1,,
,,,,,,,,,,,,,,冶成福,001,2025-01-17_14h51.36.061,IAT(Formal),2021.2.3,Win32,59.88023952,,,,,,,,,,,,,,,,,,,,,,,,,,,,,,,,,,,,,,,,,,,,,,,,,,,其他,e,,,,e,1,0.5618,1,25,105,69,1,,
,,,,,,,,,,,,,,冶成福,001,2025-01-17_14h51.36.061,IAT(Formal),2021.2.3,Win32,59.88023952,,,,,,,,,,,,,,,,,,,,,,,,,,,,,,,,,,,,,,,,,,,,,,,,,,,他们,e,,,,e,1,0.5614,1,26,106,6,1,,
,,,,,,,,,,,,,,冶成福,001,2025-01-17_14h51.36.061,IAT(Formal),2021.2.3,Win32,59.88023952,,,,,,,,,,,,,,,,,,,,,,,,,,,,,,,,,,,,,,,,,,,,,,,,,,,无私,e,,,,e,1,1.4134,1,27,107,22,1,,
,,,,,,,,,,,,,,冶成福,001,2025-01-17_14h51.36.061,IAT(Formal),2021.2.3,Win32,59.88023952,,,,,,,,,,,,,,,,,,,,,,,,,,,,,,,,,,,,,,,,,,,,,,,,,,,下贱,i,,,,i,1,0.6966,1,28,108,49,1,,
,,,,,,,,,,,,,,冶成福,001,2025-01-17_14h51.36.061,IAT(Formal),2021.2.3,Win32,59.88023952,,,,,,,,,,,,,,,,,,,,,,,,,,,,,,,,,,,,,,,,,,,,,,,,,,,俺,i,,,,i,1,1.4553,1,29,109,74,1,,
,,,,,,,,,,,,,,冶成福,001,2025-01-17_14h51.36.061,IAT(Formal),2021.2.3,Win32,59.88023952,,,,,,,,,,,,,,,,,,,,,,,,,,,,,,,,,,,,,,,,,,,,,,,,,,,我的,i,,,,i,1,0.5005,1,30,110,71,1,,
,,,,,,,,,,,,,,冶成福,001,2025-01-17_14h51.36.061,IAT(Formal),2021.2.3,Win32,59.88023952,,,,,,,,,,,,,,,,,,,,,,,,,,,,,,,,,,,,,,,,,,,,,,,,,,,其他,e,,,,e,1,0.723,1,31,111,9,1,,
,,,,,,,,,,,,,,冶成福,001,2025-01-17_14h51.36.061,IAT(Formal),2021.2.3,Win32,59.88023952,,,,,,,,,,,,,,,,,,,,,,,,,,,,,,,,,,,,,,,,,,,,,,,,,,,热情,e,,,,e,1,0.7954,1,32,112,27,1,,
,,,,,,,,,,,,,,冶成福,001,2025-01-17_14h51.36.061,IAT(Formal),2021.2.3,Win32,59.88023952,,,,,,,,,,,,,,,,,,,,,,,,,,,,,,,,,,,,,,,,,,,,,,,,,,,俺,i,,,,i,1,0.8705,1,33,113,64,1,,
,,,,,,,,,,,,,,冶成福,001,2025-01-17_14h51.36.061,IAT(Formal),2021.2.3,Win32,59.88023952,,,,,,,,,,,,,,,,,,,,,,,,,,,,,,,,,,,,,,,,,,,,,,,,,,,悲观,i,,,,i,1,0.8001,1,34,114,34,1,,
,,,,,,,,,,,,,,冶成福,001,2025-01-17_14h51.36.061,IAT(Formal),2021.2.3,Win32,59.88023952,,,,,,,,,,,,,,,,,,,,,,,,,,,,,,,,,,,,,,,,,,,,,,,,,,,自己,i,,,,i,1,0.6874,1,35,115,3,1,,
,,,,,,,,,,,,,,冶成福,001,2025-01-17_14h51.36.061,IAT(Formal),2021.2.3,Win32,59.88023952,,,,,,,,,,,,,,,,,,,,,,,,,,,,,,,,,,,,,,,,,,,,,,,,,,,活泼,e,,,,e,1,0.9978,1,36,116,28,1,,
,,,,,,,,,,,,,,冶成福,001,2025-01-17_14h51.36.061,IAT(Formal),2021.2.3,Win32,59.88023952,,,,,,,,,,,,,,,,,,,,,,,,,,,,,,,,,,,,,,,,,,,,,,,,,,,他人,e,,,,e,1,0.9721,1,37,117,78,1,,
,,,,,,,,,,,,,,冶成福,001,2025-01-17_14h51.36.061,IAT(Formal),2021.2.3,Win32,59.88023952,,,,,,,,,,,,,,,,,,,,,,,,,,,,,,,,,,,,,,,,,,,,,,,,,,,自卑,i,,,,i,1,0.5807,1,38,118,36,1,,
,,,,,,,,,,,,,,冶成福,001,2025-01-17_14h51.36.061,IAT(Formal),2021.2.3,Win32,59.88023952,,,,,,,,,,,,,,,,,,,,,,,,,,,,,,,,,,,,,,,,,,,,,,,,,,,刻薄,i,,,,i,1,1.1129,1,39,119,33,1,,
,,,,,,,,,,,,,,冶成福,001,2025-01-17_14h51.36.061,IAT(Formal),2021.2.3,Win32,59.88023952,,,,,,,,,,,,,,,,,,,,,,,,,,,,,,,,,,,,,,,,,,,,,,,,,,,公正,e,,,,e,1,0.6728,1,40,120,23,1,,
,,,,,,,,,,,,,,冶成福,001,2025-01-17_14h51.36.061,IAT(Formal),2021.2.3,Win32,59.88023952,,,,,,,,,,,,,,,,,,,,,,,,,,,,,,,,,,,,,,,,,,,,,,,,,,,认真,e,,,,e,1,1.0652,1,41,121,20,1,,
,,,,,,,,,,,,,,冶成福,001,2025-01-17_14h51.36.061,IAT(Formal),2021.2.3,Win32,59.88023952,,,,,,,,,,,,,,,,,,,,,,,,,,,,,,,,,,,,,,,,,,,,,,,,,,,杰出,e,,,,e,1,0.6004,1,42,122,13,1,,
,,,,,,,,,,,,,,冶成福,001,2025-01-17_14h51.36.061,IAT(Formal),2021.2.3,Win32,59.88023952,,,,,,,,,,,,,,,,,,,,,,,,,,,,,,,,,,,,,,,,,,,,,,,,,,,自己,i,,,,i,1,0.6339,1,43,123,73,1,,
,,,,,,,,,,,,,,冶成福,001,2025-01-17_14h51.36.061,IAT(Formal),2021.2.3,Win32,59.88023952,,,,,,,,,,,,,,,,,,,,,,,,,,,,,,,,,,,,,,,,,,,,,,,,,,,我,i,,,,i,1,0.8124,1,44,124,0,1,,
,,,,,,,,,,,,,,冶成福,001,2025-01-17_14h51.36.061,IAT(Formal),2021.2.3,Win32,59.88023952,,,,,,,,,,,,,,,,,,,,,,,,,,,,,,,,,,,,,,,,,,,,,,,,,,,他的,e,,,,e,1,0.6963,1,45,125,7,1,,
,,,,,,,,,,,,,,冶成福,001,2025-01-17_14h51.36.061,IAT(Formal),2021.2.3,Win32,59.88023952,,,,,,,,,,,,,,,,,,,,,,,,,,,,,,,,,,,,,,,,,,,,,,,,,,,聪明,e,,,,,0,,1,46,126,12,1,,
,,,,,,,,,,,,,,冶成福,001,2025-01-17_14h51.36.061,IAT(Formal),2021.2.3,Win32,59.88023952,,,,,,,,,,,,,,,,,,,,,,,,,,,,,,,,,,,,,,,,,,,,,,,,,,,我的,i,,,,i,1,0.5337,1,47,127,51,1,,
,,,,,,,,,,,,,,冶成福,001,2025-01-17_14h51.36.061,IAT(Formal),2021.2.3,Win32,59.88023952,,,,,,,,,,,,,,,,,,,,,,,,,,,,,,,,,,,,,,,,,,,,,,,,,,,他们,e,,,,e,1,0.8791,1,48,128,66,1,,
,,,,,,,,,,,,,,冶成福,001,2025-01-17_14h51.36.061,IAT(Formal),2021.2.3,Win32,59.88023952,,,,,,,,,,,,,,,,,,,,,,,,,,,,,,,,,,,,,,,,,,,,,,,,,,,他,e,,,,e,1,0.7057,1,49,129,75,1,,
,,,,,,,,,,,,,,冶成福,001,2025-01-17_14h51.36.061,IAT(Formal),2021.2.3,Win32,59.88023952,,,,,,,,,,,,,,,,,,,,,,,,,,,,,,,,,,,,,,,,,,,,,,,,,,,机智,e,,,,e,1,0.6783,1,50,130,19,1,,
,,,,,,,,,,,,,,冶成福,001,2025-01-17_14h51.36.061,IAT(Formal),2021.2.3,Win32,59.88023952,,,,,,,,,,,,,,,,,,,,,,,,,,,,,,,,,,,,,,,,,,,,,,,,,,,朴实,e,,,,i,0,0.8961,1,51,131,24,1,,
,,,,,,,,,,,,,,冶成福,001,2025-01-17_14h51.36.061,IAT(Formal),2021.2.3,Win32,59.88023952,,,,,,,,,,,,,,,,,,,,,,,,,,,,,,,,,,,,,,,,,,,,,,,,,,,诚实,e,,,,i,0,0.2794,1,52,132,15,1,,
,,,,,,,,,,,,,,冶成福,001,2025-01-17_14h51.36.061,IAT(Formal),2021.2.3,Win32,59.88023952,,,,,,,,,,,,,,,,,,,,,,,,,,,,,,,,,,,,,,,,,,,,,,,,,,,执拗,i,,,,,0,,1,53,133,40,1,,
,,,,,,,,,,,,,,冶成福,001,2025-01-17_14h51.36.061,IAT(Formal),2021.2.3,Win32,59.88023952,,,,,,,,,,,,,,,,,,,,,,,,,,,,,,,,,,,,,,,,,,,,,,,,,,,勇敢,e,,,,e,1,0.7134,1,54,134,17,1,,
,,,,,,,,,,,,,,冶成福,001,2025-01-17_14h51.36.061,IAT(Formal),2021.2.3,Win32,59.88023952,,,,,,,,,,,,,,,,,,,,,,,,,,,,,,,,,,,,,,,,,,,,,,,,,,,诚恳,e,,,,e,1,0.5451,1,55,135,29,1,,
,,,,,,,,,,,,,,冶成福,001,2025-01-17_14h51.36.061,IAT(Formal),2021.2.3,Win32,59.88023952,,,,,,,,,,,,,,,,,,,,,,,,,,,,,,,,,,,,,,,,,,,,,,,,,,,愚蠢,i,,,,i,1,0.7313,1,56,136,32,1,,
,,,,,,,,,,,,,,冶成福,001,2025-01-17_14h51.36.061,IAT(Formal),2021.2.3,Win32,59.88023952,,,,,,,,,,,,,,,,,,,,,,,,,,,,,,,,,,,,,,,,,,,,,,,,,,,细腻,e,,,,e,1,0.5425,1,57,137,25,1,,
,,,,,,,,,,,,,,冶成福,001,2025-01-17_14h51.36.061,IAT(Formal),2021.2.3,Win32,59.88023952,,,,,,,,,,,,,,,,,,,,,,,,,,,,,,,,,,,,,,,,,,,,,,,,,,,我,i,,,,i,1,0.5875,1,58,138,50,1,,
,,,,,,,,,,,,,,冶成福,001,2025-01-17_14h51.36.061,IAT(Formal),2021.2.3,Win32,59.88023952,,,,,,,,,,,,,,,,,,,,,,,,,,,,,,,,,,,,,,,,,,,,,,,,,,,优秀,e,,,,e,1,0.5437,1,59,139,10,1,,
,,,,,,,,,,,,,,冶成福,001,2025-01-17_14h51.36.061,IAT(Formal),2021.2.3,Win32,59.88023952,,,,,,,,,,,,,,,,,,,,,,,,,,,,,,,,,,,,,,,,,,,,,,,,,,,卑鄙,i,,,,i,1,1.0527,1,60,140,30,1,,
,,,,,,,,,,,,,,冶成福,001,2025-01-17_14h51.36.061,IAT(Formal),2021.2.3,Win32,59.88023952,,,,,,,,,,,,,,,,,,,,,,,,,,,,,,,,,,,,,,,,,,,,,,,,,,,猖狂,i,,,,i,1,0.6724,1,61,141,45,1,,
,,,,,,,,,,,,,,冶成福,001,2025-01-17_14h51.36.061,IAT(Formal),2021.2.3,Win32,59.88023952,,,,,,,,,,,,,,,,,,,,,,,,,,,,,,,,,,,,,,,,,,,,,,,,,,,散漫,i,,,,i,1,0.5474,1,62,142,41,1,,
,,,,,,,,,,,,,,冶成福,001,2025-01-17_14h51.36.061,IAT(Formal),2021.2.3,Win32,59.88023952,,,,,,,,,,,,,,,,,,,,,,,,,,,,,,,,,,,,,,,,,,,,,,,,,,,自己,i,,,,i,1,0.5177,1,63,143,63,1,,
,,,,,,,,,,,,,,冶成福,001,2025-01-17_14h51.36.061,IAT(Formal),2021.2.3,Win32,59.88023952,,,,,,,,,,,,,,,,,,,,,,,,,,,,,,,,,,,,,,,,,,,,,,,,,,,冒失,i,,,,i,1,0.7978,1,64,144,39,1,,
,,,,,,,,,,,,,,冶成福,001,2025-01-17_14h51.36.061,IAT(Formal),2021.2.3,Win32,59.88023952,,,,,,,,,,,,,,,,,,,,,,,,,,,,,,,,,,,,,,,,,,,,,,,,,,,我的,i,,,,i,1,0.645,1,65,145,1,1,,
,,,,,,,,,,,,,,冶成福,001,2025-01-17_14h51.36.061,IAT(Formal),2021.2.3,Win32,59.88023952,,,,,,,,,,,,,,,,,,,,,,,,,,,,,,,,,,,,,,,,,,,,,,,,,,,他们,e,,,,e,1,0.6932,1,66,146,76,1,,
,,,,,,,,,,,,,,冶成福,001,2025-01-17_14h51.36.061,IAT(Formal),2021.2.3,Win32,59.88023952,,,,,,,,,,,,,,,,,,,,,,,,,,,,,,,,,,,,,,,,,,,,,,,,,,,我,i,,,,i,1,0.8707,1,67,147,60,1,,
,,,,,,,,,,,,,,冶成福,001,2025-01-17_14h51.36.061,IAT(Formal),2021.2.3,Win32,59.88023952,,,,,,,,,,,,,,,,,,,,,,,,,,,,,,,,,,,,,,,,,,,,,,,,,,,乐观,e,,,,e,1,1.2127,1,68,148,14,1,,
,,,,,,,,,,,,,,冶成福,001,2025-01-17_14h51.36.061,IAT(Formal),2021.2.3,Win32,59.88023952,,,,,,,,,,,,,,,,,,,,,,,,,,,,,,,,,,,,,,,,,,,,,,,,,,,稳重,e,,,,e,1,0.6805,1,69,149,21,1,,
,,,,,,,,,,,,,,冶成福,001,2025-01-17_14h51.36.061,IAT(Formal),2021.2.3,Win32,59.88023952,,,,,,,,,,,,,,,,,,,,,,,,,,,,,,,,,,,,,,,,,,,,,,,,,,,凶狠,i,,,,i,1,0.9392,1,70,150,42,1,,
,,,,,,,,,,,,,,冶成福,001,2025-01-17_14h51.36.061,IAT(Formal),2021.2.3,Win32,59.88023952,,,,,,,,,,,,,,,,,,,,,,,,,,,,,,,,,,,,,,,,,,,,,,,,,,,俺,i,,,,,0,,1,71,151,4,1,,
,,,,,,,,,,,,,,冶成福,001,2025-01-17_14h51.36.061,IAT(Formal),2021.2.3,Win32,59.88023952,,,,,,,,,,,,,,,,,,,,,,,,,,,,,,,,,,,,,,,,,,,,,,,,,,,傲慢,i,,,,e,0,0.7644,1,72,152,37,1,,
,,,,,,,,,,,,,,冶成福,001,2025-01-17_14h51.36.061,IAT(Formal),2021.2.3,Win32,59.88023952,,,,,,,,,,,,,,,,,,,,,,,,,,,,,,,,,,,,,,,,,,,,,,,,,,,自己,i,,,,i,1,0.8843,1,73,153,53,1,,
,,,,,,,,,,,,,,冶成福,001,2025-01-17_14h51.36.061,IAT(Formal),2021.2.3,Win32,59.88023952,,,,,,,,,,,,,,,,,,,,,,,,,,,,,,,,,,,,,,,,,,,,,,,,,,,固执,i,,,,i,1,0.4972,1,74,154,47,1,,
,,,,,,,,,,,,,,冶成福,001,2025-01-17_14h51.36.061,IAT(Formal),2021.2.3,Win32,59.88023952,,,,,,,,,,,,,,,,,,,,,,,,,,,,,,,,,,,,,,,,,,,,,,,,,,,他人,e,,,,e,1,0.5951,1,75,155,8,1,,
,,,,,,,,,,,,,,冶成福,001,2025-01-17_14h51.36.061,IAT(Formal),2021.2.3,Win32,59.88023952,,,,,,,,,,,,,,,,,,,,,,,,,,,,,,,,,,,,,,,,,,,,,,,,,,,他的,e,,,,e,1,0.632,1,76,156,77,1,,
,,,,,,,,,,,,,,冶成福,001,2025-01-17_14h51.36.061,IAT(Formal),2021.2.3,Win32,59.88023952,,,,,,,,,,,,,,,,,,,,,,,,,,,,,,,,,,,,,,,,,,,,,,,,,,,他们,e,,,,e,1,0.5962,1,77,157,56,1,,
,,,,,,,,,,,,,,冶成福,001,2025-01-17_14h51.36.061,IAT(Formal),2021.2.3,Win32,59.88023952,,,,,,,,,,,,,,,,,,,,,,,,,,,,,,,,,,,,,,,,,,,,,,,,,,,鲁莽,i,,,,i,1,0.8431,1,78,158,38,1,,
,,,,,,,,,,,,,,冶成福,001,2025-01-17_14h51.36.061,IAT(Formal),2021.2.3,Win32,59.88023952,,,,,,,,,,,,,,,,,,,,,,,,,,,,,,,,,,,,,,,,,,,,,,,,,,,他,e,,,,e,1,0.6218,1,79,159,65,1,,
,,,,,,,,,,,,,,冶成福,001,2025-01-17_14h51.36.061,IAT(Formal),2021.2.3,Win32,59.88023952,,,,,,,,,,,,,,,,,,,,,,,,,,,,,,,,,,,,,,,,,,,,,,,,,,,,,,,,,,,,,,,,space,3.1976