﻿Instruction1.keys,Instruction1.rt,Instruction2.keys,Instruction2.rt,key_resp_iso.keys,key_resp_iso.corr,key_resp_iso.rt,Practice_01.thisRepN,Practice_01.thisTrialN,Practice_01.thisN,Practice_01.thisIndex,Practice_01.ran,Words,ans,participant,session,date,expName,psychopyVersion,OS,frameRate,key_resp_3.keys,key_resp_3.rt,key_resp_ipn.keys,key_resp_ipn.corr,key_resp_ipn.rt,Practice_02.thisRepN,Practice_02.thisTrialN,Practice_02.thisN,Practice_02.thisIndex,Practice_02.ran,Words_ipn,ans_ipn,key_resp_4.keys,key_resp_4.rt,key_resp_t1.keys,key_resp_t1.corr,key_resp_t1.rt,Practice_T1.thisRepN,Practice_T1.thisTrialN,Practice_T1.thisN,Practice_T1.thisIndex,Practice_T1.ran,Words_t1,ans_t1,key_resp_5.keys,key_resp_5.rt,Formal_T1.thisRepN,Formal_T1.thisTrialN,Formal_T1.thisN,Formal_T1.thisIndex,Formal_T1.ran,key_resp_6.keys,key_resp_6.rt,key_resp_iso_reverse.keys,key_resp_iso_reverse.corr,key_resp_iso_reverse.rt,Practice_iso_Reverse.thisRepN,Practice_iso_Reverse.thisTrialN,Practice_iso_Reverse.thisN,Practice_iso_Reverse.thisIndex,Practice_iso_Reverse.ran,key_resp_7.keys,key_resp_7.rt,key_resp_t2_Practice.keys,key_resp_t2_Practice.corr,key_resp_t2_Practice.rt,Practice_t2_Reverse.thisRepN,Practice_t2_Reverse.thisTrialN,Practice_t2_Reverse.thisN,Practice_t2_Reverse.thisIndex,Practice_t2_Reverse.ran,Words_t2,ans_t2,key_resp_8.keys,key_resp_8.rt,key_resp_t2.keys,key_resp_t2.corr,key_resp_t2.rt,Formal_t2_reverse.thisRepN,Formal_t2_reverse.thisTrialN,Formal_t2_reverse.thisN,Formal_t2_reverse.thisIndex,Formal_t2_reverse.ran,key_instruct.keys,key_instruct.rt
space,6.7551,space,15.8162,i,1,0.6303,0,0,0,8,1,他人,i,用户62264,001,2024-08-23_14h04.49.374,IAT(Formal),2021.2.3,Win32,29.76190476,,,,,,,,,,,,,,,,,,,,,,,,,,,,,,,,,,,,,,,,,,,,,,,,,,,,,,,,,,,,,,,,,
,,,,e,1,0.6415,0,1,1,3,1,自己,e,用户62264,001,2024-08-23_14h04.49.374,IAT(Formal),2021.2.3,Win32,29.76190476,,,,,,,,,,,,,,,,,,,,,,,,,,,,,,,,,,,,,,,,,,,,,,,,,,,,,,,,,,,,,,,,,
,,,,i,1,0.5828,0,2,2,9,1,其他,i,用户62264,001,2024-08-23_14h04.49.374,IAT(Formal),2021.2.3,Win32,29.76190476,,,,,,,,,,,,,,,,,,,,,,,,,,,,,,,,,,,,,,,,,,,,,,,,,,,,,,,,,,,,,,,,,
,,,,e,1,0.4347,0,3,3,0,1,我,e,用户62264,001,2024-08-23_14h04.49.374,IAT(Formal),2021.2.3,Win32,29.76190476,,,,,,,,,,,,,,,,,,,,,,,,,,,,,,,,,,,,,,,,,,,,,,,,,,,,,,,,,,,,,,,,,
,,,,i,1,0.4671,0,4,4,5,1,他,i,用户62264,001,2024-08-23_14h04.49.374,IAT(Formal),2021.2.3,Win32,29.76190476,,,,,,,,,,,,,,,,,,,,,,,,,,,,,,,,,,,,,,,,,,,,,,,,,,,,,,,,,,,,,,,,,
,,,,e,1,0.5992,0,5,5,2,1,我们,e,用户62264,001,2024-08-23_14h04.49.374,IAT(Formal),2021.2.3,Win32,29.76190476,,,,,,,,,,,,,,,,,,,,,,,,,,,,,,,,,,,,,,,,,,,,,,,,,,,,,,,,,,,,,,,,,
,,,,e,1,0.3782,0,6,6,1,1,我的,e,用户62264,001,2024-08-23_14h04.49.374,IAT(Formal),2021.2.3,Win32,29.76190476,,,,,,,,,,,,,,,,,,,,,,,,,,,,,,,,,,,,,,,,,,,,,,,,,,,,,,,,,,,,,,,,,
,,,,e,1,0.5649,0,7,7,4,1,俺,e,用户62264,001,2024-08-23_14h04.49.374,IAT(Formal),2021.2.3,Win32,29.76190476,,,,,,,,,,,,,,,,,,,,,,,,,,,,,,,,,,,,,,,,,,,,,,,,,,,,,,,,,,,,,,,,,
,,,,i,1,0.4258,0,8,8,6,1,他们,i,用户62264,001,2024-08-23_14h04.49.374,IAT(Formal),2021.2.3,Win32,29.76190476,,,,,,,,,,,,,,,,,,,,,,,,,,,,,,,,,,,,,,,,,,,,,,,,,,,,,,,,,,,,,,,,,
,,,,i,1,0.3618,0,9,9,7,1,他的,i,用户62264,001,2024-08-23_14h04.49.374,IAT(Formal),2021.2.3,Win32,29.76190476,,,,,,,,,,,,,,,,,,,,,,,,,,,,,,,,,,,,,,,,,,,,,,,,,,,,,,,,,,,,,,,,,
,,,,,,,,,,,,,,用户62264,001,2024-08-23_14h04.49.374,IAT(Formal),2021.2.3,Win32,29.76190476,space,11.5441,i,1,0.5823,0,0,0,35,1,猖狂,i,,,,,,,,,,,,,,,,,,,,,,,,,,,,,,,,,,,,,,,,,,,,,,,,,,,,,
,,,,,,,,,,,,,,用户62264,001,2024-08-23_14h04.49.374,IAT(Formal),2021.2.3,Win32,29.76190476,,,e,1,0.6068,0,1,1,10,1,认真,e,,,,,,,,,,,,,,,,,,,,,,,,,,,,,,,,,,,,,,,,,,,,,,,,,,,,,
,,,,,,,,,,,,,,用户62264,001,2024-08-23_14h04.49.374,IAT(Formal),2021.2.3,Win32,29.76190476,,,i,1,0.498,0,2,2,26,1,自卑,i,,,,,,,,,,,,,,,,,,,,,,,,,,,,,,,,,,,,,,,,,,,,,,,,,,,,,
,,,,,,,,,,,,,,用户62264,001,2024-08-23_14h04.49.374,IAT(Formal),2021.2.3,Win32,29.76190476,,,i,1,0.459,0,3,3,28,1,鲁莽,i,,,,,,,,,,,,,,,,,,,,,,,,,,,,,,,,,,,,,,,,,,,,,,,,,,,,,
,,,,,,,,,,,,,,用户62264,001,2024-08-23_14h04.49.374,IAT(Formal),2021.2.3,Win32,29.76190476,,,e,1,0.4674,0,4,4,3,1,杰出,e,,,,,,,,,,,,,,,,,,,,,,,,,,,,,,,,,,,,,,,,,,,,,,,,,,,,,
,,,,,,,,,,,,,,用户62264,001,2024-08-23_14h04.49.374,IAT(Formal),2021.2.3,Win32,29.76190476,,,i,1,0.4847,0,5,5,23,1,刻薄,i,,,,,,,,,,,,,,,,,,,,,,,,,,,,,,,,,,,,,,,,,,,,,,,,,,,,,
,,,,,,,,,,,,,,用户62264,001,2024-08-23_14h04.49.374,IAT(Formal),2021.2.3,Win32,29.76190476,,,i,1,0.614,0,6,6,37,1,固执,i,,,,,,,,,,,,,,,,,,,,,,,,,,,,,,,,,,,,,,,,,,,,,,,,,,,,,
,,,,,,,,,,,,,,用户62264,001,2024-08-23_14h04.49.374,IAT(Formal),2021.2.3,Win32,29.76190476,,,e,1,0.6613,0,7,7,12,1,无私,e,,,,,,,,,,,,,,,,,,,,,,,,,,,,,,,,,,,,,,,,,,,,,,,,,,,,,
,,,,,,,,,,,,,,用户62264,001,2024-08-23_14h04.49.374,IAT(Formal),2021.2.3,Win32,29.76190476,,,e,1,0.556,0,8,8,6,1,正直,e,,,,,,,,,,,,,,,,,,,,,,,,,,,,,,,,,,,,,,,,,,,,,,,,,,,,,
,,,,,,,,,,,,,,用户62264,001,2024-08-23_14h04.49.374,IAT(Formal),2021.2.3,Win32,29.76190476,,,e,1,0.4338,0,9,9,2,1,聪明,e,,,,,,,,,,,,,,,,,,,,,,,,,,,,,,,,,,,,,,,,,,,,,,,,,,,,,
,,,,,,,,,,,,,,用户62264,001,2024-08-23_14h04.49.374,IAT(Formal),2021.2.3,Win32,29.76190476,,,i,1,0.5441,0,10,10,31,1,散漫,i,,,,,,,,,,,,,,,,,,,,,,,,,,,,,,,,,,,,,,,,,,,,,,,,,,,,,
,,,,,,,,,,,,,,用户62264,001,2024-08-23_14h04.49.374,IAT(Formal),2021.2.3,Win32,29.76190476,,,e,1,0.6676,0,11,11,15,1,细腻,e,,,,,,,,,,,,,,,,,,,,,,,,,,,,,,,,,,,,,,,,,,,,,,,,,,,,,
,,,,,,,,,,,,,,用户62264,001,2024-08-23_14h04.49.374,IAT(Formal),2021.2.3,Win32,29.76190476,,,i,1,0.7259,0,12,12,38,1,轻率,i,,,,,,,,,,,,,,,,,,,,,,,,,,,,,,,,,,,,,,,,,,,,,,,,,,,,,
,,,,,,,,,,,,,,用户62264,001,2024-08-23_14h04.49.374,IAT(Formal),2021.2.3,Win32,29.76190476,,,e,1,0.5591,0,13,13,14,1,朴实,e,,,,,,,,,,,,,,,,,,,,,,,,,,,,,,,,,,,,,,,,,,,,,,,,,,,,,
,,,,,,,,,,,,,,用户62264,001,2024-08-23_14h04.49.374,IAT(Formal),2021.2.3,Win32,29.76190476,,,e,1,0.3844,0,14,14,18,1,活泼,e,,,,,,,,,,,,,,,,,,,,,,,,,,,,,,,,,,,,,,,,,,,,,,,,,,,,,
,,,,,,,,,,,,,,用户62264,001,2024-08-23_14h04.49.374,IAT(Formal),2021.2.3,Win32,29.76190476,,,i,0,0.5207,0,15,15,16,1,冷静,e,,,,,,,,,,,,,,,,,,,,,,,,,,,,,,,,,,,,,,,,,,,,,,,,,,,,,
,,,,,,,,,,,,,,用户62264,001,2024-08-23_14h04.49.374,IAT(Formal),2021.2.3,Win32,29.76190476,,,i,1,0.5113,0,16,16,34,1,暴躁,i,,,,,,,,,,,,,,,,,,,,,,,,,,,,,,,,,,,,,,,,,,,,,,,,,,,,,
,,,,,,,,,,,,,,用户62264,001,2024-08-23_14h04.49.374,IAT(Formal),2021.2.3,Win32,29.76190476,,,e,1,0.6656,0,17,17,1,1,崇高,e,,,,,,,,,,,,,,,,,,,,,,,,,,,,,,,,,,,,,,,,,,,,,,,,,,,,,
,,,,,,,,,,,,,,用户62264,001,2024-08-23_14h04.49.374,IAT(Formal),2021.2.3,Win32,29.76190476,,,e,1,0.4454,0,18,18,8,1,勤奋,e,,,,,,,,,,,,,,,,,,,,,,,,,,,,,,,,,,,,,,,,,,,,,,,,,,,,,
,,,,,,,,,,,,,,用户62264,001,2024-08-23_14h04.49.374,IAT(Formal),2021.2.3,Win32,29.76190476,,,i,1,0.5268,0,19,19,33,1,自私,i,,,,,,,,,,,,,,,,,,,,,,,,,,,,,,,,,,,,,,,,,,,,,,,,,,,,,
,,,,,,,,,,,,,,用户62264,001,2024-08-23_14h04.49.374,IAT(Formal),2021.2.3,Win32,29.76190476,,,i,1,0.458,0,20,20,22,1,愚蠢,i,,,,,,,,,,,,,,,,,,,,,,,,,,,,,,,,,,,,,,,,,,,,,,,,,,,,,
,,,,,,,,,,,,,,用户62264,001,2024-08-23_14h04.49.374,IAT(Formal),2021.2.3,Win32,29.76190476,,,e,1,0.435,0,21,21,17,1,热情,e,,,,,,,,,,,,,,,,,,,,,,,,,,,,,,,,,,,,,,,,,,,,,,,,,,,,,
,,,,,,,,,,,,,,用户62264,001,2024-08-23_14h04.49.374,IAT(Formal),2021.2.3,Win32,29.76190476,,,e,1,0.388,0,22,22,5,1,诚实,e,,,,,,,,,,,,,,,,,,,,,,,,,,,,,,,,,,,,,,,,,,,,,,,,,,,,,
,,,,,,,,,,,,,,用户62264,001,2024-08-23_14h04.49.374,IAT(Formal),2021.2.3,Win32,29.76190476,,,e,1,0.4019,0,23,23,9,1,机智,e,,,,,,,,,,,,,,,,,,,,,,,,,,,,,,,,,,,,,,,,,,,,,,,,,,,,,
,,,,,,,,,,,,,,用户62264,001,2024-08-23_14h04.49.374,IAT(Formal),2021.2.3,Win32,29.76190476,,,i,1,0.413,0,24,24,20,1,卑鄙,i,,,,,,,,,,,,,,,,,,,,,,,,,,,,,,,,,,,,,,,,,,,,,,,,,,,,,
,,,,,,,,,,,,,,用户62264,001,2024-08-23_14h04.49.374,IAT(Formal),2021.2.3,Win32,29.76190476,,,i,1,0.4101,0,25,25,30,1,执拗,i,,,,,,,,,,,,,,,,,,,,,,,,,,,,,,,,,,,,,,,,,,,,,,,,,,,,,
,,,,,,,,,,,,,,用户62264,001,2024-08-23_14h04.49.374,IAT(Formal),2021.2.3,Win32,29.76190476,,,i,1,0.418,0,26,26,25,1,消极,i,,,,,,,,,,,,,,,,,,,,,,,,,,,,,,,,,,,,,,,,,,,,,,,,,,,,,
,,,,,,,,,,,,,,用户62264,001,2024-08-23_14h04.49.374,IAT(Formal),2021.2.3,Win32,29.76190476,,,e,1,0.5961,0,27,27,11,1,稳重,e,,,,,,,,,,,,,,,,,,,,,,,,,,,,,,,,,,,,,,,,,,,,,,,,,,,,,
,,,,,,,,,,,,,,用户62264,001,2024-08-23_14h04.49.374,IAT(Formal),2021.2.3,Win32,29.76190476,,,i,1,0.653,0,28,28,27,1,傲慢,i,,,,,,,,,,,,,,,,,,,,,,,,,,,,,,,,,,,,,,,,,,,,,,,,,,,,,
,,,,,,,,,,,,,,用户62264,001,2024-08-23_14h04.49.374,IAT(Formal),2021.2.3,Win32,29.76190476,,,i,1,0.4218,0,29,29,36,1,野蛮,i,,,,,,,,,,,,,,,,,,,,,,,,,,,,,,,,,,,,,,,,,,,,,,,,,,,,,
,,,,,,,,,,,,,,用户62264,001,2024-08-23_14h04.49.374,IAT(Formal),2021.2.3,Win32,29.76190476,,,e,1,0.4315,0,30,30,4,1,乐观,e,,,,,,,,,,,,,,,,,,,,,,,,,,,,,,,,,,,,,,,,,,,,,,,,,,,,,
,,,,,,,,,,,,,,用户62264,001,2024-08-23_14h04.49.374,IAT(Formal),2021.2.3,Win32,29.76190476,,,e,1,0.3666,0,31,31,0,1,优秀,e,,,,,,,,,,,,,,,,,,,,,,,,,,,,,,,,,,,,,,,,,,,,,,,,,,,,,
,,,,,,,,,,,,,,用户62264,001,2024-08-23_14h04.49.374,IAT(Formal),2021.2.3,Win32,29.76190476,,,i,1,0.3923,0,32,32,32,1,凶狠,i,,,,,,,,,,,,,,,,,,,,,,,,,,,,,,,,,,,,,,,,,,,,,,,,,,,,,
,,,,,,,,,,,,,,用户62264,001,2024-08-23_14h04.49.374,IAT(Formal),2021.2.3,Win32,29.76190476,,,i,1,0.4179,0,33,33,21,1,虚伪,i,,,,,,,,,,,,,,,,,,,,,,,,,,,,,,,,,,,,,,,,,,,,,,,,,,,,,
,,,,,,,,,,,,,,用户62264,001,2024-08-23_14h04.49.374,IAT(Formal),2021.2.3,Win32,29.76190476,,,i,1,0.3933,0,34,34,29,1,冒失,i,,,,,,,,,,,,,,,,,,,,,,,,,,,,,,,,,,,,,,,,,,,,,,,,,,,,,
,,,,,,,,,,,,,,用户62264,001,2024-08-23_14h04.49.374,IAT(Formal),2021.2.3,Win32,29.76190476,,,i,1,0.3676,0,35,35,39,1,下贱,i,,,,,,,,,,,,,,,,,,,,,,,,,,,,,,,,,,,,,,,,,,,,,,,,,,,,,
,,,,,,,,,,,,,,用户62264,001,2024-08-23_14h04.49.374,IAT(Formal),2021.2.3,Win32,29.76190476,,,i,1,0.3538,0,36,36,24,1,悲观,i,,,,,,,,,,,,,,,,,,,,,,,,,,,,,,,,,,,,,,,,,,,,,,,,,,,,,
,,,,,,,,,,,,,,用户62264,001,2024-08-23_14h04.49.374,IAT(Formal),2021.2.3,Win32,29.76190476,,,e,1,0.4219,0,37,37,13,1,公正,e,,,,,,,,,,,,,,,,,,,,,,,,,,,,,,,,,,,,,,,,,,,,,,,,,,,,,
,,,,,,,,,,,,,,用户62264,001,2024-08-23_14h04.49.374,IAT(Formal),2021.2.3,Win32,29.76190476,,,e,1,0.416,0,38,38,19,1,诚恳,e,,,,,,,,,,,,,,,,,,,,,,,,,,,,,,,,,,,,,,,,,,,,,,,,,,,,,
,,,,,,,,,,,,,,用户62264,001,2024-08-23_14h04.49.374,IAT(Formal),2021.2.3,Win32,29.76190476,,,e,1,0.4018,0,39,39,7,1,勇敢,e,,,,,,,,,,,,,,,,,,,,,,,,,,,,,,,,,,,,,,,,,,,,,,,,,,,,,
,,,,,,,,,,,,,,用户62264,001,2024-08-23_14h04.49.374,IAT(Formal),2021.2.3,Win32,29.76190476,,,,,,,,,,,,,space,10.5708,i,1,0.6093,0,0,0,43,1,自私,i,,,,,,,,,,,,,,,,,,,,,,,,,,,,,,,,,,,,,,,,,
,,,,,,,,,,,,,,用户62264,001,2024-08-23_14h04.49.374,IAT(Formal),2021.2.3,Win32,29.76190476,,,,,,,,,,,,,,,e,1,0.3776,0,1,1,0,1,我,e,,,,,,,,,,,,,,,,,,,,,,,,,,,,,,,,,,,,,,,,,
,,,,,,,,,,,,,,用户62264,001,2024-08-23_14h04.49.374,IAT(Formal),2021.2.3,Win32,29.76190476,,,,,,,,,,,,,,,i,1,0.5009,0,2,2,47,1,固执,i,,,,,,,,,,,,,,,,,,,,,,,,,,,,,,,,,,,,,,,,,
,,,,,,,,,,,,,,用户62264,001,2024-08-23_14h04.49.374,IAT(Formal),2021.2.3,Win32,29.76190476,,,,,,,,,,,,,,,i,1,0.4696,0,3,3,9,1,其他,i,,,,,,,,,,,,,,,,,,,,,,,,,,,,,,,,,,,,,,,,,
,,,,,,,,,,,,,,用户62264,001,2024-08-23_14h04.49.374,IAT(Formal),2021.2.3,Win32,29.76190476,,,,,,,,,,,,,,,i,1,0.4688,0,4,4,76,1,他们,i,,,,,,,,,,,,,,,,,,,,,,,,,,,,,,,,,,,,,,,,,
,,,,,,,,,,,,,,用户62264,001,2024-08-23_14h04.49.374,IAT(Formal),2021.2.3,Win32,29.76190476,,,,,,,,,,,,,,,e,1,0.4233,0,5,5,71,1,我的,e,,,,,,,,,,,,,,,,,,,,,,,,,,,,,,,,,,,,,,,,,
,,,,,,,,,,,,,,用户62264,001,2024-08-23_14h04.49.374,IAT(Formal),2021.2.3,Win32,29.76190476,,,,,,,,,,,,,,,e,1,0.4016,0,6,6,26,1,冷静,e,,,,,,,,,,,,,,,,,,,,,,,,,,,,,,,,,,,,,,,,,
,,,,,,,,,,,,,,用户62264,001,2024-08-23_14h04.49.374,IAT(Formal),2021.2.3,Win32,29.76190476,,,,,,,,,,,,,,,e,1,0.4383,0,7,7,73,1,自己,e,,,,,,,,,,,,,,,,,,,,,,,,,,,,,,,,,,,,,,,,,
,,,,,,,,,,,,,,用户62264,001,2024-08-23_14h04.49.374,IAT(Formal),2021.2.3,Win32,29.76190476,,,,,,,,,,,,,,,i,1,0.4349,0,8,8,48,1,轻率,i,,,,,,,,,,,,,,,,,,,,,,,,,,,,,,,,,,,,,,,,,
,,,,,,,,,,,,,,用户62264,001,2024-08-23_14h04.49.374,IAT(Formal),2021.2.3,Win32,29.76190476,,,,,,,,,,,,,,,i,1,0.5466,0,9,9,79,1,其他,i,,,,,,,,,,,,,,,,,,,,,,,,,,,,,,,,,,,,,,,,,
,,,,,,,,,,,,,,用户62264,001,2024-08-23_14h04.49.374,IAT(Formal),2021.2.3,Win32,29.76190476,,,,,,,,,,,,,,,e,1,0.4295,0,10,10,51,1,我的,e,,,,,,,,,,,,,,,,,,,,,,,,,,,,,,,,,,,,,,,,,
,,,,,,,,,,,,,,用户62264,001,2024-08-23_14h04.49.374,IAT(Formal),2021.2.3,Win32,29.76190476,,,,,,,,,,,,,,,e,1,0.3702,0,11,11,60,1,我,e,,,,,,,,,,,,,,,,,,,,,,,,,,,,,,,,,,,,,,,,,
,,,,,,,,,,,,,,用户62264,001,2024-08-23_14h04.49.374,IAT(Formal),2021.2.3,Win32,29.76190476,,,,,,,,,,,,,,,i,1,0.4241,0,12,12,32,1,愚蠢,i,,,,,,,,,,,,,,,,,,,,,,,,,,,,,,,,,,,,,,,,,
,,,,,,,,,,,,,,用户62264,001,2024-08-23_14h04.49.374,IAT(Formal),2021.2.3,Win32,29.76190476,,,,,,,,,,,,,,,e,1,0.5415,0,13,13,50,1,我,e,,,,,,,,,,,,,,,,,,,,,,,,,,,,,,,,,,,,,,,,,
,,,,,,,,,,,,,,用户62264,001,2024-08-23_14h04.49.374,IAT(Formal),2021.2.3,Win32,29.76190476,,,,,,,,,,,,,,,e,1,0.4742,0,14,14,17,1,勇敢,e,,,,,,,,,,,,,,,,,,,,,,,,,,,,,,,,,,,,,,,,,
,,,,,,,,,,,,,,用户62264,001,2024-08-23_14h04.49.374,IAT(Formal),2021.2.3,Win32,29.76190476,,,,,,,,,,,,,,,i,1,0.4625,0,15,15,30,1,卑鄙,i,,,,,,,,,,,,,,,,,,,,,,,,,,,,,,,,,,,,,,,,,
,,,,,,,,,,,,,,用户62264,001,2024-08-23_14h04.49.374,IAT(Formal),2021.2.3,Win32,29.76190476,,,,,,,,,,,,,,,i,1,0.5199,0,16,16,8,1,他人,i,,,,,,,,,,,,,,,,,,,,,,,,,,,,,,,,,,,,,,,,,
,,,,,,,,,,,,,,用户62264,001,2024-08-23_14h04.49.374,IAT(Formal),2021.2.3,Win32,29.76190476,,,,,,,,,,,,,,,i,1,0.4222,0,17,17,45,1,猖狂,i,,,,,,,,,,,,,,,,,,,,,,,,,,,,,,,,,,,,,,,,,
,,,,,,,,,,,,,,用户62264,001,2024-08-23_14h04.49.374,IAT(Formal),2021.2.3,Win32,29.76190476,,,,,,,,,,,,,,,i,1,0.3232,0,18,18,55,1,他,i,,,,,,,,,,,,,,,,,,,,,,,,,,,,,,,,,,,,,,,,,
,,,,,,,,,,,,,,用户62264,001,2024-08-23_14h04.49.374,IAT(Formal),2021.2.3,Win32,29.76190476,,,,,,,,,,,,,,,i,1,0.4168,0,19,19,56,1,他们,i,,,,,,,,,,,,,,,,,,,,,,,,,,,,,,,,,,,,,,,,,
,,,,,,,,,,,,,,用户62264,001,2024-08-23_14h04.49.374,IAT(Formal),2021.2.3,Win32,29.76190476,,,,,,,,,,,,,,,e,1,0.5007,0,20,20,74,1,俺,e,,,,,,,,,,,,,,,,,,,,,,,,,,,,,,,,,,,,,,,,,
,,,,,,,,,,,,,,用户62264,001,2024-08-23_14h04.49.374,IAT(Formal),2021.2.3,Win32,29.76190476,,,,,,,,,,,,,,,e,1,0.3866,0,21,21,63,1,自己,e,,,,,,,,,,,,,,,,,,,,,,,,,,,,,,,,,,,,,,,,,
,,,,,,,,,,,,,,用户62264,001,2024-08-23_14h04.49.374,IAT(Formal),2021.2.3,Win32,29.76190476,,,,,,,,,,,,,,,e,1,0.3703,0,22,22,62,1,我们,e,,,,,,,,,,,,,,,,,,,,,,,,,,,,,,,,,,,,,,,,,
,,,,,,,,,,,,,,用户62264,001,2024-08-23_14h04.49.374,IAT(Formal),2021.2.3,Win32,29.76190476,,,,,,,,,,,,,,,e,1,0.3474,0,23,23,15,1,诚实,e,,,,,,,,,,,,,,,,,,,,,,,,,,,,,,,,,,,,,,,,,
,,,,,,,,,,,,,,用户62264,001,2024-08-23_14h04.49.374,IAT(Formal),2021.2.3,Win32,29.76190476,,,,,,,,,,,,,,,i,1,0.485,0,24,24,65,1,他,i,,,,,,,,,,,,,,,,,,,,,,,,,,,,,,,,,,,,,,,,,
,,,,,,,,,,,,,,用户62264,001,2024-08-23_14h04.49.374,IAT(Formal),2021.2.3,Win32,29.76190476,,,,,,,,,,,,,,,e,1,0.4125,0,25,25,16,1,正直,e,,,,,,,,,,,,,,,,,,,,,,,,,,,,,,,,,,,,,,,,,
,,,,,,,,,,,,,,用户62264,001,2024-08-23_14h04.49.374,IAT(Formal),2021.2.3,Win32,29.76190476,,,,,,,,,,,,,,,e,1,0.3679,0,26,26,72,1,我们,e,,,,,,,,,,,,,,,,,,,,,,,,,,,,,,,,,,,,,,,,,
,,,,,,,,,,,,,,用户62264,001,2024-08-23_14h04.49.374,IAT(Formal),2021.2.3,Win32,29.76190476,,,,,,,,,,,,,,,e,1,0.6777,0,27,27,18,1,勤奋,e,,,,,,,,,,,,,,,,,,,,,,,,,,,,,,,,,,,,,,,,,
,,,,,,,,,,,,,,用户62264,001,2024-08-23_14h04.49.374,IAT(Formal),2021.2.3,Win32,29.76190476,,,,,,,,,,,,,,,i,1,0.6461,0,28,28,42,1,凶狠,i,,,,,,,,,,,,,,,,,,,,,,,,,,,,,,,,,,,,,,,,,
,,,,,,,,,,,,,,用户62264,001,2024-08-23_14h04.49.374,IAT(Formal),2021.2.3,Win32,29.76190476,,,,,,,,,,,,,,,e,1,0.5167,0,29,29,4,1,俺,e,,,,,,,,,,,,,,,,,,,,,,,,,,,,,,,,,,,,,,,,,
,,,,,,,,,,,,,,用户62264,001,2024-08-23_14h04.49.374,IAT(Formal),2021.2.3,Win32,29.76190476,,,,,,,,,,,,,,,e,1,0.5339,0,30,30,24,1,朴实,e,,,,,,,,,,,,,,,,,,,,,,,,,,,,,,,,,,,,,,,,,
,,,,,,,,,,,,,,用户62264,001,2024-08-23_14h04.49.374,IAT(Formal),2021.2.3,Win32,29.76190476,,,,,,,,,,,,,,,e,1,0.4601,0,31,31,54,1,俺,e,,,,,,,,,,,,,,,,,,,,,,,,,,,,,,,,,,,,,,,,,
,,,,,,,,,,,,,,用户62264,001,2024-08-23_14h04.49.374,IAT(Formal),2021.2.3,Win32,29.76190476,,,,,,,,,,,,,,,i,1,0.3947,0,32,32,7,1,他的,i,,,,,,,,,,,,,,,,,,,,,,,,,,,,,,,,,,,,,,,,,
,,,,,,,,,,,,,,用户62264,001,2024-08-23_14h04.49.374,IAT(Formal),2021.2.3,Win32,29.76190476,,,,,,,,,,,,,,,i,1,0.3276,0,33,33,58,1,他人,i,,,,,,,,,,,,,,,,,,,,,,,,,,,,,,,,,,,,,,,,,
,,,,,,,,,,,,,,用户62264,001,2024-08-23_14h04.49.374,IAT(Formal),2021.2.3,Win32,29.76190476,,,,,,,,,,,,,,,i,1,0.3435,0,34,34,5,1,他,i,,,,,,,,,,,,,,,,,,,,,,,,,,,,,,,,,,,,,,,,,
,,,,,,,,,,,,,,用户62264,001,2024-08-23_14h04.49.374,IAT(Formal),2021.2.3,Win32,29.76190476,,,,,,,,,,,,,,,i,0,0.3393,0,35,35,52,1,我们,e,,,,,,,,,,,,,,,,,,,,,,,,,,,,,,,,,,,,,,,,,
,,,,,,,,,,,,,,用户62264,001,2024-08-23_14h04.49.374,IAT(Formal),2021.2.3,Win32,29.76190476,,,,,,,,,,,,,,,i,1,0.427,0,36,36,67,1,他的,i,,,,,,,,,,,,,,,,,,,,,,,,,,,,,,,,,,,,,,,,,
,,,,,,,,,,,,,,用户62264,001,2024-08-23_14h04.49.374,IAT(Formal),2021.2.3,Win32,29.76190476,,,,,,,,,,,,,,,e,1,0.501,0,37,37,22,1,无私,e,,,,,,,,,,,,,,,,,,,,,,,,,,,,,,,,,,,,,,,,,
,,,,,,,,,,,,,,用户62264,001,2024-08-23_14h04.49.374,IAT(Formal),2021.2.3,Win32,29.76190476,,,,,,,,,,,,,,,i,1,0.4707,0,38,38,37,1,傲慢,i,,,,,,,,,,,,,,,,,,,,,,,,,,,,,,,,,,,,,,,,,
,,,,,,,,,,,,,,用户62264,001,2024-08-23_14h04.49.374,IAT(Formal),2021.2.3,Win32,29.76190476,,,,,,,,,,,,,,,i,1,0.4653,0,39,39,40,1,执拗,i,,,,,,,,,,,,,,,,,,,,,,,,,,,,,,,,,,,,,,,,,
,,,,,,,,,,,,,,用户62264,001,2024-08-23_14h04.49.374,IAT(Formal),2021.2.3,Win32,29.76190476,,,,,,,,,,,,,,,i,1,0.4255,0,40,40,59,1,其他,i,,,,,,,,,,,,,,,,,,,,,,,,,,,,,,,,,,,,,,,,,
,,,,,,,,,,,,,,用户62264,001,2024-08-23_14h04.49.374,IAT(Formal),2021.2.3,Win32,29.76190476,,,,,,,,,,,,,,,e,1,0.4382,0,41,41,70,1,我,e,,,,,,,,,,,,,,,,,,,,,,,,,,,,,,,,,,,,,,,,,
,,,,,,,,,,,,,,用户62264,001,2024-08-23_14h04.49.374,IAT(Formal),2021.2.3,Win32,29.76190476,,,,,,,,,,,,,,,e,1,0.4358,0,42,42,28,1,活泼,e,,,,,,,,,,,,,,,,,,,,,,,,,,,,,,,,,,,,,,,,,
,,,,,,,,,,,,,,用户62264,001,2024-08-23_14h04.49.374,IAT(Formal),2021.2.3,Win32,29.76190476,,,,,,,,,,,,,,,e,1,0.423,0,43,43,27,1,热情,e,,,,,,,,,,,,,,,,,,,,,,,,,,,,,,,,,,,,,,,,,
,,,,,,,,,,,,,,用户62264,001,2024-08-23_14h04.49.374,IAT(Formal),2021.2.3,Win32,29.76190476,,,,,,,,,,,,,,,e,1,0.4916,0,44,44,25,1,细腻,e,,,,,,,,,,,,,,,,,,,,,,,,,,,,,,,,,,,,,,,,,
,,,,,,,,,,,,,,用户62264,001,2024-08-23_14h04.49.374,IAT(Formal),2021.2.3,Win32,29.76190476,,,,,,,,,,,,,,,e,1,0.4357,0,45,45,61,1,我的,e,,,,,,,,,,,,,,,,,,,,,,,,,,,,,,,,,,,,,,,,,
,,,,,,,,,,,,,,用户62264,001,2024-08-23_14h04.49.374,IAT(Formal),2021.2.3,Win32,29.76190476,,,,,,,,,,,,,,,e,1,0.3714,0,46,46,1,1,我的,e,,,,,,,,,,,,,,,,,,,,,,,,,,,,,,,,,,,,,,,,,
,,,,,,,,,,,,,,用户62264,001,2024-08-23_14h04.49.374,IAT(Formal),2021.2.3,Win32,29.76190476,,,,,,,,,,,,,,,e,1,0.4417,0,47,47,3,1,自己,e,,,,,,,,,,,,,,,,,,,,,,,,,,,,,,,,,,,,,,,,,
,,,,,,,,,,,,,,用户62264,001,2024-08-23_14h04.49.374,IAT(Formal),2021.2.3,Win32,29.76190476,,,,,,,,,,,,,,,i,1,0.5344,0,48,48,39,1,冒失,i,,,,,,,,,,,,,,,,,,,,,,,,,,,,,,,,,,,,,,,,,
,,,,,,,,,,,,,,用户62264,001,2024-08-23_14h04.49.374,IAT(Formal),2021.2.3,Win32,29.76190476,,,,,,,,,,,,,,,i,1,0.4179,0,49,49,75,1,他,i,,,,,,,,,,,,,,,,,,,,,,,,,,,,,,,,,,,,,,,,,
,,,,,,,,,,,,,,用户62264,001,2024-08-23_14h04.49.374,IAT(Formal),2021.2.3,Win32,29.76190476,,,,,,,,,,,,,,,e,1,0.594,0,50,50,23,1,公正,e,,,,,,,,,,,,,,,,,,,,,,,,,,,,,,,,,,,,,,,,,
,,,,,,,,,,,,,,用户62264,001,2024-08-23_14h04.49.374,IAT(Formal),2021.2.3,Win32,29.76190476,,,,,,,,,,,,,,,i,1,0.4272,0,51,51,77,1,他的,i,,,,,,,,,,,,,,,,,,,,,,,,,,,,,,,,,,,,,,,,,
,,,,,,,,,,,,,,用户62264,001,2024-08-23_14h04.49.374,IAT(Formal),2021.2.3,Win32,29.76190476,,,,,,,,,,,,,,,i,1,0.4259,0,52,52,38,1,鲁莽,i,,,,,,,,,,,,,,,,,,,,,,,,,,,,,,,,,,,,,,,,,
,,,,,,,,,,,,,,用户62264,001,2024-08-23_14h04.49.374,IAT(Formal),2021.2.3,Win32,29.76190476,,,,,,,,,,,,,,,e,1,0.4149,0,53,53,10,1,优秀,e,,,,,,,,,,,,,,,,,,,,,,,,,,,,,,,,,,,,,,,,,
,,,,,,,,,,,,,,用户62264,001,2024-08-23_14h04.49.374,IAT(Formal),2021.2.3,Win32,29.76190476,,,,,,,,,,,,,,,i,1,0.5649,0,54,54,34,1,悲观,i,,,,,,,,,,,,,,,,,,,,,,,,,,,,,,,,,,,,,,,,,
,,,,,,,,,,,,,,用户62264,001,2024-08-23_14h04.49.374,IAT(Formal),2021.2.3,Win32,29.76190476,,,,,,,,,,,,,,,i,1,0.39,0,55,55,31,1,虚伪,i,,,,,,,,,,,,,,,,,,,,,,,,,,,,,,,,,,,,,,,,,
,,,,,,,,,,,,,,用户62264,001,2024-08-23_14h04.49.374,IAT(Formal),2021.2.3,Win32,29.76190476,,,,,,,,,,,,,,,i,1,0.448,0,56,56,44,1,暴躁,i,,,,,,,,,,,,,,,,,,,,,,,,,,,,,,,,,,,,,,,,,
,,,,,,,,,,,,,,用户62264,001,2024-08-23_14h04.49.374,IAT(Formal),2021.2.3,Win32,29.76190476,,,,,,,,,,,,,,,e,1,0.4408,0,57,57,12,1,聪明,e,,,,,,,,,,,,,,,,,,,,,,,,,,,,,,,,,,,,,,,,,
,,,,,,,,,,,,,,用户62264,001,2024-08-23_14h04.49.374,IAT(Formal),2021.2.3,Win32,29.76190476,,,,,,,,,,,,,,,i,1,0.4476,0,58,58,49,1,下贱,i,,,,,,,,,,,,,,,,,,,,,,,,,,,,,,,,,,,,,,,,,
,,,,,,,,,,,,,,用户62264,001,2024-08-23_14h04.49.374,IAT(Formal),2021.2.3,Win32,29.76190476,,,,,,,,,,,,,,,e,1,0.5257,0,59,59,21,1,稳重,e,,,,,,,,,,,,,,,,,,,,,,,,,,,,,,,,,,,,,,,,,
,,,,,,,,,,,,,,用户62264,001,2024-08-23_14h04.49.374,IAT(Formal),2021.2.3,Win32,29.76190476,,,,,,,,,,,,,,,e,1,0.4836,0,60,60,29,1,诚恳,e,,,,,,,,,,,,,,,,,,,,,,,,,,,,,,,,,,,,,,,,,
,,,,,,,,,,,,,,用户62264,001,2024-08-23_14h04.49.374,IAT(Formal),2021.2.3,Win32,29.76190476,,,,,,,,,,,,,,,e,1,0.3761,0,61,61,53,1,自己,e,,,,,,,,,,,,,,,,,,,,,,,,,,,,,,,,,,,,,,,,,
,,,,,,,,,,,,,,用户62264,001,2024-08-23_14h04.49.374,IAT(Formal),2021.2.3,Win32,29.76190476,,,,,,,,,,,,,,,i,1,0.419,0,62,62,57,1,他的,i,,,,,,,,,,,,,,,,,,,,,,,,,,,,,,,,,,,,,,,,,
,,,,,,,,,,,,,,用户62264,001,2024-08-23_14h04.49.374,IAT(Formal),2021.2.3,Win32,29.76190476,,,,,,,,,,,,,,,i,0,0.4146,0,63,63,19,1,机智,e,,,,,,,,,,,,,,,,,,,,,,,,,,,,,,,,,,,,,,,,,
,,,,,,,,,,,,,,用户62264,001,2024-08-23_14h04.49.374,IAT(Formal),2021.2.3,Win32,29.76190476,,,,,,,,,,,,,,,e,1,0.4884,0,64,64,14,1,乐观,e,,,,,,,,,,,,,,,,,,,,,,,,,,,,,,,,,,,,,,,,,
,,,,,,,,,,,,,,用户62264,001,2024-08-23_14h04.49.374,IAT(Formal),2021.2.3,Win32,29.76190476,,,,,,,,,,,,,,,i,1,0.467,0,65,65,69,1,其他,i,,,,,,,,,,,,,,,,,,,,,,,,,,,,,,,,,,,,,,,,,
,,,,,,,,,,,,,,用户62264,001,2024-08-23_14h04.49.374,IAT(Formal),2021.2.3,Win32,29.76190476,,,,,,,,,,,,,,,e,1,0.5456,0,66,66,20,1,认真,e,,,,,,,,,,,,,,,,,,,,,,,,,,,,,,,,,,,,,,,,,
,,,,,,,,,,,,,,用户62264,001,2024-08-23_14h04.49.374,IAT(Formal),2021.2.3,Win32,29.76190476,,,,,,,,,,,,,,,i,1,0.431,0,67,67,78,1,他人,i,,,,,,,,,,,,,,,,,,,,,,,,,,,,,,,,,,,,,,,,,
,,,,,,,,,,,,,,用户62264,001,2024-08-23_14h04.49.374,IAT(Formal),2021.2.3,Win32,29.76190476,,,,,,,,,,,,,,,e,1,0.4064,0,68,68,64,1,俺,e,,,,,,,,,,,,,,,,,,,,,,,,,,,,,,,,,,,,,,,,,
,,,,,,,,,,,,,,用户62264,001,2024-08-23_14h04.49.374,IAT(Formal),2021.2.3,Win32,29.76190476,,,,,,,,,,,,,,,e,1,0.5677,0,69,69,2,1,我们,e,,,,,,,,,,,,,,,,,,,,,,,,,,,,,,,,,,,,,,,,,
,,,,,,,,,,,,,,用户62264,001,2024-08-23_14h04.49.374,IAT(Formal),2021.2.3,Win32,29.76190476,,,,,,,,,,,,,,,i,1,0.4743,0,70,70,35,1,消极,i,,,,,,,,,,,,,,,,,,,,,,,,,,,,,,,,,,,,,,,,,
,,,,,,,,,,,,,,用户62264,001,2024-08-23_14h04.49.374,IAT(Formal),2021.2.3,Win32,29.76190476,,,,,,,,,,,,,,,i,1,0.5178,0,71,71,66,1,他们,i,,,,,,,,,,,,,,,,,,,,,,,,,,,,,,,,,,,,,,,,,
,,,,,,,,,,,,,,用户62264,001,2024-08-23_14h04.49.374,IAT(Formal),2021.2.3,Win32,29.76190476,,,,,,,,,,,,,,,i,1,0.5366,0,72,72,36,1,自卑,i,,,,,,,,,,,,,,,,,,,,,,,,,,,,,,,,,,,,,,,,,
,,,,,,,,,,,,,,用户62264,001,2024-08-23_14h04.49.374,IAT(Formal),2021.2.3,Win32,29.76190476,,,,,,,,,,,,,,,i,1,0.3953,0,73,73,33,1,刻薄,i,,,,,,,,,,,,,,,,,,,,,,,,,,,,,,,,,,,,,,,,,
,,,,,,,,,,,,,,用户62264,001,2024-08-23_14h04.49.374,IAT(Formal),2021.2.3,Win32,29.76190476,,,,,,,,,,,,,,,i,1,0.4272,0,74,74,68,1,他人,i,,,,,,,,,,,,,,,,,,,,,,,,,,,,,,,,,,,,,,,,,
,,,,,,,,,,,,,,用户62264,001,2024-08-23_14h04.49.374,IAT(Formal),2021.2.3,Win32,29.76190476,,,,,,,,,,,,,,,i,1,0.4107,0,75,75,46,1,野蛮,i,,,,,,,,,,,,,,,,,,,,,,,,,,,,,,,,,,,,,,,,,
,,,,,,,,,,,,,,用户62264,001,2024-08-23_14h04.49.374,IAT(Formal),2021.2.3,Win32,29.76190476,,,,,,,,,,,,,,,i,1,0.3817,0,76,76,41,1,散漫,i,,,,,,,,,,,,,,,,,,,,,,,,,,,,,,,,,,,,,,,,,
,,,,,,,,,,,,,,用户62264,001,2024-08-23_14h04.49.374,IAT(Formal),2021.2.3,Win32,29.76190476,,,,,,,,,,,,,,,i,1,0.4027,0,77,77,6,1,他们,i,,,,,,,,,,,,,,,,,,,,,,,,,,,,,,,,,,,,,,,,,
,,,,,,,,,,,,,,用户62264,001,2024-08-23_14h04.49.374,IAT(Formal),2021.2.3,Win32,29.76190476,,,,,,,,,,,,,,,e,1,0.4021,0,78,78,13,1,杰出,e,,,,,,,,,,,,,,,,,,,,,,,,,,,,,,,,,,,,,,,,,
,,,,,,,,,,,,,,用户62264,001,2024-08-23_14h04.49.374,IAT(Formal),2021.2.3,Win32,29.76190476,,,,,,,,,,,,,,,e,1,0.4611,0,79,79,11,1,崇高,e,,,,,,,,,,,,,,,,,,,,,,,,,,,,,,,,,,,,,,,,,
,,,,,,,,,,,,,,用户62264,001,2024-08-23_14h04.49.374,IAT(Formal),2021.2.3,Win32,29.76190476,,,,,,,,,,,,,,,e,1,0.4815,,,,,,朴实,e,space,3.9938,0,0,0,24,1,,,,,,,,,,,,,,,,,,,,,,,,,,,,,,,,,,
,,,,,,,,,,,,,,用户62264,001,2024-08-23_14h04.49.374,IAT(Formal),2021.2.3,Win32,29.76190476,,,,,,,,,,,,,,,i,1,0.4149,,,,,,猖狂,i,,,0,1,1,45,1,,,,,,,,,,,,,,,,,,,,,,,,,,,,,,,,,,
,,,,,,,,,,,,,,用户62264,001,2024-08-23_14h04.49.374,IAT(Formal),2021.2.3,Win32,29.76190476,,,,,,,,,,,,,,,i,1,0.4298,,,,,,野蛮,i,,,0,2,2,46,1,,,,,,,,,,,,,,,,,,,,,,,,,,,,,,,,,,
,,,,,,,,,,,,,,用户62264,001,2024-08-23_14h04.49.374,IAT(Formal),2021.2.3,Win32,29.76190476,,,,,,,,,,,,,,,e,1,0.4292,,,,,,自己,e,,,0,3,3,53,1,,,,,,,,,,,,,,,,,,,,,,,,,,,,,,,,,,
,,,,,,,,,,,,,,用户62264,001,2024-08-23_14h04.49.374,IAT(Formal),2021.2.3,Win32,29.76190476,,,,,,,,,,,,,,,i,1,0.3942,,,,,,他们,i,,,0,4,4,76,1,,,,,,,,,,,,,,,,,,,,,,,,,,,,,,,,,,
,,,,,,,,,,,,,,用户62264,001,2024-08-23_14h04.49.374,IAT(Formal),2021.2.3,Win32,29.76190476,,,,,,,,,,,,,,,i,1,0.4112,,,,,,他的,i,,,0,5,5,77,1,,,,,,,,,,,,,,,,,,,,,,,,,,,,,,,,,,
,,,,,,,,,,,,,,用户62264,001,2024-08-23_14h04.49.374,IAT(Formal),2021.2.3,Win32,29.76190476,,,,,,,,,,,,,,,e,0,0.4209,,,,,,刻薄,i,,,0,6,6,33,1,,,,,,,,,,,,,,,,,,,,,,,,,,,,,,,,,,
,,,,,,,,,,,,,,用户62264,001,2024-08-23_14h04.49.374,IAT(Formal),2021.2.3,Win32,29.76190476,,,,,,,,,,,,,,,e,1,0.4454,,,,,,自己,e,,,0,7,7,63,1,,,,,,,,,,,,,,,,,,,,,,,,,,,,,,,,,,
,,,,,,,,,,,,,,用户62264,001,2024-08-23_14h04.49.374,IAT(Formal),2021.2.3,Win32,29.76190476,,,,,,,,,,,,,,,e,1,0.4814,,,,,,稳重,e,,,0,8,8,21,1,,,,,,,,,,,,,,,,,,,,,,,,,,,,,,,,,,
,,,,,,,,,,,,,,用户62264,001,2024-08-23_14h04.49.374,IAT(Formal),2021.2.3,Win32,29.76190476,,,,,,,,,,,,,,,e,1,0.4678,,,,,,活泼,e,,,0,9,9,28,1,,,,,,,,,,,,,,,,,,,,,,,,,,,,,,,,,,
,,,,,,,,,,,,,,用户62264,001,2024-08-23_14h04.49.374,IAT(Formal),2021.2.3,Win32,29.76190476,,,,,,,,,,,,,,,e,1,0.4422,,,,,,我的,e,,,0,10,10,51,1,,,,,,,,,,,,,,,,,,,,,,,,,,,,,,,,,,
,,,,,,,,,,,,,,用户62264,001,2024-08-23_14h04.49.374,IAT(Formal),2021.2.3,Win32,29.76190476,,,,,,,,,,,,,,,e,1,0.4235,,,,,,俺,e,,,0,11,11,64,1,,,,,,,,,,,,,,,,,,,,,,,,,,,,,,,,,,
,,,,,,,,,,,,,,用户62264,001,2024-08-23_14h04.49.374,IAT(Formal),2021.2.3,Win32,29.76190476,,,,,,,,,,,,,,,i,1,0.3933,,,,,,散漫,i,,,0,12,12,41,1,,,,,,,,,,,,,,,,,,,,,,,,,,,,,,,,,,
,,,,,,,,,,,,,,用户62264,001,2024-08-23_14h04.49.374,IAT(Formal),2021.2.3,Win32,29.76190476,,,,,,,,,,,,,,,i,1,0.3752,,,,,,其他,i,,,0,13,13,69,1,,,,,,,,,,,,,,,,,,,,,,,,,,,,,,,,,,
,,,,,,,,,,,,,,用户62264,001,2024-08-23_14h04.49.374,IAT(Formal),2021.2.3,Win32,29.76190476,,,,,,,,,,,,,,,e,1,0.4378,,,,,,我,e,,,0,14,14,0,1,,,,,,,,,,,,,,,,,,,,,,,,,,,,,,,,,,
,,,,,,,,,,,,,,用户62264,001,2024-08-23_14h04.49.374,IAT(Formal),2021.2.3,Win32,29.76190476,,,,,,,,,,,,,,,e,1,0.3594,,,,,,我们,e,,,0,15,15,2,1,,,,,,,,,,,,,,,,,,,,,,,,,,,,,,,,,,
,,,,,,,,,,,,,,用户62264,001,2024-08-23_14h04.49.374,IAT(Formal),2021.2.3,Win32,29.76190476,,,,,,,,,,,,,,,i,1,0.4205,,,,,,执拗,i,,,0,16,16,40,1,,,,,,,,,,,,,,,,,,,,,,,,,,,,,,,,,,
,,,,,,,,,,,,,,用户62264,001,2024-08-23_14h04.49.374,IAT(Formal),2021.2.3,Win32,29.76190476,,,,,,,,,,,,,,,i,1,0.3601,,,,,,他们,i,,,0,17,17,66,1,,,,,,,,,,,,,,,,,,,,,,,,,,,,,,,,,,
,,,,,,,,,,,,,,用户62264,001,2024-08-23_14h04.49.374,IAT(Formal),2021.2.3,Win32,29.76190476,,,,,,,,,,,,,,,e,1,0.4646,,,,,,优秀,e,,,0,18,18,10,1,,,,,,,,,,,,,,,,,,,,,,,,,,,,,,,,,,
,,,,,,,,,,,,,,用户62264,001,2024-08-23_14h04.49.374,IAT(Formal),2021.2.3,Win32,29.76190476,,,,,,,,,,,,,,,e,1,0.3729,,,,,,杰出,e,,,0,19,19,13,1,,,,,,,,,,,,,,,,,,,,,,,,,,,,,,,,,,
,,,,,,,,,,,,,,用户62264,001,2024-08-23_14h04.49.374,IAT(Formal),2021.2.3,Win32,29.76190476,,,,,,,,,,,,,,,e,1,0.35,,,,,,自己,e,,,0,20,20,73,1,,,,,,,,,,,,,,,,,,,,,,,,,,,,,,,,,,
,,,,,,,,,,,,,,用户62264,001,2024-08-23_14h04.49.374,IAT(Formal),2021.2.3,Win32,29.76190476,,,,,,,,,,,,,,,i,1,0.4779,,,,,,他的,i,,,0,21,21,57,1,,,,,,,,,,,,,,,,,,,,,,,,,,,,,,,,,,
,,,,,,,,,,,,,,用户62264,001,2024-08-23_14h04.49.374,IAT(Formal),2021.2.3,Win32,29.76190476,,,,,,,,,,,,,,,e,1,0.4322,,,,,,我们,e,,,0,22,22,52,1,,,,,,,,,,,,,,,,,,,,,,,,,,,,,,,,,,
,,,,,,,,,,,,,,用户62264,001,2024-08-23_14h04.49.374,IAT(Formal),2021.2.3,Win32,29.76190476,,,,,,,,,,,,,,,i,0,0.407,,,,,,冷静,e,,,0,23,23,26,1,,,,,,,,,,,,,,,,,,,,,,,,,,,,,,,,,,
,,,,,,,,,,,,,,用户62264,001,2024-08-23_14h04.49.374,IAT(Formal),2021.2.3,Win32,29.76190476,,,,,,,,,,,,,,,i,0,0.7034,,,,,,崇高,e,,,0,24,24,11,1,,,,,,,,,,,,,,,,,,,,,,,,,,,,,,,,,,
,,,,,,,,,,,,,,用户62264,001,2024-08-23_14h04.49.374,IAT(Formal),2021.2.3,Win32,29.76190476,,,,,,,,,,,,,,,i,1,0.499,,,,,,愚蠢,i,,,0,25,25,32,1,,,,,,,,,,,,,,,,,,,,,,,,,,,,,,,,,,
,,,,,,,,,,,,,,用户62264,001,2024-08-23_14h04.49.374,IAT(Formal),2021.2.3,Win32,29.76190476,,,,,,,,,,,,,,,i,0,0.4482,,,,,,俺,e,,,0,26,26,74,1,,,,,,,,,,,,,,,,,,,,,,,,,,,,,,,,,,
,,,,,,,,,,,,,,用户62264,001,2024-08-23_14h04.49.374,IAT(Formal),2021.2.3,Win32,29.76190476,,,,,,,,,,,,,,,i,1,0.6012,,,,,,悲观,i,,,0,27,27,34,1,,,,,,,,,,,,,,,,,,,,,,,,,,,,,,,,,,
,,,,,,,,,,,,,,用户62264,001,2024-08-23_14h04.49.374,IAT(Formal),2021.2.3,Win32,29.76190476,,,,,,,,,,,,,,,e,1,0.4661,,,,,,认真,e,,,0,28,28,20,1,,,,,,,,,,,,,,,,,,,,,,,,,,,,,,,,,,
,,,,,,,,,,,,,,用户62264,001,2024-08-23_14h04.49.374,IAT(Formal),2021.2.3,Win32,29.76190476,,,,,,,,,,,,,,,e,1,0.6426,,,,,,俺,e,,,0,29,29,4,1,,,,,,,,,,,,,,,,,,,,,,,,,,,,,,,,,,
,,,,,,,,,,,,,,用户62264,001,2024-08-23_14h04.49.374,IAT(Formal),2021.2.3,Win32,29.76190476,,,,,,,,,,,,,,,e,1,0.3811,,,,,,我的,e,,,0,30,30,1,1,,,,,,,,,,,,,,,,,,,,,,,,,,,,,,,,,,
,,,,,,,,,,,,,,用户62264,001,2024-08-23_14h04.49.374,IAT(Formal),2021.2.3,Win32,29.76190476,,,,,,,,,,,,,,,i,1,0.4583,,,,,,他的,i,,,0,31,31,67,1,,,,,,,,,,,,,,,,,,,,,,,,,,,,,,,,,,
,,,,,,,,,,,,,,用户62264,001,2024-08-23_14h04.49.374,IAT(Formal),2021.2.3,Win32,29.76190476,,,,,,,,,,,,,,,e,1,0.6056,,,,,,乐观,e,,,0,32,32,14,1,,,,,,,,,,,,,,,,,,,,,,,,,,,,,,,,,,
,,,,,,,,,,,,,,用户62264,001,2024-08-23_14h04.49.374,IAT(Formal),2021.2.3,Win32,29.76190476,,,,,,,,,,,,,,,i,1,0.4652,,,,,,他,i,,,0,33,33,65,1,,,,,,,,,,,,,,,,,,,,,,,,,,,,,,,,,,
,,,,,,,,,,,,,,用户62264,001,2024-08-23_14h04.49.374,IAT(Formal),2021.2.3,Win32,29.76190476,,,,,,,,,,,,,,,i,1,0.5344,,,,,,轻率,i,,,0,34,34,48,1,,,,,,,,,,,,,,,,,,,,,,,,,,,,,,,,,,
,,,,,,,,,,,,,,用户62264,001,2024-08-23_14h04.49.374,IAT(Formal),2021.2.3,Win32,29.76190476,,,,,,,,,,,,,,,i,1,0.3867,,,,,,他们,i,,,0,35,35,56,1,,,,,,,,,,,,,,,,,,,,,,,,,,,,,,,,,,
,,,,,,,,,,,,,,用户62264,001,2024-08-23_14h04.49.374,IAT(Formal),2021.2.3,Win32,29.76190476,,,,,,,,,,,,,,,e,1,0.6179,,,,,,我们,e,,,0,36,36,72,1,,,,,,,,,,,,,,,,,,,,,,,,,,,,,,,,,,
,,,,,,,,,,,,,,用户62264,001,2024-08-23_14h04.49.374,IAT(Formal),2021.2.3,Win32,29.76190476,,,,,,,,,,,,,,,i,1,0.4516,,,,,,他,i,,,0,37,37,55,1,,,,,,,,,,,,,,,,,,,,,,,,,,,,,,,,,,
,,,,,,,,,,,,,,用户62264,001,2024-08-23_14h04.49.374,IAT(Formal),2021.2.3,Win32,29.76190476,,,,,,,,,,,,,,,e,1,0.409,,,,,,我,e,,,0,38,38,50,1,,,,,,,,,,,,,,,,,,,,,,,,,,,,,,,,,,
,,,,,,,,,,,,,,用户62264,001,2024-08-23_14h04.49.374,IAT(Formal),2021.2.3,Win32,29.76190476,,,,,,,,,,,,,,,i,0,0.4401,,,,,,公正,e,,,0,39,39,23,1,,,,,,,,,,,,,,,,,,,,,,,,,,,,,,,,,,
,,,,,,,,,,,,,,用户62264,001,2024-08-23_14h04.49.374,IAT(Formal),2021.2.3,Win32,29.76190476,,,,,,,,,,,,,,,i,1,0.4396,,,,,,他,i,,,0,40,40,75,1,,,,,,,,,,,,,,,,,,,,,,,,,,,,,,,,,,
,,,,,,,,,,,,,,用户62264,001,2024-08-23_14h04.49.374,IAT(Formal),2021.2.3,Win32,29.76190476,,,,,,,,,,,,,,,i,1,0.4044,,,,,,下贱,i,,,0,41,41,49,1,,,,,,,,,,,,,,,,,,,,,,,,,,,,,,,,,,
,,,,,,,,,,,,,,用户62264,001,2024-08-23_14h04.49.374,IAT(Formal),2021.2.3,Win32,29.76190476,,,,,,,,,,,,,,,i,1,0.4111,,,,,,冒失,i,,,0,42,42,39,1,,,,,,,,,,,,,,,,,,,,,,,,,,,,,,,,,,
,,,,,,,,,,,,,,用户62264,001,2024-08-23_14h04.49.374,IAT(Formal),2021.2.3,Win32,29.76190476,,,,,,,,,,,,,,,i,1,0.5811,,,,,,其他,i,,,0,43,43,79,1,,,,,,,,,,,,,,,,,,,,,,,,,,,,,,,,,,
,,,,,,,,,,,,,,用户62264,001,2024-08-23_14h04.49.374,IAT(Formal),2021.2.3,Win32,29.76190476,,,,,,,,,,,,,,,i,1,0.4082,,,,,,其他,i,,,0,44,44,9,1,,,,,,,,,,,,,,,,,,,,,,,,,,,,,,,,,,
,,,,,,,,,,,,,,用户62264,001,2024-08-23_14h04.49.374,IAT(Formal),2021.2.3,Win32,29.76190476,,,,,,,,,,,,,,,e,1,0.4204,,,,,,我们,e,,,0,45,45,62,1,,,,,,,,,,,,,,,,,,,,,,,,,,,,,,,,,,
,,,,,,,,,,,,,,用户62264,001,2024-08-23_14h04.49.374,IAT(Formal),2021.2.3,Win32,29.76190476,,,,,,,,,,,,,,,i,1,0.4771,,,,,,消极,i,,,0,46,46,35,1,,,,,,,,,,,,,,,,,,,,,,,,,,,,,,,,,,
,,,,,,,,,,,,,,用户62264,001,2024-08-23_14h04.49.374,IAT(Formal),2021.2.3,Win32,29.76190476,,,,,,,,,,,,,,,e,1,0.4748,,,,,,我,e,,,0,47,47,70,1,,,,,,,,,,,,,,,,,,,,,,,,,,,,,,,,,,
,,,,,,,,,,,,,,用户62264,001,2024-08-23_14h04.49.374,IAT(Formal),2021.2.3,Win32,29.76190476,,,,,,,,,,,,,,,e,1,0.4196,,,,,,我,e,,,0,48,48,60,1,,,,,,,,,,,,,,,,,,,,,,,,,,,,,,,,,,
,,,,,,,,,,,,,,用户62264,001,2024-08-23_14h04.49.374,IAT(Formal),2021.2.3,Win32,29.76190476,,,,,,,,,,,,,,,i,1,0.506,,,,,,自私,i,,,0,49,49,43,1,,,,,,,,,,,,,,,,,,,,,,,,,,,,,,,,,,
,,,,,,,,,,,,,,用户62264,001,2024-08-23_14h04.49.374,IAT(Formal),2021.2.3,Win32,29.76190476,,,,,,,,,,,,,,,e,1,0.5787,,,,,,俺,e,,,0,50,50,54,1,,,,,,,,,,,,,,,,,,,,,,,,,,,,,,,,,,
,,,,,,,,,,,,,,用户62264,001,2024-08-23_14h04.49.374,IAT(Formal),2021.2.3,Win32,29.76190476,,,,,,,,,,,,,,,i,1,0.4506,,,,,,他,i,,,0,51,51,5,1,,,,,,,,,,,,,,,,,,,,,,,,,,,,,,,,,,
,,,,,,,,,,,,,,用户62264,001,2024-08-23_14h04.49.374,IAT(Formal),2021.2.3,Win32,29.76190476,,,,,,,,,,,,,,,i,1,0.4561,,,,,,他人,i,,,0,52,52,78,1,,,,,,,,,,,,,,,,,,,,,,,,,,,,,,,,,,
,,,,,,,,,,,,,,用户62264,001,2024-08-23_14h04.49.374,IAT(Formal),2021.2.3,Win32,29.76190476,,,,,,,,,,,,,,,e,1,0.4732,,,,,,勇敢,e,,,0,53,53,17,1,,,,,,,,,,,,,,,,,,,,,,,,,,,,,,,,,,
,,,,,,,,,,,,,,用户62264,001,2024-08-23_14h04.49.374,IAT(Formal),2021.2.3,Win32,29.76190476,,,,,,,,,,,,,,,e,1,0.4909,,,,,,诚恳,e,,,0,54,54,29,1,,,,,,,,,,,,,,,,,,,,,,,,,,,,,,,,,,
,,,,,,,,,,,,,,用户62264,001,2024-08-23_14h04.49.374,IAT(Formal),2021.2.3,Win32,29.76190476,,,,,,,,,,,,,,,i,1,0.6426,,,,,,鲁莽,i,,,0,55,55,38,1,,,,,,,,,,,,,,,,,,,,,,,,,,,,,,,,,,
,,,,,,,,,,,,,,用户62264,001,2024-08-23_14h04.49.374,IAT(Formal),2021.2.3,Win32,29.76190476,,,,,,,,,,,,,,,i,1,0.4565,,,,,,虚伪,i,,,0,56,56,31,1,,,,,,,,,,,,,,,,,,,,,,,,,,,,,,,,,,
,,,,,,,,,,,,,,用户62264,001,2024-08-23_14h04.49.374,IAT(Formal),2021.2.3,Win32,29.76190476,,,,,,,,,,,,,,,i,1,0.3877,,,,,,暴躁,i,,,0,57,57,44,1,,,,,,,,,,,,,,,,,,,,,,,,,,,,,,,,,,
,,,,,,,,,,,,,,用户62264,001,2024-08-23_14h04.49.374,IAT(Formal),2021.2.3,Win32,29.76190476,,,,,,,,,,,,,,,i,1,0.4824,,,,,,卑鄙,i,,,0,58,58,30,1,,,,,,,,,,,,,,,,,,,,,,,,,,,,,,,,,,
,,,,,,,,,,,,,,用户62264,001,2024-08-23_14h04.49.374,IAT(Formal),2021.2.3,Win32,29.76190476,,,,,,,,,,,,,,,i,1,0.4659,,,,,,固执,i,,,0,59,59,47,1,,,,,,,,,,,,,,,,,,,,,,,,,,,,,,,,,,
,,,,,,,,,,,,,,用户62264,001,2024-08-23_14h04.49.374,IAT(Formal),2021.2.3,Win32,29.76190476,,,,,,,,,,,,,,,e,1,0.4415,,,,,,自己,e,,,0,60,60,3,1,,,,,,,,,,,,,,,,,,,,,,,,,,,,,,,,,,
,,,,,,,,,,,,,,用户62264,001,2024-08-23_14h04.49.374,IAT(Formal),2021.2.3,Win32,29.76190476,,,,,,,,,,,,,,,i,1,0.5549,,,,,,其他,i,,,0,61,61,59,1,,,,,,,,,,,,,,,,,,,,,,,,,,,,,,,,,,
,,,,,,,,,,,,,,用户62264,001,2024-08-23_14h04.49.374,IAT(Formal),2021.2.3,Win32,29.76190476,,,,,,,,,,,,,,,e,1,0.4661,,,,,,勤奋,e,,,0,62,62,18,1,,,,,,,,,,,,,,,,,,,,,,,,,,,,,,,,,,
,,,,,,,,,,,,,,用户62264,001,2024-08-23_14h04.49.374,IAT(Formal),2021.2.3,Win32,29.76190476,,,,,,,,,,,,,,,e,1,0.4775,,,,,,机智,e,,,0,63,63,19,1,,,,,,,,,,,,,,,,,,,,,,,,,,,,,,,,,,
,,,,,,,,,,,,,,用户62264,001,2024-08-23_14h04.49.374,IAT(Formal),2021.2.3,Win32,29.76190476,,,,,,,,,,,,,,,i,1,0.4166,,,,,,傲慢,i,,,0,64,64,37,1,,,,,,,,,,,,,,,,,,,,,,,,,,,,,,,,,,
,,,,,,,,,,,,,,用户62264,001,2024-08-23_14h04.49.374,IAT(Formal),2021.2.3,Win32,29.76190476,,,,,,,,,,,,,,,i,1,0.399,,,,,,他们,i,,,0,65,65,6,1,,,,,,,,,,,,,,,,,,,,,,,,,,,,,,,,,,
,,,,,,,,,,,,,,用户62264,001,2024-08-23_14h04.49.374,IAT(Formal),2021.2.3,Win32,29.76190476,,,,,,,,,,,,,,,e,0,0.4009,,,,,,他人,i,,,0,66,66,58,1,,,,,,,,,,,,,,,,,,,,,,,,,,,,,,,,,,
,,,,,,,,,,,,,,用户62264,001,2024-08-23_14h04.49.374,IAT(Formal),2021.2.3,Win32,29.76190476,,,,,,,,,,,,,,,e,1,0.4036,,,,,,热情,e,,,0,67,67,27,1,,,,,,,,,,,,,,,,,,,,,,,,,,,,,,,,,,
,,,,,,,,,,,,,,用户62264,001,2024-08-23_14h04.49.374,IAT(Formal),2021.2.3,Win32,29.76190476,,,,,,,,,,,,,,,e,1,0.48,,,,,,我的,e,,,0,68,68,61,1,,,,,,,,,,,,,,,,,,,,,,,,,,,,,,,,,,
,,,,,,,,,,,,,,用户62264,001,2024-08-23_14h04.49.374,IAT(Formal),2021.2.3,Win32,29.76190476,,,,,,,,,,,,,,,e,1,0.4941,,,,,,正直,e,,,0,69,69,16,1,,,,,,,,,,,,,,,,,,,,,,,,,,,,,,,,,,
,,,,,,,,,,,,,,用户62264,001,2024-08-23_14h04.49.374,IAT(Formal),2021.2.3,Win32,29.76190476,,,,,,,,,,,,,,,e,0,0.387,,,,,,他人,i,,,0,70,70,68,1,,,,,,,,,,,,,,,,,,,,,,,,,,,,,,,,,,
,,,,,,,,,,,,,,用户62264,001,2024-08-23_14h04.49.374,IAT(Formal),2021.2.3,Win32,29.76190476,,,,,,,,,,,,,,,e,1,0.4223,,,,,,诚实,e,,,0,71,71,15,1,,,,,,,,,,,,,,,,,,,,,,,,,,,,,,,,,,
,,,,,,,,,,,,,,用户62264,001,2024-08-23_14h04.49.374,IAT(Formal),2021.2.3,Win32,29.76190476,,,,,,,,,,,,,,,e,1,0.3815,,,,,,我的,e,,,0,72,72,71,1,,,,,,,,,,,,,,,,,,,,,,,,,,,,,,,,,,
,,,,,,,,,,,,,,用户62264,001,2024-08-23_14h04.49.374,IAT(Formal),2021.2.3,Win32,29.76190476,,,,,,,,,,,,,,,i,1,0.499,,,,,,他人,i,,,0,73,73,8,1,,,,,,,,,,,,,,,,,,,,,,,,,,,,,,,,,,
,,,,,,,,,,,,,,用户62264,001,2024-08-23_14h04.49.374,IAT(Formal),2021.2.3,Win32,29.76190476,,,,,,,,,,,,,,,e,0,0.4236,,,,,,自卑,i,,,0,74,74,36,1,,,,,,,,,,,,,,,,,,,,,,,,,,,,,,,,,,
,,,,,,,,,,,,,,用户62264,001,2024-08-23_14h04.49.374,IAT(Formal),2021.2.3,Win32,29.76190476,,,,,,,,,,,,,,,e,1,0.7767,,,,,,聪明,e,,,0,75,75,12,1,,,,,,,,,,,,,,,,,,,,,,,,,,,,,,,,,,
,,,,,,,,,,,,,,用户62264,001,2024-08-23_14h04.49.374,IAT(Formal),2021.2.3,Win32,29.76190476,,,,,,,,,,,,,,,i,0,0.414,,,,,,无私,e,,,0,76,76,22,1,,,,,,,,,,,,,,,,,,,,,,,,,,,,,,,,,,
,,,,,,,,,,,,,,用户62264,001,2024-08-23_14h04.49.374,IAT(Formal),2021.2.3,Win32,29.76190476,,,,,,,,,,,,,,,i,1,0.4599,,,,,,他的,i,,,0,77,77,7,1,,,,,,,,,,,,,,,,,,,,,,,,,,,,,,,,,,
,,,,,,,,,,,,,,用户62264,001,2024-08-23_14h04.49.374,IAT(Formal),2021.2.3,Win32,29.76190476,,,,,,,,,,,,,,,i,1,0.4013,,,,,,凶狠,i,,,0,78,78,42,1,,,,,,,,,,,,,,,,,,,,,,,,,,,,,,,,,,
,,,,,,,,,,,,,,用户62264,001,2024-08-23_14h04.49.374,IAT(Formal),2021.2.3,Win32,29.76190476,,,,,,,,,,,,,,,e,1,0.5157,,,,,,细腻,e,,,0,79,79,25,1,,,,,,,,,,,,,,,,,,,,,,,,,,,,,,,,,,
,,,,,,,,,,,,,,用户62264,001,2024-08-23_14h04.49.374,IAT(Formal),2021.2.3,Win32,29.76190476,,,,,,,,,,,,,,,i,1,0.491,,,,,,冒失,i,,,1,0,80,39,1,,,,,,,,,,,,,,,,,,,,,,,,,,,,,,,,,,
,,,,,,,,,,,,,,用户62264,001,2024-08-23_14h04.49.374,IAT(Formal),2021.2.3,Win32,29.76190476,,,,,,,,,,,,,,,i,1,0.3826,,,,,,他的,i,,,1,1,81,67,1,,,,,,,,,,,,,,,,,,,,,,,,,,,,,,,,,,
,,,,,,,,,,,,,,用户62264,001,2024-08-23_14h04.49.374,IAT(Formal),2021.2.3,Win32,29.76190476,,,,,,,,,,,,,,,e,1,0.7842,,,,,,诚恳,e,,,1,2,82,29,1,,,,,,,,,,,,,,,,,,,,,,,,,,,,,,,,,,
,,,,,,,,,,,,,,用户62264,001,2024-08-23_14h04.49.374,IAT(Formal),2021.2.3,Win32,29.76190476,,,,,,,,,,,,,,,e,1,0.4717,,,,,,我,e,,,1,3,83,70,1,,,,,,,,,,,,,,,,,,,,,,,,,,,,,,,,,,
,,,,,,,,,,,,,,用户62264,001,2024-08-23_14h04.49.374,IAT(Formal),2021.2.3,Win32,29.76190476,,,,,,,,,,,,,,,i,1,0.5167,,,,,,他人,i,,,1,4,84,68,1,,,,,,,,,,,,,,,,,,,,,,,,,,,,,,,,,,
,,,,,,,,,,,,,,用户62264,001,2024-08-23_14h04.49.374,IAT(Formal),2021.2.3,Win32,29.76190476,,,,,,,,,,,,,,,e,1,0.5012,,,,,,稳重,e,,,1,5,85,21,1,,,,,,,,,,,,,,,,,,,,,,,,,,,,,,,,,,
,,,,,,,,,,,,,,用户62264,001,2024-08-23_14h04.49.374,IAT(Formal),2021.2.3,Win32,29.76190476,,,,,,,,,,,,,,,e,1,0.3992,,,,,,我的,e,,,1,6,86,61,1,,,,,,,,,,,,,,,,,,,,,,,,,,,,,,,,,,
,,,,,,,,,,,,,,用户62264,001,2024-08-23_14h04.49.374,IAT(Formal),2021.2.3,Win32,29.76190476,,,,,,,,,,,,,,,i,1,0.426,,,,,,刻薄,i,,,1,7,87,33,1,,,,,,,,,,,,,,,,,,,,,,,,,,,,,,,,,,
,,,,,,,,,,,,,,用户62264,001,2024-08-23_14h04.49.374,IAT(Formal),2021.2.3,Win32,29.76190476,,,,,,,,,,,,,,,e,1,0.4376,,,,,,朴实,e,,,1,8,88,24,1,,,,,,,,,,,,,,,,,,,,,,,,,,,,,,,,,,
,,,,,,,,,,,,,,用户62264,001,2024-08-23_14h04.49.374,IAT(Formal),2021.2.3,Win32,29.76190476,,,,,,,,,,,,,,,i,1,0.4606,,,,,,愚蠢,i,,,1,9,89,32,1,,,,,,,,,,,,,,,,,,,,,,,,,,,,,,,,,,
,,,,,,,,,,,,,,用户62264,001,2024-08-23_14h04.49.374,IAT(Formal),2021.2.3,Win32,29.76190476,,,,,,,,,,,,,,,i,1,0.4268,,,,,,轻率,i,,,1,10,90,48,1,,,,,,,,,,,,,,,,,,,,,,,,,,,,,,,,,,
,,,,,,,,,,,,,,用户62264,001,2024-08-23_14h04.49.374,IAT(Formal),2021.2.3,Win32,29.76190476,,,,,,,,,,,,,,,e,1,0.4987,,,,,,勤奋,e,,,1,11,91,18,1,,,,,,,,,,,,,,,,,,,,,,,,,,,,,,,,,,
,,,,,,,,,,,,,,用户62264,001,2024-08-23_14h04.49.374,IAT(Formal),2021.2.3,Win32,29.76190476,,,,,,,,,,,,,,,i,1,0.382,,,,,,他们,i,,,1,12,92,6,1,,,,,,,,,,,,,,,,,,,,,,,,,,,,,,,,,,
,,,,,,,,,,,,,,用户62264,001,2024-08-23_14h04.49.374,IAT(Formal),2021.2.3,Win32,29.76190476,,,,,,,,,,,,,,,i,1,0.6187,,,,,,虚伪,i,,,1,13,93,31,1,,,,,,,,,,,,,,,,,,,,,,,,,,,,,,,,,,
,,,,,,,,,,,,,,用户62264,001,2024-08-23_14h04.49.374,IAT(Formal),2021.2.3,Win32,29.76190476,,,,,,,,,,,,,,,i,1,0.4831,,,,,,他,i,,,1,14,94,65,1,,,,,,,,,,,,,,,,,,,,,,,,,,,,,,,,,,
,,,,,,,,,,,,,,用户62264,001,2024-08-23_14h04.49.374,IAT(Formal),2021.2.3,Win32,29.76190476,,,,,,,,,,,,,,,i,0,0.3848,,,,,,我,e,,,1,15,95,50,1,,,,,,,,,,,,,,,,,,,,,,,,,,,,,,,,,,
,,,,,,,,,,,,,,用户62264,001,2024-08-23_14h04.49.374,IAT(Formal),2021.2.3,Win32,29.76190476,,,,,,,,,,,,,,,e,1,0.5022,,,,,,我的,e,,,1,16,96,51,1,,,,,,,,,,,,,,,,,,,,,,,,,,,,,,,,,,
,,,,,,,,,,,,,,用户62264,001,2024-08-23_14h04.49.374,IAT(Formal),2021.2.3,Win32,29.76190476,,,,,,,,,,,,,,,i,1,0.5287,,,,,,他人,i,,,1,17,97,58,1,,,,,,,,,,,,,,,,,,,,,,,,,,,,,,,,,,
,,,,,,,,,,,,,,用户62264,001,2024-08-23_14h04.49.374,IAT(Formal),2021.2.3,Win32,29.76190476,,,,,,,,,,,,,,,i,1,0.4156,,,,,,他们,i,,,1,18,98,56,1,,,,,,,,,,,,,,,,,,,,,,,,,,,,,,,,,,
,,,,,,,,,,,,,,用户62264,001,2024-08-23_14h04.49.374,IAT(Formal),2021.2.3,Win32,29.76190476,,,,,,,,,,,,,,,i,1,0.7688,,,,,,其他,i,,,1,19,99,59,1,,,,,,,,,,,,,,,,,,,,,,,,,,,,,,,,,,
,,,,,,,,,,,,,,用户62264,001,2024-08-23_14h04.49.374,IAT(Formal),2021.2.3,Win32,29.76190476,,,,,,,,,,,,,,,e,1,0.4849,,,,,,自己,e,,,1,20,100,53,1,,,,,,,,,,,,,,,,,,,,,,,,,,,,,,,,,,
,,,,,,,,,,,,,,用户62264,001,2024-08-23_14h04.49.374,IAT(Formal),2021.2.3,Win32,29.76190476,,,,,,,,,,,,,,,i,1,0.39,,,,,,他,i,,,1,21,101,75,1,,,,,,,,,,,,,,,,,,,,,,,,,,,,,,,,,,
,,,,,,,,,,,,,,用户62264,001,2024-08-23_14h04.49.374,IAT(Formal),2021.2.3,Win32,29.76190476,,,,,,,,,,,,,,,i,1,0.378,,,,,,他,i,,,1,22,102,5,1,,,,,,,,,,,,,,,,,,,,,,,,,,,,,,,,,,
,,,,,,,,,,,,,,用户62264,001,2024-08-23_14h04.49.374,IAT(Formal),2021.2.3,Win32,29.76190476,,,,,,,,,,,,,,,e,1,0.4285,,,,,,自己,e,,,1,23,103,63,1,,,,,,,,,,,,,,,,,,,,,,,,,,,,,,,,,,
,,,,,,,,,,,,,,用户62264,001,2024-08-23_14h04.49.374,IAT(Formal),2021.2.3,Win32,29.76190476,,,,,,,,,,,,,,,i,1,0.4183,,,,,,他们,i,,,1,24,104,66,1,,,,,,,,,,,,,,,,,,,,,,,,,,,,,,,,,,
,,,,,,,,,,,,,,用户62264,001,2024-08-23_14h04.49.374,IAT(Formal),2021.2.3,Win32,29.76190476,,,,,,,,,,,,,,,i,0,0.3992,,,,,,俺,e,,,1,25,105,54,1,,,,,,,,,,,,,,,,,,,,,,,,,,,,,,,,,,
,,,,,,,,,,,,,,用户62264,001,2024-08-23_14h04.49.374,IAT(Formal),2021.2.3,Win32,29.76190476,,,,,,,,,,,,,,,i,1,0.4871,,,,,,其他,i,,,1,26,106,69,1,,,,,,,,,,,,,,,,,,,,,,,,,,,,,,,,,,
,,,,,,,,,,,,,,用户62264,001,2024-08-23_14h04.49.374,IAT(Formal),2021.2.3,Win32,29.76190476,,,,,,,,,,,,,,,e,1,0.4686,,,,,,自己,e,,,1,27,107,73,1,,,,,,,,,,,,,,,,,,,,,,,,,,,,,,,,,,
,,,,,,,,,,,,,,用户62264,001,2024-08-23_14h04.49.374,IAT(Formal),2021.2.3,Win32,29.76190476,,,,,,,,,,,,,,,e,1,0.4566,,,,,,热情,e,,,1,28,108,27,1,,,,,,,,,,,,,,,,,,,,,,,,,,,,,,,,,,
,,,,,,,,,,,,,,用户62264,001,2024-08-23_14h04.49.374,IAT(Formal),2021.2.3,Win32,29.76190476,,,,,,,,,,,,,,,i,1,0.4393,,,,,,他,i,,,1,29,109,55,1,,,,,,,,,,,,,,,,,,,,,,,,,,,,,,,,,,
,,,,,,,,,,,,,,用户62264,001,2024-08-23_14h04.49.374,IAT(Formal),2021.2.3,Win32,29.76190476,,,,,,,,,,,,,,,e,1,0.4669,,,,,,俺,e,,,1,30,110,64,1,,,,,,,,,,,,,,,,,,,,,,,,,,,,,,,,,,
,,,,,,,,,,,,,,用户62264,001,2024-08-23_14h04.49.374,IAT(Formal),2021.2.3,Win32,29.76190476,,,,,,,,,,,,,,,i,1,0.3993,,,,,,固执,i,,,1,31,111,47,1,,,,,,,,,,,,,,,,,,,,,,,,,,,,,,,,,,
,,,,,,,,,,,,,,用户62264,001,2024-08-23_14h04.49.374,IAT(Formal),2021.2.3,Win32,29.76190476,,,,,,,,,,,,,,,i,0,0.4312,,,,,,我们,e,,,1,32,112,72,1,,,,,,,,,,,,,,,,,,,,,,,,,,,,,,,,,,
,,,,,,,,,,,,,,用户62264,001,2024-08-23_14h04.49.374,IAT(Formal),2021.2.3,Win32,29.76190476,,,,,,,,,,,,,,,i,1,0.452,,,,,,其他,i,,,1,33,113,79,1,,,,,,,,,,,,,,,,,,,,,,,,,,,,,,,,,,
,,,,,,,,,,,,,,用户62264,001,2024-08-23_14h04.49.374,IAT(Formal),2021.2.3,Win32,29.76190476,,,,,,,,,,,,,,,e,1,0.6165,,,,,,无私,e,,,1,34,114,22,1,,,,,,,,,,,,,,,,,,,,,,,,,,,,,,,,,,
,,,,,,,,,,,,,,用户62264,001,2024-08-23_14h04.49.374,IAT(Formal),2021.2.3,Win32,29.76190476,,,,,,,,,,,,,,,e,1,0.3927,,,,,,我,e,,,1,35,115,0,1,,,,,,,,,,,,,,,,,,,,,,,,,,,,,,,,,,
,,,,,,,,,,,,,,用户62264,001,2024-08-23_14h04.49.374,IAT(Formal),2021.2.3,Win32,29.76190476,,,,,,,,,,,,,,,e,1,0.4718,,,,,,俺,e,,,1,36,116,74,1,,,,,,,,,,,,,,,,,,,,,,,,,,,,,,,,,,
,,,,,,,,,,,,,,用户62264,001,2024-08-23_14h04.49.374,IAT(Formal),2021.2.3,Win32,29.76190476,,,,,,,,,,,,,,,i,1,0.6965,,,,,,其他,i,,,1,37,117,9,1,,,,,,,,,,,,,,,,,,,,,,,,,,,,,,,,,,
,,,,,,,,,,,,,,用户62264,001,2024-08-23_14h04.49.374,IAT(Formal),2021.2.3,Win32,29.76190476,,,,,,,,,,,,,,,i,1,0.4502,,,,,,他们,i,,,1,38,118,76,1,,,,,,,,,,,,,,,,,,,,,,,,,,,,,,,,,,
,,,,,,,,,,,,,,用户62264,001,2024-08-23_14h04.49.374,IAT(Formal),2021.2.3,Win32,29.76190476,,,,,,,,,,,,,,,e,1,0.502,,,,,,崇高,e,,,1,39,119,11,1,,,,,,,,,,,,,,,,,,,,,,,,,,,,,,,,,,
,,,,,,,,,,,,,,用户62264,001,2024-08-23_14h04.49.374,IAT(Formal),2021.2.3,Win32,29.76190476,,,,,,,,,,,,,,,i,1,0.4693,,,,,,鲁莽,i,,,1,40,120,38,1,,,,,,,,,,,,,,,,,,,,,,,,,,,,,,,,,,
,,,,,,,,,,,,,,用户62264,001,2024-08-23_14h04.49.374,IAT(Formal),2021.2.3,Win32,29.76190476,,,,,,,,,,,,,,,e,1,0.4057,,,,,,诚实,e,,,1,41,121,15,1,,,,,,,,,,,,,,,,,,,,,,,,,,,,,,,,,,
,,,,,,,,,,,,,,用户62264,001,2024-08-23_14h04.49.374,IAT(Formal),2021.2.3,Win32,29.76190476,,,,,,,,,,,,,,,e,1,0.4209,,,,,,聪明,e,,,1,42,122,12,1,,,,,,,,,,,,,,,,,,,,,,,,,,,,,,,,,,
,,,,,,,,,,,,,,用户62264,001,2024-08-23_14h04.49.374,IAT(Formal),2021.2.3,Win32,29.76190476,,,,,,,,,,,,,,,i,1,0.503,,,,,,自卑,i,,,1,43,123,36,1,,,,,,,,,,,,,,,,,,,,,,,,,,,,,,,,,,
,,,,,,,,,,,,,,用户62264,001,2024-08-23_14h04.49.374,IAT(Formal),2021.2.3,Win32,29.76190476,,,,,,,,,,,,,,,e,1,0.3856,,,,,,认真,e,,,1,44,124,20,1,,,,,,,,,,,,,,,,,,,,,,,,,,,,,,,,,,
,,,,,,,,,,,,,,用户62264,001,2024-08-23_14h04.49.374,IAT(Formal),2021.2.3,Win32,29.76190476,,,,,,,,,,,,,,,e,1,0.5697,,,,,,俺,e,,,1,45,125,4,1,,,,,,,,,,,,,,,,,,,,,,,,,,,,,,,,,,
,,,,,,,,,,,,,,用户62264,001,2024-08-23_14h04.49.374,IAT(Formal),2021.2.3,Win32,29.76190476,,,,,,,,,,,,,,,e,0,0.5496,,,,,,自私,i,,,1,46,126,43,1,,,,,,,,,,,,,,,,,,,,,,,,,,,,,,,,,,
,,,,,,,,,,,,,,用户62264,001,2024-08-23_14h04.49.374,IAT(Formal),2021.2.3,Win32,29.76190476,,,,,,,,,,,,,,,e,1,0.5006,,,,,,我的,e,,,1,47,127,71,1,,,,,,,,,,,,,,,,,,,,,,,,,,,,,,,,,,
,,,,,,,,,,,,,,用户62264,001,2024-08-23_14h04.49.374,IAT(Formal),2021.2.3,Win32,29.76190476,,,,,,,,,,,,,,,i,1,0.464,,,,,,下贱,i,,,1,48,128,49,1,,,,,,,,,,,,,,,,,,,,,,,,,,,,,,,,,,
,,,,,,,,,,,,,,用户62264,001,2024-08-23_14h04.49.374,IAT(Formal),2021.2.3,Win32,29.76190476,,,,,,,,,,,,,,,i,1,0.4815,,,,,,他人,i,,,1,49,129,78,1,,,,,,,,,,,,,,,,,,,,,,,,,,,,,,,,,,
,,,,,,,,,,,,,,用户62264,001,2024-08-23_14h04.49.374,IAT(Formal),2021.2.3,Win32,29.76190476,,,,,,,,,,,,,,,e,1,0.7171,,,,,,活泼,e,,,1,50,130,28,1,,,,,,,,,,,,,,,,,,,,,,,,,,,,,,,,,,
,,,,,,,,,,,,,,用户62264,001,2024-08-23_14h04.49.374,IAT(Formal),2021.2.3,Win32,29.76190476,,,,,,,,,,,,,,,i,1,0.4865,,,,,,暴躁,i,,,1,51,131,44,1,,,,,,,,,,,,,,,,,,,,,,,,,,,,,,,,,,
,,,,,,,,,,,,,,用户62264,001,2024-08-23_14h04.49.374,IAT(Formal),2021.2.3,Win32,29.76190476,,,,,,,,,,,,,,,i,1,0.4114,,,,,,散漫,i,,,1,52,132,41,1,,,,,,,,,,,,,,,,,,,,,,,,,,,,,,,,,,
,,,,,,,,,,,,,,用户62264,001,2024-08-23_14h04.49.374,IAT(Formal),2021.2.3,Win32,29.76190476,,,,,,,,,,,,,,,e,1,0.4276,,,,,,自己,e,,,1,53,133,3,1,,,,,,,,,,,,,,,,,,,,,,,,,,,,,,,,,,
,,,,,,,,,,,,,,用户62264,001,2024-08-23_14h04.49.374,IAT(Formal),2021.2.3,Win32,29.76190476,,,,,,,,,,,,,,,e,1,0.5366,,,,,,杰出,e,,,1,54,134,13,1,,,,,,,,,,,,,,,,,,,,,,,,,,,,,,,,,,
,,,,,,,,,,,,,,用户62264,001,2024-08-23_14h04.49.374,IAT(Formal),2021.2.3,Win32,29.76190476,,,,,,,,,,,,,,,i,1,0.4594,,,,,,卑鄙,i,,,1,55,135,30,1,,,,,,,,,,,,,,,,,,,,,,,,,,,,,,,,,,
,,,,,,,,,,,,,,用户62264,001,2024-08-23_14h04.49.374,IAT(Formal),2021.2.3,Win32,29.76190476,,,,,,,,,,,,,,,i,1,0.4764,,,,,,他的,i,,,1,56,136,77,1,,,,,,,,,,,,,,,,,,,,,,,,,,,,,,,,,,
,,,,,,,,,,,,,,用户62264,001,2024-08-23_14h04.49.374,IAT(Formal),2021.2.3,Win32,29.76190476,,,,,,,,,,,,,,,i,1,0.4094,,,,,,猖狂,i,,,1,57,137,45,1,,,,,,,,,,,,,,,,,,,,,,,,,,,,,,,,,,
,,,,,,,,,,,,,,用户62264,001,2024-08-23_14h04.49.374,IAT(Formal),2021.2.3,Win32,29.76190476,,,,,,,,,,,,,,,i,1,0.3942,,,,,,他的,i,,,1,58,138,57,1,,,,,,,,,,,,,,,,,,,,,,,,,,,,,,,,,,
,,,,,,,,,,,,,,用户62264,001,2024-08-23_14h04.49.374,IAT(Formal),2021.2.3,Win32,29.76190476,,,,,,,,,,,,,,,e,1,0.4784,,,,,,我的,e,,,1,59,139,1,1,,,,,,,,,,,,,,,,,,,,,,,,,,,,,,,,,,
,,,,,,,,,,,,,,用户62264,001,2024-08-23_14h04.49.374,IAT(Formal),2021.2.3,Win32,29.76190476,,,,,,,,,,,,,,,i,1,0.4937,,,,,,凶狠,i,,,1,60,140,42,1,,,,,,,,,,,,,,,,,,,,,,,,,,,,,,,,,,
,,,,,,,,,,,,,,用户62264,001,2024-08-23_14h04.49.374,IAT(Formal),2021.2.3,Win32,29.76190476,,,,,,,,,,,,,,,i,1,0.4321,,,,,,执拗,i,,,1,61,141,40,1,,,,,,,,,,,,,,,,,,,,,,,,,,,,,,,,,,
,,,,,,,,,,,,,,用户62264,001,2024-08-23_14h04.49.374,IAT(Formal),2021.2.3,Win32,29.76190476,,,,,,,,,,,,,,,i,1,0.4158,,,,,,野蛮,i,,,1,62,142,46,1,,,,,,,,,,,,,,,,,,,,,,,,,,,,,,,,,,
,,,,,,,,,,,,,,用户62264,001,2024-08-23_14h04.49.374,IAT(Formal),2021.2.3,Win32,29.76190476,,,,,,,,,,,,,,,e,1,0.4106,,,,,,我,e,,,1,63,143,60,1,,,,,,,,,,,,,,,,,,,,,,,,,,,,,,,,,,
,,,,,,,,,,,,,,用户62264,001,2024-08-23_14h04.49.374,IAT(Formal),2021.2.3,Win32,29.76190476,,,,,,,,,,,,,,,e,1,0.4531,,,,,,勇敢,e,,,1,64,144,17,1,,,,,,,,,,,,,,,,,,,,,,,,,,,,,,,,,,
,,,,,,,,,,,,,,用户62264,001,2024-08-23_14h04.49.374,IAT(Formal),2021.2.3,Win32,29.76190476,,,,,,,,,,,,,,,i,1,0.4864,,,,,,他人,i,,,1,65,145,8,1,,,,,,,,,,,,,,,,,,,,,,,,,,,,,,,,,,
,,,,,,,,,,,,,,用户62264,001,2024-08-23_14h04.49.374,IAT(Formal),2021.2.3,Win32,29.76190476,,,,,,,,,,,,,,,i,1,0.5848,,,,,,他的,i,,,1,66,146,7,1,,,,,,,,,,,,,,,,,,,,,,,,,,,,,,,,,,
,,,,,,,,,,,,,,用户62264,001,2024-08-23_14h04.49.374,IAT(Formal),2021.2.3,Win32,29.76190476,,,,,,,,,,,,,,,e,1,0.4836,,,,,,公正,e,,,1,67,147,23,1,,,,,,,,,,,,,,,,,,,,,,,,,,,,,,,,,,
,,,,,,,,,,,,,,用户62264,001,2024-08-23_14h04.49.374,IAT(Formal),2021.2.3,Win32,29.76190476,,,,,,,,,,,,,,,e,1,0.5229,,,,,,机智,e,,,1,68,148,19,1,,,,,,,,,,,,,,,,,,,,,,,,,,,,,,,,,,
,,,,,,,,,,,,,,用户62264,001,2024-08-23_14h04.49.374,IAT(Formal),2021.2.3,Win32,29.76190476,,,,,,,,,,,,,,,e,1,0.4488,,,,,,细腻,e,,,1,69,149,25,1,,,,,,,,,,,,,,,,,,,,,,,,,,,,,,,,,,
,,,,,,,,,,,,,,用户62264,001,2024-08-23_14h04.49.374,IAT(Formal),2021.2.3,Win32,29.76190476,,,,,,,,,,,,,,,i,1,0.5861,,,,,,悲观,i,,,1,70,150,34,1,,,,,,,,,,,,,,,,,,,,,,,,,,,,,,,,,,
,,,,,,,,,,,,,,用户62264,001,2024-08-23_14h04.49.374,IAT(Formal),2021.2.3,Win32,29.76190476,,,,,,,,,,,,,,,e,1,0.6151,,,,,,优秀,e,,,1,71,151,10,1,,,,,,,,,,,,,,,,,,,,,,,,,,,,,,,,,,
,,,,,,,,,,,,,,用户62264,001,2024-08-23_14h04.49.374,IAT(Formal),2021.2.3,Win32,29.76190476,,,,,,,,,,,,,,,e,1,0.5502,,,,,,我们,e,,,1,72,152,62,1,,,,,,,,,,,,,,,,,,,,,,,,,,,,,,,,,,
,,,,,,,,,,,,,,用户62264,001,2024-08-23_14h04.49.374,IAT(Formal),2021.2.3,Win32,29.76190476,,,,,,,,,,,,,,,e,1,0.498,,,,,,正直,e,,,1,73,153,16,1,,,,,,,,,,,,,,,,,,,,,,,,,,,,,,,,,,
,,,,,,,,,,,,,,用户62264,001,2024-08-23_14h04.49.374,IAT(Formal),2021.2.3,Win32,29.76190476,,,,,,,,,,,,,,,e,1,0.4564,,,,,,我们,e,,,1,74,154,2,1,,,,,,,,,,,,,,,,,,,,,,,,,,,,,,,,,,
,,,,,,,,,,,,,,用户62264,001,2024-08-23_14h04.49.374,IAT(Formal),2021.2.3,Win32,29.76190476,,,,,,,,,,,,,,,i,1,0.4189,,,,,,傲慢,i,,,1,75,155,37,1,,,,,,,,,,,,,,,,,,,,,,,,,,,,,,,,,,
,,,,,,,,,,,,,,用户62264,001,2024-08-23_14h04.49.374,IAT(Formal),2021.2.3,Win32,29.76190476,,,,,,,,,,,,,,,i,1,0.3976,,,,,,消极,i,,,1,76,156,35,1,,,,,,,,,,,,,,,,,,,,,,,,,,,,,,,,,,
,,,,,,,,,,,,,,用户62264,001,2024-08-23_14h04.49.374,IAT(Formal),2021.2.3,Win32,29.76190476,,,,,,,,,,,,,,,i,0,0.3673,,,,,,我们,e,,,1,77,157,52,1,,,,,,,,,,,,,,,,,,,,,,,,,,,,,,,,,,
,,,,,,,,,,,,,,用户62264,001,2024-08-23_14h04.49.374,IAT(Formal),2021.2.3,Win32,29.76190476,,,,,,,,,,,,,,,e,1,0.5498,,,,,,冷静,e,,,1,78,158,26,1,,,,,,,,,,,,,,,,,,,,,,,,,,,,,,,,,,
,,,,,,,,,,,,,,用户62264,001,2024-08-23_14h04.49.374,IAT(Formal),2021.2.3,Win32,29.76190476,,,,,,,,,,,,,,,e,1,0.4486,,,,,,乐观,e,,,1,79,159,14,1,,,,,,,,,,,,,,,,,,,,,,,,,,,,,,,,,,
,,,,,,,,,,,,其他,e,用户62264,001,2024-08-23_14h04.49.374,IAT(Formal),2021.2.3,Win32,29.76190476,,,,,,,,,,,,,,,,,,,,,,,,,,,,,,,,space,11.97,e,1,0.6316,0,0,0,9,1,,,,,,,,,,,,,,,,,,,,,,,,
,,,,,,,,,,,,他的,e,用户62264,001,2024-08-23_14h04.49.374,IAT(Formal),2021.2.3,Win32,29.76190476,,,,,,,,,,,,,,,,,,,,,,,,,,,,,,,,,,e,1,0.3979,0,1,1,7,1,,,,,,,,,,,,,,,,,,,,,,,,
,,,,,,,,,,,,他,e,用户62264,001,2024-08-23_14h04.49.374,IAT(Formal),2021.2.3,Win32,29.76190476,,,,,,,,,,,,,,,,,,,,,,,,,,,,,,,,,,e,1,0.5038,0,2,2,5,1,,,,,,,,,,,,,,,,,,,,,,,,
,,,,,,,,,,,,我们,i,用户62264,001,2024-08-23_14h04.49.374,IAT(Formal),2021.2.3,Win32,29.76190476,,,,,,,,,,,,,,,,,,,,,,,,,,,,,,,,,,i,1,0.3871,0,3,3,2,1,,,,,,,,,,,,,,,,,,,,,,,,
,,,,,,,,,,,,俺,i,用户62264,001,2024-08-23_14h04.49.374,IAT(Formal),2021.2.3,Win32,29.76190476,,,,,,,,,,,,,,,,,,,,,,,,,,,,,,,,,,i,1,0.483,0,4,4,4,1,,,,,,,,,,,,,,,,,,,,,,,,
,,,,,,,,,,,,我,i,用户62264,001,2024-08-23_14h04.49.374,IAT(Formal),2021.2.3,Win32,29.76190476,,,,,,,,,,,,,,,,,,,,,,,,,,,,,,,,,,i,1,0.3471,0,5,5,0,1,,,,,,,,,,,,,,,,,,,,,,,,
,,,,,,,,,,,,他人,e,用户62264,001,2024-08-23_14h04.49.374,IAT(Formal),2021.2.3,Win32,29.76190476,,,,,,,,,,,,,,,,,,,,,,,,,,,,,,,,,,e,1,0.4379,0,6,6,8,1,,,,,,,,,,,,,,,,,,,,,,,,
,,,,,,,,,,,,他们,e,用户62264,001,2024-08-23_14h04.49.374,IAT(Formal),2021.2.3,Win32,29.76190476,,,,,,,,,,,,,,,,,,,,,,,,,,,,,,,,,,e,1,0.4575,0,7,7,6,1,,,,,,,,,,,,,,,,,,,,,,,,
,,,,,,,,,,,,我的,i,用户62264,001,2024-08-23_14h04.49.374,IAT(Formal),2021.2.3,Win32,29.76190476,,,,,,,,,,,,,,,,,,,,,,,,,,,,,,,,,,i,1,0.4905,0,8,8,1,1,,,,,,,,,,,,,,,,,,,,,,,,
,,,,,,,,,,,,自己,i,用户62264,001,2024-08-23_14h04.49.374,IAT(Formal),2021.2.3,Win32,29.76190476,,,,,,,,,,,,,,,,,,,,,,,,,,,,,,,,,,e,0,0.4874,0,9,9,3,1,,,,,,,,,,,,,,,,,,,,,,,,
,,,,,,,,,,,,,,用户62264,001,2024-08-23_14h04.49.374,IAT(Formal),2021.2.3,Win32,29.76190476,,,,,,,,,,,,,,,,,,,,,,,,,,,,,,,,,,,,,,,,,,space,13.3049,e,0,0.6312,0,0,0,45,1,猖狂,i,,,,,,,,,,,,
,,,,,,,,,,,,,,用户62264,001,2024-08-23_14h04.49.374,IAT(Formal),2021.2.3,Win32,29.76190476,,,,,,,,,,,,,,,,,,,,,,,,,,,,,,,,,,,,,,,,,,,,e,1,0.7116,0,1,1,5,1,他,e,,,,,,,,,,,,
,,,,,,,,,,,,,,用户62264,001,2024-08-23_14h04.49.374,IAT(Formal),2021.2.3,Win32,29.76190476,,,,,,,,,,,,,,,,,,,,,,,,,,,,,,,,,,,,,,,,,,,,e,1,0.6759,0,2,2,59,1,其他,e,,,,,,,,,,,,
,,,,,,,,,,,,,,用户62264,001,2024-08-23_14h04.49.374,IAT(Formal),2021.2.3,Win32,29.76190476,,,,,,,,,,,,,,,,,,,,,,,,,,,,,,,,,,,,,,,,,,,,e,1,0.9939,0,3,3,12,1,聪明,e,,,,,,,,,,,,
,,,,,,,,,,,,,,用户62264,001,2024-08-23_14h04.49.374,IAT(Formal),2021.2.3,Win32,29.76190476,,,,,,,,,,,,,,,,,,,,,,,,,,,,,,,,,,,,,,,,,,,,i,1,1.2377,0,4,4,40,1,执拗,i,,,,,,,,,,,,
,,,,,,,,,,,,,,用户62264,001,2024-08-23_14h04.49.374,IAT(Formal),2021.2.3,Win32,29.76190476,,,,,,,,,,,,,,,,,,,,,,,,,,,,,,,,,,,,,,,,,,,,i,1,0.5491,0,5,5,39,1,冒失,i,,,,,,,,,,,,
,,,,,,,,,,,,,,用户62264,001,2024-08-23_14h04.49.374,IAT(Formal),2021.2.3,Win32,29.76190476,,,,,,,,,,,,,,,,,,,,,,,,,,,,,,,,,,,,,,,,,,,,e,1,0.5297,0,6,6,56,1,他们,e,,,,,,,,,,,,
,,,,,,,,,,,,,,用户62264,001,2024-08-23_14h04.49.374,IAT(Formal),2021.2.3,Win32,29.76190476,,,,,,,,,,,,,,,,,,,,,,,,,,,,,,,,,,,,,,,,,,,,i,1,1.1891,0,7,7,41,1,散漫,i,,,,,,,,,,,,
,,,,,,,,,,,,,,用户62264,001,2024-08-23_14h04.49.374,IAT(Formal),2021.2.3,Win32,29.76190476,,,,,,,,,,,,,,,,,,,,,,,,,,,,,,,,,,,,,,,,,,,,e,1,0.5331,0,8,8,19,1,机智,e,,,,,,,,,,,,
,,,,,,,,,,,,,,用户62264,001,2024-08-23_14h04.49.374,IAT(Formal),2021.2.3,Win32,29.76190476,,,,,,,,,,,,,,,,,,,,,,,,,,,,,,,,,,,,,,,,,,,,i,1,1.0309,0,9,9,51,1,我的,i,,,,,,,,,,,,
,,,,,,,,,,,,,,用户62264,001,2024-08-23_14h04.49.374,IAT(Formal),2021.2.3,Win32,29.76190476,,,,,,,,,,,,,,,,,,,,,,,,,,,,,,,,,,,,,,,,,,,,e,1,0.6916,0,10,10,78,1,他人,e,,,,,,,,,,,,
,,,,,,,,,,,,,,用户62264,001,2024-08-23_14h04.49.374,IAT(Formal),2021.2.3,Win32,29.76190476,,,,,,,,,,,,,,,,,,,,,,,,,,,,,,,,,,,,,,,,,,,,e,1,0.4772,0,11,11,67,1,他的,e,,,,,,,,,,,,
,,,,,,,,,,,,,,用户62264,001,2024-08-23_14h04.49.374,IAT(Formal),2021.2.3,Win32,29.76190476,,,,,,,,,,,,,,,,,,,,,,,,,,,,,,,,,,,,,,,,,,,,i,0,1.1889,0,12,12,17,1,勇敢,e,,,,,,,,,,,,
,,,,,,,,,,,,,,用户62264,001,2024-08-23_14h04.49.374,IAT(Formal),2021.2.3,Win32,29.76190476,,,,,,,,,,,,,,,,,,,,,,,,,,,,,,,,,,,,,,,,,,,,i,1,0.3737,0,13,13,70,1,我,i,,,,,,,,,,,,
,,,,,,,,,,,,,,用户62264,001,2024-08-23_14h04.49.374,IAT(Formal),2021.2.3,Win32,29.76190476,,,,,,,,,,,,,,,,,,,,,,,,,,,,,,,,,,,,,,,,,,,,e,1,0.7007,0,14,14,11,1,崇高,e,,,,,,,,,,,,
,,,,,,,,,,,,,,用户62264,001,2024-08-23_14h04.49.374,IAT(Formal),2021.2.3,Win32,29.76190476,,,,,,,,,,,,,,,,,,,,,,,,,,,,,,,,,,,,,,,,,,,,i,1,1.1037,0,15,15,60,1,我,i,,,,,,,,,,,,
,,,,,,,,,,,,,,用户62264,001,2024-08-23_14h04.49.374,IAT(Formal),2021.2.3,Win32,29.76190476,,,,,,,,,,,,,,,,,,,,,,,,,,,,,,,,,,,,,,,,,,,,e,1,1.4425,0,16,16,22,1,无私,e,,,,,,,,,,,,
,,,,,,,,,,,,,,用户62264,001,2024-08-23_14h04.49.374,IAT(Formal),2021.2.3,Win32,29.76190476,,,,,,,,,,,,,,,,,,,,,,,,,,,,,,,,,,,,,,,,,,,,i,1,0.9301,0,17,17,31,1,虚伪,i,,,,,,,,,,,,
,,,,,,,,,,,,,,用户62264,001,2024-08-23_14h04.49.374,IAT(Formal),2021.2.3,Win32,29.76190476,,,,,,,,,,,,,,,,,,,,,,,,,,,,,,,,,,,,,,,,,,,,i,0,0.4691,0,18,18,14,1,乐观,e,,,,,,,,,,,,
,,,,,,,,,,,,,,用户62264,001,2024-08-23_14h04.49.374,IAT(Formal),2021.2.3,Win32,29.76190476,,,,,,,,,,,,,,,,,,,,,,,,,,,,,,,,,,,,,,,,,,,,e,1,0.7079,0,19,19,28,1,活泼,e,,,,,,,,,,,,
,,,,,,,,,,,,,,用户62264,001,2024-08-23_14h04.49.374,IAT(Formal),2021.2.3,Win32,29.76190476,,,,,,,,,,,,,,,,,,,,,,,,,,,,,,,,,,,,,,,,,,,,e,1,0.8682,0,20,20,20,1,认真,e,,,,,,,,,,,,
,,,,,,,,,,,,,,用户62264,001,2024-08-23_14h04.49.374,IAT(Formal),2021.2.3,Win32,29.76190476,,,,,,,,,,,,,,,,,,,,,,,,,,,,,,,,,,,,,,,,,,,,e,1,0.4182,0,21,21,7,1,他的,e,,,,,,,,,,,,
,,,,,,,,,,,,,,用户62264,001,2024-08-23_14h04.49.374,IAT(Formal),2021.2.3,Win32,29.76190476,,,,,,,,,,,,,,,,,,,,,,,,,,,,,,,,,,,,,,,,,,,,i,1,0.372,0,22,22,1,1,我的,i,,,,,,,,,,,,
,,,,,,,,,,,,,,用户62264,001,2024-08-23_14h04.49.374,IAT(Formal),2021.2.3,Win32,29.76190476,,,,,,,,,,,,,,,,,,,,,,,,,,,,,,,,,,,,,,,,,,,,i,1,0.6317,0,23,23,72,1,我们,i,,,,,,,,,,,,
,,,,,,,,,,,,,,用户62264,001,2024-08-23_14h04.49.374,IAT(Formal),2021.2.3,Win32,29.76190476,,,,,,,,,,,,,,,,,,,,,,,,,,,,,,,,,,,,,,,,,,,,i,0,0.377,0,24,24,79,1,其他,e,,,,,,,,,,,,
,,,,,,,,,,,,,,用户62264,001,2024-08-23_14h04.49.374,IAT(Formal),2021.2.3,Win32,29.76190476,,,,,,,,,,,,,,,,,,,,,,,,,,,,,,,,,,,,,,,,,,,,e,1,0.5562,0,25,25,68,1,他人,e,,,,,,,,,,,,
,,,,,,,,,,,,,,用户62264,001,2024-08-23_14h04.49.374,IAT(Formal),2021.2.3,Win32,29.76190476,,,,,,,,,,,,,,,,,,,,,,,,,,,,,,,,,,,,,,,,,,,,i,1,0.4083,0,26,26,3,1,自己,i,,,,,,,,,,,,
,,,,,,,,,,,,,,用户62264,001,2024-08-23_14h04.49.374,IAT(Formal),2021.2.3,Win32,29.76190476,,,,,,,,,,,,,,,,,,,,,,,,,,,,,,,,,,,,,,,,,,,,i,1,0.5157,0,27,27,37,1,傲慢,i,,,,,,,,,,,,
,,,,,,,,,,,,,,用户62264,001,2024-08-23_14h04.49.374,IAT(Formal),2021.2.3,Win32,29.76190476,,,,,,,,,,,,,,,,,,,,,,,,,,,,,,,,,,,,,,,,,,,,i,1,0.4353,0,28,28,50,1,我,i,,,,,,,,,,,,
,,,,,,,,,,,,,,用户62264,001,2024-08-23_14h04.49.374,IAT(Formal),2021.2.3,Win32,29.76190476,,,,,,,,,,,,,,,,,,,,,,,,,,,,,,,,,,,,,,,,,,,,i,1,0.5337,0,29,29,42,1,凶狠,i,,,,,,,,,,,,
,,,,,,,,,,,,,,用户62264,001,2024-08-23_14h04.49.374,IAT(Formal),2021.2.3,Win32,29.76190476,,,,,,,,,,,,,,,,,,,,,,,,,,,,,,,,,,,,,,,,,,,,e,1,0.4913,0,30,30,57,1,他的,e,,,,,,,,,,,,
,,,,,,,,,,,,,,用户62264,001,2024-08-23_14h04.49.374,IAT(Formal),2021.2.3,Win32,29.76190476,,,,,,,,,,,,,,,,,,,,,,,,,,,,,,,,,,,,,,,,,,,,i,1,0.5067,0,31,31,73,1,自己,i,,,,,,,,,,,,
,,,,,,,,,,,,,,用户62264,001,2024-08-23_14h04.49.374,IAT(Formal),2021.2.3,Win32,29.76190476,,,,,,,,,,,,,,,,,,,,,,,,,,,,,,,,,,,,,,,,,,,,e,1,0.6438,0,32,32,58,1,他人,e,,,,,,,,,,,,
,,,,,,,,,,,,,,用户62264,001,2024-08-23_14h04.49.374,IAT(Formal),2021.2.3,Win32,29.76190476,,,,,,,,,,,,,,,,,,,,,,,,,,,,,,,,,,,,,,,,,,,,e,0,0.5895,0,33,33,32,1,愚蠢,i,,,,,,,,,,,,
,,,,,,,,,,,,,,用户62264,001,2024-08-23_14h04.49.374,IAT(Formal),2021.2.3,Win32,29.76190476,,,,,,,,,,,,,,,,,,,,,,,,,,,,,,,,,,,,,,,,,,,,i,1,1.0358,0,34,34,38,1,鲁莽,i,,,,,,,,,,,,
,,,,,,,,,,,,,,用户62264,001,2024-08-23_14h04.49.374,IAT(Formal),2021.2.3,Win32,29.76190476,,,,,,,,,,,,,,,,,,,,,,,,,,,,,,,,,,,,,,,,,,,,i,1,0.6424,0,35,35,48,1,轻率,i,,,,,,,,,,,,
,,,,,,,,,,,,,,用户62264,001,2024-08-23_14h04.49.374,IAT(Formal),2021.2.3,Win32,29.76190476,,,,,,,,,,,,,,,,,,,,,,,,,,,,,,,,,,,,,,,,,,,,i,1,0.3231,0,36,36,2,1,我们,i,,,,,,,,,,,,
,,,,,,,,,,,,,,用户62264,001,2024-08-23_14h04.49.374,IAT(Formal),2021.2.3,Win32,29.76190476,,,,,,,,,,,,,,,,,,,,,,,,,,,,,,,,,,,,,,,,,,,,i,0,0.4382,0,37,37,15,1,诚实,e,,,,,,,,,,,,
,,,,,,,,,,,,,,用户62264,001,2024-08-23_14h04.49.374,IAT(Formal),2021.2.3,Win32,29.76190476,,,,,,,,,,,,,,,,,,,,,,,,,,,,,,,,,,,,,,,,,,,,i,0,0.5017,0,38,38,29,1,诚恳,e,,,,,,,,,,,,
,,,,,,,,,,,,,,用户62264,001,2024-08-23_14h04.49.374,IAT(Formal),2021.2.3,Win32,29.76190476,,,,,,,,,,,,,,,,,,,,,,,,,,,,,,,,,,,,,,,,,,,,e,1,0.6238,0,39,39,24,1,朴实,e,,,,,,,,,,,,
,,,,,,,,,,,,,,用户62264,001,2024-08-23_14h04.49.374,IAT(Formal),2021.2.3,Win32,29.76190476,,,,,,,,,,,,,,,,,,,,,,,,,,,,,,,,,,,,,,,,,,,,e,1,0.7712,0,40,40,77,1,他的,e,,,,,,,,,,,,
,,,,,,,,,,,,,,用户62264,001,2024-08-23_14h04.49.374,IAT(Formal),2021.2.3,Win32,29.76190476,,,,,,,,,,,,,,,,,,,,,,,,,,,,,,,,,,,,,,,,,,,,e,1,0.4568,0,41,41,66,1,他们,e,,,,,,,,,,,,
,,,,,,,,,,,,,,用户62264,001,2024-08-23_14h04.49.374,IAT(Formal),2021.2.3,Win32,29.76190476,,,,,,,,,,,,,,,,,,,,,,,,,,,,,,,,,,,,,,,,,,,,e,1,0.5207,0,42,42,69,1,其他,e,,,,,,,,,,,,
,,,,,,,,,,,,,,用户62264,001,2024-08-23_14h04.49.374,IAT(Formal),2021.2.3,Win32,29.76190476,,,,,,,,,,,,,,,,,,,,,,,,,,,,,,,,,,,,,,,,,,,,i,1,0.4856,0,43,43,53,1,自己,i,,,,,,,,,,,,
,,,,,,,,,,,,,,用户62264,001,2024-08-23_14h04.49.374,IAT(Formal),2021.2.3,Win32,29.76190476,,,,,,,,,,,,,,,,,,,,,,,,,,,,,,,,,,,,,,,,,,,,e,1,0.5406,0,44,44,75,1,他,e,,,,,,,,,,,,
,,,,,,,,,,,,,,用户62264,001,2024-08-23_14h04.49.374,IAT(Formal),2021.2.3,Win32,29.76190476,,,,,,,,,,,,,,,,,,,,,,,,,,,,,,,,,,,,,,,,,,,,i,1,1.154,0,45,45,34,1,悲观,i,,,,,,,,,,,,
,,,,,,,,,,,,,,用户62264,001,2024-08-23_14h04.49.374,IAT(Formal),2021.2.3,Win32,29.76190476,,,,,,,,,,,,,,,,,,,,,,,,,,,,,,,,,,,,,,,,,,,,e,1,0.5529,0,46,46,18,1,勤奋,e,,,,,,,,,,,,
,,,,,,,,,,,,,,用户62264,001,2024-08-23_14h04.49.374,IAT(Formal),2021.2.3,Win32,29.76190476,,,,,,,,,,,,,,,,,,,,,,,,,,,,,,,,,,,,,,,,,,,,e,1,0.4664,0,47,47,10,1,优秀,e,,,,,,,,,,,,
,,,,,,,,,,,,,,用户62264,001,2024-08-23_14h04.49.374,IAT(Formal),2021.2.3,Win32,29.76190476,,,,,,,,,,,,,,,,,,,,,,,,,,,,,,,,,,,,,,,,,,,,e,1,0.4885,0,48,48,76,1,他们,e,,,,,,,,,,,,
,,,,,,,,,,,,,,用户62264,001,2024-08-23_14h04.49.374,IAT(Formal),2021.2.3,Win32,29.76190476,,,,,,,,,,,,,,,,,,,,,,,,,,,,,,,,,,,,,,,,,,,,i,1,0.3828,0,49,49,47,1,固执,i,,,,,,,,,,,,
,,,,,,,,,,,,,,用户62264,001,2024-08-23_14h04.49.374,IAT(Formal),2021.2.3,Win32,29.76190476,,,,,,,,,,,,,,,,,,,,,,,,,,,,,,,,,,,,,,,,,,,,i,1,0.4513,0,50,50,4,1,俺,i,,,,,,,,,,,,
,,,,,,,,,,,,,,用户62264,001,2024-08-23_14h04.49.374,IAT(Formal),2021.2.3,Win32,29.76190476,,,,,,,,,,,,,,,,,,,,,,,,,,,,,,,,,,,,,,,,,,,,i,1,0.4859,0,51,51,33,1,刻薄,i,,,,,,,,,,,,
,,,,,,,,,,,,,,用户62264,001,2024-08-23_14h04.49.374,IAT(Formal),2021.2.3,Win32,29.76190476,,,,,,,,,,,,,,,,,,,,,,,,,,,,,,,,,,,,,,,,,,,,e,1,0.5513,0,52,52,26,1,冷静,e,,,,,,,,,,,,
,,,,,,,,,,,,,,用户62264,001,2024-08-23_14h04.49.374,IAT(Formal),2021.2.3,Win32,29.76190476,,,,,,,,,,,,,,,,,,,,,,,,,,,,,,,,,,,,,,,,,,,,i,1,0.69,0,53,53,46,1,野蛮,i,,,,,,,,,,,,
,,,,,,,,,,,,,,用户62264,001,2024-08-23_14h04.49.374,IAT(Formal),2021.2.3,Win32,29.76190476,,,,,,,,,,,,,,,,,,,,,,,,,,,,,,,,,,,,,,,,,,,,e,1,0.4989,0,54,54,55,1,他,e,,,,,,,,,,,,
,,,,,,,,,,,,,,用户62264,001,2024-08-23_14h04.49.374,IAT(Formal),2021.2.3,Win32,29.76190476,,,,,,,,,,,,,,,,,,,,,,,,,,,,,,,,,,,,,,,,,,,,i,0,0.4533,0,55,55,23,1,公正,e,,,,,,,,,,,,
,,,,,,,,,,,,,,用户62264,001,2024-08-23_14h04.49.374,IAT(Formal),2021.2.3,Win32,29.76190476,,,,,,,,,,,,,,,,,,,,,,,,,,,,,,,,,,,,,,,,,,,,i,1,1.0432,0,56,56,35,1,消极,i,,,,,,,,,,,,
,,,,,,,,,,,,,,用户62264,001,2024-08-23_14h04.49.374,IAT(Formal),2021.2.3,Win32,29.76190476,,,,,,,,,,,,,,,,,,,,,,,,,,,,,,,,,,,,,,,,,,,,i,1,0.6829,0,57,57,49,1,下贱,i,,,,,,,,,,,,
,,,,,,,,,,,,,,用户62264,001,2024-08-23_14h04.49.374,IAT(Formal),2021.2.3,Win32,29.76190476,,,,,,,,,,,,,,,,,,,,,,,,,,,,,,,,,,,,,,,,,,,,i,1,0.4598,0,58,58,30,1,卑鄙,i,,,,,,,,,,,,
,,,,,,,,,,,,,,用户62264,001,2024-08-23_14h04.49.374,IAT(Formal),2021.2.3,Win32,29.76190476,,,,,,,,,,,,,,,,,,,,,,,,,,,,,,,,,,,,,,,,,,,,e,1,0.6543,0,59,59,8,1,他人,e,,,,,,,,,,,,
,,,,,,,,,,,,,,用户62264,001,2024-08-23_14h04.49.374,IAT(Formal),2021.2.3,Win32,29.76190476,,,,,,,,,,,,,,,,,,,,,,,,,,,,,,,,,,,,,,,,,,,,i,1,0.4901,0,60,60,74,1,俺,i,,,,,,,,,,,,
,,,,,,,,,,,,,,用户62264,001,2024-08-23_14h04.49.374,IAT(Formal),2021.2.3,Win32,29.76190476,,,,,,,,,,,,,,,,,,,,,,,,,,,,,,,,,,,,,,,,,,,,i,1,0.481,0,61,61,62,1,我们,i,,,,,,,,,,,,
,,,,,,,,,,,,,,用户62264,001,2024-08-23_14h04.49.374,IAT(Formal),2021.2.3,Win32,29.76190476,,,,,,,,,,,,,,,,,,,,,,,,,,,,,,,,,,,,,,,,,,,,i,0,0.4231,0,62,62,16,1,正直,e,,,,,,,,,,,,
,,,,,,,,,,,,,,用户62264,001,2024-08-23_14h04.49.374,IAT(Formal),2021.2.3,Win32,29.76190476,,,,,,,,,,,,,,,,,,,,,,,,,,,,,,,,,,,,,,,,,,,,i,1,0.802,0,63,63,43,1,自私,i,,,,,,,,,,,,
,,,,,,,,,,,,,,用户62264,001,2024-08-23_14h04.49.374,IAT(Formal),2021.2.3,Win32,29.76190476,,,,,,,,,,,,,,,,,,,,,,,,,,,,,,,,,,,,,,,,,,,,i,1,0.6031,0,64,64,44,1,暴躁,i,,,,,,,,,,,,
,,,,,,,,,,,,,,用户62264,001,2024-08-23_14h04.49.374,IAT(Formal),2021.2.3,Win32,29.76190476,,,,,,,,,,,,,,,,,,,,,,,,,,,,,,,,,,,,,,,,,,,,e,1,0.5023,0,65,65,9,1,其他,e,,,,,,,,,,,,
,,,,,,,,,,,,,,用户62264,001,2024-08-23_14h04.49.374,IAT(Formal),2021.2.3,Win32,29.76190476,,,,,,,,,,,,,,,,,,,,,,,,,,,,,,,,,,,,,,,,,,,,i,1,0.5074,0,66,66,61,1,我的,i,,,,,,,,,,,,
,,,,,,,,,,,,,,用户62264,001,2024-08-23_14h04.49.374,IAT(Formal),2021.2.3,Win32,29.76190476,,,,,,,,,,,,,,,,,,,,,,,,,,,,,,,,,,,,,,,,,,,,i,1,0.4809,0,67,67,54,1,俺,i,,,,,,,,,,,,
,,,,,,,,,,,,,,用户62264,001,2024-08-23_14h04.49.374,IAT(Formal),2021.2.3,Win32,29.76190476,,,,,,,,,,,,,,,,,,,,,,,,,,,,,,,,,,,,,,,,,,,,i,1,0.444,0,68,68,71,1,我的,i,,,,,,,,,,,,
,,,,,,,,,,,,,,用户62264,001,2024-08-23_14h04.49.374,IAT(Formal),2021.2.3,Win32,29.76190476,,,,,,,,,,,,,,,,,,,,,,,,,,,,,,,,,,,,,,,,,,,,e,1,0.4656,0,69,69,65,1,他,e,,,,,,,,,,,,
,,,,,,,,,,,,,,用户62264,001,2024-08-23_14h04.49.374,IAT(Formal),2021.2.3,Win32,29.76190476,,,,,,,,,,,,,,,,,,,,,,,,,,,,,,,,,,,,,,,,,,,,e,1,0.4301,0,70,70,25,1,细腻,e,,,,,,,,,,,,
,,,,,,,,,,,,,,用户62264,001,2024-08-23_14h04.49.374,IAT(Formal),2021.2.3,Win32,29.76190476,,,,,,,,,,,,,,,,,,,,,,,,,,,,,,,,,,,,,,,,,,,,e,1,0.4217,0,71,71,27,1,热情,e,,,,,,,,,,,,
,,,,,,,,,,,,,,用户62264,001,2024-08-23_14h04.49.374,IAT(Formal),2021.2.3,Win32,29.76190476,,,,,,,,,,,,,,,,,,,,,,,,,,,,,,,,,,,,,,,,,,,,i,1,0.5151,0,72,72,36,1,自卑,i,,,,,,,,,,,,
,,,,,,,,,,,,,,用户62264,001,2024-08-23_14h04.49.374,IAT(Formal),2021.2.3,Win32,29.76190476,,,,,,,,,,,,,,,,,,,,,,,,,,,,,,,,,,,,,,,,,,,,i,1,0.4188,0,73,73,64,1,俺,i,,,,,,,,,,,,
,,,,,,,,,,,,,,用户62264,001,2024-08-23_14h04.49.374,IAT(Formal),2021.2.3,Win32,29.76190476,,,,,,,,,,,,,,,,,,,,,,,,,,,,,,,,,,,,,,,,,,,,e,1,0.5757,0,74,74,13,1,杰出,e,,,,,,,,,,,,
,,,,,,,,,,,,,,用户62264,001,2024-08-23_14h04.49.374,IAT(Formal),2021.2.3,Win32,29.76190476,,,,,,,,,,,,,,,,,,,,,,,,,,,,,,,,,,,,,,,,,,,,e,1,0.4799,0,75,75,21,1,稳重,e,,,,,,,,,,,,
,,,,,,,,,,,,,,用户62264,001,2024-08-23_14h04.49.374,IAT(Formal),2021.2.3,Win32,29.76190476,,,,,,,,,,,,,,,,,,,,,,,,,,,,,,,,,,,,,,,,,,,,i,0,0.4956,0,76,76,6,1,他们,e,,,,,,,,,,,,
,,,,,,,,,,,,,,用户62264,001,2024-08-23_14h04.49.374,IAT(Formal),2021.2.3,Win32,29.76190476,,,,,,,,,,,,,,,,,,,,,,,,,,,,,,,,,,,,,,,,,,,,i,1,0.4807,0,77,77,52,1,我们,i,,,,,,,,,,,,
,,,,,,,,,,,,,,用户62264,001,2024-08-23_14h04.49.374,IAT(Formal),2021.2.3,Win32,29.76190476,,,,,,,,,,,,,,,,,,,,,,,,,,,,,,,,,,,,,,,,,,,,i,1,0.3878,0,78,78,63,1,自己,i,,,,,,,,,,,,
,,,,,,,,,,,,,,用户62264,001,2024-08-23_14h04.49.374,IAT(Formal),2021.2.3,Win32,29.76190476,,,,,,,,,,,,,,,,,,,,,,,,,,,,,,,,,,,,,,,,,,,,i,1,0.3947,0,79,79,0,1,我,i,,,,,,,,,,,,
,,,,,,,,,,,,,,用户62264,001,2024-08-23_14h04.49.374,IAT(Formal),2021.2.3,Win32,29.76190476,,,,,,,,,,,,,,,,,,,,,,,,,,,,,,,,,,,,,,,,,,,,,,,,,,,,卑鄙,i,space,4.8128,i,1,0.58,0,0,0,30,1,,
,,,,,,,,,,,,,,用户62264,001,2024-08-23_14h04.49.374,IAT(Formal),2021.2.3,Win32,29.76190476,,,,,,,,,,,,,,,,,,,,,,,,,,,,,,,,,,,,,,,,,,,,,,,,,,,,俺,i,,,i,1,0.6081,0,1,1,64,1,,
,,,,,,,,,,,,,,用户62264,001,2024-08-23_14h04.49.374,IAT(Formal),2021.2.3,Win32,29.76190476,,,,,,,,,,,,,,,,,,,,,,,,,,,,,,,,,,,,,,,,,,,,,,,,,,,,虚伪,i,,,i,1,0.6188,0,2,2,31,1,,
,,,,,,,,,,,,,,用户62264,001,2024-08-23_14h04.49.374,IAT(Formal),2021.2.3,Win32,29.76190476,,,,,,,,,,,,,,,,,,,,,,,,,,,,,,,,,,,,,,,,,,,,,,,,,,,,他的,e,,,e,1,0.4574,0,3,3,67,1,,
,,,,,,,,,,,,,,用户62264,001,2024-08-23_14h04.49.374,IAT(Formal),2021.2.3,Win32,29.76190476,,,,,,,,,,,,,,,,,,,,,,,,,,,,,,,,,,,,,,,,,,,,,,,,,,,,自卑,i,,,i,1,0.4282,0,4,4,36,1,,
,,,,,,,,,,,,,,用户62264,001,2024-08-23_14h04.49.374,IAT(Formal),2021.2.3,Win32,29.76190476,,,,,,,,,,,,,,,,,,,,,,,,,,,,,,,,,,,,,,,,,,,,,,,,,,,,我的,i,,,i,1,0.4781,0,5,5,51,1,,
,,,,,,,,,,,,,,用户62264,001,2024-08-23_14h04.49.374,IAT(Formal),2021.2.3,Win32,29.76190476,,,,,,,,,,,,,,,,,,,,,,,,,,,,,,,,,,,,,,,,,,,,,,,,,,,,我的,i,,,i,1,0.3759,0,6,6,61,1,,
,,,,,,,,,,,,,,用户62264,001,2024-08-23_14h04.49.374,IAT(Formal),2021.2.3,Win32,29.76190476,,,,,,,,,,,,,,,,,,,,,,,,,,,,,,,,,,,,,,,,,,,,,,,,,,,,自己,i,,,i,1,0.411,0,7,7,73,1,,
,,,,,,,,,,,,,,用户62264,001,2024-08-23_14h04.49.374,IAT(Formal),2021.2.3,Win32,29.76190476,,,,,,,,,,,,,,,,,,,,,,,,,,,,,,,,,,,,,,,,,,,,,,,,,,,,他,e,,,e,1,0.4264,0,8,8,5,1,,
,,,,,,,,,,,,,,用户62264,001,2024-08-23_14h04.49.374,IAT(Formal),2021.2.3,Win32,29.76190476,,,,,,,,,,,,,,,,,,,,,,,,,,,,,,,,,,,,,,,,,,,,,,,,,,,,机智,e,,,e,1,0.4848,0,9,9,19,1,,
,,,,,,,,,,,,,,用户62264,001,2024-08-23_14h04.49.374,IAT(Formal),2021.2.3,Win32,29.76190476,,,,,,,,,,,,,,,,,,,,,,,,,,,,,,,,,,,,,,,,,,,,,,,,,,,,认真,e,,,e,1,0.4218,0,10,10,20,1,,
,,,,,,,,,,,,,,用户62264,001,2024-08-23_14h04.49.374,IAT(Formal),2021.2.3,Win32,29.76190476,,,,,,,,,,,,,,,,,,,,,,,,,,,,,,,,,,,,,,,,,,,,,,,,,,,,聪明,e,,,e,1,0.5719,0,11,11,12,1,,
,,,,,,,,,,,,,,用户62264,001,2024-08-23_14h04.49.374,IAT(Formal),2021.2.3,Win32,29.76190476,,,,,,,,,,,,,,,,,,,,,,,,,,,,,,,,,,,,,,,,,,,,,,,,,,,,自己,i,,,i,1,0.5198,0,12,12,3,1,,
,,,,,,,,,,,,,,用户62264,001,2024-08-23_14h04.49.374,IAT(Formal),2021.2.3,Win32,29.76190476,,,,,,,,,,,,,,,,,,,,,,,,,,,,,,,,,,,,,,,,,,,,,,,,,,,,优秀,e,,,e,1,0.4582,0,13,13,10,1,,
,,,,,,,,,,,,,,用户62264,001,2024-08-23_14h04.49.374,IAT(Formal),2021.2.3,Win32,29.76190476,,,,,,,,,,,,,,,,,,,,,,,,,,,,,,,,,,,,,,,,,,,,,,,,,,,,野蛮,i,,,i,1,0.6784,0,14,14,46,1,,
,,,,,,,,,,,,,,用户62264,001,2024-08-23_14h04.49.374,IAT(Formal),2021.2.3,Win32,29.76190476,,,,,,,,,,,,,,,,,,,,,,,,,,,,,,,,,,,,,,,,,,,,,,,,,,,,他的,e,,,e,1,0.6526,0,15,15,7,1,,
,,,,,,,,,,,,,,用户62264,001,2024-08-23_14h04.49.374,IAT(Formal),2021.2.3,Win32,29.76190476,,,,,,,,,,,,,,,,,,,,,,,,,,,,,,,,,,,,,,,,,,,,,,,,,,,,冷静,e,,,e,1,0.488,0,16,16,26,1,,
,,,,,,,,,,,,,,用户62264,001,2024-08-23_14h04.49.374,IAT(Formal),2021.2.3,Win32,29.76190476,,,,,,,,,,,,,,,,,,,,,,,,,,,,,,,,,,,,,,,,,,,,,,,,,,,,冒失,i,,,e,0,0.6093,0,17,17,39,1,,
,,,,,,,,,,,,,,用户62264,001,2024-08-23_14h04.49.374,IAT(Formal),2021.2.3,Win32,29.76190476,,,,,,,,,,,,,,,,,,,,,,,,,,,,,,,,,,,,,,,,,,,,,,,,,,,,杰出,e,,,e,1,0.6507,0,18,18,13,1,,
,,,,,,,,,,,,,,用户62264,001,2024-08-23_14h04.49.374,IAT(Formal),2021.2.3,Win32,29.76190476,,,,,,,,,,,,,,,,,,,,,,,,,,,,,,,,,,,,,,,,,,,,,,,,,,,,执拗,i,,,i,1,0.5391,0,19,19,40,1,,
,,,,,,,,,,,,,,用户62264,001,2024-08-23_14h04.49.374,IAT(Formal),2021.2.3,Win32,29.76190476,,,,,,,,,,,,,,,,,,,,,,,,,,,,,,,,,,,,,,,,,,,,,,,,,,,,我,i,,,i,1,0.3262,0,20,20,60,1,,
,,,,,,,,,,,,,,用户62264,001,2024-08-23_14h04.49.374,IAT(Formal),2021.2.3,Win32,29.76190476,,,,,,,,,,,,,,,,,,,,,,,,,,,,,,,,,,,,,,,,,,,,,,,,,,,,勇敢,e,,,e,1,0.6174,0,21,21,17,1,,
,,,,,,,,,,,,,,用户62264,001,2024-08-23_14h04.49.374,IAT(Formal),2021.2.3,Win32,29.76190476,,,,,,,,,,,,,,,,,,,,,,,,,,,,,,,,,,,,,,,,,,,,,,,,,,,,暴躁,i,,,i,1,0.5341,0,22,22,44,1,,
,,,,,,,,,,,,,,用户62264,001,2024-08-23_14h04.49.374,IAT(Formal),2021.2.3,Win32,29.76190476,,,,,,,,,,,,,,,,,,,,,,,,,,,,,,,,,,,,,,,,,,,,,,,,,,,,他们,e,,,e,1,0.58,0,23,23,66,1,,
,,,,,,,,,,,,,,用户62264,001,2024-08-23_14h04.49.374,IAT(Formal),2021.2.3,Win32,29.76190476,,,,,,,,,,,,,,,,,,,,,,,,,,,,,,,,,,,,,,,,,,,,,,,,,,,,鲁莽,i,,,i,1,0.5588,0,24,24,38,1,,
,,,,,,,,,,,,,,用户62264,001,2024-08-23_14h04.49.374,IAT(Formal),2021.2.3,Win32,29.76190476,,,,,,,,,,,,,,,,,,,,,,,,,,,,,,,,,,,,,,,,,,,,,,,,,,,,热情,e,,,e,1,0.5838,0,25,25,27,1,,
,,,,,,,,,,,,,,用户62264,001,2024-08-23_14h04.49.374,IAT(Formal),2021.2.3,Win32,29.76190476,,,,,,,,,,,,,,,,,,,,,,,,,,,,,,,,,,,,,,,,,,,,,,,,,,,,朴实,e,,,e,1,0.452,0,26,26,24,1,,
,,,,,,,,,,,,,,用户62264,001,2024-08-23_14h04.49.374,IAT(Formal),2021.2.3,Win32,29.76190476,,,,,,,,,,,,,,,,,,,,,,,,,,,,,,,,,,,,,,,,,,,,,,,,,,,,活泼,e,,,e,1,0.6932,0,27,27,28,1,,
,,,,,,,,,,,,,,用户62264,001,2024-08-23_14h04.49.374,IAT(Formal),2021.2.3,Win32,29.76190476,,,,,,,,,,,,,,,,,,,,,,,,,,,,,,,,,,,,,,,,,,,,,,,,,,,,勤奋,e,,,e,1,0.5181,0,28,28,18,1,,
,,,,,,,,,,,,,,用户62264,001,2024-08-23_14h04.49.374,IAT(Formal),2021.2.3,Win32,29.76190476,,,,,,,,,,,,,,,,,,,,,,,,,,,,,,,,,,,,,,,,,,,,,,,,,,,,俺,i,,,i,1,0.6172,0,29,29,4,1,,
,,,,,,,,,,,,,,用户62264,001,2024-08-23_14h04.49.374,IAT(Formal),2021.2.3,Win32,29.76190476,,,,,,,,,,,,,,,,,,,,,,,,,,,,,,,,,,,,,,,,,,,,,,,,,,,,他,e,,,e,1,0.3971,0,30,30,75,1,,
,,,,,,,,,,,,,,用户62264,001,2024-08-23_14h04.49.374,IAT(Formal),2021.2.3,Win32,29.76190476,,,,,,,,,,,,,,,,,,,,,,,,,,,,,,,,,,,,,,,,,,,,,,,,,,,,愚蠢,i,,,i,1,0.4947,0,31,31,32,1,,
,,,,,,,,,,,,,,用户62264,001,2024-08-23_14h04.49.374,IAT(Formal),2021.2.3,Win32,29.76190476,,,,,,,,,,,,,,,,,,,,,,,,,,,,,,,,,,,,,,,,,,,,,,,,,,,,公正,e,,,e,1,0.5812,0,32,32,23,1,,
,,,,,,,,,,,,,,用户62264,001,2024-08-23_14h04.49.374,IAT(Formal),2021.2.3,Win32,29.76190476,,,,,,,,,,,,,,,,,,,,,,,,,,,,,,,,,,,,,,,,,,,,,,,,,,,,无私,e,,,e,1,0.624,0,33,33,22,1,,
,,,,,,,,,,,,,,用户62264,001,2024-08-23_14h04.49.374,IAT(Formal),2021.2.3,Win32,29.76190476,,,,,,,,,,,,,,,,,,,,,,,,,,,,,,,,,,,,,,,,,,,,,,,,,,,,傲慢,i,,,i,1,0.488,0,34,34,37,1,,
,,,,,,,,,,,,,,用户62264,001,2024-08-23_14h04.49.374,IAT(Formal),2021.2.3,Win32,29.76190476,,,,,,,,,,,,,,,,,,,,,,,,,,,,,,,,,,,,,,,,,,,,,,,,,,,,他们,e,,,e,1,0.5607,0,35,35,56,1,,
,,,,,,,,,,,,,,用户62264,001,2024-08-23_14h04.49.374,IAT(Formal),2021.2.3,Win32,29.76190476,,,,,,,,,,,,,,,,,,,,,,,,,,,,,,,,,,,,,,,,,,,,,,,,,,,,我们,i,,,i,1,0.4378,0,36,36,72,1,,
,,,,,,,,,,,,,,用户62264,001,2024-08-23_14h04.49.374,IAT(Formal),2021.2.3,Win32,29.76190476,,,,,,,,,,,,,,,,,,,,,,,,,,,,,,,,,,,,,,,,,,,,,,,,,,,,他们,e,,,e,1,0.485,0,37,37,6,1,,
,,,,,,,,,,,,,,用户62264,001,2024-08-23_14h04.49.374,IAT(Formal),2021.2.3,Win32,29.76190476,,,,,,,,,,,,,,,,,,,,,,,,,,,,,,,,,,,,,,,,,,,,,,,,,,,,我,i,,,i,1,0.4264,0,38,38,50,1,,
,,,,,,,,,,,,,,用户62264,001,2024-08-23_14h04.49.374,IAT(Formal),2021.2.3,Win32,29.76190476,,,,,,,,,,,,,,,,,,,,,,,,,,,,,,,,,,,,,,,,,,,,,,,,,,,,下贱,i,,,i,1,0.4313,0,39,39,49,1,,
,,,,,,,,,,,,,,用户62264,001,2024-08-23_14h04.49.374,IAT(Formal),2021.2.3,Win32,29.76190476,,,,,,,,,,,,,,,,,,,,,,,,,,,,,,,,,,,,,,,,,,,,,,,,,,,,他人,e,,,e,1,0.525,0,40,40,58,1,,
,,,,,,,,,,,,,,用户62264,001,2024-08-23_14h04.49.374,IAT(Formal),2021.2.3,Win32,29.76190476,,,,,,,,,,,,,,,,,,,,,,,,,,,,,,,,,,,,,,,,,,,,,,,,,,,,其他,e,,,e,1,0.4937,0,41,41,59,1,,
,,,,,,,,,,,,,,用户62264,001,2024-08-23_14h04.49.374,IAT(Formal),2021.2.3,Win32,29.76190476,,,,,,,,,,,,,,,,,,,,,,,,,,,,,,,,,,,,,,,,,,,,,,,,,,,,其他,e,,,e,1,0.5012,0,42,42,9,1,,
,,,,,,,,,,,,,,用户62264,001,2024-08-23_14h04.49.374,IAT(Formal),2021.2.3,Win32,29.76190476,,,,,,,,,,,,,,,,,,,,,,,,,,,,,,,,,,,,,,,,,,,,,,,,,,,,诚恳,e,,,e,1,0.7524,0,43,43,29,1,,
,,,,,,,,,,,,,,用户62264,001,2024-08-23_14h04.49.374,IAT(Formal),2021.2.3,Win32,29.76190476,,,,,,,,,,,,,,,,,,,,,,,,,,,,,,,,,,,,,,,,,,,,,,,,,,,,自私,i,,,i,1,0.5641,0,44,44,43,1,,
,,,,,,,,,,,,,,用户62264,001,2024-08-23_14h04.49.374,IAT(Formal),2021.2.3,Win32,29.76190476,,,,,,,,,,,,,,,,,,,,,,,,,,,,,,,,,,,,,,,,,,,,,,,,,,,,他人,e,,,e,1,0.5238,0,45,45,8,1,,
,,,,,,,,,,,,,,用户62264,001,2024-08-23_14h04.49.374,IAT(Formal),2021.2.3,Win32,29.76190476,,,,,,,,,,,,,,,,,,,,,,,,,,,,,,,,,,,,,,,,,,,,,,,,,,,,他的,e,,,e,1,0.4393,0,46,46,77,1,,
,,,,,,,,,,,,,,用户62264,001,2024-08-23_14h04.49.374,IAT(Formal),2021.2.3,Win32,29.76190476,,,,,,,,,,,,,,,,,,,,,,,,,,,,,,,,,,,,,,,,,,,,,,,,,,,,他们,e,,,e,1,0.4206,0,47,47,76,1,,
,,,,,,,,,,,,,,用户62264,001,2024-08-23_14h04.49.374,IAT(Formal),2021.2.3,Win32,29.76190476,,,,,,,,,,,,,,,,,,,,,,,,,,,,,,,,,,,,,,,,,,,,,,,,,,,,消极,i,,,i,1,0.6032,0,48,48,35,1,,
,,,,,,,,,,,,,,用户62264,001,2024-08-23_14h04.49.374,IAT(Formal),2021.2.3,Win32,29.76190476,,,,,,,,,,,,,,,,,,,,,,,,,,,,,,,,,,,,,,,,,,,,,,,,,,,,轻率,i,,,i,1,0.5851,0,49,49,48,1,,
,,,,,,,,,,,,,,用户62264,001,2024-08-23_14h04.49.374,IAT(Formal),2021.2.3,Win32,29.76190476,,,,,,,,,,,,,,,,,,,,,,,,,,,,,,,,,,,,,,,,,,,,,,,,,,,,他人,e,,,e,1,0.4841,0,50,50,78,1,,
,,,,,,,,,,,,,,用户62264,001,2024-08-23_14h04.49.374,IAT(Formal),2021.2.3,Win32,29.76190476,,,,,,,,,,,,,,,,,,,,,,,,,,,,,,,,,,,,,,,,,,,,,,,,,,,,刻薄,i,,,i,1,0.405,0,51,51,33,1,,
,,,,,,,,,,,,,,用户62264,001,2024-08-23_14h04.49.374,IAT(Formal),2021.2.3,Win32,29.76190476,,,,,,,,,,,,,,,,,,,,,,,,,,,,,,,,,,,,,,,,,,,,,,,,,,,,固执,i,,,i,1,0.3949,0,52,52,47,1,,
,,,,,,,,,,,,,,用户62264,001,2024-08-23_14h04.49.374,IAT(Formal),2021.2.3,Win32,29.76190476,,,,,,,,,,,,,,,,,,,,,,,,,,,,,,,,,,,,,,,,,,,,,,,,,,,,凶狠,i,,,i,1,0.3741,0,53,53,42,1,,
,,,,,,,,,,,,,,用户62264,001,2024-08-23_14h04.49.374,IAT(Formal),2021.2.3,Win32,29.76190476,,,,,,,,,,,,,,,,,,,,,,,,,,,,,,,,,,,,,,,,,,,,,,,,,,,,悲观,i,,,i,1,0.3721,0,54,54,34,1,,
,,,,,,,,,,,,,,用户62264,001,2024-08-23_14h04.49.374,IAT(Formal),2021.2.3,Win32,29.76190476,,,,,,,,,,,,,,,,,,,,,,,,,,,,,,,,,,,,,,,,,,,,,,,,,,,,我,i,,,i,1,0.576,0,55,55,0,1,,
,,,,,,,,,,,,,,用户62264,001,2024-08-23_14h04.49.374,IAT(Formal),2021.2.3,Win32,29.76190476,,,,,,,,,,,,,,,,,,,,,,,,,,,,,,,,,,,,,,,,,,,,,,,,,,,,稳重,e,,,i,0,0.4165,0,56,56,21,1,,
,,,,,,,,,,,,,,用户62264,001,2024-08-23_14h04.49.374,IAT(Formal),2021.2.3,Win32,29.76190476,,,,,,,,,,,,,,,,,,,,,,,,,,,,,,,,,,,,,,,,,,,,,,,,,,,,俺,i,,,i,1,0.5587,0,57,57,74,1,,
,,,,,,,,,,,,,,用户62264,001,2024-08-23_14h04.49.374,IAT(Formal),2021.2.3,Win32,29.76190476,,,,,,,,,,,,,,,,,,,,,,,,,,,,,,,,,,,,,,,,,,,,,,,,,,,,他,e,,,e,1,0.4597,0,58,58,65,1,,
,,,,,,,,,,,,,,用户62264,001,2024-08-23_14h04.49.374,IAT(Formal),2021.2.3,Win32,29.76190476,,,,,,,,,,,,,,,,,,,,,,,,,,,,,,,,,,,,,,,,,,,,,,,,,,,,诚实,e,,,e,1,0.596,0,59,59,15,1,,
,,,,,,,,,,,,,,用户62264,001,2024-08-23_14h04.49.374,IAT(Formal),2021.2.3,Win32,29.76190476,,,,,,,,,,,,,,,,,,,,,,,,,,,,,,,,,,,,,,,,,,,,,,,,,,,,细腻,e,,,e,1,0.4855,0,60,60,25,1,,
,,,,,,,,,,,,,,用户62264,001,2024-08-23_14h04.49.374,IAT(Formal),2021.2.3,Win32,29.76190476,,,,,,,,,,,,,,,,,,,,,,,,,,,,,,,,,,,,,,,,,,,,,,,,,,,,崇高,e,,,e,1,0.5275,0,61,61,11,1,,
,,,,,,,,,,,,,,用户62264,001,2024-08-23_14h04.49.374,IAT(Formal),2021.2.3,Win32,29.76190476,,,,,,,,,,,,,,,,,,,,,,,,,,,,,,,,,,,,,,,,,,,,,,,,,,,,我们,i,,,i,1,0.4676,0,62,62,2,1,,
,,,,,,,,,,,,,,用户62264,001,2024-08-23_14h04.49.374,IAT(Formal),2021.2.3,Win32,29.76190476,,,,,,,,,,,,,,,,,,,,,,,,,,,,,,,,,,,,,,,,,,,,,,,,,,,,我的,i,,,i,1,0.3817,0,63,63,71,1,,
,,,,,,,,,,,,,,用户62264,001,2024-08-23_14h04.49.374,IAT(Formal),2021.2.3,Win32,29.76190476,,,,,,,,,,,,,,,,,,,,,,,,,,,,,,,,,,,,,,,,,,,,,,,,,,,,猖狂,i,,,e,0,0.8837,0,64,64,45,1,,
,,,,,,,,,,,,,,用户62264,001,2024-08-23_14h04.49.374,IAT(Formal),2021.2.3,Win32,29.76190476,,,,,,,,,,,,,,,,,,,,,,,,,,,,,,,,,,,,,,,,,,,,,,,,,,,,我,i,,,i,1,0.6476,0,65,65,70,1,,
,,,,,,,,,,,,,,用户62264,001,2024-08-23_14h04.49.374,IAT(Formal),2021.2.3,Win32,29.76190476,,,,,,,,,,,,,,,,,,,,,,,,,,,,,,,,,,,,,,,,,,,,,,,,,,,,自己,i,,,i,1,0.5503,0,66,66,63,1,,
,,,,,,,,,,,,,,用户62264,001,2024-08-23_14h04.49.374,IAT(Formal),2021.2.3,Win32,29.76190476,,,,,,,,,,,,,,,,,,,,,,,,,,,,,,,,,,,,,,,,,,,,,,,,,,,,其他,e,,,e,1,0.5358,0,67,67,79,1,,
,,,,,,,,,,,,,,用户62264,001,2024-08-23_14h04.49.374,IAT(Formal),2021.2.3,Win32,29.76190476,,,,,,,,,,,,,,,,,,,,,,,,,,,,,,,,,,,,,,,,,,,,,,,,,,,,他人,e,,,e,1,0.4036,0,68,68,68,1,,
,,,,,,,,,,,,,,用户62264,001,2024-08-23_14h04.49.374,IAT(Formal),2021.2.3,Win32,29.76190476,,,,,,,,,,,,,,,,,,,,,,,,,,,,,,,,,,,,,,,,,,,,,,,,,,,,乐观,e,,,e,1,0.7128,0,69,69,14,1,,
,,,,,,,,,,,,,,用户62264,001,2024-08-23_14h04.49.374,IAT(Formal),2021.2.3,Win32,29.76190476,,,,,,,,,,,,,,,,,,,,,,,,,,,,,,,,,,,,,,,,,,,,,,,,,,,,正直,e,,,e,1,0.5875,0,70,70,16,1,,
,,,,,,,,,,,,,,用户62264,001,2024-08-23_14h04.49.374,IAT(Formal),2021.2.3,Win32,29.76190476,,,,,,,,,,,,,,,,,,,,,,,,,,,,,,,,,,,,,,,,,,,,,,,,,,,,我的,i,,,i,1,0.4696,0,71,71,1,1,,
,,,,,,,,,,,,,,用户62264,001,2024-08-23_14h04.49.374,IAT(Formal),2021.2.3,Win32,29.76190476,,,,,,,,,,,,,,,,,,,,,,,,,,,,,,,,,,,,,,,,,,,,,,,,,,,,我们,i,,,i,1,0.3637,0,72,72,62,1,,
,,,,,,,,,,,,,,用户62264,001,2024-08-23_14h04.49.374,IAT(Formal),2021.2.3,Win32,29.76190476,,,,,,,,,,,,,,,,,,,,,,,,,,,,,,,,,,,,,,,,,,,,,,,,,,,,散漫,i,,,i,1,0.5654,0,73,73,41,1,,
,,,,,,,,,,,,,,用户62264,001,2024-08-23_14h04.49.374,IAT(Formal),2021.2.3,Win32,29.76190476,,,,,,,,,,,,,,,,,,,,,,,,,,,,,,,,,,,,,,,,,,,,,,,,,,,,俺,i,,,i,1,0.415,0,74,74,54,1,,
,,,,,,,,,,,,,,用户62264,001,2024-08-23_14h04.49.374,IAT(Formal),2021.2.3,Win32,29.76190476,,,,,,,,,,,,,,,,,,,,,,,,,,,,,,,,,,,,,,,,,,,,,,,,,,,,自己,i,,,i,1,0.4264,0,75,75,53,1,,
,,,,,,,,,,,,,,用户62264,001,2024-08-23_14h04.49.374,IAT(Formal),2021.2.3,Win32,29.76190476,,,,,,,,,,,,,,,,,,,,,,,,,,,,,,,,,,,,,,,,,,,,,,,,,,,,其他,e,,,e,1,0.5504,0,76,76,69,1,,
,,,,,,,,,,,,,,用户62264,001,2024-08-23_14h04.49.374,IAT(Formal),2021.2.3,Win32,29.76190476,,,,,,,,,,,,,,,,,,,,,,,,,,,,,,,,,,,,,,,,,,,,,,,,,,,,他的,e,,,e,1,0.5441,0,77,77,57,1,,
,,,,,,,,,,,,,,用户62264,001,2024-08-23_14h04.49.374,IAT(Formal),2021.2.3,Win32,29.76190476,,,,,,,,,,,,,,,,,,,,,,,,,,,,,,,,,,,,,,,,,,,,,,,,,,,,他,e,,,e,1,0.4428,0,78,78,55,1,,
,,,,,,,,,,,,,,用户62264,001,2024-08-23_14h04.49.374,IAT(Formal),2021.2.3,Win32,29.76190476,,,,,,,,,,,,,,,,,,,,,,,,,,,,,,,,,,,,,,,,,,,,,,,,,,,,我们,i,,,i,1,0.4707,0,79,79,52,1,,
,,,,,,,,,,,,,,用户62264,001,2024-08-23_14h04.49.374,IAT(Formal),2021.2.3,Win32,29.76190476,,,,,,,,,,,,,,,,,,,,,,,,,,,,,,,,,,,,,,,,,,,,,,,,,,,,我的,i,,,i,1,0.388,1,0,80,61,1,,
,,,,,,,,,,,,,,用户62264,001,2024-08-23_14h04.49.374,IAT(Formal),2021.2.3,Win32,29.76190476,,,,,,,,,,,,,,,,,,,,,,,,,,,,,,,,,,,,,,,,,,,,,,,,,,,,我们,i,,,e,0,0.5245,1,1,81,62,1,,
,,,,,,,,,,,,,,用户62264,001,2024-08-23_14h04.49.374,IAT(Formal),2021.2.3,Win32,29.76190476,,,,,,,,,,,,,,,,,,,,,,,,,,,,,,,,,,,,,,,,,,,,,,,,,,,,活泼,e,,,e,1,0.6284,1,2,82,28,1,,
,,,,,,,,,,,,,,用户62264,001,2024-08-23_14h04.49.374,IAT(Formal),2021.2.3,Win32,29.76190476,,,,,,,,,,,,,,,,,,,,,,,,,,,,,,,,,,,,,,,,,,,,,,,,,,,,杰出,e,,,e,1,0.5368,1,3,83,13,1,,
,,,,,,,,,,,,,,用户62264,001,2024-08-23_14h04.49.374,IAT(Formal),2021.2.3,Win32,29.76190476,,,,,,,,,,,,,,,,,,,,,,,,,,,,,,,,,,,,,,,,,,,,,,,,,,,,凶狠,i,,,i,1,0.7065,1,4,84,42,1,,
,,,,,,,,,,,,,,用户62264,001,2024-08-23_14h04.49.374,IAT(Formal),2021.2.3,Win32,29.76190476,,,,,,,,,,,,,,,,,,,,,,,,,,,,,,,,,,,,,,,,,,,,,,,,,,,,下贱,i,,,i,1,0.4174,1,5,85,49,1,,
,,,,,,,,,,,,,,用户62264,001,2024-08-23_14h04.49.374,IAT(Formal),2021.2.3,Win32,29.76190476,,,,,,,,,,,,,,,,,,,,,,,,,,,,,,,,,,,,,,,,,,,,,,,,,,,,自己,i,,,i,1,0.6676,1,6,86,53,1,,
,,,,,,,,,,,,,,用户62264,001,2024-08-23_14h04.49.374,IAT(Formal),2021.2.3,Win32,29.76190476,,,,,,,,,,,,,,,,,,,,,,,,,,,,,,,,,,,,,,,,,,,,,,,,,,,,勤奋,e,,,i,0,0.436,1,7,87,18,1,,
,,,,,,,,,,,,,,用户62264,001,2024-08-23_14h04.49.374,IAT(Formal),2021.2.3,Win32,29.76190476,,,,,,,,,,,,,,,,,,,,,,,,,,,,,,,,,,,,,,,,,,,,,,,,,,,,其他,e,,,e,1,0.8012,1,8,88,9,1,,
,,,,,,,,,,,,,,用户62264,001,2024-08-23_14h04.49.374,IAT(Formal),2021.2.3,Win32,29.76190476,,,,,,,,,,,,,,,,,,,,,,,,,,,,,,,,,,,,,,,,,,,,,,,,,,,,虚伪,i,,,i,1,0.9769,1,9,89,31,1,,
,,,,,,,,,,,,,,用户62264,001,2024-08-23_14h04.49.374,IAT(Formal),2021.2.3,Win32,29.76190476,,,,,,,,,,,,,,,,,,,,,,,,,,,,,,,,,,,,,,,,,,,,,,,,,,,,诚实,e,,,e,1,0.8637,1,10,90,15,1,,
,,,,,,,,,,,,,,用户62264,001,2024-08-23_14h04.49.374,IAT(Formal),2021.2.3,Win32,29.76190476,,,,,,,,,,,,,,,,,,,,,,,,,,,,,,,,,,,,,,,,,,,,,,,,,,,,热情,e,,,e,1,0.858,1,11,91,27,1,,
,,,,,,,,,,,,,,用户62264,001,2024-08-23_14h04.49.374,IAT(Formal),2021.2.3,Win32,29.76190476,,,,,,,,,,,,,,,,,,,,,,,,,,,,,,,,,,,,,,,,,,,,,,,,,,,,他,e,,,e,1,0.7276,1,12,92,55,1,,
,,,,,,,,,,,,,,用户62264,001,2024-08-23_14h04.49.374,IAT(Formal),2021.2.3,Win32,29.76190476,,,,,,,,,,,,,,,,,,,,,,,,,,,,,,,,,,,,,,,,,,,,,,,,,,,,他的,e,,,e,1,0.4764,1,13,93,67,1,,
,,,,,,,,,,,,,,用户62264,001,2024-08-23_14h04.49.374,IAT(Formal),2021.2.3,Win32,29.76190476,,,,,,,,,,,,,,,,,,,,,,,,,,,,,,,,,,,,,,,,,,,,,,,,,,,,猖狂,i,,,i,1,0.7664,1,14,94,45,1,,
,,,,,,,,,,,,,,用户62264,001,2024-08-23_14h04.49.374,IAT(Formal),2021.2.3,Win32,29.76190476,,,,,,,,,,,,,,,,,,,,,,,,,,,,,,,,,,,,,,,,,,,,,,,,,,,,他人,e,,,e,1,0.5442,1,15,95,68,1,,
,,,,,,,,,,,,,,用户62264,001,2024-08-23_14h04.49.374,IAT(Formal),2021.2.3,Win32,29.76190476,,,,,,,,,,,,,,,,,,,,,,,,,,,,,,,,,,,,,,,,,,,,,,,,,,,,我们,i,,,i,1,0.3929,1,16,96,2,1,,
,,,,,,,,,,,,,,用户62264,001,2024-08-23_14h04.49.374,IAT(Formal),2021.2.3,Win32,29.76190476,,,,,,,,,,,,,,,,,,,,,,,,,,,,,,,,,,,,,,,,,,,,,,,,,,,,诚恳,e,,,e,1,0.6586,1,17,97,29,1,,
,,,,,,,,,,,,,,用户62264,001,2024-08-23_14h04.49.374,IAT(Formal),2021.2.3,Win32,29.76190476,,,,,,,,,,,,,,,,,,,,,,,,,,,,,,,,,,,,,,,,,,,,,,,,,,,,他,e,,,e,1,0.553,1,18,98,65,1,,
,,,,,,,,,,,,,,用户62264,001,2024-08-23_14h04.49.374,IAT(Formal),2021.2.3,Win32,29.76190476,,,,,,,,,,,,,,,,,,,,,,,,,,,,,,,,,,,,,,,,,,,,,,,,,,,,冷静,e,,,e,1,0.4755,1,19,99,26,1,,
,,,,,,,,,,,,,,用户62264,001,2024-08-23_14h04.49.374,IAT(Formal),2021.2.3,Win32,29.76190476,,,,,,,,,,,,,,,,,,,,,,,,,,,,,,,,,,,,,,,,,,,,,,,,,,,,自己,i,,,i,1,0.5678,1,20,100,73,1,,
,,,,,,,,,,,,,,用户62264,001,2024-08-23_14h04.49.374,IAT(Formal),2021.2.3,Win32,29.76190476,,,,,,,,,,,,,,,,,,,,,,,,,,,,,,,,,,,,,,,,,,,,,,,,,,,,其他,e,,,e,1,0.6215,1,21,101,79,1,,
,,,,,,,,,,,,,,用户62264,001,2024-08-23_14h04.49.374,IAT(Formal),2021.2.3,Win32,29.76190476,,,,,,,,,,,,,,,,,,,,,,,,,,,,,,,,,,,,,,,,,,,,,,,,,,,,他们,e,,,e,1,0.4509,1,22,102,6,1,,
,,,,,,,,,,,,,,用户62264,001,2024-08-23_14h04.49.374,IAT(Formal),2021.2.3,Win32,29.76190476,,,,,,,,,,,,,,,,,,,,,,,,,,,,,,,,,,,,,,,,,,,,,,,,,,,,暴躁,i,,,i,1,0.7707,1,23,103,44,1,,
,,,,,,,,,,,,,,用户62264,001,2024-08-23_14h04.49.374,IAT(Formal),2021.2.3,Win32,29.76190476,,,,,,,,,,,,,,,,,,,,,,,,,,,,,,,,,,,,,,,,,,,,,,,,,,,,鲁莽,i,,,i,1,0.9389,1,24,104,38,1,,
,,,,,,,,,,,,,,用户62264,001,2024-08-23_14h04.49.374,IAT(Formal),2021.2.3,Win32,29.76190476,,,,,,,,,,,,,,,,,,,,,,,,,,,,,,,,,,,,,,,,,,,,,,,,,,,,无私,e,,,e,1,0.6446,1,25,105,22,1,,
,,,,,,,,,,,,,,用户62264,001,2024-08-23_14h04.49.374,IAT(Formal),2021.2.3,Win32,29.76190476,,,,,,,,,,,,,,,,,,,,,,,,,,,,,,,,,,,,,,,,,,,,,,,,,,,,悲观,i,,,i,1,0.4917,1,26,106,34,1,,
,,,,,,,,,,,,,,用户62264,001,2024-08-23_14h04.49.374,IAT(Formal),2021.2.3,Win32,29.76190476,,,,,,,,,,,,,,,,,,,,,,,,,,,,,,,,,,,,,,,,,,,,,,,,,,,,轻率,i,,,i,1,0.496,1,27,107,48,1,,
,,,,,,,,,,,,,,用户62264,001,2024-08-23_14h04.49.374,IAT(Formal),2021.2.3,Win32,29.76190476,,,,,,,,,,,,,,,,,,,,,,,,,,,,,,,,,,,,,,,,,,,,,,,,,,,,稳重,e,,,i,0,0.4361,1,28,108,21,1,,
,,,,,,,,,,,,,,用户62264,001,2024-08-23_14h04.49.374,IAT(Formal),2021.2.3,Win32,29.76190476,,,,,,,,,,,,,,,,,,,,,,,,,,,,,,,,,,,,,,,,,,,,,,,,,,,,他的,e,,,e,1,0.5346,1,29,109,77,1,,
,,,,,,,,,,,,,,用户62264,001,2024-08-23_14h04.49.374,IAT(Formal),2021.2.3,Win32,29.76190476,,,,,,,,,,,,,,,,,,,,,,,,,,,,,,,,,,,,,,,,,,,,,,,,,,,,消极,i,,,i,1,0.5258,1,30,110,35,1,,
,,,,,,,,,,,,,,用户62264,001,2024-08-23_14h04.49.374,IAT(Formal),2021.2.3,Win32,29.76190476,,,,,,,,,,,,,,,,,,,,,,,,,,,,,,,,,,,,,,,,,,,,,,,,,,,,愚蠢,i,,,i,1,0.5503,1,31,111,32,1,,
,,,,,,,,,,,,,,用户62264,001,2024-08-23_14h04.49.374,IAT(Formal),2021.2.3,Win32,29.76190476,,,,,,,,,,,,,,,,,,,,,,,,,,,,,,,,,,,,,,,,,,,,,,,,,,,,固执,i,,,i,1,0.5336,1,32,112,47,1,,
,,,,,,,,,,,,,,用户62264,001,2024-08-23_14h04.49.374,IAT(Formal),2021.2.3,Win32,29.76190476,,,,,,,,,,,,,,,,,,,,,,,,,,,,,,,,,,,,,,,,,,,,,,,,,,,,他人,e,,,e,1,0.5093,1,33,113,8,1,,
,,,,,,,,,,,,,,用户62264,001,2024-08-23_14h04.49.374,IAT(Formal),2021.2.3,Win32,29.76190476,,,,,,,,,,,,,,,,,,,,,,,,,,,,,,,,,,,,,,,,,,,,,,,,,,,,他,e,,,e,1,0.474,1,34,114,5,1,,
,,,,,,,,,,,,,,用户62264,001,2024-08-23_14h04.49.374,IAT(Formal),2021.2.3,Win32,29.76190476,,,,,,,,,,,,,,,,,,,,,,,,,,,,,,,,,,,,,,,,,,,,,,,,,,,,公正,e,,,e,1,0.5072,1,35,115,23,1,,
,,,,,,,,,,,,,,用户62264,001,2024-08-23_14h04.49.374,IAT(Formal),2021.2.3,Win32,29.76190476,,,,,,,,,,,,,,,,,,,,,,,,,,,,,,,,,,,,,,,,,,,,,,,,,,,,我,i,,,i,1,0.5123,1,36,116,0,1,,
,,,,,,,,,,,,,,用户62264,001,2024-08-23_14h04.49.374,IAT(Formal),2021.2.3,Win32,29.76190476,,,,,,,,,,,,,,,,,,,,,,,,,,,,,,,,,,,,,,,,,,,,,,,,,,,,冒失,i,,,e,0,0.4894,1,37,117,39,1,,
,,,,,,,,,,,,,,用户62264,001,2024-08-23_14h04.49.374,IAT(Formal),2021.2.3,Win32,29.76190476,,,,,,,,,,,,,,,,,,,,,,,,,,,,,,,,,,,,,,,,,,,,,,,,,,,,散漫,i,,,i,1,0.5414,1,38,118,41,1,,
,,,,,,,,,,,,,,用户62264,001,2024-08-23_14h04.49.374,IAT(Formal),2021.2.3,Win32,29.76190476,,,,,,,,,,,,,,,,,,,,,,,,,,,,,,,,,,,,,,,,,,,,,,,,,,,,俺,i,,,i,1,0.4884,1,39,119,74,1,,
,,,,,,,,,,,,,,用户62264,001,2024-08-23_14h04.49.374,IAT(Formal),2021.2.3,Win32,29.76190476,,,,,,,,,,,,,,,,,,,,,,,,,,,,,,,,,,,,,,,,,,,,,,,,,,,,我们,i,,,i,1,0.4806,1,40,120,52,1,,
,,,,,,,,,,,,,,用户62264,001,2024-08-23_14h04.49.374,IAT(Formal),2021.2.3,Win32,29.76190476,,,,,,,,,,,,,,,,,,,,,,,,,,,,,,,,,,,,,,,,,,,,,,,,,,,,俺,i,,,i,1,0.6535,1,41,121,64,1,,
,,,,,,,,,,,,,,用户62264,001,2024-08-23_14h04.49.374,IAT(Formal),2021.2.3,Win32,29.76190476,,,,,,,,,,,,,,,,,,,,,,,,,,,,,,,,,,,,,,,,,,,,,,,,,,,,我的,i,,,i,1,0.4033,1,42,122,71,1,,
,,,,,,,,,,,,,,用户62264,001,2024-08-23_14h04.49.374,IAT(Formal),2021.2.3,Win32,29.76190476,,,,,,,,,,,,,,,,,,,,,,,,,,,,,,,,,,,,,,,,,,,,,,,,,,,,朴实,e,,,e,1,0.6841,1,43,123,24,1,,
,,,,,,,,,,,,,,用户62264,001,2024-08-23_14h04.49.374,IAT(Formal),2021.2.3,Win32,29.76190476,,,,,,,,,,,,,,,,,,,,,,,,,,,,,,,,,,,,,,,,,,,,,,,,,,,,我,i,,,i,1,0.5338,1,44,124,60,1,,
,,,,,,,,,,,,,,用户62264,001,2024-08-23_14h04.49.374,IAT(Formal),2021.2.3,Win32,29.76190476,,,,,,,,,,,,,,,,,,,,,,,,,,,,,,,,,,,,,,,,,,,,,,,,,,,,我的,i,,,i,1,0.4477,1,45,125,51,1,,
,,,,,,,,,,,,,,用户62264,001,2024-08-23_14h04.49.374,IAT(Formal),2021.2.3,Win32,29.76190476,,,,,,,,,,,,,,,,,,,,,,,,,,,,,,,,,,,,,,,,,,,,,,,,,,,,自己,i,,,i,1,0.4185,1,46,126,63,1,,
,,,,,,,,,,,,,,用户62264,001,2024-08-23_14h04.49.374,IAT(Formal),2021.2.3,Win32,29.76190476,,,,,,,,,,,,,,,,,,,,,,,,,,,,,,,,,,,,,,,,,,,,,,,,,,,,他们,e,,,e,1,0.5084,1,47,127,76,1,,
,,,,,,,,,,,,,,用户62264,001,2024-08-23_14h04.49.374,IAT(Formal),2021.2.3,Win32,29.76190476,,,,,,,,,,,,,,,,,,,,,,,,,,,,,,,,,,,,,,,,,,,,,,,,,,,,自己,i,,,i,1,0.414,1,48,128,3,1,,
,,,,,,,,,,,,,,用户62264,001,2024-08-23_14h04.49.374,IAT(Formal),2021.2.3,Win32,29.76190476,,,,,,,,,,,,,,,,,,,,,,,,,,,,,,,,,,,,,,,,,,,,,,,,,,,,他的,e,,,e,1,0.5008,1,49,129,7,1,,
,,,,,,,,,,,,,,用户62264,001,2024-08-23_14h04.49.374,IAT(Formal),2021.2.3,Win32,29.76190476,,,,,,,,,,,,,,,,,,,,,,,,,,,,,,,,,,,,,,,,,,,,,,,,,,,,他人,e,,,e,1,0.4467,1,50,130,58,1,,
,,,,,,,,,,,,,,用户62264,001,2024-08-23_14h04.49.374,IAT(Formal),2021.2.3,Win32,29.76190476,,,,,,,,,,,,,,,,,,,,,,,,,,,,,,,,,,,,,,,,,,,,,,,,,,,,认真,e,,,e,1,0.7215,1,51,131,20,1,,
,,,,,,,,,,,,,,用户62264,001,2024-08-23_14h04.49.374,IAT(Formal),2021.2.3,Win32,29.76190476,,,,,,,,,,,,,,,,,,,,,,,,,,,,,,,,,,,,,,,,,,,,,,,,,,,,俺,i,,,i,1,0.5204,1,52,132,54,1,,
,,,,,,,,,,,,,,用户62264,001,2024-08-23_14h04.49.374,IAT(Formal),2021.2.3,Win32,29.76190476,,,,,,,,,,,,,,,,,,,,,,,,,,,,,,,,,,,,,,,,,,,,,,,,,,,,执拗,i,,,i,1,0.7093,1,53,133,40,1,,
,,,,,,,,,,,,,,用户62264,001,2024-08-23_14h04.49.374,IAT(Formal),2021.2.3,Win32,29.76190476,,,,,,,,,,,,,,,,,,,,,,,,,,,,,,,,,,,,,,,,,,,,,,,,,,,,勇敢,e,,,e,1,0.5201,1,54,134,17,1,,
,,,,,,,,,,,,,,用户62264,001,2024-08-23_14h04.49.374,IAT(Formal),2021.2.3,Win32,29.76190476,,,,,,,,,,,,,,,,,,,,,,,,,,,,,,,,,,,,,,,,,,,,,,,,,,,,我的,i,,,i,1,0.4742,1,55,135,1,1,,
,,,,,,,,,,,,,,用户62264,001,2024-08-23_14h04.49.374,IAT(Formal),2021.2.3,Win32,29.76190476,,,,,,,,,,,,,,,,,,,,,,,,,,,,,,,,,,,,,,,,,,,,,,,,,,,,俺,i,,,i,1,0.4269,1,56,136,4,1,,
,,,,,,,,,,,,,,用户62264,001,2024-08-23_14h04.49.374,IAT(Formal),2021.2.3,Win32,29.76190476,,,,,,,,,,,,,,,,,,,,,,,,,,,,,,,,,,,,,,,,,,,,,,,,,,,,机智,e,,,i,0,0.4675,1,57,137,19,1,,
,,,,,,,,,,,,,,用户62264,001,2024-08-23_14h04.49.374,IAT(Formal),2021.2.3,Win32,29.76190476,,,,,,,,,,,,,,,,,,,,,,,,,,,,,,,,,,,,,,,,,,,,,,,,,,,,卑鄙,i,,,i,1,0.6483,1,58,138,30,1,,
,,,,,,,,,,,,,,用户62264,001,2024-08-23_14h04.49.374,IAT(Formal),2021.2.3,Win32,29.76190476,,,,,,,,,,,,,,,,,,,,,,,,,,,,,,,,,,,,,,,,,,,,,,,,,,,,我们,i,,,i,1,0.5555,1,59,139,72,1,,
,,,,,,,,,,,,,,用户62264,001,2024-08-23_14h04.49.374,IAT(Formal),2021.2.3,Win32,29.76190476,,,,,,,,,,,,,,,,,,,,,,,,,,,,,,,,,,,,,,,,,,,,,,,,,,,,野蛮,i,,,i,1,0.5011,1,60,140,46,1,,
,,,,,,,,,,,,,,用户62264,001,2024-08-23_14h04.49.374,IAT(Formal),2021.2.3,Win32,29.76190476,,,,,,,,,,,,,,,,,,,,,,,,,,,,,,,,,,,,,,,,,,,,,,,,,,,,我,i,,,i,1,0.4773,1,61,141,70,1,,
,,,,,,,,,,,,,,用户62264,001,2024-08-23_14h04.49.374,IAT(Formal),2021.2.3,Win32,29.76190476,,,,,,,,,,,,,,,,,,,,,,,,,,,,,,,,,,,,,,,,,,,,,,,,,,,,细腻,e,,,e,1,0.5012,1,62,142,25,1,,
,,,,,,,,,,,,,,用户62264,001,2024-08-23_14h04.49.374,IAT(Formal),2021.2.3,Win32,29.76190476,,,,,,,,,,,,,,,,,,,,,,,,,,,,,,,,,,,,,,,,,,,,,,,,,,,,其他,e,,,e,1,0.5901,1,63,143,59,1,,
,,,,,,,,,,,,,,用户62264,001,2024-08-23_14h04.49.374,IAT(Formal),2021.2.3,Win32,29.76190476,,,,,,,,,,,,,,,,,,,,,,,,,,,,,,,,,,,,,,,,,,,,,,,,,,,,他人,e,,,e,1,0.5389,1,64,144,78,1,,
,,,,,,,,,,,,,,用户62264,001,2024-08-23_14h04.49.374,IAT(Formal),2021.2.3,Win32,29.76190476,,,,,,,,,,,,,,,,,,,,,,,,,,,,,,,,,,,,,,,,,,,,,,,,,,,,正直,e,,,e,1,0.4972,1,65,145,16,1,,
,,,,,,,,,,,,,,用户62264,001,2024-08-23_14h04.49.374,IAT(Formal),2021.2.3,Win32,29.76190476,,,,,,,,,,,,,,,,,,,,,,,,,,,,,,,,,,,,,,,,,,,,,,,,,,,,崇高,e,,,e,1,0.4556,1,66,146,11,1,,
,,,,,,,,,,,,,,用户62264,001,2024-08-23_14h04.49.374,IAT(Formal),2021.2.3,Win32,29.76190476,,,,,,,,,,,,,,,,,,,,,,,,,,,,,,,,,,,,,,,,,,,,,,,,,,,,他们,e,,,e,1,0.5412,1,67,147,56,1,,
,,,,,,,,,,,,,,用户62264,001,2024-08-23_14h04.49.374,IAT(Formal),2021.2.3,Win32,29.76190476,,,,,,,,,,,,,,,,,,,,,,,,,,,,,,,,,,,,,,,,,,,,,,,,,,,,优秀,e,,,e,1,0.479,1,68,148,10,1,,
,,,,,,,,,,,,,,用户62264,001,2024-08-23_14h04.49.374,IAT(Formal),2021.2.3,Win32,29.76190476,,,,,,,,,,,,,,,,,,,,,,,,,,,,,,,,,,,,,,,,,,,,,,,,,,,,他们,e,,,e,1,0.4587,1,69,149,66,1,,
,,,,,,,,,,,,,,用户62264,001,2024-08-23_14h04.49.374,IAT(Formal),2021.2.3,Win32,29.76190476,,,,,,,,,,,,,,,,,,,,,,,,,,,,,,,,,,,,,,,,,,,,,,,,,,,,傲慢,i,,,i,1,0.5235,1,70,150,37,1,,
,,,,,,,,,,,,,,用户62264,001,2024-08-23_14h04.49.374,IAT(Formal),2021.2.3,Win32,29.76190476,,,,,,,,,,,,,,,,,,,,,,,,,,,,,,,,,,,,,,,,,,,,,,,,,,,,乐观,e,,,i,0,0.4523,1,71,151,14,1,,
,,,,,,,,,,,,,,用户62264,001,2024-08-23_14h04.49.374,IAT(Formal),2021.2.3,Win32,29.76190476,,,,,,,,,,,,,,,,,,,,,,,,,,,,,,,,,,,,,,,,,,,,,,,,,,,,他的,e,,,e,1,0.5425,1,72,152,57,1,,
,,,,,,,,,,,,,,用户62264,001,2024-08-23_14h04.49.374,IAT(Formal),2021.2.3,Win32,29.76190476,,,,,,,,,,,,,,,,,,,,,,,,,,,,,,,,,,,,,,,,,,,,,,,,,,,,刻薄,i,,,i,1,0.594,1,73,153,33,1,,
,,,,,,,,,,,,,,用户62264,001,2024-08-23_14h04.49.374,IAT(Formal),2021.2.3,Win32,29.76190476,,,,,,,,,,,,,,,,,,,,,,,,,,,,,,,,,,,,,,,,,,,,,,,,,,,,自卑,i,,,i,1,0.5672,1,74,154,36,1,,
,,,,,,,,,,,,,,用户62264,001,2024-08-23_14h04.49.374,IAT(Formal),2021.2.3,Win32,29.76190476,,,,,,,,,,,,,,,,,,,,,,,,,,,,,,,,,,,,,,,,,,,,,,,,,,,,其他,e,,,e,1,0.6305,1,75,155,69,1,,
,,,,,,,,,,,,,,用户62264,001,2024-08-23_14h04.49.374,IAT(Formal),2021.2.3,Win32,29.76190476,,,,,,,,,,,,,,,,,,,,,,,,,,,,,,,,,,,,,,,,,,,,,,,,,,,,他,e,,,e,1,0.4433,1,76,156,75,1,,
,,,,,,,,,,,,,,用户62264,001,2024-08-23_14h04.49.374,IAT(Formal),2021.2.3,Win32,29.76190476,,,,,,,,,,,,,,,,,,,,,,,,,,,,,,,,,,,,,,,,,,,,,,,,,,,,聪明,e,,,e,1,0.5505,1,77,157,12,1,,
,,,,,,,,,,,,,,用户62264,001,2024-08-23_14h04.49.374,IAT(Formal),2021.2.3,Win32,29.76190476,,,,,,,,,,,,,,,,,,,,,,,,,,,,,,,,,,,,,,,,,,,,,,,,,,,,自私,i,,,i,1,0.4712,1,78,158,43,1,,
,,,,,,,,,,,,,,用户62264,001,2024-08-23_14h04.49.374,IAT(Formal),2021.2.3,Win32,29.76190476,,,,,,,,,,,,,,,,,,,,,,,,,,,,,,,,,,,,,,,,,,,,,,,,,,,,我,i,,,i,1,0.4981,1,79,159,50,1,,
,,,,,,,,,,,,,,用户62264,001,2024-08-23_14h04.49.374,IAT(Formal),2021.2.3,Win32,29.76190476,,,,,,,,,,,,,,,,,,,,,,,,,,,,,,,,,,,,,,,,,,,,,,,,,,,,,,,,,,,,,,,,space,1.197