﻿Instruction1.keys,Instruction1.rt,Instruction2.keys,Instruction2.rt,key_resp_iso.keys,key_resp_iso.corr,key_resp_iso.rt,Practice_01.thisRepN,Practice_01.thisTrialN,Practice_01.thisN,Practice_01.thisIndex,Practice_01.ran,Words,ans,participant,session,date,expName,psychopyVersion,OS,frameRate,key_resp_3.keys,key_resp_3.rt,key_resp_ipn.keys,key_resp_ipn.corr,key_resp_ipn.rt,Practice_02.thisRepN,Practice_02.thisTrialN,Practice_02.thisN,Practice_02.thisIndex,Practice_02.ran,Words_ipn,ans_ipn,key_resp_4.keys,key_resp_4.rt,key_resp_t1.keys,key_resp_t1.corr,key_resp_t1.rt,Practice_T1.thisRepN,Practice_T1.thisTrialN,Practice_T1.thisN,Practice_T1.thisIndex,Practice_T1.ran,Words_t1,ans_t1,key_resp_5.keys,key_resp_5.rt,Formal_T1.thisRepN,Formal_T1.thisTrialN,Formal_T1.thisN,Formal_T1.thisIndex,Formal_T1.ran,key_resp_6.keys,key_resp_6.rt,key_resp_iso_reverse.keys,key_resp_iso_reverse.corr,key_resp_iso_reverse.rt,Practice_iso_Reverse.thisRepN,Practice_iso_Reverse.thisTrialN,Practice_iso_Reverse.thisN,Practice_iso_Reverse.thisIndex,Practice_iso_Reverse.ran,key_resp_7.keys,key_resp_7.rt,key_resp_t2_Practice.keys,key_resp_t2_Practice.corr,key_resp_t2_Practice.rt,Practice_t2_Reverse.thisRepN,Practice_t2_Reverse.thisTrialN,Practice_t2_Reverse.thisN,Practice_t2_Reverse.thisIndex,Practice_t2_Reverse.ran,Words_t2,ans_t2,key_resp_8.keys,key_resp_8.rt,key_resp_t2.keys,key_resp_t2.corr,key_resp_t2.rt,Formal_t2_reverse.thisRepN,Formal_t2_reverse.thisTrialN,Formal_t2_reverse.thisN,Formal_t2_reverse.thisIndex,Formal_t2_reverse.ran,key_instruct.keys,key_instruct.rt
space,11.4736,space,8.2007,i,1,0.5541,0,0,0,8,1,他人,i,1,001,2025-01-03_23h42.07.419,IAT(Formal),2021.2.3,Win32,60.24096386,,,,,,,,,,,,,,,,,,,,,,,,,,,,,,,,,,,,,,,,,,,,,,,,,,,,,,,,,,,,,,,,,
,,,,i,1,0.5597,0,1,1,9,1,其他,i,1,001,2025-01-03_23h42.07.419,IAT(Formal),2021.2.3,Win32,60.24096386,,,,,,,,,,,,,,,,,,,,,,,,,,,,,,,,,,,,,,,,,,,,,,,,,,,,,,,,,,,,,,,,,
,,,,e,1,0.4379,0,2,2,1,1,我的,e,1,001,2025-01-03_23h42.07.419,IAT(Formal),2021.2.3,Win32,60.24096386,,,,,,,,,,,,,,,,,,,,,,,,,,,,,,,,,,,,,,,,,,,,,,,,,,,,,,,,,,,,,,,,,
,,,,e,1,0.4356,0,3,3,4,1,俺,e,1,001,2025-01-03_23h42.07.419,IAT(Formal),2021.2.3,Win32,60.24096386,,,,,,,,,,,,,,,,,,,,,,,,,,,,,,,,,,,,,,,,,,,,,,,,,,,,,,,,,,,,,,,,,
,,,,i,1,0.4978,0,4,4,6,1,他们,i,1,001,2025-01-03_23h42.07.419,IAT(Formal),2021.2.3,Win32,60.24096386,,,,,,,,,,,,,,,,,,,,,,,,,,,,,,,,,,,,,,,,,,,,,,,,,,,,,,,,,,,,,,,,,
,,,,i,1,0.4664,0,5,5,7,1,他的,i,1,001,2025-01-03_23h42.07.419,IAT(Formal),2021.2.3,Win32,60.24096386,,,,,,,,,,,,,,,,,,,,,,,,,,,,,,,,,,,,,,,,,,,,,,,,,,,,,,,,,,,,,,,,,
,,,,e,1,0.428,0,6,6,3,1,自己,e,1,001,2025-01-03_23h42.07.419,IAT(Formal),2021.2.3,Win32,60.24096386,,,,,,,,,,,,,,,,,,,,,,,,,,,,,,,,,,,,,,,,,,,,,,,,,,,,,,,,,,,,,,,,,
,,,,e,1,0.4522,0,7,7,2,1,我们,e,1,001,2025-01-03_23h42.07.419,IAT(Formal),2021.2.3,Win32,60.24096386,,,,,,,,,,,,,,,,,,,,,,,,,,,,,,,,,,,,,,,,,,,,,,,,,,,,,,,,,,,,,,,,,
,,,,e,1,0.4166,0,8,8,0,1,我,e,1,001,2025-01-03_23h42.07.419,IAT(Formal),2021.2.3,Win32,60.24096386,,,,,,,,,,,,,,,,,,,,,,,,,,,,,,,,,,,,,,,,,,,,,,,,,,,,,,,,,,,,,,,,,
,,,,i,1,0.4614,0,9,9,5,1,他,i,1,001,2025-01-03_23h42.07.419,IAT(Formal),2021.2.3,Win32,60.24096386,,,,,,,,,,,,,,,,,,,,,,,,,,,,,,,,,,,,,,,,,,,,,,,,,,,,,,,,,,,,,,,,,
,,,,,,,,,,,,,,1,001,2025-01-03_23h42.07.419,IAT(Formal),2021.2.3,Win32,60.24096386,space,5.544,i,1,0.4523,0,0,0,27,1,傲慢,i,,,,,,,,,,,,,,,,,,,,,,,,,,,,,,,,,,,,,,,,,,,,,,,,,,,,,
,,,,,,,,,,,,,,1,001,2025-01-03_23h42.07.419,IAT(Formal),2021.2.3,Win32,60.24096386,,,e,1,0.5491,0,1,1,6,1,正直,e,,,,,,,,,,,,,,,,,,,,,,,,,,,,,,,,,,,,,,,,,,,,,,,,,,,,,
,,,,,,,,,,,,,,1,001,2025-01-03_23h42.07.419,IAT(Formal),2021.2.3,Win32,60.24096386,,,i,1,0.4811,0,2,2,34,1,暴躁,i,,,,,,,,,,,,,,,,,,,,,,,,,,,,,,,,,,,,,,,,,,,,,,,,,,,,,
,,,,,,,,,,,,,,1,001,2025-01-03_23h42.07.419,IAT(Formal),2021.2.3,Win32,60.24096386,,,i,1,0.5949,0,3,3,33,1,自私,i,,,,,,,,,,,,,,,,,,,,,,,,,,,,,,,,,,,,,,,,,,,,,,,,,,,,,
,,,,,,,,,,,,,,1,001,2025-01-03_23h42.07.419,IAT(Formal),2021.2.3,Win32,60.24096386,,,e,1,0.3928,0,4,4,14,1,朴实,e,,,,,,,,,,,,,,,,,,,,,,,,,,,,,,,,,,,,,,,,,,,,,,,,,,,,,
,,,,,,,,,,,,,,1,001,2025-01-03_23h42.07.419,IAT(Formal),2021.2.3,Win32,60.24096386,,,e,1,0.3929,0,5,5,10,1,认真,e,,,,,,,,,,,,,,,,,,,,,,,,,,,,,,,,,,,,,,,,,,,,,,,,,,,,,
,,,,,,,,,,,,,,1,001,2025-01-03_23h42.07.419,IAT(Formal),2021.2.3,Win32,60.24096386,,,e,1,0.4432,0,6,6,8,1,勤奋,e,,,,,,,,,,,,,,,,,,,,,,,,,,,,,,,,,,,,,,,,,,,,,,,,,,,,,
,,,,,,,,,,,,,,1,001,2025-01-03_23h42.07.419,IAT(Formal),2021.2.3,Win32,60.24096386,,,e,1,0.4109,0,7,7,13,1,公正,e,,,,,,,,,,,,,,,,,,,,,,,,,,,,,,,,,,,,,,,,,,,,,,,,,,,,,
,,,,,,,,,,,,,,1,001,2025-01-03_23h42.07.419,IAT(Formal),2021.2.3,Win32,60.24096386,,,i,1,0.5371,0,8,8,35,1,猖狂,i,,,,,,,,,,,,,,,,,,,,,,,,,,,,,,,,,,,,,,,,,,,,,,,,,,,,,
,,,,,,,,,,,,,,1,001,2025-01-03_23h42.07.419,IAT(Formal),2021.2.3,Win32,60.24096386,,,e,1,0.391,0,9,9,4,1,乐观,e,,,,,,,,,,,,,,,,,,,,,,,,,,,,,,,,,,,,,,,,,,,,,,,,,,,,,
,,,,,,,,,,,,,,1,001,2025-01-03_23h42.07.419,IAT(Formal),2021.2.3,Win32,60.24096386,,,e,1,0.4119,0,10,10,19,1,诚恳,e,,,,,,,,,,,,,,,,,,,,,,,,,,,,,,,,,,,,,,,,,,,,,,,,,,,,,
,,,,,,,,,,,,,,1,001,2025-01-03_23h42.07.419,IAT(Formal),2021.2.3,Win32,60.24096386,,,e,1,0.395,0,11,11,5,1,诚实,e,,,,,,,,,,,,,,,,,,,,,,,,,,,,,,,,,,,,,,,,,,,,,,,,,,,,,
,,,,,,,,,,,,,,1,001,2025-01-03_23h42.07.419,IAT(Formal),2021.2.3,Win32,60.24096386,,,i,1,0.6426,0,12,12,30,1,执拗,i,,,,,,,,,,,,,,,,,,,,,,,,,,,,,,,,,,,,,,,,,,,,,,,,,,,,,
,,,,,,,,,,,,,,1,001,2025-01-03_23h42.07.419,IAT(Formal),2021.2.3,Win32,60.24096386,,,e,1,0.4749,0,13,13,0,1,优秀,e,,,,,,,,,,,,,,,,,,,,,,,,,,,,,,,,,,,,,,,,,,,,,,,,,,,,,
,,,,,,,,,,,,,,1,001,2025-01-03_23h42.07.419,IAT(Formal),2021.2.3,Win32,60.24096386,,,i,1,0.5607,0,14,14,32,1,凶狠,i,,,,,,,,,,,,,,,,,,,,,,,,,,,,,,,,,,,,,,,,,,,,,,,,,,,,,
,,,,,,,,,,,,,,1,001,2025-01-03_23h42.07.419,IAT(Formal),2021.2.3,Win32,60.24096386,,,e,1,0.4702,0,15,15,17,1,热情,e,,,,,,,,,,,,,,,,,,,,,,,,,,,,,,,,,,,,,,,,,,,,,,,,,,,,,
,,,,,,,,,,,,,,1,001,2025-01-03_23h42.07.419,IAT(Formal),2021.2.3,Win32,60.24096386,,,e,1,0.5459,0,16,16,12,1,无私,e,,,,,,,,,,,,,,,,,,,,,,,,,,,,,,,,,,,,,,,,,,,,,,,,,,,,,
,,,,,,,,,,,,,,1,001,2025-01-03_23h42.07.419,IAT(Formal),2021.2.3,Win32,60.24096386,,,i,1,0.5993,0,17,17,37,1,固执,i,,,,,,,,,,,,,,,,,,,,,,,,,,,,,,,,,,,,,,,,,,,,,,,,,,,,,
,,,,,,,,,,,,,,1,001,2025-01-03_23h42.07.419,IAT(Formal),2021.2.3,Win32,60.24096386,,,e,1,0.6671,0,18,18,16,1,冷静,e,,,,,,,,,,,,,,,,,,,,,,,,,,,,,,,,,,,,,,,,,,,,,,,,,,,,,
,,,,,,,,,,,,,,1,001,2025-01-03_23h42.07.419,IAT(Formal),2021.2.3,Win32,60.24096386,,,i,1,0.532,0,19,19,25,1,消极,i,,,,,,,,,,,,,,,,,,,,,,,,,,,,,,,,,,,,,,,,,,,,,,,,,,,,,
,,,,,,,,,,,,,,1,001,2025-01-03_23h42.07.419,IAT(Formal),2021.2.3,Win32,60.24096386,,,i,1,0.5497,0,20,20,29,1,冒失,i,,,,,,,,,,,,,,,,,,,,,,,,,,,,,,,,,,,,,,,,,,,,,,,,,,,,,
,,,,,,,,,,,,,,1,001,2025-01-03_23h42.07.419,IAT(Formal),2021.2.3,Win32,60.24096386,,,i,1,0.512,0,21,21,31,1,散漫,i,,,,,,,,,,,,,,,,,,,,,,,,,,,,,,,,,,,,,,,,,,,,,,,,,,,,,
,,,,,,,,,,,,,,1,001,2025-01-03_23h42.07.419,IAT(Formal),2021.2.3,Win32,60.24096386,,,i,1,0.4383,0,22,22,39,1,下贱,i,,,,,,,,,,,,,,,,,,,,,,,,,,,,,,,,,,,,,,,,,,,,,,,,,,,,,
,,,,,,,,,,,,,,1,001,2025-01-03_23h42.07.419,IAT(Formal),2021.2.3,Win32,60.24096386,,,e,1,0.5027,0,23,23,11,1,稳重,e,,,,,,,,,,,,,,,,,,,,,,,,,,,,,,,,,,,,,,,,,,,,,,,,,,,,,
,,,,,,,,,,,,,,1,001,2025-01-03_23h42.07.419,IAT(Formal),2021.2.3,Win32,60.24096386,,,i,1,0.5218,0,24,24,21,1,虚伪,i,,,,,,,,,,,,,,,,,,,,,,,,,,,,,,,,,,,,,,,,,,,,,,,,,,,,,
,,,,,,,,,,,,,,1,001,2025-01-03_23h42.07.419,IAT(Formal),2021.2.3,Win32,60.24096386,,,i,1,0.5553,0,25,25,26,1,自卑,i,,,,,,,,,,,,,,,,,,,,,,,,,,,,,,,,,,,,,,,,,,,,,,,,,,,,,
,,,,,,,,,,,,,,1,001,2025-01-03_23h42.07.419,IAT(Formal),2021.2.3,Win32,60.24096386,,,e,1,0.5234,0,26,26,3,1,杰出,e,,,,,,,,,,,,,,,,,,,,,,,,,,,,,,,,,,,,,,,,,,,,,,,,,,,,,
,,,,,,,,,,,,,,1,001,2025-01-03_23h42.07.419,IAT(Formal),2021.2.3,Win32,60.24096386,,,i,1,0.5377,0,27,27,22,1,愚蠢,i,,,,,,,,,,,,,,,,,,,,,,,,,,,,,,,,,,,,,,,,,,,,,,,,,,,,,
,,,,,,,,,,,,,,1,001,2025-01-03_23h42.07.419,IAT(Formal),2021.2.3,Win32,60.24096386,,,i,1,0.4734,0,28,28,20,1,卑鄙,i,,,,,,,,,,,,,,,,,,,,,,,,,,,,,,,,,,,,,,,,,,,,,,,,,,,,,
,,,,,,,,,,,,,,1,001,2025-01-03_23h42.07.419,IAT(Formal),2021.2.3,Win32,60.24096386,,,e,0,0.4415,0,29,29,24,1,悲观,i,,,,,,,,,,,,,,,,,,,,,,,,,,,,,,,,,,,,,,,,,,,,,,,,,,,,,
,,,,,,,,,,,,,,1,001,2025-01-03_23h42.07.419,IAT(Formal),2021.2.3,Win32,60.24096386,,,i,1,0.5783,0,30,30,28,1,鲁莽,i,,,,,,,,,,,,,,,,,,,,,,,,,,,,,,,,,,,,,,,,,,,,,,,,,,,,,
,,,,,,,,,,,,,,1,001,2025-01-03_23h42.07.419,IAT(Formal),2021.2.3,Win32,60.24096386,,,i,1,0.4991,0,31,31,23,1,刻薄,i,,,,,,,,,,,,,,,,,,,,,,,,,,,,,,,,,,,,,,,,,,,,,,,,,,,,,
,,,,,,,,,,,,,,1,001,2025-01-03_23h42.07.419,IAT(Formal),2021.2.3,Win32,60.24096386,,,e,1,0.7062,0,32,32,18,1,活泼,e,,,,,,,,,,,,,,,,,,,,,,,,,,,,,,,,,,,,,,,,,,,,,,,,,,,,,
,,,,,,,,,,,,,,1,001,2025-01-03_23h42.07.419,IAT(Formal),2021.2.3,Win32,60.24096386,,,e,1,0.4905,0,33,33,9,1,机智,e,,,,,,,,,,,,,,,,,,,,,,,,,,,,,,,,,,,,,,,,,,,,,,,,,,,,,
,,,,,,,,,,,,,,1,001,2025-01-03_23h42.07.419,IAT(Formal),2021.2.3,Win32,60.24096386,,,i,1,0.535,0,34,34,38,1,轻率,i,,,,,,,,,,,,,,,,,,,,,,,,,,,,,,,,,,,,,,,,,,,,,,,,,,,,,
,,,,,,,,,,,,,,1,001,2025-01-03_23h42.07.419,IAT(Formal),2021.2.3,Win32,60.24096386,,,e,1,0.4379,0,35,35,2,1,聪明,e,,,,,,,,,,,,,,,,,,,,,,,,,,,,,,,,,,,,,,,,,,,,,,,,,,,,,
,,,,,,,,,,,,,,1,001,2025-01-03_23h42.07.419,IAT(Formal),2021.2.3,Win32,60.24096386,,,e,1,0.5187,0,36,36,7,1,勇敢,e,,,,,,,,,,,,,,,,,,,,,,,,,,,,,,,,,,,,,,,,,,,,,,,,,,,,,
,,,,,,,,,,,,,,1,001,2025-01-03_23h42.07.419,IAT(Formal),2021.2.3,Win32,60.24096386,,,i,1,0.6721,0,37,37,36,1,野蛮,i,,,,,,,,,,,,,,,,,,,,,,,,,,,,,,,,,,,,,,,,,,,,,,,,,,,,,
,,,,,,,,,,,,,,1,001,2025-01-03_23h42.07.419,IAT(Formal),2021.2.3,Win32,60.24096386,,,e,1,0.5534,0,38,38,1,1,崇高,e,,,,,,,,,,,,,,,,,,,,,,,,,,,,,,,,,,,,,,,,,,,,,,,,,,,,,
,,,,,,,,,,,,,,1,001,2025-01-03_23h42.07.419,IAT(Formal),2021.2.3,Win32,60.24096386,,,i,0,0.4935,0,39,39,15,1,细腻,e,,,,,,,,,,,,,,,,,,,,,,,,,,,,,,,,,,,,,,,,,,,,,,,,,,,,,
,,,,,,,,,,,,,,1,001,2025-01-03_23h42.07.419,IAT(Formal),2021.2.3,Win32,60.24096386,,,,,,,,,,,,,space,7.1534,i,1,1.2501,0,0,0,6,1,他们,i,,,,,,,,,,,,,,,,,,,,,,,,,,,,,,,,,,,,,,,,,
,,,,,,,,,,,,,,1,001,2025-01-03_23h42.07.419,IAT(Formal),2021.2.3,Win32,60.24096386,,,,,,,,,,,,,,,e,1,1.0444,0,1,1,16,1,正直,e,,,,,,,,,,,,,,,,,,,,,,,,,,,,,,,,,,,,,,,,,
,,,,,,,,,,,,,,1,001,2025-01-03_23h42.07.419,IAT(Formal),2021.2.3,Win32,60.24096386,,,,,,,,,,,,,,,i,1,0.7241,0,2,2,36,1,自卑,i,,,,,,,,,,,,,,,,,,,,,,,,,,,,,,,,,,,,,,,,,
,,,,,,,,,,,,,,1,001,2025-01-03_23h42.07.419,IAT(Formal),2021.2.3,Win32,60.24096386,,,,,,,,,,,,,,,e,1,0.5993,0,3,3,53,1,自己,e,,,,,,,,,,,,,,,,,,,,,,,,,,,,,,,,,,,,,,,,,
,,,,,,,,,,,,,,1,001,2025-01-03_23h42.07.419,IAT(Formal),2021.2.3,Win32,60.24096386,,,,,,,,,,,,,,,e,1,0.4505,0,4,4,28,1,活泼,e,,,,,,,,,,,,,,,,,,,,,,,,,,,,,,,,,,,,,,,,,
,,,,,,,,,,,,,,1,001,2025-01-03_23h42.07.419,IAT(Formal),2021.2.3,Win32,60.24096386,,,,,,,,,,,,,,,i,1,0.4742,0,5,5,39,1,冒失,i,,,,,,,,,,,,,,,,,,,,,,,,,,,,,,,,,,,,,,,,,
,,,,,,,,,,,,,,1,001,2025-01-03_23h42.07.419,IAT(Formal),2021.2.3,Win32,60.24096386,,,,,,,,,,,,,,,i,1,0.437,0,6,6,78,1,他人,i,,,,,,,,,,,,,,,,,,,,,,,,,,,,,,,,,,,,,,,,,
,,,,,,,,,,,,,,1,001,2025-01-03_23h42.07.419,IAT(Formal),2021.2.3,Win32,60.24096386,,,,,,,,,,,,,,,i,1,0.4083,0,7,7,65,1,他,i,,,,,,,,,,,,,,,,,,,,,,,,,,,,,,,,,,,,,,,,,
,,,,,,,,,,,,,,1,001,2025-01-03_23h42.07.419,IAT(Formal),2021.2.3,Win32,60.24096386,,,,,,,,,,,,,,,i,1,0.4862,0,8,8,48,1,轻率,i,,,,,,,,,,,,,,,,,,,,,,,,,,,,,,,,,,,,,,,,,
,,,,,,,,,,,,,,1,001,2025-01-03_23h42.07.419,IAT(Formal),2021.2.3,Win32,60.24096386,,,,,,,,,,,,,,,i,1,0.4678,0,9,9,38,1,鲁莽,i,,,,,,,,,,,,,,,,,,,,,,,,,,,,,,,,,,,,,,,,,
,,,,,,,,,,,,,,1,001,2025-01-03_23h42.07.419,IAT(Formal),2021.2.3,Win32,60.24096386,,,,,,,,,,,,,,,i,1,0.4587,0,10,10,47,1,固执,i,,,,,,,,,,,,,,,,,,,,,,,,,,,,,,,,,,,,,,,,,
,,,,,,,,,,,,,,1,001,2025-01-03_23h42.07.419,IAT(Formal),2021.2.3,Win32,60.24096386,,,,,,,,,,,,,,,e,1,0.6196,0,11,11,0,1,我,e,,,,,,,,,,,,,,,,,,,,,,,,,,,,,,,,,,,,,,,,,
,,,,,,,,,,,,,,1,001,2025-01-03_23h42.07.419,IAT(Formal),2021.2.3,Win32,60.24096386,,,,,,,,,,,,,,,i,1,0.6176,0,12,12,77,1,他的,i,,,,,,,,,,,,,,,,,,,,,,,,,,,,,,,,,,,,,,,,,
,,,,,,,,,,,,,,1,001,2025-01-03_23h42.07.419,IAT(Formal),2021.2.3,Win32,60.24096386,,,,,,,,,,,,,,,i,1,0.4006,0,13,13,79,1,其他,i,,,,,,,,,,,,,,,,,,,,,,,,,,,,,,,,,,,,,,,,,
,,,,,,,,,,,,,,1,001,2025-01-03_23h42.07.419,IAT(Formal),2021.2.3,Win32,60.24096386,,,,,,,,,,,,,,,e,1,0.391,0,14,14,50,1,我,e,,,,,,,,,,,,,,,,,,,,,,,,,,,,,,,,,,,,,,,,,
,,,,,,,,,,,,,,1,001,2025-01-03_23h42.07.419,IAT(Formal),2021.2.3,Win32,60.24096386,,,,,,,,,,,,,,,i,0,0.5544,0,15,15,4,1,俺,e,,,,,,,,,,,,,,,,,,,,,,,,,,,,,,,,,,,,,,,,,
,,,,,,,,,,,,,,1,001,2025-01-03_23h42.07.419,IAT(Formal),2021.2.3,Win32,60.24096386,,,,,,,,,,,,,,,i,1,0.4621,0,16,16,32,1,愚蠢,i,,,,,,,,,,,,,,,,,,,,,,,,,,,,,,,,,,,,,,,,,
,,,,,,,,,,,,,,1,001,2025-01-03_23h42.07.419,IAT(Formal),2021.2.3,Win32,60.24096386,,,,,,,,,,,,,,,e,1,0.6129,0,17,17,21,1,稳重,e,,,,,,,,,,,,,,,,,,,,,,,,,,,,,,,,,,,,,,,,,
,,,,,,,,,,,,,,1,001,2025-01-03_23h42.07.419,IAT(Formal),2021.2.3,Win32,60.24096386,,,,,,,,,,,,,,,e,1,0.4941,0,18,18,13,1,杰出,e,,,,,,,,,,,,,,,,,,,,,,,,,,,,,,,,,,,,,,,,,
,,,,,,,,,,,,,,1,001,2025-01-03_23h42.07.419,IAT(Formal),2021.2.3,Win32,60.24096386,,,,,,,,,,,,,,,e,1,0.4514,0,19,19,29,1,诚恳,e,,,,,,,,,,,,,,,,,,,,,,,,,,,,,,,,,,,,,,,,,
,,,,,,,,,,,,,,1,001,2025-01-03_23h42.07.419,IAT(Formal),2021.2.3,Win32,60.24096386,,,,,,,,,,,,,,,e,1,0.4326,0,20,20,62,1,我们,e,,,,,,,,,,,,,,,,,,,,,,,,,,,,,,,,,,,,,,,,,
,,,,,,,,,,,,,,1,001,2025-01-03_23h42.07.419,IAT(Formal),2021.2.3,Win32,60.24096386,,,,,,,,,,,,,,,e,1,0.5026,0,21,21,72,1,我们,e,,,,,,,,,,,,,,,,,,,,,,,,,,,,,,,,,,,,,,,,,
,,,,,,,,,,,,,,1,001,2025-01-03_23h42.07.419,IAT(Formal),2021.2.3,Win32,60.24096386,,,,,,,,,,,,,,,i,1,0.4734,0,22,22,7,1,他的,i,,,,,,,,,,,,,,,,,,,,,,,,,,,,,,,,,,,,,,,,,
,,,,,,,,,,,,,,1,001,2025-01-03_23h42.07.419,IAT(Formal),2021.2.3,Win32,60.24096386,,,,,,,,,,,,,,,e,1,0.4061,0,23,23,51,1,我的,e,,,,,,,,,,,,,,,,,,,,,,,,,,,,,,,,,,,,,,,,,
,,,,,,,,,,,,,,1,001,2025-01-03_23h42.07.419,IAT(Formal),2021.2.3,Win32,60.24096386,,,,,,,,,,,,,,,e,0,0.3746,0,24,24,75,1,他,i,,,,,,,,,,,,,,,,,,,,,,,,,,,,,,,,,,,,,,,,,
,,,,,,,,,,,,,,1,001,2025-01-03_23h42.07.419,IAT(Formal),2021.2.3,Win32,60.24096386,,,,,,,,,,,,,,,i,1,0.5907,0,25,25,31,1,虚伪,i,,,,,,,,,,,,,,,,,,,,,,,,,,,,,,,,,,,,,,,,,
,,,,,,,,,,,,,,1,001,2025-01-03_23h42.07.419,IAT(Formal),2021.2.3,Win32,60.24096386,,,,,,,,,,,,,,,i,1,0.4494,0,26,26,66,1,他们,i,,,,,,,,,,,,,,,,,,,,,,,,,,,,,,,,,,,,,,,,,
,,,,,,,,,,,,,,1,001,2025-01-03_23h42.07.419,IAT(Formal),2021.2.3,Win32,60.24096386,,,,,,,,,,,,,,,e,1,0.4287,0,27,27,61,1,我的,e,,,,,,,,,,,,,,,,,,,,,,,,,,,,,,,,,,,,,,,,,
,,,,,,,,,,,,,,1,001,2025-01-03_23h42.07.419,IAT(Formal),2021.2.3,Win32,60.24096386,,,,,,,,,,,,,,,e,1,0.4725,0,28,28,12,1,聪明,e,,,,,,,,,,,,,,,,,,,,,,,,,,,,,,,,,,,,,,,,,
,,,,,,,,,,,,,,1,001,2025-01-03_23h42.07.419,IAT(Formal),2021.2.3,Win32,60.24096386,,,,,,,,,,,,,,,i,1,0.4554,0,29,29,45,1,猖狂,i,,,,,,,,,,,,,,,,,,,,,,,,,,,,,,,,,,,,,,,,,
,,,,,,,,,,,,,,1,001,2025-01-03_23h42.07.419,IAT(Formal),2021.2.3,Win32,60.24096386,,,,,,,,,,,,,,,e,1,0.9842,0,30,30,63,1,自己,e,,,,,,,,,,,,,,,,,,,,,,,,,,,,,,,,,,,,,,,,,
,,,,,,,,,,,,,,1,001,2025-01-03_23h42.07.419,IAT(Formal),2021.2.3,Win32,60.24096386,,,,,,,,,,,,,,,i,1,0.626,0,31,31,33,1,刻薄,i,,,,,,,,,,,,,,,,,,,,,,,,,,,,,,,,,,,,,,,,,
,,,,,,,,,,,,,,1,001,2025-01-03_23h42.07.419,IAT(Formal),2021.2.3,Win32,60.24096386,,,,,,,,,,,,,,,i,1,0.616,0,32,32,56,1,他们,i,,,,,,,,,,,,,,,,,,,,,,,,,,,,,,,,,,,,,,,,,
,,,,,,,,,,,,,,1,001,2025-01-03_23h42.07.419,IAT(Formal),2021.2.3,Win32,60.24096386,,,,,,,,,,,,,,,i,1,1.0189,0,33,33,34,1,悲观,i,,,,,,,,,,,,,,,,,,,,,,,,,,,,,,,,,,,,,,,,,
,,,,,,,,,,,,,,1,001,2025-01-03_23h42.07.419,IAT(Formal),2021.2.3,Win32,60.24096386,,,,,,,,,,,,,,,e,1,0.5386,0,34,34,71,1,我的,e,,,,,,,,,,,,,,,,,,,,,,,,,,,,,,,,,,,,,,,,,
,,,,,,,,,,,,,,1,001,2025-01-03_23h42.07.419,IAT(Formal),2021.2.3,Win32,60.24096386,,,,,,,,,,,,,,,e,1,0.489,0,35,35,20,1,认真,e,,,,,,,,,,,,,,,,,,,,,,,,,,,,,,,,,,,,,,,,,
,,,,,,,,,,,,,,1,001,2025-01-03_23h42.07.419,IAT(Formal),2021.2.3,Win32,60.24096386,,,,,,,,,,,,,,,e,1,0.4167,0,36,36,3,1,自己,e,,,,,,,,,,,,,,,,,,,,,,,,,,,,,,,,,,,,,,,,,
,,,,,,,,,,,,,,1,001,2025-01-03_23h42.07.419,IAT(Formal),2021.2.3,Win32,60.24096386,,,,,,,,,,,,,,,i,1,0.5036,0,37,37,5,1,他,i,,,,,,,,,,,,,,,,,,,,,,,,,,,,,,,,,,,,,,,,,
,,,,,,,,,,,,,,1,001,2025-01-03_23h42.07.419,IAT(Formal),2021.2.3,Win32,60.24096386,,,,,,,,,,,,,,,i,1,0.4792,0,38,38,68,1,他人,i,,,,,,,,,,,,,,,,,,,,,,,,,,,,,,,,,,,,,,,,,
,,,,,,,,,,,,,,1,001,2025-01-03_23h42.07.419,IAT(Formal),2021.2.3,Win32,60.24096386,,,,,,,,,,,,,,,e,1,0.5627,0,39,39,11,1,崇高,e,,,,,,,,,,,,,,,,,,,,,,,,,,,,,,,,,,,,,,,,,
,,,,,,,,,,,,,,1,001,2025-01-03_23h42.07.419,IAT(Formal),2021.2.3,Win32,60.24096386,,,,,,,,,,,,,,,i,1,0.5411,0,40,40,57,1,他的,i,,,,,,,,,,,,,,,,,,,,,,,,,,,,,,,,,,,,,,,,,
,,,,,,,,,,,,,,1,001,2025-01-03_23h42.07.419,IAT(Formal),2021.2.3,Win32,60.24096386,,,,,,,,,,,,,,,i,0,0.4992,0,41,41,19,1,机智,e,,,,,,,,,,,,,,,,,,,,,,,,,,,,,,,,,,,,,,,,,
,,,,,,,,,,,,,,1,001,2025-01-03_23h42.07.419,IAT(Formal),2021.2.3,Win32,60.24096386,,,,,,,,,,,,,,,e,1,0.4712,0,42,42,25,1,细腻,e,,,,,,,,,,,,,,,,,,,,,,,,,,,,,,,,,,,,,,,,,
,,,,,,,,,,,,,,1,001,2025-01-03_23h42.07.419,IAT(Formal),2021.2.3,Win32,60.24096386,,,,,,,,,,,,,,,i,1,0.625,0,43,43,30,1,卑鄙,i,,,,,,,,,,,,,,,,,,,,,,,,,,,,,,,,,,,,,,,,,
,,,,,,,,,,,,,,1,001,2025-01-03_23h42.07.419,IAT(Formal),2021.2.3,Win32,60.24096386,,,,,,,,,,,,,,,i,1,0.5017,0,44,44,37,1,傲慢,i,,,,,,,,,,,,,,,,,,,,,,,,,,,,,,,,,,,,,,,,,
,,,,,,,,,,,,,,1,001,2025-01-03_23h42.07.419,IAT(Formal),2021.2.3,Win32,60.24096386,,,,,,,,,,,,,,,i,0,0.4832,0,45,45,22,1,无私,e,,,,,,,,,,,,,,,,,,,,,,,,,,,,,,,,,,,,,,,,,
,,,,,,,,,,,,,,1,001,2025-01-03_23h42.07.419,IAT(Formal),2021.2.3,Win32,60.24096386,,,,,,,,,,,,,,,e,1,0.5438,0,46,46,2,1,我们,e,,,,,,,,,,,,,,,,,,,,,,,,,,,,,,,,,,,,,,,,,
,,,,,,,,,,,,,,1,001,2025-01-03_23h42.07.419,IAT(Formal),2021.2.3,Win32,60.24096386,,,,,,,,,,,,,,,e,1,1.1923,0,47,47,64,1,俺,e,,,,,,,,,,,,,,,,,,,,,,,,,,,,,,,,,,,,,,,,,
,,,,,,,,,,,,,,1,001,2025-01-03_23h42.07.419,IAT(Formal),2021.2.3,Win32,60.24096386,,,,,,,,,,,,,,,i,1,0.5243,0,48,48,35,1,消极,i,,,,,,,,,,,,,,,,,,,,,,,,,,,,,,,,,,,,,,,,,
,,,,,,,,,,,,,,1,001,2025-01-03_23h42.07.419,IAT(Formal),2021.2.3,Win32,60.24096386,,,,,,,,,,,,,,,e,1,0.5932,0,49,49,26,1,冷静,e,,,,,,,,,,,,,,,,,,,,,,,,,,,,,,,,,,,,,,,,,
,,,,,,,,,,,,,,1,001,2025-01-03_23h42.07.419,IAT(Formal),2021.2.3,Win32,60.24096386,,,,,,,,,,,,,,,i,1,0.5775,0,50,50,67,1,他的,i,,,,,,,,,,,,,,,,,,,,,,,,,,,,,,,,,,,,,,,,,
,,,,,,,,,,,,,,1,001,2025-01-03_23h42.07.419,IAT(Formal),2021.2.3,Win32,60.24096386,,,,,,,,,,,,,,,e,1,0.5261,0,51,51,73,1,自己,e,,,,,,,,,,,,,,,,,,,,,,,,,,,,,,,,,,,,,,,,,
,,,,,,,,,,,,,,1,001,2025-01-03_23h42.07.419,IAT(Formal),2021.2.3,Win32,60.24096386,,,,,,,,,,,,,,,i,1,0.5378,0,52,52,43,1,自私,i,,,,,,,,,,,,,,,,,,,,,,,,,,,,,,,,,,,,,,,,,
,,,,,,,,,,,,,,1,001,2025-01-03_23h42.07.419,IAT(Formal),2021.2.3,Win32,60.24096386,,,,,,,,,,,,,,,i,1,0.7177,0,53,53,76,1,他们,i,,,,,,,,,,,,,,,,,,,,,,,,,,,,,,,,,,,,,,,,,
,,,,,,,,,,,,,,1,001,2025-01-03_23h42.07.419,IAT(Formal),2021.2.3,Win32,60.24096386,,,,,,,,,,,,,,,e,1,0.4418,0,54,54,60,1,我,e,,,,,,,,,,,,,,,,,,,,,,,,,,,,,,,,,,,,,,,,,
,,,,,,,,,,,,,,1,001,2025-01-03_23h42.07.419,IAT(Formal),2021.2.3,Win32,60.24096386,,,,,,,,,,,,,,,i,1,0.5189,0,55,55,44,1,暴躁,i,,,,,,,,,,,,,,,,,,,,,,,,,,,,,,,,,,,,,,,,,
,,,,,,,,,,,,,,1,001,2025-01-03_23h42.07.419,IAT(Formal),2021.2.3,Win32,60.24096386,,,,,,,,,,,,,,,e,1,0.3815,0,56,56,1,1,我的,e,,,,,,,,,,,,,,,,,,,,,,,,,,,,,,,,,,,,,,,,,
,,,,,,,,,,,,,,1,001,2025-01-03_23h42.07.419,IAT(Formal),2021.2.3,Win32,60.24096386,,,,,,,,,,,,,,,i,1,0.5138,0,57,57,42,1,凶狠,i,,,,,,,,,,,,,,,,,,,,,,,,,,,,,,,,,,,,,,,,,
,,,,,,,,,,,,,,1,001,2025-01-03_23h42.07.419,IAT(Formal),2021.2.3,Win32,60.24096386,,,,,,,,,,,,,,,i,1,0.4906,0,58,58,59,1,其他,i,,,,,,,,,,,,,,,,,,,,,,,,,,,,,,,,,,,,,,,,,
,,,,,,,,,,,,,,1,001,2025-01-03_23h42.07.419,IAT(Formal),2021.2.3,Win32,60.24096386,,,,,,,,,,,,,,,e,1,0.6,0,59,59,74,1,俺,e,,,,,,,,,,,,,,,,,,,,,,,,,,,,,,,,,,,,,,,,,
,,,,,,,,,,,,,,1,001,2025-01-03_23h42.07.419,IAT(Formal),2021.2.3,Win32,60.24096386,,,,,,,,,,,,,,,i,1,0.6849,0,60,60,9,1,其他,i,,,,,,,,,,,,,,,,,,,,,,,,,,,,,,,,,,,,,,,,,
,,,,,,,,,,,,,,1,001,2025-01-03_23h42.07.419,IAT(Formal),2021.2.3,Win32,60.24096386,,,,,,,,,,,,,,,e,1,0.6813,0,61,61,23,1,公正,e,,,,,,,,,,,,,,,,,,,,,,,,,,,,,,,,,,,,,,,,,
,,,,,,,,,,,,,,1,001,2025-01-03_23h42.07.419,IAT(Formal),2021.2.3,Win32,60.24096386,,,,,,,,,,,,,,,i,1,0.4835,0,62,62,69,1,其他,i,,,,,,,,,,,,,,,,,,,,,,,,,,,,,,,,,,,,,,,,,
,,,,,,,,,,,,,,1,001,2025-01-03_23h42.07.419,IAT(Formal),2021.2.3,Win32,60.24096386,,,,,,,,,,,,,,,e,1,0.8485,0,63,63,18,1,勤奋,e,,,,,,,,,,,,,,,,,,,,,,,,,,,,,,,,,,,,,,,,,
,,,,,,,,,,,,,,1,001,2025-01-03_23h42.07.419,IAT(Formal),2021.2.3,Win32,60.24096386,,,,,,,,,,,,,,,e,1,0.7293,0,64,64,52,1,我们,e,,,,,,,,,,,,,,,,,,,,,,,,,,,,,,,,,,,,,,,,,
,,,,,,,,,,,,,,1,001,2025-01-03_23h42.07.419,IAT(Formal),2021.2.3,Win32,60.24096386,,,,,,,,,,,,,,,e,1,0.4905,0,65,65,54,1,俺,e,,,,,,,,,,,,,,,,,,,,,,,,,,,,,,,,,,,,,,,,,
,,,,,,,,,,,,,,1,001,2025-01-03_23h42.07.419,IAT(Formal),2021.2.3,Win32,60.24096386,,,,,,,,,,,,,,,i,1,0.5298,0,66,66,55,1,他,i,,,,,,,,,,,,,,,,,,,,,,,,,,,,,,,,,,,,,,,,,
,,,,,,,,,,,,,,1,001,2025-01-03_23h42.07.419,IAT(Formal),2021.2.3,Win32,60.24096386,,,,,,,,,,,,,,,i,1,0.4593,0,67,67,49,1,下贱,i,,,,,,,,,,,,,,,,,,,,,,,,,,,,,,,,,,,,,,,,,
,,,,,,,,,,,,,,1,001,2025-01-03_23h42.07.419,IAT(Formal),2021.2.3,Win32,60.24096386,,,,,,,,,,,,,,,i,1,0.4753,0,68,68,58,1,他人,i,,,,,,,,,,,,,,,,,,,,,,,,,,,,,,,,,,,,,,,,,
,,,,,,,,,,,,,,1,001,2025-01-03_23h42.07.419,IAT(Formal),2021.2.3,Win32,60.24096386,,,,,,,,,,,,,,,e,1,0.4186,0,69,69,70,1,我,e,,,,,,,,,,,,,,,,,,,,,,,,,,,,,,,,,,,,,,,,,
,,,,,,,,,,,,,,1,001,2025-01-03_23h42.07.419,IAT(Formal),2021.2.3,Win32,60.24096386,,,,,,,,,,,,,,,i,1,0.459,0,70,70,8,1,他人,i,,,,,,,,,,,,,,,,,,,,,,,,,,,,,,,,,,,,,,,,,
,,,,,,,,,,,,,,1,001,2025-01-03_23h42.07.419,IAT(Formal),2021.2.3,Win32,60.24096386,,,,,,,,,,,,,,,e,1,0.5198,0,71,71,15,1,诚实,e,,,,,,,,,,,,,,,,,,,,,,,,,,,,,,,,,,,,,,,,,
,,,,,,,,,,,,,,1,001,2025-01-03_23h42.07.419,IAT(Formal),2021.2.3,Win32,60.24096386,,,,,,,,,,,,,,,e,0,0.4797,0,72,72,40,1,执拗,i,,,,,,,,,,,,,,,,,,,,,,,,,,,,,,,,,,,,,,,,,
,,,,,,,,,,,,,,1,001,2025-01-03_23h42.07.419,IAT(Formal),2021.2.3,Win32,60.24096386,,,,,,,,,,,,,,,e,1,0.4637,0,73,73,14,1,乐观,e,,,,,,,,,,,,,,,,,,,,,,,,,,,,,,,,,,,,,,,,,
,,,,,,,,,,,,,,1,001,2025-01-03_23h42.07.419,IAT(Formal),2021.2.3,Win32,60.24096386,,,,,,,,,,,,,,,e,1,0.4619,0,74,74,17,1,勇敢,e,,,,,,,,,,,,,,,,,,,,,,,,,,,,,,,,,,,,,,,,,
,,,,,,,,,,,,,,1,001,2025-01-03_23h42.07.419,IAT(Formal),2021.2.3,Win32,60.24096386,,,,,,,,,,,,,,,e,1,0.5456,0,75,75,27,1,热情,e,,,,,,,,,,,,,,,,,,,,,,,,,,,,,,,,,,,,,,,,,
,,,,,,,,,,,,,,1,001,2025-01-03_23h42.07.419,IAT(Formal),2021.2.3,Win32,60.24096386,,,,,,,,,,,,,,,i,1,0.3818,0,76,76,46,1,野蛮,i,,,,,,,,,,,,,,,,,,,,,,,,,,,,,,,,,,,,,,,,,
,,,,,,,,,,,,,,1,001,2025-01-03_23h42.07.419,IAT(Formal),2021.2.3,Win32,60.24096386,,,,,,,,,,,,,,,i,1,0.5311,0,77,77,41,1,散漫,i,,,,,,,,,,,,,,,,,,,,,,,,,,,,,,,,,,,,,,,,,
,,,,,,,,,,,,,,1,001,2025-01-03_23h42.07.419,IAT(Formal),2021.2.3,Win32,60.24096386,,,,,,,,,,,,,,,e,1,0.606,0,78,78,24,1,朴实,e,,,,,,,,,,,,,,,,,,,,,,,,,,,,,,,,,,,,,,,,,
,,,,,,,,,,,,,,1,001,2025-01-03_23h42.07.419,IAT(Formal),2021.2.3,Win32,60.24096386,,,,,,,,,,,,,,,e,1,0.6769,0,79,79,10,1,优秀,e,,,,,,,,,,,,,,,,,,,,,,,,,,,,,,,,,,,,,,,,,
,,,,,,,,,,,,,,1,001,2025-01-03_23h42.07.419,IAT(Formal),2021.2.3,Win32,60.24096386,,,,,,,,,,,,,,,e,1,0.6428,,,,,,勤奋,e,space,20.986,0,0,0,18,1,,,,,,,,,,,,,,,,,,,,,,,,,,,,,,,,,,
,,,,,,,,,,,,,,1,001,2025-01-03_23h42.07.419,IAT(Formal),2021.2.3,Win32,60.24096386,,,,,,,,,,,,,,,e,1,0.458,,,,,,聪明,e,,,0,1,1,12,1,,,,,,,,,,,,,,,,,,,,,,,,,,,,,,,,,,
,,,,,,,,,,,,,,1,001,2025-01-03_23h42.07.419,IAT(Formal),2021.2.3,Win32,60.24096386,,,,,,,,,,,,,,,i,1,0.461,,,,,,冒失,i,,,0,2,2,39,1,,,,,,,,,,,,,,,,,,,,,,,,,,,,,,,,,,
,,,,,,,,,,,,,,1,001,2025-01-03_23h42.07.419,IAT(Formal),2021.2.3,Win32,60.24096386,,,,,,,,,,,,,,,e,1,0.5022,,,,,,认真,e,,,0,3,3,20,1,,,,,,,,,,,,,,,,,,,,,,,,,,,,,,,,,,
,,,,,,,,,,,,,,1,001,2025-01-03_23h42.07.419,IAT(Formal),2021.2.3,Win32,60.24096386,,,,,,,,,,,,,,,i,1,0.5137,,,,,,下贱,i,,,0,4,4,49,1,,,,,,,,,,,,,,,,,,,,,,,,,,,,,,,,,,
,,,,,,,,,,,,,,1,001,2025-01-03_23h42.07.419,IAT(Formal),2021.2.3,Win32,60.24096386,,,,,,,,,,,,,,,i,1,0.4995,,,,,,其他,i,,,0,5,5,9,1,,,,,,,,,,,,,,,,,,,,,,,,,,,,,,,,,,
,,,,,,,,,,,,,,1,001,2025-01-03_23h42.07.419,IAT(Formal),2021.2.3,Win32,60.24096386,,,,,,,,,,,,,,,i,1,0.4791,,,,,,暴躁,i,,,0,6,6,44,1,,,,,,,,,,,,,,,,,,,,,,,,,,,,,,,,,,
,,,,,,,,,,,,,,1,001,2025-01-03_23h42.07.419,IAT(Formal),2021.2.3,Win32,60.24096386,,,,,,,,,,,,,,,e,1,0.526,,,,,,诚恳,e,,,0,7,7,29,1,,,,,,,,,,,,,,,,,,,,,,,,,,,,,,,,,,
,,,,,,,,,,,,,,1,001,2025-01-03_23h42.07.419,IAT(Formal),2021.2.3,Win32,60.24096386,,,,,,,,,,,,,,,e,1,0.4976,,,,,,我,e,,,0,8,8,0,1,,,,,,,,,,,,,,,,,,,,,,,,,,,,,,,,,,
,,,,,,,,,,,,,,1,001,2025-01-03_23h42.07.419,IAT(Formal),2021.2.3,Win32,60.24096386,,,,,,,,,,,,,,,e,1,0.4148,,,,,,细腻,e,,,0,9,9,25,1,,,,,,,,,,,,,,,,,,,,,,,,,,,,,,,,,,
,,,,,,,,,,,,,,1,001,2025-01-03_23h42.07.419,IAT(Formal),2021.2.3,Win32,60.24096386,,,,,,,,,,,,,,,e,1,0.4999,,,,,,俺,e,,,0,10,10,74,1,,,,,,,,,,,,,,,,,,,,,,,,,,,,,,,,,,
,,,,,,,,,,,,,,1,001,2025-01-03_23h42.07.419,IAT(Formal),2021.2.3,Win32,60.24096386,,,,,,,,,,,,,,,e,1,0.3314,,,,,,自己,e,,,0,11,11,53,1,,,,,,,,,,,,,,,,,,,,,,,,,,,,,,,,,,
,,,,,,,,,,,,,,1,001,2025-01-03_23h42.07.419,IAT(Formal),2021.2.3,Win32,60.24096386,,,,,,,,,,,,,,,e,1,0.6689,,,,,,俺,e,,,0,12,12,54,1,,,,,,,,,,,,,,,,,,,,,,,,,,,,,,,,,,
,,,,,,,,,,,,,,1,001,2025-01-03_23h42.07.419,IAT(Formal),2021.2.3,Win32,60.24096386,,,,,,,,,,,,,,,e,1,0.4017,,,,,,俺,e,,,0,13,13,4,1,,,,,,,,,,,,,,,,,,,,,,,,,,,,,,,,,,
,,,,,,,,,,,,,,1,001,2025-01-03_23h42.07.419,IAT(Formal),2021.2.3,Win32,60.24096386,,,,,,,,,,,,,,,i,1,0.4455,,,,,,其他,i,,,0,14,14,69,1,,,,,,,,,,,,,,,,,,,,,,,,,,,,,,,,,,
,,,,,,,,,,,,,,1,001,2025-01-03_23h42.07.419,IAT(Formal),2021.2.3,Win32,60.24096386,,,,,,,,,,,,,,,e,1,0.4774,,,,,,我的,e,,,0,15,15,71,1,,,,,,,,,,,,,,,,,,,,,,,,,,,,,,,,,,
,,,,,,,,,,,,,,1,001,2025-01-03_23h42.07.419,IAT(Formal),2021.2.3,Win32,60.24096386,,,,,,,,,,,,,,,i,1,0.5285,,,,,,愚蠢,i,,,0,16,16,32,1,,,,,,,,,,,,,,,,,,,,,,,,,,,,,,,,,,
,,,,,,,,,,,,,,1,001,2025-01-03_23h42.07.419,IAT(Formal),2021.2.3,Win32,60.24096386,,,,,,,,,,,,,,,e,1,0.5446,,,,,,冷静,e,,,0,17,17,26,1,,,,,,,,,,,,,,,,,,,,,,,,,,,,,,,,,,
,,,,,,,,,,,,,,1,001,2025-01-03_23h42.07.419,IAT(Formal),2021.2.3,Win32,60.24096386,,,,,,,,,,,,,,,e,1,0.5471,,,,,,朴实,e,,,0,18,18,24,1,,,,,,,,,,,,,,,,,,,,,,,,,,,,,,,,,,
,,,,,,,,,,,,,,1,001,2025-01-03_23h42.07.419,IAT(Formal),2021.2.3,Win32,60.24096386,,,,,,,,,,,,,,,e,1,0.3667,,,,,,我,e,,,0,19,19,50,1,,,,,,,,,,,,,,,,,,,,,,,,,,,,,,,,,,
,,,,,,,,,,,,,,1,001,2025-01-03_23h42.07.419,IAT(Formal),2021.2.3,Win32,60.24096386,,,,,,,,,,,,,,,i,1,0.4674,,,,,,虚伪,i,,,0,20,20,31,1,,,,,,,,,,,,,,,,,,,,,,,,,,,,,,,,,,
,,,,,,,,,,,,,,1,001,2025-01-03_23h42.07.419,IAT(Formal),2021.2.3,Win32,60.24096386,,,,,,,,,,,,,,,i,1,0.589,,,,,,他们,i,,,0,21,21,56,1,,,,,,,,,,,,,,,,,,,,,,,,,,,,,,,,,,
,,,,,,,,,,,,,,1,001,2025-01-03_23h42.07.419,IAT(Formal),2021.2.3,Win32,60.24096386,,,,,,,,,,,,,,,i,1,0.5626,,,,,,自卑,i,,,0,22,22,36,1,,,,,,,,,,,,,,,,,,,,,,,,,,,,,,,,,,
,,,,,,,,,,,,,,1,001,2025-01-03_23h42.07.419,IAT(Formal),2021.2.3,Win32,60.24096386,,,,,,,,,,,,,,,i,1,0.4752,,,,,,悲观,i,,,0,23,23,34,1,,,,,,,,,,,,,,,,,,,,,,,,,,,,,,,,,,
,,,,,,,,,,,,,,1,001,2025-01-03_23h42.07.419,IAT(Formal),2021.2.3,Win32,60.24096386,,,,,,,,,,,,,,,i,1,0.9802,,,,,,自私,i,,,0,24,24,43,1,,,,,,,,,,,,,,,,,,,,,,,,,,,,,,,,,,
,,,,,,,,,,,,,,1,001,2025-01-03_23h42.07.419,IAT(Formal),2021.2.3,Win32,60.24096386,,,,,,,,,,,,,,,i,1,0.4971,,,,,,他,i,,,0,25,25,5,1,,,,,,,,,,,,,,,,,,,,,,,,,,,,,,,,,,
,,,,,,,,,,,,,,1,001,2025-01-03_23h42.07.419,IAT(Formal),2021.2.3,Win32,60.24096386,,,,,,,,,,,,,,,e,1,0.4745,,,,,,热情,e,,,0,26,26,27,1,,,,,,,,,,,,,,,,,,,,,,,,,,,,,,,,,,
,,,,,,,,,,,,,,1,001,2025-01-03_23h42.07.419,IAT(Formal),2021.2.3,Win32,60.24096386,,,,,,,,,,,,,,,e,1,0.6038,,,,,,公正,e,,,0,27,27,23,1,,,,,,,,,,,,,,,,,,,,,,,,,,,,,,,,,,
,,,,,,,,,,,,,,1,001,2025-01-03_23h42.07.419,IAT(Formal),2021.2.3,Win32,60.24096386,,,,,,,,,,,,,,,i,1,0.5461,,,,,,散漫,i,,,0,28,28,41,1,,,,,,,,,,,,,,,,,,,,,,,,,,,,,,,,,,
,,,,,,,,,,,,,,1,001,2025-01-03_23h42.07.419,IAT(Formal),2021.2.3,Win32,60.24096386,,,,,,,,,,,,,,,e,1,0.4936,,,,,,乐观,e,,,0,29,29,14,1,,,,,,,,,,,,,,,,,,,,,,,,,,,,,,,,,,
,,,,,,,,,,,,,,1,001,2025-01-03_23h42.07.419,IAT(Formal),2021.2.3,Win32,60.24096386,,,,,,,,,,,,,,,e,1,0.5637,,,,,,我们,e,,,0,30,30,52,1,,,,,,,,,,,,,,,,,,,,,,,,,,,,,,,,,,
,,,,,,,,,,,,,,1,001,2025-01-03_23h42.07.419,IAT(Formal),2021.2.3,Win32,60.24096386,,,,,,,,,,,,,,,i,1,0.5141,,,,,,傲慢,i,,,0,31,31,37,1,,,,,,,,,,,,,,,,,,,,,,,,,,,,,,,,,,
,,,,,,,,,,,,,,1,001,2025-01-03_23h42.07.419,IAT(Formal),2021.2.3,Win32,60.24096386,,,,,,,,,,,,,,,i,1,0.8096,,,,,,固执,i,,,0,32,32,47,1,,,,,,,,,,,,,,,,,,,,,,,,,,,,,,,,,,
,,,,,,,,,,,,,,1,001,2025-01-03_23h42.07.419,IAT(Formal),2021.2.3,Win32,60.24096386,,,,,,,,,,,,,,,i,1,0.4726,,,,,,消极,i,,,0,33,33,35,1,,,,,,,,,,,,,,,,,,,,,,,,,,,,,,,,,,
,,,,,,,,,,,,,,1,001,2025-01-03_23h42.07.419,IAT(Formal),2021.2.3,Win32,60.24096386,,,,,,,,,,,,,,,e,1,0.4602,,,,,,我的,e,,,0,34,34,1,1,,,,,,,,,,,,,,,,,,,,,,,,,,,,,,,,,,
,,,,,,,,,,,,,,1,001,2025-01-03_23h42.07.419,IAT(Formal),2021.2.3,Win32,60.24096386,,,,,,,,,,,,,,,i,1,0.5161,,,,,,他的,i,,,0,35,35,7,1,,,,,,,,,,,,,,,,,,,,,,,,,,,,,,,,,,
,,,,,,,,,,,,,,1,001,2025-01-03_23h42.07.419,IAT(Formal),2021.2.3,Win32,60.24096386,,,,,,,,,,,,,,,e,1,0.4789,,,,,,自己,e,,,0,36,36,73,1,,,,,,,,,,,,,,,,,,,,,,,,,,,,,,,,,,
,,,,,,,,,,,,,,1,001,2025-01-03_23h42.07.419,IAT(Formal),2021.2.3,Win32,60.24096386,,,,,,,,,,,,,,,i,1,0.5023,,,,,,卑鄙,i,,,0,37,37,30,1,,,,,,,,,,,,,,,,,,,,,,,,,,,,,,,,,,
,,,,,,,,,,,,,,1,001,2025-01-03_23h42.07.419,IAT(Formal),2021.2.3,Win32,60.24096386,,,,,,,,,,,,,,,e,1,0.5437,,,,,,正直,e,,,0,38,38,16,1,,,,,,,,,,,,,,,,,,,,,,,,,,,,,,,,,,
,,,,,,,,,,,,,,1,001,2025-01-03_23h42.07.419,IAT(Formal),2021.2.3,Win32,60.24096386,,,,,,,,,,,,,,,e,1,0.3865,,,,,,活泼,e,,,0,39,39,28,1,,,,,,,,,,,,,,,,,,,,,,,,,,,,,,,,,,
,,,,,,,,,,,,,,1,001,2025-01-03_23h42.07.419,IAT(Formal),2021.2.3,Win32,60.24096386,,,,,,,,,,,,,,,i,1,0.4877,,,,,,他人,i,,,0,40,40,78,1,,,,,,,,,,,,,,,,,,,,,,,,,,,,,,,,,,
,,,,,,,,,,,,,,1,001,2025-01-03_23h42.07.419,IAT(Formal),2021.2.3,Win32,60.24096386,,,,,,,,,,,,,,,e,1,0.5568,,,,,,机智,e,,,0,41,41,19,1,,,,,,,,,,,,,,,,,,,,,,,,,,,,,,,,,,
,,,,,,,,,,,,,,1,001,2025-01-03_23h42.07.419,IAT(Formal),2021.2.3,Win32,60.24096386,,,,,,,,,,,,,,,i,1,0.5142,,,,,,执拗,i,,,0,42,42,40,1,,,,,,,,,,,,,,,,,,,,,,,,,,,,,,,,,,
,,,,,,,,,,,,,,1,001,2025-01-03_23h42.07.419,IAT(Formal),2021.2.3,Win32,60.24096386,,,,,,,,,,,,,,,i,1,0.5391,,,,,,他人,i,,,0,43,43,68,1,,,,,,,,,,,,,,,,,,,,,,,,,,,,,,,,,,
,,,,,,,,,,,,,,1,001,2025-01-03_23h42.07.419,IAT(Formal),2021.2.3,Win32,60.24096386,,,,,,,,,,,,,,,e,1,0.4333,,,,,,我,e,,,0,44,44,70,1,,,,,,,,,,,,,,,,,,,,,,,,,,,,,,,,,,
,,,,,,,,,,,,,,1,001,2025-01-03_23h42.07.419,IAT(Formal),2021.2.3,Win32,60.24096386,,,,,,,,,,,,,,,i,1,0.4323,,,,,,其他,i,,,0,45,45,79,1,,,,,,,,,,,,,,,,,,,,,,,,,,,,,,,,,,
,,,,,,,,,,,,,,1,001,2025-01-03_23h42.07.419,IAT(Formal),2021.2.3,Win32,60.24096386,,,,,,,,,,,,,,,i,1,0.5027,,,,,,鲁莽,i,,,0,46,46,38,1,,,,,,,,,,,,,,,,,,,,,,,,,,,,,,,,,,
,,,,,,,,,,,,,,1,001,2025-01-03_23h42.07.419,IAT(Formal),2021.2.3,Win32,60.24096386,,,,,,,,,,,,,,,i,1,0.4968,,,,,,他,i,,,0,47,47,75,1,,,,,,,,,,,,,,,,,,,,,,,,,,,,,,,,,,
,,,,,,,,,,,,,,1,001,2025-01-03_23h42.07.419,IAT(Formal),2021.2.3,Win32,60.24096386,,,,,,,,,,,,,,,e,1,0.5618,,,,,,无私,e,,,0,48,48,22,1,,,,,,,,,,,,,,,,,,,,,,,,,,,,,,,,,,
,,,,,,,,,,,,,,1,001,2025-01-03_23h42.07.419,IAT(Formal),2021.2.3,Win32,60.24096386,,,,,,,,,,,,,,,i,1,0.5181,,,,,,其他,i,,,0,49,49,59,1,,,,,,,,,,,,,,,,,,,,,,,,,,,,,,,,,,
,,,,,,,,,,,,,,1,001,2025-01-03_23h42.07.419,IAT(Formal),2021.2.3,Win32,60.24096386,,,,,,,,,,,,,,,e,1,0.4448,,,,,,我,e,,,0,50,50,60,1,,,,,,,,,,,,,,,,,,,,,,,,,,,,,,,,,,
,,,,,,,,,,,,,,1,001,2025-01-03_23h42.07.419,IAT(Formal),2021.2.3,Win32,60.24096386,,,,,,,,,,,,,,,e,1,0.5589,,,,,,稳重,e,,,0,51,51,21,1,,,,,,,,,,,,,,,,,,,,,,,,,,,,,,,,,,
,,,,,,,,,,,,,,1,001,2025-01-03_23h42.07.419,IAT(Formal),2021.2.3,Win32,60.24096386,,,,,,,,,,,,,,,e,1,0.6146,,,,,,我们,e,,,0,52,52,62,1,,,,,,,,,,,,,,,,,,,,,,,,,,,,,,,,,,
,,,,,,,,,,,,,,1,001,2025-01-03_23h42.07.419,IAT(Formal),2021.2.3,Win32,60.24096386,,,,,,,,,,,,,,,i,1,0.4972,,,,,,他们,i,,,0,53,53,6,1,,,,,,,,,,,,,,,,,,,,,,,,,,,,,,,,,,
,,,,,,,,,,,,,,1,001,2025-01-03_23h42.07.419,IAT(Formal),2021.2.3,Win32,60.24096386,,,,,,,,,,,,,,,i,1,0.3863,,,,,,他们,i,,,0,54,54,76,1,,,,,,,,,,,,,,,,,,,,,,,,,,,,,,,,,,
,,,,,,,,,,,,,,1,001,2025-01-03_23h42.07.419,IAT(Formal),2021.2.3,Win32,60.24096386,,,,,,,,,,,,,,,i,1,0.5661,,,,,,野蛮,i,,,0,55,55,46,1,,,,,,,,,,,,,,,,,,,,,,,,,,,,,,,,,,
,,,,,,,,,,,,,,1,001,2025-01-03_23h42.07.419,IAT(Formal),2021.2.3,Win32,60.24096386,,,,,,,,,,,,,,,i,1,0.5611,,,,,,轻率,i,,,0,56,56,48,1,,,,,,,,,,,,,,,,,,,,,,,,,,,,,,,,,,
,,,,,,,,,,,,,,1,001,2025-01-03_23h42.07.419,IAT(Formal),2021.2.3,Win32,60.24096386,,,,,,,,,,,,,,,e,1,0.647,,,,,,我们,e,,,0,57,57,2,1,,,,,,,,,,,,,,,,,,,,,,,,,,,,,,,,,,
,,,,,,,,,,,,,,1,001,2025-01-03_23h42.07.419,IAT(Formal),2021.2.3,Win32,60.24096386,,,,,,,,,,,,,,,e,1,0.3862,,,,,,我的,e,,,0,58,58,61,1,,,,,,,,,,,,,,,,,,,,,,,,,,,,,,,,,,
,,,,,,,,,,,,,,1,001,2025-01-03_23h42.07.419,IAT(Formal),2021.2.3,Win32,60.24096386,,,,,,,,,,,,,,,i,1,0.496,,,,,,他,i,,,0,59,59,65,1,,,,,,,,,,,,,,,,,,,,,,,,,,,,,,,,,,
,,,,,,,,,,,,,,1,001,2025-01-03_23h42.07.419,IAT(Formal),2021.2.3,Win32,60.24096386,,,,,,,,,,,,,,,e,1,0.5323,,,,,,杰出,e,,,0,60,60,13,1,,,,,,,,,,,,,,,,,,,,,,,,,,,,,,,,,,
,,,,,,,,,,,,,,1,001,2025-01-03_23h42.07.419,IAT(Formal),2021.2.3,Win32,60.24096386,,,,,,,,,,,,,,,e,1,0.4487,,,,,,自己,e,,,0,61,61,63,1,,,,,,,,,,,,,,,,,,,,,,,,,,,,,,,,,,
,,,,,,,,,,,,,,1,001,2025-01-03_23h42.07.419,IAT(Formal),2021.2.3,Win32,60.24096386,,,,,,,,,,,,,,,i,1,0.4967,,,,,,他的,i,,,0,62,62,67,1,,,,,,,,,,,,,,,,,,,,,,,,,,,,,,,,,,
,,,,,,,,,,,,,,1,001,2025-01-03_23h42.07.419,IAT(Formal),2021.2.3,Win32,60.24096386,,,,,,,,,,,,,,,i,1,0.5494,,,,,,刻薄,i,,,0,63,63,33,1,,,,,,,,,,,,,,,,,,,,,,,,,,,,,,,,,,
,,,,,,,,,,,,,,1,001,2025-01-03_23h42.07.419,IAT(Formal),2021.2.3,Win32,60.24096386,,,,,,,,,,,,,,,i,1,0.4486,,,,,,他的,i,,,0,64,64,57,1,,,,,,,,,,,,,,,,,,,,,,,,,,,,,,,,,,
,,,,,,,,,,,,,,1,001,2025-01-03_23h42.07.419,IAT(Formal),2021.2.3,Win32,60.24096386,,,,,,,,,,,,,,,e,1,0.5292,,,,,,我的,e,,,0,65,65,51,1,,,,,,,,,,,,,,,,,,,,,,,,,,,,,,,,,,
,,,,,,,,,,,,,,1,001,2025-01-03_23h42.07.419,IAT(Formal),2021.2.3,Win32,60.24096386,,,,,,,,,,,,,,,e,1,0.8421,,,,,,我们,e,,,0,66,66,72,1,,,,,,,,,,,,,,,,,,,,,,,,,,,,,,,,,,
,,,,,,,,,,,,,,1,001,2025-01-03_23h42.07.419,IAT(Formal),2021.2.3,Win32,60.24096386,,,,,,,,,,,,,,,e,1,0.5955,,,,,,诚实,e,,,0,67,67,15,1,,,,,,,,,,,,,,,,,,,,,,,,,,,,,,,,,,
,,,,,,,,,,,,,,1,001,2025-01-03_23h42.07.419,IAT(Formal),2021.2.3,Win32,60.24096386,,,,,,,,,,,,,,,e,1,0.3419,,,,,,崇高,e,,,0,68,68,11,1,,,,,,,,,,,,,,,,,,,,,,,,,,,,,,,,,,
,,,,,,,,,,,,,,1,001,2025-01-03_23h42.07.419,IAT(Formal),2021.2.3,Win32,60.24096386,,,,,,,,,,,,,,,i,1,0.5583,,,,,,他,i,,,0,69,69,55,1,,,,,,,,,,,,,,,,,,,,,,,,,,,,,,,,,,
,,,,,,,,,,,,,,1,001,2025-01-03_23h42.07.419,IAT(Formal),2021.2.3,Win32,60.24096386,,,,,,,,,,,,,,,e,1,0.537,,,,,,勇敢,e,,,0,70,70,17,1,,,,,,,,,,,,,,,,,,,,,,,,,,,,,,,,,,
,,,,,,,,,,,,,,1,001,2025-01-03_23h42.07.419,IAT(Formal),2021.2.3,Win32,60.24096386,,,,,,,,,,,,,,,e,1,0.4777,,,,,,优秀,e,,,0,71,71,10,1,,,,,,,,,,,,,,,,,,,,,,,,,,,,,,,,,,
,,,,,,,,,,,,,,1,001,2025-01-03_23h42.07.419,IAT(Formal),2021.2.3,Win32,60.24096386,,,,,,,,,,,,,,,i,1,0.4099,,,,,,他的,i,,,0,72,72,77,1,,,,,,,,,,,,,,,,,,,,,,,,,,,,,,,,,,
,,,,,,,,,,,,,,1,001,2025-01-03_23h42.07.419,IAT(Formal),2021.2.3,Win32,60.24096386,,,,,,,,,,,,,,,e,1,0.4989,,,,,,自己,e,,,0,73,73,3,1,,,,,,,,,,,,,,,,,,,,,,,,,,,,,,,,,,
,,,,,,,,,,,,,,1,001,2025-01-03_23h42.07.419,IAT(Formal),2021.2.3,Win32,60.24096386,,,,,,,,,,,,,,,i,1,0.5626,,,,,,凶狠,i,,,0,74,74,42,1,,,,,,,,,,,,,,,,,,,,,,,,,,,,,,,,,,
,,,,,,,,,,,,,,1,001,2025-01-03_23h42.07.419,IAT(Formal),2021.2.3,Win32,60.24096386,,,,,,,,,,,,,,,i,1,0.6499,,,,,,猖狂,i,,,0,75,75,45,1,,,,,,,,,,,,,,,,,,,,,,,,,,,,,,,,,,
,,,,,,,,,,,,,,1,001,2025-01-03_23h42.07.419,IAT(Formal),2021.2.3,Win32,60.24096386,,,,,,,,,,,,,,,i,1,0.6092,,,,,,他们,i,,,0,76,76,66,1,,,,,,,,,,,,,,,,,,,,,,,,,,,,,,,,,,
,,,,,,,,,,,,,,1,001,2025-01-03_23h42.07.419,IAT(Formal),2021.2.3,Win32,60.24096386,,,,,,,,,,,,,,,i,1,0.4276,,,,,,他人,i,,,0,77,77,58,1,,,,,,,,,,,,,,,,,,,,,,,,,,,,,,,,,,
,,,,,,,,,,,,,,1,001,2025-01-03_23h42.07.419,IAT(Formal),2021.2.3,Win32,60.24096386,,,,,,,,,,,,,,,i,1,0.4559,,,,,,他人,i,,,0,78,78,8,1,,,,,,,,,,,,,,,,,,,,,,,,,,,,,,,,,,
,,,,,,,,,,,,,,1,001,2025-01-03_23h42.07.419,IAT(Formal),2021.2.3,Win32,60.24096386,,,,,,,,,,,,,,,i,0,0.4361,,,,,,俺,e,,,0,79,79,64,1,,,,,,,,,,,,,,,,,,,,,,,,,,,,,,,,,,
,,,,,,,,,,,,,,1,001,2025-01-03_23h42.07.419,IAT(Formal),2021.2.3,Win32,60.24096386,,,,,,,,,,,,,,,i,1,0.4529,,,,,,他人,i,,,1,0,80,78,1,,,,,,,,,,,,,,,,,,,,,,,,,,,,,,,,,,
,,,,,,,,,,,,,,1,001,2025-01-03_23h42.07.419,IAT(Formal),2021.2.3,Win32,60.24096386,,,,,,,,,,,,,,,i,1,0.5777,,,,,,执拗,i,,,1,1,81,40,1,,,,,,,,,,,,,,,,,,,,,,,,,,,,,,,,,,
,,,,,,,,,,,,,,1,001,2025-01-03_23h42.07.419,IAT(Formal),2021.2.3,Win32,60.24096386,,,,,,,,,,,,,,,e,1,0.5272,,,,,,我,e,,,1,2,82,0,1,,,,,,,,,,,,,,,,,,,,,,,,,,,,,,,,,,
,,,,,,,,,,,,,,1,001,2025-01-03_23h42.07.419,IAT(Formal),2021.2.3,Win32,60.24096386,,,,,,,,,,,,,,,e,1,0.9259,,,,,,无私,e,,,1,3,83,22,1,,,,,,,,,,,,,,,,,,,,,,,,,,,,,,,,,,
,,,,,,,,,,,,,,1,001,2025-01-03_23h42.07.419,IAT(Formal),2021.2.3,Win32,60.24096386,,,,,,,,,,,,,,,i,1,0.4486,,,,,,悲观,i,,,1,4,84,34,1,,,,,,,,,,,,,,,,,,,,,,,,,,,,,,,,,,
,,,,,,,,,,,,,,1,001,2025-01-03_23h42.07.419,IAT(Formal),2021.2.3,Win32,60.24096386,,,,,,,,,,,,,,,i,1,0.4318,,,,,,卑鄙,i,,,1,5,85,30,1,,,,,,,,,,,,,,,,,,,,,,,,,,,,,,,,,,
,,,,,,,,,,,,,,1,001,2025-01-03_23h42.07.419,IAT(Formal),2021.2.3,Win32,60.24096386,,,,,,,,,,,,,,,i,1,0.4928,,,,,,刻薄,i,,,1,6,86,33,1,,,,,,,,,,,,,,,,,,,,,,,,,,,,,,,,,,
,,,,,,,,,,,,,,1,001,2025-01-03_23h42.07.419,IAT(Formal),2021.2.3,Win32,60.24096386,,,,,,,,,,,,,,,e,1,0.4827,,,,,,稳重,e,,,1,7,87,21,1,,,,,,,,,,,,,,,,,,,,,,,,,,,,,,,,,,
,,,,,,,,,,,,,,1,001,2025-01-03_23h42.07.419,IAT(Formal),2021.2.3,Win32,60.24096386,,,,,,,,,,,,,,,e,1,0.5454,,,,,,杰出,e,,,1,8,88,13,1,,,,,,,,,,,,,,,,,,,,,,,,,,,,,,,,,,
,,,,,,,,,,,,,,1,001,2025-01-03_23h42.07.419,IAT(Formal),2021.2.3,Win32,60.24096386,,,,,,,,,,,,,,,i,1,0.5695,,,,,,其他,i,,,1,9,89,59,1,,,,,,,,,,,,,,,,,,,,,,,,,,,,,,,,,,
,,,,,,,,,,,,,,1,001,2025-01-03_23h42.07.419,IAT(Formal),2021.2.3,Win32,60.24096386,,,,,,,,,,,,,,,e,1,0.5404,,,,,,冷静,e,,,1,10,90,26,1,,,,,,,,,,,,,,,,,,,,,,,,,,,,,,,,,,
,,,,,,,,,,,,,,1,001,2025-01-03_23h42.07.419,IAT(Formal),2021.2.3,Win32,60.24096386,,,,,,,,,,,,,,,e,1,0.5322,,,,,,自己,e,,,1,11,91,53,1,,,,,,,,,,,,,,,,,,,,,,,,,,,,,,,,,,
,,,,,,,,,,,,,,1,001,2025-01-03_23h42.07.419,IAT(Formal),2021.2.3,Win32,60.24096386,,,,,,,,,,,,,,,i,1,0.7758,,,,,,消极,i,,,1,12,92,35,1,,,,,,,,,,,,,,,,,,,,,,,,,,,,,,,,,,
,,,,,,,,,,,,,,1,001,2025-01-03_23h42.07.419,IAT(Formal),2021.2.3,Win32,60.24096386,,,,,,,,,,,,,,,e,1,0.5972,,,,,,自己,e,,,1,13,93,63,1,,,,,,,,,,,,,,,,,,,,,,,,,,,,,,,,,,
,,,,,,,,,,,,,,1,001,2025-01-03_23h42.07.419,IAT(Formal),2021.2.3,Win32,60.24096386,,,,,,,,,,,,,,,i,1,0.7413,,,,,,野蛮,i,,,1,14,94,46,1,,,,,,,,,,,,,,,,,,,,,,,,,,,,,,,,,,
,,,,,,,,,,,,,,1,001,2025-01-03_23h42.07.419,IAT(Formal),2021.2.3,Win32,60.24096386,,,,,,,,,,,,,,,e,1,0.5133,,,,,,机智,e,,,1,15,95,19,1,,,,,,,,,,,,,,,,,,,,,,,,,,,,,,,,,,
,,,,,,,,,,,,,,1,001,2025-01-03_23h42.07.419,IAT(Formal),2021.2.3,Win32,60.24096386,,,,,,,,,,,,,,,e,1,0.4862,,,,,,我们,e,,,1,16,96,2,1,,,,,,,,,,,,,,,,,,,,,,,,,,,,,,,,,,
,,,,,,,,,,,,,,1,001,2025-01-03_23h42.07.419,IAT(Formal),2021.2.3,Win32,60.24096386,,,,,,,,,,,,,,,i,1,0.4856,,,,,,其他,i,,,1,17,97,9,1,,,,,,,,,,,,,,,,,,,,,,,,,,,,,,,,,,
,,,,,,,,,,,,,,1,001,2025-01-03_23h42.07.419,IAT(Formal),2021.2.3,Win32,60.24096386,,,,,,,,,,,,,,,e,1,0.5286,,,,,,认真,e,,,1,18,98,20,1,,,,,,,,,,,,,,,,,,,,,,,,,,,,,,,,,,
,,,,,,,,,,,,,,1,001,2025-01-03_23h42.07.419,IAT(Formal),2021.2.3,Win32,60.24096386,,,,,,,,,,,,,,,i,1,0.5623,,,,,,暴躁,i,,,1,19,99,44,1,,,,,,,,,,,,,,,,,,,,,,,,,,,,,,,,,,
,,,,,,,,,,,,,,1,001,2025-01-03_23h42.07.419,IAT(Formal),2021.2.3,Win32,60.24096386,,,,,,,,,,,,,,,i,1,0.7342,,,,,,他人,i,,,1,20,100,68,1,,,,,,,,,,,,,,,,,,,,,,,,,,,,,,,,,,
,,,,,,,,,,,,,,1,001,2025-01-03_23h42.07.419,IAT(Formal),2021.2.3,Win32,60.24096386,,,,,,,,,,,,,,,i,1,0.5408,,,,,,下贱,i,,,1,21,101,49,1,,,,,,,,,,,,,,,,,,,,,,,,,,,,,,,,,,
,,,,,,,,,,,,,,1,001,2025-01-03_23h42.07.419,IAT(Formal),2021.2.3,Win32,60.24096386,,,,,,,,,,,,,,,i,1,0.4906,,,,,,傲慢,i,,,1,22,102,37,1,,,,,,,,,,,,,,,,,,,,,,,,,,,,,,,,,,
,,,,,,,,,,,,,,1,001,2025-01-03_23h42.07.419,IAT(Formal),2021.2.3,Win32,60.24096386,,,,,,,,,,,,,,,e,1,0.398,,,,,,乐观,e,,,1,23,103,14,1,,,,,,,,,,,,,,,,,,,,,,,,,,,,,,,,,,
,,,,,,,,,,,,,,1,001,2025-01-03_23h42.07.419,IAT(Formal),2021.2.3,Win32,60.24096386,,,,,,,,,,,,,,,i,1,0.5038,,,,,,他们,i,,,1,24,104,66,1,,,,,,,,,,,,,,,,,,,,,,,,,,,,,,,,,,
,,,,,,,,,,,,,,1,001,2025-01-03_23h42.07.419,IAT(Formal),2021.2.3,Win32,60.24096386,,,,,,,,,,,,,,,e,1,0.5463,,,,,,公正,e,,,1,25,105,23,1,,,,,,,,,,,,,,,,,,,,,,,,,,,,,,,,,,
,,,,,,,,,,,,,,1,001,2025-01-03_23h42.07.419,IAT(Formal),2021.2.3,Win32,60.24096386,,,,,,,,,,,,,,,i,0,0.5344,,,,,,我的,e,,,1,26,106,51,1,,,,,,,,,,,,,,,,,,,,,,,,,,,,,,,,,,
,,,,,,,,,,,,,,1,001,2025-01-03_23h42.07.419,IAT(Formal),2021.2.3,Win32,60.24096386,,,,,,,,,,,,,,,i,1,0.5966,,,,,,自卑,i,,,1,27,107,36,1,,,,,,,,,,,,,,,,,,,,,,,,,,,,,,,,,,
,,,,,,,,,,,,,,1,001,2025-01-03_23h42.07.419,IAT(Formal),2021.2.3,Win32,60.24096386,,,,,,,,,,,,,,,i,1,0.4778,,,,,,猖狂,i,,,1,28,108,45,1,,,,,,,,,,,,,,,,,,,,,,,,,,,,,,,,,,
,,,,,,,,,,,,,,1,001,2025-01-03_23h42.07.419,IAT(Formal),2021.2.3,Win32,60.24096386,,,,,,,,,,,,,,,e,1,0.499,,,,,,俺,e,,,1,29,109,4,1,,,,,,,,,,,,,,,,,,,,,,,,,,,,,,,,,,
,,,,,,,,,,,,,,1,001,2025-01-03_23h42.07.419,IAT(Formal),2021.2.3,Win32,60.24096386,,,,,,,,,,,,,,,i,1,0.511,,,,,,他人,i,,,1,30,110,8,1,,,,,,,,,,,,,,,,,,,,,,,,,,,,,,,,,,
,,,,,,,,,,,,,,1,001,2025-01-03_23h42.07.419,IAT(Formal),2021.2.3,Win32,60.24096386,,,,,,,,,,,,,,,i,1,0.5115,,,,,,他们,i,,,1,31,111,56,1,,,,,,,,,,,,,,,,,,,,,,,,,,,,,,,,,,
,,,,,,,,,,,,,,1,001,2025-01-03_23h42.07.419,IAT(Formal),2021.2.3,Win32,60.24096386,,,,,,,,,,,,,,,e,1,0.5085,,,,,,优秀,e,,,1,32,112,10,1,,,,,,,,,,,,,,,,,,,,,,,,,,,,,,,,,,
,,,,,,,,,,,,,,1,001,2025-01-03_23h42.07.419,IAT(Formal),2021.2.3,Win32,60.24096386,,,,,,,,,,,,,,,e,1,0.6831,,,,,,自己,e,,,1,33,113,3,1,,,,,,,,,,,,,,,,,,,,,,,,,,,,,,,,,,
,,,,,,,,,,,,,,1,001,2025-01-03_23h42.07.419,IAT(Formal),2021.2.3,Win32,60.24096386,,,,,,,,,,,,,,,i,1,0.4751,,,,,,他的,i,,,1,34,114,7,1,,,,,,,,,,,,,,,,,,,,,,,,,,,,,,,,,,
,,,,,,,,,,,,,,1,001,2025-01-03_23h42.07.419,IAT(Formal),2021.2.3,Win32,60.24096386,,,,,,,,,,,,,,,e,1,0.5455,,,,,,诚实,e,,,1,35,115,15,1,,,,,,,,,,,,,,,,,,,,,,,,,,,,,,,,,,
,,,,,,,,,,,,,,1,001,2025-01-03_23h42.07.419,IAT(Formal),2021.2.3,Win32,60.24096386,,,,,,,,,,,,,,,i,1,0.4666,,,,,,他的,i,,,1,36,116,77,1,,,,,,,,,,,,,,,,,,,,,,,,,,,,,,,,,,
,,,,,,,,,,,,,,1,001,2025-01-03_23h42.07.419,IAT(Formal),2021.2.3,Win32,60.24096386,,,,,,,,,,,,,,,e,1,0.4036,,,,,,热情,e,,,1,37,117,27,1,,,,,,,,,,,,,,,,,,,,,,,,,,,,,,,,,,
,,,,,,,,,,,,,,1,001,2025-01-03_23h42.07.419,IAT(Formal),2021.2.3,Win32,60.24096386,,,,,,,,,,,,,,,e,1,0.597,,,,,,我的,e,,,1,38,118,71,1,,,,,,,,,,,,,,,,,,,,,,,,,,,,,,,,,,
,,,,,,,,,,,,,,1,001,2025-01-03_23h42.07.419,IAT(Formal),2021.2.3,Win32,60.24096386,,,,,,,,,,,,,,,i,1,0.5073,,,,,,鲁莽,i,,,1,39,119,38,1,,,,,,,,,,,,,,,,,,,,,,,,,,,,,,,,,,
,,,,,,,,,,,,,,1,001,2025-01-03_23h42.07.419,IAT(Formal),2021.2.3,Win32,60.24096386,,,,,,,,,,,,,,,i,1,0.4678,,,,,,其他,i,,,1,40,120,79,1,,,,,,,,,,,,,,,,,,,,,,,,,,,,,,,,,,
,,,,,,,,,,,,,,1,001,2025-01-03_23h42.07.419,IAT(Formal),2021.2.3,Win32,60.24096386,,,,,,,,,,,,,,,i,1,0.4439,,,,,,愚蠢,i,,,1,41,121,32,1,,,,,,,,,,,,,,,,,,,,,,,,,,,,,,,,,,
,,,,,,,,,,,,,,1,001,2025-01-03_23h42.07.419,IAT(Formal),2021.2.3,Win32,60.24096386,,,,,,,,,,,,,,,i,1,0.4463,,,,,,其他,i,,,1,42,122,69,1,,,,,,,,,,,,,,,,,,,,,,,,,,,,,,,,,,
,,,,,,,,,,,,,,1,001,2025-01-03_23h42.07.419,IAT(Formal),2021.2.3,Win32,60.24096386,,,,,,,,,,,,,,,e,1,1.0467,,,,,,我的,e,,,1,43,123,1,1,,,,,,,,,,,,,,,,,,,,,,,,,,,,,,,,,,
,,,,,,,,,,,,,,1,001,2025-01-03_23h42.07.419,IAT(Formal),2021.2.3,Win32,60.24096386,,,,,,,,,,,,,,,e,1,0.4759,,,,,,活泼,e,,,1,44,124,28,1,,,,,,,,,,,,,,,,,,,,,,,,,,,,,,,,,,
,,,,,,,,,,,,,,1,001,2025-01-03_23h42.07.419,IAT(Formal),2021.2.3,Win32,60.24096386,,,,,,,,,,,,,,,e,1,0.5636,,,,,,聪明,e,,,1,45,125,12,1,,,,,,,,,,,,,,,,,,,,,,,,,,,,,,,,,,
,,,,,,,,,,,,,,1,001,2025-01-03_23h42.07.419,IAT(Formal),2021.2.3,Win32,60.24096386,,,,,,,,,,,,,,,e,1,0.3931,,,,,,勤奋,e,,,1,46,126,18,1,,,,,,,,,,,,,,,,,,,,,,,,,,,,,,,,,,
,,,,,,,,,,,,,,1,001,2025-01-03_23h42.07.419,IAT(Formal),2021.2.3,Win32,60.24096386,,,,,,,,,,,,,,,e,1,0.6673,,,,,,自己,e,,,1,47,127,73,1,,,,,,,,,,,,,,,,,,,,,,,,,,,,,,,,,,
,,,,,,,,,,,,,,1,001,2025-01-03_23h42.07.419,IAT(Formal),2021.2.3,Win32,60.24096386,,,,,,,,,,,,,,,i,1,0.7519,,,,,,固执,i,,,1,48,128,47,1,,,,,,,,,,,,,,,,,,,,,,,,,,,,,,,,,,
,,,,,,,,,,,,,,1,001,2025-01-03_23h42.07.419,IAT(Formal),2021.2.3,Win32,60.24096386,,,,,,,,,,,,,,,e,1,0.5463,,,,,,我们,e,,,1,49,129,52,1,,,,,,,,,,,,,,,,,,,,,,,,,,,,,,,,,,
,,,,,,,,,,,,,,1,001,2025-01-03_23h42.07.419,IAT(Formal),2021.2.3,Win32,60.24096386,,,,,,,,,,,,,,,i,1,0.7077,,,,,,轻率,i,,,1,50,130,48,1,,,,,,,,,,,,,,,,,,,,,,,,,,,,,,,,,,
,,,,,,,,,,,,,,1,001,2025-01-03_23h42.07.419,IAT(Formal),2021.2.3,Win32,60.24096386,,,,,,,,,,,,,,,i,1,0.7395,,,,,,他们,i,,,1,51,131,76,1,,,,,,,,,,,,,,,,,,,,,,,,,,,,,,,,,,
,,,,,,,,,,,,,,1,001,2025-01-03_23h42.07.419,IAT(Formal),2021.2.3,Win32,60.24096386,,,,,,,,,,,,,,,e,1,0.3935,,,,,,俺,e,,,1,52,132,74,1,,,,,,,,,,,,,,,,,,,,,,,,,,,,,,,,,,
,,,,,,,,,,,,,,1,001,2025-01-03_23h42.07.419,IAT(Formal),2021.2.3,Win32,60.24096386,,,,,,,,,,,,,,,i,1,0.5447,,,,,,虚伪,i,,,1,53,133,31,1,,,,,,,,,,,,,,,,,,,,,,,,,,,,,,,,,,
,,,,,,,,,,,,,,1,001,2025-01-03_23h42.07.419,IAT(Formal),2021.2.3,Win32,60.24096386,,,,,,,,,,,,,,,e,1,0.4816,,,,,,我,e,,,1,54,134,50,1,,,,,,,,,,,,,,,,,,,,,,,,,,,,,,,,,,
,,,,,,,,,,,,,,1,001,2025-01-03_23h42.07.419,IAT(Formal),2021.2.3,Win32,60.24096386,,,,,,,,,,,,,,,i,1,0.5324,,,,,,自私,i,,,1,55,135,43,1,,,,,,,,,,,,,,,,,,,,,,,,,,,,,,,,,,
,,,,,,,,,,,,,,1,001,2025-01-03_23h42.07.419,IAT(Formal),2021.2.3,Win32,60.24096386,,,,,,,,,,,,,,,i,1,0.5294,,,,,,冒失,i,,,1,56,136,39,1,,,,,,,,,,,,,,,,,,,,,,,,,,,,,,,,,,
,,,,,,,,,,,,,,1,001,2025-01-03_23h42.07.419,IAT(Formal),2021.2.3,Win32,60.24096386,,,,,,,,,,,,,,,e,1,0.7106,,,,,,崇高,e,,,1,57,137,11,1,,,,,,,,,,,,,,,,,,,,,,,,,,,,,,,,,,
,,,,,,,,,,,,,,1,001,2025-01-03_23h42.07.419,IAT(Formal),2021.2.3,Win32,60.24096386,,,,,,,,,,,,,,,i,0,0.559,,,,,,我的,e,,,1,58,138,61,1,,,,,,,,,,,,,,,,,,,,,,,,,,,,,,,,,,
,,,,,,,,,,,,,,1,001,2025-01-03_23h42.07.419,IAT(Formal),2021.2.3,Win32,60.24096386,,,,,,,,,,,,,,,i,1,0.686,,,,,,他,i,,,1,59,139,55,1,,,,,,,,,,,,,,,,,,,,,,,,,,,,,,,,,,
,,,,,,,,,,,,,,1,001,2025-01-03_23h42.07.419,IAT(Formal),2021.2.3,Win32,60.24096386,,,,,,,,,,,,,,,e,1,0.5255,,,,,,我,e,,,1,60,140,60,1,,,,,,,,,,,,,,,,,,,,,,,,,,,,,,,,,,
,,,,,,,,,,,,,,1,001,2025-01-03_23h42.07.419,IAT(Formal),2021.2.3,Win32,60.24096386,,,,,,,,,,,,,,,i,1,0.4156,,,,,,他,i,,,1,61,141,5,1,,,,,,,,,,,,,,,,,,,,,,,,,,,,,,,,,,
,,,,,,,,,,,,,,1,001,2025-01-03_23h42.07.419,IAT(Formal),2021.2.3,Win32,60.24096386,,,,,,,,,,,,,,,e,1,0.5001,,,,,,朴实,e,,,1,62,142,24,1,,,,,,,,,,,,,,,,,,,,,,,,,,,,,,,,,,
,,,,,,,,,,,,,,1,001,2025-01-03_23h42.07.419,IAT(Formal),2021.2.3,Win32,60.24096386,,,,,,,,,,,,,,,e,1,0.6495,,,,,,俺,e,,,1,63,143,54,1,,,,,,,,,,,,,,,,,,,,,,,,,,,,,,,,,,
,,,,,,,,,,,,,,1,001,2025-01-03_23h42.07.419,IAT(Formal),2021.2.3,Win32,60.24096386,,,,,,,,,,,,,,,i,1,0.4638,,,,,,散漫,i,,,1,64,144,41,1,,,,,,,,,,,,,,,,,,,,,,,,,,,,,,,,,,
,,,,,,,,,,,,,,1,001,2025-01-03_23h42.07.419,IAT(Formal),2021.2.3,Win32,60.24096386,,,,,,,,,,,,,,,i,1,0.5143,,,,,,他,i,,,1,65,145,75,1,,,,,,,,,,,,,,,,,,,,,,,,,,,,,,,,,,
,,,,,,,,,,,,,,1,001,2025-01-03_23h42.07.419,IAT(Formal),2021.2.3,Win32,60.24096386,,,,,,,,,,,,,,,e,1,0.6408,,,,,,细腻,e,,,1,66,146,25,1,,,,,,,,,,,,,,,,,,,,,,,,,,,,,,,,,,
,,,,,,,,,,,,,,1,001,2025-01-03_23h42.07.419,IAT(Formal),2021.2.3,Win32,60.24096386,,,,,,,,,,,,,,,i,1,0.5289,,,,,,他的,i,,,1,67,147,67,1,,,,,,,,,,,,,,,,,,,,,,,,,,,,,,,,,,
,,,,,,,,,,,,,,1,001,2025-01-03_23h42.07.419,IAT(Formal),2021.2.3,Win32,60.24096386,,,,,,,,,,,,,,,i,1,0.5185,,,,,,凶狠,i,,,1,68,148,42,1,,,,,,,,,,,,,,,,,,,,,,,,,,,,,,,,,,
,,,,,,,,,,,,,,1,001,2025-01-03_23h42.07.419,IAT(Formal),2021.2.3,Win32,60.24096386,,,,,,,,,,,,,,,e,1,0.4585,,,,,,我们,e,,,1,69,149,72,1,,,,,,,,,,,,,,,,,,,,,,,,,,,,,,,,,,
,,,,,,,,,,,,,,1,001,2025-01-03_23h42.07.419,IAT(Formal),2021.2.3,Win32,60.24096386,,,,,,,,,,,,,,,e,1,0.6501,,,,,,正直,e,,,1,70,150,16,1,,,,,,,,,,,,,,,,,,,,,,,,,,,,,,,,,,
,,,,,,,,,,,,,,1,001,2025-01-03_23h42.07.419,IAT(Formal),2021.2.3,Win32,60.24096386,,,,,,,,,,,,,,,e,1,0.5161,,,,,,我,e,,,1,71,151,70,1,,,,,,,,,,,,,,,,,,,,,,,,,,,,,,,,,,
,,,,,,,,,,,,,,1,001,2025-01-03_23h42.07.419,IAT(Formal),2021.2.3,Win32,60.24096386,,,,,,,,,,,,,,,i,1,0.5265,,,,,,他的,i,,,1,72,152,57,1,,,,,,,,,,,,,,,,,,,,,,,,,,,,,,,,,,
,,,,,,,,,,,,,,1,001,2025-01-03_23h42.07.419,IAT(Formal),2021.2.3,Win32,60.24096386,,,,,,,,,,,,,,,i,1,0.4792,,,,,,他们,i,,,1,73,153,6,1,,,,,,,,,,,,,,,,,,,,,,,,,,,,,,,,,,
,,,,,,,,,,,,,,1,001,2025-01-03_23h42.07.419,IAT(Formal),2021.2.3,Win32,60.24096386,,,,,,,,,,,,,,,e,1,0.4371,,,,,,俺,e,,,1,74,154,64,1,,,,,,,,,,,,,,,,,,,,,,,,,,,,,,,,,,
,,,,,,,,,,,,,,1,001,2025-01-03_23h42.07.419,IAT(Formal),2021.2.3,Win32,60.24096386,,,,,,,,,,,,,,,e,1,0.4259,,,,,,我们,e,,,1,75,155,62,1,,,,,,,,,,,,,,,,,,,,,,,,,,,,,,,,,,
,,,,,,,,,,,,,,1,001,2025-01-03_23h42.07.419,IAT(Formal),2021.2.3,Win32,60.24096386,,,,,,,,,,,,,,,e,1,0.4718,,,,,,勇敢,e,,,1,76,156,17,1,,,,,,,,,,,,,,,,,,,,,,,,,,,,,,,,,,
,,,,,,,,,,,,,,1,001,2025-01-03_23h42.07.419,IAT(Formal),2021.2.3,Win32,60.24096386,,,,,,,,,,,,,,,e,1,0.5489,,,,,,诚恳,e,,,1,77,157,29,1,,,,,,,,,,,,,,,,,,,,,,,,,,,,,,,,,,
,,,,,,,,,,,,,,1,001,2025-01-03_23h42.07.419,IAT(Formal),2021.2.3,Win32,60.24096386,,,,,,,,,,,,,,,i,1,0.7299,,,,,,他人,i,,,1,78,158,58,1,,,,,,,,,,,,,,,,,,,,,,,,,,,,,,,,,,
,,,,,,,,,,,,,,1,001,2025-01-03_23h42.07.419,IAT(Formal),2021.2.3,Win32,60.24096386,,,,,,,,,,,,,,,i,1,0.4658,,,,,,他,i,,,1,79,159,65,1,,,,,,,,,,,,,,,,,,,,,,,,,,,,,,,,,,
,,,,,,,,,,,,他,e,1,001,2025-01-03_23h42.07.419,IAT(Formal),2021.2.3,Win32,60.24096386,,,,,,,,,,,,,,,,,,,,,,,,,,,,,,,,space,13.8147,e,1,0.8603,0,0,0,5,1,,,,,,,,,,,,,,,,,,,,,,,,
,,,,,,,,,,,,他人,e,1,001,2025-01-03_23h42.07.419,IAT(Formal),2021.2.3,Win32,60.24096386,,,,,,,,,,,,,,,,,,,,,,,,,,,,,,,,,,e,1,0.4787,0,1,1,8,1,,,,,,,,,,,,,,,,,,,,,,,,
,,,,,,,,,,,,我,i,1,001,2025-01-03_23h42.07.419,IAT(Formal),2021.2.3,Win32,60.24096386,,,,,,,,,,,,,,,,,,,,,,,,,,,,,,,,,,i,1,0.4009,0,2,2,0,1,,,,,,,,,,,,,,,,,,,,,,,,
,,,,,,,,,,,,我的,i,1,001,2025-01-03_23h42.07.419,IAT(Formal),2021.2.3,Win32,60.24096386,,,,,,,,,,,,,,,,,,,,,,,,,,,,,,,,,,i,1,0.3496,0,3,3,1,1,,,,,,,,,,,,,,,,,,,,,,,,
,,,,,,,,,,,,俺,i,1,001,2025-01-03_23h42.07.419,IAT(Formal),2021.2.3,Win32,60.24096386,,,,,,,,,,,,,,,,,,,,,,,,,,,,,,,,,,e,0,0.3977,0,4,4,4,1,,,,,,,,,,,,,,,,,,,,,,,,
,,,,,,,,,,,,其他,e,1,001,2025-01-03_23h42.07.419,IAT(Formal),2021.2.3,Win32,60.24096386,,,,,,,,,,,,,,,,,,,,,,,,,,,,,,,,,,e,1,0.5838,0,5,5,9,1,,,,,,,,,,,,,,,,,,,,,,,,
,,,,,,,,,,,,我们,i,1,001,2025-01-03_23h42.07.419,IAT(Formal),2021.2.3,Win32,60.24096386,,,,,,,,,,,,,,,,,,,,,,,,,,,,,,,,,,i,1,0.5145,0,6,6,2,1,,,,,,,,,,,,,,,,,,,,,,,,
,,,,,,,,,,,,自己,i,1,001,2025-01-03_23h42.07.419,IAT(Formal),2021.2.3,Win32,60.24096386,,,,,,,,,,,,,,,,,,,,,,,,,,,,,,,,,,i,1,0.4873,0,7,7,3,1,,,,,,,,,,,,,,,,,,,,,,,,
,,,,,,,,,,,,他的,e,1,001,2025-01-03_23h42.07.419,IAT(Formal),2021.2.3,Win32,60.24096386,,,,,,,,,,,,,,,,,,,,,,,,,,,,,,,,,,e,1,0.5972,0,8,8,7,1,,,,,,,,,,,,,,,,,,,,,,,,
,,,,,,,,,,,,他们,e,1,001,2025-01-03_23h42.07.419,IAT(Formal),2021.2.3,Win32,60.24096386,,,,,,,,,,,,,,,,,,,,,,,,,,,,,,,,,,e,1,0.5987,0,9,9,6,1,,,,,,,,,,,,,,,,,,,,,,,,
,,,,,,,,,,,,,,1,001,2025-01-03_23h42.07.419,IAT(Formal),2021.2.3,Win32,60.24096386,,,,,,,,,,,,,,,,,,,,,,,,,,,,,,,,,,,,,,,,,,space,5.9396,i,1,0.5457,0,0,0,31,1,虚伪,i,,,,,,,,,,,,
,,,,,,,,,,,,,,1,001,2025-01-03_23h42.07.419,IAT(Formal),2021.2.3,Win32,60.24096386,,,,,,,,,,,,,,,,,,,,,,,,,,,,,,,,,,,,,,,,,,,,e,1,0.5817,0,1,1,77,1,他的,e,,,,,,,,,,,,
,,,,,,,,,,,,,,1,001,2025-01-03_23h42.07.419,IAT(Formal),2021.2.3,Win32,60.24096386,,,,,,,,,,,,,,,,,,,,,,,,,,,,,,,,,,,,,,,,,,,,i,1,0.5206,0,2,2,61,1,我的,i,,,,,,,,,,,,
,,,,,,,,,,,,,,1,001,2025-01-03_23h42.07.419,IAT(Formal),2021.2.3,Win32,60.24096386,,,,,,,,,,,,,,,,,,,,,,,,,,,,,,,,,,,,,,,,,,,,i,1,0.7772,0,3,3,47,1,固执,i,,,,,,,,,,,,
,,,,,,,,,,,,,,1,001,2025-01-03_23h42.07.419,IAT(Formal),2021.2.3,Win32,60.24096386,,,,,,,,,,,,,,,,,,,,,,,,,,,,,,,,,,,,,,,,,,,,e,1,0.854,0,4,4,23,1,公正,e,,,,,,,,,,,,
,,,,,,,,,,,,,,1,001,2025-01-03_23h42.07.419,IAT(Formal),2021.2.3,Win32,60.24096386,,,,,,,,,,,,,,,,,,,,,,,,,,,,,,,,,,,,,,,,,,,,i,1,0.6925,0,5,5,41,1,散漫,i,,,,,,,,,,,,
,,,,,,,,,,,,,,1,001,2025-01-03_23h42.07.419,IAT(Formal),2021.2.3,Win32,60.24096386,,,,,,,,,,,,,,,,,,,,,,,,,,,,,,,,,,,,,,,,,,,,i,1,0.5534,0,6,6,39,1,冒失,i,,,,,,,,,,,,
,,,,,,,,,,,,,,1,001,2025-01-03_23h42.07.419,IAT(Formal),2021.2.3,Win32,60.24096386,,,,,,,,,,,,,,,,,,,,,,,,,,,,,,,,,,,,,,,,,,,,i,0,0.579,0,7,7,11,1,崇高,e,,,,,,,,,,,,
,,,,,,,,,,,,,,1,001,2025-01-03_23h42.07.419,IAT(Formal),2021.2.3,Win32,60.24096386,,,,,,,,,,,,,,,,,,,,,,,,,,,,,,,,,,,,,,,,,,,,e,1,0.9403,0,8,8,75,1,他,e,,,,,,,,,,,,
,,,,,,,,,,,,,,1,001,2025-01-03_23h42.07.419,IAT(Formal),2021.2.3,Win32,60.24096386,,,,,,,,,,,,,,,,,,,,,,,,,,,,,,,,,,,,,,,,,,,,i,1,0.5817,0,9,9,60,1,我,i,,,,,,,,,,,,
,,,,,,,,,,,,,,1,001,2025-01-03_23h42.07.419,IAT(Formal),2021.2.3,Win32,60.24096386,,,,,,,,,,,,,,,,,,,,,,,,,,,,,,,,,,,,,,,,,,,,i,1,0.5475,0,10,10,52,1,我们,i,,,,,,,,,,,,
,,,,,,,,,,,,,,1,001,2025-01-03_23h42.07.419,IAT(Formal),2021.2.3,Win32,60.24096386,,,,,,,,,,,,,,,,,,,,,,,,,,,,,,,,,,,,,,,,,,,,e,1,0.5816,0,11,11,58,1,他人,e,,,,,,,,,,,,
,,,,,,,,,,,,,,1,001,2025-01-03_23h42.07.419,IAT(Formal),2021.2.3,Win32,60.24096386,,,,,,,,,,,,,,,,,,,,,,,,,,,,,,,,,,,,,,,,,,,,i,1,0.7105,0,12,12,38,1,鲁莽,i,,,,,,,,,,,,
,,,,,,,,,,,,,,1,001,2025-01-03_23h42.07.419,IAT(Formal),2021.2.3,Win32,60.24096386,,,,,,,,,,,,,,,,,,,,,,,,,,,,,,,,,,,,,,,,,,,,i,1,0.469,0,13,13,34,1,悲观,i,,,,,,,,,,,,
,,,,,,,,,,,,,,1,001,2025-01-03_23h42.07.419,IAT(Formal),2021.2.3,Win32,60.24096386,,,,,,,,,,,,,,,,,,,,,,,,,,,,,,,,,,,,,,,,,,,,e,1,0.534,0,14,14,28,1,活泼,e,,,,,,,,,,,,
,,,,,,,,,,,,,,1,001,2025-01-03_23h42.07.419,IAT(Formal),2021.2.3,Win32,60.24096386,,,,,,,,,,,,,,,,,,,,,,,,,,,,,,,,,,,,,,,,,,,,i,1,1.3907,0,15,15,45,1,猖狂,i,,,,,,,,,,,,
,,,,,,,,,,,,,,1,001,2025-01-03_23h42.07.419,IAT(Formal),2021.2.3,Win32,60.24096386,,,,,,,,,,,,,,,,,,,,,,,,,,,,,,,,,,,,,,,,,,,,i,1,0.6797,0,16,16,63,1,自己,i,,,,,,,,,,,,
,,,,,,,,,,,,,,1,001,2025-01-03_23h42.07.419,IAT(Formal),2021.2.3,Win32,60.24096386,,,,,,,,,,,,,,,,,,,,,,,,,,,,,,,,,,,,,,,,,,,,i,0,0.3786,0,17,17,65,1,他,e,,,,,,,,,,,,
,,,,,,,,,,,,,,1,001,2025-01-03_23h42.07.419,IAT(Formal),2021.2.3,Win32,60.24096386,,,,,,,,,,,,,,,,,,,,,,,,,,,,,,,,,,,,,,,,,,,,e,1,0.6396,0,18,18,55,1,他,e,,,,,,,,,,,,
,,,,,,,,,,,,,,1,001,2025-01-03_23h42.07.419,IAT(Formal),2021.2.3,Win32,60.24096386,,,,,,,,,,,,,,,,,,,,,,,,,,,,,,,,,,,,,,,,,,,,e,1,0.5186,0,19,19,78,1,他人,e,,,,,,,,,,,,
,,,,,,,,,,,,,,1,001,2025-01-03_23h42.07.419,IAT(Formal),2021.2.3,Win32,60.24096386,,,,,,,,,,,,,,,,,,,,,,,,,,,,,,,,,,,,,,,,,,,,i,0,0.6849,0,20,20,17,1,勇敢,e,,,,,,,,,,,,
,,,,,,,,,,,,,,1,001,2025-01-03_23h42.07.419,IAT(Formal),2021.2.3,Win32,60.24096386,,,,,,,,,,,,,,,,,,,,,,,,,,,,,,,,,,,,,,,,,,,,i,1,0.6306,0,21,21,49,1,下贱,i,,,,,,,,,,,,
,,,,,,,,,,,,,,1,001,2025-01-03_23h42.07.419,IAT(Formal),2021.2.3,Win32,60.24096386,,,,,,,,,,,,,,,,,,,,,,,,,,,,,,,,,,,,,,,,,,,,e,1,0.6994,0,22,22,14,1,乐观,e,,,,,,,,,,,,
,,,,,,,,,,,,,,1,001,2025-01-03_23h42.07.419,IAT(Formal),2021.2.3,Win32,60.24096386,,,,,,,,,,,,,,,,,,,,,,,,,,,,,,,,,,,,,,,,,,,,i,1,0.5414,0,23,23,46,1,野蛮,i,,,,,,,,,,,,
,,,,,,,,,,,,,,1,001,2025-01-03_23h42.07.419,IAT(Formal),2021.2.3,Win32,60.24096386,,,,,,,,,,,,,,,,,,,,,,,,,,,,,,,,,,,,,,,,,,,,e,1,0.5613,0,24,24,13,1,杰出,e,,,,,,,,,,,,
,,,,,,,,,,,,,,1,001,2025-01-03_23h42.07.419,IAT(Formal),2021.2.3,Win32,60.24096386,,,,,,,,,,,,,,,,,,,,,,,,,,,,,,,,,,,,,,,,,,,,i,1,0.6359,0,25,25,1,1,我的,i,,,,,,,,,,,,
,,,,,,,,,,,,,,1,001,2025-01-03_23h42.07.419,IAT(Formal),2021.2.3,Win32,60.24096386,,,,,,,,,,,,,,,,,,,,,,,,,,,,,,,,,,,,,,,,,,,,e,1,0.6137,0,26,26,18,1,勤奋,e,,,,,,,,,,,,
,,,,,,,,,,,,,,1,001,2025-01-03_23h42.07.419,IAT(Formal),2021.2.3,Win32,60.24096386,,,,,,,,,,,,,,,,,,,,,,,,,,,,,,,,,,,,,,,,,,,,i,1,0.4205,0,27,27,50,1,我,i,,,,,,,,,,,,
,,,,,,,,,,,,,,1,001,2025-01-03_23h42.07.419,IAT(Formal),2021.2.3,Win32,60.24096386,,,,,,,,,,,,,,,,,,,,,,,,,,,,,,,,,,,,,,,,,,,,i,1,0.7133,0,28,28,33,1,刻薄,i,,,,,,,,,,,,
,,,,,,,,,,,,,,1,001,2025-01-03_23h42.07.419,IAT(Formal),2021.2.3,Win32,60.24096386,,,,,,,,,,,,,,,,,,,,,,,,,,,,,,,,,,,,,,,,,,,,i,1,0.4858,0,29,29,54,1,俺,i,,,,,,,,,,,,
,,,,,,,,,,,,,,1,001,2025-01-03_23h42.07.419,IAT(Formal),2021.2.3,Win32,60.24096386,,,,,,,,,,,,,,,,,,,,,,,,,,,,,,,,,,,,,,,,,,,,e,1,0.5661,0,30,30,57,1,他的,e,,,,,,,,,,,,
,,,,,,,,,,,,,,1,001,2025-01-03_23h42.07.419,IAT(Formal),2021.2.3,Win32,60.24096386,,,,,,,,,,,,,,,,,,,,,,,,,,,,,,,,,,,,,,,,,,,,i,1,0.5104,0,31,31,64,1,俺,i,,,,,,,,,,,,
,,,,,,,,,,,,,,1,001,2025-01-03_23h42.07.419,IAT(Formal),2021.2.3,Win32,60.24096386,,,,,,,,,,,,,,,,,,,,,,,,,,,,,,,,,,,,,,,,,,,,e,1,0.6104,0,32,32,68,1,他人,e,,,,,,,,,,,,
,,,,,,,,,,,,,,1,001,2025-01-03_23h42.07.419,IAT(Formal),2021.2.3,Win32,60.24096386,,,,,,,,,,,,,,,,,,,,,,,,,,,,,,,,,,,,,,,,,,,,i,1,0.8585,0,33,33,43,1,自私,i,,,,,,,,,,,,
,,,,,,,,,,,,,,1,001,2025-01-03_23h42.07.419,IAT(Formal),2021.2.3,Win32,60.24096386,,,,,,,,,,,,,,,,,,,,,,,,,,,,,,,,,,,,,,,,,,,,i,1,0.6762,0,34,34,51,1,我的,i,,,,,,,,,,,,
,,,,,,,,,,,,,,1,001,2025-01-03_23h42.07.419,IAT(Formal),2021.2.3,Win32,60.24096386,,,,,,,,,,,,,,,,,,,,,,,,,,,,,,,,,,,,,,,,,,,,i,1,0.5151,0,35,35,32,1,愚蠢,i,,,,,,,,,,,,
,,,,,,,,,,,,,,1,001,2025-01-03_23h42.07.419,IAT(Formal),2021.2.3,Win32,60.24096386,,,,,,,,,,,,,,,,,,,,,,,,,,,,,,,,,,,,,,,,,,,,e,1,0.5467,0,36,36,56,1,他们,e,,,,,,,,,,,,
,,,,,,,,,,,,,,1,001,2025-01-03_23h42.07.419,IAT(Formal),2021.2.3,Win32,60.24096386,,,,,,,,,,,,,,,,,,,,,,,,,,,,,,,,,,,,,,,,,,,,i,1,0.6292,0,37,37,73,1,自己,i,,,,,,,,,,,,
,,,,,,,,,,,,,,1,001,2025-01-03_23h42.07.419,IAT(Formal),2021.2.3,Win32,60.24096386,,,,,,,,,,,,,,,,,,,,,,,,,,,,,,,,,,,,,,,,,,,,i,1,0.6491,0,38,38,42,1,凶狠,i,,,,,,,,,,,,
,,,,,,,,,,,,,,1,001,2025-01-03_23h42.07.419,IAT(Formal),2021.2.3,Win32,60.24096386,,,,,,,,,,,,,,,,,,,,,,,,,,,,,,,,,,,,,,,,,,,,e,1,0.652,0,39,39,8,1,他人,e,,,,,,,,,,,,
,,,,,,,,,,,,,,1,001,2025-01-03_23h42.07.419,IAT(Formal),2021.2.3,Win32,60.24096386,,,,,,,,,,,,,,,,,,,,,,,,,,,,,,,,,,,,,,,,,,,,i,1,0.9201,0,40,40,72,1,我们,i,,,,,,,,,,,,
,,,,,,,,,,,,,,1,001,2025-01-03_23h42.07.419,IAT(Formal),2021.2.3,Win32,60.24096386,,,,,,,,,,,,,,,,,,,,,,,,,,,,,,,,,,,,,,,,,,,,e,1,0.9313,0,41,41,26,1,冷静,e,,,,,,,,,,,,
,,,,,,,,,,,,,,1,001,2025-01-03_23h42.07.419,IAT(Formal),2021.2.3,Win32,60.24096386,,,,,,,,,,,,,,,,,,,,,,,,,,,,,,,,,,,,,,,,,,,,i,1,0.5765,0,42,42,37,1,傲慢,i,,,,,,,,,,,,
,,,,,,,,,,,,,,1,001,2025-01-03_23h42.07.419,IAT(Formal),2021.2.3,Win32,60.24096386,,,,,,,,,,,,,,,,,,,,,,,,,,,,,,,,,,,,,,,,,,,,i,1,0.6869,0,43,43,44,1,暴躁,i,,,,,,,,,,,,
,,,,,,,,,,,,,,1,001,2025-01-03_23h42.07.419,IAT(Formal),2021.2.3,Win32,60.24096386,,,,,,,,,,,,,,,,,,,,,,,,,,,,,,,,,,,,,,,,,,,,e,1,0.6293,0,44,44,10,1,优秀,e,,,,,,,,,,,,
,,,,,,,,,,,,,,1,001,2025-01-03_23h42.07.419,IAT(Formal),2021.2.3,Win32,60.24096386,,,,,,,,,,,,,,,,,,,,,,,,,,,,,,,,,,,,,,,,,,,,i,1,0.6284,0,45,45,3,1,自己,i,,,,,,,,,,,,
,,,,,,,,,,,,,,1,001,2025-01-03_23h42.07.419,IAT(Formal),2021.2.3,Win32,60.24096386,,,,,,,,,,,,,,,,,,,,,,,,,,,,,,,,,,,,,,,,,,,,e,1,0.5802,0,46,46,29,1,诚恳,e,,,,,,,,,,,,
,,,,,,,,,,,,,,1,001,2025-01-03_23h42.07.419,IAT(Formal),2021.2.3,Win32,60.24096386,,,,,,,,,,,,,,,,,,,,,,,,,,,,,,,,,,,,,,,,,,,,e,1,0.6134,0,47,47,5,1,他,e,,,,,,,,,,,,
,,,,,,,,,,,,,,1,001,2025-01-03_23h42.07.419,IAT(Formal),2021.2.3,Win32,60.24096386,,,,,,,,,,,,,,,,,,,,,,,,,,,,,,,,,,,,,,,,,,,,e,1,1.3267,0,48,48,59,1,其他,e,,,,,,,,,,,,
,,,,,,,,,,,,,,1,001,2025-01-03_23h42.07.419,IAT(Formal),2021.2.3,Win32,60.24096386,,,,,,,,,,,,,,,,,,,,,,,,,,,,,,,,,,,,,,,,,,,,i,1,0.5785,0,49,49,36,1,自卑,i,,,,,,,,,,,,
,,,,,,,,,,,,,,1,001,2025-01-03_23h42.07.419,IAT(Formal),2021.2.3,Win32,60.24096386,,,,,,,,,,,,,,,,,,,,,,,,,,,,,,,,,,,,,,,,,,,,i,1,0.5988,0,50,50,30,1,卑鄙,i,,,,,,,,,,,,
,,,,,,,,,,,,,,1,001,2025-01-03_23h42.07.419,IAT(Formal),2021.2.3,Win32,60.24096386,,,,,,,,,,,,,,,,,,,,,,,,,,,,,,,,,,,,,,,,,,,,e,1,0.4931,0,51,51,67,1,他的,e,,,,,,,,,,,,
,,,,,,,,,,,,,,1,001,2025-01-03_23h42.07.419,IAT(Formal),2021.2.3,Win32,60.24096386,,,,,,,,,,,,,,,,,,,,,,,,,,,,,,,,,,,,,,,,,,,,i,1,0.7171,0,52,52,35,1,消极,i,,,,,,,,,,,,
,,,,,,,,,,,,,,1,001,2025-01-03_23h42.07.419,IAT(Formal),2021.2.3,Win32,60.24096386,,,,,,,,,,,,,,,,,,,,,,,,,,,,,,,,,,,,,,,,,,,,e,1,0.5819,0,53,53,76,1,他们,e,,,,,,,,,,,,
,,,,,,,,,,,,,,1,001,2025-01-03_23h42.07.419,IAT(Formal),2021.2.3,Win32,60.24096386,,,,,,,,,,,,,,,,,,,,,,,,,,,,,,,,,,,,,,,,,,,,e,1,0.8696,0,54,54,27,1,热情,e,,,,,,,,,,,,
,,,,,,,,,,,,,,1,001,2025-01-03_23h42.07.419,IAT(Formal),2021.2.3,Win32,60.24096386,,,,,,,,,,,,,,,,,,,,,,,,,,,,,,,,,,,,,,,,,,,,e,1,0.6914,0,55,55,20,1,认真,e,,,,,,,,,,,,
,,,,,,,,,,,,,,1,001,2025-01-03_23h42.07.419,IAT(Formal),2021.2.3,Win32,60.24096386,,,,,,,,,,,,,,,,,,,,,,,,,,,,,,,,,,,,,,,,,,,,i,1,0.8206,0,56,56,70,1,我,i,,,,,,,,,,,,
,,,,,,,,,,,,,,1,001,2025-01-03_23h42.07.419,IAT(Formal),2021.2.3,Win32,60.24096386,,,,,,,,,,,,,,,,,,,,,,,,,,,,,,,,,,,,,,,,,,,,i,1,0.5474,0,57,57,53,1,自己,i,,,,,,,,,,,,
,,,,,,,,,,,,,,1,001,2025-01-03_23h42.07.419,IAT(Formal),2021.2.3,Win32,60.24096386,,,,,,,,,,,,,,,,,,,,,,,,,,,,,,,,,,,,,,,,,,,,e,1,0.7875,0,58,58,19,1,机智,e,,,,,,,,,,,,
,,,,,,,,,,,,,,1,001,2025-01-03_23h42.07.419,IAT(Formal),2021.2.3,Win32,60.24096386,,,,,,,,,,,,,,,,,,,,,,,,,,,,,,,,,,,,,,,,,,,,e,1,0.6443,0,59,59,16,1,正直,e,,,,,,,,,,,,
,,,,,,,,,,,,,,1,001,2025-01-03_23h42.07.419,IAT(Formal),2021.2.3,Win32,60.24096386,,,,,,,,,,,,,,,,,,,,,,,,,,,,,,,,,,,,,,,,,,,,e,1,0.7616,0,60,60,69,1,其他,e,,,,,,,,,,,,
,,,,,,,,,,,,,,1,001,2025-01-03_23h42.07.419,IAT(Formal),2021.2.3,Win32,60.24096386,,,,,,,,,,,,,,,,,,,,,,,,,,,,,,,,,,,,,,,,,,,,e,1,0.5183,0,61,61,6,1,他们,e,,,,,,,,,,,,
,,,,,,,,,,,,,,1,001,2025-01-03_23h42.07.419,IAT(Formal),2021.2.3,Win32,60.24096386,,,,,,,,,,,,,,,,,,,,,,,,,,,,,,,,,,,,,,,,,,,,i,1,0.7526,0,62,62,62,1,我们,i,,,,,,,,,,,,
,,,,,,,,,,,,,,1,001,2025-01-03_23h42.07.419,IAT(Formal),2021.2.3,Win32,60.24096386,,,,,,,,,,,,,,,,,,,,,,,,,,,,,,,,,,,,,,,,,,,,i,1,0.9851,0,63,63,2,1,我们,i,,,,,,,,,,,,
,,,,,,,,,,,,,,1,001,2025-01-03_23h42.07.419,IAT(Formal),2021.2.3,Win32,60.24096386,,,,,,,,,,,,,,,,,,,,,,,,,,,,,,,,,,,,,,,,,,,,e,1,0.6647,0,64,64,22,1,无私,e,,,,,,,,,,,,
,,,,,,,,,,,,,,1,001,2025-01-03_23h42.07.419,IAT(Formal),2021.2.3,Win32,60.24096386,,,,,,,,,,,,,,,,,,,,,,,,,,,,,,,,,,,,,,,,,,,,e,1,0.6183,0,65,65,15,1,诚实,e,,,,,,,,,,,,
,,,,,,,,,,,,,,1,001,2025-01-03_23h42.07.419,IAT(Formal),2021.2.3,Win32,60.24096386,,,,,,,,,,,,,,,,,,,,,,,,,,,,,,,,,,,,,,,,,,,,e,1,0.806,0,66,66,24,1,朴实,e,,,,,,,,,,,,
,,,,,,,,,,,,,,1,001,2025-01-03_23h42.07.419,IAT(Formal),2021.2.3,Win32,60.24096386,,,,,,,,,,,,,,,,,,,,,,,,,,,,,,,,,,,,,,,,,,,,e,1,0.5458,0,67,67,12,1,聪明,e,,,,,,,,,,,,
,,,,,,,,,,,,,,1,001,2025-01-03_23h42.07.419,IAT(Formal),2021.2.3,Win32,60.24096386,,,,,,,,,,,,,,,,,,,,,,,,,,,,,,,,,,,,,,,,,,,,i,1,0.6793,0,68,68,4,1,俺,i,,,,,,,,,,,,
,,,,,,,,,,,,,,1,001,2025-01-03_23h42.07.419,IAT(Formal),2021.2.3,Win32,60.24096386,,,,,,,,,,,,,,,,,,,,,,,,,,,,,,,,,,,,,,,,,,,,e,1,0.4959,0,69,69,79,1,其他,e,,,,,,,,,,,,
,,,,,,,,,,,,,,1,001,2025-01-03_23h42.07.419,IAT(Formal),2021.2.3,Win32,60.24096386,,,,,,,,,,,,,,,,,,,,,,,,,,,,,,,,,,,,,,,,,,,,e,1,0.6158,0,70,70,21,1,稳重,e,,,,,,,,,,,,
,,,,,,,,,,,,,,1,001,2025-01-03_23h42.07.419,IAT(Formal),2021.2.3,Win32,60.24096386,,,,,,,,,,,,,,,,,,,,,,,,,,,,,,,,,,,,,,,,,,,,e,1,0.5753,0,71,71,25,1,细腻,e,,,,,,,,,,,,
,,,,,,,,,,,,,,1,001,2025-01-03_23h42.07.419,IAT(Formal),2021.2.3,Win32,60.24096386,,,,,,,,,,,,,,,,,,,,,,,,,,,,,,,,,,,,,,,,,,,,e,1,0.5148,0,72,72,66,1,他们,e,,,,,,,,,,,,
,,,,,,,,,,,,,,1,001,2025-01-03_23h42.07.419,IAT(Formal),2021.2.3,Win32,60.24096386,,,,,,,,,,,,,,,,,,,,,,,,,,,,,,,,,,,,,,,,,,,,e,1,0.5285,0,73,73,9,1,其他,e,,,,,,,,,,,,
,,,,,,,,,,,,,,1,001,2025-01-03_23h42.07.419,IAT(Formal),2021.2.3,Win32,60.24096386,,,,,,,,,,,,,,,,,,,,,,,,,,,,,,,,,,,,,,,,,,,,i,1,0.5671,0,74,74,71,1,我的,i,,,,,,,,,,,,
,,,,,,,,,,,,,,1,001,2025-01-03_23h42.07.419,IAT(Formal),2021.2.3,Win32,60.24096386,,,,,,,,,,,,,,,,,,,,,,,,,,,,,,,,,,,,,,,,,,,,i,1,0.9943,0,75,75,48,1,轻率,i,,,,,,,,,,,,
,,,,,,,,,,,,,,1,001,2025-01-03_23h42.07.419,IAT(Formal),2021.2.3,Win32,60.24096386,,,,,,,,,,,,,,,,,,,,,,,,,,,,,,,,,,,,,,,,,,,,e,1,0.6871,0,76,76,7,1,他的,e,,,,,,,,,,,,
,,,,,,,,,,,,,,1,001,2025-01-03_23h42.07.419,IAT(Formal),2021.2.3,Win32,60.24096386,,,,,,,,,,,,,,,,,,,,,,,,,,,,,,,,,,,,,,,,,,,,i,1,0.6521,0,77,77,74,1,俺,i,,,,,,,,,,,,
,,,,,,,,,,,,,,1,001,2025-01-03_23h42.07.419,IAT(Formal),2021.2.3,Win32,60.24096386,,,,,,,,,,,,,,,,,,,,,,,,,,,,,,,,,,,,,,,,,,,,i,1,0.4891,0,78,78,0,1,我,i,,,,,,,,,,,,
,,,,,,,,,,,,,,1,001,2025-01-03_23h42.07.419,IAT(Formal),2021.2.3,Win32,60.24096386,,,,,,,,,,,,,,,,,,,,,,,,,,,,,,,,,,,,,,,,,,,,i,1,0.7966,0,79,79,40,1,执拗,i,,,,,,,,,,,,
,,,,,,,,,,,,,,1,001,2025-01-03_23h42.07.419,IAT(Formal),2021.2.3,Win32,60.24096386,,,,,,,,,,,,,,,,,,,,,,,,,,,,,,,,,,,,,,,,,,,,,,,,,,,,执拗,i,space,10.0786,i,1,0.6847,0,0,0,40,1,,
,,,,,,,,,,,,,,1,001,2025-01-03_23h42.07.419,IAT(Formal),2021.2.3,Win32,60.24096386,,,,,,,,,,,,,,,,,,,,,,,,,,,,,,,,,,,,,,,,,,,,,,,,,,,,热情,e,,,e,1,0.5264,0,1,1,27,1,,
,,,,,,,,,,,,,,1,001,2025-01-03_23h42.07.419,IAT(Formal),2021.2.3,Win32,60.24096386,,,,,,,,,,,,,,,,,,,,,,,,,,,,,,,,,,,,,,,,,,,,,,,,,,,,野蛮,i,,,i,1,0.6301,0,2,2,46,1,,
,,,,,,,,,,,,,,1,001,2025-01-03_23h42.07.419,IAT(Formal),2021.2.3,Win32,60.24096386,,,,,,,,,,,,,,,,,,,,,,,,,,,,,,,,,,,,,,,,,,,,,,,,,,,,他,e,,,e,1,0.6826,0,3,3,55,1,,
,,,,,,,,,,,,,,1,001,2025-01-03_23h42.07.419,IAT(Formal),2021.2.3,Win32,60.24096386,,,,,,,,,,,,,,,,,,,,,,,,,,,,,,,,,,,,,,,,,,,,,,,,,,,,我的,i,,,i,1,0.6456,0,4,4,51,1,,
,,,,,,,,,,,,,,1,001,2025-01-03_23h42.07.419,IAT(Formal),2021.2.3,Win32,60.24096386,,,,,,,,,,,,,,,,,,,,,,,,,,,,,,,,,,,,,,,,,,,,,,,,,,,,他,e,,,e,1,0.5572,0,5,5,75,1,,
,,,,,,,,,,,,,,1,001,2025-01-03_23h42.07.419,IAT(Formal),2021.2.3,Win32,60.24096386,,,,,,,,,,,,,,,,,,,,,,,,,,,,,,,,,,,,,,,,,,,,,,,,,,,,虚伪,i,,,i,1,0.5944,0,6,6,31,1,,
,,,,,,,,,,,,,,1,001,2025-01-03_23h42.07.419,IAT(Formal),2021.2.3,Win32,60.24096386,,,,,,,,,,,,,,,,,,,,,,,,,,,,,,,,,,,,,,,,,,,,,,,,,,,,他们,e,,,e,1,0.5963,0,7,7,66,1,,
,,,,,,,,,,,,,,1,001,2025-01-03_23h42.07.419,IAT(Formal),2021.2.3,Win32,60.24096386,,,,,,,,,,,,,,,,,,,,,,,,,,,,,,,,,,,,,,,,,,,,,,,,,,,,其他,e,,,e,1,1.0474,0,8,8,79,1,,
,,,,,,,,,,,,,,1,001,2025-01-03_23h42.07.419,IAT(Formal),2021.2.3,Win32,60.24096386,,,,,,,,,,,,,,,,,,,,,,,,,,,,,,,,,,,,,,,,,,,,,,,,,,,,我们,i,,,i,1,0.543,0,9,9,62,1,,
,,,,,,,,,,,,,,1,001,2025-01-03_23h42.07.419,IAT(Formal),2021.2.3,Win32,60.24096386,,,,,,,,,,,,,,,,,,,,,,,,,,,,,,,,,,,,,,,,,,,,,,,,,,,,我,i,,,i,1,0.4159,0,10,10,70,1,,
,,,,,,,,,,,,,,1,001,2025-01-03_23h42.07.419,IAT(Formal),2021.2.3,Win32,60.24096386,,,,,,,,,,,,,,,,,,,,,,,,,,,,,,,,,,,,,,,,,,,,,,,,,,,,机智,e,,,e,1,0.6306,0,11,11,19,1,,
,,,,,,,,,,,,,,1,001,2025-01-03_23h42.07.419,IAT(Formal),2021.2.3,Win32,60.24096386,,,,,,,,,,,,,,,,,,,,,,,,,,,,,,,,,,,,,,,,,,,,,,,,,,,,崇高,e,,,e,1,0.6368,0,12,12,11,1,,
,,,,,,,,,,,,,,1,001,2025-01-03_23h42.07.419,IAT(Formal),2021.2.3,Win32,60.24096386,,,,,,,,,,,,,,,,,,,,,,,,,,,,,,,,,,,,,,,,,,,,,,,,,,,,固执,i,,,i,1,0.528,0,13,13,47,1,,
,,,,,,,,,,,,,,1,001,2025-01-03_23h42.07.419,IAT(Formal),2021.2.3,Win32,60.24096386,,,,,,,,,,,,,,,,,,,,,,,,,,,,,,,,,,,,,,,,,,,,,,,,,,,,我们,i,,,i,1,0.5942,0,14,14,72,1,,
,,,,,,,,,,,,,,1,001,2025-01-03_23h42.07.419,IAT(Formal),2021.2.3,Win32,60.24096386,,,,,,,,,,,,,,,,,,,,,,,,,,,,,,,,,,,,,,,,,,,,,,,,,,,,我们,i,,,i,1,0.4687,0,15,15,52,1,,
,,,,,,,,,,,,,,1,001,2025-01-03_23h42.07.419,IAT(Formal),2021.2.3,Win32,60.24096386,,,,,,,,,,,,,,,,,,,,,,,,,,,,,,,,,,,,,,,,,,,,,,,,,,,,认真,e,,,e,1,0.5659,0,16,16,20,1,,
,,,,,,,,,,,,,,1,001,2025-01-03_23h42.07.419,IAT(Formal),2021.2.3,Win32,60.24096386,,,,,,,,,,,,,,,,,,,,,,,,,,,,,,,,,,,,,,,,,,,,,,,,,,,,猖狂,i,,,i,1,0.5831,0,17,17,45,1,,
,,,,,,,,,,,,,,1,001,2025-01-03_23h42.07.419,IAT(Formal),2021.2.3,Win32,60.24096386,,,,,,,,,,,,,,,,,,,,,,,,,,,,,,,,,,,,,,,,,,,,,,,,,,,,我的,i,,,i,1,0.479,0,18,18,71,1,,
,,,,,,,,,,,,,,1,001,2025-01-03_23h42.07.419,IAT(Formal),2021.2.3,Win32,60.24096386,,,,,,,,,,,,,,,,,,,,,,,,,,,,,,,,,,,,,,,,,,,,,,,,,,,,他的,e,,,e,1,0.6115,0,19,19,7,1,,
,,,,,,,,,,,,,,1,001,2025-01-03_23h42.07.419,IAT(Formal),2021.2.3,Win32,60.24096386,,,,,,,,,,,,,,,,,,,,,,,,,,,,,,,,,,,,,,,,,,,,,,,,,,,,朴实,e,,,e,1,0.6664,0,20,20,24,1,,
,,,,,,,,,,,,,,1,001,2025-01-03_23h42.07.419,IAT(Formal),2021.2.3,Win32,60.24096386,,,,,,,,,,,,,,,,,,,,,,,,,,,,,,,,,,,,,,,,,,,,,,,,,,,,鲁莽,i,,,i,1,0.5316,0,21,21,38,1,,
,,,,,,,,,,,,,,1,001,2025-01-03_23h42.07.419,IAT(Formal),2021.2.3,Win32,60.24096386,,,,,,,,,,,,,,,,,,,,,,,,,,,,,,,,,,,,,,,,,,,,,,,,,,,,自私,i,,,i,1,0.9283,0,22,22,43,1,,
,,,,,,,,,,,,,,1,001,2025-01-03_23h42.07.419,IAT(Formal),2021.2.3,Win32,60.24096386,,,,,,,,,,,,,,,,,,,,,,,,,,,,,,,,,,,,,,,,,,,,,,,,,,,,我的,i,,,i,1,0.6297,0,23,23,61,1,,
,,,,,,,,,,,,,,1,001,2025-01-03_23h42.07.419,IAT(Formal),2021.2.3,Win32,60.24096386,,,,,,,,,,,,,,,,,,,,,,,,,,,,,,,,,,,,,,,,,,,,,,,,,,,,他们,e,,,e,1,0.58,0,24,24,56,1,,
,,,,,,,,,,,,,,1,001,2025-01-03_23h42.07.419,IAT(Formal),2021.2.3,Win32,60.24096386,,,,,,,,,,,,,,,,,,,,,,,,,,,,,,,,,,,,,,,,,,,,,,,,,,,,下贱,i,,,i,1,0.5812,0,25,25,49,1,,
,,,,,,,,,,,,,,1,001,2025-01-03_23h42.07.419,IAT(Formal),2021.2.3,Win32,60.24096386,,,,,,,,,,,,,,,,,,,,,,,,,,,,,,,,,,,,,,,,,,,,,,,,,,,,其他,e,,,e,1,0.5475,0,26,26,69,1,,
,,,,,,,,,,,,,,1,001,2025-01-03_23h42.07.419,IAT(Formal),2021.2.3,Win32,60.24096386,,,,,,,,,,,,,,,,,,,,,,,,,,,,,,,,,,,,,,,,,,,,,,,,,,,,他,e,,,e,1,0.4862,0,27,27,5,1,,
,,,,,,,,,,,,,,1,001,2025-01-03_23h42.07.419,IAT(Formal),2021.2.3,Win32,60.24096386,,,,,,,,,,,,,,,,,,,,,,,,,,,,,,,,,,,,,,,,,,,,,,,,,,,,他们,e,,,e,1,0.4396,0,28,28,6,1,,
,,,,,,,,,,,,,,1,001,2025-01-03_23h42.07.419,IAT(Formal),2021.2.3,Win32,60.24096386,,,,,,,,,,,,,,,,,,,,,,,,,,,,,,,,,,,,,,,,,,,,,,,,,,,,我,i,,,i,1,0.8612,0,29,29,50,1,,
,,,,,,,,,,,,,,1,001,2025-01-03_23h42.07.419,IAT(Formal),2021.2.3,Win32,60.24096386,,,,,,,,,,,,,,,,,,,,,,,,,,,,,,,,,,,,,,,,,,,,,,,,,,,,他的,e,,,e,1,0.5325,0,30,30,77,1,,
,,,,,,,,,,,,,,1,001,2025-01-03_23h42.07.419,IAT(Formal),2021.2.3,Win32,60.24096386,,,,,,,,,,,,,,,,,,,,,,,,,,,,,,,,,,,,,,,,,,,,,,,,,,,,自己,i,,,i,1,0.7467,0,31,31,73,1,,
,,,,,,,,,,,,,,1,001,2025-01-03_23h42.07.419,IAT(Formal),2021.2.3,Win32,60.24096386,,,,,,,,,,,,,,,,,,,,,,,,,,,,,,,,,,,,,,,,,,,,,,,,,,,,冷静,e,,,,0,,0,32,32,26,1,,
,,,,,,,,,,,,,,1,001,2025-01-03_23h42.07.419,IAT(Formal),2021.2.3,Win32,60.24096386,,,,,,,,,,,,,,,,,,,,,,,,,,,,,,,,,,,,,,,,,,,,,,,,,,,,稳重,e,,,e,1,0.9757,0,33,33,21,1,,
,,,,,,,,,,,,,,1,001,2025-01-03_23h42.07.419,IAT(Formal),2021.2.3,Win32,60.24096386,,,,,,,,,,,,,,,,,,,,,,,,,,,,,,,,,,,,,,,,,,,,,,,,,,,,消极,i,,,i,1,1.1507,0,34,34,35,1,,
,,,,,,,,,,,,,,1,001,2025-01-03_23h42.07.419,IAT(Formal),2021.2.3,Win32,60.24096386,,,,,,,,,,,,,,,,,,,,,,,,,,,,,,,,,,,,,,,,,,,,,,,,,,,,其他,e,,,e,1,0.5377,0,35,35,9,1,,
,,,,,,,,,,,,,,1,001,2025-01-03_23h42.07.419,IAT(Formal),2021.2.3,Win32,60.24096386,,,,,,,,,,,,,,,,,,,,,,,,,,,,,,,,,,,,,,,,,,,,,,,,,,,,傲慢,i,,,e,0,0.5624,0,36,36,37,1,,
,,,,,,,,,,,,,,1,001,2025-01-03_23h42.07.419,IAT(Formal),2021.2.3,Win32,60.24096386,,,,,,,,,,,,,,,,,,,,,,,,,,,,,,,,,,,,,,,,,,,,,,,,,,,,愚蠢,i,,,i,1,0.6772,0,37,37,32,1,,
,,,,,,,,,,,,,,1,001,2025-01-03_23h42.07.419,IAT(Formal),2021.2.3,Win32,60.24096386,,,,,,,,,,,,,,,,,,,,,,,,,,,,,,,,,,,,,,,,,,,,,,,,,,,,散漫,i,,,i,1,0.4835,0,38,38,41,1,,
,,,,,,,,,,,,,,1,001,2025-01-03_23h42.07.419,IAT(Formal),2021.2.3,Win32,60.24096386,,,,,,,,,,,,,,,,,,,,,,,,,,,,,,,,,,,,,,,,,,,,,,,,,,,,暴躁,i,,,i,1,0.4508,0,39,39,44,1,,
,,,,,,,,,,,,,,1,001,2025-01-03_23h42.07.419,IAT(Formal),2021.2.3,Win32,60.24096386,,,,,,,,,,,,,,,,,,,,,,,,,,,,,,,,,,,,,,,,,,,,,,,,,,,,轻率,i,,,i,1,0.4554,0,40,40,48,1,,
,,,,,,,,,,,,,,1,001,2025-01-03_23h42.07.419,IAT(Formal),2021.2.3,Win32,60.24096386,,,,,,,,,,,,,,,,,,,,,,,,,,,,,,,,,,,,,,,,,,,,,,,,,,,,正直,e,,,e,1,0.5521,0,41,41,16,1,,
,,,,,,,,,,,,,,1,001,2025-01-03_23h42.07.419,IAT(Formal),2021.2.3,Win32,60.24096386,,,,,,,,,,,,,,,,,,,,,,,,,,,,,,,,,,,,,,,,,,,,,,,,,,,,他人,e,,,i,0,0.5044,0,42,42,58,1,,
,,,,,,,,,,,,,,1,001,2025-01-03_23h42.07.419,IAT(Formal),2021.2.3,Win32,60.24096386,,,,,,,,,,,,,,,,,,,,,,,,,,,,,,,,,,,,,,,,,,,,,,,,,,,,自己,i,,,i,1,0.4639,0,43,43,3,1,,
,,,,,,,,,,,,,,1,001,2025-01-03_23h42.07.419,IAT(Formal),2021.2.3,Win32,60.24096386,,,,,,,,,,,,,,,,,,,,,,,,,,,,,,,,,,,,,,,,,,,,,,,,,,,,诚实,e,,,e,1,0.8124,0,44,44,15,1,,
,,,,,,,,,,,,,,1,001,2025-01-03_23h42.07.419,IAT(Formal),2021.2.3,Win32,60.24096386,,,,,,,,,,,,,,,,,,,,,,,,,,,,,,,,,,,,,,,,,,,,,,,,,,,,他的,e,,,e,1,0.7481,0,45,45,67,1,,
,,,,,,,,,,,,,,1,001,2025-01-03_23h42.07.419,IAT(Formal),2021.2.3,Win32,60.24096386,,,,,,,,,,,,,,,,,,,,,,,,,,,,,,,,,,,,,,,,,,,,,,,,,,,,勇敢,e,,,e,1,1.3168,0,46,46,17,1,,
,,,,,,,,,,,,,,1,001,2025-01-03_23h42.07.419,IAT(Formal),2021.2.3,Win32,60.24096386,,,,,,,,,,,,,,,,,,,,,,,,,,,,,,,,,,,,,,,,,,,,,,,,,,,,无私,e,,,e,1,0.5972,0,47,47,22,1,,
,,,,,,,,,,,,,,1,001,2025-01-03_23h42.07.419,IAT(Formal),2021.2.3,Win32,60.24096386,,,,,,,,,,,,,,,,,,,,,,,,,,,,,,,,,,,,,,,,,,,,,,,,,,,,悲观,i,,,i,1,0.6098,0,48,48,34,1,,
,,,,,,,,,,,,,,1,001,2025-01-03_23h42.07.419,IAT(Formal),2021.2.3,Win32,60.24096386,,,,,,,,,,,,,,,,,,,,,,,,,,,,,,,,,,,,,,,,,,,,,,,,,,,,卑鄙,i,,,i,1,0.476,0,49,49,30,1,,
,,,,,,,,,,,,,,1,001,2025-01-03_23h42.07.419,IAT(Formal),2021.2.3,Win32,60.24096386,,,,,,,,,,,,,,,,,,,,,,,,,,,,,,,,,,,,,,,,,,,,,,,,,,,,他们,e,,,e,1,0.5987,0,50,50,76,1,,
,,,,,,,,,,,,,,1,001,2025-01-03_23h42.07.419,IAT(Formal),2021.2.3,Win32,60.24096386,,,,,,,,,,,,,,,,,,,,,,,,,,,,,,,,,,,,,,,,,,,,,,,,,,,,杰出,e,,,e,1,0.513,0,51,51,13,1,,
,,,,,,,,,,,,,,1,001,2025-01-03_23h42.07.419,IAT(Formal),2021.2.3,Win32,60.24096386,,,,,,,,,,,,,,,,,,,,,,,,,,,,,,,,,,,,,,,,,,,,,,,,,,,,勤奋,e,,,e,1,1.1506,0,52,52,18,1,,
,,,,,,,,,,,,,,1,001,2025-01-03_23h42.07.419,IAT(Formal),2021.2.3,Win32,60.24096386,,,,,,,,,,,,,,,,,,,,,,,,,,,,,,,,,,,,,,,,,,,,,,,,,,,,他,e,,,e,1,0.6462,0,53,53,65,1,,
,,,,,,,,,,,,,,1,001,2025-01-03_23h42.07.419,IAT(Formal),2021.2.3,Win32,60.24096386,,,,,,,,,,,,,,,,,,,,,,,,,,,,,,,,,,,,,,,,,,,,,,,,,,,,优秀,e,,,e,1,0.5639,0,54,54,10,1,,
,,,,,,,,,,,,,,1,001,2025-01-03_23h42.07.419,IAT(Formal),2021.2.3,Win32,60.24096386,,,,,,,,,,,,,,,,,,,,,,,,,,,,,,,,,,,,,,,,,,,,,,,,,,,,自己,i,,,i,1,0.4187,0,55,55,53,1,,
,,,,,,,,,,,,,,1,001,2025-01-03_23h42.07.419,IAT(Formal),2021.2.3,Win32,60.24096386,,,,,,,,,,,,,,,,,,,,,,,,,,,,,,,,,,,,,,,,,,,,,,,,,,,,诚恳,e,,,e,1,0.5692,0,56,56,29,1,,
,,,,,,,,,,,,,,1,001,2025-01-03_23h42.07.419,IAT(Formal),2021.2.3,Win32,60.24096386,,,,,,,,,,,,,,,,,,,,,,,,,,,,,,,,,,,,,,,,,,,,,,,,,,,,细腻,e,,,e,1,0.5167,0,57,57,25,1,,
,,,,,,,,,,,,,,1,001,2025-01-03_23h42.07.419,IAT(Formal),2021.2.3,Win32,60.24096386,,,,,,,,,,,,,,,,,,,,,,,,,,,,,,,,,,,,,,,,,,,,,,,,,,,,俺,i,,,i,1,0.5132,0,58,58,74,1,,
,,,,,,,,,,,,,,1,001,2025-01-03_23h42.07.419,IAT(Formal),2021.2.3,Win32,60.24096386,,,,,,,,,,,,,,,,,,,,,,,,,,,,,,,,,,,,,,,,,,,,,,,,,,,,刻薄,i,,,i,1,0.844,0,59,59,33,1,,
,,,,,,,,,,,,,,1,001,2025-01-03_23h42.07.419,IAT(Formal),2021.2.3,Win32,60.24096386,,,,,,,,,,,,,,,,,,,,,,,,,,,,,,,,,,,,,,,,,,,,,,,,,,,,他人,e,,,e,1,0.8355,0,60,60,68,1,,
,,,,,,,,,,,,,,1,001,2025-01-03_23h42.07.419,IAT(Formal),2021.2.3,Win32,60.24096386,,,,,,,,,,,,,,,,,,,,,,,,,,,,,,,,,,,,,,,,,,,,,,,,,,,,俺,i,,,,0,,0,61,61,54,1,,
,,,,,,,,,,,,,,1,001,2025-01-03_23h42.07.419,IAT(Formal),2021.2.3,Win32,60.24096386,,,,,,,,,,,,,,,,,,,,,,,,,,,,,,,,,,,,,,,,,,,,,,,,,,,,俺,i,,,i,1,0.9854,0,62,62,4,1,,
,,,,,,,,,,,,,,1,001,2025-01-03_23h42.07.419,IAT(Formal),2021.2.3,Win32,60.24096386,,,,,,,,,,,,,,,,,,,,,,,,,,,,,,,,,,,,,,,,,,,,,,,,,,,,我,i,,,i,1,0.6835,0,63,63,0,1,,
,,,,,,,,,,,,,,1,001,2025-01-03_23h42.07.419,IAT(Formal),2021.2.3,Win32,60.24096386,,,,,,,,,,,,,,,,,,,,,,,,,,,,,,,,,,,,,,,,,,,,,,,,,,,,自己,i,,,i,1,0.4937,0,64,64,63,1,,
,,,,,,,,,,,,,,1,001,2025-01-03_23h42.07.419,IAT(Formal),2021.2.3,Win32,60.24096386,,,,,,,,,,,,,,,,,,,,,,,,,,,,,,,,,,,,,,,,,,,,,,,,,,,,乐观,e,,,e,1,0.598,0,65,65,14,1,,
,,,,,,,,,,,,,,1,001,2025-01-03_23h42.07.419,IAT(Formal),2021.2.3,Win32,60.24096386,,,,,,,,,,,,,,,,,,,,,,,,,,,,,,,,,,,,,,,,,,,,,,,,,,,,公正,e,,,e,1,0.9622,0,66,66,23,1,,
,,,,,,,,,,,,,,1,001,2025-01-03_23h42.07.419,IAT(Formal),2021.2.3,Win32,60.24096386,,,,,,,,,,,,,,,,,,,,,,,,,,,,,,,,,,,,,,,,,,,,,,,,,,,,活泼,e,,,e,1,0.7033,0,67,67,28,1,,
,,,,,,,,,,,,,,1,001,2025-01-03_23h42.07.419,IAT(Formal),2021.2.3,Win32,60.24096386,,,,,,,,,,,,,,,,,,,,,,,,,,,,,,,,,,,,,,,,,,,,,,,,,,,,其他,e,,,e,1,0.8292,0,68,68,59,1,,
,,,,,,,,,,,,,,1,001,2025-01-03_23h42.07.419,IAT(Formal),2021.2.3,Win32,60.24096386,,,,,,,,,,,,,,,,,,,,,,,,,,,,,,,,,,,,,,,,,,,,,,,,,,,,俺,i,,,e,0,0.5137,0,69,69,64,1,,
,,,,,,,,,,,,,,1,001,2025-01-03_23h42.07.419,IAT(Formal),2021.2.3,Win32,60.24096386,,,,,,,,,,,,,,,,,,,,,,,,,,,,,,,,,,,,,,,,,,,,,,,,,,,,他的,e,,,e,1,0.5831,0,70,70,57,1,,
,,,,,,,,,,,,,,1,001,2025-01-03_23h42.07.419,IAT(Formal),2021.2.3,Win32,60.24096386,,,,,,,,,,,,,,,,,,,,,,,,,,,,,,,,,,,,,,,,,,,,,,,,,,,,我,i,,,i,1,1.1117,0,71,71,60,1,,
,,,,,,,,,,,,,,1,001,2025-01-03_23h42.07.419,IAT(Formal),2021.2.3,Win32,60.24096386,,,,,,,,,,,,,,,,,,,,,,,,,,,,,,,,,,,,,,,,,,,,,,,,,,,,凶狠,i,,,i,1,0.7145,0,72,72,42,1,,
,,,,,,,,,,,,,,1,001,2025-01-03_23h42.07.419,IAT(Formal),2021.2.3,Win32,60.24096386,,,,,,,,,,,,,,,,,,,,,,,,,,,,,,,,,,,,,,,,,,,,,,,,,,,,我们,i,,,i,1,0.5001,0,73,73,2,1,,
,,,,,,,,,,,,,,1,001,2025-01-03_23h42.07.419,IAT(Formal),2021.2.3,Win32,60.24096386,,,,,,,,,,,,,,,,,,,,,,,,,,,,,,,,,,,,,,,,,,,,,,,,,,,,冒失,i,,,i,1,0.5964,0,74,74,39,1,,
,,,,,,,,,,,,,,1,001,2025-01-03_23h42.07.419,IAT(Formal),2021.2.3,Win32,60.24096386,,,,,,,,,,,,,,,,,,,,,,,,,,,,,,,,,,,,,,,,,,,,,,,,,,,,我的,i,,,i,1,0.5663,0,75,75,1,1,,
,,,,,,,,,,,,,,1,001,2025-01-03_23h42.07.419,IAT(Formal),2021.2.3,Win32,60.24096386,,,,,,,,,,,,,,,,,,,,,,,,,,,,,,,,,,,,,,,,,,,,,,,,,,,,自卑,i,,,i,1,0.9348,0,76,76,36,1,,
,,,,,,,,,,,,,,1,001,2025-01-03_23h42.07.419,IAT(Formal),2021.2.3,Win32,60.24096386,,,,,,,,,,,,,,,,,,,,,,,,,,,,,,,,,,,,,,,,,,,,,,,,,,,,他人,e,,,e,1,0.7879,0,77,77,78,1,,
,,,,,,,,,,,,,,1,001,2025-01-03_23h42.07.419,IAT(Formal),2021.2.3,Win32,60.24096386,,,,,,,,,,,,,,,,,,,,,,,,,,,,,,,,,,,,,,,,,,,,,,,,,,,,聪明,e,,,e,1,0.9001,0,78,78,12,1,,
,,,,,,,,,,,,,,1,001,2025-01-03_23h42.07.419,IAT(Formal),2021.2.3,Win32,60.24096386,,,,,,,,,,,,,,,,,,,,,,,,,,,,,,,,,,,,,,,,,,,,,,,,,,,,他人,e,,,e,1,0.6103,0,79,79,8,1,,
,,,,,,,,,,,,,,1,001,2025-01-03_23h42.07.419,IAT(Formal),2021.2.3,Win32,60.24096386,,,,,,,,,,,,,,,,,,,,,,,,,,,,,,,,,,,,,,,,,,,,,,,,,,,,其他,e,,,,0,,1,0,80,9,1,,
,,,,,,,,,,,,,,1,001,2025-01-03_23h42.07.419,IAT(Formal),2021.2.3,Win32,60.24096386,,,,,,,,,,,,,,,,,,,,,,,,,,,,,,,,,,,,,,,,,,,,,,,,,,,,冷静,e,,,e,1,1.0461,1,1,81,26,1,,
,,,,,,,,,,,,,,1,001,2025-01-03_23h42.07.419,IAT(Formal),2021.2.3,Win32,60.24096386,,,,,,,,,,,,,,,,,,,,,,,,,,,,,,,,,,,,,,,,,,,,,,,,,,,,他,e,,,e,1,0.4789,1,2,82,5,1,,
,,,,,,,,,,,,,,1,001,2025-01-03_23h42.07.419,IAT(Formal),2021.2.3,Win32,60.24096386,,,,,,,,,,,,,,,,,,,,,,,,,,,,,,,,,,,,,,,,,,,,,,,,,,,,暴躁,i,,,i,1,0.581,1,3,83,44,1,,
,,,,,,,,,,,,,,1,001,2025-01-03_23h42.07.419,IAT(Formal),2021.2.3,Win32,60.24096386,,,,,,,,,,,,,,,,,,,,,,,,,,,,,,,,,,,,,,,,,,,,,,,,,,,,他们,e,,,e,1,0.6248,1,4,84,76,1,,
,,,,,,,,,,,,,,1,001,2025-01-03_23h42.07.419,IAT(Formal),2021.2.3,Win32,60.24096386,,,,,,,,,,,,,,,,,,,,,,,,,,,,,,,,,,,,,,,,,,,,,,,,,,,,傲慢,i,,,i,1,0.626,1,5,85,37,1,,
,,,,,,,,,,,,,,1,001,2025-01-03_23h42.07.419,IAT(Formal),2021.2.3,Win32,60.24096386,,,,,,,,,,,,,,,,,,,,,,,,,,,,,,,,,,,,,,,,,,,,,,,,,,,,热情,e,,,e,1,0.5303,1,6,86,27,1,,
,,,,,,,,,,,,,,1,001,2025-01-03_23h42.07.419,IAT(Formal),2021.2.3,Win32,60.24096386,,,,,,,,,,,,,,,,,,,,,,,,,,,,,,,,,,,,,,,,,,,,,,,,,,,,勤奋,e,,,e,1,1.145,1,7,87,18,1,,
,,,,,,,,,,,,,,1,001,2025-01-03_23h42.07.419,IAT(Formal),2021.2.3,Win32,60.24096386,,,,,,,,,,,,,,,,,,,,,,,,,,,,,,,,,,,,,,,,,,,,,,,,,,,,稳重,e,,,e,1,0.5475,1,8,88,21,1,,
,,,,,,,,,,,,,,1,001,2025-01-03_23h42.07.419,IAT(Formal),2021.2.3,Win32,60.24096386,,,,,,,,,,,,,,,,,,,,,,,,,,,,,,,,,,,,,,,,,,,,,,,,,,,,公正,e,,,e,1,0.4937,1,9,89,23,1,,
,,,,,,,,,,,,,,1,001,2025-01-03_23h42.07.419,IAT(Formal),2021.2.3,Win32,60.24096386,,,,,,,,,,,,,,,,,,,,,,,,,,,,,,,,,,,,,,,,,,,,,,,,,,,,他的,e,,,e,1,0.5883,1,10,90,67,1,,
,,,,,,,,,,,,,,1,001,2025-01-03_23h42.07.419,IAT(Formal),2021.2.3,Win32,60.24096386,,,,,,,,,,,,,,,,,,,,,,,,,,,,,,,,,,,,,,,,,,,,,,,,,,,,杰出,e,,,e,1,0.4283,1,11,91,13,1,,
,,,,,,,,,,,,,,1,001,2025-01-03_23h42.07.419,IAT(Formal),2021.2.3,Win32,60.24096386,,,,,,,,,,,,,,,,,,,,,,,,,,,,,,,,,,,,,,,,,,,,,,,,,,,,他,e,,,e,1,0.3103,1,12,92,65,1,,
,,,,,,,,,,,,,,1,001,2025-01-03_23h42.07.419,IAT(Formal),2021.2.3,Win32,60.24096386,,,,,,,,,,,,,,,,,,,,,,,,,,,,,,,,,,,,,,,,,,,,,,,,,,,,活泼,e,,,e,1,0.5504,1,13,93,28,1,,
,,,,,,,,,,,,,,1,001,2025-01-03_23h42.07.419,IAT(Formal),2021.2.3,Win32,60.24096386,,,,,,,,,,,,,,,,,,,,,,,,,,,,,,,,,,,,,,,,,,,,,,,,,,,,优秀,e,,,e,1,0.4771,1,14,94,10,1,,
,,,,,,,,,,,,,,1,001,2025-01-03_23h42.07.419,IAT(Formal),2021.2.3,Win32,60.24096386,,,,,,,,,,,,,,,,,,,,,,,,,,,,,,,,,,,,,,,,,,,,,,,,,,,,他人,e,,,e,1,0.4018,1,15,95,58,1,,
,,,,,,,,,,,,,,1,001,2025-01-03_23h42.07.419,IAT(Formal),2021.2.3,Win32,60.24096386,,,,,,,,,,,,,,,,,,,,,,,,,,,,,,,,,,,,,,,,,,,,,,,,,,,,我的,i,,,e,0,0.5188,1,16,96,61,1,,
,,,,,,,,,,,,,,1,001,2025-01-03_23h42.07.419,IAT(Formal),2021.2.3,Win32,60.24096386,,,,,,,,,,,,,,,,,,,,,,,,,,,,,,,,,,,,,,,,,,,,,,,,,,,,我,i,,,i,1,0.4911,1,17,97,0,1,,
,,,,,,,,,,,,,,1,001,2025-01-03_23h42.07.419,IAT(Formal),2021.2.3,Win32,60.24096386,,,,,,,,,,,,,,,,,,,,,,,,,,,,,,,,,,,,,,,,,,,,,,,,,,,,我们,i,,,i,1,0.3684,1,18,98,52,1,,
,,,,,,,,,,,,,,1,001,2025-01-03_23h42.07.419,IAT(Formal),2021.2.3,Win32,60.24096386,,,,,,,,,,,,,,,,,,,,,,,,,,,,,,,,,,,,,,,,,,,,,,,,,,,,俺,i,,,i,1,0.5063,1,19,99,64,1,,
,,,,,,,,,,,,,,1,001,2025-01-03_23h42.07.419,IAT(Formal),2021.2.3,Win32,60.24096386,,,,,,,,,,,,,,,,,,,,,,,,,,,,,,,,,,,,,,,,,,,,,,,,,,,,他们,e,,,e,1,0.5517,1,20,100,56,1,,
,,,,,,,,,,,,,,1,001,2025-01-03_23h42.07.419,IAT(Formal),2021.2.3,Win32,60.24096386,,,,,,,,,,,,,,,,,,,,,,,,,,,,,,,,,,,,,,,,,,,,,,,,,,,,散漫,i,,,i,1,0.588,1,21,101,41,1,,
,,,,,,,,,,,,,,1,001,2025-01-03_23h42.07.419,IAT(Formal),2021.2.3,Win32,60.24096386,,,,,,,,,,,,,,,,,,,,,,,,,,,,,,,,,,,,,,,,,,,,,,,,,,,,机智,e,,,e,1,0.6683,1,22,102,19,1,,
,,,,,,,,,,,,,,1,001,2025-01-03_23h42.07.419,IAT(Formal),2021.2.3,Win32,60.24096386,,,,,,,,,,,,,,,,,,,,,,,,,,,,,,,,,,,,,,,,,,,,,,,,,,,,凶狠,i,,,i,1,0.5711,1,23,103,42,1,,
,,,,,,,,,,,,,,1,001,2025-01-03_23h42.07.419,IAT(Formal),2021.2.3,Win32,60.24096386,,,,,,,,,,,,,,,,,,,,,,,,,,,,,,,,,,,,,,,,,,,,,,,,,,,,自私,i,,,i,1,0.5375,1,24,104,43,1,,
,,,,,,,,,,,,,,1,001,2025-01-03_23h42.07.419,IAT(Formal),2021.2.3,Win32,60.24096386,,,,,,,,,,,,,,,,,,,,,,,,,,,,,,,,,,,,,,,,,,,,,,,,,,,,自卑,i,,,i,1,0.4329,1,25,105,36,1,,
,,,,,,,,,,,,,,1,001,2025-01-03_23h42.07.419,IAT(Formal),2021.2.3,Win32,60.24096386,,,,,,,,,,,,,,,,,,,,,,,,,,,,,,,,,,,,,,,,,,,,,,,,,,,,他的,e,,,e,1,0.6924,1,26,106,77,1,,
,,,,,,,,,,,,,,1,001,2025-01-03_23h42.07.419,IAT(Formal),2021.2.3,Win32,60.24096386,,,,,,,,,,,,,,,,,,,,,,,,,,,,,,,,,,,,,,,,,,,,,,,,,,,,冒失,i,,,i,1,0.8166,1,27,107,39,1,,
,,,,,,,,,,,,,,1,001,2025-01-03_23h42.07.419,IAT(Formal),2021.2.3,Win32,60.24096386,,,,,,,,,,,,,,,,,,,,,,,,,,,,,,,,,,,,,,,,,,,,,,,,,,,,自己,i,,,i,1,0.5014,1,28,108,73,1,,
,,,,,,,,,,,,,,1,001,2025-01-03_23h42.07.419,IAT(Formal),2021.2.3,Win32,60.24096386,,,,,,,,,,,,,,,,,,,,,,,,,,,,,,,,,,,,,,,,,,,,,,,,,,,,猖狂,i,,,i,1,0.54,1,29,109,45,1,,
,,,,,,,,,,,,,,1,001,2025-01-03_23h42.07.419,IAT(Formal),2021.2.3,Win32,60.24096386,,,,,,,,,,,,,,,,,,,,,,,,,,,,,,,,,,,,,,,,,,,,,,,,,,,,我的,i,,,i,1,0.4517,1,30,110,1,1,,
,,,,,,,,,,,,,,1,001,2025-01-03_23h42.07.419,IAT(Formal),2021.2.3,Win32,60.24096386,,,,,,,,,,,,,,,,,,,,,,,,,,,,,,,,,,,,,,,,,,,,,,,,,,,,诚实,e,,,e,1,0.5666,1,31,111,15,1,,
,,,,,,,,,,,,,,1,001,2025-01-03_23h42.07.419,IAT(Formal),2021.2.3,Win32,60.24096386,,,,,,,,,,,,,,,,,,,,,,,,,,,,,,,,,,,,,,,,,,,,,,,,,,,,他人,e,,,e,1,0.6169,1,32,112,8,1,,
,,,,,,,,,,,,,,1,001,2025-01-03_23h42.07.419,IAT(Formal),2021.2.3,Win32,60.24096386,,,,,,,,,,,,,,,,,,,,,,,,,,,,,,,,,,,,,,,,,,,,,,,,,,,,自己,i,,,i,1,0.5047,1,33,113,53,1,,
,,,,,,,,,,,,,,1,001,2025-01-03_23h42.07.419,IAT(Formal),2021.2.3,Win32,60.24096386,,,,,,,,,,,,,,,,,,,,,,,,,,,,,,,,,,,,,,,,,,,,,,,,,,,,轻率,i,,,i,1,0.5793,1,34,114,48,1,,
,,,,,,,,,,,,,,1,001,2025-01-03_23h42.07.419,IAT(Formal),2021.2.3,Win32,60.24096386,,,,,,,,,,,,,,,,,,,,,,,,,,,,,,,,,,,,,,,,,,,,,,,,,,,,我们,i,,,i,1,0.6331,1,35,115,62,1,,
,,,,,,,,,,,,,,1,001,2025-01-03_23h42.07.419,IAT(Formal),2021.2.3,Win32,60.24096386,,,,,,,,,,,,,,,,,,,,,,,,,,,,,,,,,,,,,,,,,,,,,,,,,,,,自己,i,,,i,1,0.4933,1,36,116,3,1,,
,,,,,,,,,,,,,,1,001,2025-01-03_23h42.07.419,IAT(Formal),2021.2.3,Win32,60.24096386,,,,,,,,,,,,,,,,,,,,,,,,,,,,,,,,,,,,,,,,,,,,,,,,,,,,虚伪,i,,,i,1,0.4998,1,37,117,31,1,,
,,,,,,,,,,,,,,1,001,2025-01-03_23h42.07.419,IAT(Formal),2021.2.3,Win32,60.24096386,,,,,,,,,,,,,,,,,,,,,,,,,,,,,,,,,,,,,,,,,,,,,,,,,,,,他人,e,,,e,1,0.6009,1,38,118,78,1,,
,,,,,,,,,,,,,,1,001,2025-01-03_23h42.07.419,IAT(Formal),2021.2.3,Win32,60.24096386,,,,,,,,,,,,,,,,,,,,,,,,,,,,,,,,,,,,,,,,,,,,,,,,,,,,他们,e,,,e,1,0.6183,1,39,119,6,1,,
,,,,,,,,,,,,,,1,001,2025-01-03_23h42.07.419,IAT(Formal),2021.2.3,Win32,60.24096386,,,,,,,,,,,,,,,,,,,,,,,,,,,,,,,,,,,,,,,,,,,,,,,,,,,,他们,e,,,e,1,0.5162,1,40,120,66,1,,
,,,,,,,,,,,,,,1,001,2025-01-03_23h42.07.419,IAT(Formal),2021.2.3,Win32,60.24096386,,,,,,,,,,,,,,,,,,,,,,,,,,,,,,,,,,,,,,,,,,,,,,,,,,,,鲁莽,i,,,i,1,0.9695,1,41,121,38,1,,
,,,,,,,,,,,,,,1,001,2025-01-03_23h42.07.419,IAT(Formal),2021.2.3,Win32,60.24096386,,,,,,,,,,,,,,,,,,,,,,,,,,,,,,,,,,,,,,,,,,,,,,,,,,,,我们,i,,,i,1,0.5033,1,42,122,72,1,,
,,,,,,,,,,,,,,1,001,2025-01-03_23h42.07.419,IAT(Formal),2021.2.3,Win32,60.24096386,,,,,,,,,,,,,,,,,,,,,,,,,,,,,,,,,,,,,,,,,,,,,,,,,,,,其他,e,,,e,1,0.5276,1,43,123,79,1,,
,,,,,,,,,,,,,,1,001,2025-01-03_23h42.07.419,IAT(Formal),2021.2.3,Win32,60.24096386,,,,,,,,,,,,,,,,,,,,,,,,,,,,,,,,,,,,,,,,,,,,,,,,,,,,其他,e,,,e,1,0.5659,1,44,124,69,1,,
,,,,,,,,,,,,,,1,001,2025-01-03_23h42.07.419,IAT(Formal),2021.2.3,Win32,60.24096386,,,,,,,,,,,,,,,,,,,,,,,,,,,,,,,,,,,,,,,,,,,,,,,,,,,,其他,e,,,e,1,0.4854,1,45,125,59,1,,
,,,,,,,,,,,,,,1,001,2025-01-03_23h42.07.419,IAT(Formal),2021.2.3,Win32,60.24096386,,,,,,,,,,,,,,,,,,,,,,,,,,,,,,,,,,,,,,,,,,,,,,,,,,,,下贱,i,,,i,1,0.6236,1,46,126,49,1,,
,,,,,,,,,,,,,,1,001,2025-01-03_23h42.07.419,IAT(Formal),2021.2.3,Win32,60.24096386,,,,,,,,,,,,,,,,,,,,,,,,,,,,,,,,,,,,,,,,,,,,,,,,,,,,诚恳,e,,,e,1,0.6503,1,47,127,29,1,,
,,,,,,,,,,,,,,1,001,2025-01-03_23h42.07.419,IAT(Formal),2021.2.3,Win32,60.24096386,,,,,,,,,,,,,,,,,,,,,,,,,,,,,,,,,,,,,,,,,,,,,,,,,,,,朴实,e,,,e,1,0.6571,1,48,128,24,1,,
,,,,,,,,,,,,,,1,001,2025-01-03_23h42.07.419,IAT(Formal),2021.2.3,Win32,60.24096386,,,,,,,,,,,,,,,,,,,,,,,,,,,,,,,,,,,,,,,,,,,,,,,,,,,,崇高,e,,,e,1,0.4055,1,49,129,11,1,,
,,,,,,,,,,,,,,1,001,2025-01-03_23h42.07.419,IAT(Formal),2021.2.3,Win32,60.24096386,,,,,,,,,,,,,,,,,,,,,,,,,,,,,,,,,,,,,,,,,,,,,,,,,,,,愚蠢,i,,,i,1,0.4999,1,50,130,32,1,,
,,,,,,,,,,,,,,1,001,2025-01-03_23h42.07.419,IAT(Formal),2021.2.3,Win32,60.24096386,,,,,,,,,,,,,,,,,,,,,,,,,,,,,,,,,,,,,,,,,,,,,,,,,,,,聪明,e,,,e,1,0.6271,1,51,131,12,1,,
,,,,,,,,,,,,,,1,001,2025-01-03_23h42.07.419,IAT(Formal),2021.2.3,Win32,60.24096386,,,,,,,,,,,,,,,,,,,,,,,,,,,,,,,,,,,,,,,,,,,,,,,,,,,,刻薄,i,,,i,1,0.5428,1,52,132,33,1,,
,,,,,,,,,,,,,,1,001,2025-01-03_23h42.07.419,IAT(Formal),2021.2.3,Win32,60.24096386,,,,,,,,,,,,,,,,,,,,,,,,,,,,,,,,,,,,,,,,,,,,,,,,,,,,固执,i,,,i,1,0.5685,1,53,133,47,1,,
,,,,,,,,,,,,,,1,001,2025-01-03_23h42.07.419,IAT(Formal),2021.2.3,Win32,60.24096386,,,,,,,,,,,,,,,,,,,,,,,,,,,,,,,,,,,,,,,,,,,,,,,,,,,,他的,e,,,e,1,0.468,1,54,134,57,1,,
,,,,,,,,,,,,,,1,001,2025-01-03_23h42.07.419,IAT(Formal),2021.2.3,Win32,60.24096386,,,,,,,,,,,,,,,,,,,,,,,,,,,,,,,,,,,,,,,,,,,,,,,,,,,,他,e,,,e,1,0.8525,1,55,135,75,1,,
,,,,,,,,,,,,,,1,001,2025-01-03_23h42.07.419,IAT(Formal),2021.2.3,Win32,60.24096386,,,,,,,,,,,,,,,,,,,,,,,,,,,,,,,,,,,,,,,,,,,,,,,,,,,,我的,i,,,i,1,0.4506,1,56,136,51,1,,
,,,,,,,,,,,,,,1,001,2025-01-03_23h42.07.419,IAT(Formal),2021.2.3,Win32,60.24096386,,,,,,,,,,,,,,,,,,,,,,,,,,,,,,,,,,,,,,,,,,,,,,,,,,,,正直,e,,,e,1,0.8357,1,57,137,16,1,,
,,,,,,,,,,,,,,1,001,2025-01-03_23h42.07.419,IAT(Formal),2021.2.3,Win32,60.24096386,,,,,,,,,,,,,,,,,,,,,,,,,,,,,,,,,,,,,,,,,,,,,,,,,,,,自己,i,,,i,1,1.0045,1,58,138,63,1,,
,,,,,,,,,,,,,,1,001,2025-01-03_23h42.07.419,IAT(Formal),2021.2.3,Win32,60.24096386,,,,,,,,,,,,,,,,,,,,,,,,,,,,,,,,,,,,,,,,,,,,,,,,,,,,我们,i,,,i,1,0.4882,1,59,139,2,1,,
,,,,,,,,,,,,,,1,001,2025-01-03_23h42.07.419,IAT(Formal),2021.2.3,Win32,60.24096386,,,,,,,,,,,,,,,,,,,,,,,,,,,,,,,,,,,,,,,,,,,,,,,,,,,,细腻,e,,,e,1,0.5885,1,60,140,25,1,,
,,,,,,,,,,,,,,1,001,2025-01-03_23h42.07.419,IAT(Formal),2021.2.3,Win32,60.24096386,,,,,,,,,,,,,,,,,,,,,,,,,,,,,,,,,,,,,,,,,,,,,,,,,,,,他,e,,,e,1,0.5951,1,61,141,55,1,,
,,,,,,,,,,,,,,1,001,2025-01-03_23h42.07.419,IAT(Formal),2021.2.3,Win32,60.24096386,,,,,,,,,,,,,,,,,,,,,,,,,,,,,,,,,,,,,,,,,,,,,,,,,,,,执拗,i,,,i,1,0.6248,1,62,142,40,1,,
,,,,,,,,,,,,,,1,001,2025-01-03_23h42.07.419,IAT(Formal),2021.2.3,Win32,60.24096386,,,,,,,,,,,,,,,,,,,,,,,,,,,,,,,,,,,,,,,,,,,,,,,,,,,,卑鄙,i,,,i,1,0.5047,1,63,143,30,1,,
,,,,,,,,,,,,,,1,001,2025-01-03_23h42.07.419,IAT(Formal),2021.2.3,Win32,60.24096386,,,,,,,,,,,,,,,,,,,,,,,,,,,,,,,,,,,,,,,,,,,,,,,,,,,,他人,e,,,e,1,0.5665,1,64,144,68,1,,
,,,,,,,,,,,,,,1,001,2025-01-03_23h42.07.419,IAT(Formal),2021.2.3,Win32,60.24096386,,,,,,,,,,,,,,,,,,,,,,,,,,,,,,,,,,,,,,,,,,,,,,,,,,,,消极,i,,,i,1,1.0958,1,65,145,35,1,,
,,,,,,,,,,,,,,1,001,2025-01-03_23h42.07.419,IAT(Formal),2021.2.3,Win32,60.24096386,,,,,,,,,,,,,,,,,,,,,,,,,,,,,,,,,,,,,,,,,,,,,,,,,,,,俺,i,,,i,1,0.6619,1,66,146,4,1,,
,,,,,,,,,,,,,,1,001,2025-01-03_23h42.07.419,IAT(Formal),2021.2.3,Win32,60.24096386,,,,,,,,,,,,,,,,,,,,,,,,,,,,,,,,,,,,,,,,,,,,,,,,,,,,我的,i,,,i,1,0.5242,1,67,147,71,1,,
,,,,,,,,,,,,,,1,001,2025-01-03_23h42.07.419,IAT(Formal),2021.2.3,Win32,60.24096386,,,,,,,,,,,,,,,,,,,,,,,,,,,,,,,,,,,,,,,,,,,,,,,,,,,,我,i,,,i,1,0.95,1,68,148,70,1,,
,,,,,,,,,,,,,,1,001,2025-01-03_23h42.07.419,IAT(Formal),2021.2.3,Win32,60.24096386,,,,,,,,,,,,,,,,,,,,,,,,,,,,,,,,,,,,,,,,,,,,,,,,,,,,俺,i,,,i,1,0.5127,1,69,149,74,1,,
,,,,,,,,,,,,,,1,001,2025-01-03_23h42.07.419,IAT(Formal),2021.2.3,Win32,60.24096386,,,,,,,,,,,,,,,,,,,,,,,,,,,,,,,,,,,,,,,,,,,,,,,,,,,,认真,e,,,e,1,0.8727,1,70,150,20,1,,
,,,,,,,,,,,,,,1,001,2025-01-03_23h42.07.419,IAT(Formal),2021.2.3,Win32,60.24096386,,,,,,,,,,,,,,,,,,,,,,,,,,,,,,,,,,,,,,,,,,,,,,,,,,,,勇敢,e,,,e,1,0.5378,1,71,151,17,1,,
,,,,,,,,,,,,,,1,001,2025-01-03_23h42.07.419,IAT(Formal),2021.2.3,Win32,60.24096386,,,,,,,,,,,,,,,,,,,,,,,,,,,,,,,,,,,,,,,,,,,,,,,,,,,,乐观,e,,,e,1,0.533,1,72,152,14,1,,
,,,,,,,,,,,,,,1,001,2025-01-03_23h42.07.419,IAT(Formal),2021.2.3,Win32,60.24096386,,,,,,,,,,,,,,,,,,,,,,,,,,,,,,,,,,,,,,,,,,,,,,,,,,,,野蛮,i,,,i,1,0.8516,1,73,153,46,1,,
,,,,,,,,,,,,,,1,001,2025-01-03_23h42.07.419,IAT(Formal),2021.2.3,Win32,60.24096386,,,,,,,,,,,,,,,,,,,,,,,,,,,,,,,,,,,,,,,,,,,,,,,,,,,,他的,e,,,e,1,0.5074,1,74,154,7,1,,
,,,,,,,,,,,,,,1,001,2025-01-03_23h42.07.419,IAT(Formal),2021.2.3,Win32,60.24096386,,,,,,,,,,,,,,,,,,,,,,,,,,,,,,,,,,,,,,,,,,,,,,,,,,,,我,i,,,i,1,0.7447,1,75,155,60,1,,
,,,,,,,,,,,,,,1,001,2025-01-03_23h42.07.419,IAT(Formal),2021.2.3,Win32,60.24096386,,,,,,,,,,,,,,,,,,,,,,,,,,,,,,,,,,,,,,,,,,,,,,,,,,,,我,i,,,i,1,0.4009,1,76,156,50,1,,
,,,,,,,,,,,,,,1,001,2025-01-03_23h42.07.419,IAT(Formal),2021.2.3,Win32,60.24096386,,,,,,,,,,,,,,,,,,,,,,,,,,,,,,,,,,,,,,,,,,,,,,,,,,,,无私,e,,,e,1,0.6911,1,77,157,22,1,,
,,,,,,,,,,,,,,1,001,2025-01-03_23h42.07.419,IAT(Formal),2021.2.3,Win32,60.24096386,,,,,,,,,,,,,,,,,,,,,,,,,,,,,,,,,,,,,,,,,,,,,,,,,,,,悲观,i,,,i,1,0.5096,1,78,158,34,1,,
,,,,,,,,,,,,,,1,001,2025-01-03_23h42.07.419,IAT(Formal),2021.2.3,Win32,60.24096386,,,,,,,,,,,,,,,,,,,,,,,,,,,,,,,,,,,,,,,,,,,,,,,,,,,,俺,i,,,i,1,0.6428,1,79,159,54,1,,
,,,,,,,,,,,,,,1,001,2025-01-03_23h42.07.419,IAT(Formal),2021.2.3,Win32,60.24096386,,,,,,,,,,,,,,,,,,,,,,,,,,,,,,,,,,,,,,,,,,,,,,,,,,,,,,,,,,,,,,,,space,1.2594