﻿Instruction1.keys,Instruction1.rt,Instruction2.keys,Instruction2.rt,key_resp_iso.keys,key_resp_iso.corr,key_resp_iso.rt,Practice_01.thisRepN,Practice_01.thisTrialN,Practice_01.thisN,Practice_01.thisIndex,Practice_01.ran,Words,ans,participant,session,date,expName,psychopyVersion,OS,frameRate,key_resp_3.keys,key_resp_3.rt,key_resp_ipn.keys,key_resp_ipn.corr,key_resp_ipn.rt,Practice_02.thisRepN,Practice_02.thisTrialN,Practice_02.thisN,Practice_02.thisIndex,Practice_02.ran,Words_ipn,ans_ipn,key_resp_4.keys,key_resp_4.rt,key_resp_t1.keys,key_resp_t1.corr,key_resp_t1.rt,Practice_T1.thisRepN,Practice_T1.thisTrialN,Practice_T1.thisN,Practice_T1.thisIndex,Practice_T1.ran,Words_t1,ans_t1,key_resp_5.keys,key_resp_5.rt,Formal_T1.thisRepN,Formal_T1.thisTrialN,Formal_T1.thisN,Formal_T1.thisIndex,Formal_T1.ran,key_resp_6.keys,key_resp_6.rt,key_resp_iso_reverse.keys,key_resp_iso_reverse.corr,key_resp_iso_reverse.rt,Practice_iso_Reverse.thisRepN,Practice_iso_Reverse.thisTrialN,Practice_iso_Reverse.thisN,Practice_iso_Reverse.thisIndex,Practice_iso_Reverse.ran,key_resp_7.keys,key_resp_7.rt,key_resp_t2_Practice.keys,key_resp_t2_Practice.corr,key_resp_t2_Practice.rt,Practice_t2_Reverse.thisRepN,Practice_t2_Reverse.thisTrialN,Practice_t2_Reverse.thisN,Practice_t2_Reverse.thisIndex,Practice_t2_Reverse.ran,Words_t2,ans_t2,key_resp_8.keys,key_resp_8.rt,key_resp_t2.keys,key_resp_t2.corr,key_resp_t2.rt,Formal_t2_reverse.thisRepN,Formal_t2_reverse.thisTrialN,Formal_t2_reverse.thisN,Formal_t2_reverse.thisIndex,Formal_t2_reverse.ran,key_instruct.keys,key_instruct.rt
space,2.7193,space,4.7593,i,1,0.5664,0,0,0,8,1,他人,i,1,001,2025-01-04_21h45.02.125,IAT(Formal),2021.2.3,Win32,142.8571429,,,,,,,,,,,,,,,,,,,,,,,,,,,,,,,,,,,,,,,,,,,,,,,,,,,,,,,,,,,,,,,,,
,,,,e,1,0.6733,0,1,1,4,1,俺,e,1,001,2025-01-04_21h45.02.125,IAT(Formal),2021.2.3,Win32,142.8571429,,,,,,,,,,,,,,,,,,,,,,,,,,,,,,,,,,,,,,,,,,,,,,,,,,,,,,,,,,,,,,,,,
,,,,e,1,0.6129,0,2,2,1,1,我的,e,1,001,2025-01-04_21h45.02.125,IAT(Formal),2021.2.3,Win32,142.8571429,,,,,,,,,,,,,,,,,,,,,,,,,,,,,,,,,,,,,,,,,,,,,,,,,,,,,,,,,,,,,,,,,
,,,,i,1,0.5432,0,3,3,7,1,他的,i,1,001,2025-01-04_21h45.02.125,IAT(Formal),2021.2.3,Win32,142.8571429,,,,,,,,,,,,,,,,,,,,,,,,,,,,,,,,,,,,,,,,,,,,,,,,,,,,,,,,,,,,,,,,,
,,,,e,1,0.4809,0,4,4,3,1,自己,e,1,001,2025-01-04_21h45.02.125,IAT(Formal),2021.2.3,Win32,142.8571429,,,,,,,,,,,,,,,,,,,,,,,,,,,,,,,,,,,,,,,,,,,,,,,,,,,,,,,,,,,,,,,,,
,,,,i,1,0.4449,0,5,5,6,1,他们,i,1,001,2025-01-04_21h45.02.125,IAT(Formal),2021.2.3,Win32,142.8571429,,,,,,,,,,,,,,,,,,,,,,,,,,,,,,,,,,,,,,,,,,,,,,,,,,,,,,,,,,,,,,,,,
,,,,i,1,0.4585,0,6,6,5,1,他,i,1,001,2025-01-04_21h45.02.125,IAT(Formal),2021.2.3,Win32,142.8571429,,,,,,,,,,,,,,,,,,,,,,,,,,,,,,,,,,,,,,,,,,,,,,,,,,,,,,,,,,,,,,,,,
,,,,e,1,0.4583,0,7,7,0,1,我,e,1,001,2025-01-04_21h45.02.125,IAT(Formal),2021.2.3,Win32,142.8571429,,,,,,,,,,,,,,,,,,,,,,,,,,,,,,,,,,,,,,,,,,,,,,,,,,,,,,,,,,,,,,,,,
,,,,e,1,0.9226,0,8,8,2,1,我们,e,1,001,2025-01-04_21h45.02.125,IAT(Formal),2021.2.3,Win32,142.8571429,,,,,,,,,,,,,,,,,,,,,,,,,,,,,,,,,,,,,,,,,,,,,,,,,,,,,,,,,,,,,,,,,
,,,,i,1,0.6878,0,9,9,9,1,其他,i,1,001,2025-01-04_21h45.02.125,IAT(Formal),2021.2.3,Win32,142.8571429,,,,,,,,,,,,,,,,,,,,,,,,,,,,,,,,,,,,,,,,,,,,,,,,,,,,,,,,,,,,,,,,,
,,,,,,,,,,,,,,1,001,2025-01-04_21h45.02.125,IAT(Formal),2021.2.3,Win32,142.8571429,space,5.0793,e,1,0.722,0,0,0,1,1,崇高,e,,,,,,,,,,,,,,,,,,,,,,,,,,,,,,,,,,,,,,,,,,,,,,,,,,,,,
,,,,,,,,,,,,,,1,001,2025-01-04_21h45.02.125,IAT(Formal),2021.2.3,Win32,142.8571429,,,i,1,0.7347,0,1,1,27,1,傲慢,i,,,,,,,,,,,,,,,,,,,,,,,,,,,,,,,,,,,,,,,,,,,,,,,,,,,,,
,,,,,,,,,,,,,,1,001,2025-01-04_21h45.02.125,IAT(Formal),2021.2.3,Win32,142.8571429,,,i,1,0.6591,0,2,2,37,1,固执,i,,,,,,,,,,,,,,,,,,,,,,,,,,,,,,,,,,,,,,,,,,,,,,,,,,,,,
,,,,,,,,,,,,,,1,001,2025-01-04_21h45.02.125,IAT(Formal),2021.2.3,Win32,142.8571429,,,i,1,0.5365,0,3,3,21,1,虚伪,i,,,,,,,,,,,,,,,,,,,,,,,,,,,,,,,,,,,,,,,,,,,,,,,,,,,,,
,,,,,,,,,,,,,,1,001,2025-01-04_21h45.02.125,IAT(Formal),2021.2.3,Win32,142.8571429,,,e,1,0.5909,0,4,4,14,1,朴实,e,,,,,,,,,,,,,,,,,,,,,,,,,,,,,,,,,,,,,,,,,,,,,,,,,,,,,
,,,,,,,,,,,,,,1,001,2025-01-04_21h45.02.125,IAT(Formal),2021.2.3,Win32,142.8571429,,,i,0,0.6452,0,5,5,12,1,无私,e,,,,,,,,,,,,,,,,,,,,,,,,,,,,,,,,,,,,,,,,,,,,,,,,,,,,,
,,,,,,,,,,,,,,1,001,2025-01-04_21h45.02.125,IAT(Formal),2021.2.3,Win32,142.8571429,,,e,1,0.5556,0,6,6,0,1,优秀,e,,,,,,,,,,,,,,,,,,,,,,,,,,,,,,,,,,,,,,,,,,,,,,,,,,,,,
,,,,,,,,,,,,,,1,001,2025-01-04_21h45.02.125,IAT(Formal),2021.2.3,Win32,142.8571429,,,i,1,0.7428,0,7,7,38,1,轻率,i,,,,,,,,,,,,,,,,,,,,,,,,,,,,,,,,,,,,,,,,,,,,,,,,,,,,,
,,,,,,,,,,,,,,1,001,2025-01-04_21h45.02.125,IAT(Formal),2021.2.3,Win32,142.8571429,,,i,1,0.5628,0,8,8,36,1,野蛮,i,,,,,,,,,,,,,,,,,,,,,,,,,,,,,,,,,,,,,,,,,,,,,,,,,,,,,
,,,,,,,,,,,,,,1,001,2025-01-04_21h45.02.125,IAT(Formal),2021.2.3,Win32,142.8571429,,,i,1,0.4635,0,9,9,34,1,暴躁,i,,,,,,,,,,,,,,,,,,,,,,,,,,,,,,,,,,,,,,,,,,,,,,,,,,,,,
,,,,,,,,,,,,,,1,001,2025-01-04_21h45.02.125,IAT(Formal),2021.2.3,Win32,142.8571429,,,i,1,0.5826,0,10,10,20,1,卑鄙,i,,,,,,,,,,,,,,,,,,,,,,,,,,,,,,,,,,,,,,,,,,,,,,,,,,,,,
,,,,,,,,,,,,,,1,001,2025-01-04_21h45.02.125,IAT(Formal),2021.2.3,Win32,142.8571429,,,e,1,0.5983,0,11,11,3,1,杰出,e,,,,,,,,,,,,,,,,,,,,,,,,,,,,,,,,,,,,,,,,,,,,,,,,,,,,,
,,,,,,,,,,,,,,1,001,2025-01-04_21h45.02.125,IAT(Formal),2021.2.3,Win32,142.8571429,,,i,1,0.5694,0,12,12,33,1,自私,i,,,,,,,,,,,,,,,,,,,,,,,,,,,,,,,,,,,,,,,,,,,,,,,,,,,,,
,,,,,,,,,,,,,,1,001,2025-01-04_21h45.02.125,IAT(Formal),2021.2.3,Win32,142.8571429,,,e,1,0.5615,0,13,13,2,1,聪明,e,,,,,,,,,,,,,,,,,,,,,,,,,,,,,,,,,,,,,,,,,,,,,,,,,,,,,
,,,,,,,,,,,,,,1,001,2025-01-04_21h45.02.125,IAT(Formal),2021.2.3,Win32,142.8571429,,,e,1,0.5409,0,14,14,5,1,诚实,e,,,,,,,,,,,,,,,,,,,,,,,,,,,,,,,,,,,,,,,,,,,,,,,,,,,,,
,,,,,,,,,,,,,,1,001,2025-01-04_21h45.02.125,IAT(Formal),2021.2.3,Win32,142.8571429,,,i,1,0.5967,0,15,15,26,1,自卑,i,,,,,,,,,,,,,,,,,,,,,,,,,,,,,,,,,,,,,,,,,,,,,,,,,,,,,
,,,,,,,,,,,,,,1,001,2025-01-04_21h45.02.125,IAT(Formal),2021.2.3,Win32,142.8571429,,,i,1,1.0066,0,16,16,30,1,执拗,i,,,,,,,,,,,,,,,,,,,,,,,,,,,,,,,,,,,,,,,,,,,,,,,,,,,,,
,,,,,,,,,,,,,,1,001,2025-01-04_21h45.02.125,IAT(Formal),2021.2.3,Win32,142.8571429,,,i,1,1.0841,0,17,17,28,1,鲁莽,i,,,,,,,,,,,,,,,,,,,,,,,,,,,,,,,,,,,,,,,,,,,,,,,,,,,,,
,,,,,,,,,,,,,,1,001,2025-01-04_21h45.02.125,IAT(Formal),2021.2.3,Win32,142.8571429,,,e,1,0.6128,0,18,18,17,1,热情,e,,,,,,,,,,,,,,,,,,,,,,,,,,,,,,,,,,,,,,,,,,,,,,,,,,,,,
,,,,,,,,,,,,,,1,001,2025-01-04_21h45.02.125,IAT(Formal),2021.2.3,Win32,142.8571429,,,i,1,0.5421,0,19,19,24,1,悲观,i,,,,,,,,,,,,,,,,,,,,,,,,,,,,,,,,,,,,,,,,,,,,,,,,,,,,,
,,,,,,,,,,,,,,1,001,2025-01-04_21h45.02.125,IAT(Formal),2021.2.3,Win32,142.8571429,,,i,1,0.6251,0,20,20,23,1,刻薄,i,,,,,,,,,,,,,,,,,,,,,,,,,,,,,,,,,,,,,,,,,,,,,,,,,,,,,
,,,,,,,,,,,,,,1,001,2025-01-04_21h45.02.125,IAT(Formal),2021.2.3,Win32,142.8571429,,,e,1,0.6189,0,21,21,8,1,勤奋,e,,,,,,,,,,,,,,,,,,,,,,,,,,,,,,,,,,,,,,,,,,,,,,,,,,,,,
,,,,,,,,,,,,,,1,001,2025-01-04_21h45.02.125,IAT(Formal),2021.2.3,Win32,142.8571429,,,i,1,1.1197,0,22,22,31,1,散漫,i,,,,,,,,,,,,,,,,,,,,,,,,,,,,,,,,,,,,,,,,,,,,,,,,,,,,,
,,,,,,,,,,,,,,1,001,2025-01-04_21h45.02.125,IAT(Formal),2021.2.3,Win32,142.8571429,,,e,1,0.5636,0,23,23,7,1,勇敢,e,,,,,,,,,,,,,,,,,,,,,,,,,,,,,,,,,,,,,,,,,,,,,,,,,,,,,
,,,,,,,,,,,,,,1,001,2025-01-04_21h45.02.125,IAT(Formal),2021.2.3,Win32,142.8571429,,,i,1,0.5626,0,24,24,39,1,下贱,i,,,,,,,,,,,,,,,,,,,,,,,,,,,,,,,,,,,,,,,,,,,,,,,,,,,,,
,,,,,,,,,,,,,,1,001,2025-01-04_21h45.02.125,IAT(Formal),2021.2.3,Win32,142.8571429,,,e,1,0.5831,0,25,25,4,1,乐观,e,,,,,,,,,,,,,,,,,,,,,,,,,,,,,,,,,,,,,,,,,,,,,,,,,,,,,
,,,,,,,,,,,,,,1,001,2025-01-04_21h45.02.125,IAT(Formal),2021.2.3,Win32,142.8571429,,,e,1,0.7646,0,26,26,19,1,诚恳,e,,,,,,,,,,,,,,,,,,,,,,,,,,,,,,,,,,,,,,,,,,,,,,,,,,,,,
,,,,,,,,,,,,,,1,001,2025-01-04_21h45.02.125,IAT(Formal),2021.2.3,Win32,142.8571429,,,e,1,0.5559,0,27,27,6,1,正直,e,,,,,,,,,,,,,,,,,,,,,,,,,,,,,,,,,,,,,,,,,,,,,,,,,,,,,
,,,,,,,,,,,,,,1,001,2025-01-04_21h45.02.125,IAT(Formal),2021.2.3,Win32,142.8571429,,,i,1,0.4953,0,28,28,25,1,消极,i,,,,,,,,,,,,,,,,,,,,,,,,,,,,,,,,,,,,,,,,,,,,,,,,,,,,,
,,,,,,,,,,,,,,1,001,2025-01-04_21h45.02.125,IAT(Formal),2021.2.3,Win32,142.8571429,,,e,1,0.536,0,29,29,9,1,机智,e,,,,,,,,,,,,,,,,,,,,,,,,,,,,,,,,,,,,,,,,,,,,,,,,,,,,,
,,,,,,,,,,,,,,1,001,2025-01-04_21h45.02.125,IAT(Formal),2021.2.3,Win32,142.8571429,,,i,1,0.597,0,30,30,35,1,猖狂,i,,,,,,,,,,,,,,,,,,,,,,,,,,,,,,,,,,,,,,,,,,,,,,,,,,,,,
,,,,,,,,,,,,,,1,001,2025-01-04_21h45.02.125,IAT(Formal),2021.2.3,Win32,142.8571429,,,e,1,0.7787,0,31,31,10,1,认真,e,,,,,,,,,,,,,,,,,,,,,,,,,,,,,,,,,,,,,,,,,,,,,,,,,,,,,
,,,,,,,,,,,,,,1,001,2025-01-04_21h45.02.125,IAT(Formal),2021.2.3,Win32,142.8571429,,,i,1,0.7354,0,32,32,32,1,凶狠,i,,,,,,,,,,,,,,,,,,,,,,,,,,,,,,,,,,,,,,,,,,,,,,,,,,,,,
,,,,,,,,,,,,,,1,001,2025-01-04_21h45.02.125,IAT(Formal),2021.2.3,Win32,142.8571429,,,e,1,0.7839,0,33,33,16,1,冷静,e,,,,,,,,,,,,,,,,,,,,,,,,,,,,,,,,,,,,,,,,,,,,,,,,,,,,,
,,,,,,,,,,,,,,1,001,2025-01-04_21h45.02.125,IAT(Formal),2021.2.3,Win32,142.8571429,,,e,1,0.6598,0,34,34,13,1,公正,e,,,,,,,,,,,,,,,,,,,,,,,,,,,,,,,,,,,,,,,,,,,,,,,,,,,,,
,,,,,,,,,,,,,,1,001,2025-01-04_21h45.02.125,IAT(Formal),2021.2.3,Win32,142.8571429,,,e,1,0.6457,0,35,35,11,1,稳重,e,,,,,,,,,,,,,,,,,,,,,,,,,,,,,,,,,,,,,,,,,,,,,,,,,,,,,
,,,,,,,,,,,,,,1,001,2025-01-04_21h45.02.125,IAT(Formal),2021.2.3,Win32,142.8571429,,,i,1,0.5465,0,36,36,22,1,愚蠢,i,,,,,,,,,,,,,,,,,,,,,,,,,,,,,,,,,,,,,,,,,,,,,,,,,,,,,
,,,,,,,,,,,,,,1,001,2025-01-04_21h45.02.125,IAT(Formal),2021.2.3,Win32,142.8571429,,,e,1,0.6123,0,37,37,18,1,活泼,e,,,,,,,,,,,,,,,,,,,,,,,,,,,,,,,,,,,,,,,,,,,,,,,,,,,,,
,,,,,,,,,,,,,,1,001,2025-01-04_21h45.02.125,IAT(Formal),2021.2.3,Win32,142.8571429,,,i,1,0.6639,0,38,38,29,1,冒失,i,,,,,,,,,,,,,,,,,,,,,,,,,,,,,,,,,,,,,,,,,,,,,,,,,,,,,
,,,,,,,,,,,,,,1,001,2025-01-04_21h45.02.125,IAT(Formal),2021.2.3,Win32,142.8571429,,,e,1,1.2492,0,39,39,15,1,细腻,e,,,,,,,,,,,,,,,,,,,,,,,,,,,,,,,,,,,,,,,,,,,,,,,,,,,,,
,,,,,,,,,,,,,,1,001,2025-01-04_21h45.02.125,IAT(Formal),2021.2.3,Win32,142.8571429,,,,,,,,,,,,,space,4.1729,i,1,0.6042,0,0,0,47,1,固执,i,,,,,,,,,,,,,,,,,,,,,,,,,,,,,,,,,,,,,,,,,
,,,,,,,,,,,,,,1,001,2025-01-04_21h45.02.125,IAT(Formal),2021.2.3,Win32,142.8571429,,,,,,,,,,,,,,,i,1,0.5488,0,1,1,35,1,消极,i,,,,,,,,,,,,,,,,,,,,,,,,,,,,,,,,,,,,,,,,,
,,,,,,,,,,,,,,1,001,2025-01-04_21h45.02.125,IAT(Formal),2021.2.3,Win32,142.8571429,,,,,,,,,,,,,,,i,1,0.741,0,2,2,43,1,自私,i,,,,,,,,,,,,,,,,,,,,,,,,,,,,,,,,,,,,,,,,,
,,,,,,,,,,,,,,1,001,2025-01-04_21h45.02.125,IAT(Formal),2021.2.3,Win32,142.8571429,,,,,,,,,,,,,,,e,1,0.7486,0,3,3,23,1,公正,e,,,,,,,,,,,,,,,,,,,,,,,,,,,,,,,,,,,,,,,,,
,,,,,,,,,,,,,,1,001,2025-01-04_21h45.02.125,IAT(Formal),2021.2.3,Win32,142.8571429,,,,,,,,,,,,,,,i,0,0.445,0,4,4,0,1,我,e,,,,,,,,,,,,,,,,,,,,,,,,,,,,,,,,,,,,,,,,,
,,,,,,,,,,,,,,1,001,2025-01-04_21h45.02.125,IAT(Formal),2021.2.3,Win32,142.8571429,,,,,,,,,,,,,,,i,1,0.7986,0,5,5,59,1,其他,i,,,,,,,,,,,,,,,,,,,,,,,,,,,,,,,,,,,,,,,,,
,,,,,,,,,,,,,,1,001,2025-01-04_21h45.02.125,IAT(Formal),2021.2.3,Win32,142.8571429,,,,,,,,,,,,,,,e,1,0.9367,0,6,6,26,1,冷静,e,,,,,,,,,,,,,,,,,,,,,,,,,,,,,,,,,,,,,,,,,
,,,,,,,,,,,,,,1,001,2025-01-04_21h45.02.125,IAT(Formal),2021.2.3,Win32,142.8571429,,,,,,,,,,,,,,,i,1,0.6312,0,7,7,46,1,野蛮,i,,,,,,,,,,,,,,,,,,,,,,,,,,,,,,,,,,,,,,,,,
,,,,,,,,,,,,,,1,001,2025-01-04_21h45.02.125,IAT(Formal),2021.2.3,Win32,142.8571429,,,,,,,,,,,,,,,i,1,0.4929,0,8,8,7,1,他的,i,,,,,,,,,,,,,,,,,,,,,,,,,,,,,,,,,,,,,,,,,
,,,,,,,,,,,,,,1,001,2025-01-04_21h45.02.125,IAT(Formal),2021.2.3,Win32,142.8571429,,,,,,,,,,,,,,,i,1,0.3679,0,9,9,78,1,他人,i,,,,,,,,,,,,,,,,,,,,,,,,,,,,,,,,,,,,,,,,,
,,,,,,,,,,,,,,1,001,2025-01-04_21h45.02.125,IAT(Formal),2021.2.3,Win32,142.8571429,,,,,,,,,,,,,,,e,1,0.8741,0,10,10,51,1,我的,e,,,,,,,,,,,,,,,,,,,,,,,,,,,,,,,,,,,,,,,,,
,,,,,,,,,,,,,,1,001,2025-01-04_21h45.02.125,IAT(Formal),2021.2.3,Win32,142.8571429,,,,,,,,,,,,,,,e,0,1.3194,0,11,11,41,1,散漫,i,,,,,,,,,,,,,,,,,,,,,,,,,,,,,,,,,,,,,,,,,
,,,,,,,,,,,,,,1,001,2025-01-04_21h45.02.125,IAT(Formal),2021.2.3,Win32,142.8571429,,,,,,,,,,,,,,,e,1,0.922,0,12,12,71,1,我的,e,,,,,,,,,,,,,,,,,,,,,,,,,,,,,,,,,,,,,,,,,
,,,,,,,,,,,,,,1,001,2025-01-04_21h45.02.125,IAT(Formal),2021.2.3,Win32,142.8571429,,,,,,,,,,,,,,,i,1,0.5616,0,13,13,5,1,他,i,,,,,,,,,,,,,,,,,,,,,,,,,,,,,,,,,,,,,,,,,
,,,,,,,,,,,,,,1,001,2025-01-04_21h45.02.125,IAT(Formal),2021.2.3,Win32,142.8571429,,,,,,,,,,,,,,,i,0,1.1655,0,14,14,25,1,细腻,e,,,,,,,,,,,,,,,,,,,,,,,,,,,,,,,,,,,,,,,,,
,,,,,,,,,,,,,,1,001,2025-01-04_21h45.02.125,IAT(Formal),2021.2.3,Win32,142.8571429,,,,,,,,,,,,,,,e,1,0.8549,0,15,15,20,1,认真,e,,,,,,,,,,,,,,,,,,,,,,,,,,,,,,,,,,,,,,,,,
,,,,,,,,,,,,,,1,001,2025-01-04_21h45.02.125,IAT(Formal),2021.2.3,Win32,142.8571429,,,,,,,,,,,,,,,e,1,1.0274,0,16,16,22,1,无私,e,,,,,,,,,,,,,,,,,,,,,,,,,,,,,,,,,,,,,,,,,
,,,,,,,,,,,,,,1,001,2025-01-04_21h45.02.125,IAT(Formal),2021.2.3,Win32,142.8571429,,,,,,,,,,,,,,,e,1,1.0646,0,17,17,72,1,我们,e,,,,,,,,,,,,,,,,,,,,,,,,,,,,,,,,,,,,,,,,,
,,,,,,,,,,,,,,1,001,2025-01-04_21h45.02.125,IAT(Formal),2021.2.3,Win32,142.8571429,,,,,,,,,,,,,,,i,1,0.6608,0,18,18,38,1,鲁莽,i,,,,,,,,,,,,,,,,,,,,,,,,,,,,,,,,,,,,,,,,,
,,,,,,,,,,,,,,1,001,2025-01-04_21h45.02.125,IAT(Formal),2021.2.3,Win32,142.8571429,,,,,,,,,,,,,,,e,1,0.9092,0,19,19,53,1,自己,e,,,,,,,,,,,,,,,,,,,,,,,,,,,,,,,,,,,,,,,,,
,,,,,,,,,,,,,,1,001,2025-01-04_21h45.02.125,IAT(Formal),2021.2.3,Win32,142.8571429,,,,,,,,,,,,,,,i,1,0.6181,0,20,20,65,1,他,i,,,,,,,,,,,,,,,,,,,,,,,,,,,,,,,,,,,,,,,,,
,,,,,,,,,,,,,,1,001,2025-01-04_21h45.02.125,IAT(Formal),2021.2.3,Win32,142.8571429,,,,,,,,,,,,,,,i,1,0.4885,0,21,21,9,1,其他,i,,,,,,,,,,,,,,,,,,,,,,,,,,,,,,,,,,,,,,,,,
,,,,,,,,,,,,,,1,001,2025-01-04_21h45.02.125,IAT(Formal),2021.2.3,Win32,142.8571429,,,,,,,,,,,,,,,e,1,0.6056,0,22,22,1,1,我的,e,,,,,,,,,,,,,,,,,,,,,,,,,,,,,,,,,,,,,,,,,
,,,,,,,,,,,,,,1,001,2025-01-04_21h45.02.125,IAT(Formal),2021.2.3,Win32,142.8571429,,,,,,,,,,,,,,,e,1,1.2479,0,23,23,17,1,勇敢,e,,,,,,,,,,,,,,,,,,,,,,,,,,,,,,,,,,,,,,,,,
,,,,,,,,,,,,,,1,001,2025-01-04_21h45.02.125,IAT(Formal),2021.2.3,Win32,142.8571429,,,,,,,,,,,,,,,e,1,0.4731,0,24,24,52,1,我们,e,,,,,,,,,,,,,,,,,,,,,,,,,,,,,,,,,,,,,,,,,
,,,,,,,,,,,,,,1,001,2025-01-04_21h45.02.125,IAT(Formal),2021.2.3,Win32,142.8571429,,,,,,,,,,,,,,,e,1,0.5922,0,25,25,73,1,自己,e,,,,,,,,,,,,,,,,,,,,,,,,,,,,,,,,,,,,,,,,,
,,,,,,,,,,,,,,1,001,2025-01-04_21h45.02.125,IAT(Formal),2021.2.3,Win32,142.8571429,,,,,,,,,,,,,,,e,1,0.5491,0,26,26,50,1,我,e,,,,,,,,,,,,,,,,,,,,,,,,,,,,,,,,,,,,,,,,,
,,,,,,,,,,,,,,1,001,2025-01-04_21h45.02.125,IAT(Formal),2021.2.3,Win32,142.8571429,,,,,,,,,,,,,,,i,1,0.647,0,27,27,79,1,其他,i,,,,,,,,,,,,,,,,,,,,,,,,,,,,,,,,,,,,,,,,,
,,,,,,,,,,,,,,1,001,2025-01-04_21h45.02.125,IAT(Formal),2021.2.3,Win32,142.8571429,,,,,,,,,,,,,,,e,1,0.8257,0,28,28,14,1,乐观,e,,,,,,,,,,,,,,,,,,,,,,,,,,,,,,,,,,,,,,,,,
,,,,,,,,,,,,,,1,001,2025-01-04_21h45.02.125,IAT(Formal),2021.2.3,Win32,142.8571429,,,,,,,,,,,,,,,e,1,0.6874,0,29,29,27,1,热情,e,,,,,,,,,,,,,,,,,,,,,,,,,,,,,,,,,,,,,,,,,
,,,,,,,,,,,,,,1,001,2025-01-04_21h45.02.125,IAT(Formal),2021.2.3,Win32,142.8571429,,,,,,,,,,,,,,,e,1,0.6829,0,30,30,3,1,自己,e,,,,,,,,,,,,,,,,,,,,,,,,,,,,,,,,,,,,,,,,,
,,,,,,,,,,,,,,1,001,2025-01-04_21h45.02.125,IAT(Formal),2021.2.3,Win32,142.8571429,,,,,,,,,,,,,,,e,1,0.6469,0,31,31,62,1,我们,e,,,,,,,,,,,,,,,,,,,,,,,,,,,,,,,,,,,,,,,,,
,,,,,,,,,,,,,,1,001,2025-01-04_21h45.02.125,IAT(Formal),2021.2.3,Win32,142.8571429,,,,,,,,,,,,,,,i,1,0.6599,0,32,32,44,1,暴躁,i,,,,,,,,,,,,,,,,,,,,,,,,,,,,,,,,,,,,,,,,,
,,,,,,,,,,,,,,1,001,2025-01-04_21h45.02.125,IAT(Formal),2021.2.3,Win32,142.8571429,,,,,,,,,,,,,,,e,1,0.7826,0,33,33,11,1,崇高,e,,,,,,,,,,,,,,,,,,,,,,,,,,,,,,,,,,,,,,,,,
,,,,,,,,,,,,,,1,001,2025-01-04_21h45.02.125,IAT(Formal),2021.2.3,Win32,142.8571429,,,,,,,,,,,,,,,i,1,0.8225,0,34,34,56,1,他们,i,,,,,,,,,,,,,,,,,,,,,,,,,,,,,,,,,,,,,,,,,
,,,,,,,,,,,,,,1,001,2025-01-04_21h45.02.125,IAT(Formal),2021.2.3,Win32,142.8571429,,,,,,,,,,,,,,,e,1,0.6726,0,35,35,54,1,俺,e,,,,,,,,,,,,,,,,,,,,,,,,,,,,,,,,,,,,,,,,,
,,,,,,,,,,,,,,1,001,2025-01-04_21h45.02.125,IAT(Formal),2021.2.3,Win32,142.8571429,,,,,,,,,,,,,,,e,1,0.5299,0,36,36,74,1,俺,e,,,,,,,,,,,,,,,,,,,,,,,,,,,,,,,,,,,,,,,,,
,,,,,,,,,,,,,,1,001,2025-01-04_21h45.02.125,IAT(Formal),2021.2.3,Win32,142.8571429,,,,,,,,,,,,,,,i,1,0.6202,0,37,37,67,1,他的,i,,,,,,,,,,,,,,,,,,,,,,,,,,,,,,,,,,,,,,,,,
,,,,,,,,,,,,,,1,001,2025-01-04_21h45.02.125,IAT(Formal),2021.2.3,Win32,142.8571429,,,,,,,,,,,,,,,i,1,0.7849,0,38,38,37,1,傲慢,i,,,,,,,,,,,,,,,,,,,,,,,,,,,,,,,,,,,,,,,,,
,,,,,,,,,,,,,,1,001,2025-01-04_21h45.02.125,IAT(Formal),2021.2.3,Win32,142.8571429,,,,,,,,,,,,,,,e,1,0.5833,0,39,39,2,1,我们,e,,,,,,,,,,,,,,,,,,,,,,,,,,,,,,,,,,,,,,,,,
,,,,,,,,,,,,,,1,001,2025-01-04_21h45.02.125,IAT(Formal),2021.2.3,Win32,142.8571429,,,,,,,,,,,,,,,i,1,1.0215,0,40,40,30,1,卑鄙,i,,,,,,,,,,,,,,,,,,,,,,,,,,,,,,,,,,,,,,,,,
,,,,,,,,,,,,,,1,001,2025-01-04_21h45.02.125,IAT(Formal),2021.2.3,Win32,142.8571429,,,,,,,,,,,,,,,i,1,0.6175,0,41,41,45,1,猖狂,i,,,,,,,,,,,,,,,,,,,,,,,,,,,,,,,,,,,,,,,,,
,,,,,,,,,,,,,,1,001,2025-01-04_21h45.02.125,IAT(Formal),2021.2.3,Win32,142.8571429,,,,,,,,,,,,,,,i,1,0.4653,0,42,42,40,1,执拗,i,,,,,,,,,,,,,,,,,,,,,,,,,,,,,,,,,,,,,,,,,
,,,,,,,,,,,,,,1,001,2025-01-04_21h45.02.125,IAT(Formal),2021.2.3,Win32,142.8571429,,,,,,,,,,,,,,,e,1,0.6588,0,43,43,64,1,俺,e,,,,,,,,,,,,,,,,,,,,,,,,,,,,,,,,,,,,,,,,,
,,,,,,,,,,,,,,1,001,2025-01-04_21h45.02.125,IAT(Formal),2021.2.3,Win32,142.8571429,,,,,,,,,,,,,,,i,1,0.6464,0,44,44,69,1,其他,i,,,,,,,,,,,,,,,,,,,,,,,,,,,,,,,,,,,,,,,,,
,,,,,,,,,,,,,,1,001,2025-01-04_21h45.02.125,IAT(Formal),2021.2.3,Win32,142.8571429,,,,,,,,,,,,,,,i,1,0.5443,0,45,45,49,1,下贱,i,,,,,,,,,,,,,,,,,,,,,,,,,,,,,,,,,,,,,,,,,
,,,,,,,,,,,,,,1,001,2025-01-04_21h45.02.125,IAT(Formal),2021.2.3,Win32,142.8571429,,,,,,,,,,,,,,,e,0,0.7784,0,46,46,57,1,他的,i,,,,,,,,,,,,,,,,,,,,,,,,,,,,,,,,,,,,,,,,,
,,,,,,,,,,,,,,1,001,2025-01-04_21h45.02.125,IAT(Formal),2021.2.3,Win32,142.8571429,,,,,,,,,,,,,,,i,1,0.3982,0,47,47,8,1,他人,i,,,,,,,,,,,,,,,,,,,,,,,,,,,,,,,,,,,,,,,,,
,,,,,,,,,,,,,,1,001,2025-01-04_21h45.02.125,IAT(Formal),2021.2.3,Win32,142.8571429,,,,,,,,,,,,,,,i,1,0.4644,0,48,48,77,1,他的,i,,,,,,,,,,,,,,,,,,,,,,,,,,,,,,,,,,,,,,,,,
,,,,,,,,,,,,,,1,001,2025-01-04_21h45.02.125,IAT(Formal),2021.2.3,Win32,142.8571429,,,,,,,,,,,,,,,e,1,0.8607,0,49,49,12,1,聪明,e,,,,,,,,,,,,,,,,,,,,,,,,,,,,,,,,,,,,,,,,,
,,,,,,,,,,,,,,1,001,2025-01-04_21h45.02.125,IAT(Formal),2021.2.3,Win32,142.8571429,,,,,,,,,,,,,,,e,1,1.0344,0,50,50,28,1,活泼,e,,,,,,,,,,,,,,,,,,,,,,,,,,,,,,,,,,,,,,,,,
,,,,,,,,,,,,,,1,001,2025-01-04_21h45.02.125,IAT(Formal),2021.2.3,Win32,142.8571429,,,,,,,,,,,,,,,e,1,0.7038,0,51,51,70,1,我,e,,,,,,,,,,,,,,,,,,,,,,,,,,,,,,,,,,,,,,,,,
,,,,,,,,,,,,,,1,001,2025-01-04_21h45.02.125,IAT(Formal),2021.2.3,Win32,142.8571429,,,,,,,,,,,,,,,e,1,0.5649,0,52,52,16,1,正直,e,,,,,,,,,,,,,,,,,,,,,,,,,,,,,,,,,,,,,,,,,
,,,,,,,,,,,,,,1,001,2025-01-04_21h45.02.125,IAT(Formal),2021.2.3,Win32,142.8571429,,,,,,,,,,,,,,,i,1,0.5166,0,53,53,55,1,他,i,,,,,,,,,,,,,,,,,,,,,,,,,,,,,,,,,,,,,,,,,
,,,,,,,,,,,,,,1,001,2025-01-04_21h45.02.125,IAT(Formal),2021.2.3,Win32,142.8571429,,,,,,,,,,,,,,,e,1,0.8263,0,54,54,19,1,机智,e,,,,,,,,,,,,,,,,,,,,,,,,,,,,,,,,,,,,,,,,,
,,,,,,,,,,,,,,1,001,2025-01-04_21h45.02.125,IAT(Formal),2021.2.3,Win32,142.8571429,,,,,,,,,,,,,,,i,1,0.7715,0,55,55,32,1,愚蠢,i,,,,,,,,,,,,,,,,,,,,,,,,,,,,,,,,,,,,,,,,,
,,,,,,,,,,,,,,1,001,2025-01-04_21h45.02.125,IAT(Formal),2021.2.3,Win32,142.8571429,,,,,,,,,,,,,,,e,1,1.0002,0,56,56,24,1,朴实,e,,,,,,,,,,,,,,,,,,,,,,,,,,,,,,,,,,,,,,,,,
,,,,,,,,,,,,,,1,001,2025-01-04_21h45.02.125,IAT(Formal),2021.2.3,Win32,142.8571429,,,,,,,,,,,,,,,e,1,1.0627,0,57,57,63,1,自己,e,,,,,,,,,,,,,,,,,,,,,,,,,,,,,,,,,,,,,,,,,
,,,,,,,,,,,,,,1,001,2025-01-04_21h45.02.125,IAT(Formal),2021.2.3,Win32,142.8571429,,,,,,,,,,,,,,,i,1,0.6966,0,58,58,34,1,悲观,i,,,,,,,,,,,,,,,,,,,,,,,,,,,,,,,,,,,,,,,,,
,,,,,,,,,,,,,,1,001,2025-01-04_21h45.02.125,IAT(Formal),2021.2.3,Win32,142.8571429,,,,,,,,,,,,,,,i,1,0.7138,0,59,59,66,1,他们,i,,,,,,,,,,,,,,,,,,,,,,,,,,,,,,,,,,,,,,,,,
,,,,,,,,,,,,,,1,001,2025-01-04_21h45.02.125,IAT(Formal),2021.2.3,Win32,142.8571429,,,,,,,,,,,,,,,i,1,0.5303,0,60,60,58,1,他人,i,,,,,,,,,,,,,,,,,,,,,,,,,,,,,,,,,,,,,,,,,
,,,,,,,,,,,,,,1,001,2025-01-04_21h45.02.125,IAT(Formal),2021.2.3,Win32,142.8571429,,,,,,,,,,,,,,,e,1,0.5338,0,61,61,60,1,我,e,,,,,,,,,,,,,,,,,,,,,,,,,,,,,,,,,,,,,,,,,
,,,,,,,,,,,,,,1,001,2025-01-04_21h45.02.125,IAT(Formal),2021.2.3,Win32,142.8571429,,,,,,,,,,,,,,,i,1,0.8121,0,62,62,36,1,自卑,i,,,,,,,,,,,,,,,,,,,,,,,,,,,,,,,,,,,,,,,,,
,,,,,,,,,,,,,,1,001,2025-01-04_21h45.02.125,IAT(Formal),2021.2.3,Win32,142.8571429,,,,,,,,,,,,,,,i,1,1.1181,0,63,63,68,1,他人,i,,,,,,,,,,,,,,,,,,,,,,,,,,,,,,,,,,,,,,,,,
,,,,,,,,,,,,,,1,001,2025-01-04_21h45.02.125,IAT(Formal),2021.2.3,Win32,142.8571429,,,,,,,,,,,,,,,i,1,0.5294,0,64,64,31,1,虚伪,i,,,,,,,,,,,,,,,,,,,,,,,,,,,,,,,,,,,,,,,,,
,,,,,,,,,,,,,,1,001,2025-01-04_21h45.02.125,IAT(Formal),2021.2.3,Win32,142.8571429,,,,,,,,,,,,,,,e,1,0.7228,0,65,65,61,1,我的,e,,,,,,,,,,,,,,,,,,,,,,,,,,,,,,,,,,,,,,,,,
,,,,,,,,,,,,,,1,001,2025-01-04_21h45.02.125,IAT(Formal),2021.2.3,Win32,142.8571429,,,,,,,,,,,,,,,e,1,0.98,0,66,66,18,1,勤奋,e,,,,,,,,,,,,,,,,,,,,,,,,,,,,,,,,,,,,,,,,,
,,,,,,,,,,,,,,1,001,2025-01-04_21h45.02.125,IAT(Formal),2021.2.3,Win32,142.8571429,,,,,,,,,,,,,,,e,1,0.6882,0,67,67,21,1,稳重,e,,,,,,,,,,,,,,,,,,,,,,,,,,,,,,,,,,,,,,,,,
,,,,,,,,,,,,,,1,001,2025-01-04_21h45.02.125,IAT(Formal),2021.2.3,Win32,142.8571429,,,,,,,,,,,,,,,e,0,0.7347,0,68,68,39,1,冒失,i,,,,,,,,,,,,,,,,,,,,,,,,,,,,,,,,,,,,,,,,,
,,,,,,,,,,,,,,1,001,2025-01-04_21h45.02.125,IAT(Formal),2021.2.3,Win32,142.8571429,,,,,,,,,,,,,,,e,1,0.6114,0,69,69,29,1,诚恳,e,,,,,,,,,,,,,,,,,,,,,,,,,,,,,,,,,,,,,,,,,
,,,,,,,,,,,,,,1,001,2025-01-04_21h45.02.125,IAT(Formal),2021.2.3,Win32,142.8571429,,,,,,,,,,,,,,,i,1,0.6312,0,70,70,48,1,轻率,i,,,,,,,,,,,,,,,,,,,,,,,,,,,,,,,,,,,,,,,,,
,,,,,,,,,,,,,,1,001,2025-01-04_21h45.02.125,IAT(Formal),2021.2.3,Win32,142.8571429,,,,,,,,,,,,,,,e,1,0.9691,0,71,71,4,1,俺,e,,,,,,,,,,,,,,,,,,,,,,,,,,,,,,,,,,,,,,,,,
,,,,,,,,,,,,,,1,001,2025-01-04_21h45.02.125,IAT(Formal),2021.2.3,Win32,142.8571429,,,,,,,,,,,,,,,e,1,0.7825,0,72,72,10,1,优秀,e,,,,,,,,,,,,,,,,,,,,,,,,,,,,,,,,,,,,,,,,,
,,,,,,,,,,,,,,1,001,2025-01-04_21h45.02.125,IAT(Formal),2021.2.3,Win32,142.8571429,,,,,,,,,,,,,,,i,1,0.6166,0,73,73,6,1,他们,i,,,,,,,,,,,,,,,,,,,,,,,,,,,,,,,,,,,,,,,,,
,,,,,,,,,,,,,,1,001,2025-01-04_21h45.02.125,IAT(Formal),2021.2.3,Win32,142.8571429,,,,,,,,,,,,,,,i,1,0.6594,0,74,74,42,1,凶狠,i,,,,,,,,,,,,,,,,,,,,,,,,,,,,,,,,,,,,,,,,,
,,,,,,,,,,,,,,1,001,2025-01-04_21h45.02.125,IAT(Formal),2021.2.3,Win32,142.8571429,,,,,,,,,,,,,,,i,1,0.847,0,75,75,76,1,他们,i,,,,,,,,,,,,,,,,,,,,,,,,,,,,,,,,,,,,,,,,,
,,,,,,,,,,,,,,1,001,2025-01-04_21h45.02.125,IAT(Formal),2021.2.3,Win32,142.8571429,,,,,,,,,,,,,,,e,1,0.7767,0,76,76,15,1,诚实,e,,,,,,,,,,,,,,,,,,,,,,,,,,,,,,,,,,,,,,,,,
,,,,,,,,,,,,,,1,001,2025-01-04_21h45.02.125,IAT(Formal),2021.2.3,Win32,142.8571429,,,,,,,,,,,,,,,i,1,0.8052,0,77,77,75,1,他,i,,,,,,,,,,,,,,,,,,,,,,,,,,,,,,,,,,,,,,,,,
,,,,,,,,,,,,,,1,001,2025-01-04_21h45.02.125,IAT(Formal),2021.2.3,Win32,142.8571429,,,,,,,,,,,,,,,e,1,0.7106,0,78,78,13,1,杰出,e,,,,,,,,,,,,,,,,,,,,,,,,,,,,,,,,,,,,,,,,,
,,,,,,,,,,,,,,1,001,2025-01-04_21h45.02.125,IAT(Formal),2021.2.3,Win32,142.8571429,,,,,,,,,,,,,,,i,1,0.5698,0,79,79,33,1,刻薄,i,,,,,,,,,,,,,,,,,,,,,,,,,,,,,,,,,,,,,,,,,
,,,,,,,,,,,,,,1,001,2025-01-04_21h45.02.125,IAT(Formal),2021.2.3,Win32,142.8571429,,,,,,,,,,,,,,,e,1,0.9451,,,,,,我的,e,space,7.5816,0,0,0,1,1,,,,,,,,,,,,,,,,,,,,,,,,,,,,,,,,,,
,,,,,,,,,,,,,,1,001,2025-01-04_21h45.02.125,IAT(Formal),2021.2.3,Win32,142.8571429,,,,,,,,,,,,,,,i,1,0.8199,,,,,,下贱,i,,,0,1,1,49,1,,,,,,,,,,,,,,,,,,,,,,,,,,,,,,,,,,
,,,,,,,,,,,,,,1,001,2025-01-04_21h45.02.125,IAT(Formal),2021.2.3,Win32,142.8571429,,,,,,,,,,,,,,,e,1,0.8526,,,,,,俺,e,,,0,2,2,4,1,,,,,,,,,,,,,,,,,,,,,,,,,,,,,,,,,,
,,,,,,,,,,,,,,1,001,2025-01-04_21h45.02.125,IAT(Formal),2021.2.3,Win32,142.8571429,,,,,,,,,,,,,,,e,1,0.6768,,,,,,杰出,e,,,0,3,3,13,1,,,,,,,,,,,,,,,,,,,,,,,,,,,,,,,,,,
,,,,,,,,,,,,,,1,001,2025-01-04_21h45.02.125,IAT(Formal),2021.2.3,Win32,142.8571429,,,,,,,,,,,,,,,e,1,0.4533,,,,,,我们,e,,,0,4,4,72,1,,,,,,,,,,,,,,,,,,,,,,,,,,,,,,,,,,
,,,,,,,,,,,,,,1,001,2025-01-04_21h45.02.125,IAT(Formal),2021.2.3,Win32,142.8571429,,,,,,,,,,,,,,,i,1,0.881,,,,,,其他,i,,,0,5,5,9,1,,,,,,,,,,,,,,,,,,,,,,,,,,,,,,,,,,
,,,,,,,,,,,,,,1,001,2025-01-04_21h45.02.125,IAT(Formal),2021.2.3,Win32,142.8571429,,,,,,,,,,,,,,,e,1,0.5695,,,,,,我,e,,,0,6,6,70,1,,,,,,,,,,,,,,,,,,,,,,,,,,,,,,,,,,
,,,,,,,,,,,,,,1,001,2025-01-04_21h45.02.125,IAT(Formal),2021.2.3,Win32,142.8571429,,,,,,,,,,,,,,,e,1,0.6234,,,,,,俺,e,,,0,7,7,74,1,,,,,,,,,,,,,,,,,,,,,,,,,,,,,,,,,,
,,,,,,,,,,,,,,1,001,2025-01-04_21h45.02.125,IAT(Formal),2021.2.3,Win32,142.8571429,,,,,,,,,,,,,,,e,1,0.9976,,,,,,热情,e,,,0,8,8,27,1,,,,,,,,,,,,,,,,,,,,,,,,,,,,,,,,,,
,,,,,,,,,,,,,,1,001,2025-01-04_21h45.02.125,IAT(Formal),2021.2.3,Win32,142.8571429,,,,,,,,,,,,,,,e,1,0.4803,,,,,,认真,e,,,0,9,9,20,1,,,,,,,,,,,,,,,,,,,,,,,,,,,,,,,,,,
,,,,,,,,,,,,,,1,001,2025-01-04_21h45.02.125,IAT(Formal),2021.2.3,Win32,142.8571429,,,,,,,,,,,,,,,e,1,0.5005,,,,,,公正,e,,,0,10,10,23,1,,,,,,,,,,,,,,,,,,,,,,,,,,,,,,,,,,
,,,,,,,,,,,,,,1,001,2025-01-04_21h45.02.125,IAT(Formal),2021.2.3,Win32,142.8571429,,,,,,,,,,,,,,,e,1,0.5128,,,,,,细腻,e,,,0,11,11,25,1,,,,,,,,,,,,,,,,,,,,,,,,,,,,,,,,,,
,,,,,,,,,,,,,,1,001,2025-01-04_21h45.02.125,IAT(Formal),2021.2.3,Win32,142.8571429,,,,,,,,,,,,,,,i,1,0.5775,,,,,,冒失,i,,,0,12,12,39,1,,,,,,,,,,,,,,,,,,,,,,,,,,,,,,,,,,
,,,,,,,,,,,,,,1,001,2025-01-04_21h45.02.125,IAT(Formal),2021.2.3,Win32,142.8571429,,,,,,,,,,,,,,,e,1,0.6477,,,,,,我的,e,,,0,13,13,61,1,,,,,,,,,,,,,,,,,,,,,,,,,,,,,,,,,,
,,,,,,,,,,,,,,1,001,2025-01-04_21h45.02.125,IAT(Formal),2021.2.3,Win32,142.8571429,,,,,,,,,,,,,,,e,1,0.5235,,,,,,勤奋,e,,,0,14,14,18,1,,,,,,,,,,,,,,,,,,,,,,,,,,,,,,,,,,
,,,,,,,,,,,,,,1,001,2025-01-04_21h45.02.125,IAT(Formal),2021.2.3,Win32,142.8571429,,,,,,,,,,,,,,,e,1,0.4998,,,,,,俺,e,,,0,15,15,64,1,,,,,,,,,,,,,,,,,,,,,,,,,,,,,,,,,,
,,,,,,,,,,,,,,1,001,2025-01-04_21h45.02.125,IAT(Formal),2021.2.3,Win32,142.8571429,,,,,,,,,,,,,,,i,1,0.5707,,,,,,他人,i,,,0,16,16,58,1,,,,,,,,,,,,,,,,,,,,,,,,,,,,,,,,,,
,,,,,,,,,,,,,,1,001,2025-01-04_21h45.02.125,IAT(Formal),2021.2.3,Win32,142.8571429,,,,,,,,,,,,,,,e,1,0.5369,,,,,,稳重,e,,,0,17,17,21,1,,,,,,,,,,,,,,,,,,,,,,,,,,,,,,,,,,
,,,,,,,,,,,,,,1,001,2025-01-04_21h45.02.125,IAT(Formal),2021.2.3,Win32,142.8571429,,,,,,,,,,,,,,,i,1,0.6607,,,,,,他们,i,,,0,18,18,6,1,,,,,,,,,,,,,,,,,,,,,,,,,,,,,,,,,,
,,,,,,,,,,,,,,1,001,2025-01-04_21h45.02.125,IAT(Formal),2021.2.3,Win32,142.8571429,,,,,,,,,,,,,,,i,1,0.8463,,,,,,他,i,,,0,19,19,5,1,,,,,,,,,,,,,,,,,,,,,,,,,,,,,,,,,,
,,,,,,,,,,,,,,1,001,2025-01-04_21h45.02.125,IAT(Formal),2021.2.3,Win32,142.8571429,,,,,,,,,,,,,,,e,1,0.5551,,,,,,乐观,e,,,0,20,20,14,1,,,,,,,,,,,,,,,,,,,,,,,,,,,,,,,,,,
,,,,,,,,,,,,,,1,001,2025-01-04_21h45.02.125,IAT(Formal),2021.2.3,Win32,142.8571429,,,,,,,,,,,,,,,i,1,0.6604,,,,,,固执,i,,,0,21,21,47,1,,,,,,,,,,,,,,,,,,,,,,,,,,,,,,,,,,
,,,,,,,,,,,,,,1,001,2025-01-04_21h45.02.125,IAT(Formal),2021.2.3,Win32,142.8571429,,,,,,,,,,,,,,,e,1,0.513,,,,,,我,e,,,0,22,22,60,1,,,,,,,,,,,,,,,,,,,,,,,,,,,,,,,,,,
,,,,,,,,,,,,,,1,001,2025-01-04_21h45.02.125,IAT(Formal),2021.2.3,Win32,142.8571429,,,,,,,,,,,,,,,i,1,0.5127,,,,,,他们,i,,,0,23,23,56,1,,,,,,,,,,,,,,,,,,,,,,,,,,,,,,,,,,
,,,,,,,,,,,,,,1,001,2025-01-04_21h45.02.125,IAT(Formal),2021.2.3,Win32,142.8571429,,,,,,,,,,,,,,,e,1,0.5564,,,,,,我们,e,,,0,24,24,62,1,,,,,,,,,,,,,,,,,,,,,,,,,,,,,,,,,,
,,,,,,,,,,,,,,1,001,2025-01-04_21h45.02.125,IAT(Formal),2021.2.3,Win32,142.8571429,,,,,,,,,,,,,,,e,1,0.6043,,,,,,诚实,e,,,0,25,25,15,1,,,,,,,,,,,,,,,,,,,,,,,,,,,,,,,,,,
,,,,,,,,,,,,,,1,001,2025-01-04_21h45.02.125,IAT(Formal),2021.2.3,Win32,142.8571429,,,,,,,,,,,,,,,i,1,0.549,,,,,,他,i,,,0,26,26,65,1,,,,,,,,,,,,,,,,,,,,,,,,,,,,,,,,,,
,,,,,,,,,,,,,,1,001,2025-01-04_21h45.02.125,IAT(Formal),2021.2.3,Win32,142.8571429,,,,,,,,,,,,,,,i,1,0.464,,,,,,他人,i,,,0,27,27,68,1,,,,,,,,,,,,,,,,,,,,,,,,,,,,,,,,,,
,,,,,,,,,,,,,,1,001,2025-01-04_21h45.02.125,IAT(Formal),2021.2.3,Win32,142.8571429,,,,,,,,,,,,,,,i,1,0.4144,,,,,,他的,i,,,0,28,28,67,1,,,,,,,,,,,,,,,,,,,,,,,,,,,,,,,,,,
,,,,,,,,,,,,,,1,001,2025-01-04_21h45.02.125,IAT(Formal),2021.2.3,Win32,142.8571429,,,,,,,,,,,,,,,e,1,0.5421,,,,,,自己,e,,,0,29,29,73,1,,,,,,,,,,,,,,,,,,,,,,,,,,,,,,,,,,
,,,,,,,,,,,,,,1,001,2025-01-04_21h45.02.125,IAT(Formal),2021.2.3,Win32,142.8571429,,,,,,,,,,,,,,,e,1,0.6242,,,,,,我的,e,,,0,30,30,71,1,,,,,,,,,,,,,,,,,,,,,,,,,,,,,,,,,,
,,,,,,,,,,,,,,1,001,2025-01-04_21h45.02.125,IAT(Formal),2021.2.3,Win32,142.8571429,,,,,,,,,,,,,,,i,1,0.6048,,,,,,暴躁,i,,,0,31,31,44,1,,,,,,,,,,,,,,,,,,,,,,,,,,,,,,,,,,
,,,,,,,,,,,,,,1,001,2025-01-04_21h45.02.125,IAT(Formal),2021.2.3,Win32,142.8571429,,,,,,,,,,,,,,,i,1,0.8813,,,,,,他人,i,,,0,32,32,78,1,,,,,,,,,,,,,,,,,,,,,,,,,,,,,,,,,,
,,,,,,,,,,,,,,1,001,2025-01-04_21h45.02.125,IAT(Formal),2021.2.3,Win32,142.8571429,,,,,,,,,,,,,,,i,1,0.5357,,,,,,凶狠,i,,,0,33,33,42,1,,,,,,,,,,,,,,,,,,,,,,,,,,,,,,,,,,
,,,,,,,,,,,,,,1,001,2025-01-04_21h45.02.125,IAT(Formal),2021.2.3,Win32,142.8571429,,,,,,,,,,,,,,,e,1,0.5543,,,,,,优秀,e,,,0,34,34,10,1,,,,,,,,,,,,,,,,,,,,,,,,,,,,,,,,,,
,,,,,,,,,,,,,,1,001,2025-01-04_21h45.02.125,IAT(Formal),2021.2.3,Win32,142.8571429,,,,,,,,,,,,,,,i,1,0.5754,,,,,,他的,i,,,0,35,35,7,1,,,,,,,,,,,,,,,,,,,,,,,,,,,,,,,,,,
,,,,,,,,,,,,,,1,001,2025-01-04_21h45.02.125,IAT(Formal),2021.2.3,Win32,142.8571429,,,,,,,,,,,,,,,i,1,0.6935,,,,,,卑鄙,i,,,0,36,36,30,1,,,,,,,,,,,,,,,,,,,,,,,,,,,,,,,,,,
,,,,,,,,,,,,,,1,001,2025-01-04_21h45.02.125,IAT(Formal),2021.2.3,Win32,142.8571429,,,,,,,,,,,,,,,e,1,0.5048,,,,,,我的,e,,,0,37,37,51,1,,,,,,,,,,,,,,,,,,,,,,,,,,,,,,,,,,
,,,,,,,,,,,,,,1,001,2025-01-04_21h45.02.125,IAT(Formal),2021.2.3,Win32,142.8571429,,,,,,,,,,,,,,,i,1,0.5553,,,,,,散漫,i,,,0,38,38,41,1,,,,,,,,,,,,,,,,,,,,,,,,,,,,,,,,,,
,,,,,,,,,,,,,,1,001,2025-01-04_21h45.02.125,IAT(Formal),2021.2.3,Win32,142.8571429,,,,,,,,,,,,,,,e,1,0.6395,,,,,,崇高,e,,,0,39,39,11,1,,,,,,,,,,,,,,,,,,,,,,,,,,,,,,,,,,
,,,,,,,,,,,,,,1,001,2025-01-04_21h45.02.125,IAT(Formal),2021.2.3,Win32,142.8571429,,,,,,,,,,,,,,,i,1,0.4991,,,,,,其他,i,,,0,40,40,79,1,,,,,,,,,,,,,,,,,,,,,,,,,,,,,,,,,,
,,,,,,,,,,,,,,1,001,2025-01-04_21h45.02.125,IAT(Formal),2021.2.3,Win32,142.8571429,,,,,,,,,,,,,,,i,1,0.6025,,,,,,傲慢,i,,,0,41,41,37,1,,,,,,,,,,,,,,,,,,,,,,,,,,,,,,,,,,
,,,,,,,,,,,,,,1,001,2025-01-04_21h45.02.125,IAT(Formal),2021.2.3,Win32,142.8571429,,,,,,,,,,,,,,,e,1,0.5981,,,,,,活泼,e,,,0,42,42,28,1,,,,,,,,,,,,,,,,,,,,,,,,,,,,,,,,,,
,,,,,,,,,,,,,,1,001,2025-01-04_21h45.02.125,IAT(Formal),2021.2.3,Win32,142.8571429,,,,,,,,,,,,,,,i,1,0.5763,,,,,,其他,i,,,0,43,43,69,1,,,,,,,,,,,,,,,,,,,,,,,,,,,,,,,,,,
,,,,,,,,,,,,,,1,001,2025-01-04_21h45.02.125,IAT(Formal),2021.2.3,Win32,142.8571429,,,,,,,,,,,,,,,e,1,0.5995,,,,,,机智,e,,,0,44,44,19,1,,,,,,,,,,,,,,,,,,,,,,,,,,,,,,,,,,
,,,,,,,,,,,,,,1,001,2025-01-04_21h45.02.125,IAT(Formal),2021.2.3,Win32,142.8571429,,,,,,,,,,,,,,,i,1,0.6727,,,,,,他,i,,,0,45,45,75,1,,,,,,,,,,,,,,,,,,,,,,,,,,,,,,,,,,
,,,,,,,,,,,,,,1,001,2025-01-04_21h45.02.125,IAT(Formal),2021.2.3,Win32,142.8571429,,,,,,,,,,,,,,,e,1,0.8355,,,,,,朴实,e,,,0,46,46,24,1,,,,,,,,,,,,,,,,,,,,,,,,,,,,,,,,,,
,,,,,,,,,,,,,,1,001,2025-01-04_21h45.02.125,IAT(Formal),2021.2.3,Win32,142.8571429,,,,,,,,,,,,,,,e,1,0.5624,,,,,,我们,e,,,0,47,47,52,1,,,,,,,,,,,,,,,,,,,,,,,,,,,,,,,,,,
,,,,,,,,,,,,,,1,001,2025-01-04_21h45.02.125,IAT(Formal),2021.2.3,Win32,142.8571429,,,,,,,,,,,,,,,i,1,0.7489,,,,,,自私,i,,,0,48,48,43,1,,,,,,,,,,,,,,,,,,,,,,,,,,,,,,,,,,
,,,,,,,,,,,,,,1,001,2025-01-04_21h45.02.125,IAT(Formal),2021.2.3,Win32,142.8571429,,,,,,,,,,,,,,,e,1,0.613,,,,,,我,e,,,0,49,49,50,1,,,,,,,,,,,,,,,,,,,,,,,,,,,,,,,,,,
,,,,,,,,,,,,,,1,001,2025-01-04_21h45.02.125,IAT(Formal),2021.2.3,Win32,142.8571429,,,,,,,,,,,,,,,i,1,0.6971,,,,,,猖狂,i,,,0,50,50,45,1,,,,,,,,,,,,,,,,,,,,,,,,,,,,,,,,,,
,,,,,,,,,,,,,,1,001,2025-01-04_21h45.02.125,IAT(Formal),2021.2.3,Win32,142.8571429,,,,,,,,,,,,,,,i,1,0.7617,,,,,,愚蠢,i,,,0,51,51,32,1,,,,,,,,,,,,,,,,,,,,,,,,,,,,,,,,,,
,,,,,,,,,,,,,,1,001,2025-01-04_21h45.02.125,IAT(Formal),2021.2.3,Win32,142.8571429,,,,,,,,,,,,,,,i,1,0.4192,,,,,,执拗,i,,,0,52,52,40,1,,,,,,,,,,,,,,,,,,,,,,,,,,,,,,,,,,
,,,,,,,,,,,,,,1,001,2025-01-04_21h45.02.125,IAT(Formal),2021.2.3,Win32,142.8571429,,,,,,,,,,,,,,,e,1,0.7415,,,,,,诚恳,e,,,0,53,53,29,1,,,,,,,,,,,,,,,,,,,,,,,,,,,,,,,,,,
,,,,,,,,,,,,,,1,001,2025-01-04_21h45.02.125,IAT(Formal),2021.2.3,Win32,142.8571429,,,,,,,,,,,,,,,e,1,0.7697,,,,,,自己,e,,,0,54,54,63,1,,,,,,,,,,,,,,,,,,,,,,,,,,,,,,,,,,
,,,,,,,,,,,,,,1,001,2025-01-04_21h45.02.125,IAT(Formal),2021.2.3,Win32,142.8571429,,,,,,,,,,,,,,,e,1,0.6179,,,,,,冷静,e,,,0,55,55,26,1,,,,,,,,,,,,,,,,,,,,,,,,,,,,,,,,,,
,,,,,,,,,,,,,,1,001,2025-01-04_21h45.02.125,IAT(Formal),2021.2.3,Win32,142.8571429,,,,,,,,,,,,,,,i,1,0.7152,,,,,,刻薄,i,,,0,56,56,33,1,,,,,,,,,,,,,,,,,,,,,,,,,,,,,,,,,,
,,,,,,,,,,,,,,1,001,2025-01-04_21h45.02.125,IAT(Formal),2021.2.3,Win32,142.8571429,,,,,,,,,,,,,,,i,1,0.7079,,,,,,他的,i,,,0,57,57,57,1,,,,,,,,,,,,,,,,,,,,,,,,,,,,,,,,,,
,,,,,,,,,,,,,,1,001,2025-01-04_21h45.02.125,IAT(Formal),2021.2.3,Win32,142.8571429,,,,,,,,,,,,,,,i,1,0.8738,,,,,,轻率,i,,,0,58,58,48,1,,,,,,,,,,,,,,,,,,,,,,,,,,,,,,,,,,
,,,,,,,,,,,,,,1,001,2025-01-04_21h45.02.125,IAT(Formal),2021.2.3,Win32,142.8571429,,,,,,,,,,,,,,,i,1,0.5398,,,,,,鲁莽,i,,,0,59,59,38,1,,,,,,,,,,,,,,,,,,,,,,,,,,,,,,,,,,
,,,,,,,,,,,,,,1,001,2025-01-04_21h45.02.125,IAT(Formal),2021.2.3,Win32,142.8571429,,,,,,,,,,,,,,,i,1,0.5623,,,,,,悲观,i,,,0,60,60,34,1,,,,,,,,,,,,,,,,,,,,,,,,,,,,,,,,,,
,,,,,,,,,,,,,,1,001,2025-01-04_21h45.02.125,IAT(Formal),2021.2.3,Win32,142.8571429,,,,,,,,,,,,,,,i,0,0.4874,,,,,,无私,e,,,0,61,61,22,1,,,,,,,,,,,,,,,,,,,,,,,,,,,,,,,,,,
,,,,,,,,,,,,,,1,001,2025-01-04_21h45.02.125,IAT(Formal),2021.2.3,Win32,142.8571429,,,,,,,,,,,,,,,i,1,0.7291,,,,,,自卑,i,,,0,62,62,36,1,,,,,,,,,,,,,,,,,,,,,,,,,,,,,,,,,,
,,,,,,,,,,,,,,1,001,2025-01-04_21h45.02.125,IAT(Formal),2021.2.3,Win32,142.8571429,,,,,,,,,,,,,,,i,1,0.5693,,,,,,他,i,,,0,63,63,55,1,,,,,,,,,,,,,,,,,,,,,,,,,,,,,,,,,,
,,,,,,,,,,,,,,1,001,2025-01-04_21h45.02.125,IAT(Formal),2021.2.3,Win32,142.8571429,,,,,,,,,,,,,,,e,1,0.6935,,,,,,正直,e,,,0,64,64,16,1,,,,,,,,,,,,,,,,,,,,,,,,,,,,,,,,,,
,,,,,,,,,,,,,,1,001,2025-01-04_21h45.02.125,IAT(Formal),2021.2.3,Win32,142.8571429,,,,,,,,,,,,,,,e,1,0.737,,,,,,勇敢,e,,,0,65,65,17,1,,,,,,,,,,,,,,,,,,,,,,,,,,,,,,,,,,
,,,,,,,,,,,,,,1,001,2025-01-04_21h45.02.125,IAT(Formal),2021.2.3,Win32,142.8571429,,,,,,,,,,,,,,,e,1,0.5694,,,,,,聪明,e,,,0,66,66,12,1,,,,,,,,,,,,,,,,,,,,,,,,,,,,,,,,,,
,,,,,,,,,,,,,,1,001,2025-01-04_21h45.02.125,IAT(Formal),2021.2.3,Win32,142.8571429,,,,,,,,,,,,,,,i,1,0.5758,,,,,,虚伪,i,,,0,67,67,31,1,,,,,,,,,,,,,,,,,,,,,,,,,,,,,,,,,,
,,,,,,,,,,,,,,1,001,2025-01-04_21h45.02.125,IAT(Formal),2021.2.3,Win32,142.8571429,,,,,,,,,,,,,,,e,1,0.6172,,,,,,我们,e,,,0,68,68,2,1,,,,,,,,,,,,,,,,,,,,,,,,,,,,,,,,,,
,,,,,,,,,,,,,,1,001,2025-01-04_21h45.02.125,IAT(Formal),2021.2.3,Win32,142.8571429,,,,,,,,,,,,,,,i,1,0.7083,,,,,,他们,i,,,0,69,69,66,1,,,,,,,,,,,,,,,,,,,,,,,,,,,,,,,,,,
,,,,,,,,,,,,,,1,001,2025-01-04_21h45.02.125,IAT(Formal),2021.2.3,Win32,142.8571429,,,,,,,,,,,,,,,i,1,0.5483,,,,,,消极,i,,,0,70,70,35,1,,,,,,,,,,,,,,,,,,,,,,,,,,,,,,,,,,
,,,,,,,,,,,,,,1,001,2025-01-04_21h45.02.125,IAT(Formal),2021.2.3,Win32,142.8571429,,,,,,,,,,,,,,,e,1,0.5893,,,,,,自己,e,,,0,71,71,53,1,,,,,,,,,,,,,,,,,,,,,,,,,,,,,,,,,,
,,,,,,,,,,,,,,1,001,2025-01-04_21h45.02.125,IAT(Formal),2021.2.3,Win32,142.8571429,,,,,,,,,,,,,,,e,1,0.6481,,,,,,俺,e,,,0,72,72,54,1,,,,,,,,,,,,,,,,,,,,,,,,,,,,,,,,,,
,,,,,,,,,,,,,,1,001,2025-01-04_21h45.02.125,IAT(Formal),2021.2.3,Win32,142.8571429,,,,,,,,,,,,,,,i,1,0.537,,,,,,其他,i,,,0,73,73,59,1,,,,,,,,,,,,,,,,,,,,,,,,,,,,,,,,,,
,,,,,,,,,,,,,,1,001,2025-01-04_21h45.02.125,IAT(Formal),2021.2.3,Win32,142.8571429,,,,,,,,,,,,,,,e,1,0.5693,,,,,,自己,e,,,0,74,74,3,1,,,,,,,,,,,,,,,,,,,,,,,,,,,,,,,,,,
,,,,,,,,,,,,,,1,001,2025-01-04_21h45.02.125,IAT(Formal),2021.2.3,Win32,142.8571429,,,,,,,,,,,,,,,i,1,0.6236,,,,,,他的,i,,,0,75,75,77,1,,,,,,,,,,,,,,,,,,,,,,,,,,,,,,,,,,
,,,,,,,,,,,,,,1,001,2025-01-04_21h45.02.125,IAT(Formal),2021.2.3,Win32,142.8571429,,,,,,,,,,,,,,,i,1,1.0185,,,,,,野蛮,i,,,0,76,76,46,1,,,,,,,,,,,,,,,,,,,,,,,,,,,,,,,,,,
,,,,,,,,,,,,,,1,001,2025-01-04_21h45.02.125,IAT(Formal),2021.2.3,Win32,142.8571429,,,,,,,,,,,,,,,i,1,0.9644,,,,,,他人,i,,,0,77,77,8,1,,,,,,,,,,,,,,,,,,,,,,,,,,,,,,,,,,
,,,,,,,,,,,,,,1,001,2025-01-04_21h45.02.125,IAT(Formal),2021.2.3,Win32,142.8571429,,,,,,,,,,,,,,,i,1,0.43,,,,,,他们,i,,,0,78,78,76,1,,,,,,,,,,,,,,,,,,,,,,,,,,,,,,,,,,
,,,,,,,,,,,,,,1,001,2025-01-04_21h45.02.125,IAT(Formal),2021.2.3,Win32,142.8571429,,,,,,,,,,,,,,,e,1,0.6591,,,,,,我,e,,,0,79,79,0,1,,,,,,,,,,,,,,,,,,,,,,,,,,,,,,,,,,
,,,,,,,,,,,,,,1,001,2025-01-04_21h45.02.125,IAT(Formal),2021.2.3,Win32,142.8571429,,,,,,,,,,,,,,,e,1,0.6594,,,,,,自己,e,,,1,0,80,63,1,,,,,,,,,,,,,,,,,,,,,,,,,,,,,,,,,,
,,,,,,,,,,,,,,1,001,2025-01-04_21h45.02.125,IAT(Formal),2021.2.3,Win32,142.8571429,,,,,,,,,,,,,,,e,1,0.5548,,,,,,俺,e,,,1,1,81,4,1,,,,,,,,,,,,,,,,,,,,,,,,,,,,,,,,,,
,,,,,,,,,,,,,,1,001,2025-01-04_21h45.02.125,IAT(Formal),2021.2.3,Win32,142.8571429,,,,,,,,,,,,,,,e,1,0.4372,,,,,,我,e,,,1,2,82,70,1,,,,,,,,,,,,,,,,,,,,,,,,,,,,,,,,,,
,,,,,,,,,,,,,,1,001,2025-01-04_21h45.02.125,IAT(Formal),2021.2.3,Win32,142.8571429,,,,,,,,,,,,,,,i,1,0.5482,,,,,,刻薄,i,,,1,3,83,33,1,,,,,,,,,,,,,,,,,,,,,,,,,,,,,,,,,,
,,,,,,,,,,,,,,1,001,2025-01-04_21h45.02.125,IAT(Formal),2021.2.3,Win32,142.8571429,,,,,,,,,,,,,,,e,0,0.6945,,,,,,他,i,,,1,4,84,75,1,,,,,,,,,,,,,,,,,,,,,,,,,,,,,,,,,,
,,,,,,,,,,,,,,1,001,2025-01-04_21h45.02.125,IAT(Formal),2021.2.3,Win32,142.8571429,,,,,,,,,,,,,,,i,1,0.5133,,,,,,他的,i,,,1,5,85,77,1,,,,,,,,,,,,,,,,,,,,,,,,,,,,,,,,,,
,,,,,,,,,,,,,,1,001,2025-01-04_21h45.02.125,IAT(Formal),2021.2.3,Win32,142.8571429,,,,,,,,,,,,,,,i,1,0.554,,,,,,暴躁,i,,,1,6,86,44,1,,,,,,,,,,,,,,,,,,,,,,,,,,,,,,,,,,
,,,,,,,,,,,,,,1,001,2025-01-04_21h45.02.125,IAT(Formal),2021.2.3,Win32,142.8571429,,,,,,,,,,,,,,,e,1,0.6591,,,,,,杰出,e,,,1,7,87,13,1,,,,,,,,,,,,,,,,,,,,,,,,,,,,,,,,,,
,,,,,,,,,,,,,,1,001,2025-01-04_21h45.02.125,IAT(Formal),2021.2.3,Win32,142.8571429,,,,,,,,,,,,,,,i,0,0.6826,,,,,,我的,e,,,1,8,88,1,1,,,,,,,,,,,,,,,,,,,,,,,,,,,,,,,,,,
,,,,,,,,,,,,,,1,001,2025-01-04_21h45.02.125,IAT(Formal),2021.2.3,Win32,142.8571429,,,,,,,,,,,,,,,e,1,0.5201,,,,,,自己,e,,,1,9,89,53,1,,,,,,,,,,,,,,,,,,,,,,,,,,,,,,,,,,
,,,,,,,,,,,,,,1,001,2025-01-04_21h45.02.125,IAT(Formal),2021.2.3,Win32,142.8571429,,,,,,,,,,,,,,,i,1,0.564,,,,,,愚蠢,i,,,1,10,90,32,1,,,,,,,,,,,,,,,,,,,,,,,,,,,,,,,,,,
,,,,,,,,,,,,,,1,001,2025-01-04_21h45.02.125,IAT(Formal),2021.2.3,Win32,142.8571429,,,,,,,,,,,,,,,e,1,0.7151,,,,,,稳重,e,,,1,11,91,21,1,,,,,,,,,,,,,,,,,,,,,,,,,,,,,,,,,,
,,,,,,,,,,,,,,1,001,2025-01-04_21h45.02.125,IAT(Formal),2021.2.3,Win32,142.8571429,,,,,,,,,,,,,,,e,1,0.6109,,,,,,冷静,e,,,1,12,92,26,1,,,,,,,,,,,,,,,,,,,,,,,,,,,,,,,,,,
,,,,,,,,,,,,,,1,001,2025-01-04_21h45.02.125,IAT(Formal),2021.2.3,Win32,142.8571429,,,,,,,,,,,,,,,i,1,0.7377,,,,,,固执,i,,,1,13,93,47,1,,,,,,,,,,,,,,,,,,,,,,,,,,,,,,,,,,
,,,,,,,,,,,,,,1,001,2025-01-04_21h45.02.125,IAT(Formal),2021.2.3,Win32,142.8571429,,,,,,,,,,,,,,,i,1,0.6348,,,,,,凶狠,i,,,1,14,94,42,1,,,,,,,,,,,,,,,,,,,,,,,,,,,,,,,,,,
,,,,,,,,,,,,,,1,001,2025-01-04_21h45.02.125,IAT(Formal),2021.2.3,Win32,142.8571429,,,,,,,,,,,,,,,e,1,0.57,,,,,,崇高,e,,,1,15,95,11,1,,,,,,,,,,,,,,,,,,,,,,,,,,,,,,,,,,
,,,,,,,,,,,,,,1,001,2025-01-04_21h45.02.125,IAT(Formal),2021.2.3,Win32,142.8571429,,,,,,,,,,,,,,,i,1,0.5858,,,,,,他人,i,,,1,16,96,68,1,,,,,,,,,,,,,,,,,,,,,,,,,,,,,,,,,,
,,,,,,,,,,,,,,1,001,2025-01-04_21h45.02.125,IAT(Formal),2021.2.3,Win32,142.8571429,,,,,,,,,,,,,,,i,1,1.3063,,,,,,轻率,i,,,1,17,97,48,1,,,,,,,,,,,,,,,,,,,,,,,,,,,,,,,,,,
,,,,,,,,,,,,,,1,001,2025-01-04_21h45.02.125,IAT(Formal),2021.2.3,Win32,142.8571429,,,,,,,,,,,,,,,i,1,0.5137,,,,,,鲁莽,i,,,1,18,98,38,1,,,,,,,,,,,,,,,,,,,,,,,,,,,,,,,,,,
,,,,,,,,,,,,,,1,001,2025-01-04_21h45.02.125,IAT(Formal),2021.2.3,Win32,142.8571429,,,,,,,,,,,,,,,i,1,0.4744,,,,,,其他,i,,,1,19,99,69,1,,,,,,,,,,,,,,,,,,,,,,,,,,,,,,,,,,
,,,,,,,,,,,,,,1,001,2025-01-04_21h45.02.125,IAT(Formal),2021.2.3,Win32,142.8571429,,,,,,,,,,,,,,,e,1,0.5996,,,,,,我们,e,,,1,20,100,52,1,,,,,,,,,,,,,,,,,,,,,,,,,,,,,,,,,,
,,,,,,,,,,,,,,1,001,2025-01-04_21h45.02.125,IAT(Formal),2021.2.3,Win32,142.8571429,,,,,,,,,,,,,,,e,1,0.7635,,,,,,优秀,e,,,1,21,101,10,1,,,,,,,,,,,,,,,,,,,,,,,,,,,,,,,,,,
,,,,,,,,,,,,,,1,001,2025-01-04_21h45.02.125,IAT(Formal),2021.2.3,Win32,142.8571429,,,,,,,,,,,,,,,i,1,0.5779,,,,,,卑鄙,i,,,1,22,102,30,1,,,,,,,,,,,,,,,,,,,,,,,,,,,,,,,,,,
,,,,,,,,,,,,,,1,001,2025-01-04_21h45.02.125,IAT(Formal),2021.2.3,Win32,142.8571429,,,,,,,,,,,,,,,i,1,0.466,,,,,,野蛮,i,,,1,23,103,46,1,,,,,,,,,,,,,,,,,,,,,,,,,,,,,,,,,,
,,,,,,,,,,,,,,1,001,2025-01-04_21h45.02.125,IAT(Formal),2021.2.3,Win32,142.8571429,,,,,,,,,,,,,,,i,1,0.9929,,,,,,他们,i,,,1,24,104,56,1,,,,,,,,,,,,,,,,,,,,,,,,,,,,,,,,,,
,,,,,,,,,,,,,,1,001,2025-01-04_21h45.02.125,IAT(Formal),2021.2.3,Win32,142.8571429,,,,,,,,,,,,,,,e,1,0.729,,,,,,我,e,,,1,25,105,0,1,,,,,,,,,,,,,,,,,,,,,,,,,,,,,,,,,,
,,,,,,,,,,,,,,1,001,2025-01-04_21h45.02.125,IAT(Formal),2021.2.3,Win32,142.8571429,,,,,,,,,,,,,,,i,1,0.728,,,,,,他的,i,,,1,26,106,7,1,,,,,,,,,,,,,,,,,,,,,,,,,,,,,,,,,,
,,,,,,,,,,,,,,1,001,2025-01-04_21h45.02.125,IAT(Formal),2021.2.3,Win32,142.8571429,,,,,,,,,,,,,,,i,1,0.4506,,,,,,他的,i,,,1,27,107,67,1,,,,,,,,,,,,,,,,,,,,,,,,,,,,,,,,,,
,,,,,,,,,,,,,,1,001,2025-01-04_21h45.02.125,IAT(Formal),2021.2.3,Win32,142.8571429,,,,,,,,,,,,,,,e,1,0.6946,,,,,,诚恳,e,,,1,28,108,29,1,,,,,,,,,,,,,,,,,,,,,,,,,,,,,,,,,,
,,,,,,,,,,,,,,1,001,2025-01-04_21h45.02.125,IAT(Formal),2021.2.3,Win32,142.8571429,,,,,,,,,,,,,,,e,1,0.8814,,,,,,聪明,e,,,1,29,109,12,1,,,,,,,,,,,,,,,,,,,,,,,,,,,,,,,,,,
,,,,,,,,,,,,,,1,001,2025-01-04_21h45.02.125,IAT(Formal),2021.2.3,Win32,142.8571429,,,,,,,,,,,,,,,i,1,0.6111,,,,,,他的,i,,,1,30,110,57,1,,,,,,,,,,,,,,,,,,,,,,,,,,,,,,,,,,
,,,,,,,,,,,,,,1,001,2025-01-04_21h45.02.125,IAT(Formal),2021.2.3,Win32,142.8571429,,,,,,,,,,,,,,,e,1,0.7708,,,,,,自己,e,,,1,31,111,3,1,,,,,,,,,,,,,,,,,,,,,,,,,,,,,,,,,,
,,,,,,,,,,,,,,1,001,2025-01-04_21h45.02.125,IAT(Formal),2021.2.3,Win32,142.8571429,,,,,,,,,,,,,,,i,1,1.0347,,,,,,其他,i,,,1,32,112,79,1,,,,,,,,,,,,,,,,,,,,,,,,,,,,,,,,,,
,,,,,,,,,,,,,,1,001,2025-01-04_21h45.02.125,IAT(Formal),2021.2.3,Win32,142.8571429,,,,,,,,,,,,,,,i,1,0.6458,,,,,,他们,i,,,1,33,113,66,1,,,,,,,,,,,,,,,,,,,,,,,,,,,,,,,,,,
,,,,,,,,,,,,,,1,001,2025-01-04_21h45.02.125,IAT(Formal),2021.2.3,Win32,142.8571429,,,,,,,,,,,,,,,e,1,0.6106,,,,,,机智,e,,,1,34,114,19,1,,,,,,,,,,,,,,,,,,,,,,,,,,,,,,,,,,
,,,,,,,,,,,,,,1,001,2025-01-04_21h45.02.125,IAT(Formal),2021.2.3,Win32,142.8571429,,,,,,,,,,,,,,,e,1,0.6388,,,,,,自己,e,,,1,35,115,73,1,,,,,,,,,,,,,,,,,,,,,,,,,,,,,,,,,,
,,,,,,,,,,,,,,1,001,2025-01-04_21h45.02.125,IAT(Formal),2021.2.3,Win32,142.8571429,,,,,,,,,,,,,,,e,1,0.3595,,,,,,我的,e,,,1,36,116,61,1,,,,,,,,,,,,,,,,,,,,,,,,,,,,,,,,,,
,,,,,,,,,,,,,,1,001,2025-01-04_21h45.02.125,IAT(Formal),2021.2.3,Win32,142.8571429,,,,,,,,,,,,,,,i,1,0.8202,,,,,,虚伪,i,,,1,37,117,31,1,,,,,,,,,,,,,,,,,,,,,,,,,,,,,,,,,,
,,,,,,,,,,,,,,1,001,2025-01-04_21h45.02.125,IAT(Formal),2021.2.3,Win32,142.8571429,,,,,,,,,,,,,,,i,1,0.8201,,,,,,其他,i,,,1,38,118,9,1,,,,,,,,,,,,,,,,,,,,,,,,,,,,,,,,,,
,,,,,,,,,,,,,,1,001,2025-01-04_21h45.02.125,IAT(Formal),2021.2.3,Win32,142.8571429,,,,,,,,,,,,,,,e,1,0.5702,,,,,,我们,e,,,1,39,119,72,1,,,,,,,,,,,,,,,,,,,,,,,,,,,,,,,,,,
,,,,,,,,,,,,,,1,001,2025-01-04_21h45.02.125,IAT(Formal),2021.2.3,Win32,142.8571429,,,,,,,,,,,,,,,e,1,0.4379,,,,,,我们,e,,,1,40,120,62,1,,,,,,,,,,,,,,,,,,,,,,,,,,,,,,,,,,
,,,,,,,,,,,,,,1,001,2025-01-04_21h45.02.125,IAT(Formal),2021.2.3,Win32,142.8571429,,,,,,,,,,,,,,,e,1,0.6386,,,,,,正直,e,,,1,41,121,16,1,,,,,,,,,,,,,,,,,,,,,,,,,,,,,,,,,,
,,,,,,,,,,,,,,1,001,2025-01-04_21h45.02.125,IAT(Formal),2021.2.3,Win32,142.8571429,,,,,,,,,,,,,,,e,1,0.5621,,,,,,乐观,e,,,1,42,122,14,1,,,,,,,,,,,,,,,,,,,,,,,,,,,,,,,,,,
,,,,,,,,,,,,,,1,001,2025-01-04_21h45.02.125,IAT(Formal),2021.2.3,Win32,142.8571429,,,,,,,,,,,,,,,i,1,0.5828,,,,,,他人,i,,,1,43,123,78,1,,,,,,,,,,,,,,,,,,,,,,,,,,,,,,,,,,
,,,,,,,,,,,,,,1,001,2025-01-04_21h45.02.125,IAT(Formal),2021.2.3,Win32,142.8571429,,,,,,,,,,,,,,,i,1,0.4382,,,,,,他,i,,,1,44,124,5,1,,,,,,,,,,,,,,,,,,,,,,,,,,,,,,,,,,
,,,,,,,,,,,,,,1,001,2025-01-04_21h45.02.125,IAT(Formal),2021.2.3,Win32,142.8571429,,,,,,,,,,,,,,,i,0,0.4074,,,,,,俺,e,,,1,45,125,74,1,,,,,,,,,,,,,,,,,,,,,,,,,,,,,,,,,,
,,,,,,,,,,,,,,1,001,2025-01-04_21h45.02.125,IAT(Formal),2021.2.3,Win32,142.8571429,,,,,,,,,,,,,,,e,1,0.6661,,,,,,朴实,e,,,1,46,126,24,1,,,,,,,,,,,,,,,,,,,,,,,,,,,,,,,,,,
,,,,,,,,,,,,,,1,001,2025-01-04_21h45.02.125,IAT(Formal),2021.2.3,Win32,142.8571429,,,,,,,,,,,,,,,e,1,0.5757,,,,,,细腻,e,,,1,47,127,25,1,,,,,,,,,,,,,,,,,,,,,,,,,,,,,,,,,,
,,,,,,,,,,,,,,1,001,2025-01-04_21h45.02.125,IAT(Formal),2021.2.3,Win32,142.8571429,,,,,,,,,,,,,,,i,1,0.6101,,,,,,他们,i,,,1,48,128,76,1,,,,,,,,,,,,,,,,,,,,,,,,,,,,,,,,,,
,,,,,,,,,,,,,,1,001,2025-01-04_21h45.02.125,IAT(Formal),2021.2.3,Win32,142.8571429,,,,,,,,,,,,,,,e,1,0.597,,,,,,热情,e,,,1,49,129,27,1,,,,,,,,,,,,,,,,,,,,,,,,,,,,,,,,,,
,,,,,,,,,,,,,,1,001,2025-01-04_21h45.02.125,IAT(Formal),2021.2.3,Win32,142.8571429,,,,,,,,,,,,,,,e,1,0.6598,,,,,,诚实,e,,,1,50,130,15,1,,,,,,,,,,,,,,,,,,,,,,,,,,,,,,,,,,
,,,,,,,,,,,,,,1,001,2025-01-04_21h45.02.125,IAT(Formal),2021.2.3,Win32,142.8571429,,,,,,,,,,,,,,,e,1,0.6758,,,,,,我的,e,,,1,51,131,51,1,,,,,,,,,,,,,,,,,,,,,,,,,,,,,,,,,,
,,,,,,,,,,,,,,1,001,2025-01-04_21h45.02.125,IAT(Formal),2021.2.3,Win32,142.8571429,,,,,,,,,,,,,,,i,1,1.2493,,,,,,傲慢,i,,,1,52,132,37,1,,,,,,,,,,,,,,,,,,,,,,,,,,,,,,,,,,
,,,,,,,,,,,,,,1,001,2025-01-04_21h45.02.125,IAT(Formal),2021.2.3,Win32,142.8571429,,,,,,,,,,,,,,,e,1,0.5488,,,,,,俺,e,,,1,53,133,64,1,,,,,,,,,,,,,,,,,,,,,,,,,,,,,,,,,,
,,,,,,,,,,,,,,1,001,2025-01-04_21h45.02.125,IAT(Formal),2021.2.3,Win32,142.8571429,,,,,,,,,,,,,,,i,1,0.721,,,,,,消极,i,,,1,54,134,35,1,,,,,,,,,,,,,,,,,,,,,,,,,,,,,,,,,,
,,,,,,,,,,,,,,1,001,2025-01-04_21h45.02.125,IAT(Formal),2021.2.3,Win32,142.8571429,,,,,,,,,,,,,,,e,1,0.8482,,,,,,俺,e,,,1,55,135,54,1,,,,,,,,,,,,,,,,,,,,,,,,,,,,,,,,,,
,,,,,,,,,,,,,,1,001,2025-01-04_21h45.02.125,IAT(Formal),2021.2.3,Win32,142.8571429,,,,,,,,,,,,,,,e,1,0.6617,,,,,,认真,e,,,1,56,136,20,1,,,,,,,,,,,,,,,,,,,,,,,,,,,,,,,,,,
,,,,,,,,,,,,,,1,001,2025-01-04_21h45.02.125,IAT(Formal),2021.2.3,Win32,142.8571429,,,,,,,,,,,,,,,e,1,0.5018,,,,,,我,e,,,1,57,137,50,1,,,,,,,,,,,,,,,,,,,,,,,,,,,,,,,,,,
,,,,,,,,,,,,,,1,001,2025-01-04_21h45.02.125,IAT(Formal),2021.2.3,Win32,142.8571429,,,,,,,,,,,,,,,e,1,0.4793,,,,,,活泼,e,,,1,58,138,28,1,,,,,,,,,,,,,,,,,,,,,,,,,,,,,,,,,,
,,,,,,,,,,,,,,1,001,2025-01-04_21h45.02.125,IAT(Formal),2021.2.3,Win32,142.8571429,,,,,,,,,,,,,,,i,1,0.7986,,,,,,自私,i,,,1,59,139,43,1,,,,,,,,,,,,,,,,,,,,,,,,,,,,,,,,,,
,,,,,,,,,,,,,,1,001,2025-01-04_21h45.02.125,IAT(Formal),2021.2.3,Win32,142.8571429,,,,,,,,,,,,,,,i,1,0.5834,,,,,,他,i,,,1,60,140,55,1,,,,,,,,,,,,,,,,,,,,,,,,,,,,,,,,,,
,,,,,,,,,,,,,,1,001,2025-01-04_21h45.02.125,IAT(Formal),2021.2.3,Win32,142.8571429,,,,,,,,,,,,,,,e,1,0.5546,,,,,,公正,e,,,1,61,141,23,1,,,,,,,,,,,,,,,,,,,,,,,,,,,,,,,,,,
,,,,,,,,,,,,,,1,001,2025-01-04_21h45.02.125,IAT(Formal),2021.2.3,Win32,142.8571429,,,,,,,,,,,,,,,i,1,0.6194,,,,,,他们,i,,,1,62,142,6,1,,,,,,,,,,,,,,,,,,,,,,,,,,,,,,,,,,
,,,,,,,,,,,,,,1,001,2025-01-04_21h45.02.125,IAT(Formal),2021.2.3,Win32,142.8571429,,,,,,,,,,,,,,,i,1,0.6804,,,,,,冒失,i,,,1,63,143,39,1,,,,,,,,,,,,,,,,,,,,,,,,,,,,,,,,,,
,,,,,,,,,,,,,,1,001,2025-01-04_21h45.02.125,IAT(Formal),2021.2.3,Win32,142.8571429,,,,,,,,,,,,,,,i,1,0.6527,,,,,,下贱,i,,,1,64,144,49,1,,,,,,,,,,,,,,,,,,,,,,,,,,,,,,,,,,
,,,,,,,,,,,,,,1,001,2025-01-04_21h45.02.125,IAT(Formal),2021.2.3,Win32,142.8571429,,,,,,,,,,,,,,,e,1,0.5975,,,,,,我,e,,,1,65,145,60,1,,,,,,,,,,,,,,,,,,,,,,,,,,,,,,,,,,
,,,,,,,,,,,,,,1,001,2025-01-04_21h45.02.125,IAT(Formal),2021.2.3,Win32,142.8571429,,,,,,,,,,,,,,,e,1,0.5964,,,,,,我的,e,,,1,66,146,71,1,,,,,,,,,,,,,,,,,,,,,,,,,,,,,,,,,,
,,,,,,,,,,,,,,1,001,2025-01-04_21h45.02.125,IAT(Formal),2021.2.3,Win32,142.8571429,,,,,,,,,,,,,,,i,1,0.604,,,,,,执拗,i,,,1,67,147,40,1,,,,,,,,,,,,,,,,,,,,,,,,,,,,,,,,,,
,,,,,,,,,,,,,,1,001,2025-01-04_21h45.02.125,IAT(Formal),2021.2.3,Win32,142.8571429,,,,,,,,,,,,,,,i,1,0.8817,,,,,,猖狂,i,,,1,68,148,45,1,,,,,,,,,,,,,,,,,,,,,,,,,,,,,,,,,,
,,,,,,,,,,,,,,1,001,2025-01-04_21h45.02.125,IAT(Formal),2021.2.3,Win32,142.8571429,,,,,,,,,,,,,,,i,1,0.5516,,,,,,他人,i,,,1,69,149,58,1,,,,,,,,,,,,,,,,,,,,,,,,,,,,,,,,,,
,,,,,,,,,,,,,,1,001,2025-01-04_21h45.02.125,IAT(Formal),2021.2.3,Win32,142.8571429,,,,,,,,,,,,,,,i,1,0.5898,,,,,,他,i,,,1,70,150,65,1,,,,,,,,,,,,,,,,,,,,,,,,,,,,,,,,,,
,,,,,,,,,,,,,,1,001,2025-01-04_21h45.02.125,IAT(Formal),2021.2.3,Win32,142.8571429,,,,,,,,,,,,,,,i,1,0.825,,,,,,散漫,i,,,1,71,151,41,1,,,,,,,,,,,,,,,,,,,,,,,,,,,,,,,,,,
,,,,,,,,,,,,,,1,001,2025-01-04_21h45.02.125,IAT(Formal),2021.2.3,Win32,142.8571429,,,,,,,,,,,,,,,i,0,0.7315,,,,,,勇敢,e,,,1,72,152,17,1,,,,,,,,,,,,,,,,,,,,,,,,,,,,,,,,,,
,,,,,,,,,,,,,,1,001,2025-01-04_21h45.02.125,IAT(Formal),2021.2.3,Win32,142.8571429,,,,,,,,,,,,,,,i,1,0.6939,,,,,,其他,i,,,1,73,153,59,1,,,,,,,,,,,,,,,,,,,,,,,,,,,,,,,,,,
,,,,,,,,,,,,,,1,001,2025-01-04_21h45.02.125,IAT(Formal),2021.2.3,Win32,142.8571429,,,,,,,,,,,,,,,i,1,0.6187,,,,,,悲观,i,,,1,74,154,34,1,,,,,,,,,,,,,,,,,,,,,,,,,,,,,,,,,,
,,,,,,,,,,,,,,1,001,2025-01-04_21h45.02.125,IAT(Formal),2021.2.3,Win32,142.8571429,,,,,,,,,,,,,,,i,1,0.5209,,,,,,自卑,i,,,1,75,155,36,1,,,,,,,,,,,,,,,,,,,,,,,,,,,,,,,,,,
,,,,,,,,,,,,,,1,001,2025-01-04_21h45.02.125,IAT(Formal),2021.2.3,Win32,142.8571429,,,,,,,,,,,,,,,i,1,0.4252,,,,,,他人,i,,,1,76,156,8,1,,,,,,,,,,,,,,,,,,,,,,,,,,,,,,,,,,
,,,,,,,,,,,,,,1,001,2025-01-04_21h45.02.125,IAT(Formal),2021.2.3,Win32,142.8571429,,,,,,,,,,,,,,,i,0,0.4105,,,,,,无私,e,,,1,77,157,22,1,,,,,,,,,,,,,,,,,,,,,,,,,,,,,,,,,,
,,,,,,,,,,,,,,1,001,2025-01-04_21h45.02.125,IAT(Formal),2021.2.3,Win32,142.8571429,,,,,,,,,,,,,,,e,1,0.6614,,,,,,我们,e,,,1,78,158,2,1,,,,,,,,,,,,,,,,,,,,,,,,,,,,,,,,,,
,,,,,,,,,,,,,,1,001,2025-01-04_21h45.02.125,IAT(Formal),2021.2.3,Win32,142.8571429,,,,,,,,,,,,,,,e,1,0.4504,,,,,,勤奋,e,,,1,79,159,18,1,,,,,,,,,,,,,,,,,,,,,,,,,,,,,,,,,,
,,,,,,,,,,,,我们,i,1,001,2025-01-04_21h45.02.125,IAT(Formal),2021.2.3,Win32,142.8571429,,,,,,,,,,,,,,,,,,,,,,,,,,,,,,,,space,11.6737,i,1,0.4166,0,0,0,2,1,,,,,,,,,,,,,,,,,,,,,,,,
,,,,,,,,,,,,我,i,1,001,2025-01-04_21h45.02.125,IAT(Formal),2021.2.3,Win32,142.8571429,,,,,,,,,,,,,,,,,,,,,,,,,,,,,,,,,,i,1,0.3789,0,1,1,0,1,,,,,,,,,,,,,,,,,,,,,,,,
,,,,,,,,,,,,俺,i,1,001,2025-01-04_21h45.02.125,IAT(Formal),2021.2.3,Win32,142.8571429,,,,,,,,,,,,,,,,,,,,,,,,,,,,,,,,,,i,1,0.7004,0,2,2,4,1,,,,,,,,,,,,,,,,,,,,,,,,
,,,,,,,,,,,,他,e,1,001,2025-01-04_21h45.02.125,IAT(Formal),2021.2.3,Win32,142.8571429,,,,,,,,,,,,,,,,,,,,,,,,,,,,,,,,,,e,1,0.8601,0,3,3,5,1,,,,,,,,,,,,,,,,,,,,,,,,
,,,,,,,,,,,,他们,e,1,001,2025-01-04_21h45.02.125,IAT(Formal),2021.2.3,Win32,142.8571429,,,,,,,,,,,,,,,,,,,,,,,,,,,,,,,,,,e,1,0.6595,0,4,4,6,1,,,,,,,,,,,,,,,,,,,,,,,,
,,,,,,,,,,,,他的,e,1,001,2025-01-04_21h45.02.125,IAT(Formal),2021.2.3,Win32,142.8571429,,,,,,,,,,,,,,,,,,,,,,,,,,,,,,,,,,e,1,0.6189,0,5,5,7,1,,,,,,,,,,,,,,,,,,,,,,,,
,,,,,,,,,,,,他人,e,1,001,2025-01-04_21h45.02.125,IAT(Formal),2021.2.3,Win32,142.8571429,,,,,,,,,,,,,,,,,,,,,,,,,,,,,,,,,,e,1,0.4929,0,6,6,8,1,,,,,,,,,,,,,,,,,,,,,,,,
,,,,,,,,,,,,自己,i,1,001,2025-01-04_21h45.02.125,IAT(Formal),2021.2.3,Win32,142.8571429,,,,,,,,,,,,,,,,,,,,,,,,,,,,,,,,,,i,1,0.6186,0,7,7,3,1,,,,,,,,,,,,,,,,,,,,,,,,
,,,,,,,,,,,,其他,e,1,001,2025-01-04_21h45.02.125,IAT(Formal),2021.2.3,Win32,142.8571429,,,,,,,,,,,,,,,,,,,,,,,,,,,,,,,,,,e,1,0.5895,0,8,8,9,1,,,,,,,,,,,,,,,,,,,,,,,,
,,,,,,,,,,,,我的,i,1,001,2025-01-04_21h45.02.125,IAT(Formal),2021.2.3,Win32,142.8571429,,,,,,,,,,,,,,,,,,,,,,,,,,,,,,,,,,i,1,0.7511,0,9,9,1,1,,,,,,,,,,,,,,,,,,,,,,,,
,,,,,,,,,,,,,,1,001,2025-01-04_21h45.02.125,IAT(Formal),2021.2.3,Win32,142.8571429,,,,,,,,,,,,,,,,,,,,,,,,,,,,,,,,,,,,,,,,,,space,7.4551,i,1,0.5907,0,0,0,34,1,悲观,i,,,,,,,,,,,,
,,,,,,,,,,,,,,1,001,2025-01-04_21h45.02.125,IAT(Formal),2021.2.3,Win32,142.8571429,,,,,,,,,,,,,,,,,,,,,,,,,,,,,,,,,,,,,,,,,,,,i,1,0.6864,0,1,1,45,1,猖狂,i,,,,,,,,,,,,
,,,,,,,,,,,,,,1,001,2025-01-04_21h45.02.125,IAT(Formal),2021.2.3,Win32,142.8571429,,,,,,,,,,,,,,,,,,,,,,,,,,,,,,,,,,,,,,,,,,,,i,1,0.7915,0,2,2,72,1,我们,i,,,,,,,,,,,,
,,,,,,,,,,,,,,1,001,2025-01-04_21h45.02.125,IAT(Formal),2021.2.3,Win32,142.8571429,,,,,,,,,,,,,,,,,,,,,,,,,,,,,,,,,,,,,,,,,,,,e,1,0.5556,0,3,3,8,1,他人,e,,,,,,,,,,,,
,,,,,,,,,,,,,,1,001,2025-01-04_21h45.02.125,IAT(Formal),2021.2.3,Win32,142.8571429,,,,,,,,,,,,,,,,,,,,,,,,,,,,,,,,,,,,,,,,,,,,i,1,0.8818,0,4,4,40,1,执拗,i,,,,,,,,,,,,
,,,,,,,,,,,,,,1,001,2025-01-04_21h45.02.125,IAT(Formal),2021.2.3,Win32,142.8571429,,,,,,,,,,,,,,,,,,,,,,,,,,,,,,,,,,,,,,,,,,,,i,1,0.4251,0,5,5,3,1,自己,i,,,,,,,,,,,,
,,,,,,,,,,,,,,1,001,2025-01-04_21h45.02.125,IAT(Formal),2021.2.3,Win32,142.8571429,,,,,,,,,,,,,,,,,,,,,,,,,,,,,,,,,,,,,,,,,,,,i,1,0.4514,0,6,6,73,1,自己,i,,,,,,,,,,,,
,,,,,,,,,,,,,,1,001,2025-01-04_21h45.02.125,IAT(Formal),2021.2.3,Win32,142.8571429,,,,,,,,,,,,,,,,,,,,,,,,,,,,,,,,,,,,,,,,,,,,i,0,0.8189,0,7,7,25,1,细腻,e,,,,,,,,,,,,
,,,,,,,,,,,,,,1,001,2025-01-04_21h45.02.125,IAT(Formal),2021.2.3,Win32,142.8571429,,,,,,,,,,,,,,,,,,,,,,,,,,,,,,,,,,,,,,,,,,,,i,1,0.6465,0,8,8,43,1,自私,i,,,,,,,,,,,,
,,,,,,,,,,,,,,1,001,2025-01-04_21h45.02.125,IAT(Formal),2021.2.3,Win32,142.8571429,,,,,,,,,,,,,,,,,,,,,,,,,,,,,,,,,,,,,,,,,,,,i,1,0.3271,0,9,9,53,1,自己,i,,,,,,,,,,,,
,,,,,,,,,,,,,,1,001,2025-01-04_21h45.02.125,IAT(Formal),2021.2.3,Win32,142.8571429,,,,,,,,,,,,,,,,,,,,,,,,,,,,,,,,,,,,,,,,,,,,i,1,0.5147,0,10,10,4,1,俺,i,,,,,,,,,,,,
,,,,,,,,,,,,,,1,001,2025-01-04_21h45.02.125,IAT(Formal),2021.2.3,Win32,142.8571429,,,,,,,,,,,,,,,,,,,,,,,,,,,,,,,,,,,,,,,,,,,,e,1,0.8136,0,11,11,29,1,诚恳,e,,,,,,,,,,,,
,,,,,,,,,,,,,,1,001,2025-01-04_21h45.02.125,IAT(Formal),2021.2.3,Win32,142.8571429,,,,,,,,,,,,,,,,,,,,,,,,,,,,,,,,,,,,,,,,,,,,i,0,1.2217,0,12,12,59,1,其他,e,,,,,,,,,,,,
,,,,,,,,,,,,,,1,001,2025-01-04_21h45.02.125,IAT(Formal),2021.2.3,Win32,142.8571429,,,,,,,,,,,,,,,,,,,,,,,,,,,,,,,,,,,,,,,,,,,,i,1,0.564,0,13,13,61,1,我的,i,,,,,,,,,,,,
,,,,,,,,,,,,,,1,001,2025-01-04_21h45.02.125,IAT(Formal),2021.2.3,Win32,142.8571429,,,,,,,,,,,,,,,,,,,,,,,,,,,,,,,,,,,,,,,,,,,,e,1,0.6552,0,14,14,23,1,公正,e,,,,,,,,,,,,
,,,,,,,,,,,,,,1,001,2025-01-04_21h45.02.125,IAT(Formal),2021.2.3,Win32,142.8571429,,,,,,,,,,,,,,,,,,,,,,,,,,,,,,,,,,,,,,,,,,,,i,1,0.6082,0,15,15,41,1,散漫,i,,,,,,,,,,,,
,,,,,,,,,,,,,,1,001,2025-01-04_21h45.02.125,IAT(Formal),2021.2.3,Win32,142.8571429,,,,,,,,,,,,,,,,,,,,,,,,,,,,,,,,,,,,,,,,,,,,i,0,0.6867,0,16,16,18,1,勤奋,e,,,,,,,,,,,,
,,,,,,,,,,,,,,1,001,2025-01-04_21h45.02.125,IAT(Formal),2021.2.3,Win32,142.8571429,,,,,,,,,,,,,,,,,,,,,,,,,,,,,,,,,,,,,,,,,,,,e,1,1.1458,0,17,17,16,1,正直,e,,,,,,,,,,,,
,,,,,,,,,,,,,,1,001,2025-01-04_21h45.02.125,IAT(Formal),2021.2.3,Win32,142.8571429,,,,,,,,,,,,,,,,,,,,,,,,,,,,,,,,,,,,,,,,,,,,e,1,0.5062,0,18,18,13,1,杰出,e,,,,,,,,,,,,
,,,,,,,,,,,,,,1,001,2025-01-04_21h45.02.125,IAT(Formal),2021.2.3,Win32,142.8571429,,,,,,,,,,,,,,,,,,,,,,,,,,,,,,,,,,,,,,,,,,,,i,1,1.1457,0,19,19,2,1,我们,i,,,,,,,,,,,,
,,,,,,,,,,,,,,1,001,2025-01-04_21h45.02.125,IAT(Formal),2021.2.3,Win32,142.8571429,,,,,,,,,,,,,,,,,,,,,,,,,,,,,,,,,,,,,,,,,,,,i,1,0.5359,0,20,20,49,1,下贱,i,,,,,,,,,,,,
,,,,,,,,,,,,,,1,001,2025-01-04_21h45.02.125,IAT(Formal),2021.2.3,Win32,142.8571429,,,,,,,,,,,,,,,,,,,,,,,,,,,,,,,,,,,,,,,,,,,,e,1,0.7566,0,21,21,56,1,他们,e,,,,,,,,,,,,
,,,,,,,,,,,,,,1,001,2025-01-04_21h45.02.125,IAT(Formal),2021.2.3,Win32,142.8571429,,,,,,,,,,,,,,,,,,,,,,,,,,,,,,,,,,,,,,,,,,,,i,1,0.7638,0,22,22,71,1,我的,i,,,,,,,,,,,,
,,,,,,,,,,,,,,1,001,2025-01-04_21h45.02.125,IAT(Formal),2021.2.3,Win32,142.8571429,,,,,,,,,,,,,,,,,,,,,,,,,,,,,,,,,,,,,,,,,,,,e,1,0.7522,0,23,23,75,1,他,e,,,,,,,,,,,,
,,,,,,,,,,,,,,1,001,2025-01-04_21h45.02.125,IAT(Formal),2021.2.3,Win32,142.8571429,,,,,,,,,,,,,,,,,,,,,,,,,,,,,,,,,,,,,,,,,,,,e,1,1.117,0,24,24,14,1,乐观,e,,,,,,,,,,,,
,,,,,,,,,,,,,,1,001,2025-01-04_21h45.02.125,IAT(Formal),2021.2.3,Win32,142.8571429,,,,,,,,,,,,,,,,,,,,,,,,,,,,,,,,,,,,,,,,,,,,e,1,0.8901,0,25,25,27,1,热情,e,,,,,,,,,,,,
,,,,,,,,,,,,,,1,001,2025-01-04_21h45.02.125,IAT(Formal),2021.2.3,Win32,142.8571429,,,,,,,,,,,,,,,,,,,,,,,,,,,,,,,,,,,,,,,,,,,,i,0,1.1319,0,26,26,17,1,勇敢,e,,,,,,,,,,,,
,,,,,,,,,,,,,,1,001,2025-01-04_21h45.02.125,IAT(Formal),2021.2.3,Win32,142.8571429,,,,,,,,,,,,,,,,,,,,,,,,,,,,,,,,,,,,,,,,,,,,e,1,0.7561,0,27,27,5,1,他,e,,,,,,,,,,,,
,,,,,,,,,,,,,,1,001,2025-01-04_21h45.02.125,IAT(Formal),2021.2.3,Win32,142.8571429,,,,,,,,,,,,,,,,,,,,,,,,,,,,,,,,,,,,,,,,,,,,e,1,0.3617,0,28,28,65,1,他,e,,,,,,,,,,,,
,,,,,,,,,,,,,,1,001,2025-01-04_21h45.02.125,IAT(Formal),2021.2.3,Win32,142.8571429,,,,,,,,,,,,,,,,,,,,,,,,,,,,,,,,,,,,,,,,,,,,e,1,0.3623,0,29,29,58,1,他人,e,,,,,,,,,,,,
,,,,,,,,,,,,,,1,001,2025-01-04_21h45.02.125,IAT(Formal),2021.2.3,Win32,142.8571429,,,,,,,,,,,,,,,,,,,,,,,,,,,,,,,,,,,,,,,,,,,,e,0,0.336,0,30,30,64,1,俺,i,,,,,,,,,,,,
,,,,,,,,,,,,,,1,001,2025-01-04_21h45.02.125,IAT(Formal),2021.2.3,Win32,142.8571429,,,,,,,,,,,,,,,,,,,,,,,,,,,,,,,,,,,,,,,,,,,,e,1,0.6254,0,31,31,21,1,稳重,e,,,,,,,,,,,,
,,,,,,,,,,,,,,1,001,2025-01-04_21h45.02.125,IAT(Formal),2021.2.3,Win32,142.8571429,,,,,,,,,,,,,,,,,,,,,,,,,,,,,,,,,,,,,,,,,,,,i,1,0.6614,0,32,32,54,1,俺,i,,,,,,,,,,,,
,,,,,,,,,,,,,,1,001,2025-01-04_21h45.02.125,IAT(Formal),2021.2.3,Win32,142.8571429,,,,,,,,,,,,,,,,,,,,,,,,,,,,,,,,,,,,,,,,,,,,e,1,0.7709,0,33,33,24,1,朴实,e,,,,,,,,,,,,
,,,,,,,,,,,,,,1,001,2025-01-04_21h45.02.125,IAT(Formal),2021.2.3,Win32,142.8571429,,,,,,,,,,,,,,,,,,,,,,,,,,,,,,,,,,,,,,,,,,,,e,1,0.5496,0,34,34,78,1,他人,e,,,,,,,,,,,,
,,,,,,,,,,,,,,1,001,2025-01-04_21h45.02.125,IAT(Formal),2021.2.3,Win32,142.8571429,,,,,,,,,,,,,,,,,,,,,,,,,,,,,,,,,,,,,,,,,,,,i,0,1.0129,0,35,35,11,1,崇高,e,,,,,,,,,,,,
,,,,,,,,,,,,,,1,001,2025-01-04_21h45.02.125,IAT(Formal),2021.2.3,Win32,142.8571429,,,,,,,,,,,,,,,,,,,,,,,,,,,,,,,,,,,,,,,,,,,,i,1,0.7902,0,36,36,0,1,我,i,,,,,,,,,,,,
,,,,,,,,,,,,,,1,001,2025-01-04_21h45.02.125,IAT(Formal),2021.2.3,Win32,142.8571429,,,,,,,,,,,,,,,,,,,,,,,,,,,,,,,,,,,,,,,,,,,,i,1,1.0761,0,37,37,44,1,暴躁,i,,,,,,,,,,,,
,,,,,,,,,,,,,,1,001,2025-01-04_21h45.02.125,IAT(Formal),2021.2.3,Win32,142.8571429,,,,,,,,,,,,,,,,,,,,,,,,,,,,,,,,,,,,,,,,,,,,i,1,0.6895,0,38,38,47,1,固执,i,,,,,,,,,,,,
,,,,,,,,,,,,,,1,001,2025-01-04_21h45.02.125,IAT(Formal),2021.2.3,Win32,142.8571429,,,,,,,,,,,,,,,,,,,,,,,,,,,,,,,,,,,,,,,,,,,,e,1,0.6465,0,39,39,66,1,他们,e,,,,,,,,,,,,
,,,,,,,,,,,,,,1,001,2025-01-04_21h45.02.125,IAT(Formal),2021.2.3,Win32,142.8571429,,,,,,,,,,,,,,,,,,,,,,,,,,,,,,,,,,,,,,,,,,,,i,1,0.9391,0,40,40,42,1,凶狠,i,,,,,,,,,,,,
,,,,,,,,,,,,,,1,001,2025-01-04_21h45.02.125,IAT(Formal),2021.2.3,Win32,142.8571429,,,,,,,,,,,,,,,,,,,,,,,,,,,,,,,,,,,,,,,,,,,,i,1,0.5692,0,41,41,36,1,自卑,i,,,,,,,,,,,,
,,,,,,,,,,,,,,1,001,2025-01-04_21h45.02.125,IAT(Formal),2021.2.3,Win32,142.8571429,,,,,,,,,,,,,,,,,,,,,,,,,,,,,,,,,,,,,,,,,,,,i,1,0.4519,0,42,42,60,1,我,i,,,,,,,,,,,,
,,,,,,,,,,,,,,1,001,2025-01-04_21h45.02.125,IAT(Formal),2021.2.3,Win32,142.8571429,,,,,,,,,,,,,,,,,,,,,,,,,,,,,,,,,,,,,,,,,,,,e,1,0.5499,0,43,43,69,1,其他,e,,,,,,,,,,,,
,,,,,,,,,,,,,,1,001,2025-01-04_21h45.02.125,IAT(Formal),2021.2.3,Win32,142.8571429,,,,,,,,,,,,,,,,,,,,,,,,,,,,,,,,,,,,,,,,,,,,e,1,0.513,0,44,44,15,1,诚实,e,,,,,,,,,,,,
,,,,,,,,,,,,,,1,001,2025-01-04_21h45.02.125,IAT(Formal),2021.2.3,Win32,142.8571429,,,,,,,,,,,,,,,,,,,,,,,,,,,,,,,,,,,,,,,,,,,,i,1,0.9022,0,45,45,1,1,我的,i,,,,,,,,,,,,
,,,,,,,,,,,,,,1,001,2025-01-04_21h45.02.125,IAT(Formal),2021.2.3,Win32,142.8571429,,,,,,,,,,,,,,,,,,,,,,,,,,,,,,,,,,,,,,,,,,,,e,1,0.5696,0,46,46,57,1,他的,e,,,,,,,,,,,,
,,,,,,,,,,,,,,1,001,2025-01-04_21h45.02.125,IAT(Formal),2021.2.3,Win32,142.8571429,,,,,,,,,,,,,,,,,,,,,,,,,,,,,,,,,,,,,,,,,,,,e,0,0.847,0,47,47,35,1,消极,i,,,,,,,,,,,,
,,,,,,,,,,,,,,1,001,2025-01-04_21h45.02.125,IAT(Formal),2021.2.3,Win32,142.8571429,,,,,,,,,,,,,,,,,,,,,,,,,,,,,,,,,,,,,,,,,,,,i,1,0.7215,0,48,48,51,1,我的,i,,,,,,,,,,,,
,,,,,,,,,,,,,,1,001,2025-01-04_21h45.02.125,IAT(Formal),2021.2.3,Win32,142.8571429,,,,,,,,,,,,,,,,,,,,,,,,,,,,,,,,,,,,,,,,,,,,i,1,0.5613,0,49,49,50,1,我,i,,,,,,,,,,,,
,,,,,,,,,,,,,,1,001,2025-01-04_21h45.02.125,IAT(Formal),2021.2.3,Win32,142.8571429,,,,,,,,,,,,,,,,,,,,,,,,,,,,,,,,,,,,,,,,,,,,e,1,0.5691,0,50,50,55,1,他,e,,,,,,,,,,,,
,,,,,,,,,,,,,,1,001,2025-01-04_21h45.02.125,IAT(Formal),2021.2.3,Win32,142.8571429,,,,,,,,,,,,,,,,,,,,,,,,,,,,,,,,,,,,,,,,,,,,,0,,0,51,51,32,1,愚蠢,i,,,,,,,,,,,,
,,,,,,,,,,,,,,1,001,2025-01-04_21h45.02.125,IAT(Formal),2021.2.3,Win32,142.8571429,,,,,,,,,,,,,,,,,,,,,,,,,,,,,,,,,,,,,,,,,,,,e,1,1.119,0,52,52,28,1,活泼,e,,,,,,,,,,,,
,,,,,,,,,,,,,,1,001,2025-01-04_21h45.02.125,IAT(Formal),2021.2.3,Win32,142.8571429,,,,,,,,,,,,,,,,,,,,,,,,,,,,,,,,,,,,,,,,,,,,e,1,1.2944,0,53,53,19,1,机智,e,,,,,,,,,,,,
,,,,,,,,,,,,,,1,001,2025-01-04_21h45.02.125,IAT(Formal),2021.2.3,Win32,142.8571429,,,,,,,,,,,,,,,,,,,,,,,,,,,,,,,,,,,,,,,,,,,,i,1,0.632,0,54,54,52,1,我们,i,,,,,,,,,,,,
,,,,,,,,,,,,,,1,001,2025-01-04_21h45.02.125,IAT(Formal),2021.2.3,Win32,142.8571429,,,,,,,,,,,,,,,,,,,,,,,,,,,,,,,,,,,,,,,,,,,,e,1,1.0753,0,55,55,22,1,无私,e,,,,,,,,,,,,
,,,,,,,,,,,,,,1,001,2025-01-04_21h45.02.125,IAT(Formal),2021.2.3,Win32,142.8571429,,,,,,,,,,,,,,,,,,,,,,,,,,,,,,,,,,,,,,,,,,,,i,1,1.3049,0,56,56,37,1,傲慢,i,,,,,,,,,,,,
,,,,,,,,,,,,,,1,001,2025-01-04_21h45.02.125,IAT(Formal),2021.2.3,Win32,142.8571429,,,,,,,,,,,,,,,,,,,,,,,,,,,,,,,,,,,,,,,,,,,,e,1,0.6292,0,57,57,10,1,优秀,e,,,,,,,,,,,,
,,,,,,,,,,,,,,1,001,2025-01-04_21h45.02.125,IAT(Formal),2021.2.3,Win32,142.8571429,,,,,,,,,,,,,,,,,,,,,,,,,,,,,,,,,,,,,,,,,,,,i,1,1.3523,0,58,58,70,1,我,i,,,,,,,,,,,,
,,,,,,,,,,,,,,1,001,2025-01-04_21h45.02.125,IAT(Formal),2021.2.3,Win32,142.8571429,,,,,,,,,,,,,,,,,,,,,,,,,,,,,,,,,,,,,,,,,,,,e,0,1.0894,0,59,59,31,1,虚伪,i,,,,,,,,,,,,
,,,,,,,,,,,,,,1,001,2025-01-04_21h45.02.125,IAT(Formal),2021.2.3,Win32,142.8571429,,,,,,,,,,,,,,,,,,,,,,,,,,,,,,,,,,,,,,,,,,,,,0,,0,60,60,12,1,聪明,e,,,,,,,,,,,,
,,,,,,,,,,,,,,1,001,2025-01-04_21h45.02.125,IAT(Formal),2021.2.3,Win32,142.8571429,,,,,,,,,,,,,,,,,,,,,,,,,,,,,,,,,,,,,,,,,,,,e,1,0.7698,0,61,61,77,1,他的,e,,,,,,,,,,,,
,,,,,,,,,,,,,,1,001,2025-01-04_21h45.02.125,IAT(Formal),2021.2.3,Win32,142.8571429,,,,,,,,,,,,,,,,,,,,,,,,,,,,,,,,,,,,,,,,,,,,e,0,0.5785,0,62,62,39,1,冒失,i,,,,,,,,,,,,
,,,,,,,,,,,,,,1,001,2025-01-04_21h45.02.125,IAT(Formal),2021.2.3,Win32,142.8571429,,,,,,,,,,,,,,,,,,,,,,,,,,,,,,,,,,,,,,,,,,,,i,1,0.4948,0,63,63,74,1,俺,i,,,,,,,,,,,,
,,,,,,,,,,,,,,1,001,2025-01-04_21h45.02.125,IAT(Formal),2021.2.3,Win32,142.8571429,,,,,,,,,,,,,,,,,,,,,,,,,,,,,,,,,,,,,,,,,,,,i,1,0.7173,0,64,64,62,1,我们,i,,,,,,,,,,,,
,,,,,,,,,,,,,,1,001,2025-01-04_21h45.02.125,IAT(Formal),2021.2.3,Win32,142.8571429,,,,,,,,,,,,,,,,,,,,,,,,,,,,,,,,,,,,,,,,,,,,i,0,1.2147,0,65,65,26,1,冷静,e,,,,,,,,,,,,
,,,,,,,,,,,,,,1,001,2025-01-04_21h45.02.125,IAT(Formal),2021.2.3,Win32,142.8571429,,,,,,,,,,,,,,,,,,,,,,,,,,,,,,,,,,,,,,,,,,,,e,1,0.7772,0,66,66,68,1,他人,e,,,,,,,,,,,,
,,,,,,,,,,,,,,1,001,2025-01-04_21h45.02.125,IAT(Formal),2021.2.3,Win32,142.8571429,,,,,,,,,,,,,,,,,,,,,,,,,,,,,,,,,,,,,,,,,,,,e,0,0.5215,0,67,67,30,1,卑鄙,i,,,,,,,,,,,,
,,,,,,,,,,,,,,1,001,2025-01-04_21h45.02.125,IAT(Formal),2021.2.3,Win32,142.8571429,,,,,,,,,,,,,,,,,,,,,,,,,,,,,,,,,,,,,,,,,,,,e,1,0.8322,0,68,68,9,1,其他,e,,,,,,,,,,,,
,,,,,,,,,,,,,,1,001,2025-01-04_21h45.02.125,IAT(Formal),2021.2.3,Win32,142.8571429,,,,,,,,,,,,,,,,,,,,,,,,,,,,,,,,,,,,,,,,,,,,i,1,0.5563,0,69,69,63,1,自己,i,,,,,,,,,,,,
,,,,,,,,,,,,,,1,001,2025-01-04_21h45.02.125,IAT(Formal),2021.2.3,Win32,142.8571429,,,,,,,,,,,,,,,,,,,,,,,,,,,,,,,,,,,,,,,,,,,,e,1,0.5345,0,70,70,67,1,他的,e,,,,,,,,,,,,
,,,,,,,,,,,,,,1,001,2025-01-04_21h45.02.125,IAT(Formal),2021.2.3,Win32,142.8571429,,,,,,,,,,,,,,,,,,,,,,,,,,,,,,,,,,,,,,,,,,,,e,1,0.7717,0,71,71,6,1,他们,e,,,,,,,,,,,,
,,,,,,,,,,,,,,1,001,2025-01-04_21h45.02.125,IAT(Formal),2021.2.3,Win32,142.8571429,,,,,,,,,,,,,,,,,,,,,,,,,,,,,,,,,,,,,,,,,,,,e,1,1.0623,0,72,72,20,1,认真,e,,,,,,,,,,,,
,,,,,,,,,,,,,,1,001,2025-01-04_21h45.02.125,IAT(Formal),2021.2.3,Win32,142.8571429,,,,,,,,,,,,,,,,,,,,,,,,,,,,,,,,,,,,,,,,,,,,i,1,1.1049,0,73,73,48,1,轻率,i,,,,,,,,,,,,
,,,,,,,,,,,,,,1,001,2025-01-04_21h45.02.125,IAT(Formal),2021.2.3,Win32,142.8571429,,,,,,,,,,,,,,,,,,,,,,,,,,,,,,,,,,,,,,,,,,,,e,1,0.7914,0,74,74,76,1,他们,e,,,,,,,,,,,,
,,,,,,,,,,,,,,1,001,2025-01-04_21h45.02.125,IAT(Formal),2021.2.3,Win32,142.8571429,,,,,,,,,,,,,,,,,,,,,,,,,,,,,,,,,,,,,,,,,,,,e,1,0.6178,0,75,75,79,1,其他,e,,,,,,,,,,,,
,,,,,,,,,,,,,,1,001,2025-01-04_21h45.02.125,IAT(Formal),2021.2.3,Win32,142.8571429,,,,,,,,,,,,,,,,,,,,,,,,,,,,,,,,,,,,,,,,,,,,e,0,0.654,0,76,76,38,1,鲁莽,i,,,,,,,,,,,,
,,,,,,,,,,,,,,1,001,2025-01-04_21h45.02.125,IAT(Formal),2021.2.3,Win32,142.8571429,,,,,,,,,,,,,,,,,,,,,,,,,,,,,,,,,,,,,,,,,,,,e,1,0.5912,0,77,77,7,1,他的,e,,,,,,,,,,,,
,,,,,,,,,,,,,,1,001,2025-01-04_21h45.02.125,IAT(Formal),2021.2.3,Win32,142.8571429,,,,,,,,,,,,,,,,,,,,,,,,,,,,,,,,,,,,,,,,,,,,e,0,0.9168,0,78,78,33,1,刻薄,i,,,,,,,,,,,,
,,,,,,,,,,,,,,1,001,2025-01-04_21h45.02.125,IAT(Formal),2021.2.3,Win32,142.8571429,,,,,,,,,,,,,,,,,,,,,,,,,,,,,,,,,,,,,,,,,,,,i,1,0.5111,0,79,79,46,1,野蛮,i,,,,,,,,,,,,
,,,,,,,,,,,,,,1,001,2025-01-04_21h45.02.125,IAT(Formal),2021.2.3,Win32,142.8571429,,,,,,,,,,,,,,,,,,,,,,,,,,,,,,,,,,,,,,,,,,,,,,,,,,,,勤奋,e,space,7.9813,i,0,0.7294,0,0,0,18,1,,
,,,,,,,,,,,,,,1,001,2025-01-04_21h45.02.125,IAT(Formal),2021.2.3,Win32,142.8571429,,,,,,,,,,,,,,,,,,,,,,,,,,,,,,,,,,,,,,,,,,,,,,,,,,,,自己,i,,,i,1,0.5961,0,1,1,53,1,,
,,,,,,,,,,,,,,1,001,2025-01-04_21h45.02.125,IAT(Formal),2021.2.3,Win32,142.8571429,,,,,,,,,,,,,,,,,,,,,,,,,,,,,,,,,,,,,,,,,,,,,,,,,,,,我们,i,,,i,1,0.6874,0,2,2,72,1,,
,,,,,,,,,,,,,,1,001,2025-01-04_21h45.02.125,IAT(Formal),2021.2.3,Win32,142.8571429,,,,,,,,,,,,,,,,,,,,,,,,,,,,,,,,,,,,,,,,,,,,,,,,,,,,轻率,i,,,i,1,0.6732,0,3,3,48,1,,
,,,,,,,,,,,,,,1,001,2025-01-04_21h45.02.125,IAT(Formal),2021.2.3,Win32,142.8571429,,,,,,,,,,,,,,,,,,,,,,,,,,,,,,,,,,,,,,,,,,,,,,,,,,,,我们,i,,,i,1,0.4869,0,4,4,52,1,,
,,,,,,,,,,,,,,1,001,2025-01-04_21h45.02.125,IAT(Formal),2021.2.3,Win32,142.8571429,,,,,,,,,,,,,,,,,,,,,,,,,,,,,,,,,,,,,,,,,,,,,,,,,,,,正直,e,,,i,0,0.5972,0,5,5,16,1,,
,,,,,,,,,,,,,,1,001,2025-01-04_21h45.02.125,IAT(Formal),2021.2.3,Win32,142.8571429,,,,,,,,,,,,,,,,,,,,,,,,,,,,,,,,,,,,,,,,,,,,,,,,,,,,他们,e,,,e,1,0.8961,0,6,6,56,1,,
,,,,,,,,,,,,,,1,001,2025-01-04_21h45.02.125,IAT(Formal),2021.2.3,Win32,142.8571429,,,,,,,,,,,,,,,,,,,,,,,,,,,,,,,,,,,,,,,,,,,,,,,,,,,,活泼,e,,,e,1,0.4102,0,7,7,28,1,,
,,,,,,,,,,,,,,1,001,2025-01-04_21h45.02.125,IAT(Formal),2021.2.3,Win32,142.8571429,,,,,,,,,,,,,,,,,,,,,,,,,,,,,,,,,,,,,,,,,,,,,,,,,,,,他人,e,,,e,1,0.3829,0,8,8,78,1,,
,,,,,,,,,,,,,,1,001,2025-01-04_21h45.02.125,IAT(Formal),2021.2.3,Win32,142.8571429,,,,,,,,,,,,,,,,,,,,,,,,,,,,,,,,,,,,,,,,,,,,,,,,,,,,冷静,e,,,e,1,0.4589,0,9,9,26,1,,
,,,,,,,,,,,,,,1,001,2025-01-04_21h45.02.125,IAT(Formal),2021.2.3,Win32,142.8571429,,,,,,,,,,,,,,,,,,,,,,,,,,,,,,,,,,,,,,,,,,,,,,,,,,,,执拗,i,,,i,1,0.8321,0,10,10,40,1,,
,,,,,,,,,,,,,,1,001,2025-01-04_21h45.02.125,IAT(Formal),2021.2.3,Win32,142.8571429,,,,,,,,,,,,,,,,,,,,,,,,,,,,,,,,,,,,,,,,,,,,,,,,,,,,优秀,e,,,e,1,0.8756,0,11,11,10,1,,
,,,,,,,,,,,,,,1,001,2025-01-04_21h45.02.125,IAT(Formal),2021.2.3,Win32,142.8571429,,,,,,,,,,,,,,,,,,,,,,,,,,,,,,,,,,,,,,,,,,,,,,,,,,,,傲慢,i,,,i,1,0.6621,0,12,12,37,1,,
,,,,,,,,,,,,,,1,001,2025-01-04_21h45.02.125,IAT(Formal),2021.2.3,Win32,142.8571429,,,,,,,,,,,,,,,,,,,,,,,,,,,,,,,,,,,,,,,,,,,,,,,,,,,,我的,i,,,i,1,0.4986,0,13,13,51,1,,
,,,,,,,,,,,,,,1,001,2025-01-04_21h45.02.125,IAT(Formal),2021.2.3,Win32,142.8571429,,,,,,,,,,,,,,,,,,,,,,,,,,,,,,,,,,,,,,,,,,,,,,,,,,,,聪明,e,,,e,1,0.7521,0,14,14,12,1,,
,,,,,,,,,,,,,,1,001,2025-01-04_21h45.02.125,IAT(Formal),2021.2.3,Win32,142.8571429,,,,,,,,,,,,,,,,,,,,,,,,,,,,,,,,,,,,,,,,,,,,,,,,,,,,他的,e,,,e,1,0.6239,0,15,15,7,1,,
,,,,,,,,,,,,,,1,001,2025-01-04_21h45.02.125,IAT(Formal),2021.2.3,Win32,142.8571429,,,,,,,,,,,,,,,,,,,,,,,,,,,,,,,,,,,,,,,,,,,,,,,,,,,,自己,i,,,i,1,0.5498,0,16,16,73,1,,
,,,,,,,,,,,,,,1,001,2025-01-04_21h45.02.125,IAT(Formal),2021.2.3,Win32,142.8571429,,,,,,,,,,,,,,,,,,,,,,,,,,,,,,,,,,,,,,,,,,,,,,,,,,,,愚蠢,i,,,e,0,1.1223,0,17,17,32,1,,
,,,,,,,,,,,,,,1,001,2025-01-04_21h45.02.125,IAT(Formal),2021.2.3,Win32,142.8571429,,,,,,,,,,,,,,,,,,,,,,,,,,,,,,,,,,,,,,,,,,,,,,,,,,,,我,i,,,i,1,0.4928,0,18,18,0,1,,
,,,,,,,,,,,,,,1,001,2025-01-04_21h45.02.125,IAT(Formal),2021.2.3,Win32,142.8571429,,,,,,,,,,,,,,,,,,,,,,,,,,,,,,,,,,,,,,,,,,,,,,,,,,,,我,i,,,i,1,0.6819,0,19,19,70,1,,
,,,,,,,,,,,,,,1,001,2025-01-04_21h45.02.125,IAT(Formal),2021.2.3,Win32,142.8571429,,,,,,,,,,,,,,,,,,,,,,,,,,,,,,,,,,,,,,,,,,,,,,,,,,,,勇敢,e,,,e,1,0.6112,0,20,20,17,1,,
,,,,,,,,,,,,,,1,001,2025-01-04_21h45.02.125,IAT(Formal),2021.2.3,Win32,142.8571429,,,,,,,,,,,,,,,,,,,,,,,,,,,,,,,,,,,,,,,,,,,,,,,,,,,,自私,i,,,i,1,0.8957,0,21,21,43,1,,
,,,,,,,,,,,,,,1,001,2025-01-04_21h45.02.125,IAT(Formal),2021.2.3,Win32,142.8571429,,,,,,,,,,,,,,,,,,,,,,,,,,,,,,,,,,,,,,,,,,,,,,,,,,,,自卑,i,,,i,1,0.4731,0,22,22,36,1,,
,,,,,,,,,,,,,,1,001,2025-01-04_21h45.02.125,IAT(Formal),2021.2.3,Win32,142.8571429,,,,,,,,,,,,,,,,,,,,,,,,,,,,,,,,,,,,,,,,,,,,,,,,,,,,野蛮,i,,,i,1,0.6728,0,23,23,46,1,,
,,,,,,,,,,,,,,1,001,2025-01-04_21h45.02.125,IAT(Formal),2021.2.3,Win32,142.8571429,,,,,,,,,,,,,,,,,,,,,,,,,,,,,,,,,,,,,,,,,,,,,,,,,,,,凶狠,i,,,i,1,0.6104,0,24,24,42,1,,
,,,,,,,,,,,,,,1,001,2025-01-04_21h45.02.125,IAT(Formal),2021.2.3,Win32,142.8571429,,,,,,,,,,,,,,,,,,,,,,,,,,,,,,,,,,,,,,,,,,,,,,,,,,,,俺,i,,,i,1,0.5769,0,25,25,54,1,,
,,,,,,,,,,,,,,1,001,2025-01-04_21h45.02.125,IAT(Formal),2021.2.3,Win32,142.8571429,,,,,,,,,,,,,,,,,,,,,,,,,,,,,,,,,,,,,,,,,,,,,,,,,,,,鲁莽,i,,,i,1,0.7074,0,26,26,38,1,,
,,,,,,,,,,,,,,1,001,2025-01-04_21h45.02.125,IAT(Formal),2021.2.3,Win32,142.8571429,,,,,,,,,,,,,,,,,,,,,,,,,,,,,,,,,,,,,,,,,,,,,,,,,,,,认真,e,,,e,1,0.6992,0,27,27,20,1,,
,,,,,,,,,,,,,,1,001,2025-01-04_21h45.02.125,IAT(Formal),2021.2.3,Win32,142.8571429,,,,,,,,,,,,,,,,,,,,,,,,,,,,,,,,,,,,,,,,,,,,,,,,,,,,其他,e,,,i,0,0.5134,0,28,28,9,1,,
,,,,,,,,,,,,,,1,001,2025-01-04_21h45.02.125,IAT(Formal),2021.2.3,Win32,142.8571429,,,,,,,,,,,,,,,,,,,,,,,,,,,,,,,,,,,,,,,,,,,,,,,,,,,,细腻,e,,,e,1,1.0572,0,29,29,25,1,,
,,,,,,,,,,,,,,1,001,2025-01-04_21h45.02.125,IAT(Formal),2021.2.3,Win32,142.8571429,,,,,,,,,,,,,,,,,,,,,,,,,,,,,,,,,,,,,,,,,,,,,,,,,,,,自己,i,,,i,1,0.7906,0,30,30,63,1,,
,,,,,,,,,,,,,,1,001,2025-01-04_21h45.02.125,IAT(Formal),2021.2.3,Win32,142.8571429,,,,,,,,,,,,,,,,,,,,,,,,,,,,,,,,,,,,,,,,,,,,,,,,,,,,自己,i,,,i,1,0.4948,0,31,31,3,1,,
,,,,,,,,,,,,,,1,001,2025-01-04_21h45.02.125,IAT(Formal),2021.2.3,Win32,142.8571429,,,,,,,,,,,,,,,,,,,,,,,,,,,,,,,,,,,,,,,,,,,,,,,,,,,,卑鄙,i,,,i,1,0.611,0,32,32,30,1,,
,,,,,,,,,,,,,,1,001,2025-01-04_21h45.02.125,IAT(Formal),2021.2.3,Win32,142.8571429,,,,,,,,,,,,,,,,,,,,,,,,,,,,,,,,,,,,,,,,,,,,,,,,,,,,他人,e,,,e,1,0.78,0,33,33,8,1,,
,,,,,,,,,,,,,,1,001,2025-01-04_21h45.02.125,IAT(Formal),2021.2.3,Win32,142.8571429,,,,,,,,,,,,,,,,,,,,,,,,,,,,,,,,,,,,,,,,,,,,,,,,,,,,固执,i,,,e,0,0.6177,0,34,34,47,1,,
,,,,,,,,,,,,,,1,001,2025-01-04_21h45.02.125,IAT(Formal),2021.2.3,Win32,142.8571429,,,,,,,,,,,,,,,,,,,,,,,,,,,,,,,,,,,,,,,,,,,,,,,,,,,,崇高,e,,,e,1,0.7353,0,35,35,11,1,,
,,,,,,,,,,,,,,1,001,2025-01-04_21h45.02.125,IAT(Formal),2021.2.3,Win32,142.8571429,,,,,,,,,,,,,,,,,,,,,,,,,,,,,,,,,,,,,,,,,,,,,,,,,,,,无私,e,,,,0,,0,36,36,22,1,,
,,,,,,,,,,,,,,1,001,2025-01-04_21h45.02.125,IAT(Formal),2021.2.3,Win32,142.8571429,,,,,,,,,,,,,,,,,,,,,,,,,,,,,,,,,,,,,,,,,,,,,,,,,,,,我的,i,,,i,1,0.5836,0,37,37,71,1,,
,,,,,,,,,,,,,,1,001,2025-01-04_21h45.02.125,IAT(Formal),2021.2.3,Win32,142.8571429,,,,,,,,,,,,,,,,,,,,,,,,,,,,,,,,,,,,,,,,,,,,,,,,,,,,他的,e,,,e,1,0.7761,0,38,38,57,1,,
,,,,,,,,,,,,,,1,001,2025-01-04_21h45.02.125,IAT(Formal),2021.2.3,Win32,142.8571429,,,,,,,,,,,,,,,,,,,,,,,,,,,,,,,,,,,,,,,,,,,,,,,,,,,,朴实,e,,,e,1,0.9574,0,39,39,24,1,,
,,,,,,,,,,,,,,1,001,2025-01-04_21h45.02.125,IAT(Formal),2021.2.3,Win32,142.8571429,,,,,,,,,,,,,,,,,,,,,,,,,,,,,,,,,,,,,,,,,,,,,,,,,,,,他的,e,,,i,0,0.5823,0,40,40,77,1,,
,,,,,,,,,,,,,,1,001,2025-01-04_21h45.02.125,IAT(Formal),2021.2.3,Win32,142.8571429,,,,,,,,,,,,,,,,,,,,,,,,,,,,,,,,,,,,,,,,,,,,,,,,,,,,猖狂,i,,,i,1,1.0685,0,41,41,45,1,,
,,,,,,,,,,,,,,1,001,2025-01-04_21h45.02.125,IAT(Formal),2021.2.3,Win32,142.8571429,,,,,,,,,,,,,,,,,,,,,,,,,,,,,,,,,,,,,,,,,,,,,,,,,,,,其他,e,,,e,1,0.9929,0,42,42,69,1,,
,,,,,,,,,,,,,,1,001,2025-01-04_21h45.02.125,IAT(Formal),2021.2.3,Win32,142.8571429,,,,,,,,,,,,,,,,,,,,,,,,,,,,,,,,,,,,,,,,,,,,,,,,,,,,我,i,,,i,1,0.6727,0,43,43,60,1,,
,,,,,,,,,,,,,,1,001,2025-01-04_21h45.02.125,IAT(Formal),2021.2.3,Win32,142.8571429,,,,,,,,,,,,,,,,,,,,,,,,,,,,,,,,,,,,,,,,,,,,,,,,,,,,他,e,,,e,1,0.7423,0,44,44,75,1,,
,,,,,,,,,,,,,,1,001,2025-01-04_21h45.02.125,IAT(Formal),2021.2.3,Win32,142.8571429,,,,,,,,,,,,,,,,,,,,,,,,,,,,,,,,,,,,,,,,,,,,,,,,,,,,其他,e,,,e,1,0.9306,0,45,45,59,1,,
,,,,,,,,,,,,,,1,001,2025-01-04_21h45.02.125,IAT(Formal),2021.2.3,Win32,142.8571429,,,,,,,,,,,,,,,,,,,,,,,,,,,,,,,,,,,,,,,,,,,,,,,,,,,,诚实,e,,,e,1,1.2483,0,46,46,15,1,,
,,,,,,,,,,,,,,1,001,2025-01-04_21h45.02.125,IAT(Formal),2021.2.3,Win32,142.8571429,,,,,,,,,,,,,,,,,,,,,,,,,,,,,,,,,,,,,,,,,,,,,,,,,,,,稳重,e,,,e,1,1.3604,0,47,47,21,1,,
,,,,,,,,,,,,,,1,001,2025-01-04_21h45.02.125,IAT(Formal),2021.2.3,Win32,142.8571429,,,,,,,,,,,,,,,,,,,,,,,,,,,,,,,,,,,,,,,,,,,,,,,,,,,,我,i,,,i,1,1.3951,0,48,48,50,1,,
,,,,,,,,,,,,,,1,001,2025-01-04_21h45.02.125,IAT(Formal),2021.2.3,Win32,142.8571429,,,,,,,,,,,,,,,,,,,,,,,,,,,,,,,,,,,,,,,,,,,,,,,,,,,,他们,e,,,e,1,0.7376,0,49,49,6,1,,
,,,,,,,,,,,,,,1,001,2025-01-04_21h45.02.125,IAT(Formal),2021.2.3,Win32,142.8571429,,,,,,,,,,,,,,,,,,,,,,,,,,,,,,,,,,,,,,,,,,,,,,,,,,,,杰出,e,,,e,1,0.8059,0,50,50,13,1,,
,,,,,,,,,,,,,,1,001,2025-01-04_21h45.02.125,IAT(Formal),2021.2.3,Win32,142.8571429,,,,,,,,,,,,,,,,,,,,,,,,,,,,,,,,,,,,,,,,,,,,,,,,,,,,诚恳,e,,,e,1,0.7169,0,51,51,29,1,,
,,,,,,,,,,,,,,1,001,2025-01-04_21h45.02.125,IAT(Formal),2021.2.3,Win32,142.8571429,,,,,,,,,,,,,,,,,,,,,,,,,,,,,,,,,,,,,,,,,,,,,,,,,,,,虚伪,i,,,i,1,0.978,0,52,52,31,1,,
,,,,,,,,,,,,,,1,001,2025-01-04_21h45.02.125,IAT(Formal),2021.2.3,Win32,142.8571429,,,,,,,,,,,,,,,,,,,,,,,,,,,,,,,,,,,,,,,,,,,,,,,,,,,,下贱,i,,,i,1,0.9513,0,53,53,49,1,,
,,,,,,,,,,,,,,1,001,2025-01-04_21h45.02.125,IAT(Formal),2021.2.3,Win32,142.8571429,,,,,,,,,,,,,,,,,,,,,,,,,,,,,,,,,,,,,,,,,,,,,,,,,,,,暴躁,i,,,i,1,0.9294,0,54,54,44,1,,
,,,,,,,,,,,,,,1,001,2025-01-04_21h45.02.125,IAT(Formal),2021.2.3,Win32,142.8571429,,,,,,,,,,,,,,,,,,,,,,,,,,,,,,,,,,,,,,,,,,,,,,,,,,,,我们,i,,,i,1,0.8047,0,55,55,62,1,,
,,,,,,,,,,,,,,1,001,2025-01-04_21h45.02.125,IAT(Formal),2021.2.3,Win32,142.8571429,,,,,,,,,,,,,,,,,,,,,,,,,,,,,,,,,,,,,,,,,,,,,,,,,,,,他们,e,,,e,1,0.6717,0,56,56,76,1,,
,,,,,,,,,,,,,,1,001,2025-01-04_21h45.02.125,IAT(Formal),2021.2.3,Win32,142.8571429,,,,,,,,,,,,,,,,,,,,,,,,,,,,,,,,,,,,,,,,,,,,,,,,,,,,热情,e,,,e,1,0.7918,0,57,57,27,1,,
,,,,,,,,,,,,,,1,001,2025-01-04_21h45.02.125,IAT(Formal),2021.2.3,Win32,142.8571429,,,,,,,,,,,,,,,,,,,,,,,,,,,,,,,,,,,,,,,,,,,,,,,,,,,,他人,e,,,i,0,0.5684,0,58,58,68,1,,
,,,,,,,,,,,,,,1,001,2025-01-04_21h45.02.125,IAT(Formal),2021.2.3,Win32,142.8571429,,,,,,,,,,,,,,,,,,,,,,,,,,,,,,,,,,,,,,,,,,,,,,,,,,,,悲观,i,,,i,1,0.7698,0,59,59,34,1,,
,,,,,,,,,,,,,,1,001,2025-01-04_21h45.02.125,IAT(Formal),2021.2.3,Win32,142.8571429,,,,,,,,,,,,,,,,,,,,,,,,,,,,,,,,,,,,,,,,,,,,,,,,,,,,散漫,i,,,i,1,0.6854,0,60,60,41,1,,
,,,,,,,,,,,,,,1,001,2025-01-04_21h45.02.125,IAT(Formal),2021.2.3,Win32,142.8571429,,,,,,,,,,,,,,,,,,,,,,,,,,,,,,,,,,,,,,,,,,,,,,,,,,,,其他,e,,,e,1,0.7579,0,61,61,79,1,,
,,,,,,,,,,,,,,1,001,2025-01-04_21h45.02.125,IAT(Formal),2021.2.3,Win32,142.8571429,,,,,,,,,,,,,,,,,,,,,,,,,,,,,,,,,,,,,,,,,,,,,,,,,,,,消极,i,,,e,0,0.9851,0,62,62,35,1,,
,,,,,,,,,,,,,,1,001,2025-01-04_21h45.02.125,IAT(Formal),2021.2.3,Win32,142.8571429,,,,,,,,,,,,,,,,,,,,,,,,,,,,,,,,,,,,,,,,,,,,,,,,,,,,他,e,,,e,1,1.0899,0,63,63,55,1,,
,,,,,,,,,,,,,,1,001,2025-01-04_21h45.02.125,IAT(Formal),2021.2.3,Win32,142.8571429,,,,,,,,,,,,,,,,,,,,,,,,,,,,,,,,,,,,,,,,,,,,,,,,,,,,俺,i,,,i,1,0.6277,0,64,64,4,1,,
,,,,,,,,,,,,,,1,001,2025-01-04_21h45.02.125,IAT(Formal),2021.2.3,Win32,142.8571429,,,,,,,,,,,,,,,,,,,,,,,,,,,,,,,,,,,,,,,,,,,,,,,,,,,,我的,i,,,i,1,0.5973,0,65,65,1,1,,
,,,,,,,,,,,,,,1,001,2025-01-04_21h45.02.125,IAT(Formal),2021.2.3,Win32,142.8571429,,,,,,,,,,,,,,,,,,,,,,,,,,,,,,,,,,,,,,,,,,,,,,,,,,,,刻薄,i,,,i,1,0.8464,0,66,66,33,1,,
,,,,,,,,,,,,,,1,001,2025-01-04_21h45.02.125,IAT(Formal),2021.2.3,Win32,142.8571429,,,,,,,,,,,,,,,,,,,,,,,,,,,,,,,,,,,,,,,,,,,,,,,,,,,,冒失,i,,,i,1,0.5991,0,67,67,39,1,,
,,,,,,,,,,,,,,1,001,2025-01-04_21h45.02.125,IAT(Formal),2021.2.3,Win32,142.8571429,,,,,,,,,,,,,,,,,,,,,,,,,,,,,,,,,,,,,,,,,,,,,,,,,,,,他的,e,,,e,1,0.7012,0,68,68,67,1,,
,,,,,,,,,,,,,,1,001,2025-01-04_21h45.02.125,IAT(Formal),2021.2.3,Win32,142.8571429,,,,,,,,,,,,,,,,,,,,,,,,,,,,,,,,,,,,,,,,,,,,,,,,,,,,他人,e,,,e,1,0.5761,0,69,69,58,1,,
,,,,,,,,,,,,,,1,001,2025-01-04_21h45.02.125,IAT(Formal),2021.2.3,Win32,142.8571429,,,,,,,,,,,,,,,,,,,,,,,,,,,,,,,,,,,,,,,,,,,,,,,,,,,,俺,i,,,i,1,0.5991,0,70,70,64,1,,
,,,,,,,,,,,,,,1,001,2025-01-04_21h45.02.125,IAT(Formal),2021.2.3,Win32,142.8571429,,,,,,,,,,,,,,,,,,,,,,,,,,,,,,,,,,,,,,,,,,,,,,,,,,,,机智,e,,,e,1,1.104,0,71,71,19,1,,
,,,,,,,,,,,,,,1,001,2025-01-04_21h45.02.125,IAT(Formal),2021.2.3,Win32,142.8571429,,,,,,,,,,,,,,,,,,,,,,,,,,,,,,,,,,,,,,,,,,,,,,,,,,,,公正,e,,,e,1,0.634,0,72,72,23,1,,
,,,,,,,,,,,,,,1,001,2025-01-04_21h45.02.125,IAT(Formal),2021.2.3,Win32,142.8571429,,,,,,,,,,,,,,,,,,,,,,,,,,,,,,,,,,,,,,,,,,,,,,,,,,,,他,e,,,e,1,0.8116,0,73,73,5,1,,
,,,,,,,,,,,,,,1,001,2025-01-04_21h45.02.125,IAT(Formal),2021.2.3,Win32,142.8571429,,,,,,,,,,,,,,,,,,,,,,,,,,,,,,,,,,,,,,,,,,,,,,,,,,,,乐观,e,,,i,0,1.0273,0,74,74,14,1,,
,,,,,,,,,,,,,,1,001,2025-01-04_21h45.02.125,IAT(Formal),2021.2.3,Win32,142.8571429,,,,,,,,,,,,,,,,,,,,,,,,,,,,,,,,,,,,,,,,,,,,,,,,,,,,俺,i,,,i,1,0.6175,0,75,75,74,1,,
,,,,,,,,,,,,,,1,001,2025-01-04_21h45.02.125,IAT(Formal),2021.2.3,Win32,142.8571429,,,,,,,,,,,,,,,,,,,,,,,,,,,,,,,,,,,,,,,,,,,,,,,,,,,,他们,e,,,e,1,0.6486,0,76,76,66,1,,
,,,,,,,,,,,,,,1,001,2025-01-04_21h45.02.125,IAT(Formal),2021.2.3,Win32,142.8571429,,,,,,,,,,,,,,,,,,,,,,,,,,,,,,,,,,,,,,,,,,,,,,,,,,,,我的,i,,,i,1,0.9645,0,77,77,61,1,,
,,,,,,,,,,,,,,1,001,2025-01-04_21h45.02.125,IAT(Formal),2021.2.3,Win32,142.8571429,,,,,,,,,,,,,,,,,,,,,,,,,,,,,,,,,,,,,,,,,,,,,,,,,,,,我们,i,,,i,1,1.3174,0,78,78,2,1,,
,,,,,,,,,,,,,,1,001,2025-01-04_21h45.02.125,IAT(Formal),2021.2.3,Win32,142.8571429,,,,,,,,,,,,,,,,,,,,,,,,,,,,,,,,,,,,,,,,,,,,,,,,,,,,他,e,,,e,1,0.631,0,79,79,65,1,,
,,,,,,,,,,,,,,1,001,2025-01-04_21h45.02.125,IAT(Formal),2021.2.3,Win32,142.8571429,,,,,,,,,,,,,,,,,,,,,,,,,,,,,,,,,,,,,,,,,,,,,,,,,,,,机智,e,,,e,1,0.8806,1,0,80,19,1,,
,,,,,,,,,,,,,,1,001,2025-01-04_21h45.02.125,IAT(Formal),2021.2.3,Win32,142.8571429,,,,,,,,,,,,,,,,,,,,,,,,,,,,,,,,,,,,,,,,,,,,,,,,,,,,悲观,i,,,i,1,1.0888,1,1,81,34,1,,
,,,,,,,,,,,,,,1,001,2025-01-04_21h45.02.125,IAT(Formal),2021.2.3,Win32,142.8571429,,,,,,,,,,,,,,,,,,,,,,,,,,,,,,,,,,,,,,,,,,,,,,,,,,,,细腻,e,,,e,1,1.0273,1,2,82,25,1,,
,,,,,,,,,,,,,,1,001,2025-01-04_21h45.02.125,IAT(Formal),2021.2.3,Win32,142.8571429,,,,,,,,,,,,,,,,,,,,,,,,,,,,,,,,,,,,,,,,,,,,,,,,,,,,勤奋,e,,,,0,,1,3,83,18,1,,
,,,,,,,,,,,,,,1,001,2025-01-04_21h45.02.125,IAT(Formal),2021.2.3,Win32,142.8571429,,,,,,,,,,,,,,,,,,,,,,,,,,,,,,,,,,,,,,,,,,,,,,,,,,,,勇敢,e,,,e,1,0.5559,1,4,84,17,1,,
,,,,,,,,,,,,,,1,001,2025-01-04_21h45.02.125,IAT(Formal),2021.2.3,Win32,142.8571429,,,,,,,,,,,,,,,,,,,,,,,,,,,,,,,,,,,,,,,,,,,,,,,,,,,,他,e,,,i,0,0.8114,1,5,85,5,1,,
,,,,,,,,,,,,,,1,001,2025-01-04_21h45.02.125,IAT(Formal),2021.2.3,Win32,142.8571429,,,,,,,,,,,,,,,,,,,,,,,,,,,,,,,,,,,,,,,,,,,,,,,,,,,,他的,e,,,e,1,0.6789,1,6,86,77,1,,
,,,,,,,,,,,,,,1,001,2025-01-04_21h45.02.125,IAT(Formal),2021.2.3,Win32,142.8571429,,,,,,,,,,,,,,,,,,,,,,,,,,,,,,,,,,,,,,,,,,,,,,,,,,,,自己,i,,,i,1,0.8469,1,7,87,63,1,,
,,,,,,,,,,,,,,1,001,2025-01-04_21h45.02.125,IAT(Formal),2021.2.3,Win32,142.8571429,,,,,,,,,,,,,,,,,,,,,,,,,,,,,,,,,,,,,,,,,,,,,,,,,,,,我,i,,,i,1,0.43,1,8,88,0,1,,
,,,,,,,,,,,,,,1,001,2025-01-04_21h45.02.125,IAT(Formal),2021.2.3,Win32,142.8571429,,,,,,,,,,,,,,,,,,,,,,,,,,,,,,,,,,,,,,,,,,,,,,,,,,,,诚实,e,,,e,1,0.7919,1,9,89,15,1,,
,,,,,,,,,,,,,,1,001,2025-01-04_21h45.02.125,IAT(Formal),2021.2.3,Win32,142.8571429,,,,,,,,,,,,,,,,,,,,,,,,,,,,,,,,,,,,,,,,,,,,,,,,,,,,其他,e,,,e,1,0.5551,1,10,90,69,1,,
,,,,,,,,,,,,,,1,001,2025-01-04_21h45.02.125,IAT(Formal),2021.2.3,Win32,142.8571429,,,,,,,,,,,,,,,,,,,,,,,,,,,,,,,,,,,,,,,,,,,,,,,,,,,,其他,e,,,e,1,0.5342,1,11,91,59,1,,
,,,,,,,,,,,,,,1,001,2025-01-04_21h45.02.125,IAT(Formal),2021.2.3,Win32,142.8571429,,,,,,,,,,,,,,,,,,,,,,,,,,,,,,,,,,,,,,,,,,,,,,,,,,,,他人,e,,,e,1,1.1803,1,12,92,68,1,,
,,,,,,,,,,,,,,1,001,2025-01-04_21h45.02.125,IAT(Formal),2021.2.3,Win32,142.8571429,,,,,,,,,,,,,,,,,,,,,,,,,,,,,,,,,,,,,,,,,,,,,,,,,,,,他人,e,,,e,1,0.389,1,13,93,58,1,,
,,,,,,,,,,,,,,1,001,2025-01-04_21h45.02.125,IAT(Formal),2021.2.3,Win32,142.8571429,,,,,,,,,,,,,,,,,,,,,,,,,,,,,,,,,,,,,,,,,,,,,,,,,,,,自己,i,,,i,1,0.5212,1,14,94,53,1,,
,,,,,,,,,,,,,,1,001,2025-01-04_21h45.02.125,IAT(Formal),2021.2.3,Win32,142.8571429,,,,,,,,,,,,,,,,,,,,,,,,,,,,,,,,,,,,,,,,,,,,,,,,,,,,活泼,e,,,e,1,0.6938,1,15,95,28,1,,
,,,,,,,,,,,,,,1,001,2025-01-04_21h45.02.125,IAT(Formal),2021.2.3,Win32,142.8571429,,,,,,,,,,,,,,,,,,,,,,,,,,,,,,,,,,,,,,,,,,,,,,,,,,,,我们,i,,,i,1,0.7214,1,16,96,62,1,,
,,,,,,,,,,,,,,1,001,2025-01-04_21h45.02.125,IAT(Formal),2021.2.3,Win32,142.8571429,,,,,,,,,,,,,,,,,,,,,,,,,,,,,,,,,,,,,,,,,,,,,,,,,,,,我,i,,,i,1,0.7983,1,17,97,70,1,,
,,,,,,,,,,,,,,1,001,2025-01-04_21h45.02.125,IAT(Formal),2021.2.3,Win32,142.8571429,,,,,,,,,,,,,,,,,,,,,,,,,,,,,,,,,,,,,,,,,,,,,,,,,,,,乐观,e,,,e,1,0.8327,1,18,98,14,1,,
,,,,,,,,,,,,,,1,001,2025-01-04_21h45.02.125,IAT(Formal),2021.2.3,Win32,142.8571429,,,,,,,,,,,,,,,,,,,,,,,,,,,,,,,,,,,,,,,,,,,,,,,,,,,,野蛮,i,,,i,1,1.1307,1,19,99,46,1,,
,,,,,,,,,,,,,,1,001,2025-01-04_21h45.02.125,IAT(Formal),2021.2.3,Win32,142.8571429,,,,,,,,,,,,,,,,,,,,,,,,,,,,,,,,,,,,,,,,,,,,,,,,,,,,轻率,i,,,i,1,0.6733,1,20,100,48,1,,
,,,,,,,,,,,,,,1,001,2025-01-04_21h45.02.125,IAT(Formal),2021.2.3,Win32,142.8571429,,,,,,,,,,,,,,,,,,,,,,,,,,,,,,,,,,,,,,,,,,,,,,,,,,,,杰出,e,,,e,1,0.673,1,21,101,13,1,,
,,,,,,,,,,,,,,1,001,2025-01-04_21h45.02.125,IAT(Formal),2021.2.3,Win32,142.8571429,,,,,,,,,,,,,,,,,,,,,,,,,,,,,,,,,,,,,,,,,,,,,,,,,,,,我,i,,,i,1,0.5901,1,22,102,60,1,,
,,,,,,,,,,,,,,1,001,2025-01-04_21h45.02.125,IAT(Formal),2021.2.3,Win32,142.8571429,,,,,,,,,,,,,,,,,,,,,,,,,,,,,,,,,,,,,,,,,,,,,,,,,,,,下贱,i,,,e,0,0.8952,1,23,103,49,1,,
,,,,,,,,,,,,,,1,001,2025-01-04_21h45.02.125,IAT(Formal),2021.2.3,Win32,142.8571429,,,,,,,,,,,,,,,,,,,,,,,,,,,,,,,,,,,,,,,,,,,,,,,,,,,,刻薄,i,,,i,1,0.5413,1,24,104,33,1,,
,,,,,,,,,,,,,,1,001,2025-01-04_21h45.02.125,IAT(Formal),2021.2.3,Win32,142.8571429,,,,,,,,,,,,,,,,,,,,,,,,,,,,,,,,,,,,,,,,,,,,,,,,,,,,冒失,i,,,i,1,0.5486,1,25,105,39,1,,
,,,,,,,,,,,,,,1,001,2025-01-04_21h45.02.125,IAT(Formal),2021.2.3,Win32,142.8571429,,,,,,,,,,,,,,,,,,,,,,,,,,,,,,,,,,,,,,,,,,,,,,,,,,,,自私,i,,,i,1,1.1535,1,26,106,43,1,,
,,,,,,,,,,,,,,1,001,2025-01-04_21h45.02.125,IAT(Formal),2021.2.3,Win32,142.8571429,,,,,,,,,,,,,,,,,,,,,,,,,,,,,,,,,,,,,,,,,,,,,,,,,,,,他人,e,,,e,1,0.6952,1,27,107,8,1,,
,,,,,,,,,,,,,,1,001,2025-01-04_21h45.02.125,IAT(Formal),2021.2.3,Win32,142.8571429,,,,,,,,,,,,,,,,,,,,,,,,,,,,,,,,,,,,,,,,,,,,,,,,,,,,俺,i,,,i,1,0.6831,1,28,108,74,1,,
,,,,,,,,,,,,,,1,001,2025-01-04_21h45.02.125,IAT(Formal),2021.2.3,Win32,142.8571429,,,,,,,,,,,,,,,,,,,,,,,,,,,,,,,,,,,,,,,,,,,,,,,,,,,,热情,e,,,,0,,1,29,109,27,1,,
,,,,,,,,,,,,,,1,001,2025-01-04_21h45.02.125,IAT(Formal),2021.2.3,Win32,142.8571429,,,,,,,,,,,,,,,,,,,,,,,,,,,,,,,,,,,,,,,,,,,,,,,,,,,,无私,e,,,e,1,0.6935,1,30,110,22,1,,
,,,,,,,,,,,,,,1,001,2025-01-04_21h45.02.125,IAT(Formal),2021.2.3,Win32,142.8571429,,,,,,,,,,,,,,,,,,,,,,,,,,,,,,,,,,,,,,,,,,,,,,,,,,,,卑鄙,i,,,e,0,0.4852,1,31,111,30,1,,
,,,,,,,,,,,,,,1,001,2025-01-04_21h45.02.125,IAT(Formal),2021.2.3,Win32,142.8571429,,,,,,,,,,,,,,,,,,,,,,,,,,,,,,,,,,,,,,,,,,,,,,,,,,,,我的,i,,,i,1,0.6177,1,32,112,51,1,,
,,,,,,,,,,,,,,1,001,2025-01-04_21h45.02.125,IAT(Formal),2021.2.3,Win32,142.8571429,,,,,,,,,,,,,,,,,,,,,,,,,,,,,,,,,,,,,,,,,,,,,,,,,,,,我们,i,,,i,1,0.6247,1,33,113,72,1,,
,,,,,,,,,,,,,,1,001,2025-01-04_21h45.02.125,IAT(Formal),2021.2.3,Win32,142.8571429,,,,,,,,,,,,,,,,,,,,,,,,,,,,,,,,,,,,,,,,,,,,,,,,,,,,朴实,e,,,e,1,1.096,1,34,114,24,1,,
,,,,,,,,,,,,,,1,001,2025-01-04_21h45.02.125,IAT(Formal),2021.2.3,Win32,142.8571429,,,,,,,,,,,,,,,,,,,,,,,,,,,,,,,,,,,,,,,,,,,,,,,,,,,,我们,i,,,i,1,0.7782,1,35,115,2,1,,
,,,,,,,,,,,,,,1,001,2025-01-04_21h45.02.125,IAT(Formal),2021.2.3,Win32,142.8571429,,,,,,,,,,,,,,,,,,,,,,,,,,,,,,,,,,,,,,,,,,,,,,,,,,,,虚伪,i,,,e,0,1.2697,1,36,116,31,1,,
,,,,,,,,,,,,,,1,001,2025-01-04_21h45.02.125,IAT(Formal),2021.2.3,Win32,142.8571429,,,,,,,,,,,,,,,,,,,,,,,,,,,,,,,,,,,,,,,,,,,,,,,,,,,,散漫,i,,,i,1,0.6869,1,37,117,41,1,,
,,,,,,,,,,,,,,1,001,2025-01-04_21h45.02.125,IAT(Formal),2021.2.3,Win32,142.8571429,,,,,,,,,,,,,,,,,,,,,,,,,,,,,,,,,,,,,,,,,,,,,,,,,,,,自卑,i,,,i,1,0.9782,1,38,118,36,1,,
,,,,,,,,,,,,,,1,001,2025-01-04_21h45.02.125,IAT(Formal),2021.2.3,Win32,142.8571429,,,,,,,,,,,,,,,,,,,,,,,,,,,,,,,,,,,,,,,,,,,,,,,,,,,,他们,e,,,e,1,0.7701,1,39,119,76,1,,
,,,,,,,,,,,,,,1,001,2025-01-04_21h45.02.125,IAT(Formal),2021.2.3,Win32,142.8571429,,,,,,,,,,,,,,,,,,,,,,,,,,,,,,,,,,,,,,,,,,,,,,,,,,,,傲慢,i,,,i,1,0.7833,1,40,120,37,1,,
,,,,,,,,,,,,,,1,001,2025-01-04_21h45.02.125,IAT(Formal),2021.2.3,Win32,142.8571429,,,,,,,,,,,,,,,,,,,,,,,,,,,,,,,,,,,,,,,,,,,,,,,,,,,,我们,i,,,i,1,1.0485,1,41,121,52,1,,
,,,,,,,,,,,,,,1,001,2025-01-04_21h45.02.125,IAT(Formal),2021.2.3,Win32,142.8571429,,,,,,,,,,,,,,,,,,,,,,,,,,,,,,,,,,,,,,,,,,,,,,,,,,,,公正,e,,,,0,,1,42,122,23,1,,
,,,,,,,,,,,,,,1,001,2025-01-04_21h45.02.125,IAT(Formal),2021.2.3,Win32,142.8571429,,,,,,,,,,,,,,,,,,,,,,,,,,,,,,,,,,,,,,,,,,,,,,,,,,,,他人,e,,,e,1,0.5696,1,43,123,78,1,,
,,,,,,,,,,,,,,1,001,2025-01-04_21h45.02.125,IAT(Formal),2021.2.3,Win32,142.8571429,,,,,,,,,,,,,,,,,,,,,,,,,,,,,,,,,,,,,,,,,,,,,,,,,,,,执拗,i,,,i,1,0.7431,1,44,124,40,1,,
,,,,,,,,,,,,,,1,001,2025-01-04_21h45.02.125,IAT(Formal),2021.2.3,Win32,142.8571429,,,,,,,,,,,,,,,,,,,,,,,,,,,,,,,,,,,,,,,,,,,,,,,,,,,,自己,i,,,i,1,0.8329,1,45,125,3,1,,
,,,,,,,,,,,,,,1,001,2025-01-04_21h45.02.125,IAT(Formal),2021.2.3,Win32,142.8571429,,,,,,,,,,,,,,,,,,,,,,,,,,,,,,,,,,,,,,,,,,,,,,,,,,,,俺,i,,,i,1,1.028,1,46,126,4,1,,
,,,,,,,,,,,,,,1,001,2025-01-04_21h45.02.125,IAT(Formal),2021.2.3,Win32,142.8571429,,,,,,,,,,,,,,,,,,,,,,,,,,,,,,,,,,,,,,,,,,,,,,,,,,,,猖狂,i,,,i,1,0.6242,1,47,127,45,1,,
,,,,,,,,,,,,,,1,001,2025-01-04_21h45.02.125,IAT(Formal),2021.2.3,Win32,142.8571429,,,,,,,,,,,,,,,,,,,,,,,,,,,,,,,,,,,,,,,,,,,,,,,,,,,,俺,i,,,i,1,0.6115,1,48,128,54,1,,
,,,,,,,,,,,,,,1,001,2025-01-04_21h45.02.125,IAT(Formal),2021.2.3,Win32,142.8571429,,,,,,,,,,,,,,,,,,,,,,,,,,,,,,,,,,,,,,,,,,,,,,,,,,,,冷静,e,,,i,0,0.5622,1,49,129,26,1,,
,,,,,,,,,,,,,,1,001,2025-01-04_21h45.02.125,IAT(Formal),2021.2.3,Win32,142.8571429,,,,,,,,,,,,,,,,,,,,,,,,,,,,,,,,,,,,,,,,,,,,,,,,,,,,我的,i,,,i,1,0.5554,1,50,130,1,1,,
,,,,,,,,,,,,,,1,001,2025-01-04_21h45.02.125,IAT(Formal),2021.2.3,Win32,142.8571429,,,,,,,,,,,,,,,,,,,,,,,,,,,,,,,,,,,,,,,,,,,,,,,,,,,,优秀,e,,,,0,,1,51,131,10,1,,
,,,,,,,,,,,,,,1,001,2025-01-04_21h45.02.125,IAT(Formal),2021.2.3,Win32,142.8571429,,,,,,,,,,,,,,,,,,,,,,,,,,,,,,,,,,,,,,,,,,,,,,,,,,,,他们,e,,,e,1,0.6932,1,52,132,66,1,,
,,,,,,,,,,,,,,1,001,2025-01-04_21h45.02.125,IAT(Formal),2021.2.3,Win32,142.8571429,,,,,,,,,,,,,,,,,,,,,,,,,,,,,,,,,,,,,,,,,,,,,,,,,,,,愚蠢,i,,,i,1,0.8046,1,53,133,32,1,,
,,,,,,,,,,,,,,1,001,2025-01-04_21h45.02.125,IAT(Formal),2021.2.3,Win32,142.8571429,,,,,,,,,,,,,,,,,,,,,,,,,,,,,,,,,,,,,,,,,,,,,,,,,,,,稳重,e,,,e,1,0.7215,1,54,134,21,1,,
,,,,,,,,,,,,,,1,001,2025-01-04_21h45.02.125,IAT(Formal),2021.2.3,Win32,142.8571429,,,,,,,,,,,,,,,,,,,,,,,,,,,,,,,,,,,,,,,,,,,,,,,,,,,,崇高,e,,,i,0,1.3354,1,55,135,11,1,,
,,,,,,,,,,,,,,1,001,2025-01-04_21h45.02.125,IAT(Formal),2021.2.3,Win32,142.8571429,,,,,,,,,,,,,,,,,,,,,,,,,,,,,,,,,,,,,,,,,,,,,,,,,,,,我的,i,,,i,1,0.6661,1,56,136,71,1,,
,,,,,,,,,,,,,,1,001,2025-01-04_21h45.02.125,IAT(Formal),2021.2.3,Win32,142.8571429,,,,,,,,,,,,,,,,,,,,,,,,,,,,,,,,,,,,,,,,,,,,,,,,,,,,俺,i,,,i,1,0.853,1,57,137,64,1,,
,,,,,,,,,,,,,,1,001,2025-01-04_21h45.02.125,IAT(Formal),2021.2.3,Win32,142.8571429,,,,,,,,,,,,,,,,,,,,,,,,,,,,,,,,,,,,,,,,,,,,,,,,,,,,聪明,e,,,e,1,0.7773,1,58,138,12,1,,
,,,,,,,,,,,,,,1,001,2025-01-04_21h45.02.125,IAT(Formal),2021.2.3,Win32,142.8571429,,,,,,,,,,,,,,,,,,,,,,,,,,,,,,,,,,,,,,,,,,,,,,,,,,,,自己,i,,,i,1,0.56,1,59,139,73,1,,
,,,,,,,,,,,,,,1,001,2025-01-04_21h45.02.125,IAT(Formal),2021.2.3,Win32,142.8571429,,,,,,,,,,,,,,,,,,,,,,,,,,,,,,,,,,,,,,,,,,,,,,,,,,,,他们,e,,,e,1,0.6093,1,60,140,56,1,,
,,,,,,,,,,,,,,1,001,2025-01-04_21h45.02.125,IAT(Formal),2021.2.3,Win32,142.8571429,,,,,,,,,,,,,,,,,,,,,,,,,,,,,,,,,,,,,,,,,,,,,,,,,,,,其他,e,,,e,1,0.6665,1,61,141,9,1,,
,,,,,,,,,,,,,,1,001,2025-01-04_21h45.02.125,IAT(Formal),2021.2.3,Win32,142.8571429,,,,,,,,,,,,,,,,,,,,,,,,,,,,,,,,,,,,,,,,,,,,,,,,,,,,鲁莽,i,,,i,1,0.8886,1,62,142,38,1,,
,,,,,,,,,,,,,,1,001,2025-01-04_21h45.02.125,IAT(Formal),2021.2.3,Win32,142.8571429,,,,,,,,,,,,,,,,,,,,,,,,,,,,,,,,,,,,,,,,,,,,,,,,,,,,固执,i,,,i,1,0.5851,1,63,143,47,1,,
,,,,,,,,,,,,,,1,001,2025-01-04_21h45.02.125,IAT(Formal),2021.2.3,Win32,142.8571429,,,,,,,,,,,,,,,,,,,,,,,,,,,,,,,,,,,,,,,,,,,,,,,,,,,,消极,i,,,i,1,0.7148,1,64,144,35,1,,
,,,,,,,,,,,,,,1,001,2025-01-04_21h45.02.125,IAT(Formal),2021.2.3,Win32,142.8571429,,,,,,,,,,,,,,,,,,,,,,,,,,,,,,,,,,,,,,,,,,,,,,,,,,,,他的,e,,,i,0,1.0982,1,65,145,57,1,,
,,,,,,,,,,,,,,1,001,2025-01-04_21h45.02.125,IAT(Formal),2021.2.3,Win32,142.8571429,,,,,,,,,,,,,,,,,,,,,,,,,,,,,,,,,,,,,,,,,,,,,,,,,,,,凶狠,i,,,i,1,1.0401,1,66,146,42,1,,
,,,,,,,,,,,,,,1,001,2025-01-04_21h45.02.125,IAT(Formal),2021.2.3,Win32,142.8571429,,,,,,,,,,,,,,,,,,,,,,,,,,,,,,,,,,,,,,,,,,,,,,,,,,,,暴躁,i,,,i,1,0.6521,1,67,147,44,1,,
,,,,,,,,,,,,,,1,001,2025-01-04_21h45.02.125,IAT(Formal),2021.2.3,Win32,142.8571429,,,,,,,,,,,,,,,,,,,,,,,,,,,,,,,,,,,,,,,,,,,,,,,,,,,,他们,e,,,e,1,0.919,1,68,148,6,1,,
,,,,,,,,,,,,,,1,001,2025-01-04_21h45.02.125,IAT(Formal),2021.2.3,Win32,142.8571429,,,,,,,,,,,,,,,,,,,,,,,,,,,,,,,,,,,,,,,,,,,,,,,,,,,,他的,e,,,e,1,0.6136,1,69,149,67,1,,
,,,,,,,,,,,,,,1,001,2025-01-04_21h45.02.125,IAT(Formal),2021.2.3,Win32,142.8571429,,,,,,,,,,,,,,,,,,,,,,,,,,,,,,,,,,,,,,,,,,,,,,,,,,,,他的,e,,,e,1,0.6968,1,70,150,7,1,,
,,,,,,,,,,,,,,1,001,2025-01-04_21h45.02.125,IAT(Formal),2021.2.3,Win32,142.8571429,,,,,,,,,,,,,,,,,,,,,,,,,,,,,,,,,,,,,,,,,,,,,,,,,,,,正直,e,,,i,0,0.7726,1,71,151,16,1,,
,,,,,,,,,,,,,,1,001,2025-01-04_21h45.02.125,IAT(Formal),2021.2.3,Win32,142.8571429,,,,,,,,,,,,,,,,,,,,,,,,,,,,,,,,,,,,,,,,,,,,,,,,,,,,他,e,,,e,1,0.654,1,72,152,75,1,,
,,,,,,,,,,,,,,1,001,2025-01-04_21h45.02.125,IAT(Formal),2021.2.3,Win32,142.8571429,,,,,,,,,,,,,,,,,,,,,,,,,,,,,,,,,,,,,,,,,,,,,,,,,,,,认真,e,,,i,0,1.006,1,73,153,20,1,,
,,,,,,,,,,,,,,1,001,2025-01-04_21h45.02.125,IAT(Formal),2021.2.3,Win32,142.8571429,,,,,,,,,,,,,,,,,,,,,,,,,,,,,,,,,,,,,,,,,,,,,,,,,,,,我,i,,,i,1,0.8046,1,74,154,50,1,,
,,,,,,,,,,,,,,1,001,2025-01-04_21h45.02.125,IAT(Formal),2021.2.3,Win32,142.8571429,,,,,,,,,,,,,,,,,,,,,,,,,,,,,,,,,,,,,,,,,,,,,,,,,,,,他,e,,,e,1,0.7784,1,75,155,65,1,,
,,,,,,,,,,,,,,1,001,2025-01-04_21h45.02.125,IAT(Formal),2021.2.3,Win32,142.8571429,,,,,,,,,,,,,,,,,,,,,,,,,,,,,,,,,,,,,,,,,,,,,,,,,,,,他,e,,,e,1,0.6879,1,76,156,55,1,,
,,,,,,,,,,,,,,1,001,2025-01-04_21h45.02.125,IAT(Formal),2021.2.3,Win32,142.8571429,,,,,,,,,,,,,,,,,,,,,,,,,,,,,,,,,,,,,,,,,,,,,,,,,,,,我的,i,,,i,1,0.6387,1,77,157,61,1,,
,,,,,,,,,,,,,,1,001,2025-01-04_21h45.02.125,IAT(Formal),2021.2.3,Win32,142.8571429,,,,,,,,,,,,,,,,,,,,,,,,,,,,,,,,,,,,,,,,,,,,,,,,,,,,其他,e,,,e,1,0.9298,1,78,158,79,1,,
,,,,,,,,,,,,,,1,001,2025-01-04_21h45.02.125,IAT(Formal),2021.2.3,Win32,142.8571429,,,,,,,,,,,,,,,,,,,,,,,,,,,,,,,,,,,,,,,,,,,,,,,,,,,,诚恳,e,,,i,0,0.6412,1,79,159,29,1,,
,,,,,,,,,,,,,,1,001,2025-01-04_21h45.02.125,IAT(Formal),2021.2.3,Win32,142.8571429,,,,,,,,,,,,,,,,,,,,,,,,,,,,,,,,,,,,,,,,,,,,,,,,,,,,,,,,,,,,,,,,space,1.6606