﻿Instruction1.keys,Instruction1.rt,Instruction2.keys,Instruction2.rt,key_resp_iso.keys,key_resp_iso.corr,key_resp_iso.rt,Practice_01.thisRepN,Practice_01.thisTrialN,Practice_01.thisN,Practice_01.thisIndex,Practice_01.ran,Words,ans,participant,session,date,expName,psychopyVersion,OS,frameRate,key_resp_3.keys,key_resp_3.rt,key_resp_ipn.keys,key_resp_ipn.corr,key_resp_ipn.rt,Practice_02.thisRepN,Practice_02.thisTrialN,Practice_02.thisN,Practice_02.thisIndex,Practice_02.ran,Words_ipn,ans_ipn,key_resp_4.keys,key_resp_4.rt,key_resp_t1.keys,key_resp_t1.corr,key_resp_t1.rt,Practice_T1.thisRepN,Practice_T1.thisTrialN,Practice_T1.thisN,Practice_T1.thisIndex,Practice_T1.ran,Words_t1,ans_t1,key_resp_5.keys,key_resp_5.rt,Formal_T1.thisRepN,Formal_T1.thisTrialN,Formal_T1.thisN,Formal_T1.thisIndex,Formal_T1.ran,key_resp_6.keys,key_resp_6.rt,key_resp_iso_reverse.keys,key_resp_iso_reverse.corr,key_resp_iso_reverse.rt,Practice_iso_Reverse.thisRepN,Practice_iso_Reverse.thisTrialN,Practice_iso_Reverse.thisN,Practice_iso_Reverse.thisIndex,Practice_iso_Reverse.ran,key_resp_7.keys,key_resp_7.rt,key_resp_t2_Practice.keys,key_resp_t2_Practice.corr,key_resp_t2_Practice.rt,Practice_t2_Reverse.thisRepN,Practice_t2_Reverse.thisTrialN,Practice_t2_Reverse.thisN,Practice_t2_Reverse.thisIndex,Practice_t2_Reverse.ran,Words_t2,ans_t2,key_resp_8.keys,key_resp_8.rt,key_resp_t2.keys,key_resp_t2.corr,Formal_t2_reverse.thisRepN,Formal_t2_reverse.thisTrialN,Formal_t2_reverse.thisN,Formal_t2_reverse.thisIndex,Formal_t2_reverse.ran,key_resp_t2.rt,key_instruct.keys,key_instruct.rt
space,11.2431,space,20.1896,e,1,0.9868,0,0,0,1,1,我的,e,1,001,2025-01-05_21h44.12.930,IAT(Formal),2021.2.3,Win32,30.03003003,,,,,,,,,,,,,,,,,,,,,,,,,,,,,,,,,,,,,,,,,,,,,,,,,,,,,,,,,,,,,,,,,
,,,,i,1,0.657,0,1,1,5,1,他,i,1,001,2025-01-05_21h44.12.930,IAT(Formal),2021.2.3,Win32,30.03003003,,,,,,,,,,,,,,,,,,,,,,,,,,,,,,,,,,,,,,,,,,,,,,,,,,,,,,,,,,,,,,,,,
,,,,i,1,0.9734,0,2,2,9,1,其他,i,1,001,2025-01-05_21h44.12.930,IAT(Formal),2021.2.3,Win32,30.03003003,,,,,,,,,,,,,,,,,,,,,,,,,,,,,,,,,,,,,,,,,,,,,,,,,,,,,,,,,,,,,,,,,
,,,,i,1,0.5677,0,3,3,8,1,他人,i,1,001,2025-01-05_21h44.12.930,IAT(Formal),2021.2.3,Win32,30.03003003,,,,,,,,,,,,,,,,,,,,,,,,,,,,,,,,,,,,,,,,,,,,,,,,,,,,,,,,,,,,,,,,,
,,,,i,1,0.6959,0,4,4,6,1,他们,i,1,001,2025-01-05_21h44.12.930,IAT(Formal),2021.2.3,Win32,30.03003003,,,,,,,,,,,,,,,,,,,,,,,,,,,,,,,,,,,,,,,,,,,,,,,,,,,,,,,,,,,,,,,,,
,,,,i,1,0.7208,0,5,5,7,1,他的,i,1,001,2025-01-05_21h44.12.930,IAT(Formal),2021.2.3,Win32,30.03003003,,,,,,,,,,,,,,,,,,,,,,,,,,,,,,,,,,,,,,,,,,,,,,,,,,,,,,,,,,,,,,,,,
,,,,e,1,0.8398,0,6,6,0,1,我,e,1,001,2025-01-05_21h44.12.930,IAT(Formal),2021.2.3,Win32,30.03003003,,,,,,,,,,,,,,,,,,,,,,,,,,,,,,,,,,,,,,,,,,,,,,,,,,,,,,,,,,,,,,,,,
,,,,e,1,1.0632,0,7,7,4,1,俺,e,1,001,2025-01-05_21h44.12.930,IAT(Formal),2021.2.3,Win32,30.03003003,,,,,,,,,,,,,,,,,,,,,,,,,,,,,,,,,,,,,,,,,,,,,,,,,,,,,,,,,,,,,,,,,
,,,,e,1,0.7633,0,8,8,2,1,我们,e,1,001,2025-01-05_21h44.12.930,IAT(Formal),2021.2.3,Win32,30.03003003,,,,,,,,,,,,,,,,,,,,,,,,,,,,,,,,,,,,,,,,,,,,,,,,,,,,,,,,,,,,,,,,,
,,,,e,1,0.763,0,9,9,3,1,自己,e,1,001,2025-01-05_21h44.12.930,IAT(Formal),2021.2.3,Win32,30.03003003,,,,,,,,,,,,,,,,,,,,,,,,,,,,,,,,,,,,,,,,,,,,,,,,,,,,,,,,,,,,,,,,,
,,,,,,,,,,,,,,1,001,2025-01-05_21h44.12.930,IAT(Formal),2021.2.3,Win32,30.03003003,space,30.1464,i,1,0.8216,0,0,0,38,1,轻率,i,,,,,,,,,,,,,,,,,,,,,,,,,,,,,,,,,,,,,,,,,,,,,,,,,,,,,
,,,,,,,,,,,,,,1,001,2025-01-05_21h44.12.930,IAT(Formal),2021.2.3,Win32,30.03003003,,,i,1,1.1329,0,1,1,34,1,暴躁,i,,,,,,,,,,,,,,,,,,,,,,,,,,,,,,,,,,,,,,,,,,,,,,,,,,,,,
,,,,,,,,,,,,,,1,001,2025-01-05_21h44.12.930,IAT(Formal),2021.2.3,Win32,30.03003003,,,i,1,0.9294,0,2,2,31,1,散漫,i,,,,,,,,,,,,,,,,,,,,,,,,,,,,,,,,,,,,,,,,,,,,,,,,,,,,,
,,,,,,,,,,,,,,1,001,2025-01-05_21h44.12.930,IAT(Formal),2021.2.3,Win32,30.03003003,,,,0,,0,3,3,2,1,聪明,e,,,,,,,,,,,,,,,,,,,,,,,,,,,,,,,,,,,,,,,,,,,,,,,,,,,,,
,,,,,,,,,,,,,,1,001,2025-01-05_21h44.12.930,IAT(Formal),2021.2.3,Win32,30.03003003,,,e,1,0.7455,0,4,4,11,1,稳重,e,,,,,,,,,,,,,,,,,,,,,,,,,,,,,,,,,,,,,,,,,,,,,,,,,,,,,
,,,,,,,,,,,,,,1,001,2025-01-05_21h44.12.930,IAT(Formal),2021.2.3,Win32,30.03003003,,,i,0,0.8262,0,5,5,12,1,无私,e,,,,,,,,,,,,,,,,,,,,,,,,,,,,,,,,,,,,,,,,,,,,,,,,,,,,,
,,,,,,,,,,,,,,1,001,2025-01-05_21h44.12.930,IAT(Formal),2021.2.3,Win32,30.03003003,,,e,1,1.2449,0,6,6,9,1,机智,e,,,,,,,,,,,,,,,,,,,,,,,,,,,,,,,,,,,,,,,,,,,,,,,,,,,,,
,,,,,,,,,,,,,,1,001,2025-01-05_21h44.12.930,IAT(Formal),2021.2.3,Win32,30.03003003,,,i,1,0.9702,0,7,7,20,1,卑鄙,i,,,,,,,,,,,,,,,,,,,,,,,,,,,,,,,,,,,,,,,,,,,,,,,,,,,,,
,,,,,,,,,,,,,,1,001,2025-01-05_21h44.12.930,IAT(Formal),2021.2.3,Win32,30.03003003,,,i,1,0.9787,0,8,8,29,1,冒失,i,,,,,,,,,,,,,,,,,,,,,,,,,,,,,,,,,,,,,,,,,,,,,,,,,,,,,
,,,,,,,,,,,,,,1,001,2025-01-05_21h44.12.930,IAT(Formal),2021.2.3,Win32,30.03003003,,,e,1,0.8461,0,9,9,17,1,热情,e,,,,,,,,,,,,,,,,,,,,,,,,,,,,,,,,,,,,,,,,,,,,,,,,,,,,,
,,,,,,,,,,,,,,1,001,2025-01-05_21h44.12.930,IAT(Formal),2021.2.3,Win32,30.03003003,,,i,1,0.7723,0,10,10,37,1,固执,i,,,,,,,,,,,,,,,,,,,,,,,,,,,,,,,,,,,,,,,,,,,,,,,,,,,,,
,,,,,,,,,,,,,,1,001,2025-01-05_21h44.12.930,IAT(Formal),2021.2.3,Win32,30.03003003,,,i,1,0.9647,0,11,11,25,1,消极,i,,,,,,,,,,,,,,,,,,,,,,,,,,,,,,,,,,,,,,,,,,,,,,,,,,,,,
,,,,,,,,,,,,,,1,001,2025-01-05_21h44.12.930,IAT(Formal),2021.2.3,Win32,30.03003003,,,e,1,1.1049,0,12,12,18,1,活泼,e,,,,,,,,,,,,,,,,,,,,,,,,,,,,,,,,,,,,,,,,,,,,,,,,,,,,,
,,,,,,,,,,,,,,1,001,2025-01-05_21h44.12.930,IAT(Formal),2021.2.3,Win32,30.03003003,,,i,1,0.7948,0,13,13,30,1,执拗,i,,,,,,,,,,,,,,,,,,,,,,,,,,,,,,,,,,,,,,,,,,,,,,,,,,,,,
,,,,,,,,,,,,,,1,001,2025-01-05_21h44.12.930,IAT(Formal),2021.2.3,Win32,30.03003003,,,i,0,1.3213,0,14,14,0,1,优秀,e,,,,,,,,,,,,,,,,,,,,,,,,,,,,,,,,,,,,,,,,,,,,,,,,,,,,,
,,,,,,,,,,,,,,1,001,2025-01-05_21h44.12.930,IAT(Formal),2021.2.3,Win32,30.03003003,,,e,1,0.958,0,15,15,15,1,细腻,e,,,,,,,,,,,,,,,,,,,,,,,,,,,,,,,,,,,,,,,,,,,,,,,,,,,,,
,,,,,,,,,,,,,,1,001,2025-01-05_21h44.12.930,IAT(Formal),2021.2.3,Win32,30.03003003,,,e,1,0.7987,0,16,16,13,1,公正,e,,,,,,,,,,,,,,,,,,,,,,,,,,,,,,,,,,,,,,,,,,,,,,,,,,,,,
,,,,,,,,,,,,,,1,001,2025-01-05_21h44.12.930,IAT(Formal),2021.2.3,Win32,30.03003003,,,i,1,0.5905,0,17,17,27,1,傲慢,i,,,,,,,,,,,,,,,,,,,,,,,,,,,,,,,,,,,,,,,,,,,,,,,,,,,,,
,,,,,,,,,,,,,,1,001,2025-01-05_21h44.12.930,IAT(Formal),2021.2.3,Win32,30.03003003,,,i,1,0.8906,0,18,18,26,1,自卑,i,,,,,,,,,,,,,,,,,,,,,,,,,,,,,,,,,,,,,,,,,,,,,,,,,,,,,
,,,,,,,,,,,,,,1,001,2025-01-05_21h44.12.930,IAT(Formal),2021.2.3,Win32,30.03003003,,,e,1,0.8043,0,19,19,7,1,勇敢,e,,,,,,,,,,,,,,,,,,,,,,,,,,,,,,,,,,,,,,,,,,,,,,,,,,,,,
,,,,,,,,,,,,,,1,001,2025-01-05_21h44.12.930,IAT(Formal),2021.2.3,Win32,30.03003003,,,e,1,0.8193,0,20,20,8,1,勤奋,e,,,,,,,,,,,,,,,,,,,,,,,,,,,,,,,,,,,,,,,,,,,,,,,,,,,,,
,,,,,,,,,,,,,,1,001,2025-01-05_21h44.12.930,IAT(Formal),2021.2.3,Win32,30.03003003,,,i,1,0.7005,0,21,21,35,1,猖狂,i,,,,,,,,,,,,,,,,,,,,,,,,,,,,,,,,,,,,,,,,,,,,,,,,,,,,,
,,,,,,,,,,,,,,1,001,2025-01-05_21h44.12.930,IAT(Formal),2021.2.3,Win32,30.03003003,,,i,1,0.6733,0,22,22,39,1,下贱,i,,,,,,,,,,,,,,,,,,,,,,,,,,,,,,,,,,,,,,,,,,,,,,,,,,,,,
,,,,,,,,,,,,,,1,001,2025-01-05_21h44.12.930,IAT(Formal),2021.2.3,Win32,30.03003003,,,i,1,0.5387,0,23,23,33,1,自私,i,,,,,,,,,,,,,,,,,,,,,,,,,,,,,,,,,,,,,,,,,,,,,,,,,,,,,
,,,,,,,,,,,,,,1,001,2025-01-05_21h44.12.930,IAT(Formal),2021.2.3,Win32,30.03003003,,,i,1,0.644,0,24,24,36,1,野蛮,i,,,,,,,,,,,,,,,,,,,,,,,,,,,,,,,,,,,,,,,,,,,,,,,,,,,,,
,,,,,,,,,,,,,,1,001,2025-01-05_21h44.12.930,IAT(Formal),2021.2.3,Win32,30.03003003,,,i,1,0.5398,0,25,25,23,1,刻薄,i,,,,,,,,,,,,,,,,,,,,,,,,,,,,,,,,,,,,,,,,,,,,,,,,,,,,,
,,,,,,,,,,,,,,1,001,2025-01-05_21h44.12.930,IAT(Formal),2021.2.3,Win32,30.03003003,,,i,1,0.6135,0,26,26,21,1,虚伪,i,,,,,,,,,,,,,,,,,,,,,,,,,,,,,,,,,,,,,,,,,,,,,,,,,,,,,
,,,,,,,,,,,,,,1,001,2025-01-05_21h44.12.930,IAT(Formal),2021.2.3,Win32,30.03003003,,,e,1,0.7403,0,27,27,5,1,诚实,e,,,,,,,,,,,,,,,,,,,,,,,,,,,,,,,,,,,,,,,,,,,,,,,,,,,,,
,,,,,,,,,,,,,,1,001,2025-01-05_21h44.12.930,IAT(Formal),2021.2.3,Win32,30.03003003,,,e,1,0.8531,0,28,28,4,1,乐观,e,,,,,,,,,,,,,,,,,,,,,,,,,,,,,,,,,,,,,,,,,,,,,,,,,,,,,
,,,,,,,,,,,,,,1,001,2025-01-05_21h44.12.930,IAT(Formal),2021.2.3,Win32,30.03003003,,,i,0,0.8331,0,29,29,19,1,诚恳,e,,,,,,,,,,,,,,,,,,,,,,,,,,,,,,,,,,,,,,,,,,,,,,,,,,,,,
,,,,,,,,,,,,,,1,001,2025-01-05_21h44.12.930,IAT(Formal),2021.2.3,Win32,30.03003003,,,e,1,0.7017,0,30,30,1,1,崇高,e,,,,,,,,,,,,,,,,,,,,,,,,,,,,,,,,,,,,,,,,,,,,,,,,,,,,,
,,,,,,,,,,,,,,1,001,2025-01-05_21h44.12.930,IAT(Formal),2021.2.3,Win32,30.03003003,,,e,1,0.7218,0,31,31,3,1,杰出,e,,,,,,,,,,,,,,,,,,,,,,,,,,,,,,,,,,,,,,,,,,,,,,,,,,,,,
,,,,,,,,,,,,,,1,001,2025-01-05_21h44.12.930,IAT(Formal),2021.2.3,Win32,30.03003003,,,e,1,0.9678,0,32,32,14,1,朴实,e,,,,,,,,,,,,,,,,,,,,,,,,,,,,,,,,,,,,,,,,,,,,,,,,,,,,,
,,,,,,,,,,,,,,1,001,2025-01-05_21h44.12.930,IAT(Formal),2021.2.3,Win32,30.03003003,,,i,1,0.648,0,33,33,22,1,愚蠢,i,,,,,,,,,,,,,,,,,,,,,,,,,,,,,,,,,,,,,,,,,,,,,,,,,,,,,
,,,,,,,,,,,,,,1,001,2025-01-05_21h44.12.930,IAT(Formal),2021.2.3,Win32,30.03003003,,,i,1,0.6706,0,34,34,28,1,鲁莽,i,,,,,,,,,,,,,,,,,,,,,,,,,,,,,,,,,,,,,,,,,,,,,,,,,,,,,
,,,,,,,,,,,,,,1,001,2025-01-05_21h44.12.930,IAT(Formal),2021.2.3,Win32,30.03003003,,,e,1,0.8103,0,35,35,10,1,认真,e,,,,,,,,,,,,,,,,,,,,,,,,,,,,,,,,,,,,,,,,,,,,,,,,,,,,,
,,,,,,,,,,,,,,1,001,2025-01-05_21h44.12.930,IAT(Formal),2021.2.3,Win32,30.03003003,,,i,1,0.9523,0,36,36,32,1,凶狠,i,,,,,,,,,,,,,,,,,,,,,,,,,,,,,,,,,,,,,,,,,,,,,,,,,,,,,
,,,,,,,,,,,,,,1,001,2025-01-05_21h44.12.930,IAT(Formal),2021.2.3,Win32,30.03003003,,,e,1,1.0601,0,37,37,16,1,冷静,e,,,,,,,,,,,,,,,,,,,,,,,,,,,,,,,,,,,,,,,,,,,,,,,,,,,,,
,,,,,,,,,,,,,,1,001,2025-01-05_21h44.12.930,IAT(Formal),2021.2.3,Win32,30.03003003,,,i,1,0.8058,0,38,38,24,1,悲观,i,,,,,,,,,,,,,,,,,,,,,,,,,,,,,,,,,,,,,,,,,,,,,,,,,,,,,
,,,,,,,,,,,,,,1,001,2025-01-05_21h44.12.930,IAT(Formal),2021.2.3,Win32,30.03003003,,,e,1,1.1918,0,39,39,6,1,正直,e,,,,,,,,,,,,,,,,,,,,,,,,,,,,,,,,,,,,,,,,,,,,,,,,,,,,,
,,,,,,,,,,,,,,1,001,2025-01-05_21h44.12.930,IAT(Formal),2021.2.3,Win32,30.03003003,,,,,,,,,,,,,space,4.4035,i,1,0.9069,0,0,0,65,1,他,i,,,,,,,,,,,,,,,,,,,,,,,,,,,,,,,,,,,,,,,,,
,,,,,,,,,,,,,,1,001,2025-01-05_21h44.12.930,IAT(Formal),2021.2.3,Win32,30.03003003,,,,,,,,,,,,,,,i,1,0.6219,0,1,1,77,1,他的,i,,,,,,,,,,,,,,,,,,,,,,,,,,,,,,,,,,,,,,,,,
,,,,,,,,,,,,,,1,001,2025-01-05_21h44.12.930,IAT(Formal),2021.2.3,Win32,30.03003003,,,,,,,,,,,,,,,i,1,0.515,0,2,2,49,1,下贱,i,,,,,,,,,,,,,,,,,,,,,,,,,,,,,,,,,,,,,,,,,
,,,,,,,,,,,,,,1,001,2025-01-05_21h44.12.930,IAT(Formal),2021.2.3,Win32,30.03003003,,,,,,,,,,,,,,,e,1,0.704,0,3,3,17,1,勇敢,e,,,,,,,,,,,,,,,,,,,,,,,,,,,,,,,,,,,,,,,,,
,,,,,,,,,,,,,,1,001,2025-01-05_21h44.12.930,IAT(Formal),2021.2.3,Win32,30.03003003,,,,,,,,,,,,,,,e,1,0.9914,0,4,4,24,1,朴实,e,,,,,,,,,,,,,,,,,,,,,,,,,,,,,,,,,,,,,,,,,
,,,,,,,,,,,,,,1,001,2025-01-05_21h44.12.930,IAT(Formal),2021.2.3,Win32,30.03003003,,,,,,,,,,,,,,,i,1,0.7023,0,5,5,69,1,其他,i,,,,,,,,,,,,,,,,,,,,,,,,,,,,,,,,,,,,,,,,,
,,,,,,,,,,,,,,1,001,2025-01-05_21h44.12.930,IAT(Formal),2021.2.3,Win32,30.03003003,,,,,,,,,,,,,,,e,1,0.6985,0,6,6,15,1,诚实,e,,,,,,,,,,,,,,,,,,,,,,,,,,,,,,,,,,,,,,,,,
,,,,,,,,,,,,,,1,001,2025-01-05_21h44.12.930,IAT(Formal),2021.2.3,Win32,30.03003003,,,,,,,,,,,,,,,e,1,0.6689,0,7,7,23,1,公正,e,,,,,,,,,,,,,,,,,,,,,,,,,,,,,,,,,,,,,,,,,
,,,,,,,,,,,,,,1,001,2025-01-05_21h44.12.930,IAT(Formal),2021.2.3,Win32,30.03003003,,,,,,,,,,,,,,,e,1,0.5301,0,8,8,13,1,杰出,e,,,,,,,,,,,,,,,,,,,,,,,,,,,,,,,,,,,,,,,,,
,,,,,,,,,,,,,,1,001,2025-01-05_21h44.12.930,IAT(Formal),2021.2.3,Win32,30.03003003,,,,,,,,,,,,,,,i,0,1.0293,0,9,9,1,1,我的,e,,,,,,,,,,,,,,,,,,,,,,,,,,,,,,,,,,,,,,,,,
,,,,,,,,,,,,,,1,001,2025-01-05_21h44.12.930,IAT(Formal),2021.2.3,Win32,30.03003003,,,,,,,,,,,,,,,e,1,0.6422,0,10,10,2,1,我们,e,,,,,,,,,,,,,,,,,,,,,,,,,,,,,,,,,,,,,,,,,
,,,,,,,,,,,,,,1,001,2025-01-05_21h44.12.930,IAT(Formal),2021.2.3,Win32,30.03003003,,,,,,,,,,,,,,,i,1,0.8681,0,11,11,35,1,消极,i,,,,,,,,,,,,,,,,,,,,,,,,,,,,,,,,,,,,,,,,,
,,,,,,,,,,,,,,1,001,2025-01-05_21h44.12.930,IAT(Formal),2021.2.3,Win32,30.03003003,,,,,,,,,,,,,,,e,1,0.6253,0,12,12,18,1,勤奋,e,,,,,,,,,,,,,,,,,,,,,,,,,,,,,,,,,,,,,,,,,
,,,,,,,,,,,,,,1,001,2025-01-05_21h44.12.930,IAT(Formal),2021.2.3,Win32,30.03003003,,,,,,,,,,,,,,,e,1,0.8562,0,13,13,63,1,自己,e,,,,,,,,,,,,,,,,,,,,,,,,,,,,,,,,,,,,,,,,,
,,,,,,,,,,,,,,1,001,2025-01-05_21h44.12.930,IAT(Formal),2021.2.3,Win32,30.03003003,,,,,,,,,,,,,,,e,1,1.1944,0,14,14,61,1,我的,e,,,,,,,,,,,,,,,,,,,,,,,,,,,,,,,,,,,,,,,,,
,,,,,,,,,,,,,,1,001,2025-01-05_21h44.12.930,IAT(Formal),2021.2.3,Win32,30.03003003,,,,,,,,,,,,,,,e,1,0.547,0,15,15,52,1,我们,e,,,,,,,,,,,,,,,,,,,,,,,,,,,,,,,,,,,,,,,,,
,,,,,,,,,,,,,,1,001,2025-01-05_21h44.12.930,IAT(Formal),2021.2.3,Win32,30.03003003,,,,,,,,,,,,,,,i,1,0.6197,0,16,16,34,1,悲观,i,,,,,,,,,,,,,,,,,,,,,,,,,,,,,,,,,,,,,,,,,
,,,,,,,,,,,,,,1,001,2025-01-05_21h44.12.930,IAT(Formal),2021.2.3,Win32,30.03003003,,,,,,,,,,,,,,,e,1,0.8261,0,17,17,21,1,稳重,e,,,,,,,,,,,,,,,,,,,,,,,,,,,,,,,,,,,,,,,,,
,,,,,,,,,,,,,,1,001,2025-01-05_21h44.12.930,IAT(Formal),2021.2.3,Win32,30.03003003,,,,,,,,,,,,,,,i,1,0.6693,0,18,18,66,1,他们,i,,,,,,,,,,,,,,,,,,,,,,,,,,,,,,,,,,,,,,,,,
,,,,,,,,,,,,,,1,001,2025-01-05_21h44.12.930,IAT(Formal),2021.2.3,Win32,30.03003003,,,,,,,,,,,,,,,e,1,0.7063,0,19,19,50,1,我,e,,,,,,,,,,,,,,,,,,,,,,,,,,,,,,,,,,,,,,,,,
,,,,,,,,,,,,,,1,001,2025-01-05_21h44.12.930,IAT(Formal),2021.2.3,Win32,30.03003003,,,,,,,,,,,,,,,i,1,0.6945,0,20,20,36,1,自卑,i,,,,,,,,,,,,,,,,,,,,,,,,,,,,,,,,,,,,,,,,,
,,,,,,,,,,,,,,1,001,2025-01-05_21h44.12.930,IAT(Formal),2021.2.3,Win32,30.03003003,,,,,,,,,,,,,,,i,1,1.0059,0,21,21,57,1,他的,i,,,,,,,,,,,,,,,,,,,,,,,,,,,,,,,,,,,,,,,,,
,,,,,,,,,,,,,,1,001,2025-01-05_21h44.12.930,IAT(Formal),2021.2.3,Win32,30.03003003,,,,,,,,,,,,,,,e,1,0.8658,0,22,22,25,1,细腻,e,,,,,,,,,,,,,,,,,,,,,,,,,,,,,,,,,,,,,,,,,
,,,,,,,,,,,,,,1,001,2025-01-05_21h44.12.930,IAT(Formal),2021.2.3,Win32,30.03003003,,,,,,,,,,,,,,,i,1,0.8626,0,23,23,45,1,猖狂,i,,,,,,,,,,,,,,,,,,,,,,,,,,,,,,,,,,,,,,,,,
,,,,,,,,,,,,,,1,001,2025-01-05_21h44.12.930,IAT(Formal),2021.2.3,Win32,30.03003003,,,,,,,,,,,,,,,i,1,0.7843,0,24,24,9,1,其他,i,,,,,,,,,,,,,,,,,,,,,,,,,,,,,,,,,,,,,,,,,
,,,,,,,,,,,,,,1,001,2025-01-05_21h44.12.930,IAT(Formal),2021.2.3,Win32,30.03003003,,,,,,,,,,,,,,,e,1,0.6789,0,25,25,60,1,我,e,,,,,,,,,,,,,,,,,,,,,,,,,,,,,,,,,,,,,,,,,
,,,,,,,,,,,,,,1,001,2025-01-05_21h44.12.930,IAT(Formal),2021.2.3,Win32,30.03003003,,,,,,,,,,,,,,,e,1,0.8742,0,26,26,71,1,我的,e,,,,,,,,,,,,,,,,,,,,,,,,,,,,,,,,,,,,,,,,,
,,,,,,,,,,,,,,1,001,2025-01-05_21h44.12.930,IAT(Formal),2021.2.3,Win32,30.03003003,,,,,,,,,,,,,,,e,1,0.8127,0,27,27,20,1,认真,e,,,,,,,,,,,,,,,,,,,,,,,,,,,,,,,,,,,,,,,,,
,,,,,,,,,,,,,,1,001,2025-01-05_21h44.12.930,IAT(Formal),2021.2.3,Win32,30.03003003,,,,,,,,,,,,,,,e,1,0.7421,0,28,28,70,1,我,e,,,,,,,,,,,,,,,,,,,,,,,,,,,,,,,,,,,,,,,,,
,,,,,,,,,,,,,,1,001,2025-01-05_21h44.12.930,IAT(Formal),2021.2.3,Win32,30.03003003,,,,,,,,,,,,,,,e,1,0.7232,0,29,29,27,1,热情,e,,,,,,,,,,,,,,,,,,,,,,,,,,,,,,,,,,,,,,,,,
,,,,,,,,,,,,,,1,001,2025-01-05_21h44.12.930,IAT(Formal),2021.2.3,Win32,30.03003003,,,,,,,,,,,,,,,e,1,0.5952,0,30,30,19,1,机智,e,,,,,,,,,,,,,,,,,,,,,,,,,,,,,,,,,,,,,,,,,
,,,,,,,,,,,,,,1,001,2025-01-05_21h44.12.930,IAT(Formal),2021.2.3,Win32,30.03003003,,,,,,,,,,,,,,,i,1,0.775,0,31,31,5,1,他,i,,,,,,,,,,,,,,,,,,,,,,,,,,,,,,,,,,,,,,,,,
,,,,,,,,,,,,,,1,001,2025-01-05_21h44.12.930,IAT(Formal),2021.2.3,Win32,30.03003003,,,,,,,,,,,,,,,e,0,0.9018,0,32,32,58,1,他人,i,,,,,,,,,,,,,,,,,,,,,,,,,,,,,,,,,,,,,,,,,
,,,,,,,,,,,,,,1,001,2025-01-05_21h44.12.930,IAT(Formal),2021.2.3,Win32,30.03003003,,,,,,,,,,,,,,,i,1,0.6959,0,33,33,40,1,执拗,i,,,,,,,,,,,,,,,,,,,,,,,,,,,,,,,,,,,,,,,,,
,,,,,,,,,,,,,,1,001,2025-01-05_21h44.12.930,IAT(Formal),2021.2.3,Win32,30.03003003,,,,,,,,,,,,,,,i,1,0.5911,0,34,34,31,1,虚伪,i,,,,,,,,,,,,,,,,,,,,,,,,,,,,,,,,,,,,,,,,,
,,,,,,,,,,,,,,1,001,2025-01-05_21h44.12.930,IAT(Formal),2021.2.3,Win32,30.03003003,,,,,,,,,,,,,,,e,1,0.5266,0,35,35,64,1,俺,e,,,,,,,,,,,,,,,,,,,,,,,,,,,,,,,,,,,,,,,,,
,,,,,,,,,,,,,,1,001,2025-01-05_21h44.12.930,IAT(Formal),2021.2.3,Win32,30.03003003,,,,,,,,,,,,,,,i,1,0.7901,0,36,36,44,1,暴躁,i,,,,,,,,,,,,,,,,,,,,,,,,,,,,,,,,,,,,,,,,,
,,,,,,,,,,,,,,1,001,2025-01-05_21h44.12.930,IAT(Formal),2021.2.3,Win32,30.03003003,,,,,,,,,,,,,,,i,1,0.6431,0,37,37,39,1,冒失,i,,,,,,,,,,,,,,,,,,,,,,,,,,,,,,,,,,,,,,,,,
,,,,,,,,,,,,,,1,001,2025-01-05_21h44.12.930,IAT(Formal),2021.2.3,Win32,30.03003003,,,,,,,,,,,,,,,e,1,0.7037,0,38,38,4,1,俺,e,,,,,,,,,,,,,,,,,,,,,,,,,,,,,,,,,,,,,,,,,
,,,,,,,,,,,,,,1,001,2025-01-05_21h44.12.930,IAT(Formal),2021.2.3,Win32,30.03003003,,,,,,,,,,,,,,,i,1,1.2305,0,39,39,55,1,他,i,,,,,,,,,,,,,,,,,,,,,,,,,,,,,,,,,,,,,,,,,
,,,,,,,,,,,,,,1,001,2025-01-05_21h44.12.930,IAT(Formal),2021.2.3,Win32,30.03003003,,,,,,,,,,,,,,,e,1,0.5386,0,40,40,72,1,我们,e,,,,,,,,,,,,,,,,,,,,,,,,,,,,,,,,,,,,,,,,,
,,,,,,,,,,,,,,1,001,2025-01-05_21h44.12.930,IAT(Formal),2021.2.3,Win32,30.03003003,,,,,,,,,,,,,,,e,1,0.6327,0,41,41,11,1,崇高,e,,,,,,,,,,,,,,,,,,,,,,,,,,,,,,,,,,,,,,,,,
,,,,,,,,,,,,,,1,001,2025-01-05_21h44.12.930,IAT(Formal),2021.2.3,Win32,30.03003003,,,,,,,,,,,,,,,,0,,0,42,42,37,1,傲慢,i,,,,,,,,,,,,,,,,,,,,,,,,,,,,,,,,,,,,,,,,,
,,,,,,,,,,,,,,1,001,2025-01-05_21h44.12.930,IAT(Formal),2021.2.3,Win32,30.03003003,,,,,,,,,,,,,,,e,1,0.8965,0,43,43,22,1,无私,e,,,,,,,,,,,,,,,,,,,,,,,,,,,,,,,,,,,,,,,,,
,,,,,,,,,,,,,,1,001,2025-01-05_21h44.12.930,IAT(Formal),2021.2.3,Win32,30.03003003,,,,,,,,,,,,,,,e,1,0.8167,0,44,44,74,1,俺,e,,,,,,,,,,,,,,,,,,,,,,,,,,,,,,,,,,,,,,,,,
,,,,,,,,,,,,,,1,001,2025-01-05_21h44.12.930,IAT(Formal),2021.2.3,Win32,30.03003003,,,,,,,,,,,,,,,i,1,0.6581,0,45,45,8,1,他人,i,,,,,,,,,,,,,,,,,,,,,,,,,,,,,,,,,,,,,,,,,
,,,,,,,,,,,,,,1,001,2025-01-05_21h44.12.930,IAT(Formal),2021.2.3,Win32,30.03003003,,,,,,,,,,,,,,,i,1,0.7401,0,46,46,59,1,其他,i,,,,,,,,,,,,,,,,,,,,,,,,,,,,,,,,,,,,,,,,,
,,,,,,,,,,,,,,1,001,2025-01-05_21h44.12.930,IAT(Formal),2021.2.3,Win32,30.03003003,,,,,,,,,,,,,,,e,1,0.5099,0,47,47,10,1,优秀,e,,,,,,,,,,,,,,,,,,,,,,,,,,,,,,,,,,,,,,,,,
,,,,,,,,,,,,,,1,001,2025-01-05_21h44.12.930,IAT(Formal),2021.2.3,Win32,30.03003003,,,,,,,,,,,,,,,i,1,0.6405,0,48,48,43,1,自私,i,,,,,,,,,,,,,,,,,,,,,,,,,,,,,,,,,,,,,,,,,
,,,,,,,,,,,,,,1,001,2025-01-05_21h44.12.930,IAT(Formal),2021.2.3,Win32,30.03003003,,,,,,,,,,,,,,,i,1,0.8999,0,49,49,42,1,凶狠,i,,,,,,,,,,,,,,,,,,,,,,,,,,,,,,,,,,,,,,,,,
,,,,,,,,,,,,,,1,001,2025-01-05_21h44.12.930,IAT(Formal),2021.2.3,Win32,30.03003003,,,,,,,,,,,,,,,i,1,0.6461,0,50,50,46,1,野蛮,i,,,,,,,,,,,,,,,,,,,,,,,,,,,,,,,,,,,,,,,,,
,,,,,,,,,,,,,,1,001,2025-01-05_21h44.12.930,IAT(Formal),2021.2.3,Win32,30.03003003,,,,,,,,,,,,,,,i,1,0.5474,0,51,51,7,1,他的,i,,,,,,,,,,,,,,,,,,,,,,,,,,,,,,,,,,,,,,,,,
,,,,,,,,,,,,,,1,001,2025-01-05_21h44.12.930,IAT(Formal),2021.2.3,Win32,30.03003003,,,,,,,,,,,,,,,e,1,0.5817,0,52,52,51,1,我的,e,,,,,,,,,,,,,,,,,,,,,,,,,,,,,,,,,,,,,,,,,
,,,,,,,,,,,,,,1,001,2025-01-05_21h44.12.930,IAT(Formal),2021.2.3,Win32,30.03003003,,,,,,,,,,,,,,,e,1,0.6993,0,53,53,16,1,正直,e,,,,,,,,,,,,,,,,,,,,,,,,,,,,,,,,,,,,,,,,,
,,,,,,,,,,,,,,1,001,2025-01-05_21h44.12.930,IAT(Formal),2021.2.3,Win32,30.03003003,,,,,,,,,,,,,,,e,1,0.5614,0,54,54,28,1,活泼,e,,,,,,,,,,,,,,,,,,,,,,,,,,,,,,,,,,,,,,,,,
,,,,,,,,,,,,,,1,001,2025-01-05_21h44.12.930,IAT(Formal),2021.2.3,Win32,30.03003003,,,,,,,,,,,,,,,e,1,0.496,0,55,55,12,1,聪明,e,,,,,,,,,,,,,,,,,,,,,,,,,,,,,,,,,,,,,,,,,
,,,,,,,,,,,,,,1,001,2025-01-05_21h44.12.930,IAT(Formal),2021.2.3,Win32,30.03003003,,,,,,,,,,,,,,,e,0,0.3758,0,56,56,33,1,刻薄,i,,,,,,,,,,,,,,,,,,,,,,,,,,,,,,,,,,,,,,,,,
,,,,,,,,,,,,,,1,001,2025-01-05_21h44.12.930,IAT(Formal),2021.2.3,Win32,30.03003003,,,,,,,,,,,,,,,i,1,0.801,0,57,57,78,1,他人,i,,,,,,,,,,,,,,,,,,,,,,,,,,,,,,,,,,,,,,,,,
,,,,,,,,,,,,,,1,001,2025-01-05_21h44.12.930,IAT(Formal),2021.2.3,Win32,30.03003003,,,,,,,,,,,,,,,e,0,0.3948,0,58,58,56,1,他们,i,,,,,,,,,,,,,,,,,,,,,,,,,,,,,,,,,,,,,,,,,
,,,,,,,,,,,,,,1,001,2025-01-05_21h44.12.930,IAT(Formal),2021.2.3,Win32,30.03003003,,,,,,,,,,,,,,,i,1,0.8256,0,59,59,47,1,固执,i,,,,,,,,,,,,,,,,,,,,,,,,,,,,,,,,,,,,,,,,,
,,,,,,,,,,,,,,1,001,2025-01-05_21h44.12.930,IAT(Formal),2021.2.3,Win32,30.03003003,,,,,,,,,,,,,,,e,0,0.6607,0,60,60,48,1,轻率,i,,,,,,,,,,,,,,,,,,,,,,,,,,,,,,,,,,,,,,,,,
,,,,,,,,,,,,,,1,001,2025-01-05_21h44.12.930,IAT(Formal),2021.2.3,Win32,30.03003003,,,,,,,,,,,,,,,i,1,0.3489,0,61,61,6,1,他们,i,,,,,,,,,,,,,,,,,,,,,,,,,,,,,,,,,,,,,,,,,
,,,,,,,,,,,,,,1,001,2025-01-05_21h44.12.930,IAT(Formal),2021.2.3,Win32,30.03003003,,,,,,,,,,,,,,,i,1,0.6753,0,62,62,38,1,鲁莽,i,,,,,,,,,,,,,,,,,,,,,,,,,,,,,,,,,,,,,,,,,
,,,,,,,,,,,,,,1,001,2025-01-05_21h44.12.930,IAT(Formal),2021.2.3,Win32,30.03003003,,,,,,,,,,,,,,,i,1,0.7284,0,63,63,75,1,他,i,,,,,,,,,,,,,,,,,,,,,,,,,,,,,,,,,,,,,,,,,
,,,,,,,,,,,,,,1,001,2025-01-05_21h44.12.930,IAT(Formal),2021.2.3,Win32,30.03003003,,,,,,,,,,,,,,,i,1,0.6644,0,64,64,41,1,散漫,i,,,,,,,,,,,,,,,,,,,,,,,,,,,,,,,,,,,,,,,,,
,,,,,,,,,,,,,,1,001,2025-01-05_21h44.12.930,IAT(Formal),2021.2.3,Win32,30.03003003,,,,,,,,,,,,,,,e,1,1.0066,0,65,65,53,1,自己,e,,,,,,,,,,,,,,,,,,,,,,,,,,,,,,,,,,,,,,,,,
,,,,,,,,,,,,,,1,001,2025-01-05_21h44.12.930,IAT(Formal),2021.2.3,Win32,30.03003003,,,,,,,,,,,,,,,e,1,0.6052,0,66,66,29,1,诚恳,e,,,,,,,,,,,,,,,,,,,,,,,,,,,,,,,,,,,,,,,,,
,,,,,,,,,,,,,,1,001,2025-01-05_21h44.12.930,IAT(Formal),2021.2.3,Win32,30.03003003,,,,,,,,,,,,,,,e,1,1.0605,0,67,67,54,1,俺,e,,,,,,,,,,,,,,,,,,,,,,,,,,,,,,,,,,,,,,,,,
,,,,,,,,,,,,,,1,001,2025-01-05_21h44.12.930,IAT(Formal),2021.2.3,Win32,30.03003003,,,,,,,,,,,,,,,i,1,0.5866,0,68,68,30,1,卑鄙,i,,,,,,,,,,,,,,,,,,,,,,,,,,,,,,,,,,,,,,,,,
,,,,,,,,,,,,,,1,001,2025-01-05_21h44.12.930,IAT(Formal),2021.2.3,Win32,30.03003003,,,,,,,,,,,,,,,e,1,0.6085,0,69,69,0,1,我,e,,,,,,,,,,,,,,,,,,,,,,,,,,,,,,,,,,,,,,,,,
,,,,,,,,,,,,,,1,001,2025-01-05_21h44.12.930,IAT(Formal),2021.2.3,Win32,30.03003003,,,,,,,,,,,,,,,i,0,0.6396,0,70,70,62,1,我们,e,,,,,,,,,,,,,,,,,,,,,,,,,,,,,,,,,,,,,,,,,
,,,,,,,,,,,,,,1,001,2025-01-05_21h44.12.930,IAT(Formal),2021.2.3,Win32,30.03003003,,,,,,,,,,,,,,,i,1,0.5985,0,71,71,76,1,他们,i,,,,,,,,,,,,,,,,,,,,,,,,,,,,,,,,,,,,,,,,,
,,,,,,,,,,,,,,1,001,2025-01-05_21h44.12.930,IAT(Formal),2021.2.3,Win32,30.03003003,,,,,,,,,,,,,,,e,1,0.615,0,72,72,26,1,冷静,e,,,,,,,,,,,,,,,,,,,,,,,,,,,,,,,,,,,,,,,,,
,,,,,,,,,,,,,,1,001,2025-01-05_21h44.12.930,IAT(Formal),2021.2.3,Win32,30.03003003,,,,,,,,,,,,,,,e,1,0.9626,0,73,73,3,1,自己,e,,,,,,,,,,,,,,,,,,,,,,,,,,,,,,,,,,,,,,,,,
,,,,,,,,,,,,,,1,001,2025-01-05_21h44.12.930,IAT(Formal),2021.2.3,Win32,30.03003003,,,,,,,,,,,,,,,i,1,0.6252,0,74,74,67,1,他的,i,,,,,,,,,,,,,,,,,,,,,,,,,,,,,,,,,,,,,,,,,
,,,,,,,,,,,,,,1,001,2025-01-05_21h44.12.930,IAT(Formal),2021.2.3,Win32,30.03003003,,,,,,,,,,,,,,,e,1,0.8173,0,75,75,73,1,自己,e,,,,,,,,,,,,,,,,,,,,,,,,,,,,,,,,,,,,,,,,,
,,,,,,,,,,,,,,1,001,2025-01-05_21h44.12.930,IAT(Formal),2021.2.3,Win32,30.03003003,,,,,,,,,,,,,,,e,0,0.5286,0,76,76,79,1,其他,i,,,,,,,,,,,,,,,,,,,,,,,,,,,,,,,,,,,,,,,,,
,,,,,,,,,,,,,,1,001,2025-01-05_21h44.12.930,IAT(Formal),2021.2.3,Win32,30.03003003,,,,,,,,,,,,,,,i,1,0.3017,0,77,77,32,1,愚蠢,i,,,,,,,,,,,,,,,,,,,,,,,,,,,,,,,,,,,,,,,,,
,,,,,,,,,,,,,,1,001,2025-01-05_21h44.12.930,IAT(Formal),2021.2.3,Win32,30.03003003,,,,,,,,,,,,,,,i,1,0.8963,0,78,78,68,1,他人,i,,,,,,,,,,,,,,,,,,,,,,,,,,,,,,,,,,,,,,,,,
,,,,,,,,,,,,,,1,001,2025-01-05_21h44.12.930,IAT(Formal),2021.2.3,Win32,30.03003003,,,,,,,,,,,,,,,e,1,0.6978,0,79,79,14,1,乐观,e,,,,,,,,,,,,,,,,,,,,,,,,,,,,,,,,,,,,,,,,,
,,,,,,,,,,,,,,1,001,2025-01-05_21h44.12.930,IAT(Formal),2021.2.3,Win32,30.03003003,,,,,,,,,,,,,,,e,1,0.7905,,,,,,诚实,e,space,7.7608,0,0,0,15,1,,,,,,,,,,,,,,,,,,,,,,,,,,,,,,,,,,
,,,,,,,,,,,,,,1,001,2025-01-05_21h44.12.930,IAT(Formal),2021.2.3,Win32,30.03003003,,,,,,,,,,,,,,,e,1,0.4456,,,,,,自己,e,,,0,1,1,3,1,,,,,,,,,,,,,,,,,,,,,,,,,,,,,,,,,,
,,,,,,,,,,,,,,1,001,2025-01-05_21h44.12.930,IAT(Formal),2021.2.3,Win32,30.03003003,,,,,,,,,,,,,,,e,1,0.5637,,,,,,我的,e,,,0,2,2,51,1,,,,,,,,,,,,,,,,,,,,,,,,,,,,,,,,,,
,,,,,,,,,,,,,,1,001,2025-01-05_21h44.12.930,IAT(Formal),2021.2.3,Win32,30.03003003,,,,,,,,,,,,,,,i,1,0.5717,,,,,,凶狠,i,,,0,3,3,42,1,,,,,,,,,,,,,,,,,,,,,,,,,,,,,,,,,,
,,,,,,,,,,,,,,1,001,2025-01-05_21h44.12.930,IAT(Formal),2021.2.3,Win32,30.03003003,,,,,,,,,,,,,,,e,1,0.6659,,,,,,我们,e,,,0,4,4,72,1,,,,,,,,,,,,,,,,,,,,,,,,,,,,,,,,,,
,,,,,,,,,,,,,,1,001,2025-01-05_21h44.12.930,IAT(Formal),2021.2.3,Win32,30.03003003,,,,,,,,,,,,,,,i,1,0.59,,,,,,冒失,i,,,0,5,5,39,1,,,,,,,,,,,,,,,,,,,,,,,,,,,,,,,,,,
,,,,,,,,,,,,,,1,001,2025-01-05_21h44.12.930,IAT(Formal),2021.2.3,Win32,30.03003003,,,,,,,,,,,,,,,i,1,0.5942,,,,,,他,i,,,0,6,6,55,1,,,,,,,,,,,,,,,,,,,,,,,,,,,,,,,,,,
,,,,,,,,,,,,,,1,001,2025-01-05_21h44.12.930,IAT(Formal),2021.2.3,Win32,30.03003003,,,,,,,,,,,,,,,i,1,0.4978,,,,,,他人,i,,,0,7,7,8,1,,,,,,,,,,,,,,,,,,,,,,,,,,,,,,,,,,
,,,,,,,,,,,,,,1,001,2025-01-05_21h44.12.930,IAT(Formal),2021.2.3,Win32,30.03003003,,,,,,,,,,,,,,,e,1,0.6,,,,,,我,e,,,0,8,8,50,1,,,,,,,,,,,,,,,,,,,,,,,,,,,,,,,,,,
,,,,,,,,,,,,,,1,001,2025-01-05_21h44.12.930,IAT(Formal),2021.2.3,Win32,30.03003003,,,,,,,,,,,,,,,i,0,0.6327,,,,,,无私,e,,,0,9,9,22,1,,,,,,,,,,,,,,,,,,,,,,,,,,,,,,,,,,
,,,,,,,,,,,,,,1,001,2025-01-05_21h44.12.930,IAT(Formal),2021.2.3,Win32,30.03003003,,,,,,,,,,,,,,,e,0,0.8891,,,,,,他的,i,,,0,10,10,7,1,,,,,,,,,,,,,,,,,,,,,,,,,,,,,,,,,,
,,,,,,,,,,,,,,1,001,2025-01-05_21h44.12.930,IAT(Formal),2021.2.3,Win32,30.03003003,,,,,,,,,,,,,,,e,1,1.0445,,,,,,俺,e,,,0,11,11,4,1,,,,,,,,,,,,,,,,,,,,,,,,,,,,,,,,,,
,,,,,,,,,,,,,,1,001,2025-01-05_21h44.12.930,IAT(Formal),2021.2.3,Win32,30.03003003,,,,,,,,,,,,,,,i,1,0.4935,,,,,,他人,i,,,0,12,12,68,1,,,,,,,,,,,,,,,,,,,,,,,,,,,,,,,,,,
,,,,,,,,,,,,,,1,001,2025-01-05_21h44.12.930,IAT(Formal),2021.2.3,Win32,30.03003003,,,,,,,,,,,,,,,i,1,0.562,,,,,,他们,i,,,0,13,13,6,1,,,,,,,,,,,,,,,,,,,,,,,,,,,,,,,,,,
,,,,,,,,,,,,,,1,001,2025-01-05_21h44.12.930,IAT(Formal),2021.2.3,Win32,30.03003003,,,,,,,,,,,,,,,i,1,0.7433,,,,,,他们,i,,,0,14,14,56,1,,,,,,,,,,,,,,,,,,,,,,,,,,,,,,,,,,
,,,,,,,,,,,,,,1,001,2025-01-05_21h44.12.930,IAT(Formal),2021.2.3,Win32,30.03003003,,,,,,,,,,,,,,,i,1,0.7991,,,,,,执拗,i,,,0,15,15,40,1,,,,,,,,,,,,,,,,,,,,,,,,,,,,,,,,,,
,,,,,,,,,,,,,,1,001,2025-01-05_21h44.12.930,IAT(Formal),2021.2.3,Win32,30.03003003,,,,,,,,,,,,,,,e,1,0.9363,,,,,,聪明,e,,,0,16,16,12,1,,,,,,,,,,,,,,,,,,,,,,,,,,,,,,,,,,
,,,,,,,,,,,,,,1,001,2025-01-05_21h44.12.930,IAT(Formal),2021.2.3,Win32,30.03003003,,,,,,,,,,,,,,,e,1,0.545,,,,,,我,e,,,0,17,17,0,1,,,,,,,,,,,,,,,,,,,,,,,,,,,,,,,,,,
,,,,,,,,,,,,,,1,001,2025-01-05_21h44.12.930,IAT(Formal),2021.2.3,Win32,30.03003003,,,,,,,,,,,,,,,i,1,0.706,,,,,,他,i,,,0,18,18,75,1,,,,,,,,,,,,,,,,,,,,,,,,,,,,,,,,,,
,,,,,,,,,,,,,,1,001,2025-01-05_21h44.12.930,IAT(Formal),2021.2.3,Win32,30.03003003,,,,,,,,,,,,,,,i,1,0.7307,,,,,,他人,i,,,0,19,19,78,1,,,,,,,,,,,,,,,,,,,,,,,,,,,,,,,,,,
,,,,,,,,,,,,,,1,001,2025-01-05_21h44.12.930,IAT(Formal),2021.2.3,Win32,30.03003003,,,,,,,,,,,,,,,e,1,0.8985,,,,,,认真,e,,,0,20,20,20,1,,,,,,,,,,,,,,,,,,,,,,,,,,,,,,,,,,
,,,,,,,,,,,,,,1,001,2025-01-05_21h44.12.930,IAT(Formal),2021.2.3,Win32,30.03003003,,,,,,,,,,,,,,,i,1,0.8043,,,,,,其他,i,,,0,21,21,9,1,,,,,,,,,,,,,,,,,,,,,,,,,,,,,,,,,,
,,,,,,,,,,,,,,1,001,2025-01-05_21h44.12.930,IAT(Formal),2021.2.3,Win32,30.03003003,,,,,,,,,,,,,,,i,1,0.5876,,,,,,虚伪,i,,,0,22,22,31,1,,,,,,,,,,,,,,,,,,,,,,,,,,,,,,,,,,
,,,,,,,,,,,,,,1,001,2025-01-05_21h44.12.930,IAT(Formal),2021.2.3,Win32,30.03003003,,,,,,,,,,,,,,,e,1,0.5738,,,,,,朴实,e,,,0,23,23,24,1,,,,,,,,,,,,,,,,,,,,,,,,,,,,,,,,,,
,,,,,,,,,,,,,,1,001,2025-01-05_21h44.12.930,IAT(Formal),2021.2.3,Win32,30.03003003,,,,,,,,,,,,,,,e,1,0.768,,,,,,活泼,e,,,0,24,24,28,1,,,,,,,,,,,,,,,,,,,,,,,,,,,,,,,,,,
,,,,,,,,,,,,,,1,001,2025-01-05_21h44.12.930,IAT(Formal),2021.2.3,Win32,30.03003003,,,,,,,,,,,,,,,e,1,0.5601,,,,,,勤奋,e,,,0,25,25,18,1,,,,,,,,,,,,,,,,,,,,,,,,,,,,,,,,,,
,,,,,,,,,,,,,,1,001,2025-01-05_21h44.12.930,IAT(Formal),2021.2.3,Win32,30.03003003,,,,,,,,,,,,,,,e,1,0.6354,,,,,,细腻,e,,,0,26,26,25,1,,,,,,,,,,,,,,,,,,,,,,,,,,,,,,,,,,
,,,,,,,,,,,,,,1,001,2025-01-05_21h44.12.930,IAT(Formal),2021.2.3,Win32,30.03003003,,,,,,,,,,,,,,,i,1,0.7206,,,,,,自私,i,,,0,27,27,43,1,,,,,,,,,,,,,,,,,,,,,,,,,,,,,,,,,,
,,,,,,,,,,,,,,1,001,2025-01-05_21h44.12.930,IAT(Formal),2021.2.3,Win32,30.03003003,,,,,,,,,,,,,,,i,1,0.6604,,,,,,野蛮,i,,,0,28,28,46,1,,,,,,,,,,,,,,,,,,,,,,,,,,,,,,,,,,
,,,,,,,,,,,,,,1,001,2025-01-05_21h44.12.930,IAT(Formal),2021.2.3,Win32,30.03003003,,,,,,,,,,,,,,,i,1,0.7603,,,,,,轻率,i,,,0,29,29,48,1,,,,,,,,,,,,,,,,,,,,,,,,,,,,,,,,,,
,,,,,,,,,,,,,,1,001,2025-01-05_21h44.12.930,IAT(Formal),2021.2.3,Win32,30.03003003,,,,,,,,,,,,,,,e,0,0.5491,,,,,,他的,i,,,0,30,30,57,1,,,,,,,,,,,,,,,,,,,,,,,,,,,,,,,,,,
,,,,,,,,,,,,,,1,001,2025-01-05_21h44.12.930,IAT(Formal),2021.2.3,Win32,30.03003003,,,,,,,,,,,,,,,i,1,0.6973,,,,,,消极,i,,,0,31,31,35,1,,,,,,,,,,,,,,,,,,,,,,,,,,,,,,,,,,
,,,,,,,,,,,,,,1,001,2025-01-05_21h44.12.930,IAT(Formal),2021.2.3,Win32,30.03003003,,,,,,,,,,,,,,,e,1,0.7637,,,,,,公正,e,,,0,32,32,23,1,,,,,,,,,,,,,,,,,,,,,,,,,,,,,,,,,,
,,,,,,,,,,,,,,1,001,2025-01-05_21h44.12.930,IAT(Formal),2021.2.3,Win32,30.03003003,,,,,,,,,,,,,,,e,1,0.6105,,,,,,自己,e,,,0,33,33,53,1,,,,,,,,,,,,,,,,,,,,,,,,,,,,,,,,,,
,,,,,,,,,,,,,,1,001,2025-01-05_21h44.12.930,IAT(Formal),2021.2.3,Win32,30.03003003,,,,,,,,,,,,,,,e,1,1.2834,,,,,,我的,e,,,0,34,34,71,1,,,,,,,,,,,,,,,,,,,,,,,,,,,,,,,,,,
,,,,,,,,,,,,,,1,001,2025-01-05_21h44.12.930,IAT(Formal),2021.2.3,Win32,30.03003003,,,,,,,,,,,,,,,i,1,0.6652,,,,,,其他,i,,,0,35,35,59,1,,,,,,,,,,,,,,,,,,,,,,,,,,,,,,,,,,
,,,,,,,,,,,,,,1,001,2025-01-05_21h44.12.930,IAT(Formal),2021.2.3,Win32,30.03003003,,,,,,,,,,,,,,,i,1,0.8344,,,,,,悲观,i,,,0,36,36,34,1,,,,,,,,,,,,,,,,,,,,,,,,,,,,,,,,,,
,,,,,,,,,,,,,,1,001,2025-01-05_21h44.12.930,IAT(Formal),2021.2.3,Win32,30.03003003,,,,,,,,,,,,,,,i,1,0.7284,,,,,,其他,i,,,0,37,37,79,1,,,,,,,,,,,,,,,,,,,,,,,,,,,,,,,,,,
,,,,,,,,,,,,,,1,001,2025-01-05_21h44.12.930,IAT(Formal),2021.2.3,Win32,30.03003003,,,,,,,,,,,,,,,e,1,0.7662,,,,,,稳重,e,,,0,38,38,21,1,,,,,,,,,,,,,,,,,,,,,,,,,,,,,,,,,,
,,,,,,,,,,,,,,1,001,2025-01-05_21h44.12.930,IAT(Formal),2021.2.3,Win32,30.03003003,,,,,,,,,,,,,,,i,1,0.7646,,,,,,他的,i,,,0,39,39,77,1,,,,,,,,,,,,,,,,,,,,,,,,,,,,,,,,,,
,,,,,,,,,,,,,,1,001,2025-01-05_21h44.12.930,IAT(Formal),2021.2.3,Win32,30.03003003,,,,,,,,,,,,,,,i,1,0.6624,,,,,,鲁莽,i,,,0,40,40,38,1,,,,,,,,,,,,,,,,,,,,,,,,,,,,,,,,,,
,,,,,,,,,,,,,,1,001,2025-01-05_21h44.12.930,IAT(Formal),2021.2.3,Win32,30.03003003,,,,,,,,,,,,,,,i,0,0.5717,,,,,,冷静,e,,,0,41,41,26,1,,,,,,,,,,,,,,,,,,,,,,,,,,,,,,,,,,
,,,,,,,,,,,,,,1,001,2025-01-05_21h44.12.930,IAT(Formal),2021.2.3,Win32,30.03003003,,,,,,,,,,,,,,,e,0,0.9983,,,,,,傲慢,i,,,0,42,42,37,1,,,,,,,,,,,,,,,,,,,,,,,,,,,,,,,,,,
,,,,,,,,,,,,,,1,001,2025-01-05_21h44.12.930,IAT(Formal),2021.2.3,Win32,30.03003003,,,,,,,,,,,,,,,i,1,0.6982,,,,,,他们,i,,,0,43,43,76,1,,,,,,,,,,,,,,,,,,,,,,,,,,,,,,,,,,
,,,,,,,,,,,,,,1,001,2025-01-05_21h44.12.930,IAT(Formal),2021.2.3,Win32,30.03003003,,,,,,,,,,,,,,,i,1,0.7101,,,,,,他的,i,,,0,44,44,67,1,,,,,,,,,,,,,,,,,,,,,,,,,,,,,,,,,,
,,,,,,,,,,,,,,1,001,2025-01-05_21h44.12.930,IAT(Formal),2021.2.3,Win32,30.03003003,,,,,,,,,,,,,,,i,1,0.7471,,,,,,固执,i,,,0,45,45,47,1,,,,,,,,,,,,,,,,,,,,,,,,,,,,,,,,,,
,,,,,,,,,,,,,,1,001,2025-01-05_21h44.12.930,IAT(Formal),2021.2.3,Win32,30.03003003,,,,,,,,,,,,,,,e,1,0.6623,,,,,,俺,e,,,0,46,46,54,1,,,,,,,,,,,,,,,,,,,,,,,,,,,,,,,,,,
,,,,,,,,,,,,,,1,001,2025-01-05_21h44.12.930,IAT(Formal),2021.2.3,Win32,30.03003003,,,,,,,,,,,,,,,i,1,0.6353,,,,,,刻薄,i,,,0,47,47,33,1,,,,,,,,,,,,,,,,,,,,,,,,,,,,,,,,,,
,,,,,,,,,,,,,,1,001,2025-01-05_21h44.12.930,IAT(Formal),2021.2.3,Win32,30.03003003,,,,,,,,,,,,,,,e,1,0.7864,,,,,,诚恳,e,,,0,48,48,29,1,,,,,,,,,,,,,,,,,,,,,,,,,,,,,,,,,,
,,,,,,,,,,,,,,1,001,2025-01-05_21h44.12.930,IAT(Formal),2021.2.3,Win32,30.03003003,,,,,,,,,,,,,,,e,1,0.738,,,,,,热情,e,,,0,49,49,27,1,,,,,,,,,,,,,,,,,,,,,,,,,,,,,,,,,,
,,,,,,,,,,,,,,1,001,2025-01-05_21h44.12.930,IAT(Formal),2021.2.3,Win32,30.03003003,,,,,,,,,,,,,,,e,1,0.6639,,,,,,自己,e,,,0,50,50,63,1,,,,,,,,,,,,,,,,,,,,,,,,,,,,,,,,,,
,,,,,,,,,,,,,,1,001,2025-01-05_21h44.12.930,IAT(Formal),2021.2.3,Win32,30.03003003,,,,,,,,,,,,,,,i,1,0.6606,,,,,,愚蠢,i,,,0,51,51,32,1,,,,,,,,,,,,,,,,,,,,,,,,,,,,,,,,,,
,,,,,,,,,,,,,,1,001,2025-01-05_21h44.12.930,IAT(Formal),2021.2.3,Win32,30.03003003,,,,,,,,,,,,,,,,0,,,,,,,勇敢,e,,,0,52,52,17,1,,,,,,,,,,,,,,,,,,,,,,,,,,,,,,,,,,
,,,,,,,,,,,,,,1,001,2025-01-05_21h44.12.930,IAT(Formal),2021.2.3,Win32,30.03003003,,,,,,,,,,,,,,,e,1,0.5575,,,,,,我的,e,,,0,53,53,61,1,,,,,,,,,,,,,,,,,,,,,,,,,,,,,,,,,,
,,,,,,,,,,,,,,1,001,2025-01-05_21h44.12.930,IAT(Formal),2021.2.3,Win32,30.03003003,,,,,,,,,,,,,,,e,0,0.5918,,,,,,自卑,i,,,0,54,54,36,1,,,,,,,,,,,,,,,,,,,,,,,,,,,,,,,,,,
,,,,,,,,,,,,,,1,001,2025-01-05_21h44.12.930,IAT(Formal),2021.2.3,Win32,30.03003003,,,,,,,,,,,,,,,e,1,0.6667,,,,,,我,e,,,0,55,55,70,1,,,,,,,,,,,,,,,,,,,,,,,,,,,,,,,,,,
,,,,,,,,,,,,,,1,001,2025-01-05_21h44.12.930,IAT(Formal),2021.2.3,Win32,30.03003003,,,,,,,,,,,,,,,i,1,0.6552,,,,,,卑鄙,i,,,0,56,56,30,1,,,,,,,,,,,,,,,,,,,,,,,,,,,,,,,,,,
,,,,,,,,,,,,,,1,001,2025-01-05_21h44.12.930,IAT(Formal),2021.2.3,Win32,30.03003003,,,,,,,,,,,,,,,e,1,1.21,,,,,,我们,e,,,0,57,57,2,1,,,,,,,,,,,,,,,,,,,,,,,,,,,,,,,,,,
,,,,,,,,,,,,,,1,001,2025-01-05_21h44.12.930,IAT(Formal),2021.2.3,Win32,30.03003003,,,,,,,,,,,,,,,i,1,0.464,,,,,,他,i,,,0,58,58,65,1,,,,,,,,,,,,,,,,,,,,,,,,,,,,,,,,,,
,,,,,,,,,,,,,,1,001,2025-01-05_21h44.12.930,IAT(Formal),2021.2.3,Win32,30.03003003,,,,,,,,,,,,,,,e,1,0.7122,,,,,,俺,e,,,0,59,59,64,1,,,,,,,,,,,,,,,,,,,,,,,,,,,,,,,,,,
,,,,,,,,,,,,,,1,001,2025-01-05_21h44.12.930,IAT(Formal),2021.2.3,Win32,30.03003003,,,,,,,,,,,,,,,i,1,0.7281,,,,,,猖狂,i,,,0,60,60,45,1,,,,,,,,,,,,,,,,,,,,,,,,,,,,,,,,,,
,,,,,,,,,,,,,,1,001,2025-01-05_21h44.12.930,IAT(Formal),2021.2.3,Win32,30.03003003,,,,,,,,,,,,,,,e,1,0.9084,,,,,,优秀,e,,,0,61,61,10,1,,,,,,,,,,,,,,,,,,,,,,,,,,,,,,,,,,
,,,,,,,,,,,,,,1,001,2025-01-05_21h44.12.930,IAT(Formal),2021.2.3,Win32,30.03003003,,,,,,,,,,,,,,,e,1,0.5438,,,,,,机智,e,,,0,62,62,19,1,,,,,,,,,,,,,,,,,,,,,,,,,,,,,,,,,,
,,,,,,,,,,,,,,1,001,2025-01-05_21h44.12.930,IAT(Formal),2021.2.3,Win32,30.03003003,,,,,,,,,,,,,,,e,1,0.5278,,,,,,正直,e,,,0,63,63,16,1,,,,,,,,,,,,,,,,,,,,,,,,,,,,,,,,,,
,,,,,,,,,,,,,,1,001,2025-01-05_21h44.12.930,IAT(Formal),2021.2.3,Win32,30.03003003,,,,,,,,,,,,,,,i,1,0.5502,,,,,,其他,i,,,0,64,64,69,1,,,,,,,,,,,,,,,,,,,,,,,,,,,,,,,,,,
,,,,,,,,,,,,,,1,001,2025-01-05_21h44.12.930,IAT(Formal),2021.2.3,Win32,30.03003003,,,,,,,,,,,,,,,e,1,0.7567,,,,,,崇高,e,,,0,65,65,11,1,,,,,,,,,,,,,,,,,,,,,,,,,,,,,,,,,,
,,,,,,,,,,,,,,1,001,2025-01-05_21h44.12.930,IAT(Formal),2021.2.3,Win32,30.03003003,,,,,,,,,,,,,,,i,0,0.4981,,,,,,乐观,e,,,0,66,66,14,1,,,,,,,,,,,,,,,,,,,,,,,,,,,,,,,,,,
,,,,,,,,,,,,,,1,001,2025-01-05_21h44.12.930,IAT(Formal),2021.2.3,Win32,30.03003003,,,,,,,,,,,,,,,e,1,0.6873,,,,,,我,e,,,0,67,67,60,1,,,,,,,,,,,,,,,,,,,,,,,,,,,,,,,,,,
,,,,,,,,,,,,,,1,001,2025-01-05_21h44.12.930,IAT(Formal),2021.2.3,Win32,30.03003003,,,,,,,,,,,,,,,e,1,0.5384,,,,,,我们,e,,,0,68,68,62,1,,,,,,,,,,,,,,,,,,,,,,,,,,,,,,,,,,
,,,,,,,,,,,,,,1,001,2025-01-05_21h44.12.930,IAT(Formal),2021.2.3,Win32,30.03003003,,,,,,,,,,,,,,,e,1,0.5276,,,,,,自己,e,,,0,69,69,73,1,,,,,,,,,,,,,,,,,,,,,,,,,,,,,,,,,,
,,,,,,,,,,,,,,1,001,2025-01-05_21h44.12.930,IAT(Formal),2021.2.3,Win32,30.03003003,,,,,,,,,,,,,,,e,1,0.4938,,,,,,我们,e,,,0,70,70,52,1,,,,,,,,,,,,,,,,,,,,,,,,,,,,,,,,,,
,,,,,,,,,,,,,,1,001,2025-01-05_21h44.12.930,IAT(Formal),2021.2.3,Win32,30.03003003,,,,,,,,,,,,,,,i,1,0.566,,,,,,下贱,i,,,0,71,71,49,1,,,,,,,,,,,,,,,,,,,,,,,,,,,,,,,,,,
,,,,,,,,,,,,,,1,001,2025-01-05_21h44.12.930,IAT(Formal),2021.2.3,Win32,30.03003003,,,,,,,,,,,,,,,i,1,0.6338,,,,,,他,i,,,0,72,72,5,1,,,,,,,,,,,,,,,,,,,,,,,,,,,,,,,,,,
,,,,,,,,,,,,,,1,001,2025-01-05_21h44.12.930,IAT(Formal),2021.2.3,Win32,30.03003003,,,,,,,,,,,,,,,i,1,0.5996,,,,,,散漫,i,,,0,73,73,41,1,,,,,,,,,,,,,,,,,,,,,,,,,,,,,,,,,,
,,,,,,,,,,,,,,1,001,2025-01-05_21h44.12.930,IAT(Formal),2021.2.3,Win32,30.03003003,,,,,,,,,,,,,,,e,1,0.7053,,,,,,杰出,e,,,0,74,74,13,1,,,,,,,,,,,,,,,,,,,,,,,,,,,,,,,,,,
,,,,,,,,,,,,,,1,001,2025-01-05_21h44.12.930,IAT(Formal),2021.2.3,Win32,30.03003003,,,,,,,,,,,,,,,e,1,1.1793,,,,,,俺,e,,,0,75,75,74,1,,,,,,,,,,,,,,,,,,,,,,,,,,,,,,,,,,
,,,,,,,,,,,,,,1,001,2025-01-05_21h44.12.930,IAT(Formal),2021.2.3,Win32,30.03003003,,,,,,,,,,,,,,,e,1,0.6421,,,,,,我的,e,,,0,76,76,1,1,,,,,,,,,,,,,,,,,,,,,,,,,,,,,,,,,,
,,,,,,,,,,,,,,1,001,2025-01-05_21h44.12.930,IAT(Formal),2021.2.3,Win32,30.03003003,,,,,,,,,,,,,,,i,1,0.66,,,,,,他们,i,,,0,77,77,66,1,,,,,,,,,,,,,,,,,,,,,,,,,,,,,,,,,,
,,,,,,,,,,,,,,1,001,2025-01-05_21h44.12.930,IAT(Formal),2021.2.3,Win32,30.03003003,,,,,,,,,,,,,,,i,1,0.674,,,,,,暴躁,i,,,0,78,78,44,1,,,,,,,,,,,,,,,,,,,,,,,,,,,,,,,,,,
,,,,,,,,,,,,,,1,001,2025-01-05_21h44.12.930,IAT(Formal),2021.2.3,Win32,30.03003003,,,,,,,,,,,,,,,i,1,0.5733,,,,,,他人,i,,,0,79,79,58,1,,,,,,,,,,,,,,,,,,,,,,,,,,,,,,,,,,
,,,,,,,,,,,,,,1,001,2025-01-05_21h44.12.930,IAT(Formal),2021.2.3,Win32,30.03003003,,,,,,,,,,,,,,,e,1,1.2451,,,,,,聪明,e,,,1,0,80,12,1,,,,,,,,,,,,,,,,,,,,,,,,,,,,,,,,,,
,,,,,,,,,,,,,,1,001,2025-01-05_21h44.12.930,IAT(Formal),2021.2.3,Win32,30.03003003,,,,,,,,,,,,,,,e,1,0.5655,,,,,,我们,e,,,1,1,81,62,1,,,,,,,,,,,,,,,,,,,,,,,,,,,,,,,,,,
,,,,,,,,,,,,,,1,001,2025-01-05_21h44.12.930,IAT(Formal),2021.2.3,Win32,30.03003003,,,,,,,,,,,,,,,i,1,0.6136,,,,,,他的,i,,,1,2,82,7,1,,,,,,,,,,,,,,,,,,,,,,,,,,,,,,,,,,
,,,,,,,,,,,,,,1,001,2025-01-05_21h44.12.930,IAT(Formal),2021.2.3,Win32,30.03003003,,,,,,,,,,,,,,,i,1,0.5404,,,,,,其他,i,,,1,3,83,9,1,,,,,,,,,,,,,,,,,,,,,,,,,,,,,,,,,,
,,,,,,,,,,,,,,1,001,2025-01-05_21h44.12.930,IAT(Formal),2021.2.3,Win32,30.03003003,,,,,,,,,,,,,,,i,1,0.4423,,,,,,他,i,,,1,4,84,65,1,,,,,,,,,,,,,,,,,,,,,,,,,,,,,,,,,,
,,,,,,,,,,,,,,1,001,2025-01-05_21h44.12.930,IAT(Formal),2021.2.3,Win32,30.03003003,,,,,,,,,,,,,,,e,1,0.7083,,,,,,稳重,e,,,1,5,85,21,1,,,,,,,,,,,,,,,,,,,,,,,,,,,,,,,,,,
,,,,,,,,,,,,,,1,001,2025-01-05_21h44.12.930,IAT(Formal),2021.2.3,Win32,30.03003003,,,,,,,,,,,,,,,e,1,0.9488,,,,,,我的,e,,,1,6,86,1,1,,,,,,,,,,,,,,,,,,,,,,,,,,,,,,,,,,
,,,,,,,,,,,,,,1,001,2025-01-05_21h44.12.930,IAT(Formal),2021.2.3,Win32,30.03003003,,,,,,,,,,,,,,,i,1,1.2899,,,,,,轻率,i,,,1,7,87,48,1,,,,,,,,,,,,,,,,,,,,,,,,,,,,,,,,,,
,,,,,,,,,,,,,,1,001,2025-01-05_21h44.12.930,IAT(Formal),2021.2.3,Win32,30.03003003,,,,,,,,,,,,,,,e,1,0.8937,,,,,,勇敢,e,,,1,8,88,17,1,,,,,,,,,,,,,,,,,,,,,,,,,,,,,,,,,,
,,,,,,,,,,,,,,1,001,2025-01-05_21h44.12.930,IAT(Formal),2021.2.3,Win32,30.03003003,,,,,,,,,,,,,,,i,1,0.688,,,,,,他们,i,,,1,9,89,76,1,,,,,,,,,,,,,,,,,,,,,,,,,,,,,,,,,,
,,,,,,,,,,,,,,1,001,2025-01-05_21h44.12.930,IAT(Formal),2021.2.3,Win32,30.03003003,,,,,,,,,,,,,,,e,1,1.072,,,,,,热情,e,,,1,10,90,27,1,,,,,,,,,,,,,,,,,,,,,,,,,,,,,,,,,,
,,,,,,,,,,,,,,1,001,2025-01-05_21h44.12.930,IAT(Formal),2021.2.3,Win32,30.03003003,,,,,,,,,,,,,,,e,1,0.8013,,,,,,自己,e,,,1,11,91,63,1,,,,,,,,,,,,,,,,,,,,,,,,,,,,,,,,,,
,,,,,,,,,,,,,,1,001,2025-01-05_21h44.12.930,IAT(Formal),2021.2.3,Win32,30.03003003,,,,,,,,,,,,,,,i,1,0.7131,,,,,,执拗,i,,,1,12,92,40,1,,,,,,,,,,,,,,,,,,,,,,,,,,,,,,,,,,
,,,,,,,,,,,,,,1,001,2025-01-05_21h44.12.930,IAT(Formal),2021.2.3,Win32,30.03003003,,,,,,,,,,,,,,,e,1,0.7106,,,,,,诚实,e,,,1,13,93,15,1,,,,,,,,,,,,,,,,,,,,,,,,,,,,,,,,,,
,,,,,,,,,,,,,,1,001,2025-01-05_21h44.12.930,IAT(Formal),2021.2.3,Win32,30.03003003,,,,,,,,,,,,,,,i,1,0.4968,,,,,,他人,i,,,1,14,94,8,1,,,,,,,,,,,,,,,,,,,,,,,,,,,,,,,,,,
,,,,,,,,,,,,,,1,001,2025-01-05_21h44.12.930,IAT(Formal),2021.2.3,Win32,30.03003003,,,,,,,,,,,,,,,e,1,0.8298,,,,,,自己,e,,,1,15,95,53,1,,,,,,,,,,,,,,,,,,,,,,,,,,,,,,,,,,
,,,,,,,,,,,,,,1,001,2025-01-05_21h44.12.930,IAT(Formal),2021.2.3,Win32,30.03003003,,,,,,,,,,,,,,,i,1,0.7664,,,,,,虚伪,i,,,1,16,96,31,1,,,,,,,,,,,,,,,,,,,,,,,,,,,,,,,,,,
,,,,,,,,,,,,,,1,001,2025-01-05_21h44.12.930,IAT(Formal),2021.2.3,Win32,30.03003003,,,,,,,,,,,,,,,e,1,0.7414,,,,,,细腻,e,,,1,17,97,25,1,,,,,,,,,,,,,,,,,,,,,,,,,,,,,,,,,,
,,,,,,,,,,,,,,1,001,2025-01-05_21h44.12.930,IAT(Formal),2021.2.3,Win32,30.03003003,,,,,,,,,,,,,,,i,1,0.5888,,,,,,鲁莽,i,,,1,18,98,38,1,,,,,,,,,,,,,,,,,,,,,,,,,,,,,,,,,,
,,,,,,,,,,,,,,1,001,2025-01-05_21h44.12.930,IAT(Formal),2021.2.3,Win32,30.03003003,,,,,,,,,,,,,,,i,1,0.7975,,,,,,他人,i,,,1,19,99,68,1,,,,,,,,,,,,,,,,,,,,,,,,,,,,,,,,,,
,,,,,,,,,,,,,,1,001,2025-01-05_21h44.12.930,IAT(Formal),2021.2.3,Win32,30.03003003,,,,,,,,,,,,,,,i,1,0.6096,,,,,,其他,i,,,1,20,100,79,1,,,,,,,,,,,,,,,,,,,,,,,,,,,,,,,,,,
,,,,,,,,,,,,,,1,001,2025-01-05_21h44.12.930,IAT(Formal),2021.2.3,Win32,30.03003003,,,,,,,,,,,,,,,e,1,0.8518,,,,,,勤奋,e,,,1,21,101,18,1,,,,,,,,,,,,,,,,,,,,,,,,,,,,,,,,,,
,,,,,,,,,,,,,,1,001,2025-01-05_21h44.12.930,IAT(Formal),2021.2.3,Win32,30.03003003,,,,,,,,,,,,,,,i,1,0.482,,,,,,暴躁,i,,,1,22,102,44,1,,,,,,,,,,,,,,,,,,,,,,,,,,,,,,,,,,
,,,,,,,,,,,,,,1,001,2025-01-05_21h44.12.930,IAT(Formal),2021.2.3,Win32,30.03003003,,,,,,,,,,,,,,,i,1,1.1721,,,,,,自私,i,,,1,23,103,43,1,,,,,,,,,,,,,,,,,,,,,,,,,,,,,,,,,,
,,,,,,,,,,,,,,1,001,2025-01-05_21h44.12.930,IAT(Formal),2021.2.3,Win32,30.03003003,,,,,,,,,,,,,,,i,1,0.6298,,,,,,其他,i,,,1,24,104,69,1,,,,,,,,,,,,,,,,,,,,,,,,,,,,,,,,,,
,,,,,,,,,,,,,,1,001,2025-01-05_21h44.12.930,IAT(Formal),2021.2.3,Win32,30.03003003,,,,,,,,,,,,,,,i,1,0.5142,,,,,,凶狠,i,,,1,25,105,42,1,,,,,,,,,,,,,,,,,,,,,,,,,,,,,,,,,,
,,,,,,,,,,,,,,1,001,2025-01-05_21h44.12.930,IAT(Formal),2021.2.3,Win32,30.03003003,,,,,,,,,,,,,,,i,1,0.7642,,,,,,他的,i,,,1,26,106,67,1,,,,,,,,,,,,,,,,,,,,,,,,,,,,,,,,,,
,,,,,,,,,,,,,,1,001,2025-01-05_21h44.12.930,IAT(Formal),2021.2.3,Win32,30.03003003,,,,,,,,,,,,,,,e,1,0.759,,,,,,公正,e,,,1,27,107,23,1,,,,,,,,,,,,,,,,,,,,,,,,,,,,,,,,,,
,,,,,,,,,,,,,,1,001,2025-01-05_21h44.12.930,IAT(Formal),2021.2.3,Win32,30.03003003,,,,,,,,,,,,,,,e,1,0.6451,,,,,,俺,e,,,1,28,108,74,1,,,,,,,,,,,,,,,,,,,,,,,,,,,,,,,,,,
,,,,,,,,,,,,,,1,001,2025-01-05_21h44.12.930,IAT(Formal),2021.2.3,Win32,30.03003003,,,,,,,,,,,,,,,i,1,0.6057,,,,,,固执,i,,,1,29,109,47,1,,,,,,,,,,,,,,,,,,,,,,,,,,,,,,,,,,
,,,,,,,,,,,,,,1,001,2025-01-05_21h44.12.930,IAT(Formal),2021.2.3,Win32,30.03003003,,,,,,,,,,,,,,,i,1,0.6773,,,,,,悲观,i,,,1,30,110,34,1,,,,,,,,,,,,,,,,,,,,,,,,,,,,,,,,,,
,,,,,,,,,,,,,,1,001,2025-01-05_21h44.12.930,IAT(Formal),2021.2.3,Win32,30.03003003,,,,,,,,,,,,,,,i,1,0.6769,,,,,,愚蠢,i,,,1,31,111,32,1,,,,,,,,,,,,,,,,,,,,,,,,,,,,,,,,,,
,,,,,,,,,,,,,,1,001,2025-01-05_21h44.12.930,IAT(Formal),2021.2.3,Win32,30.03003003,,,,,,,,,,,,,,,i,1,0.5346,,,,,,自卑,i,,,1,32,112,36,1,,,,,,,,,,,,,,,,,,,,,,,,,,,,,,,,,,
,,,,,,,,,,,,,,1,001,2025-01-05_21h44.12.930,IAT(Formal),2021.2.3,Win32,30.03003003,,,,,,,,,,,,,,,e,1,0.6793,,,,,,我,e,,,1,33,113,60,1,,,,,,,,,,,,,,,,,,,,,,,,,,,,,,,,,,
,,,,,,,,,,,,,,1,001,2025-01-05_21h44.12.930,IAT(Formal),2021.2.3,Win32,30.03003003,,,,,,,,,,,,,,,e,1,0.5737,,,,,,崇高,e,,,1,34,114,11,1,,,,,,,,,,,,,,,,,,,,,,,,,,,,,,,,,,
,,,,,,,,,,,,,,1,001,2025-01-05_21h44.12.930,IAT(Formal),2021.2.3,Win32,30.03003003,,,,,,,,,,,,,,,e,1,0.5118,,,,,,我,e,,,1,35,115,70,1,,,,,,,,,,,,,,,,,,,,,,,,,,,,,,,,,,
,,,,,,,,,,,,,,1,001,2025-01-05_21h44.12.930,IAT(Formal),2021.2.3,Win32,30.03003003,,,,,,,,,,,,,,,i,1,0.7427,,,,,,他人,i,,,1,36,116,78,1,,,,,,,,,,,,,,,,,,,,,,,,,,,,,,,,,,
,,,,,,,,,,,,,,1,001,2025-01-05_21h44.12.930,IAT(Formal),2021.2.3,Win32,30.03003003,,,,,,,,,,,,,,,e,1,0.6762,,,,,,俺,e,,,1,37,117,64,1,,,,,,,,,,,,,,,,,,,,,,,,,,,,,,,,,,
,,,,,,,,,,,,,,1,001,2025-01-05_21h44.12.930,IAT(Formal),2021.2.3,Win32,30.03003003,,,,,,,,,,,,,,,i,1,0.8445,,,,,,傲慢,i,,,1,38,118,37,1,,,,,,,,,,,,,,,,,,,,,,,,,,,,,,,,,,
,,,,,,,,,,,,,,1,001,2025-01-05_21h44.12.930,IAT(Formal),2021.2.3,Win32,30.03003003,,,,,,,,,,,,,,,i,1,0.6948,,,,,,猖狂,i,,,1,39,119,45,1,,,,,,,,,,,,,,,,,,,,,,,,,,,,,,,,,,
,,,,,,,,,,,,,,1,001,2025-01-05_21h44.12.930,IAT(Formal),2021.2.3,Win32,30.03003003,,,,,,,,,,,,,,,i,1,0.6956,,,,,,消极,i,,,1,40,120,35,1,,,,,,,,,,,,,,,,,,,,,,,,,,,,,,,,,,
,,,,,,,,,,,,,,1,001,2025-01-05_21h44.12.930,IAT(Formal),2021.2.3,Win32,30.03003003,,,,,,,,,,,,,,,e,1,0.6646,,,,,,俺,e,,,1,41,121,4,1,,,,,,,,,,,,,,,,,,,,,,,,,,,,,,,,,,
,,,,,,,,,,,,,,1,001,2025-01-05_21h44.12.930,IAT(Formal),2021.2.3,Win32,30.03003003,,,,,,,,,,,,,,,e,1,0.5539,,,,,,我的,e,,,1,42,122,61,1,,,,,,,,,,,,,,,,,,,,,,,,,,,,,,,,,,
,,,,,,,,,,,,,,1,001,2025-01-05_21h44.12.930,IAT(Formal),2021.2.3,Win32,30.03003003,,,,,,,,,,,,,,,e,1,0.5973,,,,,,诚恳,e,,,1,43,123,29,1,,,,,,,,,,,,,,,,,,,,,,,,,,,,,,,,,,
,,,,,,,,,,,,,,1,001,2025-01-05_21h44.12.930,IAT(Formal),2021.2.3,Win32,30.03003003,,,,,,,,,,,,,,,e,1,0.5014,,,,,,活泼,e,,,1,44,124,28,1,,,,,,,,,,,,,,,,,,,,,,,,,,,,,,,,,,
,,,,,,,,,,,,,,1,001,2025-01-05_21h44.12.930,IAT(Formal),2021.2.3,Win32,30.03003003,,,,,,,,,,,,,,,e,1,0.6929,,,,,,乐观,e,,,1,45,125,14,1,,,,,,,,,,,,,,,,,,,,,,,,,,,,,,,,,,
,,,,,,,,,,,,,,1,001,2025-01-05_21h44.12.930,IAT(Formal),2021.2.3,Win32,30.03003003,,,,,,,,,,,,,,,e,1,0.4066,,,,,,杰出,e,,,1,46,126,13,1,,,,,,,,,,,,,,,,,,,,,,,,,,,,,,,,,,
,,,,,,,,,,,,,,1,001,2025-01-05_21h44.12.930,IAT(Formal),2021.2.3,Win32,30.03003003,,,,,,,,,,,,,,,e,1,0.7427,,,,,,自己,e,,,1,47,127,73,1,,,,,,,,,,,,,,,,,,,,,,,,,,,,,,,,,,
,,,,,,,,,,,,,,1,001,2025-01-05_21h44.12.930,IAT(Formal),2021.2.3,Win32,30.03003003,,,,,,,,,,,,,,,e,0,0.4038,,,,,,他们,i,,,1,48,128,6,1,,,,,,,,,,,,,,,,,,,,,,,,,,,,,,,,,,
,,,,,,,,,,,,,,1,001,2025-01-05_21h44.12.930,IAT(Formal),2021.2.3,Win32,30.03003003,,,,,,,,,,,,,,,e,1,1.1085,,,,,,正直,e,,,1,49,129,16,1,,,,,,,,,,,,,,,,,,,,,,,,,,,,,,,,,,
,,,,,,,,,,,,,,1,001,2025-01-05_21h44.12.930,IAT(Formal),2021.2.3,Win32,30.03003003,,,,,,,,,,,,,,,e,0,0.3884,,,,,,他们,i,,,1,50,130,56,1,,,,,,,,,,,,,,,,,,,,,,,,,,,,,,,,,,
,,,,,,,,,,,,,,1,001,2025-01-05_21h44.12.930,IAT(Formal),2021.2.3,Win32,30.03003003,,,,,,,,,,,,,,,i,1,0.5764,,,,,,他,i,,,1,51,131,5,1,,,,,,,,,,,,,,,,,,,,,,,,,,,,,,,,,,
,,,,,,,,,,,,,,1,001,2025-01-05_21h44.12.930,IAT(Formal),2021.2.3,Win32,30.03003003,,,,,,,,,,,,,,,i,1,0.5429,,,,,,野蛮,i,,,1,52,132,46,1,,,,,,,,,,,,,,,,,,,,,,,,,,,,,,,,,,
,,,,,,,,,,,,,,1,001,2025-01-05_21h44.12.930,IAT(Formal),2021.2.3,Win32,30.03003003,,,,,,,,,,,,,,,e,1,0.6182,,,,,,俺,e,,,1,53,133,54,1,,,,,,,,,,,,,,,,,,,,,,,,,,,,,,,,,,
,,,,,,,,,,,,,,1,001,2025-01-05_21h44.12.930,IAT(Formal),2021.2.3,Win32,30.03003003,,,,,,,,,,,,,,,e,1,0.598,,,,,,认真,e,,,1,54,134,20,1,,,,,,,,,,,,,,,,,,,,,,,,,,,,,,,,,,
,,,,,,,,,,,,,,1,001,2025-01-05_21h44.12.930,IAT(Formal),2021.2.3,Win32,30.03003003,,,,,,,,,,,,,,,i,1,0.7424,,,,,,下贱,i,,,1,55,135,49,1,,,,,,,,,,,,,,,,,,,,,,,,,,,,,,,,,,
,,,,,,,,,,,,,,1,001,2025-01-05_21h44.12.930,IAT(Formal),2021.2.3,Win32,30.03003003,,,,,,,,,,,,,,,e,1,0.6964,,,,,,我,e,,,1,56,136,50,1,,,,,,,,,,,,,,,,,,,,,,,,,,,,,,,,,,
,,,,,,,,,,,,,,1,001,2025-01-05_21h44.12.930,IAT(Formal),2021.2.3,Win32,30.03003003,,,,,,,,,,,,,,,i,1,0.67,,,,,,刻薄,i,,,1,57,137,33,1,,,,,,,,,,,,,,,,,,,,,,,,,,,,,,,,,,
,,,,,,,,,,,,,,1,001,2025-01-05_21h44.12.930,IAT(Formal),2021.2.3,Win32,30.03003003,,,,,,,,,,,,,,,i,1,1.0991,,,,,,冒失,i,,,1,58,138,39,1,,,,,,,,,,,,,,,,,,,,,,,,,,,,,,,,,,
,,,,,,,,,,,,,,1,001,2025-01-05_21h44.12.930,IAT(Formal),2021.2.3,Win32,30.03003003,,,,,,,,,,,,,,,,0,,,,,,,他,i,,,1,59,139,55,1,,,,,,,,,,,,,,,,,,,,,,,,,,,,,,,,,,
,,,,,,,,,,,,,,1,001,2025-01-05_21h44.12.930,IAT(Formal),2021.2.3,Win32,30.03003003,,,,,,,,,,,,,,,i,1,0.7002,,,,,,他,i,,,1,60,140,75,1,,,,,,,,,,,,,,,,,,,,,,,,,,,,,,,,,,
,,,,,,,,,,,,,,1,001,2025-01-05_21h44.12.930,IAT(Formal),2021.2.3,Win32,30.03003003,,,,,,,,,,,,,,,e,1,0.7142,,,,,,我们,e,,,1,61,141,72,1,,,,,,,,,,,,,,,,,,,,,,,,,,,,,,,,,,
,,,,,,,,,,,,,,1,001,2025-01-05_21h44.12.930,IAT(Formal),2021.2.3,Win32,30.03003003,,,,,,,,,,,,,,,i,0,1.064,,,,,,无私,e,,,1,62,142,22,1,,,,,,,,,,,,,,,,,,,,,,,,,,,,,,,,,,
,,,,,,,,,,,,,,1,001,2025-01-05_21h44.12.930,IAT(Formal),2021.2.3,Win32,30.03003003,,,,,,,,,,,,,,,e,0,0.586,,,,,,他的,i,,,1,63,143,77,1,,,,,,,,,,,,,,,,,,,,,,,,,,,,,,,,,,
,,,,,,,,,,,,,,1,001,2025-01-05_21h44.12.930,IAT(Formal),2021.2.3,Win32,30.03003003,,,,,,,,,,,,,,,i,1,0.7625,,,,,,他的,i,,,1,64,144,57,1,,,,,,,,,,,,,,,,,,,,,,,,,,,,,,,,,,
,,,,,,,,,,,,,,1,001,2025-01-05_21h44.12.930,IAT(Formal),2021.2.3,Win32,30.03003003,,,,,,,,,,,,,,,e,1,0.5953,,,,,,我,e,,,1,65,145,0,1,,,,,,,,,,,,,,,,,,,,,,,,,,,,,,,,,,
,,,,,,,,,,,,,,1,001,2025-01-05_21h44.12.930,IAT(Formal),2021.2.3,Win32,30.03003003,,,,,,,,,,,,,,,i,0,0.4573,,,,,,机智,e,,,1,66,146,19,1,,,,,,,,,,,,,,,,,,,,,,,,,,,,,,,,,,
,,,,,,,,,,,,,,1,001,2025-01-05_21h44.12.930,IAT(Formal),2021.2.3,Win32,30.03003003,,,,,,,,,,,,,,,i,1,1.3004,,,,,,散漫,i,,,1,67,147,41,1,,,,,,,,,,,,,,,,,,,,,,,,,,,,,,,,,,
,,,,,,,,,,,,,,1,001,2025-01-05_21h44.12.930,IAT(Formal),2021.2.3,Win32,30.03003003,,,,,,,,,,,,,,,e,1,0.6427,,,,,,我们,e,,,1,68,148,52,1,,,,,,,,,,,,,,,,,,,,,,,,,,,,,,,,,,
,,,,,,,,,,,,,,1,001,2025-01-05_21h44.12.930,IAT(Formal),2021.2.3,Win32,30.03003003,,,,,,,,,,,,,,,e,1,0.7764,,,,,,自己,e,,,1,69,149,3,1,,,,,,,,,,,,,,,,,,,,,,,,,,,,,,,,,,
,,,,,,,,,,,,,,1,001,2025-01-05_21h44.12.930,IAT(Formal),2021.2.3,Win32,30.03003003,,,,,,,,,,,,,,,e,0,0.8065,,,,,,他们,i,,,1,70,150,66,1,,,,,,,,,,,,,,,,,,,,,,,,,,,,,,,,,,
,,,,,,,,,,,,,,1,001,2025-01-05_21h44.12.930,IAT(Formal),2021.2.3,Win32,30.03003003,,,,,,,,,,,,,,,i,1,0.7634,,,,,,其他,i,,,1,71,151,59,1,,,,,,,,,,,,,,,,,,,,,,,,,,,,,,,,,,
,,,,,,,,,,,,,,1,001,2025-01-05_21h44.12.930,IAT(Formal),2021.2.3,Win32,30.03003003,,,,,,,,,,,,,,,e,1,0.7218,,,,,,我的,e,,,1,72,152,51,1,,,,,,,,,,,,,,,,,,,,,,,,,,,,,,,,,,
,,,,,,,,,,,,,,1,001,2025-01-05_21h44.12.930,IAT(Formal),2021.2.3,Win32,30.03003003,,,,,,,,,,,,,,,i,1,0.6136,,,,,,他人,i,,,1,73,153,58,1,,,,,,,,,,,,,,,,,,,,,,,,,,,,,,,,,,
,,,,,,,,,,,,,,1,001,2025-01-05_21h44.12.930,IAT(Formal),2021.2.3,Win32,30.03003003,,,,,,,,,,,,,,,i,1,0.8264,,,,,,卑鄙,i,,,1,74,154,30,1,,,,,,,,,,,,,,,,,,,,,,,,,,,,,,,,,,
,,,,,,,,,,,,,,1,001,2025-01-05_21h44.12.930,IAT(Formal),2021.2.3,Win32,30.03003003,,,,,,,,,,,,,,,e,1,0.7914,,,,,,优秀,e,,,1,75,155,10,1,,,,,,,,,,,,,,,,,,,,,,,,,,,,,,,,,,
,,,,,,,,,,,,,,1,001,2025-01-05_21h44.12.930,IAT(Formal),2021.2.3,Win32,30.03003003,,,,,,,,,,,,,,,e,1,0.7357,,,,,,朴实,e,,,1,76,156,24,1,,,,,,,,,,,,,,,,,,,,,,,,,,,,,,,,,,
,,,,,,,,,,,,,,1,001,2025-01-05_21h44.12.930,IAT(Formal),2021.2.3,Win32,30.03003003,,,,,,,,,,,,,,,e,1,0.6165,,,,,,我的,e,,,1,77,157,71,1,,,,,,,,,,,,,,,,,,,,,,,,,,,,,,,,,,
,,,,,,,,,,,,,,1,001,2025-01-05_21h44.12.930,IAT(Formal),2021.2.3,Win32,30.03003003,,,,,,,,,,,,,,,e,1,0.6981,,,,,,我们,e,,,1,78,158,2,1,,,,,,,,,,,,,,,,,,,,,,,,,,,,,,,,,,
,,,,,,,,,,,,,,1,001,2025-01-05_21h44.12.930,IAT(Formal),2021.2.3,Win32,30.03003003,,,,,,,,,,,,,,,e,1,0.9327,,,,,,冷静,e,,,1,79,159,26,1,,,,,,,,,,,,,,,,,,,,,,,,,,,,,,,,,,
,,,,,,,,,,,,他人,e,1,001,2025-01-05_21h44.12.930,IAT(Formal),2021.2.3,Win32,30.03003003,,,,,,,,,,,,,,,,,,,,,,,,,,,,,,,,space,8.6053,e,1,0.8269,0,0,0,8,1,,,,,,,,,,,,,,,,,,,,,,,,
,,,,,,,,,,,,他,e,1,001,2025-01-05_21h44.12.930,IAT(Formal),2021.2.3,Win32,30.03003003,,,,,,,,,,,,,,,,,,,,,,,,,,,,,,,,,,e,1,0.5087,0,1,1,5,1,,,,,,,,,,,,,,,,,,,,,,,,
,,,,,,,,,,,,我,i,1,001,2025-01-05_21h44.12.930,IAT(Formal),2021.2.3,Win32,30.03003003,,,,,,,,,,,,,,,,,,,,,,,,,,,,,,,,,,i,1,0.4794,0,2,2,0,1,,,,,,,,,,,,,,,,,,,,,,,,
,,,,,,,,,,,,自己,i,1,001,2025-01-05_21h44.12.930,IAT(Formal),2021.2.3,Win32,30.03003003,,,,,,,,,,,,,,,,,,,,,,,,,,,,,,,,,,i,1,0.617,0,3,3,3,1,,,,,,,,,,,,,,,,,,,,,,,,
,,,,,,,,,,,,其他,e,1,001,2025-01-05_21h44.12.930,IAT(Formal),2021.2.3,Win32,30.03003003,,,,,,,,,,,,,,,,,,,,,,,,,,,,,,,,,,e,1,0.8101,0,4,4,9,1,,,,,,,,,,,,,,,,,,,,,,,,
,,,,,,,,,,,,我们,i,1,001,2025-01-05_21h44.12.930,IAT(Formal),2021.2.3,Win32,30.03003003,,,,,,,,,,,,,,,,,,,,,,,,,,,,,,,,,,i,1,0.6095,0,5,5,2,1,,,,,,,,,,,,,,,,,,,,,,,,
,,,,,,,,,,,,俺,i,1,001,2025-01-05_21h44.12.930,IAT(Formal),2021.2.3,Win32,30.03003003,,,,,,,,,,,,,,,,,,,,,,,,,,,,,,,,,,i,1,0.7661,0,6,6,4,1,,,,,,,,,,,,,,,,,,,,,,,,
,,,,,,,,,,,,我的,i,1,001,2025-01-05_21h44.12.930,IAT(Formal),2021.2.3,Win32,30.03003003,,,,,,,,,,,,,,,,,,,,,,,,,,,,,,,,,,i,1,0.577,0,7,7,1,1,,,,,,,,,,,,,,,,,,,,,,,,
,,,,,,,,,,,,他的,e,1,001,2025-01-05_21h44.12.930,IAT(Formal),2021.2.3,Win32,30.03003003,,,,,,,,,,,,,,,,,,,,,,,,,,,,,,,,,,e,1,0.4945,0,8,8,7,1,,,,,,,,,,,,,,,,,,,,,,,,
,,,,,,,,,,,,他们,e,1,001,2025-01-05_21h44.12.930,IAT(Formal),2021.2.3,Win32,30.03003003,,,,,,,,,,,,,,,,,,,,,,,,,,,,,,,,,,e,1,0.4927,0,9,9,6,1,,,,,,,,,,,,,,,,,,,,,,,,
,,,,,,,,,,,,,,1,001,2025-01-05_21h44.12.930,IAT(Formal),2021.2.3,Win32,30.03003003,,,,,,,,,,,,,,,,,,,,,,,,,,,,,,,,,,,,,,,,,,space,4.3915,i,1,0.7267,0,0,0,2,1,我们,i,,,,,,,,,,,,
,,,,,,,,,,,,,,1,001,2025-01-05_21h44.12.930,IAT(Formal),2021.2.3,Win32,30.03003003,,,,,,,,,,,,,,,,,,,,,,,,,,,,,,,,,,,,,,,,,,,,i,0,0.6587,0,1,1,12,1,聪明,e,,,,,,,,,,,,
,,,,,,,,,,,,,,1,001,2025-01-05_21h44.12.930,IAT(Formal),2021.2.3,Win32,30.03003003,,,,,,,,,,,,,,,,,,,,,,,,,,,,,,,,,,,,,,,,,,,,i,1,1.0304,0,2,2,61,1,我的,i,,,,,,,,,,,,
,,,,,,,,,,,,,,1,001,2025-01-05_21h44.12.930,IAT(Formal),2021.2.3,Win32,30.03003003,,,,,,,,,,,,,,,,,,,,,,,,,,,,,,,,,,,,,,,,,,,,e,1,0.777,0,3,3,59,1,其他,e,,,,,,,,,,,,
,,,,,,,,,,,,,,1,001,2025-01-05_21h44.12.930,IAT(Formal),2021.2.3,Win32,30.03003003,,,,,,,,,,,,,,,,,,,,,,,,,,,,,,,,,,,,,,,,,,,,i,0,0.9314,0,4,4,22,1,无私,e,,,,,,,,,,,,
,,,,,,,,,,,,,,1,001,2025-01-05_21h44.12.930,IAT(Formal),2021.2.3,Win32,30.03003003,,,,,,,,,,,,,,,,,,,,,,,,,,,,,,,,,,,,,,,,,,,,e,1,0.8776,0,5,5,17,1,勇敢,e,,,,,,,,,,,,
,,,,,,,,,,,,,,1,001,2025-01-05_21h44.12.930,IAT(Formal),2021.2.3,Win32,30.03003003,,,,,,,,,,,,,,,,,,,,,,,,,,,,,,,,,,,,,,,,,,,,i,1,0.7794,0,6,6,64,1,俺,i,,,,,,,,,,,,
,,,,,,,,,,,,,,1,001,2025-01-05_21h44.12.930,IAT(Formal),2021.2.3,Win32,30.03003003,,,,,,,,,,,,,,,,,,,,,,,,,,,,,,,,,,,,,,,,,,,,e,0,0.7796,0,7,7,3,1,自己,i,,,,,,,,,,,,
,,,,,,,,,,,,,,1,001,2025-01-05_21h44.12.930,IAT(Formal),2021.2.3,Win32,30.03003003,,,,,,,,,,,,,,,,,,,,,,,,,,,,,,,,,,,,,,,,,,,,i,1,0.6838,0,8,8,42,1,凶狠,i,,,,,,,,,,,,
,,,,,,,,,,,,,,1,001,2025-01-05_21h44.12.930,IAT(Formal),2021.2.3,Win32,30.03003003,,,,,,,,,,,,,,,,,,,,,,,,,,,,,,,,,,,,,,,,,,,,e,0,0.6052,0,9,9,34,1,悲观,i,,,,,,,,,,,,
,,,,,,,,,,,,,,1,001,2025-01-05_21h44.12.930,IAT(Formal),2021.2.3,Win32,30.03003003,,,,,,,,,,,,,,,,,,,,,,,,,,,,,,,,,,,,,,,,,,,,i,1,1.2033,0,10,10,39,1,冒失,i,,,,,,,,,,,,
,,,,,,,,,,,,,,1,001,2025-01-05_21h44.12.930,IAT(Formal),2021.2.3,Win32,30.03003003,,,,,,,,,,,,,,,,,,,,,,,,,,,,,,,,,,,,,,,,,,,,i,1,0.6389,0,11,11,70,1,我,i,,,,,,,,,,,,
,,,,,,,,,,,,,,1,001,2025-01-05_21h44.12.930,IAT(Formal),2021.2.3,Win32,30.03003003,,,,,,,,,,,,,,,,,,,,,,,,,,,,,,,,,,,,,,,,,,,,e,0,0.9453,0,12,12,41,1,散漫,i,,,,,,,,,,,,
,,,,,,,,,,,,,,1,001,2025-01-05_21h44.12.930,IAT(Formal),2021.2.3,Win32,30.03003003,,,,,,,,,,,,,,,,,,,,,,,,,,,,,,,,,,,,,,,,,,,,i,0,1.1764,0,13,13,24,1,朴实,e,,,,,,,,,,,,
,,,,,,,,,,,,,,1,001,2025-01-05_21h44.12.930,IAT(Formal),2021.2.3,Win32,30.03003003,,,,,,,,,,,,,,,,,,,,,,,,,,,,,,,,,,,,,,,,,,,,e,1,1.287,0,14,14,25,1,细腻,e,,,,,,,,,,,,
,,,,,,,,,,,,,,1,001,2025-01-05_21h44.12.930,IAT(Formal),2021.2.3,Win32,30.03003003,,,,,,,,,,,,,,,,,,,,,,,,,,,,,,,,,,,,,,,,,,,,,0,,0,15,15,6,1,他们,e,,,,,,,,,,,,
,,,,,,,,,,,,,,1,001,2025-01-05_21h44.12.930,IAT(Formal),2021.2.3,Win32,30.03003003,,,,,,,,,,,,,,,,,,,,,,,,,,,,,,,,,,,,,,,,,,,,e,1,0.9569,0,16,16,23,1,公正,e,,,,,,,,,,,,
,,,,,,,,,,,,,,1,001,2025-01-05_21h44.12.930,IAT(Formal),2021.2.3,Win32,30.03003003,,,,,,,,,,,,,,,,,,,,,,,,,,,,,,,,,,,,,,,,,,,,i,1,0.6937,0,17,17,72,1,我们,i,,,,,,,,,,,,
,,,,,,,,,,,,,,1,001,2025-01-05_21h44.12.930,IAT(Formal),2021.2.3,Win32,30.03003003,,,,,,,,,,,,,,,,,,,,,,,,,,,,,,,,,,,,,,,,,,,,i,1,0.9377,0,18,18,38,1,鲁莽,i,,,,,,,,,,,,
,,,,,,,,,,,,,,1,001,2025-01-05_21h44.12.930,IAT(Formal),2021.2.3,Win32,30.03003003,,,,,,,,,,,,,,,,,,,,,,,,,,,,,,,,,,,,,,,,,,,,i,1,0.6855,0,19,19,30,1,卑鄙,i,,,,,,,,,,,,
,,,,,,,,,,,,,,1,001,2025-01-05_21h44.12.930,IAT(Formal),2021.2.3,Win32,30.03003003,,,,,,,,,,,,,,,,,,,,,,,,,,,,,,,,,,,,,,,,,,,,e,1,0.8036,0,20,20,18,1,勤奋,e,,,,,,,,,,,,
,,,,,,,,,,,,,,1,001,2025-01-05_21h44.12.930,IAT(Formal),2021.2.3,Win32,30.03003003,,,,,,,,,,,,,,,,,,,,,,,,,,,,,,,,,,,,,,,,,,,,e,1,0.9288,0,21,21,9,1,其他,e,,,,,,,,,,,,
,,,,,,,,,,,,,,1,001,2025-01-05_21h44.12.930,IAT(Formal),2021.2.3,Win32,30.03003003,,,,,,,,,,,,,,,,,,,,,,,,,,,,,,,,,,,,,,,,,,,,e,1,0.8204,0,22,22,15,1,诚实,e,,,,,,,,,,,,
,,,,,,,,,,,,,,1,001,2025-01-05_21h44.12.930,IAT(Formal),2021.2.3,Win32,30.03003003,,,,,,,,,,,,,,,,,,,,,,,,,,,,,,,,,,,,,,,,,,,,i,1,0.6305,0,23,23,48,1,轻率,i,,,,,,,,,,,,
,,,,,,,,,,,,,,1,001,2025-01-05_21h44.12.930,IAT(Formal),2021.2.3,Win32,30.03003003,,,,,,,,,,,,,,,,,,,,,,,,,,,,,,,,,,,,,,,,,,,,i,1,0.8447,0,24,24,36,1,自卑,i,,,,,,,,,,,,
,,,,,,,,,,,,,,1,001,2025-01-05_21h44.12.930,IAT(Formal),2021.2.3,Win32,30.03003003,,,,,,,,,,,,,,,,,,,,,,,,,,,,,,,,,,,,,,,,,,,,i,0,0.5631,0,25,25,7,1,他的,e,,,,,,,,,,,,
,,,,,,,,,,,,,,1,001,2025-01-05_21h44.12.930,IAT(Formal),2021.2.3,Win32,30.03003003,,,,,,,,,,,,,,,,,,,,,,,,,,,,,,,,,,,,,,,,,,,,e,1,0.6002,0,26,26,57,1,他的,e,,,,,,,,,,,,
,,,,,,,,,,,,,,1,001,2025-01-05_21h44.12.930,IAT(Formal),2021.2.3,Win32,30.03003003,,,,,,,,,,,,,,,,,,,,,,,,,,,,,,,,,,,,,,,,,,,,i,1,0.8414,0,27,27,1,1,我的,i,,,,,,,,,,,,
,,,,,,,,,,,,,,1,001,2025-01-05_21h44.12.930,IAT(Formal),2021.2.3,Win32,30.03003003,,,,,,,,,,,,,,,,,,,,,,,,,,,,,,,,,,,,,,,,,,,,i,1,0.8132,0,28,28,63,1,自己,i,,,,,,,,,,,,
,,,,,,,,,,,,,,1,001,2025-01-05_21h44.12.930,IAT(Formal),2021.2.3,Win32,30.03003003,,,,,,,,,,,,,,,,,,,,,,,,,,,,,,,,,,,,,,,,,,,,i,1,0.5649,0,29,29,0,1,我,i,,,,,,,,,,,,
,,,,,,,,,,,,,,1,001,2025-01-05_21h44.12.930,IAT(Formal),2021.2.3,Win32,30.03003003,,,,,,,,,,,,,,,,,,,,,,,,,,,,,,,,,,,,,,,,,,,,i,0,0.5279,0,30,30,29,1,诚恳,e,,,,,,,,,,,,
,,,,,,,,,,,,,,1,001,2025-01-05_21h44.12.930,IAT(Formal),2021.2.3,Win32,30.03003003,,,,,,,,,,,,,,,,,,,,,,,,,,,,,,,,,,,,,,,,,,,,e,0,0.6592,0,31,31,74,1,俺,i,,,,,,,,,,,,
,,,,,,,,,,,,,,1,001,2025-01-05_21h44.12.930,IAT(Formal),2021.2.3,Win32,30.03003003,,,,,,,,,,,,,,,,,,,,,,,,,,,,,,,,,,,,,,,,,,,,,0,,0,32,32,31,1,虚伪,i,,,,,,,,,,,,
,,,,,,,,,,,,,,1,001,2025-01-05_21h44.12.930,IAT(Formal),2021.2.3,Win32,30.03003003,,,,,,,,,,,,,,,,,,,,,,,,,,,,,,,,,,,,,,,,,,,,e,0,0.6686,0,33,33,73,1,自己,i,,,,,,,,,,,,
,,,,,,,,,,,,,,1,001,2025-01-05_21h44.12.930,IAT(Formal),2021.2.3,Win32,30.03003003,,,,,,,,,,,,,,,,,,,,,,,,,,,,,,,,,,,,,,,,,,,,i,1,1.1196,0,34,34,32,1,愚蠢,i,,,,,,,,,,,,
,,,,,,,,,,,,,,1,001,2025-01-05_21h44.12.930,IAT(Formal),2021.2.3,Win32,30.03003003,,,,,,,,,,,,,,,,,,,,,,,,,,,,,,,,,,,,,,,,,,,,e,1,0.7498,0,35,35,27,1,热情,e,,,,,,,,,,,,
,,,,,,,,,,,,,,1,001,2025-01-05_21h44.12.930,IAT(Formal),2021.2.3,Win32,30.03003003,,,,,,,,,,,,,,,,,,,,,,,,,,,,,,,,,,,,,,,,,,,,e,1,0.7728,0,36,36,76,1,他们,e,,,,,,,,,,,,
,,,,,,,,,,,,,,1,001,2025-01-05_21h44.12.930,IAT(Formal),2021.2.3,Win32,30.03003003,,,,,,,,,,,,,,,,,,,,,,,,,,,,,,,,,,,,,,,,,,,,i,1,0.6644,0,37,37,53,1,自己,i,,,,,,,,,,,,
,,,,,,,,,,,,,,1,001,2025-01-05_21h44.12.930,IAT(Formal),2021.2.3,Win32,30.03003003,,,,,,,,,,,,,,,,,,,,,,,,,,,,,,,,,,,,,,,,,,,,i,1,1.0318,0,38,38,60,1,我,i,,,,,,,,,,,,
,,,,,,,,,,,,,,1,001,2025-01-05_21h44.12.930,IAT(Formal),2021.2.3,Win32,30.03003003,,,,,,,,,,,,,,,,,,,,,,,,,,,,,,,,,,,,,,,,,,,,i,0,0.6121,0,39,39,14,1,乐观,e,,,,,,,,,,,,
,,,,,,,,,,,,,,1,001,2025-01-05_21h44.12.930,IAT(Formal),2021.2.3,Win32,30.03003003,,,,,,,,,,,,,,,,,,,,,,,,,,,,,,,,,,,,,,,,,,,,i,1,1.2371,0,40,40,45,1,猖狂,i,,,,,,,,,,,,
,,,,,,,,,,,,,,1,001,2025-01-05_21h44.12.930,IAT(Formal),2021.2.3,Win32,30.03003003,,,,,,,,,,,,,,,,,,,,,,,,,,,,,,,,,,,,,,,,,,,,i,1,0.5388,0,41,41,47,1,固执,i,,,,,,,,,,,,
,,,,,,,,,,,,,,1,001,2025-01-05_21h44.12.930,IAT(Formal),2021.2.3,Win32,30.03003003,,,,,,,,,,,,,,,,,,,,,,,,,,,,,,,,,,,,,,,,,,,,i,1,1.0655,0,42,42,52,1,我们,i,,,,,,,,,,,,
,,,,,,,,,,,,,,1,001,2025-01-05_21h44.12.930,IAT(Formal),2021.2.3,Win32,30.03003003,,,,,,,,,,,,,,,,,,,,,,,,,,,,,,,,,,,,,,,,,,,,e,0,0.7933,0,43,43,44,1,暴躁,i,,,,,,,,,,,,
,,,,,,,,,,,,,,1,001,2025-01-05_21h44.12.930,IAT(Formal),2021.2.3,Win32,30.03003003,,,,,,,,,,,,,,,,,,,,,,,,,,,,,,,,,,,,,,,,,,,,e,1,1.0096,0,44,44,20,1,认真,e,,,,,,,,,,,,
,,,,,,,,,,,,,,1,001,2025-01-05_21h44.12.930,IAT(Formal),2021.2.3,Win32,30.03003003,,,,,,,,,,,,,,,,,,,,,,,,,,,,,,,,,,,,,,,,,,,,e,1,0.5341,0,45,45,13,1,杰出,e,,,,,,,,,,,,
,,,,,,,,,,,,,,1,001,2025-01-05_21h44.12.930,IAT(Formal),2021.2.3,Win32,30.03003003,,,,,,,,,,,,,,,,,,,,,,,,,,,,,,,,,,,,,,,,,,,,e,1,0.7752,0,46,46,65,1,他,e,,,,,,,,,,,,
,,,,,,,,,,,,,,1,001,2025-01-05_21h44.12.930,IAT(Formal),2021.2.3,Win32,30.03003003,,,,,,,,,,,,,,,,,,,,,,,,,,,,,,,,,,,,,,,,,,,,e,0,0.6909,0,47,47,33,1,刻薄,i,,,,,,,,,,,,
,,,,,,,,,,,,,,1,001,2025-01-05_21h44.12.930,IAT(Formal),2021.2.3,Win32,30.03003003,,,,,,,,,,,,,,,,,,,,,,,,,,,,,,,,,,,,,,,,,,,,e,1,0.9368,0,48,48,8,1,他人,e,,,,,,,,,,,,
,,,,,,,,,,,,,,1,001,2025-01-05_21h44.12.930,IAT(Formal),2021.2.3,Win32,30.03003003,,,,,,,,,,,,,,,,,,,,,,,,,,,,,,,,,,,,,,,,,,,,e,1,0.5381,0,49,49,69,1,其他,e,,,,,,,,,,,,
,,,,,,,,,,,,,,1,001,2025-01-05_21h44.12.930,IAT(Formal),2021.2.3,Win32,30.03003003,,,,,,,,,,,,,,,,,,,,,,,,,,,,,,,,,,,,,,,,,,,,e,1,0.5309,0,50,50,75,1,他,e,,,,,,,,,,,,
,,,,,,,,,,,,,,1,001,2025-01-05_21h44.12.930,IAT(Formal),2021.2.3,Win32,30.03003003,,,,,,,,,,,,,,,,,,,,,,,,,,,,,,,,,,,,,,,,,,,,e,1,0.4142,0,51,51,55,1,他,e,,,,,,,,,,,,
,,,,,,,,,,,,,,1,001,2025-01-05_21h44.12.930,IAT(Formal),2021.2.3,Win32,30.03003003,,,,,,,,,,,,,,,,,,,,,,,,,,,,,,,,,,,,,,,,,,,,i,1,0.5601,0,52,52,4,1,俺,i,,,,,,,,,,,,
,,,,,,,,,,,,,,1,001,2025-01-05_21h44.12.930,IAT(Formal),2021.2.3,Win32,30.03003003,,,,,,,,,,,,,,,,,,,,,,,,,,,,,,,,,,,,,,,,,,,,i,1,0.6403,0,53,53,46,1,野蛮,i,,,,,,,,,,,,
,,,,,,,,,,,,,,1,001,2025-01-05_21h44.12.930,IAT(Formal),2021.2.3,Win32,30.03003003,,,,,,,,,,,,,,,,,,,,,,,,,,,,,,,,,,,,,,,,,,,,i,0,0.8433,0,54,54,67,1,他的,e,,,,,,,,,,,,
,,,,,,,,,,,,,,1,001,2025-01-05_21h44.12.930,IAT(Formal),2021.2.3,Win32,30.03003003,,,,,,,,,,,,,,,,,,,,,,,,,,,,,,,,,,,,,,,,,,,,i,1,0.8851,0,55,55,37,1,傲慢,i,,,,,,,,,,,,
,,,,,,,,,,,,,,1,001,2025-01-05_21h44.12.930,IAT(Formal),2021.2.3,Win32,30.03003003,,,,,,,,,,,,,,,,,,,,,,,,,,,,,,,,,,,,,,,,,,,,e,1,1.1738,0,56,56,79,1,其他,e,,,,,,,,,,,,
,,,,,,,,,,,,,,1,001,2025-01-05_21h44.12.930,IAT(Formal),2021.2.3,Win32,30.03003003,,,,,,,,,,,,,,,,,,,,,,,,,,,,,,,,,,,,,,,,,,,,i,1,0.9392,0,57,57,62,1,我们,i,,,,,,,,,,,,
,,,,,,,,,,,,,,1,001,2025-01-05_21h44.12.930,IAT(Formal),2021.2.3,Win32,30.03003003,,,,,,,,,,,,,,,,,,,,,,,,,,,,,,,,,,,,,,,,,,,,i,1,1.017,0,58,58,50,1,我,i,,,,,,,,,,,,
,,,,,,,,,,,,,,1,001,2025-01-05_21h44.12.930,IAT(Formal),2021.2.3,Win32,30.03003003,,,,,,,,,,,,,,,,,,,,,,,,,,,,,,,,,,,,,,,,,,,,i,1,0.5764,0,59,59,51,1,我的,i,,,,,,,,,,,,
,,,,,,,,,,,,,,1,001,2025-01-05_21h44.12.930,IAT(Formal),2021.2.3,Win32,30.03003003,,,,,,,,,,,,,,,,,,,,,,,,,,,,,,,,,,,,,,,,,,,,,0,,0,60,60,54,1,俺,i,,,,,,,,,,,,
,,,,,,,,,,,,,,1,001,2025-01-05_21h44.12.930,IAT(Formal),2021.2.3,Win32,30.03003003,,,,,,,,,,,,,,,,,,,,,,,,,,,,,,,,,,,,,,,,,,,,e,1,0.93,0,61,61,19,1,机智,e,,,,,,,,,,,,
,,,,,,,,,,,,,,1,001,2025-01-05_21h44.12.930,IAT(Formal),2021.2.3,Win32,30.03003003,,,,,,,,,,,,,,,,,,,,,,,,,,,,,,,,,,,,,,,,,,,,e,1,0.7837,0,62,62,77,1,他的,e,,,,,,,,,,,,
,,,,,,,,,,,,,,1,001,2025-01-05_21h44.12.930,IAT(Formal),2021.2.3,Win32,30.03003003,,,,,,,,,,,,,,,,,,,,,,,,,,,,,,,,,,,,,,,,,,,,e,1,0.6694,0,63,63,66,1,他们,e,,,,,,,,,,,,
,,,,,,,,,,,,,,1,001,2025-01-05_21h44.12.930,IAT(Formal),2021.2.3,Win32,30.03003003,,,,,,,,,,,,,,,,,,,,,,,,,,,,,,,,,,,,,,,,,,,,e,0,0.6489,0,64,64,49,1,下贱,i,,,,,,,,,,,,
,,,,,,,,,,,,,,1,001,2025-01-05_21h44.12.930,IAT(Formal),2021.2.3,Win32,30.03003003,,,,,,,,,,,,,,,,,,,,,,,,,,,,,,,,,,,,,,,,,,,,e,1,0.8568,0,65,65,58,1,他人,e,,,,,,,,,,,,
,,,,,,,,,,,,,,1,001,2025-01-05_21h44.12.930,IAT(Formal),2021.2.3,Win32,30.03003003,,,,,,,,,,,,,,,,,,,,,,,,,,,,,,,,,,,,,,,,,,,,i,0,1.0487,0,66,66,10,1,优秀,e,,,,,,,,,,,,
,,,,,,,,,,,,,,1,001,2025-01-05_21h44.12.930,IAT(Formal),2021.2.3,Win32,30.03003003,,,,,,,,,,,,,,,,,,,,,,,,,,,,,,,,,,,,,,,,,,,,e,1,0.6988,0,67,67,56,1,他们,e,,,,,,,,,,,,
,,,,,,,,,,,,,,1,001,2025-01-05_21h44.12.930,IAT(Formal),2021.2.3,Win32,30.03003003,,,,,,,,,,,,,,,,,,,,,,,,,,,,,,,,,,,,,,,,,,,,i,1,1.0983,0,68,68,40,1,执拗,i,,,,,,,,,,,,
,,,,,,,,,,,,,,1,001,2025-01-05_21h44.12.930,IAT(Formal),2021.2.3,Win32,30.03003003,,,,,,,,,,,,,,,,,,,,,,,,,,,,,,,,,,,,,,,,,,,,e,1,1.1237,0,69,69,28,1,活泼,e,,,,,,,,,,,,
,,,,,,,,,,,,,,1,001,2025-01-05_21h44.12.930,IAT(Formal),2021.2.3,Win32,30.03003003,,,,,,,,,,,,,,,,,,,,,,,,,,,,,,,,,,,,,,,,,,,,i,1,0.8849,0,70,70,35,1,消极,i,,,,,,,,,,,,
,,,,,,,,,,,,,,1,001,2025-01-05_21h44.12.930,IAT(Formal),2021.2.3,Win32,30.03003003,,,,,,,,,,,,,,,,,,,,,,,,,,,,,,,,,,,,,,,,,,,,e,1,0.6354,0,71,71,5,1,他,e,,,,,,,,,,,,
,,,,,,,,,,,,,,1,001,2025-01-05_21h44.12.930,IAT(Formal),2021.2.3,Win32,30.03003003,,,,,,,,,,,,,,,,,,,,,,,,,,,,,,,,,,,,,,,,,,,,i,1,0.7647,0,72,72,71,1,我的,i,,,,,,,,,,,,
,,,,,,,,,,,,,,1,001,2025-01-05_21h44.12.930,IAT(Formal),2021.2.3,Win32,30.03003003,,,,,,,,,,,,,,,,,,,,,,,,,,,,,,,,,,,,,,,,,,,,e,1,0.7473,0,73,73,68,1,他人,e,,,,,,,,,,,,
,,,,,,,,,,,,,,1,001,2025-01-05_21h44.12.930,IAT(Formal),2021.2.3,Win32,30.03003003,,,,,,,,,,,,,,,,,,,,,,,,,,,,,,,,,,,,,,,,,,,,e,1,1.1111,0,74,74,21,1,稳重,e,,,,,,,,,,,,
,,,,,,,,,,,,,,1,001,2025-01-05_21h44.12.930,IAT(Formal),2021.2.3,Win32,30.03003003,,,,,,,,,,,,,,,,,,,,,,,,,,,,,,,,,,,,,,,,,,,,e,1,1.0228,0,75,75,26,1,冷静,e,,,,,,,,,,,,
,,,,,,,,,,,,,,1,001,2025-01-05_21h44.12.930,IAT(Formal),2021.2.3,Win32,30.03003003,,,,,,,,,,,,,,,,,,,,,,,,,,,,,,,,,,,,,,,,,,,,e,1,0.6863,0,76,76,78,1,他人,e,,,,,,,,,,,,
,,,,,,,,,,,,,,1,001,2025-01-05_21h44.12.930,IAT(Formal),2021.2.3,Win32,30.03003003,,,,,,,,,,,,,,,,,,,,,,,,,,,,,,,,,,,,,,,,,,,,e,1,0.6815,0,77,77,11,1,崇高,e,,,,,,,,,,,,
,,,,,,,,,,,,,,1,001,2025-01-05_21h44.12.930,IAT(Formal),2021.2.3,Win32,30.03003003,,,,,,,,,,,,,,,,,,,,,,,,,,,,,,,,,,,,,,,,,,,,e,1,0.5957,0,78,78,16,1,正直,e,,,,,,,,,,,,
,,,,,,,,,,,,,,1,001,2025-01-05_21h44.12.930,IAT(Formal),2021.2.3,Win32,30.03003003,,,,,,,,,,,,,,,,,,,,,,,,,,,,,,,,,,,,,,,,,,,,e,0,0.7984,0,79,79,43,1,自私,i,,,,,,,,,,,,
,,,,,,,,,,,,,,1,001,2025-01-05_21h44.12.930,IAT(Formal),2021.2.3,Win32,30.03003003,,,,,,,,,,,,,,,,,,,,,,,,,,,,,,,,,,,,,,,,,,,,,,,,,,,,自己,i,space,8.0248,,0,0,0,0,73,1,,,
,,,,,,,,,,,,,,1,001,2025-01-05_21h44.12.930,IAT(Formal),2021.2.3,Win32,30.03003003,,,,,,,,,,,,,,,,,,,,,,,,,,,,,,,,,,,,,,,,,,,,,,,,,,,,他们,e,,,i,0,0,1,1,56,1,0.6757,,
,,,,,,,,,,,,,,1,001,2025-01-05_21h44.12.930,IAT(Formal),2021.2.3,Win32,30.03003003,,,,,,,,,,,,,,,,,,,,,,,,,,,,,,,,,,,,,,,,,,,,,,,,,,,,他的,e,,,e,1,0,2,2,67,1,0.6233,,
,,,,,,,,,,,,,,1,001,2025-01-05_21h44.12.930,IAT(Formal),2021.2.3,Win32,30.03003003,,,,,,,,,,,,,,,,,,,,,,,,,,,,,,,,,,,,,,,,,,,,,,,,,,,,机智,e,,,e,1,0,3,3,19,1,0.4315,,
,,,,,,,,,,,,,,1,001,2025-01-05_21h44.12.930,IAT(Formal),2021.2.3,Win32,30.03003003,,,,,,,,,,,,,,,,,,,,,,,,,,,,,,,,,,,,,,,,,,,,,,,,,,,,朴实,e,,,e,1,0,4,4,24,1,0.5224,,
,,,,,,,,,,,,,,1,001,2025-01-05_21h44.12.930,IAT(Formal),2021.2.3,Win32,30.03003003,,,,,,,,,,,,,,,,,,,,,,,,,,,,,,,,,,,,,,,,,,,,,,,,,,,,我的,i,,,i,1,0,5,5,1,1,0.6384,,
,,,,,,,,,,,,,,1,001,2025-01-05_21h44.12.930,IAT(Formal),2021.2.3,Win32,30.03003003,,,,,,,,,,,,,,,,,,,,,,,,,,,,,,,,,,,,,,,,,,,,,,,,,,,,他人,e,,,e,1,0,6,6,58,1,0.6363,,
,,,,,,,,,,,,,,1,001,2025-01-05_21h44.12.930,IAT(Formal),2021.2.3,Win32,30.03003003,,,,,,,,,,,,,,,,,,,,,,,,,,,,,,,,,,,,,,,,,,,,,,,,,,,,卑鄙,i,,,i,1,0,7,7,30,1,0.7351,,
,,,,,,,,,,,,,,1,001,2025-01-05_21h44.12.930,IAT(Formal),2021.2.3,Win32,30.03003003,,,,,,,,,,,,,,,,,,,,,,,,,,,,,,,,,,,,,,,,,,,,,,,,,,,,优秀,e,,,e,1,0,8,8,10,1,0.7781,,
,,,,,,,,,,,,,,1,001,2025-01-05_21h44.12.930,IAT(Formal),2021.2.3,Win32,30.03003003,,,,,,,,,,,,,,,,,,,,,,,,,,,,,,,,,,,,,,,,,,,,,,,,,,,,消极,i,,,i,1,0,9,9,35,1,0.4873,,
,,,,,,,,,,,,,,1,001,2025-01-05_21h44.12.930,IAT(Formal),2021.2.3,Win32,30.03003003,,,,,,,,,,,,,,,,,,,,,,,,,,,,,,,,,,,,,,,,,,,,,,,,,,,,无私,e,,,e,1,0,10,10,22,1,1.0256,,
,,,,,,,,,,,,,,1,001,2025-01-05_21h44.12.930,IAT(Formal),2021.2.3,Win32,30.03003003,,,,,,,,,,,,,,,,,,,,,,,,,,,,,,,,,,,,,,,,,,,,,,,,,,,,凶狠,i,,,i,1,0,11,11,42,1,0.6972,,
,,,,,,,,,,,,,,1,001,2025-01-05_21h44.12.930,IAT(Formal),2021.2.3,Win32,30.03003003,,,,,,,,,,,,,,,,,,,,,,,,,,,,,,,,,,,,,,,,,,,,,,,,,,,,我们,i,,,e,0,0,12,12,72,1,1.0655,,
,,,,,,,,,,,,,,1,001,2025-01-05_21h44.12.930,IAT(Formal),2021.2.3,Win32,30.03003003,,,,,,,,,,,,,,,,,,,,,,,,,,,,,,,,,,,,,,,,,,,,,,,,,,,,他人,e,,,e,1,0,13,13,8,1,1.0962,,
,,,,,,,,,,,,,,1,001,2025-01-05_21h44.12.930,IAT(Formal),2021.2.3,Win32,30.03003003,,,,,,,,,,,,,,,,,,,,,,,,,,,,,,,,,,,,,,,,,,,,,,,,,,,,虚伪,i,,,i,1,0,14,14,31,1,0.6024,,
,,,,,,,,,,,,,,1,001,2025-01-05_21h44.12.930,IAT(Formal),2021.2.3,Win32,30.03003003,,,,,,,,,,,,,,,,,,,,,,,,,,,,,,,,,,,,,,,,,,,,,,,,,,,,俺,i,,,e,0,0,15,15,4,1,0.7609,,
,,,,,,,,,,,,,,1,001,2025-01-05_21h44.12.930,IAT(Formal),2021.2.3,Win32,30.03003003,,,,,,,,,,,,,,,,,,,,,,,,,,,,,,,,,,,,,,,,,,,,,,,,,,,,冒失,i,,,e,0,0,16,16,39,1,1.0322,,
,,,,,,,,,,,,,,1,001,2025-01-05_21h44.12.930,IAT(Formal),2021.2.3,Win32,30.03003003,,,,,,,,,,,,,,,,,,,,,,,,,,,,,,,,,,,,,,,,,,,,,,,,,,,,我,i,,,i,1,0,17,17,60,1,0.6563,,
,,,,,,,,,,,,,,1,001,2025-01-05_21h44.12.930,IAT(Formal),2021.2.3,Win32,30.03003003,,,,,,,,,,,,,,,,,,,,,,,,,,,,,,,,,,,,,,,,,,,,,,,,,,,,下贱,i,,,e,0,0,18,18,49,1,1.1902,,
,,,,,,,,,,,,,,1,001,2025-01-05_21h44.12.930,IAT(Formal),2021.2.3,Win32,30.03003003,,,,,,,,,,,,,,,,,,,,,,,,,,,,,,,,,,,,,,,,,,,,,,,,,,,,他的,e,,,,0,0,19,19,57,1,,,
,,,,,,,,,,,,,,1,001,2025-01-05_21h44.12.930,IAT(Formal),2021.2.3,Win32,30.03003003,,,,,,,,,,,,,,,,,,,,,,,,,,,,,,,,,,,,,,,,,,,,,,,,,,,,暴躁,i,,,i,1,0,20,20,44,1,0.5343,,
,,,,,,,,,,,,,,1,001,2025-01-05_21h44.12.930,IAT(Formal),2021.2.3,Win32,30.03003003,,,,,,,,,,,,,,,,,,,,,,,,,,,,,,,,,,,,,,,,,,,,,,,,,,,,冷静,e,,,e,1,0,21,21,26,1,0.8392,,
,,,,,,,,,,,,,,1,001,2025-01-05_21h44.12.930,IAT(Formal),2021.2.3,Win32,30.03003003,,,,,,,,,,,,,,,,,,,,,,,,,,,,,,,,,,,,,,,,,,,,,,,,,,,,其他,e,,,e,1,0,22,22,9,1,0.8656,,
,,,,,,,,,,,,,,1,001,2025-01-05_21h44.12.930,IAT(Formal),2021.2.3,Win32,30.03003003,,,,,,,,,,,,,,,,,,,,,,,,,,,,,,,,,,,,,,,,,,,,,,,,,,,,猖狂,i,,,i,1,0,23,23,45,1,1.0087,,
,,,,,,,,,,,,,,1,001,2025-01-05_21h44.12.930,IAT(Formal),2021.2.3,Win32,30.03003003,,,,,,,,,,,,,,,,,,,,,,,,,,,,,,,,,,,,,,,,,,,,,,,,,,,,他,e,,,e,1,0,24,24,75,1,0.6743,,
,,,,,,,,,,,,,,1,001,2025-01-05_21h44.12.930,IAT(Formal),2021.2.3,Win32,30.03003003,,,,,,,,,,,,,,,,,,,,,,,,,,,,,,,,,,,,,,,,,,,,,,,,,,,,悲观,i,,,e,0,0,25,25,34,1,0.6281,,
,,,,,,,,,,,,,,1,001,2025-01-05_21h44.12.930,IAT(Formal),2021.2.3,Win32,30.03003003,,,,,,,,,,,,,,,,,,,,,,,,,,,,,,,,,,,,,,,,,,,,,,,,,,,,热情,e,,,i,0,0,26,26,27,1,0.7067,,
,,,,,,,,,,,,,,1,001,2025-01-05_21h44.12.930,IAT(Formal),2021.2.3,Win32,30.03003003,,,,,,,,,,,,,,,,,,,,,,,,,,,,,,,,,,,,,,,,,,,,,,,,,,,,我,i,,,e,0,0,27,27,70,1,0.6669,,
,,,,,,,,,,,,,,1,001,2025-01-05_21h44.12.930,IAT(Formal),2021.2.3,Win32,30.03003003,,,,,,,,,,,,,,,,,,,,,,,,,,,,,,,,,,,,,,,,,,,,,,,,,,,,我,i,,,i,1,0,28,28,50,1,0.5481,,
,,,,,,,,,,,,,,1,001,2025-01-05_21h44.12.930,IAT(Formal),2021.2.3,Win32,30.03003003,,,,,,,,,,,,,,,,,,,,,,,,,,,,,,,,,,,,,,,,,,,,,,,,,,,,勤奋,e,,,i,0,0,29,29,18,1,1.107,,
,,,,,,,,,,,,,,1,001,2025-01-05_21h44.12.930,IAT(Formal),2021.2.3,Win32,30.03003003,,,,,,,,,,,,,,,,,,,,,,,,,,,,,,,,,,,,,,,,,,,,,,,,,,,,正直,e,,,e,1,0,30,30,16,1,0.7873,,
,,,,,,,,,,,,,,1,001,2025-01-05_21h44.12.930,IAT(Formal),2021.2.3,Win32,30.03003003,,,,,,,,,,,,,,,,,,,,,,,,,,,,,,,,,,,,,,,,,,,,,,,,,,,,他的,e,,,e,1,0,31,31,77,1,0.7985,,
,,,,,,,,,,,,,,1,001,2025-01-05_21h44.12.930,IAT(Formal),2021.2.3,Win32,30.03003003,,,,,,,,,,,,,,,,,,,,,,,,,,,,,,,,,,,,,,,,,,,,,,,,,,,,野蛮,i,,,i,1,0,32,32,46,1,0.9293,,
,,,,,,,,,,,,,,1,001,2025-01-05_21h44.12.930,IAT(Formal),2021.2.3,Win32,30.03003003,,,,,,,,,,,,,,,,,,,,,,,,,,,,,,,,,,,,,,,,,,,,,,,,,,,,其他,e,,,e,1,0,33,33,59,1,0.9004,,
,,,,,,,,,,,,,,1,001,2025-01-05_21h44.12.930,IAT(Formal),2021.2.3,Win32,30.03003003,,,,,,,,,,,,,,,,,,,,,,,,,,,,,,,,,,,,,,,,,,,,,,,,,,,,轻率,i,,,i,1,0,34,34,48,1,0.7648,,
,,,,,,,,,,,,,,1,001,2025-01-05_21h44.12.930,IAT(Formal),2021.2.3,Win32,30.03003003,,,,,,,,,,,,,,,,,,,,,,,,,,,,,,,,,,,,,,,,,,,,,,,,,,,,公正,e,,,e,1,0,35,35,23,1,0.7281,,
,,,,,,,,,,,,,,1,001,2025-01-05_21h44.12.930,IAT(Formal),2021.2.3,Win32,30.03003003,,,,,,,,,,,,,,,,,,,,,,,,,,,,,,,,,,,,,,,,,,,,,,,,,,,,执拗,i,,,i,1,0,36,36,40,1,0.7997,,
,,,,,,,,,,,,,,1,001,2025-01-05_21h44.12.930,IAT(Formal),2021.2.3,Win32,30.03003003,,,,,,,,,,,,,,,,,,,,,,,,,,,,,,,,,,,,,,,,,,,,,,,,,,,,俺,i,,,e,0,0,37,37,74,1,0.5992,,
,,,,,,,,,,,,,,1,001,2025-01-05_21h44.12.930,IAT(Formal),2021.2.3,Win32,30.03003003,,,,,,,,,,,,,,,,,,,,,,,,,,,,,,,,,,,,,,,,,,,,,,,,,,,,自卑,i,,,i,1,0,38,38,36,1,0.4793,,
,,,,,,,,,,,,,,1,001,2025-01-05_21h44.12.930,IAT(Formal),2021.2.3,Win32,30.03003003,,,,,,,,,,,,,,,,,,,,,,,,,,,,,,,,,,,,,,,,,,,,,,,,,,,,自己,i,,,i,1,0,39,39,3,1,0.8564,,
,,,,,,,,,,,,,,1,001,2025-01-05_21h44.12.930,IAT(Formal),2021.2.3,Win32,30.03003003,,,,,,,,,,,,,,,,,,,,,,,,,,,,,,,,,,,,,,,,,,,,,,,,,,,,他,e,,,e,1,0,40,40,55,1,0.6527,,
,,,,,,,,,,,,,,1,001,2025-01-05_21h44.12.930,IAT(Formal),2021.2.3,Win32,30.03003003,,,,,,,,,,,,,,,,,,,,,,,,,,,,,,,,,,,,,,,,,,,,,,,,,,,,他人,e,,,e,1,0,41,41,68,1,0.5312,,
,,,,,,,,,,,,,,1,001,2025-01-05_21h44.12.930,IAT(Formal),2021.2.3,Win32,30.03003003,,,,,,,,,,,,,,,,,,,,,,,,,,,,,,,,,,,,,,,,,,,,,,,,,,,,傲慢,i,,,i,1,0,42,42,37,1,0.7095,,
,,,,,,,,,,,,,,1,001,2025-01-05_21h44.12.930,IAT(Formal),2021.2.3,Win32,30.03003003,,,,,,,,,,,,,,,,,,,,,,,,,,,,,,,,,,,,,,,,,,,,,,,,,,,,刻薄,i,,,i,1,0,43,43,33,1,0.8051,,
,,,,,,,,,,,,,,1,001,2025-01-05_21h44.12.930,IAT(Formal),2021.2.3,Win32,30.03003003,,,,,,,,,,,,,,,,,,,,,,,,,,,,,,,,,,,,,,,,,,,,,,,,,,,,其他,e,,,e,1,0,44,44,79,1,0.8807,,
,,,,,,,,,,,,,,1,001,2025-01-05_21h44.12.930,IAT(Formal),2021.2.3,Win32,30.03003003,,,,,,,,,,,,,,,,,,,,,,,,,,,,,,,,,,,,,,,,,,,,,,,,,,,,自己,i,,,i,1,0,45,45,63,1,0.6575,,
,,,,,,,,,,,,,,1,001,2025-01-05_21h44.12.930,IAT(Formal),2021.2.3,Win32,30.03003003,,,,,,,,,,,,,,,,,,,,,,,,,,,,,,,,,,,,,,,,,,,,,,,,,,,,俺,i,,,,0,0,46,46,54,1,,,
,,,,,,,,,,,,,,1,001,2025-01-05_21h44.12.930,IAT(Formal),2021.2.3,Win32,30.03003003,,,,,,,,,,,,,,,,,,,,,,,,,,,,,,,,,,,,,,,,,,,,,,,,,,,,崇高,e,,,i,0,0,47,47,11,1,1.1588,,
,,,,,,,,,,,,,,1,001,2025-01-05_21h44.12.930,IAT(Formal),2021.2.3,Win32,30.03003003,,,,,,,,,,,,,,,,,,,,,,,,,,,,,,,,,,,,,,,,,,,,,,,,,,,,俺,i,,,i,1,0,48,48,64,1,0.9707,,
,,,,,,,,,,,,,,1,001,2025-01-05_21h44.12.930,IAT(Formal),2021.2.3,Win32,30.03003003,,,,,,,,,,,,,,,,,,,,,,,,,,,,,,,,,,,,,,,,,,,,,,,,,,,,活泼,e,,,e,1,0,49,49,28,1,0.9561,,
,,,,,,,,,,,,,,1,001,2025-01-05_21h44.12.930,IAT(Formal),2021.2.3,Win32,30.03003003,,,,,,,,,,,,,,,,,,,,,,,,,,,,,,,,,,,,,,,,,,,,,,,,,,,,鲁莽,i,,,i,1,0,50,50,38,1,0.8563,,
,,,,,,,,,,,,,,1,001,2025-01-05_21h44.12.930,IAT(Formal),2021.2.3,Win32,30.03003003,,,,,,,,,,,,,,,,,,,,,,,,,,,,,,,,,,,,,,,,,,,,,,,,,,,,他,e,,,i,0,0,51,51,65,1,0.8141,,
,,,,,,,,,,,,,,1,001,2025-01-05_21h44.12.930,IAT(Formal),2021.2.3,Win32,30.03003003,,,,,,,,,,,,,,,,,,,,,,,,,,,,,,,,,,,,,,,,,,,,,,,,,,,,其他,e,,,e,1,0,52,52,69,1,0.6825,,
,,,,,,,,,,,,,,1,001,2025-01-05_21h44.12.930,IAT(Formal),2021.2.3,Win32,30.03003003,,,,,,,,,,,,,,,,,,,,,,,,,,,,,,,,,,,,,,,,,,,,,,,,,,,,他的,e,,,e,1,0,53,53,7,1,0.5622,,
,,,,,,,,,,,,,,1,001,2025-01-05_21h44.12.930,IAT(Formal),2021.2.3,Win32,30.03003003,,,,,,,,,,,,,,,,,,,,,,,,,,,,,,,,,,,,,,,,,,,,,,,,,,,,愚蠢,i,,,e,0,0,54,54,32,1,1.3619,,
,,,,,,,,,,,,,,1,001,2025-01-05_21h44.12.930,IAT(Formal),2021.2.3,Win32,30.03003003,,,,,,,,,,,,,,,,,,,,,,,,,,,,,,,,,,,,,,,,,,,,,,,,,,,,我们,i,,,i,1,0,55,55,52,1,0.7986,,
,,,,,,,,,,,,,,1,001,2025-01-05_21h44.12.930,IAT(Formal),2021.2.3,Win32,30.03003003,,,,,,,,,,,,,,,,,,,,,,,,,,,,,,,,,,,,,,,,,,,,,,,,,,,,稳重,e,,,i,0,0,56,56,21,1,0.8921,,
,,,,,,,,,,,,,,1,001,2025-01-05_21h44.12.930,IAT(Formal),2021.2.3,Win32,30.03003003,,,,,,,,,,,,,,,,,,,,,,,,,,,,,,,,,,,,,,,,,,,,,,,,,,,,我的,i,,,e,0,0,57,57,71,1,1.038,,
,,,,,,,,,,,,,,1,001,2025-01-05_21h44.12.930,IAT(Formal),2021.2.3,Win32,30.03003003,,,,,,,,,,,,,,,,,,,,,,,,,,,,,,,,,,,,,,,,,,,,,,,,,,,,我的,i,,,i,1,0,58,58,51,1,0.8489,,
,,,,,,,,,,,,,,1,001,2025-01-05_21h44.12.930,IAT(Formal),2021.2.3,Win32,30.03003003,,,,,,,,,,,,,,,,,,,,,,,,,,,,,,,,,,,,,,,,,,,,,,,,,,,,散漫,i,,,e,0,0,59,59,41,1,0.9813,,
,,,,,,,,,,,,,,1,001,2025-01-05_21h44.12.930,IAT(Formal),2021.2.3,Win32,30.03003003,,,,,,,,,,,,,,,,,,,,,,,,,,,,,,,,,,,,,,,,,,,,,,,,,,,,勇敢,e,,,e,1,0,60,60,17,1,1.3106,,
,,,,,,,,,,,,,,1,001,2025-01-05_21h44.12.930,IAT(Formal),2021.2.3,Win32,30.03003003,,,,,,,,,,,,,,,,,,,,,,,,,,,,,,,,,,,,,,,,,,,,,,,,,,,,诚恳,e,,,e,1,0,61,61,29,1,0.8694,,
,,,,,,,,,,,,,,1,001,2025-01-05_21h44.12.930,IAT(Formal),2021.2.3,Win32,30.03003003,,,,,,,,,,,,,,,,,,,,,,,,,,,,,,,,,,,,,,,,,,,,,,,,,,,,认真,e,,,,0,0,62,62,20,1,,,
,,,,,,,,,,,,,,1,001,2025-01-05_21h44.12.930,IAT(Formal),2021.2.3,Win32,30.03003003,,,,,,,,,,,,,,,,,,,,,,,,,,,,,,,,,,,,,,,,,,,,,,,,,,,,聪明,e,,,e,1,0,63,63,12,1,0.6343,,
,,,,,,,,,,,,,,1,001,2025-01-05_21h44.12.930,IAT(Formal),2021.2.3,Win32,30.03003003,,,,,,,,,,,,,,,,,,,,,,,,,,,,,,,,,,,,,,,,,,,,,,,,,,,,自己,i,,,i,1,0,64,64,53,1,1.2698,,
,,,,,,,,,,,,,,1,001,2025-01-05_21h44.12.930,IAT(Formal),2021.2.3,Win32,30.03003003,,,,,,,,,,,,,,,,,,,,,,,,,,,,,,,,,,,,,,,,,,,,,,,,,,,,乐观,e,,,e,1,0,65,65,14,1,0.8373,,
,,,,,,,,,,,,,,1,001,2025-01-05_21h44.12.930,IAT(Formal),2021.2.3,Win32,30.03003003,,,,,,,,,,,,,,,,,,,,,,,,,,,,,,,,,,,,,,,,,,,,,,,,,,,,他们,e,,,i,0,0,66,66,66,1,0.8341,,
,,,,,,,,,,,,,,1,001,2025-01-05_21h44.12.930,IAT(Formal),2021.2.3,Win32,30.03003003,,,,,,,,,,,,,,,,,,,,,,,,,,,,,,,,,,,,,,,,,,,,,,,,,,,,我的,i,,,e,0,0,67,67,61,1,0.5637,,
,,,,,,,,,,,,,,1,001,2025-01-05_21h44.12.930,IAT(Formal),2021.2.3,Win32,30.03003003,,,,,,,,,,,,,,,,,,,,,,,,,,,,,,,,,,,,,,,,,,,,,,,,,,,,杰出,e,,,i,0,0,68,68,13,1,0.8981,,
,,,,,,,,,,,,,,1,001,2025-01-05_21h44.12.930,IAT(Formal),2021.2.3,Win32,30.03003003,,,,,,,,,,,,,,,,,,,,,,,,,,,,,,,,,,,,,,,,,,,,,,,,,,,,我们,i,,,i,1,0,69,69,2,1,0.9157,,
,,,,,,,,,,,,,,1,001,2025-01-05_21h44.12.930,IAT(Formal),2021.2.3,Win32,30.03003003,,,,,,,,,,,,,,,,,,,,,,,,,,,,,,,,,,,,,,,,,,,,,,,,,,,,固执,i,,,i,1,0,70,70,47,1,0.8566,,
,,,,,,,,,,,,,,1,001,2025-01-05_21h44.12.930,IAT(Formal),2021.2.3,Win32,30.03003003,,,,,,,,,,,,,,,,,,,,,,,,,,,,,,,,,,,,,,,,,,,,,,,,,,,,我,i,,,i,1,0,71,71,0,1,0.5468,,
,,,,,,,,,,,,,,1,001,2025-01-05_21h44.12.930,IAT(Formal),2021.2.3,Win32,30.03003003,,,,,,,,,,,,,,,,,,,,,,,,,,,,,,,,,,,,,,,,,,,,,,,,,,,,诚实,e,,,i,0,0,72,72,15,1,0.5399,,
,,,,,,,,,,,,,,1,001,2025-01-05_21h44.12.930,IAT(Formal),2021.2.3,Win32,30.03003003,,,,,,,,,,,,,,,,,,,,,,,,,,,,,,,,,,,,,,,,,,,,,,,,,,,,他人,e,,,e,1,0,73,73,78,1,0.7357,,
,,,,,,,,,,,,,,1,001,2025-01-05_21h44.12.930,IAT(Formal),2021.2.3,Win32,30.03003003,,,,,,,,,,,,,,,,,,,,,,,,,,,,,,,,,,,,,,,,,,,,,,,,,,,,他们,e,,,e,1,0,74,74,76,1,0.5644,,
,,,,,,,,,,,,,,1,001,2025-01-05_21h44.12.930,IAT(Formal),2021.2.3,Win32,30.03003003,,,,,,,,,,,,,,,,,,,,,,,,,,,,,,,,,,,,,,,,,,,,,,,,,,,,自私,i,,,e,0,0,75,75,43,1,0.7214,,
,,,,,,,,,,,,,,1,001,2025-01-05_21h44.12.930,IAT(Formal),2021.2.3,Win32,30.03003003,,,,,,,,,,,,,,,,,,,,,,,,,,,,,,,,,,,,,,,,,,,,,,,,,,,,他们,e,,,e,1,0,76,76,6,1,0.7756,,
,,,,,,,,,,,,,,1,001,2025-01-05_21h44.12.930,IAT(Formal),2021.2.3,Win32,30.03003003,,,,,,,,,,,,,,,,,,,,,,,,,,,,,,,,,,,,,,,,,,,,,,,,,,,,他,e,,,e,1,0,77,77,5,1,0.4858,,
,,,,,,,,,,,,,,1,001,2025-01-05_21h44.12.930,IAT(Formal),2021.2.3,Win32,30.03003003,,,,,,,,,,,,,,,,,,,,,,,,,,,,,,,,,,,,,,,,,,,,,,,,,,,,我们,i,,,i,1,0,78,78,62,1,0.7779,,
,,,,,,,,,,,,,,1,001,2025-01-05_21h44.12.930,IAT(Formal),2021.2.3,Win32,30.03003003,,,,,,,,,,,,,,,,,,,,,,,,,,,,,,,,,,,,,,,,,,,,,,,,,,,,细腻,e,,,e,1,0,79,79,25,1,1.0764,,
,,,,,,,,,,,,,,1,001,2025-01-05_21h44.12.930,IAT(Formal),2021.2.3,Win32,30.03003003,,,,,,,,,,,,,,,,,,,,,,,,,,,,,,,,,,,,,,,,,,,,,,,,,,,,俺,i,,,i,1,1,0,80,74,1,0.8987,,
,,,,,,,,,,,,,,1,001,2025-01-05_21h44.12.930,IAT(Formal),2021.2.3,Win32,30.03003003,,,,,,,,,,,,,,,,,,,,,,,,,,,,,,,,,,,,,,,,,,,,,,,,,,,,崇高,e,,,i,0,1,1,81,11,1,0.6491,,
,,,,,,,,,,,,,,1,001,2025-01-05_21h44.12.930,IAT(Formal),2021.2.3,Win32,30.03003003,,,,,,,,,,,,,,,,,,,,,,,,,,,,,,,,,,,,,,,,,,,,,,,,,,,,乐观,e,,,e,1,1,2,82,14,1,0.9688,,
,,,,,,,,,,,,,,1,001,2025-01-05_21h44.12.930,IAT(Formal),2021.2.3,Win32,30.03003003,,,,,,,,,,,,,,,,,,,,,,,,,,,,,,,,,,,,,,,,,,,,,,,,,,,,热情,e,,,e,1,1,3,83,27,1,0.5634,,
,,,,,,,,,,,,,,1,001,2025-01-05_21h44.12.930,IAT(Formal),2021.2.3,Win32,30.03003003,,,,,,,,,,,,,,,,,,,,,,,,,,,,,,,,,,,,,,,,,,,,,,,,,,,,他们,e,,,e,1,1,4,84,56,1,0.8863,,
,,,,,,,,,,,,,,1,001,2025-01-05_21h44.12.930,IAT(Formal),2021.2.3,Win32,30.03003003,,,,,,,,,,,,,,,,,,,,,,,,,,,,,,,,,,,,,,,,,,,,,,,,,,,,我们,i,,,i,1,1,5,85,52,1,0.7718,,
,,,,,,,,,,,,,,1,001,2025-01-05_21h44.12.930,IAT(Formal),2021.2.3,Win32,30.03003003,,,,,,,,,,,,,,,,,,,,,,,,,,,,,,,,,,,,,,,,,,,,,,,,,,,,勇敢,e,,,e,1,1,6,86,17,1,0.7117,,
,,,,,,,,,,,,,,1,001,2025-01-05_21h44.12.930,IAT(Formal),2021.2.3,Win32,30.03003003,,,,,,,,,,,,,,,,,,,,,,,,,,,,,,,,,,,,,,,,,,,,,,,,,,,,他的,e,,,e,1,1,7,87,67,1,0.6666,,
,,,,,,,,,,,,,,1,001,2025-01-05_21h44.12.930,IAT(Formal),2021.2.3,Win32,30.03003003,,,,,,,,,,,,,,,,,,,,,,,,,,,,,,,,,,,,,,,,,,,,,,,,,,,,他人,e,,,e,1,1,8,88,8,1,0.4521,,
,,,,,,,,,,,,,,1,001,2025-01-05_21h44.12.930,IAT(Formal),2021.2.3,Win32,30.03003003,,,,,,,,,,,,,,,,,,,,,,,,,,,,,,,,,,,,,,,,,,,,,,,,,,,,我的,i,,,i,1,1,9,89,61,1,0.5654,,
,,,,,,,,,,,,,,1,001,2025-01-05_21h44.12.930,IAT(Formal),2021.2.3,Win32,30.03003003,,,,,,,,,,,,,,,,,,,,,,,,,,,,,,,,,,,,,,,,,,,,,,,,,,,,他的,e,,,e,1,1,10,90,57,1,0.7473,,
,,,,,,,,,,,,,,1,001,2025-01-05_21h44.12.930,IAT(Formal),2021.2.3,Win32,30.03003003,,,,,,,,,,,,,,,,,,,,,,,,,,,,,,,,,,,,,,,,,,,,,,,,,,,,轻率,i,,,e,0,1,11,91,48,1,1.0615,,
,,,,,,,,,,,,,,1,001,2025-01-05_21h44.12.930,IAT(Formal),2021.2.3,Win32,30.03003003,,,,,,,,,,,,,,,,,,,,,,,,,,,,,,,,,,,,,,,,,,,,,,,,,,,,愚蠢,i,,,i,1,1,12,92,32,1,1.3678,,
,,,,,,,,,,,,,,1,001,2025-01-05_21h44.12.930,IAT(Formal),2021.2.3,Win32,30.03003003,,,,,,,,,,,,,,,,,,,,,,,,,,,,,,,,,,,,,,,,,,,,,,,,,,,,诚恳,e,,,e,1,1,13,93,29,1,1.1082,,
,,,,,,,,,,,,,,1,001,2025-01-05_21h44.12.930,IAT(Formal),2021.2.3,Win32,30.03003003,,,,,,,,,,,,,,,,,,,,,,,,,,,,,,,,,,,,,,,,,,,,,,,,,,,,我的,i,,,i,1,1,14,94,71,1,1.0857,,
,,,,,,,,,,,,,,1,001,2025-01-05_21h44.12.930,IAT(Formal),2021.2.3,Win32,30.03003003,,,,,,,,,,,,,,,,,,,,,,,,,,,,,,,,,,,,,,,,,,,,,,,,,,,,聪明,e,,,e,1,1,15,95,12,1,0.9294,,
,,,,,,,,,,,,,,1,001,2025-01-05_21h44.12.930,IAT(Formal),2021.2.3,Win32,30.03003003,,,,,,,,,,,,,,,,,,,,,,,,,,,,,,,,,,,,,,,,,,,,,,,,,,,,野蛮,i,,,i,1,1,16,96,46,1,1.0149,,
,,,,,,,,,,,,,,1,001,2025-01-05_21h44.12.930,IAT(Formal),2021.2.3,Win32,30.03003003,,,,,,,,,,,,,,,,,,,,,,,,,,,,,,,,,,,,,,,,,,,,,,,,,,,,散漫,i,,,i,1,1,17,97,41,1,0.9974,,
,,,,,,,,,,,,,,1,001,2025-01-05_21h44.12.930,IAT(Formal),2021.2.3,Win32,30.03003003,,,,,,,,,,,,,,,,,,,,,,,,,,,,,,,,,,,,,,,,,,,,,,,,,,,,他,e,,,e,1,1,18,98,65,1,0.6937,,
,,,,,,,,,,,,,,1,001,2025-01-05_21h44.12.930,IAT(Formal),2021.2.3,Win32,30.03003003,,,,,,,,,,,,,,,,,,,,,,,,,,,,,,,,,,,,,,,,,,,,,,,,,,,,执拗,i,,,i,1,1,19,99,40,1,0.8675,,
,,,,,,,,,,,,,,1,001,2025-01-05_21h44.12.930,IAT(Formal),2021.2.3,Win32,30.03003003,,,,,,,,,,,,,,,,,,,,,,,,,,,,,,,,,,,,,,,,,,,,,,,,,,,,悲观,i,,,i,1,1,20,100,34,1,0.7659,,
,,,,,,,,,,,,,,1,001,2025-01-05_21h44.12.930,IAT(Formal),2021.2.3,Win32,30.03003003,,,,,,,,,,,,,,,,,,,,,,,,,,,,,,,,,,,,,,,,,,,,,,,,,,,,冷静,e,,,e,1,1,21,101,26,1,0.6873,,
,,,,,,,,,,,,,,1,001,2025-01-05_21h44.12.930,IAT(Formal),2021.2.3,Win32,30.03003003,,,,,,,,,,,,,,,,,,,,,,,,,,,,,,,,,,,,,,,,,,,,,,,,,,,,自卑,i,,,i,1,1,22,102,36,1,0.66,,
,,,,,,,,,,,,,,1,001,2025-01-05_21h44.12.930,IAT(Formal),2021.2.3,Win32,30.03003003,,,,,,,,,,,,,,,,,,,,,,,,,,,,,,,,,,,,,,,,,,,,,,,,,,,,冒失,i,,,i,1,1,23,103,39,1,0.5588,,
,,,,,,,,,,,,,,1,001,2025-01-05_21h44.12.930,IAT(Formal),2021.2.3,Win32,30.03003003,,,,,,,,,,,,,,,,,,,,,,,,,,,,,,,,,,,,,,,,,,,,,,,,,,,,无私,e,,,e,1,1,24,104,22,1,0.7008,,
,,,,,,,,,,,,,,1,001,2025-01-05_21h44.12.930,IAT(Formal),2021.2.3,Win32,30.03003003,,,,,,,,,,,,,,,,,,,,,,,,,,,,,,,,,,,,,,,,,,,,,,,,,,,,俺,i,,,e,0,1,25,105,64,1,0.9671,,
,,,,,,,,,,,,,,1,001,2025-01-05_21h44.12.930,IAT(Formal),2021.2.3,Win32,30.03003003,,,,,,,,,,,,,,,,,,,,,,,,,,,,,,,,,,,,,,,,,,,,,,,,,,,,下贱,i,,,i,1,1,26,106,49,1,1.2122,,
,,,,,,,,,,,,,,1,001,2025-01-05_21h44.12.930,IAT(Formal),2021.2.3,Win32,30.03003003,,,,,,,,,,,,,,,,,,,,,,,,,,,,,,,,,,,,,,,,,,,,,,,,,,,,其他,e,,,e,1,1,27,107,9,1,0.7868,,
,,,,,,,,,,,,,,1,001,2025-01-05_21h44.12.930,IAT(Formal),2021.2.3,Win32,30.03003003,,,,,,,,,,,,,,,,,,,,,,,,,,,,,,,,,,,,,,,,,,,,,,,,,,,,他人,e,,,e,1,1,28,108,78,1,0.704,,
,,,,,,,,,,,,,,1,001,2025-01-05_21h44.12.930,IAT(Formal),2021.2.3,Win32,30.03003003,,,,,,,,,,,,,,,,,,,,,,,,,,,,,,,,,,,,,,,,,,,,,,,,,,,,猖狂,i,,,i,1,1,29,109,45,1,0.6585,,
,,,,,,,,,,,,,,1,001,2025-01-05_21h44.12.930,IAT(Formal),2021.2.3,Win32,30.03003003,,,,,,,,,,,,,,,,,,,,,,,,,,,,,,,,,,,,,,,,,,,,,,,,,,,,鲁莽,i,,,i,1,1,30,110,38,1,0.7097,,
,,,,,,,,,,,,,,1,001,2025-01-05_21h44.12.930,IAT(Formal),2021.2.3,Win32,30.03003003,,,,,,,,,,,,,,,,,,,,,,,,,,,,,,,,,,,,,,,,,,,,,,,,,,,,他,e,,,i,0,1,31,111,55,1,0.697,,
,,,,,,,,,,,,,,1,001,2025-01-05_21h44.12.930,IAT(Formal),2021.2.3,Win32,30.03003003,,,,,,,,,,,,,,,,,,,,,,,,,,,,,,,,,,,,,,,,,,,,,,,,,,,,固执,i,,,e,0,1,32,112,47,1,0.4996,,
,,,,,,,,,,,,,,1,001,2025-01-05_21h44.12.930,IAT(Formal),2021.2.3,Win32,30.03003003,,,,,,,,,,,,,,,,,,,,,,,,,,,,,,,,,,,,,,,,,,,,,,,,,,,,认真,e,,,e,1,1,33,113,20,1,1.1409,,
,,,,,,,,,,,,,,1,001,2025-01-05_21h44.12.930,IAT(Formal),2021.2.3,Win32,30.03003003,,,,,,,,,,,,,,,,,,,,,,,,,,,,,,,,,,,,,,,,,,,,,,,,,,,,自己,i,,,i,1,1,34,114,73,1,0.9683,,
,,,,,,,,,,,,,,1,001,2025-01-05_21h44.12.930,IAT(Formal),2021.2.3,Win32,30.03003003,,,,,,,,,,,,,,,,,,,,,,,,,,,,,,,,,,,,,,,,,,,,,,,,,,,,我,i,,,i,1,1,35,115,0,1,0.599,,
,,,,,,,,,,,,,,1,001,2025-01-05_21h44.12.930,IAT(Formal),2021.2.3,Win32,30.03003003,,,,,,,,,,,,,,,,,,,,,,,,,,,,,,,,,,,,,,,,,,,,,,,,,,,,稳重,e,,,e,1,1,36,116,21,1,0.7317,,
,,,,,,,,,,,,,,1,001,2025-01-05_21h44.12.930,IAT(Formal),2021.2.3,Win32,30.03003003,,,,,,,,,,,,,,,,,,,,,,,,,,,,,,,,,,,,,,,,,,,,,,,,,,,,其他,e,,,e,1,1,37,117,59,1,0.8021,,
,,,,,,,,,,,,,,1,001,2025-01-05_21h44.12.930,IAT(Formal),2021.2.3,Win32,30.03003003,,,,,,,,,,,,,,,,,,,,,,,,,,,,,,,,,,,,,,,,,,,,,,,,,,,,细腻,e,,,e,1,1,38,118,25,1,0.6802,,
,,,,,,,,,,,,,,1,001,2025-01-05_21h44.12.930,IAT(Formal),2021.2.3,Win32,30.03003003,,,,,,,,,,,,,,,,,,,,,,,,,,,,,,,,,,,,,,,,,,,,,,,,,,,,诚实,e,,,e,1,1,39,119,15,1,0.4675,,
,,,,,,,,,,,,,,1,001,2025-01-05_21h44.12.930,IAT(Formal),2021.2.3,Win32,30.03003003,,,,,,,,,,,,,,,,,,,,,,,,,,,,,,,,,,,,,,,,,,,,,,,,,,,,我们,i,,,e,0,1,40,120,72,1,0.4981,,
,,,,,,,,,,,,,,1,001,2025-01-05_21h44.12.930,IAT(Formal),2021.2.3,Win32,30.03003003,,,,,,,,,,,,,,,,,,,,,,,,,,,,,,,,,,,,,,,,,,,,,,,,,,,,傲慢,i,,,i,1,1,41,121,37,1,0.9171,,
,,,,,,,,,,,,,,1,001,2025-01-05_21h44.12.930,IAT(Formal),2021.2.3,Win32,30.03003003,,,,,,,,,,,,,,,,,,,,,,,,,,,,,,,,,,,,,,,,,,,,,,,,,,,,虚伪,i,,,i,1,1,42,122,31,1,0.6622,,
,,,,,,,,,,,,,,1,001,2025-01-05_21h44.12.930,IAT(Formal),2021.2.3,Win32,30.03003003,,,,,,,,,,,,,,,,,,,,,,,,,,,,,,,,,,,,,,,,,,,,,,,,,,,,我,i,,,i,1,1,43,123,70,1,0.871,,
,,,,,,,,,,,,,,1,001,2025-01-05_21h44.12.930,IAT(Formal),2021.2.3,Win32,30.03003003,,,,,,,,,,,,,,,,,,,,,,,,,,,,,,,,,,,,,,,,,,,,,,,,,,,,卑鄙,i,,,i,1,1,44,124,30,1,0.5759,,
,,,,,,,,,,,,,,1,001,2025-01-05_21h44.12.930,IAT(Formal),2021.2.3,Win32,30.03003003,,,,,,,,,,,,,,,,,,,,,,,,,,,,,,,,,,,,,,,,,,,,,,,,,,,,朴实,e,,,e,1,1,45,125,24,1,0.7942,,
,,,,,,,,,,,,,,1,001,2025-01-05_21h44.12.930,IAT(Formal),2021.2.3,Win32,30.03003003,,,,,,,,,,,,,,,,,,,,,,,,,,,,,,,,,,,,,,,,,,,,,,,,,,,,他人,e,,,e,1,1,46,126,58,1,1.0864,,
,,,,,,,,,,,,,,1,001,2025-01-05_21h44.12.930,IAT(Formal),2021.2.3,Win32,30.03003003,,,,,,,,,,,,,,,,,,,,,,,,,,,,,,,,,,,,,,,,,,,,,,,,,,,,其他,e,,,e,1,1,47,127,69,1,0.5556,,
,,,,,,,,,,,,,,1,001,2025-01-05_21h44.12.930,IAT(Formal),2021.2.3,Win32,30.03003003,,,,,,,,,,,,,,,,,,,,,,,,,,,,,,,,,,,,,,,,,,,,,,,,,,,,他,e,,,e,1,1,48,128,75,1,0.5909,,
,,,,,,,,,,,,,,1,001,2025-01-05_21h44.12.930,IAT(Formal),2021.2.3,Win32,30.03003003,,,,,,,,,,,,,,,,,,,,,,,,,,,,,,,,,,,,,,,,,,,,,,,,,,,,我们,i,,,i,1,1,49,129,2,1,0.5966,,
,,,,,,,,,,,,,,1,001,2025-01-05_21h44.12.930,IAT(Formal),2021.2.3,Win32,30.03003003,,,,,,,,,,,,,,,,,,,,,,,,,,,,,,,,,,,,,,,,,,,,,,,,,,,,凶狠,i,,,e,0,1,50,130,42,1,0.6348,,
,,,,,,,,,,,,,,1,001,2025-01-05_21h44.12.930,IAT(Formal),2021.2.3,Win32,30.03003003,,,,,,,,,,,,,,,,,,,,,,,,,,,,,,,,,,,,,,,,,,,,,,,,,,,,他的,e,,,i,0,1,51,131,77,1,0.978,,
,,,,,,,,,,,,,,1,001,2025-01-05_21h44.12.930,IAT(Formal),2021.2.3,Win32,30.03003003,,,,,,,,,,,,,,,,,,,,,,,,,,,,,,,,,,,,,,,,,,,,,,,,,,,,暴躁,i,,,e,0,1,52,132,44,1,0.931,,
,,,,,,,,,,,,,,1,001,2025-01-05_21h44.12.930,IAT(Formal),2021.2.3,Win32,30.03003003,,,,,,,,,,,,,,,,,,,,,,,,,,,,,,,,,,,,,,,,,,,,,,,,,,,,他,e,,,,0,1,53,133,5,1,,,
,,,,,,,,,,,,,,1,001,2025-01-05_21h44.12.930,IAT(Formal),2021.2.3,Win32,30.03003003,,,,,,,,,,,,,,,,,,,,,,,,,,,,,,,,,,,,,,,,,,,,,,,,,,,,自私,i,,,i,1,1,54,134,43,1,0.6166,,
,,,,,,,,,,,,,,1,001,2025-01-05_21h44.12.930,IAT(Formal),2021.2.3,Win32,30.03003003,,,,,,,,,,,,,,,,,,,,,,,,,,,,,,,,,,,,,,,,,,,,,,,,,,,,他人,e,,,i,0,1,55,135,68,1,0.942,,
,,,,,,,,,,,,,,1,001,2025-01-05_21h44.12.930,IAT(Formal),2021.2.3,Win32,30.03003003,,,,,,,,,,,,,,,,,,,,,,,,,,,,,,,,,,,,,,,,,,,,,,,,,,,,刻薄,i,,,i,1,1,56,136,33,1,1.0084,,
,,,,,,,,,,,,,,1,001,2025-01-05_21h44.12.930,IAT(Formal),2021.2.3,Win32,30.03003003,,,,,,,,,,,,,,,,,,,,,,,,,,,,,,,,,,,,,,,,,,,,,,,,,,,,杰出,e,,,e,1,1,57,137,13,1,0.9746,,
,,,,,,,,,,,,,,1,001,2025-01-05_21h44.12.930,IAT(Formal),2021.2.3,Win32,30.03003003,,,,,,,,,,,,,,,,,,,,,,,,,,,,,,,,,,,,,,,,,,,,,,,,,,,,我的,i,,,i,1,1,58,138,1,1,1.0303,,
,,,,,,,,,,,,,,1,001,2025-01-05_21h44.12.930,IAT(Formal),2021.2.3,Win32,30.03003003,,,,,,,,,,,,,,,,,,,,,,,,,,,,,,,,,,,,,,,,,,,,,,,,,,,,公正,e,,,e,1,1,59,139,23,1,0.805,,
,,,,,,,,,,,,,,1,001,2025-01-05_21h44.12.930,IAT(Formal),2021.2.3,Win32,30.03003003,,,,,,,,,,,,,,,,,,,,,,,,,,,,,,,,,,,,,,,,,,,,,,,,,,,,他们,e,,,e,1,1,60,140,6,1,0.8655,,
,,,,,,,,,,,,,,1,001,2025-01-05_21h44.12.930,IAT(Formal),2021.2.3,Win32,30.03003003,,,,,,,,,,,,,,,,,,,,,,,,,,,,,,,,,,,,,,,,,,,,,,,,,,,,俺,i,,,i,1,1,61,141,4,1,0.7472,,
,,,,,,,,,,,,,,1,001,2025-01-05_21h44.12.930,IAT(Formal),2021.2.3,Win32,30.03003003,,,,,,,,,,,,,,,,,,,,,,,,,,,,,,,,,,,,,,,,,,,,,,,,,,,,我的,i,,,e,0,1,62,142,51,1,0.7454,,
,,,,,,,,,,,,,,1,001,2025-01-05_21h44.12.930,IAT(Formal),2021.2.3,Win32,30.03003003,,,,,,,,,,,,,,,,,,,,,,,,,,,,,,,,,,,,,,,,,,,,,,,,,,,,我,i,,,i,1,1,63,143,50,1,0.4644,,
,,,,,,,,,,,,,,1,001,2025-01-05_21h44.12.930,IAT(Formal),2021.2.3,Win32,30.03003003,,,,,,,,,,,,,,,,,,,,,,,,,,,,,,,,,,,,,,,,,,,,,,,,,,,,消极,i,,,e,0,1,64,144,35,1,0.7363,,
,,,,,,,,,,,,,,1,001,2025-01-05_21h44.12.930,IAT(Formal),2021.2.3,Win32,30.03003003,,,,,,,,,,,,,,,,,,,,,,,,,,,,,,,,,,,,,,,,,,,,,,,,,,,,他们,e,,,i,0,1,65,145,66,1,0.8234,,
,,,,,,,,,,,,,,1,001,2025-01-05_21h44.12.930,IAT(Formal),2021.2.3,Win32,30.03003003,,,,,,,,,,,,,,,,,,,,,,,,,,,,,,,,,,,,,,,,,,,,,,,,,,,,自己,i,,,i,1,1,66,146,53,1,1.067,,
,,,,,,,,,,,,,,1,001,2025-01-05_21h44.12.930,IAT(Formal),2021.2.3,Win32,30.03003003,,,,,,,,,,,,,,,,,,,,,,,,,,,,,,,,,,,,,,,,,,,,,,,,,,,,俺,i,,,i,1,1,67,147,54,1,0.7235,,
,,,,,,,,,,,,,,1,001,2025-01-05_21h44.12.930,IAT(Formal),2021.2.3,Win32,30.03003003,,,,,,,,,,,,,,,,,,,,,,,,,,,,,,,,,,,,,,,,,,,,,,,,,,,,他的,e,,,e,1,1,68,148,7,1,0.5965,,
,,,,,,,,,,,,,,1,001,2025-01-05_21h44.12.930,IAT(Formal),2021.2.3,Win32,30.03003003,,,,,,,,,,,,,,,,,,,,,,,,,,,,,,,,,,,,,,,,,,,,,,,,,,,,优秀,e,,,i,0,1,69,149,10,1,0.7421,,
,,,,,,,,,,,,,,1,001,2025-01-05_21h44.12.930,IAT(Formal),2021.2.3,Win32,30.03003003,,,,,,,,,,,,,,,,,,,,,,,,,,,,,,,,,,,,,,,,,,,,,,,,,,,,我们,i,,,i,1,1,70,150,62,1,0.006,,
,,,,,,,,,,,,,,1,001,2025-01-05_21h44.12.930,IAT(Formal),2021.2.3,Win32,30.03003003,,,,,,,,,,,,,,,,,,,,,,,,,,,,,,,,,,,,,,,,,,,,,,,,,,,,我,i,,,i,1,1,71,151,60,1,1.0801,,
,,,,,,,,,,,,,,1,001,2025-01-05_21h44.12.930,IAT(Formal),2021.2.3,Win32,30.03003003,,,,,,,,,,,,,,,,,,,,,,,,,,,,,,,,,,,,,,,,,,,,,,,,,,,,其他,e,,,e,1,1,72,152,79,1,0.7707,,
,,,,,,,,,,,,,,1,001,2025-01-05_21h44.12.930,IAT(Formal),2021.2.3,Win32,30.03003003,,,,,,,,,,,,,,,,,,,,,,,,,,,,,,,,,,,,,,,,,,,,,,,,,,,,机智,e,,,e,1,1,73,153,19,1,0.8978,,
,,,,,,,,,,,,,,1,001,2025-01-05_21h44.12.930,IAT(Formal),2021.2.3,Win32,30.03003003,,,,,,,,,,,,,,,,,,,,,,,,,,,,,,,,,,,,,,,,,,,,,,,,,,,,他们,e,,,e,1,1,74,154,76,1,0.8576,,
,,,,,,,,,,,,,,1,001,2025-01-05_21h44.12.930,IAT(Formal),2021.2.3,Win32,30.03003003,,,,,,,,,,,,,,,,,,,,,,,,,,,,,,,,,,,,,,,,,,,,,,,,,,,,勤奋,e,,,e,1,1,75,155,18,1,0.7787,,
,,,,,,,,,,,,,,1,001,2025-01-05_21h44.12.930,IAT(Formal),2021.2.3,Win32,30.03003003,,,,,,,,,,,,,,,,,,,,,,,,,,,,,,,,,,,,,,,,,,,,,,,,,,,,正直,e,,,e,1,1,76,156,16,1,0.5324,,
,,,,,,,,,,,,,,1,001,2025-01-05_21h44.12.930,IAT(Formal),2021.2.3,Win32,30.03003003,,,,,,,,,,,,,,,,,,,,,,,,,,,,,,,,,,,,,,,,,,,,,,,,,,,,活泼,e,,,e,1,1,77,157,28,1,0.6072,,
,,,,,,,,,,,,,,1,001,2025-01-05_21h44.12.930,IAT(Formal),2021.2.3,Win32,30.03003003,,,,,,,,,,,,,,,,,,,,,,,,,,,,,,,,,,,,,,,,,,,,,,,,,,,,自己,i,,,e,0,1,78,158,63,1,0.4636,,
,,,,,,,,,,,,,,1,001,2025-01-05_21h44.12.930,IAT(Formal),2021.2.3,Win32,30.03003003,,,,,,,,,,,,,,,,,,,,,,,,,,,,,,,,,,,,,,,,,,,,,,,,,,,,自己,i,,,i,1,1,79,159,3,1,0.4543,,
,,,,,,,,,,,,,,1,001,2025-01-05_21h44.12.930,IAT(Formal),2021.2.3,Win32,30.03003003,,,,,,,,,,,,,,,,,,,,,,,,,,,,,,,,,,,,,,,,,,,,,,,,,,,,,,,,,,,,,,,,space,1.6548