﻿Instruction1.keys,Instruction1.rt,Instruction2.keys,Instruction2.rt,key_resp_iso.keys,key_resp_iso.corr,key_resp_iso.rt,Practice_01.thisRepN,Practice_01.thisTrialN,Practice_01.thisN,Practice_01.thisIndex,Practice_01.ran,Words,ans,participant,session,date,expName,psychopyVersion,OS,frameRate,key_resp_3.keys,key_resp_3.rt,key_resp_ipn.keys,key_resp_ipn.corr,key_resp_ipn.rt,Practice_02.thisRepN,Practice_02.thisTrialN,Practice_02.thisN,Practice_02.thisIndex,Practice_02.ran,Words_ipn,ans_ipn,key_resp_4.keys,key_resp_4.rt,key_resp_t1.keys,key_resp_t1.corr,key_resp_t1.rt,Practice_T1.thisRepN,Practice_T1.thisTrialN,Practice_T1.thisN,Practice_T1.thisIndex,Practice_T1.ran,Words_t1,ans_t1,key_resp_5.keys,key_resp_5.rt,Formal_T1.thisRepN,Formal_T1.thisTrialN,Formal_T1.thisN,Formal_T1.thisIndex,Formal_T1.ran,key_resp_6.keys,key_resp_6.rt,key_resp_iso_reverse.keys,key_resp_iso_reverse.corr,key_resp_iso_reverse.rt,Practice_iso_Reverse.thisRepN,Practice_iso_Reverse.thisTrialN,Practice_iso_Reverse.thisN,Practice_iso_Reverse.thisIndex,Practice_iso_Reverse.ran,key_resp_7.keys,key_resp_7.rt,key_resp_t2_Practice.keys,key_resp_t2_Practice.corr,key_resp_t2_Practice.rt,Practice_t2_Reverse.thisRepN,Practice_t2_Reverse.thisTrialN,Practice_t2_Reverse.thisN,Practice_t2_Reverse.thisIndex,Practice_t2_Reverse.ran,Words_t2,ans_t2,key_resp_8.keys,key_resp_8.rt,key_resp_t2.keys,key_resp_t2.corr,key_resp_t2.rt,Formal_t2_reverse.thisRepN,Formal_t2_reverse.thisTrialN,Formal_t2_reverse.thisN,Formal_t2_reverse.thisIndex,Formal_t2_reverse.ran,key_instruct.keys,key_instruct.rt
space,3.6734,space,9.3948,i,1,1.0085,0,0,0,8,1,他人,i,yangling,001,2025-01-08_17h41.49.210,IAT(Formal),2021.2.3,Win32,59.87306909,,,,,,,,,,,,,,,,,,,,,,,,,,,,,,,,,,,,,,,,,,,,,,,,,,,,,,,,,,,,,,,,,
,,,,e,1,0.7011,0,1,1,4,1,俺,e,yangling,001,2025-01-08_17h41.49.210,IAT(Formal),2021.2.3,Win32,59.87306909,,,,,,,,,,,,,,,,,,,,,,,,,,,,,,,,,,,,,,,,,,,,,,,,,,,,,,,,,,,,,,,,,
,,,,e,1,0.4048,0,2,2,0,1,我,e,yangling,001,2025-01-08_17h41.49.210,IAT(Formal),2021.2.3,Win32,59.87306909,,,,,,,,,,,,,,,,,,,,,,,,,,,,,,,,,,,,,,,,,,,,,,,,,,,,,,,,,,,,,,,,,
,,,,e,1,0.4325,0,3,3,1,1,我的,e,yangling,001,2025-01-08_17h41.49.210,IAT(Formal),2021.2.3,Win32,59.87306909,,,,,,,,,,,,,,,,,,,,,,,,,,,,,,,,,,,,,,,,,,,,,,,,,,,,,,,,,,,,,,,,,
,,,,i,1,0.4504,0,4,4,9,1,其他,i,yangling,001,2025-01-08_17h41.49.210,IAT(Formal),2021.2.3,Win32,59.87306909,,,,,,,,,,,,,,,,,,,,,,,,,,,,,,,,,,,,,,,,,,,,,,,,,,,,,,,,,,,,,,,,,
,,,,e,1,0.46,0,5,5,3,1,自己,e,yangling,001,2025-01-08_17h41.49.210,IAT(Formal),2021.2.3,Win32,59.87306909,,,,,,,,,,,,,,,,,,,,,,,,,,,,,,,,,,,,,,,,,,,,,,,,,,,,,,,,,,,,,,,,,
,,,,i,1,0.5169,0,6,6,7,1,他的,i,yangling,001,2025-01-08_17h41.49.210,IAT(Formal),2021.2.3,Win32,59.87306909,,,,,,,,,,,,,,,,,,,,,,,,,,,,,,,,,,,,,,,,,,,,,,,,,,,,,,,,,,,,,,,,,
,,,,e,1,0.6178,0,7,7,2,1,我们,e,yangling,001,2025-01-08_17h41.49.210,IAT(Formal),2021.2.3,Win32,59.87306909,,,,,,,,,,,,,,,,,,,,,,,,,,,,,,,,,,,,,,,,,,,,,,,,,,,,,,,,,,,,,,,,,
,,,,i,1,0.5004,0,8,8,5,1,他,i,yangling,001,2025-01-08_17h41.49.210,IAT(Formal),2021.2.3,Win32,59.87306909,,,,,,,,,,,,,,,,,,,,,,,,,,,,,,,,,,,,,,,,,,,,,,,,,,,,,,,,,,,,,,,,,
,,,,i,1,0.495,0,9,9,6,1,他们,i,yangling,001,2025-01-08_17h41.49.210,IAT(Formal),2021.2.3,Win32,59.87306909,,,,,,,,,,,,,,,,,,,,,,,,,,,,,,,,,,,,,,,,,,,,,,,,,,,,,,,,,,,,,,,,,
,,,,,,,,,,,,,,yangling,001,2025-01-08_17h41.49.210,IAT(Formal),2021.2.3,Win32,59.87306909,space,2.6079,e,1,0.4573,0,0,0,5,1,诚实,e,,,,,,,,,,,,,,,,,,,,,,,,,,,,,,,,,,,,,,,,,,,,,,,,,,,,,
,,,,,,,,,,,,,,yangling,001,2025-01-08_17h41.49.210,IAT(Formal),2021.2.3,Win32,59.87306909,,,e,1,0.6332,0,1,1,19,1,诚恳,e,,,,,,,,,,,,,,,,,,,,,,,,,,,,,,,,,,,,,,,,,,,,,,,,,,,,,
,,,,,,,,,,,,,,yangling,001,2025-01-08_17h41.49.210,IAT(Formal),2021.2.3,Win32,59.87306909,,,i,1,0.5713,0,2,2,39,1,下贱,i,,,,,,,,,,,,,,,,,,,,,,,,,,,,,,,,,,,,,,,,,,,,,,,,,,,,,
,,,,,,,,,,,,,,yangling,001,2025-01-08_17h41.49.210,IAT(Formal),2021.2.3,Win32,59.87306909,,,i,1,0.5637,0,3,3,21,1,虚伪,i,,,,,,,,,,,,,,,,,,,,,,,,,,,,,,,,,,,,,,,,,,,,,,,,,,,,,
,,,,,,,,,,,,,,yangling,001,2025-01-08_17h41.49.210,IAT(Formal),2021.2.3,Win32,59.87306909,,,i,1,0.5571,0,4,4,28,1,鲁莽,i,,,,,,,,,,,,,,,,,,,,,,,,,,,,,,,,,,,,,,,,,,,,,,,,,,,,,
,,,,,,,,,,,,,,yangling,001,2025-01-08_17h41.49.210,IAT(Formal),2021.2.3,Win32,59.87306909,,,e,1,0.5984,0,5,5,18,1,活泼,e,,,,,,,,,,,,,,,,,,,,,,,,,,,,,,,,,,,,,,,,,,,,,,,,,,,,,
,,,,,,,,,,,,,,yangling,001,2025-01-08_17h41.49.210,IAT(Formal),2021.2.3,Win32,59.87306909,,,e,1,0.5472,0,6,6,3,1,杰出,e,,,,,,,,,,,,,,,,,,,,,,,,,,,,,,,,,,,,,,,,,,,,,,,,,,,,,
,,,,,,,,,,,,,,yangling,001,2025-01-08_17h41.49.210,IAT(Formal),2021.2.3,Win32,59.87306909,,,i,1,0.5476,0,7,7,32,1,凶狠,i,,,,,,,,,,,,,,,,,,,,,,,,,,,,,,,,,,,,,,,,,,,,,,,,,,,,,
,,,,,,,,,,,,,,yangling,001,2025-01-08_17h41.49.210,IAT(Formal),2021.2.3,Win32,59.87306909,,,,0,,0,8,8,30,1,执拗,i,,,,,,,,,,,,,,,,,,,,,,,,,,,,,,,,,,,,,,,,,,,,,,,,,,,,,
,,,,,,,,,,,,,,yangling,001,2025-01-08_17h41.49.210,IAT(Formal),2021.2.3,Win32,59.87306909,,,e,1,0.7466,0,9,9,10,1,认真,e,,,,,,,,,,,,,,,,,,,,,,,,,,,,,,,,,,,,,,,,,,,,,,,,,,,,,
,,,,,,,,,,,,,,yangling,001,2025-01-08_17h41.49.210,IAT(Formal),2021.2.3,Win32,59.87306909,,,e,1,0.5978,0,10,10,17,1,热情,e,,,,,,,,,,,,,,,,,,,,,,,,,,,,,,,,,,,,,,,,,,,,,,,,,,,,,
,,,,,,,,,,,,,,yangling,001,2025-01-08_17h41.49.210,IAT(Formal),2021.2.3,Win32,59.87306909,,,i,1,0.6731,0,11,11,35,1,猖狂,i,,,,,,,,,,,,,,,,,,,,,,,,,,,,,,,,,,,,,,,,,,,,,,,,,,,,,
,,,,,,,,,,,,,,yangling,001,2025-01-08_17h41.49.210,IAT(Formal),2021.2.3,Win32,59.87306909,,,i,1,0.5974,0,12,12,22,1,愚蠢,i,,,,,,,,,,,,,,,,,,,,,,,,,,,,,,,,,,,,,,,,,,,,,,,,,,,,,
,,,,,,,,,,,,,,yangling,001,2025-01-08_17h41.49.210,IAT(Formal),2021.2.3,Win32,59.87306909,,,e,1,0.7653,0,13,13,11,1,稳重,e,,,,,,,,,,,,,,,,,,,,,,,,,,,,,,,,,,,,,,,,,,,,,,,,,,,,,
,,,,,,,,,,,,,,yangling,001,2025-01-08_17h41.49.210,IAT(Formal),2021.2.3,Win32,59.87306909,,,e,1,0.5216,0,14,14,6,1,正直,e,,,,,,,,,,,,,,,,,,,,,,,,,,,,,,,,,,,,,,,,,,,,,,,,,,,,,
,,,,,,,,,,,,,,yangling,001,2025-01-08_17h41.49.210,IAT(Formal),2021.2.3,Win32,59.87306909,,,i,1,0.7835,0,15,15,31,1,散漫,i,,,,,,,,,,,,,,,,,,,,,,,,,,,,,,,,,,,,,,,,,,,,,,,,,,,,,
,,,,,,,,,,,,,,yangling,001,2025-01-08_17h41.49.210,IAT(Formal),2021.2.3,Win32,59.87306909,,,i,1,0.6846,0,16,16,29,1,冒失,i,,,,,,,,,,,,,,,,,,,,,,,,,,,,,,,,,,,,,,,,,,,,,,,,,,,,,
,,,,,,,,,,,,,,yangling,001,2025-01-08_17h41.49.210,IAT(Formal),2021.2.3,Win32,59.87306909,,,i,1,0.6367,0,17,17,23,1,刻薄,i,,,,,,,,,,,,,,,,,,,,,,,,,,,,,,,,,,,,,,,,,,,,,,,,,,,,,
,,,,,,,,,,,,,,yangling,001,2025-01-08_17h41.49.210,IAT(Formal),2021.2.3,Win32,59.87306909,,,i,1,0.7311,0,18,18,27,1,傲慢,i,,,,,,,,,,,,,,,,,,,,,,,,,,,,,,,,,,,,,,,,,,,,,,,,,,,,,
,,,,,,,,,,,,,,yangling,001,2025-01-08_17h41.49.210,IAT(Formal),2021.2.3,Win32,59.87306909,,,e,1,0.8839,0,19,19,16,1,冷静,e,,,,,,,,,,,,,,,,,,,,,,,,,,,,,,,,,,,,,,,,,,,,,,,,,,,,,
,,,,,,,,,,,,,,yangling,001,2025-01-08_17h41.49.210,IAT(Formal),2021.2.3,Win32,59.87306909,,,e,0,0.9894,0,20,20,37,1,固执,i,,,,,,,,,,,,,,,,,,,,,,,,,,,,,,,,,,,,,,,,,,,,,,,,,,,,,
,,,,,,,,,,,,,,yangling,001,2025-01-08_17h41.49.210,IAT(Formal),2021.2.3,Win32,59.87306909,,,e,1,0.6814,0,21,21,0,1,优秀,e,,,,,,,,,,,,,,,,,,,,,,,,,,,,,,,,,,,,,,,,,,,,,,,,,,,,,
,,,,,,,,,,,,,,yangling,001,2025-01-08_17h41.49.210,IAT(Formal),2021.2.3,Win32,59.87306909,,,i,1,0.998,0,22,22,24,1,悲观,i,,,,,,,,,,,,,,,,,,,,,,,,,,,,,,,,,,,,,,,,,,,,,,,,,,,,,
,,,,,,,,,,,,,,yangling,001,2025-01-08_17h41.49.210,IAT(Formal),2021.2.3,Win32,59.87306909,,,e,1,0.7166,0,23,23,15,1,细腻,e,,,,,,,,,,,,,,,,,,,,,,,,,,,,,,,,,,,,,,,,,,,,,,,,,,,,,
,,,,,,,,,,,,,,yangling,001,2025-01-08_17h41.49.210,IAT(Formal),2021.2.3,Win32,59.87306909,,,e,1,0.5143,0,24,24,2,1,聪明,e,,,,,,,,,,,,,,,,,,,,,,,,,,,,,,,,,,,,,,,,,,,,,,,,,,,,,
,,,,,,,,,,,,,,yangling,001,2025-01-08_17h41.49.210,IAT(Formal),2021.2.3,Win32,59.87306909,,,e,1,0.4455,0,25,25,7,1,勇敢,e,,,,,,,,,,,,,,,,,,,,,,,,,,,,,,,,,,,,,,,,,,,,,,,,,,,,,
,,,,,,,,,,,,,,yangling,001,2025-01-08_17h41.49.210,IAT(Formal),2021.2.3,Win32,59.87306909,,,e,1,0.5311,0,26,26,1,1,崇高,e,,,,,,,,,,,,,,,,,,,,,,,,,,,,,,,,,,,,,,,,,,,,,,,,,,,,,
,,,,,,,,,,,,,,yangling,001,2025-01-08_17h41.49.210,IAT(Formal),2021.2.3,Win32,59.87306909,,,i,1,0.6337,0,27,27,34,1,暴躁,i,,,,,,,,,,,,,,,,,,,,,,,,,,,,,,,,,,,,,,,,,,,,,,,,,,,,,
,,,,,,,,,,,,,,yangling,001,2025-01-08_17h41.49.210,IAT(Formal),2021.2.3,Win32,59.87306909,,,e,1,0.4997,0,28,28,13,1,公正,e,,,,,,,,,,,,,,,,,,,,,,,,,,,,,,,,,,,,,,,,,,,,,,,,,,,,,
,,,,,,,,,,,,,,yangling,001,2025-01-08_17h41.49.210,IAT(Formal),2021.2.3,Win32,59.87306909,,,i,1,0.6673,0,29,29,25,1,消极,i,,,,,,,,,,,,,,,,,,,,,,,,,,,,,,,,,,,,,,,,,,,,,,,,,,,,,
,,,,,,,,,,,,,,yangling,001,2025-01-08_17h41.49.210,IAT(Formal),2021.2.3,Win32,59.87306909,,,i,1,0.5978,0,30,30,20,1,卑鄙,i,,,,,,,,,,,,,,,,,,,,,,,,,,,,,,,,,,,,,,,,,,,,,,,,,,,,,
,,,,,,,,,,,,,,yangling,001,2025-01-08_17h41.49.210,IAT(Formal),2021.2.3,Win32,59.87306909,,,i,1,0.5032,0,31,31,26,1,自卑,i,,,,,,,,,,,,,,,,,,,,,,,,,,,,,,,,,,,,,,,,,,,,,,,,,,,,,
,,,,,,,,,,,,,,yangling,001,2025-01-08_17h41.49.210,IAT(Formal),2021.2.3,Win32,59.87306909,,,e,1,0.4812,0,32,32,9,1,机智,e,,,,,,,,,,,,,,,,,,,,,,,,,,,,,,,,,,,,,,,,,,,,,,,,,,,,,
,,,,,,,,,,,,,,yangling,001,2025-01-08_17h41.49.210,IAT(Formal),2021.2.3,Win32,59.87306909,,,e,1,0.4541,0,33,33,4,1,乐观,e,,,,,,,,,,,,,,,,,,,,,,,,,,,,,,,,,,,,,,,,,,,,,,,,,,,,,
,,,,,,,,,,,,,,yangling,001,2025-01-08_17h41.49.210,IAT(Formal),2021.2.3,Win32,59.87306909,,,e,1,0.4812,0,34,34,8,1,勤奋,e,,,,,,,,,,,,,,,,,,,,,,,,,,,,,,,,,,,,,,,,,,,,,,,,,,,,,
,,,,,,,,,,,,,,yangling,001,2025-01-08_17h41.49.210,IAT(Formal),2021.2.3,Win32,59.87306909,,,i,0,0.5523,0,35,35,12,1,无私,e,,,,,,,,,,,,,,,,,,,,,,,,,,,,,,,,,,,,,,,,,,,,,,,,,,,,,
,,,,,,,,,,,,,,yangling,001,2025-01-08_17h41.49.210,IAT(Formal),2021.2.3,Win32,59.87306909,,,i,1,0.6813,0,36,36,33,1,自私,i,,,,,,,,,,,,,,,,,,,,,,,,,,,,,,,,,,,,,,,,,,,,,,,,,,,,,
,,,,,,,,,,,,,,yangling,001,2025-01-08_17h41.49.210,IAT(Formal),2021.2.3,Win32,59.87306909,,,e,1,0.5015,0,37,37,14,1,朴实,e,,,,,,,,,,,,,,,,,,,,,,,,,,,,,,,,,,,,,,,,,,,,,,,,,,,,,
,,,,,,,,,,,,,,yangling,001,2025-01-08_17h41.49.210,IAT(Formal),2021.2.3,Win32,59.87306909,,,i,1,0.6643,0,38,38,36,1,野蛮,i,,,,,,,,,,,,,,,,,,,,,,,,,,,,,,,,,,,,,,,,,,,,,,,,,,,,,
,,,,,,,,,,,,,,yangling,001,2025-01-08_17h41.49.210,IAT(Formal),2021.2.3,Win32,59.87306909,,,i,1,1.0534,0,39,39,38,1,轻率,i,,,,,,,,,,,,,,,,,,,,,,,,,,,,,,,,,,,,,,,,,,,,,,,,,,,,,
,,,,,,,,,,,,,,yangling,001,2025-01-08_17h41.49.210,IAT(Formal),2021.2.3,Win32,59.87306909,,,,,,,,,,,,,space,5.9081,i,1,0.6502,0,0,0,79,1,其他,i,,,,,,,,,,,,,,,,,,,,,,,,,,,,,,,,,,,,,,,,,
,,,,,,,,,,,,,,yangling,001,2025-01-08_17h41.49.210,IAT(Formal),2021.2.3,Win32,59.87306909,,,,,,,,,,,,,,,i,1,0.6512,0,1,1,39,1,冒失,i,,,,,,,,,,,,,,,,,,,,,,,,,,,,,,,,,,,,,,,,,
,,,,,,,,,,,,,,yangling,001,2025-01-08_17h41.49.210,IAT(Formal),2021.2.3,Win32,59.87306909,,,,,,,,,,,,,,,e,1,0.4673,0,2,2,54,1,俺,e,,,,,,,,,,,,,,,,,,,,,,,,,,,,,,,,,,,,,,,,,
,,,,,,,,,,,,,,yangling,001,2025-01-08_17h41.49.210,IAT(Formal),2021.2.3,Win32,59.87306909,,,,,,,,,,,,,,,e,1,0.4841,0,3,3,64,1,俺,e,,,,,,,,,,,,,,,,,,,,,,,,,,,,,,,,,,,,,,,,,
,,,,,,,,,,,,,,yangling,001,2025-01-08_17h41.49.210,IAT(Formal),2021.2.3,Win32,59.87306909,,,,,,,,,,,,,,,i,1,0.5506,0,4,4,46,1,野蛮,i,,,,,,,,,,,,,,,,,,,,,,,,,,,,,,,,,,,,,,,,,
,,,,,,,,,,,,,,yangling,001,2025-01-08_17h41.49.210,IAT(Formal),2021.2.3,Win32,59.87306909,,,,,,,,,,,,,,,i,1,0.4511,0,5,5,43,1,自私,i,,,,,,,,,,,,,,,,,,,,,,,,,,,,,,,,,,,,,,,,,
,,,,,,,,,,,,,,yangling,001,2025-01-08_17h41.49.210,IAT(Formal),2021.2.3,Win32,59.87306909,,,,,,,,,,,,,,,e,1,0.6011,0,6,6,3,1,自己,e,,,,,,,,,,,,,,,,,,,,,,,,,,,,,,,,,,,,,,,,,
,,,,,,,,,,,,,,yangling,001,2025-01-08_17h41.49.210,IAT(Formal),2021.2.3,Win32,59.87306909,,,,,,,,,,,,,,,i,1,0.5336,0,7,7,5,1,他,i,,,,,,,,,,,,,,,,,,,,,,,,,,,,,,,,,,,,,,,,,
,,,,,,,,,,,,,,yangling,001,2025-01-08_17h41.49.210,IAT(Formal),2021.2.3,Win32,59.87306909,,,,,,,,,,,,,,,e,1,0.5142,0,8,8,72,1,我们,e,,,,,,,,,,,,,,,,,,,,,,,,,,,,,,,,,,,,,,,,,
,,,,,,,,,,,,,,yangling,001,2025-01-08_17h41.49.210,IAT(Formal),2021.2.3,Win32,59.87306909,,,,,,,,,,,,,,,e,1,0.5512,0,9,9,73,1,自己,e,,,,,,,,,,,,,,,,,,,,,,,,,,,,,,,,,,,,,,,,,
,,,,,,,,,,,,,,yangling,001,2025-01-08_17h41.49.210,IAT(Formal),2021.2.3,Win32,59.87306909,,,,,,,,,,,,,,,i,1,0.5145,0,10,10,69,1,其他,i,,,,,,,,,,,,,,,,,,,,,,,,,,,,,,,,,,,,,,,,,
,,,,,,,,,,,,,,yangling,001,2025-01-08_17h41.49.210,IAT(Formal),2021.2.3,Win32,59.87306909,,,,,,,,,,,,,,,e,1,0.5516,0,11,11,24,1,朴实,e,,,,,,,,,,,,,,,,,,,,,,,,,,,,,,,,,,,,,,,,,
,,,,,,,,,,,,,,yangling,001,2025-01-08_17h41.49.210,IAT(Formal),2021.2.3,Win32,59.87306909,,,,,,,,,,,,,,,i,1,0.453,0,12,12,8,1,他人,i,,,,,,,,,,,,,,,,,,,,,,,,,,,,,,,,,,,,,,,,,
,,,,,,,,,,,,,,yangling,001,2025-01-08_17h41.49.210,IAT(Formal),2021.2.3,Win32,59.87306909,,,,,,,,,,,,,,,e,1,0.5184,0,13,13,62,1,我们,e,,,,,,,,,,,,,,,,,,,,,,,,,,,,,,,,,,,,,,,,,
,,,,,,,,,,,,,,yangling,001,2025-01-08_17h41.49.210,IAT(Formal),2021.2.3,Win32,59.87306909,,,,,,,,,,,,,,,i,1,0.5176,0,14,14,42,1,凶狠,i,,,,,,,,,,,,,,,,,,,,,,,,,,,,,,,,,,,,,,,,,
,,,,,,,,,,,,,,yangling,001,2025-01-08_17h41.49.210,IAT(Formal),2021.2.3,Win32,59.87306909,,,,,,,,,,,,,,,e,1,0.4476,0,15,15,17,1,勇敢,e,,,,,,,,,,,,,,,,,,,,,,,,,,,,,,,,,,,,,,,,,
,,,,,,,,,,,,,,yangling,001,2025-01-08_17h41.49.210,IAT(Formal),2021.2.3,Win32,59.87306909,,,,,,,,,,,,,,,e,1,0.5173,0,16,16,1,1,我的,e,,,,,,,,,,,,,,,,,,,,,,,,,,,,,,,,,,,,,,,,,
,,,,,,,,,,,,,,yangling,001,2025-01-08_17h41.49.210,IAT(Formal),2021.2.3,Win32,59.87306909,,,,,,,,,,,,,,,e,0,0.4999,0,17,17,35,1,消极,i,,,,,,,,,,,,,,,,,,,,,,,,,,,,,,,,,,,,,,,,,
,,,,,,,,,,,,,,yangling,001,2025-01-08_17h41.49.210,IAT(Formal),2021.2.3,Win32,59.87306909,,,,,,,,,,,,,,,i,1,0.7482,0,18,18,7,1,他的,i,,,,,,,,,,,,,,,,,,,,,,,,,,,,,,,,,,,,,,,,,
,,,,,,,,,,,,,,yangling,001,2025-01-08_17h41.49.210,IAT(Formal),2021.2.3,Win32,59.87306909,,,,,,,,,,,,,,,i,1,0.5691,0,19,19,65,1,他,i,,,,,,,,,,,,,,,,,,,,,,,,,,,,,,,,,,,,,,,,,
,,,,,,,,,,,,,,yangling,001,2025-01-08_17h41.49.210,IAT(Formal),2021.2.3,Win32,59.87306909,,,,,,,,,,,,,,,e,1,0.6144,0,20,20,74,1,俺,e,,,,,,,,,,,,,,,,,,,,,,,,,,,,,,,,,,,,,,,,,
,,,,,,,,,,,,,,yangling,001,2025-01-08_17h41.49.210,IAT(Formal),2021.2.3,Win32,59.87306909,,,,,,,,,,,,,,,i,1,0.6169,0,21,21,34,1,悲观,i,,,,,,,,,,,,,,,,,,,,,,,,,,,,,,,,,,,,,,,,,
,,,,,,,,,,,,,,yangling,001,2025-01-08_17h41.49.210,IAT(Formal),2021.2.3,Win32,59.87306909,,,,,,,,,,,,,,,e,1,0.5145,0,22,22,12,1,聪明,e,,,,,,,,,,,,,,,,,,,,,,,,,,,,,,,,,,,,,,,,,
,,,,,,,,,,,,,,yangling,001,2025-01-08_17h41.49.210,IAT(Formal),2021.2.3,Win32,59.87306909,,,,,,,,,,,,,,,i,1,0.4899,0,23,23,55,1,他,i,,,,,,,,,,,,,,,,,,,,,,,,,,,,,,,,,,,,,,,,,
,,,,,,,,,,,,,,yangling,001,2025-01-08_17h41.49.210,IAT(Formal),2021.2.3,Win32,59.87306909,,,,,,,,,,,,,,,e,1,0.5381,0,24,24,18,1,勤奋,e,,,,,,,,,,,,,,,,,,,,,,,,,,,,,,,,,,,,,,,,,
,,,,,,,,,,,,,,yangling,001,2025-01-08_17h41.49.210,IAT(Formal),2021.2.3,Win32,59.87306909,,,,,,,,,,,,,,,e,1,0.8565,0,25,25,2,1,我们,e,,,,,,,,,,,,,,,,,,,,,,,,,,,,,,,,,,,,,,,,,
,,,,,,,,,,,,,,yangling,001,2025-01-08_17h41.49.210,IAT(Formal),2021.2.3,Win32,59.87306909,,,,,,,,,,,,,,,i,1,0.7218,0,26,26,68,1,他人,i,,,,,,,,,,,,,,,,,,,,,,,,,,,,,,,,,,,,,,,,,
,,,,,,,,,,,,,,yangling,001,2025-01-08_17h41.49.210,IAT(Formal),2021.2.3,Win32,59.87306909,,,,,,,,,,,,,,,i,1,0.6002,0,27,27,59,1,其他,i,,,,,,,,,,,,,,,,,,,,,,,,,,,,,,,,,,,,,,,,,
,,,,,,,,,,,,,,yangling,001,2025-01-08_17h41.49.210,IAT(Formal),2021.2.3,Win32,59.87306909,,,,,,,,,,,,,,,i,1,0.6196,0,28,28,33,1,刻薄,i,,,,,,,,,,,,,,,,,,,,,,,,,,,,,,,,,,,,,,,,,
,,,,,,,,,,,,,,yangling,001,2025-01-08_17h41.49.210,IAT(Formal),2021.2.3,Win32,59.87306909,,,,,,,,,,,,,,,i,1,0.634,0,29,29,41,1,散漫,i,,,,,,,,,,,,,,,,,,,,,,,,,,,,,,,,,,,,,,,,,
,,,,,,,,,,,,,,yangling,001,2025-01-08_17h41.49.210,IAT(Formal),2021.2.3,Win32,59.87306909,,,,,,,,,,,,,,,e,1,0.7504,0,30,30,0,1,我,e,,,,,,,,,,,,,,,,,,,,,,,,,,,,,,,,,,,,,,,,,
,,,,,,,,,,,,,,yangling,001,2025-01-08_17h41.49.210,IAT(Formal),2021.2.3,Win32,59.87306909,,,,,,,,,,,,,,,e,1,0.617,0,31,31,21,1,稳重,e,,,,,,,,,,,,,,,,,,,,,,,,,,,,,,,,,,,,,,,,,
,,,,,,,,,,,,,,yangling,001,2025-01-08_17h41.49.210,IAT(Formal),2021.2.3,Win32,59.87306909,,,,,,,,,,,,,,,i,1,0.6324,0,32,32,9,1,其他,i,,,,,,,,,,,,,,,,,,,,,,,,,,,,,,,,,,,,,,,,,
,,,,,,,,,,,,,,yangling,001,2025-01-08_17h41.49.210,IAT(Formal),2021.2.3,Win32,59.87306909,,,,,,,,,,,,,,,e,1,0.6504,0,33,33,14,1,乐观,e,,,,,,,,,,,,,,,,,,,,,,,,,,,,,,,,,,,,,,,,,
,,,,,,,,,,,,,,yangling,001,2025-01-08_17h41.49.210,IAT(Formal),2021.2.3,Win32,59.87306909,,,,,,,,,,,,,,,i,1,0.5881,0,34,34,56,1,他们,i,,,,,,,,,,,,,,,,,,,,,,,,,,,,,,,,,,,,,,,,,
,,,,,,,,,,,,,,yangling,001,2025-01-08_17h41.49.210,IAT(Formal),2021.2.3,Win32,59.87306909,,,,,,,,,,,,,,,e,1,0.5309,0,35,35,10,1,优秀,e,,,,,,,,,,,,,,,,,,,,,,,,,,,,,,,,,,,,,,,,,
,,,,,,,,,,,,,,yangling,001,2025-01-08_17h41.49.210,IAT(Formal),2021.2.3,Win32,59.87306909,,,,,,,,,,,,,,,i,1,0.9496,0,36,36,48,1,轻率,i,,,,,,,,,,,,,,,,,,,,,,,,,,,,,,,,,,,,,,,,,
,,,,,,,,,,,,,,yangling,001,2025-01-08_17h41.49.210,IAT(Formal),2021.2.3,Win32,59.87306909,,,,,,,,,,,,,,,i,1,0.5156,0,37,37,75,1,他,i,,,,,,,,,,,,,,,,,,,,,,,,,,,,,,,,,,,,,,,,,
,,,,,,,,,,,,,,yangling,001,2025-01-08_17h41.49.210,IAT(Formal),2021.2.3,Win32,59.87306909,,,,,,,,,,,,,,,i,1,0.448,0,38,38,6,1,他们,i,,,,,,,,,,,,,,,,,,,,,,,,,,,,,,,,,,,,,,,,,
,,,,,,,,,,,,,,yangling,001,2025-01-08_17h41.49.210,IAT(Formal),2021.2.3,Win32,59.87306909,,,,,,,,,,,,,,,i,1,0.4152,0,39,39,57,1,他的,i,,,,,,,,,,,,,,,,,,,,,,,,,,,,,,,,,,,,,,,,,
,,,,,,,,,,,,,,yangling,001,2025-01-08_17h41.49.210,IAT(Formal),2021.2.3,Win32,59.87306909,,,,,,,,,,,,,,,e,1,0.5811,0,40,40,23,1,公正,e,,,,,,,,,,,,,,,,,,,,,,,,,,,,,,,,,,,,,,,,,
,,,,,,,,,,,,,,yangling,001,2025-01-08_17h41.49.210,IAT(Formal),2021.2.3,Win32,59.87306909,,,,,,,,,,,,,,,i,1,0.8641,0,41,41,47,1,固执,i,,,,,,,,,,,,,,,,,,,,,,,,,,,,,,,,,,,,,,,,,
,,,,,,,,,,,,,,yangling,001,2025-01-08_17h41.49.210,IAT(Formal),2021.2.3,Win32,59.87306909,,,,,,,,,,,,,,,e,1,0.5554,0,42,42,16,1,正直,e,,,,,,,,,,,,,,,,,,,,,,,,,,,,,,,,,,,,,,,,,
,,,,,,,,,,,,,,yangling,001,2025-01-08_17h41.49.210,IAT(Formal),2021.2.3,Win32,59.87306909,,,,,,,,,,,,,,,e,1,0.6642,0,43,43,71,1,我的,e,,,,,,,,,,,,,,,,,,,,,,,,,,,,,,,,,,,,,,,,,
,,,,,,,,,,,,,,yangling,001,2025-01-08_17h41.49.210,IAT(Formal),2021.2.3,Win32,59.87306909,,,,,,,,,,,,,,,i,1,0.5055,0,44,44,77,1,他的,i,,,,,,,,,,,,,,,,,,,,,,,,,,,,,,,,,,,,,,,,,
,,,,,,,,,,,,,,yangling,001,2025-01-08_17h41.49.210,IAT(Formal),2021.2.3,Win32,59.87306909,,,,,,,,,,,,,,,e,1,0.5312,0,45,45,61,1,我的,e,,,,,,,,,,,,,,,,,,,,,,,,,,,,,,,,,,,,,,,,,
,,,,,,,,,,,,,,yangling,001,2025-01-08_17h41.49.210,IAT(Formal),2021.2.3,Win32,59.87306909,,,,,,,,,,,,,,,i,1,0.7345,0,46,46,40,1,执拗,i,,,,,,,,,,,,,,,,,,,,,,,,,,,,,,,,,,,,,,,,,
,,,,,,,,,,,,,,yangling,001,2025-01-08_17h41.49.210,IAT(Formal),2021.2.3,Win32,59.87306909,,,,,,,,,,,,,,,i,1,0.6045,0,47,47,30,1,卑鄙,i,,,,,,,,,,,,,,,,,,,,,,,,,,,,,,,,,,,,,,,,,
,,,,,,,,,,,,,,yangling,001,2025-01-08_17h41.49.210,IAT(Formal),2021.2.3,Win32,59.87306909,,,,,,,,,,,,,,,i,1,0.5313,0,48,48,36,1,自卑,i,,,,,,,,,,,,,,,,,,,,,,,,,,,,,,,,,,,,,,,,,
,,,,,,,,,,,,,,yangling,001,2025-01-08_17h41.49.210,IAT(Formal),2021.2.3,Win32,59.87306909,,,,,,,,,,,,,,,e,1,0.7137,0,49,49,51,1,我的,e,,,,,,,,,,,,,,,,,,,,,,,,,,,,,,,,,,,,,,,,,
,,,,,,,,,,,,,,yangling,001,2025-01-08_17h41.49.210,IAT(Formal),2021.2.3,Win32,59.87306909,,,,,,,,,,,,,,,i,1,0.4852,0,50,50,58,1,他人,i,,,,,,,,,,,,,,,,,,,,,,,,,,,,,,,,,,,,,,,,,
,,,,,,,,,,,,,,yangling,001,2025-01-08_17h41.49.210,IAT(Formal),2021.2.3,Win32,59.87306909,,,,,,,,,,,,,,,e,1,1.0973,0,51,51,4,1,俺,e,,,,,,,,,,,,,,,,,,,,,,,,,,,,,,,,,,,,,,,,,
,,,,,,,,,,,,,,yangling,001,2025-01-08_17h41.49.210,IAT(Formal),2021.2.3,Win32,59.87306909,,,,,,,,,,,,,,,e,1,0.6339,0,52,52,15,1,诚实,e,,,,,,,,,,,,,,,,,,,,,,,,,,,,,,,,,,,,,,,,,
,,,,,,,,,,,,,,yangling,001,2025-01-08_17h41.49.210,IAT(Formal),2021.2.3,Win32,59.87306909,,,,,,,,,,,,,,,e,1,0.5173,0,53,53,29,1,诚恳,e,,,,,,,,,,,,,,,,,,,,,,,,,,,,,,,,,,,,,,,,,
,,,,,,,,,,,,,,yangling,001,2025-01-08_17h41.49.210,IAT(Formal),2021.2.3,Win32,59.87306909,,,,,,,,,,,,,,,e,1,0.7334,0,54,54,27,1,热情,e,,,,,,,,,,,,,,,,,,,,,,,,,,,,,,,,,,,,,,,,,
,,,,,,,,,,,,,,yangling,001,2025-01-08_17h41.49.210,IAT(Formal),2021.2.3,Win32,59.87306909,,,,,,,,,,,,,,,i,1,0.5718,0,55,55,78,1,他人,i,,,,,,,,,,,,,,,,,,,,,,,,,,,,,,,,,,,,,,,,,
,,,,,,,,,,,,,,yangling,001,2025-01-08_17h41.49.210,IAT(Formal),2021.2.3,Win32,59.87306909,,,,,,,,,,,,,,,e,1,0.5682,0,56,56,63,1,自己,e,,,,,,,,,,,,,,,,,,,,,,,,,,,,,,,,,,,,,,,,,
,,,,,,,,,,,,,,yangling,001,2025-01-08_17h41.49.210,IAT(Formal),2021.2.3,Win32,59.87306909,,,,,,,,,,,,,,,i,1,1.0011,0,57,57,76,1,他们,i,,,,,,,,,,,,,,,,,,,,,,,,,,,,,,,,,,,,,,,,,
,,,,,,,,,,,,,,yangling,001,2025-01-08_17h41.49.210,IAT(Formal),2021.2.3,Win32,59.87306909,,,,,,,,,,,,,,,i,1,0.5682,0,58,58,49,1,下贱,i,,,,,,,,,,,,,,,,,,,,,,,,,,,,,,,,,,,,,,,,,
,,,,,,,,,,,,,,yangling,001,2025-01-08_17h41.49.210,IAT(Formal),2021.2.3,Win32,59.87306909,,,,,,,,,,,,,,,i,1,0.4678,0,59,59,45,1,猖狂,i,,,,,,,,,,,,,,,,,,,,,,,,,,,,,,,,,,,,,,,,,
,,,,,,,,,,,,,,yangling,001,2025-01-08_17h41.49.210,IAT(Formal),2021.2.3,Win32,59.87306909,,,,,,,,,,,,,,,i,1,0.5843,0,60,60,44,1,暴躁,i,,,,,,,,,,,,,,,,,,,,,,,,,,,,,,,,,,,,,,,,,
,,,,,,,,,,,,,,yangling,001,2025-01-08_17h41.49.210,IAT(Formal),2021.2.3,Win32,59.87306909,,,,,,,,,,,,,,,i,1,0.5005,0,61,61,37,1,傲慢,i,,,,,,,,,,,,,,,,,,,,,,,,,,,,,,,,,,,,,,,,,
,,,,,,,,,,,,,,yangling,001,2025-01-08_17h41.49.210,IAT(Formal),2021.2.3,Win32,59.87306909,,,,,,,,,,,,,,,e,1,0.4843,0,62,62,53,1,自己,e,,,,,,,,,,,,,,,,,,,,,,,,,,,,,,,,,,,,,,,,,
,,,,,,,,,,,,,,yangling,001,2025-01-08_17h41.49.210,IAT(Formal),2021.2.3,Win32,59.87306909,,,,,,,,,,,,,,,e,1,0.4403,0,63,63,60,1,我,e,,,,,,,,,,,,,,,,,,,,,,,,,,,,,,,,,,,,,,,,,
,,,,,,,,,,,,,,yangling,001,2025-01-08_17h41.49.210,IAT(Formal),2021.2.3,Win32,59.87306909,,,,,,,,,,,,,,,e,1,0.6004,0,64,64,20,1,认真,e,,,,,,,,,,,,,,,,,,,,,,,,,,,,,,,,,,,,,,,,,
,,,,,,,,,,,,,,yangling,001,2025-01-08_17h41.49.210,IAT(Formal),2021.2.3,Win32,59.87306909,,,,,,,,,,,,,,,e,1,0.5336,0,65,65,13,1,杰出,e,,,,,,,,,,,,,,,,,,,,,,,,,,,,,,,,,,,,,,,,,
,,,,,,,,,,,,,,yangling,001,2025-01-08_17h41.49.210,IAT(Formal),2021.2.3,Win32,59.87306909,,,,,,,,,,,,,,,e,1,0.5234,0,66,66,70,1,我,e,,,,,,,,,,,,,,,,,,,,,,,,,,,,,,,,,,,,,,,,,
,,,,,,,,,,,,,,yangling,001,2025-01-08_17h41.49.210,IAT(Formal),2021.2.3,Win32,59.87306909,,,,,,,,,,,,,,,e,1,0.5837,0,67,67,26,1,冷静,e,,,,,,,,,,,,,,,,,,,,,,,,,,,,,,,,,,,,,,,,,
,,,,,,,,,,,,,,yangling,001,2025-01-08_17h41.49.210,IAT(Formal),2021.2.3,Win32,59.87306909,,,,,,,,,,,,,,,i,1,0.8676,0,68,68,31,1,虚伪,i,,,,,,,,,,,,,,,,,,,,,,,,,,,,,,,,,,,,,,,,,
,,,,,,,,,,,,,,yangling,001,2025-01-08_17h41.49.210,IAT(Formal),2021.2.3,Win32,59.87306909,,,,,,,,,,,,,,,e,1,0.7869,0,69,69,22,1,无私,e,,,,,,,,,,,,,,,,,,,,,,,,,,,,,,,,,,,,,,,,,
,,,,,,,,,,,,,,yangling,001,2025-01-08_17h41.49.210,IAT(Formal),2021.2.3,Win32,59.87306909,,,,,,,,,,,,,,,i,1,0.9034,0,70,70,67,1,他的,i,,,,,,,,,,,,,,,,,,,,,,,,,,,,,,,,,,,,,,,,,
,,,,,,,,,,,,,,yangling,001,2025-01-08_17h41.49.210,IAT(Formal),2021.2.3,Win32,59.87306909,,,,,,,,,,,,,,,i,1,0.7508,0,71,71,32,1,愚蠢,i,,,,,,,,,,,,,,,,,,,,,,,,,,,,,,,,,,,,,,,,,
,,,,,,,,,,,,,,yangling,001,2025-01-08_17h41.49.210,IAT(Formal),2021.2.3,Win32,59.87306909,,,,,,,,,,,,,,,e,1,0.4399,0,72,72,52,1,我们,e,,,,,,,,,,,,,,,,,,,,,,,,,,,,,,,,,,,,,,,,,
,,,,,,,,,,,,,,yangling,001,2025-01-08_17h41.49.210,IAT(Formal),2021.2.3,Win32,59.87306909,,,,,,,,,,,,,,,e,1,0.5748,0,73,73,28,1,活泼,e,,,,,,,,,,,,,,,,,,,,,,,,,,,,,,,,,,,,,,,,,
,,,,,,,,,,,,,,yangling,001,2025-01-08_17h41.49.210,IAT(Formal),2021.2.3,Win32,59.87306909,,,,,,,,,,,,,,,e,1,0.5874,0,74,74,19,1,机智,e,,,,,,,,,,,,,,,,,,,,,,,,,,,,,,,,,,,,,,,,,
,,,,,,,,,,,,,,yangling,001,2025-01-08_17h41.49.210,IAT(Formal),2021.2.3,Win32,59.87306909,,,,,,,,,,,,,,,e,1,0.5669,0,75,75,25,1,细腻,e,,,,,,,,,,,,,,,,,,,,,,,,,,,,,,,,,,,,,,,,,
,,,,,,,,,,,,,,yangling,001,2025-01-08_17h41.49.210,IAT(Formal),2021.2.3,Win32,59.87306909,,,,,,,,,,,,,,,e,1,0.651,0,76,76,50,1,我,e,,,,,,,,,,,,,,,,,,,,,,,,,,,,,,,,,,,,,,,,,
,,,,,,,,,,,,,,yangling,001,2025-01-08_17h41.49.210,IAT(Formal),2021.2.3,Win32,59.87306909,,,,,,,,,,,,,,,e,1,0.5556,0,77,77,11,1,崇高,e,,,,,,,,,,,,,,,,,,,,,,,,,,,,,,,,,,,,,,,,,
,,,,,,,,,,,,,,yangling,001,2025-01-08_17h41.49.210,IAT(Formal),2021.2.3,Win32,59.87306909,,,,,,,,,,,,,,,i,1,0.6482,0,78,78,38,1,鲁莽,i,,,,,,,,,,,,,,,,,,,,,,,,,,,,,,,,,,,,,,,,,
,,,,,,,,,,,,,,yangling,001,2025-01-08_17h41.49.210,IAT(Formal),2021.2.3,Win32,59.87306909,,,,,,,,,,,,,,,i,1,0.5866,0,79,79,66,1,他们,i,,,,,,,,,,,,,,,,,,,,,,,,,,,,,,,,,,,,,,,,,
,,,,,,,,,,,,,,yangling,001,2025-01-08_17h41.49.210,IAT(Formal),2021.2.3,Win32,59.87306909,,,,,,,,,,,,,,,i,1,1.1677,,,,,,固执,i,space,4.7572,0,0,0,47,1,,,,,,,,,,,,,,,,,,,,,,,,,,,,,,,,,,
,,,,,,,,,,,,,,yangling,001,2025-01-08_17h41.49.210,IAT(Formal),2021.2.3,Win32,59.87306909,,,,,,,,,,,,,,,e,1,0.4509,,,,,,聪明,e,,,0,1,1,12,1,,,,,,,,,,,,,,,,,,,,,,,,,,,,,,,,,,
,,,,,,,,,,,,,,yangling,001,2025-01-08_17h41.49.210,IAT(Formal),2021.2.3,Win32,59.87306909,,,,,,,,,,,,,,,e,1,0.5847,,,,,,我们,e,,,0,2,2,52,1,,,,,,,,,,,,,,,,,,,,,,,,,,,,,,,,,,
,,,,,,,,,,,,,,yangling,001,2025-01-08_17h41.49.210,IAT(Formal),2021.2.3,Win32,59.87306909,,,,,,,,,,,,,,,e,1,0.5068,,,,,,优秀,e,,,0,3,3,10,1,,,,,,,,,,,,,,,,,,,,,,,,,,,,,,,,,,
,,,,,,,,,,,,,,yangling,001,2025-01-08_17h41.49.210,IAT(Formal),2021.2.3,Win32,59.87306909,,,,,,,,,,,,,,,e,1,0.5187,,,,,,诚实,e,,,0,4,4,15,1,,,,,,,,,,,,,,,,,,,,,,,,,,,,,,,,,,
,,,,,,,,,,,,,,yangling,001,2025-01-08_17h41.49.210,IAT(Formal),2021.2.3,Win32,59.87306909,,,,,,,,,,,,,,,e,1,0.6057,,,,,,自己,e,,,0,5,5,3,1,,,,,,,,,,,,,,,,,,,,,,,,,,,,,,,,,,
,,,,,,,,,,,,,,yangling,001,2025-01-08_17h41.49.210,IAT(Formal),2021.2.3,Win32,59.87306909,,,,,,,,,,,,,,,e,1,0.6813,,,,,,冷静,e,,,0,6,6,26,1,,,,,,,,,,,,,,,,,,,,,,,,,,,,,,,,,,
,,,,,,,,,,,,,,yangling,001,2025-01-08_17h41.49.210,IAT(Formal),2021.2.3,Win32,59.87306909,,,,,,,,,,,,,,,i,1,0.6005,,,,,,虚伪,i,,,0,7,7,31,1,,,,,,,,,,,,,,,,,,,,,,,,,,,,,,,,,,
,,,,,,,,,,,,,,yangling,001,2025-01-08_17h41.49.210,IAT(Formal),2021.2.3,Win32,59.87306909,,,,,,,,,,,,,,,e,1,0.7979,,,,,,无私,e,,,0,8,8,22,1,,,,,,,,,,,,,,,,,,,,,,,,,,,,,,,,,,
,,,,,,,,,,,,,,yangling,001,2025-01-08_17h41.49.210,IAT(Formal),2021.2.3,Win32,59.87306909,,,,,,,,,,,,,,,i,1,0.6317,,,,,,他的,i,,,0,9,9,77,1,,,,,,,,,,,,,,,,,,,,,,,,,,,,,,,,,,
,,,,,,,,,,,,,,yangling,001,2025-01-08_17h41.49.210,IAT(Formal),2021.2.3,Win32,59.87306909,,,,,,,,,,,,,,,e,1,0.5976,,,,,,稳重,e,,,0,10,10,21,1,,,,,,,,,,,,,,,,,,,,,,,,,,,,,,,,,,
,,,,,,,,,,,,,,yangling,001,2025-01-08_17h41.49.210,IAT(Formal),2021.2.3,Win32,59.87306909,,,,,,,,,,,,,,,i,1,0.6689,,,,,,其他,i,,,0,11,11,59,1,,,,,,,,,,,,,,,,,,,,,,,,,,,,,,,,,,
,,,,,,,,,,,,,,yangling,001,2025-01-08_17h41.49.210,IAT(Formal),2021.2.3,Win32,59.87306909,,,,,,,,,,,,,,,i,1,0.5147,,,,,,他人,i,,,0,12,12,58,1,,,,,,,,,,,,,,,,,,,,,,,,,,,,,,,,,,
,,,,,,,,,,,,,,yangling,001,2025-01-08_17h41.49.210,IAT(Formal),2021.2.3,Win32,59.87306909,,,,,,,,,,,,,,,e,1,0.5887,,,,,,正直,e,,,0,13,13,16,1,,,,,,,,,,,,,,,,,,,,,,,,,,,,,,,,,,
,,,,,,,,,,,,,,yangling,001,2025-01-08_17h41.49.210,IAT(Formal),2021.2.3,Win32,59.87306909,,,,,,,,,,,,,,,i,1,0.6979,,,,,,他们,i,,,0,14,14,56,1,,,,,,,,,,,,,,,,,,,,,,,,,,,,,,,,,,
,,,,,,,,,,,,,,yangling,001,2025-01-08_17h41.49.210,IAT(Formal),2021.2.3,Win32,59.87306909,,,,,,,,,,,,,,,e,1,0.5523,,,,,,我们,e,,,0,15,15,72,1,,,,,,,,,,,,,,,,,,,,,,,,,,,,,,,,,,
,,,,,,,,,,,,,,yangling,001,2025-01-08_17h41.49.210,IAT(Formal),2021.2.3,Win32,59.87306909,,,,,,,,,,,,,,,i,1,0.5642,,,,,,他,i,,,0,16,16,55,1,,,,,,,,,,,,,,,,,,,,,,,,,,,,,,,,,,
,,,,,,,,,,,,,,yangling,001,2025-01-08_17h41.49.210,IAT(Formal),2021.2.3,Win32,59.87306909,,,,,,,,,,,,,,,e,1,0.5979,,,,,,勤奋,e,,,0,17,17,18,1,,,,,,,,,,,,,,,,,,,,,,,,,,,,,,,,,,
,,,,,,,,,,,,,,yangling,001,2025-01-08_17h41.49.210,IAT(Formal),2021.2.3,Win32,59.87306909,,,,,,,,,,,,,,,e,1,0.9815,,,,,,自己,e,,,0,18,18,53,1,,,,,,,,,,,,,,,,,,,,,,,,,,,,,,,,,,
,,,,,,,,,,,,,,yangling,001,2025-01-08_17h41.49.210,IAT(Formal),2021.2.3,Win32,59.87306909,,,,,,,,,,,,,,,e,1,0.4895,,,,,,我的,e,,,0,19,19,61,1,,,,,,,,,,,,,,,,,,,,,,,,,,,,,,,,,,
,,,,,,,,,,,,,,yangling,001,2025-01-08_17h41.49.210,IAT(Formal),2021.2.3,Win32,59.87306909,,,,,,,,,,,,,,,e,0,0.631,,,,,,自私,i,,,0,20,20,43,1,,,,,,,,,,,,,,,,,,,,,,,,,,,,,,,,,,
,,,,,,,,,,,,,,yangling,001,2025-01-08_17h41.49.210,IAT(Formal),2021.2.3,Win32,59.87306909,,,,,,,,,,,,,,,i,1,0.6998,,,,,,散漫,i,,,0,21,21,41,1,,,,,,,,,,,,,,,,,,,,,,,,,,,,,,,,,,
,,,,,,,,,,,,,,yangling,001,2025-01-08_17h41.49.210,IAT(Formal),2021.2.3,Win32,59.87306909,,,,,,,,,,,,,,,i,1,0.6812,,,,,,暴躁,i,,,0,22,22,44,1,,,,,,,,,,,,,,,,,,,,,,,,,,,,,,,,,,
,,,,,,,,,,,,,,yangling,001,2025-01-08_17h41.49.210,IAT(Formal),2021.2.3,Win32,59.87306909,,,,,,,,,,,,,,,e,1,0.6844,,,,,,我,e,,,0,23,23,0,1,,,,,,,,,,,,,,,,,,,,,,,,,,,,,,,,,,
,,,,,,,,,,,,,,yangling,001,2025-01-08_17h41.49.210,IAT(Formal),2021.2.3,Win32,59.87306909,,,,,,,,,,,,,,,i,1,0.523,,,,,,其他,i,,,0,24,24,69,1,,,,,,,,,,,,,,,,,,,,,,,,,,,,,,,,,,
,,,,,,,,,,,,,,yangling,001,2025-01-08_17h41.49.210,IAT(Formal),2021.2.3,Win32,59.87306909,,,,,,,,,,,,,,,e,1,0.8676,,,,,,认真,e,,,0,25,25,20,1,,,,,,,,,,,,,,,,,,,,,,,,,,,,,,,,,,
,,,,,,,,,,,,,,yangling,001,2025-01-08_17h41.49.210,IAT(Formal),2021.2.3,Win32,59.87306909,,,,,,,,,,,,,,,e,1,0.6667,,,,,,我的,e,,,0,26,26,51,1,,,,,,,,,,,,,,,,,,,,,,,,,,,,,,,,,,
,,,,,,,,,,,,,,yangling,001,2025-01-08_17h41.49.210,IAT(Formal),2021.2.3,Win32,59.87306909,,,,,,,,,,,,,,,e,1,0.5343,,,,,,乐观,e,,,0,27,27,14,1,,,,,,,,,,,,,,,,,,,,,,,,,,,,,,,,,,
,,,,,,,,,,,,,,yangling,001,2025-01-08_17h41.49.210,IAT(Formal),2021.2.3,Win32,59.87306909,,,,,,,,,,,,,,,i,1,0.7842,,,,,,愚蠢,i,,,0,28,28,32,1,,,,,,,,,,,,,,,,,,,,,,,,,,,,,,,,,,
,,,,,,,,,,,,,,yangling,001,2025-01-08_17h41.49.210,IAT(Formal),2021.2.3,Win32,59.87306909,,,,,,,,,,,,,,,e,1,0.5844,,,,,,诚恳,e,,,0,29,29,29,1,,,,,,,,,,,,,,,,,,,,,,,,,,,,,,,,,,
,,,,,,,,,,,,,,yangling,001,2025-01-08_17h41.49.210,IAT(Formal),2021.2.3,Win32,59.87306909,,,,,,,,,,,,,,,e,1,0.6505,,,,,,我,e,,,0,30,30,70,1,,,,,,,,,,,,,,,,,,,,,,,,,,,,,,,,,,
,,,,,,,,,,,,,,yangling,001,2025-01-08_17h41.49.210,IAT(Formal),2021.2.3,Win32,59.87306909,,,,,,,,,,,,,,,e,1,0.6013,,,,,,俺,e,,,0,31,31,64,1,,,,,,,,,,,,,,,,,,,,,,,,,,,,,,,,,,
,,,,,,,,,,,,,,yangling,001,2025-01-08_17h41.49.210,IAT(Formal),2021.2.3,Win32,59.87306909,,,,,,,,,,,,,,,i,1,0.6408,,,,,,悲观,i,,,0,32,32,34,1,,,,,,,,,,,,,,,,,,,,,,,,,,,,,,,,,,
,,,,,,,,,,,,,,yangling,001,2025-01-08_17h41.49.210,IAT(Formal),2021.2.3,Win32,59.87306909,,,,,,,,,,,,,,,e,1,0.6507,,,,,,自己,e,,,0,33,33,73,1,,,,,,,,,,,,,,,,,,,,,,,,,,,,,,,,,,
,,,,,,,,,,,,,,yangling,001,2025-01-08_17h41.49.210,IAT(Formal),2021.2.3,Win32,59.87306909,,,,,,,,,,,,,,,e,1,0.4521,,,,,,我,e,,,0,34,34,50,1,,,,,,,,,,,,,,,,,,,,,,,,,,,,,,,,,,
,,,,,,,,,,,,,,yangling,001,2025-01-08_17h41.49.210,IAT(Formal),2021.2.3,Win32,59.87306909,,,,,,,,,,,,,,,i,1,0.5669,,,,,,他人,i,,,0,35,35,78,1,,,,,,,,,,,,,,,,,,,,,,,,,,,,,,,,,,
,,,,,,,,,,,,,,yangling,001,2025-01-08_17h41.49.210,IAT(Formal),2021.2.3,Win32,59.87306909,,,,,,,,,,,,,,,e,1,0.7506,,,,,,朴实,e,,,0,36,36,24,1,,,,,,,,,,,,,,,,,,,,,,,,,,,,,,,,,,
,,,,,,,,,,,,,,yangling,001,2025-01-08_17h41.49.210,IAT(Formal),2021.2.3,Win32,59.87306909,,,,,,,,,,,,,,,i,1,0.6978,,,,,,卑鄙,i,,,0,37,37,30,1,,,,,,,,,,,,,,,,,,,,,,,,,,,,,,,,,,
,,,,,,,,,,,,,,yangling,001,2025-01-08_17h41.49.210,IAT(Formal),2021.2.3,Win32,59.87306909,,,,,,,,,,,,,,,e,1,0.8313,,,,,,自己,e,,,0,38,38,63,1,,,,,,,,,,,,,,,,,,,,,,,,,,,,,,,,,,
,,,,,,,,,,,,,,yangling,001,2025-01-08_17h41.49.210,IAT(Formal),2021.2.3,Win32,59.87306909,,,,,,,,,,,,,,,i,1,0.5682,,,,,,他人,i,,,0,39,39,8,1,,,,,,,,,,,,,,,,,,,,,,,,,,,,,,,,,,
,,,,,,,,,,,,,,yangling,001,2025-01-08_17h41.49.210,IAT(Formal),2021.2.3,Win32,59.87306909,,,,,,,,,,,,,,,e,1,0.5644,,,,,,细腻,e,,,0,40,40,25,1,,,,,,,,,,,,,,,,,,,,,,,,,,,,,,,,,,
,,,,,,,,,,,,,,yangling,001,2025-01-08_17h41.49.210,IAT(Formal),2021.2.3,Win32,59.87306909,,,,,,,,,,,,,,,i,1,0.5677,,,,,,他们,i,,,0,41,41,76,1,,,,,,,,,,,,,,,,,,,,,,,,,,,,,,,,,,
,,,,,,,,,,,,,,yangling,001,2025-01-08_17h41.49.210,IAT(Formal),2021.2.3,Win32,59.87306909,,,,,,,,,,,,,,,e,1,0.7345,,,,,,热情,e,,,0,42,42,27,1,,,,,,,,,,,,,,,,,,,,,,,,,,,,,,,,,,
,,,,,,,,,,,,,,yangling,001,2025-01-08_17h41.49.210,IAT(Formal),2021.2.3,Win32,59.87306909,,,,,,,,,,,,,,,i,1,0.8671,,,,,,下贱,i,,,0,43,43,49,1,,,,,,,,,,,,,,,,,,,,,,,,,,,,,,,,,,
,,,,,,,,,,,,,,yangling,001,2025-01-08_17h41.49.210,IAT(Formal),2021.2.3,Win32,59.87306909,,,,,,,,,,,,,,,i,1,0.6677,,,,,,自卑,i,,,0,44,44,36,1,,,,,,,,,,,,,,,,,,,,,,,,,,,,,,,,,,
,,,,,,,,,,,,,,yangling,001,2025-01-08_17h41.49.210,IAT(Formal),2021.2.3,Win32,59.87306909,,,,,,,,,,,,,,,i,1,0.6675,,,,,,消极,i,,,0,45,45,35,1,,,,,,,,,,,,,,,,,,,,,,,,,,,,,,,,,,
,,,,,,,,,,,,,,yangling,001,2025-01-08_17h41.49.210,IAT(Formal),2021.2.3,Win32,59.87306909,,,,,,,,,,,,,,,i,1,0.9348,,,,,,执拗,i,,,0,46,46,40,1,,,,,,,,,,,,,,,,,,,,,,,,,,,,,,,,,,
,,,,,,,,,,,,,,yangling,001,2025-01-08_17h41.49.210,IAT(Formal),2021.2.3,Win32,59.87306909,,,,,,,,,,,,,,,i,1,0.784,,,,,,他们,i,,,0,47,47,6,1,,,,,,,,,,,,,,,,,,,,,,,,,,,,,,,,,,
,,,,,,,,,,,,,,yangling,001,2025-01-08_17h41.49.210,IAT(Formal),2021.2.3,Win32,59.87306909,,,,,,,,,,,,,,,i,1,0.6205,,,,,,凶狠,i,,,0,48,48,42,1,,,,,,,,,,,,,,,,,,,,,,,,,,,,,,,,,,
,,,,,,,,,,,,,,yangling,001,2025-01-08_17h41.49.210,IAT(Formal),2021.2.3,Win32,59.87306909,,,,,,,,,,,,,,,i,1,0.5702,,,,,,他的,i,,,0,49,49,67,1,,,,,,,,,,,,,,,,,,,,,,,,,,,,,,,,,,
,,,,,,,,,,,,,,yangling,001,2025-01-08_17h41.49.210,IAT(Formal),2021.2.3,Win32,59.87306909,,,,,,,,,,,,,,,i,1,0.6423,,,,,,野蛮,i,,,0,50,50,46,1,,,,,,,,,,,,,,,,,,,,,,,,,,,,,,,,,,
,,,,,,,,,,,,,,yangling,001,2025-01-08_17h41.49.210,IAT(Formal),2021.2.3,Win32,59.87306909,,,,,,,,,,,,,,,i,1,0.5848,,,,,,他,i,,,0,51,51,65,1,,,,,,,,,,,,,,,,,,,,,,,,,,,,,,,,,,
,,,,,,,,,,,,,,yangling,001,2025-01-08_17h41.49.210,IAT(Formal),2021.2.3,Win32,59.87306909,,,,,,,,,,,,,,,i,1,0.5338,,,,,,傲慢,i,,,0,52,52,37,1,,,,,,,,,,,,,,,,,,,,,,,,,,,,,,,,,,
,,,,,,,,,,,,,,yangling,001,2025-01-08_17h41.49.210,IAT(Formal),2021.2.3,Win32,59.87306909,,,,,,,,,,,,,,,i,1,0.5391,,,,,,冒失,i,,,0,53,53,39,1,,,,,,,,,,,,,,,,,,,,,,,,,,,,,,,,,,
,,,,,,,,,,,,,,yangling,001,2025-01-08_17h41.49.210,IAT(Formal),2021.2.3,Win32,59.87306909,,,,,,,,,,,,,,,i,1,0.567,,,,,,他的,i,,,0,54,54,7,1,,,,,,,,,,,,,,,,,,,,,,,,,,,,,,,,,,
,,,,,,,,,,,,,,yangling,001,2025-01-08_17h41.49.210,IAT(Formal),2021.2.3,Win32,59.87306909,,,,,,,,,,,,,,,e,1,0.5909,,,,,,机智,e,,,0,55,55,19,1,,,,,,,,,,,,,,,,,,,,,,,,,,,,,,,,,,
,,,,,,,,,,,,,,yangling,001,2025-01-08_17h41.49.210,IAT(Formal),2021.2.3,Win32,59.87306909,,,,,,,,,,,,,,,e,1,0.5697,,,,,,杰出,e,,,0,56,56,13,1,,,,,,,,,,,,,,,,,,,,,,,,,,,,,,,,,,
,,,,,,,,,,,,,,yangling,001,2025-01-08_17h41.49.210,IAT(Formal),2021.2.3,Win32,59.87306909,,,,,,,,,,,,,,,e,1,0.5175,,,,,,勇敢,e,,,0,57,57,17,1,,,,,,,,,,,,,,,,,,,,,,,,,,,,,,,,,,
,,,,,,,,,,,,,,yangling,001,2025-01-08_17h41.49.210,IAT(Formal),2021.2.3,Win32,59.87306909,,,,,,,,,,,,,,,e,1,0.6501,,,,,,我的,e,,,0,58,58,1,1,,,,,,,,,,,,,,,,,,,,,,,,,,,,,,,,,,
,,,,,,,,,,,,,,yangling,001,2025-01-08_17h41.49.210,IAT(Formal),2021.2.3,Win32,59.87306909,,,,,,,,,,,,,,,e,1,0.481,,,,,,我,e,,,0,59,59,60,1,,,,,,,,,,,,,,,,,,,,,,,,,,,,,,,,,,
,,,,,,,,,,,,,,yangling,001,2025-01-08_17h41.49.210,IAT(Formal),2021.2.3,Win32,59.87306909,,,,,,,,,,,,,,,i,1,0.6172,,,,,,鲁莽,i,,,0,60,60,38,1,,,,,,,,,,,,,,,,,,,,,,,,,,,,,,,,,,
,,,,,,,,,,,,,,yangling,001,2025-01-08_17h41.49.210,IAT(Formal),2021.2.3,Win32,59.87306909,,,,,,,,,,,,,,,i,1,0.6031,,,,,,他的,i,,,0,61,61,57,1,,,,,,,,,,,,,,,,,,,,,,,,,,,,,,,,,,
,,,,,,,,,,,,,,yangling,001,2025-01-08_17h41.49.210,IAT(Formal),2021.2.3,Win32,59.87306909,,,,,,,,,,,,,,,i,1,0.5342,,,,,,他们,i,,,0,62,62,66,1,,,,,,,,,,,,,,,,,,,,,,,,,,,,,,,,,,
,,,,,,,,,,,,,,yangling,001,2025-01-08_17h41.49.210,IAT(Formal),2021.2.3,Win32,59.87306909,,,,,,,,,,,,,,,e,1,0.5883,,,,,,公正,e,,,0,63,63,23,1,,,,,,,,,,,,,,,,,,,,,,,,,,,,,,,,,,
,,,,,,,,,,,,,,yangling,001,2025-01-08_17h41.49.210,IAT(Formal),2021.2.3,Win32,59.87306909,,,,,,,,,,,,,,,e,1,0.534,,,,,,我的,e,,,0,64,64,71,1,,,,,,,,,,,,,,,,,,,,,,,,,,,,,,,,,,
,,,,,,,,,,,,,,yangling,001,2025-01-08_17h41.49.210,IAT(Formal),2021.2.3,Win32,59.87306909,,,,,,,,,,,,,,,e,1,0.6505,,,,,,崇高,e,,,0,65,65,11,1,,,,,,,,,,,,,,,,,,,,,,,,,,,,,,,,,,
,,,,,,,,,,,,,,yangling,001,2025-01-08_17h41.49.210,IAT(Formal),2021.2.3,Win32,59.87306909,,,,,,,,,,,,,,,i,1,0.6515,,,,,,他,i,,,0,66,66,75,1,,,,,,,,,,,,,,,,,,,,,,,,,,,,,,,,,,
,,,,,,,,,,,,,,yangling,001,2025-01-08_17h41.49.210,IAT(Formal),2021.2.3,Win32,59.87306909,,,,,,,,,,,,,,,i,1,0.6342,,,,,,轻率,i,,,0,67,67,48,1,,,,,,,,,,,,,,,,,,,,,,,,,,,,,,,,,,
,,,,,,,,,,,,,,yangling,001,2025-01-08_17h41.49.210,IAT(Formal),2021.2.3,Win32,59.87306909,,,,,,,,,,,,,,,e,1,0.7006,,,,,,俺,e,,,0,68,68,4,1,,,,,,,,,,,,,,,,,,,,,,,,,,,,,,,,,,
,,,,,,,,,,,,,,yangling,001,2025-01-08_17h41.49.210,IAT(Formal),2021.2.3,Win32,59.87306909,,,,,,,,,,,,,,,e,1,0.6175,,,,,,活泼,e,,,0,69,69,28,1,,,,,,,,,,,,,,,,,,,,,,,,,,,,,,,,,,
,,,,,,,,,,,,,,yangling,001,2025-01-08_17h41.49.210,IAT(Formal),2021.2.3,Win32,59.87306909,,,,,,,,,,,,,,,i,1,0.5676,,,,,,其他,i,,,0,70,70,9,1,,,,,,,,,,,,,,,,,,,,,,,,,,,,,,,,,,
,,,,,,,,,,,,,,yangling,001,2025-01-08_17h41.49.210,IAT(Formal),2021.2.3,Win32,59.87306909,,,,,,,,,,,,,,,i,1,0.534,,,,,,他,i,,,0,71,71,5,1,,,,,,,,,,,,,,,,,,,,,,,,,,,,,,,,,,
,,,,,,,,,,,,,,yangling,001,2025-01-08_17h41.49.210,IAT(Formal),2021.2.3,Win32,59.87306909,,,,,,,,,,,,,,,i,0,0.4838,,,,,,俺,e,,,0,72,72,74,1,,,,,,,,,,,,,,,,,,,,,,,,,,,,,,,,,,
,,,,,,,,,,,,,,yangling,001,2025-01-08_17h41.49.210,IAT(Formal),2021.2.3,Win32,59.87306909,,,,,,,,,,,,,,,i,1,0.5839,,,,,,其他,i,,,0,73,73,79,1,,,,,,,,,,,,,,,,,,,,,,,,,,,,,,,,,,
,,,,,,,,,,,,,,yangling,001,2025-01-08_17h41.49.210,IAT(Formal),2021.2.3,Win32,59.87306909,,,,,,,,,,,,,,,e,1,0.784,,,,,,我们,e,,,0,74,74,62,1,,,,,,,,,,,,,,,,,,,,,,,,,,,,,,,,,,
,,,,,,,,,,,,,,yangling,001,2025-01-08_17h41.49.210,IAT(Formal),2021.2.3,Win32,59.87306909,,,,,,,,,,,,,,,i,1,0.8252,,,,,,刻薄,i,,,0,75,75,33,1,,,,,,,,,,,,,,,,,,,,,,,,,,,,,,,,,,
,,,,,,,,,,,,,,yangling,001,2025-01-08_17h41.49.210,IAT(Formal),2021.2.3,Win32,59.87306909,,,,,,,,,,,,,,,i,1,0.6698,,,,,,猖狂,i,,,0,76,76,45,1,,,,,,,,,,,,,,,,,,,,,,,,,,,,,,,,,,
,,,,,,,,,,,,,,yangling,001,2025-01-08_17h41.49.210,IAT(Formal),2021.2.3,Win32,59.87306909,,,,,,,,,,,,,,,e,1,0.6192,,,,,,我们,e,,,0,77,77,2,1,,,,,,,,,,,,,,,,,,,,,,,,,,,,,,,,,,
,,,,,,,,,,,,,,yangling,001,2025-01-08_17h41.49.210,IAT(Formal),2021.2.3,Win32,59.87306909,,,,,,,,,,,,,,,e,1,0.5983,,,,,,俺,e,,,0,78,78,54,1,,,,,,,,,,,,,,,,,,,,,,,,,,,,,,,,,,
,,,,,,,,,,,,,,yangling,001,2025-01-08_17h41.49.210,IAT(Formal),2021.2.3,Win32,59.87306909,,,,,,,,,,,,,,,i,1,0.5714,,,,,,他人,i,,,0,79,79,68,1,,,,,,,,,,,,,,,,,,,,,,,,,,,,,,,,,,
,,,,,,,,,,,,,,yangling,001,2025-01-08_17h41.49.210,IAT(Formal),2021.2.3,Win32,59.87306909,,,,,,,,,,,,,,,i,1,0.7673,,,,,,他的,i,,,1,0,80,7,1,,,,,,,,,,,,,,,,,,,,,,,,,,,,,,,,,,
,,,,,,,,,,,,,,yangling,001,2025-01-08_17h41.49.210,IAT(Formal),2021.2.3,Win32,59.87306909,,,,,,,,,,,,,,,i,1,0.6843,,,,,,鲁莽,i,,,1,1,81,38,1,,,,,,,,,,,,,,,,,,,,,,,,,,,,,,,,,,
,,,,,,,,,,,,,,yangling,001,2025-01-08_17h41.49.210,IAT(Formal),2021.2.3,Win32,59.87306909,,,,,,,,,,,,,,,i,1,0.5678,,,,,,他人,i,,,1,2,82,68,1,,,,,,,,,,,,,,,,,,,,,,,,,,,,,,,,,,
,,,,,,,,,,,,,,yangling,001,2025-01-08_17h41.49.210,IAT(Formal),2021.2.3,Win32,59.87306909,,,,,,,,,,,,,,,i,1,0.6573,,,,,,他们,i,,,1,3,83,6,1,,,,,,,,,,,,,,,,,,,,,,,,,,,,,,,,,,
,,,,,,,,,,,,,,yangling,001,2025-01-08_17h41.49.210,IAT(Formal),2021.2.3,Win32,59.87306909,,,,,,,,,,,,,,,e,1,0.5671,,,,,,公正,e,,,1,4,84,23,1,,,,,,,,,,,,,,,,,,,,,,,,,,,,,,,,,,
,,,,,,,,,,,,,,yangling,001,2025-01-08_17h41.49.210,IAT(Formal),2021.2.3,Win32,59.87306909,,,,,,,,,,,,,,,e,1,0.6007,,,,,,冷静,e,,,1,5,85,26,1,,,,,,,,,,,,,,,,,,,,,,,,,,,,,,,,,,
,,,,,,,,,,,,,,yangling,001,2025-01-08_17h41.49.210,IAT(Formal),2021.2.3,Win32,59.87306909,,,,,,,,,,,,,,,e,1,0.5675,,,,,,杰出,e,,,1,6,86,13,1,,,,,,,,,,,,,,,,,,,,,,,,,,,,,,,,,,
,,,,,,,,,,,,,,yangling,001,2025-01-08_17h41.49.210,IAT(Formal),2021.2.3,Win32,59.87306909,,,,,,,,,,,,,,,e,1,0.5673,,,,,,我们,e,,,1,7,87,62,1,,,,,,,,,,,,,,,,,,,,,,,,,,,,,,,,,,
,,,,,,,,,,,,,,yangling,001,2025-01-08_17h41.49.210,IAT(Formal),2021.2.3,Win32,59.87306909,,,,,,,,,,,,,,,e,1,0.5707,,,,,,自己,e,,,1,8,88,3,1,,,,,,,,,,,,,,,,,,,,,,,,,,,,,,,,,,
,,,,,,,,,,,,,,yangling,001,2025-01-08_17h41.49.210,IAT(Formal),2021.2.3,Win32,59.87306909,,,,,,,,,,,,,,,i,1,0.6177,,,,,,他的,i,,,1,9,89,77,1,,,,,,,,,,,,,,,,,,,,,,,,,,,,,,,,,,
,,,,,,,,,,,,,,yangling,001,2025-01-08_17h41.49.210,IAT(Formal),2021.2.3,Win32,59.87306909,,,,,,,,,,,,,,,e,1,0.651,,,,,,我,e,,,1,10,90,70,1,,,,,,,,,,,,,,,,,,,,,,,,,,,,,,,,,,
,,,,,,,,,,,,,,yangling,001,2025-01-08_17h41.49.210,IAT(Formal),2021.2.3,Win32,59.87306909,,,,,,,,,,,,,,,i,1,0.604,,,,,,下贱,i,,,1,11,91,49,1,,,,,,,,,,,,,,,,,,,,,,,,,,,,,,,,,,
,,,,,,,,,,,,,,yangling,001,2025-01-08_17h41.49.210,IAT(Formal),2021.2.3,Win32,59.87306909,,,,,,,,,,,,,,,i,1,0.6871,,,,,,轻率,i,,,1,12,92,48,1,,,,,,,,,,,,,,,,,,,,,,,,,,,,,,,,,,
,,,,,,,,,,,,,,yangling,001,2025-01-08_17h41.49.210,IAT(Formal),2021.2.3,Win32,59.87306909,,,,,,,,,,,,,,,e,1,0.984,,,,,,我的,e,,,1,13,93,71,1,,,,,,,,,,,,,,,,,,,,,,,,,,,,,,,,,,
,,,,,,,,,,,,,,yangling,001,2025-01-08_17h41.49.210,IAT(Formal),2021.2.3,Win32,59.87306909,,,,,,,,,,,,,,,i,1,0.7716,,,,,,散漫,i,,,1,14,94,41,1,,,,,,,,,,,,,,,,,,,,,,,,,,,,,,,,,,
,,,,,,,,,,,,,,yangling,001,2025-01-08_17h41.49.210,IAT(Formal),2021.2.3,Win32,59.87306909,,,,,,,,,,,,,,,e,1,0.5525,,,,,,我们,e,,,1,15,95,72,1,,,,,,,,,,,,,,,,,,,,,,,,,,,,,,,,,,
,,,,,,,,,,,,,,yangling,001,2025-01-08_17h41.49.210,IAT(Formal),2021.2.3,Win32,59.87306909,,,,,,,,,,,,,,,i,1,0.5176,,,,,,他们,i,,,1,16,96,76,1,,,,,,,,,,,,,,,,,,,,,,,,,,,,,,,,,,
,,,,,,,,,,,,,,yangling,001,2025-01-08_17h41.49.210,IAT(Formal),2021.2.3,Win32,59.87306909,,,,,,,,,,,,,,,i,1,0.5842,,,,,,凶狠,i,,,1,17,97,42,1,,,,,,,,,,,,,,,,,,,,,,,,,,,,,,,,,,
,,,,,,,,,,,,,,yangling,001,2025-01-08_17h41.49.210,IAT(Formal),2021.2.3,Win32,59.87306909,,,,,,,,,,,,,,,e,1,0.5337,,,,,,诚恳,e,,,1,18,98,29,1,,,,,,,,,,,,,,,,,,,,,,,,,,,,,,,,,,
,,,,,,,,,,,,,,yangling,001,2025-01-08_17h41.49.210,IAT(Formal),2021.2.3,Win32,59.87306909,,,,,,,,,,,,,,,e,1,0.8387,,,,,,无私,e,,,1,19,99,22,1,,,,,,,,,,,,,,,,,,,,,,,,,,,,,,,,,,
,,,,,,,,,,,,,,yangling,001,2025-01-08_17h41.49.210,IAT(Formal),2021.2.3,Win32,59.87306909,,,,,,,,,,,,,,,e,1,0.6518,,,,,,勇敢,e,,,1,20,100,17,1,,,,,,,,,,,,,,,,,,,,,,,,,,,,,,,,,,
,,,,,,,,,,,,,,yangling,001,2025-01-08_17h41.49.210,IAT(Formal),2021.2.3,Win32,59.87306909,,,,,,,,,,,,,,,i,1,0.7007,,,,,,他们,i,,,1,21,101,56,1,,,,,,,,,,,,,,,,,,,,,,,,,,,,,,,,,,
,,,,,,,,,,,,,,yangling,001,2025-01-08_17h41.49.210,IAT(Formal),2021.2.3,Win32,59.87306909,,,,,,,,,,,,,,,i,1,0.8172,,,,,,固执,i,,,1,22,102,47,1,,,,,,,,,,,,,,,,,,,,,,,,,,,,,,,,,,
,,,,,,,,,,,,,,yangling,001,2025-01-08_17h41.49.210,IAT(Formal),2021.2.3,Win32,59.87306909,,,,,,,,,,,,,,,e,1,0.756,,,,,,乐观,e,,,1,23,103,14,1,,,,,,,,,,,,,,,,,,,,,,,,,,,,,,,,,,
,,,,,,,,,,,,,,yangling,001,2025-01-08_17h41.49.210,IAT(Formal),2021.2.3,Win32,59.87306909,,,,,,,,,,,,,,,e,1,0.6603,,,,,,我的,e,,,1,24,104,1,1,,,,,,,,,,,,,,,,,,,,,,,,,,,,,,,,,,
,,,,,,,,,,,,,,yangling,001,2025-01-08_17h41.49.210,IAT(Formal),2021.2.3,Win32,59.87306909,,,,,,,,,,,,,,,e,1,0.5698,,,,,,聪明,e,,,1,25,105,12,1,,,,,,,,,,,,,,,,,,,,,,,,,,,,,,,,,,
,,,,,,,,,,,,,,yangling,001,2025-01-08_17h41.49.210,IAT(Formal),2021.2.3,Win32,59.87306909,,,,,,,,,,,,,,,i,1,0.6872,,,,,,其他,i,,,1,26,106,9,1,,,,,,,,,,,,,,,,,,,,,,,,,,,,,,,,,,
,,,,,,,,,,,,,,yangling,001,2025-01-08_17h41.49.210,IAT(Formal),2021.2.3,Win32,59.87306909,,,,,,,,,,,,,,,e,1,0.5673,,,,,,朴实,e,,,1,27,107,24,1,,,,,,,,,,,,,,,,,,,,,,,,,,,,,,,,,,
,,,,,,,,,,,,,,yangling,001,2025-01-08_17h41.49.210,IAT(Formal),2021.2.3,Win32,59.87306909,,,,,,,,,,,,,,,i,1,0.7339,,,,,,执拗,i,,,1,28,108,40,1,,,,,,,,,,,,,,,,,,,,,,,,,,,,,,,,,,
,,,,,,,,,,,,,,yangling,001,2025-01-08_17h41.49.210,IAT(Formal),2021.2.3,Win32,59.87306909,,,,,,,,,,,,,,,e,1,0.6341,,,,,,我的,e,,,1,29,109,51,1,,,,,,,,,,,,,,,,,,,,,,,,,,,,,,,,,,
,,,,,,,,,,,,,,yangling,001,2025-01-08_17h41.49.210,IAT(Formal),2021.2.3,Win32,59.87306909,,,,,,,,,,,,,,,i,1,0.5673,,,,,,傲慢,i,,,1,30,110,37,1,,,,,,,,,,,,,,,,,,,,,,,,,,,,,,,,,,
,,,,,,,,,,,,,,yangling,001,2025-01-08_17h41.49.210,IAT(Formal),2021.2.3,Win32,59.87306909,,,,,,,,,,,,,,,e,1,0.6177,,,,,,自己,e,,,1,31,111,73,1,,,,,,,,,,,,,,,,,,,,,,,,,,,,,,,,,,
,,,,,,,,,,,,,,yangling,001,2025-01-08_17h41.49.210,IAT(Formal),2021.2.3,Win32,59.87306909,,,,,,,,,,,,,,,e,1,0.7242,,,,,,我的,e,,,1,32,112,61,1,,,,,,,,,,,,,,,,,,,,,,,,,,,,,,,,,,
,,,,,,,,,,,,,,yangling,001,2025-01-08_17h41.49.210,IAT(Formal),2021.2.3,Win32,59.87306909,,,,,,,,,,,,,,,i,1,0.7508,,,,,,他的,i,,,1,33,113,67,1,,,,,,,,,,,,,,,,,,,,,,,,,,,,,,,,,,
,,,,,,,,,,,,,,yangling,001,2025-01-08_17h41.49.210,IAT(Formal),2021.2.3,Win32,59.87306909,,,,,,,,,,,,,,,e,1,0.5839,,,,,,机智,e,,,1,34,114,19,1,,,,,,,,,,,,,,,,,,,,,,,,,,,,,,,,,,
,,,,,,,,,,,,,,yangling,001,2025-01-08_17h41.49.210,IAT(Formal),2021.2.3,Win32,59.87306909,,,,,,,,,,,,,,,e,1,0.6518,,,,,,我们,e,,,1,35,115,52,1,,,,,,,,,,,,,,,,,,,,,,,,,,,,,,,,,,
,,,,,,,,,,,,,,yangling,001,2025-01-08_17h41.49.210,IAT(Formal),2021.2.3,Win32,59.87306909,,,,,,,,,,,,,,,i,1,0.6212,,,,,,他们,i,,,1,36,116,66,1,,,,,,,,,,,,,,,,,,,,,,,,,,,,,,,,,,
,,,,,,,,,,,,,,yangling,001,2025-01-08_17h41.49.210,IAT(Formal),2021.2.3,Win32,59.87306909,,,,,,,,,,,,,,,i,1,0.5843,,,,,,其他,i,,,1,37,117,69,1,,,,,,,,,,,,,,,,,,,,,,,,,,,,,,,,,,
,,,,,,,,,,,,,,yangling,001,2025-01-08_17h41.49.210,IAT(Formal),2021.2.3,Win32,59.87306909,,,,,,,,,,,,,,,e,1,0.604,,,,,,俺,e,,,1,38,118,74,1,,,,,,,,,,,,,,,,,,,,,,,,,,,,,,,,,,
,,,,,,,,,,,,,,yangling,001,2025-01-08_17h41.49.210,IAT(Formal),2021.2.3,Win32,59.87306909,,,,,,,,,,,,,,,i,1,0.6011,,,,,,暴躁,i,,,1,39,119,44,1,,,,,,,,,,,,,,,,,,,,,,,,,,,,,,,,,,
,,,,,,,,,,,,,,yangling,001,2025-01-08_17h41.49.210,IAT(Formal),2021.2.3,Win32,59.87306909,,,,,,,,,,,,,,,e,0,0.4973,,,,,,悲观,i,,,1,40,120,34,1,,,,,,,,,,,,,,,,,,,,,,,,,,,,,,,,,,
,,,,,,,,,,,,,,yangling,001,2025-01-08_17h41.49.210,IAT(Formal),2021.2.3,Win32,59.87306909,,,,,,,,,,,,,,,i,1,0.5506,,,,,,其他,i,,,1,41,121,59,1,,,,,,,,,,,,,,,,,,,,,,,,,,,,,,,,,,
,,,,,,,,,,,,,,yangling,001,2025-01-08_17h41.49.210,IAT(Formal),2021.2.3,Win32,59.87306909,,,,,,,,,,,,,,,i,1,1.1642,,,,,,自私,i,,,1,42,122,43,1,,,,,,,,,,,,,,,,,,,,,,,,,,,,,,,,,,
,,,,,,,,,,,,,,yangling,001,2025-01-08_17h41.49.210,IAT(Formal),2021.2.3,Win32,59.87306909,,,,,,,,,,,,,,,i,1,0.6979,,,,,,他,i,,,1,43,123,75,1,,,,,,,,,,,,,,,,,,,,,,,,,,,,,,,,,,
,,,,,,,,,,,,,,yangling,001,2025-01-08_17h41.49.210,IAT(Formal),2021.2.3,Win32,59.87306909,,,,,,,,,,,,,,,e,1,0.5672,,,,,,优秀,e,,,1,44,124,10,1,,,,,,,,,,,,,,,,,,,,,,,,,,,,,,,,,,
,,,,,,,,,,,,,,yangling,001,2025-01-08_17h41.49.210,IAT(Formal),2021.2.3,Win32,59.87306909,,,,,,,,,,,,,,,i,1,0.5046,,,,,,猖狂,i,,,1,45,125,45,1,,,,,,,,,,,,,,,,,,,,,,,,,,,,,,,,,,
,,,,,,,,,,,,,,yangling,001,2025-01-08_17h41.49.210,IAT(Formal),2021.2.3,Win32,59.87306909,,,,,,,,,,,,,,,i,1,0.6029,,,,,,他的,i,,,1,46,126,57,1,,,,,,,,,,,,,,,,,,,,,,,,,,,,,,,,,,
,,,,,,,,,,,,,,yangling,001,2025-01-08_17h41.49.210,IAT(Formal),2021.2.3,Win32,59.87306909,,,,,,,,,,,,,,,e,1,0.6175,,,,,,热情,e,,,1,47,127,27,1,,,,,,,,,,,,,,,,,,,,,,,,,,,,,,,,,,
,,,,,,,,,,,,,,yangling,001,2025-01-08_17h41.49.210,IAT(Formal),2021.2.3,Win32,59.87306909,,,,,,,,,,,,,,,i,1,0.5841,,,,,,野蛮,i,,,1,48,128,46,1,,,,,,,,,,,,,,,,,,,,,,,,,,,,,,,,,,
,,,,,,,,,,,,,,yangling,001,2025-01-08_17h41.49.210,IAT(Formal),2021.2.3,Win32,59.87306909,,,,,,,,,,,,,,,i,1,0.7336,,,,,,他人,i,,,1,49,129,58,1,,,,,,,,,,,,,,,,,,,,,,,,,,,,,,,,,,
,,,,,,,,,,,,,,yangling,001,2025-01-08_17h41.49.210,IAT(Formal),2021.2.3,Win32,59.87306909,,,,,,,,,,,,,,,e,1,0.6176,,,,,,俺,e,,,1,50,130,54,1,,,,,,,,,,,,,,,,,,,,,,,,,,,,,,,,,,
,,,,,,,,,,,,,,yangling,001,2025-01-08_17h41.49.210,IAT(Formal),2021.2.3,Win32,59.87306909,,,,,,,,,,,,,,,e,1,0.5679,,,,,,认真,e,,,1,51,131,20,1,,,,,,,,,,,,,,,,,,,,,,,,,,,,,,,,,,
,,,,,,,,,,,,,,yangling,001,2025-01-08_17h41.49.210,IAT(Formal),2021.2.3,Win32,59.87306909,,,,,,,,,,,,,,,e,1,0.5842,,,,,,我,e,,,1,52,132,0,1,,,,,,,,,,,,,,,,,,,,,,,,,,,,,,,,,,
,,,,,,,,,,,,,,yangling,001,2025-01-08_17h41.49.210,IAT(Formal),2021.2.3,Win32,59.87306909,,,,,,,,,,,,,,,e,1,0.4838,,,,,,勤奋,e,,,1,53,133,18,1,,,,,,,,,,,,,,,,,,,,,,,,,,,,,,,,,,
,,,,,,,,,,,,,,yangling,001,2025-01-08_17h41.49.210,IAT(Formal),2021.2.3,Win32,59.87306909,,,,,,,,,,,,,,,e,1,0.4869,,,,,,诚实,e,,,1,54,134,15,1,,,,,,,,,,,,,,,,,,,,,,,,,,,,,,,,,,
,,,,,,,,,,,,,,yangling,001,2025-01-08_17h41.49.210,IAT(Formal),2021.2.3,Win32,59.87306909,,,,,,,,,,,,,,,i,1,0.5346,,,,,,卑鄙,i,,,1,55,135,30,1,,,,,,,,,,,,,,,,,,,,,,,,,,,,,,,,,,
,,,,,,,,,,,,,,yangling,001,2025-01-08_17h41.49.210,IAT(Formal),2021.2.3,Win32,59.87306909,,,,,,,,,,,,,,,e,0,0.5515,,,,,,他人,i,,,1,56,136,78,1,,,,,,,,,,,,,,,,,,,,,,,,,,,,,,,,,,
,,,,,,,,,,,,,,yangling,001,2025-01-08_17h41.49.210,IAT(Formal),2021.2.3,Win32,59.87306909,,,,,,,,,,,,,,,i,1,0.7011,,,,,,消极,i,,,1,57,137,35,1,,,,,,,,,,,,,,,,,,,,,,,,,,,,,,,,,,
,,,,,,,,,,,,,,yangling,001,2025-01-08_17h41.49.210,IAT(Formal),2021.2.3,Win32,59.87306909,,,,,,,,,,,,,,,e,1,0.5518,,,,,,自己,e,,,1,58,138,53,1,,,,,,,,,,,,,,,,,,,,,,,,,,,,,,,,,,
,,,,,,,,,,,,,,yangling,001,2025-01-08_17h41.49.210,IAT(Formal),2021.2.3,Win32,59.87306909,,,,,,,,,,,,,,,i,1,0.4807,,,,,,冒失,i,,,1,59,139,39,1,,,,,,,,,,,,,,,,,,,,,,,,,,,,,,,,,,
,,,,,,,,,,,,,,yangling,001,2025-01-08_17h41.49.210,IAT(Formal),2021.2.3,Win32,59.87306909,,,,,,,,,,,,,,,i,0,0.4678,,,,,,俺,e,,,1,60,140,64,1,,,,,,,,,,,,,,,,,,,,,,,,,,,,,,,,,,
,,,,,,,,,,,,,,yangling,001,2025-01-08_17h41.49.210,IAT(Formal),2021.2.3,Win32,59.87306909,,,,,,,,,,,,,,,i,1,0.5567,,,,,,虚伪,i,,,1,61,141,31,1,,,,,,,,,,,,,,,,,,,,,,,,,,,,,,,,,,
,,,,,,,,,,,,,,yangling,001,2025-01-08_17h41.49.210,IAT(Formal),2021.2.3,Win32,59.87306909,,,,,,,,,,,,,,,e,1,0.5221,,,,,,我,e,,,1,62,142,60,1,,,,,,,,,,,,,,,,,,,,,,,,,,,,,,,,,,
,,,,,,,,,,,,,,yangling,001,2025-01-08_17h41.49.210,IAT(Formal),2021.2.3,Win32,59.87306909,,,,,,,,,,,,,,,e,0,0.6312,,,,,,他人,i,,,1,63,143,8,1,,,,,,,,,,,,,,,,,,,,,,,,,,,,,,,,,,
,,,,,,,,,,,,,,yangling,001,2025-01-08_17h41.49.210,IAT(Formal),2021.2.3,Win32,59.87306909,,,,,,,,,,,,,,,i,1,0.555,,,,,,他,i,,,1,64,144,55,1,,,,,,,,,,,,,,,,,,,,,,,,,,,,,,,,,,
,,,,,,,,,,,,,,yangling,001,2025-01-08_17h41.49.210,IAT(Formal),2021.2.3,Win32,59.87306909,,,,,,,,,,,,,,,e,1,0.5676,,,,,,崇高,e,,,1,65,145,11,1,,,,,,,,,,,,,,,,,,,,,,,,,,,,,,,,,,
,,,,,,,,,,,,,,yangling,001,2025-01-08_17h41.49.210,IAT(Formal),2021.2.3,Win32,59.87306909,,,,,,,,,,,,,,,i,1,0.5732,,,,,,刻薄,i,,,1,66,146,33,1,,,,,,,,,,,,,,,,,,,,,,,,,,,,,,,,,,
,,,,,,,,,,,,,,yangling,001,2025-01-08_17h41.49.210,IAT(Formal),2021.2.3,Win32,59.87306909,,,,,,,,,,,,,,,e,1,0.5812,,,,,,稳重,e,,,1,67,147,21,1,,,,,,,,,,,,,,,,,,,,,,,,,,,,,,,,,,
,,,,,,,,,,,,,,yangling,001,2025-01-08_17h41.49.210,IAT(Formal),2021.2.3,Win32,59.87306909,,,,,,,,,,,,,,,e,1,0.5338,,,,,,正直,e,,,1,68,148,16,1,,,,,,,,,,,,,,,,,,,,,,,,,,,,,,,,,,
,,,,,,,,,,,,,,yangling,001,2025-01-08_17h41.49.210,IAT(Formal),2021.2.3,Win32,59.87306909,,,,,,,,,,,,,,,i,1,0.5398,,,,,,自卑,i,,,1,69,149,36,1,,,,,,,,,,,,,,,,,,,,,,,,,,,,,,,,,,
,,,,,,,,,,,,,,yangling,001,2025-01-08_17h41.49.210,IAT(Formal),2021.2.3,Win32,59.87306909,,,,,,,,,,,,,,,e,1,0.4673,,,,,,我们,e,,,1,70,150,2,1,,,,,,,,,,,,,,,,,,,,,,,,,,,,,,,,,,
,,,,,,,,,,,,,,yangling,001,2025-01-08_17h41.49.210,IAT(Formal),2021.2.3,Win32,59.87306909,,,,,,,,,,,,,,,i,1,0.5008,,,,,,愚蠢,i,,,1,71,151,32,1,,,,,,,,,,,,,,,,,,,,,,,,,,,,,,,,,,
,,,,,,,,,,,,,,yangling,001,2025-01-08_17h41.49.210,IAT(Formal),2021.2.3,Win32,59.87306909,,,,,,,,,,,,,,,e,1,0.5374,,,,,,细腻,e,,,1,72,152,25,1,,,,,,,,,,,,,,,,,,,,,,,,,,,,,,,,,,
,,,,,,,,,,,,,,yangling,001,2025-01-08_17h41.49.210,IAT(Formal),2021.2.3,Win32,59.87306909,,,,,,,,,,,,,,,i,1,0.4877,,,,,,其他,i,,,1,73,153,79,1,,,,,,,,,,,,,,,,,,,,,,,,,,,,,,,,,,
,,,,,,,,,,,,,,yangling,001,2025-01-08_17h41.49.210,IAT(Formal),2021.2.3,Win32,59.87306909,,,,,,,,,,,,,,,i,1,0.5146,,,,,,他,i,,,1,74,154,65,1,,,,,,,,,,,,,,,,,,,,,,,,,,,,,,,,,,
,,,,,,,,,,,,,,yangling,001,2025-01-08_17h41.49.210,IAT(Formal),2021.2.3,Win32,59.87306909,,,,,,,,,,,,,,,i,1,0.4384,,,,,,他,i,,,1,75,155,5,1,,,,,,,,,,,,,,,,,,,,,,,,,,,,,,,,,,
,,,,,,,,,,,,,,yangling,001,2025-01-08_17h41.49.210,IAT(Formal),2021.2.3,Win32,59.87306909,,,,,,,,,,,,,,,e,1,0.5528,,,,,,活泼,e,,,1,76,156,28,1,,,,,,,,,,,,,,,,,,,,,,,,,,,,,,,,,,
,,,,,,,,,,,,,,yangling,001,2025-01-08_17h41.49.210,IAT(Formal),2021.2.3,Win32,59.87306909,,,,,,,,,,,,,,,e,1,1.0701,,,,,,自己,e,,,1,77,157,63,1,,,,,,,,,,,,,,,,,,,,,,,,,,,,,,,,,,
,,,,,,,,,,,,,,yangling,001,2025-01-08_17h41.49.210,IAT(Formal),2021.2.3,Win32,59.87306909,,,,,,,,,,,,,,,e,1,0.5668,,,,,,我,e,,,1,78,158,50,1,,,,,,,,,,,,,,,,,,,,,,,,,,,,,,,,,,
,,,,,,,,,,,,,,yangling,001,2025-01-08_17h41.49.210,IAT(Formal),2021.2.3,Win32,59.87306909,,,,,,,,,,,,,,,e,1,0.5159,,,,,,俺,e,,,1,79,159,4,1,,,,,,,,,,,,,,,,,,,,,,,,,,,,,,,,,,
,,,,,,,,,,,,我们,i,yangling,001,2025-01-08_17h41.49.210,IAT(Formal),2021.2.3,Win32,59.87306909,,,,,,,,,,,,,,,,,,,,,,,,,,,,,,,,space,6.0883,i,1,1.134,0,0,0,2,1,,,,,,,,,,,,,,,,,,,,,,,,
,,,,,,,,,,,,他的,e,yangling,001,2025-01-08_17h41.49.210,IAT(Formal),2021.2.3,Win32,59.87306909,,,,,,,,,,,,,,,,,,,,,,,,,,,,,,,,,,e,1,0.5677,0,1,1,7,1,,,,,,,,,,,,,,,,,,,,,,,,
,,,,,,,,,,,,我的,i,yangling,001,2025-01-08_17h41.49.210,IAT(Formal),2021.2.3,Win32,59.87306909,,,,,,,,,,,,,,,,,,,,,,,,,,,,,,,,,,i,1,0.3831,0,2,2,1,1,,,,,,,,,,,,,,,,,,,,,,,,
,,,,,,,,,,,,俺,i,yangling,001,2025-01-08_17h41.49.210,IAT(Formal),2021.2.3,Win32,59.87306909,,,,,,,,,,,,,,,,,,,,,,,,,,,,,,,,,,e,0,0.5347,0,3,3,4,1,,,,,,,,,,,,,,,,,,,,,,,,
,,,,,,,,,,,,他们,e,yangling,001,2025-01-08_17h41.49.210,IAT(Formal),2021.2.3,Win32,59.87306909,,,,,,,,,,,,,,,,,,,,,,,,,,,,,,,,,,e,1,0.884,0,4,4,6,1,,,,,,,,,,,,,,,,,,,,,,,,
,,,,,,,,,,,,我,i,yangling,001,2025-01-08_17h41.49.210,IAT(Formal),2021.2.3,Win32,59.87306909,,,,,,,,,,,,,,,,,,,,,,,,,,,,,,,,,,i,1,0.6178,0,5,5,0,1,,,,,,,,,,,,,,,,,,,,,,,,
,,,,,,,,,,,,其他,e,yangling,001,2025-01-08_17h41.49.210,IAT(Formal),2021.2.3,Win32,59.87306909,,,,,,,,,,,,,,,,,,,,,,,,,,,,,,,,,,e,1,0.935,0,6,6,9,1,,,,,,,,,,,,,,,,,,,,,,,,
,,,,,,,,,,,,他人,e,yangling,001,2025-01-08_17h41.49.210,IAT(Formal),2021.2.3,Win32,59.87306909,,,,,,,,,,,,,,,,,,,,,,,,,,,,,,,,,,e,1,0.7582,0,7,7,8,1,,,,,,,,,,,,,,,,,,,,,,,,
,,,,,,,,,,,,他,e,yangling,001,2025-01-08_17h41.49.210,IAT(Formal),2021.2.3,Win32,59.87306909,,,,,,,,,,,,,,,,,,,,,,,,,,,,,,,,,,e,1,0.5507,0,8,8,5,1,,,,,,,,,,,,,,,,,,,,,,,,
,,,,,,,,,,,,自己,i,yangling,001,2025-01-08_17h41.49.210,IAT(Formal),2021.2.3,Win32,59.87306909,,,,,,,,,,,,,,,,,,,,,,,,,,,,,,,,,,i,1,0.4903,0,9,9,3,1,,,,,,,,,,,,,,,,,,,,,,,,
,,,,,,,,,,,,,,yangling,001,2025-01-08_17h41.49.210,IAT(Formal),2021.2.3,Win32,59.87306909,,,,,,,,,,,,,,,,,,,,,,,,,,,,,,,,,,,,,,,,,,space,12.9955,i,1,0.6399,0,0,0,34,1,悲观,i,,,,,,,,,,,,
,,,,,,,,,,,,,,yangling,001,2025-01-08_17h41.49.210,IAT(Formal),2021.2.3,Win32,59.87306909,,,,,,,,,,,,,,,,,,,,,,,,,,,,,,,,,,,,,,,,,,,,e,1,0.5671,0,1,1,24,1,朴实,e,,,,,,,,,,,,
,,,,,,,,,,,,,,yangling,001,2025-01-08_17h41.49.210,IAT(Formal),2021.2.3,Win32,59.87306909,,,,,,,,,,,,,,,,,,,,,,,,,,,,,,,,,,,,,,,,,,,,i,1,0.6073,0,2,2,47,1,固执,i,,,,,,,,,,,,
,,,,,,,,,,,,,,yangling,001,2025-01-08_17h41.49.210,IAT(Formal),2021.2.3,Win32,59.87306909,,,,,,,,,,,,,,,,,,,,,,,,,,,,,,,,,,,,,,,,,,,,i,1,0.6509,0,3,3,62,1,我们,i,,,,,,,,,,,,
,,,,,,,,,,,,,,yangling,001,2025-01-08_17h41.49.210,IAT(Formal),2021.2.3,Win32,59.87306909,,,,,,,,,,,,,,,,,,,,,,,,,,,,,,,,,,,,,,,,,,,,e,0,1.1499,0,4,4,43,1,自私,i,,,,,,,,,,,,
,,,,,,,,,,,,,,yangling,001,2025-01-08_17h41.49.210,IAT(Formal),2021.2.3,Win32,59.87306909,,,,,,,,,,,,,,,,,,,,,,,,,,,,,,,,,,,,,,,,,,,,i,0,0.9009,0,5,5,66,1,他们,e,,,,,,,,,,,,
,,,,,,,,,,,,,,yangling,001,2025-01-08_17h41.49.210,IAT(Formal),2021.2.3,Win32,59.87306909,,,,,,,,,,,,,,,,,,,,,,,,,,,,,,,,,,,,,,,,,,,,i,1,1.0513,0,6,6,33,1,刻薄,i,,,,,,,,,,,,
,,,,,,,,,,,,,,yangling,001,2025-01-08_17h41.49.210,IAT(Formal),2021.2.3,Win32,59.87306909,,,,,,,,,,,,,,,,,,,,,,,,,,,,,,,,,,,,,,,,,,,,i,0,0.6043,0,7,7,6,1,他们,e,,,,,,,,,,,,
,,,,,,,,,,,,,,yangling,001,2025-01-08_17h41.49.210,IAT(Formal),2021.2.3,Win32,59.87306909,,,,,,,,,,,,,,,,,,,,,,,,,,,,,,,,,,,,,,,,,,,,,0,,0,8,8,58,1,他人,e,,,,,,,,,,,,
,,,,,,,,,,,,,,yangling,001,2025-01-08_17h41.49.210,IAT(Formal),2021.2.3,Win32,59.87306909,,,,,,,,,,,,,,,,,,,,,,,,,,,,,,,,,,,,,,,,,,,,i,0,0.867,0,9,9,19,1,机智,e,,,,,,,,,,,,
,,,,,,,,,,,,,,yangling,001,2025-01-08_17h41.49.210,IAT(Formal),2021.2.3,Win32,59.87306909,,,,,,,,,,,,,,,,,,,,,,,,,,,,,,,,,,,,,,,,,,,,i,1,0.8665,0,10,10,41,1,散漫,i,,,,,,,,,,,,
,,,,,,,,,,,,,,yangling,001,2025-01-08_17h41.49.210,IAT(Formal),2021.2.3,Win32,59.87306909,,,,,,,,,,,,,,,,,,,,,,,,,,,,,,,,,,,,,,,,,,,,i,1,0.6009,0,11,11,45,1,猖狂,i,,,,,,,,,,,,
,,,,,,,,,,,,,,yangling,001,2025-01-08_17h41.49.210,IAT(Formal),2021.2.3,Win32,59.87306909,,,,,,,,,,,,,,,,,,,,,,,,,,,,,,,,,,,,,,,,,,,,e,1,0.5013,0,12,12,56,1,他们,e,,,,,,,,,,,,
,,,,,,,,,,,,,,yangling,001,2025-01-08_17h41.49.210,IAT(Formal),2021.2.3,Win32,59.87306909,,,,,,,,,,,,,,,,,,,,,,,,,,,,,,,,,,,,,,,,,,,,i,1,0.7341,0,13,13,51,1,我的,i,,,,,,,,,,,,
,,,,,,,,,,,,,,yangling,001,2025-01-08_17h41.49.210,IAT(Formal),2021.2.3,Win32,59.87306909,,,,,,,,,,,,,,,,,,,,,,,,,,,,,,,,,,,,,,,,,,,,i,1,1.0008,0,14,14,74,1,俺,i,,,,,,,,,,,,
,,,,,,,,,,,,,,yangling,001,2025-01-08_17h41.49.210,IAT(Formal),2021.2.3,Win32,59.87306909,,,,,,,,,,,,,,,,,,,,,,,,,,,,,,,,,,,,,,,,,,,,i,1,0.5007,0,15,15,35,1,消极,i,,,,,,,,,,,,
,,,,,,,,,,,,,,yangling,001,2025-01-08_17h41.49.210,IAT(Formal),2021.2.3,Win32,59.87306909,,,,,,,,,,,,,,,,,,,,,,,,,,,,,,,,,,,,,,,,,,,,e,1,0.5571,0,16,16,7,1,他的,e,,,,,,,,,,,,
,,,,,,,,,,,,,,yangling,001,2025-01-08_17h41.49.210,IAT(Formal),2021.2.3,Win32,59.87306909,,,,,,,,,,,,,,,,,,,,,,,,,,,,,,,,,,,,,,,,,,,,e,1,0.7003,0,17,17,23,1,公正,e,,,,,,,,,,,,
,,,,,,,,,,,,,,yangling,001,2025-01-08_17h41.49.210,IAT(Formal),2021.2.3,Win32,59.87306909,,,,,,,,,,,,,,,,,,,,,,,,,,,,,,,,,,,,,,,,,,,,i,1,0.3341,0,18,18,71,1,我的,i,,,,,,,,,,,,
,,,,,,,,,,,,,,yangling,001,2025-01-08_17h41.49.210,IAT(Formal),2021.2.3,Win32,59.87306909,,,,,,,,,,,,,,,,,,,,,,,,,,,,,,,,,,,,,,,,,,,,i,0,0.4506,0,19,19,12,1,聪明,e,,,,,,,,,,,,
,,,,,,,,,,,,,,yangling,001,2025-01-08_17h41.49.210,IAT(Formal),2021.2.3,Win32,59.87306909,,,,,,,,,,,,,,,,,,,,,,,,,,,,,,,,,,,,,,,,,,,,i,1,1.134,0,20,20,36,1,自卑,i,,,,,,,,,,,,
,,,,,,,,,,,,,,yangling,001,2025-01-08_17h41.49.210,IAT(Formal),2021.2.3,Win32,59.87306909,,,,,,,,,,,,,,,,,,,,,,,,,,,,,,,,,,,,,,,,,,,,i,0,0.8175,0,21,21,79,1,其他,e,,,,,,,,,,,,
,,,,,,,,,,,,,,yangling,001,2025-01-08_17h41.49.210,IAT(Formal),2021.2.3,Win32,59.87306909,,,,,,,,,,,,,,,,,,,,,,,,,,,,,,,,,,,,,,,,,,,,,0,,0,22,22,28,1,活泼,e,,,,,,,,,,,,
,,,,,,,,,,,,,,yangling,001,2025-01-08_17h41.49.210,IAT(Formal),2021.2.3,Win32,59.87306909,,,,,,,,,,,,,,,,,,,,,,,,,,,,,,,,,,,,,,,,,,,,i,1,0.5677,0,23,23,0,1,我,i,,,,,,,,,,,,
,,,,,,,,,,,,,,yangling,001,2025-01-08_17h41.49.210,IAT(Formal),2021.2.3,Win32,59.87306909,,,,,,,,,,,,,,,,,,,,,,,,,,,,,,,,,,,,,,,,,,,,e,1,0.9507,0,24,24,27,1,热情,e,,,,,,,,,,,,
,,,,,,,,,,,,,,yangling,001,2025-01-08_17h41.49.210,IAT(Formal),2021.2.3,Win32,59.87306909,,,,,,,,,,,,,,,,,,,,,,,,,,,,,,,,,,,,,,,,,,,,e,1,0.6511,0,25,25,21,1,稳重,e,,,,,,,,,,,,
,,,,,,,,,,,,,,yangling,001,2025-01-08_17h41.49.210,IAT(Formal),2021.2.3,Win32,59.87306909,,,,,,,,,,,,,,,,,,,,,,,,,,,,,,,,,,,,,,,,,,,,e,1,0.5664,0,26,26,17,1,勇敢,e,,,,,,,,,,,,
,,,,,,,,,,,,,,yangling,001,2025-01-08_17h41.49.210,IAT(Formal),2021.2.3,Win32,59.87306909,,,,,,,,,,,,,,,,,,,,,,,,,,,,,,,,,,,,,,,,,,,,i,1,0.4644,0,27,27,72,1,我们,i,,,,,,,,,,,,
,,,,,,,,,,,,,,yangling,001,2025-01-08_17h41.49.210,IAT(Formal),2021.2.3,Win32,59.87306909,,,,,,,,,,,,,,,,,,,,,,,,,,,,,,,,,,,,,,,,,,,,i,1,0.6689,0,28,28,50,1,我,i,,,,,,,,,,,,
,,,,,,,,,,,,,,yangling,001,2025-01-08_17h41.49.210,IAT(Formal),2021.2.3,Win32,59.87306909,,,,,,,,,,,,,,,,,,,,,,,,,,,,,,,,,,,,,,,,,,,,e,1,0.5729,0,29,29,5,1,他,e,,,,,,,,,,,,
,,,,,,,,,,,,,,yangling,001,2025-01-08_17h41.49.210,IAT(Formal),2021.2.3,Win32,59.87306909,,,,,,,,,,,,,,,,,,,,,,,,,,,,,,,,,,,,,,,,,,,,i,1,1.0504,0,30,30,30,1,卑鄙,i,,,,,,,,,,,,
,,,,,,,,,,,,,,yangling,001,2025-01-08_17h41.49.210,IAT(Formal),2021.2.3,Win32,59.87306909,,,,,,,,,,,,,,,,,,,,,,,,,,,,,,,,,,,,,,,,,,,,i,1,0.5847,0,31,31,49,1,下贱,i,,,,,,,,,,,,
,,,,,,,,,,,,,,yangling,001,2025-01-08_17h41.49.210,IAT(Formal),2021.2.3,Win32,59.87306909,,,,,,,,,,,,,,,,,,,,,,,,,,,,,,,,,,,,,,,,,,,,e,1,0.9509,0,32,32,67,1,他的,e,,,,,,,,,,,,
,,,,,,,,,,,,,,yangling,001,2025-01-08_17h41.49.210,IAT(Formal),2021.2.3,Win32,59.87306909,,,,,,,,,,,,,,,,,,,,,,,,,,,,,,,,,,,,,,,,,,,,i,1,0.5845,0,33,33,70,1,我,i,,,,,,,,,,,,
,,,,,,,,,,,,,,yangling,001,2025-01-08_17h41.49.210,IAT(Formal),2021.2.3,Win32,59.87306909,,,,,,,,,,,,,,,,,,,,,,,,,,,,,,,,,,,,,,,,,,,,e,1,0.7562,0,34,34,14,1,乐观,e,,,,,,,,,,,,
,,,,,,,,,,,,,,yangling,001,2025-01-08_17h41.49.210,IAT(Formal),2021.2.3,Win32,59.87306909,,,,,,,,,,,,,,,,,,,,,,,,,,,,,,,,,,,,,,,,,,,,e,1,0.7509,0,35,35,76,1,他们,e,,,,,,,,,,,,
,,,,,,,,,,,,,,yangling,001,2025-01-08_17h41.49.210,IAT(Formal),2021.2.3,Win32,59.87306909,,,,,,,,,,,,,,,,,,,,,,,,,,,,,,,,,,,,,,,,,,,,e,1,0.5676,0,36,36,13,1,杰出,e,,,,,,,,,,,,
,,,,,,,,,,,,,,yangling,001,2025-01-08_17h41.49.210,IAT(Formal),2021.2.3,Win32,59.87306909,,,,,,,,,,,,,,,,,,,,,,,,,,,,,,,,,,,,,,,,,,,,e,1,0.6004,0,37,37,57,1,他的,e,,,,,,,,,,,,
,,,,,,,,,,,,,,yangling,001,2025-01-08_17h41.49.210,IAT(Formal),2021.2.3,Win32,59.87306909,,,,,,,,,,,,,,,,,,,,,,,,,,,,,,,,,,,,,,,,,,,,,0,,0,38,38,10,1,优秀,e,,,,,,,,,,,,
,,,,,,,,,,,,,,yangling,001,2025-01-08_17h41.49.210,IAT(Formal),2021.2.3,Win32,59.87306909,,,,,,,,,,,,,,,,,,,,,,,,,,,,,,,,,,,,,,,,,,,,e,0,0.8672,0,39,39,73,1,自己,i,,,,,,,,,,,,
,,,,,,,,,,,,,,yangling,001,2025-01-08_17h41.49.210,IAT(Formal),2021.2.3,Win32,59.87306909,,,,,,,,,,,,,,,,,,,,,,,,,,,,,,,,,,,,,,,,,,,,i,0,0.0008,0,40,40,22,1,无私,e,,,,,,,,,,,,
,,,,,,,,,,,,,,yangling,001,2025-01-08_17h41.49.210,IAT(Formal),2021.2.3,Win32,59.87306909,,,,,,,,,,,,,,,,,,,,,,,,,,,,,,,,,,,,,,,,,,,,i,1,0.1174,0,41,41,46,1,野蛮,i,,,,,,,,,,,,
,,,,,,,,,,,,,,yangling,001,2025-01-08_17h41.49.210,IAT(Formal),2021.2.3,Win32,59.87306909,,,,,,,,,,,,,,,,,,,,,,,,,,,,,,,,,,,,,,,,,,,,i,1,0.0845,0,42,42,3,1,自己,i,,,,,,,,,,,,
,,,,,,,,,,,,,,yangling,001,2025-01-08_17h41.49.210,IAT(Formal),2021.2.3,Win32,59.87306909,,,,,,,,,,,,,,,,,,,,,,,,,,,,,,,,,,,,,,,,,,,,i,1,0.1005,0,43,43,1,1,我的,i,,,,,,,,,,,,
,,,,,,,,,,,,,,yangling,001,2025-01-08_17h41.49.210,IAT(Formal),2021.2.3,Win32,59.87306909,,,,,,,,,,,,,,,,,,,,,,,,,,,,,,,,,,,,,,,,,,,,i,0,0.0682,0,44,44,68,1,他人,e,,,,,,,,,,,,
,,,,,,,,,,,,,,yangling,001,2025-01-08_17h41.49.210,IAT(Formal),2021.2.3,Win32,59.87306909,,,,,,,,,,,,,,,,,,,,,,,,,,,,,,,,,,,,,,,,,,,,i,0,0.0175,0,45,45,25,1,细腻,e,,,,,,,,,,,,
,,,,,,,,,,,,,,yangling,001,2025-01-08_17h41.49.210,IAT(Formal),2021.2.3,Win32,59.87306909,,,,,,,,,,,,,,,,,,,,,,,,,,,,,,,,,,,,,,,,,,,,i,0,0.0481,0,46,46,11,1,崇高,e,,,,,,,,,,,,
,,,,,,,,,,,,,,yangling,001,2025-01-08_17h41.49.210,IAT(Formal),2021.2.3,Win32,59.87306909,,,,,,,,,,,,,,,,,,,,,,,,,,,,,,,,,,,,,,,,,,,,i,1,0.0844,0,47,47,37,1,傲慢,i,,,,,,,,,,,,
,,,,,,,,,,,,,,yangling,001,2025-01-08_17h41.49.210,IAT(Formal),2021.2.3,Win32,59.87306909,,,,,,,,,,,,,,,,,,,,,,,,,,,,,,,,,,,,,,,,,,,,i,0,0.1672,0,48,48,69,1,其他,e,,,,,,,,,,,,
,,,,,,,,,,,,,,yangling,001,2025-01-08_17h41.49.210,IAT(Formal),2021.2.3,Win32,59.87306909,,,,,,,,,,,,,,,,,,,,,,,,,,,,,,,,,,,,,,,,,,,,i,1,0.0148,0,49,49,52,1,我们,i,,,,,,,,,,,,
,,,,,,,,,,,,,,yangling,001,2025-01-08_17h41.49.210,IAT(Formal),2021.2.3,Win32,59.87306909,,,,,,,,,,,,,,,,,,,,,,,,,,,,,,,,,,,,,,,,,,,,i,1,0.1668,0,50,50,42,1,凶狠,i,,,,,,,,,,,,
,,,,,,,,,,,,,,yangling,001,2025-01-08_17h41.49.210,IAT(Formal),2021.2.3,Win32,59.87306909,,,,,,,,,,,,,,,,,,,,,,,,,,,,,,,,,,,,,,,,,,,,i,1,0.031,0,51,51,38,1,鲁莽,i,,,,,,,,,,,,
,,,,,,,,,,,,,,yangling,001,2025-01-08_17h41.49.210,IAT(Formal),2021.2.3,Win32,59.87306909,,,,,,,,,,,,,,,,,,,,,,,,,,,,,,,,,,,,,,,,,,,,i,1,0.0812,0,52,52,2,1,我们,i,,,,,,,,,,,,
,,,,,,,,,,,,,,yangling,001,2025-01-08_17h41.49.210,IAT(Formal),2021.2.3,Win32,59.87306909,,,,,,,,,,,,,,,,,,,,,,,,,,,,,,,,,,,,,,,,,,,,i,0,0.0174,0,53,53,15,1,诚实,e,,,,,,,,,,,,
,,,,,,,,,,,,,,yangling,001,2025-01-08_17h41.49.210,IAT(Formal),2021.2.3,Win32,59.87306909,,,,,,,,,,,,,,,,,,,,,,,,,,,,,,,,,,,,,,,,,,,,i,1,0.1007,0,54,54,39,1,冒失,i,,,,,,,,,,,,
,,,,,,,,,,,,,,yangling,001,2025-01-08_17h41.49.210,IAT(Formal),2021.2.3,Win32,59.87306909,,,,,,,,,,,,,,,,,,,,,,,,,,,,,,,,,,,,,,,,,,,,i,0,0.0174,0,55,55,26,1,冷静,e,,,,,,,,,,,,
,,,,,,,,,,,,,,yangling,001,2025-01-08_17h41.49.210,IAT(Formal),2021.2.3,Win32,59.87306909,,,,,,,,,,,,,,,,,,,,,,,,,,,,,,,,,,,,,,,,,,,,i,0,0.0484,0,56,56,75,1,他,e,,,,,,,,,,,,
,,,,,,,,,,,,,,yangling,001,2025-01-08_17h41.49.210,IAT(Formal),2021.2.3,Win32,59.87306909,,,,,,,,,,,,,,,,,,,,,,,,,,,,,,,,,,,,,,,,,,,,i,1,0.1376,0,57,57,40,1,执拗,i,,,,,,,,,,,,
,,,,,,,,,,,,,,yangling,001,2025-01-08_17h41.49.210,IAT(Formal),2021.2.3,Win32,59.87306909,,,,,,,,,,,,,,,,,,,,,,,,,,,,,,,,,,,,,,,,,,,,i,0,0.0162,0,58,58,18,1,勤奋,e,,,,,,,,,,,,
,,,,,,,,,,,,,,yangling,001,2025-01-08_17h41.49.210,IAT(Formal),2021.2.3,Win32,59.87306909,,,,,,,,,,,,,,,,,,,,,,,,,,,,,,,,,,,,,,,,,,,,i,0,0.0345,0,59,59,65,1,他,e,,,,,,,,,,,,
,,,,,,,,,,,,,,yangling,001,2025-01-08_17h41.49.210,IAT(Formal),2021.2.3,Win32,59.87306909,,,,,,,,,,,,,,,,,,,,,,,,,,,,,,,,,,,,,,,,,,,,i,0,0.0981,0,60,60,20,1,认真,e,,,,,,,,,,,,
,,,,,,,,,,,,,,yangling,001,2025-01-08_17h41.49.210,IAT(Formal),2021.2.3,Win32,59.87306909,,,,,,,,,,,,,,,,,,,,,,,,,,,,,,,,,,,,,,,,,,,,i,1,0.0836,0,61,61,63,1,自己,i,,,,,,,,,,,,
,,,,,,,,,,,,,,yangling,001,2025-01-08_17h41.49.210,IAT(Formal),2021.2.3,Win32,59.87306909,,,,,,,,,,,,,,,,,,,,,,,,,,,,,,,,,,,,,,,,,,,,i,0,0.1559,0,62,62,78,1,他人,e,,,,,,,,,,,,
,,,,,,,,,,,,,,yangling,001,2025-01-08_17h41.49.210,IAT(Formal),2021.2.3,Win32,59.87306909,,,,,,,,,,,,,,,,,,,,,,,,,,,,,,,,,,,,,,,,,,,,i,1,0.0815,0,63,63,4,1,俺,i,,,,,,,,,,,,
,,,,,,,,,,,,,,yangling,001,2025-01-08_17h41.49.210,IAT(Formal),2021.2.3,Win32,59.87306909,,,,,,,,,,,,,,,,,,,,,,,,,,,,,,,,,,,,,,,,,,,,i,1,0.0167,0,64,64,53,1,自己,i,,,,,,,,,,,,
,,,,,,,,,,,,,,yangling,001,2025-01-08_17h41.49.210,IAT(Formal),2021.2.3,Win32,59.87306909,,,,,,,,,,,,,,,,,,,,,,,,,,,,,,,,,,,,,,,,,,,,i,0,0.0523,0,65,65,77,1,他的,e,,,,,,,,,,,,
,,,,,,,,,,,,,,yangling,001,2025-01-08_17h41.49.210,IAT(Formal),2021.2.3,Win32,59.87306909,,,,,,,,,,,,,,,,,,,,,,,,,,,,,,,,,,,,,,,,,,,,i,1,0.0811,0,66,66,44,1,暴躁,i,,,,,,,,,,,,
,,,,,,,,,,,,,,yangling,001,2025-01-08_17h41.49.210,IAT(Formal),2021.2.3,Win32,59.87306909,,,,,,,,,,,,,,,,,,,,,,,,,,,,,,,,,,,,,,,,,,,,i,0,0.0859,0,67,67,8,1,他人,e,,,,,,,,,,,,
,,,,,,,,,,,,,,yangling,001,2025-01-08_17h41.49.210,IAT(Formal),2021.2.3,Win32,59.87306909,,,,,,,,,,,,,,,,,,,,,,,,,,,,,,,,,,,,,,,,,,,,i,1,0.0379,0,68,68,54,1,俺,i,,,,,,,,,,,,
,,,,,,,,,,,,,,yangling,001,2025-01-08_17h41.49.210,IAT(Formal),2021.2.3,Win32,59.87306909,,,,,,,,,,,,,,,,,,,,,,,,,,,,,,,,,,,,,,,,,,,,i,1,0.1647,0,69,69,48,1,轻率,i,,,,,,,,,,,,
,,,,,,,,,,,,,,yangling,001,2025-01-08_17h41.49.210,IAT(Formal),2021.2.3,Win32,59.87306909,,,,,,,,,,,,,,,,,,,,,,,,,,,,,,,,,,,,,,,,,,,,i,0,0.0525,0,70,70,9,1,其他,e,,,,,,,,,,,,
,,,,,,,,,,,,,,yangling,001,2025-01-08_17h41.49.210,IAT(Formal),2021.2.3,Win32,59.87306909,,,,,,,,,,,,,,,,,,,,,,,,,,,,,,,,,,,,,,,,,,,,i,0,0.1477,0,71,71,59,1,其他,e,,,,,,,,,,,,
,,,,,,,,,,,,,,yangling,001,2025-01-08_17h41.49.210,IAT(Formal),2021.2.3,Win32,59.87306909,,,,,,,,,,,,,,,,,,,,,,,,,,,,,,,,,,,,,,,,,,,,i,0,0.0509,0,72,72,16,1,正直,e,,,,,,,,,,,,
,,,,,,,,,,,,,,yangling,001,2025-01-08_17h41.49.210,IAT(Formal),2021.2.3,Win32,59.87306909,,,,,,,,,,,,,,,,,,,,,,,,,,,,,,,,,,,,,,,,,,,,i,1,0.1342,0,73,73,60,1,我,i,,,,,,,,,,,,
,,,,,,,,,,,,,,yangling,001,2025-01-08_17h41.49.210,IAT(Formal),2021.2.3,Win32,59.87306909,,,,,,,,,,,,,,,,,,,,,,,,,,,,,,,,,,,,,,,,,,,,i,0,0.0007,0,74,74,29,1,诚恳,e,,,,,,,,,,,,
,,,,,,,,,,,,,,yangling,001,2025-01-08_17h41.49.210,IAT(Formal),2021.2.3,Win32,59.87306909,,,,,,,,,,,,,,,,,,,,,,,,,,,,,,,,,,,,,,,,,,,,i,1,0.1046,0,75,75,32,1,愚蠢,i,,,,,,,,,,,,
,,,,,,,,,,,,,,yangling,001,2025-01-08_17h41.49.210,IAT(Formal),2021.2.3,Win32,59.87306909,,,,,,,,,,,,,,,,,,,,,,,,,,,,,,,,,,,,,,,,,,,,i,1,0.1179,0,76,76,64,1,俺,i,,,,,,,,,,,,
,,,,,,,,,,,,,,yangling,001,2025-01-08_17h41.49.210,IAT(Formal),2021.2.3,Win32,59.87306909,,,,,,,,,,,,,,,,,,,,,,,,,,,,,,,,,,,,,,,,,,,,i,1,0.2235,0,77,77,61,1,我的,i,,,,,,,,,,,,
,,,,,,,,,,,,,,yangling,001,2025-01-08_17h41.49.210,IAT(Formal),2021.2.3,Win32,59.87306909,,,,,,,,,,,,,,,,,,,,,,,,,,,,,,,,,,,,,,,,,,,,i,0,0.2735,0,78,78,55,1,他,e,,,,,,,,,,,,
,,,,,,,,,,,,,,yangling,001,2025-01-08_17h41.49.210,IAT(Formal),2021.2.3,Win32,59.87306909,,,,,,,,,,,,,,,,,,,,,,,,,,,,,,,,,,,,,,,,,,,,i,1,0.0838,0,79,79,31,1,虚伪,i,,,,,,,,,,,,
,,,,,,,,,,,,,,yangling,001,2025-01-08_17h41.49.210,IAT(Formal),2021.2.3,Win32,59.87306909,,,,,,,,,,,,,,,,,,,,,,,,,,,,,,,,,,,,,,,,,,,,,,,,,,,,我们,i,space,6.9389,i,1,0.6671,0,0,0,52,1,,
,,,,,,,,,,,,,,yangling,001,2025-01-08_17h41.49.210,IAT(Formal),2021.2.3,Win32,59.87306909,,,,,,,,,,,,,,,,,,,,,,,,,,,,,,,,,,,,,,,,,,,,,,,,,,,,勤奋,e,,,i,0,0.007,0,1,1,18,1,,
,,,,,,,,,,,,,,yangling,001,2025-01-08_17h41.49.210,IAT(Formal),2021.2.3,Win32,59.87306909,,,,,,,,,,,,,,,,,,,,,,,,,,,,,,,,,,,,,,,,,,,,,,,,,,,,暴躁,i,,,i,1,0.084,0,2,2,44,1,,
,,,,,,,,,,,,,,yangling,001,2025-01-08_17h41.49.210,IAT(Formal),2021.2.3,Win32,59.87306909,,,,,,,,,,,,,,,,,,,,,,,,,,,,,,,,,,,,,,,,,,,,,,,,,,,,猖狂,i,,,i,1,0.0006,0,3,3,45,1,,
,,,,,,,,,,,,,,yangling,001,2025-01-08_17h41.49.210,IAT(Formal),2021.2.3,Win32,59.87306909,,,,,,,,,,,,,,,,,,,,,,,,,,,,,,,,,,,,,,,,,,,,,,,,,,,,愚蠢,i,,,i,1,0.088,0,4,4,32,1,,
,,,,,,,,,,,,,,yangling,001,2025-01-08_17h41.49.210,IAT(Formal),2021.2.3,Win32,59.87306909,,,,,,,,,,,,,,,,,,,,,,,,,,,,,,,,,,,,,,,,,,,,,,,,,,,,我,i,,,i,1,0.0065,0,5,5,70,1,,
,,,,,,,,,,,,,,yangling,001,2025-01-08_17h41.49.210,IAT(Formal),2021.2.3,Win32,59.87306909,,,,,,,,,,,,,,,,,,,,,,,,,,,,,,,,,,,,,,,,,,,,,,,,,,,,他,e,,,i,0,0.1513,0,6,6,65,1,,
,,,,,,,,,,,,,,yangling,001,2025-01-08_17h41.49.210,IAT(Formal),2021.2.3,Win32,59.87306909,,,,,,,,,,,,,,,,,,,,,,,,,,,,,,,,,,,,,,,,,,,,,,,,,,,,细腻,e,,,i,0,0.1512,0,7,7,25,1,,
,,,,,,,,,,,,,,yangling,001,2025-01-08_17h41.49.210,IAT(Formal),2021.2.3,Win32,59.87306909,,,,,,,,,,,,,,,,,,,,,,,,,,,,,,,,,,,,,,,,,,,,,,,,,,,,下贱,i,,,i,1,0.1843,0,8,8,49,1,,
,,,,,,,,,,,,,,yangling,001,2025-01-08_17h41.49.210,IAT(Formal),2021.2.3,Win32,59.87306909,,,,,,,,,,,,,,,,,,,,,,,,,,,,,,,,,,,,,,,,,,,,,,,,,,,,他人,e,,,i,0,0.1006,0,9,9,8,1,,
,,,,,,,,,,,,,,yangling,001,2025-01-08_17h41.49.210,IAT(Formal),2021.2.3,Win32,59.87306909,,,,,,,,,,,,,,,,,,,,,,,,,,,,,,,,,,,,,,,,,,,,,,,,,,,,机智,e,,,i,0,0.1543,0,10,10,19,1,,
,,,,,,,,,,,,,,yangling,001,2025-01-08_17h41.49.210,IAT(Formal),2021.2.3,Win32,59.87306909,,,,,,,,,,,,,,,,,,,,,,,,,,,,,,,,,,,,,,,,,,,,,,,,,,,,我,i,,,i,1,0.1505,0,11,11,50,1,,
,,,,,,,,,,,,,,yangling,001,2025-01-08_17h41.49.210,IAT(Formal),2021.2.3,Win32,59.87306909,,,,,,,,,,,,,,,,,,,,,,,,,,,,,,,,,,,,,,,,,,,,,,,,,,,,他的,e,,,i,0,0.8365,0,12,12,57,1,,
,,,,,,,,,,,,,,yangling,001,2025-01-08_17h41.49.210,IAT(Formal),2021.2.3,Win32,59.87306909,,,,,,,,,,,,,,,,,,,,,,,,,,,,,,,,,,,,,,,,,,,,,,,,,,,,刻薄,i,,,i,1,0.3172,0,13,13,33,1,,
,,,,,,,,,,,,,,yangling,001,2025-01-08_17h41.49.210,IAT(Formal),2021.2.3,Win32,59.87306909,,,,,,,,,,,,,,,,,,,,,,,,,,,,,,,,,,,,,,,,,,,,,,,,,,,,悲观,i,,,i,1,0.7346,0,14,14,34,1,,
,,,,,,,,,,,,,,yangling,001,2025-01-08_17h41.49.210,IAT(Formal),2021.2.3,Win32,59.87306909,,,,,,,,,,,,,,,,,,,,,,,,,,,,,,,,,,,,,,,,,,,,,,,,,,,,冒失,i,,,i,1,0.0038,0,15,15,39,1,,
,,,,,,,,,,,,,,yangling,001,2025-01-08_17h41.49.210,IAT(Formal),2021.2.3,Win32,59.87306909,,,,,,,,,,,,,,,,,,,,,,,,,,,,,,,,,,,,,,,,,,,,,,,,,,,,其他,e,,,i,0,0.034,0,16,16,9,1,,
,,,,,,,,,,,,,,yangling,001,2025-01-08_17h41.49.210,IAT(Formal),2021.2.3,Win32,59.87306909,,,,,,,,,,,,,,,,,,,,,,,,,,,,,,,,,,,,,,,,,,,,,,,,,,,,自己,i,,,i,1,0.201,0,17,17,53,1,,
,,,,,,,,,,,,,,yangling,001,2025-01-08_17h41.49.210,IAT(Formal),2021.2.3,Win32,59.87306909,,,,,,,,,,,,,,,,,,,,,,,,,,,,,,,,,,,,,,,,,,,,,,,,,,,,我,i,,,i,1,0.0207,0,18,18,60,1,,
,,,,,,,,,,,,,,yangling,001,2025-01-08_17h41.49.210,IAT(Formal),2021.2.3,Win32,59.87306909,,,,,,,,,,,,,,,,,,,,,,,,,,,,,,,,,,,,,,,,,,,,,,,,,,,,诚实,e,,,i,0,0.1336,0,19,19,15,1,,
,,,,,,,,,,,,,,yangling,001,2025-01-08_17h41.49.210,IAT(Formal),2021.2.3,Win32,59.87306909,,,,,,,,,,,,,,,,,,,,,,,,,,,,,,,,,,,,,,,,,,,,,,,,,,,,我们,i,,,i,1,0.3894,0,20,20,2,1,,
,,,,,,,,,,,,,,yangling,001,2025-01-08_17h41.49.210,IAT(Formal),2021.2.3,Win32,59.87306909,,,,,,,,,,,,,,,,,,,,,,,,,,,,,,,,,,,,,,,,,,,,,,,,,,,,其他,e,,,i,0,0.2337,0,21,21,69,1,,
,,,,,,,,,,,,,,yangling,001,2025-01-08_17h41.49.210,IAT(Formal),2021.2.3,Win32,59.87306909,,,,,,,,,,,,,,,,,,,,,,,,,,,,,,,,,,,,,,,,,,,,,,,,,,,,凶狠,i,,,i,1,0.0007,0,22,22,42,1,,
,,,,,,,,,,,,,,yangling,001,2025-01-08_17h41.49.210,IAT(Formal),2021.2.3,Win32,59.87306909,,,,,,,,,,,,,,,,,,,,,,,,,,,,,,,,,,,,,,,,,,,,,,,,,,,,认真,e,,,i,0,0.0869,0,23,23,20,1,,
,,,,,,,,,,,,,,yangling,001,2025-01-08_17h41.49.210,IAT(Formal),2021.2.3,Win32,59.87306909,,,,,,,,,,,,,,,,,,,,,,,,,,,,,,,,,,,,,,,,,,,,,,,,,,,,诚恳,e,,,i,0,0.116,0,24,24,29,1,,
,,,,,,,,,,,,,,yangling,001,2025-01-08_17h41.49.210,IAT(Formal),2021.2.3,Win32,59.87306909,,,,,,,,,,,,,,,,,,,,,,,,,,,,,,,,,,,,,,,,,,,,,,,,,,,,他的,e,,,i,0,0.151,0,25,25,67,1,,
,,,,,,,,,,,,,,yangling,001,2025-01-08_17h41.49.210,IAT(Formal),2021.2.3,Win32,59.87306909,,,,,,,,,,,,,,,,,,,,,,,,,,,,,,,,,,,,,,,,,,,,,,,,,,,,公正,e,,,i,0,0.6006,0,26,26,23,1,,
,,,,,,,,,,,,,,yangling,001,2025-01-08_17h41.49.210,IAT(Formal),2021.2.3,Win32,59.87306909,,,,,,,,,,,,,,,,,,,,,,,,,,,,,,,,,,,,,,,,,,,,,,,,,,,,我的,i,,,i,1,0.1343,0,27,27,51,1,,
,,,,,,,,,,,,,,yangling,001,2025-01-08_17h41.49.210,IAT(Formal),2021.2.3,Win32,59.87306909,,,,,,,,,,,,,,,,,,,,,,,,,,,,,,,,,,,,,,,,,,,,,,,,,,,,稳重,e,,,i,0,0.3178,0,28,28,21,1,,
,,,,,,,,,,,,,,yangling,001,2025-01-08_17h41.49.210,IAT(Formal),2021.2.3,Win32,59.87306909,,,,,,,,,,,,,,,,,,,,,,,,,,,,,,,,,,,,,,,,,,,,,,,,,,,,执拗,i,,,i,1,0.1841,0,29,29,40,1,,
,,,,,,,,,,,,,,yangling,001,2025-01-08_17h41.49.210,IAT(Formal),2021.2.3,Win32,59.87306909,,,,,,,,,,,,,,,,,,,,,,,,,,,,,,,,,,,,,,,,,,,,,,,,,,,,我的,i,,,i,1,0.0873,0,30,30,71,1,,
,,,,,,,,,,,,,,yangling,001,2025-01-08_17h41.49.210,IAT(Formal),2021.2.3,Win32,59.87306909,,,,,,,,,,,,,,,,,,,,,,,,,,,,,,,,,,,,,,,,,,,,,,,,,,,,他们,e,,,i,0,0.0506,0,31,31,76,1,,
,,,,,,,,,,,,,,yangling,001,2025-01-08_17h41.49.210,IAT(Formal),2021.2.3,Win32,59.87306909,,,,,,,,,,,,,,,,,,,,,,,,,,,,,,,,,,,,,,,,,,,,,,,,,,,,自己,i,,,i,1,0.289,0,32,32,3,1,,
,,,,,,,,,,,,,,yangling,001,2025-01-08_17h41.49.210,IAT(Formal),2021.2.3,Win32,59.87306909,,,,,,,,,,,,,,,,,,,,,,,,,,,,,,,,,,,,,,,,,,,,,,,,,,,,我,i,,,i,1,0.0339,0,33,33,0,1,,
,,,,,,,,,,,,,,yangling,001,2025-01-08_17h41.49.210,IAT(Formal),2021.2.3,Win32,59.87306909,,,,,,,,,,,,,,,,,,,,,,,,,,,,,,,,,,,,,,,,,,,,,,,,,,,,他们,e,,,i,0,0.1868,0,34,34,56,1,,
,,,,,,,,,,,,,,yangling,001,2025-01-08_17h41.49.210,IAT(Formal),2021.2.3,Win32,59.87306909,,,,,,,,,,,,,,,,,,,,,,,,,,,,,,,,,,,,,,,,,,,,,,,,,,,,我的,i,,,i,1,0.0839,0,35,35,61,1,,
,,,,,,,,,,,,,,yangling,001,2025-01-08_17h41.49.210,IAT(Formal),2021.2.3,Win32,59.87306909,,,,,,,,,,,,,,,,,,,,,,,,,,,,,,,,,,,,,,,,,,,,,,,,,,,,无私,e,,,i,0,0.0174,0,36,36,22,1,,
,,,,,,,,,,,,,,yangling,001,2025-01-08_17h41.49.210,IAT(Formal),2021.2.3,Win32,59.87306909,,,,,,,,,,,,,,,,,,,,,,,,,,,,,,,,,,,,,,,,,,,,,,,,,,,,自己,i,,,i,1,0.1678,0,37,37,73,1,,
,,,,,,,,,,,,,,yangling,001,2025-01-08_17h41.49.210,IAT(Formal),2021.2.3,Win32,59.87306909,,,,,,,,,,,,,,,,,,,,,,,,,,,,,,,,,,,,,,,,,,,,,,,,,,,,他,e,,,i,0,0.1661,0,38,38,75,1,,
,,,,,,,,,,,,,,yangling,001,2025-01-08_17h41.49.210,IAT(Formal),2021.2.3,Win32,59.87306909,,,,,,,,,,,,,,,,,,,,,,,,,,,,,,,,,,,,,,,,,,,,,,,,,,,,他,e,,,i,0,1.2043,0,39,39,5,1,,
,,,,,,,,,,,,,,yangling,001,2025-01-08_17h41.49.210,IAT(Formal),2021.2.3,Win32,59.87306909,,,,,,,,,,,,,,,,,,,,,,,,,,,,,,,,,,,,,,,,,,,,,,,,,,,,他人,e,,,i,0,0.0342,0,40,40,68,1,,
,,,,,,,,,,,,,,yangling,001,2025-01-08_17h41.49.210,IAT(Formal),2021.2.3,Win32,59.87306909,,,,,,,,,,,,,,,,,,,,,,,,,,,,,,,,,,,,,,,,,,,,,,,,,,,,鲁莽,i,,,i,1,0.0511,0,41,41,38,1,,
,,,,,,,,,,,,,,yangling,001,2025-01-08_17h41.49.210,IAT(Formal),2021.2.3,Win32,59.87306909,,,,,,,,,,,,,,,,,,,,,,,,,,,,,,,,,,,,,,,,,,,,,,,,,,,,崇高,e,,,i,0,0.0672,0,42,42,11,1,,
,,,,,,,,,,,,,,yangling,001,2025-01-08_17h41.49.210,IAT(Formal),2021.2.3,Win32,59.87306909,,,,,,,,,,,,,,,,,,,,,,,,,,,,,,,,,,,,,,,,,,,,,,,,,,,,他们,e,,,i,0,0.1684,0,43,43,6,1,,
,,,,,,,,,,,,,,yangling,001,2025-01-08_17h41.49.210,IAT(Formal),2021.2.3,Win32,59.87306909,,,,,,,,,,,,,,,,,,,,,,,,,,,,,,,,,,,,,,,,,,,,,,,,,,,,傲慢,i,,,i,1,0.0341,0,44,44,37,1,,
,,,,,,,,,,,,,,yangling,001,2025-01-08_17h41.49.210,IAT(Formal),2021.2.3,Win32,59.87306909,,,,,,,,,,,,,,,,,,,,,,,,,,,,,,,,,,,,,,,,,,,,,,,,,,,,其他,e,,,i,0,0.0676,0,45,45,59,1,,
,,,,,,,,,,,,,,yangling,001,2025-01-08_17h41.49.210,IAT(Formal),2021.2.3,Win32,59.87306909,,,,,,,,,,,,,,,,,,,,,,,,,,,,,,,,,,,,,,,,,,,,,,,,,,,,他的,e,,,i,0,0.1065,0,46,46,7,1,,
,,,,,,,,,,,,,,yangling,001,2025-01-08_17h41.49.210,IAT(Formal),2021.2.3,Win32,59.87306909,,,,,,,,,,,,,,,,,,,,,,,,,,,,,,,,,,,,,,,,,,,,,,,,,,,,我的,i,,,i,1,0.1007,0,47,47,1,1,,
,,,,,,,,,,,,,,yangling,001,2025-01-08_17h41.49.210,IAT(Formal),2021.2.3,Win32,59.87306909,,,,,,,,,,,,,,,,,,,,,,,,,,,,,,,,,,,,,,,,,,,,,,,,,,,,固执,i,,,i,1,0.1013,0,48,48,47,1,,
,,,,,,,,,,,,,,yangling,001,2025-01-08_17h41.49.210,IAT(Formal),2021.2.3,Win32,59.87306909,,,,,,,,,,,,,,,,,,,,,,,,,,,,,,,,,,,,,,,,,,,,,,,,,,,,自私,i,,,i,1,0.1174,0,49,49,43,1,,
,,,,,,,,,,,,,,yangling,001,2025-01-08_17h41.49.210,IAT(Formal),2021.2.3,Win32,59.87306909,,,,,,,,,,,,,,,,,,,,,,,,,,,,,,,,,,,,,,,,,,,,,,,,,,,,卑鄙,i,,,i,1,0.1678,0,50,50,30,1,,
,,,,,,,,,,,,,,yangling,001,2025-01-08_17h41.49.210,IAT(Formal),2021.2.3,Win32,59.87306909,,,,,,,,,,,,,,,,,,,,,,,,,,,,,,,,,,,,,,,,,,,,,,,,,,,,俺,i,,,i,1,0.0007,0,51,51,64,1,,
,,,,,,,,,,,,,,yangling,001,2025-01-08_17h41.49.210,IAT(Formal),2021.2.3,Win32,59.87306909,,,,,,,,,,,,,,,,,,,,,,,,,,,,,,,,,,,,,,,,,,,,,,,,,,,,俺,i,,,i,1,0.0643,0,52,52,74,1,,
,,,,,,,,,,,,,,yangling,001,2025-01-08_17h41.49.210,IAT(Formal),2021.2.3,Win32,59.87306909,,,,,,,,,,,,,,,,,,,,,,,,,,,,,,,,,,,,,,,,,,,,,,,,,,,,乐观,e,,,i,0,0.1232,0,53,53,14,1,,
,,,,,,,,,,,,,,yangling,001,2025-01-08_17h41.49.210,IAT(Formal),2021.2.3,Win32,59.87306909,,,,,,,,,,,,,,,,,,,,,,,,,,,,,,,,,,,,,,,,,,,,,,,,,,,,活泼,e,,,i,0,0.1505,0,54,54,28,1,,
,,,,,,,,,,,,,,yangling,001,2025-01-08_17h41.49.210,IAT(Formal),2021.2.3,Win32,59.87306909,,,,,,,,,,,,,,,,,,,,,,,,,,,,,,,,,,,,,,,,,,,,,,,,,,,,俺,i,,,i,1,0.2153,0,55,55,54,1,,
,,,,,,,,,,,,,,yangling,001,2025-01-08_17h41.49.210,IAT(Formal),2021.2.3,Win32,59.87306909,,,,,,,,,,,,,,,,,,,,,,,,,,,,,,,,,,,,,,,,,,,,,,,,,,,,其他,e,,,i,0,0.1842,0,56,56,79,1,,
,,,,,,,,,,,,,,yangling,001,2025-01-08_17h41.49.210,IAT(Formal),2021.2.3,Win32,59.87306909,,,,,,,,,,,,,,,,,,,,,,,,,,,,,,,,,,,,,,,,,,,,,,,,,,,,我们,i,,,i,1,0.2005,0,57,57,62,1,,
,,,,,,,,,,,,,,yangling,001,2025-01-08_17h41.49.210,IAT(Formal),2021.2.3,Win32,59.87306909,,,,,,,,,,,,,,,,,,,,,,,,,,,,,,,,,,,,,,,,,,,,,,,,,,,,他们,e,,,i,0,0.7058,0,58,58,66,1,,
,,,,,,,,,,,,,,yangling,001,2025-01-08_17h41.49.210,IAT(Formal),2021.2.3,Win32,59.87306909,,,,,,,,,,,,,,,,,,,,,,,,,,,,,,,,,,,,,,,,,,,,,,,,,,,,杰出,e,,,i,0,0.074,0,59,59,13,1,,
,,,,,,,,,,,,,,yangling,001,2025-01-08_17h41.49.210,IAT(Formal),2021.2.3,Win32,59.87306909,,,,,,,,,,,,,,,,,,,,,,,,,,,,,,,,,,,,,,,,,,,,,,,,,,,,他的,e,,,i,0,0.1501,0,60,60,77,1,,
,,,,,,,,,,,,,,yangling,001,2025-01-08_17h41.49.210,IAT(Formal),2021.2.3,Win32,59.87306909,,,,,,,,,,,,,,,,,,,,,,,,,,,,,,,,,,,,,,,,,,,,,,,,,,,,散漫,i,,,i,1,0.0174,0,61,61,41,1,,
,,,,,,,,,,,,,,yangling,001,2025-01-08_17h41.49.210,IAT(Formal),2021.2.3,Win32,59.87306909,,,,,,,,,,,,,,,,,,,,,,,,,,,,,,,,,,,,,,,,,,,,,,,,,,,,朴实,e,,,i,0,0.1673,0,62,62,24,1,,
,,,,,,,,,,,,,,yangling,001,2025-01-08_17h41.49.210,IAT(Formal),2021.2.3,Win32,59.87306909,,,,,,,,,,,,,,,,,,,,,,,,,,,,,,,,,,,,,,,,,,,,,,,,,,,,冷静,e,,,i,0,0.2385,0,63,63,26,1,,
,,,,,,,,,,,,,,yangling,001,2025-01-08_17h41.49.210,IAT(Formal),2021.2.3,Win32,59.87306909,,,,,,,,,,,,,,,,,,,,,,,,,,,,,,,,,,,,,,,,,,,,,,,,,,,,轻率,i,,,i,1,0.1205,0,64,64,48,1,,
,,,,,,,,,,,,,,yangling,001,2025-01-08_17h41.49.210,IAT(Formal),2021.2.3,Win32,59.87306909,,,,,,,,,,,,,,,,,,,,,,,,,,,,,,,,,,,,,,,,,,,,,,,,,,,,勇敢,e,,,i,0,0.2148,0,65,65,17,1,,
,,,,,,,,,,,,,,yangling,001,2025-01-08_17h41.49.210,IAT(Formal),2021.2.3,Win32,59.87306909,,,,,,,,,,,,,,,,,,,,,,,,,,,,,,,,,,,,,,,,,,,,,,,,,,,,热情,e,,,i,0,0.2173,0,66,66,27,1,,
,,,,,,,,,,,,,,yangling,001,2025-01-08_17h41.49.210,IAT(Formal),2021.2.3,Win32,59.87306909,,,,,,,,,,,,,,,,,,,,,,,,,,,,,,,,,,,,,,,,,,,,,,,,,,,,我们,i,,,i,1,0.6505,0,67,67,72,1,,
,,,,,,,,,,,,,,yangling,001,2025-01-08_17h41.49.210,IAT(Formal),2021.2.3,Win32,59.87306909,,,,,,,,,,,,,,,,,,,,,,,,,,,,,,,,,,,,,,,,,,,,,,,,,,,,自卑,i,,,i,1,0.198,0,68,68,36,1,,
,,,,,,,,,,,,,,yangling,001,2025-01-08_17h41.49.210,IAT(Formal),2021.2.3,Win32,59.87306909,,,,,,,,,,,,,,,,,,,,,,,,,,,,,,,,,,,,,,,,,,,,,,,,,,,,消极,i,,,i,1,0.2345,0,69,69,35,1,,
,,,,,,,,,,,,,,yangling,001,2025-01-08_17h41.49.210,IAT(Formal),2021.2.3,Win32,59.87306909,,,,,,,,,,,,,,,,,,,,,,,,,,,,,,,,,,,,,,,,,,,,,,,,,,,,他人,e,,,i,0,0.1508,0,70,70,78,1,,
,,,,,,,,,,,,,,yangling,001,2025-01-08_17h41.49.210,IAT(Formal),2021.2.3,Win32,59.87306909,,,,,,,,,,,,,,,,,,,,,,,,,,,,,,,,,,,,,,,,,,,,,,,,,,,,野蛮,i,,,i,1,0.1991,0,71,71,46,1,,
,,,,,,,,,,,,,,yangling,001,2025-01-08_17h41.49.210,IAT(Formal),2021.2.3,Win32,59.87306909,,,,,,,,,,,,,,,,,,,,,,,,,,,,,,,,,,,,,,,,,,,,,,,,,,,,他,e,,,i,0,0.4206,0,72,72,55,1,,
,,,,,,,,,,,,,,yangling,001,2025-01-08_17h41.49.210,IAT(Formal),2021.2.3,Win32,59.87306909,,,,,,,,,,,,,,,,,,,,,,,,,,,,,,,,,,,,,,,,,,,,,,,,,,,,优秀,e,,,i,0,0.3513,0,73,73,10,1,,
,,,,,,,,,,,,,,yangling,001,2025-01-08_17h41.49.210,IAT(Formal),2021.2.3,Win32,59.87306909,,,,,,,,,,,,,,,,,,,,,,,,,,,,,,,,,,,,,,,,,,,,,,,,,,,,正直,e,,,i,0,0.0995,0,74,74,16,1,,
,,,,,,,,,,,,,,yangling,001,2025-01-08_17h41.49.210,IAT(Formal),2021.2.3,Win32,59.87306909,,,,,,,,,,,,,,,,,,,,,,,,,,,,,,,,,,,,,,,,,,,,,,,,,,,,俺,i,,,i,1,0.2149,0,75,75,4,1,,
,,,,,,,,,,,,,,yangling,001,2025-01-08_17h41.49.210,IAT(Formal),2021.2.3,Win32,59.87306909,,,,,,,,,,,,,,,,,,,,,,,,,,,,,,,,,,,,,,,,,,,,,,,,,,,,聪明,e,,,i,0,0.1028,0,76,76,12,1,,
,,,,,,,,,,,,,,yangling,001,2025-01-08_17h41.49.210,IAT(Formal),2021.2.3,Win32,59.87306909,,,,,,,,,,,,,,,,,,,,,,,,,,,,,,,,,,,,,,,,,,,,,,,,,,,,自己,i,,,i,1,0.0382,0,77,77,63,1,,
,,,,,,,,,,,,,,yangling,001,2025-01-08_17h41.49.210,IAT(Formal),2021.2.3,Win32,59.87306909,,,,,,,,,,,,,,,,,,,,,,,,,,,,,,,,,,,,,,,,,,,,,,,,,,,,虚伪,i,,,i,1,0.3522,0,78,78,31,1,,
,,,,,,,,,,,,,,yangling,001,2025-01-08_17h41.49.210,IAT(Formal),2021.2.3,Win32,59.87306909,,,,,,,,,,,,,,,,,,,,,,,,,,,,,,,,,,,,,,,,,,,,,,,,,,,,他人,e,,,i,0,0.0005,0,79,79,58,1,,
,,,,,,,,,,,,,,yangling,001,2025-01-08_17h41.49.210,IAT(Formal),2021.2.3,Win32,59.87306909,,,,,,,,,,,,,,,,,,,,,,,,,,,,,,,,,,,,,,,,,,,,,,,,,,,,诚恳,e,,,i,0,0.2331,1,0,80,29,1,,
,,,,,,,,,,,,,,yangling,001,2025-01-08_17h41.49.210,IAT(Formal),2021.2.3,Win32,59.87306909,,,,,,,,,,,,,,,,,,,,,,,,,,,,,,,,,,,,,,,,,,,,,,,,,,,,自己,i,,,i,1,0.1342,1,1,81,3,1,,
,,,,,,,,,,,,,,yangling,001,2025-01-08_17h41.49.210,IAT(Formal),2021.2.3,Win32,59.87306909,,,,,,,,,,,,,,,,,,,,,,,,,,,,,,,,,,,,,,,,,,,,,,,,,,,,我们,i,,,i,1,0.3647,1,2,82,2,1,,
,,,,,,,,,,,,,,yangling,001,2025-01-08_17h41.49.210,IAT(Formal),2021.2.3,Win32,59.87306909,,,,,,,,,,,,,,,,,,,,,,,,,,,,,,,,,,,,,,,,,,,,,,,,,,,,他们,e,,,i,0,0.3023,1,3,83,76,1,,
,,,,,,,,,,,,,,yangling,001,2025-01-08_17h41.49.210,IAT(Formal),2021.2.3,Win32,59.87306909,,,,,,,,,,,,,,,,,,,,,,,,,,,,,,,,,,,,,,,,,,,,,,,,,,,,机智,e,,,i,0,0.2345,1,4,84,19,1,,
,,,,,,,,,,,,,,yangling,001,2025-01-08_17h41.49.210,IAT(Formal),2021.2.3,Win32,59.87306909,,,,,,,,,,,,,,,,,,,,,,,,,,,,,,,,,,,,,,,,,,,,,,,,,,,,正直,e,,,i,0,0.1343,1,5,85,16,1,,
,,,,,,,,,,,,,,yangling,001,2025-01-08_17h41.49.210,IAT(Formal),2021.2.3,Win32,59.87306909,,,,,,,,,,,,,,,,,,,,,,,,,,,,,,,,,,,,,,,,,,,,,,,,,,,,他的,e,,,i,0,0.0372,1,6,86,77,1,,
,,,,,,,,,,,,,,yangling,001,2025-01-08_17h41.49.210,IAT(Formal),2021.2.3,Win32,59.87306909,,,,,,,,,,,,,,,,,,,,,,,,,,,,,,,,,,,,,,,,,,,,,,,,,,,,他,e,,,i,0,0.1514,1,7,87,55,1,,
,,,,,,,,,,,,,,yangling,001,2025-01-08_17h41.49.210,IAT(Formal),2021.2.3,Win32,59.87306909,,,,,,,,,,,,,,,,,,,,,,,,,,,,,,,,,,,,,,,,,,,,,,,,,,,,野蛮,i,,,i,1,0.1173,1,8,88,46,1,,
,,,,,,,,,,,,,,yangling,001,2025-01-08_17h41.49.210,IAT(Formal),2021.2.3,Win32,59.87306909,,,,,,,,,,,,,,,,,,,,,,,,,,,,,,,,,,,,,,,,,,,,,,,,,,,,其他,e,,,i,0,0.3175,1,9,89,9,1,,
,,,,,,,,,,,,,,yangling,001,2025-01-08_17h41.49.210,IAT(Formal),2021.2.3,Win32,59.87306909,,,,,,,,,,,,,,,,,,,,,,,,,,,,,,,,,,,,,,,,,,,,,,,,,,,,热情,e,,,i,0,0.1339,1,10,90,27,1,,
,,,,,,,,,,,,,,yangling,001,2025-01-08_17h41.49.210,IAT(Formal),2021.2.3,Win32,59.87306909,,,,,,,,,,,,,,,,,,,,,,,,,,,,,,,,,,,,,,,,,,,,,,,,,,,,俺,i,,,i,1,0.0174,1,11,91,4,1,,
,,,,,,,,,,,,,,yangling,001,2025-01-08_17h41.49.210,IAT(Formal),2021.2.3,Win32,59.87306909,,,,,,,,,,,,,,,,,,,,,,,,,,,,,,,,,,,,,,,,,,,,,,,,,,,,消极,i,,,i,1,0.3006,1,12,92,35,1,,
,,,,,,,,,,,,,,yangling,001,2025-01-08_17h41.49.210,IAT(Formal),2021.2.3,Win32,59.87306909,,,,,,,,,,,,,,,,,,,,,,,,,,,,,,,,,,,,,,,,,,,,,,,,,,,,优秀,e,,,i,0,0.0312,1,13,93,10,1,,
,,,,,,,,,,,,,,yangling,001,2025-01-08_17h41.49.210,IAT(Formal),2021.2.3,Win32,59.87306909,,,,,,,,,,,,,,,,,,,,,,,,,,,,,,,,,,,,,,,,,,,,,,,,,,,,我们,i,,,i,1,0.1677,1,14,94,72,1,,
,,,,,,,,,,,,,,yangling,001,2025-01-08_17h41.49.210,IAT(Formal),2021.2.3,Win32,59.87306909,,,,,,,,,,,,,,,,,,,,,,,,,,,,,,,,,,,,,,,,,,,,,,,,,,,,他们,e,,,i,0,0.0176,1,15,95,56,1,,
,,,,,,,,,,,,,,yangling,001,2025-01-08_17h41.49.210,IAT(Formal),2021.2.3,Win32,59.87306909,,,,,,,,,,,,,,,,,,,,,,,,,,,,,,,,,,,,,,,,,,,,,,,,,,,,我,i,,,i,1,0.0508,1,16,96,0,1,,
,,,,,,,,,,,,,,yangling,001,2025-01-08_17h41.49.210,IAT(Formal),2021.2.3,Win32,59.87306909,,,,,,,,,,,,,,,,,,,,,,,,,,,,,,,,,,,,,,,,,,,,,,,,,,,,下贱,i,,,i,1,0.1509,1,17,97,49,1,,
,,,,,,,,,,,,,,yangling,001,2025-01-08_17h41.49.210,IAT(Formal),2021.2.3,Win32,59.87306909,,,,,,,,,,,,,,,,,,,,,,,,,,,,,,,,,,,,,,,,,,,,,,,,,,,,他人,e,,,i,0,0.0511,1,18,98,58,1,,
,,,,,,,,,,,,,,yangling,001,2025-01-08_17h41.49.210,IAT(Formal),2021.2.3,Win32,59.87306909,,,,,,,,,,,,,,,,,,,,,,,,,,,,,,,,,,,,,,,,,,,,,,,,,,,,鲁莽,i,,,i,1,0.0043,1,19,99,38,1,,
,,,,,,,,,,,,,,yangling,001,2025-01-08_17h41.49.210,IAT(Formal),2021.2.3,Win32,59.87306909,,,,,,,,,,,,,,,,,,,,,,,,,,,,,,,,,,,,,,,,,,,,,,,,,,,,他们,e,,,i,0,0.0007,1,20,100,6,1,,
,,,,,,,,,,,,,,yangling,001,2025-01-08_17h41.49.210,IAT(Formal),2021.2.3,Win32,59.87306909,,,,,,,,,,,,,,,,,,,,,,,,,,,,,,,,,,,,,,,,,,,,,,,,,,,,他人,e,,,e,1,0.0504,1,21,101,8,1,,
,,,,,,,,,,,,,,yangling,001,2025-01-08_17h41.49.210,IAT(Formal),2021.2.3,Win32,59.87306909,,,,,,,,,,,,,,,,,,,,,,,,,,,,,,,,,,,,,,,,,,,,,,,,,,,,俺,i,,,e,0,0.0175,1,22,102,54,1,,
,,,,,,,,,,,,,,yangling,001,2025-01-08_17h41.49.210,IAT(Formal),2021.2.3,Win32,59.87306909,,,,,,,,,,,,,,,,,,,,,,,,,,,,,,,,,,,,,,,,,,,,,,,,,,,,执拗,i,,,e,0,0.1342,1,23,103,40,1,,
,,,,,,,,,,,,,,yangling,001,2025-01-08_17h41.49.210,IAT(Formal),2021.2.3,Win32,59.87306909,,,,,,,,,,,,,,,,,,,,,,,,,,,,,,,,,,,,,,,,,,,,,,,,,,,,俺,i,,,e,0,0.3674,1,24,104,64,1,,
,,,,,,,,,,,,,,yangling,001,2025-01-08_17h41.49.210,IAT(Formal),2021.2.3,Win32,59.87306909,,,,,,,,,,,,,,,,,,,,,,,,,,,,,,,,,,,,,,,,,,,,,,,,,,,,活泼,e,,,e,1,0.0017,1,25,105,28,1,,
,,,,,,,,,,,,,,yangling,001,2025-01-08_17h41.49.210,IAT(Formal),2021.2.3,Win32,59.87306909,,,,,,,,,,,,,,,,,,,,,,,,,,,,,,,,,,,,,,,,,,,,,,,,,,,,稳重,e,,,e,1,0.05,1,26,106,21,1,,
,,,,,,,,,,,,,,yangling,001,2025-01-08_17h41.49.210,IAT(Formal),2021.2.3,Win32,59.87306909,,,,,,,,,,,,,,,,,,,,,,,,,,,,,,,,,,,,,,,,,,,,,,,,,,,,我的,i,,,e,0,0.2009,1,27,107,71,1,,
,,,,,,,,,,,,,,yangling,001,2025-01-08_17h41.49.210,IAT(Formal),2021.2.3,Win32,59.87306909,,,,,,,,,,,,,,,,,,,,,,,,,,,,,,,,,,,,,,,,,,,,,,,,,,,,其他,e,,,i,0,0.0019,1,28,108,79,1,,
,,,,,,,,,,,,,,yangling,001,2025-01-08_17h41.49.210,IAT(Formal),2021.2.3,Win32,59.87306909,,,,,,,,,,,,,,,,,,,,,,,,,,,,,,,,,,,,,,,,,,,,,,,,,,,,我们,i,,,i,1,0.2343,1,29,109,62,1,,
,,,,,,,,,,,,,,yangling,001,2025-01-08_17h41.49.210,IAT(Formal),2021.2.3,Win32,59.87306909,,,,,,,,,,,,,,,,,,,,,,,,,,,,,,,,,,,,,,,,,,,,,,,,,,,,细腻,e,,,i,0,0.1844,1,30,110,25,1,,
,,,,,,,,,,,,,,yangling,001,2025-01-08_17h41.49.210,IAT(Formal),2021.2.3,Win32,59.87306909,,,,,,,,,,,,,,,,,,,,,,,,,,,,,,,,,,,,,,,,,,,,,,,,,,,,无私,e,,,i,0,0.2355,1,31,111,22,1,,
,,,,,,,,,,,,,,yangling,001,2025-01-08_17h41.49.210,IAT(Formal),2021.2.3,Win32,59.87306909,,,,,,,,,,,,,,,,,,,,,,,,,,,,,,,,,,,,,,,,,,,,,,,,,,,,轻率,i,,,i,1,0.0509,1,32,112,48,1,,
,,,,,,,,,,,,,,yangling,001,2025-01-08_17h41.49.210,IAT(Formal),2021.2.3,Win32,59.87306909,,,,,,,,,,,,,,,,,,,,,,,,,,,,,,,,,,,,,,,,,,,,,,,,,,,,他的,e,,,i,0,0.2338,1,33,113,57,1,,
,,,,,,,,,,,,,,yangling,001,2025-01-08_17h41.49.210,IAT(Formal),2021.2.3,Win32,59.87306909,,,,,,,,,,,,,,,,,,,,,,,,,,,,,,,,,,,,,,,,,,,,,,,,,,,,悲观,i,,,i,1,0.1344,1,34,114,34,1,,
,,,,,,,,,,,,,,yangling,001,2025-01-08_17h41.49.210,IAT(Formal),2021.2.3,Win32,59.87306909,,,,,,,,,,,,,,,,,,,,,,,,,,,,,,,,,,,,,,,,,,,,,,,,,,,,自己,i,,,i,1,0.3677,1,35,115,53,1,,
,,,,,,,,,,,,,,yangling,001,2025-01-08_17h41.49.210,IAT(Formal),2021.2.3,Win32,59.87306909,,,,,,,,,,,,,,,,,,,,,,,,,,,,,,,,,,,,,,,,,,,,,,,,,,,,乐观,e,,,i,0,0.204,1,36,116,14,1,,
,,,,,,,,,,,,,,yangling,001,2025-01-08_17h41.49.210,IAT(Formal),2021.2.3,Win32,59.87306909,,,,,,,,,,,,,,,,,,,,,,,,,,,,,,,,,,,,,,,,,,,,,,,,,,,,他,e,,,i,0,0.1342,1,37,117,65,1,,
,,,,,,,,,,,,,,yangling,001,2025-01-08_17h41.49.210,IAT(Formal),2021.2.3,Win32,59.87306909,,,,,,,,,,,,,,,,,,,,,,,,,,,,,,,,,,,,,,,,,,,,,,,,,,,,自己,i,,,i,1,0.1168,1,38,118,73,1,,
,,,,,,,,,,,,,,yangling,001,2025-01-08_17h41.49.210,IAT(Formal),2021.2.3,Win32,59.87306909,,,,,,,,,,,,,,,,,,,,,,,,,,,,,,,,,,,,,,,,,,,,,,,,,,,,傲慢,i,,,i,1,0.05,1,39,119,37,1,,
,,,,,,,,,,,,,,yangling,001,2025-01-08_17h41.49.210,IAT(Formal),2021.2.3,Win32,59.87306909,,,,,,,,,,,,,,,,,,,,,,,,,,,,,,,,,,,,,,,,,,,,,,,,,,,,我的,i,,,i,1,0.0055,1,40,120,51,1,,
,,,,,,,,,,,,,,yangling,001,2025-01-08_17h41.49.210,IAT(Formal),2021.2.3,Win32,59.87306909,,,,,,,,,,,,,,,,,,,,,,,,,,,,,,,,,,,,,,,,,,,,,,,,,,,,杰出,e,,,i,0,0.1843,1,41,121,13,1,,
,,,,,,,,,,,,,,yangling,001,2025-01-08_17h41.49.210,IAT(Formal),2021.2.3,Win32,59.87306909,,,,,,,,,,,,,,,,,,,,,,,,,,,,,,,,,,,,,,,,,,,,,,,,,,,,自私,i,,,i,1,0.3012,1,42,122,43,1,,
,,,,,,,,,,,,,,yangling,001,2025-01-08_17h41.49.210,IAT(Formal),2021.2.3,Win32,59.87306909,,,,,,,,,,,,,,,,,,,,,,,,,,,,,,,,,,,,,,,,,,,,,,,,,,,,认真,e,,,i,0,0.0355,1,43,123,20,1,,
,,,,,,,,,,,,,,yangling,001,2025-01-08_17h41.49.210,IAT(Formal),2021.2.3,Win32,59.87306909,,,,,,,,,,,,,,,,,,,,,,,,,,,,,,,,,,,,,,,,,,,,,,,,,,,,我们,i,,,i,1,0.0537,1,44,124,52,1,,
,,,,,,,,,,,,,,yangling,001,2025-01-08_17h41.49.210,IAT(Formal),2021.2.3,Win32,59.87306909,,,,,,,,,,,,,,,,,,,,,,,,,,,,,,,,,,,,,,,,,,,,,,,,,,,,他,e,,,i,0,0.0509,1,45,125,75,1,,
,,,,,,,,,,,,,,yangling,001,2025-01-08_17h41.49.210,IAT(Formal),2021.2.3,Win32,59.87306909,,,,,,,,,,,,,,,,,,,,,,,,,,,,,,,,,,,,,,,,,,,,,,,,,,,,暴躁,i,,,i,1,0.0722,1,46,126,44,1,,
,,,,,,,,,,,,,,yangling,001,2025-01-08_17h41.49.210,IAT(Formal),2021.2.3,Win32,59.87306909,,,,,,,,,,,,,,,,,,,,,,,,,,,,,,,,,,,,,,,,,,,,,,,,,,,,他,e,,,i,0,0.1212,1,47,127,5,1,,
,,,,,,,,,,,,,,yangling,001,2025-01-08_17h41.49.210,IAT(Formal),2021.2.3,Win32,59.87306909,,,,,,,,,,,,,,,,,,,,,,,,,,,,,,,,,,,,,,,,,,,,,,,,,,,,卑鄙,i,,,i,1,0.3841,1,48,128,30,1,,
,,,,,,,,,,,,,,yangling,001,2025-01-08_17h41.49.210,IAT(Formal),2021.2.3,Win32,59.87306909,,,,,,,,,,,,,,,,,,,,,,,,,,,,,,,,,,,,,,,,,,,,,,,,,,,,他人,e,,,i,0,0.0842,1,49,129,78,1,,
,,,,,,,,,,,,,,yangling,001,2025-01-08_17h41.49.210,IAT(Formal),2021.2.3,Win32,59.87306909,,,,,,,,,,,,,,,,,,,,,,,,,,,,,,,,,,,,,,,,,,,,,,,,,,,,勇敢,e,,,i,0,0.2361,1,50,130,17,1,,
,,,,,,,,,,,,,,yangling,001,2025-01-08_17h41.49.210,IAT(Formal),2021.2.3,Win32,59.87306909,,,,,,,,,,,,,,,,,,,,,,,,,,,,,,,,,,,,,,,,,,,,,,,,,,,,我,i,,,i,1,0.0373,1,51,131,60,1,,
,,,,,,,,,,,,,,yangling,001,2025-01-08_17h41.49.210,IAT(Formal),2021.2.3,Win32,59.87306909,,,,,,,,,,,,,,,,,,,,,,,,,,,,,,,,,,,,,,,,,,,,,,,,,,,,崇高,e,,,i,0,0.1845,1,52,132,11,1,,
,,,,,,,,,,,,,,yangling,001,2025-01-08_17h41.49.210,IAT(Formal),2021.2.3,Win32,59.87306909,,,,,,,,,,,,,,,,,,,,,,,,,,,,,,,,,,,,,,,,,,,,,,,,,,,,冷静,e,,,i,0,0.1686,1,53,133,26,1,,
,,,,,,,,,,,,,,yangling,001,2025-01-08_17h41.49.210,IAT(Formal),2021.2.3,Win32,59.87306909,,,,,,,,,,,,,,,,,,,,,,,,,,,,,,,,,,,,,,,,,,,,,,,,,,,,我,i,,,i,1,0.1527,1,54,134,50,1,,
,,,,,,,,,,,,,,yangling,001,2025-01-08_17h41.49.210,IAT(Formal),2021.2.3,Win32,59.87306909,,,,,,,,,,,,,,,,,,,,,,,,,,,,,,,,,,,,,,,,,,,,,,,,,,,,我,i,,,i,1,0.254,1,55,135,70,1,,
,,,,,,,,,,,,,,yangling,001,2025-01-08_17h41.49.210,IAT(Formal),2021.2.3,Win32,59.87306909,,,,,,,,,,,,,,,,,,,,,,,,,,,,,,,,,,,,,,,,,,,,,,,,,,,,他们,e,,,i,0,0.0172,1,56,136,66,1,,
,,,,,,,,,,,,,,yangling,001,2025-01-08_17h41.49.210,IAT(Formal),2021.2.3,Win32,59.87306909,,,,,,,,,,,,,,,,,,,,,,,,,,,,,,,,,,,,,,,,,,,,,,,,,,,,公正,e,,,i,0,0.4839,1,57,137,23,1,,
,,,,,,,,,,,,,,yangling,001,2025-01-08_17h41.49.210,IAT(Formal),2021.2.3,Win32,59.87306909,,,,,,,,,,,,,,,,,,,,,,,,,,,,,,,,,,,,,,,,,,,,,,,,,,,,散漫,i,,,i,1,0.0836,1,58,138,41,1,,
,,,,,,,,,,,,,,yangling,001,2025-01-08_17h41.49.210,IAT(Formal),2021.2.3,Win32,59.87306909,,,,,,,,,,,,,,,,,,,,,,,,,,,,,,,,,,,,,,,,,,,,,,,,,,,,他的,e,,,i,0,0.0837,1,59,139,7,1,,
,,,,,,,,,,,,,,yangling,001,2025-01-08_17h41.49.210,IAT(Formal),2021.2.3,Win32,59.87306909,,,,,,,,,,,,,,,,,,,,,,,,,,,,,,,,,,,,,,,,,,,,,,,,,,,,朴实,e,,,i,0,0.2679,1,60,140,24,1,,
,,,,,,,,,,,,,,yangling,001,2025-01-08_17h41.49.210,IAT(Formal),2021.2.3,Win32,59.87306909,,,,,,,,,,,,,,,,,,,,,,,,,,,,,,,,,,,,,,,,,,,,,,,,,,,,自己,i,,,i,1,0.2844,1,61,141,63,1,,
,,,,,,,,,,,,,,yangling,001,2025-01-08_17h41.49.210,IAT(Formal),2021.2.3,Win32,59.87306909,,,,,,,,,,,,,,,,,,,,,,,,,,,,,,,,,,,,,,,,,,,,,,,,,,,,虚伪,i,,,i,1,0.0173,1,62,142,31,1,,
,,,,,,,,,,,,,,yangling,001,2025-01-08_17h41.49.210,IAT(Formal),2021.2.3,Win32,59.87306909,,,,,,,,,,,,,,,,,,,,,,,,,,,,,,,,,,,,,,,,,,,,,,,,,,,,他的,e,,,i,0,0.1673,1,63,143,67,1,,
,,,,,,,,,,,,,,yangling,001,2025-01-08_17h41.49.210,IAT(Formal),2021.2.3,Win32,59.87306909,,,,,,,,,,,,,,,,,,,,,,,,,,,,,,,,,,,,,,,,,,,,,,,,,,,,他人,e,,,i,0,0.0338,1,64,144,68,1,,
,,,,,,,,,,,,,,yangling,001,2025-01-08_17h41.49.210,IAT(Formal),2021.2.3,Win32,59.87306909,,,,,,,,,,,,,,,,,,,,,,,,,,,,,,,,,,,,,,,,,,,,,,,,,,,,刻薄,i,,,i,1,0.3176,1,65,145,33,1,,
,,,,,,,,,,,,,,yangling,001,2025-01-08_17h41.49.210,IAT(Formal),2021.2.3,Win32,59.87306909,,,,,,,,,,,,,,,,,,,,,,,,,,,,,,,,,,,,,,,,,,,,,,,,,,,,诚实,e,,,i,0,0.4007,1,66,146,15,1,,
,,,,,,,,,,,,,,yangling,001,2025-01-08_17h41.49.210,IAT(Formal),2021.2.3,Win32,59.87306909,,,,,,,,,,,,,,,,,,,,,,,,,,,,,,,,,,,,,,,,,,,,,,,,,,,,凶狠,i,,,i,1,0.1509,1,67,147,42,1,,
,,,,,,,,,,,,,,yangling,001,2025-01-08_17h41.49.210,IAT(Formal),2021.2.3,Win32,59.87306909,,,,,,,,,,,,,,,,,,,,,,,,,,,,,,,,,,,,,,,,,,,,,,,,,,,,俺,i,,,i,1,0.2173,1,68,148,74,1,,
,,,,,,,,,,,,,,yangling,001,2025-01-08_17h41.49.210,IAT(Formal),2021.2.3,Win32,59.87306909,,,,,,,,,,,,,,,,,,,,,,,,,,,,,,,,,,,,,,,,,,,,,,,,,,,,愚蠢,i,,,i,1,0.2871,1,69,149,32,1,,
,,,,,,,,,,,,,,yangling,001,2025-01-08_17h41.49.210,IAT(Formal),2021.2.3,Win32,59.87306909,,,,,,,,,,,,,,,,,,,,,,,,,,,,,,,,,,,,,,,,,,,,,,,,,,,,其他,e,,,i,0,0.2675,1,70,150,69,1,,
,,,,,,,,,,,,,,yangling,001,2025-01-08_17h41.49.210,IAT(Formal),2021.2.3,Win32,59.87306909,,,,,,,,,,,,,,,,,,,,,,,,,,,,,,,,,,,,,,,,,,,,,,,,,,,,我的,i,,,i,1,0.5679,1,71,151,61,1,,
,,,,,,,,,,,,,,yangling,001,2025-01-08_17h41.49.210,IAT(Formal),2021.2.3,Win32,59.87306909,,,,,,,,,,,,,,,,,,,,,,,,,,,,,,,,,,,,,,,,,,,,,,,,,,,,其他,e,,,i,0,0.1677,1,72,152,59,1,,
,,,,,,,,,,,,,,yangling,001,2025-01-08_17h41.49.210,IAT(Formal),2021.2.3,Win32,59.87306909,,,,,,,,,,,,,,,,,,,,,,,,,,,,,,,,,,,,,,,,,,,,,,,,,,,,猖狂,i,,,i,1,0.0643,1,73,153,45,1,,
,,,,,,,,,,,,,,yangling,001,2025-01-08_17h41.49.210,IAT(Formal),2021.2.3,Win32,59.87306909,,,,,,,,,,,,,,,,,,,,,,,,,,,,,,,,,,,,,,,,,,,,,,,,,,,,固执,i,,,i,1,0.0507,1,74,154,47,1,,
,,,,,,,,,,,,,,yangling,001,2025-01-08_17h41.49.210,IAT(Formal),2021.2.3,Win32,59.87306909,,,,,,,,,,,,,,,,,,,,,,,,,,,,,,,,,,,,,,,,,,,,,,,,,,,,聪明,e,,,i,0,0.0006,1,75,155,12,1,,
,,,,,,,,,,,,,,yangling,001,2025-01-08_17h41.49.210,IAT(Formal),2021.2.3,Win32,59.87306909,,,,,,,,,,,,,,,,,,,,,,,,,,,,,,,,,,,,,,,,,,,,,,,,,,,,我的,i,,,i,1,0.0176,1,76,156,1,1,,
,,,,,,,,,,,,,,yangling,001,2025-01-08_17h41.49.210,IAT(Formal),2021.2.3,Win32,59.87306909,,,,,,,,,,,,,,,,,,,,,,,,,,,,,,,,,,,,,,,,,,,,,,,,,,,,勤奋,e,,,i,0,0.2007,1,77,157,18,1,,
,,,,,,,,,,,,,,yangling,001,2025-01-08_17h41.49.210,IAT(Formal),2021.2.3,Win32,59.87306909,,,,,,,,,,,,,,,,,,,,,,,,,,,,,,,,,,,,,,,,,,,,,,,,,,,,冒失,i,,,i,1,0.1893,1,78,158,39,1,,
,,,,,,,,,,,,,,yangling,001,2025-01-08_17h41.49.210,IAT(Formal),2021.2.3,Win32,59.87306909,,,,,,,,,,,,,,,,,,,,,,,,,,,,,,,,,,,,,,,,,,,,,,,,,,,,自卑,i,,,i,1,0.0344,1,79,159,36,1,,
,,,,,,,,,,,,,,yangling,001,2025-01-08_17h41.49.210,IAT(Formal),2021.2.3,Win32,59.87306909,,,,,,,,,,,,,,,,,,,,,,,,,,,,,,,,,,,,,,,,,,,,,,,,,,,,,,,,,,,,,,,,space,8.0459