﻿Instruction1.keys,Instruction1.rt,Instruction2.keys,Instruction2.rt,key_resp_iso.keys,key_resp_iso.corr,key_resp_iso.rt,Practice_01.thisRepN,Practice_01.thisTrialN,Practice_01.thisN,Practice_01.thisIndex,Practice_01.ran,Words,ans,participant,session,date,expName,psychopyVersion,OS,frameRate,key_resp_3.keys,key_resp_3.rt,key_resp_ipn.keys,key_resp_ipn.corr,key_resp_ipn.rt,Practice_02.thisRepN,Practice_02.thisTrialN,Practice_02.thisN,Practice_02.thisIndex,Practice_02.ran,Words_ipn,ans_ipn,key_resp_4.keys,key_resp_4.rt,key_resp_t1.keys,key_resp_t1.corr,key_resp_t1.rt,Practice_T1.thisRepN,Practice_T1.thisTrialN,Practice_T1.thisN,Practice_T1.thisIndex,Practice_T1.ran,Words_t1,ans_t1,key_resp_5.keys,key_resp_5.rt,Formal_T1.thisRepN,Formal_T1.thisTrialN,Formal_T1.thisN,Formal_T1.thisIndex,Formal_T1.ran,key_resp_6.keys,key_resp_6.rt,key_resp_iso_reverse.keys,key_resp_iso_reverse.corr,key_resp_iso_reverse.rt,Practice_iso_Reverse.thisRepN,Practice_iso_Reverse.thisTrialN,Practice_iso_Reverse.thisN,Practice_iso_Reverse.thisIndex,Practice_iso_Reverse.ran,key_resp_7.keys,key_resp_7.rt,key_resp_t2_Practice.keys,key_resp_t2_Practice.corr,key_resp_t2_Practice.rt,Practice_t2_Reverse.thisRepN,Practice_t2_Reverse.thisTrialN,Practice_t2_Reverse.thisN,Practice_t2_Reverse.thisIndex,Practice_t2_Reverse.ran,Words_t2,ans_t2,key_resp_8.keys,key_resp_8.rt,key_resp_t2.keys,key_resp_t2.corr,key_resp_t2.rt,Formal_t2_reverse.thisRepN,Formal_t2_reverse.thisTrialN,Formal_t2_reverse.thisN,Formal_t2_reverse.thisIndex,Formal_t2_reverse.ran,key_instruct.keys,key_instruct.rt
space,8.9458,space,14.1473,e,1,1.1122,0,0,0,3,1,自己,e,1,001,2025-01-11_16h37.26.291,IAT(Formal),2021.2.3,MacIntel,60.0024001,,,,,,,,,,,,,,,,,,,,,,,,,,,,,,,,,,,,,,,,,,,,,,,,,,,,,,,,,,,,,,,,,
,,,,i,1,0.4891,0,1,1,7,1,他的,i,1,001,2025-01-11_16h37.26.291,IAT(Formal),2021.2.3,MacIntel,60.0024001,,,,,,,,,,,,,,,,,,,,,,,,,,,,,,,,,,,,,,,,,,,,,,,,,,,,,,,,,,,,,,,,,
,,,,e,1,0.4778,0,2,2,2,1,我们,e,1,001,2025-01-11_16h37.26.291,IAT(Formal),2021.2.3,MacIntel,60.0024001,,,,,,,,,,,,,,,,,,,,,,,,,,,,,,,,,,,,,,,,,,,,,,,,,,,,,,,,,,,,,,,,,
,,,,e,1,0.5784,0,3,3,4,1,俺,e,1,001,2025-01-11_16h37.26.291,IAT(Formal),2021.2.3,MacIntel,60.0024001,,,,,,,,,,,,,,,,,,,,,,,,,,,,,,,,,,,,,,,,,,,,,,,,,,,,,,,,,,,,,,,,,
,,,,e,1,0.6397,0,4,4,0,1,我,e,1,001,2025-01-11_16h37.26.291,IAT(Formal),2021.2.3,MacIntel,60.0024001,,,,,,,,,,,,,,,,,,,,,,,,,,,,,,,,,,,,,,,,,,,,,,,,,,,,,,,,,,,,,,,,,
,,,,i,1,0.6244,0,5,5,5,1,他,i,1,001,2025-01-11_16h37.26.291,IAT(Formal),2021.2.3,MacIntel,60.0024001,,,,,,,,,,,,,,,,,,,,,,,,,,,,,,,,,,,,,,,,,,,,,,,,,,,,,,,,,,,,,,,,,
,,,,i,1,0.7338,0,6,6,6,1,他们,i,1,001,2025-01-11_16h37.26.291,IAT(Formal),2021.2.3,MacIntel,60.0024001,,,,,,,,,,,,,,,,,,,,,,,,,,,,,,,,,,,,,,,,,,,,,,,,,,,,,,,,,,,,,,,,,
,,,,e,1,0.8833,0,7,7,1,1,我的,e,1,001,2025-01-11_16h37.26.291,IAT(Formal),2021.2.3,MacIntel,60.0024001,,,,,,,,,,,,,,,,,,,,,,,,,,,,,,,,,,,,,,,,,,,,,,,,,,,,,,,,,,,,,,,,,
,,,,i,1,0.4621,0,8,8,8,1,他人,i,1,001,2025-01-11_16h37.26.291,IAT(Formal),2021.2.3,MacIntel,60.0024001,,,,,,,,,,,,,,,,,,,,,,,,,,,,,,,,,,,,,,,,,,,,,,,,,,,,,,,,,,,,,,,,,
,,,,i,1,0.6591,0,9,9,9,1,其他,i,1,001,2025-01-11_16h37.26.291,IAT(Formal),2021.2.3,MacIntel,60.0024001,,,,,,,,,,,,,,,,,,,,,,,,,,,,,,,,,,,,,,,,,,,,,,,,,,,,,,,,,,,,,,,,,
,,,,,,,,,,,,,,1,001,2025-01-11_16h37.26.291,IAT(Formal),2021.2.3,MacIntel,60.0024001,space,26.0454,i,1,0.8095,0,0,0,27,1,傲慢,i,,,,,,,,,,,,,,,,,,,,,,,,,,,,,,,,,,,,,,,,,,,,,,,,,,,,,
,,,,,,,,,,,,,,1,001,2025-01-11_16h37.26.291,IAT(Formal),2021.2.3,MacIntel,60.0024001,,,i,1,0.5813,0,1,1,37,1,固执,i,,,,,,,,,,,,,,,,,,,,,,,,,,,,,,,,,,,,,,,,,,,,,,,,,,,,,
,,,,,,,,,,,,,,1,001,2025-01-11_16h37.26.291,IAT(Formal),2021.2.3,MacIntel,60.0024001,,,e,1,0.4949,0,2,2,8,1,勤奋,e,,,,,,,,,,,,,,,,,,,,,,,,,,,,,,,,,,,,,,,,,,,,,,,,,,,,,
,,,,,,,,,,,,,,1,001,2025-01-11_16h37.26.291,IAT(Formal),2021.2.3,MacIntel,60.0024001,,,e,1,1.3573,0,3,3,11,1,稳重,e,,,,,,,,,,,,,,,,,,,,,,,,,,,,,,,,,,,,,,,,,,,,,,,,,,,,,
,,,,,,,,,,,,,,1,001,2025-01-11_16h37.26.291,IAT(Formal),2021.2.3,MacIntel,60.0024001,,,i,1,0.5922,0,4,4,24,1,悲观,i,,,,,,,,,,,,,,,,,,,,,,,,,,,,,,,,,,,,,,,,,,,,,,,,,,,,,
,,,,,,,,,,,,,,1,001,2025-01-11_16h37.26.291,IAT(Formal),2021.2.3,MacIntel,60.0024001,,,e,1,1.1792,0,5,5,15,1,细腻,e,,,,,,,,,,,,,,,,,,,,,,,,,,,,,,,,,,,,,,,,,,,,,,,,,,,,,
,,,,,,,,,,,,,,1,001,2025-01-11_16h37.26.291,IAT(Formal),2021.2.3,MacIntel,60.0024001,,,i,1,0.6674,0,6,6,25,1,消极,i,,,,,,,,,,,,,,,,,,,,,,,,,,,,,,,,,,,,,,,,,,,,,,,,,,,,,
,,,,,,,,,,,,,,1,001,2025-01-11_16h37.26.291,IAT(Formal),2021.2.3,MacIntel,60.0024001,,,i,0,0.5157,0,7,7,12,1,无私,e,,,,,,,,,,,,,,,,,,,,,,,,,,,,,,,,,,,,,,,,,,,,,,,,,,,,,
,,,,,,,,,,,,,,1,001,2025-01-11_16h37.26.291,IAT(Formal),2021.2.3,MacIntel,60.0024001,,,e,1,0.7045,0,8,8,4,1,乐观,e,,,,,,,,,,,,,,,,,,,,,,,,,,,,,,,,,,,,,,,,,,,,,,,,,,,,,
,,,,,,,,,,,,,,1,001,2025-01-11_16h37.26.291,IAT(Formal),2021.2.3,MacIntel,60.0024001,,,e,1,0.5427,0,9,9,17,1,热情,e,,,,,,,,,,,,,,,,,,,,,,,,,,,,,,,,,,,,,,,,,,,,,,,,,,,,,
,,,,,,,,,,,,,,1,001,2025-01-11_16h37.26.291,IAT(Formal),2021.2.3,MacIntel,60.0024001,,,e,1,0.6913,0,10,10,7,1,勇敢,e,,,,,,,,,,,,,,,,,,,,,,,,,,,,,,,,,,,,,,,,,,,,,,,,,,,,,
,,,,,,,,,,,,,,1,001,2025-01-11_16h37.26.291,IAT(Formal),2021.2.3,MacIntel,60.0024001,,,e,1,0.5463,0,11,11,2,1,聪明,e,,,,,,,,,,,,,,,,,,,,,,,,,,,,,,,,,,,,,,,,,,,,,,,,,,,,,
,,,,,,,,,,,,,,1,001,2025-01-11_16h37.26.291,IAT(Formal),2021.2.3,MacIntel,60.0024001,,,i,1,0.9587,0,12,12,32,1,凶狠,i,,,,,,,,,,,,,,,,,,,,,,,,,,,,,,,,,,,,,,,,,,,,,,,,,,,,,
,,,,,,,,,,,,,,1,001,2025-01-11_16h37.26.291,IAT(Formal),2021.2.3,MacIntel,60.0024001,,,e,1,0.5927,0,13,13,5,1,诚实,e,,,,,,,,,,,,,,,,,,,,,,,,,,,,,,,,,,,,,,,,,,,,,,,,,,,,,
,,,,,,,,,,,,,,1,001,2025-01-11_16h37.26.291,IAT(Formal),2021.2.3,MacIntel,60.0024001,,,i,1,0.6317,0,14,14,26,1,自卑,i,,,,,,,,,,,,,,,,,,,,,,,,,,,,,,,,,,,,,,,,,,,,,,,,,,,,,
,,,,,,,,,,,,,,1,001,2025-01-11_16h37.26.291,IAT(Formal),2021.2.3,MacIntel,60.0024001,,,e,0,0.8491,0,15,15,38,1,轻率,i,,,,,,,,,,,,,,,,,,,,,,,,,,,,,,,,,,,,,,,,,,,,,,,,,,,,,
,,,,,,,,,,,,,,1,001,2025-01-11_16h37.26.291,IAT(Formal),2021.2.3,MacIntel,60.0024001,,,i,1,0.7415,0,16,16,28,1,鲁莽,i,,,,,,,,,,,,,,,,,,,,,,,,,,,,,,,,,,,,,,,,,,,,,,,,,,,,,
,,,,,,,,,,,,,,1,001,2025-01-11_16h37.26.291,IAT(Formal),2021.2.3,MacIntel,60.0024001,,,i,1,0.5391,0,17,17,23,1,刻薄,i,,,,,,,,,,,,,,,,,,,,,,,,,,,,,,,,,,,,,,,,,,,,,,,,,,,,,
,,,,,,,,,,,,,,1,001,2025-01-11_16h37.26.291,IAT(Formal),2021.2.3,MacIntel,60.0024001,,,i,1,0.842,0,18,18,21,1,虚伪,i,,,,,,,,,,,,,,,,,,,,,,,,,,,,,,,,,,,,,,,,,,,,,,,,,,,,,
,,,,,,,,,,,,,,1,001,2025-01-11_16h37.26.291,IAT(Formal),2021.2.3,MacIntel,60.0024001,,,e,1,0.9107,0,19,19,18,1,活泼,e,,,,,,,,,,,,,,,,,,,,,,,,,,,,,,,,,,,,,,,,,,,,,,,,,,,,,
,,,,,,,,,,,,,,1,001,2025-01-11_16h37.26.291,IAT(Formal),2021.2.3,MacIntel,60.0024001,,,i,1,0.5889,0,20,20,20,1,卑鄙,i,,,,,,,,,,,,,,,,,,,,,,,,,,,,,,,,,,,,,,,,,,,,,,,,,,,,,
,,,,,,,,,,,,,,1,001,2025-01-11_16h37.26.291,IAT(Formal),2021.2.3,MacIntel,60.0024001,,,e,1,0.7472,0,21,21,19,1,诚恳,e,,,,,,,,,,,,,,,,,,,,,,,,,,,,,,,,,,,,,,,,,,,,,,,,,,,,,
,,,,,,,,,,,,,,1,001,2025-01-11_16h37.26.291,IAT(Formal),2021.2.3,MacIntel,60.0024001,,,e,1,0.7893,0,22,22,13,1,公正,e,,,,,,,,,,,,,,,,,,,,,,,,,,,,,,,,,,,,,,,,,,,,,,,,,,,,,
,,,,,,,,,,,,,,1,001,2025-01-11_16h37.26.291,IAT(Formal),2021.2.3,MacIntel,60.0024001,,,e,1,0.7402,0,23,23,1,1,崇高,e,,,,,,,,,,,,,,,,,,,,,,,,,,,,,,,,,,,,,,,,,,,,,,,,,,,,,
,,,,,,,,,,,,,,1,001,2025-01-11_16h37.26.291,IAT(Formal),2021.2.3,MacIntel,60.0024001,,,i,1,1.208,0,24,24,36,1,野蛮,i,,,,,,,,,,,,,,,,,,,,,,,,,,,,,,,,,,,,,,,,,,,,,,,,,,,,,
,,,,,,,,,,,,,,1,001,2025-01-11_16h37.26.291,IAT(Formal),2021.2.3,MacIntel,60.0024001,,,e,1,0.6977,0,25,25,14,1,朴实,e,,,,,,,,,,,,,,,,,,,,,,,,,,,,,,,,,,,,,,,,,,,,,,,,,,,,,
,,,,,,,,,,,,,,1,001,2025-01-11_16h37.26.291,IAT(Formal),2021.2.3,MacIntel,60.0024001,,,e,1,0.8399,0,26,26,0,1,优秀,e,,,,,,,,,,,,,,,,,,,,,,,,,,,,,,,,,,,,,,,,,,,,,,,,,,,,,
,,,,,,,,,,,,,,1,001,2025-01-11_16h37.26.291,IAT(Formal),2021.2.3,MacIntel,60.0024001,,,i,1,0.748,0,27,27,29,1,冒失,i,,,,,,,,,,,,,,,,,,,,,,,,,,,,,,,,,,,,,,,,,,,,,,,,,,,,,
,,,,,,,,,,,,,,1,001,2025-01-11_16h37.26.291,IAT(Formal),2021.2.3,MacIntel,60.0024001,,,i,1,0.7752,0,28,28,35,1,猖狂,i,,,,,,,,,,,,,,,,,,,,,,,,,,,,,,,,,,,,,,,,,,,,,,,,,,,,,
,,,,,,,,,,,,,,1,001,2025-01-11_16h37.26.291,IAT(Formal),2021.2.3,MacIntel,60.0024001,,,i,1,1.1591,0,29,29,22,1,愚蠢,i,,,,,,,,,,,,,,,,,,,,,,,,,,,,,,,,,,,,,,,,,,,,,,,,,,,,,
,,,,,,,,,,,,,,1,001,2025-01-11_16h37.26.291,IAT(Formal),2021.2.3,MacIntel,60.0024001,,,i,1,1.1168,0,30,30,30,1,执拗,i,,,,,,,,,,,,,,,,,,,,,,,,,,,,,,,,,,,,,,,,,,,,,,,,,,,,,
,,,,,,,,,,,,,,1,001,2025-01-11_16h37.26.291,IAT(Formal),2021.2.3,MacIntel,60.0024001,,,e,1,0.7251,0,31,31,9,1,机智,e,,,,,,,,,,,,,,,,,,,,,,,,,,,,,,,,,,,,,,,,,,,,,,,,,,,,,
,,,,,,,,,,,,,,1,001,2025-01-11_16h37.26.291,IAT(Formal),2021.2.3,MacIntel,60.0024001,,,e,1,0.9993,0,32,32,6,1,正直,e,,,,,,,,,,,,,,,,,,,,,,,,,,,,,,,,,,,,,,,,,,,,,,,,,,,,,
,,,,,,,,,,,,,,1,001,2025-01-11_16h37.26.291,IAT(Formal),2021.2.3,MacIntel,60.0024001,,,i,1,0.5835,0,33,33,33,1,自私,i,,,,,,,,,,,,,,,,,,,,,,,,,,,,,,,,,,,,,,,,,,,,,,,,,,,,,
,,,,,,,,,,,,,,1,001,2025-01-11_16h37.26.291,IAT(Formal),2021.2.3,MacIntel,60.0024001,,,e,1,0.7097,0,34,34,10,1,认真,e,,,,,,,,,,,,,,,,,,,,,,,,,,,,,,,,,,,,,,,,,,,,,,,,,,,,,
,,,,,,,,,,,,,,1,001,2025-01-11_16h37.26.291,IAT(Formal),2021.2.3,MacIntel,60.0024001,,,e,1,0.5507,0,35,35,3,1,杰出,e,,,,,,,,,,,,,,,,,,,,,,,,,,,,,,,,,,,,,,,,,,,,,,,,,,,,,
,,,,,,,,,,,,,,1,001,2025-01-11_16h37.26.291,IAT(Formal),2021.2.3,MacIntel,60.0024001,,,i,1,0.6915,0,36,36,31,1,散漫,i,,,,,,,,,,,,,,,,,,,,,,,,,,,,,,,,,,,,,,,,,,,,,,,,,,,,,
,,,,,,,,,,,,,,1,001,2025-01-11_16h37.26.291,IAT(Formal),2021.2.3,MacIntel,60.0024001,,,,0,,0,37,37,39,1,下贱,i,,,,,,,,,,,,,,,,,,,,,,,,,,,,,,,,,,,,,,,,,,,,,,,,,,,,,
,,,,,,,,,,,,,,1,001,2025-01-11_16h37.26.291,IAT(Formal),2021.2.3,MacIntel,60.0024001,,,i,1,0.7494,0,38,38,34,1,暴躁,i,,,,,,,,,,,,,,,,,,,,,,,,,,,,,,,,,,,,,,,,,,,,,,,,,,,,,
,,,,,,,,,,,,,,1,001,2025-01-11_16h37.26.291,IAT(Formal),2021.2.3,MacIntel,60.0024001,,,e,1,1.2887,0,39,39,16,1,冷静,e,,,,,,,,,,,,,,,,,,,,,,,,,,,,,,,,,,,,,,,,,,,,,,,,,,,,,
,,,,,,,,,,,,,,1,001,2025-01-11_16h37.26.291,IAT(Formal),2021.2.3,MacIntel,60.0024001,,,,,,,,,,,,,space,17.3158,i,1,0.7795,0,0,0,59,1,其他,i,,,,,,,,,,,,,,,,,,,,,,,,,,,,,,,,,,,,,,,,,
,,,,,,,,,,,,,,1,001,2025-01-11_16h37.26.291,IAT(Formal),2021.2.3,MacIntel,60.0024001,,,,,,,,,,,,,,,e,1,0.6167,0,1,1,61,1,我的,e,,,,,,,,,,,,,,,,,,,,,,,,,,,,,,,,,,,,,,,,,
,,,,,,,,,,,,,,1,001,2025-01-11_16h37.26.291,IAT(Formal),2021.2.3,MacIntel,60.0024001,,,,,,,,,,,,,,,i,1,0.5153,0,2,2,45,1,猖狂,i,,,,,,,,,,,,,,,,,,,,,,,,,,,,,,,,,,,,,,,,,
,,,,,,,,,,,,,,1,001,2025-01-11_16h37.26.291,IAT(Formal),2021.2.3,MacIntel,60.0024001,,,,,,,,,,,,,,,e,1,0.8503,0,3,3,12,1,聪明,e,,,,,,,,,,,,,,,,,,,,,,,,,,,,,,,,,,,,,,,,,
,,,,,,,,,,,,,,1,001,2025-01-11_16h37.26.291,IAT(Formal),2021.2.3,MacIntel,60.0024001,,,,,,,,,,,,,,,i,0,0.7851,0,4,4,22,1,无私,e,,,,,,,,,,,,,,,,,,,,,,,,,,,,,,,,,,,,,,,,,
,,,,,,,,,,,,,,1,001,2025-01-11_16h37.26.291,IAT(Formal),2021.2.3,MacIntel,60.0024001,,,,,,,,,,,,,,,i,1,1.0635,0,5,5,8,1,他人,i,,,,,,,,,,,,,,,,,,,,,,,,,,,,,,,,,,,,,,,,,
,,,,,,,,,,,,,,1,001,2025-01-11_16h37.26.291,IAT(Formal),2021.2.3,MacIntel,60.0024001,,,,,,,,,,,,,,,e,1,0.5052,0,6,6,1,1,我的,e,,,,,,,,,,,,,,,,,,,,,,,,,,,,,,,,,,,,,,,,,
,,,,,,,,,,,,,,1,001,2025-01-11_16h37.26.291,IAT(Formal),2021.2.3,MacIntel,60.0024001,,,,,,,,,,,,,,,e,1,0.5257,0,7,7,11,1,崇高,e,,,,,,,,,,,,,,,,,,,,,,,,,,,,,,,,,,,,,,,,,
,,,,,,,,,,,,,,1,001,2025-01-11_16h37.26.291,IAT(Formal),2021.2.3,MacIntel,60.0024001,,,,,,,,,,,,,,,e,1,0.473,0,8,8,10,1,优秀,e,,,,,,,,,,,,,,,,,,,,,,,,,,,,,,,,,,,,,,,,,
,,,,,,,,,,,,,,1,001,2025-01-11_16h37.26.291,IAT(Formal),2021.2.3,MacIntel,60.0024001,,,,,,,,,,,,,,,i,1,0.8833,0,9,9,34,1,悲观,i,,,,,,,,,,,,,,,,,,,,,,,,,,,,,,,,,,,,,,,,,
,,,,,,,,,,,,,,1,001,2025-01-11_16h37.26.291,IAT(Formal),2021.2.3,MacIntel,60.0024001,,,,,,,,,,,,,,,e,1,0.5011,0,10,10,71,1,我的,e,,,,,,,,,,,,,,,,,,,,,,,,,,,,,,,,,,,,,,,,,
,,,,,,,,,,,,,,1,001,2025-01-11_16h37.26.291,IAT(Formal),2021.2.3,MacIntel,60.0024001,,,,,,,,,,,,,,,i,1,1.338,0,11,11,47,1,固执,i,,,,,,,,,,,,,,,,,,,,,,,,,,,,,,,,,,,,,,,,,
,,,,,,,,,,,,,,1,001,2025-01-11_16h37.26.291,IAT(Formal),2021.2.3,MacIntel,60.0024001,,,,,,,,,,,,,,,e,1,0.4843,0,12,12,70,1,我,e,,,,,,,,,,,,,,,,,,,,,,,,,,,,,,,,,,,,,,,,,
,,,,,,,,,,,,,,1,001,2025-01-11_16h37.26.291,IAT(Formal),2021.2.3,MacIntel,60.0024001,,,,,,,,,,,,,,,i,1,0.7697,0,13,13,55,1,他,i,,,,,,,,,,,,,,,,,,,,,,,,,,,,,,,,,,,,,,,,,
,,,,,,,,,,,,,,1,001,2025-01-11_16h37.26.291,IAT(Formal),2021.2.3,MacIntel,60.0024001,,,,,,,,,,,,,,,e,1,0.5388,0,14,14,50,1,我,e,,,,,,,,,,,,,,,,,,,,,,,,,,,,,,,,,,,,,,,,,
,,,,,,,,,,,,,,1,001,2025-01-11_16h37.26.291,IAT(Formal),2021.2.3,MacIntel,60.0024001,,,,,,,,,,,,,,,e,1,0.7474,0,15,15,74,1,俺,e,,,,,,,,,,,,,,,,,,,,,,,,,,,,,,,,,,,,,,,,,
,,,,,,,,,,,,,,1,001,2025-01-11_16h37.26.291,IAT(Formal),2021.2.3,MacIntel,60.0024001,,,,,,,,,,,,,,,i,1,0.603,0,16,16,41,1,散漫,i,,,,,,,,,,,,,,,,,,,,,,,,,,,,,,,,,,,,,,,,,
,,,,,,,,,,,,,,1,001,2025-01-11_16h37.26.291,IAT(Formal),2021.2.3,MacIntel,60.0024001,,,,,,,,,,,,,,,e,1,0.5841,0,17,17,72,1,我们,e,,,,,,,,,,,,,,,,,,,,,,,,,,,,,,,,,,,,,,,,,
,,,,,,,,,,,,,,1,001,2025-01-11_16h37.26.291,IAT(Formal),2021.2.3,MacIntel,60.0024001,,,,,,,,,,,,,,,i,1,1.1659,0,18,18,40,1,执拗,i,,,,,,,,,,,,,,,,,,,,,,,,,,,,,,,,,,,,,,,,,
,,,,,,,,,,,,,,1,001,2025-01-11_16h37.26.291,IAT(Formal),2021.2.3,MacIntel,60.0024001,,,,,,,,,,,,,,,e,1,0.4506,0,19,19,73,1,自己,e,,,,,,,,,,,,,,,,,,,,,,,,,,,,,,,,,,,,,,,,,
,,,,,,,,,,,,,,1,001,2025-01-11_16h37.26.291,IAT(Formal),2021.2.3,MacIntel,60.0024001,,,,,,,,,,,,,,,i,1,0.7336,0,20,20,33,1,刻薄,i,,,,,,,,,,,,,,,,,,,,,,,,,,,,,,,,,,,,,,,,,
,,,,,,,,,,,,,,1,001,2025-01-11_16h37.26.291,IAT(Formal),2021.2.3,MacIntel,60.0024001,,,,,,,,,,,,,,,i,1,0.7673,0,21,21,69,1,其他,i,,,,,,,,,,,,,,,,,,,,,,,,,,,,,,,,,,,,,,,,,
,,,,,,,,,,,,,,1,001,2025-01-11_16h37.26.291,IAT(Formal),2021.2.3,MacIntel,60.0024001,,,,,,,,,,,,,,,i,1,0.5479,0,22,22,78,1,他人,i,,,,,,,,,,,,,,,,,,,,,,,,,,,,,,,,,,,,,,,,,
,,,,,,,,,,,,,,1,001,2025-01-11_16h37.26.291,IAT(Formal),2021.2.3,MacIntel,60.0024001,,,,,,,,,,,,,,,i,1,0.9805,0,23,23,31,1,虚伪,i,,,,,,,,,,,,,,,,,,,,,,,,,,,,,,,,,,,,,,,,,
,,,,,,,,,,,,,,1,001,2025-01-11_16h37.26.291,IAT(Formal),2021.2.3,MacIntel,60.0024001,,,,,,,,,,,,,,,e,1,0.7164,0,24,24,16,1,正直,e,,,,,,,,,,,,,,,,,,,,,,,,,,,,,,,,,,,,,,,,,
,,,,,,,,,,,,,,1,001,2025-01-11_16h37.26.291,IAT(Formal),2021.2.3,MacIntel,60.0024001,,,,,,,,,,,,,,,i,1,0.8506,0,25,25,6,1,他们,i,,,,,,,,,,,,,,,,,,,,,,,,,,,,,,,,,,,,,,,,,
,,,,,,,,,,,,,,1,001,2025-01-11_16h37.26.291,IAT(Formal),2021.2.3,MacIntel,60.0024001,,,,,,,,,,,,,,,e,1,0.6307,0,26,26,51,1,我的,e,,,,,,,,,,,,,,,,,,,,,,,,,,,,,,,,,,,,,,,,,
,,,,,,,,,,,,,,1,001,2025-01-11_16h37.26.291,IAT(Formal),2021.2.3,MacIntel,60.0024001,,,,,,,,,,,,,,,i,1,0.7382,0,27,27,75,1,他,i,,,,,,,,,,,,,,,,,,,,,,,,,,,,,,,,,,,,,,,,,
,,,,,,,,,,,,,,1,001,2025-01-11_16h37.26.291,IAT(Formal),2021.2.3,MacIntel,60.0024001,,,,,,,,,,,,,,,i,1,0.6136,0,28,28,7,1,他的,i,,,,,,,,,,,,,,,,,,,,,,,,,,,,,,,,,,,,,,,,,
,,,,,,,,,,,,,,1,001,2025-01-11_16h37.26.291,IAT(Formal),2021.2.3,MacIntel,60.0024001,,,,,,,,,,,,,,,i,1,0.7992,0,29,29,35,1,消极,i,,,,,,,,,,,,,,,,,,,,,,,,,,,,,,,,,,,,,,,,,
,,,,,,,,,,,,,,1,001,2025-01-11_16h37.26.291,IAT(Formal),2021.2.3,MacIntel,60.0024001,,,,,,,,,,,,,,,e,0,0.4793,0,30,30,67,1,他的,i,,,,,,,,,,,,,,,,,,,,,,,,,,,,,,,,,,,,,,,,,
,,,,,,,,,,,,,,1,001,2025-01-11_16h37.26.291,IAT(Formal),2021.2.3,MacIntel,60.0024001,,,,,,,,,,,,,,,e,1,0.6155,0,31,31,64,1,俺,e,,,,,,,,,,,,,,,,,,,,,,,,,,,,,,,,,,,,,,,,,
,,,,,,,,,,,,,,1,001,2025-01-11_16h37.26.291,IAT(Formal),2021.2.3,MacIntel,60.0024001,,,,,,,,,,,,,,,i,1,0.7496,0,32,32,30,1,卑鄙,i,,,,,,,,,,,,,,,,,,,,,,,,,,,,,,,,,,,,,,,,,
,,,,,,,,,,,,,,1,001,2025-01-11_16h37.26.291,IAT(Formal),2021.2.3,MacIntel,60.0024001,,,,,,,,,,,,,,,e,1,0.7837,0,33,33,13,1,杰出,e,,,,,,,,,,,,,,,,,,,,,,,,,,,,,,,,,,,,,,,,,
,,,,,,,,,,,,,,1,001,2025-01-11_16h37.26.291,IAT(Formal),2021.2.3,MacIntel,60.0024001,,,,,,,,,,,,,,,,0,,0,34,34,43,1,自私,i,,,,,,,,,,,,,,,,,,,,,,,,,,,,,,,,,,,,,,,,,
,,,,,,,,,,,,,,1,001,2025-01-11_16h37.26.291,IAT(Formal),2021.2.3,MacIntel,60.0024001,,,,,,,,,,,,,,,e,1,0.9523,0,35,35,29,1,诚恳,e,,,,,,,,,,,,,,,,,,,,,,,,,,,,,,,,,,,,,,,,,
,,,,,,,,,,,,,,1,001,2025-01-11_16h37.26.291,IAT(Formal),2021.2.3,MacIntel,60.0024001,,,,,,,,,,,,,,,i,1,0.6168,0,36,36,42,1,凶狠,i,,,,,,,,,,,,,,,,,,,,,,,,,,,,,,,,,,,,,,,,,
,,,,,,,,,,,,,,1,001,2025-01-11_16h37.26.291,IAT(Formal),2021.2.3,MacIntel,60.0024001,,,,,,,,,,,,,,,e,1,0.934,0,37,37,20,1,认真,e,,,,,,,,,,,,,,,,,,,,,,,,,,,,,,,,,,,,,,,,,
,,,,,,,,,,,,,,1,001,2025-01-11_16h37.26.291,IAT(Formal),2021.2.3,MacIntel,60.0024001,,,,,,,,,,,,,,,e,1,0.5314,0,38,38,4,1,俺,e,,,,,,,,,,,,,,,,,,,,,,,,,,,,,,,,,,,,,,,,,
,,,,,,,,,,,,,,1,001,2025-01-11_16h37.26.291,IAT(Formal),2021.2.3,MacIntel,60.0024001,,,,,,,,,,,,,,,e,1,0.8508,0,39,39,27,1,热情,e,,,,,,,,,,,,,,,,,,,,,,,,,,,,,,,,,,,,,,,,,
,,,,,,,,,,,,,,1,001,2025-01-11_16h37.26.291,IAT(Formal),2021.2.3,MacIntel,60.0024001,,,,,,,,,,,,,,,e,1,0.9474,0,40,40,26,1,冷静,e,,,,,,,,,,,,,,,,,,,,,,,,,,,,,,,,,,,,,,,,,
,,,,,,,,,,,,,,1,001,2025-01-11_16h37.26.291,IAT(Formal),2021.2.3,MacIntel,60.0024001,,,,,,,,,,,,,,,e,1,0.4692,0,41,41,63,1,自己,e,,,,,,,,,,,,,,,,,,,,,,,,,,,,,,,,,,,,,,,,,
,,,,,,,,,,,,,,1,001,2025-01-11_16h37.26.291,IAT(Formal),2021.2.3,MacIntel,60.0024001,,,,,,,,,,,,,,,e,1,0.5308,0,42,42,62,1,我们,e,,,,,,,,,,,,,,,,,,,,,,,,,,,,,,,,,,,,,,,,,
,,,,,,,,,,,,,,1,001,2025-01-11_16h37.26.291,IAT(Formal),2021.2.3,MacIntel,60.0024001,,,,,,,,,,,,,,,i,1,1.0833,0,43,43,39,1,冒失,i,,,,,,,,,,,,,,,,,,,,,,,,,,,,,,,,,,,,,,,,,
,,,,,,,,,,,,,,1,001,2025-01-11_16h37.26.291,IAT(Formal),2021.2.3,MacIntel,60.0024001,,,,,,,,,,,,,,,i,1,1.1658,0,44,44,32,1,愚蠢,i,,,,,,,,,,,,,,,,,,,,,,,,,,,,,,,,,,,,,,,,,
,,,,,,,,,,,,,,1,001,2025-01-11_16h37.26.291,IAT(Formal),2021.2.3,MacIntel,60.0024001,,,,,,,,,,,,,,,i,1,0.9823,0,45,45,5,1,他,i,,,,,,,,,,,,,,,,,,,,,,,,,,,,,,,,,,,,,,,,,
,,,,,,,,,,,,,,1,001,2025-01-11_16h37.26.291,IAT(Formal),2021.2.3,MacIntel,60.0024001,,,,,,,,,,,,,,,e,1,0.5311,0,46,46,54,1,俺,e,,,,,,,,,,,,,,,,,,,,,,,,,,,,,,,,,,,,,,,,,
,,,,,,,,,,,,,,1,001,2025-01-11_16h37.26.291,IAT(Formal),2021.2.3,MacIntel,60.0024001,,,,,,,,,,,,,,,i,1,0.7128,0,47,47,9,1,其他,i,,,,,,,,,,,,,,,,,,,,,,,,,,,,,,,,,,,,,,,,,
,,,,,,,,,,,,,,1,001,2025-01-11_16h37.26.291,IAT(Formal),2021.2.3,MacIntel,60.0024001,,,,,,,,,,,,,,,e,1,1.3575,0,48,48,18,1,勤奋,e,,,,,,,,,,,,,,,,,,,,,,,,,,,,,,,,,,,,,,,,,
,,,,,,,,,,,,,,1,001,2025-01-11_16h37.26.291,IAT(Formal),2021.2.3,MacIntel,60.0024001,,,,,,,,,,,,,,,i,1,0.8507,0,49,49,57,1,他的,i,,,,,,,,,,,,,,,,,,,,,,,,,,,,,,,,,,,,,,,,,
,,,,,,,,,,,,,,1,001,2025-01-11_16h37.26.291,IAT(Formal),2021.2.3,MacIntel,60.0024001,,,,,,,,,,,,,,,i,1,1.4499,0,50,50,44,1,暴躁,i,,,,,,,,,,,,,,,,,,,,,,,,,,,,,,,,,,,,,,,,,
,,,,,,,,,,,,,,1,001,2025-01-11_16h37.26.291,IAT(Formal),2021.2.3,MacIntel,60.0024001,,,,,,,,,,,,,,,i,1,0.7847,0,51,51,49,1,下贱,i,,,,,,,,,,,,,,,,,,,,,,,,,,,,,,,,,,,,,,,,,
,,,,,,,,,,,,,,1,001,2025-01-11_16h37.26.291,IAT(Formal),2021.2.3,MacIntel,60.0024001,,,,,,,,,,,,,,,i,1,0.7084,0,52,52,66,1,他们,i,,,,,,,,,,,,,,,,,,,,,,,,,,,,,,,,,,,,,,,,,
,,,,,,,,,,,,,,1,001,2025-01-11_16h37.26.291,IAT(Formal),2021.2.3,MacIntel,60.0024001,,,,,,,,,,,,,,,i,1,0.5424,0,53,53,56,1,他们,i,,,,,,,,,,,,,,,,,,,,,,,,,,,,,,,,,,,,,,,,,
,,,,,,,,,,,,,,1,001,2025-01-11_16h37.26.291,IAT(Formal),2021.2.3,MacIntel,60.0024001,,,,,,,,,,,,,,,e,1,0.6318,0,54,54,24,1,朴实,e,,,,,,,,,,,,,,,,,,,,,,,,,,,,,,,,,,,,,,,,,
,,,,,,,,,,,,,,1,001,2025-01-11_16h37.26.291,IAT(Formal),2021.2.3,MacIntel,60.0024001,,,,,,,,,,,,,,,e,1,0.6077,0,55,55,28,1,活泼,e,,,,,,,,,,,,,,,,,,,,,,,,,,,,,,,,,,,,,,,,,
,,,,,,,,,,,,,,1,001,2025-01-11_16h37.26.291,IAT(Formal),2021.2.3,MacIntel,60.0024001,,,,,,,,,,,,,,,e,1,0.5846,0,56,56,60,1,我,e,,,,,,,,,,,,,,,,,,,,,,,,,,,,,,,,,,,,,,,,,
,,,,,,,,,,,,,,1,001,2025-01-11_16h37.26.291,IAT(Formal),2021.2.3,MacIntel,60.0024001,,,,,,,,,,,,,,,e,1,0.7589,0,57,57,14,1,乐观,e,,,,,,,,,,,,,,,,,,,,,,,,,,,,,,,,,,,,,,,,,
,,,,,,,,,,,,,,1,001,2025-01-11_16h37.26.291,IAT(Formal),2021.2.3,MacIntel,60.0024001,,,,,,,,,,,,,,,i,1,1.1644,0,58,58,38,1,鲁莽,i,,,,,,,,,,,,,,,,,,,,,,,,,,,,,,,,,,,,,,,,,
,,,,,,,,,,,,,,1,001,2025-01-11_16h37.26.291,IAT(Formal),2021.2.3,MacIntel,60.0024001,,,,,,,,,,,,,,,i,1,0.953,0,59,59,77,1,他的,i,,,,,,,,,,,,,,,,,,,,,,,,,,,,,,,,,,,,,,,,,
,,,,,,,,,,,,,,1,001,2025-01-11_16h37.26.291,IAT(Formal),2021.2.3,MacIntel,60.0024001,,,,,,,,,,,,,,,i,1,0.9553,0,60,60,37,1,傲慢,i,,,,,,,,,,,,,,,,,,,,,,,,,,,,,,,,,,,,,,,,,
,,,,,,,,,,,,,,1,001,2025-01-11_16h37.26.291,IAT(Formal),2021.2.3,MacIntel,60.0024001,,,,,,,,,,,,,,,i,1,0.7737,0,61,61,76,1,他们,i,,,,,,,,,,,,,,,,,,,,,,,,,,,,,,,,,,,,,,,,,
,,,,,,,,,,,,,,1,001,2025-01-11_16h37.26.291,IAT(Formal),2021.2.3,MacIntel,60.0024001,,,,,,,,,,,,,,,e,1,0.7144,0,62,62,17,1,勇敢,e,,,,,,,,,,,,,,,,,,,,,,,,,,,,,,,,,,,,,,,,,
,,,,,,,,,,,,,,1,001,2025-01-11_16h37.26.291,IAT(Formal),2021.2.3,MacIntel,60.0024001,,,,,,,,,,,,,,,i,1,0.532,0,63,63,36,1,自卑,i,,,,,,,,,,,,,,,,,,,,,,,,,,,,,,,,,,,,,,,,,
,,,,,,,,,,,,,,1,001,2025-01-11_16h37.26.291,IAT(Formal),2021.2.3,MacIntel,60.0024001,,,,,,,,,,,,,,,e,1,0.5829,0,64,64,25,1,细腻,e,,,,,,,,,,,,,,,,,,,,,,,,,,,,,,,,,,,,,,,,,
,,,,,,,,,,,,,,1,001,2025-01-11_16h37.26.291,IAT(Formal),2021.2.3,MacIntel,60.0024001,,,,,,,,,,,,,,,i,1,0.582,0,65,65,46,1,野蛮,i,,,,,,,,,,,,,,,,,,,,,,,,,,,,,,,,,,,,,,,,,
,,,,,,,,,,,,,,1,001,2025-01-11_16h37.26.291,IAT(Formal),2021.2.3,MacIntel,60.0024001,,,,,,,,,,,,,,,i,0,0.9147,0,66,66,2,1,我们,e,,,,,,,,,,,,,,,,,,,,,,,,,,,,,,,,,,,,,,,,,
,,,,,,,,,,,,,,1,001,2025-01-11_16h37.26.291,IAT(Formal),2021.2.3,MacIntel,60.0024001,,,,,,,,,,,,,,,e,1,0.5536,0,67,67,23,1,公正,e,,,,,,,,,,,,,,,,,,,,,,,,,,,,,,,,,,,,,,,,,
,,,,,,,,,,,,,,1,001,2025-01-11_16h37.26.291,IAT(Formal),2021.2.3,MacIntel,60.0024001,,,,,,,,,,,,,,,e,1,0.6887,0,68,68,15,1,诚实,e,,,,,,,,,,,,,,,,,,,,,,,,,,,,,,,,,,,,,,,,,
,,,,,,,,,,,,,,1,001,2025-01-11_16h37.26.291,IAT(Formal),2021.2.3,MacIntel,60.0024001,,,,,,,,,,,,,,,e,1,0.3704,0,69,69,52,1,我们,e,,,,,,,,,,,,,,,,,,,,,,,,,,,,,,,,,,,,,,,,,
,,,,,,,,,,,,,,1,001,2025-01-11_16h37.26.291,IAT(Formal),2021.2.3,MacIntel,60.0024001,,,,,,,,,,,,,,,i,1,0.5505,0,70,70,65,1,他,i,,,,,,,,,,,,,,,,,,,,,,,,,,,,,,,,,,,,,,,,,
,,,,,,,,,,,,,,1,001,2025-01-11_16h37.26.291,IAT(Formal),2021.2.3,MacIntel,60.0024001,,,,,,,,,,,,,,,e,1,0.5811,0,71,71,0,1,我,e,,,,,,,,,,,,,,,,,,,,,,,,,,,,,,,,,,,,,,,,,
,,,,,,,,,,,,,,1,001,2025-01-11_16h37.26.291,IAT(Formal),2021.2.3,MacIntel,60.0024001,,,,,,,,,,,,,,,i,1,0.9022,0,72,72,48,1,轻率,i,,,,,,,,,,,,,,,,,,,,,,,,,,,,,,,,,,,,,,,,,
,,,,,,,,,,,,,,1,001,2025-01-11_16h37.26.291,IAT(Formal),2021.2.3,MacIntel,60.0024001,,,,,,,,,,,,,,,i,1,0.6032,0,73,73,58,1,他人,i,,,,,,,,,,,,,,,,,,,,,,,,,,,,,,,,,,,,,,,,,
,,,,,,,,,,,,,,1,001,2025-01-11_16h37.26.291,IAT(Formal),2021.2.3,MacIntel,60.0024001,,,,,,,,,,,,,,,e,1,0.7022,0,74,74,3,1,自己,e,,,,,,,,,,,,,,,,,,,,,,,,,,,,,,,,,,,,,,,,,
,,,,,,,,,,,,,,1,001,2025-01-11_16h37.26.291,IAT(Formal),2021.2.3,MacIntel,60.0024001,,,,,,,,,,,,,,,i,1,0.9648,0,75,75,68,1,他人,i,,,,,,,,,,,,,,,,,,,,,,,,,,,,,,,,,,,,,,,,,
,,,,,,,,,,,,,,1,001,2025-01-11_16h37.26.291,IAT(Formal),2021.2.3,MacIntel,60.0024001,,,,,,,,,,,,,,,e,1,0.8609,0,76,76,21,1,稳重,e,,,,,,,,,,,,,,,,,,,,,,,,,,,,,,,,,,,,,,,,,
,,,,,,,,,,,,,,1,001,2025-01-11_16h37.26.291,IAT(Formal),2021.2.3,MacIntel,60.0024001,,,,,,,,,,,,,,,i,1,0.5644,0,77,77,79,1,其他,i,,,,,,,,,,,,,,,,,,,,,,,,,,,,,,,,,,,,,,,,,
,,,,,,,,,,,,,,1,001,2025-01-11_16h37.26.291,IAT(Formal),2021.2.3,MacIntel,60.0024001,,,,,,,,,,,,,,,e,1,0.7588,0,78,78,53,1,自己,e,,,,,,,,,,,,,,,,,,,,,,,,,,,,,,,,,,,,,,,,,
,,,,,,,,,,,,,,1,001,2025-01-11_16h37.26.291,IAT(Formal),2021.2.3,MacIntel,60.0024001,,,,,,,,,,,,,,,e,1,0.5962,0,79,79,19,1,机智,e,,,,,,,,,,,,,,,,,,,,,,,,,,,,,,,,,,,,,,,,,
,,,,,,,,,,,,,,1,001,2025-01-11_16h37.26.291,IAT(Formal),2021.2.3,MacIntel,60.0024001,,,,,,,,,,,,,,,i,1,0.6507,,,,,,猖狂,i,space,80.1469,0,0,0,45,1,,,,,,,,,,,,,,,,,,,,,,,,,,,,,,,,,,
,,,,,,,,,,,,,,1,001,2025-01-11_16h37.26.291,IAT(Formal),2021.2.3,MacIntel,60.0024001,,,,,,,,,,,,,,,e,1,0.6676,,,,,,杰出,e,,,0,1,1,13,1,,,,,,,,,,,,,,,,,,,,,,,,,,,,,,,,,,
,,,,,,,,,,,,,,1,001,2025-01-11_16h37.26.291,IAT(Formal),2021.2.3,MacIntel,60.0024001,,,,,,,,,,,,,,,e,1,0.6727,,,,,,勇敢,e,,,0,2,2,17,1,,,,,,,,,,,,,,,,,,,,,,,,,,,,,,,,,,
,,,,,,,,,,,,,,1,001,2025-01-11_16h37.26.291,IAT(Formal),2021.2.3,MacIntel,60.0024001,,,,,,,,,,,,,,,e,1,0.6507,,,,,,自己,e,,,0,3,3,3,1,,,,,,,,,,,,,,,,,,,,,,,,,,,,,,,,,,
,,,,,,,,,,,,,,1,001,2025-01-11_16h37.26.291,IAT(Formal),2021.2.3,MacIntel,60.0024001,,,,,,,,,,,,,,,e,1,0.4844,,,,,,我,e,,,0,4,4,50,1,,,,,,,,,,,,,,,,,,,,,,,,,,,,,,,,,,
,,,,,,,,,,,,,,1,001,2025-01-11_16h37.26.291,IAT(Formal),2021.2.3,MacIntel,60.0024001,,,,,,,,,,,,,,,e,1,0.7663,,,,,,乐观,e,,,0,5,5,14,1,,,,,,,,,,,,,,,,,,,,,,,,,,,,,,,,,,
,,,,,,,,,,,,,,1,001,2025-01-11_16h37.26.291,IAT(Formal),2021.2.3,MacIntel,60.0024001,,,,,,,,,,,,,,,e,1,0.5843,,,,,,认真,e,,,0,6,6,20,1,,,,,,,,,,,,,,,,,,,,,,,,,,,,,,,,,,
,,,,,,,,,,,,,,1,001,2025-01-11_16h37.26.291,IAT(Formal),2021.2.3,MacIntel,60.0024001,,,,,,,,,,,,,,,i,1,0.5334,,,,,,他人,i,,,0,7,7,78,1,,,,,,,,,,,,,,,,,,,,,,,,,,,,,,,,,,
,,,,,,,,,,,,,,1,001,2025-01-11_16h37.26.291,IAT(Formal),2021.2.3,MacIntel,60.0024001,,,,,,,,,,,,,,,i,1,0.4851,,,,,,野蛮,i,,,0,8,8,46,1,,,,,,,,,,,,,,,,,,,,,,,,,,,,,,,,,,
,,,,,,,,,,,,,,1,001,2025-01-11_16h37.26.291,IAT(Formal),2021.2.3,MacIntel,60.0024001,,,,,,,,,,,,,,,i,0,0.534,,,,,,无私,e,,,0,9,9,22,1,,,,,,,,,,,,,,,,,,,,,,,,,,,,,,,,,,
,,,,,,,,,,,,,,1,001,2025-01-11_16h37.26.291,IAT(Formal),2021.2.3,MacIntel,60.0024001,,,,,,,,,,,,,,,i,1,0.8715,,,,,,其他,i,,,0,10,10,79,1,,,,,,,,,,,,,,,,,,,,,,,,,,,,,,,,,,
,,,,,,,,,,,,,,1,001,2025-01-11_16h37.26.291,IAT(Formal),2021.2.3,MacIntel,60.0024001,,,,,,,,,,,,,,,e,1,0.6504,,,,,,细腻,e,,,0,11,11,25,1,,,,,,,,,,,,,,,,,,,,,,,,,,,,,,,,,,
,,,,,,,,,,,,,,1,001,2025-01-11_16h37.26.291,IAT(Formal),2021.2.3,MacIntel,60.0024001,,,,,,,,,,,,,,,i,1,0.6835,,,,,,他人,i,,,0,12,12,68,1,,,,,,,,,,,,,,,,,,,,,,,,,,,,,,,,,,
,,,,,,,,,,,,,,1,001,2025-01-11_16h37.26.291,IAT(Formal),2021.2.3,MacIntel,60.0024001,,,,,,,,,,,,,,,i,1,0.6172,,,,,,消极,i,,,0,13,13,35,1,,,,,,,,,,,,,,,,,,,,,,,,,,,,,,,,,,
,,,,,,,,,,,,,,1,001,2025-01-11_16h37.26.291,IAT(Formal),2021.2.3,MacIntel,60.0024001,,,,,,,,,,,,,,,i,1,0.6169,,,,,,其他,i,,,0,14,14,59,1,,,,,,,,,,,,,,,,,,,,,,,,,,,,,,,,,,
,,,,,,,,,,,,,,1,001,2025-01-11_16h37.26.291,IAT(Formal),2021.2.3,MacIntel,60.0024001,,,,,,,,,,,,,,,e,1,0.5563,,,,,,优秀,e,,,0,15,15,10,1,,,,,,,,,,,,,,,,,,,,,,,,,,,,,,,,,,
,,,,,,,,,,,,,,1,001,2025-01-11_16h37.26.291,IAT(Formal),2021.2.3,MacIntel,60.0024001,,,,,,,,,,,,,,,i,1,1.1097,,,,,,虚伪,i,,,0,16,16,31,1,,,,,,,,,,,,,,,,,,,,,,,,,,,,,,,,,,
,,,,,,,,,,,,,,1,001,2025-01-11_16h37.26.291,IAT(Formal),2021.2.3,MacIntel,60.0024001,,,,,,,,,,,,,,,i,1,0.723,,,,,,执拗,i,,,0,17,17,40,1,,,,,,,,,,,,,,,,,,,,,,,,,,,,,,,,,,
,,,,,,,,,,,,,,1,001,2025-01-11_16h37.26.291,IAT(Formal),2021.2.3,MacIntel,60.0024001,,,,,,,,,,,,,,,i,1,0.8191,,,,,,自卑,i,,,0,18,18,36,1,,,,,,,,,,,,,,,,,,,,,,,,,,,,,,,,,,
,,,,,,,,,,,,,,1,001,2025-01-11_16h37.26.291,IAT(Formal),2021.2.3,MacIntel,60.0024001,,,,,,,,,,,,,,,e,1,0.5472,,,,,,自己,e,,,0,19,19,53,1,,,,,,,,,,,,,,,,,,,,,,,,,,,,,,,,,,
,,,,,,,,,,,,,,1,001,2025-01-11_16h37.26.291,IAT(Formal),2021.2.3,MacIntel,60.0024001,,,,,,,,,,,,,,,i,1,0.6174,,,,,,他,i,,,0,20,20,55,1,,,,,,,,,,,,,,,,,,,,,,,,,,,,,,,,,,
,,,,,,,,,,,,,,1,001,2025-01-11_16h37.26.291,IAT(Formal),2021.2.3,MacIntel,60.0024001,,,,,,,,,,,,,,,i,1,0.5674,,,,,,他们,i,,,0,21,21,56,1,,,,,,,,,,,,,,,,,,,,,,,,,,,,,,,,,,
,,,,,,,,,,,,,,1,001,2025-01-11_16h37.26.291,IAT(Formal),2021.2.3,MacIntel,60.0024001,,,,,,,,,,,,,,,e,1,0.751,,,,,,朴实,e,,,0,22,22,24,1,,,,,,,,,,,,,,,,,,,,,,,,,,,,,,,,,,
,,,,,,,,,,,,,,1,001,2025-01-11_16h37.26.291,IAT(Formal),2021.2.3,MacIntel,60.0024001,,,,,,,,,,,,,,,i,1,0.6166,,,,,,刻薄,i,,,0,23,23,33,1,,,,,,,,,,,,,,,,,,,,,,,,,,,,,,,,,,
,,,,,,,,,,,,,,1,001,2025-01-11_16h37.26.291,IAT(Formal),2021.2.3,MacIntel,60.0024001,,,,,,,,,,,,,,,e,1,0.6392,,,,,,机智,e,,,0,24,24,19,1,,,,,,,,,,,,,,,,,,,,,,,,,,,,,,,,,,
,,,,,,,,,,,,,,1,001,2025-01-11_16h37.26.291,IAT(Formal),2021.2.3,MacIntel,60.0024001,,,,,,,,,,,,,,,e,1,0.5896,,,,,,热情,e,,,0,25,25,27,1,,,,,,,,,,,,,,,,,,,,,,,,,,,,,,,,,,
,,,,,,,,,,,,,,1,001,2025-01-11_16h37.26.291,IAT(Formal),2021.2.3,MacIntel,60.0024001,,,,,,,,,,,,,,,i,1,0.7686,,,,,,他,i,,,0,26,26,75,1,,,,,,,,,,,,,,,,,,,,,,,,,,,,,,,,,,
,,,,,,,,,,,,,,1,001,2025-01-11_16h37.26.291,IAT(Formal),2021.2.3,MacIntel,60.0024001,,,,,,,,,,,,,,,i,1,0.584,,,,,,他的,i,,,0,27,27,57,1,,,,,,,,,,,,,,,,,,,,,,,,,,,,,,,,,,
,,,,,,,,,,,,,,1,001,2025-01-11_16h37.26.291,IAT(Formal),2021.2.3,MacIntel,60.0024001,,,,,,,,,,,,,,,e,1,1.1,,,,,,公正,e,,,0,28,28,23,1,,,,,,,,,,,,,,,,,,,,,,,,,,,,,,,,,,
,,,,,,,,,,,,,,1,001,2025-01-11_16h37.26.291,IAT(Formal),2021.2.3,MacIntel,60.0024001,,,,,,,,,,,,,,,e,1,1.0345,,,,,,我,e,,,0,29,29,0,1,,,,,,,,,,,,,,,,,,,,,,,,,,,,,,,,,,
,,,,,,,,,,,,,,1,001,2025-01-11_16h37.26.291,IAT(Formal),2021.2.3,MacIntel,60.0024001,,,,,,,,,,,,,,,,0,,,,,,,悲观,i,,,0,30,30,34,1,,,,,,,,,,,,,,,,,,,,,,,,,,,,,,,,,,
,,,,,,,,,,,,,,1,001,2025-01-11_16h37.26.291,IAT(Formal),2021.2.3,MacIntel,60.0024001,,,,,,,,,,,,,,,i,1,0.9336,,,,,,其他,i,,,0,31,31,69,1,,,,,,,,,,,,,,,,,,,,,,,,,,,,,,,,,,
,,,,,,,,,,,,,,1,001,2025-01-11_16h37.26.291,IAT(Formal),2021.2.3,MacIntel,60.0024001,,,,,,,,,,,,,,,e,1,1.0718,,,,,,正直,e,,,0,32,32,16,1,,,,,,,,,,,,,,,,,,,,,,,,,,,,,,,,,,
,,,,,,,,,,,,,,1,001,2025-01-11_16h37.26.291,IAT(Formal),2021.2.3,MacIntel,60.0024001,,,,,,,,,,,,,,,i,1,0.6347,,,,,,鲁莽,i,,,0,33,33,38,1,,,,,,,,,,,,,,,,,,,,,,,,,,,,,,,,,,
,,,,,,,,,,,,,,1,001,2025-01-11_16h37.26.291,IAT(Formal),2021.2.3,MacIntel,60.0024001,,,,,,,,,,,,,,,e,0,0.6693,,,,,,轻率,i,,,0,34,34,48,1,,,,,,,,,,,,,,,,,,,,,,,,,,,,,,,,,,
,,,,,,,,,,,,,,1,001,2025-01-11_16h37.26.291,IAT(Formal),2021.2.3,MacIntel,60.0024001,,,,,,,,,,,,,,,e,1,0.5122,,,,,,我的,e,,,0,35,35,1,1,,,,,,,,,,,,,,,,,,,,,,,,,,,,,,,,,,
,,,,,,,,,,,,,,1,001,2025-01-11_16h37.26.291,IAT(Formal),2021.2.3,MacIntel,60.0024001,,,,,,,,,,,,,,,e,1,0.7343,,,,,,诚恳,e,,,0,36,36,29,1,,,,,,,,,,,,,,,,,,,,,,,,,,,,,,,,,,
,,,,,,,,,,,,,,1,001,2025-01-11_16h37.26.291,IAT(Formal),2021.2.3,MacIntel,60.0024001,,,,,,,,,,,,,,,e,1,0.8408,,,,,,我们,e,,,0,37,37,52,1,,,,,,,,,,,,,,,,,,,,,,,,,,,,,,,,,,
,,,,,,,,,,,,,,1,001,2025-01-11_16h37.26.291,IAT(Formal),2021.2.3,MacIntel,60.0024001,,,,,,,,,,,,,,,e,1,0.5823,,,,,,崇高,e,,,0,38,38,11,1,,,,,,,,,,,,,,,,,,,,,,,,,,,,,,,,,,
,,,,,,,,,,,,,,1,001,2025-01-11_16h37.26.291,IAT(Formal),2021.2.3,MacIntel,60.0024001,,,,,,,,,,,,,,,i,1,0.6004,,,,,,他人,i,,,0,39,39,8,1,,,,,,,,,,,,,,,,,,,,,,,,,,,,,,,,,,
,,,,,,,,,,,,,,1,001,2025-01-11_16h37.26.291,IAT(Formal),2021.2.3,MacIntel,60.0024001,,,,,,,,,,,,,,,i,1,0.5848,,,,,,他们,i,,,0,40,40,66,1,,,,,,,,,,,,,,,,,,,,,,,,,,,,,,,,,,
,,,,,,,,,,,,,,1,001,2025-01-11_16h37.26.291,IAT(Formal),2021.2.3,MacIntel,60.0024001,,,,,,,,,,,,,,,i,1,0.5344,,,,,,愚蠢,i,,,0,41,41,32,1,,,,,,,,,,,,,,,,,,,,,,,,,,,,,,,,,,
,,,,,,,,,,,,,,1,001,2025-01-11_16h37.26.291,IAT(Formal),2021.2.3,MacIntel,60.0024001,,,,,,,,,,,,,,,e,1,0.9329,,,,,,我们,e,,,0,42,42,62,1,,,,,,,,,,,,,,,,,,,,,,,,,,,,,,,,,,
,,,,,,,,,,,,,,1,001,2025-01-11_16h37.26.291,IAT(Formal),2021.2.3,MacIntel,60.0024001,,,,,,,,,,,,,,,e,1,0.6857,,,,,,我的,e,,,0,43,43,61,1,,,,,,,,,,,,,,,,,,,,,,,,,,,,,,,,,,
,,,,,,,,,,,,,,1,001,2025-01-11_16h37.26.291,IAT(Formal),2021.2.3,MacIntel,60.0024001,,,,,,,,,,,,,,,i,1,1.462,,,,,,自私,i,,,0,44,44,43,1,,,,,,,,,,,,,,,,,,,,,,,,,,,,,,,,,,
,,,,,,,,,,,,,,1,001,2025-01-11_16h37.26.291,IAT(Formal),2021.2.3,MacIntel,60.0024001,,,,,,,,,,,,,,,i,1,0.5835,,,,,,他,i,,,0,45,45,5,1,,,,,,,,,,,,,,,,,,,,,,,,,,,,,,,,,,
,,,,,,,,,,,,,,1,001,2025-01-11_16h37.26.291,IAT(Formal),2021.2.3,MacIntel,60.0024001,,,,,,,,,,,,,,,e,1,0.6023,,,,,,我,e,,,0,46,46,70,1,,,,,,,,,,,,,,,,,,,,,,,,,,,,,,,,,,
,,,,,,,,,,,,,,1,001,2025-01-11_16h37.26.291,IAT(Formal),2021.2.3,MacIntel,60.0024001,,,,,,,,,,,,,,,e,1,0.535,,,,,,自己,e,,,0,47,47,63,1,,,,,,,,,,,,,,,,,,,,,,,,,,,,,,,,,,
,,,,,,,,,,,,,,1,001,2025-01-11_16h37.26.291,IAT(Formal),2021.2.3,MacIntel,60.0024001,,,,,,,,,,,,,,,e,1,0.8179,,,,,,活泼,e,,,0,48,48,28,1,,,,,,,,,,,,,,,,,,,,,,,,,,,,,,,,,,
,,,,,,,,,,,,,,1,001,2025-01-11_16h37.26.291,IAT(Formal),2021.2.3,MacIntel,60.0024001,,,,,,,,,,,,,,,e,1,1.0494,,,,,,俺,e,,,0,49,49,54,1,,,,,,,,,,,,,,,,,,,,,,,,,,,,,,,,,,
,,,,,,,,,,,,,,1,001,2025-01-11_16h37.26.291,IAT(Formal),2021.2.3,MacIntel,60.0024001,,,,,,,,,,,,,,,i,1,0.6511,,,,,,其他,i,,,0,50,50,9,1,,,,,,,,,,,,,,,,,,,,,,,,,,,,,,,,,,
,,,,,,,,,,,,,,1,001,2025-01-11_16h37.26.291,IAT(Formal),2021.2.3,MacIntel,60.0024001,,,,,,,,,,,,,,,i,1,0.6326,,,,,,他的,i,,,0,51,51,67,1,,,,,,,,,,,,,,,,,,,,,,,,,,,,,,,,,,
,,,,,,,,,,,,,,1,001,2025-01-11_16h37.26.291,IAT(Formal),2021.2.3,MacIntel,60.0024001,,,,,,,,,,,,,,,i,1,0.6559,,,,,,冒失,i,,,0,52,52,39,1,,,,,,,,,,,,,,,,,,,,,,,,,,,,,,,,,,
,,,,,,,,,,,,,,1,001,2025-01-11_16h37.26.291,IAT(Formal),2021.2.3,MacIntel,60.0024001,,,,,,,,,,,,,,,i,1,0.6178,,,,,,他,i,,,0,53,53,65,1,,,,,,,,,,,,,,,,,,,,,,,,,,,,,,,,,,
,,,,,,,,,,,,,,1,001,2025-01-11_16h37.26.291,IAT(Formal),2021.2.3,MacIntel,60.0024001,,,,,,,,,,,,,,,i,1,0.6017,,,,,,他的,i,,,0,54,54,7,1,,,,,,,,,,,,,,,,,,,,,,,,,,,,,,,,,,
,,,,,,,,,,,,,,1,001,2025-01-11_16h37.26.291,IAT(Formal),2021.2.3,MacIntel,60.0024001,,,,,,,,,,,,,,,i,1,0.5677,,,,,,下贱,i,,,0,55,55,49,1,,,,,,,,,,,,,,,,,,,,,,,,,,,,,,,,,,
,,,,,,,,,,,,,,1,001,2025-01-11_16h37.26.291,IAT(Formal),2021.2.3,MacIntel,60.0024001,,,,,,,,,,,,,,,i,1,0.5364,,,,,,凶狠,i,,,0,56,56,42,1,,,,,,,,,,,,,,,,,,,,,,,,,,,,,,,,,,
,,,,,,,,,,,,,,1,001,2025-01-11_16h37.26.291,IAT(Formal),2021.2.3,MacIntel,60.0024001,,,,,,,,,,,,,,,e,1,0.6015,,,,,,勤奋,e,,,0,57,57,18,1,,,,,,,,,,,,,,,,,,,,,,,,,,,,,,,,,,
,,,,,,,,,,,,,,1,001,2025-01-11_16h37.26.291,IAT(Formal),2021.2.3,MacIntel,60.0024001,,,,,,,,,,,,,,,i,1,0.6719,,,,,,傲慢,i,,,0,58,58,37,1,,,,,,,,,,,,,,,,,,,,,,,,,,,,,,,,,,
,,,,,,,,,,,,,,1,001,2025-01-11_16h37.26.291,IAT(Formal),2021.2.3,MacIntel,60.0024001,,,,,,,,,,,,,,,i,1,0.5709,,,,,,他人,i,,,0,59,59,58,1,,,,,,,,,,,,,,,,,,,,,,,,,,,,,,,,,,
,,,,,,,,,,,,,,1,001,2025-01-11_16h37.26.291,IAT(Formal),2021.2.3,MacIntel,60.0024001,,,,,,,,,,,,,,,i,1,0.4678,,,,,,他的,i,,,0,60,60,77,1,,,,,,,,,,,,,,,,,,,,,,,,,,,,,,,,,,
,,,,,,,,,,,,,,1,001,2025-01-11_16h37.26.291,IAT(Formal),2021.2.3,MacIntel,60.0024001,,,,,,,,,,,,,,,e,1,0.7174,,,,,,冷静,e,,,0,61,61,26,1,,,,,,,,,,,,,,,,,,,,,,,,,,,,,,,,,,
,,,,,,,,,,,,,,1,001,2025-01-11_16h37.26.291,IAT(Formal),2021.2.3,MacIntel,60.0024001,,,,,,,,,,,,,,,e,1,0.6342,,,,,,稳重,e,,,0,62,62,21,1,,,,,,,,,,,,,,,,,,,,,,,,,,,,,,,,,,
,,,,,,,,,,,,,,1,001,2025-01-11_16h37.26.291,IAT(Formal),2021.2.3,MacIntel,60.0024001,,,,,,,,,,,,,,,e,1,0.5396,,,,,,我们,e,,,0,63,63,2,1,,,,,,,,,,,,,,,,,,,,,,,,,,,,,,,,,,
,,,,,,,,,,,,,,1,001,2025-01-11_16h37.26.291,IAT(Formal),2021.2.3,MacIntel,60.0024001,,,,,,,,,,,,,,,i,1,0.6341,,,,,,他们,i,,,0,64,64,76,1,,,,,,,,,,,,,,,,,,,,,,,,,,,,,,,,,,
,,,,,,,,,,,,,,1,001,2025-01-11_16h37.26.291,IAT(Formal),2021.2.3,MacIntel,60.0024001,,,,,,,,,,,,,,,e,1,0.5673,,,,,,自己,e,,,0,65,65,73,1,,,,,,,,,,,,,,,,,,,,,,,,,,,,,,,,,,
,,,,,,,,,,,,,,1,001,2025-01-11_16h37.26.291,IAT(Formal),2021.2.3,MacIntel,60.0024001,,,,,,,,,,,,,,,e,1,0.5884,,,,,,俺,e,,,0,66,66,74,1,,,,,,,,,,,,,,,,,,,,,,,,,,,,,,,,,,
,,,,,,,,,,,,,,1,001,2025-01-11_16h37.26.291,IAT(Formal),2021.2.3,MacIntel,60.0024001,,,,,,,,,,,,,,,e,1,0.4836,,,,,,俺,e,,,0,67,67,4,1,,,,,,,,,,,,,,,,,,,,,,,,,,,,,,,,,,
,,,,,,,,,,,,,,1,001,2025-01-11_16h37.26.291,IAT(Formal),2021.2.3,MacIntel,60.0024001,,,,,,,,,,,,,,,i,1,0.7343,,,,,,散漫,i,,,0,68,68,41,1,,,,,,,,,,,,,,,,,,,,,,,,,,,,,,,,,,
,,,,,,,,,,,,,,1,001,2025-01-11_16h37.26.291,IAT(Formal),2021.2.3,MacIntel,60.0024001,,,,,,,,,,,,,,,e,1,0.5676,,,,,,我,e,,,0,69,69,60,1,,,,,,,,,,,,,,,,,,,,,,,,,,,,,,,,,,
,,,,,,,,,,,,,,1,001,2025-01-11_16h37.26.291,IAT(Formal),2021.2.3,MacIntel,60.0024001,,,,,,,,,,,,,,,e,1,0.6344,,,,,,诚实,e,,,0,70,70,15,1,,,,,,,,,,,,,,,,,,,,,,,,,,,,,,,,,,
,,,,,,,,,,,,,,1,001,2025-01-11_16h37.26.291,IAT(Formal),2021.2.3,MacIntel,60.0024001,,,,,,,,,,,,,,,e,1,0.5336,,,,,,俺,e,,,0,71,71,64,1,,,,,,,,,,,,,,,,,,,,,,,,,,,,,,,,,,
,,,,,,,,,,,,,,1,001,2025-01-11_16h37.26.291,IAT(Formal),2021.2.3,MacIntel,60.0024001,,,,,,,,,,,,,,,e,1,0.4829,,,,,,我的,e,,,0,72,72,71,1,,,,,,,,,,,,,,,,,,,,,,,,,,,,,,,,,,
,,,,,,,,,,,,,,1,001,2025-01-11_16h37.26.291,IAT(Formal),2021.2.3,MacIntel,60.0024001,,,,,,,,,,,,,,,i,1,0.8895,,,,,,固执,i,,,0,73,73,47,1,,,,,,,,,,,,,,,,,,,,,,,,,,,,,,,,,,
,,,,,,,,,,,,,,1,001,2025-01-11_16h37.26.291,IAT(Formal),2021.2.3,MacIntel,60.0024001,,,,,,,,,,,,,,,e,1,0.7173,,,,,,聪明,e,,,0,74,74,12,1,,,,,,,,,,,,,,,,,,,,,,,,,,,,,,,,,,
,,,,,,,,,,,,,,1,001,2025-01-11_16h37.26.291,IAT(Formal),2021.2.3,MacIntel,60.0024001,,,,,,,,,,,,,,,i,1,0.5504,,,,,,卑鄙,i,,,0,75,75,30,1,,,,,,,,,,,,,,,,,,,,,,,,,,,,,,,,,,
,,,,,,,,,,,,,,1,001,2025-01-11_16h37.26.291,IAT(Formal),2021.2.3,MacIntel,60.0024001,,,,,,,,,,,,,,,i,1,0.6011,,,,,,暴躁,i,,,0,76,76,44,1,,,,,,,,,,,,,,,,,,,,,,,,,,,,,,,,,,
,,,,,,,,,,,,,,1,001,2025-01-11_16h37.26.291,IAT(Formal),2021.2.3,MacIntel,60.0024001,,,,,,,,,,,,,,,e,1,0.5309,,,,,,我的,e,,,0,77,77,51,1,,,,,,,,,,,,,,,,,,,,,,,,,,,,,,,,,,
,,,,,,,,,,,,,,1,001,2025-01-11_16h37.26.291,IAT(Formal),2021.2.3,MacIntel,60.0024001,,,,,,,,,,,,,,,e,1,0.5355,,,,,,我们,e,,,0,78,78,72,1,,,,,,,,,,,,,,,,,,,,,,,,,,,,,,,,,,
,,,,,,,,,,,,,,1,001,2025-01-11_16h37.26.291,IAT(Formal),2021.2.3,MacIntel,60.0024001,,,,,,,,,,,,,,,i,1,0.5019,,,,,,他们,i,,,0,79,79,6,1,,,,,,,,,,,,,,,,,,,,,,,,,,,,,,,,,,
,,,,,,,,,,,,,,1,001,2025-01-11_16h37.26.291,IAT(Formal),2021.2.3,MacIntel,60.0024001,,,,,,,,,,,,,,,e,1,1.1549,,,,,,热情,e,,,1,0,80,27,1,,,,,,,,,,,,,,,,,,,,,,,,,,,,,,,,,,
,,,,,,,,,,,,,,1,001,2025-01-11_16h37.26.291,IAT(Formal),2021.2.3,MacIntel,60.0024001,,,,,,,,,,,,,,,i,1,0.7518,,,,,,其他,i,,,1,1,81,59,1,,,,,,,,,,,,,,,,,,,,,,,,,,,,,,,,,,
,,,,,,,,,,,,,,1,001,2025-01-11_16h37.26.291,IAT(Formal),2021.2.3,MacIntel,60.0024001,,,,,,,,,,,,,,,i,1,0.7352,,,,,,他们,i,,,1,2,82,6,1,,,,,,,,,,,,,,,,,,,,,,,,,,,,,,,,,,
,,,,,,,,,,,,,,1,001,2025-01-11_16h37.26.291,IAT(Formal),2021.2.3,MacIntel,60.0024001,,,,,,,,,,,,,,,i,1,0.6064,,,,,,暴躁,i,,,1,3,83,44,1,,,,,,,,,,,,,,,,,,,,,,,,,,,,,,,,,,
,,,,,,,,,,,,,,1,001,2025-01-11_16h37.26.291,IAT(Formal),2021.2.3,MacIntel,60.0024001,,,,,,,,,,,,,,,e,1,0.8928,,,,,,自己,e,,,1,4,84,63,1,,,,,,,,,,,,,,,,,,,,,,,,,,,,,,,,,,
,,,,,,,,,,,,,,1,001,2025-01-11_16h37.26.291,IAT(Formal),2021.2.3,MacIntel,60.0024001,,,,,,,,,,,,,,,i,1,0.656,,,,,,他人,i,,,1,5,85,58,1,,,,,,,,,,,,,,,,,,,,,,,,,,,,,,,,,,
,,,,,,,,,,,,,,1,001,2025-01-11_16h37.26.291,IAT(Formal),2021.2.3,MacIntel,60.0024001,,,,,,,,,,,,,,,e,1,0.5328,,,,,,我,e,,,1,6,86,60,1,,,,,,,,,,,,,,,,,,,,,,,,,,,,,,,,,,
,,,,,,,,,,,,,,1,001,2025-01-11_16h37.26.291,IAT(Formal),2021.2.3,MacIntel,60.0024001,,,,,,,,,,,,,,,i,1,0.6204,,,,,,他的,i,,,1,7,87,57,1,,,,,,,,,,,,,,,,,,,,,,,,,,,,,,,,,,
,,,,,,,,,,,,,,1,001,2025-01-11_16h37.26.291,IAT(Formal),2021.2.3,MacIntel,60.0024001,,,,,,,,,,,,,,,i,1,0.7178,,,,,,自卑,i,,,1,8,88,36,1,,,,,,,,,,,,,,,,,,,,,,,,,,,,,,,,,,
,,,,,,,,,,,,,,1,001,2025-01-11_16h37.26.291,IAT(Formal),2021.2.3,MacIntel,60.0024001,,,,,,,,,,,,,,,i,1,0.5223,,,,,,凶狠,i,,,1,9,89,42,1,,,,,,,,,,,,,,,,,,,,,,,,,,,,,,,,,,
,,,,,,,,,,,,,,1,001,2025-01-11_16h37.26.291,IAT(Formal),2021.2.3,MacIntel,60.0024001,,,,,,,,,,,,,,,i,1,0.6001,,,,,,其他,i,,,1,10,90,9,1,,,,,,,,,,,,,,,,,,,,,,,,,,,,,,,,,,
,,,,,,,,,,,,,,1,001,2025-01-11_16h37.26.291,IAT(Formal),2021.2.3,MacIntel,60.0024001,,,,,,,,,,,,,,,e,1,1.3674,,,,,,冷静,e,,,1,11,91,26,1,,,,,,,,,,,,,,,,,,,,,,,,,,,,,,,,,,
,,,,,,,,,,,,,,1,001,2025-01-11_16h37.26.291,IAT(Formal),2021.2.3,MacIntel,60.0024001,,,,,,,,,,,,,,,i,1,0.9422,,,,,,他的,i,,,1,12,92,7,1,,,,,,,,,,,,,,,,,,,,,,,,,,,,,,,,,,
,,,,,,,,,,,,,,1,001,2025-01-11_16h37.26.291,IAT(Formal),2021.2.3,MacIntel,60.0024001,,,,,,,,,,,,,,,i,1,0.8719,,,,,,他,i,,,1,13,93,65,1,,,,,,,,,,,,,,,,,,,,,,,,,,,,,,,,,,
,,,,,,,,,,,,,,1,001,2025-01-11_16h37.26.291,IAT(Formal),2021.2.3,MacIntel,60.0024001,,,,,,,,,,,,,,,i,1,0.5673,,,,,,他人,i,,,1,14,94,78,1,,,,,,,,,,,,,,,,,,,,,,,,,,,,,,,,,,
,,,,,,,,,,,,,,1,001,2025-01-11_16h37.26.291,IAT(Formal),2021.2.3,MacIntel,60.0024001,,,,,,,,,,,,,,,e,1,0.6842,,,,,,优秀,e,,,1,15,95,10,1,,,,,,,,,,,,,,,,,,,,,,,,,,,,,,,,,,
,,,,,,,,,,,,,,1,001,2025-01-11_16h37.26.291,IAT(Formal),2021.2.3,MacIntel,60.0024001,,,,,,,,,,,,,,,e,1,1.1545,,,,,,活泼,e,,,1,16,96,28,1,,,,,,,,,,,,,,,,,,,,,,,,,,,,,,,,,,
,,,,,,,,,,,,,,1,001,2025-01-11_16h37.26.291,IAT(Formal),2021.2.3,MacIntel,60.0024001,,,,,,,,,,,,,,,e,1,0.5023,,,,,,我的,e,,,1,17,97,71,1,,,,,,,,,,,,,,,,,,,,,,,,,,,,,,,,,,
,,,,,,,,,,,,,,1,001,2025-01-11_16h37.26.291,IAT(Formal),2021.2.3,MacIntel,60.0024001,,,,,,,,,,,,,,,i,1,0.5671,,,,,,下贱,i,,,1,18,98,49,1,,,,,,,,,,,,,,,,,,,,,,,,,,,,,,,,,,
,,,,,,,,,,,,,,1,001,2025-01-11_16h37.26.291,IAT(Formal),2021.2.3,MacIntel,60.0024001,,,,,,,,,,,,,,,i,1,0.6689,,,,,,其他,i,,,1,19,99,69,1,,,,,,,,,,,,,,,,,,,,,,,,,,,,,,,,,,
,,,,,,,,,,,,,,1,001,2025-01-11_16h37.26.291,IAT(Formal),2021.2.3,MacIntel,60.0024001,,,,,,,,,,,,,,,e,1,0.6313,,,,,,我,e,,,1,20,100,70,1,,,,,,,,,,,,,,,,,,,,,,,,,,,,,,,,,,
,,,,,,,,,,,,,,1,001,2025-01-11_16h37.26.291,IAT(Formal),2021.2.3,MacIntel,60.0024001,,,,,,,,,,,,,,,e,1,0.9059,,,,,,聪明,e,,,1,21,101,12,1,,,,,,,,,,,,,,,,,,,,,,,,,,,,,,,,,,
,,,,,,,,,,,,,,1,001,2025-01-11_16h37.26.291,IAT(Formal),2021.2.3,MacIntel,60.0024001,,,,,,,,,,,,,,,i,1,0.7039,,,,,,刻薄,i,,,1,22,102,33,1,,,,,,,,,,,,,,,,,,,,,,,,,,,,,,,,,,
,,,,,,,,,,,,,,1,001,2025-01-11_16h37.26.291,IAT(Formal),2021.2.3,MacIntel,60.0024001,,,,,,,,,,,,,,,e,1,0.5676,,,,,,我的,e,,,1,23,103,1,1,,,,,,,,,,,,,,,,,,,,,,,,,,,,,,,,,,
,,,,,,,,,,,,,,1,001,2025-01-11_16h37.26.291,IAT(Formal),2021.2.3,MacIntel,60.0024001,,,,,,,,,,,,,,,e,1,0.8017,,,,,,勤奋,e,,,1,24,104,18,1,,,,,,,,,,,,,,,,,,,,,,,,,,,,,,,,,,
,,,,,,,,,,,,,,1,001,2025-01-11_16h37.26.291,IAT(Formal),2021.2.3,MacIntel,60.0024001,,,,,,,,,,,,,,,i,1,0.6169,,,,,,他人,i,,,1,25,105,68,1,,,,,,,,,,,,,,,,,,,,,,,,,,,,,,,,,,
,,,,,,,,,,,,,,1,001,2025-01-11_16h37.26.291,IAT(Formal),2021.2.3,MacIntel,60.0024001,,,,,,,,,,,,,,,e,1,0.617,,,,,,俺,e,,,1,26,106,74,1,,,,,,,,,,,,,,,,,,,,,,,,,,,,,,,,,,
,,,,,,,,,,,,,,1,001,2025-01-11_16h37.26.291,IAT(Formal),2021.2.3,MacIntel,60.0024001,,,,,,,,,,,,,,,i,0,0.7512,,,,,,我们,e,,,1,27,107,72,1,,,,,,,,,,,,,,,,,,,,,,,,,,,,,,,,,,
,,,,,,,,,,,,,,1,001,2025-01-11_16h37.26.291,IAT(Formal),2021.2.3,MacIntel,60.0024001,,,,,,,,,,,,,,,e,1,0.5513,,,,,,俺,e,,,1,28,108,4,1,,,,,,,,,,,,,,,,,,,,,,,,,,,,,,,,,,
,,,,,,,,,,,,,,1,001,2025-01-11_16h37.26.291,IAT(Formal),2021.2.3,MacIntel,60.0024001,,,,,,,,,,,,,,,e,1,0.722,,,,,,机智,e,,,1,29,109,19,1,,,,,,,,,,,,,,,,,,,,,,,,,,,,,,,,,,
,,,,,,,,,,,,,,1,001,2025-01-11_16h37.26.291,IAT(Formal),2021.2.3,MacIntel,60.0024001,,,,,,,,,,,,,,,i,1,0.684,,,,,,消极,i,,,1,30,110,35,1,,,,,,,,,,,,,,,,,,,,,,,,,,,,,,,,,,
,,,,,,,,,,,,,,1,001,2025-01-11_16h37.26.291,IAT(Formal),2021.2.3,MacIntel,60.0024001,,,,,,,,,,,,,,,i,1,0.9162,,,,,,悲观,i,,,1,31,111,34,1,,,,,,,,,,,,,,,,,,,,,,,,,,,,,,,,,,
,,,,,,,,,,,,,,1,001,2025-01-11_16h37.26.291,IAT(Formal),2021.2.3,MacIntel,60.0024001,,,,,,,,,,,,,,,i,1,0.5336,,,,,,野蛮,i,,,1,32,112,46,1,,,,,,,,,,,,,,,,,,,,,,,,,,,,,,,,,,
,,,,,,,,,,,,,,1,001,2025-01-11_16h37.26.291,IAT(Formal),2021.2.3,MacIntel,60.0024001,,,,,,,,,,,,,,,e,1,0.6014,,,,,,乐观,e,,,1,33,113,14,1,,,,,,,,,,,,,,,,,,,,,,,,,,,,,,,,,,
,,,,,,,,,,,,,,1,001,2025-01-11_16h37.26.291,IAT(Formal),2021.2.3,MacIntel,60.0024001,,,,,,,,,,,,,,,e,1,0.5722,,,,,,公正,e,,,1,34,114,23,1,,,,,,,,,,,,,,,,,,,,,,,,,,,,,,,,,,
,,,,,,,,,,,,,,1,001,2025-01-11_16h37.26.291,IAT(Formal),2021.2.3,MacIntel,60.0024001,,,,,,,,,,,,,,,e,1,0.616,,,,,,诚实,e,,,1,35,115,15,1,,,,,,,,,,,,,,,,,,,,,,,,,,,,,,,,,,
,,,,,,,,,,,,,,1,001,2025-01-11_16h37.26.291,IAT(Formal),2021.2.3,MacIntel,60.0024001,,,,,,,,,,,,,,,i,1,0.6008,,,,,,散漫,i,,,1,36,116,41,1,,,,,,,,,,,,,,,,,,,,,,,,,,,,,,,,,,
,,,,,,,,,,,,,,1,001,2025-01-11_16h37.26.291,IAT(Formal),2021.2.3,MacIntel,60.0024001,,,,,,,,,,,,,,,i,1,0.7664,,,,,,他们,i,,,1,37,117,66,1,,,,,,,,,,,,,,,,,,,,,,,,,,,,,,,,,,
,,,,,,,,,,,,,,1,001,2025-01-11_16h37.26.291,IAT(Formal),2021.2.3,MacIntel,60.0024001,,,,,,,,,,,,,,,e,1,0.6734,,,,,,诚恳,e,,,1,38,118,29,1,,,,,,,,,,,,,,,,,,,,,,,,,,,,,,,,,,
,,,,,,,,,,,,,,1,001,2025-01-11_16h37.26.291,IAT(Formal),2021.2.3,MacIntel,60.0024001,,,,,,,,,,,,,,,i,1,0.7394,,,,,,他们,i,,,1,39,119,76,1,,,,,,,,,,,,,,,,,,,,,,,,,,,,,,,,,,
,,,,,,,,,,,,,,1,001,2025-01-11_16h37.26.291,IAT(Formal),2021.2.3,MacIntel,60.0024001,,,,,,,,,,,,,,,e,1,1,,,,,,细腻,e,,,1,40,120,25,1,,,,,,,,,,,,,,,,,,,,,,,,,,,,,,,,,,
,,,,,,,,,,,,,,1,001,2025-01-11_16h37.26.291,IAT(Formal),2021.2.3,MacIntel,60.0024001,,,,,,,,,,,,,,,i,1,0.6503,,,,,,鲁莽,i,,,1,41,121,38,1,,,,,,,,,,,,,,,,,,,,,,,,,,,,,,,,,,
,,,,,,,,,,,,,,1,001,2025-01-11_16h37.26.291,IAT(Formal),2021.2.3,MacIntel,60.0024001,,,,,,,,,,,,,,,i,1,0.6009,,,,,,其他,i,,,1,42,122,79,1,,,,,,,,,,,,,,,,,,,,,,,,,,,,,,,,,,
,,,,,,,,,,,,,,1,001,2025-01-11_16h37.26.291,IAT(Formal),2021.2.3,MacIntel,60.0024001,,,,,,,,,,,,,,,i,1,0.7171,,,,,,猖狂,i,,,1,43,123,45,1,,,,,,,,,,,,,,,,,,,,,,,,,,,,,,,,,,
,,,,,,,,,,,,,,1,001,2025-01-11_16h37.26.291,IAT(Formal),2021.2.3,MacIntel,60.0024001,,,,,,,,,,,,,,,e,1,0.6206,,,,,,我的,e,,,1,44,124,61,1,,,,,,,,,,,,,,,,,,,,,,,,,,,,,,,,,,
,,,,,,,,,,,,,,1,001,2025-01-11_16h37.26.291,IAT(Formal),2021.2.3,MacIntel,60.0024001,,,,,,,,,,,,,,,e,1,0.6006,,,,,,自己,e,,,1,45,125,73,1,,,,,,,,,,,,,,,,,,,,,,,,,,,,,,,,,,
,,,,,,,,,,,,,,1,001,2025-01-11_16h37.26.291,IAT(Formal),2021.2.3,MacIntel,60.0024001,,,,,,,,,,,,,,,i,1,0.7001,,,,,,他的,i,,,1,46,126,67,1,,,,,,,,,,,,,,,,,,,,,,,,,,,,,,,,,,
,,,,,,,,,,,,,,1,001,2025-01-11_16h37.26.291,IAT(Formal),2021.2.3,MacIntel,60.0024001,,,,,,,,,,,,,,,i,1,0.5352,,,,,,他,i,,,1,47,127,75,1,,,,,,,,,,,,,,,,,,,,,,,,,,,,,,,,,,
,,,,,,,,,,,,,,1,001,2025-01-11_16h37.26.291,IAT(Formal),2021.2.3,MacIntel,60.0024001,,,,,,,,,,,,,,,i,1,1.0242,,,,,,冒失,i,,,1,48,128,39,1,,,,,,,,,,,,,,,,,,,,,,,,,,,,,,,,,,
,,,,,,,,,,,,,,1,001,2025-01-11_16h37.26.291,IAT(Formal),2021.2.3,MacIntel,60.0024001,,,,,,,,,,,,,,,e,1,1.3348,,,,,,朴实,e,,,1,49,129,24,1,,,,,,,,,,,,,,,,,,,,,,,,,,,,,,,,,,
,,,,,,,,,,,,,,1,001,2025-01-11_16h37.26.291,IAT(Formal),2021.2.3,MacIntel,60.0024001,,,,,,,,,,,,,,,e,1,0.6162,,,,,,杰出,e,,,1,50,130,13,1,,,,,,,,,,,,,,,,,,,,,,,,,,,,,,,,,,
,,,,,,,,,,,,,,1,001,2025-01-11_16h37.26.291,IAT(Formal),2021.2.3,MacIntel,60.0024001,,,,,,,,,,,,,,,i,1,0.6423,,,,,,愚蠢,i,,,1,51,131,32,1,,,,,,,,,,,,,,,,,,,,,,,,,,,,,,,,,,
,,,,,,,,,,,,,,1,001,2025-01-11_16h37.26.291,IAT(Formal),2021.2.3,MacIntel,60.0024001,,,,,,,,,,,,,,,e,1,0.4822,,,,,,我,e,,,1,52,132,50,1,,,,,,,,,,,,,,,,,,,,,,,,,,,,,,,,,,
,,,,,,,,,,,,,,1,001,2025-01-11_16h37.26.291,IAT(Formal),2021.2.3,MacIntel,60.0024001,,,,,,,,,,,,,,,i,1,0.8516,,,,,,他的,i,,,1,53,133,77,1,,,,,,,,,,,,,,,,,,,,,,,,,,,,,,,,,,
,,,,,,,,,,,,,,1,001,2025-01-11_16h37.26.291,IAT(Formal),2021.2.3,MacIntel,60.0024001,,,,,,,,,,,,,,,i,1,0.6055,,,,,,他,i,,,1,54,134,5,1,,,,,,,,,,,,,,,,,,,,,,,,,,,,,,,,,,
,,,,,,,,,,,,,,1,001,2025-01-11_16h37.26.291,IAT(Formal),2021.2.3,MacIntel,60.0024001,,,,,,,,,,,,,,,e,1,0.5418,,,,,,俺,e,,,1,55,135,54,1,,,,,,,,,,,,,,,,,,,,,,,,,,,,,,,,,,
,,,,,,,,,,,,,,1,001,2025-01-11_16h37.26.291,IAT(Formal),2021.2.3,MacIntel,60.0024001,,,,,,,,,,,,,,,i,1,0.6362,,,,,,他们,i,,,1,56,136,56,1,,,,,,,,,,,,,,,,,,,,,,,,,,,,,,,,,,
,,,,,,,,,,,,,,1,001,2025-01-11_16h37.26.291,IAT(Formal),2021.2.3,MacIntel,60.0024001,,,,,,,,,,,,,,,e,1,0.6347,,,,,,无私,e,,,1,57,137,22,1,,,,,,,,,,,,,,,,,,,,,,,,,,,,,,,,,,
,,,,,,,,,,,,,,1,001,2025-01-11_16h37.26.291,IAT(Formal),2021.2.3,MacIntel,60.0024001,,,,,,,,,,,,,,,e,1,0.6684,,,,,,崇高,e,,,1,58,138,11,1,,,,,,,,,,,,,,,,,,,,,,,,,,,,,,,,,,
,,,,,,,,,,,,,,1,001,2025-01-11_16h37.26.291,IAT(Formal),2021.2.3,MacIntel,60.0024001,,,,,,,,,,,,,,,i,1,0.6541,,,,,,虚伪,i,,,1,59,139,31,1,,,,,,,,,,,,,,,,,,,,,,,,,,,,,,,,,,
,,,,,,,,,,,,,,1,001,2025-01-11_16h37.26.291,IAT(Formal),2021.2.3,MacIntel,60.0024001,,,,,,,,,,,,,,,e,1,0.6174,,,,,,我的,e,,,1,60,140,51,1,,,,,,,,,,,,,,,,,,,,,,,,,,,,,,,,,,
,,,,,,,,,,,,,,1,001,2025-01-11_16h37.26.291,IAT(Formal),2021.2.3,MacIntel,60.0024001,,,,,,,,,,,,,,,e,1,0.556,,,,,,俺,e,,,1,61,141,64,1,,,,,,,,,,,,,,,,,,,,,,,,,,,,,,,,,,
,,,,,,,,,,,,,,1,001,2025-01-11_16h37.26.291,IAT(Formal),2021.2.3,MacIntel,60.0024001,,,,,,,,,,,,,,,i,1,1.0165,,,,,,卑鄙,i,,,1,62,142,30,1,,,,,,,,,,,,,,,,,,,,,,,,,,,,,,,,,,
,,,,,,,,,,,,,,1,001,2025-01-11_16h37.26.291,IAT(Formal),2021.2.3,MacIntel,60.0024001,,,,,,,,,,,,,,,e,1,1.0448,,,,,,认真,e,,,1,63,143,20,1,,,,,,,,,,,,,,,,,,,,,,,,,,,,,,,,,,
,,,,,,,,,,,,,,1,001,2025-01-11_16h37.26.291,IAT(Formal),2021.2.3,MacIntel,60.0024001,,,,,,,,,,,,,,,i,1,1.0328,,,,,,傲慢,i,,,1,64,144,37,1,,,,,,,,,,,,,,,,,,,,,,,,,,,,,,,,,,
,,,,,,,,,,,,,,1,001,2025-01-11_16h37.26.291,IAT(Formal),2021.2.3,MacIntel,60.0024001,,,,,,,,,,,,,,,e,1,0.6515,,,,,,我们,e,,,1,65,145,2,1,,,,,,,,,,,,,,,,,,,,,,,,,,,,,,,,,,
,,,,,,,,,,,,,,1,001,2025-01-11_16h37.26.291,IAT(Formal),2021.2.3,MacIntel,60.0024001,,,,,,,,,,,,,,,e,1,0.6163,,,,,,我们,e,,,1,66,146,62,1,,,,,,,,,,,,,,,,,,,,,,,,,,,,,,,,,,
,,,,,,,,,,,,,,1,001,2025-01-11_16h37.26.291,IAT(Formal),2021.2.3,MacIntel,60.0024001,,,,,,,,,,,,,,,i,1,1.1172,,,,,,轻率,i,,,1,67,147,48,1,,,,,,,,,,,,,,,,,,,,,,,,,,,,,,,,,,
,,,,,,,,,,,,,,1,001,2025-01-11_16h37.26.291,IAT(Formal),2021.2.3,MacIntel,60.0024001,,,,,,,,,,,,,,,e,1,0.6834,,,,,,我们,e,,,1,68,148,52,1,,,,,,,,,,,,,,,,,,,,,,,,,,,,,,,,,,
,,,,,,,,,,,,,,1,001,2025-01-11_16h37.26.291,IAT(Formal),2021.2.3,MacIntel,60.0024001,,,,,,,,,,,,,,,e,1,0.7369,,,,,,自己,e,,,1,69,149,53,1,,,,,,,,,,,,,,,,,,,,,,,,,,,,,,,,,,
,,,,,,,,,,,,,,1,001,2025-01-11_16h37.26.291,IAT(Formal),2021.2.3,MacIntel,60.0024001,,,,,,,,,,,,,,,i,1,0.7462,,,,,,执拗,i,,,1,70,150,40,1,,,,,,,,,,,,,,,,,,,,,,,,,,,,,,,,,,
,,,,,,,,,,,,,,1,001,2025-01-11_16h37.26.291,IAT(Formal),2021.2.3,MacIntel,60.0024001,,,,,,,,,,,,,,,e,0,0.5179,,,,,,自私,i,,,1,71,151,43,1,,,,,,,,,,,,,,,,,,,,,,,,,,,,,,,,,,
,,,,,,,,,,,,,,1,001,2025-01-11_16h37.26.291,IAT(Formal),2021.2.3,MacIntel,60.0024001,,,,,,,,,,,,,,,i,1,0.802,,,,,,固执,i,,,1,72,152,47,1,,,,,,,,,,,,,,,,,,,,,,,,,,,,,,,,,,
,,,,,,,,,,,,,,1,001,2025-01-11_16h37.26.291,IAT(Formal),2021.2.3,MacIntel,60.0024001,,,,,,,,,,,,,,,e,1,0.9333,,,,,,勇敢,e,,,1,73,153,17,1,,,,,,,,,,,,,,,,,,,,,,,,,,,,,,,,,,
,,,,,,,,,,,,,,1,001,2025-01-11_16h37.26.291,IAT(Formal),2021.2.3,MacIntel,60.0024001,,,,,,,,,,,,,,,e,1,0.5554,,,,,,我,e,,,1,74,154,0,1,,,,,,,,,,,,,,,,,,,,,,,,,,,,,,,,,,
,,,,,,,,,,,,,,1,001,2025-01-11_16h37.26.291,IAT(Formal),2021.2.3,MacIntel,60.0024001,,,,,,,,,,,,,,,e,1,1.4334,,,,,,自己,e,,,1,75,155,3,1,,,,,,,,,,,,,,,,,,,,,,,,,,,,,,,,,,
,,,,,,,,,,,,,,1,001,2025-01-11_16h37.26.291,IAT(Formal),2021.2.3,MacIntel,60.0024001,,,,,,,,,,,,,,,e,1,0.5989,,,,,,稳重,e,,,1,76,156,21,1,,,,,,,,,,,,,,,,,,,,,,,,,,,,,,,,,,
,,,,,,,,,,,,,,1,001,2025-01-11_16h37.26.291,IAT(Formal),2021.2.3,MacIntel,60.0024001,,,,,,,,,,,,,,,i,1,0.5999,,,,,,他,i,,,1,77,157,55,1,,,,,,,,,,,,,,,,,,,,,,,,,,,,,,,,,,
,,,,,,,,,,,,,,1,001,2025-01-11_16h37.26.291,IAT(Formal),2021.2.3,MacIntel,60.0024001,,,,,,,,,,,,,,,i,1,0.5832,,,,,,他人,i,,,1,78,158,8,1,,,,,,,,,,,,,,,,,,,,,,,,,,,,,,,,,,
,,,,,,,,,,,,,,1,001,2025-01-11_16h37.26.291,IAT(Formal),2021.2.3,MacIntel,60.0024001,,,,,,,,,,,,,,,e,1,0.567,,,,,,正直,e,,,1,79,159,16,1,,,,,,,,,,,,,,,,,,,,,,,,,,,,,,,,,,
,,,,,,,,,,,,其他,e,1,001,2025-01-11_16h37.26.291,IAT(Formal),2021.2.3,MacIntel,60.0024001,,,,,,,,,,,,,,,,,,,,,,,,,,,,,,,,space,19.5676,e,1,0.6502,0,0,0,9,1,,,,,,,,,,,,,,,,,,,,,,,,
,,,,,,,,,,,,他的,e,1,001,2025-01-11_16h37.26.291,IAT(Formal),2021.2.3,MacIntel,60.0024001,,,,,,,,,,,,,,,,,,,,,,,,,,,,,,,,,,e,1,0.5207,0,1,1,7,1,,,,,,,,,,,,,,,,,,,,,,,,
,,,,,,,,,,,,他,e,1,001,2025-01-11_16h37.26.291,IAT(Formal),2021.2.3,MacIntel,60.0024001,,,,,,,,,,,,,,,,,,,,,,,,,,,,,,,,,,e,1,0.6072,0,2,2,5,1,,,,,,,,,,,,,,,,,,,,,,,,
,,,,,,,,,,,,我,i,1,001,2025-01-11_16h37.26.291,IAT(Formal),2021.2.3,MacIntel,60.0024001,,,,,,,,,,,,,,,,,,,,,,,,,,,,,,,,,,i,1,0.5018,0,3,3,0,1,,,,,,,,,,,,,,,,,,,,,,,,
,,,,,,,,,,,,俺,i,1,001,2025-01-11_16h37.26.291,IAT(Formal),2021.2.3,MacIntel,60.0024001,,,,,,,,,,,,,,,,,,,,,,,,,,,,,,,,,,i,1,0.5676,0,4,4,4,1,,,,,,,,,,,,,,,,,,,,,,,,
,,,,,,,,,,,,他们,e,1,001,2025-01-11_16h37.26.291,IAT(Formal),2021.2.3,MacIntel,60.0024001,,,,,,,,,,,,,,,,,,,,,,,,,,,,,,,,,,e,1,0.6168,0,5,5,6,1,,,,,,,,,,,,,,,,,,,,,,,,
,,,,,,,,,,,,他人,e,1,001,2025-01-11_16h37.26.291,IAT(Formal),2021.2.3,MacIntel,60.0024001,,,,,,,,,,,,,,,,,,,,,,,,,,,,,,,,,,e,1,0.5006,0,6,6,8,1,,,,,,,,,,,,,,,,,,,,,,,,
,,,,,,,,,,,,自己,i,1,001,2025-01-11_16h37.26.291,IAT(Formal),2021.2.3,MacIntel,60.0024001,,,,,,,,,,,,,,,,,,,,,,,,,,,,,,,,,,i,1,0.4841,0,7,7,3,1,,,,,,,,,,,,,,,,,,,,,,,,
,,,,,,,,,,,,我的,i,1,001,2025-01-11_16h37.26.291,IAT(Formal),2021.2.3,MacIntel,60.0024001,,,,,,,,,,,,,,,,,,,,,,,,,,,,,,,,,,i,1,0.5416,0,8,8,1,1,,,,,,,,,,,,,,,,,,,,,,,,
,,,,,,,,,,,,我们,i,1,001,2025-01-11_16h37.26.291,IAT(Formal),2021.2.3,MacIntel,60.0024001,,,,,,,,,,,,,,,,,,,,,,,,,,,,,,,,,,i,1,0.6843,0,9,9,2,1,,,,,,,,,,,,,,,,,,,,,,,,
,,,,,,,,,,,,,,1,001,2025-01-11_16h37.26.291,IAT(Formal),2021.2.3,MacIntel,60.0024001,,,,,,,,,,,,,,,,,,,,,,,,,,,,,,,,,,,,,,,,,,space,4.7649,i,1,0.8588,0,0,0,2,1,我们,i,,,,,,,,,,,,
,,,,,,,,,,,,,,1,001,2025-01-11_16h37.26.291,IAT(Formal),2021.2.3,MacIntel,60.0024001,,,,,,,,,,,,,,,,,,,,,,,,,,,,,,,,,,,,,,,,,,,,i,1,0.618,0,1,1,64,1,俺,i,,,,,,,,,,,,
,,,,,,,,,,,,,,1,001,2025-01-11_16h37.26.291,IAT(Formal),2021.2.3,MacIntel,60.0024001,,,,,,,,,,,,,,,,,,,,,,,,,,,,,,,,,,,,,,,,,,,,e,1,0.6226,0,2,2,77,1,他的,e,,,,,,,,,,,,
,,,,,,,,,,,,,,1,001,2025-01-11_16h37.26.291,IAT(Formal),2021.2.3,MacIntel,60.0024001,,,,,,,,,,,,,,,,,,,,,,,,,,,,,,,,,,,,,,,,,,,,i,0,0.7178,0,3,3,19,1,机智,e,,,,,,,,,,,,
,,,,,,,,,,,,,,1,001,2025-01-11_16h37.26.291,IAT(Formal),2021.2.3,MacIntel,60.0024001,,,,,,,,,,,,,,,,,,,,,,,,,,,,,,,,,,,,,,,,,,,,i,1,0.634,0,4,4,60,1,我,i,,,,,,,,,,,,
,,,,,,,,,,,,,,1,001,2025-01-11_16h37.26.291,IAT(Formal),2021.2.3,MacIntel,60.0024001,,,,,,,,,,,,,,,,,,,,,,,,,,,,,,,,,,,,,,,,,,,,e,1,0.6178,0,5,5,10,1,优秀,e,,,,,,,,,,,,
,,,,,,,,,,,,,,1,001,2025-01-11_16h37.26.291,IAT(Formal),2021.2.3,MacIntel,60.0024001,,,,,,,,,,,,,,,,,,,,,,,,,,,,,,,,,,,,,,,,,,,,e,1,0.5921,0,6,6,8,1,他人,e,,,,,,,,,,,,
,,,,,,,,,,,,,,1,001,2025-01-11_16h37.26.291,IAT(Formal),2021.2.3,MacIntel,60.0024001,,,,,,,,,,,,,,,,,,,,,,,,,,,,,,,,,,,,,,,,,,,,i,0,0.6651,0,7,7,17,1,勇敢,e,,,,,,,,,,,,
,,,,,,,,,,,,,,1,001,2025-01-11_16h37.26.291,IAT(Formal),2021.2.3,MacIntel,60.0024001,,,,,,,,,,,,,,,,,,,,,,,,,,,,,,,,,,,,,,,,,,,,e,0,0.6678,0,8,8,49,1,下贱,i,,,,,,,,,,,,
,,,,,,,,,,,,,,1,001,2025-01-11_16h37.26.291,IAT(Formal),2021.2.3,MacIntel,60.0024001,,,,,,,,,,,,,,,,,,,,,,,,,,,,,,,,,,,,,,,,,,,,e,1,0.8377,0,9,9,15,1,诚实,e,,,,,,,,,,,,
,,,,,,,,,,,,,,1,001,2025-01-11_16h37.26.291,IAT(Formal),2021.2.3,MacIntel,60.0024001,,,,,,,,,,,,,,,,,,,,,,,,,,,,,,,,,,,,,,,,,,,,i,1,0.7009,0,10,10,72,1,我们,i,,,,,,,,,,,,
,,,,,,,,,,,,,,1,001,2025-01-11_16h37.26.291,IAT(Formal),2021.2.3,MacIntel,60.0024001,,,,,,,,,,,,,,,,,,,,,,,,,,,,,,,,,,,,,,,,,,,,i,1,0.5998,0,11,11,41,1,散漫,i,,,,,,,,,,,,
,,,,,,,,,,,,,,1,001,2025-01-11_16h37.26.291,IAT(Formal),2021.2.3,MacIntel,60.0024001,,,,,,,,,,,,,,,,,,,,,,,,,,,,,,,,,,,,,,,,,,,,e,1,0.9092,0,12,12,65,1,他,e,,,,,,,,,,,,
,,,,,,,,,,,,,,1,001,2025-01-11_16h37.26.291,IAT(Formal),2021.2.3,MacIntel,60.0024001,,,,,,,,,,,,,,,,,,,,,,,,,,,,,,,,,,,,,,,,,,,,i,1,0.8255,0,13,13,52,1,我们,i,,,,,,,,,,,,
,,,,,,,,,,,,,,1,001,2025-01-11_16h37.26.291,IAT(Formal),2021.2.3,MacIntel,60.0024001,,,,,,,,,,,,,,,,,,,,,,,,,,,,,,,,,,,,,,,,,,,,i,1,0.6671,0,14,14,48,1,轻率,i,,,,,,,,,,,,
,,,,,,,,,,,,,,1,001,2025-01-11_16h37.26.291,IAT(Formal),2021.2.3,MacIntel,60.0024001,,,,,,,,,,,,,,,,,,,,,,,,,,,,,,,,,,,,,,,,,,,,e,1,1.3355,0,15,15,58,1,他人,e,,,,,,,,,,,,
,,,,,,,,,,,,,,1,001,2025-01-11_16h37.26.291,IAT(Formal),2021.2.3,MacIntel,60.0024001,,,,,,,,,,,,,,,,,,,,,,,,,,,,,,,,,,,,,,,,,,,,i,1,0.7186,0,16,16,3,1,自己,i,,,,,,,,,,,,
,,,,,,,,,,,,,,1,001,2025-01-11_16h37.26.291,IAT(Formal),2021.2.3,MacIntel,60.0024001,,,,,,,,,,,,,,,,,,,,,,,,,,,,,,,,,,,,,,,,,,,,,0,,0,17,17,37,1,傲慢,i,,,,,,,,,,,,
,,,,,,,,,,,,,,1,001,2025-01-11_16h37.26.291,IAT(Formal),2021.2.3,MacIntel,60.0024001,,,,,,,,,,,,,,,,,,,,,,,,,,,,,,,,,,,,,,,,,,,,,0,,0,18,18,23,1,公正,e,,,,,,,,,,,,
,,,,,,,,,,,,,,1,001,2025-01-11_16h37.26.291,IAT(Formal),2021.2.3,MacIntel,60.0024001,,,,,,,,,,,,,,,,,,,,,,,,,,,,,,,,,,,,,,,,,,,,i,0,0.7505,0,19,19,22,1,无私,e,,,,,,,,,,,,
,,,,,,,,,,,,,,1,001,2025-01-11_16h37.26.291,IAT(Formal),2021.2.3,MacIntel,60.0024001,,,,,,,,,,,,,,,,,,,,,,,,,,,,,,,,,,,,,,,,,,,,e,1,1.0511,0,20,20,9,1,其他,e,,,,,,,,,,,,
,,,,,,,,,,,,,,1,001,2025-01-11_16h37.26.291,IAT(Formal),2021.2.3,MacIntel,60.0024001,,,,,,,,,,,,,,,,,,,,,,,,,,,,,,,,,,,,,,,,,,,,i,1,0.6058,0,21,21,71,1,我的,i,,,,,,,,,,,,
,,,,,,,,,,,,,,1,001,2025-01-11_16h37.26.291,IAT(Formal),2021.2.3,MacIntel,60.0024001,,,,,,,,,,,,,,,,,,,,,,,,,,,,,,,,,,,,,,,,,,,,i,1,0.6684,0,22,22,53,1,自己,i,,,,,,,,,,,,
,,,,,,,,,,,,,,1,001,2025-01-11_16h37.26.291,IAT(Formal),2021.2.3,MacIntel,60.0024001,,,,,,,,,,,,,,,,,,,,,,,,,,,,,,,,,,,,,,,,,,,,i,1,0.5516,0,23,23,61,1,我的,i,,,,,,,,,,,,
,,,,,,,,,,,,,,1,001,2025-01-11_16h37.26.291,IAT(Formal),2021.2.3,MacIntel,60.0024001,,,,,,,,,,,,,,,,,,,,,,,,,,,,,,,,,,,,,,,,,,,,i,1,0.617,0,24,24,4,1,俺,i,,,,,,,,,,,,
,,,,,,,,,,,,,,1,001,2025-01-11_16h37.26.291,IAT(Formal),2021.2.3,MacIntel,60.0024001,,,,,,,,,,,,,,,,,,,,,,,,,,,,,,,,,,,,,,,,,,,,e,1,0.6336,0,25,25,55,1,他,e,,,,,,,,,,,,
,,,,,,,,,,,,,,1,001,2025-01-11_16h37.26.291,IAT(Formal),2021.2.3,MacIntel,60.0024001,,,,,,,,,,,,,,,,,,,,,,,,,,,,,,,,,,,,,,,,,,,,e,1,0.6501,0,26,26,69,1,其他,e,,,,,,,,,,,,
,,,,,,,,,,,,,,1,001,2025-01-11_16h37.26.291,IAT(Formal),2021.2.3,MacIntel,60.0024001,,,,,,,,,,,,,,,,,,,,,,,,,,,,,,,,,,,,,,,,,,,,i,1,0.6669,0,27,27,54,1,俺,i,,,,,,,,,,,,
,,,,,,,,,,,,,,1,001,2025-01-11_16h37.26.291,IAT(Formal),2021.2.3,MacIntel,60.0024001,,,,,,,,,,,,,,,,,,,,,,,,,,,,,,,,,,,,,,,,,,,,i,1,0.854,0,28,28,47,1,固执,i,,,,,,,,,,,,
,,,,,,,,,,,,,,1,001,2025-01-11_16h37.26.291,IAT(Formal),2021.2.3,MacIntel,60.0024001,,,,,,,,,,,,,,,,,,,,,,,,,,,,,,,,,,,,,,,,,,,,e,1,0.8259,0,29,29,26,1,冷静,e,,,,,,,,,,,,
,,,,,,,,,,,,,,1,001,2025-01-11_16h37.26.291,IAT(Formal),2021.2.3,MacIntel,60.0024001,,,,,,,,,,,,,,,,,,,,,,,,,,,,,,,,,,,,,,,,,,,,i,1,0.785,0,30,30,30,1,卑鄙,i,,,,,,,,,,,,
,,,,,,,,,,,,,,1,001,2025-01-11_16h37.26.291,IAT(Formal),2021.2.3,MacIntel,60.0024001,,,,,,,,,,,,,,,,,,,,,,,,,,,,,,,,,,,,,,,,,,,,e,1,0.7175,0,31,31,76,1,他们,e,,,,,,,,,,,,
,,,,,,,,,,,,,,1,001,2025-01-11_16h37.26.291,IAT(Formal),2021.2.3,MacIntel,60.0024001,,,,,,,,,,,,,,,,,,,,,,,,,,,,,,,,,,,,,,,,,,,,i,1,0.584,0,32,32,0,1,我,i,,,,,,,,,,,,
,,,,,,,,,,,,,,1,001,2025-01-11_16h37.26.291,IAT(Formal),2021.2.3,MacIntel,60.0024001,,,,,,,,,,,,,,,,,,,,,,,,,,,,,,,,,,,,,,,,,,,,e,1,0.7328,0,33,33,67,1,他的,e,,,,,,,,,,,,
,,,,,,,,,,,,,,1,001,2025-01-11_16h37.26.291,IAT(Formal),2021.2.3,MacIntel,60.0024001,,,,,,,,,,,,,,,,,,,,,,,,,,,,,,,,,,,,,,,,,,,,i,1,0.8332,0,34,34,35,1,消极,i,,,,,,,,,,,,
,,,,,,,,,,,,,,1,001,2025-01-11_16h37.26.291,IAT(Formal),2021.2.3,MacIntel,60.0024001,,,,,,,,,,,,,,,,,,,,,,,,,,,,,,,,,,,,,,,,,,,,e,1,0.7169,0,35,35,27,1,热情,e,,,,,,,,,,,,
,,,,,,,,,,,,,,1,001,2025-01-11_16h37.26.291,IAT(Formal),2021.2.3,MacIntel,60.0024001,,,,,,,,,,,,,,,,,,,,,,,,,,,,,,,,,,,,,,,,,,,,e,1,0.819,0,36,36,56,1,他们,e,,,,,,,,,,,,
,,,,,,,,,,,,,,1,001,2025-01-11_16h37.26.291,IAT(Formal),2021.2.3,MacIntel,60.0024001,,,,,,,,,,,,,,,,,,,,,,,,,,,,,,,,,,,,,,,,,,,,e,1,1.024,0,37,37,75,1,他,e,,,,,,,,,,,,
,,,,,,,,,,,,,,1,001,2025-01-11_16h37.26.291,IAT(Formal),2021.2.3,MacIntel,60.0024001,,,,,,,,,,,,,,,,,,,,,,,,,,,,,,,,,,,,,,,,,,,,e,1,0.8753,0,38,38,18,1,勤奋,e,,,,,,,,,,,,
,,,,,,,,,,,,,,1,001,2025-01-11_16h37.26.291,IAT(Formal),2021.2.3,MacIntel,60.0024001,,,,,,,,,,,,,,,,,,,,,,,,,,,,,,,,,,,,,,,,,,,,i,1,0.7908,0,39,39,31,1,虚伪,i,,,,,,,,,,,,
,,,,,,,,,,,,,,1,001,2025-01-11_16h37.26.291,IAT(Formal),2021.2.3,MacIntel,60.0024001,,,,,,,,,,,,,,,,,,,,,,,,,,,,,,,,,,,,,,,,,,,,i,1,0.7662,0,40,40,34,1,悲观,i,,,,,,,,,,,,
,,,,,,,,,,,,,,1,001,2025-01-11_16h37.26.291,IAT(Formal),2021.2.3,MacIntel,60.0024001,,,,,,,,,,,,,,,,,,,,,,,,,,,,,,,,,,,,,,,,,,,,i,1,0.8165,0,41,41,39,1,冒失,i,,,,,,,,,,,,
,,,,,,,,,,,,,,1,001,2025-01-11_16h37.26.291,IAT(Formal),2021.2.3,MacIntel,60.0024001,,,,,,,,,,,,,,,,,,,,,,,,,,,,,,,,,,,,,,,,,,,,i,1,0.6513,0,42,42,40,1,执拗,i,,,,,,,,,,,,
,,,,,,,,,,,,,,1,001,2025-01-11_16h37.26.291,IAT(Formal),2021.2.3,MacIntel,60.0024001,,,,,,,,,,,,,,,,,,,,,,,,,,,,,,,,,,,,,,,,,,,,e,1,0.7839,0,43,43,78,1,他人,e,,,,,,,,,,,,
,,,,,,,,,,,,,,1,001,2025-01-11_16h37.26.291,IAT(Formal),2021.2.3,MacIntel,60.0024001,,,,,,,,,,,,,,,,,,,,,,,,,,,,,,,,,,,,,,,,,,,,i,0,1.2074,0,44,44,12,1,聪明,e,,,,,,,,,,,,
,,,,,,,,,,,,,,1,001,2025-01-11_16h37.26.291,IAT(Formal),2021.2.3,MacIntel,60.0024001,,,,,,,,,,,,,,,,,,,,,,,,,,,,,,,,,,,,,,,,,,,,i,0,0.5187,0,45,45,16,1,正直,e,,,,,,,,,,,,
,,,,,,,,,,,,,,1,001,2025-01-11_16h37.26.291,IAT(Formal),2021.2.3,MacIntel,60.0024001,,,,,,,,,,,,,,,,,,,,,,,,,,,,,,,,,,,,,,,,,,,,i,1,0.775,0,46,46,42,1,凶狠,i,,,,,,,,,,,,
,,,,,,,,,,,,,,1,001,2025-01-11_16h37.26.291,IAT(Formal),2021.2.3,MacIntel,60.0024001,,,,,,,,,,,,,,,,,,,,,,,,,,,,,,,,,,,,,,,,,,,,i,1,0.8894,0,47,47,51,1,我的,i,,,,,,,,,,,,
,,,,,,,,,,,,,,1,001,2025-01-11_16h37.26.291,IAT(Formal),2021.2.3,MacIntel,60.0024001,,,,,,,,,,,,,,,,,,,,,,,,,,,,,,,,,,,,,,,,,,,,i,1,0.7676,0,48,48,32,1,愚蠢,i,,,,,,,,,,,,
,,,,,,,,,,,,,,1,001,2025-01-11_16h37.26.291,IAT(Formal),2021.2.3,MacIntel,60.0024001,,,,,,,,,,,,,,,,,,,,,,,,,,,,,,,,,,,,,,,,,,,,i,1,0.9013,0,49,49,38,1,鲁莽,i,,,,,,,,,,,,
,,,,,,,,,,,,,,1,001,2025-01-11_16h37.26.291,IAT(Formal),2021.2.3,MacIntel,60.0024001,,,,,,,,,,,,,,,,,,,,,,,,,,,,,,,,,,,,,,,,,,,,i,1,0.5665,0,50,50,73,1,自己,i,,,,,,,,,,,,
,,,,,,,,,,,,,,1,001,2025-01-11_16h37.26.291,IAT(Formal),2021.2.3,MacIntel,60.0024001,,,,,,,,,,,,,,,,,,,,,,,,,,,,,,,,,,,,,,,,,,,,i,0,0.7596,0,51,51,29,1,诚恳,e,,,,,,,,,,,,
,,,,,,,,,,,,,,1,001,2025-01-11_16h37.26.291,IAT(Formal),2021.2.3,MacIntel,60.0024001,,,,,,,,,,,,,,,,,,,,,,,,,,,,,,,,,,,,,,,,,,,,i,1,0.5676,0,52,52,45,1,猖狂,i,,,,,,,,,,,,
,,,,,,,,,,,,,,1,001,2025-01-11_16h37.26.291,IAT(Formal),2021.2.3,MacIntel,60.0024001,,,,,,,,,,,,,,,,,,,,,,,,,,,,,,,,,,,,,,,,,,,,i,1,0.6002,0,53,53,70,1,我,i,,,,,,,,,,,,
,,,,,,,,,,,,,,1,001,2025-01-11_16h37.26.291,IAT(Formal),2021.2.3,MacIntel,60.0024001,,,,,,,,,,,,,,,,,,,,,,,,,,,,,,,,,,,,,,,,,,,,e,1,0.6218,0,54,54,7,1,他的,e,,,,,,,,,,,,
,,,,,,,,,,,,,,1,001,2025-01-11_16h37.26.291,IAT(Formal),2021.2.3,MacIntel,60.0024001,,,,,,,,,,,,,,,,,,,,,,,,,,,,,,,,,,,,,,,,,,,,e,1,0.5509,0,55,55,5,1,他,e,,,,,,,,,,,,
,,,,,,,,,,,,,,1,001,2025-01-11_16h37.26.291,IAT(Formal),2021.2.3,MacIntel,60.0024001,,,,,,,,,,,,,,,,,,,,,,,,,,,,,,,,,,,,,,,,,,,,e,1,0.6544,0,56,56,25,1,细腻,e,,,,,,,,,,,,
,,,,,,,,,,,,,,1,001,2025-01-11_16h37.26.291,IAT(Formal),2021.2.3,MacIntel,60.0024001,,,,,,,,,,,,,,,,,,,,,,,,,,,,,,,,,,,,,,,,,,,,i,1,0.7171,0,57,57,44,1,暴躁,i,,,,,,,,,,,,
,,,,,,,,,,,,,,1,001,2025-01-11_16h37.26.291,IAT(Formal),2021.2.3,MacIntel,60.0024001,,,,,,,,,,,,,,,,,,,,,,,,,,,,,,,,,,,,,,,,,,,,i,1,0.5229,0,58,58,50,1,我,i,,,,,,,,,,,,
,,,,,,,,,,,,,,1,001,2025-01-11_16h37.26.291,IAT(Formal),2021.2.3,MacIntel,60.0024001,,,,,,,,,,,,,,,,,,,,,,,,,,,,,,,,,,,,,,,,,,,,e,0,0.9178,0,59,59,43,1,自私,i,,,,,,,,,,,,
,,,,,,,,,,,,,,1,001,2025-01-11_16h37.26.291,IAT(Formal),2021.2.3,MacIntel,60.0024001,,,,,,,,,,,,,,,,,,,,,,,,,,,,,,,,,,,,,,,,,,,,i,1,0.5549,0,60,60,1,1,我的,i,,,,,,,,,,,,
,,,,,,,,,,,,,,1,001,2025-01-11_16h37.26.291,IAT(Formal),2021.2.3,MacIntel,60.0024001,,,,,,,,,,,,,,,,,,,,,,,,,,,,,,,,,,,,,,,,,,,,e,1,0.6904,0,61,61,79,1,其他,e,,,,,,,,,,,,
,,,,,,,,,,,,,,1,001,2025-01-11_16h37.26.291,IAT(Formal),2021.2.3,MacIntel,60.0024001,,,,,,,,,,,,,,,,,,,,,,,,,,,,,,,,,,,,,,,,,,,,e,1,0.8417,0,62,62,28,1,活泼,e,,,,,,,,,,,,
,,,,,,,,,,,,,,1,001,2025-01-11_16h37.26.291,IAT(Formal),2021.2.3,MacIntel,60.0024001,,,,,,,,,,,,,,,,,,,,,,,,,,,,,,,,,,,,,,,,,,,,i,1,0.6556,0,63,63,62,1,我们,i,,,,,,,,,,,,
,,,,,,,,,,,,,,1,001,2025-01-11_16h37.26.291,IAT(Formal),2021.2.3,MacIntel,60.0024001,,,,,,,,,,,,,,,,,,,,,,,,,,,,,,,,,,,,,,,,,,,,e,1,0.6846,0,64,64,6,1,他们,e,,,,,,,,,,,,
,,,,,,,,,,,,,,1,001,2025-01-11_16h37.26.291,IAT(Formal),2021.2.3,MacIntel,60.0024001,,,,,,,,,,,,,,,,,,,,,,,,,,,,,,,,,,,,,,,,,,,,e,1,0.5176,0,65,65,66,1,他们,e,,,,,,,,,,,,
,,,,,,,,,,,,,,1,001,2025-01-11_16h37.26.291,IAT(Formal),2021.2.3,MacIntel,60.0024001,,,,,,,,,,,,,,,,,,,,,,,,,,,,,,,,,,,,,,,,,,,,e,1,0.8665,0,66,66,21,1,稳重,e,,,,,,,,,,,,
,,,,,,,,,,,,,,1,001,2025-01-11_16h37.26.291,IAT(Formal),2021.2.3,MacIntel,60.0024001,,,,,,,,,,,,,,,,,,,,,,,,,,,,,,,,,,,,,,,,,,,,i,1,0.5876,0,67,67,63,1,自己,i,,,,,,,,,,,,
,,,,,,,,,,,,,,1,001,2025-01-11_16h37.26.291,IAT(Formal),2021.2.3,MacIntel,60.0024001,,,,,,,,,,,,,,,,,,,,,,,,,,,,,,,,,,,,,,,,,,,,e,1,0.5335,0,68,68,68,1,他人,e,,,,,,,,,,,,
,,,,,,,,,,,,,,1,001,2025-01-11_16h37.26.291,IAT(Formal),2021.2.3,MacIntel,60.0024001,,,,,,,,,,,,,,,,,,,,,,,,,,,,,,,,,,,,,,,,,,,,e,1,0.695,0,69,69,11,1,崇高,e,,,,,,,,,,,,
,,,,,,,,,,,,,,1,001,2025-01-11_16h37.26.291,IAT(Formal),2021.2.3,MacIntel,60.0024001,,,,,,,,,,,,,,,,,,,,,,,,,,,,,,,,,,,,,,,,,,,,i,1,0.5734,0,70,70,36,1,自卑,i,,,,,,,,,,,,
,,,,,,,,,,,,,,1,001,2025-01-11_16h37.26.291,IAT(Formal),2021.2.3,MacIntel,60.0024001,,,,,,,,,,,,,,,,,,,,,,,,,,,,,,,,,,,,,,,,,,,,i,1,0.8172,0,71,71,46,1,野蛮,i,,,,,,,,,,,,
,,,,,,,,,,,,,,1,001,2025-01-11_16h37.26.291,IAT(Formal),2021.2.3,MacIntel,60.0024001,,,,,,,,,,,,,,,,,,,,,,,,,,,,,,,,,,,,,,,,,,,,e,1,0.6577,0,72,72,14,1,乐观,e,,,,,,,,,,,,
,,,,,,,,,,,,,,1,001,2025-01-11_16h37.26.291,IAT(Formal),2021.2.3,MacIntel,60.0024001,,,,,,,,,,,,,,,,,,,,,,,,,,,,,,,,,,,,,,,,,,,,e,1,0.7044,0,73,73,24,1,朴实,e,,,,,,,,,,,,
,,,,,,,,,,,,,,1,001,2025-01-11_16h37.26.291,IAT(Formal),2021.2.3,MacIntel,60.0024001,,,,,,,,,,,,,,,,,,,,,,,,,,,,,,,,,,,,,,,,,,,,e,1,0.6193,0,74,74,20,1,认真,e,,,,,,,,,,,,
,,,,,,,,,,,,,,1,001,2025-01-11_16h37.26.291,IAT(Formal),2021.2.3,MacIntel,60.0024001,,,,,,,,,,,,,,,,,,,,,,,,,,,,,,,,,,,,,,,,,,,,e,1,0.9668,0,75,75,13,1,杰出,e,,,,,,,,,,,,
,,,,,,,,,,,,,,1,001,2025-01-11_16h37.26.291,IAT(Formal),2021.2.3,MacIntel,60.0024001,,,,,,,,,,,,,,,,,,,,,,,,,,,,,,,,,,,,,,,,,,,,i,1,0.7746,0,76,76,74,1,俺,i,,,,,,,,,,,,
,,,,,,,,,,,,,,1,001,2025-01-11_16h37.26.291,IAT(Formal),2021.2.3,MacIntel,60.0024001,,,,,,,,,,,,,,,,,,,,,,,,,,,,,,,,,,,,,,,,,,,,i,1,0.7664,0,77,77,33,1,刻薄,i,,,,,,,,,,,,
,,,,,,,,,,,,,,1,001,2025-01-11_16h37.26.291,IAT(Formal),2021.2.3,MacIntel,60.0024001,,,,,,,,,,,,,,,,,,,,,,,,,,,,,,,,,,,,,,,,,,,,e,1,0.6332,0,78,78,57,1,他的,e,,,,,,,,,,,,
,,,,,,,,,,,,,,1,001,2025-01-11_16h37.26.291,IAT(Formal),2021.2.3,MacIntel,60.0024001,,,,,,,,,,,,,,,,,,,,,,,,,,,,,,,,,,,,,,,,,,,,e,1,0.5676,0,79,79,59,1,其他,e,,,,,,,,,,,,
,,,,,,,,,,,,,,1,001,2025-01-11_16h37.26.291,IAT(Formal),2021.2.3,MacIntel,60.0024001,,,,,,,,,,,,,,,,,,,,,,,,,,,,,,,,,,,,,,,,,,,,,,,,,,,,细腻,e,space,24.3481,e,1,0.9229,0,0,0,25,1,,
,,,,,,,,,,,,,,1,001,2025-01-11_16h37.26.291,IAT(Formal),2021.2.3,MacIntel,60.0024001,,,,,,,,,,,,,,,,,,,,,,,,,,,,,,,,,,,,,,,,,,,,,,,,,,,,他们,e,,,e,1,0.5164,0,1,1,76,1,,
,,,,,,,,,,,,,,1,001,2025-01-11_16h37.26.291,IAT(Formal),2021.2.3,MacIntel,60.0024001,,,,,,,,,,,,,,,,,,,,,,,,,,,,,,,,,,,,,,,,,,,,,,,,,,,,自己,i,,,i,1,0.5674,0,2,2,53,1,,
,,,,,,,,,,,,,,1,001,2025-01-11_16h37.26.291,IAT(Formal),2021.2.3,MacIntel,60.0024001,,,,,,,,,,,,,,,,,,,,,,,,,,,,,,,,,,,,,,,,,,,,,,,,,,,,诚恳,e,,,i,0,0.5847,0,3,3,29,1,,
,,,,,,,,,,,,,,1,001,2025-01-11_16h37.26.291,IAT(Formal),2021.2.3,MacIntel,60.0024001,,,,,,,,,,,,,,,,,,,,,,,,,,,,,,,,,,,,,,,,,,,,,,,,,,,,稳重,e,,,e,1,0.566,0,4,4,21,1,,
,,,,,,,,,,,,,,1,001,2025-01-11_16h37.26.291,IAT(Formal),2021.2.3,MacIntel,60.0024001,,,,,,,,,,,,,,,,,,,,,,,,,,,,,,,,,,,,,,,,,,,,,,,,,,,,散漫,i,,,i,1,0.633,0,5,5,41,1,,
,,,,,,,,,,,,,,1,001,2025-01-11_16h37.26.291,IAT(Formal),2021.2.3,MacIntel,60.0024001,,,,,,,,,,,,,,,,,,,,,,,,,,,,,,,,,,,,,,,,,,,,,,,,,,,,刻薄,i,,,i,1,0.6837,0,6,6,33,1,,
,,,,,,,,,,,,,,1,001,2025-01-11_16h37.26.291,IAT(Formal),2021.2.3,MacIntel,60.0024001,,,,,,,,,,,,,,,,,,,,,,,,,,,,,,,,,,,,,,,,,,,,,,,,,,,,我们,i,,,i,1,0.5509,0,7,7,52,1,,
,,,,,,,,,,,,,,1,001,2025-01-11_16h37.26.291,IAT(Formal),2021.2.3,MacIntel,60.0024001,,,,,,,,,,,,,,,,,,,,,,,,,,,,,,,,,,,,,,,,,,,,,,,,,,,,冷静,e,,,e,1,0.7159,0,8,8,26,1,,
,,,,,,,,,,,,,,1,001,2025-01-11_16h37.26.291,IAT(Formal),2021.2.3,MacIntel,60.0024001,,,,,,,,,,,,,,,,,,,,,,,,,,,,,,,,,,,,,,,,,,,,,,,,,,,,虚伪,i,,,i,1,0.7153,0,9,9,31,1,,
,,,,,,,,,,,,,,1,001,2025-01-11_16h37.26.291,IAT(Formal),2021.2.3,MacIntel,60.0024001,,,,,,,,,,,,,,,,,,,,,,,,,,,,,,,,,,,,,,,,,,,,,,,,,,,,猖狂,i,,,i,1,0.7511,0,10,10,45,1,,
,,,,,,,,,,,,,,1,001,2025-01-11_16h37.26.291,IAT(Formal),2021.2.3,MacIntel,60.0024001,,,,,,,,,,,,,,,,,,,,,,,,,,,,,,,,,,,,,,,,,,,,,,,,,,,,我们,i,,,i,1,0.6681,0,11,11,2,1,,
,,,,,,,,,,,,,,1,001,2025-01-11_16h37.26.291,IAT(Formal),2021.2.3,MacIntel,60.0024001,,,,,,,,,,,,,,,,,,,,,,,,,,,,,,,,,,,,,,,,,,,,,,,,,,,,他们,e,,,e,1,0.5665,0,12,12,66,1,,
,,,,,,,,,,,,,,1,001,2025-01-11_16h37.26.291,IAT(Formal),2021.2.3,MacIntel,60.0024001,,,,,,,,,,,,,,,,,,,,,,,,,,,,,,,,,,,,,,,,,,,,,,,,,,,,轻率,i,,,e,0,0.5917,0,13,13,48,1,,
,,,,,,,,,,,,,,1,001,2025-01-11_16h37.26.291,IAT(Formal),2021.2.3,MacIntel,60.0024001,,,,,,,,,,,,,,,,,,,,,,,,,,,,,,,,,,,,,,,,,,,,,,,,,,,,我的,i,,,i,1,0.4846,0,14,14,71,1,,
,,,,,,,,,,,,,,1,001,2025-01-11_16h37.26.291,IAT(Formal),2021.2.3,MacIntel,60.0024001,,,,,,,,,,,,,,,,,,,,,,,,,,,,,,,,,,,,,,,,,,,,,,,,,,,,崇高,e,,,e,1,0.6542,0,15,15,11,1,,
,,,,,,,,,,,,,,1,001,2025-01-11_16h37.26.291,IAT(Formal),2021.2.3,MacIntel,60.0024001,,,,,,,,,,,,,,,,,,,,,,,,,,,,,,,,,,,,,,,,,,,,,,,,,,,,机智,e,,,e,1,0.7176,0,16,16,19,1,,
,,,,,,,,,,,,,,1,001,2025-01-11_16h37.26.291,IAT(Formal),2021.2.3,MacIntel,60.0024001,,,,,,,,,,,,,,,,,,,,,,,,,,,,,,,,,,,,,,,,,,,,,,,,,,,,乐观,e,,,e,1,0.5219,0,17,17,14,1,,
,,,,,,,,,,,,,,1,001,2025-01-11_16h37.26.291,IAT(Formal),2021.2.3,MacIntel,60.0024001,,,,,,,,,,,,,,,,,,,,,,,,,,,,,,,,,,,,,,,,,,,,,,,,,,,,我的,i,,,i,1,0.6839,0,18,18,1,1,,
,,,,,,,,,,,,,,1,001,2025-01-11_16h37.26.291,IAT(Formal),2021.2.3,MacIntel,60.0024001,,,,,,,,,,,,,,,,,,,,,,,,,,,,,,,,,,,,,,,,,,,,,,,,,,,,暴躁,i,,,i,1,0.669,0,19,19,44,1,,
,,,,,,,,,,,,,,1,001,2025-01-11_16h37.26.291,IAT(Formal),2021.2.3,MacIntel,60.0024001,,,,,,,,,,,,,,,,,,,,,,,,,,,,,,,,,,,,,,,,,,,,,,,,,,,,我的,i,,,i,1,0.8035,0,20,20,61,1,,
,,,,,,,,,,,,,,1,001,2025-01-11_16h37.26.291,IAT(Formal),2021.2.3,MacIntel,60.0024001,,,,,,,,,,,,,,,,,,,,,,,,,,,,,,,,,,,,,,,,,,,,,,,,,,,,俺,i,,,i,1,0.5844,0,21,21,54,1,,
,,,,,,,,,,,,,,1,001,2025-01-11_16h37.26.291,IAT(Formal),2021.2.3,MacIntel,60.0024001,,,,,,,,,,,,,,,,,,,,,,,,,,,,,,,,,,,,,,,,,,,,,,,,,,,,朴实,e,,,e,1,0.7856,0,22,22,24,1,,
,,,,,,,,,,,,,,1,001,2025-01-11_16h37.26.291,IAT(Formal),2021.2.3,MacIntel,60.0024001,,,,,,,,,,,,,,,,,,,,,,,,,,,,,,,,,,,,,,,,,,,,,,,,,,,,聪明,e,,,e,1,0.8675,0,23,23,12,1,,
,,,,,,,,,,,,,,1,001,2025-01-11_16h37.26.291,IAT(Formal),2021.2.3,MacIntel,60.0024001,,,,,,,,,,,,,,,,,,,,,,,,,,,,,,,,,,,,,,,,,,,,,,,,,,,,勤奋,e,,,e,1,0.6479,0,24,24,18,1,,
,,,,,,,,,,,,,,1,001,2025-01-11_16h37.26.291,IAT(Formal),2021.2.3,MacIntel,60.0024001,,,,,,,,,,,,,,,,,,,,,,,,,,,,,,,,,,,,,,,,,,,,,,,,,,,,野蛮,i,,,i,1,0.6513,0,25,25,46,1,,
,,,,,,,,,,,,,,1,001,2025-01-11_16h37.26.291,IAT(Formal),2021.2.3,MacIntel,60.0024001,,,,,,,,,,,,,,,,,,,,,,,,,,,,,,,,,,,,,,,,,,,,,,,,,,,,他们,e,,,e,1,0.5225,0,26,26,6,1,,
,,,,,,,,,,,,,,1,001,2025-01-11_16h37.26.291,IAT(Formal),2021.2.3,MacIntel,60.0024001,,,,,,,,,,,,,,,,,,,,,,,,,,,,,,,,,,,,,,,,,,,,,,,,,,,,他人,e,,,e,1,0.5077,0,27,27,78,1,,
,,,,,,,,,,,,,,1,001,2025-01-11_16h37.26.291,IAT(Formal),2021.2.3,MacIntel,60.0024001,,,,,,,,,,,,,,,,,,,,,,,,,,,,,,,,,,,,,,,,,,,,,,,,,,,,俺,i,,,i,1,0.6513,0,28,28,64,1,,
,,,,,,,,,,,,,,1,001,2025-01-11_16h37.26.291,IAT(Formal),2021.2.3,MacIntel,60.0024001,,,,,,,,,,,,,,,,,,,,,,,,,,,,,,,,,,,,,,,,,,,,,,,,,,,,自私,i,,,i,1,0.9655,0,29,29,43,1,,
,,,,,,,,,,,,,,1,001,2025-01-11_16h37.26.291,IAT(Formal),2021.2.3,MacIntel,60.0024001,,,,,,,,,,,,,,,,,,,,,,,,,,,,,,,,,,,,,,,,,,,,,,,,,,,,我,i,,,i,1,0.5673,0,30,30,50,1,,
,,,,,,,,,,,,,,1,001,2025-01-11_16h37.26.291,IAT(Formal),2021.2.3,MacIntel,60.0024001,,,,,,,,,,,,,,,,,,,,,,,,,,,,,,,,,,,,,,,,,,,,,,,,,,,,俺,i,,,i,1,0.972,0,31,31,74,1,,
,,,,,,,,,,,,,,1,001,2025-01-11_16h37.26.291,IAT(Formal),2021.2.3,MacIntel,60.0024001,,,,,,,,,,,,,,,,,,,,,,,,,,,,,,,,,,,,,,,,,,,,,,,,,,,,凶狠,i,,,i,1,1.2212,0,32,32,42,1,,
,,,,,,,,,,,,,,1,001,2025-01-11_16h37.26.291,IAT(Formal),2021.2.3,MacIntel,60.0024001,,,,,,,,,,,,,,,,,,,,,,,,,,,,,,,,,,,,,,,,,,,,,,,,,,,,我,i,,,i,1,0.5009,0,33,33,0,1,,
,,,,,,,,,,,,,,1,001,2025-01-11_16h37.26.291,IAT(Formal),2021.2.3,MacIntel,60.0024001,,,,,,,,,,,,,,,,,,,,,,,,,,,,,,,,,,,,,,,,,,,,,,,,,,,,卑鄙,i,,,i,1,0.6549,0,34,34,30,1,,
,,,,,,,,,,,,,,1,001,2025-01-11_16h37.26.291,IAT(Formal),2021.2.3,MacIntel,60.0024001,,,,,,,,,,,,,,,,,,,,,,,,,,,,,,,,,,,,,,,,,,,,,,,,,,,,他人,e,,,i,0,0.9743,0,35,35,68,1,,
,,,,,,,,,,,,,,1,001,2025-01-11_16h37.26.291,IAT(Formal),2021.2.3,MacIntel,60.0024001,,,,,,,,,,,,,,,,,,,,,,,,,,,,,,,,,,,,,,,,,,,,,,,,,,,,正直,e,,,e,1,0.7525,0,36,36,16,1,,
,,,,,,,,,,,,,,1,001,2025-01-11_16h37.26.291,IAT(Formal),2021.2.3,MacIntel,60.0024001,,,,,,,,,,,,,,,,,,,,,,,,,,,,,,,,,,,,,,,,,,,,,,,,,,,,他,e,,,e,1,1.2832,0,37,37,55,1,,
,,,,,,,,,,,,,,1,001,2025-01-11_16h37.26.291,IAT(Formal),2021.2.3,MacIntel,60.0024001,,,,,,,,,,,,,,,,,,,,,,,,,,,,,,,,,,,,,,,,,,,,,,,,,,,,我,i,,,i,1,0.5752,0,38,38,70,1,,
,,,,,,,,,,,,,,1,001,2025-01-11_16h37.26.291,IAT(Formal),2021.2.3,MacIntel,60.0024001,,,,,,,,,,,,,,,,,,,,,,,,,,,,,,,,,,,,,,,,,,,,,,,,,,,,傲慢,i,,,i,1,0.8835,0,39,39,37,1,,
,,,,,,,,,,,,,,1,001,2025-01-11_16h37.26.291,IAT(Formal),2021.2.3,MacIntel,60.0024001,,,,,,,,,,,,,,,,,,,,,,,,,,,,,,,,,,,,,,,,,,,,,,,,,,,,自卑,i,,,i,1,0.6843,0,40,40,36,1,,
,,,,,,,,,,,,,,1,001,2025-01-11_16h37.26.291,IAT(Formal),2021.2.3,MacIntel,60.0024001,,,,,,,,,,,,,,,,,,,,,,,,,,,,,,,,,,,,,,,,,,,,,,,,,,,,他们,e,,,e,1,0.8508,0,41,41,56,1,,
,,,,,,,,,,,,,,1,001,2025-01-11_16h37.26.291,IAT(Formal),2021.2.3,MacIntel,60.0024001,,,,,,,,,,,,,,,,,,,,,,,,,,,,,,,,,,,,,,,,,,,,,,,,,,,,其他,e,,,e,1,1.0216,0,42,42,79,1,,
,,,,,,,,,,,,,,1,001,2025-01-11_16h37.26.291,IAT(Formal),2021.2.3,MacIntel,60.0024001,,,,,,,,,,,,,,,,,,,,,,,,,,,,,,,,,,,,,,,,,,,,,,,,,,,,我们,i,,,i,1,0.8003,0,43,43,62,1,,
,,,,,,,,,,,,,,1,001,2025-01-11_16h37.26.291,IAT(Formal),2021.2.3,MacIntel,60.0024001,,,,,,,,,,,,,,,,,,,,,,,,,,,,,,,,,,,,,,,,,,,,,,,,,,,,无私,e,,,e,1,1.2346,0,44,44,22,1,,
,,,,,,,,,,,,,,1,001,2025-01-11_16h37.26.291,IAT(Formal),2021.2.3,MacIntel,60.0024001,,,,,,,,,,,,,,,,,,,,,,,,,,,,,,,,,,,,,,,,,,,,,,,,,,,,其他,e,,,e,1,0.7887,0,45,45,59,1,,
,,,,,,,,,,,,,,1,001,2025-01-11_16h37.26.291,IAT(Formal),2021.2.3,MacIntel,60.0024001,,,,,,,,,,,,,,,,,,,,,,,,,,,,,,,,,,,,,,,,,,,,,,,,,,,,悲观,i,,,i,1,1.3716,0,46,46,34,1,,
,,,,,,,,,,,,,,1,001,2025-01-11_16h37.26.291,IAT(Formal),2021.2.3,MacIntel,60.0024001,,,,,,,,,,,,,,,,,,,,,,,,,,,,,,,,,,,,,,,,,,,,,,,,,,,,我,i,,,i,1,0.5575,0,47,47,60,1,,
,,,,,,,,,,,,,,1,001,2025-01-11_16h37.26.291,IAT(Formal),2021.2.3,MacIntel,60.0024001,,,,,,,,,,,,,,,,,,,,,,,,,,,,,,,,,,,,,,,,,,,,,,,,,,,,诚实,e,,,e,1,0.8326,0,48,48,15,1,,
,,,,,,,,,,,,,,1,001,2025-01-11_16h37.26.291,IAT(Formal),2021.2.3,MacIntel,60.0024001,,,,,,,,,,,,,,,,,,,,,,,,,,,,,,,,,,,,,,,,,,,,,,,,,,,,我们,i,,,i,1,1.1995,0,49,49,72,1,,
,,,,,,,,,,,,,,1,001,2025-01-11_16h37.26.291,IAT(Formal),2021.2.3,MacIntel,60.0024001,,,,,,,,,,,,,,,,,,,,,,,,,,,,,,,,,,,,,,,,,,,,,,,,,,,,其他,e,,,e,1,1.0676,0,50,50,69,1,,
,,,,,,,,,,,,,,1,001,2025-01-11_16h37.26.291,IAT(Formal),2021.2.3,MacIntel,60.0024001,,,,,,,,,,,,,,,,,,,,,,,,,,,,,,,,,,,,,,,,,,,,,,,,,,,,他,e,,,e,1,1.1677,0,51,51,65,1,,
,,,,,,,,,,,,,,1,001,2025-01-11_16h37.26.291,IAT(Formal),2021.2.3,MacIntel,60.0024001,,,,,,,,,,,,,,,,,,,,,,,,,,,,,,,,,,,,,,,,,,,,,,,,,,,,公正,e,,,e,1,1.0917,0,52,52,23,1,,
,,,,,,,,,,,,,,1,001,2025-01-11_16h37.26.291,IAT(Formal),2021.2.3,MacIntel,60.0024001,,,,,,,,,,,,,,,,,,,,,,,,,,,,,,,,,,,,,,,,,,,,,,,,,,,,他,e,,,e,1,0.4579,0,53,53,5,1,,
,,,,,,,,,,,,,,1,001,2025-01-11_16h37.26.291,IAT(Formal),2021.2.3,MacIntel,60.0024001,,,,,,,,,,,,,,,,,,,,,,,,,,,,,,,,,,,,,,,,,,,,,,,,,,,,杰出,e,,,e,1,0.5338,0,54,54,13,1,,
,,,,,,,,,,,,,,1,001,2025-01-11_16h37.26.291,IAT(Formal),2021.2.3,MacIntel,60.0024001,,,,,,,,,,,,,,,,,,,,,,,,,,,,,,,,,,,,,,,,,,,,,,,,,,,,自己,i,,,i,1,0.6069,0,55,55,63,1,,
,,,,,,,,,,,,,,1,001,2025-01-11_16h37.26.291,IAT(Formal),2021.2.3,MacIntel,60.0024001,,,,,,,,,,,,,,,,,,,,,,,,,,,,,,,,,,,,,,,,,,,,,,,,,,,,优秀,e,,,e,1,0.5848,0,56,56,10,1,,
,,,,,,,,,,,,,,1,001,2025-01-11_16h37.26.291,IAT(Formal),2021.2.3,MacIntel,60.0024001,,,,,,,,,,,,,,,,,,,,,,,,,,,,,,,,,,,,,,,,,,,,,,,,,,,,他,e,,,e,1,0.9504,0,57,57,75,1,,
,,,,,,,,,,,,,,1,001,2025-01-11_16h37.26.291,IAT(Formal),2021.2.3,MacIntel,60.0024001,,,,,,,,,,,,,,,,,,,,,,,,,,,,,,,,,,,,,,,,,,,,,,,,,,,,热情,e,,,e,1,0.9995,0,58,58,27,1,,
,,,,,,,,,,,,,,1,001,2025-01-11_16h37.26.291,IAT(Formal),2021.2.3,MacIntel,60.0024001,,,,,,,,,,,,,,,,,,,,,,,,,,,,,,,,,,,,,,,,,,,,,,,,,,,,他的,e,,,e,1,0.7661,0,59,59,57,1,,
,,,,,,,,,,,,,,1,001,2025-01-11_16h37.26.291,IAT(Formal),2021.2.3,MacIntel,60.0024001,,,,,,,,,,,,,,,,,,,,,,,,,,,,,,,,,,,,,,,,,,,,,,,,,,,,勇敢,e,,,e,1,0.9333,0,60,60,17,1,,
,,,,,,,,,,,,,,1,001,2025-01-11_16h37.26.291,IAT(Formal),2021.2.3,MacIntel,60.0024001,,,,,,,,,,,,,,,,,,,,,,,,,,,,,,,,,,,,,,,,,,,,,,,,,,,,冒失,i,,,i,1,1.0564,0,61,61,39,1,,
,,,,,,,,,,,,,,1,001,2025-01-11_16h37.26.291,IAT(Formal),2021.2.3,MacIntel,60.0024001,,,,,,,,,,,,,,,,,,,,,,,,,,,,,,,,,,,,,,,,,,,,,,,,,,,,他的,e,,,e,1,0.8511,0,62,62,67,1,,
,,,,,,,,,,,,,,1,001,2025-01-11_16h37.26.291,IAT(Formal),2021.2.3,MacIntel,60.0024001,,,,,,,,,,,,,,,,,,,,,,,,,,,,,,,,,,,,,,,,,,,,,,,,,,,,自己,i,,,e,0,1.1698,0,63,63,3,1,,
,,,,,,,,,,,,,,1,001,2025-01-11_16h37.26.291,IAT(Formal),2021.2.3,MacIntel,60.0024001,,,,,,,,,,,,,,,,,,,,,,,,,,,,,,,,,,,,,,,,,,,,,,,,,,,,他人,e,,,e,1,0.434,0,64,64,58,1,,
,,,,,,,,,,,,,,1,001,2025-01-11_16h37.26.291,IAT(Formal),2021.2.3,MacIntel,60.0024001,,,,,,,,,,,,,,,,,,,,,,,,,,,,,,,,,,,,,,,,,,,,,,,,,,,,俺,i,,,i,1,0.7061,0,65,65,4,1,,
,,,,,,,,,,,,,,1,001,2025-01-11_16h37.26.291,IAT(Formal),2021.2.3,MacIntel,60.0024001,,,,,,,,,,,,,,,,,,,,,,,,,,,,,,,,,,,,,,,,,,,,,,,,,,,,消极,i,,,i,1,0.7314,0,66,66,35,1,,
,,,,,,,,,,,,,,1,001,2025-01-11_16h37.26.291,IAT(Formal),2021.2.3,MacIntel,60.0024001,,,,,,,,,,,,,,,,,,,,,,,,,,,,,,,,,,,,,,,,,,,,,,,,,,,,自己,i,,,i,1,0.6252,0,67,67,73,1,,
,,,,,,,,,,,,,,1,001,2025-01-11_16h37.26.291,IAT(Formal),2021.2.3,MacIntel,60.0024001,,,,,,,,,,,,,,,,,,,,,,,,,,,,,,,,,,,,,,,,,,,,,,,,,,,,认真,e,,,e,1,1.0712,0,68,68,20,1,,
,,,,,,,,,,,,,,1,001,2025-01-11_16h37.26.291,IAT(Formal),2021.2.3,MacIntel,60.0024001,,,,,,,,,,,,,,,,,,,,,,,,,,,,,,,,,,,,,,,,,,,,,,,,,,,,他人,e,,,e,1,0.9228,0,69,69,8,1,,
,,,,,,,,,,,,,,1,001,2025-01-11_16h37.26.291,IAT(Formal),2021.2.3,MacIntel,60.0024001,,,,,,,,,,,,,,,,,,,,,,,,,,,,,,,,,,,,,,,,,,,,,,,,,,,,我的,i,,,e,0,0.7833,0,70,70,51,1,,
,,,,,,,,,,,,,,1,001,2025-01-11_16h37.26.291,IAT(Formal),2021.2.3,MacIntel,60.0024001,,,,,,,,,,,,,,,,,,,,,,,,,,,,,,,,,,,,,,,,,,,,,,,,,,,,活泼,e,,,,0,,0,71,71,28,1,,
,,,,,,,,,,,,,,1,001,2025-01-11_16h37.26.291,IAT(Formal),2021.2.3,MacIntel,60.0024001,,,,,,,,,,,,,,,,,,,,,,,,,,,,,,,,,,,,,,,,,,,,,,,,,,,,他的,e,,,e,1,0.6845,0,72,72,77,1,,
,,,,,,,,,,,,,,1,001,2025-01-11_16h37.26.291,IAT(Formal),2021.2.3,MacIntel,60.0024001,,,,,,,,,,,,,,,,,,,,,,,,,,,,,,,,,,,,,,,,,,,,,,,,,,,,鲁莽,i,,,i,1,0.7191,0,73,73,38,1,,
,,,,,,,,,,,,,,1,001,2025-01-11_16h37.26.291,IAT(Formal),2021.2.3,MacIntel,60.0024001,,,,,,,,,,,,,,,,,,,,,,,,,,,,,,,,,,,,,,,,,,,,,,,,,,,,执拗,i,,,i,1,0.6319,0,74,74,40,1,,
,,,,,,,,,,,,,,1,001,2025-01-11_16h37.26.291,IAT(Formal),2021.2.3,MacIntel,60.0024001,,,,,,,,,,,,,,,,,,,,,,,,,,,,,,,,,,,,,,,,,,,,,,,,,,,,固执,i,,,i,1,0.6835,0,75,75,47,1,,
,,,,,,,,,,,,,,1,001,2025-01-11_16h37.26.291,IAT(Formal),2021.2.3,MacIntel,60.0024001,,,,,,,,,,,,,,,,,,,,,,,,,,,,,,,,,,,,,,,,,,,,,,,,,,,,其他,e,,,e,1,0.5839,0,76,76,9,1,,
,,,,,,,,,,,,,,1,001,2025-01-11_16h37.26.291,IAT(Formal),2021.2.3,MacIntel,60.0024001,,,,,,,,,,,,,,,,,,,,,,,,,,,,,,,,,,,,,,,,,,,,,,,,,,,,他的,e,,,e,1,0.585,0,77,77,7,1,,
,,,,,,,,,,,,,,1,001,2025-01-11_16h37.26.291,IAT(Formal),2021.2.3,MacIntel,60.0024001,,,,,,,,,,,,,,,,,,,,,,,,,,,,,,,,,,,,,,,,,,,,,,,,,,,,下贱,i,,,i,1,0.7334,0,78,78,49,1,,
,,,,,,,,,,,,,,1,001,2025-01-11_16h37.26.291,IAT(Formal),2021.2.3,MacIntel,60.0024001,,,,,,,,,,,,,,,,,,,,,,,,,,,,,,,,,,,,,,,,,,,,,,,,,,,,愚蠢,i,,,i,1,0.6022,0,79,79,32,1,,
,,,,,,,,,,,,,,1,001,2025-01-11_16h37.26.291,IAT(Formal),2021.2.3,MacIntel,60.0024001,,,,,,,,,,,,,,,,,,,,,,,,,,,,,,,,,,,,,,,,,,,,,,,,,,,,我,i,,,i,1,0.6844,1,0,80,70,1,,
,,,,,,,,,,,,,,1,001,2025-01-11_16h37.26.291,IAT(Formal),2021.2.3,MacIntel,60.0024001,,,,,,,,,,,,,,,,,,,,,,,,,,,,,,,,,,,,,,,,,,,,,,,,,,,,他的,e,,,e,1,0.7005,1,1,81,57,1,,
,,,,,,,,,,,,,,1,001,2025-01-11_16h37.26.291,IAT(Formal),2021.2.3,MacIntel,60.0024001,,,,,,,,,,,,,,,,,,,,,,,,,,,,,,,,,,,,,,,,,,,,,,,,,,,,执拗,i,,,i,1,0.6338,1,2,82,40,1,,
,,,,,,,,,,,,,,1,001,2025-01-11_16h37.26.291,IAT(Formal),2021.2.3,MacIntel,60.0024001,,,,,,,,,,,,,,,,,,,,,,,,,,,,,,,,,,,,,,,,,,,,,,,,,,,,他们,e,,,e,1,0.4701,1,3,83,76,1,,
,,,,,,,,,,,,,,1,001,2025-01-11_16h37.26.291,IAT(Formal),2021.2.3,MacIntel,60.0024001,,,,,,,,,,,,,,,,,,,,,,,,,,,,,,,,,,,,,,,,,,,,,,,,,,,,稳重,e,,,e,1,0.5673,1,4,84,21,1,,
,,,,,,,,,,,,,,1,001,2025-01-11_16h37.26.291,IAT(Formal),2021.2.3,MacIntel,60.0024001,,,,,,,,,,,,,,,,,,,,,,,,,,,,,,,,,,,,,,,,,,,,,,,,,,,,他,e,,,e,1,0.4551,1,5,85,5,1,,
,,,,,,,,,,,,,,1,001,2025-01-11_16h37.26.291,IAT(Formal),2021.2.3,MacIntel,60.0024001,,,,,,,,,,,,,,,,,,,,,,,,,,,,,,,,,,,,,,,,,,,,,,,,,,,,俺,i,,,e,0,0.4539,1,6,86,64,1,,
,,,,,,,,,,,,,,1,001,2025-01-11_16h37.26.291,IAT(Formal),2021.2.3,MacIntel,60.0024001,,,,,,,,,,,,,,,,,,,,,,,,,,,,,,,,,,,,,,,,,,,,,,,,,,,,他的,e,,,e,1,0.476,1,7,87,7,1,,
,,,,,,,,,,,,,,1,001,2025-01-11_16h37.26.291,IAT(Formal),2021.2.3,MacIntel,60.0024001,,,,,,,,,,,,,,,,,,,,,,,,,,,,,,,,,,,,,,,,,,,,,,,,,,,,其他,e,,,e,1,0.5575,1,8,88,9,1,,
,,,,,,,,,,,,,,1,001,2025-01-11_16h37.26.291,IAT(Formal),2021.2.3,MacIntel,60.0024001,,,,,,,,,,,,,,,,,,,,,,,,,,,,,,,,,,,,,,,,,,,,,,,,,,,,自己,i,,,i,1,0.6012,1,9,89,63,1,,
,,,,,,,,,,,,,,1,001,2025-01-11_16h37.26.291,IAT(Formal),2021.2.3,MacIntel,60.0024001,,,,,,,,,,,,,,,,,,,,,,,,,,,,,,,,,,,,,,,,,,,,,,,,,,,,自卑,i,,,i,1,0.4685,1,10,90,36,1,,
,,,,,,,,,,,,,,1,001,2025-01-11_16h37.26.291,IAT(Formal),2021.2.3,MacIntel,60.0024001,,,,,,,,,,,,,,,,,,,,,,,,,,,,,,,,,,,,,,,,,,,,,,,,,,,,诚恳,e,,,e,1,0.7167,1,11,91,29,1,,
,,,,,,,,,,,,,,1,001,2025-01-11_16h37.26.291,IAT(Formal),2021.2.3,MacIntel,60.0024001,,,,,,,,,,,,,,,,,,,,,,,,,,,,,,,,,,,,,,,,,,,,,,,,,,,,猖狂,i,,,i,1,0.5998,1,12,92,45,1,,
,,,,,,,,,,,,,,1,001,2025-01-11_16h37.26.291,IAT(Formal),2021.2.3,MacIntel,60.0024001,,,,,,,,,,,,,,,,,,,,,,,,,,,,,,,,,,,,,,,,,,,,,,,,,,,,俺,i,,,i,1,0.533,1,13,93,74,1,,
,,,,,,,,,,,,,,1,001,2025-01-11_16h37.26.291,IAT(Formal),2021.2.3,MacIntel,60.0024001,,,,,,,,,,,,,,,,,,,,,,,,,,,,,,,,,,,,,,,,,,,,,,,,,,,,愚蠢,i,,,i,1,0.7903,1,14,94,32,1,,
,,,,,,,,,,,,,,1,001,2025-01-11_16h37.26.291,IAT(Formal),2021.2.3,MacIntel,60.0024001,,,,,,,,,,,,,,,,,,,,,,,,,,,,,,,,,,,,,,,,,,,,,,,,,,,,自私,i,,,i,1,0.8666,1,15,95,43,1,,
,,,,,,,,,,,,,,1,001,2025-01-11_16h37.26.291,IAT(Formal),2021.2.3,MacIntel,60.0024001,,,,,,,,,,,,,,,,,,,,,,,,,,,,,,,,,,,,,,,,,,,,,,,,,,,,鲁莽,i,,,i,1,0.7503,1,16,96,38,1,,
,,,,,,,,,,,,,,1,001,2025-01-11_16h37.26.291,IAT(Formal),2021.2.3,MacIntel,60.0024001,,,,,,,,,,,,,,,,,,,,,,,,,,,,,,,,,,,,,,,,,,,,,,,,,,,,他们,e,,,e,1,0.65,1,17,97,56,1,,
,,,,,,,,,,,,,,1,001,2025-01-11_16h37.26.291,IAT(Formal),2021.2.3,MacIntel,60.0024001,,,,,,,,,,,,,,,,,,,,,,,,,,,,,,,,,,,,,,,,,,,,,,,,,,,,虚伪,i,,,i,1,0.6323,1,18,98,31,1,,
,,,,,,,,,,,,,,1,001,2025-01-11_16h37.26.291,IAT(Formal),2021.2.3,MacIntel,60.0024001,,,,,,,,,,,,,,,,,,,,,,,,,,,,,,,,,,,,,,,,,,,,,,,,,,,,野蛮,i,,,i,1,0.5833,1,19,99,46,1,,
,,,,,,,,,,,,,,1,001,2025-01-11_16h37.26.291,IAT(Formal),2021.2.3,MacIntel,60.0024001,,,,,,,,,,,,,,,,,,,,,,,,,,,,,,,,,,,,,,,,,,,,,,,,,,,,悲观,i,,,i,1,0.6568,1,20,100,34,1,,
,,,,,,,,,,,,,,1,001,2025-01-11_16h37.26.291,IAT(Formal),2021.2.3,MacIntel,60.0024001,,,,,,,,,,,,,,,,,,,,,,,,,,,,,,,,,,,,,,,,,,,,,,,,,,,,散漫,i,,,i,1,0.5902,1,21,101,41,1,,
,,,,,,,,,,,,,,1,001,2025-01-11_16h37.26.291,IAT(Formal),2021.2.3,MacIntel,60.0024001,,,,,,,,,,,,,,,,,,,,,,,,,,,,,,,,,,,,,,,,,,,,,,,,,,,,凶狠,i,,,i,1,0.5221,1,22,102,42,1,,
,,,,,,,,,,,,,,1,001,2025-01-11_16h37.26.291,IAT(Formal),2021.2.3,MacIntel,60.0024001,,,,,,,,,,,,,,,,,,,,,,,,,,,,,,,,,,,,,,,,,,,,,,,,,,,,他,e,,,e,1,0.6005,1,23,103,55,1,,
,,,,,,,,,,,,,,1,001,2025-01-11_16h37.26.291,IAT(Formal),2021.2.3,MacIntel,60.0024001,,,,,,,,,,,,,,,,,,,,,,,,,,,,,,,,,,,,,,,,,,,,,,,,,,,,我,i,,,i,1,0.5519,1,24,104,60,1,,
,,,,,,,,,,,,,,1,001,2025-01-11_16h37.26.291,IAT(Formal),2021.2.3,MacIntel,60.0024001,,,,,,,,,,,,,,,,,,,,,,,,,,,,,,,,,,,,,,,,,,,,,,,,,,,,俺,i,,,i,1,0.6503,1,25,105,54,1,,
,,,,,,,,,,,,,,1,001,2025-01-11_16h37.26.291,IAT(Formal),2021.2.3,MacIntel,60.0024001,,,,,,,,,,,,,,,,,,,,,,,,,,,,,,,,,,,,,,,,,,,,,,,,,,,,自己,i,,,i,1,0.966,1,26,106,73,1,,
,,,,,,,,,,,,,,1,001,2025-01-11_16h37.26.291,IAT(Formal),2021.2.3,MacIntel,60.0024001,,,,,,,,,,,,,,,,,,,,,,,,,,,,,,,,,,,,,,,,,,,,,,,,,,,,聪明,e,,,e,1,1.2833,1,27,107,12,1,,
,,,,,,,,,,,,,,1,001,2025-01-11_16h37.26.291,IAT(Formal),2021.2.3,MacIntel,60.0024001,,,,,,,,,,,,,,,,,,,,,,,,,,,,,,,,,,,,,,,,,,,,,,,,,,,,固执,i,,,i,1,0.6883,1,28,108,47,1,,
,,,,,,,,,,,,,,1,001,2025-01-11_16h37.26.291,IAT(Formal),2021.2.3,MacIntel,60.0024001,,,,,,,,,,,,,,,,,,,,,,,,,,,,,,,,,,,,,,,,,,,,,,,,,,,,冒失,i,,,i,1,0.6679,1,29,109,39,1,,
,,,,,,,,,,,,,,1,001,2025-01-11_16h37.26.291,IAT(Formal),2021.2.3,MacIntel,60.0024001,,,,,,,,,,,,,,,,,,,,,,,,,,,,,,,,,,,,,,,,,,,,,,,,,,,,卑鄙,i,,,i,1,1.1841,1,30,110,30,1,,
,,,,,,,,,,,,,,1,001,2025-01-11_16h37.26.291,IAT(Formal),2021.2.3,MacIntel,60.0024001,,,,,,,,,,,,,,,,,,,,,,,,,,,,,,,,,,,,,,,,,,,,,,,,,,,,他人,e,,,e,1,0.8004,1,31,111,58,1,,
,,,,,,,,,,,,,,1,001,2025-01-11_16h37.26.291,IAT(Formal),2021.2.3,MacIntel,60.0024001,,,,,,,,,,,,,,,,,,,,,,,,,,,,,,,,,,,,,,,,,,,,,,,,,,,,暴躁,i,,,i,1,1.0452,1,32,112,44,1,,
,,,,,,,,,,,,,,1,001,2025-01-11_16h37.26.291,IAT(Formal),2021.2.3,MacIntel,60.0024001,,,,,,,,,,,,,,,,,,,,,,,,,,,,,,,,,,,,,,,,,,,,,,,,,,,,我的,i,,,e,0,1.4678,1,33,113,1,1,,
,,,,,,,,,,,,,,1,001,2025-01-11_16h37.26.291,IAT(Formal),2021.2.3,MacIntel,60.0024001,,,,,,,,,,,,,,,,,,,,,,,,,,,,,,,,,,,,,,,,,,,,,,,,,,,,我们,i,,,i,1,0.5028,1,34,114,52,1,,
,,,,,,,,,,,,,,1,001,2025-01-11_16h37.26.291,IAT(Formal),2021.2.3,MacIntel,60.0024001,,,,,,,,,,,,,,,,,,,,,,,,,,,,,,,,,,,,,,,,,,,,,,,,,,,,他人,e,,,e,1,0.6001,1,35,115,78,1,,
,,,,,,,,,,,,,,1,001,2025-01-11_16h37.26.291,IAT(Formal),2021.2.3,MacIntel,60.0024001,,,,,,,,,,,,,,,,,,,,,,,,,,,,,,,,,,,,,,,,,,,,,,,,,,,,自己,i,,,i,1,0.5591,1,36,116,3,1,,
,,,,,,,,,,,,,,1,001,2025-01-11_16h37.26.291,IAT(Formal),2021.2.3,MacIntel,60.0024001,,,,,,,,,,,,,,,,,,,,,,,,,,,,,,,,,,,,,,,,,,,,,,,,,,,,他的,e,,,e,1,0.7167,1,37,117,67,1,,
,,,,,,,,,,,,,,1,001,2025-01-11_16h37.26.291,IAT(Formal),2021.2.3,MacIntel,60.0024001,,,,,,,,,,,,,,,,,,,,,,,,,,,,,,,,,,,,,,,,,,,,,,,,,,,,勇敢,e,,,e,1,0.8012,1,38,118,17,1,,
,,,,,,,,,,,,,,1,001,2025-01-11_16h37.26.291,IAT(Formal),2021.2.3,MacIntel,60.0024001,,,,,,,,,,,,,,,,,,,,,,,,,,,,,,,,,,,,,,,,,,,,,,,,,,,,杰出,e,,,e,1,0.5353,1,39,119,13,1,,
,,,,,,,,,,,,,,1,001,2025-01-11_16h37.26.291,IAT(Formal),2021.2.3,MacIntel,60.0024001,,,,,,,,,,,,,,,,,,,,,,,,,,,,,,,,,,,,,,,,,,,,,,,,,,,,我的,i,,,i,1,0.7172,1,40,120,61,1,,
,,,,,,,,,,,,,,1,001,2025-01-11_16h37.26.291,IAT(Formal),2021.2.3,MacIntel,60.0024001,,,,,,,,,,,,,,,,,,,,,,,,,,,,,,,,,,,,,,,,,,,,,,,,,,,,无私,e,,,e,1,0.9488,1,41,121,22,1,,
,,,,,,,,,,,,,,1,001,2025-01-11_16h37.26.291,IAT(Formal),2021.2.3,MacIntel,60.0024001,,,,,,,,,,,,,,,,,,,,,,,,,,,,,,,,,,,,,,,,,,,,,,,,,,,,朴实,e,,,e,1,0.6721,1,42,122,24,1,,
,,,,,,,,,,,,,,1,001,2025-01-11_16h37.26.291,IAT(Formal),2021.2.3,MacIntel,60.0024001,,,,,,,,,,,,,,,,,,,,,,,,,,,,,,,,,,,,,,,,,,,,,,,,,,,,活泼,e,,,e,1,0.8516,1,43,123,28,1,,
,,,,,,,,,,,,,,1,001,2025-01-11_16h37.26.291,IAT(Formal),2021.2.3,MacIntel,60.0024001,,,,,,,,,,,,,,,,,,,,,,,,,,,,,,,,,,,,,,,,,,,,,,,,,,,,下贱,i,,,i,1,0.6059,1,44,124,49,1,,
,,,,,,,,,,,,,,1,001,2025-01-11_16h37.26.291,IAT(Formal),2021.2.3,MacIntel,60.0024001,,,,,,,,,,,,,,,,,,,,,,,,,,,,,,,,,,,,,,,,,,,,,,,,,,,,他们,e,,,e,1,0.5165,1,45,125,66,1,,
,,,,,,,,,,,,,,1,001,2025-01-11_16h37.26.291,IAT(Formal),2021.2.3,MacIntel,60.0024001,,,,,,,,,,,,,,,,,,,,,,,,,,,,,,,,,,,,,,,,,,,,,,,,,,,,我们,i,,,i,1,0.5686,1,46,126,2,1,,
,,,,,,,,,,,,,,1,001,2025-01-11_16h37.26.291,IAT(Formal),2021.2.3,MacIntel,60.0024001,,,,,,,,,,,,,,,,,,,,,,,,,,,,,,,,,,,,,,,,,,,,,,,,,,,,优秀,e,,,e,1,0.5843,1,47,127,10,1,,
,,,,,,,,,,,,,,1,001,2025-01-11_16h37.26.291,IAT(Formal),2021.2.3,MacIntel,60.0024001,,,,,,,,,,,,,,,,,,,,,,,,,,,,,,,,,,,,,,,,,,,,,,,,,,,,崇高,e,,,e,1,0.5095,1,48,128,11,1,,
,,,,,,,,,,,,,,1,001,2025-01-11_16h37.26.291,IAT(Formal),2021.2.3,MacIntel,60.0024001,,,,,,,,,,,,,,,,,,,,,,,,,,,,,,,,,,,,,,,,,,,,,,,,,,,,刻薄,i,,,i,1,0.591,1,49,129,33,1,,
,,,,,,,,,,,,,,1,001,2025-01-11_16h37.26.291,IAT(Formal),2021.2.3,MacIntel,60.0024001,,,,,,,,,,,,,,,,,,,,,,,,,,,,,,,,,,,,,,,,,,,,,,,,,,,,冷静,e,,,e,1,0.616,1,50,130,26,1,,
,,,,,,,,,,,,,,1,001,2025-01-11_16h37.26.291,IAT(Formal),2021.2.3,MacIntel,60.0024001,,,,,,,,,,,,,,,,,,,,,,,,,,,,,,,,,,,,,,,,,,,,,,,,,,,,认真,e,,,e,1,0.6508,1,51,131,20,1,,
,,,,,,,,,,,,,,1,001,2025-01-11_16h37.26.291,IAT(Formal),2021.2.3,MacIntel,60.0024001,,,,,,,,,,,,,,,,,,,,,,,,,,,,,,,,,,,,,,,,,,,,,,,,,,,,其他,e,,,e,1,0.9998,1,52,132,69,1,,
,,,,,,,,,,,,,,1,001,2025-01-11_16h37.26.291,IAT(Formal),2021.2.3,MacIntel,60.0024001,,,,,,,,,,,,,,,,,,,,,,,,,,,,,,,,,,,,,,,,,,,,,,,,,,,,我们,i,,,i,1,0.4404,1,53,133,62,1,,
,,,,,,,,,,,,,,1,001,2025-01-11_16h37.26.291,IAT(Formal),2021.2.3,MacIntel,60.0024001,,,,,,,,,,,,,,,,,,,,,,,,,,,,,,,,,,,,,,,,,,,,,,,,,,,,热情,e,,,e,1,0.7325,1,54,134,27,1,,
,,,,,,,,,,,,,,1,001,2025-01-11_16h37.26.291,IAT(Formal),2021.2.3,MacIntel,60.0024001,,,,,,,,,,,,,,,,,,,,,,,,,,,,,,,,,,,,,,,,,,,,,,,,,,,,我,i,,,i,1,0.7596,1,55,135,0,1,,
,,,,,,,,,,,,,,1,001,2025-01-11_16h37.26.291,IAT(Formal),2021.2.3,MacIntel,60.0024001,,,,,,,,,,,,,,,,,,,,,,,,,,,,,,,,,,,,,,,,,,,,,,,,,,,,他人,e,,,e,1,0.939,1,56,136,8,1,,
,,,,,,,,,,,,,,1,001,2025-01-11_16h37.26.291,IAT(Formal),2021.2.3,MacIntel,60.0024001,,,,,,,,,,,,,,,,,,,,,,,,,,,,,,,,,,,,,,,,,,,,,,,,,,,,俺,i,,,i,1,0.7217,1,57,137,4,1,,
,,,,,,,,,,,,,,1,001,2025-01-11_16h37.26.291,IAT(Formal),2021.2.3,MacIntel,60.0024001,,,,,,,,,,,,,,,,,,,,,,,,,,,,,,,,,,,,,,,,,,,,,,,,,,,,他的,e,,,e,1,0.468,1,58,138,77,1,,
,,,,,,,,,,,,,,1,001,2025-01-11_16h37.26.291,IAT(Formal),2021.2.3,MacIntel,60.0024001,,,,,,,,,,,,,,,,,,,,,,,,,,,,,,,,,,,,,,,,,,,,,,,,,,,,傲慢,i,,,i,1,1.2536,1,59,139,37,1,,
,,,,,,,,,,,,,,1,001,2025-01-11_16h37.26.291,IAT(Formal),2021.2.3,MacIntel,60.0024001,,,,,,,,,,,,,,,,,,,,,,,,,,,,,,,,,,,,,,,,,,,,,,,,,,,,他,e,,,e,1,0.726,1,60,140,65,1,,
,,,,,,,,,,,,,,1,001,2025-01-11_16h37.26.291,IAT(Formal),2021.2.3,MacIntel,60.0024001,,,,,,,,,,,,,,,,,,,,,,,,,,,,,,,,,,,,,,,,,,,,,,,,,,,,细腻,e,,,i,0,1.18,1,61,141,25,1,,
,,,,,,,,,,,,,,1,001,2025-01-11_16h37.26.291,IAT(Formal),2021.2.3,MacIntel,60.0024001,,,,,,,,,,,,,,,,,,,,,,,,,,,,,,,,,,,,,,,,,,,,,,,,,,,,机智,e,,,e,1,0.674,1,62,142,19,1,,
,,,,,,,,,,,,,,1,001,2025-01-11_16h37.26.291,IAT(Formal),2021.2.3,MacIntel,60.0024001,,,,,,,,,,,,,,,,,,,,,,,,,,,,,,,,,,,,,,,,,,,,,,,,,,,,正直,e,,,e,1,0.9359,1,63,143,16,1,,
,,,,,,,,,,,,,,1,001,2025-01-11_16h37.26.291,IAT(Formal),2021.2.3,MacIntel,60.0024001,,,,,,,,,,,,,,,,,,,,,,,,,,,,,,,,,,,,,,,,,,,,,,,,,,,,乐观,e,,,e,1,1.2171,1,64,144,14,1,,
,,,,,,,,,,,,,,1,001,2025-01-11_16h37.26.291,IAT(Formal),2021.2.3,MacIntel,60.0024001,,,,,,,,,,,,,,,,,,,,,,,,,,,,,,,,,,,,,,,,,,,,,,,,,,,,轻率,i,,,i,1,0.8032,1,65,145,48,1,,
,,,,,,,,,,,,,,1,001,2025-01-11_16h37.26.291,IAT(Formal),2021.2.3,MacIntel,60.0024001,,,,,,,,,,,,,,,,,,,,,,,,,,,,,,,,,,,,,,,,,,,,,,,,,,,,勤奋,e,,,e,1,0.8657,1,66,146,18,1,,
,,,,,,,,,,,,,,1,001,2025-01-11_16h37.26.291,IAT(Formal),2021.2.3,MacIntel,60.0024001,,,,,,,,,,,,,,,,,,,,,,,,,,,,,,,,,,,,,,,,,,,,,,,,,,,,自己,i,,,i,1,0.6685,1,67,147,53,1,,
,,,,,,,,,,,,,,1,001,2025-01-11_16h37.26.291,IAT(Formal),2021.2.3,MacIntel,60.0024001,,,,,,,,,,,,,,,,,,,,,,,,,,,,,,,,,,,,,,,,,,,,,,,,,,,,我,i,,,i,1,0.8498,1,68,148,50,1,,
,,,,,,,,,,,,,,1,001,2025-01-11_16h37.26.291,IAT(Formal),2021.2.3,MacIntel,60.0024001,,,,,,,,,,,,,,,,,,,,,,,,,,,,,,,,,,,,,,,,,,,,,,,,,,,,他,e,,,e,1,0.5674,1,69,149,75,1,,
,,,,,,,,,,,,,,1,001,2025-01-11_16h37.26.291,IAT(Formal),2021.2.3,MacIntel,60.0024001,,,,,,,,,,,,,,,,,,,,,,,,,,,,,,,,,,,,,,,,,,,,,,,,,,,,他人,e,,,e,1,0.7163,1,70,150,68,1,,
,,,,,,,,,,,,,,1,001,2025-01-11_16h37.26.291,IAT(Formal),2021.2.3,MacIntel,60.0024001,,,,,,,,,,,,,,,,,,,,,,,,,,,,,,,,,,,,,,,,,,,,,,,,,,,,其他,e,,,e,1,1.4672,1,71,151,59,1,,
,,,,,,,,,,,,,,1,001,2025-01-11_16h37.26.291,IAT(Formal),2021.2.3,MacIntel,60.0024001,,,,,,,,,,,,,,,,,,,,,,,,,,,,,,,,,,,,,,,,,,,,,,,,,,,,他们,e,,,e,1,0.6327,1,72,152,6,1,,
,,,,,,,,,,,,,,1,001,2025-01-11_16h37.26.291,IAT(Formal),2021.2.3,MacIntel,60.0024001,,,,,,,,,,,,,,,,,,,,,,,,,,,,,,,,,,,,,,,,,,,,,,,,,,,,我的,i,,,i,1,0.6843,1,73,153,51,1,,
,,,,,,,,,,,,,,1,001,2025-01-11_16h37.26.291,IAT(Formal),2021.2.3,MacIntel,60.0024001,,,,,,,,,,,,,,,,,,,,,,,,,,,,,,,,,,,,,,,,,,,,,,,,,,,,我们,i,,,e,0,1.134,1,74,154,72,1,,
,,,,,,,,,,,,,,1,001,2025-01-11_16h37.26.291,IAT(Formal),2021.2.3,MacIntel,60.0024001,,,,,,,,,,,,,,,,,,,,,,,,,,,,,,,,,,,,,,,,,,,,,,,,,,,,公正,e,,,e,1,0.5332,1,75,155,23,1,,
,,,,,,,,,,,,,,1,001,2025-01-11_16h37.26.291,IAT(Formal),2021.2.3,MacIntel,60.0024001,,,,,,,,,,,,,,,,,,,,,,,,,,,,,,,,,,,,,,,,,,,,,,,,,,,,诚实,e,,,e,1,0.7512,1,76,156,15,1,,
,,,,,,,,,,,,,,1,001,2025-01-11_16h37.26.291,IAT(Formal),2021.2.3,MacIntel,60.0024001,,,,,,,,,,,,,,,,,,,,,,,,,,,,,,,,,,,,,,,,,,,,,,,,,,,,消极,i,,,i,1,0.6855,1,77,157,35,1,,
,,,,,,,,,,,,,,1,001,2025-01-11_16h37.26.291,IAT(Formal),2021.2.3,MacIntel,60.0024001,,,,,,,,,,,,,,,,,,,,,,,,,,,,,,,,,,,,,,,,,,,,,,,,,,,,其他,e,,,e,1,0.5537,1,78,158,79,1,,
,,,,,,,,,,,,,,1,001,2025-01-11_16h37.26.291,IAT(Formal),2021.2.3,MacIntel,60.0024001,,,,,,,,,,,,,,,,,,,,,,,,,,,,,,,,,,,,,,,,,,,,,,,,,,,,我的,i,,,i,1,0.5914,1,79,159,71,1,,
,,,,,,,,,,,,,,1,001,2025-01-11_16h37.26.291,IAT(Formal),2021.2.3,MacIntel,60.0024001,,,,,,,,,,,,,,,,,,,,,,,,,,,,,,,,,,,,,,,,,,,,,,,,,,,,,,,,,,,,,,,,space,1.6491