﻿Instruction1.keys,Instruction1.rt,Instruction2.keys,Instruction2.rt,key_resp_iso.keys,key_resp_iso.corr,key_resp_iso.rt,Practice_01.thisRepN,Practice_01.thisTrialN,Practice_01.thisN,Practice_01.thisIndex,Practice_01.ran,Words,ans,participant,session,date,expName,psychopyVersion,OS,frameRate,key_resp_3.keys,key_resp_3.rt,key_resp_ipn.keys,key_resp_ipn.corr,key_resp_ipn.rt,Practice_02.thisRepN,Practice_02.thisTrialN,Practice_02.thisN,Practice_02.thisIndex,Practice_02.ran,Words_ipn,ans_ipn,key_resp_4.keys,key_resp_4.rt,key_resp_t1.keys,key_resp_t1.corr,key_resp_t1.rt,Practice_T1.thisRepN,Practice_T1.thisTrialN,Practice_T1.thisN,Practice_T1.thisIndex,Practice_T1.ran,Words_t1,ans_t1,key_resp_5.keys,key_resp_5.rt,Formal_T1.thisRepN,Formal_T1.thisTrialN,Formal_T1.thisN,Formal_T1.thisIndex,Formal_T1.ran,key_resp_6.keys,key_resp_6.rt,key_resp_iso_reverse.keys,key_resp_iso_reverse.corr,key_resp_iso_reverse.rt,Practice_iso_Reverse.thisRepN,Practice_iso_Reverse.thisTrialN,Practice_iso_Reverse.thisN,Practice_iso_Reverse.thisIndex,Practice_iso_Reverse.ran,key_resp_7.keys,key_resp_7.rt,key_resp_t2_Practice.keys,key_resp_t2_Practice.corr,key_resp_t2_Practice.rt,Practice_t2_Reverse.thisRepN,Practice_t2_Reverse.thisTrialN,Practice_t2_Reverse.thisN,Practice_t2_Reverse.thisIndex,Practice_t2_Reverse.ran,Words_t2,ans_t2,key_resp_8.keys,key_resp_8.rt,key_resp_t2.keys,key_resp_t2.corr,key_resp_t2.rt,Formal_t2_reverse.thisRepN,Formal_t2_reverse.thisTrialN,Formal_t2_reverse.thisN,Formal_t2_reverse.thisIndex,Formal_t2_reverse.ran,key_instruct.keys,key_instruct.rt
space,11.6326,space,11.8229,i,1,0.4969,0,0,0,6,1,他们,i,1,001,2025-01-12_12h42.31.630,IAT(Formal),2021.2.3,Win32,60.97560976,,,,,,,,,,,,,,,,,,,,,,,,,,,,,,,,,,,,,,,,,,,,,,,,,,,,,,,,,,,,,,,,,
,,,,e,1,0.4903,0,1,1,3,1,自己,e,1,001,2025-01-12_12h42.31.630,IAT(Formal),2021.2.3,Win32,60.97560976,,,,,,,,,,,,,,,,,,,,,,,,,,,,,,,,,,,,,,,,,,,,,,,,,,,,,,,,,,,,,,,,,
,,,,i,0,0.6358,0,2,2,1,1,我的,e,1,001,2025-01-12_12h42.31.630,IAT(Formal),2021.2.3,Win32,60.97560976,,,,,,,,,,,,,,,,,,,,,,,,,,,,,,,,,,,,,,,,,,,,,,,,,,,,,,,,,,,,,,,,,
,,,,e,1,0.5991,0,3,3,4,1,俺,e,1,001,2025-01-12_12h42.31.630,IAT(Formal),2021.2.3,Win32,60.97560976,,,,,,,,,,,,,,,,,,,,,,,,,,,,,,,,,,,,,,,,,,,,,,,,,,,,,,,,,,,,,,,,,
,,,,i,1,0.4613,0,4,4,7,1,他的,i,1,001,2025-01-12_12h42.31.630,IAT(Formal),2021.2.3,Win32,60.97560976,,,,,,,,,,,,,,,,,,,,,,,,,,,,,,,,,,,,,,,,,,,,,,,,,,,,,,,,,,,,,,,,,
,,,,i,1,0.4354,0,5,5,5,1,他,i,1,001,2025-01-12_12h42.31.630,IAT(Formal),2021.2.3,Win32,60.97560976,,,,,,,,,,,,,,,,,,,,,,,,,,,,,,,,,,,,,,,,,,,,,,,,,,,,,,,,,,,,,,,,,
,,,,i,1,0.354,0,6,6,9,1,其他,i,1,001,2025-01-12_12h42.31.630,IAT(Formal),2021.2.3,Win32,60.97560976,,,,,,,,,,,,,,,,,,,,,,,,,,,,,,,,,,,,,,,,,,,,,,,,,,,,,,,,,,,,,,,,,
,,,,e,1,0.5528,0,7,7,0,1,我,e,1,001,2025-01-12_12h42.31.630,IAT(Formal),2021.2.3,Win32,60.97560976,,,,,,,,,,,,,,,,,,,,,,,,,,,,,,,,,,,,,,,,,,,,,,,,,,,,,,,,,,,,,,,,,
,,,,e,1,0.4017,0,8,8,2,1,我们,e,1,001,2025-01-12_12h42.31.630,IAT(Formal),2021.2.3,Win32,60.97560976,,,,,,,,,,,,,,,,,,,,,,,,,,,,,,,,,,,,,,,,,,,,,,,,,,,,,,,,,,,,,,,,,
,,,,i,1,0.4437,0,9,9,8,1,他人,i,1,001,2025-01-12_12h42.31.630,IAT(Formal),2021.2.3,Win32,60.97560976,,,,,,,,,,,,,,,,,,,,,,,,,,,,,,,,,,,,,,,,,,,,,,,,,,,,,,,,,,,,,,,,,
,,,,,,,,,,,,,,1,001,2025-01-12_12h42.31.630,IAT(Formal),2021.2.3,Win32,60.97560976,space,4.2964,i,1,0.6141,0,0,0,26,1,自卑,i,,,,,,,,,,,,,,,,,,,,,,,,,,,,,,,,,,,,,,,,,,,,,,,,,,,,,
,,,,,,,,,,,,,,1,001,2025-01-12_12h42.31.630,IAT(Formal),2021.2.3,Win32,60.97560976,,,e,1,0.3604,0,1,1,7,1,勇敢,e,,,,,,,,,,,,,,,,,,,,,,,,,,,,,,,,,,,,,,,,,,,,,,,,,,,,,
,,,,,,,,,,,,,,1,001,2025-01-12_12h42.31.630,IAT(Formal),2021.2.3,Win32,60.97560976,,,e,1,0.3973,0,2,2,2,1,聪明,e,,,,,,,,,,,,,,,,,,,,,,,,,,,,,,,,,,,,,,,,,,,,,,,,,,,,,
,,,,,,,,,,,,,,1,001,2025-01-12_12h42.31.630,IAT(Formal),2021.2.3,Win32,60.97560976,,,e,1,0.4015,0,3,3,19,1,诚恳,e,,,,,,,,,,,,,,,,,,,,,,,,,,,,,,,,,,,,,,,,,,,,,,,,,,,,,
,,,,,,,,,,,,,,1,001,2025-01-12_12h42.31.630,IAT(Formal),2021.2.3,Win32,60.97560976,,,e,1,0.4659,0,4,4,3,1,杰出,e,,,,,,,,,,,,,,,,,,,,,,,,,,,,,,,,,,,,,,,,,,,,,,,,,,,,,
,,,,,,,,,,,,,,1,001,2025-01-12_12h42.31.630,IAT(Formal),2021.2.3,Win32,60.97560976,,,i,1,0.6311,0,5,5,31,1,散漫,i,,,,,,,,,,,,,,,,,,,,,,,,,,,,,,,,,,,,,,,,,,,,,,,,,,,,,
,,,,,,,,,,,,,,1,001,2025-01-12_12h42.31.630,IAT(Formal),2021.2.3,Win32,60.97560976,,,i,1,0.4186,0,6,6,32,1,凶狠,i,,,,,,,,,,,,,,,,,,,,,,,,,,,,,,,,,,,,,,,,,,,,,,,,,,,,,
,,,,,,,,,,,,,,1,001,2025-01-12_12h42.31.630,IAT(Formal),2021.2.3,Win32,60.97560976,,,i,0,0.3946,0,7,7,10,1,认真,e,,,,,,,,,,,,,,,,,,,,,,,,,,,,,,,,,,,,,,,,,,,,,,,,,,,,,
,,,,,,,,,,,,,,1,001,2025-01-12_12h42.31.630,IAT(Formal),2021.2.3,Win32,60.97560976,,,i,1,0.4829,0,8,8,25,1,消极,i,,,,,,,,,,,,,,,,,,,,,,,,,,,,,,,,,,,,,,,,,,,,,,,,,,,,,
,,,,,,,,,,,,,,1,001,2025-01-12_12h42.31.630,IAT(Formal),2021.2.3,Win32,60.97560976,,,i,1,0.4177,0,9,9,39,1,下贱,i,,,,,,,,,,,,,,,,,,,,,,,,,,,,,,,,,,,,,,,,,,,,,,,,,,,,,
,,,,,,,,,,,,,,1,001,2025-01-12_12h42.31.630,IAT(Formal),2021.2.3,Win32,60.97560976,,,i,1,0.5012,0,10,10,22,1,愚蠢,i,,,,,,,,,,,,,,,,,,,,,,,,,,,,,,,,,,,,,,,,,,,,,,,,,,,,,
,,,,,,,,,,,,,,1,001,2025-01-12_12h42.31.630,IAT(Formal),2021.2.3,Win32,60.97560976,,,i,0,0.5228,0,11,11,16,1,冷静,e,,,,,,,,,,,,,,,,,,,,,,,,,,,,,,,,,,,,,,,,,,,,,,,,,,,,,
,,,,,,,,,,,,,,1,001,2025-01-12_12h42.31.630,IAT(Formal),2021.2.3,Win32,60.97560976,,,e,1,0.4597,0,12,12,9,1,机智,e,,,,,,,,,,,,,,,,,,,,,,,,,,,,,,,,,,,,,,,,,,,,,,,,,,,,,
,,,,,,,,,,,,,,1,001,2025-01-12_12h42.31.630,IAT(Formal),2021.2.3,Win32,60.97560976,,,i,1,0.5024,0,13,13,28,1,鲁莽,i,,,,,,,,,,,,,,,,,,,,,,,,,,,,,,,,,,,,,,,,,,,,,,,,,,,,,
,,,,,,,,,,,,,,1,001,2025-01-12_12h42.31.630,IAT(Formal),2021.2.3,Win32,60.97560976,,,e,1,0.5591,0,14,14,13,1,公正,e,,,,,,,,,,,,,,,,,,,,,,,,,,,,,,,,,,,,,,,,,,,,,,,,,,,,,
,,,,,,,,,,,,,,1,001,2025-01-12_12h42.31.630,IAT(Formal),2021.2.3,Win32,60.97560976,,,i,1,0.4699,0,15,15,36,1,野蛮,i,,,,,,,,,,,,,,,,,,,,,,,,,,,,,,,,,,,,,,,,,,,,,,,,,,,,,
,,,,,,,,,,,,,,1,001,2025-01-12_12h42.31.630,IAT(Formal),2021.2.3,Win32,60.97560976,,,i,1,0.44,0,16,16,29,1,冒失,i,,,,,,,,,,,,,,,,,,,,,,,,,,,,,,,,,,,,,,,,,,,,,,,,,,,,,
,,,,,,,,,,,,,,1,001,2025-01-12_12h42.31.630,IAT(Formal),2021.2.3,Win32,60.97560976,,,i,1,0.5846,0,17,17,37,1,固执,i,,,,,,,,,,,,,,,,,,,,,,,,,,,,,,,,,,,,,,,,,,,,,,,,,,,,,
,,,,,,,,,,,,,,1,001,2025-01-12_12h42.31.630,IAT(Formal),2021.2.3,Win32,60.97560976,,,e,0,0.4705,0,18,18,23,1,刻薄,i,,,,,,,,,,,,,,,,,,,,,,,,,,,,,,,,,,,,,,,,,,,,,,,,,,,,,
,,,,,,,,,,,,,,1,001,2025-01-12_12h42.31.630,IAT(Formal),2021.2.3,Win32,60.97560976,,,i,1,0.7425,0,19,19,21,1,虚伪,i,,,,,,,,,,,,,,,,,,,,,,,,,,,,,,,,,,,,,,,,,,,,,,,,,,,,,
,,,,,,,,,,,,,,1,001,2025-01-12_12h42.31.630,IAT(Formal),2021.2.3,Win32,60.97560976,,,e,1,0.4979,0,20,20,1,1,崇高,e,,,,,,,,,,,,,,,,,,,,,,,,,,,,,,,,,,,,,,,,,,,,,,,,,,,,,
,,,,,,,,,,,,,,1,001,2025-01-12_12h42.31.630,IAT(Formal),2021.2.3,Win32,60.97560976,,,e,1,0.5151,0,21,21,5,1,诚实,e,,,,,,,,,,,,,,,,,,,,,,,,,,,,,,,,,,,,,,,,,,,,,,,,,,,,,
,,,,,,,,,,,,,,1,001,2025-01-12_12h42.31.630,IAT(Formal),2021.2.3,Win32,60.97560976,,,i,1,0.7157,0,22,22,27,1,傲慢,i,,,,,,,,,,,,,,,,,,,,,,,,,,,,,,,,,,,,,,,,,,,,,,,,,,,,,
,,,,,,,,,,,,,,1,001,2025-01-12_12h42.31.630,IAT(Formal),2021.2.3,Win32,60.97560976,,,e,1,0.5334,0,23,23,17,1,热情,e,,,,,,,,,,,,,,,,,,,,,,,,,,,,,,,,,,,,,,,,,,,,,,,,,,,,,
,,,,,,,,,,,,,,1,001,2025-01-12_12h42.31.630,IAT(Formal),2021.2.3,Win32,60.97560976,,,e,1,0.5219,0,24,24,0,1,优秀,e,,,,,,,,,,,,,,,,,,,,,,,,,,,,,,,,,,,,,,,,,,,,,,,,,,,,,
,,,,,,,,,,,,,,1,001,2025-01-12_12h42.31.630,IAT(Formal),2021.2.3,Win32,60.97560976,,,e,1,0.5199,0,25,25,6,1,正直,e,,,,,,,,,,,,,,,,,,,,,,,,,,,,,,,,,,,,,,,,,,,,,,,,,,,,,
,,,,,,,,,,,,,,1,001,2025-01-12_12h42.31.630,IAT(Formal),2021.2.3,Win32,60.97560976,,,i,1,0.5328,0,26,26,35,1,猖狂,i,,,,,,,,,,,,,,,,,,,,,,,,,,,,,,,,,,,,,,,,,,,,,,,,,,,,,
,,,,,,,,,,,,,,1,001,2025-01-12_12h42.31.630,IAT(Formal),2021.2.3,Win32,60.97560976,,,e,1,0.7924,0,27,27,8,1,勤奋,e,,,,,,,,,,,,,,,,,,,,,,,,,,,,,,,,,,,,,,,,,,,,,,,,,,,,,
,,,,,,,,,,,,,,1,001,2025-01-12_12h42.31.630,IAT(Formal),2021.2.3,Win32,60.97560976,,,e,1,0.7211,0,28,28,15,1,细腻,e,,,,,,,,,,,,,,,,,,,,,,,,,,,,,,,,,,,,,,,,,,,,,,,,,,,,,
,,,,,,,,,,,,,,1,001,2025-01-12_12h42.31.630,IAT(Formal),2021.2.3,Win32,60.97560976,,,e,1,0.5668,0,29,29,4,1,乐观,e,,,,,,,,,,,,,,,,,,,,,,,,,,,,,,,,,,,,,,,,,,,,,,,,,,,,,
,,,,,,,,,,,,,,1,001,2025-01-12_12h42.31.630,IAT(Formal),2021.2.3,Win32,60.97560976,,,e,1,0.5554,0,30,30,11,1,稳重,e,,,,,,,,,,,,,,,,,,,,,,,,,,,,,,,,,,,,,,,,,,,,,,,,,,,,,
,,,,,,,,,,,,,,1,001,2025-01-12_12h42.31.630,IAT(Formal),2021.2.3,Win32,60.97560976,,,e,1,0.567,0,31,31,14,1,朴实,e,,,,,,,,,,,,,,,,,,,,,,,,,,,,,,,,,,,,,,,,,,,,,,,,,,,,,
,,,,,,,,,,,,,,1,001,2025-01-12_12h42.31.630,IAT(Formal),2021.2.3,Win32,60.97560976,,,i,1,0.4017,0,32,32,20,1,卑鄙,i,,,,,,,,,,,,,,,,,,,,,,,,,,,,,,,,,,,,,,,,,,,,,,,,,,,,,
,,,,,,,,,,,,,,1,001,2025-01-12_12h42.31.630,IAT(Formal),2021.2.3,Win32,60.97560976,,,i,1,0.476,0,33,33,33,1,自私,i,,,,,,,,,,,,,,,,,,,,,,,,,,,,,,,,,,,,,,,,,,,,,,,,,,,,,
,,,,,,,,,,,,,,1,001,2025-01-12_12h42.31.630,IAT(Formal),2021.2.3,Win32,60.97560976,,,i,0,0.4674,0,34,34,12,1,无私,e,,,,,,,,,,,,,,,,,,,,,,,,,,,,,,,,,,,,,,,,,,,,,,,,,,,,,
,,,,,,,,,,,,,,1,001,2025-01-12_12h42.31.630,IAT(Formal),2021.2.3,Win32,60.97560976,,,i,1,0.6028,0,35,35,34,1,暴躁,i,,,,,,,,,,,,,,,,,,,,,,,,,,,,,,,,,,,,,,,,,,,,,,,,,,,,,
,,,,,,,,,,,,,,1,001,2025-01-12_12h42.31.630,IAT(Formal),2021.2.3,Win32,60.97560976,,,i,1,0.668,0,36,36,30,1,执拗,i,,,,,,,,,,,,,,,,,,,,,,,,,,,,,,,,,,,,,,,,,,,,,,,,,,,,,
,,,,,,,,,,,,,,1,001,2025-01-12_12h42.31.630,IAT(Formal),2021.2.3,Win32,60.97560976,,,i,1,0.5513,0,37,37,38,1,轻率,i,,,,,,,,,,,,,,,,,,,,,,,,,,,,,,,,,,,,,,,,,,,,,,,,,,,,,
,,,,,,,,,,,,,,1,001,2025-01-12_12h42.31.630,IAT(Formal),2021.2.3,Win32,60.97560976,,,i,1,0.592,0,38,38,24,1,悲观,i,,,,,,,,,,,,,,,,,,,,,,,,,,,,,,,,,,,,,,,,,,,,,,,,,,,,,
,,,,,,,,,,,,,,1,001,2025-01-12_12h42.31.630,IAT(Formal),2021.2.3,Win32,60.97560976,,,e,1,0.7518,0,39,39,18,1,活泼,e,,,,,,,,,,,,,,,,,,,,,,,,,,,,,,,,,,,,,,,,,,,,,,,,,,,,,
,,,,,,,,,,,,,,1,001,2025-01-12_12h42.31.630,IAT(Formal),2021.2.3,Win32,60.97560976,,,,,,,,,,,,,space,4.3669,e,1,0.6007,0,0,0,64,1,俺,e,,,,,,,,,,,,,,,,,,,,,,,,,,,,,,,,,,,,,,,,,
,,,,,,,,,,,,,,1,001,2025-01-12_12h42.31.630,IAT(Formal),2021.2.3,Win32,60.97560976,,,,,,,,,,,,,,,i,1,0.5525,0,1,1,33,1,刻薄,i,,,,,,,,,,,,,,,,,,,,,,,,,,,,,,,,,,,,,,,,,
,,,,,,,,,,,,,,1,001,2025-01-12_12h42.31.630,IAT(Formal),2021.2.3,Win32,60.97560976,,,,,,,,,,,,,,,e,1,0.737,0,2,2,18,1,勤奋,e,,,,,,,,,,,,,,,,,,,,,,,,,,,,,,,,,,,,,,,,,
,,,,,,,,,,,,,,1,001,2025-01-12_12h42.31.630,IAT(Formal),2021.2.3,Win32,60.97560976,,,,,,,,,,,,,,,i,1,0.4269,0,3,3,30,1,卑鄙,i,,,,,,,,,,,,,,,,,,,,,,,,,,,,,,,,,,,,,,,,,
,,,,,,,,,,,,,,1,001,2025-01-12_12h42.31.630,IAT(Formal),2021.2.3,Win32,60.97560976,,,,,,,,,,,,,,,e,1,0.5553,0,4,4,26,1,冷静,e,,,,,,,,,,,,,,,,,,,,,,,,,,,,,,,,,,,,,,,,,
,,,,,,,,,,,,,,1,001,2025-01-12_12h42.31.630,IAT(Formal),2021.2.3,Win32,60.97560976,,,,,,,,,,,,,,,e,1,0.4988,0,5,5,16,1,正直,e,,,,,,,,,,,,,,,,,,,,,,,,,,,,,,,,,,,,,,,,,
,,,,,,,,,,,,,,1,001,2025-01-12_12h42.31.630,IAT(Formal),2021.2.3,Win32,60.97560976,,,,,,,,,,,,,,,e,1,0.4177,0,6,6,17,1,勇敢,e,,,,,,,,,,,,,,,,,,,,,,,,,,,,,,,,,,,,,,,,,
,,,,,,,,,,,,,,1,001,2025-01-12_12h42.31.630,IAT(Formal),2021.2.3,Win32,60.97560976,,,,,,,,,,,,,,,i,1,0.4699,0,7,7,49,1,下贱,i,,,,,,,,,,,,,,,,,,,,,,,,,,,,,,,,,,,,,,,,,
,,,,,,,,,,,,,,1,001,2025-01-12_12h42.31.630,IAT(Formal),2021.2.3,Win32,60.97560976,,,,,,,,,,,,,,,i,1,0.559,0,8,8,77,1,他的,i,,,,,,,,,,,,,,,,,,,,,,,,,,,,,,,,,,,,,,,,,
,,,,,,,,,,,,,,1,001,2025-01-12_12h42.31.630,IAT(Formal),2021.2.3,Win32,60.97560976,,,,,,,,,,,,,,,i,1,0.4456,0,9,9,5,1,他,i,,,,,,,,,,,,,,,,,,,,,,,,,,,,,,,,,,,,,,,,,
,,,,,,,,,,,,,,1,001,2025-01-12_12h42.31.630,IAT(Formal),2021.2.3,Win32,60.97560976,,,,,,,,,,,,,,,i,1,0.5143,0,10,10,35,1,消极,i,,,,,,,,,,,,,,,,,,,,,,,,,,,,,,,,,,,,,,,,,
,,,,,,,,,,,,,,1,001,2025-01-12_12h42.31.630,IAT(Formal),2021.2.3,Win32,60.97560976,,,,,,,,,,,,,,,e,1,0.4763,0,11,11,70,1,我,e,,,,,,,,,,,,,,,,,,,,,,,,,,,,,,,,,,,,,,,,,
,,,,,,,,,,,,,,1,001,2025-01-12_12h42.31.630,IAT(Formal),2021.2.3,Win32,60.97560976,,,,,,,,,,,,,,,i,1,0.697,0,12,12,37,1,傲慢,i,,,,,,,,,,,,,,,,,,,,,,,,,,,,,,,,,,,,,,,,,
,,,,,,,,,,,,,,1,001,2025-01-12_12h42.31.630,IAT(Formal),2021.2.3,Win32,60.97560976,,,,,,,,,,,,,,,i,1,0.5525,0,13,13,57,1,他的,i,,,,,,,,,,,,,,,,,,,,,,,,,,,,,,,,,,,,,,,,,
,,,,,,,,,,,,,,1,001,2025-01-12_12h42.31.630,IAT(Formal),2021.2.3,Win32,60.97560976,,,,,,,,,,,,,,,e,1,0.5734,0,14,14,3,1,自己,e,,,,,,,,,,,,,,,,,,,,,,,,,,,,,,,,,,,,,,,,,
,,,,,,,,,,,,,,1,001,2025-01-12_12h42.31.630,IAT(Formal),2021.2.3,Win32,60.97560976,,,,,,,,,,,,,,,i,1,0.5175,0,15,15,58,1,他人,i,,,,,,,,,,,,,,,,,,,,,,,,,,,,,,,,,,,,,,,,,
,,,,,,,,,,,,,,1,001,2025-01-12_12h42.31.630,IAT(Formal),2021.2.3,Win32,60.97560976,,,,,,,,,,,,,,,e,1,0.5369,0,16,16,14,1,乐观,e,,,,,,,,,,,,,,,,,,,,,,,,,,,,,,,,,,,,,,,,,
,,,,,,,,,,,,,,1,001,2025-01-12_12h42.31.630,IAT(Formal),2021.2.3,Win32,60.97560976,,,,,,,,,,,,,,,i,1,0.5,0,17,17,9,1,其他,i,,,,,,,,,,,,,,,,,,,,,,,,,,,,,,,,,,,,,,,,,
,,,,,,,,,,,,,,1,001,2025-01-12_12h42.31.630,IAT(Formal),2021.2.3,Win32,60.97560976,,,,,,,,,,,,,,,e,1,0.521,0,18,18,10,1,优秀,e,,,,,,,,,,,,,,,,,,,,,,,,,,,,,,,,,,,,,,,,,
,,,,,,,,,,,,,,1,001,2025-01-12_12h42.31.630,IAT(Formal),2021.2.3,Win32,60.97560976,,,,,,,,,,,,,,,e,1,0.4859,0,19,19,28,1,活泼,e,,,,,,,,,,,,,,,,,,,,,,,,,,,,,,,,,,,,,,,,,
,,,,,,,,,,,,,,1,001,2025-01-12_12h42.31.630,IAT(Formal),2021.2.3,Win32,60.97560976,,,,,,,,,,,,,,,e,1,0.6254,0,20,20,27,1,热情,e,,,,,,,,,,,,,,,,,,,,,,,,,,,,,,,,,,,,,,,,,
,,,,,,,,,,,,,,1,001,2025-01-12_12h42.31.630,IAT(Formal),2021.2.3,Win32,60.97560976,,,,,,,,,,,,,,,e,1,0.5984,0,21,21,2,1,我们,e,,,,,,,,,,,,,,,,,,,,,,,,,,,,,,,,,,,,,,,,,
,,,,,,,,,,,,,,1,001,2025-01-12_12h42.31.630,IAT(Formal),2021.2.3,Win32,60.97560976,,,,,,,,,,,,,,,e,1,0.4818,0,22,22,13,1,杰出,e,,,,,,,,,,,,,,,,,,,,,,,,,,,,,,,,,,,,,,,,,
,,,,,,,,,,,,,,1,001,2025-01-12_12h42.31.630,IAT(Formal),2021.2.3,Win32,60.97560976,,,,,,,,,,,,,,,e,1,0.4833,0,23,23,1,1,我的,e,,,,,,,,,,,,,,,,,,,,,,,,,,,,,,,,,,,,,,,,,
,,,,,,,,,,,,,,1,001,2025-01-12_12h42.31.630,IAT(Formal),2021.2.3,Win32,60.97560976,,,,,,,,,,,,,,,e,1,0.588,0,24,24,22,1,无私,e,,,,,,,,,,,,,,,,,,,,,,,,,,,,,,,,,,,,,,,,,
,,,,,,,,,,,,,,1,001,2025-01-12_12h42.31.630,IAT(Formal),2021.2.3,Win32,60.97560976,,,,,,,,,,,,,,,e,1,0.6965,0,25,25,54,1,俺,e,,,,,,,,,,,,,,,,,,,,,,,,,,,,,,,,,,,,,,,,,
,,,,,,,,,,,,,,1,001,2025-01-12_12h42.31.630,IAT(Formal),2021.2.3,Win32,60.97560976,,,,,,,,,,,,,,,e,1,0.5357,0,26,26,24,1,朴实,e,,,,,,,,,,,,,,,,,,,,,,,,,,,,,,,,,,,,,,,,,
,,,,,,,,,,,,,,1,001,2025-01-12_12h42.31.630,IAT(Formal),2021.2.3,Win32,60.97560976,,,,,,,,,,,,,,,e,1,0.4108,0,27,27,61,1,我的,e,,,,,,,,,,,,,,,,,,,,,,,,,,,,,,,,,,,,,,,,,
,,,,,,,,,,,,,,1,001,2025-01-12_12h42.31.630,IAT(Formal),2021.2.3,Win32,60.97560976,,,,,,,,,,,,,,,e,1,0.468,0,28,28,74,1,俺,e,,,,,,,,,,,,,,,,,,,,,,,,,,,,,,,,,,,,,,,,,
,,,,,,,,,,,,,,1,001,2025-01-12_12h42.31.630,IAT(Formal),2021.2.3,Win32,60.97560976,,,,,,,,,,,,,,,i,1,0.5021,0,29,29,78,1,他人,i,,,,,,,,,,,,,,,,,,,,,,,,,,,,,,,,,,,,,,,,,
,,,,,,,,,,,,,,1,001,2025-01-12_12h42.31.630,IAT(Formal),2021.2.3,Win32,60.97560976,,,,,,,,,,,,,,,e,1,0.5519,0,30,30,21,1,稳重,e,,,,,,,,,,,,,,,,,,,,,,,,,,,,,,,,,,,,,,,,,
,,,,,,,,,,,,,,1,001,2025-01-12_12h42.31.630,IAT(Formal),2021.2.3,Win32,60.97560976,,,,,,,,,,,,,,,e,1,0.4014,0,31,31,11,1,崇高,e,,,,,,,,,,,,,,,,,,,,,,,,,,,,,,,,,,,,,,,,,
,,,,,,,,,,,,,,1,001,2025-01-12_12h42.31.630,IAT(Formal),2021.2.3,Win32,60.97560976,,,,,,,,,,,,,,,i,1,0.768,0,32,32,43,1,自私,i,,,,,,,,,,,,,,,,,,,,,,,,,,,,,,,,,,,,,,,,,
,,,,,,,,,,,,,,1,001,2025-01-12_12h42.31.630,IAT(Formal),2021.2.3,Win32,60.97560976,,,,,,,,,,,,,,,e,1,0.5192,0,33,33,19,1,机智,e,,,,,,,,,,,,,,,,,,,,,,,,,,,,,,,,,,,,,,,,,
,,,,,,,,,,,,,,1,001,2025-01-12_12h42.31.630,IAT(Formal),2021.2.3,Win32,60.97560976,,,,,,,,,,,,,,,e,1,0.5027,0,34,34,73,1,自己,e,,,,,,,,,,,,,,,,,,,,,,,,,,,,,,,,,,,,,,,,,
,,,,,,,,,,,,,,1,001,2025-01-12_12h42.31.630,IAT(Formal),2021.2.3,Win32,60.97560976,,,,,,,,,,,,,,,i,1,0.7205,0,35,35,76,1,他们,i,,,,,,,,,,,,,,,,,,,,,,,,,,,,,,,,,,,,,,,,,
,,,,,,,,,,,,,,1,001,2025-01-12_12h42.31.630,IAT(Formal),2021.2.3,Win32,60.97560976,,,,,,,,,,,,,,,e,1,0.4992,0,36,36,62,1,我们,e,,,,,,,,,,,,,,,,,,,,,,,,,,,,,,,,,,,,,,,,,
,,,,,,,,,,,,,,1,001,2025-01-12_12h42.31.630,IAT(Formal),2021.2.3,Win32,60.97560976,,,,,,,,,,,,,,,i,1,0.73,0,37,37,36,1,自卑,i,,,,,,,,,,,,,,,,,,,,,,,,,,,,,,,,,,,,,,,,,
,,,,,,,,,,,,,,1,001,2025-01-12_12h42.31.630,IAT(Formal),2021.2.3,Win32,60.97560976,,,,,,,,,,,,,,,i,1,0.5143,0,38,38,75,1,他,i,,,,,,,,,,,,,,,,,,,,,,,,,,,,,,,,,,,,,,,,,
,,,,,,,,,,,,,,1,001,2025-01-12_12h42.31.630,IAT(Formal),2021.2.3,Win32,60.97560976,,,,,,,,,,,,,,,i,1,0.4829,0,39,39,79,1,其他,i,,,,,,,,,,,,,,,,,,,,,,,,,,,,,,,,,,,,,,,,,
,,,,,,,,,,,,,,1,001,2025-01-12_12h42.31.630,IAT(Formal),2021.2.3,Win32,60.97560976,,,,,,,,,,,,,,,i,1,0.6425,0,40,40,45,1,猖狂,i,,,,,,,,,,,,,,,,,,,,,,,,,,,,,,,,,,,,,,,,,
,,,,,,,,,,,,,,1,001,2025-01-12_12h42.31.630,IAT(Formal),2021.2.3,Win32,60.97560976,,,,,,,,,,,,,,,i,1,0.5689,0,41,41,59,1,其他,i,,,,,,,,,,,,,,,,,,,,,,,,,,,,,,,,,,,,,,,,,
,,,,,,,,,,,,,,1,001,2025-01-12_12h42.31.630,IAT(Formal),2021.2.3,Win32,60.97560976,,,,,,,,,,,,,,,i,1,0.6198,0,42,42,55,1,他,i,,,,,,,,,,,,,,,,,,,,,,,,,,,,,,,,,,,,,,,,,
,,,,,,,,,,,,,,1,001,2025-01-12_12h42.31.630,IAT(Formal),2021.2.3,Win32,60.97560976,,,,,,,,,,,,,,,i,1,0.4055,0,43,43,65,1,他,i,,,,,,,,,,,,,,,,,,,,,,,,,,,,,,,,,,,,,,,,,
,,,,,,,,,,,,,,1,001,2025-01-12_12h42.31.630,IAT(Formal),2021.2.3,Win32,60.97560976,,,,,,,,,,,,,,,i,1,0.5995,0,44,44,38,1,鲁莽,i,,,,,,,,,,,,,,,,,,,,,,,,,,,,,,,,,,,,,,,,,
,,,,,,,,,,,,,,1,001,2025-01-12_12h42.31.630,IAT(Formal),2021.2.3,Win32,60.97560976,,,,,,,,,,,,,,,e,1,0.5099,0,45,45,71,1,我的,e,,,,,,,,,,,,,,,,,,,,,,,,,,,,,,,,,,,,,,,,,
,,,,,,,,,,,,,,1,001,2025-01-12_12h42.31.630,IAT(Formal),2021.2.3,Win32,60.97560976,,,,,,,,,,,,,,,i,1,0.784,0,46,46,46,1,野蛮,i,,,,,,,,,,,,,,,,,,,,,,,,,,,,,,,,,,,,,,,,,
,,,,,,,,,,,,,,1,001,2025-01-12_12h42.31.630,IAT(Formal),2021.2.3,Win32,60.97560976,,,,,,,,,,,,,,,i,1,0.4989,0,47,47,69,1,其他,i,,,,,,,,,,,,,,,,,,,,,,,,,,,,,,,,,,,,,,,,,
,,,,,,,,,,,,,,1,001,2025-01-12_12h42.31.630,IAT(Formal),2021.2.3,Win32,60.97560976,,,,,,,,,,,,,,,i,1,0.4356,0,48,48,67,1,他的,i,,,,,,,,,,,,,,,,,,,,,,,,,,,,,,,,,,,,,,,,,
,,,,,,,,,,,,,,1,001,2025-01-12_12h42.31.630,IAT(Formal),2021.2.3,Win32,60.97560976,,,,,,,,,,,,,,,e,1,0.5705,0,49,49,12,1,聪明,e,,,,,,,,,,,,,,,,,,,,,,,,,,,,,,,,,,,,,,,,,
,,,,,,,,,,,,,,1,001,2025-01-12_12h42.31.630,IAT(Formal),2021.2.3,Win32,60.97560976,,,,,,,,,,,,,,,e,1,0.4343,0,50,50,60,1,我,e,,,,,,,,,,,,,,,,,,,,,,,,,,,,,,,,,,,,,,,,,
,,,,,,,,,,,,,,1,001,2025-01-12_12h42.31.630,IAT(Formal),2021.2.3,Win32,60.97560976,,,,,,,,,,,,,,,i,1,0.5431,0,51,51,42,1,凶狠,i,,,,,,,,,,,,,,,,,,,,,,,,,,,,,,,,,,,,,,,,,
,,,,,,,,,,,,,,1,001,2025-01-12_12h42.31.630,IAT(Formal),2021.2.3,Win32,60.97560976,,,,,,,,,,,,,,,i,1,0.6306,0,52,52,34,1,悲观,i,,,,,,,,,,,,,,,,,,,,,,,,,,,,,,,,,,,,,,,,,
,,,,,,,,,,,,,,1,001,2025-01-12_12h42.31.630,IAT(Formal),2021.2.3,Win32,60.97560976,,,,,,,,,,,,,,,e,1,0.5178,0,53,53,4,1,俺,e,,,,,,,,,,,,,,,,,,,,,,,,,,,,,,,,,,,,,,,,,
,,,,,,,,,,,,,,1,001,2025-01-12_12h42.31.630,IAT(Formal),2021.2.3,Win32,60.97560976,,,,,,,,,,,,,,,e,1,0.5944,0,54,54,29,1,诚恳,e,,,,,,,,,,,,,,,,,,,,,,,,,,,,,,,,,,,,,,,,,
,,,,,,,,,,,,,,1,001,2025-01-12_12h42.31.630,IAT(Formal),2021.2.3,Win32,60.97560976,,,,,,,,,,,,,,,i,1,0.9493,0,55,55,48,1,轻率,i,,,,,,,,,,,,,,,,,,,,,,,,,,,,,,,,,,,,,,,,,
,,,,,,,,,,,,,,1,001,2025-01-12_12h42.31.630,IAT(Formal),2021.2.3,Win32,60.97560976,,,,,,,,,,,,,,,i,1,0.5983,0,56,56,6,1,他们,i,,,,,,,,,,,,,,,,,,,,,,,,,,,,,,,,,,,,,,,,,
,,,,,,,,,,,,,,1,001,2025-01-12_12h42.31.630,IAT(Formal),2021.2.3,Win32,60.97560976,,,,,,,,,,,,,,,i,1,0.4521,0,57,57,44,1,暴躁,i,,,,,,,,,,,,,,,,,,,,,,,,,,,,,,,,,,,,,,,,,
,,,,,,,,,,,,,,1,001,2025-01-12_12h42.31.630,IAT(Formal),2021.2.3,Win32,60.97560976,,,,,,,,,,,,,,,i,1,0.459,0,58,58,68,1,他人,i,,,,,,,,,,,,,,,,,,,,,,,,,,,,,,,,,,,,,,,,,
,,,,,,,,,,,,,,1,001,2025-01-12_12h42.31.630,IAT(Formal),2021.2.3,Win32,60.97560976,,,,,,,,,,,,,,,e,1,0.6698,0,59,59,20,1,认真,e,,,,,,,,,,,,,,,,,,,,,,,,,,,,,,,,,,,,,,,,,
,,,,,,,,,,,,,,1,001,2025-01-12_12h42.31.630,IAT(Formal),2021.2.3,Win32,60.97560976,,,,,,,,,,,,,,,e,1,0.4415,0,60,60,72,1,我们,e,,,,,,,,,,,,,,,,,,,,,,,,,,,,,,,,,,,,,,,,,
,,,,,,,,,,,,,,1,001,2025-01-12_12h42.31.630,IAT(Formal),2021.2.3,Win32,60.97560976,,,,,,,,,,,,,,,e,1,0.4518,0,61,61,63,1,自己,e,,,,,,,,,,,,,,,,,,,,,,,,,,,,,,,,,,,,,,,,,
,,,,,,,,,,,,,,1,001,2025-01-12_12h42.31.630,IAT(Formal),2021.2.3,Win32,60.97560976,,,,,,,,,,,,,,,i,1,0.5868,0,62,62,41,1,散漫,i,,,,,,,,,,,,,,,,,,,,,,,,,,,,,,,,,,,,,,,,,
,,,,,,,,,,,,,,1,001,2025-01-12_12h42.31.630,IAT(Formal),2021.2.3,Win32,60.97560976,,,,,,,,,,,,,,,e,1,0.5748,0,63,63,52,1,我们,e,,,,,,,,,,,,,,,,,,,,,,,,,,,,,,,,,,,,,,,,,
,,,,,,,,,,,,,,1,001,2025-01-12_12h42.31.630,IAT(Formal),2021.2.3,Win32,60.97560976,,,,,,,,,,,,,,,e,1,0.4739,0,64,64,0,1,我,e,,,,,,,,,,,,,,,,,,,,,,,,,,,,,,,,,,,,,,,,,
,,,,,,,,,,,,,,1,001,2025-01-12_12h42.31.630,IAT(Formal),2021.2.3,Win32,60.97560976,,,,,,,,,,,,,,,e,1,0.6148,0,65,65,25,1,细腻,e,,,,,,,,,,,,,,,,,,,,,,,,,,,,,,,,,,,,,,,,,
,,,,,,,,,,,,,,1,001,2025-01-12_12h42.31.630,IAT(Formal),2021.2.3,Win32,60.97560976,,,,,,,,,,,,,,,e,1,0.5027,0,66,66,23,1,公正,e,,,,,,,,,,,,,,,,,,,,,,,,,,,,,,,,,,,,,,,,,
,,,,,,,,,,,,,,1,001,2025-01-12_12h42.31.630,IAT(Formal),2021.2.3,Win32,60.97560976,,,,,,,,,,,,,,,e,1,0.5088,0,67,67,53,1,自己,e,,,,,,,,,,,,,,,,,,,,,,,,,,,,,,,,,,,,,,,,,
,,,,,,,,,,,,,,1,001,2025-01-12_12h42.31.630,IAT(Formal),2021.2.3,Win32,60.97560976,,,,,,,,,,,,,,,i,1,0.501,0,68,68,31,1,虚伪,i,,,,,,,,,,,,,,,,,,,,,,,,,,,,,,,,,,,,,,,,,
,,,,,,,,,,,,,,1,001,2025-01-12_12h42.31.630,IAT(Formal),2021.2.3,Win32,60.97560976,,,,,,,,,,,,,,,i,1,0.6029,0,69,69,40,1,执拗,i,,,,,,,,,,,,,,,,,,,,,,,,,,,,,,,,,,,,,,,,,
,,,,,,,,,,,,,,1,001,2025-01-12_12h42.31.630,IAT(Formal),2021.2.3,Win32,60.97560976,,,,,,,,,,,,,,,i,0,0.4156,0,70,70,51,1,我的,e,,,,,,,,,,,,,,,,,,,,,,,,,,,,,,,,,,,,,,,,,
,,,,,,,,,,,,,,1,001,2025-01-12_12h42.31.630,IAT(Formal),2021.2.3,Win32,60.97560976,,,,,,,,,,,,,,,e,1,0.1175,0,71,71,15,1,诚实,e,,,,,,,,,,,,,,,,,,,,,,,,,,,,,,,,,,,,,,,,,
,,,,,,,,,,,,,,1,001,2025-01-12_12h42.31.630,IAT(Formal),2021.2.3,Win32,60.97560976,,,,,,,,,,,,,,,i,1,0.5179,0,72,72,56,1,他们,i,,,,,,,,,,,,,,,,,,,,,,,,,,,,,,,,,,,,,,,,,
,,,,,,,,,,,,,,1,001,2025-01-12_12h42.31.630,IAT(Formal),2021.2.3,Win32,60.97560976,,,,,,,,,,,,,,,i,1,0.6681,0,73,73,39,1,冒失,i,,,,,,,,,,,,,,,,,,,,,,,,,,,,,,,,,,,,,,,,,
,,,,,,,,,,,,,,1,001,2025-01-12_12h42.31.630,IAT(Formal),2021.2.3,Win32,60.97560976,,,,,,,,,,,,,,,i,1,1.3863,0,74,74,32,1,愚蠢,i,,,,,,,,,,,,,,,,,,,,,,,,,,,,,,,,,,,,,,,,,
,,,,,,,,,,,,,,1,001,2025-01-12_12h42.31.630,IAT(Formal),2021.2.3,Win32,60.97560976,,,,,,,,,,,,,,,e,1,0.5275,0,75,75,50,1,我,e,,,,,,,,,,,,,,,,,,,,,,,,,,,,,,,,,,,,,,,,,
,,,,,,,,,,,,,,1,001,2025-01-12_12h42.31.630,IAT(Formal),2021.2.3,Win32,60.97560976,,,,,,,,,,,,,,,i,1,0.5691,0,76,76,66,1,他们,i,,,,,,,,,,,,,,,,,,,,,,,,,,,,,,,,,,,,,,,,,
,,,,,,,,,,,,,,1,001,2025-01-12_12h42.31.630,IAT(Formal),2021.2.3,Win32,60.97560976,,,,,,,,,,,,,,,i,1,0.4775,0,77,77,7,1,他的,i,,,,,,,,,,,,,,,,,,,,,,,,,,,,,,,,,,,,,,,,,
,,,,,,,,,,,,,,1,001,2025-01-12_12h42.31.630,IAT(Formal),2021.2.3,Win32,60.97560976,,,,,,,,,,,,,,,i,1,0.4679,0,78,78,8,1,他人,i,,,,,,,,,,,,,,,,,,,,,,,,,,,,,,,,,,,,,,,,,
,,,,,,,,,,,,,,1,001,2025-01-12_12h42.31.630,IAT(Formal),2021.2.3,Win32,60.97560976,,,,,,,,,,,,,,,e,0,0.5086,0,79,79,47,1,固执,i,,,,,,,,,,,,,,,,,,,,,,,,,,,,,,,,,,,,,,,,,
,,,,,,,,,,,,,,1,001,2025-01-12_12h42.31.630,IAT(Formal),2021.2.3,Win32,60.97560976,,,,,,,,,,,,,,,e,1,0.4606,,,,,,自己,e,space,15.7066,0,0,0,73,1,,,,,,,,,,,,,,,,,,,,,,,,,,,,,,,,,,
,,,,,,,,,,,,,,1,001,2025-01-12_12h42.31.630,IAT(Formal),2021.2.3,Win32,60.97560976,,,,,,,,,,,,,,,e,1,0.4598,,,,,,我们,e,,,0,1,1,72,1,,,,,,,,,,,,,,,,,,,,,,,,,,,,,,,,,,
,,,,,,,,,,,,,,1,001,2025-01-12_12h42.31.630,IAT(Formal),2021.2.3,Win32,60.97560976,,,,,,,,,,,,,,,e,1,0.6027,,,,,,聪明,e,,,0,2,2,12,1,,,,,,,,,,,,,,,,,,,,,,,,,,,,,,,,,,
,,,,,,,,,,,,,,1,001,2025-01-12_12h42.31.630,IAT(Formal),2021.2.3,Win32,60.97560976,,,,,,,,,,,,,,,i,1,0.4809,,,,,,他的,i,,,0,3,3,7,1,,,,,,,,,,,,,,,,,,,,,,,,,,,,,,,,,,
,,,,,,,,,,,,,,1,001,2025-01-12_12h42.31.630,IAT(Formal),2021.2.3,Win32,60.97560976,,,,,,,,,,,,,,,i,1,0.4825,,,,,,他人,i,,,0,4,4,58,1,,,,,,,,,,,,,,,,,,,,,,,,,,,,,,,,,,
,,,,,,,,,,,,,,1,001,2025-01-12_12h42.31.630,IAT(Formal),2021.2.3,Win32,60.97560976,,,,,,,,,,,,,,,i,0,0.49,,,,,,俺,e,,,0,5,5,4,1,,,,,,,,,,,,,,,,,,,,,,,,,,,,,,,,,,
,,,,,,,,,,,,,,1,001,2025-01-12_12h42.31.630,IAT(Formal),2021.2.3,Win32,60.97560976,,,,,,,,,,,,,,,i,1,0.5201,,,,,,自卑,i,,,0,6,6,36,1,,,,,,,,,,,,,,,,,,,,,,,,,,,,,,,,,,
,,,,,,,,,,,,,,1,001,2025-01-12_12h42.31.630,IAT(Formal),2021.2.3,Win32,60.97560976,,,,,,,,,,,,,,,i,1,0.5156,,,,,,轻率,i,,,0,7,7,48,1,,,,,,,,,,,,,,,,,,,,,,,,,,,,,,,,,,
,,,,,,,,,,,,,,1,001,2025-01-12_12h42.31.630,IAT(Formal),2021.2.3,Win32,60.97560976,,,,,,,,,,,,,,,i,1,0.544,,,,,,冒失,i,,,0,8,8,39,1,,,,,,,,,,,,,,,,,,,,,,,,,,,,,,,,,,
,,,,,,,,,,,,,,1,001,2025-01-12_12h42.31.630,IAT(Formal),2021.2.3,Win32,60.97560976,,,,,,,,,,,,,,,i,1,0.5295,,,,,,暴躁,i,,,0,9,9,44,1,,,,,,,,,,,,,,,,,,,,,,,,,,,,,,,,,,
,,,,,,,,,,,,,,1,001,2025-01-12_12h42.31.630,IAT(Formal),2021.2.3,Win32,60.97560976,,,,,,,,,,,,,,,e,1,0.5942,,,,,,诚恳,e,,,0,10,10,29,1,,,,,,,,,,,,,,,,,,,,,,,,,,,,,,,,,,
,,,,,,,,,,,,,,1,001,2025-01-12_12h42.31.630,IAT(Formal),2021.2.3,Win32,60.97560976,,,,,,,,,,,,,,,i,1,0.5298,,,,,,他人,i,,,0,11,11,68,1,,,,,,,,,,,,,,,,,,,,,,,,,,,,,,,,,,
,,,,,,,,,,,,,,1,001,2025-01-12_12h42.31.630,IAT(Formal),2021.2.3,Win32,60.97560976,,,,,,,,,,,,,,,e,1,0.6134,,,,,,乐观,e,,,0,12,12,14,1,,,,,,,,,,,,,,,,,,,,,,,,,,,,,,,,,,
,,,,,,,,,,,,,,1,001,2025-01-12_12h42.31.630,IAT(Formal),2021.2.3,Win32,60.97560976,,,,,,,,,,,,,,,i,1,0.6851,,,,,,他,i,,,0,13,13,75,1,,,,,,,,,,,,,,,,,,,,,,,,,,,,,,,,,,
,,,,,,,,,,,,,,1,001,2025-01-12_12h42.31.630,IAT(Formal),2021.2.3,Win32,60.97560976,,,,,,,,,,,,,,,e,1,0.6171,,,,,,公正,e,,,0,14,14,23,1,,,,,,,,,,,,,,,,,,,,,,,,,,,,,,,,,,
,,,,,,,,,,,,,,1,001,2025-01-12_12h42.31.630,IAT(Formal),2021.2.3,Win32,60.97560976,,,,,,,,,,,,,,,e,1,1.1431,,,,,,认真,e,,,0,15,15,20,1,,,,,,,,,,,,,,,,,,,,,,,,,,,,,,,,,,
,,,,,,,,,,,,,,1,001,2025-01-12_12h42.31.630,IAT(Formal),2021.2.3,Win32,60.97560976,,,,,,,,,,,,,,,i,1,0.449,,,,,,他们,i,,,0,16,16,66,1,,,,,,,,,,,,,,,,,,,,,,,,,,,,,,,,,,
,,,,,,,,,,,,,,1,001,2025-01-12_12h42.31.630,IAT(Formal),2021.2.3,Win32,60.97560976,,,,,,,,,,,,,,,i,1,0.4166,,,,,,他们,i,,,0,17,17,56,1,,,,,,,,,,,,,,,,,,,,,,,,,,,,,,,,,,
,,,,,,,,,,,,,,1,001,2025-01-12_12h42.31.630,IAT(Formal),2021.2.3,Win32,60.97560976,,,,,,,,,,,,,,,e,0,0.5446,,,,,,刻薄,i,,,0,18,18,33,1,,,,,,,,,,,,,,,,,,,,,,,,,,,,,,,,,,
,,,,,,,,,,,,,,1,001,2025-01-12_12h42.31.630,IAT(Formal),2021.2.3,Win32,60.97560976,,,,,,,,,,,,,,,e,1,0.4839,,,,,,我的,e,,,0,19,19,51,1,,,,,,,,,,,,,,,,,,,,,,,,,,,,,,,,,,
,,,,,,,,,,,,,,1,001,2025-01-12_12h42.31.630,IAT(Formal),2021.2.3,Win32,60.97560976,,,,,,,,,,,,,,,e,1,0.6681,,,,,,细腻,e,,,0,20,20,25,1,,,,,,,,,,,,,,,,,,,,,,,,,,,,,,,,,,
,,,,,,,,,,,,,,1,001,2025-01-12_12h42.31.630,IAT(Formal),2021.2.3,Win32,60.97560976,,,,,,,,,,,,,,,i,1,0.5992,,,,,,卑鄙,i,,,0,21,21,30,1,,,,,,,,,,,,,,,,,,,,,,,,,,,,,,,,,,
,,,,,,,,,,,,,,1,001,2025-01-12_12h42.31.630,IAT(Formal),2021.2.3,Win32,60.97560976,,,,,,,,,,,,,,,i,1,0.45,,,,,,消极,i,,,0,22,22,35,1,,,,,,,,,,,,,,,,,,,,,,,,,,,,,,,,,,
,,,,,,,,,,,,,,1,001,2025-01-12_12h42.31.630,IAT(Formal),2021.2.3,Win32,60.97560976,,,,,,,,,,,,,,,e,1,0.487,,,,,,诚实,e,,,0,23,23,15,1,,,,,,,,,,,,,,,,,,,,,,,,,,,,,,,,,,
,,,,,,,,,,,,,,1,001,2025-01-12_12h42.31.630,IAT(Formal),2021.2.3,Win32,60.97560976,,,,,,,,,,,,,,,i,1,0.5536,,,,,,他,i,,,0,24,24,55,1,,,,,,,,,,,,,,,,,,,,,,,,,,,,,,,,,,
,,,,,,,,,,,,,,1,001,2025-01-12_12h42.31.630,IAT(Formal),2021.2.3,Win32,60.97560976,,,,,,,,,,,,,,,i,1,0.5998,,,,,,野蛮,i,,,0,25,25,46,1,,,,,,,,,,,,,,,,,,,,,,,,,,,,,,,,,,
,,,,,,,,,,,,,,1,001,2025-01-12_12h42.31.630,IAT(Formal),2021.2.3,Win32,60.97560976,,,,,,,,,,,,,,,i,1,0.5948,,,,,,散漫,i,,,0,26,26,41,1,,,,,,,,,,,,,,,,,,,,,,,,,,,,,,,,,,
,,,,,,,,,,,,,,1,001,2025-01-12_12h42.31.630,IAT(Formal),2021.2.3,Win32,60.97560976,,,,,,,,,,,,,,,e,1,0.529,,,,,,我的,e,,,0,27,27,71,1,,,,,,,,,,,,,,,,,,,,,,,,,,,,,,,,,,
,,,,,,,,,,,,,,1,001,2025-01-12_12h42.31.630,IAT(Formal),2021.2.3,Win32,60.97560976,,,,,,,,,,,,,,,e,1,0.4174,,,,,,我,e,,,0,28,28,60,1,,,,,,,,,,,,,,,,,,,,,,,,,,,,,,,,,,
,,,,,,,,,,,,,,1,001,2025-01-12_12h42.31.630,IAT(Formal),2021.2.3,Win32,60.97560976,,,,,,,,,,,,,,,e,1,0.5548,,,,,,优秀,e,,,0,29,29,10,1,,,,,,,,,,,,,,,,,,,,,,,,,,,,,,,,,,
,,,,,,,,,,,,,,1,001,2025-01-12_12h42.31.630,IAT(Formal),2021.2.3,Win32,60.97560976,,,,,,,,,,,,,,,e,1,0.4977,,,,,,冷静,e,,,0,30,30,26,1,,,,,,,,,,,,,,,,,,,,,,,,,,,,,,,,,,
,,,,,,,,,,,,,,1,001,2025-01-12_12h42.31.630,IAT(Formal),2021.2.3,Win32,60.97560976,,,,,,,,,,,,,,,e,1,0.398,,,,,,我们,e,,,0,31,31,62,1,,,,,,,,,,,,,,,,,,,,,,,,,,,,,,,,,,
,,,,,,,,,,,,,,1,001,2025-01-12_12h42.31.630,IAT(Formal),2021.2.3,Win32,60.97560976,,,,,,,,,,,,,,,e,1,0.6629,,,,,,机智,e,,,0,32,32,19,1,,,,,,,,,,,,,,,,,,,,,,,,,,,,,,,,,,
,,,,,,,,,,,,,,1,001,2025-01-12_12h42.31.630,IAT(Formal),2021.2.3,Win32,60.97560976,,,,,,,,,,,,,,,i,1,0.5138,,,,,,愚蠢,i,,,0,33,33,32,1,,,,,,,,,,,,,,,,,,,,,,,,,,,,,,,,,,
,,,,,,,,,,,,,,1,001,2025-01-12_12h42.31.630,IAT(Formal),2021.2.3,Win32,60.97560976,,,,,,,,,,,,,,,i,1,0.5201,,,,,,他人,i,,,0,34,34,8,1,,,,,,,,,,,,,,,,,,,,,,,,,,,,,,,,,,
,,,,,,,,,,,,,,1,001,2025-01-12_12h42.31.630,IAT(Formal),2021.2.3,Win32,60.97560976,,,,,,,,,,,,,,,i,1,0.3704,,,,,,他们,i,,,0,35,35,76,1,,,,,,,,,,,,,,,,,,,,,,,,,,,,,,,,,,
,,,,,,,,,,,,,,1,001,2025-01-12_12h42.31.630,IAT(Formal),2021.2.3,Win32,60.97560976,,,,,,,,,,,,,,,e,1,0.5029,,,,,,自己,e,,,0,36,36,53,1,,,,,,,,,,,,,,,,,,,,,,,,,,,,,,,,,,
,,,,,,,,,,,,,,1,001,2025-01-12_12h42.31.630,IAT(Formal),2021.2.3,Win32,60.97560976,,,,,,,,,,,,,,,e,1,0.4949,,,,,,俺,e,,,0,37,37,74,1,,,,,,,,,,,,,,,,,,,,,,,,,,,,,,,,,,
,,,,,,,,,,,,,,1,001,2025-01-12_12h42.31.630,IAT(Formal),2021.2.3,Win32,60.97560976,,,,,,,,,,,,,,,e,1,0.4552,,,,,,我,e,,,0,38,38,0,1,,,,,,,,,,,,,,,,,,,,,,,,,,,,,,,,,,
,,,,,,,,,,,,,,1,001,2025-01-12_12h42.31.630,IAT(Formal),2021.2.3,Win32,60.97560976,,,,,,,,,,,,,,,i,1,0.5147,,,,,,固执,i,,,0,39,39,47,1,,,,,,,,,,,,,,,,,,,,,,,,,,,,,,,,,,
,,,,,,,,,,,,,,1,001,2025-01-12_12h42.31.630,IAT(Formal),2021.2.3,Win32,60.97560976,,,,,,,,,,,,,,,i,0,0.4336,,,,,,我,e,,,0,40,40,50,1,,,,,,,,,,,,,,,,,,,,,,,,,,,,,,,,,,
,,,,,,,,,,,,,,1,001,2025-01-12_12h42.31.630,IAT(Formal),2021.2.3,Win32,60.97560976,,,,,,,,,,,,,,,i,1,0.516,,,,,,其他,i,,,0,41,41,79,1,,,,,,,,,,,,,,,,,,,,,,,,,,,,,,,,,,
,,,,,,,,,,,,,,1,001,2025-01-12_12h42.31.630,IAT(Formal),2021.2.3,Win32,60.97560976,,,,,,,,,,,,,,,e,1,0.4815,,,,,,我们,e,,,0,42,42,2,1,,,,,,,,,,,,,,,,,,,,,,,,,,,,,,,,,,
,,,,,,,,,,,,,,1,001,2025-01-12_12h42.31.630,IAT(Formal),2021.2.3,Win32,60.97560976,,,,,,,,,,,,,,,e,1,0.5523,,,,,,热情,e,,,0,43,43,27,1,,,,,,,,,,,,,,,,,,,,,,,,,,,,,,,,,,
,,,,,,,,,,,,,,1,001,2025-01-12_12h42.31.630,IAT(Formal),2021.2.3,Win32,60.97560976,,,,,,,,,,,,,,,i,1,0.4332,,,,,,其他,i,,,0,44,44,69,1,,,,,,,,,,,,,,,,,,,,,,,,,,,,,,,,,,
,,,,,,,,,,,,,,1,001,2025-01-12_12h42.31.630,IAT(Formal),2021.2.3,Win32,60.97560976,,,,,,,,,,,,,,,e,1,0.5074,,,,,,我的,e,,,0,45,45,1,1,,,,,,,,,,,,,,,,,,,,,,,,,,,,,,,,,,
,,,,,,,,,,,,,,1,001,2025-01-12_12h42.31.630,IAT(Formal),2021.2.3,Win32,60.97560976,,,,,,,,,,,,,,,i,1,0.5491,,,,,,他,i,,,0,46,46,5,1,,,,,,,,,,,,,,,,,,,,,,,,,,,,,,,,,,
,,,,,,,,,,,,,,1,001,2025-01-12_12h42.31.630,IAT(Formal),2021.2.3,Win32,60.97560976,,,,,,,,,,,,,,,i,1,0.5648,,,,,,猖狂,i,,,0,47,47,45,1,,,,,,,,,,,,,,,,,,,,,,,,,,,,,,,,,,
,,,,,,,,,,,,,,1,001,2025-01-12_12h42.31.630,IAT(Formal),2021.2.3,Win32,60.97560976,,,,,,,,,,,,,,,e,1,0.7502,,,,,,勇敢,e,,,0,48,48,17,1,,,,,,,,,,,,,,,,,,,,,,,,,,,,,,,,,,
,,,,,,,,,,,,,,1,001,2025-01-12_12h42.31.630,IAT(Formal),2021.2.3,Win32,60.97560976,,,,,,,,,,,,,,,i,1,0.5647,,,,,,他的,i,,,0,49,49,57,1,,,,,,,,,,,,,,,,,,,,,,,,,,,,,,,,,,
,,,,,,,,,,,,,,1,001,2025-01-12_12h42.31.630,IAT(Formal),2021.2.3,Win32,60.97560976,,,,,,,,,,,,,,,e,0,0.6162,,,,,,鲁莽,i,,,0,50,50,38,1,,,,,,,,,,,,,,,,,,,,,,,,,,,,,,,,,,
,,,,,,,,,,,,,,1,001,2025-01-12_12h42.31.630,IAT(Formal),2021.2.3,Win32,60.97560976,,,,,,,,,,,,,,,e,1,0.6114,,,,,,自己,e,,,0,51,51,63,1,,,,,,,,,,,,,,,,,,,,,,,,,,,,,,,,,,
,,,,,,,,,,,,,,1,001,2025-01-12_12h42.31.630,IAT(Formal),2021.2.3,Win32,60.97560976,,,,,,,,,,,,,,,i,1,0.4483,,,,,,他的,i,,,0,52,52,77,1,,,,,,,,,,,,,,,,,,,,,,,,,,,,,,,,,,
,,,,,,,,,,,,,,1,001,2025-01-12_12h42.31.630,IAT(Formal),2021.2.3,Win32,60.97560976,,,,,,,,,,,,,,,i,1,0.5328,,,,,,其他,i,,,0,53,53,9,1,,,,,,,,,,,,,,,,,,,,,,,,,,,,,,,,,,
,,,,,,,,,,,,,,1,001,2025-01-12_12h42.31.630,IAT(Formal),2021.2.3,Win32,60.97560976,,,,,,,,,,,,,,,e,1,0.5811,,,,,,正直,e,,,0,54,54,16,1,,,,,,,,,,,,,,,,,,,,,,,,,,,,,,,,,,
,,,,,,,,,,,,,,1,001,2025-01-12_12h42.31.630,IAT(Formal),2021.2.3,Win32,60.97560976,,,,,,,,,,,,,,,i,1,0.6669,,,,,,自私,i,,,0,55,55,43,1,,,,,,,,,,,,,,,,,,,,,,,,,,,,,,,,,,
,,,,,,,,,,,,,,1,001,2025-01-12_12h42.31.630,IAT(Formal),2021.2.3,Win32,60.97560976,,,,,,,,,,,,,,,i,1,0.7169,,,,,,下贱,i,,,0,56,56,49,1,,,,,,,,,,,,,,,,,,,,,,,,,,,,,,,,,,
,,,,,,,,,,,,,,1,001,2025-01-12_12h42.31.630,IAT(Formal),2021.2.3,Win32,60.97560976,,,,,,,,,,,,,,,e,0,0.7576,,,,,,他,i,,,0,57,57,65,1,,,,,,,,,,,,,,,,,,,,,,,,,,,,,,,,,,
,,,,,,,,,,,,,,1,001,2025-01-12_12h42.31.630,IAT(Formal),2021.2.3,Win32,60.97560976,,,,,,,,,,,,,,,e,1,0.749,,,,,,崇高,e,,,0,58,58,11,1,,,,,,,,,,,,,,,,,,,,,,,,,,,,,,,,,,
,,,,,,,,,,,,,,1,001,2025-01-12_12h42.31.630,IAT(Formal),2021.2.3,Win32,60.97560976,,,,,,,,,,,,,,,i,1,0.5596,,,,,,虚伪,i,,,0,59,59,31,1,,,,,,,,,,,,,,,,,,,,,,,,,,,,,,,,,,
,,,,,,,,,,,,,,1,001,2025-01-12_12h42.31.630,IAT(Formal),2021.2.3,Win32,60.97560976,,,,,,,,,,,,,,,i,1,0.4813,,,,,,他人,i,,,0,60,60,78,1,,,,,,,,,,,,,,,,,,,,,,,,,,,,,,,,,,
,,,,,,,,,,,,,,1,001,2025-01-12_12h42.31.630,IAT(Formal),2021.2.3,Win32,60.97560976,,,,,,,,,,,,,,,i,1,0.5327,,,,,,其他,i,,,0,61,61,59,1,,,,,,,,,,,,,,,,,,,,,,,,,,,,,,,,,,
,,,,,,,,,,,,,,1,001,2025-01-12_12h42.31.630,IAT(Formal),2021.2.3,Win32,60.97560976,,,,,,,,,,,,,,,e,1,0.5902,,,,,,自己,e,,,0,62,62,3,1,,,,,,,,,,,,,,,,,,,,,,,,,,,,,,,,,,
,,,,,,,,,,,,,,1,001,2025-01-12_12h42.31.630,IAT(Formal),2021.2.3,Win32,60.97560976,,,,,,,,,,,,,,,e,1,0.5068,,,,,,我的,e,,,0,63,63,61,1,,,,,,,,,,,,,,,,,,,,,,,,,,,,,,,,,,
,,,,,,,,,,,,,,1,001,2025-01-12_12h42.31.630,IAT(Formal),2021.2.3,Win32,60.97560976,,,,,,,,,,,,,,,i,0,0.4273,,,,,,俺,e,,,0,64,64,64,1,,,,,,,,,,,,,,,,,,,,,,,,,,,,,,,,,,
,,,,,,,,,,,,,,1,001,2025-01-12_12h42.31.630,IAT(Formal),2021.2.3,Win32,60.97560976,,,,,,,,,,,,,,,e,0,0.4138,,,,,,傲慢,i,,,0,65,65,37,1,,,,,,,,,,,,,,,,,,,,,,,,,,,,,,,,,,
,,,,,,,,,,,,,,1,001,2025-01-12_12h42.31.630,IAT(Formal),2021.2.3,Win32,60.97560976,,,,,,,,,,,,,,,i,1,0.6681,,,,,,他们,i,,,0,66,66,6,1,,,,,,,,,,,,,,,,,,,,,,,,,,,,,,,,,,
,,,,,,,,,,,,,,1,001,2025-01-12_12h42.31.630,IAT(Formal),2021.2.3,Win32,60.97560976,,,,,,,,,,,,,,,i,1,0.5326,,,,,,他的,i,,,0,67,67,67,1,,,,,,,,,,,,,,,,,,,,,,,,,,,,,,,,,,
,,,,,,,,,,,,,,1,001,2025-01-12_12h42.31.630,IAT(Formal),2021.2.3,Win32,60.97560976,,,,,,,,,,,,,,,e,0,0.8682,,,,,,凶狠,i,,,0,68,68,42,1,,,,,,,,,,,,,,,,,,,,,,,,,,,,,,,,,,
,,,,,,,,,,,,,,1,001,2025-01-12_12h42.31.630,IAT(Formal),2021.2.3,Win32,60.97560976,,,,,,,,,,,,,,,e,1,0.6312,,,,,,俺,e,,,0,69,69,54,1,,,,,,,,,,,,,,,,,,,,,,,,,,,,,,,,,,
,,,,,,,,,,,,,,1,001,2025-01-12_12h42.31.630,IAT(Formal),2021.2.3,Win32,60.97560976,,,,,,,,,,,,,,,e,1,0.7598,,,,,,稳重,e,,,0,70,70,21,1,,,,,,,,,,,,,,,,,,,,,,,,,,,,,,,,,,
,,,,,,,,,,,,,,1,001,2025-01-12_12h42.31.630,IAT(Formal),2021.2.3,Win32,60.97560976,,,,,,,,,,,,,,,e,1,0.5878,,,,,,我们,e,,,0,71,71,52,1,,,,,,,,,,,,,,,,,,,,,,,,,,,,,,,,,,
,,,,,,,,,,,,,,1,001,2025-01-12_12h42.31.630,IAT(Formal),2021.2.3,Win32,60.97560976,,,,,,,,,,,,,,,e,1,0.546,,,,,,杰出,e,,,0,72,72,13,1,,,,,,,,,,,,,,,,,,,,,,,,,,,,,,,,,,
,,,,,,,,,,,,,,1,001,2025-01-12_12h42.31.630,IAT(Formal),2021.2.3,Win32,60.97560976,,,,,,,,,,,,,,,e,1,0.5515,,,,,,勤奋,e,,,0,73,73,18,1,,,,,,,,,,,,,,,,,,,,,,,,,,,,,,,,,,
,,,,,,,,,,,,,,1,001,2025-01-12_12h42.31.630,IAT(Formal),2021.2.3,Win32,60.97560976,,,,,,,,,,,,,,,e,1,0.6333,,,,,,无私,e,,,0,74,74,22,1,,,,,,,,,,,,,,,,,,,,,,,,,,,,,,,,,,
,,,,,,,,,,,,,,1,001,2025-01-12_12h42.31.630,IAT(Formal),2021.2.3,Win32,60.97560976,,,,,,,,,,,,,,,i,1,0.6868,,,,,,执拗,i,,,0,75,75,40,1,,,,,,,,,,,,,,,,,,,,,,,,,,,,,,,,,,
,,,,,,,,,,,,,,1,001,2025-01-12_12h42.31.630,IAT(Formal),2021.2.3,Win32,60.97560976,,,,,,,,,,,,,,,e,1,0.6126,,,,,,我,e,,,0,76,76,70,1,,,,,,,,,,,,,,,,,,,,,,,,,,,,,,,,,,
,,,,,,,,,,,,,,1,001,2025-01-12_12h42.31.630,IAT(Formal),2021.2.3,Win32,60.97560976,,,,,,,,,,,,,,,i,1,0.5506,,,,,,悲观,i,,,0,77,77,34,1,,,,,,,,,,,,,,,,,,,,,,,,,,,,,,,,,,
,,,,,,,,,,,,,,1,001,2025-01-12_12h42.31.630,IAT(Formal),2021.2.3,Win32,60.97560976,,,,,,,,,,,,,,,e,1,0.8522,,,,,,朴实,e,,,0,78,78,24,1,,,,,,,,,,,,,,,,,,,,,,,,,,,,,,,,,,
,,,,,,,,,,,,,,1,001,2025-01-12_12h42.31.630,IAT(Formal),2021.2.3,Win32,60.97560976,,,,,,,,,,,,,,,e,1,0.505,,,,,,活泼,e,,,0,79,79,28,1,,,,,,,,,,,,,,,,,,,,,,,,,,,,,,,,,,
,,,,,,,,,,,,,,1,001,2025-01-12_12h42.31.630,IAT(Formal),2021.2.3,Win32,60.97560976,,,,,,,,,,,,,,,i,1,0.5424,,,,,,猖狂,i,,,1,0,80,45,1,,,,,,,,,,,,,,,,,,,,,,,,,,,,,,,,,,
,,,,,,,,,,,,,,1,001,2025-01-12_12h42.31.630,IAT(Formal),2021.2.3,Win32,60.97560976,,,,,,,,,,,,,,,e,1,0.6835,,,,,,机智,e,,,1,1,81,19,1,,,,,,,,,,,,,,,,,,,,,,,,,,,,,,,,,,
,,,,,,,,,,,,,,1,001,2025-01-12_12h42.31.630,IAT(Formal),2021.2.3,Win32,60.97560976,,,,,,,,,,,,,,,e,1,0.5565,,,,,,我的,e,,,1,2,82,61,1,,,,,,,,,,,,,,,,,,,,,,,,,,,,,,,,,,
,,,,,,,,,,,,,,1,001,2025-01-12_12h42.31.630,IAT(Formal),2021.2.3,Win32,60.97560976,,,,,,,,,,,,,,,i,0,0.7008,,,,,,朴实,e,,,1,3,83,24,1,,,,,,,,,,,,,,,,,,,,,,,,,,,,,,,,,,
,,,,,,,,,,,,,,1,001,2025-01-12_12h42.31.630,IAT(Formal),2021.2.3,Win32,60.97560976,,,,,,,,,,,,,,,e,1,0.6166,,,,,,认真,e,,,1,4,84,20,1,,,,,,,,,,,,,,,,,,,,,,,,,,,,,,,,,,
,,,,,,,,,,,,,,1,001,2025-01-12_12h42.31.630,IAT(Formal),2021.2.3,Win32,60.97560976,,,,,,,,,,,,,,,i,1,0.5691,,,,,,暴躁,i,,,1,5,85,44,1,,,,,,,,,,,,,,,,,,,,,,,,,,,,,,,,,,
,,,,,,,,,,,,,,1,001,2025-01-12_12h42.31.630,IAT(Formal),2021.2.3,Win32,60.97560976,,,,,,,,,,,,,,,i,1,0.6348,,,,,,鲁莽,i,,,1,6,86,38,1,,,,,,,,,,,,,,,,,,,,,,,,,,,,,,,,,,
,,,,,,,,,,,,,,1,001,2025-01-12_12h42.31.630,IAT(Formal),2021.2.3,Win32,60.97560976,,,,,,,,,,,,,,,i,1,0.5685,,,,,,卑鄙,i,,,1,7,87,30,1,,,,,,,,,,,,,,,,,,,,,,,,,,,,,,,,,,
,,,,,,,,,,,,,,1,001,2025-01-12_12h42.31.630,IAT(Formal),2021.2.3,Win32,60.97560976,,,,,,,,,,,,,,,e,1,0.6182,,,,,,自己,e,,,1,8,88,73,1,,,,,,,,,,,,,,,,,,,,,,,,,,,,,,,,,,
,,,,,,,,,,,,,,1,001,2025-01-12_12h42.31.630,IAT(Formal),2021.2.3,Win32,60.97560976,,,,,,,,,,,,,,,e,1,0.6401,,,,,,我的,e,,,1,9,89,71,1,,,,,,,,,,,,,,,,,,,,,,,,,,,,,,,,,,
,,,,,,,,,,,,,,1,001,2025-01-12_12h42.31.630,IAT(Formal),2021.2.3,Win32,60.97560976,,,,,,,,,,,,,,,i,1,0.5232,,,,,,愚蠢,i,,,1,10,90,32,1,,,,,,,,,,,,,,,,,,,,,,,,,,,,,,,,,,
,,,,,,,,,,,,,,1,001,2025-01-12_12h42.31.630,IAT(Formal),2021.2.3,Win32,60.97560976,,,,,,,,,,,,,,,i,1,0.6943,,,,,,他人,i,,,1,11,91,8,1,,,,,,,,,,,,,,,,,,,,,,,,,,,,,,,,,,
,,,,,,,,,,,,,,1,001,2025-01-12_12h42.31.630,IAT(Formal),2021.2.3,Win32,60.97560976,,,,,,,,,,,,,,,e,1,0.6346,,,,,,俺,e,,,1,12,92,74,1,,,,,,,,,,,,,,,,,,,,,,,,,,,,,,,,,,
,,,,,,,,,,,,,,1,001,2025-01-12_12h42.31.630,IAT(Formal),2021.2.3,Win32,60.97560976,,,,,,,,,,,,,,,i,0,0.7841,,,,,,聪明,e,,,1,13,93,12,1,,,,,,,,,,,,,,,,,,,,,,,,,,,,,,,,,,
,,,,,,,,,,,,,,1,001,2025-01-12_12h42.31.630,IAT(Formal),2021.2.3,Win32,60.97560976,,,,,,,,,,,,,,,e,1,0.5168,,,,,,俺,e,,,1,14,94,64,1,,,,,,,,,,,,,,,,,,,,,,,,,,,,,,,,,,
,,,,,,,,,,,,,,1,001,2025-01-12_12h42.31.630,IAT(Formal),2021.2.3,Win32,60.97560976,,,,,,,,,,,,,,,i,1,0.5512,,,,,,他,i,,,1,15,95,65,1,,,,,,,,,,,,,,,,,,,,,,,,,,,,,,,,,,
,,,,,,,,,,,,,,1,001,2025-01-12_12h42.31.630,IAT(Formal),2021.2.3,Win32,60.97560976,,,,,,,,,,,,,,,e,1,0.649,,,,,,正直,e,,,1,16,96,16,1,,,,,,,,,,,,,,,,,,,,,,,,,,,,,,,,,,
,,,,,,,,,,,,,,1,001,2025-01-12_12h42.31.630,IAT(Formal),2021.2.3,Win32,60.97560976,,,,,,,,,,,,,,,i,1,0.6073,,,,,,刻薄,i,,,1,17,97,33,1,,,,,,,,,,,,,,,,,,,,,,,,,,,,,,,,,,
,,,,,,,,,,,,,,1,001,2025-01-12_12h42.31.630,IAT(Formal),2021.2.3,Win32,60.97560976,,,,,,,,,,,,,,,i,1,0.5756,,,,,,其他,i,,,1,18,98,69,1,,,,,,,,,,,,,,,,,,,,,,,,,,,,,,,,,,
,,,,,,,,,,,,,,1,001,2025-01-12_12h42.31.630,IAT(Formal),2021.2.3,Win32,60.97560976,,,,,,,,,,,,,,,i,1,0.5567,,,,,,他的,i,,,1,19,99,67,1,,,,,,,,,,,,,,,,,,,,,,,,,,,,,,,,,,
,,,,,,,,,,,,,,1,001,2025-01-12_12h42.31.630,IAT(Formal),2021.2.3,Win32,60.97560976,,,,,,,,,,,,,,,e,1,0.5916,,,,,,我的,e,,,1,20,100,51,1,,,,,,,,,,,,,,,,,,,,,,,,,,,,,,,,,,
,,,,,,,,,,,,,,1,001,2025-01-12_12h42.31.630,IAT(Formal),2021.2.3,Win32,60.97560976,,,,,,,,,,,,,,,i,1,0.5854,,,,,,其他,i,,,1,21,101,9,1,,,,,,,,,,,,,,,,,,,,,,,,,,,,,,,,,,
,,,,,,,,,,,,,,1,001,2025-01-12_12h42.31.630,IAT(Formal),2021.2.3,Win32,60.97560976,,,,,,,,,,,,,,,i,0,0.5157,,,,,,稳重,e,,,1,22,102,21,1,,,,,,,,,,,,,,,,,,,,,,,,,,,,,,,,,,
,,,,,,,,,,,,,,1,001,2025-01-12_12h42.31.630,IAT(Formal),2021.2.3,Win32,60.97560976,,,,,,,,,,,,,,,i,1,0.6176,,,,,,固执,i,,,1,23,103,47,1,,,,,,,,,,,,,,,,,,,,,,,,,,,,,,,,,,
,,,,,,,,,,,,,,1,001,2025-01-12_12h42.31.630,IAT(Formal),2021.2.3,Win32,60.97560976,,,,,,,,,,,,,,,i,1,0.6382,,,,,,他的,i,,,1,24,104,77,1,,,,,,,,,,,,,,,,,,,,,,,,,,,,,,,,,,
,,,,,,,,,,,,,,1,001,2025-01-12_12h42.31.630,IAT(Formal),2021.2.3,Win32,60.97560976,,,,,,,,,,,,,,,i,1,0.4012,,,,,,他们,i,,,1,25,105,56,1,,,,,,,,,,,,,,,,,,,,,,,,,,,,,,,,,,
,,,,,,,,,,,,,,1,001,2025-01-12_12h42.31.630,IAT(Formal),2021.2.3,Win32,60.97560976,,,,,,,,,,,,,,,i,1,0.6111,,,,,,悲观,i,,,1,26,106,34,1,,,,,,,,,,,,,,,,,,,,,,,,,,,,,,,,,,
,,,,,,,,,,,,,,1,001,2025-01-12_12h42.31.630,IAT(Formal),2021.2.3,Win32,60.97560976,,,,,,,,,,,,,,,i,0,0.4409,,,,,,无私,e,,,1,27,107,22,1,,,,,,,,,,,,,,,,,,,,,,,,,,,,,,,,,,
,,,,,,,,,,,,,,1,001,2025-01-12_12h42.31.630,IAT(Formal),2021.2.3,Win32,60.97560976,,,,,,,,,,,,,,,e,1,0.4681,,,,,,杰出,e,,,1,28,108,13,1,,,,,,,,,,,,,,,,,,,,,,,,,,,,,,,,,,
,,,,,,,,,,,,,,1,001,2025-01-12_12h42.31.630,IAT(Formal),2021.2.3,Win32,60.97560976,,,,,,,,,,,,,,,i,1,0.5732,,,,,,他们,i,,,1,29,109,66,1,,,,,,,,,,,,,,,,,,,,,,,,,,,,,,,,,,
,,,,,,,,,,,,,,1,001,2025-01-12_12h42.31.630,IAT(Formal),2021.2.3,Win32,60.97560976,,,,,,,,,,,,,,,i,1,0.5114,,,,,,他,i,,,1,30,110,55,1,,,,,,,,,,,,,,,,,,,,,,,,,,,,,,,,,,
,,,,,,,,,,,,,,1,001,2025-01-12_12h42.31.630,IAT(Formal),2021.2.3,Win32,60.97560976,,,,,,,,,,,,,,,e,1,0.5188,,,,,,我,e,,,1,31,111,50,1,,,,,,,,,,,,,,,,,,,,,,,,,,,,,,,,,,
,,,,,,,,,,,,,,1,001,2025-01-12_12h42.31.630,IAT(Formal),2021.2.3,Win32,60.97560976,,,,,,,,,,,,,,,i,1,0.5505,,,,,,他的,i,,,1,32,112,7,1,,,,,,,,,,,,,,,,,,,,,,,,,,,,,,,,,,
,,,,,,,,,,,,,,1,001,2025-01-12_12h42.31.630,IAT(Formal),2021.2.3,Win32,60.97560976,,,,,,,,,,,,,,,e,1,0.6599,,,,,,冷静,e,,,1,33,113,26,1,,,,,,,,,,,,,,,,,,,,,,,,,,,,,,,,,,
,,,,,,,,,,,,,,1,001,2025-01-12_12h42.31.630,IAT(Formal),2021.2.3,Win32,60.97560976,,,,,,,,,,,,,,,i,1,0.5413,,,,,,他人,i,,,1,34,114,78,1,,,,,,,,,,,,,,,,,,,,,,,,,,,,,,,,,,
,,,,,,,,,,,,,,1,001,2025-01-12_12h42.31.630,IAT(Formal),2021.2.3,Win32,60.97560976,,,,,,,,,,,,,,,e,1,0.7097,,,,,,崇高,e,,,1,35,115,11,1,,,,,,,,,,,,,,,,,,,,,,,,,,,,,,,,,,
,,,,,,,,,,,,,,1,001,2025-01-12_12h42.31.630,IAT(Formal),2021.2.3,Win32,60.97560976,,,,,,,,,,,,,,,e,0,0.6625,,,,,,自私,i,,,1,36,116,43,1,,,,,,,,,,,,,,,,,,,,,,,,,,,,,,,,,,
,,,,,,,,,,,,,,1,001,2025-01-12_12h42.31.630,IAT(Formal),2021.2.3,Win32,60.97560976,,,,,,,,,,,,,,,e,1,0.5348,,,,,,乐观,e,,,1,37,117,14,1,,,,,,,,,,,,,,,,,,,,,,,,,,,,,,,,,,
,,,,,,,,,,,,,,1,001,2025-01-12_12h42.31.630,IAT(Formal),2021.2.3,Win32,60.97560976,,,,,,,,,,,,,,,e,1,0.5512,,,,,,自己,e,,,1,38,118,53,1,,,,,,,,,,,,,,,,,,,,,,,,,,,,,,,,,,
,,,,,,,,,,,,,,1,001,2025-01-12_12h42.31.630,IAT(Formal),2021.2.3,Win32,60.97560976,,,,,,,,,,,,,,,i,1,0.5841,,,,,,下贱,i,,,1,39,119,49,1,,,,,,,,,,,,,,,,,,,,,,,,,,,,,,,,,,
,,,,,,,,,,,,,,1,001,2025-01-12_12h42.31.630,IAT(Formal),2021.2.3,Win32,60.97560976,,,,,,,,,,,,,,,e,1,0.5687,,,,,,我们,e,,,1,40,120,2,1,,,,,,,,,,,,,,,,,,,,,,,,,,,,,,,,,,
,,,,,,,,,,,,,,1,001,2025-01-12_12h42.31.630,IAT(Formal),2021.2.3,Win32,60.97560976,,,,,,,,,,,,,,,e,1,0.5346,,,,,,诚恳,e,,,1,41,121,29,1,,,,,,,,,,,,,,,,,,,,,,,,,,,,,,,,,,
,,,,,,,,,,,,,,1,001,2025-01-12_12h42.31.630,IAT(Formal),2021.2.3,Win32,60.97560976,,,,,,,,,,,,,,,e,0,0.7502,,,,,,其他,i,,,1,42,122,79,1,,,,,,,,,,,,,,,,,,,,,,,,,,,,,,,,,,
,,,,,,,,,,,,,,1,001,2025-01-12_12h42.31.630,IAT(Formal),2021.2.3,Win32,60.97560976,,,,,,,,,,,,,,,e,1,0.5661,,,,,,热情,e,,,1,43,123,27,1,,,,,,,,,,,,,,,,,,,,,,,,,,,,,,,,,,
,,,,,,,,,,,,,,1,001,2025-01-12_12h42.31.630,IAT(Formal),2021.2.3,Win32,60.97560976,,,,,,,,,,,,,,,e,1,0.5324,,,,,,诚实,e,,,1,44,124,15,1,,,,,,,,,,,,,,,,,,,,,,,,,,,,,,,,,,
,,,,,,,,,,,,,,1,001,2025-01-12_12h42.31.630,IAT(Formal),2021.2.3,Win32,60.97560976,,,,,,,,,,,,,,,i,1,0.5847,,,,,,消极,i,,,1,45,125,35,1,,,,,,,,,,,,,,,,,,,,,,,,,,,,,,,,,,
,,,,,,,,,,,,,,1,001,2025-01-12_12h42.31.630,IAT(Formal),2021.2.3,Win32,60.97560976,,,,,,,,,,,,,,,e,1,0.6413,,,,,,我,e,,,1,46,126,60,1,,,,,,,,,,,,,,,,,,,,,,,,,,,,,,,,,,
,,,,,,,,,,,,,,1,001,2025-01-12_12h42.31.630,IAT(Formal),2021.2.3,Win32,60.97560976,,,,,,,,,,,,,,,i,1,0.8514,,,,,,冒失,i,,,1,47,127,39,1,,,,,,,,,,,,,,,,,,,,,,,,,,,,,,,,,,
,,,,,,,,,,,,,,1,001,2025-01-12_12h42.31.630,IAT(Formal),2021.2.3,Win32,60.97560976,,,,,,,,,,,,,,,e,1,0.5334,,,,,,公正,e,,,1,48,128,23,1,,,,,,,,,,,,,,,,,,,,,,,,,,,,,,,,,,
,,,,,,,,,,,,,,1,001,2025-01-12_12h42.31.630,IAT(Formal),2021.2.3,Win32,60.97560976,,,,,,,,,,,,,,,i,1,0.5631,,,,,,散漫,i,,,1,49,129,41,1,,,,,,,,,,,,,,,,,,,,,,,,,,,,,,,,,,
,,,,,,,,,,,,,,1,001,2025-01-12_12h42.31.630,IAT(Formal),2021.2.3,Win32,60.97560976,,,,,,,,,,,,,,,e,1,0.5565,,,,,,我们,e,,,1,50,130,52,1,,,,,,,,,,,,,,,,,,,,,,,,,,,,,,,,,,
,,,,,,,,,,,,,,1,001,2025-01-12_12h42.31.630,IAT(Formal),2021.2.3,Win32,60.97560976,,,,,,,,,,,,,,,i,1,0.5496,,,,,,他,i,,,1,51,131,75,1,,,,,,,,,,,,,,,,,,,,,,,,,,,,,,,,,,
,,,,,,,,,,,,,,1,001,2025-01-12_12h42.31.630,IAT(Formal),2021.2.3,Win32,60.97560976,,,,,,,,,,,,,,,i,1,0.4969,,,,,,他的,i,,,1,52,132,57,1,,,,,,,,,,,,,,,,,,,,,,,,,,,,,,,,,,
,,,,,,,,,,,,,,1,001,2025-01-12_12h42.31.630,IAT(Formal),2021.2.3,Win32,60.97560976,,,,,,,,,,,,,,,i,1,0.4492,,,,,,他们,i,,,1,53,133,6,1,,,,,,,,,,,,,,,,,,,,,,,,,,,,,,,,,,
,,,,,,,,,,,,,,1,001,2025-01-12_12h42.31.630,IAT(Formal),2021.2.3,Win32,60.97560976,,,,,,,,,,,,,,,i,1,0.6829,,,,,,傲慢,i,,,1,54,134,37,1,,,,,,,,,,,,,,,,,,,,,,,,,,,,,,,,,,
,,,,,,,,,,,,,,1,001,2025-01-12_12h42.31.630,IAT(Formal),2021.2.3,Win32,60.97560976,,,,,,,,,,,,,,,e,1,0.7012,,,,,,细腻,e,,,1,55,135,25,1,,,,,,,,,,,,,,,,,,,,,,,,,,,,,,,,,,
,,,,,,,,,,,,,,1,001,2025-01-12_12h42.31.630,IAT(Formal),2021.2.3,Win32,60.97560976,,,,,,,,,,,,,,,e,1,0.6641,,,,,,活泼,e,,,1,56,136,28,1,,,,,,,,,,,,,,,,,,,,,,,,,,,,,,,,,,
,,,,,,,,,,,,,,1,001,2025-01-12_12h42.31.630,IAT(Formal),2021.2.3,Win32,60.97560976,,,,,,,,,,,,,,,i,1,0.4966,,,,,,轻率,i,,,1,57,137,48,1,,,,,,,,,,,,,,,,,,,,,,,,,,,,,,,,,,
,,,,,,,,,,,,,,1,001,2025-01-12_12h42.31.630,IAT(Formal),2021.2.3,Win32,60.97560976,,,,,,,,,,,,,,,i,1,0.5697,,,,,,他人,i,,,1,58,138,58,1,,,,,,,,,,,,,,,,,,,,,,,,,,,,,,,,,,
,,,,,,,,,,,,,,1,001,2025-01-12_12h42.31.630,IAT(Formal),2021.2.3,Win32,60.97560976,,,,,,,,,,,,,,,e,1,0.7461,,,,,,我,e,,,1,59,139,0,1,,,,,,,,,,,,,,,,,,,,,,,,,,,,,,,,,,
,,,,,,,,,,,,,,1,001,2025-01-12_12h42.31.630,IAT(Formal),2021.2.3,Win32,60.97560976,,,,,,,,,,,,,,,i,1,0.4993,,,,,,他,i,,,1,60,140,5,1,,,,,,,,,,,,,,,,,,,,,,,,,,,,,,,,,,
,,,,,,,,,,,,,,1,001,2025-01-12_12h42.31.630,IAT(Formal),2021.2.3,Win32,60.97560976,,,,,,,,,,,,,,,e,1,0.6012,,,,,,俺,e,,,1,61,141,54,1,,,,,,,,,,,,,,,,,,,,,,,,,,,,,,,,,,
,,,,,,,,,,,,,,1,001,2025-01-12_12h42.31.630,IAT(Formal),2021.2.3,Win32,60.97560976,,,,,,,,,,,,,,,i,1,0.9804,,,,,,他们,i,,,1,62,142,76,1,,,,,,,,,,,,,,,,,,,,,,,,,,,,,,,,,,
,,,,,,,,,,,,,,1,001,2025-01-12_12h42.31.630,IAT(Formal),2021.2.3,Win32,60.97560976,,,,,,,,,,,,,,,i,1,0.7781,,,,,,凶狠,i,,,1,63,143,42,1,,,,,,,,,,,,,,,,,,,,,,,,,,,,,,,,,,
,,,,,,,,,,,,,,1,001,2025-01-12_12h42.31.630,IAT(Formal),2021.2.3,Win32,60.97560976,,,,,,,,,,,,,,,e,1,0.713,,,,,,勤奋,e,,,1,64,144,18,1,,,,,,,,,,,,,,,,,,,,,,,,,,,,,,,,,,
,,,,,,,,,,,,,,1,001,2025-01-12_12h42.31.630,IAT(Formal),2021.2.3,Win32,60.97560976,,,,,,,,,,,,,,,i,1,0.6034,,,,,,执拗,i,,,1,65,145,40,1,,,,,,,,,,,,,,,,,,,,,,,,,,,,,,,,,,
,,,,,,,,,,,,,,1,001,2025-01-12_12h42.31.630,IAT(Formal),2021.2.3,Win32,60.97560976,,,,,,,,,,,,,,,i,1,0.8137,,,,,,虚伪,i,,,1,66,146,31,1,,,,,,,,,,,,,,,,,,,,,,,,,,,,,,,,,,
,,,,,,,,,,,,,,1,001,2025-01-12_12h42.31.630,IAT(Formal),2021.2.3,Win32,60.97560976,,,,,,,,,,,,,,,e,1,0.7652,,,,,,我,e,,,1,67,147,70,1,,,,,,,,,,,,,,,,,,,,,,,,,,,,,,,,,,
,,,,,,,,,,,,,,1,001,2025-01-12_12h42.31.630,IAT(Formal),2021.2.3,Win32,60.97560976,,,,,,,,,,,,,,,i,1,0.5693,,,,,,野蛮,i,,,1,68,148,46,1,,,,,,,,,,,,,,,,,,,,,,,,,,,,,,,,,,
,,,,,,,,,,,,,,1,001,2025-01-12_12h42.31.630,IAT(Formal),2021.2.3,Win32,60.97560976,,,,,,,,,,,,,,,e,1,0.5893,,,,,,俺,e,,,1,69,149,4,1,,,,,,,,,,,,,,,,,,,,,,,,,,,,,,,,,,
,,,,,,,,,,,,,,1,001,2025-01-12_12h42.31.630,IAT(Formal),2021.2.3,Win32,60.97560976,,,,,,,,,,,,,,,e,1,0.5141,,,,,,勇敢,e,,,1,70,150,17,1,,,,,,,,,,,,,,,,,,,,,,,,,,,,,,,,,,
,,,,,,,,,,,,,,1,001,2025-01-12_12h42.31.630,IAT(Formal),2021.2.3,Win32,60.97560976,,,,,,,,,,,,,,,e,1,0.4646,,,,,,优秀,e,,,1,71,151,10,1,,,,,,,,,,,,,,,,,,,,,,,,,,,,,,,,,,
,,,,,,,,,,,,,,1,001,2025-01-12_12h42.31.630,IAT(Formal),2021.2.3,Win32,60.97560976,,,,,,,,,,,,,,,i,1,0.5446,,,,,,他人,i,,,1,72,152,68,1,,,,,,,,,,,,,,,,,,,,,,,,,,,,,,,,,,
,,,,,,,,,,,,,,1,001,2025-01-12_12h42.31.630,IAT(Formal),2021.2.3,Win32,60.97560976,,,,,,,,,,,,,,,e,1,0.7073,,,,,,自己,e,,,1,73,153,3,1,,,,,,,,,,,,,,,,,,,,,,,,,,,,,,,,,,
,,,,,,,,,,,,,,1,001,2025-01-12_12h42.31.630,IAT(Formal),2021.2.3,Win32,60.97560976,,,,,,,,,,,,,,,i,1,0.5837,,,,,,其他,i,,,1,74,154,59,1,,,,,,,,,,,,,,,,,,,,,,,,,,,,,,,,,,
,,,,,,,,,,,,,,1,001,2025-01-12_12h42.31.630,IAT(Formal),2021.2.3,Win32,60.97560976,,,,,,,,,,,,,,,e,1,0.5631,,,,,,自己,e,,,1,75,155,63,1,,,,,,,,,,,,,,,,,,,,,,,,,,,,,,,,,,
,,,,,,,,,,,,,,1,001,2025-01-12_12h42.31.630,IAT(Formal),2021.2.3,Win32,60.97560976,,,,,,,,,,,,,,,e,1,0.3993,,,,,,我的,e,,,1,76,156,1,1,,,,,,,,,,,,,,,,,,,,,,,,,,,,,,,,,,
,,,,,,,,,,,,,,1,001,2025-01-12_12h42.31.630,IAT(Formal),2021.2.3,Win32,60.97560976,,,,,,,,,,,,,,,e,1,0.4794,,,,,,我们,e,,,1,77,157,62,1,,,,,,,,,,,,,,,,,,,,,,,,,,,,,,,,,,
,,,,,,,,,,,,,,1,001,2025-01-12_12h42.31.630,IAT(Formal),2021.2.3,Win32,60.97560976,,,,,,,,,,,,,,,e,1,0.49,,,,,,我们,e,,,1,78,158,72,1,,,,,,,,,,,,,,,,,,,,,,,,,,,,,,,,,,
,,,,,,,,,,,,,,1,001,2025-01-12_12h42.31.630,IAT(Formal),2021.2.3,Win32,60.97560976,,,,,,,,,,,,,,,i,1,0.7887,,,,,,自卑,i,,,1,79,159,36,1,,,,,,,,,,,,,,,,,,,,,,,,,,,,,,,,,,
,,,,,,,,,,,,我,i,1,001,2025-01-12_12h42.31.630,IAT(Formal),2021.2.3,Win32,60.97560976,,,,,,,,,,,,,,,,,,,,,,,,,,,,,,,,space,11.8277,i,1,0.6202,0,0,0,0,1,,,,,,,,,,,,,,,,,,,,,,,,
,,,,,,,,,,,,他,e,1,001,2025-01-12_12h42.31.630,IAT(Formal),2021.2.3,Win32,60.97560976,,,,,,,,,,,,,,,,,,,,,,,,,,,,,,,,,,e,1,0.4491,0,1,1,5,1,,,,,,,,,,,,,,,,,,,,,,,,
,,,,,,,,,,,,其他,e,1,001,2025-01-12_12h42.31.630,IAT(Formal),2021.2.3,Win32,60.97560976,,,,,,,,,,,,,,,,,,,,,,,,,,,,,,,,,,e,1,0.4022,0,2,2,9,1,,,,,,,,,,,,,,,,,,,,,,,,
,,,,,,,,,,,,我们,i,1,001,2025-01-12_12h42.31.630,IAT(Formal),2021.2.3,Win32,60.97560976,,,,,,,,,,,,,,,,,,,,,,,,,,,,,,,,,,i,1,0.5047,0,3,3,2,1,,,,,,,,,,,,,,,,,,,,,,,,
,,,,,,,,,,,,我的,i,1,001,2025-01-12_12h42.31.630,IAT(Formal),2021.2.3,Win32,60.97560976,,,,,,,,,,,,,,,,,,,,,,,,,,,,,,,,,,i,1,0.6011,0,4,4,1,1,,,,,,,,,,,,,,,,,,,,,,,,
,,,,,,,,,,,,他人,e,1,001,2025-01-12_12h42.31.630,IAT(Formal),2021.2.3,Win32,60.97560976,,,,,,,,,,,,,,,,,,,,,,,,,,,,,,,,,,e,1,0.469,0,5,5,8,1,,,,,,,,,,,,,,,,,,,,,,,,
,,,,,,,,,,,,他的,e,1,001,2025-01-12_12h42.31.630,IAT(Formal),2021.2.3,Win32,60.97560976,,,,,,,,,,,,,,,,,,,,,,,,,,,,,,,,,,e,1,0.3654,0,6,6,7,1,,,,,,,,,,,,,,,,,,,,,,,,
,,,,,,,,,,,,他们,e,1,001,2025-01-12_12h42.31.630,IAT(Formal),2021.2.3,Win32,60.97560976,,,,,,,,,,,,,,,,,,,,,,,,,,,,,,,,,,e,1,0.3833,0,7,7,6,1,,,,,,,,,,,,,,,,,,,,,,,,
,,,,,,,,,,,,俺,i,1,001,2025-01-12_12h42.31.630,IAT(Formal),2021.2.3,Win32,60.97560976,,,,,,,,,,,,,,,,,,,,,,,,,,,,,,,,,,i,1,0.5651,0,8,8,4,1,,,,,,,,,,,,,,,,,,,,,,,,
,,,,,,,,,,,,自己,i,1,001,2025-01-12_12h42.31.630,IAT(Formal),2021.2.3,Win32,60.97560976,,,,,,,,,,,,,,,,,,,,,,,,,,,,,,,,,,e,0,0.4481,0,9,9,3,1,,,,,,,,,,,,,,,,,,,,,,,,
,,,,,,,,,,,,,,1,001,2025-01-12_12h42.31.630,IAT(Formal),2021.2.3,Win32,60.97560976,,,,,,,,,,,,,,,,,,,,,,,,,,,,,,,,,,,,,,,,,,space,4.4449,i,0,0.6186,0,0,0,27,1,热情,e,,,,,,,,,,,,
,,,,,,,,,,,,,,1,001,2025-01-12_12h42.31.630,IAT(Formal),2021.2.3,Win32,60.97560976,,,,,,,,,,,,,,,,,,,,,,,,,,,,,,,,,,,,,,,,,,,,i,1,0.7919,0,1,1,70,1,我,i,,,,,,,,,,,,
,,,,,,,,,,,,,,1,001,2025-01-12_12h42.31.630,IAT(Formal),2021.2.3,Win32,60.97560976,,,,,,,,,,,,,,,,,,,,,,,,,,,,,,,,,,,,,,,,,,,,e,1,0.6027,0,2,2,69,1,其他,e,,,,,,,,,,,,
,,,,,,,,,,,,,,1,001,2025-01-12_12h42.31.630,IAT(Formal),2021.2.3,Win32,60.97560976,,,,,,,,,,,,,,,,,,,,,,,,,,,,,,,,,,,,,,,,,,,,i,1,0.6861,0,3,3,44,1,暴躁,i,,,,,,,,,,,,
,,,,,,,,,,,,,,1,001,2025-01-12_12h42.31.630,IAT(Formal),2021.2.3,Win32,60.97560976,,,,,,,,,,,,,,,,,,,,,,,,,,,,,,,,,,,,,,,,,,,,i,1,0.6519,0,4,4,41,1,散漫,i,,,,,,,,,,,,
,,,,,,,,,,,,,,1,001,2025-01-12_12h42.31.630,IAT(Formal),2021.2.3,Win32,60.97560976,,,,,,,,,,,,,,,,,,,,,,,,,,,,,,,,,,,,,,,,,,,,e,1,0.6842,0,5,5,13,1,杰出,e,,,,,,,,,,,,
,,,,,,,,,,,,,,1,001,2025-01-12_12h42.31.630,IAT(Formal),2021.2.3,Win32,60.97560976,,,,,,,,,,,,,,,,,,,,,,,,,,,,,,,,,,,,,,,,,,,,i,1,0.6747,0,6,6,49,1,下贱,i,,,,,,,,,,,,
,,,,,,,,,,,,,,1,001,2025-01-12_12h42.31.630,IAT(Formal),2021.2.3,Win32,60.97560976,,,,,,,,,,,,,,,,,,,,,,,,,,,,,,,,,,,,,,,,,,,,i,0,0.5081,0,7,7,22,1,无私,e,,,,,,,,,,,,
,,,,,,,,,,,,,,1,001,2025-01-12_12h42.31.630,IAT(Formal),2021.2.3,Win32,60.97560976,,,,,,,,,,,,,,,,,,,,,,,,,,,,,,,,,,,,,,,,,,,,e,0,0.5906,0,8,8,38,1,鲁莽,i,,,,,,,,,,,,
,,,,,,,,,,,,,,1,001,2025-01-12_12h42.31.630,IAT(Formal),2021.2.3,Win32,60.97560976,,,,,,,,,,,,,,,,,,,,,,,,,,,,,,,,,,,,,,,,,,,,i,1,0.7758,0,9,9,31,1,虚伪,i,,,,,,,,,,,,
,,,,,,,,,,,,,,1,001,2025-01-12_12h42.31.630,IAT(Formal),2021.2.3,Win32,60.97560976,,,,,,,,,,,,,,,,,,,,,,,,,,,,,,,,,,,,,,,,,,,,i,1,0.5543,0,10,10,61,1,我的,i,,,,,,,,,,,,
,,,,,,,,,,,,,,1,001,2025-01-12_12h42.31.630,IAT(Formal),2021.2.3,Win32,60.97560976,,,,,,,,,,,,,,,,,,,,,,,,,,,,,,,,,,,,,,,,,,,,e,1,0.823,0,11,11,57,1,他的,e,,,,,,,,,,,,
,,,,,,,,,,,,,,1,001,2025-01-12_12h42.31.630,IAT(Formal),2021.2.3,Win32,60.97560976,,,,,,,,,,,,,,,,,,,,,,,,,,,,,,,,,,,,,,,,,,,,e,1,0.4087,0,12,12,8,1,他人,e,,,,,,,,,,,,
,,,,,,,,,,,,,,1,001,2025-01-12_12h42.31.630,IAT(Formal),2021.2.3,Win32,60.97560976,,,,,,,,,,,,,,,,,,,,,,,,,,,,,,,,,,,,,,,,,,,,e,1,0.4332,0,13,13,56,1,他们,e,,,,,,,,,,,,
,,,,,,,,,,,,,,1,001,2025-01-12_12h42.31.630,IAT(Formal),2021.2.3,Win32,60.97560976,,,,,,,,,,,,,,,,,,,,,,,,,,,,,,,,,,,,,,,,,,,,i,1,0.6004,0,14,14,4,1,俺,i,,,,,,,,,,,,
,,,,,,,,,,,,,,1,001,2025-01-12_12h42.31.630,IAT(Formal),2021.2.3,Win32,60.97560976,,,,,,,,,,,,,,,,,,,,,,,,,,,,,,,,,,,,,,,,,,,,i,0,0.5723,0,15,15,67,1,他的,e,,,,,,,,,,,,
,,,,,,,,,,,,,,1,001,2025-01-12_12h42.31.630,IAT(Formal),2021.2.3,Win32,60.97560976,,,,,,,,,,,,,,,,,,,,,,,,,,,,,,,,,,,,,,,,,,,,e,1,1.0067,0,16,16,11,1,崇高,e,,,,,,,,,,,,
,,,,,,,,,,,,,,1,001,2025-01-12_12h42.31.630,IAT(Formal),2021.2.3,Win32,60.97560976,,,,,,,,,,,,,,,,,,,,,,,,,,,,,,,,,,,,,,,,,,,,i,0,0.5424,0,17,17,19,1,机智,e,,,,,,,,,,,,
,,,,,,,,,,,,,,1,001,2025-01-12_12h42.31.630,IAT(Formal),2021.2.3,Win32,60.97560976,,,,,,,,,,,,,,,,,,,,,,,,,,,,,,,,,,,,,,,,,,,,i,1,0.9087,0,18,18,72,1,我们,i,,,,,,,,,,,,
,,,,,,,,,,,,,,1,001,2025-01-12_12h42.31.630,IAT(Formal),2021.2.3,Win32,60.97560976,,,,,,,,,,,,,,,,,,,,,,,,,,,,,,,,,,,,,,,,,,,,e,1,0.5837,0,19,19,58,1,他人,e,,,,,,,,,,,,
,,,,,,,,,,,,,,1,001,2025-01-12_12h42.31.630,IAT(Formal),2021.2.3,Win32,60.97560976,,,,,,,,,,,,,,,,,,,,,,,,,,,,,,,,,,,,,,,,,,,,e,0,1.082,0,20,20,46,1,野蛮,i,,,,,,,,,,,,
,,,,,,,,,,,,,,1,001,2025-01-12_12h42.31.630,IAT(Formal),2021.2.3,Win32,60.97560976,,,,,,,,,,,,,,,,,,,,,,,,,,,,,,,,,,,,,,,,,,,,e,1,0.768,0,21,21,78,1,他人,e,,,,,,,,,,,,
,,,,,,,,,,,,,,1,001,2025-01-12_12h42.31.630,IAT(Formal),2021.2.3,Win32,60.97560976,,,,,,,,,,,,,,,,,,,,,,,,,,,,,,,,,,,,,,,,,,,,e,1,0.8521,0,22,22,28,1,活泼,e,,,,,,,,,,,,
,,,,,,,,,,,,,,1,001,2025-01-12_12h42.31.630,IAT(Formal),2021.2.3,Win32,60.97560976,,,,,,,,,,,,,,,,,,,,,,,,,,,,,,,,,,,,,,,,,,,,e,1,0.4688,0,23,23,9,1,其他,e,,,,,,,,,,,,
,,,,,,,,,,,,,,1,001,2025-01-12_12h42.31.630,IAT(Formal),2021.2.3,Win32,60.97560976,,,,,,,,,,,,,,,,,,,,,,,,,,,,,,,,,,,,,,,,,,,,e,1,0.4358,0,24,24,29,1,诚恳,e,,,,,,,,,,,,
,,,,,,,,,,,,,,1,001,2025-01-12_12h42.31.630,IAT(Formal),2021.2.3,Win32,60.97560976,,,,,,,,,,,,,,,,,,,,,,,,,,,,,,,,,,,,,,,,,,,,e,0,0.4656,0,25,25,53,1,自己,i,,,,,,,,,,,,
,,,,,,,,,,,,,,1,001,2025-01-12_12h42.31.630,IAT(Formal),2021.2.3,Win32,60.97560976,,,,,,,,,,,,,,,,,,,,,,,,,,,,,,,,,,,,,,,,,,,,i,1,0.5279,0,26,26,63,1,自己,i,,,,,,,,,,,,
,,,,,,,,,,,,,,1,001,2025-01-12_12h42.31.630,IAT(Formal),2021.2.3,Win32,60.97560976,,,,,,,,,,,,,,,,,,,,,,,,,,,,,,,,,,,,,,,,,,,,i,1,1.0067,0,27,27,48,1,轻率,i,,,,,,,,,,,,
,,,,,,,,,,,,,,1,001,2025-01-12_12h42.31.630,IAT(Formal),2021.2.3,Win32,60.97560976,,,,,,,,,,,,,,,,,,,,,,,,,,,,,,,,,,,,,,,,,,,,i,0,0.5748,0,28,28,14,1,乐观,e,,,,,,,,,,,,
,,,,,,,,,,,,,,1,001,2025-01-12_12h42.31.630,IAT(Formal),2021.2.3,Win32,60.97560976,,,,,,,,,,,,,,,,,,,,,,,,,,,,,,,,,,,,,,,,,,,,e,1,0.6838,0,29,29,5,1,他,e,,,,,,,,,,,,
,,,,,,,,,,,,,,1,001,2025-01-12_12h42.31.630,IAT(Formal),2021.2.3,Win32,60.97560976,,,,,,,,,,,,,,,,,,,,,,,,,,,,,,,,,,,,,,,,,,,,i,1,0.5516,0,30,30,47,1,固执,i,,,,,,,,,,,,
,,,,,,,,,,,,,,1,001,2025-01-12_12h42.31.630,IAT(Formal),2021.2.3,Win32,60.97560976,,,,,,,,,,,,,,,,,,,,,,,,,,,,,,,,,,,,,,,,,,,,i,1,0.5832,0,31,31,36,1,自卑,i,,,,,,,,,,,,
,,,,,,,,,,,,,,1,001,2025-01-12_12h42.31.630,IAT(Formal),2021.2.3,Win32,60.97560976,,,,,,,,,,,,,,,,,,,,,,,,,,,,,,,,,,,,,,,,,,,,i,1,0.551,0,32,32,50,1,我,i,,,,,,,,,,,,
,,,,,,,,,,,,,,1,001,2025-01-12_12h42.31.630,IAT(Formal),2021.2.3,Win32,60.97560976,,,,,,,,,,,,,,,,,,,,,,,,,,,,,,,,,,,,,,,,,,,,i,1,0.8717,0,33,33,40,1,执拗,i,,,,,,,,,,,,
,,,,,,,,,,,,,,1,001,2025-01-12_12h42.31.630,IAT(Formal),2021.2.3,Win32,60.97560976,,,,,,,,,,,,,,,,,,,,,,,,,,,,,,,,,,,,,,,,,,,,i,1,0.6513,0,34,34,3,1,自己,i,,,,,,,,,,,,
,,,,,,,,,,,,,,1,001,2025-01-12_12h42.31.630,IAT(Formal),2021.2.3,Win32,60.97560976,,,,,,,,,,,,,,,,,,,,,,,,,,,,,,,,,,,,,,,,,,,,i,1,0.5679,0,35,35,42,1,凶狠,i,,,,,,,,,,,,
,,,,,,,,,,,,,,1,001,2025-01-12_12h42.31.630,IAT(Formal),2021.2.3,Win32,60.97560976,,,,,,,,,,,,,,,,,,,,,,,,,,,,,,,,,,,,,,,,,,,,e,1,0.7175,0,36,36,25,1,细腻,e,,,,,,,,,,,,
,,,,,,,,,,,,,,1,001,2025-01-12_12h42.31.630,IAT(Formal),2021.2.3,Win32,60.97560976,,,,,,,,,,,,,,,,,,,,,,,,,,,,,,,,,,,,,,,,,,,,i,1,0.1346,0,37,37,37,1,傲慢,i,,,,,,,,,,,,
,,,,,,,,,,,,,,1,001,2025-01-12_12h42.31.630,IAT(Formal),2021.2.3,Win32,60.97560976,,,,,,,,,,,,,,,,,,,,,,,,,,,,,,,,,,,,,,,,,,,,e,1,0.7995,0,38,38,68,1,他人,e,,,,,,,,,,,,
,,,,,,,,,,,,,,1,001,2025-01-12_12h42.31.630,IAT(Formal),2021.2.3,Win32,60.97560976,,,,,,,,,,,,,,,,,,,,,,,,,,,,,,,,,,,,,,,,,,,,e,1,0.5021,0,39,39,76,1,他们,e,,,,,,,,,,,,
,,,,,,,,,,,,,,1,001,2025-01-12_12h42.31.630,IAT(Formal),2021.2.3,Win32,60.97560976,,,,,,,,,,,,,,,,,,,,,,,,,,,,,,,,,,,,,,,,,,,,i,0,0.7167,0,40,40,18,1,勤奋,e,,,,,,,,,,,,
,,,,,,,,,,,,,,1,001,2025-01-12_12h42.31.630,IAT(Formal),2021.2.3,Win32,60.97560976,,,,,,,,,,,,,,,,,,,,,,,,,,,,,,,,,,,,,,,,,,,,i,1,0.6689,0,41,41,74,1,俺,i,,,,,,,,,,,,
,,,,,,,,,,,,,,1,001,2025-01-12_12h42.31.630,IAT(Formal),2021.2.3,Win32,60.97560976,,,,,,,,,,,,,,,,,,,,,,,,,,,,,,,,,,,,,,,,,,,,e,1,0.6817,0,42,42,16,1,正直,e,,,,,,,,,,,,
,,,,,,,,,,,,,,1,001,2025-01-12_12h42.31.630,IAT(Formal),2021.2.3,Win32,60.97560976,,,,,,,,,,,,,,,,,,,,,,,,,,,,,,,,,,,,,,,,,,,,i,0,0.8489,0,43,43,59,1,其他,e,,,,,,,,,,,,
,,,,,,,,,,,,,,1,001,2025-01-12_12h42.31.630,IAT(Formal),2021.2.3,Win32,60.97560976,,,,,,,,,,,,,,,,,,,,,,,,,,,,,,,,,,,,,,,,,,,,e,0,1.0302,0,44,44,39,1,冒失,i,,,,,,,,,,,,
,,,,,,,,,,,,,,1,001,2025-01-12_12h42.31.630,IAT(Formal),2021.2.3,Win32,60.97560976,,,,,,,,,,,,,,,,,,,,,,,,,,,,,,,,,,,,,,,,,,,,i,1,0.6719,0,45,45,64,1,俺,i,,,,,,,,,,,,
,,,,,,,,,,,,,,1,001,2025-01-12_12h42.31.630,IAT(Formal),2021.2.3,Win32,60.97560976,,,,,,,,,,,,,,,,,,,,,,,,,,,,,,,,,,,,,,,,,,,,i,1,0.4821,0,46,46,54,1,俺,i,,,,,,,,,,,,
,,,,,,,,,,,,,,1,001,2025-01-12_12h42.31.630,IAT(Formal),2021.2.3,Win32,60.97560976,,,,,,,,,,,,,,,,,,,,,,,,,,,,,,,,,,,,,,,,,,,,e,1,0.6627,0,47,47,17,1,勇敢,e,,,,,,,,,,,,
,,,,,,,,,,,,,,1,001,2025-01-12_12h42.31.630,IAT(Formal),2021.2.3,Win32,60.97560976,,,,,,,,,,,,,,,,,,,,,,,,,,,,,,,,,,,,,,,,,,,,i,1,0.6463,0,48,48,73,1,自己,i,,,,,,,,,,,,
,,,,,,,,,,,,,,1,001,2025-01-12_12h42.31.630,IAT(Formal),2021.2.3,Win32,60.97560976,,,,,,,,,,,,,,,,,,,,,,,,,,,,,,,,,,,,,,,,,,,,i,1,0.5579,0,49,49,60,1,我,i,,,,,,,,,,,,
,,,,,,,,,,,,,,1,001,2025-01-12_12h42.31.630,IAT(Formal),2021.2.3,Win32,60.97560976,,,,,,,,,,,,,,,,,,,,,,,,,,,,,,,,,,,,,,,,,,,,e,1,0.6819,0,50,50,20,1,认真,e,,,,,,,,,,,,
,,,,,,,,,,,,,,1,001,2025-01-12_12h42.31.630,IAT(Formal),2021.2.3,Win32,60.97560976,,,,,,,,,,,,,,,,,,,,,,,,,,,,,,,,,,,,,,,,,,,,e,1,0.7331,0,51,51,24,1,朴实,e,,,,,,,,,,,,
,,,,,,,,,,,,,,1,001,2025-01-12_12h42.31.630,IAT(Formal),2021.2.3,Win32,60.97560976,,,,,,,,,,,,,,,,,,,,,,,,,,,,,,,,,,,,,,,,,,,,e,1,0.4985,0,52,52,10,1,优秀,e,,,,,,,,,,,,
,,,,,,,,,,,,,,1,001,2025-01-12_12h42.31.630,IAT(Formal),2021.2.3,Win32,60.97560976,,,,,,,,,,,,,,,,,,,,,,,,,,,,,,,,,,,,,,,,,,,,i,0,0.6674,0,53,53,79,1,其他,e,,,,,,,,,,,,
,,,,,,,,,,,,,,1,001,2025-01-12_12h42.31.630,IAT(Formal),2021.2.3,Win32,60.97560976,,,,,,,,,,,,,,,,,,,,,,,,,,,,,,,,,,,,,,,,,,,,e,0,0.5488,0,54,54,62,1,我们,i,,,,,,,,,,,,
,,,,,,,,,,,,,,1,001,2025-01-12_12h42.31.630,IAT(Formal),2021.2.3,Win32,60.97560976,,,,,,,,,,,,,,,,,,,,,,,,,,,,,,,,,,,,,,,,,,,,e,1,1.2519,0,55,55,75,1,他,e,,,,,,,,,,,,
,,,,,,,,,,,,,,1,001,2025-01-12_12h42.31.630,IAT(Formal),2021.2.3,Win32,60.97560976,,,,,,,,,,,,,,,,,,,,,,,,,,,,,,,,,,,,,,,,,,,,e,1,0.4332,0,56,56,65,1,他,e,,,,,,,,,,,,
,,,,,,,,,,,,,,1,001,2025-01-12_12h42.31.630,IAT(Formal),2021.2.3,Win32,60.97560976,,,,,,,,,,,,,,,,,,,,,,,,,,,,,,,,,,,,,,,,,,,,i,1,0.6454,0,57,57,30,1,卑鄙,i,,,,,,,,,,,,
,,,,,,,,,,,,,,1,001,2025-01-12_12h42.31.630,IAT(Formal),2021.2.3,Win32,60.97560976,,,,,,,,,,,,,,,,,,,,,,,,,,,,,,,,,,,,,,,,,,,,e,1,0.6006,0,58,58,15,1,诚实,e,,,,,,,,,,,,
,,,,,,,,,,,,,,1,001,2025-01-12_12h42.31.630,IAT(Formal),2021.2.3,Win32,60.97560976,,,,,,,,,,,,,,,,,,,,,,,,,,,,,,,,,,,,,,,,,,,,e,1,0.6136,0,59,59,77,1,他的,e,,,,,,,,,,,,
,,,,,,,,,,,,,,1,001,2025-01-12_12h42.31.630,IAT(Formal),2021.2.3,Win32,60.97560976,,,,,,,,,,,,,,,,,,,,,,,,,,,,,,,,,,,,,,,,,,,,i,1,0.982,0,60,60,35,1,消极,i,,,,,,,,,,,,
,,,,,,,,,,,,,,1,001,2025-01-12_12h42.31.630,IAT(Formal),2021.2.3,Win32,60.97560976,,,,,,,,,,,,,,,,,,,,,,,,,,,,,,,,,,,,,,,,,,,,i,1,0.6025,0,61,61,51,1,我的,i,,,,,,,,,,,,
,,,,,,,,,,,,,,1,001,2025-01-12_12h42.31.630,IAT(Formal),2021.2.3,Win32,60.97560976,,,,,,,,,,,,,,,,,,,,,,,,,,,,,,,,,,,,,,,,,,,,i,1,0.4875,0,62,62,71,1,我的,i,,,,,,,,,,,,
,,,,,,,,,,,,,,1,001,2025-01-12_12h42.31.630,IAT(Formal),2021.2.3,Win32,60.97560976,,,,,,,,,,,,,,,,,,,,,,,,,,,,,,,,,,,,,,,,,,,,i,1,0.6825,0,63,63,33,1,刻薄,i,,,,,,,,,,,,
,,,,,,,,,,,,,,1,001,2025-01-12_12h42.31.630,IAT(Formal),2021.2.3,Win32,60.97560976,,,,,,,,,,,,,,,,,,,,,,,,,,,,,,,,,,,,,,,,,,,,i,0,0.5316,0,64,64,66,1,他们,e,,,,,,,,,,,,
,,,,,,,,,,,,,,1,001,2025-01-12_12h42.31.630,IAT(Formal),2021.2.3,Win32,60.97560976,,,,,,,,,,,,,,,,,,,,,,,,,,,,,,,,,,,,,,,,,,,,i,1,0.5811,0,65,65,32,1,愚蠢,i,,,,,,,,,,,,
,,,,,,,,,,,,,,1,001,2025-01-12_12h42.31.630,IAT(Formal),2021.2.3,Win32,60.97560976,,,,,,,,,,,,,,,,,,,,,,,,,,,,,,,,,,,,,,,,,,,,i,1,0.5547,0,66,66,34,1,悲观,i,,,,,,,,,,,,
,,,,,,,,,,,,,,1,001,2025-01-12_12h42.31.630,IAT(Formal),2021.2.3,Win32,60.97560976,,,,,,,,,,,,,,,,,,,,,,,,,,,,,,,,,,,,,,,,,,,,e,0,0.8359,0,67,67,43,1,自私,i,,,,,,,,,,,,
,,,,,,,,,,,,,,1,001,2025-01-12_12h42.31.630,IAT(Formal),2021.2.3,Win32,60.97560976,,,,,,,,,,,,,,,,,,,,,,,,,,,,,,,,,,,,,,,,,,,,e,1,0.8694,0,68,68,55,1,他,e,,,,,,,,,,,,
,,,,,,,,,,,,,,1,001,2025-01-12_12h42.31.630,IAT(Formal),2021.2.3,Win32,60.97560976,,,,,,,,,,,,,,,,,,,,,,,,,,,,,,,,,,,,,,,,,,,,e,1,0.4768,0,69,69,21,1,稳重,e,,,,,,,,,,,,
,,,,,,,,,,,,,,1,001,2025-01-12_12h42.31.630,IAT(Formal),2021.2.3,Win32,60.97560976,,,,,,,,,,,,,,,,,,,,,,,,,,,,,,,,,,,,,,,,,,,,e,1,0.4961,0,70,70,6,1,他们,e,,,,,,,,,,,,
,,,,,,,,,,,,,,1,001,2025-01-12_12h42.31.630,IAT(Formal),2021.2.3,Win32,60.97560976,,,,,,,,,,,,,,,,,,,,,,,,,,,,,,,,,,,,,,,,,,,,i,1,0.5907,0,71,71,2,1,我们,i,,,,,,,,,,,,
,,,,,,,,,,,,,,1,001,2025-01-12_12h42.31.630,IAT(Formal),2021.2.3,Win32,60.97560976,,,,,,,,,,,,,,,,,,,,,,,,,,,,,,,,,,,,,,,,,,,,i,1,0.7329,0,72,72,45,1,猖狂,i,,,,,,,,,,,,
,,,,,,,,,,,,,,1,001,2025-01-12_12h42.31.630,IAT(Formal),2021.2.3,Win32,60.97560976,,,,,,,,,,,,,,,,,,,,,,,,,,,,,,,,,,,,,,,,,,,,e,1,1.0281,0,73,73,26,1,冷静,e,,,,,,,,,,,,
,,,,,,,,,,,,,,1,001,2025-01-12_12h42.31.630,IAT(Formal),2021.2.3,Win32,60.97560976,,,,,,,,,,,,,,,,,,,,,,,,,,,,,,,,,,,,,,,,,,,,e,1,0.984,0,74,74,7,1,他的,e,,,,,,,,,,,,
,,,,,,,,,,,,,,1,001,2025-01-12_12h42.31.630,IAT(Formal),2021.2.3,Win32,60.97560976,,,,,,,,,,,,,,,,,,,,,,,,,,,,,,,,,,,,,,,,,,,,i,0,0.7982,0,75,75,23,1,公正,e,,,,,,,,,,,,
,,,,,,,,,,,,,,1,001,2025-01-12_12h42.31.630,IAT(Formal),2021.2.3,Win32,60.97560976,,,,,,,,,,,,,,,,,,,,,,,,,,,,,,,,,,,,,,,,,,,,i,1,1.0064,0,76,76,52,1,我们,i,,,,,,,,,,,,
,,,,,,,,,,,,,,1,001,2025-01-12_12h42.31.630,IAT(Formal),2021.2.3,Win32,60.97560976,,,,,,,,,,,,,,,,,,,,,,,,,,,,,,,,,,,,,,,,,,,,i,0,0.8029,0,77,77,12,1,聪明,e,,,,,,,,,,,,
,,,,,,,,,,,,,,1,001,2025-01-12_12h42.31.630,IAT(Formal),2021.2.3,Win32,60.97560976,,,,,,,,,,,,,,,,,,,,,,,,,,,,,,,,,,,,,,,,,,,,i,1,0.7178,0,78,78,0,1,我,i,,,,,,,,,,,,
,,,,,,,,,,,,,,1,001,2025-01-12_12h42.31.630,IAT(Formal),2021.2.3,Win32,60.97560976,,,,,,,,,,,,,,,,,,,,,,,,,,,,,,,,,,,,,,,,,,,,i,1,0.4699,0,79,79,1,1,我的,i,,,,,,,,,,,,
,,,,,,,,,,,,,,1,001,2025-01-12_12h42.31.630,IAT(Formal),2021.2.3,Win32,60.97560976,,,,,,,,,,,,,,,,,,,,,,,,,,,,,,,,,,,,,,,,,,,,,,,,,,,,活泼,e,space,56.4597,e,1,0.2516,0,0,0,28,1,,
,,,,,,,,,,,,,,1,001,2025-01-12_12h42.31.630,IAT(Formal),2021.2.3,Win32,60.97560976,,,,,,,,,,,,,,,,,,,,,,,,,,,,,,,,,,,,,,,,,,,,,,,,,,,,他的,e,,,i,0,0.5642,0,1,1,57,1,,
,,,,,,,,,,,,,,1,001,2025-01-12_12h42.31.630,IAT(Formal),2021.2.3,Win32,60.97560976,,,,,,,,,,,,,,,,,,,,,,,,,,,,,,,,,,,,,,,,,,,,,,,,,,,,傲慢,i,,,i,1,0.6958,0,2,2,37,1,,
,,,,,,,,,,,,,,1,001,2025-01-12_12h42.31.630,IAT(Formal),2021.2.3,Win32,60.97560976,,,,,,,,,,,,,,,,,,,,,,,,,,,,,,,,,,,,,,,,,,,,,,,,,,,,其他,e,,,e,1,0.4818,0,3,3,69,1,,
,,,,,,,,,,,,,,1,001,2025-01-12_12h42.31.630,IAT(Formal),2021.2.3,Win32,60.97560976,,,,,,,,,,,,,,,,,,,,,,,,,,,,,,,,,,,,,,,,,,,,,,,,,,,,他们,e,,,e,1,0.4153,0,4,4,76,1,,
,,,,,,,,,,,,,,1,001,2025-01-12_12h42.31.630,IAT(Formal),2021.2.3,Win32,60.97560976,,,,,,,,,,,,,,,,,,,,,,,,,,,,,,,,,,,,,,,,,,,,,,,,,,,,自己,i,,,i,1,0.4963,0,5,5,63,1,,
,,,,,,,,,,,,,,1,001,2025-01-12_12h42.31.630,IAT(Formal),2021.2.3,Win32,60.97560976,,,,,,,,,,,,,,,,,,,,,,,,,,,,,,,,,,,,,,,,,,,,,,,,,,,,稳重,e,,,i,0,0.865,0,6,6,21,1,,
,,,,,,,,,,,,,,1,001,2025-01-12_12h42.31.630,IAT(Formal),2021.2.3,Win32,60.97560976,,,,,,,,,,,,,,,,,,,,,,,,,,,,,,,,,,,,,,,,,,,,,,,,,,,,散漫,i,,,i,1,0.6377,0,7,7,41,1,,
,,,,,,,,,,,,,,1,001,2025-01-12_12h42.31.630,IAT(Formal),2021.2.3,Win32,60.97560976,,,,,,,,,,,,,,,,,,,,,,,,,,,,,,,,,,,,,,,,,,,,,,,,,,,,暴躁,i,,,i,1,0.6497,0,8,8,44,1,,
,,,,,,,,,,,,,,1,001,2025-01-12_12h42.31.630,IAT(Formal),2021.2.3,Win32,60.97560976,,,,,,,,,,,,,,,,,,,,,,,,,,,,,,,,,,,,,,,,,,,,,,,,,,,,细腻,e,,,e,1,0.5427,0,9,9,25,1,,
,,,,,,,,,,,,,,1,001,2025-01-12_12h42.31.630,IAT(Formal),2021.2.3,Win32,60.97560976,,,,,,,,,,,,,,,,,,,,,,,,,,,,,,,,,,,,,,,,,,,,,,,,,,,,优秀,e,,,e,1,0.7291,0,10,10,10,1,,
,,,,,,,,,,,,,,1,001,2025-01-12_12h42.31.630,IAT(Formal),2021.2.3,Win32,60.97560976,,,,,,,,,,,,,,,,,,,,,,,,,,,,,,,,,,,,,,,,,,,,,,,,,,,,他人,e,,,e,1,0.4633,0,11,11,8,1,,
,,,,,,,,,,,,,,1,001,2025-01-12_12h42.31.630,IAT(Formal),2021.2.3,Win32,60.97560976,,,,,,,,,,,,,,,,,,,,,,,,,,,,,,,,,,,,,,,,,,,,,,,,,,,,无私,e,,,e,1,0.869,0,12,12,22,1,,
,,,,,,,,,,,,,,1,001,2025-01-12_12h42.31.630,IAT(Formal),2021.2.3,Win32,60.97560976,,,,,,,,,,,,,,,,,,,,,,,,,,,,,,,,,,,,,,,,,,,,,,,,,,,,朴实,e,,,e,1,1.2322,0,13,13,24,1,,
,,,,,,,,,,,,,,1,001,2025-01-12_12h42.31.630,IAT(Formal),2021.2.3,Win32,60.97560976,,,,,,,,,,,,,,,,,,,,,,,,,,,,,,,,,,,,,,,,,,,,,,,,,,,,消极,i,,,i,1,0.6434,0,14,14,35,1,,
,,,,,,,,,,,,,,1,001,2025-01-12_12h42.31.630,IAT(Formal),2021.2.3,Win32,60.97560976,,,,,,,,,,,,,,,,,,,,,,,,,,,,,,,,,,,,,,,,,,,,,,,,,,,,聪明,e,,,e,1,0.5876,0,15,15,12,1,,
,,,,,,,,,,,,,,1,001,2025-01-12_12h42.31.630,IAT(Formal),2021.2.3,Win32,60.97560976,,,,,,,,,,,,,,,,,,,,,,,,,,,,,,,,,,,,,,,,,,,,,,,,,,,,其他,e,,,e,1,0.7883,0,16,16,79,1,,
,,,,,,,,,,,,,,1,001,2025-01-12_12h42.31.630,IAT(Formal),2021.2.3,Win32,60.97560976,,,,,,,,,,,,,,,,,,,,,,,,,,,,,,,,,,,,,,,,,,,,,,,,,,,,我的,i,,,i,1,0.8517,0,17,17,61,1,,
,,,,,,,,,,,,,,1,001,2025-01-12_12h42.31.630,IAT(Formal),2021.2.3,Win32,60.97560976,,,,,,,,,,,,,,,,,,,,,,,,,,,,,,,,,,,,,,,,,,,,,,,,,,,,俺,i,,,i,1,0.5662,0,18,18,64,1,,
,,,,,,,,,,,,,,1,001,2025-01-12_12h42.31.630,IAT(Formal),2021.2.3,Win32,60.97560976,,,,,,,,,,,,,,,,,,,,,,,,,,,,,,,,,,,,,,,,,,,,,,,,,,,,我,i,,,i,1,0.4291,0,19,19,70,1,,
,,,,,,,,,,,,,,1,001,2025-01-12_12h42.31.630,IAT(Formal),2021.2.3,Win32,60.97560976,,,,,,,,,,,,,,,,,,,,,,,,,,,,,,,,,,,,,,,,,,,,,,,,,,,,自己,i,,,i,1,0.4681,0,20,20,73,1,,
,,,,,,,,,,,,,,1,001,2025-01-12_12h42.31.630,IAT(Formal),2021.2.3,Win32,60.97560976,,,,,,,,,,,,,,,,,,,,,,,,,,,,,,,,,,,,,,,,,,,,,,,,,,,,他人,e,,,e,1,0.5554,0,21,21,68,1,,
,,,,,,,,,,,,,,1,001,2025-01-12_12h42.31.630,IAT(Formal),2021.2.3,Win32,60.97560976,,,,,,,,,,,,,,,,,,,,,,,,,,,,,,,,,,,,,,,,,,,,,,,,,,,,热情,e,,,e,1,1.3631,0,22,22,27,1,,
,,,,,,,,,,,,,,1,001,2025-01-12_12h42.31.630,IAT(Formal),2021.2.3,Win32,60.97560976,,,,,,,,,,,,,,,,,,,,,,,,,,,,,,,,,,,,,,,,,,,,,,,,,,,,他们,e,,,e,1,0.4518,0,23,23,56,1,,
,,,,,,,,,,,,,,1,001,2025-01-12_12h42.31.630,IAT(Formal),2021.2.3,Win32,60.97560976,,,,,,,,,,,,,,,,,,,,,,,,,,,,,,,,,,,,,,,,,,,,,,,,,,,,刻薄,i,,,i,1,0.7294,0,24,24,33,1,,
,,,,,,,,,,,,,,1,001,2025-01-12_12h42.31.630,IAT(Formal),2021.2.3,Win32,60.97560976,,,,,,,,,,,,,,,,,,,,,,,,,,,,,,,,,,,,,,,,,,,,,,,,,,,,正直,e,,,i,0,0.7764,0,25,25,16,1,,
,,,,,,,,,,,,,,1,001,2025-01-12_12h42.31.630,IAT(Formal),2021.2.3,Win32,60.97560976,,,,,,,,,,,,,,,,,,,,,,,,,,,,,,,,,,,,,,,,,,,,,,,,,,,,崇高,e,,,e,1,0.6988,0,26,26,11,1,,
,,,,,,,,,,,,,,1,001,2025-01-12_12h42.31.630,IAT(Formal),2021.2.3,Win32,60.97560976,,,,,,,,,,,,,,,,,,,,,,,,,,,,,,,,,,,,,,,,,,,,,,,,,,,,我们,i,,,i,1,0.583,0,27,27,52,1,,
,,,,,,,,,,,,,,1,001,2025-01-12_12h42.31.630,IAT(Formal),2021.2.3,Win32,60.97560976,,,,,,,,,,,,,,,,,,,,,,,,,,,,,,,,,,,,,,,,,,,,,,,,,,,,冷静,e,,,e,1,0.9979,0,28,28,26,1,,
,,,,,,,,,,,,,,1,001,2025-01-12_12h42.31.630,IAT(Formal),2021.2.3,Win32,60.97560976,,,,,,,,,,,,,,,,,,,,,,,,,,,,,,,,,,,,,,,,,,,,,,,,,,,,勇敢,e,,,e,1,0.545,0,29,29,17,1,,
,,,,,,,,,,,,,,1,001,2025-01-12_12h42.31.630,IAT(Formal),2021.2.3,Win32,60.97560976,,,,,,,,,,,,,,,,,,,,,,,,,,,,,,,,,,,,,,,,,,,,,,,,,,,,野蛮,i,,,i,1,0.769,0,30,30,46,1,,
,,,,,,,,,,,,,,1,001,2025-01-12_12h42.31.630,IAT(Formal),2021.2.3,Win32,60.97560976,,,,,,,,,,,,,,,,,,,,,,,,,,,,,,,,,,,,,,,,,,,,,,,,,,,,轻率,i,,,i,1,0.7958,0,31,31,48,1,,
,,,,,,,,,,,,,,1,001,2025-01-12_12h42.31.630,IAT(Formal),2021.2.3,Win32,60.97560976,,,,,,,,,,,,,,,,,,,,,,,,,,,,,,,,,,,,,,,,,,,,,,,,,,,,自卑,i,,,i,1,0.5646,0,32,32,36,1,,
,,,,,,,,,,,,,,1,001,2025-01-12_12h42.31.630,IAT(Formal),2021.2.3,Win32,60.97560976,,,,,,,,,,,,,,,,,,,,,,,,,,,,,,,,,,,,,,,,,,,,,,,,,,,,自己,i,,,i,1,0.8672,0,33,33,3,1,,
,,,,,,,,,,,,,,1,001,2025-01-12_12h42.31.630,IAT(Formal),2021.2.3,Win32,60.97560976,,,,,,,,,,,,,,,,,,,,,,,,,,,,,,,,,,,,,,,,,,,,,,,,,,,,他们,e,,,e,1,0.7311,0,34,34,66,1,,
,,,,,,,,,,,,,,1,001,2025-01-12_12h42.31.630,IAT(Formal),2021.2.3,Win32,60.97560976,,,,,,,,,,,,,,,,,,,,,,,,,,,,,,,,,,,,,,,,,,,,,,,,,,,,他,e,,,e,1,0.5448,0,35,35,75,1,,
,,,,,,,,,,,,,,1,001,2025-01-12_12h42.31.630,IAT(Formal),2021.2.3,Win32,60.97560976,,,,,,,,,,,,,,,,,,,,,,,,,,,,,,,,,,,,,,,,,,,,,,,,,,,,他的,e,,,e,1,0.495,0,36,36,77,1,,
,,,,,,,,,,,,,,1,001,2025-01-12_12h42.31.630,IAT(Formal),2021.2.3,Win32,60.97560976,,,,,,,,,,,,,,,,,,,,,,,,,,,,,,,,,,,,,,,,,,,,,,,,,,,,他,e,,,e,1,0.399,0,37,37,55,1,,
,,,,,,,,,,,,,,1,001,2025-01-12_12h42.31.630,IAT(Formal),2021.2.3,Win32,60.97560976,,,,,,,,,,,,,,,,,,,,,,,,,,,,,,,,,,,,,,,,,,,,,,,,,,,,机智,e,,,e,1,1.336,0,38,38,19,1,,
,,,,,,,,,,,,,,1,001,2025-01-12_12h42.31.630,IAT(Formal),2021.2.3,Win32,60.97560976,,,,,,,,,,,,,,,,,,,,,,,,,,,,,,,,,,,,,,,,,,,,,,,,,,,,他,e,,,e,1,0.4654,0,39,39,65,1,,
,,,,,,,,,,,,,,1,001,2025-01-12_12h42.31.630,IAT(Formal),2021.2.3,Win32,60.97560976,,,,,,,,,,,,,,,,,,,,,,,,,,,,,,,,,,,,,,,,,,,,,,,,,,,,执拗,i,,,i,1,1.4525,0,40,40,40,1,,
,,,,,,,,,,,,,,1,001,2025-01-12_12h42.31.630,IAT(Formal),2021.2.3,Win32,60.97560976,,,,,,,,,,,,,,,,,,,,,,,,,,,,,,,,,,,,,,,,,,,,,,,,,,,,诚实,e,,,i,0,0.8499,0,41,41,15,1,,
,,,,,,,,,,,,,,1,001,2025-01-12_12h42.31.630,IAT(Formal),2021.2.3,Win32,60.97560976,,,,,,,,,,,,,,,,,,,,,,,,,,,,,,,,,,,,,,,,,,,,,,,,,,,,公正,e,,,e,1,0.7785,0,42,42,23,1,,
,,,,,,,,,,,,,,1,001,2025-01-12_12h42.31.630,IAT(Formal),2021.2.3,Win32,60.97560976,,,,,,,,,,,,,,,,,,,,,,,,,,,,,,,,,,,,,,,,,,,,,,,,,,,,卑鄙,i,,,i,1,0.7152,0,43,43,30,1,,
,,,,,,,,,,,,,,1,001,2025-01-12_12h42.31.630,IAT(Formal),2021.2.3,Win32,60.97560976,,,,,,,,,,,,,,,,,,,,,,,,,,,,,,,,,,,,,,,,,,,,,,,,,,,,杰出,e,,,e,1,1.0334,0,44,44,13,1,,
,,,,,,,,,,,,,,1,001,2025-01-12_12h42.31.630,IAT(Formal),2021.2.3,Win32,60.97560976,,,,,,,,,,,,,,,,,,,,,,,,,,,,,,,,,,,,,,,,,,,,,,,,,,,,固执,i,,,i,1,0.6975,0,45,45,47,1,,
,,,,,,,,,,,,,,1,001,2025-01-12_12h42.31.630,IAT(Formal),2021.2.3,Win32,60.97560976,,,,,,,,,,,,,,,,,,,,,,,,,,,,,,,,,,,,,,,,,,,,,,,,,,,,凶狠,i,,,i,1,0.5051,0,46,46,42,1,,
,,,,,,,,,,,,,,1,001,2025-01-12_12h42.31.630,IAT(Formal),2021.2.3,Win32,60.97560976,,,,,,,,,,,,,,,,,,,,,,,,,,,,,,,,,,,,,,,,,,,,,,,,,,,,其他,e,,,e,1,0.7844,0,47,47,59,1,,
,,,,,,,,,,,,,,1,001,2025-01-12_12h42.31.630,IAT(Formal),2021.2.3,Win32,60.97560976,,,,,,,,,,,,,,,,,,,,,,,,,,,,,,,,,,,,,,,,,,,,,,,,,,,,勤奋,e,,,e,1,0.4936,0,48,48,18,1,,
,,,,,,,,,,,,,,1,001,2025-01-12_12h42.31.630,IAT(Formal),2021.2.3,Win32,60.97560976,,,,,,,,,,,,,,,,,,,,,,,,,,,,,,,,,,,,,,,,,,,,,,,,,,,,诚恳,e,,,e,1,0.7339,0,49,49,29,1,,
,,,,,,,,,,,,,,1,001,2025-01-12_12h42.31.630,IAT(Formal),2021.2.3,Win32,60.97560976,,,,,,,,,,,,,,,,,,,,,,,,,,,,,,,,,,,,,,,,,,,,,,,,,,,,我们,i,,,i,1,0.9802,0,50,50,2,1,,
,,,,,,,,,,,,,,1,001,2025-01-12_12h42.31.630,IAT(Formal),2021.2.3,Win32,60.97560976,,,,,,,,,,,,,,,,,,,,,,,,,,,,,,,,,,,,,,,,,,,,,,,,,,,,他人,e,,,e,1,1.2146,0,51,51,58,1,,
,,,,,,,,,,,,,,1,001,2025-01-12_12h42.31.630,IAT(Formal),2021.2.3,Win32,60.97560976,,,,,,,,,,,,,,,,,,,,,,,,,,,,,,,,,,,,,,,,,,,,,,,,,,,,其他,e,,,e,1,0.5827,0,52,52,9,1,,
,,,,,,,,,,,,,,1,001,2025-01-12_12h42.31.630,IAT(Formal),2021.2.3,Win32,60.97560976,,,,,,,,,,,,,,,,,,,,,,,,,,,,,,,,,,,,,,,,,,,,,,,,,,,,我们,i,,,i,1,0.716,0,53,53,72,1,,
,,,,,,,,,,,,,,1,001,2025-01-12_12h42.31.630,IAT(Formal),2021.2.3,Win32,60.97560976,,,,,,,,,,,,,,,,,,,,,,,,,,,,,,,,,,,,,,,,,,,,,,,,,,,,冒失,i,,,e,0,1.4328,0,54,54,39,1,,
,,,,,,,,,,,,,,1,001,2025-01-12_12h42.31.630,IAT(Formal),2021.2.3,Win32,60.97560976,,,,,,,,,,,,,,,,,,,,,,,,,,,,,,,,,,,,,,,,,,,,,,,,,,,,他,e,,,e,1,0.4971,0,55,55,5,1,,
,,,,,,,,,,,,,,1,001,2025-01-12_12h42.31.630,IAT(Formal),2021.2.3,Win32,60.97560976,,,,,,,,,,,,,,,,,,,,,,,,,,,,,,,,,,,,,,,,,,,,,,,,,,,,自私,i,,,i,1,0.5812,0,56,56,43,1,,
,,,,,,,,,,,,,,1,001,2025-01-12_12h42.31.630,IAT(Formal),2021.2.3,Win32,60.97560976,,,,,,,,,,,,,,,,,,,,,,,,,,,,,,,,,,,,,,,,,,,,,,,,,,,,虚伪,i,,,i,1,0.4179,0,57,57,31,1,,
,,,,,,,,,,,,,,1,001,2025-01-12_12h42.31.630,IAT(Formal),2021.2.3,Win32,60.97560976,,,,,,,,,,,,,,,,,,,,,,,,,,,,,,,,,,,,,,,,,,,,,,,,,,,,他的,e,,,e,1,0.5979,0,58,58,7,1,,
,,,,,,,,,,,,,,1,001,2025-01-12_12h42.31.630,IAT(Formal),2021.2.3,Win32,60.97560976,,,,,,,,,,,,,,,,,,,,,,,,,,,,,,,,,,,,,,,,,,,,,,,,,,,,下贱,i,,,i,1,0.8635,0,59,59,49,1,,
,,,,,,,,,,,,,,1,001,2025-01-12_12h42.31.630,IAT(Formal),2021.2.3,Win32,60.97560976,,,,,,,,,,,,,,,,,,,,,,,,,,,,,,,,,,,,,,,,,,,,,,,,,,,,我们,i,,,e,0,0.615,0,60,60,62,1,,
,,,,,,,,,,,,,,1,001,2025-01-12_12h42.31.630,IAT(Formal),2021.2.3,Win32,60.97560976,,,,,,,,,,,,,,,,,,,,,,,,,,,,,,,,,,,,,,,,,,,,,,,,,,,,我的,i,,,i,1,0.468,0,61,61,51,1,,
,,,,,,,,,,,,,,1,001,2025-01-12_12h42.31.630,IAT(Formal),2021.2.3,Win32,60.97560976,,,,,,,,,,,,,,,,,,,,,,,,,,,,,,,,,,,,,,,,,,,,,,,,,,,,俺,i,,,i,1,0.5106,0,62,62,4,1,,
,,,,,,,,,,,,,,1,001,2025-01-12_12h42.31.630,IAT(Formal),2021.2.3,Win32,60.97560976,,,,,,,,,,,,,,,,,,,,,,,,,,,,,,,,,,,,,,,,,,,,,,,,,,,,他的,e,,,e,1,0.9836,0,63,63,67,1,,
,,,,,,,,,,,,,,1,001,2025-01-12_12h42.31.630,IAT(Formal),2021.2.3,Win32,60.97560976,,,,,,,,,,,,,,,,,,,,,,,,,,,,,,,,,,,,,,,,,,,,,,,,,,,,我的,i,,,i,1,0.5377,0,64,64,1,1,,
,,,,,,,,,,,,,,1,001,2025-01-12_12h42.31.630,IAT(Formal),2021.2.3,Win32,60.97560976,,,,,,,,,,,,,,,,,,,,,,,,,,,,,,,,,,,,,,,,,,,,,,,,,,,,我,i,,,i,1,0.5336,0,65,65,50,1,,
,,,,,,,,,,,,,,1,001,2025-01-12_12h42.31.630,IAT(Formal),2021.2.3,Win32,60.97560976,,,,,,,,,,,,,,,,,,,,,,,,,,,,,,,,,,,,,,,,,,,,,,,,,,,,他人,e,,,e,1,0.4454,0,66,66,78,1,,
,,,,,,,,,,,,,,1,001,2025-01-12_12h42.31.630,IAT(Formal),2021.2.3,Win32,60.97560976,,,,,,,,,,,,,,,,,,,,,,,,,,,,,,,,,,,,,,,,,,,,,,,,,,,,他们,e,,,e,1,0.5011,0,67,67,6,1,,
,,,,,,,,,,,,,,1,001,2025-01-12_12h42.31.630,IAT(Formal),2021.2.3,Win32,60.97560976,,,,,,,,,,,,,,,,,,,,,,,,,,,,,,,,,,,,,,,,,,,,,,,,,,,,鲁莽,i,,,i,1,1.1104,0,68,68,38,1,,
,,,,,,,,,,,,,,1,001,2025-01-12_12h42.31.630,IAT(Formal),2021.2.3,Win32,60.97560976,,,,,,,,,,,,,,,,,,,,,,,,,,,,,,,,,,,,,,,,,,,,,,,,,,,,俺,i,,,i,1,0.5307,0,69,69,74,1,,
,,,,,,,,,,,,,,1,001,2025-01-12_12h42.31.630,IAT(Formal),2021.2.3,Win32,60.97560976,,,,,,,,,,,,,,,,,,,,,,,,,,,,,,,,,,,,,,,,,,,,,,,,,,,,悲观,i,,,i,1,0.5827,0,70,70,34,1,,
,,,,,,,,,,,,,,1,001,2025-01-12_12h42.31.630,IAT(Formal),2021.2.3,Win32,60.97560976,,,,,,,,,,,,,,,,,,,,,,,,,,,,,,,,,,,,,,,,,,,,,,,,,,,,乐观,e,,,i,0,0.6001,0,71,71,14,1,,
,,,,,,,,,,,,,,1,001,2025-01-12_12h42.31.630,IAT(Formal),2021.2.3,Win32,60.97560976,,,,,,,,,,,,,,,,,,,,,,,,,,,,,,,,,,,,,,,,,,,,,,,,,,,,俺,i,,,i,1,0.5462,0,72,72,54,1,,
,,,,,,,,,,,,,,1,001,2025-01-12_12h42.31.630,IAT(Formal),2021.2.3,Win32,60.97560976,,,,,,,,,,,,,,,,,,,,,,,,,,,,,,,,,,,,,,,,,,,,,,,,,,,,我,i,,,i,1,0.5952,0,73,73,60,1,,
,,,,,,,,,,,,,,1,001,2025-01-12_12h42.31.630,IAT(Formal),2021.2.3,Win32,60.97560976,,,,,,,,,,,,,,,,,,,,,,,,,,,,,,,,,,,,,,,,,,,,,,,,,,,,愚蠢,i,,,i,1,0.8419,0,74,74,32,1,,
,,,,,,,,,,,,,,1,001,2025-01-12_12h42.31.630,IAT(Formal),2021.2.3,Win32,60.97560976,,,,,,,,,,,,,,,,,,,,,,,,,,,,,,,,,,,,,,,,,,,,,,,,,,,,自己,i,,,i,1,0.555,0,75,75,53,1,,
,,,,,,,,,,,,,,1,001,2025-01-12_12h42.31.630,IAT(Formal),2021.2.3,Win32,60.97560976,,,,,,,,,,,,,,,,,,,,,,,,,,,,,,,,,,,,,,,,,,,,,,,,,,,,我,i,,,i,1,0.4238,0,76,76,0,1,,
,,,,,,,,,,,,,,1,001,2025-01-12_12h42.31.630,IAT(Formal),2021.2.3,Win32,60.97560976,,,,,,,,,,,,,,,,,,,,,,,,,,,,,,,,,,,,,,,,,,,,,,,,,,,,猖狂,i,,,i,1,0.7148,0,77,77,45,1,,
,,,,,,,,,,,,,,1,001,2025-01-12_12h42.31.630,IAT(Formal),2021.2.3,Win32,60.97560976,,,,,,,,,,,,,,,,,,,,,,,,,,,,,,,,,,,,,,,,,,,,,,,,,,,,我的,i,,,i,1,0.4438,0,78,78,71,1,,
,,,,,,,,,,,,,,1,001,2025-01-12_12h42.31.630,IAT(Formal),2021.2.3,Win32,60.97560976,,,,,,,,,,,,,,,,,,,,,,,,,,,,,,,,,,,,,,,,,,,,,,,,,,,,认真,e,,,e,1,0.9218,0,79,79,20,1,,
,,,,,,,,,,,,,,1,001,2025-01-12_12h42.31.630,IAT(Formal),2021.2.3,Win32,60.97560976,,,,,,,,,,,,,,,,,,,,,,,,,,,,,,,,,,,,,,,,,,,,,,,,,,,,乐观,e,,,i,0,0.817,1,0,80,14,1,,
,,,,,,,,,,,,,,1,001,2025-01-12_12h42.31.630,IAT(Formal),2021.2.3,Win32,60.97560976,,,,,,,,,,,,,,,,,,,,,,,,,,,,,,,,,,,,,,,,,,,,,,,,,,,,他,e,,,e,1,0.7229,1,1,81,75,1,,
,,,,,,,,,,,,,,1,001,2025-01-12_12h42.31.630,IAT(Formal),2021.2.3,Win32,60.97560976,,,,,,,,,,,,,,,,,,,,,,,,,,,,,,,,,,,,,,,,,,,,,,,,,,,,他们,e,,,e,1,0.4948,1,2,82,76,1,,
,,,,,,,,,,,,,,1,001,2025-01-12_12h42.31.630,IAT(Formal),2021.2.3,Win32,60.97560976,,,,,,,,,,,,,,,,,,,,,,,,,,,,,,,,,,,,,,,,,,,,,,,,,,,,下贱,i,,,,0,,1,3,83,49,1,,
,,,,,,,,,,,,,,1,001,2025-01-12_12h42.31.630,IAT(Formal),2021.2.3,Win32,60.97560976,,,,,,,,,,,,,,,,,,,,,,,,,,,,,,,,,,,,,,,,,,,,,,,,,,,,他的,e,,,e,1,0.8543,1,4,84,67,1,,
,,,,,,,,,,,,,,1,001,2025-01-12_12h42.31.630,IAT(Formal),2021.2.3,Win32,60.97560976,,,,,,,,,,,,,,,,,,,,,,,,,,,,,,,,,,,,,,,,,,,,,,,,,,,,他,e,,,e,1,0.4651,1,5,85,55,1,,
,,,,,,,,,,,,,,1,001,2025-01-12_12h42.31.630,IAT(Formal),2021.2.3,Win32,60.97560976,,,,,,,,,,,,,,,,,,,,,,,,,,,,,,,,,,,,,,,,,,,,,,,,,,,,他的,e,,,e,1,0.4994,1,6,86,57,1,,
,,,,,,,,,,,,,,1,001,2025-01-12_12h42.31.630,IAT(Formal),2021.2.3,Win32,60.97560976,,,,,,,,,,,,,,,,,,,,,,,,,,,,,,,,,,,,,,,,,,,,,,,,,,,,我们,i,,,i,1,0.6816,1,7,87,2,1,,
,,,,,,,,,,,,,,1,001,2025-01-12_12h42.31.630,IAT(Formal),2021.2.3,Win32,60.97560976,,,,,,,,,,,,,,,,,,,,,,,,,,,,,,,,,,,,,,,,,,,,,,,,,,,,他人,e,,,i,0,0.4813,1,8,88,68,1,,
,,,,,,,,,,,,,,1,001,2025-01-12_12h42.31.630,IAT(Formal),2021.2.3,Win32,60.97560976,,,,,,,,,,,,,,,,,,,,,,,,,,,,,,,,,,,,,,,,,,,,,,,,,,,,杰出,e,,,i,0,0.6517,1,9,89,13,1,,
,,,,,,,,,,,,,,1,001,2025-01-12_12h42.31.630,IAT(Formal),2021.2.3,Win32,60.97560976,,,,,,,,,,,,,,,,,,,,,,,,,,,,,,,,,,,,,,,,,,,,,,,,,,,,我们,i,,,e,0,0.5441,1,10,90,72,1,,
,,,,,,,,,,,,,,1,001,2025-01-12_12h42.31.630,IAT(Formal),2021.2.3,Win32,60.97560976,,,,,,,,,,,,,,,,,,,,,,,,,,,,,,,,,,,,,,,,,,,,,,,,,,,,消极,i,,,i,1,0.6655,1,11,91,35,1,,
,,,,,,,,,,,,,,1,001,2025-01-12_12h42.31.630,IAT(Formal),2021.2.3,Win32,60.97560976,,,,,,,,,,,,,,,,,,,,,,,,,,,,,,,,,,,,,,,,,,,,,,,,,,,,刻薄,i,,,i,1,0.5476,1,12,92,33,1,,
,,,,,,,,,,,,,,1,001,2025-01-12_12h42.31.630,IAT(Formal),2021.2.3,Win32,60.97560976,,,,,,,,,,,,,,,,,,,,,,,,,,,,,,,,,,,,,,,,,,,,,,,,,,,,自卑,i,,,i,1,0.5681,1,13,93,36,1,,
,,,,,,,,,,,,,,1,001,2025-01-12_12h42.31.630,IAT(Formal),2021.2.3,Win32,60.97560976,,,,,,,,,,,,,,,,,,,,,,,,,,,,,,,,,,,,,,,,,,,,,,,,,,,,俺,i,,,i,1,0.6521,1,14,94,74,1,,
,,,,,,,,,,,,,,1,001,2025-01-12_12h42.31.630,IAT(Formal),2021.2.3,Win32,60.97560976,,,,,,,,,,,,,,,,,,,,,,,,,,,,,,,,,,,,,,,,,,,,,,,,,,,,我,i,,,i,1,0.414,1,15,95,60,1,,
,,,,,,,,,,,,,,1,001,2025-01-12_12h42.31.630,IAT(Formal),2021.2.3,Win32,60.97560976,,,,,,,,,,,,,,,,,,,,,,,,,,,,,,,,,,,,,,,,,,,,,,,,,,,,固执,i,,,i,1,0.6197,1,16,96,47,1,,
,,,,,,,,,,,,,,1,001,2025-01-12_12h42.31.630,IAT(Formal),2021.2.3,Win32,60.97560976,,,,,,,,,,,,,,,,,,,,,,,,,,,,,,,,,,,,,,,,,,,,,,,,,,,,俺,i,,,i,1,0.5928,1,17,97,4,1,,
,,,,,,,,,,,,,,1,001,2025-01-12_12h42.31.630,IAT(Formal),2021.2.3,Win32,60.97560976,,,,,,,,,,,,,,,,,,,,,,,,,,,,,,,,,,,,,,,,,,,,,,,,,,,,无私,e,,,e,1,0.6776,1,18,98,22,1,,
,,,,,,,,,,,,,,1,001,2025-01-12_12h42.31.630,IAT(Formal),2021.2.3,Win32,60.97560976,,,,,,,,,,,,,,,,,,,,,,,,,,,,,,,,,,,,,,,,,,,,,,,,,,,,他们,e,,,e,1,0.6179,1,19,99,66,1,,
,,,,,,,,,,,,,,1,001,2025-01-12_12h42.31.630,IAT(Formal),2021.2.3,Win32,60.97560976,,,,,,,,,,,,,,,,,,,,,,,,,,,,,,,,,,,,,,,,,,,,,,,,,,,,正直,e,,,e,1,0.8162,1,20,100,16,1,,
,,,,,,,,,,,,,,1,001,2025-01-12_12h42.31.630,IAT(Formal),2021.2.3,Win32,60.97560976,,,,,,,,,,,,,,,,,,,,,,,,,,,,,,,,,,,,,,,,,,,,,,,,,,,,我,i,,,e,0,0.4216,1,21,101,70,1,,
,,,,,,,,,,,,,,1,001,2025-01-12_12h42.31.630,IAT(Formal),2021.2.3,Win32,60.97560976,,,,,,,,,,,,,,,,,,,,,,,,,,,,,,,,,,,,,,,,,,,,,,,,,,,,愚蠢,i,,,i,1,0.7012,1,22,102,32,1,,
,,,,,,,,,,,,,,1,001,2025-01-12_12h42.31.630,IAT(Formal),2021.2.3,Win32,60.97560976,,,,,,,,,,,,,,,,,,,,,,,,,,,,,,,,,,,,,,,,,,,,,,,,,,,,他们,e,,,e,1,0.7937,1,23,103,6,1,,
,,,,,,,,,,,,,,1,001,2025-01-12_12h42.31.630,IAT(Formal),2021.2.3,Win32,60.97560976,,,,,,,,,,,,,,,,,,,,,,,,,,,,,,,,,,,,,,,,,,,,,,,,,,,,其他,e,,,e,1,0.4771,1,24,104,59,1,,
,,,,,,,,,,,,,,1,001,2025-01-12_12h42.31.630,IAT(Formal),2021.2.3,Win32,60.97560976,,,,,,,,,,,,,,,,,,,,,,,,,,,,,,,,,,,,,,,,,,,,,,,,,,,,傲慢,i,,,i,1,0.967,1,25,105,37,1,,
,,,,,,,,,,,,,,1,001,2025-01-12_12h42.31.630,IAT(Formal),2021.2.3,Win32,60.97560976,,,,,,,,,,,,,,,,,,,,,,,,,,,,,,,,,,,,,,,,,,,,,,,,,,,,诚实,e,,,e,1,0.8352,1,26,106,15,1,,
,,,,,,,,,,,,,,1,001,2025-01-12_12h42.31.630,IAT(Formal),2021.2.3,Win32,60.97560976,,,,,,,,,,,,,,,,,,,,,,,,,,,,,,,,,,,,,,,,,,,,,,,,,,,,自己,i,,,i,1,0.6375,1,27,107,3,1,,
,,,,,,,,,,,,,,1,001,2025-01-12_12h42.31.630,IAT(Formal),2021.2.3,Win32,60.97560976,,,,,,,,,,,,,,,,,,,,,,,,,,,,,,,,,,,,,,,,,,,,,,,,,,,,野蛮,i,,,i,1,0.9516,1,28,108,46,1,,
,,,,,,,,,,,,,,1,001,2025-01-12_12h42.31.630,IAT(Formal),2021.2.3,Win32,60.97560976,,,,,,,,,,,,,,,,,,,,,,,,,,,,,,,,,,,,,,,,,,,,,,,,,,,,我的,i,,,i,1,0.6334,1,29,109,61,1,,
,,,,,,,,,,,,,,1,001,2025-01-12_12h42.31.630,IAT(Formal),2021.2.3,Win32,60.97560976,,,,,,,,,,,,,,,,,,,,,,,,,,,,,,,,,,,,,,,,,,,,,,,,,,,,认真,e,,,,0,,1,30,110,20,1,,
,,,,,,,,,,,,,,1,001,2025-01-12_12h42.31.630,IAT(Formal),2021.2.3,Win32,60.97560976,,,,,,,,,,,,,,,,,,,,,,,,,,,,,,,,,,,,,,,,,,,,,,,,,,,,勇敢,e,,,e,1,0.8335,1,31,111,17,1,,
,,,,,,,,,,,,,,1,001,2025-01-12_12h42.31.630,IAT(Formal),2021.2.3,Win32,60.97560976,,,,,,,,,,,,,,,,,,,,,,,,,,,,,,,,,,,,,,,,,,,,,,,,,,,,他,e,,,i,0,0.6179,1,32,112,5,1,,
,,,,,,,,,,,,,,1,001,2025-01-12_12h42.31.630,IAT(Formal),2021.2.3,Win32,60.97560976,,,,,,,,,,,,,,,,,,,,,,,,,,,,,,,,,,,,,,,,,,,,,,,,,,,,俺,i,,,e,0,0.4684,1,33,113,54,1,,
,,,,,,,,,,,,,,1,001,2025-01-12_12h42.31.630,IAT(Formal),2021.2.3,Win32,60.97560976,,,,,,,,,,,,,,,,,,,,,,,,,,,,,,,,,,,,,,,,,,,,,,,,,,,,聪明,e,,,e,1,0.7513,1,34,114,12,1,,
,,,,,,,,,,,,,,1,001,2025-01-12_12h42.31.630,IAT(Formal),2021.2.3,Win32,60.97560976,,,,,,,,,,,,,,,,,,,,,,,,,,,,,,,,,,,,,,,,,,,,,,,,,,,,我的,i,,,i,1,0.9839,1,35,115,71,1,,
,,,,,,,,,,,,,,1,001,2025-01-12_12h42.31.630,IAT(Formal),2021.2.3,Win32,60.97560976,,,,,,,,,,,,,,,,,,,,,,,,,,,,,,,,,,,,,,,,,,,,,,,,,,,,卑鄙,i,,,i,1,0.6505,1,36,116,30,1,,
,,,,,,,,,,,,,,1,001,2025-01-12_12h42.31.630,IAT(Formal),2021.2.3,Win32,60.97560976,,,,,,,,,,,,,,,,,,,,,,,,,,,,,,,,,,,,,,,,,,,,,,,,,,,,我的,i,,,i,1,0.5514,1,37,117,1,1,,
,,,,,,,,,,,,,,1,001,2025-01-12_12h42.31.630,IAT(Formal),2021.2.3,Win32,60.97560976,,,,,,,,,,,,,,,,,,,,,,,,,,,,,,,,,,,,,,,,,,,,,,,,,,,,勤奋,e,,,e,1,0.5161,1,38,118,18,1,,
,,,,,,,,,,,,,,1,001,2025-01-12_12h42.31.630,IAT(Formal),2021.2.3,Win32,60.97560976,,,,,,,,,,,,,,,,,,,,,,,,,,,,,,,,,,,,,,,,,,,,,,,,,,,,公正,e,,,e,1,0.5024,1,39,119,23,1,,
,,,,,,,,,,,,,,1,001,2025-01-12_12h42.31.630,IAT(Formal),2021.2.3,Win32,60.97560976,,,,,,,,,,,,,,,,,,,,,,,,,,,,,,,,,,,,,,,,,,,,,,,,,,,,猖狂,i,,,i,1,0.5672,1,40,120,45,1,,
,,,,,,,,,,,,,,1,001,2025-01-12_12h42.31.630,IAT(Formal),2021.2.3,Win32,60.97560976,,,,,,,,,,,,,,,,,,,,,,,,,,,,,,,,,,,,,,,,,,,,,,,,,,,,他人,e,,,e,1,0.705,1,41,121,78,1,,
,,,,,,,,,,,,,,1,001,2025-01-12_12h42.31.630,IAT(Formal),2021.2.3,Win32,60.97560976,,,,,,,,,,,,,,,,,,,,,,,,,,,,,,,,,,,,,,,,,,,,,,,,,,,,热情,e,,,e,1,0.685,1,42,122,27,1,,
,,,,,,,,,,,,,,1,001,2025-01-12_12h42.31.630,IAT(Formal),2021.2.3,Win32,60.97560976,,,,,,,,,,,,,,,,,,,,,,,,,,,,,,,,,,,,,,,,,,,,,,,,,,,,活泼,e,,,e,1,0.7339,1,43,123,28,1,,
,,,,,,,,,,,,,,1,001,2025-01-12_12h42.31.630,IAT(Formal),2021.2.3,Win32,60.97560976,,,,,,,,,,,,,,,,,,,,,,,,,,,,,,,,,,,,,,,,,,,,,,,,,,,,我,i,,,i,1,0.7513,1,44,124,50,1,,
,,,,,,,,,,,,,,1,001,2025-01-12_12h42.31.630,IAT(Formal),2021.2.3,Win32,60.97560976,,,,,,,,,,,,,,,,,,,,,,,,,,,,,,,,,,,,,,,,,,,,,,,,,,,,悲观,i,,,e,0,0.6752,1,45,125,34,1,,
,,,,,,,,,,,,,,1,001,2025-01-12_12h42.31.630,IAT(Formal),2021.2.3,Win32,60.97560976,,,,,,,,,,,,,,,,,,,,,,,,,,,,,,,,,,,,,,,,,,,,,,,,,,,,凶狠,i,,,i,1,0.6667,1,46,126,42,1,,
,,,,,,,,,,,,,,1,001,2025-01-12_12h42.31.630,IAT(Formal),2021.2.3,Win32,60.97560976,,,,,,,,,,,,,,,,,,,,,,,,,,,,,,,,,,,,,,,,,,,,,,,,,,,,我们,i,,,i,1,0.6768,1,47,127,62,1,,
,,,,,,,,,,,,,,1,001,2025-01-12_12h42.31.630,IAT(Formal),2021.2.3,Win32,60.97560976,,,,,,,,,,,,,,,,,,,,,,,,,,,,,,,,,,,,,,,,,,,,,,,,,,,,崇高,e,,,e,1,0.6519,1,48,128,11,1,,
,,,,,,,,,,,,,,1,001,2025-01-12_12h42.31.630,IAT(Formal),2021.2.3,Win32,60.97560976,,,,,,,,,,,,,,,,,,,,,,,,,,,,,,,,,,,,,,,,,,,,,,,,,,,,诚恳,e,,,e,1,1.1069,1,49,129,29,1,,
,,,,,,,,,,,,,,1,001,2025-01-12_12h42.31.630,IAT(Formal),2021.2.3,Win32,60.97560976,,,,,,,,,,,,,,,,,,,,,,,,,,,,,,,,,,,,,,,,,,,,,,,,,,,,其他,e,,,e,1,0.668,1,50,130,9,1,,
,,,,,,,,,,,,,,1,001,2025-01-12_12h42.31.630,IAT(Formal),2021.2.3,Win32,60.97560976,,,,,,,,,,,,,,,,,,,,,,,,,,,,,,,,,,,,,,,,,,,,,,,,,,,,稳重,e,,,e,1,0.5684,1,51,131,21,1,,
,,,,,,,,,,,,,,1,001,2025-01-12_12h42.31.630,IAT(Formal),2021.2.3,Win32,60.97560976,,,,,,,,,,,,,,,,,,,,,,,,,,,,,,,,,,,,,,,,,,,,,,,,,,,,鲁莽,i,,,i,1,0.6188,1,52,132,38,1,,
,,,,,,,,,,,,,,1,001,2025-01-12_12h42.31.630,IAT(Formal),2021.2.3,Win32,60.97560976,,,,,,,,,,,,,,,,,,,,,,,,,,,,,,,,,,,,,,,,,,,,,,,,,,,,朴实,e,,,e,1,0.6003,1,53,133,24,1,,
,,,,,,,,,,,,,,1,001,2025-01-12_12h42.31.630,IAT(Formal),2021.2.3,Win32,60.97560976,,,,,,,,,,,,,,,,,,,,,,,,,,,,,,,,,,,,,,,,,,,,,,,,,,,,自己,i,,,e,0,0.5313,1,54,134,73,1,,
,,,,,,,,,,,,,,1,001,2025-01-12_12h42.31.630,IAT(Formal),2021.2.3,Win32,60.97560976,,,,,,,,,,,,,,,,,,,,,,,,,,,,,,,,,,,,,,,,,,,,,,,,,,,,自己,i,,,i,1,0.5667,1,55,135,53,1,,
,,,,,,,,,,,,,,1,001,2025-01-12_12h42.31.630,IAT(Formal),2021.2.3,Win32,60.97560976,,,,,,,,,,,,,,,,,,,,,,,,,,,,,,,,,,,,,,,,,,,,,,,,,,,,他,e,,,e,1,0.7012,1,56,136,65,1,,
,,,,,,,,,,,,,,1,001,2025-01-12_12h42.31.630,IAT(Formal),2021.2.3,Win32,60.97560976,,,,,,,,,,,,,,,,,,,,,,,,,,,,,,,,,,,,,,,,,,,,,,,,,,,,我,i,,,i,1,0.5069,1,57,137,0,1,,
,,,,,,,,,,,,,,1,001,2025-01-12_12h42.31.630,IAT(Formal),2021.2.3,Win32,60.97560976,,,,,,,,,,,,,,,,,,,,,,,,,,,,,,,,,,,,,,,,,,,,,,,,,,,,我的,i,,,i,1,0.5847,1,58,138,51,1,,
,,,,,,,,,,,,,,1,001,2025-01-12_12h42.31.630,IAT(Formal),2021.2.3,Win32,60.97560976,,,,,,,,,,,,,,,,,,,,,,,,,,,,,,,,,,,,,,,,,,,,,,,,,,,,细腻,e,,,e,1,0.6657,1,59,139,25,1,,
,,,,,,,,,,,,,,1,001,2025-01-12_12h42.31.630,IAT(Formal),2021.2.3,Win32,60.97560976,,,,,,,,,,,,,,,,,,,,,,,,,,,,,,,,,,,,,,,,,,,,,,,,,,,,俺,i,,,i,1,0.7359,1,60,140,64,1,,
,,,,,,,,,,,,,,1,001,2025-01-12_12h42.31.630,IAT(Formal),2021.2.3,Win32,60.97560976,,,,,,,,,,,,,,,,,,,,,,,,,,,,,,,,,,,,,,,,,,,,,,,,,,,,散漫,i,,,i,1,0.9176,1,61,141,41,1,,
,,,,,,,,,,,,,,1,001,2025-01-12_12h42.31.630,IAT(Formal),2021.2.3,Win32,60.97560976,,,,,,,,,,,,,,,,,,,,,,,,,,,,,,,,,,,,,,,,,,,,,,,,,,,,他们,e,,,e,1,0.5505,1,62,142,56,1,,
,,,,,,,,,,,,,,1,001,2025-01-12_12h42.31.630,IAT(Formal),2021.2.3,Win32,60.97560976,,,,,,,,,,,,,,,,,,,,,,,,,,,,,,,,,,,,,,,,,,,,,,,,,,,,暴躁,i,,,i,1,0.7342,1,63,143,44,1,,
,,,,,,,,,,,,,,1,001,2025-01-12_12h42.31.630,IAT(Formal),2021.2.3,Win32,60.97560976,,,,,,,,,,,,,,,,,,,,,,,,,,,,,,,,,,,,,,,,,,,,,,,,,,,,他人,e,,,e,1,0.4972,1,64,144,58,1,,
,,,,,,,,,,,,,,1,001,2025-01-12_12h42.31.630,IAT(Formal),2021.2.3,Win32,60.97560976,,,,,,,,,,,,,,,,,,,,,,,,,,,,,,,,,,,,,,,,,,,,,,,,,,,,他人,e,,,e,1,0.651,1,65,145,8,1,,
,,,,,,,,,,,,,,1,001,2025-01-12_12h42.31.630,IAT(Formal),2021.2.3,Win32,60.97560976,,,,,,,,,,,,,,,,,,,,,,,,,,,,,,,,,,,,,,,,,,,,,,,,,,,,轻率,i,,,i,1,0.8524,1,66,146,48,1,,
,,,,,,,,,,,,,,1,001,2025-01-12_12h42.31.630,IAT(Formal),2021.2.3,Win32,60.97560976,,,,,,,,,,,,,,,,,,,,,,,,,,,,,,,,,,,,,,,,,,,,,,,,,,,,其他,e,,,e,1,0.6168,1,67,147,79,1,,
,,,,,,,,,,,,,,1,001,2025-01-12_12h42.31.630,IAT(Formal),2021.2.3,Win32,60.97560976,,,,,,,,,,,,,,,,,,,,,,,,,,,,,,,,,,,,,,,,,,,,,,,,,,,,冷静,e,,,i,0,0.7007,1,68,148,26,1,,
,,,,,,,,,,,,,,1,001,2025-01-12_12h42.31.630,IAT(Formal),2021.2.3,Win32,60.97560976,,,,,,,,,,,,,,,,,,,,,,,,,,,,,,,,,,,,,,,,,,,,,,,,,,,,他的,e,,,e,1,0.7077,1,69,149,77,1,,
,,,,,,,,,,,,,,1,001,2025-01-12_12h42.31.630,IAT(Formal),2021.2.3,Win32,60.97560976,,,,,,,,,,,,,,,,,,,,,,,,,,,,,,,,,,,,,,,,,,,,,,,,,,,,冒失,i,,,i,1,0.7025,1,70,150,39,1,,
,,,,,,,,,,,,,,1,001,2025-01-12_12h42.31.630,IAT(Formal),2021.2.3,Win32,60.97560976,,,,,,,,,,,,,,,,,,,,,,,,,,,,,,,,,,,,,,,,,,,,,,,,,,,,其他,e,,,i,0,0.5661,1,71,151,69,1,,
,,,,,,,,,,,,,,1,001,2025-01-12_12h42.31.630,IAT(Formal),2021.2.3,Win32,60.97560976,,,,,,,,,,,,,,,,,,,,,,,,,,,,,,,,,,,,,,,,,,,,,,,,,,,,自私,i,,,i,1,0.5566,1,72,152,43,1,,
,,,,,,,,,,,,,,1,001,2025-01-12_12h42.31.630,IAT(Formal),2021.2.3,Win32,60.97560976,,,,,,,,,,,,,,,,,,,,,,,,,,,,,,,,,,,,,,,,,,,,,,,,,,,,自己,i,,,i,1,0.6267,1,73,153,63,1,,
,,,,,,,,,,,,,,1,001,2025-01-12_12h42.31.630,IAT(Formal),2021.2.3,Win32,60.97560976,,,,,,,,,,,,,,,,,,,,,,,,,,,,,,,,,,,,,,,,,,,,,,,,,,,,我们,i,,,i,1,0.5206,1,74,154,52,1,,
,,,,,,,,,,,,,,1,001,2025-01-12_12h42.31.630,IAT(Formal),2021.2.3,Win32,60.97560976,,,,,,,,,,,,,,,,,,,,,,,,,,,,,,,,,,,,,,,,,,,,,,,,,,,,执拗,i,,,i,1,0.617,1,75,155,40,1,,
,,,,,,,,,,,,,,1,001,2025-01-12_12h42.31.630,IAT(Formal),2021.2.3,Win32,60.97560976,,,,,,,,,,,,,,,,,,,,,,,,,,,,,,,,,,,,,,,,,,,,,,,,,,,,虚伪,i,,,i,1,0.5308,1,76,156,31,1,,
,,,,,,,,,,,,,,1,001,2025-01-12_12h42.31.630,IAT(Formal),2021.2.3,Win32,60.97560976,,,,,,,,,,,,,,,,,,,,,,,,,,,,,,,,,,,,,,,,,,,,,,,,,,,,他的,e,,,i,0,0.587,1,77,157,7,1,,
,,,,,,,,,,,,,,1,001,2025-01-12_12h42.31.630,IAT(Formal),2021.2.3,Win32,60.97560976,,,,,,,,,,,,,,,,,,,,,,,,,,,,,,,,,,,,,,,,,,,,,,,,,,,,机智,e,,,e,1,0.7851,1,78,158,19,1,,
,,,,,,,,,,,,,,1,001,2025-01-12_12h42.31.630,IAT(Formal),2021.2.3,Win32,60.97560976,,,,,,,,,,,,,,,,,,,,,,,,,,,,,,,,,,,,,,,,,,,,,,,,,,,,优秀,e,,,e,1,0.4992,1,79,159,10,1,,
,,,,,,,,,,,,,,1,001,2025-01-12_12h42.31.630,IAT(Formal),2021.2.3,Win32,60.97560976,,,,,,,,,,,,,,,,,,,,,,,,,,,,,,,,,,,,,,,,,,,,,,,,,,,,,,,,,,,,,,,,space,1.655