﻿Instruction1.keys,Instruction1.rt,Instruction2.keys,Instruction2.rt,key_resp_iso.keys,key_resp_iso.corr,key_resp_iso.rt,Practice_01.thisRepN,Practice_01.thisTrialN,Practice_01.thisN,Practice_01.thisIndex,Practice_01.ran,Words,ans,participant,session,date,expName,psychopyVersion,OS,frameRate,key_resp_3.keys,key_resp_3.rt,key_resp_ipn.keys,key_resp_ipn.corr,key_resp_ipn.rt,Practice_02.thisRepN,Practice_02.thisTrialN,Practice_02.thisN,Practice_02.thisIndex,Practice_02.ran,Words_ipn,ans_ipn,key_resp_4.keys,key_resp_4.rt,key_resp_t1.keys,key_resp_t1.corr,key_resp_t1.rt,Practice_T1.thisRepN,Practice_T1.thisTrialN,Practice_T1.thisN,Practice_T1.thisIndex,Practice_T1.ran,Words_t1,ans_t1,key_resp_5.keys,key_resp_5.rt,Formal_T1.thisRepN,Formal_T1.thisTrialN,Formal_T1.thisN,Formal_T1.thisIndex,Formal_T1.ran,key_resp_6.keys,key_resp_6.rt,key_resp_iso_reverse.keys,key_resp_iso_reverse.corr,key_resp_iso_reverse.rt,Practice_iso_Reverse.thisRepN,Practice_iso_Reverse.thisTrialN,Practice_iso_Reverse.thisN,Practice_iso_Reverse.thisIndex,Practice_iso_Reverse.ran,key_resp_7.keys,key_resp_7.rt,key_resp_t2_Practice.keys,key_resp_t2_Practice.corr,key_resp_t2_Practice.rt,Practice_t2_Reverse.thisRepN,Practice_t2_Reverse.thisTrialN,Practice_t2_Reverse.thisN,Practice_t2_Reverse.thisIndex,Practice_t2_Reverse.ran,Words_t2,ans_t2,key_resp_8.keys,key_resp_8.rt,key_resp_t2.keys,key_resp_t2.corr,Formal_t2_reverse.thisRepN,Formal_t2_reverse.thisTrialN,Formal_t2_reverse.thisN,Formal_t2_reverse.thisIndex,Formal_t2_reverse.ran,key_resp_t2.rt,key_instruct.keys,key_instruct.rt
space,9.5491,space,11.2892,i,1,0.7275,0,0,0,9,1,其他,i,1,001,2025-01-12_22h04.54.172,IAT(Formal),2021.2.3,Win32,59.17159763,,,,,,,,,,,,,,,,,,,,,,,,,,,,,,,,,,,,,,,,,,,,,,,,,,,,,,,,,,,,,,,,,
,,,,i,1,0.8172,0,1,1,6,1,他们,i,1,001,2025-01-12_22h04.54.172,IAT(Formal),2021.2.3,Win32,59.17159763,,,,,,,,,,,,,,,,,,,,,,,,,,,,,,,,,,,,,,,,,,,,,,,,,,,,,,,,,,,,,,,,,
,,,,e,1,0.634,0,2,2,0,1,我,e,1,001,2025-01-12_22h04.54.172,IAT(Formal),2021.2.3,Win32,59.17159763,,,,,,,,,,,,,,,,,,,,,,,,,,,,,,,,,,,,,,,,,,,,,,,,,,,,,,,,,,,,,,,,,
,,,,e,1,0.5589,0,3,3,2,1,我们,e,1,001,2025-01-12_22h04.54.172,IAT(Formal),2021.2.3,Win32,59.17159763,,,,,,,,,,,,,,,,,,,,,,,,,,,,,,,,,,,,,,,,,,,,,,,,,,,,,,,,,,,,,,,,,
,,,,i,1,0.6213,0,4,4,7,1,他的,i,1,001,2025-01-12_22h04.54.172,IAT(Formal),2021.2.3,Win32,59.17159763,,,,,,,,,,,,,,,,,,,,,,,,,,,,,,,,,,,,,,,,,,,,,,,,,,,,,,,,,,,,,,,,,
,,,,e,1,0.8685,0,5,5,1,1,我的,e,1,001,2025-01-12_22h04.54.172,IAT(Formal),2021.2.3,Win32,59.17159763,,,,,,,,,,,,,,,,,,,,,,,,,,,,,,,,,,,,,,,,,,,,,,,,,,,,,,,,,,,,,,,,,
,,,,i,1,0.4212,0,6,6,8,1,他人,i,1,001,2025-01-12_22h04.54.172,IAT(Formal),2021.2.3,Win32,59.17159763,,,,,,,,,,,,,,,,,,,,,,,,,,,,,,,,,,,,,,,,,,,,,,,,,,,,,,,,,,,,,,,,,
,,,,i,1,0.4399,0,7,7,5,1,他,i,1,001,2025-01-12_22h04.54.172,IAT(Formal),2021.2.3,Win32,59.17159763,,,,,,,,,,,,,,,,,,,,,,,,,,,,,,,,,,,,,,,,,,,,,,,,,,,,,,,,,,,,,,,,,
,,,,e,1,0.5943,0,8,8,4,1,俺,e,1,001,2025-01-12_22h04.54.172,IAT(Formal),2021.2.3,Win32,59.17159763,,,,,,,,,,,,,,,,,,,,,,,,,,,,,,,,,,,,,,,,,,,,,,,,,,,,,,,,,,,,,,,,,
,,,,e,1,0.7231,0,9,9,3,1,自己,e,1,001,2025-01-12_22h04.54.172,IAT(Formal),2021.2.3,Win32,59.17159763,,,,,,,,,,,,,,,,,,,,,,,,,,,,,,,,,,,,,,,,,,,,,,,,,,,,,,,,,,,,,,,,,
,,,,,,,,,,,,,,1,001,2025-01-12_22h04.54.172,IAT(Formal),2021.2.3,Win32,59.17159763,space,6.7268,i,1,0.691,0,0,0,21,1,虚伪,i,,,,,,,,,,,,,,,,,,,,,,,,,,,,,,,,,,,,,,,,,,,,,,,,,,,,,
,,,,,,,,,,,,,,1,001,2025-01-12_22h04.54.172,IAT(Formal),2021.2.3,Win32,59.17159763,,,e,1,0.459,0,1,1,4,1,乐观,e,,,,,,,,,,,,,,,,,,,,,,,,,,,,,,,,,,,,,,,,,,,,,,,,,,,,,
,,,,,,,,,,,,,,1,001,2025-01-12_22h04.54.172,IAT(Formal),2021.2.3,Win32,59.17159763,,,i,1,0.5386,0,2,2,23,1,刻薄,i,,,,,,,,,,,,,,,,,,,,,,,,,,,,,,,,,,,,,,,,,,,,,,,,,,,,,
,,,,,,,,,,,,,,1,001,2025-01-12_22h04.54.172,IAT(Formal),2021.2.3,Win32,59.17159763,,,e,1,0.5861,0,3,3,8,1,勤奋,e,,,,,,,,,,,,,,,,,,,,,,,,,,,,,,,,,,,,,,,,,,,,,,,,,,,,,
,,,,,,,,,,,,,,1,001,2025-01-12_22h04.54.172,IAT(Formal),2021.2.3,Win32,59.17159763,,,i,1,1.0585,0,4,4,35,1,猖狂,i,,,,,,,,,,,,,,,,,,,,,,,,,,,,,,,,,,,,,,,,,,,,,,,,,,,,,
,,,,,,,,,,,,,,1,001,2025-01-12_22h04.54.172,IAT(Formal),2021.2.3,Win32,59.17159763,,,e,1,0.8267,0,5,5,10,1,认真,e,,,,,,,,,,,,,,,,,,,,,,,,,,,,,,,,,,,,,,,,,,,,,,,,,,,,,
,,,,,,,,,,,,,,1,001,2025-01-12_22h04.54.172,IAT(Formal),2021.2.3,Win32,59.17159763,,,e,1,0.7485,0,6,6,15,1,细腻,e,,,,,,,,,,,,,,,,,,,,,,,,,,,,,,,,,,,,,,,,,,,,,,,,,,,,,
,,,,,,,,,,,,,,1,001,2025-01-12_22h04.54.172,IAT(Formal),2021.2.3,Win32,59.17159763,,,i,1,0.6414,0,7,7,31,1,散漫,i,,,,,,,,,,,,,,,,,,,,,,,,,,,,,,,,,,,,,,,,,,,,,,,,,,,,,
,,,,,,,,,,,,,,1,001,2025-01-12_22h04.54.172,IAT(Formal),2021.2.3,Win32,59.17159763,,,e,1,0.639,0,8,8,7,1,勇敢,e,,,,,,,,,,,,,,,,,,,,,,,,,,,,,,,,,,,,,,,,,,,,,,,,,,,,,
,,,,,,,,,,,,,,1,001,2025-01-12_22h04.54.172,IAT(Formal),2021.2.3,Win32,59.17159763,,,i,1,0.5925,0,9,9,30,1,执拗,i,,,,,,,,,,,,,,,,,,,,,,,,,,,,,,,,,,,,,,,,,,,,,,,,,,,,,
,,,,,,,,,,,,,,1,001,2025-01-12_22h04.54.172,IAT(Formal),2021.2.3,Win32,59.17159763,,,i,1,0.4577,0,10,10,34,1,暴躁,i,,,,,,,,,,,,,,,,,,,,,,,,,,,,,,,,,,,,,,,,,,,,,,,,,,,,,
,,,,,,,,,,,,,,1,001,2025-01-12_22h04.54.172,IAT(Formal),2021.2.3,Win32,59.17159763,,,i,1,0.5291,0,11,11,28,1,鲁莽,i,,,,,,,,,,,,,,,,,,,,,,,,,,,,,,,,,,,,,,,,,,,,,,,,,,,,,
,,,,,,,,,,,,,,1,001,2025-01-12_22h04.54.172,IAT(Formal),2021.2.3,Win32,59.17159763,,,e,1,0.4404,0,12,12,9,1,机智,e,,,,,,,,,,,,,,,,,,,,,,,,,,,,,,,,,,,,,,,,,,,,,,,,,,,,,
,,,,,,,,,,,,,,1,001,2025-01-12_22h04.54.172,IAT(Formal),2021.2.3,Win32,59.17159763,,,e,0,0.3964,0,13,13,26,1,自卑,i,,,,,,,,,,,,,,,,,,,,,,,,,,,,,,,,,,,,,,,,,,,,,,,,,,,,,
,,,,,,,,,,,,,,1,001,2025-01-12_22h04.54.172,IAT(Formal),2021.2.3,Win32,59.17159763,,,e,1,1.0079,0,14,14,18,1,活泼,e,,,,,,,,,,,,,,,,,,,,,,,,,,,,,,,,,,,,,,,,,,,,,,,,,,,,,
,,,,,,,,,,,,,,1,001,2025-01-12_22h04.54.172,IAT(Formal),2021.2.3,Win32,59.17159763,,,i,1,0.6462,0,15,15,20,1,卑鄙,i,,,,,,,,,,,,,,,,,,,,,,,,,,,,,,,,,,,,,,,,,,,,,,,,,,,,,
,,,,,,,,,,,,,,1,001,2025-01-12_22h04.54.172,IAT(Formal),2021.2.3,Win32,59.17159763,,,e,1,0.6514,0,16,16,19,1,诚恳,e,,,,,,,,,,,,,,,,,,,,,,,,,,,,,,,,,,,,,,,,,,,,,,,,,,,,,
,,,,,,,,,,,,,,1,001,2025-01-12_22h04.54.172,IAT(Formal),2021.2.3,Win32,59.17159763,,,i,1,0.7847,0,17,17,24,1,悲观,i,,,,,,,,,,,,,,,,,,,,,,,,,,,,,,,,,,,,,,,,,,,,,,,,,,,,,
,,,,,,,,,,,,,,1,001,2025-01-12_22h04.54.172,IAT(Formal),2021.2.3,Win32,59.17159763,,,i,1,0.526,0,18,18,27,1,傲慢,i,,,,,,,,,,,,,,,,,,,,,,,,,,,,,,,,,,,,,,,,,,,,,,,,,,,,,
,,,,,,,,,,,,,,1,001,2025-01-12_22h04.54.172,IAT(Formal),2021.2.3,Win32,59.17159763,,,i,1,0.6018,0,19,19,25,1,消极,i,,,,,,,,,,,,,,,,,,,,,,,,,,,,,,,,,,,,,,,,,,,,,,,,,,,,,
,,,,,,,,,,,,,,1,001,2025-01-12_22h04.54.172,IAT(Formal),2021.2.3,Win32,59.17159763,,,i,1,0.5283,0,20,20,32,1,凶狠,i,,,,,,,,,,,,,,,,,,,,,,,,,,,,,,,,,,,,,,,,,,,,,,,,,,,,,
,,,,,,,,,,,,,,1,001,2025-01-12_22h04.54.172,IAT(Formal),2021.2.3,Win32,59.17159763,,,e,1,0.9695,0,21,21,12,1,无私,e,,,,,,,,,,,,,,,,,,,,,,,,,,,,,,,,,,,,,,,,,,,,,,,,,,,,,
,,,,,,,,,,,,,,1,001,2025-01-12_22h04.54.172,IAT(Formal),2021.2.3,Win32,59.17159763,,,e,1,1.0183,0,22,22,16,1,冷静,e,,,,,,,,,,,,,,,,,,,,,,,,,,,,,,,,,,,,,,,,,,,,,,,,,,,,,
,,,,,,,,,,,,,,1,001,2025-01-12_22h04.54.172,IAT(Formal),2021.2.3,Win32,59.17159763,,,i,1,0.5089,0,23,23,38,1,轻率,i,,,,,,,,,,,,,,,,,,,,,,,,,,,,,,,,,,,,,,,,,,,,,,,,,,,,,
,,,,,,,,,,,,,,1,001,2025-01-12_22h04.54.172,IAT(Formal),2021.2.3,Win32,59.17159763,,,e,1,0.8227,0,24,24,17,1,热情,e,,,,,,,,,,,,,,,,,,,,,,,,,,,,,,,,,,,,,,,,,,,,,,,,,,,,,
,,,,,,,,,,,,,,1,001,2025-01-12_22h04.54.172,IAT(Formal),2021.2.3,Win32,59.17159763,,,e,1,0.6611,0,25,25,3,1,杰出,e,,,,,,,,,,,,,,,,,,,,,,,,,,,,,,,,,,,,,,,,,,,,,,,,,,,,,
,,,,,,,,,,,,,,1,001,2025-01-12_22h04.54.172,IAT(Formal),2021.2.3,Win32,59.17159763,,,i,1,0.5744,0,26,26,36,1,野蛮,i,,,,,,,,,,,,,,,,,,,,,,,,,,,,,,,,,,,,,,,,,,,,,,,,,,,,,
,,,,,,,,,,,,,,1,001,2025-01-12_22h04.54.172,IAT(Formal),2021.2.3,Win32,59.17159763,,,e,1,0.7513,0,27,27,13,1,公正,e,,,,,,,,,,,,,,,,,,,,,,,,,,,,,,,,,,,,,,,,,,,,,,,,,,,,,
,,,,,,,,,,,,,,1,001,2025-01-12_22h04.54.172,IAT(Formal),2021.2.3,Win32,59.17159763,,,i,1,0.5908,0,28,28,37,1,固执,i,,,,,,,,,,,,,,,,,,,,,,,,,,,,,,,,,,,,,,,,,,,,,,,,,,,,,
,,,,,,,,,,,,,,1,001,2025-01-12_22h04.54.172,IAT(Formal),2021.2.3,Win32,59.17159763,,,i,1,0.5565,0,29,29,22,1,愚蠢,i,,,,,,,,,,,,,,,,,,,,,,,,,,,,,,,,,,,,,,,,,,,,,,,,,,,,,
,,,,,,,,,,,,,,1,001,2025-01-12_22h04.54.172,IAT(Formal),2021.2.3,Win32,59.17159763,,,e,1,0.4306,0,30,30,2,1,聪明,e,,,,,,,,,,,,,,,,,,,,,,,,,,,,,,,,,,,,,,,,,,,,,,,,,,,,,
,,,,,,,,,,,,,,1,001,2025-01-12_22h04.54.172,IAT(Formal),2021.2.3,Win32,59.17159763,,,e,1,0.5951,0,31,31,5,1,诚实,e,,,,,,,,,,,,,,,,,,,,,,,,,,,,,,,,,,,,,,,,,,,,,,,,,,,,,
,,,,,,,,,,,,,,1,001,2025-01-12_22h04.54.172,IAT(Formal),2021.2.3,Win32,59.17159763,,,e,1,0.5916,0,32,32,14,1,朴实,e,,,,,,,,,,,,,,,,,,,,,,,,,,,,,,,,,,,,,,,,,,,,,,,,,,,,,
,,,,,,,,,,,,,,1,001,2025-01-12_22h04.54.172,IAT(Formal),2021.2.3,Win32,59.17159763,,,i,1,0.4388,0,33,33,33,1,自私,i,,,,,,,,,,,,,,,,,,,,,,,,,,,,,,,,,,,,,,,,,,,,,,,,,,,,,
,,,,,,,,,,,,,,1,001,2025-01-12_22h04.54.172,IAT(Formal),2021.2.3,Win32,59.17159763,,,e,1,0.8109,0,34,34,1,1,崇高,e,,,,,,,,,,,,,,,,,,,,,,,,,,,,,,,,,,,,,,,,,,,,,,,,,,,,,
,,,,,,,,,,,,,,1,001,2025-01-12_22h04.54.172,IAT(Formal),2021.2.3,Win32,59.17159763,,,e,1,0.6891,0,35,35,0,1,优秀,e,,,,,,,,,,,,,,,,,,,,,,,,,,,,,,,,,,,,,,,,,,,,,,,,,,,,,
,,,,,,,,,,,,,,1,001,2025-01-12_22h04.54.172,IAT(Formal),2021.2.3,Win32,59.17159763,,,i,1,0.6267,0,36,36,39,1,下贱,i,,,,,,,,,,,,,,,,,,,,,,,,,,,,,,,,,,,,,,,,,,,,,,,,,,,,,
,,,,,,,,,,,,,,1,001,2025-01-12_22h04.54.172,IAT(Formal),2021.2.3,Win32,59.17159763,,,e,1,0.584,0,37,37,6,1,正直,e,,,,,,,,,,,,,,,,,,,,,,,,,,,,,,,,,,,,,,,,,,,,,,,,,,,,,
,,,,,,,,,,,,,,1,001,2025-01-12_22h04.54.172,IAT(Formal),2021.2.3,Win32,59.17159763,,,e,1,0.7116,0,38,38,11,1,稳重,e,,,,,,,,,,,,,,,,,,,,,,,,,,,,,,,,,,,,,,,,,,,,,,,,,,,,,
,,,,,,,,,,,,,,1,001,2025-01-12_22h04.54.172,IAT(Formal),2021.2.3,Win32,59.17159763,,,i,1,0.5862,0,39,39,29,1,冒失,i,,,,,,,,,,,,,,,,,,,,,,,,,,,,,,,,,,,,,,,,,,,,,,,,,,,,,
,,,,,,,,,,,,,,1,001,2025-01-12_22h04.54.172,IAT(Formal),2021.2.3,Win32,59.17159763,,,,,,,,,,,,,space,9.1338,e,1,0.7602,0,0,0,14,1,乐观,e,,,,,,,,,,,,,,,,,,,,,,,,,,,,,,,,,,,,,,,,,
,,,,,,,,,,,,,,1,001,2025-01-12_22h04.54.172,IAT(Formal),2021.2.3,Win32,59.17159763,,,,,,,,,,,,,,,e,1,0.51,0,1,1,10,1,优秀,e,,,,,,,,,,,,,,,,,,,,,,,,,,,,,,,,,,,,,,,,,
,,,,,,,,,,,,,,1,001,2025-01-12_22h04.54.172,IAT(Formal),2021.2.3,Win32,59.17159763,,,,,,,,,,,,,,,e,1,0.4309,0,2,2,28,1,活泼,e,,,,,,,,,,,,,,,,,,,,,,,,,,,,,,,,,,,,,,,,,
,,,,,,,,,,,,,,1,001,2025-01-12_22h04.54.172,IAT(Formal),2021.2.3,Win32,59.17159763,,,,,,,,,,,,,,,i,1,0.5324,0,3,3,58,1,他人,i,,,,,,,,,,,,,,,,,,,,,,,,,,,,,,,,,,,,,,,,,
,,,,,,,,,,,,,,1,001,2025-01-12_22h04.54.172,IAT(Formal),2021.2.3,Win32,59.17159763,,,,,,,,,,,,,,,i,1,0.6284,0,4,4,49,1,下贱,i,,,,,,,,,,,,,,,,,,,,,,,,,,,,,,,,,,,,,,,,,
,,,,,,,,,,,,,,1,001,2025-01-12_22h04.54.172,IAT(Formal),2021.2.3,Win32,59.17159763,,,,,,,,,,,,,,,i,1,0.6605,0,5,5,32,1,愚蠢,i,,,,,,,,,,,,,,,,,,,,,,,,,,,,,,,,,,,,,,,,,
,,,,,,,,,,,,,,1,001,2025-01-12_22h04.54.172,IAT(Formal),2021.2.3,Win32,59.17159763,,,,,,,,,,,,,,,i,1,0.5316,0,6,6,8,1,他人,i,,,,,,,,,,,,,,,,,,,,,,,,,,,,,,,,,,,,,,,,,
,,,,,,,,,,,,,,1,001,2025-01-12_22h04.54.172,IAT(Formal),2021.2.3,Win32,59.17159763,,,,,,,,,,,,,,,i,1,0.6836,0,7,7,75,1,他,i,,,,,,,,,,,,,,,,,,,,,,,,,,,,,,,,,,,,,,,,,
,,,,,,,,,,,,,,1,001,2025-01-12_22h04.54.172,IAT(Formal),2021.2.3,Win32,59.17159763,,,,,,,,,,,,,,,e,1,0.5982,0,8,8,52,1,我们,e,,,,,,,,,,,,,,,,,,,,,,,,,,,,,,,,,,,,,,,,,
,,,,,,,,,,,,,,1,001,2025-01-12_22h04.54.172,IAT(Formal),2021.2.3,Win32,59.17159763,,,,,,,,,,,,,,,i,0,0.9674,0,9,9,62,1,我们,e,,,,,,,,,,,,,,,,,,,,,,,,,,,,,,,,,,,,,,,,,
,,,,,,,,,,,,,,1,001,2025-01-12_22h04.54.172,IAT(Formal),2021.2.3,Win32,59.17159763,,,,,,,,,,,,,,,e,1,0.602,0,10,10,16,1,正直,e,,,,,,,,,,,,,,,,,,,,,,,,,,,,,,,,,,,,,,,,,
,,,,,,,,,,,,,,1,001,2025-01-12_22h04.54.172,IAT(Formal),2021.2.3,Win32,59.17159763,,,,,,,,,,,,,,,e,1,0.4149,0,11,11,17,1,勇敢,e,,,,,,,,,,,,,,,,,,,,,,,,,,,,,,,,,,,,,,,,,
,,,,,,,,,,,,,,1,001,2025-01-12_22h04.54.172,IAT(Formal),2021.2.3,Win32,59.17159763,,,,,,,,,,,,,,,i,1,0.7443,0,12,12,69,1,其他,i,,,,,,,,,,,,,,,,,,,,,,,,,,,,,,,,,,,,,,,,,
,,,,,,,,,,,,,,1,001,2025-01-12_22h04.54.172,IAT(Formal),2021.2.3,Win32,59.17159763,,,,,,,,,,,,,,,e,1,0.4965,0,13,13,64,1,俺,e,,,,,,,,,,,,,,,,,,,,,,,,,,,,,,,,,,,,,,,,,
,,,,,,,,,,,,,,1,001,2025-01-12_22h04.54.172,IAT(Formal),2021.2.3,Win32,59.17159763,,,,,,,,,,,,,,,i,1,0.6946,0,14,14,66,1,他们,i,,,,,,,,,,,,,,,,,,,,,,,,,,,,,,,,,,,,,,,,,
,,,,,,,,,,,,,,1,001,2025-01-12_22h04.54.172,IAT(Formal),2021.2.3,Win32,59.17159763,,,,,,,,,,,,,,,e,1,0.7428,0,15,15,22,1,无私,e,,,,,,,,,,,,,,,,,,,,,,,,,,,,,,,,,,,,,,,,,
,,,,,,,,,,,,,,1,001,2025-01-12_22h04.54.172,IAT(Formal),2021.2.3,Win32,59.17159763,,,,,,,,,,,,,,,i,1,0.6876,0,16,16,76,1,他们,i,,,,,,,,,,,,,,,,,,,,,,,,,,,,,,,,,,,,,,,,,
,,,,,,,,,,,,,,1,001,2025-01-12_22h04.54.172,IAT(Formal),2021.2.3,Win32,59.17159763,,,,,,,,,,,,,,,e,1,0.5375,0,17,17,3,1,自己,e,,,,,,,,,,,,,,,,,,,,,,,,,,,,,,,,,,,,,,,,,
,,,,,,,,,,,,,,1,001,2025-01-12_22h04.54.172,IAT(Formal),2021.2.3,Win32,59.17159763,,,,,,,,,,,,,,,i,1,0.5929,0,18,18,30,1,卑鄙,i,,,,,,,,,,,,,,,,,,,,,,,,,,,,,,,,,,,,,,,,,
,,,,,,,,,,,,,,1,001,2025-01-12_22h04.54.172,IAT(Formal),2021.2.3,Win32,59.17159763,,,,,,,,,,,,,,,e,1,0.549,0,19,19,24,1,朴实,e,,,,,,,,,,,,,,,,,,,,,,,,,,,,,,,,,,,,,,,,,
,,,,,,,,,,,,,,1,001,2025-01-12_22h04.54.172,IAT(Formal),2021.2.3,Win32,59.17159763,,,,,,,,,,,,,,,i,1,0.6469,0,20,20,67,1,他的,i,,,,,,,,,,,,,,,,,,,,,,,,,,,,,,,,,,,,,,,,,
,,,,,,,,,,,,,,1,001,2025-01-12_22h04.54.172,IAT(Formal),2021.2.3,Win32,59.17159763,,,,,,,,,,,,,,,e,1,0.5698,0,21,21,61,1,我的,e,,,,,,,,,,,,,,,,,,,,,,,,,,,,,,,,,,,,,,,,,
,,,,,,,,,,,,,,1,001,2025-01-12_22h04.54.172,IAT(Formal),2021.2.3,Win32,59.17159763,,,,,,,,,,,,,,,e,1,0.5928,0,22,22,13,1,杰出,e,,,,,,,,,,,,,,,,,,,,,,,,,,,,,,,,,,,,,,,,,
,,,,,,,,,,,,,,1,001,2025-01-12_22h04.54.172,IAT(Formal),2021.2.3,Win32,59.17159763,,,,,,,,,,,,,,,i,1,0.6286,0,23,23,34,1,悲观,i,,,,,,,,,,,,,,,,,,,,,,,,,,,,,,,,,,,,,,,,,
,,,,,,,,,,,,,,1,001,2025-01-12_22h04.54.172,IAT(Formal),2021.2.3,Win32,59.17159763,,,,,,,,,,,,,,,e,1,0.5645,0,24,24,26,1,冷静,e,,,,,,,,,,,,,,,,,,,,,,,,,,,,,,,,,,,,,,,,,
,,,,,,,,,,,,,,1,001,2025-01-12_22h04.54.172,IAT(Formal),2021.2.3,Win32,59.17159763,,,,,,,,,,,,,,,i,1,0.6045,0,25,25,6,1,他们,i,,,,,,,,,,,,,,,,,,,,,,,,,,,,,,,,,,,,,,,,,
,,,,,,,,,,,,,,1,001,2025-01-12_22h04.54.172,IAT(Formal),2021.2.3,Win32,59.17159763,,,,,,,,,,,,,,,e,0,0.361,0,26,26,35,1,消极,i,,,,,,,,,,,,,,,,,,,,,,,,,,,,,,,,,,,,,,,,,
,,,,,,,,,,,,,,1,001,2025-01-12_22h04.54.172,IAT(Formal),2021.2.3,Win32,59.17159763,,,,,,,,,,,,,,,i,1,1.0446,0,27,27,56,1,他们,i,,,,,,,,,,,,,,,,,,,,,,,,,,,,,,,,,,,,,,,,,
,,,,,,,,,,,,,,1,001,2025-01-12_22h04.54.172,IAT(Formal),2021.2.3,Win32,59.17159763,,,,,,,,,,,,,,,i,1,0.5994,0,28,28,42,1,凶狠,i,,,,,,,,,,,,,,,,,,,,,,,,,,,,,,,,,,,,,,,,,
,,,,,,,,,,,,,,1,001,2025-01-12_22h04.54.172,IAT(Formal),2021.2.3,Win32,59.17159763,,,,,,,,,,,,,,,i,1,0.4474,0,29,29,44,1,暴躁,i,,,,,,,,,,,,,,,,,,,,,,,,,,,,,,,,,,,,,,,,,
,,,,,,,,,,,,,,1,001,2025-01-12_22h04.54.172,IAT(Formal),2021.2.3,Win32,59.17159763,,,,,,,,,,,,,,,i,1,0.4937,0,30,30,79,1,其他,i,,,,,,,,,,,,,,,,,,,,,,,,,,,,,,,,,,,,,,,,,
,,,,,,,,,,,,,,1,001,2025-01-12_22h04.54.172,IAT(Formal),2021.2.3,Win32,59.17159763,,,,,,,,,,,,,,,i,1,0.7875,0,31,31,43,1,自私,i,,,,,,,,,,,,,,,,,,,,,,,,,,,,,,,,,,,,,,,,,
,,,,,,,,,,,,,,1,001,2025-01-12_22h04.54.172,IAT(Formal),2021.2.3,Win32,59.17159763,,,,,,,,,,,,,,,e,1,0.6101,0,32,32,73,1,自己,e,,,,,,,,,,,,,,,,,,,,,,,,,,,,,,,,,,,,,,,,,
,,,,,,,,,,,,,,1,001,2025-01-12_22h04.54.172,IAT(Formal),2021.2.3,Win32,59.17159763,,,,,,,,,,,,,,,i,1,1.143,0,33,33,31,1,虚伪,i,,,,,,,,,,,,,,,,,,,,,,,,,,,,,,,,,,,,,,,,,
,,,,,,,,,,,,,,1,001,2025-01-12_22h04.54.172,IAT(Formal),2021.2.3,Win32,59.17159763,,,,,,,,,,,,,,,i,1,0.5981,0,34,34,40,1,执拗,i,,,,,,,,,,,,,,,,,,,,,,,,,,,,,,,,,,,,,,,,,
,,,,,,,,,,,,,,1,001,2025-01-12_22h04.54.172,IAT(Formal),2021.2.3,Win32,59.17159763,,,,,,,,,,,,,,,e,1,0.5431,0,35,35,70,1,我,e,,,,,,,,,,,,,,,,,,,,,,,,,,,,,,,,,,,,,,,,,
,,,,,,,,,,,,,,1,001,2025-01-12_22h04.54.172,IAT(Formal),2021.2.3,Win32,59.17159763,,,,,,,,,,,,,,,i,1,0.5313,0,36,36,36,1,自卑,i,,,,,,,,,,,,,,,,,,,,,,,,,,,,,,,,,,,,,,,,,
,,,,,,,,,,,,,,1,001,2025-01-12_22h04.54.172,IAT(Formal),2021.2.3,Win32,59.17159763,,,,,,,,,,,,,,,e,1,0.6134,0,37,37,74,1,俺,e,,,,,,,,,,,,,,,,,,,,,,,,,,,,,,,,,,,,,,,,,
,,,,,,,,,,,,,,1,001,2025-01-12_22h04.54.172,IAT(Formal),2021.2.3,Win32,59.17159763,,,,,,,,,,,,,,,i,1,0.6537,0,38,38,48,1,轻率,i,,,,,,,,,,,,,,,,,,,,,,,,,,,,,,,,,,,,,,,,,
,,,,,,,,,,,,,,1,001,2025-01-12_22h04.54.172,IAT(Formal),2021.2.3,Win32,59.17159763,,,,,,,,,,,,,,,i,1,0.7772,0,39,39,5,1,他,i,,,,,,,,,,,,,,,,,,,,,,,,,,,,,,,,,,,,,,,,,
,,,,,,,,,,,,,,1,001,2025-01-12_22h04.54.172,IAT(Formal),2021.2.3,Win32,59.17159763,,,,,,,,,,,,,,,i,1,0.6275,0,40,40,41,1,散漫,i,,,,,,,,,,,,,,,,,,,,,,,,,,,,,,,,,,,,,,,,,
,,,,,,,,,,,,,,1,001,2025-01-12_22h04.54.172,IAT(Formal),2021.2.3,Win32,59.17159763,,,,,,,,,,,,,,,i,1,0.4932,0,41,41,37,1,傲慢,i,,,,,,,,,,,,,,,,,,,,,,,,,,,,,,,,,,,,,,,,,
,,,,,,,,,,,,,,1,001,2025-01-12_22h04.54.172,IAT(Formal),2021.2.3,Win32,59.17159763,,,,,,,,,,,,,,,e,1,0.5174,0,42,42,50,1,我,e,,,,,,,,,,,,,,,,,,,,,,,,,,,,,,,,,,,,,,,,,
,,,,,,,,,,,,,,1,001,2025-01-12_22h04.54.172,IAT(Formal),2021.2.3,Win32,59.17159763,,,,,,,,,,,,,,,i,1,0.5437,0,43,43,9,1,其他,i,,,,,,,,,,,,,,,,,,,,,,,,,,,,,,,,,,,,,,,,,
,,,,,,,,,,,,,,1,001,2025-01-12_22h04.54.172,IAT(Formal),2021.2.3,Win32,59.17159763,,,,,,,,,,,,,,,i,1,0.4053,0,44,44,77,1,他的,i,,,,,,,,,,,,,,,,,,,,,,,,,,,,,,,,,,,,,,,,,
,,,,,,,,,,,,,,1,001,2025-01-12_22h04.54.172,IAT(Formal),2021.2.3,Win32,59.17159763,,,,,,,,,,,,,,,e,1,0.55,0,45,45,19,1,机智,e,,,,,,,,,,,,,,,,,,,,,,,,,,,,,,,,,,,,,,,,,
,,,,,,,,,,,,,,1,001,2025-01-12_22h04.54.172,IAT(Formal),2021.2.3,Win32,59.17159763,,,,,,,,,,,,,,,i,1,0.5495,0,46,46,78,1,他人,i,,,,,,,,,,,,,,,,,,,,,,,,,,,,,,,,,,,,,,,,,
,,,,,,,,,,,,,,1,001,2025-01-12_22h04.54.172,IAT(Formal),2021.2.3,Win32,59.17159763,,,,,,,,,,,,,,,e,1,0.6315,0,47,47,54,1,俺,e,,,,,,,,,,,,,,,,,,,,,,,,,,,,,,,,,,,,,,,,,
,,,,,,,,,,,,,,1,001,2025-01-12_22h04.54.172,IAT(Formal),2021.2.3,Win32,59.17159763,,,,,,,,,,,,,,,e,1,0.4819,0,48,48,51,1,我的,e,,,,,,,,,,,,,,,,,,,,,,,,,,,,,,,,,,,,,,,,,
,,,,,,,,,,,,,,1,001,2025-01-12_22h04.54.172,IAT(Formal),2021.2.3,Win32,59.17159763,,,,,,,,,,,,,,,i,1,0.5672,0,49,49,7,1,他的,i,,,,,,,,,,,,,,,,,,,,,,,,,,,,,,,,,,,,,,,,,
,,,,,,,,,,,,,,1,001,2025-01-12_22h04.54.172,IAT(Formal),2021.2.3,Win32,59.17159763,,,,,,,,,,,,,,,i,1,0.5706,0,50,50,38,1,鲁莽,i,,,,,,,,,,,,,,,,,,,,,,,,,,,,,,,,,,,,,,,,,
,,,,,,,,,,,,,,1,001,2025-01-12_22h04.54.172,IAT(Formal),2021.2.3,Win32,59.17159763,,,,,,,,,,,,,,,i,1,0.5692,0,51,51,59,1,其他,i,,,,,,,,,,,,,,,,,,,,,,,,,,,,,,,,,,,,,,,,,
,,,,,,,,,,,,,,1,001,2025-01-12_22h04.54.172,IAT(Formal),2021.2.3,Win32,59.17159763,,,,,,,,,,,,,,,i,0,0.5768,0,52,52,21,1,稳重,e,,,,,,,,,,,,,,,,,,,,,,,,,,,,,,,,,,,,,,,,,
,,,,,,,,,,,,,,1,001,2025-01-12_22h04.54.172,IAT(Formal),2021.2.3,Win32,59.17159763,,,,,,,,,,,,,,,e,1,0.7857,0,53,53,25,1,细腻,e,,,,,,,,,,,,,,,,,,,,,,,,,,,,,,,,,,,,,,,,,
,,,,,,,,,,,,,,1,001,2025-01-12_22h04.54.172,IAT(Formal),2021.2.3,Win32,59.17159763,,,,,,,,,,,,,,,e,1,0.543,0,54,54,2,1,我们,e,,,,,,,,,,,,,,,,,,,,,,,,,,,,,,,,,,,,,,,,,
,,,,,,,,,,,,,,1,001,2025-01-12_22h04.54.172,IAT(Formal),2021.2.3,Win32,59.17159763,,,,,,,,,,,,,,,e,1,0.5992,0,55,55,4,1,俺,e,,,,,,,,,,,,,,,,,,,,,,,,,,,,,,,,,,,,,,,,,
,,,,,,,,,,,,,,1,001,2025-01-12_22h04.54.172,IAT(Formal),2021.2.3,Win32,59.17159763,,,,,,,,,,,,,,,e,1,0.3624,0,56,56,72,1,我们,e,,,,,,,,,,,,,,,,,,,,,,,,,,,,,,,,,,,,,,,,,
,,,,,,,,,,,,,,1,001,2025-01-12_22h04.54.172,IAT(Formal),2021.2.3,Win32,59.17159763,,,,,,,,,,,,,,,i,1,0.5436,0,57,57,46,1,野蛮,i,,,,,,,,,,,,,,,,,,,,,,,,,,,,,,,,,,,,,,,,,
,,,,,,,,,,,,,,1,001,2025-01-12_22h04.54.172,IAT(Formal),2021.2.3,Win32,59.17159763,,,,,,,,,,,,,,,e,1,0.4446,0,58,58,20,1,认真,e,,,,,,,,,,,,,,,,,,,,,,,,,,,,,,,,,,,,,,,,,
,,,,,,,,,,,,,,1,001,2025-01-12_22h04.54.172,IAT(Formal),2021.2.3,Win32,59.17159763,,,,,,,,,,,,,,,i,1,0.7335,0,59,59,68,1,他人,i,,,,,,,,,,,,,,,,,,,,,,,,,,,,,,,,,,,,,,,,,
,,,,,,,,,,,,,,1,001,2025-01-12_22h04.54.172,IAT(Formal),2021.2.3,Win32,59.17159763,,,,,,,,,,,,,,,e,1,0.3828,0,60,60,1,1,我的,e,,,,,,,,,,,,,,,,,,,,,,,,,,,,,,,,,,,,,,,,,
,,,,,,,,,,,,,,1,001,2025-01-12_22h04.54.172,IAT(Formal),2021.2.3,Win32,59.17159763,,,,,,,,,,,,,,,e,1,0.6809,0,61,61,23,1,公正,e,,,,,,,,,,,,,,,,,,,,,,,,,,,,,,,,,,,,,,,,,
,,,,,,,,,,,,,,1,001,2025-01-12_22h04.54.172,IAT(Formal),2021.2.3,Win32,59.17159763,,,,,,,,,,,,,,,i,1,0.7327,0,62,62,55,1,他,i,,,,,,,,,,,,,,,,,,,,,,,,,,,,,,,,,,,,,,,,,
,,,,,,,,,,,,,,1,001,2025-01-12_22h04.54.172,IAT(Formal),2021.2.3,Win32,59.17159763,,,,,,,,,,,,,,,e,1,0.6648,0,63,63,11,1,崇高,e,,,,,,,,,,,,,,,,,,,,,,,,,,,,,,,,,,,,,,,,,
,,,,,,,,,,,,,,1,001,2025-01-12_22h04.54.172,IAT(Formal),2021.2.3,Win32,59.17159763,,,,,,,,,,,,,,,e,1,0.617,0,64,64,71,1,我的,e,,,,,,,,,,,,,,,,,,,,,,,,,,,,,,,,,,,,,,,,,
,,,,,,,,,,,,,,1,001,2025-01-12_22h04.54.172,IAT(Formal),2021.2.3,Win32,59.17159763,,,,,,,,,,,,,,,e,1,0.5486,0,65,65,29,1,诚恳,e,,,,,,,,,,,,,,,,,,,,,,,,,,,,,,,,,,,,,,,,,
,,,,,,,,,,,,,,1,001,2025-01-12_22h04.54.172,IAT(Formal),2021.2.3,Win32,59.17159763,,,,,,,,,,,,,,,e,1,0.5596,0,66,66,0,1,我,e,,,,,,,,,,,,,,,,,,,,,,,,,,,,,,,,,,,,,,,,,
,,,,,,,,,,,,,,1,001,2025-01-12_22h04.54.172,IAT(Formal),2021.2.3,Win32,59.17159763,,,,,,,,,,,,,,,e,1,0.4776,0,67,67,12,1,聪明,e,,,,,,,,,,,,,,,,,,,,,,,,,,,,,,,,,,,,,,,,,
,,,,,,,,,,,,,,1,001,2025-01-12_22h04.54.172,IAT(Formal),2021.2.3,Win32,59.17159763,,,,,,,,,,,,,,,e,1,0.5435,0,68,68,63,1,自己,e,,,,,,,,,,,,,,,,,,,,,,,,,,,,,,,,,,,,,,,,,
,,,,,,,,,,,,,,1,001,2025-01-12_22h04.54.172,IAT(Formal),2021.2.3,Win32,59.17159763,,,,,,,,,,,,,,,i,1,0.4759,0,69,69,39,1,冒失,i,,,,,,,,,,,,,,,,,,,,,,,,,,,,,,,,,,,,,,,,,
,,,,,,,,,,,,,,1,001,2025-01-12_22h04.54.172,IAT(Formal),2021.2.3,Win32,59.17159763,,,,,,,,,,,,,,,e,1,0.5384,0,70,70,60,1,我,e,,,,,,,,,,,,,,,,,,,,,,,,,,,,,,,,,,,,,,,,,
,,,,,,,,,,,,,,1,001,2025-01-12_22h04.54.172,IAT(Formal),2021.2.3,Win32,59.17159763,,,,,,,,,,,,,,,i,1,0.549,0,71,71,65,1,他,i,,,,,,,,,,,,,,,,,,,,,,,,,,,,,,,,,,,,,,,,,
,,,,,,,,,,,,,,1,001,2025-01-12_22h04.54.172,IAT(Formal),2021.2.3,Win32,59.17159763,,,,,,,,,,,,,,,e,1,0.5222,0,72,72,15,1,诚实,e,,,,,,,,,,,,,,,,,,,,,,,,,,,,,,,,,,,,,,,,,
,,,,,,,,,,,,,,1,001,2025-01-12_22h04.54.172,IAT(Formal),2021.2.3,Win32,59.17159763,,,,,,,,,,,,,,,i,1,0.6447,0,73,73,47,1,固执,i,,,,,,,,,,,,,,,,,,,,,,,,,,,,,,,,,,,,,,,,,
,,,,,,,,,,,,,,1,001,2025-01-12_22h04.54.172,IAT(Formal),2021.2.3,Win32,59.17159763,,,,,,,,,,,,,,,e,1,0.6005,0,74,74,27,1,热情,e,,,,,,,,,,,,,,,,,,,,,,,,,,,,,,,,,,,,,,,,,
,,,,,,,,,,,,,,1,001,2025-01-12_22h04.54.172,IAT(Formal),2021.2.3,Win32,59.17159763,,,,,,,,,,,,,,,i,1,0.5643,0,75,75,33,1,刻薄,i,,,,,,,,,,,,,,,,,,,,,,,,,,,,,,,,,,,,,,,,,
,,,,,,,,,,,,,,1,001,2025-01-12_22h04.54.172,IAT(Formal),2021.2.3,Win32,59.17159763,,,,,,,,,,,,,,,i,1,0.577,0,76,76,45,1,猖狂,i,,,,,,,,,,,,,,,,,,,,,,,,,,,,,,,,,,,,,,,,,
,,,,,,,,,,,,,,1,001,2025-01-12_22h04.54.172,IAT(Formal),2021.2.3,Win32,59.17159763,,,,,,,,,,,,,,,e,1,0.5043,0,77,77,53,1,自己,e,,,,,,,,,,,,,,,,,,,,,,,,,,,,,,,,,,,,,,,,,
,,,,,,,,,,,,,,1,001,2025-01-12_22h04.54.172,IAT(Formal),2021.2.3,Win32,59.17159763,,,,,,,,,,,,,,,i,1,0.7044,0,78,78,57,1,他的,i,,,,,,,,,,,,,,,,,,,,,,,,,,,,,,,,,,,,,,,,,
,,,,,,,,,,,,,,1,001,2025-01-12_22h04.54.172,IAT(Formal),2021.2.3,Win32,59.17159763,,,,,,,,,,,,,,,e,1,0.6379,0,79,79,18,1,勤奋,e,,,,,,,,,,,,,,,,,,,,,,,,,,,,,,,,,,,,,,,,,
,,,,,,,,,,,,,,1,001,2025-01-12_22h04.54.172,IAT(Formal),2021.2.3,Win32,59.17159763,,,,,,,,,,,,,,,e,1,0.5845,,,,,,我,e,space,17.3593,0,0,0,70,1,,,,,,,,,,,,,,,,,,,,,,,,,,,,,,,,,,
,,,,,,,,,,,,,,1,001,2025-01-12_22h04.54.172,IAT(Formal),2021.2.3,Win32,59.17159763,,,,,,,,,,,,,,,e,1,0.3922,,,,,,聪明,e,,,0,1,1,12,1,,,,,,,,,,,,,,,,,,,,,,,,,,,,,,,,,,
,,,,,,,,,,,,,,1,001,2025-01-12_22h04.54.172,IAT(Formal),2021.2.3,Win32,59.17159763,,,,,,,,,,,,,,,e,1,0.3522,,,,,,我,e,,,0,2,2,60,1,,,,,,,,,,,,,,,,,,,,,,,,,,,,,,,,,,
,,,,,,,,,,,,,,1,001,2025-01-12_22h04.54.172,IAT(Formal),2021.2.3,Win32,59.17159763,,,,,,,,,,,,,,,e,1,0.4731,,,,,,勤奋,e,,,0,3,3,18,1,,,,,,,,,,,,,,,,,,,,,,,,,,,,,,,,,,
,,,,,,,,,,,,,,1,001,2025-01-12_22h04.54.172,IAT(Formal),2021.2.3,Win32,59.17159763,,,,,,,,,,,,,,,e,1,0.4913,,,,,,活泼,e,,,0,4,4,28,1,,,,,,,,,,,,,,,,,,,,,,,,,,,,,,,,,,
,,,,,,,,,,,,,,1,001,2025-01-12_22h04.54.172,IAT(Formal),2021.2.3,Win32,59.17159763,,,,,,,,,,,,,,,e,0,0.5511,,,,,,他,i,,,0,5,5,65,1,,,,,,,,,,,,,,,,,,,,,,,,,,,,,,,,,,
,,,,,,,,,,,,,,1,001,2025-01-12_22h04.54.172,IAT(Formal),2021.2.3,Win32,59.17159763,,,,,,,,,,,,,,,i,1,0.5013,,,,,,他的,i,,,0,6,6,77,1,,,,,,,,,,,,,,,,,,,,,,,,,,,,,,,,,,
,,,,,,,,,,,,,,1,001,2025-01-12_22h04.54.172,IAT(Formal),2021.2.3,Win32,59.17159763,,,,,,,,,,,,,,,e,1,0.6199,,,,,,稳重,e,,,0,7,7,21,1,,,,,,,,,,,,,,,,,,,,,,,,,,,,,,,,,,
,,,,,,,,,,,,,,1,001,2025-01-12_22h04.54.172,IAT(Formal),2021.2.3,Win32,59.17159763,,,,,,,,,,,,,,,e,1,0.4349,,,,,,自己,e,,,0,8,8,53,1,,,,,,,,,,,,,,,,,,,,,,,,,,,,,,,,,,
,,,,,,,,,,,,,,1,001,2025-01-12_22h04.54.172,IAT(Formal),2021.2.3,Win32,59.17159763,,,,,,,,,,,,,,,e,1,0.4227,,,,,,自己,e,,,0,9,9,63,1,,,,,,,,,,,,,,,,,,,,,,,,,,,,,,,,,,
,,,,,,,,,,,,,,1,001,2025-01-12_22h04.54.172,IAT(Formal),2021.2.3,Win32,59.17159763,,,,,,,,,,,,,,,i,1,0.5679,,,,,,他,i,,,0,10,10,55,1,,,,,,,,,,,,,,,,,,,,,,,,,,,,,,,,,,
,,,,,,,,,,,,,,1,001,2025-01-12_22h04.54.172,IAT(Formal),2021.2.3,Win32,59.17159763,,,,,,,,,,,,,,,i,1,0.5509,,,,,,刻薄,i,,,0,11,11,33,1,,,,,,,,,,,,,,,,,,,,,,,,,,,,,,,,,,
,,,,,,,,,,,,,,1,001,2025-01-12_22h04.54.172,IAT(Formal),2021.2.3,Win32,59.17159763,,,,,,,,,,,,,,,i,1,0.6025,,,,,,他人,i,,,0,12,12,78,1,,,,,,,,,,,,,,,,,,,,,,,,,,,,,,,,,,
,,,,,,,,,,,,,,1,001,2025-01-12_22h04.54.172,IAT(Formal),2021.2.3,Win32,59.17159763,,,,,,,,,,,,,,,e,1,0.5938,,,,,,机智,e,,,0,13,13,19,1,,,,,,,,,,,,,,,,,,,,,,,,,,,,,,,,,,
,,,,,,,,,,,,,,1,001,2025-01-12_22h04.54.172,IAT(Formal),2021.2.3,Win32,59.17159763,,,,,,,,,,,,,,,e,1,0.6517,,,,,,我们,e,,,0,14,14,72,1,,,,,,,,,,,,,,,,,,,,,,,,,,,,,,,,,,
,,,,,,,,,,,,,,1,001,2025-01-12_22h04.54.172,IAT(Formal),2021.2.3,Win32,59.17159763,,,,,,,,,,,,,,,e,1,0.5454,,,,,,公正,e,,,0,15,15,23,1,,,,,,,,,,,,,,,,,,,,,,,,,,,,,,,,,,
,,,,,,,,,,,,,,1,001,2025-01-12_22h04.54.172,IAT(Formal),2021.2.3,Win32,59.17159763,,,,,,,,,,,,,,,e,1,0.5565,,,,,,自己,e,,,0,16,16,3,1,,,,,,,,,,,,,,,,,,,,,,,,,,,,,,,,,,
,,,,,,,,,,,,,,1,001,2025-01-12_22h04.54.172,IAT(Formal),2021.2.3,Win32,59.17159763,,,,,,,,,,,,,,,e,1,0.5442,,,,,,俺,e,,,0,17,17,54,1,,,,,,,,,,,,,,,,,,,,,,,,,,,,,,,,,,
,,,,,,,,,,,,,,1,001,2025-01-12_22h04.54.172,IAT(Formal),2021.2.3,Win32,59.17159763,,,,,,,,,,,,,,,i,1,0.5903,,,,,,他们,i,,,0,18,18,6,1,,,,,,,,,,,,,,,,,,,,,,,,,,,,,,,,,,
,,,,,,,,,,,,,,1,001,2025-01-12_22h04.54.172,IAT(Formal),2021.2.3,Win32,59.17159763,,,,,,,,,,,,,,,e,1,0.6054,,,,,,我的,e,,,0,19,19,71,1,,,,,,,,,,,,,,,,,,,,,,,,,,,,,,,,,,
,,,,,,,,,,,,,,1,001,2025-01-12_22h04.54.172,IAT(Formal),2021.2.3,Win32,59.17159763,,,,,,,,,,,,,,,e,1,0.6351,,,,,,杰出,e,,,0,20,20,13,1,,,,,,,,,,,,,,,,,,,,,,,,,,,,,,,,,,
,,,,,,,,,,,,,,1,001,2025-01-12_22h04.54.172,IAT(Formal),2021.2.3,Win32,59.17159763,,,,,,,,,,,,,,,e,1,0.5444,,,,,,正直,e,,,0,21,21,16,1,,,,,,,,,,,,,,,,,,,,,,,,,,,,,,,,,,
,,,,,,,,,,,,,,1,001,2025-01-12_22h04.54.172,IAT(Formal),2021.2.3,Win32,59.17159763,,,,,,,,,,,,,,,e,1,0.4888,,,,,,俺,e,,,0,22,22,64,1,,,,,,,,,,,,,,,,,,,,,,,,,,,,,,,,,,
,,,,,,,,,,,,,,1,001,2025-01-12_22h04.54.172,IAT(Formal),2021.2.3,Win32,59.17159763,,,,,,,,,,,,,,,e,1,0.3607,,,,,,我,e,,,0,23,23,50,1,,,,,,,,,,,,,,,,,,,,,,,,,,,,,,,,,,
,,,,,,,,,,,,,,1,001,2025-01-12_22h04.54.172,IAT(Formal),2021.2.3,Win32,59.17159763,,,,,,,,,,,,,,,i,1,0.6874,,,,,,他人,i,,,0,24,24,8,1,,,,,,,,,,,,,,,,,,,,,,,,,,,,,,,,,,
,,,,,,,,,,,,,,1,001,2025-01-12_22h04.54.172,IAT(Formal),2021.2.3,Win32,59.17159763,,,,,,,,,,,,,,,e,1,0.5382,,,,,,优秀,e,,,0,25,25,10,1,,,,,,,,,,,,,,,,,,,,,,,,,,,,,,,,,,
,,,,,,,,,,,,,,1,001,2025-01-12_22h04.54.172,IAT(Formal),2021.2.3,Win32,59.17159763,,,,,,,,,,,,,,,i,1,0.6892,,,,,,他们,i,,,0,26,26,66,1,,,,,,,,,,,,,,,,,,,,,,,,,,,,,,,,,,
,,,,,,,,,,,,,,1,001,2025-01-12_22h04.54.172,IAT(Formal),2021.2.3,Win32,59.17159763,,,,,,,,,,,,,,,i,1,0.5683,,,,,,野蛮,i,,,0,27,27,46,1,,,,,,,,,,,,,,,,,,,,,,,,,,,,,,,,,,
,,,,,,,,,,,,,,1,001,2025-01-12_22h04.54.172,IAT(Formal),2021.2.3,Win32,59.17159763,,,,,,,,,,,,,,,i,1,0.4008,,,,,,他们,i,,,0,28,28,56,1,,,,,,,,,,,,,,,,,,,,,,,,,,,,,,,,,,
,,,,,,,,,,,,,,1,001,2025-01-12_22h04.54.172,IAT(Formal),2021.2.3,Win32,59.17159763,,,,,,,,,,,,,,,i,1,0.4006,,,,,,他的,i,,,0,29,29,57,1,,,,,,,,,,,,,,,,,,,,,,,,,,,,,,,,,,
,,,,,,,,,,,,,,1,001,2025-01-12_22h04.54.172,IAT(Formal),2021.2.3,Win32,59.17159763,,,,,,,,,,,,,,,i,1,0.5687,,,,,,下贱,i,,,0,30,30,49,1,,,,,,,,,,,,,,,,,,,,,,,,,,,,,,,,,,
,,,,,,,,,,,,,,1,001,2025-01-12_22h04.54.172,IAT(Formal),2021.2.3,Win32,59.17159763,,,,,,,,,,,,,,,e,1,0.5181,,,,,,乐观,e,,,0,31,31,14,1,,,,,,,,,,,,,,,,,,,,,,,,,,,,,,,,,,
,,,,,,,,,,,,,,1,001,2025-01-12_22h04.54.172,IAT(Formal),2021.2.3,Win32,59.17159763,,,,,,,,,,,,,,,i,1,0.5388,,,,,,虚伪,i,,,0,32,32,31,1,,,,,,,,,,,,,,,,,,,,,,,,,,,,,,,,,,
,,,,,,,,,,,,,,1,001,2025-01-12_22h04.54.172,IAT(Formal),2021.2.3,Win32,59.17159763,,,,,,,,,,,,,,,i,1,0.4708,,,,,,他的,i,,,0,33,33,67,1,,,,,,,,,,,,,,,,,,,,,,,,,,,,,,,,,,
,,,,,,,,,,,,,,1,001,2025-01-12_22h04.54.172,IAT(Formal),2021.2.3,Win32,59.17159763,,,,,,,,,,,,,,,i,1,0.4516,,,,,,轻率,i,,,0,34,34,48,1,,,,,,,,,,,,,,,,,,,,,,,,,,,,,,,,,,
,,,,,,,,,,,,,,1,001,2025-01-12_22h04.54.172,IAT(Formal),2021.2.3,Win32,59.17159763,,,,,,,,,,,,,,,i,1,0.4765,,,,,,其他,i,,,0,35,35,9,1,,,,,,,,,,,,,,,,,,,,,,,,,,,,,,,,,,
,,,,,,,,,,,,,,1,001,2025-01-12_22h04.54.172,IAT(Formal),2021.2.3,Win32,59.17159763,,,,,,,,,,,,,,,e,1,0.8072,,,,,,冷静,e,,,0,36,36,26,1,,,,,,,,,,,,,,,,,,,,,,,,,,,,,,,,,,
,,,,,,,,,,,,,,1,001,2025-01-12_22h04.54.172,IAT(Formal),2021.2.3,Win32,59.17159763,,,,,,,,,,,,,,,e,1,0.6179,,,,,,勇敢,e,,,0,37,37,17,1,,,,,,,,,,,,,,,,,,,,,,,,,,,,,,,,,,
,,,,,,,,,,,,,,1,001,2025-01-12_22h04.54.172,IAT(Formal),2021.2.3,Win32,59.17159763,,,,,,,,,,,,,,,i,1,0.7203,,,,,,悲观,i,,,0,38,38,34,1,,,,,,,,,,,,,,,,,,,,,,,,,,,,,,,,,,
,,,,,,,,,,,,,,1,001,2025-01-12_22h04.54.172,IAT(Formal),2021.2.3,Win32,59.17159763,,,,,,,,,,,,,,,e,1,0.5353,,,,,,我的,e,,,0,39,39,1,1,,,,,,,,,,,,,,,,,,,,,,,,,,,,,,,,,,
,,,,,,,,,,,,,,1,001,2025-01-12_22h04.54.172,IAT(Formal),2021.2.3,Win32,59.17159763,,,,,,,,,,,,,,,i,1,0.6325,,,,,,猖狂,i,,,0,40,40,45,1,,,,,,,,,,,,,,,,,,,,,,,,,,,,,,,,,,
,,,,,,,,,,,,,,1,001,2025-01-12_22h04.54.172,IAT(Formal),2021.2.3,Win32,59.17159763,,,,,,,,,,,,,,,e,1,0.5682,,,,,,我们,e,,,0,41,41,62,1,,,,,,,,,,,,,,,,,,,,,,,,,,,,,,,,,,
,,,,,,,,,,,,,,1,001,2025-01-12_22h04.54.172,IAT(Formal),2021.2.3,Win32,59.17159763,,,,,,,,,,,,,,,i,1,0.6429,,,,,,他,i,,,0,42,42,75,1,,,,,,,,,,,,,,,,,,,,,,,,,,,,,,,,,,
,,,,,,,,,,,,,,1,001,2025-01-12_22h04.54.172,IAT(Formal),2021.2.3,Win32,59.17159763,,,,,,,,,,,,,,,e,1,0.5033,,,,,,诚恳,e,,,0,43,43,29,1,,,,,,,,,,,,,,,,,,,,,,,,,,,,,,,,,,
,,,,,,,,,,,,,,1,001,2025-01-12_22h04.54.172,IAT(Formal),2021.2.3,Win32,59.17159763,,,,,,,,,,,,,,,i,1,0.7061,,,,,,固执,i,,,0,44,44,47,1,,,,,,,,,,,,,,,,,,,,,,,,,,,,,,,,,,
,,,,,,,,,,,,,,1,001,2025-01-12_22h04.54.172,IAT(Formal),2021.2.3,Win32,59.17159763,,,,,,,,,,,,,,,e,1,0.5878,,,,,,我们,e,,,0,45,45,52,1,,,,,,,,,,,,,,,,,,,,,,,,,,,,,,,,,,
,,,,,,,,,,,,,,1,001,2025-01-12_22h04.54.172,IAT(Formal),2021.2.3,Win32,59.17159763,,,,,,,,,,,,,,,e,1,0.5029,,,,,,热情,e,,,0,46,46,27,1,,,,,,,,,,,,,,,,,,,,,,,,,,,,,,,,,,
,,,,,,,,,,,,,,1,001,2025-01-12_22h04.54.172,IAT(Formal),2021.2.3,Win32,59.17159763,,,,,,,,,,,,,,,i,1,0.492,,,,,,其他,i,,,0,47,47,79,1,,,,,,,,,,,,,,,,,,,,,,,,,,,,,,,,,,
,,,,,,,,,,,,,,1,001,2025-01-12_22h04.54.172,IAT(Formal),2021.2.3,Win32,59.17159763,,,,,,,,,,,,,,,i,1,0.6196,,,,,,他人,i,,,0,48,48,68,1,,,,,,,,,,,,,,,,,,,,,,,,,,,,,,,,,,
,,,,,,,,,,,,,,1,001,2025-01-12_22h04.54.172,IAT(Formal),2021.2.3,Win32,59.17159763,,,,,,,,,,,,,,,i,0,0.4348,,,,,,自己,e,,,0,49,49,73,1,,,,,,,,,,,,,,,,,,,,,,,,,,,,,,,,,,
,,,,,,,,,,,,,,1,001,2025-01-12_22h04.54.172,IAT(Formal),2021.2.3,Win32,59.17159763,,,,,,,,,,,,,,,i,1,0.5562,,,,,,其他,i,,,0,50,50,59,1,,,,,,,,,,,,,,,,,,,,,,,,,,,,,,,,,,
,,,,,,,,,,,,,,1,001,2025-01-12_22h04.54.172,IAT(Formal),2021.2.3,Win32,59.17159763,,,,,,,,,,,,,,,i,1,0.517,,,,,,他,i,,,0,51,51,5,1,,,,,,,,,,,,,,,,,,,,,,,,,,,,,,,,,,
,,,,,,,,,,,,,,1,001,2025-01-12_22h04.54.172,IAT(Formal),2021.2.3,Win32,59.17159763,,,,,,,,,,,,,,,i,1,0.5446,,,,,,散漫,i,,,0,52,52,41,1,,,,,,,,,,,,,,,,,,,,,,,,,,,,,,,,,,
,,,,,,,,,,,,,,1,001,2025-01-12_22h04.54.172,IAT(Formal),2021.2.3,Win32,59.17159763,,,,,,,,,,,,,,,i,1,0.5095,,,,,,他人,i,,,0,53,53,58,1,,,,,,,,,,,,,,,,,,,,,,,,,,,,,,,,,,
,,,,,,,,,,,,,,1,001,2025-01-12_22h04.54.172,IAT(Formal),2021.2.3,Win32,59.17159763,,,,,,,,,,,,,,,i,1,0.6019,,,,,,自私,i,,,0,54,54,43,1,,,,,,,,,,,,,,,,,,,,,,,,,,,,,,,,,,
,,,,,,,,,,,,,,1,001,2025-01-12_22h04.54.172,IAT(Formal),2021.2.3,Win32,59.17159763,,,,,,,,,,,,,,,e,1,0.452,,,,,,我的,e,,,0,55,55,61,1,,,,,,,,,,,,,,,,,,,,,,,,,,,,,,,,,,
,,,,,,,,,,,,,,1,001,2025-01-12_22h04.54.172,IAT(Formal),2021.2.3,Win32,59.17159763,,,,,,,,,,,,,,,i,1,0.4673,,,,,,凶狠,i,,,0,56,56,42,1,,,,,,,,,,,,,,,,,,,,,,,,,,,,,,,,,,
,,,,,,,,,,,,,,1,001,2025-01-12_22h04.54.172,IAT(Formal),2021.2.3,Win32,59.17159763,,,,,,,,,,,,,,,i,1,0.7347,,,,,,他们,i,,,0,57,57,76,1,,,,,,,,,,,,,,,,,,,,,,,,,,,,,,,,,,
,,,,,,,,,,,,,,1,001,2025-01-12_22h04.54.172,IAT(Formal),2021.2.3,Win32,59.17159763,,,,,,,,,,,,,,,i,1,0.5022,,,,,,暴躁,i,,,0,58,58,44,1,,,,,,,,,,,,,,,,,,,,,,,,,,,,,,,,,,
,,,,,,,,,,,,,,1,001,2025-01-12_22h04.54.172,IAT(Formal),2021.2.3,Win32,59.17159763,,,,,,,,,,,,,,,i,1,0.4741,,,,,,傲慢,i,,,0,59,59,37,1,,,,,,,,,,,,,,,,,,,,,,,,,,,,,,,,,,
,,,,,,,,,,,,,,1,001,2025-01-12_22h04.54.172,IAT(Formal),2021.2.3,Win32,59.17159763,,,,,,,,,,,,,,,e,1,0.5015,,,,,,诚实,e,,,0,60,60,15,1,,,,,,,,,,,,,,,,,,,,,,,,,,,,,,,,,,
,,,,,,,,,,,,,,1,001,2025-01-12_22h04.54.172,IAT(Formal),2021.2.3,Win32,59.17159763,,,,,,,,,,,,,,,e,1,0.5326,,,,,,崇高,e,,,0,61,61,11,1,,,,,,,,,,,,,,,,,,,,,,,,,,,,,,,,,,
,,,,,,,,,,,,,,1,001,2025-01-12_22h04.54.172,IAT(Formal),2021.2.3,Win32,59.17159763,,,,,,,,,,,,,,,e,1,0.5846,,,,,,俺,e,,,0,62,62,74,1,,,,,,,,,,,,,,,,,,,,,,,,,,,,,,,,,,
,,,,,,,,,,,,,,1,001,2025-01-12_22h04.54.172,IAT(Formal),2021.2.3,Win32,59.17159763,,,,,,,,,,,,,,,e,1,0.4507,,,,,,我的,e,,,0,63,63,51,1,,,,,,,,,,,,,,,,,,,,,,,,,,,,,,,,,,
,,,,,,,,,,,,,,1,001,2025-01-12_22h04.54.172,IAT(Formal),2021.2.3,Win32,59.17159763,,,,,,,,,,,,,,,i,1,0.6191,,,,,,执拗,i,,,0,64,64,40,1,,,,,,,,,,,,,,,,,,,,,,,,,,,,,,,,,,
,,,,,,,,,,,,,,1,001,2025-01-12_22h04.54.172,IAT(Formal),2021.2.3,Win32,59.17159763,,,,,,,,,,,,,,,i,0,0.5688,,,,,,认真,e,,,0,65,65,20,1,,,,,,,,,,,,,,,,,,,,,,,,,,,,,,,,,,
,,,,,,,,,,,,,,1,001,2025-01-12_22h04.54.172,IAT(Formal),2021.2.3,Win32,59.17159763,,,,,,,,,,,,,,,i,1,0.8372,,,,,,愚蠢,i,,,0,66,66,32,1,,,,,,,,,,,,,,,,,,,,,,,,,,,,,,,,,,
,,,,,,,,,,,,,,1,001,2025-01-12_22h04.54.172,IAT(Formal),2021.2.3,Win32,59.17159763,,,,,,,,,,,,,,,e,1,0.7333,,,,,,朴实,e,,,0,67,67,24,1,,,,,,,,,,,,,,,,,,,,,,,,,,,,,,,,,,
,,,,,,,,,,,,,,1,001,2025-01-12_22h04.54.172,IAT(Formal),2021.2.3,Win32,59.17159763,,,,,,,,,,,,,,,i,1,0.5343,,,,,,自卑,i,,,0,68,68,36,1,,,,,,,,,,,,,,,,,,,,,,,,,,,,,,,,,,
,,,,,,,,,,,,,,1,001,2025-01-12_22h04.54.172,IAT(Formal),2021.2.3,Win32,59.17159763,,,,,,,,,,,,,,,i,1,0.6511,,,,,,卑鄙,i,,,0,69,69,30,1,,,,,,,,,,,,,,,,,,,,,,,,,,,,,,,,,,
,,,,,,,,,,,,,,1,001,2025-01-12_22h04.54.172,IAT(Formal),2021.2.3,Win32,59.17159763,,,,,,,,,,,,,,,i,1,0.6717,,,,,,他的,i,,,0,70,70,7,1,,,,,,,,,,,,,,,,,,,,,,,,,,,,,,,,,,
,,,,,,,,,,,,,,1,001,2025-01-12_22h04.54.172,IAT(Formal),2021.2.3,Win32,59.17159763,,,,,,,,,,,,,,,i,1,0.5585,,,,,,冒失,i,,,0,71,71,39,1,,,,,,,,,,,,,,,,,,,,,,,,,,,,,,,,,,
,,,,,,,,,,,,,,1,001,2025-01-12_22h04.54.172,IAT(Formal),2021.2.3,Win32,59.17159763,,,,,,,,,,,,,,,e,1,0.6235,,,,,,俺,e,,,0,72,72,4,1,,,,,,,,,,,,,,,,,,,,,,,,,,,,,,,,,,
,,,,,,,,,,,,,,1,001,2025-01-12_22h04.54.172,IAT(Formal),2021.2.3,Win32,59.17159763,,,,,,,,,,,,,,,i,1,0.5056,,,,,,消极,i,,,0,73,73,35,1,,,,,,,,,,,,,,,,,,,,,,,,,,,,,,,,,,
,,,,,,,,,,,,,,1,001,2025-01-12_22h04.54.172,IAT(Formal),2021.2.3,Win32,59.17159763,,,,,,,,,,,,,,,e,1,0.7957,,,,,,无私,e,,,0,74,74,22,1,,,,,,,,,,,,,,,,,,,,,,,,,,,,,,,,,,
,,,,,,,,,,,,,,1,001,2025-01-12_22h04.54.172,IAT(Formal),2021.2.3,Win32,59.17159763,,,,,,,,,,,,,,,i,1,0.568,,,,,,鲁莽,i,,,0,75,75,38,1,,,,,,,,,,,,,,,,,,,,,,,,,,,,,,,,,,
,,,,,,,,,,,,,,1,001,2025-01-12_22h04.54.172,IAT(Formal),2021.2.3,Win32,59.17159763,,,,,,,,,,,,,,,e,1,0.5015,,,,,,我,e,,,0,76,76,0,1,,,,,,,,,,,,,,,,,,,,,,,,,,,,,,,,,,
,,,,,,,,,,,,,,1,001,2025-01-12_22h04.54.172,IAT(Formal),2021.2.3,Win32,59.17159763,,,,,,,,,,,,,,,e,1,0.3852,,,,,,我们,e,,,0,77,77,2,1,,,,,,,,,,,,,,,,,,,,,,,,,,,,,,,,,,
,,,,,,,,,,,,,,1,001,2025-01-12_22h04.54.172,IAT(Formal),2021.2.3,Win32,59.17159763,,,,,,,,,,,,,,,i,1,0.5854,,,,,,其他,i,,,0,78,78,69,1,,,,,,,,,,,,,,,,,,,,,,,,,,,,,,,,,,
,,,,,,,,,,,,,,1,001,2025-01-12_22h04.54.172,IAT(Formal),2021.2.3,Win32,59.17159763,,,,,,,,,,,,,,,e,1,0.5515,,,,,,细腻,e,,,0,79,79,25,1,,,,,,,,,,,,,,,,,,,,,,,,,,,,,,,,,,
,,,,,,,,,,,,,,1,001,2025-01-12_22h04.54.172,IAT(Formal),2021.2.3,Win32,59.17159763,,,,,,,,,,,,,,,i,0,0.4508,,,,,,我们,e,,,1,0,80,72,1,,,,,,,,,,,,,,,,,,,,,,,,,,,,,,,,,,
,,,,,,,,,,,,,,1,001,2025-01-12_22h04.54.172,IAT(Formal),2021.2.3,Win32,59.17159763,,,,,,,,,,,,,,,e,1,0.6019,,,,,,机智,e,,,1,1,81,19,1,,,,,,,,,,,,,,,,,,,,,,,,,,,,,,,,,,
,,,,,,,,,,,,,,1,001,2025-01-12_22h04.54.172,IAT(Formal),2021.2.3,Win32,59.17159763,,,,,,,,,,,,,,,i,1,0.628,,,,,,散漫,i,,,1,2,82,41,1,,,,,,,,,,,,,,,,,,,,,,,,,,,,,,,,,,
,,,,,,,,,,,,,,1,001,2025-01-12_22h04.54.172,IAT(Formal),2021.2.3,Win32,59.17159763,,,,,,,,,,,,,,,i,1,0.891,,,,,,他,i,,,1,3,83,55,1,,,,,,,,,,,,,,,,,,,,,,,,,,,,,,,,,,
,,,,,,,,,,,,,,1,001,2025-01-12_22h04.54.172,IAT(Formal),2021.2.3,Win32,59.17159763,,,,,,,,,,,,,,,i,1,0.4002,,,,,,他的,i,,,1,4,84,7,1,,,,,,,,,,,,,,,,,,,,,,,,,,,,,,,,,,
,,,,,,,,,,,,,,1,001,2025-01-12_22h04.54.172,IAT(Formal),2021.2.3,Win32,59.17159763,,,,,,,,,,,,,,,e,1,0.4046,,,,,,热情,e,,,1,5,85,27,1,,,,,,,,,,,,,,,,,,,,,,,,,,,,,,,,,,
,,,,,,,,,,,,,,1,001,2025-01-12_22h04.54.172,IAT(Formal),2021.2.3,Win32,59.17159763,,,,,,,,,,,,,,,i,1,0.4688,,,,,,他人,i,,,1,6,86,58,1,,,,,,,,,,,,,,,,,,,,,,,,,,,,,,,,,,
,,,,,,,,,,,,,,1,001,2025-01-12_22h04.54.172,IAT(Formal),2021.2.3,Win32,59.17159763,,,,,,,,,,,,,,,e,1,0.6028,,,,,,俺,e,,,1,7,87,64,1,,,,,,,,,,,,,,,,,,,,,,,,,,,,,,,,,,
,,,,,,,,,,,,,,1,001,2025-01-12_22h04.54.172,IAT(Formal),2021.2.3,Win32,59.17159763,,,,,,,,,,,,,,,e,1,0.5692,,,,,,俺,e,,,1,8,88,4,1,,,,,,,,,,,,,,,,,,,,,,,,,,,,,,,,,,
,,,,,,,,,,,,,,1,001,2025-01-12_22h04.54.172,IAT(Formal),2021.2.3,Win32,59.17159763,,,,,,,,,,,,,,,e,1,0.5339,,,,,,崇高,e,,,1,9,89,11,1,,,,,,,,,,,,,,,,,,,,,,,,,,,,,,,,,,
,,,,,,,,,,,,,,1,001,2025-01-12_22h04.54.172,IAT(Formal),2021.2.3,Win32,59.17159763,,,,,,,,,,,,,,,i,1,0.7511,,,,,,愚蠢,i,,,1,10,90,32,1,,,,,,,,,,,,,,,,,,,,,,,,,,,,,,,,,,
,,,,,,,,,,,,,,1,001,2025-01-12_22h04.54.172,IAT(Formal),2021.2.3,Win32,59.17159763,,,,,,,,,,,,,,,e,1,0.5964,,,,,,我们,e,,,1,11,91,62,1,,,,,,,,,,,,,,,,,,,,,,,,,,,,,,,,,,
,,,,,,,,,,,,,,1,001,2025-01-12_22h04.54.172,IAT(Formal),2021.2.3,Win32,59.17159763,,,,,,,,,,,,,,,e,1,0.6383,,,,,,自己,e,,,1,12,92,63,1,,,,,,,,,,,,,,,,,,,,,,,,,,,,,,,,,,
,,,,,,,,,,,,,,1,001,2025-01-12_22h04.54.172,IAT(Formal),2021.2.3,Win32,59.17159763,,,,,,,,,,,,,,,e,1,0.7187,,,,,,勤奋,e,,,1,13,93,18,1,,,,,,,,,,,,,,,,,,,,,,,,,,,,,,,,,,
,,,,,,,,,,,,,,1,001,2025-01-12_22h04.54.172,IAT(Formal),2021.2.3,Win32,59.17159763,,,,,,,,,,,,,,,i,1,0.6852,,,,,,他们,i,,,1,14,94,76,1,,,,,,,,,,,,,,,,,,,,,,,,,,,,,,,,,,
,,,,,,,,,,,,,,1,001,2025-01-12_22h04.54.172,IAT(Formal),2021.2.3,Win32,59.17159763,,,,,,,,,,,,,,,e,1,0.57,,,,,,勇敢,e,,,1,15,95,17,1,,,,,,,,,,,,,,,,,,,,,,,,,,,,,,,,,,
,,,,,,,,,,,,,,1,001,2025-01-12_22h04.54.172,IAT(Formal),2021.2.3,Win32,59.17159763,,,,,,,,,,,,,,,i,1,0.5891,,,,,,他的,i,,,1,16,96,57,1,,,,,,,,,,,,,,,,,,,,,,,,,,,,,,,,,,
,,,,,,,,,,,,,,1,001,2025-01-12_22h04.54.172,IAT(Formal),2021.2.3,Win32,59.17159763,,,,,,,,,,,,,,,i,1,0.5852,,,,,,他人,i,,,1,17,97,78,1,,,,,,,,,,,,,,,,,,,,,,,,,,,,,,,,,,
,,,,,,,,,,,,,,1,001,2025-01-12_22h04.54.172,IAT(Formal),2021.2.3,Win32,59.17159763,,,,,,,,,,,,,,,e,1,0.7706,,,,,,自己,e,,,1,18,98,53,1,,,,,,,,,,,,,,,,,,,,,,,,,,,,,,,,,,
,,,,,,,,,,,,,,1,001,2025-01-12_22h04.54.172,IAT(Formal),2021.2.3,Win32,59.17159763,,,,,,,,,,,,,,,e,1,0.6009,,,,,,我的,e,,,1,19,99,51,1,,,,,,,,,,,,,,,,,,,,,,,,,,,,,,,,,,
,,,,,,,,,,,,,,1,001,2025-01-12_22h04.54.172,IAT(Formal),2021.2.3,Win32,59.17159763,,,,,,,,,,,,,,,i,1,0.5519,,,,,,他的,i,,,1,20,100,67,1,,,,,,,,,,,,,,,,,,,,,,,,,,,,,,,,,,
,,,,,,,,,,,,,,1,001,2025-01-12_22h04.54.172,IAT(Formal),2021.2.3,Win32,59.17159763,,,,,,,,,,,,,,,e,1,0.769,,,,,,细腻,e,,,1,21,101,25,1,,,,,,,,,,,,,,,,,,,,,,,,,,,,,,,,,,
,,,,,,,,,,,,,,1,001,2025-01-12_22h04.54.172,IAT(Formal),2021.2.3,Win32,59.17159763,,,,,,,,,,,,,,,i,1,0.5918,,,,,,自私,i,,,1,22,102,43,1,,,,,,,,,,,,,,,,,,,,,,,,,,,,,,,,,,
,,,,,,,,,,,,,,1,001,2025-01-12_22h04.54.172,IAT(Formal),2021.2.3,Win32,59.17159763,,,,,,,,,,,,,,,i,1,0.8905,,,,,,他人,i,,,1,23,103,68,1,,,,,,,,,,,,,,,,,,,,,,,,,,,,,,,,,,
,,,,,,,,,,,,,,1,001,2025-01-12_22h04.54.172,IAT(Formal),2021.2.3,Win32,59.17159763,,,,,,,,,,,,,,,e,1,0.5181,,,,,,我,e,,,1,24,104,0,1,,,,,,,,,,,,,,,,,,,,,,,,,,,,,,,,,,
,,,,,,,,,,,,,,1,001,2025-01-12_22h04.54.172,IAT(Formal),2021.2.3,Win32,59.17159763,,,,,,,,,,,,,,,i,0,0.4526,,,,,,我的,e,,,1,25,105,71,1,,,,,,,,,,,,,,,,,,,,,,,,,,,,,,,,,,
,,,,,,,,,,,,,,1,001,2025-01-12_22h04.54.172,IAT(Formal),2021.2.3,Win32,59.17159763,,,,,,,,,,,,,,,i,1,0.651,,,,,,轻率,i,,,1,26,106,48,1,,,,,,,,,,,,,,,,,,,,,,,,,,,,,,,,,,
,,,,,,,,,,,,,,1,001,2025-01-12_22h04.54.172,IAT(Formal),2021.2.3,Win32,59.17159763,,,,,,,,,,,,,,,i,1,0.4894,,,,,,猖狂,i,,,1,27,107,45,1,,,,,,,,,,,,,,,,,,,,,,,,,,,,,,,,,,
,,,,,,,,,,,,,,1,001,2025-01-12_22h04.54.172,IAT(Formal),2021.2.3,Win32,59.17159763,,,,,,,,,,,,,,,e,1,0.4832,,,,,,我,e,,,1,28,108,70,1,,,,,,,,,,,,,,,,,,,,,,,,,,,,,,,,,,
,,,,,,,,,,,,,,1,001,2025-01-12_22h04.54.172,IAT(Formal),2021.2.3,Win32,59.17159763,,,,,,,,,,,,,,,i,1,0.5181,,,,,,他们,i,,,1,29,109,66,1,,,,,,,,,,,,,,,,,,,,,,,,,,,,,,,,,,
,,,,,,,,,,,,,,1,001,2025-01-12_22h04.54.172,IAT(Formal),2021.2.3,Win32,59.17159763,,,,,,,,,,,,,,,i,1,0.534,,,,,,他,i,,,1,30,110,75,1,,,,,,,,,,,,,,,,,,,,,,,,,,,,,,,,,,
,,,,,,,,,,,,,,1,001,2025-01-12_22h04.54.172,IAT(Formal),2021.2.3,Win32,59.17159763,,,,,,,,,,,,,,,i,1,0.5182,,,,,,暴躁,i,,,1,31,111,44,1,,,,,,,,,,,,,,,,,,,,,,,,,,,,,,,,,,
,,,,,,,,,,,,,,1,001,2025-01-12_22h04.54.172,IAT(Formal),2021.2.3,Win32,59.17159763,,,,,,,,,,,,,,,i,1,0.5183,,,,,,悲观,i,,,1,32,112,34,1,,,,,,,,,,,,,,,,,,,,,,,,,,,,,,,,,,
,,,,,,,,,,,,,,1,001,2025-01-12_22h04.54.172,IAT(Formal),2021.2.3,Win32,59.17159763,,,,,,,,,,,,,,,e,1,0.7512,,,,,,自己,e,,,1,33,113,3,1,,,,,,,,,,,,,,,,,,,,,,,,,,,,,,,,,,
,,,,,,,,,,,,,,1,001,2025-01-12_22h04.54.172,IAT(Formal),2021.2.3,Win32,59.17159763,,,,,,,,,,,,,,,i,0,0.5843,,,,,,俺,e,,,1,34,114,74,1,,,,,,,,,,,,,,,,,,,,,,,,,,,,,,,,,,
,,,,,,,,,,,,,,1,001,2025-01-12_22h04.54.172,IAT(Formal),2021.2.3,Win32,59.17159763,,,,,,,,,,,,,,,e,1,1.2414,,,,,,我们,e,,,1,35,115,2,1,,,,,,,,,,,,,,,,,,,,,,,,,,,,,,,,,,
,,,,,,,,,,,,,,1,001,2025-01-12_22h04.54.172,IAT(Formal),2021.2.3,Win32,59.17159763,,,,,,,,,,,,,,,e,1,0.4187,,,,,,我的,e,,,1,36,116,61,1,,,,,,,,,,,,,,,,,,,,,,,,,,,,,,,,,,
,,,,,,,,,,,,,,1,001,2025-01-12_22h04.54.172,IAT(Formal),2021.2.3,Win32,59.17159763,,,,,,,,,,,,,,,e,1,0.5175,,,,,,俺,e,,,1,37,117,54,1,,,,,,,,,,,,,,,,,,,,,,,,,,,,,,,,,,
,,,,,,,,,,,,,,1,001,2025-01-12_22h04.54.172,IAT(Formal),2021.2.3,Win32,59.17159763,,,,,,,,,,,,,,,e,1,0.4729,,,,,,活泼,e,,,1,38,118,28,1,,,,,,,,,,,,,,,,,,,,,,,,,,,,,,,,,,
,,,,,,,,,,,,,,1,001,2025-01-12_22h04.54.172,IAT(Formal),2021.2.3,Win32,59.17159763,,,,,,,,,,,,,,,e,1,0.6014,,,,,,冷静,e,,,1,39,119,26,1,,,,,,,,,,,,,,,,,,,,,,,,,,,,,,,,,,
,,,,,,,,,,,,,,1,001,2025-01-12_22h04.54.172,IAT(Formal),2021.2.3,Win32,59.17159763,,,,,,,,,,,,,,,e,1,0.6251,,,,,,认真,e,,,1,40,120,20,1,,,,,,,,,,,,,,,,,,,,,,,,,,,,,,,,,,
,,,,,,,,,,,,,,1,001,2025-01-12_22h04.54.172,IAT(Formal),2021.2.3,Win32,59.17159763,,,,,,,,,,,,,,,e,1,0.5231,,,,,,自己,e,,,1,41,121,73,1,,,,,,,,,,,,,,,,,,,,,,,,,,,,,,,,,,
,,,,,,,,,,,,,,1,001,2025-01-12_22h04.54.172,IAT(Formal),2021.2.3,Win32,59.17159763,,,,,,,,,,,,,,,i,1,0.7856,,,,,,其他,i,,,1,42,122,59,1,,,,,,,,,,,,,,,,,,,,,,,,,,,,,,,,,,
,,,,,,,,,,,,,,1,001,2025-01-12_22h04.54.172,IAT(Formal),2021.2.3,Win32,59.17159763,,,,,,,,,,,,,,,i,1,0.8175,,,,,,固执,i,,,1,43,123,47,1,,,,,,,,,,,,,,,,,,,,,,,,,,,,,,,,,,
,,,,,,,,,,,,,,1,001,2025-01-12_22h04.54.172,IAT(Formal),2021.2.3,Win32,59.17159763,,,,,,,,,,,,,,,i,1,0.6013,,,,,,他们,i,,,1,44,124,6,1,,,,,,,,,,,,,,,,,,,,,,,,,,,,,,,,,,
,,,,,,,,,,,,,,1,001,2025-01-12_22h04.54.172,IAT(Formal),2021.2.3,Win32,59.17159763,,,,,,,,,,,,,,,i,1,0.4452,,,,,,他,i,,,1,45,125,5,1,,,,,,,,,,,,,,,,,,,,,,,,,,,,,,,,,,
,,,,,,,,,,,,,,1,001,2025-01-12_22h04.54.172,IAT(Formal),2021.2.3,Win32,59.17159763,,,,,,,,,,,,,,,i,1,0.5066,,,,,,虚伪,i,,,1,46,126,31,1,,,,,,,,,,,,,,,,,,,,,,,,,,,,,,,,,,
,,,,,,,,,,,,,,1,001,2025-01-12_22h04.54.172,IAT(Formal),2021.2.3,Win32,59.17159763,,,,,,,,,,,,,,,e,1,0.5184,,,,,,我,e,,,1,47,127,60,1,,,,,,,,,,,,,,,,,,,,,,,,,,,,,,,,,,
,,,,,,,,,,,,,,1,001,2025-01-12_22h04.54.172,IAT(Formal),2021.2.3,Win32,59.17159763,,,,,,,,,,,,,,,i,1,0.5334,,,,,,刻薄,i,,,1,48,128,33,1,,,,,,,,,,,,,,,,,,,,,,,,,,,,,,,,,,
,,,,,,,,,,,,,,1,001,2025-01-12_22h04.54.172,IAT(Formal),2021.2.3,Win32,59.17159763,,,,,,,,,,,,,,,i,1,0.4843,,,,,,其他,i,,,1,49,129,69,1,,,,,,,,,,,,,,,,,,,,,,,,,,,,,,,,,,
,,,,,,,,,,,,,,1,001,2025-01-12_22h04.54.172,IAT(Formal),2021.2.3,Win32,59.17159763,,,,,,,,,,,,,,,e,1,0.5772,,,,,,聪明,e,,,1,50,130,12,1,,,,,,,,,,,,,,,,,,,,,,,,,,,,,,,,,,
,,,,,,,,,,,,,,1,001,2025-01-12_22h04.54.172,IAT(Formal),2021.2.3,Win32,59.17159763,,,,,,,,,,,,,,,i,1,0.5268,,,,,,其他,i,,,1,51,131,9,1,,,,,,,,,,,,,,,,,,,,,,,,,,,,,,,,,,
,,,,,,,,,,,,,,1,001,2025-01-12_22h04.54.172,IAT(Formal),2021.2.3,Win32,59.17159763,,,,,,,,,,,,,,,i,1,0.5175,,,,,,卑鄙,i,,,1,52,132,30,1,,,,,,,,,,,,,,,,,,,,,,,,,,,,,,,,,,
,,,,,,,,,,,,,,1,001,2025-01-12_22h04.54.172,IAT(Formal),2021.2.3,Win32,59.17159763,,,,,,,,,,,,,,,e,1,0.7888,,,,,,诚实,e,,,1,53,133,15,1,,,,,,,,,,,,,,,,,,,,,,,,,,,,,,,,,,
,,,,,,,,,,,,,,1,001,2025-01-12_22h04.54.172,IAT(Formal),2021.2.3,Win32,59.17159763,,,,,,,,,,,,,,,i,1,0.5012,,,,,,他们,i,,,1,54,134,56,1,,,,,,,,,,,,,,,,,,,,,,,,,,,,,,,,,,
,,,,,,,,,,,,,,1,001,2025-01-12_22h04.54.172,IAT(Formal),2021.2.3,Win32,59.17159763,,,,,,,,,,,,,,,e,1,0.5565,,,,,,朴实,e,,,1,55,135,24,1,,,,,,,,,,,,,,,,,,,,,,,,,,,,,,,,,,
,,,,,,,,,,,,,,1,001,2025-01-12_22h04.54.172,IAT(Formal),2021.2.3,Win32,59.17159763,,,,,,,,,,,,,,,e,1,0.523,,,,,,诚恳,e,,,1,56,136,29,1,,,,,,,,,,,,,,,,,,,,,,,,,,,,,,,,,,
,,,,,,,,,,,,,,1,001,2025-01-12_22h04.54.172,IAT(Formal),2021.2.3,Win32,59.17159763,,,,,,,,,,,,,,,i,1,0.5786,,,,,,他人,i,,,1,57,137,8,1,,,,,,,,,,,,,,,,,,,,,,,,,,,,,,,,,,
,,,,,,,,,,,,,,1,001,2025-01-12_22h04.54.172,IAT(Formal),2021.2.3,Win32,59.17159763,,,,,,,,,,,,,,,e,1,0.5032,,,,,,乐观,e,,,1,58,138,14,1,,,,,,,,,,,,,,,,,,,,,,,,,,,,,,,,,,
,,,,,,,,,,,,,,1,001,2025-01-12_22h04.54.172,IAT(Formal),2021.2.3,Win32,59.17159763,,,,,,,,,,,,,,,i,1,0.9844,,,,,,其他,i,,,1,59,139,79,1,,,,,,,,,,,,,,,,,,,,,,,,,,,,,,,,,,
,,,,,,,,,,,,,,1,001,2025-01-12_22h04.54.172,IAT(Formal),2021.2.3,Win32,59.17159763,,,,,,,,,,,,,,,e,1,0.4704,,,,,,正直,e,,,1,60,140,16,1,,,,,,,,,,,,,,,,,,,,,,,,,,,,,,,,,,
,,,,,,,,,,,,,,1,001,2025-01-12_22h04.54.172,IAT(Formal),2021.2.3,Win32,59.17159763,,,,,,,,,,,,,,,i,1,0.5909,,,,,,消极,i,,,1,61,141,35,1,,,,,,,,,,,,,,,,,,,,,,,,,,,,,,,,,,
,,,,,,,,,,,,,,1,001,2025-01-12_22h04.54.172,IAT(Formal),2021.2.3,Win32,59.17159763,,,,,,,,,,,,,,,i,1,0.5892,,,,,,执拗,i,,,1,62,142,40,1,,,,,,,,,,,,,,,,,,,,,,,,,,,,,,,,,,
,,,,,,,,,,,,,,1,001,2025-01-12_22h04.54.172,IAT(Formal),2021.2.3,Win32,59.17159763,,,,,,,,,,,,,,,e,1,0.419,,,,,,我的,e,,,1,63,143,1,1,,,,,,,,,,,,,,,,,,,,,,,,,,,,,,,,,,
,,,,,,,,,,,,,,1,001,2025-01-12_22h04.54.172,IAT(Formal),2021.2.3,Win32,59.17159763,,,,,,,,,,,,,,,e,1,0.5407,,,,,,我们,e,,,1,64,144,52,1,,,,,,,,,,,,,,,,,,,,,,,,,,,,,,,,,,
,,,,,,,,,,,,,,1,001,2025-01-12_22h04.54.172,IAT(Formal),2021.2.3,Win32,59.17159763,,,,,,,,,,,,,,,i,1,0.6856,,,,,,野蛮,i,,,1,65,145,46,1,,,,,,,,,,,,,,,,,,,,,,,,,,,,,,,,,,
,,,,,,,,,,,,,,1,001,2025-01-12_22h04.54.172,IAT(Formal),2021.2.3,Win32,59.17159763,,,,,,,,,,,,,,,e,1,0.5096,,,,,,优秀,e,,,1,66,146,10,1,,,,,,,,,,,,,,,,,,,,,,,,,,,,,,,,,,
,,,,,,,,,,,,,,1,001,2025-01-12_22h04.54.172,IAT(Formal),2021.2.3,Win32,59.17159763,,,,,,,,,,,,,,,e,1,0.5843,,,,,,公正,e,,,1,67,147,23,1,,,,,,,,,,,,,,,,,,,,,,,,,,,,,,,,,,
,,,,,,,,,,,,,,1,001,2025-01-12_22h04.54.172,IAT(Formal),2021.2.3,Win32,59.17159763,,,,,,,,,,,,,,,e,1,0.6853,,,,,,无私,e,,,1,68,148,22,1,,,,,,,,,,,,,,,,,,,,,,,,,,,,,,,,,,
,,,,,,,,,,,,,,1,001,2025-01-12_22h04.54.172,IAT(Formal),2021.2.3,Win32,59.17159763,,,,,,,,,,,,,,,i,1,0.5112,,,,,,自卑,i,,,1,69,149,36,1,,,,,,,,,,,,,,,,,,,,,,,,,,,,,,,,,,
,,,,,,,,,,,,,,1,001,2025-01-12_22h04.54.172,IAT(Formal),2021.2.3,Win32,59.17159763,,,,,,,,,,,,,,,i,1,0.4535,,,,,,傲慢,i,,,1,70,150,37,1,,,,,,,,,,,,,,,,,,,,,,,,,,,,,,,,,,
,,,,,,,,,,,,,,1,001,2025-01-12_22h04.54.172,IAT(Formal),2021.2.3,Win32,59.17159763,,,,,,,,,,,,,,,e,1,0.4518,,,,,,我,e,,,1,71,151,50,1,,,,,,,,,,,,,,,,,,,,,,,,,,,,,,,,,,
,,,,,,,,,,,,,,1,001,2025-01-12_22h04.54.172,IAT(Formal),2021.2.3,Win32,59.17159763,,,,,,,,,,,,,,,e,1,0.5526,,,,,,杰出,e,,,1,72,152,13,1,,,,,,,,,,,,,,,,,,,,,,,,,,,,,,,,,,
,,,,,,,,,,,,,,1,001,2025-01-12_22h04.54.172,IAT(Formal),2021.2.3,Win32,59.17159763,,,,,,,,,,,,,,,i,1,0.4748,,,,,,下贱,i,,,1,73,153,49,1,,,,,,,,,,,,,,,,,,,,,,,,,,,,,,,,,,
,,,,,,,,,,,,,,1,001,2025-01-12_22h04.54.172,IAT(Formal),2021.2.3,Win32,59.17159763,,,,,,,,,,,,,,,i,1,0.5684,,,,,,他的,i,,,1,74,154,77,1,,,,,,,,,,,,,,,,,,,,,,,,,,,,,,,,,,
,,,,,,,,,,,,,,1,001,2025-01-12_22h04.54.172,IAT(Formal),2021.2.3,Win32,59.17159763,,,,,,,,,,,,,,,i,1,0.5185,,,,,,鲁莽,i,,,1,75,155,38,1,,,,,,,,,,,,,,,,,,,,,,,,,,,,,,,,,,
,,,,,,,,,,,,,,1,001,2025-01-12_22h04.54.172,IAT(Formal),2021.2.3,Win32,59.17159763,,,,,,,,,,,,,,,e,1,0.4394,,,,,,稳重,e,,,1,76,156,21,1,,,,,,,,,,,,,,,,,,,,,,,,,,,,,,,,,,
,,,,,,,,,,,,,,1,001,2025-01-12_22h04.54.172,IAT(Formal),2021.2.3,Win32,59.17159763,,,,,,,,,,,,,,,i,1,0.5603,,,,,,冒失,i,,,1,77,157,39,1,,,,,,,,,,,,,,,,,,,,,,,,,,,,,,,,,,
,,,,,,,,,,,,,,1,001,2025-01-12_22h04.54.172,IAT(Formal),2021.2.3,Win32,59.17159763,,,,,,,,,,,,,,,i,1,0.7413,,,,,,他,i,,,1,78,158,65,1,,,,,,,,,,,,,,,,,,,,,,,,,,,,,,,,,,
,,,,,,,,,,,,,,1,001,2025-01-12_22h04.54.172,IAT(Formal),2021.2.3,Win32,59.17159763,,,,,,,,,,,,,,,i,1,0.5218,,,,,,凶狠,i,,,1,79,159,42,1,,,,,,,,,,,,,,,,,,,,,,,,,,,,,,,,,,
,,,,,,,,,,,,我,i,1,001,2025-01-12_22h04.54.172,IAT(Formal),2021.2.3,Win32,59.17159763,,,,,,,,,,,,,,,,,,,,,,,,,,,,,,,,space,21.5608,i,1,0.7549,0,0,0,0,1,,,,,,,,,,,,,,,,,,,,,,,,
,,,,,,,,,,,,他的,e,1,001,2025-01-12_22h04.54.172,IAT(Formal),2021.2.3,Win32,59.17159763,,,,,,,,,,,,,,,,,,,,,,,,,,,,,,,,,,e,1,0.4282,0,1,1,7,1,,,,,,,,,,,,,,,,,,,,,,,,
,,,,,,,,,,,,他们,e,1,001,2025-01-12_22h04.54.172,IAT(Formal),2021.2.3,Win32,59.17159763,,,,,,,,,,,,,,,,,,,,,,,,,,,,,,,,,,e,1,0.5315,0,2,2,6,1,,,,,,,,,,,,,,,,,,,,,,,,
,,,,,,,,,,,,他,e,1,001,2025-01-12_22h04.54.172,IAT(Formal),2021.2.3,Win32,59.17159763,,,,,,,,,,,,,,,,,,,,,,,,,,,,,,,,,,i,0,0.3356,0,3,3,5,1,,,,,,,,,,,,,,,,,,,,,,,,
,,,,,,,,,,,,我们,i,1,001,2025-01-12_22h04.54.172,IAT(Formal),2021.2.3,Win32,59.17159763,,,,,,,,,,,,,,,,,,,,,,,,,,,,,,,,,,i,1,0.8322,0,4,4,2,1,,,,,,,,,,,,,,,,,,,,,,,,
,,,,,,,,,,,,俺,i,1,001,2025-01-12_22h04.54.172,IAT(Formal),2021.2.3,Win32,59.17159763,,,,,,,,,,,,,,,,,,,,,,,,,,,,,,,,,,i,1,0.7541,0,5,5,4,1,,,,,,,,,,,,,,,,,,,,,,,,
,,,,,,,,,,,,我的,i,1,001,2025-01-12_22h04.54.172,IAT(Formal),2021.2.3,Win32,59.17159763,,,,,,,,,,,,,,,,,,,,,,,,,,,,,,,,,,i,1,0.5287,0,6,6,1,1,,,,,,,,,,,,,,,,,,,,,,,,
,,,,,,,,,,,,自己,i,1,001,2025-01-12_22h04.54.172,IAT(Formal),2021.2.3,Win32,59.17159763,,,,,,,,,,,,,,,,,,,,,,,,,,,,,,,,,,i,1,0.5119,0,7,7,3,1,,,,,,,,,,,,,,,,,,,,,,,,
,,,,,,,,,,,,其他,e,1,001,2025-01-12_22h04.54.172,IAT(Formal),2021.2.3,Win32,59.17159763,,,,,,,,,,,,,,,,,,,,,,,,,,,,,,,,,,e,1,0.6289,0,8,8,9,1,,,,,,,,,,,,,,,,,,,,,,,,
,,,,,,,,,,,,他人,e,1,001,2025-01-12_22h04.54.172,IAT(Formal),2021.2.3,Win32,59.17159763,,,,,,,,,,,,,,,,,,,,,,,,,,,,,,,,,,e,1,0.3955,0,9,9,8,1,,,,,,,,,,,,,,,,,,,,,,,,
,,,,,,,,,,,,,,1,001,2025-01-12_22h04.54.172,IAT(Formal),2021.2.3,Win32,59.17159763,,,,,,,,,,,,,,,,,,,,,,,,,,,,,,,,,,,,,,,,,,space,40.7733,i,1,1.4009,0,0,0,33,1,刻薄,i,,,,,,,,,,,,
,,,,,,,,,,,,,,1,001,2025-01-12_22h04.54.172,IAT(Formal),2021.2.3,Win32,59.17159763,,,,,,,,,,,,,,,,,,,,,,,,,,,,,,,,,,,,,,,,,,,,i,1,0.6306,0,1,1,38,1,鲁莽,i,,,,,,,,,,,,
,,,,,,,,,,,,,,1,001,2025-01-12_22h04.54.172,IAT(Formal),2021.2.3,Win32,59.17159763,,,,,,,,,,,,,,,,,,,,,,,,,,,,,,,,,,,,,,,,,,,,i,1,1.002,0,2,2,40,1,执拗,i,,,,,,,,,,,,
,,,,,,,,,,,,,,1,001,2025-01-12_22h04.54.172,IAT(Formal),2021.2.3,Win32,59.17159763,,,,,,,,,,,,,,,,,,,,,,,,,,,,,,,,,,,,,,,,,,,,i,1,0.4988,0,3,3,42,1,凶狠,i,,,,,,,,,,,,
,,,,,,,,,,,,,,1,001,2025-01-12_22h04.54.172,IAT(Formal),2021.2.3,Win32,59.17159763,,,,,,,,,,,,,,,,,,,,,,,,,,,,,,,,,,,,,,,,,,,,i,0,0.7048,0,4,4,78,1,他人,e,,,,,,,,,,,,
,,,,,,,,,,,,,,1,001,2025-01-12_22h04.54.172,IAT(Formal),2021.2.3,Win32,59.17159763,,,,,,,,,,,,,,,,,,,,,,,,,,,,,,,,,,,,,,,,,,,,i,1,1.1,0,5,5,53,1,自己,i,,,,,,,,,,,,
,,,,,,,,,,,,,,1,001,2025-01-12_22h04.54.172,IAT(Formal),2021.2.3,Win32,59.17159763,,,,,,,,,,,,,,,,,,,,,,,,,,,,,,,,,,,,,,,,,,,,i,1,1.0485,0,6,6,0,1,我,i,,,,,,,,,,,,
,,,,,,,,,,,,,,1,001,2025-01-12_22h04.54.172,IAT(Formal),2021.2.3,Win32,59.17159763,,,,,,,,,,,,,,,,,,,,,,,,,,,,,,,,,,,,,,,,,,,,i,1,1.0339,0,7,7,32,1,愚蠢,i,,,,,,,,,,,,
,,,,,,,,,,,,,,1,001,2025-01-12_22h04.54.172,IAT(Formal),2021.2.3,Win32,59.17159763,,,,,,,,,,,,,,,,,,,,,,,,,,,,,,,,,,,,,,,,,,,,i,1,1.0426,0,8,8,60,1,我,i,,,,,,,,,,,,
,,,,,,,,,,,,,,1,001,2025-01-12_22h04.54.172,IAT(Formal),2021.2.3,Win32,59.17159763,,,,,,,,,,,,,,,,,,,,,,,,,,,,,,,,,,,,,,,,,,,,i,1,0.5453,0,9,9,39,1,冒失,i,,,,,,,,,,,,
,,,,,,,,,,,,,,1,001,2025-01-12_22h04.54.172,IAT(Formal),2021.2.3,Win32,59.17159763,,,,,,,,,,,,,,,,,,,,,,,,,,,,,,,,,,,,,,,,,,,,i,1,0.9628,0,10,10,64,1,俺,i,,,,,,,,,,,,
,,,,,,,,,,,,,,1,001,2025-01-12_22h04.54.172,IAT(Formal),2021.2.3,Win32,59.17159763,,,,,,,,,,,,,,,,,,,,,,,,,,,,,,,,,,,,,,,,,,,,e,1,0.8053,0,11,11,77,1,他的,e,,,,,,,,,,,,
,,,,,,,,,,,,,,1,001,2025-01-12_22h04.54.172,IAT(Formal),2021.2.3,Win32,59.17159763,,,,,,,,,,,,,,,,,,,,,,,,,,,,,,,,,,,,,,,,,,,,i,1,0.7489,0,12,12,71,1,我的,i,,,,,,,,,,,,
,,,,,,,,,,,,,,1,001,2025-01-12_22h04.54.172,IAT(Formal),2021.2.3,Win32,59.17159763,,,,,,,,,,,,,,,,,,,,,,,,,,,,,,,,,,,,,,,,,,,,i,1,1.065,0,13,13,63,1,自己,i,,,,,,,,,,,,
,,,,,,,,,,,,,,1,001,2025-01-12_22h04.54.172,IAT(Formal),2021.2.3,Win32,59.17159763,,,,,,,,,,,,,,,,,,,,,,,,,,,,,,,,,,,,,,,,,,,,i,1,1.1116,0,14,14,34,1,悲观,i,,,,,,,,,,,,
,,,,,,,,,,,,,,1,001,2025-01-12_22h04.54.172,IAT(Formal),2021.2.3,Win32,59.17159763,,,,,,,,,,,,,,,,,,,,,,,,,,,,,,,,,,,,,,,,,,,,e,0,0.6623,0,15,15,52,1,我们,i,,,,,,,,,,,,
,,,,,,,,,,,,,,1,001,2025-01-12_22h04.54.172,IAT(Formal),2021.2.3,Win32,59.17159763,,,,,,,,,,,,,,,,,,,,,,,,,,,,,,,,,,,,,,,,,,,,i,1,0.6946,0,16,16,44,1,暴躁,i,,,,,,,,,,,,
,,,,,,,,,,,,,,1,001,2025-01-12_22h04.54.172,IAT(Formal),2021.2.3,Win32,59.17159763,,,,,,,,,,,,,,,,,,,,,,,,,,,,,,,,,,,,,,,,,,,,e,1,0.8951,0,17,17,17,1,勇敢,e,,,,,,,,,,,,
,,,,,,,,,,,,,,1,001,2025-01-12_22h04.54.172,IAT(Formal),2021.2.3,Win32,59.17159763,,,,,,,,,,,,,,,,,,,,,,,,,,,,,,,,,,,,,,,,,,,,i,0,0.5854,0,18,18,67,1,他的,e,,,,,,,,,,,,
,,,,,,,,,,,,,,1,001,2025-01-12_22h04.54.172,IAT(Formal),2021.2.3,Win32,59.17159763,,,,,,,,,,,,,,,,,,,,,,,,,,,,,,,,,,,,,,,,,,,,e,1,1.3761,0,19,19,28,1,活泼,e,,,,,,,,,,,,
,,,,,,,,,,,,,,1,001,2025-01-12_22h04.54.172,IAT(Formal),2021.2.3,Win32,59.17159763,,,,,,,,,,,,,,,,,,,,,,,,,,,,,,,,,,,,,,,,,,,,,0,,0,20,20,74,1,俺,i,,,,,,,,,,,,
,,,,,,,,,,,,,,1,001,2025-01-12_22h04.54.172,IAT(Formal),2021.2.3,Win32,59.17159763,,,,,,,,,,,,,,,,,,,,,,,,,,,,,,,,,,,,,,,,,,,,e,1,1.3945,0,21,21,16,1,正直,e,,,,,,,,,,,,
,,,,,,,,,,,,,,1,001,2025-01-12_22h04.54.172,IAT(Formal),2021.2.3,Win32,59.17159763,,,,,,,,,,,,,,,,,,,,,,,,,,,,,,,,,,,,,,,,,,,,e,1,1.2307,0,22,22,66,1,他们,e,,,,,,,,,,,,
,,,,,,,,,,,,,,1,001,2025-01-12_22h04.54.172,IAT(Formal),2021.2.3,Win32,59.17159763,,,,,,,,,,,,,,,,,,,,,,,,,,,,,,,,,,,,,,,,,,,,e,1,0.6381,0,23,23,19,1,机智,e,,,,,,,,,,,,
,,,,,,,,,,,,,,1,001,2025-01-12_22h04.54.172,IAT(Formal),2021.2.3,Win32,59.17159763,,,,,,,,,,,,,,,,,,,,,,,,,,,,,,,,,,,,,,,,,,,,e,1,0.4652,0,24,24,8,1,他人,e,,,,,,,,,,,,
,,,,,,,,,,,,,,1,001,2025-01-12_22h04.54.172,IAT(Formal),2021.2.3,Win32,59.17159763,,,,,,,,,,,,,,,,,,,,,,,,,,,,,,,,,,,,,,,,,,,,e,1,0.3949,0,25,25,56,1,他们,e,,,,,,,,,,,,
,,,,,,,,,,,,,,1,001,2025-01-12_22h04.54.172,IAT(Formal),2021.2.3,Win32,59.17159763,,,,,,,,,,,,,,,,,,,,,,,,,,,,,,,,,,,,,,,,,,,,i,1,0.5519,0,26,26,45,1,猖狂,i,,,,,,,,,,,,
,,,,,,,,,,,,,,1,001,2025-01-12_22h04.54.172,IAT(Formal),2021.2.3,Win32,59.17159763,,,,,,,,,,,,,,,,,,,,,,,,,,,,,,,,,,,,,,,,,,,,,0,,0,27,27,1,1,我的,i,,,,,,,,,,,,
,,,,,,,,,,,,,,1,001,2025-01-12_22h04.54.172,IAT(Formal),2021.2.3,Win32,59.17159763,,,,,,,,,,,,,,,,,,,,,,,,,,,,,,,,,,,,,,,,,,,,,0,,0,28,28,62,1,我们,i,,,,,,,,,,,,
,,,,,,,,,,,,,,1,001,2025-01-12_22h04.54.172,IAT(Formal),2021.2.3,Win32,59.17159763,,,,,,,,,,,,,,,,,,,,,,,,,,,,,,,,,,,,,,,,,,,,i,1,0.8271,0,29,29,46,1,野蛮,i,,,,,,,,,,,,
,,,,,,,,,,,,,,1,001,2025-01-12_22h04.54.172,IAT(Formal),2021.2.3,Win32,59.17159763,,,,,,,,,,,,,,,,,,,,,,,,,,,,,,,,,,,,,,,,,,,,e,1,1.1435,0,30,30,18,1,勤奋,e,,,,,,,,,,,,
,,,,,,,,,,,,,,1,001,2025-01-12_22h04.54.172,IAT(Formal),2021.2.3,Win32,59.17159763,,,,,,,,,,,,,,,,,,,,,,,,,,,,,,,,,,,,,,,,,,,,i,0,1.3339,0,31,31,68,1,他人,e,,,,,,,,,,,,
,,,,,,,,,,,,,,1,001,2025-01-12_22h04.54.172,IAT(Formal),2021.2.3,Win32,59.17159763,,,,,,,,,,,,,,,,,,,,,,,,,,,,,,,,,,,,,,,,,,,,e,1,0.8281,0,32,32,13,1,杰出,e,,,,,,,,,,,,
,,,,,,,,,,,,,,1,001,2025-01-12_22h04.54.172,IAT(Formal),2021.2.3,Win32,59.17159763,,,,,,,,,,,,,,,,,,,,,,,,,,,,,,,,,,,,,,,,,,,,e,1,0.7106,0,33,33,20,1,认真,e,,,,,,,,,,,,
,,,,,,,,,,,,,,1,001,2025-01-12_22h04.54.172,IAT(Formal),2021.2.3,Win32,59.17159763,,,,,,,,,,,,,,,,,,,,,,,,,,,,,,,,,,,,,,,,,,,,i,1,0.5379,0,34,34,35,1,消极,i,,,,,,,,,,,,
,,,,,,,,,,,,,,1,001,2025-01-12_22h04.54.172,IAT(Formal),2021.2.3,Win32,59.17159763,,,,,,,,,,,,,,,,,,,,,,,,,,,,,,,,,,,,,,,,,,,,e,1,0.6294,0,35,35,7,1,他的,e,,,,,,,,,,,,
,,,,,,,,,,,,,,1,001,2025-01-12_22h04.54.172,IAT(Formal),2021.2.3,Win32,59.17159763,,,,,,,,,,,,,,,,,,,,,,,,,,,,,,,,,,,,,,,,,,,,i,0,1.2099,0,36,36,25,1,细腻,e,,,,,,,,,,,,
,,,,,,,,,,,,,,1,001,2025-01-12_22h04.54.172,IAT(Formal),2021.2.3,Win32,59.17159763,,,,,,,,,,,,,,,,,,,,,,,,,,,,,,,,,,,,,,,,,,,,i,0,1.0043,0,37,37,76,1,他们,e,,,,,,,,,,,,
,,,,,,,,,,,,,,1,001,2025-01-12_22h04.54.172,IAT(Formal),2021.2.3,Win32,59.17159763,,,,,,,,,,,,,,,,,,,,,,,,,,,,,,,,,,,,,,,,,,,,e,1,0.576,0,38,38,75,1,他,e,,,,,,,,,,,,
,,,,,,,,,,,,,,1,001,2025-01-12_22h04.54.172,IAT(Formal),2021.2.3,Win32,59.17159763,,,,,,,,,,,,,,,,,,,,,,,,,,,,,,,,,,,,,,,,,,,,e,1,0.5341,0,39,39,5,1,他,e,,,,,,,,,,,,
,,,,,,,,,,,,,,1,001,2025-01-12_22h04.54.172,IAT(Formal),2021.2.3,Win32,59.17159763,,,,,,,,,,,,,,,,,,,,,,,,,,,,,,,,,,,,,,,,,,,,e,1,0.4236,0,40,40,15,1,诚实,e,,,,,,,,,,,,
,,,,,,,,,,,,,,1,001,2025-01-12_22h04.54.172,IAT(Formal),2021.2.3,Win32,59.17159763,,,,,,,,,,,,,,,,,,,,,,,,,,,,,,,,,,,,,,,,,,,,e,1,0.4189,0,41,41,12,1,聪明,e,,,,,,,,,,,,
,,,,,,,,,,,,,,1,001,2025-01-12_22h04.54.172,IAT(Formal),2021.2.3,Win32,59.17159763,,,,,,,,,,,,,,,,,,,,,,,,,,,,,,,,,,,,,,,,,,,,e,1,0.4848,0,42,42,79,1,其他,e,,,,,,,,,,,,
,,,,,,,,,,,,,,1,001,2025-01-12_22h04.54.172,IAT(Formal),2021.2.3,Win32,59.17159763,,,,,,,,,,,,,,,,,,,,,,,,,,,,,,,,,,,,,,,,,,,,e,1,0.3881,0,43,43,65,1,他,e,,,,,,,,,,,,
,,,,,,,,,,,,,,1,001,2025-01-12_22h04.54.172,IAT(Formal),2021.2.3,Win32,59.17159763,,,,,,,,,,,,,,,,,,,,,,,,,,,,,,,,,,,,,,,,,,,,e,1,0.6309,0,44,44,29,1,诚恳,e,,,,,,,,,,,,
,,,,,,,,,,,,,,1,001,2025-01-12_22h04.54.172,IAT(Formal),2021.2.3,Win32,59.17159763,,,,,,,,,,,,,,,,,,,,,,,,,,,,,,,,,,,,,,,,,,,,i,1,0.5356,0,45,45,31,1,虚伪,i,,,,,,,,,,,,
,,,,,,,,,,,,,,1,001,2025-01-12_22h04.54.172,IAT(Formal),2021.2.3,Win32,59.17159763,,,,,,,,,,,,,,,,,,,,,,,,,,,,,,,,,,,,,,,,,,,,i,1,0.6695,0,46,46,37,1,傲慢,i,,,,,,,,,,,,
,,,,,,,,,,,,,,1,001,2025-01-12_22h04.54.172,IAT(Formal),2021.2.3,Win32,59.17159763,,,,,,,,,,,,,,,,,,,,,,,,,,,,,,,,,,,,,,,,,,,,i,0,0.4273,0,47,47,11,1,崇高,e,,,,,,,,,,,,
,,,,,,,,,,,,,,1,001,2025-01-12_22h04.54.172,IAT(Formal),2021.2.3,Win32,59.17159763,,,,,,,,,,,,,,,,,,,,,,,,,,,,,,,,,,,,,,,,,,,,e,1,0.4616,0,48,48,23,1,公正,e,,,,,,,,,,,,
,,,,,,,,,,,,,,1,001,2025-01-12_22h04.54.172,IAT(Formal),2021.2.3,Win32,59.17159763,,,,,,,,,,,,,,,,,,,,,,,,,,,,,,,,,,,,,,,,,,,,e,1,0.6148,0,49,49,22,1,无私,e,,,,,,,,,,,,
,,,,,,,,,,,,,,1,001,2025-01-12_22h04.54.172,IAT(Formal),2021.2.3,Win32,59.17159763,,,,,,,,,,,,,,,,,,,,,,,,,,,,,,,,,,,,,,,,,,,,i,1,1.1194,0,50,50,4,1,俺,i,,,,,,,,,,,,
,,,,,,,,,,,,,,1,001,2025-01-12_22h04.54.172,IAT(Formal),2021.2.3,Win32,59.17159763,,,,,,,,,,,,,,,,,,,,,,,,,,,,,,,,,,,,,,,,,,,,e,1,0.7563,0,51,51,21,1,稳重,e,,,,,,,,,,,,
,,,,,,,,,,,,,,1,001,2025-01-12_22h04.54.172,IAT(Formal),2021.2.3,Win32,59.17159763,,,,,,,,,,,,,,,,,,,,,,,,,,,,,,,,,,,,,,,,,,,,e,1,0.4113,0,52,52,24,1,朴实,e,,,,,,,,,,,,
,,,,,,,,,,,,,,1,001,2025-01-12_22h04.54.172,IAT(Formal),2021.2.3,Win32,59.17159763,,,,,,,,,,,,,,,,,,,,,,,,,,,,,,,,,,,,,,,,,,,,e,0,0.3909,0,53,53,3,1,自己,i,,,,,,,,,,,,
,,,,,,,,,,,,,,1,001,2025-01-12_22h04.54.172,IAT(Formal),2021.2.3,Win32,59.17159763,,,,,,,,,,,,,,,,,,,,,,,,,,,,,,,,,,,,,,,,,,,,i,1,0.4725,0,54,54,70,1,我,i,,,,,,,,,,,,
,,,,,,,,,,,,,,1,001,2025-01-12_22h04.54.172,IAT(Formal),2021.2.3,Win32,59.17159763,,,,,,,,,,,,,,,,,,,,,,,,,,,,,,,,,,,,,,,,,,,,e,1,0.5678,0,55,55,55,1,他,e,,,,,,,,,,,,
,,,,,,,,,,,,,,1,001,2025-01-12_22h04.54.172,IAT(Formal),2021.2.3,Win32,59.17159763,,,,,,,,,,,,,,,,,,,,,,,,,,,,,,,,,,,,,,,,,,,,e,1,0.6007,0,56,56,69,1,其他,e,,,,,,,,,,,,
,,,,,,,,,,,,,,1,001,2025-01-12_22h04.54.172,IAT(Formal),2021.2.3,Win32,59.17159763,,,,,,,,,,,,,,,,,,,,,,,,,,,,,,,,,,,,,,,,,,,,e,1,0.4342,0,57,57,59,1,其他,e,,,,,,,,,,,,
,,,,,,,,,,,,,,1,001,2025-01-12_22h04.54.172,IAT(Formal),2021.2.3,Win32,59.17159763,,,,,,,,,,,,,,,,,,,,,,,,,,,,,,,,,,,,,,,,,,,,i,1,0.9962,0,58,58,49,1,下贱,i,,,,,,,,,,,,
,,,,,,,,,,,,,,1,001,2025-01-12_22h04.54.172,IAT(Formal),2021.2.3,Win32,59.17159763,,,,,,,,,,,,,,,,,,,,,,,,,,,,,,,,,,,,,,,,,,,,i,1,0.5209,0,59,59,41,1,散漫,i,,,,,,,,,,,,
,,,,,,,,,,,,,,1,001,2025-01-12_22h04.54.172,IAT(Formal),2021.2.3,Win32,59.17159763,,,,,,,,,,,,,,,,,,,,,,,,,,,,,,,,,,,,,,,,,,,,i,0,0.6108,0,60,60,6,1,他们,e,,,,,,,,,,,,
,,,,,,,,,,,,,,1,001,2025-01-12_22h04.54.172,IAT(Formal),2021.2.3,Win32,59.17159763,,,,,,,,,,,,,,,,,,,,,,,,,,,,,,,,,,,,,,,,,,,,i,1,0.7786,0,61,61,61,1,我的,i,,,,,,,,,,,,
,,,,,,,,,,,,,,1,001,2025-01-12_22h04.54.172,IAT(Formal),2021.2.3,Win32,59.17159763,,,,,,,,,,,,,,,,,,,,,,,,,,,,,,,,,,,,,,,,,,,,i,1,0.4608,0,62,62,51,1,我的,i,,,,,,,,,,,,
,,,,,,,,,,,,,,1,001,2025-01-12_22h04.54.172,IAT(Formal),2021.2.3,Win32,59.17159763,,,,,,,,,,,,,,,,,,,,,,,,,,,,,,,,,,,,,,,,,,,,e,1,0.9336,0,63,63,10,1,优秀,e,,,,,,,,,,,,
,,,,,,,,,,,,,,1,001,2025-01-12_22h04.54.172,IAT(Formal),2021.2.3,Win32,59.17159763,,,,,,,,,,,,,,,,,,,,,,,,,,,,,,,,,,,,,,,,,,,,e,1,0.9032,0,64,64,57,1,他的,e,,,,,,,,,,,,
,,,,,,,,,,,,,,1,001,2025-01-12_22h04.54.172,IAT(Formal),2021.2.3,Win32,59.17159763,,,,,,,,,,,,,,,,,,,,,,,,,,,,,,,,,,,,,,,,,,,,i,1,0.7769,0,65,65,72,1,我们,i,,,,,,,,,,,,
,,,,,,,,,,,,,,1,001,2025-01-12_22h04.54.172,IAT(Formal),2021.2.3,Win32,59.17159763,,,,,,,,,,,,,,,,,,,,,,,,,,,,,,,,,,,,,,,,,,,,i,1,1.2439,0,66,66,43,1,自私,i,,,,,,,,,,,,
,,,,,,,,,,,,,,1,001,2025-01-12_22h04.54.172,IAT(Formal),2021.2.3,Win32,59.17159763,,,,,,,,,,,,,,,,,,,,,,,,,,,,,,,,,,,,,,,,,,,,i,1,0.5345,0,67,67,50,1,我,i,,,,,,,,,,,,
,,,,,,,,,,,,,,1,001,2025-01-12_22h04.54.172,IAT(Formal),2021.2.3,Win32,59.17159763,,,,,,,,,,,,,,,,,,,,,,,,,,,,,,,,,,,,,,,,,,,,i,1,0.8613,0,68,68,47,1,固执,i,,,,,,,,,,,,
,,,,,,,,,,,,,,1,001,2025-01-12_22h04.54.172,IAT(Formal),2021.2.3,Win32,59.17159763,,,,,,,,,,,,,,,,,,,,,,,,,,,,,,,,,,,,,,,,,,,,i,0,0.5191,0,69,69,58,1,他人,e,,,,,,,,,,,,
,,,,,,,,,,,,,,1,001,2025-01-12_22h04.54.172,IAT(Formal),2021.2.3,Win32,59.17159763,,,,,,,,,,,,,,,,,,,,,,,,,,,,,,,,,,,,,,,,,,,,e,0,0.6656,0,70,70,54,1,俺,i,,,,,,,,,,,,
,,,,,,,,,,,,,,1,001,2025-01-12_22h04.54.172,IAT(Formal),2021.2.3,Win32,59.17159763,,,,,,,,,,,,,,,,,,,,,,,,,,,,,,,,,,,,,,,,,,,,e,1,1.0342,0,71,71,14,1,乐观,e,,,,,,,,,,,,
,,,,,,,,,,,,,,1,001,2025-01-12_22h04.54.172,IAT(Formal),2021.2.3,Win32,59.17159763,,,,,,,,,,,,,,,,,,,,,,,,,,,,,,,,,,,,,,,,,,,,i,0,1.1202,0,72,72,9,1,其他,e,,,,,,,,,,,,
,,,,,,,,,,,,,,1,001,2025-01-12_22h04.54.172,IAT(Formal),2021.2.3,Win32,59.17159763,,,,,,,,,,,,,,,,,,,,,,,,,,,,,,,,,,,,,,,,,,,,e,1,1.0804,0,73,73,27,1,热情,e,,,,,,,,,,,,
,,,,,,,,,,,,,,1,001,2025-01-12_22h04.54.172,IAT(Formal),2021.2.3,Win32,59.17159763,,,,,,,,,,,,,,,,,,,,,,,,,,,,,,,,,,,,,,,,,,,,i,1,0.9454,0,74,74,30,1,卑鄙,i,,,,,,,,,,,,
,,,,,,,,,,,,,,1,001,2025-01-12_22h04.54.172,IAT(Formal),2021.2.3,Win32,59.17159763,,,,,,,,,,,,,,,,,,,,,,,,,,,,,,,,,,,,,,,,,,,,i,1,0.9272,0,75,75,2,1,我们,i,,,,,,,,,,,,
,,,,,,,,,,,,,,1,001,2025-01-12_22h04.54.172,IAT(Formal),2021.2.3,Win32,59.17159763,,,,,,,,,,,,,,,,,,,,,,,,,,,,,,,,,,,,,,,,,,,,i,1,0.7983,0,76,76,36,1,自卑,i,,,,,,,,,,,,
,,,,,,,,,,,,,,1,001,2025-01-12_22h04.54.172,IAT(Formal),2021.2.3,Win32,59.17159763,,,,,,,,,,,,,,,,,,,,,,,,,,,,,,,,,,,,,,,,,,,,i,1,0.5535,0,77,77,73,1,自己,i,,,,,,,,,,,,
,,,,,,,,,,,,,,1,001,2025-01-12_22h04.54.172,IAT(Formal),2021.2.3,Win32,59.17159763,,,,,,,,,,,,,,,,,,,,,,,,,,,,,,,,,,,,,,,,,,,,i,1,0.6639,0,78,78,48,1,轻率,i,,,,,,,,,,,,
,,,,,,,,,,,,,,1,001,2025-01-12_22h04.54.172,IAT(Formal),2021.2.3,Win32,59.17159763,,,,,,,,,,,,,,,,,,,,,,,,,,,,,,,,,,,,,,,,,,,,e,1,0.7606,0,79,79,26,1,冷静,e,,,,,,,,,,,,
,,,,,,,,,,,,,,1,001,2025-01-12_22h04.54.172,IAT(Formal),2021.2.3,Win32,59.17159763,,,,,,,,,,,,,,,,,,,,,,,,,,,,,,,,,,,,,,,,,,,,,,,,,,,,细腻,e,space,9.4422,,0,0,0,0,25,1,,,
,,,,,,,,,,,,,,1,001,2025-01-12_22h04.54.172,IAT(Formal),2021.2.3,Win32,59.17159763,,,,,,,,,,,,,,,,,,,,,,,,,,,,,,,,,,,,,,,,,,,,,,,,,,,,我们,i,,,i,1,0,1,1,2,1,0.9234,,
,,,,,,,,,,,,,,1,001,2025-01-12_22h04.54.172,IAT(Formal),2021.2.3,Win32,59.17159763,,,,,,,,,,,,,,,,,,,,,,,,,,,,,,,,,,,,,,,,,,,,,,,,,,,,悲观,i,,,,0,0,2,2,34,1,,,
,,,,,,,,,,,,,,1,001,2025-01-12_22h04.54.172,IAT(Formal),2021.2.3,Win32,59.17159763,,,,,,,,,,,,,,,,,,,,,,,,,,,,,,,,,,,,,,,,,,,,,,,,,,,,执拗,i,,,e,0,0,3,3,40,1,1.0303,,
,,,,,,,,,,,,,,1,001,2025-01-12_22h04.54.172,IAT(Formal),2021.2.3,Win32,59.17159763,,,,,,,,,,,,,,,,,,,,,,,,,,,,,,,,,,,,,,,,,,,,,,,,,,,,冒失,i,,,i,1,0,4,4,39,1,0.6121,,
,,,,,,,,,,,,,,1,001,2025-01-12_22h04.54.172,IAT(Formal),2021.2.3,Win32,59.17159763,,,,,,,,,,,,,,,,,,,,,,,,,,,,,,,,,,,,,,,,,,,,,,,,,,,,勇敢,e,,,e,1,0,5,5,17,1,0.5366,,
,,,,,,,,,,,,,,1,001,2025-01-12_22h04.54.172,IAT(Formal),2021.2.3,Win32,59.17159763,,,,,,,,,,,,,,,,,,,,,,,,,,,,,,,,,,,,,,,,,,,,,,,,,,,,俺,i,,,e,0,0,6,6,54,1,0.5419,,
,,,,,,,,,,,,,,1,001,2025-01-12_22h04.54.172,IAT(Formal),2021.2.3,Win32,59.17159763,,,,,,,,,,,,,,,,,,,,,,,,,,,,,,,,,,,,,,,,,,,,,,,,,,,,虚伪,i,,,i,1,0,7,7,31,1,0.612,,
,,,,,,,,,,,,,,1,001,2025-01-12_22h04.54.172,IAT(Formal),2021.2.3,Win32,59.17159763,,,,,,,,,,,,,,,,,,,,,,,,,,,,,,,,,,,,,,,,,,,,,,,,,,,,他人,e,,,e,1,0,8,8,58,1,0.6056,,
,,,,,,,,,,,,,,1,001,2025-01-12_22h04.54.172,IAT(Formal),2021.2.3,Win32,59.17159763,,,,,,,,,,,,,,,,,,,,,,,,,,,,,,,,,,,,,,,,,,,,,,,,,,,,我,i,,,i,1,0,9,9,70,1,0.5952,,
,,,,,,,,,,,,,,1,001,2025-01-12_22h04.54.172,IAT(Formal),2021.2.3,Win32,59.17159763,,,,,,,,,,,,,,,,,,,,,,,,,,,,,,,,,,,,,,,,,,,,,,,,,,,,自卑,i,,,i,1,0,10,10,36,1,0.6032,,
,,,,,,,,,,,,,,1,001,2025-01-12_22h04.54.172,IAT(Formal),2021.2.3,Win32,59.17159763,,,,,,,,,,,,,,,,,,,,,,,,,,,,,,,,,,,,,,,,,,,,,,,,,,,,无私,e,,,e,1,0,11,11,22,1,0.6211,,
,,,,,,,,,,,,,,1,001,2025-01-12_22h04.54.172,IAT(Formal),2021.2.3,Win32,59.17159763,,,,,,,,,,,,,,,,,,,,,,,,,,,,,,,,,,,,,,,,,,,,,,,,,,,,他的,e,,,i,0,0,12,12,67,1,0.6496,,
,,,,,,,,,,,,,,1,001,2025-01-12_22h04.54.172,IAT(Formal),2021.2.3,Win32,59.17159763,,,,,,,,,,,,,,,,,,,,,,,,,,,,,,,,,,,,,,,,,,,,,,,,,,,,他,e,,,e,1,0,13,13,75,1,0.4472,,
,,,,,,,,,,,,,,1,001,2025-01-12_22h04.54.172,IAT(Formal),2021.2.3,Win32,59.17159763,,,,,,,,,,,,,,,,,,,,,,,,,,,,,,,,,,,,,,,,,,,,,,,,,,,,我们,i,,,i,1,0,14,14,72,1,0.5738,,
,,,,,,,,,,,,,,1,001,2025-01-12_22h04.54.172,IAT(Formal),2021.2.3,Win32,59.17159763,,,,,,,,,,,,,,,,,,,,,,,,,,,,,,,,,,,,,,,,,,,,,,,,,,,,他,e,,,e,1,0,15,15,5,1,0.5777,,
,,,,,,,,,,,,,,1,001,2025-01-12_22h04.54.172,IAT(Formal),2021.2.3,Win32,59.17159763,,,,,,,,,,,,,,,,,,,,,,,,,,,,,,,,,,,,,,,,,,,,,,,,,,,,他人,e,,,e,1,0,16,16,68,1,0.5266,,
,,,,,,,,,,,,,,1,001,2025-01-12_22h04.54.172,IAT(Formal),2021.2.3,Win32,59.17159763,,,,,,,,,,,,,,,,,,,,,,,,,,,,,,,,,,,,,,,,,,,,,,,,,,,,野蛮,i,,,e,0,0,17,17,46,1,0.6045,,
,,,,,,,,,,,,,,1,001,2025-01-12_22h04.54.172,IAT(Formal),2021.2.3,Win32,59.17159763,,,,,,,,,,,,,,,,,,,,,,,,,,,,,,,,,,,,,,,,,,,,,,,,,,,,下贱,i,,,i,1,0,18,18,49,1,0.5021,,
,,,,,,,,,,,,,,1,001,2025-01-12_22h04.54.172,IAT(Formal),2021.2.3,Win32,59.17159763,,,,,,,,,,,,,,,,,,,,,,,,,,,,,,,,,,,,,,,,,,,,,,,,,,,,卑鄙,i,,,i,1,0,19,19,30,1,0.4392,,
,,,,,,,,,,,,,,1,001,2025-01-12_22h04.54.172,IAT(Formal),2021.2.3,Win32,59.17159763,,,,,,,,,,,,,,,,,,,,,,,,,,,,,,,,,,,,,,,,,,,,,,,,,,,,散漫,i,,,i,1,0,20,20,41,1,0.5149,,
,,,,,,,,,,,,,,1,001,2025-01-12_22h04.54.172,IAT(Formal),2021.2.3,Win32,59.17159763,,,,,,,,,,,,,,,,,,,,,,,,,,,,,,,,,,,,,,,,,,,,,,,,,,,,他人,e,,,e,1,0,21,21,8,1,0.699,,
,,,,,,,,,,,,,,1,001,2025-01-12_22h04.54.172,IAT(Formal),2021.2.3,Win32,59.17159763,,,,,,,,,,,,,,,,,,,,,,,,,,,,,,,,,,,,,,,,,,,,,,,,,,,,热情,e,,,i,0,0,22,22,27,1,0.6055,,
,,,,,,,,,,,,,,1,001,2025-01-12_22h04.54.172,IAT(Formal),2021.2.3,Win32,59.17159763,,,,,,,,,,,,,,,,,,,,,,,,,,,,,,,,,,,,,,,,,,,,,,,,,,,,认真,e,,,e,1,0,23,23,20,1,0.6842,,
,,,,,,,,,,,,,,1,001,2025-01-12_22h04.54.172,IAT(Formal),2021.2.3,Win32,59.17159763,,,,,,,,,,,,,,,,,,,,,,,,,,,,,,,,,,,,,,,,,,,,,,,,,,,,傲慢,i,,,i,1,0,24,24,37,1,0.6303,,
,,,,,,,,,,,,,,1,001,2025-01-12_22h04.54.172,IAT(Formal),2021.2.3,Win32,59.17159763,,,,,,,,,,,,,,,,,,,,,,,,,,,,,,,,,,,,,,,,,,,,,,,,,,,,我的,i,,,i,1,0,25,25,51,1,0.8622,,
,,,,,,,,,,,,,,1,001,2025-01-12_22h04.54.172,IAT(Formal),2021.2.3,Win32,59.17159763,,,,,,,,,,,,,,,,,,,,,,,,,,,,,,,,,,,,,,,,,,,,,,,,,,,,俺,i,,,i,1,0,26,26,4,1,0.6383,,
,,,,,,,,,,,,,,1,001,2025-01-12_22h04.54.172,IAT(Formal),2021.2.3,Win32,59.17159763,,,,,,,,,,,,,,,,,,,,,,,,,,,,,,,,,,,,,,,,,,,,,,,,,,,,自己,i,,,i,1,0,27,27,53,1,0.5108,,
,,,,,,,,,,,,,,1,001,2025-01-12_22h04.54.172,IAT(Formal),2021.2.3,Win32,59.17159763,,,,,,,,,,,,,,,,,,,,,,,,,,,,,,,,,,,,,,,,,,,,,,,,,,,,他们,e,,,e,1,0,28,28,76,1,0.6309,,
,,,,,,,,,,,,,,1,001,2025-01-12_22h04.54.172,IAT(Formal),2021.2.3,Win32,59.17159763,,,,,,,,,,,,,,,,,,,,,,,,,,,,,,,,,,,,,,,,,,,,,,,,,,,,他的,e,,,e,1,0,29,29,57,1,1.4541,,
,,,,,,,,,,,,,,1,001,2025-01-12_22h04.54.172,IAT(Formal),2021.2.3,Win32,59.17159763,,,,,,,,,,,,,,,,,,,,,,,,,,,,,,,,,,,,,,,,,,,,,,,,,,,,机智,e,,,e,1,0,30,30,19,1,0.5962,,
,,,,,,,,,,,,,,1,001,2025-01-12_22h04.54.172,IAT(Formal),2021.2.3,Win32,59.17159763,,,,,,,,,,,,,,,,,,,,,,,,,,,,,,,,,,,,,,,,,,,,,,,,,,,,聪明,e,,,e,1,0,31,31,12,1,0.3939,,
,,,,,,,,,,,,,,1,001,2025-01-12_22h04.54.172,IAT(Formal),2021.2.3,Win32,59.17159763,,,,,,,,,,,,,,,,,,,,,,,,,,,,,,,,,,,,,,,,,,,,,,,,,,,,朴实,e,,,e,1,0,32,32,24,1,0.4776,,
,,,,,,,,,,,,,,1,001,2025-01-12_22h04.54.172,IAT(Formal),2021.2.3,Win32,59.17159763,,,,,,,,,,,,,,,,,,,,,,,,,,,,,,,,,,,,,,,,,,,,,,,,,,,,公正,e,,,e,1,0,33,33,23,1,0.3893,,
,,,,,,,,,,,,,,1,001,2025-01-12_22h04.54.172,IAT(Formal),2021.2.3,Win32,59.17159763,,,,,,,,,,,,,,,,,,,,,,,,,,,,,,,,,,,,,,,,,,,,,,,,,,,,他,e,,,e,1,0,34,34,55,1,0.3977,,
,,,,,,,,,,,,,,1,001,2025-01-12_22h04.54.172,IAT(Formal),2021.2.3,Win32,59.17159763,,,,,,,,,,,,,,,,,,,,,,,,,,,,,,,,,,,,,,,,,,,,,,,,,,,,其他,e,,,e,1,0,35,35,59,1,0.6946,,
,,,,,,,,,,,,,,1,001,2025-01-12_22h04.54.172,IAT(Formal),2021.2.3,Win32,59.17159763,,,,,,,,,,,,,,,,,,,,,,,,,,,,,,,,,,,,,,,,,,,,,,,,,,,,我们,i,,,i,1,0,36,36,52,1,0.6123,,
,,,,,,,,,,,,,,1,001,2025-01-12_22h04.54.172,IAT(Formal),2021.2.3,Win32,59.17159763,,,,,,,,,,,,,,,,,,,,,,,,,,,,,,,,,,,,,,,,,,,,,,,,,,,,其他,e,,,e,1,0,37,37,9,1,0.682,,
,,,,,,,,,,,,,,1,001,2025-01-12_22h04.54.172,IAT(Formal),2021.2.3,Win32,59.17159763,,,,,,,,,,,,,,,,,,,,,,,,,,,,,,,,,,,,,,,,,,,,,,,,,,,,稳重,e,,,e,1,0,38,38,21,1,0.7508,,
,,,,,,,,,,,,,,1,001,2025-01-12_22h04.54.172,IAT(Formal),2021.2.3,Win32,59.17159763,,,,,,,,,,,,,,,,,,,,,,,,,,,,,,,,,,,,,,,,,,,,,,,,,,,,我们,i,,,i,1,0,39,39,62,1,0.9344,,
,,,,,,,,,,,,,,1,001,2025-01-12_22h04.54.172,IAT(Formal),2021.2.3,Win32,59.17159763,,,,,,,,,,,,,,,,,,,,,,,,,,,,,,,,,,,,,,,,,,,,,,,,,,,,勤奋,e,,,e,1,0,40,40,18,1,0.6012,,
,,,,,,,,,,,,,,1,001,2025-01-12_22h04.54.172,IAT(Formal),2021.2.3,Win32,59.17159763,,,,,,,,,,,,,,,,,,,,,,,,,,,,,,,,,,,,,,,,,,,,,,,,,,,,他的,e,,,i,0,0,41,41,7,1,0.4624,,
,,,,,,,,,,,,,,1,001,2025-01-12_22h04.54.172,IAT(Formal),2021.2.3,Win32,59.17159763,,,,,,,,,,,,,,,,,,,,,,,,,,,,,,,,,,,,,,,,,,,,,,,,,,,,自己,i,,,i,1,0,42,42,3,1,0.3972,,
,,,,,,,,,,,,,,1,001,2025-01-12_22h04.54.172,IAT(Formal),2021.2.3,Win32,59.17159763,,,,,,,,,,,,,,,,,,,,,,,,,,,,,,,,,,,,,,,,,,,,,,,,,,,,自己,i,,,i,1,0,43,43,73,1,0.434,,
,,,,,,,,,,,,,,1,001,2025-01-12_22h04.54.172,IAT(Formal),2021.2.3,Win32,59.17159763,,,,,,,,,,,,,,,,,,,,,,,,,,,,,,,,,,,,,,,,,,,,,,,,,,,,优秀,e,,,i,0,0,44,44,10,1,0.4827,,
,,,,,,,,,,,,,,1,001,2025-01-12_22h04.54.172,IAT(Formal),2021.2.3,Win32,59.17159763,,,,,,,,,,,,,,,,,,,,,,,,,,,,,,,,,,,,,,,,,,,,,,,,,,,,我的,i,,,i,1,0,45,45,71,1,0.5185,,
,,,,,,,,,,,,,,1,001,2025-01-12_22h04.54.172,IAT(Formal),2021.2.3,Win32,59.17159763,,,,,,,,,,,,,,,,,,,,,,,,,,,,,,,,,,,,,,,,,,,,,,,,,,,,诚恳,e,,,e,1,0,46,46,29,1,0.6215,,
,,,,,,,,,,,,,,1,001,2025-01-12_22h04.54.172,IAT(Formal),2021.2.3,Win32,59.17159763,,,,,,,,,,,,,,,,,,,,,,,,,,,,,,,,,,,,,,,,,,,,,,,,,,,,消极,i,,,i,1,0,47,47,35,1,1.339,,
,,,,,,,,,,,,,,1,001,2025-01-12_22h04.54.172,IAT(Formal),2021.2.3,Win32,59.17159763,,,,,,,,,,,,,,,,,,,,,,,,,,,,,,,,,,,,,,,,,,,,,,,,,,,,他们,e,,,e,1,0,48,48,6,1,0.6618,,
,,,,,,,,,,,,,,1,001,2025-01-12_22h04.54.172,IAT(Formal),2021.2.3,Win32,59.17159763,,,,,,,,,,,,,,,,,,,,,,,,,,,,,,,,,,,,,,,,,,,,,,,,,,,,猖狂,i,,,i,1,0,49,49,45,1,0.6201,,
,,,,,,,,,,,,,,1,001,2025-01-12_22h04.54.172,IAT(Formal),2021.2.3,Win32,59.17159763,,,,,,,,,,,,,,,,,,,,,,,,,,,,,,,,,,,,,,,,,,,,,,,,,,,,他,e,,,i,0,0,50,50,65,1,0.4804,,
,,,,,,,,,,,,,,1,001,2025-01-12_22h04.54.172,IAT(Formal),2021.2.3,Win32,59.17159763,,,,,,,,,,,,,,,,,,,,,,,,,,,,,,,,,,,,,,,,,,,,,,,,,,,,诚实,e,,,e,1,0,51,51,15,1,0.6835,,
,,,,,,,,,,,,,,1,001,2025-01-12_22h04.54.172,IAT(Formal),2021.2.3,Win32,59.17159763,,,,,,,,,,,,,,,,,,,,,,,,,,,,,,,,,,,,,,,,,,,,,,,,,,,,他们,e,,,i,0,0,52,52,56,1,0.6287,,
,,,,,,,,,,,,,,1,001,2025-01-12_22h04.54.172,IAT(Formal),2021.2.3,Win32,59.17159763,,,,,,,,,,,,,,,,,,,,,,,,,,,,,,,,,,,,,,,,,,,,,,,,,,,,冷静,e,,,e,1,0,53,53,26,1,0.9935,,
,,,,,,,,,,,,,,1,001,2025-01-12_22h04.54.172,IAT(Formal),2021.2.3,Win32,59.17159763,,,,,,,,,,,,,,,,,,,,,,,,,,,,,,,,,,,,,,,,,,,,,,,,,,,,他们,e,,,e,1,0,54,54,66,1,0.6444,,
,,,,,,,,,,,,,,1,001,2025-01-12_22h04.54.172,IAT(Formal),2021.2.3,Win32,59.17159763,,,,,,,,,,,,,,,,,,,,,,,,,,,,,,,,,,,,,,,,,,,,,,,,,,,,我,i,,,i,1,0,55,55,60,1,0.6127,,
,,,,,,,,,,,,,,1,001,2025-01-12_22h04.54.172,IAT(Formal),2021.2.3,Win32,59.17159763,,,,,,,,,,,,,,,,,,,,,,,,,,,,,,,,,,,,,,,,,,,,,,,,,,,,我的,i,,,i,1,0,56,56,61,1,0.956,,
,,,,,,,,,,,,,,1,001,2025-01-12_22h04.54.172,IAT(Formal),2021.2.3,Win32,59.17159763,,,,,,,,,,,,,,,,,,,,,,,,,,,,,,,,,,,,,,,,,,,,,,,,,,,,愚蠢,i,,,e,0,0,57,57,32,1,0.4938,,
,,,,,,,,,,,,,,1,001,2025-01-12_22h04.54.172,IAT(Formal),2021.2.3,Win32,59.17159763,,,,,,,,,,,,,,,,,,,,,,,,,,,,,,,,,,,,,,,,,,,,,,,,,,,,自己,i,,,i,1,0,58,58,63,1,0.8099,,
,,,,,,,,,,,,,,1,001,2025-01-12_22h04.54.172,IAT(Formal),2021.2.3,Win32,59.17159763,,,,,,,,,,,,,,,,,,,,,,,,,,,,,,,,,,,,,,,,,,,,,,,,,,,,鲁莽,i,,,i,1,0,59,59,38,1,0.4669,,
,,,,,,,,,,,,,,1,001,2025-01-12_22h04.54.172,IAT(Formal),2021.2.3,Win32,59.17159763,,,,,,,,,,,,,,,,,,,,,,,,,,,,,,,,,,,,,,,,,,,,,,,,,,,,他人,e,,,i,0,0,60,60,78,1,0.6891,,
,,,,,,,,,,,,,,1,001,2025-01-12_22h04.54.172,IAT(Formal),2021.2.3,Win32,59.17159763,,,,,,,,,,,,,,,,,,,,,,,,,,,,,,,,,,,,,,,,,,,,,,,,,,,,其他,e,,,e,1,0,61,61,69,1,0.6021,,
,,,,,,,,,,,,,,1,001,2025-01-12_22h04.54.172,IAT(Formal),2021.2.3,Win32,59.17159763,,,,,,,,,,,,,,,,,,,,,,,,,,,,,,,,,,,,,,,,,,,,,,,,,,,,暴躁,i,,,e,0,0,62,62,44,1,0.5477,,
,,,,,,,,,,,,,,1,001,2025-01-12_22h04.54.172,IAT(Formal),2021.2.3,Win32,59.17159763,,,,,,,,,,,,,,,,,,,,,,,,,,,,,,,,,,,,,,,,,,,,,,,,,,,,轻率,i,,,i,1,0,63,63,48,1,0.7607,,
,,,,,,,,,,,,,,1,001,2025-01-12_22h04.54.172,IAT(Formal),2021.2.3,Win32,59.17159763,,,,,,,,,,,,,,,,,,,,,,,,,,,,,,,,,,,,,,,,,,,,,,,,,,,,自私,i,,,i,1,0,64,64,43,1,0.6181,,
,,,,,,,,,,,,,,1,001,2025-01-12_22h04.54.172,IAT(Formal),2021.2.3,Win32,59.17159763,,,,,,,,,,,,,,,,,,,,,,,,,,,,,,,,,,,,,,,,,,,,,,,,,,,,刻薄,i,,,i,1,0,65,65,33,1,0.6165,,
,,,,,,,,,,,,,,1,001,2025-01-12_22h04.54.172,IAT(Formal),2021.2.3,Win32,59.17159763,,,,,,,,,,,,,,,,,,,,,,,,,,,,,,,,,,,,,,,,,,,,,,,,,,,,他的,e,,,e,1,0,66,66,77,1,0.9439,,
,,,,,,,,,,,,,,1,001,2025-01-12_22h04.54.172,IAT(Formal),2021.2.3,Win32,59.17159763,,,,,,,,,,,,,,,,,,,,,,,,,,,,,,,,,,,,,,,,,,,,,,,,,,,,崇高,e,,,e,1,0,67,67,11,1,0.5409,,
,,,,,,,,,,,,,,1,001,2025-01-12_22h04.54.172,IAT(Formal),2021.2.3,Win32,59.17159763,,,,,,,,,,,,,,,,,,,,,,,,,,,,,,,,,,,,,,,,,,,,,,,,,,,,凶狠,i,,,i,1,0,68,68,42,1,0.6168,,
,,,,,,,,,,,,,,1,001,2025-01-12_22h04.54.172,IAT(Formal),2021.2.3,Win32,59.17159763,,,,,,,,,,,,,,,,,,,,,,,,,,,,,,,,,,,,,,,,,,,,,,,,,,,,俺,i,,,i,1,0,69,69,74,1,1.1004,,
,,,,,,,,,,,,,,1,001,2025-01-12_22h04.54.172,IAT(Formal),2021.2.3,Win32,59.17159763,,,,,,,,,,,,,,,,,,,,,,,,,,,,,,,,,,,,,,,,,,,,,,,,,,,,我,i,,,i,1,0,70,70,0,1,0.5386,,
,,,,,,,,,,,,,,1,001,2025-01-12_22h04.54.172,IAT(Formal),2021.2.3,Win32,59.17159763,,,,,,,,,,,,,,,,,,,,,,,,,,,,,,,,,,,,,,,,,,,,,,,,,,,,我的,i,,,i,1,0,71,71,1,1,0.5363,,
,,,,,,,,,,,,,,1,001,2025-01-12_22h04.54.172,IAT(Formal),2021.2.3,Win32,59.17159763,,,,,,,,,,,,,,,,,,,,,,,,,,,,,,,,,,,,,,,,,,,,,,,,,,,,杰出,e,,,i,0,0,72,72,13,1,0.7954,,
,,,,,,,,,,,,,,1,001,2025-01-12_22h04.54.172,IAT(Formal),2021.2.3,Win32,59.17159763,,,,,,,,,,,,,,,,,,,,,,,,,,,,,,,,,,,,,,,,,,,,,,,,,,,,俺,i,,,i,1,0,73,73,64,1,0.5269,,
,,,,,,,,,,,,,,1,001,2025-01-12_22h04.54.172,IAT(Formal),2021.2.3,Win32,59.17159763,,,,,,,,,,,,,,,,,,,,,,,,,,,,,,,,,,,,,,,,,,,,,,,,,,,,正直,e,,,e,1,0,74,74,16,1,0.5643,,
,,,,,,,,,,,,,,1,001,2025-01-12_22h04.54.172,IAT(Formal),2021.2.3,Win32,59.17159763,,,,,,,,,,,,,,,,,,,,,,,,,,,,,,,,,,,,,,,,,,,,,,,,,,,,乐观,e,,,e,1,0,75,75,14,1,0.3993,,
,,,,,,,,,,,,,,1,001,2025-01-12_22h04.54.172,IAT(Formal),2021.2.3,Win32,59.17159763,,,,,,,,,,,,,,,,,,,,,,,,,,,,,,,,,,,,,,,,,,,,,,,,,,,,活泼,e,,,e,1,0,76,76,28,1,0.4692,,
,,,,,,,,,,,,,,1,001,2025-01-12_22h04.54.172,IAT(Formal),2021.2.3,Win32,59.17159763,,,,,,,,,,,,,,,,,,,,,,,,,,,,,,,,,,,,,,,,,,,,,,,,,,,,固执,i,,,i,1,0,77,77,47,1,0.6785,,
,,,,,,,,,,,,,,1,001,2025-01-12_22h04.54.172,IAT(Formal),2021.2.3,Win32,59.17159763,,,,,,,,,,,,,,,,,,,,,,,,,,,,,,,,,,,,,,,,,,,,,,,,,,,,其他,e,,,e,1,0,78,78,79,1,1.1586,,
,,,,,,,,,,,,,,1,001,2025-01-12_22h04.54.172,IAT(Formal),2021.2.3,Win32,59.17159763,,,,,,,,,,,,,,,,,,,,,,,,,,,,,,,,,,,,,,,,,,,,,,,,,,,,我,i,,,i,1,0,79,79,50,1,0.6126,,
,,,,,,,,,,,,,,1,001,2025-01-12_22h04.54.172,IAT(Formal),2021.2.3,Win32,59.17159763,,,,,,,,,,,,,,,,,,,,,,,,,,,,,,,,,,,,,,,,,,,,,,,,,,,,他,e,,,e,1,1,0,80,55,1,0.7774,,
,,,,,,,,,,,,,,1,001,2025-01-12_22h04.54.172,IAT(Formal),2021.2.3,Win32,59.17159763,,,,,,,,,,,,,,,,,,,,,,,,,,,,,,,,,,,,,,,,,,,,,,,,,,,,我,i,,,i,1,1,1,81,60,1,0.3771,,
,,,,,,,,,,,,,,1,001,2025-01-12_22h04.54.172,IAT(Formal),2021.2.3,Win32,59.17159763,,,,,,,,,,,,,,,,,,,,,,,,,,,,,,,,,,,,,,,,,,,,,,,,,,,,热情,e,,,e,1,1,2,82,27,1,0.8472,,
,,,,,,,,,,,,,,1,001,2025-01-12_22h04.54.172,IAT(Formal),2021.2.3,Win32,59.17159763,,,,,,,,,,,,,,,,,,,,,,,,,,,,,,,,,,,,,,,,,,,,,,,,,,,,我,i,,,i,1,1,3,83,50,1,0.6772,,
,,,,,,,,,,,,,,1,001,2025-01-12_22h04.54.172,IAT(Formal),2021.2.3,Win32,59.17159763,,,,,,,,,,,,,,,,,,,,,,,,,,,,,,,,,,,,,,,,,,,,,,,,,,,,冒失,i,,,i,1,1,4,84,39,1,0.5466,,
,,,,,,,,,,,,,,1,001,2025-01-12_22h04.54.172,IAT(Formal),2021.2.3,Win32,59.17159763,,,,,,,,,,,,,,,,,,,,,,,,,,,,,,,,,,,,,,,,,,,,,,,,,,,,刻薄,i,,,i,1,1,5,85,33,1,0.4311,,
,,,,,,,,,,,,,,1,001,2025-01-12_22h04.54.172,IAT(Formal),2021.2.3,Win32,59.17159763,,,,,,,,,,,,,,,,,,,,,,,,,,,,,,,,,,,,,,,,,,,,,,,,,,,,杰出,e,,,e,1,1,6,86,13,1,0.7469,,
,,,,,,,,,,,,,,1,001,2025-01-12_22h04.54.172,IAT(Formal),2021.2.3,Win32,59.17159763,,,,,,,,,,,,,,,,,,,,,,,,,,,,,,,,,,,,,,,,,,,,,,,,,,,,诚实,e,,,e,1,1,7,87,15,1,0.5603,,
,,,,,,,,,,,,,,1,001,2025-01-12_22h04.54.172,IAT(Formal),2021.2.3,Win32,59.17159763,,,,,,,,,,,,,,,,,,,,,,,,,,,,,,,,,,,,,,,,,,,,,,,,,,,,他们,e,,,i,0,1,8,88,6,1,0.5771,,
,,,,,,,,,,,,,,1,001,2025-01-12_22h04.54.172,IAT(Formal),2021.2.3,Win32,59.17159763,,,,,,,,,,,,,,,,,,,,,,,,,,,,,,,,,,,,,,,,,,,,,,,,,,,,乐观,e,,,e,1,1,9,89,14,1,0.7424,,
,,,,,,,,,,,,,,1,001,2025-01-12_22h04.54.172,IAT(Formal),2021.2.3,Win32,59.17159763,,,,,,,,,,,,,,,,,,,,,,,,,,,,,,,,,,,,,,,,,,,,,,,,,,,,他的,e,,,i,0,1,10,90,67,1,0.5484,,
,,,,,,,,,,,,,,1,001,2025-01-12_22h04.54.172,IAT(Formal),2021.2.3,Win32,59.17159763,,,,,,,,,,,,,,,,,,,,,,,,,,,,,,,,,,,,,,,,,,,,,,,,,,,,我们,i,,,i,1,1,11,91,62,1,0.5422,,
,,,,,,,,,,,,,,1,001,2025-01-12_22h04.54.172,IAT(Formal),2021.2.3,Win32,59.17159763,,,,,,,,,,,,,,,,,,,,,,,,,,,,,,,,,,,,,,,,,,,,,,,,,,,,消极,i,,,i,1,1,12,92,35,1,1.1996,,
,,,,,,,,,,,,,,1,001,2025-01-12_22h04.54.172,IAT(Formal),2021.2.3,Win32,59.17159763,,,,,,,,,,,,,,,,,,,,,,,,,,,,,,,,,,,,,,,,,,,,,,,,,,,,细腻,e,,,e,1,1,13,93,25,1,0.6125,,
,,,,,,,,,,,,,,1,001,2025-01-12_22h04.54.172,IAT(Formal),2021.2.3,Win32,59.17159763,,,,,,,,,,,,,,,,,,,,,,,,,,,,,,,,,,,,,,,,,,,,,,,,,,,,他们,e,,,,0,1,14,94,66,1,,,
,,,,,,,,,,,,,,1,001,2025-01-12_22h04.54.172,IAT(Formal),2021.2.3,Win32,59.17159763,,,,,,,,,,,,,,,,,,,,,,,,,,,,,,,,,,,,,,,,,,,,,,,,,,,,自己,i,,,e,0,1,15,95,3,1,0.3964,,
,,,,,,,,,,,,,,1,001,2025-01-12_22h04.54.172,IAT(Formal),2021.2.3,Win32,59.17159763,,,,,,,,,,,,,,,,,,,,,,,,,,,,,,,,,,,,,,,,,,,,,,,,,,,,无私,e,,,e,1,1,16,96,22,1,1.0046,,
,,,,,,,,,,,,,,1,001,2025-01-12_22h04.54.172,IAT(Formal),2021.2.3,Win32,59.17159763,,,,,,,,,,,,,,,,,,,,,,,,,,,,,,,,,,,,,,,,,,,,,,,,,,,,固执,i,,,i,1,1,17,97,47,1,1.3133,,
,,,,,,,,,,,,,,1,001,2025-01-12_22h04.54.172,IAT(Formal),2021.2.3,Win32,59.17159763,,,,,,,,,,,,,,,,,,,,,,,,,,,,,,,,,,,,,,,,,,,,,,,,,,,,他的,e,,,e,1,1,18,98,7,1,1.3602,,
,,,,,,,,,,,,,,1,001,2025-01-12_22h04.54.172,IAT(Formal),2021.2.3,Win32,59.17159763,,,,,,,,,,,,,,,,,,,,,,,,,,,,,,,,,,,,,,,,,,,,,,,,,,,,优秀,e,,,e,1,1,19,99,10,1,0.6306,,
,,,,,,,,,,,,,,1,001,2025-01-12_22h04.54.172,IAT(Formal),2021.2.3,Win32,59.17159763,,,,,,,,,,,,,,,,,,,,,,,,,,,,,,,,,,,,,,,,,,,,,,,,,,,,认真,e,,,e,1,1,20,100,20,1,0.4196,,
,,,,,,,,,,,,,,1,001,2025-01-12_22h04.54.172,IAT(Formal),2021.2.3,Win32,59.17159763,,,,,,,,,,,,,,,,,,,,,,,,,,,,,,,,,,,,,,,,,,,,,,,,,,,,他的,e,,,i,0,1,21,101,57,1,0.5458,,
,,,,,,,,,,,,,,1,001,2025-01-12_22h04.54.172,IAT(Formal),2021.2.3,Win32,59.17159763,,,,,,,,,,,,,,,,,,,,,,,,,,,,,,,,,,,,,,,,,,,,,,,,,,,,崇高,e,,,e,1,1,22,102,11,1,0.7055,,
,,,,,,,,,,,,,,1,001,2025-01-12_22h04.54.172,IAT(Formal),2021.2.3,Win32,59.17159763,,,,,,,,,,,,,,,,,,,,,,,,,,,,,,,,,,,,,,,,,,,,,,,,,,,,猖狂,i,,,,0,1,23,103,45,1,,,
,,,,,,,,,,,,,,1,001,2025-01-12_22h04.54.172,IAT(Formal),2021.2.3,Win32,59.17159763,,,,,,,,,,,,,,,,,,,,,,,,,,,,,,,,,,,,,,,,,,,,,,,,,,,,自私,i,,,i,1,1,24,104,43,1,1.411,,
,,,,,,,,,,,,,,1,001,2025-01-12_22h04.54.172,IAT(Formal),2021.2.3,Win32,59.17159763,,,,,,,,,,,,,,,,,,,,,,,,,,,,,,,,,,,,,,,,,,,,,,,,,,,,我们,i,,,e,0,1,25,105,52,1,0.7789,,
,,,,,,,,,,,,,,1,001,2025-01-12_22h04.54.172,IAT(Formal),2021.2.3,Win32,59.17159763,,,,,,,,,,,,,,,,,,,,,,,,,,,,,,,,,,,,,,,,,,,,,,,,,,,,朴实,e,,,e,1,1,26,106,24,1,0.7371,,
,,,,,,,,,,,,,,1,001,2025-01-12_22h04.54.172,IAT(Formal),2021.2.3,Win32,59.17159763,,,,,,,,,,,,,,,,,,,,,,,,,,,,,,,,,,,,,,,,,,,,,,,,,,,,冷静,e,,,e,1,1,27,107,26,1,0.6954,,
,,,,,,,,,,,,,,1,001,2025-01-12_22h04.54.172,IAT(Formal),2021.2.3,Win32,59.17159763,,,,,,,,,,,,,,,,,,,,,,,,,,,,,,,,,,,,,,,,,,,,,,,,,,,,他,e,,,i,0,1,28,108,75,1,0.6347,,
,,,,,,,,,,,,,,1,001,2025-01-12_22h04.54.172,IAT(Formal),2021.2.3,Win32,59.17159763,,,,,,,,,,,,,,,,,,,,,,,,,,,,,,,,,,,,,,,,,,,,,,,,,,,,稳重,e,,,e,1,1,29,109,21,1,0.5709,,
,,,,,,,,,,,,,,1,001,2025-01-12_22h04.54.172,IAT(Formal),2021.2.3,Win32,59.17159763,,,,,,,,,,,,,,,,,,,,,,,,,,,,,,,,,,,,,,,,,,,,,,,,,,,,自己,i,,,i,1,1,30,110,73,1,0.8286,,
,,,,,,,,,,,,,,1,001,2025-01-12_22h04.54.172,IAT(Formal),2021.2.3,Win32,59.17159763,,,,,,,,,,,,,,,,,,,,,,,,,,,,,,,,,,,,,,,,,,,,,,,,,,,,野蛮,i,,,i,1,1,31,111,46,1,0.802,,
,,,,,,,,,,,,,,1,001,2025-01-12_22h04.54.172,IAT(Formal),2021.2.3,Win32,59.17159763,,,,,,,,,,,,,,,,,,,,,,,,,,,,,,,,,,,,,,,,,,,,,,,,,,,,我们,i,,,i,1,1,32,112,2,1,0.9033,,
,,,,,,,,,,,,,,1,001,2025-01-12_22h04.54.172,IAT(Formal),2021.2.3,Win32,59.17159763,,,,,,,,,,,,,,,,,,,,,,,,,,,,,,,,,,,,,,,,,,,,,,,,,,,,鲁莽,i,,,i,1,1,33,113,38,1,0.6936,,
,,,,,,,,,,,,,,1,001,2025-01-12_22h04.54.172,IAT(Formal),2021.2.3,Win32,59.17159763,,,,,,,,,,,,,,,,,,,,,,,,,,,,,,,,,,,,,,,,,,,,,,,,,,,,他人,e,,,e,1,1,34,114,58,1,0.5959,,
,,,,,,,,,,,,,,1,001,2025-01-12_22h04.54.172,IAT(Formal),2021.2.3,Win32,59.17159763,,,,,,,,,,,,,,,,,,,,,,,,,,,,,,,,,,,,,,,,,,,,,,,,,,,,勇敢,e,,,e,1,1,35,115,17,1,0.7219,,
,,,,,,,,,,,,,,1,001,2025-01-12_22h04.54.172,IAT(Formal),2021.2.3,Win32,59.17159763,,,,,,,,,,,,,,,,,,,,,,,,,,,,,,,,,,,,,,,,,,,,,,,,,,,,我的,i,,,i,1,1,36,116,61,1,0.5152,,
,,,,,,,,,,,,,,1,001,2025-01-12_22h04.54.172,IAT(Formal),2021.2.3,Win32,59.17159763,,,,,,,,,,,,,,,,,,,,,,,,,,,,,,,,,,,,,,,,,,,,,,,,,,,,他,e,,,e,1,1,37,117,5,1,0.4105,,
,,,,,,,,,,,,,,1,001,2025-01-12_22h04.54.172,IAT(Formal),2021.2.3,Win32,59.17159763,,,,,,,,,,,,,,,,,,,,,,,,,,,,,,,,,,,,,,,,,,,,,,,,,,,,机智,e,,,e,1,1,38,118,19,1,1.1969,,
,,,,,,,,,,,,,,1,001,2025-01-12_22h04.54.172,IAT(Formal),2021.2.3,Win32,59.17159763,,,,,,,,,,,,,,,,,,,,,,,,,,,,,,,,,,,,,,,,,,,,,,,,,,,,他人,e,,,e,1,1,39,119,68,1,0.5077,,
,,,,,,,,,,,,,,1,001,2025-01-12_22h04.54.172,IAT(Formal),2021.2.3,Win32,59.17159763,,,,,,,,,,,,,,,,,,,,,,,,,,,,,,,,,,,,,,,,,,,,,,,,,,,,愚蠢,i,,,i,1,1,40,120,32,1,0.5707,,
,,,,,,,,,,,,,,1,001,2025-01-12_22h04.54.172,IAT(Formal),2021.2.3,Win32,59.17159763,,,,,,,,,,,,,,,,,,,,,,,,,,,,,,,,,,,,,,,,,,,,,,,,,,,,其他,e,,,e,1,1,41,121,69,1,0.8282,,
,,,,,,,,,,,,,,1,001,2025-01-12_22h04.54.172,IAT(Formal),2021.2.3,Win32,59.17159763,,,,,,,,,,,,,,,,,,,,,,,,,,,,,,,,,,,,,,,,,,,,,,,,,,,,活泼,e,,,e,1,1,42,122,28,1,0.5724,,
,,,,,,,,,,,,,,1,001,2025-01-12_22h04.54.172,IAT(Formal),2021.2.3,Win32,59.17159763,,,,,,,,,,,,,,,,,,,,,,,,,,,,,,,,,,,,,,,,,,,,,,,,,,,,傲慢,i,,,i,1,1,43,123,37,1,0.909,,
,,,,,,,,,,,,,,1,001,2025-01-12_22h04.54.172,IAT(Formal),2021.2.3,Win32,59.17159763,,,,,,,,,,,,,,,,,,,,,,,,,,,,,,,,,,,,,,,,,,,,,,,,,,,,他人,e,,,e,1,1,44,124,78,1,1.0006,,
,,,,,,,,,,,,,,1,001,2025-01-12_22h04.54.172,IAT(Formal),2021.2.3,Win32,59.17159763,,,,,,,,,,,,,,,,,,,,,,,,,,,,,,,,,,,,,,,,,,,,,,,,,,,,俺,i,,,e,0,1,45,125,54,1,0.7336,,
,,,,,,,,,,,,,,1,001,2025-01-12_22h04.54.172,IAT(Formal),2021.2.3,Win32,59.17159763,,,,,,,,,,,,,,,,,,,,,,,,,,,,,,,,,,,,,,,,,,,,,,,,,,,,其他,e,,,,0,1,46,126,59,1,,,
,,,,,,,,,,,,,,1,001,2025-01-12_22h04.54.172,IAT(Formal),2021.2.3,Win32,59.17159763,,,,,,,,,,,,,,,,,,,,,,,,,,,,,,,,,,,,,,,,,,,,,,,,,,,,我的,i,,,e,0,1,47,127,51,1,0.4499,,
,,,,,,,,,,,,,,1,001,2025-01-12_22h04.54.172,IAT(Formal),2021.2.3,Win32,59.17159763,,,,,,,,,,,,,,,,,,,,,,,,,,,,,,,,,,,,,,,,,,,,,,,,,,,,其他,e,,,i,0,1,48,128,79,1,0.1823,,
,,,,,,,,,,,,,,1,001,2025-01-12_22h04.54.172,IAT(Formal),2021.2.3,Win32,59.17159763,,,,,,,,,,,,,,,,,,,,,,,,,,,,,,,,,,,,,,,,,,,,,,,,,,,,我们,i,,,e,0,1,49,129,72,1,0.3647,,
,,,,,,,,,,,,,,1,001,2025-01-12_22h04.54.172,IAT(Formal),2021.2.3,Win32,59.17159763,,,,,,,,,,,,,,,,,,,,,,,,,,,,,,,,,,,,,,,,,,,,,,,,,,,,轻率,i,,,i,1,1,50,130,48,1,0.5954,,
,,,,,,,,,,,,,,1,001,2025-01-12_22h04.54.172,IAT(Formal),2021.2.3,Win32,59.17159763,,,,,,,,,,,,,,,,,,,,,,,,,,,,,,,,,,,,,,,,,,,,,,,,,,,,俺,i,,,i,1,1,51,131,64,1,0.4862,,
,,,,,,,,,,,,,,1,001,2025-01-12_22h04.54.172,IAT(Formal),2021.2.3,Win32,59.17159763,,,,,,,,,,,,,,,,,,,,,,,,,,,,,,,,,,,,,,,,,,,,,,,,,,,,我的,i,,,i,1,1,52,132,1,1,0.5802,,
,,,,,,,,,,,,,,1,001,2025-01-12_22h04.54.172,IAT(Formal),2021.2.3,Win32,59.17159763,,,,,,,,,,,,,,,,,,,,,,,,,,,,,,,,,,,,,,,,,,,,,,,,,,,,勤奋,e,,,i,0,1,53,133,18,1,0.7293,,
,,,,,,,,,,,,,,1,001,2025-01-12_22h04.54.172,IAT(Formal),2021.2.3,Win32,59.17159763,,,,,,,,,,,,,,,,,,,,,,,,,,,,,,,,,,,,,,,,,,,,,,,,,,,,我,i,,,i,1,1,54,134,0,1,0.6103,,
,,,,,,,,,,,,,,1,001,2025-01-12_22h04.54.172,IAT(Formal),2021.2.3,Win32,59.17159763,,,,,,,,,,,,,,,,,,,,,,,,,,,,,,,,,,,,,,,,,,,,,,,,,,,,他们,e,,,e,1,1,55,135,56,1,0.5119,,
,,,,,,,,,,,,,,1,001,2025-01-12_22h04.54.172,IAT(Formal),2021.2.3,Win32,59.17159763,,,,,,,,,,,,,,,,,,,,,,,,,,,,,,,,,,,,,,,,,,,,,,,,,,,,诚恳,e,,,,0,1,56,136,29,1,,,
,,,,,,,,,,,,,,1,001,2025-01-12_22h04.54.172,IAT(Formal),2021.2.3,Win32,59.17159763,,,,,,,,,,,,,,,,,,,,,,,,,,,,,,,,,,,,,,,,,,,,,,,,,,,,下贱,i,,,i,1,1,57,137,49,1,0.9393,,
,,,,,,,,,,,,,,1,001,2025-01-12_22h04.54.172,IAT(Formal),2021.2.3,Win32,59.17159763,,,,,,,,,,,,,,,,,,,,,,,,,,,,,,,,,,,,,,,,,,,,,,,,,,,,我的,i,,,i,1,1,58,138,71,1,0.6658,,
,,,,,,,,,,,,,,1,001,2025-01-12_22h04.54.172,IAT(Formal),2021.2.3,Win32,59.17159763,,,,,,,,,,,,,,,,,,,,,,,,,,,,,,,,,,,,,,,,,,,,,,,,,,,,虚伪,i,,,i,1,1,59,139,31,1,0.6263,,
,,,,,,,,,,,,,,1,001,2025-01-12_22h04.54.172,IAT(Formal),2021.2.3,Win32,59.17159763,,,,,,,,,,,,,,,,,,,,,,,,,,,,,,,,,,,,,,,,,,,,,,,,,,,,执拗,i,,,i,1,1,60,140,40,1,0.558,,
,,,,,,,,,,,,,,1,001,2025-01-12_22h04.54.172,IAT(Formal),2021.2.3,Win32,59.17159763,,,,,,,,,,,,,,,,,,,,,,,,,,,,,,,,,,,,,,,,,,,,,,,,,,,,卑鄙,i,,,i,1,1,61,141,30,1,0.5263,,
,,,,,,,,,,,,,,1,001,2025-01-12_22h04.54.172,IAT(Formal),2021.2.3,Win32,59.17159763,,,,,,,,,,,,,,,,,,,,,,,,,,,,,,,,,,,,,,,,,,,,,,,,,,,,悲观,i,,,i,1,1,62,142,34,1,0.5093,,
,,,,,,,,,,,,,,1,001,2025-01-12_22h04.54.172,IAT(Formal),2021.2.3,Win32,59.17159763,,,,,,,,,,,,,,,,,,,,,,,,,,,,,,,,,,,,,,,,,,,,,,,,,,,,自己,i,,,e,0,1,63,143,63,1,0.4274,,
,,,,,,,,,,,,,,1,001,2025-01-12_22h04.54.172,IAT(Formal),2021.2.3,Win32,59.17159763,,,,,,,,,,,,,,,,,,,,,,,,,,,,,,,,,,,,,,,,,,,,,,,,,,,,其他,e,,,e,1,1,64,144,9,1,0.7798,,
,,,,,,,,,,,,,,1,001,2025-01-12_22h04.54.172,IAT(Formal),2021.2.3,Win32,59.17159763,,,,,,,,,,,,,,,,,,,,,,,,,,,,,,,,,,,,,,,,,,,,,,,,,,,,聪明,e,,,e,1,1,65,145,12,1,0.5936,,
,,,,,,,,,,,,,,1,001,2025-01-12_22h04.54.172,IAT(Formal),2021.2.3,Win32,59.17159763,,,,,,,,,,,,,,,,,,,,,,,,,,,,,,,,,,,,,,,,,,,,,,,,,,,,他,e,,,e,1,1,66,146,65,1,0.536,,
,,,,,,,,,,,,,,1,001,2025-01-12_22h04.54.172,IAT(Formal),2021.2.3,Win32,59.17159763,,,,,,,,,,,,,,,,,,,,,,,,,,,,,,,,,,,,,,,,,,,,,,,,,,,,俺,i,,,i,1,1,67,147,4,1,0.5367,,
,,,,,,,,,,,,,,1,001,2025-01-12_22h04.54.172,IAT(Formal),2021.2.3,Win32,59.17159763,,,,,,,,,,,,,,,,,,,,,,,,,,,,,,,,,,,,,,,,,,,,,,,,,,,,散漫,i,,,i,1,1,68,148,41,1,0.8604,,
,,,,,,,,,,,,,,1,001,2025-01-12_22h04.54.172,IAT(Formal),2021.2.3,Win32,59.17159763,,,,,,,,,,,,,,,,,,,,,,,,,,,,,,,,,,,,,,,,,,,,,,,,,,,,自卑,i,,,i,1,1,69,149,36,1,0.8995,,
,,,,,,,,,,,,,,1,001,2025-01-12_22h04.54.172,IAT(Formal),2021.2.3,Win32,59.17159763,,,,,,,,,,,,,,,,,,,,,,,,,,,,,,,,,,,,,,,,,,,,,,,,,,,,凶狠,i,,,i,1,1,70,150,42,1,0.4661,,
,,,,,,,,,,,,,,1,001,2025-01-12_22h04.54.172,IAT(Formal),2021.2.3,Win32,59.17159763,,,,,,,,,,,,,,,,,,,,,,,,,,,,,,,,,,,,,,,,,,,,,,,,,,,,他的,e,,,i,0,1,71,151,77,1,0.8816,,
,,,,,,,,,,,,,,1,001,2025-01-12_22h04.54.172,IAT(Formal),2021.2.3,Win32,59.17159763,,,,,,,,,,,,,,,,,,,,,,,,,,,,,,,,,,,,,,,,,,,,,,,,,,,,我,i,,,i,1,1,72,152,70,1,0.9661,,
,,,,,,,,,,,,,,1,001,2025-01-12_22h04.54.172,IAT(Formal),2021.2.3,Win32,59.17159763,,,,,,,,,,,,,,,,,,,,,,,,,,,,,,,,,,,,,,,,,,,,,,,,,,,,他人,e,,,e,1,1,73,153,8,1,0.532,,
,,,,,,,,,,,,,,1,001,2025-01-12_22h04.54.172,IAT(Formal),2021.2.3,Win32,59.17159763,,,,,,,,,,,,,,,,,,,,,,,,,,,,,,,,,,,,,,,,,,,,,,,,,,,,正直,e,,,e,1,1,74,154,16,1,0.5601,,
,,,,,,,,,,,,,,1,001,2025-01-12_22h04.54.172,IAT(Formal),2021.2.3,Win32,59.17159763,,,,,,,,,,,,,,,,,,,,,,,,,,,,,,,,,,,,,,,,,,,,,,,,,,,,自己,i,,,i,1,1,75,155,53,1,0.5366,,
,,,,,,,,,,,,,,1,001,2025-01-12_22h04.54.172,IAT(Formal),2021.2.3,Win32,59.17159763,,,,,,,,,,,,,,,,,,,,,,,,,,,,,,,,,,,,,,,,,,,,,,,,,,,,暴躁,i,,,i,1,1,76,156,44,1,0.6088,,
,,,,,,,,,,,,,,1,001,2025-01-12_22h04.54.172,IAT(Formal),2021.2.3,Win32,59.17159763,,,,,,,,,,,,,,,,,,,,,,,,,,,,,,,,,,,,,,,,,,,,,,,,,,,,公正,e,,,e,1,1,77,157,23,1,0.6267,,
,,,,,,,,,,,,,,1,001,2025-01-12_22h04.54.172,IAT(Formal),2021.2.3,Win32,59.17159763,,,,,,,,,,,,,,,,,,,,,,,,,,,,,,,,,,,,,,,,,,,,,,,,,,,,他们,e,,,e,1,1,78,158,76,1,1.2018,,
,,,,,,,,,,,,,,1,001,2025-01-12_22h04.54.172,IAT(Formal),2021.2.3,Win32,59.17159763,,,,,,,,,,,,,,,,,,,,,,,,,,,,,,,,,,,,,,,,,,,,,,,,,,,,俺,i,,,i,1,1,79,159,74,1,0.5698,,
,,,,,,,,,,,,,,1,001,2025-01-12_22h04.54.172,IAT(Formal),2021.2.3,Win32,59.17159763,,,,,,,,,,,,,,,,,,,,,,,,,,,,,,,,,,,,,,,,,,,,,,,,,,,,,,,,,,,,,,,,space,1.5194