﻿Instruction1.keys,Instruction1.rt,Instruction2.keys,Instruction2.rt,key_resp_iso.keys,key_resp_iso.corr,key_resp_iso.rt,Practice_01.thisRepN,Practice_01.thisTrialN,Practice_01.thisN,Practice_01.thisIndex,Practice_01.ran,Words,ans,participant,session,date,expName,psychopyVersion,OS,frameRate,key_resp_3.keys,key_resp_3.rt,key_resp_ipn.keys,key_resp_ipn.corr,key_resp_ipn.rt,Practice_02.thisRepN,Practice_02.thisTrialN,Practice_02.thisN,Practice_02.thisIndex,Practice_02.ran,Words_ipn,ans_ipn,key_resp_4.keys,key_resp_4.rt,key_resp_t1.keys,key_resp_t1.corr,key_resp_t1.rt,Practice_T1.thisRepN,Practice_T1.thisTrialN,Practice_T1.thisN,Practice_T1.thisIndex,Practice_T1.ran,Words_t1,ans_t1,key_resp_5.keys,key_resp_5.rt,Formal_T1.thisRepN,Formal_T1.thisTrialN,Formal_T1.thisN,Formal_T1.thisIndex,Formal_T1.ran,key_resp_6.keys,key_resp_6.rt,key_resp_iso_reverse.keys,key_resp_iso_reverse.corr,key_resp_iso_reverse.rt,Practice_iso_Reverse.thisRepN,Practice_iso_Reverse.thisTrialN,Practice_iso_Reverse.thisN,Practice_iso_Reverse.thisIndex,Practice_iso_Reverse.ran,key_resp_7.keys,key_resp_7.rt,key_resp_t2_Practice.keys,key_resp_t2_Practice.corr,key_resp_t2_Practice.rt,Practice_t2_Reverse.thisRepN,Practice_t2_Reverse.thisTrialN,Practice_t2_Reverse.thisN,Practice_t2_Reverse.thisIndex,Practice_t2_Reverse.ran,Words_t2,ans_t2,key_resp_8.keys,key_resp_8.rt,key_resp_t2.keys,key_resp_t2.corr,key_resp_t2.rt,Formal_t2_reverse.thisRepN,Formal_t2_reverse.thisTrialN,Formal_t2_reverse.thisN,Formal_t2_reverse.thisIndex,Formal_t2_reverse.ran,key_instruct.keys,key_instruct.rt
space,3.1579,space,8.6848,e,1,0.5959,0,0,0,1,1,我的,e,1,001,2024-08-23_14h32.51.399,IAT(Formal),2021.2.3,Win32,120.105693,,,,,,,,,,,,,,,,,,,,,,,,,,,,,,,,,,,,,,,,,,,,,,,,,,,,,,,,,,,,,,,,,
,,,,i,1,0.4167,0,1,1,8,1,他人,i,1,001,2024-08-23_14h32.51.399,IAT(Formal),2021.2.3,Win32,120.105693,,,,,,,,,,,,,,,,,,,,,,,,,,,,,,,,,,,,,,,,,,,,,,,,,,,,,,,,,,,,,,,,,
,,,,e,1,0.4839,0,2,2,3,1,自己,e,1,001,2024-08-23_14h32.51.399,IAT(Formal),2021.2.3,Win32,120.105693,,,,,,,,,,,,,,,,,,,,,,,,,,,,,,,,,,,,,,,,,,,,,,,,,,,,,,,,,,,,,,,,,
,,,,e,1,0.4918,0,3,3,0,1,我,e,1,001,2024-08-23_14h32.51.399,IAT(Formal),2021.2.3,Win32,120.105693,,,,,,,,,,,,,,,,,,,,,,,,,,,,,,,,,,,,,,,,,,,,,,,,,,,,,,,,,,,,,,,,,
,,,,i,1,0.484,0,4,4,9,1,其他,i,1,001,2024-08-23_14h32.51.399,IAT(Formal),2021.2.3,Win32,120.105693,,,,,,,,,,,,,,,,,,,,,,,,,,,,,,,,,,,,,,,,,,,,,,,,,,,,,,,,,,,,,,,,,
,,,,i,1,0.472,0,5,5,7,1,他的,i,1,001,2024-08-23_14h32.51.399,IAT(Formal),2021.2.3,Win32,120.105693,,,,,,,,,,,,,,,,,,,,,,,,,,,,,,,,,,,,,,,,,,,,,,,,,,,,,,,,,,,,,,,,,
,,,,i,1,0.3988,0,6,6,6,1,他们,i,1,001,2024-08-23_14h32.51.399,IAT(Formal),2021.2.3,Win32,120.105693,,,,,,,,,,,,,,,,,,,,,,,,,,,,,,,,,,,,,,,,,,,,,,,,,,,,,,,,,,,,,,,,,
,,,,e,1,0.4272,0,7,7,2,1,我们,e,1,001,2024-08-23_14h32.51.399,IAT(Formal),2021.2.3,Win32,120.105693,,,,,,,,,,,,,,,,,,,,,,,,,,,,,,,,,,,,,,,,,,,,,,,,,,,,,,,,,,,,,,,,,
,,,,e,1,0.6422,0,8,8,4,1,俺,e,1,001,2024-08-23_14h32.51.399,IAT(Formal),2021.2.3,Win32,120.105693,,,,,,,,,,,,,,,,,,,,,,,,,,,,,,,,,,,,,,,,,,,,,,,,,,,,,,,,,,,,,,,,,
,,,,i,1,0.4014,0,9,9,5,1,他,i,1,001,2024-08-23_14h32.51.399,IAT(Formal),2021.2.3,Win32,120.105693,,,,,,,,,,,,,,,,,,,,,,,,,,,,,,,,,,,,,,,,,,,,,,,,,,,,,,,,,,,,,,,,,
,,,,,,,,,,,,,,1,001,2024-08-23_14h32.51.399,IAT(Formal),2021.2.3,Win32,120.105693,space,2.683,i,1,0.7315,0,0,0,26,1,自卑,i,,,,,,,,,,,,,,,,,,,,,,,,,,,,,,,,,,,,,,,,,,,,,,,,,,,,,
,,,,,,,,,,,,,,1,001,2024-08-23_14h32.51.399,IAT(Formal),2021.2.3,Win32,120.105693,,,e,1,0.4102,0,1,1,4,1,乐观,e,,,,,,,,,,,,,,,,,,,,,,,,,,,,,,,,,,,,,,,,,,,,,,,,,,,,,
,,,,,,,,,,,,,,1,001,2024-08-23_14h32.51.399,IAT(Formal),2021.2.3,Win32,120.105693,,,e,1,0.5977,0,2,2,2,1,聪明,e,,,,,,,,,,,,,,,,,,,,,,,,,,,,,,,,,,,,,,,,,,,,,,,,,,,,,
,,,,,,,,,,,,,,1,001,2024-08-23_14h32.51.399,IAT(Formal),2021.2.3,Win32,120.105693,,,i,1,0.7124,0,3,3,22,1,愚蠢,i,,,,,,,,,,,,,,,,,,,,,,,,,,,,,,,,,,,,,,,,,,,,,,,,,,,,,
,,,,,,,,,,,,,,1,001,2024-08-23_14h32.51.399,IAT(Formal),2021.2.3,Win32,120.105693,,,e,1,0.4798,0,4,4,8,1,勤奋,e,,,,,,,,,,,,,,,,,,,,,,,,,,,,,,,,,,,,,,,,,,,,,,,,,,,,,
,,,,,,,,,,,,,,1,001,2024-08-23_14h32.51.399,IAT(Formal),2021.2.3,Win32,120.105693,,,e,1,0.485,0,5,5,16,1,冷静,e,,,,,,,,,,,,,,,,,,,,,,,,,,,,,,,,,,,,,,,,,,,,,,,,,,,,,
,,,,,,,,,,,,,,1,001,2024-08-23_14h32.51.399,IAT(Formal),2021.2.3,Win32,120.105693,,,e,1,0.5096,0,6,6,18,1,活泼,e,,,,,,,,,,,,,,,,,,,,,,,,,,,,,,,,,,,,,,,,,,,,,,,,,,,,,
,,,,,,,,,,,,,,1,001,2024-08-23_14h32.51.399,IAT(Formal),2021.2.3,Win32,120.105693,,,e,1,0.4875,0,7,7,0,1,优秀,e,,,,,,,,,,,,,,,,,,,,,,,,,,,,,,,,,,,,,,,,,,,,,,,,,,,,,
,,,,,,,,,,,,,,1,001,2024-08-23_14h32.51.399,IAT(Formal),2021.2.3,Win32,120.105693,,,e,0,0.4898,0,8,8,28,1,鲁莽,i,,,,,,,,,,,,,,,,,,,,,,,,,,,,,,,,,,,,,,,,,,,,,,,,,,,,,
,,,,,,,,,,,,,,1,001,2024-08-23_14h32.51.399,IAT(Formal),2021.2.3,Win32,120.105693,,,i,1,0.5205,0,9,9,24,1,悲观,i,,,,,,,,,,,,,,,,,,,,,,,,,,,,,,,,,,,,,,,,,,,,,,,,,,,,,
,,,,,,,,,,,,,,1,001,2024-08-23_14h32.51.399,IAT(Formal),2021.2.3,Win32,120.105693,,,i,1,0.5947,0,10,10,32,1,凶狠,i,,,,,,,,,,,,,,,,,,,,,,,,,,,,,,,,,,,,,,,,,,,,,,,,,,,,,
,,,,,,,,,,,,,,1,001,2024-08-23_14h32.51.399,IAT(Formal),2021.2.3,Win32,120.105693,,,e,1,0.5768,0,11,11,7,1,勇敢,e,,,,,,,,,,,,,,,,,,,,,,,,,,,,,,,,,,,,,,,,,,,,,,,,,,,,,
,,,,,,,,,,,,,,1,001,2024-08-23_14h32.51.399,IAT(Formal),2021.2.3,Win32,120.105693,,,e,1,0.532,0,12,12,6,1,正直,e,,,,,,,,,,,,,,,,,,,,,,,,,,,,,,,,,,,,,,,,,,,,,,,,,,,,,
,,,,,,,,,,,,,,1,001,2024-08-23_14h32.51.399,IAT(Formal),2021.2.3,Win32,120.105693,,,e,0,1.2787,0,13,13,30,1,执拗,i,,,,,,,,,,,,,,,,,,,,,,,,,,,,,,,,,,,,,,,,,,,,,,,,,,,,,
,,,,,,,,,,,,,,1,001,2024-08-23_14h32.51.399,IAT(Formal),2021.2.3,Win32,120.105693,,,i,1,0.8225,0,14,14,23,1,刻薄,i,,,,,,,,,,,,,,,,,,,,,,,,,,,,,,,,,,,,,,,,,,,,,,,,,,,,,
,,,,,,,,,,,,,,1,001,2024-08-23_14h32.51.399,IAT(Formal),2021.2.3,Win32,120.105693,,,i,1,1.1808,0,15,15,31,1,散漫,i,,,,,,,,,,,,,,,,,,,,,,,,,,,,,,,,,,,,,,,,,,,,,,,,,,,,,
,,,,,,,,,,,,,,1,001,2024-08-23_14h32.51.399,IAT(Formal),2021.2.3,Win32,120.105693,,,i,1,0.5115,0,16,16,27,1,傲慢,i,,,,,,,,,,,,,,,,,,,,,,,,,,,,,,,,,,,,,,,,,,,,,,,,,,,,,
,,,,,,,,,,,,,,1,001,2024-08-23_14h32.51.399,IAT(Formal),2021.2.3,Win32,120.105693,,,i,1,0.4831,0,17,17,37,1,固执,i,,,,,,,,,,,,,,,,,,,,,,,,,,,,,,,,,,,,,,,,,,,,,,,,,,,,,
,,,,,,,,,,,,,,1,001,2024-08-23_14h32.51.399,IAT(Formal),2021.2.3,Win32,120.105693,,,i,1,0.5713,0,18,18,39,1,下贱,i,,,,,,,,,,,,,,,,,,,,,,,,,,,,,,,,,,,,,,,,,,,,,,,,,,,,,
,,,,,,,,,,,,,,1,001,2024-08-23_14h32.51.399,IAT(Formal),2021.2.3,Win32,120.105693,,,e,1,0.5768,0,19,19,5,1,诚实,e,,,,,,,,,,,,,,,,,,,,,,,,,,,,,,,,,,,,,,,,,,,,,,,,,,,,,
,,,,,,,,,,,,,,1,001,2024-08-23_14h32.51.399,IAT(Formal),2021.2.3,Win32,120.105693,,,i,1,0.8606,0,20,20,35,1,猖狂,i,,,,,,,,,,,,,,,,,,,,,,,,,,,,,,,,,,,,,,,,,,,,,,,,,,,,,
,,,,,,,,,,,,,,1,001,2024-08-23_14h32.51.399,IAT(Formal),2021.2.3,Win32,120.105693,,,i,1,0.8903,0,21,21,36,1,野蛮,i,,,,,,,,,,,,,,,,,,,,,,,,,,,,,,,,,,,,,,,,,,,,,,,,,,,,,
,,,,,,,,,,,,,,1,001,2024-08-23_14h32.51.399,IAT(Formal),2021.2.3,Win32,120.105693,,,e,1,0.5418,0,22,22,3,1,杰出,e,,,,,,,,,,,,,,,,,,,,,,,,,,,,,,,,,,,,,,,,,,,,,,,,,,,,,
,,,,,,,,,,,,,,1,001,2024-08-23_14h32.51.399,IAT(Formal),2021.2.3,Win32,120.105693,,,e,1,0.4971,0,23,23,11,1,稳重,e,,,,,,,,,,,,,,,,,,,,,,,,,,,,,,,,,,,,,,,,,,,,,,,,,,,,,
,,,,,,,,,,,,,,1,001,2024-08-23_14h32.51.399,IAT(Formal),2021.2.3,Win32,120.105693,,,e,1,0.6903,0,24,24,13,1,公正,e,,,,,,,,,,,,,,,,,,,,,,,,,,,,,,,,,,,,,,,,,,,,,,,,,,,,,
,,,,,,,,,,,,,,1,001,2024-08-23_14h32.51.399,IAT(Formal),2021.2.3,Win32,120.105693,,,i,1,0.5362,0,25,25,20,1,卑鄙,i,,,,,,,,,,,,,,,,,,,,,,,,,,,,,,,,,,,,,,,,,,,,,,,,,,,,,
,,,,,,,,,,,,,,1,001,2024-08-23_14h32.51.399,IAT(Formal),2021.2.3,Win32,120.105693,,,e,1,0.7545,0,26,26,12,1,无私,e,,,,,,,,,,,,,,,,,,,,,,,,,,,,,,,,,,,,,,,,,,,,,,,,,,,,,
,,,,,,,,,,,,,,1,001,2024-08-23_14h32.51.399,IAT(Formal),2021.2.3,Win32,120.105693,,,i,1,0.5707,0,27,27,21,1,虚伪,i,,,,,,,,,,,,,,,,,,,,,,,,,,,,,,,,,,,,,,,,,,,,,,,,,,,,,
,,,,,,,,,,,,,,1,001,2024-08-23_14h32.51.399,IAT(Formal),2021.2.3,Win32,120.105693,,,e,1,0.5571,0,28,28,14,1,朴实,e,,,,,,,,,,,,,,,,,,,,,,,,,,,,,,,,,,,,,,,,,,,,,,,,,,,,,
,,,,,,,,,,,,,,1,001,2024-08-23_14h32.51.399,IAT(Formal),2021.2.3,Win32,120.105693,,,i,1,0.6799,0,29,29,33,1,自私,i,,,,,,,,,,,,,,,,,,,,,,,,,,,,,,,,,,,,,,,,,,,,,,,,,,,,,
,,,,,,,,,,,,,,1,001,2024-08-23_14h32.51.399,IAT(Formal),2021.2.3,Win32,120.105693,,,e,1,0.4855,0,30,30,10,1,认真,e,,,,,,,,,,,,,,,,,,,,,,,,,,,,,,,,,,,,,,,,,,,,,,,,,,,,,
,,,,,,,,,,,,,,1,001,2024-08-23_14h32.51.399,IAT(Formal),2021.2.3,Win32,120.105693,,,e,1,0.5183,0,31,31,9,1,机智,e,,,,,,,,,,,,,,,,,,,,,,,,,,,,,,,,,,,,,,,,,,,,,,,,,,,,,
,,,,,,,,,,,,,,1,001,2024-08-23_14h32.51.399,IAT(Formal),2021.2.3,Win32,120.105693,,,e,1,1.1727,0,32,32,15,1,细腻,e,,,,,,,,,,,,,,,,,,,,,,,,,,,,,,,,,,,,,,,,,,,,,,,,,,,,,
,,,,,,,,,,,,,,1,001,2024-08-23_14h32.51.399,IAT(Formal),2021.2.3,Win32,120.105693,,,e,1,0.4609,0,33,33,17,1,热情,e,,,,,,,,,,,,,,,,,,,,,,,,,,,,,,,,,,,,,,,,,,,,,,,,,,,,,
,,,,,,,,,,,,,,1,001,2024-08-23_14h32.51.399,IAT(Formal),2021.2.3,Win32,120.105693,,,i,1,0.5058,0,34,34,34,1,暴躁,i,,,,,,,,,,,,,,,,,,,,,,,,,,,,,,,,,,,,,,,,,,,,,,,,,,,,,
,,,,,,,,,,,,,,1,001,2024-08-23_14h32.51.399,IAT(Formal),2021.2.3,Win32,120.105693,,,e,1,0.6489,0,35,35,1,1,崇高,e,,,,,,,,,,,,,,,,,,,,,,,,,,,,,,,,,,,,,,,,,,,,,,,,,,,,,
,,,,,,,,,,,,,,1,001,2024-08-23_14h32.51.399,IAT(Formal),2021.2.3,Win32,120.105693,,,e,1,0.5,0,36,36,19,1,诚恳,e,,,,,,,,,,,,,,,,,,,,,,,,,,,,,,,,,,,,,,,,,,,,,,,,,,,,,
,,,,,,,,,,,,,,1,001,2024-08-23_14h32.51.399,IAT(Formal),2021.2.3,Win32,120.105693,,,i,1,0.6631,0,37,37,38,1,轻率,i,,,,,,,,,,,,,,,,,,,,,,,,,,,,,,,,,,,,,,,,,,,,,,,,,,,,,
,,,,,,,,,,,,,,1,001,2024-08-23_14h32.51.399,IAT(Formal),2021.2.3,Win32,120.105693,,,i,1,0.5463,0,38,38,29,1,冒失,i,,,,,,,,,,,,,,,,,,,,,,,,,,,,,,,,,,,,,,,,,,,,,,,,,,,,,
,,,,,,,,,,,,,,1,001,2024-08-23_14h32.51.399,IAT(Formal),2021.2.3,Win32,120.105693,,,i,1,0.4384,0,39,39,25,1,消极,i,,,,,,,,,,,,,,,,,,,,,,,,,,,,,,,,,,,,,,,,,,,,,,,,,,,,,
,,,,,,,,,,,,,,1,001,2024-08-23_14h32.51.399,IAT(Formal),2021.2.3,Win32,120.105693,,,,,,,,,,,,,space,3.1559,i,1,0.9763,0,0,0,41,1,散漫,i,,,,,,,,,,,,,,,,,,,,,,,,,,,,,,,,,,,,,,,,,
,,,,,,,,,,,,,,1,001,2024-08-23_14h32.51.399,IAT(Formal),2021.2.3,Win32,120.105693,,,,,,,,,,,,,,,i,1,0.5825,0,1,1,76,1,他们,i,,,,,,,,,,,,,,,,,,,,,,,,,,,,,,,,,,,,,,,,,
,,,,,,,,,,,,,,1,001,2024-08-23_14h32.51.399,IAT(Formal),2021.2.3,Win32,120.105693,,,,,,,,,,,,,,,e,1,0.4557,0,2,2,1,1,我的,e,,,,,,,,,,,,,,,,,,,,,,,,,,,,,,,,,,,,,,,,,
,,,,,,,,,,,,,,1,001,2024-08-23_14h32.51.399,IAT(Formal),2021.2.3,Win32,120.105693,,,,,,,,,,,,,,,e,1,0.4806,0,3,3,20,1,认真,e,,,,,,,,,,,,,,,,,,,,,,,,,,,,,,,,,,,,,,,,,
,,,,,,,,,,,,,,1,001,2024-08-23_14h32.51.399,IAT(Formal),2021.2.3,Win32,120.105693,,,,,,,,,,,,,,,i,1,0.8157,0,4,4,36,1,自卑,i,,,,,,,,,,,,,,,,,,,,,,,,,,,,,,,,,,,,,,,,,
,,,,,,,,,,,,,,1,001,2024-08-23_14h32.51.399,IAT(Formal),2021.2.3,Win32,120.105693,,,,,,,,,,,,,,,e,1,0.4511,0,5,5,72,1,我们,e,,,,,,,,,,,,,,,,,,,,,,,,,,,,,,,,,,,,,,,,,
,,,,,,,,,,,,,,1,001,2024-08-23_14h32.51.399,IAT(Formal),2021.2.3,Win32,120.105693,,,,,,,,,,,,,,,e,1,0.5482,0,6,6,3,1,自己,e,,,,,,,,,,,,,,,,,,,,,,,,,,,,,,,,,,,,,,,,,
,,,,,,,,,,,,,,1,001,2024-08-23_14h32.51.399,IAT(Formal),2021.2.3,Win32,120.105693,,,,,,,,,,,,,,,e,1,0.7652,0,7,7,15,1,诚实,e,,,,,,,,,,,,,,,,,,,,,,,,,,,,,,,,,,,,,,,,,
,,,,,,,,,,,,,,1,001,2024-08-23_14h32.51.399,IAT(Formal),2021.2.3,Win32,120.105693,,,,,,,,,,,,,,,e,1,0.6011,0,8,8,70,1,我,e,,,,,,,,,,,,,,,,,,,,,,,,,,,,,,,,,,,,,,,,,
,,,,,,,,,,,,,,1,001,2024-08-23_14h32.51.399,IAT(Formal),2021.2.3,Win32,120.105693,,,,,,,,,,,,,,,i,1,0.9161,0,9,9,66,1,他们,i,,,,,,,,,,,,,,,,,,,,,,,,,,,,,,,,,,,,,,,,,
,,,,,,,,,,,,,,1,001,2024-08-23_14h32.51.399,IAT(Formal),2021.2.3,Win32,120.105693,,,,,,,,,,,,,,,e,1,0.5211,0,10,10,26,1,冷静,e,,,,,,,,,,,,,,,,,,,,,,,,,,,,,,,,,,,,,,,,,
,,,,,,,,,,,,,,1,001,2024-08-23_14h32.51.399,IAT(Formal),2021.2.3,Win32,120.105693,,,,,,,,,,,,,,,e,1,0.5688,0,11,11,2,1,我们,e,,,,,,,,,,,,,,,,,,,,,,,,,,,,,,,,,,,,,,,,,
,,,,,,,,,,,,,,1,001,2024-08-23_14h32.51.399,IAT(Formal),2021.2.3,Win32,120.105693,,,,,,,,,,,,,,,e,1,0.5275,0,12,12,74,1,俺,e,,,,,,,,,,,,,,,,,,,,,,,,,,,,,,,,,,,,,,,,,
,,,,,,,,,,,,,,1,001,2024-08-23_14h32.51.399,IAT(Formal),2021.2.3,Win32,120.105693,,,,,,,,,,,,,,,e,1,0.4925,0,13,13,21,1,稳重,e,,,,,,,,,,,,,,,,,,,,,,,,,,,,,,,,,,,,,,,,,
,,,,,,,,,,,,,,1,001,2024-08-23_14h32.51.399,IAT(Formal),2021.2.3,Win32,120.105693,,,,,,,,,,,,,,,i,1,0.4832,0,14,14,38,1,鲁莽,i,,,,,,,,,,,,,,,,,,,,,,,,,,,,,,,,,,,,,,,,,
,,,,,,,,,,,,,,1,001,2024-08-23_14h32.51.399,IAT(Formal),2021.2.3,Win32,120.105693,,,,,,,,,,,,,,,i,1,0.6668,0,15,15,67,1,他的,i,,,,,,,,,,,,,,,,,,,,,,,,,,,,,,,,,,,,,,,,,
,,,,,,,,,,,,,,1,001,2024-08-23_14h32.51.399,IAT(Formal),2021.2.3,Win32,120.105693,,,,,,,,,,,,,,,e,1,0.5756,0,16,16,22,1,无私,e,,,,,,,,,,,,,,,,,,,,,,,,,,,,,,,,,,,,,,,,,
,,,,,,,,,,,,,,1,001,2024-08-23_14h32.51.399,IAT(Formal),2021.2.3,Win32,120.105693,,,,,,,,,,,,,,,e,1,0.5586,0,17,17,28,1,活泼,e,,,,,,,,,,,,,,,,,,,,,,,,,,,,,,,,,,,,,,,,,
,,,,,,,,,,,,,,1,001,2024-08-23_14h32.51.399,IAT(Formal),2021.2.3,Win32,120.105693,,,,,,,,,,,,,,,e,1,0.5756,0,18,18,25,1,细腻,e,,,,,,,,,,,,,,,,,,,,,,,,,,,,,,,,,,,,,,,,,
,,,,,,,,,,,,,,1,001,2024-08-23_14h32.51.399,IAT(Formal),2021.2.3,Win32,120.105693,,,,,,,,,,,,,,,i,1,0.6006,0,19,19,47,1,固执,i,,,,,,,,,,,,,,,,,,,,,,,,,,,,,,,,,,,,,,,,,
,,,,,,,,,,,,,,1,001,2024-08-23_14h32.51.399,IAT(Formal),2021.2.3,Win32,120.105693,,,,,,,,,,,,,,,e,1,0.5671,0,20,20,63,1,自己,e,,,,,,,,,,,,,,,,,,,,,,,,,,,,,,,,,,,,,,,,,
,,,,,,,,,,,,,,1,001,2024-08-23_14h32.51.399,IAT(Formal),2021.2.3,Win32,120.105693,,,,,,,,,,,,,,,i,1,0.7263,0,21,21,44,1,暴躁,i,,,,,,,,,,,,,,,,,,,,,,,,,,,,,,,,,,,,,,,,,
,,,,,,,,,,,,,,1,001,2024-08-23_14h32.51.399,IAT(Formal),2021.2.3,Win32,120.105693,,,,,,,,,,,,,,,e,0,0.4786,0,22,22,8,1,他人,i,,,,,,,,,,,,,,,,,,,,,,,,,,,,,,,,,,,,,,,,,
,,,,,,,,,,,,,,1,001,2024-08-23_14h32.51.399,IAT(Formal),2021.2.3,Win32,120.105693,,,,,,,,,,,,,,,e,1,0.5839,0,23,23,60,1,我,e,,,,,,,,,,,,,,,,,,,,,,,,,,,,,,,,,,,,,,,,,
,,,,,,,,,,,,,,1,001,2024-08-23_14h32.51.399,IAT(Formal),2021.2.3,Win32,120.105693,,,,,,,,,,,,,,,e,1,0.5418,0,24,24,4,1,俺,e,,,,,,,,,,,,,,,,,,,,,,,,,,,,,,,,,,,,,,,,,
,,,,,,,,,,,,,,1,001,2024-08-23_14h32.51.399,IAT(Formal),2021.2.3,Win32,120.105693,,,,,,,,,,,,,,,e,1,0.6759,0,25,25,23,1,公正,e,,,,,,,,,,,,,,,,,,,,,,,,,,,,,,,,,,,,,,,,,
,,,,,,,,,,,,,,1,001,2024-08-23_14h32.51.399,IAT(Formal),2021.2.3,Win32,120.105693,,,,,,,,,,,,,,,i,1,0.6922,0,26,26,30,1,卑鄙,i,,,,,,,,,,,,,,,,,,,,,,,,,,,,,,,,,,,,,,,,,
,,,,,,,,,,,,,,1,001,2024-08-23_14h32.51.399,IAT(Formal),2021.2.3,Win32,120.105693,,,,,,,,,,,,,,,e,1,0.6177,0,27,27,18,1,勤奋,e,,,,,,,,,,,,,,,,,,,,,,,,,,,,,,,,,,,,,,,,,
,,,,,,,,,,,,,,1,001,2024-08-23_14h32.51.399,IAT(Formal),2021.2.3,Win32,120.105693,,,,,,,,,,,,,,,e,1,0.576,0,28,28,10,1,优秀,e,,,,,,,,,,,,,,,,,,,,,,,,,,,,,,,,,,,,,,,,,
,,,,,,,,,,,,,,1,001,2024-08-23_14h32.51.399,IAT(Formal),2021.2.3,Win32,120.105693,,,,,,,,,,,,,,,i,1,0.5507,0,29,29,49,1,下贱,i,,,,,,,,,,,,,,,,,,,,,,,,,,,,,,,,,,,,,,,,,
,,,,,,,,,,,,,,1,001,2024-08-23_14h32.51.399,IAT(Formal),2021.2.3,Win32,120.105693,,,,,,,,,,,,,,,i,1,0.6171,0,30,30,31,1,虚伪,i,,,,,,,,,,,,,,,,,,,,,,,,,,,,,,,,,,,,,,,,,
,,,,,,,,,,,,,,1,001,2024-08-23_14h32.51.399,IAT(Formal),2021.2.3,Win32,120.105693,,,,,,,,,,,,,,,i,1,0.5701,0,31,31,35,1,消极,i,,,,,,,,,,,,,,,,,,,,,,,,,,,,,,,,,,,,,,,,,
,,,,,,,,,,,,,,1,001,2024-08-23_14h32.51.399,IAT(Formal),2021.2.3,Win32,120.105693,,,,,,,,,,,,,,,i,1,0.7858,0,32,32,39,1,冒失,i,,,,,,,,,,,,,,,,,,,,,,,,,,,,,,,,,,,,,,,,,
,,,,,,,,,,,,,,1,001,2024-08-23_14h32.51.399,IAT(Formal),2021.2.3,Win32,120.105693,,,,,,,,,,,,,,,i,1,0.5421,0,33,33,40,1,执拗,i,,,,,,,,,,,,,,,,,,,,,,,,,,,,,,,,,,,,,,,,,
,,,,,,,,,,,,,,1,001,2024-08-23_14h32.51.399,IAT(Formal),2021.2.3,Win32,120.105693,,,,,,,,,,,,,,,i,1,0.8169,0,34,34,58,1,他人,i,,,,,,,,,,,,,,,,,,,,,,,,,,,,,,,,,,,,,,,,,
,,,,,,,,,,,,,,1,001,2024-08-23_14h32.51.399,IAT(Formal),2021.2.3,Win32,120.105693,,,,,,,,,,,,,,,i,1,0.6006,0,35,35,33,1,刻薄,i,,,,,,,,,,,,,,,,,,,,,,,,,,,,,,,,,,,,,,,,,
,,,,,,,,,,,,,,1,001,2024-08-23_14h32.51.399,IAT(Formal),2021.2.3,Win32,120.105693,,,,,,,,,,,,,,,e,1,0.5041,0,36,36,62,1,我们,e,,,,,,,,,,,,,,,,,,,,,,,,,,,,,,,,,,,,,,,,,
,,,,,,,,,,,,,,1,001,2024-08-23_14h32.51.399,IAT(Formal),2021.2.3,Win32,120.105693,,,,,,,,,,,,,,,e,1,0.5523,0,37,37,53,1,自己,e,,,,,,,,,,,,,,,,,,,,,,,,,,,,,,,,,,,,,,,,,
,,,,,,,,,,,,,,1,001,2024-08-23_14h32.51.399,IAT(Formal),2021.2.3,Win32,120.105693,,,,,,,,,,,,,,,e,1,0.5236,0,38,38,71,1,我的,e,,,,,,,,,,,,,,,,,,,,,,,,,,,,,,,,,,,,,,,,,
,,,,,,,,,,,,,,1,001,2024-08-23_14h32.51.399,IAT(Formal),2021.2.3,Win32,120.105693,,,,,,,,,,,,,,,e,1,1.0072,0,39,39,27,1,热情,e,,,,,,,,,,,,,,,,,,,,,,,,,,,,,,,,,,,,,,,,,
,,,,,,,,,,,,,,1,001,2024-08-23_14h32.51.399,IAT(Formal),2021.2.3,Win32,120.105693,,,,,,,,,,,,,,,i,1,0.5592,0,40,40,57,1,他的,i,,,,,,,,,,,,,,,,,,,,,,,,,,,,,,,,,,,,,,,,,
,,,,,,,,,,,,,,1,001,2024-08-23_14h32.51.399,IAT(Formal),2021.2.3,Win32,120.105693,,,,,,,,,,,,,,,e,1,0.8446,0,41,41,14,1,乐观,e,,,,,,,,,,,,,,,,,,,,,,,,,,,,,,,,,,,,,,,,,
,,,,,,,,,,,,,,1,001,2024-08-23_14h32.51.399,IAT(Formal),2021.2.3,Win32,120.105693,,,,,,,,,,,,,,,i,1,0.6918,0,42,42,9,1,其他,i,,,,,,,,,,,,,,,,,,,,,,,,,,,,,,,,,,,,,,,,,
,,,,,,,,,,,,,,1,001,2024-08-23_14h32.51.399,IAT(Formal),2021.2.3,Win32,120.105693,,,,,,,,,,,,,,,e,1,0.7501,0,43,43,19,1,机智,e,,,,,,,,,,,,,,,,,,,,,,,,,,,,,,,,,,,,,,,,,
,,,,,,,,,,,,,,1,001,2024-08-23_14h32.51.399,IAT(Formal),2021.2.3,Win32,120.105693,,,,,,,,,,,,,,,i,1,0.5489,0,44,44,46,1,野蛮,i,,,,,,,,,,,,,,,,,,,,,,,,,,,,,,,,,,,,,,,,,
,,,,,,,,,,,,,,1,001,2024-08-23_14h32.51.399,IAT(Formal),2021.2.3,Win32,120.105693,,,,,,,,,,,,,,,i,1,0.5918,0,45,45,75,1,他,i,,,,,,,,,,,,,,,,,,,,,,,,,,,,,,,,,,,,,,,,,
,,,,,,,,,,,,,,1,001,2024-08-23_14h32.51.399,IAT(Formal),2021.2.3,Win32,120.105693,,,,,,,,,,,,,,,e,1,0.494,0,46,46,61,1,我的,e,,,,,,,,,,,,,,,,,,,,,,,,,,,,,,,,,,,,,,,,,
,,,,,,,,,,,,,,1,001,2024-08-23_14h32.51.399,IAT(Formal),2021.2.3,Win32,120.105693,,,,,,,,,,,,,,,i,1,0.542,0,47,47,45,1,猖狂,i,,,,,,,,,,,,,,,,,,,,,,,,,,,,,,,,,,,,,,,,,
,,,,,,,,,,,,,,1,001,2024-08-23_14h32.51.399,IAT(Formal),2021.2.3,Win32,120.105693,,,,,,,,,,,,,,,e,1,0.5592,0,48,48,16,1,正直,e,,,,,,,,,,,,,,,,,,,,,,,,,,,,,,,,,,,,,,,,,
,,,,,,,,,,,,,,1,001,2024-08-23_14h32.51.399,IAT(Formal),2021.2.3,Win32,120.105693,,,,,,,,,,,,,,,e,1,0.5764,0,49,49,0,1,我,e,,,,,,,,,,,,,,,,,,,,,,,,,,,,,,,,,,,,,,,,,
,,,,,,,,,,,,,,1,001,2024-08-23_14h32.51.399,IAT(Formal),2021.2.3,Win32,120.105693,,,,,,,,,,,,,,,i,1,0.9585,0,50,50,34,1,悲观,i,,,,,,,,,,,,,,,,,,,,,,,,,,,,,,,,,,,,,,,,,
,,,,,,,,,,,,,,1,001,2024-08-23_14h32.51.399,IAT(Formal),2021.2.3,Win32,120.105693,,,,,,,,,,,,,,,e,1,0.593,0,51,51,12,1,聪明,e,,,,,,,,,,,,,,,,,,,,,,,,,,,,,,,,,,,,,,,,,
,,,,,,,,,,,,,,1,001,2024-08-23_14h32.51.399,IAT(Formal),2021.2.3,Win32,120.105693,,,,,,,,,,,,,,,i,1,0.6246,0,52,52,55,1,他,i,,,,,,,,,,,,,,,,,,,,,,,,,,,,,,,,,,,,,,,,,
,,,,,,,,,,,,,,1,001,2024-08-23_14h32.51.399,IAT(Formal),2021.2.3,Win32,120.105693,,,,,,,,,,,,,,,e,1,0.534,0,53,53,73,1,自己,e,,,,,,,,,,,,,,,,,,,,,,,,,,,,,,,,,,,,,,,,,
,,,,,,,,,,,,,,1,001,2024-08-23_14h32.51.399,IAT(Formal),2021.2.3,Win32,120.105693,,,,,,,,,,,,,,,i,1,0.5286,0,54,54,6,1,他们,i,,,,,,,,,,,,,,,,,,,,,,,,,,,,,,,,,,,,,,,,,
,,,,,,,,,,,,,,1,001,2024-08-23_14h32.51.399,IAT(Formal),2021.2.3,Win32,120.105693,,,,,,,,,,,,,,,e,1,0.6115,0,55,55,64,1,俺,e,,,,,,,,,,,,,,,,,,,,,,,,,,,,,,,,,,,,,,,,,
,,,,,,,,,,,,,,1,001,2024-08-23_14h32.51.399,IAT(Formal),2021.2.3,Win32,120.105693,,,,,,,,,,,,,,,e,1,0.791,0,56,56,11,1,崇高,e,,,,,,,,,,,,,,,,,,,,,,,,,,,,,,,,,,,,,,,,,
,,,,,,,,,,,,,,1,001,2024-08-23_14h32.51.399,IAT(Formal),2021.2.3,Win32,120.105693,,,,,,,,,,,,,,,i,1,0.5494,0,57,57,48,1,轻率,i,,,,,,,,,,,,,,,,,,,,,,,,,,,,,,,,,,,,,,,,,
,,,,,,,,,,,,,,1,001,2024-08-23_14h32.51.399,IAT(Formal),2021.2.3,Win32,120.105693,,,,,,,,,,,,,,,i,1,0.6579,0,58,58,5,1,他,i,,,,,,,,,,,,,,,,,,,,,,,,,,,,,,,,,,,,,,,,,
,,,,,,,,,,,,,,1,001,2024-08-23_14h32.51.399,IAT(Formal),2021.2.3,Win32,120.105693,,,,,,,,,,,,,,,i,1,0.6742,0,59,59,69,1,其他,i,,,,,,,,,,,,,,,,,,,,,,,,,,,,,,,,,,,,,,,,,
,,,,,,,,,,,,,,1,001,2024-08-23_14h32.51.399,IAT(Formal),2021.2.3,Win32,120.105693,,,,,,,,,,,,,,,i,1,0.6066,0,60,60,42,1,凶狠,i,,,,,,,,,,,,,,,,,,,,,,,,,,,,,,,,,,,,,,,,,
,,,,,,,,,,,,,,1,001,2024-08-23_14h32.51.399,IAT(Formal),2021.2.3,Win32,120.105693,,,,,,,,,,,,,,,e,1,0.5744,0,61,61,50,1,我,e,,,,,,,,,,,,,,,,,,,,,,,,,,,,,,,,,,,,,,,,,
,,,,,,,,,,,,,,1,001,2024-08-23_14h32.51.399,IAT(Formal),2021.2.3,Win32,120.105693,,,,,,,,,,,,,,,e,1,0.9161,0,62,62,13,1,杰出,e,,,,,,,,,,,,,,,,,,,,,,,,,,,,,,,,,,,,,,,,,
,,,,,,,,,,,,,,1,001,2024-08-23_14h32.51.399,IAT(Formal),2021.2.3,Win32,120.105693,,,,,,,,,,,,,,,i,1,0.5337,0,63,63,7,1,他的,i,,,,,,,,,,,,,,,,,,,,,,,,,,,,,,,,,,,,,,,,,
,,,,,,,,,,,,,,1,001,2024-08-23_14h32.51.399,IAT(Formal),2021.2.3,Win32,120.105693,,,,,,,,,,,,,,,i,1,0.4765,0,64,64,79,1,其他,i,,,,,,,,,,,,,,,,,,,,,,,,,,,,,,,,,,,,,,,,,
,,,,,,,,,,,,,,1,001,2024-08-23_14h32.51.399,IAT(Formal),2021.2.3,Win32,120.105693,,,,,,,,,,,,,,,i,1,0.5599,0,65,65,37,1,傲慢,i,,,,,,,,,,,,,,,,,,,,,,,,,,,,,,,,,,,,,,,,,
,,,,,,,,,,,,,,1,001,2024-08-23_14h32.51.399,IAT(Formal),2021.2.3,Win32,120.105693,,,,,,,,,,,,,,,i,1,0.4004,0,66,66,78,1,他人,i,,,,,,,,,,,,,,,,,,,,,,,,,,,,,,,,,,,,,,,,,
,,,,,,,,,,,,,,1,001,2024-08-23_14h32.51.399,IAT(Formal),2021.2.3,Win32,120.105693,,,,,,,,,,,,,,,e,1,0.4924,0,67,67,52,1,我们,e,,,,,,,,,,,,,,,,,,,,,,,,,,,,,,,,,,,,,,,,,
,,,,,,,,,,,,,,1,001,2024-08-23_14h32.51.399,IAT(Formal),2021.2.3,Win32,120.105693,,,,,,,,,,,,,,,i,1,0.7651,0,68,68,43,1,自私,i,,,,,,,,,,,,,,,,,,,,,,,,,,,,,,,,,,,,,,,,,
,,,,,,,,,,,,,,1,001,2024-08-23_14h32.51.399,IAT(Formal),2021.2.3,Win32,120.105693,,,,,,,,,,,,,,,i,0,0.4867,0,69,69,54,1,俺,e,,,,,,,,,,,,,,,,,,,,,,,,,,,,,,,,,,,,,,,,,
,,,,,,,,,,,,,,1,001,2024-08-23_14h32.51.399,IAT(Formal),2021.2.3,Win32,120.105693,,,,,,,,,,,,,,,i,1,0.4603,0,70,70,68,1,他人,i,,,,,,,,,,,,,,,,,,,,,,,,,,,,,,,,,,,,,,,,,
,,,,,,,,,,,,,,1,001,2024-08-23_14h32.51.399,IAT(Formal),2021.2.3,Win32,120.105693,,,,,,,,,,,,,,,i,1,0.4933,0,71,71,59,1,其他,i,,,,,,,,,,,,,,,,,,,,,,,,,,,,,,,,,,,,,,,,,
,,,,,,,,,,,,,,1,001,2024-08-23_14h32.51.399,IAT(Formal),2021.2.3,Win32,120.105693,,,,,,,,,,,,,,,e,1,0.9082,0,72,72,17,1,勇敢,e,,,,,,,,,,,,,,,,,,,,,,,,,,,,,,,,,,,,,,,,,
,,,,,,,,,,,,,,1,001,2024-08-23_14h32.51.399,IAT(Formal),2021.2.3,Win32,120.105693,,,,,,,,,,,,,,,e,1,0.9933,0,73,73,29,1,诚恳,e,,,,,,,,,,,,,,,,,,,,,,,,,,,,,,,,,,,,,,,,,
,,,,,,,,,,,,,,1,001,2024-08-23_14h32.51.399,IAT(Formal),2021.2.3,Win32,120.105693,,,,,,,,,,,,,,,i,1,0.6577,0,74,74,65,1,他,i,,,,,,,,,,,,,,,,,,,,,,,,,,,,,,,,,,,,,,,,,
,,,,,,,,,,,,,,1,001,2024-08-23_14h32.51.399,IAT(Formal),2021.2.3,Win32,120.105693,,,,,,,,,,,,,,,e,1,0.7583,0,75,75,51,1,我的,e,,,,,,,,,,,,,,,,,,,,,,,,,,,,,,,,,,,,,,,,,
,,,,,,,,,,,,,,1,001,2024-08-23_14h32.51.399,IAT(Formal),2021.2.3,Win32,120.105693,,,,,,,,,,,,,,,e,1,0.881,0,76,76,24,1,朴实,e,,,,,,,,,,,,,,,,,,,,,,,,,,,,,,,,,,,,,,,,,
,,,,,,,,,,,,,,1,001,2024-08-23_14h32.51.399,IAT(Formal),2021.2.3,Win32,120.105693,,,,,,,,,,,,,,,i,1,0.5511,0,77,77,56,1,他们,i,,,,,,,,,,,,,,,,,,,,,,,,,,,,,,,,,,,,,,,,,
,,,,,,,,,,,,,,1,001,2024-08-23_14h32.51.399,IAT(Formal),2021.2.3,Win32,120.105693,,,,,,,,,,,,,,,i,1,0.5495,0,78,78,77,1,他的,i,,,,,,,,,,,,,,,,,,,,,,,,,,,,,,,,,,,,,,,,,
,,,,,,,,,,,,,,1,001,2024-08-23_14h32.51.399,IAT(Formal),2021.2.3,Win32,120.105693,,,,,,,,,,,,,,,i,1,1.0599,0,79,79,32,1,愚蠢,i,,,,,,,,,,,,,,,,,,,,,,,,,,,,,,,,,,,,,,,,,
,,,,,,,,,,,,,,1,001,2024-08-23_14h32.51.399,IAT(Formal),2021.2.3,Win32,120.105693,,,,,,,,,,,,,,,i,1,0.5636,,,,,,下贱,i,space,11.4151,0,0,0,49,1,,,,,,,,,,,,,,,,,,,,,,,,,,,,,,,,,,
,,,,,,,,,,,,,,1,001,2024-08-23_14h32.51.399,IAT(Formal),2021.2.3,Win32,120.105693,,,,,,,,,,,,,,,e,1,0.6676,,,,,,机智,e,,,0,1,1,19,1,,,,,,,,,,,,,,,,,,,,,,,,,,,,,,,,,,
,,,,,,,,,,,,,,1,001,2024-08-23_14h32.51.399,IAT(Formal),2021.2.3,Win32,120.105693,,,,,,,,,,,,,,,e,1,0.7087,,,,,,我们,e,,,0,2,2,52,1,,,,,,,,,,,,,,,,,,,,,,,,,,,,,,,,,,
,,,,,,,,,,,,,,1,001,2024-08-23_14h32.51.399,IAT(Formal),2021.2.3,Win32,120.105693,,,,,,,,,,,,,,,e,1,0.6,,,,,,公正,e,,,0,3,3,23,1,,,,,,,,,,,,,,,,,,,,,,,,,,,,,,,,,,
,,,,,,,,,,,,,,1,001,2024-08-23_14h32.51.399,IAT(Formal),2021.2.3,Win32,120.105693,,,,,,,,,,,,,,,e,1,0.4856,,,,,,优秀,e,,,0,4,4,10,1,,,,,,,,,,,,,,,,,,,,,,,,,,,,,,,,,,
,,,,,,,,,,,,,,1,001,2024-08-23_14h32.51.399,IAT(Formal),2021.2.3,Win32,120.105693,,,,,,,,,,,,,,,i,1,0.6275,,,,,,鲁莽,i,,,0,5,5,38,1,,,,,,,,,,,,,,,,,,,,,,,,,,,,,,,,,,
,,,,,,,,,,,,,,1,001,2024-08-23_14h32.51.399,IAT(Formal),2021.2.3,Win32,120.105693,,,,,,,,,,,,,,,i,1,0.6896,,,,,,他的,i,,,0,6,6,7,1,,,,,,,,,,,,,,,,,,,,,,,,,,,,,,,,,,
,,,,,,,,,,,,,,1,001,2024-08-23_14h32.51.399,IAT(Formal),2021.2.3,Win32,120.105693,,,,,,,,,,,,,,,i,1,0.4735,,,,,,他,i,,,0,7,7,75,1,,,,,,,,,,,,,,,,,,,,,,,,,,,,,,,,,,
,,,,,,,,,,,,,,1,001,2024-08-23_14h32.51.399,IAT(Formal),2021.2.3,Win32,120.105693,,,,,,,,,,,,,,,e,1,0.5285,,,,,,俺,e,,,0,8,8,64,1,,,,,,,,,,,,,,,,,,,,,,,,,,,,,,,,,,
,,,,,,,,,,,,,,1,001,2024-08-23_14h32.51.399,IAT(Formal),2021.2.3,Win32,120.105693,,,,,,,,,,,,,,,i,1,0.4421,,,,,,他人,i,,,0,9,9,78,1,,,,,,,,,,,,,,,,,,,,,,,,,,,,,,,,,,
,,,,,,,,,,,,,,1,001,2024-08-23_14h32.51.399,IAT(Formal),2021.2.3,Win32,120.105693,,,,,,,,,,,,,,,e,1,0.5233,,,,,,认真,e,,,0,10,10,20,1,,,,,,,,,,,,,,,,,,,,,,,,,,,,,,,,,,
,,,,,,,,,,,,,,1,001,2024-08-23_14h32.51.399,IAT(Formal),2021.2.3,Win32,120.105693,,,,,,,,,,,,,,,i,1,0.6148,,,,,,其他,i,,,0,11,11,59,1,,,,,,,,,,,,,,,,,,,,,,,,,,,,,,,,,,
,,,,,,,,,,,,,,1,001,2024-08-23_14h32.51.399,IAT(Formal),2021.2.3,Win32,120.105693,,,,,,,,,,,,,,,e,1,0.6073,,,,,,我,e,,,0,12,12,60,1,,,,,,,,,,,,,,,,,,,,,,,,,,,,,,,,,,
,,,,,,,,,,,,,,1,001,2024-08-23_14h32.51.399,IAT(Formal),2021.2.3,Win32,120.105693,,,,,,,,,,,,,,,i,1,0.4834,,,,,,他们,i,,,0,13,13,76,1,,,,,,,,,,,,,,,,,,,,,,,,,,,,,,,,,,
,,,,,,,,,,,,,,1,001,2024-08-23_14h32.51.399,IAT(Formal),2021.2.3,Win32,120.105693,,,,,,,,,,,,,,,e,1,0.5213,,,,,,活泼,e,,,0,14,14,28,1,,,,,,,,,,,,,,,,,,,,,,,,,,,,,,,,,,
,,,,,,,,,,,,,,1,001,2024-08-23_14h32.51.399,IAT(Formal),2021.2.3,Win32,120.105693,,,,,,,,,,,,,,,e,1,0.5418,,,,,,我们,e,,,0,15,15,72,1,,,,,,,,,,,,,,,,,,,,,,,,,,,,,,,,,,
,,,,,,,,,,,,,,1,001,2024-08-23_14h32.51.399,IAT(Formal),2021.2.3,Win32,120.105693,,,,,,,,,,,,,,,i,1,0.5525,,,,,,他们,i,,,0,16,16,6,1,,,,,,,,,,,,,,,,,,,,,,,,,,,,,,,,,,
,,,,,,,,,,,,,,1,001,2024-08-23_14h32.51.399,IAT(Formal),2021.2.3,Win32,120.105693,,,,,,,,,,,,,,,i,1,0.4509,,,,,,他们,i,,,0,17,17,56,1,,,,,,,,,,,,,,,,,,,,,,,,,,,,,,,,,,
,,,,,,,,,,,,,,1,001,2024-08-23_14h32.51.399,IAT(Formal),2021.2.3,Win32,120.105693,,,,,,,,,,,,,,,i,1,0.5414,,,,,,消极,i,,,0,18,18,35,1,,,,,,,,,,,,,,,,,,,,,,,,,,,,,,,,,,
,,,,,,,,,,,,,,1,001,2024-08-23_14h32.51.399,IAT(Formal),2021.2.3,Win32,120.105693,,,,,,,,,,,,,,,e,1,0.4865,,,,,,我们,e,,,0,19,19,2,1,,,,,,,,,,,,,,,,,,,,,,,,,,,,,,,,,,
,,,,,,,,,,,,,,1,001,2024-08-23_14h32.51.399,IAT(Formal),2021.2.3,Win32,120.105693,,,,,,,,,,,,,,,i,1,0.4925,,,,,,凶狠,i,,,0,20,20,42,1,,,,,,,,,,,,,,,,,,,,,,,,,,,,,,,,,,
,,,,,,,,,,,,,,1,001,2024-08-23_14h32.51.399,IAT(Formal),2021.2.3,Win32,120.105693,,,,,,,,,,,,,,,e,1,0.551,,,,,,勇敢,e,,,0,21,21,17,1,,,,,,,,,,,,,,,,,,,,,,,,,,,,,,,,,,
,,,,,,,,,,,,,,1,001,2024-08-23_14h32.51.399,IAT(Formal),2021.2.3,Win32,120.105693,,,,,,,,,,,,,,,e,1,0.678,,,,,,我们,e,,,0,22,22,62,1,,,,,,,,,,,,,,,,,,,,,,,,,,,,,,,,,,
,,,,,,,,,,,,,,1,001,2024-08-23_14h32.51.399,IAT(Formal),2021.2.3,Win32,120.105693,,,,,,,,,,,,,,,i,1,0.4287,,,,,,他,i,,,0,23,23,5,1,,,,,,,,,,,,,,,,,,,,,,,,,,,,,,,,,,
,,,,,,,,,,,,,,1,001,2024-08-23_14h32.51.399,IAT(Formal),2021.2.3,Win32,120.105693,,,,,,,,,,,,,,,i,1,0.4795,,,,,,其他,i,,,0,24,24,69,1,,,,,,,,,,,,,,,,,,,,,,,,,,,,,,,,,,
,,,,,,,,,,,,,,1,001,2024-08-23_14h32.51.399,IAT(Formal),2021.2.3,Win32,120.105693,,,,,,,,,,,,,,,i,1,0.7418,,,,,,散漫,i,,,0,25,25,41,1,,,,,,,,,,,,,,,,,,,,,,,,,,,,,,,,,,
,,,,,,,,,,,,,,1,001,2024-08-23_14h32.51.399,IAT(Formal),2021.2.3,Win32,120.105693,,,,,,,,,,,,,,,e,1,0.5095,,,,,,自己,e,,,0,26,26,73,1,,,,,,,,,,,,,,,,,,,,,,,,,,,,,,,,,,
,,,,,,,,,,,,,,1,001,2024-08-23_14h32.51.399,IAT(Formal),2021.2.3,Win32,120.105693,,,,,,,,,,,,,,,e,1,0.7007,,,,,,聪明,e,,,0,27,27,12,1,,,,,,,,,,,,,,,,,,,,,,,,,,,,,,,,,,
,,,,,,,,,,,,,,1,001,2024-08-23_14h32.51.399,IAT(Formal),2021.2.3,Win32,120.105693,,,,,,,,,,,,,,,i,1,0.5014,,,,,,固执,i,,,0,28,28,47,1,,,,,,,,,,,,,,,,,,,,,,,,,,,,,,,,,,
,,,,,,,,,,,,,,1,001,2024-08-23_14h32.51.399,IAT(Formal),2021.2.3,Win32,120.105693,,,,,,,,,,,,,,,e,1,0.5944,,,,,,我,e,,,0,29,29,70,1,,,,,,,,,,,,,,,,,,,,,,,,,,,,,,,,,,
,,,,,,,,,,,,,,1,001,2024-08-23_14h32.51.399,IAT(Formal),2021.2.3,Win32,120.105693,,,,,,,,,,,,,,,e,1,0.477,,,,,,我,e,,,0,30,30,50,1,,,,,,,,,,,,,,,,,,,,,,,,,,,,,,,,,,
,,,,,,,,,,,,,,1,001,2024-08-23_14h32.51.399,IAT(Formal),2021.2.3,Win32,120.105693,,,,,,,,,,,,,,,e,1,0.6843,,,,,,乐观,e,,,0,31,31,14,1,,,,,,,,,,,,,,,,,,,,,,,,,,,,,,,,,,
,,,,,,,,,,,,,,1,001,2024-08-23_14h32.51.399,IAT(Formal),2021.2.3,Win32,120.105693,,,,,,,,,,,,,,,i,1,0.5287,,,,,,其他,i,,,0,32,32,9,1,,,,,,,,,,,,,,,,,,,,,,,,,,,,,,,,,,
,,,,,,,,,,,,,,1,001,2024-08-23_14h32.51.399,IAT(Formal),2021.2.3,Win32,120.105693,,,,,,,,,,,,,,,e,1,0.6255,,,,,,杰出,e,,,0,33,33,13,1,,,,,,,,,,,,,,,,,,,,,,,,,,,,,,,,,,
,,,,,,,,,,,,,,1,001,2024-08-23_14h32.51.399,IAT(Formal),2021.2.3,Win32,120.105693,,,,,,,,,,,,,,,i,1,0.4776,,,,,,暴躁,i,,,0,34,34,44,1,,,,,,,,,,,,,,,,,,,,,,,,,,,,,,,,,,
,,,,,,,,,,,,,,1,001,2024-08-23_14h32.51.399,IAT(Formal),2021.2.3,Win32,120.105693,,,,,,,,,,,,,,,i,1,0.5577,,,,,,他们,i,,,0,35,35,66,1,,,,,,,,,,,,,,,,,,,,,,,,,,,,,,,,,,
,,,,,,,,,,,,,,1,001,2024-08-23_14h32.51.399,IAT(Formal),2021.2.3,Win32,120.105693,,,,,,,,,,,,,,,i,1,0.6581,,,,,,野蛮,i,,,0,36,36,46,1,,,,,,,,,,,,,,,,,,,,,,,,,,,,,,,,,,
,,,,,,,,,,,,,,1,001,2024-08-23_14h32.51.399,IAT(Formal),2021.2.3,Win32,120.105693,,,,,,,,,,,,,,,e,1,0.7335,,,,,,正直,e,,,0,37,37,16,1,,,,,,,,,,,,,,,,,,,,,,,,,,,,,,,,,,
,,,,,,,,,,,,,,1,001,2024-08-23_14h32.51.399,IAT(Formal),2021.2.3,Win32,120.105693,,,,,,,,,,,,,,,e,1,0.6665,,,,,,我的,e,,,0,38,38,51,1,,,,,,,,,,,,,,,,,,,,,,,,,,,,,,,,,,
,,,,,,,,,,,,,,1,001,2024-08-23_14h32.51.399,IAT(Formal),2021.2.3,Win32,120.105693,,,,,,,,,,,,,,,i,1,0.5752,,,,,,他的,i,,,0,39,39,67,1,,,,,,,,,,,,,,,,,,,,,,,,,,,,,,,,,,
,,,,,,,,,,,,,,1,001,2024-08-23_14h32.51.399,IAT(Formal),2021.2.3,Win32,120.105693,,,,,,,,,,,,,,,,0,,,,,,,朴实,e,,,0,40,40,24,1,,,,,,,,,,,,,,,,,,,,,,,,,,,,,,,,,,
,,,,,,,,,,,,,,1,001,2024-08-23_14h32.51.399,IAT(Formal),2021.2.3,Win32,120.105693,,,,,,,,,,,,,,,e,1,0.6583,,,,,,我的,e,,,0,41,41,71,1,,,,,,,,,,,,,,,,,,,,,,,,,,,,,,,,,,
,,,,,,,,,,,,,,1,001,2024-08-23_14h32.51.399,IAT(Formal),2021.2.3,Win32,120.105693,,,,,,,,,,,,,,,i,1,0.7928,,,,,,猖狂,i,,,0,42,42,45,1,,,,,,,,,,,,,,,,,,,,,,,,,,,,,,,,,,
,,,,,,,,,,,,,,1,001,2024-08-23_14h32.51.399,IAT(Formal),2021.2.3,Win32,120.105693,,,,,,,,,,,,,,,e,1,0.6838,,,,,,诚实,e,,,0,43,43,15,1,,,,,,,,,,,,,,,,,,,,,,,,,,,,,,,,,,
,,,,,,,,,,,,,,1,001,2024-08-23_14h32.51.399,IAT(Formal),2021.2.3,Win32,120.105693,,,,,,,,,,,,,,,e,1,0.5496,,,,,,我,e,,,0,44,44,0,1,,,,,,,,,,,,,,,,,,,,,,,,,,,,,,,,,,
,,,,,,,,,,,,,,1,001,2024-08-23_14h32.51.399,IAT(Formal),2021.2.3,Win32,120.105693,,,,,,,,,,,,,,,e,1,0.6646,,,,,,崇高,e,,,0,45,45,11,1,,,,,,,,,,,,,,,,,,,,,,,,,,,,,,,,,,
,,,,,,,,,,,,,,1,001,2024-08-23_14h32.51.399,IAT(Formal),2021.2.3,Win32,120.105693,,,,,,,,,,,,,,,e,1,0.6245,,,,,,自己,e,,,0,46,46,63,1,,,,,,,,,,,,,,,,,,,,,,,,,,,,,,,,,,
,,,,,,,,,,,,,,1,001,2024-08-23_14h32.51.399,IAT(Formal),2021.2.3,Win32,120.105693,,,,,,,,,,,,,,,i,1,0.6583,,,,,,他的,i,,,0,47,47,57,1,,,,,,,,,,,,,,,,,,,,,,,,,,,,,,,,,,
,,,,,,,,,,,,,,1,001,2024-08-23_14h32.51.399,IAT(Formal),2021.2.3,Win32,120.105693,,,,,,,,,,,,,,,i,1,0.7744,,,,,,傲慢,i,,,0,48,48,37,1,,,,,,,,,,,,,,,,,,,,,,,,,,,,,,,,,,
,,,,,,,,,,,,,,1,001,2024-08-23_14h32.51.399,IAT(Formal),2021.2.3,Win32,120.105693,,,,,,,,,,,,,,,e,1,0.568,,,,,,俺,e,,,0,49,49,74,1,,,,,,,,,,,,,,,,,,,,,,,,,,,,,,,,,,
,,,,,,,,,,,,,,1,001,2024-08-23_14h32.51.399,IAT(Formal),2021.2.3,Win32,120.105693,,,,,,,,,,,,,,,e,1,0.5257,,,,,,自己,e,,,0,50,50,3,1,,,,,,,,,,,,,,,,,,,,,,,,,,,,,,,,,,
,,,,,,,,,,,,,,1,001,2024-08-23_14h32.51.399,IAT(Formal),2021.2.3,Win32,120.105693,,,,,,,,,,,,,,,e,1,0.7914,,,,,,勤奋,e,,,0,51,51,18,1,,,,,,,,,,,,,,,,,,,,,,,,,,,,,,,,,,
,,,,,,,,,,,,,,1,001,2024-08-23_14h32.51.399,IAT(Formal),2021.2.3,Win32,120.105693,,,,,,,,,,,,,,,i,1,0.6407,,,,,,自私,i,,,0,52,52,43,1,,,,,,,,,,,,,,,,,,,,,,,,,,,,,,,,,,
,,,,,,,,,,,,,,1,001,2024-08-23_14h32.51.399,IAT(Formal),2021.2.3,Win32,120.105693,,,,,,,,,,,,,,,e,1,0.5243,,,,,,俺,e,,,0,53,53,4,1,,,,,,,,,,,,,,,,,,,,,,,,,,,,,,,,,,
,,,,,,,,,,,,,,1,001,2024-08-23_14h32.51.399,IAT(Formal),2021.2.3,Win32,120.105693,,,,,,,,,,,,,,,i,1,0.4346,,,,,,他人,i,,,0,54,54,8,1,,,,,,,,,,,,,,,,,,,,,,,,,,,,,,,,,,
,,,,,,,,,,,,,,1,001,2024-08-23_14h32.51.399,IAT(Formal),2021.2.3,Win32,120.105693,,,,,,,,,,,,,,,i,1,0.484,,,,,,刻薄,i,,,0,55,55,33,1,,,,,,,,,,,,,,,,,,,,,,,,,,,,,,,,,,
,,,,,,,,,,,,,,1,001,2024-08-23_14h32.51.399,IAT(Formal),2021.2.3,Win32,120.105693,,,,,,,,,,,,,,,e,1,0.667,,,,,,无私,e,,,0,56,56,22,1,,,,,,,,,,,,,,,,,,,,,,,,,,,,,,,,,,
,,,,,,,,,,,,,,1,001,2024-08-23_14h32.51.399,IAT(Formal),2021.2.3,Win32,120.105693,,,,,,,,,,,,,,,e,1,0.5088,,,,,,俺,e,,,0,57,57,54,1,,,,,,,,,,,,,,,,,,,,,,,,,,,,,,,,,,
,,,,,,,,,,,,,,1,001,2024-08-23_14h32.51.399,IAT(Formal),2021.2.3,Win32,120.105693,,,,,,,,,,,,,,,e,1,0.9865,,,,,,热情,e,,,0,58,58,27,1,,,,,,,,,,,,,,,,,,,,,,,,,,,,,,,,,,
,,,,,,,,,,,,,,1,001,2024-08-23_14h32.51.399,IAT(Formal),2021.2.3,Win32,120.105693,,,,,,,,,,,,,,,i,1,0.6587,,,,,,执拗,i,,,0,59,59,40,1,,,,,,,,,,,,,,,,,,,,,,,,,,,,,,,,,,
,,,,,,,,,,,,,,1,001,2024-08-23_14h32.51.399,IAT(Formal),2021.2.3,Win32,120.105693,,,,,,,,,,,,,,,,0,,,,,,,悲观,i,,,0,60,60,34,1,,,,,,,,,,,,,,,,,,,,,,,,,,,,,,,,,,
,,,,,,,,,,,,,,1,001,2024-08-23_14h32.51.399,IAT(Formal),2021.2.3,Win32,120.105693,,,,,,,,,,,,,,,i,1,1.2837,,,,,,轻率,i,,,0,61,61,48,1,,,,,,,,,,,,,,,,,,,,,,,,,,,,,,,,,,
,,,,,,,,,,,,,,1,001,2024-08-23_14h32.51.399,IAT(Formal),2021.2.3,Win32,120.105693,,,,,,,,,,,,,,,e,1,0.7712,,,,,,稳重,e,,,0,62,62,21,1,,,,,,,,,,,,,,,,,,,,,,,,,,,,,,,,,,
,,,,,,,,,,,,,,1,001,2024-08-23_14h32.51.399,IAT(Formal),2021.2.3,Win32,120.105693,,,,,,,,,,,,,,,i,1,0.7837,,,,,,他人,i,,,0,63,63,68,1,,,,,,,,,,,,,,,,,,,,,,,,,,,,,,,,,,
,,,,,,,,,,,,,,1,001,2024-08-23_14h32.51.399,IAT(Formal),2021.2.3,Win32,120.105693,,,,,,,,,,,,,,,i,1,0.8274,,,,,,他,i,,,0,64,64,55,1,,,,,,,,,,,,,,,,,,,,,,,,,,,,,,,,,,
,,,,,,,,,,,,,,1,001,2024-08-23_14h32.51.399,IAT(Formal),2021.2.3,Win32,120.105693,,,,,,,,,,,,,,,i,1,0.8443,,,,,,他的,i,,,0,65,65,77,1,,,,,,,,,,,,,,,,,,,,,,,,,,,,,,,,,,
,,,,,,,,,,,,,,1,001,2024-08-23_14h32.51.399,IAT(Formal),2021.2.3,Win32,120.105693,,,,,,,,,,,,,,,e,1,0.6003,,,,,,诚恳,e,,,0,66,66,29,1,,,,,,,,,,,,,,,,,,,,,,,,,,,,,,,,,,
,,,,,,,,,,,,,,1,001,2024-08-23_14h32.51.399,IAT(Formal),2021.2.3,Win32,120.105693,,,,,,,,,,,,,,,i,1,0.5919,,,,,,其他,i,,,0,67,67,79,1,,,,,,,,,,,,,,,,,,,,,,,,,,,,,,,,,,
,,,,,,,,,,,,,,1,001,2024-08-23_14h32.51.399,IAT(Formal),2021.2.3,Win32,120.105693,,,,,,,,,,,,,,,i,1,0.9013,,,,,,冒失,i,,,0,68,68,39,1,,,,,,,,,,,,,,,,,,,,,,,,,,,,,,,,,,
,,,,,,,,,,,,,,1,001,2024-08-23_14h32.51.399,IAT(Formal),2021.2.3,Win32,120.105693,,,,,,,,,,,,,,,i,1,0.6011,,,,,,卑鄙,i,,,0,69,69,30,1,,,,,,,,,,,,,,,,,,,,,,,,,,,,,,,,,,
,,,,,,,,,,,,,,1,001,2024-08-23_14h32.51.399,IAT(Formal),2021.2.3,Win32,120.105693,,,,,,,,,,,,,,,i,1,0.5625,,,,,,虚伪,i,,,0,70,70,31,1,,,,,,,,,,,,,,,,,,,,,,,,,,,,,,,,,,
,,,,,,,,,,,,,,1,001,2024-08-23_14h32.51.399,IAT(Formal),2021.2.3,Win32,120.105693,,,,,,,,,,,,,,,e,1,0.6917,,,,,,我的,e,,,0,71,71,1,1,,,,,,,,,,,,,,,,,,,,,,,,,,,,,,,,,,
,,,,,,,,,,,,,,1,001,2024-08-23_14h32.51.399,IAT(Formal),2021.2.3,Win32,120.105693,,,,,,,,,,,,,,,e,1,0.6408,,,,,,自己,e,,,0,72,72,53,1,,,,,,,,,,,,,,,,,,,,,,,,,,,,,,,,,,
,,,,,,,,,,,,,,1,001,2024-08-23_14h32.51.399,IAT(Formal),2021.2.3,Win32,120.105693,,,,,,,,,,,,,,,e,1,0.5652,,,,,,我的,e,,,0,73,73,61,1,,,,,,,,,,,,,,,,,,,,,,,,,,,,,,,,,,
,,,,,,,,,,,,,,1,001,2024-08-23_14h32.51.399,IAT(Formal),2021.2.3,Win32,120.105693,,,,,,,,,,,,,,,i,1,0.385,,,,,,他人,i,,,0,74,74,58,1,,,,,,,,,,,,,,,,,,,,,,,,,,,,,,,,,,
,,,,,,,,,,,,,,1,001,2024-08-23_14h32.51.399,IAT(Formal),2021.2.3,Win32,120.105693,,,,,,,,,,,,,,,i,1,0.5573,,,,,,愚蠢,i,,,0,75,75,32,1,,,,,,,,,,,,,,,,,,,,,,,,,,,,,,,,,,
,,,,,,,,,,,,,,1,001,2024-08-23_14h32.51.399,IAT(Formal),2021.2.3,Win32,120.105693,,,,,,,,,,,,,,,e,1,0.5883,,,,,,冷静,e,,,0,76,76,26,1,,,,,,,,,,,,,,,,,,,,,,,,,,,,,,,,,,
,,,,,,,,,,,,,,1,001,2024-08-23_14h32.51.399,IAT(Formal),2021.2.3,Win32,120.105693,,,,,,,,,,,,,,,i,1,0.48,,,,,,他,i,,,0,77,77,65,1,,,,,,,,,,,,,,,,,,,,,,,,,,,,,,,,,,
,,,,,,,,,,,,,,1,001,2024-08-23_14h32.51.399,IAT(Formal),2021.2.3,Win32,120.105693,,,,,,,,,,,,,,,e,1,0.8634,,,,,,细腻,e,,,0,78,78,25,1,,,,,,,,,,,,,,,,,,,,,,,,,,,,,,,,,,
,,,,,,,,,,,,,,1,001,2024-08-23_14h32.51.399,IAT(Formal),2021.2.3,Win32,120.105693,,,,,,,,,,,,,,,i,1,0.6173,,,,,,自卑,i,,,0,79,79,36,1,,,,,,,,,,,,,,,,,,,,,,,,,,,,,,,,,,
,,,,,,,,,,,,,,1,001,2024-08-23_14h32.51.399,IAT(Formal),2021.2.3,Win32,120.105693,,,,,,,,,,,,,,,i,1,0.4993,,,,,,鲁莽,i,,,1,0,80,38,1,,,,,,,,,,,,,,,,,,,,,,,,,,,,,,,,,,
,,,,,,,,,,,,,,1,001,2024-08-23_14h32.51.399,IAT(Formal),2021.2.3,Win32,120.105693,,,,,,,,,,,,,,,e,1,0.6012,,,,,,活泼,e,,,1,1,81,28,1,,,,,,,,,,,,,,,,,,,,,,,,,,,,,,,,,,
,,,,,,,,,,,,,,1,001,2024-08-23_14h32.51.399,IAT(Formal),2021.2.3,Win32,120.105693,,,,,,,,,,,,,,,i,0,0.4554,,,,,,无私,e,,,1,2,82,22,1,,,,,,,,,,,,,,,,,,,,,,,,,,,,,,,,,,
,,,,,,,,,,,,,,1,001,2024-08-23_14h32.51.399,IAT(Formal),2021.2.3,Win32,120.105693,,,,,,,,,,,,,,,i,1,0.5808,,,,,,他,i,,,1,3,83,65,1,,,,,,,,,,,,,,,,,,,,,,,,,,,,,,,,,,
,,,,,,,,,,,,,,1,001,2024-08-23_14h32.51.399,IAT(Formal),2021.2.3,Win32,120.105693,,,,,,,,,,,,,,,i,1,0.609,,,,,,悲观,i,,,1,4,84,34,1,,,,,,,,,,,,,,,,,,,,,,,,,,,,,,,,,,
,,,,,,,,,,,,,,1,001,2024-08-23_14h32.51.399,IAT(Formal),2021.2.3,Win32,120.105693,,,,,,,,,,,,,,,,0,,,,,,,自卑,i,,,1,5,85,36,1,,,,,,,,,,,,,,,,,,,,,,,,,,,,,,,,,,
,,,,,,,,,,,,,,1,001,2024-08-23_14h32.51.399,IAT(Formal),2021.2.3,Win32,120.105693,,,,,,,,,,,,,,,,0,,,,,,,凶狠,i,,,1,6,86,42,1,,,,,,,,,,,,,,,,,,,,,,,,,,,,,,,,,,
,,,,,,,,,,,,,,1,001,2024-08-23_14h32.51.399,IAT(Formal),2021.2.3,Win32,120.105693,,,,,,,,,,,,,,,e,1,0.5885,,,,,,自己,e,,,1,7,87,63,1,,,,,,,,,,,,,,,,,,,,,,,,,,,,,,,,,,
,,,,,,,,,,,,,,1,001,2024-08-23_14h32.51.399,IAT(Formal),2021.2.3,Win32,120.105693,,,,,,,,,,,,,,,e,1,0.6836,,,,,,我们,e,,,1,8,88,62,1,,,,,,,,,,,,,,,,,,,,,,,,,,,,,,,,,,
,,,,,,,,,,,,,,1,001,2024-08-23_14h32.51.399,IAT(Formal),2021.2.3,Win32,120.105693,,,,,,,,,,,,,,,e,1,0.7563,,,,,,稳重,e,,,1,9,89,21,1,,,,,,,,,,,,,,,,,,,,,,,,,,,,,,,,,,
,,,,,,,,,,,,,,1,001,2024-08-23_14h32.51.399,IAT(Formal),2021.2.3,Win32,120.105693,,,,,,,,,,,,,,,e,1,0.5397,,,,,,自己,e,,,1,10,90,73,1,,,,,,,,,,,,,,,,,,,,,,,,,,,,,,,,,,
,,,,,,,,,,,,,,1,001,2024-08-23_14h32.51.399,IAT(Formal),2021.2.3,Win32,120.105693,,,,,,,,,,,,,,,e,1,1.0796,,,,,,诚恳,e,,,1,11,91,29,1,,,,,,,,,,,,,,,,,,,,,,,,,,,,,,,,,,
,,,,,,,,,,,,,,1,001,2024-08-23_14h32.51.399,IAT(Formal),2021.2.3,Win32,120.105693,,,,,,,,,,,,,,,i,1,0.653,,,,,,其他,i,,,1,12,92,79,1,,,,,,,,,,,,,,,,,,,,,,,,,,,,,,,,,,
,,,,,,,,,,,,,,1,001,2024-08-23_14h32.51.399,IAT(Formal),2021.2.3,Win32,120.105693,,,,,,,,,,,,,,,,0,,,,,,,朴实,e,,,1,13,93,24,1,,,,,,,,,,,,,,,,,,,,,,,,,,,,,,,,,,
,,,,,,,,,,,,,,1,001,2024-08-23_14h32.51.399,IAT(Formal),2021.2.3,Win32,120.105693,,,,,,,,,,,,,,,i,1,0.5338,,,,,,其他,i,,,1,14,94,9,1,,,,,,,,,,,,,,,,,,,,,,,,,,,,,,,,,,
,,,,,,,,,,,,,,1,001,2024-08-23_14h32.51.399,IAT(Formal),2021.2.3,Win32,120.105693,,,,,,,,,,,,,,,e,1,0.5329,,,,,,我的,e,,,1,15,95,1,1,,,,,,,,,,,,,,,,,,,,,,,,,,,,,,,,,,
,,,,,,,,,,,,,,1,001,2024-08-23_14h32.51.399,IAT(Formal),2021.2.3,Win32,120.105693,,,,,,,,,,,,,,,i,1,0.5011,,,,,,他人,i,,,1,16,96,8,1,,,,,,,,,,,,,,,,,,,,,,,,,,,,,,,,,,
,,,,,,,,,,,,,,1,001,2024-08-23_14h32.51.399,IAT(Formal),2021.2.3,Win32,120.105693,,,,,,,,,,,,,,,e,1,0.4892,,,,,,自己,e,,,1,17,97,3,1,,,,,,,,,,,,,,,,,,,,,,,,,,,,,,,,,,
,,,,,,,,,,,,,,1,001,2024-08-23_14h32.51.399,IAT(Formal),2021.2.3,Win32,120.105693,,,,,,,,,,,,,,,i,1,0.5279,,,,,,他的,i,,,1,18,98,7,1,,,,,,,,,,,,,,,,,,,,,,,,,,,,,,,,,,
,,,,,,,,,,,,,,1,001,2024-08-23_14h32.51.399,IAT(Formal),2021.2.3,Win32,120.105693,,,,,,,,,,,,,,,e,1,0.5641,,,,,,认真,e,,,1,19,99,20,1,,,,,,,,,,,,,,,,,,,,,,,,,,,,,,,,,,
,,,,,,,,,,,,,,1,001,2024-08-23_14h32.51.399,IAT(Formal),2021.2.3,Win32,120.105693,,,,,,,,,,,,,,,e,0,0.4838,,,,,,他,i,,,1,20,100,75,1,,,,,,,,,,,,,,,,,,,,,,,,,,,,,,,,,,
,,,,,,,,,,,,,,1,001,2024-08-23_14h32.51.399,IAT(Formal),2021.2.3,Win32,120.105693,,,,,,,,,,,,,,,e,1,0.6092,,,,,,我的,e,,,1,21,101,61,1,,,,,,,,,,,,,,,,,,,,,,,,,,,,,,,,,,
,,,,,,,,,,,,,,1,001,2024-08-23_14h32.51.399,IAT(Formal),2021.2.3,Win32,120.105693,,,,,,,,,,,,,,,i,0,0.4989,,,,,,勇敢,e,,,1,22,102,17,1,,,,,,,,,,,,,,,,,,,,,,,,,,,,,,,,,,
,,,,,,,,,,,,,,1,001,2024-08-23_14h32.51.399,IAT(Formal),2021.2.3,Win32,120.105693,,,,,,,,,,,,,,,i,1,0.5805,,,,,,他们,i,,,1,23,103,56,1,,,,,,,,,,,,,,,,,,,,,,,,,,,,,,,,,,
,,,,,,,,,,,,,,1,001,2024-08-23_14h32.51.399,IAT(Formal),2021.2.3,Win32,120.105693,,,,,,,,,,,,,,,i,1,0.5321,,,,,,愚蠢,i,,,1,24,104,32,1,,,,,,,,,,,,,,,,,,,,,,,,,,,,,,,,,,
,,,,,,,,,,,,,,1,001,2024-08-23_14h32.51.399,IAT(Formal),2021.2.3,Win32,120.105693,,,,,,,,,,,,,,,i,1,0.497,,,,,,他人,i,,,1,25,105,78,1,,,,,,,,,,,,,,,,,,,,,,,,,,,,,,,,,,
,,,,,,,,,,,,,,1,001,2024-08-23_14h32.51.399,IAT(Formal),2021.2.3,Win32,120.105693,,,,,,,,,,,,,,,e,1,0.7316,,,,,,乐观,e,,,1,26,106,14,1,,,,,,,,,,,,,,,,,,,,,,,,,,,,,,,,,,
,,,,,,,,,,,,,,1,001,2024-08-23_14h32.51.399,IAT(Formal),2021.2.3,Win32,120.105693,,,,,,,,,,,,,,,i,1,0.4419,,,,,,卑鄙,i,,,1,27,107,30,1,,,,,,,,,,,,,,,,,,,,,,,,,,,,,,,,,,
,,,,,,,,,,,,,,1,001,2024-08-23_14h32.51.399,IAT(Formal),2021.2.3,Win32,120.105693,,,,,,,,,,,,,,,e,1,0.5415,,,,,,诚实,e,,,1,28,108,15,1,,,,,,,,,,,,,,,,,,,,,,,,,,,,,,,,,,
,,,,,,,,,,,,,,1,001,2024-08-23_14h32.51.399,IAT(Formal),2021.2.3,Win32,120.105693,,,,,,,,,,,,,,,e,1,0.4512,,,,,,热情,e,,,1,29,109,27,1,,,,,,,,,,,,,,,,,,,,,,,,,,,,,,,,,,
,,,,,,,,,,,,,,1,001,2024-08-23_14h32.51.399,IAT(Formal),2021.2.3,Win32,120.105693,,,,,,,,,,,,,,,e,1,0.6072,,,,,,公正,e,,,1,30,110,23,1,,,,,,,,,,,,,,,,,,,,,,,,,,,,,,,,,,
,,,,,,,,,,,,,,1,001,2024-08-23_14h32.51.399,IAT(Formal),2021.2.3,Win32,120.105693,,,,,,,,,,,,,,,e,1,0.4889,,,,,,我,e,,,1,31,111,60,1,,,,,,,,,,,,,,,,,,,,,,,,,,,,,,,,,,
,,,,,,,,,,,,,,1,001,2024-08-23_14h32.51.399,IAT(Formal),2021.2.3,Win32,120.105693,,,,,,,,,,,,,,,i,1,0.597,,,,,,他,i,,,1,32,112,5,1,,,,,,,,,,,,,,,,,,,,,,,,,,,,,,,,,,
,,,,,,,,,,,,,,1,001,2024-08-23_14h32.51.399,IAT(Formal),2021.2.3,Win32,120.105693,,,,,,,,,,,,,,,e,1,0.5913,,,,,,崇高,e,,,1,33,113,11,1,,,,,,,,,,,,,,,,,,,,,,,,,,,,,,,,,,
,,,,,,,,,,,,,,1,001,2024-08-23_14h32.51.399,IAT(Formal),2021.2.3,Win32,120.105693,,,,,,,,,,,,,,,i,1,0.5842,,,,,,傲慢,i,,,1,34,114,37,1,,,,,,,,,,,,,,,,,,,,,,,,,,,,,,,,,,
,,,,,,,,,,,,,,1,001,2024-08-23_14h32.51.399,IAT(Formal),2021.2.3,Win32,120.105693,,,,,,,,,,,,,,,e,1,0.4399,,,,,,优秀,e,,,1,35,115,10,1,,,,,,,,,,,,,,,,,,,,,,,,,,,,,,,,,,
,,,,,,,,,,,,,,1,001,2024-08-23_14h32.51.399,IAT(Formal),2021.2.3,Win32,120.105693,,,,,,,,,,,,,,,i,1,0.5889,,,,,,他的,i,,,1,36,116,57,1,,,,,,,,,,,,,,,,,,,,,,,,,,,,,,,,,,
,,,,,,,,,,,,,,1,001,2024-08-23_14h32.51.399,IAT(Formal),2021.2.3,Win32,120.105693,,,,,,,,,,,,,,,i,1,0.4279,,,,,,他,i,,,1,37,117,55,1,,,,,,,,,,,,,,,,,,,,,,,,,,,,,,,,,,
,,,,,,,,,,,,,,1,001,2024-08-23_14h32.51.399,IAT(Formal),2021.2.3,Win32,120.105693,,,,,,,,,,,,,,,e,1,0.5826,,,,,,俺,e,,,1,38,118,54,1,,,,,,,,,,,,,,,,,,,,,,,,,,,,,,,,,,
,,,,,,,,,,,,,,1,001,2024-08-23_14h32.51.399,IAT(Formal),2021.2.3,Win32,120.105693,,,,,,,,,,,,,,,e,1,0.7305,,,,,,我的,e,,,1,39,119,51,1,,,,,,,,,,,,,,,,,,,,,,,,,,,,,,,,,,
,,,,,,,,,,,,,,1,001,2024-08-23_14h32.51.399,IAT(Formal),2021.2.3,Win32,120.105693,,,,,,,,,,,,,,,e,1,0.4068,,,,,,我,e,,,1,40,120,50,1,,,,,,,,,,,,,,,,,,,,,,,,,,,,,,,,,,
,,,,,,,,,,,,,,1,001,2024-08-23_14h32.51.399,IAT(Formal),2021.2.3,Win32,120.105693,,,,,,,,,,,,,,,e,1,0.643,,,,,,冷静,e,,,1,41,121,26,1,,,,,,,,,,,,,,,,,,,,,,,,,,,,,,,,,,
,,,,,,,,,,,,,,1,001,2024-08-23_14h32.51.399,IAT(Formal),2021.2.3,Win32,120.105693,,,,,,,,,,,,,,,e,1,0.8755,,,,,,细腻,e,,,1,42,122,25,1,,,,,,,,,,,,,,,,,,,,,,,,,,,,,,,,,,
,,,,,,,,,,,,,,1,001,2024-08-23_14h32.51.399,IAT(Formal),2021.2.3,Win32,120.105693,,,,,,,,,,,,,,,e,1,0.5589,,,,,,我的,e,,,1,43,123,71,1,,,,,,,,,,,,,,,,,,,,,,,,,,,,,,,,,,
,,,,,,,,,,,,,,1,001,2024-08-23_14h32.51.399,IAT(Formal),2021.2.3,Win32,120.105693,,,,,,,,,,,,,,,i,1,0.5927,,,,,,猖狂,i,,,1,44,124,45,1,,,,,,,,,,,,,,,,,,,,,,,,,,,,,,,,,,
,,,,,,,,,,,,,,1,001,2024-08-23_14h32.51.399,IAT(Formal),2021.2.3,Win32,120.105693,,,,,,,,,,,,,,,e,1,0.6838,,,,,,杰出,e,,,1,45,125,13,1,,,,,,,,,,,,,,,,,,,,,,,,,,,,,,,,,,
,,,,,,,,,,,,,,1,001,2024-08-23_14h32.51.399,IAT(Formal),2021.2.3,Win32,120.105693,,,,,,,,,,,,,,,i,1,0.4836,,,,,,执拗,i,,,1,46,126,40,1,,,,,,,,,,,,,,,,,,,,,,,,,,,,,,,,,,
,,,,,,,,,,,,,,1,001,2024-08-23_14h32.51.399,IAT(Formal),2021.2.3,Win32,120.105693,,,,,,,,,,,,,,,i,1,0.7173,,,,,,固执,i,,,1,47,127,47,1,,,,,,,,,,,,,,,,,,,,,,,,,,,,,,,,,,
,,,,,,,,,,,,,,1,001,2024-08-23_14h32.51.399,IAT(Formal),2021.2.3,Win32,120.105693,,,,,,,,,,,,,,,i,1,0.5425,,,,,,下贱,i,,,1,48,128,49,1,,,,,,,,,,,,,,,,,,,,,,,,,,,,,,,,,,
,,,,,,,,,,,,,,1,001,2024-08-23_14h32.51.399,IAT(Formal),2021.2.3,Win32,120.105693,,,,,,,,,,,,,,,i,1,0.4924,,,,,,虚伪,i,,,1,49,129,31,1,,,,,,,,,,,,,,,,,,,,,,,,,,,,,,,,,,
,,,,,,,,,,,,,,1,001,2024-08-23_14h32.51.399,IAT(Formal),2021.2.3,Win32,120.105693,,,,,,,,,,,,,,,i,1,0.584,,,,,,其他,i,,,1,50,130,69,1,,,,,,,,,,,,,,,,,,,,,,,,,,,,,,,,,,
,,,,,,,,,,,,,,1,001,2024-08-23_14h32.51.399,IAT(Formal),2021.2.3,Win32,120.105693,,,,,,,,,,,,,,,e,1,0.5259,,,,,,机智,e,,,1,51,131,19,1,,,,,,,,,,,,,,,,,,,,,,,,,,,,,,,,,,
,,,,,,,,,,,,,,1,001,2024-08-23_14h32.51.399,IAT(Formal),2021.2.3,Win32,120.105693,,,,,,,,,,,,,,,i,1,0.7424,,,,,,他们,i,,,1,52,132,6,1,,,,,,,,,,,,,,,,,,,,,,,,,,,,,,,,,,
,,,,,,,,,,,,,,1,001,2024-08-23_14h32.51.399,IAT(Formal),2021.2.3,Win32,120.105693,,,,,,,,,,,,,,,e,1,0.6929,,,,,,我们,e,,,1,53,133,72,1,,,,,,,,,,,,,,,,,,,,,,,,,,,,,,,,,,
,,,,,,,,,,,,,,1,001,2024-08-23_14h32.51.399,IAT(Formal),2021.2.3,Win32,120.105693,,,,,,,,,,,,,,,i,1,0.5839,,,,,,刻薄,i,,,1,54,134,33,1,,,,,,,,,,,,,,,,,,,,,,,,,,,,,,,,,,
,,,,,,,,,,,,,,1,001,2024-08-23_14h32.51.399,IAT(Formal),2021.2.3,Win32,120.105693,,,,,,,,,,,,,,,e,1,0.559,,,,,,俺,e,,,1,55,135,4,1,,,,,,,,,,,,,,,,,,,,,,,,,,,,,,,,,,
,,,,,,,,,,,,,,1,001,2024-08-23_14h32.51.399,IAT(Formal),2021.2.3,Win32,120.105693,,,,,,,,,,,,,,,i,1,0.5594,,,,,,暴躁,i,,,1,56,136,44,1,,,,,,,,,,,,,,,,,,,,,,,,,,,,,,,,,,
,,,,,,,,,,,,,,1,001,2024-08-23_14h32.51.399,IAT(Formal),2021.2.3,Win32,120.105693,,,,,,,,,,,,,,,i,1,0.8343,,,,,,他们,i,,,1,57,137,76,1,,,,,,,,,,,,,,,,,,,,,,,,,,,,,,,,,,
,,,,,,,,,,,,,,1,001,2024-08-23_14h32.51.399,IAT(Formal),2021.2.3,Win32,120.105693,,,,,,,,,,,,,,,i,1,0.5955,,,,,,自私,i,,,1,58,138,43,1,,,,,,,,,,,,,,,,,,,,,,,,,,,,,,,,,,
,,,,,,,,,,,,,,1,001,2024-08-23_14h32.51.399,IAT(Formal),2021.2.3,Win32,120.105693,,,,,,,,,,,,,,,e,1,0.57,,,,,,俺,e,,,1,59,139,74,1,,,,,,,,,,,,,,,,,,,,,,,,,,,,,,,,,,
,,,,,,,,,,,,,,1,001,2024-08-23_14h32.51.399,IAT(Formal),2021.2.3,Win32,120.105693,,,,,,,,,,,,,,,i,1,0.4673,,,,,,他们,i,,,1,60,140,66,1,,,,,,,,,,,,,,,,,,,,,,,,,,,,,,,,,,
,,,,,,,,,,,,,,1,001,2024-08-23_14h32.51.399,IAT(Formal),2021.2.3,Win32,120.105693,,,,,,,,,,,,,,,e,1,0.5593,,,,,,勤奋,e,,,1,61,141,18,1,,,,,,,,,,,,,,,,,,,,,,,,,,,,,,,,,,
,,,,,,,,,,,,,,1,001,2024-08-23_14h32.51.399,IAT(Formal),2021.2.3,Win32,120.105693,,,,,,,,,,,,,,,i,1,0.5751,,,,,,轻率,i,,,1,62,142,48,1,,,,,,,,,,,,,,,,,,,,,,,,,,,,,,,,,,
,,,,,,,,,,,,,,1,001,2024-08-23_14h32.51.399,IAT(Formal),2021.2.3,Win32,120.105693,,,,,,,,,,,,,,,i,1,0.4089,,,,,,散漫,i,,,1,63,143,41,1,,,,,,,,,,,,,,,,,,,,,,,,,,,,,,,,,,
,,,,,,,,,,,,,,1,001,2024-08-23_14h32.51.399,IAT(Formal),2021.2.3,Win32,120.105693,,,,,,,,,,,,,,,i,1,0.6712,,,,,,其他,i,,,1,64,144,59,1,,,,,,,,,,,,,,,,,,,,,,,,,,,,,,,,,,
,,,,,,,,,,,,,,1,001,2024-08-23_14h32.51.399,IAT(Formal),2021.2.3,Win32,120.105693,,,,,,,,,,,,,,,e,1,0.5258,,,,,,我们,e,,,1,65,145,52,1,,,,,,,,,,,,,,,,,,,,,,,,,,,,,,,,,,
,,,,,,,,,,,,,,1,001,2024-08-23_14h32.51.399,IAT(Formal),2021.2.3,Win32,120.105693,,,,,,,,,,,,,,,i,1,0.3618,,,,,,他人,i,,,1,66,146,68,1,,,,,,,,,,,,,,,,,,,,,,,,,,,,,,,,,,
,,,,,,,,,,,,,,1,001,2024-08-23_14h32.51.399,IAT(Formal),2021.2.3,Win32,120.105693,,,,,,,,,,,,,,,e,1,0.5622,,,,,,聪明,e,,,1,67,147,12,1,,,,,,,,,,,,,,,,,,,,,,,,,,,,,,,,,,
,,,,,,,,,,,,,,1,001,2024-08-23_14h32.51.399,IAT(Formal),2021.2.3,Win32,120.105693,,,,,,,,,,,,,,,e,1,0.5453,,,,,,我,e,,,1,68,148,0,1,,,,,,,,,,,,,,,,,,,,,,,,,,,,,,,,,,
,,,,,,,,,,,,,,1,001,2024-08-23_14h32.51.399,IAT(Formal),2021.2.3,Win32,120.105693,,,,,,,,,,,,,,,i,1,0.4592,,,,,,消极,i,,,1,69,149,35,1,,,,,,,,,,,,,,,,,,,,,,,,,,,,,,,,,,
,,,,,,,,,,,,,,1,001,2024-08-23_14h32.51.399,IAT(Formal),2021.2.3,Win32,120.105693,,,,,,,,,,,,,,,e,1,0.5753,,,,,,我,e,,,1,70,150,70,1,,,,,,,,,,,,,,,,,,,,,,,,,,,,,,,,,,
,,,,,,,,,,,,,,1,001,2024-08-23_14h32.51.399,IAT(Formal),2021.2.3,Win32,120.105693,,,,,,,,,,,,,,,e,1,0.5294,,,,,,正直,e,,,1,71,151,16,1,,,,,,,,,,,,,,,,,,,,,,,,,,,,,,,,,,
,,,,,,,,,,,,,,1,001,2024-08-23_14h32.51.399,IAT(Formal),2021.2.3,Win32,120.105693,,,,,,,,,,,,,,,e,1,0.6028,,,,,,我们,e,,,1,72,152,2,1,,,,,,,,,,,,,,,,,,,,,,,,,,,,,,,,,,
,,,,,,,,,,,,,,1,001,2024-08-23_14h32.51.399,IAT(Formal),2021.2.3,Win32,120.105693,,,,,,,,,,,,,,,i,1,0.4752,,,,,,野蛮,i,,,1,73,153,46,1,,,,,,,,,,,,,,,,,,,,,,,,,,,,,,,,,,
,,,,,,,,,,,,,,1,001,2024-08-23_14h32.51.399,IAT(Formal),2021.2.3,Win32,120.105693,,,,,,,,,,,,,,,e,1,0.5169,,,,,,自己,e,,,1,74,154,53,1,,,,,,,,,,,,,,,,,,,,,,,,,,,,,,,,,,
,,,,,,,,,,,,,,1,001,2024-08-23_14h32.51.399,IAT(Formal),2021.2.3,Win32,120.105693,,,,,,,,,,,,,,,i,1,0.6017,,,,,,他的,i,,,1,75,155,77,1,,,,,,,,,,,,,,,,,,,,,,,,,,,,,,,,,,
,,,,,,,,,,,,,,1,001,2024-08-23_14h32.51.399,IAT(Formal),2021.2.3,Win32,120.105693,,,,,,,,,,,,,,,i,1,0.5254,,,,,,他人,i,,,1,76,156,58,1,,,,,,,,,,,,,,,,,,,,,,,,,,,,,,,,,,
,,,,,,,,,,,,,,1,001,2024-08-23_14h32.51.399,IAT(Formal),2021.2.3,Win32,120.105693,,,,,,,,,,,,,,,i,1,0.6339,,,,,,冒失,i,,,1,77,157,39,1,,,,,,,,,,,,,,,,,,,,,,,,,,,,,,,,,,
,,,,,,,,,,,,,,1,001,2024-08-23_14h32.51.399,IAT(Formal),2021.2.3,Win32,120.105693,,,,,,,,,,,,,,,i,1,0.5279,,,,,,他的,i,,,1,78,158,67,1,,,,,,,,,,,,,,,,,,,,,,,,,,,,,,,,,,
,,,,,,,,,,,,,,1,001,2024-08-23_14h32.51.399,IAT(Formal),2021.2.3,Win32,120.105693,,,,,,,,,,,,,,,e,1,0.4753,,,,,,俺,e,,,1,79,159,64,1,,,,,,,,,,,,,,,,,,,,,,,,,,,,,,,,,,
,,,,,,,,,,,,我的,i,1,001,2024-08-23_14h32.51.399,IAT(Formal),2021.2.3,Win32,120.105693,,,,,,,,,,,,,,,,,,,,,,,,,,,,,,,,space,12.8101,e,0,0.4841,0,0,0,1,1,,,,,,,,,,,,,,,,,,,,,,,,
,,,,,,,,,,,,自己,i,1,001,2024-08-23_14h32.51.399,IAT(Formal),2021.2.3,Win32,120.105693,,,,,,,,,,,,,,,,,,,,,,,,,,,,,,,,,,i,1,1.2202,0,1,1,3,1,,,,,,,,,,,,,,,,,,,,,,,,
,,,,,,,,,,,,我们,i,1,001,2024-08-23_14h32.51.399,IAT(Formal),2021.2.3,Win32,120.105693,,,,,,,,,,,,,,,,,,,,,,,,,,,,,,,,,,i,1,0.4267,0,2,2,2,1,,,,,,,,,,,,,,,,,,,,,,,,
,,,,,,,,,,,,他的,e,1,001,2024-08-23_14h32.51.399,IAT(Formal),2021.2.3,Win32,120.105693,,,,,,,,,,,,,,,,,,,,,,,,,,,,,,,,,,e,1,0.6446,0,3,3,7,1,,,,,,,,,,,,,,,,,,,,,,,,
,,,,,,,,,,,,我,i,1,001,2024-08-23_14h32.51.399,IAT(Formal),2021.2.3,Win32,120.105693,,,,,,,,,,,,,,,,,,,,,,,,,,,,,,,,,,i,1,0.5097,0,4,4,0,1,,,,,,,,,,,,,,,,,,,,,,,,
,,,,,,,,,,,,其他,e,1,001,2024-08-23_14h32.51.399,IAT(Formal),2021.2.3,Win32,120.105693,,,,,,,,,,,,,,,,,,,,,,,,,,,,,,,,,,e,1,0.8358,0,5,5,9,1,,,,,,,,,,,,,,,,,,,,,,,,
,,,,,,,,,,,,俺,i,1,001,2024-08-23_14h32.51.399,IAT(Formal),2021.2.3,Win32,120.105693,,,,,,,,,,,,,,,,,,,,,,,,,,,,,,,,,,i,1,1.0155,0,6,6,4,1,,,,,,,,,,,,,,,,,,,,,,,,
,,,,,,,,,,,,他们,e,1,001,2024-08-23_14h32.51.399,IAT(Formal),2021.2.3,Win32,120.105693,,,,,,,,,,,,,,,,,,,,,,,,,,,,,,,,,,e,1,0.7637,0,7,7,6,1,,,,,,,,,,,,,,,,,,,,,,,,
,,,,,,,,,,,,他人,e,1,001,2024-08-23_14h32.51.399,IAT(Formal),2021.2.3,Win32,120.105693,,,,,,,,,,,,,,,,,,,,,,,,,,,,,,,,,,e,1,0.4839,0,8,8,8,1,,,,,,,,,,,,,,,,,,,,,,,,
,,,,,,,,,,,,他,e,1,001,2024-08-23_14h32.51.399,IAT(Formal),2021.2.3,Win32,120.105693,,,,,,,,,,,,,,,,,,,,,,,,,,,,,,,,,,e,1,0.4698,0,9,9,5,1,,,,,,,,,,,,,,,,,,,,,,,,
,,,,,,,,,,,,,,1,001,2024-08-23_14h32.51.399,IAT(Formal),2021.2.3,Win32,120.105693,,,,,,,,,,,,,,,,,,,,,,,,,,,,,,,,,,,,,,,,,,space,8.2347,i,0,0.718,0,0,0,55,1,他,e,,,,,,,,,,,,
,,,,,,,,,,,,,,1,001,2024-08-23_14h32.51.399,IAT(Formal),2021.2.3,Win32,120.105693,,,,,,,,,,,,,,,,,,,,,,,,,,,,,,,,,,,,,,,,,,,,e,0,0.812,0,1,1,49,1,下贱,i,,,,,,,,,,,,
,,,,,,,,,,,,,,1,001,2024-08-23_14h32.51.399,IAT(Formal),2021.2.3,Win32,120.105693,,,,,,,,,,,,,,,,,,,,,,,,,,,,,,,,,,,,,,,,,,,,,0,,0,2,2,4,1,俺,i,,,,,,,,,,,,
,,,,,,,,,,,,,,1,001,2024-08-23_14h32.51.399,IAT(Formal),2021.2.3,Win32,120.105693,,,,,,,,,,,,,,,,,,,,,,,,,,,,,,,,,,,,,,,,,,,,i,0,1.0967,0,3,3,21,1,稳重,e,,,,,,,,,,,,
,,,,,,,,,,,,,,1,001,2024-08-23_14h32.51.399,IAT(Formal),2021.2.3,Win32,120.105693,,,,,,,,,,,,,,,,,,,,,,,,,,,,,,,,,,,,,,,,,,,,i,0,1.0765,0,4,4,66,1,他们,e,,,,,,,,,,,,
,,,,,,,,,,,,,,1,001,2024-08-23_14h32.51.399,IAT(Formal),2021.2.3,Win32,120.105693,,,,,,,,,,,,,,,,,,,,,,,,,,,,,,,,,,,,,,,,,,,,e,1,0.9141,0,5,5,14,1,乐观,e,,,,,,,,,,,,
,,,,,,,,,,,,,,1,001,2024-08-23_14h32.51.399,IAT(Formal),2021.2.3,Win32,120.105693,,,,,,,,,,,,,,,,,,,,,,,,,,,,,,,,,,,,,,,,,,,,i,0,0.6808,0,6,6,58,1,他人,e,,,,,,,,,,,,
,,,,,,,,,,,,,,1,001,2024-08-23_14h32.51.399,IAT(Formal),2021.2.3,Win32,120.105693,,,,,,,,,,,,,,,,,,,,,,,,,,,,,,,,,,,,,,,,,,,,i,1,0.7892,0,7,7,73,1,自己,i,,,,,,,,,,,,
,,,,,,,,,,,,,,1,001,2024-08-23_14h32.51.399,IAT(Formal),2021.2.3,Win32,120.105693,,,,,,,,,,,,,,,,,,,,,,,,,,,,,,,,,,,,,,,,,,,,e,0,1.0304,0,8,8,46,1,野蛮,i,,,,,,,,,,,,
,,,,,,,,,,,,,,1,001,2024-08-23_14h32.51.399,IAT(Formal),2021.2.3,Win32,120.105693,,,,,,,,,,,,,,,,,,,,,,,,,,,,,,,,,,,,,,,,,,,,i,1,1.3807,0,9,9,53,1,自己,i,,,,,,,,,,,,
,,,,,,,,,,,,,,1,001,2024-08-23_14h32.51.399,IAT(Formal),2021.2.3,Win32,120.105693,,,,,,,,,,,,,,,,,,,,,,,,,,,,,,,,,,,,,,,,,,,,i,1,0.5267,0,10,10,34,1,悲观,i,,,,,,,,,,,,
,,,,,,,,,,,,,,1,001,2024-08-23_14h32.51.399,IAT(Formal),2021.2.3,Win32,120.105693,,,,,,,,,,,,,,,,,,,,,,,,,,,,,,,,,,,,,,,,,,,,e,1,0.5175,0,11,11,77,1,他的,e,,,,,,,,,,,,
,,,,,,,,,,,,,,1,001,2024-08-23_14h32.51.399,IAT(Formal),2021.2.3,Win32,120.105693,,,,,,,,,,,,,,,,,,,,,,,,,,,,,,,,,,,,,,,,,,,,e,1,0.4973,0,12,12,18,1,勤奋,e,,,,,,,,,,,,
,,,,,,,,,,,,,,1,001,2024-08-23_14h32.51.399,IAT(Formal),2021.2.3,Win32,120.105693,,,,,,,,,,,,,,,,,,,,,,,,,,,,,,,,,,,,,,,,,,,,i,1,0.67,0,13,13,50,1,我,i,,,,,,,,,,,,
,,,,,,,,,,,,,,1,001,2024-08-23_14h32.51.399,IAT(Formal),2021.2.3,Win32,120.105693,,,,,,,,,,,,,,,,,,,,,,,,,,,,,,,,,,,,,,,,,,,,e,0,0.97,0,14,14,47,1,固执,i,,,,,,,,,,,,
,,,,,,,,,,,,,,1,001,2024-08-23_14h32.51.399,IAT(Formal),2021.2.3,Win32,120.105693,,,,,,,,,,,,,,,,,,,,,,,,,,,,,,,,,,,,,,,,,,,,,0,,0,15,15,71,1,我的,i,,,,,,,,,,,,
,,,,,,,,,,,,,,1,001,2024-08-23_14h32.51.399,IAT(Formal),2021.2.3,Win32,120.105693,,,,,,,,,,,,,,,,,,,,,,,,,,,,,,,,,,,,,,,,,,,,i,0,1.0551,0,16,16,17,1,勇敢,e,,,,,,,,,,,,
,,,,,,,,,,,,,,1,001,2024-08-23_14h32.51.399,IAT(Formal),2021.2.3,Win32,120.105693,,,,,,,,,,,,,,,,,,,,,,,,,,,,,,,,,,,,,,,,,,,,e,0,1.3415,0,17,17,43,1,自私,i,,,,,,,,,,,,
,,,,,,,,,,,,,,1,001,2024-08-23_14h32.51.399,IAT(Formal),2021.2.3,Win32,120.105693,,,,,,,,,,,,,,,,,,,,,,,,,,,,,,,,,,,,,,,,,,,,i,0,0.7069,0,18,18,28,1,活泼,e,,,,,,,,,,,,
,,,,,,,,,,,,,,1,001,2024-08-23_14h32.51.399,IAT(Formal),2021.2.3,Win32,120.105693,,,,,,,,,,,,,,,,,,,,,,,,,,,,,,,,,,,,,,,,,,,,i,0,0.8725,0,19,19,69,1,其他,e,,,,,,,,,,,,
,,,,,,,,,,,,,,1,001,2024-08-23_14h32.51.399,IAT(Formal),2021.2.3,Win32,120.105693,,,,,,,,,,,,,,,,,,,,,,,,,,,,,,,,,,,,,,,,,,,,,0,,0,20,20,62,1,我们,i,,,,,,,,,,,,
,,,,,,,,,,,,,,1,001,2024-08-23_14h32.51.399,IAT(Formal),2021.2.3,Win32,120.105693,,,,,,,,,,,,,,,,,,,,,,,,,,,,,,,,,,,,,,,,,,,,e,1,1.3002,0,21,21,26,1,冷静,e,,,,,,,,,,,,
,,,,,,,,,,,,,,1,001,2024-08-23_14h32.51.399,IAT(Formal),2021.2.3,Win32,120.105693,,,,,,,,,,,,,,,,,,,,,,,,,,,,,,,,,,,,,,,,,,,,i,1,0.9836,0,22,22,63,1,自己,i,,,,,,,,,,,,
,,,,,,,,,,,,,,1,001,2024-08-23_14h32.51.399,IAT(Formal),2021.2.3,Win32,120.105693,,,,,,,,,,,,,,,,,,,,,,,,,,,,,,,,,,,,,,,,,,,,i,1,0.8174,0,23,23,51,1,我的,i,,,,,,,,,,,,
,,,,,,,,,,,,,,1,001,2024-08-23_14h32.51.399,IAT(Formal),2021.2.3,Win32,120.105693,,,,,,,,,,,,,,,,,,,,,,,,,,,,,,,,,,,,,,,,,,,,e,1,0.9351,0,24,24,56,1,他们,e,,,,,,,,,,,,
,,,,,,,,,,,,,,1,001,2024-08-23_14h32.51.399,IAT(Formal),2021.2.3,Win32,120.105693,,,,,,,,,,,,,,,,,,,,,,,,,,,,,,,,,,,,,,,,,,,,e,1,0.5839,0,25,25,57,1,他的,e,,,,,,,,,,,,
,,,,,,,,,,,,,,1,001,2024-08-23_14h32.51.399,IAT(Formal),2021.2.3,Win32,120.105693,,,,,,,,,,,,,,,,,,,,,,,,,,,,,,,,,,,,,,,,,,,,i,1,0.7192,0,26,26,39,1,冒失,i,,,,,,,,,,,,
,,,,,,,,,,,,,,1,001,2024-08-23_14h32.51.399,IAT(Formal),2021.2.3,Win32,120.105693,,,,,,,,,,,,,,,,,,,,,,,,,,,,,,,,,,,,,,,,,,,,e,1,0.5502,0,27,27,27,1,热情,e,,,,,,,,,,,,
,,,,,,,,,,,,,,1,001,2024-08-23_14h32.51.399,IAT(Formal),2021.2.3,Win32,120.105693,,,,,,,,,,,,,,,,,,,,,,,,,,,,,,,,,,,,,,,,,,,,i,0,0.4756,0,28,28,75,1,他,e,,,,,,,,,,,,
,,,,,,,,,,,,,,1,001,2024-08-23_14h32.51.399,IAT(Formal),2021.2.3,Win32,120.105693,,,,,,,,,,,,,,,,,,,,,,,,,,,,,,,,,,,,,,,,,,,,i,1,1.0589,0,29,29,38,1,鲁莽,i,,,,,,,,,,,,
,,,,,,,,,,,,,,1,001,2024-08-23_14h32.51.399,IAT(Formal),2021.2.3,Win32,120.105693,,,,,,,,,,,,,,,,,,,,,,,,,,,,,,,,,,,,,,,,,,,,e,0,0.5013,0,30,30,70,1,我,i,,,,,,,,,,,,
,,,,,,,,,,,,,,1,001,2024-08-23_14h32.51.399,IAT(Formal),2021.2.3,Win32,120.105693,,,,,,,,,,,,,,,,,,,,,,,,,,,,,,,,,,,,,,,,,,,,e,0,0.8587,0,31,31,35,1,消极,i,,,,,,,,,,,,
,,,,,,,,,,,,,,1,001,2024-08-23_14h32.51.399,IAT(Formal),2021.2.3,Win32,120.105693,,,,,,,,,,,,,,,,,,,,,,,,,,,,,,,,,,,,,,,,,,,,e,1,1.159,0,32,32,79,1,其他,e,,,,,,,,,,,,
,,,,,,,,,,,,,,1,001,2024-08-23_14h32.51.399,IAT(Formal),2021.2.3,Win32,120.105693,,,,,,,,,,,,,,,,,,,,,,,,,,,,,,,,,,,,,,,,,,,,e,1,0.6673,0,33,33,8,1,他人,e,,,,,,,,,,,,
,,,,,,,,,,,,,,1,001,2024-08-23_14h32.51.399,IAT(Formal),2021.2.3,Win32,120.105693,,,,,,,,,,,,,,,,,,,,,,,,,,,,,,,,,,,,,,,,,,,,i,1,0.5928,0,34,34,45,1,猖狂,i,,,,,,,,,,,,
,,,,,,,,,,,,,,1,001,2024-08-23_14h32.51.399,IAT(Formal),2021.2.3,Win32,120.105693,,,,,,,,,,,,,,,,,,,,,,,,,,,,,,,,,,,,,,,,,,,,i,1,0.5753,0,35,35,44,1,暴躁,i,,,,,,,,,,,,
,,,,,,,,,,,,,,1,001,2024-08-23_14h32.51.399,IAT(Formal),2021.2.3,Win32,120.105693,,,,,,,,,,,,,,,,,,,,,,,,,,,,,,,,,,,,,,,,,,,,e,0,0.6837,0,36,36,72,1,我们,i,,,,,,,,,,,,
,,,,,,,,,,,,,,1,001,2024-08-23_14h32.51.399,IAT(Formal),2021.2.3,Win32,120.105693,,,,,,,,,,,,,,,,,,,,,,,,,,,,,,,,,,,,,,,,,,,,i,0,0.9586,0,37,37,24,1,朴实,e,,,,,,,,,,,,
,,,,,,,,,,,,,,1,001,2024-08-23_14h32.51.399,IAT(Formal),2021.2.3,Win32,120.105693,,,,,,,,,,,,,,,,,,,,,,,,,,,,,,,,,,,,,,,,,,,,e,0,0.7852,0,38,38,42,1,凶狠,i,,,,,,,,,,,,
,,,,,,,,,,,,,,1,001,2024-08-23_14h32.51.399,IAT(Formal),2021.2.3,Win32,120.105693,,,,,,,,,,,,,,,,,,,,,,,,,,,,,,,,,,,,,,,,,,,,i,0,1.4022,0,39,39,16,1,正直,e,,,,,,,,,,,,
,,,,,,,,,,,,,,1,001,2024-08-23_14h32.51.399,IAT(Formal),2021.2.3,Win32,120.105693,,,,,,,,,,,,,,,,,,,,,,,,,,,,,,,,,,,,,,,,,,,,i,1,0.9358,0,40,40,52,1,我们,i,,,,,,,,,,,,
,,,,,,,,,,,,,,1,001,2024-08-23_14h32.51.399,IAT(Formal),2021.2.3,Win32,120.105693,,,,,,,,,,,,,,,,,,,,,,,,,,,,,,,,,,,,,,,,,,,,e,1,0.6586,0,41,41,67,1,他的,e,,,,,,,,,,,,
,,,,,,,,,,,,,,1,001,2024-08-23_14h32.51.399,IAT(Formal),2021.2.3,Win32,120.105693,,,,,,,,,,,,,,,,,,,,,,,,,,,,,,,,,,,,,,,,,,,,i,1,0.7672,0,42,42,3,1,自己,i,,,,,,,,,,,,
,,,,,,,,,,,,,,1,001,2024-08-23_14h32.51.399,IAT(Formal),2021.2.3,Win32,120.105693,,,,,,,,,,,,,,,,,,,,,,,,,,,,,,,,,,,,,,,,,,,,i,1,0.5671,0,43,43,30,1,卑鄙,i,,,,,,,,,,,,
,,,,,,,,,,,,,,1,001,2024-08-23_14h32.51.399,IAT(Formal),2021.2.3,Win32,120.105693,,,,,,,,,,,,,,,,,,,,,,,,,,,,,,,,,,,,,,,,,,,,i,0,0.7434,0,44,44,78,1,他人,e,,,,,,,,,,,,
,,,,,,,,,,,,,,1,001,2024-08-23_14h32.51.399,IAT(Formal),2021.2.3,Win32,120.105693,,,,,,,,,,,,,,,,,,,,,,,,,,,,,,,,,,,,,,,,,,,,e,1,0.8181,0,45,45,11,1,崇高,e,,,,,,,,,,,,
,,,,,,,,,,,,,,1,001,2024-08-23_14h32.51.399,IAT(Formal),2021.2.3,Win32,120.105693,,,,,,,,,,,,,,,,,,,,,,,,,,,,,,,,,,,,,,,,,,,,i,1,0.9918,0,46,46,1,1,我的,i,,,,,,,,,,,,
,,,,,,,,,,,,,,1,001,2024-08-23_14h32.51.399,IAT(Formal),2021.2.3,Win32,120.105693,,,,,,,,,,,,,,,,,,,,,,,,,,,,,,,,,,,,,,,,,,,,e,1,0.8502,0,47,47,12,1,聪明,e,,,,,,,,,,,,
,,,,,,,,,,,,,,1,001,2024-08-23_14h32.51.399,IAT(Formal),2021.2.3,Win32,120.105693,,,,,,,,,,,,,,,,,,,,,,,,,,,,,,,,,,,,,,,,,,,,i,1,0.6513,0,48,48,2,1,我们,i,,,,,,,,,,,,
,,,,,,,,,,,,,,1,001,2024-08-23_14h32.51.399,IAT(Formal),2021.2.3,Win32,120.105693,,,,,,,,,,,,,,,,,,,,,,,,,,,,,,,,,,,,,,,,,,,,i,1,1.3672,0,49,49,48,1,轻率,i,,,,,,,,,,,,
,,,,,,,,,,,,,,1,001,2024-08-23_14h32.51.399,IAT(Formal),2021.2.3,Win32,120.105693,,,,,,,,,,,,,,,,,,,,,,,,,,,,,,,,,,,,,,,,,,,,e,1,0.6169,0,50,50,13,1,杰出,e,,,,,,,,,,,,
,,,,,,,,,,,,,,1,001,2024-08-23_14h32.51.399,IAT(Formal),2021.2.3,Win32,120.105693,,,,,,,,,,,,,,,,,,,,,,,,,,,,,,,,,,,,,,,,,,,,i,1,0.6007,0,51,51,54,1,俺,i,,,,,,,,,,,,
,,,,,,,,,,,,,,1,001,2024-08-23_14h32.51.399,IAT(Formal),2021.2.3,Win32,120.105693,,,,,,,,,,,,,,,,,,,,,,,,,,,,,,,,,,,,,,,,,,,,i,1,0.5927,0,52,52,33,1,刻薄,i,,,,,,,,,,,,
,,,,,,,,,,,,,,1,001,2024-08-23_14h32.51.399,IAT(Formal),2021.2.3,Win32,120.105693,,,,,,,,,,,,,,,,,,,,,,,,,,,,,,,,,,,,,,,,,,,,e,1,0.544,0,53,53,10,1,优秀,e,,,,,,,,,,,,
,,,,,,,,,,,,,,1,001,2024-08-23_14h32.51.399,IAT(Formal),2021.2.3,Win32,120.105693,,,,,,,,,,,,,,,,,,,,,,,,,,,,,,,,,,,,,,,,,,,,e,1,0.8086,0,54,54,25,1,细腻,e,,,,,,,,,,,,
,,,,,,,,,,,,,,1,001,2024-08-23_14h32.51.399,IAT(Formal),2021.2.3,Win32,120.105693,,,,,,,,,,,,,,,,,,,,,,,,,,,,,,,,,,,,,,,,,,,,i,1,0.6586,0,55,55,61,1,我的,i,,,,,,,,,,,,
,,,,,,,,,,,,,,1,001,2024-08-23_14h32.51.399,IAT(Formal),2021.2.3,Win32,120.105693,,,,,,,,,,,,,,,,,,,,,,,,,,,,,,,,,,,,,,,,,,,,e,1,0.7711,0,56,56,5,1,他,e,,,,,,,,,,,,
,,,,,,,,,,,,,,1,001,2024-08-23_14h32.51.399,IAT(Formal),2021.2.3,Win32,120.105693,,,,,,,,,,,,,,,,,,,,,,,,,,,,,,,,,,,,,,,,,,,,i,1,0.5795,0,57,57,60,1,我,i,,,,,,,,,,,,
,,,,,,,,,,,,,,1,001,2024-08-23_14h32.51.399,IAT(Formal),2021.2.3,Win32,120.105693,,,,,,,,,,,,,,,,,,,,,,,,,,,,,,,,,,,,,,,,,,,,e,1,0.6934,0,58,58,68,1,他人,e,,,,,,,,,,,,
,,,,,,,,,,,,,,1,001,2024-08-23_14h32.51.399,IAT(Formal),2021.2.3,Win32,120.105693,,,,,,,,,,,,,,,,,,,,,,,,,,,,,,,,,,,,,,,,,,,,i,1,0.6266,0,59,59,37,1,傲慢,i,,,,,,,,,,,,
,,,,,,,,,,,,,,1,001,2024-08-23_14h32.51.399,IAT(Formal),2021.2.3,Win32,120.105693,,,,,,,,,,,,,,,,,,,,,,,,,,,,,,,,,,,,,,,,,,,,i,1,0.9114,0,60,60,41,1,散漫,i,,,,,,,,,,,,
,,,,,,,,,,,,,,1,001,2024-08-23_14h32.51.399,IAT(Formal),2021.2.3,Win32,120.105693,,,,,,,,,,,,,,,,,,,,,,,,,,,,,,,,,,,,,,,,,,,,e,1,0.5423,0,61,61,76,1,他们,e,,,,,,,,,,,,
,,,,,,,,,,,,,,1,001,2024-08-23_14h32.51.399,IAT(Formal),2021.2.3,Win32,120.105693,,,,,,,,,,,,,,,,,,,,,,,,,,,,,,,,,,,,,,,,,,,,e,1,0.5425,0,62,62,6,1,他们,e,,,,,,,,,,,,
,,,,,,,,,,,,,,1,001,2024-08-23_14h32.51.399,IAT(Formal),2021.2.3,Win32,120.105693,,,,,,,,,,,,,,,,,,,,,,,,,,,,,,,,,,,,,,,,,,,,e,1,0.9089,0,63,63,15,1,诚实,e,,,,,,,,,,,,
,,,,,,,,,,,,,,1,001,2024-08-23_14h32.51.399,IAT(Formal),2021.2.3,Win32,120.105693,,,,,,,,,,,,,,,,,,,,,,,,,,,,,,,,,,,,,,,,,,,,e,1,0.6504,0,64,64,19,1,机智,e,,,,,,,,,,,,
,,,,,,,,,,,,,,1,001,2024-08-23_14h32.51.399,IAT(Formal),2021.2.3,Win32,120.105693,,,,,,,,,,,,,,,,,,,,,,,,,,,,,,,,,,,,,,,,,,,,e,1,0.5195,0,65,65,9,1,其他,e,,,,,,,,,,,,
,,,,,,,,,,,,,,1,001,2024-08-23_14h32.51.399,IAT(Formal),2021.2.3,Win32,120.105693,,,,,,,,,,,,,,,,,,,,,,,,,,,,,,,,,,,,,,,,,,,,e,0,0.5001,0,66,66,36,1,自卑,i,,,,,,,,,,,,
,,,,,,,,,,,,,,1,001,2024-08-23_14h32.51.399,IAT(Formal),2021.2.3,Win32,120.105693,,,,,,,,,,,,,,,,,,,,,,,,,,,,,,,,,,,,,,,,,,,,e,1,0.5609,0,67,67,7,1,他的,e,,,,,,,,,,,,
,,,,,,,,,,,,,,1,001,2024-08-23_14h32.51.399,IAT(Formal),2021.2.3,Win32,120.105693,,,,,,,,,,,,,,,,,,,,,,,,,,,,,,,,,,,,,,,,,,,,i,1,0.7355,0,68,68,74,1,俺,i,,,,,,,,,,,,
,,,,,,,,,,,,,,1,001,2024-08-23_14h32.51.399,IAT(Formal),2021.2.3,Win32,120.105693,,,,,,,,,,,,,,,,,,,,,,,,,,,,,,,,,,,,,,,,,,,,e,1,0.9588,0,69,69,29,1,诚恳,e,,,,,,,,,,,,
,,,,,,,,,,,,,,1,001,2024-08-23_14h32.51.399,IAT(Formal),2021.2.3,Win32,120.105693,,,,,,,,,,,,,,,,,,,,,,,,,,,,,,,,,,,,,,,,,,,,e,1,0.5342,0,70,70,23,1,公正,e,,,,,,,,,,,,
,,,,,,,,,,,,,,1,001,2024-08-23_14h32.51.399,IAT(Formal),2021.2.3,Win32,120.105693,,,,,,,,,,,,,,,,,,,,,,,,,,,,,,,,,,,,,,,,,,,,i,1,0.6337,0,71,71,0,1,我,i,,,,,,,,,,,,
,,,,,,,,,,,,,,1,001,2024-08-23_14h32.51.399,IAT(Formal),2021.2.3,Win32,120.105693,,,,,,,,,,,,,,,,,,,,,,,,,,,,,,,,,,,,,,,,,,,,i,1,0.8261,0,72,72,32,1,愚蠢,i,,,,,,,,,,,,
,,,,,,,,,,,,,,1,001,2024-08-23_14h32.51.399,IAT(Formal),2021.2.3,Win32,120.105693,,,,,,,,,,,,,,,,,,,,,,,,,,,,,,,,,,,,,,,,,,,,i,0,0.4202,0,73,73,22,1,无私,e,,,,,,,,,,,,
,,,,,,,,,,,,,,1,001,2024-08-23_14h32.51.399,IAT(Formal),2021.2.3,Win32,120.105693,,,,,,,,,,,,,,,,,,,,,,,,,,,,,,,,,,,,,,,,,,,,e,1,0.7546,0,74,74,59,1,其他,e,,,,,,,,,,,,
,,,,,,,,,,,,,,1,001,2024-08-23_14h32.51.399,IAT(Formal),2021.2.3,Win32,120.105693,,,,,,,,,,,,,,,,,,,,,,,,,,,,,,,,,,,,,,,,,,,,i,1,0.5506,0,75,75,31,1,虚伪,i,,,,,,,,,,,,
,,,,,,,,,,,,,,1,001,2024-08-23_14h32.51.399,IAT(Formal),2021.2.3,Win32,120.105693,,,,,,,,,,,,,,,,,,,,,,,,,,,,,,,,,,,,,,,,,,,,i,0,1.0254,0,76,76,65,1,他,e,,,,,,,,,,,,
,,,,,,,,,,,,,,1,001,2024-08-23_14h32.51.399,IAT(Formal),2021.2.3,Win32,120.105693,,,,,,,,,,,,,,,,,,,,,,,,,,,,,,,,,,,,,,,,,,,,i,1,0.6686,0,77,77,64,1,俺,i,,,,,,,,,,,,
,,,,,,,,,,,,,,1,001,2024-08-23_14h32.51.399,IAT(Formal),2021.2.3,Win32,120.105693,,,,,,,,,,,,,,,,,,,,,,,,,,,,,,,,,,,,,,,,,,,,e,1,0.8283,0,78,78,20,1,认真,e,,,,,,,,,,,,
,,,,,,,,,,,,,,1,001,2024-08-23_14h32.51.399,IAT(Formal),2021.2.3,Win32,120.105693,,,,,,,,,,,,,,,,,,,,,,,,,,,,,,,,,,,,,,,,,,,,i,1,0.9363,0,79,79,40,1,执拗,i,,,,,,,,,,,,
,,,,,,,,,,,,,,1,001,2024-08-23_14h32.51.399,IAT(Formal),2021.2.3,Win32,120.105693,,,,,,,,,,,,,,,,,,,,,,,,,,,,,,,,,,,,,,,,,,,,,,,,,,,,我们,i,space,15.5789,i,1,1.2377,0,0,0,72,1,,
,,,,,,,,,,,,,,1,001,2024-08-23_14h32.51.399,IAT(Formal),2021.2.3,Win32,120.105693,,,,,,,,,,,,,,,,,,,,,,,,,,,,,,,,,,,,,,,,,,,,,,,,,,,,消极,i,,,i,1,0.8102,0,1,1,35,1,,
,,,,,,,,,,,,,,1,001,2024-08-23_14h32.51.399,IAT(Formal),2021.2.3,Win32,120.105693,,,,,,,,,,,,,,,,,,,,,,,,,,,,,,,,,,,,,,,,,,,,,,,,,,,,聪明,e,,,e,1,1.2388,0,2,2,12,1,,
,,,,,,,,,,,,,,1,001,2024-08-23_14h32.51.399,IAT(Formal),2021.2.3,Win32,120.105693,,,,,,,,,,,,,,,,,,,,,,,,,,,,,,,,,,,,,,,,,,,,,,,,,,,,我,i,,,i,1,0.6175,0,3,3,50,1,,
,,,,,,,,,,,,,,1,001,2024-08-23_14h32.51.399,IAT(Formal),2021.2.3,Win32,120.105693,,,,,,,,,,,,,,,,,,,,,,,,,,,,,,,,,,,,,,,,,,,,,,,,,,,,公正,e,,,e,1,0.5322,0,4,4,23,1,,
,,,,,,,,,,,,,,1,001,2024-08-23_14h32.51.399,IAT(Formal),2021.2.3,Win32,120.105693,,,,,,,,,,,,,,,,,,,,,,,,,,,,,,,,,,,,,,,,,,,,,,,,,,,,俺,i,,,i,1,0.7639,0,5,5,54,1,,
,,,,,,,,,,,,,,1,001,2024-08-23_14h32.51.399,IAT(Formal),2021.2.3,Win32,120.105693,,,,,,,,,,,,,,,,,,,,,,,,,,,,,,,,,,,,,,,,,,,,,,,,,,,,愚蠢,i,,,e,0,0.6889,0,6,6,32,1,,
,,,,,,,,,,,,,,1,001,2024-08-23_14h32.51.399,IAT(Formal),2021.2.3,Win32,120.105693,,,,,,,,,,,,,,,,,,,,,,,,,,,,,,,,,,,,,,,,,,,,,,,,,,,,勤奋,e,,,e,1,0.6545,0,7,7,18,1,,
,,,,,,,,,,,,,,1,001,2024-08-23_14h32.51.399,IAT(Formal),2021.2.3,Win32,120.105693,,,,,,,,,,,,,,,,,,,,,,,,,,,,,,,,,,,,,,,,,,,,,,,,,,,,他的,e,,,e,1,0.6483,0,8,8,67,1,,
,,,,,,,,,,,,,,1,001,2024-08-23_14h32.51.399,IAT(Formal),2021.2.3,Win32,120.105693,,,,,,,,,,,,,,,,,,,,,,,,,,,,,,,,,,,,,,,,,,,,,,,,,,,,执拗,i,,,i,1,0.69,0,9,9,40,1,,
,,,,,,,,,,,,,,1,001,2024-08-23_14h32.51.399,IAT(Formal),2021.2.3,Win32,120.105693,,,,,,,,,,,,,,,,,,,,,,,,,,,,,,,,,,,,,,,,,,,,,,,,,,,,其他,e,,,e,1,0.6651,0,10,10,59,1,,
,,,,,,,,,,,,,,1,001,2024-08-23_14h32.51.399,IAT(Formal),2021.2.3,Win32,120.105693,,,,,,,,,,,,,,,,,,,,,,,,,,,,,,,,,,,,,,,,,,,,,,,,,,,,他人,e,,,e,1,0.9758,0,11,11,8,1,,
,,,,,,,,,,,,,,1,001,2024-08-23_14h32.51.399,IAT(Formal),2021.2.3,Win32,120.105693,,,,,,,,,,,,,,,,,,,,,,,,,,,,,,,,,,,,,,,,,,,,,,,,,,,,他人,e,,,e,1,0.4754,0,12,12,68,1,,
,,,,,,,,,,,,,,1,001,2024-08-23_14h32.51.399,IAT(Formal),2021.2.3,Win32,120.105693,,,,,,,,,,,,,,,,,,,,,,,,,,,,,,,,,,,,,,,,,,,,,,,,,,,,他人,e,,,e,1,0.44,0,13,13,78,1,,
,,,,,,,,,,,,,,1,001,2024-08-23_14h32.51.399,IAT(Formal),2021.2.3,Win32,120.105693,,,,,,,,,,,,,,,,,,,,,,,,,,,,,,,,,,,,,,,,,,,,,,,,,,,,崇高,e,,,e,1,0.5439,0,14,14,11,1,,
,,,,,,,,,,,,,,1,001,2024-08-23_14h32.51.399,IAT(Formal),2021.2.3,Win32,120.105693,,,,,,,,,,,,,,,,,,,,,,,,,,,,,,,,,,,,,,,,,,,,,,,,,,,,刻薄,i,,,i,1,0.5174,0,15,15,33,1,,
,,,,,,,,,,,,,,1,001,2024-08-23_14h32.51.399,IAT(Formal),2021.2.3,Win32,120.105693,,,,,,,,,,,,,,,,,,,,,,,,,,,,,,,,,,,,,,,,,,,,,,,,,,,,我们,i,,,e,0,0.4636,0,16,16,62,1,,
,,,,,,,,,,,,,,1,001,2024-08-23_14h32.51.399,IAT(Formal),2021.2.3,Win32,120.105693,,,,,,,,,,,,,,,,,,,,,,,,,,,,,,,,,,,,,,,,,,,,,,,,,,,,卑鄙,i,,,i,1,1.0388,0,17,17,30,1,,
,,,,,,,,,,,,,,1,001,2024-08-23_14h32.51.399,IAT(Formal),2021.2.3,Win32,120.105693,,,,,,,,,,,,,,,,,,,,,,,,,,,,,,,,,,,,,,,,,,,,,,,,,,,,他的,e,,,e,1,0.5511,0,18,18,7,1,,
,,,,,,,,,,,,,,1,001,2024-08-23_14h32.51.399,IAT(Formal),2021.2.3,Win32,120.105693,,,,,,,,,,,,,,,,,,,,,,,,,,,,,,,,,,,,,,,,,,,,,,,,,,,,傲慢,i,,,e,0,1.121,0,19,19,37,1,,
,,,,,,,,,,,,,,1,001,2024-08-23_14h32.51.399,IAT(Formal),2021.2.3,Win32,120.105693,,,,,,,,,,,,,,,,,,,,,,,,,,,,,,,,,,,,,,,,,,,,,,,,,,,,我,i,,,i,1,0.7998,0,20,20,0,1,,
,,,,,,,,,,,,,,1,001,2024-08-23_14h32.51.399,IAT(Formal),2021.2.3,Win32,120.105693,,,,,,,,,,,,,,,,,,,,,,,,,,,,,,,,,,,,,,,,,,,,,,,,,,,,优秀,e,,,e,1,0.5432,0,21,21,10,1,,
,,,,,,,,,,,,,,1,001,2024-08-23_14h32.51.399,IAT(Formal),2021.2.3,Win32,120.105693,,,,,,,,,,,,,,,,,,,,,,,,,,,,,,,,,,,,,,,,,,,,,,,,,,,,我们,i,,,i,1,0.7892,0,22,22,2,1,,
,,,,,,,,,,,,,,1,001,2024-08-23_14h32.51.399,IAT(Formal),2021.2.3,Win32,120.105693,,,,,,,,,,,,,,,,,,,,,,,,,,,,,,,,,,,,,,,,,,,,,,,,,,,,我的,i,,,i,1,0.4829,0,23,23,61,1,,
,,,,,,,,,,,,,,1,001,2024-08-23_14h32.51.399,IAT(Formal),2021.2.3,Win32,120.105693,,,,,,,,,,,,,,,,,,,,,,,,,,,,,,,,,,,,,,,,,,,,,,,,,,,,野蛮,i,,,e,0,0.7856,0,24,24,46,1,,
,,,,,,,,,,,,,,1,001,2024-08-23_14h32.51.399,IAT(Formal),2021.2.3,Win32,120.105693,,,,,,,,,,,,,,,,,,,,,,,,,,,,,,,,,,,,,,,,,,,,,,,,,,,,其他,e,,,e,1,0.6589,0,25,25,9,1,,
,,,,,,,,,,,,,,1,001,2024-08-23_14h32.51.399,IAT(Formal),2021.2.3,Win32,120.105693,,,,,,,,,,,,,,,,,,,,,,,,,,,,,,,,,,,,,,,,,,,,,,,,,,,,活泼,e,,,,0,,0,26,26,28,1,,
,,,,,,,,,,,,,,1,001,2024-08-23_14h32.51.399,IAT(Formal),2021.2.3,Win32,120.105693,,,,,,,,,,,,,,,,,,,,,,,,,,,,,,,,,,,,,,,,,,,,,,,,,,,,诚恳,e,,,i,0,0.9945,0,27,27,29,1,,
,,,,,,,,,,,,,,1,001,2024-08-23_14h32.51.399,IAT(Formal),2021.2.3,Win32,120.105693,,,,,,,,,,,,,,,,,,,,,,,,,,,,,,,,,,,,,,,,,,,,,,,,,,,,其他,e,,,i,0,0.8644,0,28,28,79,1,,
,,,,,,,,,,,,,,1,001,2024-08-23_14h32.51.399,IAT(Formal),2021.2.3,Win32,120.105693,,,,,,,,,,,,,,,,,,,,,,,,,,,,,,,,,,,,,,,,,,,,,,,,,,,,他的,e,,,e,1,0.5258,0,29,29,77,1,,
,,,,,,,,,,,,,,1,001,2024-08-23_14h32.51.399,IAT(Formal),2021.2.3,Win32,120.105693,,,,,,,,,,,,,,,,,,,,,,,,,,,,,,,,,,,,,,,,,,,,,,,,,,,,自己,i,,,i,1,0.6343,0,30,30,53,1,,
,,,,,,,,,,,,,,1,001,2024-08-23_14h32.51.399,IAT(Formal),2021.2.3,Win32,120.105693,,,,,,,,,,,,,,,,,,,,,,,,,,,,,,,,,,,,,,,,,,,,,,,,,,,,勇敢,e,,,e,1,1.2164,0,31,31,17,1,,
,,,,,,,,,,,,,,1,001,2024-08-23_14h32.51.399,IAT(Formal),2021.2.3,Win32,120.105693,,,,,,,,,,,,,,,,,,,,,,,,,,,,,,,,,,,,,,,,,,,,,,,,,,,,凶狠,i,,,i,1,0.5848,0,32,32,42,1,,
,,,,,,,,,,,,,,1,001,2024-08-23_14h32.51.399,IAT(Formal),2021.2.3,Win32,120.105693,,,,,,,,,,,,,,,,,,,,,,,,,,,,,,,,,,,,,,,,,,,,,,,,,,,,轻率,i,,,i,1,0.5648,0,33,33,48,1,,
,,,,,,,,,,,,,,1,001,2024-08-23_14h32.51.399,IAT(Formal),2021.2.3,Win32,120.105693,,,,,,,,,,,,,,,,,,,,,,,,,,,,,,,,,,,,,,,,,,,,,,,,,,,,正直,e,,,e,1,0.5828,0,34,34,16,1,,
,,,,,,,,,,,,,,1,001,2024-08-23_14h32.51.399,IAT(Formal),2021.2.3,Win32,120.105693,,,,,,,,,,,,,,,,,,,,,,,,,,,,,,,,,,,,,,,,,,,,,,,,,,,,热情,e,,,e,1,0.6769,0,35,35,27,1,,
,,,,,,,,,,,,,,1,001,2024-08-23_14h32.51.399,IAT(Formal),2021.2.3,Win32,120.105693,,,,,,,,,,,,,,,,,,,,,,,,,,,,,,,,,,,,,,,,,,,,,,,,,,,,自己,i,,,i,1,0.7592,0,36,36,3,1,,
,,,,,,,,,,,,,,1,001,2024-08-23_14h32.51.399,IAT(Formal),2021.2.3,Win32,120.105693,,,,,,,,,,,,,,,,,,,,,,,,,,,,,,,,,,,,,,,,,,,,,,,,,,,,俺,i,,,i,1,0.5253,0,37,37,4,1,,
,,,,,,,,,,,,,,1,001,2024-08-23_14h32.51.399,IAT(Formal),2021.2.3,Win32,120.105693,,,,,,,,,,,,,,,,,,,,,,,,,,,,,,,,,,,,,,,,,,,,,,,,,,,,我,i,,,i,1,0.4032,0,38,38,60,1,,
,,,,,,,,,,,,,,1,001,2024-08-23_14h32.51.399,IAT(Formal),2021.2.3,Win32,120.105693,,,,,,,,,,,,,,,,,,,,,,,,,,,,,,,,,,,,,,,,,,,,,,,,,,,,虚伪,i,,,e,0,1.277,0,39,39,31,1,,
,,,,,,,,,,,,,,1,001,2024-08-23_14h32.51.399,IAT(Formal),2021.2.3,Win32,120.105693,,,,,,,,,,,,,,,,,,,,,,,,,,,,,,,,,,,,,,,,,,,,,,,,,,,,冷静,e,,,e,1,1.3002,0,40,40,26,1,,
,,,,,,,,,,,,,,1,001,2024-08-23_14h32.51.399,IAT(Formal),2021.2.3,Win32,120.105693,,,,,,,,,,,,,,,,,,,,,,,,,,,,,,,,,,,,,,,,,,,,,,,,,,,,自己,i,,,i,1,0.369,0,41,41,63,1,,
,,,,,,,,,,,,,,1,001,2024-08-23_14h32.51.399,IAT(Formal),2021.2.3,Win32,120.105693,,,,,,,,,,,,,,,,,,,,,,,,,,,,,,,,,,,,,,,,,,,,,,,,,,,,他们,e,,,e,1,0.6195,0,42,42,66,1,,
,,,,,,,,,,,,,,1,001,2024-08-23_14h32.51.399,IAT(Formal),2021.2.3,Win32,120.105693,,,,,,,,,,,,,,,,,,,,,,,,,,,,,,,,,,,,,,,,,,,,,,,,,,,,细腻,e,,,e,1,1.209,0,43,43,25,1,,
,,,,,,,,,,,,,,1,001,2024-08-23_14h32.51.399,IAT(Formal),2021.2.3,Win32,120.105693,,,,,,,,,,,,,,,,,,,,,,,,,,,,,,,,,,,,,,,,,,,,,,,,,,,,我,i,,,i,1,0.542,0,44,44,70,1,,
,,,,,,,,,,,,,,1,001,2024-08-23_14h32.51.399,IAT(Formal),2021.2.3,Win32,120.105693,,,,,,,,,,,,,,,,,,,,,,,,,,,,,,,,,,,,,,,,,,,,,,,,,,,,下贱,i,,,i,1,0.967,0,45,45,49,1,,
,,,,,,,,,,,,,,1,001,2024-08-23_14h32.51.399,IAT(Formal),2021.2.3,Win32,120.105693,,,,,,,,,,,,,,,,,,,,,,,,,,,,,,,,,,,,,,,,,,,,,,,,,,,,诚实,e,,,e,1,0.7321,0,46,46,15,1,,
,,,,,,,,,,,,,,1,001,2024-08-23_14h32.51.399,IAT(Formal),2021.2.3,Win32,120.105693,,,,,,,,,,,,,,,,,,,,,,,,,,,,,,,,,,,,,,,,,,,,,,,,,,,,俺,i,,,i,1,0.5582,0,47,47,64,1,,
,,,,,,,,,,,,,,1,001,2024-08-23_14h32.51.399,IAT(Formal),2021.2.3,Win32,120.105693,,,,,,,,,,,,,,,,,,,,,,,,,,,,,,,,,,,,,,,,,,,,,,,,,,,,他们,e,,,e,1,0.6035,0,48,48,76,1,,
,,,,,,,,,,,,,,1,001,2024-08-23_14h32.51.399,IAT(Formal),2021.2.3,Win32,120.105693,,,,,,,,,,,,,,,,,,,,,,,,,,,,,,,,,,,,,,,,,,,,,,,,,,,,自私,i,,,i,1,1.3756,0,49,49,43,1,,
,,,,,,,,,,,,,,1,001,2024-08-23_14h32.51.399,IAT(Formal),2021.2.3,Win32,120.105693,,,,,,,,,,,,,,,,,,,,,,,,,,,,,,,,,,,,,,,,,,,,,,,,,,,,固执,i,,,i,1,0.4919,0,50,50,47,1,,
,,,,,,,,,,,,,,1,001,2024-08-23_14h32.51.399,IAT(Formal),2021.2.3,Win32,120.105693,,,,,,,,,,,,,,,,,,,,,,,,,,,,,,,,,,,,,,,,,,,,,,,,,,,,我的,i,,,i,1,0.6673,0,51,51,51,1,,
,,,,,,,,,,,,,,1,001,2024-08-23_14h32.51.399,IAT(Formal),2021.2.3,Win32,120.105693,,,,,,,,,,,,,,,,,,,,,,,,,,,,,,,,,,,,,,,,,,,,,,,,,,,,俺,i,,,i,1,0.6589,0,52,52,74,1,,
,,,,,,,,,,,,,,1,001,2024-08-23_14h32.51.399,IAT(Formal),2021.2.3,Win32,120.105693,,,,,,,,,,,,,,,,,,,,,,,,,,,,,,,,,,,,,,,,,,,,,,,,,,,,我们,i,,,i,1,0.5923,0,53,53,52,1,,
,,,,,,,,,,,,,,1,001,2024-08-23_14h32.51.399,IAT(Formal),2021.2.3,Win32,120.105693,,,,,,,,,,,,,,,,,,,,,,,,,,,,,,,,,,,,,,,,,,,,,,,,,,,,他们,e,,,e,1,0.5757,0,54,54,6,1,,
,,,,,,,,,,,,,,1,001,2024-08-23_14h32.51.399,IAT(Formal),2021.2.3,Win32,120.105693,,,,,,,,,,,,,,,,,,,,,,,,,,,,,,,,,,,,,,,,,,,,,,,,,,,,杰出,e,,,e,1,0.7009,0,55,55,13,1,,
,,,,,,,,,,,,,,1,001,2024-08-23_14h32.51.399,IAT(Formal),2021.2.3,Win32,120.105693,,,,,,,,,,,,,,,,,,,,,,,,,,,,,,,,,,,,,,,,,,,,,,,,,,,,猖狂,i,,,i,1,0.5666,0,56,56,45,1,,
,,,,,,,,,,,,,,1,001,2024-08-23_14h32.51.399,IAT(Formal),2021.2.3,Win32,120.105693,,,,,,,,,,,,,,,,,,,,,,,,,,,,,,,,,,,,,,,,,,,,,,,,,,,,自己,i,,,,0,,0,57,57,73,1,,
,,,,,,,,,,,,,,1,001,2024-08-23_14h32.51.399,IAT(Formal),2021.2.3,Win32,120.105693,,,,,,,,,,,,,,,,,,,,,,,,,,,,,,,,,,,,,,,,,,,,,,,,,,,,朴实,e,,,i,0,0.5883,0,58,58,24,1,,
,,,,,,,,,,,,,,1,001,2024-08-23_14h32.51.399,IAT(Formal),2021.2.3,Win32,120.105693,,,,,,,,,,,,,,,,,,,,,,,,,,,,,,,,,,,,,,,,,,,,,,,,,,,,他,e,,,e,1,0.4776,0,59,59,65,1,,
,,,,,,,,,,,,,,1,001,2024-08-23_14h32.51.399,IAT(Formal),2021.2.3,Win32,120.105693,,,,,,,,,,,,,,,,,,,,,,,,,,,,,,,,,,,,,,,,,,,,,,,,,,,,暴躁,i,,,i,1,1.0156,0,60,60,44,1,,
,,,,,,,,,,,,,,1,001,2024-08-23_14h32.51.399,IAT(Formal),2021.2.3,Win32,120.105693,,,,,,,,,,,,,,,,,,,,,,,,,,,,,,,,,,,,,,,,,,,,,,,,,,,,悲观,i,,,i,1,0.4658,0,61,61,34,1,,
,,,,,,,,,,,,,,1,001,2024-08-23_14h32.51.399,IAT(Formal),2021.2.3,Win32,120.105693,,,,,,,,,,,,,,,,,,,,,,,,,,,,,,,,,,,,,,,,,,,,,,,,,,,,他,e,,,e,1,0.5496,0,62,62,75,1,,
,,,,,,,,,,,,,,1,001,2024-08-23_14h32.51.399,IAT(Formal),2021.2.3,Win32,120.105693,,,,,,,,,,,,,,,,,,,,,,,,,,,,,,,,,,,,,,,,,,,,,,,,,,,,我的,i,,,i,1,0.65,0,63,63,71,1,,
,,,,,,,,,,,,,,1,001,2024-08-23_14h32.51.399,IAT(Formal),2021.2.3,Win32,120.105693,,,,,,,,,,,,,,,,,,,,,,,,,,,,,,,,,,,,,,,,,,,,,,,,,,,,乐观,e,,,e,1,0.9312,0,64,64,14,1,,
,,,,,,,,,,,,,,1,001,2024-08-23_14h32.51.399,IAT(Formal),2021.2.3,Win32,120.105693,,,,,,,,,,,,,,,,,,,,,,,,,,,,,,,,,,,,,,,,,,,,,,,,,,,,散漫,i,,,i,1,0.5072,0,65,65,41,1,,
,,,,,,,,,,,,,,1,001,2024-08-23_14h32.51.399,IAT(Formal),2021.2.3,Win32,120.105693,,,,,,,,,,,,,,,,,,,,,,,,,,,,,,,,,,,,,,,,,,,,,,,,,,,,其他,e,,,e,1,0.7828,0,66,66,69,1,,
,,,,,,,,,,,,,,1,001,2024-08-23_14h32.51.399,IAT(Formal),2021.2.3,Win32,120.105693,,,,,,,,,,,,,,,,,,,,,,,,,,,,,,,,,,,,,,,,,,,,,,,,,,,,无私,e,,,e,1,0.8797,0,67,67,22,1,,
,,,,,,,,,,,,,,1,001,2024-08-23_14h32.51.399,IAT(Formal),2021.2.3,Win32,120.105693,,,,,,,,,,,,,,,,,,,,,,,,,,,,,,,,,,,,,,,,,,,,,,,,,,,,我的,i,,,i,1,0.458,0,68,68,1,1,,
,,,,,,,,,,,,,,1,001,2024-08-23_14h32.51.399,IAT(Formal),2021.2.3,Win32,120.105693,,,,,,,,,,,,,,,,,,,,,,,,,,,,,,,,,,,,,,,,,,,,,,,,,,,,自卑,i,,,i,1,1.0241,0,69,69,36,1,,
,,,,,,,,,,,,,,1,001,2024-08-23_14h32.51.399,IAT(Formal),2021.2.3,Win32,120.105693,,,,,,,,,,,,,,,,,,,,,,,,,,,,,,,,,,,,,,,,,,,,,,,,,,,,稳重,e,,,e,1,0.6961,0,70,70,21,1,,
,,,,,,,,,,,,,,1,001,2024-08-23_14h32.51.399,IAT(Formal),2021.2.3,Win32,120.105693,,,,,,,,,,,,,,,,,,,,,,,,,,,,,,,,,,,,,,,,,,,,,,,,,,,,他人,e,,,e,1,0.8273,0,71,71,58,1,,
,,,,,,,,,,,,,,1,001,2024-08-23_14h32.51.399,IAT(Formal),2021.2.3,Win32,120.105693,,,,,,,,,,,,,,,,,,,,,,,,,,,,,,,,,,,,,,,,,,,,,,,,,,,,他的,e,,,e,1,0.5009,0,72,72,57,1,,
,,,,,,,,,,,,,,1,001,2024-08-23_14h32.51.399,IAT(Formal),2021.2.3,Win32,120.105693,,,,,,,,,,,,,,,,,,,,,,,,,,,,,,,,,,,,,,,,,,,,,,,,,,,,机智,e,,,e,1,0.6604,0,73,73,19,1,,
,,,,,,,,,,,,,,1,001,2024-08-23_14h32.51.399,IAT(Formal),2021.2.3,Win32,120.105693,,,,,,,,,,,,,,,,,,,,,,,,,,,,,,,,,,,,,,,,,,,,,,,,,,,,认真,e,,,e,1,0.6572,0,74,74,20,1,,
,,,,,,,,,,,,,,1,001,2024-08-23_14h32.51.399,IAT(Formal),2021.2.3,Win32,120.105693,,,,,,,,,,,,,,,,,,,,,,,,,,,,,,,,,,,,,,,,,,,,,,,,,,,,冒失,i,,,i,1,0.585,0,75,75,39,1,,
,,,,,,,,,,,,,,1,001,2024-08-23_14h32.51.399,IAT(Formal),2021.2.3,Win32,120.105693,,,,,,,,,,,,,,,,,,,,,,,,,,,,,,,,,,,,,,,,,,,,,,,,,,,,他,e,,,e,1,0.8199,0,76,76,55,1,,
,,,,,,,,,,,,,,1,001,2024-08-23_14h32.51.399,IAT(Formal),2021.2.3,Win32,120.105693,,,,,,,,,,,,,,,,,,,,,,,,,,,,,,,,,,,,,,,,,,,,,,,,,,,,鲁莽,i,,,e,0,0.8146,0,77,77,38,1,,
,,,,,,,,,,,,,,1,001,2024-08-23_14h32.51.399,IAT(Formal),2021.2.3,Win32,120.105693,,,,,,,,,,,,,,,,,,,,,,,,,,,,,,,,,,,,,,,,,,,,,,,,,,,,他,e,,,e,1,0.4898,0,78,78,5,1,,
,,,,,,,,,,,,,,1,001,2024-08-23_14h32.51.399,IAT(Formal),2021.2.3,Win32,120.105693,,,,,,,,,,,,,,,,,,,,,,,,,,,,,,,,,,,,,,,,,,,,,,,,,,,,他们,e,,,e,1,0.5355,0,79,79,56,1,,
,,,,,,,,,,,,,,1,001,2024-08-23_14h32.51.399,IAT(Formal),2021.2.3,Win32,120.105693,,,,,,,,,,,,,,,,,,,,,,,,,,,,,,,,,,,,,,,,,,,,,,,,,,,,热情,e,,,e,1,0.6577,1,0,80,27,1,,
,,,,,,,,,,,,,,1,001,2024-08-23_14h32.51.399,IAT(Formal),2021.2.3,Win32,120.105693,,,,,,,,,,,,,,,,,,,,,,,,,,,,,,,,,,,,,,,,,,,,,,,,,,,,其他,e,,,e,1,0.5724,1,1,81,59,1,,
,,,,,,,,,,,,,,1,001,2024-08-23_14h32.51.399,IAT(Formal),2021.2.3,Win32,120.105693,,,,,,,,,,,,,,,,,,,,,,,,,,,,,,,,,,,,,,,,,,,,,,,,,,,,自己,i,,,i,1,0.4686,1,2,82,73,1,,
,,,,,,,,,,,,,,1,001,2024-08-23_14h32.51.399,IAT(Formal),2021.2.3,Win32,120.105693,,,,,,,,,,,,,,,,,,,,,,,,,,,,,,,,,,,,,,,,,,,,,,,,,,,,下贱,i,,,i,1,0.8796,1,3,83,49,1,,
,,,,,,,,,,,,,,1,001,2024-08-23_14h32.51.399,IAT(Formal),2021.2.3,Win32,120.105693,,,,,,,,,,,,,,,,,,,,,,,,,,,,,,,,,,,,,,,,,,,,,,,,,,,,他,e,,,e,1,0.5561,1,4,84,75,1,,
,,,,,,,,,,,,,,1,001,2024-08-23_14h32.51.399,IAT(Formal),2021.2.3,Win32,120.105693,,,,,,,,,,,,,,,,,,,,,,,,,,,,,,,,,,,,,,,,,,,,,,,,,,,,他的,e,,,e,1,0.385,1,5,85,7,1,,
,,,,,,,,,,,,,,1,001,2024-08-23_14h32.51.399,IAT(Formal),2021.2.3,Win32,120.105693,,,,,,,,,,,,,,,,,,,,,,,,,,,,,,,,,,,,,,,,,,,,,,,,,,,,鲁莽,i,,,i,1,1.0573,1,6,86,38,1,,
,,,,,,,,,,,,,,1,001,2024-08-23_14h32.51.399,IAT(Formal),2021.2.3,Win32,120.105693,,,,,,,,,,,,,,,,,,,,,,,,,,,,,,,,,,,,,,,,,,,,,,,,,,,,他们,e,,,e,1,0.8929,1,7,87,66,1,,
,,,,,,,,,,,,,,1,001,2024-08-23_14h32.51.399,IAT(Formal),2021.2.3,Win32,120.105693,,,,,,,,,,,,,,,,,,,,,,,,,,,,,,,,,,,,,,,,,,,,,,,,,,,,自己,i,,,i,1,0.5434,1,8,88,63,1,,
,,,,,,,,,,,,,,1,001,2024-08-23_14h32.51.399,IAT(Formal),2021.2.3,Win32,120.105693,,,,,,,,,,,,,,,,,,,,,,,,,,,,,,,,,,,,,,,,,,,,,,,,,,,,崇高,e,,,e,1,0.6547,1,9,89,11,1,,
,,,,,,,,,,,,,,1,001,2024-08-23_14h32.51.399,IAT(Formal),2021.2.3,Win32,120.105693,,,,,,,,,,,,,,,,,,,,,,,,,,,,,,,,,,,,,,,,,,,,,,,,,,,,自卑,i,,,i,1,0.5647,1,10,90,36,1,,
,,,,,,,,,,,,,,1,001,2024-08-23_14h32.51.399,IAT(Formal),2021.2.3,Win32,120.105693,,,,,,,,,,,,,,,,,,,,,,,,,,,,,,,,,,,,,,,,,,,,,,,,,,,,稳重,e,,,e,1,0.5832,1,11,91,21,1,,
,,,,,,,,,,,,,,1,001,2024-08-23_14h32.51.399,IAT(Formal),2021.2.3,Win32,120.105693,,,,,,,,,,,,,,,,,,,,,,,,,,,,,,,,,,,,,,,,,,,,,,,,,,,,正直,e,,,e,1,0.6141,1,12,92,16,1,,
,,,,,,,,,,,,,,1,001,2024-08-23_14h32.51.399,IAT(Formal),2021.2.3,Win32,120.105693,,,,,,,,,,,,,,,,,,,,,,,,,,,,,,,,,,,,,,,,,,,,,,,,,,,,他,e,,,e,1,0.6432,1,13,93,5,1,,
,,,,,,,,,,,,,,1,001,2024-08-23_14h32.51.399,IAT(Formal),2021.2.3,Win32,120.105693,,,,,,,,,,,,,,,,,,,,,,,,,,,,,,,,,,,,,,,,,,,,,,,,,,,,暴躁,i,,,i,1,0.5591,1,14,94,44,1,,
,,,,,,,,,,,,,,1,001,2024-08-23_14h32.51.399,IAT(Formal),2021.2.3,Win32,120.105693,,,,,,,,,,,,,,,,,,,,,,,,,,,,,,,,,,,,,,,,,,,,,,,,,,,,刻薄,i,,,i,1,0.5548,1,15,95,33,1,,
,,,,,,,,,,,,,,1,001,2024-08-23_14h32.51.399,IAT(Formal),2021.2.3,Win32,120.105693,,,,,,,,,,,,,,,,,,,,,,,,,,,,,,,,,,,,,,,,,,,,,,,,,,,,冷静,e,,,e,1,0.9924,1,16,96,26,1,,
,,,,,,,,,,,,,,1,001,2024-08-23_14h32.51.399,IAT(Formal),2021.2.3,Win32,120.105693,,,,,,,,,,,,,,,,,,,,,,,,,,,,,,,,,,,,,,,,,,,,,,,,,,,,他,e,,,e,1,0.525,1,17,97,65,1,,
,,,,,,,,,,,,,,1,001,2024-08-23_14h32.51.399,IAT(Formal),2021.2.3,Win32,120.105693,,,,,,,,,,,,,,,,,,,,,,,,,,,,,,,,,,,,,,,,,,,,,,,,,,,,猖狂,i,,,i,1,0.5234,1,18,98,45,1,,
,,,,,,,,,,,,,,1,001,2024-08-23_14h32.51.399,IAT(Formal),2021.2.3,Win32,120.105693,,,,,,,,,,,,,,,,,,,,,,,,,,,,,,,,,,,,,,,,,,,,,,,,,,,,我的,i,,,i,1,0.4295,1,19,99,51,1,,
,,,,,,,,,,,,,,1,001,2024-08-23_14h32.51.399,IAT(Formal),2021.2.3,Win32,120.105693,,,,,,,,,,,,,,,,,,,,,,,,,,,,,,,,,,,,,,,,,,,,,,,,,,,,诚恳,e,,,e,1,0.5911,1,20,100,29,1,,
,,,,,,,,,,,,,,1,001,2024-08-23_14h32.51.399,IAT(Formal),2021.2.3,Win32,120.105693,,,,,,,,,,,,,,,,,,,,,,,,,,,,,,,,,,,,,,,,,,,,,,,,,,,,卑鄙,i,,,i,1,0.5391,1,21,101,30,1,,
,,,,,,,,,,,,,,1,001,2024-08-23_14h32.51.399,IAT(Formal),2021.2.3,Win32,120.105693,,,,,,,,,,,,,,,,,,,,,,,,,,,,,,,,,,,,,,,,,,,,,,,,,,,,优秀,e,,,e,1,0.493,1,22,102,10,1,,
,,,,,,,,,,,,,,1,001,2024-08-23_14h32.51.399,IAT(Formal),2021.2.3,Win32,120.105693,,,,,,,,,,,,,,,,,,,,,,,,,,,,,,,,,,,,,,,,,,,,,,,,,,,,他们,e,,,e,1,0.3916,1,23,103,6,1,,
,,,,,,,,,,,,,,1,001,2024-08-23_14h32.51.399,IAT(Formal),2021.2.3,Win32,120.105693,,,,,,,,,,,,,,,,,,,,,,,,,,,,,,,,,,,,,,,,,,,,,,,,,,,,他的,e,,,e,1,0.4079,1,24,104,67,1,,
,,,,,,,,,,,,,,1,001,2024-08-23_14h32.51.399,IAT(Formal),2021.2.3,Win32,120.105693,,,,,,,,,,,,,,,,,,,,,,,,,,,,,,,,,,,,,,,,,,,,,,,,,,,,冒失,i,,,i,1,0.5409,1,25,105,39,1,,
,,,,,,,,,,,,,,1,001,2024-08-23_14h32.51.399,IAT(Formal),2021.2.3,Win32,120.105693,,,,,,,,,,,,,,,,,,,,,,,,,,,,,,,,,,,,,,,,,,,,,,,,,,,,他人,e,,,e,1,0.552,1,26,106,8,1,,
,,,,,,,,,,,,,,1,001,2024-08-23_14h32.51.399,IAT(Formal),2021.2.3,Win32,120.105693,,,,,,,,,,,,,,,,,,,,,,,,,,,,,,,,,,,,,,,,,,,,,,,,,,,,他人,e,,,e,1,0.4509,1,27,107,78,1,,
,,,,,,,,,,,,,,1,001,2024-08-23_14h32.51.399,IAT(Formal),2021.2.3,Win32,120.105693,,,,,,,,,,,,,,,,,,,,,,,,,,,,,,,,,,,,,,,,,,,,,,,,,,,,机智,e,,,i,0,0.617,1,28,108,19,1,,
,,,,,,,,,,,,,,1,001,2024-08-23_14h32.51.399,IAT(Formal),2021.2.3,Win32,120.105693,,,,,,,,,,,,,,,,,,,,,,,,,,,,,,,,,,,,,,,,,,,,,,,,,,,,勤奋,e,,,e,1,0.7631,1,29,109,18,1,,
,,,,,,,,,,,,,,1,001,2024-08-23_14h32.51.399,IAT(Formal),2021.2.3,Win32,120.105693,,,,,,,,,,,,,,,,,,,,,,,,,,,,,,,,,,,,,,,,,,,,,,,,,,,,我,i,,,e,0,0.5054,1,30,110,70,1,,
,,,,,,,,,,,,,,1,001,2024-08-23_14h32.51.399,IAT(Formal),2021.2.3,Win32,120.105693,,,,,,,,,,,,,,,,,,,,,,,,,,,,,,,,,,,,,,,,,,,,,,,,,,,,其他,e,,,e,1,0.9218,1,31,111,79,1,,
,,,,,,,,,,,,,,1,001,2024-08-23_14h32.51.399,IAT(Formal),2021.2.3,Win32,120.105693,,,,,,,,,,,,,,,,,,,,,,,,,,,,,,,,,,,,,,,,,,,,,,,,,,,,朴实,e,,,e,1,1.4336,1,32,112,24,1,,
,,,,,,,,,,,,,,1,001,2024-08-23_14h32.51.399,IAT(Formal),2021.2.3,Win32,120.105693,,,,,,,,,,,,,,,,,,,,,,,,,,,,,,,,,,,,,,,,,,,,,,,,,,,,愚蠢,i,,,i,1,0.6656,1,33,113,32,1,,
,,,,,,,,,,,,,,1,001,2024-08-23_14h32.51.399,IAT(Formal),2021.2.3,Win32,120.105693,,,,,,,,,,,,,,,,,,,,,,,,,,,,,,,,,,,,,,,,,,,,,,,,,,,,我们,i,,,i,1,0.8481,1,34,114,52,1,,
,,,,,,,,,,,,,,1,001,2024-08-23_14h32.51.399,IAT(Formal),2021.2.3,Win32,120.105693,,,,,,,,,,,,,,,,,,,,,,,,,,,,,,,,,,,,,,,,,,,,,,,,,,,,无私,e,,,e,1,0.7588,1,35,115,22,1,,
,,,,,,,,,,,,,,1,001,2024-08-23_14h32.51.399,IAT(Formal),2021.2.3,Win32,120.105693,,,,,,,,,,,,,,,,,,,,,,,,,,,,,,,,,,,,,,,,,,,,,,,,,,,,我,i,,,i,1,1.1518,1,36,116,60,1,,
,,,,,,,,,,,,,,1,001,2024-08-23_14h32.51.399,IAT(Formal),2021.2.3,Win32,120.105693,,,,,,,,,,,,,,,,,,,,,,,,,,,,,,,,,,,,,,,,,,,,,,,,,,,,我,i,,,i,1,0.437,1,37,117,50,1,,
,,,,,,,,,,,,,,1,001,2024-08-23_14h32.51.399,IAT(Formal),2021.2.3,Win32,120.105693,,,,,,,,,,,,,,,,,,,,,,,,,,,,,,,,,,,,,,,,,,,,,,,,,,,,细腻,e,,,e,1,0.7386,1,38,118,25,1,,
,,,,,,,,,,,,,,1,001,2024-08-23_14h32.51.399,IAT(Formal),2021.2.3,Win32,120.105693,,,,,,,,,,,,,,,,,,,,,,,,,,,,,,,,,,,,,,,,,,,,,,,,,,,,俺,i,,,i,1,0.7219,1,39,119,4,1,,
,,,,,,,,,,,,,,1,001,2024-08-23_14h32.51.399,IAT(Formal),2021.2.3,Win32,120.105693,,,,,,,,,,,,,,,,,,,,,,,,,,,,,,,,,,,,,,,,,,,,,,,,,,,,他的,e,,,e,1,0.6275,1,40,120,57,1,,
,,,,,,,,,,,,,,1,001,2024-08-23_14h32.51.399,IAT(Formal),2021.2.3,Win32,120.105693,,,,,,,,,,,,,,,,,,,,,,,,,,,,,,,,,,,,,,,,,,,,,,,,,,,,诚实,e,,,e,1,1.1217,1,41,121,15,1,,
,,,,,,,,,,,,,,1,001,2024-08-23_14h32.51.399,IAT(Formal),2021.2.3,Win32,120.105693,,,,,,,,,,,,,,,,,,,,,,,,,,,,,,,,,,,,,,,,,,,,,,,,,,,,俺,i,,,i,1,0.5954,1,42,122,64,1,,
,,,,,,,,,,,,,,1,001,2024-08-23_14h32.51.399,IAT(Formal),2021.2.3,Win32,120.105693,,,,,,,,,,,,,,,,,,,,,,,,,,,,,,,,,,,,,,,,,,,,,,,,,,,,他们,e,,,e,1,0.6424,1,43,123,76,1,,
,,,,,,,,,,,,,,1,001,2024-08-23_14h32.51.399,IAT(Formal),2021.2.3,Win32,120.105693,,,,,,,,,,,,,,,,,,,,,,,,,,,,,,,,,,,,,,,,,,,,,,,,,,,,勇敢,e,,,e,1,0.9881,1,44,124,17,1,,
,,,,,,,,,,,,,,1,001,2024-08-23_14h32.51.399,IAT(Formal),2021.2.3,Win32,120.105693,,,,,,,,,,,,,,,,,,,,,,,,,,,,,,,,,,,,,,,,,,,,,,,,,,,,俺,i,,,i,1,0.7022,1,45,125,54,1,,
,,,,,,,,,,,,,,1,001,2024-08-23_14h32.51.399,IAT(Formal),2021.2.3,Win32,120.105693,,,,,,,,,,,,,,,,,,,,,,,,,,,,,,,,,,,,,,,,,,,,,,,,,,,,虚伪,i,,,i,1,1.3056,1,46,126,31,1,,
,,,,,,,,,,,,,,1,001,2024-08-23_14h32.51.399,IAT(Formal),2021.2.3,Win32,120.105693,,,,,,,,,,,,,,,,,,,,,,,,,,,,,,,,,,,,,,,,,,,,,,,,,,,,自己,i,,,e,0,0.5001,1,47,127,3,1,,
,,,,,,,,,,,,,,1,001,2024-08-23_14h32.51.399,IAT(Formal),2021.2.3,Win32,120.105693,,,,,,,,,,,,,,,,,,,,,,,,,,,,,,,,,,,,,,,,,,,,,,,,,,,,他人,e,,,e,1,0.5096,1,48,128,68,1,,
,,,,,,,,,,,,,,1,001,2024-08-23_14h32.51.399,IAT(Formal),2021.2.3,Win32,120.105693,,,,,,,,,,,,,,,,,,,,,,,,,,,,,,,,,,,,,,,,,,,,,,,,,,,,公正,e,,,e,1,0.9745,1,49,129,23,1,,
,,,,,,,,,,,,,,1,001,2024-08-23_14h32.51.399,IAT(Formal),2021.2.3,Win32,120.105693,,,,,,,,,,,,,,,,,,,,,,,,,,,,,,,,,,,,,,,,,,,,,,,,,,,,活泼,e,,,e,1,0.6473,1,50,130,28,1,,
,,,,,,,,,,,,,,1,001,2024-08-23_14h32.51.399,IAT(Formal),2021.2.3,Win32,120.105693,,,,,,,,,,,,,,,,,,,,,,,,,,,,,,,,,,,,,,,,,,,,,,,,,,,,认真,e,,,e,1,0.6237,1,51,131,20,1,,
,,,,,,,,,,,,,,1,001,2024-08-23_14h32.51.399,IAT(Formal),2021.2.3,Win32,120.105693,,,,,,,,,,,,,,,,,,,,,,,,,,,,,,,,,,,,,,,,,,,,,,,,,,,,消极,i,,,i,1,0.5921,1,52,132,35,1,,
,,,,,,,,,,,,,,1,001,2024-08-23_14h32.51.399,IAT(Formal),2021.2.3,Win32,120.105693,,,,,,,,,,,,,,,,,,,,,,,,,,,,,,,,,,,,,,,,,,,,,,,,,,,,执拗,i,,,i,1,0.6715,1,53,133,40,1,,
,,,,,,,,,,,,,,1,001,2024-08-23_14h32.51.399,IAT(Formal),2021.2.3,Win32,120.105693,,,,,,,,,,,,,,,,,,,,,,,,,,,,,,,,,,,,,,,,,,,,,,,,,,,,我们,i,,,i,1,0.8252,1,54,134,62,1,,
,,,,,,,,,,,,,,1,001,2024-08-23_14h32.51.399,IAT(Formal),2021.2.3,Win32,120.105693,,,,,,,,,,,,,,,,,,,,,,,,,,,,,,,,,,,,,,,,,,,,,,,,,,,,凶狠,i,,,i,1,0.7399,1,55,135,42,1,,
,,,,,,,,,,,,,,1,001,2024-08-23_14h32.51.399,IAT(Formal),2021.2.3,Win32,120.105693,,,,,,,,,,,,,,,,,,,,,,,,,,,,,,,,,,,,,,,,,,,,,,,,,,,,自己,i,,,e,0,0.5984,1,56,136,53,1,,
,,,,,,,,,,,,,,1,001,2024-08-23_14h32.51.399,IAT(Formal),2021.2.3,Win32,120.105693,,,,,,,,,,,,,,,,,,,,,,,,,,,,,,,,,,,,,,,,,,,,,,,,,,,,其他,e,,,e,1,0.6345,1,57,137,9,1,,
,,,,,,,,,,,,,,1,001,2024-08-23_14h32.51.399,IAT(Formal),2021.2.3,Win32,120.105693,,,,,,,,,,,,,,,,,,,,,,,,,,,,,,,,,,,,,,,,,,,,,,,,,,,,我的,i,,,i,1,0.5051,1,58,138,71,1,,
,,,,,,,,,,,,,,1,001,2024-08-23_14h32.51.399,IAT(Formal),2021.2.3,Win32,120.105693,,,,,,,,,,,,,,,,,,,,,,,,,,,,,,,,,,,,,,,,,,,,,,,,,,,,傲慢,i,,,i,1,0.634,1,59,139,37,1,,
,,,,,,,,,,,,,,1,001,2024-08-23_14h32.51.399,IAT(Formal),2021.2.3,Win32,120.105693,,,,,,,,,,,,,,,,,,,,,,,,,,,,,,,,,,,,,,,,,,,,,,,,,,,,我们,i,,,i,1,0.6316,1,60,140,72,1,,
,,,,,,,,,,,,,,1,001,2024-08-23_14h32.51.399,IAT(Formal),2021.2.3,Win32,120.105693,,,,,,,,,,,,,,,,,,,,,,,,,,,,,,,,,,,,,,,,,,,,,,,,,,,,俺,i,,,i,1,0.5936,1,61,141,74,1,,
,,,,,,,,,,,,,,1,001,2024-08-23_14h32.51.399,IAT(Formal),2021.2.3,Win32,120.105693,,,,,,,,,,,,,,,,,,,,,,,,,,,,,,,,,,,,,,,,,,,,,,,,,,,,其他,e,,,e,1,0.5801,1,62,142,69,1,,
,,,,,,,,,,,,,,1,001,2024-08-23_14h32.51.399,IAT(Formal),2021.2.3,Win32,120.105693,,,,,,,,,,,,,,,,,,,,,,,,,,,,,,,,,,,,,,,,,,,,,,,,,,,,我们,i,,,i,1,0.5262,1,63,143,2,1,,
,,,,,,,,,,,,,,1,001,2024-08-23_14h32.51.399,IAT(Formal),2021.2.3,Win32,120.105693,,,,,,,,,,,,,,,,,,,,,,,,,,,,,,,,,,,,,,,,,,,,,,,,,,,,聪明,e,,,e,1,0.7815,1,64,144,12,1,,
,,,,,,,,,,,,,,1,001,2024-08-23_14h32.51.399,IAT(Formal),2021.2.3,Win32,120.105693,,,,,,,,,,,,,,,,,,,,,,,,,,,,,,,,,,,,,,,,,,,,,,,,,,,,他,e,,,i,0,0.4913,1,65,145,55,1,,
,,,,,,,,,,,,,,1,001,2024-08-23_14h32.51.399,IAT(Formal),2021.2.3,Win32,120.105693,,,,,,,,,,,,,,,,,,,,,,,,,,,,,,,,,,,,,,,,,,,,,,,,,,,,杰出,e,,,e,1,0.6311,1,66,146,13,1,,
,,,,,,,,,,,,,,1,001,2024-08-23_14h32.51.399,IAT(Formal),2021.2.3,Win32,120.105693,,,,,,,,,,,,,,,,,,,,,,,,,,,,,,,,,,,,,,,,,,,,,,,,,,,,悲观,i,,,i,1,1.0308,1,67,147,34,1,,
,,,,,,,,,,,,,,1,001,2024-08-23_14h32.51.399,IAT(Formal),2021.2.3,Win32,120.105693,,,,,,,,,,,,,,,,,,,,,,,,,,,,,,,,,,,,,,,,,,,,,,,,,,,,野蛮,i,,,i,1,0.5735,1,68,148,46,1,,
,,,,,,,,,,,,,,1,001,2024-08-23_14h32.51.399,IAT(Formal),2021.2.3,Win32,120.105693,,,,,,,,,,,,,,,,,,,,,,,,,,,,,,,,,,,,,,,,,,,,,,,,,,,,散漫,i,,,i,1,0.4979,1,69,149,41,1,,
,,,,,,,,,,,,,,1,001,2024-08-23_14h32.51.399,IAT(Formal),2021.2.3,Win32,120.105693,,,,,,,,,,,,,,,,,,,,,,,,,,,,,,,,,,,,,,,,,,,,,,,,,,,,乐观,e,,,e,1,0.5733,1,70,150,14,1,,
,,,,,,,,,,,,,,1,001,2024-08-23_14h32.51.399,IAT(Formal),2021.2.3,Win32,120.105693,,,,,,,,,,,,,,,,,,,,,,,,,,,,,,,,,,,,,,,,,,,,,,,,,,,,他们,e,,,i,0,0.8914,1,71,151,56,1,,
,,,,,,,,,,,,,,1,001,2024-08-23_14h32.51.399,IAT(Formal),2021.2.3,Win32,120.105693,,,,,,,,,,,,,,,,,,,,,,,,,,,,,,,,,,,,,,,,,,,,,,,,,,,,他人,e,,,e,1,0.5427,1,72,152,58,1,,
,,,,,,,,,,,,,,1,001,2024-08-23_14h32.51.399,IAT(Formal),2021.2.3,Win32,120.105693,,,,,,,,,,,,,,,,,,,,,,,,,,,,,,,,,,,,,,,,,,,,,,,,,,,,我,i,,,i,1,0.4999,1,73,153,0,1,,
,,,,,,,,,,,,,,1,001,2024-08-23_14h32.51.399,IAT(Formal),2021.2.3,Win32,120.105693,,,,,,,,,,,,,,,,,,,,,,,,,,,,,,,,,,,,,,,,,,,,,,,,,,,,他的,e,,,e,1,0.5153,1,74,154,77,1,,
,,,,,,,,,,,,,,1,001,2024-08-23_14h32.51.399,IAT(Formal),2021.2.3,Win32,120.105693,,,,,,,,,,,,,,,,,,,,,,,,,,,,,,,,,,,,,,,,,,,,,,,,,,,,我的,i,,,i,1,0.5673,1,75,155,1,1,,
,,,,,,,,,,,,,,1,001,2024-08-23_14h32.51.399,IAT(Formal),2021.2.3,Win32,120.105693,,,,,,,,,,,,,,,,,,,,,,,,,,,,,,,,,,,,,,,,,,,,,,,,,,,,我的,i,,,i,1,0.7394,1,76,156,61,1,,
,,,,,,,,,,,,,,1,001,2024-08-23_14h32.51.399,IAT(Formal),2021.2.3,Win32,120.105693,,,,,,,,,,,,,,,,,,,,,,,,,,,,,,,,,,,,,,,,,,,,,,,,,,,,轻率,i,,,i,1,0.6575,1,77,157,48,1,,
,,,,,,,,,,,,,,1,001,2024-08-23_14h32.51.399,IAT(Formal),2021.2.3,Win32,120.105693,,,,,,,,,,,,,,,,,,,,,,,,,,,,,,,,,,,,,,,,,,,,,,,,,,,,固执,i,,,i,1,0.7549,1,78,158,47,1,,
,,,,,,,,,,,,,,1,001,2024-08-23_14h32.51.399,IAT(Formal),2021.2.3,Win32,120.105693,,,,,,,,,,,,,,,,,,,,,,,,,,,,,,,,,,,,,,,,,,,,,,,,,,,,自私,i,,,i,1,0.4901,1,79,159,43,1,,
,,,,,,,,,,,,,,1,001,2024-08-23_14h32.51.399,IAT(Formal),2021.2.3,Win32,120.105693,,,,,,,,,,,,,,,,,,,,,,,,,,,,,,,,,,,,,,,,,,,,,,,,,,,,,,,,,,,,,,,,space,3.4525