"X.Instruction1.keys","Instruction1.rt","Instruction2.keys","Instruction2.rt","key_resp_iso.keys","key_resp_iso.corr","key_resp_iso.rt","Practice_01.thisRepN","Practice_01.thisTrialN","Practice_01.thisN","Practice_01.thisIndex","Practice_01.ran","Words","ans","participant","session","date","expName","psychopyVersion","OS","frameRate","key_resp_3.keys","key_resp_3.rt","key_resp_ipn.keys","key_resp_ipn.corr","key_resp_ipn.rt","Practice_02.thisRepN","Practice_02.thisTrialN","Practice_02.thisN","Practice_02.thisIndex","Practice_02.ran","Words_ipn","ans_ipn","key_resp_4.keys","key_resp_4.rt","key_resp_t1.keys","key_resp_t1.corr","key_resp_t1.rt","Practice_T1.thisRepN","Practice_T1.thisTrialN","Practice_T1.thisN","Practice_T1.thisIndex","Practice_T1.ran","Words_t1","ans_t1","key_resp_5.keys","key_resp_5.rt","Formal_T1.thisRepN","Formal_T1.thisTrialN","Formal_T1.thisN","Formal_T1.thisIndex","Formal_T1.ran","key_resp_6.keys","key_resp_6.rt","key_resp_iso_reverse.keys","key_resp_iso_reverse.corr","key_resp_iso_reverse.rt","Practice_iso_Reverse.thisRepN","Practice_iso_Reverse.thisTrialN","Practice_iso_Reverse.thisN","Practice_iso_Reverse.thisIndex","Practice_iso_Reverse.ran","key_resp_7.keys","key_resp_7.rt","key_resp_t2_Practice.keys","key_resp_t2_Practice.corr","key_resp_t2_Practice.rt","Practice_t2_Reverse.thisRepN","Practice_t2_Reverse.thisTrialN","Practice_t2_Reverse.thisN","Practice_t2_Reverse.thisIndex","Practice_t2_Reverse.ran","Words_t2","ans_t2","key_resp_8.keys","key_resp_8.rt","key_resp_t2.keys","key_resp_t2.corr","key_resp_t2.rt","Formal_t2_reverse.thisRepN","Formal_t2_reverse.thisTrialN","Formal_t2_reverse.thisN","Formal_t2_reverse.thisIndex","Formal_t2_reverse.ran","key_instruct.keys","key_instruct.rt","Subject"
"space",3.1579,"space",8.6848,"e",1,0.5959,0,0,0,1,1,"我的","e",1,1,"2024-08-23_14h32.51.399","IAT(Formal)","2021.2.3","Win32",120.105693,"",NA,"",NA,NA,NA,NA,NA,NA,NA,"","","",NA,"",NA,NA,NA,NA,NA,NA,NA,"","","",NA,NA,NA,NA,NA,NA,"",NA,"",NA,NA,NA,NA,NA,NA,NA,"",NA,"",NA,NA,NA,NA,NA,NA,NA,"","","",NA,"",NA,NA,NA,NA,NA,NA,NA,"",NA,"8"
"",NA,"",NA,"i",1,0.4167,0,1,1,8,1,"他人","i",1,1,"2024-08-23_14h32.51.399","IAT(Formal)","2021.2.3","Win32",120.105693,"",NA,"",NA,NA,NA,NA,NA,NA,NA,"","","",NA,"",NA,NA,NA,NA,NA,NA,NA,"","","",NA,NA,NA,NA,NA,NA,"",NA,"",NA,NA,NA,NA,NA,NA,NA,"",NA,"",NA,NA,NA,NA,NA,NA,NA,"","","",NA,"",NA,NA,NA,NA,NA,NA,NA,"",NA,"8"
"",NA,"",NA,"e",1,0.4839,0,2,2,3,1,"自己","e",1,1,"2024-08-23_14h32.51.399","IAT(Formal)","2021.2.3","Win32",120.105693,"",NA,"",NA,NA,NA,NA,NA,NA,NA,"","","",NA,"",NA,NA,NA,NA,NA,NA,NA,"","","",NA,NA,NA,NA,NA,NA,"",NA,"",NA,NA,NA,NA,NA,NA,NA,"",NA,"",NA,NA,NA,NA,NA,NA,NA,"","","",NA,"",NA,NA,NA,NA,NA,NA,NA,"",NA,"8"
"",NA,"",NA,"e",1,0.4918,0,3,3,0,1,"我","e",1,1,"2024-08-23_14h32.51.399","IAT(Formal)","2021.2.3","Win32",120.105693,"",NA,"",NA,NA,NA,NA,NA,NA,NA,"","","",NA,"",NA,NA,NA,NA,NA,NA,NA,"","","",NA,NA,NA,NA,NA,NA,"",NA,"",NA,NA,NA,NA,NA,NA,NA,"",NA,"",NA,NA,NA,NA,NA,NA,NA,"","","",NA,"",NA,NA,NA,NA,NA,NA,NA,"",NA,"8"
"",NA,"",NA,"i",1,0.484,0,4,4,9,1,"其他","i",1,1,"2024-08-23_14h32.51.399","IAT(Formal)","2021.2.3","Win32",120.105693,"",NA,"",NA,NA,NA,NA,NA,NA,NA,"","","",NA,"",NA,NA,NA,NA,NA,NA,NA,"","","",NA,NA,NA,NA,NA,NA,"",NA,"",NA,NA,NA,NA,NA,NA,NA,"",NA,"",NA,NA,NA,NA,NA,NA,NA,"","","",NA,"",NA,NA,NA,NA,NA,NA,NA,"",NA,"8"
"",NA,"",NA,"i",1,0.472,0,5,5,7,1,"他的","i",1,1,"2024-08-23_14h32.51.399","IAT(Formal)","2021.2.3","Win32",120.105693,"",NA,"",NA,NA,NA,NA,NA,NA,NA,"","","",NA,"",NA,NA,NA,NA,NA,NA,NA,"","","",NA,NA,NA,NA,NA,NA,"",NA,"",NA,NA,NA,NA,NA,NA,NA,"",NA,"",NA,NA,NA,NA,NA,NA,NA,"","","",NA,"",NA,NA,NA,NA,NA,NA,NA,"",NA,"8"
"",NA,"",NA,"i",1,0.3988,0,6,6,6,1,"他们","i",1,1,"2024-08-23_14h32.51.399","IAT(Formal)","2021.2.3","Win32",120.105693,"",NA,"",NA,NA,NA,NA,NA,NA,NA,"","","",NA,"",NA,NA,NA,NA,NA,NA,NA,"","","",NA,NA,NA,NA,NA,NA,"",NA,"",NA,NA,NA,NA,NA,NA,NA,"",NA,"",NA,NA,NA,NA,NA,NA,NA,"","","",NA,"",NA,NA,NA,NA,NA,NA,NA,"",NA,"8"
"",NA,"",NA,"e",1,0.4272,0,7,7,2,1,"我们","e",1,1,"2024-08-23_14h32.51.399","IAT(Formal)","2021.2.3","Win32",120.105693,"",NA,"",NA,NA,NA,NA,NA,NA,NA,"","","",NA,"",NA,NA,NA,NA,NA,NA,NA,"","","",NA,NA,NA,NA,NA,NA,"",NA,"",NA,NA,NA,NA,NA,NA,NA,"",NA,"",NA,NA,NA,NA,NA,NA,NA,"","","",NA,"",NA,NA,NA,NA,NA,NA,NA,"",NA,"8"
"",NA,"",NA,"e",1,0.6422,0,8,8,4,1,"俺","e",1,1,"2024-08-23_14h32.51.399","IAT(Formal)","2021.2.3","Win32",120.105693,"",NA,"",NA,NA,NA,NA,NA,NA,NA,"","","",NA,"",NA,NA,NA,NA,NA,NA,NA,"","","",NA,NA,NA,NA,NA,NA,"",NA,"",NA,NA,NA,NA,NA,NA,NA,"",NA,"",NA,NA,NA,NA,NA,NA,NA,"","","",NA,"",NA,NA,NA,NA,NA,NA,NA,"",NA,"8"
"",NA,"",NA,"i",1,0.4014,0,9,9,5,1,"他","i",1,1,"2024-08-23_14h32.51.399","IAT(Formal)","2021.2.3","Win32",120.105693,"",NA,"",NA,NA,NA,NA,NA,NA,NA,"","","",NA,"",NA,NA,NA,NA,NA,NA,NA,"","","",NA,NA,NA,NA,NA,NA,"",NA,"",NA,NA,NA,NA,NA,NA,NA,"",NA,"",NA,NA,NA,NA,NA,NA,NA,"","","",NA,"",NA,NA,NA,NA,NA,NA,NA,"",NA,"8"
"",NA,"",NA,"",NA,NA,NA,NA,NA,NA,NA,"","",1,1,"2024-08-23_14h32.51.399","IAT(Formal)","2021.2.3","Win32",120.105693,"space",2.683,"i",1,0.7315,0,0,0,26,1,"自卑","i","",NA,"",NA,NA,NA,NA,NA,NA,NA,"","","",NA,NA,NA,NA,NA,NA,"",NA,"",NA,NA,NA,NA,NA,NA,NA,"",NA,"",NA,NA,NA,NA,NA,NA,NA,"","","",NA,"",NA,NA,NA,NA,NA,NA,NA,"",NA,"8"
"",NA,"",NA,"",NA,NA,NA,NA,NA,NA,NA,"","",1,1,"2024-08-23_14h32.51.399","IAT(Formal)","2021.2.3","Win32",120.105693,"",NA,"e",1,0.4102,0,1,1,4,1,"乐观","e","",NA,"",NA,NA,NA,NA,NA,NA,NA,"","","",NA,NA,NA,NA,NA,NA,"",NA,"",NA,NA,NA,NA,NA,NA,NA,"",NA,"",NA,NA,NA,NA,NA,NA,NA,"","","",NA,"",NA,NA,NA,NA,NA,NA,NA,"",NA,"8"
"",NA,"",NA,"",NA,NA,NA,NA,NA,NA,NA,"","",1,1,"2024-08-23_14h32.51.399","IAT(Formal)","2021.2.3","Win32",120.105693,"",NA,"e",1,0.5977,0,2,2,2,1,"聪明","e","",NA,"",NA,NA,NA,NA,NA,NA,NA,"","","",NA,NA,NA,NA,NA,NA,"",NA,"",NA,NA,NA,NA,NA,NA,NA,"",NA,"",NA,NA,NA,NA,NA,NA,NA,"","","",NA,"",NA,NA,NA,NA,NA,NA,NA,"",NA,"8"
"",NA,"",NA,"",NA,NA,NA,NA,NA,NA,NA,"","",1,1,"2024-08-23_14h32.51.399","IAT(Formal)","2021.2.3","Win32",120.105693,"",NA,"i",1,0.7124,0,3,3,22,1,"愚蠢","i","",NA,"",NA,NA,NA,NA,NA,NA,NA,"","","",NA,NA,NA,NA,NA,NA,"",NA,"",NA,NA,NA,NA,NA,NA,NA,"",NA,"",NA,NA,NA,NA,NA,NA,NA,"","","",NA,"",NA,NA,NA,NA,NA,NA,NA,"",NA,"8"
"",NA,"",NA,"",NA,NA,NA,NA,NA,NA,NA,"","",1,1,"2024-08-23_14h32.51.399","IAT(Formal)","2021.2.3","Win32",120.105693,"",NA,"e",1,0.4798,0,4,4,8,1,"勤奋","e","",NA,"",NA,NA,NA,NA,NA,NA,NA,"","","",NA,NA,NA,NA,NA,NA,"",NA,"",NA,NA,NA,NA,NA,NA,NA,"",NA,"",NA,NA,NA,NA,NA,NA,NA,"","","",NA,"",NA,NA,NA,NA,NA,NA,NA,"",NA,"8"
"",NA,"",NA,"",NA,NA,NA,NA,NA,NA,NA,"","",1,1,"2024-08-23_14h32.51.399","IAT(Formal)","2021.2.3","Win32",120.105693,"",NA,"e",1,0.485,0,5,5,16,1,"冷静","e","",NA,"",NA,NA,NA,NA,NA,NA,NA,"","","",NA,NA,NA,NA,NA,NA,"",NA,"",NA,NA,NA,NA,NA,NA,NA,"",NA,"",NA,NA,NA,NA,NA,NA,NA,"","","",NA,"",NA,NA,NA,NA,NA,NA,NA,"",NA,"8"
"",NA,"",NA,"",NA,NA,NA,NA,NA,NA,NA,"","",1,1,"2024-08-23_14h32.51.399","IAT(Formal)","2021.2.3","Win32",120.105693,"",NA,"e",1,0.5096,0,6,6,18,1,"活泼","e","",NA,"",NA,NA,NA,NA,NA,NA,NA,"","","",NA,NA,NA,NA,NA,NA,"",NA,"",NA,NA,NA,NA,NA,NA,NA,"",NA,"",NA,NA,NA,NA,NA,NA,NA,"","","",NA,"",NA,NA,NA,NA,NA,NA,NA,"",NA,"8"
"",NA,"",NA,"",NA,NA,NA,NA,NA,NA,NA,"","",1,1,"2024-08-23_14h32.51.399","IAT(Formal)","2021.2.3","Win32",120.105693,"",NA,"e",1,0.4875,0,7,7,0,1,"优秀","e","",NA,"",NA,NA,NA,NA,NA,NA,NA,"","","",NA,NA,NA,NA,NA,NA,"",NA,"",NA,NA,NA,NA,NA,NA,NA,"",NA,"",NA,NA,NA,NA,NA,NA,NA,"","","",NA,"",NA,NA,NA,NA,NA,NA,NA,"",NA,"8"
"",NA,"",NA,"",NA,NA,NA,NA,NA,NA,NA,"","",1,1,"2024-08-23_14h32.51.399","IAT(Formal)","2021.2.3","Win32",120.105693,"",NA,"e",0,0.4898,0,8,8,28,1,"鲁莽","i","",NA,"",NA,NA,NA,NA,NA,NA,NA,"","","",NA,NA,NA,NA,NA,NA,"",NA,"",NA,NA,NA,NA,NA,NA,NA,"",NA,"",NA,NA,NA,NA,NA,NA,NA,"","","",NA,"",NA,NA,NA,NA,NA,NA,NA,"",NA,"8"
"",NA,"",NA,"",NA,NA,NA,NA,NA,NA,NA,"","",1,1,"2024-08-23_14h32.51.399","IAT(Formal)","2021.2.3","Win32",120.105693,"",NA,"i",1,0.5205,0,9,9,24,1,"悲观","i","",NA,"",NA,NA,NA,NA,NA,NA,NA,"","","",NA,NA,NA,NA,NA,NA,"",NA,"",NA,NA,NA,NA,NA,NA,NA,"",NA,"",NA,NA,NA,NA,NA,NA,NA,"","","",NA,"",NA,NA,NA,NA,NA,NA,NA,"",NA,"8"
"",NA,"",NA,"",NA,NA,NA,NA,NA,NA,NA,"","",1,1,"2024-08-23_14h32.51.399","IAT(Formal)","2021.2.3","Win32",120.105693,"",NA,"i",1,0.5947,0,10,10,32,1,"凶狠","i","",NA,"",NA,NA,NA,NA,NA,NA,NA,"","","",NA,NA,NA,NA,NA,NA,"",NA,"",NA,NA,NA,NA,NA,NA,NA,"",NA,"",NA,NA,NA,NA,NA,NA,NA,"","","",NA,"",NA,NA,NA,NA,NA,NA,NA,"",NA,"8"
"",NA,"",NA,"",NA,NA,NA,NA,NA,NA,NA,"","",1,1,"2024-08-23_14h32.51.399","IAT(Formal)","2021.2.3","Win32",120.105693,"",NA,"e",1,0.5768,0,11,11,7,1,"勇敢","e","",NA,"",NA,NA,NA,NA,NA,NA,NA,"","","",NA,NA,NA,NA,NA,NA,"",NA,"",NA,NA,NA,NA,NA,NA,NA,"",NA,"",NA,NA,NA,NA,NA,NA,NA,"","","",NA,"",NA,NA,NA,NA,NA,NA,NA,"",NA,"8"
"",NA,"",NA,"",NA,NA,NA,NA,NA,NA,NA,"","",1,1,"2024-08-23_14h32.51.399","IAT(Formal)","2021.2.3","Win32",120.105693,"",NA,"e",1,0.532,0,12,12,6,1,"正直","e","",NA,"",NA,NA,NA,NA,NA,NA,NA,"","","",NA,NA,NA,NA,NA,NA,"",NA,"",NA,NA,NA,NA,NA,NA,NA,"",NA,"",NA,NA,NA,NA,NA,NA,NA,"","","",NA,"",NA,NA,NA,NA,NA,NA,NA,"",NA,"8"
"",NA,"",NA,"",NA,NA,NA,NA,NA,NA,NA,"","",1,1,"2024-08-23_14h32.51.399","IAT(Formal)","2021.2.3","Win32",120.105693,"",NA,"e",0,1.2787,0,13,13,30,1,"执拗","i","",NA,"",NA,NA,NA,NA,NA,NA,NA,"","","",NA,NA,NA,NA,NA,NA,"",NA,"",NA,NA,NA,NA,NA,NA,NA,"",NA,"",NA,NA,NA,NA,NA,NA,NA,"","","",NA,"",NA,NA,NA,NA,NA,NA,NA,"",NA,"8"
"",NA,"",NA,"",NA,NA,NA,NA,NA,NA,NA,"","",1,1,"2024-08-23_14h32.51.399","IAT(Formal)","2021.2.3","Win32",120.105693,"",NA,"i",1,0.8225,0,14,14,23,1,"刻薄","i","",NA,"",NA,NA,NA,NA,NA,NA,NA,"","","",NA,NA,NA,NA,NA,NA,"",NA,"",NA,NA,NA,NA,NA,NA,NA,"",NA,"",NA,NA,NA,NA,NA,NA,NA,"","","",NA,"",NA,NA,NA,NA,NA,NA,NA,"",NA,"8"
"",NA,"",NA,"",NA,NA,NA,NA,NA,NA,NA,"","",1,1,"2024-08-23_14h32.51.399","IAT(Formal)","2021.2.3","Win32",120.105693,"",NA,"i",1,1.1808,0,15,15,31,1,"散漫","i","",NA,"",NA,NA,NA,NA,NA,NA,NA,"","","",NA,NA,NA,NA,NA,NA,"",NA,"",NA,NA,NA,NA,NA,NA,NA,"",NA,"",NA,NA,NA,NA,NA,NA,NA,"","","",NA,"",NA,NA,NA,NA,NA,NA,NA,"",NA,"8"
"",NA,"",NA,"",NA,NA,NA,NA,NA,NA,NA,"","",1,1,"2024-08-23_14h32.51.399","IAT(Formal)","2021.2.3","Win32",120.105693,"",NA,"i",1,0.5115,0,16,16,27,1,"傲慢","i","",NA,"",NA,NA,NA,NA,NA,NA,NA,"","","",NA,NA,NA,NA,NA,NA,"",NA,"",NA,NA,NA,NA,NA,NA,NA,"",NA,"",NA,NA,NA,NA,NA,NA,NA,"","","",NA,"",NA,NA,NA,NA,NA,NA,NA,"",NA,"8"
"",NA,"",NA,"",NA,NA,NA,NA,NA,NA,NA,"","",1,1,"2024-08-23_14h32.51.399","IAT(Formal)","2021.2.3","Win32",120.105693,"",NA,"i",1,0.4831,0,17,17,37,1,"固执","i","",NA,"",NA,NA,NA,NA,NA,NA,NA,"","","",NA,NA,NA,NA,NA,NA,"",NA,"",NA,NA,NA,NA,NA,NA,NA,"",NA,"",NA,NA,NA,NA,NA,NA,NA,"","","",NA,"",NA,NA,NA,NA,NA,NA,NA,"",NA,"8"
"",NA,"",NA,"",NA,NA,NA,NA,NA,NA,NA,"","",1,1,"2024-08-23_14h32.51.399","IAT(Formal)","2021.2.3","Win32",120.105693,"",NA,"i",1,0.5713,0,18,18,39,1,"下贱","i","",NA,"",NA,NA,NA,NA,NA,NA,NA,"","","",NA,NA,NA,NA,NA,NA,"",NA,"",NA,NA,NA,NA,NA,NA,NA,"",NA,"",NA,NA,NA,NA,NA,NA,NA,"","","",NA,"",NA,NA,NA,NA,NA,NA,NA,"",NA,"8"
"",NA,"",NA,"",NA,NA,NA,NA,NA,NA,NA,"","",1,1,"2024-08-23_14h32.51.399","IAT(Formal)","2021.2.3","Win32",120.105693,"",NA,"e",1,0.5768,0,19,19,5,1,"诚实","e","",NA,"",NA,NA,NA,NA,NA,NA,NA,"","","",NA,NA,NA,NA,NA,NA,"",NA,"",NA,NA,NA,NA,NA,NA,NA,"",NA,"",NA,NA,NA,NA,NA,NA,NA,"","","",NA,"",NA,NA,NA,NA,NA,NA,NA,"",NA,"8"
"",NA,"",NA,"",NA,NA,NA,NA,NA,NA,NA,"","",1,1,"2024-08-23_14h32.51.399","IAT(Formal)","2021.2.3","Win32",120.105693,"",NA,"i",1,0.8606,0,20,20,35,1,"猖狂","i","",NA,"",NA,NA,NA,NA,NA,NA,NA,"","","",NA,NA,NA,NA,NA,NA,"",NA,"",NA,NA,NA,NA,NA,NA,NA,"",NA,"",NA,NA,NA,NA,NA,NA,NA,"","","",NA,"",NA,NA,NA,NA,NA,NA,NA,"",NA,"8"
"",NA,"",NA,"",NA,NA,NA,NA,NA,NA,NA,"","",1,1,"2024-08-23_14h32.51.399","IAT(Formal)","2021.2.3","Win32",120.105693,"",NA,"i",1,0.8903,0,21,21,36,1,"野蛮","i","",NA,"",NA,NA,NA,NA,NA,NA,NA,"","","",NA,NA,NA,NA,NA,NA,"",NA,"",NA,NA,NA,NA,NA,NA,NA,"",NA,"",NA,NA,NA,NA,NA,NA,NA,"","","",NA,"",NA,NA,NA,NA,NA,NA,NA,"",NA,"8"
"",NA,"",NA,"",NA,NA,NA,NA,NA,NA,NA,"","",1,1,"2024-08-23_14h32.51.399","IAT(Formal)","2021.2.3","Win32",120.105693,"",NA,"e",1,0.5418,0,22,22,3,1,"杰出","e","",NA,"",NA,NA,NA,NA,NA,NA,NA,"","","",NA,NA,NA,NA,NA,NA,"",NA,"",NA,NA,NA,NA,NA,NA,NA,"",NA,"",NA,NA,NA,NA,NA,NA,NA,"","","",NA,"",NA,NA,NA,NA,NA,NA,NA,"",NA,"8"
"",NA,"",NA,"",NA,NA,NA,NA,NA,NA,NA,"","",1,1,"2024-08-23_14h32.51.399","IAT(Formal)","2021.2.3","Win32",120.105693,"",NA,"e",1,0.4971,0,23,23,11,1,"稳重","e","",NA,"",NA,NA,NA,NA,NA,NA,NA,"","","",NA,NA,NA,NA,NA,NA,"",NA,"",NA,NA,NA,NA,NA,NA,NA,"",NA,"",NA,NA,NA,NA,NA,NA,NA,"","","",NA,"",NA,NA,NA,NA,NA,NA,NA,"",NA,"8"
"",NA,"",NA,"",NA,NA,NA,NA,NA,NA,NA,"","",1,1,"2024-08-23_14h32.51.399","IAT(Formal)","2021.2.3","Win32",120.105693,"",NA,"e",1,0.6903,0,24,24,13,1,"公正","e","",NA,"",NA,NA,NA,NA,NA,NA,NA,"","","",NA,NA,NA,NA,NA,NA,"",NA,"",NA,NA,NA,NA,NA,NA,NA,"",NA,"",NA,NA,NA,NA,NA,NA,NA,"","","",NA,"",NA,NA,NA,NA,NA,NA,NA,"",NA,"8"
"",NA,"",NA,"",NA,NA,NA,NA,NA,NA,NA,"","",1,1,"2024-08-23_14h32.51.399","IAT(Formal)","2021.2.3","Win32",120.105693,"",NA,"i",1,0.5362,0,25,25,20,1,"卑鄙","i","",NA,"",NA,NA,NA,NA,NA,NA,NA,"","","",NA,NA,NA,NA,NA,NA,"",NA,"",NA,NA,NA,NA,NA,NA,NA,"",NA,"",NA,NA,NA,NA,NA,NA,NA,"","","",NA,"",NA,NA,NA,NA,NA,NA,NA,"",NA,"8"
"",NA,"",NA,"",NA,NA,NA,NA,NA,NA,NA,"","",1,1,"2024-08-23_14h32.51.399","IAT(Formal)","2021.2.3","Win32",120.105693,"",NA,"e",1,0.7545,0,26,26,12,1,"无私","e","",NA,"",NA,NA,NA,NA,NA,NA,NA,"","","",NA,NA,NA,NA,NA,NA,"",NA,"",NA,NA,NA,NA,NA,NA,NA,"",NA,"",NA,NA,NA,NA,NA,NA,NA,"","","",NA,"",NA,NA,NA,NA,NA,NA,NA,"",NA,"8"
"",NA,"",NA,"",NA,NA,NA,NA,NA,NA,NA,"","",1,1,"2024-08-23_14h32.51.399","IAT(Formal)","2021.2.3","Win32",120.105693,"",NA,"i",1,0.5707,0,27,27,21,1,"虚伪","i","",NA,"",NA,NA,NA,NA,NA,NA,NA,"","","",NA,NA,NA,NA,NA,NA,"",NA,"",NA,NA,NA,NA,NA,NA,NA,"",NA,"",NA,NA,NA,NA,NA,NA,NA,"","","",NA,"",NA,NA,NA,NA,NA,NA,NA,"",NA,"8"
"",NA,"",NA,"",NA,NA,NA,NA,NA,NA,NA,"","",1,1,"2024-08-23_14h32.51.399","IAT(Formal)","2021.2.3","Win32",120.105693,"",NA,"e",1,0.5571,0,28,28,14,1,"朴实","e","",NA,"",NA,NA,NA,NA,NA,NA,NA,"","","",NA,NA,NA,NA,NA,NA,"",NA,"",NA,NA,NA,NA,NA,NA,NA,"",NA,"",NA,NA,NA,NA,NA,NA,NA,"","","",NA,"",NA,NA,NA,NA,NA,NA,NA,"",NA,"8"
"",NA,"",NA,"",NA,NA,NA,NA,NA,NA,NA,"","",1,1,"2024-08-23_14h32.51.399","IAT(Formal)","2021.2.3","Win32",120.105693,"",NA,"i",1,0.6799,0,29,29,33,1,"自私","i","",NA,"",NA,NA,NA,NA,NA,NA,NA,"","","",NA,NA,NA,NA,NA,NA,"",NA,"",NA,NA,NA,NA,NA,NA,NA,"",NA,"",NA,NA,NA,NA,NA,NA,NA,"","","",NA,"",NA,NA,NA,NA,NA,NA,NA,"",NA,"8"
"",NA,"",NA,"",NA,NA,NA,NA,NA,NA,NA,"","",1,1,"2024-08-23_14h32.51.399","IAT(Formal)","2021.2.3","Win32",120.105693,"",NA,"e",1,0.4855,0,30,30,10,1,"认真","e","",NA,"",NA,NA,NA,NA,NA,NA,NA,"","","",NA,NA,NA,NA,NA,NA,"",NA,"",NA,NA,NA,NA,NA,NA,NA,"",NA,"",NA,NA,NA,NA,NA,NA,NA,"","","",NA,"",NA,NA,NA,NA,NA,NA,NA,"",NA,"8"
"",NA,"",NA,"",NA,NA,NA,NA,NA,NA,NA,"","",1,1,"2024-08-23_14h32.51.399","IAT(Formal)","2021.2.3","Win32",120.105693,"",NA,"e",1,0.5183,0,31,31,9,1,"机智","e","",NA,"",NA,NA,NA,NA,NA,NA,NA,"","","",NA,NA,NA,NA,NA,NA,"",NA,"",NA,NA,NA,NA,NA,NA,NA,"",NA,"",NA,NA,NA,NA,NA,NA,NA,"","","",NA,"",NA,NA,NA,NA,NA,NA,NA,"",NA,"8"
"",NA,"",NA,"",NA,NA,NA,NA,NA,NA,NA,"","",1,1,"2024-08-23_14h32.51.399","IAT(Formal)","2021.2.3","Win32",120.105693,"",NA,"e",1,1.1727,0,32,32,15,1,"细腻","e","",NA,"",NA,NA,NA,NA,NA,NA,NA,"","","",NA,NA,NA,NA,NA,NA,"",NA,"",NA,NA,NA,NA,NA,NA,NA,"",NA,"",NA,NA,NA,NA,NA,NA,NA,"","","",NA,"",NA,NA,NA,NA,NA,NA,NA,"",NA,"8"
"",NA,"",NA,"",NA,NA,NA,NA,NA,NA,NA,"","",1,1,"2024-08-23_14h32.51.399","IAT(Formal)","2021.2.3","Win32",120.105693,"",NA,"e",1,0.4609,0,33,33,17,1,"热情","e","",NA,"",NA,NA,NA,NA,NA,NA,NA,"","","",NA,NA,NA,NA,NA,NA,"",NA,"",NA,NA,NA,NA,NA,NA,NA,"",NA,"",NA,NA,NA,NA,NA,NA,NA,"","","",NA,"",NA,NA,NA,NA,NA,NA,NA,"",NA,"8"
"",NA,"",NA,"",NA,NA,NA,NA,NA,NA,NA,"","",1,1,"2024-08-23_14h32.51.399","IAT(Formal)","2021.2.3","Win32",120.105693,"",NA,"i",1,0.5058,0,34,34,34,1,"暴躁","i","",NA,"",NA,NA,NA,NA,NA,NA,NA,"","","",NA,NA,NA,NA,NA,NA,"",NA,"",NA,NA,NA,NA,NA,NA,NA,"",NA,"",NA,NA,NA,NA,NA,NA,NA,"","","",NA,"",NA,NA,NA,NA,NA,NA,NA,"",NA,"8"
"",NA,"",NA,"",NA,NA,NA,NA,NA,NA,NA,"","",1,1,"2024-08-23_14h32.51.399","IAT(Formal)","2021.2.3","Win32",120.105693,"",NA,"e",1,0.6489,0,35,35,1,1,"崇高","e","",NA,"",NA,NA,NA,NA,NA,NA,NA,"","","",NA,NA,NA,NA,NA,NA,"",NA,"",NA,NA,NA,NA,NA,NA,NA,"",NA,"",NA,NA,NA,NA,NA,NA,NA,"","","",NA,"",NA,NA,NA,NA,NA,NA,NA,"",NA,"8"
"",NA,"",NA,"",NA,NA,NA,NA,NA,NA,NA,"","",1,1,"2024-08-23_14h32.51.399","IAT(Formal)","2021.2.3","Win32",120.105693,"",NA,"e",1,0.5,0,36,36,19,1,"诚恳","e","",NA,"",NA,NA,NA,NA,NA,NA,NA,"","","",NA,NA,NA,NA,NA,NA,"",NA,"",NA,NA,NA,NA,NA,NA,NA,"",NA,"",NA,NA,NA,NA,NA,NA,NA,"","","",NA,"",NA,NA,NA,NA,NA,NA,NA,"",NA,"8"
"",NA,"",NA,"",NA,NA,NA,NA,NA,NA,NA,"","",1,1,"2024-08-23_14h32.51.399","IAT(Formal)","2021.2.3","Win32",120.105693,"",NA,"i",1,0.6631,0,37,37,38,1,"轻率","i","",NA,"",NA,NA,NA,NA,NA,NA,NA,"","","",NA,NA,NA,NA,NA,NA,"",NA,"",NA,NA,NA,NA,NA,NA,NA,"",NA,"",NA,NA,NA,NA,NA,NA,NA,"","","",NA,"",NA,NA,NA,NA,NA,NA,NA,"",NA,"8"
"",NA,"",NA,"",NA,NA,NA,NA,NA,NA,NA,"","",1,1,"2024-08-23_14h32.51.399","IAT(Formal)","2021.2.3","Win32",120.105693,"",NA,"i",1,0.5463,0,38,38,29,1,"冒失","i","",NA,"",NA,NA,NA,NA,NA,NA,NA,"","","",NA,NA,NA,NA,NA,NA,"",NA,"",NA,NA,NA,NA,NA,NA,NA,"",NA,"",NA,NA,NA,NA,NA,NA,NA,"","","",NA,"",NA,NA,NA,NA,NA,NA,NA,"",NA,"8"
"",NA,"",NA,"",NA,NA,NA,NA,NA,NA,NA,"","",1,1,"2024-08-23_14h32.51.399","IAT(Formal)","2021.2.3","Win32",120.105693,"",NA,"i",1,0.4384,0,39,39,25,1,"消极","i","",NA,"",NA,NA,NA,NA,NA,NA,NA,"","","",NA,NA,NA,NA,NA,NA,"",NA,"",NA,NA,NA,NA,NA,NA,NA,"",NA,"",NA,NA,NA,NA,NA,NA,NA,"","","",NA,"",NA,NA,NA,NA,NA,NA,NA,"",NA,"8"
"",NA,"",NA,"",NA,NA,NA,NA,NA,NA,NA,"","",1,1,"2024-08-23_14h32.51.399","IAT(Formal)","2021.2.3","Win32",120.105693,"",NA,"",NA,NA,NA,NA,NA,NA,NA,"","","space",3.1559,"i",1,0.9763,0,0,0,41,1,"散漫","i","",NA,NA,NA,NA,NA,NA,"",NA,"",NA,NA,NA,NA,NA,NA,NA,"",NA,"",NA,NA,NA,NA,NA,NA,NA,"","","",NA,"",NA,NA,NA,NA,NA,NA,NA,"",NA,"8"
"",NA,"",NA,"",NA,NA,NA,NA,NA,NA,NA,"","",1,1,"2024-08-23_14h32.51.399","IAT(Formal)","2021.2.3","Win32",120.105693,"",NA,"",NA,NA,NA,NA,NA,NA,NA,"","","",NA,"i",1,0.5825,0,1,1,76,1,"他们","i","",NA,NA,NA,NA,NA,NA,"",NA,"",NA,NA,NA,NA,NA,NA,NA,"",NA,"",NA,NA,NA,NA,NA,NA,NA,"","","",NA,"",NA,NA,NA,NA,NA,NA,NA,"",NA,"8"
"",NA,"",NA,"",NA,NA,NA,NA,NA,NA,NA,"","",1,1,"2024-08-23_14h32.51.399","IAT(Formal)","2021.2.3","Win32",120.105693,"",NA,"",NA,NA,NA,NA,NA,NA,NA,"","","",NA,"e",1,0.4557,0,2,2,1,1,"我的","e","",NA,NA,NA,NA,NA,NA,"",NA,"",NA,NA,NA,NA,NA,NA,NA,"",NA,"",NA,NA,NA,NA,NA,NA,NA,"","","",NA,"",NA,NA,NA,NA,NA,NA,NA,"",NA,"8"
"",NA,"",NA,"",NA,NA,NA,NA,NA,NA,NA,"","",1,1,"2024-08-23_14h32.51.399","IAT(Formal)","2021.2.3","Win32",120.105693,"",NA,"",NA,NA,NA,NA,NA,NA,NA,"","","",NA,"e",1,0.4806,0,3,3,20,1,"认真","e","",NA,NA,NA,NA,NA,NA,"",NA,"",NA,NA,NA,NA,NA,NA,NA,"",NA,"",NA,NA,NA,NA,NA,NA,NA,"","","",NA,"",NA,NA,NA,NA,NA,NA,NA,"",NA,"8"
"",NA,"",NA,"",NA,NA,NA,NA,NA,NA,NA,"","",1,1,"2024-08-23_14h32.51.399","IAT(Formal)","2021.2.3","Win32",120.105693,"",NA,"",NA,NA,NA,NA,NA,NA,NA,"","","",NA,"i",1,0.8157,0,4,4,36,1,"自卑","i","",NA,NA,NA,NA,NA,NA,"",NA,"",NA,NA,NA,NA,NA,NA,NA,"",NA,"",NA,NA,NA,NA,NA,NA,NA,"","","",NA,"",NA,NA,NA,NA,NA,NA,NA,"",NA,"8"
"",NA,"",NA,"",NA,NA,NA,NA,NA,NA,NA,"","",1,1,"2024-08-23_14h32.51.399","IAT(Formal)","2021.2.3","Win32",120.105693,"",NA,"",NA,NA,NA,NA,NA,NA,NA,"","","",NA,"e",1,0.4511,0,5,5,72,1,"我们","e","",NA,NA,NA,NA,NA,NA,"",NA,"",NA,NA,NA,NA,NA,NA,NA,"",NA,"",NA,NA,NA,NA,NA,NA,NA,"","","",NA,"",NA,NA,NA,NA,NA,NA,NA,"",NA,"8"
"",NA,"",NA,"",NA,NA,NA,NA,NA,NA,NA,"","",1,1,"2024-08-23_14h32.51.399","IAT(Formal)","2021.2.3","Win32",120.105693,"",NA,"",NA,NA,NA,NA,NA,NA,NA,"","","",NA,"e",1,0.5482,0,6,6,3,1,"自己","e","",NA,NA,NA,NA,NA,NA,"",NA,"",NA,NA,NA,NA,NA,NA,NA,"",NA,"",NA,NA,NA,NA,NA,NA,NA,"","","",NA,"",NA,NA,NA,NA,NA,NA,NA,"",NA,"8"
"",NA,"",NA,"",NA,NA,NA,NA,NA,NA,NA,"","",1,1,"2024-08-23_14h32.51.399","IAT(Formal)","2021.2.3","Win32",120.105693,"",NA,"",NA,NA,NA,NA,NA,NA,NA,"","","",NA,"e",1,0.7652,0,7,7,15,1,"诚实","e","",NA,NA,NA,NA,NA,NA,"",NA,"",NA,NA,NA,NA,NA,NA,NA,"",NA,"",NA,NA,NA,NA,NA,NA,NA,"","","",NA,"",NA,NA,NA,NA,NA,NA,NA,"",NA,"8"
"",NA,"",NA,"",NA,NA,NA,NA,NA,NA,NA,"","",1,1,"2024-08-23_14h32.51.399","IAT(Formal)","2021.2.3","Win32",120.105693,"",NA,"",NA,NA,NA,NA,NA,NA,NA,"","","",NA,"e",1,0.6011,0,8,8,70,1,"我","e","",NA,NA,NA,NA,NA,NA,"",NA,"",NA,NA,NA,NA,NA,NA,NA,"",NA,"",NA,NA,NA,NA,NA,NA,NA,"","","",NA,"",NA,NA,NA,NA,NA,NA,NA,"",NA,"8"
"",NA,"",NA,"",NA,NA,NA,NA,NA,NA,NA,"","",1,1,"2024-08-23_14h32.51.399","IAT(Formal)","2021.2.3","Win32",120.105693,"",NA,"",NA,NA,NA,NA,NA,NA,NA,"","","",NA,"i",1,0.9161,0,9,9,66,1,"他们","i","",NA,NA,NA,NA,NA,NA,"",NA,"",NA,NA,NA,NA,NA,NA,NA,"",NA,"",NA,NA,NA,NA,NA,NA,NA,"","","",NA,"",NA,NA,NA,NA,NA,NA,NA,"",NA,"8"
"",NA,"",NA,"",NA,NA,NA,NA,NA,NA,NA,"","",1,1,"2024-08-23_14h32.51.399","IAT(Formal)","2021.2.3","Win32",120.105693,"",NA,"",NA,NA,NA,NA,NA,NA,NA,"","","",NA,"e",1,0.5211,0,10,10,26,1,"冷静","e","",NA,NA,NA,NA,NA,NA,"",NA,"",NA,NA,NA,NA,NA,NA,NA,"",NA,"",NA,NA,NA,NA,NA,NA,NA,"","","",NA,"",NA,NA,NA,NA,NA,NA,NA,"",NA,"8"
"",NA,"",NA,"",NA,NA,NA,NA,NA,NA,NA,"","",1,1,"2024-08-23_14h32.51.399","IAT(Formal)","2021.2.3","Win32",120.105693,"",NA,"",NA,NA,NA,NA,NA,NA,NA,"","","",NA,"e",1,0.5688,0,11,11,2,1,"我们","e","",NA,NA,NA,NA,NA,NA,"",NA,"",NA,NA,NA,NA,NA,NA,NA,"",NA,"",NA,NA,NA,NA,NA,NA,NA,"","","",NA,"",NA,NA,NA,NA,NA,NA,NA,"",NA,"8"
"",NA,"",NA,"",NA,NA,NA,NA,NA,NA,NA,"","",1,1,"2024-08-23_14h32.51.399","IAT(Formal)","2021.2.3","Win32",120.105693,"",NA,"",NA,NA,NA,NA,NA,NA,NA,"","","",NA,"e",1,0.5275,0,12,12,74,1,"俺","e","",NA,NA,NA,NA,NA,NA,"",NA,"",NA,NA,NA,NA,NA,NA,NA,"",NA,"",NA,NA,NA,NA,NA,NA,NA,"","","",NA,"",NA,NA,NA,NA,NA,NA,NA,"",NA,"8"
"",NA,"",NA,"",NA,NA,NA,NA,NA,NA,NA,"","",1,1,"2024-08-23_14h32.51.399","IAT(Formal)","2021.2.3","Win32",120.105693,"",NA,"",NA,NA,NA,NA,NA,NA,NA,"","","",NA,"e",1,0.4925,0,13,13,21,1,"稳重","e","",NA,NA,NA,NA,NA,NA,"",NA,"",NA,NA,NA,NA,NA,NA,NA,"",NA,"",NA,NA,NA,NA,NA,NA,NA,"","","",NA,"",NA,NA,NA,NA,NA,NA,NA,"",NA,"8"
"",NA,"",NA,"",NA,NA,NA,NA,NA,NA,NA,"","",1,1,"2024-08-23_14h32.51.399","IAT(Formal)","2021.2.3","Win32",120.105693,"",NA,"",NA,NA,NA,NA,NA,NA,NA,"","","",NA,"i",1,0.4832,0,14,14,38,1,"鲁莽","i","",NA,NA,NA,NA,NA,NA,"",NA,"",NA,NA,NA,NA,NA,NA,NA,"",NA,"",NA,NA,NA,NA,NA,NA,NA,"","","",NA,"",NA,NA,NA,NA,NA,NA,NA,"",NA,"8"
"",NA,"",NA,"",NA,NA,NA,NA,NA,NA,NA,"","",1,1,"2024-08-23_14h32.51.399","IAT(Formal)","2021.2.3","Win32",120.105693,"",NA,"",NA,NA,NA,NA,NA,NA,NA,"","","",NA,"i",1,0.6668,0,15,15,67,1,"他的","i","",NA,NA,NA,NA,NA,NA,"",NA,"",NA,NA,NA,NA,NA,NA,NA,"",NA,"",NA,NA,NA,NA,NA,NA,NA,"","","",NA,"",NA,NA,NA,NA,NA,NA,NA,"",NA,"8"
"",NA,"",NA,"",NA,NA,NA,NA,NA,NA,NA,"","",1,1,"2024-08-23_14h32.51.399","IAT(Formal)","2021.2.3","Win32",120.105693,"",NA,"",NA,NA,NA,NA,NA,NA,NA,"","","",NA,"e",1,0.5756,0,16,16,22,1,"无私","e","",NA,NA,NA,NA,NA,NA,"",NA,"",NA,NA,NA,NA,NA,NA,NA,"",NA,"",NA,NA,NA,NA,NA,NA,NA,"","","",NA,"",NA,NA,NA,NA,NA,NA,NA,"",NA,"8"
"",NA,"",NA,"",NA,NA,NA,NA,NA,NA,NA,"","",1,1,"2024-08-23_14h32.51.399","IAT(Formal)","2021.2.3","Win32",120.105693,"",NA,"",NA,NA,NA,NA,NA,NA,NA,"","","",NA,"e",1,0.5586,0,17,17,28,1,"活泼","e","",NA,NA,NA,NA,NA,NA,"",NA,"",NA,NA,NA,NA,NA,NA,NA,"",NA,"",NA,NA,NA,NA,NA,NA,NA,"","","",NA,"",NA,NA,NA,NA,NA,NA,NA,"",NA,"8"
"",NA,"",NA,"",NA,NA,NA,NA,NA,NA,NA,"","",1,1,"2024-08-23_14h32.51.399","IAT(Formal)","2021.2.3","Win32",120.105693,"",NA,"",NA,NA,NA,NA,NA,NA,NA,"","","",NA,"e",1,0.5756,0,18,18,25,1,"细腻","e","",NA,NA,NA,NA,NA,NA,"",NA,"",NA,NA,NA,NA,NA,NA,NA,"",NA,"",NA,NA,NA,NA,NA,NA,NA,"","","",NA,"",NA,NA,NA,NA,NA,NA,NA,"",NA,"8"
"",NA,"",NA,"",NA,NA,NA,NA,NA,NA,NA,"","",1,1,"2024-08-23_14h32.51.399","IAT(Formal)","2021.2.3","Win32",120.105693,"",NA,"",NA,NA,NA,NA,NA,NA,NA,"","","",NA,"i",1,0.6006,0,19,19,47,1,"固执","i","",NA,NA,NA,NA,NA,NA,"",NA,"",NA,NA,NA,NA,NA,NA,NA,"",NA,"",NA,NA,NA,NA,NA,NA,NA,"","","",NA,"",NA,NA,NA,NA,NA,NA,NA,"",NA,"8"
"",NA,"",NA,"",NA,NA,NA,NA,NA,NA,NA,"","",1,1,"2024-08-23_14h32.51.399","IAT(Formal)","2021.2.3","Win32",120.105693,"",NA,"",NA,NA,NA,NA,NA,NA,NA,"","","",NA,"e",1,0.5671,0,20,20,63,1,"自己","e","",NA,NA,NA,NA,NA,NA,"",NA,"",NA,NA,NA,NA,NA,NA,NA,"",NA,"",NA,NA,NA,NA,NA,NA,NA,"","","",NA,"",NA,NA,NA,NA,NA,NA,NA,"",NA,"8"
"",NA,"",NA,"",NA,NA,NA,NA,NA,NA,NA,"","",1,1,"2024-08-23_14h32.51.399","IAT(Formal)","2021.2.3","Win32",120.105693,"",NA,"",NA,NA,NA,NA,NA,NA,NA,"","","",NA,"i",1,0.7263,0,21,21,44,1,"暴躁","i","",NA,NA,NA,NA,NA,NA,"",NA,"",NA,NA,NA,NA,NA,NA,NA,"",NA,"",NA,NA,NA,NA,NA,NA,NA,"","","",NA,"",NA,NA,NA,NA,NA,NA,NA,"",NA,"8"
"",NA,"",NA,"",NA,NA,NA,NA,NA,NA,NA,"","",1,1,"2024-08-23_14h32.51.399","IAT(Formal)","2021.2.3","Win32",120.105693,"",NA,"",NA,NA,NA,NA,NA,NA,NA,"","","",NA,"e",0,0.4786,0,22,22,8,1,"他人","i","",NA,NA,NA,NA,NA,NA,"",NA,"",NA,NA,NA,NA,NA,NA,NA,"",NA,"",NA,NA,NA,NA,NA,NA,NA,"","","",NA,"",NA,NA,NA,NA,NA,NA,NA,"",NA,"8"
"",NA,"",NA,"",NA,NA,NA,NA,NA,NA,NA,"","",1,1,"2024-08-23_14h32.51.399","IAT(Formal)","2021.2.3","Win32",120.105693,"",NA,"",NA,NA,NA,NA,NA,NA,NA,"","","",NA,"e",1,0.5839,0,23,23,60,1,"我","e","",NA,NA,NA,NA,NA,NA,"",NA,"",NA,NA,NA,NA,NA,NA,NA,"",NA,"",NA,NA,NA,NA,NA,NA,NA,"","","",NA,"",NA,NA,NA,NA,NA,NA,NA,"",NA,"8"
"",NA,"",NA,"",NA,NA,NA,NA,NA,NA,NA,"","",1,1,"2024-08-23_14h32.51.399","IAT(Formal)","2021.2.3","Win32",120.105693,"",NA,"",NA,NA,NA,NA,NA,NA,NA,"","","",NA,"e",1,0.5418,0,24,24,4,1,"俺","e","",NA,NA,NA,NA,NA,NA,"",NA,"",NA,NA,NA,NA,NA,NA,NA,"",NA,"",NA,NA,NA,NA,NA,NA,NA,"","","",NA,"",NA,NA,NA,NA,NA,NA,NA,"",NA,"8"
"",NA,"",NA,"",NA,NA,NA,NA,NA,NA,NA,"","",1,1,"2024-08-23_14h32.51.399","IAT(Formal)","2021.2.3","Win32",120.105693,"",NA,"",NA,NA,NA,NA,NA,NA,NA,"","","",NA,"e",1,0.6759,0,25,25,23,1,"公正","e","",NA,NA,NA,NA,NA,NA,"",NA,"",NA,NA,NA,NA,NA,NA,NA,"",NA,"",NA,NA,NA,NA,NA,NA,NA,"","","",NA,"",NA,NA,NA,NA,NA,NA,NA,"",NA,"8"
"",NA,"",NA,"",NA,NA,NA,NA,NA,NA,NA,"","",1,1,"2024-08-23_14h32.51.399","IAT(Formal)","2021.2.3","Win32",120.105693,"",NA,"",NA,NA,NA,NA,NA,NA,NA,"","","",NA,"i",1,0.6922,0,26,26,30,1,"卑鄙","i","",NA,NA,NA,NA,NA,NA,"",NA,"",NA,NA,NA,NA,NA,NA,NA,"",NA,"",NA,NA,NA,NA,NA,NA,NA,"","","",NA,"",NA,NA,NA,NA,NA,NA,NA,"",NA,"8"
"",NA,"",NA,"",NA,NA,NA,NA,NA,NA,NA,"","",1,1,"2024-08-23_14h32.51.399","IAT(Formal)","2021.2.3","Win32",120.105693,"",NA,"",NA,NA,NA,NA,NA,NA,NA,"","","",NA,"e",1,0.6177,0,27,27,18,1,"勤奋","e","",NA,NA,NA,NA,NA,NA,"",NA,"",NA,NA,NA,NA,NA,NA,NA,"",NA,"",NA,NA,NA,NA,NA,NA,NA,"","","",NA,"",NA,NA,NA,NA,NA,NA,NA,"",NA,"8"
"",NA,"",NA,"",NA,NA,NA,NA,NA,NA,NA,"","",1,1,"2024-08-23_14h32.51.399","IAT(Formal)","2021.2.3","Win32",120.105693,"",NA,"",NA,NA,NA,NA,NA,NA,NA,"","","",NA,"e",1,0.576,0,28,28,10,1,"优秀","e","",NA,NA,NA,NA,NA,NA,"",NA,"",NA,NA,NA,NA,NA,NA,NA,"",NA,"",NA,NA,NA,NA,NA,NA,NA,"","","",NA,"",NA,NA,NA,NA,NA,NA,NA,"",NA,"8"
"",NA,"",NA,"",NA,NA,NA,NA,NA,NA,NA,"","",1,1,"2024-08-23_14h32.51.399","IAT(Formal)","2021.2.3","Win32",120.105693,"",NA,"",NA,NA,NA,NA,NA,NA,NA,"","","",NA,"i",1,0.5507,0,29,29,49,1,"下贱","i","",NA,NA,NA,NA,NA,NA,"",NA,"",NA,NA,NA,NA,NA,NA,NA,"",NA,"",NA,NA,NA,NA,NA,NA,NA,"","","",NA,"",NA,NA,NA,NA,NA,NA,NA,"",NA,"8"
"",NA,"",NA,"",NA,NA,NA,NA,NA,NA,NA,"","",1,1,"2024-08-23_14h32.51.399","IAT(Formal)","2021.2.3","Win32",120.105693,"",NA,"",NA,NA,NA,NA,NA,NA,NA,"","","",NA,"i",1,0.6171,0,30,30,31,1,"虚伪","i","",NA,NA,NA,NA,NA,NA,"",NA,"",NA,NA,NA,NA,NA,NA,NA,"",NA,"",NA,NA,NA,NA,NA,NA,NA,"","","",NA,"",NA,NA,NA,NA,NA,NA,NA,"",NA,"8"
"",NA,"",NA,"",NA,NA,NA,NA,NA,NA,NA,"","",1,1,"2024-08-23_14h32.51.399","IAT(Formal)","2021.2.3","Win32",120.105693,"",NA,"",NA,NA,NA,NA,NA,NA,NA,"","","",NA,"i",1,0.5701,0,31,31,35,1,"消极","i","",NA,NA,NA,NA,NA,NA,"",NA,"",NA,NA,NA,NA,NA,NA,NA,"",NA,"",NA,NA,NA,NA,NA,NA,NA,"","","",NA,"",NA,NA,NA,NA,NA,NA,NA,"",NA,"8"
"",NA,"",NA,"",NA,NA,NA,NA,NA,NA,NA,"","",1,1,"2024-08-23_14h32.51.399","IAT(Formal)","2021.2.3","Win32",120.105693,"",NA,"",NA,NA,NA,NA,NA,NA,NA,"","","",NA,"i",1,0.7858,0,32,32,39,1,"冒失","i","",NA,NA,NA,NA,NA,NA,"",NA,"",NA,NA,NA,NA,NA,NA,NA,"",NA,"",NA,NA,NA,NA,NA,NA,NA,"","","",NA,"",NA,NA,NA,NA,NA,NA,NA,"",NA,"8"
"",NA,"",NA,"",NA,NA,NA,NA,NA,NA,NA,"","",1,1,"2024-08-23_14h32.51.399","IAT(Formal)","2021.2.3","Win32",120.105693,"",NA,"",NA,NA,NA,NA,NA,NA,NA,"","","",NA,"i",1,0.5421,0,33,33,40,1,"执拗","i","",NA,NA,NA,NA,NA,NA,"",NA,"",NA,NA,NA,NA,NA,NA,NA,"",NA,"",NA,NA,NA,NA,NA,NA,NA,"","","",NA,"",NA,NA,NA,NA,NA,NA,NA,"",NA,"8"
"",NA,"",NA,"",NA,NA,NA,NA,NA,NA,NA,"","",1,1,"2024-08-23_14h32.51.399","IAT(Formal)","2021.2.3","Win32",120.105693,"",NA,"",NA,NA,NA,NA,NA,NA,NA,"","","",NA,"i",1,0.8169,0,34,34,58,1,"他人","i","",NA,NA,NA,NA,NA,NA,"",NA,"",NA,NA,NA,NA,NA,NA,NA,"",NA,"",NA,NA,NA,NA,NA,NA,NA,"","","",NA,"",NA,NA,NA,NA,NA,NA,NA,"",NA,"8"
"",NA,"",NA,"",NA,NA,NA,NA,NA,NA,NA,"","",1,1,"2024-08-23_14h32.51.399","IAT(Formal)","2021.2.3","Win32",120.105693,"",NA,"",NA,NA,NA,NA,NA,NA,NA,"","","",NA,"i",1,0.6006,0,35,35,33,1,"刻薄","i","",NA,NA,NA,NA,NA,NA,"",NA,"",NA,NA,NA,NA,NA,NA,NA,"",NA,"",NA,NA,NA,NA,NA,NA,NA,"","","",NA,"",NA,NA,NA,NA,NA,NA,NA,"",NA,"8"
"",NA,"",NA,"",NA,NA,NA,NA,NA,NA,NA,"","",1,1,"2024-08-23_14h32.51.399","IAT(Formal)","2021.2.3","Win32",120.105693,"",NA,"",NA,NA,NA,NA,NA,NA,NA,"","","",NA,"e",1,0.5041,0,36,36,62,1,"我们","e","",NA,NA,NA,NA,NA,NA,"",NA,"",NA,NA,NA,NA,NA,NA,NA,"",NA,"",NA,NA,NA,NA,NA,NA,NA,"","","",NA,"",NA,NA,NA,NA,NA,NA,NA,"",NA,"8"
"",NA,"",NA,"",NA,NA,NA,NA,NA,NA,NA,"","",1,1,"2024-08-23_14h32.51.399","IAT(Formal)","2021.2.3","Win32",120.105693,"",NA,"",NA,NA,NA,NA,NA,NA,NA,"","","",NA,"e",1,0.5523,0,37,37,53,1,"自己","e","",NA,NA,NA,NA,NA,NA,"",NA,"",NA,NA,NA,NA,NA,NA,NA,"",NA,"",NA,NA,NA,NA,NA,NA,NA,"","","",NA,"",NA,NA,NA,NA,NA,NA,NA,"",NA,"8"
"",NA,"",NA,"",NA,NA,NA,NA,NA,NA,NA,"","",1,1,"2024-08-23_14h32.51.399","IAT(Formal)","2021.2.3","Win32",120.105693,"",NA,"",NA,NA,NA,NA,NA,NA,NA,"","","",NA,"e",1,0.5236,0,38,38,71,1,"我的","e","",NA,NA,NA,NA,NA,NA,"",NA,"",NA,NA,NA,NA,NA,NA,NA,"",NA,"",NA,NA,NA,NA,NA,NA,NA,"","","",NA,"",NA,NA,NA,NA,NA,NA,NA,"",NA,"8"
"",NA,"",NA,"",NA,NA,NA,NA,NA,NA,NA,"","",1,1,"2024-08-23_14h32.51.399","IAT(Formal)","2021.2.3","Win32",120.105693,"",NA,"",NA,NA,NA,NA,NA,NA,NA,"","","",NA,"e",1,1.0072,0,39,39,27,1,"热情","e","",NA,NA,NA,NA,NA,NA,"",NA,"",NA,NA,NA,NA,NA,NA,NA,"",NA,"",NA,NA,NA,NA,NA,NA,NA,"","","",NA,"",NA,NA,NA,NA,NA,NA,NA,"",NA,"8"
"",NA,"",NA,"",NA,NA,NA,NA,NA,NA,NA,"","",1,1,"2024-08-23_14h32.51.399","IAT(Formal)","2021.2.3","Win32",120.105693,"",NA,"",NA,NA,NA,NA,NA,NA,NA,"","","",NA,"i",1,0.5592,0,40,40,57,1,"他的","i","",NA,NA,NA,NA,NA,NA,"",NA,"",NA,NA,NA,NA,NA,NA,NA,"",NA,"",NA,NA,NA,NA,NA,NA,NA,"","","",NA,"",NA,NA,NA,NA,NA,NA,NA,"",NA,"8"
"",NA,"",NA,"",NA,NA,NA,NA,NA,NA,NA,"","",1,1,"2024-08-23_14h32.51.399","IAT(Formal)","2021.2.3","Win32",120.105693,"",NA,"",NA,NA,NA,NA,NA,NA,NA,"","","",NA,"e",1,0.8446,0,41,41,14,1,"乐观","e","",NA,NA,NA,NA,NA,NA,"",NA,"",NA,NA,NA,NA,NA,NA,NA,"",NA,"",NA,NA,NA,NA,NA,NA,NA,"","","",NA,"",NA,NA,NA,NA,NA,NA,NA,"",NA,"8"
"",NA,"",NA,"",NA,NA,NA,NA,NA,NA,NA,"","",1,1,"2024-08-23_14h32.51.399","IAT(Formal)","2021.2.3","Win32",120.105693,"",NA,"",NA,NA,NA,NA,NA,NA,NA,"","","",NA,"i",1,0.6918,0,42,42,9,1,"其他","i","",NA,NA,NA,NA,NA,NA,"",NA,"",NA,NA,NA,NA,NA,NA,NA,"",NA,"",NA,NA,NA,NA,NA,NA,NA,"","","",NA,"",NA,NA,NA,NA,NA,NA,NA,"",NA,"8"
"",NA,"",NA,"",NA,NA,NA,NA,NA,NA,NA,"","",1,1,"2024-08-23_14h32.51.399","IAT(Formal)","2021.2.3","Win32",120.105693,"",NA,"",NA,NA,NA,NA,NA,NA,NA,"","","",NA,"e",1,0.7501,0,43,43,19,1,"机智","e","",NA,NA,NA,NA,NA,NA,"",NA,"",NA,NA,NA,NA,NA,NA,NA,"",NA,"",NA,NA,NA,NA,NA,NA,NA,"","","",NA,"",NA,NA,NA,NA,NA,NA,NA,"",NA,"8"
"",NA,"",NA,"",NA,NA,NA,NA,NA,NA,NA,"","",1,1,"2024-08-23_14h32.51.399","IAT(Formal)","2021.2.3","Win32",120.105693,"",NA,"",NA,NA,NA,NA,NA,NA,NA,"","","",NA,"i",1,0.5489,0,44,44,46,1,"野蛮","i","",NA,NA,NA,NA,NA,NA,"",NA,"",NA,NA,NA,NA,NA,NA,NA,"",NA,"",NA,NA,NA,NA,NA,NA,NA,"","","",NA,"",NA,NA,NA,NA,NA,NA,NA,"",NA,"8"
"",NA,"",NA,"",NA,NA,NA,NA,NA,NA,NA,"","",1,1,"2024-08-23_14h32.51.399","IAT(Formal)","2021.2.3","Win32",120.105693,"",NA,"",NA,NA,NA,NA,NA,NA,NA,"","","",NA,"i",1,0.5918,0,45,45,75,1,"他","i","",NA,NA,NA,NA,NA,NA,"",NA,"",NA,NA,NA,NA,NA,NA,NA,"",NA,"",NA,NA,NA,NA,NA,NA,NA,"","","",NA,"",NA,NA,NA,NA,NA,NA,NA,"",NA,"8"
"",NA,"",NA,"",NA,NA,NA,NA,NA,NA,NA,"","",1,1,"2024-08-23_14h32.51.399","IAT(Formal)","2021.2.3","Win32",120.105693,"",NA,"",NA,NA,NA,NA,NA,NA,NA,"","","",NA,"e",1,0.494,0,46,46,61,1,"我的","e","",NA,NA,NA,NA,NA,NA,"",NA,"",NA,NA,NA,NA,NA,NA,NA,"",NA,"",NA,NA,NA,NA,NA,NA,NA,"","","",NA,"",NA,NA,NA,NA,NA,NA,NA,"",NA,"8"
"",NA,"",NA,"",NA,NA,NA,NA,NA,NA,NA,"","",1,1,"2024-08-23_14h32.51.399","IAT(Formal)","2021.2.3","Win32",120.105693,"",NA,"",NA,NA,NA,NA,NA,NA,NA,"","","",NA,"i",1,0.542,0,47,47,45,1,"猖狂","i","",NA,NA,NA,NA,NA,NA,"",NA,"",NA,NA,NA,NA,NA,NA,NA,"",NA,"",NA,NA,NA,NA,NA,NA,NA,"","","",NA,"",NA,NA,NA,NA,NA,NA,NA,"",NA,"8"
"",NA,"",NA,"",NA,NA,NA,NA,NA,NA,NA,"","",1,1,"2024-08-23_14h32.51.399","IAT(Formal)","2021.2.3","Win32",120.105693,"",NA,"",NA,NA,NA,NA,NA,NA,NA,"","","",NA,"e",1,0.5592,0,48,48,16,1,"正直","e","",NA,NA,NA,NA,NA,NA,"",NA,"",NA,NA,NA,NA,NA,NA,NA,"",NA,"",NA,NA,NA,NA,NA,NA,NA,"","","",NA,"",NA,NA,NA,NA,NA,NA,NA,"",NA,"8"
"",NA,"",NA,"",NA,NA,NA,NA,NA,NA,NA,"","",1,1,"2024-08-23_14h32.51.399","IAT(Formal)","2021.2.3","Win32",120.105693,"",NA,"",NA,NA,NA,NA,NA,NA,NA,"","","",NA,"e",1,0.5764,0,49,49,0,1,"我","e","",NA,NA,NA,NA,NA,NA,"",NA,"",NA,NA,NA,NA,NA,NA,NA,"",NA,"",NA,NA,NA,NA,NA,NA,NA,"","","",NA,"",NA,NA,NA,NA,NA,NA,NA,"",NA,"8"
"",NA,"",NA,"",NA,NA,NA,NA,NA,NA,NA,"","",1,1,"2024-08-23_14h32.51.399","IAT(Formal)","2021.2.3","Win32",120.105693,"",NA,"",NA,NA,NA,NA,NA,NA,NA,"","","",NA,"i",1,0.9585,0,50,50,34,1,"悲观","i","",NA,NA,NA,NA,NA,NA,"",NA,"",NA,NA,NA,NA,NA,NA,NA,"",NA,"",NA,NA,NA,NA,NA,NA,NA,"","","",NA,"",NA,NA,NA,NA,NA,NA,NA,"",NA,"8"
"",NA,"",NA,"",NA,NA,NA,NA,NA,NA,NA,"","",1,1,"2024-08-23_14h32.51.399","IAT(Formal)","2021.2.3","Win32",120.105693,"",NA,"",NA,NA,NA,NA,NA,NA,NA,"","","",NA,"e",1,0.593,0,51,51,12,1,"聪明","e","",NA,NA,NA,NA,NA,NA,"",NA,"",NA,NA,NA,NA,NA,NA,NA,"",NA,"",NA,NA,NA,NA,NA,NA,NA,"","","",NA,"",NA,NA,NA,NA,NA,NA,NA,"",NA,"8"
"",NA,"",NA,"",NA,NA,NA,NA,NA,NA,NA,"","",1,1,"2024-08-23_14h32.51.399","IAT(Formal)","2021.2.3","Win32",120.105693,"",NA,"",NA,NA,NA,NA,NA,NA,NA,"","","",NA,"i",1,0.6246,0,52,52,55,1,"他","i","",NA,NA,NA,NA,NA,NA,"",NA,"",NA,NA,NA,NA,NA,NA,NA,"",NA,"",NA,NA,NA,NA,NA,NA,NA,"","","",NA,"",NA,NA,NA,NA,NA,NA,NA,"",NA,"8"
"",NA,"",NA,"",NA,NA,NA,NA,NA,NA,NA,"","",1,1,"2024-08-23_14h32.51.399","IAT(Formal)","2021.2.3","Win32",120.105693,"",NA,"",NA,NA,NA,NA,NA,NA,NA,"","","",NA,"e",1,0.534,0,53,53,73,1,"自己","e","",NA,NA,NA,NA,NA,NA,"",NA,"",NA,NA,NA,NA,NA,NA,NA,"",NA,"",NA,NA,NA,NA,NA,NA,NA,"","","",NA,"",NA,NA,NA,NA,NA,NA,NA,"",NA,"8"
"",NA,"",NA,"",NA,NA,NA,NA,NA,NA,NA,"","",1,1,"2024-08-23_14h32.51.399","IAT(Formal)","2021.2.3","Win32",120.105693,"",NA,"",NA,NA,NA,NA,NA,NA,NA,"","","",NA,"i",1,0.5286,0,54,54,6,1,"他们","i","",NA,NA,NA,NA,NA,NA,"",NA,"",NA,NA,NA,NA,NA,NA,NA,"",NA,"",NA,NA,NA,NA,NA,NA,NA,"","","",NA,"",NA,NA,NA,NA,NA,NA,NA,"",NA,"8"
"",NA,"",NA,"",NA,NA,NA,NA,NA,NA,NA,"","",1,1,"2024-08-23_14h32.51.399","IAT(Formal)","2021.2.3","Win32",120.105693,"",NA,"",NA,NA,NA,NA,NA,NA,NA,"","","",NA,"e",1,0.6115,0,55,55,64,1,"俺","e","",NA,NA,NA,NA,NA,NA,"",NA,"",NA,NA,NA,NA,NA,NA,NA,"",NA,"",NA,NA,NA,NA,NA,NA,NA,"","","",NA,"",NA,NA,NA,NA,NA,NA,NA,"",NA,"8"
"",NA,"",NA,"",NA,NA,NA,NA,NA,NA,NA,"","",1,1,"2024-08-23_14h32.51.399","IAT(Formal)","2021.2.3","Win32",120.105693,"",NA,"",NA,NA,NA,NA,NA,NA,NA,"","","",NA,"e",1,0.791,0,56,56,11,1,"崇高","e","",NA,NA,NA,NA,NA,NA,"",NA,"",NA,NA,NA,NA,NA,NA,NA,"",NA,"",NA,NA,NA,NA,NA,NA,NA,"","","",NA,"",NA,NA,NA,NA,NA,NA,NA,"",NA,"8"
"",NA,"",NA,"",NA,NA,NA,NA,NA,NA,NA,"","",1,1,"2024-08-23_14h32.51.399","IAT(Formal)","2021.2.3","Win32",120.105693,"",NA,"",NA,NA,NA,NA,NA,NA,NA,"","","",NA,"i",1,0.5494,0,57,57,48,1,"轻率","i","",NA,NA,NA,NA,NA,NA,"",NA,"",NA,NA,NA,NA,NA,NA,NA,"",NA,"",NA,NA,NA,NA,NA,NA,NA,"","","",NA,"",NA,NA,NA,NA,NA,NA,NA,"",NA,"8"
"",NA,"",NA,"",NA,NA,NA,NA,NA,NA,NA,"","",1,1,"2024-08-23_14h32.51.399","IAT(Formal)","2021.2.3","Win32",120.105693,"",NA,"",NA,NA,NA,NA,NA,NA,NA,"","","",NA,"i",1,0.6579,0,58,58,5,1,"他","i","",NA,NA,NA,NA,NA,NA,"",NA,"",NA,NA,NA,NA,NA,NA,NA,"",NA,"",NA,NA,NA,NA,NA,NA,NA,"","","",NA,"",NA,NA,NA,NA,NA,NA,NA,"",NA,"8"
"",NA,"",NA,"",NA,NA,NA,NA,NA,NA,NA,"","",1,1,"2024-08-23_14h32.51.399","IAT(Formal)","2021.2.3","Win32",120.105693,"",NA,"",NA,NA,NA,NA,NA,NA,NA,"","","",NA,"i",1,0.6742,0,59,59,69,1,"其他","i","",NA,NA,NA,NA,NA,NA,"",NA,"",NA,NA,NA,NA,NA,NA,NA,"",NA,"",NA,NA,NA,NA,NA,NA,NA,"","","",NA,"",NA,NA,NA,NA,NA,NA,NA,"",NA,"8"
"",NA,"",NA,"",NA,NA,NA,NA,NA,NA,NA,"","",1,1,"2024-08-23_14h32.51.399","IAT(Formal)","2021.2.3","Win32",120.105693,"",NA,"",NA,NA,NA,NA,NA,NA,NA,"","","",NA,"i",1,0.6066,0,60,60,42,1,"凶狠","i","",NA,NA,NA,NA,NA,NA,"",NA,"",NA,NA,NA,NA,NA,NA,NA,"",NA,"",NA,NA,NA,NA,NA,NA,NA,"","","",NA,"",NA,NA,NA,NA,NA,NA,NA,"",NA,"8"
"",NA,"",NA,"",NA,NA,NA,NA,NA,NA,NA,"","",1,1,"2024-08-23_14h32.51.399","IAT(Formal)","2021.2.3","Win32",120.105693,"",NA,"",NA,NA,NA,NA,NA,NA,NA,"","","",NA,"e",1,0.5744,0,61,61,50,1,"我","e","",NA,NA,NA,NA,NA,NA,"",NA,"",NA,NA,NA,NA,NA,NA,NA,"",NA,"",NA,NA,NA,NA,NA,NA,NA,"","","",NA,"",NA,NA,NA,NA,NA,NA,NA,"",NA,"8"
"",NA,"",NA,"",NA,NA,NA,NA,NA,NA,NA,"","",1,1,"2024-08-23_14h32.51.399","IAT(Formal)","2021.2.3","Win32",120.105693,"",NA,"",NA,NA,NA,NA,NA,NA,NA,"","","",NA,"e",1,0.9161,0,62,62,13,1,"杰出","e","",NA,NA,NA,NA,NA,NA,"",NA,"",NA,NA,NA,NA,NA,NA,NA,"",NA,"",NA,NA,NA,NA,NA,NA,NA,"","","",NA,"",NA,NA,NA,NA,NA,NA,NA,"",NA,"8"
"",NA,"",NA,"",NA,NA,NA,NA,NA,NA,NA,"","",1,1,"2024-08-23_14h32.51.399","IAT(Formal)","2021.2.3","Win32",120.105693,"",NA,"",NA,NA,NA,NA,NA,NA,NA,"","","",NA,"i",1,0.5337,0,63,63,7,1,"他的","i","",NA,NA,NA,NA,NA,NA,"",NA,"",NA,NA,NA,NA,NA,NA,NA,"",NA,"",NA,NA,NA,NA,NA,NA,NA,"","","",NA,"",NA,NA,NA,NA,NA,NA,NA,"",NA,"8"
"",NA,"",NA,"",NA,NA,NA,NA,NA,NA,NA,"","",1,1,"2024-08-23_14h32.51.399","IAT(Formal)","2021.2.3","Win32",120.105693,"",NA,"",NA,NA,NA,NA,NA,NA,NA,"","","",NA,"i",1,0.4765,0,64,64,79,1,"其他","i","",NA,NA,NA,NA,NA,NA,"",NA,"",NA,NA,NA,NA,NA,NA,NA,"",NA,"",NA,NA,NA,NA,NA,NA,NA,"","","",NA,"",NA,NA,NA,NA,NA,NA,NA,"",NA,"8"
"",NA,"",NA,"",NA,NA,NA,NA,NA,NA,NA,"","",1,1,"2024-08-23_14h32.51.399","IAT(Formal)","2021.2.3","Win32",120.105693,"",NA,"",NA,NA,NA,NA,NA,NA,NA,"","","",NA,"i",1,0.5599,0,65,65,37,1,"傲慢","i","",NA,NA,NA,NA,NA,NA,"",NA,"",NA,NA,NA,NA,NA,NA,NA,"",NA,"",NA,NA,NA,NA,NA,NA,NA,"","","",NA,"",NA,NA,NA,NA,NA,NA,NA,"",NA,"8"
"",NA,"",NA,"",NA,NA,NA,NA,NA,NA,NA,"","",1,1,"2024-08-23_14h32.51.399","IAT(Formal)","2021.2.3","Win32",120.105693,"",NA,"",NA,NA,NA,NA,NA,NA,NA,"","","",NA,"i",1,0.4004,0,66,66,78,1,"他人","i","",NA,NA,NA,NA,NA,NA,"",NA,"",NA,NA,NA,NA,NA,NA,NA,"",NA,"",NA,NA,NA,NA,NA,NA,NA,"","","",NA,"",NA,NA,NA,NA,NA,NA,NA,"",NA,"8"
"",NA,"",NA,"",NA,NA,NA,NA,NA,NA,NA,"","",1,1,"2024-08-23_14h32.51.399","IAT(Formal)","2021.2.3","Win32",120.105693,"",NA,"",NA,NA,NA,NA,NA,NA,NA,"","","",NA,"e",1,0.4924,0,67,67,52,1,"我们","e","",NA,NA,NA,NA,NA,NA,"",NA,"",NA,NA,NA,NA,NA,NA,NA,"",NA,"",NA,NA,NA,NA,NA,NA,NA,"","","",NA,"",NA,NA,NA,NA,NA,NA,NA,"",NA,"8"
"",NA,"",NA,"",NA,NA,NA,NA,NA,NA,NA,"","",1,1,"2024-08-23_14h32.51.399","IAT(Formal)","2021.2.3","Win32",120.105693,"",NA,"",NA,NA,NA,NA,NA,NA,NA,"","","",NA,"i",1,0.7651,0,68,68,43,1,"自私","i","",NA,NA,NA,NA,NA,NA,"",NA,"",NA,NA,NA,NA,NA,NA,NA,"",NA,"",NA,NA,NA,NA,NA,NA,NA,"","","",NA,"",NA,NA,NA,NA,NA,NA,NA,"",NA,"8"
"",NA,"",NA,"",NA,NA,NA,NA,NA,NA,NA,"","",1,1,"2024-08-23_14h32.51.399","IAT(Formal)","2021.2.3","Win32",120.105693,"",NA,"",NA,NA,NA,NA,NA,NA,NA,"","","",NA,"i",0,0.4867,0,69,69,54,1,"俺","e","",NA,NA,NA,NA,NA,NA,"",NA,"",NA,NA,NA,NA,NA,NA,NA,"",NA,"",NA,NA,NA,NA,NA,NA,NA,"","","",NA,"",NA,NA,NA,NA,NA,NA,NA,"",NA,"8"
"",NA,"",NA,"",NA,NA,NA,NA,NA,NA,NA,"","",1,1,"2024-08-23_14h32.51.399","IAT(Formal)","2021.2.3","Win32",120.105693,"",NA,"",NA,NA,NA,NA,NA,NA,NA,"","","",NA,"i",1,0.4603,0,70,70,68,1,"他人","i","",NA,NA,NA,NA,NA,NA,"",NA,"",NA,NA,NA,NA,NA,NA,NA,"",NA,"",NA,NA,NA,NA,NA,NA,NA,"","","",NA,"",NA,NA,NA,NA,NA,NA,NA,"",NA,"8"
"",NA,"",NA,"",NA,NA,NA,NA,NA,NA,NA,"","",1,1,"2024-08-23_14h32.51.399","IAT(Formal)","2021.2.3","Win32",120.105693,"",NA,"",NA,NA,NA,NA,NA,NA,NA,"","","",NA,"i",1,0.4933,0,71,71,59,1,"其他","i","",NA,NA,NA,NA,NA,NA,"",NA,"",NA,NA,NA,NA,NA,NA,NA,"",NA,"",NA,NA,NA,NA,NA,NA,NA,"","","",NA,"",NA,NA,NA,NA,NA,NA,NA,"",NA,"8"
"",NA,"",NA,"",NA,NA,NA,NA,NA,NA,NA,"","",1,1,"2024-08-23_14h32.51.399","IAT(Formal)","2021.2.3","Win32",120.105693,"",NA,"",NA,NA,NA,NA,NA,NA,NA,"","","",NA,"e",1,0.9082,0,72,72,17,1,"勇敢","e","",NA,NA,NA,NA,NA,NA,"",NA,"",NA,NA,NA,NA,NA,NA,NA,"",NA,"",NA,NA,NA,NA,NA,NA,NA,"","","",NA,"",NA,NA,NA,NA,NA,NA,NA,"",NA,"8"
"",NA,"",NA,"",NA,NA,NA,NA,NA,NA,NA,"","",1,1,"2024-08-23_14h32.51.399","IAT(Formal)","2021.2.3","Win32",120.105693,"",NA,"",NA,NA,NA,NA,NA,NA,NA,"","","",NA,"e",1,0.9933,0,73,73,29,1,"诚恳","e","",NA,NA,NA,NA,NA,NA,"",NA,"",NA,NA,NA,NA,NA,NA,NA,"",NA,"",NA,NA,NA,NA,NA,NA,NA,"","","",NA,"",NA,NA,NA,NA,NA,NA,NA,"",NA,"8"
"",NA,"",NA,"",NA,NA,NA,NA,NA,NA,NA,"","",1,1,"2024-08-23_14h32.51.399","IAT(Formal)","2021.2.3","Win32",120.105693,"",NA,"",NA,NA,NA,NA,NA,NA,NA,"","","",NA,"i",1,0.6577,0,74,74,65,1,"他","i","",NA,NA,NA,NA,NA,NA,"",NA,"",NA,NA,NA,NA,NA,NA,NA,"",NA,"",NA,NA,NA,NA,NA,NA,NA,"","","",NA,"",NA,NA,NA,NA,NA,NA,NA,"",NA,"8"
"",NA,"",NA,"",NA,NA,NA,NA,NA,NA,NA,"","",1,1,"2024-08-23_14h32.51.399","IAT(Formal)","2021.2.3","Win32",120.105693,"",NA,"",NA,NA,NA,NA,NA,NA,NA,"","","",NA,"e",1,0.7583,0,75,75,51,1,"我的","e","",NA,NA,NA,NA,NA,NA,"",NA,"",NA,NA,NA,NA,NA,NA,NA,"",NA,"",NA,NA,NA,NA,NA,NA,NA,"","","",NA,"",NA,NA,NA,NA,NA,NA,NA,"",NA,"8"
"",NA,"",NA,"",NA,NA,NA,NA,NA,NA,NA,"","",1,1,"2024-08-23_14h32.51.399","IAT(Formal)","2021.2.3","Win32",120.105693,"",NA,"",NA,NA,NA,NA,NA,NA,NA,"","","",NA,"e",1,0.881,0,76,76,24,1,"朴实","e","",NA,NA,NA,NA,NA,NA,"",NA,"",NA,NA,NA,NA,NA,NA,NA,"",NA,"",NA,NA,NA,NA,NA,NA,NA,"","","",NA,"",NA,NA,NA,NA,NA,NA,NA,"",NA,"8"
"",NA,"",NA,"",NA,NA,NA,NA,NA,NA,NA,"","",1,1,"2024-08-23_14h32.51.399","IAT(Formal)","2021.2.3","Win32",120.105693,"",NA,"",NA,NA,NA,NA,NA,NA,NA,"","","",NA,"i",1,0.5511,0,77,77,56,1,"他们","i","",NA,NA,NA,NA,NA,NA,"",NA,"",NA,NA,NA,NA,NA,NA,NA,"",NA,"",NA,NA,NA,NA,NA,NA,NA,"","","",NA,"",NA,NA,NA,NA,NA,NA,NA,"",NA,"8"
"",NA,"",NA,"",NA,NA,NA,NA,NA,NA,NA,"","",1,1,"2024-08-23_14h32.51.399","IAT(Formal)","2021.2.3","Win32",120.105693,"",NA,"",NA,NA,NA,NA,NA,NA,NA,"","","",NA,"i",1,0.5495,0,78,78,77,1,"他的","i","",NA,NA,NA,NA,NA,NA,"",NA,"",NA,NA,NA,NA,NA,NA,NA,"",NA,"",NA,NA,NA,NA,NA,NA,NA,"","","",NA,"",NA,NA,NA,NA,NA,NA,NA,"",NA,"8"
"",NA,"",NA,"",NA,NA,NA,NA,NA,NA,NA,"","",1,1,"2024-08-23_14h32.51.399","IAT(Formal)","2021.2.3","Win32",120.105693,"",NA,"",NA,NA,NA,NA,NA,NA,NA,"","","",NA,"i",1,1.0599,0,79,79,32,1,"愚蠢","i","",NA,NA,NA,NA,NA,NA,"",NA,"",NA,NA,NA,NA,NA,NA,NA,"",NA,"",NA,NA,NA,NA,NA,NA,NA,"","","",NA,"",NA,NA,NA,NA,NA,NA,NA,"",NA,"8"
"",NA,"",NA,"",NA,NA,NA,NA,NA,NA,NA,"","",1,1,"2024-08-23_14h32.51.399","IAT(Formal)","2021.2.3","Win32",120.105693,"",NA,"",NA,NA,NA,NA,NA,NA,NA,"","","",NA,"i",1,0.5636,NA,NA,NA,NA,NA,"下贱","i","space",11.4151,0,0,0,49,1,"",NA,"",NA,NA,NA,NA,NA,NA,NA,"",NA,"",NA,NA,NA,NA,NA,NA,NA,"","","",NA,"",NA,NA,NA,NA,NA,NA,NA,"",NA,"8"
"",NA,"",NA,"",NA,NA,NA,NA,NA,NA,NA,"","",1,1,"2024-08-23_14h32.51.399","IAT(Formal)","2021.2.3","Win32",120.105693,"",NA,"",NA,NA,NA,NA,NA,NA,NA,"","","",NA,"e",1,0.6676,NA,NA,NA,NA,NA,"机智","e","",NA,0,1,1,19,1,"",NA,"",NA,NA,NA,NA,NA,NA,NA,"",NA,"",NA,NA,NA,NA,NA,NA,NA,"","","",NA,"",NA,NA,NA,NA,NA,NA,NA,"",NA,"8"
"",NA,"",NA,"",NA,NA,NA,NA,NA,NA,NA,"","",1,1,"2024-08-23_14h32.51.399","IAT(Formal)","2021.2.3","Win32",120.105693,"",NA,"",NA,NA,NA,NA,NA,NA,NA,"","","",NA,"e",1,0.7087,NA,NA,NA,NA,NA,"我们","e","",NA,0,2,2,52,1,"",NA,"",NA,NA,NA,NA,NA,NA,NA,"",NA,"",NA,NA,NA,NA,NA,NA,NA,"","","",NA,"",NA,NA,NA,NA,NA,NA,NA,"",NA,"8"
"",NA,"",NA,"",NA,NA,NA,NA,NA,NA,NA,"","",1,1,"2024-08-23_14h32.51.399","IAT(Formal)","2021.2.3","Win32",120.105693,"",NA,"",NA,NA,NA,NA,NA,NA,NA,"","","",NA,"e",1,0.6,NA,NA,NA,NA,NA,"公正","e","",NA,0,3,3,23,1,"",NA,"",NA,NA,NA,NA,NA,NA,NA,"",NA,"",NA,NA,NA,NA,NA,NA,NA,"","","",NA,"",NA,NA,NA,NA,NA,NA,NA,"",NA,"8"
"",NA,"",NA,"",NA,NA,NA,NA,NA,NA,NA,"","",1,1,"2024-08-23_14h32.51.399","IAT(Formal)","2021.2.3","Win32",120.105693,"",NA,"",NA,NA,NA,NA,NA,NA,NA,"","","",NA,"e",1,0.4856,NA,NA,NA,NA,NA,"优秀","e","",NA,0,4,4,10,1,"",NA,"",NA,NA,NA,NA,NA,NA,NA,"",NA,"",NA,NA,NA,NA,NA,NA,NA,"","","",NA,"",NA,NA,NA,NA,NA,NA,NA,"",NA,"8"
"",NA,"",NA,"",NA,NA,NA,NA,NA,NA,NA,"","",1,1,"2024-08-23_14h32.51.399","IAT(Formal)","2021.2.3","Win32",120.105693,"",NA,"",NA,NA,NA,NA,NA,NA,NA,"","","",NA,"i",1,0.6275,NA,NA,NA,NA,NA,"鲁莽","i","",NA,0,5,5,38,1,"",NA,"",NA,NA,NA,NA,NA,NA,NA,"",NA,"",NA,NA,NA,NA,NA,NA,NA,"","","",NA,"",NA,NA,NA,NA,NA,NA,NA,"",NA,"8"
"",NA,"",NA,"",NA,NA,NA,NA,NA,NA,NA,"","",1,1,"2024-08-23_14h32.51.399","IAT(Formal)","2021.2.3","Win32",120.105693,"",NA,"",NA,NA,NA,NA,NA,NA,NA,"","","",NA,"i",1,0.6896,NA,NA,NA,NA,NA,"他的","i","",NA,0,6,6,7,1,"",NA,"",NA,NA,NA,NA,NA,NA,NA,"",NA,"",NA,NA,NA,NA,NA,NA,NA,"","","",NA,"",NA,NA,NA,NA,NA,NA,NA,"",NA,"8"
"",NA,"",NA,"",NA,NA,NA,NA,NA,NA,NA,"","",1,1,"2024-08-23_14h32.51.399","IAT(Formal)","2021.2.3","Win32",120.105693,"",NA,"",NA,NA,NA,NA,NA,NA,NA,"","","",NA,"i",1,0.4735,NA,NA,NA,NA,NA,"他","i","",NA,0,7,7,75,1,"",NA,"",NA,NA,NA,NA,NA,NA,NA,"",NA,"",NA,NA,NA,NA,NA,NA,NA,"","","",NA,"",NA,NA,NA,NA,NA,NA,NA,"",NA,"8"
"",NA,"",NA,"",NA,NA,NA,NA,NA,NA,NA,"","",1,1,"2024-08-23_14h32.51.399","IAT(Formal)","2021.2.3","Win32",120.105693,"",NA,"",NA,NA,NA,NA,NA,NA,NA,"","","",NA,"e",1,0.5285,NA,NA,NA,NA,NA,"俺","e","",NA,0,8,8,64,1,"",NA,"",NA,NA,NA,NA,NA,NA,NA,"",NA,"",NA,NA,NA,NA,NA,NA,NA,"","","",NA,"",NA,NA,NA,NA,NA,NA,NA,"",NA,"8"
"",NA,"",NA,"",NA,NA,NA,NA,NA,NA,NA,"","",1,1,"2024-08-23_14h32.51.399","IAT(Formal)","2021.2.3","Win32",120.105693,"",NA,"",NA,NA,NA,NA,NA,NA,NA,"","","",NA,"i",1,0.4421,NA,NA,NA,NA,NA,"他人","i","",NA,0,9,9,78,1,"",NA,"",NA,NA,NA,NA,NA,NA,NA,"",NA,"",NA,NA,NA,NA,NA,NA,NA,"","","",NA,"",NA,NA,NA,NA,NA,NA,NA,"",NA,"8"
"",NA,"",NA,"",NA,NA,NA,NA,NA,NA,NA,"","",1,1,"2024-08-23_14h32.51.399","IAT(Formal)","2021.2.3","Win32",120.105693,"",NA,"",NA,NA,NA,NA,NA,NA,NA,"","","",NA,"e",1,0.5233,NA,NA,NA,NA,NA,"认真","e","",NA,0,10,10,20,1,"",NA,"",NA,NA,NA,NA,NA,NA,NA,"",NA,"",NA,NA,NA,NA,NA,NA,NA,"","","",NA,"",NA,NA,NA,NA,NA,NA,NA,"",NA,"8"
"",NA,"",NA,"",NA,NA,NA,NA,NA,NA,NA,"","",1,1,"2024-08-23_14h32.51.399","IAT(Formal)","2021.2.3","Win32",120.105693,"",NA,"",NA,NA,NA,NA,NA,NA,NA,"","","",NA,"i",1,0.6148,NA,NA,NA,NA,NA,"其他","i","",NA,0,11,11,59,1,"",NA,"",NA,NA,NA,NA,NA,NA,NA,"",NA,"",NA,NA,NA,NA,NA,NA,NA,"","","",NA,"",NA,NA,NA,NA,NA,NA,NA,"",NA,"8"
"",NA,"",NA,"",NA,NA,NA,NA,NA,NA,NA,"","",1,1,"2024-08-23_14h32.51.399","IAT(Formal)","2021.2.3","Win32",120.105693,"",NA,"",NA,NA,NA,NA,NA,NA,NA,"","","",NA,"e",1,0.6073,NA,NA,NA,NA,NA,"我","e","",NA,0,12,12,60,1,"",NA,"",NA,NA,NA,NA,NA,NA,NA,"",NA,"",NA,NA,NA,NA,NA,NA,NA,"","","",NA,"",NA,NA,NA,NA,NA,NA,NA,"",NA,"8"
"",NA,"",NA,"",NA,NA,NA,NA,NA,NA,NA,"","",1,1,"2024-08-23_14h32.51.399","IAT(Formal)","2021.2.3","Win32",120.105693,"",NA,"",NA,NA,NA,NA,NA,NA,NA,"","","",NA,"i",1,0.4834,NA,NA,NA,NA,NA,"他们","i","",NA,0,13,13,76,1,"",NA,"",NA,NA,NA,NA,NA,NA,NA,"",NA,"",NA,NA,NA,NA,NA,NA,NA,"","","",NA,"",NA,NA,NA,NA,NA,NA,NA,"",NA,"8"
"",NA,"",NA,"",NA,NA,NA,NA,NA,NA,NA,"","",1,1,"2024-08-23_14h32.51.399","IAT(Formal)","2021.2.3","Win32",120.105693,"",NA,"",NA,NA,NA,NA,NA,NA,NA,"","","",NA,"e",1,0.5213,NA,NA,NA,NA,NA,"活泼","e","",NA,0,14,14,28,1,"",NA,"",NA,NA,NA,NA,NA,NA,NA,"",NA,"",NA,NA,NA,NA,NA,NA,NA,"","","",NA,"",NA,NA,NA,NA,NA,NA,NA,"",NA,"8"
"",NA,"",NA,"",NA,NA,NA,NA,NA,NA,NA,"","",1,1,"2024-08-23_14h32.51.399","IAT(Formal)","2021.2.3","Win32",120.105693,"",NA,"",NA,NA,NA,NA,NA,NA,NA,"","","",NA,"e",1,0.5418,NA,NA,NA,NA,NA,"我们","e","",NA,0,15,15,72,1,"",NA,"",NA,NA,NA,NA,NA,NA,NA,"",NA,"",NA,NA,NA,NA,NA,NA,NA,"","","",NA,"",NA,NA,NA,NA,NA,NA,NA,"",NA,"8"
"",NA,"",NA,"",NA,NA,NA,NA,NA,NA,NA,"","",1,1,"2024-08-23_14h32.51.399","IAT(Formal)","2021.2.3","Win32",120.105693,"",NA,"",NA,NA,NA,NA,NA,NA,NA,"","","",NA,"i",1,0.5525,NA,NA,NA,NA,NA,"他们","i","",NA,0,16,16,6,1,"",NA,"",NA,NA,NA,NA,NA,NA,NA,"",NA,"",NA,NA,NA,NA,NA,NA,NA,"","","",NA,"",NA,NA,NA,NA,NA,NA,NA,"",NA,"8"
"",NA,"",NA,"",NA,NA,NA,NA,NA,NA,NA,"","",1,1,"2024-08-23_14h32.51.399","IAT(Formal)","2021.2.3","Win32",120.105693,"",NA,"",NA,NA,NA,NA,NA,NA,NA,"","","",NA,"i",1,0.4509,NA,NA,NA,NA,NA,"他们","i","",NA,0,17,17,56,1,"",NA,"",NA,NA,NA,NA,NA,NA,NA,"",NA,"",NA,NA,NA,NA,NA,NA,NA,"","","",NA,"",NA,NA,NA,NA,NA,NA,NA,"",NA,"8"
"",NA,"",NA,"",NA,NA,NA,NA,NA,NA,NA,"","",1,1,"2024-08-23_14h32.51.399","IAT(Formal)","2021.2.3","Win32",120.105693,"",NA,"",NA,NA,NA,NA,NA,NA,NA,"","","",NA,"i",1,0.5414,NA,NA,NA,NA,NA,"消极","i","",NA,0,18,18,35,1,"",NA,"",NA,NA,NA,NA,NA,NA,NA,"",NA,"",NA,NA,NA,NA,NA,NA,NA,"","","",NA,"",NA,NA,NA,NA,NA,NA,NA,"",NA,"8"
"",NA,"",NA,"",NA,NA,NA,NA,NA,NA,NA,"","",1,1,"2024-08-23_14h32.51.399","IAT(Formal)","2021.2.3","Win32",120.105693,"",NA,"",NA,NA,NA,NA,NA,NA,NA,"","","",NA,"e",1,0.4865,NA,NA,NA,NA,NA,"我们","e","",NA,0,19,19,2,1,"",NA,"",NA,NA,NA,NA,NA,NA,NA,"",NA,"",NA,NA,NA,NA,NA,NA,NA,"","","",NA,"",NA,NA,NA,NA,NA,NA,NA,"",NA,"8"
"",NA,"",NA,"",NA,NA,NA,NA,NA,NA,NA,"","",1,1,"2024-08-23_14h32.51.399","IAT(Formal)","2021.2.3","Win32",120.105693,"",NA,"",NA,NA,NA,NA,NA,NA,NA,"","","",NA,"i",1,0.4925,NA,NA,NA,NA,NA,"凶狠","i","",NA,0,20,20,42,1,"",NA,"",NA,NA,NA,NA,NA,NA,NA,"",NA,"",NA,NA,NA,NA,NA,NA,NA,"","","",NA,"",NA,NA,NA,NA,NA,NA,NA,"",NA,"8"
"",NA,"",NA,"",NA,NA,NA,NA,NA,NA,NA,"","",1,1,"2024-08-23_14h32.51.399","IAT(Formal)","2021.2.3","Win32",120.105693,"",NA,"",NA,NA,NA,NA,NA,NA,NA,"","","",NA,"e",1,0.551,NA,NA,NA,NA,NA,"勇敢","e","",NA,0,21,21,17,1,"",NA,"",NA,NA,NA,NA,NA,NA,NA,"",NA,"",NA,NA,NA,NA,NA,NA,NA,"","","",NA,"",NA,NA,NA,NA,NA,NA,NA,"",NA,"8"
"",NA,"",NA,"",NA,NA,NA,NA,NA,NA,NA,"","",1,1,"2024-08-23_14h32.51.399","IAT(Formal)","2021.2.3","Win32",120.105693,"",NA,"",NA,NA,NA,NA,NA,NA,NA,"","","",NA,"e",1,0.678,NA,NA,NA,NA,NA,"我们","e","",NA,0,22,22,62,1,"",NA,"",NA,NA,NA,NA,NA,NA,NA,"",NA,"",NA,NA,NA,NA,NA,NA,NA,"","","",NA,"",NA,NA,NA,NA,NA,NA,NA,"",NA,"8"
"",NA,"",NA,"",NA,NA,NA,NA,NA,NA,NA,"","",1,1,"2024-08-23_14h32.51.399","IAT(Formal)","2021.2.3","Win32",120.105693,"",NA,"",NA,NA,NA,NA,NA,NA,NA,"","","",NA,"i",1,0.4287,NA,NA,NA,NA,NA,"他","i","",NA,0,23,23,5,1,"",NA,"",NA,NA,NA,NA,NA,NA,NA,"",NA,"",NA,NA,NA,NA,NA,NA,NA,"","","",NA,"",NA,NA,NA,NA,NA,NA,NA,"",NA,"8"
"",NA,"",NA,"",NA,NA,NA,NA,NA,NA,NA,"","",1,1,"2024-08-23_14h32.51.399","IAT(Formal)","2021.2.3","Win32",120.105693,"",NA,"",NA,NA,NA,NA,NA,NA,NA,"","","",NA,"i",1,0.4795,NA,NA,NA,NA,NA,"其他","i","",NA,0,24,24,69,1,"",NA,"",NA,NA,NA,NA,NA,NA,NA,"",NA,"",NA,NA,NA,NA,NA,NA,NA,"","","",NA,"",NA,NA,NA,NA,NA,NA,NA,"",NA,"8"
"",NA,"",NA,"",NA,NA,NA,NA,NA,NA,NA,"","",1,1,"2024-08-23_14h32.51.399","IAT(Formal)","2021.2.3","Win32",120.105693,"",NA,"",NA,NA,NA,NA,NA,NA,NA,"","","",NA,"i",1,0.7418,NA,NA,NA,NA,NA,"散漫","i","",NA,0,25,25,41,1,"",NA,"",NA,NA,NA,NA,NA,NA,NA,"",NA,"",NA,NA,NA,NA,NA,NA,NA,"","","",NA,"",NA,NA,NA,NA,NA,NA,NA,"",NA,"8"
"",NA,"",NA,"",NA,NA,NA,NA,NA,NA,NA,"","",1,1,"2024-08-23_14h32.51.399","IAT(Formal)","2021.2.3","Win32",120.105693,"",NA,"",NA,NA,NA,NA,NA,NA,NA,"","","",NA,"e",1,0.5095,NA,NA,NA,NA,NA,"自己","e","",NA,0,26,26,73,1,"",NA,"",NA,NA,NA,NA,NA,NA,NA,"",NA,"",NA,NA,NA,NA,NA,NA,NA,"","","",NA,"",NA,NA,NA,NA,NA,NA,NA,"",NA,"8"
"",NA,"",NA,"",NA,NA,NA,NA,NA,NA,NA,"","",1,1,"2024-08-23_14h32.51.399","IAT(Formal)","2021.2.3","Win32",120.105693,"",NA,"",NA,NA,NA,NA,NA,NA,NA,"","","",NA,"e",1,0.7007,NA,NA,NA,NA,NA,"聪明","e","",NA,0,27,27,12,1,"",NA,"",NA,NA,NA,NA,NA,NA,NA,"",NA,"",NA,NA,NA,NA,NA,NA,NA,"","","",NA,"",NA,NA,NA,NA,NA,NA,NA,"",NA,"8"
"",NA,"",NA,"",NA,NA,NA,NA,NA,NA,NA,"","",1,1,"2024-08-23_14h32.51.399","IAT(Formal)","2021.2.3","Win32",120.105693,"",NA,"",NA,NA,NA,NA,NA,NA,NA,"","","",NA,"i",1,0.5014,NA,NA,NA,NA,NA,"固执","i","",NA,0,28,28,47,1,"",NA,"",NA,NA,NA,NA,NA,NA,NA,"",NA,"",NA,NA,NA,NA,NA,NA,NA,"","","",NA,"",NA,NA,NA,NA,NA,NA,NA,"",NA,"8"
"",NA,"",NA,"",NA,NA,NA,NA,NA,NA,NA,"","",1,1,"2024-08-23_14h32.51.399","IAT(Formal)","2021.2.3","Win32",120.105693,"",NA,"",NA,NA,NA,NA,NA,NA,NA,"","","",NA,"e",1,0.5944,NA,NA,NA,NA,NA,"我","e","",NA,0,29,29,70,1,"",NA,"",NA,NA,NA,NA,NA,NA,NA,"",NA,"",NA,NA,NA,NA,NA,NA,NA,"","","",NA,"",NA,NA,NA,NA,NA,NA,NA,"",NA,"8"
"",NA,"",NA,"",NA,NA,NA,NA,NA,NA,NA,"","",1,1,"2024-08-23_14h32.51.399","IAT(Formal)","2021.2.3","Win32",120.105693,"",NA,"",NA,NA,NA,NA,NA,NA,NA,"","","",NA,"e",1,0.477,NA,NA,NA,NA,NA,"我","e","",NA,0,30,30,50,1,"",NA,"",NA,NA,NA,NA,NA,NA,NA,"",NA,"",NA,NA,NA,NA,NA,NA,NA,"","","",NA,"",NA,NA,NA,NA,NA,NA,NA,"",NA,"8"
"",NA,"",NA,"",NA,NA,NA,NA,NA,NA,NA,"","",1,1,"2024-08-23_14h32.51.399","IAT(Formal)","2021.2.3","Win32",120.105693,"",NA,"",NA,NA,NA,NA,NA,NA,NA,"","","",NA,"e",1,0.6843,NA,NA,NA,NA,NA,"乐观","e","",NA,0,31,31,14,1,"",NA,"",NA,NA,NA,NA,NA,NA,NA,"",NA,"",NA,NA,NA,NA,NA,NA,NA,"","","",NA,"",NA,NA,NA,NA,NA,NA,NA,"",NA,"8"
"",NA,"",NA,"",NA,NA,NA,NA,NA,NA,NA,"","",1,1,"2024-08-23_14h32.51.399","IAT(Formal)","2021.2.3","Win32",120.105693,"",NA,"",NA,NA,NA,NA,NA,NA,NA,"","","",NA,"i",1,0.5287,NA,NA,NA,NA,NA,"其他","i","",NA,0,32,32,9,1,"",NA,"",NA,NA,NA,NA,NA,NA,NA,"",NA,"",NA,NA,NA,NA,NA,NA,NA,"","","",NA,"",NA,NA,NA,NA,NA,NA,NA,"",NA,"8"
"",NA,"",NA,"",NA,NA,NA,NA,NA,NA,NA,"","",1,1,"2024-08-23_14h32.51.399","IAT(Formal)","2021.2.3","Win32",120.105693,"",NA,"",NA,NA,NA,NA,NA,NA,NA,"","","",NA,"e",1,0.6255,NA,NA,NA,NA,NA,"杰出","e","",NA,0,33,33,13,1,"",NA,"",NA,NA,NA,NA,NA,NA,NA,"",NA,"",NA,NA,NA,NA,NA,NA,NA,"","","",NA,"",NA,NA,NA,NA,NA,NA,NA,"",NA,"8"
"",NA,"",NA,"",NA,NA,NA,NA,NA,NA,NA,"","",1,1,"2024-08-23_14h32.51.399","IAT(Formal)","2021.2.3","Win32",120.105693,"",NA,"",NA,NA,NA,NA,NA,NA,NA,"","","",NA,"i",1,0.4776,NA,NA,NA,NA,NA,"暴躁","i","",NA,0,34,34,44,1,"",NA,"",NA,NA,NA,NA,NA,NA,NA,"",NA,"",NA,NA,NA,NA,NA,NA,NA,"","","",NA,"",NA,NA,NA,NA,NA,NA,NA,"",NA,"8"
"",NA,"",NA,"",NA,NA,NA,NA,NA,NA,NA,"","",1,1,"2024-08-23_14h32.51.399","IAT(Formal)","2021.2.3","Win32",120.105693,"",NA,"",NA,NA,NA,NA,NA,NA,NA,"","","",NA,"i",1,0.5577,NA,NA,NA,NA,NA,"他们","i","",NA,0,35,35,66,1,"",NA,"",NA,NA,NA,NA,NA,NA,NA,"",NA,"",NA,NA,NA,NA,NA,NA,NA,"","","",NA,"",NA,NA,NA,NA,NA,NA,NA,"",NA,"8"
"",NA,"",NA,"",NA,NA,NA,NA,NA,NA,NA,"","",1,1,"2024-08-23_14h32.51.399","IAT(Formal)","2021.2.3","Win32",120.105693,"",NA,"",NA,NA,NA,NA,NA,NA,NA,"","","",NA,"i",1,0.6581,NA,NA,NA,NA,NA,"野蛮","i","",NA,0,36,36,46,1,"",NA,"",NA,NA,NA,NA,NA,NA,NA,"",NA,"",NA,NA,NA,NA,NA,NA,NA,"","","",NA,"",NA,NA,NA,NA,NA,NA,NA,"",NA,"8"
"",NA,"",NA,"",NA,NA,NA,NA,NA,NA,NA,"","",1,1,"2024-08-23_14h32.51.399","IAT(Formal)","2021.2.3","Win32",120.105693,"",NA,"",NA,NA,NA,NA,NA,NA,NA,"","","",NA,"e",1,0.7335,NA,NA,NA,NA,NA,"正直","e","",NA,0,37,37,16,1,"",NA,"",NA,NA,NA,NA,NA,NA,NA,"",NA,"",NA,NA,NA,NA,NA,NA,NA,"","","",NA,"",NA,NA,NA,NA,NA,NA,NA,"",NA,"8"
"",NA,"",NA,"",NA,NA,NA,NA,NA,NA,NA,"","",1,1,"2024-08-23_14h32.51.399","IAT(Formal)","2021.2.3","Win32",120.105693,"",NA,"",NA,NA,NA,NA,NA,NA,NA,"","","",NA,"e",1,0.6665,NA,NA,NA,NA,NA,"我的","e","",NA,0,38,38,51,1,"",NA,"",NA,NA,NA,NA,NA,NA,NA,"",NA,"",NA,NA,NA,NA,NA,NA,NA,"","","",NA,"",NA,NA,NA,NA,NA,NA,NA,"",NA,"8"
"",NA,"",NA,"",NA,NA,NA,NA,NA,NA,NA,"","",1,1,"2024-08-23_14h32.51.399","IAT(Formal)","2021.2.3","Win32",120.105693,"",NA,"",NA,NA,NA,NA,NA,NA,NA,"","","",NA,"i",1,0.5752,NA,NA,NA,NA,NA,"他的","i","",NA,0,39,39,67,1,"",NA,"",NA,NA,NA,NA,NA,NA,NA,"",NA,"",NA,NA,NA,NA,NA,NA,NA,"","","",NA,"",NA,NA,NA,NA,NA,NA,NA,"",NA,"8"
"",NA,"",NA,"",NA,NA,NA,NA,NA,NA,NA,"","",1,1,"2024-08-23_14h32.51.399","IAT(Formal)","2021.2.3","Win32",120.105693,"",NA,"",NA,NA,NA,NA,NA,NA,NA,"","","",NA,"",0,NA,NA,NA,NA,NA,NA,"朴实","e","",NA,0,40,40,24,1,"",NA,"",NA,NA,NA,NA,NA,NA,NA,"",NA,"",NA,NA,NA,NA,NA,NA,NA,"","","",NA,"",NA,NA,NA,NA,NA,NA,NA,"",NA,"8"
"",NA,"",NA,"",NA,NA,NA,NA,NA,NA,NA,"","",1,1,"2024-08-23_14h32.51.399","IAT(Formal)","2021.2.3","Win32",120.105693,"",NA,"",NA,NA,NA,NA,NA,NA,NA,"","","",NA,"e",1,0.6583,NA,NA,NA,NA,NA,"我的","e","",NA,0,41,41,71,1,"",NA,"",NA,NA,NA,NA,NA,NA,NA,"",NA,"",NA,NA,NA,NA,NA,NA,NA,"","","",NA,"",NA,NA,NA,NA,NA,NA,NA,"",NA,"8"
"",NA,"",NA,"",NA,NA,NA,NA,NA,NA,NA,"","",1,1,"2024-08-23_14h32.51.399","IAT(Formal)","2021.2.3","Win32",120.105693,"",NA,"",NA,NA,NA,NA,NA,NA,NA,"","","",NA,"i",1,0.7928,NA,NA,NA,NA,NA,"猖狂","i","",NA,0,42,42,45,1,"",NA,"",NA,NA,NA,NA,NA,NA,NA,"",NA,"",NA,NA,NA,NA,NA,NA,NA,"","","",NA,"",NA,NA,NA,NA,NA,NA,NA,"",NA,"8"
"",NA,"",NA,"",NA,NA,NA,NA,NA,NA,NA,"","",1,1,"2024-08-23_14h32.51.399","IAT(Formal)","2021.2.3","Win32",120.105693,"",NA,"",NA,NA,NA,NA,NA,NA,NA,"","","",NA,"e",1,0.6838,NA,NA,NA,NA,NA,"诚实","e","",NA,0,43,43,15,1,"",NA,"",NA,NA,NA,NA,NA,NA,NA,"",NA,"",NA,NA,NA,NA,NA,NA,NA,"","","",NA,"",NA,NA,NA,NA,NA,NA,NA,"",NA,"8"
"",NA,"",NA,"",NA,NA,NA,NA,NA,NA,NA,"","",1,1,"2024-08-23_14h32.51.399","IAT(Formal)","2021.2.3","Win32",120.105693,"",NA,"",NA,NA,NA,NA,NA,NA,NA,"","","",NA,"e",1,0.5496,NA,NA,NA,NA,NA,"我","e","",NA,0,44,44,0,1,"",NA,"",NA,NA,NA,NA,NA,NA,NA,"",NA,"",NA,NA,NA,NA,NA,NA,NA,"","","",NA,"",NA,NA,NA,NA,NA,NA,NA,"",NA,"8"
"",NA,"",NA,"",NA,NA,NA,NA,NA,NA,NA,"","",1,1,"2024-08-23_14h32.51.399","IAT(Formal)","2021.2.3","Win32",120.105693,"",NA,"",NA,NA,NA,NA,NA,NA,NA,"","","",NA,"e",1,0.6646,NA,NA,NA,NA,NA,"崇高","e","",NA,0,45,45,11,1,"",NA,"",NA,NA,NA,NA,NA,NA,NA,"",NA,"",NA,NA,NA,NA,NA,NA,NA,"","","",NA,"",NA,NA,NA,NA,NA,NA,NA,"",NA,"8"
"",NA,"",NA,"",NA,NA,NA,NA,NA,NA,NA,"","",1,1,"2024-08-23_14h32.51.399","IAT(Formal)","2021.2.3","Win32",120.105693,"",NA,"",NA,NA,NA,NA,NA,NA,NA,"","","",NA,"e",1,0.6245,NA,NA,NA,NA,NA,"自己","e","",NA,0,46,46,63,1,"",NA,"",NA,NA,NA,NA,NA,NA,NA,"",NA,"",NA,NA,NA,NA,NA,NA,NA,"","","",NA,"",NA,NA,NA,NA,NA,NA,NA,"",NA,"8"
"",NA,"",NA,"",NA,NA,NA,NA,NA,NA,NA,"","",1,1,"2024-08-23_14h32.51.399","IAT(Formal)","2021.2.3","Win32",120.105693,"",NA,"",NA,NA,NA,NA,NA,NA,NA,"","","",NA,"i",1,0.6583,NA,NA,NA,NA,NA,"他的","i","",NA,0,47,47,57,1,"",NA,"",NA,NA,NA,NA,NA,NA,NA,"",NA,"",NA,NA,NA,NA,NA,NA,NA,"","","",NA,"",NA,NA,NA,NA,NA,NA,NA,"",NA,"8"
"",NA,"",NA,"",NA,NA,NA,NA,NA,NA,NA,"","",1,1,"2024-08-23_14h32.51.399","IAT(Formal)","2021.2.3","Win32",120.105693,"",NA,"",NA,NA,NA,NA,NA,NA,NA,"","","",NA,"i",1,0.7744,NA,NA,NA,NA,NA,"傲慢","i","",NA,0,48,48,37,1,"",NA,"",NA,NA,NA,NA,NA,NA,NA,"",NA,"",NA,NA,NA,NA,NA,NA,NA,"","","",NA,"",NA,NA,NA,NA,NA,NA,NA,"",NA,"8"
"",NA,"",NA,"",NA,NA,NA,NA,NA,NA,NA,"","",1,1,"2024-08-23_14h32.51.399","IAT(Formal)","2021.2.3","Win32",120.105693,"",NA,"",NA,NA,NA,NA,NA,NA,NA,"","","",NA,"e",1,0.568,NA,NA,NA,NA,NA,"俺","e","",NA,0,49,49,74,1,"",NA,"",NA,NA,NA,NA,NA,NA,NA,"",NA,"",NA,NA,NA,NA,NA,NA,NA,"","","",NA,"",NA,NA,NA,NA,NA,NA,NA,"",NA,"8"
"",NA,"",NA,"",NA,NA,NA,NA,NA,NA,NA,"","",1,1,"2024-08-23_14h32.51.399","IAT(Formal)","2021.2.3","Win32",120.105693,"",NA,"",NA,NA,NA,NA,NA,NA,NA,"","","",NA,"e",1,0.5257,NA,NA,NA,NA,NA,"自己","e","",NA,0,50,50,3,1,"",NA,"",NA,NA,NA,NA,NA,NA,NA,"",NA,"",NA,NA,NA,NA,NA,NA,NA,"","","",NA,"",NA,NA,NA,NA,NA,NA,NA,"",NA,"8"
"",NA,"",NA,"",NA,NA,NA,NA,NA,NA,NA,"","",1,1,"2024-08-23_14h32.51.399","IAT(Formal)","2021.2.3","Win32",120.105693,"",NA,"",NA,NA,NA,NA,NA,NA,NA,"","","",NA,"e",1,0.7914,NA,NA,NA,NA,NA,"勤奋","e","",NA,0,51,51,18,1,"",NA,"",NA,NA,NA,NA,NA,NA,NA,"",NA,"",NA,NA,NA,NA,NA,NA,NA,"","","",NA,"",NA,NA,NA,NA,NA,NA,NA,"",NA,"8"
"",NA,"",NA,"",NA,NA,NA,NA,NA,NA,NA,"","",1,1,"2024-08-23_14h32.51.399","IAT(Formal)","2021.2.3","Win32",120.105693,"",NA,"",NA,NA,NA,NA,NA,NA,NA,"","","",NA,"i",1,0.6407,NA,NA,NA,NA,NA,"自私","i","",NA,0,52,52,43,1,"",NA,"",NA,NA,NA,NA,NA,NA,NA,"",NA,"",NA,NA,NA,NA,NA,NA,NA,"","","",NA,"",NA,NA,NA,NA,NA,NA,NA,"",NA,"8"
"",NA,"",NA,"",NA,NA,NA,NA,NA,NA,NA,"","",1,1,"2024-08-23_14h32.51.399","IAT(Formal)","2021.2.3","Win32",120.105693,"",NA,"",NA,NA,NA,NA,NA,NA,NA,"","","",NA,"e",1,0.5243,NA,NA,NA,NA,NA,"俺","e","",NA,0,53,53,4,1,"",NA,"",NA,NA,NA,NA,NA,NA,NA,"",NA,"",NA,NA,NA,NA,NA,NA,NA,"","","",NA,"",NA,NA,NA,NA,NA,NA,NA,"",NA,"8"
"",NA,"",NA,"",NA,NA,NA,NA,NA,NA,NA,"","",1,1,"2024-08-23_14h32.51.399","IAT(Formal)","2021.2.3","Win32",120.105693,"",NA,"",NA,NA,NA,NA,NA,NA,NA,"","","",NA,"i",1,0.4346,NA,NA,NA,NA,NA,"他人","i","",NA,0,54,54,8,1,"",NA,"",NA,NA,NA,NA,NA,NA,NA,"",NA,"",NA,NA,NA,NA,NA,NA,NA,"","","",NA,"",NA,NA,NA,NA,NA,NA,NA,"",NA,"8"
"",NA,"",NA,"",NA,NA,NA,NA,NA,NA,NA,"","",1,1,"2024-08-23_14h32.51.399","IAT(Formal)","2021.2.3","Win32",120.105693,"",NA,"",NA,NA,NA,NA,NA,NA,NA,"","","",NA,"i",1,0.484,NA,NA,NA,NA,NA,"刻薄","i","",NA,0,55,55,33,1,"",NA,"",NA,NA,NA,NA,NA,NA,NA,"",NA,"",NA,NA,NA,NA,NA,NA,NA,"","","",NA,"",NA,NA,NA,NA,NA,NA,NA,"",NA,"8"
"",NA,"",NA,"",NA,NA,NA,NA,NA,NA,NA,"","",1,1,"2024-08-23_14h32.51.399","IAT(Formal)","2021.2.3","Win32",120.105693,"",NA,"",NA,NA,NA,NA,NA,NA,NA,"","","",NA,"e",1,0.667,NA,NA,NA,NA,NA,"无私","e","",NA,0,56,56,22,1,"",NA,"",NA,NA,NA,NA,NA,NA,NA,"",NA,"",NA,NA,NA,NA,NA,NA,NA,"","","",NA,"",NA,NA,NA,NA,NA,NA,NA,"",NA,"8"
"",NA,"",NA,"",NA,NA,NA,NA,NA,NA,NA,"","",1,1,"2024-08-23_14h32.51.399","IAT(Formal)","2021.2.3","Win32",120.105693,"",NA,"",NA,NA,NA,NA,NA,NA,NA,"","","",NA,"e",1,0.5088,NA,NA,NA,NA,NA,"俺","e","",NA,0,57,57,54,1,"",NA,"",NA,NA,NA,NA,NA,NA,NA,"",NA,"",NA,NA,NA,NA,NA,NA,NA,"","","",NA,"",NA,NA,NA,NA,NA,NA,NA,"",NA,"8"
"",NA,"",NA,"",NA,NA,NA,NA,NA,NA,NA,"","",1,1,"2024-08-23_14h32.51.399","IAT(Formal)","2021.2.3","Win32",120.105693,"",NA,"",NA,NA,NA,NA,NA,NA,NA,"","","",NA,"e",1,0.9865,NA,NA,NA,NA,NA,"热情","e","",NA,0,58,58,27,1,"",NA,"",NA,NA,NA,NA,NA,NA,NA,"",NA,"",NA,NA,NA,NA,NA,NA,NA,"","","",NA,"",NA,NA,NA,NA,NA,NA,NA,"",NA,"8"
"",NA,"",NA,"",NA,NA,NA,NA,NA,NA,NA,"","",1,1,"2024-08-23_14h32.51.399","IAT(Formal)","2021.2.3","Win32",120.105693,"",NA,"",NA,NA,NA,NA,NA,NA,NA,"","","",NA,"i",1,0.6587,NA,NA,NA,NA,NA,"执拗","i","",NA,0,59,59,40,1,"",NA,"",NA,NA,NA,NA,NA,NA,NA,"",NA,"",NA,NA,NA,NA,NA,NA,NA,"","","",NA,"",NA,NA,NA,NA,NA,NA,NA,"",NA,"8"
"",NA,"",NA,"",NA,NA,NA,NA,NA,NA,NA,"","",1,1,"2024-08-23_14h32.51.399","IAT(Formal)","2021.2.3","Win32",120.105693,"",NA,"",NA,NA,NA,NA,NA,NA,NA,"","","",NA,"",0,NA,NA,NA,NA,NA,NA,"悲观","i","",NA,0,60,60,34,1,"",NA,"",NA,NA,NA,NA,NA,NA,NA,"",NA,"",NA,NA,NA,NA,NA,NA,NA,"","","",NA,"",NA,NA,NA,NA,NA,NA,NA,"",NA,"8"
"",NA,"",NA,"",NA,NA,NA,NA,NA,NA,NA,"","",1,1,"2024-08-23_14h32.51.399","IAT(Formal)","2021.2.3","Win32",120.105693,"",NA,"",NA,NA,NA,NA,NA,NA,NA,"","","",NA,"i",1,1.2837,NA,NA,NA,NA,NA,"轻率","i","",NA,0,61,61,48,1,"",NA,"",NA,NA,NA,NA,NA,NA,NA,"",NA,"",NA,NA,NA,NA,NA,NA,NA,"","","",NA,"",NA,NA,NA,NA,NA,NA,NA,"",NA,"8"
"",NA,"",NA,"",NA,NA,NA,NA,NA,NA,NA,"","",1,1,"2024-08-23_14h32.51.399","IAT(Formal)","2021.2.3","Win32",120.105693,"",NA,"",NA,NA,NA,NA,NA,NA,NA,"","","",NA,"e",1,0.7712,NA,NA,NA,NA,NA,"稳重","e","",NA,0,62,62,21,1,"",NA,"",NA,NA,NA,NA,NA,NA,NA,"",NA,"",NA,NA,NA,NA,NA,NA,NA,"","","",NA,"",NA,NA,NA,NA,NA,NA,NA,"",NA,"8"
"",NA,"",NA,"",NA,NA,NA,NA,NA,NA,NA,"","",1,1,"2024-08-23_14h32.51.399","IAT(Formal)","2021.2.3","Win32",120.105693,"",NA,"",NA,NA,NA,NA,NA,NA,NA,"","","",NA,"i",1,0.7837,NA,NA,NA,NA,NA,"他人","i","",NA,0,63,63,68,1,"",NA,"",NA,NA,NA,NA,NA,NA,NA,"",NA,"",NA,NA,NA,NA,NA,NA,NA,"","","",NA,"",NA,NA,NA,NA,NA,NA,NA,"",NA,"8"
"",NA,"",NA,"",NA,NA,NA,NA,NA,NA,NA,"","",1,1,"2024-08-23_14h32.51.399","IAT(Formal)","2021.2.3","Win32",120.105693,"",NA,"",NA,NA,NA,NA,NA,NA,NA,"","","",NA,"i",1,0.8274,NA,NA,NA,NA,NA,"他","i","",NA,0,64,64,55,1,"",NA,"",NA,NA,NA,NA,NA,NA,NA,"",NA,"",NA,NA,NA,NA,NA,NA,NA,"","","",NA,"",NA,NA,NA,NA,NA,NA,NA,"",NA,"8"
"",NA,"",NA,"",NA,NA,NA,NA,NA,NA,NA,"","",1,1,"2024-08-23_14h32.51.399","IAT(Formal)","2021.2.3","Win32",120.105693,"",NA,"",NA,NA,NA,NA,NA,NA,NA,"","","",NA,"i",1,0.8443,NA,NA,NA,NA,NA,"他的","i","",NA,0,65,65,77,1,"",NA,"",NA,NA,NA,NA,NA,NA,NA,"",NA,"",NA,NA,NA,NA,NA,NA,NA,"","","",NA,"",NA,NA,NA,NA,NA,NA,NA,"",NA,"8"
"",NA,"",NA,"",NA,NA,NA,NA,NA,NA,NA,"","",1,1,"2024-08-23_14h32.51.399","IAT(Formal)","2021.2.3","Win32",120.105693,"",NA,"",NA,NA,NA,NA,NA,NA,NA,"","","",NA,"e",1,0.6003,NA,NA,NA,NA,NA,"诚恳","e","",NA,0,66,66,29,1,"",NA,"",NA,NA,NA,NA,NA,NA,NA,"",NA,"",NA,NA,NA,NA,NA,NA,NA,"","","",NA,"",NA,NA,NA,NA,NA,NA,NA,"",NA,"8"
"",NA,"",NA,"",NA,NA,NA,NA,NA,NA,NA,"","",1,1,"2024-08-23_14h32.51.399","IAT(Formal)","2021.2.3","Win32",120.105693,"",NA,"",NA,NA,NA,NA,NA,NA,NA,"","","",NA,"i",1,0.5919,NA,NA,NA,NA,NA,"其他","i","",NA,0,67,67,79,1,"",NA,"",NA,NA,NA,NA,NA,NA,NA,"",NA,"",NA,NA,NA,NA,NA,NA,NA,"","","",NA,"",NA,NA,NA,NA,NA,NA,NA,"",NA,"8"
"",NA,"",NA,"",NA,NA,NA,NA,NA,NA,NA,"","",1,1,"2024-08-23_14h32.51.399","IAT(Formal)","2021.2.3","Win32",120.105693,"",NA,"",NA,NA,NA,NA,NA,NA,NA,"","","",NA,"i",1,0.9013,NA,NA,NA,NA,NA,"冒失","i","",NA,0,68,68,39,1,"",NA,"",NA,NA,NA,NA,NA,NA,NA,"",NA,"",NA,NA,NA,NA,NA,NA,NA,"","","",NA,"",NA,NA,NA,NA,NA,NA,NA,"",NA,"8"
"",NA,"",NA,"",NA,NA,NA,NA,NA,NA,NA,"","",1,1,"2024-08-23_14h32.51.399","IAT(Formal)","2021.2.3","Win32",120.105693,"",NA,"",NA,NA,NA,NA,NA,NA,NA,"","","",NA,"i",1,0.6011,NA,NA,NA,NA,NA,"卑鄙","i","",NA,0,69,69,30,1,"",NA,"",NA,NA,NA,NA,NA,NA,NA,"",NA,"",NA,NA,NA,NA,NA,NA,NA,"","","",NA,"",NA,NA,NA,NA,NA,NA,NA,"",NA,"8"
"",NA,"",NA,"",NA,NA,NA,NA,NA,NA,NA,"","",1,1,"2024-08-23_14h32.51.399","IAT(Formal)","2021.2.3","Win32",120.105693,"",NA,"",NA,NA,NA,NA,NA,NA,NA,"","","",NA,"i",1,0.5625,NA,NA,NA,NA,NA,"虚伪","i","",NA,0,70,70,31,1,"",NA,"",NA,NA,NA,NA,NA,NA,NA,"",NA,"",NA,NA,NA,NA,NA,NA,NA,"","","",NA,"",NA,NA,NA,NA,NA,NA,NA,"",NA,"8"
"",NA,"",NA,"",NA,NA,NA,NA,NA,NA,NA,"","",1,1,"2024-08-23_14h32.51.399","IAT(Formal)","2021.2.3","Win32",120.105693,"",NA,"",NA,NA,NA,NA,NA,NA,NA,"","","",NA,"e",1,0.6917,NA,NA,NA,NA,NA,"我的","e","",NA,0,71,71,1,1,"",NA,"",NA,NA,NA,NA,NA,NA,NA,"",NA,"",NA,NA,NA,NA,NA,NA,NA,"","","",NA,"",NA,NA,NA,NA,NA,NA,NA,"",NA,"8"
"",NA,"",NA,"",NA,NA,NA,NA,NA,NA,NA,"","",1,1,"2024-08-23_14h32.51.399","IAT(Formal)","2021.2.3","Win32",120.105693,"",NA,"",NA,NA,NA,NA,NA,NA,NA,"","","",NA,"e",1,0.6408,NA,NA,NA,NA,NA,"自己","e","",NA,0,72,72,53,1,"",NA,"",NA,NA,NA,NA,NA,NA,NA,"",NA,"",NA,NA,NA,NA,NA,NA,NA,"","","",NA,"",NA,NA,NA,NA,NA,NA,NA,"",NA,"8"
"",NA,"",NA,"",NA,NA,NA,NA,NA,NA,NA,"","",1,1,"2024-08-23_14h32.51.399","IAT(Formal)","2021.2.3","Win32",120.105693,"",NA,"",NA,NA,NA,NA,NA,NA,NA,"","","",NA,"e",1,0.5652,NA,NA,NA,NA,NA,"我的","e","",NA,0,73,73,61,1,"",NA,"",NA,NA,NA,NA,NA,NA,NA,"",NA,"",NA,NA,NA,NA,NA,NA,NA,"","","",NA,"",NA,NA,NA,NA,NA,NA,NA,"",NA,"8"
"",NA,"",NA,"",NA,NA,NA,NA,NA,NA,NA,"","",1,1,"2024-08-23_14h32.51.399","IAT(Formal)","2021.2.3","Win32",120.105693,"",NA,"",NA,NA,NA,NA,NA,NA,NA,"","","",NA,"i",1,0.385,NA,NA,NA,NA,NA,"他人","i","",NA,0,74,74,58,1,"",NA,"",NA,NA,NA,NA,NA,NA,NA,"",NA,"",NA,NA,NA,NA,NA,NA,NA,"","","",NA,"",NA,NA,NA,NA,NA,NA,NA,"",NA,"8"
"",NA,"",NA,"",NA,NA,NA,NA,NA,NA,NA,"","",1,1,"2024-08-23_14h32.51.399","IAT(Formal)","2021.2.3","Win32",120.105693,"",NA,"",NA,NA,NA,NA,NA,NA,NA,"","","",NA,"i",1,0.5573,NA,NA,NA,NA,NA,"愚蠢","i","",NA,0,75,75,32,1,"",NA,"",NA,NA,NA,NA,NA,NA,NA,"",NA,"",NA,NA,NA,NA,NA,NA,NA,"","","",NA,"",NA,NA,NA,NA,NA,NA,NA,"",NA,"8"
"",NA,"",NA,"",NA,NA,NA,NA,NA,NA,NA,"","",1,1,"2024-08-23_14h32.51.399","IAT(Formal)","2021.2.3","Win32",120.105693,"",NA,"",NA,NA,NA,NA,NA,NA,NA,"","","",NA,"e",1,0.5883,NA,NA,NA,NA,NA,"冷静","e","",NA,0,76,76,26,1,"",NA,"",NA,NA,NA,NA,NA,NA,NA,"",NA,"",NA,NA,NA,NA,NA,NA,NA,"","","",NA,"",NA,NA,NA,NA,NA,NA,NA,"",NA,"8"
"",NA,"",NA,"",NA,NA,NA,NA,NA,NA,NA,"","",1,1,"2024-08-23_14h32.51.399","IAT(Formal)","2021.2.3","Win32",120.105693,"",NA,"",NA,NA,NA,NA,NA,NA,NA,"","","",NA,"i",1,0.48,NA,NA,NA,NA,NA,"他","i","",NA,0,77,77,65,1,"",NA,"",NA,NA,NA,NA,NA,NA,NA,"",NA,"",NA,NA,NA,NA,NA,NA,NA,"","","",NA,"",NA,NA,NA,NA,NA,NA,NA,"",NA,"8"
"",NA,"",NA,"",NA,NA,NA,NA,NA,NA,NA,"","",1,1,"2024-08-23_14h32.51.399","IAT(Formal)","2021.2.3","Win32",120.105693,"",NA,"",NA,NA,NA,NA,NA,NA,NA,"","","",NA,"e",1,0.8634,NA,NA,NA,NA,NA,"细腻","e","",NA,0,78,78,25,1,"",NA,"",NA,NA,NA,NA,NA,NA,NA,"",NA,"",NA,NA,NA,NA,NA,NA,NA,"","","",NA,"",NA,NA,NA,NA,NA,NA,NA,"",NA,"8"
"",NA,"",NA,"",NA,NA,NA,NA,NA,NA,NA,"","",1,1,"2024-08-23_14h32.51.399","IAT(Formal)","2021.2.3","Win32",120.105693,"",NA,"",NA,NA,NA,NA,NA,NA,NA,"","","",NA,"i",1,0.6173,NA,NA,NA,NA,NA,"自卑","i","",NA,0,79,79,36,1,"",NA,"",NA,NA,NA,NA,NA,NA,NA,"",NA,"",NA,NA,NA,NA,NA,NA,NA,"","","",NA,"",NA,NA,NA,NA,NA,NA,NA,"",NA,"8"
"",NA,"",NA,"",NA,NA,NA,NA,NA,NA,NA,"","",1,1,"2024-08-23_14h32.51.399","IAT(Formal)","2021.2.3","Win32",120.105693,"",NA,"",NA,NA,NA,NA,NA,NA,NA,"","","",NA,"i",1,0.4993,NA,NA,NA,NA,NA,"鲁莽","i","",NA,1,0,80,38,1,"",NA,"",NA,NA,NA,NA,NA,NA,NA,"",NA,"",NA,NA,NA,NA,NA,NA,NA,"","","",NA,"",NA,NA,NA,NA,NA,NA,NA,"",NA,"8"
"",NA,"",NA,"",NA,NA,NA,NA,NA,NA,NA,"","",1,1,"2024-08-23_14h32.51.399","IAT(Formal)","2021.2.3","Win32",120.105693,"",NA,"",NA,NA,NA,NA,NA,NA,NA,"","","",NA,"e",1,0.6012,NA,NA,NA,NA,NA,"活泼","e","",NA,1,1,81,28,1,"",NA,"",NA,NA,NA,NA,NA,NA,NA,"",NA,"",NA,NA,NA,NA,NA,NA,NA,"","","",NA,"",NA,NA,NA,NA,NA,NA,NA,"",NA,"8"
"",NA,"",NA,"",NA,NA,NA,NA,NA,NA,NA,"","",1,1,"2024-08-23_14h32.51.399","IAT(Formal)","2021.2.3","Win32",120.105693,"",NA,"",NA,NA,NA,NA,NA,NA,NA,"","","",NA,"i",0,0.4554,NA,NA,NA,NA,NA,"无私","e","",NA,1,2,82,22,1,"",NA,"",NA,NA,NA,NA,NA,NA,NA,"",NA,"",NA,NA,NA,NA,NA,NA,NA,"","","",NA,"",NA,NA,NA,NA,NA,NA,NA,"",NA,"8"
"",NA,"",NA,"",NA,NA,NA,NA,NA,NA,NA,"","",1,1,"2024-08-23_14h32.51.399","IAT(Formal)","2021.2.3","Win32",120.105693,"",NA,"",NA,NA,NA,NA,NA,NA,NA,"","","",NA,"i",1,0.5808,NA,NA,NA,NA,NA,"他","i","",NA,1,3,83,65,1,"",NA,"",NA,NA,NA,NA,NA,NA,NA,"",NA,"",NA,NA,NA,NA,NA,NA,NA,"","","",NA,"",NA,NA,NA,NA,NA,NA,NA,"",NA,"8"
"",NA,"",NA,"",NA,NA,NA,NA,NA,NA,NA,"","",1,1,"2024-08-23_14h32.51.399","IAT(Formal)","2021.2.3","Win32",120.105693,"",NA,"",NA,NA,NA,NA,NA,NA,NA,"","","",NA,"i",1,0.609,NA,NA,NA,NA,NA,"悲观","i","",NA,1,4,84,34,1,"",NA,"",NA,NA,NA,NA,NA,NA,NA,"",NA,"",NA,NA,NA,NA,NA,NA,NA,"","","",NA,"",NA,NA,NA,NA,NA,NA,NA,"",NA,"8"
"",NA,"",NA,"",NA,NA,NA,NA,NA,NA,NA,"","",1,1,"2024-08-23_14h32.51.399","IAT(Formal)","2021.2.3","Win32",120.105693,"",NA,"",NA,NA,NA,NA,NA,NA,NA,"","","",NA,"",0,NA,NA,NA,NA,NA,NA,"自卑","i","",NA,1,5,85,36,1,"",NA,"",NA,NA,NA,NA,NA,NA,NA,"",NA,"",NA,NA,NA,NA,NA,NA,NA,"","","",NA,"",NA,NA,NA,NA,NA,NA,NA,"",NA,"8"
"",NA,"",NA,"",NA,NA,NA,NA,NA,NA,NA,"","",1,1,"2024-08-23_14h32.51.399","IAT(Formal)","2021.2.3","Win32",120.105693,"",NA,"",NA,NA,NA,NA,NA,NA,NA,"","","",NA,"",0,NA,NA,NA,NA,NA,NA,"凶狠","i","",NA,1,6,86,42,1,"",NA,"",NA,NA,NA,NA,NA,NA,NA,"",NA,"",NA,NA,NA,NA,NA,NA,NA,"","","",NA,"",NA,NA,NA,NA,NA,NA,NA,"",NA,"8"
"",NA,"",NA,"",NA,NA,NA,NA,NA,NA,NA,"","",1,1,"2024-08-23_14h32.51.399","IAT(Formal)","2021.2.3","Win32",120.105693,"",NA,"",NA,NA,NA,NA,NA,NA,NA,"","","",NA,"e",1,0.5885,NA,NA,NA,NA,NA,"自己","e","",NA,1,7,87,63,1,"",NA,"",NA,NA,NA,NA,NA,NA,NA,"",NA,"",NA,NA,NA,NA,NA,NA,NA,"","","",NA,"",NA,NA,NA,NA,NA,NA,NA,"",NA,"8"
"",NA,"",NA,"",NA,NA,NA,NA,NA,NA,NA,"","",1,1,"2024-08-23_14h32.51.399","IAT(Formal)","2021.2.3","Win32",120.105693,"",NA,"",NA,NA,NA,NA,NA,NA,NA,"","","",NA,"e",1,0.6836,NA,NA,NA,NA,NA,"我们","e","",NA,1,8,88,62,1,"",NA,"",NA,NA,NA,NA,NA,NA,NA,"",NA,"",NA,NA,NA,NA,NA,NA,NA,"","","",NA,"",NA,NA,NA,NA,NA,NA,NA,"",NA,"8"
"",NA,"",NA,"",NA,NA,NA,NA,NA,NA,NA,"","",1,1,"2024-08-23_14h32.51.399","IAT(Formal)","2021.2.3","Win32",120.105693,"",NA,"",NA,NA,NA,NA,NA,NA,NA,"","","",NA,"e",1,0.7563,NA,NA,NA,NA,NA,"稳重","e","",NA,1,9,89,21,1,"",NA,"",NA,NA,NA,NA,NA,NA,NA,"",NA,"",NA,NA,NA,NA,NA,NA,NA,"","","",NA,"",NA,NA,NA,NA,NA,NA,NA,"",NA,"8"
"",NA,"",NA,"",NA,NA,NA,NA,NA,NA,NA,"","",1,1,"2024-08-23_14h32.51.399","IAT(Formal)","2021.2.3","Win32",120.105693,"",NA,"",NA,NA,NA,NA,NA,NA,NA,"","","",NA,"e",1,0.5397,NA,NA,NA,NA,NA,"自己","e","",NA,1,10,90,73,1,"",NA,"",NA,NA,NA,NA,NA,NA,NA,"",NA,"",NA,NA,NA,NA,NA,NA,NA,"","","",NA,"",NA,NA,NA,NA,NA,NA,NA,"",NA,"8"
"",NA,"",NA,"",NA,NA,NA,NA,NA,NA,NA,"","",1,1,"2024-08-23_14h32.51.399","IAT(Formal)","2021.2.3","Win32",120.105693,"",NA,"",NA,NA,NA,NA,NA,NA,NA,"","","",NA,"e",1,1.0796,NA,NA,NA,NA,NA,"诚恳","e","",NA,1,11,91,29,1,"",NA,"",NA,NA,NA,NA,NA,NA,NA,"",NA,"",NA,NA,NA,NA,NA,NA,NA,"","","",NA,"",NA,NA,NA,NA,NA,NA,NA,"",NA,"8"
"",NA,"",NA,"",NA,NA,NA,NA,NA,NA,NA,"","",1,1,"2024-08-23_14h32.51.399","IAT(Formal)","2021.2.3","Win32",120.105693,"",NA,"",NA,NA,NA,NA,NA,NA,NA,"","","",NA,"i",1,0.653,NA,NA,NA,NA,NA,"其他","i","",NA,1,12,92,79,1,"",NA,"",NA,NA,NA,NA,NA,NA,NA,"",NA,"",NA,NA,NA,NA,NA,NA,NA,"","","",NA,"",NA,NA,NA,NA,NA,NA,NA,"",NA,"8"
"",NA,"",NA,"",NA,NA,NA,NA,NA,NA,NA,"","",1,1,"2024-08-23_14h32.51.399","IAT(Formal)","2021.2.3","Win32",120.105693,"",NA,"",NA,NA,NA,NA,NA,NA,NA,"","","",NA,"",0,NA,NA,NA,NA,NA,NA,"朴实","e","",NA,1,13,93,24,1,"",NA,"",NA,NA,NA,NA,NA,NA,NA,"",NA,"",NA,NA,NA,NA,NA,NA,NA,"","","",NA,"",NA,NA,NA,NA,NA,NA,NA,"",NA,"8"
"",NA,"",NA,"",NA,NA,NA,NA,NA,NA,NA,"","",1,1,"2024-08-23_14h32.51.399","IAT(Formal)","2021.2.3","Win32",120.105693,"",NA,"",NA,NA,NA,NA,NA,NA,NA,"","","",NA,"i",1,0.5338,NA,NA,NA,NA,NA,"其他","i","",NA,1,14,94,9,1,"",NA,"",NA,NA,NA,NA,NA,NA,NA,"",NA,"",NA,NA,NA,NA,NA,NA,NA,"","","",NA,"",NA,NA,NA,NA,NA,NA,NA,"",NA,"8"
"",NA,"",NA,"",NA,NA,NA,NA,NA,NA,NA,"","",1,1,"2024-08-23_14h32.51.399","IAT(Formal)","2021.2.3","Win32",120.105693,"",NA,"",NA,NA,NA,NA,NA,NA,NA,"","","",NA,"e",1,0.5329,NA,NA,NA,NA,NA,"我的","e","",NA,1,15,95,1,1,"",NA,"",NA,NA,NA,NA,NA,NA,NA,"",NA,"",NA,NA,NA,NA,NA,NA,NA,"","","",NA,"",NA,NA,NA,NA,NA,NA,NA,"",NA,"8"
"",NA,"",NA,"",NA,NA,NA,NA,NA,NA,NA,"","",1,1,"2024-08-23_14h32.51.399","IAT(Formal)","2021.2.3","Win32",120.105693,"",NA,"",NA,NA,NA,NA,NA,NA,NA,"","","",NA,"i",1,0.5011,NA,NA,NA,NA,NA,"他人","i","",NA,1,16,96,8,1,"",NA,"",NA,NA,NA,NA,NA,NA,NA,"",NA,"",NA,NA,NA,NA,NA,NA,NA,"","","",NA,"",NA,NA,NA,NA,NA,NA,NA,"",NA,"8"
"",NA,"",NA,"",NA,NA,NA,NA,NA,NA,NA,"","",1,1,"2024-08-23_14h32.51.399","IAT(Formal)","2021.2.3","Win32",120.105693,"",NA,"",NA,NA,NA,NA,NA,NA,NA,"","","",NA,"e",1,0.4892,NA,NA,NA,NA,NA,"自己","e","",NA,1,17,97,3,1,"",NA,"",NA,NA,NA,NA,NA,NA,NA,"",NA,"",NA,NA,NA,NA,NA,NA,NA,"","","",NA,"",NA,NA,NA,NA,NA,NA,NA,"",NA,"8"
"",NA,"",NA,"",NA,NA,NA,NA,NA,NA,NA,"","",1,1,"2024-08-23_14h32.51.399","IAT(Formal)","2021.2.3","Win32",120.105693,"",NA,"",NA,NA,NA,NA,NA,NA,NA,"","","",NA,"i",1,0.5279,NA,NA,NA,NA,NA,"他的","i","",NA,1,18,98,7,1,"",NA,"",NA,NA,NA,NA,NA,NA,NA,"",NA,"",NA,NA,NA,NA,NA,NA,NA,"","","",NA,"",NA,NA,NA,NA,NA,NA,NA,"",NA,"8"
"",NA,"",NA,"",NA,NA,NA,NA,NA,NA,NA,"","",1,1,"2024-08-23_14h32.51.399","IAT(Formal)","2021.2.3","Win32",120.105693,"",NA,"",NA,NA,NA,NA,NA,NA,NA,"","","",NA,"e",1,0.5641,NA,NA,NA,NA,NA,"认真","e","",NA,1,19,99,20,1,"",NA,"",NA,NA,NA,NA,NA,NA,NA,"",NA,"",NA,NA,NA,NA,NA,NA,NA,"","","",NA,"",NA,NA,NA,NA,NA,NA,NA,"",NA,"8"
"",NA,"",NA,"",NA,NA,NA,NA,NA,NA,NA,"","",1,1,"2024-08-23_14h32.51.399","IAT(Formal)","2021.2.3","Win32",120.105693,"",NA,"",NA,NA,NA,NA,NA,NA,NA,"","","",NA,"e",0,0.4838,NA,NA,NA,NA,NA,"他","i","",NA,1,20,100,75,1,"",NA,"",NA,NA,NA,NA,NA,NA,NA,"",NA,"",NA,NA,NA,NA,NA,NA,NA,"","","",NA,"",NA,NA,NA,NA,NA,NA,NA,"",NA,"8"
"",NA,"",NA,"",NA,NA,NA,NA,NA,NA,NA,"","",1,1,"2024-08-23_14h32.51.399","IAT(Formal)","2021.2.3","Win32",120.105693,"",NA,"",NA,NA,NA,NA,NA,NA,NA,"","","",NA,"e",1,0.6092,NA,NA,NA,NA,NA,"我的","e","",NA,1,21,101,61,1,"",NA,"",NA,NA,NA,NA,NA,NA,NA,"",NA,"",NA,NA,NA,NA,NA,NA,NA,"","","",NA,"",NA,NA,NA,NA,NA,NA,NA,"",NA,"8"
"",NA,"",NA,"",NA,NA,NA,NA,NA,NA,NA,"","",1,1,"2024-08-23_14h32.51.399","IAT(Formal)","2021.2.3","Win32",120.105693,"",NA,"",NA,NA,NA,NA,NA,NA,NA,"","","",NA,"i",0,0.4989,NA,NA,NA,NA,NA,"勇敢","e","",NA,1,22,102,17,1,"",NA,"",NA,NA,NA,NA,NA,NA,NA,"",NA,"",NA,NA,NA,NA,NA,NA,NA,"","","",NA,"",NA,NA,NA,NA,NA,NA,NA,"",NA,"8"
"",NA,"",NA,"",NA,NA,NA,NA,NA,NA,NA,"","",1,1,"2024-08-23_14h32.51.399","IAT(Formal)","2021.2.3","Win32",120.105693,"",NA,"",NA,NA,NA,NA,NA,NA,NA,"","","",NA,"i",1,0.5805,NA,NA,NA,NA,NA,"他们","i","",NA,1,23,103,56,1,"",NA,"",NA,NA,NA,NA,NA,NA,NA,"",NA,"",NA,NA,NA,NA,NA,NA,NA,"","","",NA,"",NA,NA,NA,NA,NA,NA,NA,"",NA,"8"
"",NA,"",NA,"",NA,NA,NA,NA,NA,NA,NA,"","",1,1,"2024-08-23_14h32.51.399","IAT(Formal)","2021.2.3","Win32",120.105693,"",NA,"",NA,NA,NA,NA,NA,NA,NA,"","","",NA,"i",1,0.5321,NA,NA,NA,NA,NA,"愚蠢","i","",NA,1,24,104,32,1,"",NA,"",NA,NA,NA,NA,NA,NA,NA,"",NA,"",NA,NA,NA,NA,NA,NA,NA,"","","",NA,"",NA,NA,NA,NA,NA,NA,NA,"",NA,"8"
"",NA,"",NA,"",NA,NA,NA,NA,NA,NA,NA,"","",1,1,"2024-08-23_14h32.51.399","IAT(Formal)","2021.2.3","Win32",120.105693,"",NA,"",NA,NA,NA,NA,NA,NA,NA,"","","",NA,"i",1,0.497,NA,NA,NA,NA,NA,"他人","i","",NA,1,25,105,78,1,"",NA,"",NA,NA,NA,NA,NA,NA,NA,"",NA,"",NA,NA,NA,NA,NA,NA,NA,"","","",NA,"",NA,NA,NA,NA,NA,NA,NA,"",NA,"8"
"",NA,"",NA,"",NA,NA,NA,NA,NA,NA,NA,"","",1,1,"2024-08-23_14h32.51.399","IAT(Formal)","2021.2.3","Win32",120.105693,"",NA,"",NA,NA,NA,NA,NA,NA,NA,"","","",NA,"e",1,0.7316,NA,NA,NA,NA,NA,"乐观","e","",NA,1,26,106,14,1,"",NA,"",NA,NA,NA,NA,NA,NA,NA,"",NA,"",NA,NA,NA,NA,NA,NA,NA,"","","",NA,"",NA,NA,NA,NA,NA,NA,NA,"",NA,"8"
"",NA,"",NA,"",NA,NA,NA,NA,NA,NA,NA,"","",1,1,"2024-08-23_14h32.51.399","IAT(Formal)","2021.2.3","Win32",120.105693,"",NA,"",NA,NA,NA,NA,NA,NA,NA,"","","",NA,"i",1,0.4419,NA,NA,NA,NA,NA,"卑鄙","i","",NA,1,27,107,30,1,"",NA,"",NA,NA,NA,NA,NA,NA,NA,"",NA,"",NA,NA,NA,NA,NA,NA,NA,"","","",NA,"",NA,NA,NA,NA,NA,NA,NA,"",NA,"8"
"",NA,"",NA,"",NA,NA,NA,NA,NA,NA,NA,"","",1,1,"2024-08-23_14h32.51.399","IAT(Formal)","2021.2.3","Win32",120.105693,"",NA,"",NA,NA,NA,NA,NA,NA,NA,"","","",NA,"e",1,0.5415,NA,NA,NA,NA,NA,"诚实","e","",NA,1,28,108,15,1,"",NA,"",NA,NA,NA,NA,NA,NA,NA,"",NA,"",NA,NA,NA,NA,NA,NA,NA,"","","",NA,"",NA,NA,NA,NA,NA,NA,NA,"",NA,"8"
"",NA,"",NA,"",NA,NA,NA,NA,NA,NA,NA,"","",1,1,"2024-08-23_14h32.51.399","IAT(Formal)","2021.2.3","Win32",120.105693,"",NA,"",NA,NA,NA,NA,NA,NA,NA,"","","",NA,"e",1,0.4512,NA,NA,NA,NA,NA,"热情","e","",NA,1,29,109,27,1,"",NA,"",NA,NA,NA,NA,NA,NA,NA,"",NA,"",NA,NA,NA,NA,NA,NA,NA,"","","",NA,"",NA,NA,NA,NA,NA,NA,NA,"",NA,"8"
"",NA,"",NA,"",NA,NA,NA,NA,NA,NA,NA,"","",1,1,"2024-08-23_14h32.51.399","IAT(Formal)","2021.2.3","Win32",120.105693,"",NA,"",NA,NA,NA,NA,NA,NA,NA,"","","",NA,"e",1,0.6072,NA,NA,NA,NA,NA,"公正","e","",NA,1,30,110,23,1,"",NA,"",NA,NA,NA,NA,NA,NA,NA,"",NA,"",NA,NA,NA,NA,NA,NA,NA,"","","",NA,"",NA,NA,NA,NA,NA,NA,NA,"",NA,"8"
"",NA,"",NA,"",NA,NA,NA,NA,NA,NA,NA,"","",1,1,"2024-08-23_14h32.51.399","IAT(Formal)","2021.2.3","Win32",120.105693,"",NA,"",NA,NA,NA,NA,NA,NA,NA,"","","",NA,"e",1,0.4889,NA,NA,NA,NA,NA,"我","e","",NA,1,31,111,60,1,"",NA,"",NA,NA,NA,NA,NA,NA,NA,"",NA,"",NA,NA,NA,NA,NA,NA,NA,"","","",NA,"",NA,NA,NA,NA,NA,NA,NA,"",NA,"8"
"",NA,"",NA,"",NA,NA,NA,NA,NA,NA,NA,"","",1,1,"2024-08-23_14h32.51.399","IAT(Formal)","2021.2.3","Win32",120.105693,"",NA,"",NA,NA,NA,NA,NA,NA,NA,"","","",NA,"i",1,0.597,NA,NA,NA,NA,NA,"他","i","",NA,1,32,112,5,1,"",NA,"",NA,NA,NA,NA,NA,NA,NA,"",NA,"",NA,NA,NA,NA,NA,NA,NA,"","","",NA,"",NA,NA,NA,NA,NA,NA,NA,"",NA,"8"
"",NA,"",NA,"",NA,NA,NA,NA,NA,NA,NA,"","",1,1,"2024-08-23_14h32.51.399","IAT(Formal)","2021.2.3","Win32",120.105693,"",NA,"",NA,NA,NA,NA,NA,NA,NA,"","","",NA,"e",1,0.5913,NA,NA,NA,NA,NA,"崇高","e","",NA,1,33,113,11,1,"",NA,"",NA,NA,NA,NA,NA,NA,NA,"",NA,"",NA,NA,NA,NA,NA,NA,NA,"","","",NA,"",NA,NA,NA,NA,NA,NA,NA,"",NA,"8"
"",NA,"",NA,"",NA,NA,NA,NA,NA,NA,NA,"","",1,1,"2024-08-23_14h32.51.399","IAT(Formal)","2021.2.3","Win32",120.105693,"",NA,"",NA,NA,NA,NA,NA,NA,NA,"","","",NA,"i",1,0.5842,NA,NA,NA,NA,NA,"傲慢","i","",NA,1,34,114,37,1,"",NA,"",NA,NA,NA,NA,NA,NA,NA,"",NA,"",NA,NA,NA,NA,NA,NA,NA,"","","",NA,"",NA,NA,NA,NA,NA,NA,NA,"",NA,"8"
"",NA,"",NA,"",NA,NA,NA,NA,NA,NA,NA,"","",1,1,"2024-08-23_14h32.51.399","IAT(Formal)","2021.2.3","Win32",120.105693,"",NA,"",NA,NA,NA,NA,NA,NA,NA,"","","",NA,"e",1,0.4399,NA,NA,NA,NA,NA,"优秀","e","",NA,1,35,115,10,1,"",NA,"",NA,NA,NA,NA,NA,NA,NA,"",NA,"",NA,NA,NA,NA,NA,NA,NA,"","","",NA,"",NA,NA,NA,NA,NA,NA,NA,"",NA,"8"
"",NA,"",NA,"",NA,NA,NA,NA,NA,NA,NA,"","",1,1,"2024-08-23_14h32.51.399","IAT(Formal)","2021.2.3","Win32",120.105693,"",NA,"",NA,NA,NA,NA,NA,NA,NA,"","","",NA,"i",1,0.5889,NA,NA,NA,NA,NA,"他的","i","",NA,1,36,116,57,1,"",NA,"",NA,NA,NA,NA,NA,NA,NA,"",NA,"",NA,NA,NA,NA,NA,NA,NA,"","","",NA,"",NA,NA,NA,NA,NA,NA,NA,"",NA,"8"
"",NA,"",NA,"",NA,NA,NA,NA,NA,NA,NA,"","",1,1,"2024-08-23_14h32.51.399","IAT(Formal)","2021.2.3","Win32",120.105693,"",NA,"",NA,NA,NA,NA,NA,NA,NA,"","","",NA,"i",1,0.4279,NA,NA,NA,NA,NA,"他","i","",NA,1,37,117,55,1,"",NA,"",NA,NA,NA,NA,NA,NA,NA,"",NA,"",NA,NA,NA,NA,NA,NA,NA,"","","",NA,"",NA,NA,NA,NA,NA,NA,NA,"",NA,"8"
"",NA,"",NA,"",NA,NA,NA,NA,NA,NA,NA,"","",1,1,"2024-08-23_14h32.51.399","IAT(Formal)","2021.2.3","Win32",120.105693,"",NA,"",NA,NA,NA,NA,NA,NA,NA,"","","",NA,"e",1,0.5826,NA,NA,NA,NA,NA,"俺","e","",NA,1,38,118,54,1,"",NA,"",NA,NA,NA,NA,NA,NA,NA,"",NA,"",NA,NA,NA,NA,NA,NA,NA,"","","",NA,"",NA,NA,NA,NA,NA,NA,NA,"",NA,"8"
"",NA,"",NA,"",NA,NA,NA,NA,NA,NA,NA,"","",1,1,"2024-08-23_14h32.51.399","IAT(Formal)","2021.2.3","Win32",120.105693,"",NA,"",NA,NA,NA,NA,NA,NA,NA,"","","",NA,"e",1,0.7305,NA,NA,NA,NA,NA,"我的","e","",NA,1,39,119,51,1,"",NA,"",NA,NA,NA,NA,NA,NA,NA,"",NA,"",NA,NA,NA,NA,NA,NA,NA,"","","",NA,"",NA,NA,NA,NA,NA,NA,NA,"",NA,"8"
"",NA,"",NA,"",NA,NA,NA,NA,NA,NA,NA,"","",1,1,"2024-08-23_14h32.51.399","IAT(Formal)","2021.2.3","Win32",120.105693,"",NA,"",NA,NA,NA,NA,NA,NA,NA,"","","",NA,"e",1,0.4068,NA,NA,NA,NA,NA,"我","e","",NA,1,40,120,50,1,"",NA,"",NA,NA,NA,NA,NA,NA,NA,"",NA,"",NA,NA,NA,NA,NA,NA,NA,"","","",NA,"",NA,NA,NA,NA,NA,NA,NA,"",NA,"8"
"",NA,"",NA,"",NA,NA,NA,NA,NA,NA,NA,"","",1,1,"2024-08-23_14h32.51.399","IAT(Formal)","2021.2.3","Win32",120.105693,"",NA,"",NA,NA,NA,NA,NA,NA,NA,"","","",NA,"e",1,0.643,NA,NA,NA,NA,NA,"冷静","e","",NA,1,41,121,26,1,"",NA,"",NA,NA,NA,NA,NA,NA,NA,"",NA,"",NA,NA,NA,NA,NA,NA,NA,"","","",NA,"",NA,NA,NA,NA,NA,NA,NA,"",NA,"8"
"",NA,"",NA,"",NA,NA,NA,NA,NA,NA,NA,"","",1,1,"2024-08-23_14h32.51.399","IAT(Formal)","2021.2.3","Win32",120.105693,"",NA,"",NA,NA,NA,NA,NA,NA,NA,"","","",NA,"e",1,0.8755,NA,NA,NA,NA,NA,"细腻","e","",NA,1,42,122,25,1,"",NA,"",NA,NA,NA,NA,NA,NA,NA,"",NA,"",NA,NA,NA,NA,NA,NA,NA,"","","",NA,"",NA,NA,NA,NA,NA,NA,NA,"",NA,"8"
"",NA,"",NA,"",NA,NA,NA,NA,NA,NA,NA,"","",1,1,"2024-08-23_14h32.51.399","IAT(Formal)","2021.2.3","Win32",120.105693,"",NA,"",NA,NA,NA,NA,NA,NA,NA,"","","",NA,"e",1,0.5589,NA,NA,NA,NA,NA,"我的","e","",NA,1,43,123,71,1,"",NA,"",NA,NA,NA,NA,NA,NA,NA,"",NA,"",NA,NA,NA,NA,NA,NA,NA,"","","",NA,"",NA,NA,NA,NA,NA,NA,NA,"",NA,"8"
"",NA,"",NA,"",NA,NA,NA,NA,NA,NA,NA,"","",1,1,"2024-08-23_14h32.51.399","IAT(Formal)","2021.2.3","Win32",120.105693,"",NA,"",NA,NA,NA,NA,NA,NA,NA,"","","",NA,"i",1,0.5927,NA,NA,NA,NA,NA,"猖狂","i","",NA,1,44,124,45,1,"",NA,"",NA,NA,NA,NA,NA,NA,NA,"",NA,"",NA,NA,NA,NA,NA,NA,NA,"","","",NA,"",NA,NA,NA,NA,NA,NA,NA,"",NA,"8"
"",NA,"",NA,"",NA,NA,NA,NA,NA,NA,NA,"","",1,1,"2024-08-23_14h32.51.399","IAT(Formal)","2021.2.3","Win32",120.105693,"",NA,"",NA,NA,NA,NA,NA,NA,NA,"","","",NA,"e",1,0.6838,NA,NA,NA,NA,NA,"杰出","e","",NA,1,45,125,13,1,"",NA,"",NA,NA,NA,NA,NA,NA,NA,"",NA,"",NA,NA,NA,NA,NA,NA,NA,"","","",NA,"",NA,NA,NA,NA,NA,NA,NA,"",NA,"8"
"",NA,"",NA,"",NA,NA,NA,NA,NA,NA,NA,"","",1,1,"2024-08-23_14h32.51.399","IAT(Formal)","2021.2.3","Win32",120.105693,"",NA,"",NA,NA,NA,NA,NA,NA,NA,"","","",NA,"i",1,0.4836,NA,NA,NA,NA,NA,"执拗","i","",NA,1,46,126,40,1,"",NA,"",NA,NA,NA,NA,NA,NA,NA,"",NA,"",NA,NA,NA,NA,NA,NA,NA,"","","",NA,"",NA,NA,NA,NA,NA,NA,NA,"",NA,"8"
"",NA,"",NA,"",NA,NA,NA,NA,NA,NA,NA,"","",1,1,"2024-08-23_14h32.51.399","IAT(Formal)","2021.2.3","Win32",120.105693,"",NA,"",NA,NA,NA,NA,NA,NA,NA,"","","",NA,"i",1,0.7173,NA,NA,NA,NA,NA,"固执","i","",NA,1,47,127,47,1,"",NA,"",NA,NA,NA,NA,NA,NA,NA,"",NA,"",NA,NA,NA,NA,NA,NA,NA,"","","",NA,"",NA,NA,NA,NA,NA,NA,NA,"",NA,"8"
"",NA,"",NA,"",NA,NA,NA,NA,NA,NA,NA,"","",1,1,"2024-08-23_14h32.51.399","IAT(Formal)","2021.2.3","Win32",120.105693,"",NA,"",NA,NA,NA,NA,NA,NA,NA,"","","",NA,"i",1,0.5425,NA,NA,NA,NA,NA,"下贱","i","",NA,1,48,128,49,1,"",NA,"",NA,NA,NA,NA,NA,NA,NA,"",NA,"",NA,NA,NA,NA,NA,NA,NA,"","","",NA,"",NA,NA,NA,NA,NA,NA,NA,"",NA,"8"
"",NA,"",NA,"",NA,NA,NA,NA,NA,NA,NA,"","",1,1,"2024-08-23_14h32.51.399","IAT(Formal)","2021.2.3","Win32",120.105693,"",NA,"",NA,NA,NA,NA,NA,NA,NA,"","","",NA,"i",1,0.4924,NA,NA,NA,NA,NA,"虚伪","i","",NA,1,49,129,31,1,"",NA,"",NA,NA,NA,NA,NA,NA,NA,"",NA,"",NA,NA,NA,NA,NA,NA,NA,"","","",NA,"",NA,NA,NA,NA,NA,NA,NA,"",NA,"8"
"",NA,"",NA,"",NA,NA,NA,NA,NA,NA,NA,"","",1,1,"2024-08-23_14h32.51.399","IAT(Formal)","2021.2.3","Win32",120.105693,"",NA,"",NA,NA,NA,NA,NA,NA,NA,"","","",NA,"i",1,0.584,NA,NA,NA,NA,NA,"其他","i","",NA,1,50,130,69,1,"",NA,"",NA,NA,NA,NA,NA,NA,NA,"",NA,"",NA,NA,NA,NA,NA,NA,NA,"","","",NA,"",NA,NA,NA,NA,NA,NA,NA,"",NA,"8"
"",NA,"",NA,"",NA,NA,NA,NA,NA,NA,NA,"","",1,1,"2024-08-23_14h32.51.399","IAT(Formal)","2021.2.3","Win32",120.105693,"",NA,"",NA,NA,NA,NA,NA,NA,NA,"","","",NA,"e",1,0.5259,NA,NA,NA,NA,NA,"机智","e","",NA,1,51,131,19,1,"",NA,"",NA,NA,NA,NA,NA,NA,NA,"",NA,"",NA,NA,NA,NA,NA,NA,NA,"","","",NA,"",NA,NA,NA,NA,NA,NA,NA,"",NA,"8"
"",NA,"",NA,"",NA,NA,NA,NA,NA,NA,NA,"","",1,1,"2024-08-23_14h32.51.399","IAT(Formal)","2021.2.3","Win32",120.105693,"",NA,"",NA,NA,NA,NA,NA,NA,NA,"","","",NA,"i",1,0.7424,NA,NA,NA,NA,NA,"他们","i","",NA,1,52,132,6,1,"",NA,"",NA,NA,NA,NA,NA,NA,NA,"",NA,"",NA,NA,NA,NA,NA,NA,NA,"","","",NA,"",NA,NA,NA,NA,NA,NA,NA,"",NA,"8"
"",NA,"",NA,"",NA,NA,NA,NA,NA,NA,NA,"","",1,1,"2024-08-23_14h32.51.399","IAT(Formal)","2021.2.3","Win32",120.105693,"",NA,"",NA,NA,NA,NA,NA,NA,NA,"","","",NA,"e",1,0.6929,NA,NA,NA,NA,NA,"我们","e","",NA,1,53,133,72,1,"",NA,"",NA,NA,NA,NA,NA,NA,NA,"",NA,"",NA,NA,NA,NA,NA,NA,NA,"","","",NA,"",NA,NA,NA,NA,NA,NA,NA,"",NA,"8"
"",NA,"",NA,"",NA,NA,NA,NA,NA,NA,NA,"","",1,1,"2024-08-23_14h32.51.399","IAT(Formal)","2021.2.3","Win32",120.105693,"",NA,"",NA,NA,NA,NA,NA,NA,NA,"","","",NA,"i",1,0.5839,NA,NA,NA,NA,NA,"刻薄","i","",NA,1,54,134,33,1,"",NA,"",NA,NA,NA,NA,NA,NA,NA,"",NA,"",NA,NA,NA,NA,NA,NA,NA,"","","",NA,"",NA,NA,NA,NA,NA,NA,NA,"",NA,"8"
"",NA,"",NA,"",NA,NA,NA,NA,NA,NA,NA,"","",1,1,"2024-08-23_14h32.51.399","IAT(Formal)","2021.2.3","Win32",120.105693,"",NA,"",NA,NA,NA,NA,NA,NA,NA,"","","",NA,"e",1,0.559,NA,NA,NA,NA,NA,"俺","e","",NA,1,55,135,4,1,"",NA,"",NA,NA,NA,NA,NA,NA,NA,"",NA,"",NA,NA,NA,NA,NA,NA,NA,"","","",NA,"",NA,NA,NA,NA,NA,NA,NA,"",NA,"8"
"",NA,"",NA,"",NA,NA,NA,NA,NA,NA,NA,"","",1,1,"2024-08-23_14h32.51.399","IAT(Formal)","2021.2.3","Win32",120.105693,"",NA,"",NA,NA,NA,NA,NA,NA,NA,"","","",NA,"i",1,0.5594,NA,NA,NA,NA,NA,"暴躁","i","",NA,1,56,136,44,1,"",NA,"",NA,NA,NA,NA,NA,NA,NA,"",NA,"",NA,NA,NA,NA,NA,NA,NA,"","","",NA,"",NA,NA,NA,NA,NA,NA,NA,"",NA,"8"
"",NA,"",NA,"",NA,NA,NA,NA,NA,NA,NA,"","",1,1,"2024-08-23_14h32.51.399","IAT(Formal)","2021.2.3","Win32",120.105693,"",NA,"",NA,NA,NA,NA,NA,NA,NA,"","","",NA,"i",1,0.8343,NA,NA,NA,NA,NA,"他们","i","",NA,1,57,137,76,1,"",NA,"",NA,NA,NA,NA,NA,NA,NA,"",NA,"",NA,NA,NA,NA,NA,NA,NA,"","","",NA,"",NA,NA,NA,NA,NA,NA,NA,"",NA,"8"
"",NA,"",NA,"",NA,NA,NA,NA,NA,NA,NA,"","",1,1,"2024-08-23_14h32.51.399","IAT(Formal)","2021.2.3","Win32",120.105693,"",NA,"",NA,NA,NA,NA,NA,NA,NA,"","","",NA,"i",1,0.5955,NA,NA,NA,NA,NA,"自私","i","",NA,1,58,138,43,1,"",NA,"",NA,NA,NA,NA,NA,NA,NA,"",NA,"",NA,NA,NA,NA,NA,NA,NA,"","","",NA,"",NA,NA,NA,NA,NA,NA,NA,"",NA,"8"
"",NA,"",NA,"",NA,NA,NA,NA,NA,NA,NA,"","",1,1,"2024-08-23_14h32.51.399","IAT(Formal)","2021.2.3","Win32",120.105693,"",NA,"",NA,NA,NA,NA,NA,NA,NA,"","","",NA,"e",1,0.57,NA,NA,NA,NA,NA,"俺","e","",NA,1,59,139,74,1,"",NA,"",NA,NA,NA,NA,NA,NA,NA,"",NA,"",NA,NA,NA,NA,NA,NA,NA,"","","",NA,"",NA,NA,NA,NA,NA,NA,NA,"",NA,"8"
"",NA,"",NA,"",NA,NA,NA,NA,NA,NA,NA,"","",1,1,"2024-08-23_14h32.51.399","IAT(Formal)","2021.2.3","Win32",120.105693,"",NA,"",NA,NA,NA,NA,NA,NA,NA,"","","",NA,"i",1,0.4673,NA,NA,NA,NA,NA,"他们","i","",NA,1,60,140,66,1,"",NA,"",NA,NA,NA,NA,NA,NA,NA,"",NA,"",NA,NA,NA,NA,NA,NA,NA,"","","",NA,"",NA,NA,NA,NA,NA,NA,NA,"",NA,"8"
"",NA,"",NA,"",NA,NA,NA,NA,NA,NA,NA,"","",1,1,"2024-08-23_14h32.51.399","IAT(Formal)","2021.2.3","Win32",120.105693,"",NA,"",NA,NA,NA,NA,NA,NA,NA,"","","",NA,"e",1,0.5593,NA,NA,NA,NA,NA,"勤奋","e","",NA,1,61,141,18,1,"",NA,"",NA,NA,NA,NA,NA,NA,NA,"",NA,"",NA,NA,NA,NA,NA,NA,NA,"","","",NA,"",NA,NA,NA,NA,NA,NA,NA,"",NA,"8"
"",NA,"",NA,"",NA,NA,NA,NA,NA,NA,NA,"","",1,1,"2024-08-23_14h32.51.399","IAT(Formal)","2021.2.3","Win32",120.105693,"",NA,"",NA,NA,NA,NA,NA,NA,NA,"","","",NA,"i",1,0.5751,NA,NA,NA,NA,NA,"轻率","i","",NA,1,62,142,48,1,"",NA,"",NA,NA,NA,NA,NA,NA,NA,"",NA,"",NA,NA,NA,NA,NA,NA,NA,"","","",NA,"",NA,NA,NA,NA,NA,NA,NA,"",NA,"8"
"",NA,"",NA,"",NA,NA,NA,NA,NA,NA,NA,"","",1,1,"2024-08-23_14h32.51.399","IAT(Formal)","2021.2.3","Win32",120.105693,"",NA,"",NA,NA,NA,NA,NA,NA,NA,"","","",NA,"i",1,0.4089,NA,NA,NA,NA,NA,"散漫","i","",NA,1,63,143,41,1,"",NA,"",NA,NA,NA,NA,NA,NA,NA,"",NA,"",NA,NA,NA,NA,NA,NA,NA,"","","",NA,"",NA,NA,NA,NA,NA,NA,NA,"",NA,"8"
"",NA,"",NA,"",NA,NA,NA,NA,NA,NA,NA,"","",1,1,"2024-08-23_14h32.51.399","IAT(Formal)","2021.2.3","Win32",120.105693,"",NA,"",NA,NA,NA,NA,NA,NA,NA,"","","",NA,"i",1,0.6712,NA,NA,NA,NA,NA,"其他","i","",NA,1,64,144,59,1,"",NA,"",NA,NA,NA,NA,NA,NA,NA,"",NA,"",NA,NA,NA,NA,NA,NA,NA,"","","",NA,"",NA,NA,NA,NA,NA,NA,NA,"",NA,"8"
"",NA,"",NA,"",NA,NA,NA,NA,NA,NA,NA,"","",1,1,"2024-08-23_14h32.51.399","IAT(Formal)","2021.2.3","Win32",120.105693,"",NA,"",NA,NA,NA,NA,NA,NA,NA,"","","",NA,"e",1,0.5258,NA,NA,NA,NA,NA,"我们","e","",NA,1,65,145,52,1,"",NA,"",NA,NA,NA,NA,NA,NA,NA,"",NA,"",NA,NA,NA,NA,NA,NA,NA,"","","",NA,"",NA,NA,NA,NA,NA,NA,NA,"",NA,"8"
"",NA,"",NA,"",NA,NA,NA,NA,NA,NA,NA,"","",1,1,"2024-08-23_14h32.51.399","IAT(Formal)","2021.2.3","Win32",120.105693,"",NA,"",NA,NA,NA,NA,NA,NA,NA,"","","",NA,"i",1,0.3618,NA,NA,NA,NA,NA,"他人","i","",NA,1,66,146,68,1,"",NA,"",NA,NA,NA,NA,NA,NA,NA,"",NA,"",NA,NA,NA,NA,NA,NA,NA,"","","",NA,"",NA,NA,NA,NA,NA,NA,NA,"",NA,"8"
"",NA,"",NA,"",NA,NA,NA,NA,NA,NA,NA,"","",1,1,"2024-08-23_14h32.51.399","IAT(Formal)","2021.2.3","Win32",120.105693,"",NA,"",NA,NA,NA,NA,NA,NA,NA,"","","",NA,"e",1,0.5622,NA,NA,NA,NA,NA,"聪明","e","",NA,1,67,147,12,1,"",NA,"",NA,NA,NA,NA,NA,NA,NA,"",NA,"",NA,NA,NA,NA,NA,NA,NA,"","","",NA,"",NA,NA,NA,NA,NA,NA,NA,"",NA,"8"
"",NA,"",NA,"",NA,NA,NA,NA,NA,NA,NA,"","",1,1,"2024-08-23_14h32.51.399","IAT(Formal)","2021.2.3","Win32",120.105693,"",NA,"",NA,NA,NA,NA,NA,NA,NA,"","","",NA,"e",1,0.5453,NA,NA,NA,NA,NA,"我","e","",NA,1,68,148,0,1,"",NA,"",NA,NA,NA,NA,NA,NA,NA,"",NA,"",NA,NA,NA,NA,NA,NA,NA,"","","",NA,"",NA,NA,NA,NA,NA,NA,NA,"",NA,"8"
"",NA,"",NA,"",NA,NA,NA,NA,NA,NA,NA,"","",1,1,"2024-08-23_14h32.51.399","IAT(Formal)","2021.2.3","Win32",120.105693,"",NA,"",NA,NA,NA,NA,NA,NA,NA,"","","",NA,"i",1,0.4592,NA,NA,NA,NA,NA,"消极","i","",NA,1,69,149,35,1,"",NA,"",NA,NA,NA,NA,NA,NA,NA,"",NA,"",NA,NA,NA,NA,NA,NA,NA,"","","",NA,"",NA,NA,NA,NA,NA,NA,NA,"",NA,"8"
"",NA,"",NA,"",NA,NA,NA,NA,NA,NA,NA,"","",1,1,"2024-08-23_14h32.51.399","IAT(Formal)","2021.2.3","Win32",120.105693,"",NA,"",NA,NA,NA,NA,NA,NA,NA,"","","",NA,"e",1,0.5753,NA,NA,NA,NA,NA,"我","e","",NA,1,70,150,70,1,"",NA,"",NA,NA,NA,NA,NA,NA,NA,"",NA,"",NA,NA,NA,NA,NA,NA,NA,"","","",NA,"",NA,NA,NA,NA,NA,NA,NA,"",NA,"8"
"",NA,"",NA,"",NA,NA,NA,NA,NA,NA,NA,"","",1,1,"2024-08-23_14h32.51.399","IAT(Formal)","2021.2.3","Win32",120.105693,"",NA,"",NA,NA,NA,NA,NA,NA,NA,"","","",NA,"e",1,0.5294,NA,NA,NA,NA,NA,"正直","e","",NA,1,71,151,16,1,"",NA,"",NA,NA,NA,NA,NA,NA,NA,"",NA,"",NA,NA,NA,NA,NA,NA,NA,"","","",NA,"",NA,NA,NA,NA,NA,NA,NA,"",NA,"8"
"",NA,"",NA,"",NA,NA,NA,NA,NA,NA,NA,"","",1,1,"2024-08-23_14h32.51.399","IAT(Formal)","2021.2.3","Win32",120.105693,"",NA,"",NA,NA,NA,NA,NA,NA,NA,"","","",NA,"e",1,0.6028,NA,NA,NA,NA,NA,"我们","e","",NA,1,72,152,2,1,"",NA,"",NA,NA,NA,NA,NA,NA,NA,"",NA,"",NA,NA,NA,NA,NA,NA,NA,"","","",NA,"",NA,NA,NA,NA,NA,NA,NA,"",NA,"8"
"",NA,"",NA,"",NA,NA,NA,NA,NA,NA,NA,"","",1,1,"2024-08-23_14h32.51.399","IAT(Formal)","2021.2.3","Win32",120.105693,"",NA,"",NA,NA,NA,NA,NA,NA,NA,"","","",NA,"i",1,0.4752,NA,NA,NA,NA,NA,"野蛮","i","",NA,1,73,153,46,1,"",NA,"",NA,NA,NA,NA,NA,NA,NA,"",NA,"",NA,NA,NA,NA,NA,NA,NA,"","","",NA,"",NA,NA,NA,NA,NA,NA,NA,"",NA,"8"
"",NA,"",NA,"",NA,NA,NA,NA,NA,NA,NA,"","",1,1,"2024-08-23_14h32.51.399","IAT(Formal)","2021.2.3","Win32",120.105693,"",NA,"",NA,NA,NA,NA,NA,NA,NA,"","","",NA,"e",1,0.5169,NA,NA,NA,NA,NA,"自己","e","",NA,1,74,154,53,1,"",NA,"",NA,NA,NA,NA,NA,NA,NA,"",NA,"",NA,NA,NA,NA,NA,NA,NA,"","","",NA,"",NA,NA,NA,NA,NA,NA,NA,"",NA,"8"
"",NA,"",NA,"",NA,NA,NA,NA,NA,NA,NA,"","",1,1,"2024-08-23_14h32.51.399","IAT(Formal)","2021.2.3","Win32",120.105693,"",NA,"",NA,NA,NA,NA,NA,NA,NA,"","","",NA,"i",1,0.6017,NA,NA,NA,NA,NA,"他的","i","",NA,1,75,155,77,1,"",NA,"",NA,NA,NA,NA,NA,NA,NA,"",NA,"",NA,NA,NA,NA,NA,NA,NA,"","","",NA,"",NA,NA,NA,NA,NA,NA,NA,"",NA,"8"
"",NA,"",NA,"",NA,NA,NA,NA,NA,NA,NA,"","",1,1,"2024-08-23_14h32.51.399","IAT(Formal)","2021.2.3","Win32",120.105693,"",NA,"",NA,NA,NA,NA,NA,NA,NA,"","","",NA,"i",1,0.5254,NA,NA,NA,NA,NA,"他人","i","",NA,1,76,156,58,1,"",NA,"",NA,NA,NA,NA,NA,NA,NA,"",NA,"",NA,NA,NA,NA,NA,NA,NA,"","","",NA,"",NA,NA,NA,NA,NA,NA,NA,"",NA,"8"
"",NA,"",NA,"",NA,NA,NA,NA,NA,NA,NA,"","",1,1,"2024-08-23_14h32.51.399","IAT(Formal)","2021.2.3","Win32",120.105693,"",NA,"",NA,NA,NA,NA,NA,NA,NA,"","","",NA,"i",1,0.6339,NA,NA,NA,NA,NA,"冒失","i","",NA,1,77,157,39,1,"",NA,"",NA,NA,NA,NA,NA,NA,NA,"",NA,"",NA,NA,NA,NA,NA,NA,NA,"","","",NA,"",NA,NA,NA,NA,NA,NA,NA,"",NA,"8"
"",NA,"",NA,"",NA,NA,NA,NA,NA,NA,NA,"","",1,1,"2024-08-23_14h32.51.399","IAT(Formal)","2021.2.3","Win32",120.105693,"",NA,"",NA,NA,NA,NA,NA,NA,NA,"","","",NA,"i",1,0.5279,NA,NA,NA,NA,NA,"他的","i","",NA,1,78,158,67,1,"",NA,"",NA,NA,NA,NA,NA,NA,NA,"",NA,"",NA,NA,NA,NA,NA,NA,NA,"","","",NA,"",NA,NA,NA,NA,NA,NA,NA,"",NA,"8"
"",NA,"",NA,"",NA,NA,NA,NA,NA,NA,NA,"","",1,1,"2024-08-23_14h32.51.399","IAT(Formal)","2021.2.3","Win32",120.105693,"",NA,"",NA,NA,NA,NA,NA,NA,NA,"","","",NA,"e",1,0.4753,NA,NA,NA,NA,NA,"俺","e","",NA,1,79,159,64,1,"",NA,"",NA,NA,NA,NA,NA,NA,NA,"",NA,"",NA,NA,NA,NA,NA,NA,NA,"","","",NA,"",NA,NA,NA,NA,NA,NA,NA,"",NA,"8"
"",NA,"",NA,"",NA,NA,NA,NA,NA,NA,NA,"我的","i",1,1,"2024-08-23_14h32.51.399","IAT(Formal)","2021.2.3","Win32",120.105693,"",NA,"",NA,NA,NA,NA,NA,NA,NA,"","","",NA,"",NA,NA,NA,NA,NA,NA,NA,"","","",NA,NA,NA,NA,NA,NA,"space",12.8101,"e",0,0.4841,0,0,0,1,1,"",NA,"",NA,NA,NA,NA,NA,NA,NA,"","","",NA,"",NA,NA,NA,NA,NA,NA,NA,"",NA,"8"
"",NA,"",NA,"",NA,NA,NA,NA,NA,NA,NA,"自己","i",1,1,"2024-08-23_14h32.51.399","IAT(Formal)","2021.2.3","Win32",120.105693,"",NA,"",NA,NA,NA,NA,NA,NA,NA,"","","",NA,"",NA,NA,NA,NA,NA,NA,NA,"","","",NA,NA,NA,NA,NA,NA,"",NA,"i",1,1.2202,0,1,1,3,1,"",NA,"",NA,NA,NA,NA,NA,NA,NA,"","","",NA,"",NA,NA,NA,NA,NA,NA,NA,"",NA,"8"
"",NA,"",NA,"",NA,NA,NA,NA,NA,NA,NA,"我们","i",1,1,"2024-08-23_14h32.51.399","IAT(Formal)","2021.2.3","Win32",120.105693,"",NA,"",NA,NA,NA,NA,NA,NA,NA,"","","",NA,"",NA,NA,NA,NA,NA,NA,NA,"","","",NA,NA,NA,NA,NA,NA,"",NA,"i",1,0.4267,0,2,2,2,1,"",NA,"",NA,NA,NA,NA,NA,NA,NA,"","","",NA,"",NA,NA,NA,NA,NA,NA,NA,"",NA,"8"
"",NA,"",NA,"",NA,NA,NA,NA,NA,NA,NA,"他的","e",1,1,"2024-08-23_14h32.51.399","IAT(Formal)","2021.2.3","Win32",120.105693,"",NA,"",NA,NA,NA,NA,NA,NA,NA,"","","",NA,"",NA,NA,NA,NA,NA,NA,NA,"","","",NA,NA,NA,NA,NA,NA,"",NA,"e",1,0.6446,0,3,3,7,1,"",NA,"",NA,NA,NA,NA,NA,NA,NA,"","","",NA,"",NA,NA,NA,NA,NA,NA,NA,"",NA,"8"
"",NA,"",NA,"",NA,NA,NA,NA,NA,NA,NA,"我","i",1,1,"2024-08-23_14h32.51.399","IAT(Formal)","2021.2.3","Win32",120.105693,"",NA,"",NA,NA,NA,NA,NA,NA,NA,"","","",NA,"",NA,NA,NA,NA,NA,NA,NA,"","","",NA,NA,NA,NA,NA,NA,"",NA,"i",1,0.5097,0,4,4,0,1,"",NA,"",NA,NA,NA,NA,NA,NA,NA,"","","",NA,"",NA,NA,NA,NA,NA,NA,NA,"",NA,"8"
"",NA,"",NA,"",NA,NA,NA,NA,NA,NA,NA,"其他","e",1,1,"2024-08-23_14h32.51.399","IAT(Formal)","2021.2.3","Win32",120.105693,"",NA,"",NA,NA,NA,NA,NA,NA,NA,"","","",NA,"",NA,NA,NA,NA,NA,NA,NA,"","","",NA,NA,NA,NA,NA,NA,"",NA,"e",1,0.8358,0,5,5,9,1,"",NA,"",NA,NA,NA,NA,NA,NA,NA,"","","",NA,"",NA,NA,NA,NA,NA,NA,NA,"",NA,"8"
"",NA,"",NA,"",NA,NA,NA,NA,NA,NA,NA,"俺","i",1,1,"2024-08-23_14h32.51.399","IAT(Formal)","2021.2.3","Win32",120.105693,"",NA,"",NA,NA,NA,NA,NA,NA,NA,"","","",NA,"",NA,NA,NA,NA,NA,NA,NA,"","","",NA,NA,NA,NA,NA,NA,"",NA,"i",1,1.0155,0,6,6,4,1,"",NA,"",NA,NA,NA,NA,NA,NA,NA,"","","",NA,"",NA,NA,NA,NA,NA,NA,NA,"",NA,"8"
"",NA,"",NA,"",NA,NA,NA,NA,NA,NA,NA,"他们","e",1,1,"2024-08-23_14h32.51.399","IAT(Formal)","2021.2.3","Win32",120.105693,"",NA,"",NA,NA,NA,NA,NA,NA,NA,"","","",NA,"",NA,NA,NA,NA,NA,NA,NA,"","","",NA,NA,NA,NA,NA,NA,"",NA,"e",1,0.7637,0,7,7,6,1,"",NA,"",NA,NA,NA,NA,NA,NA,NA,"","","",NA,"",NA,NA,NA,NA,NA,NA,NA,"",NA,"8"
"",NA,"",NA,"",NA,NA,NA,NA,NA,NA,NA,"他人","e",1,1,"2024-08-23_14h32.51.399","IAT(Formal)","2021.2.3","Win32",120.105693,"",NA,"",NA,NA,NA,NA,NA,NA,NA,"","","",NA,"",NA,NA,NA,NA,NA,NA,NA,"","","",NA,NA,NA,NA,NA,NA,"",NA,"e",1,0.4839,0,8,8,8,1,"",NA,"",NA,NA,NA,NA,NA,NA,NA,"","","",NA,"",NA,NA,NA,NA,NA,NA,NA,"",NA,"8"
"",NA,"",NA,"",NA,NA,NA,NA,NA,NA,NA,"他","e",1,1,"2024-08-23_14h32.51.399","IAT(Formal)","2021.2.3","Win32",120.105693,"",NA,"",NA,NA,NA,NA,NA,NA,NA,"","","",NA,"",NA,NA,NA,NA,NA,NA,NA,"","","",NA,NA,NA,NA,NA,NA,"",NA,"e",1,0.4698,0,9,9,5,1,"",NA,"",NA,NA,NA,NA,NA,NA,NA,"","","",NA,"",NA,NA,NA,NA,NA,NA,NA,"",NA,"8"
"",NA,"",NA,"",NA,NA,NA,NA,NA,NA,NA,"","",1,1,"2024-08-23_14h32.51.399","IAT(Formal)","2021.2.3","Win32",120.105693,"",NA,"",NA,NA,NA,NA,NA,NA,NA,"","","",NA,"",NA,NA,NA,NA,NA,NA,NA,"","","",NA,NA,NA,NA,NA,NA,"",NA,"",NA,NA,NA,NA,NA,NA,NA,"space",8.2347,"i",0,0.718,0,0,0,55,1,"他","e","",NA,"",NA,NA,NA,NA,NA,NA,NA,"",NA,"8"
"",NA,"",NA,"",NA,NA,NA,NA,NA,NA,NA,"","",1,1,"2024-08-23_14h32.51.399","IAT(Formal)","2021.2.3","Win32",120.105693,"",NA,"",NA,NA,NA,NA,NA,NA,NA,"","","",NA,"",NA,NA,NA,NA,NA,NA,NA,"","","",NA,NA,NA,NA,NA,NA,"",NA,"",NA,NA,NA,NA,NA,NA,NA,"",NA,"e",0,0.812,0,1,1,49,1,"下贱","i","",NA,"",NA,NA,NA,NA,NA,NA,NA,"",NA,"8"
"",NA,"",NA,"",NA,NA,NA,NA,NA,NA,NA,"","",1,1,"2024-08-23_14h32.51.399","IAT(Formal)","2021.2.3","Win32",120.105693,"",NA,"",NA,NA,NA,NA,NA,NA,NA,"","","",NA,"",NA,NA,NA,NA,NA,NA,NA,"","","",NA,NA,NA,NA,NA,NA,"",NA,"",NA,NA,NA,NA,NA,NA,NA,"",NA,"",0,NA,0,2,2,4,1,"俺","i","",NA,"",NA,NA,NA,NA,NA,NA,NA,"",NA,"8"
"",NA,"",NA,"",NA,NA,NA,NA,NA,NA,NA,"","",1,1,"2024-08-23_14h32.51.399","IAT(Formal)","2021.2.3","Win32",120.105693,"",NA,"",NA,NA,NA,NA,NA,NA,NA,"","","",NA,"",NA,NA,NA,NA,NA,NA,NA,"","","",NA,NA,NA,NA,NA,NA,"",NA,"",NA,NA,NA,NA,NA,NA,NA,"",NA,"i",0,1.0967,0,3,3,21,1,"稳重","e","",NA,"",NA,NA,NA,NA,NA,NA,NA,"",NA,"8"
"",NA,"",NA,"",NA,NA,NA,NA,NA,NA,NA,"","",1,1,"2024-08-23_14h32.51.399","IAT(Formal)","2021.2.3","Win32",120.105693,"",NA,"",NA,NA,NA,NA,NA,NA,NA,"","","",NA,"",NA,NA,NA,NA,NA,NA,NA,"","","",NA,NA,NA,NA,NA,NA,"",NA,"",NA,NA,NA,NA,NA,NA,NA,"",NA,"i",0,1.0765,0,4,4,66,1,"他们","e","",NA,"",NA,NA,NA,NA,NA,NA,NA,"",NA,"8"
"",NA,"",NA,"",NA,NA,NA,NA,NA,NA,NA,"","",1,1,"2024-08-23_14h32.51.399","IAT(Formal)","2021.2.3","Win32",120.105693,"",NA,"",NA,NA,NA,NA,NA,NA,NA,"","","",NA,"",NA,NA,NA,NA,NA,NA,NA,"","","",NA,NA,NA,NA,NA,NA,"",NA,"",NA,NA,NA,NA,NA,NA,NA,"",NA,"e",1,0.9141,0,5,5,14,1,"乐观","e","",NA,"",NA,NA,NA,NA,NA,NA,NA,"",NA,"8"
"",NA,"",NA,"",NA,NA,NA,NA,NA,NA,NA,"","",1,1,"2024-08-23_14h32.51.399","IAT(Formal)","2021.2.3","Win32",120.105693,"",NA,"",NA,NA,NA,NA,NA,NA,NA,"","","",NA,"",NA,NA,NA,NA,NA,NA,NA,"","","",NA,NA,NA,NA,NA,NA,"",NA,"",NA,NA,NA,NA,NA,NA,NA,"",NA,"i",0,0.6808,0,6,6,58,1,"他人","e","",NA,"",NA,NA,NA,NA,NA,NA,NA,"",NA,"8"
