﻿Instruction1.keys,Instruction1.rt,Instruction2.keys,Instruction2.rt,key_resp_iso.keys,key_resp_iso.corr,Practice_01.thisRepN,Practice_01.thisTrialN,Practice_01.thisN,Practice_01.thisIndex,Practice_01.ran,Words,ans,participant,session,date,expName,psychopyVersion,OS,frameRate,key_resp_iso.rt,key_resp_3.keys,key_resp_3.rt,key_resp_ipn.keys,key_resp_ipn.corr,key_resp_ipn.rt,Practice_02.thisRepN,Practice_02.thisTrialN,Practice_02.thisN,Practice_02.thisIndex,Practice_02.ran,Words_ipn,ans_ipn,key_resp_4.keys,key_resp_4.rt,key_resp_t1.keys,key_resp_t1.corr,key_resp_t1.rt,Practice_T1.thisRepN,Practice_T1.thisTrialN,Practice_T1.thisN,Practice_T1.thisIndex,Practice_T1.ran,Words_t1,ans_t1,key_resp_5.keys,key_resp_5.rt,Formal_T1.thisRepN,Formal_T1.thisTrialN,Formal_T1.thisN,Formal_T1.thisIndex,Formal_T1.ran,key_resp_6.keys,key_resp_6.rt,key_resp_iso_reverse.keys,key_resp_iso_reverse.corr,key_resp_iso_reverse.rt,Practice_iso_Reverse.thisRepN,Practice_iso_Reverse.thisTrialN,Practice_iso_Reverse.thisN,Practice_iso_Reverse.thisIndex,Practice_iso_Reverse.ran,key_resp_7.keys,key_resp_7.rt,key_resp_t2_Practice.keys,key_resp_t2_Practice.corr,Practice_t2_Reverse.thisRepN,Practice_t2_Reverse.thisTrialN,Practice_t2_Reverse.thisN,Practice_t2_Reverse.thisIndex,Practice_t2_Reverse.ran,Words_t2,ans_t2,key_resp_t2_Practice.rt,key_resp_8.keys,key_resp_8.rt,key_resp_t2.keys,key_resp_t2.corr,key_resp_t2.rt,Formal_t2_reverse.thisRepN,Formal_t2_reverse.thisTrialN,Formal_t2_reverse.thisN,Formal_t2_reverse.thisIndex,Formal_t2_reverse.ran,key_instruct.keys,key_instruct.rt
space,8.5392,space,12.7381,,0,0,0,0,8,1,他人,i,1,001,2025-01-13_20h38.21.943,IAT(Formal),2021.2.3,Win32,60.24096386,,,,,,,,,,,,,,,,,,,,,,,,,,,,,,,,,,,,,,,,,,,,,,,,,,,,,,,,,,,,,,,,,,
,,,,e,1,0,1,1,1,1,我的,e,1,001,2025-01-13_20h38.21.943,IAT(Formal),2021.2.3,Win32,60.24096386,0.7335,,,,,,,,,,,,,,,,,,,,,,,,,,,,,,,,,,,,,,,,,,,,,,,,,,,,,,,,,,,,,,,,,
,,,,i,0,0,2,2,0,1,我,e,1,001,2025-01-13_20h38.21.943,IAT(Formal),2021.2.3,Win32,60.24096386,0.4858,,,,,,,,,,,,,,,,,,,,,,,,,,,,,,,,,,,,,,,,,,,,,,,,,,,,,,,,,,,,,,,,,
,,,,e,1,0,3,3,2,1,我们,e,1,001,2025-01-13_20h38.21.943,IAT(Formal),2021.2.3,Win32,60.24096386,0.7926,,,,,,,,,,,,,,,,,,,,,,,,,,,,,,,,,,,,,,,,,,,,,,,,,,,,,,,,,,,,,,,,,
,,,,i,1,0,4,4,5,1,他,i,1,001,2025-01-13_20h38.21.943,IAT(Formal),2021.2.3,Win32,60.24096386,0.3906,,,,,,,,,,,,,,,,,,,,,,,,,,,,,,,,,,,,,,,,,,,,,,,,,,,,,,,,,,,,,,,,,
,,,,i,1,0,5,5,7,1,他的,i,1,001,2025-01-13_20h38.21.943,IAT(Formal),2021.2.3,Win32,60.24096386,0.7034,,,,,,,,,,,,,,,,,,,,,,,,,,,,,,,,,,,,,,,,,,,,,,,,,,,,,,,,,,,,,,,,,
,,,,i,1,0,6,6,9,1,其他,i,1,001,2025-01-13_20h38.21.943,IAT(Formal),2021.2.3,Win32,60.24096386,0.7435,,,,,,,,,,,,,,,,,,,,,,,,,,,,,,,,,,,,,,,,,,,,,,,,,,,,,,,,,,,,,,,,,
,,,,i,1,0,7,7,6,1,他们,i,1,001,2025-01-13_20h38.21.943,IAT(Formal),2021.2.3,Win32,60.24096386,0.501,,,,,,,,,,,,,,,,,,,,,,,,,,,,,,,,,,,,,,,,,,,,,,,,,,,,,,,,,,,,,,,,,
,,,,e,1,0,8,8,4,1,俺,e,1,001,2025-01-13_20h38.21.943,IAT(Formal),2021.2.3,Win32,60.24096386,0.5242,,,,,,,,,,,,,,,,,,,,,,,,,,,,,,,,,,,,,,,,,,,,,,,,,,,,,,,,,,,,,,,,,
,,,,e,1,0,9,9,3,1,自己,e,1,001,2025-01-13_20h38.21.943,IAT(Formal),2021.2.3,Win32,60.24096386,0.6506,,,,,,,,,,,,,,,,,,,,,,,,,,,,,,,,,,,,,,,,,,,,,,,,,,,,,,,,,,,,,,,,,
,,,,,,,,,,,,,1,001,2025-01-13_20h38.21.943,IAT(Formal),2021.2.3,Win32,60.24096386,,space,4.6343,i,1,1.3775,0,0,0,26,1,自卑,i,,,,,,,,,,,,,,,,,,,,,,,,,,,,,,,,,,,,,,,,,,,,,,,,,,,,,
,,,,,,,,,,,,,1,001,2025-01-13_20h38.21.943,IAT(Formal),2021.2.3,Win32,60.24096386,,,,e,1,0.6673,0,1,1,3,1,杰出,e,,,,,,,,,,,,,,,,,,,,,,,,,,,,,,,,,,,,,,,,,,,,,,,,,,,,,
,,,,,,,,,,,,,1,001,2025-01-13_20h38.21.943,IAT(Formal),2021.2.3,Win32,60.24096386,,,,i,1,0.5043,0,2,2,20,1,卑鄙,i,,,,,,,,,,,,,,,,,,,,,,,,,,,,,,,,,,,,,,,,,,,,,,,,,,,,,
,,,,,,,,,,,,,1,001,2025-01-13_20h38.21.943,IAT(Formal),2021.2.3,Win32,60.24096386,,,,i,1,0.5838,0,3,3,29,1,冒失,i,,,,,,,,,,,,,,,,,,,,,,,,,,,,,,,,,,,,,,,,,,,,,,,,,,,,,
,,,,,,,,,,,,,1,001,2025-01-13_20h38.21.943,IAT(Formal),2021.2.3,Win32,60.24096386,,,,i,1,0.5551,0,4,4,28,1,鲁莽,i,,,,,,,,,,,,,,,,,,,,,,,,,,,,,,,,,,,,,,,,,,,,,,,,,,,,,
,,,,,,,,,,,,,1,001,2025-01-13_20h38.21.943,IAT(Formal),2021.2.3,Win32,60.24096386,,,,i,1,0.4965,0,5,5,23,1,刻薄,i,,,,,,,,,,,,,,,,,,,,,,,,,,,,,,,,,,,,,,,,,,,,,,,,,,,,,
,,,,,,,,,,,,,1,001,2025-01-13_20h38.21.943,IAT(Formal),2021.2.3,Win32,60.24096386,,,,i,1,0.4361,0,6,6,21,1,虚伪,i,,,,,,,,,,,,,,,,,,,,,,,,,,,,,,,,,,,,,,,,,,,,,,,,,,,,,
,,,,,,,,,,,,,1,001,2025-01-13_20h38.21.943,IAT(Formal),2021.2.3,Win32,60.24096386,,,,e,1,0.5447,0,7,7,6,1,正直,e,,,,,,,,,,,,,,,,,,,,,,,,,,,,,,,,,,,,,,,,,,,,,,,,,,,,,
,,,,,,,,,,,,,1,001,2025-01-13_20h38.21.943,IAT(Formal),2021.2.3,Win32,60.24096386,,,,e,1,0.6013,0,8,8,15,1,细腻,e,,,,,,,,,,,,,,,,,,,,,,,,,,,,,,,,,,,,,,,,,,,,,,,,,,,,,
,,,,,,,,,,,,,1,001,2025-01-13_20h38.21.943,IAT(Formal),2021.2.3,Win32,60.24096386,,,,e,1,0.7401,0,9,9,14,1,朴实,e,,,,,,,,,,,,,,,,,,,,,,,,,,,,,,,,,,,,,,,,,,,,,,,,,,,,,
,,,,,,,,,,,,,1,001,2025-01-13_20h38.21.943,IAT(Formal),2021.2.3,Win32,60.24096386,,,,e,1,0.9222,0,10,10,1,1,崇高,e,,,,,,,,,,,,,,,,,,,,,,,,,,,,,,,,,,,,,,,,,,,,,,,,,,,,,
,,,,,,,,,,,,,1,001,2025-01-13_20h38.21.943,IAT(Formal),2021.2.3,Win32,60.24096386,,,,e,1,0.8395,0,11,11,16,1,冷静,e,,,,,,,,,,,,,,,,,,,,,,,,,,,,,,,,,,,,,,,,,,,,,,,,,,,,,
,,,,,,,,,,,,,1,001,2025-01-13_20h38.21.943,IAT(Formal),2021.2.3,Win32,60.24096386,,,,e,1,0.5014,0,12,12,0,1,优秀,e,,,,,,,,,,,,,,,,,,,,,,,,,,,,,,,,,,,,,,,,,,,,,,,,,,,,,
,,,,,,,,,,,,,1,001,2025-01-13_20h38.21.943,IAT(Formal),2021.2.3,Win32,60.24096386,,,,i,1,0.6927,0,13,13,25,1,消极,i,,,,,,,,,,,,,,,,,,,,,,,,,,,,,,,,,,,,,,,,,,,,,,,,,,,,,
,,,,,,,,,,,,,1,001,2025-01-13_20h38.21.943,IAT(Formal),2021.2.3,Win32,60.24096386,,,,i,1,0.5666,0,14,14,27,1,傲慢,i,,,,,,,,,,,,,,,,,,,,,,,,,,,,,,,,,,,,,,,,,,,,,,,,,,,,,
,,,,,,,,,,,,,1,001,2025-01-13_20h38.21.943,IAT(Formal),2021.2.3,Win32,60.24096386,,,,e,1,0.5561,0,15,15,11,1,稳重,e,,,,,,,,,,,,,,,,,,,,,,,,,,,,,,,,,,,,,,,,,,,,,,,,,,,,,
,,,,,,,,,,,,,1,001,2025-01-13_20h38.21.943,IAT(Formal),2021.2.3,Win32,60.24096386,,,,i,1,0.9905,0,16,16,30,1,执拗,i,,,,,,,,,,,,,,,,,,,,,,,,,,,,,,,,,,,,,,,,,,,,,,,,,,,,,
,,,,,,,,,,,,,1,001,2025-01-13_20h38.21.943,IAT(Formal),2021.2.3,Win32,60.24096386,,,,e,1,0.7341,0,17,17,10,1,认真,e,,,,,,,,,,,,,,,,,,,,,,,,,,,,,,,,,,,,,,,,,,,,,,,,,,,,,
,,,,,,,,,,,,,1,001,2025-01-13_20h38.21.943,IAT(Formal),2021.2.3,Win32,60.24096386,,,,i,1,0.6931,0,18,18,22,1,愚蠢,i,,,,,,,,,,,,,,,,,,,,,,,,,,,,,,,,,,,,,,,,,,,,,,,,,,,,,
,,,,,,,,,,,,,1,001,2025-01-13_20h38.21.943,IAT(Formal),2021.2.3,Win32,60.24096386,,,,e,1,0.7253,0,19,19,4,1,乐观,e,,,,,,,,,,,,,,,,,,,,,,,,,,,,,,,,,,,,,,,,,,,,,,,,,,,,,
,,,,,,,,,,,,,1,001,2025-01-13_20h38.21.943,IAT(Formal),2021.2.3,Win32,60.24096386,,,,e,1,0.6172,0,20,20,2,1,聪明,e,,,,,,,,,,,,,,,,,,,,,,,,,,,,,,,,,,,,,,,,,,,,,,,,,,,,,
,,,,,,,,,,,,,1,001,2025-01-13_20h38.21.943,IAT(Formal),2021.2.3,Win32,60.24096386,,,,i,1,0.6839,0,21,21,35,1,猖狂,i,,,,,,,,,,,,,,,,,,,,,,,,,,,,,,,,,,,,,,,,,,,,,,,,,,,,,
,,,,,,,,,,,,,1,001,2025-01-13_20h38.21.943,IAT(Formal),2021.2.3,Win32,60.24096386,,,,e,1,1.2341,0,22,22,9,1,机智,e,,,,,,,,,,,,,,,,,,,,,,,,,,,,,,,,,,,,,,,,,,,,,,,,,,,,,
,,,,,,,,,,,,,1,001,2025-01-13_20h38.21.943,IAT(Formal),2021.2.3,Win32,60.24096386,,,,e,1,0.5944,0,23,23,7,1,勇敢,e,,,,,,,,,,,,,,,,,,,,,,,,,,,,,,,,,,,,,,,,,,,,,,,,,,,,,
,,,,,,,,,,,,,1,001,2025-01-13_20h38.21.943,IAT(Formal),2021.2.3,Win32,60.24096386,,,,i,1,0.65,0,24,24,34,1,暴躁,i,,,,,,,,,,,,,,,,,,,,,,,,,,,,,,,,,,,,,,,,,,,,,,,,,,,,,
,,,,,,,,,,,,,1,001,2025-01-13_20h38.21.943,IAT(Formal),2021.2.3,Win32,60.24096386,,,,i,1,0.5494,0,25,25,39,1,下贱,i,,,,,,,,,,,,,,,,,,,,,,,,,,,,,,,,,,,,,,,,,,,,,,,,,,,,,
,,,,,,,,,,,,,1,001,2025-01-13_20h38.21.943,IAT(Formal),2021.2.3,Win32,60.24096386,,,,i,1,0.5229,0,26,26,32,1,凶狠,i,,,,,,,,,,,,,,,,,,,,,,,,,,,,,,,,,,,,,,,,,,,,,,,,,,,,,
,,,,,,,,,,,,,1,001,2025-01-13_20h38.21.943,IAT(Formal),2021.2.3,Win32,60.24096386,,,,i,1,0.6048,0,27,27,31,1,散漫,i,,,,,,,,,,,,,,,,,,,,,,,,,,,,,,,,,,,,,,,,,,,,,,,,,,,,,
,,,,,,,,,,,,,1,001,2025-01-13_20h38.21.943,IAT(Formal),2021.2.3,Win32,60.24096386,,,,e,1,0.5914,0,28,28,8,1,勤奋,e,,,,,,,,,,,,,,,,,,,,,,,,,,,,,,,,,,,,,,,,,,,,,,,,,,,,,
,,,,,,,,,,,,,1,001,2025-01-13_20h38.21.943,IAT(Formal),2021.2.3,Win32,60.24096386,,,,i,1,0.7171,0,29,29,37,1,固执,i,,,,,,,,,,,,,,,,,,,,,,,,,,,,,,,,,,,,,,,,,,,,,,,,,,,,,
,,,,,,,,,,,,,1,001,2025-01-13_20h38.21.943,IAT(Formal),2021.2.3,Win32,60.24096386,,,,e,1,0.6939,0,30,30,5,1,诚实,e,,,,,,,,,,,,,,,,,,,,,,,,,,,,,,,,,,,,,,,,,,,,,,,,,,,,,
,,,,,,,,,,,,,1,001,2025-01-13_20h38.21.943,IAT(Formal),2021.2.3,Win32,60.24096386,,,,i,1,0.7533,0,31,31,38,1,轻率,i,,,,,,,,,,,,,,,,,,,,,,,,,,,,,,,,,,,,,,,,,,,,,,,,,,,,,
,,,,,,,,,,,,,1,001,2025-01-13_20h38.21.943,IAT(Formal),2021.2.3,Win32,60.24096386,,,,e,1,1.1004,0,32,32,19,1,诚恳,e,,,,,,,,,,,,,,,,,,,,,,,,,,,,,,,,,,,,,,,,,,,,,,,,,,,,,
,,,,,,,,,,,,,1,001,2025-01-13_20h38.21.943,IAT(Formal),2021.2.3,Win32,60.24096386,,,,e,1,0.7202,0,33,33,13,1,公正,e,,,,,,,,,,,,,,,,,,,,,,,,,,,,,,,,,,,,,,,,,,,,,,,,,,,,,
,,,,,,,,,,,,,1,001,2025-01-13_20h38.21.943,IAT(Formal),2021.2.3,Win32,60.24096386,,,,e,1,0.6667,0,34,34,12,1,无私,e,,,,,,,,,,,,,,,,,,,,,,,,,,,,,,,,,,,,,,,,,,,,,,,,,,,,,
,,,,,,,,,,,,,1,001,2025-01-13_20h38.21.943,IAT(Formal),2021.2.3,Win32,60.24096386,,,,i,1,0.6811,0,35,35,33,1,自私,i,,,,,,,,,,,,,,,,,,,,,,,,,,,,,,,,,,,,,,,,,,,,,,,,,,,,,
,,,,,,,,,,,,,1,001,2025-01-13_20h38.21.943,IAT(Formal),2021.2.3,Win32,60.24096386,,,,i,1,0.7182,0,36,36,24,1,悲观,i,,,,,,,,,,,,,,,,,,,,,,,,,,,,,,,,,,,,,,,,,,,,,,,,,,,,,
,,,,,,,,,,,,,1,001,2025-01-13_20h38.21.943,IAT(Formal),2021.2.3,Win32,60.24096386,,,,e,1,0.5111,0,37,37,17,1,热情,e,,,,,,,,,,,,,,,,,,,,,,,,,,,,,,,,,,,,,,,,,,,,,,,,,,,,,
,,,,,,,,,,,,,1,001,2025-01-13_20h38.21.943,IAT(Formal),2021.2.3,Win32,60.24096386,,,,i,1,0.6444,0,38,38,36,1,野蛮,i,,,,,,,,,,,,,,,,,,,,,,,,,,,,,,,,,,,,,,,,,,,,,,,,,,,,,
,,,,,,,,,,,,,1,001,2025-01-13_20h38.21.943,IAT(Formal),2021.2.3,Win32,60.24096386,,,,e,1,0.5865,0,39,39,18,1,活泼,e,,,,,,,,,,,,,,,,,,,,,,,,,,,,,,,,,,,,,,,,,,,,,,,,,,,,,
,,,,,,,,,,,,,1,001,2025-01-13_20h38.21.943,IAT(Formal),2021.2.3,Win32,60.24096386,,,,,,,,,,,,,,space,6.7601,i,1,0.8675,0,0,0,8,1,他人,i,,,,,,,,,,,,,,,,,,,,,,,,,,,,,,,,,,,,,,,,,
,,,,,,,,,,,,,1,001,2025-01-13_20h38.21.943,IAT(Formal),2021.2.3,Win32,60.24096386,,,,,,,,,,,,,,,,i,1,0.4515,0,1,1,44,1,暴躁,i,,,,,,,,,,,,,,,,,,,,,,,,,,,,,,,,,,,,,,,,,
,,,,,,,,,,,,,1,001,2025-01-13_20h38.21.943,IAT(Formal),2021.2.3,Win32,60.24096386,,,,,,,,,,,,,,,,e,1,0.5501,0,2,2,72,1,我们,e,,,,,,,,,,,,,,,,,,,,,,,,,,,,,,,,,,,,,,,,,
,,,,,,,,,,,,,1,001,2025-01-13_20h38.21.943,IAT(Formal),2021.2.3,Win32,60.24096386,,,,,,,,,,,,,,,,e,1,0.6085,0,3,3,29,1,诚恳,e,,,,,,,,,,,,,,,,,,,,,,,,,,,,,,,,,,,,,,,,,
,,,,,,,,,,,,,1,001,2025-01-13_20h38.21.943,IAT(Formal),2021.2.3,Win32,60.24096386,,,,,,,,,,,,,,,,i,1,0.7194,0,4,4,59,1,其他,i,,,,,,,,,,,,,,,,,,,,,,,,,,,,,,,,,,,,,,,,,
,,,,,,,,,,,,,1,001,2025-01-13_20h38.21.943,IAT(Formal),2021.2.3,Win32,60.24096386,,,,,,,,,,,,,,,,i,0,0.6346,0,5,5,26,1,冷静,e,,,,,,,,,,,,,,,,,,,,,,,,,,,,,,,,,,,,,,,,,
,,,,,,,,,,,,,1,001,2025-01-13_20h38.21.943,IAT(Formal),2021.2.3,Win32,60.24096386,,,,,,,,,,,,,,,,e,1,0.7493,0,6,6,2,1,我们,e,,,,,,,,,,,,,,,,,,,,,,,,,,,,,,,,,,,,,,,,,
,,,,,,,,,,,,,1,001,2025-01-13_20h38.21.943,IAT(Formal),2021.2.3,Win32,60.24096386,,,,,,,,,,,,,,,,e,1,0.5673,0,7,7,54,1,俺,e,,,,,,,,,,,,,,,,,,,,,,,,,,,,,,,,,,,,,,,,,
,,,,,,,,,,,,,1,001,2025-01-13_20h38.21.943,IAT(Formal),2021.2.3,Win32,60.24096386,,,,,,,,,,,,,,,,i,1,0.6748,0,8,8,57,1,他的,i,,,,,,,,,,,,,,,,,,,,,,,,,,,,,,,,,,,,,,,,,
,,,,,,,,,,,,,1,001,2025-01-13_20h38.21.943,IAT(Formal),2021.2.3,Win32,60.24096386,,,,,,,,,,,,,,,,i,1,0.5469,0,9,9,6,1,他们,i,,,,,,,,,,,,,,,,,,,,,,,,,,,,,,,,,,,,,,,,,
,,,,,,,,,,,,,1,001,2025-01-13_20h38.21.943,IAT(Formal),2021.2.3,Win32,60.24096386,,,,,,,,,,,,,,,,i,1,0.5111,0,10,10,38,1,鲁莽,i,,,,,,,,,,,,,,,,,,,,,,,,,,,,,,,,,,,,,,,,,
,,,,,,,,,,,,,1,001,2025-01-13_20h38.21.943,IAT(Formal),2021.2.3,Win32,60.24096386,,,,,,,,,,,,,,,,i,1,0.5402,0,11,11,30,1,卑鄙,i,,,,,,,,,,,,,,,,,,,,,,,,,,,,,,,,,,,,,,,,,
,,,,,,,,,,,,,1,001,2025-01-13_20h38.21.943,IAT(Formal),2021.2.3,Win32,60.24096386,,,,,,,,,,,,,,,,i,1,0.4319,0,12,12,39,1,冒失,i,,,,,,,,,,,,,,,,,,,,,,,,,,,,,,,,,,,,,,,,,
,,,,,,,,,,,,,1,001,2025-01-13_20h38.21.943,IAT(Formal),2021.2.3,Win32,60.24096386,,,,,,,,,,,,,,,,i,1,0.5799,0,13,13,31,1,虚伪,i,,,,,,,,,,,,,,,,,,,,,,,,,,,,,,,,,,,,,,,,,
,,,,,,,,,,,,,1,001,2025-01-13_20h38.21.943,IAT(Formal),2021.2.3,Win32,60.24096386,,,,,,,,,,,,,,,,e,1,0.5681,0,14,14,21,1,稳重,e,,,,,,,,,,,,,,,,,,,,,,,,,,,,,,,,,,,,,,,,,
,,,,,,,,,,,,,1,001,2025-01-13_20h38.21.943,IAT(Formal),2021.2.3,Win32,60.24096386,,,,,,,,,,,,,,,,e,1,0.4558,0,15,15,62,1,我们,e,,,,,,,,,,,,,,,,,,,,,,,,,,,,,,,,,,,,,,,,,
,,,,,,,,,,,,,1,001,2025-01-13_20h38.21.943,IAT(Formal),2021.2.3,Win32,60.24096386,,,,,,,,,,,,,,,,i,1,0.5072,0,16,16,37,1,傲慢,i,,,,,,,,,,,,,,,,,,,,,,,,,,,,,,,,,,,,,,,,,
,,,,,,,,,,,,,1,001,2025-01-13_20h38.21.943,IAT(Formal),2021.2.3,Win32,60.24096386,,,,,,,,,,,,,,,,i,1,0.8041,0,17,17,9,1,其他,i,,,,,,,,,,,,,,,,,,,,,,,,,,,,,,,,,,,,,,,,,
,,,,,,,,,,,,,1,001,2025-01-13_20h38.21.943,IAT(Formal),2021.2.3,Win32,60.24096386,,,,,,,,,,,,,,,,i,1,0.5862,0,18,18,35,1,消极,i,,,,,,,,,,,,,,,,,,,,,,,,,,,,,,,,,,,,,,,,,
,,,,,,,,,,,,,1,001,2025-01-13_20h38.21.943,IAT(Formal),2021.2.3,Win32,60.24096386,,,,,,,,,,,,,,,,,0,,0,19,19,5,1,他,i,,,,,,,,,,,,,,,,,,,,,,,,,,,,,,,,,,,,,,,,,
,,,,,,,,,,,,,1,001,2025-01-13_20h38.21.943,IAT(Formal),2021.2.3,Win32,60.24096386,,,,,,,,,,,,,,,,e,1,0.5361,0,20,20,53,1,自己,e,,,,,,,,,,,,,,,,,,,,,,,,,,,,,,,,,,,,,,,,,
,,,,,,,,,,,,,1,001,2025-01-13_20h38.21.943,IAT(Formal),2021.2.3,Win32,60.24096386,,,,,,,,,,,,,,,,e,1,0.4929,0,21,21,63,1,自己,e,,,,,,,,,,,,,,,,,,,,,,,,,,,,,,,,,,,,,,,,,
,,,,,,,,,,,,,1,001,2025-01-13_20h38.21.943,IAT(Formal),2021.2.3,Win32,60.24096386,,,,,,,,,,,,,,,,i,1,0.9316,0,22,22,48,1,轻率,i,,,,,,,,,,,,,,,,,,,,,,,,,,,,,,,,,,,,,,,,,
,,,,,,,,,,,,,1,001,2025-01-13_20h38.21.943,IAT(Formal),2021.2.3,Win32,60.24096386,,,,,,,,,,,,,,,,i,1,0.6075,0,23,23,47,1,固执,i,,,,,,,,,,,,,,,,,,,,,,,,,,,,,,,,,,,,,,,,,
,,,,,,,,,,,,,1,001,2025-01-13_20h38.21.943,IAT(Formal),2021.2.3,Win32,60.24096386,,,,,,,,,,,,,,,,i,1,0.5948,0,24,24,75,1,他,i,,,,,,,,,,,,,,,,,,,,,,,,,,,,,,,,,,,,,,,,,
,,,,,,,,,,,,,1,001,2025-01-13_20h38.21.943,IAT(Formal),2021.2.3,Win32,60.24096386,,,,,,,,,,,,,,,,e,1,0.5102,0,25,25,19,1,机智,e,,,,,,,,,,,,,,,,,,,,,,,,,,,,,,,,,,,,,,,,,
,,,,,,,,,,,,,1,001,2025-01-13_20h38.21.943,IAT(Formal),2021.2.3,Win32,60.24096386,,,,,,,,,,,,,,,,e,1,0.5142,0,26,26,14,1,乐观,e,,,,,,,,,,,,,,,,,,,,,,,,,,,,,,,,,,,,,,,,,
,,,,,,,,,,,,,1,001,2025-01-13_20h38.21.943,IAT(Formal),2021.2.3,Win32,60.24096386,,,,,,,,,,,,,,,,i,1,0.6166,0,27,27,78,1,他人,i,,,,,,,,,,,,,,,,,,,,,,,,,,,,,,,,,,,,,,,,,
,,,,,,,,,,,,,1,001,2025-01-13_20h38.21.943,IAT(Formal),2021.2.3,Win32,60.24096386,,,,,,,,,,,,,,,,e,1,0.526,0,28,28,1,1,我的,e,,,,,,,,,,,,,,,,,,,,,,,,,,,,,,,,,,,,,,,,,
,,,,,,,,,,,,,1,001,2025-01-13_20h38.21.943,IAT(Formal),2021.2.3,Win32,60.24096386,,,,,,,,,,,,,,,,i,1,0.711,0,29,29,67,1,他的,i,,,,,,,,,,,,,,,,,,,,,,,,,,,,,,,,,,,,,,,,,
,,,,,,,,,,,,,1,001,2025-01-13_20h38.21.943,IAT(Formal),2021.2.3,Win32,60.24096386,,,,,,,,,,,,,,,,e,1,0.55,0,30,30,50,1,我,e,,,,,,,,,,,,,,,,,,,,,,,,,,,,,,,,,,,,,,,,,
,,,,,,,,,,,,,1,001,2025-01-13_20h38.21.943,IAT(Formal),2021.2.3,Win32,60.24096386,,,,,,,,,,,,,,,,i,1,0.5109,0,31,31,49,1,下贱,i,,,,,,,,,,,,,,,,,,,,,,,,,,,,,,,,,,,,,,,,,
,,,,,,,,,,,,,1,001,2025-01-13_20h38.21.943,IAT(Formal),2021.2.3,Win32,60.24096386,,,,,,,,,,,,,,,,i,1,0.6849,0,32,32,56,1,他们,i,,,,,,,,,,,,,,,,,,,,,,,,,,,,,,,,,,,,,,,,,
,,,,,,,,,,,,,1,001,2025-01-13_20h38.21.943,IAT(Formal),2021.2.3,Win32,60.24096386,,,,,,,,,,,,,,,,e,0,0.5129,0,33,33,43,1,自私,i,,,,,,,,,,,,,,,,,,,,,,,,,,,,,,,,,,,,,,,,,
,,,,,,,,,,,,,1,001,2025-01-13_20h38.21.943,IAT(Formal),2021.2.3,Win32,60.24096386,,,,,,,,,,,,,,,,i,1,0.7081,0,34,34,79,1,其他,i,,,,,,,,,,,,,,,,,,,,,,,,,,,,,,,,,,,,,,,,,
,,,,,,,,,,,,,1,001,2025-01-13_20h38.21.943,IAT(Formal),2021.2.3,Win32,60.24096386,,,,,,,,,,,,,,,,e,1,0.4924,0,35,35,4,1,俺,e,,,,,,,,,,,,,,,,,,,,,,,,,,,,,,,,,,,,,,,,,
,,,,,,,,,,,,,1,001,2025-01-13_20h38.21.943,IAT(Formal),2021.2.3,Win32,60.24096386,,,,,,,,,,,,,,,,e,1,0.5672,0,36,36,18,1,勤奋,e,,,,,,,,,,,,,,,,,,,,,,,,,,,,,,,,,,,,,,,,,
,,,,,,,,,,,,,1,001,2025-01-13_20h38.21.943,IAT(Formal),2021.2.3,Win32,60.24096386,,,,,,,,,,,,,,,,e,1,0.5097,0,37,37,23,1,公正,e,,,,,,,,,,,,,,,,,,,,,,,,,,,,,,,,,,,,,,,,,
,,,,,,,,,,,,,1,001,2025-01-13_20h38.21.943,IAT(Formal),2021.2.3,Win32,60.24096386,,,,,,,,,,,,,,,,i,1,0.5726,0,38,38,76,1,他们,i,,,,,,,,,,,,,,,,,,,,,,,,,,,,,,,,,,,,,,,,,
,,,,,,,,,,,,,1,001,2025-01-13_20h38.21.943,IAT(Formal),2021.2.3,Win32,60.24096386,,,,,,,,,,,,,,,,e,1,0.535,0,39,39,15,1,诚实,e,,,,,,,,,,,,,,,,,,,,,,,,,,,,,,,,,,,,,,,,,
,,,,,,,,,,,,,1,001,2025-01-13_20h38.21.943,IAT(Formal),2021.2.3,Win32,60.24096386,,,,,,,,,,,,,,,,e,1,0.6429,0,40,40,13,1,杰出,e,,,,,,,,,,,,,,,,,,,,,,,,,,,,,,,,,,,,,,,,,
,,,,,,,,,,,,,1,001,2025-01-13_20h38.21.943,IAT(Formal),2021.2.3,Win32,60.24096386,,,,,,,,,,,,,,,,i,1,0.4746,0,41,41,7,1,他的,i,,,,,,,,,,,,,,,,,,,,,,,,,,,,,,,,,,,,,,,,,
,,,,,,,,,,,,,1,001,2025-01-13_20h38.21.943,IAT(Formal),2021.2.3,Win32,60.24096386,,,,,,,,,,,,,,,,i,1,0.4168,0,42,42,55,1,他,i,,,,,,,,,,,,,,,,,,,,,,,,,,,,,,,,,,,,,,,,,
,,,,,,,,,,,,,1,001,2025-01-13_20h38.21.943,IAT(Formal),2021.2.3,Win32,60.24096386,,,,,,,,,,,,,,,,e,1,0.4228,0,43,43,52,1,我们,e,,,,,,,,,,,,,,,,,,,,,,,,,,,,,,,,,,,,,,,,,
,,,,,,,,,,,,,1,001,2025-01-13_20h38.21.943,IAT(Formal),2021.2.3,Win32,60.24096386,,,,,,,,,,,,,,,,e,1,0.4262,0,44,44,3,1,自己,e,,,,,,,,,,,,,,,,,,,,,,,,,,,,,,,,,,,,,,,,,
,,,,,,,,,,,,,1,001,2025-01-13_20h38.21.943,IAT(Formal),2021.2.3,Win32,60.24096386,,,,,,,,,,,,,,,,e,1,0.5045,0,45,45,74,1,俺,e,,,,,,,,,,,,,,,,,,,,,,,,,,,,,,,,,,,,,,,,,
,,,,,,,,,,,,,1,001,2025-01-13_20h38.21.943,IAT(Formal),2021.2.3,Win32,60.24096386,,,,,,,,,,,,,,,,i,1,0.6004,0,46,46,66,1,他们,i,,,,,,,,,,,,,,,,,,,,,,,,,,,,,,,,,,,,,,,,,
,,,,,,,,,,,,,1,001,2025-01-13_20h38.21.943,IAT(Formal),2021.2.3,Win32,60.24096386,,,,,,,,,,,,,,,,e,1,0.5059,0,47,47,12,1,聪明,e,,,,,,,,,,,,,,,,,,,,,,,,,,,,,,,,,,,,,,,,,
,,,,,,,,,,,,,1,001,2025-01-13_20h38.21.943,IAT(Formal),2021.2.3,Win32,60.24096386,,,,,,,,,,,,,,,,e,1,0.495,0,48,48,71,1,我的,e,,,,,,,,,,,,,,,,,,,,,,,,,,,,,,,,,,,,,,,,,
,,,,,,,,,,,,,1,001,2025-01-13_20h38.21.943,IAT(Formal),2021.2.3,Win32,60.24096386,,,,,,,,,,,,,,,,i,0,0.4863,0,49,49,16,1,正直,e,,,,,,,,,,,,,,,,,,,,,,,,,,,,,,,,,,,,,,,,,
,,,,,,,,,,,,,1,001,2025-01-13_20h38.21.943,IAT(Formal),2021.2.3,Win32,60.24096386,,,,,,,,,,,,,,,,i,1,0.6019,0,50,50,41,1,散漫,i,,,,,,,,,,,,,,,,,,,,,,,,,,,,,,,,,,,,,,,,,
,,,,,,,,,,,,,1,001,2025-01-13_20h38.21.943,IAT(Formal),2021.2.3,Win32,60.24096386,,,,,,,,,,,,,,,,i,1,0.5033,0,51,51,45,1,猖狂,i,,,,,,,,,,,,,,,,,,,,,,,,,,,,,,,,,,,,,,,,,
,,,,,,,,,,,,,1,001,2025-01-13_20h38.21.943,IAT(Formal),2021.2.3,Win32,60.24096386,,,,,,,,,,,,,,,,e,1,0.6023,0,52,52,17,1,勇敢,e,,,,,,,,,,,,,,,,,,,,,,,,,,,,,,,,,,,,,,,,,
,,,,,,,,,,,,,1,001,2025-01-13_20h38.21.943,IAT(Formal),2021.2.3,Win32,60.24096386,,,,,,,,,,,,,,,,e,1,0.5671,0,53,53,11,1,崇高,e,,,,,,,,,,,,,,,,,,,,,,,,,,,,,,,,,,,,,,,,,
,,,,,,,,,,,,,1,001,2025-01-13_20h38.21.943,IAT(Formal),2021.2.3,Win32,60.24096386,,,,,,,,,,,,,,,,i,1,0.794,0,54,54,40,1,执拗,i,,,,,,,,,,,,,,,,,,,,,,,,,,,,,,,,,,,,,,,,,
,,,,,,,,,,,,,1,001,2025-01-13_20h38.21.943,IAT(Formal),2021.2.3,Win32,60.24096386,,,,,,,,,,,,,,,,e,1,0.4995,0,55,55,20,1,认真,e,,,,,,,,,,,,,,,,,,,,,,,,,,,,,,,,,,,,,,,,,
,,,,,,,,,,,,,1,001,2025-01-13_20h38.21.943,IAT(Formal),2021.2.3,Win32,60.24096386,,,,,,,,,,,,,,,,e,1,0.4802,0,56,56,51,1,我的,e,,,,,,,,,,,,,,,,,,,,,,,,,,,,,,,,,,,,,,,,,
,,,,,,,,,,,,,1,001,2025-01-13_20h38.21.943,IAT(Formal),2021.2.3,Win32,60.24096386,,,,,,,,,,,,,,,,e,1,0.382,0,57,57,73,1,自己,e,,,,,,,,,,,,,,,,,,,,,,,,,,,,,,,,,,,,,,,,,
,,,,,,,,,,,,,1,001,2025-01-13_20h38.21.943,IAT(Formal),2021.2.3,Win32,60.24096386,,,,,,,,,,,,,,,,i,1,0.5305,0,58,58,34,1,悲观,i,,,,,,,,,,,,,,,,,,,,,,,,,,,,,,,,,,,,,,,,,
,,,,,,,,,,,,,1,001,2025-01-13_20h38.21.943,IAT(Formal),2021.2.3,Win32,60.24096386,,,,,,,,,,,,,,,,e,1,0.4383,0,59,59,64,1,俺,e,,,,,,,,,,,,,,,,,,,,,,,,,,,,,,,,,,,,,,,,,
,,,,,,,,,,,,,1,001,2025-01-13_20h38.21.943,IAT(Formal),2021.2.3,Win32,60.24096386,,,,,,,,,,,,,,,,i,0,0.6947,0,60,60,22,1,无私,e,,,,,,,,,,,,,,,,,,,,,,,,,,,,,,,,,,,,,,,,,
,,,,,,,,,,,,,1,001,2025-01-13_20h38.21.943,IAT(Formal),2021.2.3,Win32,60.24096386,,,,,,,,,,,,,,,,e,1,0.8485,0,61,61,27,1,热情,e,,,,,,,,,,,,,,,,,,,,,,,,,,,,,,,,,,,,,,,,,
,,,,,,,,,,,,,1,001,2025-01-13_20h38.21.943,IAT(Formal),2021.2.3,Win32,60.24096386,,,,,,,,,,,,,,,,i,1,0.4886,0,62,62,42,1,凶狠,i,,,,,,,,,,,,,,,,,,,,,,,,,,,,,,,,,,,,,,,,,
,,,,,,,,,,,,,1,001,2025-01-13_20h38.21.943,IAT(Formal),2021.2.3,Win32,60.24096386,,,,,,,,,,,,,,,,i,1,0.5459,0,63,63,33,1,刻薄,i,,,,,,,,,,,,,,,,,,,,,,,,,,,,,,,,,,,,,,,,,
,,,,,,,,,,,,,1,001,2025-01-13_20h38.21.943,IAT(Formal),2021.2.3,Win32,60.24096386,,,,,,,,,,,,,,,,e,1,0.5503,0,64,64,25,1,细腻,e,,,,,,,,,,,,,,,,,,,,,,,,,,,,,,,,,,,,,,,,,
,,,,,,,,,,,,,1,001,2025-01-13_20h38.21.943,IAT(Formal),2021.2.3,Win32,60.24096386,,,,,,,,,,,,,,,,i,1,0.6893,0,65,65,77,1,他的,i,,,,,,,,,,,,,,,,,,,,,,,,,,,,,,,,,,,,,,,,,
,,,,,,,,,,,,,1,001,2025-01-13_20h38.21.943,IAT(Formal),2021.2.3,Win32,60.24096386,,,,,,,,,,,,,,,,e,1,0.4589,0,66,66,10,1,优秀,e,,,,,,,,,,,,,,,,,,,,,,,,,,,,,,,,,,,,,,,,,
,,,,,,,,,,,,,1,001,2025-01-13_20h38.21.943,IAT(Formal),2021.2.3,Win32,60.24096386,,,,,,,,,,,,,,,,i,1,0.5782,0,67,67,58,1,他人,i,,,,,,,,,,,,,,,,,,,,,,,,,,,,,,,,,,,,,,,,,
,,,,,,,,,,,,,1,001,2025-01-13_20h38.21.943,IAT(Formal),2021.2.3,Win32,60.24096386,,,,,,,,,,,,,,,,i,1,0.445,0,68,68,65,1,他,i,,,,,,,,,,,,,,,,,,,,,,,,,,,,,,,,,,,,,,,,,
,,,,,,,,,,,,,1,001,2025-01-13_20h38.21.943,IAT(Formal),2021.2.3,Win32,60.24096386,,,,,,,,,,,,,,,,e,1,0.4916,0,69,69,61,1,我的,e,,,,,,,,,,,,,,,,,,,,,,,,,,,,,,,,,,,,,,,,,
,,,,,,,,,,,,,1,001,2025-01-13_20h38.21.943,IAT(Formal),2021.2.3,Win32,60.24096386,,,,,,,,,,,,,,,,e,1,0.4087,0,70,70,60,1,我,e,,,,,,,,,,,,,,,,,,,,,,,,,,,,,,,,,,,,,,,,,
,,,,,,,,,,,,,1,001,2025-01-13_20h38.21.943,IAT(Formal),2021.2.3,Win32,60.24096386,,,,,,,,,,,,,,,,i,1,0.6106,0,71,71,46,1,野蛮,i,,,,,,,,,,,,,,,,,,,,,,,,,,,,,,,,,,,,,,,,,
,,,,,,,,,,,,,1,001,2025-01-13_20h38.21.943,IAT(Formal),2021.2.3,Win32,60.24096386,,,,,,,,,,,,,,,,i,1,0.5671,0,72,72,69,1,其他,i,,,,,,,,,,,,,,,,,,,,,,,,,,,,,,,,,,,,,,,,,
,,,,,,,,,,,,,1,001,2025-01-13_20h38.21.943,IAT(Formal),2021.2.3,Win32,60.24096386,,,,,,,,,,,,,,,,i,1,0.4101,0,73,73,32,1,愚蠢,i,,,,,,,,,,,,,,,,,,,,,,,,,,,,,,,,,,,,,,,,,
,,,,,,,,,,,,,1,001,2025-01-13_20h38.21.943,IAT(Formal),2021.2.3,Win32,60.24096386,,,,,,,,,,,,,,,,e,1,0.4873,0,74,74,28,1,活泼,e,,,,,,,,,,,,,,,,,,,,,,,,,,,,,,,,,,,,,,,,,
,,,,,,,,,,,,,1,001,2025-01-13_20h38.21.943,IAT(Formal),2021.2.3,Win32,60.24096386,,,,,,,,,,,,,,,,i,1,0.6236,0,75,75,36,1,自卑,i,,,,,,,,,,,,,,,,,,,,,,,,,,,,,,,,,,,,,,,,,
,,,,,,,,,,,,,1,001,2025-01-13_20h38.21.943,IAT(Formal),2021.2.3,Win32,60.24096386,,,,,,,,,,,,,,,,e,1,0.4834,0,76,76,24,1,朴实,e,,,,,,,,,,,,,,,,,,,,,,,,,,,,,,,,,,,,,,,,,
,,,,,,,,,,,,,1,001,2025-01-13_20h38.21.943,IAT(Formal),2021.2.3,Win32,60.24096386,,,,,,,,,,,,,,,,e,1,0.5006,0,77,77,70,1,我,e,,,,,,,,,,,,,,,,,,,,,,,,,,,,,,,,,,,,,,,,,
,,,,,,,,,,,,,1,001,2025-01-13_20h38.21.943,IAT(Formal),2021.2.3,Win32,60.24096386,,,,,,,,,,,,,,,,e,1,0.3846,0,78,78,0,1,我,e,,,,,,,,,,,,,,,,,,,,,,,,,,,,,,,,,,,,,,,,,
,,,,,,,,,,,,,1,001,2025-01-13_20h38.21.943,IAT(Formal),2021.2.3,Win32,60.24096386,,,,,,,,,,,,,,,,i,1,0.6792,0,79,79,68,1,他人,i,,,,,,,,,,,,,,,,,,,,,,,,,,,,,,,,,,,,,,,,,
,,,,,,,,,,,,,1,001,2025-01-13_20h38.21.943,IAT(Formal),2021.2.3,Win32,60.24096386,,,,,,,,,,,,,,,,e,1,0.6185,,,,,,我,e,space,6.2152,0,0,0,60,1,,,,,,,,,,,,,,,,,,,,,,,,,,,,,,,,,,
,,,,,,,,,,,,,1,001,2025-01-13_20h38.21.943,IAT(Formal),2021.2.3,Win32,60.24096386,,,,,,,,,,,,,,,,e,1,0.4809,,,,,,细腻,e,,,0,1,1,25,1,,,,,,,,,,,,,,,,,,,,,,,,,,,,,,,,,,
,,,,,,,,,,,,,1,001,2025-01-13_20h38.21.943,IAT(Formal),2021.2.3,Win32,60.24096386,,,,,,,,,,,,,,,,e,1,0.5603,,,,,,无私,e,,,0,2,2,22,1,,,,,,,,,,,,,,,,,,,,,,,,,,,,,,,,,,
,,,,,,,,,,,,,1,001,2025-01-13_20h38.21.943,IAT(Formal),2021.2.3,Win32,60.24096386,,,,,,,,,,,,,,,,i,1,0.5039,,,,,,他们,i,,,0,3,3,76,1,,,,,,,,,,,,,,,,,,,,,,,,,,,,,,,,,,
,,,,,,,,,,,,,1,001,2025-01-13_20h38.21.943,IAT(Formal),2021.2.3,Win32,60.24096386,,,,,,,,,,,,,,,,e,1,0.5199,,,,,,诚恳,e,,,0,4,4,29,1,,,,,,,,,,,,,,,,,,,,,,,,,,,,,,,,,,
,,,,,,,,,,,,,1,001,2025-01-13_20h38.21.943,IAT(Formal),2021.2.3,Win32,60.24096386,,,,,,,,,,,,,,,,i,1,0.4379,,,,,,他人,i,,,0,5,5,8,1,,,,,,,,,,,,,,,,,,,,,,,,,,,,,,,,,,
,,,,,,,,,,,,,1,001,2025-01-13_20h38.21.943,IAT(Formal),2021.2.3,Win32,60.24096386,,,,,,,,,,,,,,,,e,1,0.5156,,,,,,我的,e,,,0,6,6,1,1,,,,,,,,,,,,,,,,,,,,,,,,,,,,,,,,,,
,,,,,,,,,,,,,1,001,2025-01-13_20h38.21.943,IAT(Formal),2021.2.3,Win32,60.24096386,,,,,,,,,,,,,,,,e,1,0.4766,,,,,,自己,e,,,0,7,7,73,1,,,,,,,,,,,,,,,,,,,,,,,,,,,,,,,,,,
,,,,,,,,,,,,,1,001,2025-01-13_20h38.21.943,IAT(Formal),2021.2.3,Win32,60.24096386,,,,,,,,,,,,,,,,e,1,0.3758,,,,,,自己,e,,,0,8,8,3,1,,,,,,,,,,,,,,,,,,,,,,,,,,,,,,,,,,
,,,,,,,,,,,,,1,001,2025-01-13_20h38.21.943,IAT(Formal),2021.2.3,Win32,60.24096386,,,,,,,,,,,,,,,,e,0,0.5953,,,,,,散漫,i,,,0,9,9,41,1,,,,,,,,,,,,,,,,,,,,,,,,,,,,,,,,,,
,,,,,,,,,,,,,1,001,2025-01-13_20h38.21.943,IAT(Formal),2021.2.3,Win32,60.24096386,,,,,,,,,,,,,,,,i,1,0.6045,,,,,,其他,i,,,0,10,10,9,1,,,,,,,,,,,,,,,,,,,,,,,,,,,,,,,,,,
,,,,,,,,,,,,,1,001,2025-01-13_20h38.21.943,IAT(Formal),2021.2.3,Win32,60.24096386,,,,,,,,,,,,,,,,i,1,0.5252,,,,,,他,i,,,0,11,11,65,1,,,,,,,,,,,,,,,,,,,,,,,,,,,,,,,,,,
,,,,,,,,,,,,,1,001,2025-01-13_20h38.21.943,IAT(Formal),2021.2.3,Win32,60.24096386,,,,,,,,,,,,,,,,i,1,0.3915,,,,,,他,i,,,0,12,12,55,1,,,,,,,,,,,,,,,,,,,,,,,,,,,,,,,,,,
,,,,,,,,,,,,,1,001,2025-01-13_20h38.21.943,IAT(Formal),2021.2.3,Win32,60.24096386,,,,,,,,,,,,,,,,i,1,0.3273,,,,,,他,i,,,0,13,13,5,1,,,,,,,,,,,,,,,,,,,,,,,,,,,,,,,,,,
,,,,,,,,,,,,,1,001,2025-01-13_20h38.21.943,IAT(Formal),2021.2.3,Win32,60.24096386,,,,,,,,,,,,,,,,i,1,0.6314,,,,,,虚伪,i,,,0,14,14,31,1,,,,,,,,,,,,,,,,,,,,,,,,,,,,,,,,,,
,,,,,,,,,,,,,1,001,2025-01-13_20h38.21.943,IAT(Formal),2021.2.3,Win32,60.24096386,,,,,,,,,,,,,,,,e,1,0.4738,,,,,,活泼,e,,,0,15,15,28,1,,,,,,,,,,,,,,,,,,,,,,,,,,,,,,,,,,
,,,,,,,,,,,,,1,001,2025-01-13_20h38.21.943,IAT(Formal),2021.2.3,Win32,60.24096386,,,,,,,,,,,,,,,,e,1,0.5284,,,,,,我们,e,,,0,16,16,52,1,,,,,,,,,,,,,,,,,,,,,,,,,,,,,,,,,,
,,,,,,,,,,,,,1,001,2025-01-13_20h38.21.943,IAT(Formal),2021.2.3,Win32,60.24096386,,,,,,,,,,,,,,,,i,1,0.8027,,,,,,自卑,i,,,0,17,17,36,1,,,,,,,,,,,,,,,,,,,,,,,,,,,,,,,,,,
,,,,,,,,,,,,,1,001,2025-01-13_20h38.21.943,IAT(Formal),2021.2.3,Win32,60.24096386,,,,,,,,,,,,,,,,i,1,0.6864,,,,,,他人,i,,,0,18,18,78,1,,,,,,,,,,,,,,,,,,,,,,,,,,,,,,,,,,
,,,,,,,,,,,,,1,001,2025-01-13_20h38.21.943,IAT(Formal),2021.2.3,Win32,60.24096386,,,,,,,,,,,,,,,,i,1,0.4483,,,,,,凶狠,i,,,0,19,19,42,1,,,,,,,,,,,,,,,,,,,,,,,,,,,,,,,,,,
,,,,,,,,,,,,,1,001,2025-01-13_20h38.21.943,IAT(Formal),2021.2.3,Win32,60.24096386,,,,,,,,,,,,,,,,e,1,0.4816,,,,,,我的,e,,,0,20,20,71,1,,,,,,,,,,,,,,,,,,,,,,,,,,,,,,,,,,
,,,,,,,,,,,,,1,001,2025-01-13_20h38.21.943,IAT(Formal),2021.2.3,Win32,60.24096386,,,,,,,,,,,,,,,,i,1,0.6988,,,,,,猖狂,i,,,0,21,21,45,1,,,,,,,,,,,,,,,,,,,,,,,,,,,,,,,,,,
,,,,,,,,,,,,,1,001,2025-01-13_20h38.21.943,IAT(Formal),2021.2.3,Win32,60.24096386,,,,,,,,,,,,,,,,i,1,0.5821,,,,,,他们,i,,,0,22,22,56,1,,,,,,,,,,,,,,,,,,,,,,,,,,,,,,,,,,
,,,,,,,,,,,,,1,001,2025-01-13_20h38.21.943,IAT(Formal),2021.2.3,Win32,60.24096386,,,,,,,,,,,,,,,,i,1,0.4244,,,,,,他人,i,,,0,23,23,58,1,,,,,,,,,,,,,,,,,,,,,,,,,,,,,,,,,,
,,,,,,,,,,,,,1,001,2025-01-13_20h38.21.943,IAT(Formal),2021.2.3,Win32,60.24096386,,,,,,,,,,,,,,,,i,1,0.5996,,,,,,傲慢,i,,,0,24,24,37,1,,,,,,,,,,,,,,,,,,,,,,,,,,,,,,,,,,
,,,,,,,,,,,,,1,001,2025-01-13_20h38.21.943,IAT(Formal),2021.2.3,Win32,60.24096386,,,,,,,,,,,,,,,,i,1,0.569,,,,,,暴躁,i,,,0,25,25,44,1,,,,,,,,,,,,,,,,,,,,,,,,,,,,,,,,,,
,,,,,,,,,,,,,1,001,2025-01-13_20h38.21.943,IAT(Formal),2021.2.3,Win32,60.24096386,,,,,,,,,,,,,,,,i,1,0.491,,,,,,下贱,i,,,0,26,26,49,1,,,,,,,,,,,,,,,,,,,,,,,,,,,,,,,,,,
,,,,,,,,,,,,,1,001,2025-01-13_20h38.21.943,IAT(Formal),2021.2.3,Win32,60.24096386,,,,,,,,,,,,,,,,e,1,0.4435,,,,,,我们,e,,,0,27,27,2,1,,,,,,,,,,,,,,,,,,,,,,,,,,,,,,,,,,
,,,,,,,,,,,,,1,001,2025-01-13_20h38.21.943,IAT(Formal),2021.2.3,Win32,60.24096386,,,,,,,,,,,,,,,,i,1,1.2327,,,,,,野蛮,i,,,0,28,28,46,1,,,,,,,,,,,,,,,,,,,,,,,,,,,,,,,,,,
,,,,,,,,,,,,,1,001,2025-01-13_20h38.21.943,IAT(Formal),2021.2.3,Win32,60.24096386,,,,,,,,,,,,,,,,,0,,,,,,,认真,e,,,0,29,29,20,1,,,,,,,,,,,,,,,,,,,,,,,,,,,,,,,,,,
,,,,,,,,,,,,,1,001,2025-01-13_20h38.21.943,IAT(Formal),2021.2.3,Win32,60.24096386,,,,,,,,,,,,,,,,i,1,0.5224,,,,,,其他,i,,,0,30,30,69,1,,,,,,,,,,,,,,,,,,,,,,,,,,,,,,,,,,
,,,,,,,,,,,,,1,001,2025-01-13_20h38.21.943,IAT(Formal),2021.2.3,Win32,60.24096386,,,,,,,,,,,,,,,,e,1,0.5982,,,,,,勇敢,e,,,0,31,31,17,1,,,,,,,,,,,,,,,,,,,,,,,,,,,,,,,,,,
,,,,,,,,,,,,,1,001,2025-01-13_20h38.21.943,IAT(Formal),2021.2.3,Win32,60.24096386,,,,,,,,,,,,,,,,i,1,0.5641,,,,,,刻薄,i,,,0,32,32,33,1,,,,,,,,,,,,,,,,,,,,,,,,,,,,,,,,,,
,,,,,,,,,,,,,1,001,2025-01-13_20h38.21.943,IAT(Formal),2021.2.3,Win32,60.24096386,,,,,,,,,,,,,,,,i,1,0.5893,,,,,,悲观,i,,,0,33,33,34,1,,,,,,,,,,,,,,,,,,,,,,,,,,,,,,,,,,
,,,,,,,,,,,,,1,001,2025-01-13_20h38.21.943,IAT(Formal),2021.2.3,Win32,60.24096386,,,,,,,,,,,,,,,,i,1,0.8558,,,,,,他的,i,,,0,34,34,77,1,,,,,,,,,,,,,,,,,,,,,,,,,,,,,,,,,,
,,,,,,,,,,,,,1,001,2025-01-13_20h38.21.943,IAT(Formal),2021.2.3,Win32,60.24096386,,,,,,,,,,,,,,,,e,1,0.5271,,,,,,诚实,e,,,0,35,35,15,1,,,,,,,,,,,,,,,,,,,,,,,,,,,,,,,,,,
,,,,,,,,,,,,,1,001,2025-01-13_20h38.21.943,IAT(Formal),2021.2.3,Win32,60.24096386,,,,,,,,,,,,,,,,e,1,1.0311,,,,,,我的,e,,,0,36,36,61,1,,,,,,,,,,,,,,,,,,,,,,,,,,,,,,,,,,
,,,,,,,,,,,,,1,001,2025-01-13_20h38.21.943,IAT(Formal),2021.2.3,Win32,60.24096386,,,,,,,,,,,,,,,,e,1,0.6361,,,,,,我们,e,,,0,37,37,72,1,,,,,,,,,,,,,,,,,,,,,,,,,,,,,,,,,,
,,,,,,,,,,,,,1,001,2025-01-13_20h38.21.943,IAT(Formal),2021.2.3,Win32,60.24096386,,,,,,,,,,,,,,,,,0,,,,,,,轻率,i,,,0,38,38,48,1,,,,,,,,,,,,,,,,,,,,,,,,,,,,,,,,,,
,,,,,,,,,,,,,1,001,2025-01-13_20h38.21.943,IAT(Formal),2021.2.3,Win32,60.24096386,,,,,,,,,,,,,,,,e,1,0.4966,,,,,,我们,e,,,0,39,39,62,1,,,,,,,,,,,,,,,,,,,,,,,,,,,,,,,,,,
,,,,,,,,,,,,,1,001,2025-01-13_20h38.21.943,IAT(Formal),2021.2.3,Win32,60.24096386,,,,,,,,,,,,,,,,i,1,0.5754,,,,,,他的,i,,,0,40,40,57,1,,,,,,,,,,,,,,,,,,,,,,,,,,,,,,,,,,
,,,,,,,,,,,,,1,001,2025-01-13_20h38.21.943,IAT(Formal),2021.2.3,Win32,60.24096386,,,,,,,,,,,,,,,,e,1,0.7181,,,,,,公正,e,,,0,41,41,23,1,,,,,,,,,,,,,,,,,,,,,,,,,,,,,,,,,,
,,,,,,,,,,,,,1,001,2025-01-13_20h38.21.943,IAT(Formal),2021.2.3,Win32,60.24096386,,,,,,,,,,,,,,,,e,1,0.8116,,,,,,稳重,e,,,0,42,42,21,1,,,,,,,,,,,,,,,,,,,,,,,,,,,,,,,,,,
,,,,,,,,,,,,,1,001,2025-01-13_20h38.21.943,IAT(Formal),2021.2.3,Win32,60.24096386,,,,,,,,,,,,,,,,i,1,1.2063,,,,,,他们,i,,,0,43,43,6,1,,,,,,,,,,,,,,,,,,,,,,,,,,,,,,,,,,
,,,,,,,,,,,,,1,001,2025-01-13_20h38.21.943,IAT(Formal),2021.2.3,Win32,60.24096386,,,,,,,,,,,,,,,,e,1,0.528,,,,,,热情,e,,,0,44,44,27,1,,,,,,,,,,,,,,,,,,,,,,,,,,,,,,,,,,
,,,,,,,,,,,,,1,001,2025-01-13_20h38.21.943,IAT(Formal),2021.2.3,Win32,60.24096386,,,,,,,,,,,,,,,,,0,,,,,,,固执,i,,,0,45,45,47,1,,,,,,,,,,,,,,,,,,,,,,,,,,,,,,,,,,
,,,,,,,,,,,,,1,001,2025-01-13_20h38.21.943,IAT(Formal),2021.2.3,Win32,60.24096386,,,,,,,,,,,,,,,,i,1,0.7277,,,,,,执拗,i,,,0,46,46,40,1,,,,,,,,,,,,,,,,,,,,,,,,,,,,,,,,,,
,,,,,,,,,,,,,1,001,2025-01-13_20h38.21.943,IAT(Formal),2021.2.3,Win32,60.24096386,,,,,,,,,,,,,,,,i,1,0.8506,,,,,,他,i,,,0,47,47,75,1,,,,,,,,,,,,,,,,,,,,,,,,,,,,,,,,,,
,,,,,,,,,,,,,1,001,2025-01-13_20h38.21.943,IAT(Formal),2021.2.3,Win32,60.24096386,,,,,,,,,,,,,,,,e,1,0.5686,,,,,,我,e,,,0,48,48,0,1,,,,,,,,,,,,,,,,,,,,,,,,,,,,,,,,,,
,,,,,,,,,,,,,1,001,2025-01-13_20h38.21.943,IAT(Formal),2021.2.3,Win32,60.24096386,,,,,,,,,,,,,,,,i,0,0.4838,,,,,,俺,e,,,0,49,49,54,1,,,,,,,,,,,,,,,,,,,,,,,,,,,,,,,,,,
,,,,,,,,,,,,,1,001,2025-01-13_20h38.21.943,IAT(Formal),2021.2.3,Win32,60.24096386,,,,,,,,,,,,,,,,i,1,0.6839,,,,,,其他,i,,,0,50,50,79,1,,,,,,,,,,,,,,,,,,,,,,,,,,,,,,,,,,
,,,,,,,,,,,,,1,001,2025-01-13_20h38.21.943,IAT(Formal),2021.2.3,Win32,60.24096386,,,,,,,,,,,,,,,,e,1,0.9274,,,,,,俺,e,,,0,51,51,74,1,,,,,,,,,,,,,,,,,,,,,,,,,,,,,,,,,,
,,,,,,,,,,,,,1,001,2025-01-13_20h38.21.943,IAT(Formal),2021.2.3,Win32,60.24096386,,,,,,,,,,,,,,,,e,1,0.5004,,,,,,自己,e,,,0,52,52,63,1,,,,,,,,,,,,,,,,,,,,,,,,,,,,,,,,,,
,,,,,,,,,,,,,1,001,2025-01-13_20h38.21.943,IAT(Formal),2021.2.3,Win32,60.24096386,,,,,,,,,,,,,,,,e,1,0.4507,,,,,,我,e,,,0,53,53,50,1,,,,,,,,,,,,,,,,,,,,,,,,,,,,,,,,,,
,,,,,,,,,,,,,1,001,2025-01-13_20h38.21.943,IAT(Formal),2021.2.3,Win32,60.24096386,,,,,,,,,,,,,,,,e,1,0.449,,,,,,聪明,e,,,0,54,54,12,1,,,,,,,,,,,,,,,,,,,,,,,,,,,,,,,,,,
,,,,,,,,,,,,,1,001,2025-01-13_20h38.21.943,IAT(Formal),2021.2.3,Win32,60.24096386,,,,,,,,,,,,,,,,e,1,0.5001,,,,,,俺,e,,,0,55,55,64,1,,,,,,,,,,,,,,,,,,,,,,,,,,,,,,,,,,
,,,,,,,,,,,,,1,001,2025-01-13_20h38.21.943,IAT(Formal),2021.2.3,Win32,60.24096386,,,,,,,,,,,,,,,,e,1,0.4898,,,,,,冷静,e,,,0,56,56,26,1,,,,,,,,,,,,,,,,,,,,,,,,,,,,,,,,,,
,,,,,,,,,,,,,1,001,2025-01-13_20h38.21.943,IAT(Formal),2021.2.3,Win32,60.24096386,,,,,,,,,,,,,,,,e,1,0.8838,,,,,,朴实,e,,,0,57,57,24,1,,,,,,,,,,,,,,,,,,,,,,,,,,,,,,,,,,
,,,,,,,,,,,,,1,001,2025-01-13_20h38.21.943,IAT(Formal),2021.2.3,Win32,60.24096386,,,,,,,,,,,,,,,,i,1,0.7038,,,,,,冒失,i,,,0,58,58,39,1,,,,,,,,,,,,,,,,,,,,,,,,,,,,,,,,,,
,,,,,,,,,,,,,1,001,2025-01-13_20h38.21.943,IAT(Formal),2021.2.3,Win32,60.24096386,,,,,,,,,,,,,,,,i,1,0.9451,,,,,,他们,i,,,0,59,59,66,1,,,,,,,,,,,,,,,,,,,,,,,,,,,,,,,,,,
,,,,,,,,,,,,,1,001,2025-01-13_20h38.21.943,IAT(Formal),2021.2.3,Win32,60.24096386,,,,,,,,,,,,,,,,e,1,0.6564,,,,,,正直,e,,,0,60,60,16,1,,,,,,,,,,,,,,,,,,,,,,,,,,,,,,,,,,
,,,,,,,,,,,,,1,001,2025-01-13_20h38.21.943,IAT(Formal),2021.2.3,Win32,60.24096386,,,,,,,,,,,,,,,,i,1,0.5844,,,,,,消极,i,,,0,61,61,35,1,,,,,,,,,,,,,,,,,,,,,,,,,,,,,,,,,,
,,,,,,,,,,,,,1,001,2025-01-13_20h38.21.943,IAT(Formal),2021.2.3,Win32,60.24096386,,,,,,,,,,,,,,,,i,1,0.6761,,,,,,愚蠢,i,,,0,62,62,32,1,,,,,,,,,,,,,,,,,,,,,,,,,,,,,,,,,,
,,,,,,,,,,,,,1,001,2025-01-13_20h38.21.943,IAT(Formal),2021.2.3,Win32,60.24096386,,,,,,,,,,,,,,,,e,1,0.585,,,,,,我,e,,,0,63,63,70,1,,,,,,,,,,,,,,,,,,,,,,,,,,,,,,,,,,
,,,,,,,,,,,,,1,001,2025-01-13_20h38.21.943,IAT(Formal),2021.2.3,Win32,60.24096386,,,,,,,,,,,,,,,,i,0,0.5714,,,,,,我的,e,,,0,64,64,51,1,,,,,,,,,,,,,,,,,,,,,,,,,,,,,,,,,,
,,,,,,,,,,,,,1,001,2025-01-13_20h38.21.943,IAT(Formal),2021.2.3,Win32,60.24096386,,,,,,,,,,,,,,,,e,1,0.5067,,,,,,俺,e,,,0,65,65,4,1,,,,,,,,,,,,,,,,,,,,,,,,,,,,,,,,,,
,,,,,,,,,,,,,1,001,2025-01-13_20h38.21.943,IAT(Formal),2021.2.3,Win32,60.24096386,,,,,,,,,,,,,,,,e,1,0.4986,,,,,,优秀,e,,,0,66,66,10,1,,,,,,,,,,,,,,,,,,,,,,,,,,,,,,,,,,
,,,,,,,,,,,,,1,001,2025-01-13_20h38.21.943,IAT(Formal),2021.2.3,Win32,60.24096386,,,,,,,,,,,,,,,,e,1,0.9696,,,,,,乐观,e,,,0,67,67,14,1,,,,,,,,,,,,,,,,,,,,,,,,,,,,,,,,,,
,,,,,,,,,,,,,1,001,2025-01-13_20h38.21.943,IAT(Formal),2021.2.3,Win32,60.24096386,,,,,,,,,,,,,,,,i,1,0.6793,,,,,,他人,i,,,0,68,68,68,1,,,,,,,,,,,,,,,,,,,,,,,,,,,,,,,,,,
,,,,,,,,,,,,,1,001,2025-01-13_20h38.21.943,IAT(Formal),2021.2.3,Win32,60.24096386,,,,,,,,,,,,,,,,e,1,0.5303,,,,,,崇高,e,,,0,69,69,11,1,,,,,,,,,,,,,,,,,,,,,,,,,,,,,,,,,,
,,,,,,,,,,,,,1,001,2025-01-13_20h38.21.943,IAT(Formal),2021.2.3,Win32,60.24096386,,,,,,,,,,,,,,,,e,1,1.0337,,,,,,自己,e,,,0,70,70,53,1,,,,,,,,,,,,,,,,,,,,,,,,,,,,,,,,,,
,,,,,,,,,,,,,1,001,2025-01-13_20h38.21.943,IAT(Formal),2021.2.3,Win32,60.24096386,,,,,,,,,,,,,,,,e,1,0.5579,,,,,,杰出,e,,,0,71,71,13,1,,,,,,,,,,,,,,,,,,,,,,,,,,,,,,,,,,
,,,,,,,,,,,,,1,001,2025-01-13_20h38.21.943,IAT(Formal),2021.2.3,Win32,60.24096386,,,,,,,,,,,,,,,,e,0,0.6173,,,,,,鲁莽,i,,,0,72,72,38,1,,,,,,,,,,,,,,,,,,,,,,,,,,,,,,,,,,
,,,,,,,,,,,,,1,001,2025-01-13_20h38.21.943,IAT(Formal),2021.2.3,Win32,60.24096386,,,,,,,,,,,,,,,,e,0,0.5194,,,,,,自私,i,,,0,73,73,43,1,,,,,,,,,,,,,,,,,,,,,,,,,,,,,,,,,,
,,,,,,,,,,,,,1,001,2025-01-13_20h38.21.943,IAT(Formal),2021.2.3,Win32,60.24096386,,,,,,,,,,,,,,,,i,1,0.5338,,,,,,他的,i,,,0,74,74,7,1,,,,,,,,,,,,,,,,,,,,,,,,,,,,,,,,,,
,,,,,,,,,,,,,1,001,2025-01-13_20h38.21.943,IAT(Formal),2021.2.3,Win32,60.24096386,,,,,,,,,,,,,,,,i,1,0.4743,,,,,,其他,i,,,0,75,75,59,1,,,,,,,,,,,,,,,,,,,,,,,,,,,,,,,,,,
,,,,,,,,,,,,,1,001,2025-01-13_20h38.21.943,IAT(Formal),2021.2.3,Win32,60.24096386,,,,,,,,,,,,,,,,i,1,0.4093,,,,,,他的,i,,,0,76,76,67,1,,,,,,,,,,,,,,,,,,,,,,,,,,,,,,,,,,
,,,,,,,,,,,,,1,001,2025-01-13_20h38.21.943,IAT(Formal),2021.2.3,Win32,60.24096386,,,,,,,,,,,,,,,,e,1,0.4839,,,,,,勤奋,e,,,0,77,77,18,1,,,,,,,,,,,,,,,,,,,,,,,,,,,,,,,,,,
,,,,,,,,,,,,,1,001,2025-01-13_20h38.21.943,IAT(Formal),2021.2.3,Win32,60.24096386,,,,,,,,,,,,,,,,e,1,0.6547,,,,,,机智,e,,,0,78,78,19,1,,,,,,,,,,,,,,,,,,,,,,,,,,,,,,,,,,
,,,,,,,,,,,,,1,001,2025-01-13_20h38.21.943,IAT(Formal),2021.2.3,Win32,60.24096386,,,,,,,,,,,,,,,,i,1,0.6301,,,,,,卑鄙,i,,,0,79,79,30,1,,,,,,,,,,,,,,,,,,,,,,,,,,,,,,,,,,
,,,,,,,,,,,,,1,001,2025-01-13_20h38.21.943,IAT(Formal),2021.2.3,Win32,60.24096386,,,,,,,,,,,,,,,,i,1,0.5332,,,,,,他人,i,,,1,0,80,78,1,,,,,,,,,,,,,,,,,,,,,,,,,,,,,,,,,,
,,,,,,,,,,,,,1,001,2025-01-13_20h38.21.943,IAT(Formal),2021.2.3,Win32,60.24096386,,,,,,,,,,,,,,,,e,1,0.528,,,,,,我的,e,,,1,1,81,51,1,,,,,,,,,,,,,,,,,,,,,,,,,,,,,,,,,,
,,,,,,,,,,,,,1,001,2025-01-13_20h38.21.943,IAT(Formal),2021.2.3,Win32,60.24096386,,,,,,,,,,,,,,,,e,1,0.6085,,,,,,勤奋,e,,,1,2,82,18,1,,,,,,,,,,,,,,,,,,,,,,,,,,,,,,,,,,
,,,,,,,,,,,,,1,001,2025-01-13_20h38.21.943,IAT(Formal),2021.2.3,Win32,60.24096386,,,,,,,,,,,,,,,,e,1,0.4743,,,,,,俺,e,,,1,3,83,74,1,,,,,,,,,,,,,,,,,,,,,,,,,,,,,,,,,,
,,,,,,,,,,,,,1,001,2025-01-13_20h38.21.943,IAT(Formal),2021.2.3,Win32,60.24096386,,,,,,,,,,,,,,,,i,1,0.521,,,,,,野蛮,i,,,1,4,84,46,1,,,,,,,,,,,,,,,,,,,,,,,,,,,,,,,,,,
,,,,,,,,,,,,,1,001,2025-01-13_20h38.21.943,IAT(Formal),2021.2.3,Win32,60.24096386,,,,,,,,,,,,,,,,i,1,0.4205,,,,,,虚伪,i,,,1,5,85,31,1,,,,,,,,,,,,,,,,,,,,,,,,,,,,,,,,,,
,,,,,,,,,,,,,1,001,2025-01-13_20h38.21.943,IAT(Formal),2021.2.3,Win32,60.24096386,,,,,,,,,,,,,,,,i,0,0.4377,,,,,,机智,e,,,1,6,86,19,1,,,,,,,,,,,,,,,,,,,,,,,,,,,,,,,,,,
,,,,,,,,,,,,,1,001,2025-01-13_20h38.21.943,IAT(Formal),2021.2.3,Win32,60.24096386,,,,,,,,,,,,,,,,e,1,0.5024,,,,,,我们,e,,,1,7,87,62,1,,,,,,,,,,,,,,,,,,,,,,,,,,,,,,,,,,
,,,,,,,,,,,,,1,001,2025-01-13_20h38.21.943,IAT(Formal),2021.2.3,Win32,60.24096386,,,,,,,,,,,,,,,,e,1,0.4328,,,,,,优秀,e,,,1,8,88,10,1,,,,,,,,,,,,,,,,,,,,,,,,,,,,,,,,,,
,,,,,,,,,,,,,1,001,2025-01-13_20h38.21.943,IAT(Formal),2021.2.3,Win32,60.24096386,,,,,,,,,,,,,,,,i,0,0.5634,,,,,,无私,e,,,1,9,89,22,1,,,,,,,,,,,,,,,,,,,,,,,,,,,,,,,,,,
,,,,,,,,,,,,,1,001,2025-01-13_20h38.21.943,IAT(Formal),2021.2.3,Win32,60.24096386,,,,,,,,,,,,,,,,i,1,0.7017,,,,,,其他,i,,,1,10,90,79,1,,,,,,,,,,,,,,,,,,,,,,,,,,,,,,,,,,
,,,,,,,,,,,,,1,001,2025-01-13_20h38.21.943,IAT(Formal),2021.2.3,Win32,60.24096386,,,,,,,,,,,,,,,,i,1,0.6572,,,,,,他的,i,,,1,11,91,7,1,,,,,,,,,,,,,,,,,,,,,,,,,,,,,,,,,,
,,,,,,,,,,,,,1,001,2025-01-13_20h38.21.943,IAT(Formal),2021.2.3,Win32,60.24096386,,,,,,,,,,,,,,,,e,1,0.755,,,,,,活泼,e,,,1,12,92,28,1,,,,,,,,,,,,,,,,,,,,,,,,,,,,,,,,,,
,,,,,,,,,,,,,1,001,2025-01-13_20h38.21.943,IAT(Formal),2021.2.3,Win32,60.24096386,,,,,,,,,,,,,,,,e,1,0.6428,,,,,,诚恳,e,,,1,13,93,29,1,,,,,,,,,,,,,,,,,,,,,,,,,,,,,,,,,,
,,,,,,,,,,,,,1,001,2025-01-13_20h38.21.943,IAT(Formal),2021.2.3,Win32,60.24096386,,,,,,,,,,,,,,,,e,0,0.6014,,,,,,他,i,,,1,14,94,75,1,,,,,,,,,,,,,,,,,,,,,,,,,,,,,,,,,,
,,,,,,,,,,,,,1,001,2025-01-13_20h38.21.943,IAT(Formal),2021.2.3,Win32,60.24096386,,,,,,,,,,,,,,,,i,1,0.5181,,,,,,他的,i,,,1,15,95,67,1,,,,,,,,,,,,,,,,,,,,,,,,,,,,,,,,,,
,,,,,,,,,,,,,1,001,2025-01-13_20h38.21.943,IAT(Formal),2021.2.3,Win32,60.24096386,,,,,,,,,,,,,,,,i,1,0.454,,,,,,他人,i,,,1,16,96,68,1,,,,,,,,,,,,,,,,,,,,,,,,,,,,,,,,,,
,,,,,,,,,,,,,1,001,2025-01-13_20h38.21.943,IAT(Formal),2021.2.3,Win32,60.24096386,,,,,,,,,,,,,,,,e,1,0.4803,,,,,,我们,e,,,1,17,97,2,1,,,,,,,,,,,,,,,,,,,,,,,,,,,,,,,,,,
,,,,,,,,,,,,,1,001,2025-01-13_20h38.21.943,IAT(Formal),2021.2.3,Win32,60.24096386,,,,,,,,,,,,,,,,e,1,0.4875,,,,,,俺,e,,,1,18,98,54,1,,,,,,,,,,,,,,,,,,,,,,,,,,,,,,,,,,
,,,,,,,,,,,,,1,001,2025-01-13_20h38.21.943,IAT(Formal),2021.2.3,Win32,60.24096386,,,,,,,,,,,,,,,,i,1,0.6196,,,,,,鲁莽,i,,,1,19,99,38,1,,,,,,,,,,,,,,,,,,,,,,,,,,,,,,,,,,
,,,,,,,,,,,,,1,001,2025-01-13_20h38.21.943,IAT(Formal),2021.2.3,Win32,60.24096386,,,,,,,,,,,,,,,,e,1,0.5505,,,,,,俺,e,,,1,20,100,64,1,,,,,,,,,,,,,,,,,,,,,,,,,,,,,,,,,,
,,,,,,,,,,,,,1,001,2025-01-13_20h38.21.943,IAT(Formal),2021.2.3,Win32,60.24096386,,,,,,,,,,,,,,,,i,1,0.536,,,,,,他的,i,,,1,21,101,77,1,,,,,,,,,,,,,,,,,,,,,,,,,,,,,,,,,,
,,,,,,,,,,,,,1,001,2025-01-13_20h38.21.943,IAT(Formal),2021.2.3,Win32,60.24096386,,,,,,,,,,,,,,,,i,1,0.6006,,,,,,卑鄙,i,,,1,22,102,30,1,,,,,,,,,,,,,,,,,,,,,,,,,,,,,,,,,,
,,,,,,,,,,,,,1,001,2025-01-13_20h38.21.943,IAT(Formal),2021.2.3,Win32,60.24096386,,,,,,,,,,,,,,,,i,1,0.46,,,,,,凶狠,i,,,1,23,103,42,1,,,,,,,,,,,,,,,,,,,,,,,,,,,,,,,,,,
,,,,,,,,,,,,,1,001,2025-01-13_20h38.21.943,IAT(Formal),2021.2.3,Win32,60.24096386,,,,,,,,,,,,,,,,i,1,0.6128,,,,,,自卑,i,,,1,24,104,36,1,,,,,,,,,,,,,,,,,,,,,,,,,,,,,,,,,,
,,,,,,,,,,,,,1,001,2025-01-13_20h38.21.943,IAT(Formal),2021.2.3,Win32,60.24096386,,,,,,,,,,,,,,,,e,1,0.6477,,,,,,正直,e,,,1,25,105,16,1,,,,,,,,,,,,,,,,,,,,,,,,,,,,,,,,,,
,,,,,,,,,,,,,1,001,2025-01-13_20h38.21.943,IAT(Formal),2021.2.3,Win32,60.24096386,,,,,,,,,,,,,,,,e,1,1.0349,,,,,,我们,e,,,1,26,106,52,1,,,,,,,,,,,,,,,,,,,,,,,,,,,,,,,,,,
,,,,,,,,,,,,,1,001,2025-01-13_20h38.21.943,IAT(Formal),2021.2.3,Win32,60.24096386,,,,,,,,,,,,,,,,i,1,0.5896,,,,,,散漫,i,,,1,27,107,41,1,,,,,,,,,,,,,,,,,,,,,,,,,,,,,,,,,,
,,,,,,,,,,,,,1,001,2025-01-13_20h38.21.943,IAT(Formal),2021.2.3,Win32,60.24096386,,,,,,,,,,,,,,,,i,1,0.5339,,,,,,其他,i,,,1,28,108,59,1,,,,,,,,,,,,,,,,,,,,,,,,,,,,,,,,,,
,,,,,,,,,,,,,1,001,2025-01-13_20h38.21.943,IAT(Formal),2021.2.3,Win32,60.24096386,,,,,,,,,,,,,,,,i,1,0.5128,,,,,,执拗,i,,,1,29,109,40,1,,,,,,,,,,,,,,,,,,,,,,,,,,,,,,,,,,
,,,,,,,,,,,,,1,001,2025-01-13_20h38.21.943,IAT(Formal),2021.2.3,Win32,60.24096386,,,,,,,,,,,,,,,,e,1,0.5554,,,,,,勇敢,e,,,1,30,110,17,1,,,,,,,,,,,,,,,,,,,,,,,,,,,,,,,,,,
,,,,,,,,,,,,,1,001,2025-01-13_20h38.21.943,IAT(Formal),2021.2.3,Win32,60.24096386,,,,,,,,,,,,,,,,e,1,0.4472,,,,,,自己,e,,,1,31,111,63,1,,,,,,,,,,,,,,,,,,,,,,,,,,,,,,,,,,
,,,,,,,,,,,,,1,001,2025-01-13_20h38.21.943,IAT(Formal),2021.2.3,Win32,60.24096386,,,,,,,,,,,,,,,,e,1,0.539,,,,,,朴实,e,,,1,32,112,24,1,,,,,,,,,,,,,,,,,,,,,,,,,,,,,,,,,,
,,,,,,,,,,,,,1,001,2025-01-13_20h38.21.943,IAT(Formal),2021.2.3,Win32,60.24096386,,,,,,,,,,,,,,,,i,1,0.5604,,,,,,他,i,,,1,33,113,5,1,,,,,,,,,,,,,,,,,,,,,,,,,,,,,,,,,,
,,,,,,,,,,,,,1,001,2025-01-13_20h38.21.943,IAT(Formal),2021.2.3,Win32,60.24096386,,,,,,,,,,,,,,,,e,1,0.5469,,,,,,稳重,e,,,1,34,114,21,1,,,,,,,,,,,,,,,,,,,,,,,,,,,,,,,,,,
,,,,,,,,,,,,,1,001,2025-01-13_20h38.21.943,IAT(Formal),2021.2.3,Win32,60.24096386,,,,,,,,,,,,,,,,e,0,0.4706,,,,,,消极,i,,,1,35,115,35,1,,,,,,,,,,,,,,,,,,,,,,,,,,,,,,,,,,
,,,,,,,,,,,,,1,001,2025-01-13_20h38.21.943,IAT(Formal),2021.2.3,Win32,60.24096386,,,,,,,,,,,,,,,,e,1,0.4649,,,,,,自己,e,,,1,36,116,3,1,,,,,,,,,,,,,,,,,,,,,,,,,,,,,,,,,,
,,,,,,,,,,,,,1,001,2025-01-13_20h38.21.943,IAT(Formal),2021.2.3,Win32,60.24096386,,,,,,,,,,,,,,,,e,1,0.4423,,,,,,我,e,,,1,37,117,50,1,,,,,,,,,,,,,,,,,,,,,,,,,,,,,,,,,,
,,,,,,,,,,,,,1,001,2025-01-13_20h38.21.943,IAT(Formal),2021.2.3,Win32,60.24096386,,,,,,,,,,,,,,,,i,1,0.5349,,,,,,悲观,i,,,1,38,118,34,1,,,,,,,,,,,,,,,,,,,,,,,,,,,,,,,,,,
,,,,,,,,,,,,,1,001,2025-01-13_20h38.21.943,IAT(Formal),2021.2.3,Win32,60.24096386,,,,,,,,,,,,,,,,e,1,0.7901,,,,,,冷静,e,,,1,39,119,26,1,,,,,,,,,,,,,,,,,,,,,,,,,,,,,,,,,,
,,,,,,,,,,,,,1,001,2025-01-13_20h38.21.943,IAT(Formal),2021.2.3,Win32,60.24096386,,,,,,,,,,,,,,,,e,1,0.4841,,,,,,我,e,,,1,40,120,0,1,,,,,,,,,,,,,,,,,,,,,,,,,,,,,,,,,,
,,,,,,,,,,,,,1,001,2025-01-13_20h38.21.943,IAT(Formal),2021.2.3,Win32,60.24096386,,,,,,,,,,,,,,,,i,1,0.7249,,,,,,傲慢,i,,,1,41,121,37,1,,,,,,,,,,,,,,,,,,,,,,,,,,,,,,,,,,
,,,,,,,,,,,,,1,001,2025-01-13_20h38.21.943,IAT(Formal),2021.2.3,Win32,60.24096386,,,,,,,,,,,,,,,,i,1,0.7059,,,,,,他们,i,,,1,42,122,6,1,,,,,,,,,,,,,,,,,,,,,,,,,,,,,,,,,,
,,,,,,,,,,,,,1,001,2025-01-13_20h38.21.943,IAT(Formal),2021.2.3,Win32,60.24096386,,,,,,,,,,,,,,,,e,1,0.6244,,,,,,诚实,e,,,1,43,123,15,1,,,,,,,,,,,,,,,,,,,,,,,,,,,,,,,,,,
,,,,,,,,,,,,,1,001,2025-01-13_20h38.21.943,IAT(Formal),2021.2.3,Win32,60.24096386,,,,,,,,,,,,,,,,i,1,0.5726,,,,,,暴躁,i,,,1,44,124,44,1,,,,,,,,,,,,,,,,,,,,,,,,,,,,,,,,,,
,,,,,,,,,,,,,1,001,2025-01-13_20h38.21.943,IAT(Formal),2021.2.3,Win32,60.24096386,,,,,,,,,,,,,,,,e,1,0.5673,,,,,,认真,e,,,1,45,125,20,1,,,,,,,,,,,,,,,,,,,,,,,,,,,,,,,,,,
,,,,,,,,,,,,,1,001,2025-01-13_20h38.21.943,IAT(Formal),2021.2.3,Win32,60.24096386,,,,,,,,,,,,,,,,i,1,0.5434,,,,,,他们,i,,,1,46,126,76,1,,,,,,,,,,,,,,,,,,,,,,,,,,,,,,,,,,
,,,,,,,,,,,,,1,001,2025-01-13_20h38.21.943,IAT(Formal),2021.2.3,Win32,60.24096386,,,,,,,,,,,,,,,,e,1,0.5837,,,,,,热情,e,,,1,47,127,27,1,,,,,,,,,,,,,,,,,,,,,,,,,,,,,,,,,,
,,,,,,,,,,,,,1,001,2025-01-13_20h38.21.943,IAT(Formal),2021.2.3,Win32,60.24096386,,,,,,,,,,,,,,,,e,1,0.5835,,,,,,自己,e,,,1,48,128,73,1,,,,,,,,,,,,,,,,,,,,,,,,,,,,,,,,,,
,,,,,,,,,,,,,1,001,2025-01-13_20h38.21.943,IAT(Formal),2021.2.3,Win32,60.24096386,,,,,,,,,,,,,,,,i,1,0.6385,,,,,,他人,i,,,1,49,129,8,1,,,,,,,,,,,,,,,,,,,,,,,,,,,,,,,,,,
,,,,,,,,,,,,,1,001,2025-01-13_20h38.21.943,IAT(Formal),2021.2.3,Win32,60.24096386,,,,,,,,,,,,,,,,e,1,0.535,,,,,,我的,e,,,1,50,130,71,1,,,,,,,,,,,,,,,,,,,,,,,,,,,,,,,,,,
,,,,,,,,,,,,,1,001,2025-01-13_20h38.21.943,IAT(Formal),2021.2.3,Win32,60.24096386,,,,,,,,,,,,,,,,e,1,0.5168,,,,,,俺,e,,,1,51,131,4,1,,,,,,,,,,,,,,,,,,,,,,,,,,,,,,,,,,
,,,,,,,,,,,,,1,001,2025-01-13_20h38.21.943,IAT(Formal),2021.2.3,Win32,60.24096386,,,,,,,,,,,,,,,,i,1,0.4338,,,,,,他人,i,,,1,52,132,58,1,,,,,,,,,,,,,,,,,,,,,,,,,,,,,,,,,,
,,,,,,,,,,,,,1,001,2025-01-13_20h38.21.943,IAT(Formal),2021.2.3,Win32,60.24096386,,,,,,,,,,,,,,,,i,1,0.7181,,,,,,固执,i,,,1,53,133,47,1,,,,,,,,,,,,,,,,,,,,,,,,,,,,,,,,,,
,,,,,,,,,,,,,1,001,2025-01-13_20h38.21.943,IAT(Formal),2021.2.3,Win32,60.24096386,,,,,,,,,,,,,,,,i,1,0.5281,,,,,,其他,i,,,1,54,134,9,1,,,,,,,,,,,,,,,,,,,,,,,,,,,,,,,,,,
,,,,,,,,,,,,,1,001,2025-01-13_20h38.21.943,IAT(Formal),2021.2.3,Win32,60.24096386,,,,,,,,,,,,,,,,e,1,0.4786,,,,,,我的,e,,,1,55,135,61,1,,,,,,,,,,,,,,,,,,,,,,,,,,,,,,,,,,
,,,,,,,,,,,,,1,001,2025-01-13_20h38.21.943,IAT(Formal),2021.2.3,Win32,60.24096386,,,,,,,,,,,,,,,,i,1,0.4109,,,,,,他,i,,,1,56,136,55,1,,,,,,,,,,,,,,,,,,,,,,,,,,,,,,,,,,
,,,,,,,,,,,,,1,001,2025-01-13_20h38.21.943,IAT(Formal),2021.2.3,Win32,60.24096386,,,,,,,,,,,,,,,,e,0,0.5351,,,,,,自私,i,,,1,57,137,43,1,,,,,,,,,,,,,,,,,,,,,,,,,,,,,,,,,,
,,,,,,,,,,,,,1,001,2025-01-13_20h38.21.943,IAT(Formal),2021.2.3,Win32,60.24096386,,,,,,,,,,,,,,,,e,1,0.6556,,,,,,自己,e,,,1,58,138,53,1,,,,,,,,,,,,,,,,,,,,,,,,,,,,,,,,,,
,,,,,,,,,,,,,1,001,2025-01-13_20h38.21.943,IAT(Formal),2021.2.3,Win32,60.24096386,,,,,,,,,,,,,,,,i,1,0.8349,,,,,,他的,i,,,1,59,139,57,1,,,,,,,,,,,,,,,,,,,,,,,,,,,,,,,,,,
,,,,,,,,,,,,,1,001,2025-01-13_20h38.21.943,IAT(Formal),2021.2.3,Win32,60.24096386,,,,,,,,,,,,,,,,i,1,0.7075,,,,,,他们,i,,,1,60,140,56,1,,,,,,,,,,,,,,,,,,,,,,,,,,,,,,,,,,
,,,,,,,,,,,,,1,001,2025-01-13_20h38.21.943,IAT(Formal),2021.2.3,Win32,60.24096386,,,,,,,,,,,,,,,,e,1,0.7172,,,,,,我们,e,,,1,61,141,72,1,,,,,,,,,,,,,,,,,,,,,,,,,,,,,,,,,,
,,,,,,,,,,,,,1,001,2025-01-13_20h38.21.943,IAT(Formal),2021.2.3,Win32,60.24096386,,,,,,,,,,,,,,,,i,1,0.5421,,,,,,猖狂,i,,,1,62,142,45,1,,,,,,,,,,,,,,,,,,,,,,,,,,,,,,,,,,
,,,,,,,,,,,,,1,001,2025-01-13_20h38.21.943,IAT(Formal),2021.2.3,Win32,60.24096386,,,,,,,,,,,,,,,,i,1,0.8627,,,,,,他们,i,,,1,63,143,66,1,,,,,,,,,,,,,,,,,,,,,,,,,,,,,,,,,,
,,,,,,,,,,,,,1,001,2025-01-13_20h38.21.943,IAT(Formal),2021.2.3,Win32,60.24096386,,,,,,,,,,,,,,,,e,1,0.6545,,,,,,细腻,e,,,1,64,144,25,1,,,,,,,,,,,,,,,,,,,,,,,,,,,,,,,,,,
,,,,,,,,,,,,,1,001,2025-01-13_20h38.21.943,IAT(Formal),2021.2.3,Win32,60.24096386,,,,,,,,,,,,,,,,e,1,0.6005,,,,,,杰出,e,,,1,65,145,13,1,,,,,,,,,,,,,,,,,,,,,,,,,,,,,,,,,,
,,,,,,,,,,,,,1,001,2025-01-13_20h38.21.943,IAT(Formal),2021.2.3,Win32,60.24096386,,,,,,,,,,,,,,,,e,1,0.4298,,,,,,我的,e,,,1,66,146,1,1,,,,,,,,,,,,,,,,,,,,,,,,,,,,,,,,,,
,,,,,,,,,,,,,1,001,2025-01-13_20h38.21.943,IAT(Formal),2021.2.3,Win32,60.24096386,,,,,,,,,,,,,,,,i,1,0.5049,,,,,,他,i,,,1,67,147,65,1,,,,,,,,,,,,,,,,,,,,,,,,,,,,,,,,,,
,,,,,,,,,,,,,1,001,2025-01-13_20h38.21.943,IAT(Formal),2021.2.3,Win32,60.24096386,,,,,,,,,,,,,,,,i,1,0.5789,,,,,,冒失,i,,,1,68,148,39,1,,,,,,,,,,,,,,,,,,,,,,,,,,,,,,,,,,
,,,,,,,,,,,,,1,001,2025-01-13_20h38.21.943,IAT(Formal),2021.2.3,Win32,60.24096386,,,,,,,,,,,,,,,,i,1,0.4841,,,,,,刻薄,i,,,1,69,149,33,1,,,,,,,,,,,,,,,,,,,,,,,,,,,,,,,,,,
,,,,,,,,,,,,,1,001,2025-01-13_20h38.21.943,IAT(Formal),2021.2.3,Win32,60.24096386,,,,,,,,,,,,,,,,i,1,0.5111,,,,,,下贱,i,,,1,70,150,49,1,,,,,,,,,,,,,,,,,,,,,,,,,,,,,,,,,,
,,,,,,,,,,,,,1,001,2025-01-13_20h38.21.943,IAT(Formal),2021.2.3,Win32,60.24096386,,,,,,,,,,,,,,,,e,1,0.4517,,,,,,公正,e,,,1,71,151,23,1,,,,,,,,,,,,,,,,,,,,,,,,,,,,,,,,,,
,,,,,,,,,,,,,1,001,2025-01-13_20h38.21.943,IAT(Formal),2021.2.3,Win32,60.24096386,,,,,,,,,,,,,,,,e,1,0.4278,,,,,,我,e,,,1,72,152,60,1,,,,,,,,,,,,,,,,,,,,,,,,,,,,,,,,,,
,,,,,,,,,,,,,1,001,2025-01-13_20h38.21.943,IAT(Formal),2021.2.3,Win32,60.24096386,,,,,,,,,,,,,,,,i,1,0.5671,,,,,,愚蠢,i,,,1,73,153,32,1,,,,,,,,,,,,,,,,,,,,,,,,,,,,,,,,,,
,,,,,,,,,,,,,1,001,2025-01-13_20h38.21.943,IAT(Formal),2021.2.3,Win32,60.24096386,,,,,,,,,,,,,,,,e,1,0.4338,,,,,,我,e,,,1,74,154,70,1,,,,,,,,,,,,,,,,,,,,,,,,,,,,,,,,,,
,,,,,,,,,,,,,1,001,2025-01-13_20h38.21.943,IAT(Formal),2021.2.3,Win32,60.24096386,,,,,,,,,,,,,,,,i,1,0.5204,,,,,,其他,i,,,1,75,155,69,1,,,,,,,,,,,,,,,,,,,,,,,,,,,,,,,,,,
,,,,,,,,,,,,,1,001,2025-01-13_20h38.21.943,IAT(Formal),2021.2.3,Win32,60.24096386,,,,,,,,,,,,,,,,e,1,0.589,,,,,,聪明,e,,,1,76,156,12,1,,,,,,,,,,,,,,,,,,,,,,,,,,,,,,,,,,
,,,,,,,,,,,,,1,001,2025-01-13_20h38.21.943,IAT(Formal),2021.2.3,Win32,60.24096386,,,,,,,,,,,,,,,,i,1,0.4505,,,,,,轻率,i,,,1,77,157,48,1,,,,,,,,,,,,,,,,,,,,,,,,,,,,,,,,,,
,,,,,,,,,,,,,1,001,2025-01-13_20h38.21.943,IAT(Formal),2021.2.3,Win32,60.24096386,,,,,,,,,,,,,,,,e,1,0.5314,,,,,,崇高,e,,,1,78,158,11,1,,,,,,,,,,,,,,,,,,,,,,,,,,,,,,,,,,
,,,,,,,,,,,,,1,001,2025-01-13_20h38.21.943,IAT(Formal),2021.2.3,Win32,60.24096386,,,,,,,,,,,,,,,,e,1,0.5352,,,,,,乐观,e,,,1,79,159,14,1,,,,,,,,,,,,,,,,,,,,,,,,,,,,,,,,,,
,,,,,,,,,,,俺,i,1,001,2025-01-13_20h38.21.943,IAT(Formal),2021.2.3,Win32,60.24096386,,,,,,,,,,,,,,,,,,,,,,,,,,,,,,,,,space,6.6996,i,1,1.0904,0,0,0,4,1,,,,,,,,,,,,,,,,,,,,,,,,
,,,,,,,,,,,我,i,1,001,2025-01-13_20h38.21.943,IAT(Formal),2021.2.3,Win32,60.24096386,,,,,,,,,,,,,,,,,,,,,,,,,,,,,,,,,,,i,1,0.4273,0,1,1,0,1,,,,,,,,,,,,,,,,,,,,,,,,
,,,,,,,,,,,他的,e,1,001,2025-01-13_20h38.21.943,IAT(Formal),2021.2.3,Win32,60.24096386,,,,,,,,,,,,,,,,,,,,,,,,,,,,,,,,,,,e,1,0.4574,0,2,2,7,1,,,,,,,,,,,,,,,,,,,,,,,,
,,,,,,,,,,,我的,i,1,001,2025-01-13_20h38.21.943,IAT(Formal),2021.2.3,Win32,60.24096386,,,,,,,,,,,,,,,,,,,,,,,,,,,,,,,,,,,i,1,0.4906,0,3,3,1,1,,,,,,,,,,,,,,,,,,,,,,,,
,,,,,,,,,,,其他,e,1,001,2025-01-13_20h38.21.943,IAT(Formal),2021.2.3,Win32,60.24096386,,,,,,,,,,,,,,,,,,,,,,,,,,,,,,,,,,,e,1,0.6665,0,4,4,9,1,,,,,,,,,,,,,,,,,,,,,,,,
,,,,,,,,,,,他,e,1,001,2025-01-13_20h38.21.943,IAT(Formal),2021.2.3,Win32,60.24096386,,,,,,,,,,,,,,,,,,,,,,,,,,,,,,,,,,,e,1,0.5604,0,5,5,5,1,,,,,,,,,,,,,,,,,,,,,,,,
,,,,,,,,,,,他们,e,1,001,2025-01-13_20h38.21.943,IAT(Formal),2021.2.3,Win32,60.24096386,,,,,,,,,,,,,,,,,,,,,,,,,,,,,,,,,,,e,1,0.5106,0,6,6,6,1,,,,,,,,,,,,,,,,,,,,,,,,
,,,,,,,,,,,自己,i,1,001,2025-01-13_20h38.21.943,IAT(Formal),2021.2.3,Win32,60.24096386,,,,,,,,,,,,,,,,,,,,,,,,,,,,,,,,,,,i,1,0.4057,0,7,7,3,1,,,,,,,,,,,,,,,,,,,,,,,,
,,,,,,,,,,,我们,i,1,001,2025-01-13_20h38.21.943,IAT(Formal),2021.2.3,Win32,60.24096386,,,,,,,,,,,,,,,,,,,,,,,,,,,,,,,,,,,i,1,0.4648,0,8,8,2,1,,,,,,,,,,,,,,,,,,,,,,,,
,,,,,,,,,,,他人,e,1,001,2025-01-13_20h38.21.943,IAT(Formal),2021.2.3,Win32,60.24096386,,,,,,,,,,,,,,,,,,,,,,,,,,,,,,,,,,,e,1,0.4737,0,9,9,8,1,,,,,,,,,,,,,,,,,,,,,,,,
,,,,,,,,,,,,,1,001,2025-01-13_20h38.21.943,IAT(Formal),2021.2.3,Win32,60.24096386,,,,,,,,,,,,,,,,,,,,,,,,,,,,,,,,,,,,,,,,,,,space,3.5964,,0,0,0,0,46,1,野蛮,i,,,,,,,,,,,,,
,,,,,,,,,,,,,1,001,2025-01-13_20h38.21.943,IAT(Formal),2021.2.3,Win32,60.24096386,,,,,,,,,,,,,,,,,,,,,,,,,,,,,,,,,,,,,,,,,,,,,e,1,0,1,1,58,1,他人,e,0.7218,,,,,,,,,,,,
,,,,,,,,,,,,,1,001,2025-01-13_20h38.21.943,IAT(Formal),2021.2.3,Win32,60.24096386,,,,,,,,,,,,,,,,,,,,,,,,,,,,,,,,,,,,,,,,,,,,,e,1,0,2,2,13,1,杰出,e,0.5122,,,,,,,,,,,,
,,,,,,,,,,,,,1,001,2025-01-13_20h38.21.943,IAT(Formal),2021.2.3,Win32,60.24096386,,,,,,,,,,,,,,,,,,,,,,,,,,,,,,,,,,,,,,,,,,,,,e,1,0,3,3,27,1,热情,e,0.4978,,,,,,,,,,,,
,,,,,,,,,,,,,1,001,2025-01-13_20h38.21.943,IAT(Formal),2021.2.3,Win32,60.24096386,,,,,,,,,,,,,,,,,,,,,,,,,,,,,,,,,,,,,,,,,,,,,i,1,0,4,4,62,1,我们,i,0.5841,,,,,,,,,,,,
,,,,,,,,,,,,,1,001,2025-01-13_20h38.21.943,IAT(Formal),2021.2.3,Win32,60.24096386,,,,,,,,,,,,,,,,,,,,,,,,,,,,,,,,,,,,,,,,,,,,,e,1,0,5,5,19,1,机智,e,0.6037,,,,,,,,,,,,
,,,,,,,,,,,,,1,001,2025-01-13_20h38.21.943,IAT(Formal),2021.2.3,Win32,60.24096386,,,,,,,,,,,,,,,,,,,,,,,,,,,,,,,,,,,,,,,,,,,,,i,1,0,6,6,30,1,卑鄙,i,0.5029,,,,,,,,,,,,
,,,,,,,,,,,,,1,001,2025-01-13_20h38.21.943,IAT(Formal),2021.2.3,Win32,60.24096386,,,,,,,,,,,,,,,,,,,,,,,,,,,,,,,,,,,,,,,,,,,,,e,1,0,7,7,16,1,正直,e,0.4766,,,,,,,,,,,,
,,,,,,,,,,,,,1,001,2025-01-13_20h38.21.943,IAT(Formal),2021.2.3,Win32,60.24096386,,,,,,,,,,,,,,,,,,,,,,,,,,,,,,,,,,,,,,,,,,,,,i,1,0,8,8,0,1,我,i,0.6082,,,,,,,,,,,,
,,,,,,,,,,,,,1,001,2025-01-13_20h38.21.943,IAT(Formal),2021.2.3,Win32,60.24096386,,,,,,,,,,,,,,,,,,,,,,,,,,,,,,,,,,,,,,,,,,,,,e,1,0,9,9,9,1,其他,e,0.5841,,,,,,,,,,,,
,,,,,,,,,,,,,1,001,2025-01-13_20h38.21.943,IAT(Formal),2021.2.3,Win32,60.24096386,,,,,,,,,,,,,,,,,,,,,,,,,,,,,,,,,,,,,,,,,,,,,i,1,0,10,10,71,1,我的,i,0.4876,,,,,,,,,,,,
,,,,,,,,,,,,,1,001,2025-01-13_20h38.21.943,IAT(Formal),2021.2.3,Win32,60.24096386,,,,,,,,,,,,,,,,,,,,,,,,,,,,,,,,,,,,,,,,,,,,,i,1,0,11,11,4,1,俺,i,0.6304,,,,,,,,,,,,
,,,,,,,,,,,,,1,001,2025-01-13_20h38.21.943,IAT(Formal),2021.2.3,Win32,60.24096386,,,,,,,,,,,,,,,,,,,,,,,,,,,,,,,,,,,,,,,,,,,,,e,1,0,12,12,78,1,他人,e,0.4338,,,,,,,,,,,,
,,,,,,,,,,,,,1,001,2025-01-13_20h38.21.943,IAT(Formal),2021.2.3,Win32,60.24096386,,,,,,,,,,,,,,,,,,,,,,,,,,,,,,,,,,,,,,,,,,,,,e,1,0,13,13,67,1,他的,e,0.4551,,,,,,,,,,,,
,,,,,,,,,,,,,1,001,2025-01-13_20h38.21.943,IAT(Formal),2021.2.3,Win32,60.24096386,,,,,,,,,,,,,,,,,,,,,,,,,,,,,,,,,,,,,,,,,,,,,i,1,0,14,14,42,1,凶狠,i,0.5668,,,,,,,,,,,,
,,,,,,,,,,,,,1,001,2025-01-13_20h38.21.943,IAT(Formal),2021.2.3,Win32,60.24096386,,,,,,,,,,,,,,,,,,,,,,,,,,,,,,,,,,,,,,,,,,,,,i,1,0,15,15,39,1,冒失,i,0.6808,,,,,,,,,,,,
,,,,,,,,,,,,,1,001,2025-01-13_20h38.21.943,IAT(Formal),2021.2.3,Win32,60.24096386,,,,,,,,,,,,,,,,,,,,,,,,,,,,,,,,,,,,,,,,,,,,,e,0,0,16,16,2,1,我们,i,0.4672,,,,,,,,,,,,
,,,,,,,,,,,,,1,001,2025-01-13_20h38.21.943,IAT(Formal),2021.2.3,Win32,60.24096386,,,,,,,,,,,,,,,,,,,,,,,,,,,,,,,,,,,,,,,,,,,,,e,1,0,17,17,5,1,他,e,0.5959,,,,,,,,,,,,
,,,,,,,,,,,,,1,001,2025-01-13_20h38.21.943,IAT(Formal),2021.2.3,Win32,60.24096386,,,,,,,,,,,,,,,,,,,,,,,,,,,,,,,,,,,,,,,,,,,,,i,1,0,18,18,38,1,鲁莽,i,0.6122,,,,,,,,,,,,
,,,,,,,,,,,,,1,001,2025-01-13_20h38.21.943,IAT(Formal),2021.2.3,Win32,60.24096386,,,,,,,,,,,,,,,,,,,,,,,,,,,,,,,,,,,,,,,,,,,,,i,1,0,19,19,70,1,我,i,0.4007,,,,,,,,,,,,
,,,,,,,,,,,,,1,001,2025-01-13_20h38.21.943,IAT(Formal),2021.2.3,Win32,60.24096386,,,,,,,,,,,,,,,,,,,,,,,,,,,,,,,,,,,,,,,,,,,,,e,1,0,20,20,8,1,他人,e,0.4011,,,,,,,,,,,,
,,,,,,,,,,,,,1,001,2025-01-13_20h38.21.943,IAT(Formal),2021.2.3,Win32,60.24096386,,,,,,,,,,,,,,,,,,,,,,,,,,,,,,,,,,,,,,,,,,,,,e,1,0,21,21,14,1,乐观,e,0.3763,,,,,,,,,,,,
,,,,,,,,,,,,,1,001,2025-01-13_20h38.21.943,IAT(Formal),2021.2.3,Win32,60.24096386,,,,,,,,,,,,,,,,,,,,,,,,,,,,,,,,,,,,,,,,,,,,,e,1,0,22,22,6,1,他们,e,0.576,,,,,,,,,,,,
,,,,,,,,,,,,,1,001,2025-01-13_20h38.21.943,IAT(Formal),2021.2.3,Win32,60.24096386,,,,,,,,,,,,,,,,,,,,,,,,,,,,,,,,,,,,,,,,,,,,,e,0,0,23,23,48,1,轻率,i,0.5415,,,,,,,,,,,,
,,,,,,,,,,,,,1,001,2025-01-13_20h38.21.943,IAT(Formal),2021.2.3,Win32,60.24096386,,,,,,,,,,,,,,,,,,,,,,,,,,,,,,,,,,,,,,,,,,,,,e,1,0,24,24,66,1,他们,e,1.1005,,,,,,,,,,,,
,,,,,,,,,,,,,1,001,2025-01-13_20h38.21.943,IAT(Formal),2021.2.3,Win32,60.24096386,,,,,,,,,,,,,,,,,,,,,,,,,,,,,,,,,,,,,,,,,,,,,e,1,0,25,25,65,1,他,e,0.6423,,,,,,,,,,,,
,,,,,,,,,,,,,1,001,2025-01-13_20h38.21.943,IAT(Formal),2021.2.3,Win32,60.24096386,,,,,,,,,,,,,,,,,,,,,,,,,,,,,,,,,,,,,,,,,,,,,e,1,0,26,26,28,1,活泼,e,0.628,,,,,,,,,,,,
,,,,,,,,,,,,,1,001,2025-01-13_20h38.21.943,IAT(Formal),2021.2.3,Win32,60.24096386,,,,,,,,,,,,,,,,,,,,,,,,,,,,,,,,,,,,,,,,,,,,,e,1,0,27,27,79,1,其他,e,0.5764,,,,,,,,,,,,
,,,,,,,,,,,,,1,001,2025-01-13_20h38.21.943,IAT(Formal),2021.2.3,Win32,60.24096386,,,,,,,,,,,,,,,,,,,,,,,,,,,,,,,,,,,,,,,,,,,,,e,1,0,28,28,56,1,他们,e,0.4787,,,,,,,,,,,,
,,,,,,,,,,,,,1,001,2025-01-13_20h38.21.943,IAT(Formal),2021.2.3,Win32,60.24096386,,,,,,,,,,,,,,,,,,,,,,,,,,,,,,,,,,,,,,,,,,,,,i,1,0,29,29,36,1,自卑,i,0.9474,,,,,,,,,,,,
,,,,,,,,,,,,,1,001,2025-01-13_20h38.21.943,IAT(Formal),2021.2.3,Win32,60.24096386,,,,,,,,,,,,,,,,,,,,,,,,,,,,,,,,,,,,,,,,,,,,,i,1,0,30,30,53,1,自己,i,0.4925,,,,,,,,,,,,
,,,,,,,,,,,,,1,001,2025-01-13_20h38.21.943,IAT(Formal),2021.2.3,Win32,60.24096386,,,,,,,,,,,,,,,,,,,,,,,,,,,,,,,,,,,,,,,,,,,,,i,1,0,31,31,61,1,我的,i,0.5469,,,,,,,,,,,,
,,,,,,,,,,,,,1,001,2025-01-13_20h38.21.943,IAT(Formal),2021.2.3,Win32,60.24096386,,,,,,,,,,,,,,,,,,,,,,,,,,,,,,,,,,,,,,,,,,,,,e,1,0,32,32,10,1,优秀,e,0.4971,,,,,,,,,,,,
,,,,,,,,,,,,,1,001,2025-01-13_20h38.21.943,IAT(Formal),2021.2.3,Win32,60.24096386,,,,,,,,,,,,,,,,,,,,,,,,,,,,,,,,,,,,,,,,,,,,,e,0,0,33,33,63,1,自己,i,0.4806,,,,,,,,,,,,
,,,,,,,,,,,,,1,001,2025-01-13_20h38.21.943,IAT(Formal),2021.2.3,Win32,60.24096386,,,,,,,,,,,,,,,,,,,,,,,,,,,,,,,,,,,,,,,,,,,,,i,1,0,34,34,1,1,我的,i,0.9416,,,,,,,,,,,,
,,,,,,,,,,,,,1,001,2025-01-13_20h38.21.943,IAT(Formal),2021.2.3,Win32,60.24096386,,,,,,,,,,,,,,,,,,,,,,,,,,,,,,,,,,,,,,,,,,,,,i,1,0,35,35,35,1,消极,i,0.7635,,,,,,,,,,,,
,,,,,,,,,,,,,1,001,2025-01-13_20h38.21.943,IAT(Formal),2021.2.3,Win32,60.24096386,,,,,,,,,,,,,,,,,,,,,,,,,,,,,,,,,,,,,,,,,,,,,i,0,0,36,36,55,1,他,e,0.608,,,,,,,,,,,,
,,,,,,,,,,,,,1,001,2025-01-13_20h38.21.943,IAT(Formal),2021.2.3,Win32,60.24096386,,,,,,,,,,,,,,,,,,,,,,,,,,,,,,,,,,,,,,,,,,,,,i,1,0,37,37,72,1,我们,i,0.6627,,,,,,,,,,,,
,,,,,,,,,,,,,1,001,2025-01-13_20h38.21.943,IAT(Formal),2021.2.3,Win32,60.24096386,,,,,,,,,,,,,,,,,,,,,,,,,,,,,,,,,,,,,,,,,,,,,e,1,0,38,38,18,1,勤奋,e,0.7245,,,,,,,,,,,,
,,,,,,,,,,,,,1,001,2025-01-13_20h38.21.943,IAT(Formal),2021.2.3,Win32,60.24096386,,,,,,,,,,,,,,,,,,,,,,,,,,,,,,,,,,,,,,,,,,,,,i,1,0,39,39,41,1,散漫,i,0.7132,,,,,,,,,,,,
,,,,,,,,,,,,,1,001,2025-01-13_20h38.21.943,IAT(Formal),2021.2.3,Win32,60.24096386,,,,,,,,,,,,,,,,,,,,,,,,,,,,,,,,,,,,,,,,,,,,,i,1,0,40,40,3,1,自己,i,0.503,,,,,,,,,,,,
,,,,,,,,,,,,,1,001,2025-01-13_20h38.21.943,IAT(Formal),2021.2.3,Win32,60.24096386,,,,,,,,,,,,,,,,,,,,,,,,,,,,,,,,,,,,,,,,,,,,,i,1,0,41,41,34,1,悲观,i,0.656,,,,,,,,,,,,
,,,,,,,,,,,,,1,001,2025-01-13_20h38.21.943,IAT(Formal),2021.2.3,Win32,60.24096386,,,,,,,,,,,,,,,,,,,,,,,,,,,,,,,,,,,,,,,,,,,,,e,1,0,42,42,15,1,诚实,e,0.5024,,,,,,,,,,,,
,,,,,,,,,,,,,1,001,2025-01-13_20h38.21.943,IAT(Formal),2021.2.3,Win32,60.24096386,,,,,,,,,,,,,,,,,,,,,,,,,,,,,,,,,,,,,,,,,,,,,i,1,0,43,43,32,1,愚蠢,i,0.5891,,,,,,,,,,,,
,,,,,,,,,,,,,1,001,2025-01-13_20h38.21.943,IAT(Formal),2021.2.3,Win32,60.24096386,,,,,,,,,,,,,,,,,,,,,,,,,,,,,,,,,,,,,,,,,,,,,i,0,0,44,44,69,1,其他,e,0.6005,,,,,,,,,,,,
,,,,,,,,,,,,,1,001,2025-01-13_20h38.21.943,IAT(Formal),2021.2.3,Win32,60.24096386,,,,,,,,,,,,,,,,,,,,,,,,,,,,,,,,,,,,,,,,,,,,,i,1,0,45,45,60,1,我,i,0.4705,,,,,,,,,,,,
,,,,,,,,,,,,,1,001,2025-01-13_20h38.21.943,IAT(Formal),2021.2.3,Win32,60.24096386,,,,,,,,,,,,,,,,,,,,,,,,,,,,,,,,,,,,,,,,,,,,,i,1,0,46,46,31,1,虚伪,i,0.5918,,,,,,,,,,,,
,,,,,,,,,,,,,1,001,2025-01-13_20h38.21.943,IAT(Formal),2021.2.3,Win32,60.24096386,,,,,,,,,,,,,,,,,,,,,,,,,,,,,,,,,,,,,,,,,,,,,e,1,0,47,47,24,1,朴实,e,0.7804,,,,,,,,,,,,
,,,,,,,,,,,,,1,001,2025-01-13_20h38.21.943,IAT(Formal),2021.2.3,Win32,60.24096386,,,,,,,,,,,,,,,,,,,,,,,,,,,,,,,,,,,,,,,,,,,,,i,0,0,48,48,76,1,他们,e,0.6055,,,,,,,,,,,,
,,,,,,,,,,,,,1,001,2025-01-13_20h38.21.943,IAT(Formal),2021.2.3,Win32,60.24096386,,,,,,,,,,,,,,,,,,,,,,,,,,,,,,,,,,,,,,,,,,,,,i,1,0,49,49,74,1,俺,i,0.7684,,,,,,,,,,,,
,,,,,,,,,,,,,1,001,2025-01-13_20h38.21.943,IAT(Formal),2021.2.3,Win32,60.24096386,,,,,,,,,,,,,,,,,,,,,,,,,,,,,,,,,,,,,,,,,,,,,i,1,0,50,50,49,1,下贱,i,0.5836,,,,,,,,,,,,
,,,,,,,,,,,,,1,001,2025-01-13_20h38.21.943,IAT(Formal),2021.2.3,Win32,60.24096386,,,,,,,,,,,,,,,,,,,,,,,,,,,,,,,,,,,,,,,,,,,,,e,1,0,51,51,11,1,崇高,e,0.7199,,,,,,,,,,,,
,,,,,,,,,,,,,1,001,2025-01-13_20h38.21.943,IAT(Formal),2021.2.3,Win32,60.24096386,,,,,,,,,,,,,,,,,,,,,,,,,,,,,,,,,,,,,,,,,,,,,i,1,0,52,52,73,1,自己,i,0.7338,,,,,,,,,,,,
,,,,,,,,,,,,,1,001,2025-01-13_20h38.21.943,IAT(Formal),2021.2.3,Win32,60.24096386,,,,,,,,,,,,,,,,,,,,,,,,,,,,,,,,,,,,,,,,,,,,,i,1,0,53,53,50,1,我,i,0.6015,,,,,,,,,,,,
,,,,,,,,,,,,,1,001,2025-01-13_20h38.21.943,IAT(Formal),2021.2.3,Win32,60.24096386,,,,,,,,,,,,,,,,,,,,,,,,,,,,,,,,,,,,,,,,,,,,,i,1,0,54,54,37,1,傲慢,i,1.2094,,,,,,,,,,,,
,,,,,,,,,,,,,1,001,2025-01-13_20h38.21.943,IAT(Formal),2021.2.3,Win32,60.24096386,,,,,,,,,,,,,,,,,,,,,,,,,,,,,,,,,,,,,,,,,,,,,i,1,0,55,55,47,1,固执,i,0.6782,,,,,,,,,,,,
,,,,,,,,,,,,,1,001,2025-01-13_20h38.21.943,IAT(Formal),2021.2.3,Win32,60.24096386,,,,,,,,,,,,,,,,,,,,,,,,,,,,,,,,,,,,,,,,,,,,,i,1,0,56,56,51,1,我的,i,0.5679,,,,,,,,,,,,
,,,,,,,,,,,,,1,001,2025-01-13_20h38.21.943,IAT(Formal),2021.2.3,Win32,60.24096386,,,,,,,,,,,,,,,,,,,,,,,,,,,,,,,,,,,,,,,,,,,,,e,1,0,57,57,59,1,其他,e,0.7842,,,,,,,,,,,,
,,,,,,,,,,,,,1,001,2025-01-13_20h38.21.943,IAT(Formal),2021.2.3,Win32,60.24096386,,,,,,,,,,,,,,,,,,,,,,,,,,,,,,,,,,,,,,,,,,,,,i,1,0,58,58,64,1,俺,i,0.6213,,,,,,,,,,,,
,,,,,,,,,,,,,1,001,2025-01-13_20h38.21.943,IAT(Formal),2021.2.3,Win32,60.24096386,,,,,,,,,,,,,,,,,,,,,,,,,,,,,,,,,,,,,,,,,,,,,i,1,0,59,59,33,1,刻薄,i,0.4998,,,,,,,,,,,,
,,,,,,,,,,,,,1,001,2025-01-13_20h38.21.943,IAT(Formal),2021.2.3,Win32,60.24096386,,,,,,,,,,,,,,,,,,,,,,,,,,,,,,,,,,,,,,,,,,,,,i,1,0,60,60,45,1,猖狂,i,0.5005,,,,,,,,,,,,
,,,,,,,,,,,,,1,001,2025-01-13_20h38.21.943,IAT(Formal),2021.2.3,Win32,60.24096386,,,,,,,,,,,,,,,,,,,,,,,,,,,,,,,,,,,,,,,,,,,,,i,0,0,61,61,26,1,冷静,e,0.4381,,,,,,,,,,,,
,,,,,,,,,,,,,1,001,2025-01-13_20h38.21.943,IAT(Formal),2021.2.3,Win32,60.24096386,,,,,,,,,,,,,,,,,,,,,,,,,,,,,,,,,,,,,,,,,,,,,e,1,0,62,62,22,1,无私,e,0.7716,,,,,,,,,,,,
,,,,,,,,,,,,,1,001,2025-01-13_20h38.21.943,IAT(Formal),2021.2.3,Win32,60.24096386,,,,,,,,,,,,,,,,,,,,,,,,,,,,,,,,,,,,,,,,,,,,,e,1,0,63,63,29,1,诚恳,e,0.5976,,,,,,,,,,,,
,,,,,,,,,,,,,1,001,2025-01-13_20h38.21.943,IAT(Formal),2021.2.3,Win32,60.24096386,,,,,,,,,,,,,,,,,,,,,,,,,,,,,,,,,,,,,,,,,,,,,e,1,0,64,64,77,1,他的,e,0.3689,,,,,,,,,,,,
,,,,,,,,,,,,,1,001,2025-01-13_20h38.21.943,IAT(Formal),2021.2.3,Win32,60.24096386,,,,,,,,,,,,,,,,,,,,,,,,,,,,,,,,,,,,,,,,,,,,,e,1,0,65,65,68,1,他人,e,0.4115,,,,,,,,,,,,
,,,,,,,,,,,,,1,001,2025-01-13_20h38.21.943,IAT(Formal),2021.2.3,Win32,60.24096386,,,,,,,,,,,,,,,,,,,,,,,,,,,,,,,,,,,,,,,,,,,,,i,0,0,66,66,12,1,聪明,e,0.14,,,,,,,,,,,,
,,,,,,,,,,,,,1,001,2025-01-13_20h38.21.943,IAT(Formal),2021.2.3,Win32,60.24096386,,,,,,,,,,,,,,,,,,,,,,,,,,,,,,,,,,,,,,,,,,,,,i,0,0,67,67,7,1,他的,e,0.5796,,,,,,,,,,,,
,,,,,,,,,,,,,1,001,2025-01-13_20h38.21.943,IAT(Formal),2021.2.3,Win32,60.24096386,,,,,,,,,,,,,,,,,,,,,,,,,,,,,,,,,,,,,,,,,,,,,i,1,0,68,68,43,1,自私,i,1.2074,,,,,,,,,,,,
,,,,,,,,,,,,,1,001,2025-01-13_20h38.21.943,IAT(Formal),2021.2.3,Win32,60.24096386,,,,,,,,,,,,,,,,,,,,,,,,,,,,,,,,,,,,,,,,,,,,,i,1,0,69,69,44,1,暴躁,i,0.9516,,,,,,,,,,,,
,,,,,,,,,,,,,1,001,2025-01-13_20h38.21.943,IAT(Formal),2021.2.3,Win32,60.24096386,,,,,,,,,,,,,,,,,,,,,,,,,,,,,,,,,,,,,,,,,,,,,i,0,0,70,70,21,1,稳重,e,0.4665,,,,,,,,,,,,
,,,,,,,,,,,,,1,001,2025-01-13_20h38.21.943,IAT(Formal),2021.2.3,Win32,60.24096386,,,,,,,,,,,,,,,,,,,,,,,,,,,,,,,,,,,,,,,,,,,,,e,1,0,71,71,75,1,他,e,0.8683,,,,,,,,,,,,
,,,,,,,,,,,,,1,001,2025-01-13_20h38.21.943,IAT(Formal),2021.2.3,Win32,60.24096386,,,,,,,,,,,,,,,,,,,,,,,,,,,,,,,,,,,,,,,,,,,,,i,0,0,72,72,25,1,细腻,e,1.2053,,,,,,,,,,,,
,,,,,,,,,,,,,1,001,2025-01-13_20h38.21.943,IAT(Formal),2021.2.3,Win32,60.24096386,,,,,,,,,,,,,,,,,,,,,,,,,,,,,,,,,,,,,,,,,,,,,e,1,0,73,73,20,1,认真,e,0.7101,,,,,,,,,,,,
,,,,,,,,,,,,,1,001,2025-01-13_20h38.21.943,IAT(Formal),2021.2.3,Win32,60.24096386,,,,,,,,,,,,,,,,,,,,,,,,,,,,,,,,,,,,,,,,,,,,,e,0,0,74,74,52,1,我们,i,0.5157,,,,,,,,,,,,
,,,,,,,,,,,,,1,001,2025-01-13_20h38.21.943,IAT(Formal),2021.2.3,Win32,60.24096386,,,,,,,,,,,,,,,,,,,,,,,,,,,,,,,,,,,,,,,,,,,,,,0,0,75,75,40,1,执拗,i,,,,,,,,,,,,,
,,,,,,,,,,,,,1,001,2025-01-13_20h38.21.943,IAT(Formal),2021.2.3,Win32,60.24096386,,,,,,,,,,,,,,,,,,,,,,,,,,,,,,,,,,,,,,,,,,,,,e,1,0,76,76,17,1,勇敢,e,0.6063,,,,,,,,,,,,
,,,,,,,,,,,,,1,001,2025-01-13_20h38.21.943,IAT(Formal),2021.2.3,Win32,60.24096386,,,,,,,,,,,,,,,,,,,,,,,,,,,,,,,,,,,,,,,,,,,,,e,1,0,77,77,23,1,公正,e,0.5879,,,,,,,,,,,,
,,,,,,,,,,,,,1,001,2025-01-13_20h38.21.943,IAT(Formal),2021.2.3,Win32,60.24096386,,,,,,,,,,,,,,,,,,,,,,,,,,,,,,,,,,,,,,,,,,,,,i,0,0,78,78,57,1,他的,e,0.7245,,,,,,,,,,,,
,,,,,,,,,,,,,1,001,2025-01-13_20h38.21.943,IAT(Formal),2021.2.3,Win32,60.24096386,,,,,,,,,,,,,,,,,,,,,,,,,,,,,,,,,,,,,,,,,,,,,i,1,0,79,79,54,1,俺,i,0.708,,,,,,,,,,,,
,,,,,,,,,,,,,1,001,2025-01-13_20h38.21.943,IAT(Formal),2021.2.3,Win32,60.24096386,,,,,,,,,,,,,,,,,,,,,,,,,,,,,,,,,,,,,,,,,,,,,,,,,,,,勇敢,e,,space,8.1054,e,1,0.7667,0,0,0,17,1,,
,,,,,,,,,,,,,1,001,2025-01-13_20h38.21.943,IAT(Formal),2021.2.3,Win32,60.24096386,,,,,,,,,,,,,,,,,,,,,,,,,,,,,,,,,,,,,,,,,,,,,,,,,,,,他们,e,,,,e,1,0.6159,0,1,1,6,1,,
,,,,,,,,,,,,,1,001,2025-01-13_20h38.21.943,IAT(Formal),2021.2.3,Win32,60.24096386,,,,,,,,,,,,,,,,,,,,,,,,,,,,,,,,,,,,,,,,,,,,,,,,,,,,固执,i,,,,e,0,0.615,0,2,2,47,1,,
,,,,,,,,,,,,,1,001,2025-01-13_20h38.21.943,IAT(Formal),2021.2.3,Win32,60.24096386,,,,,,,,,,,,,,,,,,,,,,,,,,,,,,,,,,,,,,,,,,,,,,,,,,,,勤奋,e,,,,e,1,0.5557,0,3,3,18,1,,
,,,,,,,,,,,,,1,001,2025-01-13_20h38.21.943,IAT(Formal),2021.2.3,Win32,60.24096386,,,,,,,,,,,,,,,,,,,,,,,,,,,,,,,,,,,,,,,,,,,,,,,,,,,,他的,e,,,,e,1,0.5819,0,4,4,67,1,,
,,,,,,,,,,,,,1,001,2025-01-13_20h38.21.943,IAT(Formal),2021.2.3,Win32,60.24096386,,,,,,,,,,,,,,,,,,,,,,,,,,,,,,,,,,,,,,,,,,,,,,,,,,,,刻薄,i,,,,i,1,0.6607,0,5,5,33,1,,
,,,,,,,,,,,,,1,001,2025-01-13_20h38.21.943,IAT(Formal),2021.2.3,Win32,60.24096386,,,,,,,,,,,,,,,,,,,,,,,,,,,,,,,,,,,,,,,,,,,,,,,,,,,,消极,i,,,,i,1,0.4884,0,6,6,35,1,,
,,,,,,,,,,,,,1,001,2025-01-13_20h38.21.943,IAT(Formal),2021.2.3,Win32,60.24096386,,,,,,,,,,,,,,,,,,,,,,,,,,,,,,,,,,,,,,,,,,,,,,,,,,,,鲁莽,i,,,,i,1,0.4934,0,7,7,38,1,,
,,,,,,,,,,,,,1,001,2025-01-13_20h38.21.943,IAT(Formal),2021.2.3,Win32,60.24096386,,,,,,,,,,,,,,,,,,,,,,,,,,,,,,,,,,,,,,,,,,,,,,,,,,,,机智,e,,,,i,0,0.5316,0,8,8,19,1,,
,,,,,,,,,,,,,1,001,2025-01-13_20h38.21.943,IAT(Formal),2021.2.3,Win32,60.24096386,,,,,,,,,,,,,,,,,,,,,,,,,,,,,,,,,,,,,,,,,,,,,,,,,,,,轻率,i,,,,e,0,0.5315,0,9,9,48,1,,
,,,,,,,,,,,,,1,001,2025-01-13_20h38.21.943,IAT(Formal),2021.2.3,Win32,60.24096386,,,,,,,,,,,,,,,,,,,,,,,,,,,,,,,,,,,,,,,,,,,,,,,,,,,,我们,i,,,,i,1,0.8752,0,10,10,52,1,,
,,,,,,,,,,,,,1,001,2025-01-13_20h38.21.943,IAT(Formal),2021.2.3,Win32,60.24096386,,,,,,,,,,,,,,,,,,,,,,,,,,,,,,,,,,,,,,,,,,,,,,,,,,,,自己,i,,,,i,1,0.5234,0,11,11,3,1,,
,,,,,,,,,,,,,1,001,2025-01-13_20h38.21.943,IAT(Formal),2021.2.3,Win32,60.24096386,,,,,,,,,,,,,,,,,,,,,,,,,,,,,,,,,,,,,,,,,,,,,,,,,,,,他,e,,,,e,1,0.465,0,12,12,65,1,,
,,,,,,,,,,,,,1,001,2025-01-13_20h38.21.943,IAT(Formal),2021.2.3,Win32,60.24096386,,,,,,,,,,,,,,,,,,,,,,,,,,,,,,,,,,,,,,,,,,,,,,,,,,,,自卑,i,,,,i,1,0.8435,0,13,13,36,1,,
,,,,,,,,,,,,,1,001,2025-01-13_20h38.21.943,IAT(Formal),2021.2.3,Win32,60.24096386,,,,,,,,,,,,,,,,,,,,,,,,,,,,,,,,,,,,,,,,,,,,,,,,,,,,其他,e,,,,i,0,0.5902,0,14,14,69,1,,
,,,,,,,,,,,,,1,001,2025-01-13_20h38.21.943,IAT(Formal),2021.2.3,Win32,60.24096386,,,,,,,,,,,,,,,,,,,,,,,,,,,,,,,,,,,,,,,,,,,,,,,,,,,,俺,i,,,,i,1,0.4982,0,15,15,4,1,,
,,,,,,,,,,,,,1,001,2025-01-13_20h38.21.943,IAT(Formal),2021.2.3,Win32,60.24096386,,,,,,,,,,,,,,,,,,,,,,,,,,,,,,,,,,,,,,,,,,,,,,,,,,,,自己,i,,,,e,0,0.6102,0,16,16,73,1,,
,,,,,,,,,,,,,1,001,2025-01-13_20h38.21.943,IAT(Formal),2021.2.3,Win32,60.24096386,,,,,,,,,,,,,,,,,,,,,,,,,,,,,,,,,,,,,,,,,,,,,,,,,,,,他们,e,,,,e,1,0.6489,0,17,17,56,1,,
,,,,,,,,,,,,,1,001,2025-01-13_20h38.21.943,IAT(Formal),2021.2.3,Win32,60.24096386,,,,,,,,,,,,,,,,,,,,,,,,,,,,,,,,,,,,,,,,,,,,,,,,,,,,其他,e,,,,e,1,0.5525,0,18,18,79,1,,
,,,,,,,,,,,,,1,001,2025-01-13_20h38.21.943,IAT(Formal),2021.2.3,Win32,60.24096386,,,,,,,,,,,,,,,,,,,,,,,,,,,,,,,,,,,,,,,,,,,,,,,,,,,,傲慢,i,,,,i,1,0.6317,0,19,19,37,1,,
,,,,,,,,,,,,,1,001,2025-01-13_20h38.21.943,IAT(Formal),2021.2.3,Win32,60.24096386,,,,,,,,,,,,,,,,,,,,,,,,,,,,,,,,,,,,,,,,,,,,,,,,,,,,优秀,e,,,,e,1,0.669,0,20,20,10,1,,
,,,,,,,,,,,,,1,001,2025-01-13_20h38.21.943,IAT(Formal),2021.2.3,Win32,60.24096386,,,,,,,,,,,,,,,,,,,,,,,,,,,,,,,,,,,,,,,,,,,,,,,,,,,,执拗,i,,,,i,1,0.6668,0,21,21,40,1,,
,,,,,,,,,,,,,1,001,2025-01-13_20h38.21.943,IAT(Formal),2021.2.3,Win32,60.24096386,,,,,,,,,,,,,,,,,,,,,,,,,,,,,,,,,,,,,,,,,,,,,,,,,,,,细腻,e,,,,e,1,0.4703,0,22,22,25,1,,
,,,,,,,,,,,,,1,001,2025-01-13_20h38.21.943,IAT(Formal),2021.2.3,Win32,60.24096386,,,,,,,,,,,,,,,,,,,,,,,,,,,,,,,,,,,,,,,,,,,,,,,,,,,,虚伪,i,,,,i,1,0.6315,0,23,23,31,1,,
,,,,,,,,,,,,,1,001,2025-01-13_20h38.21.943,IAT(Formal),2021.2.3,Win32,60.24096386,,,,,,,,,,,,,,,,,,,,,,,,,,,,,,,,,,,,,,,,,,,,,,,,,,,,自己,i,,,,i,1,0.5811,0,24,24,63,1,,
,,,,,,,,,,,,,1,001,2025-01-13_20h38.21.943,IAT(Formal),2021.2.3,Win32,60.24096386,,,,,,,,,,,,,,,,,,,,,,,,,,,,,,,,,,,,,,,,,,,,,,,,,,,,他人,e,,,,e,1,0.4211,0,25,25,58,1,,
,,,,,,,,,,,,,1,001,2025-01-13_20h38.21.943,IAT(Formal),2021.2.3,Win32,60.24096386,,,,,,,,,,,,,,,,,,,,,,,,,,,,,,,,,,,,,,,,,,,,,,,,,,,,认真,e,,,,e,1,0.4117,0,26,26,20,1,,
,,,,,,,,,,,,,1,001,2025-01-13_20h38.21.943,IAT(Formal),2021.2.3,Win32,60.24096386,,,,,,,,,,,,,,,,,,,,,,,,,,,,,,,,,,,,,,,,,,,,,,,,,,,,我们,i,,,,e,0,0.4724,0,27,27,62,1,,
,,,,,,,,,,,,,1,001,2025-01-13_20h38.21.943,IAT(Formal),2021.2.3,Win32,60.24096386,,,,,,,,,,,,,,,,,,,,,,,,,,,,,,,,,,,,,,,,,,,,,,,,,,,,暴躁,i,,,,i,1,1.3786,0,28,28,44,1,,
,,,,,,,,,,,,,1,001,2025-01-13_20h38.21.943,IAT(Formal),2021.2.3,Win32,60.24096386,,,,,,,,,,,,,,,,,,,,,,,,,,,,,,,,,,,,,,,,,,,,,,,,,,,,朴实,e,,,,e,1,0.5543,0,29,29,24,1,,
,,,,,,,,,,,,,1,001,2025-01-13_20h38.21.943,IAT(Formal),2021.2.3,Win32,60.24096386,,,,,,,,,,,,,,,,,,,,,,,,,,,,,,,,,,,,,,,,,,,,,,,,,,,,俺,i,,,,e,0,0.4915,0,30,30,74,1,,
,,,,,,,,,,,,,1,001,2025-01-13_20h38.21.943,IAT(Formal),2021.2.3,Win32,60.24096386,,,,,,,,,,,,,,,,,,,,,,,,,,,,,,,,,,,,,,,,,,,,,,,,,,,,我,i,,,,i,1,0.644,0,31,31,0,1,,
,,,,,,,,,,,,,1,001,2025-01-13_20h38.21.943,IAT(Formal),2021.2.3,Win32,60.24096386,,,,,,,,,,,,,,,,,,,,,,,,,,,,,,,,,,,,,,,,,,,,,,,,,,,,我的,i,,,,i,1,0.667,0,32,32,61,1,,
,,,,,,,,,,,,,1,001,2025-01-13_20h38.21.943,IAT(Formal),2021.2.3,Win32,60.24096386,,,,,,,,,,,,,,,,,,,,,,,,,,,,,,,,,,,,,,,,,,,,,,,,,,,,稳重,e,,,,e,1,0.7024,0,33,33,21,1,,
,,,,,,,,,,,,,1,001,2025-01-13_20h38.21.943,IAT(Formal),2021.2.3,Win32,60.24096386,,,,,,,,,,,,,,,,,,,,,,,,,,,,,,,,,,,,,,,,,,,,,,,,,,,,愚蠢,i,,,,i,1,0.6509,0,34,34,32,1,,
,,,,,,,,,,,,,1,001,2025-01-13_20h38.21.943,IAT(Formal),2021.2.3,Win32,60.24096386,,,,,,,,,,,,,,,,,,,,,,,,,,,,,,,,,,,,,,,,,,,,,,,,,,,,乐观,e,,,,e,1,0.6199,0,35,35,14,1,,
,,,,,,,,,,,,,1,001,2025-01-13_20h38.21.943,IAT(Formal),2021.2.3,Win32,60.24096386,,,,,,,,,,,,,,,,,,,,,,,,,,,,,,,,,,,,,,,,,,,,,,,,,,,,悲观,i,,,,i,1,0.6421,0,36,36,34,1,,
,,,,,,,,,,,,,1,001,2025-01-13_20h38.21.943,IAT(Formal),2021.2.3,Win32,60.24096386,,,,,,,,,,,,,,,,,,,,,,,,,,,,,,,,,,,,,,,,,,,,,,,,,,,,我的,i,,,,i,1,0.705,0,37,37,51,1,,
,,,,,,,,,,,,,1,001,2025-01-13_20h38.21.943,IAT(Formal),2021.2.3,Win32,60.24096386,,,,,,,,,,,,,,,,,,,,,,,,,,,,,,,,,,,,,,,,,,,,,,,,,,,,他,e,,,,e,1,0.5191,0,38,38,55,1,,
,,,,,,,,,,,,,1,001,2025-01-13_20h38.21.943,IAT(Formal),2021.2.3,Win32,60.24096386,,,,,,,,,,,,,,,,,,,,,,,,,,,,,,,,,,,,,,,,,,,,,,,,,,,,他的,e,,,,e,1,0.4774,0,39,39,7,1,,
,,,,,,,,,,,,,1,001,2025-01-13_20h38.21.943,IAT(Formal),2021.2.3,Win32,60.24096386,,,,,,,,,,,,,,,,,,,,,,,,,,,,,,,,,,,,,,,,,,,,,,,,,,,,诚实,e,,,,e,1,0.5956,0,40,40,15,1,,
,,,,,,,,,,,,,1,001,2025-01-13_20h38.21.943,IAT(Formal),2021.2.3,Win32,60.24096386,,,,,,,,,,,,,,,,,,,,,,,,,,,,,,,,,,,,,,,,,,,,,,,,,,,,他人,e,,,,e,1,0.6339,0,41,41,78,1,,
,,,,,,,,,,,,,1,001,2025-01-13_20h38.21.943,IAT(Formal),2021.2.3,Win32,60.24096386,,,,,,,,,,,,,,,,,,,,,,,,,,,,,,,,,,,,,,,,,,,,,,,,,,,,俺,i,,,,i,1,0.5334,0,42,42,64,1,,
,,,,,,,,,,,,,1,001,2025-01-13_20h38.21.943,IAT(Formal),2021.2.3,Win32,60.24096386,,,,,,,,,,,,,,,,,,,,,,,,,,,,,,,,,,,,,,,,,,,,,,,,,,,,公正,e,,,,e,1,0.5005,0,43,43,23,1,,
,,,,,,,,,,,,,1,001,2025-01-13_20h38.21.943,IAT(Formal),2021.2.3,Win32,60.24096386,,,,,,,,,,,,,,,,,,,,,,,,,,,,,,,,,,,,,,,,,,,,,,,,,,,,我,i,,,,i,1,0.7628,0,44,44,70,1,,
,,,,,,,,,,,,,1,001,2025-01-13_20h38.21.943,IAT(Formal),2021.2.3,Win32,60.24096386,,,,,,,,,,,,,,,,,,,,,,,,,,,,,,,,,,,,,,,,,,,,,,,,,,,,他们,e,,,,e,1,0.4903,0,45,45,66,1,,
,,,,,,,,,,,,,1,001,2025-01-13_20h38.21.943,IAT(Formal),2021.2.3,Win32,60.24096386,,,,,,,,,,,,,,,,,,,,,,,,,,,,,,,,,,,,,,,,,,,,,,,,,,,,冒失,i,,,,e,0,0.5175,0,46,46,39,1,,
,,,,,,,,,,,,,1,001,2025-01-13_20h38.21.943,IAT(Formal),2021.2.3,Win32,60.24096386,,,,,,,,,,,,,,,,,,,,,,,,,,,,,,,,,,,,,,,,,,,,,,,,,,,,他们,e,,,,e,1,0.5625,0,47,47,76,1,,
,,,,,,,,,,,,,1,001,2025-01-13_20h38.21.943,IAT(Formal),2021.2.3,Win32,60.24096386,,,,,,,,,,,,,,,,,,,,,,,,,,,,,,,,,,,,,,,,,,,,,,,,,,,,其他,e,,,,e,1,0.5344,0,48,48,9,1,,
,,,,,,,,,,,,,1,001,2025-01-13_20h38.21.943,IAT(Formal),2021.2.3,Win32,60.24096386,,,,,,,,,,,,,,,,,,,,,,,,,,,,,,,,,,,,,,,,,,,,,,,,,,,,诚恳,e,,,,e,1,0.5294,0,49,49,29,1,,
,,,,,,,,,,,,,1,001,2025-01-13_20h38.21.943,IAT(Formal),2021.2.3,Win32,60.24096386,,,,,,,,,,,,,,,,,,,,,,,,,,,,,,,,,,,,,,,,,,,,,,,,,,,,野蛮,i,,,,i,1,0.5681,0,50,50,46,1,,
,,,,,,,,,,,,,1,001,2025-01-13_20h38.21.943,IAT(Formal),2021.2.3,Win32,60.24096386,,,,,,,,,,,,,,,,,,,,,,,,,,,,,,,,,,,,,,,,,,,,,,,,,,,,卑鄙,i,,,,e,0,0.4942,0,51,51,30,1,,
,,,,,,,,,,,,,1,001,2025-01-13_20h38.21.943,IAT(Formal),2021.2.3,Win32,60.24096386,,,,,,,,,,,,,,,,,,,,,,,,,,,,,,,,,,,,,,,,,,,,,,,,,,,,正直,e,,,,e,1,0.6551,0,52,52,16,1,,
,,,,,,,,,,,,,1,001,2025-01-13_20h38.21.943,IAT(Formal),2021.2.3,Win32,60.24096386,,,,,,,,,,,,,,,,,,,,,,,,,,,,,,,,,,,,,,,,,,,,,,,,,,,,我,i,,,,i,1,0.5278,0,53,53,50,1,,
,,,,,,,,,,,,,1,001,2025-01-13_20h38.21.943,IAT(Formal),2021.2.3,Win32,60.24096386,,,,,,,,,,,,,,,,,,,,,,,,,,,,,,,,,,,,,,,,,,,,,,,,,,,,他人,e,,,,e,1,0.5742,0,54,54,68,1,,
,,,,,,,,,,,,,1,001,2025-01-13_20h38.21.943,IAT(Formal),2021.2.3,Win32,60.24096386,,,,,,,,,,,,,,,,,,,,,,,,,,,,,,,,,,,,,,,,,,,,,,,,,,,,崇高,e,,,,e,1,0.6529,0,55,55,11,1,,
,,,,,,,,,,,,,1,001,2025-01-13_20h38.21.943,IAT(Formal),2021.2.3,Win32,60.24096386,,,,,,,,,,,,,,,,,,,,,,,,,,,,,,,,,,,,,,,,,,,,,,,,,,,,无私,e,,,,i,0,0.9974,0,56,56,22,1,,
,,,,,,,,,,,,,1,001,2025-01-13_20h38.21.943,IAT(Formal),2021.2.3,Win32,60.24096386,,,,,,,,,,,,,,,,,,,,,,,,,,,,,,,,,,,,,,,,,,,,,,,,,,,,猖狂,i,,,,i,1,0.5446,0,57,57,45,1,,
,,,,,,,,,,,,,1,001,2025-01-13_20h38.21.943,IAT(Formal),2021.2.3,Win32,60.24096386,,,,,,,,,,,,,,,,,,,,,,,,,,,,,,,,,,,,,,,,,,,,,,,,,,,,他,e,,,,i,0,0.5036,0,58,58,5,1,,
,,,,,,,,,,,,,1,001,2025-01-13_20h38.21.943,IAT(Formal),2021.2.3,Win32,60.24096386,,,,,,,,,,,,,,,,,,,,,,,,,,,,,,,,,,,,,,,,,,,,,,,,,,,,其他,e,,,,e,1,0.5419,0,59,59,59,1,,
,,,,,,,,,,,,,1,001,2025-01-13_20h38.21.943,IAT(Formal),2021.2.3,Win32,60.24096386,,,,,,,,,,,,,,,,,,,,,,,,,,,,,,,,,,,,,,,,,,,,,,,,,,,,他人,e,,,,e,1,0.4506,0,60,60,8,1,,
,,,,,,,,,,,,,1,001,2025-01-13_20h38.21.943,IAT(Formal),2021.2.3,Win32,60.24096386,,,,,,,,,,,,,,,,,,,,,,,,,,,,,,,,,,,,,,,,,,,,,,,,,,,,我们,i,,,,i,1,0.5138,0,61,61,72,1,,
,,,,,,,,,,,,,1,001,2025-01-13_20h38.21.943,IAT(Formal),2021.2.3,Win32,60.24096386,,,,,,,,,,,,,,,,,,,,,,,,,,,,,,,,,,,,,,,,,,,,,,,,,,,,热情,e,,,,e,1,0.6276,0,62,62,27,1,,
,,,,,,,,,,,,,1,001,2025-01-13_20h38.21.943,IAT(Formal),2021.2.3,Win32,60.24096386,,,,,,,,,,,,,,,,,,,,,,,,,,,,,,,,,,,,,,,,,,,,,,,,,,,,我们,i,,,,i,1,0.6538,0,63,63,2,1,,
,,,,,,,,,,,,,1,001,2025-01-13_20h38.21.943,IAT(Formal),2021.2.3,Win32,60.24096386,,,,,,,,,,,,,,,,,,,,,,,,,,,,,,,,,,,,,,,,,,,,,,,,,,,,自己,i,,,,i,1,0.8368,0,64,64,53,1,,
,,,,,,,,,,,,,1,001,2025-01-13_20h38.21.943,IAT(Formal),2021.2.3,Win32,60.24096386,,,,,,,,,,,,,,,,,,,,,,,,,,,,,,,,,,,,,,,,,,,,,,,,,,,,我的,i,,,,i,1,0.4892,0,65,65,1,1,,
,,,,,,,,,,,,,1,001,2025-01-13_20h38.21.943,IAT(Formal),2021.2.3,Win32,60.24096386,,,,,,,,,,,,,,,,,,,,,,,,,,,,,,,,,,,,,,,,,,,,,,,,,,,,我的,i,,,,i,1,0.5121,0,66,66,71,1,,
,,,,,,,,,,,,,1,001,2025-01-13_20h38.21.943,IAT(Formal),2021.2.3,Win32,60.24096386,,,,,,,,,,,,,,,,,,,,,,,,,,,,,,,,,,,,,,,,,,,,,,,,,,,,他,e,,,,e,1,0.3781,0,67,67,75,1,,
,,,,,,,,,,,,,1,001,2025-01-13_20h38.21.943,IAT(Formal),2021.2.3,Win32,60.24096386,,,,,,,,,,,,,,,,,,,,,,,,,,,,,,,,,,,,,,,,,,,,,,,,,,,,凶狠,i,,,,e,0,0.5034,0,68,68,42,1,,
,,,,,,,,,,,,,1,001,2025-01-13_20h38.21.943,IAT(Formal),2021.2.3,Win32,60.24096386,,,,,,,,,,,,,,,,,,,,,,,,,,,,,,,,,,,,,,,,,,,,,,,,,,,,聪明,e,,,,e,1,0.4349,0,69,69,12,1,,
,,,,,,,,,,,,,1,001,2025-01-13_20h38.21.943,IAT(Formal),2021.2.3,Win32,60.24096386,,,,,,,,,,,,,,,,,,,,,,,,,,,,,,,,,,,,,,,,,,,,,,,,,,,,我,i,,,,i,1,0.5281,0,70,70,60,1,,
,,,,,,,,,,,,,1,001,2025-01-13_20h38.21.943,IAT(Formal),2021.2.3,Win32,60.24096386,,,,,,,,,,,,,,,,,,,,,,,,,,,,,,,,,,,,,,,,,,,,,,,,,,,,俺,i,,,,i,1,0.5009,0,71,71,54,1,,
,,,,,,,,,,,,,1,001,2025-01-13_20h38.21.943,IAT(Formal),2021.2.3,Win32,60.24096386,,,,,,,,,,,,,,,,,,,,,,,,,,,,,,,,,,,,,,,,,,,,,,,,,,,,杰出,e,,,,e,1,0.6856,0,72,72,13,1,,
,,,,,,,,,,,,,1,001,2025-01-13_20h38.21.943,IAT(Formal),2021.2.3,Win32,60.24096386,,,,,,,,,,,,,,,,,,,,,,,,,,,,,,,,,,,,,,,,,,,,,,,,,,,,他的,e,,,,i,0,0.7853,0,73,73,57,1,,
,,,,,,,,,,,,,1,001,2025-01-13_20h38.21.943,IAT(Formal),2021.2.3,Win32,60.24096386,,,,,,,,,,,,,,,,,,,,,,,,,,,,,,,,,,,,,,,,,,,,,,,,,,,,活泼,e,,,,e,1,0.7001,0,74,74,28,1,,
,,,,,,,,,,,,,1,001,2025-01-13_20h38.21.943,IAT(Formal),2021.2.3,Win32,60.24096386,,,,,,,,,,,,,,,,,,,,,,,,,,,,,,,,,,,,,,,,,,,,,,,,,,,,下贱,i,,,,i,1,0.7224,0,75,75,49,1,,
,,,,,,,,,,,,,1,001,2025-01-13_20h38.21.943,IAT(Formal),2021.2.3,Win32,60.24096386,,,,,,,,,,,,,,,,,,,,,,,,,,,,,,,,,,,,,,,,,,,,,,,,,,,,他的,e,,,,e,1,0.7443,0,76,76,77,1,,
,,,,,,,,,,,,,1,001,2025-01-13_20h38.21.943,IAT(Formal),2021.2.3,Win32,60.24096386,,,,,,,,,,,,,,,,,,,,,,,,,,,,,,,,,,,,,,,,,,,,,,,,,,,,冷静,e,,,,e,1,0.6094,0,77,77,26,1,,
,,,,,,,,,,,,,1,001,2025-01-13_20h38.21.943,IAT(Formal),2021.2.3,Win32,60.24096386,,,,,,,,,,,,,,,,,,,,,,,,,,,,,,,,,,,,,,,,,,,,,,,,,,,,散漫,i,,,,i,1,0.554,0,78,78,41,1,,
,,,,,,,,,,,,,1,001,2025-01-13_20h38.21.943,IAT(Formal),2021.2.3,Win32,60.24096386,,,,,,,,,,,,,,,,,,,,,,,,,,,,,,,,,,,,,,,,,,,,,,,,,,,,自私,i,,,,e,0,0.8883,0,79,79,43,1,,
,,,,,,,,,,,,,1,001,2025-01-13_20h38.21.943,IAT(Formal),2021.2.3,Win32,60.24096386,,,,,,,,,,,,,,,,,,,,,,,,,,,,,,,,,,,,,,,,,,,,,,,,,,,,他,e,,,,e,1,0.7105,1,0,80,55,1,,
,,,,,,,,,,,,,1,001,2025-01-13_20h38.21.943,IAT(Formal),2021.2.3,Win32,60.24096386,,,,,,,,,,,,,,,,,,,,,,,,,,,,,,,,,,,,,,,,,,,,,,,,,,,,勇敢,e,,,,e,1,0.5549,1,1,81,17,1,,
,,,,,,,,,,,,,1,001,2025-01-13_20h38.21.943,IAT(Formal),2021.2.3,Win32,60.24096386,,,,,,,,,,,,,,,,,,,,,,,,,,,,,,,,,,,,,,,,,,,,,,,,,,,,自己,i,,,,e,0,0.4657,1,2,82,73,1,,
,,,,,,,,,,,,,1,001,2025-01-13_20h38.21.943,IAT(Formal),2021.2.3,Win32,60.24096386,,,,,,,,,,,,,,,,,,,,,,,,,,,,,,,,,,,,,,,,,,,,,,,,,,,,机智,e,,,,e,1,0.5281,1,3,83,19,1,,
,,,,,,,,,,,,,1,001,2025-01-13_20h38.21.943,IAT(Formal),2021.2.3,Win32,60.24096386,,,,,,,,,,,,,,,,,,,,,,,,,,,,,,,,,,,,,,,,,,,,,,,,,,,,傲慢,i,,,,e,0,0.5957,1,4,84,37,1,,
,,,,,,,,,,,,,1,001,2025-01-13_20h38.21.943,IAT(Formal),2021.2.3,Win32,60.24096386,,,,,,,,,,,,,,,,,,,,,,,,,,,,,,,,,,,,,,,,,,,,,,,,,,,,认真,e,,,,e,1,0.7334,1,5,85,20,1,,
,,,,,,,,,,,,,1,001,2025-01-13_20h38.21.943,IAT(Formal),2021.2.3,Win32,60.24096386,,,,,,,,,,,,,,,,,,,,,,,,,,,,,,,,,,,,,,,,,,,,,,,,,,,,我们,i,,,,i,1,0.6339,1,6,86,62,1,,
,,,,,,,,,,,,,1,001,2025-01-13_20h38.21.943,IAT(Formal),2021.2.3,Win32,60.24096386,,,,,,,,,,,,,,,,,,,,,,,,,,,,,,,,,,,,,,,,,,,,,,,,,,,,我的,i,,,,i,1,0.7043,1,7,87,1,1,,
,,,,,,,,,,,,,1,001,2025-01-13_20h38.21.943,IAT(Formal),2021.2.3,Win32,60.24096386,,,,,,,,,,,,,,,,,,,,,,,,,,,,,,,,,,,,,,,,,,,,,,,,,,,,他,e,,,,e,1,0.4847,1,8,88,65,1,,
,,,,,,,,,,,,,1,001,2025-01-13_20h38.21.943,IAT(Formal),2021.2.3,Win32,60.24096386,,,,,,,,,,,,,,,,,,,,,,,,,,,,,,,,,,,,,,,,,,,,,,,,,,,,刻薄,i,,,,e,0,0.5541,1,9,89,33,1,,
,,,,,,,,,,,,,1,001,2025-01-13_20h38.21.943,IAT(Formal),2021.2.3,Win32,60.24096386,,,,,,,,,,,,,,,,,,,,,,,,,,,,,,,,,,,,,,,,,,,,,,,,,,,,他的,e,,,,e,1,0.4751,1,10,90,67,1,,
,,,,,,,,,,,,,1,001,2025-01-13_20h38.21.943,IAT(Formal),2021.2.3,Win32,60.24096386,,,,,,,,,,,,,,,,,,,,,,,,,,,,,,,,,,,,,,,,,,,,,,,,,,,,俺,i,,,,i,1,0.6619,1,11,91,4,1,,
,,,,,,,,,,,,,1,001,2025-01-13_20h38.21.943,IAT(Formal),2021.2.3,Win32,60.24096386,,,,,,,,,,,,,,,,,,,,,,,,,,,,,,,,,,,,,,,,,,,,,,,,,,,,愚蠢,i,,,,i,1,0.6893,1,12,92,32,1,,
,,,,,,,,,,,,,1,001,2025-01-13_20h38.21.943,IAT(Formal),2021.2.3,Win32,60.24096386,,,,,,,,,,,,,,,,,,,,,,,,,,,,,,,,,,,,,,,,,,,,,,,,,,,,散漫,i,,,,i,1,0.5398,1,13,93,41,1,,
,,,,,,,,,,,,,1,001,2025-01-13_20h38.21.943,IAT(Formal),2021.2.3,Win32,60.24096386,,,,,,,,,,,,,,,,,,,,,,,,,,,,,,,,,,,,,,,,,,,,,,,,,,,,他人,e,,,,e,1,0.8681,1,14,94,58,1,,
,,,,,,,,,,,,,1,001,2025-01-13_20h38.21.943,IAT(Formal),2021.2.3,Win32,60.24096386,,,,,,,,,,,,,,,,,,,,,,,,,,,,,,,,,,,,,,,,,,,,,,,,,,,,崇高,e,,,,e,1,0.5671,1,15,95,11,1,,
,,,,,,,,,,,,,1,001,2025-01-13_20h38.21.943,IAT(Formal),2021.2.3,Win32,60.24096386,,,,,,,,,,,,,,,,,,,,,,,,,,,,,,,,,,,,,,,,,,,,,,,,,,,,猖狂,i,,,,i,1,0.5335,1,16,96,45,1,,
,,,,,,,,,,,,,1,001,2025-01-13_20h38.21.943,IAT(Formal),2021.2.3,Win32,60.24096386,,,,,,,,,,,,,,,,,,,,,,,,,,,,,,,,,,,,,,,,,,,,,,,,,,,,我的,i,,,,e,0,0.484,1,17,97,51,1,,
,,,,,,,,,,,,,1,001,2025-01-13_20h38.21.943,IAT(Formal),2021.2.3,Win32,60.24096386,,,,,,,,,,,,,,,,,,,,,,,,,,,,,,,,,,,,,,,,,,,,,,,,,,,,固执,i,,,,e,0,0.741,1,18,98,47,1,,
,,,,,,,,,,,,,1,001,2025-01-13_20h38.21.943,IAT(Formal),2021.2.3,Win32,60.24096386,,,,,,,,,,,,,,,,,,,,,,,,,,,,,,,,,,,,,,,,,,,,,,,,,,,,其他,e,,,,e,1,0.7087,1,19,99,79,1,,
,,,,,,,,,,,,,1,001,2025-01-13_20h38.21.943,IAT(Formal),2021.2.3,Win32,60.24096386,,,,,,,,,,,,,,,,,,,,,,,,,,,,,,,,,,,,,,,,,,,,,,,,,,,,俺,i,,,,e,0,0.4841,1,20,100,54,1,,
,,,,,,,,,,,,,1,001,2025-01-13_20h38.21.943,IAT(Formal),2021.2.3,Win32,60.24096386,,,,,,,,,,,,,,,,,,,,,,,,,,,,,,,,,,,,,,,,,,,,,,,,,,,,我的,i,,,,i,1,0.5532,1,21,101,61,1,,
,,,,,,,,,,,,,1,001,2025-01-13_20h38.21.943,IAT(Formal),2021.2.3,Win32,60.24096386,,,,,,,,,,,,,,,,,,,,,,,,,,,,,,,,,,,,,,,,,,,,,,,,,,,,冷静,e,,,,e,1,0.6522,1,22,102,26,1,,
,,,,,,,,,,,,,1,001,2025-01-13_20h38.21.943,IAT(Formal),2021.2.3,Win32,60.24096386,,,,,,,,,,,,,,,,,,,,,,,,,,,,,,,,,,,,,,,,,,,,,,,,,,,,自己,i,,,,i,1,0.7436,1,23,103,53,1,,
,,,,,,,,,,,,,1,001,2025-01-13_20h38.21.943,IAT(Formal),2021.2.3,Win32,60.24096386,,,,,,,,,,,,,,,,,,,,,,,,,,,,,,,,,,,,,,,,,,,,,,,,,,,,聪明,e,,,,e,1,0.7005,1,24,104,12,1,,
,,,,,,,,,,,,,1,001,2025-01-13_20h38.21.943,IAT(Formal),2021.2.3,Win32,60.24096386,,,,,,,,,,,,,,,,,,,,,,,,,,,,,,,,,,,,,,,,,,,,,,,,,,,,他人,e,,,,i,0,0.6008,1,25,105,8,1,,
,,,,,,,,,,,,,1,001,2025-01-13_20h38.21.943,IAT(Formal),2021.2.3,Win32,60.24096386,,,,,,,,,,,,,,,,,,,,,,,,,,,,,,,,,,,,,,,,,,,,,,,,,,,,优秀,e,,,,e,1,0.7453,1,26,106,10,1,,
,,,,,,,,,,,,,1,001,2025-01-13_20h38.21.943,IAT(Formal),2021.2.3,Win32,60.24096386,,,,,,,,,,,,,,,,,,,,,,,,,,,,,,,,,,,,,,,,,,,,,,,,,,,,公正,e,,,,e,1,0.6241,1,27,107,23,1,,
,,,,,,,,,,,,,1,001,2025-01-13_20h38.21.943,IAT(Formal),2021.2.3,Win32,60.24096386,,,,,,,,,,,,,,,,,,,,,,,,,,,,,,,,,,,,,,,,,,,,,,,,,,,,冒失,i,,,,i,1,0.7386,1,28,108,39,1,,
,,,,,,,,,,,,,1,001,2025-01-13_20h38.21.943,IAT(Formal),2021.2.3,Win32,60.24096386,,,,,,,,,,,,,,,,,,,,,,,,,,,,,,,,,,,,,,,,,,,,,,,,,,,,我们,i,,,,e,0,0.4169,1,29,109,72,1,,
,,,,,,,,,,,,,1,001,2025-01-13_20h38.21.943,IAT(Formal),2021.2.3,Win32,60.24096386,,,,,,,,,,,,,,,,,,,,,,,,,,,,,,,,,,,,,,,,,,,,,,,,,,,,执拗,i,,,,i,1,0.5657,1,30,110,40,1,,
,,,,,,,,,,,,,1,001,2025-01-13_20h38.21.943,IAT(Formal),2021.2.3,Win32,60.24096386,,,,,,,,,,,,,,,,,,,,,,,,,,,,,,,,,,,,,,,,,,,,,,,,,,,,乐观,e,,,,i,0,0.5196,1,31,111,14,1,,
,,,,,,,,,,,,,1,001,2025-01-13_20h38.21.943,IAT(Formal),2021.2.3,Win32,60.24096386,,,,,,,,,,,,,,,,,,,,,,,,,,,,,,,,,,,,,,,,,,,,,,,,,,,,野蛮,i,,,,i,1,0.5704,1,32,112,46,1,,
,,,,,,,,,,,,,1,001,2025-01-13_20h38.21.943,IAT(Formal),2021.2.3,Win32,60.24096386,,,,,,,,,,,,,,,,,,,,,,,,,,,,,,,,,,,,,,,,,,,,,,,,,,,,他的,e,,,,e,1,0.522,1,33,113,57,1,,
,,,,,,,,,,,,,1,001,2025-01-13_20h38.21.943,IAT(Formal),2021.2.3,Win32,60.24096386,,,,,,,,,,,,,,,,,,,,,,,,,,,,,,,,,,,,,,,,,,,,,,,,,,,,我,i,,,,i,1,0.6002,1,34,114,0,1,,
,,,,,,,,,,,,,1,001,2025-01-13_20h38.21.943,IAT(Formal),2021.2.3,Win32,60.24096386,,,,,,,,,,,,,,,,,,,,,,,,,,,,,,,,,,,,,,,,,,,,,,,,,,,,他的,e,,,,e,1,0.4169,1,35,115,77,1,,
,,,,,,,,,,,,,1,001,2025-01-13_20h38.21.943,IAT(Formal),2021.2.3,Win32,60.24096386,,,,,,,,,,,,,,,,,,,,,,,,,,,,,,,,,,,,,,,,,,,,,,,,,,,,自己,i,,,,i,1,0.5616,1,36,116,63,1,,
,,,,,,,,,,,,,1,001,2025-01-13_20h38.21.943,IAT(Formal),2021.2.3,Win32,60.24096386,,,,,,,,,,,,,,,,,,,,,,,,,,,,,,,,,,,,,,,,,,,,,,,,,,,,卑鄙,i,,,,i,1,0.56,1,37,117,30,1,,
,,,,,,,,,,,,,1,001,2025-01-13_20h38.21.943,IAT(Formal),2021.2.3,Win32,60.24096386,,,,,,,,,,,,,,,,,,,,,,,,,,,,,,,,,,,,,,,,,,,,,,,,,,,,俺,i,,,,i,1,0.5841,1,38,118,64,1,,
,,,,,,,,,,,,,1,001,2025-01-13_20h38.21.943,IAT(Formal),2021.2.3,Win32,60.24096386,,,,,,,,,,,,,,,,,,,,,,,,,,,,,,,,,,,,,,,,,,,,,,,,,,,,热情,e,,,,e,1,0.6171,1,39,119,27,1,,
,,,,,,,,,,,,,1,001,2025-01-13_20h38.21.943,IAT(Formal),2021.2.3,Win32,60.24096386,,,,,,,,,,,,,,,,,,,,,,,,,,,,,,,,,,,,,,,,,,,,,,,,,,,,勤奋,e,,,,e,1,0.5514,1,40,120,18,1,,
,,,,,,,,,,,,,1,001,2025-01-13_20h38.21.943,IAT(Formal),2021.2.3,Win32,60.24096386,,,,,,,,,,,,,,,,,,,,,,,,,,,,,,,,,,,,,,,,,,,,,,,,,,,,暴躁,i,,,,i,1,0.5339,1,41,121,44,1,,
,,,,,,,,,,,,,1,001,2025-01-13_20h38.21.943,IAT(Formal),2021.2.3,Win32,60.24096386,,,,,,,,,,,,,,,,,,,,,,,,,,,,,,,,,,,,,,,,,,,,,,,,,,,,杰出,e,,,,e,1,0.5341,1,42,122,13,1,,
,,,,,,,,,,,,,1,001,2025-01-13_20h38.21.943,IAT(Formal),2021.2.3,Win32,60.24096386,,,,,,,,,,,,,,,,,,,,,,,,,,,,,,,,,,,,,,,,,,,,,,,,,,,,我,i,,,,i,1,0.5173,1,43,123,50,1,,
,,,,,,,,,,,,,1,001,2025-01-13_20h38.21.943,IAT(Formal),2021.2.3,Win32,60.24096386,,,,,,,,,,,,,,,,,,,,,,,,,,,,,,,,,,,,,,,,,,,,,,,,,,,,俺,i,,,,i,1,0.4603,1,44,124,74,1,,
,,,,,,,,,,,,,1,001,2025-01-13_20h38.21.943,IAT(Formal),2021.2.3,Win32,60.24096386,,,,,,,,,,,,,,,,,,,,,,,,,,,,,,,,,,,,,,,,,,,,,,,,,,,,下贱,i,,,,i,1,0.4952,1,45,125,49,1,,
,,,,,,,,,,,,,1,001,2025-01-13_20h38.21.943,IAT(Formal),2021.2.3,Win32,60.24096386,,,,,,,,,,,,,,,,,,,,,,,,,,,,,,,,,,,,,,,,,,,,,,,,,,,,稳重,e,,,,e,1,0.3799,1,46,126,21,1,,
,,,,,,,,,,,,,1,001,2025-01-13_20h38.21.943,IAT(Formal),2021.2.3,Win32,60.24096386,,,,,,,,,,,,,,,,,,,,,,,,,,,,,,,,,,,,,,,,,,,,,,,,,,,,自己,i,,,,i,1,0.4881,1,47,127,3,1,,
,,,,,,,,,,,,,1,001,2025-01-13_20h38.21.943,IAT(Formal),2021.2.3,Win32,60.24096386,,,,,,,,,,,,,,,,,,,,,,,,,,,,,,,,,,,,,,,,,,,,,,,,,,,,他们,e,,,,e,1,0.4521,1,48,128,76,1,,
,,,,,,,,,,,,,1,001,2025-01-13_20h38.21.943,IAT(Formal),2021.2.3,Win32,60.24096386,,,,,,,,,,,,,,,,,,,,,,,,,,,,,,,,,,,,,,,,,,,,,,,,,,,,自卑,i,,,,i,1,0.4257,1,49,129,36,1,,
,,,,,,,,,,,,,1,001,2025-01-13_20h38.21.943,IAT(Formal),2021.2.3,Win32,60.24096386,,,,,,,,,,,,,,,,,,,,,,,,,,,,,,,,,,,,,,,,,,,,,,,,,,,,无私,e,,,,e,1,0.9839,1,50,130,22,1,,
,,,,,,,,,,,,,1,001,2025-01-13_20h38.21.943,IAT(Formal),2021.2.3,Win32,60.24096386,,,,,,,,,,,,,,,,,,,,,,,,,,,,,,,,,,,,,,,,,,,,,,,,,,,,轻率,i,,,,i,1,0.8506,1,51,131,48,1,,
,,,,,,,,,,,,,1,001,2025-01-13_20h38.21.943,IAT(Formal),2021.2.3,Win32,60.24096386,,,,,,,,,,,,,,,,,,,,,,,,,,,,,,,,,,,,,,,,,,,,,,,,,,,,我们,i,,,,i,1,0.5629,1,52,132,2,1,,
,,,,,,,,,,,,,1,001,2025-01-13_20h38.21.943,IAT(Formal),2021.2.3,Win32,60.24096386,,,,,,,,,,,,,,,,,,,,,,,,,,,,,,,,,,,,,,,,,,,,,,,,,,,,诚实,e,,,,e,1,0.8508,1,53,133,15,1,,
,,,,,,,,,,,,,1,001,2025-01-13_20h38.21.943,IAT(Formal),2021.2.3,Win32,60.24096386,,,,,,,,,,,,,,,,,,,,,,,,,,,,,,,,,,,,,,,,,,,,,,,,,,,,他人,e,,,,i,0,0.4675,1,54,134,68,1,,
,,,,,,,,,,,,,1,001,2025-01-13_20h38.21.943,IAT(Formal),2021.2.3,Win32,60.24096386,,,,,,,,,,,,,,,,,,,,,,,,,,,,,,,,,,,,,,,,,,,,,,,,,,,,他们,e,,,,e,1,0.6115,1,55,135,66,1,,
,,,,,,,,,,,,,1,001,2025-01-13_20h38.21.943,IAT(Formal),2021.2.3,Win32,60.24096386,,,,,,,,,,,,,,,,,,,,,,,,,,,,,,,,,,,,,,,,,,,,,,,,,,,,悲观,i,,,,e,0,0.6931,1,56,136,34,1,,
,,,,,,,,,,,,,1,001,2025-01-13_20h38.21.943,IAT(Formal),2021.2.3,Win32,60.24096386,,,,,,,,,,,,,,,,,,,,,,,,,,,,,,,,,,,,,,,,,,,,,,,,,,,,我,i,,,,i,1,0.5673,1,57,137,70,1,,
,,,,,,,,,,,,,1,001,2025-01-13_20h38.21.943,IAT(Formal),2021.2.3,Win32,60.24096386,,,,,,,,,,,,,,,,,,,,,,,,,,,,,,,,,,,,,,,,,,,,,,,,,,,,他们,e,,,,e,1,0.4506,1,58,138,56,1,,
,,,,,,,,,,,,,1,001,2025-01-13_20h38.21.943,IAT(Formal),2021.2.3,Win32,60.24096386,,,,,,,,,,,,,,,,,,,,,,,,,,,,,,,,,,,,,,,,,,,,,,,,,,,,我们,i,,,,i,1,0.6905,1,59,139,52,1,,
,,,,,,,,,,,,,1,001,2025-01-13_20h38.21.943,IAT(Formal),2021.2.3,Win32,60.24096386,,,,,,,,,,,,,,,,,,,,,,,,,,,,,,,,,,,,,,,,,,,,,,,,,,,,他,e,,,,e,1,0.4172,1,60,140,75,1,,
,,,,,,,,,,,,,1,001,2025-01-13_20h38.21.943,IAT(Formal),2021.2.3,Win32,60.24096386,,,,,,,,,,,,,,,,,,,,,,,,,,,,,,,,,,,,,,,,,,,,,,,,,,,,朴实,e,,,,e,1,0.7087,1,61,141,24,1,,
,,,,,,,,,,,,,1,001,2025-01-13_20h38.21.943,IAT(Formal),2021.2.3,Win32,60.24096386,,,,,,,,,,,,,,,,,,,,,,,,,,,,,,,,,,,,,,,,,,,,,,,,,,,,正直,e,,,,e,1,0.8339,1,62,142,16,1,,
,,,,,,,,,,,,,1,001,2025-01-13_20h38.21.943,IAT(Formal),2021.2.3,Win32,60.24096386,,,,,,,,,,,,,,,,,,,,,,,,,,,,,,,,,,,,,,,,,,,,,,,,,,,,他们,e,,,,e,1,0.8624,1,63,143,6,1,,
,,,,,,,,,,,,,1,001,2025-01-13_20h38.21.943,IAT(Formal),2021.2.3,Win32,60.24096386,,,,,,,,,,,,,,,,,,,,,,,,,,,,,,,,,,,,,,,,,,,,,,,,,,,,他人,e,,,,e,1,0.5003,1,64,144,78,1,,
,,,,,,,,,,,,,1,001,2025-01-13_20h38.21.943,IAT(Formal),2021.2.3,Win32,60.24096386,,,,,,,,,,,,,,,,,,,,,,,,,,,,,,,,,,,,,,,,,,,,,,,,,,,,其他,e,,,,e,1,0.5501,1,65,145,59,1,,
,,,,,,,,,,,,,1,001,2025-01-13_20h38.21.943,IAT(Formal),2021.2.3,Win32,60.24096386,,,,,,,,,,,,,,,,,,,,,,,,,,,,,,,,,,,,,,,,,,,,,,,,,,,,活泼,e,,,,e,1,0.5788,1,66,146,28,1,,
,,,,,,,,,,,,,1,001,2025-01-13_20h38.21.943,IAT(Formal),2021.2.3,Win32,60.24096386,,,,,,,,,,,,,,,,,,,,,,,,,,,,,,,,,,,,,,,,,,,,,,,,,,,,虚伪,i,,,,i,1,0.8345,1,67,147,31,1,,
,,,,,,,,,,,,,1,001,2025-01-13_20h38.21.943,IAT(Formal),2021.2.3,Win32,60.24096386,,,,,,,,,,,,,,,,,,,,,,,,,,,,,,,,,,,,,,,,,,,,,,,,,,,,其他,e,,,,e,1,0.5749,1,68,148,9,1,,
,,,,,,,,,,,,,1,001,2025-01-13_20h38.21.943,IAT(Formal),2021.2.3,Win32,60.24096386,,,,,,,,,,,,,,,,,,,,,,,,,,,,,,,,,,,,,,,,,,,,,,,,,,,,凶狠,i,,,,i,1,0.534,1,69,149,42,1,,
,,,,,,,,,,,,,1,001,2025-01-13_20h38.21.943,IAT(Formal),2021.2.3,Win32,60.24096386,,,,,,,,,,,,,,,,,,,,,,,,,,,,,,,,,,,,,,,,,,,,,,,,,,,,他的,e,,,,e,1,0.7674,1,70,150,7,1,,
,,,,,,,,,,,,,1,001,2025-01-13_20h38.21.943,IAT(Formal),2021.2.3,Win32,60.24096386,,,,,,,,,,,,,,,,,,,,,,,,,,,,,,,,,,,,,,,,,,,,,,,,,,,,他,e,,,,e,1,0.5005,1,71,151,5,1,,
,,,,,,,,,,,,,1,001,2025-01-13_20h38.21.943,IAT(Formal),2021.2.3,Win32,60.24096386,,,,,,,,,,,,,,,,,,,,,,,,,,,,,,,,,,,,,,,,,,,,,,,,,,,,细腻,e,,,,e,1,0.6174,1,72,152,25,1,,
,,,,,,,,,,,,,1,001,2025-01-13_20h38.21.943,IAT(Formal),2021.2.3,Win32,60.24096386,,,,,,,,,,,,,,,,,,,,,,,,,,,,,,,,,,,,,,,,,,,,,,,,,,,,其他,e,,,,e,1,0.6696,1,73,153,69,1,,
,,,,,,,,,,,,,1,001,2025-01-13_20h38.21.943,IAT(Formal),2021.2.3,Win32,60.24096386,,,,,,,,,,,,,,,,,,,,,,,,,,,,,,,,,,,,,,,,,,,,,,,,,,,,我的,i,,,,i,1,0.4733,1,74,154,71,1,,
,,,,,,,,,,,,,1,001,2025-01-13_20h38.21.943,IAT(Formal),2021.2.3,Win32,60.24096386,,,,,,,,,,,,,,,,,,,,,,,,,,,,,,,,,,,,,,,,,,,,,,,,,,,,我,i,,,,i,1,0.7794,1,75,155,60,1,,
,,,,,,,,,,,,,1,001,2025-01-13_20h38.21.943,IAT(Formal),2021.2.3,Win32,60.24096386,,,,,,,,,,,,,,,,,,,,,,,,,,,,,,,,,,,,,,,,,,,,,,,,,,,,自私,i,,,,e,0,0.5007,1,76,156,43,1,,
,,,,,,,,,,,,,1,001,2025-01-13_20h38.21.943,IAT(Formal),2021.2.3,Win32,60.24096386,,,,,,,,,,,,,,,,,,,,,,,,,,,,,,,,,,,,,,,,,,,,,,,,,,,,诚恳,e,,,,e,1,0.7703,1,77,157,29,1,,
,,,,,,,,,,,,,1,001,2025-01-13_20h38.21.943,IAT(Formal),2021.2.3,Win32,60.24096386,,,,,,,,,,,,,,,,,,,,,,,,,,,,,,,,,,,,,,,,,,,,,,,,,,,,鲁莽,i,,,,i,1,0.6107,1,78,158,38,1,,
,,,,,,,,,,,,,1,001,2025-01-13_20h38.21.943,IAT(Formal),2021.2.3,Win32,60.24096386,,,,,,,,,,,,,,,,,,,,,,,,,,,,,,,,,,,,,,,,,,,,,,,,,,,,消极,i,,,,i,1,0.584,1,79,159,35,1,,
,,,,,,,,,,,,,1,001,2025-01-13_20h38.21.943,IAT(Formal),2021.2.3,Win32,60.24096386,,,,,,,,,,,,,,,,,,,,,,,,,,,,,,,,,,,,,,,,,,,,,,,,,,,,,,,,,,,,,,,,,space,1.8499