﻿Instruction1.keys,Instruction1.rt,Instruction2.keys,Instruction2.rt,key_resp_iso.keys,key_resp_iso.corr,Practice_01.thisRepN,Practice_01.thisTrialN,Practice_01.thisN,Practice_01.thisIndex,Practice_01.ran,Words,ans,participant,session,date,expName,psychopyVersion,OS,frameRate,key_resp_iso.rt,key_resp_3.keys,key_resp_3.rt,key_resp_ipn.keys,key_resp_ipn.corr,key_resp_ipn.rt,Practice_02.thisRepN,Practice_02.thisTrialN,Practice_02.thisN,Practice_02.thisIndex,Practice_02.ran,Words_ipn,ans_ipn,key_resp_4.keys,key_resp_4.rt,key_resp_t1.keys,key_resp_t1.corr,key_resp_t1.rt,Practice_T1.thisRepN,Practice_T1.thisTrialN,Practice_T1.thisN,Practice_T1.thisIndex,Practice_T1.ran,Words_t1,ans_t1,key_resp_5.keys,key_resp_5.rt,Formal_T1.thisRepN,Formal_T1.thisTrialN,Formal_T1.thisN,Formal_T1.thisIndex,Formal_T1.ran,key_resp_6.keys,key_resp_6.rt,key_resp_iso_reverse.keys,key_resp_iso_reverse.corr,key_resp_iso_reverse.rt,Practice_iso_Reverse.thisRepN,Practice_iso_Reverse.thisTrialN,Practice_iso_Reverse.thisN,Practice_iso_Reverse.thisIndex,Practice_iso_Reverse.ran,key_resp_7.keys,key_resp_7.rt,key_resp_t2_Practice.keys,key_resp_t2_Practice.corr,key_resp_t2_Practice.rt,Practice_t2_Reverse.thisRepN,Practice_t2_Reverse.thisTrialN,Practice_t2_Reverse.thisN,Practice_t2_Reverse.thisIndex,Practice_t2_Reverse.ran,Words_t2,ans_t2,key_resp_8.keys,key_resp_8.rt,key_resp_t2.keys,key_resp_t2.corr,key_resp_t2.rt,Formal_t2_reverse.thisRepN,Formal_t2_reverse.thisTrialN,Formal_t2_reverse.thisN,Formal_t2_reverse.thisIndex,Formal_t2_reverse.ran,key_instruct.keys,key_instruct.rt
space,14.0351,space,23.3596,,0,0,0,0,5,1,他,i,1,001,2025-01-20_15h51.47.464,IAT(Formal),2021.2.3,Win32,59.52380952,,,,,,,,,,,,,,,,,,,,,,,,,,,,,,,,,,,,,,,,,,,,,,,,,,,,,,,,,,,,,,,,,,
,,,,,0,0,1,1,2,1,我们,e,1,001,2025-01-20_15h51.47.464,IAT(Formal),2021.2.3,Win32,59.52380952,,,,,,,,,,,,,,,,,,,,,,,,,,,,,,,,,,,,,,,,,,,,,,,,,,,,,,,,,,,,,,,,,,
,,,,,0,0,2,2,9,1,其他,i,1,001,2025-01-20_15h51.47.464,IAT(Formal),2021.2.3,Win32,59.52380952,,,,,,,,,,,,,,,,,,,,,,,,,,,,,,,,,,,,,,,,,,,,,,,,,,,,,,,,,,,,,,,,,,
,,,,,0,0,3,3,3,1,自己,e,1,001,2025-01-20_15h51.47.464,IAT(Formal),2021.2.3,Win32,59.52380952,,,,,,,,,,,,,,,,,,,,,,,,,,,,,,,,,,,,,,,,,,,,,,,,,,,,,,,,,,,,,,,,,,
,,,,i,0,0,4,4,0,1,我,e,1,001,2025-01-20_15h51.47.464,IAT(Formal),2021.2.3,Win32,59.52380952,0.1635,,,,,,,,,,,,,,,,,,,,,,,,,,,,,,,,,,,,,,,,,,,,,,,,,,,,,,,,,,,,,,,,,
,,,,i,0,0,5,5,1,1,我的,e,1,001,2025-01-20_15h51.47.464,IAT(Formal),2021.2.3,Win32,59.52380952,0.2823,,,,,,,,,,,,,,,,,,,,,,,,,,,,,,,,,,,,,,,,,,,,,,,,,,,,,,,,,,,,,,,,,
,,,,i,1,0,6,6,8,1,他人,i,1,001,2025-01-20_15h51.47.464,IAT(Formal),2021.2.3,Win32,59.52380952,0.7156,,,,,,,,,,,,,,,,,,,,,,,,,,,,,,,,,,,,,,,,,,,,,,,,,,,,,,,,,,,,,,,,,
,,,,e,0,0,7,7,7,1,他的,i,1,001,2025-01-20_15h51.47.464,IAT(Formal),2021.2.3,Win32,59.52380952,0.7107,,,,,,,,,,,,,,,,,,,,,,,,,,,,,,,,,,,,,,,,,,,,,,,,,,,,,,,,,,,,,,,,,
,,,,i,1,0,8,8,6,1,他们,i,1,001,2025-01-20_15h51.47.464,IAT(Formal),2021.2.3,Win32,59.52380952,0.8359,,,,,,,,,,,,,,,,,,,,,,,,,,,,,,,,,,,,,,,,,,,,,,,,,,,,,,,,,,,,,,,,,
,,,,e,1,0,9,9,4,1,俺,e,1,001,2025-01-20_15h51.47.464,IAT(Formal),2021.2.3,Win32,59.52380952,0.5818,,,,,,,,,,,,,,,,,,,,,,,,,,,,,,,,,,,,,,,,,,,,,,,,,,,,,,,,,,,,,,,,,
,,,,,,,,,,,,,1,001,2025-01-20_15h51.47.464,IAT(Formal),2021.2.3,Win32,59.52380952,,space,11.0228,e,1,0.5654,0,0,0,8,1,勤奋,e,,,,,,,,,,,,,,,,,,,,,,,,,,,,,,,,,,,,,,,,,,,,,,,,,,,,,
,,,,,,,,,,,,,1,001,2025-01-20_15h51.47.464,IAT(Formal),2021.2.3,Win32,59.52380952,,,,i,1,0.4603,0,1,1,39,1,下贱,i,,,,,,,,,,,,,,,,,,,,,,,,,,,,,,,,,,,,,,,,,,,,,,,,,,,,,
,,,,,,,,,,,,,1,001,2025-01-20_15h51.47.464,IAT(Formal),2021.2.3,Win32,59.52380952,,,,e,1,0.8161,0,2,2,13,1,公正,e,,,,,,,,,,,,,,,,,,,,,,,,,,,,,,,,,,,,,,,,,,,,,,,,,,,,,
,,,,,,,,,,,,,1,001,2025-01-20_15h51.47.464,IAT(Formal),2021.2.3,Win32,59.52380952,,,,i,1,0.5333,0,3,3,26,1,自卑,i,,,,,,,,,,,,,,,,,,,,,,,,,,,,,,,,,,,,,,,,,,,,,,,,,,,,,
,,,,,,,,,,,,,1,001,2025-01-20_15h51.47.464,IAT(Formal),2021.2.3,Win32,59.52380952,,,,i,1,0.6804,0,4,4,25,1,消极,i,,,,,,,,,,,,,,,,,,,,,,,,,,,,,,,,,,,,,,,,,,,,,,,,,,,,,
,,,,,,,,,,,,,1,001,2025-01-20_15h51.47.464,IAT(Formal),2021.2.3,Win32,59.52380952,,,,i,1,0.5638,0,5,5,29,1,冒失,i,,,,,,,,,,,,,,,,,,,,,,,,,,,,,,,,,,,,,,,,,,,,,,,,,,,,,
,,,,,,,,,,,,,1,001,2025-01-20_15h51.47.464,IAT(Formal),2021.2.3,Win32,59.52380952,,,,e,1,0.9268,0,6,6,19,1,诚恳,e,,,,,,,,,,,,,,,,,,,,,,,,,,,,,,,,,,,,,,,,,,,,,,,,,,,,,
,,,,,,,,,,,,,1,001,2025-01-20_15h51.47.464,IAT(Formal),2021.2.3,Win32,59.52380952,,,,e,0,1.3506,0,7,7,36,1,野蛮,i,,,,,,,,,,,,,,,,,,,,,,,,,,,,,,,,,,,,,,,,,,,,,,,,,,,,,
,,,,,,,,,,,,,1,001,2025-01-20_15h51.47.464,IAT(Formal),2021.2.3,Win32,59.52380952,,,,e,1,1.1713,0,8,8,10,1,认真,e,,,,,,,,,,,,,,,,,,,,,,,,,,,,,,,,,,,,,,,,,,,,,,,,,,,,,
,,,,,,,,,,,,,1,001,2025-01-20_15h51.47.464,IAT(Formal),2021.2.3,Win32,59.52380952,,,,i,0,0.8398,0,9,9,2,1,聪明,e,,,,,,,,,,,,,,,,,,,,,,,,,,,,,,,,,,,,,,,,,,,,,,,,,,,,,
,,,,,,,,,,,,,1,001,2025-01-20_15h51.47.464,IAT(Formal),2021.2.3,Win32,59.52380952,,,,i,1,0.968,0,10,10,21,1,虚伪,i,,,,,,,,,,,,,,,,,,,,,,,,,,,,,,,,,,,,,,,,,,,,,,,,,,,,,
,,,,,,,,,,,,,1,001,2025-01-20_15h51.47.464,IAT(Formal),2021.2.3,Win32,59.52380952,,,,e,1,1.098,0,11,11,11,1,稳重,e,,,,,,,,,,,,,,,,,,,,,,,,,,,,,,,,,,,,,,,,,,,,,,,,,,,,,
,,,,,,,,,,,,,1,001,2025-01-20_15h51.47.464,IAT(Formal),2021.2.3,Win32,59.52380952,,,,e,1,0.9487,0,12,12,0,1,优秀,e,,,,,,,,,,,,,,,,,,,,,,,,,,,,,,,,,,,,,,,,,,,,,,,,,,,,,
,,,,,,,,,,,,,1,001,2025-01-20_15h51.47.464,IAT(Formal),2021.2.3,Win32,59.52380952,,,,e,1,0.5602,0,13,13,1,1,崇高,e,,,,,,,,,,,,,,,,,,,,,,,,,,,,,,,,,,,,,,,,,,,,,,,,,,,,,
,,,,,,,,,,,,,1,001,2025-01-20_15h51.47.464,IAT(Formal),2021.2.3,Win32,59.52380952,,,,i,1,0.8265,0,14,14,28,1,鲁莽,i,,,,,,,,,,,,,,,,,,,,,,,,,,,,,,,,,,,,,,,,,,,,,,,,,,,,,
,,,,,,,,,,,,,1,001,2025-01-20_15h51.47.464,IAT(Formal),2021.2.3,Win32,59.52380952,,,,i,1,0.9348,0,15,15,37,1,固执,i,,,,,,,,,,,,,,,,,,,,,,,,,,,,,,,,,,,,,,,,,,,,,,,,,,,,,
,,,,,,,,,,,,,1,001,2025-01-20_15h51.47.464,IAT(Formal),2021.2.3,Win32,59.52380952,,,,i,0,0.4513,0,16,16,12,1,无私,e,,,,,,,,,,,,,,,,,,,,,,,,,,,,,,,,,,,,,,,,,,,,,,,,,,,,,
,,,,,,,,,,,,,1,001,2025-01-20_15h51.47.464,IAT(Formal),2021.2.3,Win32,59.52380952,,,,i,1,0.873,0,17,17,27,1,傲慢,i,,,,,,,,,,,,,,,,,,,,,,,,,,,,,,,,,,,,,,,,,,,,,,,,,,,,,
,,,,,,,,,,,,,1,001,2025-01-20_15h51.47.464,IAT(Formal),2021.2.3,Win32,59.52380952,,,,e,1,0.5878,0,18,18,17,1,热情,e,,,,,,,,,,,,,,,,,,,,,,,,,,,,,,,,,,,,,,,,,,,,,,,,,,,,,
,,,,,,,,,,,,,1,001,2025-01-20_15h51.47.464,IAT(Formal),2021.2.3,Win32,59.52380952,,,,i,1,0.7845,0,19,19,23,1,刻薄,i,,,,,,,,,,,,,,,,,,,,,,,,,,,,,,,,,,,,,,,,,,,,,,,,,,,,,
,,,,,,,,,,,,,1,001,2025-01-20_15h51.47.464,IAT(Formal),2021.2.3,Win32,59.52380952,,,,e,0,0.8949,0,20,20,32,1,凶狠,i,,,,,,,,,,,,,,,,,,,,,,,,,,,,,,,,,,,,,,,,,,,,,,,,,,,,,
,,,,,,,,,,,,,1,001,2025-01-20_15h51.47.464,IAT(Formal),2021.2.3,Win32,59.52380952,,,,e,1,0.5288,0,21,21,6,1,正直,e,,,,,,,,,,,,,,,,,,,,,,,,,,,,,,,,,,,,,,,,,,,,,,,,,,,,,
,,,,,,,,,,,,,1,001,2025-01-20_15h51.47.464,IAT(Formal),2021.2.3,Win32,59.52380952,,,,i,1,0.7803,0,22,22,24,1,悲观,i,,,,,,,,,,,,,,,,,,,,,,,,,,,,,,,,,,,,,,,,,,,,,,,,,,,,,
,,,,,,,,,,,,,1,001,2025-01-20_15h51.47.464,IAT(Formal),2021.2.3,Win32,59.52380952,,,,e,1,0.6856,0,23,23,15,1,细腻,e,,,,,,,,,,,,,,,,,,,,,,,,,,,,,,,,,,,,,,,,,,,,,,,,,,,,,
,,,,,,,,,,,,,1,001,2025-01-20_15h51.47.464,IAT(Formal),2021.2.3,Win32,59.52380952,,,,,0,,0,24,24,31,1,散漫,i,,,,,,,,,,,,,,,,,,,,,,,,,,,,,,,,,,,,,,,,,,,,,,,,,,,,,
,,,,,,,,,,,,,1,001,2025-01-20_15h51.47.464,IAT(Formal),2021.2.3,Win32,59.52380952,,,,i,1,0.7154,0,25,25,20,1,卑鄙,i,,,,,,,,,,,,,,,,,,,,,,,,,,,,,,,,,,,,,,,,,,,,,,,,,,,,,
,,,,,,,,,,,,,1,001,2025-01-20_15h51.47.464,IAT(Formal),2021.2.3,Win32,59.52380952,,,,i,1,0.558,0,26,26,38,1,轻率,i,,,,,,,,,,,,,,,,,,,,,,,,,,,,,,,,,,,,,,,,,,,,,,,,,,,,,
,,,,,,,,,,,,,1,001,2025-01-20_15h51.47.464,IAT(Formal),2021.2.3,Win32,59.52380952,,,,e,1,0.7543,0,27,27,3,1,杰出,e,,,,,,,,,,,,,,,,,,,,,,,,,,,,,,,,,,,,,,,,,,,,,,,,,,,,,
,,,,,,,,,,,,,1,001,2025-01-20_15h51.47.464,IAT(Formal),2021.2.3,Win32,59.52380952,,,,i,1,1.1319,0,28,28,33,1,自私,i,,,,,,,,,,,,,,,,,,,,,,,,,,,,,,,,,,,,,,,,,,,,,,,,,,,,,
,,,,,,,,,,,,,1,001,2025-01-20_15h51.47.464,IAT(Formal),2021.2.3,Win32,59.52380952,,,,e,1,1.4249,0,29,29,5,1,诚实,e,,,,,,,,,,,,,,,,,,,,,,,,,,,,,,,,,,,,,,,,,,,,,,,,,,,,,
,,,,,,,,,,,,,1,001,2025-01-20_15h51.47.464,IAT(Formal),2021.2.3,Win32,59.52380952,,,,i,1,0.5456,0,30,30,35,1,猖狂,i,,,,,,,,,,,,,,,,,,,,,,,,,,,,,,,,,,,,,,,,,,,,,,,,,,,,,
,,,,,,,,,,,,,1,001,2025-01-20_15h51.47.464,IAT(Formal),2021.2.3,Win32,59.52380952,,,,e,1,0.6437,0,31,31,14,1,朴实,e,,,,,,,,,,,,,,,,,,,,,,,,,,,,,,,,,,,,,,,,,,,,,,,,,,,,,
,,,,,,,,,,,,,1,001,2025-01-20_15h51.47.464,IAT(Formal),2021.2.3,Win32,59.52380952,,,,i,1,0.6796,0,32,32,22,1,愚蠢,i,,,,,,,,,,,,,,,,,,,,,,,,,,,,,,,,,,,,,,,,,,,,,,,,,,,,,
,,,,,,,,,,,,,1,001,2025-01-20_15h51.47.464,IAT(Formal),2021.2.3,Win32,59.52380952,,,,i,1,0.9383,0,33,33,34,1,暴躁,i,,,,,,,,,,,,,,,,,,,,,,,,,,,,,,,,,,,,,,,,,,,,,,,,,,,,,
,,,,,,,,,,,,,1,001,2025-01-20_15h51.47.464,IAT(Formal),2021.2.3,Win32,59.52380952,,,,e,1,0.8373,0,34,34,7,1,勇敢,e,,,,,,,,,,,,,,,,,,,,,,,,,,,,,,,,,,,,,,,,,,,,,,,,,,,,,
,,,,,,,,,,,,,1,001,2025-01-20_15h51.47.464,IAT(Formal),2021.2.3,Win32,59.52380952,,,,e,1,0.5478,0,35,35,4,1,乐观,e,,,,,,,,,,,,,,,,,,,,,,,,,,,,,,,,,,,,,,,,,,,,,,,,,,,,,
,,,,,,,,,,,,,1,001,2025-01-20_15h51.47.464,IAT(Formal),2021.2.3,Win32,59.52380952,,,,i,1,0.5572,0,36,36,30,1,执拗,i,,,,,,,,,,,,,,,,,,,,,,,,,,,,,,,,,,,,,,,,,,,,,,,,,,,,,
,,,,,,,,,,,,,1,001,2025-01-20_15h51.47.464,IAT(Formal),2021.2.3,Win32,59.52380952,,,,i,0,0.5921,0,37,37,16,1,冷静,e,,,,,,,,,,,,,,,,,,,,,,,,,,,,,,,,,,,,,,,,,,,,,,,,,,,,,
,,,,,,,,,,,,,1,001,2025-01-20_15h51.47.464,IAT(Formal),2021.2.3,Win32,59.52380952,,,,e,1,0.5195,0,38,38,9,1,机智,e,,,,,,,,,,,,,,,,,,,,,,,,,,,,,,,,,,,,,,,,,,,,,,,,,,,,,
,,,,,,,,,,,,,1,001,2025-01-20_15h51.47.464,IAT(Formal),2021.2.3,Win32,59.52380952,,,,e,1,0.4588,0,39,39,18,1,活泼,e,,,,,,,,,,,,,,,,,,,,,,,,,,,,,,,,,,,,,,,,,,,,,,,,,,,,,
,,,,,,,,,,,,,1,001,2025-01-20_15h51.47.464,IAT(Formal),2021.2.3,Win32,59.52380952,,,,,,,,,,,,,,space,11.3902,i,1,0.5999,0,0,0,39,1,冒失,i,,,,,,,,,,,,,,,,,,,,,,,,,,,,,,,,,,,,,,,,,
,,,,,,,,,,,,,1,001,2025-01-20_15h51.47.464,IAT(Formal),2021.2.3,Win32,59.52380952,,,,,,,,,,,,,,,,e,1,0.6465,0,1,1,71,1,我的,e,,,,,,,,,,,,,,,,,,,,,,,,,,,,,,,,,,,,,,,,,
,,,,,,,,,,,,,1,001,2025-01-20_15h51.47.464,IAT(Formal),2021.2.3,Win32,59.52380952,,,,,,,,,,,,,,,,i,1,0.4263,0,2,2,36,1,自卑,i,,,,,,,,,,,,,,,,,,,,,,,,,,,,,,,,,,,,,,,,,
,,,,,,,,,,,,,1,001,2025-01-20_15h51.47.464,IAT(Formal),2021.2.3,Win32,59.52380952,,,,,,,,,,,,,,,,e,0,0.5208,0,3,3,79,1,其他,i,,,,,,,,,,,,,,,,,,,,,,,,,,,,,,,,,,,,,,,,,
,,,,,,,,,,,,,1,001,2025-01-20_15h51.47.464,IAT(Formal),2021.2.3,Win32,59.52380952,,,,,,,,,,,,,,,,i,1,0.9806,0,4,4,41,1,散漫,i,,,,,,,,,,,,,,,,,,,,,,,,,,,,,,,,,,,,,,,,,
,,,,,,,,,,,,,1,001,2025-01-20_15h51.47.464,IAT(Formal),2021.2.3,Win32,59.52380952,,,,,,,,,,,,,,,,i,0,0.7355,0,5,5,24,1,朴实,e,,,,,,,,,,,,,,,,,,,,,,,,,,,,,,,,,,,,,,,,,
,,,,,,,,,,,,,1,001,2025-01-20_15h51.47.464,IAT(Formal),2021.2.3,Win32,59.52380952,,,,,,,,,,,,,,,,e,0,1.1834,0,6,6,7,1,他的,i,,,,,,,,,,,,,,,,,,,,,,,,,,,,,,,,,,,,,,,,,
,,,,,,,,,,,,,1,001,2025-01-20_15h51.47.464,IAT(Formal),2021.2.3,Win32,59.52380952,,,,,,,,,,,,,,,,i,1,0.3895,0,7,7,42,1,凶狠,i,,,,,,,,,,,,,,,,,,,,,,,,,,,,,,,,,,,,,,,,,
,,,,,,,,,,,,,1,001,2025-01-20_15h51.47.464,IAT(Formal),2021.2.3,Win32,59.52380952,,,,,,,,,,,,,,,,e,1,0.8002,0,8,8,73,1,自己,e,,,,,,,,,,,,,,,,,,,,,,,,,,,,,,,,,,,,,,,,,
,,,,,,,,,,,,,1,001,2025-01-20_15h51.47.464,IAT(Formal),2021.2.3,Win32,59.52380952,,,,,,,,,,,,,,,,e,0,0.5106,0,9,9,75,1,他,i,,,,,,,,,,,,,,,,,,,,,,,,,,,,,,,,,,,,,,,,,
,,,,,,,,,,,,,1,001,2025-01-20_15h51.47.464,IAT(Formal),2021.2.3,Win32,59.52380952,,,,,,,,,,,,,,,,i,1,0.5052,0,10,10,45,1,猖狂,i,,,,,,,,,,,,,,,,,,,,,,,,,,,,,,,,,,,,,,,,,
,,,,,,,,,,,,,1,001,2025-01-20_15h51.47.464,IAT(Formal),2021.2.3,Win32,59.52380952,,,,,,,,,,,,,,,,e,0,0.9967,0,11,11,65,1,他,i,,,,,,,,,,,,,,,,,,,,,,,,,,,,,,,,,,,,,,,,,
,,,,,,,,,,,,,1,001,2025-01-20_15h51.47.464,IAT(Formal),2021.2.3,Win32,59.52380952,,,,,,,,,,,,,,,,i,0,0.4445,0,12,12,2,1,我们,e,,,,,,,,,,,,,,,,,,,,,,,,,,,,,,,,,,,,,,,,,
,,,,,,,,,,,,,1,001,2025-01-20_15h51.47.464,IAT(Formal),2021.2.3,Win32,59.52380952,,,,,,,,,,,,,,,,i,0,0.4339,0,13,13,50,1,我,e,,,,,,,,,,,,,,,,,,,,,,,,,,,,,,,,,,,,,,,,,
,,,,,,,,,,,,,1,001,2025-01-20_15h51.47.464,IAT(Formal),2021.2.3,Win32,59.52380952,,,,,,,,,,,,,,,,i,1,0.5256,0,14,14,33,1,刻薄,i,,,,,,,,,,,,,,,,,,,,,,,,,,,,,,,,,,,,,,,,,
,,,,,,,,,,,,,1,001,2025-01-20_15h51.47.464,IAT(Formal),2021.2.3,Win32,59.52380952,,,,,,,,,,,,,,,,e,1,0.4302,0,15,15,63,1,自己,e,,,,,,,,,,,,,,,,,,,,,,,,,,,,,,,,,,,,,,,,,
,,,,,,,,,,,,,1,001,2025-01-20_15h51.47.464,IAT(Formal),2021.2.3,Win32,59.52380952,,,,,,,,,,,,,,,,e,0,0.7521,0,16,16,57,1,他的,i,,,,,,,,,,,,,,,,,,,,,,,,,,,,,,,,,,,,,,,,,
,,,,,,,,,,,,,1,001,2025-01-20_15h51.47.464,IAT(Formal),2021.2.3,Win32,59.52380952,,,,,,,,,,,,,,,,i,0,0.8172,0,17,17,22,1,无私,e,,,,,,,,,,,,,,,,,,,,,,,,,,,,,,,,,,,,,,,,,
,,,,,,,,,,,,,1,001,2025-01-20_15h51.47.464,IAT(Formal),2021.2.3,Win32,59.52380952,,,,,,,,,,,,,,,,,0,,0,18,18,16,1,正直,e,,,,,,,,,,,,,,,,,,,,,,,,,,,,,,,,,,,,,,,,,
,,,,,,,,,,,,,1,001,2025-01-20_15h51.47.464,IAT(Formal),2021.2.3,Win32,59.52380952,,,,,,,,,,,,,,,,i,0,1.2971,0,19,19,18,1,勤奋,e,,,,,,,,,,,,,,,,,,,,,,,,,,,,,,,,,,,,,,,,,
,,,,,,,,,,,,,1,001,2025-01-20_15h51.47.464,IAT(Formal),2021.2.3,Win32,59.52380952,,,,,,,,,,,,,,,,e,0,0.6243,0,20,20,77,1,他的,i,,,,,,,,,,,,,,,,,,,,,,,,,,,,,,,,,,,,,,,,,
,,,,,,,,,,,,,1,001,2025-01-20_15h51.47.464,IAT(Formal),2021.2.3,Win32,59.52380952,,,,,,,,,,,,,,,,i,1,1.0333,0,21,21,30,1,卑鄙,i,,,,,,,,,,,,,,,,,,,,,,,,,,,,,,,,,,,,,,,,,
,,,,,,,,,,,,,1,001,2025-01-20_15h51.47.464,IAT(Formal),2021.2.3,Win32,59.52380952,,,,,,,,,,,,,,,,e,1,1.1642,0,22,22,10,1,优秀,e,,,,,,,,,,,,,,,,,,,,,,,,,,,,,,,,,,,,,,,,,
,,,,,,,,,,,,,1,001,2025-01-20_15h51.47.464,IAT(Formal),2021.2.3,Win32,59.52380952,,,,,,,,,,,,,,,,,0,,0,23,23,4,1,俺,e,,,,,,,,,,,,,,,,,,,,,,,,,,,,,,,,,,,,,,,,,
,,,,,,,,,,,,,1,001,2025-01-20_15h51.47.464,IAT(Formal),2021.2.3,Win32,59.52380952,,,,,,,,,,,,,,,,i,0,0.7712,0,24,24,64,1,俺,e,,,,,,,,,,,,,,,,,,,,,,,,,,,,,,,,,,,,,,,,,
,,,,,,,,,,,,,1,001,2025-01-20_15h51.47.464,IAT(Formal),2021.2.3,Win32,59.52380952,,,,,,,,,,,,,,,,e,1,0.9594,0,25,25,70,1,我,e,,,,,,,,,,,,,,,,,,,,,,,,,,,,,,,,,,,,,,,,,
,,,,,,,,,,,,,1,001,2025-01-20_15h51.47.464,IAT(Formal),2021.2.3,Win32,59.52380952,,,,,,,,,,,,,,,,i,0,0.8453,0,26,26,61,1,我的,e,,,,,,,,,,,,,,,,,,,,,,,,,,,,,,,,,,,,,,,,,
,,,,,,,,,,,,,1,001,2025-01-20_15h51.47.464,IAT(Formal),2021.2.3,Win32,59.52380952,,,,,,,,,,,,,,,,e,0,0.2527,0,27,27,78,1,他人,i,,,,,,,,,,,,,,,,,,,,,,,,,,,,,,,,,,,,,,,,,
,,,,,,,,,,,,,1,001,2025-01-20_15h51.47.464,IAT(Formal),2021.2.3,Win32,59.52380952,,,,,,,,,,,,,,,,i,0,0.0384,0,28,28,28,1,活泼,e,,,,,,,,,,,,,,,,,,,,,,,,,,,,,,,,,,,,,,,,,
,,,,,,,,,,,,,1,001,2025-01-20_15h51.47.464,IAT(Formal),2021.2.3,Win32,59.52380952,,,,,,,,,,,,,,,,e,1,0.2503,0,29,29,53,1,自己,e,,,,,,,,,,,,,,,,,,,,,,,,,,,,,,,,,,,,,,,,,
,,,,,,,,,,,,,1,001,2025-01-20_15h51.47.464,IAT(Formal),2021.2.3,Win32,59.52380952,,,,,,,,,,,,,,,,i,1,0.1301,0,30,30,49,1,下贱,i,,,,,,,,,,,,,,,,,,,,,,,,,,,,,,,,,,,,,,,,,
,,,,,,,,,,,,,1,001,2025-01-20_15h51.47.464,IAT(Formal),2021.2.3,Win32,59.52380952,,,,,,,,,,,,,,,,i,1,0.0008,0,31,31,55,1,他,i,,,,,,,,,,,,,,,,,,,,,,,,,,,,,,,,,,,,,,,,,
,,,,,,,,,,,,,1,001,2025-01-20_15h51.47.464,IAT(Formal),2021.2.3,Win32,59.52380952,,,,,,,,,,,,,,,,e,1,0.5582,0,32,32,52,1,我们,e,,,,,,,,,,,,,,,,,,,,,,,,,,,,,,,,,,,,,,,,,
,,,,,,,,,,,,,1,001,2025-01-20_15h51.47.464,IAT(Formal),2021.2.3,Win32,59.52380952,,,,,,,,,,,,,,,,i,0,0.2246,0,33,33,13,1,杰出,e,,,,,,,,,,,,,,,,,,,,,,,,,,,,,,,,,,,,,,,,,
,,,,,,,,,,,,,1,001,2025-01-20_15h51.47.464,IAT(Formal),2021.2.3,Win32,59.52380952,,,,,,,,,,,,,,,,i,1,0.0007,0,34,34,68,1,他人,i,,,,,,,,,,,,,,,,,,,,,,,,,,,,,,,,,,,,,,,,,
,,,,,,,,,,,,,1,001,2025-01-20_15h51.47.464,IAT(Formal),2021.2.3,Win32,59.52380952,,,,,,,,,,,,,,,,e,1,0.52,0,35,35,12,1,聪明,e,,,,,,,,,,,,,,,,,,,,,,,,,,,,,,,,,,,,,,,,,
,,,,,,,,,,,,,1,001,2025-01-20_15h51.47.464,IAT(Formal),2021.2.3,Win32,59.52380952,,,,,,,,,,,,,,,,e,0,0.3262,0,36,36,48,1,轻率,i,,,,,,,,,,,,,,,,,,,,,,,,,,,,,,,,,,,,,,,,,
,,,,,,,,,,,,,1,001,2025-01-20_15h51.47.464,IAT(Formal),2021.2.3,Win32,59.52380952,,,,,,,,,,,,,,,,i,0,0.655,0,37,37,74,1,俺,e,,,,,,,,,,,,,,,,,,,,,,,,,,,,,,,,,,,,,,,,,
,,,,,,,,,,,,,1,001,2025-01-20_15h51.47.464,IAT(Formal),2021.2.3,Win32,59.52380952,,,,,,,,,,,,,,,,e,0,0.4076,0,38,38,32,1,愚蠢,i,,,,,,,,,,,,,,,,,,,,,,,,,,,,,,,,,,,,,,,,,
,,,,,,,,,,,,,1,001,2025-01-20_15h51.47.464,IAT(Formal),2021.2.3,Win32,59.52380952,,,,,,,,,,,,,,,,e,1,0.0599,0,39,39,26,1,冷静,e,,,,,,,,,,,,,,,,,,,,,,,,,,,,,,,,,,,,,,,,,
,,,,,,,,,,,,,1,001,2025-01-20_15h51.47.464,IAT(Formal),2021.2.3,Win32,59.52380952,,,,,,,,,,,,,,,,e,1,0.2811,0,40,40,19,1,机智,e,,,,,,,,,,,,,,,,,,,,,,,,,,,,,,,,,,,,,,,,,
,,,,,,,,,,,,,1,001,2025-01-20_15h51.47.464,IAT(Formal),2021.2.3,Win32,59.52380952,,,,,,,,,,,,,,,,e,1,0.1358,0,41,41,51,1,我的,e,,,,,,,,,,,,,,,,,,,,,,,,,,,,,,,,,,,,,,,,,
,,,,,,,,,,,,,1,001,2025-01-20_15h51.47.464,IAT(Formal),2021.2.3,Win32,59.52380952,,,,,,,,,,,,,,,,e,0,0.0814,0,42,42,46,1,野蛮,i,,,,,,,,,,,,,,,,,,,,,,,,,,,,,,,,,,,,,,,,,
,,,,,,,,,,,,,1,001,2025-01-20_15h51.47.464,IAT(Formal),2021.2.3,Win32,59.52380952,,,,,,,,,,,,,,,,e,1,0.432,0,43,43,62,1,我们,e,,,,,,,,,,,,,,,,,,,,,,,,,,,,,,,,,,,,,,,,,
,,,,,,,,,,,,,1,001,2025-01-20_15h51.47.464,IAT(Formal),2021.2.3,Win32,59.52380952,,,,,,,,,,,,,,,,i,1,0.3165,0,44,44,59,1,其他,i,,,,,,,,,,,,,,,,,,,,,,,,,,,,,,,,,,,,,,,,,
,,,,,,,,,,,,,1,001,2025-01-20_15h51.47.464,IAT(Formal),2021.2.3,Win32,59.52380952,,,,,,,,,,,,,,,,e,0,0.3987,0,45,45,37,1,傲慢,i,,,,,,,,,,,,,,,,,,,,,,,,,,,,,,,,,,,,,,,,,
,,,,,,,,,,,,,1,001,2025-01-20_15h51.47.464,IAT(Formal),2021.2.3,Win32,59.52380952,,,,,,,,,,,,,,,,i,0,0.8266,0,46,46,25,1,细腻,e,,,,,,,,,,,,,,,,,,,,,,,,,,,,,,,,,,,,,,,,,
,,,,,,,,,,,,,1,001,2025-01-20_15h51.47.464,IAT(Formal),2021.2.3,Win32,59.52380952,,,,,,,,,,,,,,,,i,1,0.282,0,47,47,58,1,他人,i,,,,,,,,,,,,,,,,,,,,,,,,,,,,,,,,,,,,,,,,,
,,,,,,,,,,,,,1,001,2025-01-20_15h51.47.464,IAT(Formal),2021.2.3,Win32,59.52380952,,,,,,,,,,,,,,,,i,1,0.7869,0,48,48,35,1,消极,i,,,,,,,,,,,,,,,,,,,,,,,,,,,,,,,,,,,,,,,,,
,,,,,,,,,,,,,1,001,2025-01-20_15h51.47.464,IAT(Formal),2021.2.3,Win32,59.52380952,,,,,,,,,,,,,,,,i,0,0.3174,0,49,49,14,1,乐观,e,,,,,,,,,,,,,,,,,,,,,,,,,,,,,,,,,,,,,,,,,
,,,,,,,,,,,,,1,001,2025-01-20_15h51.47.464,IAT(Formal),2021.2.3,Win32,59.52380952,,,,,,,,,,,,,,,,i,0,0.2249,0,50,50,11,1,崇高,e,,,,,,,,,,,,,,,,,,,,,,,,,,,,,,,,,,,,,,,,,
,,,,,,,,,,,,,1,001,2025-01-20_15h51.47.464,IAT(Formal),2021.2.3,Win32,59.52380952,,,,,,,,,,,,,,,,i,1,0.0482,0,51,51,38,1,鲁莽,i,,,,,,,,,,,,,,,,,,,,,,,,,,,,,,,,,,,,,,,,,
,,,,,,,,,,,,,1,001,2025-01-20_15h51.47.464,IAT(Formal),2021.2.3,Win32,59.52380952,,,,,,,,,,,,,,,,i,0,0.8992,0,52,52,27,1,热情,e,,,,,,,,,,,,,,,,,,,,,,,,,,,,,,,,,,,,,,,,,
,,,,,,,,,,,,,1,001,2025-01-20_15h51.47.464,IAT(Formal),2021.2.3,Win32,59.52380952,,,,,,,,,,,,,,,,,0,,0,53,53,60,1,我,e,,,,,,,,,,,,,,,,,,,,,,,,,,,,,,,,,,,,,,,,,
,,,,,,,,,,,,,1,001,2025-01-20_15h51.47.464,IAT(Formal),2021.2.3,Win32,59.52380952,,,,,,,,,,,,,,,,,0,,0,54,54,20,1,认真,e,,,,,,,,,,,,,,,,,,,,,,,,,,,,,,,,,,,,,,,,,
,,,,,,,,,,,,,1,001,2025-01-20_15h51.47.464,IAT(Formal),2021.2.3,Win32,59.52380952,,,,,,,,,,,,,,,,i,1,0.7484,0,55,55,66,1,他们,i,,,,,,,,,,,,,,,,,,,,,,,,,,,,,,,,,,,,,,,,,
,,,,,,,,,,,,,1,001,2025-01-20_15h51.47.464,IAT(Formal),2021.2.3,Win32,59.52380952,,,,,,,,,,,,,,,,e,0,0.2852,0,56,56,69,1,其他,i,,,,,,,,,,,,,,,,,,,,,,,,,,,,,,,,,,,,,,,,,
,,,,,,,,,,,,,1,001,2025-01-20_15h51.47.464,IAT(Formal),2021.2.3,Win32,59.52380952,,,,,,,,,,,,,,,,,0,,0,57,57,6,1,他们,i,,,,,,,,,,,,,,,,,,,,,,,,,,,,,,,,,,,,,,,,,
,,,,,,,,,,,,,1,001,2025-01-20_15h51.47.464,IAT(Formal),2021.2.3,Win32,59.52380952,,,,,,,,,,,,,,,,i,0,0.0021,0,58,58,72,1,我们,e,,,,,,,,,,,,,,,,,,,,,,,,,,,,,,,,,,,,,,,,,
,,,,,,,,,,,,,1,001,2025-01-20_15h51.47.464,IAT(Formal),2021.2.3,Win32,59.52380952,,,,,,,,,,,,,,,,e,0,0.8448,0,59,59,40,1,执拗,i,,,,,,,,,,,,,,,,,,,,,,,,,,,,,,,,,,,,,,,,,
,,,,,,,,,,,,,1,001,2025-01-20_15h51.47.464,IAT(Formal),2021.2.3,Win32,59.52380952,,,,,,,,,,,,,,,,i,1,0.3484,0,60,60,67,1,他的,i,,,,,,,,,,,,,,,,,,,,,,,,,,,,,,,,,,,,,,,,,
,,,,,,,,,,,,,1,001,2025-01-20_15h51.47.464,IAT(Formal),2021.2.3,Win32,59.52380952,,,,,,,,,,,,,,,,i,0,0.314,0,61,61,0,1,我,e,,,,,,,,,,,,,,,,,,,,,,,,,,,,,,,,,,,,,,,,,
,,,,,,,,,,,,,1,001,2025-01-20_15h51.47.464,IAT(Formal),2021.2.3,Win32,59.52380952,,,,,,,,,,,,,,,,i,1,0.2668,0,62,62,44,1,暴躁,i,,,,,,,,,,,,,,,,,,,,,,,,,,,,,,,,,,,,,,,,,
,,,,,,,,,,,,,1,001,2025-01-20_15h51.47.464,IAT(Formal),2021.2.3,Win32,59.52380952,,,,,,,,,,,,,,,,e,0,0.002,0,63,63,76,1,他们,i,,,,,,,,,,,,,,,,,,,,,,,,,,,,,,,,,,,,,,,,,
,,,,,,,,,,,,,1,001,2025-01-20_15h51.47.464,IAT(Formal),2021.2.3,Win32,59.52380952,,,,,,,,,,,,,,,,i,1,0.4635,0,64,64,5,1,他,i,,,,,,,,,,,,,,,,,,,,,,,,,,,,,,,,,,,,,,,,,
,,,,,,,,,,,,,1,001,2025-01-20_15h51.47.464,IAT(Formal),2021.2.3,Win32,59.52380952,,,,,,,,,,,,,,,,e,0,1.0755,0,65,65,43,1,自私,i,,,,,,,,,,,,,,,,,,,,,,,,,,,,,,,,,,,,,,,,,
,,,,,,,,,,,,,1,001,2025-01-20_15h51.47.464,IAT(Formal),2021.2.3,Win32,59.52380952,,,,,,,,,,,,,,,,i,0,0.2636,0,66,66,17,1,勇敢,e,,,,,,,,,,,,,,,,,,,,,,,,,,,,,,,,,,,,,,,,,
,,,,,,,,,,,,,1,001,2025-01-20_15h51.47.464,IAT(Formal),2021.2.3,Win32,59.52380952,,,,,,,,,,,,,,,,i,0,0.5829,0,67,67,54,1,俺,e,,,,,,,,,,,,,,,,,,,,,,,,,,,,,,,,,,,,,,,,,
,,,,,,,,,,,,,1,001,2025-01-20_15h51.47.464,IAT(Formal),2021.2.3,Win32,59.52380952,,,,,,,,,,,,,,,,e,0,1.2994,0,68,68,8,1,他人,i,,,,,,,,,,,,,,,,,,,,,,,,,,,,,,,,,,,,,,,,,
,,,,,,,,,,,,,1,001,2025-01-20_15h51.47.464,IAT(Formal),2021.2.3,Win32,59.52380952,,,,,,,,,,,,,,,,,0,,0,69,69,29,1,诚恳,e,,,,,,,,,,,,,,,,,,,,,,,,,,,,,,,,,,,,,,,,,
,,,,,,,,,,,,,1,001,2025-01-20_15h51.47.464,IAT(Formal),2021.2.3,Win32,59.52380952,,,,,,,,,,,,,,,,,0,,0,70,70,56,1,他们,i,,,,,,,,,,,,,,,,,,,,,,,,,,,,,,,,,,,,,,,,,
,,,,,,,,,,,,,1,001,2025-01-20_15h51.47.464,IAT(Formal),2021.2.3,Win32,59.52380952,,,,,,,,,,,,,,,,i,1,0.2875,0,71,71,47,1,固执,i,,,,,,,,,,,,,,,,,,,,,,,,,,,,,,,,,,,,,,,,,
,,,,,,,,,,,,,1,001,2025-01-20_15h51.47.464,IAT(Formal),2021.2.3,Win32,59.52380952,,,,,,,,,,,,,,,,i,1,0.9361,0,72,72,9,1,其他,i,,,,,,,,,,,,,,,,,,,,,,,,,,,,,,,,,,,,,,,,,
,,,,,,,,,,,,,1,001,2025-01-20_15h51.47.464,IAT(Formal),2021.2.3,Win32,59.52380952,,,,,,,,,,,,,,,,i,0,0.4695,0,73,73,15,1,诚实,e,,,,,,,,,,,,,,,,,,,,,,,,,,,,,,,,,,,,,,,,,
,,,,,,,,,,,,,1,001,2025-01-20_15h51.47.464,IAT(Formal),2021.2.3,Win32,59.52380952,,,,,,,,,,,,,,,,i,0,0.3063,0,74,74,23,1,公正,e,,,,,,,,,,,,,,,,,,,,,,,,,,,,,,,,,,,,,,,,,
,,,,,,,,,,,,,1,001,2025-01-20_15h51.47.464,IAT(Formal),2021.2.3,Win32,59.52380952,,,,,,,,,,,,,,,,e,0,0.258,0,75,75,34,1,悲观,i,,,,,,,,,,,,,,,,,,,,,,,,,,,,,,,,,,,,,,,,,
,,,,,,,,,,,,,1,001,2025-01-20_15h51.47.464,IAT(Formal),2021.2.3,Win32,59.52380952,,,,,,,,,,,,,,,,i,0,0.3369,0,76,76,21,1,稳重,e,,,,,,,,,,,,,,,,,,,,,,,,,,,,,,,,,,,,,,,,,
,,,,,,,,,,,,,1,001,2025-01-20_15h51.47.464,IAT(Formal),2021.2.3,Win32,59.52380952,,,,,,,,,,,,,,,,e,1,0.3388,0,77,77,3,1,自己,e,,,,,,,,,,,,,,,,,,,,,,,,,,,,,,,,,,,,,,,,,
,,,,,,,,,,,,,1,001,2025-01-20_15h51.47.464,IAT(Formal),2021.2.3,Win32,59.52380952,,,,,,,,,,,,,,,,i,1,0.6176,0,78,78,31,1,虚伪,i,,,,,,,,,,,,,,,,,,,,,,,,,,,,,,,,,,,,,,,,,
,,,,,,,,,,,,,1,001,2025-01-20_15h51.47.464,IAT(Formal),2021.2.3,Win32,59.52380952,,,,,,,,,,,,,,,,i,0,0.3719,0,79,79,1,1,我的,e,,,,,,,,,,,,,,,,,,,,,,,,,,,,,,,,,,,,,,,,,
,,,,,,,,,,,,,1,001,2025-01-20_15h51.47.464,IAT(Formal),2021.2.3,Win32,59.52380952,,,,,,,,,,,,,,,,i,0,0.7301,,,,,,我的,e,space,2.4157,0,0,0,1,1,,,,,,,,,,,,,,,,,,,,,,,,,,,,,,,,,,
,,,,,,,,,,,,,1,001,2025-01-20_15h51.47.464,IAT(Formal),2021.2.3,Win32,59.52380952,,,,,,,,,,,,,,,,e,0,0.3742,,,,,,悲观,i,,,0,1,1,34,1,,,,,,,,,,,,,,,,,,,,,,,,,,,,,,,,,,
,,,,,,,,,,,,,1,001,2025-01-20_15h51.47.464,IAT(Formal),2021.2.3,Win32,59.52380952,,,,,,,,,,,,,,,,e,1,0.4389,,,,,,自己,e,,,0,2,2,73,1,,,,,,,,,,,,,,,,,,,,,,,,,,,,,,,,,,
,,,,,,,,,,,,,1,001,2025-01-20_15h51.47.464,IAT(Formal),2021.2.3,Win32,59.52380952,,,,,,,,,,,,,,,,e,1,0.4285,,,,,,机智,e,,,0,3,3,19,1,,,,,,,,,,,,,,,,,,,,,,,,,,,,,,,,,,
,,,,,,,,,,,,,1,001,2025-01-20_15h51.47.464,IAT(Formal),2021.2.3,Win32,59.52380952,,,,,,,,,,,,,,,,i,1,0.3494,,,,,,他们,i,,,0,4,4,6,1,,,,,,,,,,,,,,,,,,,,,,,,,,,,,,,,,,
,,,,,,,,,,,,,1,001,2025-01-20_15h51.47.464,IAT(Formal),2021.2.3,Win32,59.52380952,,,,,,,,,,,,,,,,i,1,0.2914,,,,,,他们,i,,,0,5,5,66,1,,,,,,,,,,,,,,,,,,,,,,,,,,,,,,,,,,
,,,,,,,,,,,,,1,001,2025-01-20_15h51.47.464,IAT(Formal),2021.2.3,Win32,59.52380952,,,,,,,,,,,,,,,,e,1,0.3301,,,,,,自己,e,,,0,6,6,3,1,,,,,,,,,,,,,,,,,,,,,,,,,,,,,,,,,,
,,,,,,,,,,,,,1,001,2025-01-20_15h51.47.464,IAT(Formal),2021.2.3,Win32,59.52380952,,,,,,,,,,,,,,,,e,0,0.3661,,,,,,他们,i,,,0,7,7,76,1,,,,,,,,,,,,,,,,,,,,,,,,,,,,,,,,,,
,,,,,,,,,,,,,1,001,2025-01-20_15h51.47.464,IAT(Formal),2021.2.3,Win32,59.52380952,,,,,,,,,,,,,,,,e,0,0.3664,,,,,,卑鄙,i,,,0,8,8,30,1,,,,,,,,,,,,,,,,,,,,,,,,,,,,,,,,,,
,,,,,,,,,,,,,1,001,2025-01-20_15h51.47.464,IAT(Formal),2021.2.3,Win32,59.52380952,,,,,,,,,,,,,,,,i,1,0.2876,,,,,,执拗,i,,,0,9,9,40,1,,,,,,,,,,,,,,,,,,,,,,,,,,,,,,,,,,
,,,,,,,,,,,,,1,001,2025-01-20_15h51.47.464,IAT(Formal),2021.2.3,Win32,59.52380952,,,,,,,,,,,,,,,,e,0,0.1859,,,,,,他们,i,,,0,10,10,56,1,,,,,,,,,,,,,,,,,,,,,,,,,,,,,,,,,,
,,,,,,,,,,,,,1,001,2025-01-20_15h51.47.464,IAT(Formal),2021.2.3,Win32,59.52380952,,,,,,,,,,,,,,,,e,0,0.2721,,,,,,虚伪,i,,,0,11,11,31,1,,,,,,,,,,,,,,,,,,,,,,,,,,,,,,,,,,
,,,,,,,,,,,,,1,001,2025-01-20_15h51.47.464,IAT(Formal),2021.2.3,Win32,59.52380952,,,,,,,,,,,,,,,,e,1,0.4178,,,,,,优秀,e,,,0,12,12,10,1,,,,,,,,,,,,,,,,,,,,,,,,,,,,,,,,,,
,,,,,,,,,,,,,1,001,2025-01-20_15h51.47.464,IAT(Formal),2021.2.3,Win32,59.52380952,,,,,,,,,,,,,,,,i,0,0.4358,,,,,,自己,e,,,0,13,13,53,1,,,,,,,,,,,,,,,,,,,,,,,,,,,,,,,,,,
,,,,,,,,,,,,,1,001,2025-01-20_15h51.47.464,IAT(Formal),2021.2.3,Win32,59.52380952,,,,,,,,,,,,,,,,i,1,0.3232,,,,,,其他,i,,,0,14,14,69,1,,,,,,,,,,,,,,,,,,,,,,,,,,,,,,,,,,
,,,,,,,,,,,,,1,001,2025-01-20_15h51.47.464,IAT(Formal),2021.2.3,Win32,59.52380952,,,,,,,,,,,,,,,,e,0,0.5888,,,,,,消极,i,,,0,15,15,35,1,,,,,,,,,,,,,,,,,,,,,,,,,,,,,,,,,,
,,,,,,,,,,,,,1,001,2025-01-20_15h51.47.464,IAT(Formal),2021.2.3,Win32,59.52380952,,,,,,,,,,,,,,,,e,1,0.2977,,,,,,诚实,e,,,0,16,16,15,1,,,,,,,,,,,,,,,,,,,,,,,,,,,,,,,,,,
,,,,,,,,,,,,,1,001,2025-01-20_15h51.47.464,IAT(Formal),2021.2.3,Win32,59.52380952,,,,,,,,,,,,,,,,i,0,0.3712,,,,,,认真,e,,,0,17,17,20,1,,,,,,,,,,,,,,,,,,,,,,,,,,,,,,,,,,
,,,,,,,,,,,,,1,001,2025-01-20_15h51.47.464,IAT(Formal),2021.2.3,Win32,59.52380952,,,,,,,,,,,,,,,,e,0,0.2386,,,,,,他人,i,,,0,18,18,68,1,,,,,,,,,,,,,,,,,,,,,,,,,,,,,,,,,,
,,,,,,,,,,,,,1,001,2025-01-20_15h51.47.464,IAT(Formal),2021.2.3,Win32,59.52380952,,,,,,,,,,,,,,,,i,1,0.4822,,,,,,鲁莽,i,,,0,19,19,38,1,,,,,,,,,,,,,,,,,,,,,,,,,,,,,,,,,,
,,,,,,,,,,,,,1,001,2025-01-20_15h51.47.464,IAT(Formal),2021.2.3,Win32,59.52380952,,,,,,,,,,,,,,,,e,0,0.286,,,,,,他,i,,,0,20,20,65,1,,,,,,,,,,,,,,,,,,,,,,,,,,,,,,,,,,
,,,,,,,,,,,,,1,001,2025-01-20_15h51.47.464,IAT(Formal),2021.2.3,Win32,59.52380952,,,,,,,,,,,,,,,,i,0,0.4384,,,,,,无私,e,,,0,21,21,22,1,,,,,,,,,,,,,,,,,,,,,,,,,,,,,,,,,,
,,,,,,,,,,,,,1,001,2025-01-20_15h51.47.464,IAT(Formal),2021.2.3,Win32,59.52380952,,,,,,,,,,,,,,,,e,0,0.3672,,,,,,下贱,i,,,0,22,22,49,1,,,,,,,,,,,,,,,,,,,,,,,,,,,,,,,,,,
,,,,,,,,,,,,,1,001,2025-01-20_15h51.47.464,IAT(Formal),2021.2.3,Win32,59.52380952,,,,,,,,,,,,,,,,e,1,0.34,,,,,,稳重,e,,,0,23,23,21,1,,,,,,,,,,,,,,,,,,,,,,,,,,,,,,,,,,
,,,,,,,,,,,,,1,001,2025-01-20_15h51.47.464,IAT(Formal),2021.2.3,Win32,59.52380952,,,,,,,,,,,,,,,,i,0,0.4507,,,,,,我的,e,,,0,24,24,61,1,,,,,,,,,,,,,,,,,,,,,,,,,,,,,,,,,,
,,,,,,,,,,,,,1,001,2025-01-20_15h51.47.464,IAT(Formal),2021.2.3,Win32,59.52380952,,,,,,,,,,,,,,,,i,1,0.3094,,,,,,他的,i,,,0,25,25,77,1,,,,,,,,,,,,,,,,,,,,,,,,,,,,,,,,,,
,,,,,,,,,,,,,1,001,2025-01-20_15h51.47.464,IAT(Formal),2021.2.3,Win32,59.52380952,,,,,,,,,,,,,,,,e,0,0.316,,,,,,他人,i,,,0,26,26,58,1,,,,,,,,,,,,,,,,,,,,,,,,,,,,,,,,,,
,,,,,,,,,,,,,1,001,2025-01-20_15h51.47.464,IAT(Formal),2021.2.3,Win32,59.52380952,,,,,,,,,,,,,,,,e,1,0.2757,,,,,,正直,e,,,0,27,27,16,1,,,,,,,,,,,,,,,,,,,,,,,,,,,,,,,,,,
,,,,,,,,,,,,,1,001,2025-01-20_15h51.47.464,IAT(Formal),2021.2.3,Win32,59.52380952,,,,,,,,,,,,,,,,e,1,0.2987,,,,,,冷静,e,,,0,28,28,26,1,,,,,,,,,,,,,,,,,,,,,,,,,,,,,,,,,,
,,,,,,,,,,,,,1,001,2025-01-20_15h51.47.464,IAT(Formal),2021.2.3,Win32,59.52380952,,,,,,,,,,,,,,,,i,1,0.389,,,,,,他的,i,,,0,29,29,57,1,,,,,,,,,,,,,,,,,,,,,,,,,,,,,,,,,,
,,,,,,,,,,,,,1,001,2025-01-20_15h51.47.464,IAT(Formal),2021.2.3,Win32,59.52380952,,,,,,,,,,,,,,,,i,0,0.4029,,,,,,乐观,e,,,0,30,30,14,1,,,,,,,,,,,,,,,,,,,,,,,,,,,,,,,,,,
,,,,,,,,,,,,,1,001,2025-01-20_15h51.47.464,IAT(Formal),2021.2.3,Win32,59.52380952,,,,,,,,,,,,,,,,e,1,0.3766,,,,,,俺,e,,,0,31,31,64,1,,,,,,,,,,,,,,,,,,,,,,,,,,,,,,,,,,
,,,,,,,,,,,,,1,001,2025-01-20_15h51.47.464,IAT(Formal),2021.2.3,Win32,59.52380952,,,,,,,,,,,,,,,,i,1,0.5299,,,,,,其他,i,,,0,32,32,59,1,,,,,,,,,,,,,,,,,,,,,,,,,,,,,,,,,,
,,,,,,,,,,,,,1,001,2025-01-20_15h51.47.464,IAT(Formal),2021.2.3,Win32,59.52380952,,,,,,,,,,,,,,,,e,0,0.4215,,,,,,愚蠢,i,,,0,33,33,32,1,,,,,,,,,,,,,,,,,,,,,,,,,,,,,,,,,,
,,,,,,,,,,,,,1,001,2025-01-20_15h51.47.464,IAT(Formal),2021.2.3,Win32,59.52380952,,,,,,,,,,,,,,,,i,1,0.3246,,,,,,轻率,i,,,0,34,34,48,1,,,,,,,,,,,,,,,,,,,,,,,,,,,,,,,,,,
,,,,,,,,,,,,,1,001,2025-01-20_15h51.47.464,IAT(Formal),2021.2.3,Win32,59.52380952,,,,,,,,,,,,,,,,e,1,0.3847,,,,,,我的,e,,,0,35,35,51,1,,,,,,,,,,,,,,,,,,,,,,,,,,,,,,,,,,
,,,,,,,,,,,,,1,001,2025-01-20_15h51.47.464,IAT(Formal),2021.2.3,Win32,59.52380952,,,,,,,,,,,,,,,,e,0,0.3997,,,,,,他,i,,,0,36,36,75,1,,,,,,,,,,,,,,,,,,,,,,,,,,,,,,,,,,
,,,,,,,,,,,,,1,001,2025-01-20_15h51.47.464,IAT(Formal),2021.2.3,Win32,59.52380952,,,,,,,,,,,,,,,,e,1,0.2375,,,,,,我,e,,,0,37,37,60,1,,,,,,,,,,,,,,,,,,,,,,,,,,,,,,,,,,
,,,,,,,,,,,,,1,001,2025-01-20_15h51.47.464,IAT(Formal),2021.2.3,Win32,59.52380952,,,,,,,,,,,,,,,,i,0,0.3234,,,,,,我的,e,,,0,38,38,71,1,,,,,,,,,,,,,,,,,,,,,,,,,,,,,,,,,,
,,,,,,,,,,,,,1,001,2025-01-20_15h51.47.464,IAT(Formal),2021.2.3,Win32,59.52380952,,,,,,,,,,,,,,,,e,0,0.1321,,,,,,暴躁,i,,,0,39,39,44,1,,,,,,,,,,,,,,,,,,,,,,,,,,,,,,,,,,
,,,,,,,,,,,,,1,001,2025-01-20_15h51.47.464,IAT(Formal),2021.2.3,Win32,59.52380952,,,,,,,,,,,,,,,,e,1,0.749,,,,,,诚恳,e,,,0,40,40,29,1,,,,,,,,,,,,,,,,,,,,,,,,,,,,,,,,,,
,,,,,,,,,,,,,1,001,2025-01-20_15h51.47.464,IAT(Formal),2021.2.3,Win32,59.52380952,,,,,,,,,,,,,,,,i,1,0.3081,,,,,,自卑,i,,,0,41,41,36,1,,,,,,,,,,,,,,,,,,,,,,,,,,,,,,,,,,
,,,,,,,,,,,,,1,001,2025-01-20_15h51.47.464,IAT(Formal),2021.2.3,Win32,59.52380952,,,,,,,,,,,,,,,,e,1,0.0262,,,,,,聪明,e,,,0,42,42,12,1,,,,,,,,,,,,,,,,,,,,,,,,,,,,,,,,,,
,,,,,,,,,,,,,1,001,2025-01-20_15h51.47.464,IAT(Formal),2021.2.3,Win32,59.52380952,,,,,,,,,,,,,,,,i,0,0.281,,,,,,我,e,,,0,43,43,50,1,,,,,,,,,,,,,,,,,,,,,,,,,,,,,,,,,,
,,,,,,,,,,,,,1,001,2025-01-20_15h51.47.464,IAT(Formal),2021.2.3,Win32,59.52380952,,,,,,,,,,,,,,,,e,1,0.133,,,,,,我们,e,,,0,44,44,2,1,,,,,,,,,,,,,,,,,,,,,,,,,,,,,,,,,,
,,,,,,,,,,,,,1,001,2025-01-20_15h51.47.464,IAT(Formal),2021.2.3,Win32,59.52380952,,,,,,,,,,,,,,,,i,0,0.1028,,,,,,勤奋,e,,,0,45,45,18,1,,,,,,,,,,,,,,,,,,,,,,,,,,,,,,,,,,
,,,,,,,,,,,,,1,001,2025-01-20_15h51.47.464,IAT(Formal),2021.2.3,Win32,59.52380952,,,,,,,,,,,,,,,,e,0,0.2516,,,,,,固执,i,,,0,46,46,47,1,,,,,,,,,,,,,,,,,,,,,,,,,,,,,,,,,,
,,,,,,,,,,,,,1,001,2025-01-20_15h51.47.464,IAT(Formal),2021.2.3,Win32,59.52380952,,,,,,,,,,,,,,,,e,1,0.1679,,,,,,崇高,e,,,0,47,47,11,1,,,,,,,,,,,,,,,,,,,,,,,,,,,,,,,,,,
,,,,,,,,,,,,,1,001,2025-01-20_15h51.47.464,IAT(Formal),2021.2.3,Win32,59.52380952,,,,,,,,,,,,,,,,i,0,0.3055,,,,,,细腻,e,,,0,48,48,25,1,,,,,,,,,,,,,,,,,,,,,,,,,,,,,,,,,,
,,,,,,,,,,,,,1,001,2025-01-20_15h51.47.464,IAT(Formal),2021.2.3,Win32,59.52380952,,,,,,,,,,,,,,,,e,0,0.4983,,,,,,他,i,,,0,49,49,55,1,,,,,,,,,,,,,,,,,,,,,,,,,,,,,,,,,,
,,,,,,,,,,,,,1,001,2025-01-20_15h51.47.464,IAT(Formal),2021.2.3,Win32,59.52380952,,,,,,,,,,,,,,,,i,0,1.0543,,,,,,我,e,,,0,50,50,70,1,,,,,,,,,,,,,,,,,,,,,,,,,,,,,,,,,,
,,,,,,,,,,,,,1,001,2025-01-20_15h51.47.464,IAT(Formal),2021.2.3,Win32,59.52380952,,,,,,,,,,,,,,,,i,0,0.6889,,,,,,我们,e,,,0,51,51,52,1,,,,,,,,,,,,,,,,,,,,,,,,,,,,,,,,,,
,,,,,,,,,,,,,1,001,2025-01-20_15h51.47.464,IAT(Formal),2021.2.3,Win32,59.52380952,,,,,,,,,,,,,,,,e,0,0.3786,,,,,,野蛮,i,,,0,52,52,46,1,,,,,,,,,,,,,,,,,,,,,,,,,,,,,,,,,,
,,,,,,,,,,,,,1,001,2025-01-20_15h51.47.464,IAT(Formal),2021.2.3,Win32,59.52380952,,,,,,,,,,,,,,,,i,0,0.0303,,,,,,我们,e,,,0,53,53,72,1,,,,,,,,,,,,,,,,,,,,,,,,,,,,,,,,,,
,,,,,,,,,,,,,1,001,2025-01-20_15h51.47.464,IAT(Formal),2021.2.3,Win32,59.52380952,,,,,,,,,,,,,,,,e,0,0.2765,,,,,,他的,i,,,0,54,54,67,1,,,,,,,,,,,,,,,,,,,,,,,,,,,,,,,,,,
,,,,,,,,,,,,,1,001,2025-01-20_15h51.47.464,IAT(Formal),2021.2.3,Win32,59.52380952,,,,,,,,,,,,,,,,i,0,0.298,,,,,,自己,e,,,0,55,55,63,1,,,,,,,,,,,,,,,,,,,,,,,,,,,,,,,,,,
,,,,,,,,,,,,,1,001,2025-01-20_15h51.47.464,IAT(Formal),2021.2.3,Win32,59.52380952,,,,,,,,,,,,,,,,i,1,0.4484,,,,,,傲慢,i,,,0,56,56,37,1,,,,,,,,,,,,,,,,,,,,,,,,,,,,,,,,,,
,,,,,,,,,,,,,1,001,2025-01-20_15h51.47.464,IAT(Formal),2021.2.3,Win32,59.52380952,,,,,,,,,,,,,,,,e,0,0.642,,,,,,他,i,,,0,57,57,5,1,,,,,,,,,,,,,,,,,,,,,,,,,,,,,,,,,,
,,,,,,,,,,,,,1,001,2025-01-20_15h51.47.464,IAT(Formal),2021.2.3,Win32,59.52380952,,,,,,,,,,,,,,,,i,1,0.4199,,,,,,冒失,i,,,0,58,58,39,1,,,,,,,,,,,,,,,,,,,,,,,,,,,,,,,,,,
,,,,,,,,,,,,,1,001,2025-01-20_15h51.47.464,IAT(Formal),2021.2.3,Win32,59.52380952,,,,,,,,,,,,,,,,e,1,0.5044,,,,,,俺,e,,,0,59,59,54,1,,,,,,,,,,,,,,,,,,,,,,,,,,,,,,,,,,
,,,,,,,,,,,,,1,001,2025-01-20_15h51.47.464,IAT(Formal),2021.2.3,Win32,59.52380952,,,,,,,,,,,,,,,,i,1,0.5612,,,,,,其他,i,,,0,60,60,79,1,,,,,,,,,,,,,,,,,,,,,,,,,,,,,,,,,,
,,,,,,,,,,,,,1,001,2025-01-20_15h51.47.464,IAT(Formal),2021.2.3,Win32,59.52380952,,,,,,,,,,,,,,,,e,1,0.7326,,,,,,俺,e,,,0,61,61,4,1,,,,,,,,,,,,,,,,,,,,,,,,,,,,,,,,,,
,,,,,,,,,,,,,1,001,2025-01-20_15h51.47.464,IAT(Formal),2021.2.3,Win32,59.52380952,,,,,,,,,,,,,,,,e,1,1.1062,,,,,,热情,e,,,0,62,62,27,1,,,,,,,,,,,,,,,,,,,,,,,,,,,,,,,,,,
,,,,,,,,,,,,,1,001,2025-01-20_15h51.47.464,IAT(Formal),2021.2.3,Win32,59.52380952,,,,,,,,,,,,,,,,i,0,1.1383,,,,,,公正,e,,,0,63,63,23,1,,,,,,,,,,,,,,,,,,,,,,,,,,,,,,,,,,
,,,,,,,,,,,,,1,001,2025-01-20_15h51.47.464,IAT(Formal),2021.2.3,Win32,59.52380952,,,,,,,,,,,,,,,,i,1,0.6726,,,,,,散漫,i,,,0,64,64,41,1,,,,,,,,,,,,,,,,,,,,,,,,,,,,,,,,,,
,,,,,,,,,,,,,1,001,2025-01-20_15h51.47.464,IAT(Formal),2021.2.3,Win32,59.52380952,,,,,,,,,,,,,,,,i,1,0.6822,,,,,,他的,i,,,0,65,65,7,1,,,,,,,,,,,,,,,,,,,,,,,,,,,,,,,,,,
,,,,,,,,,,,,,1,001,2025-01-20_15h51.47.464,IAT(Formal),2021.2.3,Win32,59.52380952,,,,,,,,,,,,,,,,e,1,0.7365,,,,,,我们,e,,,0,66,66,62,1,,,,,,,,,,,,,,,,,,,,,,,,,,,,,,,,,,
,,,,,,,,,,,,,1,001,2025-01-20_15h51.47.464,IAT(Formal),2021.2.3,Win32,59.52380952,,,,,,,,,,,,,,,,i,1,0.8009,,,,,,刻薄,i,,,0,67,67,33,1,,,,,,,,,,,,,,,,,,,,,,,,,,,,,,,,,,
,,,,,,,,,,,,,1,001,2025-01-20_15h51.47.464,IAT(Formal),2021.2.3,Win32,59.52380952,,,,,,,,,,,,,,,,e,1,0.3141,,,,,,我,e,,,0,68,68,0,1,,,,,,,,,,,,,,,,,,,,,,,,,,,,,,,,,,
,,,,,,,,,,,,,1,001,2025-01-20_15h51.47.464,IAT(Formal),2021.2.3,Win32,59.52380952,,,,,,,,,,,,,,,,e,1,0.6476,,,,,,俺,e,,,0,69,69,74,1,,,,,,,,,,,,,,,,,,,,,,,,,,,,,,,,,,
,,,,,,,,,,,,,1,001,2025-01-20_15h51.47.464,IAT(Formal),2021.2.3,Win32,59.52380952,,,,,,,,,,,,,,,,i,0,0.9741,,,,,,勇敢,e,,,0,70,70,17,1,,,,,,,,,,,,,,,,,,,,,,,,,,,,,,,,,,
,,,,,,,,,,,,,1,001,2025-01-20_15h51.47.464,IAT(Formal),2021.2.3,Win32,59.52380952,,,,,,,,,,,,,,,,i,1,1.075,,,,,,自私,i,,,0,71,71,43,1,,,,,,,,,,,,,,,,,,,,,,,,,,,,,,,,,,
,,,,,,,,,,,,,1,001,2025-01-20_15h51.47.464,IAT(Formal),2021.2.3,Win32,59.52380952,,,,,,,,,,,,,,,,i,0,0.886,,,,,,杰出,e,,,0,72,72,13,1,,,,,,,,,,,,,,,,,,,,,,,,,,,,,,,,,,
,,,,,,,,,,,,,1,001,2025-01-20_15h51.47.464,IAT(Formal),2021.2.3,Win32,59.52380952,,,,,,,,,,,,,,,,e,0,0.8062,,,,,,凶狠,i,,,0,73,73,42,1,,,,,,,,,,,,,,,,,,,,,,,,,,,,,,,,,,
,,,,,,,,,,,,,1,001,2025-01-20_15h51.47.464,IAT(Formal),2021.2.3,Win32,59.52380952,,,,,,,,,,,,,,,,i,1,1.1182,,,,,,他人,i,,,0,74,74,78,1,,,,,,,,,,,,,,,,,,,,,,,,,,,,,,,,,,
,,,,,,,,,,,,,1,001,2025-01-20_15h51.47.464,IAT(Formal),2021.2.3,Win32,59.52380952,,,,,,,,,,,,,,,,i,1,0.856,,,,,,他人,i,,,0,75,75,8,1,,,,,,,,,,,,,,,,,,,,,,,,,,,,,,,,,,
,,,,,,,,,,,,,1,001,2025-01-20_15h51.47.464,IAT(Formal),2021.2.3,Win32,59.52380952,,,,,,,,,,,,,,,,i,1,0.7547,,,,,,猖狂,i,,,0,76,76,45,1,,,,,,,,,,,,,,,,,,,,,,,,,,,,,,,,,,
,,,,,,,,,,,,,1,001,2025-01-20_15h51.47.464,IAT(Formal),2021.2.3,Win32,59.52380952,,,,,,,,,,,,,,,,e,1,0.875,,,,,,朴实,e,,,0,77,77,24,1,,,,,,,,,,,,,,,,,,,,,,,,,,,,,,,,,,
,,,,,,,,,,,,,1,001,2025-01-20_15h51.47.464,IAT(Formal),2021.2.3,Win32,59.52380952,,,,,,,,,,,,,,,,i,1,0.9233,,,,,,其他,i,,,0,78,78,9,1,,,,,,,,,,,,,,,,,,,,,,,,,,,,,,,,,,
,,,,,,,,,,,,,1,001,2025-01-20_15h51.47.464,IAT(Formal),2021.2.3,Win32,59.52380952,,,,,,,,,,,,,,,,i,0,0.2686,,,,,,活泼,e,,,0,79,79,28,1,,,,,,,,,,,,,,,,,,,,,,,,,,,,,,,,,,
,,,,,,,,,,,,,1,001,2025-01-20_15h51.47.464,IAT(Formal),2021.2.3,Win32,59.52380952,,,,,,,,,,,,,,,,e,1,0.7767,,,,,,自己,e,,,1,0,80,63,1,,,,,,,,,,,,,,,,,,,,,,,,,,,,,,,,,,
,,,,,,,,,,,,,1,001,2025-01-20_15h51.47.464,IAT(Formal),2021.2.3,Win32,59.52380952,,,,,,,,,,,,,,,,i,0,0.6655,,,,,,俺,e,,,1,1,81,4,1,,,,,,,,,,,,,,,,,,,,,,,,,,,,,,,,,,
,,,,,,,,,,,,,1,001,2025-01-20_15h51.47.464,IAT(Formal),2021.2.3,Win32,59.52380952,,,,,,,,,,,,,,,,i,1,1.2466,,,,,,下贱,i,,,1,2,82,49,1,,,,,,,,,,,,,,,,,,,,,,,,,,,,,,,,,,
,,,,,,,,,,,,,1,001,2025-01-20_15h51.47.464,IAT(Formal),2021.2.3,Win32,59.52380952,,,,,,,,,,,,,,,,i,1,0.9376,,,,,,他的,i,,,1,3,83,67,1,,,,,,,,,,,,,,,,,,,,,,,,,,,,,,,,,,
,,,,,,,,,,,,,1,001,2025-01-20_15h51.47.464,IAT(Formal),2021.2.3,Win32,59.52380952,,,,,,,,,,,,,,,,e,1,0.5994,,,,,,俺,e,,,1,4,84,74,1,,,,,,,,,,,,,,,,,,,,,,,,,,,,,,,,,,
,,,,,,,,,,,,,1,001,2025-01-20_15h51.47.464,IAT(Formal),2021.2.3,Win32,59.52380952,,,,,,,,,,,,,,,,i,0,1.0556,,,,,,诚恳,e,,,1,5,85,29,1,,,,,,,,,,,,,,,,,,,,,,,,,,,,,,,,,,
,,,,,,,,,,,,,1,001,2025-01-20_15h51.47.464,IAT(Formal),2021.2.3,Win32,59.52380952,,,,,,,,,,,,,,,,i,0,0.6821,,,,,,朴实,e,,,1,6,86,24,1,,,,,,,,,,,,,,,,,,,,,,,,,,,,,,,,,,
,,,,,,,,,,,,,1,001,2025-01-20_15h51.47.464,IAT(Formal),2021.2.3,Win32,59.52380952,,,,,,,,,,,,,,,,i,0,0.7293,,,,,,我们,e,,,1,7,87,72,1,,,,,,,,,,,,,,,,,,,,,,,,,,,,,,,,,,
,,,,,,,,,,,,,1,001,2025-01-20_15h51.47.464,IAT(Formal),2021.2.3,Win32,59.52380952,,,,,,,,,,,,,,,,i,0,0.3528,,,,,,我,e,,,1,8,88,0,1,,,,,,,,,,,,,,,,,,,,,,,,,,,,,,,,,,
,,,,,,,,,,,,,1,001,2025-01-20_15h51.47.464,IAT(Formal),2021.2.3,Win32,59.52380952,,,,,,,,,,,,,,,,i,0,0.3133,,,,,,我,e,,,1,9,89,50,1,,,,,,,,,,,,,,,,,,,,,,,,,,,,,,,,,,
,,,,,,,,,,,,,1,001,2025-01-20_15h51.47.464,IAT(Formal),2021.2.3,Win32,59.52380952,,,,,,,,,,,,,,,,i,0,0.29,,,,,,崇高,e,,,1,10,90,11,1,,,,,,,,,,,,,,,,,,,,,,,,,,,,,,,,,,
,,,,,,,,,,,,,1,001,2025-01-20_15h51.47.464,IAT(Formal),2021.2.3,Win32,59.52380952,,,,,,,,,,,,,,,,i,1,0.3557,,,,,,他们,i,,,1,11,91,56,1,,,,,,,,,,,,,,,,,,,,,,,,,,,,,,,,,,
,,,,,,,,,,,,,1,001,2025-01-20_15h51.47.464,IAT(Formal),2021.2.3,Win32,59.52380952,,,,,,,,,,,,,,,,e,0,0.3677,,,,,,其他,i,,,1,12,92,79,1,,,,,,,,,,,,,,,,,,,,,,,,,,,,,,,,,,
,,,,,,,,,,,,,1,001,2025-01-20_15h51.47.464,IAT(Formal),2021.2.3,Win32,59.52380952,,,,,,,,,,,,,,,,i,1,0.6226,,,,,,轻率,i,,,1,13,93,48,1,,,,,,,,,,,,,,,,,,,,,,,,,,,,,,,,,,
,,,,,,,,,,,,,1,001,2025-01-20_15h51.47.464,IAT(Formal),2021.2.3,Win32,59.52380952,,,,,,,,,,,,,,,,i,0,0.4521,,,,,,我们,e,,,1,14,94,52,1,,,,,,,,,,,,,,,,,,,,,,,,,,,,,,,,,,
,,,,,,,,,,,,,1,001,2025-01-20_15h51.47.464,IAT(Formal),2021.2.3,Win32,59.52380952,,,,,,,,,,,,,,,,e,0,0.2832,,,,,,悲观,i,,,1,15,95,34,1,,,,,,,,,,,,,,,,,,,,,,,,,,,,,,,,,,
,,,,,,,,,,,,,1,001,2025-01-20_15h51.47.464,IAT(Formal),2021.2.3,Win32,59.52380952,,,,,,,,,,,,,,,,e,1,0.6367,,,,,,优秀,e,,,1,16,96,10,1,,,,,,,,,,,,,,,,,,,,,,,,,,,,,,,,,,
,,,,,,,,,,,,,1,001,2025-01-20_15h51.47.464,IAT(Formal),2021.2.3,Win32,59.52380952,,,,,,,,,,,,,,,,e,0,0.425,,,,,,其他,i,,,1,17,97,59,1,,,,,,,,,,,,,,,,,,,,,,,,,,,,,,,,,,
,,,,,,,,,,,,,1,001,2025-01-20_15h51.47.464,IAT(Formal),2021.2.3,Win32,59.52380952,,,,,,,,,,,,,,,,e,0,0.2724,,,,,,自私,i,,,1,18,98,43,1,,,,,,,,,,,,,,,,,,,,,,,,,,,,,,,,,,
,,,,,,,,,,,,,1,001,2025-01-20_15h51.47.464,IAT(Formal),2021.2.3,Win32,59.52380952,,,,,,,,,,,,,,,,i,1,0.2368,,,,,,他人,i,,,1,19,99,58,1,,,,,,,,,,,,,,,,,,,,,,,,,,,,,,,,,,
,,,,,,,,,,,,,1,001,2025-01-20_15h51.47.464,IAT(Formal),2021.2.3,Win32,59.52380952,,,,,,,,,,,,,,,,e,0,0.0195,,,,,,鲁莽,i,,,1,20,100,38,1,,,,,,,,,,,,,,,,,,,,,,,,,,,,,,,,,,
,,,,,,,,,,,,,1,001,2025-01-20_15h51.47.464,IAT(Formal),2021.2.3,Win32,59.52380952,,,,,,,,,,,,,,,,e,1,0.1211,,,,,,自己,e,,,1,21,101,73,1,,,,,,,,,,,,,,,,,,,,,,,,,,,,,,,,,,
,,,,,,,,,,,,,1,001,2025-01-20_15h51.47.464,IAT(Formal),2021.2.3,Win32,59.52380952,,,,,,,,,,,,,,,,i,0,0.0701,,,,,,冷静,e,,,1,22,102,26,1,,,,,,,,,,,,,,,,,,,,,,,,,,,,,,,,,,
,,,,,,,,,,,,,1,001,2025-01-20_15h51.47.464,IAT(Formal),2021.2.3,Win32,59.52380952,,,,,,,,,,,,,,,,e,1,0.1354,,,,,,我的,e,,,1,23,103,71,1,,,,,,,,,,,,,,,,,,,,,,,,,,,,,,,,,,
,,,,,,,,,,,,,1,001,2025-01-20_15h51.47.464,IAT(Formal),2021.2.3,Win32,59.52380952,,,,,,,,,,,,,,,,e,0,0.0698,,,,,,暴躁,i,,,1,24,104,44,1,,,,,,,,,,,,,,,,,,,,,,,,,,,,,,,,,,
,,,,,,,,,,,,,1,001,2025-01-20_15h51.47.464,IAT(Formal),2021.2.3,Win32,59.52380952,,,,,,,,,,,,,,,,e,0,0.015,,,,,,他,i,,,1,25,105,55,1,,,,,,,,,,,,,,,,,,,,,,,,,,,,,,,,,,
,,,,,,,,,,,,,1,001,2025-01-20_15h51.47.464,IAT(Formal),2021.2.3,Win32,59.52380952,,,,,,,,,,,,,,,,i,1,0.1165,,,,,,他人,i,,,1,26,106,78,1,,,,,,,,,,,,,,,,,,,,,,,,,,,,,,,,,,
,,,,,,,,,,,,,1,001,2025-01-20_15h51.47.464,IAT(Formal),2021.2.3,Win32,59.52380952,,,,,,,,,,,,,,,,e,0,0.1007,,,,,,他们,i,,,1,27,107,6,1,,,,,,,,,,,,,,,,,,,,,,,,,,,,,,,,,,
,,,,,,,,,,,,,1,001,2025-01-20_15h51.47.464,IAT(Formal),2021.2.3,Win32,59.52380952,,,,,,,,,,,,,,,,i,1,0.0988,,,,,,消极,i,,,1,28,108,35,1,,,,,,,,,,,,,,,,,,,,,,,,,,,,,,,,,,
,,,,,,,,,,,,,1,001,2025-01-20_15h51.47.464,IAT(Formal),2021.2.3,Win32,59.52380952,,,,,,,,,,,,,,,,e,1,0.0537,,,,,,自己,e,,,1,29,109,53,1,,,,,,,,,,,,,,,,,,,,,,,,,,,,,,,,,,
,,,,,,,,,,,,,1,001,2025-01-20_15h51.47.464,IAT(Formal),2021.2.3,Win32,59.52380952,,,,,,,,,,,,,,,,e,0,0.0353,,,,,,刻薄,i,,,1,30,110,33,1,,,,,,,,,,,,,,,,,,,,,,,,,,,,,,,,,,
,,,,,,,,,,,,,1,001,2025-01-20_15h51.47.464,IAT(Formal),2021.2.3,Win32,59.52380952,,,,,,,,,,,,,,,,i,1,0.0174,,,,,,他,i,,,1,31,111,5,1,,,,,,,,,,,,,,,,,,,,,,,,,,,,,,,,,,
,,,,,,,,,,,,,1,001,2025-01-20_15h51.47.464,IAT(Formal),2021.2.3,Win32,59.52380952,,,,,,,,,,,,,,,,i,0,0.0009,,,,,,我,e,,,1,32,112,60,1,,,,,,,,,,,,,,,,,,,,,,,,,,,,,,,,,,
,,,,,,,,,,,,,1,001,2025-01-20_15h51.47.464,IAT(Formal),2021.2.3,Win32,59.52380952,,,,,,,,,,,,,,,,e,1,0.0009,,,,,,热情,e,,,1,33,113,27,1,,,,,,,,,,,,,,,,,,,,,,,,,,,,,,,,,,
,,,,,,,,,,,,,1,001,2025-01-20_15h51.47.464,IAT(Formal),2021.2.3,Win32,59.52380952,,,,,,,,,,,,,,,,e,0,0.011,,,,,,虚伪,i,,,1,34,114,31,1,,,,,,,,,,,,,,,,,,,,,,,,,,,,,,,,,,
,,,,,,,,,,,,,1,001,2025-01-20_15h51.47.464,IAT(Formal),2021.2.3,Win32,59.52380952,,,,,,,,,,,,,,,,e,1,0.0796,,,,,,聪明,e,,,1,35,115,12,1,,,,,,,,,,,,,,,,,,,,,,,,,,,,,,,,,,
,,,,,,,,,,,,,1,001,2025-01-20_15h51.47.464,IAT(Formal),2021.2.3,Win32,59.52380952,,,,,,,,,,,,,,,,i,0,0.0151,,,,,,俺,e,,,1,36,116,54,1,,,,,,,,,,,,,,,,,,,,,,,,,,,,,,,,,,
,,,,,,,,,,,,,1,001,2025-01-20_15h51.47.464,IAT(Formal),2021.2.3,Win32,59.52380952,,,,,,,,,,,,,,,,i,0,0.0551,,,,,,勇敢,e,,,1,37,117,17,1,,,,,,,,,,,,,,,,,,,,,,,,,,,,,,,,,,
,,,,,,,,,,,,,1,001,2025-01-20_15h51.47.464,IAT(Formal),2021.2.3,Win32,59.52380952,,,,,,,,,,,,,,,,e,0,0.1574,,,,,,执拗,i,,,1,38,118,40,1,,,,,,,,,,,,,,,,,,,,,,,,,,,,,,,,,,
,,,,,,,,,,,,,1,001,2025-01-20_15h51.47.464,IAT(Formal),2021.2.3,Win32,59.52380952,,,,,,,,,,,,,,,,e,1,0.2042,,,,,,无私,e,,,1,39,119,22,1,,,,,,,,,,,,,,,,,,,,,,,,,,,,,,,,,,
,,,,,,,,,,,,,1,001,2025-01-20_15h51.47.464,IAT(Formal),2021.2.3,Win32,59.52380952,,,,,,,,,,,,,,,,e,1,0.1542,,,,,,我的,e,,,1,40,120,51,1,,,,,,,,,,,,,,,,,,,,,,,,,,,,,,,,,,
,,,,,,,,,,,,,1,001,2025-01-20_15h51.47.464,IAT(Formal),2021.2.3,Win32,59.52380952,,,,,,,,,,,,,,,,i,1,0.1899,,,,,,猖狂,i,,,1,41,121,45,1,,,,,,,,,,,,,,,,,,,,,,,,,,,,,,,,,,
,,,,,,,,,,,,,1,001,2025-01-20_15h51.47.464,IAT(Formal),2021.2.3,Win32,59.52380952,,,,,,,,,,,,,,,,i,0,0.0831,,,,,,我们,e,,,1,42,122,2,1,,,,,,,,,,,,,,,,,,,,,,,,,,,,,,,,,,
,,,,,,,,,,,,,1,001,2025-01-20_15h51.47.464,IAT(Formal),2021.2.3,Win32,59.52380952,,,,,,,,,,,,,,,,e,0,0.083,,,,,,他人,i,,,1,43,123,8,1,,,,,,,,,,,,,,,,,,,,,,,,,,,,,,,,,,
,,,,,,,,,,,,,1,001,2025-01-20_15h51.47.464,IAT(Formal),2021.2.3,Win32,59.52380952,,,,,,,,,,,,,,,,e,0,0.1879,,,,,,他们,i,,,1,44,124,76,1,,,,,,,,,,,,,,,,,,,,,,,,,,,,,,,,,,
,,,,,,,,,,,,,1,001,2025-01-20_15h51.47.464,IAT(Formal),2021.2.3,Win32,59.52380952,,,,,,,,,,,,,,,,i,0,0.03,,,,,,自己,e,,,1,45,125,3,1,,,,,,,,,,,,,,,,,,,,,,,,,,,,,,,,,,
,,,,,,,,,,,,,1,001,2025-01-20_15h51.47.464,IAT(Formal),2021.2.3,Win32,59.52380952,,,,,,,,,,,,,,,,i,1,0.1854,,,,,,固执,i,,,1,46,126,47,1,,,,,,,,,,,,,,,,,,,,,,,,,,,,,,,,,,
,,,,,,,,,,,,,1,001,2025-01-20_15h51.47.464,IAT(Formal),2021.2.3,Win32,59.52380952,,,,,,,,,,,,,,,,i,1,0.2516,,,,,,他,i,,,1,47,127,65,1,,,,,,,,,,,,,,,,,,,,,,,,,,,,,,,,,,
,,,,,,,,,,,,,1,001,2025-01-20_15h51.47.464,IAT(Formal),2021.2.3,Win32,59.52380952,,,,,,,,,,,,,,,,i,0,0.1181,,,,,,公正,e,,,1,48,128,23,1,,,,,,,,,,,,,,,,,,,,,,,,,,,,,,,,,,
,,,,,,,,,,,,,1,001,2025-01-20_15h51.47.464,IAT(Formal),2021.2.3,Win32,59.52380952,,,,,,,,,,,,,,,,i,0,0.3247,,,,,,乐观,e,,,1,49,129,14,1,,,,,,,,,,,,,,,,,,,,,,,,,,,,,,,,,,
,,,,,,,,,,,,,1,001,2025-01-20_15h51.47.464,IAT(Formal),2021.2.3,Win32,59.52380952,,,,,,,,,,,,,,,,i,1,0.2057,,,,,,其他,i,,,1,50,130,9,1,,,,,,,,,,,,,,,,,,,,,,,,,,,,,,,,,,
,,,,,,,,,,,,,1,001,2025-01-20_15h51.47.464,IAT(Formal),2021.2.3,Win32,59.52380952,,,,,,,,,,,,,,,,i,0,0.0927,,,,,,我,e,,,1,51,131,70,1,,,,,,,,,,,,,,,,,,,,,,,,,,,,,,,,,,
,,,,,,,,,,,,,1,001,2025-01-20_15h51.47.464,IAT(Formal),2021.2.3,Win32,59.52380952,,,,,,,,,,,,,,,,e,0,0.2326,,,,,,散漫,i,,,1,52,132,41,1,,,,,,,,,,,,,,,,,,,,,,,,,,,,,,,,,,
,,,,,,,,,,,,,1,001,2025-01-20_15h51.47.464,IAT(Formal),2021.2.3,Win32,59.52380952,,,,,,,,,,,,,,,,e,1,0.2189,,,,,,俺,e,,,1,53,133,64,1,,,,,,,,,,,,,,,,,,,,,,,,,,,,,,,,,,
,,,,,,,,,,,,,1,001,2025-01-20_15h51.47.464,IAT(Formal),2021.2.3,Win32,59.52380952,,,,,,,,,,,,,,,,i,0,0.0945,,,,,,杰出,e,,,1,54,134,13,1,,,,,,,,,,,,,,,,,,,,,,,,,,,,,,,,,,
,,,,,,,,,,,,,1,001,2025-01-20_15h51.47.464,IAT(Formal),2021.2.3,Win32,59.52380952,,,,,,,,,,,,,,,,e,1,0.2022,,,,,,我们,e,,,1,55,135,62,1,,,,,,,,,,,,,,,,,,,,,,,,,,,,,,,,,,
,,,,,,,,,,,,,1,001,2025-01-20_15h51.47.464,IAT(Formal),2021.2.3,Win32,59.52380952,,,,,,,,,,,,,,,,i,1,0.0121,,,,,,自卑,i,,,1,56,136,36,1,,,,,,,,,,,,,,,,,,,,,,,,,,,,,,,,,,
,,,,,,,,,,,,,1,001,2025-01-20_15h51.47.464,IAT(Formal),2021.2.3,Win32,59.52380952,,,,,,,,,,,,,,,,i,0,0.0181,,,,,,正直,e,,,1,57,137,16,1,,,,,,,,,,,,,,,,,,,,,,,,,,,,,,,,,,
,,,,,,,,,,,,,1,001,2025-01-20_15h51.47.464,IAT(Formal),2021.2.3,Win32,59.52380952,,,,,,,,,,,,,,,,e,1,0.2812,,,,,,诚实,e,,,1,58,138,15,1,,,,,,,,,,,,,,,,,,,,,,,,,,,,,,,,,,
,,,,,,,,,,,,,1,001,2025-01-20_15h51.47.464,IAT(Formal),2021.2.3,Win32,59.52380952,,,,,,,,,,,,,,,,i,0,0.1169,,,,,,我的,e,,,1,59,139,1,1,,,,,,,,,,,,,,,,,,,,,,,,,,,,,,,,,,
,,,,,,,,,,,,,1,001,2025-01-20_15h51.47.464,IAT(Formal),2021.2.3,Win32,59.52380952,,,,,,,,,,,,,,,,i,1,0.1761,,,,,,野蛮,i,,,1,60,140,46,1,,,,,,,,,,,,,,,,,,,,,,,,,,,,,,,,,,
,,,,,,,,,,,,,1,001,2025-01-20_15h51.47.464,IAT(Formal),2021.2.3,Win32,59.52380952,,,,,,,,,,,,,,,,i,0,0.0361,,,,,,勤奋,e,,,1,61,141,18,1,,,,,,,,,,,,,,,,,,,,,,,,,,,,,,,,,,
,,,,,,,,,,,,,1,001,2025-01-20_15h51.47.464,IAT(Formal),2021.2.3,Win32,59.52380952,,,,,,,,,,,,,,,,e,0,0.0166,,,,,,冒失,i,,,1,62,142,39,1,,,,,,,,,,,,,,,,,,,,,,,,,,,,,,,,,,
,,,,,,,,,,,,,1,001,2025-01-20_15h51.47.464,IAT(Formal),2021.2.3,Win32,59.52380952,,,,,,,,,,,,,,,,i,1,0.2183,,,,,,其他,i,,,1,63,143,69,1,,,,,,,,,,,,,,,,,,,,,,,,,,,,,,,,,,
,,,,,,,,,,,,,1,001,2025-01-20_15h51.47.464,IAT(Formal),2021.2.3,Win32,59.52380952,,,,,,,,,,,,,,,,i,1,0.0349,,,,,,他人,i,,,1,64,144,68,1,,,,,,,,,,,,,,,,,,,,,,,,,,,,,,,,,,
,,,,,,,,,,,,,1,001,2025-01-20_15h51.47.464,IAT(Formal),2021.2.3,Win32,59.52380952,,,,,,,,,,,,,,,,e,0,0.2151,,,,,,他们,i,,,1,65,145,66,1,,,,,,,,,,,,,,,,,,,,,,,,,,,,,,,,,,
,,,,,,,,,,,,,1,001,2025-01-20_15h51.47.464,IAT(Formal),2021.2.3,Win32,59.52380952,,,,,,,,,,,,,,,,e,0,0.0548,,,,,,他的,i,,,1,66,146,7,1,,,,,,,,,,,,,,,,,,,,,,,,,,,,,,,,,,
,,,,,,,,,,,,,1,001,2025-01-20_15h51.47.464,IAT(Formal),2021.2.3,Win32,59.52380952,,,,,,,,,,,,,,,,i,0,0.2394,,,,,,认真,e,,,1,67,147,20,1,,,,,,,,,,,,,,,,,,,,,,,,,,,,,,,,,,
,,,,,,,,,,,,,1,001,2025-01-20_15h51.47.464,IAT(Formal),2021.2.3,Win32,59.52380952,,,,,,,,,,,,,,,,,0,,,,,,,他的,i,,,1,68,148,57,1,,,,,,,,,,,,,,,,,,,,,,,,,,,,,,,,,,
,,,,,,,,,,,,,1,001,2025-01-20_15h51.47.464,IAT(Formal),2021.2.3,Win32,59.52380952,,,,,,,,,,,,,,,,e,0,0.0512,,,,,,凶狠,i,,,1,69,149,42,1,,,,,,,,,,,,,,,,,,,,,,,,,,,,,,,,,,
,,,,,,,,,,,,,1,001,2025-01-20_15h51.47.464,IAT(Formal),2021.2.3,Win32,59.52380952,,,,,,,,,,,,,,,,i,0,0.1385,,,,,,我的,e,,,1,70,150,61,1,,,,,,,,,,,,,,,,,,,,,,,,,,,,,,,,,,
,,,,,,,,,,,,,1,001,2025-01-20_15h51.47.464,IAT(Formal),2021.2.3,Win32,59.52380952,,,,,,,,,,,,,,,,i,1,0.0355,,,,,,他,i,,,1,71,151,75,1,,,,,,,,,,,,,,,,,,,,,,,,,,,,,,,,,,
,,,,,,,,,,,,,1,001,2025-01-20_15h51.47.464,IAT(Formal),2021.2.3,Win32,59.52380952,,,,,,,,,,,,,,,,i,1,0.1733,,,,,,他的,i,,,1,72,152,77,1,,,,,,,,,,,,,,,,,,,,,,,,,,,,,,,,,,
,,,,,,,,,,,,,1,001,2025-01-20_15h51.47.464,IAT(Formal),2021.2.3,Win32,59.52380952,,,,,,,,,,,,,,,,i,1,0.107,,,,,,傲慢,i,,,1,73,153,37,1,,,,,,,,,,,,,,,,,,,,,,,,,,,,,,,,,,
,,,,,,,,,,,,,1,001,2025-01-20_15h51.47.464,IAT(Formal),2021.2.3,Win32,59.52380952,,,,,,,,,,,,,,,,i,0,0.1265,,,,,,稳重,e,,,1,74,154,21,1,,,,,,,,,,,,,,,,,,,,,,,,,,,,,,,,,,
,,,,,,,,,,,,,1,001,2025-01-20_15h51.47.464,IAT(Formal),2021.2.3,Win32,59.52380952,,,,,,,,,,,,,,,,e,1,0.0022,,,,,,活泼,e,,,1,75,155,28,1,,,,,,,,,,,,,,,,,,,,,,,,,,,,,,,,,,
,,,,,,,,,,,,,1,001,2025-01-20_15h51.47.464,IAT(Formal),2021.2.3,Win32,59.52380952,,,,,,,,,,,,,,,,e,0,0.0644,,,,,,愚蠢,i,,,1,76,156,32,1,,,,,,,,,,,,,,,,,,,,,,,,,,,,,,,,,,
,,,,,,,,,,,,,1,001,2025-01-20_15h51.47.464,IAT(Formal),2021.2.3,Win32,59.52380952,,,,,,,,,,,,,,,,i,0,0.0324,,,,,,细腻,e,,,1,77,157,25,1,,,,,,,,,,,,,,,,,,,,,,,,,,,,,,,,,,
,,,,,,,,,,,,,1,001,2025-01-20_15h51.47.464,IAT(Formal),2021.2.3,Win32,59.52380952,,,,,,,,,,,,,,,,i,1,0.025,,,,,,卑鄙,i,,,1,78,158,30,1,,,,,,,,,,,,,,,,,,,,,,,,,,,,,,,,,,
,,,,,,,,,,,,,1,001,2025-01-20_15h51.47.464,IAT(Formal),2021.2.3,Win32,59.52380952,,,,,,,,,,,,,,,,i,0,0.0812,,,,,,机智,e,,,1,79,159,19,1,,,,,,,,,,,,,,,,,,,,,,,,,,,,,,,,,,
,,,,,,,,,,,他人,e,1,001,2025-01-20_15h51.47.464,IAT(Formal),2021.2.3,Win32,59.52380952,,,,,,,,,,,,,,,,,,,,,,,,,,,,,,,,,space,12.8537,i,0,0.7993,0,0,0,8,1,,,,,,,,,,,,,,,,,,,,,,,,
,,,,,,,,,,,他们,e,1,001,2025-01-20_15h51.47.464,IAT(Formal),2021.2.3,Win32,59.52380952,,,,,,,,,,,,,,,,,,,,,,,,,,,,,,,,,,,i,0,0.3888,0,1,1,6,1,,,,,,,,,,,,,,,,,,,,,,,,
,,,,,,,,,,,其他,e,1,001,2025-01-20_15h51.47.464,IAT(Formal),2021.2.3,Win32,59.52380952,,,,,,,,,,,,,,,,,,,,,,,,,,,,,,,,,,,i,0,0.0007,0,2,2,9,1,,,,,,,,,,,,,,,,,,,,,,,,
,,,,,,,,,,,我的,i,1,001,2025-01-20_15h51.47.464,IAT(Formal),2021.2.3,Win32,59.52380952,,,,,,,,,,,,,,,,,,,,,,,,,,,,,,,,,,,i,1,0.2533,0,3,3,1,1,,,,,,,,,,,,,,,,,,,,,,,,
,,,,,,,,,,,我,i,1,001,2025-01-20_15h51.47.464,IAT(Formal),2021.2.3,Win32,59.52380952,,,,,,,,,,,,,,,,,,,,,,,,,,,,,,,,,,,i,1,0.1745,0,4,4,0,1,,,,,,,,,,,,,,,,,,,,,,,,
,,,,,,,,,,,我们,i,1,001,2025-01-20_15h51.47.464,IAT(Formal),2021.2.3,Win32,59.52380952,,,,,,,,,,,,,,,,,,,,,,,,,,,,,,,,,,,e,0,0.0161,0,5,5,2,1,,,,,,,,,,,,,,,,,,,,,,,,
,,,,,,,,,,,他,e,1,001,2025-01-20_15h51.47.464,IAT(Formal),2021.2.3,Win32,59.52380952,,,,,,,,,,,,,,,,,,,,,,,,,,,,,,,,,,,e,1,0.1992,0,6,6,5,1,,,,,,,,,,,,,,,,,,,,,,,,
,,,,,,,,,,,他的,e,1,001,2025-01-20_15h51.47.464,IAT(Formal),2021.2.3,Win32,59.52380952,,,,,,,,,,,,,,,,,,,,,,,,,,,,,,,,,,,e,1,0.0934,0,7,7,7,1,,,,,,,,,,,,,,,,,,,,,,,,
,,,,,,,,,,,俺,i,1,001,2025-01-20_15h51.47.464,IAT(Formal),2021.2.3,Win32,59.52380952,,,,,,,,,,,,,,,,,,,,,,,,,,,,,,,,,,,e,0,0.5694,0,8,8,4,1,,,,,,,,,,,,,,,,,,,,,,,,
,,,,,,,,,,,自己,i,1,001,2025-01-20_15h51.47.464,IAT(Formal),2021.2.3,Win32,59.52380952,,,,,,,,,,,,,,,,,,,,,,,,,,,,,,,,,,,e,0,0.2184,0,9,9,3,1,,,,,,,,,,,,,,,,,,,,,,,,
,,,,,,,,,,,,,1,001,2025-01-20_15h51.47.464,IAT(Formal),2021.2.3,Win32,59.52380952,,,,,,,,,,,,,,,,,,,,,,,,,,,,,,,,,,,,,,,,,,,space,1.0277,e,1,0.4869,0,0,0,21,1,稳重,e,,,,,,,,,,,,
,,,,,,,,,,,,,1,001,2025-01-20_15h51.47.464,IAT(Formal),2021.2.3,Win32,59.52380952,,,,,,,,,,,,,,,,,,,,,,,,,,,,,,,,,,,,,,,,,,,,,i,1,0.3429,0,1,1,60,1,我,i,,,,,,,,,,,,
,,,,,,,,,,,,,1,001,2025-01-20_15h51.47.464,IAT(Formal),2021.2.3,Win32,59.52380952,,,,,,,,,,,,,,,,,,,,,,,,,,,,,,,,,,,,,,,,,,,,,i,1,0.0082,0,2,2,43,1,自私,i,,,,,,,,,,,,
,,,,,,,,,,,,,1,001,2025-01-20_15h51.47.464,IAT(Formal),2021.2.3,Win32,59.52380952,,,,,,,,,,,,,,,,,,,,,,,,,,,,,,,,,,,,,,,,,,,,,i,1,0.5603,0,3,3,37,1,傲慢,i,,,,,,,,,,,,
,,,,,,,,,,,,,1,001,2025-01-20_15h51.47.464,IAT(Formal),2021.2.3,Win32,59.52380952,,,,,,,,,,,,,,,,,,,,,,,,,,,,,,,,,,,,,,,,,,,,,i,0,0.35,0,4,4,13,1,杰出,e,,,,,,,,,,,,
,,,,,,,,,,,,,1,001,2025-01-20_15h51.47.464,IAT(Formal),2021.2.3,Win32,59.52380952,,,,,,,,,,,,,,,,,,,,,,,,,,,,,,,,,,,,,,,,,,,,,i,1,0.1688,0,5,5,73,1,自己,i,,,,,,,,,,,,
,,,,,,,,,,,,,1,001,2025-01-20_15h51.47.464,IAT(Formal),2021.2.3,Win32,59.52380952,,,,,,,,,,,,,,,,,,,,,,,,,,,,,,,,,,,,,,,,,,,,,e,1,0.2969,0,6,6,5,1,他,e,,,,,,,,,,,,
,,,,,,,,,,,,,1,001,2025-01-20_15h51.47.464,IAT(Formal),2021.2.3,Win32,59.52380952,,,,,,,,,,,,,,,,,,,,,,,,,,,,,,,,,,,,,,,,,,,,,e,0,0.2798,0,7,7,62,1,我们,i,,,,,,,,,,,,
,,,,,,,,,,,,,1,001,2025-01-20_15h51.47.464,IAT(Formal),2021.2.3,Win32,59.52380952,,,,,,,,,,,,,,,,,,,,,,,,,,,,,,,,,,,,,,,,,,,,,e,1,0.0178,0,8,8,77,1,他的,e,,,,,,,,,,,,
,,,,,,,,,,,,,1,001,2025-01-20_15h51.47.464,IAT(Formal),2021.2.3,Win32,59.52380952,,,,,,,,,,,,,,,,,,,,,,,,,,,,,,,,,,,,,,,,,,,,,e,0,0.0489,0,9,9,47,1,固执,i,,,,,,,,,,,,
,,,,,,,,,,,,,1,001,2025-01-20_15h51.47.464,IAT(Formal),2021.2.3,Win32,59.52380952,,,,,,,,,,,,,,,,,,,,,,,,,,,,,,,,,,,,,,,,,,,,,e,0,0.4312,0,10,10,36,1,自卑,i,,,,,,,,,,,,
,,,,,,,,,,,,,1,001,2025-01-20_15h51.47.464,IAT(Formal),2021.2.3,Win32,59.52380952,,,,,,,,,,,,,,,,,,,,,,,,,,,,,,,,,,,,,,,,,,,,,i,1,0.6835,0,11,11,31,1,虚伪,i,,,,,,,,,,,,
,,,,,,,,,,,,,1,001,2025-01-20_15h51.47.464,IAT(Formal),2021.2.3,Win32,59.52380952,,,,,,,,,,,,,,,,,,,,,,,,,,,,,,,,,,,,,,,,,,,,,i,1,0.1541,0,12,12,4,1,俺,i,,,,,,,,,,,,
,,,,,,,,,,,,,1,001,2025-01-20_15h51.47.464,IAT(Formal),2021.2.3,Win32,59.52380952,,,,,,,,,,,,,,,,,,,,,,,,,,,,,,,,,,,,,,,,,,,,,i,1,0.1661,0,13,13,38,1,鲁莽,i,,,,,,,,,,,,
,,,,,,,,,,,,,1,001,2025-01-20_15h51.47.464,IAT(Formal),2021.2.3,Win32,59.52380952,,,,,,,,,,,,,,,,,,,,,,,,,,,,,,,,,,,,,,,,,,,,,i,0,0.0006,0,14,14,9,1,其他,e,,,,,,,,,,,,
,,,,,,,,,,,,,1,001,2025-01-20_15h51.47.464,IAT(Formal),2021.2.3,Win32,59.52380952,,,,,,,,,,,,,,,,,,,,,,,,,,,,,,,,,,,,,,,,,,,,,i,1,0.1334,0,15,15,30,1,卑鄙,i,,,,,,,,,,,,
,,,,,,,,,,,,,1,001,2025-01-20_15h51.47.464,IAT(Formal),2021.2.3,Win32,59.52380952,,,,,,,,,,,,,,,,,,,,,,,,,,,,,,,,,,,,,,,,,,,,,e,0,0.1905,0,16,16,45,1,猖狂,i,,,,,,,,,,,,
,,,,,,,,,,,,,1,001,2025-01-20_15h51.47.464,IAT(Formal),2021.2.3,Win32,59.52380952,,,,,,,,,,,,,,,,,,,,,,,,,,,,,,,,,,,,,,,,,,,,,e,0,0.1995,0,17,17,49,1,下贱,i,,,,,,,,,,,,
,,,,,,,,,,,,,1,001,2025-01-20_15h51.47.464,IAT(Formal),2021.2.3,Win32,59.52380952,,,,,,,,,,,,,,,,,,,,,,,,,,,,,,,,,,,,,,,,,,,,,e,1,0.3872,0,18,18,68,1,他人,e,,,,,,,,,,,,
,,,,,,,,,,,,,1,001,2025-01-20_15h51.47.464,IAT(Formal),2021.2.3,Win32,59.52380952,,,,,,,,,,,,,,,,,,,,,,,,,,,,,,,,,,,,,,,,,,,,,e,1,0.0037,0,19,19,69,1,其他,e,,,,,,,,,,,,
,,,,,,,,,,,,,1,001,2025-01-20_15h51.47.464,IAT(Formal),2021.2.3,Win32,59.52380952,,,,,,,,,,,,,,,,,,,,,,,,,,,,,,,,,,,,,,,,,,,,,e,1,0.1135,0,20,20,6,1,他们,e,,,,,,,,,,,,
,,,,,,,,,,,,,1,001,2025-01-20_15h51.47.464,IAT(Formal),2021.2.3,Win32,59.52380952,,,,,,,,,,,,,,,,,,,,,,,,,,,,,,,,,,,,,,,,,,,,,i,1,0.0168,0,21,21,52,1,我们,i,,,,,,,,,,,,
,,,,,,,,,,,,,1,001,2025-01-20_15h51.47.464,IAT(Formal),2021.2.3,Win32,59.52380952,,,,,,,,,,,,,,,,,,,,,,,,,,,,,,,,,,,,,,,,,,,,,i,1,0.4067,0,22,22,0,1,我,i,,,,,,,,,,,,
,,,,,,,,,,,,,1,001,2025-01-20_15h51.47.464,IAT(Formal),2021.2.3,Win32,59.52380952,,,,,,,,,,,,,,,,,,,,,,,,,,,,,,,,,,,,,,,,,,,,,i,0,0.1826,0,23,23,19,1,机智,e,,,,,,,,,,,,
,,,,,,,,,,,,,1,001,2025-01-20_15h51.47.464,IAT(Formal),2021.2.3,Win32,59.52380952,,,,,,,,,,,,,,,,,,,,,,,,,,,,,,,,,,,,,,,,,,,,,i,1,0.0148,0,24,24,44,1,暴躁,i,,,,,,,,,,,,
,,,,,,,,,,,,,1,001,2025-01-20_15h51.47.464,IAT(Formal),2021.2.3,Win32,59.52380952,,,,,,,,,,,,,,,,,,,,,,,,,,,,,,,,,,,,,,,,,,,,,e,0,0.1253,0,25,25,63,1,自己,i,,,,,,,,,,,,
,,,,,,,,,,,,,1,001,2025-01-20_15h51.47.464,IAT(Formal),2021.2.3,Win32,59.52380952,,,,,,,,,,,,,,,,,,,,,,,,,,,,,,,,,,,,,,,,,,,,,e,1,0.4153,0,26,26,18,1,勤奋,e,,,,,,,,,,,,
,,,,,,,,,,,,,1,001,2025-01-20_15h51.47.464,IAT(Formal),2021.2.3,Win32,59.52380952,,,,,,,,,,,,,,,,,,,,,,,,,,,,,,,,,,,,,,,,,,,,,e,1,0.1817,0,27,27,10,1,优秀,e,,,,,,,,,,,,
,,,,,,,,,,,,,1,001,2025-01-20_15h51.47.464,IAT(Formal),2021.2.3,Win32,59.52380952,,,,,,,,,,,,,,,,,,,,,,,,,,,,,,,,,,,,,,,,,,,,,e,1,0.0309,0,28,28,8,1,他人,e,,,,,,,,,,,,
,,,,,,,,,,,,,1,001,2025-01-20_15h51.47.464,IAT(Formal),2021.2.3,Win32,59.52380952,,,,,,,,,,,,,,,,,,,,,,,,,,,,,,,,,,,,,,,,,,,,,e,1,0.2886,0,29,29,14,1,乐观,e,,,,,,,,,,,,
,,,,,,,,,,,,,1,001,2025-01-20_15h51.47.464,IAT(Formal),2021.2.3,Win32,59.52380952,,,,,,,,,,,,,,,,,,,,,,,,,,,,,,,,,,,,,,,,,,,,,i,0,0.0183,0,30,30,76,1,他们,e,,,,,,,,,,,,
,,,,,,,,,,,,,1,001,2025-01-20_15h51.47.464,IAT(Formal),2021.2.3,Win32,59.52380952,,,,,,,,,,,,,,,,,,,,,,,,,,,,,,,,,,,,,,,,,,,,,i,1,0.2089,0,31,31,46,1,野蛮,i,,,,,,,,,,,,
,,,,,,,,,,,,,1,001,2025-01-20_15h51.47.464,IAT(Formal),2021.2.3,Win32,59.52380952,,,,,,,,,,,,,,,,,,,,,,,,,,,,,,,,,,,,,,,,,,,,,i,0,0.036,0,32,32,29,1,诚恳,e,,,,,,,,,,,,
,,,,,,,,,,,,,1,001,2025-01-20_15h51.47.464,IAT(Formal),2021.2.3,Win32,59.52380952,,,,,,,,,,,,,,,,,,,,,,,,,,,,,,,,,,,,,,,,,,,,,i,0,0.3477,0,33,33,25,1,细腻,e,,,,,,,,,,,,
,,,,,,,,,,,,,1,001,2025-01-20_15h51.47.464,IAT(Formal),2021.2.3,Win32,59.52380952,,,,,,,,,,,,,,,,,,,,,,,,,,,,,,,,,,,,,,,,,,,,,i,1,0.151,0,34,34,2,1,我们,i,,,,,,,,,,,,
,,,,,,,,,,,,,1,001,2025-01-20_15h51.47.464,IAT(Formal),2021.2.3,Win32,59.52380952,,,,,,,,,,,,,,,,,,,,,,,,,,,,,,,,,,,,,,,,,,,,,i,0,0.0073,0,35,35,28,1,活泼,e,,,,,,,,,,,,
,,,,,,,,,,,,,1,001,2025-01-20_15h51.47.464,IAT(Formal),2021.2.3,Win32,59.52380952,,,,,,,,,,,,,,,,,,,,,,,,,,,,,,,,,,,,,,,,,,,,,e,0,0.2731,0,36,36,35,1,消极,i,,,,,,,,,,,,
,,,,,,,,,,,,,1,001,2025-01-20_15h51.47.464,IAT(Formal),2021.2.3,Win32,59.52380952,,,,,,,,,,,,,,,,,,,,,,,,,,,,,,,,,,,,,,,,,,,,,e,0,0.0483,0,37,37,39,1,冒失,i,,,,,,,,,,,,
,,,,,,,,,,,,,1,001,2025-01-20_15h51.47.464,IAT(Formal),2021.2.3,Win32,59.52380952,,,,,,,,,,,,,,,,,,,,,,,,,,,,,,,,,,,,,,,,,,,,,e,1,0.3112,0,38,38,20,1,认真,e,,,,,,,,,,,,
,,,,,,,,,,,,,1,001,2025-01-20_15h51.47.464,IAT(Formal),2021.2.3,Win32,59.52380952,,,,,,,,,,,,,,,,,,,,,,,,,,,,,,,,,,,,,,,,,,,,,e,0,0.2349,0,39,39,1,1,我的,i,,,,,,,,,,,,
,,,,,,,,,,,,,1,001,2025-01-20_15h51.47.464,IAT(Formal),2021.2.3,Win32,59.52380952,,,,,,,,,,,,,,,,,,,,,,,,,,,,,,,,,,,,,,,,,,,,,e,1,0.2639,0,40,40,16,1,正直,e,,,,,,,,,,,,
,,,,,,,,,,,,,1,001,2025-01-20_15h51.47.464,IAT(Formal),2021.2.3,Win32,59.52380952,,,,,,,,,,,,,,,,,,,,,,,,,,,,,,,,,,,,,,,,,,,,,e,0,0.0576,0,41,41,74,1,俺,i,,,,,,,,,,,,
,,,,,,,,,,,,,1,001,2025-01-20_15h51.47.464,IAT(Formal),2021.2.3,Win32,59.52380952,,,,,,,,,,,,,,,,,,,,,,,,,,,,,,,,,,,,,,,,,,,,,e,1,0.0026,0,42,42,66,1,他们,e,,,,,,,,,,,,
,,,,,,,,,,,,,1,001,2025-01-20_15h51.47.464,IAT(Formal),2021.2.3,Win32,59.52380952,,,,,,,,,,,,,,,,,,,,,,,,,,,,,,,,,,,,,,,,,,,,,i,1,0.2058,0,43,43,33,1,刻薄,i,,,,,,,,,,,,
,,,,,,,,,,,,,1,001,2025-01-20_15h51.47.464,IAT(Formal),2021.2.3,Win32,59.52380952,,,,,,,,,,,,,,,,,,,,,,,,,,,,,,,,,,,,,,,,,,,,,i,0,0.0427,0,44,44,58,1,他人,e,,,,,,,,,,,,
,,,,,,,,,,,,,1,001,2025-01-20_15h51.47.464,IAT(Formal),2021.2.3,Win32,59.52380952,,,,,,,,,,,,,,,,,,,,,,,,,,,,,,,,,,,,,,,,,,,,,i,1,0.4895,0,45,45,54,1,俺,i,,,,,,,,,,,,
,,,,,,,,,,,,,1,001,2025-01-20_15h51.47.464,IAT(Formal),2021.2.3,Win32,59.52380952,,,,,,,,,,,,,,,,,,,,,,,,,,,,,,,,,,,,,,,,,,,,,i,1,0.1361,0,46,46,3,1,自己,i,,,,,,,,,,,,
,,,,,,,,,,,,,1,001,2025-01-20_15h51.47.464,IAT(Formal),2021.2.3,Win32,59.52380952,,,,,,,,,,,,,,,,,,,,,,,,,,,,,,,,,,,,,,,,,,,,,i,0,0.1981,0,47,47,12,1,聪明,e,,,,,,,,,,,,
,,,,,,,,,,,,,1,001,2025-01-20_15h51.47.464,IAT(Formal),2021.2.3,Win32,59.52380952,,,,,,,,,,,,,,,,,,,,,,,,,,,,,,,,,,,,,,,,,,,,,e,1,0.3019,0,48,48,23,1,公正,e,,,,,,,,,,,,
,,,,,,,,,,,,,1,001,2025-01-20_15h51.47.464,IAT(Formal),2021.2.3,Win32,59.52380952,,,,,,,,,,,,,,,,,,,,,,,,,,,,,,,,,,,,,,,,,,,,,e,0,0.2398,0,49,49,53,1,自己,i,,,,,,,,,,,,
,,,,,,,,,,,,,1,001,2025-01-20_15h51.47.464,IAT(Formal),2021.2.3,Win32,59.52380952,,,,,,,,,,,,,,,,,,,,,,,,,,,,,,,,,,,,,,,,,,,,,e,1,0.1717,0,50,50,11,1,崇高,e,,,,,,,,,,,,
,,,,,,,,,,,,,1,001,2025-01-20_15h51.47.464,IAT(Formal),2021.2.3,Win32,59.52380952,,,,,,,,,,,,,,,,,,,,,,,,,,,,,,,,,,,,,,,,,,,,,e,1,0.2496,0,51,51,7,1,他的,e,,,,,,,,,,,,
,,,,,,,,,,,,,1,001,2025-01-20_15h51.47.464,IAT(Formal),2021.2.3,Win32,59.52380952,,,,,,,,,,,,,,,,,,,,,,,,,,,,,,,,,,,,,,,,,,,,,e,1,0.1776,0,52,52,79,1,其他,e,,,,,,,,,,,,
,,,,,,,,,,,,,1,001,2025-01-20_15h51.47.464,IAT(Formal),2021.2.3,Win32,59.52380952,,,,,,,,,,,,,,,,,,,,,,,,,,,,,,,,,,,,,,,,,,,,,e,0,0.0595,0,53,53,40,1,执拗,i,,,,,,,,,,,,
,,,,,,,,,,,,,1,001,2025-01-20_15h51.47.464,IAT(Formal),2021.2.3,Win32,59.52380952,,,,,,,,,,,,,,,,,,,,,,,,,,,,,,,,,,,,,,,,,,,,,e,0,0.1651,0,54,54,70,1,我,i,,,,,,,,,,,,
,,,,,,,,,,,,,1,001,2025-01-20_15h51.47.464,IAT(Formal),2021.2.3,Win32,59.52380952,,,,,,,,,,,,,,,,,,,,,,,,,,,,,,,,,,,,,,,,,,,,,i,0,0.0506,0,55,55,75,1,他,e,,,,,,,,,,,,
,,,,,,,,,,,,,1,001,2025-01-20_15h51.47.464,IAT(Formal),2021.2.3,Win32,59.52380952,,,,,,,,,,,,,,,,,,,,,,,,,,,,,,,,,,,,,,,,,,,,,i,0,0.1503,0,56,56,17,1,勇敢,e,,,,,,,,,,,,
,,,,,,,,,,,,,1,001,2025-01-20_15h51.47.464,IAT(Formal),2021.2.3,Win32,59.52380952,,,,,,,,,,,,,,,,,,,,,,,,,,,,,,,,,,,,,,,,,,,,,i,0,0.2818,0,57,57,57,1,他的,e,,,,,,,,,,,,
,,,,,,,,,,,,,1,001,2025-01-20_15h51.47.464,IAT(Formal),2021.2.3,Win32,59.52380952,,,,,,,,,,,,,,,,,,,,,,,,,,,,,,,,,,,,,,,,,,,,,i,0,0.1962,0,58,58,55,1,他,e,,,,,,,,,,,,
,,,,,,,,,,,,,1,001,2025-01-20_15h51.47.464,IAT(Formal),2021.2.3,Win32,59.52380952,,,,,,,,,,,,,,,,,,,,,,,,,,,,,,,,,,,,,,,,,,,,,i,1,0.1666,0,59,59,32,1,愚蠢,i,,,,,,,,,,,,
,,,,,,,,,,,,,1,001,2025-01-20_15h51.47.464,IAT(Formal),2021.2.3,Win32,59.52380952,,,,,,,,,,,,,,,,,,,,,,,,,,,,,,,,,,,,,,,,,,,,,i,0,0.3146,0,60,60,26,1,冷静,e,,,,,,,,,,,,
,,,,,,,,,,,,,1,001,2025-01-20_15h51.47.464,IAT(Formal),2021.2.3,Win32,59.52380952,,,,,,,,,,,,,,,,,,,,,,,,,,,,,,,,,,,,,,,,,,,,,i,1,0.0183,0,61,61,64,1,俺,i,,,,,,,,,,,,
,,,,,,,,,,,,,1,001,2025-01-20_15h51.47.464,IAT(Formal),2021.2.3,Win32,59.52380952,,,,,,,,,,,,,,,,,,,,,,,,,,,,,,,,,,,,,,,,,,,,,i,0,0.1696,0,62,62,56,1,他们,e,,,,,,,,,,,,
,,,,,,,,,,,,,1,001,2025-01-20_15h51.47.464,IAT(Formal),2021.2.3,Win32,59.52380952,,,,,,,,,,,,,,,,,,,,,,,,,,,,,,,,,,,,,,,,,,,,,e,1,0.0009,0,63,63,15,1,诚实,e,,,,,,,,,,,,
,,,,,,,,,,,,,1,001,2025-01-20_15h51.47.464,IAT(Formal),2021.2.3,Win32,59.52380952,,,,,,,,,,,,,,,,,,,,,,,,,,,,,,,,,,,,,,,,,,,,,i,0,0.1653,0,64,64,22,1,无私,e,,,,,,,,,,,,
,,,,,,,,,,,,,1,001,2025-01-20_15h51.47.464,IAT(Formal),2021.2.3,Win32,59.52380952,,,,,,,,,,,,,,,,,,,,,,,,,,,,,,,,,,,,,,,,,,,,,i,1,0.3342,0,65,65,61,1,我的,i,,,,,,,,,,,,
,,,,,,,,,,,,,1,001,2025-01-20_15h51.47.464,IAT(Formal),2021.2.3,Win32,59.52380952,,,,,,,,,,,,,,,,,,,,,,,,,,,,,,,,,,,,,,,,,,,,,e,1,0.1643,0,66,66,24,1,朴实,e,,,,,,,,,,,,
,,,,,,,,,,,,,1,001,2025-01-20_15h51.47.464,IAT(Formal),2021.2.3,Win32,59.52380952,,,,,,,,,,,,,,,,,,,,,,,,,,,,,,,,,,,,,,,,,,,,,i,0,0.0656,0,67,67,27,1,热情,e,,,,,,,,,,,,
,,,,,,,,,,,,,1,001,2025-01-20_15h51.47.464,IAT(Formal),2021.2.3,Win32,59.52380952,,,,,,,,,,,,,,,,,,,,,,,,,,,,,,,,,,,,,,,,,,,,,i,1,0.1915,0,68,68,71,1,我的,i,,,,,,,,,,,,
,,,,,,,,,,,,,1,001,2025-01-20_15h51.47.464,IAT(Formal),2021.2.3,Win32,59.52380952,,,,,,,,,,,,,,,,,,,,,,,,,,,,,,,,,,,,,,,,,,,,,i,1,0.7698,0,69,69,42,1,凶狠,i,,,,,,,,,,,,
,,,,,,,,,,,,,1,001,2025-01-20_15h51.47.464,IAT(Formal),2021.2.3,Win32,59.52380952,,,,,,,,,,,,,,,,,,,,,,,,,,,,,,,,,,,,,,,,,,,,,,0,,0,70,70,65,1,他,e,,,,,,,,,,,,
,,,,,,,,,,,,,1,001,2025-01-20_15h51.47.464,IAT(Formal),2021.2.3,Win32,59.52380952,,,,,,,,,,,,,,,,,,,,,,,,,,,,,,,,,,,,,,,,,,,,,,0,,0,71,71,41,1,散漫,i,,,,,,,,,,,,
,,,,,,,,,,,,,1,001,2025-01-20_15h51.47.464,IAT(Formal),2021.2.3,Win32,59.52380952,,,,,,,,,,,,,,,,,,,,,,,,,,,,,,,,,,,,,,,,,,,,,e,0,0.1586,0,72,72,50,1,我,i,,,,,,,,,,,,
,,,,,,,,,,,,,1,001,2025-01-20_15h51.47.464,IAT(Formal),2021.2.3,Win32,59.52380952,,,,,,,,,,,,,,,,,,,,,,,,,,,,,,,,,,,,,,,,,,,,,e,1,0.4333,0,73,73,67,1,他的,e,,,,,,,,,,,,
,,,,,,,,,,,,,1,001,2025-01-20_15h51.47.464,IAT(Formal),2021.2.3,Win32,59.52380952,,,,,,,,,,,,,,,,,,,,,,,,,,,,,,,,,,,,,,,,,,,,,i,0,0.6834,0,74,74,78,1,他人,e,,,,,,,,,,,,
,,,,,,,,,,,,,1,001,2025-01-20_15h51.47.464,IAT(Formal),2021.2.3,Win32,59.52380952,,,,,,,,,,,,,,,,,,,,,,,,,,,,,,,,,,,,,,,,,,,,,i,1,0.1805,0,75,75,34,1,悲观,i,,,,,,,,,,,,
,,,,,,,,,,,,,1,001,2025-01-20_15h51.47.464,IAT(Formal),2021.2.3,Win32,59.52380952,,,,,,,,,,,,,,,,,,,,,,,,,,,,,,,,,,,,,,,,,,,,,e,0,0.8715,0,76,76,51,1,我的,i,,,,,,,,,,,,
,,,,,,,,,,,,,1,001,2025-01-20_15h51.47.464,IAT(Formal),2021.2.3,Win32,59.52380952,,,,,,,,,,,,,,,,,,,,,,,,,,,,,,,,,,,,,,,,,,,,,e,1,0.4162,0,77,77,59,1,其他,e,,,,,,,,,,,,
,,,,,,,,,,,,,1,001,2025-01-20_15h51.47.464,IAT(Formal),2021.2.3,Win32,59.52380952,,,,,,,,,,,,,,,,,,,,,,,,,,,,,,,,,,,,,,,,,,,,,,0,,0,78,78,48,1,轻率,i,,,,,,,,,,,,
,,,,,,,,,,,,,1,001,2025-01-20_15h51.47.464,IAT(Formal),2021.2.3,Win32,59.52380952,,,,,,,,,,,,,,,,,,,,,,,,,,,,,,,,,,,,,,,,,,,,,e,0,0.6003,0,79,79,72,1,我们,i,,,,,,,,,,,,
,,,,,,,,,,,,,1,001,2025-01-20_15h51.47.464,IAT(Formal),2021.2.3,Win32,59.52380952,,,,,,,,,,,,,,,,,,,,,,,,,,,,,,,,,,,,,,,,,,,,,,,,,,,,,我,i,space,17.527,i,1,0.3262,0,0,0,60,1,,
,,,,,,,,,,,,,1,001,2025-01-20_15h51.47.464,IAT(Formal),2021.2.3,Win32,59.52380952,,,,,,,,,,,,,,,,,,,,,,,,,,,,,,,,,,,,,,,,,,,,,,,,,,,,,其他,e,,,,0,,0,1,1,79,1,,
,,,,,,,,,,,,,1,001,2025-01-20_15h51.47.464,IAT(Formal),2021.2.3,Win32,59.52380952,,,,,,,,,,,,,,,,,,,,,,,,,,,,,,,,,,,,,,,,,,,,,,,,,,,,,细腻,e,,,e,1,0.3978,0,2,2,25,1,,
,,,,,,,,,,,,,1,001,2025-01-20_15h51.47.464,IAT(Formal),2021.2.3,Win32,59.52380952,,,,,,,,,,,,,,,,,,,,,,,,,,,,,,,,,,,,,,,,,,,,,,,,,,,,,他们,e,,,i,0,0.3139,0,3,3,76,1,,
,,,,,,,,,,,,,1,001,2025-01-20_15h51.47.464,IAT(Formal),2021.2.3,Win32,59.52380952,,,,,,,,,,,,,,,,,,,,,,,,,,,,,,,,,,,,,,,,,,,,,,,,,,,,,他,e,,,e,1,0.0655,0,4,4,55,1,,
,,,,,,,,,,,,,1,001,2025-01-20_15h51.47.464,IAT(Formal),2021.2.3,Win32,59.52380952,,,,,,,,,,,,,,,,,,,,,,,,,,,,,,,,,,,,,,,,,,,,,,,,,,,,,猖狂,i,,,i,1,0.4661,0,5,5,45,1,,
,,,,,,,,,,,,,1,001,2025-01-20_15h51.47.464,IAT(Formal),2021.2.3,Win32,59.52380952,,,,,,,,,,,,,,,,,,,,,,,,,,,,,,,,,,,,,,,,,,,,,,,,,,,,,自己,i,,,e,0,0.001,0,6,6,53,1,,
,,,,,,,,,,,,,1,001,2025-01-20_15h51.47.464,IAT(Formal),2021.2.3,Win32,59.52380952,,,,,,,,,,,,,,,,,,,,,,,,,,,,,,,,,,,,,,,,,,,,,,,,,,,,,其他,e,,,e,1,0.0705,0,7,7,69,1,,
,,,,,,,,,,,,,1,001,2025-01-20_15h51.47.464,IAT(Formal),2021.2.3,Win32,59.52380952,,,,,,,,,,,,,,,,,,,,,,,,,,,,,,,,,,,,,,,,,,,,,,,,,,,,,我的,i,,,e,0,0.4799,0,8,8,71,1,,
,,,,,,,,,,,,,1,001,2025-01-20_15h51.47.464,IAT(Formal),2021.2.3,Win32,59.52380952,,,,,,,,,,,,,,,,,,,,,,,,,,,,,,,,,,,,,,,,,,,,,,,,,,,,,勇敢,e,,,e,1,0.2488,0,9,9,17,1,,
,,,,,,,,,,,,,1,001,2025-01-20_15h51.47.464,IAT(Formal),2021.2.3,Win32,59.52380952,,,,,,,,,,,,,,,,,,,,,,,,,,,,,,,,,,,,,,,,,,,,,,,,,,,,,刻薄,i,,,i,1,0.452,0,10,10,33,1,,
,,,,,,,,,,,,,1,001,2025-01-20_15h51.47.464,IAT(Formal),2021.2.3,Win32,59.52380952,,,,,,,,,,,,,,,,,,,,,,,,,,,,,,,,,,,,,,,,,,,,,,,,,,,,,我们,i,,,,0,,0,11,11,2,1,,
,,,,,,,,,,,,,1,001,2025-01-20_15h51.47.464,IAT(Formal),2021.2.3,Win32,59.52380952,,,,,,,,,,,,,,,,,,,,,,,,,,,,,,,,,,,,,,,,,,,,,,,,,,,,,他的,e,,,e,1,0.6012,0,12,12,57,1,,
,,,,,,,,,,,,,1,001,2025-01-20_15h51.47.464,IAT(Formal),2021.2.3,Win32,59.52380952,,,,,,,,,,,,,,,,,,,,,,,,,,,,,,,,,,,,,,,,,,,,,,,,,,,,,自卑,i,,,i,1,0.2544,0,13,13,36,1,,
,,,,,,,,,,,,,1,001,2025-01-20_15h51.47.464,IAT(Formal),2021.2.3,Win32,59.52380952,,,,,,,,,,,,,,,,,,,,,,,,,,,,,,,,,,,,,,,,,,,,,,,,,,,,,稳重,e,,,,0,,0,14,14,21,1,,
,,,,,,,,,,,,,1,001,2025-01-20_15h51.47.464,IAT(Formal),2021.2.3,Win32,59.52380952,,,,,,,,,,,,,,,,,,,,,,,,,,,,,,,,,,,,,,,,,,,,,,,,,,,,,他,e,,,e,1,0.1504,0,15,15,75,1,,
,,,,,,,,,,,,,1,001,2025-01-20_15h51.47.464,IAT(Formal),2021.2.3,Win32,59.52380952,,,,,,,,,,,,,,,,,,,,,,,,,,,,,,,,,,,,,,,,,,,,,,,,,,,,,暴躁,i,,,i,1,0.367,0,16,16,44,1,,
,,,,,,,,,,,,,1,001,2025-01-20_15h51.47.464,IAT(Formal),2021.2.3,Win32,59.52380952,,,,,,,,,,,,,,,,,,,,,,,,,,,,,,,,,,,,,,,,,,,,,,,,,,,,,他的,e,,,i,0,0.3403,0,17,17,77,1,,
,,,,,,,,,,,,,1,001,2025-01-20_15h51.47.464,IAT(Formal),2021.2.3,Win32,59.52380952,,,,,,,,,,,,,,,,,,,,,,,,,,,,,,,,,,,,,,,,,,,,,,,,,,,,,公正,e,,,,0,,0,18,18,23,1,,
,,,,,,,,,,,,,1,001,2025-01-20_15h51.47.464,IAT(Formal),2021.2.3,Win32,59.52380952,,,,,,,,,,,,,,,,,,,,,,,,,,,,,,,,,,,,,,,,,,,,,,,,,,,,,聪明,e,,,i,0,0.5972,0,19,19,12,1,,
,,,,,,,,,,,,,1,001,2025-01-20_15h51.47.464,IAT(Formal),2021.2.3,Win32,59.52380952,,,,,,,,,,,,,,,,,,,,,,,,,,,,,,,,,,,,,,,,,,,,,,,,,,,,,无私,e,,,e,1,0.0307,0,20,20,22,1,,
,,,,,,,,,,,,,1,001,2025-01-20_15h51.47.464,IAT(Formal),2021.2.3,Win32,59.52380952,,,,,,,,,,,,,,,,,,,,,,,,,,,,,,,,,,,,,,,,,,,,,,,,,,,,,其他,e,,,e,1,0.5631,0,21,21,9,1,,
,,,,,,,,,,,,,1,001,2025-01-20_15h51.47.464,IAT(Formal),2021.2.3,Win32,59.52380952,,,,,,,,,,,,,,,,,,,,,,,,,,,,,,,,,,,,,,,,,,,,,,,,,,,,,消极,i,,,,0,,0,22,22,35,1,,
,,,,,,,,,,,,,1,001,2025-01-20_15h51.47.464,IAT(Formal),2021.2.3,Win32,59.52380952,,,,,,,,,,,,,,,,,,,,,,,,,,,,,,,,,,,,,,,,,,,,,,,,,,,,,他人,e,,,i,0,0.1091,0,23,23,58,1,,
,,,,,,,,,,,,,1,001,2025-01-20_15h51.47.464,IAT(Formal),2021.2.3,Win32,59.52380952,,,,,,,,,,,,,,,,,,,,,,,,,,,,,,,,,,,,,,,,,,,,,,,,,,,,,俺,i,,,e,0,0.0488,0,24,24,54,1,,
,,,,,,,,,,,,,1,001,2025-01-20_15h51.47.464,IAT(Formal),2021.2.3,Win32,59.52380952,,,,,,,,,,,,,,,,,,,,,,,,,,,,,,,,,,,,,,,,,,,,,,,,,,,,,野蛮,i,,,e,0,1.4699,0,25,25,46,1,,
,,,,,,,,,,,,,1,001,2025-01-20_15h51.47.464,IAT(Formal),2021.2.3,Win32,59.52380952,,,,,,,,,,,,,,,,,,,,,,,,,,,,,,,,,,,,,,,,,,,,,,,,,,,,,他,e,,,i,0,0.0576,0,26,26,65,1,,
,,,,,,,,,,,,,1,001,2025-01-20_15h51.47.464,IAT(Formal),2021.2.3,Win32,59.52380952,,,,,,,,,,,,,,,,,,,,,,,,,,,,,,,,,,,,,,,,,,,,,,,,,,,,,他们,e,,,i,0,0.6468,0,27,27,66,1,,
,,,,,,,,,,,,,1,001,2025-01-20_15h51.47.464,IAT(Formal),2021.2.3,Win32,59.52380952,,,,,,,,,,,,,,,,,,,,,,,,,,,,,,,,,,,,,,,,,,,,,,,,,,,,,他的,e,,,i,0,0.4307,0,28,28,67,1,,
,,,,,,,,,,,,,1,001,2025-01-20_15h51.47.464,IAT(Formal),2021.2.3,Win32,59.52380952,,,,,,,,,,,,,,,,,,,,,,,,,,,,,,,,,,,,,,,,,,,,,,,,,,,,,朴实,e,,,i,0,1.2467,0,29,29,24,1,,
,,,,,,,,,,,,,1,001,2025-01-20_15h51.47.464,IAT(Formal),2021.2.3,Win32,59.52380952,,,,,,,,,,,,,,,,,,,,,,,,,,,,,,,,,,,,,,,,,,,,,,,,,,,,,认真,e,,,i,0,1.2133,0,30,30,20,1,,
,,,,,,,,,,,,,1,001,2025-01-20_15h51.47.464,IAT(Formal),2021.2.3,Win32,59.52380952,,,,,,,,,,,,,,,,,,,,,,,,,,,,,,,,,,,,,,,,,,,,,,,,,,,,,俺,i,,,,0,,0,31,31,64,1,,
,,,,,,,,,,,,,1,001,2025-01-20_15h51.47.464,IAT(Formal),2021.2.3,Win32,59.52380952,,,,,,,,,,,,,,,,,,,,,,,,,,,,,,,,,,,,,,,,,,,,,,,,,,,,,我们,i,,,i,1,0.4906,0,32,32,52,1,,
,,,,,,,,,,,,,1,001,2025-01-20_15h51.47.464,IAT(Formal),2021.2.3,Win32,59.52380952,,,,,,,,,,,,,,,,,,,,,,,,,,,,,,,,,,,,,,,,,,,,,,,,,,,,,正直,e,,,,0,,0,33,33,16,1,,
,,,,,,,,,,,,,1,001,2025-01-20_15h51.47.464,IAT(Formal),2021.2.3,Win32,59.52380952,,,,,,,,,,,,,,,,,,,,,,,,,,,,,,,,,,,,,,,,,,,,,,,,,,,,,下贱,i,,,,0,,0,34,34,49,1,,
,,,,,,,,,,,,,1,001,2025-01-20_15h51.47.464,IAT(Formal),2021.2.3,Win32,59.52380952,,,,,,,,,,,,,,,,,,,,,,,,,,,,,,,,,,,,,,,,,,,,,,,,,,,,,崇高,e,,,i,0,0.3472,0,35,35,11,1,,
,,,,,,,,,,,,,1,001,2025-01-20_15h51.47.464,IAT(Formal),2021.2.3,Win32,59.52380952,,,,,,,,,,,,,,,,,,,,,,,,,,,,,,,,,,,,,,,,,,,,,,,,,,,,,固执,i,,,,0,,0,36,36,47,1,,
,,,,,,,,,,,,,1,001,2025-01-20_15h51.47.464,IAT(Formal),2021.2.3,Win32,59.52380952,,,,,,,,,,,,,,,,,,,,,,,,,,,,,,,,,,,,,,,,,,,,,,,,,,,,,机智,e,,,,0,,0,37,37,19,1,,
,,,,,,,,,,,,,1,001,2025-01-20_15h51.47.464,IAT(Formal),2021.2.3,Win32,59.52380952,,,,,,,,,,,,,,,,,,,,,,,,,,,,,,,,,,,,,,,,,,,,,,,,,,,,,他人,e,,,,0,,0,38,38,68,1,,
,,,,,,,,,,,,,1,001,2025-01-20_15h51.47.464,IAT(Formal),2021.2.3,Win32,59.52380952,,,,,,,,,,,,,,,,,,,,,,,,,,,,,,,,,,,,,,,,,,,,,,,,,,,,,轻率,i,,,i,1,0.3562,0,39,39,48,1,,
,,,,,,,,,,,,,1,001,2025-01-20_15h51.47.464,IAT(Formal),2021.2.3,Win32,59.52380952,,,,,,,,,,,,,,,,,,,,,,,,,,,,,,,,,,,,,,,,,,,,,,,,,,,,,热情,e,,,e,1,0.1694,0,40,40,27,1,,
,,,,,,,,,,,,,1,001,2025-01-20_15h51.47.464,IAT(Formal),2021.2.3,Win32,59.52380952,,,,,,,,,,,,,,,,,,,,,,,,,,,,,,,,,,,,,,,,,,,,,,,,,,,,,我们,i,,,i,1,0.3501,0,41,41,62,1,,
,,,,,,,,,,,,,1,001,2025-01-20_15h51.47.464,IAT(Formal),2021.2.3,Win32,59.52380952,,,,,,,,,,,,,,,,,,,,,,,,,,,,,,,,,,,,,,,,,,,,,,,,,,,,,我,i,,,i,1,0.2368,0,42,42,50,1,,
,,,,,,,,,,,,,1,001,2025-01-20_15h51.47.464,IAT(Formal),2021.2.3,Win32,59.52380952,,,,,,,,,,,,,,,,,,,,,,,,,,,,,,,,,,,,,,,,,,,,,,,,,,,,,鲁莽,i,,,i,1,0.0816,0,43,43,38,1,,
,,,,,,,,,,,,,1,001,2025-01-20_15h51.47.464,IAT(Formal),2021.2.3,Win32,59.52380952,,,,,,,,,,,,,,,,,,,,,,,,,,,,,,,,,,,,,,,,,,,,,,,,,,,,,他人,e,,,e,1,0.0868,0,44,44,8,1,,
,,,,,,,,,,,,,1,001,2025-01-20_15h51.47.464,IAT(Formal),2021.2.3,Win32,59.52380952,,,,,,,,,,,,,,,,,,,,,,,,,,,,,,,,,,,,,,,,,,,,,,,,,,,,,冒失,i,,,i,1,1.2972,0,45,45,39,1,,
,,,,,,,,,,,,,1,001,2025-01-20_15h51.47.464,IAT(Formal),2021.2.3,Win32,59.52380952,,,,,,,,,,,,,,,,,,,,,,,,,,,,,,,,,,,,,,,,,,,,,,,,,,,,,他,e,,,i,0,0.6317,0,46,46,5,1,,
,,,,,,,,,,,,,1,001,2025-01-20_15h51.47.464,IAT(Formal),2021.2.3,Win32,59.52380952,,,,,,,,,,,,,,,,,,,,,,,,,,,,,,,,,,,,,,,,,,,,,,,,,,,,,虚伪,i,,,i,1,0.175,0,47,47,31,1,,
,,,,,,,,,,,,,1,001,2025-01-20_15h51.47.464,IAT(Formal),2021.2.3,Win32,59.52380952,,,,,,,,,,,,,,,,,,,,,,,,,,,,,,,,,,,,,,,,,,,,,,,,,,,,,凶狠,i,,,e,0,0.2975,0,48,48,42,1,,
,,,,,,,,,,,,,1,001,2025-01-20_15h51.47.464,IAT(Formal),2021.2.3,Win32,59.52380952,,,,,,,,,,,,,,,,,,,,,,,,,,,,,,,,,,,,,,,,,,,,,,,,,,,,,散漫,i,,,i,1,0.486,0,49,49,41,1,,
,,,,,,,,,,,,,1,001,2025-01-20_15h51.47.464,IAT(Formal),2021.2.3,Win32,59.52380952,,,,,,,,,,,,,,,,,,,,,,,,,,,,,,,,,,,,,,,,,,,,,,,,,,,,,勤奋,e,,,e,1,0.4787,0,50,50,18,1,,
,,,,,,,,,,,,,1,001,2025-01-20_15h51.47.464,IAT(Formal),2021.2.3,Win32,59.52380952,,,,,,,,,,,,,,,,,,,,,,,,,,,,,,,,,,,,,,,,,,,,,,,,,,,,,诚恳,e,,,e,1,0.6813,0,51,51,29,1,,
,,,,,,,,,,,,,1,001,2025-01-20_15h51.47.464,IAT(Formal),2021.2.3,Win32,59.52380952,,,,,,,,,,,,,,,,,,,,,,,,,,,,,,,,,,,,,,,,,,,,,,,,,,,,,诚实,e,,,e,1,0.4049,0,52,52,15,1,,
,,,,,,,,,,,,,1,001,2025-01-20_15h51.47.464,IAT(Formal),2021.2.3,Win32,59.52380952,,,,,,,,,,,,,,,,,,,,,,,,,,,,,,,,,,,,,,,,,,,,,,,,,,,,,自私,i,,,i,1,0.2633,0,53,53,43,1,,
,,,,,,,,,,,,,1,001,2025-01-20_15h51.47.464,IAT(Formal),2021.2.3,Win32,59.52380952,,,,,,,,,,,,,,,,,,,,,,,,,,,,,,,,,,,,,,,,,,,,,,,,,,,,,我的,i,,,i,1,0.2993,0,54,54,1,1,,
,,,,,,,,,,,,,1,001,2025-01-20_15h51.47.464,IAT(Formal),2021.2.3,Win32,59.52380952,,,,,,,,,,,,,,,,,,,,,,,,,,,,,,,,,,,,,,,,,,,,,,,,,,,,,其他,e,,,i,0,0.1107,0,55,55,59,1,,
,,,,,,,,,,,,,1,001,2025-01-20_15h51.47.464,IAT(Formal),2021.2.3,Win32,59.52380952,,,,,,,,,,,,,,,,,,,,,,,,,,,,,,,,,,,,,,,,,,,,,,,,,,,,,执拗,i,,,e,0,0.1837,0,56,56,40,1,,
,,,,,,,,,,,,,1,001,2025-01-20_15h51.47.464,IAT(Formal),2021.2.3,Win32,59.52380952,,,,,,,,,,,,,,,,,,,,,,,,,,,,,,,,,,,,,,,,,,,,,,,,,,,,,悲观,i,,,i,1,0.0822,0,57,57,34,1,,
,,,,,,,,,,,,,1,001,2025-01-20_15h51.47.464,IAT(Formal),2021.2.3,Win32,59.52380952,,,,,,,,,,,,,,,,,,,,,,,,,,,,,,,,,,,,,,,,,,,,,,,,,,,,,他们,e,,,i,0,0.2685,0,58,58,56,1,,
,,,,,,,,,,,,,1,001,2025-01-20_15h51.47.464,IAT(Formal),2021.2.3,Win32,59.52380952,,,,,,,,,,,,,,,,,,,,,,,,,,,,,,,,,,,,,,,,,,,,,,,,,,,,,他们,e,,,e,1,0.0524,0,59,59,6,1,,
,,,,,,,,,,,,,1,001,2025-01-20_15h51.47.464,IAT(Formal),2021.2.3,Win32,59.52380952,,,,,,,,,,,,,,,,,,,,,,,,,,,,,,,,,,,,,,,,,,,,,,,,,,,,,杰出,e,,,e,1,0.0497,0,60,60,13,1,,
,,,,,,,,,,,,,1,001,2025-01-20_15h51.47.464,IAT(Formal),2021.2.3,Win32,59.52380952,,,,,,,,,,,,,,,,,,,,,,,,,,,,,,,,,,,,,,,,,,,,,,,,,,,,,傲慢,i,,,i,1,0.2067,0,61,61,37,1,,
,,,,,,,,,,,,,1,001,2025-01-20_15h51.47.464,IAT(Formal),2021.2.3,Win32,59.52380952,,,,,,,,,,,,,,,,,,,,,,,,,,,,,,,,,,,,,,,,,,,,,,,,,,,,,他的,e,,,i,0,0.4991,0,62,62,7,1,,
,,,,,,,,,,,,,1,001,2025-01-20_15h51.47.464,IAT(Formal),2021.2.3,Win32,59.52380952,,,,,,,,,,,,,,,,,,,,,,,,,,,,,,,,,,,,,,,,,,,,,,,,,,,,,我的,i,,,e,0,0.6314,0,63,63,61,1,,
,,,,,,,,,,,,,1,001,2025-01-20_15h51.47.464,IAT(Formal),2021.2.3,Win32,59.52380952,,,,,,,,,,,,,,,,,,,,,,,,,,,,,,,,,,,,,,,,,,,,,,,,,,,,,俺,i,,,i,1,0.1567,0,64,64,74,1,,
,,,,,,,,,,,,,1,001,2025-01-20_15h51.47.464,IAT(Formal),2021.2.3,Win32,59.52380952,,,,,,,,,,,,,,,,,,,,,,,,,,,,,,,,,,,,,,,,,,,,,,,,,,,,,自己,i,,,i,1,0.2,0,65,65,63,1,,
,,,,,,,,,,,,,1,001,2025-01-20_15h51.47.464,IAT(Formal),2021.2.3,Win32,59.52380952,,,,,,,,,,,,,,,,,,,,,,,,,,,,,,,,,,,,,,,,,,,,,,,,,,,,,他人,e,,,i,0,0.6184,0,66,66,78,1,,
,,,,,,,,,,,,,1,001,2025-01-20_15h51.47.464,IAT(Formal),2021.2.3,Win32,59.52380952,,,,,,,,,,,,,,,,,,,,,,,,,,,,,,,,,,,,,,,,,,,,,,,,,,,,,我,i,,,e,0,0.1602,0,67,67,0,1,,
,,,,,,,,,,,,,1,001,2025-01-20_15h51.47.464,IAT(Formal),2021.2.3,Win32,59.52380952,,,,,,,,,,,,,,,,,,,,,,,,,,,,,,,,,,,,,,,,,,,,,,,,,,,,,优秀,e,,,i,0,0.1166,0,68,68,10,1,,
,,,,,,,,,,,,,1,001,2025-01-20_15h51.47.464,IAT(Formal),2021.2.3,Win32,59.52380952,,,,,,,,,,,,,,,,,,,,,,,,,,,,,,,,,,,,,,,,,,,,,,,,,,,,,自己,i,,,i,1,0.6044,0,69,69,3,1,,
,,,,,,,,,,,,,1,001,2025-01-20_15h51.47.464,IAT(Formal),2021.2.3,Win32,59.52380952,,,,,,,,,,,,,,,,,,,,,,,,,,,,,,,,,,,,,,,,,,,,,,,,,,,,,乐观,e,,,,0,,0,70,70,14,1,,
,,,,,,,,,,,,,1,001,2025-01-20_15h51.47.464,IAT(Formal),2021.2.3,Win32,59.52380952,,,,,,,,,,,,,,,,,,,,,,,,,,,,,,,,,,,,,,,,,,,,,,,,,,,,,活泼,e,,,,0,,0,71,71,28,1,,
,,,,,,,,,,,,,1,001,2025-01-20_15h51.47.464,IAT(Formal),2021.2.3,Win32,59.52380952,,,,,,,,,,,,,,,,,,,,,,,,,,,,,,,,,,,,,,,,,,,,,,,,,,,,,冷静,e,,,,0,,0,72,72,26,1,,
,,,,,,,,,,,,,1,001,2025-01-20_15h51.47.464,IAT(Formal),2021.2.3,Win32,59.52380952,,,,,,,,,,,,,,,,,,,,,,,,,,,,,,,,,,,,,,,,,,,,,,,,,,,,,卑鄙,i,,,i,1,0.3229,0,73,73,30,1,,
,,,,,,,,,,,,,1,001,2025-01-20_15h51.47.464,IAT(Formal),2021.2.3,Win32,59.52380952,,,,,,,,,,,,,,,,,,,,,,,,,,,,,,,,,,,,,,,,,,,,,,,,,,,,,自己,i,,,,0,,0,74,74,73,1,,
,,,,,,,,,,,,,1,001,2025-01-20_15h51.47.464,IAT(Formal),2021.2.3,Win32,59.52380952,,,,,,,,,,,,,,,,,,,,,,,,,,,,,,,,,,,,,,,,,,,,,,,,,,,,,俺,i,,,e,0,0.3308,0,75,75,4,1,,
,,,,,,,,,,,,,1,001,2025-01-20_15h51.47.464,IAT(Formal),2021.2.3,Win32,59.52380952,,,,,,,,,,,,,,,,,,,,,,,,,,,,,,,,,,,,,,,,,,,,,,,,,,,,,我,i,,,i,1,0.2517,0,76,76,70,1,,
,,,,,,,,,,,,,1,001,2025-01-20_15h51.47.464,IAT(Formal),2021.2.3,Win32,59.52380952,,,,,,,,,,,,,,,,,,,,,,,,,,,,,,,,,,,,,,,,,,,,,,,,,,,,,我们,i,,,e,0,0.9168,0,77,77,72,1,,
,,,,,,,,,,,,,1,001,2025-01-20_15h51.47.464,IAT(Formal),2021.2.3,Win32,59.52380952,,,,,,,,,,,,,,,,,,,,,,,,,,,,,,,,,,,,,,,,,,,,,,,,,,,,,愚蠢,i,,,,0,,0,78,78,32,1,,
,,,,,,,,,,,,,1,001,2025-01-20_15h51.47.464,IAT(Formal),2021.2.3,Win32,59.52380952,,,,,,,,,,,,,,,,,,,,,,,,,,,,,,,,,,,,,,,,,,,,,,,,,,,,,我的,i,,,e,0,0.4329,0,79,79,51,1,,
,,,,,,,,,,,,,1,001,2025-01-20_15h51.47.464,IAT(Formal),2021.2.3,Win32,59.52380952,,,,,,,,,,,,,,,,,,,,,,,,,,,,,,,,,,,,,,,,,,,,,,,,,,,,,固执,i,,,i,1,0.3078,1,0,80,47,1,,
,,,,,,,,,,,,,1,001,2025-01-20_15h51.47.464,IAT(Formal),2021.2.3,Win32,59.52380952,,,,,,,,,,,,,,,,,,,,,,,,,,,,,,,,,,,,,,,,,,,,,,,,,,,,,其他,e,,,i,0,0.2916,1,1,81,79,1,,
,,,,,,,,,,,,,1,001,2025-01-20_15h51.47.464,IAT(Formal),2021.2.3,Win32,59.52380952,,,,,,,,,,,,,,,,,,,,,,,,,,,,,,,,,,,,,,,,,,,,,,,,,,,,,其他,e,,,e,1,0.1689,1,2,82,69,1,,
,,,,,,,,,,,,,1,001,2025-01-20_15h51.47.464,IAT(Formal),2021.2.3,Win32,59.52380952,,,,,,,,,,,,,,,,,,,,,,,,,,,,,,,,,,,,,,,,,,,,,,,,,,,,,他人,e,,,e,1,0.0131,1,3,83,58,1,,
,,,,,,,,,,,,,1,001,2025-01-20_15h51.47.464,IAT(Formal),2021.2.3,Win32,59.52380952,,,,,,,,,,,,,,,,,,,,,,,,,,,,,,,,,,,,,,,,,,,,,,,,,,,,,公正,e,,,i,0,0.0175,1,4,84,23,1,,
,,,,,,,,,,,,,1,001,2025-01-20_15h51.47.464,IAT(Formal),2021.2.3,Win32,59.52380952,,,,,,,,,,,,,,,,,,,,,,,,,,,,,,,,,,,,,,,,,,,,,,,,,,,,,朴实,e,,,e,1,0.4937,1,5,85,24,1,,
,,,,,,,,,,,,,1,001,2025-01-20_15h51.47.464,IAT(Formal),2021.2.3,Win32,59.52380952,,,,,,,,,,,,,,,,,,,,,,,,,,,,,,,,,,,,,,,,,,,,,,,,,,,,,刻薄,i,,,i,1,0.5077,1,6,86,33,1,,
,,,,,,,,,,,,,1,001,2025-01-20_15h51.47.464,IAT(Formal),2021.2.3,Win32,59.52380952,,,,,,,,,,,,,,,,,,,,,,,,,,,,,,,,,,,,,,,,,,,,,,,,,,,,,勤奋,e,,,i,0,0.1047,1,7,87,18,1,,
,,,,,,,,,,,,,1,001,2025-01-20_15h51.47.464,IAT(Formal),2021.2.3,Win32,59.52380952,,,,,,,,,,,,,,,,,,,,,,,,,,,,,,,,,,,,,,,,,,,,,,,,,,,,,我,i,,,i,1,0.2156,1,8,88,70,1,,
,,,,,,,,,,,,,1,001,2025-01-20_15h51.47.464,IAT(Formal),2021.2.3,Win32,59.52380952,,,,,,,,,,,,,,,,,,,,,,,,,,,,,,,,,,,,,,,,,,,,,,,,,,,,,机智,e,,,i,0,0.1641,1,9,89,19,1,,
,,,,,,,,,,,,,1,001,2025-01-20_15h51.47.464,IAT(Formal),2021.2.3,Win32,59.52380952,,,,,,,,,,,,,,,,,,,,,,,,,,,,,,,,,,,,,,,,,,,,,,,,,,,,,聪明,e,,,e,1,0.0686,1,10,90,12,1,,
,,,,,,,,,,,,,1,001,2025-01-20_15h51.47.464,IAT(Formal),2021.2.3,Win32,59.52380952,,,,,,,,,,,,,,,,,,,,,,,,,,,,,,,,,,,,,,,,,,,,,,,,,,,,,他们,e,,,e,1,0.034,1,11,91,6,1,,
,,,,,,,,,,,,,1,001,2025-01-20_15h51.47.464,IAT(Formal),2021.2.3,Win32,59.52380952,,,,,,,,,,,,,,,,,,,,,,,,,,,,,,,,,,,,,,,,,,,,,,,,,,,,,俺,i,,,e,0,1.114,1,12,92,74,1,,
,,,,,,,,,,,,,1,001,2025-01-20_15h51.47.464,IAT(Formal),2021.2.3,Win32,59.52380952,,,,,,,,,,,,,,,,,,,,,,,,,,,,,,,,,,,,,,,,,,,,,,,,,,,,,俺,i,,,i,1,0.3994,1,13,93,64,1,,
,,,,,,,,,,,,,1,001,2025-01-20_15h51.47.464,IAT(Formal),2021.2.3,Win32,59.52380952,,,,,,,,,,,,,,,,,,,,,,,,,,,,,,,,,,,,,,,,,,,,,,,,,,,,,猖狂,i,,,e,0,0.1646,1,14,94,45,1,,
,,,,,,,,,,,,,1,001,2025-01-20_15h51.47.464,IAT(Formal),2021.2.3,Win32,59.52380952,,,,,,,,,,,,,,,,,,,,,,,,,,,,,,,,,,,,,,,,,,,,,,,,,,,,,轻率,i,,,,0,,1,15,95,48,1,,
,,,,,,,,,,,,,1,001,2025-01-20_15h51.47.464,IAT(Formal),2021.2.3,Win32,59.52380952,,,,,,,,,,,,,,,,,,,,,,,,,,,,,,,,,,,,,,,,,,,,,,,,,,,,,散漫,i,,,i,1,1.2388,1,16,96,41,1,,
,,,,,,,,,,,,,1,001,2025-01-20_15h51.47.464,IAT(Formal),2021.2.3,Win32,59.52380952,,,,,,,,,,,,,,,,,,,,,,,,,,,,,,,,,,,,,,,,,,,,,,,,,,,,,我的,i,,,,0,,1,17,97,61,1,,
,,,,,,,,,,,,,1,001,2025-01-20_15h51.47.464,IAT(Formal),2021.2.3,Win32,59.52380952,,,,,,,,,,,,,,,,,,,,,,,,,,,,,,,,,,,,,,,,,,,,,,,,,,,,,他们,e,,,i,0,0.797,1,18,98,56,1,,
,,,,,,,,,,,,,1,001,2025-01-20_15h51.47.464,IAT(Formal),2021.2.3,Win32,59.52380952,,,,,,,,,,,,,,,,,,,,,,,,,,,,,,,,,,,,,,,,,,,,,,,,,,,,,自己,i,,,,0,,1,19,99,63,1,,
,,,,,,,,,,,,,1,001,2025-01-20_15h51.47.464,IAT(Formal),2021.2.3,Win32,59.52380952,,,,,,,,,,,,,,,,,,,,,,,,,,,,,,,,,,,,,,,,,,,,,,,,,,,,,我的,i,,,,0,,1,20,100,1,1,,
,,,,,,,,,,,,,1,001,2025-01-20_15h51.47.464,IAT(Formal),2021.2.3,Win32,59.52380952,,,,,,,,,,,,,,,,,,,,,,,,,,,,,,,,,,,,,,,,,,,,,,,,,,,,,鲁莽,i,,,,0,,1,21,101,38,1,,
,,,,,,,,,,,,,1,001,2025-01-20_15h51.47.464,IAT(Formal),2021.2.3,Win32,59.52380952,,,,,,,,,,,,,,,,,,,,,,,,,,,,,,,,,,,,,,,,,,,,,,,,,,,,,他,e,,,,0,,1,22,102,55,1,,
,,,,,,,,,,,,,1,001,2025-01-20_15h51.47.464,IAT(Formal),2021.2.3,Win32,59.52380952,,,,,,,,,,,,,,,,,,,,,,,,,,,,,,,,,,,,,,,,,,,,,,,,,,,,,活泼,e,,,,0,,1,23,103,28,1,,
,,,,,,,,,,,,,1,001,2025-01-20_15h51.47.464,IAT(Formal),2021.2.3,Win32,59.52380952,,,,,,,,,,,,,,,,,,,,,,,,,,,,,,,,,,,,,,,,,,,,,,,,,,,,,虚伪,i,,,,0,,1,24,104,31,1,,
,,,,,,,,,,,,,1,001,2025-01-20_15h51.47.464,IAT(Formal),2021.2.3,Win32,59.52380952,,,,,,,,,,,,,,,,,,,,,,,,,,,,,,,,,,,,,,,,,,,,,,,,,,,,,自私,i,,,i,1,0.0474,1,25,105,43,1,,
,,,,,,,,,,,,,1,001,2025-01-20_15h51.47.464,IAT(Formal),2021.2.3,Win32,59.52380952,,,,,,,,,,,,,,,,,,,,,,,,,,,,,,,,,,,,,,,,,,,,,,,,,,,,,自己,i,,,i,1,0.1493,1,26,106,3,1,,
,,,,,,,,,,,,,1,001,2025-01-20_15h51.47.464,IAT(Formal),2021.2.3,Win32,59.52380952,,,,,,,,,,,,,,,,,,,,,,,,,,,,,,,,,,,,,,,,,,,,,,,,,,,,,悲观,i,,,i,1,0.4371,1,27,107,34,1,,
,,,,,,,,,,,,,1,001,2025-01-20_15h51.47.464,IAT(Formal),2021.2.3,Win32,59.52380952,,,,,,,,,,,,,,,,,,,,,,,,,,,,,,,,,,,,,,,,,,,,,,,,,,,,,凶狠,i,,,i,1,0.7647,1,28,108,42,1,,
,,,,,,,,,,,,,1,001,2025-01-20_15h51.47.464,IAT(Formal),2021.2.3,Win32,59.52380952,,,,,,,,,,,,,,,,,,,,,,,,,,,,,,,,,,,,,,,,,,,,,,,,,,,,,执拗,i,,,e,0,0.3664,1,29,109,40,1,,
,,,,,,,,,,,,,1,001,2025-01-20_15h51.47.464,IAT(Formal),2021.2.3,Win32,59.52380952,,,,,,,,,,,,,,,,,,,,,,,,,,,,,,,,,,,,,,,,,,,,,,,,,,,,,他人,e,,,e,1,0.0686,1,30,110,78,1,,
,,,,,,,,,,,,,1,001,2025-01-20_15h51.47.464,IAT(Formal),2021.2.3,Win32,59.52380952,,,,,,,,,,,,,,,,,,,,,,,,,,,,,,,,,,,,,,,,,,,,,,,,,,,,,他,e,,,e,1,0.1704,1,31,111,75,1,,
,,,,,,,,,,,,,1,001,2025-01-20_15h51.47.464,IAT(Formal),2021.2.3,Win32,59.52380952,,,,,,,,,,,,,,,,,,,,,,,,,,,,,,,,,,,,,,,,,,,,,,,,,,,,,我们,i,,,i,1,0.1861,1,32,112,2,1,,
,,,,,,,,,,,,,1,001,2025-01-20_15h51.47.464,IAT(Formal),2021.2.3,Win32,59.52380952,,,,,,,,,,,,,,,,,,,,,,,,,,,,,,,,,,,,,,,,,,,,,,,,,,,,,稳重,e,,,i,0,0.1473,1,33,113,21,1,,
,,,,,,,,,,,,,1,001,2025-01-20_15h51.47.464,IAT(Formal),2021.2.3,Win32,59.52380952,,,,,,,,,,,,,,,,,,,,,,,,,,,,,,,,,,,,,,,,,,,,,,,,,,,,,冷静,e,,,e,1,0.1931,1,34,114,26,1,,
,,,,,,,,,,,,,1,001,2025-01-20_15h51.47.464,IAT(Formal),2021.2.3,Win32,59.52380952,,,,,,,,,,,,,,,,,,,,,,,,,,,,,,,,,,,,,,,,,,,,,,,,,,,,,冒失,i,,,i,1,0.659,1,35,115,39,1,,
,,,,,,,,,,,,,1,001,2025-01-20_15h51.47.464,IAT(Formal),2021.2.3,Win32,59.52380952,,,,,,,,,,,,,,,,,,,,,,,,,,,,,,,,,,,,,,,,,,,,,,,,,,,,,无私,e,,,e,1,0.4208,1,36,116,22,1,,
,,,,,,,,,,,,,1,001,2025-01-20_15h51.47.464,IAT(Formal),2021.2.3,Win32,59.52380952,,,,,,,,,,,,,,,,,,,,,,,,,,,,,,,,,,,,,,,,,,,,,,,,,,,,,他的,e,,,i,0,0.0364,1,37,117,77,1,,
,,,,,,,,,,,,,1,001,2025-01-20_15h51.47.464,IAT(Formal),2021.2.3,Win32,59.52380952,,,,,,,,,,,,,,,,,,,,,,,,,,,,,,,,,,,,,,,,,,,,,,,,,,,,,杰出,e,,,i,0,0.5252,1,38,118,13,1,,
,,,,,,,,,,,,,1,001,2025-01-20_15h51.47.464,IAT(Formal),2021.2.3,Win32,59.52380952,,,,,,,,,,,,,,,,,,,,,,,,,,,,,,,,,,,,,,,,,,,,,,,,,,,,,他的,e,,,i,0,0.216,1,39,119,7,1,,
,,,,,,,,,,,,,1,001,2025-01-20_15h51.47.464,IAT(Formal),2021.2.3,Win32,59.52380952,,,,,,,,,,,,,,,,,,,,,,,,,,,,,,,,,,,,,,,,,,,,,,,,,,,,,乐观,e,,,i,0,0.6009,1,40,120,14,1,,
,,,,,,,,,,,,,1,001,2025-01-20_15h51.47.464,IAT(Formal),2021.2.3,Win32,59.52380952,,,,,,,,,,,,,,,,,,,,,,,,,,,,,,,,,,,,,,,,,,,,,,,,,,,,,俺,i,,,i,1,1.4409,1,41,121,4,1,,
,,,,,,,,,,,,,1,001,2025-01-20_15h51.47.464,IAT(Formal),2021.2.3,Win32,59.52380952,,,,,,,,,,,,,,,,,,,,,,,,,,,,,,,,,,,,,,,,,,,,,,,,,,,,,我们,i,,,i,1,0.0336,1,42,122,52,1,,
,,,,,,,,,,,,,1,001,2025-01-20_15h51.47.464,IAT(Formal),2021.2.3,Win32,59.52380952,,,,,,,,,,,,,,,,,,,,,,,,,,,,,,,,,,,,,,,,,,,,,,,,,,,,,他,e,,,e,1,0.5471,1,43,123,5,1,,
,,,,,,,,,,,,,1,001,2025-01-20_15h51.47.464,IAT(Formal),2021.2.3,Win32,59.52380952,,,,,,,,,,,,,,,,,,,,,,,,,,,,,,,,,,,,,,,,,,,,,,,,,,,,,我的,i,,,i,1,0.5023,1,44,124,51,1,,
,,,,,,,,,,,,,1,001,2025-01-20_15h51.47.464,IAT(Formal),2021.2.3,Win32,59.52380952,,,,,,,,,,,,,,,,,,,,,,,,,,,,,,,,,,,,,,,,,,,,,,,,,,,,,自己,i,,,i,1,0.0823,1,45,125,53,1,,
,,,,,,,,,,,,,1,001,2025-01-20_15h51.47.464,IAT(Formal),2021.2.3,Win32,59.52380952,,,,,,,,,,,,,,,,,,,,,,,,,,,,,,,,,,,,,,,,,,,,,,,,,,,,,我,i,,,,0,,1,46,126,50,1,,
,,,,,,,,,,,,,1,001,2025-01-20_15h51.47.464,IAT(Formal),2021.2.3,Win32,59.52380952,,,,,,,,,,,,,,,,,,,,,,,,,,,,,,,,,,,,,,,,,,,,,,,,,,,,,其他,e,,,e,1,0.001,1,47,127,9,1,,
,,,,,,,,,,,,,1,001,2025-01-20_15h51.47.464,IAT(Formal),2021.2.3,Win32,59.52380952,,,,,,,,,,,,,,,,,,,,,,,,,,,,,,,,,,,,,,,,,,,,,,,,,,,,,崇高,e,,,i,0,0.267,1,48,128,11,1,,
,,,,,,,,,,,,,1,001,2025-01-20_15h51.47.464,IAT(Formal),2021.2.3,Win32,59.52380952,,,,,,,,,,,,,,,,,,,,,,,,,,,,,,,,,,,,,,,,,,,,,,,,,,,,,我们,i,,,e,0,0.2192,1,49,129,72,1,,
,,,,,,,,,,,,,1,001,2025-01-20_15h51.47.464,IAT(Formal),2021.2.3,Win32,59.52380952,,,,,,,,,,,,,,,,,,,,,,,,,,,,,,,,,,,,,,,,,,,,,,,,,,,,,他,e,,,i,0,0.9038,1,50,130,65,1,,
,,,,,,,,,,,,,1,001,2025-01-20_15h51.47.464,IAT(Formal),2021.2.3,Win32,59.52380952,,,,,,,,,,,,,,,,,,,,,,,,,,,,,,,,,,,,,,,,,,,,,,,,,,,,,认真,e,,,i,0,0.6545,1,51,131,20,1,,
,,,,,,,,,,,,,1,001,2025-01-20_15h51.47.464,IAT(Formal),2021.2.3,Win32,59.52380952,,,,,,,,,,,,,,,,,,,,,,,,,,,,,,,,,,,,,,,,,,,,,,,,,,,,,野蛮,i,,,i,1,0.2345,1,52,132,46,1,,
,,,,,,,,,,,,,1,001,2025-01-20_15h51.47.464,IAT(Formal),2021.2.3,Win32,59.52380952,,,,,,,,,,,,,,,,,,,,,,,,,,,,,,,,,,,,,,,,,,,,,,,,,,,,,他人,e,,,i,0,0.6661,1,53,133,8,1,,
,,,,,,,,,,,,,1,001,2025-01-20_15h51.47.464,IAT(Formal),2021.2.3,Win32,59.52380952,,,,,,,,,,,,,,,,,,,,,,,,,,,,,,,,,,,,,,,,,,,,,,,,,,,,,暴躁,i,,,i,1,0.4121,1,54,134,44,1,,
,,,,,,,,,,,,,1,001,2025-01-20_15h51.47.464,IAT(Formal),2021.2.3,Win32,59.52380952,,,,,,,,,,,,,,,,,,,,,,,,,,,,,,,,,,,,,,,,,,,,,,,,,,,,,卑鄙,i,,,i,1,0.4308,1,55,135,30,1,,
,,,,,,,,,,,,,1,001,2025-01-20_15h51.47.464,IAT(Formal),2021.2.3,Win32,59.52380952,,,,,,,,,,,,,,,,,,,,,,,,,,,,,,,,,,,,,,,,,,,,,,,,,,,,,细腻,e,,,i,0,0.1215,1,56,136,25,1,,
,,,,,,,,,,,,,1,001,2025-01-20_15h51.47.464,IAT(Formal),2021.2.3,Win32,59.52380952,,,,,,,,,,,,,,,,,,,,,,,,,,,,,,,,,,,,,,,,,,,,,,,,,,,,,自卑,i,,,i,1,0.0805,1,57,137,36,1,,
,,,,,,,,,,,,,1,001,2025-01-20_15h51.47.464,IAT(Formal),2021.2.3,Win32,59.52380952,,,,,,,,,,,,,,,,,,,,,,,,,,,,,,,,,,,,,,,,,,,,,,,,,,,,,下贱,i,,,e,0,0.0191,1,58,138,49,1,,
,,,,,,,,,,,,,1,001,2025-01-20_15h51.47.464,IAT(Formal),2021.2.3,Win32,59.52380952,,,,,,,,,,,,,,,,,,,,,,,,,,,,,,,,,,,,,,,,,,,,,,,,,,,,,他们,e,,,i,0,0.3502,1,59,139,76,1,,
,,,,,,,,,,,,,1,001,2025-01-20_15h51.47.464,IAT(Formal),2021.2.3,Win32,59.52380952,,,,,,,,,,,,,,,,,,,,,,,,,,,,,,,,,,,,,,,,,,,,,,,,,,,,,我们,i,,,e,0,0.1167,1,60,140,62,1,,
,,,,,,,,,,,,,1,001,2025-01-20_15h51.47.464,IAT(Formal),2021.2.3,Win32,59.52380952,,,,,,,,,,,,,,,,,,,,,,,,,,,,,,,,,,,,,,,,,,,,,,,,,,,,,我,i,,,i,1,0.2032,1,61,141,60,1,,
,,,,,,,,,,,,,1,001,2025-01-20_15h51.47.464,IAT(Formal),2021.2.3,Win32,59.52380952,,,,,,,,,,,,,,,,,,,,,,,,,,,,,,,,,,,,,,,,,,,,,,,,,,,,,自己,i,,,i,1,0.1837,1,62,142,73,1,,
,,,,,,,,,,,,,1,001,2025-01-20_15h51.47.464,IAT(Formal),2021.2.3,Win32,59.52380952,,,,,,,,,,,,,,,,,,,,,,,,,,,,,,,,,,,,,,,,,,,,,,,,,,,,,他的,e,,,i,0,0.4382,1,63,143,57,1,,
,,,,,,,,,,,,,1,001,2025-01-20_15h51.47.464,IAT(Formal),2021.2.3,Win32,59.52380952,,,,,,,,,,,,,,,,,,,,,,,,,,,,,,,,,,,,,,,,,,,,,,,,,,,,,正直,e,,,e,1,0.3546,1,64,144,16,1,,
,,,,,,,,,,,,,1,001,2025-01-20_15h51.47.464,IAT(Formal),2021.2.3,Win32,59.52380952,,,,,,,,,,,,,,,,,,,,,,,,,,,,,,,,,,,,,,,,,,,,,,,,,,,,,诚恳,e,,,i,0,0.0666,1,65,145,29,1,,
,,,,,,,,,,,,,1,001,2025-01-20_15h51.47.464,IAT(Formal),2021.2.3,Win32,59.52380952,,,,,,,,,,,,,,,,,,,,,,,,,,,,,,,,,,,,,,,,,,,,,,,,,,,,,俺,i,,,i,1,0.2086,1,66,146,54,1,,
,,,,,,,,,,,,,1,001,2025-01-20_15h51.47.464,IAT(Formal),2021.2.3,Win32,59.52380952,,,,,,,,,,,,,,,,,,,,,,,,,,,,,,,,,,,,,,,,,,,,,,,,,,,,,热情,e,,,i,0,0.3491,1,67,147,27,1,,
,,,,,,,,,,,,,1,001,2025-01-20_15h51.47.464,IAT(Formal),2021.2.3,Win32,59.52380952,,,,,,,,,,,,,,,,,,,,,,,,,,,,,,,,,,,,,,,,,,,,,,,,,,,,,我的,i,,,e,0,0.2574,1,68,148,71,1,,
,,,,,,,,,,,,,1,001,2025-01-20_15h51.47.464,IAT(Formal),2021.2.3,Win32,59.52380952,,,,,,,,,,,,,,,,,,,,,,,,,,,,,,,,,,,,,,,,,,,,,,,,,,,,,诚实,e,,,i,0,0.2015,1,69,149,15,1,,
,,,,,,,,,,,,,1,001,2025-01-20_15h51.47.464,IAT(Formal),2021.2.3,Win32,59.52380952,,,,,,,,,,,,,,,,,,,,,,,,,,,,,,,,,,,,,,,,,,,,,,,,,,,,,优秀,e,,,e,1,0.0803,1,70,150,10,1,,
,,,,,,,,,,,,,1,001,2025-01-20_15h51.47.464,IAT(Formal),2021.2.3,Win32,59.52380952,,,,,,,,,,,,,,,,,,,,,,,,,,,,,,,,,,,,,,,,,,,,,,,,,,,,,愚蠢,i,,,i,1,0.1522,1,71,151,32,1,,
,,,,,,,,,,,,,1,001,2025-01-20_15h51.47.464,IAT(Formal),2021.2.3,Win32,59.52380952,,,,,,,,,,,,,,,,,,,,,,,,,,,,,,,,,,,,,,,,,,,,,,,,,,,,,我,i,,,i,1,0.3327,1,72,152,0,1,,
,,,,,,,,,,,,,1,001,2025-01-20_15h51.47.464,IAT(Formal),2021.2.3,Win32,59.52380952,,,,,,,,,,,,,,,,,,,,,,,,,,,,,,,,,,,,,,,,,,,,,,,,,,,,,消极,i,,,,0,,1,73,153,35,1,,
,,,,,,,,,,,,,1,001,2025-01-20_15h51.47.464,IAT(Formal),2021.2.3,Win32,59.52380952,,,,,,,,,,,,,,,,,,,,,,,,,,,,,,,,,,,,,,,,,,,,,,,,,,,,,勇敢,e,,,,0,,1,74,154,17,1,,
,,,,,,,,,,,,,1,001,2025-01-20_15h51.47.464,IAT(Formal),2021.2.3,Win32,59.52380952,,,,,,,,,,,,,,,,,,,,,,,,,,,,,,,,,,,,,,,,,,,,,,,,,,,,,其他,e,,,i,0,0.1097,1,75,155,59,1,,
,,,,,,,,,,,,,1,001,2025-01-20_15h51.47.464,IAT(Formal),2021.2.3,Win32,59.52380952,,,,,,,,,,,,,,,,,,,,,,,,,,,,,,,,,,,,,,,,,,,,,,,,,,,,,他们,e,,,i,0,0.2044,1,76,156,66,1,,
,,,,,,,,,,,,,1,001,2025-01-20_15h51.47.464,IAT(Formal),2021.2.3,Win32,59.52380952,,,,,,,,,,,,,,,,,,,,,,,,,,,,,,,,,,,,,,,,,,,,,,,,,,,,,他人,e,,,,0,,1,77,157,68,1,,
,,,,,,,,,,,,,1,001,2025-01-20_15h51.47.464,IAT(Formal),2021.2.3,Win32,59.52380952,,,,,,,,,,,,,,,,,,,,,,,,,,,,,,,,,,,,,,,,,,,,,,,,,,,,,傲慢,i,,,i,1,0.4369,1,78,158,37,1,,
,,,,,,,,,,,,,1,001,2025-01-20_15h51.47.464,IAT(Formal),2021.2.3,Win32,59.52380952,,,,,,,,,,,,,,,,,,,,,,,,,,,,,,,,,,,,,,,,,,,,,,,,,,,,,他的,e,,,i,0,0.4049,1,79,159,67,1,,
,,,,,,,,,,,,,1,001,2025-01-20_15h51.47.464,IAT(Formal),2021.2.3,Win32,59.52380952,,,,,,,,,,,,,,,,,,,,,,,,,,,,,,,,,,,,,,,,,,,,,,,,,,,,,,,,,,,,,,,,,space,13.9274