﻿Instruction1.keys,Instruction1.rt,Instruction2.keys,Instruction2.rt,key_resp_iso.keys,key_resp_iso.corr,key_resp_iso.rt,Practice_01.thisRepN,Practice_01.thisTrialN,Practice_01.thisN,Practice_01.thisIndex,Practice_01.ran,Words,ans,participant,session,date,expName,psychopyVersion,OS,frameRate,key_resp_3.keys,key_resp_3.rt,key_resp_ipn.keys,key_resp_ipn.corr,key_resp_ipn.rt,Practice_02.thisRepN,Practice_02.thisTrialN,Practice_02.thisN,Practice_02.thisIndex,Practice_02.ran,Words_ipn,ans_ipn,key_resp_4.keys,key_resp_4.rt,key_resp_t1.keys,key_resp_t1.corr,key_resp_t1.rt,Practice_T1.thisRepN,Practice_T1.thisTrialN,Practice_T1.thisN,Practice_T1.thisIndex,Practice_T1.ran,Words_t1,ans_t1,key_resp_5.keys,key_resp_5.rt,Formal_T1.thisRepN,Formal_T1.thisTrialN,Formal_T1.thisN,Formal_T1.thisIndex,Formal_T1.ran,key_resp_6.keys,key_resp_6.rt,key_resp_iso_reverse.keys,key_resp_iso_reverse.corr,key_resp_iso_reverse.rt,Practice_iso_Reverse.thisRepN,Practice_iso_Reverse.thisTrialN,Practice_iso_Reverse.thisN,Practice_iso_Reverse.thisIndex,Practice_iso_Reverse.ran,key_resp_7.keys,key_resp_7.rt,key_resp_t2_Practice.keys,key_resp_t2_Practice.corr,key_resp_t2_Practice.rt,Practice_t2_Reverse.thisRepN,Practice_t2_Reverse.thisTrialN,Practice_t2_Reverse.thisN,Practice_t2_Reverse.thisIndex,Practice_t2_Reverse.ran,Words_t2,ans_t2,key_resp_8.keys,key_resp_8.rt,key_resp_t2.keys,key_resp_t2.corr,key_resp_t2.rt,Formal_t2_reverse.thisRepN,Formal_t2_reverse.thisTrialN,Formal_t2_reverse.thisN,Formal_t2_reverse.thisIndex,Formal_t2_reverse.ran,key_instruct.keys,key_instruct.rt
space,5.1209,space,15.2856,i,1,0.975,0,0,0,5,1,他,i,1,001,2025-01-25_19h35.04.761,IAT(Formal),2021.2.3,Win32,60.60606061,,,,,,,,,,,,,,,,,,,,,,,,,,,,,,,,,,,,,,,,,,,,,,,,,,,,,,,,,,,,,,,,,
,,,,e,1,0.5424,0,1,1,0,1,我,e,1,001,2025-01-25_19h35.04.761,IAT(Formal),2021.2.3,Win32,60.60606061,,,,,,,,,,,,,,,,,,,,,,,,,,,,,,,,,,,,,,,,,,,,,,,,,,,,,,,,,,,,,,,,,
,,,,e,1,0.645,0,2,2,2,1,我们,e,1,001,2025-01-25_19h35.04.761,IAT(Formal),2021.2.3,Win32,60.60606061,,,,,,,,,,,,,,,,,,,,,,,,,,,,,,,,,,,,,,,,,,,,,,,,,,,,,,,,,,,,,,,,,
,,,,i,1,0.415,0,3,3,8,1,他人,i,1,001,2025-01-25_19h35.04.761,IAT(Formal),2021.2.3,Win32,60.60606061,,,,,,,,,,,,,,,,,,,,,,,,,,,,,,,,,,,,,,,,,,,,,,,,,,,,,,,,,,,,,,,,,
,,,,e,1,0.69,0,4,4,4,1,俺,e,1,001,2025-01-25_19h35.04.761,IAT(Formal),2021.2.3,Win32,60.60606061,,,,,,,,,,,,,,,,,,,,,,,,,,,,,,,,,,,,,,,,,,,,,,,,,,,,,,,,,,,,,,,,,
,,,,e,1,0.6061,0,5,5,1,1,我的,e,1,001,2025-01-25_19h35.04.761,IAT(Formal),2021.2.3,Win32,60.60606061,,,,,,,,,,,,,,,,,,,,,,,,,,,,,,,,,,,,,,,,,,,,,,,,,,,,,,,,,,,,,,,,,
,,,,e,1,0.7985,0,6,6,3,1,自己,e,1,001,2025-01-25_19h35.04.761,IAT(Formal),2021.2.3,Win32,60.60606061,,,,,,,,,,,,,,,,,,,,,,,,,,,,,,,,,,,,,,,,,,,,,,,,,,,,,,,,,,,,,,,,,
,,,,i,1,0.6428,0,7,7,6,1,他们,i,1,001,2025-01-25_19h35.04.761,IAT(Formal),2021.2.3,Win32,60.60606061,,,,,,,,,,,,,,,,,,,,,,,,,,,,,,,,,,,,,,,,,,,,,,,,,,,,,,,,,,,,,,,,,
,,,,i,1,0.447,0,8,8,7,1,他的,i,1,001,2025-01-25_19h35.04.761,IAT(Formal),2021.2.3,Win32,60.60606061,,,,,,,,,,,,,,,,,,,,,,,,,,,,,,,,,,,,,,,,,,,,,,,,,,,,,,,,,,,,,,,,,
,,,,i,1,0.6014,0,9,9,9,1,其他,i,1,001,2025-01-25_19h35.04.761,IAT(Formal),2021.2.3,Win32,60.60606061,,,,,,,,,,,,,,,,,,,,,,,,,,,,,,,,,,,,,,,,,,,,,,,,,,,,,,,,,,,,,,,,,
,,,,,,,,,,,,,,1,001,2025-01-25_19h35.04.761,IAT(Formal),2021.2.3,Win32,60.60606061,space,6.5226,e,1,1.1179,0,0,0,17,1,热情,e,,,,,,,,,,,,,,,,,,,,,,,,,,,,,,,,,,,,,,,,,,,,,,,,,,,,,
,,,,,,,,,,,,,,1,001,2025-01-25_19h35.04.761,IAT(Formal),2021.2.3,Win32,60.60606061,,,i,1,0.651,0,1,1,20,1,卑鄙,i,,,,,,,,,,,,,,,,,,,,,,,,,,,,,,,,,,,,,,,,,,,,,,,,,,,,,
,,,,,,,,,,,,,,1,001,2025-01-25_19h35.04.761,IAT(Formal),2021.2.3,Win32,60.60606061,,,,0,,0,2,2,21,1,虚伪,i,,,,,,,,,,,,,,,,,,,,,,,,,,,,,,,,,,,,,,,,,,,,,,,,,,,,,
,,,,,,,,,,,,,,1,001,2025-01-25_19h35.04.761,IAT(Formal),2021.2.3,Win32,60.60606061,,,e,1,1.4293,0,3,3,6,1,正直,e,,,,,,,,,,,,,,,,,,,,,,,,,,,,,,,,,,,,,,,,,,,,,,,,,,,,,
,,,,,,,,,,,,,,1,001,2025-01-25_19h35.04.761,IAT(Formal),2021.2.3,Win32,60.60606061,,,e,1,0.9268,0,4,4,1,1,崇高,e,,,,,,,,,,,,,,,,,,,,,,,,,,,,,,,,,,,,,,,,,,,,,,,,,,,,,
,,,,,,,,,,,,,,1,001,2025-01-25_19h35.04.761,IAT(Formal),2021.2.3,Win32,60.60606061,,,i,1,0.8984,0,5,5,33,1,自私,i,,,,,,,,,,,,,,,,,,,,,,,,,,,,,,,,,,,,,,,,,,,,,,,,,,,,,
,,,,,,,,,,,,,,1,001,2025-01-25_19h35.04.761,IAT(Formal),2021.2.3,Win32,60.60606061,,,e,1,0.686,0,6,6,18,1,活泼,e,,,,,,,,,,,,,,,,,,,,,,,,,,,,,,,,,,,,,,,,,,,,,,,,,,,,,
,,,,,,,,,,,,,,1,001,2025-01-25_19h35.04.761,IAT(Formal),2021.2.3,Win32,60.60606061,,,i,1,0.9354,0,7,7,37,1,固执,i,,,,,,,,,,,,,,,,,,,,,,,,,,,,,,,,,,,,,,,,,,,,,,,,,,,,,
,,,,,,,,,,,,,,1,001,2025-01-25_19h35.04.761,IAT(Formal),2021.2.3,Win32,60.60606061,,,e,1,1.0766,0,8,8,2,1,聪明,e,,,,,,,,,,,,,,,,,,,,,,,,,,,,,,,,,,,,,,,,,,,,,,,,,,,,,
,,,,,,,,,,,,,,1,001,2025-01-25_19h35.04.761,IAT(Formal),2021.2.3,Win32,60.60606061,,,e,1,0.9008,0,9,9,14,1,朴实,e,,,,,,,,,,,,,,,,,,,,,,,,,,,,,,,,,,,,,,,,,,,,,,,,,,,,,
,,,,,,,,,,,,,,1,001,2025-01-25_19h35.04.761,IAT(Formal),2021.2.3,Win32,60.60606061,,,i,1,0.9445,0,10,10,24,1,悲观,i,,,,,,,,,,,,,,,,,,,,,,,,,,,,,,,,,,,,,,,,,,,,,,,,,,,,,
,,,,,,,,,,,,,,1,001,2025-01-25_19h35.04.761,IAT(Formal),2021.2.3,Win32,60.60606061,,,i,1,0.7174,0,11,11,38,1,轻率,i,,,,,,,,,,,,,,,,,,,,,,,,,,,,,,,,,,,,,,,,,,,,,,,,,,,,,
,,,,,,,,,,,,,,1,001,2025-01-25_19h35.04.761,IAT(Formal),2021.2.3,Win32,60.60606061,,,e,1,0.6822,0,12,12,13,1,公正,e,,,,,,,,,,,,,,,,,,,,,,,,,,,,,,,,,,,,,,,,,,,,,,,,,,,,,
,,,,,,,,,,,,,,1,001,2025-01-25_19h35.04.761,IAT(Formal),2021.2.3,Win32,60.60606061,,,e,1,0.4841,0,13,13,9,1,机智,e,,,,,,,,,,,,,,,,,,,,,,,,,,,,,,,,,,,,,,,,,,,,,,,,,,,,,
,,,,,,,,,,,,,,1,001,2025-01-25_19h35.04.761,IAT(Formal),2021.2.3,Win32,60.60606061,,,e,1,0.8558,0,14,14,12,1,无私,e,,,,,,,,,,,,,,,,,,,,,,,,,,,,,,,,,,,,,,,,,,,,,,,,,,,,,
,,,,,,,,,,,,,,1,001,2025-01-25_19h35.04.761,IAT(Formal),2021.2.3,Win32,60.60606061,,,i,1,0.6342,0,15,15,28,1,鲁莽,i,,,,,,,,,,,,,,,,,,,,,,,,,,,,,,,,,,,,,,,,,,,,,,,,,,,,,
,,,,,,,,,,,,,,1,001,2025-01-25_19h35.04.761,IAT(Formal),2021.2.3,Win32,60.60606061,,,e,1,1.1121,0,16,16,19,1,诚恳,e,,,,,,,,,,,,,,,,,,,,,,,,,,,,,,,,,,,,,,,,,,,,,,,,,,,,,
,,,,,,,,,,,,,,1,001,2025-01-25_19h35.04.761,IAT(Formal),2021.2.3,Win32,60.60606061,,,i,1,0.8836,0,17,17,36,1,野蛮,i,,,,,,,,,,,,,,,,,,,,,,,,,,,,,,,,,,,,,,,,,,,,,,,,,,,,,
,,,,,,,,,,,,,,1,001,2025-01-25_19h35.04.761,IAT(Formal),2021.2.3,Win32,60.60606061,,,i,1,0.8498,0,18,18,27,1,傲慢,i,,,,,,,,,,,,,,,,,,,,,,,,,,,,,,,,,,,,,,,,,,,,,,,,,,,,,
,,,,,,,,,,,,,,1,001,2025-01-25_19h35.04.761,IAT(Formal),2021.2.3,Win32,60.60606061,,,,0,,0,19,19,22,1,愚蠢,i,,,,,,,,,,,,,,,,,,,,,,,,,,,,,,,,,,,,,,,,,,,,,,,,,,,,,
,,,,,,,,,,,,,,1,001,2025-01-25_19h35.04.761,IAT(Formal),2021.2.3,Win32,60.60606061,,,i,1,0.7566,0,20,20,25,1,消极,i,,,,,,,,,,,,,,,,,,,,,,,,,,,,,,,,,,,,,,,,,,,,,,,,,,,,,
,,,,,,,,,,,,,,1,001,2025-01-25_19h35.04.761,IAT(Formal),2021.2.3,Win32,60.60606061,,,i,1,0.5297,0,21,21,32,1,凶狠,i,,,,,,,,,,,,,,,,,,,,,,,,,,,,,,,,,,,,,,,,,,,,,,,,,,,,,
,,,,,,,,,,,,,,1,001,2025-01-25_19h35.04.761,IAT(Formal),2021.2.3,Win32,60.60606061,,,i,1,0.6348,0,22,22,30,1,执拗,i,,,,,,,,,,,,,,,,,,,,,,,,,,,,,,,,,,,,,,,,,,,,,,,,,,,,,
,,,,,,,,,,,,,,1,001,2025-01-25_19h35.04.761,IAT(Formal),2021.2.3,Win32,60.60606061,,,e,1,0.9298,0,23,23,7,1,勇敢,e,,,,,,,,,,,,,,,,,,,,,,,,,,,,,,,,,,,,,,,,,,,,,,,,,,,,,
,,,,,,,,,,,,,,1,001,2025-01-25_19h35.04.761,IAT(Formal),2021.2.3,Win32,60.60606061,,,i,1,0.6425,0,24,24,34,1,暴躁,i,,,,,,,,,,,,,,,,,,,,,,,,,,,,,,,,,,,,,,,,,,,,,,,,,,,,,
,,,,,,,,,,,,,,1,001,2025-01-25_19h35.04.761,IAT(Formal),2021.2.3,Win32,60.60606061,,,i,1,0.6014,0,25,25,26,1,自卑,i,,,,,,,,,,,,,,,,,,,,,,,,,,,,,,,,,,,,,,,,,,,,,,,,,,,,,
,,,,,,,,,,,,,,1,001,2025-01-25_19h35.04.761,IAT(Formal),2021.2.3,Win32,60.60606061,,,e,1,0.5174,0,26,26,3,1,杰出,e,,,,,,,,,,,,,,,,,,,,,,,,,,,,,,,,,,,,,,,,,,,,,,,,,,,,,
,,,,,,,,,,,,,,1,001,2025-01-25_19h35.04.761,IAT(Formal),2021.2.3,Win32,60.60606061,,,e,1,0.6956,0,27,27,16,1,冷静,e,,,,,,,,,,,,,,,,,,,,,,,,,,,,,,,,,,,,,,,,,,,,,,,,,,,,,
,,,,,,,,,,,,,,1,001,2025-01-25_19h35.04.761,IAT(Formal),2021.2.3,Win32,60.60606061,,,e,1,0.5004,0,28,28,8,1,勤奋,e,,,,,,,,,,,,,,,,,,,,,,,,,,,,,,,,,,,,,,,,,,,,,,,,,,,,,
,,,,,,,,,,,,,,1,001,2025-01-25_19h35.04.761,IAT(Formal),2021.2.3,Win32,60.60606061,,,e,1,0.5626,0,29,29,11,1,稳重,e,,,,,,,,,,,,,,,,,,,,,,,,,,,,,,,,,,,,,,,,,,,,,,,,,,,,,
,,,,,,,,,,,,,,1,001,2025-01-25_19h35.04.761,IAT(Formal),2021.2.3,Win32,60.60606061,,,e,1,0.4843,0,30,30,0,1,优秀,e,,,,,,,,,,,,,,,,,,,,,,,,,,,,,,,,,,,,,,,,,,,,,,,,,,,,,
,,,,,,,,,,,,,,1,001,2025-01-25_19h35.04.761,IAT(Formal),2021.2.3,Win32,60.60606061,,,i,1,0.644,0,31,31,35,1,猖狂,i,,,,,,,,,,,,,,,,,,,,,,,,,,,,,,,,,,,,,,,,,,,,,,,,,,,,,
,,,,,,,,,,,,,,1,001,2025-01-25_19h35.04.761,IAT(Formal),2021.2.3,Win32,60.60606061,,,e,1,0.6283,0,32,32,15,1,细腻,e,,,,,,,,,,,,,,,,,,,,,,,,,,,,,,,,,,,,,,,,,,,,,,,,,,,,,
,,,,,,,,,,,,,,1,001,2025-01-25_19h35.04.761,IAT(Formal),2021.2.3,Win32,60.60606061,,,i,1,0.8331,0,33,33,29,1,冒失,i,,,,,,,,,,,,,,,,,,,,,,,,,,,,,,,,,,,,,,,,,,,,,,,,,,,,,
,,,,,,,,,,,,,,1,001,2025-01-25_19h35.04.761,IAT(Formal),2021.2.3,Win32,60.60606061,,,e,1,0.566,0,34,34,5,1,诚实,e,,,,,,,,,,,,,,,,,,,,,,,,,,,,,,,,,,,,,,,,,,,,,,,,,,,,,
,,,,,,,,,,,,,,1,001,2025-01-25_19h35.04.761,IAT(Formal),2021.2.3,Win32,60.60606061,,,i,1,0.7164,0,35,35,31,1,散漫,i,,,,,,,,,,,,,,,,,,,,,,,,,,,,,,,,,,,,,,,,,,,,,,,,,,,,,
,,,,,,,,,,,,,,1,001,2025-01-25_19h35.04.761,IAT(Formal),2021.2.3,Win32,60.60606061,,,i,1,0.684,0,36,36,23,1,刻薄,i,,,,,,,,,,,,,,,,,,,,,,,,,,,,,,,,,,,,,,,,,,,,,,,,,,,,,
,,,,,,,,,,,,,,1,001,2025-01-25_19h35.04.761,IAT(Formal),2021.2.3,Win32,60.60606061,,,e,1,0.8601,0,37,37,4,1,乐观,e,,,,,,,,,,,,,,,,,,,,,,,,,,,,,,,,,,,,,,,,,,,,,,,,,,,,,
,,,,,,,,,,,,,,1,001,2025-01-25_19h35.04.761,IAT(Formal),2021.2.3,Win32,60.60606061,,,i,1,0.5559,0,38,38,39,1,下贱,i,,,,,,,,,,,,,,,,,,,,,,,,,,,,,,,,,,,,,,,,,,,,,,,,,,,,,
,,,,,,,,,,,,,,1,001,2025-01-25_19h35.04.761,IAT(Formal),2021.2.3,Win32,60.60606061,,,e,1,0.5551,0,39,39,10,1,认真,e,,,,,,,,,,,,,,,,,,,,,,,,,,,,,,,,,,,,,,,,,,,,,,,,,,,,,
,,,,,,,,,,,,,,1,001,2025-01-25_19h35.04.761,IAT(Formal),2021.2.3,Win32,60.60606061,,,,,,,,,,,,,space,7.4049,i,1,0.8363,0,0,0,33,1,刻薄,i,,,,,,,,,,,,,,,,,,,,,,,,,,,,,,,,,,,,,,,,,
,,,,,,,,,,,,,,1,001,2025-01-25_19h35.04.761,IAT(Formal),2021.2.3,Win32,60.60606061,,,,,,,,,,,,,,,i,1,0.4302,0,1,1,5,1,他,i,,,,,,,,,,,,,,,,,,,,,,,,,,,,,,,,,,,,,,,,,
,,,,,,,,,,,,,,1,001,2025-01-25_19h35.04.761,IAT(Formal),2021.2.3,Win32,60.60606061,,,,,,,,,,,,,,,i,1,0.491,0,2,2,42,1,凶狠,i,,,,,,,,,,,,,,,,,,,,,,,,,,,,,,,,,,,,,,,,,
,,,,,,,,,,,,,,1,001,2025-01-25_19h35.04.761,IAT(Formal),2021.2.3,Win32,60.60606061,,,,,,,,,,,,,,,e,1,0.4975,0,3,3,10,1,优秀,e,,,,,,,,,,,,,,,,,,,,,,,,,,,,,,,,,,,,,,,,,
,,,,,,,,,,,,,,1,001,2025-01-25_19h35.04.761,IAT(Formal),2021.2.3,Win32,60.60606061,,,,,,,,,,,,,,,i,1,0.6569,0,4,4,32,1,愚蠢,i,,,,,,,,,,,,,,,,,,,,,,,,,,,,,,,,,,,,,,,,,
,,,,,,,,,,,,,,1,001,2025-01-25_19h35.04.761,IAT(Formal),2021.2.3,Win32,60.60606061,,,,,,,,,,,,,,,,0,,0,5,5,57,1,他的,i,,,,,,,,,,,,,,,,,,,,,,,,,,,,,,,,,,,,,,,,,
,,,,,,,,,,,,,,1,001,2025-01-25_19h35.04.761,IAT(Formal),2021.2.3,Win32,60.60606061,,,,,,,,,,,,,,,i,1,0.5617,0,6,6,58,1,他人,i,,,,,,,,,,,,,,,,,,,,,,,,,,,,,,,,,,,,,,,,,
,,,,,,,,,,,,,,1,001,2025-01-25_19h35.04.761,IAT(Formal),2021.2.3,Win32,60.60606061,,,,,,,,,,,,,,,i,1,0.6619,0,7,7,37,1,傲慢,i,,,,,,,,,,,,,,,,,,,,,,,,,,,,,,,,,,,,,,,,,
,,,,,,,,,,,,,,1,001,2025-01-25_19h35.04.761,IAT(Formal),2021.2.3,Win32,60.60606061,,,,,,,,,,,,,,,i,1,0.4211,0,8,8,76,1,他们,i,,,,,,,,,,,,,,,,,,,,,,,,,,,,,,,,,,,,,,,,,
,,,,,,,,,,,,,,1,001,2025-01-25_19h35.04.761,IAT(Formal),2021.2.3,Win32,60.60606061,,,,,,,,,,,,,,,i,1,0.4734,0,9,9,44,1,暴躁,i,,,,,,,,,,,,,,,,,,,,,,,,,,,,,,,,,,,,,,,,,
,,,,,,,,,,,,,,1,001,2025-01-25_19h35.04.761,IAT(Formal),2021.2.3,Win32,60.60606061,,,,,,,,,,,,,,,e,1,0.518,0,10,10,24,1,朴实,e,,,,,,,,,,,,,,,,,,,,,,,,,,,,,,,,,,,,,,,,,
,,,,,,,,,,,,,,1,001,2025-01-25_19h35.04.761,IAT(Formal),2021.2.3,Win32,60.60606061,,,,,,,,,,,,,,,i,1,0.4406,0,11,11,55,1,他,i,,,,,,,,,,,,,,,,,,,,,,,,,,,,,,,,,,,,,,,,,
,,,,,,,,,,,,,,1,001,2025-01-25_19h35.04.761,IAT(Formal),2021.2.3,Win32,60.60606061,,,,,,,,,,,,,,,i,1,0.515,0,12,12,48,1,轻率,i,,,,,,,,,,,,,,,,,,,,,,,,,,,,,,,,,,,,,,,,,
,,,,,,,,,,,,,,1,001,2025-01-25_19h35.04.761,IAT(Formal),2021.2.3,Win32,60.60606061,,,,,,,,,,,,,,,e,1,0.4834,0,13,13,27,1,热情,e,,,,,,,,,,,,,,,,,,,,,,,,,,,,,,,,,,,,,,,,,
,,,,,,,,,,,,,,1,001,2025-01-25_19h35.04.761,IAT(Formal),2021.2.3,Win32,60.60606061,,,,,,,,,,,,,,,e,1,0.4423,0,14,14,63,1,自己,e,,,,,,,,,,,,,,,,,,,,,,,,,,,,,,,,,,,,,,,,,
,,,,,,,,,,,,,,1,001,2025-01-25_19h35.04.761,IAT(Formal),2021.2.3,Win32,60.60606061,,,,,,,,,,,,,,,e,1,0.4763,0,15,15,16,1,正直,e,,,,,,,,,,,,,,,,,,,,,,,,,,,,,,,,,,,,,,,,,
,,,,,,,,,,,,,,1,001,2025-01-25_19h35.04.761,IAT(Formal),2021.2.3,Win32,60.60606061,,,,,,,,,,,,,,,e,1,0.4009,0,16,16,25,1,细腻,e,,,,,,,,,,,,,,,,,,,,,,,,,,,,,,,,,,,,,,,,,
,,,,,,,,,,,,,,1,001,2025-01-25_19h35.04.761,IAT(Formal),2021.2.3,Win32,60.60606061,,,,,,,,,,,,,,,e,1,0.3981,0,17,17,15,1,诚实,e,,,,,,,,,,,,,,,,,,,,,,,,,,,,,,,,,,,,,,,,,
,,,,,,,,,,,,,,1,001,2025-01-25_19h35.04.761,IAT(Formal),2021.2.3,Win32,60.60606061,,,,,,,,,,,,,,,e,1,0.3616,0,18,18,29,1,诚恳,e,,,,,,,,,,,,,,,,,,,,,,,,,,,,,,,,,,,,,,,,,
,,,,,,,,,,,,,,1,001,2025-01-25_19h35.04.761,IAT(Formal),2021.2.3,Win32,60.60606061,,,,,,,,,,,,,,,i,1,0.5147,0,19,19,69,1,其他,i,,,,,,,,,,,,,,,,,,,,,,,,,,,,,,,,,,,,,,,,,
,,,,,,,,,,,,,,1,001,2025-01-25_19h35.04.761,IAT(Formal),2021.2.3,Win32,60.60606061,,,,,,,,,,,,,,,i,1,0.4112,0,20,20,77,1,他的,i,,,,,,,,,,,,,,,,,,,,,,,,,,,,,,,,,,,,,,,,,
,,,,,,,,,,,,,,1,001,2025-01-25_19h35.04.761,IAT(Formal),2021.2.3,Win32,60.60606061,,,,,,,,,,,,,,,e,1,0.5181,0,21,21,17,1,勇敢,e,,,,,,,,,,,,,,,,,,,,,,,,,,,,,,,,,,,,,,,,,
,,,,,,,,,,,,,,1,001,2025-01-25_19h35.04.761,IAT(Formal),2021.2.3,Win32,60.60606061,,,,,,,,,,,,,,,i,1,0.45,0,22,22,65,1,他,i,,,,,,,,,,,,,,,,,,,,,,,,,,,,,,,,,,,,,,,,,
,,,,,,,,,,,,,,1,001,2025-01-25_19h35.04.761,IAT(Formal),2021.2.3,Win32,60.60606061,,,,,,,,,,,,,,,i,1,0.5277,0,23,23,49,1,下贱,i,,,,,,,,,,,,,,,,,,,,,,,,,,,,,,,,,,,,,,,,,
,,,,,,,,,,,,,,1,001,2025-01-25_19h35.04.761,IAT(Formal),2021.2.3,Win32,60.60606061,,,,,,,,,,,,,,,e,1,0.5648,0,24,24,53,1,自己,e,,,,,,,,,,,,,,,,,,,,,,,,,,,,,,,,,,,,,,,,,
,,,,,,,,,,,,,,1,001,2025-01-25_19h35.04.761,IAT(Formal),2021.2.3,Win32,60.60606061,,,,,,,,,,,,,,,i,1,0.6859,0,25,25,46,1,野蛮,i,,,,,,,,,,,,,,,,,,,,,,,,,,,,,,,,,,,,,,,,,
,,,,,,,,,,,,,,1,001,2025-01-25_19h35.04.761,IAT(Formal),2021.2.3,Win32,60.60606061,,,,,,,,,,,,,,,e,1,0.5576,0,26,26,64,1,俺,e,,,,,,,,,,,,,,,,,,,,,,,,,,,,,,,,,,,,,,,,,
,,,,,,,,,,,,,,1,001,2025-01-25_19h35.04.761,IAT(Formal),2021.2.3,Win32,60.60606061,,,,,,,,,,,,,,,e,1,0.703,0,27,27,11,1,崇高,e,,,,,,,,,,,,,,,,,,,,,,,,,,,,,,,,,,,,,,,,,
,,,,,,,,,,,,,,1,001,2025-01-25_19h35.04.761,IAT(Formal),2021.2.3,Win32,60.60606061,,,,,,,,,,,,,,,e,1,0.4189,0,28,28,72,1,我们,e,,,,,,,,,,,,,,,,,,,,,,,,,,,,,,,,,,,,,,,,,
,,,,,,,,,,,,,,1,001,2025-01-25_19h35.04.761,IAT(Formal),2021.2.3,Win32,60.60606061,,,,,,,,,,,,,,,e,1,0.4062,0,29,29,74,1,俺,e,,,,,,,,,,,,,,,,,,,,,,,,,,,,,,,,,,,,,,,,,
,,,,,,,,,,,,,,1,001,2025-01-25_19h35.04.761,IAT(Formal),2021.2.3,Win32,60.60606061,,,,,,,,,,,,,,,e,0,0.3997,0,30,30,79,1,其他,i,,,,,,,,,,,,,,,,,,,,,,,,,,,,,,,,,,,,,,,,,
,,,,,,,,,,,,,,1,001,2025-01-25_19h35.04.761,IAT(Formal),2021.2.3,Win32,60.60606061,,,,,,,,,,,,,,,i,1,0.6633,0,31,31,6,1,他们,i,,,,,,,,,,,,,,,,,,,,,,,,,,,,,,,,,,,,,,,,,
,,,,,,,,,,,,,,1,001,2025-01-25_19h35.04.761,IAT(Formal),2021.2.3,Win32,60.60606061,,,,,,,,,,,,,,,i,1,0.7177,0,32,32,41,1,散漫,i,,,,,,,,,,,,,,,,,,,,,,,,,,,,,,,,,,,,,,,,,
,,,,,,,,,,,,,,1,001,2025-01-25_19h35.04.761,IAT(Formal),2021.2.3,Win32,60.60606061,,,,,,,,,,,,,,,e,1,0.5182,0,33,33,21,1,稳重,e,,,,,,,,,,,,,,,,,,,,,,,,,,,,,,,,,,,,,,,,,
,,,,,,,,,,,,,,1,001,2025-01-25_19h35.04.761,IAT(Formal),2021.2.3,Win32,60.60606061,,,,,,,,,,,,,,,i,1,0.4712,0,34,34,35,1,消极,i,,,,,,,,,,,,,,,,,,,,,,,,,,,,,,,,,,,,,,,,,
,,,,,,,,,,,,,,1,001,2025-01-25_19h35.04.761,IAT(Formal),2021.2.3,Win32,60.60606061,,,,,,,,,,,,,,,e,1,0.5375,0,35,35,28,1,活泼,e,,,,,,,,,,,,,,,,,,,,,,,,,,,,,,,,,,,,,,,,,
,,,,,,,,,,,,,,1,001,2025-01-25_19h35.04.761,IAT(Formal),2021.2.3,Win32,60.60606061,,,,,,,,,,,,,,,e,1,0.5032,0,36,36,54,1,俺,e,,,,,,,,,,,,,,,,,,,,,,,,,,,,,,,,,,,,,,,,,
,,,,,,,,,,,,,,1,001,2025-01-25_19h35.04.761,IAT(Formal),2021.2.3,Win32,60.60606061,,,,,,,,,,,,,,,e,1,0.5652,0,37,37,0,1,我,e,,,,,,,,,,,,,,,,,,,,,,,,,,,,,,,,,,,,,,,,,
,,,,,,,,,,,,,,1,001,2025-01-25_19h35.04.761,IAT(Formal),2021.2.3,Win32,60.60606061,,,,,,,,,,,,,,,e,1,0.4331,0,38,38,71,1,我的,e,,,,,,,,,,,,,,,,,,,,,,,,,,,,,,,,,,,,,,,,,
,,,,,,,,,,,,,,1,001,2025-01-25_19h35.04.761,IAT(Formal),2021.2.3,Win32,60.60606061,,,,,,,,,,,,,,,e,1,0.5714,0,39,39,12,1,聪明,e,,,,,,,,,,,,,,,,,,,,,,,,,,,,,,,,,,,,,,,,,
,,,,,,,,,,,,,,1,001,2025-01-25_19h35.04.761,IAT(Formal),2021.2.3,Win32,60.60606061,,,,,,,,,,,,,,,e,1,0.5485,0,40,40,2,1,我们,e,,,,,,,,,,,,,,,,,,,,,,,,,,,,,,,,,,,,,,,,,
,,,,,,,,,,,,,,1,001,2025-01-25_19h35.04.761,IAT(Formal),2021.2.3,Win32,60.60606061,,,,,,,,,,,,,,,e,1,0.4496,0,41,41,61,1,我的,e,,,,,,,,,,,,,,,,,,,,,,,,,,,,,,,,,,,,,,,,,
,,,,,,,,,,,,,,1,001,2025-01-25_19h35.04.761,IAT(Formal),2021.2.3,Win32,60.60606061,,,,,,,,,,,,,,,e,1,0.5931,0,42,42,3,1,自己,e,,,,,,,,,,,,,,,,,,,,,,,,,,,,,,,,,,,,,,,,,
,,,,,,,,,,,,,,1,001,2025-01-25_19h35.04.761,IAT(Formal),2021.2.3,Win32,60.60606061,,,,,,,,,,,,,,,i,1,0.7991,0,43,43,47,1,固执,i,,,,,,,,,,,,,,,,,,,,,,,,,,,,,,,,,,,,,,,,,
,,,,,,,,,,,,,,1,001,2025-01-25_19h35.04.761,IAT(Formal),2021.2.3,Win32,60.60606061,,,,,,,,,,,,,,,e,1,0.6015,0,44,44,20,1,认真,e,,,,,,,,,,,,,,,,,,,,,,,,,,,,,,,,,,,,,,,,,
,,,,,,,,,,,,,,1,001,2025-01-25_19h35.04.761,IAT(Formal),2021.2.3,Win32,60.60606061,,,,,,,,,,,,,,,e,1,1.0144,0,45,45,26,1,冷静,e,,,,,,,,,,,,,,,,,,,,,,,,,,,,,,,,,,,,,,,,,
,,,,,,,,,,,,,,1,001,2025-01-25_19h35.04.761,IAT(Formal),2021.2.3,Win32,60.60606061,,,,,,,,,,,,,,,i,1,0.6823,0,46,46,67,1,他的,i,,,,,,,,,,,,,,,,,,,,,,,,,,,,,,,,,,,,,,,,,
,,,,,,,,,,,,,,1,001,2025-01-25_19h35.04.761,IAT(Formal),2021.2.3,Win32,60.60606061,,,,,,,,,,,,,,,e,1,0.5192,0,47,47,60,1,我,e,,,,,,,,,,,,,,,,,,,,,,,,,,,,,,,,,,,,,,,,,
,,,,,,,,,,,,,,1,001,2025-01-25_19h35.04.761,IAT(Formal),2021.2.3,Win32,60.60606061,,,,,,,,,,,,,,,i,1,0.5543,0,48,48,45,1,猖狂,i,,,,,,,,,,,,,,,,,,,,,,,,,,,,,,,,,,,,,,,,,
,,,,,,,,,,,,,,1,001,2025-01-25_19h35.04.761,IAT(Formal),2021.2.3,Win32,60.60606061,,,,,,,,,,,,,,,i,1,0.6879,0,49,49,39,1,冒失,i,,,,,,,,,,,,,,,,,,,,,,,,,,,,,,,,,,,,,,,,,
,,,,,,,,,,,,,,1,001,2025-01-25_19h35.04.761,IAT(Formal),2021.2.3,Win32,60.60606061,,,,,,,,,,,,,,,i,1,0.6092,0,50,50,68,1,他人,i,,,,,,,,,,,,,,,,,,,,,,,,,,,,,,,,,,,,,,,,,
,,,,,,,,,,,,,,1,001,2025-01-25_19h35.04.761,IAT(Formal),2021.2.3,Win32,60.60606061,,,,,,,,,,,,,,,i,1,0.4164,0,51,51,56,1,他们,i,,,,,,,,,,,,,,,,,,,,,,,,,,,,,,,,,,,,,,,,,
,,,,,,,,,,,,,,1,001,2025-01-25_19h35.04.761,IAT(Formal),2021.2.3,Win32,60.60606061,,,,,,,,,,,,,,,e,1,0.7649,0,52,52,18,1,勤奋,e,,,,,,,,,,,,,,,,,,,,,,,,,,,,,,,,,,,,,,,,,
,,,,,,,,,,,,,,1,001,2025-01-25_19h35.04.761,IAT(Formal),2021.2.3,Win32,60.60606061,,,,,,,,,,,,,,,i,1,0.6531,0,53,53,75,1,他,i,,,,,,,,,,,,,,,,,,,,,,,,,,,,,,,,,,,,,,,,,
,,,,,,,,,,,,,,1,001,2025-01-25_19h35.04.761,IAT(Formal),2021.2.3,Win32,60.60606061,,,,,,,,,,,,,,,i,1,0.7402,0,54,54,34,1,悲观,i,,,,,,,,,,,,,,,,,,,,,,,,,,,,,,,,,,,,,,,,,
,,,,,,,,,,,,,,1,001,2025-01-25_19h35.04.761,IAT(Formal),2021.2.3,Win32,60.60606061,,,,,,,,,,,,,,,e,1,0.8679,0,55,55,14,1,乐观,e,,,,,,,,,,,,,,,,,,,,,,,,,,,,,,,,,,,,,,,,,
,,,,,,,,,,,,,,1,001,2025-01-25_19h35.04.761,IAT(Formal),2021.2.3,Win32,60.60606061,,,,,,,,,,,,,,,i,1,0.6122,0,56,56,59,1,其他,i,,,,,,,,,,,,,,,,,,,,,,,,,,,,,,,,,,,,,,,,,
,,,,,,,,,,,,,,1,001,2025-01-25_19h35.04.761,IAT(Formal),2021.2.3,Win32,60.60606061,,,,,,,,,,,,,,,i,1,0.7289,0,57,57,8,1,他人,i,,,,,,,,,,,,,,,,,,,,,,,,,,,,,,,,,,,,,,,,,
,,,,,,,,,,,,,,1,001,2025-01-25_19h35.04.761,IAT(Formal),2021.2.3,Win32,60.60606061,,,,,,,,,,,,,,,e,1,0.6436,0,58,58,19,1,机智,e,,,,,,,,,,,,,,,,,,,,,,,,,,,,,,,,,,,,,,,,,
,,,,,,,,,,,,,,1,001,2025-01-25_19h35.04.761,IAT(Formal),2021.2.3,Win32,60.60606061,,,,,,,,,,,,,,,e,1,0.7563,0,59,59,23,1,公正,e,,,,,,,,,,,,,,,,,,,,,,,,,,,,,,,,,,,,,,,,,
,,,,,,,,,,,,,,1,001,2025-01-25_19h35.04.761,IAT(Formal),2021.2.3,Win32,60.60606061,,,,,,,,,,,,,,,i,0,0.5933,0,60,60,22,1,无私,e,,,,,,,,,,,,,,,,,,,,,,,,,,,,,,,,,,,,,,,,,
,,,,,,,,,,,,,,1,001,2025-01-25_19h35.04.761,IAT(Formal),2021.2.3,Win32,60.60606061,,,,,,,,,,,,,,,e,1,1.3206,0,61,61,52,1,我们,e,,,,,,,,,,,,,,,,,,,,,,,,,,,,,,,,,,,,,,,,,
,,,,,,,,,,,,,,1,001,2025-01-25_19h35.04.761,IAT(Formal),2021.2.3,Win32,60.60606061,,,,,,,,,,,,,,,i,1,0.616,0,62,62,36,1,自卑,i,,,,,,,,,,,,,,,,,,,,,,,,,,,,,,,,,,,,,,,,,
,,,,,,,,,,,,,,1,001,2025-01-25_19h35.04.761,IAT(Formal),2021.2.3,Win32,60.60606061,,,,,,,,,,,,,,,e,1,0.5471,0,63,63,50,1,我,e,,,,,,,,,,,,,,,,,,,,,,,,,,,,,,,,,,,,,,,,,
,,,,,,,,,,,,,,1,001,2025-01-25_19h35.04.761,IAT(Formal),2021.2.3,Win32,60.60606061,,,,,,,,,,,,,,,e,1,0.481,0,64,64,62,1,我们,e,,,,,,,,,,,,,,,,,,,,,,,,,,,,,,,,,,,,,,,,,
,,,,,,,,,,,,,,1,001,2025-01-25_19h35.04.761,IAT(Formal),2021.2.3,Win32,60.60606061,,,,,,,,,,,,,,,e,1,0.4922,0,65,65,51,1,我的,e,,,,,,,,,,,,,,,,,,,,,,,,,,,,,,,,,,,,,,,,,
,,,,,,,,,,,,,,1,001,2025-01-25_19h35.04.761,IAT(Formal),2021.2.3,Win32,60.60606061,,,,,,,,,,,,,,,e,1,0.4292,0,66,66,70,1,我,e,,,,,,,,,,,,,,,,,,,,,,,,,,,,,,,,,,,,,,,,,
,,,,,,,,,,,,,,1,001,2025-01-25_19h35.04.761,IAT(Formal),2021.2.3,Win32,60.60606061,,,,,,,,,,,,,,,e,1,0.5729,0,67,67,4,1,俺,e,,,,,,,,,,,,,,,,,,,,,,,,,,,,,,,,,,,,,,,,,
,,,,,,,,,,,,,,1,001,2025-01-25_19h35.04.761,IAT(Formal),2021.2.3,Win32,60.60606061,,,,,,,,,,,,,,,i,1,0.9204,0,68,68,30,1,卑鄙,i,,,,,,,,,,,,,,,,,,,,,,,,,,,,,,,,,,,,,,,,,
,,,,,,,,,,,,,,1,001,2025-01-25_19h35.04.761,IAT(Formal),2021.2.3,Win32,60.60606061,,,,,,,,,,,,,,,i,1,0.459,0,69,69,9,1,其他,i,,,,,,,,,,,,,,,,,,,,,,,,,,,,,,,,,,,,,,,,,
,,,,,,,,,,,,,,1,001,2025-01-25_19h35.04.761,IAT(Formal),2021.2.3,Win32,60.60606061,,,,,,,,,,,,,,,i,1,0.3784,0,70,70,66,1,他们,i,,,,,,,,,,,,,,,,,,,,,,,,,,,,,,,,,,,,,,,,,
,,,,,,,,,,,,,,1,001,2025-01-25_19h35.04.761,IAT(Formal),2021.2.3,Win32,60.60606061,,,,,,,,,,,,,,,i,1,0.8662,0,71,71,43,1,自私,i,,,,,,,,,,,,,,,,,,,,,,,,,,,,,,,,,,,,,,,,,
,,,,,,,,,,,,,,1,001,2025-01-25_19h35.04.761,IAT(Formal),2021.2.3,Win32,60.60606061,,,,,,,,,,,,,,,i,1,0.5629,0,72,72,40,1,执拗,i,,,,,,,,,,,,,,,,,,,,,,,,,,,,,,,,,,,,,,,,,
,,,,,,,,,,,,,,1,001,2025-01-25_19h35.04.761,IAT(Formal),2021.2.3,Win32,60.60606061,,,,,,,,,,,,,,,i,1,0.4726,0,73,73,7,1,他的,i,,,,,,,,,,,,,,,,,,,,,,,,,,,,,,,,,,,,,,,,,
,,,,,,,,,,,,,,1,001,2025-01-25_19h35.04.761,IAT(Formal),2021.2.3,Win32,60.60606061,,,,,,,,,,,,,,,i,1,0.4078,0,74,74,78,1,他人,i,,,,,,,,,,,,,,,,,,,,,,,,,,,,,,,,,,,,,,,,,
,,,,,,,,,,,,,,1,001,2025-01-25_19h35.04.761,IAT(Formal),2021.2.3,Win32,60.60606061,,,,,,,,,,,,,,,i,1,0.5662,0,75,75,38,1,鲁莽,i,,,,,,,,,,,,,,,,,,,,,,,,,,,,,,,,,,,,,,,,,
,,,,,,,,,,,,,,1,001,2025-01-25_19h35.04.761,IAT(Formal),2021.2.3,Win32,60.60606061,,,,,,,,,,,,,,,e,1,0.6905,0,76,76,13,1,杰出,e,,,,,,,,,,,,,,,,,,,,,,,,,,,,,,,,,,,,,,,,,
,,,,,,,,,,,,,,1,001,2025-01-25_19h35.04.761,IAT(Formal),2021.2.3,Win32,60.60606061,,,,,,,,,,,,,,,e,1,0.4891,0,77,77,1,1,我的,e,,,,,,,,,,,,,,,,,,,,,,,,,,,,,,,,,,,,,,,,,
,,,,,,,,,,,,,,1,001,2025-01-25_19h35.04.761,IAT(Formal),2021.2.3,Win32,60.60606061,,,,,,,,,,,,,,,i,1,0.6292,0,78,78,31,1,虚伪,i,,,,,,,,,,,,,,,,,,,,,,,,,,,,,,,,,,,,,,,,,
,,,,,,,,,,,,,,1,001,2025-01-25_19h35.04.761,IAT(Formal),2021.2.3,Win32,60.60606061,,,,,,,,,,,,,,,e,1,0.807,0,79,79,73,1,自己,e,,,,,,,,,,,,,,,,,,,,,,,,,,,,,,,,,,,,,,,,,
,,,,,,,,,,,,,,1,001,2025-01-25_19h35.04.761,IAT(Formal),2021.2.3,Win32,60.60606061,,,,,,,,,,,,,,,e,1,0.8998,,,,,,勤奋,e,space,16.7443,0,0,0,18,1,,,,,,,,,,,,,,,,,,,,,,,,,,,,,,,,,,
,,,,,,,,,,,,,,1,001,2025-01-25_19h35.04.761,IAT(Formal),2021.2.3,Win32,60.60606061,,,,,,,,,,,,,,,i,1,0.5495,,,,,,自私,i,,,0,1,1,43,1,,,,,,,,,,,,,,,,,,,,,,,,,,,,,,,,,,
,,,,,,,,,,,,,,1,001,2025-01-25_19h35.04.761,IAT(Formal),2021.2.3,Win32,60.60606061,,,,,,,,,,,,,,,i,0,0.6912,,,,,,无私,e,,,0,2,2,22,1,,,,,,,,,,,,,,,,,,,,,,,,,,,,,,,,,,
,,,,,,,,,,,,,,1,001,2025-01-25_19h35.04.761,IAT(Formal),2021.2.3,Win32,60.60606061,,,,,,,,,,,,,,,e,1,0.5068,,,,,,正直,e,,,0,3,3,16,1,,,,,,,,,,,,,,,,,,,,,,,,,,,,,,,,,,
,,,,,,,,,,,,,,1,001,2025-01-25_19h35.04.761,IAT(Formal),2021.2.3,Win32,60.60606061,,,,,,,,,,,,,,,i,1,0.5729,,,,,,猖狂,i,,,0,4,4,45,1,,,,,,,,,,,,,,,,,,,,,,,,,,,,,,,,,,
,,,,,,,,,,,,,,1,001,2025-01-25_19h35.04.761,IAT(Formal),2021.2.3,Win32,60.60606061,,,,,,,,,,,,,,,i,1,0.6561,,,,,,刻薄,i,,,0,5,5,33,1,,,,,,,,,,,,,,,,,,,,,,,,,,,,,,,,,,
,,,,,,,,,,,,,,1,001,2025-01-25_19h35.04.761,IAT(Formal),2021.2.3,Win32,60.60606061,,,,,,,,,,,,,,,e,1,0.7612,,,,,,机智,e,,,0,6,6,19,1,,,,,,,,,,,,,,,,,,,,,,,,,,,,,,,,,,
,,,,,,,,,,,,,,1,001,2025-01-25_19h35.04.761,IAT(Formal),2021.2.3,Win32,60.60606061,,,,,,,,,,,,,,,e,1,0.5403,,,,,,俺,e,,,0,7,7,74,1,,,,,,,,,,,,,,,,,,,,,,,,,,,,,,,,,,
,,,,,,,,,,,,,,1,001,2025-01-25_19h35.04.761,IAT(Formal),2021.2.3,Win32,60.60606061,,,,,,,,,,,,,,,i,1,0.5174,,,,,,他的,i,,,0,8,8,77,1,,,,,,,,,,,,,,,,,,,,,,,,,,,,,,,,,,
,,,,,,,,,,,,,,1,001,2025-01-25_19h35.04.761,IAT(Formal),2021.2.3,Win32,60.60606061,,,,,,,,,,,,,,,e,1,0.5878,,,,,,优秀,e,,,0,9,9,10,1,,,,,,,,,,,,,,,,,,,,,,,,,,,,,,,,,,
,,,,,,,,,,,,,,1,001,2025-01-25_19h35.04.761,IAT(Formal),2021.2.3,Win32,60.60606061,,,,,,,,,,,,,,,e,1,0.7375,,,,,,冷静,e,,,0,10,10,26,1,,,,,,,,,,,,,,,,,,,,,,,,,,,,,,,,,,
,,,,,,,,,,,,,,1,001,2025-01-25_19h35.04.761,IAT(Formal),2021.2.3,Win32,60.60606061,,,,,,,,,,,,,,,i,1,0.9364,,,,,,暴躁,i,,,0,11,11,44,1,,,,,,,,,,,,,,,,,,,,,,,,,,,,,,,,,,
,,,,,,,,,,,,,,1,001,2025-01-25_19h35.04.761,IAT(Formal),2021.2.3,Win32,60.60606061,,,,,,,,,,,,,,,i,1,0.701,,,,,,他,i,,,0,12,12,75,1,,,,,,,,,,,,,,,,,,,,,,,,,,,,,,,,,,
,,,,,,,,,,,,,,1,001,2025-01-25_19h35.04.761,IAT(Formal),2021.2.3,Win32,60.60606061,,,,,,,,,,,,,,,i,1,0.7757,,,,,,他人,i,,,0,13,13,68,1,,,,,,,,,,,,,,,,,,,,,,,,,,,,,,,,,,
,,,,,,,,,,,,,,1,001,2025-01-25_19h35.04.761,IAT(Formal),2021.2.3,Win32,60.60606061,,,,,,,,,,,,,,,i,1,0.6384,,,,,,他,i,,,0,14,14,55,1,,,,,,,,,,,,,,,,,,,,,,,,,,,,,,,,,,
,,,,,,,,,,,,,,1,001,2025-01-25_19h35.04.761,IAT(Formal),2021.2.3,Win32,60.60606061,,,,,,,,,,,,,,,e,1,0.7102,,,,,,我们,e,,,0,15,15,52,1,,,,,,,,,,,,,,,,,,,,,,,,,,,,,,,,,,
,,,,,,,,,,,,,,1,001,2025-01-25_19h35.04.761,IAT(Formal),2021.2.3,Win32,60.60606061,,,,,,,,,,,,,,,e,1,0.5356,,,,,,乐观,e,,,0,16,16,14,1,,,,,,,,,,,,,,,,,,,,,,,,,,,,,,,,,,
,,,,,,,,,,,,,,1,001,2025-01-25_19h35.04.761,IAT(Formal),2021.2.3,Win32,60.60606061,,,,,,,,,,,,,,,e,1,0.609,,,,,,认真,e,,,0,17,17,20,1,,,,,,,,,,,,,,,,,,,,,,,,,,,,,,,,,,
,,,,,,,,,,,,,,1,001,2025-01-25_19h35.04.761,IAT(Formal),2021.2.3,Win32,60.60606061,,,,,,,,,,,,,,,i,1,0.701,,,,,,他的,i,,,0,18,18,57,1,,,,,,,,,,,,,,,,,,,,,,,,,,,,,,,,,,
,,,,,,,,,,,,,,1,001,2025-01-25_19h35.04.761,IAT(Formal),2021.2.3,Win32,60.60606061,,,,,,,,,,,,,,,e,1,0.7137,,,,,,活泼,e,,,0,19,19,28,1,,,,,,,,,,,,,,,,,,,,,,,,,,,,,,,,,,
,,,,,,,,,,,,,,1,001,2025-01-25_19h35.04.761,IAT(Formal),2021.2.3,Win32,60.60606061,,,,,,,,,,,,,,,i,1,0.5679,,,,,,他人,i,,,0,20,20,8,1,,,,,,,,,,,,,,,,,,,,,,,,,,,,,,,,,,
,,,,,,,,,,,,,,1,001,2025-01-25_19h35.04.761,IAT(Formal),2021.2.3,Win32,60.60606061,,,,,,,,,,,,,,,e,1,0.6592,,,,,,诚实,e,,,0,21,21,15,1,,,,,,,,,,,,,,,,,,,,,,,,,,,,,,,,,,
,,,,,,,,,,,,,,1,001,2025-01-25_19h35.04.761,IAT(Formal),2021.2.3,Win32,60.60606061,,,,,,,,,,,,,,,i,1,0.4967,,,,,,虚伪,i,,,0,22,22,31,1,,,,,,,,,,,,,,,,,,,,,,,,,,,,,,,,,,
,,,,,,,,,,,,,,1,001,2025-01-25_19h35.04.761,IAT(Formal),2021.2.3,Win32,60.60606061,,,,,,,,,,,,,,,i,1,0.6077,,,,,,他,i,,,0,23,23,65,1,,,,,,,,,,,,,,,,,,,,,,,,,,,,,,,,,,
,,,,,,,,,,,,,,1,001,2025-01-25_19h35.04.761,IAT(Formal),2021.2.3,Win32,60.60606061,,,,,,,,,,,,,,,e,1,0.5692,,,,,,杰出,e,,,0,24,24,13,1,,,,,,,,,,,,,,,,,,,,,,,,,,,,,,,,,,
,,,,,,,,,,,,,,1,001,2025-01-25_19h35.04.761,IAT(Formal),2021.2.3,Win32,60.60606061,,,,,,,,,,,,,,,e,1,0.5768,,,,,,我的,e,,,0,25,25,1,1,,,,,,,,,,,,,,,,,,,,,,,,,,,,,,,,,,
,,,,,,,,,,,,,,1,001,2025-01-25_19h35.04.761,IAT(Formal),2021.2.3,Win32,60.60606061,,,,,,,,,,,,,,,e,1,0.5603,,,,,,我的,e,,,0,26,26,61,1,,,,,,,,,,,,,,,,,,,,,,,,,,,,,,,,,,
,,,,,,,,,,,,,,1,001,2025-01-25_19h35.04.761,IAT(Formal),2021.2.3,Win32,60.60606061,,,,,,,,,,,,,,,e,1,0.8372,,,,,,自己,e,,,0,27,27,3,1,,,,,,,,,,,,,,,,,,,,,,,,,,,,,,,,,,
,,,,,,,,,,,,,,1,001,2025-01-25_19h35.04.761,IAT(Formal),2021.2.3,Win32,60.60606061,,,,,,,,,,,,,,,e,1,0.475,,,,,,聪明,e,,,0,28,28,12,1,,,,,,,,,,,,,,,,,,,,,,,,,,,,,,,,,,
,,,,,,,,,,,,,,1,001,2025-01-25_19h35.04.761,IAT(Formal),2021.2.3,Win32,60.60606061,,,,,,,,,,,,,,,e,1,0.5206,,,,,,细腻,e,,,0,29,29,25,1,,,,,,,,,,,,,,,,,,,,,,,,,,,,,,,,,,
,,,,,,,,,,,,,,1,001,2025-01-25_19h35.04.761,IAT(Formal),2021.2.3,Win32,60.60606061,,,,,,,,,,,,,,,e,1,0.5009,,,,,,我,e,,,0,30,30,50,1,,,,,,,,,,,,,,,,,,,,,,,,,,,,,,,,,,
,,,,,,,,,,,,,,1,001,2025-01-25_19h35.04.761,IAT(Formal),2021.2.3,Win32,60.60606061,,,,,,,,,,,,,,,i,1,0.634,,,,,,散漫,i,,,0,31,31,41,1,,,,,,,,,,,,,,,,,,,,,,,,,,,,,,,,,,
,,,,,,,,,,,,,,1,001,2025-01-25_19h35.04.761,IAT(Formal),2021.2.3,Win32,60.60606061,,,,,,,,,,,,,,,e,1,0.5716,,,,,,俺,e,,,0,32,32,64,1,,,,,,,,,,,,,,,,,,,,,,,,,,,,,,,,,,
,,,,,,,,,,,,,,1,001,2025-01-25_19h35.04.761,IAT(Formal),2021.2.3,Win32,60.60606061,,,,,,,,,,,,,,,e,1,0.6188,,,,,,我们,e,,,0,33,33,62,1,,,,,,,,,,,,,,,,,,,,,,,,,,,,,,,,,,
,,,,,,,,,,,,,,1,001,2025-01-25_19h35.04.761,IAT(Formal),2021.2.3,Win32,60.60606061,,,,,,,,,,,,,,,i,1,0.7894,,,,,,野蛮,i,,,0,34,34,46,1,,,,,,,,,,,,,,,,,,,,,,,,,,,,,,,,,,
,,,,,,,,,,,,,,1,001,2025-01-25_19h35.04.761,IAT(Formal),2021.2.3,Win32,60.60606061,,,,,,,,,,,,,,,i,1,0.6172,,,,,,其他,i,,,0,35,35,69,1,,,,,,,,,,,,,,,,,,,,,,,,,,,,,,,,,,
,,,,,,,,,,,,,,1,001,2025-01-25_19h35.04.761,IAT(Formal),2021.2.3,Win32,60.60606061,,,,,,,,,,,,,,,e,1,0.6719,,,,,,自己,e,,,0,36,36,73,1,,,,,,,,,,,,,,,,,,,,,,,,,,,,,,,,,,
,,,,,,,,,,,,,,1,001,2025-01-25_19h35.04.761,IAT(Formal),2021.2.3,Win32,60.60606061,,,,,,,,,,,,,,,e,1,0.6884,,,,,,诚恳,e,,,0,37,37,29,1,,,,,,,,,,,,,,,,,,,,,,,,,,,,,,,,,,
,,,,,,,,,,,,,,1,001,2025-01-25_19h35.04.761,IAT(Formal),2021.2.3,Win32,60.60606061,,,,,,,,,,,,,,,e,1,0.7174,,,,,,我,e,,,0,38,38,70,1,,,,,,,,,,,,,,,,,,,,,,,,,,,,,,,,,,
,,,,,,,,,,,,,,1,001,2025-01-25_19h35.04.761,IAT(Formal),2021.2.3,Win32,60.60606061,,,,,,,,,,,,,,,e,1,0.5167,,,,,,我们,e,,,0,39,39,72,1,,,,,,,,,,,,,,,,,,,,,,,,,,,,,,,,,,
,,,,,,,,,,,,,,1,001,2025-01-25_19h35.04.761,IAT(Formal),2021.2.3,Win32,60.60606061,,,,,,,,,,,,,,,e,0,0.8753,,,,,,执拗,i,,,0,40,40,40,1,,,,,,,,,,,,,,,,,,,,,,,,,,,,,,,,,,
,,,,,,,,,,,,,,1,001,2025-01-25_19h35.04.761,IAT(Formal),2021.2.3,Win32,60.60606061,,,,,,,,,,,,,,,e,1,0.5619,,,,,,俺,e,,,0,41,41,54,1,,,,,,,,,,,,,,,,,,,,,,,,,,,,,,,,,,
,,,,,,,,,,,,,,1,001,2025-01-25_19h35.04.761,IAT(Formal),2021.2.3,Win32,60.60606061,,,,,,,,,,,,,,,e,1,0.6218,,,,,,朴实,e,,,0,42,42,24,1,,,,,,,,,,,,,,,,,,,,,,,,,,,,,,,,,,
,,,,,,,,,,,,,,1,001,2025-01-25_19h35.04.761,IAT(Formal),2021.2.3,Win32,60.60606061,,,,,,,,,,,,,,,i,1,0.5169,,,,,,他们,i,,,0,43,43,76,1,,,,,,,,,,,,,,,,,,,,,,,,,,,,,,,,,,
,,,,,,,,,,,,,,1,001,2025-01-25_19h35.04.761,IAT(Formal),2021.2.3,Win32,60.60606061,,,,,,,,,,,,,,,i,1,0.5944,,,,,,自卑,i,,,0,44,44,36,1,,,,,,,,,,,,,,,,,,,,,,,,,,,,,,,,,,
,,,,,,,,,,,,,,1,001,2025-01-25_19h35.04.761,IAT(Formal),2021.2.3,Win32,60.60606061,,,,,,,,,,,,,,,i,1,1.0675,,,,,,凶狠,i,,,0,45,45,42,1,,,,,,,,,,,,,,,,,,,,,,,,,,,,,,,,,,
,,,,,,,,,,,,,,1,001,2025-01-25_19h35.04.761,IAT(Formal),2021.2.3,Win32,60.60606061,,,,,,,,,,,,,,,i,1,1.1007,,,,,,冒失,i,,,0,46,46,39,1,,,,,,,,,,,,,,,,,,,,,,,,,,,,,,,,,,
,,,,,,,,,,,,,,1,001,2025-01-25_19h35.04.761,IAT(Formal),2021.2.3,Win32,60.60606061,,,,,,,,,,,,,,,i,1,0.7007,,,,,,卑鄙,i,,,0,47,47,30,1,,,,,,,,,,,,,,,,,,,,,,,,,,,,,,,,,,
,,,,,,,,,,,,,,1,001,2025-01-25_19h35.04.761,IAT(Formal),2021.2.3,Win32,60.60606061,,,,,,,,,,,,,,,e,1,0.7821,,,,,,崇高,e,,,0,48,48,11,1,,,,,,,,,,,,,,,,,,,,,,,,,,,,,,,,,,
,,,,,,,,,,,,,,1,001,2025-01-25_19h35.04.761,IAT(Formal),2021.2.3,Win32,60.60606061,,,,,,,,,,,,,,,e,1,0.8171,,,,,,热情,e,,,0,49,49,27,1,,,,,,,,,,,,,,,,,,,,,,,,,,,,,,,,,,
,,,,,,,,,,,,,,1,001,2025-01-25_19h35.04.761,IAT(Formal),2021.2.3,Win32,60.60606061,,,,,,,,,,,,,,,i,1,0.6834,,,,,,他们,i,,,0,50,50,6,1,,,,,,,,,,,,,,,,,,,,,,,,,,,,,,,,,,
,,,,,,,,,,,,,,1,001,2025-01-25_19h35.04.761,IAT(Formal),2021.2.3,Win32,60.60606061,,,,,,,,,,,,,,,e,1,0.5368,,,,,,自己,e,,,0,51,51,53,1,,,,,,,,,,,,,,,,,,,,,,,,,,,,,,,,,,
,,,,,,,,,,,,,,1,001,2025-01-25_19h35.04.761,IAT(Formal),2021.2.3,Win32,60.60606061,,,,,,,,,,,,,,,i,1,0.8103,,,,,,他人,i,,,0,52,52,78,1,,,,,,,,,,,,,,,,,,,,,,,,,,,,,,,,,,
,,,,,,,,,,,,,,1,001,2025-01-25_19h35.04.761,IAT(Formal),2021.2.3,Win32,60.60606061,,,,,,,,,,,,,,,i,1,0.9659,,,,,,其他,i,,,0,53,53,59,1,,,,,,,,,,,,,,,,,,,,,,,,,,,,,,,,,,
,,,,,,,,,,,,,,1,001,2025-01-25_19h35.04.761,IAT(Formal),2021.2.3,Win32,60.60606061,,,,,,,,,,,,,,,e,1,0.5615,,,,,,勇敢,e,,,0,54,54,17,1,,,,,,,,,,,,,,,,,,,,,,,,,,,,,,,,,,
,,,,,,,,,,,,,,1,001,2025-01-25_19h35.04.761,IAT(Formal),2021.2.3,Win32,60.60606061,,,,,,,,,,,,,,,e,1,0.6838,,,,,,自己,e,,,0,55,55,63,1,,,,,,,,,,,,,,,,,,,,,,,,,,,,,,,,,,
,,,,,,,,,,,,,,1,001,2025-01-25_19h35.04.761,IAT(Formal),2021.2.3,Win32,60.60606061,,,,,,,,,,,,,,,i,1,0.5395,,,,,,其他,i,,,0,56,56,79,1,,,,,,,,,,,,,,,,,,,,,,,,,,,,,,,,,,
,,,,,,,,,,,,,,1,001,2025-01-25_19h35.04.761,IAT(Formal),2021.2.3,Win32,60.60606061,,,,,,,,,,,,,,,e,1,0.5339,,,,,,俺,e,,,0,57,57,4,1,,,,,,,,,,,,,,,,,,,,,,,,,,,,,,,,,,
,,,,,,,,,,,,,,1,001,2025-01-25_19h35.04.761,IAT(Formal),2021.2.3,Win32,60.60606061,,,,,,,,,,,,,,,i,1,0.7013,,,,,,他的,i,,,0,58,58,67,1,,,,,,,,,,,,,,,,,,,,,,,,,,,,,,,,,,
,,,,,,,,,,,,,,1,001,2025-01-25_19h35.04.761,IAT(Formal),2021.2.3,Win32,60.60606061,,,,,,,,,,,,,,,i,1,0.5147,,,,,,其他,i,,,0,59,59,9,1,,,,,,,,,,,,,,,,,,,,,,,,,,,,,,,,,,
,,,,,,,,,,,,,,1,001,2025-01-25_19h35.04.761,IAT(Formal),2021.2.3,Win32,60.60606061,,,,,,,,,,,,,,,e,0,0.6234,,,,,,愚蠢,i,,,0,60,60,32,1,,,,,,,,,,,,,,,,,,,,,,,,,,,,,,,,,,
,,,,,,,,,,,,,,1,001,2025-01-25_19h35.04.761,IAT(Formal),2021.2.3,Win32,60.60606061,,,,,,,,,,,,,,,i,1,0.6283,,,,,,他们,i,,,0,61,61,66,1,,,,,,,,,,,,,,,,,,,,,,,,,,,,,,,,,,
,,,,,,,,,,,,,,1,001,2025-01-25_19h35.04.761,IAT(Formal),2021.2.3,Win32,60.60606061,,,,,,,,,,,,,,,e,1,0.7697,,,,,,我,e,,,0,62,62,0,1,,,,,,,,,,,,,,,,,,,,,,,,,,,,,,,,,,
,,,,,,,,,,,,,,1,001,2025-01-25_19h35.04.761,IAT(Formal),2021.2.3,Win32,60.60606061,,,,,,,,,,,,,,,i,1,0.5605,,,,,,他们,i,,,0,63,63,56,1,,,,,,,,,,,,,,,,,,,,,,,,,,,,,,,,,,
,,,,,,,,,,,,,,1,001,2025-01-25_19h35.04.761,IAT(Formal),2021.2.3,Win32,60.60606061,,,,,,,,,,,,,,,i,1,0.65,,,,,,他的,i,,,0,64,64,7,1,,,,,,,,,,,,,,,,,,,,,,,,,,,,,,,,,,
,,,,,,,,,,,,,,1,001,2025-01-25_19h35.04.761,IAT(Formal),2021.2.3,Win32,60.60606061,,,,,,,,,,,,,,,i,1,0.5612,,,,,,下贱,i,,,0,65,65,49,1,,,,,,,,,,,,,,,,,,,,,,,,,,,,,,,,,,
,,,,,,,,,,,,,,1,001,2025-01-25_19h35.04.761,IAT(Formal),2021.2.3,Win32,60.60606061,,,,,,,,,,,,,,,e,1,0.5743,,,,,,公正,e,,,0,66,66,23,1,,,,,,,,,,,,,,,,,,,,,,,,,,,,,,,,,,
,,,,,,,,,,,,,,1,001,2025-01-25_19h35.04.761,IAT(Formal),2021.2.3,Win32,60.60606061,,,,,,,,,,,,,,,i,1,0.7174,,,,,,鲁莽,i,,,0,67,67,38,1,,,,,,,,,,,,,,,,,,,,,,,,,,,,,,,,,,
,,,,,,,,,,,,,,1,001,2025-01-25_19h35.04.761,IAT(Formal),2021.2.3,Win32,60.60606061,,,,,,,,,,,,,,,i,1,0.5559,,,,,,消极,i,,,0,68,68,35,1,,,,,,,,,,,,,,,,,,,,,,,,,,,,,,,,,,
,,,,,,,,,,,,,,1,001,2025-01-25_19h35.04.761,IAT(Formal),2021.2.3,Win32,60.60606061,,,,,,,,,,,,,,,e,1,0.6407,,,,,,我,e,,,0,69,69,60,1,,,,,,,,,,,,,,,,,,,,,,,,,,,,,,,,,,
,,,,,,,,,,,,,,1,001,2025-01-25_19h35.04.761,IAT(Formal),2021.2.3,Win32,60.60606061,,,,,,,,,,,,,,,e,1,0.7193,,,,,,我的,e,,,0,70,70,71,1,,,,,,,,,,,,,,,,,,,,,,,,,,,,,,,,,,
,,,,,,,,,,,,,,1,001,2025-01-25_19h35.04.761,IAT(Formal),2021.2.3,Win32,60.60606061,,,,,,,,,,,,,,,e,1,0.8334,,,,,,我们,e,,,0,71,71,2,1,,,,,,,,,,,,,,,,,,,,,,,,,,,,,,,,,,
,,,,,,,,,,,,,,1,001,2025-01-25_19h35.04.761,IAT(Formal),2021.2.3,Win32,60.60606061,,,,,,,,,,,,,,,i,1,0.9415,,,,,,悲观,i,,,0,72,72,34,1,,,,,,,,,,,,,,,,,,,,,,,,,,,,,,,,,,
,,,,,,,,,,,,,,1,001,2025-01-25_19h35.04.761,IAT(Formal),2021.2.3,Win32,60.60606061,,,,,,,,,,,,,,,i,1,0.9196,,,,,,轻率,i,,,0,73,73,48,1,,,,,,,,,,,,,,,,,,,,,,,,,,,,,,,,,,
,,,,,,,,,,,,,,1,001,2025-01-25_19h35.04.761,IAT(Formal),2021.2.3,Win32,60.60606061,,,,,,,,,,,,,,,i,1,0.6206,,,,,,固执,i,,,0,74,74,47,1,,,,,,,,,,,,,,,,,,,,,,,,,,,,,,,,,,
,,,,,,,,,,,,,,1,001,2025-01-25_19h35.04.761,IAT(Formal),2021.2.3,Win32,60.60606061,,,,,,,,,,,,,,,i,1,0.5153,,,,,,他人,i,,,0,75,75,58,1,,,,,,,,,,,,,,,,,,,,,,,,,,,,,,,,,,
,,,,,,,,,,,,,,1,001,2025-01-25_19h35.04.761,IAT(Formal),2021.2.3,Win32,60.60606061,,,,,,,,,,,,,,,e,1,0.6286,,,,,,稳重,e,,,0,76,76,21,1,,,,,,,,,,,,,,,,,,,,,,,,,,,,,,,,,,
,,,,,,,,,,,,,,1,001,2025-01-25_19h35.04.761,IAT(Formal),2021.2.3,Win32,60.60606061,,,,,,,,,,,,,,,i,1,0.6379,,,,,,他,i,,,0,77,77,5,1,,,,,,,,,,,,,,,,,,,,,,,,,,,,,,,,,,
,,,,,,,,,,,,,,1,001,2025-01-25_19h35.04.761,IAT(Formal),2021.2.3,Win32,60.60606061,,,,,,,,,,,,,,,e,0,0.6828,,,,,,傲慢,i,,,0,78,78,37,1,,,,,,,,,,,,,,,,,,,,,,,,,,,,,,,,,,
,,,,,,,,,,,,,,1,001,2025-01-25_19h35.04.761,IAT(Formal),2021.2.3,Win32,60.60606061,,,,,,,,,,,,,,,e,1,0.8013,,,,,,我的,e,,,0,79,79,51,1,,,,,,,,,,,,,,,,,,,,,,,,,,,,,,,,,,
,,,,,,,,,,,,,,1,001,2025-01-25_19h35.04.761,IAT(Formal),2021.2.3,Win32,60.60606061,,,,,,,,,,,,,,,e,1,0.6575,,,,,,自己,e,,,1,0,80,53,1,,,,,,,,,,,,,,,,,,,,,,,,,,,,,,,,,,
,,,,,,,,,,,,,,1,001,2025-01-25_19h35.04.761,IAT(Formal),2021.2.3,Win32,60.60606061,,,,,,,,,,,,,,,,0,,,,,,,轻率,i,,,1,1,81,48,1,,,,,,,,,,,,,,,,,,,,,,,,,,,,,,,,,,
,,,,,,,,,,,,,,1,001,2025-01-25_19h35.04.761,IAT(Formal),2021.2.3,Win32,60.60606061,,,,,,,,,,,,,,,i,1,0.5007,,,,,,卑鄙,i,,,1,2,82,30,1,,,,,,,,,,,,,,,,,,,,,,,,,,,,,,,,,,
,,,,,,,,,,,,,,1,001,2025-01-25_19h35.04.761,IAT(Formal),2021.2.3,Win32,60.60606061,,,,,,,,,,,,,,,i,1,0.5677,,,,,,他们,i,,,1,3,83,66,1,,,,,,,,,,,,,,,,,,,,,,,,,,,,,,,,,,
,,,,,,,,,,,,,,1,001,2025-01-25_19h35.04.761,IAT(Formal),2021.2.3,Win32,60.60606061,,,,,,,,,,,,,,,i,1,0.6178,,,,,,散漫,i,,,1,4,84,41,1,,,,,,,,,,,,,,,,,,,,,,,,,,,,,,,,,,
,,,,,,,,,,,,,,1,001,2025-01-25_19h35.04.761,IAT(Formal),2021.2.3,Win32,60.60606061,,,,,,,,,,,,,,,i,1,0.7904,,,,,,悲观,i,,,1,5,85,34,1,,,,,,,,,,,,,,,,,,,,,,,,,,,,,,,,,,
,,,,,,,,,,,,,,1,001,2025-01-25_19h35.04.761,IAT(Formal),2021.2.3,Win32,60.60606061,,,,,,,,,,,,,,,i,1,0.6557,,,,,,暴躁,i,,,1,6,86,44,1,,,,,,,,,,,,,,,,,,,,,,,,,,,,,,,,,,
,,,,,,,,,,,,,,1,001,2025-01-25_19h35.04.761,IAT(Formal),2021.2.3,Win32,60.60606061,,,,,,,,,,,,,,,e,1,0.4978,,,,,,勤奋,e,,,1,7,87,18,1,,,,,,,,,,,,,,,,,,,,,,,,,,,,,,,,,,
,,,,,,,,,,,,,,1,001,2025-01-25_19h35.04.761,IAT(Formal),2021.2.3,Win32,60.60606061,,,,,,,,,,,,,,,i,1,0.6231,,,,,,其他,i,,,1,8,88,59,1,,,,,,,,,,,,,,,,,,,,,,,,,,,,,,,,,,
,,,,,,,,,,,,,,1,001,2025-01-25_19h35.04.761,IAT(Formal),2021.2.3,Win32,60.60606061,,,,,,,,,,,,,,,e,1,0.8774,,,,,,自己,e,,,1,9,89,63,1,,,,,,,,,,,,,,,,,,,,,,,,,,,,,,,,,,
,,,,,,,,,,,,,,1,001,2025-01-25_19h35.04.761,IAT(Formal),2021.2.3,Win32,60.60606061,,,,,,,,,,,,,,,e,1,0.6009,,,,,,俺,e,,,1,10,90,64,1,,,,,,,,,,,,,,,,,,,,,,,,,,,,,,,,,,
,,,,,,,,,,,,,,1,001,2025-01-25_19h35.04.761,IAT(Formal),2021.2.3,Win32,60.60606061,,,,,,,,,,,,,,,i,1,0.6261,,,,,,固执,i,,,1,11,91,47,1,,,,,,,,,,,,,,,,,,,,,,,,,,,,,,,,,,
,,,,,,,,,,,,,,1,001,2025-01-25_19h35.04.761,IAT(Formal),2021.2.3,Win32,60.60606061,,,,,,,,,,,,,,,i,1,0.7177,,,,,,他们,i,,,1,12,92,76,1,,,,,,,,,,,,,,,,,,,,,,,,,,,,,,,,,,
,,,,,,,,,,,,,,1,001,2025-01-25_19h35.04.761,IAT(Formal),2021.2.3,Win32,60.60606061,,,,,,,,,,,,,,,i,1,0.4026,,,,,,他的,i,,,1,13,93,7,1,,,,,,,,,,,,,,,,,,,,,,,,,,,,,,,,,,
,,,,,,,,,,,,,,1,001,2025-01-25_19h35.04.761,IAT(Formal),2021.2.3,Win32,60.60606061,,,,,,,,,,,,,,,i,1,0.4905,,,,,,他,i,,,1,14,94,75,1,,,,,,,,,,,,,,,,,,,,,,,,,,,,,,,,,,
,,,,,,,,,,,,,,1,001,2025-01-25_19h35.04.761,IAT(Formal),2021.2.3,Win32,60.60606061,,,,,,,,,,,,,,,i,1,0.7513,,,,,,虚伪,i,,,1,15,95,31,1,,,,,,,,,,,,,,,,,,,,,,,,,,,,,,,,,,
,,,,,,,,,,,,,,1,001,2025-01-25_19h35.04.761,IAT(Formal),2021.2.3,Win32,60.60606061,,,,,,,,,,,,,,,e,1,0.5186,,,,,,认真,e,,,1,16,96,20,1,,,,,,,,,,,,,,,,,,,,,,,,,,,,,,,,,,
,,,,,,,,,,,,,,1,001,2025-01-25_19h35.04.761,IAT(Formal),2021.2.3,Win32,60.60606061,,,,,,,,,,,,,,,i,1,1.0179,,,,,,傲慢,i,,,1,17,97,37,1,,,,,,,,,,,,,,,,,,,,,,,,,,,,,,,,,,
,,,,,,,,,,,,,,1,001,2025-01-25_19h35.04.761,IAT(Formal),2021.2.3,Win32,60.60606061,,,,,,,,,,,,,,,i,1,0.4844,,,,,,执拗,i,,,1,18,98,40,1,,,,,,,,,,,,,,,,,,,,,,,,,,,,,,,,,,
,,,,,,,,,,,,,,1,001,2025-01-25_19h35.04.761,IAT(Formal),2021.2.3,Win32,60.60606061,,,,,,,,,,,,,,,e,1,0.4598,,,,,,朴实,e,,,1,19,99,24,1,,,,,,,,,,,,,,,,,,,,,,,,,,,,,,,,,,
,,,,,,,,,,,,,,1,001,2025-01-25_19h35.04.761,IAT(Formal),2021.2.3,Win32,60.60606061,,,,,,,,,,,,,,,i,1,0.4935,,,,,,他的,i,,,1,20,100,67,1,,,,,,,,,,,,,,,,,,,,,,,,,,,,,,,,,,
,,,,,,,,,,,,,,1,001,2025-01-25_19h35.04.761,IAT(Formal),2021.2.3,Win32,60.60606061,,,,,,,,,,,,,,,e,1,0.5655,,,,,,崇高,e,,,1,21,101,11,1,,,,,,,,,,,,,,,,,,,,,,,,,,,,,,,,,,
,,,,,,,,,,,,,,1,001,2025-01-25_19h35.04.761,IAT(Formal),2021.2.3,Win32,60.60606061,,,,,,,,,,,,,,,e,1,0.7955,,,,,,稳重,e,,,1,22,102,21,1,,,,,,,,,,,,,,,,,,,,,,,,,,,,,,,,,,
,,,,,,,,,,,,,,1,001,2025-01-25_19h35.04.761,IAT(Formal),2021.2.3,Win32,60.60606061,,,,,,,,,,,,,,,e,1,0.4498,,,,,,我们,e,,,1,23,103,72,1,,,,,,,,,,,,,,,,,,,,,,,,,,,,,,,,,,
,,,,,,,,,,,,,,1,001,2025-01-25_19h35.04.761,IAT(Formal),2021.2.3,Win32,60.60606061,,,,,,,,,,,,,,,i,1,0.5848,,,,,,冒失,i,,,1,24,104,39,1,,,,,,,,,,,,,,,,,,,,,,,,,,,,,,,,,,
,,,,,,,,,,,,,,1,001,2025-01-25_19h35.04.761,IAT(Formal),2021.2.3,Win32,60.60606061,,,,,,,,,,,,,,,e,1,0.4773,,,,,,我的,e,,,1,25,105,1,1,,,,,,,,,,,,,,,,,,,,,,,,,,,,,,,,,,
,,,,,,,,,,,,,,1,001,2025-01-25_19h35.04.761,IAT(Formal),2021.2.3,Win32,60.60606061,,,,,,,,,,,,,,,e,1,0.5355,,,,,,我,e,,,1,26,106,0,1,,,,,,,,,,,,,,,,,,,,,,,,,,,,,,,,,,
,,,,,,,,,,,,,,1,001,2025-01-25_19h35.04.761,IAT(Formal),2021.2.3,Win32,60.60606061,,,,,,,,,,,,,,,i,1,0.5501,,,,,,野蛮,i,,,1,27,107,46,1,,,,,,,,,,,,,,,,,,,,,,,,,,,,,,,,,,
,,,,,,,,,,,,,,1,001,2025-01-25_19h35.04.761,IAT(Formal),2021.2.3,Win32,60.60606061,,,,,,,,,,,,,,,e,1,0.9628,,,,,,无私,e,,,1,28,108,22,1,,,,,,,,,,,,,,,,,,,,,,,,,,,,,,,,,,
,,,,,,,,,,,,,,1,001,2025-01-25_19h35.04.761,IAT(Formal),2021.2.3,Win32,60.60606061,,,,,,,,,,,,,,,i,1,0.6678,,,,,,刻薄,i,,,1,29,109,33,1,,,,,,,,,,,,,,,,,,,,,,,,,,,,,,,,,,
,,,,,,,,,,,,,,1,001,2025-01-25_19h35.04.761,IAT(Formal),2021.2.3,Win32,60.60606061,,,,,,,,,,,,,,,e,1,0.6346,,,,,,勇敢,e,,,1,30,110,17,1,,,,,,,,,,,,,,,,,,,,,,,,,,,,,,,,,,
,,,,,,,,,,,,,,1,001,2025-01-25_19h35.04.761,IAT(Formal),2021.2.3,Win32,60.60606061,,,,,,,,,,,,,,,e,1,0.7016,,,,,,热情,e,,,1,31,111,27,1,,,,,,,,,,,,,,,,,,,,,,,,,,,,,,,,,,
,,,,,,,,,,,,,,1,001,2025-01-25_19h35.04.761,IAT(Formal),2021.2.3,Win32,60.60606061,,,,,,,,,,,,,,,i,1,0.8106,,,,,,其他,i,,,1,32,112,9,1,,,,,,,,,,,,,,,,,,,,,,,,,,,,,,,,,,
,,,,,,,,,,,,,,1,001,2025-01-25_19h35.04.761,IAT(Formal),2021.2.3,Win32,60.60606061,,,,,,,,,,,,,,,i,1,0.6666,,,,,,自私,i,,,1,33,113,43,1,,,,,,,,,,,,,,,,,,,,,,,,,,,,,,,,,,
,,,,,,,,,,,,,,1,001,2025-01-25_19h35.04.761,IAT(Formal),2021.2.3,Win32,60.60606061,,,,,,,,,,,,,,,i,1,0.7299,,,,,,他的,i,,,1,34,114,57,1,,,,,,,,,,,,,,,,,,,,,,,,,,,,,,,,,,
,,,,,,,,,,,,,,1,001,2025-01-25_19h35.04.761,IAT(Formal),2021.2.3,Win32,60.60606061,,,,,,,,,,,,,,,e,1,0.5172,,,,,,我们,e,,,1,35,115,2,1,,,,,,,,,,,,,,,,,,,,,,,,,,,,,,,,,,
,,,,,,,,,,,,,,1,001,2025-01-25_19h35.04.761,IAT(Formal),2021.2.3,Win32,60.60606061,,,,,,,,,,,,,,,e,1,0.8999,,,,,,自己,e,,,1,36,116,3,1,,,,,,,,,,,,,,,,,,,,,,,,,,,,,,,,,,
,,,,,,,,,,,,,,1,001,2025-01-25_19h35.04.761,IAT(Formal),2021.2.3,Win32,60.60606061,,,,,,,,,,,,,,,e,1,0.5108,,,,,,正直,e,,,1,37,117,16,1,,,,,,,,,,,,,,,,,,,,,,,,,,,,,,,,,,
,,,,,,,,,,,,,,1,001,2025-01-25_19h35.04.761,IAT(Formal),2021.2.3,Win32,60.60606061,,,,,,,,,,,,,,,i,1,0.5736,,,,,,他人,i,,,1,38,118,78,1,,,,,,,,,,,,,,,,,,,,,,,,,,,,,,,,,,
,,,,,,,,,,,,,,1,001,2025-01-25_19h35.04.761,IAT(Formal),2021.2.3,Win32,60.60606061,,,,,,,,,,,,,,,i,1,1.1386,,,,,,鲁莽,i,,,1,39,119,38,1,,,,,,,,,,,,,,,,,,,,,,,,,,,,,,,,,,
,,,,,,,,,,,,,,1,001,2025-01-25_19h35.04.761,IAT(Formal),2021.2.3,Win32,60.60606061,,,,,,,,,,,,,,,e,1,0.7628,,,,,,优秀,e,,,1,40,120,10,1,,,,,,,,,,,,,,,,,,,,,,,,,,,,,,,,,,
,,,,,,,,,,,,,,1,001,2025-01-25_19h35.04.761,IAT(Formal),2021.2.3,Win32,60.60606061,,,,,,,,,,,,,,,i,1,0.7448,,,,,,他,i,,,1,41,121,5,1,,,,,,,,,,,,,,,,,,,,,,,,,,,,,,,,,,
,,,,,,,,,,,,,,1,001,2025-01-25_19h35.04.761,IAT(Formal),2021.2.3,Win32,60.60606061,,,,,,,,,,,,,,,e,1,0.587,,,,,,我,e,,,1,42,122,60,1,,,,,,,,,,,,,,,,,,,,,,,,,,,,,,,,,,
,,,,,,,,,,,,,,1,001,2025-01-25_19h35.04.761,IAT(Formal),2021.2.3,Win32,60.60606061,,,,,,,,,,,,,,,i,1,0.6977,,,,,,猖狂,i,,,1,43,123,45,1,,,,,,,,,,,,,,,,,,,,,,,,,,,,,,,,,,
,,,,,,,,,,,,,,1,001,2025-01-25_19h35.04.761,IAT(Formal),2021.2.3,Win32,60.60606061,,,,,,,,,,,,,,,e,1,0.7043,,,,,,我们,e,,,1,44,124,52,1,,,,,,,,,,,,,,,,,,,,,,,,,,,,,,,,,,
,,,,,,,,,,,,,,1,001,2025-01-25_19h35.04.761,IAT(Formal),2021.2.3,Win32,60.60606061,,,,,,,,,,,,,,,i,1,0.5673,,,,,,自卑,i,,,1,45,125,36,1,,,,,,,,,,,,,,,,,,,,,,,,,,,,,,,,,,
,,,,,,,,,,,,,,1,001,2025-01-25_19h35.04.761,IAT(Formal),2021.2.3,Win32,60.60606061,,,,,,,,,,,,,,,e,1,0.8074,,,,,,冷静,e,,,1,46,126,26,1,,,,,,,,,,,,,,,,,,,,,,,,,,,,,,,,,,
,,,,,,,,,,,,,,1,001,2025-01-25_19h35.04.761,IAT(Formal),2021.2.3,Win32,60.60606061,,,,,,,,,,,,,,,e,1,0.6179,,,,,,诚实,e,,,1,47,127,15,1,,,,,,,,,,,,,,,,,,,,,,,,,,,,,,,,,,
,,,,,,,,,,,,,,1,001,2025-01-25_19h35.04.761,IAT(Formal),2021.2.3,Win32,60.60606061,,,,,,,,,,,,,,,e,1,0.5337,,,,,,我的,e,,,1,48,128,51,1,,,,,,,,,,,,,,,,,,,,,,,,,,,,,,,,,,
,,,,,,,,,,,,,,1,001,2025-01-25_19h35.04.761,IAT(Formal),2021.2.3,Win32,60.60606061,,,,,,,,,,,,,,,e,1,0.7303,,,,,,乐观,e,,,1,49,129,14,1,,,,,,,,,,,,,,,,,,,,,,,,,,,,,,,,,,
,,,,,,,,,,,,,,1,001,2025-01-25_19h35.04.761,IAT(Formal),2021.2.3,Win32,60.60606061,,,,,,,,,,,,,,,e,1,0.4516,,,,,,俺,e,,,1,50,130,4,1,,,,,,,,,,,,,,,,,,,,,,,,,,,,,,,,,,
,,,,,,,,,,,,,,1,001,2025-01-25_19h35.04.761,IAT(Formal),2021.2.3,Win32,60.60606061,,,,,,,,,,,,,,,e,1,0.4846,,,,,,杰出,e,,,1,51,131,13,1,,,,,,,,,,,,,,,,,,,,,,,,,,,,,,,,,,
,,,,,,,,,,,,,,1,001,2025-01-25_19h35.04.761,IAT(Formal),2021.2.3,Win32,60.60606061,,,,,,,,,,,,,,,e,1,0.4238,,,,,,细腻,e,,,1,52,132,25,1,,,,,,,,,,,,,,,,,,,,,,,,,,,,,,,,,,
,,,,,,,,,,,,,,1,001,2025-01-25_19h35.04.761,IAT(Formal),2021.2.3,Win32,60.60606061,,,,,,,,,,,,,,,e,1,0.4234,,,,,,公正,e,,,1,53,133,23,1,,,,,,,,,,,,,,,,,,,,,,,,,,,,,,,,,,
,,,,,,,,,,,,,,1,001,2025-01-25_19h35.04.761,IAT(Formal),2021.2.3,Win32,60.60606061,,,,,,,,,,,,,,,e,1,0.4695,,,,,,我们,e,,,1,54,134,62,1,,,,,,,,,,,,,,,,,,,,,,,,,,,,,,,,,,
,,,,,,,,,,,,,,1,001,2025-01-25_19h35.04.761,IAT(Formal),2021.2.3,Win32,60.60606061,,,,,,,,,,,,,,,i,1,0.4334,,,,,,下贱,i,,,1,55,135,49,1,,,,,,,,,,,,,,,,,,,,,,,,,,,,,,,,,,
,,,,,,,,,,,,,,1,001,2025-01-25_19h35.04.761,IAT(Formal),2021.2.3,Win32,60.60606061,,,,,,,,,,,,,,,e,1,0.5115,,,,,,俺,e,,,1,56,136,74,1,,,,,,,,,,,,,,,,,,,,,,,,,,,,,,,,,,
,,,,,,,,,,,,,,1,001,2025-01-25_19h35.04.761,IAT(Formal),2021.2.3,Win32,60.60606061,,,,,,,,,,,,,,,i,1,0.5669,,,,,,其他,i,,,1,57,137,79,1,,,,,,,,,,,,,,,,,,,,,,,,,,,,,,,,,,
,,,,,,,,,,,,,,1,001,2025-01-25_19h35.04.761,IAT(Formal),2021.2.3,Win32,60.60606061,,,,,,,,,,,,,,,i,1,0.6338,,,,,,愚蠢,i,,,1,58,138,32,1,,,,,,,,,,,,,,,,,,,,,,,,,,,,,,,,,,
,,,,,,,,,,,,,,1,001,2025-01-25_19h35.04.761,IAT(Formal),2021.2.3,Win32,60.60606061,,,,,,,,,,,,,,,e,1,0.4934,,,,,,我,e,,,1,59,139,70,1,,,,,,,,,,,,,,,,,,,,,,,,,,,,,,,,,,
,,,,,,,,,,,,,,1,001,2025-01-25_19h35.04.761,IAT(Formal),2021.2.3,Win32,60.60606061,,,,,,,,,,,,,,,i,1,0.5524,,,,,,他人,i,,,1,60,140,8,1,,,,,,,,,,,,,,,,,,,,,,,,,,,,,,,,,,
,,,,,,,,,,,,,,1,001,2025-01-25_19h35.04.761,IAT(Formal),2021.2.3,Win32,60.60606061,,,,,,,,,,,,,,,i,1,0.61,,,,,,他,i,,,1,61,141,65,1,,,,,,,,,,,,,,,,,,,,,,,,,,,,,,,,,,
,,,,,,,,,,,,,,1,001,2025-01-25_19h35.04.761,IAT(Formal),2021.2.3,Win32,60.60606061,,,,,,,,,,,,,,,i,1,0.4109,,,,,,他的,i,,,1,62,142,77,1,,,,,,,,,,,,,,,,,,,,,,,,,,,,,,,,,,
,,,,,,,,,,,,,,1,001,2025-01-25_19h35.04.761,IAT(Formal),2021.2.3,Win32,60.60606061,,,,,,,,,,,,,,,e,1,0.4336,,,,,,我的,e,,,1,63,143,71,1,,,,,,,,,,,,,,,,,,,,,,,,,,,,,,,,,,
,,,,,,,,,,,,,,1,001,2025-01-25_19h35.04.761,IAT(Formal),2021.2.3,Win32,60.60606061,,,,,,,,,,,,,,,i,1,0.6673,,,,,,他,i,,,1,64,144,55,1,,,,,,,,,,,,,,,,,,,,,,,,,,,,,,,,,,
,,,,,,,,,,,,,,1,001,2025-01-25_19h35.04.761,IAT(Formal),2021.2.3,Win32,60.60606061,,,,,,,,,,,,,,,e,1,0.5348,,,,,,活泼,e,,,1,65,145,28,1,,,,,,,,,,,,,,,,,,,,,,,,,,,,,,,,,,
,,,,,,,,,,,,,,1,001,2025-01-25_19h35.04.761,IAT(Formal),2021.2.3,Win32,60.60606061,,,,,,,,,,,,,,,e,1,0.5831,,,,,,机智,e,,,1,66,146,19,1,,,,,,,,,,,,,,,,,,,,,,,,,,,,,,,,,,
,,,,,,,,,,,,,,1,001,2025-01-25_19h35.04.761,IAT(Formal),2021.2.3,Win32,60.60606061,,,,,,,,,,,,,,,e,1,0.5507,,,,,,聪明,e,,,1,67,147,12,1,,,,,,,,,,,,,,,,,,,,,,,,,,,,,,,,,,
,,,,,,,,,,,,,,1,001,2025-01-25_19h35.04.761,IAT(Formal),2021.2.3,Win32,60.60606061,,,,,,,,,,,,,,,i,1,0.5517,,,,,,他们,i,,,1,68,148,6,1,,,,,,,,,,,,,,,,,,,,,,,,,,,,,,,,,,
,,,,,,,,,,,,,,1,001,2025-01-25_19h35.04.761,IAT(Formal),2021.2.3,Win32,60.60606061,,,,,,,,,,,,,,,e,1,0.4584,,,,,,俺,e,,,1,69,149,54,1,,,,,,,,,,,,,,,,,,,,,,,,,,,,,,,,,,
,,,,,,,,,,,,,,1,001,2025-01-25_19h35.04.761,IAT(Formal),2021.2.3,Win32,60.60606061,,,,,,,,,,,,,,,e,1,0.3939,,,,,,我,e,,,1,70,150,50,1,,,,,,,,,,,,,,,,,,,,,,,,,,,,,,,,,,
,,,,,,,,,,,,,,1,001,2025-01-25_19h35.04.761,IAT(Formal),2021.2.3,Win32,60.60606061,,,,,,,,,,,,,,,e,1,0.4134,,,,,,我的,e,,,1,71,151,61,1,,,,,,,,,,,,,,,,,,,,,,,,,,,,,,,,,,
,,,,,,,,,,,,,,1,001,2025-01-25_19h35.04.761,IAT(Formal),2021.2.3,Win32,60.60606061,,,,,,,,,,,,,,,i,1,0.4534,,,,,,凶狠,i,,,1,72,152,42,1,,,,,,,,,,,,,,,,,,,,,,,,,,,,,,,,,,
,,,,,,,,,,,,,,1,001,2025-01-25_19h35.04.761,IAT(Formal),2021.2.3,Win32,60.60606061,,,,,,,,,,,,,,,e,0,0.4683,,,,,,消极,i,,,1,73,153,35,1,,,,,,,,,,,,,,,,,,,,,,,,,,,,,,,,,,
,,,,,,,,,,,,,,1,001,2025-01-25_19h35.04.761,IAT(Formal),2021.2.3,Win32,60.60606061,,,,,,,,,,,,,,,i,1,0.5016,,,,,,他人,i,,,1,74,154,68,1,,,,,,,,,,,,,,,,,,,,,,,,,,,,,,,,,,
,,,,,,,,,,,,,,1,001,2025-01-25_19h35.04.761,IAT(Formal),2021.2.3,Win32,60.60606061,,,,,,,,,,,,,,,i,1,0.6219,,,,,,其他,i,,,1,75,155,69,1,,,,,,,,,,,,,,,,,,,,,,,,,,,,,,,,,,
,,,,,,,,,,,,,,1,001,2025-01-25_19h35.04.761,IAT(Formal),2021.2.3,Win32,60.60606061,,,,,,,,,,,,,,,e,1,0.5668,,,,,,自己,e,,,1,76,156,73,1,,,,,,,,,,,,,,,,,,,,,,,,,,,,,,,,,,
,,,,,,,,,,,,,,1,001,2025-01-25_19h35.04.761,IAT(Formal),2021.2.3,Win32,60.60606061,,,,,,,,,,,,,,,i,1,0.5834,,,,,,他们,i,,,1,77,157,56,1,,,,,,,,,,,,,,,,,,,,,,,,,,,,,,,,,,
,,,,,,,,,,,,,,1,001,2025-01-25_19h35.04.761,IAT(Formal),2021.2.3,Win32,60.60606061,,,,,,,,,,,,,,,e,1,0.7578,,,,,,诚恳,e,,,1,78,158,29,1,,,,,,,,,,,,,,,,,,,,,,,,,,,,,,,,,,
,,,,,,,,,,,,,,1,001,2025-01-25_19h35.04.761,IAT(Formal),2021.2.3,Win32,60.60606061,,,,,,,,,,,,,,,i,1,0.745,,,,,,他人,i,,,1,79,159,58,1,,,,,,,,,,,,,,,,,,,,,,,,,,,,,,,,,,
,,,,,,,,,,,,自己,i,1,001,2025-01-25_19h35.04.761,IAT(Formal),2021.2.3,Win32,60.60606061,,,,,,,,,,,,,,,,,,,,,,,,,,,,,,,,space,13.9366,i,1,0.8431,0,0,0,3,1,,,,,,,,,,,,,,,,,,,,,,,,
,,,,,,,,,,,,其他,e,1,001,2025-01-25_19h35.04.761,IAT(Formal),2021.2.3,Win32,60.60606061,,,,,,,,,,,,,,,,,,,,,,,,,,,,,,,,,,e,1,0.7309,0,1,1,9,1,,,,,,,,,,,,,,,,,,,,,,,,
,,,,,,,,,,,,他们,e,1,001,2025-01-25_19h35.04.761,IAT(Formal),2021.2.3,Win32,60.60606061,,,,,,,,,,,,,,,,,,,,,,,,,,,,,,,,,,e,1,0.612,0,2,2,6,1,,,,,,,,,,,,,,,,,,,,,,,,
,,,,,,,,,,,,我,i,1,001,2025-01-25_19h35.04.761,IAT(Formal),2021.2.3,Win32,60.60606061,,,,,,,,,,,,,,,,,,,,,,,,,,,,,,,,,,i,1,0.5151,0,3,3,0,1,,,,,,,,,,,,,,,,,,,,,,,,
,,,,,,,,,,,,我的,i,1,001,2025-01-25_19h35.04.761,IAT(Formal),2021.2.3,Win32,60.60606061,,,,,,,,,,,,,,,,,,,,,,,,,,,,,,,,,,i,1,0.5123,0,4,4,1,1,,,,,,,,,,,,,,,,,,,,,,,,
,,,,,,,,,,,,他人,e,1,001,2025-01-25_19h35.04.761,IAT(Formal),2021.2.3,Win32,60.60606061,,,,,,,,,,,,,,,,,,,,,,,,,,,,,,,,,,e,1,0.4636,0,5,5,8,1,,,,,,,,,,,,,,,,,,,,,,,,
,,,,,,,,,,,,他,e,1,001,2025-01-25_19h35.04.761,IAT(Formal),2021.2.3,Win32,60.60606061,,,,,,,,,,,,,,,,,,,,,,,,,,,,,,,,,,e,1,0.5173,0,6,6,5,1,,,,,,,,,,,,,,,,,,,,,,,,
,,,,,,,,,,,,我们,i,1,001,2025-01-25_19h35.04.761,IAT(Formal),2021.2.3,Win32,60.60606061,,,,,,,,,,,,,,,,,,,,,,,,,,,,,,,,,,i,1,0.3417,0,7,7,2,1,,,,,,,,,,,,,,,,,,,,,,,,
,,,,,,,,,,,,俺,i,1,001,2025-01-25_19h35.04.761,IAT(Formal),2021.2.3,Win32,60.60606061,,,,,,,,,,,,,,,,,,,,,,,,,,,,,,,,,,i,1,0.5521,0,8,8,4,1,,,,,,,,,,,,,,,,,,,,,,,,
,,,,,,,,,,,,他的,e,1,001,2025-01-25_19h35.04.761,IAT(Formal),2021.2.3,Win32,60.60606061,,,,,,,,,,,,,,,,,,,,,,,,,,,,,,,,,,e,1,0.4757,0,9,9,7,1,,,,,,,,,,,,,,,,,,,,,,,,
,,,,,,,,,,,,,,1,001,2025-01-25_19h35.04.761,IAT(Formal),2021.2.3,Win32,60.60606061,,,,,,,,,,,,,,,,,,,,,,,,,,,,,,,,,,,,,,,,,,space,4.6711,e,0,1.1064,0,0,0,31,1,虚伪,i,,,,,,,,,,,,
,,,,,,,,,,,,,,1,001,2025-01-25_19h35.04.761,IAT(Formal),2021.2.3,Win32,60.60606061,,,,,,,,,,,,,,,,,,,,,,,,,,,,,,,,,,,,,,,,,,,,e,0,0.5523,0,1,1,42,1,凶狠,i,,,,,,,,,,,,
,,,,,,,,,,,,,,1,001,2025-01-25_19h35.04.761,IAT(Formal),2021.2.3,Win32,60.60606061,,,,,,,,,,,,,,,,,,,,,,,,,,,,,,,,,,,,,,,,,,,,i,1,0.8446,0,2,2,50,1,我,i,,,,,,,,,,,,
,,,,,,,,,,,,,,1,001,2025-01-25_19h35.04.761,IAT(Formal),2021.2.3,Win32,60.60606061,,,,,,,,,,,,,,,,,,,,,,,,,,,,,,,,,,,,,,,,,,,,i,1,0.5127,0,3,3,51,1,我的,i,,,,,,,,,,,,
,,,,,,,,,,,,,,1,001,2025-01-25_19h35.04.761,IAT(Formal),2021.2.3,Win32,60.60606061,,,,,,,,,,,,,,,,,,,,,,,,,,,,,,,,,,,,,,,,,,,,e,1,0.6423,0,4,4,25,1,细腻,e,,,,,,,,,,,,
,,,,,,,,,,,,,,1,001,2025-01-25_19h35.04.761,IAT(Formal),2021.2.3,Win32,60.60606061,,,,,,,,,,,,,,,,,,,,,,,,,,,,,,,,,,,,,,,,,,,,i,1,0.6242,0,5,5,74,1,俺,i,,,,,,,,,,,,
,,,,,,,,,,,,,,1,001,2025-01-25_19h35.04.761,IAT(Formal),2021.2.3,Win32,60.60606061,,,,,,,,,,,,,,,,,,,,,,,,,,,,,,,,,,,,,,,,,,,,i,1,0.8137,0,6,6,47,1,固执,i,,,,,,,,,,,,
,,,,,,,,,,,,,,1,001,2025-01-25_19h35.04.761,IAT(Formal),2021.2.3,Win32,60.60606061,,,,,,,,,,,,,,,,,,,,,,,,,,,,,,,,,,,,,,,,,,,,,0,,0,7,7,11,1,崇高,e,,,,,,,,,,,,
,,,,,,,,,,,,,,1,001,2025-01-25_19h35.04.761,IAT(Formal),2021.2.3,Win32,60.60606061,,,,,,,,,,,,,,,,,,,,,,,,,,,,,,,,,,,,,,,,,,,,i,0,0.6495,0,8,8,17,1,勇敢,e,,,,,,,,,,,,
,,,,,,,,,,,,,,1,001,2025-01-25_19h35.04.761,IAT(Formal),2021.2.3,Win32,60.60606061,,,,,,,,,,,,,,,,,,,,,,,,,,,,,,,,,,,,,,,,,,,,e,1,1.1829,0,9,9,16,1,正直,e,,,,,,,,,,,,
,,,,,,,,,,,,,,1,001,2025-01-25_19h35.04.761,IAT(Formal),2021.2.3,Win32,60.60606061,,,,,,,,,,,,,,,,,,,,,,,,,,,,,,,,,,,,,,,,,,,,i,1,0.7529,0,10,10,53,1,自己,i,,,,,,,,,,,,
,,,,,,,,,,,,,,1,001,2025-01-25_19h35.04.761,IAT(Formal),2021.2.3,Win32,60.60606061,,,,,,,,,,,,,,,,,,,,,,,,,,,,,,,,,,,,,,,,,,,,i,1,1.0488,0,11,11,43,1,自私,i,,,,,,,,,,,,
,,,,,,,,,,,,,,1,001,2025-01-25_19h35.04.761,IAT(Formal),2021.2.3,Win32,60.60606061,,,,,,,,,,,,,,,,,,,,,,,,,,,,,,,,,,,,,,,,,,,,i,1,0.4818,0,12,12,35,1,消极,i,,,,,,,,,,,,
,,,,,,,,,,,,,,1,001,2025-01-25_19h35.04.761,IAT(Formal),2021.2.3,Win32,60.60606061,,,,,,,,,,,,,,,,,,,,,,,,,,,,,,,,,,,,,,,,,,,,e,0,0.5231,0,13,13,60,1,我,i,,,,,,,,,,,,
,,,,,,,,,,,,,,1,001,2025-01-25_19h35.04.761,IAT(Formal),2021.2.3,Win32,60.60606061,,,,,,,,,,,,,,,,,,,,,,,,,,,,,,,,,,,,,,,,,,,,i,1,0.68,0,14,14,73,1,自己,i,,,,,,,,,,,,
,,,,,,,,,,,,,,1,001,2025-01-25_19h35.04.761,IAT(Formal),2021.2.3,Win32,60.60606061,,,,,,,,,,,,,,,,,,,,,,,,,,,,,,,,,,,,,,,,,,,,i,1,0.6883,0,15,15,62,1,我们,i,,,,,,,,,,,,
,,,,,,,,,,,,,,1,001,2025-01-25_19h35.04.761,IAT(Formal),2021.2.3,Win32,60.60606061,,,,,,,,,,,,,,,,,,,,,,,,,,,,,,,,,,,,,,,,,,,,i,1,0.7953,0,16,16,40,1,执拗,i,,,,,,,,,,,,
,,,,,,,,,,,,,,1,001,2025-01-25_19h35.04.761,IAT(Formal),2021.2.3,Win32,60.60606061,,,,,,,,,,,,,,,,,,,,,,,,,,,,,,,,,,,,,,,,,,,,i,1,0.7904,0,17,17,48,1,轻率,i,,,,,,,,,,,,
,,,,,,,,,,,,,,1,001,2025-01-25_19h35.04.761,IAT(Formal),2021.2.3,Win32,60.60606061,,,,,,,,,,,,,,,,,,,,,,,,,,,,,,,,,,,,,,,,,,,,e,1,0.6463,0,18,18,76,1,他们,e,,,,,,,,,,,,
,,,,,,,,,,,,,,1,001,2025-01-25_19h35.04.761,IAT(Formal),2021.2.3,Win32,60.60606061,,,,,,,,,,,,,,,,,,,,,,,,,,,,,,,,,,,,,,,,,,,,i,1,1.1127,0,19,19,34,1,悲观,i,,,,,,,,,,,,
,,,,,,,,,,,,,,1,001,2025-01-25_19h35.04.761,IAT(Formal),2021.2.3,Win32,60.60606061,,,,,,,,,,,,,,,,,,,,,,,,,,,,,,,,,,,,,,,,,,,,e,1,0.6525,0,20,20,13,1,杰出,e,,,,,,,,,,,,
,,,,,,,,,,,,,,1,001,2025-01-25_19h35.04.761,IAT(Formal),2021.2.3,Win32,60.60606061,,,,,,,,,,,,,,,,,,,,,,,,,,,,,,,,,,,,,,,,,,,,e,1,1.2478,0,21,21,6,1,他们,e,,,,,,,,,,,,
,,,,,,,,,,,,,,1,001,2025-01-25_19h35.04.761,IAT(Formal),2021.2.3,Win32,60.60606061,,,,,,,,,,,,,,,,,,,,,,,,,,,,,,,,,,,,,,,,,,,,i,1,0.5917,0,22,22,54,1,俺,i,,,,,,,,,,,,
,,,,,,,,,,,,,,1,001,2025-01-25_19h35.04.761,IAT(Formal),2021.2.3,Win32,60.60606061,,,,,,,,,,,,,,,,,,,,,,,,,,,,,,,,,,,,,,,,,,,,e,1,1.1404,0,23,23,14,1,乐观,e,,,,,,,,,,,,
,,,,,,,,,,,,,,1,001,2025-01-25_19h35.04.761,IAT(Formal),2021.2.3,Win32,60.60606061,,,,,,,,,,,,,,,,,,,,,,,,,,,,,,,,,,,,,,,,,,,,i,0,0.5955,0,24,24,7,1,他的,e,,,,,,,,,,,,
,,,,,,,,,,,,,,1,001,2025-01-25_19h35.04.761,IAT(Formal),2021.2.3,Win32,60.60606061,,,,,,,,,,,,,,,,,,,,,,,,,,,,,,,,,,,,,,,,,,,,e,1,0.5716,0,25,25,8,1,他人,e,,,,,,,,,,,,
,,,,,,,,,,,,,,1,001,2025-01-25_19h35.04.761,IAT(Formal),2021.2.3,Win32,60.60606061,,,,,,,,,,,,,,,,,,,,,,,,,,,,,,,,,,,,,,,,,,,,e,1,0.8068,0,26,26,26,1,冷静,e,,,,,,,,,,,,
,,,,,,,,,,,,,,1,001,2025-01-25_19h35.04.761,IAT(Formal),2021.2.3,Win32,60.60606061,,,,,,,,,,,,,,,,,,,,,,,,,,,,,,,,,,,,,,,,,,,,i,1,0.5284,0,27,27,46,1,野蛮,i,,,,,,,,,,,,
,,,,,,,,,,,,,,1,001,2025-01-25_19h35.04.761,IAT(Formal),2021.2.3,Win32,60.60606061,,,,,,,,,,,,,,,,,,,,,,,,,,,,,,,,,,,,,,,,,,,,e,1,0.8037,0,28,28,9,1,其他,e,,,,,,,,,,,,
,,,,,,,,,,,,,,1,001,2025-01-25_19h35.04.761,IAT(Formal),2021.2.3,Win32,60.60606061,,,,,,,,,,,,,,,,,,,,,,,,,,,,,,,,,,,,,,,,,,,,i,0,1.2009,0,29,29,65,1,他,e,,,,,,,,,,,,
,,,,,,,,,,,,,,1,001,2025-01-25_19h35.04.761,IAT(Formal),2021.2.3,Win32,60.60606061,,,,,,,,,,,,,,,,,,,,,,,,,,,,,,,,,,,,,,,,,,,,e,1,0.882,0,30,30,12,1,聪明,e,,,,,,,,,,,,
,,,,,,,,,,,,,,1,001,2025-01-25_19h35.04.761,IAT(Formal),2021.2.3,Win32,60.60606061,,,,,,,,,,,,,,,,,,,,,,,,,,,,,,,,,,,,,,,,,,,,i,1,1.2267,0,31,31,39,1,冒失,i,,,,,,,,,,,,
,,,,,,,,,,,,,,1,001,2025-01-25_19h35.04.761,IAT(Formal),2021.2.3,Win32,60.60606061,,,,,,,,,,,,,,,,,,,,,,,,,,,,,,,,,,,,,,,,,,,,e,1,0.6205,0,32,32,67,1,他的,e,,,,,,,,,,,,
,,,,,,,,,,,,,,1,001,2025-01-25_19h35.04.761,IAT(Formal),2021.2.3,Win32,60.60606061,,,,,,,,,,,,,,,,,,,,,,,,,,,,,,,,,,,,,,,,,,,,e,1,0.6366,0,33,33,28,1,活泼,e,,,,,,,,,,,,
,,,,,,,,,,,,,,1,001,2025-01-25_19h35.04.761,IAT(Formal),2021.2.3,Win32,60.60606061,,,,,,,,,,,,,,,,,,,,,,,,,,,,,,,,,,,,,,,,,,,,i,1,0.4645,0,34,34,72,1,我们,i,,,,,,,,,,,,
,,,,,,,,,,,,,,1,001,2025-01-25_19h35.04.761,IAT(Formal),2021.2.3,Win32,60.60606061,,,,,,,,,,,,,,,,,,,,,,,,,,,,,,,,,,,,,,,,,,,,e,1,0.7016,0,35,35,79,1,其他,e,,,,,,,,,,,,
,,,,,,,,,,,,,,1,001,2025-01-25_19h35.04.761,IAT(Formal),2021.2.3,Win32,60.60606061,,,,,,,,,,,,,,,,,,,,,,,,,,,,,,,,,,,,,,,,,,,,e,1,0.4996,0,36,36,78,1,他人,e,,,,,,,,,,,,
,,,,,,,,,,,,,,1,001,2025-01-25_19h35.04.761,IAT(Formal),2021.2.3,Win32,60.60606061,,,,,,,,,,,,,,,,,,,,,,,,,,,,,,,,,,,,,,,,,,,,i,1,0.4856,0,37,37,61,1,我的,i,,,,,,,,,,,,
,,,,,,,,,,,,,,1,001,2025-01-25_19h35.04.761,IAT(Formal),2021.2.3,Win32,60.60606061,,,,,,,,,,,,,,,,,,,,,,,,,,,,,,,,,,,,,,,,,,,,e,1,0.4342,0,38,38,57,1,他的,e,,,,,,,,,,,,
,,,,,,,,,,,,,,1,001,2025-01-25_19h35.04.761,IAT(Formal),2021.2.3,Win32,60.60606061,,,,,,,,,,,,,,,,,,,,,,,,,,,,,,,,,,,,,,,,,,,,i,1,0.5033,0,39,39,4,1,俺,i,,,,,,,,,,,,
,,,,,,,,,,,,,,1,001,2025-01-25_19h35.04.761,IAT(Formal),2021.2.3,Win32,60.60606061,,,,,,,,,,,,,,,,,,,,,,,,,,,,,,,,,,,,,,,,,,,,i,1,0.483,0,40,40,71,1,我的,i,,,,,,,,,,,,
,,,,,,,,,,,,,,1,001,2025-01-25_19h35.04.761,IAT(Formal),2021.2.3,Win32,60.60606061,,,,,,,,,,,,,,,,,,,,,,,,,,,,,,,,,,,,,,,,,,,,i,1,0.3937,0,41,41,2,1,我们,i,,,,,,,,,,,,
,,,,,,,,,,,,,,1,001,2025-01-25_19h35.04.761,IAT(Formal),2021.2.3,Win32,60.60606061,,,,,,,,,,,,,,,,,,,,,,,,,,,,,,,,,,,,,,,,,,,,e,1,0.5339,0,42,42,77,1,他的,e,,,,,,,,,,,,
,,,,,,,,,,,,,,1,001,2025-01-25_19h35.04.761,IAT(Formal),2021.2.3,Win32,60.60606061,,,,,,,,,,,,,,,,,,,,,,,,,,,,,,,,,,,,,,,,,,,,e,1,0.9394,0,43,43,23,1,公正,e,,,,,,,,,,,,
,,,,,,,,,,,,,,1,001,2025-01-25_19h35.04.761,IAT(Formal),2021.2.3,Win32,60.60606061,,,,,,,,,,,,,,,,,,,,,,,,,,,,,,,,,,,,,,,,,,,,e,1,0.414,0,44,44,10,1,优秀,e,,,,,,,,,,,,
,,,,,,,,,,,,,,1,001,2025-01-25_19h35.04.761,IAT(Formal),2021.2.3,Win32,60.60606061,,,,,,,,,,,,,,,,,,,,,,,,,,,,,,,,,,,,,,,,,,,,e,1,0.3567,0,45,45,69,1,其他,e,,,,,,,,,,,,
,,,,,,,,,,,,,,1,001,2025-01-25_19h35.04.761,IAT(Formal),2021.2.3,Win32,60.60606061,,,,,,,,,,,,,,,,,,,,,,,,,,,,,,,,,,,,,,,,,,,,e,1,0.3865,0,46,46,75,1,他,e,,,,,,,,,,,,
,,,,,,,,,,,,,,1,001,2025-01-25_19h35.04.761,IAT(Formal),2021.2.3,Win32,60.60606061,,,,,,,,,,,,,,,,,,,,,,,,,,,,,,,,,,,,,,,,,,,,i,1,0.5973,0,47,47,32,1,愚蠢,i,,,,,,,,,,,,
,,,,,,,,,,,,,,1,001,2025-01-25_19h35.04.761,IAT(Formal),2021.2.3,Win32,60.60606061,,,,,,,,,,,,,,,,,,,,,,,,,,,,,,,,,,,,,,,,,,,,i,1,0.3963,0,48,48,1,1,我的,i,,,,,,,,,,,,
,,,,,,,,,,,,,,1,001,2025-01-25_19h35.04.761,IAT(Formal),2021.2.3,Win32,60.60606061,,,,,,,,,,,,,,,,,,,,,,,,,,,,,,,,,,,,,,,,,,,,i,0,0.6297,0,49,49,22,1,无私,e,,,,,,,,,,,,
,,,,,,,,,,,,,,1,001,2025-01-25_19h35.04.761,IAT(Formal),2021.2.3,Win32,60.60606061,,,,,,,,,,,,,,,,,,,,,,,,,,,,,,,,,,,,,,,,,,,,e,1,0.6896,0,50,50,55,1,他,e,,,,,,,,,,,,
,,,,,,,,,,,,,,1,001,2025-01-25_19h35.04.761,IAT(Formal),2021.2.3,Win32,60.60606061,,,,,,,,,,,,,,,,,,,,,,,,,,,,,,,,,,,,,,,,,,,,e,1,0.5117,0,51,51,21,1,稳重,e,,,,,,,,,,,,
,,,,,,,,,,,,,,1,001,2025-01-25_19h35.04.761,IAT(Formal),2021.2.3,Win32,60.60606061,,,,,,,,,,,,,,,,,,,,,,,,,,,,,,,,,,,,,,,,,,,,i,1,0.6936,0,52,52,36,1,自卑,i,,,,,,,,,,,,
,,,,,,,,,,,,,,1,001,2025-01-25_19h35.04.761,IAT(Formal),2021.2.3,Win32,60.60606061,,,,,,,,,,,,,,,,,,,,,,,,,,,,,,,,,,,,,,,,,,,,e,1,1.0109,0,53,53,15,1,诚实,e,,,,,,,,,,,,
,,,,,,,,,,,,,,1,001,2025-01-25_19h35.04.761,IAT(Formal),2021.2.3,Win32,60.60606061,,,,,,,,,,,,,,,,,,,,,,,,,,,,,,,,,,,,,,,,,,,,i,1,0.8143,0,54,54,52,1,我们,i,,,,,,,,,,,,
,,,,,,,,,,,,,,1,001,2025-01-25_19h35.04.761,IAT(Formal),2021.2.3,Win32,60.60606061,,,,,,,,,,,,,,,,,,,,,,,,,,,,,,,,,,,,,,,,,,,,i,1,0.5181,0,55,55,63,1,自己,i,,,,,,,,,,,,
,,,,,,,,,,,,,,1,001,2025-01-25_19h35.04.761,IAT(Formal),2021.2.3,Win32,60.60606061,,,,,,,,,,,,,,,,,,,,,,,,,,,,,,,,,,,,,,,,,,,,e,0,0.7561,0,56,56,38,1,鲁莽,i,,,,,,,,,,,,
,,,,,,,,,,,,,,1,001,2025-01-25_19h35.04.761,IAT(Formal),2021.2.3,Win32,60.60606061,,,,,,,,,,,,,,,,,,,,,,,,,,,,,,,,,,,,,,,,,,,,e,1,0.8924,0,57,57,5,1,他,e,,,,,,,,,,,,
,,,,,,,,,,,,,,1,001,2025-01-25_19h35.04.761,IAT(Formal),2021.2.3,Win32,60.60606061,,,,,,,,,,,,,,,,,,,,,,,,,,,,,,,,,,,,,,,,,,,,i,1,0.6943,0,58,58,49,1,下贱,i,,,,,,,,,,,,
,,,,,,,,,,,,,,1,001,2025-01-25_19h35.04.761,IAT(Formal),2021.2.3,Win32,60.60606061,,,,,,,,,,,,,,,,,,,,,,,,,,,,,,,,,,,,,,,,,,,,e,1,0.7776,0,59,59,18,1,勤奋,e,,,,,,,,,,,,
,,,,,,,,,,,,,,1,001,2025-01-25_19h35.04.761,IAT(Formal),2021.2.3,Win32,60.60606061,,,,,,,,,,,,,,,,,,,,,,,,,,,,,,,,,,,,,,,,,,,,i,1,0.8961,0,60,60,3,1,自己,i,,,,,,,,,,,,
,,,,,,,,,,,,,,1,001,2025-01-25_19h35.04.761,IAT(Formal),2021.2.3,Win32,60.60606061,,,,,,,,,,,,,,,,,,,,,,,,,,,,,,,,,,,,,,,,,,,,e,1,1.1506,0,61,61,24,1,朴实,e,,,,,,,,,,,,
,,,,,,,,,,,,,,1,001,2025-01-25_19h35.04.761,IAT(Formal),2021.2.3,Win32,60.60606061,,,,,,,,,,,,,,,,,,,,,,,,,,,,,,,,,,,,,,,,,,,,e,1,0.3995,0,62,62,27,1,热情,e,,,,,,,,,,,,
,,,,,,,,,,,,,,1,001,2025-01-25_19h35.04.761,IAT(Formal),2021.2.3,Win32,60.60606061,,,,,,,,,,,,,,,,,,,,,,,,,,,,,,,,,,,,,,,,,,,,i,1,0.6345,0,63,63,45,1,猖狂,i,,,,,,,,,,,,
,,,,,,,,,,,,,,1,001,2025-01-25_19h35.04.761,IAT(Formal),2021.2.3,Win32,60.60606061,,,,,,,,,,,,,,,,,,,,,,,,,,,,,,,,,,,,,,,,,,,,i,1,1.091,0,64,64,44,1,暴躁,i,,,,,,,,,,,,
,,,,,,,,,,,,,,1,001,2025-01-25_19h35.04.761,IAT(Formal),2021.2.3,Win32,60.60606061,,,,,,,,,,,,,,,,,,,,,,,,,,,,,,,,,,,,,,,,,,,,i,1,0.9772,0,65,65,37,1,傲慢,i,,,,,,,,,,,,
,,,,,,,,,,,,,,1,001,2025-01-25_19h35.04.761,IAT(Formal),2021.2.3,Win32,60.60606061,,,,,,,,,,,,,,,,,,,,,,,,,,,,,,,,,,,,,,,,,,,,e,1,0.6817,0,66,66,56,1,他们,e,,,,,,,,,,,,
,,,,,,,,,,,,,,1,001,2025-01-25_19h35.04.761,IAT(Formal),2021.2.3,Win32,60.60606061,,,,,,,,,,,,,,,,,,,,,,,,,,,,,,,,,,,,,,,,,,,,e,1,0.3991,0,67,67,59,1,其他,e,,,,,,,,,,,,
,,,,,,,,,,,,,,1,001,2025-01-25_19h35.04.761,IAT(Formal),2021.2.3,Win32,60.60606061,,,,,,,,,,,,,,,,,,,,,,,,,,,,,,,,,,,,,,,,,,,,e,1,0.4462,0,68,68,66,1,他们,e,,,,,,,,,,,,
,,,,,,,,,,,,,,1,001,2025-01-25_19h35.04.761,IAT(Formal),2021.2.3,Win32,60.60606061,,,,,,,,,,,,,,,,,,,,,,,,,,,,,,,,,,,,,,,,,,,,e,0,0.547,0,69,69,0,1,我,i,,,,,,,,,,,,
,,,,,,,,,,,,,,1,001,2025-01-25_19h35.04.761,IAT(Formal),2021.2.3,Win32,60.60606061,,,,,,,,,,,,,,,,,,,,,,,,,,,,,,,,,,,,,,,,,,,,i,0,0.7149,0,70,70,20,1,认真,e,,,,,,,,,,,,
,,,,,,,,,,,,,,1,001,2025-01-25_19h35.04.761,IAT(Formal),2021.2.3,Win32,60.60606061,,,,,,,,,,,,,,,,,,,,,,,,,,,,,,,,,,,,,,,,,,,,i,1,0.8648,0,71,71,33,1,刻薄,i,,,,,,,,,,,,
,,,,,,,,,,,,,,1,001,2025-01-25_19h35.04.761,IAT(Formal),2021.2.3,Win32,60.60606061,,,,,,,,,,,,,,,,,,,,,,,,,,,,,,,,,,,,,,,,,,,,e,1,0.7144,0,72,72,68,1,他人,e,,,,,,,,,,,,
,,,,,,,,,,,,,,1,001,2025-01-25_19h35.04.761,IAT(Formal),2021.2.3,Win32,60.60606061,,,,,,,,,,,,,,,,,,,,,,,,,,,,,,,,,,,,,,,,,,,,,0,,0,73,73,41,1,散漫,i,,,,,,,,,,,,
,,,,,,,,,,,,,,1,001,2025-01-25_19h35.04.761,IAT(Formal),2021.2.3,Win32,60.60606061,,,,,,,,,,,,,,,,,,,,,,,,,,,,,,,,,,,,,,,,,,,,e,1,0.6358,0,74,74,19,1,机智,e,,,,,,,,,,,,
,,,,,,,,,,,,,,1,001,2025-01-25_19h35.04.761,IAT(Formal),2021.2.3,Win32,60.60606061,,,,,,,,,,,,,,,,,,,,,,,,,,,,,,,,,,,,,,,,,,,,i,1,0.5289,0,75,75,30,1,卑鄙,i,,,,,,,,,,,,
,,,,,,,,,,,,,,1,001,2025-01-25_19h35.04.761,IAT(Formal),2021.2.3,Win32,60.60606061,,,,,,,,,,,,,,,,,,,,,,,,,,,,,,,,,,,,,,,,,,,,i,1,0.4559,0,76,76,70,1,我,i,,,,,,,,,,,,
,,,,,,,,,,,,,,1,001,2025-01-25_19h35.04.761,IAT(Formal),2021.2.3,Win32,60.60606061,,,,,,,,,,,,,,,,,,,,,,,,,,,,,,,,,,,,,,,,,,,,i,1,0.6877,0,77,77,64,1,俺,i,,,,,,,,,,,,
,,,,,,,,,,,,,,1,001,2025-01-25_19h35.04.761,IAT(Formal),2021.2.3,Win32,60.60606061,,,,,,,,,,,,,,,,,,,,,,,,,,,,,,,,,,,,,,,,,,,,i,0,1.172,0,78,78,29,1,诚恳,e,,,,,,,,,,,,
,,,,,,,,,,,,,,1,001,2025-01-25_19h35.04.761,IAT(Formal),2021.2.3,Win32,60.60606061,,,,,,,,,,,,,,,,,,,,,,,,,,,,,,,,,,,,,,,,,,,,e,1,0.8032,0,79,79,58,1,他人,e,,,,,,,,,,,,
,,,,,,,,,,,,,,1,001,2025-01-25_19h35.04.761,IAT(Formal),2021.2.3,Win32,60.60606061,,,,,,,,,,,,,,,,,,,,,,,,,,,,,,,,,,,,,,,,,,,,,,,,,,,,其他,e,space,10.9963,e,1,1.0459,0,0,0,79,1,,
,,,,,,,,,,,,,,1,001,2025-01-25_19h35.04.761,IAT(Formal),2021.2.3,Win32,60.60606061,,,,,,,,,,,,,,,,,,,,,,,,,,,,,,,,,,,,,,,,,,,,,,,,,,,,我们,i,,,i,1,0.6955,0,1,1,72,1,,
,,,,,,,,,,,,,,1,001,2025-01-25_19h35.04.761,IAT(Formal),2021.2.3,Win32,60.60606061,,,,,,,,,,,,,,,,,,,,,,,,,,,,,,,,,,,,,,,,,,,,,,,,,,,,他,e,,,e,1,0.6219,0,2,2,55,1,,
,,,,,,,,,,,,,,1,001,2025-01-25_19h35.04.761,IAT(Formal),2021.2.3,Win32,60.60606061,,,,,,,,,,,,,,,,,,,,,,,,,,,,,,,,,,,,,,,,,,,,,,,,,,,,聪明,e,,,e,1,0.6007,0,3,3,12,1,,
,,,,,,,,,,,,,,1,001,2025-01-25_19h35.04.761,IAT(Formal),2021.2.3,Win32,60.60606061,,,,,,,,,,,,,,,,,,,,,,,,,,,,,,,,,,,,,,,,,,,,,,,,,,,,固执,i,,,i,1,0.6782,0,4,4,47,1,,
,,,,,,,,,,,,,,1,001,2025-01-25_19h35.04.761,IAT(Formal),2021.2.3,Win32,60.60606061,,,,,,,,,,,,,,,,,,,,,,,,,,,,,,,,,,,,,,,,,,,,,,,,,,,,乐观,e,,,e,1,0.9096,0,5,5,14,1,,
,,,,,,,,,,,,,,1,001,2025-01-25_19h35.04.761,IAT(Formal),2021.2.3,Win32,60.60606061,,,,,,,,,,,,,,,,,,,,,,,,,,,,,,,,,,,,,,,,,,,,,,,,,,,,暴躁,i,,,i,1,0.5322,0,6,6,44,1,,
,,,,,,,,,,,,,,1,001,2025-01-25_19h35.04.761,IAT(Formal),2021.2.3,Win32,60.60606061,,,,,,,,,,,,,,,,,,,,,,,,,,,,,,,,,,,,,,,,,,,,,,,,,,,,愚蠢,i,,,i,1,0.596,0,7,7,32,1,,
,,,,,,,,,,,,,,1,001,2025-01-25_19h35.04.761,IAT(Formal),2021.2.3,Win32,60.60606061,,,,,,,,,,,,,,,,,,,,,,,,,,,,,,,,,,,,,,,,,,,,,,,,,,,,诚恳,e,,,e,1,1.123,0,8,8,29,1,,
,,,,,,,,,,,,,,1,001,2025-01-25_19h35.04.761,IAT(Formal),2021.2.3,Win32,60.60606061,,,,,,,,,,,,,,,,,,,,,,,,,,,,,,,,,,,,,,,,,,,,,,,,,,,,其他,e,,,,0,,0,9,9,69,1,,
,,,,,,,,,,,,,,1,001,2025-01-25_19h35.04.761,IAT(Formal),2021.2.3,Win32,60.60606061,,,,,,,,,,,,,,,,,,,,,,,,,,,,,,,,,,,,,,,,,,,,,,,,,,,,我们,i,,,i,1,0.4194,0,10,10,2,1,,
,,,,,,,,,,,,,,1,001,2025-01-25_19h35.04.761,IAT(Formal),2021.2.3,Win32,60.60606061,,,,,,,,,,,,,,,,,,,,,,,,,,,,,,,,,,,,,,,,,,,,,,,,,,,,优秀,e,,,e,1,0.5711,0,11,11,10,1,,
,,,,,,,,,,,,,,1,001,2025-01-25_19h35.04.761,IAT(Formal),2021.2.3,Win32,60.60606061,,,,,,,,,,,,,,,,,,,,,,,,,,,,,,,,,,,,,,,,,,,,,,,,,,,,机智,e,,,i,0,0.9019,0,12,12,19,1,,
,,,,,,,,,,,,,,1,001,2025-01-25_19h35.04.761,IAT(Formal),2021.2.3,Win32,60.60606061,,,,,,,,,,,,,,,,,,,,,,,,,,,,,,,,,,,,,,,,,,,,,,,,,,,,鲁莽,i,,,i,1,0.6302,0,13,13,38,1,,
,,,,,,,,,,,,,,1,001,2025-01-25_19h35.04.761,IAT(Formal),2021.2.3,Win32,60.60606061,,,,,,,,,,,,,,,,,,,,,,,,,,,,,,,,,,,,,,,,,,,,,,,,,,,,俺,i,,,i,1,0.5068,0,14,14,54,1,,
,,,,,,,,,,,,,,1,001,2025-01-25_19h35.04.761,IAT(Formal),2021.2.3,Win32,60.60606061,,,,,,,,,,,,,,,,,,,,,,,,,,,,,,,,,,,,,,,,,,,,,,,,,,,,他的,e,,,e,1,0.5163,0,15,15,77,1,,
,,,,,,,,,,,,,,1,001,2025-01-25_19h35.04.761,IAT(Formal),2021.2.3,Win32,60.60606061,,,,,,,,,,,,,,,,,,,,,,,,,,,,,,,,,,,,,,,,,,,,,,,,,,,,自己,i,,,i,1,0.5552,0,16,16,3,1,,
,,,,,,,,,,,,,,1,001,2025-01-25_19h35.04.761,IAT(Formal),2021.2.3,Win32,60.60606061,,,,,,,,,,,,,,,,,,,,,,,,,,,,,,,,,,,,,,,,,,,,,,,,,,,,他,e,,,e,1,0.6561,0,17,17,5,1,,
,,,,,,,,,,,,,,1,001,2025-01-25_19h35.04.761,IAT(Formal),2021.2.3,Win32,60.60606061,,,,,,,,,,,,,,,,,,,,,,,,,,,,,,,,,,,,,,,,,,,,,,,,,,,,杰出,e,,,e,1,0.5132,0,18,18,13,1,,
,,,,,,,,,,,,,,1,001,2025-01-25_19h35.04.761,IAT(Formal),2021.2.3,Win32,60.60606061,,,,,,,,,,,,,,,,,,,,,,,,,,,,,,,,,,,,,,,,,,,,,,,,,,,,自己,i,,,i,1,0.6323,0,19,19,73,1,,
,,,,,,,,,,,,,,1,001,2025-01-25_19h35.04.761,IAT(Formal),2021.2.3,Win32,60.60606061,,,,,,,,,,,,,,,,,,,,,,,,,,,,,,,,,,,,,,,,,,,,,,,,,,,,虚伪,i,,,i,1,1.3122,0,20,20,31,1,,
,,,,,,,,,,,,,,1,001,2025-01-25_19h35.04.761,IAT(Formal),2021.2.3,Win32,60.60606061,,,,,,,,,,,,,,,,,,,,,,,,,,,,,,,,,,,,,,,,,,,,,,,,,,,,冷静,e,,,e,1,0.5427,0,21,21,26,1,,
,,,,,,,,,,,,,,1,001,2025-01-25_19h35.04.761,IAT(Formal),2021.2.3,Win32,60.60606061,,,,,,,,,,,,,,,,,,,,,,,,,,,,,,,,,,,,,,,,,,,,,,,,,,,,俺,i,,,i,1,0.4377,0,22,22,64,1,,
,,,,,,,,,,,,,,1,001,2025-01-25_19h35.04.761,IAT(Formal),2021.2.3,Win32,60.60606061,,,,,,,,,,,,,,,,,,,,,,,,,,,,,,,,,,,,,,,,,,,,,,,,,,,,我,i,,,i,1,0.3603,0,23,23,0,1,,
,,,,,,,,,,,,,,1,001,2025-01-25_19h35.04.761,IAT(Formal),2021.2.3,Win32,60.60606061,,,,,,,,,,,,,,,,,,,,,,,,,,,,,,,,,,,,,,,,,,,,,,,,,,,,崇高,e,,,e,1,0.5839,0,24,24,11,1,,
,,,,,,,,,,,,,,1,001,2025-01-25_19h35.04.761,IAT(Formal),2021.2.3,Win32,60.60606061,,,,,,,,,,,,,,,,,,,,,,,,,,,,,,,,,,,,,,,,,,,,,,,,,,,,自私,i,,,i,1,0.5839,0,25,25,43,1,,
,,,,,,,,,,,,,,1,001,2025-01-25_19h35.04.761,IAT(Formal),2021.2.3,Win32,60.60606061,,,,,,,,,,,,,,,,,,,,,,,,,,,,,,,,,,,,,,,,,,,,,,,,,,,,自己,i,,,i,1,0.4755,0,26,26,53,1,,
,,,,,,,,,,,,,,1,001,2025-01-25_19h35.04.761,IAT(Formal),2021.2.3,Win32,60.60606061,,,,,,,,,,,,,,,,,,,,,,,,,,,,,,,,,,,,,,,,,,,,,,,,,,,,我们,i,,,i,1,0.3504,0,27,27,62,1,,
,,,,,,,,,,,,,,1,001,2025-01-25_19h35.04.761,IAT(Formal),2021.2.3,Win32,60.60606061,,,,,,,,,,,,,,,,,,,,,,,,,,,,,,,,,,,,,,,,,,,,,,,,,,,,消极,i,,,e,0,0.6542,0,28,28,35,1,,
,,,,,,,,,,,,,,1,001,2025-01-25_19h35.04.761,IAT(Formal),2021.2.3,Win32,60.60606061,,,,,,,,,,,,,,,,,,,,,,,,,,,,,,,,,,,,,,,,,,,,,,,,,,,,凶狠,i,,,i,1,0.5798,0,29,29,42,1,,
,,,,,,,,,,,,,,1,001,2025-01-25_19h35.04.761,IAT(Formal),2021.2.3,Win32,60.60606061,,,,,,,,,,,,,,,,,,,,,,,,,,,,,,,,,,,,,,,,,,,,,,,,,,,,认真,e,,,e,1,0.6834,0,30,30,20,1,,
,,,,,,,,,,,,,,1,001,2025-01-25_19h35.04.761,IAT(Formal),2021.2.3,Win32,60.60606061,,,,,,,,,,,,,,,,,,,,,,,,,,,,,,,,,,,,,,,,,,,,,,,,,,,,傲慢,i,,,i,1,0.563,0,31,31,37,1,,
,,,,,,,,,,,,,,1,001,2025-01-25_19h35.04.761,IAT(Formal),2021.2.3,Win32,60.60606061,,,,,,,,,,,,,,,,,,,,,,,,,,,,,,,,,,,,,,,,,,,,,,,,,,,,下贱,i,,,i,1,0.5656,0,32,32,49,1,,
,,,,,,,,,,,,,,1,001,2025-01-25_19h35.04.761,IAT(Formal),2021.2.3,Win32,60.60606061,,,,,,,,,,,,,,,,,,,,,,,,,,,,,,,,,,,,,,,,,,,,,,,,,,,,他人,e,,,i,0,0.639,0,33,33,8,1,,
,,,,,,,,,,,,,,1,001,2025-01-25_19h35.04.761,IAT(Formal),2021.2.3,Win32,60.60606061,,,,,,,,,,,,,,,,,,,,,,,,,,,,,,,,,,,,,,,,,,,,,,,,,,,,我,i,,,i,1,0.5177,0,34,34,60,1,,
,,,,,,,,,,,,,,1,001,2025-01-25_19h35.04.761,IAT(Formal),2021.2.3,Win32,60.60606061,,,,,,,,,,,,,,,,,,,,,,,,,,,,,,,,,,,,,,,,,,,,,,,,,,,,他人,e,,,e,1,0.4114,0,35,35,58,1,,
,,,,,,,,,,,,,,1,001,2025-01-25_19h35.04.761,IAT(Formal),2021.2.3,Win32,60.60606061,,,,,,,,,,,,,,,,,,,,,,,,,,,,,,,,,,,,,,,,,,,,,,,,,,,,悲观,i,,,i,1,0.6164,0,36,36,34,1,,
,,,,,,,,,,,,,,1,001,2025-01-25_19h35.04.761,IAT(Formal),2021.2.3,Win32,60.60606061,,,,,,,,,,,,,,,,,,,,,,,,,,,,,,,,,,,,,,,,,,,,,,,,,,,,他们,e,,,e,1,0.6818,0,37,37,56,1,,
,,,,,,,,,,,,,,1,001,2025-01-25_19h35.04.761,IAT(Formal),2021.2.3,Win32,60.60606061,,,,,,,,,,,,,,,,,,,,,,,,,,,,,,,,,,,,,,,,,,,,,,,,,,,,我们,i,,,i,1,0.5084,0,38,38,52,1,,
,,,,,,,,,,,,,,1,001,2025-01-25_19h35.04.761,IAT(Formal),2021.2.3,Win32,60.60606061,,,,,,,,,,,,,,,,,,,,,,,,,,,,,,,,,,,,,,,,,,,,,,,,,,,,他的,e,,,e,1,0.5981,0,39,39,67,1,,
,,,,,,,,,,,,,,1,001,2025-01-25_19h35.04.761,IAT(Formal),2021.2.3,Win32,60.60606061,,,,,,,,,,,,,,,,,,,,,,,,,,,,,,,,,,,,,,,,,,,,,,,,,,,,他的,e,,,e,1,0.478,0,40,40,7,1,,
,,,,,,,,,,,,,,1,001,2025-01-25_19h35.04.761,IAT(Formal),2021.2.3,Win32,60.60606061,,,,,,,,,,,,,,,,,,,,,,,,,,,,,,,,,,,,,,,,,,,,,,,,,,,,朴实,e,,,e,1,1.4257,0,41,41,24,1,,
,,,,,,,,,,,,,,1,001,2025-01-25_19h35.04.761,IAT(Formal),2021.2.3,Win32,60.60606061,,,,,,,,,,,,,,,,,,,,,,,,,,,,,,,,,,,,,,,,,,,,,,,,,,,,勇敢,e,,,e,1,1.1727,0,42,42,17,1,,
,,,,,,,,,,,,,,1,001,2025-01-25_19h35.04.761,IAT(Formal),2021.2.3,Win32,60.60606061,,,,,,,,,,,,,,,,,,,,,,,,,,,,,,,,,,,,,,,,,,,,,,,,,,,,他们,e,,,e,1,0.8788,0,43,43,66,1,,
,,,,,,,,,,,,,,1,001,2025-01-25_19h35.04.761,IAT(Formal),2021.2.3,Win32,60.60606061,,,,,,,,,,,,,,,,,,,,,,,,,,,,,,,,,,,,,,,,,,,,,,,,,,,,野蛮,i,,,i,1,0.6969,0,44,44,46,1,,
,,,,,,,,,,,,,,1,001,2025-01-25_19h35.04.761,IAT(Formal),2021.2.3,Win32,60.60606061,,,,,,,,,,,,,,,,,,,,,,,,,,,,,,,,,,,,,,,,,,,,,,,,,,,,公正,e,,,e,1,0.8723,0,45,45,23,1,,
,,,,,,,,,,,,,,1,001,2025-01-25_19h35.04.761,IAT(Formal),2021.2.3,Win32,60.60606061,,,,,,,,,,,,,,,,,,,,,,,,,,,,,,,,,,,,,,,,,,,,,,,,,,,,无私,e,,,i,0,0.6272,0,46,46,22,1,,
,,,,,,,,,,,,,,1,001,2025-01-25_19h35.04.761,IAT(Formal),2021.2.3,Win32,60.60606061,,,,,,,,,,,,,,,,,,,,,,,,,,,,,,,,,,,,,,,,,,,,,,,,,,,,刻薄,i,,,i,1,0.6175,0,47,47,33,1,,
,,,,,,,,,,,,,,1,001,2025-01-25_19h35.04.761,IAT(Formal),2021.2.3,Win32,60.60606061,,,,,,,,,,,,,,,,,,,,,,,,,,,,,,,,,,,,,,,,,,,,,,,,,,,,他们,e,,,e,1,1.1733,0,48,48,76,1,,
,,,,,,,,,,,,,,1,001,2025-01-25_19h35.04.761,IAT(Formal),2021.2.3,Win32,60.60606061,,,,,,,,,,,,,,,,,,,,,,,,,,,,,,,,,,,,,,,,,,,,,,,,,,,,他,e,,,e,1,1.2312,0,49,49,75,1,,
,,,,,,,,,,,,,,1,001,2025-01-25_19h35.04.761,IAT(Formal),2021.2.3,Win32,60.60606061,,,,,,,,,,,,,,,,,,,,,,,,,,,,,,,,,,,,,,,,,,,,,,,,,,,,其他,e,,,,0,,0,50,50,59,1,,
,,,,,,,,,,,,,,1,001,2025-01-25_19h35.04.761,IAT(Formal),2021.2.3,Win32,60.60606061,,,,,,,,,,,,,,,,,,,,,,,,,,,,,,,,,,,,,,,,,,,,,,,,,,,,散漫,i,,,i,1,0.9437,0,51,51,41,1,,
,,,,,,,,,,,,,,1,001,2025-01-25_19h35.04.761,IAT(Formal),2021.2.3,Win32,60.60606061,,,,,,,,,,,,,,,,,,,,,,,,,,,,,,,,,,,,,,,,,,,,,,,,,,,,我,i,,,i,1,1.0286,0,52,52,70,1,,
,,,,,,,,,,,,,,1,001,2025-01-25_19h35.04.761,IAT(Formal),2021.2.3,Win32,60.60606061,,,,,,,,,,,,,,,,,,,,,,,,,,,,,,,,,,,,,,,,,,,,,,,,,,,,我的,i,,,i,1,0.9141,0,53,53,71,1,,
,,,,,,,,,,,,,,1,001,2025-01-25_19h35.04.761,IAT(Formal),2021.2.3,Win32,60.60606061,,,,,,,,,,,,,,,,,,,,,,,,,,,,,,,,,,,,,,,,,,,,,,,,,,,,自己,i,,,i,1,0.7671,0,54,54,63,1,,
,,,,,,,,,,,,,,1,001,2025-01-25_19h35.04.761,IAT(Formal),2021.2.3,Win32,60.60606061,,,,,,,,,,,,,,,,,,,,,,,,,,,,,,,,,,,,,,,,,,,,,,,,,,,,稳重,e,,,e,1,0.9267,0,55,55,21,1,,
,,,,,,,,,,,,,,1,001,2025-01-25_19h35.04.761,IAT(Formal),2021.2.3,Win32,60.60606061,,,,,,,,,,,,,,,,,,,,,,,,,,,,,,,,,,,,,,,,,,,,,,,,,,,,冒失,i,,,i,1,0.7721,0,56,56,39,1,,
,,,,,,,,,,,,,,1,001,2025-01-25_19h35.04.761,IAT(Formal),2021.2.3,Win32,60.60606061,,,,,,,,,,,,,,,,,,,,,,,,,,,,,,,,,,,,,,,,,,,,,,,,,,,,正直,e,,,e,1,0.7746,0,57,57,16,1,,
,,,,,,,,,,,,,,1,001,2025-01-25_19h35.04.761,IAT(Formal),2021.2.3,Win32,60.60606061,,,,,,,,,,,,,,,,,,,,,,,,,,,,,,,,,,,,,,,,,,,,,,,,,,,,他人,e,,,e,1,1.0518,0,58,58,68,1,,
,,,,,,,,,,,,,,1,001,2025-01-25_19h35.04.761,IAT(Formal),2021.2.3,Win32,60.60606061,,,,,,,,,,,,,,,,,,,,,,,,,,,,,,,,,,,,,,,,,,,,,,,,,,,,活泼,e,,,e,1,1.1418,0,59,59,28,1,,
,,,,,,,,,,,,,,1,001,2025-01-25_19h35.04.761,IAT(Formal),2021.2.3,Win32,60.60606061,,,,,,,,,,,,,,,,,,,,,,,,,,,,,,,,,,,,,,,,,,,,,,,,,,,,他人,e,,,e,1,1.0557,0,60,60,78,1,,
,,,,,,,,,,,,,,1,001,2025-01-25_19h35.04.761,IAT(Formal),2021.2.3,Win32,60.60606061,,,,,,,,,,,,,,,,,,,,,,,,,,,,,,,,,,,,,,,,,,,,,,,,,,,,自卑,i,,,i,1,0.8501,0,61,61,36,1,,
,,,,,,,,,,,,,,1,001,2025-01-25_19h35.04.761,IAT(Formal),2021.2.3,Win32,60.60606061,,,,,,,,,,,,,,,,,,,,,,,,,,,,,,,,,,,,,,,,,,,,,,,,,,,,俺,i,,,i,1,0.7674,0,62,62,4,1,,
,,,,,,,,,,,,,,1,001,2025-01-25_19h35.04.761,IAT(Formal),2021.2.3,Win32,60.60606061,,,,,,,,,,,,,,,,,,,,,,,,,,,,,,,,,,,,,,,,,,,,,,,,,,,,诚实,e,,,e,1,0.8283,0,63,63,15,1,,
,,,,,,,,,,,,,,1,001,2025-01-25_19h35.04.761,IAT(Formal),2021.2.3,Win32,60.60606061,,,,,,,,,,,,,,,,,,,,,,,,,,,,,,,,,,,,,,,,,,,,,,,,,,,,细腻,e,,,e,1,0.9016,0,64,64,25,1,,
,,,,,,,,,,,,,,1,001,2025-01-25_19h35.04.761,IAT(Formal),2021.2.3,Win32,60.60606061,,,,,,,,,,,,,,,,,,,,,,,,,,,,,,,,,,,,,,,,,,,,,,,,,,,,轻率,i,,,i,1,0.9532,0,65,65,48,1,,
,,,,,,,,,,,,,,1,001,2025-01-25_19h35.04.761,IAT(Formal),2021.2.3,Win32,60.60606061,,,,,,,,,,,,,,,,,,,,,,,,,,,,,,,,,,,,,,,,,,,,,,,,,,,,他们,e,,,e,1,0.795,0,66,66,6,1,,
,,,,,,,,,,,,,,1,001,2025-01-25_19h35.04.761,IAT(Formal),2021.2.3,Win32,60.60606061,,,,,,,,,,,,,,,,,,,,,,,,,,,,,,,,,,,,,,,,,,,,,,,,,,,,执拗,i,,,i,1,0.8938,0,67,67,40,1,,
,,,,,,,,,,,,,,1,001,2025-01-25_19h35.04.761,IAT(Formal),2021.2.3,Win32,60.60606061,,,,,,,,,,,,,,,,,,,,,,,,,,,,,,,,,,,,,,,,,,,,,,,,,,,,其他,e,,,e,1,0.9343,0,68,68,9,1,,
,,,,,,,,,,,,,,1,001,2025-01-25_19h35.04.761,IAT(Formal),2021.2.3,Win32,60.60606061,,,,,,,,,,,,,,,,,,,,,,,,,,,,,,,,,,,,,,,,,,,,,,,,,,,,我,i,,,i,1,0.6544,0,69,69,50,1,,
,,,,,,,,,,,,,,1,001,2025-01-25_19h35.04.761,IAT(Formal),2021.2.3,Win32,60.60606061,,,,,,,,,,,,,,,,,,,,,,,,,,,,,,,,,,,,,,,,,,,,,,,,,,,,我的,i,,,i,1,1.1248,0,70,70,51,1,,
,,,,,,,,,,,,,,1,001,2025-01-25_19h35.04.761,IAT(Formal),2021.2.3,Win32,60.60606061,,,,,,,,,,,,,,,,,,,,,,,,,,,,,,,,,,,,,,,,,,,,,,,,,,,,猖狂,i,,,i,1,0.6403,0,71,71,45,1,,
,,,,,,,,,,,,,,1,001,2025-01-25_19h35.04.761,IAT(Formal),2021.2.3,Win32,60.60606061,,,,,,,,,,,,,,,,,,,,,,,,,,,,,,,,,,,,,,,,,,,,,,,,,,,,我的,i,,,i,1,0.4855,0,72,72,1,1,,
,,,,,,,,,,,,,,1,001,2025-01-25_19h35.04.761,IAT(Formal),2021.2.3,Win32,60.60606061,,,,,,,,,,,,,,,,,,,,,,,,,,,,,,,,,,,,,,,,,,,,,,,,,,,,他,e,,,e,1,0.8964,0,73,73,65,1,,
,,,,,,,,,,,,,,1,001,2025-01-25_19h35.04.761,IAT(Formal),2021.2.3,Win32,60.60606061,,,,,,,,,,,,,,,,,,,,,,,,,,,,,,,,,,,,,,,,,,,,,,,,,,,,热情,e,,,,0,,0,74,74,27,1,,
,,,,,,,,,,,,,,1,001,2025-01-25_19h35.04.761,IAT(Formal),2021.2.3,Win32,60.60606061,,,,,,,,,,,,,,,,,,,,,,,,,,,,,,,,,,,,,,,,,,,,,,,,,,,,俺,i,,,i,1,0.6148,0,75,75,74,1,,
,,,,,,,,,,,,,,1,001,2025-01-25_19h35.04.761,IAT(Formal),2021.2.3,Win32,60.60606061,,,,,,,,,,,,,,,,,,,,,,,,,,,,,,,,,,,,,,,,,,,,,,,,,,,,他的,e,,,e,1,1.2994,0,76,76,57,1,,
,,,,,,,,,,,,,,1,001,2025-01-25_19h35.04.761,IAT(Formal),2021.2.3,Win32,60.60606061,,,,,,,,,,,,,,,,,,,,,,,,,,,,,,,,,,,,,,,,,,,,,,,,,,,,卑鄙,i,,,i,1,0.7975,0,77,77,30,1,,
,,,,,,,,,,,,,,1,001,2025-01-25_19h35.04.761,IAT(Formal),2021.2.3,Win32,60.60606061,,,,,,,,,,,,,,,,,,,,,,,,,,,,,,,,,,,,,,,,,,,,,,,,,,,,勤奋,e,,,e,1,0.9361,0,78,78,18,1,,
,,,,,,,,,,,,,,1,001,2025-01-25_19h35.04.761,IAT(Formal),2021.2.3,Win32,60.60606061,,,,,,,,,,,,,,,,,,,,,,,,,,,,,,,,,,,,,,,,,,,,,,,,,,,,我的,i,,,i,1,0.5679,0,79,79,61,1,,
,,,,,,,,,,,,,,1,001,2025-01-25_19h35.04.761,IAT(Formal),2021.2.3,Win32,60.60606061,,,,,,,,,,,,,,,,,,,,,,,,,,,,,,,,,,,,,,,,,,,,,,,,,,,,诚实,e,,,i,0,1.4623,1,0,80,15,1,,
,,,,,,,,,,,,,,1,001,2025-01-25_19h35.04.761,IAT(Formal),2021.2.3,Win32,60.60606061,,,,,,,,,,,,,,,,,,,,,,,,,,,,,,,,,,,,,,,,,,,,,,,,,,,,我,i,,,i,1,0.4178,1,1,81,60,1,,
,,,,,,,,,,,,,,1,001,2025-01-25_19h35.04.761,IAT(Formal),2021.2.3,Win32,60.60606061,,,,,,,,,,,,,,,,,,,,,,,,,,,,,,,,,,,,,,,,,,,,,,,,,,,,热情,e,,,e,1,0.6552,1,2,82,27,1,,
,,,,,,,,,,,,,,1,001,2025-01-25_19h35.04.761,IAT(Formal),2021.2.3,Win32,60.60606061,,,,,,,,,,,,,,,,,,,,,,,,,,,,,,,,,,,,,,,,,,,,,,,,,,,,他,e,,,e,1,0.5133,1,3,83,5,1,,
,,,,,,,,,,,,,,1,001,2025-01-25_19h35.04.761,IAT(Formal),2021.2.3,Win32,60.60606061,,,,,,,,,,,,,,,,,,,,,,,,,,,,,,,,,,,,,,,,,,,,,,,,,,,,我的,i,,,i,1,0.5502,1,4,84,1,1,,
,,,,,,,,,,,,,,1,001,2025-01-25_19h35.04.761,IAT(Formal),2021.2.3,Win32,60.60606061,,,,,,,,,,,,,,,,,,,,,,,,,,,,,,,,,,,,,,,,,,,,,,,,,,,,其他,e,,,e,1,0.5943,1,5,85,59,1,,
,,,,,,,,,,,,,,1,001,2025-01-25_19h35.04.761,IAT(Formal),2021.2.3,Win32,60.60606061,,,,,,,,,,,,,,,,,,,,,,,,,,,,,,,,,,,,,,,,,,,,,,,,,,,,消极,i,,,i,1,0.7645,1,6,86,35,1,,
,,,,,,,,,,,,,,1,001,2025-01-25_19h35.04.761,IAT(Formal),2021.2.3,Win32,60.60606061,,,,,,,,,,,,,,,,,,,,,,,,,,,,,,,,,,,,,,,,,,,,,,,,,,,,他的,e,,,e,1,0.5651,1,7,87,77,1,,
,,,,,,,,,,,,,,1,001,2025-01-25_19h35.04.761,IAT(Formal),2021.2.3,Win32,60.60606061,,,,,,,,,,,,,,,,,,,,,,,,,,,,,,,,,,,,,,,,,,,,,,,,,,,,愚蠢,i,,,i,1,0.6831,1,8,88,32,1,,
,,,,,,,,,,,,,,1,001,2025-01-25_19h35.04.761,IAT(Formal),2021.2.3,Win32,60.60606061,,,,,,,,,,,,,,,,,,,,,,,,,,,,,,,,,,,,,,,,,,,,,,,,,,,,俺,i,,,e,0,0.9709,1,9,89,4,1,,
,,,,,,,,,,,,,,1,001,2025-01-25_19h35.04.761,IAT(Formal),2021.2.3,Win32,60.60606061,,,,,,,,,,,,,,,,,,,,,,,,,,,,,,,,,,,,,,,,,,,,,,,,,,,,自己,i,,,i,1,0.997,1,10,90,53,1,,
,,,,,,,,,,,,,,1,001,2025-01-25_19h35.04.761,IAT(Formal),2021.2.3,Win32,60.60606061,,,,,,,,,,,,,,,,,,,,,,,,,,,,,,,,,,,,,,,,,,,,,,,,,,,,我的,i,,,i,1,0.6697,1,11,91,71,1,,
,,,,,,,,,,,,,,1,001,2025-01-25_19h35.04.761,IAT(Formal),2021.2.3,Win32,60.60606061,,,,,,,,,,,,,,,,,,,,,,,,,,,,,,,,,,,,,,,,,,,,,,,,,,,,细腻,e,,,,0,,1,12,92,25,1,,
,,,,,,,,,,,,,,1,001,2025-01-25_19h35.04.761,IAT(Formal),2021.2.3,Win32,60.60606061,,,,,,,,,,,,,,,,,,,,,,,,,,,,,,,,,,,,,,,,,,,,,,,,,,,,聪明,e,,,e,1,0.4222,1,13,93,12,1,,
,,,,,,,,,,,,,,1,001,2025-01-25_19h35.04.761,IAT(Formal),2021.2.3,Win32,60.60606061,,,,,,,,,,,,,,,,,,,,,,,,,,,,,,,,,,,,,,,,,,,,,,,,,,,,他人,e,,,e,1,0.6035,1,14,94,68,1,,
,,,,,,,,,,,,,,1,001,2025-01-25_19h35.04.761,IAT(Formal),2021.2.3,Win32,60.60606061,,,,,,,,,,,,,,,,,,,,,,,,,,,,,,,,,,,,,,,,,,,,,,,,,,,,乐观,e,,,e,1,0.3798,1,15,95,14,1,,
,,,,,,,,,,,,,,1,001,2025-01-25_19h35.04.761,IAT(Formal),2021.2.3,Win32,60.60606061,,,,,,,,,,,,,,,,,,,,,,,,,,,,,,,,,,,,,,,,,,,,,,,,,,,,我的,i,,,i,1,0.465,1,16,96,61,1,,
,,,,,,,,,,,,,,1,001,2025-01-25_19h35.04.761,IAT(Formal),2021.2.3,Win32,60.60606061,,,,,,,,,,,,,,,,,,,,,,,,,,,,,,,,,,,,,,,,,,,,,,,,,,,,我们,i,,,i,1,0.8003,1,17,97,52,1,,
,,,,,,,,,,,,,,1,001,2025-01-25_19h35.04.761,IAT(Formal),2021.2.3,Win32,60.60606061,,,,,,,,,,,,,,,,,,,,,,,,,,,,,,,,,,,,,,,,,,,,,,,,,,,,诚恳,e,,,e,1,0.4289,1,18,98,29,1,,
,,,,,,,,,,,,,,1,001,2025-01-25_19h35.04.761,IAT(Formal),2021.2.3,Win32,60.60606061,,,,,,,,,,,,,,,,,,,,,,,,,,,,,,,,,,,,,,,,,,,,,,,,,,,,虚伪,i,,,i,1,0.6634,1,19,99,31,1,,
,,,,,,,,,,,,,,1,001,2025-01-25_19h35.04.761,IAT(Formal),2021.2.3,Win32,60.60606061,,,,,,,,,,,,,,,,,,,,,,,,,,,,,,,,,,,,,,,,,,,,,,,,,,,,悲观,i,,,e,0,0.6607,1,20,100,34,1,,
,,,,,,,,,,,,,,1,001,2025-01-25_19h35.04.761,IAT(Formal),2021.2.3,Win32,60.60606061,,,,,,,,,,,,,,,,,,,,,,,,,,,,,,,,,,,,,,,,,,,,,,,,,,,,其他,e,,,e,1,0.7101,1,21,101,69,1,,
,,,,,,,,,,,,,,1,001,2025-01-25_19h35.04.761,IAT(Formal),2021.2.3,Win32,60.60606061,,,,,,,,,,,,,,,,,,,,,,,,,,,,,,,,,,,,,,,,,,,,,,,,,,,,野蛮,i,,,i,1,0.5499,1,22,102,46,1,,
,,,,,,,,,,,,,,1,001,2025-01-25_19h35.04.761,IAT(Formal),2021.2.3,Win32,60.60606061,,,,,,,,,,,,,,,,,,,,,,,,,,,,,,,,,,,,,,,,,,,,,,,,,,,,他,e,,,e,1,0.6187,1,23,103,55,1,,
,,,,,,,,,,,,,,1,001,2025-01-25_19h35.04.761,IAT(Formal),2021.2.3,Win32,60.60606061,,,,,,,,,,,,,,,,,,,,,,,,,,,,,,,,,,,,,,,,,,,,,,,,,,,,执拗,i,,,i,1,0.5973,1,24,104,40,1,,
,,,,,,,,,,,,,,1,001,2025-01-25_19h35.04.761,IAT(Formal),2021.2.3,Win32,60.60606061,,,,,,,,,,,,,,,,,,,,,,,,,,,,,,,,,,,,,,,,,,,,,,,,,,,,机智,e,,,e,1,0.6947,1,25,105,19,1,,
,,,,,,,,,,,,,,1,001,2025-01-25_19h35.04.761,IAT(Formal),2021.2.3,Win32,60.60606061,,,,,,,,,,,,,,,,,,,,,,,,,,,,,,,,,,,,,,,,,,,,,,,,,,,,勤奋,e,,,e,1,0.5125,1,26,106,18,1,,
,,,,,,,,,,,,,,1,001,2025-01-25_19h35.04.761,IAT(Formal),2021.2.3,Win32,60.60606061,,,,,,,,,,,,,,,,,,,,,,,,,,,,,,,,,,,,,,,,,,,,,,,,,,,,卑鄙,i,,,i,1,0.5005,1,27,107,30,1,,
,,,,,,,,,,,,,,1,001,2025-01-25_19h35.04.761,IAT(Formal),2021.2.3,Win32,60.60606061,,,,,,,,,,,,,,,,,,,,,,,,,,,,,,,,,,,,,,,,,,,,,,,,,,,,勇敢,e,,,e,1,0.606,1,28,108,17,1,,
,,,,,,,,,,,,,,1,001,2025-01-25_19h35.04.761,IAT(Formal),2021.2.3,Win32,60.60606061,,,,,,,,,,,,,,,,,,,,,,,,,,,,,,,,,,,,,,,,,,,,,,,,,,,,自己,i,,,i,1,0.429,1,29,109,63,1,,
,,,,,,,,,,,,,,1,001,2025-01-25_19h35.04.761,IAT(Formal),2021.2.3,Win32,60.60606061,,,,,,,,,,,,,,,,,,,,,,,,,,,,,,,,,,,,,,,,,,,,,,,,,,,,崇高,e,,,e,1,0.5956,1,30,110,11,1,,
,,,,,,,,,,,,,,1,001,2025-01-25_19h35.04.761,IAT(Formal),2021.2.3,Win32,60.60606061,,,,,,,,,,,,,,,,,,,,,,,,,,,,,,,,,,,,,,,,,,,,,,,,,,,,刻薄,i,,,i,1,0.7269,1,31,111,33,1,,
,,,,,,,,,,,,,,1,001,2025-01-25_19h35.04.761,IAT(Formal),2021.2.3,Win32,60.60606061,,,,,,,,,,,,,,,,,,,,,,,,,,,,,,,,,,,,,,,,,,,,,,,,,,,,我们,i,,,i,1,0.4619,1,32,112,72,1,,
,,,,,,,,,,,,,,1,001,2025-01-25_19h35.04.761,IAT(Formal),2021.2.3,Win32,60.60606061,,,,,,,,,,,,,,,,,,,,,,,,,,,,,,,,,,,,,,,,,,,,,,,,,,,,俺,i,,,i,1,0.3842,1,33,113,54,1,,
,,,,,,,,,,,,,,1,001,2025-01-25_19h35.04.761,IAT(Formal),2021.2.3,Win32,60.60606061,,,,,,,,,,,,,,,,,,,,,,,,,,,,,,,,,,,,,,,,,,,,,,,,,,,,杰出,e,,,e,1,0.5791,1,34,114,13,1,,
,,,,,,,,,,,,,,1,001,2025-01-25_19h35.04.761,IAT(Formal),2021.2.3,Win32,60.60606061,,,,,,,,,,,,,,,,,,,,,,,,,,,,,,,,,,,,,,,,,,,,,,,,,,,,我,i,,,i,1,0.4312,1,35,115,0,1,,
,,,,,,,,,,,,,,1,001,2025-01-25_19h35.04.761,IAT(Formal),2021.2.3,Win32,60.60606061,,,,,,,,,,,,,,,,,,,,,,,,,,,,,,,,,,,,,,,,,,,,,,,,,,,,下贱,i,,,i,1,0.8209,1,36,116,49,1,,
,,,,,,,,,,,,,,1,001,2025-01-25_19h35.04.761,IAT(Formal),2021.2.3,Win32,60.60606061,,,,,,,,,,,,,,,,,,,,,,,,,,,,,,,,,,,,,,,,,,,,,,,,,,,,固执,i,,,i,1,0.6059,1,37,117,47,1,,
,,,,,,,,,,,,,,1,001,2025-01-25_19h35.04.761,IAT(Formal),2021.2.3,Win32,60.60606061,,,,,,,,,,,,,,,,,,,,,,,,,,,,,,,,,,,,,,,,,,,,,,,,,,,,冒失,i,,,i,1,0.4892,1,38,118,39,1,,
,,,,,,,,,,,,,,1,001,2025-01-25_19h35.04.761,IAT(Formal),2021.2.3,Win32,60.60606061,,,,,,,,,,,,,,,,,,,,,,,,,,,,,,,,,,,,,,,,,,,,,,,,,,,,鲁莽,i,,,i,1,0.7455,1,39,119,38,1,,
,,,,,,,,,,,,,,1,001,2025-01-25_19h35.04.761,IAT(Formal),2021.2.3,Win32,60.60606061,,,,,,,,,,,,,,,,,,,,,,,,,,,,,,,,,,,,,,,,,,,,,,,,,,,,稳重,e,,,e,1,0.6296,1,40,120,21,1,,
,,,,,,,,,,,,,,1,001,2025-01-25_19h35.04.761,IAT(Formal),2021.2.3,Win32,60.60606061,,,,,,,,,,,,,,,,,,,,,,,,,,,,,,,,,,,,,,,,,,,,,,,,,,,,俺,i,,,i,1,0.5344,1,41,121,74,1,,
,,,,,,,,,,,,,,1,001,2025-01-25_19h35.04.761,IAT(Formal),2021.2.3,Win32,60.60606061,,,,,,,,,,,,,,,,,,,,,,,,,,,,,,,,,,,,,,,,,,,,,,,,,,,,他的,e,,,e,1,0.5632,1,42,122,57,1,,
,,,,,,,,,,,,,,1,001,2025-01-25_19h35.04.761,IAT(Formal),2021.2.3,Win32,60.60606061,,,,,,,,,,,,,,,,,,,,,,,,,,,,,,,,,,,,,,,,,,,,,,,,,,,,我,i,,,i,1,0.4816,1,43,123,50,1,,
,,,,,,,,,,,,,,1,001,2025-01-25_19h35.04.761,IAT(Formal),2021.2.3,Win32,60.60606061,,,,,,,,,,,,,,,,,,,,,,,,,,,,,,,,,,,,,,,,,,,,,,,,,,,,他的,e,,,e,1,0.7336,1,44,124,67,1,,
,,,,,,,,,,,,,,1,001,2025-01-25_19h35.04.761,IAT(Formal),2021.2.3,Win32,60.60606061,,,,,,,,,,,,,,,,,,,,,,,,,,,,,,,,,,,,,,,,,,,,,,,,,,,,自己,i,,,i,1,0.4952,1,45,125,3,1,,
,,,,,,,,,,,,,,1,001,2025-01-25_19h35.04.761,IAT(Formal),2021.2.3,Win32,60.60606061,,,,,,,,,,,,,,,,,,,,,,,,,,,,,,,,,,,,,,,,,,,,,,,,,,,,我,i,,,i,1,0.4822,1,46,126,70,1,,
,,,,,,,,,,,,,,1,001,2025-01-25_19h35.04.761,IAT(Formal),2021.2.3,Win32,60.60606061,,,,,,,,,,,,,,,,,,,,,,,,,,,,,,,,,,,,,,,,,,,,,,,,,,,,他们,e,,,e,1,0.632,1,47,127,6,1,,
,,,,,,,,,,,,,,1,001,2025-01-25_19h35.04.761,IAT(Formal),2021.2.3,Win32,60.60606061,,,,,,,,,,,,,,,,,,,,,,,,,,,,,,,,,,,,,,,,,,,,,,,,,,,,他人,e,,,e,1,0.6418,1,48,128,8,1,,
,,,,,,,,,,,,,,1,001,2025-01-25_19h35.04.761,IAT(Formal),2021.2.3,Win32,60.60606061,,,,,,,,,,,,,,,,,,,,,,,,,,,,,,,,,,,,,,,,,,,,,,,,,,,,其他,e,,,e,1,0.4828,1,49,129,9,1,,
,,,,,,,,,,,,,,1,001,2025-01-25_19h35.04.761,IAT(Formal),2021.2.3,Win32,60.60606061,,,,,,,,,,,,,,,,,,,,,,,,,,,,,,,,,,,,,,,,,,,,,,,,,,,,傲慢,i,,,i,1,0.7844,1,50,130,37,1,,
,,,,,,,,,,,,,,1,001,2025-01-25_19h35.04.761,IAT(Formal),2021.2.3,Win32,60.60606061,,,,,,,,,,,,,,,,,,,,,,,,,,,,,,,,,,,,,,,,,,,,,,,,,,,,活泼,e,,,e,1,0.5654,1,51,131,28,1,,
,,,,,,,,,,,,,,1,001,2025-01-25_19h35.04.761,IAT(Formal),2021.2.3,Win32,60.60606061,,,,,,,,,,,,,,,,,,,,,,,,,,,,,,,,,,,,,,,,,,,,,,,,,,,,正直,e,,,e,1,0.6869,1,52,132,16,1,,
,,,,,,,,,,,,,,1,001,2025-01-25_19h35.04.761,IAT(Formal),2021.2.3,Win32,60.60606061,,,,,,,,,,,,,,,,,,,,,,,,,,,,,,,,,,,,,,,,,,,,,,,,,,,,我的,i,,,i,1,0.8108,1,53,133,51,1,,
,,,,,,,,,,,,,,1,001,2025-01-25_19h35.04.761,IAT(Formal),2021.2.3,Win32,60.60606061,,,,,,,,,,,,,,,,,,,,,,,,,,,,,,,,,,,,,,,,,,,,,,,,,,,,我们,i,,,i,1,0.729,1,54,134,62,1,,
,,,,,,,,,,,,,,1,001,2025-01-25_19h35.04.761,IAT(Formal),2021.2.3,Win32,60.60606061,,,,,,,,,,,,,,,,,,,,,,,,,,,,,,,,,,,,,,,,,,,,,,,,,,,,其他,e,,,e,1,0.5722,1,55,135,79,1,,
,,,,,,,,,,,,,,1,001,2025-01-25_19h35.04.761,IAT(Formal),2021.2.3,Win32,60.60606061,,,,,,,,,,,,,,,,,,,,,,,,,,,,,,,,,,,,,,,,,,,,,,,,,,,,他,e,,,i,0,0.7808,1,56,136,75,1,,
,,,,,,,,,,,,,,1,001,2025-01-25_19h35.04.761,IAT(Formal),2021.2.3,Win32,60.60606061,,,,,,,,,,,,,,,,,,,,,,,,,,,,,,,,,,,,,,,,,,,,,,,,,,,,自己,i,,,i,1,0.4555,1,57,137,73,1,,
,,,,,,,,,,,,,,1,001,2025-01-25_19h35.04.761,IAT(Formal),2021.2.3,Win32,60.60606061,,,,,,,,,,,,,,,,,,,,,,,,,,,,,,,,,,,,,,,,,,,,,,,,,,,,他们,e,,,e,1,0.8228,1,58,138,76,1,,
,,,,,,,,,,,,,,1,001,2025-01-25_19h35.04.761,IAT(Formal),2021.2.3,Win32,60.60606061,,,,,,,,,,,,,,,,,,,,,,,,,,,,,,,,,,,,,,,,,,,,,,,,,,,,散漫,i,,,i,1,0.7188,1,59,139,41,1,,
,,,,,,,,,,,,,,1,001,2025-01-25_19h35.04.761,IAT(Formal),2021.2.3,Win32,60.60606061,,,,,,,,,,,,,,,,,,,,,,,,,,,,,,,,,,,,,,,,,,,,,,,,,,,,他人,e,,,e,1,1.1797,1,60,140,78,1,,
,,,,,,,,,,,,,,1,001,2025-01-25_19h35.04.761,IAT(Formal),2021.2.3,Win32,60.60606061,,,,,,,,,,,,,,,,,,,,,,,,,,,,,,,,,,,,,,,,,,,,,,,,,,,,自私,i,,,i,1,0.7122,1,61,141,43,1,,
,,,,,,,,,,,,,,1,001,2025-01-25_19h35.04.761,IAT(Formal),2021.2.3,Win32,60.60606061,,,,,,,,,,,,,,,,,,,,,,,,,,,,,,,,,,,,,,,,,,,,,,,,,,,,暴躁,i,,,i,1,1.2774,1,62,142,44,1,,
,,,,,,,,,,,,,,1,001,2025-01-25_19h35.04.761,IAT(Formal),2021.2.3,Win32,60.60606061,,,,,,,,,,,,,,,,,,,,,,,,,,,,,,,,,,,,,,,,,,,,,,,,,,,,无私,e,,,e,1,1.0888,1,63,143,22,1,,
,,,,,,,,,,,,,,1,001,2025-01-25_19h35.04.761,IAT(Formal),2021.2.3,Win32,60.60606061,,,,,,,,,,,,,,,,,,,,,,,,,,,,,,,,,,,,,,,,,,,,,,,,,,,,他的,e,,,e,1,0.8815,1,64,144,7,1,,
,,,,,,,,,,,,,,1,001,2025-01-25_19h35.04.761,IAT(Formal),2021.2.3,Win32,60.60606061,,,,,,,,,,,,,,,,,,,,,,,,,,,,,,,,,,,,,,,,,,,,,,,,,,,,朴实,e,,,e,1,0.8793,1,65,145,24,1,,
,,,,,,,,,,,,,,1,001,2025-01-25_19h35.04.761,IAT(Formal),2021.2.3,Win32,60.60606061,,,,,,,,,,,,,,,,,,,,,,,,,,,,,,,,,,,,,,,,,,,,,,,,,,,,他们,e,,,e,1,0.6968,1,66,146,56,1,,
,,,,,,,,,,,,,,1,001,2025-01-25_19h35.04.761,IAT(Formal),2021.2.3,Win32,60.60606061,,,,,,,,,,,,,,,,,,,,,,,,,,,,,,,,,,,,,,,,,,,,,,,,,,,,他们,e,,,e,1,0.659,1,67,147,66,1,,
,,,,,,,,,,,,,,1,001,2025-01-25_19h35.04.761,IAT(Formal),2021.2.3,Win32,60.60606061,,,,,,,,,,,,,,,,,,,,,,,,,,,,,,,,,,,,,,,,,,,,,,,,,,,,优秀,e,,,e,1,0.6607,1,68,148,10,1,,
,,,,,,,,,,,,,,1,001,2025-01-25_19h35.04.761,IAT(Formal),2021.2.3,Win32,60.60606061,,,,,,,,,,,,,,,,,,,,,,,,,,,,,,,,,,,,,,,,,,,,,,,,,,,,冷静,e,,,e,1,0.642,1,69,149,26,1,,
,,,,,,,,,,,,,,1,001,2025-01-25_19h35.04.761,IAT(Formal),2021.2.3,Win32,60.60606061,,,,,,,,,,,,,,,,,,,,,,,,,,,,,,,,,,,,,,,,,,,,,,,,,,,,轻率,i,,,i,1,0.7084,1,70,150,48,1,,
,,,,,,,,,,,,,,1,001,2025-01-25_19h35.04.761,IAT(Formal),2021.2.3,Win32,60.60606061,,,,,,,,,,,,,,,,,,,,,,,,,,,,,,,,,,,,,,,,,,,,,,,,,,,,我们,i,,,i,1,0.5858,1,71,151,2,1,,
,,,,,,,,,,,,,,1,001,2025-01-25_19h35.04.761,IAT(Formal),2021.2.3,Win32,60.60606061,,,,,,,,,,,,,,,,,,,,,,,,,,,,,,,,,,,,,,,,,,,,,,,,,,,,自卑,i,,,i,1,0.5364,1,72,152,36,1,,
,,,,,,,,,,,,,,1,001,2025-01-25_19h35.04.761,IAT(Formal),2021.2.3,Win32,60.60606061,,,,,,,,,,,,,,,,,,,,,,,,,,,,,,,,,,,,,,,,,,,,,,,,,,,,猖狂,i,,,i,1,0.4981,1,73,153,45,1,,
,,,,,,,,,,,,,,1,001,2025-01-25_19h35.04.761,IAT(Formal),2021.2.3,Win32,60.60606061,,,,,,,,,,,,,,,,,,,,,,,,,,,,,,,,,,,,,,,,,,,,,,,,,,,,他,e,,,e,1,0.8098,1,74,154,65,1,,
,,,,,,,,,,,,,,1,001,2025-01-25_19h35.04.761,IAT(Formal),2021.2.3,Win32,60.60606061,,,,,,,,,,,,,,,,,,,,,,,,,,,,,,,,,,,,,,,,,,,,,,,,,,,,公正,e,,,e,1,0.9428,1,75,155,23,1,,
,,,,,,,,,,,,,,1,001,2025-01-25_19h35.04.761,IAT(Formal),2021.2.3,Win32,60.60606061,,,,,,,,,,,,,,,,,,,,,,,,,,,,,,,,,,,,,,,,,,,,,,,,,,,,凶狠,i,,,i,1,0.9537,1,76,156,42,1,,
,,,,,,,,,,,,,,1,001,2025-01-25_19h35.04.761,IAT(Formal),2021.2.3,Win32,60.60606061,,,,,,,,,,,,,,,,,,,,,,,,,,,,,,,,,,,,,,,,,,,,,,,,,,,,他人,e,,,e,1,0.9521,1,77,157,58,1,,
,,,,,,,,,,,,,,1,001,2025-01-25_19h35.04.761,IAT(Formal),2021.2.3,Win32,60.60606061,,,,,,,,,,,,,,,,,,,,,,,,,,,,,,,,,,,,,,,,,,,,,,,,,,,,俺,i,,,i,1,1.168,1,78,158,64,1,,
,,,,,,,,,,,,,,1,001,2025-01-25_19h35.04.761,IAT(Formal),2021.2.3,Win32,60.60606061,,,,,,,,,,,,,,,,,,,,,,,,,,,,,,,,,,,,,,,,,,,,,,,,,,,,认真,e,,,e,1,0.6197,1,79,159,20,1,,
,,,,,,,,,,,,,,1,001,2025-01-25_19h35.04.761,IAT(Formal),2021.2.3,Win32,60.60606061,,,,,,,,,,,,,,,,,,,,,,,,,,,,,,,,,,,,,,,,,,,,,,,,,,,,,,,,,,,,,,,,space,2.0046