﻿Instruction1.keys,Instruction1.rt,Instruction2.keys,Instruction2.rt,key_resp_iso.keys,key_resp_iso.corr,Practice_01.thisRepN,Practice_01.thisTrialN,Practice_01.thisN,Practice_01.thisIndex,Practice_01.ran,Words,ans,participant,session,date,expName,psychopyVersion,OS,frameRate,key_resp_iso.rt,key_resp_3.keys,key_resp_3.rt,key_resp_ipn.keys,key_resp_ipn.corr,key_resp_ipn.rt,Practice_02.thisRepN,Practice_02.thisTrialN,Practice_02.thisN,Practice_02.thisIndex,Practice_02.ran,Words_ipn,ans_ipn,key_resp_4.keys,key_resp_4.rt,key_resp_t1.keys,key_resp_t1.corr,key_resp_t1.rt,Practice_T1.thisRepN,Practice_T1.thisTrialN,Practice_T1.thisN,Practice_T1.thisIndex,Practice_T1.ran,Words_t1,ans_t1,key_resp_5.keys,key_resp_5.rt,Formal_T1.thisRepN,Formal_T1.thisTrialN,Formal_T1.thisN,Formal_T1.thisIndex,Formal_T1.ran,key_resp_6.keys,key_resp_6.rt,key_resp_iso_reverse.keys,key_resp_iso_reverse.corr,key_resp_iso_reverse.rt,Practice_iso_Reverse.thisRepN,Practice_iso_Reverse.thisTrialN,Practice_iso_Reverse.thisN,Practice_iso_Reverse.thisIndex,Practice_iso_Reverse.ran,key_resp_7.keys,key_resp_7.rt,key_resp_t2_Practice.keys,key_resp_t2_Practice.corr,key_resp_t2_Practice.rt,Practice_t2_Reverse.thisRepN,Practice_t2_Reverse.thisTrialN,Practice_t2_Reverse.thisN,Practice_t2_Reverse.thisIndex,Practice_t2_Reverse.ran,Words_t2,ans_t2,key_resp_8.keys,key_resp_8.rt,key_resp_t2.keys,key_resp_t2.corr,key_resp_t2.rt,Formal_t2_reverse.thisRepN,Formal_t2_reverse.thisTrialN,Formal_t2_reverse.thisN,Formal_t2_reverse.thisIndex,Formal_t2_reverse.ran,key_instruct.keys,key_instruct.rt
space,2.3818,space,12.2581,,0,0,0,0,0,1,我,e,1,001,2025-01-31_19h41.07.567,IAT(Formal),2021.2.3,Win32,59.88023952,,,,,,,,,,,,,,,,,,,,,,,,,,,,,,,,,,,,,,,,,,,,,,,,,,,,,,,,,,,,,,,,,,
,,,,,0,0,1,1,2,1,我们,e,1,001,2025-01-31_19h41.07.567,IAT(Formal),2021.2.3,Win32,59.88023952,,,,,,,,,,,,,,,,,,,,,,,,,,,,,,,,,,,,,,,,,,,,,,,,,,,,,,,,,,,,,,,,,,
,,,,i,1,0,2,2,7,1,他的,i,1,001,2025-01-31_19h41.07.567,IAT(Formal),2021.2.3,Win32,59.88023952,1.3315,,,,,,,,,,,,,,,,,,,,,,,,,,,,,,,,,,,,,,,,,,,,,,,,,,,,,,,,,,,,,,,,,
,,,,e,1,0,3,3,4,1,俺,e,1,001,2025-01-31_19h41.07.567,IAT(Formal),2021.2.3,Win32,59.88023952,0.7579,,,,,,,,,,,,,,,,,,,,,,,,,,,,,,,,,,,,,,,,,,,,,,,,,,,,,,,,,,,,,,,,,
,,,,i,1,0,4,4,6,1,他们,i,1,001,2025-01-31_19h41.07.567,IAT(Formal),2021.2.3,Win32,59.88023952,0.6065,,,,,,,,,,,,,,,,,,,,,,,,,,,,,,,,,,,,,,,,,,,,,,,,,,,,,,,,,,,,,,,,,
,,,,e,1,0,5,5,3,1,自己,e,1,001,2025-01-31_19h41.07.567,IAT(Formal),2021.2.3,Win32,59.88023952,0.5848,,,,,,,,,,,,,,,,,,,,,,,,,,,,,,,,,,,,,,,,,,,,,,,,,,,,,,,,,,,,,,,,,
,,,,i,1,0,6,6,9,1,其他,i,1,001,2025-01-31_19h41.07.567,IAT(Formal),2021.2.3,Win32,59.88023952,0.9502,,,,,,,,,,,,,,,,,,,,,,,,,,,,,,,,,,,,,,,,,,,,,,,,,,,,,,,,,,,,,,,,,
,,,,e,1,0,7,7,1,1,我的,e,1,001,2025-01-31_19h41.07.567,IAT(Formal),2021.2.3,Win32,59.88023952,0.5423,,,,,,,,,,,,,,,,,,,,,,,,,,,,,,,,,,,,,,,,,,,,,,,,,,,,,,,,,,,,,,,,,
,,,,i,1,0,8,8,5,1,他,i,1,001,2025-01-31_19h41.07.567,IAT(Formal),2021.2.3,Win32,59.88023952,0.5369,,,,,,,,,,,,,,,,,,,,,,,,,,,,,,,,,,,,,,,,,,,,,,,,,,,,,,,,,,,,,,,,,
,,,,i,1,0,9,9,8,1,他人,i,1,001,2025-01-31_19h41.07.567,IAT(Formal),2021.2.3,Win32,59.88023952,0.5438,,,,,,,,,,,,,,,,,,,,,,,,,,,,,,,,,,,,,,,,,,,,,,,,,,,,,,,,,,,,,,,,,
,,,,,,,,,,,,,1,001,2025-01-31_19h41.07.567,IAT(Formal),2021.2.3,Win32,59.88023952,,space,6.2264,i,1,1.3701,0,0,0,34,1,暴躁,i,,,,,,,,,,,,,,,,,,,,,,,,,,,,,,,,,,,,,,,,,,,,,,,,,,,,,
,,,,,,,,,,,,,1,001,2025-01-31_19h41.07.567,IAT(Formal),2021.2.3,Win32,59.88023952,,,,e,1,0.6258,0,1,1,10,1,认真,e,,,,,,,,,,,,,,,,,,,,,,,,,,,,,,,,,,,,,,,,,,,,,,,,,,,,,
,,,,,,,,,,,,,1,001,2025-01-31_19h41.07.567,IAT(Formal),2021.2.3,Win32,59.88023952,,,,i,1,0.6241,0,2,2,25,1,消极,i,,,,,,,,,,,,,,,,,,,,,,,,,,,,,,,,,,,,,,,,,,,,,,,,,,,,,
,,,,,,,,,,,,,1,001,2025-01-31_19h41.07.567,IAT(Formal),2021.2.3,Win32,59.88023952,,,,i,1,0.6697,0,3,3,31,1,散漫,i,,,,,,,,,,,,,,,,,,,,,,,,,,,,,,,,,,,,,,,,,,,,,,,,,,,,,
,,,,,,,,,,,,,1,001,2025-01-31_19h41.07.567,IAT(Formal),2021.2.3,Win32,59.88023952,,,,i,1,0.6771,0,4,4,37,1,固执,i,,,,,,,,,,,,,,,,,,,,,,,,,,,,,,,,,,,,,,,,,,,,,,,,,,,,,
,,,,,,,,,,,,,1,001,2025-01-31_19h41.07.567,IAT(Formal),2021.2.3,Win32,59.88023952,,,,i,1,0.4628,0,5,5,35,1,猖狂,i,,,,,,,,,,,,,,,,,,,,,,,,,,,,,,,,,,,,,,,,,,,,,,,,,,,,,
,,,,,,,,,,,,,1,001,2025-01-31_19h41.07.567,IAT(Formal),2021.2.3,Win32,59.88023952,,,,i,1,0.4538,0,6,6,30,1,执拗,i,,,,,,,,,,,,,,,,,,,,,,,,,,,,,,,,,,,,,,,,,,,,,,,,,,,,,
,,,,,,,,,,,,,1,001,2025-01-31_19h41.07.567,IAT(Formal),2021.2.3,Win32,59.88023952,,,,i,1,0.6966,0,7,7,26,1,自卑,i,,,,,,,,,,,,,,,,,,,,,,,,,,,,,,,,,,,,,,,,,,,,,,,,,,,,,
,,,,,,,,,,,,,1,001,2025-01-31_19h41.07.567,IAT(Formal),2021.2.3,Win32,59.88023952,,,,i,1,0.6131,0,8,8,20,1,卑鄙,i,,,,,,,,,,,,,,,,,,,,,,,,,,,,,,,,,,,,,,,,,,,,,,,,,,,,,
,,,,,,,,,,,,,1,001,2025-01-31_19h41.07.567,IAT(Formal),2021.2.3,Win32,59.88023952,,,,i,0,0.4134,0,9,9,6,1,正直,e,,,,,,,,,,,,,,,,,,,,,,,,,,,,,,,,,,,,,,,,,,,,,,,,,,,,,
,,,,,,,,,,,,,1,001,2025-01-31_19h41.07.567,IAT(Formal),2021.2.3,Win32,59.88023952,,,,e,1,0.6372,0,10,10,8,1,勤奋,e,,,,,,,,,,,,,,,,,,,,,,,,,,,,,,,,,,,,,,,,,,,,,,,,,,,,,
,,,,,,,,,,,,,1,001,2025-01-31_19h41.07.567,IAT(Formal),2021.2.3,Win32,59.88023952,,,,e,1,0.3703,0,11,11,5,1,诚实,e,,,,,,,,,,,,,,,,,,,,,,,,,,,,,,,,,,,,,,,,,,,,,,,,,,,,,
,,,,,,,,,,,,,1,001,2025-01-31_19h41.07.567,IAT(Formal),2021.2.3,Win32,59.88023952,,,,i,1,0.6402,0,12,12,36,1,野蛮,i,,,,,,,,,,,,,,,,,,,,,,,,,,,,,,,,,,,,,,,,,,,,,,,,,,,,,
,,,,,,,,,,,,,1,001,2025-01-31_19h41.07.567,IAT(Formal),2021.2.3,Win32,59.88023952,,,,e,1,0.5953,0,13,13,7,1,勇敢,e,,,,,,,,,,,,,,,,,,,,,,,,,,,,,,,,,,,,,,,,,,,,,,,,,,,,,
,,,,,,,,,,,,,1,001,2025-01-31_19h41.07.567,IAT(Formal),2021.2.3,Win32,59.88023952,,,,i,1,0.6127,0,14,14,22,1,愚蠢,i,,,,,,,,,,,,,,,,,,,,,,,,,,,,,,,,,,,,,,,,,,,,,,,,,,,,,
,,,,,,,,,,,,,1,001,2025-01-31_19h41.07.567,IAT(Formal),2021.2.3,Win32,59.88023952,,,,i,1,0.8721,0,15,15,24,1,悲观,i,,,,,,,,,,,,,,,,,,,,,,,,,,,,,,,,,,,,,,,,,,,,,,,,,,,,,
,,,,,,,,,,,,,1,001,2025-01-31_19h41.07.567,IAT(Formal),2021.2.3,Win32,59.88023952,,,,e,1,0.5236,0,16,16,4,1,乐观,e,,,,,,,,,,,,,,,,,,,,,,,,,,,,,,,,,,,,,,,,,,,,,,,,,,,,,
,,,,,,,,,,,,,1,001,2025-01-31_19h41.07.567,IAT(Formal),2021.2.3,Win32,59.88023952,,,,i,1,0.6,0,17,17,39,1,下贱,i,,,,,,,,,,,,,,,,,,,,,,,,,,,,,,,,,,,,,,,,,,,,,,,,,,,,,
,,,,,,,,,,,,,1,001,2025-01-31_19h41.07.567,IAT(Formal),2021.2.3,Win32,59.88023952,,,,e,1,0.6152,0,18,18,11,1,稳重,e,,,,,,,,,,,,,,,,,,,,,,,,,,,,,,,,,,,,,,,,,,,,,,,,,,,,,
,,,,,,,,,,,,,1,001,2025-01-31_19h41.07.567,IAT(Formal),2021.2.3,Win32,59.88023952,,,,e,1,0.8291,0,19,19,9,1,机智,e,,,,,,,,,,,,,,,,,,,,,,,,,,,,,,,,,,,,,,,,,,,,,,,,,,,,,
,,,,,,,,,,,,,1,001,2025-01-31_19h41.07.567,IAT(Formal),2021.2.3,Win32,59.88023952,,,,e,1,0.4724,0,20,20,17,1,热情,e,,,,,,,,,,,,,,,,,,,,,,,,,,,,,,,,,,,,,,,,,,,,,,,,,,,,,
,,,,,,,,,,,,,1,001,2025-01-31_19h41.07.567,IAT(Formal),2021.2.3,Win32,59.88023952,,,,e,1,0.4331,0,21,21,2,1,聪明,e,,,,,,,,,,,,,,,,,,,,,,,,,,,,,,,,,,,,,,,,,,,,,,,,,,,,,
,,,,,,,,,,,,,1,001,2025-01-31_19h41.07.567,IAT(Formal),2021.2.3,Win32,59.88023952,,,,i,0,0.5619,0,22,22,12,1,无私,e,,,,,,,,,,,,,,,,,,,,,,,,,,,,,,,,,,,,,,,,,,,,,,,,,,,,,
,,,,,,,,,,,,,1,001,2025-01-31_19h41.07.567,IAT(Formal),2021.2.3,Win32,59.88023952,,,,e,1,0.4844,0,23,23,0,1,优秀,e,,,,,,,,,,,,,,,,,,,,,,,,,,,,,,,,,,,,,,,,,,,,,,,,,,,,,
,,,,,,,,,,,,,1,001,2025-01-31_19h41.07.567,IAT(Formal),2021.2.3,Win32,59.88023952,,,,e,1,0.4617,0,24,24,15,1,细腻,e,,,,,,,,,,,,,,,,,,,,,,,,,,,,,,,,,,,,,,,,,,,,,,,,,,,,,
,,,,,,,,,,,,,1,001,2025-01-31_19h41.07.567,IAT(Formal),2021.2.3,Win32,59.88023952,,,,e,1,0.4122,0,25,25,19,1,诚恳,e,,,,,,,,,,,,,,,,,,,,,,,,,,,,,,,,,,,,,,,,,,,,,,,,,,,,,
,,,,,,,,,,,,,1,001,2025-01-31_19h41.07.567,IAT(Formal),2021.2.3,Win32,59.88023952,,,,e,0,0.5557,0,26,26,27,1,傲慢,i,,,,,,,,,,,,,,,,,,,,,,,,,,,,,,,,,,,,,,,,,,,,,,,,,,,,,
,,,,,,,,,,,,,1,001,2025-01-31_19h41.07.567,IAT(Formal),2021.2.3,Win32,59.88023952,,,,i,1,0.6639,0,27,27,28,1,鲁莽,i,,,,,,,,,,,,,,,,,,,,,,,,,,,,,,,,,,,,,,,,,,,,,,,,,,,,,
,,,,,,,,,,,,,1,001,2025-01-31_19h41.07.567,IAT(Formal),2021.2.3,Win32,59.88023952,,,,e,1,0.891,0,28,28,13,1,公正,e,,,,,,,,,,,,,,,,,,,,,,,,,,,,,,,,,,,,,,,,,,,,,,,,,,,,,
,,,,,,,,,,,,,1,001,2025-01-31_19h41.07.567,IAT(Formal),2021.2.3,Win32,59.88023952,,,,e,1,0.7181,0,29,29,18,1,活泼,e,,,,,,,,,,,,,,,,,,,,,,,,,,,,,,,,,,,,,,,,,,,,,,,,,,,,,
,,,,,,,,,,,,,1,001,2025-01-31_19h41.07.567,IAT(Formal),2021.2.3,Win32,59.88023952,,,,i,1,0.8963,0,30,30,23,1,刻薄,i,,,,,,,,,,,,,,,,,,,,,,,,,,,,,,,,,,,,,,,,,,,,,,,,,,,,,
,,,,,,,,,,,,,1,001,2025-01-31_19h41.07.567,IAT(Formal),2021.2.3,Win32,59.88023952,,,,i,1,0.764,0,31,31,38,1,轻率,i,,,,,,,,,,,,,,,,,,,,,,,,,,,,,,,,,,,,,,,,,,,,,,,,,,,,,
,,,,,,,,,,,,,1,001,2025-01-31_19h41.07.567,IAT(Formal),2021.2.3,Win32,59.88023952,,,,i,1,0.5125,0,32,32,32,1,凶狠,i,,,,,,,,,,,,,,,,,,,,,,,,,,,,,,,,,,,,,,,,,,,,,,,,,,,,,
,,,,,,,,,,,,,1,001,2025-01-31_19h41.07.567,IAT(Formal),2021.2.3,Win32,59.88023952,,,,i,1,0.522,0,33,33,29,1,冒失,i,,,,,,,,,,,,,,,,,,,,,,,,,,,,,,,,,,,,,,,,,,,,,,,,,,,,,
,,,,,,,,,,,,,1,001,2025-01-31_19h41.07.567,IAT(Formal),2021.2.3,Win32,59.88023952,,,,i,0,0.6186,0,34,34,14,1,朴实,e,,,,,,,,,,,,,,,,,,,,,,,,,,,,,,,,,,,,,,,,,,,,,,,,,,,,,
,,,,,,,,,,,,,1,001,2025-01-31_19h41.07.567,IAT(Formal),2021.2.3,Win32,59.88023952,,,,i,1,1.0898,0,35,35,33,1,自私,i,,,,,,,,,,,,,,,,,,,,,,,,,,,,,,,,,,,,,,,,,,,,,,,,,,,,,
,,,,,,,,,,,,,1,001,2025-01-31_19h41.07.567,IAT(Formal),2021.2.3,Win32,59.88023952,,,,e,1,0.7014,0,36,36,16,1,冷静,e,,,,,,,,,,,,,,,,,,,,,,,,,,,,,,,,,,,,,,,,,,,,,,,,,,,,,
,,,,,,,,,,,,,1,001,2025-01-31_19h41.07.567,IAT(Formal),2021.2.3,Win32,59.88023952,,,,e,1,0.9589,0,37,37,1,1,崇高,e,,,,,,,,,,,,,,,,,,,,,,,,,,,,,,,,,,,,,,,,,,,,,,,,,,,,,
,,,,,,,,,,,,,1,001,2025-01-31_19h41.07.567,IAT(Formal),2021.2.3,Win32,59.88023952,,,,e,1,0.5698,0,38,38,3,1,杰出,e,,,,,,,,,,,,,,,,,,,,,,,,,,,,,,,,,,,,,,,,,,,,,,,,,,,,,
,,,,,,,,,,,,,1,001,2025-01-31_19h41.07.567,IAT(Formal),2021.2.3,Win32,59.88023952,,,,i,1,0.5297,0,39,39,21,1,虚伪,i,,,,,,,,,,,,,,,,,,,,,,,,,,,,,,,,,,,,,,,,,,,,,,,,,,,,,
,,,,,,,,,,,,,1,001,2025-01-31_19h41.07.567,IAT(Formal),2021.2.3,Win32,59.88023952,,,,,,,,,,,,,,space,18.7937,i,1,0.8508,0,0,0,43,1,自私,i,,,,,,,,,,,,,,,,,,,,,,,,,,,,,,,,,,,,,,,,,
,,,,,,,,,,,,,1,001,2025-01-31_19h41.07.567,IAT(Formal),2021.2.3,Win32,59.88023952,,,,,,,,,,,,,,,,e,1,0.5515,0,1,1,15,1,诚实,e,,,,,,,,,,,,,,,,,,,,,,,,,,,,,,,,,,,,,,,,,
,,,,,,,,,,,,,1,001,2025-01-31_19h41.07.567,IAT(Formal),2021.2.3,Win32,59.88023952,,,,,,,,,,,,,,,,e,1,0.6344,0,2,2,11,1,崇高,e,,,,,,,,,,,,,,,,,,,,,,,,,,,,,,,,,,,,,,,,,
,,,,,,,,,,,,,1,001,2025-01-31_19h41.07.567,IAT(Formal),2021.2.3,Win32,59.88023952,,,,,,,,,,,,,,,,e,1,0.6891,0,3,3,25,1,细腻,e,,,,,,,,,,,,,,,,,,,,,,,,,,,,,,,,,,,,,,,,,
,,,,,,,,,,,,,1,001,2025-01-31_19h41.07.567,IAT(Formal),2021.2.3,Win32,59.88023952,,,,,,,,,,,,,,,,i,1,0.684,0,4,4,78,1,他人,i,,,,,,,,,,,,,,,,,,,,,,,,,,,,,,,,,,,,,,,,,
,,,,,,,,,,,,,1,001,2025-01-31_19h41.07.567,IAT(Formal),2021.2.3,Win32,59.88023952,,,,,,,,,,,,,,,,e,1,1.1612,0,5,5,63,1,自己,e,,,,,,,,,,,,,,,,,,,,,,,,,,,,,,,,,,,,,,,,,
,,,,,,,,,,,,,1,001,2025-01-31_19h41.07.567,IAT(Formal),2021.2.3,Win32,59.88023952,,,,,,,,,,,,,,,,e,1,0.6001,0,6,6,71,1,我的,e,,,,,,,,,,,,,,,,,,,,,,,,,,,,,,,,,,,,,,,,,
,,,,,,,,,,,,,1,001,2025-01-31_19h41.07.567,IAT(Formal),2021.2.3,Win32,59.88023952,,,,,,,,,,,,,,,,i,1,0.8532,0,7,7,38,1,鲁莽,i,,,,,,,,,,,,,,,,,,,,,,,,,,,,,,,,,,,,,,,,,
,,,,,,,,,,,,,1,001,2025-01-31_19h41.07.567,IAT(Formal),2021.2.3,Win32,59.88023952,,,,,,,,,,,,,,,,e,1,0.7027,0,8,8,74,1,俺,e,,,,,,,,,,,,,,,,,,,,,,,,,,,,,,,,,,,,,,,,,
,,,,,,,,,,,,,1,001,2025-01-31_19h41.07.567,IAT(Formal),2021.2.3,Win32,59.88023952,,,,,,,,,,,,,,,,i,1,0.6188,0,9,9,30,1,卑鄙,i,,,,,,,,,,,,,,,,,,,,,,,,,,,,,,,,,,,,,,,,,
,,,,,,,,,,,,,1,001,2025-01-31_19h41.07.567,IAT(Formal),2021.2.3,Win32,59.88023952,,,,,,,,,,,,,,,,i,1,1.2226,0,10,10,7,1,他的,i,,,,,,,,,,,,,,,,,,,,,,,,,,,,,,,,,,,,,,,,,
,,,,,,,,,,,,,1,001,2025-01-31_19h41.07.567,IAT(Formal),2021.2.3,Win32,59.88023952,,,,,,,,,,,,,,,,i,1,0.9936,0,11,11,42,1,凶狠,i,,,,,,,,,,,,,,,,,,,,,,,,,,,,,,,,,,,,,,,,,
,,,,,,,,,,,,,1,001,2025-01-31_19h41.07.567,IAT(Formal),2021.2.3,Win32,59.88023952,,,,,,,,,,,,,,,,i,1,0.567,0,12,12,41,1,散漫,i,,,,,,,,,,,,,,,,,,,,,,,,,,,,,,,,,,,,,,,,,
,,,,,,,,,,,,,1,001,2025-01-31_19h41.07.567,IAT(Formal),2021.2.3,Win32,59.88023952,,,,,,,,,,,,,,,,i,1,0.9603,0,13,13,46,1,野蛮,i,,,,,,,,,,,,,,,,,,,,,,,,,,,,,,,,,,,,,,,,,
,,,,,,,,,,,,,1,001,2025-01-31_19h41.07.567,IAT(Formal),2021.2.3,Win32,59.88023952,,,,,,,,,,,,,,,,i,1,0.8923,0,14,14,76,1,他们,i,,,,,,,,,,,,,,,,,,,,,,,,,,,,,,,,,,,,,,,,,
,,,,,,,,,,,,,1,001,2025-01-31_19h41.07.567,IAT(Formal),2021.2.3,Win32,59.88023952,,,,,,,,,,,,,,,,i,1,0.4839,0,15,15,67,1,他的,i,,,,,,,,,,,,,,,,,,,,,,,,,,,,,,,,,,,,,,,,,
,,,,,,,,,,,,,1,001,2025-01-31_19h41.07.567,IAT(Formal),2021.2.3,Win32,59.88023952,,,,,,,,,,,,,,,,i,1,0.9576,0,16,16,39,1,冒失,i,,,,,,,,,,,,,,,,,,,,,,,,,,,,,,,,,,,,,,,,,
,,,,,,,,,,,,,1,001,2025-01-31_19h41.07.567,IAT(Formal),2021.2.3,Win32,59.88023952,,,,,,,,,,,,,,,,i,1,0.8017,0,17,17,66,1,他们,i,,,,,,,,,,,,,,,,,,,,,,,,,,,,,,,,,,,,,,,,,
,,,,,,,,,,,,,1,001,2025-01-31_19h41.07.567,IAT(Formal),2021.2.3,Win32,59.88023952,,,,,,,,,,,,,,,,i,1,0.619,0,18,18,37,1,傲慢,i,,,,,,,,,,,,,,,,,,,,,,,,,,,,,,,,,,,,,,,,,
,,,,,,,,,,,,,1,001,2025-01-31_19h41.07.567,IAT(Formal),2021.2.3,Win32,59.88023952,,,,,,,,,,,,,,,,i,1,0.4405,0,19,19,5,1,他,i,,,,,,,,,,,,,,,,,,,,,,,,,,,,,,,,,,,,,,,,,
,,,,,,,,,,,,,1,001,2025-01-31_19h41.07.567,IAT(Formal),2021.2.3,Win32,59.88023952,,,,,,,,,,,,,,,,e,1,0.5681,0,20,20,0,1,我,e,,,,,,,,,,,,,,,,,,,,,,,,,,,,,,,,,,,,,,,,,
,,,,,,,,,,,,,1,001,2025-01-31_19h41.07.567,IAT(Formal),2021.2.3,Win32,59.88023952,,,,,,,,,,,,,,,,e,1,0.7009,0,21,21,2,1,我们,e,,,,,,,,,,,,,,,,,,,,,,,,,,,,,,,,,,,,,,,,,
,,,,,,,,,,,,,1,001,2025-01-31_19h41.07.567,IAT(Formal),2021.2.3,Win32,59.88023952,,,,,,,,,,,,,,,,i,1,1.2174,0,22,22,48,1,轻率,i,,,,,,,,,,,,,,,,,,,,,,,,,,,,,,,,,,,,,,,,,
,,,,,,,,,,,,,1,001,2025-01-31_19h41.07.567,IAT(Formal),2021.2.3,Win32,59.88023952,,,,,,,,,,,,,,,,i,1,0.5511,0,23,23,35,1,消极,i,,,,,,,,,,,,,,,,,,,,,,,,,,,,,,,,,,,,,,,,,
,,,,,,,,,,,,,1,001,2025-01-31_19h41.07.567,IAT(Formal),2021.2.3,Win32,59.88023952,,,,,,,,,,,,,,,,i,1,0.814,0,24,24,49,1,下贱,i,,,,,,,,,,,,,,,,,,,,,,,,,,,,,,,,,,,,,,,,,
,,,,,,,,,,,,,1,001,2025-01-31_19h41.07.567,IAT(Formal),2021.2.3,Win32,59.88023952,,,,,,,,,,,,,,,,i,1,0.4799,0,25,25,33,1,刻薄,i,,,,,,,,,,,,,,,,,,,,,,,,,,,,,,,,,,,,,,,,,
,,,,,,,,,,,,,1,001,2025-01-31_19h41.07.567,IAT(Formal),2021.2.3,Win32,59.88023952,,,,,,,,,,,,,,,,i,1,1.1007,0,26,26,58,1,他人,i,,,,,,,,,,,,,,,,,,,,,,,,,,,,,,,,,,,,,,,,,
,,,,,,,,,,,,,1,001,2025-01-31_19h41.07.567,IAT(Formal),2021.2.3,Win32,59.88023952,,,,,,,,,,,,,,,,i,0,0.5346,0,27,27,64,1,俺,e,,,,,,,,,,,,,,,,,,,,,,,,,,,,,,,,,,,,,,,,,
,,,,,,,,,,,,,1,001,2025-01-31_19h41.07.567,IAT(Formal),2021.2.3,Win32,59.88023952,,,,,,,,,,,,,,,,i,1,1.3408,0,28,28,34,1,悲观,i,,,,,,,,,,,,,,,,,,,,,,,,,,,,,,,,,,,,,,,,,
,,,,,,,,,,,,,1,001,2025-01-31_19h41.07.567,IAT(Formal),2021.2.3,Win32,59.88023952,,,,,,,,,,,,,,,,e,1,0.6337,0,29,29,51,1,我的,e,,,,,,,,,,,,,,,,,,,,,,,,,,,,,,,,,,,,,,,,,
,,,,,,,,,,,,,1,001,2025-01-31_19h41.07.567,IAT(Formal),2021.2.3,Win32,59.88023952,,,,,,,,,,,,,,,,e,1,0.6571,0,30,30,14,1,乐观,e,,,,,,,,,,,,,,,,,,,,,,,,,,,,,,,,,,,,,,,,,
,,,,,,,,,,,,,1,001,2025-01-31_19h41.07.567,IAT(Formal),2021.2.3,Win32,59.88023952,,,,,,,,,,,,,,,,e,1,0.4767,0,31,31,28,1,活泼,e,,,,,,,,,,,,,,,,,,,,,,,,,,,,,,,,,,,,,,,,,
,,,,,,,,,,,,,1,001,2025-01-31_19h41.07.567,IAT(Formal),2021.2.3,Win32,59.88023952,,,,,,,,,,,,,,,,e,1,0.3009,0,32,32,17,1,勇敢,e,,,,,,,,,,,,,,,,,,,,,,,,,,,,,,,,,,,,,,,,,
,,,,,,,,,,,,,1,001,2025-01-31_19h41.07.567,IAT(Formal),2021.2.3,Win32,59.88023952,,,,,,,,,,,,,,,,e,0,0.3895,0,33,33,75,1,他,i,,,,,,,,,,,,,,,,,,,,,,,,,,,,,,,,,,,,,,,,,
,,,,,,,,,,,,,1,001,2025-01-31_19h41.07.567,IAT(Formal),2021.2.3,Win32,59.88023952,,,,,,,,,,,,,,,,e,1,0.534,0,34,34,50,1,我,e,,,,,,,,,,,,,,,,,,,,,,,,,,,,,,,,,,,,,,,,,
,,,,,,,,,,,,,1,001,2025-01-31_19h41.07.567,IAT(Formal),2021.2.3,Win32,59.88023952,,,,,,,,,,,,,,,,i,1,1.3197,0,35,35,40,1,执拗,i,,,,,,,,,,,,,,,,,,,,,,,,,,,,,,,,,,,,,,,,,
,,,,,,,,,,,,,1,001,2025-01-31_19h41.07.567,IAT(Formal),2021.2.3,Win32,59.88023952,,,,,,,,,,,,,,,,i,1,1.2006,0,36,36,69,1,其他,i,,,,,,,,,,,,,,,,,,,,,,,,,,,,,,,,,,,,,,,,,
,,,,,,,,,,,,,1,001,2025-01-31_19h41.07.567,IAT(Formal),2021.2.3,Win32,59.88023952,,,,,,,,,,,,,,,,e,1,0.6587,0,37,37,29,1,诚恳,e,,,,,,,,,,,,,,,,,,,,,,,,,,,,,,,,,,,,,,,,,
,,,,,,,,,,,,,1,001,2025-01-31_19h41.07.567,IAT(Formal),2021.2.3,Win32,59.88023952,,,,,,,,,,,,,,,,e,1,0.6723,0,38,38,23,1,公正,e,,,,,,,,,,,,,,,,,,,,,,,,,,,,,,,,,,,,,,,,,
,,,,,,,,,,,,,1,001,2025-01-31_19h41.07.567,IAT(Formal),2021.2.3,Win32,59.88023952,,,,,,,,,,,,,,,,e,1,0.4088,0,39,39,62,1,我们,e,,,,,,,,,,,,,,,,,,,,,,,,,,,,,,,,,,,,,,,,,
,,,,,,,,,,,,,1,001,2025-01-31_19h41.07.567,IAT(Formal),2021.2.3,Win32,59.88023952,,,,,,,,,,,,,,,,,0,,0,40,40,24,1,朴实,e,,,,,,,,,,,,,,,,,,,,,,,,,,,,,,,,,,,,,,,,,
,,,,,,,,,,,,,1,001,2025-01-31_19h41.07.567,IAT(Formal),2021.2.3,Win32,59.88023952,,,,,,,,,,,,,,,,i,1,0.6194,0,41,41,8,1,他人,i,,,,,,,,,,,,,,,,,,,,,,,,,,,,,,,,,,,,,,,,,
,,,,,,,,,,,,,1,001,2025-01-31_19h41.07.567,IAT(Formal),2021.2.3,Win32,59.88023952,,,,,,,,,,,,,,,,i,1,0.5515,0,42,42,79,1,其他,i,,,,,,,,,,,,,,,,,,,,,,,,,,,,,,,,,,,,,,,,,
,,,,,,,,,,,,,1,001,2025-01-31_19h41.07.567,IAT(Formal),2021.2.3,Win32,59.88023952,,,,,,,,,,,,,,,,i,1,0.6843,0,43,43,32,1,愚蠢,i,,,,,,,,,,,,,,,,,,,,,,,,,,,,,,,,,,,,,,,,,
,,,,,,,,,,,,,1,001,2025-01-31_19h41.07.567,IAT(Formal),2021.2.3,Win32,59.88023952,,,,,,,,,,,,,,,,e,1,0.6737,0,44,44,61,1,我的,e,,,,,,,,,,,,,,,,,,,,,,,,,,,,,,,,,,,,,,,,,
,,,,,,,,,,,,,1,001,2025-01-31_19h41.07.567,IAT(Formal),2021.2.3,Win32,59.88023952,,,,,,,,,,,,,,,,i,1,0.6014,0,45,45,6,1,他们,i,,,,,,,,,,,,,,,,,,,,,,,,,,,,,,,,,,,,,,,,,
,,,,,,,,,,,,,1,001,2025-01-31_19h41.07.567,IAT(Formal),2021.2.3,Win32,59.88023952,,,,,,,,,,,,,,,,i,0,0.5877,0,46,46,72,1,我们,e,,,,,,,,,,,,,,,,,,,,,,,,,,,,,,,,,,,,,,,,,
,,,,,,,,,,,,,1,001,2025-01-31_19h41.07.567,IAT(Formal),2021.2.3,Win32,59.88023952,,,,,,,,,,,,,,,,i,1,0.5715,0,47,47,36,1,自卑,i,,,,,,,,,,,,,,,,,,,,,,,,,,,,,,,,,,,,,,,,,
,,,,,,,,,,,,,1,001,2025-01-31_19h41.07.567,IAT(Formal),2021.2.3,Win32,59.88023952,,,,,,,,,,,,,,,,e,1,0.6956,0,48,48,3,1,自己,e,,,,,,,,,,,,,,,,,,,,,,,,,,,,,,,,,,,,,,,,,
,,,,,,,,,,,,,1,001,2025-01-31_19h41.07.567,IAT(Formal),2021.2.3,Win32,59.88023952,,,,,,,,,,,,,,,,e,1,0.686,0,49,49,16,1,正直,e,,,,,,,,,,,,,,,,,,,,,,,,,,,,,,,,,,,,,,,,,
,,,,,,,,,,,,,1,001,2025-01-31_19h41.07.567,IAT(Formal),2021.2.3,Win32,59.88023952,,,,,,,,,,,,,,,,i,1,0.8696,0,50,50,55,1,他,i,,,,,,,,,,,,,,,,,,,,,,,,,,,,,,,,,,,,,,,,,
,,,,,,,,,,,,,1,001,2025-01-31_19h41.07.567,IAT(Formal),2021.2.3,Win32,59.88023952,,,,,,,,,,,,,,,,e,1,0.751,0,51,51,1,1,我的,e,,,,,,,,,,,,,,,,,,,,,,,,,,,,,,,,,,,,,,,,,
,,,,,,,,,,,,,1,001,2025-01-31_19h41.07.567,IAT(Formal),2021.2.3,Win32,59.88023952,,,,,,,,,,,,,,,,e,1,0.5417,0,52,52,21,1,稳重,e,,,,,,,,,,,,,,,,,,,,,,,,,,,,,,,,,,,,,,,,,
,,,,,,,,,,,,,1,001,2025-01-31_19h41.07.567,IAT(Formal),2021.2.3,Win32,59.88023952,,,,,,,,,,,,,,,,e,0,0.3868,0,53,53,65,1,他,i,,,,,,,,,,,,,,,,,,,,,,,,,,,,,,,,,,,,,,,,,
,,,,,,,,,,,,,1,001,2025-01-31_19h41.07.567,IAT(Formal),2021.2.3,Win32,59.88023952,,,,,,,,,,,,,,,,i,1,0.7593,0,54,54,45,1,猖狂,i,,,,,,,,,,,,,,,,,,,,,,,,,,,,,,,,,,,,,,,,,
,,,,,,,,,,,,,1,001,2025-01-31_19h41.07.567,IAT(Formal),2021.2.3,Win32,59.88023952,,,,,,,,,,,,,,,,,0,,0,55,55,47,1,固执,i,,,,,,,,,,,,,,,,,,,,,,,,,,,,,,,,,,,,,,,,,
,,,,,,,,,,,,,1,001,2025-01-31_19h41.07.567,IAT(Formal),2021.2.3,Win32,59.88023952,,,,,,,,,,,,,,,,e,0,0.7673,0,56,56,68,1,他人,i,,,,,,,,,,,,,,,,,,,,,,,,,,,,,,,,,,,,,,,,,
,,,,,,,,,,,,,1,001,2025-01-31_19h41.07.567,IAT(Formal),2021.2.3,Win32,59.88023952,,,,,,,,,,,,,,,,i,1,0.5101,0,57,57,77,1,他的,i,,,,,,,,,,,,,,,,,,,,,,,,,,,,,,,,,,,,,,,,,
,,,,,,,,,,,,,1,001,2025-01-31_19h41.07.567,IAT(Formal),2021.2.3,Win32,59.88023952,,,,,,,,,,,,,,,,e,1,0.6516,0,58,58,54,1,俺,e,,,,,,,,,,,,,,,,,,,,,,,,,,,,,,,,,,,,,,,,,
,,,,,,,,,,,,,1,001,2025-01-31_19h41.07.567,IAT(Formal),2021.2.3,Win32,59.88023952,,,,,,,,,,,,,,,,e,1,0.8874,0,59,59,20,1,认真,e,,,,,,,,,,,,,,,,,,,,,,,,,,,,,,,,,,,,,,,,,
,,,,,,,,,,,,,1,001,2025-01-31_19h41.07.567,IAT(Formal),2021.2.3,Win32,59.88023952,,,,,,,,,,,,,,,,e,1,1.3357,0,60,60,10,1,优秀,e,,,,,,,,,,,,,,,,,,,,,,,,,,,,,,,,,,,,,,,,,
,,,,,,,,,,,,,1,001,2025-01-31_19h41.07.567,IAT(Formal),2021.2.3,Win32,59.88023952,,,,,,,,,,,,,,,,e,1,0.8625,0,61,61,73,1,自己,e,,,,,,,,,,,,,,,,,,,,,,,,,,,,,,,,,,,,,,,,,
,,,,,,,,,,,,,1,001,2025-01-31_19h41.07.567,IAT(Formal),2021.2.3,Win32,59.88023952,,,,,,,,,,,,,,,,i,1,0.8509,0,62,62,57,1,他的,i,,,,,,,,,,,,,,,,,,,,,,,,,,,,,,,,,,,,,,,,,
,,,,,,,,,,,,,1,001,2025-01-31_19h41.07.567,IAT(Formal),2021.2.3,Win32,59.88023952,,,,,,,,,,,,,,,,e,1,0.751,0,63,63,4,1,俺,e,,,,,,,,,,,,,,,,,,,,,,,,,,,,,,,,,,,,,,,,,
,,,,,,,,,,,,,1,001,2025-01-31_19h41.07.567,IAT(Formal),2021.2.3,Win32,59.88023952,,,,,,,,,,,,,,,,e,1,0.5617,0,64,64,27,1,热情,e,,,,,,,,,,,,,,,,,,,,,,,,,,,,,,,,,,,,,,,,,
,,,,,,,,,,,,,1,001,2025-01-31_19h41.07.567,IAT(Formal),2021.2.3,Win32,59.88023952,,,,,,,,,,,,,,,,e,1,0.7014,0,65,65,19,1,机智,e,,,,,,,,,,,,,,,,,,,,,,,,,,,,,,,,,,,,,,,,,
,,,,,,,,,,,,,1,001,2025-01-31_19h41.07.567,IAT(Formal),2021.2.3,Win32,59.88023952,,,,,,,,,,,,,,,,e,0,0.6183,0,66,66,59,1,其他,i,,,,,,,,,,,,,,,,,,,,,,,,,,,,,,,,,,,,,,,,,
,,,,,,,,,,,,,1,001,2025-01-31_19h41.07.567,IAT(Formal),2021.2.3,Win32,59.88023952,,,,,,,,,,,,,,,,e,1,0.6282,0,67,67,26,1,冷静,e,,,,,,,,,,,,,,,,,,,,,,,,,,,,,,,,,,,,,,,,,
,,,,,,,,,,,,,1,001,2025-01-31_19h41.07.567,IAT(Formal),2021.2.3,Win32,59.88023952,,,,,,,,,,,,,,,,e,1,0.7005,0,68,68,70,1,我,e,,,,,,,,,,,,,,,,,,,,,,,,,,,,,,,,,,,,,,,,,
,,,,,,,,,,,,,1,001,2025-01-31_19h41.07.567,IAT(Formal),2021.2.3,Win32,59.88023952,,,,,,,,,,,,,,,,e,1,0.4524,0,69,69,52,1,我们,e,,,,,,,,,,,,,,,,,,,,,,,,,,,,,,,,,,,,,,,,,
,,,,,,,,,,,,,1,001,2025-01-31_19h41.07.567,IAT(Formal),2021.2.3,Win32,59.88023952,,,,,,,,,,,,,,,,e,1,0.8388,0,70,70,18,1,勤奋,e,,,,,,,,,,,,,,,,,,,,,,,,,,,,,,,,,,,,,,,,,
,,,,,,,,,,,,,1,001,2025-01-31_19h41.07.567,IAT(Formal),2021.2.3,Win32,59.88023952,,,,,,,,,,,,,,,,i,1,1.0508,0,71,71,9,1,其他,i,,,,,,,,,,,,,,,,,,,,,,,,,,,,,,,,,,,,,,,,,
,,,,,,,,,,,,,1,001,2025-01-31_19h41.07.567,IAT(Formal),2021.2.3,Win32,59.88023952,,,,,,,,,,,,,,,,e,1,0.6012,0,72,72,22,1,无私,e,,,,,,,,,,,,,,,,,,,,,,,,,,,,,,,,,,,,,,,,,
,,,,,,,,,,,,,1,001,2025-01-31_19h41.07.567,IAT(Formal),2021.2.3,Win32,59.88023952,,,,,,,,,,,,,,,,i,1,0.6349,0,73,73,31,1,虚伪,i,,,,,,,,,,,,,,,,,,,,,,,,,,,,,,,,,,,,,,,,,
,,,,,,,,,,,,,1,001,2025-01-31_19h41.07.567,IAT(Formal),2021.2.3,Win32,59.88023952,,,,,,,,,,,,,,,,e,1,0.6682,0,74,74,13,1,杰出,e,,,,,,,,,,,,,,,,,,,,,,,,,,,,,,,,,,,,,,,,,
,,,,,,,,,,,,,1,001,2025-01-31_19h41.07.567,IAT(Formal),2021.2.3,Win32,59.88023952,,,,,,,,,,,,,,,,e,1,0.5948,0,75,75,60,1,我,e,,,,,,,,,,,,,,,,,,,,,,,,,,,,,,,,,,,,,,,,,
,,,,,,,,,,,,,1,001,2025-01-31_19h41.07.567,IAT(Formal),2021.2.3,Win32,59.88023952,,,,,,,,,,,,,,,,i,1,0.8337,0,76,76,56,1,他们,i,,,,,,,,,,,,,,,,,,,,,,,,,,,,,,,,,,,,,,,,,
,,,,,,,,,,,,,1,001,2025-01-31_19h41.07.567,IAT(Formal),2021.2.3,Win32,59.88023952,,,,,,,,,,,,,,,,i,0,1.0431,0,77,77,53,1,自己,e,,,,,,,,,,,,,,,,,,,,,,,,,,,,,,,,,,,,,,,,,
,,,,,,,,,,,,,1,001,2025-01-31_19h41.07.567,IAT(Formal),2021.2.3,Win32,59.88023952,,,,,,,,,,,,,,,,e,1,0.6753,0,78,78,12,1,聪明,e,,,,,,,,,,,,,,,,,,,,,,,,,,,,,,,,,,,,,,,,,
,,,,,,,,,,,,,1,001,2025-01-31_19h41.07.567,IAT(Formal),2021.2.3,Win32,59.88023952,,,,,,,,,,,,,,,,i,1,0.6436,0,79,79,44,1,暴躁,i,,,,,,,,,,,,,,,,,,,,,,,,,,,,,,,,,,,,,,,,,
,,,,,,,,,,,,,1,001,2025-01-31_19h41.07.567,IAT(Formal),2021.2.3,Win32,59.88023952,,,,,,,,,,,,,,,,e,1,1.2453,,,,,,自己,e,space,6.8073,0,0,0,3,1,,,,,,,,,,,,,,,,,,,,,,,,,,,,,,,,,,
,,,,,,,,,,,,,1,001,2025-01-31_19h41.07.567,IAT(Formal),2021.2.3,Win32,59.88023952,,,,,,,,,,,,,,,,e,1,0.404,,,,,,我们,e,,,0,1,1,72,1,,,,,,,,,,,,,,,,,,,,,,,,,,,,,,,,,,
,,,,,,,,,,,,,1,001,2025-01-31_19h41.07.567,IAT(Formal),2021.2.3,Win32,59.88023952,,,,,,,,,,,,,,,,i,1,0.4309,,,,,,其他,i,,,0,2,2,59,1,,,,,,,,,,,,,,,,,,,,,,,,,,,,,,,,,,
,,,,,,,,,,,,,1,001,2025-01-31_19h41.07.567,IAT(Formal),2021.2.3,Win32,59.88023952,,,,,,,,,,,,,,,,e,1,0.5716,,,,,,俺,e,,,0,3,3,64,1,,,,,,,,,,,,,,,,,,,,,,,,,,,,,,,,,,
,,,,,,,,,,,,,1,001,2025-01-31_19h41.07.567,IAT(Formal),2021.2.3,Win32,59.88023952,,,,,,,,,,,,,,,,e,0,0.5318,,,,,,他们,i,,,0,4,4,56,1,,,,,,,,,,,,,,,,,,,,,,,,,,,,,,,,,,
,,,,,,,,,,,,,1,001,2025-01-31_19h41.07.567,IAT(Formal),2021.2.3,Win32,59.88023952,,,,,,,,,,,,,,,,e,1,0.5665,,,,,,俺,e,,,0,5,5,4,1,,,,,,,,,,,,,,,,,,,,,,,,,,,,,,,,,,
,,,,,,,,,,,,,1,001,2025-01-31_19h41.07.567,IAT(Formal),2021.2.3,Win32,59.88023952,,,,,,,,,,,,,,,,e,1,0.6612,,,,,,诚实,e,,,0,6,6,15,1,,,,,,,,,,,,,,,,,,,,,,,,,,,,,,,,,,
,,,,,,,,,,,,,1,001,2025-01-31_19h41.07.567,IAT(Formal),2021.2.3,Win32,59.88023952,,,,,,,,,,,,,,,,i,1,0.6615,,,,,,固执,i,,,0,7,7,47,1,,,,,,,,,,,,,,,,,,,,,,,,,,,,,,,,,,
,,,,,,,,,,,,,1,001,2025-01-31_19h41.07.567,IAT(Formal),2021.2.3,Win32,59.88023952,,,,,,,,,,,,,,,,e,0,0.5311,,,,,,自私,i,,,0,8,8,43,1,,,,,,,,,,,,,,,,,,,,,,,,,,,,,,,,,,
,,,,,,,,,,,,,1,001,2025-01-31_19h41.07.567,IAT(Formal),2021.2.3,Win32,59.88023952,,,,,,,,,,,,,,,,i,1,0.5157,,,,,,凶狠,i,,,0,9,9,42,1,,,,,,,,,,,,,,,,,,,,,,,,,,,,,,,,,,
,,,,,,,,,,,,,1,001,2025-01-31_19h41.07.567,IAT(Formal),2021.2.3,Win32,59.88023952,,,,,,,,,,,,,,,,e,1,0.4327,,,,,,我,e,,,0,10,10,60,1,,,,,,,,,,,,,,,,,,,,,,,,,,,,,,,,,,
,,,,,,,,,,,,,1,001,2025-01-31_19h41.07.567,IAT(Formal),2021.2.3,Win32,59.88023952,,,,,,,,,,,,,,,,e,1,0.4983,,,,,,公正,e,,,0,11,11,23,1,,,,,,,,,,,,,,,,,,,,,,,,,,,,,,,,,,
,,,,,,,,,,,,,1,001,2025-01-31_19h41.07.567,IAT(Formal),2021.2.3,Win32,59.88023952,,,,,,,,,,,,,,,,e,1,0.3964,,,,,,我们,e,,,0,12,12,2,1,,,,,,,,,,,,,,,,,,,,,,,,,,,,,,,,,,
,,,,,,,,,,,,,1,001,2025-01-31_19h41.07.567,IAT(Formal),2021.2.3,Win32,59.88023952,,,,,,,,,,,,,,,,e,1,0.4736,,,,,,机智,e,,,0,13,13,19,1,,,,,,,,,,,,,,,,,,,,,,,,,,,,,,,,,,
,,,,,,,,,,,,,1,001,2025-01-31_19h41.07.567,IAT(Formal),2021.2.3,Win32,59.88023952,,,,,,,,,,,,,,,,e,0,0.3745,,,,,,他们,i,,,0,14,14,6,1,,,,,,,,,,,,,,,,,,,,,,,,,,,,,,,,,,
,,,,,,,,,,,,,1,001,2025-01-31_19h41.07.567,IAT(Formal),2021.2.3,Win32,59.88023952,,,,,,,,,,,,,,,,e,1,0.4484,,,,,,我的,e,,,0,15,15,51,1,,,,,,,,,,,,,,,,,,,,,,,,,,,,,,,,,,
,,,,,,,,,,,,,1,001,2025-01-31_19h41.07.567,IAT(Formal),2021.2.3,Win32,59.88023952,,,,,,,,,,,,,,,,i,1,1.1796,,,,,,他,i,,,0,16,16,5,1,,,,,,,,,,,,,,,,,,,,,,,,,,,,,,,,,,
,,,,,,,,,,,,,1,001,2025-01-31_19h41.07.567,IAT(Formal),2021.2.3,Win32,59.88023952,,,,,,,,,,,,,,,,e,1,0.7334,,,,,,我的,e,,,0,17,17,61,1,,,,,,,,,,,,,,,,,,,,,,,,,,,,,,,,,,
,,,,,,,,,,,,,1,001,2025-01-31_19h41.07.567,IAT(Formal),2021.2.3,Win32,59.88023952,,,,,,,,,,,,,,,,e,1,0.6665,,,,,,冷静,e,,,0,18,18,26,1,,,,,,,,,,,,,,,,,,,,,,,,,,,,,,,,,,
,,,,,,,,,,,,,1,001,2025-01-31_19h41.07.567,IAT(Formal),2021.2.3,Win32,59.88023952,,,,,,,,,,,,,,,,e,1,0.9337,,,,,,朴实,e,,,0,19,19,24,1,,,,,,,,,,,,,,,,,,,,,,,,,,,,,,,,,,
,,,,,,,,,,,,,1,001,2025-01-31_19h41.07.567,IAT(Formal),2021.2.3,Win32,59.88023952,,,,,,,,,,,,,,,,e,1,0.468,,,,,,我,e,,,0,20,20,70,1,,,,,,,,,,,,,,,,,,,,,,,,,,,,,,,,,,
,,,,,,,,,,,,,1,001,2025-01-31_19h41.07.567,IAT(Formal),2021.2.3,Win32,59.88023952,,,,,,,,,,,,,,,,e,1,0.5054,,,,,,活泼,e,,,0,21,21,28,1,,,,,,,,,,,,,,,,,,,,,,,,,,,,,,,,,,
,,,,,,,,,,,,,1,001,2025-01-31_19h41.07.567,IAT(Formal),2021.2.3,Win32,59.88023952,,,,,,,,,,,,,,,,i,1,1.0833,,,,,,他,i,,,0,22,22,65,1,,,,,,,,,,,,,,,,,,,,,,,,,,,,,,,,,,
,,,,,,,,,,,,,1,001,2025-01-31_19h41.07.567,IAT(Formal),2021.2.3,Win32,59.88023952,,,,,,,,,,,,,,,,i,1,0.5165,,,,,,他的,i,,,0,23,23,67,1,,,,,,,,,,,,,,,,,,,,,,,,,,,,,,,,,,
,,,,,,,,,,,,,1,001,2025-01-31_19h41.07.567,IAT(Formal),2021.2.3,Win32,59.88023952,,,,,,,,,,,,,,,,i,1,0.781,,,,,,卑鄙,i,,,0,24,24,30,1,,,,,,,,,,,,,,,,,,,,,,,,,,,,,,,,,,
,,,,,,,,,,,,,1,001,2025-01-31_19h41.07.567,IAT(Formal),2021.2.3,Win32,59.88023952,,,,,,,,,,,,,,,,i,1,0.4875,,,,,,他的,i,,,0,25,25,7,1,,,,,,,,,,,,,,,,,,,,,,,,,,,,,,,,,,
,,,,,,,,,,,,,1,001,2025-01-31_19h41.07.567,IAT(Formal),2021.2.3,Win32,59.88023952,,,,,,,,,,,,,,,,i,1,0.5112,,,,,,愚蠢,i,,,0,26,26,32,1,,,,,,,,,,,,,,,,,,,,,,,,,,,,,,,,,,
,,,,,,,,,,,,,1,001,2025-01-31_19h41.07.567,IAT(Formal),2021.2.3,Win32,59.88023952,,,,,,,,,,,,,,,,i,0,0.3911,,,,,,我,e,,,0,27,27,0,1,,,,,,,,,,,,,,,,,,,,,,,,,,,,,,,,,,
,,,,,,,,,,,,,1,001,2025-01-31_19h41.07.567,IAT(Formal),2021.2.3,Win32,59.88023952,,,,,,,,,,,,,,,,i,1,0.6732,,,,,,他,i,,,0,28,28,55,1,,,,,,,,,,,,,,,,,,,,,,,,,,,,,,,,,,
,,,,,,,,,,,,,1,001,2025-01-31_19h41.07.567,IAT(Formal),2021.2.3,Win32,59.88023952,,,,,,,,,,,,,,,,i,1,0.5732,,,,,,他人,i,,,0,29,29,68,1,,,,,,,,,,,,,,,,,,,,,,,,,,,,,,,,,,
,,,,,,,,,,,,,1,001,2025-01-31_19h41.07.567,IAT(Formal),2021.2.3,Win32,59.88023952,,,,,,,,,,,,,,,,i,1,0.5552,,,,,,消极,i,,,0,30,30,35,1,,,,,,,,,,,,,,,,,,,,,,,,,,,,,,,,,,
,,,,,,,,,,,,,1,001,2025-01-31_19h41.07.567,IAT(Formal),2021.2.3,Win32,59.88023952,,,,,,,,,,,,,,,,i,1,0.4822,,,,,,轻率,i,,,0,31,31,48,1,,,,,,,,,,,,,,,,,,,,,,,,,,,,,,,,,,
,,,,,,,,,,,,,1,001,2025-01-31_19h41.07.567,IAT(Formal),2021.2.3,Win32,59.88023952,,,,,,,,,,,,,,,,i,1,0.5206,,,,,,他,i,,,0,32,32,75,1,,,,,,,,,,,,,,,,,,,,,,,,,,,,,,,,,,
,,,,,,,,,,,,,1,001,2025-01-31_19h41.07.567,IAT(Formal),2021.2.3,Win32,59.88023952,,,,,,,,,,,,,,,,i,1,0.5146,,,,,,傲慢,i,,,0,33,33,37,1,,,,,,,,,,,,,,,,,,,,,,,,,,,,,,,,,,
,,,,,,,,,,,,,1,001,2025-01-31_19h41.07.567,IAT(Formal),2021.2.3,Win32,59.88023952,,,,,,,,,,,,,,,,i,0,0.555,,,,,,自己,e,,,0,34,34,73,1,,,,,,,,,,,,,,,,,,,,,,,,,,,,,,,,,,
,,,,,,,,,,,,,1,001,2025-01-31_19h41.07.567,IAT(Formal),2021.2.3,Win32,59.88023952,,,,,,,,,,,,,,,,e,1,0.6179,,,,,,自己,e,,,0,35,35,53,1,,,,,,,,,,,,,,,,,,,,,,,,,,,,,,,,,,
,,,,,,,,,,,,,1,001,2025-01-31_19h41.07.567,IAT(Formal),2021.2.3,Win32,59.88023952,,,,,,,,,,,,,,,,i,1,0.7258,,,,,,自卑,i,,,0,36,36,36,1,,,,,,,,,,,,,,,,,,,,,,,,,,,,,,,,,,
,,,,,,,,,,,,,1,001,2025-01-31_19h41.07.567,IAT(Formal),2021.2.3,Win32,59.88023952,,,,,,,,,,,,,,,,e,1,0.7359,,,,,,勤奋,e,,,0,37,37,18,1,,,,,,,,,,,,,,,,,,,,,,,,,,,,,,,,,,
,,,,,,,,,,,,,1,001,2025-01-31_19h41.07.567,IAT(Formal),2021.2.3,Win32,59.88023952,,,,,,,,,,,,,,,,i,1,0.6055,,,,,,虚伪,i,,,0,38,38,31,1,,,,,,,,,,,,,,,,,,,,,,,,,,,,,,,,,,
,,,,,,,,,,,,,1,001,2025-01-31_19h41.07.567,IAT(Formal),2021.2.3,Win32,59.88023952,,,,,,,,,,,,,,,,i,1,0.5804,,,,,,暴躁,i,,,0,39,39,44,1,,,,,,,,,,,,,,,,,,,,,,,,,,,,,,,,,,
,,,,,,,,,,,,,1,001,2025-01-31_19h41.07.567,IAT(Formal),2021.2.3,Win32,59.88023952,,,,,,,,,,,,,,,,i,1,0.7033,,,,,,执拗,i,,,0,40,40,40,1,,,,,,,,,,,,,,,,,,,,,,,,,,,,,,,,,,
,,,,,,,,,,,,,1,001,2025-01-31_19h41.07.567,IAT(Formal),2021.2.3,Win32,59.88023952,,,,,,,,,,,,,,,,i,1,0.6171,,,,,,他人,i,,,0,41,41,58,1,,,,,,,,,,,,,,,,,,,,,,,,,,,,,,,,,,
,,,,,,,,,,,,,1,001,2025-01-31_19h41.07.567,IAT(Formal),2021.2.3,Win32,59.88023952,,,,,,,,,,,,,,,,e,1,0.565,,,,,,杰出,e,,,0,42,42,13,1,,,,,,,,,,,,,,,,,,,,,,,,,,,,,,,,,,
,,,,,,,,,,,,,1,001,2025-01-31_19h41.07.567,IAT(Formal),2021.2.3,Win32,59.88023952,,,,,,,,,,,,,,,,i,1,0.4902,,,,,,鲁莽,i,,,0,43,43,38,1,,,,,,,,,,,,,,,,,,,,,,,,,,,,,,,,,,
,,,,,,,,,,,,,1,001,2025-01-31_19h41.07.567,IAT(Formal),2021.2.3,Win32,59.88023952,,,,,,,,,,,,,,,,e,1,0.5658,,,,,,稳重,e,,,0,44,44,21,1,,,,,,,,,,,,,,,,,,,,,,,,,,,,,,,,,,
,,,,,,,,,,,,,1,001,2025-01-31_19h41.07.567,IAT(Formal),2021.2.3,Win32,59.88023952,,,,,,,,,,,,,,,,e,1,0.6306,,,,,,自己,e,,,0,45,45,63,1,,,,,,,,,,,,,,,,,,,,,,,,,,,,,,,,,,
,,,,,,,,,,,,,1,001,2025-01-31_19h41.07.567,IAT(Formal),2021.2.3,Win32,59.88023952,,,,,,,,,,,,,,,,i,1,0.5396,,,,,,他的,i,,,0,46,46,77,1,,,,,,,,,,,,,,,,,,,,,,,,,,,,,,,,,,
,,,,,,,,,,,,,1,001,2025-01-31_19h41.07.567,IAT(Formal),2021.2.3,Win32,59.88023952,,,,,,,,,,,,,,,,e,1,0.4835,,,,,,细腻,e,,,0,47,47,25,1,,,,,,,,,,,,,,,,,,,,,,,,,,,,,,,,,,
,,,,,,,,,,,,,1,001,2025-01-31_19h41.07.567,IAT(Formal),2021.2.3,Win32,59.88023952,,,,,,,,,,,,,,,,i,1,0.5451,,,,,,下贱,i,,,0,48,48,49,1,,,,,,,,,,,,,,,,,,,,,,,,,,,,,,,,,,
,,,,,,,,,,,,,1,001,2025-01-31_19h41.07.567,IAT(Formal),2021.2.3,Win32,59.88023952,,,,,,,,,,,,,,,,i,1,0.8987,,,,,,他人,i,,,0,49,49,8,1,,,,,,,,,,,,,,,,,,,,,,,,,,,,,,,,,,
,,,,,,,,,,,,,1,001,2025-01-31_19h41.07.567,IAT(Formal),2021.2.3,Win32,59.88023952,,,,,,,,,,,,,,,,i,1,0.7417,,,,,,他人,i,,,0,50,50,78,1,,,,,,,,,,,,,,,,,,,,,,,,,,,,,,,,,,
,,,,,,,,,,,,,1,001,2025-01-31_19h41.07.567,IAT(Formal),2021.2.3,Win32,59.88023952,,,,,,,,,,,,,,,,i,1,0.4168,,,,,,他的,i,,,0,51,51,57,1,,,,,,,,,,,,,,,,,,,,,,,,,,,,,,,,,,
,,,,,,,,,,,,,1,001,2025-01-31_19h41.07.567,IAT(Formal),2021.2.3,Win32,59.88023952,,,,,,,,,,,,,,,,e,1,0.4326,,,,,,勇敢,e,,,0,52,52,17,1,,,,,,,,,,,,,,,,,,,,,,,,,,,,,,,,,,
,,,,,,,,,,,,,1,001,2025-01-31_19h41.07.567,IAT(Formal),2021.2.3,Win32,59.88023952,,,,,,,,,,,,,,,,e,1,0.5318,,,,,,诚恳,e,,,0,53,53,29,1,,,,,,,,,,,,,,,,,,,,,,,,,,,,,,,,,,
,,,,,,,,,,,,,1,001,2025-01-31_19h41.07.567,IAT(Formal),2021.2.3,Win32,59.88023952,,,,,,,,,,,,,,,,e,1,0.5216,,,,,,崇高,e,,,0,54,54,11,1,,,,,,,,,,,,,,,,,,,,,,,,,,,,,,,,,,
,,,,,,,,,,,,,1,001,2025-01-31_19h41.07.567,IAT(Formal),2021.2.3,Win32,59.88023952,,,,,,,,,,,,,,,,i,1,0.4811,,,,,,他们,i,,,0,55,55,66,1,,,,,,,,,,,,,,,,,,,,,,,,,,,,,,,,,,
,,,,,,,,,,,,,1,001,2025-01-31_19h41.07.567,IAT(Formal),2021.2.3,Win32,59.88023952,,,,,,,,,,,,,,,,e,1,0.4805,,,,,,聪明,e,,,0,56,56,12,1,,,,,,,,,,,,,,,,,,,,,,,,,,,,,,,,,,
,,,,,,,,,,,,,1,001,2025-01-31_19h41.07.567,IAT(Formal),2021.2.3,Win32,59.88023952,,,,,,,,,,,,,,,,e,1,0.6844,,,,,,我的,e,,,0,57,57,1,1,,,,,,,,,,,,,,,,,,,,,,,,,,,,,,,,,,
,,,,,,,,,,,,,1,001,2025-01-31_19h41.07.567,IAT(Formal),2021.2.3,Win32,59.88023952,,,,,,,,,,,,,,,,e,1,0.5182,,,,,,无私,e,,,0,58,58,22,1,,,,,,,,,,,,,,,,,,,,,,,,,,,,,,,,,,
,,,,,,,,,,,,,1,001,2025-01-31_19h41.07.567,IAT(Formal),2021.2.3,Win32,59.88023952,,,,,,,,,,,,,,,,i,1,0.6805,,,,,,猖狂,i,,,0,59,59,45,1,,,,,,,,,,,,,,,,,,,,,,,,,,,,,,,,,,
,,,,,,,,,,,,,1,001,2025-01-31_19h41.07.567,IAT(Formal),2021.2.3,Win32,59.88023952,,,,,,,,,,,,,,,,e,1,0.557,,,,,,我们,e,,,0,60,60,62,1,,,,,,,,,,,,,,,,,,,,,,,,,,,,,,,,,,
,,,,,,,,,,,,,1,001,2025-01-31_19h41.07.567,IAT(Formal),2021.2.3,Win32,59.88023952,,,,,,,,,,,,,,,,e,1,0.4947,,,,,,俺,e,,,0,61,61,74,1,,,,,,,,,,,,,,,,,,,,,,,,,,,,,,,,,,
,,,,,,,,,,,,,1,001,2025-01-31_19h41.07.567,IAT(Formal),2021.2.3,Win32,59.88023952,,,,,,,,,,,,,,,,i,1,0.722,,,,,,刻薄,i,,,0,62,62,33,1,,,,,,,,,,,,,,,,,,,,,,,,,,,,,,,,,,
,,,,,,,,,,,,,1,001,2025-01-31_19h41.07.567,IAT(Formal),2021.2.3,Win32,59.88023952,,,,,,,,,,,,,,,,i,1,0.7039,,,,,,散漫,i,,,0,63,63,41,1,,,,,,,,,,,,,,,,,,,,,,,,,,,,,,,,,,
,,,,,,,,,,,,,1,001,2025-01-31_19h41.07.567,IAT(Formal),2021.2.3,Win32,59.88023952,,,,,,,,,,,,,,,,i,1,0.7673,,,,,,他们,i,,,0,64,64,76,1,,,,,,,,,,,,,,,,,,,,,,,,,,,,,,,,,,
,,,,,,,,,,,,,1,001,2025-01-31_19h41.07.567,IAT(Formal),2021.2.3,Win32,59.88023952,,,,,,,,,,,,,,,,i,1,0.607,,,,,,冒失,i,,,0,65,65,39,1,,,,,,,,,,,,,,,,,,,,,,,,,,,,,,,,,,
,,,,,,,,,,,,,1,001,2025-01-31_19h41.07.567,IAT(Formal),2021.2.3,Win32,59.88023952,,,,,,,,,,,,,,,,e,1,0.6464,,,,,,我,e,,,0,66,66,50,1,,,,,,,,,,,,,,,,,,,,,,,,,,,,,,,,,,
,,,,,,,,,,,,,1,001,2025-01-31_19h41.07.567,IAT(Formal),2021.2.3,Win32,59.88023952,,,,,,,,,,,,,,,,e,1,0.803,,,,,,认真,e,,,0,67,67,20,1,,,,,,,,,,,,,,,,,,,,,,,,,,,,,,,,,,
,,,,,,,,,,,,,1,001,2025-01-31_19h41.07.567,IAT(Formal),2021.2.3,Win32,59.88023952,,,,,,,,,,,,,,,,i,1,0.6481,,,,,,其他,i,,,0,68,68,79,1,,,,,,,,,,,,,,,,,,,,,,,,,,,,,,,,,,
,,,,,,,,,,,,,1,001,2025-01-31_19h41.07.567,IAT(Formal),2021.2.3,Win32,59.88023952,,,,,,,,,,,,,,,,e,1,0.4755,,,,,,我的,e,,,0,69,69,71,1,,,,,,,,,,,,,,,,,,,,,,,,,,,,,,,,,,
,,,,,,,,,,,,,1,001,2025-01-31_19h41.07.567,IAT(Formal),2021.2.3,Win32,59.88023952,,,,,,,,,,,,,,,,e,1,0.5045,,,,,,优秀,e,,,0,70,70,10,1,,,,,,,,,,,,,,,,,,,,,,,,,,,,,,,,,,
,,,,,,,,,,,,,1,001,2025-01-31_19h41.07.567,IAT(Formal),2021.2.3,Win32,59.88023952,,,,,,,,,,,,,,,,e,1,0.3998,,,,,,正直,e,,,0,71,71,16,1,,,,,,,,,,,,,,,,,,,,,,,,,,,,,,,,,,
,,,,,,,,,,,,,1,001,2025-01-31_19h41.07.567,IAT(Formal),2021.2.3,Win32,59.88023952,,,,,,,,,,,,,,,,i,1,0.7794,,,,,,悲观,i,,,0,72,72,34,1,,,,,,,,,,,,,,,,,,,,,,,,,,,,,,,,,,
,,,,,,,,,,,,,1,001,2025-01-31_19h41.07.567,IAT(Formal),2021.2.3,Win32,59.88023952,,,,,,,,,,,,,,,,i,1,0.7399,,,,,,其他,i,,,0,73,73,9,1,,,,,,,,,,,,,,,,,,,,,,,,,,,,,,,,,,
,,,,,,,,,,,,,1,001,2025-01-31_19h41.07.567,IAT(Formal),2021.2.3,Win32,59.88023952,,,,,,,,,,,,,,,,e,1,0.4912,,,,,,我们,e,,,0,74,74,52,1,,,,,,,,,,,,,,,,,,,,,,,,,,,,,,,,,,
,,,,,,,,,,,,,1,001,2025-01-31_19h41.07.567,IAT(Formal),2021.2.3,Win32,59.88023952,,,,,,,,,,,,,,,,e,1,0.4548,,,,,,热情,e,,,0,75,75,27,1,,,,,,,,,,,,,,,,,,,,,,,,,,,,,,,,,,
,,,,,,,,,,,,,1,001,2025-01-31_19h41.07.567,IAT(Formal),2021.2.3,Win32,59.88023952,,,,,,,,,,,,,,,,e,1,0.4019,,,,,,乐观,e,,,0,76,76,14,1,,,,,,,,,,,,,,,,,,,,,,,,,,,,,,,,,,
,,,,,,,,,,,,,1,001,2025-01-31_19h41.07.567,IAT(Formal),2021.2.3,Win32,59.88023952,,,,,,,,,,,,,,,,e,0,0.4514,,,,,,其他,i,,,0,77,77,69,1,,,,,,,,,,,,,,,,,,,,,,,,,,,,,,,,,,
,,,,,,,,,,,,,1,001,2025-01-31_19h41.07.567,IAT(Formal),2021.2.3,Win32,59.88023952,,,,,,,,,,,,,,,,i,1,0.4514,,,,,,野蛮,i,,,0,78,78,46,1,,,,,,,,,,,,,,,,,,,,,,,,,,,,,,,,,,
,,,,,,,,,,,,,1,001,2025-01-31_19h41.07.567,IAT(Formal),2021.2.3,Win32,59.88023952,,,,,,,,,,,,,,,,e,1,0.4855,,,,,,俺,e,,,0,79,79,54,1,,,,,,,,,,,,,,,,,,,,,,,,,,,,,,,,,,
,,,,,,,,,,,,,1,001,2025-01-31_19h41.07.567,IAT(Formal),2021.2.3,Win32,59.88023952,,,,,,,,,,,,,,,,i,1,0.5638,,,,,,他,i,,,1,0,80,55,1,,,,,,,,,,,,,,,,,,,,,,,,,,,,,,,,,,
,,,,,,,,,,,,,1,001,2025-01-31_19h41.07.567,IAT(Formal),2021.2.3,Win32,59.88023952,,,,,,,,,,,,,,,,i,1,1.4478,,,,,,固执,i,,,1,1,81,47,1,,,,,,,,,,,,,,,,,,,,,,,,,,,,,,,,,,
,,,,,,,,,,,,,1,001,2025-01-31_19h41.07.567,IAT(Formal),2021.2.3,Win32,59.88023952,,,,,,,,,,,,,,,,e,1,0.6535,,,,,,我的,e,,,1,2,82,71,1,,,,,,,,,,,,,,,,,,,,,,,,,,,,,,,,,,
,,,,,,,,,,,,,1,001,2025-01-31_19h41.07.567,IAT(Formal),2021.2.3,Win32,59.88023952,,,,,,,,,,,,,,,,i,1,0.5846,,,,,,他人,i,,,1,3,83,78,1,,,,,,,,,,,,,,,,,,,,,,,,,,,,,,,,,,
,,,,,,,,,,,,,1,001,2025-01-31_19h41.07.567,IAT(Formal),2021.2.3,Win32,59.88023952,,,,,,,,,,,,,,,,e,1,0.5831,,,,,,稳重,e,,,1,4,84,21,1,,,,,,,,,,,,,,,,,,,,,,,,,,,,,,,,,,
,,,,,,,,,,,,,1,001,2025-01-31_19h41.07.567,IAT(Formal),2021.2.3,Win32,59.88023952,,,,,,,,,,,,,,,,,0,,,,,,,自己,e,,,1,5,85,73,1,,,,,,,,,,,,,,,,,,,,,,,,,,,,,,,,,,
,,,,,,,,,,,,,1,001,2025-01-31_19h41.07.567,IAT(Formal),2021.2.3,Win32,59.88023952,,,,,,,,,,,,,,,,,0,,,,,,,无私,e,,,1,6,86,22,1,,,,,,,,,,,,,,,,,,,,,,,,,,,,,,,,,,
,,,,,,,,,,,,,1,001,2025-01-31_19h41.07.567,IAT(Formal),2021.2.3,Win32,59.88023952,,,,,,,,,,,,,,,,e,1,0.6284,,,,,,我,e,,,1,7,87,70,1,,,,,,,,,,,,,,,,,,,,,,,,,,,,,,,,,,
,,,,,,,,,,,,,1,001,2025-01-31_19h41.07.567,IAT(Formal),2021.2.3,Win32,59.88023952,,,,,,,,,,,,,,,,e,0,0.5481,,,,,,自私,i,,,1,8,88,43,1,,,,,,,,,,,,,,,,,,,,,,,,,,,,,,,,,,
,,,,,,,,,,,,,1,001,2025-01-31_19h41.07.567,IAT(Formal),2021.2.3,Win32,59.88023952,,,,,,,,,,,,,,,,e,1,0.4589,,,,,,我,e,,,1,9,89,60,1,,,,,,,,,,,,,,,,,,,,,,,,,,,,,,,,,,
,,,,,,,,,,,,,1,001,2025-01-31_19h41.07.567,IAT(Formal),2021.2.3,Win32,59.88023952,,,,,,,,,,,,,,,,e,0,0.4576,,,,,,自卑,i,,,1,10,90,36,1,,,,,,,,,,,,,,,,,,,,,,,,,,,,,,,,,,
,,,,,,,,,,,,,1,001,2025-01-31_19h41.07.567,IAT(Formal),2021.2.3,Win32,59.88023952,,,,,,,,,,,,,,,,e,1,0.5507,,,,,,自己,e,,,1,11,91,3,1,,,,,,,,,,,,,,,,,,,,,,,,,,,,,,,,,,
,,,,,,,,,,,,,1,001,2025-01-31_19h41.07.567,IAT(Formal),2021.2.3,Win32,59.88023952,,,,,,,,,,,,,,,,e,1,0.5914,,,,,,崇高,e,,,1,12,92,11,1,,,,,,,,,,,,,,,,,,,,,,,,,,,,,,,,,,
,,,,,,,,,,,,,1,001,2025-01-31_19h41.07.567,IAT(Formal),2021.2.3,Win32,59.88023952,,,,,,,,,,,,,,,,e,1,0.4908,,,,,,勇敢,e,,,1,13,93,17,1,,,,,,,,,,,,,,,,,,,,,,,,,,,,,,,,,,
,,,,,,,,,,,,,1,001,2025-01-31_19h41.07.567,IAT(Formal),2021.2.3,Win32,59.88023952,,,,,,,,,,,,,,,,e,1,0.8977,,,,,,诚恳,e,,,1,14,94,29,1,,,,,,,,,,,,,,,,,,,,,,,,,,,,,,,,,,
,,,,,,,,,,,,,1,001,2025-01-31_19h41.07.567,IAT(Formal),2021.2.3,Win32,59.88023952,,,,,,,,,,,,,,,,e,1,0.4339,,,,,,正直,e,,,1,15,95,16,1,,,,,,,,,,,,,,,,,,,,,,,,,,,,,,,,,,
,,,,,,,,,,,,,1,001,2025-01-31_19h41.07.567,IAT(Formal),2021.2.3,Win32,59.88023952,,,,,,,,,,,,,,,,i,1,0.6379,,,,,,他们,i,,,1,16,96,76,1,,,,,,,,,,,,,,,,,,,,,,,,,,,,,,,,,,
,,,,,,,,,,,,,1,001,2025-01-31_19h41.07.567,IAT(Formal),2021.2.3,Win32,59.88023952,,,,,,,,,,,,,,,,e,1,0.602,,,,,,俺,e,,,1,17,97,54,1,,,,,,,,,,,,,,,,,,,,,,,,,,,,,,,,,,
,,,,,,,,,,,,,1,001,2025-01-31_19h41.07.567,IAT(Formal),2021.2.3,Win32,59.88023952,,,,,,,,,,,,,,,,e,1,0.7567,,,,,,我们,e,,,1,18,98,2,1,,,,,,,,,,,,,,,,,,,,,,,,,,,,,,,,,,
,,,,,,,,,,,,,1,001,2025-01-31_19h41.07.567,IAT(Formal),2021.2.3,Win32,59.88023952,,,,,,,,,,,,,,,,i,1,0.5254,,,,,,他人,i,,,1,19,99,58,1,,,,,,,,,,,,,,,,,,,,,,,,,,,,,,,,,,
,,,,,,,,,,,,,1,001,2025-01-31_19h41.07.567,IAT(Formal),2021.2.3,Win32,59.88023952,,,,,,,,,,,,,,,,i,1,0.5739,,,,,,消极,i,,,1,20,100,35,1,,,,,,,,,,,,,,,,,,,,,,,,,,,,,,,,,,
,,,,,,,,,,,,,1,001,2025-01-31_19h41.07.567,IAT(Formal),2021.2.3,Win32,59.88023952,,,,,,,,,,,,,,,,i,1,0.6563,,,,,,他人,i,,,1,21,101,68,1,,,,,,,,,,,,,,,,,,,,,,,,,,,,,,,,,,
,,,,,,,,,,,,,1,001,2025-01-31_19h41.07.567,IAT(Formal),2021.2.3,Win32,59.88023952,,,,,,,,,,,,,,,,i,1,0.5359,,,,,,鲁莽,i,,,1,22,102,38,1,,,,,,,,,,,,,,,,,,,,,,,,,,,,,,,,,,
,,,,,,,,,,,,,1,001,2025-01-31_19h41.07.567,IAT(Formal),2021.2.3,Win32,59.88023952,,,,,,,,,,,,,,,,e,1,0.5905,,,,,,我的,e,,,1,23,103,51,1,,,,,,,,,,,,,,,,,,,,,,,,,,,,,,,,,,
,,,,,,,,,,,,,1,001,2025-01-31_19h41.07.567,IAT(Formal),2021.2.3,Win32,59.88023952,,,,,,,,,,,,,,,,e,1,0.608,,,,,,勤奋,e,,,1,24,104,18,1,,,,,,,,,,,,,,,,,,,,,,,,,,,,,,,,,,
,,,,,,,,,,,,,1,001,2025-01-31_19h41.07.567,IAT(Formal),2021.2.3,Win32,59.88023952,,,,,,,,,,,,,,,,i,1,0.6201,,,,,,傲慢,i,,,1,25,105,37,1,,,,,,,,,,,,,,,,,,,,,,,,,,,,,,,,,,
,,,,,,,,,,,,,1,001,2025-01-31_19h41.07.567,IAT(Formal),2021.2.3,Win32,59.88023952,,,,,,,,,,,,,,,,i,1,0.6292,,,,,,其他,i,,,1,26,106,9,1,,,,,,,,,,,,,,,,,,,,,,,,,,,,,,,,,,
,,,,,,,,,,,,,1,001,2025-01-31_19h41.07.567,IAT(Formal),2021.2.3,Win32,59.88023952,,,,,,,,,,,,,,,,i,1,0.5562,,,,,,他,i,,,1,27,107,65,1,,,,,,,,,,,,,,,,,,,,,,,,,,,,,,,,,,
,,,,,,,,,,,,,1,001,2025-01-31_19h41.07.567,IAT(Formal),2021.2.3,Win32,59.88023952,,,,,,,,,,,,,,,,e,1,0.5157,,,,,,我们,e,,,1,28,108,52,1,,,,,,,,,,,,,,,,,,,,,,,,,,,,,,,,,,
,,,,,,,,,,,,,1,001,2025-01-31_19h41.07.567,IAT(Formal),2021.2.3,Win32,59.88023952,,,,,,,,,,,,,,,,e,1,0.5141,,,,,,我的,e,,,1,29,109,1,1,,,,,,,,,,,,,,,,,,,,,,,,,,,,,,,,,,
,,,,,,,,,,,,,1,001,2025-01-31_19h41.07.567,IAT(Formal),2021.2.3,Win32,59.88023952,,,,,,,,,,,,,,,,i,1,0.6846,,,,,,野蛮,i,,,1,30,110,46,1,,,,,,,,,,,,,,,,,,,,,,,,,,,,,,,,,,
,,,,,,,,,,,,,1,001,2025-01-31_19h41.07.567,IAT(Formal),2021.2.3,Win32,59.88023952,,,,,,,,,,,,,,,,i,1,0.6251,,,,,,他,i,,,1,31,111,5,1,,,,,,,,,,,,,,,,,,,,,,,,,,,,,,,,,,
,,,,,,,,,,,,,1,001,2025-01-31_19h41.07.567,IAT(Formal),2021.2.3,Win32,59.88023952,,,,,,,,,,,,,,,,i,1,0.5801,,,,,,卑鄙,i,,,1,32,112,30,1,,,,,,,,,,,,,,,,,,,,,,,,,,,,,,,,,,
,,,,,,,,,,,,,1,001,2025-01-31_19h41.07.567,IAT(Formal),2021.2.3,Win32,59.88023952,,,,,,,,,,,,,,,,i,1,0.5048,,,,,,散漫,i,,,1,33,113,41,1,,,,,,,,,,,,,,,,,,,,,,,,,,,,,,,,,,
,,,,,,,,,,,,,1,001,2025-01-31_19h41.07.567,IAT(Formal),2021.2.3,Win32,59.88023952,,,,,,,,,,,,,,,,i,1,0.5143,,,,,,他们,i,,,1,34,114,56,1,,,,,,,,,,,,,,,,,,,,,,,,,,,,,,,,,,
,,,,,,,,,,,,,1,001,2025-01-31_19h41.07.567,IAT(Formal),2021.2.3,Win32,59.88023952,,,,,,,,,,,,,,,,i,1,0.455,,,,,,下贱,i,,,1,35,115,49,1,,,,,,,,,,,,,,,,,,,,,,,,,,,,,,,,,,
,,,,,,,,,,,,,1,001,2025-01-31_19h41.07.567,IAT(Formal),2021.2.3,Win32,59.88023952,,,,,,,,,,,,,,,,i,1,0.6134,,,,,,暴躁,i,,,1,36,116,44,1,,,,,,,,,,,,,,,,,,,,,,,,,,,,,,,,,,
,,,,,,,,,,,,,1,001,2025-01-31_19h41.07.567,IAT(Formal),2021.2.3,Win32,59.88023952,,,,,,,,,,,,,,,,i,0,0.3689,,,,,,我,e,,,1,37,117,0,1,,,,,,,,,,,,,,,,,,,,,,,,,,,,,,,,,,
,,,,,,,,,,,,,1,001,2025-01-31_19h41.07.567,IAT(Formal),2021.2.3,Win32,59.88023952,,,,,,,,,,,,,,,,e,1,0.4779,,,,,,优秀,e,,,1,38,118,10,1,,,,,,,,,,,,,,,,,,,,,,,,,,,,,,,,,,
,,,,,,,,,,,,,1,001,2025-01-31_19h41.07.567,IAT(Formal),2021.2.3,Win32,59.88023952,,,,,,,,,,,,,,,,i,1,0.5796,,,,,,他的,i,,,1,39,119,7,1,,,,,,,,,,,,,,,,,,,,,,,,,,,,,,,,,,
,,,,,,,,,,,,,1,001,2025-01-31_19h41.07.567,IAT(Formal),2021.2.3,Win32,59.88023952,,,,,,,,,,,,,,,,e,1,0.6957,,,,,,聪明,e,,,1,40,120,12,1,,,,,,,,,,,,,,,,,,,,,,,,,,,,,,,,,,
,,,,,,,,,,,,,1,001,2025-01-31_19h41.07.567,IAT(Formal),2021.2.3,Win32,59.88023952,,,,,,,,,,,,,,,,e,1,0.4998,,,,,,我,e,,,1,41,121,50,1,,,,,,,,,,,,,,,,,,,,,,,,,,,,,,,,,,
,,,,,,,,,,,,,1,001,2025-01-31_19h41.07.567,IAT(Formal),2021.2.3,Win32,59.88023952,,,,,,,,,,,,,,,,i,1,0.5123,,,,,,猖狂,i,,,1,42,122,45,1,,,,,,,,,,,,,,,,,,,,,,,,,,,,,,,,,,
,,,,,,,,,,,,,1,001,2025-01-31_19h41.07.567,IAT(Formal),2021.2.3,Win32,59.88023952,,,,,,,,,,,,,,,,e,1,0.5293,,,,,,俺,e,,,1,43,123,4,1,,,,,,,,,,,,,,,,,,,,,,,,,,,,,,,,,,
,,,,,,,,,,,,,1,001,2025-01-31_19h41.07.567,IAT(Formal),2021.2.3,Win32,59.88023952,,,,,,,,,,,,,,,,e,1,0.6316,,,,,,机智,e,,,1,44,124,19,1,,,,,,,,,,,,,,,,,,,,,,,,,,,,,,,,,,
,,,,,,,,,,,,,1,001,2025-01-31_19h41.07.567,IAT(Formal),2021.2.3,Win32,59.88023952,,,,,,,,,,,,,,,,e,1,0.45,,,,,,我们,e,,,1,45,125,62,1,,,,,,,,,,,,,,,,,,,,,,,,,,,,,,,,,,
,,,,,,,,,,,,,1,001,2025-01-31_19h41.07.567,IAT(Formal),2021.2.3,Win32,59.88023952,,,,,,,,,,,,,,,,e,1,0.618,,,,,,冷静,e,,,1,46,126,26,1,,,,,,,,,,,,,,,,,,,,,,,,,,,,,,,,,,
,,,,,,,,,,,,,1,001,2025-01-31_19h41.07.567,IAT(Formal),2021.2.3,Win32,59.88023952,,,,,,,,,,,,,,,,e,1,0.6259,,,,,,细腻,e,,,1,47,127,25,1,,,,,,,,,,,,,,,,,,,,,,,,,,,,,,,,,,
,,,,,,,,,,,,,1,001,2025-01-31_19h41.07.567,IAT(Formal),2021.2.3,Win32,59.88023952,,,,,,,,,,,,,,,,e,1,0.3799,,,,,,俺,e,,,1,48,128,64,1,,,,,,,,,,,,,,,,,,,,,,,,,,,,,,,,,,
,,,,,,,,,,,,,1,001,2025-01-31_19h41.07.567,IAT(Formal),2021.2.3,Win32,59.88023952,,,,,,,,,,,,,,,,e,0,0.7533,,,,,,执拗,i,,,1,49,129,40,1,,,,,,,,,,,,,,,,,,,,,,,,,,,,,,,,,,
,,,,,,,,,,,,,1,001,2025-01-31_19h41.07.567,IAT(Formal),2021.2.3,Win32,59.88023952,,,,,,,,,,,,,,,,e,0,0.4974,,,,,,他,i,,,1,50,130,75,1,,,,,,,,,,,,,,,,,,,,,,,,,,,,,,,,,,
,,,,,,,,,,,,,1,001,2025-01-31_19h41.07.567,IAT(Formal),2021.2.3,Win32,59.88023952,,,,,,,,,,,,,,,,e,1,0.6173,,,,,,诚实,e,,,1,51,131,15,1,,,,,,,,,,,,,,,,,,,,,,,,,,,,,,,,,,
,,,,,,,,,,,,,1,001,2025-01-31_19h41.07.567,IAT(Formal),2021.2.3,Win32,59.88023952,,,,,,,,,,,,,,,,i,1,0.5302,,,,,,其他,i,,,1,52,132,79,1,,,,,,,,,,,,,,,,,,,,,,,,,,,,,,,,,,
,,,,,,,,,,,,,1,001,2025-01-31_19h41.07.567,IAT(Formal),2021.2.3,Win32,59.88023952,,,,,,,,,,,,,,,,i,1,0.6992,,,,,,悲观,i,,,1,53,133,34,1,,,,,,,,,,,,,,,,,,,,,,,,,,,,,,,,,,
,,,,,,,,,,,,,1,001,2025-01-31_19h41.07.567,IAT(Formal),2021.2.3,Win32,59.88023952,,,,,,,,,,,,,,,,i,1,0.7884,,,,,,刻薄,i,,,1,54,134,33,1,,,,,,,,,,,,,,,,,,,,,,,,,,,,,,,,,,
,,,,,,,,,,,,,1,001,2025-01-31_19h41.07.567,IAT(Formal),2021.2.3,Win32,59.88023952,,,,,,,,,,,,,,,,e,1,0.5134,,,,,,俺,e,,,1,55,135,74,1,,,,,,,,,,,,,,,,,,,,,,,,,,,,,,,,,,
,,,,,,,,,,,,,1,001,2025-01-31_19h41.07.567,IAT(Formal),2021.2.3,Win32,59.88023952,,,,,,,,,,,,,,,,e,1,0.6467,,,,,,乐观,e,,,1,56,136,14,1,,,,,,,,,,,,,,,,,,,,,,,,,,,,,,,,,,
,,,,,,,,,,,,,1,001,2025-01-31_19h41.07.567,IAT(Formal),2021.2.3,Win32,59.88023952,,,,,,,,,,,,,,,,e,1,0.7619,,,,,,我的,e,,,1,57,137,61,1,,,,,,,,,,,,,,,,,,,,,,,,,,,,,,,,,,
,,,,,,,,,,,,,1,001,2025-01-31_19h41.07.567,IAT(Formal),2021.2.3,Win32,59.88023952,,,,,,,,,,,,,,,,e,1,0.5324,,,,,,认真,e,,,1,58,138,20,1,,,,,,,,,,,,,,,,,,,,,,,,,,,,,,,,,,
,,,,,,,,,,,,,1,001,2025-01-31_19h41.07.567,IAT(Formal),2021.2.3,Win32,59.88023952,,,,,,,,,,,,,,,,i,1,0.8464,,,,,,冒失,i,,,1,59,139,39,1,,,,,,,,,,,,,,,,,,,,,,,,,,,,,,,,,,
,,,,,,,,,,,,,1,001,2025-01-31_19h41.07.567,IAT(Formal),2021.2.3,Win32,59.88023952,,,,,,,,,,,,,,,,e,1,0.7311,,,,,,朴实,e,,,1,60,140,24,1,,,,,,,,,,,,,,,,,,,,,,,,,,,,,,,,,,
,,,,,,,,,,,,,1,001,2025-01-31_19h41.07.567,IAT(Formal),2021.2.3,Win32,59.88023952,,,,,,,,,,,,,,,,e,1,0.4695,,,,,,杰出,e,,,1,61,141,13,1,,,,,,,,,,,,,,,,,,,,,,,,,,,,,,,,,,
,,,,,,,,,,,,,1,001,2025-01-31_19h41.07.567,IAT(Formal),2021.2.3,Win32,59.88023952,,,,,,,,,,,,,,,,i,1,0.6021,,,,,,轻率,i,,,1,62,142,48,1,,,,,,,,,,,,,,,,,,,,,,,,,,,,,,,,,,
,,,,,,,,,,,,,1,001,2025-01-31_19h41.07.567,IAT(Formal),2021.2.3,Win32,59.88023952,,,,,,,,,,,,,,,,e,1,0.4785,,,,,,自己,e,,,1,63,143,53,1,,,,,,,,,,,,,,,,,,,,,,,,,,,,,,,,,,
,,,,,,,,,,,,,1,001,2025-01-31_19h41.07.567,IAT(Formal),2021.2.3,Win32,59.88023952,,,,,,,,,,,,,,,,i,1,0.7493,,,,,,凶狠,i,,,1,64,144,42,1,,,,,,,,,,,,,,,,,,,,,,,,,,,,,,,,,,
,,,,,,,,,,,,,1,001,2025-01-31_19h41.07.567,IAT(Formal),2021.2.3,Win32,59.88023952,,,,,,,,,,,,,,,,i,1,0.839,,,,,,虚伪,i,,,1,65,145,31,1,,,,,,,,,,,,,,,,,,,,,,,,,,,,,,,,,,
,,,,,,,,,,,,,1,001,2025-01-31_19h41.07.567,IAT(Formal),2021.2.3,Win32,59.88023952,,,,,,,,,,,,,,,,e,1,0.6679,,,,,,活泼,e,,,1,66,146,28,1,,,,,,,,,,,,,,,,,,,,,,,,,,,,,,,,,,
,,,,,,,,,,,,,1,001,2025-01-31_19h41.07.567,IAT(Formal),2021.2.3,Win32,59.88023952,,,,,,,,,,,,,,,,e,0,0.39,,,,,,他人,i,,,1,67,147,8,1,,,,,,,,,,,,,,,,,,,,,,,,,,,,,,,,,,
,,,,,,,,,,,,,1,001,2025-01-31_19h41.07.567,IAT(Formal),2021.2.3,Win32,59.88023952,,,,,,,,,,,,,,,,e,1,0.7223,,,,,,自己,e,,,1,68,148,63,1,,,,,,,,,,,,,,,,,,,,,,,,,,,,,,,,,,
,,,,,,,,,,,,,1,001,2025-01-31_19h41.07.567,IAT(Formal),2021.2.3,Win32,59.88023952,,,,,,,,,,,,,,,,e,1,0.7666,,,,,,我们,e,,,1,69,149,72,1,,,,,,,,,,,,,,,,,,,,,,,,,,,,,,,,,,
,,,,,,,,,,,,,1,001,2025-01-31_19h41.07.567,IAT(Formal),2021.2.3,Win32,59.88023952,,,,,,,,,,,,,,,,i,1,0.7259,,,,,,他的,i,,,1,70,150,77,1,,,,,,,,,,,,,,,,,,,,,,,,,,,,,,,,,,
,,,,,,,,,,,,,1,001,2025-01-31_19h41.07.567,IAT(Formal),2021.2.3,Win32,59.88023952,,,,,,,,,,,,,,,,e,1,0.5638,,,,,,公正,e,,,1,71,151,23,1,,,,,,,,,,,,,,,,,,,,,,,,,,,,,,,,,,
,,,,,,,,,,,,,1,001,2025-01-31_19h41.07.567,IAT(Formal),2021.2.3,Win32,59.88023952,,,,,,,,,,,,,,,,i,1,0.6142,,,,,,其他,i,,,1,72,152,59,1,,,,,,,,,,,,,,,,,,,,,,,,,,,,,,,,,,
,,,,,,,,,,,,,1,001,2025-01-31_19h41.07.567,IAT(Formal),2021.2.3,Win32,59.88023952,,,,,,,,,,,,,,,,i,1,0.6512,,,,,,他们,i,,,1,73,153,66,1,,,,,,,,,,,,,,,,,,,,,,,,,,,,,,,,,,
,,,,,,,,,,,,,1,001,2025-01-31_19h41.07.567,IAT(Formal),2021.2.3,Win32,59.88023952,,,,,,,,,,,,,,,,i,1,0.7694,,,,,,愚蠢,i,,,1,74,154,32,1,,,,,,,,,,,,,,,,,,,,,,,,,,,,,,,,,,
,,,,,,,,,,,,,1,001,2025-01-31_19h41.07.567,IAT(Formal),2021.2.3,Win32,59.88023952,,,,,,,,,,,,,,,,i,1,0.5862,,,,,,他的,i,,,1,75,155,57,1,,,,,,,,,,,,,,,,,,,,,,,,,,,,,,,,,,
,,,,,,,,,,,,,1,001,2025-01-31_19h41.07.567,IAT(Formal),2021.2.3,Win32,59.88023952,,,,,,,,,,,,,,,,e,0,0.7818,,,,,,他们,i,,,1,76,156,6,1,,,,,,,,,,,,,,,,,,,,,,,,,,,,,,,,,,
,,,,,,,,,,,,,1,001,2025-01-31_19h41.07.567,IAT(Formal),2021.2.3,Win32,59.88023952,,,,,,,,,,,,,,,,i,1,0.5043,,,,,,其他,i,,,1,77,157,69,1,,,,,,,,,,,,,,,,,,,,,,,,,,,,,,,,,,
,,,,,,,,,,,,,1,001,2025-01-31_19h41.07.567,IAT(Formal),2021.2.3,Win32,59.88023952,,,,,,,,,,,,,,,,e,1,0.6831,,,,,,热情,e,,,1,78,158,27,1,,,,,,,,,,,,,,,,,,,,,,,,,,,,,,,,,,
,,,,,,,,,,,,,1,001,2025-01-31_19h41.07.567,IAT(Formal),2021.2.3,Win32,59.88023952,,,,,,,,,,,,,,,,i,1,0.7562,,,,,,他的,i,,,1,79,159,67,1,,,,,,,,,,,,,,,,,,,,,,,,,,,,,,,,,,
,,,,,,,,,,,我的,i,1,001,2025-01-31_19h41.07.567,IAT(Formal),2021.2.3,Win32,59.88023952,,,,,,,,,,,,,,,,,,,,,,,,,,,,,,,,,space,38.704,i,1,0.6719,0,0,0,1,1,,,,,,,,,,,,,,,,,,,,,,,,
,,,,,,,,,,,俺,i,1,001,2025-01-31_19h41.07.567,IAT(Formal),2021.2.3,Win32,59.88023952,,,,,,,,,,,,,,,,,,,,,,,,,,,,,,,,,,,i,1,0.5495,0,1,1,4,1,,,,,,,,,,,,,,,,,,,,,,,,
,,,,,,,,,,,我,i,1,001,2025-01-31_19h41.07.567,IAT(Formal),2021.2.3,Win32,59.88023952,,,,,,,,,,,,,,,,,,,,,,,,,,,,,,,,,,,i,1,0.5486,0,2,2,0,1,,,,,,,,,,,,,,,,,,,,,,,,
,,,,,,,,,,,他,e,1,001,2025-01-31_19h41.07.567,IAT(Formal),2021.2.3,Win32,59.88023952,,,,,,,,,,,,,,,,,,,,,,,,,,,,,,,,,,,e,1,0.5551,0,3,3,5,1,,,,,,,,,,,,,,,,,,,,,,,,
,,,,,,,,,,,自己,i,1,001,2025-01-31_19h41.07.567,IAT(Formal),2021.2.3,Win32,59.88023952,,,,,,,,,,,,,,,,,,,,,,,,,,,,,,,,,,,i,1,0.5441,0,4,4,3,1,,,,,,,,,,,,,,,,,,,,,,,,
,,,,,,,,,,,他的,e,1,001,2025-01-31_19h41.07.567,IAT(Formal),2021.2.3,Win32,59.88023952,,,,,,,,,,,,,,,,,,,,,,,,,,,,,,,,,,,e,1,0.7578,0,5,5,7,1,,,,,,,,,,,,,,,,,,,,,,,,
,,,,,,,,,,,我们,i,1,001,2025-01-31_19h41.07.567,IAT(Formal),2021.2.3,Win32,59.88023952,,,,,,,,,,,,,,,,,,,,,,,,,,,,,,,,,,,i,1,0.6832,0,6,6,2,1,,,,,,,,,,,,,,,,,,,,,,,,
,,,,,,,,,,,他们,e,1,001,2025-01-31_19h41.07.567,IAT(Formal),2021.2.3,Win32,59.88023952,,,,,,,,,,,,,,,,,,,,,,,,,,,,,,,,,,,e,1,0.5148,0,7,7,6,1,,,,,,,,,,,,,,,,,,,,,,,,
,,,,,,,,,,,他人,e,1,001,2025-01-31_19h41.07.567,IAT(Formal),2021.2.3,Win32,59.88023952,,,,,,,,,,,,,,,,,,,,,,,,,,,,,,,,,,,e,1,1.0224,0,8,8,8,1,,,,,,,,,,,,,,,,,,,,,,,,
,,,,,,,,,,,其他,e,1,001,2025-01-31_19h41.07.567,IAT(Formal),2021.2.3,Win32,59.88023952,,,,,,,,,,,,,,,,,,,,,,,,,,,,,,,,,,,,0,,0,9,9,9,1,,,,,,,,,,,,,,,,,,,,,,,,
,,,,,,,,,,,,,1,001,2025-01-31_19h41.07.567,IAT(Formal),2021.2.3,Win32,59.88023952,,,,,,,,,,,,,,,,,,,,,,,,,,,,,,,,,,,,,,,,,,,space,5.457,e,1,0.6678,0,0,0,7,1,他的,e,,,,,,,,,,,,
,,,,,,,,,,,,,1,001,2025-01-31_19h41.07.567,IAT(Formal),2021.2.3,Win32,59.88023952,,,,,,,,,,,,,,,,,,,,,,,,,,,,,,,,,,,,,,,,,,,,,e,1,0.6441,0,1,1,9,1,其他,e,,,,,,,,,,,,
,,,,,,,,,,,,,1,001,2025-01-31_19h41.07.567,IAT(Formal),2021.2.3,Win32,59.88023952,,,,,,,,,,,,,,,,,,,,,,,,,,,,,,,,,,,,,,,,,,,,,e,0,0.9893,0,2,2,34,1,悲观,i,,,,,,,,,,,,
,,,,,,,,,,,,,1,001,2025-01-31_19h41.07.567,IAT(Formal),2021.2.3,Win32,59.88023952,,,,,,,,,,,,,,,,,,,,,,,,,,,,,,,,,,,,,,,,,,,,,i,0,1.3501,0,3,3,26,1,冷静,e,,,,,,,,,,,,
,,,,,,,,,,,,,1,001,2025-01-31_19h41.07.567,IAT(Formal),2021.2.3,Win32,59.88023952,,,,,,,,,,,,,,,,,,,,,,,,,,,,,,,,,,,,,,,,,,,,,e,0,0.9672,0,4,4,33,1,刻薄,i,,,,,,,,,,,,
,,,,,,,,,,,,,1,001,2025-01-31_19h41.07.567,IAT(Formal),2021.2.3,Win32,59.88023952,,,,,,,,,,,,,,,,,,,,,,,,,,,,,,,,,,,,,,,,,,,,,i,1,0.6948,0,5,5,53,1,自己,i,,,,,,,,,,,,
,,,,,,,,,,,,,1,001,2025-01-31_19h41.07.567,IAT(Formal),2021.2.3,Win32,59.88023952,,,,,,,,,,,,,,,,,,,,,,,,,,,,,,,,,,,,,,,,,,,,,i,1,0.9843,0,6,6,72,1,我们,i,,,,,,,,,,,,
,,,,,,,,,,,,,1,001,2025-01-31_19h41.07.567,IAT(Formal),2021.2.3,Win32,59.88023952,,,,,,,,,,,,,,,,,,,,,,,,,,,,,,,,,,,,,,,,,,,,,i,1,0.4683,0,7,7,3,1,自己,i,,,,,,,,,,,,
,,,,,,,,,,,,,1,001,2025-01-31_19h41.07.567,IAT(Formal),2021.2.3,Win32,59.88023952,,,,,,,,,,,,,,,,,,,,,,,,,,,,,,,,,,,,,,,,,,,,,e,1,0.7345,0,8,8,19,1,机智,e,,,,,,,,,,,,
,,,,,,,,,,,,,1,001,2025-01-31_19h41.07.567,IAT(Formal),2021.2.3,Win32,59.88023952,,,,,,,,,,,,,,,,,,,,,,,,,,,,,,,,,,,,,,,,,,,,,i,1,0.5709,0,9,9,36,1,自卑,i,,,,,,,,,,,,
,,,,,,,,,,,,,1,001,2025-01-31_19h41.07.567,IAT(Formal),2021.2.3,Win32,59.88023952,,,,,,,,,,,,,,,,,,,,,,,,,,,,,,,,,,,,,,,,,,,,,i,1,0.5085,0,10,10,63,1,自己,i,,,,,,,,,,,,
,,,,,,,,,,,,,1,001,2025-01-31_19h41.07.567,IAT(Formal),2021.2.3,Win32,59.88023952,,,,,,,,,,,,,,,,,,,,,,,,,,,,,,,,,,,,,,,,,,,,,i,1,1.3691,0,11,11,40,1,执拗,i,,,,,,,,,,,,
,,,,,,,,,,,,,1,001,2025-01-31_19h41.07.567,IAT(Formal),2021.2.3,Win32,59.88023952,,,,,,,,,,,,,,,,,,,,,,,,,,,,,,,,,,,,,,,,,,,,,i,1,0.535,0,12,12,32,1,愚蠢,i,,,,,,,,,,,,
,,,,,,,,,,,,,1,001,2025-01-31_19h41.07.567,IAT(Formal),2021.2.3,Win32,59.88023952,,,,,,,,,,,,,,,,,,,,,,,,,,,,,,,,,,,,,,,,,,,,,i,0,0.9831,0,13,13,29,1,诚恳,e,,,,,,,,,,,,
,,,,,,,,,,,,,1,001,2025-01-31_19h41.07.567,IAT(Formal),2021.2.3,Win32,59.88023952,,,,,,,,,,,,,,,,,,,,,,,,,,,,,,,,,,,,,,,,,,,,,i,1,0.7893,0,14,14,50,1,我,i,,,,,,,,,,,,
,,,,,,,,,,,,,1,001,2025-01-31_19h41.07.567,IAT(Formal),2021.2.3,Win32,59.88023952,,,,,,,,,,,,,,,,,,,,,,,,,,,,,,,,,,,,,,,,,,,,,e,1,0.8838,0,15,15,8,1,他人,e,,,,,,,,,,,,
,,,,,,,,,,,,,1,001,2025-01-31_19h41.07.567,IAT(Formal),2021.2.3,Win32,59.88023952,,,,,,,,,,,,,,,,,,,,,,,,,,,,,,,,,,,,,,,,,,,,,i,1,0.6773,0,16,16,61,1,我的,i,,,,,,,,,,,,
,,,,,,,,,,,,,1,001,2025-01-31_19h41.07.567,IAT(Formal),2021.2.3,Win32,59.88023952,,,,,,,,,,,,,,,,,,,,,,,,,,,,,,,,,,,,,,,,,,,,,i,1,1.0114,0,17,17,42,1,凶狠,i,,,,,,,,,,,,
,,,,,,,,,,,,,1,001,2025-01-31_19h41.07.567,IAT(Formal),2021.2.3,Win32,59.88023952,,,,,,,,,,,,,,,,,,,,,,,,,,,,,,,,,,,,,,,,,,,,,e,1,1.0559,0,18,18,78,1,他人,e,,,,,,,,,,,,
,,,,,,,,,,,,,1,001,2025-01-31_19h41.07.567,IAT(Formal),2021.2.3,Win32,59.88023952,,,,,,,,,,,,,,,,,,,,,,,,,,,,,,,,,,,,,,,,,,,,,e,1,0.6705,0,19,19,27,1,热情,e,,,,,,,,,,,,
,,,,,,,,,,,,,1,001,2025-01-31_19h41.07.567,IAT(Formal),2021.2.3,Win32,59.88023952,,,,,,,,,,,,,,,,,,,,,,,,,,,,,,,,,,,,,,,,,,,,,i,1,0.9788,0,20,20,37,1,傲慢,i,,,,,,,,,,,,
,,,,,,,,,,,,,1,001,2025-01-31_19h41.07.567,IAT(Formal),2021.2.3,Win32,59.88023952,,,,,,,,,,,,,,,,,,,,,,,,,,,,,,,,,,,,,,,,,,,,,i,1,0.5906,0,21,21,41,1,散漫,i,,,,,,,,,,,,
,,,,,,,,,,,,,1,001,2025-01-31_19h41.07.567,IAT(Formal),2021.2.3,Win32,59.88023952,,,,,,,,,,,,,,,,,,,,,,,,,,,,,,,,,,,,,,,,,,,,,e,1,0.8837,0,22,22,10,1,优秀,e,,,,,,,,,,,,
,,,,,,,,,,,,,1,001,2025-01-31_19h41.07.567,IAT(Formal),2021.2.3,Win32,59.88023952,,,,,,,,,,,,,,,,,,,,,,,,,,,,,,,,,,,,,,,,,,,,,i,1,0.7675,0,23,23,46,1,野蛮,i,,,,,,,,,,,,
,,,,,,,,,,,,,1,001,2025-01-31_19h41.07.567,IAT(Formal),2021.2.3,Win32,59.88023952,,,,,,,,,,,,,,,,,,,,,,,,,,,,,,,,,,,,,,,,,,,,,e,1,0.855,0,24,24,56,1,他们,e,,,,,,,,,,,,
,,,,,,,,,,,,,1,001,2025-01-31_19h41.07.567,IAT(Formal),2021.2.3,Win32,59.88023952,,,,,,,,,,,,,,,,,,,,,,,,,,,,,,,,,,,,,,,,,,,,,i,1,1.2181,0,25,25,49,1,下贱,i,,,,,,,,,,,,
,,,,,,,,,,,,,1,001,2025-01-31_19h41.07.567,IAT(Formal),2021.2.3,Win32,59.88023952,,,,,,,,,,,,,,,,,,,,,,,,,,,,,,,,,,,,,,,,,,,,,i,1,0.8348,0,26,26,74,1,俺,i,,,,,,,,,,,,
,,,,,,,,,,,,,1,001,2025-01-31_19h41.07.567,IAT(Formal),2021.2.3,Win32,59.88023952,,,,,,,,,,,,,,,,,,,,,,,,,,,,,,,,,,,,,,,,,,,,,i,1,1.2775,0,27,27,62,1,我们,i,,,,,,,,,,,,
,,,,,,,,,,,,,1,001,2025-01-31_19h41.07.567,IAT(Formal),2021.2.3,Win32,59.88023952,,,,,,,,,,,,,,,,,,,,,,,,,,,,,,,,,,,,,,,,,,,,,i,0,0.5742,0,28,28,24,1,朴实,e,,,,,,,,,,,,
,,,,,,,,,,,,,1,001,2025-01-31_19h41.07.567,IAT(Formal),2021.2.3,Win32,59.88023952,,,,,,,,,,,,,,,,,,,,,,,,,,,,,,,,,,,,,,,,,,,,,i,1,0.8755,0,29,29,44,1,暴躁,i,,,,,,,,,,,,
,,,,,,,,,,,,,1,001,2025-01-31_19h41.07.567,IAT(Formal),2021.2.3,Win32,59.88023952,,,,,,,,,,,,,,,,,,,,,,,,,,,,,,,,,,,,,,,,,,,,,e,1,0.7128,0,30,30,57,1,他的,e,,,,,,,,,,,,
,,,,,,,,,,,,,1,001,2025-01-31_19h41.07.567,IAT(Formal),2021.2.3,Win32,59.88023952,,,,,,,,,,,,,,,,,,,,,,,,,,,,,,,,,,,,,,,,,,,,,e,1,0.7683,0,31,31,77,1,他的,e,,,,,,,,,,,,
,,,,,,,,,,,,,1,001,2025-01-31_19h41.07.567,IAT(Formal),2021.2.3,Win32,59.88023952,,,,,,,,,,,,,,,,,,,,,,,,,,,,,,,,,,,,,,,,,,,,,i,1,1.0193,0,32,32,39,1,冒失,i,,,,,,,,,,,,
,,,,,,,,,,,,,1,001,2025-01-31_19h41.07.567,IAT(Formal),2021.2.3,Win32,59.88023952,,,,,,,,,,,,,,,,,,,,,,,,,,,,,,,,,,,,,,,,,,,,,i,1,0.7157,0,33,33,54,1,俺,i,,,,,,,,,,,,
,,,,,,,,,,,,,1,001,2025-01-31_19h41.07.567,IAT(Formal),2021.2.3,Win32,59.88023952,,,,,,,,,,,,,,,,,,,,,,,,,,,,,,,,,,,,,,,,,,,,,i,0,0.9009,0,34,34,20,1,认真,e,,,,,,,,,,,,
,,,,,,,,,,,,,1,001,2025-01-31_19h41.07.567,IAT(Formal),2021.2.3,Win32,59.88023952,,,,,,,,,,,,,,,,,,,,,,,,,,,,,,,,,,,,,,,,,,,,,e,1,1.1549,0,35,35,5,1,他,e,,,,,,,,,,,,
,,,,,,,,,,,,,1,001,2025-01-31_19h41.07.567,IAT(Formal),2021.2.3,Win32,59.88023952,,,,,,,,,,,,,,,,,,,,,,,,,,,,,,,,,,,,,,,,,,,,,i,0,0.8009,0,36,36,28,1,活泼,e,,,,,,,,,,,,
,,,,,,,,,,,,,1,001,2025-01-31_19h41.07.567,IAT(Formal),2021.2.3,Win32,59.88023952,,,,,,,,,,,,,,,,,,,,,,,,,,,,,,,,,,,,,,,,,,,,,,0,,0,37,37,16,1,正直,e,,,,,,,,,,,,
,,,,,,,,,,,,,1,001,2025-01-31_19h41.07.567,IAT(Formal),2021.2.3,Win32,59.88023952,,,,,,,,,,,,,,,,,,,,,,,,,,,,,,,,,,,,,,,,,,,,,,0,,0,38,38,68,1,他人,e,,,,,,,,,,,,
,,,,,,,,,,,,,1,001,2025-01-31_19h41.07.567,IAT(Formal),2021.2.3,Win32,59.88023952,,,,,,,,,,,,,,,,,,,,,,,,,,,,,,,,,,,,,,,,,,,,,i,1,0.7581,0,39,39,38,1,鲁莽,i,,,,,,,,,,,,
,,,,,,,,,,,,,1,001,2025-01-31_19h41.07.567,IAT(Formal),2021.2.3,Win32,59.88023952,,,,,,,,,,,,,,,,,,,,,,,,,,,,,,,,,,,,,,,,,,,,,e,1,0.751,0,40,40,23,1,公正,e,,,,,,,,,,,,
,,,,,,,,,,,,,1,001,2025-01-31_19h41.07.567,IAT(Formal),2021.2.3,Win32,59.88023952,,,,,,,,,,,,,,,,,,,,,,,,,,,,,,,,,,,,,,,,,,,,,e,1,0.8846,0,41,41,55,1,他,e,,,,,,,,,,,,
,,,,,,,,,,,,,1,001,2025-01-31_19h41.07.567,IAT(Formal),2021.2.3,Win32,59.88023952,,,,,,,,,,,,,,,,,,,,,,,,,,,,,,,,,,,,,,,,,,,,,e,1,0.6342,0,42,42,6,1,他们,e,,,,,,,,,,,,
,,,,,,,,,,,,,1,001,2025-01-31_19h41.07.567,IAT(Formal),2021.2.3,Win32,59.88023952,,,,,,,,,,,,,,,,,,,,,,,,,,,,,,,,,,,,,,,,,,,,,i,1,1.1695,0,43,43,35,1,消极,i,,,,,,,,,,,,
,,,,,,,,,,,,,1,001,2025-01-31_19h41.07.567,IAT(Formal),2021.2.3,Win32,59.88023952,,,,,,,,,,,,,,,,,,,,,,,,,,,,,,,,,,,,,,,,,,,,,i,1,0.6957,0,44,44,0,1,我,i,,,,,,,,,,,,
,,,,,,,,,,,,,1,001,2025-01-31_19h41.07.567,IAT(Formal),2021.2.3,Win32,59.88023952,,,,,,,,,,,,,,,,,,,,,,,,,,,,,,,,,,,,,,,,,,,,,i,1,0.7349,0,45,45,2,1,我们,i,,,,,,,,,,,,
,,,,,,,,,,,,,1,001,2025-01-31_19h41.07.567,IAT(Formal),2021.2.3,Win32,59.88023952,,,,,,,,,,,,,,,,,,,,,,,,,,,,,,,,,,,,,,,,,,,,,i,0,0.7854,0,46,46,14,1,乐观,e,,,,,,,,,,,,
,,,,,,,,,,,,,1,001,2025-01-31_19h41.07.567,IAT(Formal),2021.2.3,Win32,59.88023952,,,,,,,,,,,,,,,,,,,,,,,,,,,,,,,,,,,,,,,,,,,,,i,1,0.7837,0,47,47,64,1,俺,i,,,,,,,,,,,,
,,,,,,,,,,,,,1,001,2025-01-31_19h41.07.567,IAT(Formal),2021.2.3,Win32,59.88023952,,,,,,,,,,,,,,,,,,,,,,,,,,,,,,,,,,,,,,,,,,,,,,0,,0,48,48,70,1,我,i,,,,,,,,,,,,
,,,,,,,,,,,,,1,001,2025-01-31_19h41.07.567,IAT(Formal),2021.2.3,Win32,59.88023952,,,,,,,,,,,,,,,,,,,,,,,,,,,,,,,,,,,,,,,,,,,,,i,1,0.7728,0,49,49,1,1,我的,i,,,,,,,,,,,,
,,,,,,,,,,,,,1,001,2025-01-31_19h41.07.567,IAT(Formal),2021.2.3,Win32,59.88023952,,,,,,,,,,,,,,,,,,,,,,,,,,,,,,,,,,,,,,,,,,,,,,0,,0,50,50,22,1,无私,e,,,,,,,,,,,,
,,,,,,,,,,,,,1,001,2025-01-31_19h41.07.567,IAT(Formal),2021.2.3,Win32,59.88023952,,,,,,,,,,,,,,,,,,,,,,,,,,,,,,,,,,,,,,,,,,,,,e,1,0.6715,0,51,51,66,1,他们,e,,,,,,,,,,,,
,,,,,,,,,,,,,1,001,2025-01-31_19h41.07.567,IAT(Formal),2021.2.3,Win32,59.88023952,,,,,,,,,,,,,,,,,,,,,,,,,,,,,,,,,,,,,,,,,,,,,e,1,0.7671,0,52,52,69,1,其他,e,,,,,,,,,,,,
,,,,,,,,,,,,,1,001,2025-01-31_19h41.07.567,IAT(Formal),2021.2.3,Win32,59.88023952,,,,,,,,,,,,,,,,,,,,,,,,,,,,,,,,,,,,,,,,,,,,,e,0,0.267,0,53,53,47,1,固执,i,,,,,,,,,,,,
,,,,,,,,,,,,,1,001,2025-01-31_19h41.07.567,IAT(Formal),2021.2.3,Win32,59.88023952,,,,,,,,,,,,,,,,,,,,,,,,,,,,,,,,,,,,,,,,,,,,,e,1,1.1223,0,54,54,25,1,细腻,e,,,,,,,,,,,,
,,,,,,,,,,,,,1,001,2025-01-31_19h41.07.567,IAT(Formal),2021.2.3,Win32,59.88023952,,,,,,,,,,,,,,,,,,,,,,,,,,,,,,,,,,,,,,,,,,,,,i,1,0.6224,0,55,55,71,1,我的,i,,,,,,,,,,,,
,,,,,,,,,,,,,1,001,2025-01-31_19h41.07.567,IAT(Formal),2021.2.3,Win32,59.88023952,,,,,,,,,,,,,,,,,,,,,,,,,,,,,,,,,,,,,,,,,,,,,i,1,0.6515,0,56,56,45,1,猖狂,i,,,,,,,,,,,,
,,,,,,,,,,,,,1,001,2025-01-31_19h41.07.567,IAT(Formal),2021.2.3,Win32,59.88023952,,,,,,,,,,,,,,,,,,,,,,,,,,,,,,,,,,,,,,,,,,,,,e,1,0.6175,0,57,57,21,1,稳重,e,,,,,,,,,,,,
,,,,,,,,,,,,,1,001,2025-01-31_19h41.07.567,IAT(Formal),2021.2.3,Win32,59.88023952,,,,,,,,,,,,,,,,,,,,,,,,,,,,,,,,,,,,,,,,,,,,,e,0,0.6015,0,58,58,43,1,自私,i,,,,,,,,,,,,
,,,,,,,,,,,,,1,001,2025-01-31_19h41.07.567,IAT(Formal),2021.2.3,Win32,59.88023952,,,,,,,,,,,,,,,,,,,,,,,,,,,,,,,,,,,,,,,,,,,,,e,1,0.5677,0,59,59,59,1,其他,e,,,,,,,,,,,,
,,,,,,,,,,,,,1,001,2025-01-31_19h41.07.567,IAT(Formal),2021.2.3,Win32,59.88023952,,,,,,,,,,,,,,,,,,,,,,,,,,,,,,,,,,,,,,,,,,,,,i,1,0.7463,0,60,60,30,1,卑鄙,i,,,,,,,,,,,,
,,,,,,,,,,,,,1,001,2025-01-31_19h41.07.567,IAT(Formal),2021.2.3,Win32,59.88023952,,,,,,,,,,,,,,,,,,,,,,,,,,,,,,,,,,,,,,,,,,,,,e,1,0.6005,0,61,61,65,1,他,e,,,,,,,,,,,,
,,,,,,,,,,,,,1,001,2025-01-31_19h41.07.567,IAT(Formal),2021.2.3,Win32,59.88023952,,,,,,,,,,,,,,,,,,,,,,,,,,,,,,,,,,,,,,,,,,,,,e,0,1.0443,0,62,62,48,1,轻率,i,,,,,,,,,,,,
,,,,,,,,,,,,,1,001,2025-01-31_19h41.07.567,IAT(Formal),2021.2.3,Win32,59.88023952,,,,,,,,,,,,,,,,,,,,,,,,,,,,,,,,,,,,,,,,,,,,,i,1,0.5432,0,63,63,4,1,俺,i,,,,,,,,,,,,
,,,,,,,,,,,,,1,001,2025-01-31_19h41.07.567,IAT(Formal),2021.2.3,Win32,59.88023952,,,,,,,,,,,,,,,,,,,,,,,,,,,,,,,,,,,,,,,,,,,,,e,1,0.5882,0,64,64,13,1,杰出,e,,,,,,,,,,,,
,,,,,,,,,,,,,1,001,2025-01-31_19h41.07.567,IAT(Formal),2021.2.3,Win32,59.88023952,,,,,,,,,,,,,,,,,,,,,,,,,,,,,,,,,,,,,,,,,,,,,e,1,0.7086,0,65,65,76,1,他们,e,,,,,,,,,,,,
,,,,,,,,,,,,,1,001,2025-01-31_19h41.07.567,IAT(Formal),2021.2.3,Win32,59.88023952,,,,,,,,,,,,,,,,,,,,,,,,,,,,,,,,,,,,,,,,,,,,,e,1,0.6396,0,66,66,75,1,他,e,,,,,,,,,,,,
,,,,,,,,,,,,,1,001,2025-01-31_19h41.07.567,IAT(Formal),2021.2.3,Win32,59.88023952,,,,,,,,,,,,,,,,,,,,,,,,,,,,,,,,,,,,,,,,,,,,,i,1,0.5395,0,67,67,52,1,我们,i,,,,,,,,,,,,
,,,,,,,,,,,,,1,001,2025-01-31_19h41.07.567,IAT(Formal),2021.2.3,Win32,59.88023952,,,,,,,,,,,,,,,,,,,,,,,,,,,,,,,,,,,,,,,,,,,,,i,1,0.6838,0,68,68,73,1,自己,i,,,,,,,,,,,,
,,,,,,,,,,,,,1,001,2025-01-31_19h41.07.567,IAT(Formal),2021.2.3,Win32,59.88023952,,,,,,,,,,,,,,,,,,,,,,,,,,,,,,,,,,,,,,,,,,,,,e,1,0.9876,0,69,69,18,1,勤奋,e,,,,,,,,,,,,
,,,,,,,,,,,,,1,001,2025-01-31_19h41.07.567,IAT(Formal),2021.2.3,Win32,59.88023952,,,,,,,,,,,,,,,,,,,,,,,,,,,,,,,,,,,,,,,,,,,,,e,0,0.6256,0,70,70,51,1,我的,i,,,,,,,,,,,,
,,,,,,,,,,,,,1,001,2025-01-31_19h41.07.567,IAT(Formal),2021.2.3,Win32,59.88023952,,,,,,,,,,,,,,,,,,,,,,,,,,,,,,,,,,,,,,,,,,,,,e,1,0.5942,0,71,71,79,1,其他,e,,,,,,,,,,,,
,,,,,,,,,,,,,1,001,2025-01-31_19h41.07.567,IAT(Formal),2021.2.3,Win32,59.88023952,,,,,,,,,,,,,,,,,,,,,,,,,,,,,,,,,,,,,,,,,,,,,e,1,1.384,0,72,72,17,1,勇敢,e,,,,,,,,,,,,
,,,,,,,,,,,,,1,001,2025-01-31_19h41.07.567,IAT(Formal),2021.2.3,Win32,59.88023952,,,,,,,,,,,,,,,,,,,,,,,,,,,,,,,,,,,,,,,,,,,,,e,1,0.7677,0,73,73,11,1,崇高,e,,,,,,,,,,,,
,,,,,,,,,,,,,1,001,2025-01-31_19h41.07.567,IAT(Formal),2021.2.3,Win32,59.88023952,,,,,,,,,,,,,,,,,,,,,,,,,,,,,,,,,,,,,,,,,,,,,e,1,0.5991,0,74,74,15,1,诚实,e,,,,,,,,,,,,
,,,,,,,,,,,,,1,001,2025-01-31_19h41.07.567,IAT(Formal),2021.2.3,Win32,59.88023952,,,,,,,,,,,,,,,,,,,,,,,,,,,,,,,,,,,,,,,,,,,,,e,1,0.7174,0,75,75,58,1,他人,e,,,,,,,,,,,,
,,,,,,,,,,,,,1,001,2025-01-31_19h41.07.567,IAT(Formal),2021.2.3,Win32,59.88023952,,,,,,,,,,,,,,,,,,,,,,,,,,,,,,,,,,,,,,,,,,,,,e,1,0.5504,0,76,76,67,1,他的,e,,,,,,,,,,,,
,,,,,,,,,,,,,1,001,2025-01-31_19h41.07.567,IAT(Formal),2021.2.3,Win32,59.88023952,,,,,,,,,,,,,,,,,,,,,,,,,,,,,,,,,,,,,,,,,,,,,e,1,0.605,0,77,77,12,1,聪明,e,,,,,,,,,,,,
,,,,,,,,,,,,,1,001,2025-01-31_19h41.07.567,IAT(Formal),2021.2.3,Win32,59.88023952,,,,,,,,,,,,,,,,,,,,,,,,,,,,,,,,,,,,,,,,,,,,,i,1,0.5573,0,78,78,60,1,我,i,,,,,,,,,,,,
,,,,,,,,,,,,,1,001,2025-01-31_19h41.07.567,IAT(Formal),2021.2.3,Win32,59.88023952,,,,,,,,,,,,,,,,,,,,,,,,,,,,,,,,,,,,,,,,,,,,,e,0,0.7503,0,79,79,31,1,虚伪,i,,,,,,,,,,,,
,,,,,,,,,,,,,1,001,2025-01-31_19h41.07.567,IAT(Formal),2021.2.3,Win32,59.88023952,,,,,,,,,,,,,,,,,,,,,,,,,,,,,,,,,,,,,,,,,,,,,,,,,,,,,他的,e,space,4.8916,e,1,0.7522,0,0,0,57,1,,
,,,,,,,,,,,,,1,001,2025-01-31_19h41.07.567,IAT(Formal),2021.2.3,Win32,59.88023952,,,,,,,,,,,,,,,,,,,,,,,,,,,,,,,,,,,,,,,,,,,,,,,,,,,,,他们,e,,,e,1,0.561,0,1,1,56,1,,
,,,,,,,,,,,,,1,001,2025-01-31_19h41.07.567,IAT(Formal),2021.2.3,Win32,59.88023952,,,,,,,,,,,,,,,,,,,,,,,,,,,,,,,,,,,,,,,,,,,,,,,,,,,,,活泼,e,,,e,1,0.851,0,2,2,28,1,,
,,,,,,,,,,,,,1,001,2025-01-31_19h41.07.567,IAT(Formal),2021.2.3,Win32,59.88023952,,,,,,,,,,,,,,,,,,,,,,,,,,,,,,,,,,,,,,,,,,,,,,,,,,,,,凶狠,i,,,i,1,0.5513,0,3,3,42,1,,
,,,,,,,,,,,,,1,001,2025-01-31_19h41.07.567,IAT(Formal),2021.2.3,Win32,59.88023952,,,,,,,,,,,,,,,,,,,,,,,,,,,,,,,,,,,,,,,,,,,,,,,,,,,,,他,e,,,e,1,0.5701,0,4,4,5,1,,
,,,,,,,,,,,,,1,001,2025-01-31_19h41.07.567,IAT(Formal),2021.2.3,Win32,59.88023952,,,,,,,,,,,,,,,,,,,,,,,,,,,,,,,,,,,,,,,,,,,,,,,,,,,,,暴躁,i,,,i,1,0.6763,0,5,5,44,1,,
,,,,,,,,,,,,,1,001,2025-01-31_19h41.07.567,IAT(Formal),2021.2.3,Win32,59.88023952,,,,,,,,,,,,,,,,,,,,,,,,,,,,,,,,,,,,,,,,,,,,,,,,,,,,,我的,i,,,i,1,0.6598,0,6,6,1,1,,
,,,,,,,,,,,,,1,001,2025-01-31_19h41.07.567,IAT(Formal),2021.2.3,Win32,59.88023952,,,,,,,,,,,,,,,,,,,,,,,,,,,,,,,,,,,,,,,,,,,,,,,,,,,,,俺,i,,,i,1,0.6349,0,7,7,54,1,,
,,,,,,,,,,,,,1,001,2025-01-31_19h41.07.567,IAT(Formal),2021.2.3,Win32,59.88023952,,,,,,,,,,,,,,,,,,,,,,,,,,,,,,,,,,,,,,,,,,,,,,,,,,,,,我,i,,,i,1,0.5227,0,8,8,50,1,,
,,,,,,,,,,,,,1,001,2025-01-31_19h41.07.567,IAT(Formal),2021.2.3,Win32,59.88023952,,,,,,,,,,,,,,,,,,,,,,,,,,,,,,,,,,,,,,,,,,,,,,,,,,,,,他,e,,,e,1,0.5673,0,9,9,65,1,,
,,,,,,,,,,,,,1,001,2025-01-31_19h41.07.567,IAT(Formal),2021.2.3,Win32,59.88023952,,,,,,,,,,,,,,,,,,,,,,,,,,,,,,,,,,,,,,,,,,,,,,,,,,,,,他人,e,,,e,1,0.4003,0,10,10,58,1,,
,,,,,,,,,,,,,1,001,2025-01-31_19h41.07.567,IAT(Formal),2021.2.3,Win32,59.88023952,,,,,,,,,,,,,,,,,,,,,,,,,,,,,,,,,,,,,,,,,,,,,,,,,,,,,他,e,,,e,1,0.367,0,11,11,55,1,,
,,,,,,,,,,,,,1,001,2025-01-31_19h41.07.567,IAT(Formal),2021.2.3,Win32,59.88023952,,,,,,,,,,,,,,,,,,,,,,,,,,,,,,,,,,,,,,,,,,,,,,,,,,,,,轻率,i,,,i,1,0.9586,0,12,12,48,1,,
,,,,,,,,,,,,,1,001,2025-01-31_19h41.07.567,IAT(Formal),2021.2.3,Win32,59.88023952,,,,,,,,,,,,,,,,,,,,,,,,,,,,,,,,,,,,,,,,,,,,,,,,,,,,,俺,i,,,i,1,0.572,0,13,13,74,1,,
,,,,,,,,,,,,,1,001,2025-01-31_19h41.07.567,IAT(Formal),2021.2.3,Win32,59.88023952,,,,,,,,,,,,,,,,,,,,,,,,,,,,,,,,,,,,,,,,,,,,,,,,,,,,,他人,e,,,e,1,0.8179,0,14,14,8,1,,
,,,,,,,,,,,,,1,001,2025-01-31_19h41.07.567,IAT(Formal),2021.2.3,Win32,59.88023952,,,,,,,,,,,,,,,,,,,,,,,,,,,,,,,,,,,,,,,,,,,,,,,,,,,,,消极,i,,,e,0,0.8708,0,15,15,35,1,,
,,,,,,,,,,,,,1,001,2025-01-31_19h41.07.567,IAT(Formal),2021.2.3,Win32,59.88023952,,,,,,,,,,,,,,,,,,,,,,,,,,,,,,,,,,,,,,,,,,,,,,,,,,,,,我的,i,,,i,1,0.625,0,16,16,51,1,,
,,,,,,,,,,,,,1,001,2025-01-31_19h41.07.567,IAT(Formal),2021.2.3,Win32,59.88023952,,,,,,,,,,,,,,,,,,,,,,,,,,,,,,,,,,,,,,,,,,,,,,,,,,,,,刻薄,i,,,i,1,0.7008,0,17,17,33,1,,
,,,,,,,,,,,,,1,001,2025-01-31_19h41.07.567,IAT(Formal),2021.2.3,Win32,59.88023952,,,,,,,,,,,,,,,,,,,,,,,,,,,,,,,,,,,,,,,,,,,,,,,,,,,,,其他,e,,,,0,,0,18,18,69,1,,
,,,,,,,,,,,,,1,001,2025-01-31_19h41.07.567,IAT(Formal),2021.2.3,Win32,59.88023952,,,,,,,,,,,,,,,,,,,,,,,,,,,,,,,,,,,,,,,,,,,,,,,,,,,,,其他,e,,,e,1,0.7277,0,19,19,9,1,,
,,,,,,,,,,,,,1,001,2025-01-31_19h41.07.567,IAT(Formal),2021.2.3,Win32,59.88023952,,,,,,,,,,,,,,,,,,,,,,,,,,,,,,,,,,,,,,,,,,,,,,,,,,,,,我们,i,,,i,1,0.7715,0,20,20,52,1,,
,,,,,,,,,,,,,1,001,2025-01-31_19h41.07.567,IAT(Formal),2021.2.3,Win32,59.88023952,,,,,,,,,,,,,,,,,,,,,,,,,,,,,,,,,,,,,,,,,,,,,,,,,,,,,其他,e,,,e,1,0.6108,0,21,21,79,1,,
,,,,,,,,,,,,,1,001,2025-01-31_19h41.07.567,IAT(Formal),2021.2.3,Win32,59.88023952,,,,,,,,,,,,,,,,,,,,,,,,,,,,,,,,,,,,,,,,,,,,,,,,,,,,,聪明,e,,,i,0,1.2878,0,22,22,12,1,,
,,,,,,,,,,,,,1,001,2025-01-31_19h41.07.567,IAT(Formal),2021.2.3,Win32,59.88023952,,,,,,,,,,,,,,,,,,,,,,,,,,,,,,,,,,,,,,,,,,,,,,,,,,,,,他人,e,,,e,1,0.7173,0,23,23,68,1,,
,,,,,,,,,,,,,1,001,2025-01-31_19h41.07.567,IAT(Formal),2021.2.3,Win32,59.88023952,,,,,,,,,,,,,,,,,,,,,,,,,,,,,,,,,,,,,,,,,,,,,,,,,,,,,细腻,e,,,e,1,0.6083,0,24,24,25,1,,
,,,,,,,,,,,,,1,001,2025-01-31_19h41.07.567,IAT(Formal),2021.2.3,Win32,59.88023952,,,,,,,,,,,,,,,,,,,,,,,,,,,,,,,,,,,,,,,,,,,,,,,,,,,,,他们,e,,,e,1,0.6353,0,25,25,66,1,,
,,,,,,,,,,,,,1,001,2025-01-31_19h41.07.567,IAT(Formal),2021.2.3,Win32,59.88023952,,,,,,,,,,,,,,,,,,,,,,,,,,,,,,,,,,,,,,,,,,,,,,,,,,,,,诚恳,e,,,e,1,0.8838,0,26,26,29,1,,
,,,,,,,,,,,,,1,001,2025-01-31_19h41.07.567,IAT(Formal),2021.2.3,Win32,59.88023952,,,,,,,,,,,,,,,,,,,,,,,,,,,,,,,,,,,,,,,,,,,,,,,,,,,,,他的,e,,,e,1,0.534,0,27,27,7,1,,
,,,,,,,,,,,,,1,001,2025-01-31_19h41.07.567,IAT(Formal),2021.2.3,Win32,59.88023952,,,,,,,,,,,,,,,,,,,,,,,,,,,,,,,,,,,,,,,,,,,,,,,,,,,,,诚实,e,,,e,1,0.6724,0,28,28,15,1,,
,,,,,,,,,,,,,1,001,2025-01-31_19h41.07.567,IAT(Formal),2021.2.3,Win32,59.88023952,,,,,,,,,,,,,,,,,,,,,,,,,,,,,,,,,,,,,,,,,,,,,,,,,,,,,正直,e,,,e,1,0.5273,0,29,29,16,1,,
,,,,,,,,,,,,,1,001,2025-01-31_19h41.07.567,IAT(Formal),2021.2.3,Win32,59.88023952,,,,,,,,,,,,,,,,,,,,,,,,,,,,,,,,,,,,,,,,,,,,,,,,,,,,,俺,i,,,e,0,0.7272,0,30,30,64,1,,
,,,,,,,,,,,,,1,001,2025-01-31_19h41.07.567,IAT(Formal),2021.2.3,Win32,59.88023952,,,,,,,,,,,,,,,,,,,,,,,,,,,,,,,,,,,,,,,,,,,,,,,,,,,,,自己,i,,,i,1,0.6172,0,31,31,53,1,,
,,,,,,,,,,,,,1,001,2025-01-31_19h41.07.567,IAT(Formal),2021.2.3,Win32,59.88023952,,,,,,,,,,,,,,,,,,,,,,,,,,,,,,,,,,,,,,,,,,,,,,,,,,,,,冷静,e,,,i,0,1.0681,0,32,32,26,1,,
,,,,,,,,,,,,,1,001,2025-01-31_19h41.07.567,IAT(Formal),2021.2.3,Win32,59.88023952,,,,,,,,,,,,,,,,,,,,,,,,,,,,,,,,,,,,,,,,,,,,,,,,,,,,,散漫,i,,,e,0,0.7178,0,33,33,41,1,,
,,,,,,,,,,,,,1,001,2025-01-31_19h41.07.567,IAT(Formal),2021.2.3,Win32,59.88023952,,,,,,,,,,,,,,,,,,,,,,,,,,,,,,,,,,,,,,,,,,,,,,,,,,,,,俺,i,,,i,1,0.6072,0,34,34,4,1,,
,,,,,,,,,,,,,1,001,2025-01-31_19h41.07.567,IAT(Formal),2021.2.3,Win32,59.88023952,,,,,,,,,,,,,,,,,,,,,,,,,,,,,,,,,,,,,,,,,,,,,,,,,,,,,冒失,i,,,e,0,0.768,0,35,35,39,1,,
,,,,,,,,,,,,,1,001,2025-01-31_19h41.07.567,IAT(Formal),2021.2.3,Win32,59.88023952,,,,,,,,,,,,,,,,,,,,,,,,,,,,,,,,,,,,,,,,,,,,,,,,,,,,,勤奋,e,,,e,1,0.634,0,36,36,18,1,,
,,,,,,,,,,,,,1,001,2025-01-31_19h41.07.567,IAT(Formal),2021.2.3,Win32,59.88023952,,,,,,,,,,,,,,,,,,,,,,,,,,,,,,,,,,,,,,,,,,,,,,,,,,,,,固执,i,,,e,0,0.9219,0,37,37,47,1,,
,,,,,,,,,,,,,1,001,2025-01-31_19h41.07.567,IAT(Formal),2021.2.3,Win32,59.88023952,,,,,,,,,,,,,,,,,,,,,,,,,,,,,,,,,,,,,,,,,,,,,,,,,,,,,热情,e,,,e,1,0.5561,0,38,38,27,1,,
,,,,,,,,,,,,,1,001,2025-01-31_19h41.07.567,IAT(Formal),2021.2.3,Win32,59.88023952,,,,,,,,,,,,,,,,,,,,,,,,,,,,,,,,,,,,,,,,,,,,,,,,,,,,,我们,i,,,i,1,0.6934,0,39,39,62,1,,
,,,,,,,,,,,,,1,001,2025-01-31_19h41.07.567,IAT(Formal),2021.2.3,Win32,59.88023952,,,,,,,,,,,,,,,,,,,,,,,,,,,,,,,,,,,,,,,,,,,,,,,,,,,,,他人,e,,,e,1,0.6536,0,40,40,78,1,,
,,,,,,,,,,,,,1,001,2025-01-31_19h41.07.567,IAT(Formal),2021.2.3,Win32,59.88023952,,,,,,,,,,,,,,,,,,,,,,,,,,,,,,,,,,,,,,,,,,,,,,,,,,,,,自私,i,,,i,1,0.7026,0,41,41,43,1,,
,,,,,,,,,,,,,1,001,2025-01-31_19h41.07.567,IAT(Formal),2021.2.3,Win32,59.88023952,,,,,,,,,,,,,,,,,,,,,,,,,,,,,,,,,,,,,,,,,,,,,,,,,,,,,自卑,i,,,i,1,0.9282,0,42,42,36,1,,
,,,,,,,,,,,,,1,001,2025-01-31_19h41.07.567,IAT(Formal),2021.2.3,Win32,59.88023952,,,,,,,,,,,,,,,,,,,,,,,,,,,,,,,,,,,,,,,,,,,,,,,,,,,,,勇敢,e,,,e,1,0.6573,0,43,43,17,1,,
,,,,,,,,,,,,,1,001,2025-01-31_19h41.07.567,IAT(Formal),2021.2.3,Win32,59.88023952,,,,,,,,,,,,,,,,,,,,,,,,,,,,,,,,,,,,,,,,,,,,,,,,,,,,,我,i,,,i,1,0.6858,0,44,44,0,1,,
,,,,,,,,,,,,,1,001,2025-01-31_19h41.07.567,IAT(Formal),2021.2.3,Win32,59.88023952,,,,,,,,,,,,,,,,,,,,,,,,,,,,,,,,,,,,,,,,,,,,,,,,,,,,,我,i,,,i,1,0.5334,0,45,45,60,1,,
,,,,,,,,,,,,,1,001,2025-01-31_19h41.07.567,IAT(Formal),2021.2.3,Win32,59.88023952,,,,,,,,,,,,,,,,,,,,,,,,,,,,,,,,,,,,,,,,,,,,,,,,,,,,,我们,i,,,i,1,0.5917,0,46,46,2,1,,
,,,,,,,,,,,,,1,001,2025-01-31_19h41.07.567,IAT(Formal),2021.2.3,Win32,59.88023952,,,,,,,,,,,,,,,,,,,,,,,,,,,,,,,,,,,,,,,,,,,,,,,,,,,,,我的,i,,,i,1,0.6668,0,47,47,61,1,,
,,,,,,,,,,,,,1,001,2025-01-31_19h41.07.567,IAT(Formal),2021.2.3,Win32,59.88023952,,,,,,,,,,,,,,,,,,,,,,,,,,,,,,,,,,,,,,,,,,,,,,,,,,,,,自己,i,,,i,1,0.5177,0,48,48,3,1,,
,,,,,,,,,,,,,1,001,2025-01-31_19h41.07.567,IAT(Formal),2021.2.3,Win32,59.88023952,,,,,,,,,,,,,,,,,,,,,,,,,,,,,,,,,,,,,,,,,,,,,,,,,,,,,鲁莽,i,,,i,1,0.8409,0,49,49,38,1,,
,,,,,,,,,,,,,1,001,2025-01-31_19h41.07.567,IAT(Formal),2021.2.3,Win32,59.88023952,,,,,,,,,,,,,,,,,,,,,,,,,,,,,,,,,,,,,,,,,,,,,,,,,,,,,我,i,,,i,1,0.4941,0,50,50,70,1,,
,,,,,,,,,,,,,1,001,2025-01-31_19h41.07.567,IAT(Formal),2021.2.3,Win32,59.88023952,,,,,,,,,,,,,,,,,,,,,,,,,,,,,,,,,,,,,,,,,,,,,,,,,,,,,乐观,e,,,e,1,0.7451,0,51,51,14,1,,
,,,,,,,,,,,,,1,001,2025-01-31_19h41.07.567,IAT(Formal),2021.2.3,Win32,59.88023952,,,,,,,,,,,,,,,,,,,,,,,,,,,,,,,,,,,,,,,,,,,,,,,,,,,,,崇高,e,,,e,1,1.2177,0,52,52,11,1,,
,,,,,,,,,,,,,1,001,2025-01-31_19h41.07.567,IAT(Formal),2021.2.3,Win32,59.88023952,,,,,,,,,,,,,,,,,,,,,,,,,,,,,,,,,,,,,,,,,,,,,,,,,,,,,自己,i,,,i,1,0.7336,0,53,53,73,1,,
,,,,,,,,,,,,,1,001,2025-01-31_19h41.07.567,IAT(Formal),2021.2.3,Win32,59.88023952,,,,,,,,,,,,,,,,,,,,,,,,,,,,,,,,,,,,,,,,,,,,,,,,,,,,,野蛮,i,,,e,0,0.9692,0,54,54,46,1,,
,,,,,,,,,,,,,1,001,2025-01-31_19h41.07.567,IAT(Formal),2021.2.3,Win32,59.88023952,,,,,,,,,,,,,,,,,,,,,,,,,,,,,,,,,,,,,,,,,,,,,,,,,,,,,猖狂,i,,,i,1,0.694,0,55,55,45,1,,
,,,,,,,,,,,,,1,001,2025-01-31_19h41.07.567,IAT(Formal),2021.2.3,Win32,59.88023952,,,,,,,,,,,,,,,,,,,,,,,,,,,,,,,,,,,,,,,,,,,,,,,,,,,,,自己,i,,,i,1,0.9935,0,56,56,63,1,,
,,,,,,,,,,,,,1,001,2025-01-31_19h41.07.567,IAT(Formal),2021.2.3,Win32,59.88023952,,,,,,,,,,,,,,,,,,,,,,,,,,,,,,,,,,,,,,,,,,,,,,,,,,,,,我们,i,,,i,1,0.5697,0,57,57,72,1,,
,,,,,,,,,,,,,1,001,2025-01-31_19h41.07.567,IAT(Formal),2021.2.3,Win32,59.88023952,,,,,,,,,,,,,,,,,,,,,,,,,,,,,,,,,,,,,,,,,,,,,,,,,,,,,他,e,,,e,1,0.8178,0,58,58,75,1,,
,,,,,,,,,,,,,1,001,2025-01-31_19h41.07.567,IAT(Formal),2021.2.3,Win32,59.88023952,,,,,,,,,,,,,,,,,,,,,,,,,,,,,,,,,,,,,,,,,,,,,,,,,,,,,公正,e,,,e,1,1.4502,0,59,59,23,1,,
,,,,,,,,,,,,,1,001,2025-01-31_19h41.07.567,IAT(Formal),2021.2.3,Win32,59.88023952,,,,,,,,,,,,,,,,,,,,,,,,,,,,,,,,,,,,,,,,,,,,,,,,,,,,,他们,e,,,e,1,0.8328,0,60,60,6,1,,
,,,,,,,,,,,,,1,001,2025-01-31_19h41.07.567,IAT(Formal),2021.2.3,Win32,59.88023952,,,,,,,,,,,,,,,,,,,,,,,,,,,,,,,,,,,,,,,,,,,,,,,,,,,,,稳重,e,,,e,1,0.5008,0,61,61,21,1,,
,,,,,,,,,,,,,1,001,2025-01-31_19h41.07.567,IAT(Formal),2021.2.3,Win32,59.88023952,,,,,,,,,,,,,,,,,,,,,,,,,,,,,,,,,,,,,,,,,,,,,,,,,,,,,下贱,i,,,i,1,0.6895,0,62,62,49,1,,
,,,,,,,,,,,,,1,001,2025-01-31_19h41.07.567,IAT(Formal),2021.2.3,Win32,59.88023952,,,,,,,,,,,,,,,,,,,,,,,,,,,,,,,,,,,,,,,,,,,,,,,,,,,,,卑鄙,i,,,i,1,1.2098,0,63,63,30,1,,
,,,,,,,,,,,,,1,001,2025-01-31_19h41.07.567,IAT(Formal),2021.2.3,Win32,59.88023952,,,,,,,,,,,,,,,,,,,,,,,,,,,,,,,,,,,,,,,,,,,,,,,,,,,,,傲慢,i,,,i,1,0.5922,0,64,64,37,1,,
,,,,,,,,,,,,,1,001,2025-01-31_19h41.07.567,IAT(Formal),2021.2.3,Win32,59.88023952,,,,,,,,,,,,,,,,,,,,,,,,,,,,,,,,,,,,,,,,,,,,,,,,,,,,,朴实,e,,,e,1,0.6677,0,65,65,24,1,,
,,,,,,,,,,,,,1,001,2025-01-31_19h41.07.567,IAT(Formal),2021.2.3,Win32,59.88023952,,,,,,,,,,,,,,,,,,,,,,,,,,,,,,,,,,,,,,,,,,,,,,,,,,,,,杰出,e,,,e,1,0.7411,0,66,66,13,1,,
,,,,,,,,,,,,,1,001,2025-01-31_19h41.07.567,IAT(Formal),2021.2.3,Win32,59.88023952,,,,,,,,,,,,,,,,,,,,,,,,,,,,,,,,,,,,,,,,,,,,,,,,,,,,,我的,i,,,i,1,0.5896,0,67,67,71,1,,
,,,,,,,,,,,,,1,001,2025-01-31_19h41.07.567,IAT(Formal),2021.2.3,Win32,59.88023952,,,,,,,,,,,,,,,,,,,,,,,,,,,,,,,,,,,,,,,,,,,,,,,,,,,,,他的,e,,,e,1,0.6758,0,68,68,67,1,,
,,,,,,,,,,,,,1,001,2025-01-31_19h41.07.567,IAT(Formal),2021.2.3,Win32,59.88023952,,,,,,,,,,,,,,,,,,,,,,,,,,,,,,,,,,,,,,,,,,,,,,,,,,,,,执拗,i,,,i,1,1.1765,0,69,69,40,1,,
,,,,,,,,,,,,,1,001,2025-01-31_19h41.07.567,IAT(Formal),2021.2.3,Win32,59.88023952,,,,,,,,,,,,,,,,,,,,,,,,,,,,,,,,,,,,,,,,,,,,,,,,,,,,,他们,e,,,e,1,0.5361,0,70,70,76,1,,
,,,,,,,,,,,,,1,001,2025-01-31_19h41.07.567,IAT(Formal),2021.2.3,Win32,59.88023952,,,,,,,,,,,,,,,,,,,,,,,,,,,,,,,,,,,,,,,,,,,,,,,,,,,,,虚伪,i,,,e,0,0.5509,0,71,71,31,1,,
,,,,,,,,,,,,,1,001,2025-01-31_19h41.07.567,IAT(Formal),2021.2.3,Win32,59.88023952,,,,,,,,,,,,,,,,,,,,,,,,,,,,,,,,,,,,,,,,,,,,,,,,,,,,,优秀,e,,,e,1,0.5834,0,72,72,10,1,,
,,,,,,,,,,,,,1,001,2025-01-31_19h41.07.567,IAT(Formal),2021.2.3,Win32,59.88023952,,,,,,,,,,,,,,,,,,,,,,,,,,,,,,,,,,,,,,,,,,,,,,,,,,,,,机智,e,,,e,1,0.6048,0,73,73,19,1,,
,,,,,,,,,,,,,1,001,2025-01-31_19h41.07.567,IAT(Formal),2021.2.3,Win32,59.88023952,,,,,,,,,,,,,,,,,,,,,,,,,,,,,,,,,,,,,,,,,,,,,,,,,,,,,认真,e,,,e,1,0.7522,0,74,74,20,1,,
,,,,,,,,,,,,,1,001,2025-01-31_19h41.07.567,IAT(Formal),2021.2.3,Win32,59.88023952,,,,,,,,,,,,,,,,,,,,,,,,,,,,,,,,,,,,,,,,,,,,,,,,,,,,,悲观,i,,,i,1,0.6896,0,75,75,34,1,,
,,,,,,,,,,,,,1,001,2025-01-31_19h41.07.567,IAT(Formal),2021.2.3,Win32,59.88023952,,,,,,,,,,,,,,,,,,,,,,,,,,,,,,,,,,,,,,,,,,,,,,,,,,,,,其他,e,,,e,1,0.9335,0,76,76,59,1,,
,,,,,,,,,,,,,1,001,2025-01-31_19h41.07.567,IAT(Formal),2021.2.3,Win32,59.88023952,,,,,,,,,,,,,,,,,,,,,,,,,,,,,,,,,,,,,,,,,,,,,,,,,,,,,他的,e,,,e,1,0.5841,0,77,77,77,1,,
,,,,,,,,,,,,,1,001,2025-01-31_19h41.07.567,IAT(Formal),2021.2.3,Win32,59.88023952,,,,,,,,,,,,,,,,,,,,,,,,,,,,,,,,,,,,,,,,,,,,,,,,,,,,,无私,e,,,e,1,0.7505,0,78,78,22,1,,
,,,,,,,,,,,,,1,001,2025-01-31_19h41.07.567,IAT(Formal),2021.2.3,Win32,59.88023952,,,,,,,,,,,,,,,,,,,,,,,,,,,,,,,,,,,,,,,,,,,,,,,,,,,,,愚蠢,i,,,i,1,0.6403,0,79,79,32,1,,
,,,,,,,,,,,,,1,001,2025-01-31_19h41.07.567,IAT(Formal),2021.2.3,Win32,59.88023952,,,,,,,,,,,,,,,,,,,,,,,,,,,,,,,,,,,,,,,,,,,,,,,,,,,,,下贱,i,,,i,1,0.5842,1,0,80,49,1,,
,,,,,,,,,,,,,1,001,2025-01-31_19h41.07.567,IAT(Formal),2021.2.3,Win32,59.88023952,,,,,,,,,,,,,,,,,,,,,,,,,,,,,,,,,,,,,,,,,,,,,,,,,,,,,刻薄,i,,,i,1,0.5621,1,1,81,33,1,,
,,,,,,,,,,,,,1,001,2025-01-31_19h41.07.567,IAT(Formal),2021.2.3,Win32,59.88023952,,,,,,,,,,,,,,,,,,,,,,,,,,,,,,,,,,,,,,,,,,,,,,,,,,,,,勤奋,e,,,e,1,0.4947,1,2,82,18,1,,
,,,,,,,,,,,,,1,001,2025-01-31_19h41.07.567,IAT(Formal),2021.2.3,Win32,59.88023952,,,,,,,,,,,,,,,,,,,,,,,,,,,,,,,,,,,,,,,,,,,,,,,,,,,,,正直,e,,,e,1,0.7172,1,3,83,16,1,,
,,,,,,,,,,,,,1,001,2025-01-31_19h41.07.567,IAT(Formal),2021.2.3,Win32,59.88023952,,,,,,,,,,,,,,,,,,,,,,,,,,,,,,,,,,,,,,,,,,,,,,,,,,,,,我们,i,,,i,1,0.6579,1,4,84,52,1,,
,,,,,,,,,,,,,1,001,2025-01-31_19h41.07.567,IAT(Formal),2021.2.3,Win32,59.88023952,,,,,,,,,,,,,,,,,,,,,,,,,,,,,,,,,,,,,,,,,,,,,,,,,,,,,鲁莽,i,,,i,1,0.6376,1,5,85,38,1,,
,,,,,,,,,,,,,1,001,2025-01-31_19h41.07.567,IAT(Formal),2021.2.3,Win32,59.88023952,,,,,,,,,,,,,,,,,,,,,,,,,,,,,,,,,,,,,,,,,,,,,,,,,,,,,他们,e,,,e,1,0.6075,1,6,86,56,1,,
,,,,,,,,,,,,,1,001,2025-01-31_19h41.07.567,IAT(Formal),2021.2.3,Win32,59.88023952,,,,,,,,,,,,,,,,,,,,,,,,,,,,,,,,,,,,,,,,,,,,,,,,,,,,,俺,i,,,i,1,0.6027,1,7,87,54,1,,
,,,,,,,,,,,,,1,001,2025-01-31_19h41.07.567,IAT(Formal),2021.2.3,Win32,59.88023952,,,,,,,,,,,,,,,,,,,,,,,,,,,,,,,,,,,,,,,,,,,,,,,,,,,,,俺,i,,,i,1,0.5675,1,8,88,74,1,,
,,,,,,,,,,,,,1,001,2025-01-31_19h41.07.567,IAT(Formal),2021.2.3,Win32,59.88023952,,,,,,,,,,,,,,,,,,,,,,,,,,,,,,,,,,,,,,,,,,,,,,,,,,,,,热情,e,,,i,0,0.6226,1,9,89,27,1,,
,,,,,,,,,,,,,1,001,2025-01-31_19h41.07.567,IAT(Formal),2021.2.3,Win32,59.88023952,,,,,,,,,,,,,,,,,,,,,,,,,,,,,,,,,,,,,,,,,,,,,,,,,,,,,冷静,e,,,e,1,0.7844,1,10,90,26,1,,
,,,,,,,,,,,,,1,001,2025-01-31_19h41.07.567,IAT(Formal),2021.2.3,Win32,59.88023952,,,,,,,,,,,,,,,,,,,,,,,,,,,,,,,,,,,,,,,,,,,,,,,,,,,,,悲观,i,,,i,1,0.7835,1,11,91,34,1,,
,,,,,,,,,,,,,1,001,2025-01-31_19h41.07.567,IAT(Formal),2021.2.3,Win32,59.88023952,,,,,,,,,,,,,,,,,,,,,,,,,,,,,,,,,,,,,,,,,,,,,,,,,,,,,他们,e,,,e,1,0.6391,1,12,92,6,1,,
,,,,,,,,,,,,,1,001,2025-01-31_19h41.07.567,IAT(Formal),2021.2.3,Win32,59.88023952,,,,,,,,,,,,,,,,,,,,,,,,,,,,,,,,,,,,,,,,,,,,,,,,,,,,,他的,e,,,e,1,0.4837,1,13,93,7,1,,
,,,,,,,,,,,,,1,001,2025-01-31_19h41.07.567,IAT(Formal),2021.2.3,Win32,59.88023952,,,,,,,,,,,,,,,,,,,,,,,,,,,,,,,,,,,,,,,,,,,,,,,,,,,,,他的,e,,,e,1,0.5079,1,14,94,67,1,,
,,,,,,,,,,,,,1,001,2025-01-31_19h41.07.567,IAT(Formal),2021.2.3,Win32,59.88023952,,,,,,,,,,,,,,,,,,,,,,,,,,,,,,,,,,,,,,,,,,,,,,,,,,,,,其他,e,,,e,1,0.6992,1,15,95,69,1,,
,,,,,,,,,,,,,1,001,2025-01-31_19h41.07.567,IAT(Formal),2021.2.3,Win32,59.88023952,,,,,,,,,,,,,,,,,,,,,,,,,,,,,,,,,,,,,,,,,,,,,,,,,,,,,诚实,e,,,e,1,0.4837,1,16,96,15,1,,
,,,,,,,,,,,,,1,001,2025-01-31_19h41.07.567,IAT(Formal),2021.2.3,Win32,59.88023952,,,,,,,,,,,,,,,,,,,,,,,,,,,,,,,,,,,,,,,,,,,,,,,,,,,,,无私,e,,,e,1,0.8877,1,17,97,22,1,,
,,,,,,,,,,,,,1,001,2025-01-31_19h41.07.567,IAT(Formal),2021.2.3,Win32,59.88023952,,,,,,,,,,,,,,,,,,,,,,,,,,,,,,,,,,,,,,,,,,,,,,,,,,,,,他人,e,,,e,1,0.5267,1,18,98,68,1,,
,,,,,,,,,,,,,1,001,2025-01-31_19h41.07.567,IAT(Formal),2021.2.3,Win32,59.88023952,,,,,,,,,,,,,,,,,,,,,,,,,,,,,,,,,,,,,,,,,,,,,,,,,,,,,他们,e,,,e,1,0.5008,1,19,99,76,1,,
,,,,,,,,,,,,,1,001,2025-01-31_19h41.07.567,IAT(Formal),2021.2.3,Win32,59.88023952,,,,,,,,,,,,,,,,,,,,,,,,,,,,,,,,,,,,,,,,,,,,,,,,,,,,,他人,e,,,e,1,0.501,1,20,100,8,1,,
,,,,,,,,,,,,,1,001,2025-01-31_19h41.07.567,IAT(Formal),2021.2.3,Win32,59.88023952,,,,,,,,,,,,,,,,,,,,,,,,,,,,,,,,,,,,,,,,,,,,,,,,,,,,,我的,i,,,i,1,0.7455,1,21,101,51,1,,
,,,,,,,,,,,,,1,001,2025-01-31_19h41.07.567,IAT(Formal),2021.2.3,Win32,59.88023952,,,,,,,,,,,,,,,,,,,,,,,,,,,,,,,,,,,,,,,,,,,,,,,,,,,,,机智,e,,,e,1,0.6767,1,22,102,19,1,,
,,,,,,,,,,,,,1,001,2025-01-31_19h41.07.567,IAT(Formal),2021.2.3,Win32,59.88023952,,,,,,,,,,,,,,,,,,,,,,,,,,,,,,,,,,,,,,,,,,,,,,,,,,,,,自私,i,,,i,1,0.6851,1,23,103,43,1,,
,,,,,,,,,,,,,1,001,2025-01-31_19h41.07.567,IAT(Formal),2021.2.3,Win32,59.88023952,,,,,,,,,,,,,,,,,,,,,,,,,,,,,,,,,,,,,,,,,,,,,,,,,,,,,细腻,e,,,e,1,0.7099,1,24,104,25,1,,
,,,,,,,,,,,,,1,001,2025-01-31_19h41.07.567,IAT(Formal),2021.2.3,Win32,59.88023952,,,,,,,,,,,,,,,,,,,,,,,,,,,,,,,,,,,,,,,,,,,,,,,,,,,,,消极,i,,,i,1,1.1072,1,25,105,35,1,,
,,,,,,,,,,,,,1,001,2025-01-31_19h41.07.567,IAT(Formal),2021.2.3,Win32,59.88023952,,,,,,,,,,,,,,,,,,,,,,,,,,,,,,,,,,,,,,,,,,,,,,,,,,,,,俺,i,,,i,1,1.0216,1,26,106,4,1,,
,,,,,,,,,,,,,1,001,2025-01-31_19h41.07.567,IAT(Formal),2021.2.3,Win32,59.88023952,,,,,,,,,,,,,,,,,,,,,,,,,,,,,,,,,,,,,,,,,,,,,,,,,,,,,他,e,,,e,1,0.9346,1,27,107,55,1,,
,,,,,,,,,,,,,1,001,2025-01-31_19h41.07.567,IAT(Formal),2021.2.3,Win32,59.88023952,,,,,,,,,,,,,,,,,,,,,,,,,,,,,,,,,,,,,,,,,,,,,,,,,,,,,优秀,e,,,i,0,0.9042,1,28,108,10,1,,
,,,,,,,,,,,,,1,001,2025-01-31_19h41.07.567,IAT(Formal),2021.2.3,Win32,59.88023952,,,,,,,,,,,,,,,,,,,,,,,,,,,,,,,,,,,,,,,,,,,,,,,,,,,,,自己,i,,,e,0,1.2692,1,29,109,53,1,,
,,,,,,,,,,,,,1,001,2025-01-31_19h41.07.567,IAT(Formal),2021.2.3,Win32,59.88023952,,,,,,,,,,,,,,,,,,,,,,,,,,,,,,,,,,,,,,,,,,,,,,,,,,,,,卑鄙,i,,,i,1,0.7426,1,30,110,30,1,,
,,,,,,,,,,,,,1,001,2025-01-31_19h41.07.567,IAT(Formal),2021.2.3,Win32,59.88023952,,,,,,,,,,,,,,,,,,,,,,,,,,,,,,,,,,,,,,,,,,,,,,,,,,,,,虚伪,i,,,i,1,0.6675,1,31,111,31,1,,
,,,,,,,,,,,,,1,001,2025-01-31_19h41.07.567,IAT(Formal),2021.2.3,Win32,59.88023952,,,,,,,,,,,,,,,,,,,,,,,,,,,,,,,,,,,,,,,,,,,,,,,,,,,,,活泼,e,,,e,1,0.7725,1,32,112,28,1,,
,,,,,,,,,,,,,1,001,2025-01-31_19h41.07.567,IAT(Formal),2021.2.3,Win32,59.88023952,,,,,,,,,,,,,,,,,,,,,,,,,,,,,,,,,,,,,,,,,,,,,,,,,,,,,执拗,i,,,,0,,1,33,113,40,1,,
,,,,,,,,,,,,,1,001,2025-01-31_19h41.07.567,IAT(Formal),2021.2.3,Win32,59.88023952,,,,,,,,,,,,,,,,,,,,,,,,,,,,,,,,,,,,,,,,,,,,,,,,,,,,,他们,e,,,e,1,0.6073,1,34,114,66,1,,
,,,,,,,,,,,,,1,001,2025-01-31_19h41.07.567,IAT(Formal),2021.2.3,Win32,59.88023952,,,,,,,,,,,,,,,,,,,,,,,,,,,,,,,,,,,,,,,,,,,,,,,,,,,,,其他,e,,,e,1,0.7665,1,35,115,79,1,,
,,,,,,,,,,,,,1,001,2025-01-31_19h41.07.567,IAT(Formal),2021.2.3,Win32,59.88023952,,,,,,,,,,,,,,,,,,,,,,,,,,,,,,,,,,,,,,,,,,,,,,,,,,,,,我的,i,,,i,1,0.552,1,36,116,1,1,,
,,,,,,,,,,,,,1,001,2025-01-31_19h41.07.567,IAT(Formal),2021.2.3,Win32,59.88023952,,,,,,,,,,,,,,,,,,,,,,,,,,,,,,,,,,,,,,,,,,,,,,,,,,,,,他的,e,,,e,1,0.6675,1,37,117,77,1,,
,,,,,,,,,,,,,1,001,2025-01-31_19h41.07.567,IAT(Formal),2021.2.3,Win32,59.88023952,,,,,,,,,,,,,,,,,,,,,,,,,,,,,,,,,,,,,,,,,,,,,,,,,,,,,散漫,i,,,e,0,0.9673,1,38,118,41,1,,
,,,,,,,,,,,,,1,001,2025-01-31_19h41.07.567,IAT(Formal),2021.2.3,Win32,59.88023952,,,,,,,,,,,,,,,,,,,,,,,,,,,,,,,,,,,,,,,,,,,,,,,,,,,,,他,e,,,e,1,0.6006,1,39,119,65,1,,
,,,,,,,,,,,,,1,001,2025-01-31_19h41.07.567,IAT(Formal),2021.2.3,Win32,59.88023952,,,,,,,,,,,,,,,,,,,,,,,,,,,,,,,,,,,,,,,,,,,,,,,,,,,,,聪明,e,,,e,1,0.8763,1,40,120,12,1,,
,,,,,,,,,,,,,1,001,2025-01-31_19h41.07.567,IAT(Formal),2021.2.3,Win32,59.88023952,,,,,,,,,,,,,,,,,,,,,,,,,,,,,,,,,,,,,,,,,,,,,,,,,,,,,凶狠,i,,,i,1,0.6448,1,41,121,42,1,,
,,,,,,,,,,,,,1,001,2025-01-31_19h41.07.567,IAT(Formal),2021.2.3,Win32,59.88023952,,,,,,,,,,,,,,,,,,,,,,,,,,,,,,,,,,,,,,,,,,,,,,,,,,,,,他,e,,,e,1,0.6597,1,42,122,75,1,,
,,,,,,,,,,,,,1,001,2025-01-31_19h41.07.567,IAT(Formal),2021.2.3,Win32,59.88023952,,,,,,,,,,,,,,,,,,,,,,,,,,,,,,,,,,,,,,,,,,,,,,,,,,,,,公正,e,,,e,1,0.7439,1,43,123,23,1,,
,,,,,,,,,,,,,1,001,2025-01-31_19h41.07.567,IAT(Formal),2021.2.3,Win32,59.88023952,,,,,,,,,,,,,,,,,,,,,,,,,,,,,,,,,,,,,,,,,,,,,,,,,,,,,我的,i,,,i,1,0.6517,1,44,124,61,1,,
,,,,,,,,,,,,,1,001,2025-01-31_19h41.07.567,IAT(Formal),2021.2.3,Win32,59.88023952,,,,,,,,,,,,,,,,,,,,,,,,,,,,,,,,,,,,,,,,,,,,,,,,,,,,,其他,e,,,e,1,0.5333,1,45,125,9,1,,
,,,,,,,,,,,,,1,001,2025-01-31_19h41.07.567,IAT(Formal),2021.2.3,Win32,59.88023952,,,,,,,,,,,,,,,,,,,,,,,,,,,,,,,,,,,,,,,,,,,,,,,,,,,,,冒失,i,,,i,1,0.7291,1,46,126,39,1,,
,,,,,,,,,,,,,1,001,2025-01-31_19h41.07.567,IAT(Formal),2021.2.3,Win32,59.88023952,,,,,,,,,,,,,,,,,,,,,,,,,,,,,,,,,,,,,,,,,,,,,,,,,,,,,他人,e,,,e,1,0.5756,1,47,127,78,1,,
,,,,,,,,,,,,,1,001,2025-01-31_19h41.07.567,IAT(Formal),2021.2.3,Win32,59.88023952,,,,,,,,,,,,,,,,,,,,,,,,,,,,,,,,,,,,,,,,,,,,,,,,,,,,,诚恳,e,,,e,1,0.5396,1,48,128,29,1,,
,,,,,,,,,,,,,1,001,2025-01-31_19h41.07.567,IAT(Formal),2021.2.3,Win32,59.88023952,,,,,,,,,,,,,,,,,,,,,,,,,,,,,,,,,,,,,,,,,,,,,,,,,,,,,暴躁,i,,,i,1,1.0504,1,49,129,44,1,,
,,,,,,,,,,,,,1,001,2025-01-31_19h41.07.567,IAT(Formal),2021.2.3,Win32,59.88023952,,,,,,,,,,,,,,,,,,,,,,,,,,,,,,,,,,,,,,,,,,,,,,,,,,,,,自卑,i,,,i,1,0.8888,1,50,130,36,1,,
,,,,,,,,,,,,,1,001,2025-01-31_19h41.07.567,IAT(Formal),2021.2.3,Win32,59.88023952,,,,,,,,,,,,,,,,,,,,,,,,,,,,,,,,,,,,,,,,,,,,,,,,,,,,,稳重,e,,,e,1,0.8012,1,51,131,21,1,,
,,,,,,,,,,,,,1,001,2025-01-31_19h41.07.567,IAT(Formal),2021.2.3,Win32,59.88023952,,,,,,,,,,,,,,,,,,,,,,,,,,,,,,,,,,,,,,,,,,,,,,,,,,,,,我们,i,,,i,1,0.7777,1,52,132,62,1,,
,,,,,,,,,,,,,1,001,2025-01-31_19h41.07.567,IAT(Formal),2021.2.3,Win32,59.88023952,,,,,,,,,,,,,,,,,,,,,,,,,,,,,,,,,,,,,,,,,,,,,,,,,,,,,杰出,e,,,e,1,0.811,1,53,133,13,1,,
,,,,,,,,,,,,,1,001,2025-01-31_19h41.07.567,IAT(Formal),2021.2.3,Win32,59.88023952,,,,,,,,,,,,,,,,,,,,,,,,,,,,,,,,,,,,,,,,,,,,,,,,,,,,,愚蠢,i,,,i,1,0.7195,1,54,134,32,1,,
,,,,,,,,,,,,,1,001,2025-01-31_19h41.07.567,IAT(Formal),2021.2.3,Win32,59.88023952,,,,,,,,,,,,,,,,,,,,,,,,,,,,,,,,,,,,,,,,,,,,,,,,,,,,,俺,i,,,e,0,0.7008,1,55,135,64,1,,
,,,,,,,,,,,,,1,001,2025-01-31_19h41.07.567,IAT(Formal),2021.2.3,Win32,59.88023952,,,,,,,,,,,,,,,,,,,,,,,,,,,,,,,,,,,,,,,,,,,,,,,,,,,,,他,e,,,e,1,0.6011,1,56,136,5,1,,
,,,,,,,,,,,,,1,001,2025-01-31_19h41.07.567,IAT(Formal),2021.2.3,Win32,59.88023952,,,,,,,,,,,,,,,,,,,,,,,,,,,,,,,,,,,,,,,,,,,,,,,,,,,,,我,i,,,i,1,0.601,1,57,137,60,1,,
,,,,,,,,,,,,,1,001,2025-01-31_19h41.07.567,IAT(Formal),2021.2.3,Win32,59.88023952,,,,,,,,,,,,,,,,,,,,,,,,,,,,,,,,,,,,,,,,,,,,,,,,,,,,,他的,e,,,e,1,0.5576,1,58,138,57,1,,
,,,,,,,,,,,,,1,001,2025-01-31_19h41.07.567,IAT(Formal),2021.2.3,Win32,59.88023952,,,,,,,,,,,,,,,,,,,,,,,,,,,,,,,,,,,,,,,,,,,,,,,,,,,,,自己,i,,,i,1,0.7507,1,59,139,3,1,,
,,,,,,,,,,,,,1,001,2025-01-31_19h41.07.567,IAT(Formal),2021.2.3,Win32,59.88023952,,,,,,,,,,,,,,,,,,,,,,,,,,,,,,,,,,,,,,,,,,,,,,,,,,,,,我,i,,,i,1,0.602,1,60,140,50,1,,
,,,,,,,,,,,,,1,001,2025-01-31_19h41.07.567,IAT(Formal),2021.2.3,Win32,59.88023952,,,,,,,,,,,,,,,,,,,,,,,,,,,,,,,,,,,,,,,,,,,,,,,,,,,,,我们,i,,,i,1,0.7847,1,61,141,2,1,,
,,,,,,,,,,,,,1,001,2025-01-31_19h41.07.567,IAT(Formal),2021.2.3,Win32,59.88023952,,,,,,,,,,,,,,,,,,,,,,,,,,,,,,,,,,,,,,,,,,,,,,,,,,,,,猖狂,i,,,,0,,1,62,142,45,1,,
,,,,,,,,,,,,,1,001,2025-01-31_19h41.07.567,IAT(Formal),2021.2.3,Win32,59.88023952,,,,,,,,,,,,,,,,,,,,,,,,,,,,,,,,,,,,,,,,,,,,,,,,,,,,,傲慢,i,,,e,0,0.5394,1,63,143,37,1,,
,,,,,,,,,,,,,1,001,2025-01-31_19h41.07.567,IAT(Formal),2021.2.3,Win32,59.88023952,,,,,,,,,,,,,,,,,,,,,,,,,,,,,,,,,,,,,,,,,,,,,,,,,,,,,野蛮,i,,,,0,,1,64,144,46,1,,
,,,,,,,,,,,,,1,001,2025-01-31_19h41.07.567,IAT(Formal),2021.2.3,Win32,59.88023952,,,,,,,,,,,,,,,,,,,,,,,,,,,,,,,,,,,,,,,,,,,,,,,,,,,,,自己,i,,,e,0,0.7354,1,65,145,63,1,,
,,,,,,,,,,,,,1,001,2025-01-31_19h41.07.567,IAT(Formal),2021.2.3,Win32,59.88023952,,,,,,,,,,,,,,,,,,,,,,,,,,,,,,,,,,,,,,,,,,,,,,,,,,,,,认真,e,,,e,1,0.7496,1,66,146,20,1,,
,,,,,,,,,,,,,1,001,2025-01-31_19h41.07.567,IAT(Formal),2021.2.3,Win32,59.88023952,,,,,,,,,,,,,,,,,,,,,,,,,,,,,,,,,,,,,,,,,,,,,,,,,,,,,我的,i,,,i,1,0.9514,1,67,147,71,1,,
,,,,,,,,,,,,,1,001,2025-01-31_19h41.07.567,IAT(Formal),2021.2.3,Win32,59.88023952,,,,,,,,,,,,,,,,,,,,,,,,,,,,,,,,,,,,,,,,,,,,,,,,,,,,,固执,i,,,e,0,0.9508,1,68,148,47,1,,
,,,,,,,,,,,,,1,001,2025-01-31_19h41.07.567,IAT(Formal),2021.2.3,Win32,59.88023952,,,,,,,,,,,,,,,,,,,,,,,,,,,,,,,,,,,,,,,,,,,,,,,,,,,,,他人,e,,,e,1,1.1045,1,69,149,58,1,,
,,,,,,,,,,,,,1,001,2025-01-31_19h41.07.567,IAT(Formal),2021.2.3,Win32,59.88023952,,,,,,,,,,,,,,,,,,,,,,,,,,,,,,,,,,,,,,,,,,,,,,,,,,,,,其他,e,,,e,1,0.9265,1,70,150,59,1,,
,,,,,,,,,,,,,1,001,2025-01-31_19h41.07.567,IAT(Formal),2021.2.3,Win32,59.88023952,,,,,,,,,,,,,,,,,,,,,,,,,,,,,,,,,,,,,,,,,,,,,,,,,,,,,我,i,,,i,1,0.6857,1,71,151,0,1,,
,,,,,,,,,,,,,1,001,2025-01-31_19h41.07.567,IAT(Formal),2021.2.3,Win32,59.88023952,,,,,,,,,,,,,,,,,,,,,,,,,,,,,,,,,,,,,,,,,,,,,,,,,,,,,崇高,e,,,e,1,1.0227,1,72,152,11,1,,
,,,,,,,,,,,,,1,001,2025-01-31_19h41.07.567,IAT(Formal),2021.2.3,Win32,59.88023952,,,,,,,,,,,,,,,,,,,,,,,,,,,,,,,,,,,,,,,,,,,,,,,,,,,,,自己,i,,,i,1,1.0284,1,73,153,73,1,,
,,,,,,,,,,,,,1,001,2025-01-31_19h41.07.567,IAT(Formal),2021.2.3,Win32,59.88023952,,,,,,,,,,,,,,,,,,,,,,,,,,,,,,,,,,,,,,,,,,,,,,,,,,,,,朴实,e,,,e,1,0.907,1,74,154,24,1,,
,,,,,,,,,,,,,1,001,2025-01-31_19h41.07.567,IAT(Formal),2021.2.3,Win32,59.88023952,,,,,,,,,,,,,,,,,,,,,,,,,,,,,,,,,,,,,,,,,,,,,,,,,,,,,乐观,e,,,e,1,0.7423,1,75,155,14,1,,
,,,,,,,,,,,,,1,001,2025-01-31_19h41.07.567,IAT(Formal),2021.2.3,Win32,59.88023952,,,,,,,,,,,,,,,,,,,,,,,,,,,,,,,,,,,,,,,,,,,,,,,,,,,,,我们,i,,,e,0,0.7021,1,76,156,72,1,,
,,,,,,,,,,,,,1,001,2025-01-31_19h41.07.567,IAT(Formal),2021.2.3,Win32,59.88023952,,,,,,,,,,,,,,,,,,,,,,,,,,,,,,,,,,,,,,,,,,,,,,,,,,,,,勇敢,e,,,e,1,0.8675,1,77,157,17,1,,
,,,,,,,,,,,,,1,001,2025-01-31_19h41.07.567,IAT(Formal),2021.2.3,Win32,59.88023952,,,,,,,,,,,,,,,,,,,,,,,,,,,,,,,,,,,,,,,,,,,,,,,,,,,,,轻率,i,,,i,1,0.7188,1,78,158,48,1,,
,,,,,,,,,,,,,1,001,2025-01-31_19h41.07.567,IAT(Formal),2021.2.3,Win32,59.88023952,,,,,,,,,,,,,,,,,,,,,,,,,,,,,,,,,,,,,,,,,,,,,,,,,,,,,我,i,,,i,1,0.7528,1,79,159,70,1,,
,,,,,,,,,,,,,1,001,2025-01-31_19h41.07.567,IAT(Formal),2021.2.3,Win32,59.88023952,,,,,,,,,,,,,,,,,,,,,,,,,,,,,,,,,,,,,,,,,,,,,,,,,,,,,,,,,,,,,,,,,space,1.1503