﻿Instruction1.keys,Instruction1.rt,Instruction2.keys,Instruction2.rt,key_resp_iso.keys,key_resp_iso.corr,Practice_01.thisRepN,Practice_01.thisTrialN,Practice_01.thisN,Practice_01.thisIndex,Practice_01.ran,Words,ans,participant,session,date,expName,psychopyVersion,OS,frameRate,key_resp_iso.rt,key_resp_3.keys,key_resp_3.rt,key_resp_ipn.keys,key_resp_ipn.corr,key_resp_ipn.rt,Practice_02.thisRepN,Practice_02.thisTrialN,Practice_02.thisN,Practice_02.thisIndex,Practice_02.ran,Words_ipn,ans_ipn,key_resp_4.keys,key_resp_4.rt,key_resp_t1.keys,key_resp_t1.corr,key_resp_t1.rt,Practice_T1.thisRepN,Practice_T1.thisTrialN,Practice_T1.thisN,Practice_T1.thisIndex,Practice_T1.ran,Words_t1,ans_t1,key_resp_5.keys,key_resp_5.rt,Formal_T1.thisRepN,Formal_T1.thisTrialN,Formal_T1.thisN,Formal_T1.thisIndex,Formal_T1.ran,key_resp_6.keys,key_resp_6.rt,key_resp_iso_reverse.keys,key_resp_iso_reverse.corr,key_resp_iso_reverse.rt,Practice_iso_Reverse.thisRepN,Practice_iso_Reverse.thisTrialN,Practice_iso_Reverse.thisN,Practice_iso_Reverse.thisIndex,Practice_iso_Reverse.ran,key_resp_7.keys,key_resp_7.rt,key_resp_t2_Practice.keys,key_resp_t2_Practice.corr,key_resp_t2_Practice.rt,Practice_t2_Reverse.thisRepN,Practice_t2_Reverse.thisTrialN,Practice_t2_Reverse.thisN,Practice_t2_Reverse.thisIndex,Practice_t2_Reverse.ran,Words_t2,ans_t2,key_resp_8.keys,key_resp_8.rt,key_resp_t2.keys,key_resp_t2.corr,key_resp_t2.rt,Formal_t2_reverse.thisRepN,Formal_t2_reverse.thisTrialN,Formal_t2_reverse.thisN,Formal_t2_reverse.thisIndex,Formal_t2_reverse.ran,key_instruct.keys,key_instruct.rt
space,12.794,space,17.6191,,0,0,0,0,6,1,他们,i,1,001,2025-02-05_23h24.45.006,IAT(Formal),2021.2.3,Win32,59.88023952,,,,,,,,,,,,,,,,,,,,,,,,,,,,,,,,,,,,,,,,,,,,,,,,,,,,,,,,,,,,,,,,,,
,,,,e,1,0,1,1,1,1,我的,e,1,001,2025-02-05_23h24.45.006,IAT(Formal),2021.2.3,Win32,59.88023952,0.406,,,,,,,,,,,,,,,,,,,,,,,,,,,,,,,,,,,,,,,,,,,,,,,,,,,,,,,,,,,,,,,,,
,,,,e,1,0,2,2,0,1,我,e,1,001,2025-02-05_23h24.45.006,IAT(Formal),2021.2.3,Win32,59.88023952,0.4909,,,,,,,,,,,,,,,,,,,,,,,,,,,,,,,,,,,,,,,,,,,,,,,,,,,,,,,,,,,,,,,,,
,,,,i,1,0,3,3,8,1,他人,i,1,001,2025-02-05_23h24.45.006,IAT(Formal),2021.2.3,Win32,59.88023952,0.5044,,,,,,,,,,,,,,,,,,,,,,,,,,,,,,,,,,,,,,,,,,,,,,,,,,,,,,,,,,,,,,,,,
,,,,i,1,0,4,4,5,1,他,i,1,001,2025-02-05_23h24.45.006,IAT(Formal),2021.2.3,Win32,59.88023952,0.4231,,,,,,,,,,,,,,,,,,,,,,,,,,,,,,,,,,,,,,,,,,,,,,,,,,,,,,,,,,,,,,,,,
,,,,i,1,0,5,5,7,1,他的,i,1,001,2025-02-05_23h24.45.006,IAT(Formal),2021.2.3,Win32,59.88023952,0.4155,,,,,,,,,,,,,,,,,,,,,,,,,,,,,,,,,,,,,,,,,,,,,,,,,,,,,,,,,,,,,,,,,
,,,,i,1,0,6,6,9,1,其他,i,1,001,2025-02-05_23h24.45.006,IAT(Formal),2021.2.3,Win32,59.88023952,0.5805,,,,,,,,,,,,,,,,,,,,,,,,,,,,,,,,,,,,,,,,,,,,,,,,,,,,,,,,,,,,,,,,,
,,,,e,1,0,7,7,2,1,我们,e,1,001,2025-02-05_23h24.45.006,IAT(Formal),2021.2.3,Win32,59.88023952,0.365,,,,,,,,,,,,,,,,,,,,,,,,,,,,,,,,,,,,,,,,,,,,,,,,,,,,,,,,,,,,,,,,,
,,,,e,1,0,8,8,3,1,自己,e,1,001,2025-02-05_23h24.45.006,IAT(Formal),2021.2.3,Win32,59.88023952,0.5994,,,,,,,,,,,,,,,,,,,,,,,,,,,,,,,,,,,,,,,,,,,,,,,,,,,,,,,,,,,,,,,,,
,,,,e,1,0,9,9,4,1,俺,e,1,001,2025-02-05_23h24.45.006,IAT(Formal),2021.2.3,Win32,59.88023952,0.5147,,,,,,,,,,,,,,,,,,,,,,,,,,,,,,,,,,,,,,,,,,,,,,,,,,,,,,,,,,,,,,,,,
,,,,,,,,,,,,,1,001,2025-02-05_23h24.45.006,IAT(Formal),2021.2.3,Win32,59.88023952,,space,7.0442,e,1,0.7565,0,0,0,16,1,冷静,e,,,,,,,,,,,,,,,,,,,,,,,,,,,,,,,,,,,,,,,,,,,,,,,,,,,,,
,,,,,,,,,,,,,1,001,2025-02-05_23h24.45.006,IAT(Formal),2021.2.3,Win32,59.88023952,,,,e,1,0.5726,0,1,1,15,1,细腻,e,,,,,,,,,,,,,,,,,,,,,,,,,,,,,,,,,,,,,,,,,,,,,,,,,,,,,
,,,,,,,,,,,,,1,001,2025-02-05_23h24.45.006,IAT(Formal),2021.2.3,Win32,59.88023952,,,,e,1,0.5949,0,2,2,9,1,机智,e,,,,,,,,,,,,,,,,,,,,,,,,,,,,,,,,,,,,,,,,,,,,,,,,,,,,,
,,,,,,,,,,,,,1,001,2025-02-05_23h24.45.006,IAT(Formal),2021.2.3,Win32,59.88023952,,,,e,1,0.512,0,3,3,7,1,勇敢,e,,,,,,,,,,,,,,,,,,,,,,,,,,,,,,,,,,,,,,,,,,,,,,,,,,,,,
,,,,,,,,,,,,,1,001,2025-02-05_23h24.45.006,IAT(Formal),2021.2.3,Win32,59.88023952,,,,i,1,0.553,0,4,4,20,1,卑鄙,i,,,,,,,,,,,,,,,,,,,,,,,,,,,,,,,,,,,,,,,,,,,,,,,,,,,,,
,,,,,,,,,,,,,1,001,2025-02-05_23h24.45.006,IAT(Formal),2021.2.3,Win32,59.88023952,,,,e,1,0.6282,0,5,5,1,1,崇高,e,,,,,,,,,,,,,,,,,,,,,,,,,,,,,,,,,,,,,,,,,,,,,,,,,,,,,
,,,,,,,,,,,,,1,001,2025-02-05_23h24.45.006,IAT(Formal),2021.2.3,Win32,59.88023952,,,,i,1,0.7304,0,6,6,23,1,刻薄,i,,,,,,,,,,,,,,,,,,,,,,,,,,,,,,,,,,,,,,,,,,,,,,,,,,,,,
,,,,,,,,,,,,,1,001,2025-02-05_23h24.45.006,IAT(Formal),2021.2.3,Win32,59.88023952,,,,i,1,0.5281,0,7,7,32,1,凶狠,i,,,,,,,,,,,,,,,,,,,,,,,,,,,,,,,,,,,,,,,,,,,,,,,,,,,,,
,,,,,,,,,,,,,1,001,2025-02-05_23h24.45.006,IAT(Formal),2021.2.3,Win32,59.88023952,,,,e,1,0.6414,0,8,8,2,1,聪明,e,,,,,,,,,,,,,,,,,,,,,,,,,,,,,,,,,,,,,,,,,,,,,,,,,,,,,
,,,,,,,,,,,,,1,001,2025-02-05_23h24.45.006,IAT(Formal),2021.2.3,Win32,59.88023952,,,,i,1,0.5783,0,9,9,22,1,愚蠢,i,,,,,,,,,,,,,,,,,,,,,,,,,,,,,,,,,,,,,,,,,,,,,,,,,,,,,
,,,,,,,,,,,,,1,001,2025-02-05_23h24.45.006,IAT(Formal),2021.2.3,Win32,59.88023952,,,,i,1,0.5085,0,10,10,27,1,傲慢,i,,,,,,,,,,,,,,,,,,,,,,,,,,,,,,,,,,,,,,,,,,,,,,,,,,,,,
,,,,,,,,,,,,,1,001,2025-02-05_23h24.45.006,IAT(Formal),2021.2.3,Win32,59.88023952,,,,e,1,0.5292,0,11,11,18,1,活泼,e,,,,,,,,,,,,,,,,,,,,,,,,,,,,,,,,,,,,,,,,,,,,,,,,,,,,,
,,,,,,,,,,,,,1,001,2025-02-05_23h24.45.006,IAT(Formal),2021.2.3,Win32,59.88023952,,,,i,0,0.4869,0,12,12,11,1,稳重,e,,,,,,,,,,,,,,,,,,,,,,,,,,,,,,,,,,,,,,,,,,,,,,,,,,,,,
,,,,,,,,,,,,,1,001,2025-02-05_23h24.45.006,IAT(Formal),2021.2.3,Win32,59.88023952,,,,i,1,0.892,0,13,13,38,1,轻率,i,,,,,,,,,,,,,,,,,,,,,,,,,,,,,,,,,,,,,,,,,,,,,,,,,,,,,
,,,,,,,,,,,,,1,001,2025-02-05_23h24.45.006,IAT(Formal),2021.2.3,Win32,59.88023952,,,,i,1,0.7494,0,14,14,24,1,悲观,i,,,,,,,,,,,,,,,,,,,,,,,,,,,,,,,,,,,,,,,,,,,,,,,,,,,,,
,,,,,,,,,,,,,1,001,2025-02-05_23h24.45.006,IAT(Formal),2021.2.3,Win32,59.88023952,,,,i,1,0.6501,0,15,15,28,1,鲁莽,i,,,,,,,,,,,,,,,,,,,,,,,,,,,,,,,,,,,,,,,,,,,,,,,,,,,,,
,,,,,,,,,,,,,1,001,2025-02-05_23h24.45.006,IAT(Formal),2021.2.3,Win32,59.88023952,,,,e,1,0.4538,0,16,16,10,1,认真,e,,,,,,,,,,,,,,,,,,,,,,,,,,,,,,,,,,,,,,,,,,,,,,,,,,,,,
,,,,,,,,,,,,,1,001,2025-02-05_23h24.45.006,IAT(Formal),2021.2.3,Win32,59.88023952,,,,i,1,0.551,0,17,17,34,1,暴躁,i,,,,,,,,,,,,,,,,,,,,,,,,,,,,,,,,,,,,,,,,,,,,,,,,,,,,,
,,,,,,,,,,,,,1,001,2025-02-05_23h24.45.006,IAT(Formal),2021.2.3,Win32,59.88023952,,,,i,0,0.5485,0,18,18,12,1,无私,e,,,,,,,,,,,,,,,,,,,,,,,,,,,,,,,,,,,,,,,,,,,,,,,,,,,,,
,,,,,,,,,,,,,1,001,2025-02-05_23h24.45.006,IAT(Formal),2021.2.3,Win32,59.88023952,,,,e,1,0.7317,0,19,19,19,1,诚恳,e,,,,,,,,,,,,,,,,,,,,,,,,,,,,,,,,,,,,,,,,,,,,,,,,,,,,,
,,,,,,,,,,,,,1,001,2025-02-05_23h24.45.006,IAT(Formal),2021.2.3,Win32,59.88023952,,,,i,1,0.7226,0,20,20,33,1,自私,i,,,,,,,,,,,,,,,,,,,,,,,,,,,,,,,,,,,,,,,,,,,,,,,,,,,,,
,,,,,,,,,,,,,1,001,2025-02-05_23h24.45.006,IAT(Formal),2021.2.3,Win32,59.88023952,,,,i,1,0.7551,0,21,21,37,1,固执,i,,,,,,,,,,,,,,,,,,,,,,,,,,,,,,,,,,,,,,,,,,,,,,,,,,,,,
,,,,,,,,,,,,,1,001,2025-02-05_23h24.45.006,IAT(Formal),2021.2.3,Win32,59.88023952,,,,e,1,0.5469,0,22,22,6,1,正直,e,,,,,,,,,,,,,,,,,,,,,,,,,,,,,,,,,,,,,,,,,,,,,,,,,,,,,
,,,,,,,,,,,,,1,001,2025-02-05_23h24.45.006,IAT(Formal),2021.2.3,Win32,59.88023952,,,,e,1,0.5833,0,23,23,0,1,优秀,e,,,,,,,,,,,,,,,,,,,,,,,,,,,,,,,,,,,,,,,,,,,,,,,,,,,,,
,,,,,,,,,,,,,1,001,2025-02-05_23h24.45.006,IAT(Formal),2021.2.3,Win32,59.88023952,,,,i,1,0.6627,0,24,24,25,1,消极,i,,,,,,,,,,,,,,,,,,,,,,,,,,,,,,,,,,,,,,,,,,,,,,,,,,,,,
,,,,,,,,,,,,,1,001,2025-02-05_23h24.45.006,IAT(Formal),2021.2.3,Win32,59.88023952,,,,e,1,0.6804,0,25,25,4,1,乐观,e,,,,,,,,,,,,,,,,,,,,,,,,,,,,,,,,,,,,,,,,,,,,,,,,,,,,,
,,,,,,,,,,,,,1,001,2025-02-05_23h24.45.006,IAT(Formal),2021.2.3,Win32,59.88023952,,,,i,1,0.8705,0,26,26,31,1,散漫,i,,,,,,,,,,,,,,,,,,,,,,,,,,,,,,,,,,,,,,,,,,,,,,,,,,,,,
,,,,,,,,,,,,,1,001,2025-02-05_23h24.45.006,IAT(Formal),2021.2.3,Win32,59.88023952,,,,i,1,0.751,0,27,27,30,1,执拗,i,,,,,,,,,,,,,,,,,,,,,,,,,,,,,,,,,,,,,,,,,,,,,,,,,,,,,
,,,,,,,,,,,,,1,001,2025-02-05_23h24.45.006,IAT(Formal),2021.2.3,Win32,59.88023952,,,,i,1,0.7079,0,28,28,26,1,自卑,i,,,,,,,,,,,,,,,,,,,,,,,,,,,,,,,,,,,,,,,,,,,,,,,,,,,,,
,,,,,,,,,,,,,1,001,2025-02-05_23h24.45.006,IAT(Formal),2021.2.3,Win32,59.88023952,,,,i,1,0.6618,0,29,29,36,1,野蛮,i,,,,,,,,,,,,,,,,,,,,,,,,,,,,,,,,,,,,,,,,,,,,,,,,,,,,,
,,,,,,,,,,,,,1,001,2025-02-05_23h24.45.006,IAT(Formal),2021.2.3,Win32,59.88023952,,,,e,1,0.6092,0,30,30,8,1,勤奋,e,,,,,,,,,,,,,,,,,,,,,,,,,,,,,,,,,,,,,,,,,,,,,,,,,,,,,
,,,,,,,,,,,,,1,001,2025-02-05_23h24.45.006,IAT(Formal),2021.2.3,Win32,59.88023952,,,,i,1,0.5963,0,31,31,39,1,下贱,i,,,,,,,,,,,,,,,,,,,,,,,,,,,,,,,,,,,,,,,,,,,,,,,,,,,,,
,,,,,,,,,,,,,1,001,2025-02-05_23h24.45.006,IAT(Formal),2021.2.3,Win32,59.88023952,,,,i,1,0.6149,0,32,32,35,1,猖狂,i,,,,,,,,,,,,,,,,,,,,,,,,,,,,,,,,,,,,,,,,,,,,,,,,,,,,,
,,,,,,,,,,,,,1,001,2025-02-05_23h24.45.006,IAT(Formal),2021.2.3,Win32,59.88023952,,,,e,1,0.6292,0,33,33,13,1,公正,e,,,,,,,,,,,,,,,,,,,,,,,,,,,,,,,,,,,,,,,,,,,,,,,,,,,,,
,,,,,,,,,,,,,1,001,2025-02-05_23h24.45.006,IAT(Formal),2021.2.3,Win32,59.88023952,,,,e,1,1.096,0,34,34,3,1,杰出,e,,,,,,,,,,,,,,,,,,,,,,,,,,,,,,,,,,,,,,,,,,,,,,,,,,,,,
,,,,,,,,,,,,,1,001,2025-02-05_23h24.45.006,IAT(Formal),2021.2.3,Win32,59.88023952,,,,e,1,0.5645,0,35,35,17,1,热情,e,,,,,,,,,,,,,,,,,,,,,,,,,,,,,,,,,,,,,,,,,,,,,,,,,,,,,
,,,,,,,,,,,,,1,001,2025-02-05_23h24.45.006,IAT(Formal),2021.2.3,Win32,59.88023952,,,,e,1,0.6559,0,36,36,14,1,朴实,e,,,,,,,,,,,,,,,,,,,,,,,,,,,,,,,,,,,,,,,,,,,,,,,,,,,,,
,,,,,,,,,,,,,1,001,2025-02-05_23h24.45.006,IAT(Formal),2021.2.3,Win32,59.88023952,,,,i,1,0.726,0,37,37,21,1,虚伪,i,,,,,,,,,,,,,,,,,,,,,,,,,,,,,,,,,,,,,,,,,,,,,,,,,,,,,
,,,,,,,,,,,,,1,001,2025-02-05_23h24.45.006,IAT(Formal),2021.2.3,Win32,59.88023952,,,,i,1,0.7459,0,38,38,29,1,冒失,i,,,,,,,,,,,,,,,,,,,,,,,,,,,,,,,,,,,,,,,,,,,,,,,,,,,,,
,,,,,,,,,,,,,1,001,2025-02-05_23h24.45.006,IAT(Formal),2021.2.3,Win32,59.88023952,,,,e,1,0.5873,0,39,39,5,1,诚实,e,,,,,,,,,,,,,,,,,,,,,,,,,,,,,,,,,,,,,,,,,,,,,,,,,,,,,
,,,,,,,,,,,,,1,001,2025-02-05_23h24.45.006,IAT(Formal),2021.2.3,Win32,59.88023952,,,,,,,,,,,,,,space,8.0395,i,1,0.5831,0,0,0,55,1,他,i,,,,,,,,,,,,,,,,,,,,,,,,,,,,,,,,,,,,,,,,,
,,,,,,,,,,,,,1,001,2025-02-05_23h24.45.006,IAT(Formal),2021.2.3,Win32,59.88023952,,,,,,,,,,,,,,,,i,1,0.8818,0,1,1,37,1,傲慢,i,,,,,,,,,,,,,,,,,,,,,,,,,,,,,,,,,,,,,,,,,
,,,,,,,,,,,,,1,001,2025-02-05_23h24.45.006,IAT(Formal),2021.2.3,Win32,59.88023952,,,,,,,,,,,,,,,,i,1,0.74,0,2,2,79,1,其他,i,,,,,,,,,,,,,,,,,,,,,,,,,,,,,,,,,,,,,,,,,
,,,,,,,,,,,,,1,001,2025-02-05_23h24.45.006,IAT(Formal),2021.2.3,Win32,59.88023952,,,,,,,,,,,,,,,,e,1,0.7145,0,3,3,26,1,冷静,e,,,,,,,,,,,,,,,,,,,,,,,,,,,,,,,,,,,,,,,,,
,,,,,,,,,,,,,1,001,2025-02-05_23h24.45.006,IAT(Formal),2021.2.3,Win32,59.88023952,,,,,,,,,,,,,,,,i,1,0.5987,0,4,4,45,1,猖狂,i,,,,,,,,,,,,,,,,,,,,,,,,,,,,,,,,,,,,,,,,,
,,,,,,,,,,,,,1,001,2025-02-05_23h24.45.006,IAT(Formal),2021.2.3,Win32,59.88023952,,,,,,,,,,,,,,,,i,1,0.7845,0,5,5,77,1,他的,i,,,,,,,,,,,,,,,,,,,,,,,,,,,,,,,,,,,,,,,,,
,,,,,,,,,,,,,1,001,2025-02-05_23h24.45.006,IAT(Formal),2021.2.3,Win32,59.88023952,,,,,,,,,,,,,,,,i,1,0.6324,0,6,6,57,1,他的,i,,,,,,,,,,,,,,,,,,,,,,,,,,,,,,,,,,,,,,,,,
,,,,,,,,,,,,,1,001,2025-02-05_23h24.45.006,IAT(Formal),2021.2.3,Win32,59.88023952,,,,,,,,,,,,,,,,e,1,0.6812,0,7,7,23,1,公正,e,,,,,,,,,,,,,,,,,,,,,,,,,,,,,,,,,,,,,,,,,
,,,,,,,,,,,,,1,001,2025-02-05_23h24.45.006,IAT(Formal),2021.2.3,Win32,59.88023952,,,,,,,,,,,,,,,,e,1,0.7495,0,8,8,21,1,稳重,e,,,,,,,,,,,,,,,,,,,,,,,,,,,,,,,,,,,,,,,,,
,,,,,,,,,,,,,1,001,2025-02-05_23h24.45.006,IAT(Formal),2021.2.3,Win32,59.88023952,,,,,,,,,,,,,,,,i,1,0.616,0,9,9,6,1,他们,i,,,,,,,,,,,,,,,,,,,,,,,,,,,,,,,,,,,,,,,,,
,,,,,,,,,,,,,1,001,2025-02-05_23h24.45.006,IAT(Formal),2021.2.3,Win32,59.88023952,,,,,,,,,,,,,,,,e,1,1.0477,0,10,10,22,1,无私,e,,,,,,,,,,,,,,,,,,,,,,,,,,,,,,,,,,,,,,,,,
,,,,,,,,,,,,,1,001,2025-02-05_23h24.45.006,IAT(Formal),2021.2.3,Win32,59.88023952,,,,,,,,,,,,,,,,e,1,0.733,0,11,11,10,1,优秀,e,,,,,,,,,,,,,,,,,,,,,,,,,,,,,,,,,,,,,,,,,
,,,,,,,,,,,,,1,001,2025-02-05_23h24.45.006,IAT(Formal),2021.2.3,Win32,59.88023952,,,,,,,,,,,,,,,,e,1,0.7646,0,12,12,2,1,我们,e,,,,,,,,,,,,,,,,,,,,,,,,,,,,,,,,,,,,,,,,,
,,,,,,,,,,,,,1,001,2025-02-05_23h24.45.006,IAT(Formal),2021.2.3,Win32,59.88023952,,,,,,,,,,,,,,,,e,1,0.6481,0,13,13,16,1,正直,e,,,,,,,,,,,,,,,,,,,,,,,,,,,,,,,,,,,,,,,,,
,,,,,,,,,,,,,1,001,2025-02-05_23h24.45.006,IAT(Formal),2021.2.3,Win32,59.88023952,,,,,,,,,,,,,,,,i,1,0.6816,0,14,14,59,1,其他,i,,,,,,,,,,,,,,,,,,,,,,,,,,,,,,,,,,,,,,,,,
,,,,,,,,,,,,,1,001,2025-02-05_23h24.45.006,IAT(Formal),2021.2.3,Win32,59.88023952,,,,,,,,,,,,,,,,i,1,0.6326,0,15,15,75,1,他,i,,,,,,,,,,,,,,,,,,,,,,,,,,,,,,,,,,,,,,,,,
,,,,,,,,,,,,,1,001,2025-02-05_23h24.45.006,IAT(Formal),2021.2.3,Win32,59.88023952,,,,,,,,,,,,,,,,e,1,0.7145,0,16,16,12,1,聪明,e,,,,,,,,,,,,,,,,,,,,,,,,,,,,,,,,,,,,,,,,,
,,,,,,,,,,,,,1,001,2025-02-05_23h24.45.006,IAT(Formal),2021.2.3,Win32,59.88023952,,,,,,,,,,,,,,,,e,1,0.5755,0,17,17,51,1,我的,e,,,,,,,,,,,,,,,,,,,,,,,,,,,,,,,,,,,,,,,,,
,,,,,,,,,,,,,1,001,2025-02-05_23h24.45.006,IAT(Formal),2021.2.3,Win32,59.88023952,,,,,,,,,,,,,,,,e,1,0.5481,0,18,18,62,1,我们,e,,,,,,,,,,,,,,,,,,,,,,,,,,,,,,,,,,,,,,,,,
,,,,,,,,,,,,,1,001,2025-02-05_23h24.45.006,IAT(Formal),2021.2.3,Win32,59.88023952,,,,,,,,,,,,,,,,e,1,0.6572,0,19,19,27,1,热情,e,,,,,,,,,,,,,,,,,,,,,,,,,,,,,,,,,,,,,,,,,
,,,,,,,,,,,,,1,001,2025-02-05_23h24.45.006,IAT(Formal),2021.2.3,Win32,59.88023952,,,,,,,,,,,,,,,,e,0,1.086,0,20,20,47,1,固执,i,,,,,,,,,,,,,,,,,,,,,,,,,,,,,,,,,,,,,,,,,
,,,,,,,,,,,,,1,001,2025-02-05_23h24.45.006,IAT(Formal),2021.2.3,Win32,59.88023952,,,,,,,,,,,,,,,,e,1,0.8872,0,21,21,15,1,诚实,e,,,,,,,,,,,,,,,,,,,,,,,,,,,,,,,,,,,,,,,,,
,,,,,,,,,,,,,1,001,2025-02-05_23h24.45.006,IAT(Formal),2021.2.3,Win32,59.88023952,,,,,,,,,,,,,,,,i,1,0.6769,0,22,22,56,1,他们,i,,,,,,,,,,,,,,,,,,,,,,,,,,,,,,,,,,,,,,,,,
,,,,,,,,,,,,,1,001,2025-02-05_23h24.45.006,IAT(Formal),2021.2.3,Win32,59.88023952,,,,,,,,,,,,,,,,e,1,0.7136,0,23,23,19,1,机智,e,,,,,,,,,,,,,,,,,,,,,,,,,,,,,,,,,,,,,,,,,
,,,,,,,,,,,,,1,001,2025-02-05_23h24.45.006,IAT(Formal),2021.2.3,Win32,59.88023952,,,,,,,,,,,,,,,,e,1,0.548,0,24,24,73,1,自己,e,,,,,,,,,,,,,,,,,,,,,,,,,,,,,,,,,,,,,,,,,
,,,,,,,,,,,,,1,001,2025-02-05_23h24.45.006,IAT(Formal),2021.2.3,Win32,59.88023952,,,,,,,,,,,,,,,,i,1,0.5989,0,25,25,68,1,他人,i,,,,,,,,,,,,,,,,,,,,,,,,,,,,,,,,,,,,,,,,,
,,,,,,,,,,,,,1,001,2025-02-05_23h24.45.006,IAT(Formal),2021.2.3,Win32,59.88023952,,,,,,,,,,,,,,,,i,1,0.5492,0,26,26,8,1,他人,i,,,,,,,,,,,,,,,,,,,,,,,,,,,,,,,,,,,,,,,,,
,,,,,,,,,,,,,1,001,2025-02-05_23h24.45.006,IAT(Formal),2021.2.3,Win32,59.88023952,,,,,,,,,,,,,,,,i,1,0.5189,0,27,27,65,1,他,i,,,,,,,,,,,,,,,,,,,,,,,,,,,,,,,,,,,,,,,,,
,,,,,,,,,,,,,1,001,2025-02-05_23h24.45.006,IAT(Formal),2021.2.3,Win32,59.88023952,,,,,,,,,,,,,,,,i,1,0.8613,0,28,28,38,1,鲁莽,i,,,,,,,,,,,,,,,,,,,,,,,,,,,,,,,,,,,,,,,,,
,,,,,,,,,,,,,1,001,2025-02-05_23h24.45.006,IAT(Formal),2021.2.3,Win32,59.88023952,,,,,,,,,,,,,,,,i,1,0.7327,0,29,29,69,1,其他,i,,,,,,,,,,,,,,,,,,,,,,,,,,,,,,,,,,,,,,,,,
,,,,,,,,,,,,,1,001,2025-02-05_23h24.45.006,IAT(Formal),2021.2.3,Win32,59.88023952,,,,,,,,,,,,,,,,i,1,0.6994,0,30,30,46,1,野蛮,i,,,,,,,,,,,,,,,,,,,,,,,,,,,,,,,,,,,,,,,,,
,,,,,,,,,,,,,1,001,2025-02-05_23h24.45.006,IAT(Formal),2021.2.3,Win32,59.88023952,,,,,,,,,,,,,,,,e,1,0.6497,0,31,31,29,1,诚恳,e,,,,,,,,,,,,,,,,,,,,,,,,,,,,,,,,,,,,,,,,,
,,,,,,,,,,,,,1,001,2025-02-05_23h24.45.006,IAT(Formal),2021.2.3,Win32,59.88023952,,,,,,,,,,,,,,,,i,1,0.6248,0,32,32,40,1,执拗,i,,,,,,,,,,,,,,,,,,,,,,,,,,,,,,,,,,,,,,,,,
,,,,,,,,,,,,,1,001,2025-02-05_23h24.45.006,IAT(Formal),2021.2.3,Win32,59.88023952,,,,,,,,,,,,,,,,i,1,0.7184,0,33,33,49,1,下贱,i,,,,,,,,,,,,,,,,,,,,,,,,,,,,,,,,,,,,,,,,,
,,,,,,,,,,,,,1,001,2025-02-05_23h24.45.006,IAT(Formal),2021.2.3,Win32,59.88023952,,,,,,,,,,,,,,,,i,1,0.6809,0,34,34,58,1,他人,i,,,,,,,,,,,,,,,,,,,,,,,,,,,,,,,,,,,,,,,,,
,,,,,,,,,,,,,1,001,2025-02-05_23h24.45.006,IAT(Formal),2021.2.3,Win32,59.88023952,,,,,,,,,,,,,,,,i,1,0.6736,0,35,35,39,1,冒失,i,,,,,,,,,,,,,,,,,,,,,,,,,,,,,,,,,,,,,,,,,
,,,,,,,,,,,,,1,001,2025-02-05_23h24.45.006,IAT(Formal),2021.2.3,Win32,59.88023952,,,,,,,,,,,,,,,,e,1,0.6307,0,36,36,72,1,我们,e,,,,,,,,,,,,,,,,,,,,,,,,,,,,,,,,,,,,,,,,,
,,,,,,,,,,,,,1,001,2025-02-05_23h24.45.006,IAT(Formal),2021.2.3,Win32,59.88023952,,,,,,,,,,,,,,,,i,1,0.6656,0,37,37,44,1,暴躁,i,,,,,,,,,,,,,,,,,,,,,,,,,,,,,,,,,,,,,,,,,
,,,,,,,,,,,,,1,001,2025-02-05_23h24.45.006,IAT(Formal),2021.2.3,Win32,59.88023952,,,,,,,,,,,,,,,,e,1,0.6736,0,38,38,3,1,自己,e,,,,,,,,,,,,,,,,,,,,,,,,,,,,,,,,,,,,,,,,,
,,,,,,,,,,,,,1,001,2025-02-05_23h24.45.006,IAT(Formal),2021.2.3,Win32,59.88023952,,,,,,,,,,,,,,,,e,1,0.4994,0,39,39,63,1,自己,e,,,,,,,,,,,,,,,,,,,,,,,,,,,,,,,,,,,,,,,,,
,,,,,,,,,,,,,1,001,2025-02-05_23h24.45.006,IAT(Formal),2021.2.3,Win32,59.88023952,,,,,,,,,,,,,,,,e,1,0.8684,0,40,40,61,1,我的,e,,,,,,,,,,,,,,,,,,,,,,,,,,,,,,,,,,,,,,,,,
,,,,,,,,,,,,,1,001,2025-02-05_23h24.45.006,IAT(Formal),2021.2.3,Win32,59.88023952,,,,,,,,,,,,,,,,e,1,0.5388,0,41,41,70,1,我,e,,,,,,,,,,,,,,,,,,,,,,,,,,,,,,,,,,,,,,,,,
,,,,,,,,,,,,,1,001,2025-02-05_23h24.45.006,IAT(Formal),2021.2.3,Win32,59.88023952,,,,,,,,,,,,,,,,e,1,0.6015,0,42,42,50,1,我,e,,,,,,,,,,,,,,,,,,,,,,,,,,,,,,,,,,,,,,,,,
,,,,,,,,,,,,,1,001,2025-02-05_23h24.45.006,IAT(Formal),2021.2.3,Win32,59.88023952,,,,,,,,,,,,,,,,e,1,0.6098,0,43,43,64,1,俺,e,,,,,,,,,,,,,,,,,,,,,,,,,,,,,,,,,,,,,,,,,
,,,,,,,,,,,,,1,001,2025-02-05_23h24.45.006,IAT(Formal),2021.2.3,Win32,59.88023952,,,,,,,,,,,,,,,,e,1,0.5323,0,44,44,60,1,我,e,,,,,,,,,,,,,,,,,,,,,,,,,,,,,,,,,,,,,,,,,
,,,,,,,,,,,,,1,001,2025-02-05_23h24.45.006,IAT(Formal),2021.2.3,Win32,59.88023952,,,,,,,,,,,,,,,,e,1,0.5839,0,45,45,17,1,勇敢,e,,,,,,,,,,,,,,,,,,,,,,,,,,,,,,,,,,,,,,,,,
,,,,,,,,,,,,,1,001,2025-02-05_23h24.45.006,IAT(Formal),2021.2.3,Win32,59.88023952,,,,,,,,,,,,,,,,i,1,0.7976,0,46,46,48,1,轻率,i,,,,,,,,,,,,,,,,,,,,,,,,,,,,,,,,,,,,,,,,,
,,,,,,,,,,,,,1,001,2025-02-05_23h24.45.006,IAT(Formal),2021.2.3,Win32,59.88023952,,,,,,,,,,,,,,,,i,1,0.6339,0,47,47,41,1,散漫,i,,,,,,,,,,,,,,,,,,,,,,,,,,,,,,,,,,,,,,,,,
,,,,,,,,,,,,,1,001,2025-02-05_23h24.45.006,IAT(Formal),2021.2.3,Win32,59.88023952,,,,,,,,,,,,,,,,e,1,0.57,0,48,48,52,1,我们,e,,,,,,,,,,,,,,,,,,,,,,,,,,,,,,,,,,,,,,,,,
,,,,,,,,,,,,,1,001,2025-02-05_23h24.45.006,IAT(Formal),2021.2.3,Win32,59.88023952,,,,,,,,,,,,,,,,i,1,1.0321,0,49,49,43,1,自私,i,,,,,,,,,,,,,,,,,,,,,,,,,,,,,,,,,,,,,,,,,
,,,,,,,,,,,,,1,001,2025-02-05_23h24.45.006,IAT(Formal),2021.2.3,Win32,59.88023952,,,,,,,,,,,,,,,,e,1,0.7496,0,50,50,14,1,乐观,e,,,,,,,,,,,,,,,,,,,,,,,,,,,,,,,,,,,,,,,,,
,,,,,,,,,,,,,1,001,2025-02-05_23h24.45.006,IAT(Formal),2021.2.3,Win32,59.88023952,,,,,,,,,,,,,,,,e,1,0.8236,0,51,51,71,1,我的,e,,,,,,,,,,,,,,,,,,,,,,,,,,,,,,,,,,,,,,,,,
,,,,,,,,,,,,,1,001,2025-02-05_23h24.45.006,IAT(Formal),2021.2.3,Win32,59.88023952,,,,,,,,,,,,,,,,e,1,0.6736,0,52,52,4,1,俺,e,,,,,,,,,,,,,,,,,,,,,,,,,,,,,,,,,,,,,,,,,
,,,,,,,,,,,,,1,001,2025-02-05_23h24.45.006,IAT(Formal),2021.2.3,Win32,59.88023952,,,,,,,,,,,,,,,,i,1,0.7069,0,53,53,42,1,凶狠,i,,,,,,,,,,,,,,,,,,,,,,,,,,,,,,,,,,,,,,,,,
,,,,,,,,,,,,,1,001,2025-02-05_23h24.45.006,IAT(Formal),2021.2.3,Win32,59.88023952,,,,,,,,,,,,,,,,e,1,0.6302,0,54,54,1,1,我的,e,,,,,,,,,,,,,,,,,,,,,,,,,,,,,,,,,,,,,,,,,
,,,,,,,,,,,,,1,001,2025-02-05_23h24.45.006,IAT(Formal),2021.2.3,Win32,59.88023952,,,,,,,,,,,,,,,,i,1,0.7685,0,55,55,5,1,他,i,,,,,,,,,,,,,,,,,,,,,,,,,,,,,,,,,,,,,,,,,
,,,,,,,,,,,,,1,001,2025-02-05_23h24.45.006,IAT(Formal),2021.2.3,Win32,59.88023952,,,,,,,,,,,,,,,,e,1,0.6688,0,56,56,20,1,认真,e,,,,,,,,,,,,,,,,,,,,,,,,,,,,,,,,,,,,,,,,,
,,,,,,,,,,,,,1,001,2025-02-05_23h24.45.006,IAT(Formal),2021.2.3,Win32,59.88023952,,,,,,,,,,,,,,,,i,1,0.647,0,57,57,32,1,愚蠢,i,,,,,,,,,,,,,,,,,,,,,,,,,,,,,,,,,,,,,,,,,
,,,,,,,,,,,,,1,001,2025-02-05_23h24.45.006,IAT(Formal),2021.2.3,Win32,59.88023952,,,,,,,,,,,,,,,,e,1,0.6551,0,58,58,25,1,细腻,e,,,,,,,,,,,,,,,,,,,,,,,,,,,,,,,,,,,,,,,,,
,,,,,,,,,,,,,1,001,2025-02-05_23h24.45.006,IAT(Formal),2021.2.3,Win32,59.88023952,,,,,,,,,,,,,,,,i,1,0.9679,0,59,59,76,1,他们,i,,,,,,,,,,,,,,,,,,,,,,,,,,,,,,,,,,,,,,,,,
,,,,,,,,,,,,,1,001,2025-02-05_23h24.45.006,IAT(Formal),2021.2.3,Win32,59.88023952,,,,,,,,,,,,,,,,e,1,0.5924,0,60,60,24,1,朴实,e,,,,,,,,,,,,,,,,,,,,,,,,,,,,,,,,,,,,,,,,,
,,,,,,,,,,,,,1,001,2025-02-05_23h24.45.006,IAT(Formal),2021.2.3,Win32,59.88023952,,,,,,,,,,,,,,,,i,1,0.9157,0,61,61,66,1,他们,i,,,,,,,,,,,,,,,,,,,,,,,,,,,,,,,,,,,,,,,,,
,,,,,,,,,,,,,1,001,2025-02-05_23h24.45.006,IAT(Formal),2021.2.3,Win32,59.88023952,,,,,,,,,,,,,,,,i,1,0.7895,0,62,62,33,1,刻薄,i,,,,,,,,,,,,,,,,,,,,,,,,,,,,,,,,,,,,,,,,,
,,,,,,,,,,,,,1,001,2025-02-05_23h24.45.006,IAT(Formal),2021.2.3,Win32,59.88023952,,,,,,,,,,,,,,,,e,1,0.5882,0,63,63,53,1,自己,e,,,,,,,,,,,,,,,,,,,,,,,,,,,,,,,,,,,,,,,,,
,,,,,,,,,,,,,1,001,2025-02-05_23h24.45.006,IAT(Formal),2021.2.3,Win32,59.88023952,,,,,,,,,,,,,,,,i,1,0.6037,0,64,64,7,1,他的,i,,,,,,,,,,,,,,,,,,,,,,,,,,,,,,,,,,,,,,,,,
,,,,,,,,,,,,,1,001,2025-02-05_23h24.45.006,IAT(Formal),2021.2.3,Win32,59.88023952,,,,,,,,,,,,,,,,i,1,0.6482,0,65,65,35,1,消极,i,,,,,,,,,,,,,,,,,,,,,,,,,,,,,,,,,,,,,,,,,
,,,,,,,,,,,,,1,001,2025-02-05_23h24.45.006,IAT(Formal),2021.2.3,Win32,59.88023952,,,,,,,,,,,,,,,,i,1,0.6909,0,66,66,78,1,他人,i,,,,,,,,,,,,,,,,,,,,,,,,,,,,,,,,,,,,,,,,,
,,,,,,,,,,,,,1,001,2025-02-05_23h24.45.006,IAT(Formal),2021.2.3,Win32,59.88023952,,,,,,,,,,,,,,,,e,1,0.7245,0,67,67,13,1,杰出,e,,,,,,,,,,,,,,,,,,,,,,,,,,,,,,,,,,,,,,,,,
,,,,,,,,,,,,,1,001,2025-02-05_23h24.45.006,IAT(Formal),2021.2.3,Win32,59.88023952,,,,,,,,,,,,,,,,e,1,0.5999,0,68,68,54,1,俺,e,,,,,,,,,,,,,,,,,,,,,,,,,,,,,,,,,,,,,,,,,
,,,,,,,,,,,,,1,001,2025-02-05_23h24.45.006,IAT(Formal),2021.2.3,Win32,59.88023952,,,,,,,,,,,,,,,,e,1,0.6346,0,69,69,28,1,活泼,e,,,,,,,,,,,,,,,,,,,,,,,,,,,,,,,,,,,,,,,,,
,,,,,,,,,,,,,1,001,2025-02-05_23h24.45.006,IAT(Formal),2021.2.3,Win32,59.88023952,,,,,,,,,,,,,,,,e,1,0.7861,0,70,70,74,1,俺,e,,,,,,,,,,,,,,,,,,,,,,,,,,,,,,,,,,,,,,,,,
,,,,,,,,,,,,,1,001,2025-02-05_23h24.45.006,IAT(Formal),2021.2.3,Win32,59.88023952,,,,,,,,,,,,,,,,e,1,0.8163,0,71,71,11,1,崇高,e,,,,,,,,,,,,,,,,,,,,,,,,,,,,,,,,,,,,,,,,,
,,,,,,,,,,,,,1,001,2025-02-05_23h24.45.006,IAT(Formal),2021.2.3,Win32,59.88023952,,,,,,,,,,,,,,,,i,1,0.7035,0,72,72,36,1,自卑,i,,,,,,,,,,,,,,,,,,,,,,,,,,,,,,,,,,,,,,,,,
,,,,,,,,,,,,,1,001,2025-02-05_23h24.45.006,IAT(Formal),2021.2.3,Win32,59.88023952,,,,,,,,,,,,,,,,i,1,0.5373,0,73,73,30,1,卑鄙,i,,,,,,,,,,,,,,,,,,,,,,,,,,,,,,,,,,,,,,,,,
,,,,,,,,,,,,,1,001,2025-02-05_23h24.45.006,IAT(Formal),2021.2.3,Win32,59.88023952,,,,,,,,,,,,,,,,e,1,0.5759,0,74,74,18,1,勤奋,e,,,,,,,,,,,,,,,,,,,,,,,,,,,,,,,,,,,,,,,,,
,,,,,,,,,,,,,1,001,2025-02-05_23h24.45.006,IAT(Formal),2021.2.3,Win32,59.88023952,,,,,,,,,,,,,,,,i,1,0.6869,0,75,75,9,1,其他,i,,,,,,,,,,,,,,,,,,,,,,,,,,,,,,,,,,,,,,,,,
,,,,,,,,,,,,,1,001,2025-02-05_23h24.45.006,IAT(Formal),2021.2.3,Win32,59.88023952,,,,,,,,,,,,,,,,e,1,0.4594,0,76,76,0,1,我,e,,,,,,,,,,,,,,,,,,,,,,,,,,,,,,,,,,,,,,,,,
,,,,,,,,,,,,,1,001,2025-02-05_23h24.45.006,IAT(Formal),2021.2.3,Win32,59.88023952,,,,,,,,,,,,,,,,i,1,0.5383,0,77,77,34,1,悲观,i,,,,,,,,,,,,,,,,,,,,,,,,,,,,,,,,,,,,,,,,,
,,,,,,,,,,,,,1,001,2025-02-05_23h24.45.006,IAT(Formal),2021.2.3,Win32,59.88023952,,,,,,,,,,,,,,,,i,1,0.6485,0,78,78,67,1,他的,i,,,,,,,,,,,,,,,,,,,,,,,,,,,,,,,,,,,,,,,,,
,,,,,,,,,,,,,1,001,2025-02-05_23h24.45.006,IAT(Formal),2021.2.3,Win32,59.88023952,,,,,,,,,,,,,,,,i,1,0.8328,0,79,79,31,1,虚伪,i,,,,,,,,,,,,,,,,,,,,,,,,,,,,,,,,,,,,,,,,,
,,,,,,,,,,,,,1,001,2025-02-05_23h24.45.006,IAT(Formal),2021.2.3,Win32,59.88023952,,,,,,,,,,,,,,,,i,1,0.6813,,,,,,他,i,space,34.5764,0,0,0,65,1,,,,,,,,,,,,,,,,,,,,,,,,,,,,,,,,,,
,,,,,,,,,,,,,1,001,2025-02-05_23h24.45.006,IAT(Formal),2021.2.3,Win32,59.88023952,,,,,,,,,,,,,,,,e,1,0.5677,,,,,,优秀,e,,,0,1,1,10,1,,,,,,,,,,,,,,,,,,,,,,,,,,,,,,,,,,
,,,,,,,,,,,,,1,001,2025-02-05_23h24.45.006,IAT(Formal),2021.2.3,Win32,59.88023952,,,,,,,,,,,,,,,,e,0,0.4674,,,,,,他的,i,,,0,2,2,77,1,,,,,,,,,,,,,,,,,,,,,,,,,,,,,,,,,,
,,,,,,,,,,,,,1,001,2025-02-05_23h24.45.006,IAT(Formal),2021.2.3,Win32,59.88023952,,,,,,,,,,,,,,,,e,1,0.6321,,,,,,聪明,e,,,0,3,3,12,1,,,,,,,,,,,,,,,,,,,,,,,,,,,,,,,,,,
,,,,,,,,,,,,,1,001,2025-02-05_23h24.45.006,IAT(Formal),2021.2.3,Win32,59.88023952,,,,,,,,,,,,,,,,i,1,0.6068,,,,,,他,i,,,0,4,4,5,1,,,,,,,,,,,,,,,,,,,,,,,,,,,,,,,,,,
,,,,,,,,,,,,,1,001,2025-02-05_23h24.45.006,IAT(Formal),2021.2.3,Win32,59.88023952,,,,,,,,,,,,,,,,i,1,0.5498,,,,,,猖狂,i,,,0,5,5,45,1,,,,,,,,,,,,,,,,,,,,,,,,,,,,,,,,,,
,,,,,,,,,,,,,1,001,2025-02-05_23h24.45.006,IAT(Formal),2021.2.3,Win32,59.88023952,,,,,,,,,,,,,,,,i,1,0.4887,,,,,,冒失,i,,,0,6,6,39,1,,,,,,,,,,,,,,,,,,,,,,,,,,,,,,,,,,
,,,,,,,,,,,,,1,001,2025-02-05_23h24.45.006,IAT(Formal),2021.2.3,Win32,59.88023952,,,,,,,,,,,,,,,,i,1,0.4507,,,,,,野蛮,i,,,0,7,7,46,1,,,,,,,,,,,,,,,,,,,,,,,,,,,,,,,,,,
,,,,,,,,,,,,,1,001,2025-02-05_23h24.45.006,IAT(Formal),2021.2.3,Win32,59.88023952,,,,,,,,,,,,,,,,i,1,0.4566,,,,,,凶狠,i,,,0,8,8,42,1,,,,,,,,,,,,,,,,,,,,,,,,,,,,,,,,,,
,,,,,,,,,,,,,1,001,2025-02-05_23h24.45.006,IAT(Formal),2021.2.3,Win32,59.88023952,,,,,,,,,,,,,,,,i,1,0.4551,,,,,,虚伪,i,,,0,9,9,31,1,,,,,,,,,,,,,,,,,,,,,,,,,,,,,,,,,,
,,,,,,,,,,,,,1,001,2025-02-05_23h24.45.006,IAT(Formal),2021.2.3,Win32,59.88023952,,,,,,,,,,,,,,,,e,1,0.6667,,,,,,冷静,e,,,0,10,10,26,1,,,,,,,,,,,,,,,,,,,,,,,,,,,,,,,,,,
,,,,,,,,,,,,,1,001,2025-02-05_23h24.45.006,IAT(Formal),2021.2.3,Win32,59.88023952,,,,,,,,,,,,,,,,i,1,0.5769,,,,,,消极,i,,,0,11,11,35,1,,,,,,,,,,,,,,,,,,,,,,,,,,,,,,,,,,
,,,,,,,,,,,,,1,001,2025-02-05_23h24.45.006,IAT(Formal),2021.2.3,Win32,59.88023952,,,,,,,,,,,,,,,,e,1,0.5256,,,,,,我,e,,,0,12,12,0,1,,,,,,,,,,,,,,,,,,,,,,,,,,,,,,,,,,
,,,,,,,,,,,,,1,001,2025-02-05_23h24.45.006,IAT(Formal),2021.2.3,Win32,59.88023952,,,,,,,,,,,,,,,,e,1,0.4296,,,,,,自己,e,,,0,13,13,53,1,,,,,,,,,,,,,,,,,,,,,,,,,,,,,,,,,,
,,,,,,,,,,,,,1,001,2025-02-05_23h24.45.006,IAT(Formal),2021.2.3,Win32,59.88023952,,,,,,,,,,,,,,,,i,1,0.5552,,,,,,悲观,i,,,0,14,14,34,1,,,,,,,,,,,,,,,,,,,,,,,,,,,,,,,,,,
,,,,,,,,,,,,,1,001,2025-02-05_23h24.45.006,IAT(Formal),2021.2.3,Win32,59.88023952,,,,,,,,,,,,,,,,e,1,0.4991,,,,,,我的,e,,,0,15,15,71,1,,,,,,,,,,,,,,,,,,,,,,,,,,,,,,,,,,
,,,,,,,,,,,,,1,001,2025-02-05_23h24.45.006,IAT(Formal),2021.2.3,Win32,59.88023952,,,,,,,,,,,,,,,,e,1,0.649,,,,,,稳重,e,,,0,16,16,21,1,,,,,,,,,,,,,,,,,,,,,,,,,,,,,,,,,,
,,,,,,,,,,,,,1,001,2025-02-05_23h24.45.006,IAT(Formal),2021.2.3,Win32,59.88023952,,,,,,,,,,,,,,,,i,1,0.618,,,,,,他人,i,,,0,17,17,58,1,,,,,,,,,,,,,,,,,,,,,,,,,,,,,,,,,,
,,,,,,,,,,,,,1,001,2025-02-05_23h24.45.006,IAT(Formal),2021.2.3,Win32,59.88023952,,,,,,,,,,,,,,,,e,0,0.595,,,,,,自私,i,,,0,18,18,43,1,,,,,,,,,,,,,,,,,,,,,,,,,,,,,,,,,,
,,,,,,,,,,,,,1,001,2025-02-05_23h24.45.006,IAT(Formal),2021.2.3,Win32,59.88023952,,,,,,,,,,,,,,,,i,1,0.7572,,,,,,执拗,i,,,0,19,19,40,1,,,,,,,,,,,,,,,,,,,,,,,,,,,,,,,,,,
,,,,,,,,,,,,,1,001,2025-02-05_23h24.45.006,IAT(Formal),2021.2.3,Win32,59.88023952,,,,,,,,,,,,,,,,e,1,0.4838,,,,,,我们,e,,,0,20,20,72,1,,,,,,,,,,,,,,,,,,,,,,,,,,,,,,,,,,
,,,,,,,,,,,,,1,001,2025-02-05_23h24.45.006,IAT(Formal),2021.2.3,Win32,59.88023952,,,,,,,,,,,,,,,,e,1,0.4836,,,,,,我们,e,,,0,21,21,52,1,,,,,,,,,,,,,,,,,,,,,,,,,,,,,,,,,,
,,,,,,,,,,,,,1,001,2025-02-05_23h24.45.006,IAT(Formal),2021.2.3,Win32,59.88023952,,,,,,,,,,,,,,,,i,1,0.4728,,,,,,他的,i,,,0,22,22,57,1,,,,,,,,,,,,,,,,,,,,,,,,,,,,,,,,,,
,,,,,,,,,,,,,1,001,2025-02-05_23h24.45.006,IAT(Formal),2021.2.3,Win32,59.88023952,,,,,,,,,,,,,,,,e,1,0.5404,,,,,,俺,e,,,0,23,23,4,1,,,,,,,,,,,,,,,,,,,,,,,,,,,,,,,,,,
,,,,,,,,,,,,,1,001,2025-02-05_23h24.45.006,IAT(Formal),2021.2.3,Win32,59.88023952,,,,,,,,,,,,,,,,e,1,0.7897,,,,,,公正,e,,,0,24,24,23,1,,,,,,,,,,,,,,,,,,,,,,,,,,,,,,,,,,
,,,,,,,,,,,,,1,001,2025-02-05_23h24.45.006,IAT(Formal),2021.2.3,Win32,59.88023952,,,,,,,,,,,,,,,,i,1,0.5214,,,,,,其他,i,,,0,25,25,9,1,,,,,,,,,,,,,,,,,,,,,,,,,,,,,,,,,,
,,,,,,,,,,,,,1,001,2025-02-05_23h24.45.006,IAT(Formal),2021.2.3,Win32,59.88023952,,,,,,,,,,,,,,,,e,1,1.1833,,,,,,勇敢,e,,,0,26,26,17,1,,,,,,,,,,,,,,,,,,,,,,,,,,,,,,,,,,
,,,,,,,,,,,,,1,001,2025-02-05_23h24.45.006,IAT(Formal),2021.2.3,Win32,59.88023952,,,,,,,,,,,,,,,,i,1,0.5593,,,,,,鲁莽,i,,,0,27,27,38,1,,,,,,,,,,,,,,,,,,,,,,,,,,,,,,,,,,
,,,,,,,,,,,,,1,001,2025-02-05_23h24.45.006,IAT(Formal),2021.2.3,Win32,59.88023952,,,,,,,,,,,,,,,,e,1,0.5119,,,,,,崇高,e,,,0,28,28,11,1,,,,,,,,,,,,,,,,,,,,,,,,,,,,,,,,,,
,,,,,,,,,,,,,1,001,2025-02-05_23h24.45.006,IAT(Formal),2021.2.3,Win32,59.88023952,,,,,,,,,,,,,,,,e,1,0.5598,,,,,,活泼,e,,,0,29,29,28,1,,,,,,,,,,,,,,,,,,,,,,,,,,,,,,,,,,
,,,,,,,,,,,,,1,001,2025-02-05_23h24.45.006,IAT(Formal),2021.2.3,Win32,59.88023952,,,,,,,,,,,,,,,,e,1,0.5119,,,,,,我们,e,,,0,30,30,2,1,,,,,,,,,,,,,,,,,,,,,,,,,,,,,,,,,,
,,,,,,,,,,,,,1,001,2025-02-05_23h24.45.006,IAT(Formal),2021.2.3,Win32,59.88023952,,,,,,,,,,,,,,,,i,1,0.5584,,,,,,卑鄙,i,,,0,31,31,30,1,,,,,,,,,,,,,,,,,,,,,,,,,,,,,,,,,,
,,,,,,,,,,,,,1,001,2025-02-05_23h24.45.006,IAT(Formal),2021.2.3,Win32,59.88023952,,,,,,,,,,,,,,,,i,1,0.546,,,,,,散漫,i,,,0,32,32,41,1,,,,,,,,,,,,,,,,,,,,,,,,,,,,,,,,,,
,,,,,,,,,,,,,1,001,2025-02-05_23h24.45.006,IAT(Formal),2021.2.3,Win32,59.88023952,,,,,,,,,,,,,,,,i,1,0.4786,,,,,,自卑,i,,,0,33,33,36,1,,,,,,,,,,,,,,,,,,,,,,,,,,,,,,,,,,
,,,,,,,,,,,,,1,001,2025-02-05_23h24.45.006,IAT(Formal),2021.2.3,Win32,59.88023952,,,,,,,,,,,,,,,,i,0,0.5255,,,,,,无私,e,,,0,34,34,22,1,,,,,,,,,,,,,,,,,,,,,,,,,,,,,,,,,,
,,,,,,,,,,,,,1,001,2025-02-05_23h24.45.006,IAT(Formal),2021.2.3,Win32,59.88023952,,,,,,,,,,,,,,,,i,1,0.7867,,,,,,他们,i,,,0,35,35,56,1,,,,,,,,,,,,,,,,,,,,,,,,,,,,,,,,,,
,,,,,,,,,,,,,1,001,2025-02-05_23h24.45.006,IAT(Formal),2021.2.3,Win32,59.88023952,,,,,,,,,,,,,,,,i,1,1.0709,,,,,,其他,i,,,0,36,36,59,1,,,,,,,,,,,,,,,,,,,,,,,,,,,,,,,,,,
,,,,,,,,,,,,,1,001,2025-02-05_23h24.45.006,IAT(Formal),2021.2.3,Win32,59.88023952,,,,,,,,,,,,,,,,e,1,0.5839,,,,,,诚恳,e,,,0,37,37,29,1,,,,,,,,,,,,,,,,,,,,,,,,,,,,,,,,,,
,,,,,,,,,,,,,1,001,2025-02-05_23h24.45.006,IAT(Formal),2021.2.3,Win32,59.88023952,,,,,,,,,,,,,,,,e,1,0.4801,,,,,,我的,e,,,0,38,38,1,1,,,,,,,,,,,,,,,,,,,,,,,,,,,,,,,,,,
,,,,,,,,,,,,,1,001,2025-02-05_23h24.45.006,IAT(Formal),2021.2.3,Win32,59.88023952,,,,,,,,,,,,,,,,e,1,0.6021,,,,,,自己,e,,,0,39,39,73,1,,,,,,,,,,,,,,,,,,,,,,,,,,,,,,,,,,
,,,,,,,,,,,,,1,001,2025-02-05_23h24.45.006,IAT(Formal),2021.2.3,Win32,59.88023952,,,,,,,,,,,,,,,,i,1,1.3502,,,,,,固执,i,,,0,40,40,47,1,,,,,,,,,,,,,,,,,,,,,,,,,,,,,,,,,,
,,,,,,,,,,,,,1,001,2025-02-05_23h24.45.006,IAT(Formal),2021.2.3,Win32,59.88023952,,,,,,,,,,,,,,,,e,1,0.6264,,,,,,诚实,e,,,0,41,41,15,1,,,,,,,,,,,,,,,,,,,,,,,,,,,,,,,,,,
,,,,,,,,,,,,,1,001,2025-02-05_23h24.45.006,IAT(Formal),2021.2.3,Win32,59.88023952,,,,,,,,,,,,,,,,e,1,0.5837,,,,,,自己,e,,,0,42,42,3,1,,,,,,,,,,,,,,,,,,,,,,,,,,,,,,,,,,
,,,,,,,,,,,,,1,001,2025-02-05_23h24.45.006,IAT(Formal),2021.2.3,Win32,59.88023952,,,,,,,,,,,,,,,,e,1,0.607,,,,,,认真,e,,,0,43,43,20,1,,,,,,,,,,,,,,,,,,,,,,,,,,,,,,,,,,
,,,,,,,,,,,,,1,001,2025-02-05_23h24.45.006,IAT(Formal),2021.2.3,Win32,59.88023952,,,,,,,,,,,,,,,,e,0,0.3999,,,,,,他的,i,,,0,44,44,7,1,,,,,,,,,,,,,,,,,,,,,,,,,,,,,,,,,,
,,,,,,,,,,,,,1,001,2025-02-05_23h24.45.006,IAT(Formal),2021.2.3,Win32,59.88023952,,,,,,,,,,,,,,,,e,1,0.5502,,,,,,我,e,,,0,45,45,70,1,,,,,,,,,,,,,,,,,,,,,,,,,,,,,,,,,,
,,,,,,,,,,,,,1,001,2025-02-05_23h24.45.006,IAT(Formal),2021.2.3,Win32,59.88023952,,,,,,,,,,,,,,,,e,1,0.7882,,,,,,杰出,e,,,0,46,46,13,1,,,,,,,,,,,,,,,,,,,,,,,,,,,,,,,,,,
,,,,,,,,,,,,,1,001,2025-02-05_23h24.45.006,IAT(Formal),2021.2.3,Win32,59.88023952,,,,,,,,,,,,,,,,i,1,0.6441,,,,,,傲慢,i,,,0,47,47,37,1,,,,,,,,,,,,,,,,,,,,,,,,,,,,,,,,,,
,,,,,,,,,,,,,1,001,2025-02-05_23h24.45.006,IAT(Formal),2021.2.3,Win32,59.88023952,,,,,,,,,,,,,,,,i,1,0.7287,,,,,,他的,i,,,0,48,48,67,1,,,,,,,,,,,,,,,,,,,,,,,,,,,,,,,,,,
,,,,,,,,,,,,,1,001,2025-02-05_23h24.45.006,IAT(Formal),2021.2.3,Win32,59.88023952,,,,,,,,,,,,,,,,e,1,0.5998,,,,,,正直,e,,,0,49,49,16,1,,,,,,,,,,,,,,,,,,,,,,,,,,,,,,,,,,
,,,,,,,,,,,,,1,001,2025-02-05_23h24.45.006,IAT(Formal),2021.2.3,Win32,59.88023952,,,,,,,,,,,,,,,,i,0,0.6843,,,,,,俺,e,,,0,50,50,64,1,,,,,,,,,,,,,,,,,,,,,,,,,,,,,,,,,,
,,,,,,,,,,,,,1,001,2025-02-05_23h24.45.006,IAT(Formal),2021.2.3,Win32,59.88023952,,,,,,,,,,,,,,,,i,1,0.9757,,,,,,其他,i,,,0,51,51,79,1,,,,,,,,,,,,,,,,,,,,,,,,,,,,,,,,,,
,,,,,,,,,,,,,1,001,2025-02-05_23h24.45.006,IAT(Formal),2021.2.3,Win32,59.88023952,,,,,,,,,,,,,,,,e,1,0.8497,,,,,,勤奋,e,,,0,52,52,18,1,,,,,,,,,,,,,,,,,,,,,,,,,,,,,,,,,,
,,,,,,,,,,,,,1,001,2025-02-05_23h24.45.006,IAT(Formal),2021.2.3,Win32,59.88023952,,,,,,,,,,,,,,,,i,1,0.661,,,,,,他人,i,,,0,53,53,68,1,,,,,,,,,,,,,,,,,,,,,,,,,,,,,,,,,,
,,,,,,,,,,,,,1,001,2025-02-05_23h24.45.006,IAT(Formal),2021.2.3,Win32,59.88023952,,,,,,,,,,,,,,,,e,1,0.5641,,,,,,我的,e,,,0,54,54,61,1,,,,,,,,,,,,,,,,,,,,,,,,,,,,,,,,,,
,,,,,,,,,,,,,1,001,2025-02-05_23h24.45.006,IAT(Formal),2021.2.3,Win32,59.88023952,,,,,,,,,,,,,,,,i,1,0.6269,,,,,,他们,i,,,0,55,55,6,1,,,,,,,,,,,,,,,,,,,,,,,,,,,,,,,,,,
,,,,,,,,,,,,,1,001,2025-02-05_23h24.45.006,IAT(Formal),2021.2.3,Win32,59.88023952,,,,,,,,,,,,,,,,i,1,0.4605,,,,,,他们,i,,,0,56,56,76,1,,,,,,,,,,,,,,,,,,,,,,,,,,,,,,,,,,
,,,,,,,,,,,,,1,001,2025-02-05_23h24.45.006,IAT(Formal),2021.2.3,Win32,59.88023952,,,,,,,,,,,,,,,,i,1,0.5581,,,,,,他,i,,,0,57,57,75,1,,,,,,,,,,,,,,,,,,,,,,,,,,,,,,,,,,
,,,,,,,,,,,,,1,001,2025-02-05_23h24.45.006,IAT(Formal),2021.2.3,Win32,59.88023952,,,,,,,,,,,,,,,,i,1,0.4337,,,,,,他们,i,,,0,58,58,66,1,,,,,,,,,,,,,,,,,,,,,,,,,,,,,,,,,,
,,,,,,,,,,,,,1,001,2025-02-05_23h24.45.006,IAT(Formal),2021.2.3,Win32,59.88023952,,,,,,,,,,,,,,,,i,1,0.6648,,,,,,下贱,i,,,0,59,59,49,1,,,,,,,,,,,,,,,,,,,,,,,,,,,,,,,,,,
,,,,,,,,,,,,,1,001,2025-02-05_23h24.45.006,IAT(Formal),2021.2.3,Win32,59.88023952,,,,,,,,,,,,,,,,i,1,0.6005,,,,,,他人,i,,,0,60,60,8,1,,,,,,,,,,,,,,,,,,,,,,,,,,,,,,,,,,
,,,,,,,,,,,,,1,001,2025-02-05_23h24.45.006,IAT(Formal),2021.2.3,Win32,59.88023952,,,,,,,,,,,,,,,,e,1,0.6964,,,,,,俺,e,,,0,61,61,74,1,,,,,,,,,,,,,,,,,,,,,,,,,,,,,,,,,,
,,,,,,,,,,,,,1,001,2025-02-05_23h24.45.006,IAT(Formal),2021.2.3,Win32,59.88023952,,,,,,,,,,,,,,,,e,1,0.6752,,,,,,细腻,e,,,0,62,62,25,1,,,,,,,,,,,,,,,,,,,,,,,,,,,,,,,,,,
,,,,,,,,,,,,,1,001,2025-02-05_23h24.45.006,IAT(Formal),2021.2.3,Win32,59.88023952,,,,,,,,,,,,,,,,e,1,0.6818,,,,,,朴实,e,,,0,63,63,24,1,,,,,,,,,,,,,,,,,,,,,,,,,,,,,,,,,,
,,,,,,,,,,,,,1,001,2025-02-05_23h24.45.006,IAT(Formal),2021.2.3,Win32,59.88023952,,,,,,,,,,,,,,,,i,1,0.6032,,,,,,暴躁,i,,,0,64,64,44,1,,,,,,,,,,,,,,,,,,,,,,,,,,,,,,,,,,
,,,,,,,,,,,,,1,001,2025-02-05_23h24.45.006,IAT(Formal),2021.2.3,Win32,59.88023952,,,,,,,,,,,,,,,,e,1,0.646,,,,,,我们,e,,,0,65,65,62,1,,,,,,,,,,,,,,,,,,,,,,,,,,,,,,,,,,
,,,,,,,,,,,,,1,001,2025-02-05_23h24.45.006,IAT(Formal),2021.2.3,Win32,59.88023952,,,,,,,,,,,,,,,,i,1,0.7158,,,,,,他,i,,,0,66,66,55,1,,,,,,,,,,,,,,,,,,,,,,,,,,,,,,,,,,
,,,,,,,,,,,,,1,001,2025-02-05_23h24.45.006,IAT(Formal),2021.2.3,Win32,59.88023952,,,,,,,,,,,,,,,,e,1,0.6518,,,,,,乐观,e,,,0,67,67,14,1,,,,,,,,,,,,,,,,,,,,,,,,,,,,,,,,,,
,,,,,,,,,,,,,1,001,2025-02-05_23h24.45.006,IAT(Formal),2021.2.3,Win32,59.88023952,,,,,,,,,,,,,,,,e,1,0.6431,,,,,,我的,e,,,0,68,68,51,1,,,,,,,,,,,,,,,,,,,,,,,,,,,,,,,,,,
,,,,,,,,,,,,,1,001,2025-02-05_23h24.45.006,IAT(Formal),2021.2.3,Win32,59.88023952,,,,,,,,,,,,,,,,i,1,0.6403,,,,,,刻薄,i,,,0,69,69,33,1,,,,,,,,,,,,,,,,,,,,,,,,,,,,,,,,,,
,,,,,,,,,,,,,1,001,2025-02-05_23h24.45.006,IAT(Formal),2021.2.3,Win32,59.88023952,,,,,,,,,,,,,,,,i,1,0.5867,,,,,,愚蠢,i,,,0,70,70,32,1,,,,,,,,,,,,,,,,,,,,,,,,,,,,,,,,,,
,,,,,,,,,,,,,1,001,2025-02-05_23h24.45.006,IAT(Formal),2021.2.3,Win32,59.88023952,,,,,,,,,,,,,,,,i,1,0.5916,,,,,,其他,i,,,0,71,71,69,1,,,,,,,,,,,,,,,,,,,,,,,,,,,,,,,,,,
,,,,,,,,,,,,,1,001,2025-02-05_23h24.45.006,IAT(Formal),2021.2.3,Win32,59.88023952,,,,,,,,,,,,,,,,i,1,0.5259,,,,,,他人,i,,,0,72,72,78,1,,,,,,,,,,,,,,,,,,,,,,,,,,,,,,,,,,
,,,,,,,,,,,,,1,001,2025-02-05_23h24.45.006,IAT(Formal),2021.2.3,Win32,59.88023952,,,,,,,,,,,,,,,,e,1,0.72,,,,,,机智,e,,,0,73,73,19,1,,,,,,,,,,,,,,,,,,,,,,,,,,,,,,,,,,
,,,,,,,,,,,,,1,001,2025-02-05_23h24.45.006,IAT(Formal),2021.2.3,Win32,59.88023952,,,,,,,,,,,,,,,,e,1,0.5286,,,,,,俺,e,,,0,74,74,54,1,,,,,,,,,,,,,,,,,,,,,,,,,,,,,,,,,,
,,,,,,,,,,,,,1,001,2025-02-05_23h24.45.006,IAT(Formal),2021.2.3,Win32,59.88023952,,,,,,,,,,,,,,,,e,1,0.5027,,,,,,我,e,,,0,75,75,60,1,,,,,,,,,,,,,,,,,,,,,,,,,,,,,,,,,,
,,,,,,,,,,,,,1,001,2025-02-05_23h24.45.006,IAT(Formal),2021.2.3,Win32,59.88023952,,,,,,,,,,,,,,,,i,1,0.7228,,,,,,轻率,i,,,0,76,76,48,1,,,,,,,,,,,,,,,,,,,,,,,,,,,,,,,,,,
,,,,,,,,,,,,,1,001,2025-02-05_23h24.45.006,IAT(Formal),2021.2.3,Win32,59.88023952,,,,,,,,,,,,,,,,e,1,0.7425,,,,,,热情,e,,,0,77,77,27,1,,,,,,,,,,,,,,,,,,,,,,,,,,,,,,,,,,
,,,,,,,,,,,,,1,001,2025-02-05_23h24.45.006,IAT(Formal),2021.2.3,Win32,59.88023952,,,,,,,,,,,,,,,,e,1,0.5166,,,,,,我,e,,,0,78,78,50,1,,,,,,,,,,,,,,,,,,,,,,,,,,,,,,,,,,
,,,,,,,,,,,,,1,001,2025-02-05_23h24.45.006,IAT(Formal),2021.2.3,Win32,59.88023952,,,,,,,,,,,,,,,,e,1,0.5331,,,,,,自己,e,,,0,79,79,63,1,,,,,,,,,,,,,,,,,,,,,,,,,,,,,,,,,,
,,,,,,,,,,,,,1,001,2025-02-05_23h24.45.006,IAT(Formal),2021.2.3,Win32,59.88023952,,,,,,,,,,,,,,,,e,1,0.6278,,,,,,我的,e,,,1,0,80,71,1,,,,,,,,,,,,,,,,,,,,,,,,,,,,,,,,,,
,,,,,,,,,,,,,1,001,2025-02-05_23h24.45.006,IAT(Formal),2021.2.3,Win32,59.88023952,,,,,,,,,,,,,,,,i,1,0.6199,,,,,,他的,i,,,1,1,81,7,1,,,,,,,,,,,,,,,,,,,,,,,,,,,,,,,,,,
,,,,,,,,,,,,,1,001,2025-02-05_23h24.45.006,IAT(Formal),2021.2.3,Win32,59.88023952,,,,,,,,,,,,,,,,e,1,0.5618,,,,,,俺,e,,,1,2,82,74,1,,,,,,,,,,,,,,,,,,,,,,,,,,,,,,,,,,
,,,,,,,,,,,,,1,001,2025-02-05_23h24.45.006,IAT(Formal),2021.2.3,Win32,59.88023952,,,,,,,,,,,,,,,,i,1,0.6202,,,,,,愚蠢,i,,,1,3,83,32,1,,,,,,,,,,,,,,,,,,,,,,,,,,,,,,,,,,
,,,,,,,,,,,,,1,001,2025-02-05_23h24.45.006,IAT(Formal),2021.2.3,Win32,59.88023952,,,,,,,,,,,,,,,,e,1,0.6894,,,,,,崇高,e,,,1,4,84,11,1,,,,,,,,,,,,,,,,,,,,,,,,,,,,,,,,,,
,,,,,,,,,,,,,1,001,2025-02-05_23h24.45.006,IAT(Formal),2021.2.3,Win32,59.88023952,,,,,,,,,,,,,,,,i,1,0.7075,,,,,,他们,i,,,1,5,85,6,1,,,,,,,,,,,,,,,,,,,,,,,,,,,,,,,,,,
,,,,,,,,,,,,,1,001,2025-02-05_23h24.45.006,IAT(Formal),2021.2.3,Win32,59.88023952,,,,,,,,,,,,,,,,e,1,0.5397,,,,,,我们,e,,,1,6,86,2,1,,,,,,,,,,,,,,,,,,,,,,,,,,,,,,,,,,
,,,,,,,,,,,,,1,001,2025-02-05_23h24.45.006,IAT(Formal),2021.2.3,Win32,59.88023952,,,,,,,,,,,,,,,,e,1,0.5497,,,,,,我,e,,,1,7,87,70,1,,,,,,,,,,,,,,,,,,,,,,,,,,,,,,,,,,
,,,,,,,,,,,,,1,001,2025-02-05_23h24.45.006,IAT(Formal),2021.2.3,Win32,59.88023952,,,,,,,,,,,,,,,,i,1,0.5645,,,,,,下贱,i,,,1,8,88,49,1,,,,,,,,,,,,,,,,,,,,,,,,,,,,,,,,,,
,,,,,,,,,,,,,1,001,2025-02-05_23h24.45.006,IAT(Formal),2021.2.3,Win32,59.88023952,,,,,,,,,,,,,,,,e,1,0.5823,,,,,,诚实,e,,,1,9,89,15,1,,,,,,,,,,,,,,,,,,,,,,,,,,,,,,,,,,
,,,,,,,,,,,,,1,001,2025-02-05_23h24.45.006,IAT(Formal),2021.2.3,Win32,59.88023952,,,,,,,,,,,,,,,,i,1,0.7035,,,,,,他们,i,,,1,10,90,66,1,,,,,,,,,,,,,,,,,,,,,,,,,,,,,,,,,,
,,,,,,,,,,,,,1,001,2025-02-05_23h24.45.006,IAT(Formal),2021.2.3,Win32,59.88023952,,,,,,,,,,,,,,,,e,1,0.5265,,,,,,我,e,,,1,11,91,50,1,,,,,,,,,,,,,,,,,,,,,,,,,,,,,,,,,,
,,,,,,,,,,,,,1,001,2025-02-05_23h24.45.006,IAT(Formal),2021.2.3,Win32,59.88023952,,,,,,,,,,,,,,,,e,1,0.5589,,,,,,自己,e,,,1,12,92,73,1,,,,,,,,,,,,,,,,,,,,,,,,,,,,,,,,,,
,,,,,,,,,,,,,1,001,2025-02-05_23h24.45.006,IAT(Formal),2021.2.3,Win32,59.88023952,,,,,,,,,,,,,,,,i,1,0.4991,,,,,,凶狠,i,,,1,13,93,42,1,,,,,,,,,,,,,,,,,,,,,,,,,,,,,,,,,,
,,,,,,,,,,,,,1,001,2025-02-05_23h24.45.006,IAT(Formal),2021.2.3,Win32,59.88023952,,,,,,,,,,,,,,,,i,1,0.6005,,,,,,傲慢,i,,,1,14,94,37,1,,,,,,,,,,,,,,,,,,,,,,,,,,,,,,,,,,
,,,,,,,,,,,,,1,001,2025-02-05_23h24.45.006,IAT(Formal),2021.2.3,Win32,59.88023952,,,,,,,,,,,,,,,,e,1,0.6017,,,,,,自己,e,,,1,15,95,53,1,,,,,,,,,,,,,,,,,,,,,,,,,,,,,,,,,,
,,,,,,,,,,,,,1,001,2025-02-05_23h24.45.006,IAT(Formal),2021.2.3,Win32,59.88023952,,,,,,,,,,,,,,,,i,1,0.5689,,,,,,虚伪,i,,,1,16,96,31,1,,,,,,,,,,,,,,,,,,,,,,,,,,,,,,,,,,
,,,,,,,,,,,,,1,001,2025-02-05_23h24.45.006,IAT(Formal),2021.2.3,Win32,59.88023952,,,,,,,,,,,,,,,,e,1,1.0991,,,,,,稳重,e,,,1,17,97,21,1,,,,,,,,,,,,,,,,,,,,,,,,,,,,,,,,,,
,,,,,,,,,,,,,1,001,2025-02-05_23h24.45.006,IAT(Formal),2021.2.3,Win32,59.88023952,,,,,,,,,,,,,,,,i,1,0.5325,,,,,,刻薄,i,,,1,18,98,33,1,,,,,,,,,,,,,,,,,,,,,,,,,,,,,,,,,,
,,,,,,,,,,,,,1,001,2025-02-05_23h24.45.006,IAT(Formal),2021.2.3,Win32,59.88023952,,,,,,,,,,,,,,,,i,1,0.6235,,,,,,野蛮,i,,,1,19,99,46,1,,,,,,,,,,,,,,,,,,,,,,,,,,,,,,,,,,
,,,,,,,,,,,,,1,001,2025-02-05_23h24.45.006,IAT(Formal),2021.2.3,Win32,59.88023952,,,,,,,,,,,,,,,,e,1,0.4836,,,,,,自己,e,,,1,20,100,3,1,,,,,,,,,,,,,,,,,,,,,,,,,,,,,,,,,,
,,,,,,,,,,,,,1,001,2025-02-05_23h24.45.006,IAT(Formal),2021.2.3,Win32,59.88023952,,,,,,,,,,,,,,,,e,1,0.6662,,,,,,热情,e,,,1,21,101,27,1,,,,,,,,,,,,,,,,,,,,,,,,,,,,,,,,,,
,,,,,,,,,,,,,1,001,2025-02-05_23h24.45.006,IAT(Formal),2021.2.3,Win32,59.88023952,,,,,,,,,,,,,,,,e,1,0.5497,,,,,,我的,e,,,1,22,102,1,1,,,,,,,,,,,,,,,,,,,,,,,,,,,,,,,,,,
,,,,,,,,,,,,,1,001,2025-02-05_23h24.45.006,IAT(Formal),2021.2.3,Win32,59.88023952,,,,,,,,,,,,,,,,e,1,0.6657,,,,,,俺,e,,,1,23,103,4,1,,,,,,,,,,,,,,,,,,,,,,,,,,,,,,,,,,
,,,,,,,,,,,,,1,001,2025-02-05_23h24.45.006,IAT(Formal),2021.2.3,Win32,59.88023952,,,,,,,,,,,,,,,,e,1,0.6043,,,,,,活泼,e,,,1,24,104,28,1,,,,,,,,,,,,,,,,,,,,,,,,,,,,,,,,,,
,,,,,,,,,,,,,1,001,2025-02-05_23h24.45.006,IAT(Formal),2021.2.3,Win32,59.88023952,,,,,,,,,,,,,,,,i,1,0.6033,,,,,,其他,i,,,1,25,105,9,1,,,,,,,,,,,,,,,,,,,,,,,,,,,,,,,,,,
,,,,,,,,,,,,,1,001,2025-02-05_23h24.45.006,IAT(Formal),2021.2.3,Win32,59.88023952,,,,,,,,,,,,,,,,i,1,0.6154,,,,,,轻率,i,,,1,26,106,48,1,,,,,,,,,,,,,,,,,,,,,,,,,,,,,,,,,,
,,,,,,,,,,,,,1,001,2025-02-05_23h24.45.006,IAT(Formal),2021.2.3,Win32,59.88023952,,,,,,,,,,,,,,,,e,1,0.5997,,,,,,勤奋,e,,,1,27,107,18,1,,,,,,,,,,,,,,,,,,,,,,,,,,,,,,,,,,
,,,,,,,,,,,,,1,001,2025-02-05_23h24.45.006,IAT(Formal),2021.2.3,Win32,59.88023952,,,,,,,,,,,,,,,,i,1,0.5783,,,,,,悲观,i,,,1,28,108,34,1,,,,,,,,,,,,,,,,,,,,,,,,,,,,,,,,,,
,,,,,,,,,,,,,1,001,2025-02-05_23h24.45.006,IAT(Formal),2021.2.3,Win32,59.88023952,,,,,,,,,,,,,,,,i,1,0.5243,,,,,,他的,i,,,1,29,109,67,1,,,,,,,,,,,,,,,,,,,,,,,,,,,,,,,,,,
,,,,,,,,,,,,,1,001,2025-02-05_23h24.45.006,IAT(Formal),2021.2.3,Win32,59.88023952,,,,,,,,,,,,,,,,e,1,0.5312,,,,,,优秀,e,,,1,30,110,10,1,,,,,,,,,,,,,,,,,,,,,,,,,,,,,,,,,,
,,,,,,,,,,,,,1,001,2025-02-05_23h24.45.006,IAT(Formal),2021.2.3,Win32,59.88023952,,,,,,,,,,,,,,,,i,1,0.6831,,,,,,他的,i,,,1,31,111,77,1,,,,,,,,,,,,,,,,,,,,,,,,,,,,,,,,,,
,,,,,,,,,,,,,1,001,2025-02-05_23h24.45.006,IAT(Formal),2021.2.3,Win32,59.88023952,,,,,,,,,,,,,,,,e,1,0.5397,,,,,,朴实,e,,,1,32,112,24,1,,,,,,,,,,,,,,,,,,,,,,,,,,,,,,,,,,
,,,,,,,,,,,,,1,001,2025-02-05_23h24.45.006,IAT(Formal),2021.2.3,Win32,59.88023952,,,,,,,,,,,,,,,,e,1,0.5441,,,,,,我的,e,,,1,33,113,51,1,,,,,,,,,,,,,,,,,,,,,,,,,,,,,,,,,,
,,,,,,,,,,,,,1,001,2025-02-05_23h24.45.006,IAT(Formal),2021.2.3,Win32,59.88023952,,,,,,,,,,,,,,,,e,1,0.6694,,,,,,机智,e,,,1,34,114,19,1,,,,,,,,,,,,,,,,,,,,,,,,,,,,,,,,,,
,,,,,,,,,,,,,1,001,2025-02-05_23h24.45.006,IAT(Formal),2021.2.3,Win32,59.88023952,,,,,,,,,,,,,,,,i,1,0.5418,,,,,,他们,i,,,1,35,115,56,1,,,,,,,,,,,,,,,,,,,,,,,,,,,,,,,,,,
,,,,,,,,,,,,,1,001,2025-02-05_23h24.45.006,IAT(Formal),2021.2.3,Win32,59.88023952,,,,,,,,,,,,,,,,e,1,0.6258,,,,,,我们,e,,,1,36,116,52,1,,,,,,,,,,,,,,,,,,,,,,,,,,,,,,,,,,
,,,,,,,,,,,,,1,001,2025-02-05_23h24.45.006,IAT(Formal),2021.2.3,Win32,59.88023952,,,,,,,,,,,,,,,,e,1,0.5177,,,,,,我们,e,,,1,37,117,72,1,,,,,,,,,,,,,,,,,,,,,,,,,,,,,,,,,,
,,,,,,,,,,,,,1,001,2025-02-05_23h24.45.006,IAT(Formal),2021.2.3,Win32,59.88023952,,,,,,,,,,,,,,,,i,1,0.6048,,,,,,他,i,,,1,38,118,5,1,,,,,,,,,,,,,,,,,,,,,,,,,,,,,,,,,,
,,,,,,,,,,,,,1,001,2025-02-05_23h24.45.006,IAT(Formal),2021.2.3,Win32,59.88023952,,,,,,,,,,,,,,,,e,0,0.529,,,,,,自私,i,,,1,39,119,43,1,,,,,,,,,,,,,,,,,,,,,,,,,,,,,,,,,,
,,,,,,,,,,,,,1,001,2025-02-05_23h24.45.006,IAT(Formal),2021.2.3,Win32,59.88023952,,,,,,,,,,,,,,,,e,1,0.5719,,,,,,自己,e,,,1,40,120,63,1,,,,,,,,,,,,,,,,,,,,,,,,,,,,,,,,,,
,,,,,,,,,,,,,1,001,2025-02-05_23h24.45.006,IAT(Formal),2021.2.3,Win32,59.88023952,,,,,,,,,,,,,,,,i,1,0.6312,,,,,,执拗,i,,,1,41,121,40,1,,,,,,,,,,,,,,,,,,,,,,,,,,,,,,,,,,
,,,,,,,,,,,,,1,001,2025-02-05_23h24.45.006,IAT(Formal),2021.2.3,Win32,59.88023952,,,,,,,,,,,,,,,,e,1,0.7667,,,,,,勇敢,e,,,1,42,122,17,1,,,,,,,,,,,,,,,,,,,,,,,,,,,,,,,,,,
,,,,,,,,,,,,,1,001,2025-02-05_23h24.45.006,IAT(Formal),2021.2.3,Win32,59.88023952,,,,,,,,,,,,,,,,i,1,0.5277,,,,,,他人,i,,,1,43,123,68,1,,,,,,,,,,,,,,,,,,,,,,,,,,,,,,,,,,
,,,,,,,,,,,,,1,001,2025-02-05_23h24.45.006,IAT(Formal),2021.2.3,Win32,59.88023952,,,,,,,,,,,,,,,,i,0,0.5985,,,,,,无私,e,,,1,44,124,22,1,,,,,,,,,,,,,,,,,,,,,,,,,,,,,,,,,,
,,,,,,,,,,,,,1,001,2025-02-05_23h24.45.006,IAT(Formal),2021.2.3,Win32,59.88023952,,,,,,,,,,,,,,,,e,1,0.5992,,,,,,杰出,e,,,1,45,125,13,1,,,,,,,,,,,,,,,,,,,,,,,,,,,,,,,,,,
,,,,,,,,,,,,,1,001,2025-02-05_23h24.45.006,IAT(Formal),2021.2.3,Win32,59.88023952,,,,,,,,,,,,,,,,i,1,0.6037,,,,,,暴躁,i,,,1,46,126,44,1,,,,,,,,,,,,,,,,,,,,,,,,,,,,,,,,,,
,,,,,,,,,,,,,1,001,2025-02-05_23h24.45.006,IAT(Formal),2021.2.3,Win32,59.88023952,,,,,,,,,,,,,,,,e,0,0.5684,,,,,,他的,i,,,1,47,127,57,1,,,,,,,,,,,,,,,,,,,,,,,,,,,,,,,,,,
,,,,,,,,,,,,,1,001,2025-02-05_23h24.45.006,IAT(Formal),2021.2.3,Win32,59.88023952,,,,,,,,,,,,,,,,e,1,0.6823,,,,,,诚恳,e,,,1,48,128,29,1,,,,,,,,,,,,,,,,,,,,,,,,,,,,,,,,,,
,,,,,,,,,,,,,1,001,2025-02-05_23h24.45.006,IAT(Formal),2021.2.3,Win32,59.88023952,,,,,,,,,,,,,,,,i,1,0.7155,,,,,,他,i,,,1,49,129,65,1,,,,,,,,,,,,,,,,,,,,,,,,,,,,,,,,,,
,,,,,,,,,,,,,1,001,2025-02-05_23h24.45.006,IAT(Formal),2021.2.3,Win32,59.88023952,,,,,,,,,,,,,,,,e,1,0.4897,,,,,,我的,e,,,1,50,130,61,1,,,,,,,,,,,,,,,,,,,,,,,,,,,,,,,,,,
,,,,,,,,,,,,,1,001,2025-02-05_23h24.45.006,IAT(Formal),2021.2.3,Win32,59.88023952,,,,,,,,,,,,,,,,e,1,0.9484,,,,,,聪明,e,,,1,51,131,12,1,,,,,,,,,,,,,,,,,,,,,,,,,,,,,,,,,,
,,,,,,,,,,,,,1,001,2025-02-05_23h24.45.006,IAT(Formal),2021.2.3,Win32,59.88023952,,,,,,,,,,,,,,,,i,1,0.599,,,,,,鲁莽,i,,,1,52,132,38,1,,,,,,,,,,,,,,,,,,,,,,,,,,,,,,,,,,
,,,,,,,,,,,,,1,001,2025-02-05_23h24.45.006,IAT(Formal),2021.2.3,Win32,59.88023952,,,,,,,,,,,,,,,,e,1,0.6531,,,,,,细腻,e,,,1,53,133,25,1,,,,,,,,,,,,,,,,,,,,,,,,,,,,,,,,,,
,,,,,,,,,,,,,1,001,2025-02-05_23h24.45.006,IAT(Formal),2021.2.3,Win32,59.88023952,,,,,,,,,,,,,,,,i,1,0.691,,,,,,其他,i,,,1,54,134,59,1,,,,,,,,,,,,,,,,,,,,,,,,,,,,,,,,,,
,,,,,,,,,,,,,1,001,2025-02-05_23h24.45.006,IAT(Formal),2021.2.3,Win32,59.88023952,,,,,,,,,,,,,,,,i,1,0.9842,,,,,,固执,i,,,1,55,135,47,1,,,,,,,,,,,,,,,,,,,,,,,,,,,,,,,,,,
,,,,,,,,,,,,,1,001,2025-02-05_23h24.45.006,IAT(Formal),2021.2.3,Win32,59.88023952,,,,,,,,,,,,,,,,i,1,0.6657,,,,,,他,i,,,1,56,136,55,1,,,,,,,,,,,,,,,,,,,,,,,,,,,,,,,,,,
,,,,,,,,,,,,,1,001,2025-02-05_23h24.45.006,IAT(Formal),2021.2.3,Win32,59.88023952,,,,,,,,,,,,,,,,i,1,0.6791,,,,,,他人,i,,,1,57,137,8,1,,,,,,,,,,,,,,,,,,,,,,,,,,,,,,,,,,
,,,,,,,,,,,,,1,001,2025-02-05_23h24.45.006,IAT(Formal),2021.2.3,Win32,59.88023952,,,,,,,,,,,,,,,,i,1,0.5888,,,,,,其他,i,,,1,58,138,79,1,,,,,,,,,,,,,,,,,,,,,,,,,,,,,,,,,,
,,,,,,,,,,,,,1,001,2025-02-05_23h24.45.006,IAT(Formal),2021.2.3,Win32,59.88023952,,,,,,,,,,,,,,,,i,1,0.5157,,,,,,他们,i,,,1,59,139,76,1,,,,,,,,,,,,,,,,,,,,,,,,,,,,,,,,,,
,,,,,,,,,,,,,1,001,2025-02-05_23h24.45.006,IAT(Formal),2021.2.3,Win32,59.88023952,,,,,,,,,,,,,,,,i,1,0.5432,,,,,,其他,i,,,1,60,140,69,1,,,,,,,,,,,,,,,,,,,,,,,,,,,,,,,,,,
,,,,,,,,,,,,,1,001,2025-02-05_23h24.45.006,IAT(Formal),2021.2.3,Win32,59.88023952,,,,,,,,,,,,,,,,e,1,0.5067,,,,,,乐观,e,,,1,61,141,14,1,,,,,,,,,,,,,,,,,,,,,,,,,,,,,,,,,,
,,,,,,,,,,,,,1,001,2025-02-05_23h24.45.006,IAT(Formal),2021.2.3,Win32,59.88023952,,,,,,,,,,,,,,,,i,1,0.6316,,,,,,自卑,i,,,1,62,142,36,1,,,,,,,,,,,,,,,,,,,,,,,,,,,,,,,,,,
,,,,,,,,,,,,,1,001,2025-02-05_23h24.45.006,IAT(Formal),2021.2.3,Win32,59.88023952,,,,,,,,,,,,,,,,i,1,0.5317,,,,,,猖狂,i,,,1,63,143,45,1,,,,,,,,,,,,,,,,,,,,,,,,,,,,,,,,,,
,,,,,,,,,,,,,1,001,2025-02-05_23h24.45.006,IAT(Formal),2021.2.3,Win32,59.88023952,,,,,,,,,,,,,,,,i,1,0.7651,,,,,,他人,i,,,1,64,144,58,1,,,,,,,,,,,,,,,,,,,,,,,,,,,,,,,,,,
,,,,,,,,,,,,,1,001,2025-02-05_23h24.45.006,IAT(Formal),2021.2.3,Win32,59.88023952,,,,,,,,,,,,,,,,i,1,0.5417,,,,,,散漫,i,,,1,65,145,41,1,,,,,,,,,,,,,,,,,,,,,,,,,,,,,,,,,,
,,,,,,,,,,,,,1,001,2025-02-05_23h24.45.006,IAT(Formal),2021.2.3,Win32,59.88023952,,,,,,,,,,,,,,,,e,1,0.6091,,,,,,俺,e,,,1,66,146,54,1,,,,,,,,,,,,,,,,,,,,,,,,,,,,,,,,,,
,,,,,,,,,,,,,1,001,2025-02-05_23h24.45.006,IAT(Formal),2021.2.3,Win32,59.88023952,,,,,,,,,,,,,,,,e,1,0.628,,,,,,认真,e,,,1,67,147,20,1,,,,,,,,,,,,,,,,,,,,,,,,,,,,,,,,,,
,,,,,,,,,,,,,1,001,2025-02-05_23h24.45.006,IAT(Formal),2021.2.3,Win32,59.88023952,,,,,,,,,,,,,,,,e,1,0.6736,,,,,,冷静,e,,,1,68,148,26,1,,,,,,,,,,,,,,,,,,,,,,,,,,,,,,,,,,
,,,,,,,,,,,,,1,001,2025-02-05_23h24.45.006,IAT(Formal),2021.2.3,Win32,59.88023952,,,,,,,,,,,,,,,,i,1,0.6227,,,,,,他人,i,,,1,69,149,78,1,,,,,,,,,,,,,,,,,,,,,,,,,,,,,,,,,,
,,,,,,,,,,,,,1,001,2025-02-05_23h24.45.006,IAT(Formal),2021.2.3,Win32,59.88023952,,,,,,,,,,,,,,,,e,1,0.5268,,,,,,正直,e,,,1,70,150,16,1,,,,,,,,,,,,,,,,,,,,,,,,,,,,,,,,,,
,,,,,,,,,,,,,1,001,2025-02-05_23h24.45.006,IAT(Formal),2021.2.3,Win32,59.88023952,,,,,,,,,,,,,,,,e,1,0.5594,,,,,,俺,e,,,1,71,151,64,1,,,,,,,,,,,,,,,,,,,,,,,,,,,,,,,,,,
,,,,,,,,,,,,,1,001,2025-02-05_23h24.45.006,IAT(Formal),2021.2.3,Win32,59.88023952,,,,,,,,,,,,,,,,i,1,0.4846,,,,,,消极,i,,,1,72,152,35,1,,,,,,,,,,,,,,,,,,,,,,,,,,,,,,,,,,
,,,,,,,,,,,,,1,001,2025-02-05_23h24.45.006,IAT(Formal),2021.2.3,Win32,59.88023952,,,,,,,,,,,,,,,,e,1,0.4474,,,,,,我们,e,,,1,73,153,62,1,,,,,,,,,,,,,,,,,,,,,,,,,,,,,,,,,,
,,,,,,,,,,,,,1,001,2025-02-05_23h24.45.006,IAT(Formal),2021.2.3,Win32,59.88023952,,,,,,,,,,,,,,,,i,1,0.5212,,,,,,冒失,i,,,1,74,154,39,1,,,,,,,,,,,,,,,,,,,,,,,,,,,,,,,,,,
,,,,,,,,,,,,,1,001,2025-02-05_23h24.45.006,IAT(Formal),2021.2.3,Win32,59.88023952,,,,,,,,,,,,,,,,e,1,0.517,,,,,,我,e,,,1,75,155,0,1,,,,,,,,,,,,,,,,,,,,,,,,,,,,,,,,,,
,,,,,,,,,,,,,1,001,2025-02-05_23h24.45.006,IAT(Formal),2021.2.3,Win32,59.88023952,,,,,,,,,,,,,,,,e,1,0.5911,,,,,,公正,e,,,1,76,156,23,1,,,,,,,,,,,,,,,,,,,,,,,,,,,,,,,,,,
,,,,,,,,,,,,,1,001,2025-02-05_23h24.45.006,IAT(Formal),2021.2.3,Win32,59.88023952,,,,,,,,,,,,,,,,e,1,0.4888,,,,,,我,e,,,1,77,157,60,1,,,,,,,,,,,,,,,,,,,,,,,,,,,,,,,,,,
,,,,,,,,,,,,,1,001,2025-02-05_23h24.45.006,IAT(Formal),2021.2.3,Win32,59.88023952,,,,,,,,,,,,,,,,e,0,0.5081,,,,,,他,i,,,1,78,158,75,1,,,,,,,,,,,,,,,,,,,,,,,,,,,,,,,,,,
,,,,,,,,,,,,,1,001,2025-02-05_23h24.45.006,IAT(Formal),2021.2.3,Win32,59.88023952,,,,,,,,,,,,,,,,i,1,0.5677,,,,,,卑鄙,i,,,1,79,159,30,1,,,,,,,,,,,,,,,,,,,,,,,,,,,,,,,,,,
,,,,,,,,,,,其他,e,1,001,2025-02-05_23h24.45.006,IAT(Formal),2021.2.3,Win32,59.88023952,,,,,,,,,,,,,,,,,,,,,,,,,,,,,,,,,space,25.1433,e,1,0.8165,0,0,0,9,1,,,,,,,,,,,,,,,,,,,,,,,,
,,,,,,,,,,,俺,i,1,001,2025-02-05_23h24.45.006,IAT(Formal),2021.2.3,Win32,59.88023952,,,,,,,,,,,,,,,,,,,,,,,,,,,,,,,,,,,i,1,0.8211,0,1,1,4,1,,,,,,,,,,,,,,,,,,,,,,,,
,,,,,,,,,,,他们,e,1,001,2025-02-05_23h24.45.006,IAT(Formal),2021.2.3,Win32,59.88023952,,,,,,,,,,,,,,,,,,,,,,,,,,,,,,,,,,,e,1,0.6434,0,2,2,6,1,,,,,,,,,,,,,,,,,,,,,,,,
,,,,,,,,,,,自己,i,1,001,2025-02-05_23h24.45.006,IAT(Formal),2021.2.3,Win32,59.88023952,,,,,,,,,,,,,,,,,,,,,,,,,,,,,,,,,,,i,1,0.6523,0,3,3,3,1,,,,,,,,,,,,,,,,,,,,,,,,
,,,,,,,,,,,他的,e,1,001,2025-02-05_23h24.45.006,IAT(Formal),2021.2.3,Win32,59.88023952,,,,,,,,,,,,,,,,,,,,,,,,,,,,,,,,,,,e,1,0.8508,0,4,4,7,1,,,,,,,,,,,,,,,,,,,,,,,,
,,,,,,,,,,,他人,e,1,001,2025-02-05_23h24.45.006,IAT(Formal),2021.2.3,Win32,59.88023952,,,,,,,,,,,,,,,,,,,,,,,,,,,,,,,,,,,e,1,0.5588,0,5,5,8,1,,,,,,,,,,,,,,,,,,,,,,,,
,,,,,,,,,,,我的,i,1,001,2025-02-05_23h24.45.006,IAT(Formal),2021.2.3,Win32,59.88023952,,,,,,,,,,,,,,,,,,,,,,,,,,,,,,,,,,,i,1,0.4754,0,6,6,1,1,,,,,,,,,,,,,,,,,,,,,,,,
,,,,,,,,,,,他,e,1,001,2025-02-05_23h24.45.006,IAT(Formal),2021.2.3,Win32,59.88023952,,,,,,,,,,,,,,,,,,,,,,,,,,,,,,,,,,,e,1,0.6569,0,7,7,5,1,,,,,,,,,,,,,,,,,,,,,,,,
,,,,,,,,,,,我,i,1,001,2025-02-05_23h24.45.006,IAT(Formal),2021.2.3,Win32,59.88023952,,,,,,,,,,,,,,,,,,,,,,,,,,,,,,,,,,,i,1,0.533,0,8,8,0,1,,,,,,,,,,,,,,,,,,,,,,,,
,,,,,,,,,,,我们,i,1,001,2025-02-05_23h24.45.006,IAT(Formal),2021.2.3,Win32,59.88023952,,,,,,,,,,,,,,,,,,,,,,,,,,,,,,,,,,,i,1,0.7019,0,9,9,2,1,,,,,,,,,,,,,,,,,,,,,,,,
,,,,,,,,,,,,,1,001,2025-02-05_23h24.45.006,IAT(Formal),2021.2.3,Win32,59.88023952,,,,,,,,,,,,,,,,,,,,,,,,,,,,,,,,,,,,,,,,,,,space,7.0584,e,1,0.7153,0,0,0,78,1,他人,e,,,,,,,,,,,,
,,,,,,,,,,,,,1,001,2025-02-05_23h24.45.006,IAT(Formal),2021.2.3,Win32,59.88023952,,,,,,,,,,,,,,,,,,,,,,,,,,,,,,,,,,,,,,,,,,,,,i,0,0.6054,0,1,1,12,1,聪明,e,,,,,,,,,,,,
,,,,,,,,,,,,,1,001,2025-02-05_23h24.45.006,IAT(Formal),2021.2.3,Win32,59.88023952,,,,,,,,,,,,,,,,,,,,,,,,,,,,,,,,,,,,,,,,,,,,,,0,,0,2,2,69,1,其他,e,,,,,,,,,,,,
,,,,,,,,,,,,,1,001,2025-02-05_23h24.45.006,IAT(Formal),2021.2.3,Win32,59.88023952,,,,,,,,,,,,,,,,,,,,,,,,,,,,,,,,,,,,,,,,,,,,,i,1,1.3514,0,3,3,3,1,自己,i,,,,,,,,,,,,
,,,,,,,,,,,,,1,001,2025-02-05_23h24.45.006,IAT(Formal),2021.2.3,Win32,59.88023952,,,,,,,,,,,,,,,,,,,,,,,,,,,,,,,,,,,,,,,,,,,,,e,1,0.7664,0,4,4,76,1,他们,e,,,,,,,,,,,,
,,,,,,,,,,,,,1,001,2025-02-05_23h24.45.006,IAT(Formal),2021.2.3,Win32,59.88023952,,,,,,,,,,,,,,,,,,,,,,,,,,,,,,,,,,,,,,,,,,,,,e,1,0.7093,0,5,5,68,1,他人,e,,,,,,,,,,,,
,,,,,,,,,,,,,1,001,2025-02-05_23h24.45.006,IAT(Formal),2021.2.3,Win32,59.88023952,,,,,,,,,,,,,,,,,,,,,,,,,,,,,,,,,,,,,,,,,,,,,e,1,0.7751,0,6,6,26,1,冷静,e,,,,,,,,,,,,
,,,,,,,,,,,,,1,001,2025-02-05_23h24.45.006,IAT(Formal),2021.2.3,Win32,59.88023952,,,,,,,,,,,,,,,,,,,,,,,,,,,,,,,,,,,,,,,,,,,,,e,1,1.2467,0,7,7,56,1,他们,e,,,,,,,,,,,,
,,,,,,,,,,,,,1,001,2025-02-05_23h24.45.006,IAT(Formal),2021.2.3,Win32,59.88023952,,,,,,,,,,,,,,,,,,,,,,,,,,,,,,,,,,,,,,,,,,,,,e,1,0.6634,0,8,8,15,1,诚实,e,,,,,,,,,,,,
,,,,,,,,,,,,,1,001,2025-02-05_23h24.45.006,IAT(Formal),2021.2.3,Win32,59.88023952,,,,,,,,,,,,,,,,,,,,,,,,,,,,,,,,,,,,,,,,,,,,,i,1,0.6066,0,9,9,32,1,愚蠢,i,,,,,,,,,,,,
,,,,,,,,,,,,,1,001,2025-02-05_23h24.45.006,IAT(Formal),2021.2.3,Win32,59.88023952,,,,,,,,,,,,,,,,,,,,,,,,,,,,,,,,,,,,,,,,,,,,,i,0,0.7261,0,10,10,10,1,优秀,e,,,,,,,,,,,,
,,,,,,,,,,,,,1,001,2025-02-05_23h24.45.006,IAT(Formal),2021.2.3,Win32,59.88023952,,,,,,,,,,,,,,,,,,,,,,,,,,,,,,,,,,,,,,,,,,,,,i,1,1.1932,0,11,11,0,1,我,i,,,,,,,,,,,,
,,,,,,,,,,,,,1,001,2025-02-05_23h24.45.006,IAT(Formal),2021.2.3,Win32,59.88023952,,,,,,,,,,,,,,,,,,,,,,,,,,,,,,,,,,,,,,,,,,,,,e,0,0.6334,0,12,12,31,1,虚伪,i,,,,,,,,,,,,
,,,,,,,,,,,,,1,001,2025-02-05_23h24.45.006,IAT(Formal),2021.2.3,Win32,59.88023952,,,,,,,,,,,,,,,,,,,,,,,,,,,,,,,,,,,,,,,,,,,,,i,0,0.7701,0,13,13,14,1,乐观,e,,,,,,,,,,,,
,,,,,,,,,,,,,1,001,2025-02-05_23h24.45.006,IAT(Formal),2021.2.3,Win32,59.88023952,,,,,,,,,,,,,,,,,,,,,,,,,,,,,,,,,,,,,,,,,,,,,e,0,0.8792,0,14,14,35,1,消极,i,,,,,,,,,,,,
,,,,,,,,,,,,,1,001,2025-02-05_23h24.45.006,IAT(Formal),2021.2.3,Win32,59.88023952,,,,,,,,,,,,,,,,,,,,,,,,,,,,,,,,,,,,,,,,,,,,,i,0,0.5703,0,15,15,22,1,无私,e,,,,,,,,,,,,
,,,,,,,,,,,,,1,001,2025-02-05_23h24.45.006,IAT(Formal),2021.2.3,Win32,59.88023952,,,,,,,,,,,,,,,,,,,,,,,,,,,,,,,,,,,,,,,,,,,,,e,0,0.8691,0,16,16,46,1,野蛮,i,,,,,,,,,,,,
,,,,,,,,,,,,,1,001,2025-02-05_23h24.45.006,IAT(Formal),2021.2.3,Win32,59.88023952,,,,,,,,,,,,,,,,,,,,,,,,,,,,,,,,,,,,,,,,,,,,,,0,,0,17,17,27,1,热情,e,,,,,,,,,,,,
,,,,,,,,,,,,,1,001,2025-02-05_23h24.45.006,IAT(Formal),2021.2.3,Win32,59.88023952,,,,,,,,,,,,,,,,,,,,,,,,,,,,,,,,,,,,,,,,,,,,,e,0,0.8065,0,18,18,51,1,我的,i,,,,,,,,,,,,
,,,,,,,,,,,,,1,001,2025-02-05_23h24.45.006,IAT(Formal),2021.2.3,Win32,59.88023952,,,,,,,,,,,,,,,,,,,,,,,,,,,,,,,,,,,,,,,,,,,,,i,0,0.551,0,19,19,75,1,他,e,,,,,,,,,,,,
,,,,,,,,,,,,,1,001,2025-02-05_23h24.45.006,IAT(Formal),2021.2.3,Win32,59.88023952,,,,,,,,,,,,,,,,,,,,,,,,,,,,,,,,,,,,,,,,,,,,,e,1,0.0168,0,20,20,65,1,他,e,,,,,,,,,,,,
,,,,,,,,,,,,,1,001,2025-02-05_23h24.45.006,IAT(Formal),2021.2.3,Win32,59.88023952,,,,,,,,,,,,,,,,,,,,,,,,,,,,,,,,,,,,,,,,,,,,,e,0,0.2709,0,21,21,41,1,散漫,i,,,,,,,,,,,,
,,,,,,,,,,,,,1,001,2025-02-05_23h24.45.006,IAT(Formal),2021.2.3,Win32,59.88023952,,,,,,,,,,,,,,,,,,,,,,,,,,,,,,,,,,,,,,,,,,,,,i,1,0.5705,0,22,22,54,1,俺,i,,,,,,,,,,,,
,,,,,,,,,,,,,1,001,2025-02-05_23h24.45.006,IAT(Formal),2021.2.3,Win32,59.88023952,,,,,,,,,,,,,,,,,,,,,,,,,,,,,,,,,,,,,,,,,,,,,i,1,0.4098,0,23,23,61,1,我的,i,,,,,,,,,,,,
,,,,,,,,,,,,,1,001,2025-02-05_23h24.45.006,IAT(Formal),2021.2.3,Win32,59.88023952,,,,,,,,,,,,,,,,,,,,,,,,,,,,,,,,,,,,,,,,,,,,,i,0,0.4706,0,24,24,11,1,崇高,e,,,,,,,,,,,,
,,,,,,,,,,,,,1,001,2025-02-05_23h24.45.006,IAT(Formal),2021.2.3,Win32,59.88023952,,,,,,,,,,,,,,,,,,,,,,,,,,,,,,,,,,,,,,,,,,,,,e,1,0.5785,0,25,25,25,1,细腻,e,,,,,,,,,,,,
,,,,,,,,,,,,,1,001,2025-02-05_23h24.45.006,IAT(Formal),2021.2.3,Win32,59.88023952,,,,,,,,,,,,,,,,,,,,,,,,,,,,,,,,,,,,,,,,,,,,,e,1,0.6697,0,26,26,29,1,诚恳,e,,,,,,,,,,,,
,,,,,,,,,,,,,1,001,2025-02-05_23h24.45.006,IAT(Formal),2021.2.3,Win32,59.88023952,,,,,,,,,,,,,,,,,,,,,,,,,,,,,,,,,,,,,,,,,,,,,i,0,0.8906,0,27,27,55,1,他,e,,,,,,,,,,,,
,,,,,,,,,,,,,1,001,2025-02-05_23h24.45.006,IAT(Formal),2021.2.3,Win32,59.88023952,,,,,,,,,,,,,,,,,,,,,,,,,,,,,,,,,,,,,,,,,,,,,e,1,0.5074,0,28,28,8,1,他人,e,,,,,,,,,,,,
,,,,,,,,,,,,,1,001,2025-02-05_23h24.45.006,IAT(Formal),2021.2.3,Win32,59.88023952,,,,,,,,,,,,,,,,,,,,,,,,,,,,,,,,,,,,,,,,,,,,,e,0,0.4652,0,29,29,74,1,俺,i,,,,,,,,,,,,
,,,,,,,,,,,,,1,001,2025-02-05_23h24.45.006,IAT(Formal),2021.2.3,Win32,59.88023952,,,,,,,,,,,,,,,,,,,,,,,,,,,,,,,,,,,,,,,,,,,,,i,0,0.2579,0,30,30,23,1,公正,e,,,,,,,,,,,,
,,,,,,,,,,,,,1,001,2025-02-05_23h24.45.006,IAT(Formal),2021.2.3,Win32,59.88023952,,,,,,,,,,,,,,,,,,,,,,,,,,,,,,,,,,,,,,,,,,,,,e,0,0.1553,0,31,31,1,1,我的,i,,,,,,,,,,,,
,,,,,,,,,,,,,1,001,2025-02-05_23h24.45.006,IAT(Formal),2021.2.3,Win32,59.88023952,,,,,,,,,,,,,,,,,,,,,,,,,,,,,,,,,,,,,,,,,,,,,i,1,0.7722,0,32,32,73,1,自己,i,,,,,,,,,,,,
,,,,,,,,,,,,,1,001,2025-02-05_23h24.45.006,IAT(Formal),2021.2.3,Win32,59.88023952,,,,,,,,,,,,,,,,,,,,,,,,,,,,,,,,,,,,,,,,,,,,,i,1,0.6263,0,33,33,72,1,我们,i,,,,,,,,,,,,
,,,,,,,,,,,,,1,001,2025-02-05_23h24.45.006,IAT(Formal),2021.2.3,Win32,59.88023952,,,,,,,,,,,,,,,,,,,,,,,,,,,,,,,,,,,,,,,,,,,,,i,1,0.7317,0,34,34,34,1,悲观,i,,,,,,,,,,,,
,,,,,,,,,,,,,1,001,2025-02-05_23h24.45.006,IAT(Formal),2021.2.3,Win32,59.88023952,,,,,,,,,,,,,,,,,,,,,,,,,,,,,,,,,,,,,,,,,,,,,i,1,0.8504,0,35,35,39,1,冒失,i,,,,,,,,,,,,
,,,,,,,,,,,,,1,001,2025-02-05_23h24.45.006,IAT(Formal),2021.2.3,Win32,59.88023952,,,,,,,,,,,,,,,,,,,,,,,,,,,,,,,,,,,,,,,,,,,,,i,1,0.6314,0,36,36,36,1,自卑,i,,,,,,,,,,,,
,,,,,,,,,,,,,1,001,2025-02-05_23h24.45.006,IAT(Formal),2021.2.3,Win32,59.88023952,,,,,,,,,,,,,,,,,,,,,,,,,,,,,,,,,,,,,,,,,,,,,e,1,1.348,0,37,37,28,1,活泼,e,,,,,,,,,,,,
,,,,,,,,,,,,,1,001,2025-02-05_23h24.45.006,IAT(Formal),2021.2.3,Win32,59.88023952,,,,,,,,,,,,,,,,,,,,,,,,,,,,,,,,,,,,,,,,,,,,,i,1,0.8017,0,38,38,33,1,刻薄,i,,,,,,,,,,,,
,,,,,,,,,,,,,1,001,2025-02-05_23h24.45.006,IAT(Formal),2021.2.3,Win32,59.88023952,,,,,,,,,,,,,,,,,,,,,,,,,,,,,,,,,,,,,,,,,,,,,i,1,0.7038,0,39,39,70,1,我,i,,,,,,,,,,,,
,,,,,,,,,,,,,1,001,2025-02-05_23h24.45.006,IAT(Formal),2021.2.3,Win32,59.88023952,,,,,,,,,,,,,,,,,,,,,,,,,,,,,,,,,,,,,,,,,,,,,e,1,0.8194,0,40,40,19,1,机智,e,,,,,,,,,,,,
,,,,,,,,,,,,,1,001,2025-02-05_23h24.45.006,IAT(Formal),2021.2.3,Win32,59.88023952,,,,,,,,,,,,,,,,,,,,,,,,,,,,,,,,,,,,,,,,,,,,,i,1,0.6027,0,41,41,52,1,我们,i,,,,,,,,,,,,
,,,,,,,,,,,,,1,001,2025-02-05_23h24.45.006,IAT(Formal),2021.2.3,Win32,59.88023952,,,,,,,,,,,,,,,,,,,,,,,,,,,,,,,,,,,,,,,,,,,,,i,1,0.5316,0,42,42,4,1,俺,i,,,,,,,,,,,,
,,,,,,,,,,,,,1,001,2025-02-05_23h24.45.006,IAT(Formal),2021.2.3,Win32,59.88023952,,,,,,,,,,,,,,,,,,,,,,,,,,,,,,,,,,,,,,,,,,,,,e,1,0.7147,0,43,43,66,1,他们,e,,,,,,,,,,,,
,,,,,,,,,,,,,1,001,2025-02-05_23h24.45.006,IAT(Formal),2021.2.3,Win32,59.88023952,,,,,,,,,,,,,,,,,,,,,,,,,,,,,,,,,,,,,,,,,,,,,e,1,0.6535,0,44,44,77,1,他的,e,,,,,,,,,,,,
,,,,,,,,,,,,,1,001,2025-02-05_23h24.45.006,IAT(Formal),2021.2.3,Win32,59.88023952,,,,,,,,,,,,,,,,,,,,,,,,,,,,,,,,,,,,,,,,,,,,,i,0,1.2662,0,45,45,16,1,正直,e,,,,,,,,,,,,
,,,,,,,,,,,,,1,001,2025-02-05_23h24.45.006,IAT(Formal),2021.2.3,Win32,59.88023952,,,,,,,,,,,,,,,,,,,,,,,,,,,,,,,,,,,,,,,,,,,,,e,0,0.8766,0,46,46,49,1,下贱,i,,,,,,,,,,,,
,,,,,,,,,,,,,1,001,2025-02-05_23h24.45.006,IAT(Formal),2021.2.3,Win32,59.88023952,,,,,,,,,,,,,,,,,,,,,,,,,,,,,,,,,,,,,,,,,,,,,,0,,0,47,47,9,1,其他,e,,,,,,,,,,,,
,,,,,,,,,,,,,1,001,2025-02-05_23h24.45.006,IAT(Formal),2021.2.3,Win32,59.88023952,,,,,,,,,,,,,,,,,,,,,,,,,,,,,,,,,,,,,,,,,,,,,i,1,1.2656,0,48,48,45,1,猖狂,i,,,,,,,,,,,,
,,,,,,,,,,,,,1,001,2025-02-05_23h24.45.006,IAT(Formal),2021.2.3,Win32,59.88023952,,,,,,,,,,,,,,,,,,,,,,,,,,,,,,,,,,,,,,,,,,,,,i,1,0.5324,0,49,49,42,1,凶狠,i,,,,,,,,,,,,
,,,,,,,,,,,,,1,001,2025-02-05_23h24.45.006,IAT(Formal),2021.2.3,Win32,59.88023952,,,,,,,,,,,,,,,,,,,,,,,,,,,,,,,,,,,,,,,,,,,,,i,1,0.5252,0,50,50,44,1,暴躁,i,,,,,,,,,,,,
,,,,,,,,,,,,,1,001,2025-02-05_23h24.45.006,IAT(Formal),2021.2.3,Win32,59.88023952,,,,,,,,,,,,,,,,,,,,,,,,,,,,,,,,,,,,,,,,,,,,,e,1,0.928,0,51,51,58,1,他人,e,,,,,,,,,,,,
,,,,,,,,,,,,,1,001,2025-02-05_23h24.45.006,IAT(Formal),2021.2.3,Win32,59.88023952,,,,,,,,,,,,,,,,,,,,,,,,,,,,,,,,,,,,,,,,,,,,,i,1,0.656,0,52,52,62,1,我们,i,,,,,,,,,,,,
,,,,,,,,,,,,,1,001,2025-02-05_23h24.45.006,IAT(Formal),2021.2.3,Win32,59.88023952,,,,,,,,,,,,,,,,,,,,,,,,,,,,,,,,,,,,,,,,,,,,,,0,,0,53,53,18,1,勤奋,e,,,,,,,,,,,,
,,,,,,,,,,,,,1,001,2025-02-05_23h24.45.006,IAT(Formal),2021.2.3,Win32,59.88023952,,,,,,,,,,,,,,,,,,,,,,,,,,,,,,,,,,,,,,,,,,,,,i,1,0.658,0,54,54,30,1,卑鄙,i,,,,,,,,,,,,
,,,,,,,,,,,,,1,001,2025-02-05_23h24.45.006,IAT(Formal),2021.2.3,Win32,59.88023952,,,,,,,,,,,,,,,,,,,,,,,,,,,,,,,,,,,,,,,,,,,,,e,1,0.7847,0,55,55,5,1,他,e,,,,,,,,,,,,
,,,,,,,,,,,,,1,001,2025-02-05_23h24.45.006,IAT(Formal),2021.2.3,Win32,59.88023952,,,,,,,,,,,,,,,,,,,,,,,,,,,,,,,,,,,,,,,,,,,,,i,0,0.8951,0,56,56,59,1,其他,e,,,,,,,,,,,,
,,,,,,,,,,,,,1,001,2025-02-05_23h24.45.006,IAT(Formal),2021.2.3,Win32,59.88023952,,,,,,,,,,,,,,,,,,,,,,,,,,,,,,,,,,,,,,,,,,,,,i,1,0.7993,0,57,57,63,1,自己,i,,,,,,,,,,,,
,,,,,,,,,,,,,1,001,2025-02-05_23h24.45.006,IAT(Formal),2021.2.3,Win32,59.88023952,,,,,,,,,,,,,,,,,,,,,,,,,,,,,,,,,,,,,,,,,,,,,e,0,0.7817,0,58,58,40,1,执拗,i,,,,,,,,,,,,
,,,,,,,,,,,,,1,001,2025-02-05_23h24.45.006,IAT(Formal),2021.2.3,Win32,59.88023952,,,,,,,,,,,,,,,,,,,,,,,,,,,,,,,,,,,,,,,,,,,,,i,1,0.0653,0,59,59,60,1,我,i,,,,,,,,,,,,
,,,,,,,,,,,,,1,001,2025-02-05_23h24.45.006,IAT(Formal),2021.2.3,Win32,59.88023952,,,,,,,,,,,,,,,,,,,,,,,,,,,,,,,,,,,,,,,,,,,,,i,0,0.8168,0,60,60,21,1,稳重,e,,,,,,,,,,,,
,,,,,,,,,,,,,1,001,2025-02-05_23h24.45.006,IAT(Formal),2021.2.3,Win32,59.88023952,,,,,,,,,,,,,,,,,,,,,,,,,,,,,,,,,,,,,,,,,,,,,e,1,0.7342,0,61,61,17,1,勇敢,e,,,,,,,,,,,,
,,,,,,,,,,,,,1,001,2025-02-05_23h24.45.006,IAT(Formal),2021.2.3,Win32,59.88023952,,,,,,,,,,,,,,,,,,,,,,,,,,,,,,,,,,,,,,,,,,,,,i,1,0.9948,0,62,62,2,1,我们,i,,,,,,,,,,,,
,,,,,,,,,,,,,1,001,2025-02-05_23h24.45.006,IAT(Formal),2021.2.3,Win32,59.88023952,,,,,,,,,,,,,,,,,,,,,,,,,,,,,,,,,,,,,,,,,,,,,e,1,1.0545,0,63,63,13,1,杰出,e,,,,,,,,,,,,
,,,,,,,,,,,,,1,001,2025-02-05_23h24.45.006,IAT(Formal),2021.2.3,Win32,59.88023952,,,,,,,,,,,,,,,,,,,,,,,,,,,,,,,,,,,,,,,,,,,,,i,1,0.5464,0,64,64,53,1,自己,i,,,,,,,,,,,,
,,,,,,,,,,,,,1,001,2025-02-05_23h24.45.006,IAT(Formal),2021.2.3,Win32,59.88023952,,,,,,,,,,,,,,,,,,,,,,,,,,,,,,,,,,,,,,,,,,,,,i,1,0.5038,0,65,65,64,1,俺,i,,,,,,,,,,,,
,,,,,,,,,,,,,1,001,2025-02-05_23h24.45.006,IAT(Formal),2021.2.3,Win32,59.88023952,,,,,,,,,,,,,,,,,,,,,,,,,,,,,,,,,,,,,,,,,,,,,e,0,0.6585,0,66,66,48,1,轻率,i,,,,,,,,,,,,
,,,,,,,,,,,,,1,001,2025-02-05_23h24.45.006,IAT(Formal),2021.2.3,Win32,59.88023952,,,,,,,,,,,,,,,,,,,,,,,,,,,,,,,,,,,,,,,,,,,,,e,1,1.0349,0,67,67,7,1,他的,e,,,,,,,,,,,,
,,,,,,,,,,,,,1,001,2025-02-05_23h24.45.006,IAT(Formal),2021.2.3,Win32,59.88023952,,,,,,,,,,,,,,,,,,,,,,,,,,,,,,,,,,,,,,,,,,,,,i,1,0.5939,0,68,68,71,1,我的,i,,,,,,,,,,,,
,,,,,,,,,,,,,1,001,2025-02-05_23h24.45.006,IAT(Formal),2021.2.3,Win32,59.88023952,,,,,,,,,,,,,,,,,,,,,,,,,,,,,,,,,,,,,,,,,,,,,i,1,0.928,0,69,69,38,1,鲁莽,i,,,,,,,,,,,,
,,,,,,,,,,,,,1,001,2025-02-05_23h24.45.006,IAT(Formal),2021.2.3,Win32,59.88023952,,,,,,,,,,,,,,,,,,,,,,,,,,,,,,,,,,,,,,,,,,,,,e,1,0.7612,0,70,70,57,1,他的,e,,,,,,,,,,,,
,,,,,,,,,,,,,1,001,2025-02-05_23h24.45.006,IAT(Formal),2021.2.3,Win32,59.88023952,,,,,,,,,,,,,,,,,,,,,,,,,,,,,,,,,,,,,,,,,,,,,e,1,0.716,0,71,71,79,1,其他,e,,,,,,,,,,,,
,,,,,,,,,,,,,1,001,2025-02-05_23h24.45.006,IAT(Formal),2021.2.3,Win32,59.88023952,,,,,,,,,,,,,,,,,,,,,,,,,,,,,,,,,,,,,,,,,,,,,e,0,0.9033,0,72,72,43,1,自私,i,,,,,,,,,,,,
,,,,,,,,,,,,,1,001,2025-02-05_23h24.45.006,IAT(Formal),2021.2.3,Win32,59.88023952,,,,,,,,,,,,,,,,,,,,,,,,,,,,,,,,,,,,,,,,,,,,,i,1,0.7705,0,73,73,50,1,我,i,,,,,,,,,,,,
,,,,,,,,,,,,,1,001,2025-02-05_23h24.45.006,IAT(Formal),2021.2.3,Win32,59.88023952,,,,,,,,,,,,,,,,,,,,,,,,,,,,,,,,,,,,,,,,,,,,,e,1,0.6035,0,74,74,6,1,他们,e,,,,,,,,,,,,
,,,,,,,,,,,,,1,001,2025-02-05_23h24.45.006,IAT(Formal),2021.2.3,Win32,59.88023952,,,,,,,,,,,,,,,,,,,,,,,,,,,,,,,,,,,,,,,,,,,,,i,0,0.5,0,75,75,67,1,他的,e,,,,,,,,,,,,
,,,,,,,,,,,,,1,001,2025-02-05_23h24.45.006,IAT(Formal),2021.2.3,Win32,59.88023952,,,,,,,,,,,,,,,,,,,,,,,,,,,,,,,,,,,,,,,,,,,,,i,1,1.4207,0,76,76,37,1,傲慢,i,,,,,,,,,,,,
,,,,,,,,,,,,,1,001,2025-02-05_23h24.45.006,IAT(Formal),2021.2.3,Win32,59.88023952,,,,,,,,,,,,,,,,,,,,,,,,,,,,,,,,,,,,,,,,,,,,,i,0,0.6489,0,77,77,20,1,认真,e,,,,,,,,,,,,
,,,,,,,,,,,,,1,001,2025-02-05_23h24.45.006,IAT(Formal),2021.2.3,Win32,59.88023952,,,,,,,,,,,,,,,,,,,,,,,,,,,,,,,,,,,,,,,,,,,,,e,0,0.9538,0,78,78,47,1,固执,i,,,,,,,,,,,,
,,,,,,,,,,,,,1,001,2025-02-05_23h24.45.006,IAT(Formal),2021.2.3,Win32,59.88023952,,,,,,,,,,,,,,,,,,,,,,,,,,,,,,,,,,,,,,,,,,,,,i,0,0.4663,0,79,79,24,1,朴实,e,,,,,,,,,,,,
,,,,,,,,,,,,,1,001,2025-02-05_23h24.45.006,IAT(Formal),2021.2.3,Win32,59.88023952,,,,,,,,,,,,,,,,,,,,,,,,,,,,,,,,,,,,,,,,,,,,,,,,,,,,,我的,i,space,54.0044,i,1,0.8652,0,0,0,51,1,,
,,,,,,,,,,,,,1,001,2025-02-05_23h24.45.006,IAT(Formal),2021.2.3,Win32,59.88023952,,,,,,,,,,,,,,,,,,,,,,,,,,,,,,,,,,,,,,,,,,,,,,,,,,,,,稳重,e,,,,0,,0,1,1,21,1,,
,,,,,,,,,,,,,1,001,2025-02-05_23h24.45.006,IAT(Formal),2021.2.3,Win32,59.88023952,,,,,,,,,,,,,,,,,,,,,,,,,,,,,,,,,,,,,,,,,,,,,,,,,,,,,俺,i,,,i,1,0.6585,0,2,2,64,1,,
,,,,,,,,,,,,,1,001,2025-02-05_23h24.45.006,IAT(Formal),2021.2.3,Win32,59.88023952,,,,,,,,,,,,,,,,,,,,,,,,,,,,,,,,,,,,,,,,,,,,,,,,,,,,,固执,i,,,i,1,0.6756,0,3,3,47,1,,
,,,,,,,,,,,,,1,001,2025-02-05_23h24.45.006,IAT(Formal),2021.2.3,Win32,59.88023952,,,,,,,,,,,,,,,,,,,,,,,,,,,,,,,,,,,,,,,,,,,,,,,,,,,,,我们,i,,,i,1,0.8153,0,4,4,62,1,,
,,,,,,,,,,,,,1,001,2025-02-05_23h24.45.006,IAT(Formal),2021.2.3,Win32,59.88023952,,,,,,,,,,,,,,,,,,,,,,,,,,,,,,,,,,,,,,,,,,,,,,,,,,,,,他们,e,,,e,1,0.6577,0,5,5,66,1,,
,,,,,,,,,,,,,1,001,2025-02-05_23h24.45.006,IAT(Formal),2021.2.3,Win32,59.88023952,,,,,,,,,,,,,,,,,,,,,,,,,,,,,,,,,,,,,,,,,,,,,,,,,,,,,无私,e,,,e,1,0.6269,0,6,6,22,1,,
,,,,,,,,,,,,,1,001,2025-02-05_23h24.45.006,IAT(Formal),2021.2.3,Win32,59.88023952,,,,,,,,,,,,,,,,,,,,,,,,,,,,,,,,,,,,,,,,,,,,,,,,,,,,,他的,e,,,e,1,0.7157,0,7,7,57,1,,
,,,,,,,,,,,,,1,001,2025-02-05_23h24.45.006,IAT(Formal),2021.2.3,Win32,59.88023952,,,,,,,,,,,,,,,,,,,,,,,,,,,,,,,,,,,,,,,,,,,,,,,,,,,,,愚蠢,i,,,i,1,0.7275,0,8,8,32,1,,
,,,,,,,,,,,,,1,001,2025-02-05_23h24.45.006,IAT(Formal),2021.2.3,Win32,59.88023952,,,,,,,,,,,,,,,,,,,,,,,,,,,,,,,,,,,,,,,,,,,,,,,,,,,,,他们,e,,,e,1,0.6375,0,9,9,56,1,,
,,,,,,,,,,,,,1,001,2025-02-05_23h24.45.006,IAT(Formal),2021.2.3,Win32,59.88023952,,,,,,,,,,,,,,,,,,,,,,,,,,,,,,,,,,,,,,,,,,,,,,,,,,,,,我的,i,,,i,1,0.6819,0,10,10,71,1,,
,,,,,,,,,,,,,1,001,2025-02-05_23h24.45.006,IAT(Formal),2021.2.3,Win32,59.88023952,,,,,,,,,,,,,,,,,,,,,,,,,,,,,,,,,,,,,,,,,,,,,,,,,,,,,聪明,e,,,e,1,0.6721,0,11,11,12,1,,
,,,,,,,,,,,,,1,001,2025-02-05_23h24.45.006,IAT(Formal),2021.2.3,Win32,59.88023952,,,,,,,,,,,,,,,,,,,,,,,,,,,,,,,,,,,,,,,,,,,,,,,,,,,,,其他,e,,,i,0,0.7309,0,12,12,9,1,,
,,,,,,,,,,,,,1,001,2025-02-05_23h24.45.006,IAT(Formal),2021.2.3,Win32,59.88023952,,,,,,,,,,,,,,,,,,,,,,,,,,,,,,,,,,,,,,,,,,,,,,,,,,,,,猖狂,i,,,e,0,0.8677,0,13,13,45,1,,
,,,,,,,,,,,,,1,001,2025-02-05_23h24.45.006,IAT(Formal),2021.2.3,Win32,59.88023952,,,,,,,,,,,,,,,,,,,,,,,,,,,,,,,,,,,,,,,,,,,,,,,,,,,,,自己,i,,,i,1,0.6412,0,14,14,53,1,,
,,,,,,,,,,,,,1,001,2025-02-05_23h24.45.006,IAT(Formal),2021.2.3,Win32,59.88023952,,,,,,,,,,,,,,,,,,,,,,,,,,,,,,,,,,,,,,,,,,,,,,,,,,,,,其他,e,,,e,1,1.3866,0,15,15,59,1,,
,,,,,,,,,,,,,1,001,2025-02-05_23h24.45.006,IAT(Formal),2021.2.3,Win32,59.88023952,,,,,,,,,,,,,,,,,,,,,,,,,,,,,,,,,,,,,,,,,,,,,,,,,,,,,他人,e,,,e,1,0.6565,0,16,16,68,1,,
,,,,,,,,,,,,,1,001,2025-02-05_23h24.45.006,IAT(Formal),2021.2.3,Win32,59.88023952,,,,,,,,,,,,,,,,,,,,,,,,,,,,,,,,,,,,,,,,,,,,,,,,,,,,,公正,e,,,i,0,0.8046,0,17,17,23,1,,
,,,,,,,,,,,,,1,001,2025-02-05_23h24.45.006,IAT(Formal),2021.2.3,Win32,59.88023952,,,,,,,,,,,,,,,,,,,,,,,,,,,,,,,,,,,,,,,,,,,,,,,,,,,,,正直,e,,,e,1,1.34,0,18,18,16,1,,
,,,,,,,,,,,,,1,001,2025-02-05_23h24.45.006,IAT(Formal),2021.2.3,Win32,59.88023952,,,,,,,,,,,,,,,,,,,,,,,,,,,,,,,,,,,,,,,,,,,,,,,,,,,,,野蛮,i,,,i,1,0.6728,0,19,19,46,1,,
,,,,,,,,,,,,,1,001,2025-02-05_23h24.45.006,IAT(Formal),2021.2.3,Win32,59.88023952,,,,,,,,,,,,,,,,,,,,,,,,,,,,,,,,,,,,,,,,,,,,,,,,,,,,,我们,i,,,i,1,0.5499,0,20,20,2,1,,
,,,,,,,,,,,,,1,001,2025-02-05_23h24.45.006,IAT(Formal),2021.2.3,Win32,59.88023952,,,,,,,,,,,,,,,,,,,,,,,,,,,,,,,,,,,,,,,,,,,,,,,,,,,,,执拗,i,,,e,0,0.7612,0,21,21,40,1,,
,,,,,,,,,,,,,1,001,2025-02-05_23h24.45.006,IAT(Formal),2021.2.3,Win32,59.88023952,,,,,,,,,,,,,,,,,,,,,,,,,,,,,,,,,,,,,,,,,,,,,,,,,,,,,活泼,e,,,e,1,1.0595,0,22,22,28,1,,
,,,,,,,,,,,,,1,001,2025-02-05_23h24.45.006,IAT(Formal),2021.2.3,Win32,59.88023952,,,,,,,,,,,,,,,,,,,,,,,,,,,,,,,,,,,,,,,,,,,,,,,,,,,,,诚实,e,,,e,1,0.5526,0,23,23,15,1,,
,,,,,,,,,,,,,1,001,2025-02-05_23h24.45.006,IAT(Formal),2021.2.3,Win32,59.88023952,,,,,,,,,,,,,,,,,,,,,,,,,,,,,,,,,,,,,,,,,,,,,,,,,,,,,其他,e,,,i,0,0.911,0,24,24,69,1,,
,,,,,,,,,,,,,1,001,2025-02-05_23h24.45.006,IAT(Formal),2021.2.3,Win32,59.88023952,,,,,,,,,,,,,,,,,,,,,,,,,,,,,,,,,,,,,,,,,,,,,,,,,,,,,自卑,i,,,e,0,0.5723,0,25,25,36,1,,
,,,,,,,,,,,,,1,001,2025-02-05_23h24.45.006,IAT(Formal),2021.2.3,Win32,59.88023952,,,,,,,,,,,,,,,,,,,,,,,,,,,,,,,,,,,,,,,,,,,,,,,,,,,,,他人,e,,,e,1,0.8401,0,26,26,58,1,,
,,,,,,,,,,,,,1,001,2025-02-05_23h24.45.006,IAT(Formal),2021.2.3,Win32,59.88023952,,,,,,,,,,,,,,,,,,,,,,,,,,,,,,,,,,,,,,,,,,,,,,,,,,,,,乐观,e,,,e,1,0.6228,0,27,27,14,1,,
,,,,,,,,,,,,,1,001,2025-02-05_23h24.45.006,IAT(Formal),2021.2.3,Win32,59.88023952,,,,,,,,,,,,,,,,,,,,,,,,,,,,,,,,,,,,,,,,,,,,,,,,,,,,,暴躁,i,,,i,1,0.6165,0,28,28,44,1,,
,,,,,,,,,,,,,1,001,2025-02-05_23h24.45.006,IAT(Formal),2021.2.3,Win32,59.88023952,,,,,,,,,,,,,,,,,,,,,,,,,,,,,,,,,,,,,,,,,,,,,,,,,,,,,自己,i,,,i,1,0.6818,0,29,29,3,1,,
,,,,,,,,,,,,,1,001,2025-02-05_23h24.45.006,IAT(Formal),2021.2.3,Win32,59.88023952,,,,,,,,,,,,,,,,,,,,,,,,,,,,,,,,,,,,,,,,,,,,,,,,,,,,,散漫,i,,,i,1,0.6084,0,30,30,41,1,,
,,,,,,,,,,,,,1,001,2025-02-05_23h24.45.006,IAT(Formal),2021.2.3,Win32,59.88023952,,,,,,,,,,,,,,,,,,,,,,,,,,,,,,,,,,,,,,,,,,,,,,,,,,,,,细腻,e,,,e,1,0.7862,0,31,31,25,1,,
,,,,,,,,,,,,,1,001,2025-02-05_23h24.45.006,IAT(Formal),2021.2.3,Win32,59.88023952,,,,,,,,,,,,,,,,,,,,,,,,,,,,,,,,,,,,,,,,,,,,,,,,,,,,,我,i,,,i,1,0.6137,0,32,32,60,1,,
,,,,,,,,,,,,,1,001,2025-02-05_23h24.45.006,IAT(Formal),2021.2.3,Win32,59.88023952,,,,,,,,,,,,,,,,,,,,,,,,,,,,,,,,,,,,,,,,,,,,,,,,,,,,,他的,e,,,e,1,0.716,0,33,33,7,1,,
,,,,,,,,,,,,,1,001,2025-02-05_23h24.45.006,IAT(Formal),2021.2.3,Win32,59.88023952,,,,,,,,,,,,,,,,,,,,,,,,,,,,,,,,,,,,,,,,,,,,,,,,,,,,,俺,i,,,i,1,0.6749,0,34,34,4,1,,
,,,,,,,,,,,,,1,001,2025-02-05_23h24.45.006,IAT(Formal),2021.2.3,Win32,59.88023952,,,,,,,,,,,,,,,,,,,,,,,,,,,,,,,,,,,,,,,,,,,,,,,,,,,,,他们,e,,,e,1,0.6793,0,35,35,6,1,,
,,,,,,,,,,,,,1,001,2025-02-05_23h24.45.006,IAT(Formal),2021.2.3,Win32,59.88023952,,,,,,,,,,,,,,,,,,,,,,,,,,,,,,,,,,,,,,,,,,,,,,,,,,,,,消极,i,,,e,0,0.9985,0,36,36,35,1,,
,,,,,,,,,,,,,1,001,2025-02-05_23h24.45.006,IAT(Formal),2021.2.3,Win32,59.88023952,,,,,,,,,,,,,,,,,,,,,,,,,,,,,,,,,,,,,,,,,,,,,,,,,,,,,我,i,,,i,1,0.4494,0,37,37,0,1,,
,,,,,,,,,,,,,1,001,2025-02-05_23h24.45.006,IAT(Formal),2021.2.3,Win32,59.88023952,,,,,,,,,,,,,,,,,,,,,,,,,,,,,,,,,,,,,,,,,,,,,,,,,,,,,杰出,e,,,e,1,1.2456,0,38,38,13,1,,
,,,,,,,,,,,,,1,001,2025-02-05_23h24.45.006,IAT(Formal),2021.2.3,Win32,59.88023952,,,,,,,,,,,,,,,,,,,,,,,,,,,,,,,,,,,,,,,,,,,,,,,,,,,,,傲慢,i,,,i,1,0.7159,0,39,39,37,1,,
,,,,,,,,,,,,,1,001,2025-02-05_23h24.45.006,IAT(Formal),2021.2.3,Win32,59.88023952,,,,,,,,,,,,,,,,,,,,,,,,,,,,,,,,,,,,,,,,,,,,,,,,,,,,,他人,e,,,e,1,0.5061,0,40,40,8,1,,
,,,,,,,,,,,,,1,001,2025-02-05_23h24.45.006,IAT(Formal),2021.2.3,Win32,59.88023952,,,,,,,,,,,,,,,,,,,,,,,,,,,,,,,,,,,,,,,,,,,,,,,,,,,,,他的,e,,,i,0,0.4629,0,41,41,67,1,,
,,,,,,,,,,,,,1,001,2025-02-05_23h24.45.006,IAT(Formal),2021.2.3,Win32,59.88023952,,,,,,,,,,,,,,,,,,,,,,,,,,,,,,,,,,,,,,,,,,,,,,,,,,,,,悲观,i,,,,0,,0,42,42,34,1,,
,,,,,,,,,,,,,1,001,2025-02-05_23h24.45.006,IAT(Formal),2021.2.3,Win32,59.88023952,,,,,,,,,,,,,,,,,,,,,,,,,,,,,,,,,,,,,,,,,,,,,,,,,,,,,他,e,,,e,1,0.6732,0,43,43,5,1,,
,,,,,,,,,,,,,1,001,2025-02-05_23h24.45.006,IAT(Formal),2021.2.3,Win32,59.88023952,,,,,,,,,,,,,,,,,,,,,,,,,,,,,,,,,,,,,,,,,,,,,,,,,,,,,俺,i,,,i,1,0.7266,0,44,44,74,1,,
,,,,,,,,,,,,,1,001,2025-02-05_23h24.45.006,IAT(Formal),2021.2.3,Win32,59.88023952,,,,,,,,,,,,,,,,,,,,,,,,,,,,,,,,,,,,,,,,,,,,,,,,,,,,,我的,i,,,i,1,0.6484,0,45,45,61,1,,
,,,,,,,,,,,,,1,001,2025-02-05_23h24.45.006,IAT(Formal),2021.2.3,Win32,59.88023952,,,,,,,,,,,,,,,,,,,,,,,,,,,,,,,,,,,,,,,,,,,,,,,,,,,,,我们,i,,,i,1,0.6123,0,46,46,52,1,,
,,,,,,,,,,,,,1,001,2025-02-05_23h24.45.006,IAT(Formal),2021.2.3,Win32,59.88023952,,,,,,,,,,,,,,,,,,,,,,,,,,,,,,,,,,,,,,,,,,,,,,,,,,,,,崇高,e,,,e,1,0.8698,0,47,47,11,1,,
,,,,,,,,,,,,,1,001,2025-02-05_23h24.45.006,IAT(Formal),2021.2.3,Win32,59.88023952,,,,,,,,,,,,,,,,,,,,,,,,,,,,,,,,,,,,,,,,,,,,,,,,,,,,,刻薄,i,,,i,1,0.6194,0,48,48,33,1,,
,,,,,,,,,,,,,1,001,2025-02-05_23h24.45.006,IAT(Formal),2021.2.3,Win32,59.88023952,,,,,,,,,,,,,,,,,,,,,,,,,,,,,,,,,,,,,,,,,,,,,,,,,,,,,他,e,,,e,1,0.5465,0,49,49,65,1,,
,,,,,,,,,,,,,1,001,2025-02-05_23h24.45.006,IAT(Formal),2021.2.3,Win32,59.88023952,,,,,,,,,,,,,,,,,,,,,,,,,,,,,,,,,,,,,,,,,,,,,,,,,,,,,机智,e,,,e,1,0.5924,0,50,50,19,1,,
,,,,,,,,,,,,,1,001,2025-02-05_23h24.45.006,IAT(Formal),2021.2.3,Win32,59.88023952,,,,,,,,,,,,,,,,,,,,,,,,,,,,,,,,,,,,,,,,,,,,,,,,,,,,,我们,i,,,i,1,0.5371,0,51,51,72,1,,
,,,,,,,,,,,,,1,001,2025-02-05_23h24.45.006,IAT(Formal),2021.2.3,Win32,59.88023952,,,,,,,,,,,,,,,,,,,,,,,,,,,,,,,,,,,,,,,,,,,,,,,,,,,,,冷静,e,,,e,1,1.0156,0,52,52,26,1,,
,,,,,,,,,,,,,1,001,2025-02-05_23h24.45.006,IAT(Formal),2021.2.3,Win32,59.88023952,,,,,,,,,,,,,,,,,,,,,,,,,,,,,,,,,,,,,,,,,,,,,,,,,,,,,自私,i,,,i,1,1.0329,0,53,53,43,1,,
,,,,,,,,,,,,,1,001,2025-02-05_23h24.45.006,IAT(Formal),2021.2.3,Win32,59.88023952,,,,,,,,,,,,,,,,,,,,,,,,,,,,,,,,,,,,,,,,,,,,,,,,,,,,,他的,e,,,e,1,0.9991,0,54,54,77,1,,
,,,,,,,,,,,,,1,001,2025-02-05_23h24.45.006,IAT(Formal),2021.2.3,Win32,59.88023952,,,,,,,,,,,,,,,,,,,,,,,,,,,,,,,,,,,,,,,,,,,,,,,,,,,,,自己,i,,,i,1,0.6019,0,55,55,63,1,,
,,,,,,,,,,,,,1,001,2025-02-05_23h24.45.006,IAT(Formal),2021.2.3,Win32,59.88023952,,,,,,,,,,,,,,,,,,,,,,,,,,,,,,,,,,,,,,,,,,,,,,,,,,,,,凶狠,i,,,i,1,1.449,0,56,56,42,1,,
,,,,,,,,,,,,,1,001,2025-02-05_23h24.45.006,IAT(Formal),2021.2.3,Win32,59.88023952,,,,,,,,,,,,,,,,,,,,,,,,,,,,,,,,,,,,,,,,,,,,,,,,,,,,,认真,e,,,e,1,0.5695,0,57,57,20,1,,
,,,,,,,,,,,,,1,001,2025-02-05_23h24.45.006,IAT(Formal),2021.2.3,Win32,59.88023952,,,,,,,,,,,,,,,,,,,,,,,,,,,,,,,,,,,,,,,,,,,,,,,,,,,,,冒失,i,,,i,1,0.9811,0,58,58,39,1,,
,,,,,,,,,,,,,1,001,2025-02-05_23h24.45.006,IAT(Formal),2021.2.3,Win32,59.88023952,,,,,,,,,,,,,,,,,,,,,,,,,,,,,,,,,,,,,,,,,,,,,,,,,,,,,我的,i,,,i,1,0.6754,0,59,59,1,1,,
,,,,,,,,,,,,,1,001,2025-02-05_23h24.45.006,IAT(Formal),2021.2.3,Win32,59.88023952,,,,,,,,,,,,,,,,,,,,,,,,,,,,,,,,,,,,,,,,,,,,,,,,,,,,,他,e,,,e,1,0.6842,0,60,60,55,1,,
,,,,,,,,,,,,,1,001,2025-02-05_23h24.45.006,IAT(Formal),2021.2.3,Win32,59.88023952,,,,,,,,,,,,,,,,,,,,,,,,,,,,,,,,,,,,,,,,,,,,,,,,,,,,,诚恳,e,,,i,0,0.9311,0,61,61,29,1,,
,,,,,,,,,,,,,1,001,2025-02-05_23h24.45.006,IAT(Formal),2021.2.3,Win32,59.88023952,,,,,,,,,,,,,,,,,,,,,,,,,,,,,,,,,,,,,,,,,,,,,,,,,,,,,我,i,,,i,1,0.5918,0,62,62,70,1,,
,,,,,,,,,,,,,1,001,2025-02-05_23h24.45.006,IAT(Formal),2021.2.3,Win32,59.88023952,,,,,,,,,,,,,,,,,,,,,,,,,,,,,,,,,,,,,,,,,,,,,,,,,,,,,俺,i,,,i,1,0.5572,0,63,63,54,1,,
,,,,,,,,,,,,,1,001,2025-02-05_23h24.45.006,IAT(Formal),2021.2.3,Win32,59.88023952,,,,,,,,,,,,,,,,,,,,,,,,,,,,,,,,,,,,,,,,,,,,,,,,,,,,,虚伪,i,,,e,0,0.6199,0,64,64,31,1,,
,,,,,,,,,,,,,1,001,2025-02-05_23h24.45.006,IAT(Formal),2021.2.3,Win32,59.88023952,,,,,,,,,,,,,,,,,,,,,,,,,,,,,,,,,,,,,,,,,,,,,,,,,,,,,勤奋,e,,,e,1,1.3847,0,65,65,18,1,,
,,,,,,,,,,,,,1,001,2025-02-05_23h24.45.006,IAT(Formal),2021.2.3,Win32,59.88023952,,,,,,,,,,,,,,,,,,,,,,,,,,,,,,,,,,,,,,,,,,,,,,,,,,,,,我,i,,,i,1,0.5608,0,66,66,50,1,,
,,,,,,,,,,,,,1,001,2025-02-05_23h24.45.006,IAT(Formal),2021.2.3,Win32,59.88023952,,,,,,,,,,,,,,,,,,,,,,,,,,,,,,,,,,,,,,,,,,,,,,,,,,,,,他们,e,,,e,1,0.5187,0,67,67,76,1,,
,,,,,,,,,,,,,1,001,2025-02-05_23h24.45.006,IAT(Formal),2021.2.3,Win32,59.88023952,,,,,,,,,,,,,,,,,,,,,,,,,,,,,,,,,,,,,,,,,,,,,,,,,,,,,自己,i,,,i,1,0.4662,0,68,68,73,1,,
,,,,,,,,,,,,,1,001,2025-02-05_23h24.45.006,IAT(Formal),2021.2.3,Win32,59.88023952,,,,,,,,,,,,,,,,,,,,,,,,,,,,,,,,,,,,,,,,,,,,,,,,,,,,,勇敢,e,,,i,0,0.5452,0,69,69,17,1,,
,,,,,,,,,,,,,1,001,2025-02-05_23h24.45.006,IAT(Formal),2021.2.3,Win32,59.88023952,,,,,,,,,,,,,,,,,,,,,,,,,,,,,,,,,,,,,,,,,,,,,,,,,,,,,他人,e,,,e,1,1.0736,0,70,70,78,1,,
,,,,,,,,,,,,,1,001,2025-02-05_23h24.45.006,IAT(Formal),2021.2.3,Win32,59.88023952,,,,,,,,,,,,,,,,,,,,,,,,,,,,,,,,,,,,,,,,,,,,,,,,,,,,,轻率,i,,,i,1,0.8991,0,71,71,48,1,,
,,,,,,,,,,,,,1,001,2025-02-05_23h24.45.006,IAT(Formal),2021.2.3,Win32,59.88023952,,,,,,,,,,,,,,,,,,,,,,,,,,,,,,,,,,,,,,,,,,,,,,,,,,,,,卑鄙,i,,,e,0,0.7907,0,72,72,30,1,,
,,,,,,,,,,,,,1,001,2025-02-05_23h24.45.006,IAT(Formal),2021.2.3,Win32,59.88023952,,,,,,,,,,,,,,,,,,,,,,,,,,,,,,,,,,,,,,,,,,,,,,,,,,,,,热情,e,,,i,0,0.8153,0,73,73,27,1,,
,,,,,,,,,,,,,1,001,2025-02-05_23h24.45.006,IAT(Formal),2021.2.3,Win32,59.88023952,,,,,,,,,,,,,,,,,,,,,,,,,,,,,,,,,,,,,,,,,,,,,,,,,,,,,优秀,e,,,e,1,1.0898,0,74,74,10,1,,
,,,,,,,,,,,,,1,001,2025-02-05_23h24.45.006,IAT(Formal),2021.2.3,Win32,59.88023952,,,,,,,,,,,,,,,,,,,,,,,,,,,,,,,,,,,,,,,,,,,,,,,,,,,,,其他,e,,,e,1,0.9946,0,75,75,79,1,,
,,,,,,,,,,,,,1,001,2025-02-05_23h24.45.006,IAT(Formal),2021.2.3,Win32,59.88023952,,,,,,,,,,,,,,,,,,,,,,,,,,,,,,,,,,,,,,,,,,,,,,,,,,,,,朴实,e,,,e,1,0.7667,0,76,76,24,1,,
,,,,,,,,,,,,,1,001,2025-02-05_23h24.45.006,IAT(Formal),2021.2.3,Win32,59.88023952,,,,,,,,,,,,,,,,,,,,,,,,,,,,,,,,,,,,,,,,,,,,,,,,,,,,,鲁莽,i,,,i,1,0.6293,0,77,77,38,1,,
,,,,,,,,,,,,,1,001,2025-02-05_23h24.45.006,IAT(Formal),2021.2.3,Win32,59.88023952,,,,,,,,,,,,,,,,,,,,,,,,,,,,,,,,,,,,,,,,,,,,,,,,,,,,,下贱,i,,,i,1,0.6342,0,78,78,49,1,,
,,,,,,,,,,,,,1,001,2025-02-05_23h24.45.006,IAT(Formal),2021.2.3,Win32,59.88023952,,,,,,,,,,,,,,,,,,,,,,,,,,,,,,,,,,,,,,,,,,,,,,,,,,,,,他,e,,,e,1,0.6011,0,79,79,75,1,,
,,,,,,,,,,,,,1,001,2025-02-05_23h24.45.006,IAT(Formal),2021.2.3,Win32,59.88023952,,,,,,,,,,,,,,,,,,,,,,,,,,,,,,,,,,,,,,,,,,,,,,,,,,,,,勇敢,e,,,e,1,0.8284,1,0,80,17,1,,
,,,,,,,,,,,,,1,001,2025-02-05_23h24.45.006,IAT(Formal),2021.2.3,Win32,59.88023952,,,,,,,,,,,,,,,,,,,,,,,,,,,,,,,,,,,,,,,,,,,,,,,,,,,,,我的,i,,,e,0,0.5586,1,1,81,51,1,,
,,,,,,,,,,,,,1,001,2025-02-05_23h24.45.006,IAT(Formal),2021.2.3,Win32,59.88023952,,,,,,,,,,,,,,,,,,,,,,,,,,,,,,,,,,,,,,,,,,,,,,,,,,,,,他,e,,,i,0,0.626,1,2,82,5,1,,
,,,,,,,,,,,,,1,001,2025-02-05_23h24.45.006,IAT(Formal),2021.2.3,Win32,59.88023952,,,,,,,,,,,,,,,,,,,,,,,,,,,,,,,,,,,,,,,,,,,,,,,,,,,,,机智,e,,,,0,,1,3,83,19,1,,
,,,,,,,,,,,,,1,001,2025-02-05_23h24.45.006,IAT(Formal),2021.2.3,Win32,59.88023952,,,,,,,,,,,,,,,,,,,,,,,,,,,,,,,,,,,,,,,,,,,,,,,,,,,,,俺,i,,,i,1,0.6152,1,4,84,64,1,,
,,,,,,,,,,,,,1,001,2025-02-05_23h24.45.006,IAT(Formal),2021.2.3,Win32,59.88023952,,,,,,,,,,,,,,,,,,,,,,,,,,,,,,,,,,,,,,,,,,,,,,,,,,,,,活泼,e,,,e,1,0.9295,1,5,85,28,1,,
,,,,,,,,,,,,,1,001,2025-02-05_23h24.45.006,IAT(Formal),2021.2.3,Win32,59.88023952,,,,,,,,,,,,,,,,,,,,,,,,,,,,,,,,,,,,,,,,,,,,,,,,,,,,,他的,e,,,e,1,0.6368,1,6,86,7,1,,
,,,,,,,,,,,,,1,001,2025-02-05_23h24.45.006,IAT(Formal),2021.2.3,Win32,59.88023952,,,,,,,,,,,,,,,,,,,,,,,,,,,,,,,,,,,,,,,,,,,,,,,,,,,,,朴实,e,,,e,1,0.8283,1,7,87,24,1,,
,,,,,,,,,,,,,1,001,2025-02-05_23h24.45.006,IAT(Formal),2021.2.3,Win32,59.88023952,,,,,,,,,,,,,,,,,,,,,,,,,,,,,,,,,,,,,,,,,,,,,,,,,,,,,他人,e,,,e,1,0.8637,1,8,88,8,1,,
,,,,,,,,,,,,,1,001,2025-02-05_23h24.45.006,IAT(Formal),2021.2.3,Win32,59.88023952,,,,,,,,,,,,,,,,,,,,,,,,,,,,,,,,,,,,,,,,,,,,,,,,,,,,,虚伪,i,,,i,1,0.9225,1,9,89,31,1,,
,,,,,,,,,,,,,1,001,2025-02-05_23h24.45.006,IAT(Formal),2021.2.3,Win32,59.88023952,,,,,,,,,,,,,,,,,,,,,,,,,,,,,,,,,,,,,,,,,,,,,,,,,,,,,公正,e,,,e,1,1.2157,1,10,90,23,1,,
,,,,,,,,,,,,,1,001,2025-02-05_23h24.45.006,IAT(Formal),2021.2.3,Win32,59.88023952,,,,,,,,,,,,,,,,,,,,,,,,,,,,,,,,,,,,,,,,,,,,,,,,,,,,,他们,e,,,e,1,0.6043,1,11,91,66,1,,
,,,,,,,,,,,,,1,001,2025-02-05_23h24.45.006,IAT(Formal),2021.2.3,Win32,59.88023952,,,,,,,,,,,,,,,,,,,,,,,,,,,,,,,,,,,,,,,,,,,,,,,,,,,,,我们,i,,,i,1,1.1621,1,12,92,2,1,,
,,,,,,,,,,,,,1,001,2025-02-05_23h24.45.006,IAT(Formal),2021.2.3,Win32,59.88023952,,,,,,,,,,,,,,,,,,,,,,,,,,,,,,,,,,,,,,,,,,,,,,,,,,,,,他,e,,,e,1,0.9428,1,13,93,75,1,,
,,,,,,,,,,,,,1,001,2025-02-05_23h24.45.006,IAT(Formal),2021.2.3,Win32,59.88023952,,,,,,,,,,,,,,,,,,,,,,,,,,,,,,,,,,,,,,,,,,,,,,,,,,,,,我的,i,,,i,1,0.6215,1,14,94,61,1,,
,,,,,,,,,,,,,1,001,2025-02-05_23h24.45.006,IAT(Formal),2021.2.3,Win32,59.88023952,,,,,,,,,,,,,,,,,,,,,,,,,,,,,,,,,,,,,,,,,,,,,,,,,,,,,固执,i,,,e,0,1.2651,1,15,95,47,1,,
,,,,,,,,,,,,,1,001,2025-02-05_23h24.45.006,IAT(Formal),2021.2.3,Win32,59.88023952,,,,,,,,,,,,,,,,,,,,,,,,,,,,,,,,,,,,,,,,,,,,,,,,,,,,,愚蠢,i,,,i,1,0.4193,1,16,96,32,1,,
,,,,,,,,,,,,,1,001,2025-02-05_23h24.45.006,IAT(Formal),2021.2.3,Win32,59.88023952,,,,,,,,,,,,,,,,,,,,,,,,,,,,,,,,,,,,,,,,,,,,,,,,,,,,,其他,e,,,e,1,0.5899,1,17,97,69,1,,
,,,,,,,,,,,,,1,001,2025-02-05_23h24.45.006,IAT(Formal),2021.2.3,Win32,59.88023952,,,,,,,,,,,,,,,,,,,,,,,,,,,,,,,,,,,,,,,,,,,,,,,,,,,,,我的,i,,,i,1,0.5691,1,18,98,71,1,,
,,,,,,,,,,,,,1,001,2025-02-05_23h24.45.006,IAT(Formal),2021.2.3,Win32,59.88023952,,,,,,,,,,,,,,,,,,,,,,,,,,,,,,,,,,,,,,,,,,,,,,,,,,,,,他的,e,,,e,1,0.5565,1,19,99,77,1,,
,,,,,,,,,,,,,1,001,2025-02-05_23h24.45.006,IAT(Formal),2021.2.3,Win32,59.88023952,,,,,,,,,,,,,,,,,,,,,,,,,,,,,,,,,,,,,,,,,,,,,,,,,,,,,无私,e,,,e,1,0.8428,1,20,100,22,1,,
,,,,,,,,,,,,,1,001,2025-02-05_23h24.45.006,IAT(Formal),2021.2.3,Win32,59.88023952,,,,,,,,,,,,,,,,,,,,,,,,,,,,,,,,,,,,,,,,,,,,,,,,,,,,,我们,i,,,i,1,0.5655,1,21,101,72,1,,
,,,,,,,,,,,,,1,001,2025-02-05_23h24.45.006,IAT(Formal),2021.2.3,Win32,59.88023952,,,,,,,,,,,,,,,,,,,,,,,,,,,,,,,,,,,,,,,,,,,,,,,,,,,,,冷静,e,,,e,1,0.7256,1,22,102,26,1,,
,,,,,,,,,,,,,1,001,2025-02-05_23h24.45.006,IAT(Formal),2021.2.3,Win32,59.88023952,,,,,,,,,,,,,,,,,,,,,,,,,,,,,,,,,,,,,,,,,,,,,,,,,,,,,诚实,e,,,e,1,0.576,1,23,103,15,1,,
,,,,,,,,,,,,,1,001,2025-02-05_23h24.45.006,IAT(Formal),2021.2.3,Win32,59.88023952,,,,,,,,,,,,,,,,,,,,,,,,,,,,,,,,,,,,,,,,,,,,,,,,,,,,,他人,e,,,e,1,0.6985,1,24,104,68,1,,
,,,,,,,,,,,,,1,001,2025-02-05_23h24.45.006,IAT(Formal),2021.2.3,Win32,59.88023952,,,,,,,,,,,,,,,,,,,,,,,,,,,,,,,,,,,,,,,,,,,,,,,,,,,,,杰出,e,,,e,1,0.5275,1,25,105,13,1,,
,,,,,,,,,,,,,1,001,2025-02-05_23h24.45.006,IAT(Formal),2021.2.3,Win32,59.88023952,,,,,,,,,,,,,,,,,,,,,,,,,,,,,,,,,,,,,,,,,,,,,,,,,,,,,正直,e,,,e,1,0.4615,1,26,106,16,1,,
,,,,,,,,,,,,,1,001,2025-02-05_23h24.45.006,IAT(Formal),2021.2.3,Win32,59.88023952,,,,,,,,,,,,,,,,,,,,,,,,,,,,,,,,,,,,,,,,,,,,,,,,,,,,,我,i,,,i,1,0.6074,1,27,107,0,1,,
,,,,,,,,,,,,,1,001,2025-02-05_23h24.45.006,IAT(Formal),2021.2.3,Win32,59.88023952,,,,,,,,,,,,,,,,,,,,,,,,,,,,,,,,,,,,,,,,,,,,,,,,,,,,,他,e,,,e,1,0.5453,1,28,108,55,1,,
,,,,,,,,,,,,,1,001,2025-02-05_23h24.45.006,IAT(Formal),2021.2.3,Win32,59.88023952,,,,,,,,,,,,,,,,,,,,,,,,,,,,,,,,,,,,,,,,,,,,,,,,,,,,,自己,i,,,i,1,0.6224,1,29,109,73,1,,
,,,,,,,,,,,,,1,001,2025-02-05_23h24.45.006,IAT(Formal),2021.2.3,Win32,59.88023952,,,,,,,,,,,,,,,,,,,,,,,,,,,,,,,,,,,,,,,,,,,,,,,,,,,,,自私,i,,,e,0,0.817,1,30,110,43,1,,
,,,,,,,,,,,,,1,001,2025-02-05_23h24.45.006,IAT(Formal),2021.2.3,Win32,59.88023952,,,,,,,,,,,,,,,,,,,,,,,,,,,,,,,,,,,,,,,,,,,,,,,,,,,,,诚恳,e,,,e,1,0.8249,1,31,111,29,1,,
,,,,,,,,,,,,,1,001,2025-02-05_23h24.45.006,IAT(Formal),2021.2.3,Win32,59.88023952,,,,,,,,,,,,,,,,,,,,,,,,,,,,,,,,,,,,,,,,,,,,,,,,,,,,,刻薄,i,,,i,1,0.711,1,32,112,33,1,,
,,,,,,,,,,,,,1,001,2025-02-05_23h24.45.006,IAT(Formal),2021.2.3,Win32,59.88023952,,,,,,,,,,,,,,,,,,,,,,,,,,,,,,,,,,,,,,,,,,,,,,,,,,,,,热情,e,,,e,1,0.6576,1,33,113,27,1,,
,,,,,,,,,,,,,1,001,2025-02-05_23h24.45.006,IAT(Formal),2021.2.3,Win32,59.88023952,,,,,,,,,,,,,,,,,,,,,,,,,,,,,,,,,,,,,,,,,,,,,,,,,,,,,聪明,e,,,e,1,0.6244,1,34,114,12,1,,
,,,,,,,,,,,,,1,001,2025-02-05_23h24.45.006,IAT(Formal),2021.2.3,Win32,59.88023952,,,,,,,,,,,,,,,,,,,,,,,,,,,,,,,,,,,,,,,,,,,,,,,,,,,,,勤奋,e,,,e,1,0.8438,1,35,115,18,1,,
,,,,,,,,,,,,,1,001,2025-02-05_23h24.45.006,IAT(Formal),2021.2.3,Win32,59.88023952,,,,,,,,,,,,,,,,,,,,,,,,,,,,,,,,,,,,,,,,,,,,,,,,,,,,,鲁莽,i,,,i,1,0.7109,1,36,116,38,1,,
,,,,,,,,,,,,,1,001,2025-02-05_23h24.45.006,IAT(Formal),2021.2.3,Win32,59.88023952,,,,,,,,,,,,,,,,,,,,,,,,,,,,,,,,,,,,,,,,,,,,,,,,,,,,,消极,i,,,i,1,0.6711,1,37,117,35,1,,
,,,,,,,,,,,,,1,001,2025-02-05_23h24.45.006,IAT(Formal),2021.2.3,Win32,59.88023952,,,,,,,,,,,,,,,,,,,,,,,,,,,,,,,,,,,,,,,,,,,,,,,,,,,,,他,e,,,e,1,1.0783,1,38,118,65,1,,
,,,,,,,,,,,,,1,001,2025-02-05_23h24.45.006,IAT(Formal),2021.2.3,Win32,59.88023952,,,,,,,,,,,,,,,,,,,,,,,,,,,,,,,,,,,,,,,,,,,,,,,,,,,,,他们,e,,,e,1,0.5512,1,39,119,6,1,,
,,,,,,,,,,,,,1,001,2025-02-05_23h24.45.006,IAT(Formal),2021.2.3,Win32,59.88023952,,,,,,,,,,,,,,,,,,,,,,,,,,,,,,,,,,,,,,,,,,,,,,,,,,,,,俺,i,,,i,1,0.7028,1,40,120,4,1,,
,,,,,,,,,,,,,1,001,2025-02-05_23h24.45.006,IAT(Formal),2021.2.3,Win32,59.88023952,,,,,,,,,,,,,,,,,,,,,,,,,,,,,,,,,,,,,,,,,,,,,,,,,,,,,他人,e,,,e,1,1.3107,1,41,121,58,1,,
,,,,,,,,,,,,,1,001,2025-02-05_23h24.45.006,IAT(Formal),2021.2.3,Win32,59.88023952,,,,,,,,,,,,,,,,,,,,,,,,,,,,,,,,,,,,,,,,,,,,,,,,,,,,,自己,i,,,i,1,0.6529,1,42,122,3,1,,
,,,,,,,,,,,,,1,001,2025-02-05_23h24.45.006,IAT(Formal),2021.2.3,Win32,59.88023952,,,,,,,,,,,,,,,,,,,,,,,,,,,,,,,,,,,,,,,,,,,,,,,,,,,,,他人,e,,,e,1,0.5837,1,43,123,78,1,,
,,,,,,,,,,,,,1,001,2025-02-05_23h24.45.006,IAT(Formal),2021.2.3,Win32,59.88023952,,,,,,,,,,,,,,,,,,,,,,,,,,,,,,,,,,,,,,,,,,,,,,,,,,,,,自己,i,,,i,1,0.6858,1,44,124,53,1,,
,,,,,,,,,,,,,1,001,2025-02-05_23h24.45.006,IAT(Formal),2021.2.3,Win32,59.88023952,,,,,,,,,,,,,,,,,,,,,,,,,,,,,,,,,,,,,,,,,,,,,,,,,,,,,我,i,,,e,0,1.3227,1,45,125,50,1,,
,,,,,,,,,,,,,1,001,2025-02-05_23h24.45.006,IAT(Formal),2021.2.3,Win32,59.88023952,,,,,,,,,,,,,,,,,,,,,,,,,,,,,,,,,,,,,,,,,,,,,,,,,,,,,崇高,e,,,e,1,0.8073,1,46,126,11,1,,
,,,,,,,,,,,,,1,001,2025-02-05_23h24.45.006,IAT(Formal),2021.2.3,Win32,59.88023952,,,,,,,,,,,,,,,,,,,,,,,,,,,,,,,,,,,,,,,,,,,,,,,,,,,,,我的,i,,,i,1,0.8301,1,47,127,1,1,,
,,,,,,,,,,,,,1,001,2025-02-05_23h24.45.006,IAT(Formal),2021.2.3,Win32,59.88023952,,,,,,,,,,,,,,,,,,,,,,,,,,,,,,,,,,,,,,,,,,,,,,,,,,,,,我,i,,,i,1,0.5023,1,48,128,60,1,,
,,,,,,,,,,,,,1,001,2025-02-05_23h24.45.006,IAT(Formal),2021.2.3,Win32,59.88023952,,,,,,,,,,,,,,,,,,,,,,,,,,,,,,,,,,,,,,,,,,,,,,,,,,,,,下贱,i,,,e,0,0.8117,1,49,129,49,1,,
,,,,,,,,,,,,,1,001,2025-02-05_23h24.45.006,IAT(Formal),2021.2.3,Win32,59.88023952,,,,,,,,,,,,,,,,,,,,,,,,,,,,,,,,,,,,,,,,,,,,,,,,,,,,,猖狂,i,,,i,1,1.008,1,50,130,45,1,,
,,,,,,,,,,,,,1,001,2025-02-05_23h24.45.006,IAT(Formal),2021.2.3,Win32,59.88023952,,,,,,,,,,,,,,,,,,,,,,,,,,,,,,,,,,,,,,,,,,,,,,,,,,,,,我们,i,,,i,1,0.8998,1,51,131,52,1,,
,,,,,,,,,,,,,1,001,2025-02-05_23h24.45.006,IAT(Formal),2021.2.3,Win32,59.88023952,,,,,,,,,,,,,,,,,,,,,,,,,,,,,,,,,,,,,,,,,,,,,,,,,,,,,细腻,e,,,e,1,0.6698,1,52,132,25,1,,
,,,,,,,,,,,,,1,001,2025-02-05_23h24.45.006,IAT(Formal),2021.2.3,Win32,59.88023952,,,,,,,,,,,,,,,,,,,,,,,,,,,,,,,,,,,,,,,,,,,,,,,,,,,,,我,i,,,i,1,0.5904,1,53,133,70,1,,
,,,,,,,,,,,,,1,001,2025-02-05_23h24.45.006,IAT(Formal),2021.2.3,Win32,59.88023952,,,,,,,,,,,,,,,,,,,,,,,,,,,,,,,,,,,,,,,,,,,,,,,,,,,,,他的,e,,,e,1,0.5659,1,54,134,67,1,,
,,,,,,,,,,,,,1,001,2025-02-05_23h24.45.006,IAT(Formal),2021.2.3,Win32,59.88023952,,,,,,,,,,,,,,,,,,,,,,,,,,,,,,,,,,,,,,,,,,,,,,,,,,,,,散漫,i,,,i,1,0.8564,1,55,135,41,1,,
,,,,,,,,,,,,,1,001,2025-02-05_23h24.45.006,IAT(Formal),2021.2.3,Win32,59.88023952,,,,,,,,,,,,,,,,,,,,,,,,,,,,,,,,,,,,,,,,,,,,,,,,,,,,,悲观,i,,,i,1,0.4954,1,56,136,34,1,,
,,,,,,,,,,,,,1,001,2025-02-05_23h24.45.006,IAT(Formal),2021.2.3,Win32,59.88023952,,,,,,,,,,,,,,,,,,,,,,,,,,,,,,,,,,,,,,,,,,,,,,,,,,,,,自己,i,,,i,1,0.9448,1,57,137,63,1,,
,,,,,,,,,,,,,1,001,2025-02-05_23h24.45.006,IAT(Formal),2021.2.3,Win32,59.88023952,,,,,,,,,,,,,,,,,,,,,,,,,,,,,,,,,,,,,,,,,,,,,,,,,,,,,其他,e,,,e,1,0.6548,1,58,138,59,1,,
,,,,,,,,,,,,,1,001,2025-02-05_23h24.45.006,IAT(Formal),2021.2.3,Win32,59.88023952,,,,,,,,,,,,,,,,,,,,,,,,,,,,,,,,,,,,,,,,,,,,,,,,,,,,,乐观,e,,,e,1,1.0333,1,59,139,14,1,,
,,,,,,,,,,,,,1,001,2025-02-05_23h24.45.006,IAT(Formal),2021.2.3,Win32,59.88023952,,,,,,,,,,,,,,,,,,,,,,,,,,,,,,,,,,,,,,,,,,,,,,,,,,,,,他的,e,,,e,1,0.6494,1,60,140,57,1,,
,,,,,,,,,,,,,1,001,2025-02-05_23h24.45.006,IAT(Formal),2021.2.3,Win32,59.88023952,,,,,,,,,,,,,,,,,,,,,,,,,,,,,,,,,,,,,,,,,,,,,,,,,,,,,俺,i,,,i,1,0.5636,1,61,141,54,1,,
,,,,,,,,,,,,,1,001,2025-02-05_23h24.45.006,IAT(Formal),2021.2.3,Win32,59.88023952,,,,,,,,,,,,,,,,,,,,,,,,,,,,,,,,,,,,,,,,,,,,,,,,,,,,,冒失,i,,,e,0,0.7945,1,62,142,39,1,,
,,,,,,,,,,,,,1,001,2025-02-05_23h24.45.006,IAT(Formal),2021.2.3,Win32,59.88023952,,,,,,,,,,,,,,,,,,,,,,,,,,,,,,,,,,,,,,,,,,,,,,,,,,,,,自卑,i,,,i,1,0.6224,1,63,143,36,1,,
,,,,,,,,,,,,,1,001,2025-02-05_23h24.45.006,IAT(Formal),2021.2.3,Win32,59.88023952,,,,,,,,,,,,,,,,,,,,,,,,,,,,,,,,,,,,,,,,,,,,,,,,,,,,,凶狠,i,,,i,1,0.6154,1,64,144,42,1,,
,,,,,,,,,,,,,1,001,2025-02-05_23h24.45.006,IAT(Formal),2021.2.3,Win32,59.88023952,,,,,,,,,,,,,,,,,,,,,,,,,,,,,,,,,,,,,,,,,,,,,,,,,,,,,野蛮,i,,,i,1,0.5038,1,65,145,46,1,,
,,,,,,,,,,,,,1,001,2025-02-05_23h24.45.006,IAT(Formal),2021.2.3,Win32,59.88023952,,,,,,,,,,,,,,,,,,,,,,,,,,,,,,,,,,,,,,,,,,,,,,,,,,,,,傲慢,i,,,i,1,0.5182,1,66,146,37,1,,
,,,,,,,,,,,,,1,001,2025-02-05_23h24.45.006,IAT(Formal),2021.2.3,Win32,59.88023952,,,,,,,,,,,,,,,,,,,,,,,,,,,,,,,,,,,,,,,,,,,,,,,,,,,,,其他,e,,,e,1,0.5692,1,67,147,79,1,,
,,,,,,,,,,,,,1,001,2025-02-05_23h24.45.006,IAT(Formal),2021.2.3,Win32,59.88023952,,,,,,,,,,,,,,,,,,,,,,,,,,,,,,,,,,,,,,,,,,,,,,,,,,,,,我们,i,,,i,1,0.5778,1,68,148,62,1,,
,,,,,,,,,,,,,1,001,2025-02-05_23h24.45.006,IAT(Formal),2021.2.3,Win32,59.88023952,,,,,,,,,,,,,,,,,,,,,,,,,,,,,,,,,,,,,,,,,,,,,,,,,,,,,稳重,e,,,e,1,0.6517,1,69,149,21,1,,
,,,,,,,,,,,,,1,001,2025-02-05_23h24.45.006,IAT(Formal),2021.2.3,Win32,59.88023952,,,,,,,,,,,,,,,,,,,,,,,,,,,,,,,,,,,,,,,,,,,,,,,,,,,,,执拗,i,,,i,1,0.7207,1,70,150,40,1,,
,,,,,,,,,,,,,1,001,2025-02-05_23h24.45.006,IAT(Formal),2021.2.3,Win32,59.88023952,,,,,,,,,,,,,,,,,,,,,,,,,,,,,,,,,,,,,,,,,,,,,,,,,,,,,他们,e,,,e,1,0.5006,1,71,151,56,1,,
,,,,,,,,,,,,,1,001,2025-02-05_23h24.45.006,IAT(Formal),2021.2.3,Win32,59.88023952,,,,,,,,,,,,,,,,,,,,,,,,,,,,,,,,,,,,,,,,,,,,,,,,,,,,,认真,e,,,e,1,0.6003,1,72,152,20,1,,
,,,,,,,,,,,,,1,001,2025-02-05_23h24.45.006,IAT(Formal),2021.2.3,Win32,59.88023952,,,,,,,,,,,,,,,,,,,,,,,,,,,,,,,,,,,,,,,,,,,,,,,,,,,,,卑鄙,i,,,i,1,0.7006,1,73,153,30,1,,
,,,,,,,,,,,,,1,001,2025-02-05_23h24.45.006,IAT(Formal),2021.2.3,Win32,59.88023952,,,,,,,,,,,,,,,,,,,,,,,,,,,,,,,,,,,,,,,,,,,,,,,,,,,,,优秀,e,,,e,1,0.5512,1,74,154,10,1,,
,,,,,,,,,,,,,1,001,2025-02-05_23h24.45.006,IAT(Formal),2021.2.3,Win32,59.88023952,,,,,,,,,,,,,,,,,,,,,,,,,,,,,,,,,,,,,,,,,,,,,,,,,,,,,轻率,i,,,i,1,0.6789,1,75,155,48,1,,
,,,,,,,,,,,,,1,001,2025-02-05_23h24.45.006,IAT(Formal),2021.2.3,Win32,59.88023952,,,,,,,,,,,,,,,,,,,,,,,,,,,,,,,,,,,,,,,,,,,,,,,,,,,,,俺,i,,,i,1,0.6687,1,76,156,74,1,,
,,,,,,,,,,,,,1,001,2025-02-05_23h24.45.006,IAT(Formal),2021.2.3,Win32,59.88023952,,,,,,,,,,,,,,,,,,,,,,,,,,,,,,,,,,,,,,,,,,,,,,,,,,,,,他们,e,,,e,1,0.5796,1,77,157,76,1,,
,,,,,,,,,,,,,1,001,2025-02-05_23h24.45.006,IAT(Formal),2021.2.3,Win32,59.88023952,,,,,,,,,,,,,,,,,,,,,,,,,,,,,,,,,,,,,,,,,,,,,,,,,,,,,其他,e,,,e,1,0.9238,1,78,158,9,1,,
,,,,,,,,,,,,,1,001,2025-02-05_23h24.45.006,IAT(Formal),2021.2.3,Win32,59.88023952,,,,,,,,,,,,,,,,,,,,,,,,,,,,,,,,,,,,,,,,,,,,,,,,,,,,,暴躁,i,,,i,1,0.6592,1,79,159,44,1,,
,,,,,,,,,,,,,1,001,2025-02-05_23h24.45.006,IAT(Formal),2021.2.3,Win32,59.88023952,,,,,,,,,,,,,,,,,,,,,,,,,,,,,,,,,,,,,,,,,,,,,,,,,,,,,,,,,,,,,,,,,space,1.9972