﻿Instruction1.keys,Instruction1.rt,Instruction2.keys,Instruction2.rt,key_resp_iso.keys,key_resp_iso.corr,Practice_01.thisRepN,Practice_01.thisTrialN,Practice_01.thisN,Practice_01.thisIndex,Practice_01.ran,Words,ans,participant,session,date,expName,psychopyVersion,OS,frameRate,key_resp_iso.rt,key_resp_3.keys,key_resp_3.rt,key_resp_ipn.keys,key_resp_ipn.corr,key_resp_ipn.rt,Practice_02.thisRepN,Practice_02.thisTrialN,Practice_02.thisN,Practice_02.thisIndex,Practice_02.ran,Words_ipn,ans_ipn,key_resp_4.keys,key_resp_4.rt,key_resp_t1.keys,key_resp_t1.corr,key_resp_t1.rt,Practice_T1.thisRepN,Practice_T1.thisTrialN,Practice_T1.thisN,Practice_T1.thisIndex,Practice_T1.ran,Words_t1,ans_t1,key_resp_5.keys,key_resp_5.rt,Formal_T1.thisRepN,Formal_T1.thisTrialN,Formal_T1.thisN,Formal_T1.thisIndex,Formal_T1.ran,key_resp_6.keys,key_resp_6.rt,key_resp_iso_reverse.keys,key_resp_iso_reverse.corr,Practice_iso_Reverse.thisRepN,Practice_iso_Reverse.thisTrialN,Practice_iso_Reverse.thisN,Practice_iso_Reverse.thisIndex,Practice_iso_Reverse.ran,key_resp_iso_reverse.rt,key_resp_7.keys,key_resp_7.rt,key_resp_t2_Practice.keys,key_resp_t2_Practice.corr,Practice_t2_Reverse.thisRepN,Practice_t2_Reverse.thisTrialN,Practice_t2_Reverse.thisN,Practice_t2_Reverse.thisIndex,Practice_t2_Reverse.ran,Words_t2,ans_t2,key_resp_t2_Practice.rt,key_resp_8.keys,key_resp_8.rt,key_resp_t2.keys,key_resp_t2.corr,Formal_t2_reverse.thisRepN,Formal_t2_reverse.thisTrialN,Formal_t2_reverse.thisN,Formal_t2_reverse.thisIndex,Formal_t2_reverse.ran,key_resp_t2.rt,key_instruct.keys,key_instruct.rt
space,8.016,space,14.2425,,0,0,0,0,2,1,我们,e,1,001,2025-02-07_16h39.28.691,IAT(Formal),2021.2.3,Win32,58.82352941,,,,,,,,,,,,,,,,,,,,,,,,,,,,,,,,,,,,,,,,,,,,,,,,,,,,,,,,,,,,,,,,,,
,,,,i,1,0,1,1,6,1,他们,i,1,001,2025-02-07_16h39.28.691,IAT(Formal),2021.2.3,Win32,58.82352941,1.1393,,,,,,,,,,,,,,,,,,,,,,,,,,,,,,,,,,,,,,,,,,,,,,,,,,,,,,,,,,,,,,,,,
,,,,,0,0,2,2,9,1,其他,i,1,001,2025-02-07_16h39.28.691,IAT(Formal),2021.2.3,Win32,58.82352941,,,,,,,,,,,,,,,,,,,,,,,,,,,,,,,,,,,,,,,,,,,,,,,,,,,,,,,,,,,,,,,,,,
,,,,e,1,0,3,3,4,1,俺,e,1,001,2025-02-07_16h39.28.691,IAT(Formal),2021.2.3,Win32,58.82352941,0.7398,,,,,,,,,,,,,,,,,,,,,,,,,,,,,,,,,,,,,,,,,,,,,,,,,,,,,,,,,,,,,,,,,
,,,,i,1,0,4,4,7,1,他的,i,1,001,2025-02-07_16h39.28.691,IAT(Formal),2021.2.3,Win32,58.82352941,0.5653,,,,,,,,,,,,,,,,,,,,,,,,,,,,,,,,,,,,,,,,,,,,,,,,,,,,,,,,,,,,,,,,,
,,,,e,1,0,5,5,1,1,我的,e,1,001,2025-02-07_16h39.28.691,IAT(Formal),2021.2.3,Win32,58.82352941,0.4779,,,,,,,,,,,,,,,,,,,,,,,,,,,,,,,,,,,,,,,,,,,,,,,,,,,,,,,,,,,,,,,,,
,,,,i,0,0,6,6,0,1,我,e,1,001,2025-02-07_16h39.28.691,IAT(Formal),2021.2.3,Win32,58.82352941,0.3694,,,,,,,,,,,,,,,,,,,,,,,,,,,,,,,,,,,,,,,,,,,,,,,,,,,,,,,,,,,,,,,,,
,,,,e,1,0,7,7,3,1,自己,e,1,001,2025-02-07_16h39.28.691,IAT(Formal),2021.2.3,Win32,58.82352941,0.5742,,,,,,,,,,,,,,,,,,,,,,,,,,,,,,,,,,,,,,,,,,,,,,,,,,,,,,,,,,,,,,,,,
,,,,i,1,0,8,8,5,1,他,i,1,001,2025-02-07_16h39.28.691,IAT(Formal),2021.2.3,Win32,58.82352941,0.5373,,,,,,,,,,,,,,,,,,,,,,,,,,,,,,,,,,,,,,,,,,,,,,,,,,,,,,,,,,,,,,,,,
,,,,i,1,0,9,9,8,1,他人,i,1,001,2025-02-07_16h39.28.691,IAT(Formal),2021.2.3,Win32,58.82352941,0.6313,,,,,,,,,,,,,,,,,,,,,,,,,,,,,,,,,,,,,,,,,,,,,,,,,,,,,,,,,,,,,,,,,
,,,,,,,,,,,,,1,001,2025-02-07_16h39.28.691,IAT(Formal),2021.2.3,Win32,58.82352941,,space,14.192,e,1,1.284,0,0,0,14,1,朴实,e,,,,,,,,,,,,,,,,,,,,,,,,,,,,,,,,,,,,,,,,,,,,,,,,,,,,,
,,,,,,,,,,,,,1,001,2025-02-07_16h39.28.691,IAT(Formal),2021.2.3,Win32,58.82352941,,,,i,1,0.8515,0,1,1,31,1,散漫,i,,,,,,,,,,,,,,,,,,,,,,,,,,,,,,,,,,,,,,,,,,,,,,,,,,,,,
,,,,,,,,,,,,,1,001,2025-02-07_16h39.28.691,IAT(Formal),2021.2.3,Win32,58.82352941,,,,i,1,1.2053,0,2,2,26,1,自卑,i,,,,,,,,,,,,,,,,,,,,,,,,,,,,,,,,,,,,,,,,,,,,,,,,,,,,,
,,,,,,,,,,,,,1,001,2025-02-07_16h39.28.691,IAT(Formal),2021.2.3,Win32,58.82352941,,,,e,1,0.8349,0,3,3,1,1,崇高,e,,,,,,,,,,,,,,,,,,,,,,,,,,,,,,,,,,,,,,,,,,,,,,,,,,,,,
,,,,,,,,,,,,,1,001,2025-02-07_16h39.28.691,IAT(Formal),2021.2.3,Win32,58.82352941,,,,e,1,0.5506,0,4,4,7,1,勇敢,e,,,,,,,,,,,,,,,,,,,,,,,,,,,,,,,,,,,,,,,,,,,,,,,,,,,,,
,,,,,,,,,,,,,1,001,2025-02-07_16h39.28.691,IAT(Formal),2021.2.3,Win32,58.82352941,,,,e,1,0.4874,0,5,5,13,1,公正,e,,,,,,,,,,,,,,,,,,,,,,,,,,,,,,,,,,,,,,,,,,,,,,,,,,,,,
,,,,,,,,,,,,,1,001,2025-02-07_16h39.28.691,IAT(Formal),2021.2.3,Win32,58.82352941,,,,e,1,0.491,0,6,6,5,1,诚实,e,,,,,,,,,,,,,,,,,,,,,,,,,,,,,,,,,,,,,,,,,,,,,,,,,,,,,
,,,,,,,,,,,,,1,001,2025-02-07_16h39.28.691,IAT(Formal),2021.2.3,Win32,58.82352941,,,,e,1,0.4614,0,7,7,8,1,勤奋,e,,,,,,,,,,,,,,,,,,,,,,,,,,,,,,,,,,,,,,,,,,,,,,,,,,,,,
,,,,,,,,,,,,,1,001,2025-02-07_16h39.28.691,IAT(Formal),2021.2.3,Win32,58.82352941,,,,e,1,0.5012,0,8,8,4,1,乐观,e,,,,,,,,,,,,,,,,,,,,,,,,,,,,,,,,,,,,,,,,,,,,,,,,,,,,,
,,,,,,,,,,,,,1,001,2025-02-07_16h39.28.691,IAT(Formal),2021.2.3,Win32,58.82352941,,,,i,1,1.0582,0,9,9,37,1,固执,i,,,,,,,,,,,,,,,,,,,,,,,,,,,,,,,,,,,,,,,,,,,,,,,,,,,,,
,,,,,,,,,,,,,1,001,2025-02-07_16h39.28.691,IAT(Formal),2021.2.3,Win32,58.82352941,,,,e,1,0.8855,0,10,10,19,1,诚恳,e,,,,,,,,,,,,,,,,,,,,,,,,,,,,,,,,,,,,,,,,,,,,,,,,,,,,,
,,,,,,,,,,,,,1,001,2025-02-07_16h39.28.691,IAT(Formal),2021.2.3,Win32,58.82352941,,,,e,0,0.6356,0,11,11,28,1,鲁莽,i,,,,,,,,,,,,,,,,,,,,,,,,,,,,,,,,,,,,,,,,,,,,,,,,,,,,,
,,,,,,,,,,,,,1,001,2025-02-07_16h39.28.691,IAT(Formal),2021.2.3,Win32,58.82352941,,,,i,1,0.5686,0,12,12,24,1,悲观,i,,,,,,,,,,,,,,,,,,,,,,,,,,,,,,,,,,,,,,,,,,,,,,,,,,,,,
,,,,,,,,,,,,,1,001,2025-02-07_16h39.28.691,IAT(Formal),2021.2.3,Win32,58.82352941,,,,e,1,0.6353,0,13,13,2,1,聪明,e,,,,,,,,,,,,,,,,,,,,,,,,,,,,,,,,,,,,,,,,,,,,,,,,,,,,,
,,,,,,,,,,,,,1,001,2025-02-07_16h39.28.691,IAT(Formal),2021.2.3,Win32,58.82352941,,,,i,1,0.7002,0,14,14,22,1,愚蠢,i,,,,,,,,,,,,,,,,,,,,,,,,,,,,,,,,,,,,,,,,,,,,,,,,,,,,,
,,,,,,,,,,,,,1,001,2025-02-07_16h39.28.691,IAT(Formal),2021.2.3,Win32,58.82352941,,,,i,1,1.3518,0,15,15,35,1,猖狂,i,,,,,,,,,,,,,,,,,,,,,,,,,,,,,,,,,,,,,,,,,,,,,,,,,,,,,
,,,,,,,,,,,,,1,001,2025-02-07_16h39.28.691,IAT(Formal),2021.2.3,Win32,58.82352941,,,,e,1,0.7446,0,16,16,17,1,热情,e,,,,,,,,,,,,,,,,,,,,,,,,,,,,,,,,,,,,,,,,,,,,,,,,,,,,,
,,,,,,,,,,,,,1,001,2025-02-07_16h39.28.691,IAT(Formal),2021.2.3,Win32,58.82352941,,,,i,1,0.6812,0,17,17,21,1,虚伪,i,,,,,,,,,,,,,,,,,,,,,,,,,,,,,,,,,,,,,,,,,,,,,,,,,,,,,
,,,,,,,,,,,,,1,001,2025-02-07_16h39.28.691,IAT(Formal),2021.2.3,Win32,58.82352941,,,,e,1,0.606,0,18,18,0,1,优秀,e,,,,,,,,,,,,,,,,,,,,,,,,,,,,,,,,,,,,,,,,,,,,,,,,,,,,,
,,,,,,,,,,,,,1,001,2025-02-07_16h39.28.691,IAT(Formal),2021.2.3,Win32,58.82352941,,,,i,0,0.7008,0,19,19,12,1,无私,e,,,,,,,,,,,,,,,,,,,,,,,,,,,,,,,,,,,,,,,,,,,,,,,,,,,,,
,,,,,,,,,,,,,1,001,2025-02-07_16h39.28.691,IAT(Formal),2021.2.3,Win32,58.82352941,,,,i,1,0.6048,0,20,20,32,1,凶狠,i,,,,,,,,,,,,,,,,,,,,,,,,,,,,,,,,,,,,,,,,,,,,,,,,,,,,,
,,,,,,,,,,,,,1,001,2025-02-07_16h39.28.691,IAT(Formal),2021.2.3,Win32,58.82352941,,,,i,1,0.884,0,21,21,38,1,轻率,i,,,,,,,,,,,,,,,,,,,,,,,,,,,,,,,,,,,,,,,,,,,,,,,,,,,,,
,,,,,,,,,,,,,1,001,2025-02-07_16h39.28.691,IAT(Formal),2021.2.3,Win32,58.82352941,,,,i,1,0.5018,0,22,22,36,1,野蛮,i,,,,,,,,,,,,,,,,,,,,,,,,,,,,,,,,,,,,,,,,,,,,,,,,,,,,,
,,,,,,,,,,,,,1,001,2025-02-07_16h39.28.691,IAT(Formal),2021.2.3,Win32,58.82352941,,,,i,1,0.5177,0,23,23,20,1,卑鄙,i,,,,,,,,,,,,,,,,,,,,,,,,,,,,,,,,,,,,,,,,,,,,,,,,,,,,,
,,,,,,,,,,,,,1,001,2025-02-07_16h39.28.691,IAT(Formal),2021.2.3,Win32,58.82352941,,,,e,1,0.8094,0,24,24,10,1,认真,e,,,,,,,,,,,,,,,,,,,,,,,,,,,,,,,,,,,,,,,,,,,,,,,,,,,,,
,,,,,,,,,,,,,1,001,2025-02-07_16h39.28.691,IAT(Formal),2021.2.3,Win32,58.82352941,,,,i,1,0.4788,0,25,25,25,1,消极,i,,,,,,,,,,,,,,,,,,,,,,,,,,,,,,,,,,,,,,,,,,,,,,,,,,,,,
,,,,,,,,,,,,,1,001,2025-02-07_16h39.28.691,IAT(Formal),2021.2.3,Win32,58.82352941,,,,i,1,0.7028,0,26,26,27,1,傲慢,i,,,,,,,,,,,,,,,,,,,,,,,,,,,,,,,,,,,,,,,,,,,,,,,,,,,,,
,,,,,,,,,,,,,1,001,2025-02-07_16h39.28.691,IAT(Formal),2021.2.3,Win32,58.82352941,,,,e,1,0.5986,0,27,27,15,1,细腻,e,,,,,,,,,,,,,,,,,,,,,,,,,,,,,,,,,,,,,,,,,,,,,,,,,,,,,
,,,,,,,,,,,,,1,001,2025-02-07_16h39.28.691,IAT(Formal),2021.2.3,Win32,58.82352941,,,,i,0,0.7084,0,28,28,16,1,冷静,e,,,,,,,,,,,,,,,,,,,,,,,,,,,,,,,,,,,,,,,,,,,,,,,,,,,,,
,,,,,,,,,,,,,1,001,2025-02-07_16h39.28.691,IAT(Formal),2021.2.3,Win32,58.82352941,,,,e,0,0.5617,0,29,29,33,1,自私,i,,,,,,,,,,,,,,,,,,,,,,,,,,,,,,,,,,,,,,,,,,,,,,,,,,,,,
,,,,,,,,,,,,,1,001,2025-02-07_16h39.28.691,IAT(Formal),2021.2.3,Win32,58.82352941,,,,i,1,0.4842,0,30,30,39,1,下贱,i,,,,,,,,,,,,,,,,,,,,,,,,,,,,,,,,,,,,,,,,,,,,,,,,,,,,,
,,,,,,,,,,,,,1,001,2025-02-07_16h39.28.691,IAT(Formal),2021.2.3,Win32,58.82352941,,,,i,1,0.5252,0,31,31,29,1,冒失,i,,,,,,,,,,,,,,,,,,,,,,,,,,,,,,,,,,,,,,,,,,,,,,,,,,,,,
,,,,,,,,,,,,,1,001,2025-02-07_16h39.28.691,IAT(Formal),2021.2.3,Win32,58.82352941,,,,i,1,0.5302,0,32,32,30,1,执拗,i,,,,,,,,,,,,,,,,,,,,,,,,,,,,,,,,,,,,,,,,,,,,,,,,,,,,,
,,,,,,,,,,,,,1,001,2025-02-07_16h39.28.691,IAT(Formal),2021.2.3,Win32,58.82352941,,,,e,1,0.7209,0,33,33,11,1,稳重,e,,,,,,,,,,,,,,,,,,,,,,,,,,,,,,,,,,,,,,,,,,,,,,,,,,,,,
,,,,,,,,,,,,,1,001,2025-02-07_16h39.28.691,IAT(Formal),2021.2.3,Win32,58.82352941,,,,e,1,1.249,0,34,34,3,1,杰出,e,,,,,,,,,,,,,,,,,,,,,,,,,,,,,,,,,,,,,,,,,,,,,,,,,,,,,
,,,,,,,,,,,,,1,001,2025-02-07_16h39.28.691,IAT(Formal),2021.2.3,Win32,58.82352941,,,,e,1,0.6183,0,35,35,18,1,活泼,e,,,,,,,,,,,,,,,,,,,,,,,,,,,,,,,,,,,,,,,,,,,,,,,,,,,,,
,,,,,,,,,,,,,1,001,2025-02-07_16h39.28.691,IAT(Formal),2021.2.3,Win32,58.82352941,,,,e,1,0.5879,0,36,36,9,1,机智,e,,,,,,,,,,,,,,,,,,,,,,,,,,,,,,,,,,,,,,,,,,,,,,,,,,,,,
,,,,,,,,,,,,,1,001,2025-02-07_16h39.28.691,IAT(Formal),2021.2.3,Win32,58.82352941,,,,i,1,0.5853,0,37,37,34,1,暴躁,i,,,,,,,,,,,,,,,,,,,,,,,,,,,,,,,,,,,,,,,,,,,,,,,,,,,,,
,,,,,,,,,,,,,1,001,2025-02-07_16h39.28.691,IAT(Formal),2021.2.3,Win32,58.82352941,,,,i,1,0.6289,0,38,38,23,1,刻薄,i,,,,,,,,,,,,,,,,,,,,,,,,,,,,,,,,,,,,,,,,,,,,,,,,,,,,,
,,,,,,,,,,,,,1,001,2025-02-07_16h39.28.691,IAT(Formal),2021.2.3,Win32,58.82352941,,,,e,1,0.5936,0,39,39,6,1,正直,e,,,,,,,,,,,,,,,,,,,,,,,,,,,,,,,,,,,,,,,,,,,,,,,,,,,,,
,,,,,,,,,,,,,1,001,2025-02-07_16h39.28.691,IAT(Formal),2021.2.3,Win32,58.82352941,,,,,,,,,,,,,,space,10.2225,i,1,1.3001,0,0,0,57,1,他的,i,,,,,,,,,,,,,,,,,,,,,,,,,,,,,,,,,,,,,,,,,
,,,,,,,,,,,,,1,001,2025-02-07_16h39.28.691,IAT(Formal),2021.2.3,Win32,58.82352941,,,,,,,,,,,,,,,,,0,,0,1,1,75,1,他,i,,,,,,,,,,,,,,,,,,,,,,,,,,,,,,,,,,,,,,,,,
,,,,,,,,,,,,,1,001,2025-02-07_16h39.28.691,IAT(Formal),2021.2.3,Win32,58.82352941,,,,,,,,,,,,,,,,i,1,0.5112,0,2,2,67,1,他的,i,,,,,,,,,,,,,,,,,,,,,,,,,,,,,,,,,,,,,,,,,
,,,,,,,,,,,,,1,001,2025-02-07_16h39.28.691,IAT(Formal),2021.2.3,Win32,58.82352941,,,,,,,,,,,,,,,,i,1,0.5041,0,3,3,79,1,其他,i,,,,,,,,,,,,,,,,,,,,,,,,,,,,,,,,,,,,,,,,,
,,,,,,,,,,,,,1,001,2025-02-07_16h39.28.691,IAT(Formal),2021.2.3,Win32,58.82352941,,,,,,,,,,,,,,,,e,1,0.4909,0,4,4,0,1,我,e,,,,,,,,,,,,,,,,,,,,,,,,,,,,,,,,,,,,,,,,,
,,,,,,,,,,,,,1,001,2025-02-07_16h39.28.691,IAT(Formal),2021.2.3,Win32,58.82352941,,,,,,,,,,,,,,,,i,1,0.6354,0,5,5,66,1,他们,i,,,,,,,,,,,,,,,,,,,,,,,,,,,,,,,,,,,,,,,,,
,,,,,,,,,,,,,1,001,2025-02-07_16h39.28.691,IAT(Formal),2021.2.3,Win32,58.82352941,,,,,,,,,,,,,,,,e,1,0.532,0,6,6,74,1,俺,e,,,,,,,,,,,,,,,,,,,,,,,,,,,,,,,,,,,,,,,,,
,,,,,,,,,,,,,1,001,2025-02-07_16h39.28.691,IAT(Formal),2021.2.3,Win32,58.82352941,,,,,,,,,,,,,,,,i,1,0.7202,0,7,7,46,1,野蛮,i,,,,,,,,,,,,,,,,,,,,,,,,,,,,,,,,,,,,,,,,,
,,,,,,,,,,,,,1,001,2025-02-07_16h39.28.691,IAT(Formal),2021.2.3,Win32,58.82352941,,,,,,,,,,,,,,,,e,1,0.6652,0,8,8,3,1,自己,e,,,,,,,,,,,,,,,,,,,,,,,,,,,,,,,,,,,,,,,,,
,,,,,,,,,,,,,1,001,2025-02-07_16h39.28.691,IAT(Formal),2021.2.3,Win32,58.82352941,,,,,,,,,,,,,,,,e,0,0.4943,0,9,9,65,1,他,i,,,,,,,,,,,,,,,,,,,,,,,,,,,,,,,,,,,,,,,,,
,,,,,,,,,,,,,1,001,2025-02-07_16h39.28.691,IAT(Formal),2021.2.3,Win32,58.82352941,,,,,,,,,,,,,,,,i,1,0.6822,0,10,10,44,1,暴躁,i,,,,,,,,,,,,,,,,,,,,,,,,,,,,,,,,,,,,,,,,,
,,,,,,,,,,,,,1,001,2025-02-07_16h39.28.691,IAT(Formal),2021.2.3,Win32,58.82352941,,,,,,,,,,,,,,,,e,1,0.6259,0,11,11,28,1,活泼,e,,,,,,,,,,,,,,,,,,,,,,,,,,,,,,,,,,,,,,,,,
,,,,,,,,,,,,,1,001,2025-02-07_16h39.28.691,IAT(Formal),2021.2.3,Win32,58.82352941,,,,,,,,,,,,,,,,e,1,0.7656,0,12,12,24,1,朴实,e,,,,,,,,,,,,,,,,,,,,,,,,,,,,,,,,,,,,,,,,,
,,,,,,,,,,,,,1,001,2025-02-07_16h39.28.691,IAT(Formal),2021.2.3,Win32,58.82352941,,,,,,,,,,,,,,,,i,1,0.5858,0,13,13,32,1,愚蠢,i,,,,,,,,,,,,,,,,,,,,,,,,,,,,,,,,,,,,,,,,,
,,,,,,,,,,,,,1,001,2025-02-07_16h39.28.691,IAT(Formal),2021.2.3,Win32,58.82352941,,,,,,,,,,,,,,,,e,1,0.6459,0,14,14,21,1,稳重,e,,,,,,,,,,,,,,,,,,,,,,,,,,,,,,,,,,,,,,,,,
,,,,,,,,,,,,,1,001,2025-02-07_16h39.28.691,IAT(Formal),2021.2.3,Win32,58.82352941,,,,,,,,,,,,,,,,i,1,0.7648,0,15,15,35,1,消极,i,,,,,,,,,,,,,,,,,,,,,,,,,,,,,,,,,,,,,,,,,
,,,,,,,,,,,,,1,001,2025-02-07_16h39.28.691,IAT(Formal),2021.2.3,Win32,58.82352941,,,,,,,,,,,,,,,,i,1,1.2961,0,16,16,5,1,他,i,,,,,,,,,,,,,,,,,,,,,,,,,,,,,,,,,,,,,,,,,
,,,,,,,,,,,,,1,001,2025-02-07_16h39.28.691,IAT(Formal),2021.2.3,Win32,58.82352941,,,,,,,,,,,,,,,,i,1,0.8778,0,17,17,77,1,他的,i,,,,,,,,,,,,,,,,,,,,,,,,,,,,,,,,,,,,,,,,,
,,,,,,,,,,,,,1,001,2025-02-07_16h39.28.691,IAT(Formal),2021.2.3,Win32,58.82352941,,,,,,,,,,,,,,,,e,1,0.8153,0,18,18,52,1,我们,e,,,,,,,,,,,,,,,,,,,,,,,,,,,,,,,,,,,,,,,,,
,,,,,,,,,,,,,1,001,2025-02-07_16h39.28.691,IAT(Formal),2021.2.3,Win32,58.82352941,,,,,,,,,,,,,,,,i,1,0.547,0,19,19,34,1,悲观,i,,,,,,,,,,,,,,,,,,,,,,,,,,,,,,,,,,,,,,,,,
,,,,,,,,,,,,,1,001,2025-02-07_16h39.28.691,IAT(Formal),2021.2.3,Win32,58.82352941,,,,,,,,,,,,,,,,i,0,0.6012,0,20,20,22,1,无私,e,,,,,,,,,,,,,,,,,,,,,,,,,,,,,,,,,,,,,,,,,
,,,,,,,,,,,,,1,001,2025-02-07_16h39.28.691,IAT(Formal),2021.2.3,Win32,58.82352941,,,,,,,,,,,,,,,,,0,,0,21,21,29,1,诚恳,e,,,,,,,,,,,,,,,,,,,,,,,,,,,,,,,,,,,,,,,,,
,,,,,,,,,,,,,1,001,2025-02-07_16h39.28.691,IAT(Formal),2021.2.3,Win32,58.82352941,,,,,,,,,,,,,,,,e,1,0.5336,0,22,22,73,1,自己,e,,,,,,,,,,,,,,,,,,,,,,,,,,,,,,,,,,,,,,,,,
,,,,,,,,,,,,,1,001,2025-02-07_16h39.28.691,IAT(Formal),2021.2.3,Win32,58.82352941,,,,,,,,,,,,,,,,e,1,0.5445,0,23,23,1,1,我的,e,,,,,,,,,,,,,,,,,,,,,,,,,,,,,,,,,,,,,,,,,
,,,,,,,,,,,,,1,001,2025-02-07_16h39.28.691,IAT(Formal),2021.2.3,Win32,58.82352941,,,,,,,,,,,,,,,,e,1,0.5865,0,24,24,23,1,公正,e,,,,,,,,,,,,,,,,,,,,,,,,,,,,,,,,,,,,,,,,,
,,,,,,,,,,,,,1,001,2025-02-07_16h39.28.691,IAT(Formal),2021.2.3,Win32,58.82352941,,,,,,,,,,,,,,,,e,1,0.5603,0,25,25,11,1,崇高,e,,,,,,,,,,,,,,,,,,,,,,,,,,,,,,,,,,,,,,,,,
,,,,,,,,,,,,,1,001,2025-02-07_16h39.28.691,IAT(Formal),2021.2.3,Win32,58.82352941,,,,,,,,,,,,,,,,e,1,1.0304,0,26,26,26,1,冷静,e,,,,,,,,,,,,,,,,,,,,,,,,,,,,,,,,,,,,,,,,,
,,,,,,,,,,,,,1,001,2025-02-07_16h39.28.691,IAT(Formal),2021.2.3,Win32,58.82352941,,,,,,,,,,,,,,,,e,1,0.4487,0,27,27,19,1,机智,e,,,,,,,,,,,,,,,,,,,,,,,,,,,,,,,,,,,,,,,,,
,,,,,,,,,,,,,1,001,2025-02-07_16h39.28.691,IAT(Formal),2021.2.3,Win32,58.82352941,,,,,,,,,,,,,,,,e,0,0.3064,0,28,28,56,1,他们,i,,,,,,,,,,,,,,,,,,,,,,,,,,,,,,,,,,,,,,,,,
,,,,,,,,,,,,,1,001,2025-02-07_16h39.28.691,IAT(Formal),2021.2.3,Win32,58.82352941,,,,,,,,,,,,,,,,e,1,0.6658,0,29,29,12,1,聪明,e,,,,,,,,,,,,,,,,,,,,,,,,,,,,,,,,,,,,,,,,,
,,,,,,,,,,,,,1,001,2025-02-07_16h39.28.691,IAT(Formal),2021.2.3,Win32,58.82352941,,,,,,,,,,,,,,,,i,1,0.5859,0,30,30,40,1,执拗,i,,,,,,,,,,,,,,,,,,,,,,,,,,,,,,,,,,,,,,,,,
,,,,,,,,,,,,,1,001,2025-02-07_16h39.28.691,IAT(Formal),2021.2.3,Win32,58.82352941,,,,,,,,,,,,,,,,e,1,0.5381,0,31,31,25,1,细腻,e,,,,,,,,,,,,,,,,,,,,,,,,,,,,,,,,,,,,,,,,,
,,,,,,,,,,,,,1,001,2025-02-07_16h39.28.691,IAT(Formal),2021.2.3,Win32,58.82352941,,,,,,,,,,,,,,,,i,1,0.7162,0,32,32,58,1,他人,i,,,,,,,,,,,,,,,,,,,,,,,,,,,,,,,,,,,,,,,,,
,,,,,,,,,,,,,1,001,2025-02-07_16h39.28.691,IAT(Formal),2021.2.3,Win32,58.82352941,,,,,,,,,,,,,,,,e,1,0.7861,0,33,33,16,1,正直,e,,,,,,,,,,,,,,,,,,,,,,,,,,,,,,,,,,,,,,,,,
,,,,,,,,,,,,,1,001,2025-02-07_16h39.28.691,IAT(Formal),2021.2.3,Win32,58.82352941,,,,,,,,,,,,,,,,e,1,0.4934,0,34,34,2,1,我们,e,,,,,,,,,,,,,,,,,,,,,,,,,,,,,,,,,,,,,,,,,
,,,,,,,,,,,,,1,001,2025-02-07_16h39.28.691,IAT(Formal),2021.2.3,Win32,58.82352941,,,,,,,,,,,,,,,,e,1,0.5568,0,35,35,15,1,诚实,e,,,,,,,,,,,,,,,,,,,,,,,,,,,,,,,,,,,,,,,,,
,,,,,,,,,,,,,1,001,2025-02-07_16h39.28.691,IAT(Formal),2021.2.3,Win32,58.82352941,,,,,,,,,,,,,,,,i,1,1.1333,0,36,36,55,1,他,i,,,,,,,,,,,,,,,,,,,,,,,,,,,,,,,,,,,,,,,,,
,,,,,,,,,,,,,1,001,2025-02-07_16h39.28.691,IAT(Formal),2021.2.3,Win32,58.82352941,,,,,,,,,,,,,,,,e,0,0.5472,0,37,37,78,1,他人,i,,,,,,,,,,,,,,,,,,,,,,,,,,,,,,,,,,,,,,,,,
,,,,,,,,,,,,,1,001,2025-02-07_16h39.28.691,IAT(Formal),2021.2.3,Win32,58.82352941,,,,,,,,,,,,,,,,e,1,0.6652,0,38,38,62,1,我们,e,,,,,,,,,,,,,,,,,,,,,,,,,,,,,,,,,,,,,,,,,
,,,,,,,,,,,,,1,001,2025-02-07_16h39.28.691,IAT(Formal),2021.2.3,Win32,58.82352941,,,,,,,,,,,,,,,,e,1,0.5328,0,39,39,63,1,自己,e,,,,,,,,,,,,,,,,,,,,,,,,,,,,,,,,,,,,,,,,,
,,,,,,,,,,,,,1,001,2025-02-07_16h39.28.691,IAT(Formal),2021.2.3,Win32,58.82352941,,,,,,,,,,,,,,,,e,1,0.6516,0,40,40,13,1,杰出,e,,,,,,,,,,,,,,,,,,,,,,,,,,,,,,,,,,,,,,,,,
,,,,,,,,,,,,,1,001,2025-02-07_16h39.28.691,IAT(Formal),2021.2.3,Win32,58.82352941,,,,,,,,,,,,,,,,e,1,0.5126,0,41,41,17,1,勇敢,e,,,,,,,,,,,,,,,,,,,,,,,,,,,,,,,,,,,,,,,,,
,,,,,,,,,,,,,1,001,2025-02-07_16h39.28.691,IAT(Formal),2021.2.3,Win32,58.82352941,,,,,,,,,,,,,,,,e,0,1.1382,0,42,42,45,1,猖狂,i,,,,,,,,,,,,,,,,,,,,,,,,,,,,,,,,,,,,,,,,,
,,,,,,,,,,,,,1,001,2025-02-07_16h39.28.691,IAT(Formal),2021.2.3,Win32,58.82352941,,,,,,,,,,,,,,,,i,1,0.5649,0,43,43,47,1,固执,i,,,,,,,,,,,,,,,,,,,,,,,,,,,,,,,,,,,,,,,,,
,,,,,,,,,,,,,1,001,2025-02-07_16h39.28.691,IAT(Formal),2021.2.3,Win32,58.82352941,,,,,,,,,,,,,,,,i,1,0.4871,0,44,44,33,1,刻薄,i,,,,,,,,,,,,,,,,,,,,,,,,,,,,,,,,,,,,,,,,,
,,,,,,,,,,,,,1,001,2025-02-07_16h39.28.691,IAT(Formal),2021.2.3,Win32,58.82352941,,,,,,,,,,,,,,,,i,1,0.5895,0,45,45,31,1,虚伪,i,,,,,,,,,,,,,,,,,,,,,,,,,,,,,,,,,,,,,,,,,
,,,,,,,,,,,,,1,001,2025-02-07_16h39.28.691,IAT(Formal),2021.2.3,Win32,58.82352941,,,,,,,,,,,,,,,,e,1,0.5791,0,46,46,4,1,俺,e,,,,,,,,,,,,,,,,,,,,,,,,,,,,,,,,,,,,,,,,,
,,,,,,,,,,,,,1,001,2025-02-07_16h39.28.691,IAT(Formal),2021.2.3,Win32,58.82352941,,,,,,,,,,,,,,,,i,1,0.4335,0,47,47,9,1,其他,i,,,,,,,,,,,,,,,,,,,,,,,,,,,,,,,,,,,,,,,,,
,,,,,,,,,,,,,1,001,2025-02-07_16h39.28.691,IAT(Formal),2021.2.3,Win32,58.82352941,,,,,,,,,,,,,,,,i,1,0.5051,0,48,48,8,1,他人,i,,,,,,,,,,,,,,,,,,,,,,,,,,,,,,,,,,,,,,,,,
,,,,,,,,,,,,,1,001,2025-02-07_16h39.28.691,IAT(Formal),2021.2.3,Win32,58.82352941,,,,,,,,,,,,,,,,e,1,0.5645,0,49,49,61,1,我的,e,,,,,,,,,,,,,,,,,,,,,,,,,,,,,,,,,,,,,,,,,
,,,,,,,,,,,,,1,001,2025-02-07_16h39.28.691,IAT(Formal),2021.2.3,Win32,58.82352941,,,,,,,,,,,,,,,,e,1,0.5316,0,50,50,71,1,我的,e,,,,,,,,,,,,,,,,,,,,,,,,,,,,,,,,,,,,,,,,,
,,,,,,,,,,,,,1,001,2025-02-07_16h39.28.691,IAT(Formal),2021.2.3,Win32,58.82352941,,,,,,,,,,,,,,,,e,1,0.382,0,51,51,60,1,我,e,,,,,,,,,,,,,,,,,,,,,,,,,,,,,,,,,,,,,,,,,
,,,,,,,,,,,,,1,001,2025-02-07_16h39.28.691,IAT(Formal),2021.2.3,Win32,58.82352941,,,,,,,,,,,,,,,,e,1,0.3829,0,52,52,50,1,我,e,,,,,,,,,,,,,,,,,,,,,,,,,,,,,,,,,,,,,,,,,
,,,,,,,,,,,,,1,001,2025-02-07_16h39.28.691,IAT(Formal),2021.2.3,Win32,58.82352941,,,,,,,,,,,,,,,,e,1,0.493,0,53,53,53,1,自己,e,,,,,,,,,,,,,,,,,,,,,,,,,,,,,,,,,,,,,,,,,
,,,,,,,,,,,,,1,001,2025-02-07_16h39.28.691,IAT(Formal),2021.2.3,Win32,58.82352941,,,,,,,,,,,,,,,,e,0,0.2669,0,54,54,68,1,他人,i,,,,,,,,,,,,,,,,,,,,,,,,,,,,,,,,,,,,,,,,,
,,,,,,,,,,,,,1,001,2025-02-07_16h39.28.691,IAT(Formal),2021.2.3,Win32,58.82352941,,,,,,,,,,,,,,,,i,1,0.999,0,55,55,48,1,轻率,i,,,,,,,,,,,,,,,,,,,,,,,,,,,,,,,,,,,,,,,,,
,,,,,,,,,,,,,1,001,2025-02-07_16h39.28.691,IAT(Formal),2021.2.3,Win32,58.82352941,,,,,,,,,,,,,,,,e,1,1.0992,0,56,56,51,1,我的,e,,,,,,,,,,,,,,,,,,,,,,,,,,,,,,,,,,,,,,,,,
,,,,,,,,,,,,,1,001,2025-02-07_16h39.28.691,IAT(Formal),2021.2.3,Win32,58.82352941,,,,,,,,,,,,,,,,i,1,1.2369,0,57,57,41,1,散漫,i,,,,,,,,,,,,,,,,,,,,,,,,,,,,,,,,,,,,,,,,,
,,,,,,,,,,,,,1,001,2025-02-07_16h39.28.691,IAT(Formal),2021.2.3,Win32,58.82352941,,,,,,,,,,,,,,,,,0,,0,58,58,14,1,乐观,e,,,,,,,,,,,,,,,,,,,,,,,,,,,,,,,,,,,,,,,,,
,,,,,,,,,,,,,1,001,2025-02-07_16h39.28.691,IAT(Formal),2021.2.3,Win32,58.82352941,,,,,,,,,,,,,,,,i,0,0.9954,0,59,59,70,1,我,e,,,,,,,,,,,,,,,,,,,,,,,,,,,,,,,,,,,,,,,,,
,,,,,,,,,,,,,1,001,2025-02-07_16h39.28.691,IAT(Formal),2021.2.3,Win32,58.82352941,,,,,,,,,,,,,,,,i,1,0.6003,0,60,60,7,1,他的,i,,,,,,,,,,,,,,,,,,,,,,,,,,,,,,,,,,,,,,,,,
,,,,,,,,,,,,,1,001,2025-02-07_16h39.28.691,IAT(Formal),2021.2.3,Win32,58.82352941,,,,,,,,,,,,,,,,i,1,0.4955,0,61,61,49,1,下贱,i,,,,,,,,,,,,,,,,,,,,,,,,,,,,,,,,,,,,,,,,,
,,,,,,,,,,,,,1,001,2025-02-07_16h39.28.691,IAT(Formal),2021.2.3,Win32,58.82352941,,,,,,,,,,,,,,,,e,0,1.1375,0,62,62,76,1,他们,i,,,,,,,,,,,,,,,,,,,,,,,,,,,,,,,,,,,,,,,,,
,,,,,,,,,,,,,1,001,2025-02-07_16h39.28.691,IAT(Formal),2021.2.3,Win32,58.82352941,,,,,,,,,,,,,,,,e,1,0.6508,0,63,63,64,1,俺,e,,,,,,,,,,,,,,,,,,,,,,,,,,,,,,,,,,,,,,,,,
,,,,,,,,,,,,,1,001,2025-02-07_16h39.28.691,IAT(Formal),2021.2.3,Win32,58.82352941,,,,,,,,,,,,,,,,i,1,0.4966,0,64,64,69,1,其他,i,,,,,,,,,,,,,,,,,,,,,,,,,,,,,,,,,,,,,,,,,
,,,,,,,,,,,,,1,001,2025-02-07_16h39.28.691,IAT(Formal),2021.2.3,Win32,58.82352941,,,,,,,,,,,,,,,,i,1,0.7538,0,65,65,39,1,冒失,i,,,,,,,,,,,,,,,,,,,,,,,,,,,,,,,,,,,,,,,,,
,,,,,,,,,,,,,1,001,2025-02-07_16h39.28.691,IAT(Formal),2021.2.3,Win32,58.82352941,,,,,,,,,,,,,,,,i,1,0.4998,0,66,66,6,1,他们,i,,,,,,,,,,,,,,,,,,,,,,,,,,,,,,,,,,,,,,,,,
,,,,,,,,,,,,,1,001,2025-02-07_16h39.28.691,IAT(Formal),2021.2.3,Win32,58.82352941,,,,,,,,,,,,,,,,i,1,0.5955,0,67,67,38,1,鲁莽,i,,,,,,,,,,,,,,,,,,,,,,,,,,,,,,,,,,,,,,,,,
,,,,,,,,,,,,,1,001,2025-02-07_16h39.28.691,IAT(Formal),2021.2.3,Win32,58.82352941,,,,,,,,,,,,,,,,e,1,0.639,0,68,68,72,1,我们,e,,,,,,,,,,,,,,,,,,,,,,,,,,,,,,,,,,,,,,,,,
,,,,,,,,,,,,,1,001,2025-02-07_16h39.28.691,IAT(Formal),2021.2.3,Win32,58.82352941,,,,,,,,,,,,,,,,i,1,0.5787,0,69,69,30,1,卑鄙,i,,,,,,,,,,,,,,,,,,,,,,,,,,,,,,,,,,,,,,,,,
,,,,,,,,,,,,,1,001,2025-02-07_16h39.28.691,IAT(Formal),2021.2.3,Win32,58.82352941,,,,,,,,,,,,,,,,e,1,0.4812,0,70,70,27,1,热情,e,,,,,,,,,,,,,,,,,,,,,,,,,,,,,,,,,,,,,,,,,
,,,,,,,,,,,,,1,001,2025-02-07_16h39.28.691,IAT(Formal),2021.2.3,Win32,58.82352941,,,,,,,,,,,,,,,,i,1,0.5894,0,71,71,37,1,傲慢,i,,,,,,,,,,,,,,,,,,,,,,,,,,,,,,,,,,,,,,,,,
,,,,,,,,,,,,,1,001,2025-02-07_16h39.28.691,IAT(Formal),2021.2.3,Win32,58.82352941,,,,,,,,,,,,,,,,e,1,0.7377,0,72,72,10,1,优秀,e,,,,,,,,,,,,,,,,,,,,,,,,,,,,,,,,,,,,,,,,,
,,,,,,,,,,,,,1,001,2025-02-07_16h39.28.691,IAT(Formal),2021.2.3,Win32,58.82352941,,,,,,,,,,,,,,,,i,1,0.5771,0,73,73,43,1,自私,i,,,,,,,,,,,,,,,,,,,,,,,,,,,,,,,,,,,,,,,,,
,,,,,,,,,,,,,1,001,2025-02-07_16h39.28.691,IAT(Formal),2021.2.3,Win32,58.82352941,,,,,,,,,,,,,,,,i,1,0.7359,0,74,74,59,1,其他,i,,,,,,,,,,,,,,,,,,,,,,,,,,,,,,,,,,,,,,,,,
,,,,,,,,,,,,,1,001,2025-02-07_16h39.28.691,IAT(Formal),2021.2.3,Win32,58.82352941,,,,,,,,,,,,,,,,i,1,0.5063,0,75,75,36,1,自卑,i,,,,,,,,,,,,,,,,,,,,,,,,,,,,,,,,,,,,,,,,,
,,,,,,,,,,,,,1,001,2025-02-07_16h39.28.691,IAT(Formal),2021.2.3,Win32,58.82352941,,,,,,,,,,,,,,,,e,1,0.7488,0,76,76,54,1,俺,e,,,,,,,,,,,,,,,,,,,,,,,,,,,,,,,,,,,,,,,,,
,,,,,,,,,,,,,1,001,2025-02-07_16h39.28.691,IAT(Formal),2021.2.3,Win32,58.82352941,,,,,,,,,,,,,,,,e,1,1.2598,0,77,77,20,1,认真,e,,,,,,,,,,,,,,,,,,,,,,,,,,,,,,,,,,,,,,,,,
,,,,,,,,,,,,,1,001,2025-02-07_16h39.28.691,IAT(Formal),2021.2.3,Win32,58.82352941,,,,,,,,,,,,,,,,i,1,0.5391,0,78,78,42,1,凶狠,i,,,,,,,,,,,,,,,,,,,,,,,,,,,,,,,,,,,,,,,,,
,,,,,,,,,,,,,1,001,2025-02-07_16h39.28.691,IAT(Formal),2021.2.3,Win32,58.82352941,,,,,,,,,,,,,,,,e,1,1.0307,0,79,79,18,1,勤奋,e,,,,,,,,,,,,,,,,,,,,,,,,,,,,,,,,,,,,,,,,,
,,,,,,,,,,,,,1,001,2025-02-07_16h39.28.691,IAT(Formal),2021.2.3,Win32,58.82352941,,,,,,,,,,,,,,,,i,1,0.6294,,,,,,消极,i,space,9.8679,0,0,0,35,1,,,,,,,,,,,,,,,,,,,,,,,,,,,,,,,,,,
,,,,,,,,,,,,,1,001,2025-02-07_16h39.28.691,IAT(Formal),2021.2.3,Win32,58.82352941,,,,,,,,,,,,,,,,e,1,0.7812,,,,,,热情,e,,,0,1,1,27,1,,,,,,,,,,,,,,,,,,,,,,,,,,,,,,,,,,
,,,,,,,,,,,,,1,001,2025-02-07_16h39.28.691,IAT(Formal),2021.2.3,Win32,58.82352941,,,,,,,,,,,,,,,,i,1,0.9375,,,,,,自卑,i,,,0,2,2,36,1,,,,,,,,,,,,,,,,,,,,,,,,,,,,,,,,,,
,,,,,,,,,,,,,1,001,2025-02-07_16h39.28.691,IAT(Formal),2021.2.3,Win32,58.82352941,,,,,,,,,,,,,,,,i,1,1.0553,,,,,,固执,i,,,0,3,3,47,1,,,,,,,,,,,,,,,,,,,,,,,,,,,,,,,,,,
,,,,,,,,,,,,,1,001,2025-02-07_16h39.28.691,IAT(Formal),2021.2.3,Win32,58.82352941,,,,,,,,,,,,,,,,i,1,1.207,,,,,,散漫,i,,,0,4,4,41,1,,,,,,,,,,,,,,,,,,,,,,,,,,,,,,,,,,
,,,,,,,,,,,,,1,001,2025-02-07_16h39.28.691,IAT(Formal),2021.2.3,Win32,58.82352941,,,,,,,,,,,,,,,,e,1,0.6437,,,,,,乐观,e,,,0,5,5,14,1,,,,,,,,,,,,,,,,,,,,,,,,,,,,,,,,,,
,,,,,,,,,,,,,1,001,2025-02-07_16h39.28.691,IAT(Formal),2021.2.3,Win32,58.82352941,,,,,,,,,,,,,,,,i,1,0.4721,,,,,,他们,i,,,0,6,6,6,1,,,,,,,,,,,,,,,,,,,,,,,,,,,,,,,,,,
,,,,,,,,,,,,,1,001,2025-02-07_16h39.28.691,IAT(Formal),2021.2.3,Win32,58.82352941,,,,,,,,,,,,,,,,e,1,1.3828,,,,,,俺,e,,,0,7,7,4,1,,,,,,,,,,,,,,,,,,,,,,,,,,,,,,,,,,
,,,,,,,,,,,,,1,001,2025-02-07_16h39.28.691,IAT(Formal),2021.2.3,Win32,58.82352941,,,,,,,,,,,,,,,,e,1,0.6458,,,,,,机智,e,,,0,8,8,19,1,,,,,,,,,,,,,,,,,,,,,,,,,,,,,,,,,,
,,,,,,,,,,,,,1,001,2025-02-07_16h39.28.691,IAT(Formal),2021.2.3,Win32,58.82352941,,,,,,,,,,,,,,,,e,1,0.6309,,,,,,公正,e,,,0,9,9,23,1,,,,,,,,,,,,,,,,,,,,,,,,,,,,,,,,,,
,,,,,,,,,,,,,1,001,2025-02-07_16h39.28.691,IAT(Formal),2021.2.3,Win32,58.82352941,,,,,,,,,,,,,,,,i,1,0.5654,,,,,,愚蠢,i,,,0,10,10,32,1,,,,,,,,,,,,,,,,,,,,,,,,,,,,,,,,,,
,,,,,,,,,,,,,1,001,2025-02-07_16h39.28.691,IAT(Formal),2021.2.3,Win32,58.82352941,,,,,,,,,,,,,,,,e,1,0.5681,,,,,,活泼,e,,,0,11,11,28,1,,,,,,,,,,,,,,,,,,,,,,,,,,,,,,,,,,
,,,,,,,,,,,,,1,001,2025-02-07_16h39.28.691,IAT(Formal),2021.2.3,Win32,58.82352941,,,,,,,,,,,,,,,,i,1,0.5497,,,,,,冒失,i,,,0,12,12,39,1,,,,,,,,,,,,,,,,,,,,,,,,,,,,,,,,,,
,,,,,,,,,,,,,1,001,2025-02-07_16h39.28.691,IAT(Formal),2021.2.3,Win32,58.82352941,,,,,,,,,,,,,,,,e,1,0.7481,,,,,,我,e,,,0,13,13,60,1,,,,,,,,,,,,,,,,,,,,,,,,,,,,,,,,,,
,,,,,,,,,,,,,1,001,2025-02-07_16h39.28.691,IAT(Formal),2021.2.3,Win32,58.82352941,,,,,,,,,,,,,,,,i,1,0.5411,,,,,,下贱,i,,,0,14,14,49,1,,,,,,,,,,,,,,,,,,,,,,,,,,,,,,,,,,
,,,,,,,,,,,,,1,001,2025-02-07_16h39.28.691,IAT(Formal),2021.2.3,Win32,58.82352941,,,,,,,,,,,,,,,,e,1,1.1478,,,,,,杰出,e,,,0,15,15,13,1,,,,,,,,,,,,,,,,,,,,,,,,,,,,,,,,,,
,,,,,,,,,,,,,1,001,2025-02-07_16h39.28.691,IAT(Formal),2021.2.3,Win32,58.82352941,,,,,,,,,,,,,,,,i,1,1.3471,,,,,,刻薄,i,,,0,16,16,33,1,,,,,,,,,,,,,,,,,,,,,,,,,,,,,,,,,,
,,,,,,,,,,,,,1,001,2025-02-07_16h39.28.691,IAT(Formal),2021.2.3,Win32,58.82352941,,,,,,,,,,,,,,,,e,1,0.5487,,,,,,我的,e,,,0,17,17,71,1,,,,,,,,,,,,,,,,,,,,,,,,,,,,,,,,,,
,,,,,,,,,,,,,1,001,2025-02-07_16h39.28.691,IAT(Formal),2021.2.3,Win32,58.82352941,,,,,,,,,,,,,,,,e,1,0.4772,,,,,,自己,e,,,0,18,18,3,1,,,,,,,,,,,,,,,,,,,,,,,,,,,,,,,,,,
,,,,,,,,,,,,,1,001,2025-02-07_16h39.28.691,IAT(Formal),2021.2.3,Win32,58.82352941,,,,,,,,,,,,,,,,e,1,0.7555,,,,,,崇高,e,,,0,19,19,11,1,,,,,,,,,,,,,,,,,,,,,,,,,,,,,,,,,,
,,,,,,,,,,,,,1,001,2025-02-07_16h39.28.691,IAT(Formal),2021.2.3,Win32,58.82352941,,,,,,,,,,,,,,,,i,1,0.7306,,,,,,其他,i,,,0,20,20,69,1,,,,,,,,,,,,,,,,,,,,,,,,,,,,,,,,,,
,,,,,,,,,,,,,1,001,2025-02-07_16h39.28.691,IAT(Formal),2021.2.3,Win32,58.82352941,,,,,,,,,,,,,,,,i,1,0.7056,,,,,,悲观,i,,,0,21,21,34,1,,,,,,,,,,,,,,,,,,,,,,,,,,,,,,,,,,
,,,,,,,,,,,,,1,001,2025-02-07_16h39.28.691,IAT(Formal),2021.2.3,Win32,58.82352941,,,,,,,,,,,,,,,,e,1,0.4896,,,,,,自己,e,,,0,22,22,63,1,,,,,,,,,,,,,,,,,,,,,,,,,,,,,,,,,,
,,,,,,,,,,,,,1,001,2025-02-07_16h39.28.691,IAT(Formal),2021.2.3,Win32,58.82352941,,,,,,,,,,,,,,,,i,1,0.5939,,,,,,卑鄙,i,,,0,23,23,30,1,,,,,,,,,,,,,,,,,,,,,,,,,,,,,,,,,,
,,,,,,,,,,,,,1,001,2025-02-07_16h39.28.691,IAT(Formal),2021.2.3,Win32,58.82352941,,,,,,,,,,,,,,,,e,1,0.4963,,,,,,我们,e,,,0,24,24,72,1,,,,,,,,,,,,,,,,,,,,,,,,,,,,,,,,,,
,,,,,,,,,,,,,1,001,2025-02-07_16h39.28.691,IAT(Formal),2021.2.3,Win32,58.82352941,,,,,,,,,,,,,,,,i,0,0.5129,,,,,,认真,e,,,0,25,25,20,1,,,,,,,,,,,,,,,,,,,,,,,,,,,,,,,,,,
,,,,,,,,,,,,,1,001,2025-02-07_16h39.28.691,IAT(Formal),2021.2.3,Win32,58.82352941,,,,,,,,,,,,,,,,i,1,0.7943,,,,,,他的,i,,,0,26,26,77,1,,,,,,,,,,,,,,,,,,,,,,,,,,,,,,,,,,
,,,,,,,,,,,,,1,001,2025-02-07_16h39.28.691,IAT(Formal),2021.2.3,Win32,58.82352941,,,,,,,,,,,,,,,,i,1,0.5869,,,,,,野蛮,i,,,0,27,27,46,1,,,,,,,,,,,,,,,,,,,,,,,,,,,,,,,,,,
,,,,,,,,,,,,,1,001,2025-02-07_16h39.28.691,IAT(Formal),2021.2.3,Win32,58.82352941,,,,,,,,,,,,,,,,e,1,1.0166,,,,,,俺,e,,,0,28,28,64,1,,,,,,,,,,,,,,,,,,,,,,,,,,,,,,,,,,
,,,,,,,,,,,,,1,001,2025-02-07_16h39.28.691,IAT(Formal),2021.2.3,Win32,58.82352941,,,,,,,,,,,,,,,,i,1,0.8177,,,,,,他们,i,,,0,29,29,66,1,,,,,,,,,,,,,,,,,,,,,,,,,,,,,,,,,,
,,,,,,,,,,,,,1,001,2025-02-07_16h39.28.691,IAT(Formal),2021.2.3,Win32,58.82352941,,,,,,,,,,,,,,,,i,1,0.6195,,,,,,他们,i,,,0,30,30,76,1,,,,,,,,,,,,,,,,,,,,,,,,,,,,,,,,,,
,,,,,,,,,,,,,1,001,2025-02-07_16h39.28.691,IAT(Formal),2021.2.3,Win32,58.82352941,,,,,,,,,,,,,,,,e,1,1.0664,,,,,,正直,e,,,0,31,31,16,1,,,,,,,,,,,,,,,,,,,,,,,,,,,,,,,,,,
,,,,,,,,,,,,,1,001,2025-02-07_16h39.28.691,IAT(Formal),2021.2.3,Win32,58.82352941,,,,,,,,,,,,,,,,i,1,0.6199,,,,,,他,i,,,0,32,32,5,1,,,,,,,,,,,,,,,,,,,,,,,,,,,,,,,,,,
,,,,,,,,,,,,,1,001,2025-02-07_16h39.28.691,IAT(Formal),2021.2.3,Win32,58.82352941,,,,,,,,,,,,,,,,i,0,1.3703,,,,,,勤奋,e,,,0,33,33,18,1,,,,,,,,,,,,,,,,,,,,,,,,,,,,,,,,,,
,,,,,,,,,,,,,1,001,2025-02-07_16h39.28.691,IAT(Formal),2021.2.3,Win32,58.82352941,,,,,,,,,,,,,,,,i,1,0.5663,,,,,,其他,i,,,0,34,34,59,1,,,,,,,,,,,,,,,,,,,,,,,,,,,,,,,,,,
,,,,,,,,,,,,,1,001,2025-02-07_16h39.28.691,IAT(Formal),2021.2.3,Win32,58.82352941,,,,,,,,,,,,,,,,e,1,1.0261,,,,,,我的,e,,,0,35,35,1,1,,,,,,,,,,,,,,,,,,,,,,,,,,,,,,,,,,
,,,,,,,,,,,,,1,001,2025-02-07_16h39.28.691,IAT(Formal),2021.2.3,Win32,58.82352941,,,,,,,,,,,,,,,,i,0,0.5975,,,,,,稳重,e,,,0,36,36,21,1,,,,,,,,,,,,,,,,,,,,,,,,,,,,,,,,,,
,,,,,,,,,,,,,1,001,2025-02-07_16h39.28.691,IAT(Formal),2021.2.3,Win32,58.82352941,,,,,,,,,,,,,,,,i,1,0.7191,,,,,,他人,i,,,0,37,37,58,1,,,,,,,,,,,,,,,,,,,,,,,,,,,,,,,,,,
,,,,,,,,,,,,,1,001,2025-02-07_16h39.28.691,IAT(Formal),2021.2.3,Win32,58.82352941,,,,,,,,,,,,,,,,i,1,0.6757,,,,,,他人,i,,,0,38,38,78,1,,,,,,,,,,,,,,,,,,,,,,,,,,,,,,,,,,
,,,,,,,,,,,,,1,001,2025-02-07_16h39.28.691,IAT(Formal),2021.2.3,Win32,58.82352941,,,,,,,,,,,,,,,,i,1,0.4652,,,,,,他,i,,,0,39,39,75,1,,,,,,,,,,,,,,,,,,,,,,,,,,,,,,,,,,
,,,,,,,,,,,,,1,001,2025-02-07_16h39.28.691,IAT(Formal),2021.2.3,Win32,58.82352941,,,,,,,,,,,,,,,,e,1,0.5817,,,,,,聪明,e,,,0,40,40,12,1,,,,,,,,,,,,,,,,,,,,,,,,,,,,,,,,,,
,,,,,,,,,,,,,1,001,2025-02-07_16h39.28.691,IAT(Formal),2021.2.3,Win32,58.82352941,,,,,,,,,,,,,,,,i,1,0.723,,,,,,鲁莽,i,,,0,41,41,38,1,,,,,,,,,,,,,,,,,,,,,,,,,,,,,,,,,,
,,,,,,,,,,,,,1,001,2025-02-07_16h39.28.691,IAT(Formal),2021.2.3,Win32,58.82352941,,,,,,,,,,,,,,,,i,1,1.1657,,,,,,凶狠,i,,,0,42,42,42,1,,,,,,,,,,,,,,,,,,,,,,,,,,,,,,,,,,
,,,,,,,,,,,,,1,001,2025-02-07_16h39.28.691,IAT(Formal),2021.2.3,Win32,58.82352941,,,,,,,,,,,,,,,,i,1,0.6141,,,,,,其他,i,,,0,43,43,9,1,,,,,,,,,,,,,,,,,,,,,,,,,,,,,,,,,,
,,,,,,,,,,,,,1,001,2025-02-07_16h39.28.691,IAT(Formal),2021.2.3,Win32,58.82352941,,,,,,,,,,,,,,,,e,1,0.5069,,,,,,我们,e,,,0,44,44,52,1,,,,,,,,,,,,,,,,,,,,,,,,,,,,,,,,,,
,,,,,,,,,,,,,1,001,2025-02-07_16h39.28.691,IAT(Formal),2021.2.3,Win32,58.82352941,,,,,,,,,,,,,,,,i,1,0.9153,,,,,,自私,i,,,0,45,45,43,1,,,,,,,,,,,,,,,,,,,,,,,,,,,,,,,,,,
,,,,,,,,,,,,,1,001,2025-02-07_16h39.28.691,IAT(Formal),2021.2.3,Win32,58.82352941,,,,,,,,,,,,,,,,e,1,0.6879,,,,,,俺,e,,,0,46,46,74,1,,,,,,,,,,,,,,,,,,,,,,,,,,,,,,,,,,
,,,,,,,,,,,,,1,001,2025-02-07_16h39.28.691,IAT(Formal),2021.2.3,Win32,58.82352941,,,,,,,,,,,,,,,,e,1,0.4509,,,,,,我,e,,,0,47,47,0,1,,,,,,,,,,,,,,,,,,,,,,,,,,,,,,,,,,
,,,,,,,,,,,,,1,001,2025-02-07_16h39.28.691,IAT(Formal),2021.2.3,Win32,58.82352941,,,,,,,,,,,,,,,,e,1,0.6303,,,,,,我们,e,,,0,48,48,2,1,,,,,,,,,,,,,,,,,,,,,,,,,,,,,,,,,,
,,,,,,,,,,,,,1,001,2025-02-07_16h39.28.691,IAT(Formal),2021.2.3,Win32,58.82352941,,,,,,,,,,,,,,,,e,1,0.545,,,,,,自己,e,,,0,49,49,53,1,,,,,,,,,,,,,,,,,,,,,,,,,,,,,,,,,,
,,,,,,,,,,,,,1,001,2025-02-07_16h39.28.691,IAT(Formal),2021.2.3,Win32,58.82352941,,,,,,,,,,,,,,,,e,1,0.428,,,,,,我们,e,,,0,50,50,62,1,,,,,,,,,,,,,,,,,,,,,,,,,,,,,,,,,,
,,,,,,,,,,,,,1,001,2025-02-07_16h39.28.691,IAT(Formal),2021.2.3,Win32,58.82352941,,,,,,,,,,,,,,,,i,1,0.8422,,,,,,他,i,,,0,51,51,65,1,,,,,,,,,,,,,,,,,,,,,,,,,,,,,,,,,,
,,,,,,,,,,,,,1,001,2025-02-07_16h39.28.691,IAT(Formal),2021.2.3,Win32,58.82352941,,,,,,,,,,,,,,,,i,1,0.4486,,,,,,他人,i,,,0,52,52,68,1,,,,,,,,,,,,,,,,,,,,,,,,,,,,,,,,,,
,,,,,,,,,,,,,1,001,2025-02-07_16h39.28.691,IAT(Formal),2021.2.3,Win32,58.82352941,,,,,,,,,,,,,,,,i,1,0.5335,,,,,,他的,i,,,0,53,53,7,1,,,,,,,,,,,,,,,,,,,,,,,,,,,,,,,,,,
,,,,,,,,,,,,,1,001,2025-02-07_16h39.28.691,IAT(Formal),2021.2.3,Win32,58.82352941,,,,,,,,,,,,,,,,i,1,0.6303,,,,,,执拗,i,,,0,54,54,40,1,,,,,,,,,,,,,,,,,,,,,,,,,,,,,,,,,,
,,,,,,,,,,,,,1,001,2025-02-07_16h39.28.691,IAT(Formal),2021.2.3,Win32,58.82352941,,,,,,,,,,,,,,,,e,1,0.6627,,,,,,优秀,e,,,0,55,55,10,1,,,,,,,,,,,,,,,,,,,,,,,,,,,,,,,,,,
,,,,,,,,,,,,,1,001,2025-02-07_16h39.28.691,IAT(Formal),2021.2.3,Win32,58.82352941,,,,,,,,,,,,,,,,i,1,0.6512,,,,,,虚伪,i,,,0,56,56,31,1,,,,,,,,,,,,,,,,,,,,,,,,,,,,,,,,,,
,,,,,,,,,,,,,1,001,2025-02-07_16h39.28.691,IAT(Formal),2021.2.3,Win32,58.82352941,,,,,,,,,,,,,,,,i,1,0.7733,,,,,,他的,i,,,0,57,57,67,1,,,,,,,,,,,,,,,,,,,,,,,,,,,,,,,,,,
,,,,,,,,,,,,,1,001,2025-02-07_16h39.28.691,IAT(Formal),2021.2.3,Win32,58.82352941,,,,,,,,,,,,,,,,i,0,1.4272,,,,,,冷静,e,,,0,58,58,26,1,,,,,,,,,,,,,,,,,,,,,,,,,,,,,,,,,,
,,,,,,,,,,,,,1,001,2025-02-07_16h39.28.691,IAT(Formal),2021.2.3,Win32,58.82352941,,,,,,,,,,,,,,,,e,0,1.123,,,,,,他人,i,,,0,59,59,8,1,,,,,,,,,,,,,,,,,,,,,,,,,,,,,,,,,,
,,,,,,,,,,,,,1,001,2025-02-07_16h39.28.691,IAT(Formal),2021.2.3,Win32,58.82352941,,,,,,,,,,,,,,,,,0,,,,,,,细腻,e,,,0,60,60,25,1,,,,,,,,,,,,,,,,,,,,,,,,,,,,,,,,,,
,,,,,,,,,,,,,1,001,2025-02-07_16h39.28.691,IAT(Formal),2021.2.3,Win32,58.82352941,,,,,,,,,,,,,,,,i,1,0.5786,,,,,,其他,i,,,0,61,61,79,1,,,,,,,,,,,,,,,,,,,,,,,,,,,,,,,,,,
,,,,,,,,,,,,,1,001,2025-02-07_16h39.28.691,IAT(Formal),2021.2.3,Win32,58.82352941,,,,,,,,,,,,,,,,i,1,0.6271,,,,,,暴躁,i,,,0,62,62,44,1,,,,,,,,,,,,,,,,,,,,,,,,,,,,,,,,,,
,,,,,,,,,,,,,1,001,2025-02-07_16h39.28.691,IAT(Formal),2021.2.3,Win32,58.82352941,,,,,,,,,,,,,,,,i,1,0.8795,,,,,,他的,i,,,0,63,63,57,1,,,,,,,,,,,,,,,,,,,,,,,,,,,,,,,,,,
,,,,,,,,,,,,,1,001,2025-02-07_16h39.28.691,IAT(Formal),2021.2.3,Win32,58.82352941,,,,,,,,,,,,,,,,e,1,0.4725,,,,,,我的,e,,,0,64,64,61,1,,,,,,,,,,,,,,,,,,,,,,,,,,,,,,,,,,
,,,,,,,,,,,,,1,001,2025-02-07_16h39.28.691,IAT(Formal),2021.2.3,Win32,58.82352941,,,,,,,,,,,,,,,,i,1,0.6114,,,,,,猖狂,i,,,0,65,65,45,1,,,,,,,,,,,,,,,,,,,,,,,,,,,,,,,,,,
,,,,,,,,,,,,,1,001,2025-02-07_16h39.28.691,IAT(Formal),2021.2.3,Win32,58.82352941,,,,,,,,,,,,,,,,e,1,0.6494,,,,,,我的,e,,,0,66,66,51,1,,,,,,,,,,,,,,,,,,,,,,,,,,,,,,,,,,
,,,,,,,,,,,,,1,001,2025-02-07_16h39.28.691,IAT(Formal),2021.2.3,Win32,58.82352941,,,,,,,,,,,,,,,,e,1,0.698,,,,,,朴实,e,,,0,67,67,24,1,,,,,,,,,,,,,,,,,,,,,,,,,,,,,,,,,,
,,,,,,,,,,,,,1,001,2025-02-07_16h39.28.691,IAT(Formal),2021.2.3,Win32,58.82352941,,,,,,,,,,,,,,,,e,1,0.4674,,,,,,我,e,,,0,68,68,70,1,,,,,,,,,,,,,,,,,,,,,,,,,,,,,,,,,,
,,,,,,,,,,,,,1,001,2025-02-07_16h39.28.691,IAT(Formal),2021.2.3,Win32,58.82352941,,,,,,,,,,,,,,,,e,1,0.3967,,,,,,俺,e,,,0,69,69,54,1,,,,,,,,,,,,,,,,,,,,,,,,,,,,,,,,,,
,,,,,,,,,,,,,1,001,2025-02-07_16h39.28.691,IAT(Formal),2021.2.3,Win32,58.82352941,,,,,,,,,,,,,,,,i,1,0.822,,,,,,他们,i,,,0,70,70,56,1,,,,,,,,,,,,,,,,,,,,,,,,,,,,,,,,,,
,,,,,,,,,,,,,1,001,2025-02-07_16h39.28.691,IAT(Formal),2021.2.3,Win32,58.82352941,,,,,,,,,,,,,,,,e,1,1.2034,,,,,,勇敢,e,,,0,71,71,17,1,,,,,,,,,,,,,,,,,,,,,,,,,,,,,,,,,,
,,,,,,,,,,,,,1,001,2025-02-07_16h39.28.691,IAT(Formal),2021.2.3,Win32,58.82352941,,,,,,,,,,,,,,,,i,1,0.805,,,,,,轻率,i,,,0,72,72,48,1,,,,,,,,,,,,,,,,,,,,,,,,,,,,,,,,,,
,,,,,,,,,,,,,1,001,2025-02-07_16h39.28.691,IAT(Formal),2021.2.3,Win32,58.82352941,,,,,,,,,,,,,,,,e,1,0.6363,,,,,,我,e,,,0,73,73,50,1,,,,,,,,,,,,,,,,,,,,,,,,,,,,,,,,,,
,,,,,,,,,,,,,1,001,2025-02-07_16h39.28.691,IAT(Formal),2021.2.3,Win32,58.82352941,,,,,,,,,,,,,,,,e,1,0.969,,,,,,诚实,e,,,0,74,74,15,1,,,,,,,,,,,,,,,,,,,,,,,,,,,,,,,,,,
,,,,,,,,,,,,,1,001,2025-02-07_16h39.28.691,IAT(Formal),2021.2.3,Win32,58.82352941,,,,,,,,,,,,,,,,i,1,0.5376,,,,,,他,i,,,0,75,75,55,1,,,,,,,,,,,,,,,,,,,,,,,,,,,,,,,,,,
,,,,,,,,,,,,,1,001,2025-02-07_16h39.28.691,IAT(Formal),2021.2.3,Win32,58.82352941,,,,,,,,,,,,,,,,i,1,0.6704,,,,,,傲慢,i,,,0,76,76,37,1,,,,,,,,,,,,,,,,,,,,,,,,,,,,,,,,,,
,,,,,,,,,,,,,1,001,2025-02-07_16h39.28.691,IAT(Formal),2021.2.3,Win32,58.82352941,,,,,,,,,,,,,,,,e,1,0.6689,,,,,,诚恳,e,,,0,77,77,29,1,,,,,,,,,,,,,,,,,,,,,,,,,,,,,,,,,,
,,,,,,,,,,,,,1,001,2025-02-07_16h39.28.691,IAT(Formal),2021.2.3,Win32,58.82352941,,,,,,,,,,,,,,,,i,0,0.5339,,,,,,无私,e,,,0,78,78,22,1,,,,,,,,,,,,,,,,,,,,,,,,,,,,,,,,,,
,,,,,,,,,,,,,1,001,2025-02-07_16h39.28.691,IAT(Formal),2021.2.3,Win32,58.82352941,,,,,,,,,,,,,,,,e,1,0.7682,,,,,,自己,e,,,0,79,79,73,1,,,,,,,,,,,,,,,,,,,,,,,,,,,,,,,,,,
,,,,,,,,,,,,,1,001,2025-02-07_16h39.28.691,IAT(Formal),2021.2.3,Win32,58.82352941,,,,,,,,,,,,,,,,i,1,0.6322,,,,,,他的,i,,,1,0,80,7,1,,,,,,,,,,,,,,,,,,,,,,,,,,,,,,,,,,
,,,,,,,,,,,,,1,001,2025-02-07_16h39.28.691,IAT(Formal),2021.2.3,Win32,58.82352941,,,,,,,,,,,,,,,,e,1,0.5562,,,,,,活泼,e,,,1,1,81,28,1,,,,,,,,,,,,,,,,,,,,,,,,,,,,,,,,,,
,,,,,,,,,,,,,1,001,2025-02-07_16h39.28.691,IAT(Formal),2021.2.3,Win32,58.82352941,,,,,,,,,,,,,,,,i,1,0.5645,,,,,,其他,i,,,1,2,82,79,1,,,,,,,,,,,,,,,,,,,,,,,,,,,,,,,,,,
,,,,,,,,,,,,,1,001,2025-02-07_16h39.28.691,IAT(Formal),2021.2.3,Win32,58.82352941,,,,,,,,,,,,,,,,i,1,0.5532,,,,,,执拗,i,,,1,3,83,40,1,,,,,,,,,,,,,,,,,,,,,,,,,,,,,,,,,,
,,,,,,,,,,,,,1,001,2025-02-07_16h39.28.691,IAT(Formal),2021.2.3,Win32,58.82352941,,,,,,,,,,,,,,,,i,1,0.5927,,,,,,下贱,i,,,1,4,84,49,1,,,,,,,,,,,,,,,,,,,,,,,,,,,,,,,,,,
,,,,,,,,,,,,,1,001,2025-02-07_16h39.28.691,IAT(Formal),2021.2.3,Win32,58.82352941,,,,,,,,,,,,,,,,,0,,,,,,,细腻,e,,,1,5,85,25,1,,,,,,,,,,,,,,,,,,,,,,,,,,,,,,,,,,
,,,,,,,,,,,,,1,001,2025-02-07_16h39.28.691,IAT(Formal),2021.2.3,Win32,58.82352941,,,,,,,,,,,,,,,,e,1,0.5521,,,,,,我的,e,,,1,6,86,1,1,,,,,,,,,,,,,,,,,,,,,,,,,,,,,,,,,,
,,,,,,,,,,,,,1,001,2025-02-07_16h39.28.691,IAT(Formal),2021.2.3,Win32,58.82352941,,,,,,,,,,,,,,,,e,1,0.5351,,,,,,俺,e,,,1,7,87,74,1,,,,,,,,,,,,,,,,,,,,,,,,,,,,,,,,,,
,,,,,,,,,,,,,1,001,2025-02-07_16h39.28.691,IAT(Formal),2021.2.3,Win32,58.82352941,,,,,,,,,,,,,,,,e,1,0.5676,,,,,,自己,e,,,1,8,88,3,1,,,,,,,,,,,,,,,,,,,,,,,,,,,,,,,,,,
,,,,,,,,,,,,,1,001,2025-02-07_16h39.28.691,IAT(Formal),2021.2.3,Win32,58.82352941,,,,,,,,,,,,,,,,e,1,0.4184,,,,,,优秀,e,,,1,9,89,10,1,,,,,,,,,,,,,,,,,,,,,,,,,,,,,,,,,,
,,,,,,,,,,,,,1,001,2025-02-07_16h39.28.691,IAT(Formal),2021.2.3,Win32,58.82352941,,,,,,,,,,,,,,,,e,1,0.4675,,,,,,崇高,e,,,1,10,90,11,1,,,,,,,,,,,,,,,,,,,,,,,,,,,,,,,,,,
,,,,,,,,,,,,,1,001,2025-02-07_16h39.28.691,IAT(Formal),2021.2.3,Win32,58.82352941,,,,,,,,,,,,,,,,e,0,0.4515,,,,,,他们,i,,,1,11,91,66,1,,,,,,,,,,,,,,,,,,,,,,,,,,,,,,,,,,
,,,,,,,,,,,,,1,001,2025-02-07_16h39.28.691,IAT(Formal),2021.2.3,Win32,58.82352941,,,,,,,,,,,,,,,,e,1,0.78,,,,,,勇敢,e,,,1,12,92,17,1,,,,,,,,,,,,,,,,,,,,,,,,,,,,,,,,,,
,,,,,,,,,,,,,1,001,2025-02-07_16h39.28.691,IAT(Formal),2021.2.3,Win32,58.82352941,,,,,,,,,,,,,,,,i,1,0.6415,,,,,,他,i,,,1,13,93,55,1,,,,,,,,,,,,,,,,,,,,,,,,,,,,,,,,,,
,,,,,,,,,,,,,1,001,2025-02-07_16h39.28.691,IAT(Formal),2021.2.3,Win32,58.82352941,,,,,,,,,,,,,,,,i,1,0.5021,,,,,,散漫,i,,,1,14,94,41,1,,,,,,,,,,,,,,,,,,,,,,,,,,,,,,,,,,
,,,,,,,,,,,,,1,001,2025-02-07_16h39.28.691,IAT(Formal),2021.2.3,Win32,58.82352941,,,,,,,,,,,,,,,,i,1,0.6444,,,,,,虚伪,i,,,1,15,95,31,1,,,,,,,,,,,,,,,,,,,,,,,,,,,,,,,,,,
,,,,,,,,,,,,,1,001,2025-02-07_16h39.28.691,IAT(Formal),2021.2.3,Win32,58.82352941,,,,,,,,,,,,,,,,e,1,0.5611,,,,,,俺,e,,,1,16,96,54,1,,,,,,,,,,,,,,,,,,,,,,,,,,,,,,,,,,
,,,,,,,,,,,,,1,001,2025-02-07_16h39.28.691,IAT(Formal),2021.2.3,Win32,58.82352941,,,,,,,,,,,,,,,,i,1,0.531,,,,,,悲观,i,,,1,17,97,34,1,,,,,,,,,,,,,,,,,,,,,,,,,,,,,,,,,,
,,,,,,,,,,,,,1,001,2025-02-07_16h39.28.691,IAT(Formal),2021.2.3,Win32,58.82352941,,,,,,,,,,,,,,,,i,0,0.5275,,,,,,无私,e,,,1,18,98,22,1,,,,,,,,,,,,,,,,,,,,,,,,,,,,,,,,,,
,,,,,,,,,,,,,1,001,2025-02-07_16h39.28.691,IAT(Formal),2021.2.3,Win32,58.82352941,,,,,,,,,,,,,,,,e,1,0.4566,,,,,,我们,e,,,1,19,99,62,1,,,,,,,,,,,,,,,,,,,,,,,,,,,,,,,,,,
,,,,,,,,,,,,,1,001,2025-02-07_16h39.28.691,IAT(Formal),2021.2.3,Win32,58.82352941,,,,,,,,,,,,,,,,i,1,0.7452,,,,,,他们,i,,,1,20,100,56,1,,,,,,,,,,,,,,,,,,,,,,,,,,,,,,,,,,
,,,,,,,,,,,,,1,001,2025-02-07_16h39.28.691,IAT(Formal),2021.2.3,Win32,58.82352941,,,,,,,,,,,,,,,,i,1,0.4948,,,,,,他人,i,,,1,21,101,78,1,,,,,,,,,,,,,,,,,,,,,,,,,,,,,,,,,,
,,,,,,,,,,,,,1,001,2025-02-07_16h39.28.691,IAT(Formal),2021.2.3,Win32,58.82352941,,,,,,,,,,,,,,,,i,1,0.4322,,,,,,他人,i,,,1,22,102,8,1,,,,,,,,,,,,,,,,,,,,,,,,,,,,,,,,,,
,,,,,,,,,,,,,1,001,2025-02-07_16h39.28.691,IAT(Formal),2021.2.3,Win32,58.82352941,,,,,,,,,,,,,,,,i,1,0.415,,,,,,他,i,,,1,23,103,75,1,,,,,,,,,,,,,,,,,,,,,,,,,,,,,,,,,,
,,,,,,,,,,,,,1,001,2025-02-07_16h39.28.691,IAT(Formal),2021.2.3,Win32,58.82352941,,,,,,,,,,,,,,,,e,1,0.4637,,,,,,我们,e,,,1,24,104,72,1,,,,,,,,,,,,,,,,,,,,,,,,,,,,,,,,,,
,,,,,,,,,,,,,1,001,2025-02-07_16h39.28.691,IAT(Formal),2021.2.3,Win32,58.82352941,,,,,,,,,,,,,,,,i,1,0.4367,,,,,,他人,i,,,1,25,105,58,1,,,,,,,,,,,,,,,,,,,,,,,,,,,,,,,,,,
,,,,,,,,,,,,,1,001,2025-02-07_16h39.28.691,IAT(Formal),2021.2.3,Win32,58.82352941,,,,,,,,,,,,,,,,i,1,0.6387,,,,,,固执,i,,,1,26,106,47,1,,,,,,,,,,,,,,,,,,,,,,,,,,,,,,,,,,
,,,,,,,,,,,,,1,001,2025-02-07_16h39.28.691,IAT(Formal),2021.2.3,Win32,58.82352941,,,,,,,,,,,,,,,,i,1,0.5986,,,,,,他的,i,,,1,27,107,67,1,,,,,,,,,,,,,,,,,,,,,,,,,,,,,,,,,,
,,,,,,,,,,,,,1,001,2025-02-07_16h39.28.691,IAT(Formal),2021.2.3,Win32,58.82352941,,,,,,,,,,,,,,,,e,1,0.6126,,,,,,诚实,e,,,1,28,108,15,1,,,,,,,,,,,,,,,,,,,,,,,,,,,,,,,,,,
,,,,,,,,,,,,,1,001,2025-02-07_16h39.28.691,IAT(Formal),2021.2.3,Win32,58.82352941,,,,,,,,,,,,,,,,e,1,0.5732,,,,,,认真,e,,,1,29,109,20,1,,,,,,,,,,,,,,,,,,,,,,,,,,,,,,,,,,
,,,,,,,,,,,,,1,001,2025-02-07_16h39.28.691,IAT(Formal),2021.2.3,Win32,58.82352941,,,,,,,,,,,,,,,,e,1,0.5516,,,,,,我们,e,,,1,30,110,2,1,,,,,,,,,,,,,,,,,,,,,,,,,,,,,,,,,,
,,,,,,,,,,,,,1,001,2025-02-07_16h39.28.691,IAT(Formal),2021.2.3,Win32,58.82352941,,,,,,,,,,,,,,,,e,1,0.8353,,,,,,正直,e,,,1,31,111,16,1,,,,,,,,,,,,,,,,,,,,,,,,,,,,,,,,,,
,,,,,,,,,,,,,1,001,2025-02-07_16h39.28.691,IAT(Formal),2021.2.3,Win32,58.82352941,,,,,,,,,,,,,,,,e,1,0.6066,,,,,,我,e,,,1,32,112,50,1,,,,,,,,,,,,,,,,,,,,,,,,,,,,,,,,,,
,,,,,,,,,,,,,1,001,2025-02-07_16h39.28.691,IAT(Formal),2021.2.3,Win32,58.82352941,,,,,,,,,,,,,,,,i,1,0.6082,,,,,,消极,i,,,1,33,113,35,1,,,,,,,,,,,,,,,,,,,,,,,,,,,,,,,,,,
,,,,,,,,,,,,,1,001,2025-02-07_16h39.28.691,IAT(Formal),2021.2.3,Win32,58.82352941,,,,,,,,,,,,,,,,i,1,0.5899,,,,,,他人,i,,,1,34,114,68,1,,,,,,,,,,,,,,,,,,,,,,,,,,,,,,,,,,
,,,,,,,,,,,,,1,001,2025-02-07_16h39.28.691,IAT(Formal),2021.2.3,Win32,58.82352941,,,,,,,,,,,,,,,,e,1,0.9325,,,,,,乐观,e,,,1,35,115,14,1,,,,,,,,,,,,,,,,,,,,,,,,,,,,,,,,,,
,,,,,,,,,,,,,1,001,2025-02-07_16h39.28.691,IAT(Formal),2021.2.3,Win32,58.82352941,,,,,,,,,,,,,,,,e,1,0.6512,,,,,,诚恳,e,,,1,36,116,29,1,,,,,,,,,,,,,,,,,,,,,,,,,,,,,,,,,,
,,,,,,,,,,,,,1,001,2025-02-07_16h39.28.691,IAT(Formal),2021.2.3,Win32,58.82352941,,,,,,,,,,,,,,,,e,1,0.5558,,,,,,我,e,,,1,37,117,70,1,,,,,,,,,,,,,,,,,,,,,,,,,,,,,,,,,,
,,,,,,,,,,,,,1,001,2025-02-07_16h39.28.691,IAT(Formal),2021.2.3,Win32,58.82352941,,,,,,,,,,,,,,,,i,0,0.7834,,,,,,杰出,e,,,1,38,118,13,1,,,,,,,,,,,,,,,,,,,,,,,,,,,,,,,,,,
,,,,,,,,,,,,,1,001,2025-02-07_16h39.28.691,IAT(Formal),2021.2.3,Win32,58.82352941,,,,,,,,,,,,,,,,e,1,0.512,,,,,,自己,e,,,1,39,119,63,1,,,,,,,,,,,,,,,,,,,,,,,,,,,,,,,,,,
,,,,,,,,,,,,,1,001,2025-02-07_16h39.28.691,IAT(Formal),2021.2.3,Win32,58.82352941,,,,,,,,,,,,,,,,e,1,0.4202,,,,,,自己,e,,,1,40,120,73,1,,,,,,,,,,,,,,,,,,,,,,,,,,,,,,,,,,
,,,,,,,,,,,,,1,001,2025-02-07_16h39.28.691,IAT(Formal),2021.2.3,Win32,58.82352941,,,,,,,,,,,,,,,,i,1,0.8183,,,,,,凶狠,i,,,1,41,121,42,1,,,,,,,,,,,,,,,,,,,,,,,,,,,,,,,,,,
,,,,,,,,,,,,,1,001,2025-02-07_16h39.28.691,IAT(Formal),2021.2.3,Win32,58.82352941,,,,,,,,,,,,,,,,e,1,0.5694,,,,,,我的,e,,,1,42,122,61,1,,,,,,,,,,,,,,,,,,,,,,,,,,,,,,,,,,
,,,,,,,,,,,,,1,001,2025-02-07_16h39.28.691,IAT(Formal),2021.2.3,Win32,58.82352941,,,,,,,,,,,,,,,,i,1,0.6001,,,,,,他们,i,,,1,43,123,6,1,,,,,,,,,,,,,,,,,,,,,,,,,,,,,,,,,,
,,,,,,,,,,,,,1,001,2025-02-07_16h39.28.691,IAT(Formal),2021.2.3,Win32,58.82352941,,,,,,,,,,,,,,,,e,1,0.7537,,,,,,热情,e,,,1,44,124,27,1,,,,,,,,,,,,,,,,,,,,,,,,,,,,,,,,,,
,,,,,,,,,,,,,1,001,2025-02-07_16h39.28.691,IAT(Formal),2021.2.3,Win32,58.82352941,,,,,,,,,,,,,,,,i,1,0.7503,,,,,,卑鄙,i,,,1,45,125,30,1,,,,,,,,,,,,,,,,,,,,,,,,,,,,,,,,,,
,,,,,,,,,,,,,1,001,2025-02-07_16h39.28.691,IAT(Formal),2021.2.3,Win32,58.82352941,,,,,,,,,,,,,,,,i,1,1.083,,,,,,愚蠢,i,,,1,46,126,32,1,,,,,,,,,,,,,,,,,,,,,,,,,,,,,,,,,,
,,,,,,,,,,,,,1,001,2025-02-07_16h39.28.691,IAT(Formal),2021.2.3,Win32,58.82352941,,,,,,,,,,,,,,,,i,1,0.5553,,,,,,猖狂,i,,,1,47,127,45,1,,,,,,,,,,,,,,,,,,,,,,,,,,,,,,,,,,
,,,,,,,,,,,,,1,001,2025-02-07_16h39.28.691,IAT(Formal),2021.2.3,Win32,58.82352941,,,,,,,,,,,,,,,,i,1,0.598,,,,,,野蛮,i,,,1,48,128,46,1,,,,,,,,,,,,,,,,,,,,,,,,,,,,,,,,,,
,,,,,,,,,,,,,1,001,2025-02-07_16h39.28.691,IAT(Formal),2021.2.3,Win32,58.82352941,,,,,,,,,,,,,,,,i,1,0.6683,,,,,,其他,i,,,1,49,129,69,1,,,,,,,,,,,,,,,,,,,,,,,,,,,,,,,,,,
,,,,,,,,,,,,,1,001,2025-02-07_16h39.28.691,IAT(Formal),2021.2.3,Win32,58.82352941,,,,,,,,,,,,,,,,i,1,0.467,,,,,,冒失,i,,,1,50,130,39,1,,,,,,,,,,,,,,,,,,,,,,,,,,,,,,,,,,
,,,,,,,,,,,,,1,001,2025-02-07_16h39.28.691,IAT(Formal),2021.2.3,Win32,58.82352941,,,,,,,,,,,,,,,,i,0,0.5307,,,,,,公正,e,,,1,51,131,23,1,,,,,,,,,,,,,,,,,,,,,,,,,,,,,,,,,,
,,,,,,,,,,,,,1,001,2025-02-07_16h39.28.691,IAT(Formal),2021.2.3,Win32,58.82352941,,,,,,,,,,,,,,,,e,1,1.0516,,,,,,勤奋,e,,,1,52,132,18,1,,,,,,,,,,,,,,,,,,,,,,,,,,,,,,,,,,
,,,,,,,,,,,,,1,001,2025-02-07_16h39.28.691,IAT(Formal),2021.2.3,Win32,58.82352941,,,,,,,,,,,,,,,,i,1,0.6793,,,,,,他们,i,,,1,53,133,76,1,,,,,,,,,,,,,,,,,,,,,,,,,,,,,,,,,,
,,,,,,,,,,,,,1,001,2025-02-07_16h39.28.691,IAT(Formal),2021.2.3,Win32,58.82352941,,,,,,,,,,,,,,,,i,1,0.5107,,,,,,傲慢,i,,,1,54,134,37,1,,,,,,,,,,,,,,,,,,,,,,,,,,,,,,,,,,
,,,,,,,,,,,,,1,001,2025-02-07_16h39.28.691,IAT(Formal),2021.2.3,Win32,58.82352941,,,,,,,,,,,,,,,,i,1,0.7666,,,,,,他的,i,,,1,55,135,77,1,,,,,,,,,,,,,,,,,,,,,,,,,,,,,,,,,,
,,,,,,,,,,,,,1,001,2025-02-07_16h39.28.691,IAT(Formal),2021.2.3,Win32,58.82352941,,,,,,,,,,,,,,,,e,0,1.0307,,,,,,自私,i,,,1,56,136,43,1,,,,,,,,,,,,,,,,,,,,,,,,,,,,,,,,,,
,,,,,,,,,,,,,1,001,2025-02-07_16h39.28.691,IAT(Formal),2021.2.3,Win32,58.82352941,,,,,,,,,,,,,,,,e,1,0.6869,,,,,,我的,e,,,1,57,137,71,1,,,,,,,,,,,,,,,,,,,,,,,,,,,,,,,,,,
,,,,,,,,,,,,,1,001,2025-02-07_16h39.28.691,IAT(Formal),2021.2.3,Win32,58.82352941,,,,,,,,,,,,,,,,e,1,0.533,,,,,,我,e,,,1,58,138,0,1,,,,,,,,,,,,,,,,,,,,,,,,,,,,,,,,,,
,,,,,,,,,,,,,1,001,2025-02-07_16h39.28.691,IAT(Formal),2021.2.3,Win32,58.82352941,,,,,,,,,,,,,,,,i,1,0.535,,,,,,他,i,,,1,59,139,5,1,,,,,,,,,,,,,,,,,,,,,,,,,,,,,,,,,,
,,,,,,,,,,,,,1,001,2025-02-07_16h39.28.691,IAT(Formal),2021.2.3,Win32,58.82352941,,,,,,,,,,,,,,,,e,0,0.985,,,,,,他的,i,,,1,60,140,57,1,,,,,,,,,,,,,,,,,,,,,,,,,,,,,,,,,,
,,,,,,,,,,,,,1,001,2025-02-07_16h39.28.691,IAT(Formal),2021.2.3,Win32,58.82352941,,,,,,,,,,,,,,,,e,1,0.4634,,,,,,我,e,,,1,61,141,60,1,,,,,,,,,,,,,,,,,,,,,,,,,,,,,,,,,,
,,,,,,,,,,,,,1,001,2025-02-07_16h39.28.691,IAT(Formal),2021.2.3,Win32,58.82352941,,,,,,,,,,,,,,,,e,1,0.494,,,,,,自己,e,,,1,62,142,53,1,,,,,,,,,,,,,,,,,,,,,,,,,,,,,,,,,,
,,,,,,,,,,,,,1,001,2025-02-07_16h39.28.691,IAT(Formal),2021.2.3,Win32,58.82352941,,,,,,,,,,,,,,,,i,1,0.6855,,,,,,刻薄,i,,,1,63,143,33,1,,,,,,,,,,,,,,,,,,,,,,,,,,,,,,,,,,
,,,,,,,,,,,,,1,001,2025-02-07_16h39.28.691,IAT(Formal),2021.2.3,Win32,58.82352941,,,,,,,,,,,,,,,,i,0,0.6282,,,,,,我们,e,,,1,64,144,52,1,,,,,,,,,,,,,,,,,,,,,,,,,,,,,,,,,,
,,,,,,,,,,,,,1,001,2025-02-07_16h39.28.691,IAT(Formal),2021.2.3,Win32,58.82352941,,,,,,,,,,,,,,,,e,0,0.8206,,,,,,轻率,i,,,1,65,145,48,1,,,,,,,,,,,,,,,,,,,,,,,,,,,,,,,,,,
,,,,,,,,,,,,,1,001,2025-02-07_16h39.28.691,IAT(Formal),2021.2.3,Win32,58.82352941,,,,,,,,,,,,,,,,e,1,1.0268,,,,,,聪明,e,,,1,66,146,12,1,,,,,,,,,,,,,,,,,,,,,,,,,,,,,,,,,,
,,,,,,,,,,,,,1,001,2025-02-07_16h39.28.691,IAT(Formal),2021.2.3,Win32,58.82352941,,,,,,,,,,,,,,,,i,1,0.6279,,,,,,其他,i,,,1,67,147,9,1,,,,,,,,,,,,,,,,,,,,,,,,,,,,,,,,,,
,,,,,,,,,,,,,1,001,2025-02-07_16h39.28.691,IAT(Formal),2021.2.3,Win32,58.82352941,,,,,,,,,,,,,,,,,0,,,,,,,冷静,e,,,1,68,148,26,1,,,,,,,,,,,,,,,,,,,,,,,,,,,,,,,,,,
,,,,,,,,,,,,,1,001,2025-02-07_16h39.28.691,IAT(Formal),2021.2.3,Win32,58.82352941,,,,,,,,,,,,,,,,i,1,0.5196,,,,,,其他,i,,,1,69,149,59,1,,,,,,,,,,,,,,,,,,,,,,,,,,,,,,,,,,
,,,,,,,,,,,,,1,001,2025-02-07_16h39.28.691,IAT(Formal),2021.2.3,Win32,58.82352941,,,,,,,,,,,,,,,,e,0,1.3635,,,,,,暴躁,i,,,1,70,150,44,1,,,,,,,,,,,,,,,,,,,,,,,,,,,,,,,,,,
,,,,,,,,,,,,,1,001,2025-02-07_16h39.28.691,IAT(Formal),2021.2.3,Win32,58.82352941,,,,,,,,,,,,,,,,i,1,0.6973,,,,,,他,i,,,1,71,151,65,1,,,,,,,,,,,,,,,,,,,,,,,,,,,,,,,,,,
,,,,,,,,,,,,,1,001,2025-02-07_16h39.28.691,IAT(Formal),2021.2.3,Win32,58.82352941,,,,,,,,,,,,,,,,e,1,0.7827,,,,,,稳重,e,,,1,72,152,21,1,,,,,,,,,,,,,,,,,,,,,,,,,,,,,,,,,,
,,,,,,,,,,,,,1,001,2025-02-07_16h39.28.691,IAT(Formal),2021.2.3,Win32,58.82352941,,,,,,,,,,,,,,,,e,1,0.8132,,,,,,朴实,e,,,1,73,153,24,1,,,,,,,,,,,,,,,,,,,,,,,,,,,,,,,,,,
,,,,,,,,,,,,,1,001,2025-02-07_16h39.28.691,IAT(Formal),2021.2.3,Win32,58.82352941,,,,,,,,,,,,,,,,e,1,0.5263,,,,,,我的,e,,,1,74,154,51,1,,,,,,,,,,,,,,,,,,,,,,,,,,,,,,,,,,
,,,,,,,,,,,,,1,001,2025-02-07_16h39.28.691,IAT(Formal),2021.2.3,Win32,58.82352941,,,,,,,,,,,,,,,,e,1,0.5794,,,,,,机智,e,,,1,75,155,19,1,,,,,,,,,,,,,,,,,,,,,,,,,,,,,,,,,,
,,,,,,,,,,,,,1,001,2025-02-07_16h39.28.691,IAT(Formal),2021.2.3,Win32,58.82352941,,,,,,,,,,,,,,,,e,1,0.5303,,,,,,俺,e,,,1,76,156,4,1,,,,,,,,,,,,,,,,,,,,,,,,,,,,,,,,,,
,,,,,,,,,,,,,1,001,2025-02-07_16h39.28.691,IAT(Formal),2021.2.3,Win32,58.82352941,,,,,,,,,,,,,,,,i,1,0.8532,,,,,,自卑,i,,,1,77,157,36,1,,,,,,,,,,,,,,,,,,,,,,,,,,,,,,,,,,
,,,,,,,,,,,,,1,001,2025-02-07_16h39.28.691,IAT(Formal),2021.2.3,Win32,58.82352941,,,,,,,,,,,,,,,,e,1,0.5234,,,,,,俺,e,,,1,78,158,64,1,,,,,,,,,,,,,,,,,,,,,,,,,,,,,,,,,,
,,,,,,,,,,,,,1,001,2025-02-07_16h39.28.691,IAT(Formal),2021.2.3,Win32,58.82352941,,,,,,,,,,,,,,,,i,1,0.5669,,,,,,鲁莽,i,,,1,79,159,38,1,,,,,,,,,,,,,,,,,,,,,,,,,,,,,,,,,,
,,,,,,,,,,,他们,e,1,001,2025-02-07_16h39.28.691,IAT(Formal),2021.2.3,Win32,58.82352941,,,,,,,,,,,,,,,,,,,,,,,,,,,,,,,,,space,74.4223,,0,0,0,0,6,1,,,,,,,,,,,,,,,,,,,,,,,,,
,,,,,,,,,,,其他,e,1,001,2025-02-07_16h39.28.691,IAT(Formal),2021.2.3,Win32,58.82352941,,,,,,,,,,,,,,,,,,,,,,,,,,,,,,,,,,,e,1,0,1,1,9,1,0.5632,,,,,,,,,,,,,,,,,,,,,,,,
,,,,,,,,,,,他,e,1,001,2025-02-07_16h39.28.691,IAT(Formal),2021.2.3,Win32,58.82352941,,,,,,,,,,,,,,,,,,,,,,,,,,,,,,,,,,,e,1,0,2,2,5,1,0.4534,,,,,,,,,,,,,,,,,,,,,,,,
,,,,,,,,,,,自己,i,1,001,2025-02-07_16h39.28.691,IAT(Formal),2021.2.3,Win32,58.82352941,,,,,,,,,,,,,,,,,,,,,,,,,,,,,,,,,,,i,1,0,3,3,3,1,0.7636,,,,,,,,,,,,,,,,,,,,,,,,
,,,,,,,,,,,我的,i,1,001,2025-02-07_16h39.28.691,IAT(Formal),2021.2.3,Win32,58.82352941,,,,,,,,,,,,,,,,,,,,,,,,,,,,,,,,,,,i,1,0,4,4,1,1,0.5349,,,,,,,,,,,,,,,,,,,,,,,,
,,,,,,,,,,,俺,i,1,001,2025-02-07_16h39.28.691,IAT(Formal),2021.2.3,Win32,58.82352941,,,,,,,,,,,,,,,,,,,,,,,,,,,,,,,,,,,e,0,0,5,5,4,1,0.5164,,,,,,,,,,,,,,,,,,,,,,,,
,,,,,,,,,,,他人,e,1,001,2025-02-07_16h39.28.691,IAT(Formal),2021.2.3,Win32,58.82352941,,,,,,,,,,,,,,,,,,,,,,,,,,,,,,,,,,,e,1,0,6,6,8,1,0.7638,,,,,,,,,,,,,,,,,,,,,,,,
,,,,,,,,,,,他的,e,1,001,2025-02-07_16h39.28.691,IAT(Formal),2021.2.3,Win32,58.82352941,,,,,,,,,,,,,,,,,,,,,,,,,,,,,,,,,,,e,1,0,7,7,7,1,0.4849,,,,,,,,,,,,,,,,,,,,,,,,
,,,,,,,,,,,我们,i,1,001,2025-02-07_16h39.28.691,IAT(Formal),2021.2.3,Win32,58.82352941,,,,,,,,,,,,,,,,,,,,,,,,,,,,,,,,,,,i,1,0,8,8,2,1,0.7707,,,,,,,,,,,,,,,,,,,,,,,,
,,,,,,,,,,,我,i,1,001,2025-02-07_16h39.28.691,IAT(Formal),2021.2.3,Win32,58.82352941,,,,,,,,,,,,,,,,,,,,,,,,,,,,,,,,,,,i,1,0,9,9,0,1,0.5787,,,,,,,,,,,,,,,,,,,,,,,,
,,,,,,,,,,,,,1,001,2025-02-07_16h39.28.691,IAT(Formal),2021.2.3,Win32,58.82352941,,,,,,,,,,,,,,,,,,,,,,,,,,,,,,,,,,,,,,,,,,,space,22.2432,,0,0,0,0,43,1,自私,i,,,,,,,,,,,,,
,,,,,,,,,,,,,1,001,2025-02-07_16h39.28.691,IAT(Formal),2021.2.3,Win32,58.82352941,,,,,,,,,,,,,,,,,,,,,,,,,,,,,,,,,,,,,,,,,,,,,e,1,0,1,1,14,1,乐观,e,0.54,,,,,,,,,,,,
,,,,,,,,,,,,,1,001,2025-02-07_16h39.28.691,IAT(Formal),2021.2.3,Win32,58.82352941,,,,,,,,,,,,,,,,,,,,,,,,,,,,,,,,,,,,,,,,,,,,,i,1,0,2,2,50,1,我,i,0.7489,,,,,,,,,,,,
,,,,,,,,,,,,,1,001,2025-02-07_16h39.28.691,IAT(Formal),2021.2.3,Win32,58.82352941,,,,,,,,,,,,,,,,,,,,,,,,,,,,,,,,,,,,,,,,,,,,,i,1,0,3,3,73,1,自己,i,1.0663,,,,,,,,,,,,
,,,,,,,,,,,,,1,001,2025-02-07_16h39.28.691,IAT(Formal),2021.2.3,Win32,58.82352941,,,,,,,,,,,,,,,,,,,,,,,,,,,,,,,,,,,,,,,,,,,,,e,1,0,4,4,57,1,他的,e,0.7503,,,,,,,,,,,,
,,,,,,,,,,,,,1,001,2025-02-07_16h39.28.691,IAT(Formal),2021.2.3,Win32,58.82352941,,,,,,,,,,,,,,,,,,,,,,,,,,,,,,,,,,,,,,,,,,,,,e,0,0,5,5,33,1,刻薄,i,0.8438,,,,,,,,,,,,
,,,,,,,,,,,,,1,001,2025-02-07_16h39.28.691,IAT(Formal),2021.2.3,Win32,58.82352941,,,,,,,,,,,,,,,,,,,,,,,,,,,,,,,,,,,,,,,,,,,,,i,1,0,6,6,63,1,自己,i,1.046,,,,,,,,,,,,
,,,,,,,,,,,,,1,001,2025-02-07_16h39.28.691,IAT(Formal),2021.2.3,Win32,58.82352941,,,,,,,,,,,,,,,,,,,,,,,,,,,,,,,,,,,,,,,,,,,,,e,1,0,7,7,69,1,其他,e,0.8823,,,,,,,,,,,,
,,,,,,,,,,,,,1,001,2025-02-07_16h39.28.691,IAT(Formal),2021.2.3,Win32,58.82352941,,,,,,,,,,,,,,,,,,,,,,,,,,,,,,,,,,,,,,,,,,,,,i,1,0,8,8,32,1,愚蠢,i,1.1126,,,,,,,,,,,,
,,,,,,,,,,,,,1,001,2025-02-07_16h39.28.691,IAT(Formal),2021.2.3,Win32,58.82352941,,,,,,,,,,,,,,,,,,,,,,,,,,,,,,,,,,,,,,,,,,,,,e,1,0,9,9,78,1,他人,e,0.9324,,,,,,,,,,,,
,,,,,,,,,,,,,1,001,2025-02-07_16h39.28.691,IAT(Formal),2021.2.3,Win32,58.82352941,,,,,,,,,,,,,,,,,,,,,,,,,,,,,,,,,,,,,,,,,,,,,i,1,0,10,10,46,1,野蛮,i,0.702,,,,,,,,,,,,
,,,,,,,,,,,,,1,001,2025-02-07_16h39.28.691,IAT(Formal),2021.2.3,Win32,58.82352941,,,,,,,,,,,,,,,,,,,,,,,,,,,,,,,,,,,,,,,,,,,,,i,1,0,11,11,3,1,自己,i,1.0973,,,,,,,,,,,,
,,,,,,,,,,,,,1,001,2025-02-07_16h39.28.691,IAT(Formal),2021.2.3,Win32,58.82352941,,,,,,,,,,,,,,,,,,,,,,,,,,,,,,,,,,,,,,,,,,,,,e,1,0,12,12,11,1,崇高,e,1.3689,,,,,,,,,,,,
,,,,,,,,,,,,,1,001,2025-02-07_16h39.28.691,IAT(Formal),2021.2.3,Win32,58.82352941,,,,,,,,,,,,,,,,,,,,,,,,,,,,,,,,,,,,,,,,,,,,,i,1,0,13,13,49,1,下贱,i,0.7293,,,,,,,,,,,,
,,,,,,,,,,,,,1,001,2025-02-07_16h39.28.691,IAT(Formal),2021.2.3,Win32,58.82352941,,,,,,,,,,,,,,,,,,,,,,,,,,,,,,,,,,,,,,,,,,,,,e,1,0,14,14,29,1,诚恳,e,0.9339,,,,,,,,,,,,
,,,,,,,,,,,,,1,001,2025-02-07_16h39.28.691,IAT(Formal),2021.2.3,Win32,58.82352941,,,,,,,,,,,,,,,,,,,,,,,,,,,,,,,,,,,,,,,,,,,,,i,0,0,15,15,25,1,细腻,e,0.6487,,,,,,,,,,,,
,,,,,,,,,,,,,1,001,2025-02-07_16h39.28.691,IAT(Formal),2021.2.3,Win32,58.82352941,,,,,,,,,,,,,,,,,,,,,,,,,,,,,,,,,,,,,,,,,,,,,e,1,0,16,16,21,1,稳重,e,0.8288,,,,,,,,,,,,
,,,,,,,,,,,,,1,001,2025-02-07_16h39.28.691,IAT(Formal),2021.2.3,Win32,58.82352941,,,,,,,,,,,,,,,,,,,,,,,,,,,,,,,,,,,,,,,,,,,,,i,1,0,17,17,39,1,冒失,i,0.7337,,,,,,,,,,,,
,,,,,,,,,,,,,1,001,2025-02-07_16h39.28.691,IAT(Formal),2021.2.3,Win32,58.82352941,,,,,,,,,,,,,,,,,,,,,,,,,,,,,,,,,,,,,,,,,,,,,i,0,0,18,18,15,1,诚实,e,0.9788,,,,,,,,,,,,
,,,,,,,,,,,,,1,001,2025-02-07_16h39.28.691,IAT(Formal),2021.2.3,Win32,58.82352941,,,,,,,,,,,,,,,,,,,,,,,,,,,,,,,,,,,,,,,,,,,,,e,1,0,19,19,6,1,他们,e,1.2308,,,,,,,,,,,,
,,,,,,,,,,,,,1,001,2025-02-07_16h39.28.691,IAT(Formal),2021.2.3,Win32,58.82352941,,,,,,,,,,,,,,,,,,,,,,,,,,,,,,,,,,,,,,,,,,,,,i,1,0,20,20,62,1,我们,i,0.7658,,,,,,,,,,,,
,,,,,,,,,,,,,1,001,2025-02-07_16h39.28.691,IAT(Formal),2021.2.3,Win32,58.82352941,,,,,,,,,,,,,,,,,,,,,,,,,,,,,,,,,,,,,,,,,,,,,e,1,0,21,21,67,1,他的,e,0.5966,,,,,,,,,,,,
,,,,,,,,,,,,,1,001,2025-02-07_16h39.28.691,IAT(Formal),2021.2.3,Win32,58.82352941,,,,,,,,,,,,,,,,,,,,,,,,,,,,,,,,,,,,,,,,,,,,,i,1,0,22,22,45,1,猖狂,i,0.8611,,,,,,,,,,,,
,,,,,,,,,,,,,1,001,2025-02-07_16h39.28.691,IAT(Formal),2021.2.3,Win32,58.82352941,,,,,,,,,,,,,,,,,,,,,,,,,,,,,,,,,,,,,,,,,,,,,e,1,0,23,23,58,1,他人,e,0.4924,,,,,,,,,,,,
,,,,,,,,,,,,,1,001,2025-02-07_16h39.28.691,IAT(Formal),2021.2.3,Win32,58.82352941,,,,,,,,,,,,,,,,,,,,,,,,,,,,,,,,,,,,,,,,,,,,,e,1,0,24,24,79,1,其他,e,0.6615,,,,,,,,,,,,
,,,,,,,,,,,,,1,001,2025-02-07_16h39.28.691,IAT(Formal),2021.2.3,Win32,58.82352941,,,,,,,,,,,,,,,,,,,,,,,,,,,,,,,,,,,,,,,,,,,,,e,1,0,25,25,75,1,他,e,0.4105,,,,,,,,,,,,
,,,,,,,,,,,,,1,001,2025-02-07_16h39.28.691,IAT(Formal),2021.2.3,Win32,58.82352941,,,,,,,,,,,,,,,,,,,,,,,,,,,,,,,,,,,,,,,,,,,,,,0,0,26,26,35,1,消极,i,,,,,,,,,,,,,
,,,,,,,,,,,,,1,001,2025-02-07_16h39.28.691,IAT(Formal),2021.2.3,Win32,58.82352941,,,,,,,,,,,,,,,,,,,,,,,,,,,,,,,,,,,,,,,,,,,,,i,1,0,27,27,40,1,执拗,i,0.6071,,,,,,,,,,,,
,,,,,,,,,,,,,1,001,2025-02-07_16h39.28.691,IAT(Formal),2021.2.3,Win32,58.82352941,,,,,,,,,,,,,,,,,,,,,,,,,,,,,,,,,,,,,,,,,,,,,i,1,0,28,28,0,1,我,i,0.4251,,,,,,,,,,,,
,,,,,,,,,,,,,1,001,2025-02-07_16h39.28.691,IAT(Formal),2021.2.3,Win32,58.82352941,,,,,,,,,,,,,,,,,,,,,,,,,,,,,,,,,,,,,,,,,,,,,i,1,0,29,29,34,1,悲观,i,0.4879,,,,,,,,,,,,
,,,,,,,,,,,,,1,001,2025-02-07_16h39.28.691,IAT(Formal),2021.2.3,Win32,58.82352941,,,,,,,,,,,,,,,,,,,,,,,,,,,,,,,,,,,,,,,,,,,,,i,1,0,30,30,37,1,傲慢,i,0.4677,,,,,,,,,,,,
,,,,,,,,,,,,,1,001,2025-02-07_16h39.28.691,IAT(Formal),2021.2.3,Win32,58.82352941,,,,,,,,,,,,,,,,,,,,,,,,,,,,,,,,,,,,,,,,,,,,,i,0,0,31,31,66,1,他们,e,0.4609,,,,,,,,,,,,
,,,,,,,,,,,,,1,001,2025-02-07_16h39.28.691,IAT(Formal),2021.2.3,Win32,58.82352941,,,,,,,,,,,,,,,,,,,,,,,,,,,,,,,,,,,,,,,,,,,,,i,1,0,32,32,42,1,凶狠,i,0.9075,,,,,,,,,,,,
,,,,,,,,,,,,,1,001,2025-02-07_16h39.28.691,IAT(Formal),2021.2.3,Win32,58.82352941,,,,,,,,,,,,,,,,,,,,,,,,,,,,,,,,,,,,,,,,,,,,,i,1,0,33,33,52,1,我们,i,0.7239,,,,,,,,,,,,
,,,,,,,,,,,,,1,001,2025-02-07_16h39.28.691,IAT(Formal),2021.2.3,Win32,58.82352941,,,,,,,,,,,,,,,,,,,,,,,,,,,,,,,,,,,,,,,,,,,,,i,1,0,34,34,31,1,虚伪,i,0.6956,,,,,,,,,,,,
,,,,,,,,,,,,,1,001,2025-02-07_16h39.28.691,IAT(Formal),2021.2.3,Win32,58.82352941,,,,,,,,,,,,,,,,,,,,,,,,,,,,,,,,,,,,,,,,,,,,,i,0,0,35,35,19,1,机智,e,0.4627,,,,,,,,,,,,
,,,,,,,,,,,,,1,001,2025-02-07_16h39.28.691,IAT(Formal),2021.2.3,Win32,58.82352941,,,,,,,,,,,,,,,,,,,,,,,,,,,,,,,,,,,,,,,,,,,,,e,0,0,36,36,51,1,我的,i,0.7523,,,,,,,,,,,,
,,,,,,,,,,,,,1,001,2025-02-07_16h39.28.691,IAT(Formal),2021.2.3,Win32,58.82352941,,,,,,,,,,,,,,,,,,,,,,,,,,,,,,,,,,,,,,,,,,,,,i,1,0,37,37,2,1,我们,i,0.6464,,,,,,,,,,,,
,,,,,,,,,,,,,1,001,2025-02-07_16h39.28.691,IAT(Formal),2021.2.3,Win32,58.82352941,,,,,,,,,,,,,,,,,,,,,,,,,,,,,,,,,,,,,,,,,,,,,e,1,0,38,38,12,1,聪明,e,0.9666,,,,,,,,,,,,
,,,,,,,,,,,,,1,001,2025-02-07_16h39.28.691,IAT(Formal),2021.2.3,Win32,58.82352941,,,,,,,,,,,,,,,,,,,,,,,,,,,,,,,,,,,,,,,,,,,,,e,1,0,39,39,76,1,他们,e,0.4558,,,,,,,,,,,,
,,,,,,,,,,,,,1,001,2025-02-07_16h39.28.691,IAT(Formal),2021.2.3,Win32,58.82352941,,,,,,,,,,,,,,,,,,,,,,,,,,,,,,,,,,,,,,,,,,,,,e,1,0,40,40,13,1,杰出,e,0.5716,,,,,,,,,,,,
,,,,,,,,,,,,,1,001,2025-02-07_16h39.28.691,IAT(Formal),2021.2.3,Win32,58.82352941,,,,,,,,,,,,,,,,,,,,,,,,,,,,,,,,,,,,,,,,,,,,,e,1,0,41,41,24,1,朴实,e,0.5804,,,,,,,,,,,,
,,,,,,,,,,,,,1,001,2025-02-07_16h39.28.691,IAT(Formal),2021.2.3,Win32,58.82352941,,,,,,,,,,,,,,,,,,,,,,,,,,,,,,,,,,,,,,,,,,,,,e,1,0,42,42,17,1,勇敢,e,0.4425,,,,,,,,,,,,
,,,,,,,,,,,,,1,001,2025-02-07_16h39.28.691,IAT(Formal),2021.2.3,Win32,58.82352941,,,,,,,,,,,,,,,,,,,,,,,,,,,,,,,,,,,,,,,,,,,,,e,0,0,43,43,53,1,自己,i,0.4518,,,,,,,,,,,,
,,,,,,,,,,,,,1,001,2025-02-07_16h39.28.691,IAT(Formal),2021.2.3,Win32,58.82352941,,,,,,,,,,,,,,,,,,,,,,,,,,,,,,,,,,,,,,,,,,,,,i,1,0,44,44,74,1,俺,i,1.0361,,,,,,,,,,,,
,,,,,,,,,,,,,1,001,2025-02-07_16h39.28.691,IAT(Formal),2021.2.3,Win32,58.82352941,,,,,,,,,,,,,,,,,,,,,,,,,,,,,,,,,,,,,,,,,,,,,i,0,0,45,45,77,1,他的,e,0.3937,,,,,,,,,,,,
,,,,,,,,,,,,,1,001,2025-02-07_16h39.28.691,IAT(Formal),2021.2.3,Win32,58.82352941,,,,,,,,,,,,,,,,,,,,,,,,,,,,,,,,,,,,,,,,,,,,,e,1,0,46,46,68,1,他人,e,0.7654,,,,,,,,,,,,
,,,,,,,,,,,,,1,001,2025-02-07_16h39.28.691,IAT(Formal),2021.2.3,Win32,58.82352941,,,,,,,,,,,,,,,,,,,,,,,,,,,,,,,,,,,,,,,,,,,,,e,1,0,47,47,27,1,热情,e,1.2306,,,,,,,,,,,,
,,,,,,,,,,,,,1,001,2025-02-07_16h39.28.691,IAT(Formal),2021.2.3,Win32,58.82352941,,,,,,,,,,,,,,,,,,,,,,,,,,,,,,,,,,,,,,,,,,,,,i,1,0,48,48,41,1,散漫,i,0.7919,,,,,,,,,,,,
,,,,,,,,,,,,,1,001,2025-02-07_16h39.28.691,IAT(Formal),2021.2.3,Win32,58.82352941,,,,,,,,,,,,,,,,,,,,,,,,,,,,,,,,,,,,,,,,,,,,,i,1,0,49,49,48,1,轻率,i,0.8392,,,,,,,,,,,,
,,,,,,,,,,,,,1,001,2025-02-07_16h39.28.691,IAT(Formal),2021.2.3,Win32,58.82352941,,,,,,,,,,,,,,,,,,,,,,,,,,,,,,,,,,,,,,,,,,,,,i,1,0,50,50,1,1,我的,i,0.5965,,,,,,,,,,,,
,,,,,,,,,,,,,1,001,2025-02-07_16h39.28.691,IAT(Formal),2021.2.3,Win32,58.82352941,,,,,,,,,,,,,,,,,,,,,,,,,,,,,,,,,,,,,,,,,,,,,i,1,0,51,51,44,1,暴躁,i,0.8709,,,,,,,,,,,,
,,,,,,,,,,,,,1,001,2025-02-07_16h39.28.691,IAT(Formal),2021.2.3,Win32,58.82352941,,,,,,,,,,,,,,,,,,,,,,,,,,,,,,,,,,,,,,,,,,,,,e,1,0,52,52,10,1,优秀,e,1.0474,,,,,,,,,,,,
,,,,,,,,,,,,,1,001,2025-02-07_16h39.28.691,IAT(Formal),2021.2.3,Win32,58.82352941,,,,,,,,,,,,,,,,,,,,,,,,,,,,,,,,,,,,,,,,,,,,,i,1,0,53,53,72,1,我们,i,0.4031,,,,,,,,,,,,
,,,,,,,,,,,,,1,001,2025-02-07_16h39.28.691,IAT(Formal),2021.2.3,Win32,58.82352941,,,,,,,,,,,,,,,,,,,,,,,,,,,,,,,,,,,,,,,,,,,,,e,1,0,54,54,28,1,活泼,e,1.0116,,,,,,,,,,,,
,,,,,,,,,,,,,1,001,2025-02-07_16h39.28.691,IAT(Formal),2021.2.3,Win32,58.82352941,,,,,,,,,,,,,,,,,,,,,,,,,,,,,,,,,,,,,,,,,,,,,i,1,0,55,55,30,1,卑鄙,i,0.602,,,,,,,,,,,,
,,,,,,,,,,,,,1,001,2025-02-07_16h39.28.691,IAT(Formal),2021.2.3,Win32,58.82352941,,,,,,,,,,,,,,,,,,,,,,,,,,,,,,,,,,,,,,,,,,,,,i,1,0,56,56,70,1,我,i,0.5295,,,,,,,,,,,,
,,,,,,,,,,,,,1,001,2025-02-07_16h39.28.691,IAT(Formal),2021.2.3,Win32,58.82352941,,,,,,,,,,,,,,,,,,,,,,,,,,,,,,,,,,,,,,,,,,,,,i,1,0,57,57,54,1,俺,i,0.5498,,,,,,,,,,,,
,,,,,,,,,,,,,1,001,2025-02-07_16h39.28.691,IAT(Formal),2021.2.3,Win32,58.82352941,,,,,,,,,,,,,,,,,,,,,,,,,,,,,,,,,,,,,,,,,,,,,i,0,0,58,58,20,1,认真,e,1.0693,,,,,,,,,,,,
,,,,,,,,,,,,,1,001,2025-02-07_16h39.28.691,IAT(Formal),2021.2.3,Win32,58.82352941,,,,,,,,,,,,,,,,,,,,,,,,,,,,,,,,,,,,,,,,,,,,,i,1,0,59,59,4,1,俺,i,0.7447,,,,,,,,,,,,
,,,,,,,,,,,,,1,001,2025-02-07_16h39.28.691,IAT(Formal),2021.2.3,Win32,58.82352941,,,,,,,,,,,,,,,,,,,,,,,,,,,,,,,,,,,,,,,,,,,,,e,1,0,60,60,65,1,他,e,0.4821,,,,,,,,,,,,
,,,,,,,,,,,,,1,001,2025-02-07_16h39.28.691,IAT(Formal),2021.2.3,Win32,58.82352941,,,,,,,,,,,,,,,,,,,,,,,,,,,,,,,,,,,,,,,,,,,,,i,1,0,61,61,38,1,鲁莽,i,0.684,,,,,,,,,,,,
,,,,,,,,,,,,,1,001,2025-02-07_16h39.28.691,IAT(Formal),2021.2.3,Win32,58.82352941,,,,,,,,,,,,,,,,,,,,,,,,,,,,,,,,,,,,,,,,,,,,,i,1,0,62,62,60,1,我,i,0.5381,,,,,,,,,,,,
,,,,,,,,,,,,,1,001,2025-02-07_16h39.28.691,IAT(Formal),2021.2.3,Win32,58.82352941,,,,,,,,,,,,,,,,,,,,,,,,,,,,,,,,,,,,,,,,,,,,,i,1,0,63,63,71,1,我的,i,0.4477,,,,,,,,,,,,
,,,,,,,,,,,,,1,001,2025-02-07_16h39.28.691,IAT(Formal),2021.2.3,Win32,58.82352941,,,,,,,,,,,,,,,,,,,,,,,,,,,,,,,,,,,,,,,,,,,,,i,1,0,64,64,47,1,固执,i,0.8454,,,,,,,,,,,,
,,,,,,,,,,,,,1,001,2025-02-07_16h39.28.691,IAT(Formal),2021.2.3,Win32,58.82352941,,,,,,,,,,,,,,,,,,,,,,,,,,,,,,,,,,,,,,,,,,,,,e,1,0,65,65,26,1,冷静,e,1.4719,,,,,,,,,,,,
,,,,,,,,,,,,,1,001,2025-02-07_16h39.28.691,IAT(Formal),2021.2.3,Win32,58.82352941,,,,,,,,,,,,,,,,,,,,,,,,,,,,,,,,,,,,,,,,,,,,,i,0,0,66,66,59,1,其他,e,0.6301,,,,,,,,,,,,
,,,,,,,,,,,,,1,001,2025-02-07_16h39.28.691,IAT(Formal),2021.2.3,Win32,58.82352941,,,,,,,,,,,,,,,,,,,,,,,,,,,,,,,,,,,,,,,,,,,,,e,1,0,67,67,56,1,他们,e,0.5703,,,,,,,,,,,,
,,,,,,,,,,,,,1,001,2025-02-07_16h39.28.691,IAT(Formal),2021.2.3,Win32,58.82352941,,,,,,,,,,,,,,,,,,,,,,,,,,,,,,,,,,,,,,,,,,,,,i,1,0,68,68,64,1,俺,i,0.6795,,,,,,,,,,,,
,,,,,,,,,,,,,1,001,2025-02-07_16h39.28.691,IAT(Formal),2021.2.3,Win32,58.82352941,,,,,,,,,,,,,,,,,,,,,,,,,,,,,,,,,,,,,,,,,,,,,i,1,0,69,69,36,1,自卑,i,1.0098,,,,,,,,,,,,
,,,,,,,,,,,,,1,001,2025-02-07_16h39.28.691,IAT(Formal),2021.2.3,Win32,58.82352941,,,,,,,,,,,,,,,,,,,,,,,,,,,,,,,,,,,,,,,,,,,,,e,1,0,70,70,7,1,他的,e,1.1627,,,,,,,,,,,,
,,,,,,,,,,,,,1,001,2025-02-07_16h39.28.691,IAT(Formal),2021.2.3,Win32,58.82352941,,,,,,,,,,,,,,,,,,,,,,,,,,,,,,,,,,,,,,,,,,,,,e,1,0,71,71,16,1,正直,e,0.9111,,,,,,,,,,,,
,,,,,,,,,,,,,1,001,2025-02-07_16h39.28.691,IAT(Formal),2021.2.3,Win32,58.82352941,,,,,,,,,,,,,,,,,,,,,,,,,,,,,,,,,,,,,,,,,,,,,e,1,0,72,72,8,1,他人,e,0.4918,,,,,,,,,,,,
,,,,,,,,,,,,,1,001,2025-02-07_16h39.28.691,IAT(Formal),2021.2.3,Win32,58.82352941,,,,,,,,,,,,,,,,,,,,,,,,,,,,,,,,,,,,,,,,,,,,,e,1,0,73,73,23,1,公正,e,0.8149,,,,,,,,,,,,
,,,,,,,,,,,,,1,001,2025-02-07_16h39.28.691,IAT(Formal),2021.2.3,Win32,58.82352941,,,,,,,,,,,,,,,,,,,,,,,,,,,,,,,,,,,,,,,,,,,,,e,0,0,74,74,61,1,我的,i,0.3738,,,,,,,,,,,,
,,,,,,,,,,,,,1,001,2025-02-07_16h39.28.691,IAT(Formal),2021.2.3,Win32,58.82352941,,,,,,,,,,,,,,,,,,,,,,,,,,,,,,,,,,,,,,,,,,,,,e,1,0,75,75,18,1,勤奋,e,1.1426,,,,,,,,,,,,
,,,,,,,,,,,,,1,001,2025-02-07_16h39.28.691,IAT(Formal),2021.2.3,Win32,58.82352941,,,,,,,,,,,,,,,,,,,,,,,,,,,,,,,,,,,,,,,,,,,,,e,1,0,76,76,22,1,无私,e,0.645,,,,,,,,,,,,
,,,,,,,,,,,,,1,001,2025-02-07_16h39.28.691,IAT(Formal),2021.2.3,Win32,58.82352941,,,,,,,,,,,,,,,,,,,,,,,,,,,,,,,,,,,,,,,,,,,,,e,1,0,77,77,55,1,他,e,0.45,,,,,,,,,,,,
,,,,,,,,,,,,,1,001,2025-02-07_16h39.28.691,IAT(Formal),2021.2.3,Win32,58.82352941,,,,,,,,,,,,,,,,,,,,,,,,,,,,,,,,,,,,,,,,,,,,,e,1,0,78,78,9,1,其他,e,0.7212,,,,,,,,,,,,
,,,,,,,,,,,,,1,001,2025-02-07_16h39.28.691,IAT(Formal),2021.2.3,Win32,58.82352941,,,,,,,,,,,,,,,,,,,,,,,,,,,,,,,,,,,,,,,,,,,,,e,1,0,79,79,5,1,他,e,0.4625,,,,,,,,,,,,
,,,,,,,,,,,,,1,001,2025-02-07_16h39.28.691,IAT(Formal),2021.2.3,Win32,58.82352941,,,,,,,,,,,,,,,,,,,,,,,,,,,,,,,,,,,,,,,,,,,,,,,,,,,,卑鄙,i,,space,16.3524,,0,0,0,0,30,1,,,
,,,,,,,,,,,,,1,001,2025-02-07_16h39.28.691,IAT(Formal),2021.2.3,Win32,58.82352941,,,,,,,,,,,,,,,,,,,,,,,,,,,,,,,,,,,,,,,,,,,,,,,,,,,,凶狠,i,,,,i,1,0,1,1,42,1,0.689,,
,,,,,,,,,,,,,1,001,2025-02-07_16h39.28.691,IAT(Formal),2021.2.3,Win32,58.82352941,,,,,,,,,,,,,,,,,,,,,,,,,,,,,,,,,,,,,,,,,,,,,,,,,,,,下贱,i,,,,i,1,0,2,2,49,1,1,,
,,,,,,,,,,,,,1,001,2025-02-07_16h39.28.691,IAT(Formal),2021.2.3,Win32,58.82352941,,,,,,,,,,,,,,,,,,,,,,,,,,,,,,,,,,,,,,,,,,,,,,,,,,,,勤奋,e,,,,e,1,0,3,3,18,1,0.5378,,
,,,,,,,,,,,,,1,001,2025-02-07_16h39.28.691,IAT(Formal),2021.2.3,Win32,58.82352941,,,,,,,,,,,,,,,,,,,,,,,,,,,,,,,,,,,,,,,,,,,,,,,,,,,,固执,i,,,,i,1,0,4,4,47,1,0.5847,,
,,,,,,,,,,,,,1,001,2025-02-07_16h39.28.691,IAT(Formal),2021.2.3,Win32,58.82352941,,,,,,,,,,,,,,,,,,,,,,,,,,,,,,,,,,,,,,,,,,,,,,,,,,,,我,i,,,,i,1,0,5,5,70,1,0.5516,,
,,,,,,,,,,,,,1,001,2025-02-07_16h39.28.691,IAT(Formal),2021.2.3,Win32,58.82352941,,,,,,,,,,,,,,,,,,,,,,,,,,,,,,,,,,,,,,,,,,,,,,,,,,,,自卑,i,,,,i,1,0,6,6,36,1,0.5465,,
,,,,,,,,,,,,,1,001,2025-02-07_16h39.28.691,IAT(Formal),2021.2.3,Win32,58.82352941,,,,,,,,,,,,,,,,,,,,,,,,,,,,,,,,,,,,,,,,,,,,,,,,,,,,鲁莽,i,,,,i,1,0,7,7,38,1,0.4686,,
,,,,,,,,,,,,,1,001,2025-02-07_16h39.28.691,IAT(Formal),2021.2.3,Win32,58.82352941,,,,,,,,,,,,,,,,,,,,,,,,,,,,,,,,,,,,,,,,,,,,,,,,,,,,自己,i,,,,i,1,0,8,8,53,1,0.6523,,
,,,,,,,,,,,,,1,001,2025-02-07_16h39.28.691,IAT(Formal),2021.2.3,Win32,58.82352941,,,,,,,,,,,,,,,,,,,,,,,,,,,,,,,,,,,,,,,,,,,,,,,,,,,,俺,i,,,,e,0,0,9,9,54,1,0.462,,
,,,,,,,,,,,,,1,001,2025-02-07_16h39.28.691,IAT(Formal),2021.2.3,Win32,58.82352941,,,,,,,,,,,,,,,,,,,,,,,,,,,,,,,,,,,,,,,,,,,,,,,,,,,,机智,e,,,,i,0,0,10,10,19,1,0.5251,,
,,,,,,,,,,,,,1,001,2025-02-07_16h39.28.691,IAT(Formal),2021.2.3,Win32,58.82352941,,,,,,,,,,,,,,,,,,,,,,,,,,,,,,,,,,,,,,,,,,,,,,,,,,,,虚伪,i,,,,i,1,0,11,11,31,1,0.7275,,
,,,,,,,,,,,,,1,001,2025-02-07_16h39.28.691,IAT(Formal),2021.2.3,Win32,58.82352941,,,,,,,,,,,,,,,,,,,,,,,,,,,,,,,,,,,,,,,,,,,,,,,,,,,,崇高,e,,,,e,1,0,12,12,11,1,0.711,,
,,,,,,,,,,,,,1,001,2025-02-07_16h39.28.691,IAT(Formal),2021.2.3,Win32,58.82352941,,,,,,,,,,,,,,,,,,,,,,,,,,,,,,,,,,,,,,,,,,,,,,,,,,,,我们,i,,,,i,1,0,13,13,62,1,0.5878,,
,,,,,,,,,,,,,1,001,2025-02-07_16h39.28.691,IAT(Formal),2021.2.3,Win32,58.82352941,,,,,,,,,,,,,,,,,,,,,,,,,,,,,,,,,,,,,,,,,,,,,,,,,,,,消极,i,,,,i,1,0,14,14,35,1,1.2497,,
,,,,,,,,,,,,,1,001,2025-02-07_16h39.28.691,IAT(Formal),2021.2.3,Win32,58.82352941,,,,,,,,,,,,,,,,,,,,,,,,,,,,,,,,,,,,,,,,,,,,,,,,,,,,我,i,,,,i,1,0,15,15,60,1,0.883,,
,,,,,,,,,,,,,1,001,2025-02-07_16h39.28.691,IAT(Formal),2021.2.3,Win32,58.82352941,,,,,,,,,,,,,,,,,,,,,,,,,,,,,,,,,,,,,,,,,,,,,,,,,,,,野蛮,i,,,,,0,0,16,16,46,1,,,
,,,,,,,,,,,,,1,001,2025-02-07_16h39.28.691,IAT(Formal),2021.2.3,Win32,58.82352941,,,,,,,,,,,,,,,,,,,,,,,,,,,,,,,,,,,,,,,,,,,,,,,,,,,,冒失,i,,,,i,1,0,17,17,39,1,0.6112,,
,,,,,,,,,,,,,1,001,2025-02-07_16h39.28.691,IAT(Formal),2021.2.3,Win32,58.82352941,,,,,,,,,,,,,,,,,,,,,,,,,,,,,,,,,,,,,,,,,,,,,,,,,,,,暴躁,i,,,,i,1,0,18,18,44,1,0.6668,,
,,,,,,,,,,,,,1,001,2025-02-07_16h39.28.691,IAT(Formal),2021.2.3,Win32,58.82352941,,,,,,,,,,,,,,,,,,,,,,,,,,,,,,,,,,,,,,,,,,,,,,,,,,,,刻薄,i,,,,i,1,0,19,19,33,1,0.5721,,
,,,,,,,,,,,,,1,001,2025-02-07_16h39.28.691,IAT(Formal),2021.2.3,Win32,58.82352941,,,,,,,,,,,,,,,,,,,,,,,,,,,,,,,,,,,,,,,,,,,,,,,,,,,,活泼,e,,,,e,1,0,20,20,28,1,0.9724,,
,,,,,,,,,,,,,1,001,2025-02-07_16h39.28.691,IAT(Formal),2021.2.3,Win32,58.82352941,,,,,,,,,,,,,,,,,,,,,,,,,,,,,,,,,,,,,,,,,,,,,,,,,,,,乐观,e,,,,e,1,0,21,21,14,1,0.6512,,
,,,,,,,,,,,,,1,001,2025-02-07_16h39.28.691,IAT(Formal),2021.2.3,Win32,58.82352941,,,,,,,,,,,,,,,,,,,,,,,,,,,,,,,,,,,,,,,,,,,,,,,,,,,,他人,e,,,,e,1,0,22,22,68,1,0.7074,,
,,,,,,,,,,,,,1,001,2025-02-07_16h39.28.691,IAT(Formal),2021.2.3,Win32,58.82352941,,,,,,,,,,,,,,,,,,,,,,,,,,,,,,,,,,,,,,,,,,,,,,,,,,,,我的,i,,,,i,1,0,23,23,1,1,0.6188,,
,,,,,,,,,,,,,1,001,2025-02-07_16h39.28.691,IAT(Formal),2021.2.3,Win32,58.82352941,,,,,,,,,,,,,,,,,,,,,,,,,,,,,,,,,,,,,,,,,,,,,,,,,,,,冷静,e,,,,,0,0,24,24,26,1,,,
,,,,,,,,,,,,,1,001,2025-02-07_16h39.28.691,IAT(Formal),2021.2.3,Win32,58.82352941,,,,,,,,,,,,,,,,,,,,,,,,,,,,,,,,,,,,,,,,,,,,,,,,,,,,我,i,,,,i,1,0,25,25,0,1,0.8034,,
,,,,,,,,,,,,,1,001,2025-02-07_16h39.28.691,IAT(Formal),2021.2.3,Win32,58.82352941,,,,,,,,,,,,,,,,,,,,,,,,,,,,,,,,,,,,,,,,,,,,,,,,,,,,正直,e,,,,e,1,0,26,26,16,1,0.6054,,
,,,,,,,,,,,,,1,001,2025-02-07_16h39.28.691,IAT(Formal),2021.2.3,Win32,58.82352941,,,,,,,,,,,,,,,,,,,,,,,,,,,,,,,,,,,,,,,,,,,,,,,,,,,,我的,i,,,,i,1,0,27,27,61,1,0.5768,,
,,,,,,,,,,,,,1,001,2025-02-07_16h39.28.691,IAT(Formal),2021.2.3,Win32,58.82352941,,,,,,,,,,,,,,,,,,,,,,,,,,,,,,,,,,,,,,,,,,,,,,,,,,,,其他,e,,,,e,1,0,28,28,9,1,0.727,,
,,,,,,,,,,,,,1,001,2025-02-07_16h39.28.691,IAT(Formal),2021.2.3,Win32,58.82352941,,,,,,,,,,,,,,,,,,,,,,,,,,,,,,,,,,,,,,,,,,,,,,,,,,,,自己,i,,,,i,1,0,29,29,73,1,0.9015,,
,,,,,,,,,,,,,1,001,2025-02-07_16h39.28.691,IAT(Formal),2021.2.3,Win32,58.82352941,,,,,,,,,,,,,,,,,,,,,,,,,,,,,,,,,,,,,,,,,,,,,,,,,,,,他的,e,,,,e,1,0,30,30,67,1,1.089,,
,,,,,,,,,,,,,1,001,2025-02-07_16h39.28.691,IAT(Formal),2021.2.3,Win32,58.82352941,,,,,,,,,,,,,,,,,,,,,,,,,,,,,,,,,,,,,,,,,,,,,,,,,,,,愚蠢,i,,,,,0,0,31,31,32,1,,,
,,,,,,,,,,,,,1,001,2025-02-07_16h39.28.691,IAT(Formal),2021.2.3,Win32,58.82352941,,,,,,,,,,,,,,,,,,,,,,,,,,,,,,,,,,,,,,,,,,,,,,,,,,,,他,e,,,,e,1,0,32,32,75,1,0.5427,,
,,,,,,,,,,,,,1,001,2025-02-07_16h39.28.691,IAT(Formal),2021.2.3,Win32,58.82352941,,,,,,,,,,,,,,,,,,,,,,,,,,,,,,,,,,,,,,,,,,,,,,,,,,,,勇敢,e,,,,i,0,0,33,33,17,1,0.6349,,
,,,,,,,,,,,,,1,001,2025-02-07_16h39.28.691,IAT(Formal),2021.2.3,Win32,58.82352941,,,,,,,,,,,,,,,,,,,,,,,,,,,,,,,,,,,,,,,,,,,,,,,,,,,,俺,i,,,,i,1,0,34,34,4,1,0.5857,,
,,,,,,,,,,,,,1,001,2025-02-07_16h39.28.691,IAT(Formal),2021.2.3,Win32,58.82352941,,,,,,,,,,,,,,,,,,,,,,,,,,,,,,,,,,,,,,,,,,,,,,,,,,,,细腻,e,,,,e,1,0,35,35,25,1,0.6659,,
,,,,,,,,,,,,,1,001,2025-02-07_16h39.28.691,IAT(Formal),2021.2.3,Win32,58.82352941,,,,,,,,,,,,,,,,,,,,,,,,,,,,,,,,,,,,,,,,,,,,,,,,,,,,优秀,e,,,,e,1,0,36,36,10,1,0.485,,
,,,,,,,,,,,,,1,001,2025-02-07_16h39.28.691,IAT(Formal),2021.2.3,Win32,58.82352941,,,,,,,,,,,,,,,,,,,,,,,,,,,,,,,,,,,,,,,,,,,,,,,,,,,,诚恳,e,,,,e,1,0,37,37,29,1,0.575,,
,,,,,,,,,,,,,1,001,2025-02-07_16h39.28.691,IAT(Formal),2021.2.3,Win32,58.82352941,,,,,,,,,,,,,,,,,,,,,,,,,,,,,,,,,,,,,,,,,,,,,,,,,,,,轻率,i,,,,e,0,0,38,38,48,1,0.3848,,
,,,,,,,,,,,,,1,001,2025-02-07_16h39.28.691,IAT(Formal),2021.2.3,Win32,58.82352941,,,,,,,,,,,,,,,,,,,,,,,,,,,,,,,,,,,,,,,,,,,,,,,,,,,,他们,e,,,,i,0,0,39,39,56,1,0.6843,,
,,,,,,,,,,,,,1,001,2025-02-07_16h39.28.691,IAT(Formal),2021.2.3,Win32,58.82352941,,,,,,,,,,,,,,,,,,,,,,,,,,,,,,,,,,,,,,,,,,,,,,,,,,,,其他,e,,,,e,1,0,40,40,79,1,0.6852,,
,,,,,,,,,,,,,1,001,2025-02-07_16h39.28.691,IAT(Formal),2021.2.3,Win32,58.82352941,,,,,,,,,,,,,,,,,,,,,,,,,,,,,,,,,,,,,,,,,,,,,,,,,,,,俺,i,,,,e,0,0,41,41,74,1,0.736,,
,,,,,,,,,,,,,1,001,2025-02-07_16h39.28.691,IAT(Formal),2021.2.3,Win32,58.82352941,,,,,,,,,,,,,,,,,,,,,,,,,,,,,,,,,,,,,,,,,,,,,,,,,,,,他们,e,,,,e,1,0,42,42,6,1,1.0348,,
,,,,,,,,,,,,,1,001,2025-02-07_16h39.28.691,IAT(Formal),2021.2.3,Win32,58.82352941,,,,,,,,,,,,,,,,,,,,,,,,,,,,,,,,,,,,,,,,,,,,,,,,,,,,自私,i,,,,i,1,0,43,43,43,1,1.037,,
,,,,,,,,,,,,,1,001,2025-02-07_16h39.28.691,IAT(Formal),2021.2.3,Win32,58.82352941,,,,,,,,,,,,,,,,,,,,,,,,,,,,,,,,,,,,,,,,,,,,,,,,,,,,猖狂,i,,,,e,0,0,44,44,45,1,0.9415,,
,,,,,,,,,,,,,1,001,2025-02-07_16h39.28.691,IAT(Formal),2021.2.3,Win32,58.82352941,,,,,,,,,,,,,,,,,,,,,,,,,,,,,,,,,,,,,,,,,,,,,,,,,,,,我,i,,,,i,1,0,45,45,50,1,0.5568,,
,,,,,,,,,,,,,1,001,2025-02-07_16h39.28.691,IAT(Formal),2021.2.3,Win32,58.82352941,,,,,,,,,,,,,,,,,,,,,,,,,,,,,,,,,,,,,,,,,,,,,,,,,,,,他的,e,,,,e,1,0,46,46,57,1,0.725,,
,,,,,,,,,,,,,1,001,2025-02-07_16h39.28.691,IAT(Formal),2021.2.3,Win32,58.82352941,,,,,,,,,,,,,,,,,,,,,,,,,,,,,,,,,,,,,,,,,,,,,,,,,,,,稳重,e,,,,e,1,0,47,47,21,1,1.3888,,
,,,,,,,,,,,,,1,001,2025-02-07_16h39.28.691,IAT(Formal),2021.2.3,Win32,58.82352941,,,,,,,,,,,,,,,,,,,,,,,,,,,,,,,,,,,,,,,,,,,,,,,,,,,,他的,e,,,,i,0,0,48,48,7,1,0.7509,,
,,,,,,,,,,,,,1,001,2025-02-07_16h39.28.691,IAT(Formal),2021.2.3,Win32,58.82352941,,,,,,,,,,,,,,,,,,,,,,,,,,,,,,,,,,,,,,,,,,,,,,,,,,,,我的,i,,,,i,1,0,49,49,71,1,0.6436,,
,,,,,,,,,,,,,1,001,2025-02-07_16h39.28.691,IAT(Formal),2021.2.3,Win32,58.82352941,,,,,,,,,,,,,,,,,,,,,,,,,,,,,,,,,,,,,,,,,,,,,,,,,,,,诚实,e,,,,e,1,0,50,50,15,1,0.7425,,
,,,,,,,,,,,,,1,001,2025-02-07_16h39.28.691,IAT(Formal),2021.2.3,Win32,58.82352941,,,,,,,,,,,,,,,,,,,,,,,,,,,,,,,,,,,,,,,,,,,,,,,,,,,,他们,e,,,,e,1,0,51,51,76,1,0.5013,,
,,,,,,,,,,,,,1,001,2025-02-07_16h39.28.691,IAT(Formal),2021.2.3,Win32,58.82352941,,,,,,,,,,,,,,,,,,,,,,,,,,,,,,,,,,,,,,,,,,,,,,,,,,,,其他,e,,,,e,1,0,52,52,59,1,0.5682,,
,,,,,,,,,,,,,1,001,2025-02-07_16h39.28.691,IAT(Formal),2021.2.3,Win32,58.82352941,,,,,,,,,,,,,,,,,,,,,,,,,,,,,,,,,,,,,,,,,,,,,,,,,,,,执拗,i,,,,i,1,0,53,53,40,1,0.7847,,
,,,,,,,,,,,,,1,001,2025-02-07_16h39.28.691,IAT(Formal),2021.2.3,Win32,58.82352941,,,,,,,,,,,,,,,,,,,,,,,,,,,,,,,,,,,,,,,,,,,,,,,,,,,,我们,i,,,,i,1,0,54,54,52,1,0.5752,,
,,,,,,,,,,,,,1,001,2025-02-07_16h39.28.691,IAT(Formal),2021.2.3,Win32,58.82352941,,,,,,,,,,,,,,,,,,,,,,,,,,,,,,,,,,,,,,,,,,,,,,,,,,,,傲慢,i,,,,i,1,0,55,55,37,1,0.7678,,
,,,,,,,,,,,,,1,001,2025-02-07_16h39.28.691,IAT(Formal),2021.2.3,Win32,58.82352941,,,,,,,,,,,,,,,,,,,,,,,,,,,,,,,,,,,,,,,,,,,,,,,,,,,,其他,e,,,,e,1,0,56,56,69,1,0.6868,,
,,,,,,,,,,,,,1,001,2025-02-07_16h39.28.691,IAT(Formal),2021.2.3,Win32,58.82352941,,,,,,,,,,,,,,,,,,,,,,,,,,,,,,,,,,,,,,,,,,,,,,,,,,,,他人,e,,,,e,1,0,57,57,78,1,0.7359,,
,,,,,,,,,,,,,1,001,2025-02-07_16h39.28.691,IAT(Formal),2021.2.3,Win32,58.82352941,,,,,,,,,,,,,,,,,,,,,,,,,,,,,,,,,,,,,,,,,,,,,,,,,,,,他,e,,,,e,1,0,58,58,55,1,0.5684,,
,,,,,,,,,,,,,1,001,2025-02-07_16h39.28.691,IAT(Formal),2021.2.3,Win32,58.82352941,,,,,,,,,,,,,,,,,,,,,,,,,,,,,,,,,,,,,,,,,,,,,,,,,,,,热情,e,,,,i,0,0,59,59,27,1,0.8271,,
,,,,,,,,,,,,,1,001,2025-02-07_16h39.28.691,IAT(Formal),2021.2.3,Win32,58.82352941,,,,,,,,,,,,,,,,,,,,,,,,,,,,,,,,,,,,,,,,,,,,,,,,,,,,聪明,e,,,,e,1,0,60,60,12,1,0.8847,,
,,,,,,,,,,,,,1,001,2025-02-07_16h39.28.691,IAT(Formal),2021.2.3,Win32,58.82352941,,,,,,,,,,,,,,,,,,,,,,,,,,,,,,,,,,,,,,,,,,,,,,,,,,,,认真,e,,,,e,1,0,61,61,20,1,1.0368,,
,,,,,,,,,,,,,1,001,2025-02-07_16h39.28.691,IAT(Formal),2021.2.3,Win32,58.82352941,,,,,,,,,,,,,,,,,,,,,,,,,,,,,,,,,,,,,,,,,,,,,,,,,,,,朴实,e,,,,e,1,0,62,62,24,1,0.7687,,
,,,,,,,,,,,,,1,001,2025-02-07_16h39.28.691,IAT(Formal),2021.2.3,Win32,58.82352941,,,,,,,,,,,,,,,,,,,,,,,,,,,,,,,,,,,,,,,,,,,,,,,,,,,,自己,i,,,,i,1,0,63,63,63,1,0.6256,,
,,,,,,,,,,,,,1,001,2025-02-07_16h39.28.691,IAT(Formal),2021.2.3,Win32,58.82352941,,,,,,,,,,,,,,,,,,,,,,,,,,,,,,,,,,,,,,,,,,,,,,,,,,,,杰出,e,,,,e,1,0,64,64,13,1,1.3282,,
,,,,,,,,,,,,,1,001,2025-02-07_16h39.28.691,IAT(Formal),2021.2.3,Win32,58.82352941,,,,,,,,,,,,,,,,,,,,,,,,,,,,,,,,,,,,,,,,,,,,,,,,,,,,他们,e,,,,e,1,0,65,65,66,1,0.9079,,
,,,,,,,,,,,,,1,001,2025-02-07_16h39.28.691,IAT(Formal),2021.2.3,Win32,58.82352941,,,,,,,,,,,,,,,,,,,,,,,,,,,,,,,,,,,,,,,,,,,,,,,,,,,,他人,e,,,,e,1,0,66,66,8,1,0.9564,,
,,,,,,,,,,,,,1,001,2025-02-07_16h39.28.691,IAT(Formal),2021.2.3,Win32,58.82352941,,,,,,,,,,,,,,,,,,,,,,,,,,,,,,,,,,,,,,,,,,,,,,,,,,,,他,e,,,,e,1,0,67,67,5,1,0.6006,,
,,,,,,,,,,,,,1,001,2025-02-07_16h39.28.691,IAT(Formal),2021.2.3,Win32,58.82352941,,,,,,,,,,,,,,,,,,,,,,,,,,,,,,,,,,,,,,,,,,,,,,,,,,,,他人,e,,,,e,1,0,68,68,58,1,0.4186,,
,,,,,,,,,,,,,1,001,2025-02-07_16h39.28.691,IAT(Formal),2021.2.3,Win32,58.82352941,,,,,,,,,,,,,,,,,,,,,,,,,,,,,,,,,,,,,,,,,,,,,,,,,,,,自己,i,,,,i,1,0,69,69,3,1,0.6337,,
,,,,,,,,,,,,,1,001,2025-02-07_16h39.28.691,IAT(Formal),2021.2.3,Win32,58.82352941,,,,,,,,,,,,,,,,,,,,,,,,,,,,,,,,,,,,,,,,,,,,,,,,,,,,俺,i,,,,i,1,0,70,70,64,1,0.5748,,
,,,,,,,,,,,,,1,001,2025-02-07_16h39.28.691,IAT(Formal),2021.2.3,Win32,58.82352941,,,,,,,,,,,,,,,,,,,,,,,,,,,,,,,,,,,,,,,,,,,,,,,,,,,,我们,i,,,,i,1,0,71,71,72,1,0.5187,,
,,,,,,,,,,,,,1,001,2025-02-07_16h39.28.691,IAT(Formal),2021.2.3,Win32,58.82352941,,,,,,,,,,,,,,,,,,,,,,,,,,,,,,,,,,,,,,,,,,,,,,,,,,,,我的,i,,,,i,1,0,72,72,51,1,0.5286,,
,,,,,,,,,,,,,1,001,2025-02-07_16h39.28.691,IAT(Formal),2021.2.3,Win32,58.82352941,,,,,,,,,,,,,,,,,,,,,,,,,,,,,,,,,,,,,,,,,,,,,,,,,,,,我们,i,,,,i,1,0,73,73,2,1,0.5526,,
,,,,,,,,,,,,,1,001,2025-02-07_16h39.28.691,IAT(Formal),2021.2.3,Win32,58.82352941,,,,,,,,,,,,,,,,,,,,,,,,,,,,,,,,,,,,,,,,,,,,,,,,,,,,悲观,i,,,,i,1,0,74,74,34,1,0.5515,,
,,,,,,,,,,,,,1,001,2025-02-07_16h39.28.691,IAT(Formal),2021.2.3,Win32,58.82352941,,,,,,,,,,,,,,,,,,,,,,,,,,,,,,,,,,,,,,,,,,,,,,,,,,,,散漫,i,,,,i,1,0,75,75,41,1,0.6187,,
,,,,,,,,,,,,,1,001,2025-02-07_16h39.28.691,IAT(Formal),2021.2.3,Win32,58.82352941,,,,,,,,,,,,,,,,,,,,,,,,,,,,,,,,,,,,,,,,,,,,,,,,,,,,公正,e,,,,e,1,0,76,76,23,1,0.7014,,
,,,,,,,,,,,,,1,001,2025-02-07_16h39.28.691,IAT(Formal),2021.2.3,Win32,58.82352941,,,,,,,,,,,,,,,,,,,,,,,,,,,,,,,,,,,,,,,,,,,,,,,,,,,,他,e,,,,e,1,0,77,77,65,1,0.5708,,
,,,,,,,,,,,,,1,001,2025-02-07_16h39.28.691,IAT(Formal),2021.2.3,Win32,58.82352941,,,,,,,,,,,,,,,,,,,,,,,,,,,,,,,,,,,,,,,,,,,,,,,,,,,,他的,e,,,,e,1,0,78,78,77,1,0.523,,
,,,,,,,,,,,,,1,001,2025-02-07_16h39.28.691,IAT(Formal),2021.2.3,Win32,58.82352941,,,,,,,,,,,,,,,,,,,,,,,,,,,,,,,,,,,,,,,,,,,,,,,,,,,,无私,e,,,,e,1,0,79,79,22,1,0.9339,,
,,,,,,,,,,,,,1,001,2025-02-07_16h39.28.691,IAT(Formal),2021.2.3,Win32,58.82352941,,,,,,,,,,,,,,,,,,,,,,,,,,,,,,,,,,,,,,,,,,,,,,,,,,,,公正,e,,,,e,1,1,0,80,23,1,0.6843,,
,,,,,,,,,,,,,1,001,2025-02-07_16h39.28.691,IAT(Formal),2021.2.3,Win32,58.82352941,,,,,,,,,,,,,,,,,,,,,,,,,,,,,,,,,,,,,,,,,,,,,,,,,,,,正直,e,,,,e,1,1,1,81,16,1,0.5702,,
,,,,,,,,,,,,,1,001,2025-02-07_16h39.28.691,IAT(Formal),2021.2.3,Win32,58.82352941,,,,,,,,,,,,,,,,,,,,,,,,,,,,,,,,,,,,,,,,,,,,,,,,,,,,细腻,e,,,,e,1,1,2,82,25,1,0.7515,,
,,,,,,,,,,,,,1,001,2025-02-07_16h39.28.691,IAT(Formal),2021.2.3,Win32,58.82352941,,,,,,,,,,,,,,,,,,,,,,,,,,,,,,,,,,,,,,,,,,,,,,,,,,,,机智,e,,,,e,1,1,3,83,19,1,0.8696,,
,,,,,,,,,,,,,1,001,2025-02-07_16h39.28.691,IAT(Formal),2021.2.3,Win32,58.82352941,,,,,,,,,,,,,,,,,,,,,,,,,,,,,,,,,,,,,,,,,,,,,,,,,,,,我,i,,,,e,0,1,4,84,70,1,0.4695,,
,,,,,,,,,,,,,1,001,2025-02-07_16h39.28.691,IAT(Formal),2021.2.3,Win32,58.82352941,,,,,,,,,,,,,,,,,,,,,,,,,,,,,,,,,,,,,,,,,,,,,,,,,,,,我们,i,,,,i,1,1,5,85,2,1,0.3685,,
,,,,,,,,,,,,,1,001,2025-02-07_16h39.28.691,IAT(Formal),2021.2.3,Win32,58.82352941,,,,,,,,,,,,,,,,,,,,,,,,,,,,,,,,,,,,,,,,,,,,,,,,,,,,他的,e,,,,e,1,1,6,86,67,1,0.657,,
,,,,,,,,,,,,,1,001,2025-02-07_16h39.28.691,IAT(Formal),2021.2.3,Win32,58.82352941,,,,,,,,,,,,,,,,,,,,,,,,,,,,,,,,,,,,,,,,,,,,,,,,,,,,自私,i,,,,i,1,1,7,87,43,1,1.1256,,
,,,,,,,,,,,,,1,001,2025-02-07_16h39.28.691,IAT(Formal),2021.2.3,Win32,58.82352941,,,,,,,,,,,,,,,,,,,,,,,,,,,,,,,,,,,,,,,,,,,,,,,,,,,,勤奋,e,,,,e,1,1,8,88,18,1,0.822,,
,,,,,,,,,,,,,1,001,2025-02-07_16h39.28.691,IAT(Formal),2021.2.3,Win32,58.82352941,,,,,,,,,,,,,,,,,,,,,,,,,,,,,,,,,,,,,,,,,,,,,,,,,,,,我的,i,,,,i,1,1,9,89,71,1,0.601,,
,,,,,,,,,,,,,1,001,2025-02-07_16h39.28.691,IAT(Formal),2021.2.3,Win32,58.82352941,,,,,,,,,,,,,,,,,,,,,,,,,,,,,,,,,,,,,,,,,,,,,,,,,,,,愚蠢,i,,,,e,0,1,10,90,32,1,0.7014,,
,,,,,,,,,,,,,1,001,2025-02-07_16h39.28.691,IAT(Formal),2021.2.3,Win32,58.82352941,,,,,,,,,,,,,,,,,,,,,,,,,,,,,,,,,,,,,,,,,,,,,,,,,,,,他的,e,,,,i,0,1,11,91,77,1,0.6572,,
,,,,,,,,,,,,,1,001,2025-02-07_16h39.28.691,IAT(Formal),2021.2.3,Win32,58.82352941,,,,,,,,,,,,,,,,,,,,,,,,,,,,,,,,,,,,,,,,,,,,,,,,,,,,他,e,,,,e,1,1,12,92,5,1,0.4861,,
,,,,,,,,,,,,,1,001,2025-02-07_16h39.28.691,IAT(Formal),2021.2.3,Win32,58.82352941,,,,,,,,,,,,,,,,,,,,,,,,,,,,,,,,,,,,,,,,,,,,,,,,,,,,我们,i,,,,i,1,1,13,93,52,1,0.5519,,
,,,,,,,,,,,,,1,001,2025-02-07_16h39.28.691,IAT(Formal),2021.2.3,Win32,58.82352941,,,,,,,,,,,,,,,,,,,,,,,,,,,,,,,,,,,,,,,,,,,,,,,,,,,,其他,e,,,,e,1,1,14,94,59,1,0.6014,,
,,,,,,,,,,,,,1,001,2025-02-07_16h39.28.691,IAT(Formal),2021.2.3,Win32,58.82352941,,,,,,,,,,,,,,,,,,,,,,,,,,,,,,,,,,,,,,,,,,,,,,,,,,,,聪明,e,,,,e,1,1,15,95,12,1,0.642,,
,,,,,,,,,,,,,1,001,2025-02-07_16h39.28.691,IAT(Formal),2021.2.3,Win32,58.82352941,,,,,,,,,,,,,,,,,,,,,,,,,,,,,,,,,,,,,,,,,,,,,,,,,,,,暴躁,i,,,,,0,1,16,96,44,1,,,
,,,,,,,,,,,,,1,001,2025-02-07_16h39.28.691,IAT(Formal),2021.2.3,Win32,58.82352941,,,,,,,,,,,,,,,,,,,,,,,,,,,,,,,,,,,,,,,,,,,,,,,,,,,,下贱,i,,,,i,1,1,17,97,49,1,0.4926,,
,,,,,,,,,,,,,1,001,2025-02-07_16h39.28.691,IAT(Formal),2021.2.3,Win32,58.82352941,,,,,,,,,,,,,,,,,,,,,,,,,,,,,,,,,,,,,,,,,,,,,,,,,,,,他们,e,,,,e,1,1,18,98,66,1,0.4687,,
,,,,,,,,,,,,,1,001,2025-02-07_16h39.28.691,IAT(Formal),2021.2.3,Win32,58.82352941,,,,,,,,,,,,,,,,,,,,,,,,,,,,,,,,,,,,,,,,,,,,,,,,,,,,我,i,,,,i,1,1,19,99,60,1,0.5361,,
,,,,,,,,,,,,,1,001,2025-02-07_16h39.28.691,IAT(Formal),2021.2.3,Win32,58.82352941,,,,,,,,,,,,,,,,,,,,,,,,,,,,,,,,,,,,,,,,,,,,,,,,,,,,他人,e,,,,e,1,1,20,100,8,1,1.1581,,
,,,,,,,,,,,,,1,001,2025-02-07_16h39.28.691,IAT(Formal),2021.2.3,Win32,58.82352941,,,,,,,,,,,,,,,,,,,,,,,,,,,,,,,,,,,,,,,,,,,,,,,,,,,,自己,i,,,,i,1,1,21,101,73,1,1.0013,,
,,,,,,,,,,,,,1,001,2025-02-07_16h39.28.691,IAT(Formal),2021.2.3,Win32,58.82352941,,,,,,,,,,,,,,,,,,,,,,,,,,,,,,,,,,,,,,,,,,,,,,,,,,,,我们,i,,,,i,1,1,22,102,62,1,0.6514,,
,,,,,,,,,,,,,1,001,2025-02-07_16h39.28.691,IAT(Formal),2021.2.3,Win32,58.82352941,,,,,,,,,,,,,,,,,,,,,,,,,,,,,,,,,,,,,,,,,,,,,,,,,,,,散漫,i,,,,e,0,1,23,103,41,1,1.0843,,
,,,,,,,,,,,,,1,001,2025-02-07_16h39.28.691,IAT(Formal),2021.2.3,Win32,58.82352941,,,,,,,,,,,,,,,,,,,,,,,,,,,,,,,,,,,,,,,,,,,,,,,,,,,,固执,i,,,,i,1,1,24,104,47,1,0.6009,,
,,,,,,,,,,,,,1,001,2025-02-07_16h39.28.691,IAT(Formal),2021.2.3,Win32,58.82352941,,,,,,,,,,,,,,,,,,,,,,,,,,,,,,,,,,,,,,,,,,,,,,,,,,,,他们,e,,,,i,0,1,25,105,56,1,0.524,,
,,,,,,,,,,,,,1,001,2025-02-07_16h39.28.691,IAT(Formal),2021.2.3,Win32,58.82352941,,,,,,,,,,,,,,,,,,,,,,,,,,,,,,,,,,,,,,,,,,,,,,,,,,,,俺,i,,,,e,0,1,26,106,74,1,0.7511,,
,,,,,,,,,,,,,1,001,2025-02-07_16h39.28.691,IAT(Formal),2021.2.3,Win32,58.82352941,,,,,,,,,,,,,,,,,,,,,,,,,,,,,,,,,,,,,,,,,,,,,,,,,,,,自己,i,,,,i,1,1,27,107,3,1,0.5514,,
,,,,,,,,,,,,,1,001,2025-02-07_16h39.28.691,IAT(Formal),2021.2.3,Win32,58.82352941,,,,,,,,,,,,,,,,,,,,,,,,,,,,,,,,,,,,,,,,,,,,,,,,,,,,他,e,,,,e,1,1,28,108,55,1,0.5015,,
,,,,,,,,,,,,,1,001,2025-02-07_16h39.28.691,IAT(Formal),2021.2.3,Win32,58.82352941,,,,,,,,,,,,,,,,,,,,,,,,,,,,,,,,,,,,,,,,,,,,,,,,,,,,自己,i,,,,i,1,1,29,109,63,1,0.6528,,
,,,,,,,,,,,,,1,001,2025-02-07_16h39.28.691,IAT(Formal),2021.2.3,Win32,58.82352941,,,,,,,,,,,,,,,,,,,,,,,,,,,,,,,,,,,,,,,,,,,,,,,,,,,,悲观,i,,,,i,1,1,30,110,34,1,0.8602,,
,,,,,,,,,,,,,1,001,2025-02-07_16h39.28.691,IAT(Formal),2021.2.3,Win32,58.82352941,,,,,,,,,,,,,,,,,,,,,,,,,,,,,,,,,,,,,,,,,,,,,,,,,,,,消极,i,,,,i,1,1,31,111,35,1,0.639,,
,,,,,,,,,,,,,1,001,2025-02-07_16h39.28.691,IAT(Formal),2021.2.3,Win32,58.82352941,,,,,,,,,,,,,,,,,,,,,,,,,,,,,,,,,,,,,,,,,,,,,,,,,,,,我的,i,,,,i,1,1,32,112,1,1,0.5412,,
,,,,,,,,,,,,,1,001,2025-02-07_16h39.28.691,IAT(Formal),2021.2.3,Win32,58.82352941,,,,,,,,,,,,,,,,,,,,,,,,,,,,,,,,,,,,,,,,,,,,,,,,,,,,我的,i,,,,i,1,1,33,113,61,1,0.5522,,
,,,,,,,,,,,,,1,001,2025-02-07_16h39.28.691,IAT(Formal),2021.2.3,Win32,58.82352941,,,,,,,,,,,,,,,,,,,,,,,,,,,,,,,,,,,,,,,,,,,,,,,,,,,,我,i,,,,i,1,1,34,114,50,1,0.4199,,
,,,,,,,,,,,,,1,001,2025-02-07_16h39.28.691,IAT(Formal),2021.2.3,Win32,58.82352941,,,,,,,,,,,,,,,,,,,,,,,,,,,,,,,,,,,,,,,,,,,,,,,,,,,,他,e,,,,e,1,1,35,115,65,1,0.6716,,
,,,,,,,,,,,,,1,001,2025-02-07_16h39.28.691,IAT(Formal),2021.2.3,Win32,58.82352941,,,,,,,,,,,,,,,,,,,,,,,,,,,,,,,,,,,,,,,,,,,,,,,,,,,,其他,e,,,,e,1,1,36,116,79,1,0.7521,,
,,,,,,,,,,,,,1,001,2025-02-07_16h39.28.691,IAT(Formal),2021.2.3,Win32,58.82352941,,,,,,,,,,,,,,,,,,,,,,,,,,,,,,,,,,,,,,,,,,,,,,,,,,,,杰出,e,,,,e,1,1,37,117,13,1,0.7188,,
,,,,,,,,,,,,,1,001,2025-02-07_16h39.28.691,IAT(Formal),2021.2.3,Win32,58.82352941,,,,,,,,,,,,,,,,,,,,,,,,,,,,,,,,,,,,,,,,,,,,,,,,,,,,诚恳,e,,,,e,1,1,38,118,29,1,0.7121,,
,,,,,,,,,,,,,1,001,2025-02-07_16h39.28.691,IAT(Formal),2021.2.3,Win32,58.82352941,,,,,,,,,,,,,,,,,,,,,,,,,,,,,,,,,,,,,,,,,,,,,,,,,,,,冷静,e,,,,e,1,1,39,119,26,1,0.5732,,
,,,,,,,,,,,,,1,001,2025-02-07_16h39.28.691,IAT(Formal),2021.2.3,Win32,58.82352941,,,,,,,,,,,,,,,,,,,,,,,,,,,,,,,,,,,,,,,,,,,,,,,,,,,,他们,e,,,,e,1,1,40,120,76,1,0.6008,,
,,,,,,,,,,,,,1,001,2025-02-07_16h39.28.691,IAT(Formal),2021.2.3,Win32,58.82352941,,,,,,,,,,,,,,,,,,,,,,,,,,,,,,,,,,,,,,,,,,,,,,,,,,,,其他,e,,,,e,1,1,41,121,69,1,0.4599,,
,,,,,,,,,,,,,1,001,2025-02-07_16h39.28.691,IAT(Formal),2021.2.3,Win32,58.82352941,,,,,,,,,,,,,,,,,,,,,,,,,,,,,,,,,,,,,,,,,,,,,,,,,,,,刻薄,i,,,,e,0,1,42,122,33,1,0.5363,,
,,,,,,,,,,,,,1,001,2025-02-07_16h39.28.691,IAT(Formal),2021.2.3,Win32,58.82352941,,,,,,,,,,,,,,,,,,,,,,,,,,,,,,,,,,,,,,,,,,,,,,,,,,,,活泼,e,,,,e,1,1,43,123,28,1,0.653,,
,,,,,,,,,,,,,1,001,2025-02-07_16h39.28.691,IAT(Formal),2021.2.3,Win32,58.82352941,,,,,,,,,,,,,,,,,,,,,,,,,,,,,,,,,,,,,,,,,,,,,,,,,,,,凶狠,i,,,,i,1,1,44,124,42,1,0.6334,,
,,,,,,,,,,,,,1,001,2025-02-07_16h39.28.691,IAT(Formal),2021.2.3,Win32,58.82352941,,,,,,,,,,,,,,,,,,,,,,,,,,,,,,,,,,,,,,,,,,,,,,,,,,,,诚实,e,,,,e,1,1,45,125,15,1,0.6435,,
,,,,,,,,,,,,,1,001,2025-02-07_16h39.28.691,IAT(Formal),2021.2.3,Win32,58.82352941,,,,,,,,,,,,,,,,,,,,,,,,,,,,,,,,,,,,,,,,,,,,,,,,,,,,虚伪,i,,,,i,1,1,46,126,31,1,0.9,,
,,,,,,,,,,,,,1,001,2025-02-07_16h39.28.691,IAT(Formal),2021.2.3,Win32,58.82352941,,,,,,,,,,,,,,,,,,,,,,,,,,,,,,,,,,,,,,,,,,,,,,,,,,,,他的,e,,,,,0,1,47,127,57,1,,,
,,,,,,,,,,,,,1,001,2025-02-07_16h39.28.691,IAT(Formal),2021.2.3,Win32,58.82352941,,,,,,,,,,,,,,,,,,,,,,,,,,,,,,,,,,,,,,,,,,,,,,,,,,,,他,e,,,,e,1,1,48,128,75,1,0.4424,,
,,,,,,,,,,,,,1,001,2025-02-07_16h39.28.691,IAT(Formal),2021.2.3,Win32,58.82352941,,,,,,,,,,,,,,,,,,,,,,,,,,,,,,,,,,,,,,,,,,,,,,,,,,,,猖狂,i,,,,e,0,1,49,129,45,1,0.6683,,
,,,,,,,,,,,,,1,001,2025-02-07_16h39.28.691,IAT(Formal),2021.2.3,Win32,58.82352941,,,,,,,,,,,,,,,,,,,,,,,,,,,,,,,,,,,,,,,,,,,,,,,,,,,,他人,e,,,,e,1,1,50,130,58,1,0.7343,,
,,,,,,,,,,,,,1,001,2025-02-07_16h39.28.691,IAT(Formal),2021.2.3,Win32,58.82352941,,,,,,,,,,,,,,,,,,,,,,,,,,,,,,,,,,,,,,,,,,,,,,,,,,,,他人,e,,,,e,1,1,51,131,68,1,0.5872,,
,,,,,,,,,,,,,1,001,2025-02-07_16h39.28.691,IAT(Formal),2021.2.3,Win32,58.82352941,,,,,,,,,,,,,,,,,,,,,,,,,,,,,,,,,,,,,,,,,,,,,,,,,,,,鲁莽,i,,,,e,0,1,52,132,38,1,0.9513,,
,,,,,,,,,,,,,1,001,2025-02-07_16h39.28.691,IAT(Formal),2021.2.3,Win32,58.82352941,,,,,,,,,,,,,,,,,,,,,,,,,,,,,,,,,,,,,,,,,,,,,,,,,,,,他们,e,,,,e,1,1,53,133,6,1,0.5013,,
,,,,,,,,,,,,,1,001,2025-02-07_16h39.28.691,IAT(Formal),2021.2.3,Win32,58.82352941,,,,,,,,,,,,,,,,,,,,,,,,,,,,,,,,,,,,,,,,,,,,,,,,,,,,自卑,i,,,,i,1,1,54,134,36,1,0.5853,,
,,,,,,,,,,,,,1,001,2025-02-07_16h39.28.691,IAT(Formal),2021.2.3,Win32,58.82352941,,,,,,,,,,,,,,,,,,,,,,,,,,,,,,,,,,,,,,,,,,,,,,,,,,,,认真,e,,,,e,1,1,55,135,20,1,0.8267,,
,,,,,,,,,,,,,1,001,2025-02-07_16h39.28.691,IAT(Formal),2021.2.3,Win32,58.82352941,,,,,,,,,,,,,,,,,,,,,,,,,,,,,,,,,,,,,,,,,,,,,,,,,,,,其他,e,,,,e,1,1,56,136,9,1,0.5687,,
,,,,,,,,,,,,,1,001,2025-02-07_16h39.28.691,IAT(Formal),2021.2.3,Win32,58.82352941,,,,,,,,,,,,,,,,,,,,,,,,,,,,,,,,,,,,,,,,,,,,,,,,,,,,我的,i,,,,e,0,1,57,137,51,1,0.5373,,
,,,,,,,,,,,,,1,001,2025-02-07_16h39.28.691,IAT(Formal),2021.2.3,Win32,58.82352941,,,,,,,,,,,,,,,,,,,,,,,,,,,,,,,,,,,,,,,,,,,,,,,,,,,,稳重,e,,,,e,1,1,58,138,21,1,1.0521,,
,,,,,,,,,,,,,1,001,2025-02-07_16h39.28.691,IAT(Formal),2021.2.3,Win32,58.82352941,,,,,,,,,,,,,,,,,,,,,,,,,,,,,,,,,,,,,,,,,,,,,,,,,,,,乐观,e,,,,e,1,1,59,139,14,1,0.7178,,
,,,,,,,,,,,,,1,001,2025-02-07_16h39.28.691,IAT(Formal),2021.2.3,Win32,58.82352941,,,,,,,,,,,,,,,,,,,,,,,,,,,,,,,,,,,,,,,,,,,,,,,,,,,,优秀,e,,,,e,1,1,60,140,10,1,0.5354,,
,,,,,,,,,,,,,1,001,2025-02-07_16h39.28.691,IAT(Formal),2021.2.3,Win32,58.82352941,,,,,,,,,,,,,,,,,,,,,,,,,,,,,,,,,,,,,,,,,,,,,,,,,,,,勇敢,e,,,,e,1,1,61,141,17,1,0.4615,,
,,,,,,,,,,,,,1,001,2025-02-07_16h39.28.691,IAT(Formal),2021.2.3,Win32,58.82352941,,,,,,,,,,,,,,,,,,,,,,,,,,,,,,,,,,,,,,,,,,,,,,,,,,,,他的,e,,,,e,1,1,62,142,7,1,0.4898,,
,,,,,,,,,,,,,1,001,2025-02-07_16h39.28.691,IAT(Formal),2021.2.3,Win32,58.82352941,,,,,,,,,,,,,,,,,,,,,,,,,,,,,,,,,,,,,,,,,,,,,,,,,,,,卑鄙,i,,,,i,1,1,63,143,30,1,0.6834,,
,,,,,,,,,,,,,1,001,2025-02-07_16h39.28.691,IAT(Formal),2021.2.3,Win32,58.82352941,,,,,,,,,,,,,,,,,,,,,,,,,,,,,,,,,,,,,,,,,,,,,,,,,,,,无私,e,,,,e,1,1,64,144,22,1,0.5525,,
,,,,,,,,,,,,,1,001,2025-02-07_16h39.28.691,IAT(Formal),2021.2.3,Win32,58.82352941,,,,,,,,,,,,,,,,,,,,,,,,,,,,,,,,,,,,,,,,,,,,,,,,,,,,俺,i,,,,i,1,1,65,145,64,1,0.5277,,
,,,,,,,,,,,,,1,001,2025-02-07_16h39.28.691,IAT(Formal),2021.2.3,Win32,58.82352941,,,,,,,,,,,,,,,,,,,,,,,,,,,,,,,,,,,,,,,,,,,,,,,,,,,,我,i,,,,i,1,1,66,146,0,1,0.4451,,
,,,,,,,,,,,,,1,001,2025-02-07_16h39.28.691,IAT(Formal),2021.2.3,Win32,58.82352941,,,,,,,,,,,,,,,,,,,,,,,,,,,,,,,,,,,,,,,,,,,,,,,,,,,,自己,i,,,,i,1,1,67,147,53,1,1.2345,,
,,,,,,,,,,,,,1,001,2025-02-07_16h39.28.691,IAT(Formal),2021.2.3,Win32,58.82352941,,,,,,,,,,,,,,,,,,,,,,,,,,,,,,,,,,,,,,,,,,,,,,,,,,,,崇高,e,,,,e,1,1,68,148,11,1,0.5851,,
,,,,,,,,,,,,,1,001,2025-02-07_16h39.28.691,IAT(Formal),2021.2.3,Win32,58.82352941,,,,,,,,,,,,,,,,,,,,,,,,,,,,,,,,,,,,,,,,,,,,,,,,,,,,俺,i,,,,i,1,1,69,149,4,1,0.5676,,
,,,,,,,,,,,,,1,001,2025-02-07_16h39.28.691,IAT(Formal),2021.2.3,Win32,58.82352941,,,,,,,,,,,,,,,,,,,,,,,,,,,,,,,,,,,,,,,,,,,,,,,,,,,,冒失,i,,,,e,0,1,70,150,39,1,0.635,,
,,,,,,,,,,,,,1,001,2025-02-07_16h39.28.691,IAT(Formal),2021.2.3,Win32,58.82352941,,,,,,,,,,,,,,,,,,,,,,,,,,,,,,,,,,,,,,,,,,,,,,,,,,,,执拗,i,,,,i,1,1,71,151,40,1,0.4838,,
,,,,,,,,,,,,,1,001,2025-02-07_16h39.28.691,IAT(Formal),2021.2.3,Win32,58.82352941,,,,,,,,,,,,,,,,,,,,,,,,,,,,,,,,,,,,,,,,,,,,,,,,,,,,俺,i,,,,i,1,1,72,152,54,1,0.6719,,
,,,,,,,,,,,,,1,001,2025-02-07_16h39.28.691,IAT(Formal),2021.2.3,Win32,58.82352941,,,,,,,,,,,,,,,,,,,,,,,,,,,,,,,,,,,,,,,,,,,,,,,,,,,,轻率,i,,,,i,1,1,73,153,48,1,0.542,,
,,,,,,,,,,,,,1,001,2025-02-07_16h39.28.691,IAT(Formal),2021.2.3,Win32,58.82352941,,,,,,,,,,,,,,,,,,,,,,,,,,,,,,,,,,,,,,,,,,,,,,,,,,,,他人,e,,,,e,1,1,74,154,78,1,0.5511,,
,,,,,,,,,,,,,1,001,2025-02-07_16h39.28.691,IAT(Formal),2021.2.3,Win32,58.82352941,,,,,,,,,,,,,,,,,,,,,,,,,,,,,,,,,,,,,,,,,,,,,,,,,,,,野蛮,i,,,,i,1,1,75,155,46,1,0.8528,,
,,,,,,,,,,,,,1,001,2025-02-07_16h39.28.691,IAT(Formal),2021.2.3,Win32,58.82352941,,,,,,,,,,,,,,,,,,,,,,,,,,,,,,,,,,,,,,,,,,,,,,,,,,,,我们,i,,,,e,0,1,76,156,72,1,0.8048,,
,,,,,,,,,,,,,1,001,2025-02-07_16h39.28.691,IAT(Formal),2021.2.3,Win32,58.82352941,,,,,,,,,,,,,,,,,,,,,,,,,,,,,,,,,,,,,,,,,,,,,,,,,,,,傲慢,i,,,,i,1,1,77,157,37,1,1.1073,,
,,,,,,,,,,,,,1,001,2025-02-07_16h39.28.691,IAT(Formal),2021.2.3,Win32,58.82352941,,,,,,,,,,,,,,,,,,,,,,,,,,,,,,,,,,,,,,,,,,,,,,,,,,,,朴实,e,,,,e,1,1,78,158,24,1,0.6777,,
,,,,,,,,,,,,,1,001,2025-02-07_16h39.28.691,IAT(Formal),2021.2.3,Win32,58.82352941,,,,,,,,,,,,,,,,,,,,,,,,,,,,,,,,,,,,,,,,,,,,,,,,,,,,热情,e,,,,e,1,1,79,159,27,1,1.1683,,
,,,,,,,,,,,,,1,001,2025-02-07_16h39.28.691,IAT(Formal),2021.2.3,Win32,58.82352941,,,,,,,,,,,,,,,,,,,,,,,,,,,,,,,,,,,,,,,,,,,,,,,,,,,,,,,,,,,,,,,,,space,1.8957