﻿Instruction1.keys,Instruction1.rt,Instruction2.keys,Instruction2.rt,key_resp_iso.keys,key_resp_iso.corr,Practice_01.thisRepN,Practice_01.thisTrialN,Practice_01.thisN,Practice_01.thisIndex,Practice_01.ran,Words,ans,participant,session,date,expName,psychopyVersion,OS,frameRate,key_resp_iso.rt,key_resp_3.keys,key_resp_3.rt,key_resp_ipn.keys,key_resp_ipn.corr,key_resp_ipn.rt,Practice_02.thisRepN,Practice_02.thisTrialN,Practice_02.thisN,Practice_02.thisIndex,Practice_02.ran,Words_ipn,ans_ipn,key_resp_4.keys,key_resp_4.rt,key_resp_t1.keys,key_resp_t1.corr,key_resp_t1.rt,Practice_T1.thisRepN,Practice_T1.thisTrialN,Practice_T1.thisN,Practice_T1.thisIndex,Practice_T1.ran,Words_t1,ans_t1,key_resp_5.keys,key_resp_5.rt,Formal_T1.thisRepN,Formal_T1.thisTrialN,Formal_T1.thisN,Formal_T1.thisIndex,Formal_T1.ran,key_resp_6.keys,key_resp_6.rt,key_resp_iso_reverse.keys,key_resp_iso_reverse.corr,key_resp_iso_reverse.rt,Practice_iso_Reverse.thisRepN,Practice_iso_Reverse.thisTrialN,Practice_iso_Reverse.thisN,Practice_iso_Reverse.thisIndex,Practice_iso_Reverse.ran,key_resp_7.keys,key_resp_7.rt,key_resp_t2_Practice.keys,key_resp_t2_Practice.corr,key_resp_t2_Practice.rt,Practice_t2_Reverse.thisRepN,Practice_t2_Reverse.thisTrialN,Practice_t2_Reverse.thisN,Practice_t2_Reverse.thisIndex,Practice_t2_Reverse.ran,Words_t2,ans_t2,key_resp_8.keys,key_resp_8.rt,key_resp_t2.keys,key_resp_t2.corr,key_resp_t2.rt,Formal_t2_reverse.thisRepN,Formal_t2_reverse.thisTrialN,Formal_t2_reverse.thisN,Formal_t2_reverse.thisIndex,Formal_t2_reverse.ran,key_instruct.keys,key_instruct.rt
space,13.0036,space,9.9949,,0,0,0,0,4,1,俺,e,1,001,2025-02-08_16h09.37.256,IAT(Formal),2021.2.3,Win32,75.75757576,,,,,,,,,,,,,,,,,,,,,,,,,,,,,,,,,,,,,,,,,,,,,,,,,,,,,,,,,,,,,,,,,,
,,,,e,1,0,1,1,2,1,我们,e,1,001,2025-02-08_16h09.37.256,IAT(Formal),2021.2.3,Win32,75.75757576,0.8921,,,,,,,,,,,,,,,,,,,,,,,,,,,,,,,,,,,,,,,,,,,,,,,,,,,,,,,,,,,,,,,,,
,,,,i,1,0,2,2,9,1,其他,i,1,001,2025-02-08_16h09.37.256,IAT(Formal),2021.2.3,Win32,75.75757576,0.6499,,,,,,,,,,,,,,,,,,,,,,,,,,,,,,,,,,,,,,,,,,,,,,,,,,,,,,,,,,,,,,,,,
,,,,i,1,0,3,3,8,1,他人,i,1,001,2025-02-08_16h09.37.256,IAT(Formal),2021.2.3,Win32,75.75757576,0.5538,,,,,,,,,,,,,,,,,,,,,,,,,,,,,,,,,,,,,,,,,,,,,,,,,,,,,,,,,,,,,,,,,
,,,,i,1,0,4,4,7,1,他的,i,1,001,2025-02-08_16h09.37.256,IAT(Formal),2021.2.3,Win32,75.75757576,0.8324,,,,,,,,,,,,,,,,,,,,,,,,,,,,,,,,,,,,,,,,,,,,,,,,,,,,,,,,,,,,,,,,,
,,,,e,1,0,5,5,0,1,我,e,1,001,2025-02-08_16h09.37.256,IAT(Formal),2021.2.3,Win32,75.75757576,0.4945,,,,,,,,,,,,,,,,,,,,,,,,,,,,,,,,,,,,,,,,,,,,,,,,,,,,,,,,,,,,,,,,,
,,,,i,1,0,6,6,6,1,他们,i,1,001,2025-02-08_16h09.37.256,IAT(Formal),2021.2.3,Win32,75.75757576,0.6252,,,,,,,,,,,,,,,,,,,,,,,,,,,,,,,,,,,,,,,,,,,,,,,,,,,,,,,,,,,,,,,,,
,,,,e,1,0,7,7,3,1,自己,e,1,001,2025-02-08_16h09.37.256,IAT(Formal),2021.2.3,Win32,75.75757576,0.4951,,,,,,,,,,,,,,,,,,,,,,,,,,,,,,,,,,,,,,,,,,,,,,,,,,,,,,,,,,,,,,,,,
,,,,e,1,0,8,8,1,1,我的,e,1,001,2025-02-08_16h09.37.256,IAT(Formal),2021.2.3,Win32,75.75757576,0.4798,,,,,,,,,,,,,,,,,,,,,,,,,,,,,,,,,,,,,,,,,,,,,,,,,,,,,,,,,,,,,,,,,
,,,,i,1,0,9,9,5,1,他,i,1,001,2025-02-08_16h09.37.256,IAT(Formal),2021.2.3,Win32,75.75757576,0.5521,,,,,,,,,,,,,,,,,,,,,,,,,,,,,,,,,,,,,,,,,,,,,,,,,,,,,,,,,,,,,,,,,
,,,,,,,,,,,,,1,001,2025-02-08_16h09.37.256,IAT(Formal),2021.2.3,Win32,75.75757576,,space,9.6379,e,1,0.7724,0,0,0,12,1,无私,e,,,,,,,,,,,,,,,,,,,,,,,,,,,,,,,,,,,,,,,,,,,,,,,,,,,,,
,,,,,,,,,,,,,1,001,2025-02-08_16h09.37.256,IAT(Formal),2021.2.3,Win32,75.75757576,,,,i,1,0.4547,0,1,1,20,1,卑鄙,i,,,,,,,,,,,,,,,,,,,,,,,,,,,,,,,,,,,,,,,,,,,,,,,,,,,,,
,,,,,,,,,,,,,1,001,2025-02-08_16h09.37.256,IAT(Formal),2021.2.3,Win32,75.75757576,,,,i,1,0.6942,0,2,2,25,1,消极,i,,,,,,,,,,,,,,,,,,,,,,,,,,,,,,,,,,,,,,,,,,,,,,,,,,,,,
,,,,,,,,,,,,,1,001,2025-02-08_16h09.37.256,IAT(Formal),2021.2.3,Win32,75.75757576,,,,i,1,0.5524,0,3,3,39,1,下贱,i,,,,,,,,,,,,,,,,,,,,,,,,,,,,,,,,,,,,,,,,,,,,,,,,,,,,,
,,,,,,,,,,,,,1,001,2025-02-08_16h09.37.256,IAT(Formal),2021.2.3,Win32,75.75757576,,,,e,1,0.517,0,4,4,4,1,乐观,e,,,,,,,,,,,,,,,,,,,,,,,,,,,,,,,,,,,,,,,,,,,,,,,,,,,,,
,,,,,,,,,,,,,1,001,2025-02-08_16h09.37.256,IAT(Formal),2021.2.3,Win32,75.75757576,,,,i,1,0.6989,0,5,5,31,1,散漫,i,,,,,,,,,,,,,,,,,,,,,,,,,,,,,,,,,,,,,,,,,,,,,,,,,,,,,
,,,,,,,,,,,,,1,001,2025-02-08_16h09.37.256,IAT(Formal),2021.2.3,Win32,75.75757576,,,,e,1,0.5589,0,6,6,3,1,杰出,e,,,,,,,,,,,,,,,,,,,,,,,,,,,,,,,,,,,,,,,,,,,,,,,,,,,,,
,,,,,,,,,,,,,1,001,2025-02-08_16h09.37.256,IAT(Formal),2021.2.3,Win32,75.75757576,,,,i,1,0.5237,0,7,7,36,1,野蛮,i,,,,,,,,,,,,,,,,,,,,,,,,,,,,,,,,,,,,,,,,,,,,,,,,,,,,,
,,,,,,,,,,,,,1,001,2025-02-08_16h09.37.256,IAT(Formal),2021.2.3,Win32,75.75757576,,,,i,1,0.6047,0,8,8,22,1,愚蠢,i,,,,,,,,,,,,,,,,,,,,,,,,,,,,,,,,,,,,,,,,,,,,,,,,,,,,,
,,,,,,,,,,,,,1,001,2025-02-08_16h09.37.256,IAT(Formal),2021.2.3,Win32,75.75757576,,,,i,1,0.6771,0,9,9,35,1,猖狂,i,,,,,,,,,,,,,,,,,,,,,,,,,,,,,,,,,,,,,,,,,,,,,,,,,,,,,
,,,,,,,,,,,,,1,001,2025-02-08_16h09.37.256,IAT(Formal),2021.2.3,Win32,75.75757576,,,,e,1,0.5381,0,10,10,13,1,公正,e,,,,,,,,,,,,,,,,,,,,,,,,,,,,,,,,,,,,,,,,,,,,,,,,,,,,,
,,,,,,,,,,,,,1,001,2025-02-08_16h09.37.256,IAT(Formal),2021.2.3,Win32,75.75757576,,,,e,1,0.7239,0,11,11,19,1,诚恳,e,,,,,,,,,,,,,,,,,,,,,,,,,,,,,,,,,,,,,,,,,,,,,,,,,,,,,
,,,,,,,,,,,,,1,001,2025-02-08_16h09.37.256,IAT(Formal),2021.2.3,Win32,75.75757576,,,,i,1,0.7026,0,12,12,38,1,轻率,i,,,,,,,,,,,,,,,,,,,,,,,,,,,,,,,,,,,,,,,,,,,,,,,,,,,,,
,,,,,,,,,,,,,1,001,2025-02-08_16h09.37.256,IAT(Formal),2021.2.3,Win32,75.75757576,,,,i,1,0.6999,0,13,13,26,1,自卑,i,,,,,,,,,,,,,,,,,,,,,,,,,,,,,,,,,,,,,,,,,,,,,,,,,,,,,
,,,,,,,,,,,,,1,001,2025-02-08_16h09.37.256,IAT(Formal),2021.2.3,Win32,75.75757576,,,,e,1,0.6221,0,14,14,7,1,勇敢,e,,,,,,,,,,,,,,,,,,,,,,,,,,,,,,,,,,,,,,,,,,,,,,,,,,,,,
,,,,,,,,,,,,,1,001,2025-02-08_16h09.37.256,IAT(Formal),2021.2.3,Win32,75.75757576,,,,i,1,0.539,0,15,15,24,1,悲观,i,,,,,,,,,,,,,,,,,,,,,,,,,,,,,,,,,,,,,,,,,,,,,,,,,,,,,
,,,,,,,,,,,,,1,001,2025-02-08_16h09.37.256,IAT(Formal),2021.2.3,Win32,75.75757576,,,,e,1,0.5595,0,16,16,11,1,稳重,e,,,,,,,,,,,,,,,,,,,,,,,,,,,,,,,,,,,,,,,,,,,,,,,,,,,,,
,,,,,,,,,,,,,1,001,2025-02-08_16h09.37.256,IAT(Formal),2021.2.3,Win32,75.75757576,,,,e,1,0.5218,0,17,17,15,1,细腻,e,,,,,,,,,,,,,,,,,,,,,,,,,,,,,,,,,,,,,,,,,,,,,,,,,,,,,
,,,,,,,,,,,,,1,001,2025-02-08_16h09.37.256,IAT(Formal),2021.2.3,Win32,75.75757576,,,,i,1,0.5205,0,18,18,37,1,固执,i,,,,,,,,,,,,,,,,,,,,,,,,,,,,,,,,,,,,,,,,,,,,,,,,,,,,,
,,,,,,,,,,,,,1,001,2025-02-08_16h09.37.256,IAT(Formal),2021.2.3,Win32,75.75757576,,,,e,1,0.5859,0,19,19,5,1,诚实,e,,,,,,,,,,,,,,,,,,,,,,,,,,,,,,,,,,,,,,,,,,,,,,,,,,,,,
,,,,,,,,,,,,,1,001,2025-02-08_16h09.37.256,IAT(Formal),2021.2.3,Win32,75.75757576,,,,i,1,0.5017,0,20,20,34,1,暴躁,i,,,,,,,,,,,,,,,,,,,,,,,,,,,,,,,,,,,,,,,,,,,,,,,,,,,,,
,,,,,,,,,,,,,1,001,2025-02-08_16h09.37.256,IAT(Formal),2021.2.3,Win32,75.75757576,,,,e,1,0.703,0,21,21,18,1,活泼,e,,,,,,,,,,,,,,,,,,,,,,,,,,,,,,,,,,,,,,,,,,,,,,,,,,,,,
,,,,,,,,,,,,,1,001,2025-02-08_16h09.37.256,IAT(Formal),2021.2.3,Win32,75.75757576,,,,e,1,0.5462,0,22,22,0,1,优秀,e,,,,,,,,,,,,,,,,,,,,,,,,,,,,,,,,,,,,,,,,,,,,,,,,,,,,,
,,,,,,,,,,,,,1,001,2025-02-08_16h09.37.256,IAT(Formal),2021.2.3,Win32,75.75757576,,,,i,1,0.5978,0,23,23,29,1,冒失,i,,,,,,,,,,,,,,,,,,,,,,,,,,,,,,,,,,,,,,,,,,,,,,,,,,,,,
,,,,,,,,,,,,,1,001,2025-02-08_16h09.37.256,IAT(Formal),2021.2.3,Win32,75.75757576,,,,e,1,0.5696,0,24,24,1,1,崇高,e,,,,,,,,,,,,,,,,,,,,,,,,,,,,,,,,,,,,,,,,,,,,,,,,,,,,,
,,,,,,,,,,,,,1,001,2025-02-08_16h09.37.256,IAT(Formal),2021.2.3,Win32,75.75757576,,,,e,1,0.6942,0,25,25,8,1,勤奋,e,,,,,,,,,,,,,,,,,,,,,,,,,,,,,,,,,,,,,,,,,,,,,,,,,,,,,
,,,,,,,,,,,,,1,001,2025-02-08_16h09.37.256,IAT(Formal),2021.2.3,Win32,75.75757576,,,,e,1,0.7824,0,26,26,16,1,冷静,e,,,,,,,,,,,,,,,,,,,,,,,,,,,,,,,,,,,,,,,,,,,,,,,,,,,,,
,,,,,,,,,,,,,1,001,2025-02-08_16h09.37.256,IAT(Formal),2021.2.3,Win32,75.75757576,,,,e,0,0.4885,0,27,27,27,1,傲慢,i,,,,,,,,,,,,,,,,,,,,,,,,,,,,,,,,,,,,,,,,,,,,,,,,,,,,,
,,,,,,,,,,,,,1,001,2025-02-08_16h09.37.256,IAT(Formal),2021.2.3,Win32,75.75757576,,,,e,1,0.6115,0,28,28,9,1,机智,e,,,,,,,,,,,,,,,,,,,,,,,,,,,,,,,,,,,,,,,,,,,,,,,,,,,,,
,,,,,,,,,,,,,1,001,2025-02-08_16h09.37.256,IAT(Formal),2021.2.3,Win32,75.75757576,,,,e,1,0.6545,0,29,29,17,1,热情,e,,,,,,,,,,,,,,,,,,,,,,,,,,,,,,,,,,,,,,,,,,,,,,,,,,,,,
,,,,,,,,,,,,,1,001,2025-02-08_16h09.37.256,IAT(Formal),2021.2.3,Win32,75.75757576,,,,e,1,0.543,0,30,30,6,1,正直,e,,,,,,,,,,,,,,,,,,,,,,,,,,,,,,,,,,,,,,,,,,,,,,,,,,,,,
,,,,,,,,,,,,,1,001,2025-02-08_16h09.37.256,IAT(Formal),2021.2.3,Win32,75.75757576,,,,i,1,0.4881,0,31,31,23,1,刻薄,i,,,,,,,,,,,,,,,,,,,,,,,,,,,,,,,,,,,,,,,,,,,,,,,,,,,,,
,,,,,,,,,,,,,1,001,2025-02-08_16h09.37.256,IAT(Formal),2021.2.3,Win32,75.75757576,,,,i,1,0.5874,0,32,32,32,1,凶狠,i,,,,,,,,,,,,,,,,,,,,,,,,,,,,,,,,,,,,,,,,,,,,,,,,,,,,,
,,,,,,,,,,,,,1,001,2025-02-08_16h09.37.256,IAT(Formal),2021.2.3,Win32,75.75757576,,,,i,1,0.6241,0,33,33,21,1,虚伪,i,,,,,,,,,,,,,,,,,,,,,,,,,,,,,,,,,,,,,,,,,,,,,,,,,,,,,
,,,,,,,,,,,,,1,001,2025-02-08_16h09.37.256,IAT(Formal),2021.2.3,Win32,75.75757576,,,,e,1,0.6236,0,34,34,10,1,认真,e,,,,,,,,,,,,,,,,,,,,,,,,,,,,,,,,,,,,,,,,,,,,,,,,,,,,,
,,,,,,,,,,,,,1,001,2025-02-08_16h09.37.256,IAT(Formal),2021.2.3,Win32,75.75757576,,,,e,1,0.5981,0,35,35,2,1,聪明,e,,,,,,,,,,,,,,,,,,,,,,,,,,,,,,,,,,,,,,,,,,,,,,,,,,,,,
,,,,,,,,,,,,,1,001,2025-02-08_16h09.37.256,IAT(Formal),2021.2.3,Win32,75.75757576,,,,i,1,0.5627,0,36,36,33,1,自私,i,,,,,,,,,,,,,,,,,,,,,,,,,,,,,,,,,,,,,,,,,,,,,,,,,,,,,
,,,,,,,,,,,,,1,001,2025-02-08_16h09.37.256,IAT(Formal),2021.2.3,Win32,75.75757576,,,,e,1,0.8945,0,37,37,14,1,朴实,e,,,,,,,,,,,,,,,,,,,,,,,,,,,,,,,,,,,,,,,,,,,,,,,,,,,,,
,,,,,,,,,,,,,1,001,2025-02-08_16h09.37.256,IAT(Formal),2021.2.3,Win32,75.75757576,,,,i,1,0.5683,0,38,38,30,1,执拗,i,,,,,,,,,,,,,,,,,,,,,,,,,,,,,,,,,,,,,,,,,,,,,,,,,,,,,
,,,,,,,,,,,,,1,001,2025-02-08_16h09.37.256,IAT(Formal),2021.2.3,Win32,75.75757576,,,,i,1,0.7113,0,39,39,28,1,鲁莽,i,,,,,,,,,,,,,,,,,,,,,,,,,,,,,,,,,,,,,,,,,,,,,,,,,,,,,
,,,,,,,,,,,,,1,001,2025-02-08_16h09.37.256,IAT(Formal),2021.2.3,Win32,75.75757576,,,,,,,,,,,,,,space,7.8043,e,1,0.5608,0,0,0,54,1,俺,e,,,,,,,,,,,,,,,,,,,,,,,,,,,,,,,,,,,,,,,,,
,,,,,,,,,,,,,1,001,2025-02-08_16h09.37.256,IAT(Formal),2021.2.3,Win32,75.75757576,,,,,,,,,,,,,,,,i,1,0.6724,0,1,1,75,1,他,i,,,,,,,,,,,,,,,,,,,,,,,,,,,,,,,,,,,,,,,,,
,,,,,,,,,,,,,1,001,2025-02-08_16h09.37.256,IAT(Formal),2021.2.3,Win32,75.75757576,,,,,,,,,,,,,,,,i,1,0.5741,0,2,2,47,1,固执,i,,,,,,,,,,,,,,,,,,,,,,,,,,,,,,,,,,,,,,,,,
,,,,,,,,,,,,,1,001,2025-02-08_16h09.37.256,IAT(Formal),2021.2.3,Win32,75.75757576,,,,,,,,,,,,,,,,i,1,0.5128,0,3,3,58,1,他人,i,,,,,,,,,,,,,,,,,,,,,,,,,,,,,,,,,,,,,,,,,
,,,,,,,,,,,,,1,001,2025-02-08_16h09.37.256,IAT(Formal),2021.2.3,Win32,75.75757576,,,,,,,,,,,,,,,,e,1,0.5343,0,4,4,62,1,我们,e,,,,,,,,,,,,,,,,,,,,,,,,,,,,,,,,,,,,,,,,,
,,,,,,,,,,,,,1,001,2025-02-08_16h09.37.256,IAT(Formal),2021.2.3,Win32,75.75757576,,,,,,,,,,,,,,,,e,1,0.4758,0,5,5,70,1,我,e,,,,,,,,,,,,,,,,,,,,,,,,,,,,,,,,,,,,,,,,,
,,,,,,,,,,,,,1,001,2025-02-08_16h09.37.256,IAT(Formal),2021.2.3,Win32,75.75757576,,,,,,,,,,,,,,,,i,1,0.5468,0,6,6,76,1,他们,i,,,,,,,,,,,,,,,,,,,,,,,,,,,,,,,,,,,,,,,,,
,,,,,,,,,,,,,1,001,2025-02-08_16h09.37.256,IAT(Formal),2021.2.3,Win32,75.75757576,,,,,,,,,,,,,,,,e,0,0.5134,0,7,7,57,1,他的,i,,,,,,,,,,,,,,,,,,,,,,,,,,,,,,,,,,,,,,,,,
,,,,,,,,,,,,,1,001,2025-02-08_16h09.37.256,IAT(Formal),2021.2.3,Win32,75.75757576,,,,,,,,,,,,,,,,i,1,0.4966,0,8,8,8,1,他人,i,,,,,,,,,,,,,,,,,,,,,,,,,,,,,,,,,,,,,,,,,
,,,,,,,,,,,,,1,001,2025-02-08_16h09.37.256,IAT(Formal),2021.2.3,Win32,75.75757576,,,,,,,,,,,,,,,,e,1,0.5582,0,9,9,28,1,活泼,e,,,,,,,,,,,,,,,,,,,,,,,,,,,,,,,,,,,,,,,,,
,,,,,,,,,,,,,1,001,2025-02-08_16h09.37.256,IAT(Formal),2021.2.3,Win32,75.75757576,,,,,,,,,,,,,,,,i,1,0.6005,0,10,10,37,1,傲慢,i,,,,,,,,,,,,,,,,,,,,,,,,,,,,,,,,,,,,,,,,,
,,,,,,,,,,,,,1,001,2025-02-08_16h09.37.256,IAT(Formal),2021.2.3,Win32,75.75757576,,,,,,,,,,,,,,,,i,1,0.67,0,11,11,55,1,他,i,,,,,,,,,,,,,,,,,,,,,,,,,,,,,,,,,,,,,,,,,
,,,,,,,,,,,,,1,001,2025-02-08_16h09.37.256,IAT(Formal),2021.2.3,Win32,75.75757576,,,,,,,,,,,,,,,,e,1,0.6673,0,12,12,23,1,公正,e,,,,,,,,,,,,,,,,,,,,,,,,,,,,,,,,,,,,,,,,,
,,,,,,,,,,,,,1,001,2025-02-08_16h09.37.256,IAT(Formal),2021.2.3,Win32,75.75757576,,,,,,,,,,,,,,,,i,1,0.6948,0,13,13,77,1,他的,i,,,,,,,,,,,,,,,,,,,,,,,,,,,,,,,,,,,,,,,,,
,,,,,,,,,,,,,1,001,2025-02-08_16h09.37.256,IAT(Formal),2021.2.3,Win32,75.75757576,,,,,,,,,,,,,,,,e,1,0.6003,0,14,14,73,1,自己,e,,,,,,,,,,,,,,,,,,,,,,,,,,,,,,,,,,,,,,,,,
,,,,,,,,,,,,,1,001,2025-02-08_16h09.37.256,IAT(Formal),2021.2.3,Win32,75.75757576,,,,,,,,,,,,,,,,i,1,0.8424,0,15,15,59,1,其他,i,,,,,,,,,,,,,,,,,,,,,,,,,,,,,,,,,,,,,,,,,
,,,,,,,,,,,,,1,001,2025-02-08_16h09.37.256,IAT(Formal),2021.2.3,Win32,75.75757576,,,,,,,,,,,,,,,,e,1,0.4677,0,16,16,4,1,俺,e,,,,,,,,,,,,,,,,,,,,,,,,,,,,,,,,,,,,,,,,,
,,,,,,,,,,,,,1,001,2025-02-08_16h09.37.256,IAT(Formal),2021.2.3,Win32,75.75757576,,,,,,,,,,,,,,,,i,1,0.6467,0,17,17,56,1,他们,i,,,,,,,,,,,,,,,,,,,,,,,,,,,,,,,,,,,,,,,,,
,,,,,,,,,,,,,1,001,2025-02-08_16h09.37.256,IAT(Formal),2021.2.3,Win32,75.75757576,,,,,,,,,,,,,,,,i,1,0.7244,0,18,18,43,1,自私,i,,,,,,,,,,,,,,,,,,,,,,,,,,,,,,,,,,,,,,,,,
,,,,,,,,,,,,,1,001,2025-02-08_16h09.37.256,IAT(Formal),2021.2.3,Win32,75.75757576,,,,,,,,,,,,,,,,i,1,0.5212,0,19,19,46,1,野蛮,i,,,,,,,,,,,,,,,,,,,,,,,,,,,,,,,,,,,,,,,,,
,,,,,,,,,,,,,1,001,2025-02-08_16h09.37.256,IAT(Formal),2021.2.3,Win32,75.75757576,,,,,,,,,,,,,,,,e,1,0.5753,0,20,20,11,1,崇高,e,,,,,,,,,,,,,,,,,,,,,,,,,,,,,,,,,,,,,,,,,
,,,,,,,,,,,,,1,001,2025-02-08_16h09.37.256,IAT(Formal),2021.2.3,Win32,75.75757576,,,,,,,,,,,,,,,,i,1,0.4885,0,21,21,65,1,他,i,,,,,,,,,,,,,,,,,,,,,,,,,,,,,,,,,,,,,,,,,
,,,,,,,,,,,,,1,001,2025-02-08_16h09.37.256,IAT(Formal),2021.2.3,Win32,75.75757576,,,,,,,,,,,,,,,,i,1,0.8706,0,22,22,36,1,自卑,i,,,,,,,,,,,,,,,,,,,,,,,,,,,,,,,,,,,,,,,,,
,,,,,,,,,,,,,1,001,2025-02-08_16h09.37.256,IAT(Formal),2021.2.3,Win32,75.75757576,,,,,,,,,,,,,,,,e,1,0.7242,0,23,23,27,1,热情,e,,,,,,,,,,,,,,,,,,,,,,,,,,,,,,,,,,,,,,,,,
,,,,,,,,,,,,,1,001,2025-02-08_16h09.37.256,IAT(Formal),2021.2.3,Win32,75.75757576,,,,,,,,,,,,,,,,i,1,0.5939,0,24,24,7,1,他的,i,,,,,,,,,,,,,,,,,,,,,,,,,,,,,,,,,,,,,,,,,
,,,,,,,,,,,,,1,001,2025-02-08_16h09.37.256,IAT(Formal),2021.2.3,Win32,75.75757576,,,,,,,,,,,,,,,,i,1,0.6178,0,25,25,38,1,鲁莽,i,,,,,,,,,,,,,,,,,,,,,,,,,,,,,,,,,,,,,,,,,
,,,,,,,,,,,,,1,001,2025-02-08_16h09.37.256,IAT(Formal),2021.2.3,Win32,75.75757576,,,,,,,,,,,,,,,,i,1,0.6187,0,26,26,9,1,其他,i,,,,,,,,,,,,,,,,,,,,,,,,,,,,,,,,,,,,,,,,,
,,,,,,,,,,,,,1,001,2025-02-08_16h09.37.256,IAT(Formal),2021.2.3,Win32,75.75757576,,,,,,,,,,,,,,,,e,1,0.5598,0,27,27,50,1,我,e,,,,,,,,,,,,,,,,,,,,,,,,,,,,,,,,,,,,,,,,,
,,,,,,,,,,,,,1,001,2025-02-08_16h09.37.256,IAT(Formal),2021.2.3,Win32,75.75757576,,,,,,,,,,,,,,,,i,0,0.8399,0,28,28,10,1,优秀,e,,,,,,,,,,,,,,,,,,,,,,,,,,,,,,,,,,,,,,,,,
,,,,,,,,,,,,,1,001,2025-02-08_16h09.37.256,IAT(Formal),2021.2.3,Win32,75.75757576,,,,,,,,,,,,,,,,i,1,0.4918,0,29,29,79,1,其他,i,,,,,,,,,,,,,,,,,,,,,,,,,,,,,,,,,,,,,,,,,
,,,,,,,,,,,,,1,001,2025-02-08_16h09.37.256,IAT(Formal),2021.2.3,Win32,75.75757576,,,,,,,,,,,,,,,,i,1,0.5739,0,30,30,42,1,凶狠,i,,,,,,,,,,,,,,,,,,,,,,,,,,,,,,,,,,,,,,,,,
,,,,,,,,,,,,,1,001,2025-02-08_16h09.37.256,IAT(Formal),2021.2.3,Win32,75.75757576,,,,,,,,,,,,,,,,e,1,0.5524,0,31,31,20,1,认真,e,,,,,,,,,,,,,,,,,,,,,,,,,,,,,,,,,,,,,,,,,
,,,,,,,,,,,,,1,001,2025-02-08_16h09.37.256,IAT(Formal),2021.2.3,Win32,75.75757576,,,,,,,,,,,,,,,,i,1,0.8305,0,32,32,40,1,执拗,i,,,,,,,,,,,,,,,,,,,,,,,,,,,,,,,,,,,,,,,,,
,,,,,,,,,,,,,1,001,2025-02-08_16h09.37.256,IAT(Formal),2021.2.3,Win32,75.75757576,,,,,,,,,,,,,,,,e,1,0.6718,0,33,33,71,1,我的,e,,,,,,,,,,,,,,,,,,,,,,,,,,,,,,,,,,,,,,,,,
,,,,,,,,,,,,,1,001,2025-02-08_16h09.37.256,IAT(Formal),2021.2.3,Win32,75.75757576,,,,,,,,,,,,,,,,e,1,0.6141,0,34,34,0,1,我,e,,,,,,,,,,,,,,,,,,,,,,,,,,,,,,,,,,,,,,,,,
,,,,,,,,,,,,,1,001,2025-02-08_16h09.37.256,IAT(Formal),2021.2.3,Win32,75.75757576,,,,,,,,,,,,,,,,e,1,0.9487,0,35,35,17,1,勇敢,e,,,,,,,,,,,,,,,,,,,,,,,,,,,,,,,,,,,,,,,,,
,,,,,,,,,,,,,1,001,2025-02-08_16h09.37.256,IAT(Formal),2021.2.3,Win32,75.75757576,,,,,,,,,,,,,,,,i,1,0.6142,0,36,36,68,1,他人,i,,,,,,,,,,,,,,,,,,,,,,,,,,,,,,,,,,,,,,,,,
,,,,,,,,,,,,,1,001,2025-02-08_16h09.37.256,IAT(Formal),2021.2.3,Win32,75.75757576,,,,,,,,,,,,,,,,i,1,0.597,0,37,37,30,1,卑鄙,i,,,,,,,,,,,,,,,,,,,,,,,,,,,,,,,,,,,,,,,,,
,,,,,,,,,,,,,1,001,2025-02-08_16h09.37.256,IAT(Formal),2021.2.3,Win32,75.75757576,,,,,,,,,,,,,,,,e,1,0.6423,0,38,38,74,1,俺,e,,,,,,,,,,,,,,,,,,,,,,,,,,,,,,,,,,,,,,,,,
,,,,,,,,,,,,,1,001,2025-02-08_16h09.37.256,IAT(Formal),2021.2.3,Win32,75.75757576,,,,,,,,,,,,,,,,e,1,0.575,0,39,39,53,1,自己,e,,,,,,,,,,,,,,,,,,,,,,,,,,,,,,,,,,,,,,,,,
,,,,,,,,,,,,,1,001,2025-02-08_16h09.37.256,IAT(Formal),2021.2.3,Win32,75.75757576,,,,,,,,,,,,,,,,e,1,0.9572,0,40,40,26,1,冷静,e,,,,,,,,,,,,,,,,,,,,,,,,,,,,,,,,,,,,,,,,,
,,,,,,,,,,,,,1,001,2025-02-08_16h09.37.256,IAT(Formal),2021.2.3,Win32,75.75757576,,,,,,,,,,,,,,,,i,1,0.5021,0,41,41,49,1,下贱,i,,,,,,,,,,,,,,,,,,,,,,,,,,,,,,,,,,,,,,,,,
,,,,,,,,,,,,,1,001,2025-02-08_16h09.37.256,IAT(Formal),2021.2.3,Win32,75.75757576,,,,,,,,,,,,,,,,e,1,0.6555,0,42,42,3,1,自己,e,,,,,,,,,,,,,,,,,,,,,,,,,,,,,,,,,,,,,,,,,
,,,,,,,,,,,,,1,001,2025-02-08_16h09.37.256,IAT(Formal),2021.2.3,Win32,75.75757576,,,,,,,,,,,,,,,,e,1,0.6282,0,43,43,2,1,我们,e,,,,,,,,,,,,,,,,,,,,,,,,,,,,,,,,,,,,,,,,,
,,,,,,,,,,,,,1,001,2025-02-08_16h09.37.256,IAT(Formal),2021.2.3,Win32,75.75757576,,,,,,,,,,,,,,,,e,1,1.3499,0,44,44,13,1,杰出,e,,,,,,,,,,,,,,,,,,,,,,,,,,,,,,,,,,,,,,,,,
,,,,,,,,,,,,,1,001,2025-02-08_16h09.37.256,IAT(Formal),2021.2.3,Win32,75.75757576,,,,,,,,,,,,,,,,i,1,0.6008,0,45,45,32,1,愚蠢,i,,,,,,,,,,,,,,,,,,,,,,,,,,,,,,,,,,,,,,,,,
,,,,,,,,,,,,,1,001,2025-02-08_16h09.37.256,IAT(Formal),2021.2.3,Win32,75.75757576,,,,,,,,,,,,,,,,e,1,0.7658,0,46,46,22,1,无私,e,,,,,,,,,,,,,,,,,,,,,,,,,,,,,,,,,,,,,,,,,
,,,,,,,,,,,,,1,001,2025-02-08_16h09.37.256,IAT(Formal),2021.2.3,Win32,75.75757576,,,,,,,,,,,,,,,,i,1,0.6346,0,47,47,34,1,悲观,i,,,,,,,,,,,,,,,,,,,,,,,,,,,,,,,,,,,,,,,,,
,,,,,,,,,,,,,1,001,2025-02-08_16h09.37.256,IAT(Formal),2021.2.3,Win32,75.75757576,,,,,,,,,,,,,,,,e,1,0.6295,0,48,48,72,1,我们,e,,,,,,,,,,,,,,,,,,,,,,,,,,,,,,,,,,,,,,,,,
,,,,,,,,,,,,,1,001,2025-02-08_16h09.37.256,IAT(Formal),2021.2.3,Win32,75.75757576,,,,,,,,,,,,,,,,e,1,1.2001,0,49,49,15,1,诚实,e,,,,,,,,,,,,,,,,,,,,,,,,,,,,,,,,,,,,,,,,,
,,,,,,,,,,,,,1,001,2025-02-08_16h09.37.256,IAT(Formal),2021.2.3,Win32,75.75757576,,,,,,,,,,,,,,,,i,1,0.7208,0,50,50,48,1,轻率,i,,,,,,,,,,,,,,,,,,,,,,,,,,,,,,,,,,,,,,,,,
,,,,,,,,,,,,,1,001,2025-02-08_16h09.37.256,IAT(Formal),2021.2.3,Win32,75.75757576,,,,,,,,,,,,,,,,e,1,0.6659,0,51,51,12,1,聪明,e,,,,,,,,,,,,,,,,,,,,,,,,,,,,,,,,,,,,,,,,,
,,,,,,,,,,,,,1,001,2025-02-08_16h09.37.256,IAT(Formal),2021.2.3,Win32,75.75757576,,,,,,,,,,,,,,,,i,1,0.6808,0,52,52,44,1,暴躁,i,,,,,,,,,,,,,,,,,,,,,,,,,,,,,,,,,,,,,,,,,
,,,,,,,,,,,,,1,001,2025-02-08_16h09.37.256,IAT(Formal),2021.2.3,Win32,75.75757576,,,,,,,,,,,,,,,,e,1,0.6808,0,53,53,29,1,诚恳,e,,,,,,,,,,,,,,,,,,,,,,,,,,,,,,,,,,,,,,,,,
,,,,,,,,,,,,,1,001,2025-02-08_16h09.37.256,IAT(Formal),2021.2.3,Win32,75.75757576,,,,,,,,,,,,,,,,i,1,0.6621,0,54,54,67,1,他的,i,,,,,,,,,,,,,,,,,,,,,,,,,,,,,,,,,,,,,,,,,
,,,,,,,,,,,,,1,001,2025-02-08_16h09.37.256,IAT(Formal),2021.2.3,Win32,75.75757576,,,,,,,,,,,,,,,,e,1,0.6302,0,55,55,25,1,细腻,e,,,,,,,,,,,,,,,,,,,,,,,,,,,,,,,,,,,,,,,,,
,,,,,,,,,,,,,1,001,2025-02-08_16h09.37.256,IAT(Formal),2021.2.3,Win32,75.75757576,,,,,,,,,,,,,,,,i,1,0.6279,0,56,56,69,1,其他,i,,,,,,,,,,,,,,,,,,,,,,,,,,,,,,,,,,,,,,,,,
,,,,,,,,,,,,,1,001,2025-02-08_16h09.37.256,IAT(Formal),2021.2.3,Win32,75.75757576,,,,,,,,,,,,,,,,i,1,0.7392,0,57,57,35,1,消极,i,,,,,,,,,,,,,,,,,,,,,,,,,,,,,,,,,,,,,,,,,
,,,,,,,,,,,,,1,001,2025-02-08_16h09.37.256,IAT(Formal),2021.2.3,Win32,75.75757576,,,,,,,,,,,,,,,,i,1,0.6539,0,58,58,45,1,猖狂,i,,,,,,,,,,,,,,,,,,,,,,,,,,,,,,,,,,,,,,,,,
,,,,,,,,,,,,,1,001,2025-02-08_16h09.37.256,IAT(Formal),2021.2.3,Win32,75.75757576,,,,,,,,,,,,,,,,e,1,0.6383,0,59,59,16,1,正直,e,,,,,,,,,,,,,,,,,,,,,,,,,,,,,,,,,,,,,,,,,
,,,,,,,,,,,,,1,001,2025-02-08_16h09.37.256,IAT(Formal),2021.2.3,Win32,75.75757576,,,,,,,,,,,,,,,,i,1,0.9605,0,60,60,41,1,散漫,i,,,,,,,,,,,,,,,,,,,,,,,,,,,,,,,,,,,,,,,,,
,,,,,,,,,,,,,1,001,2025-02-08_16h09.37.256,IAT(Formal),2021.2.3,Win32,75.75757576,,,,,,,,,,,,,,,,i,1,0.7769,0,61,61,66,1,他们,i,,,,,,,,,,,,,,,,,,,,,,,,,,,,,,,,,,,,,,,,,
,,,,,,,,,,,,,1,001,2025-02-08_16h09.37.256,IAT(Formal),2021.2.3,Win32,75.75757576,,,,,,,,,,,,,,,,e,1,0.5877,0,62,62,21,1,稳重,e,,,,,,,,,,,,,,,,,,,,,,,,,,,,,,,,,,,,,,,,,
,,,,,,,,,,,,,1,001,2025-02-08_16h09.37.256,IAT(Formal),2021.2.3,Win32,75.75757576,,,,,,,,,,,,,,,,i,1,0.5905,0,63,63,33,1,刻薄,i,,,,,,,,,,,,,,,,,,,,,,,,,,,,,,,,,,,,,,,,,
,,,,,,,,,,,,,1,001,2025-02-08_16h09.37.256,IAT(Formal),2021.2.3,Win32,75.75757576,,,,,,,,,,,,,,,,e,1,0.5554,0,64,64,24,1,朴实,e,,,,,,,,,,,,,,,,,,,,,,,,,,,,,,,,,,,,,,,,,
,,,,,,,,,,,,,1,001,2025-02-08_16h09.37.256,IAT(Formal),2021.2.3,Win32,75.75757576,,,,,,,,,,,,,,,,e,1,0.4955,0,65,65,1,1,我的,e,,,,,,,,,,,,,,,,,,,,,,,,,,,,,,,,,,,,,,,,,
,,,,,,,,,,,,,1,001,2025-02-08_16h09.37.256,IAT(Formal),2021.2.3,Win32,75.75757576,,,,,,,,,,,,,,,,e,1,0.4004,0,66,66,52,1,我们,e,,,,,,,,,,,,,,,,,,,,,,,,,,,,,,,,,,,,,,,,,
,,,,,,,,,,,,,1,001,2025-02-08_16h09.37.256,IAT(Formal),2021.2.3,Win32,75.75757576,,,,,,,,,,,,,,,,e,1,0.6933,0,67,67,19,1,机智,e,,,,,,,,,,,,,,,,,,,,,,,,,,,,,,,,,,,,,,,,,
,,,,,,,,,,,,,1,001,2025-02-08_16h09.37.256,IAT(Formal),2021.2.3,Win32,75.75757576,,,,,,,,,,,,,,,,i,1,0.6457,0,68,68,31,1,虚伪,i,,,,,,,,,,,,,,,,,,,,,,,,,,,,,,,,,,,,,,,,,
,,,,,,,,,,,,,1,001,2025-02-08_16h09.37.256,IAT(Formal),2021.2.3,Win32,75.75757576,,,,,,,,,,,,,,,,i,1,0.6287,0,69,69,5,1,他,i,,,,,,,,,,,,,,,,,,,,,,,,,,,,,,,,,,,,,,,,,
,,,,,,,,,,,,,1,001,2025-02-08_16h09.37.256,IAT(Formal),2021.2.3,Win32,75.75757576,,,,,,,,,,,,,,,,i,1,0.7732,0,70,70,39,1,冒失,i,,,,,,,,,,,,,,,,,,,,,,,,,,,,,,,,,,,,,,,,,
,,,,,,,,,,,,,1,001,2025-02-08_16h09.37.256,IAT(Formal),2021.2.3,Win32,75.75757576,,,,,,,,,,,,,,,,e,1,0.5206,0,71,71,63,1,自己,e,,,,,,,,,,,,,,,,,,,,,,,,,,,,,,,,,,,,,,,,,
,,,,,,,,,,,,,1,001,2025-02-08_16h09.37.256,IAT(Formal),2021.2.3,Win32,75.75757576,,,,,,,,,,,,,,,,i,1,0.8477,0,72,72,6,1,他们,i,,,,,,,,,,,,,,,,,,,,,,,,,,,,,,,,,,,,,,,,,
,,,,,,,,,,,,,1,001,2025-02-08_16h09.37.256,IAT(Formal),2021.2.3,Win32,75.75757576,,,,,,,,,,,,,,,,e,1,0.5369,0,73,73,64,1,俺,e,,,,,,,,,,,,,,,,,,,,,,,,,,,,,,,,,,,,,,,,,
,,,,,,,,,,,,,1,001,2025-02-08_16h09.37.256,IAT(Formal),2021.2.3,Win32,75.75757576,,,,,,,,,,,,,,,,e,1,0.6678,0,74,74,18,1,勤奋,e,,,,,,,,,,,,,,,,,,,,,,,,,,,,,,,,,,,,,,,,,
,,,,,,,,,,,,,1,001,2025-02-08_16h09.37.256,IAT(Formal),2021.2.3,Win32,75.75757576,,,,,,,,,,,,,,,,e,1,0.4893,0,75,75,61,1,我的,e,,,,,,,,,,,,,,,,,,,,,,,,,,,,,,,,,,,,,,,,,
,,,,,,,,,,,,,1,001,2025-02-08_16h09.37.256,IAT(Formal),2021.2.3,Win32,75.75757576,,,,,,,,,,,,,,,,e,1,0.4536,0,76,76,60,1,我,e,,,,,,,,,,,,,,,,,,,,,,,,,,,,,,,,,,,,,,,,,
,,,,,,,,,,,,,1,001,2025-02-08_16h09.37.256,IAT(Formal),2021.2.3,Win32,75.75757576,,,,,,,,,,,,,,,,i,1,0.4867,0,77,77,78,1,他人,i,,,,,,,,,,,,,,,,,,,,,,,,,,,,,,,,,,,,,,,,,
,,,,,,,,,,,,,1,001,2025-02-08_16h09.37.256,IAT(Formal),2021.2.3,Win32,75.75757576,,,,,,,,,,,,,,,,e,1,0.487,0,78,78,51,1,我的,e,,,,,,,,,,,,,,,,,,,,,,,,,,,,,,,,,,,,,,,,,
,,,,,,,,,,,,,1,001,2025-02-08_16h09.37.256,IAT(Formal),2021.2.3,Win32,75.75757576,,,,,,,,,,,,,,,,e,1,0.9169,0,79,79,14,1,乐观,e,,,,,,,,,,,,,,,,,,,,,,,,,,,,,,,,,,,,,,,,,
,,,,,,,,,,,,,1,001,2025-02-08_16h09.37.256,IAT(Formal),2021.2.3,Win32,75.75757576,,,,,,,,,,,,,,,,i,1,0.7925,,,,,,自卑,i,space,11.412,0,0,0,36,1,,,,,,,,,,,,,,,,,,,,,,,,,,,,,,,,,,
,,,,,,,,,,,,,1,001,2025-02-08_16h09.37.256,IAT(Formal),2021.2.3,Win32,75.75757576,,,,,,,,,,,,,,,,i,1,0.6362,,,,,,下贱,i,,,0,1,1,49,1,,,,,,,,,,,,,,,,,,,,,,,,,,,,,,,,,,
,,,,,,,,,,,,,1,001,2025-02-08_16h09.37.256,IAT(Formal),2021.2.3,Win32,75.75757576,,,,,,,,,,,,,,,,e,1,0.4439,,,,,,我,e,,,0,2,2,0,1,,,,,,,,,,,,,,,,,,,,,,,,,,,,,,,,,,
,,,,,,,,,,,,,1,001,2025-02-08_16h09.37.256,IAT(Formal),2021.2.3,Win32,75.75757576,,,,,,,,,,,,,,,,e,1,0.5065,,,,,,活泼,e,,,0,3,3,28,1,,,,,,,,,,,,,,,,,,,,,,,,,,,,,,,,,,
,,,,,,,,,,,,,1,001,2025-02-08_16h09.37.256,IAT(Formal),2021.2.3,Win32,75.75757576,,,,,,,,,,,,,,,,i,1,0.5976,,,,,,傲慢,i,,,0,4,4,37,1,,,,,,,,,,,,,,,,,,,,,,,,,,,,,,,,,,
,,,,,,,,,,,,,1,001,2025-02-08_16h09.37.256,IAT(Formal),2021.2.3,Win32,75.75757576,,,,,,,,,,,,,,,,e,1,0.5367,,,,,,俺,e,,,0,5,5,4,1,,,,,,,,,,,,,,,,,,,,,,,,,,,,,,,,,,
,,,,,,,,,,,,,1,001,2025-02-08_16h09.37.256,IAT(Formal),2021.2.3,Win32,75.75757576,,,,,,,,,,,,,,,,e,1,0.5655,,,,,,机智,e,,,0,6,6,19,1,,,,,,,,,,,,,,,,,,,,,,,,,,,,,,,,,,
,,,,,,,,,,,,,1,001,2025-02-08_16h09.37.256,IAT(Formal),2021.2.3,Win32,75.75757576,,,,,,,,,,,,,,,,e,1,0.5398,,,,,,诚恳,e,,,0,7,7,29,1,,,,,,,,,,,,,,,,,,,,,,,,,,,,,,,,,,
,,,,,,,,,,,,,1,001,2025-02-08_16h09.37.256,IAT(Formal),2021.2.3,Win32,75.75757576,,,,,,,,,,,,,,,,e,1,0.4918,,,,,,正直,e,,,0,8,8,16,1,,,,,,,,,,,,,,,,,,,,,,,,,,,,,,,,,,
,,,,,,,,,,,,,1,001,2025-02-08_16h09.37.256,IAT(Formal),2021.2.3,Win32,75.75757576,,,,,,,,,,,,,,,,e,1,0.4351,,,,,,自己,e,,,0,9,9,3,1,,,,,,,,,,,,,,,,,,,,,,,,,,,,,,,,,,
,,,,,,,,,,,,,1,001,2025-02-08_16h09.37.256,IAT(Formal),2021.2.3,Win32,75.75757576,,,,,,,,,,,,,,,,i,1,0.7199,,,,,,执拗,i,,,0,10,10,40,1,,,,,,,,,,,,,,,,,,,,,,,,,,,,,,,,,,
,,,,,,,,,,,,,1,001,2025-02-08_16h09.37.256,IAT(Formal),2021.2.3,Win32,75.75757576,,,,,,,,,,,,,,,,i,1,0.5564,,,,,,他的,i,,,0,11,11,67,1,,,,,,,,,,,,,,,,,,,,,,,,,,,,,,,,,,
,,,,,,,,,,,,,1,001,2025-02-08_16h09.37.256,IAT(Formal),2021.2.3,Win32,75.75757576,,,,,,,,,,,,,,,,i,1,0.4311,,,,,,他人,i,,,0,12,12,78,1,,,,,,,,,,,,,,,,,,,,,,,,,,,,,,,,,,
,,,,,,,,,,,,,1,001,2025-02-08_16h09.37.256,IAT(Formal),2021.2.3,Win32,75.75757576,,,,,,,,,,,,,,,,e,1,0.4787,,,,,,我的,e,,,0,13,13,51,1,,,,,,,,,,,,,,,,,,,,,,,,,,,,,,,,,,
,,,,,,,,,,,,,1,001,2025-02-08_16h09.37.256,IAT(Formal),2021.2.3,Win32,75.75757576,,,,,,,,,,,,,,,,i,1,0.4712,,,,,,其他,i,,,0,14,14,9,1,,,,,,,,,,,,,,,,,,,,,,,,,,,,,,,,,,
,,,,,,,,,,,,,1,001,2025-02-08_16h09.37.256,IAT(Formal),2021.2.3,Win32,75.75757576,,,,,,,,,,,,,,,,e,1,0.5594,,,,,,我的,e,,,0,15,15,71,1,,,,,,,,,,,,,,,,,,,,,,,,,,,,,,,,,,
,,,,,,,,,,,,,1,001,2025-02-08_16h09.37.256,IAT(Formal),2021.2.3,Win32,75.75757576,,,,,,,,,,,,,,,,i,1,0.559,,,,,,固执,i,,,0,16,16,47,1,,,,,,,,,,,,,,,,,,,,,,,,,,,,,,,,,,
,,,,,,,,,,,,,1,001,2025-02-08_16h09.37.256,IAT(Formal),2021.2.3,Win32,75.75757576,,,,,,,,,,,,,,,,i,1,0.6142,,,,,,凶狠,i,,,0,17,17,42,1,,,,,,,,,,,,,,,,,,,,,,,,,,,,,,,,,,
,,,,,,,,,,,,,1,001,2025-02-08_16h09.37.256,IAT(Formal),2021.2.3,Win32,75.75757576,,,,,,,,,,,,,,,,i,1,0.526,,,,,,卑鄙,i,,,0,18,18,30,1,,,,,,,,,,,,,,,,,,,,,,,,,,,,,,,,,,
,,,,,,,,,,,,,1,001,2025-02-08_16h09.37.256,IAT(Formal),2021.2.3,Win32,75.75757576,,,,,,,,,,,,,,,,e,1,0.6108,,,,,,冷静,e,,,0,19,19,26,1,,,,,,,,,,,,,,,,,,,,,,,,,,,,,,,,,,
,,,,,,,,,,,,,1,001,2025-02-08_16h09.37.256,IAT(Formal),2021.2.3,Win32,75.75757576,,,,,,,,,,,,,,,,i,1,0.4767,,,,,,他,i,,,0,20,20,65,1,,,,,,,,,,,,,,,,,,,,,,,,,,,,,,,,,,
,,,,,,,,,,,,,1,001,2025-02-08_16h09.37.256,IAT(Formal),2021.2.3,Win32,75.75757576,,,,,,,,,,,,,,,,i,1,0.5204,,,,,,他们,i,,,0,21,21,76,1,,,,,,,,,,,,,,,,,,,,,,,,,,,,,,,,,,
,,,,,,,,,,,,,1,001,2025-02-08_16h09.37.256,IAT(Formal),2021.2.3,Win32,75.75757576,,,,,,,,,,,,,,,,e,1,0.4782,,,,,,我们,e,,,0,22,22,62,1,,,,,,,,,,,,,,,,,,,,,,,,,,,,,,,,,,
,,,,,,,,,,,,,1,001,2025-02-08_16h09.37.256,IAT(Formal),2021.2.3,Win32,75.75757576,,,,,,,,,,,,,,,,i,1,0.5366,,,,,,他的,i,,,0,23,23,7,1,,,,,,,,,,,,,,,,,,,,,,,,,,,,,,,,,,
,,,,,,,,,,,,,1,001,2025-02-08_16h09.37.256,IAT(Formal),2021.2.3,Win32,75.75757576,,,,,,,,,,,,,,,,e,1,0.4669,,,,,,俺,e,,,0,24,24,64,1,,,,,,,,,,,,,,,,,,,,,,,,,,,,,,,,,,
,,,,,,,,,,,,,1,001,2025-02-08_16h09.37.256,IAT(Formal),2021.2.3,Win32,75.75757576,,,,,,,,,,,,,,,,e,1,0.7929,,,,,,杰出,e,,,0,25,25,13,1,,,,,,,,,,,,,,,,,,,,,,,,,,,,,,,,,,
,,,,,,,,,,,,,1,001,2025-02-08_16h09.37.256,IAT(Formal),2021.2.3,Win32,75.75757576,,,,,,,,,,,,,,,,i,1,0.5837,,,,,,猖狂,i,,,0,26,26,45,1,,,,,,,,,,,,,,,,,,,,,,,,,,,,,,,,,,
,,,,,,,,,,,,,1,001,2025-02-08_16h09.37.256,IAT(Formal),2021.2.3,Win32,75.75757576,,,,,,,,,,,,,,,,i,1,0.5911,,,,,,他们,i,,,0,27,27,56,1,,,,,,,,,,,,,,,,,,,,,,,,,,,,,,,,,,
,,,,,,,,,,,,,1,001,2025-02-08_16h09.37.256,IAT(Formal),2021.2.3,Win32,75.75757576,,,,,,,,,,,,,,,,e,1,0.4159,,,,,,自己,e,,,0,28,28,63,1,,,,,,,,,,,,,,,,,,,,,,,,,,,,,,,,,,
,,,,,,,,,,,,,1,001,2025-02-08_16h09.37.256,IAT(Formal),2021.2.3,Win32,75.75757576,,,,,,,,,,,,,,,,i,1,0.8895,,,,,,自私,i,,,0,29,29,43,1,,,,,,,,,,,,,,,,,,,,,,,,,,,,,,,,,,
,,,,,,,,,,,,,1,001,2025-02-08_16h09.37.256,IAT(Formal),2021.2.3,Win32,75.75757576,,,,,,,,,,,,,,,,i,1,0.5891,,,,,,轻率,i,,,0,30,30,48,1,,,,,,,,,,,,,,,,,,,,,,,,,,,,,,,,,,
,,,,,,,,,,,,,1,001,2025-02-08_16h09.37.256,IAT(Formal),2021.2.3,Win32,75.75757576,,,,,,,,,,,,,,,,e,1,0.6328,,,,,,崇高,e,,,0,31,31,11,1,,,,,,,,,,,,,,,,,,,,,,,,,,,,,,,,,,
,,,,,,,,,,,,,1,001,2025-02-08_16h09.37.256,IAT(Formal),2021.2.3,Win32,75.75757576,,,,,,,,,,,,,,,,e,1,0.5736,,,,,,细腻,e,,,0,32,32,25,1,,,,,,,,,,,,,,,,,,,,,,,,,,,,,,,,,,
,,,,,,,,,,,,,1,001,2025-02-08_16h09.37.256,IAT(Formal),2021.2.3,Win32,75.75757576,,,,,,,,,,,,,,,,i,1,0.5676,,,,,,他们,i,,,0,33,33,66,1,,,,,,,,,,,,,,,,,,,,,,,,,,,,,,,,,,
,,,,,,,,,,,,,1,001,2025-02-08_16h09.37.256,IAT(Formal),2021.2.3,Win32,75.75757576,,,,,,,,,,,,,,,,i,1,0.7756,,,,,,消极,i,,,0,34,34,35,1,,,,,,,,,,,,,,,,,,,,,,,,,,,,,,,,,,
,,,,,,,,,,,,,1,001,2025-02-08_16h09.37.256,IAT(Formal),2021.2.3,Win32,75.75757576,,,,,,,,,,,,,,,,e,1,0.3984,,,,,,我们,e,,,0,35,35,2,1,,,,,,,,,,,,,,,,,,,,,,,,,,,,,,,,,,
,,,,,,,,,,,,,1,001,2025-02-08_16h09.37.256,IAT(Formal),2021.2.3,Win32,75.75757576,,,,,,,,,,,,,,,,i,1,0.6004,,,,,,野蛮,i,,,0,36,36,46,1,,,,,,,,,,,,,,,,,,,,,,,,,,,,,,,,,,
,,,,,,,,,,,,,1,001,2025-02-08_16h09.37.256,IAT(Formal),2021.2.3,Win32,75.75757576,,,,,,,,,,,,,,,,e,1,0.4067,,,,,,我,e,,,0,37,37,60,1,,,,,,,,,,,,,,,,,,,,,,,,,,,,,,,,,,
,,,,,,,,,,,,,1,001,2025-02-08_16h09.37.256,IAT(Formal),2021.2.3,Win32,75.75757576,,,,,,,,,,,,,,,,e,1,0.5329,,,,,,俺,e,,,0,38,38,74,1,,,,,,,,,,,,,,,,,,,,,,,,,,,,,,,,,,
,,,,,,,,,,,,,1,001,2025-02-08_16h09.37.256,IAT(Formal),2021.2.3,Win32,75.75757576,,,,,,,,,,,,,,,,i,1,0.5616,,,,,,暴躁,i,,,0,39,39,44,1,,,,,,,,,,,,,,,,,,,,,,,,,,,,,,,,,,
,,,,,,,,,,,,,1,001,2025-02-08_16h09.37.256,IAT(Formal),2021.2.3,Win32,75.75757576,,,,,,,,,,,,,,,,i,1,0.6131,,,,,,其他,i,,,0,40,40,69,1,,,,,,,,,,,,,,,,,,,,,,,,,,,,,,,,,,
,,,,,,,,,,,,,1,001,2025-02-08_16h09.37.256,IAT(Formal),2021.2.3,Win32,75.75757576,,,,,,,,,,,,,,,,i,1,0.5713,,,,,,悲观,i,,,0,41,41,34,1,,,,,,,,,,,,,,,,,,,,,,,,,,,,,,,,,,
,,,,,,,,,,,,,1,001,2025-02-08_16h09.37.256,IAT(Formal),2021.2.3,Win32,75.75757576,,,,,,,,,,,,,,,,i,1,0.5942,,,,,,他人,i,,,0,42,42,8,1,,,,,,,,,,,,,,,,,,,,,,,,,,,,,,,,,,
,,,,,,,,,,,,,1,001,2025-02-08_16h09.37.256,IAT(Formal),2021.2.3,Win32,75.75757576,,,,,,,,,,,,,,,,e,1,0.5206,,,,,,认真,e,,,0,43,43,20,1,,,,,,,,,,,,,,,,,,,,,,,,,,,,,,,,,,
,,,,,,,,,,,,,1,001,2025-02-08_16h09.37.256,IAT(Formal),2021.2.3,Win32,75.75757576,,,,,,,,,,,,,,,,i,1,0.5156,,,,,,散漫,i,,,0,44,44,41,1,,,,,,,,,,,,,,,,,,,,,,,,,,,,,,,,,,
,,,,,,,,,,,,,1,001,2025-02-08_16h09.37.256,IAT(Formal),2021.2.3,Win32,75.75757576,,,,,,,,,,,,,,,,i,1,0.4681,,,,,,他,i,,,0,45,45,75,1,,,,,,,,,,,,,,,,,,,,,,,,,,,,,,,,,,
,,,,,,,,,,,,,1,001,2025-02-08_16h09.37.256,IAT(Formal),2021.2.3,Win32,75.75757576,,,,,,,,,,,,,,,,i,1,0.6616,,,,,,他人,i,,,0,46,46,58,1,,,,,,,,,,,,,,,,,,,,,,,,,,,,,,,,,,
,,,,,,,,,,,,,1,001,2025-02-08_16h09.37.256,IAT(Formal),2021.2.3,Win32,75.75757576,,,,,,,,,,,,,,,,i,1,0.5338,,,,,,鲁莽,i,,,0,47,47,38,1,,,,,,,,,,,,,,,,,,,,,,,,,,,,,,,,,,
,,,,,,,,,,,,,1,001,2025-02-08_16h09.37.256,IAT(Formal),2021.2.3,Win32,75.75757576,,,,,,,,,,,,,,,,e,1,0.6156,,,,,,俺,e,,,0,48,48,54,1,,,,,,,,,,,,,,,,,,,,,,,,,,,,,,,,,,
,,,,,,,,,,,,,1,001,2025-02-08_16h09.37.256,IAT(Formal),2021.2.3,Win32,75.75757576,,,,,,,,,,,,,,,,i,1,0.5306,,,,,,虚伪,i,,,0,49,49,31,1,,,,,,,,,,,,,,,,,,,,,,,,,,,,,,,,,,
,,,,,,,,,,,,,1,001,2025-02-08_16h09.37.256,IAT(Formal),2021.2.3,Win32,75.75757576,,,,,,,,,,,,,,,,i,1,0.5617,,,,,,其他,i,,,0,50,50,79,1,,,,,,,,,,,,,,,,,,,,,,,,,,,,,,,,,,
,,,,,,,,,,,,,1,001,2025-02-08_16h09.37.256,IAT(Formal),2021.2.3,Win32,75.75757576,,,,,,,,,,,,,,,,i,1,0.6581,,,,,,愚蠢,i,,,0,51,51,32,1,,,,,,,,,,,,,,,,,,,,,,,,,,,,,,,,,,
,,,,,,,,,,,,,1,001,2025-02-08_16h09.37.256,IAT(Formal),2021.2.3,Win32,75.75757576,,,,,,,,,,,,,,,,i,1,0.5711,,,,,,冒失,i,,,0,52,52,39,1,,,,,,,,,,,,,,,,,,,,,,,,,,,,,,,,,,
,,,,,,,,,,,,,1,001,2025-02-08_16h09.37.256,IAT(Formal),2021.2.3,Win32,75.75757576,,,,,,,,,,,,,,,,e,1,0.5111,,,,,,我们,e,,,0,53,53,52,1,,,,,,,,,,,,,,,,,,,,,,,,,,,,,,,,,,
,,,,,,,,,,,,,1,001,2025-02-08_16h09.37.256,IAT(Formal),2021.2.3,Win32,75.75757576,,,,,,,,,,,,,,,,e,1,0.6931,,,,,,优秀,e,,,0,54,54,10,1,,,,,,,,,,,,,,,,,,,,,,,,,,,,,,,,,,
,,,,,,,,,,,,,1,001,2025-02-08_16h09.37.256,IAT(Formal),2021.2.3,Win32,75.75757576,,,,,,,,,,,,,,,,e,1,0.613,,,,,,我的,e,,,0,55,55,61,1,,,,,,,,,,,,,,,,,,,,,,,,,,,,,,,,,,
,,,,,,,,,,,,,1,001,2025-02-08_16h09.37.256,IAT(Formal),2021.2.3,Win32,75.75757576,,,,,,,,,,,,,,,,e,1,0.4942,,,,,,我们,e,,,0,56,56,72,1,,,,,,,,,,,,,,,,,,,,,,,,,,,,,,,,,,
,,,,,,,,,,,,,1,001,2025-02-08_16h09.37.256,IAT(Formal),2021.2.3,Win32,75.75757576,,,,,,,,,,,,,,,,e,1,0.6789,,,,,,乐观,e,,,0,57,57,14,1,,,,,,,,,,,,,,,,,,,,,,,,,,,,,,,,,,
,,,,,,,,,,,,,1,001,2025-02-08_16h09.37.256,IAT(Formal),2021.2.3,Win32,75.75757576,,,,,,,,,,,,,,,,e,1,0.6326,,,,,,诚实,e,,,0,58,58,15,1,,,,,,,,,,,,,,,,,,,,,,,,,,,,,,,,,,
,,,,,,,,,,,,,1,001,2025-02-08_16h09.37.256,IAT(Formal),2021.2.3,Win32,75.75757576,,,,,,,,,,,,,,,,e,1,0.4915,,,,,,我,e,,,0,59,59,50,1,,,,,,,,,,,,,,,,,,,,,,,,,,,,,,,,,,
,,,,,,,,,,,,,1,001,2025-02-08_16h09.37.256,IAT(Formal),2021.2.3,Win32,75.75757576,,,,,,,,,,,,,,,,e,1,0.5911,,,,,,稳重,e,,,0,60,60,21,1,,,,,,,,,,,,,,,,,,,,,,,,,,,,,,,,,,
,,,,,,,,,,,,,1,001,2025-02-08_16h09.37.256,IAT(Formal),2021.2.3,Win32,75.75757576,,,,,,,,,,,,,,,,i,1,0.5339,,,,,,他,i,,,0,61,61,5,1,,,,,,,,,,,,,,,,,,,,,,,,,,,,,,,,,,
,,,,,,,,,,,,,1,001,2025-02-08_16h09.37.256,IAT(Formal),2021.2.3,Win32,75.75757576,,,,,,,,,,,,,,,,e,1,0.4843,,,,,,我,e,,,0,62,62,70,1,,,,,,,,,,,,,,,,,,,,,,,,,,,,,,,,,,
,,,,,,,,,,,,,1,001,2025-02-08_16h09.37.256,IAT(Formal),2021.2.3,Win32,75.75757576,,,,,,,,,,,,,,,,e,1,0.7624,,,,,,无私,e,,,0,63,63,22,1,,,,,,,,,,,,,,,,,,,,,,,,,,,,,,,,,,
,,,,,,,,,,,,,1,001,2025-02-08_16h09.37.256,IAT(Formal),2021.2.3,Win32,75.75757576,,,,,,,,,,,,,,,,e,1,0.5569,,,,,,聪明,e,,,0,64,64,12,1,,,,,,,,,,,,,,,,,,,,,,,,,,,,,,,,,,
,,,,,,,,,,,,,1,001,2025-02-08_16h09.37.256,IAT(Formal),2021.2.3,Win32,75.75757576,,,,,,,,,,,,,,,,e,1,0.5616,,,,,,公正,e,,,0,65,65,23,1,,,,,,,,,,,,,,,,,,,,,,,,,,,,,,,,,,
,,,,,,,,,,,,,1,001,2025-02-08_16h09.37.256,IAT(Formal),2021.2.3,Win32,75.75757576,,,,,,,,,,,,,,,,i,1,0.5974,,,,,,其他,i,,,0,66,66,59,1,,,,,,,,,,,,,,,,,,,,,,,,,,,,,,,,,,
,,,,,,,,,,,,,1,001,2025-02-08_16h09.37.256,IAT(Formal),2021.2.3,Win32,75.75757576,,,,,,,,,,,,,,,,e,1,0.6652,,,,,,朴实,e,,,0,67,67,24,1,,,,,,,,,,,,,,,,,,,,,,,,,,,,,,,,,,
,,,,,,,,,,,,,1,001,2025-02-08_16h09.37.256,IAT(Formal),2021.2.3,Win32,75.75757576,,,,,,,,,,,,,,,,i,1,0.5741,,,,,,他人,i,,,0,68,68,68,1,,,,,,,,,,,,,,,,,,,,,,,,,,,,,,,,,,
,,,,,,,,,,,,,1,001,2025-02-08_16h09.37.256,IAT(Formal),2021.2.3,Win32,75.75757576,,,,,,,,,,,,,,,,i,1,0.5385,,,,,,他的,i,,,0,69,69,57,1,,,,,,,,,,,,,,,,,,,,,,,,,,,,,,,,,,
,,,,,,,,,,,,,1,001,2025-02-08_16h09.37.256,IAT(Formal),2021.2.3,Win32,75.75757576,,,,,,,,,,,,,,,,e,1,0.5046,,,,,,我的,e,,,0,70,70,1,1,,,,,,,,,,,,,,,,,,,,,,,,,,,,,,,,,,
,,,,,,,,,,,,,1,001,2025-02-08_16h09.37.256,IAT(Formal),2021.2.3,Win32,75.75757576,,,,,,,,,,,,,,,,e,1,0.5701,,,,,,勇敢,e,,,0,71,71,17,1,,,,,,,,,,,,,,,,,,,,,,,,,,,,,,,,,,
,,,,,,,,,,,,,1,001,2025-02-08_16h09.37.256,IAT(Formal),2021.2.3,Win32,75.75757576,,,,,,,,,,,,,,,,i,1,0.5653,,,,,,他们,i,,,0,72,72,6,1,,,,,,,,,,,,,,,,,,,,,,,,,,,,,,,,,,
,,,,,,,,,,,,,1,001,2025-02-08_16h09.37.256,IAT(Formal),2021.2.3,Win32,75.75757576,,,,,,,,,,,,,,,,e,1,0.5972,,,,,,自己,e,,,0,73,73,73,1,,,,,,,,,,,,,,,,,,,,,,,,,,,,,,,,,,
,,,,,,,,,,,,,1,001,2025-02-08_16h09.37.256,IAT(Formal),2021.2.3,Win32,75.75757576,,,,,,,,,,,,,,,,i,1,0.5923,,,,,,他,i,,,0,74,74,55,1,,,,,,,,,,,,,,,,,,,,,,,,,,,,,,,,,,
,,,,,,,,,,,,,1,001,2025-02-08_16h09.37.256,IAT(Formal),2021.2.3,Win32,75.75757576,,,,,,,,,,,,,,,,e,1,0.6045,,,,,,勤奋,e,,,0,75,75,18,1,,,,,,,,,,,,,,,,,,,,,,,,,,,,,,,,,,
,,,,,,,,,,,,,1,001,2025-02-08_16h09.37.256,IAT(Formal),2021.2.3,Win32,75.75757576,,,,,,,,,,,,,,,,e,1,0.4948,,,,,,自己,e,,,0,76,76,53,1,,,,,,,,,,,,,,,,,,,,,,,,,,,,,,,,,,
,,,,,,,,,,,,,1,001,2025-02-08_16h09.37.256,IAT(Formal),2021.2.3,Win32,75.75757576,,,,,,,,,,,,,,,,i,1,0.615,,,,,,刻薄,i,,,0,77,77,33,1,,,,,,,,,,,,,,,,,,,,,,,,,,,,,,,,,,
,,,,,,,,,,,,,1,001,2025-02-08_16h09.37.256,IAT(Formal),2021.2.3,Win32,75.75757576,,,,,,,,,,,,,,,,i,1,0.5847,,,,,,他的,i,,,0,78,78,77,1,,,,,,,,,,,,,,,,,,,,,,,,,,,,,,,,,,
,,,,,,,,,,,,,1,001,2025-02-08_16h09.37.256,IAT(Formal),2021.2.3,Win32,75.75757576,,,,,,,,,,,,,,,,e,1,0.5457,,,,,,热情,e,,,0,79,79,27,1,,,,,,,,,,,,,,,,,,,,,,,,,,,,,,,,,,
,,,,,,,,,,,,,1,001,2025-02-08_16h09.37.256,IAT(Formal),2021.2.3,Win32,75.75757576,,,,,,,,,,,,,,,,i,1,0.581,,,,,,轻率,i,,,1,0,80,48,1,,,,,,,,,,,,,,,,,,,,,,,,,,,,,,,,,,
,,,,,,,,,,,,,1,001,2025-02-08_16h09.37.256,IAT(Formal),2021.2.3,Win32,75.75757576,,,,,,,,,,,,,,,,i,1,0.8374,,,,,,冒失,i,,,1,1,81,39,1,,,,,,,,,,,,,,,,,,,,,,,,,,,,,,,,,,
,,,,,,,,,,,,,1,001,2025-02-08_16h09.37.256,IAT(Formal),2021.2.3,Win32,75.75757576,,,,,,,,,,,,,,,,i,1,0.4442,,,,,,他人,i,,,1,2,82,78,1,,,,,,,,,,,,,,,,,,,,,,,,,,,,,,,,,,
,,,,,,,,,,,,,1,001,2025-02-08_16h09.37.256,IAT(Formal),2021.2.3,Win32,75.75757576,,,,,,,,,,,,,,,,i,1,0.631,,,,,,凶狠,i,,,1,3,83,42,1,,,,,,,,,,,,,,,,,,,,,,,,,,,,,,,,,,
,,,,,,,,,,,,,1,001,2025-02-08_16h09.37.256,IAT(Formal),2021.2.3,Win32,75.75757576,,,,,,,,,,,,,,,,e,1,0.5476,,,,,,细腻,e,,,1,4,84,25,1,,,,,,,,,,,,,,,,,,,,,,,,,,,,,,,,,,
,,,,,,,,,,,,,1,001,2025-02-08_16h09.37.256,IAT(Formal),2021.2.3,Win32,75.75757576,,,,,,,,,,,,,,,,i,1,0.6377,,,,,,虚伪,i,,,1,5,85,31,1,,,,,,,,,,,,,,,,,,,,,,,,,,,,,,,,,,
,,,,,,,,,,,,,1,001,2025-02-08_16h09.37.256,IAT(Formal),2021.2.3,Win32,75.75757576,,,,,,,,,,,,,,,,i,1,0.5241,,,,,,他人,i,,,1,6,86,68,1,,,,,,,,,,,,,,,,,,,,,,,,,,,,,,,,,,
,,,,,,,,,,,,,1,001,2025-02-08_16h09.37.256,IAT(Formal),2021.2.3,Win32,75.75757576,,,,,,,,,,,,,,,,e,1,0.6768,,,,,,正直,e,,,1,7,87,16,1,,,,,,,,,,,,,,,,,,,,,,,,,,,,,,,,,,
,,,,,,,,,,,,,1,001,2025-02-08_16h09.37.256,IAT(Formal),2021.2.3,Win32,75.75757576,,,,,,,,,,,,,,,,e,1,0.5357,,,,,,公正,e,,,1,8,88,23,1,,,,,,,,,,,,,,,,,,,,,,,,,,,,,,,,,,
,,,,,,,,,,,,,1,001,2025-02-08_16h09.37.256,IAT(Formal),2021.2.3,Win32,75.75757576,,,,,,,,,,,,,,,,e,1,0.6245,,,,,,我们,e,,,1,9,89,62,1,,,,,,,,,,,,,,,,,,,,,,,,,,,,,,,,,,
,,,,,,,,,,,,,1,001,2025-02-08_16h09.37.256,IAT(Formal),2021.2.3,Win32,75.75757576,,,,,,,,,,,,,,,,e,1,0.6233,,,,,,勤奋,e,,,1,10,90,18,1,,,,,,,,,,,,,,,,,,,,,,,,,,,,,,,,,,
,,,,,,,,,,,,,1,001,2025-02-08_16h09.37.256,IAT(Formal),2021.2.3,Win32,75.75757576,,,,,,,,,,,,,,,,i,1,0.4594,,,,,,鲁莽,i,,,1,11,91,38,1,,,,,,,,,,,,,,,,,,,,,,,,,,,,,,,,,,
,,,,,,,,,,,,,1,001,2025-02-08_16h09.37.256,IAT(Formal),2021.2.3,Win32,75.75757576,,,,,,,,,,,,,,,,i,1,0.6014,,,,,,其他,i,,,1,12,92,69,1,,,,,,,,,,,,,,,,,,,,,,,,,,,,,,,,,,
,,,,,,,,,,,,,1,001,2025-02-08_16h09.37.256,IAT(Formal),2021.2.3,Win32,75.75757576,,,,,,,,,,,,,,,,e,1,0.627,,,,,,自己,e,,,1,13,93,63,1,,,,,,,,,,,,,,,,,,,,,,,,,,,,,,,,,,
,,,,,,,,,,,,,1,001,2025-02-08_16h09.37.256,IAT(Formal),2021.2.3,Win32,75.75757576,,,,,,,,,,,,,,,,e,1,0.7192,,,,,,朴实,e,,,1,14,94,24,1,,,,,,,,,,,,,,,,,,,,,,,,,,,,,,,,,,
,,,,,,,,,,,,,1,001,2025-02-08_16h09.37.256,IAT(Formal),2021.2.3,Win32,75.75757576,,,,,,,,,,,,,,,,i,1,0.3984,,,,,,他,i,,,1,15,95,75,1,,,,,,,,,,,,,,,,,,,,,,,,,,,,,,,,,,
,,,,,,,,,,,,,1,001,2025-02-08_16h09.37.256,IAT(Formal),2021.2.3,Win32,75.75757576,,,,,,,,,,,,,,,,i,1,0.3951,,,,,,他们,i,,,1,16,96,66,1,,,,,,,,,,,,,,,,,,,,,,,,,,,,,,,,,,
,,,,,,,,,,,,,1,001,2025-02-08_16h09.37.256,IAT(Formal),2021.2.3,Win32,75.75757576,,,,,,,,,,,,,,,,i,1,0.4742,,,,,,他们,i,,,1,17,97,56,1,,,,,,,,,,,,,,,,,,,,,,,,,,,,,,,,,,
,,,,,,,,,,,,,1,001,2025-02-08_16h09.37.256,IAT(Formal),2021.2.3,Win32,75.75757576,,,,,,,,,,,,,,,,i,1,0.4209,,,,,,他,i,,,1,18,98,5,1,,,,,,,,,,,,,,,,,,,,,,,,,,,,,,,,,,
,,,,,,,,,,,,,1,001,2025-02-08_16h09.37.256,IAT(Formal),2021.2.3,Win32,75.75757576,,,,,,,,,,,,,,,,e,1,0.5417,,,,,,乐观,e,,,1,19,99,14,1,,,,,,,,,,,,,,,,,,,,,,,,,,,,,,,,,,
,,,,,,,,,,,,,1,001,2025-02-08_16h09.37.256,IAT(Formal),2021.2.3,Win32,75.75757576,,,,,,,,,,,,,,,,e,1,0.3835,,,,,,我的,e,,,1,20,100,61,1,,,,,,,,,,,,,,,,,,,,,,,,,,,,,,,,,,
,,,,,,,,,,,,,1,001,2025-02-08_16h09.37.256,IAT(Formal),2021.2.3,Win32,75.75757576,,,,,,,,,,,,,,,,e,1,0.6751,,,,,,我,e,,,1,21,101,60,1,,,,,,,,,,,,,,,,,,,,,,,,,,,,,,,,,,
,,,,,,,,,,,,,1,001,2025-02-08_16h09.37.256,IAT(Formal),2021.2.3,Win32,75.75757576,,,,,,,,,,,,,,,,e,1,0.5882,,,,,,俺,e,,,1,22,102,54,1,,,,,,,,,,,,,,,,,,,,,,,,,,,,,,,,,,
,,,,,,,,,,,,,1,001,2025-02-08_16h09.37.256,IAT(Formal),2021.2.3,Win32,75.75757576,,,,,,,,,,,,,,,,i,1,0.572,,,,,,他的,i,,,1,23,103,77,1,,,,,,,,,,,,,,,,,,,,,,,,,,,,,,,,,,
,,,,,,,,,,,,,1,001,2025-02-08_16h09.37.256,IAT(Formal),2021.2.3,Win32,75.75757576,,,,,,,,,,,,,,,,e,1,0.5096,,,,,,俺,e,,,1,24,104,4,1,,,,,,,,,,,,,,,,,,,,,,,,,,,,,,,,,,
,,,,,,,,,,,,,1,001,2025-02-08_16h09.37.256,IAT(Formal),2021.2.3,Win32,75.75757576,,,,,,,,,,,,,,,,i,1,0.4996,,,,,,他人,i,,,1,25,105,58,1,,,,,,,,,,,,,,,,,,,,,,,,,,,,,,,,,,
,,,,,,,,,,,,,1,001,2025-02-08_16h09.37.256,IAT(Formal),2021.2.3,Win32,75.75757576,,,,,,,,,,,,,,,,e,0,0.44,,,,,,他,i,,,1,26,106,65,1,,,,,,,,,,,,,,,,,,,,,,,,,,,,,,,,,,
,,,,,,,,,,,,,1,001,2025-02-08_16h09.37.256,IAT(Formal),2021.2.3,Win32,75.75757576,,,,,,,,,,,,,,,,e,0,0.5258,,,,,,自私,i,,,1,27,107,43,1,,,,,,,,,,,,,,,,,,,,,,,,,,,,,,,,,,
,,,,,,,,,,,,,1,001,2025-02-08_16h09.37.256,IAT(Formal),2021.2.3,Win32,75.75757576,,,,,,,,,,,,,,,,e,1,0.5774,,,,,,优秀,e,,,1,28,108,10,1,,,,,,,,,,,,,,,,,,,,,,,,,,,,,,,,,,
,,,,,,,,,,,,,1,001,2025-02-08_16h09.37.256,IAT(Formal),2021.2.3,Win32,75.75757576,,,,,,,,,,,,,,,,i,1,0.5621,,,,,,他的,i,,,1,29,109,7,1,,,,,,,,,,,,,,,,,,,,,,,,,,,,,,,,,,
,,,,,,,,,,,,,1,001,2025-02-08_16h09.37.256,IAT(Formal),2021.2.3,Win32,75.75757576,,,,,,,,,,,,,,,,e,1,0.4904,,,,,,俺,e,,,1,30,110,64,1,,,,,,,,,,,,,,,,,,,,,,,,,,,,,,,,,,
,,,,,,,,,,,,,1,001,2025-02-08_16h09.37.256,IAT(Formal),2021.2.3,Win32,75.75757576,,,,,,,,,,,,,,,,e,1,0.6206,,,,,,我们,e,,,1,31,111,2,1,,,,,,,,,,,,,,,,,,,,,,,,,,,,,,,,,,
,,,,,,,,,,,,,1,001,2025-02-08_16h09.37.256,IAT(Formal),2021.2.3,Win32,75.75757576,,,,,,,,,,,,,,,,e,1,0.51,,,,,,我,e,,,1,32,112,70,1,,,,,,,,,,,,,,,,,,,,,,,,,,,,,,,,,,
,,,,,,,,,,,,,1,001,2025-02-08_16h09.37.256,IAT(Formal),2021.2.3,Win32,75.75757576,,,,,,,,,,,,,,,,e,1,0.6759,,,,,,诚恳,e,,,1,33,113,29,1,,,,,,,,,,,,,,,,,,,,,,,,,,,,,,,,,,
,,,,,,,,,,,,,1,001,2025-02-08_16h09.37.256,IAT(Formal),2021.2.3,Win32,75.75757576,,,,,,,,,,,,,,,,i,1,0.505,,,,,,他们,i,,,1,34,114,76,1,,,,,,,,,,,,,,,,,,,,,,,,,,,,,,,,,,
,,,,,,,,,,,,,1,001,2025-02-08_16h09.37.256,IAT(Formal),2021.2.3,Win32,75.75757576,,,,,,,,,,,,,,,,i,1,0.5145,,,,,,其他,i,,,1,35,115,59,1,,,,,,,,,,,,,,,,,,,,,,,,,,,,,,,,,,
,,,,,,,,,,,,,1,001,2025-02-08_16h09.37.256,IAT(Formal),2021.2.3,Win32,75.75757576,,,,,,,,,,,,,,,,e,1,0.5463,,,,,,认真,e,,,1,36,116,20,1,,,,,,,,,,,,,,,,,,,,,,,,,,,,,,,,,,
,,,,,,,,,,,,,1,001,2025-02-08_16h09.37.256,IAT(Formal),2021.2.3,Win32,75.75757576,,,,,,,,,,,,,,,,i,1,0.5571,,,,,,暴躁,i,,,1,37,117,44,1,,,,,,,,,,,,,,,,,,,,,,,,,,,,,,,,,,
,,,,,,,,,,,,,1,001,2025-02-08_16h09.37.256,IAT(Formal),2021.2.3,Win32,75.75757576,,,,,,,,,,,,,,,,i,1,0.5639,,,,,,猖狂,i,,,1,38,118,45,1,,,,,,,,,,,,,,,,,,,,,,,,,,,,,,,,,,
,,,,,,,,,,,,,1,001,2025-02-08_16h09.37.256,IAT(Formal),2021.2.3,Win32,75.75757576,,,,,,,,,,,,,,,,e,1,0.6931,,,,,,冷静,e,,,1,39,119,26,1,,,,,,,,,,,,,,,,,,,,,,,,,,,,,,,,,,
,,,,,,,,,,,,,1,001,2025-02-08_16h09.37.256,IAT(Formal),2021.2.3,Win32,75.75757576,,,,,,,,,,,,,,,,e,1,0.5758,,,,,,自己,e,,,1,40,120,3,1,,,,,,,,,,,,,,,,,,,,,,,,,,,,,,,,,,
,,,,,,,,,,,,,1,001,2025-02-08_16h09.37.256,IAT(Formal),2021.2.3,Win32,75.75757576,,,,,,,,,,,,,,,,i,1,0.5152,,,,,,下贱,i,,,1,41,121,49,1,,,,,,,,,,,,,,,,,,,,,,,,,,,,,,,,,,
,,,,,,,,,,,,,1,001,2025-02-08_16h09.37.256,IAT(Formal),2021.2.3,Win32,75.75757576,,,,,,,,,,,,,,,,i,1,0.51,,,,,,其他,i,,,1,42,122,79,1,,,,,,,,,,,,,,,,,,,,,,,,,,,,,,,,,,
,,,,,,,,,,,,,1,001,2025-02-08_16h09.37.256,IAT(Formal),2021.2.3,Win32,75.75757576,,,,,,,,,,,,,,,,e,1,0.6767,,,,,,我们,e,,,1,43,123,52,1,,,,,,,,,,,,,,,,,,,,,,,,,,,,,,,,,,
,,,,,,,,,,,,,1,001,2025-02-08_16h09.37.256,IAT(Formal),2021.2.3,Win32,75.75757576,,,,,,,,,,,,,,,,i,1,0.5872,,,,,,刻薄,i,,,1,44,124,33,1,,,,,,,,,,,,,,,,,,,,,,,,,,,,,,,,,,
,,,,,,,,,,,,,1,001,2025-02-08_16h09.37.256,IAT(Formal),2021.2.3,Win32,75.75757576,,,,,,,,,,,,,,,,i,0,0.4397,,,,,,杰出,e,,,1,45,125,13,1,,,,,,,,,,,,,,,,,,,,,,,,,,,,,,,,,,
,,,,,,,,,,,,,1,001,2025-02-08_16h09.37.256,IAT(Formal),2021.2.3,Win32,75.75757576,,,,,,,,,,,,,,,,e,1,0.4804,,,,,,自己,e,,,1,46,126,73,1,,,,,,,,,,,,,,,,,,,,,,,,,,,,,,,,,,
,,,,,,,,,,,,,1,001,2025-02-08_16h09.37.256,IAT(Formal),2021.2.3,Win32,75.75757576,,,,,,,,,,,,,,,,e,1,0.5726,,,,,,聪明,e,,,1,47,127,12,1,,,,,,,,,,,,,,,,,,,,,,,,,,,,,,,,,,
,,,,,,,,,,,,,1,001,2025-02-08_16h09.37.256,IAT(Formal),2021.2.3,Win32,75.75757576,,,,,,,,,,,,,,,,i,1,0.5632,,,,,,悲观,i,,,1,48,128,34,1,,,,,,,,,,,,,,,,,,,,,,,,,,,,,,,,,,
,,,,,,,,,,,,,1,001,2025-02-08_16h09.37.256,IAT(Formal),2021.2.3,Win32,75.75757576,,,,,,,,,,,,,,,,i,1,0.5046,,,,,,他的,i,,,1,49,129,57,1,,,,,,,,,,,,,,,,,,,,,,,,,,,,,,,,,,
,,,,,,,,,,,,,1,001,2025-02-08_16h09.37.256,IAT(Formal),2021.2.3,Win32,75.75757576,,,,,,,,,,,,,,,,i,1,0.5648,,,,,,他,i,,,1,50,130,55,1,,,,,,,,,,,,,,,,,,,,,,,,,,,,,,,,,,
,,,,,,,,,,,,,1,001,2025-02-08_16h09.37.256,IAT(Formal),2021.2.3,Win32,75.75757576,,,,,,,,,,,,,,,,i,1,0.6606,,,,,,执拗,i,,,1,51,131,40,1,,,,,,,,,,,,,,,,,,,,,,,,,,,,,,,,,,
,,,,,,,,,,,,,1,001,2025-02-08_16h09.37.256,IAT(Formal),2021.2.3,Win32,75.75757576,,,,,,,,,,,,,,,,e,1,0.8526,,,,,,稳重,e,,,1,52,132,21,1,,,,,,,,,,,,,,,,,,,,,,,,,,,,,,,,,,
,,,,,,,,,,,,,1,001,2025-02-08_16h09.37.256,IAT(Formal),2021.2.3,Win32,75.75757576,,,,,,,,,,,,,,,,i,1,0.8598,,,,,,傲慢,i,,,1,53,133,37,1,,,,,,,,,,,,,,,,,,,,,,,,,,,,,,,,,,
,,,,,,,,,,,,,1,001,2025-02-08_16h09.37.256,IAT(Formal),2021.2.3,Win32,75.75757576,,,,,,,,,,,,,,,,i,1,0.6104,,,,,,他们,i,,,1,54,134,6,1,,,,,,,,,,,,,,,,,,,,,,,,,,,,,,,,,,
,,,,,,,,,,,,,1,001,2025-02-08_16h09.37.256,IAT(Formal),2021.2.3,Win32,75.75757576,,,,,,,,,,,,,,,,i,1,0.5566,,,,,,散漫,i,,,1,55,135,41,1,,,,,,,,,,,,,,,,,,,,,,,,,,,,,,,,,,
,,,,,,,,,,,,,1,001,2025-02-08_16h09.37.256,IAT(Formal),2021.2.3,Win32,75.75757576,,,,,,,,,,,,,,,,e,1,0.611,,,,,,热情,e,,,1,56,136,27,1,,,,,,,,,,,,,,,,,,,,,,,,,,,,,,,,,,
,,,,,,,,,,,,,1,001,2025-02-08_16h09.37.256,IAT(Formal),2021.2.3,Win32,75.75757576,,,,,,,,,,,,,,,,e,1,0.8067,,,,,,活泼,e,,,1,57,137,28,1,,,,,,,,,,,,,,,,,,,,,,,,,,,,,,,,,,
,,,,,,,,,,,,,1,001,2025-02-08_16h09.37.256,IAT(Formal),2021.2.3,Win32,75.75757576,,,,,,,,,,,,,,,,e,1,0.519,,,,,,我们,e,,,1,58,138,72,1,,,,,,,,,,,,,,,,,,,,,,,,,,,,,,,,,,
,,,,,,,,,,,,,1,001,2025-02-08_16h09.37.256,IAT(Formal),2021.2.3,Win32,75.75757576,,,,,,,,,,,,,,,,i,1,0.6944,,,,,,愚蠢,i,,,1,59,139,32,1,,,,,,,,,,,,,,,,,,,,,,,,,,,,,,,,,,
,,,,,,,,,,,,,1,001,2025-02-08_16h09.37.256,IAT(Formal),2021.2.3,Win32,75.75757576,,,,,,,,,,,,,,,,i,1,0.4827,,,,,,野蛮,i,,,1,60,140,46,1,,,,,,,,,,,,,,,,,,,,,,,,,,,,,,,,,,
,,,,,,,,,,,,,1,001,2025-02-08_16h09.37.256,IAT(Formal),2021.2.3,Win32,75.75757576,,,,,,,,,,,,,,,,i,1,0.5654,,,,,,自卑,i,,,1,61,141,36,1,,,,,,,,,,,,,,,,,,,,,,,,,,,,,,,,,,
,,,,,,,,,,,,,1,001,2025-02-08_16h09.37.256,IAT(Formal),2021.2.3,Win32,75.75757576,,,,,,,,,,,,,,,,e,1,0.9616,,,,,,自己,e,,,1,62,142,53,1,,,,,,,,,,,,,,,,,,,,,,,,,,,,,,,,,,
,,,,,,,,,,,,,1,001,2025-02-08_16h09.37.256,IAT(Formal),2021.2.3,Win32,75.75757576,,,,,,,,,,,,,,,,e,1,0.8845,,,,,,勇敢,e,,,1,63,143,17,1,,,,,,,,,,,,,,,,,,,,,,,,,,,,,,,,,,
,,,,,,,,,,,,,1,001,2025-02-08_16h09.37.256,IAT(Formal),2021.2.3,Win32,75.75757576,,,,,,,,,,,,,,,,e,1,1.0303,,,,,,无私,e,,,1,64,144,22,1,,,,,,,,,,,,,,,,,,,,,,,,,,,,,,,,,,
,,,,,,,,,,,,,1,001,2025-02-08_16h09.37.256,IAT(Formal),2021.2.3,Win32,75.75757576,,,,,,,,,,,,,,,,e,1,0.9025,,,,,,我的,e,,,1,65,145,71,1,,,,,,,,,,,,,,,,,,,,,,,,,,,,,,,,,,
,,,,,,,,,,,,,1,001,2025-02-08_16h09.37.256,IAT(Formal),2021.2.3,Win32,75.75757576,,,,,,,,,,,,,,,,e,1,0.4719,,,,,,我的,e,,,1,66,146,51,1,,,,,,,,,,,,,,,,,,,,,,,,,,,,,,,,,,
,,,,,,,,,,,,,1,001,2025-02-08_16h09.37.256,IAT(Formal),2021.2.3,Win32,75.75757576,,,,,,,,,,,,,,,,i,1,0.5982,,,,,,他人,i,,,1,67,147,8,1,,,,,,,,,,,,,,,,,,,,,,,,,,,,,,,,,,
,,,,,,,,,,,,,1,001,2025-02-08_16h09.37.256,IAT(Formal),2021.2.3,Win32,75.75757576,,,,,,,,,,,,,,,,e,1,0.5758,,,,,,我的,e,,,1,68,148,1,1,,,,,,,,,,,,,,,,,,,,,,,,,,,,,,,,,,
,,,,,,,,,,,,,1,001,2025-02-08_16h09.37.256,IAT(Formal),2021.2.3,Win32,75.75757576,,,,,,,,,,,,,,,,e,1,0.6451,,,,,,俺,e,,,1,69,149,74,1,,,,,,,,,,,,,,,,,,,,,,,,,,,,,,,,,,
,,,,,,,,,,,,,1,001,2025-02-08_16h09.37.256,IAT(Formal),2021.2.3,Win32,75.75757576,,,,,,,,,,,,,,,,i,1,0.54,,,,,,固执,i,,,1,70,150,47,1,,,,,,,,,,,,,,,,,,,,,,,,,,,,,,,,,,
,,,,,,,,,,,,,1,001,2025-02-08_16h09.37.256,IAT(Formal),2021.2.3,Win32,75.75757576,,,,,,,,,,,,,,,,e,1,0.4759,,,,,,我,e,,,1,71,151,50,1,,,,,,,,,,,,,,,,,,,,,,,,,,,,,,,,,,
,,,,,,,,,,,,,1,001,2025-02-08_16h09.37.256,IAT(Formal),2021.2.3,Win32,75.75757576,,,,,,,,,,,,,,,,e,1,0.5786,,,,,,机智,e,,,1,72,152,19,1,,,,,,,,,,,,,,,,,,,,,,,,,,,,,,,,,,
,,,,,,,,,,,,,1,001,2025-02-08_16h09.37.256,IAT(Formal),2021.2.3,Win32,75.75757576,,,,,,,,,,,,,,,,i,1,0.5265,,,,,,其他,i,,,1,73,153,9,1,,,,,,,,,,,,,,,,,,,,,,,,,,,,,,,,,,
,,,,,,,,,,,,,1,001,2025-02-08_16h09.37.256,IAT(Formal),2021.2.3,Win32,75.75757576,,,,,,,,,,,,,,,,e,1,0.6148,,,,,,诚实,e,,,1,74,154,15,1,,,,,,,,,,,,,,,,,,,,,,,,,,,,,,,,,,
,,,,,,,,,,,,,1,001,2025-02-08_16h09.37.256,IAT(Formal),2021.2.3,Win32,75.75757576,,,,,,,,,,,,,,,,e,1,0.5393,,,,,,崇高,e,,,1,75,155,11,1,,,,,,,,,,,,,,,,,,,,,,,,,,,,,,,,,,
,,,,,,,,,,,,,1,001,2025-02-08_16h09.37.256,IAT(Formal),2021.2.3,Win32,75.75757576,,,,,,,,,,,,,,,,i,1,0.5773,,,,,,消极,i,,,1,76,156,35,1,,,,,,,,,,,,,,,,,,,,,,,,,,,,,,,,,,
,,,,,,,,,,,,,1,001,2025-02-08_16h09.37.256,IAT(Formal),2021.2.3,Win32,75.75757576,,,,,,,,,,,,,,,,e,1,0.4105,,,,,,我,e,,,1,77,157,0,1,,,,,,,,,,,,,,,,,,,,,,,,,,,,,,,,,,
,,,,,,,,,,,,,1,001,2025-02-08_16h09.37.256,IAT(Formal),2021.2.3,Win32,75.75757576,,,,,,,,,,,,,,,,i,1,0.5461,,,,,,卑鄙,i,,,1,78,158,30,1,,,,,,,,,,,,,,,,,,,,,,,,,,,,,,,,,,
,,,,,,,,,,,,,1,001,2025-02-08_16h09.37.256,IAT(Formal),2021.2.3,Win32,75.75757576,,,,,,,,,,,,,,,,i,1,0.3996,,,,,,他的,i,,,1,79,159,67,1,,,,,,,,,,,,,,,,,,,,,,,,,,,,,,,,,,
,,,,,,,,,,,自己,i,1,001,2025-02-08_16h09.37.256,IAT(Formal),2021.2.3,Win32,75.75757576,,,,,,,,,,,,,,,,,,,,,,,,,,,,,,,,,space,11.1961,i,1,0.6314,0,0,0,3,1,,,,,,,,,,,,,,,,,,,,,,,,
,,,,,,,,,,,他们,e,1,001,2025-02-08_16h09.37.256,IAT(Formal),2021.2.3,Win32,75.75757576,,,,,,,,,,,,,,,,,,,,,,,,,,,,,,,,,,,e,1,0.5236,0,1,1,6,1,,,,,,,,,,,,,,,,,,,,,,,,
,,,,,,,,,,,他,e,1,001,2025-02-08_16h09.37.256,IAT(Formal),2021.2.3,Win32,75.75757576,,,,,,,,,,,,,,,,,,,,,,,,,,,,,,,,,,,e,1,0.9584,0,2,2,5,1,,,,,,,,,,,,,,,,,,,,,,,,
,,,,,,,,,,,我们,i,1,001,2025-02-08_16h09.37.256,IAT(Formal),2021.2.3,Win32,75.75757576,,,,,,,,,,,,,,,,,,,,,,,,,,,,,,,,,,,i,1,0.4341,0,3,3,2,1,,,,,,,,,,,,,,,,,,,,,,,,
,,,,,,,,,,,俺,i,1,001,2025-02-08_16h09.37.256,IAT(Formal),2021.2.3,Win32,75.75757576,,,,,,,,,,,,,,,,,,,,,,,,,,,,,,,,,,,i,1,0.5869,0,4,4,4,1,,,,,,,,,,,,,,,,,,,,,,,,
,,,,,,,,,,,我的,i,1,001,2025-02-08_16h09.37.256,IAT(Formal),2021.2.3,Win32,75.75757576,,,,,,,,,,,,,,,,,,,,,,,,,,,,,,,,,,,i,1,0.6523,0,5,5,1,1,,,,,,,,,,,,,,,,,,,,,,,,
,,,,,,,,,,,他的,e,1,001,2025-02-08_16h09.37.256,IAT(Formal),2021.2.3,Win32,75.75757576,,,,,,,,,,,,,,,,,,,,,,,,,,,,,,,,,,,e,1,0.6323,0,6,6,7,1,,,,,,,,,,,,,,,,,,,,,,,,
,,,,,,,,,,,他人,e,1,001,2025-02-08_16h09.37.256,IAT(Formal),2021.2.3,Win32,75.75757576,,,,,,,,,,,,,,,,,,,,,,,,,,,,,,,,,,,e,1,0.7198,0,7,7,8,1,,,,,,,,,,,,,,,,,,,,,,,,
,,,,,,,,,,,我,i,1,001,2025-02-08_16h09.37.256,IAT(Formal),2021.2.3,Win32,75.75757576,,,,,,,,,,,,,,,,,,,,,,,,,,,,,,,,,,,i,1,0.3907,0,8,8,0,1,,,,,,,,,,,,,,,,,,,,,,,,
,,,,,,,,,,,其他,e,1,001,2025-02-08_16h09.37.256,IAT(Formal),2021.2.3,Win32,75.75757576,,,,,,,,,,,,,,,,,,,,,,,,,,,,,,,,,,,e,1,0.7072,0,9,9,9,1,,,,,,,,,,,,,,,,,,,,,,,,
,,,,,,,,,,,,,1,001,2025-02-08_16h09.37.256,IAT(Formal),2021.2.3,Win32,75.75757576,,,,,,,,,,,,,,,,,,,,,,,,,,,,,,,,,,,,,,,,,,,space,10.4578,e,1,1.0229,0,0,0,55,1,他,e,,,,,,,,,,,,
,,,,,,,,,,,,,1,001,2025-02-08_16h09.37.256,IAT(Formal),2021.2.3,Win32,75.75757576,,,,,,,,,,,,,,,,,,,,,,,,,,,,,,,,,,,,,,,,,,,,,e,1,0.6094,0,1,1,25,1,细腻,e,,,,,,,,,,,,
,,,,,,,,,,,,,1,001,2025-02-08_16h09.37.256,IAT(Formal),2021.2.3,Win32,75.75757576,,,,,,,,,,,,,,,,,,,,,,,,,,,,,,,,,,,,,,,,,,,,,e,1,0.779,0,2,2,78,1,他人,e,,,,,,,,,,,,
,,,,,,,,,,,,,1,001,2025-02-08_16h09.37.256,IAT(Formal),2021.2.3,Win32,75.75757576,,,,,,,,,,,,,,,,,,,,,,,,,,,,,,,,,,,,,,,,,,,,,e,0,1.4196,0,3,3,2,1,我们,i,,,,,,,,,,,,
,,,,,,,,,,,,,1,001,2025-02-08_16h09.37.256,IAT(Formal),2021.2.3,Win32,75.75757576,,,,,,,,,,,,,,,,,,,,,,,,,,,,,,,,,,,,,,,,,,,,,e,0,1.253,0,4,4,36,1,自卑,i,,,,,,,,,,,,
,,,,,,,,,,,,,1,001,2025-02-08_16h09.37.256,IAT(Formal),2021.2.3,Win32,75.75757576,,,,,,,,,,,,,,,,,,,,,,,,,,,,,,,,,,,,,,,,,,,,,i,0,0.7781,0,5,5,11,1,崇高,e,,,,,,,,,,,,
,,,,,,,,,,,,,1,001,2025-02-08_16h09.37.256,IAT(Formal),2021.2.3,Win32,75.75757576,,,,,,,,,,,,,,,,,,,,,,,,,,,,,,,,,,,,,,,,,,,,,e,1,1.0286,0,6,6,77,1,他的,e,,,,,,,,,,,,
,,,,,,,,,,,,,1,001,2025-02-08_16h09.37.256,IAT(Formal),2021.2.3,Win32,75.75757576,,,,,,,,,,,,,,,,,,,,,,,,,,,,,,,,,,,,,,,,,,,,,e,1,0.948,0,7,7,68,1,他人,e,,,,,,,,,,,,
,,,,,,,,,,,,,1,001,2025-02-08_16h09.37.256,IAT(Formal),2021.2.3,Win32,75.75757576,,,,,,,,,,,,,,,,,,,,,,,,,,,,,,,,,,,,,,,,,,,,,e,1,0.774,0,8,8,19,1,机智,e,,,,,,,,,,,,
,,,,,,,,,,,,,1,001,2025-02-08_16h09.37.256,IAT(Formal),2021.2.3,Win32,75.75757576,,,,,,,,,,,,,,,,,,,,,,,,,,,,,,,,,,,,,,,,,,,,,i,1,0.9204,0,9,9,52,1,我们,i,,,,,,,,,,,,
,,,,,,,,,,,,,1,001,2025-02-08_16h09.37.256,IAT(Formal),2021.2.3,Win32,75.75757576,,,,,,,,,,,,,,,,,,,,,,,,,,,,,,,,,,,,,,,,,,,,,e,1,0.8138,0,10,10,75,1,他,e,,,,,,,,,,,,
,,,,,,,,,,,,,1,001,2025-02-08_16h09.37.256,IAT(Formal),2021.2.3,Win32,75.75757576,,,,,,,,,,,,,,,,,,,,,,,,,,,,,,,,,,,,,,,,,,,,,i,0,1.2541,0,11,11,9,1,其他,e,,,,,,,,,,,,
,,,,,,,,,,,,,1,001,2025-02-08_16h09.37.256,IAT(Formal),2021.2.3,Win32,75.75757576,,,,,,,,,,,,,,,,,,,,,,,,,,,,,,,,,,,,,,,,,,,,,i,0,1.0953,0,12,12,14,1,乐观,e,,,,,,,,,,,,
,,,,,,,,,,,,,1,001,2025-02-08_16h09.37.256,IAT(Formal),2021.2.3,Win32,75.75757576,,,,,,,,,,,,,,,,,,,,,,,,,,,,,,,,,,,,,,,,,,,,,e,0,1.2277,0,13,13,74,1,俺,i,,,,,,,,,,,,
,,,,,,,,,,,,,1,001,2025-02-08_16h09.37.256,IAT(Formal),2021.2.3,Win32,75.75757576,,,,,,,,,,,,,,,,,,,,,,,,,,,,,,,,,,,,,,,,,,,,,i,1,1.0354,0,14,14,49,1,下贱,i,,,,,,,,,,,,
,,,,,,,,,,,,,1,001,2025-02-08_16h09.37.256,IAT(Formal),2021.2.3,Win32,75.75757576,,,,,,,,,,,,,,,,,,,,,,,,,,,,,,,,,,,,,,,,,,,,,i,1,0.7299,0,15,15,42,1,凶狠,i,,,,,,,,,,,,
,,,,,,,,,,,,,1,001,2025-02-08_16h09.37.256,IAT(Formal),2021.2.3,Win32,75.75757576,,,,,,,,,,,,,,,,,,,,,,,,,,,,,,,,,,,,,,,,,,,,,i,1,0.5917,0,16,16,70,1,我,i,,,,,,,,,,,,
,,,,,,,,,,,,,1,001,2025-02-08_16h09.37.256,IAT(Formal),2021.2.3,Win32,75.75757576,,,,,,,,,,,,,,,,,,,,,,,,,,,,,,,,,,,,,,,,,,,,,e,1,0.7801,0,17,17,58,1,他人,e,,,,,,,,,,,,
,,,,,,,,,,,,,1,001,2025-02-08_16h09.37.256,IAT(Formal),2021.2.3,Win32,75.75757576,,,,,,,,,,,,,,,,,,,,,,,,,,,,,,,,,,,,,,,,,,,,,i,1,0.6879,0,18,18,71,1,我的,i,,,,,,,,,,,,
,,,,,,,,,,,,,1,001,2025-02-08_16h09.37.256,IAT(Formal),2021.2.3,Win32,75.75757576,,,,,,,,,,,,,,,,,,,,,,,,,,,,,,,,,,,,,,,,,,,,,e,1,0.5878,0,19,19,66,1,他们,e,,,,,,,,,,,,
,,,,,,,,,,,,,1,001,2025-02-08_16h09.37.256,IAT(Formal),2021.2.3,Win32,75.75757576,,,,,,,,,,,,,,,,,,,,,,,,,,,,,,,,,,,,,,,,,,,,,,0,,0,20,20,47,1,固执,i,,,,,,,,,,,,
,,,,,,,,,,,,,1,001,2025-02-08_16h09.37.256,IAT(Formal),2021.2.3,Win32,75.75757576,,,,,,,,,,,,,,,,,,,,,,,,,,,,,,,,,,,,,,,,,,,,,,0,,0,21,21,10,1,优秀,e,,,,,,,,,,,,
,,,,,,,,,,,,,1,001,2025-02-08_16h09.37.256,IAT(Formal),2021.2.3,Win32,75.75757576,,,,,,,,,,,,,,,,,,,,,,,,,,,,,,,,,,,,,,,,,,,,,,0,,0,22,22,60,1,我,i,,,,,,,,,,,,
,,,,,,,,,,,,,1,001,2025-02-08_16h09.37.256,IAT(Formal),2021.2.3,Win32,75.75757576,,,,,,,,,,,,,,,,,,,,,,,,,,,,,,,,,,,,,,,,,,,,,i,1,0.7783,0,23,23,51,1,我的,i,,,,,,,,,,,,
,,,,,,,,,,,,,1,001,2025-02-08_16h09.37.256,IAT(Formal),2021.2.3,Win32,75.75757576,,,,,,,,,,,,,,,,,,,,,,,,,,,,,,,,,,,,,,,,,,,,,,0,,0,24,24,13,1,杰出,e,,,,,,,,,,,,
,,,,,,,,,,,,,1,001,2025-02-08_16h09.37.256,IAT(Formal),2021.2.3,Win32,75.75757576,,,,,,,,,,,,,,,,,,,,,,,,,,,,,,,,,,,,,,,,,,,,,e,1,0.8491,0,25,25,8,1,他人,e,,,,,,,,,,,,
,,,,,,,,,,,,,1,001,2025-02-08_16h09.37.256,IAT(Formal),2021.2.3,Win32,75.75757576,,,,,,,,,,,,,,,,,,,,,,,,,,,,,,,,,,,,,,,,,,,,,e,1,0.5568,0,26,26,12,1,聪明,e,,,,,,,,,,,,
,,,,,,,,,,,,,1,001,2025-02-08_16h09.37.256,IAT(Formal),2021.2.3,Win32,75.75757576,,,,,,,,,,,,,,,,,,,,,,,,,,,,,,,,,,,,,,,,,,,,,i,1,0.494,0,27,27,33,1,刻薄,i,,,,,,,,,,,,
,,,,,,,,,,,,,1,001,2025-02-08_16h09.37.256,IAT(Formal),2021.2.3,Win32,75.75757576,,,,,,,,,,,,,,,,,,,,,,,,,,,,,,,,,,,,,,,,,,,,,e,1,0.7021,0,28,28,16,1,正直,e,,,,,,,,,,,,
,,,,,,,,,,,,,1,001,2025-02-08_16h09.37.256,IAT(Formal),2021.2.3,Win32,75.75757576,,,,,,,,,,,,,,,,,,,,,,,,,,,,,,,,,,,,,,,,,,,,,e,1,0.821,0,29,29,67,1,他的,e,,,,,,,,,,,,
,,,,,,,,,,,,,1,001,2025-02-08_16h09.37.256,IAT(Formal),2021.2.3,Win32,75.75757576,,,,,,,,,,,,,,,,,,,,,,,,,,,,,,,,,,,,,,,,,,,,,i,0,0.9124,0,30,30,20,1,认真,e,,,,,,,,,,,,
,,,,,,,,,,,,,1,001,2025-02-08_16h09.37.256,IAT(Formal),2021.2.3,Win32,75.75757576,,,,,,,,,,,,,,,,,,,,,,,,,,,,,,,,,,,,,,,,,,,,,e,0,1.0369,0,31,31,39,1,冒失,i,,,,,,,,,,,,
,,,,,,,,,,,,,1,001,2025-02-08_16h09.37.256,IAT(Formal),2021.2.3,Win32,75.75757576,,,,,,,,,,,,,,,,,,,,,,,,,,,,,,,,,,,,,,,,,,,,,e,1,0.6173,0,32,32,23,1,公正,e,,,,,,,,,,,,
,,,,,,,,,,,,,1,001,2025-02-08_16h09.37.256,IAT(Formal),2021.2.3,Win32,75.75757576,,,,,,,,,,,,,,,,,,,,,,,,,,,,,,,,,,,,,,,,,,,,,e,1,0.3809,0,33,33,65,1,他,e,,,,,,,,,,,,
,,,,,,,,,,,,,1,001,2025-02-08_16h09.37.256,IAT(Formal),2021.2.3,Win32,75.75757576,,,,,,,,,,,,,,,,,,,,,,,,,,,,,,,,,,,,,,,,,,,,,i,0,0.6037,0,34,34,69,1,其他,e,,,,,,,,,,,,
,,,,,,,,,,,,,1,001,2025-02-08_16h09.37.256,IAT(Formal),2021.2.3,Win32,75.75757576,,,,,,,,,,,,,,,,,,,,,,,,,,,,,,,,,,,,,,,,,,,,,e,1,0.5471,0,35,35,24,1,朴实,e,,,,,,,,,,,,
,,,,,,,,,,,,,1,001,2025-02-08_16h09.37.256,IAT(Formal),2021.2.3,Win32,75.75757576,,,,,,,,,,,,,,,,,,,,,,,,,,,,,,,,,,,,,,,,,,,,,i,1,0.7601,0,36,36,44,1,暴躁,i,,,,,,,,,,,,
,,,,,,,,,,,,,1,001,2025-02-08_16h09.37.256,IAT(Formal),2021.2.3,Win32,75.75757576,,,,,,,,,,,,,,,,,,,,,,,,,,,,,,,,,,,,,,,,,,,,,i,1,1.0638,0,37,37,73,1,自己,i,,,,,,,,,,,,
,,,,,,,,,,,,,1,001,2025-02-08_16h09.37.256,IAT(Formal),2021.2.3,Win32,75.75757576,,,,,,,,,,,,,,,,,,,,,,,,,,,,,,,,,,,,,,,,,,,,,e,1,1.1473,0,38,38,79,1,其他,e,,,,,,,,,,,,
,,,,,,,,,,,,,1,001,2025-02-08_16h09.37.256,IAT(Formal),2021.2.3,Win32,75.75757576,,,,,,,,,,,,,,,,,,,,,,,,,,,,,,,,,,,,,,,,,,,,,i,1,1.2039,0,39,39,31,1,虚伪,i,,,,,,,,,,,,
,,,,,,,,,,,,,1,001,2025-02-08_16h09.37.256,IAT(Formal),2021.2.3,Win32,75.75757576,,,,,,,,,,,,,,,,,,,,,,,,,,,,,,,,,,,,,,,,,,,,,e,0,1.4541,0,40,40,30,1,卑鄙,i,,,,,,,,,,,,
,,,,,,,,,,,,,1,001,2025-02-08_16h09.37.256,IAT(Formal),2021.2.3,Win32,75.75757576,,,,,,,,,,,,,,,,,,,,,,,,,,,,,,,,,,,,,,,,,,,,,i,1,1.1863,0,41,41,3,1,自己,i,,,,,,,,,,,,
,,,,,,,,,,,,,1,001,2025-02-08_16h09.37.256,IAT(Formal),2021.2.3,Win32,75.75757576,,,,,,,,,,,,,,,,,,,,,,,,,,,,,,,,,,,,,,,,,,,,,e,1,1.2006,0,42,42,56,1,他们,e,,,,,,,,,,,,
,,,,,,,,,,,,,1,001,2025-02-08_16h09.37.256,IAT(Formal),2021.2.3,Win32,75.75757576,,,,,,,,,,,,,,,,,,,,,,,,,,,,,,,,,,,,,,,,,,,,,i,1,1.1783,0,43,43,38,1,鲁莽,i,,,,,,,,,,,,
,,,,,,,,,,,,,1,001,2025-02-08_16h09.37.256,IAT(Formal),2021.2.3,Win32,75.75757576,,,,,,,,,,,,,,,,,,,,,,,,,,,,,,,,,,,,,,,,,,,,,e,1,0.9474,0,44,44,15,1,诚实,e,,,,,,,,,,,,
,,,,,,,,,,,,,1,001,2025-02-08_16h09.37.256,IAT(Formal),2021.2.3,Win32,75.75757576,,,,,,,,,,,,,,,,,,,,,,,,,,,,,,,,,,,,,,,,,,,,,i,1,1.2345,0,45,45,37,1,傲慢,i,,,,,,,,,,,,
,,,,,,,,,,,,,1,001,2025-02-08_16h09.37.256,IAT(Formal),2021.2.3,Win32,75.75757576,,,,,,,,,,,,,,,,,,,,,,,,,,,,,,,,,,,,,,,,,,,,,i,1,1.3407,0,46,46,54,1,俺,i,,,,,,,,,,,,
,,,,,,,,,,,,,1,001,2025-02-08_16h09.37.256,IAT(Formal),2021.2.3,Win32,75.75757576,,,,,,,,,,,,,,,,,,,,,,,,,,,,,,,,,,,,,,,,,,,,,e,1,0.9474,0,47,47,6,1,他们,e,,,,,,,,,,,,
,,,,,,,,,,,,,1,001,2025-02-08_16h09.37.256,IAT(Formal),2021.2.3,Win32,75.75757576,,,,,,,,,,,,,,,,,,,,,,,,,,,,,,,,,,,,,,,,,,,,,,0,,0,48,48,46,1,野蛮,i,,,,,,,,,,,,
,,,,,,,,,,,,,1,001,2025-02-08_16h09.37.256,IAT(Formal),2021.2.3,Win32,75.75757576,,,,,,,,,,,,,,,,,,,,,,,,,,,,,,,,,,,,,,,,,,,,,i,1,1.0158,0,49,49,50,1,我,i,,,,,,,,,,,,
,,,,,,,,,,,,,1,001,2025-02-08_16h09.37.256,IAT(Formal),2021.2.3,Win32,75.75757576,,,,,,,,,,,,,,,,,,,,,,,,,,,,,,,,,,,,,,,,,,,,,,0,,0,50,50,28,1,活泼,e,,,,,,,,,,,,
,,,,,,,,,,,,,1,001,2025-02-08_16h09.37.256,IAT(Formal),2021.2.3,Win32,75.75757576,,,,,,,,,,,,,,,,,,,,,,,,,,,,,,,,,,,,,,,,,,,,,i,1,0.6807,0,51,51,40,1,执拗,i,,,,,,,,,,,,
,,,,,,,,,,,,,1,001,2025-02-08_16h09.37.256,IAT(Formal),2021.2.3,Win32,75.75757576,,,,,,,,,,,,,,,,,,,,,,,,,,,,,,,,,,,,,,,,,,,,,i,1,0.7272,0,52,52,43,1,自私,i,,,,,,,,,,,,
,,,,,,,,,,,,,1,001,2025-02-08_16h09.37.256,IAT(Formal),2021.2.3,Win32,75.75757576,,,,,,,,,,,,,,,,,,,,,,,,,,,,,,,,,,,,,,,,,,,,,e,1,0.5876,0,53,53,59,1,其他,e,,,,,,,,,,,,
,,,,,,,,,,,,,1,001,2025-02-08_16h09.37.256,IAT(Formal),2021.2.3,Win32,75.75757576,,,,,,,,,,,,,,,,,,,,,,,,,,,,,,,,,,,,,,,,,,,,,i,1,0.8548,0,54,54,72,1,我们,i,,,,,,,,,,,,
,,,,,,,,,,,,,1,001,2025-02-08_16h09.37.256,IAT(Formal),2021.2.3,Win32,75.75757576,,,,,,,,,,,,,,,,,,,,,,,,,,,,,,,,,,,,,,,,,,,,,i,1,1.171,0,55,55,34,1,悲观,i,,,,,,,,,,,,
,,,,,,,,,,,,,1,001,2025-02-08_16h09.37.256,IAT(Formal),2021.2.3,Win32,75.75757576,,,,,,,,,,,,,,,,,,,,,,,,,,,,,,,,,,,,,,,,,,,,,e,1,0.5959,0,56,56,17,1,勇敢,e,,,,,,,,,,,,
,,,,,,,,,,,,,1,001,2025-02-08_16h09.37.256,IAT(Formal),2021.2.3,Win32,75.75757576,,,,,,,,,,,,,,,,,,,,,,,,,,,,,,,,,,,,,,,,,,,,,i,1,0.5737,0,57,57,61,1,我的,i,,,,,,,,,,,,
,,,,,,,,,,,,,1,001,2025-02-08_16h09.37.256,IAT(Formal),2021.2.3,Win32,75.75757576,,,,,,,,,,,,,,,,,,,,,,,,,,,,,,,,,,,,,,,,,,,,,i,1,0.7232,0,58,58,63,1,自己,i,,,,,,,,,,,,
,,,,,,,,,,,,,1,001,2025-02-08_16h09.37.256,IAT(Formal),2021.2.3,Win32,75.75757576,,,,,,,,,,,,,,,,,,,,,,,,,,,,,,,,,,,,,,,,,,,,,i,1,0.5075,0,59,59,4,1,俺,i,,,,,,,,,,,,
,,,,,,,,,,,,,1,001,2025-02-08_16h09.37.256,IAT(Formal),2021.2.3,Win32,75.75757576,,,,,,,,,,,,,,,,,,,,,,,,,,,,,,,,,,,,,,,,,,,,,i,1,0.7342,0,60,60,32,1,愚蠢,i,,,,,,,,,,,,
,,,,,,,,,,,,,1,001,2025-02-08_16h09.37.256,IAT(Formal),2021.2.3,Win32,75.75757576,,,,,,,,,,,,,,,,,,,,,,,,,,,,,,,,,,,,,,,,,,,,,i,1,0.4938,0,61,61,64,1,俺,i,,,,,,,,,,,,
,,,,,,,,,,,,,1,001,2025-02-08_16h09.37.256,IAT(Formal),2021.2.3,Win32,75.75757576,,,,,,,,,,,,,,,,,,,,,,,,,,,,,,,,,,,,,,,,,,,,,i,1,1.3868,0,62,62,45,1,猖狂,i,,,,,,,,,,,,
,,,,,,,,,,,,,1,001,2025-02-08_16h09.37.256,IAT(Formal),2021.2.3,Win32,75.75757576,,,,,,,,,,,,,,,,,,,,,,,,,,,,,,,,,,,,,,,,,,,,,i,1,0.7265,0,63,63,41,1,散漫,i,,,,,,,,,,,,
,,,,,,,,,,,,,1,001,2025-02-08_16h09.37.256,IAT(Formal),2021.2.3,Win32,75.75757576,,,,,,,,,,,,,,,,,,,,,,,,,,,,,,,,,,,,,,,,,,,,,i,1,0.5239,0,64,64,53,1,自己,i,,,,,,,,,,,,
,,,,,,,,,,,,,1,001,2025-02-08_16h09.37.256,IAT(Formal),2021.2.3,Win32,75.75757576,,,,,,,,,,,,,,,,,,,,,,,,,,,,,,,,,,,,,,,,,,,,,e,1,0.9709,0,65,65,26,1,冷静,e,,,,,,,,,,,,
,,,,,,,,,,,,,1,001,2025-02-08_16h09.37.256,IAT(Formal),2021.2.3,Win32,75.75757576,,,,,,,,,,,,,,,,,,,,,,,,,,,,,,,,,,,,,,,,,,,,,i,1,0.4959,0,66,66,0,1,我,i,,,,,,,,,,,,
,,,,,,,,,,,,,1,001,2025-02-08_16h09.37.256,IAT(Formal),2021.2.3,Win32,75.75757576,,,,,,,,,,,,,,,,,,,,,,,,,,,,,,,,,,,,,,,,,,,,,i,1,0.4808,0,67,67,62,1,我们,i,,,,,,,,,,,,
,,,,,,,,,,,,,1,001,2025-02-08_16h09.37.256,IAT(Formal),2021.2.3,Win32,75.75757576,,,,,,,,,,,,,,,,,,,,,,,,,,,,,,,,,,,,,,,,,,,,,e,1,0.5999,0,68,68,57,1,他的,e,,,,,,,,,,,,
,,,,,,,,,,,,,1,001,2025-02-08_16h09.37.256,IAT(Formal),2021.2.3,Win32,75.75757576,,,,,,,,,,,,,,,,,,,,,,,,,,,,,,,,,,,,,,,,,,,,,e,0,0.8577,0,69,69,48,1,轻率,i,,,,,,,,,,,,
,,,,,,,,,,,,,1,001,2025-02-08_16h09.37.256,IAT(Formal),2021.2.3,Win32,75.75757576,,,,,,,,,,,,,,,,,,,,,,,,,,,,,,,,,,,,,,,,,,,,,,0,,0,70,70,22,1,无私,e,,,,,,,,,,,,
,,,,,,,,,,,,,1,001,2025-02-08_16h09.37.256,IAT(Formal),2021.2.3,Win32,75.75757576,,,,,,,,,,,,,,,,,,,,,,,,,,,,,,,,,,,,,,,,,,,,,e,1,0.6672,0,71,71,18,1,勤奋,e,,,,,,,,,,,,
,,,,,,,,,,,,,1,001,2025-02-08_16h09.37.256,IAT(Formal),2021.2.3,Win32,75.75757576,,,,,,,,,,,,,,,,,,,,,,,,,,,,,,,,,,,,,,,,,,,,,e,1,0.6585,0,72,72,21,1,稳重,e,,,,,,,,,,,,
,,,,,,,,,,,,,1,001,2025-02-08_16h09.37.256,IAT(Formal),2021.2.3,Win32,75.75757576,,,,,,,,,,,,,,,,,,,,,,,,,,,,,,,,,,,,,,,,,,,,,e,1,0.4302,0,73,73,5,1,他,e,,,,,,,,,,,,
,,,,,,,,,,,,,1,001,2025-02-08_16h09.37.256,IAT(Formal),2021.2.3,Win32,75.75757576,,,,,,,,,,,,,,,,,,,,,,,,,,,,,,,,,,,,,,,,,,,,,i,1,0.4939,0,74,74,35,1,消极,i,,,,,,,,,,,,
,,,,,,,,,,,,,1,001,2025-02-08_16h09.37.256,IAT(Formal),2021.2.3,Win32,75.75757576,,,,,,,,,,,,,,,,,,,,,,,,,,,,,,,,,,,,,,,,,,,,,i,1,0.4415,0,75,75,1,1,我的,i,,,,,,,,,,,,
,,,,,,,,,,,,,1,001,2025-02-08_16h09.37.256,IAT(Formal),2021.2.3,Win32,75.75757576,,,,,,,,,,,,,,,,,,,,,,,,,,,,,,,,,,,,,,,,,,,,,e,1,0.7155,0,76,76,7,1,他的,e,,,,,,,,,,,,
,,,,,,,,,,,,,1,001,2025-02-08_16h09.37.256,IAT(Formal),2021.2.3,Win32,75.75757576,,,,,,,,,,,,,,,,,,,,,,,,,,,,,,,,,,,,,,,,,,,,,e,1,1.3884,0,77,77,27,1,热情,e,,,,,,,,,,,,
,,,,,,,,,,,,,1,001,2025-02-08_16h09.37.256,IAT(Formal),2021.2.3,Win32,75.75757576,,,,,,,,,,,,,,,,,,,,,,,,,,,,,,,,,,,,,,,,,,,,,e,1,0.64,0,78,78,76,1,他们,e,,,,,,,,,,,,
,,,,,,,,,,,,,1,001,2025-02-08_16h09.37.256,IAT(Formal),2021.2.3,Win32,75.75757576,,,,,,,,,,,,,,,,,,,,,,,,,,,,,,,,,,,,,,,,,,,,,e,1,0.7829,0,79,79,29,1,诚恳,e,,,,,,,,,,,,
,,,,,,,,,,,,,1,001,2025-02-08_16h09.37.256,IAT(Formal),2021.2.3,Win32,75.75757576,,,,,,,,,,,,,,,,,,,,,,,,,,,,,,,,,,,,,,,,,,,,,,,,,,,,,自己,i,space,9.6949,i,1,0.597,0,0,0,73,1,,
,,,,,,,,,,,,,1,001,2025-02-08_16h09.37.256,IAT(Formal),2021.2.3,Win32,75.75757576,,,,,,,,,,,,,,,,,,,,,,,,,,,,,,,,,,,,,,,,,,,,,,,,,,,,,我,i,,,i,1,0.5796,0,1,1,0,1,,
,,,,,,,,,,,,,1,001,2025-02-08_16h09.37.256,IAT(Formal),2021.2.3,Win32,75.75757576,,,,,,,,,,,,,,,,,,,,,,,,,,,,,,,,,,,,,,,,,,,,,,,,,,,,,稳重,e,,,e,1,0.6845,0,2,2,21,1,,
,,,,,,,,,,,,,1,001,2025-02-08_16h09.37.256,IAT(Formal),2021.2.3,Win32,75.75757576,,,,,,,,,,,,,,,,,,,,,,,,,,,,,,,,,,,,,,,,,,,,,,,,,,,,,暴躁,i,,,i,1,0.9196,0,3,3,44,1,,
,,,,,,,,,,,,,1,001,2025-02-08_16h09.37.256,IAT(Formal),2021.2.3,Win32,75.75757576,,,,,,,,,,,,,,,,,,,,,,,,,,,,,,,,,,,,,,,,,,,,,,,,,,,,,他们,e,,,i,0,0.5315,0,4,4,66,1,,
,,,,,,,,,,,,,1,001,2025-02-08_16h09.37.256,IAT(Formal),2021.2.3,Win32,75.75757576,,,,,,,,,,,,,,,,,,,,,,,,,,,,,,,,,,,,,,,,,,,,,,,,,,,,,他们,e,,,e,1,0.7558,0,5,5,56,1,,
,,,,,,,,,,,,,1,001,2025-02-08_16h09.37.256,IAT(Formal),2021.2.3,Win32,75.75757576,,,,,,,,,,,,,,,,,,,,,,,,,,,,,,,,,,,,,,,,,,,,,,,,,,,,,他人,e,,,e,1,0.5801,0,6,6,58,1,,
,,,,,,,,,,,,,1,001,2025-02-08_16h09.37.256,IAT(Formal),2021.2.3,Win32,75.75757576,,,,,,,,,,,,,,,,,,,,,,,,,,,,,,,,,,,,,,,,,,,,,,,,,,,,,散漫,i,,,e,0,1.3544,0,7,7,41,1,,
,,,,,,,,,,,,,1,001,2025-02-08_16h09.37.256,IAT(Formal),2021.2.3,Win32,75.75757576,,,,,,,,,,,,,,,,,,,,,,,,,,,,,,,,,,,,,,,,,,,,,,,,,,,,,俺,i,,,i,1,0.6441,0,8,8,74,1,,
,,,,,,,,,,,,,1,001,2025-02-08_16h09.37.256,IAT(Formal),2021.2.3,Win32,75.75757576,,,,,,,,,,,,,,,,,,,,,,,,,,,,,,,,,,,,,,,,,,,,,,,,,,,,,鲁莽,i,,,i,1,0.5333,0,9,9,38,1,,
,,,,,,,,,,,,,1,001,2025-02-08_16h09.37.256,IAT(Formal),2021.2.3,Win32,75.75757576,,,,,,,,,,,,,,,,,,,,,,,,,,,,,,,,,,,,,,,,,,,,,,,,,,,,,卑鄙,i,,,i,1,0.4807,0,10,10,30,1,,
,,,,,,,,,,,,,1,001,2025-02-08_16h09.37.256,IAT(Formal),2021.2.3,Win32,75.75757576,,,,,,,,,,,,,,,,,,,,,,,,,,,,,,,,,,,,,,,,,,,,,,,,,,,,,我的,i,,,i,1,0.5213,0,11,11,51,1,,
,,,,,,,,,,,,,1,001,2025-02-08_16h09.37.256,IAT(Formal),2021.2.3,Win32,75.75757576,,,,,,,,,,,,,,,,,,,,,,,,,,,,,,,,,,,,,,,,,,,,,,,,,,,,,自卑,i,,,i,1,0.5452,0,12,12,36,1,,
,,,,,,,,,,,,,1,001,2025-02-08_16h09.37.256,IAT(Formal),2021.2.3,Win32,75.75757576,,,,,,,,,,,,,,,,,,,,,,,,,,,,,,,,,,,,,,,,,,,,,,,,,,,,,我们,i,,,i,1,0.8304,0,13,13,52,1,,
,,,,,,,,,,,,,1,001,2025-02-08_16h09.37.256,IAT(Formal),2021.2.3,Win32,75.75757576,,,,,,,,,,,,,,,,,,,,,,,,,,,,,,,,,,,,,,,,,,,,,,,,,,,,,傲慢,i,,,i,1,0.6124,0,14,14,37,1,,
,,,,,,,,,,,,,1,001,2025-02-08_16h09.37.256,IAT(Formal),2021.2.3,Win32,75.75757576,,,,,,,,,,,,,,,,,,,,,,,,,,,,,,,,,,,,,,,,,,,,,,,,,,,,,我们,i,,,i,1,0.4592,0,15,15,72,1,,
,,,,,,,,,,,,,1,001,2025-02-08_16h09.37.256,IAT(Formal),2021.2.3,Win32,75.75757576,,,,,,,,,,,,,,,,,,,,,,,,,,,,,,,,,,,,,,,,,,,,,,,,,,,,,俺,i,,,i,1,0.4668,0,16,16,54,1,,
,,,,,,,,,,,,,1,001,2025-02-08_16h09.37.256,IAT(Formal),2021.2.3,Win32,75.75757576,,,,,,,,,,,,,,,,,,,,,,,,,,,,,,,,,,,,,,,,,,,,,,,,,,,,,我的,i,,,i,1,0.4134,0,17,17,61,1,,
,,,,,,,,,,,,,1,001,2025-02-08_16h09.37.256,IAT(Formal),2021.2.3,Win32,75.75757576,,,,,,,,,,,,,,,,,,,,,,,,,,,,,,,,,,,,,,,,,,,,,,,,,,,,,机智,e,,,e,1,0.8261,0,18,18,19,1,,
,,,,,,,,,,,,,1,001,2025-02-08_16h09.37.256,IAT(Formal),2021.2.3,Win32,75.75757576,,,,,,,,,,,,,,,,,,,,,,,,,,,,,,,,,,,,,,,,,,,,,,,,,,,,,俺,i,,,i,1,0.4776,0,19,19,64,1,,
,,,,,,,,,,,,,1,001,2025-02-08_16h09.37.256,IAT(Formal),2021.2.3,Win32,75.75757576,,,,,,,,,,,,,,,,,,,,,,,,,,,,,,,,,,,,,,,,,,,,,,,,,,,,,勤奋,e,,,e,1,0.6363,0,20,20,18,1,,
,,,,,,,,,,,,,1,001,2025-02-08_16h09.37.256,IAT(Formal),2021.2.3,Win32,75.75757576,,,,,,,,,,,,,,,,,,,,,,,,,,,,,,,,,,,,,,,,,,,,,,,,,,,,,公正,e,,,e,1,0.575,0,21,21,23,1,,
,,,,,,,,,,,,,1,001,2025-02-08_16h09.37.256,IAT(Formal),2021.2.3,Win32,75.75757576,,,,,,,,,,,,,,,,,,,,,,,,,,,,,,,,,,,,,,,,,,,,,,,,,,,,,活泼,e,,,e,1,0.4742,0,22,22,28,1,,
,,,,,,,,,,,,,1,001,2025-02-08_16h09.37.256,IAT(Formal),2021.2.3,Win32,75.75757576,,,,,,,,,,,,,,,,,,,,,,,,,,,,,,,,,,,,,,,,,,,,,,,,,,,,,他的,e,,,e,1,0.5064,0,23,23,7,1,,
,,,,,,,,,,,,,1,001,2025-02-08_16h09.37.256,IAT(Formal),2021.2.3,Win32,75.75757576,,,,,,,,,,,,,,,,,,,,,,,,,,,,,,,,,,,,,,,,,,,,,,,,,,,,,他们,e,,,e,1,0.399,0,24,24,6,1,,
,,,,,,,,,,,,,1,001,2025-02-08_16h09.37.256,IAT(Formal),2021.2.3,Win32,75.75757576,,,,,,,,,,,,,,,,,,,,,,,,,,,,,,,,,,,,,,,,,,,,,,,,,,,,,其他,e,,,e,1,0.7628,0,25,25,79,1,,
,,,,,,,,,,,,,1,001,2025-02-08_16h09.37.256,IAT(Formal),2021.2.3,Win32,75.75757576,,,,,,,,,,,,,,,,,,,,,,,,,,,,,,,,,,,,,,,,,,,,,,,,,,,,,他,e,,,e,1,0.4404,0,26,26,55,1,,
,,,,,,,,,,,,,1,001,2025-02-08_16h09.37.256,IAT(Formal),2021.2.3,Win32,75.75757576,,,,,,,,,,,,,,,,,,,,,,,,,,,,,,,,,,,,,,,,,,,,,,,,,,,,,崇高,e,,,e,1,0.7079,0,27,27,11,1,,
,,,,,,,,,,,,,1,001,2025-02-08_16h09.37.256,IAT(Formal),2021.2.3,Win32,75.75757576,,,,,,,,,,,,,,,,,,,,,,,,,,,,,,,,,,,,,,,,,,,,,,,,,,,,,其他,e,,,e,1,0.5435,0,28,28,9,1,,
,,,,,,,,,,,,,1,001,2025-02-08_16h09.37.256,IAT(Formal),2021.2.3,Win32,75.75757576,,,,,,,,,,,,,,,,,,,,,,,,,,,,,,,,,,,,,,,,,,,,,,,,,,,,,愚蠢,i,,,e,0,0.5666,0,29,29,32,1,,
,,,,,,,,,,,,,1,001,2025-02-08_16h09.37.256,IAT(Formal),2021.2.3,Win32,75.75757576,,,,,,,,,,,,,,,,,,,,,,,,,,,,,,,,,,,,,,,,,,,,,,,,,,,,,优秀,e,,,e,1,0.7632,0,30,30,10,1,,
,,,,,,,,,,,,,1,001,2025-02-08_16h09.37.256,IAT(Formal),2021.2.3,Win32,75.75757576,,,,,,,,,,,,,,,,,,,,,,,,,,,,,,,,,,,,,,,,,,,,,,,,,,,,,消极,i,,,i,1,0.7295,0,31,31,35,1,,
,,,,,,,,,,,,,1,001,2025-02-08_16h09.37.256,IAT(Formal),2021.2.3,Win32,75.75757576,,,,,,,,,,,,,,,,,,,,,,,,,,,,,,,,,,,,,,,,,,,,,,,,,,,,,他们,e,,,e,1,0.6963,0,32,32,76,1,,
,,,,,,,,,,,,,1,001,2025-02-08_16h09.37.256,IAT(Formal),2021.2.3,Win32,75.75757576,,,,,,,,,,,,,,,,,,,,,,,,,,,,,,,,,,,,,,,,,,,,,,,,,,,,,刻薄,i,,,i,1,0.6567,0,33,33,33,1,,
,,,,,,,,,,,,,1,001,2025-02-08_16h09.37.256,IAT(Formal),2021.2.3,Win32,75.75757576,,,,,,,,,,,,,,,,,,,,,,,,,,,,,,,,,,,,,,,,,,,,,,,,,,,,,我们,i,,,i,1,0.7044,0,34,34,2,1,,
,,,,,,,,,,,,,1,001,2025-02-08_16h09.37.256,IAT(Formal),2021.2.3,Win32,75.75757576,,,,,,,,,,,,,,,,,,,,,,,,,,,,,,,,,,,,,,,,,,,,,,,,,,,,,执拗,i,,,i,1,0.9298,0,35,35,40,1,,
,,,,,,,,,,,,,1,001,2025-02-08_16h09.37.256,IAT(Formal),2021.2.3,Win32,75.75757576,,,,,,,,,,,,,,,,,,,,,,,,,,,,,,,,,,,,,,,,,,,,,,,,,,,,,我们,i,,,i,1,0.7221,0,36,36,62,1,,
,,,,,,,,,,,,,1,001,2025-02-08_16h09.37.256,IAT(Formal),2021.2.3,Win32,75.75757576,,,,,,,,,,,,,,,,,,,,,,,,,,,,,,,,,,,,,,,,,,,,,,,,,,,,,猖狂,i,,,i,1,0.5373,0,37,37,45,1,,
,,,,,,,,,,,,,1,001,2025-02-08_16h09.37.256,IAT(Formal),2021.2.3,Win32,75.75757576,,,,,,,,,,,,,,,,,,,,,,,,,,,,,,,,,,,,,,,,,,,,,,,,,,,,,聪明,e,,,e,1,1.0282,0,38,38,12,1,,
,,,,,,,,,,,,,1,001,2025-02-08_16h09.37.256,IAT(Formal),2021.2.3,Win32,75.75757576,,,,,,,,,,,,,,,,,,,,,,,,,,,,,,,,,,,,,,,,,,,,,,,,,,,,,我,i,,,i,1,0.5918,0,39,39,70,1,,
,,,,,,,,,,,,,1,001,2025-02-08_16h09.37.256,IAT(Formal),2021.2.3,Win32,75.75757576,,,,,,,,,,,,,,,,,,,,,,,,,,,,,,,,,,,,,,,,,,,,,,,,,,,,,凶狠,i,,,i,1,0.6019,0,40,40,42,1,,
,,,,,,,,,,,,,1,001,2025-02-08_16h09.37.256,IAT(Formal),2021.2.3,Win32,75.75757576,,,,,,,,,,,,,,,,,,,,,,,,,,,,,,,,,,,,,,,,,,,,,,,,,,,,,冷静,e,,,e,1,0.6527,0,41,41,26,1,,
,,,,,,,,,,,,,1,001,2025-02-08_16h09.37.256,IAT(Formal),2021.2.3,Win32,75.75757576,,,,,,,,,,,,,,,,,,,,,,,,,,,,,,,,,,,,,,,,,,,,,,,,,,,,,我的,i,,,i,1,0.537,0,42,42,71,1,,
,,,,,,,,,,,,,1,001,2025-02-08_16h09.37.256,IAT(Formal),2021.2.3,Win32,75.75757576,,,,,,,,,,,,,,,,,,,,,,,,,,,,,,,,,,,,,,,,,,,,,,,,,,,,,他,e,,,e,1,0.4898,0,43,43,5,1,,
,,,,,,,,,,,,,1,001,2025-02-08_16h09.37.256,IAT(Formal),2021.2.3,Win32,75.75757576,,,,,,,,,,,,,,,,,,,,,,,,,,,,,,,,,,,,,,,,,,,,,,,,,,,,,我,i,,,i,1,0.4897,0,44,44,60,1,,
,,,,,,,,,,,,,1,001,2025-02-08_16h09.37.256,IAT(Formal),2021.2.3,Win32,75.75757576,,,,,,,,,,,,,,,,,,,,,,,,,,,,,,,,,,,,,,,,,,,,,,,,,,,,,诚实,e,,,e,1,0.7252,0,45,45,15,1,,
,,,,,,,,,,,,,1,001,2025-02-08_16h09.37.256,IAT(Formal),2021.2.3,Win32,75.75757576,,,,,,,,,,,,,,,,,,,,,,,,,,,,,,,,,,,,,,,,,,,,,,,,,,,,,虚伪,i,,,i,1,0.6167,0,46,46,31,1,,
,,,,,,,,,,,,,1,001,2025-02-08_16h09.37.256,IAT(Formal),2021.2.3,Win32,75.75757576,,,,,,,,,,,,,,,,,,,,,,,,,,,,,,,,,,,,,,,,,,,,,,,,,,,,,热情,e,,,e,1,0.773,0,47,47,27,1,,
,,,,,,,,,,,,,1,001,2025-02-08_16h09.37.256,IAT(Formal),2021.2.3,Win32,75.75757576,,,,,,,,,,,,,,,,,,,,,,,,,,,,,,,,,,,,,,,,,,,,,,,,,,,,,自己,i,,,i,1,0.7179,0,48,48,63,1,,
,,,,,,,,,,,,,1,001,2025-02-08_16h09.37.256,IAT(Formal),2021.2.3,Win32,75.75757576,,,,,,,,,,,,,,,,,,,,,,,,,,,,,,,,,,,,,,,,,,,,,,,,,,,,,其他,e,,,e,1,0.5573,0,49,49,59,1,,
,,,,,,,,,,,,,1,001,2025-02-08_16h09.37.256,IAT(Formal),2021.2.3,Win32,75.75757576,,,,,,,,,,,,,,,,,,,,,,,,,,,,,,,,,,,,,,,,,,,,,,,,,,,,,他人,e,,,e,1,0.6116,0,50,50,78,1,,
,,,,,,,,,,,,,1,001,2025-02-08_16h09.37.256,IAT(Formal),2021.2.3,Win32,75.75757576,,,,,,,,,,,,,,,,,,,,,,,,,,,,,,,,,,,,,,,,,,,,,,,,,,,,,野蛮,i,,,e,0,1.0776,0,51,51,46,1,,
,,,,,,,,,,,,,1,001,2025-02-08_16h09.37.256,IAT(Formal),2021.2.3,Win32,75.75757576,,,,,,,,,,,,,,,,,,,,,,,,,,,,,,,,,,,,,,,,,,,,,,,,,,,,,细腻,e,,,e,1,0.6255,0,52,52,25,1,,
,,,,,,,,,,,,,1,001,2025-02-08_16h09.37.256,IAT(Formal),2021.2.3,Win32,75.75757576,,,,,,,,,,,,,,,,,,,,,,,,,,,,,,,,,,,,,,,,,,,,,,,,,,,,,杰出,e,,,e,1,0.8255,0,53,53,13,1,,
,,,,,,,,,,,,,1,001,2025-02-08_16h09.37.256,IAT(Formal),2021.2.3,Win32,75.75757576,,,,,,,,,,,,,,,,,,,,,,,,,,,,,,,,,,,,,,,,,,,,,,,,,,,,,自私,i,,,i,1,0.4921,0,54,54,43,1,,
,,,,,,,,,,,,,1,001,2025-02-08_16h09.37.256,IAT(Formal),2021.2.3,Win32,75.75757576,,,,,,,,,,,,,,,,,,,,,,,,,,,,,,,,,,,,,,,,,,,,,,,,,,,,,他的,e,,,e,1,0.5608,0,55,55,57,1,,
,,,,,,,,,,,,,1,001,2025-02-08_16h09.37.256,IAT(Formal),2021.2.3,Win32,75.75757576,,,,,,,,,,,,,,,,,,,,,,,,,,,,,,,,,,,,,,,,,,,,,,,,,,,,,朴实,e,,,e,1,0.8734,0,56,56,24,1,,
,,,,,,,,,,,,,1,001,2025-02-08_16h09.37.256,IAT(Formal),2021.2.3,Win32,75.75757576,,,,,,,,,,,,,,,,,,,,,,,,,,,,,,,,,,,,,,,,,,,,,,,,,,,,,诚恳,e,,,e,1,0.5865,0,57,57,29,1,,
,,,,,,,,,,,,,1,001,2025-02-08_16h09.37.256,IAT(Formal),2021.2.3,Win32,75.75757576,,,,,,,,,,,,,,,,,,,,,,,,,,,,,,,,,,,,,,,,,,,,,,,,,,,,,俺,i,,,i,1,0.5286,0,58,58,4,1,,
,,,,,,,,,,,,,1,001,2025-02-08_16h09.37.256,IAT(Formal),2021.2.3,Win32,75.75757576,,,,,,,,,,,,,,,,,,,,,,,,,,,,,,,,,,,,,,,,,,,,,,,,,,,,,他,e,,,e,1,0.933,0,59,59,65,1,,
,,,,,,,,,,,,,1,001,2025-02-08_16h09.37.256,IAT(Formal),2021.2.3,Win32,75.75757576,,,,,,,,,,,,,,,,,,,,,,,,,,,,,,,,,,,,,,,,,,,,,,,,,,,,,他,e,,,e,1,0.4702,0,60,60,75,1,,
,,,,,,,,,,,,,1,001,2025-02-08_16h09.37.256,IAT(Formal),2021.2.3,Win32,75.75757576,,,,,,,,,,,,,,,,,,,,,,,,,,,,,,,,,,,,,,,,,,,,,,,,,,,,,下贱,i,,,i,1,0.4964,0,61,61,49,1,,
,,,,,,,,,,,,,1,001,2025-02-08_16h09.37.256,IAT(Formal),2021.2.3,Win32,75.75757576,,,,,,,,,,,,,,,,,,,,,,,,,,,,,,,,,,,,,,,,,,,,,,,,,,,,,自己,i,,,i,1,0.838,0,62,62,3,1,,
,,,,,,,,,,,,,1,001,2025-02-08_16h09.37.256,IAT(Formal),2021.2.3,Win32,75.75757576,,,,,,,,,,,,,,,,,,,,,,,,,,,,,,,,,,,,,,,,,,,,,,,,,,,,,其他,e,,,e,1,1.0572,0,63,63,69,1,,
,,,,,,,,,,,,,1,001,2025-02-08_16h09.37.256,IAT(Formal),2021.2.3,Win32,75.75757576,,,,,,,,,,,,,,,,,,,,,,,,,,,,,,,,,,,,,,,,,,,,,,,,,,,,,固执,i,,,i,1,0.5065,0,64,64,47,1,,
,,,,,,,,,,,,,1,001,2025-02-08_16h09.37.256,IAT(Formal),2021.2.3,Win32,75.75757576,,,,,,,,,,,,,,,,,,,,,,,,,,,,,,,,,,,,,,,,,,,,,,,,,,,,,勇敢,e,,,e,1,0.4854,0,65,65,17,1,,
,,,,,,,,,,,,,1,001,2025-02-08_16h09.37.256,IAT(Formal),2021.2.3,Win32,75.75757576,,,,,,,,,,,,,,,,,,,,,,,,,,,,,,,,,,,,,,,,,,,,,,,,,,,,,自己,i,,,i,1,1.0623,0,66,66,53,1,,
,,,,,,,,,,,,,1,001,2025-02-08_16h09.37.256,IAT(Formal),2021.2.3,Win32,75.75757576,,,,,,,,,,,,,,,,,,,,,,,,,,,,,,,,,,,,,,,,,,,,,,,,,,,,,乐观,e,,,e,1,0.9929,0,67,67,14,1,,
,,,,,,,,,,,,,1,001,2025-02-08_16h09.37.256,IAT(Formal),2021.2.3,Win32,75.75757576,,,,,,,,,,,,,,,,,,,,,,,,,,,,,,,,,,,,,,,,,,,,,,,,,,,,,正直,e,,,e,1,0.5669,0,68,68,16,1,,
,,,,,,,,,,,,,1,001,2025-02-08_16h09.37.256,IAT(Formal),2021.2.3,Win32,75.75757576,,,,,,,,,,,,,,,,,,,,,,,,,,,,,,,,,,,,,,,,,,,,,,,,,,,,,他人,e,,,e,1,0.8572,0,69,69,68,1,,
,,,,,,,,,,,,,1,001,2025-02-08_16h09.37.256,IAT(Formal),2021.2.3,Win32,75.75757576,,,,,,,,,,,,,,,,,,,,,,,,,,,,,,,,,,,,,,,,,,,,,,,,,,,,,他的,e,,,e,1,0.5673,0,70,70,67,1,,
,,,,,,,,,,,,,1,001,2025-02-08_16h09.37.256,IAT(Formal),2021.2.3,Win32,75.75757576,,,,,,,,,,,,,,,,,,,,,,,,,,,,,,,,,,,,,,,,,,,,,,,,,,,,,冒失,i,,,e,0,0.7711,0,71,71,39,1,,
,,,,,,,,,,,,,1,001,2025-02-08_16h09.37.256,IAT(Formal),2021.2.3,Win32,75.75757576,,,,,,,,,,,,,,,,,,,,,,,,,,,,,,,,,,,,,,,,,,,,,,,,,,,,,悲观,i,,,i,1,0.6676,0,72,72,34,1,,
,,,,,,,,,,,,,1,001,2025-02-08_16h09.37.256,IAT(Formal),2021.2.3,Win32,75.75757576,,,,,,,,,,,,,,,,,,,,,,,,,,,,,,,,,,,,,,,,,,,,,,,,,,,,,无私,e,,,i,0,1.1068,0,73,73,22,1,,
,,,,,,,,,,,,,1,001,2025-02-08_16h09.37.256,IAT(Formal),2021.2.3,Win32,75.75757576,,,,,,,,,,,,,,,,,,,,,,,,,,,,,,,,,,,,,,,,,,,,,,,,,,,,,我的,i,,,i,1,0.5904,0,74,74,1,1,,
,,,,,,,,,,,,,1,001,2025-02-08_16h09.37.256,IAT(Formal),2021.2.3,Win32,75.75757576,,,,,,,,,,,,,,,,,,,,,,,,,,,,,,,,,,,,,,,,,,,,,,,,,,,,,他的,e,,,e,1,0.7675,0,75,75,77,1,,
,,,,,,,,,,,,,1,001,2025-02-08_16h09.37.256,IAT(Formal),2021.2.3,Win32,75.75757576,,,,,,,,,,,,,,,,,,,,,,,,,,,,,,,,,,,,,,,,,,,,,,,,,,,,,他人,e,,,e,1,0.6357,0,76,76,8,1,,
,,,,,,,,,,,,,1,001,2025-02-08_16h09.37.256,IAT(Formal),2021.2.3,Win32,75.75757576,,,,,,,,,,,,,,,,,,,,,,,,,,,,,,,,,,,,,,,,,,,,,,,,,,,,,轻率,i,,,i,1,0.9669,0,77,77,48,1,,
,,,,,,,,,,,,,1,001,2025-02-08_16h09.37.256,IAT(Formal),2021.2.3,Win32,75.75757576,,,,,,,,,,,,,,,,,,,,,,,,,,,,,,,,,,,,,,,,,,,,,,,,,,,,,我,i,,,i,1,0.7452,0,78,78,50,1,,
,,,,,,,,,,,,,1,001,2025-02-08_16h09.37.256,IAT(Formal),2021.2.3,Win32,75.75757576,,,,,,,,,,,,,,,,,,,,,,,,,,,,,,,,,,,,,,,,,,,,,,,,,,,,,认真,e,,,e,1,0.6182,0,79,79,20,1,,
,,,,,,,,,,,,,1,001,2025-02-08_16h09.37.256,IAT(Formal),2021.2.3,Win32,75.75757576,,,,,,,,,,,,,,,,,,,,,,,,,,,,,,,,,,,,,,,,,,,,,,,,,,,,,他们,e,,,e,1,0.5734,1,0,80,76,1,,
,,,,,,,,,,,,,1,001,2025-02-08_16h09.37.256,IAT(Formal),2021.2.3,Win32,75.75757576,,,,,,,,,,,,,,,,,,,,,,,,,,,,,,,,,,,,,,,,,,,,,,,,,,,,,杰出,e,,,e,1,0.5904,1,1,81,13,1,,
,,,,,,,,,,,,,1,001,2025-02-08_16h09.37.256,IAT(Formal),2021.2.3,Win32,75.75757576,,,,,,,,,,,,,,,,,,,,,,,,,,,,,,,,,,,,,,,,,,,,,,,,,,,,,鲁莽,i,,,i,1,0.5317,1,2,82,38,1,,
,,,,,,,,,,,,,1,001,2025-02-08_16h09.37.256,IAT(Formal),2021.2.3,Win32,75.75757576,,,,,,,,,,,,,,,,,,,,,,,,,,,,,,,,,,,,,,,,,,,,,,,,,,,,,刻薄,i,,,e,0,0.6383,1,3,83,33,1,,
,,,,,,,,,,,,,1,001,2025-02-08_16h09.37.256,IAT(Formal),2021.2.3,Win32,75.75757576,,,,,,,,,,,,,,,,,,,,,,,,,,,,,,,,,,,,,,,,,,,,,,,,,,,,,他,e,,,e,1,0.5803,1,4,84,65,1,,
,,,,,,,,,,,,,1,001,2025-02-08_16h09.37.256,IAT(Formal),2021.2.3,Win32,75.75757576,,,,,,,,,,,,,,,,,,,,,,,,,,,,,,,,,,,,,,,,,,,,,,,,,,,,,勤奋,e,,,e,1,0.9082,1,5,85,18,1,,
,,,,,,,,,,,,,1,001,2025-02-08_16h09.37.256,IAT(Formal),2021.2.3,Win32,75.75757576,,,,,,,,,,,,,,,,,,,,,,,,,,,,,,,,,,,,,,,,,,,,,,,,,,,,,我们,i,,,i,1,0.4322,1,6,86,2,1,,
,,,,,,,,,,,,,1,001,2025-02-08_16h09.37.256,IAT(Formal),2021.2.3,Win32,75.75757576,,,,,,,,,,,,,,,,,,,,,,,,,,,,,,,,,,,,,,,,,,,,,,,,,,,,,我的,i,,,i,1,0.6508,1,7,87,71,1,,
,,,,,,,,,,,,,1,001,2025-02-08_16h09.37.256,IAT(Formal),2021.2.3,Win32,75.75757576,,,,,,,,,,,,,,,,,,,,,,,,,,,,,,,,,,,,,,,,,,,,,,,,,,,,,乐观,e,,,e,1,0.9878,1,8,88,14,1,,
,,,,,,,,,,,,,1,001,2025-02-08_16h09.37.256,IAT(Formal),2021.2.3,Win32,75.75757576,,,,,,,,,,,,,,,,,,,,,,,,,,,,,,,,,,,,,,,,,,,,,,,,,,,,,自己,i,,,i,1,0.5723,1,9,89,73,1,,
,,,,,,,,,,,,,1,001,2025-02-08_16h09.37.256,IAT(Formal),2021.2.3,Win32,75.75757576,,,,,,,,,,,,,,,,,,,,,,,,,,,,,,,,,,,,,,,,,,,,,,,,,,,,,自己,i,,,i,1,0.4723,1,10,90,3,1,,
,,,,,,,,,,,,,1,001,2025-02-08_16h09.37.256,IAT(Formal),2021.2.3,Win32,75.75757576,,,,,,,,,,,,,,,,,,,,,,,,,,,,,,,,,,,,,,,,,,,,,,,,,,,,,卑鄙,i,,,e,0,0.8845,1,11,91,30,1,,
,,,,,,,,,,,,,1,001,2025-02-08_16h09.37.256,IAT(Formal),2021.2.3,Win32,75.75757576,,,,,,,,,,,,,,,,,,,,,,,,,,,,,,,,,,,,,,,,,,,,,,,,,,,,,其他,e,,,e,1,0.7195,1,12,92,9,1,,
,,,,,,,,,,,,,1,001,2025-02-08_16h09.37.256,IAT(Formal),2021.2.3,Win32,75.75757576,,,,,,,,,,,,,,,,,,,,,,,,,,,,,,,,,,,,,,,,,,,,,,,,,,,,,其他,e,,,e,1,0.6192,1,13,93,59,1,,
,,,,,,,,,,,,,1,001,2025-02-08_16h09.37.256,IAT(Formal),2021.2.3,Win32,75.75757576,,,,,,,,,,,,,,,,,,,,,,,,,,,,,,,,,,,,,,,,,,,,,,,,,,,,,傲慢,i,,,i,1,0.5208,1,14,94,37,1,,
,,,,,,,,,,,,,1,001,2025-02-08_16h09.37.256,IAT(Formal),2021.2.3,Win32,75.75757576,,,,,,,,,,,,,,,,,,,,,,,,,,,,,,,,,,,,,,,,,,,,,,,,,,,,,他们,e,,,e,1,0.8308,1,15,95,6,1,,
,,,,,,,,,,,,,1,001,2025-02-08_16h09.37.256,IAT(Formal),2021.2.3,Win32,75.75757576,,,,,,,,,,,,,,,,,,,,,,,,,,,,,,,,,,,,,,,,,,,,,,,,,,,,,俺,i,,,i,1,0.6811,1,16,96,74,1,,
,,,,,,,,,,,,,1,001,2025-02-08_16h09.37.256,IAT(Formal),2021.2.3,Win32,75.75757576,,,,,,,,,,,,,,,,,,,,,,,,,,,,,,,,,,,,,,,,,,,,,,,,,,,,,自私,i,,,i,1,0.451,1,17,97,43,1,,
,,,,,,,,,,,,,1,001,2025-02-08_16h09.37.256,IAT(Formal),2021.2.3,Win32,75.75757576,,,,,,,,,,,,,,,,,,,,,,,,,,,,,,,,,,,,,,,,,,,,,,,,,,,,,冷静,e,,,e,1,0.662,1,18,98,26,1,,
,,,,,,,,,,,,,1,001,2025-02-08_16h09.37.256,IAT(Formal),2021.2.3,Win32,75.75757576,,,,,,,,,,,,,,,,,,,,,,,,,,,,,,,,,,,,,,,,,,,,,,,,,,,,,执拗,i,,,i,1,1.0003,1,19,99,40,1,,
,,,,,,,,,,,,,1,001,2025-02-08_16h09.37.256,IAT(Formal),2021.2.3,Win32,75.75757576,,,,,,,,,,,,,,,,,,,,,,,,,,,,,,,,,,,,,,,,,,,,,,,,,,,,,其他,e,,,e,1,0.8364,1,20,100,79,1,,
,,,,,,,,,,,,,1,001,2025-02-08_16h09.37.256,IAT(Formal),2021.2.3,Win32,75.75757576,,,,,,,,,,,,,,,,,,,,,,,,,,,,,,,,,,,,,,,,,,,,,,,,,,,,,朴实,e,,,e,1,0.64,1,21,101,24,1,,
,,,,,,,,,,,,,1,001,2025-02-08_16h09.37.256,IAT(Formal),2021.2.3,Win32,75.75757576,,,,,,,,,,,,,,,,,,,,,,,,,,,,,,,,,,,,,,,,,,,,,,,,,,,,,他的,e,,,e,1,0.8499,1,22,102,7,1,,
,,,,,,,,,,,,,1,001,2025-02-08_16h09.37.256,IAT(Formal),2021.2.3,Win32,75.75757576,,,,,,,,,,,,,,,,,,,,,,,,,,,,,,,,,,,,,,,,,,,,,,,,,,,,,稳重,e,,,i,0,0.5459,1,23,103,21,1,,
,,,,,,,,,,,,,1,001,2025-02-08_16h09.37.256,IAT(Formal),2021.2.3,Win32,75.75757576,,,,,,,,,,,,,,,,,,,,,,,,,,,,,,,,,,,,,,,,,,,,,,,,,,,,,其他,e,,,e,1,0.6861,1,24,104,69,1,,
,,,,,,,,,,,,,1,001,2025-02-08_16h09.37.256,IAT(Formal),2021.2.3,Win32,75.75757576,,,,,,,,,,,,,,,,,,,,,,,,,,,,,,,,,,,,,,,,,,,,,,,,,,,,,诚恳,e,,,e,1,0.8194,1,25,105,29,1,,
,,,,,,,,,,,,,1,001,2025-02-08_16h09.37.256,IAT(Formal),2021.2.3,Win32,75.75757576,,,,,,,,,,,,,,,,,,,,,,,,,,,,,,,,,,,,,,,,,,,,,,,,,,,,,我们,i,,,i,1,0.6534,1,26,106,72,1,,
,,,,,,,,,,,,,1,001,2025-02-08_16h09.37.256,IAT(Formal),2021.2.3,Win32,75.75757576,,,,,,,,,,,,,,,,,,,,,,,,,,,,,,,,,,,,,,,,,,,,,,,,,,,,,崇高,e,,,e,1,0.6924,1,27,107,11,1,,
,,,,,,,,,,,,,1,001,2025-02-08_16h09.37.256,IAT(Formal),2021.2.3,Win32,75.75757576,,,,,,,,,,,,,,,,,,,,,,,,,,,,,,,,,,,,,,,,,,,,,,,,,,,,,细腻,e,,,e,1,0.643,1,28,108,25,1,,
,,,,,,,,,,,,,1,001,2025-02-08_16h09.37.256,IAT(Formal),2021.2.3,Win32,75.75757576,,,,,,,,,,,,,,,,,,,,,,,,,,,,,,,,,,,,,,,,,,,,,,,,,,,,,俺,i,,,i,1,0.536,1,29,109,4,1,,
,,,,,,,,,,,,,1,001,2025-02-08_16h09.37.256,IAT(Formal),2021.2.3,Win32,75.75757576,,,,,,,,,,,,,,,,,,,,,,,,,,,,,,,,,,,,,,,,,,,,,,,,,,,,,他的,e,,,e,1,0.5784,1,30,110,77,1,,
,,,,,,,,,,,,,1,001,2025-02-08_16h09.37.256,IAT(Formal),2021.2.3,Win32,75.75757576,,,,,,,,,,,,,,,,,,,,,,,,,,,,,,,,,,,,,,,,,,,,,,,,,,,,,他,e,,,e,1,0.5257,1,31,111,55,1,,
,,,,,,,,,,,,,1,001,2025-02-08_16h09.37.256,IAT(Formal),2021.2.3,Win32,75.75757576,,,,,,,,,,,,,,,,,,,,,,,,,,,,,,,,,,,,,,,,,,,,,,,,,,,,,他人,e,,,e,1,0.727,1,32,112,8,1,,
,,,,,,,,,,,,,1,001,2025-02-08_16h09.37.256,IAT(Formal),2021.2.3,Win32,75.75757576,,,,,,,,,,,,,,,,,,,,,,,,,,,,,,,,,,,,,,,,,,,,,,,,,,,,,我,i,,,i,1,0.7372,1,33,113,50,1,,
,,,,,,,,,,,,,1,001,2025-02-08_16h09.37.256,IAT(Formal),2021.2.3,Win32,75.75757576,,,,,,,,,,,,,,,,,,,,,,,,,,,,,,,,,,,,,,,,,,,,,,,,,,,,,散漫,i,,,i,1,0.7865,1,34,114,41,1,,
,,,,,,,,,,,,,1,001,2025-02-08_16h09.37.256,IAT(Formal),2021.2.3,Win32,75.75757576,,,,,,,,,,,,,,,,,,,,,,,,,,,,,,,,,,,,,,,,,,,,,,,,,,,,,悲观,i,,,i,1,0.4664,1,35,115,34,1,,
,,,,,,,,,,,,,1,001,2025-02-08_16h09.37.256,IAT(Formal),2021.2.3,Win32,75.75757576,,,,,,,,,,,,,,,,,,,,,,,,,,,,,,,,,,,,,,,,,,,,,,,,,,,,,虚伪,i,,,i,1,0.4573,1,36,116,31,1,,
,,,,,,,,,,,,,1,001,2025-02-08_16h09.37.256,IAT(Formal),2021.2.3,Win32,75.75757576,,,,,,,,,,,,,,,,,,,,,,,,,,,,,,,,,,,,,,,,,,,,,,,,,,,,,我,i,,,i,1,0.8795,1,37,117,70,1,,
,,,,,,,,,,,,,1,001,2025-02-08_16h09.37.256,IAT(Formal),2021.2.3,Win32,75.75757576,,,,,,,,,,,,,,,,,,,,,,,,,,,,,,,,,,,,,,,,,,,,,,,,,,,,,俺,i,,,i,1,0.5114,1,38,118,64,1,,
,,,,,,,,,,,,,1,001,2025-02-08_16h09.37.256,IAT(Formal),2021.2.3,Win32,75.75757576,,,,,,,,,,,,,,,,,,,,,,,,,,,,,,,,,,,,,,,,,,,,,,,,,,,,,认真,e,,,e,1,0.6517,1,39,119,20,1,,
,,,,,,,,,,,,,1,001,2025-02-08_16h09.37.256,IAT(Formal),2021.2.3,Win32,75.75757576,,,,,,,,,,,,,,,,,,,,,,,,,,,,,,,,,,,,,,,,,,,,,,,,,,,,,优秀,e,,,e,1,0.8123,1,40,120,10,1,,
,,,,,,,,,,,,,1,001,2025-02-08_16h09.37.256,IAT(Formal),2021.2.3,Win32,75.75757576,,,,,,,,,,,,,,,,,,,,,,,,,,,,,,,,,,,,,,,,,,,,,,,,,,,,,他的,e,,,e,1,0.6927,1,41,121,67,1,,
,,,,,,,,,,,,,1,001,2025-02-08_16h09.37.256,IAT(Formal),2021.2.3,Win32,75.75757576,,,,,,,,,,,,,,,,,,,,,,,,,,,,,,,,,,,,,,,,,,,,,,,,,,,,,暴躁,i,,,i,1,0.5893,1,42,122,44,1,,
,,,,,,,,,,,,,1,001,2025-02-08_16h09.37.256,IAT(Formal),2021.2.3,Win32,75.75757576,,,,,,,,,,,,,,,,,,,,,,,,,,,,,,,,,,,,,,,,,,,,,,,,,,,,,愚蠢,i,,,i,1,0.6174,1,43,123,32,1,,
,,,,,,,,,,,,,1,001,2025-02-08_16h09.37.256,IAT(Formal),2021.2.3,Win32,75.75757576,,,,,,,,,,,,,,,,,,,,,,,,,,,,,,,,,,,,,,,,,,,,,,,,,,,,,聪明,e,,,e,1,0.6949,1,44,124,12,1,,
,,,,,,,,,,,,,1,001,2025-02-08_16h09.37.256,IAT(Formal),2021.2.3,Win32,75.75757576,,,,,,,,,,,,,,,,,,,,,,,,,,,,,,,,,,,,,,,,,,,,,,,,,,,,,公正,e,,,e,1,0.5716,1,45,125,23,1,,
,,,,,,,,,,,,,1,001,2025-02-08_16h09.37.256,IAT(Formal),2021.2.3,Win32,75.75757576,,,,,,,,,,,,,,,,,,,,,,,,,,,,,,,,,,,,,,,,,,,,,,,,,,,,,轻率,i,,,i,1,0.5461,1,46,126,48,1,,
,,,,,,,,,,,,,1,001,2025-02-08_16h09.37.256,IAT(Formal),2021.2.3,Win32,75.75757576,,,,,,,,,,,,,,,,,,,,,,,,,,,,,,,,,,,,,,,,,,,,,,,,,,,,,他,e,,,e,1,0.7584,1,47,127,75,1,,
,,,,,,,,,,,,,1,001,2025-02-08_16h09.37.256,IAT(Formal),2021.2.3,Win32,75.75757576,,,,,,,,,,,,,,,,,,,,,,,,,,,,,,,,,,,,,,,,,,,,,,,,,,,,,他们,e,,,e,1,0.661,1,48,128,56,1,,
,,,,,,,,,,,,,1,001,2025-02-08_16h09.37.256,IAT(Formal),2021.2.3,Win32,75.75757576,,,,,,,,,,,,,,,,,,,,,,,,,,,,,,,,,,,,,,,,,,,,,,,,,,,,,他人,e,,,e,1,0.5183,1,49,129,78,1,,
,,,,,,,,,,,,,1,001,2025-02-08_16h09.37.256,IAT(Formal),2021.2.3,Win32,75.75757576,,,,,,,,,,,,,,,,,,,,,,,,,,,,,,,,,,,,,,,,,,,,,,,,,,,,,勇敢,e,,,e,1,0.5619,1,50,130,17,1,,
,,,,,,,,,,,,,1,001,2025-02-08_16h09.37.256,IAT(Formal),2021.2.3,Win32,75.75757576,,,,,,,,,,,,,,,,,,,,,,,,,,,,,,,,,,,,,,,,,,,,,,,,,,,,,机智,e,,,e,1,0.5437,1,51,131,19,1,,
,,,,,,,,,,,,,1,001,2025-02-08_16h09.37.256,IAT(Formal),2021.2.3,Win32,75.75757576,,,,,,,,,,,,,,,,,,,,,,,,,,,,,,,,,,,,,,,,,,,,,,,,,,,,,他,e,,,e,1,0.466,1,52,132,5,1,,
,,,,,,,,,,,,,1,001,2025-02-08_16h09.37.256,IAT(Formal),2021.2.3,Win32,75.75757576,,,,,,,,,,,,,,,,,,,,,,,,,,,,,,,,,,,,,,,,,,,,,,,,,,,,,自卑,i,,,i,1,0.5349,1,53,133,36,1,,
,,,,,,,,,,,,,1,001,2025-02-08_16h09.37.256,IAT(Formal),2021.2.3,Win32,75.75757576,,,,,,,,,,,,,,,,,,,,,,,,,,,,,,,,,,,,,,,,,,,,,,,,,,,,,我们,i,,,i,1,0.4076,1,54,134,52,1,,
,,,,,,,,,,,,,1,001,2025-02-08_16h09.37.256,IAT(Formal),2021.2.3,Win32,75.75757576,,,,,,,,,,,,,,,,,,,,,,,,,,,,,,,,,,,,,,,,,,,,,,,,,,,,,他人,e,,,e,1,0.5202,1,55,135,68,1,,
,,,,,,,,,,,,,1,001,2025-02-08_16h09.37.256,IAT(Formal),2021.2.3,Win32,75.75757576,,,,,,,,,,,,,,,,,,,,,,,,,,,,,,,,,,,,,,,,,,,,,,,,,,,,,自己,i,,,i,1,0.5203,1,56,136,53,1,,
,,,,,,,,,,,,,1,001,2025-02-08_16h09.37.256,IAT(Formal),2021.2.3,Win32,75.75757576,,,,,,,,,,,,,,,,,,,,,,,,,,,,,,,,,,,,,,,,,,,,,,,,,,,,,我们,i,,,i,1,0.5895,1,57,137,62,1,,
,,,,,,,,,,,,,1,001,2025-02-08_16h09.37.256,IAT(Formal),2021.2.3,Win32,75.75757576,,,,,,,,,,,,,,,,,,,,,,,,,,,,,,,,,,,,,,,,,,,,,,,,,,,,,我,i,,,i,1,0.6396,1,58,138,0,1,,
,,,,,,,,,,,,,1,001,2025-02-08_16h09.37.256,IAT(Formal),2021.2.3,Win32,75.75757576,,,,,,,,,,,,,,,,,,,,,,,,,,,,,,,,,,,,,,,,,,,,,,,,,,,,,活泼,e,,,e,1,0.8904,1,59,139,28,1,,
,,,,,,,,,,,,,1,001,2025-02-08_16h09.37.256,IAT(Formal),2021.2.3,Win32,75.75757576,,,,,,,,,,,,,,,,,,,,,,,,,,,,,,,,,,,,,,,,,,,,,,,,,,,,,正直,e,,,e,1,0.6019,1,60,140,16,1,,
,,,,,,,,,,,,,1,001,2025-02-08_16h09.37.256,IAT(Formal),2021.2.3,Win32,75.75757576,,,,,,,,,,,,,,,,,,,,,,,,,,,,,,,,,,,,,,,,,,,,,,,,,,,,,热情,e,,,e,1,0.6516,1,61,141,27,1,,
,,,,,,,,,,,,,1,001,2025-02-08_16h09.37.256,IAT(Formal),2021.2.3,Win32,75.75757576,,,,,,,,,,,,,,,,,,,,,,,,,,,,,,,,,,,,,,,,,,,,,,,,,,,,,冒失,i,,,i,1,0.7175,1,62,142,39,1,,
,,,,,,,,,,,,,1,001,2025-02-08_16h09.37.256,IAT(Formal),2021.2.3,Win32,75.75757576,,,,,,,,,,,,,,,,,,,,,,,,,,,,,,,,,,,,,,,,,,,,,,,,,,,,,凶狠,i,,,i,1,0.5175,1,63,143,42,1,,
,,,,,,,,,,,,,1,001,2025-02-08_16h09.37.256,IAT(Formal),2021.2.3,Win32,75.75757576,,,,,,,,,,,,,,,,,,,,,,,,,,,,,,,,,,,,,,,,,,,,,,,,,,,,,消极,i,,,i,1,0.5497,1,64,144,35,1,,
,,,,,,,,,,,,,1,001,2025-02-08_16h09.37.256,IAT(Formal),2021.2.3,Win32,75.75757576,,,,,,,,,,,,,,,,,,,,,,,,,,,,,,,,,,,,,,,,,,,,,,,,,,,,,无私,e,,,e,1,0.717,1,65,145,22,1,,
,,,,,,,,,,,,,1,001,2025-02-08_16h09.37.256,IAT(Formal),2021.2.3,Win32,75.75757576,,,,,,,,,,,,,,,,,,,,,,,,,,,,,,,,,,,,,,,,,,,,,,,,,,,,,我,i,,,i,1,0.5083,1,66,146,60,1,,
,,,,,,,,,,,,,1,001,2025-02-08_16h09.37.256,IAT(Formal),2021.2.3,Win32,75.75757576,,,,,,,,,,,,,,,,,,,,,,,,,,,,,,,,,,,,,,,,,,,,,,,,,,,,,俺,i,,,i,1,0.5631,1,67,147,54,1,,
,,,,,,,,,,,,,1,001,2025-02-08_16h09.37.256,IAT(Formal),2021.2.3,Win32,75.75757576,,,,,,,,,,,,,,,,,,,,,,,,,,,,,,,,,,,,,,,,,,,,,,,,,,,,,猖狂,i,,,i,1,0.6244,1,68,148,45,1,,
,,,,,,,,,,,,,1,001,2025-02-08_16h09.37.256,IAT(Formal),2021.2.3,Win32,75.75757576,,,,,,,,,,,,,,,,,,,,,,,,,,,,,,,,,,,,,,,,,,,,,,,,,,,,,他人,e,,,e,1,0.7078,1,69,149,58,1,,
,,,,,,,,,,,,,1,001,2025-02-08_16h09.37.256,IAT(Formal),2021.2.3,Win32,75.75757576,,,,,,,,,,,,,,,,,,,,,,,,,,,,,,,,,,,,,,,,,,,,,,,,,,,,,自己,i,,,i,1,0.6437,1,70,150,63,1,,
,,,,,,,,,,,,,1,001,2025-02-08_16h09.37.256,IAT(Formal),2021.2.3,Win32,75.75757576,,,,,,,,,,,,,,,,,,,,,,,,,,,,,,,,,,,,,,,,,,,,,,,,,,,,,他们,e,,,e,1,0.5416,1,71,151,66,1,,
,,,,,,,,,,,,,1,001,2025-02-08_16h09.37.256,IAT(Formal),2021.2.3,Win32,75.75757576,,,,,,,,,,,,,,,,,,,,,,,,,,,,,,,,,,,,,,,,,,,,,,,,,,,,,下贱,i,,,i,1,0.5628,1,72,152,49,1,,
,,,,,,,,,,,,,1,001,2025-02-08_16h09.37.256,IAT(Formal),2021.2.3,Win32,75.75757576,,,,,,,,,,,,,,,,,,,,,,,,,,,,,,,,,,,,,,,,,,,,,,,,,,,,,固执,i,,,i,1,0.6136,1,73,153,47,1,,
,,,,,,,,,,,,,1,001,2025-02-08_16h09.37.256,IAT(Formal),2021.2.3,Win32,75.75757576,,,,,,,,,,,,,,,,,,,,,,,,,,,,,,,,,,,,,,,,,,,,,,,,,,,,,我的,i,,,i,1,0.6247,1,74,154,1,1,,
,,,,,,,,,,,,,1,001,2025-02-08_16h09.37.256,IAT(Formal),2021.2.3,Win32,75.75757576,,,,,,,,,,,,,,,,,,,,,,,,,,,,,,,,,,,,,,,,,,,,,,,,,,,,,他的,e,,,e,1,0.5916,1,75,155,57,1,,
,,,,,,,,,,,,,1,001,2025-02-08_16h09.37.256,IAT(Formal),2021.2.3,Win32,75.75757576,,,,,,,,,,,,,,,,,,,,,,,,,,,,,,,,,,,,,,,,,,,,,,,,,,,,,野蛮,i,,,i,1,0.4897,1,76,156,46,1,,
,,,,,,,,,,,,,1,001,2025-02-08_16h09.37.256,IAT(Formal),2021.2.3,Win32,75.75757576,,,,,,,,,,,,,,,,,,,,,,,,,,,,,,,,,,,,,,,,,,,,,,,,,,,,,我的,i,,,i,1,0.7935,1,77,157,51,1,,
,,,,,,,,,,,,,1,001,2025-02-08_16h09.37.256,IAT(Formal),2021.2.3,Win32,75.75757576,,,,,,,,,,,,,,,,,,,,,,,,,,,,,,,,,,,,,,,,,,,,,,,,,,,,,诚实,e,,,e,1,0.678,1,78,158,15,1,,
,,,,,,,,,,,,,1,001,2025-02-08_16h09.37.256,IAT(Formal),2021.2.3,Win32,75.75757576,,,,,,,,,,,,,,,,,,,,,,,,,,,,,,,,,,,,,,,,,,,,,,,,,,,,,我的,i,,,i,1,0.5002,1,79,159,61,1,,
,,,,,,,,,,,,,1,001,2025-02-08_16h09.37.256,IAT(Formal),2021.2.3,Win32,75.75757576,,,,,,,,,,,,,,,,,,,,,,,,,,,,,,,,,,,,,,,,,,,,,,,,,,,,,,,,,,,,,,,,,space,1.838