﻿Instruction1.keys,Instruction1.rt,Instruction2.keys,Instruction2.rt,key_resp_iso.keys,key_resp_iso.corr,key_resp_iso.rt,Practice_01.thisRepN,Practice_01.thisTrialN,Practice_01.thisN,Practice_01.thisIndex,Practice_01.ran,Words,ans,participant,session,date,expName,psychopyVersion,OS,frameRate,key_resp_3.keys,key_resp_3.rt,key_resp_ipn.keys,key_resp_ipn.corr,key_resp_ipn.rt,Practice_02.thisRepN,Practice_02.thisTrialN,Practice_02.thisN,Practice_02.thisIndex,Practice_02.ran,Words_ipn,ans_ipn,key_resp_4.keys,key_resp_4.rt,key_resp_t1.keys,key_resp_t1.corr,key_resp_t1.rt,Practice_T1.thisRepN,Practice_T1.thisTrialN,Practice_T1.thisN,Practice_T1.thisIndex,Practice_T1.ran,Words_t1,ans_t1,key_resp_5.keys,key_resp_5.rt,Formal_T1.thisRepN,Formal_T1.thisTrialN,Formal_T1.thisN,Formal_T1.thisIndex,Formal_T1.ran,key_resp_6.keys,key_resp_6.rt,key_resp_iso_reverse.keys,key_resp_iso_reverse.corr,key_resp_iso_reverse.rt,Practice_iso_Reverse.thisRepN,Practice_iso_Reverse.thisTrialN,Practice_iso_Reverse.thisN,Practice_iso_Reverse.thisIndex,Practice_iso_Reverse.ran,key_resp_7.keys,key_resp_7.rt,key_resp_t2_Practice.keys,key_resp_t2_Practice.corr,key_resp_t2_Practice.rt,Practice_t2_Reverse.thisRepN,Practice_t2_Reverse.thisTrialN,Practice_t2_Reverse.thisN,Practice_t2_Reverse.thisIndex,Practice_t2_Reverse.ran,Words_t2,ans_t2,key_resp_8.keys,key_resp_8.rt,key_resp_t2.keys,key_resp_t2.corr,key_resp_t2.rt,Formal_t2_reverse.thisRepN,Formal_t2_reverse.thisTrialN,Formal_t2_reverse.thisN,Formal_t2_reverse.thisIndex,Formal_t2_reverse.ran,key_instruct.keys,key_instruct.rt
space,5.5409,space,8.7668,i,1,0.9623,0,0,0,7,1,他的,i,1,001,2025-02-14_20h11.33.675,IAT(Formal),2021.2.3,Win32,70.42253521,,,,,,,,,,,,,,,,,,,,,,,,,,,,,,,,,,,,,,,,,,,,,,,,,,,,,,,,,,,,,,,,,
,,,,i,1,0.931,0,1,1,9,1,其他,i,1,001,2025-02-14_20h11.33.675,IAT(Formal),2021.2.3,Win32,70.42253521,,,,,,,,,,,,,,,,,,,,,,,,,,,,,,,,,,,,,,,,,,,,,,,,,,,,,,,,,,,,,,,,,
,,,,i,1,0.6207,0,2,2,6,1,他们,i,1,001,2025-02-14_20h11.33.675,IAT(Formal),2021.2.3,Win32,70.42253521,,,,,,,,,,,,,,,,,,,,,,,,,,,,,,,,,,,,,,,,,,,,,,,,,,,,,,,,,,,,,,,,,
,,,,i,1,0.6141,0,3,3,5,1,他,i,1,001,2025-02-14_20h11.33.675,IAT(Formal),2021.2.3,Win32,70.42253521,,,,,,,,,,,,,,,,,,,,,,,,,,,,,,,,,,,,,,,,,,,,,,,,,,,,,,,,,,,,,,,,,
,,,,i,1,0.6597,0,4,4,8,1,他人,i,1,001,2025-02-14_20h11.33.675,IAT(Formal),2021.2.3,Win32,70.42253521,,,,,,,,,,,,,,,,,,,,,,,,,,,,,,,,,,,,,,,,,,,,,,,,,,,,,,,,,,,,,,,,,
,,,,e,1,0.5659,0,5,5,0,1,我,e,1,001,2025-02-14_20h11.33.675,IAT(Formal),2021.2.3,Win32,70.42253521,,,,,,,,,,,,,,,,,,,,,,,,,,,,,,,,,,,,,,,,,,,,,,,,,,,,,,,,,,,,,,,,,
,,,,e,1,0.6945,0,6,6,3,1,自己,e,1,001,2025-02-14_20h11.33.675,IAT(Formal),2021.2.3,Win32,70.42253521,,,,,,,,,,,,,,,,,,,,,,,,,,,,,,,,,,,,,,,,,,,,,,,,,,,,,,,,,,,,,,,,,
,,,,e,1,0.6614,0,7,7,4,1,俺,e,1,001,2025-02-14_20h11.33.675,IAT(Formal),2021.2.3,Win32,70.42253521,,,,,,,,,,,,,,,,,,,,,,,,,,,,,,,,,,,,,,,,,,,,,,,,,,,,,,,,,,,,,,,,,
,,,,e,1,0.6234,0,8,8,2,1,我们,e,1,001,2025-02-14_20h11.33.675,IAT(Formal),2021.2.3,Win32,70.42253521,,,,,,,,,,,,,,,,,,,,,,,,,,,,,,,,,,,,,,,,,,,,,,,,,,,,,,,,,,,,,,,,,
,,,,e,1,0.5708,0,9,9,1,1,我的,e,1,001,2025-02-14_20h11.33.675,IAT(Formal),2021.2.3,Win32,70.42253521,,,,,,,,,,,,,,,,,,,,,,,,,,,,,,,,,,,,,,,,,,,,,,,,,,,,,,,,,,,,,,,,,
,,,,,,,,,,,,,,1,001,2025-02-14_20h11.33.675,IAT(Formal),2021.2.3,Win32,70.42253521,space,7.1352,i,1,0.9226,0,0,0,24,1,悲观,i,,,,,,,,,,,,,,,,,,,,,,,,,,,,,,,,,,,,,,,,,,,,,,,,,,,,,
,,,,,,,,,,,,,,1,001,2025-02-14_20h11.33.675,IAT(Formal),2021.2.3,Win32,70.42253521,,,e,1,0.9512,0,1,1,12,1,无私,e,,,,,,,,,,,,,,,,,,,,,,,,,,,,,,,,,,,,,,,,,,,,,,,,,,,,,
,,,,,,,,,,,,,,1,001,2025-02-14_20h11.33.675,IAT(Formal),2021.2.3,Win32,70.42253521,,,e,1,0.9081,0,2,2,3,1,杰出,e,,,,,,,,,,,,,,,,,,,,,,,,,,,,,,,,,,,,,,,,,,,,,,,,,,,,,
,,,,,,,,,,,,,,1,001,2025-02-14_20h11.33.675,IAT(Formal),2021.2.3,Win32,70.42253521,,,e,1,0.9299,0,3,3,11,1,稳重,e,,,,,,,,,,,,,,,,,,,,,,,,,,,,,,,,,,,,,,,,,,,,,,,,,,,,,
,,,,,,,,,,,,,,1,001,2025-02-14_20h11.33.675,IAT(Formal),2021.2.3,Win32,70.42253521,,,e,1,0.8884,0,4,4,2,1,聪明,e,,,,,,,,,,,,,,,,,,,,,,,,,,,,,,,,,,,,,,,,,,,,,,,,,,,,,
,,,,,,,,,,,,,,1,001,2025-02-14_20h11.33.675,IAT(Formal),2021.2.3,Win32,70.42253521,,,e,1,0.792,0,5,5,15,1,细腻,e,,,,,,,,,,,,,,,,,,,,,,,,,,,,,,,,,,,,,,,,,,,,,,,,,,,,,
,,,,,,,,,,,,,,1,001,2025-02-14_20h11.33.675,IAT(Formal),2021.2.3,Win32,70.42253521,,,i,1,0.7412,0,6,6,39,1,下贱,i,,,,,,,,,,,,,,,,,,,,,,,,,,,,,,,,,,,,,,,,,,,,,,,,,,,,,
,,,,,,,,,,,,,,1,001,2025-02-14_20h11.33.675,IAT(Formal),2021.2.3,Win32,70.42253521,,,i,1,0.8214,0,7,7,29,1,冒失,i,,,,,,,,,,,,,,,,,,,,,,,,,,,,,,,,,,,,,,,,,,,,,,,,,,,,,
,,,,,,,,,,,,,,1,001,2025-02-14_20h11.33.675,IAT(Formal),2021.2.3,Win32,70.42253521,,,i,1,1.1668,0,8,8,27,1,傲慢,i,,,,,,,,,,,,,,,,,,,,,,,,,,,,,,,,,,,,,,,,,,,,,,,,,,,,,
,,,,,,,,,,,,,,1,001,2025-02-14_20h11.33.675,IAT(Formal),2021.2.3,Win32,70.42253521,,,e,1,1.0639,0,9,9,16,1,冷静,e,,,,,,,,,,,,,,,,,,,,,,,,,,,,,,,,,,,,,,,,,,,,,,,,,,,,,
,,,,,,,,,,,,,,1,001,2025-02-14_20h11.33.675,IAT(Formal),2021.2.3,Win32,70.42253521,,,e,1,0.9417,0,10,10,19,1,诚恳,e,,,,,,,,,,,,,,,,,,,,,,,,,,,,,,,,,,,,,,,,,,,,,,,,,,,,,
,,,,,,,,,,,,,,1,001,2025-02-14_20h11.33.675,IAT(Formal),2021.2.3,Win32,70.42253521,,,i,1,0.8057,0,11,11,35,1,猖狂,i,,,,,,,,,,,,,,,,,,,,,,,,,,,,,,,,,,,,,,,,,,,,,,,,,,,,,
,,,,,,,,,,,,,,1,001,2025-02-14_20h11.33.675,IAT(Formal),2021.2.3,Win32,70.42253521,,,e,1,0.803,0,12,12,10,1,认真,e,,,,,,,,,,,,,,,,,,,,,,,,,,,,,,,,,,,,,,,,,,,,,,,,,,,,,
,,,,,,,,,,,,,,1,001,2025-02-14_20h11.33.675,IAT(Formal),2021.2.3,Win32,70.42253521,,,i,1,0.7655,0,13,13,30,1,执拗,i,,,,,,,,,,,,,,,,,,,,,,,,,,,,,,,,,,,,,,,,,,,,,,,,,,,,,
,,,,,,,,,,,,,,1,001,2025-02-14_20h11.33.675,IAT(Formal),2021.2.3,Win32,70.42253521,,,e,1,0.8255,0,14,14,14,1,朴实,e,,,,,,,,,,,,,,,,,,,,,,,,,,,,,,,,,,,,,,,,,,,,,,,,,,,,,
,,,,,,,,,,,,,,1,001,2025-02-14_20h11.33.675,IAT(Formal),2021.2.3,Win32,70.42253521,,,e,1,0.7357,0,15,15,13,1,公正,e,,,,,,,,,,,,,,,,,,,,,,,,,,,,,,,,,,,,,,,,,,,,,,,,,,,,,
,,,,,,,,,,,,,,1,001,2025-02-14_20h11.33.675,IAT(Formal),2021.2.3,Win32,70.42253521,,,e,1,0.8244,0,16,16,4,1,乐观,e,,,,,,,,,,,,,,,,,,,,,,,,,,,,,,,,,,,,,,,,,,,,,,,,,,,,,
,,,,,,,,,,,,,,1,001,2025-02-14_20h11.33.675,IAT(Formal),2021.2.3,Win32,70.42253521,,,i,1,0.7133,0,17,17,21,1,虚伪,i,,,,,,,,,,,,,,,,,,,,,,,,,,,,,,,,,,,,,,,,,,,,,,,,,,,,,
,,,,,,,,,,,,,,1,001,2025-02-14_20h11.33.675,IAT(Formal),2021.2.3,Win32,70.42253521,,,e,1,0.7015,0,18,18,6,1,正直,e,,,,,,,,,,,,,,,,,,,,,,,,,,,,,,,,,,,,,,,,,,,,,,,,,,,,,
,,,,,,,,,,,,,,1,001,2025-02-14_20h11.33.675,IAT(Formal),2021.2.3,Win32,70.42253521,,,e,1,0.8097,0,19,19,7,1,勇敢,e,,,,,,,,,,,,,,,,,,,,,,,,,,,,,,,,,,,,,,,,,,,,,,,,,,,,,
,,,,,,,,,,,,,,1,001,2025-02-14_20h11.33.675,IAT(Formal),2021.2.3,Win32,70.42253521,,,i,1,0.7547,0,20,20,32,1,凶狠,i,,,,,,,,,,,,,,,,,,,,,,,,,,,,,,,,,,,,,,,,,,,,,,,,,,,,,
,,,,,,,,,,,,,,1,001,2025-02-14_20h11.33.675,IAT(Formal),2021.2.3,Win32,70.42253521,,,i,1,0.9828,0,21,21,37,1,固执,i,,,,,,,,,,,,,,,,,,,,,,,,,,,,,,,,,,,,,,,,,,,,,,,,,,,,,
,,,,,,,,,,,,,,1,001,2025-02-14_20h11.33.675,IAT(Formal),2021.2.3,Win32,70.42253521,,,e,1,0.8643,0,22,22,9,1,机智,e,,,,,,,,,,,,,,,,,,,,,,,,,,,,,,,,,,,,,,,,,,,,,,,,,,,,,
,,,,,,,,,,,,,,1,001,2025-02-14_20h11.33.675,IAT(Formal),2021.2.3,Win32,70.42253521,,,e,1,0.8005,0,23,23,1,1,崇高,e,,,,,,,,,,,,,,,,,,,,,,,,,,,,,,,,,,,,,,,,,,,,,,,,,,,,,
,,,,,,,,,,,,,,1,001,2025-02-14_20h11.33.675,IAT(Formal),2021.2.3,Win32,70.42253521,,,i,1,0.7728,0,24,24,34,1,暴躁,i,,,,,,,,,,,,,,,,,,,,,,,,,,,,,,,,,,,,,,,,,,,,,,,,,,,,,
,,,,,,,,,,,,,,1,001,2025-02-14_20h11.33.675,IAT(Formal),2021.2.3,Win32,70.42253521,,,i,1,0.7355,0,25,25,20,1,卑鄙,i,,,,,,,,,,,,,,,,,,,,,,,,,,,,,,,,,,,,,,,,,,,,,,,,,,,,,
,,,,,,,,,,,,,,1,001,2025-02-14_20h11.33.675,IAT(Formal),2021.2.3,Win32,70.42253521,,,i,1,0.8439,0,26,26,38,1,轻率,i,,,,,,,,,,,,,,,,,,,,,,,,,,,,,,,,,,,,,,,,,,,,,,,,,,,,,
,,,,,,,,,,,,,,1,001,2025-02-14_20h11.33.675,IAT(Formal),2021.2.3,Win32,70.42253521,,,i,1,0.8532,0,27,27,25,1,消极,i,,,,,,,,,,,,,,,,,,,,,,,,,,,,,,,,,,,,,,,,,,,,,,,,,,,,,
,,,,,,,,,,,,,,1,001,2025-02-14_20h11.33.675,IAT(Formal),2021.2.3,Win32,70.42253521,,,i,1,0.6461,0,28,28,23,1,刻薄,i,,,,,,,,,,,,,,,,,,,,,,,,,,,,,,,,,,,,,,,,,,,,,,,,,,,,,
,,,,,,,,,,,,,,1,001,2025-02-14_20h11.33.675,IAT(Formal),2021.2.3,Win32,70.42253521,,,i,1,0.7478,0,29,29,26,1,自卑,i,,,,,,,,,,,,,,,,,,,,,,,,,,,,,,,,,,,,,,,,,,,,,,,,,,,,,
,,,,,,,,,,,,,,1,001,2025-02-14_20h11.33.675,IAT(Formal),2021.2.3,Win32,70.42253521,,,e,1,0.651,0,30,30,18,1,活泼,e,,,,,,,,,,,,,,,,,,,,,,,,,,,,,,,,,,,,,,,,,,,,,,,,,,,,,
,,,,,,,,,,,,,,1,001,2025-02-14_20h11.33.675,IAT(Formal),2021.2.3,Win32,70.42253521,,,i,1,0.7188,0,31,31,28,1,鲁莽,i,,,,,,,,,,,,,,,,,,,,,,,,,,,,,,,,,,,,,,,,,,,,,,,,,,,,,
,,,,,,,,,,,,,,1,001,2025-02-14_20h11.33.675,IAT(Formal),2021.2.3,Win32,70.42253521,,,i,1,0.8128,0,32,32,22,1,愚蠢,i,,,,,,,,,,,,,,,,,,,,,,,,,,,,,,,,,,,,,,,,,,,,,,,,,,,,,
,,,,,,,,,,,,,,1,001,2025-02-14_20h11.33.675,IAT(Formal),2021.2.3,Win32,70.42253521,,,e,1,0.6843,0,33,33,8,1,勤奋,e,,,,,,,,,,,,,,,,,,,,,,,,,,,,,,,,,,,,,,,,,,,,,,,,,,,,,
,,,,,,,,,,,,,,1,001,2025-02-14_20h11.33.675,IAT(Formal),2021.2.3,Win32,70.42253521,,,e,1,0.7092,0,34,34,0,1,优秀,e,,,,,,,,,,,,,,,,,,,,,,,,,,,,,,,,,,,,,,,,,,,,,,,,,,,,,
,,,,,,,,,,,,,,1,001,2025-02-14_20h11.33.675,IAT(Formal),2021.2.3,Win32,70.42253521,,,e,1,0.5744,0,35,35,17,1,热情,e,,,,,,,,,,,,,,,,,,,,,,,,,,,,,,,,,,,,,,,,,,,,,,,,,,,,,
,,,,,,,,,,,,,,1,001,2025-02-14_20h11.33.675,IAT(Formal),2021.2.3,Win32,70.42253521,,,e,1,0.5813,0,36,36,5,1,诚实,e,,,,,,,,,,,,,,,,,,,,,,,,,,,,,,,,,,,,,,,,,,,,,,,,,,,,,
,,,,,,,,,,,,,,1,001,2025-02-14_20h11.33.675,IAT(Formal),2021.2.3,Win32,70.42253521,,,i,1,0.7012,0,37,37,36,1,野蛮,i,,,,,,,,,,,,,,,,,,,,,,,,,,,,,,,,,,,,,,,,,,,,,,,,,,,,,
,,,,,,,,,,,,,,1,001,2025-02-14_20h11.33.675,IAT(Formal),2021.2.3,Win32,70.42253521,,,i,1,0.8089,0,38,38,33,1,自私,i,,,,,,,,,,,,,,,,,,,,,,,,,,,,,,,,,,,,,,,,,,,,,,,,,,,,,
,,,,,,,,,,,,,,1,001,2025-02-14_20h11.33.675,IAT(Formal),2021.2.3,Win32,70.42253521,,,i,1,0.8738,0,39,39,31,1,散漫,i,,,,,,,,,,,,,,,,,,,,,,,,,,,,,,,,,,,,,,,,,,,,,,,,,,,,,
,,,,,,,,,,,,,,1,001,2025-02-14_20h11.33.675,IAT(Formal),2021.2.3,Win32,70.42253521,,,,,,,,,,,,,space,9.2683,e,1,1.0422,0,0,0,20,1,认真,e,,,,,,,,,,,,,,,,,,,,,,,,,,,,,,,,,,,,,,,,,
,,,,,,,,,,,,,,1,001,2025-02-14_20h11.33.675,IAT(Formal),2021.2.3,Win32,70.42253521,,,,,,,,,,,,,,,e,1,0.8057,0,1,1,74,1,俺,e,,,,,,,,,,,,,,,,,,,,,,,,,,,,,,,,,,,,,,,,,
,,,,,,,,,,,,,,1,001,2025-02-14_20h11.33.675,IAT(Formal),2021.2.3,Win32,70.42253521,,,,,,,,,,,,,,,e,1,0.6966,0,2,2,18,1,勤奋,e,,,,,,,,,,,,,,,,,,,,,,,,,,,,,,,,,,,,,,,,,
,,,,,,,,,,,,,,1,001,2025-02-14_20h11.33.675,IAT(Formal),2021.2.3,Win32,70.42253521,,,,,,,,,,,,,,,e,1,0.6077,0,3,3,60,1,我,e,,,,,,,,,,,,,,,,,,,,,,,,,,,,,,,,,,,,,,,,,
,,,,,,,,,,,,,,1,001,2025-02-14_20h11.33.675,IAT(Formal),2021.2.3,Win32,70.42253521,,,,,,,,,,,,,,,e,1,0.6667,0,4,4,16,1,正直,e,,,,,,,,,,,,,,,,,,,,,,,,,,,,,,,,,,,,,,,,,
,,,,,,,,,,,,,,1,001,2025-02-14_20h11.33.675,IAT(Formal),2021.2.3,Win32,70.42253521,,,,,,,,,,,,,,,e,1,0.6117,0,5,5,15,1,诚实,e,,,,,,,,,,,,,,,,,,,,,,,,,,,,,,,,,,,,,,,,,
,,,,,,,,,,,,,,1,001,2025-02-14_20h11.33.675,IAT(Formal),2021.2.3,Win32,70.42253521,,,,,,,,,,,,,,,e,1,0.4966,0,6,6,70,1,我,e,,,,,,,,,,,,,,,,,,,,,,,,,,,,,,,,,,,,,,,,,
,,,,,,,,,,,,,,1,001,2025-02-14_20h11.33.675,IAT(Formal),2021.2.3,Win32,70.42253521,,,,,,,,,,,,,,,i,1,0.6163,0,7,7,41,1,散漫,i,,,,,,,,,,,,,,,,,,,,,,,,,,,,,,,,,,,,,,,,,
,,,,,,,,,,,,,,1,001,2025-02-14_20h11.33.675,IAT(Formal),2021.2.3,Win32,70.42253521,,,,,,,,,,,,,,,i,1,0.4246,0,8,8,68,1,他人,i,,,,,,,,,,,,,,,,,,,,,,,,,,,,,,,,,,,,,,,,,
,,,,,,,,,,,,,,1,001,2025-02-14_20h11.33.675,IAT(Formal),2021.2.3,Win32,70.42253521,,,,,,,,,,,,,,,e,1,0.586,0,9,9,73,1,自己,e,,,,,,,,,,,,,,,,,,,,,,,,,,,,,,,,,,,,,,,,,
,,,,,,,,,,,,,,1,001,2025-02-14_20h11.33.675,IAT(Formal),2021.2.3,Win32,70.42253521,,,,,,,,,,,,,,,i,1,0.624,0,10,10,45,1,猖狂,i,,,,,,,,,,,,,,,,,,,,,,,,,,,,,,,,,,,,,,,,,
,,,,,,,,,,,,,,1,001,2025-02-14_20h11.33.675,IAT(Formal),2021.2.3,Win32,70.42253521,,,,,,,,,,,,,,,i,1,0.5407,0,11,11,67,1,他的,i,,,,,,,,,,,,,,,,,,,,,,,,,,,,,,,,,,,,,,,,,
,,,,,,,,,,,,,,1,001,2025-02-14_20h11.33.675,IAT(Formal),2021.2.3,Win32,70.42253521,,,,,,,,,,,,,,,e,1,0.5774,0,12,12,26,1,冷静,e,,,,,,,,,,,,,,,,,,,,,,,,,,,,,,,,,,,,,,,,,
,,,,,,,,,,,,,,1,001,2025-02-14_20h11.33.675,IAT(Formal),2021.2.3,Win32,70.42253521,,,,,,,,,,,,,,,e,1,0.5997,0,13,13,13,1,杰出,e,,,,,,,,,,,,,,,,,,,,,,,,,,,,,,,,,,,,,,,,,
,,,,,,,,,,,,,,1,001,2025-02-14_20h11.33.675,IAT(Formal),2021.2.3,Win32,70.42253521,,,,,,,,,,,,,,,i,1,0.4978,0,14,14,38,1,鲁莽,i,,,,,,,,,,,,,,,,,,,,,,,,,,,,,,,,,,,,,,,,,
,,,,,,,,,,,,,,1,001,2025-02-14_20h11.33.675,IAT(Formal),2021.2.3,Win32,70.42253521,,,,,,,,,,,,,,,e,1,0.501,0,15,15,0,1,我,e,,,,,,,,,,,,,,,,,,,,,,,,,,,,,,,,,,,,,,,,,
,,,,,,,,,,,,,,1,001,2025-02-14_20h11.33.675,IAT(Formal),2021.2.3,Win32,70.42253521,,,,,,,,,,,,,,,e,1,0.6684,0,16,16,64,1,俺,e,,,,,,,,,,,,,,,,,,,,,,,,,,,,,,,,,,,,,,,,,
,,,,,,,,,,,,,,1,001,2025-02-14_20h11.33.675,IAT(Formal),2021.2.3,Win32,70.42253521,,,,,,,,,,,,,,,i,1,0.5687,0,17,17,40,1,执拗,i,,,,,,,,,,,,,,,,,,,,,,,,,,,,,,,,,,,,,,,,,
,,,,,,,,,,,,,,1,001,2025-02-14_20h11.33.675,IAT(Formal),2021.2.3,Win32,70.42253521,,,,,,,,,,,,,,,i,1,0.5351,0,18,18,44,1,暴躁,i,,,,,,,,,,,,,,,,,,,,,,,,,,,,,,,,,,,,,,,,,
,,,,,,,,,,,,,,1,001,2025-02-14_20h11.33.675,IAT(Formal),2021.2.3,Win32,70.42253521,,,,,,,,,,,,,,,e,1,0.7116,0,19,19,50,1,我,e,,,,,,,,,,,,,,,,,,,,,,,,,,,,,,,,,,,,,,,,,
,,,,,,,,,,,,,,1,001,2025-02-14_20h11.33.675,IAT(Formal),2021.2.3,Win32,70.42253521,,,,,,,,,,,,,,,i,1,1.1565,0,20,20,43,1,自私,i,,,,,,,,,,,,,,,,,,,,,,,,,,,,,,,,,,,,,,,,,
,,,,,,,,,,,,,,1,001,2025-02-14_20h11.33.675,IAT(Formal),2021.2.3,Win32,70.42253521,,,,,,,,,,,,,,,i,1,0.6407,0,21,21,34,1,悲观,i,,,,,,,,,,,,,,,,,,,,,,,,,,,,,,,,,,,,,,,,,
,,,,,,,,,,,,,,1,001,2025-02-14_20h11.33.675,IAT(Formal),2021.2.3,Win32,70.42253521,,,,,,,,,,,,,,,i,1,0.5131,0,22,22,48,1,轻率,i,,,,,,,,,,,,,,,,,,,,,,,,,,,,,,,,,,,,,,,,,
,,,,,,,,,,,,,,1,001,2025-02-14_20h11.33.675,IAT(Formal),2021.2.3,Win32,70.42253521,,,,,,,,,,,,,,,e,1,0.6135,0,23,23,27,1,热情,e,,,,,,,,,,,,,,,,,,,,,,,,,,,,,,,,,,,,,,,,,
,,,,,,,,,,,,,,1,001,2025-02-14_20h11.33.675,IAT(Formal),2021.2.3,Win32,70.42253521,,,,,,,,,,,,,,,e,1,0.8595,0,24,24,21,1,稳重,e,,,,,,,,,,,,,,,,,,,,,,,,,,,,,,,,,,,,,,,,,
,,,,,,,,,,,,,,1,001,2025-02-14_20h11.33.675,IAT(Formal),2021.2.3,Win32,70.42253521,,,,,,,,,,,,,,,e,1,0.7391,0,25,25,2,1,我们,e,,,,,,,,,,,,,,,,,,,,,,,,,,,,,,,,,,,,,,,,,
,,,,,,,,,,,,,,1,001,2025-02-14_20h11.33.675,IAT(Formal),2021.2.3,Win32,70.42253521,,,,,,,,,,,,,,,i,1,0.7838,0,26,26,35,1,消极,i,,,,,,,,,,,,,,,,,,,,,,,,,,,,,,,,,,,,,,,,,
,,,,,,,,,,,,,,1,001,2025-02-14_20h11.33.675,IAT(Formal),2021.2.3,Win32,70.42253521,,,,,,,,,,,,,,,e,1,1.1782,0,27,27,22,1,无私,e,,,,,,,,,,,,,,,,,,,,,,,,,,,,,,,,,,,,,,,,,
,,,,,,,,,,,,,,1,001,2025-02-14_20h11.33.675,IAT(Formal),2021.2.3,Win32,70.42253521,,,,,,,,,,,,,,,e,1,0.6399,0,28,28,72,1,我们,e,,,,,,,,,,,,,,,,,,,,,,,,,,,,,,,,,,,,,,,,,
,,,,,,,,,,,,,,1,001,2025-02-14_20h11.33.675,IAT(Formal),2021.2.3,Win32,70.42253521,,,,,,,,,,,,,,,e,1,0.5098,0,29,29,53,1,自己,e,,,,,,,,,,,,,,,,,,,,,,,,,,,,,,,,,,,,,,,,,
,,,,,,,,,,,,,,1,001,2025-02-14_20h11.33.675,IAT(Formal),2021.2.3,Win32,70.42253521,,,,,,,,,,,,,,,e,1,0.4379,0,30,30,51,1,我的,e,,,,,,,,,,,,,,,,,,,,,,,,,,,,,,,,,,,,,,,,,
,,,,,,,,,,,,,,1,001,2025-02-14_20h11.33.675,IAT(Formal),2021.2.3,Win32,70.42253521,,,,,,,,,,,,,,,e,1,0.4037,0,31,31,71,1,我的,e,,,,,,,,,,,,,,,,,,,,,,,,,,,,,,,,,,,,,,,,,
,,,,,,,,,,,,,,1,001,2025-02-14_20h11.33.675,IAT(Formal),2021.2.3,Win32,70.42253521,,,,,,,,,,,,,,,i,1,0.5765,0,32,32,7,1,他的,i,,,,,,,,,,,,,,,,,,,,,,,,,,,,,,,,,,,,,,,,,
,,,,,,,,,,,,,,1,001,2025-02-14_20h11.33.675,IAT(Formal),2021.2.3,Win32,70.42253521,,,,,,,,,,,,,,,i,1,0.4472,0,33,33,76,1,他们,i,,,,,,,,,,,,,,,,,,,,,,,,,,,,,,,,,,,,,,,,,
,,,,,,,,,,,,,,1,001,2025-02-14_20h11.33.675,IAT(Formal),2021.2.3,Win32,70.42253521,,,,,,,,,,,,,,,e,1,0.5581,0,34,34,52,1,我们,e,,,,,,,,,,,,,,,,,,,,,,,,,,,,,,,,,,,,,,,,,
,,,,,,,,,,,,,,1,001,2025-02-14_20h11.33.675,IAT(Formal),2021.2.3,Win32,70.42253521,,,,,,,,,,,,,,,e,1,0.4911,0,35,35,62,1,我们,e,,,,,,,,,,,,,,,,,,,,,,,,,,,,,,,,,,,,,,,,,
,,,,,,,,,,,,,,1,001,2025-02-14_20h11.33.675,IAT(Formal),2021.2.3,Win32,70.42253521,,,,,,,,,,,,,,,e,1,0.3566,0,36,36,1,1,我的,e,,,,,,,,,,,,,,,,,,,,,,,,,,,,,,,,,,,,,,,,,
,,,,,,,,,,,,,,1,001,2025-02-14_20h11.33.675,IAT(Formal),2021.2.3,Win32,70.42253521,,,,,,,,,,,,,,,i,1,0.5118,0,37,37,32,1,愚蠢,i,,,,,,,,,,,,,,,,,,,,,,,,,,,,,,,,,,,,,,,,,
,,,,,,,,,,,,,,1,001,2025-02-14_20h11.33.675,IAT(Formal),2021.2.3,Win32,70.42253521,,,,,,,,,,,,,,,i,1,0.6142,0,38,38,75,1,他,i,,,,,,,,,,,,,,,,,,,,,,,,,,,,,,,,,,,,,,,,,
,,,,,,,,,,,,,,1,001,2025-02-14_20h11.33.675,IAT(Formal),2021.2.3,Win32,70.42253521,,,,,,,,,,,,,,,e,1,0.5757,0,39,39,3,1,自己,e,,,,,,,,,,,,,,,,,,,,,,,,,,,,,,,,,,,,,,,,,
,,,,,,,,,,,,,,1,001,2025-02-14_20h11.33.675,IAT(Formal),2021.2.3,Win32,70.42253521,,,,,,,,,,,,,,,i,1,0.5206,0,40,40,49,1,下贱,i,,,,,,,,,,,,,,,,,,,,,,,,,,,,,,,,,,,,,,,,,
,,,,,,,,,,,,,,1,001,2025-02-14_20h11.33.675,IAT(Formal),2021.2.3,Win32,70.42253521,,,,,,,,,,,,,,,i,1,0.4601,0,41,41,56,1,他们,i,,,,,,,,,,,,,,,,,,,,,,,,,,,,,,,,,,,,,,,,,
,,,,,,,,,,,,,,1,001,2025-02-14_20h11.33.675,IAT(Formal),2021.2.3,Win32,70.42253521,,,,,,,,,,,,,,,e,1,0.5367,0,42,42,12,1,聪明,e,,,,,,,,,,,,,,,,,,,,,,,,,,,,,,,,,,,,,,,,,
,,,,,,,,,,,,,,1,001,2025-02-14_20h11.33.675,IAT(Formal),2021.2.3,Win32,70.42253521,,,,,,,,,,,,,,,i,1,0.6047,0,43,43,46,1,野蛮,i,,,,,,,,,,,,,,,,,,,,,,,,,,,,,,,,,,,,,,,,,
,,,,,,,,,,,,,,1,001,2025-02-14_20h11.33.675,IAT(Formal),2021.2.3,Win32,70.42253521,,,,,,,,,,,,,,,i,1,0.4841,0,44,44,9,1,其他,i,,,,,,,,,,,,,,,,,,,,,,,,,,,,,,,,,,,,,,,,,
,,,,,,,,,,,,,,1,001,2025-02-14_20h11.33.675,IAT(Formal),2021.2.3,Win32,70.42253521,,,,,,,,,,,,,,,i,1,0.4671,0,45,45,58,1,他人,i,,,,,,,,,,,,,,,,,,,,,,,,,,,,,,,,,,,,,,,,,
,,,,,,,,,,,,,,1,001,2025-02-14_20h11.33.675,IAT(Formal),2021.2.3,Win32,70.42253521,,,,,,,,,,,,,,,e,1,0.6749,0,46,46,24,1,朴实,e,,,,,,,,,,,,,,,,,,,,,,,,,,,,,,,,,,,,,,,,,
,,,,,,,,,,,,,,1,001,2025-02-14_20h11.33.675,IAT(Formal),2021.2.3,Win32,70.42253521,,,,,,,,,,,,,,,e,1,0.6198,0,47,47,19,1,机智,e,,,,,,,,,,,,,,,,,,,,,,,,,,,,,,,,,,,,,,,,,
,,,,,,,,,,,,,,1,001,2025-02-14_20h11.33.675,IAT(Formal),2021.2.3,Win32,70.42253521,,,,,,,,,,,,,,,e,1,0.6195,0,48,48,23,1,公正,e,,,,,,,,,,,,,,,,,,,,,,,,,,,,,,,,,,,,,,,,,
,,,,,,,,,,,,,,1,001,2025-02-14_20h11.33.675,IAT(Formal),2021.2.3,Win32,70.42253521,,,,,,,,,,,,,,,e,1,0.6186,0,49,49,25,1,细腻,e,,,,,,,,,,,,,,,,,,,,,,,,,,,,,,,,,,,,,,,,,
,,,,,,,,,,,,,,1,001,2025-02-14_20h11.33.675,IAT(Formal),2021.2.3,Win32,70.42253521,,,,,,,,,,,,,,,i,1,0.571,0,50,50,66,1,他们,i,,,,,,,,,,,,,,,,,,,,,,,,,,,,,,,,,,,,,,,,,
,,,,,,,,,,,,,,1,001,2025-02-14_20h11.33.675,IAT(Formal),2021.2.3,Win32,70.42253521,,,,,,,,,,,,,,,i,1,0.4065,0,51,51,8,1,他人,i,,,,,,,,,,,,,,,,,,,,,,,,,,,,,,,,,,,,,,,,,
,,,,,,,,,,,,,,1,001,2025-02-14_20h11.33.675,IAT(Formal),2021.2.3,Win32,70.42253521,,,,,,,,,,,,,,,i,1,0.4191,0,52,52,55,1,他,i,,,,,,,,,,,,,,,,,,,,,,,,,,,,,,,,,,,,,,,,,
,,,,,,,,,,,,,,1,001,2025-02-14_20h11.33.675,IAT(Formal),2021.2.3,Win32,70.42253521,,,,,,,,,,,,,,,i,1,0.4264,0,53,53,59,1,其他,i,,,,,,,,,,,,,,,,,,,,,,,,,,,,,,,,,,,,,,,,,
,,,,,,,,,,,,,,1,001,2025-02-14_20h11.33.675,IAT(Formal),2021.2.3,Win32,70.42253521,,,,,,,,,,,,,,,e,1,0.582,0,54,54,10,1,优秀,e,,,,,,,,,,,,,,,,,,,,,,,,,,,,,,,,,,,,,,,,,
,,,,,,,,,,,,,,1,001,2025-02-14_20h11.33.675,IAT(Formal),2021.2.3,Win32,70.42253521,,,,,,,,,,,,,,,e,1,0.4849,0,55,55,28,1,活泼,e,,,,,,,,,,,,,,,,,,,,,,,,,,,,,,,,,,,,,,,,,
,,,,,,,,,,,,,,1,001,2025-02-14_20h11.33.675,IAT(Formal),2021.2.3,Win32,70.42253521,,,,,,,,,,,,,,,i,1,0.6186,0,56,56,36,1,自卑,i,,,,,,,,,,,,,,,,,,,,,,,,,,,,,,,,,,,,,,,,,
,,,,,,,,,,,,,,1,001,2025-02-14_20h11.33.675,IAT(Formal),2021.2.3,Win32,70.42253521,,,,,,,,,,,,,,,e,0,0.432,0,57,57,78,1,他人,i,,,,,,,,,,,,,,,,,,,,,,,,,,,,,,,,,,,,,,,,,
,,,,,,,,,,,,,,1,001,2025-02-14_20h11.33.675,IAT(Formal),2021.2.3,Win32,70.42253521,,,,,,,,,,,,,,,e,1,0.7031,0,58,58,29,1,诚恳,e,,,,,,,,,,,,,,,,,,,,,,,,,,,,,,,,,,,,,,,,,
,,,,,,,,,,,,,,1,001,2025-02-14_20h11.33.675,IAT(Formal),2021.2.3,Win32,70.42253521,,,,,,,,,,,,,,,e,1,0.5987,0,59,59,17,1,勇敢,e,,,,,,,,,,,,,,,,,,,,,,,,,,,,,,,,,,,,,,,,,
,,,,,,,,,,,,,,1,001,2025-02-14_20h11.33.675,IAT(Formal),2021.2.3,Win32,70.42253521,,,,,,,,,,,,,,,i,1,0.7977,0,60,60,39,1,冒失,i,,,,,,,,,,,,,,,,,,,,,,,,,,,,,,,,,,,,,,,,,
,,,,,,,,,,,,,,1,001,2025-02-14_20h11.33.675,IAT(Formal),2021.2.3,Win32,70.42253521,,,,,,,,,,,,,,,i,1,0.6778,0,61,61,57,1,他的,i,,,,,,,,,,,,,,,,,,,,,,,,,,,,,,,,,,,,,,,,,
,,,,,,,,,,,,,,1,001,2025-02-14_20h11.33.675,IAT(Formal),2021.2.3,Win32,70.42253521,,,,,,,,,,,,,,,i,1,0.4602,0,62,62,79,1,其他,i,,,,,,,,,,,,,,,,,,,,,,,,,,,,,,,,,,,,,,,,,
,,,,,,,,,,,,,,1,001,2025-02-14_20h11.33.675,IAT(Formal),2021.2.3,Win32,70.42253521,,,,,,,,,,,,,,,i,1,0.44,0,63,63,77,1,他的,i,,,,,,,,,,,,,,,,,,,,,,,,,,,,,,,,,,,,,,,,,
,,,,,,,,,,,,,,1,001,2025-02-14_20h11.33.675,IAT(Formal),2021.2.3,Win32,70.42253521,,,,,,,,,,,,,,,e,1,0.6869,0,64,64,14,1,乐观,e,,,,,,,,,,,,,,,,,,,,,,,,,,,,,,,,,,,,,,,,,
,,,,,,,,,,,,,,1,001,2025-02-14_20h11.33.675,IAT(Formal),2021.2.3,Win32,70.42253521,,,,,,,,,,,,,,,i,1,0.6789,0,65,65,42,1,凶狠,i,,,,,,,,,,,,,,,,,,,,,,,,,,,,,,,,,,,,,,,,,
,,,,,,,,,,,,,,1,001,2025-02-14_20h11.33.675,IAT(Formal),2021.2.3,Win32,70.42253521,,,,,,,,,,,,,,,e,1,1.0079,0,66,66,4,1,俺,e,,,,,,,,,,,,,,,,,,,,,,,,,,,,,,,,,,,,,,,,,
,,,,,,,,,,,,,,1,001,2025-02-14_20h11.33.675,IAT(Formal),2021.2.3,Win32,70.42253521,,,,,,,,,,,,,,,e,1,0.4931,0,67,67,61,1,我的,e,,,,,,,,,,,,,,,,,,,,,,,,,,,,,,,,,,,,,,,,,
,,,,,,,,,,,,,,1,001,2025-02-14_20h11.33.675,IAT(Formal),2021.2.3,Win32,70.42253521,,,,,,,,,,,,,,,i,1,0.5265,0,68,68,6,1,他们,i,,,,,,,,,,,,,,,,,,,,,,,,,,,,,,,,,,,,,,,,,
,,,,,,,,,,,,,,1,001,2025-02-14_20h11.33.675,IAT(Formal),2021.2.3,Win32,70.42253521,,,,,,,,,,,,,,,i,1,0.82,0,69,69,37,1,傲慢,i,,,,,,,,,,,,,,,,,,,,,,,,,,,,,,,,,,,,,,,,,
,,,,,,,,,,,,,,1,001,2025-02-14_20h11.33.675,IAT(Formal),2021.2.3,Win32,70.42253521,,,,,,,,,,,,,,,i,1,0.5703,0,70,70,30,1,卑鄙,i,,,,,,,,,,,,,,,,,,,,,,,,,,,,,,,,,,,,,,,,,
,,,,,,,,,,,,,,1,001,2025-02-14_20h11.33.675,IAT(Formal),2021.2.3,Win32,70.42253521,,,,,,,,,,,,,,,i,1,0.5016,0,71,71,5,1,他,i,,,,,,,,,,,,,,,,,,,,,,,,,,,,,,,,,,,,,,,,,
,,,,,,,,,,,,,,1,001,2025-02-14_20h11.33.675,IAT(Formal),2021.2.3,Win32,70.42253521,,,,,,,,,,,,,,,i,1,0.5969,0,72,72,33,1,刻薄,i,,,,,,,,,,,,,,,,,,,,,,,,,,,,,,,,,,,,,,,,,
,,,,,,,,,,,,,,1,001,2025-02-14_20h11.33.675,IAT(Formal),2021.2.3,Win32,70.42253521,,,,,,,,,,,,,,,i,0,0.4734,0,73,73,54,1,俺,e,,,,,,,,,,,,,,,,,,,,,,,,,,,,,,,,,,,,,,,,,
,,,,,,,,,,,,,,1,001,2025-02-14_20h11.33.675,IAT(Formal),2021.2.3,Win32,70.42253521,,,,,,,,,,,,,,,i,1,0.599,0,74,74,31,1,虚伪,i,,,,,,,,,,,,,,,,,,,,,,,,,,,,,,,,,,,,,,,,,
,,,,,,,,,,,,,,1,001,2025-02-14_20h11.33.675,IAT(Formal),2021.2.3,Win32,70.42253521,,,,,,,,,,,,,,,i,1,0.61,0,75,75,47,1,固执,i,,,,,,,,,,,,,,,,,,,,,,,,,,,,,,,,,,,,,,,,,
,,,,,,,,,,,,,,1,001,2025-02-14_20h11.33.675,IAT(Formal),2021.2.3,Win32,70.42253521,,,,,,,,,,,,,,,e,1,0.6663,0,76,76,11,1,崇高,e,,,,,,,,,,,,,,,,,,,,,,,,,,,,,,,,,,,,,,,,,
,,,,,,,,,,,,,,1,001,2025-02-14_20h11.33.675,IAT(Formal),2021.2.3,Win32,70.42253521,,,,,,,,,,,,,,,i,1,0.6167,0,77,77,69,1,其他,i,,,,,,,,,,,,,,,,,,,,,,,,,,,,,,,,,,,,,,,,,
,,,,,,,,,,,,,,1,001,2025-02-14_20h11.33.675,IAT(Formal),2021.2.3,Win32,70.42253521,,,,,,,,,,,,,,,i,1,0.425,0,78,78,65,1,他,i,,,,,,,,,,,,,,,,,,,,,,,,,,,,,,,,,,,,,,,,,
,,,,,,,,,,,,,,1,001,2025-02-14_20h11.33.675,IAT(Formal),2021.2.3,Win32,70.42253521,,,,,,,,,,,,,,,e,1,0.5576,0,79,79,63,1,自己,e,,,,,,,,,,,,,,,,,,,,,,,,,,,,,,,,,,,,,,,,,
,,,,,,,,,,,,,,1,001,2025-02-14_20h11.33.675,IAT(Formal),2021.2.3,Win32,70.42253521,,,,,,,,,,,,,,,e,1,1.1565,,,,,,俺,e,space,6.4445,0,0,0,64,1,,,,,,,,,,,,,,,,,,,,,,,,,,,,,,,,,,
,,,,,,,,,,,,,,1,001,2025-02-14_20h11.33.675,IAT(Formal),2021.2.3,Win32,70.42253521,,,,,,,,,,,,,,,i,1,0.6329,,,,,,虚伪,i,,,0,1,1,31,1,,,,,,,,,,,,,,,,,,,,,,,,,,,,,,,,,,
,,,,,,,,,,,,,,1,001,2025-02-14_20h11.33.675,IAT(Formal),2021.2.3,Win32,70.42253521,,,,,,,,,,,,,,,e,1,0.5573,,,,,,俺,e,,,0,2,2,74,1,,,,,,,,,,,,,,,,,,,,,,,,,,,,,,,,,,
,,,,,,,,,,,,,,1,001,2025-02-14_20h11.33.675,IAT(Formal),2021.2.3,Win32,70.42253521,,,,,,,,,,,,,,,e,1,0.4803,,,,,,我,e,,,0,3,3,70,1,,,,,,,,,,,,,,,,,,,,,,,,,,,,,,,,,,
,,,,,,,,,,,,,,1,001,2025-02-14_20h11.33.675,IAT(Formal),2021.2.3,Win32,70.42253521,,,,,,,,,,,,,,,i,1,0.6889,,,,,,消极,i,,,0,4,4,35,1,,,,,,,,,,,,,,,,,,,,,,,,,,,,,,,,,,
,,,,,,,,,,,,,,1,001,2025-02-14_20h11.33.675,IAT(Formal),2021.2.3,Win32,70.42253521,,,,,,,,,,,,,,,e,1,0.5065,,,,,,我的,e,,,0,5,5,71,1,,,,,,,,,,,,,,,,,,,,,,,,,,,,,,,,,,
,,,,,,,,,,,,,,1,001,2025-02-14_20h11.33.675,IAT(Formal),2021.2.3,Win32,70.42253521,,,,,,,,,,,,,,,i,1,0.5629,,,,,,执拗,i,,,0,6,6,40,1,,,,,,,,,,,,,,,,,,,,,,,,,,,,,,,,,,
,,,,,,,,,,,,,,1,001,2025-02-14_20h11.33.675,IAT(Formal),2021.2.3,Win32,70.42253521,,,,,,,,,,,,,,,i,1,0.7098,,,,,,他的,i,,,0,7,7,57,1,,,,,,,,,,,,,,,,,,,,,,,,,,,,,,,,,,
,,,,,,,,,,,,,,1,001,2025-02-14_20h11.33.675,IAT(Formal),2021.2.3,Win32,70.42253521,,,,,,,,,,,,,,,e,1,0.5059,,,,,,勤奋,e,,,0,8,8,18,1,,,,,,,,,,,,,,,,,,,,,,,,,,,,,,,,,,
,,,,,,,,,,,,,,1,001,2025-02-14_20h11.33.675,IAT(Formal),2021.2.3,Win32,70.42253521,,,,,,,,,,,,,,,e,1,0.5137,,,,,,热情,e,,,0,9,9,27,1,,,,,,,,,,,,,,,,,,,,,,,,,,,,,,,,,,
,,,,,,,,,,,,,,1,001,2025-02-14_20h11.33.675,IAT(Formal),2021.2.3,Win32,70.42253521,,,,,,,,,,,,,,,e,1,0.6116,,,,,,自己,e,,,0,10,10,53,1,,,,,,,,,,,,,,,,,,,,,,,,,,,,,,,,,,
,,,,,,,,,,,,,,1,001,2025-02-14_20h11.33.675,IAT(Formal),2021.2.3,Win32,70.42253521,,,,,,,,,,,,,,,e,1,0.4695,,,,,,自己,e,,,0,11,11,73,1,,,,,,,,,,,,,,,,,,,,,,,,,,,,,,,,,,
,,,,,,,,,,,,,,1,001,2025-02-14_20h11.33.675,IAT(Formal),2021.2.3,Win32,70.42253521,,,,,,,,,,,,,,,i,1,0.4184,,,,,,其他,i,,,0,12,12,9,1,,,,,,,,,,,,,,,,,,,,,,,,,,,,,,,,,,
,,,,,,,,,,,,,,1,001,2025-02-14_20h11.33.675,IAT(Formal),2021.2.3,Win32,70.42253521,,,,,,,,,,,,,,,i,1,0.6129,,,,,,他们,i,,,0,13,13,76,1,,,,,,,,,,,,,,,,,,,,,,,,,,,,,,,,,,
,,,,,,,,,,,,,,1,001,2025-02-14_20h11.33.675,IAT(Formal),2021.2.3,Win32,70.42253521,,,,,,,,,,,,,,,i,1,0.8355,,,,,,鲁莽,i,,,0,14,14,38,1,,,,,,,,,,,,,,,,,,,,,,,,,,,,,,,,,,
,,,,,,,,,,,,,,1,001,2025-02-14_20h11.33.675,IAT(Formal),2021.2.3,Win32,70.42253521,,,,,,,,,,,,,,,i,1,0.6027,,,,,,散漫,i,,,0,15,15,41,1,,,,,,,,,,,,,,,,,,,,,,,,,,,,,,,,,,
,,,,,,,,,,,,,,1,001,2025-02-14_20h11.33.675,IAT(Formal),2021.2.3,Win32,70.42253521,,,,,,,,,,,,,,,i,1,0.4492,,,,,,凶狠,i,,,0,16,16,42,1,,,,,,,,,,,,,,,,,,,,,,,,,,,,,,,,,,
,,,,,,,,,,,,,,1,001,2025-02-14_20h11.33.675,IAT(Formal),2021.2.3,Win32,70.42253521,,,,,,,,,,,,,,,e,1,0.4782,,,,,,活泼,e,,,0,17,17,28,1,,,,,,,,,,,,,,,,,,,,,,,,,,,,,,,,,,
,,,,,,,,,,,,,,1,001,2025-02-14_20h11.33.675,IAT(Formal),2021.2.3,Win32,70.42253521,,,,,,,,,,,,,,,e,1,0.5223,,,,,,公正,e,,,0,18,18,23,1,,,,,,,,,,,,,,,,,,,,,,,,,,,,,,,,,,
,,,,,,,,,,,,,,1,001,2025-02-14_20h11.33.675,IAT(Formal),2021.2.3,Win32,70.42253521,,,,,,,,,,,,,,,e,1,0.6815,,,,,,俺,e,,,0,19,19,54,1,,,,,,,,,,,,,,,,,,,,,,,,,,,,,,,,,,
,,,,,,,,,,,,,,1,001,2025-02-14_20h11.33.675,IAT(Formal),2021.2.3,Win32,70.42253521,,,,,,,,,,,,,,,i,1,0.5153,,,,,,他,i,,,0,20,20,55,1,,,,,,,,,,,,,,,,,,,,,,,,,,,,,,,,,,
,,,,,,,,,,,,,,1,001,2025-02-14_20h11.33.675,IAT(Formal),2021.2.3,Win32,70.42253521,,,,,,,,,,,,,,,e,0,0.8281,,,,,,固执,i,,,0,21,21,47,1,,,,,,,,,,,,,,,,,,,,,,,,,,,,,,,,,,
,,,,,,,,,,,,,,1,001,2025-02-14_20h11.33.675,IAT(Formal),2021.2.3,Win32,70.42253521,,,,,,,,,,,,,,,i,1,0.6479,,,,,,其他,i,,,0,22,22,59,1,,,,,,,,,,,,,,,,,,,,,,,,,,,,,,,,,,
,,,,,,,,,,,,,,1,001,2025-02-14_20h11.33.675,IAT(Formal),2021.2.3,Win32,70.42253521,,,,,,,,,,,,,,,e,1,0.5792,,,,,,我的,e,,,0,23,23,1,1,,,,,,,,,,,,,,,,,,,,,,,,,,,,,,,,,,
,,,,,,,,,,,,,,1,001,2025-02-14_20h11.33.675,IAT(Formal),2021.2.3,Win32,70.42253521,,,,,,,,,,,,,,,e,1,0.4595,,,,,,我,e,,,0,24,24,0,1,,,,,,,,,,,,,,,,,,,,,,,,,,,,,,,,,,
,,,,,,,,,,,,,,1,001,2025-02-14_20h11.33.675,IAT(Formal),2021.2.3,Win32,70.42253521,,,,,,,,,,,,,,,e,1,0.6336,,,,,,勇敢,e,,,0,25,25,17,1,,,,,,,,,,,,,,,,,,,,,,,,,,,,,,,,,,
,,,,,,,,,,,,,,1,001,2025-02-14_20h11.33.675,IAT(Formal),2021.2.3,Win32,70.42253521,,,,,,,,,,,,,,,i,1,0.4999,,,,,,其他,i,,,0,26,26,69,1,,,,,,,,,,,,,,,,,,,,,,,,,,,,,,,,,,
,,,,,,,,,,,,,,1,001,2025-02-14_20h11.33.675,IAT(Formal),2021.2.3,Win32,70.42253521,,,,,,,,,,,,,,,e,1,0.6333,,,,,,诚实,e,,,0,27,27,15,1,,,,,,,,,,,,,,,,,,,,,,,,,,,,,,,,,,
,,,,,,,,,,,,,,1,001,2025-02-14_20h11.33.675,IAT(Formal),2021.2.3,Win32,70.42253521,,,,,,,,,,,,,,,i,1,0.6039,,,,,,卑鄙,i,,,0,28,28,30,1,,,,,,,,,,,,,,,,,,,,,,,,,,,,,,,,,,
,,,,,,,,,,,,,,1,001,2025-02-14_20h11.33.675,IAT(Formal),2021.2.3,Win32,70.42253521,,,,,,,,,,,,,,,e,1,0.8122,,,,,,细腻,e,,,0,29,29,25,1,,,,,,,,,,,,,,,,,,,,,,,,,,,,,,,,,,
,,,,,,,,,,,,,,1,001,2025-02-14_20h11.33.675,IAT(Formal),2021.2.3,Win32,70.42253521,,,,,,,,,,,,,,,i,1,1.0919,,,,,,猖狂,i,,,0,30,30,45,1,,,,,,,,,,,,,,,,,,,,,,,,,,,,,,,,,,
,,,,,,,,,,,,,,1,001,2025-02-14_20h11.33.675,IAT(Formal),2021.2.3,Win32,70.42253521,,,,,,,,,,,,,,,i,1,0.5353,,,,,,下贱,i,,,0,31,31,49,1,,,,,,,,,,,,,,,,,,,,,,,,,,,,,,,,,,
,,,,,,,,,,,,,,1,001,2025-02-14_20h11.33.675,IAT(Formal),2021.2.3,Win32,70.42253521,,,,,,,,,,,,,,,e,1,0.4456,,,,,,我们,e,,,0,32,32,52,1,,,,,,,,,,,,,,,,,,,,,,,,,,,,,,,,,,
,,,,,,,,,,,,,,1,001,2025-02-14_20h11.33.675,IAT(Formal),2021.2.3,Win32,70.42253521,,,,,,,,,,,,,,,i,1,0.5268,,,,,,冒失,i,,,0,33,33,39,1,,,,,,,,,,,,,,,,,,,,,,,,,,,,,,,,,,
,,,,,,,,,,,,,,1,001,2025-02-14_20h11.33.675,IAT(Formal),2021.2.3,Win32,70.42253521,,,,,,,,,,,,,,,i,1,0.5135,,,,,,愚蠢,i,,,0,34,34,32,1,,,,,,,,,,,,,,,,,,,,,,,,,,,,,,,,,,
,,,,,,,,,,,,,,1,001,2025-02-14_20h11.33.675,IAT(Formal),2021.2.3,Win32,70.42253521,,,,,,,,,,,,,,,i,1,0.5707,,,,,,他们,i,,,0,35,35,66,1,,,,,,,,,,,,,,,,,,,,,,,,,,,,,,,,,,
,,,,,,,,,,,,,,1,001,2025-02-14_20h11.33.675,IAT(Formal),2021.2.3,Win32,70.42253521,,,,,,,,,,,,,,,e,1,0.4487,,,,,,杰出,e,,,0,36,36,13,1,,,,,,,,,,,,,,,,,,,,,,,,,,,,,,,,,,
,,,,,,,,,,,,,,1,001,2025-02-14_20h11.33.675,IAT(Formal),2021.2.3,Win32,70.42253521,,,,,,,,,,,,,,,e,1,0.3974,,,,,,我的,e,,,0,37,37,61,1,,,,,,,,,,,,,,,,,,,,,,,,,,,,,,,,,,
,,,,,,,,,,,,,,1,001,2025-02-14_20h11.33.675,IAT(Formal),2021.2.3,Win32,70.42253521,,,,,,,,,,,,,,,e,1,0.5709,,,,,,俺,e,,,0,38,38,4,1,,,,,,,,,,,,,,,,,,,,,,,,,,,,,,,,,,
,,,,,,,,,,,,,,1,001,2025-02-14_20h11.33.675,IAT(Formal),2021.2.3,Win32,70.42253521,,,,,,,,,,,,,,,i,1,0.5024,,,,,,他的,i,,,0,39,39,7,1,,,,,,,,,,,,,,,,,,,,,,,,,,,,,,,,,,
,,,,,,,,,,,,,,1,001,2025-02-14_20h11.33.675,IAT(Formal),2021.2.3,Win32,70.42253521,,,,,,,,,,,,,,,i,1,0.3706,,,,,,他,i,,,0,40,40,75,1,,,,,,,,,,,,,,,,,,,,,,,,,,,,,,,,,,
,,,,,,,,,,,,,,1,001,2025-02-14_20h11.33.675,IAT(Formal),2021.2.3,Win32,70.42253521,,,,,,,,,,,,,,,i,1,0.4325,,,,,,他人,i,,,0,41,41,78,1,,,,,,,,,,,,,,,,,,,,,,,,,,,,,,,,,,
,,,,,,,,,,,,,,1,001,2025-02-14_20h11.33.675,IAT(Formal),2021.2.3,Win32,70.42253521,,,,,,,,,,,,,,,i,1,0.4263,,,,,,他们,i,,,0,42,42,56,1,,,,,,,,,,,,,,,,,,,,,,,,,,,,,,,,,,
,,,,,,,,,,,,,,1,001,2025-02-14_20h11.33.675,IAT(Formal),2021.2.3,Win32,70.42253521,,,,,,,,,,,,,,,e,1,0.4922,,,,,,认真,e,,,0,43,43,20,1,,,,,,,,,,,,,,,,,,,,,,,,,,,,,,,,,,
,,,,,,,,,,,,,,1,001,2025-02-14_20h11.33.675,IAT(Formal),2021.2.3,Win32,70.42253521,,,,,,,,,,,,,,,i,1,0.5336,,,,,,暴躁,i,,,0,44,44,44,1,,,,,,,,,,,,,,,,,,,,,,,,,,,,,,,,,,
,,,,,,,,,,,,,,1,001,2025-02-14_20h11.33.675,IAT(Formal),2021.2.3,Win32,70.42253521,,,,,,,,,,,,,,,e,1,0.4816,,,,,,我的,e,,,0,45,45,51,1,,,,,,,,,,,,,,,,,,,,,,,,,,,,,,,,,,
,,,,,,,,,,,,,,1,001,2025-02-14_20h11.33.675,IAT(Formal),2021.2.3,Win32,70.42253521,,,,,,,,,,,,,,,e,1,0.591,,,,,,冷静,e,,,0,46,46,26,1,,,,,,,,,,,,,,,,,,,,,,,,,,,,,,,,,,
,,,,,,,,,,,,,,1,001,2025-02-14_20h11.33.675,IAT(Formal),2021.2.3,Win32,70.42253521,,,,,,,,,,,,,,,i,1,0.6265,,,,,,他人,i,,,0,47,47,8,1,,,,,,,,,,,,,,,,,,,,,,,,,,,,,,,,,,
,,,,,,,,,,,,,,1,001,2025-02-14_20h11.33.675,IAT(Formal),2021.2.3,Win32,70.42253521,,,,,,,,,,,,,,,e,1,0.6025,,,,,,正直,e,,,0,48,48,16,1,,,,,,,,,,,,,,,,,,,,,,,,,,,,,,,,,,
,,,,,,,,,,,,,,1,001,2025-02-14_20h11.33.675,IAT(Formal),2021.2.3,Win32,70.42253521,,,,,,,,,,,,,,,i,1,0.555,,,,,,他人,i,,,0,49,49,58,1,,,,,,,,,,,,,,,,,,,,,,,,,,,,,,,,,,
,,,,,,,,,,,,,,1,001,2025-02-14_20h11.33.675,IAT(Formal),2021.2.3,Win32,70.42253521,,,,,,,,,,,,,,,e,0,0.572,,,,,,自私,i,,,0,50,50,43,1,,,,,,,,,,,,,,,,,,,,,,,,,,,,,,,,,,
,,,,,,,,,,,,,,1,001,2025-02-14_20h11.33.675,IAT(Formal),2021.2.3,Win32,70.42253521,,,,,,,,,,,,,,,e,1,0.8556,,,,,,朴实,e,,,0,51,51,24,1,,,,,,,,,,,,,,,,,,,,,,,,,,,,,,,,,,
,,,,,,,,,,,,,,1,001,2025-02-14_20h11.33.675,IAT(Formal),2021.2.3,Win32,70.42253521,,,,,,,,,,,,,,,i,1,0.5156,,,,,,其他,i,,,0,52,52,79,1,,,,,,,,,,,,,,,,,,,,,,,,,,,,,,,,,,
,,,,,,,,,,,,,,1,001,2025-02-14_20h11.33.675,IAT(Formal),2021.2.3,Win32,70.42253521,,,,,,,,,,,,,,,i,1,0.4181,,,,,,他,i,,,0,53,53,65,1,,,,,,,,,,,,,,,,,,,,,,,,,,,,,,,,,,
,,,,,,,,,,,,,,1,001,2025-02-14_20h11.33.675,IAT(Formal),2021.2.3,Win32,70.42253521,,,,,,,,,,,,,,,e,1,0.5287,,,,,,乐观,e,,,0,54,54,14,1,,,,,,,,,,,,,,,,,,,,,,,,,,,,,,,,,,
,,,,,,,,,,,,,,1,001,2025-02-14_20h11.33.675,IAT(Formal),2021.2.3,Win32,70.42253521,,,,,,,,,,,,,,,i,1,0.6966,,,,,,他,i,,,0,55,55,5,1,,,,,,,,,,,,,,,,,,,,,,,,,,,,,,,,,,
,,,,,,,,,,,,,,1,001,2025-02-14_20h11.33.675,IAT(Formal),2021.2.3,Win32,70.42253521,,,,,,,,,,,,,,,i,1,0.5408,,,,,,他的,i,,,0,56,56,67,1,,,,,,,,,,,,,,,,,,,,,,,,,,,,,,,,,,
,,,,,,,,,,,,,,1,001,2025-02-14_20h11.33.675,IAT(Formal),2021.2.3,Win32,70.42253521,,,,,,,,,,,,,,,e,1,0.5729,,,,,,稳重,e,,,0,57,57,21,1,,,,,,,,,,,,,,,,,,,,,,,,,,,,,,,,,,
,,,,,,,,,,,,,,1,001,2025-02-14_20h11.33.675,IAT(Formal),2021.2.3,Win32,70.42253521,,,,,,,,,,,,,,,i,1,1.2462,,,,,,轻率,i,,,0,58,58,48,1,,,,,,,,,,,,,,,,,,,,,,,,,,,,,,,,,,
,,,,,,,,,,,,,,1,001,2025-02-14_20h11.33.675,IAT(Formal),2021.2.3,Win32,70.42253521,,,,,,,,,,,,,,,e,1,0.6552,,,,,,我们,e,,,0,59,59,72,1,,,,,,,,,,,,,,,,,,,,,,,,,,,,,,,,,,
,,,,,,,,,,,,,,1,001,2025-02-14_20h11.33.675,IAT(Formal),2021.2.3,Win32,70.42253521,,,,,,,,,,,,,,,i,1,0.5765,,,,,,刻薄,i,,,0,60,60,33,1,,,,,,,,,,,,,,,,,,,,,,,,,,,,,,,,,,
,,,,,,,,,,,,,,1,001,2025-02-14_20h11.33.675,IAT(Formal),2021.2.3,Win32,70.42253521,,,,,,,,,,,,,,,e,1,0.5322,,,,,,聪明,e,,,0,61,61,12,1,,,,,,,,,,,,,,,,,,,,,,,,,,,,,,,,,,
,,,,,,,,,,,,,,1,001,2025-02-14_20h11.33.675,IAT(Formal),2021.2.3,Win32,70.42253521,,,,,,,,,,,,,,,i,1,0.6872,,,,,,自卑,i,,,0,62,62,36,1,,,,,,,,,,,,,,,,,,,,,,,,,,,,,,,,,,
,,,,,,,,,,,,,,1,001,2025-02-14_20h11.33.675,IAT(Formal),2021.2.3,Win32,70.42253521,,,,,,,,,,,,,,,e,1,0.7032,,,,,,我们,e,,,0,63,63,62,1,,,,,,,,,,,,,,,,,,,,,,,,,,,,,,,,,,
,,,,,,,,,,,,,,1,001,2025-02-14_20h11.33.675,IAT(Formal),2021.2.3,Win32,70.42253521,,,,,,,,,,,,,,,e,1,0.6039,,,,,,自己,e,,,0,64,64,3,1,,,,,,,,,,,,,,,,,,,,,,,,,,,,,,,,,,
,,,,,,,,,,,,,,1,001,2025-02-14_20h11.33.675,IAT(Formal),2021.2.3,Win32,70.42253521,,,,,,,,,,,,,,,e,1,0.4733,,,,,,我,e,,,0,65,65,50,1,,,,,,,,,,,,,,,,,,,,,,,,,,,,,,,,,,
,,,,,,,,,,,,,,1,001,2025-02-14_20h11.33.675,IAT(Formal),2021.2.3,Win32,70.42253521,,,,,,,,,,,,,,,i,1,0.4958,,,,,,他的,i,,,0,66,66,77,1,,,,,,,,,,,,,,,,,,,,,,,,,,,,,,,,,,
,,,,,,,,,,,,,,1,001,2025-02-14_20h11.33.675,IAT(Formal),2021.2.3,Win32,70.42253521,,,,,,,,,,,,,,,i,0,0.3699,,,,,,自己,e,,,0,67,67,63,1,,,,,,,,,,,,,,,,,,,,,,,,,,,,,,,,,,
,,,,,,,,,,,,,,1,001,2025-02-14_20h11.33.675,IAT(Formal),2021.2.3,Win32,70.42253521,,,,,,,,,,,,,,,e,1,0.8869,,,,,,无私,e,,,0,68,68,22,1,,,,,,,,,,,,,,,,,,,,,,,,,,,,,,,,,,
,,,,,,,,,,,,,,1,001,2025-02-14_20h11.33.675,IAT(Formal),2021.2.3,Win32,70.42253521,,,,,,,,,,,,,,,e,1,0.6828,,,,,,诚恳,e,,,0,69,69,29,1,,,,,,,,,,,,,,,,,,,,,,,,,,,,,,,,,,
,,,,,,,,,,,,,,1,001,2025-02-14_20h11.33.675,IAT(Formal),2021.2.3,Win32,70.42253521,,,,,,,,,,,,,,,i,1,0.5976,,,,,,傲慢,i,,,0,70,70,37,1,,,,,,,,,,,,,,,,,,,,,,,,,,,,,,,,,,
,,,,,,,,,,,,,,1,001,2025-02-14_20h11.33.675,IAT(Formal),2021.2.3,Win32,70.42253521,,,,,,,,,,,,,,,e,1,0.5435,,,,,,我们,e,,,0,71,71,2,1,,,,,,,,,,,,,,,,,,,,,,,,,,,,,,,,,,
,,,,,,,,,,,,,,1,001,2025-02-14_20h11.33.675,IAT(Formal),2021.2.3,Win32,70.42253521,,,,,,,,,,,,,,,e,1,0.6332,,,,,,优秀,e,,,0,72,72,10,1,,,,,,,,,,,,,,,,,,,,,,,,,,,,,,,,,,
,,,,,,,,,,,,,,1,001,2025-02-14_20h11.33.675,IAT(Formal),2021.2.3,Win32,70.42253521,,,,,,,,,,,,,,,i,1,0.6129,,,,,,悲观,i,,,0,73,73,34,1,,,,,,,,,,,,,,,,,,,,,,,,,,,,,,,,,,
,,,,,,,,,,,,,,1,001,2025-02-14_20h11.33.675,IAT(Formal),2021.2.3,Win32,70.42253521,,,,,,,,,,,,,,,i,1,0.6044,,,,,,他们,i,,,0,74,74,6,1,,,,,,,,,,,,,,,,,,,,,,,,,,,,,,,,,,
,,,,,,,,,,,,,,1,001,2025-02-14_20h11.33.675,IAT(Formal),2021.2.3,Win32,70.42253521,,,,,,,,,,,,,,,e,1,0.7132,,,,,,崇高,e,,,0,75,75,11,1,,,,,,,,,,,,,,,,,,,,,,,,,,,,,,,,,,
,,,,,,,,,,,,,,1,001,2025-02-14_20h11.33.675,IAT(Formal),2021.2.3,Win32,70.42253521,,,,,,,,,,,,,,,e,1,0.7189,,,,,,我,e,,,0,76,76,60,1,,,,,,,,,,,,,,,,,,,,,,,,,,,,,,,,,,
,,,,,,,,,,,,,,1,001,2025-02-14_20h11.33.675,IAT(Formal),2021.2.3,Win32,70.42253521,,,,,,,,,,,,,,,i,1,0.721,,,,,,野蛮,i,,,0,77,77,46,1,,,,,,,,,,,,,,,,,,,,,,,,,,,,,,,,,,
,,,,,,,,,,,,,,1,001,2025-02-14_20h11.33.675,IAT(Formal),2021.2.3,Win32,70.42253521,,,,,,,,,,,,,,,i,1,0.6467,,,,,,他人,i,,,0,78,78,68,1,,,,,,,,,,,,,,,,,,,,,,,,,,,,,,,,,,
,,,,,,,,,,,,,,1,001,2025-02-14_20h11.33.675,IAT(Formal),2021.2.3,Win32,70.42253521,,,,,,,,,,,,,,,e,1,0.5393,,,,,,机智,e,,,0,79,79,19,1,,,,,,,,,,,,,,,,,,,,,,,,,,,,,,,,,,
,,,,,,,,,,,,,,1,001,2025-02-14_20h11.33.675,IAT(Formal),2021.2.3,Win32,70.42253521,,,,,,,,,,,,,,,e,1,0.5655,,,,,,我们,e,,,1,0,80,72,1,,,,,,,,,,,,,,,,,,,,,,,,,,,,,,,,,,
,,,,,,,,,,,,,,1,001,2025-02-14_20h11.33.675,IAT(Formal),2021.2.3,Win32,70.42253521,,,,,,,,,,,,,,,e,1,0.4533,,,,,,我,e,,,1,1,81,50,1,,,,,,,,,,,,,,,,,,,,,,,,,,,,,,,,,,
,,,,,,,,,,,,,,1,001,2025-02-14_20h11.33.675,IAT(Formal),2021.2.3,Win32,70.42253521,,,,,,,,,,,,,,,e,1,0.384,,,,,,我的,e,,,1,2,82,61,1,,,,,,,,,,,,,,,,,,,,,,,,,,,,,,,,,,
,,,,,,,,,,,,,,1,001,2025-02-14_20h11.33.675,IAT(Formal),2021.2.3,Win32,70.42253521,,,,,,,,,,,,,,,i,1,0.5576,,,,,,他人,i,,,1,3,83,68,1,,,,,,,,,,,,,,,,,,,,,,,,,,,,,,,,,,
,,,,,,,,,,,,,,1,001,2025-02-14_20h11.33.675,IAT(Formal),2021.2.3,Win32,70.42253521,,,,,,,,,,,,,,,i,1,0.6463,,,,,,刻薄,i,,,1,4,84,33,1,,,,,,,,,,,,,,,,,,,,,,,,,,,,,,,,,,
,,,,,,,,,,,,,,1,001,2025-02-14_20h11.33.675,IAT(Formal),2021.2.3,Win32,70.42253521,,,,,,,,,,,,,,,e,1,0.4249,,,,,,我们,e,,,1,5,85,62,1,,,,,,,,,,,,,,,,,,,,,,,,,,,,,,,,,,
,,,,,,,,,,,,,,1,001,2025-02-14_20h11.33.675,IAT(Formal),2021.2.3,Win32,70.42253521,,,,,,,,,,,,,,,e,1,0.5725,,,,,,诚恳,e,,,1,6,86,29,1,,,,,,,,,,,,,,,,,,,,,,,,,,,,,,,,,,
,,,,,,,,,,,,,,1,001,2025-02-14_20h11.33.675,IAT(Formal),2021.2.3,Win32,70.42253521,,,,,,,,,,,,,,,i,1,0.457,,,,,,其他,i,,,1,7,87,79,1,,,,,,,,,,,,,,,,,,,,,,,,,,,,,,,,,,
,,,,,,,,,,,,,,1,001,2025-02-14_20h11.33.675,IAT(Formal),2021.2.3,Win32,70.42253521,,,,,,,,,,,,,,,e,1,0.4742,,,,,,我们,e,,,1,8,88,52,1,,,,,,,,,,,,,,,,,,,,,,,,,,,,,,,,,,
,,,,,,,,,,,,,,1,001,2025-02-14_20h11.33.675,IAT(Formal),2021.2.3,Win32,70.42253521,,,,,,,,,,,,,,,e,1,0.5189,,,,,,乐观,e,,,1,9,89,14,1,,,,,,,,,,,,,,,,,,,,,,,,,,,,,,,,,,
,,,,,,,,,,,,,,1,001,2025-02-14_20h11.33.675,IAT(Formal),2021.2.3,Win32,70.42253521,,,,,,,,,,,,,,,e,1,0.4056,,,,,,自己,e,,,1,10,90,3,1,,,,,,,,,,,,,,,,,,,,,,,,,,,,,,,,,,
,,,,,,,,,,,,,,1,001,2025-02-14_20h11.33.675,IAT(Formal),2021.2.3,Win32,70.42253521,,,,,,,,,,,,,,,i,1,0.5647,,,,,,他,i,,,1,11,91,65,1,,,,,,,,,,,,,,,,,,,,,,,,,,,,,,,,,,
,,,,,,,,,,,,,,1,001,2025-02-14_20h11.33.675,IAT(Formal),2021.2.3,Win32,70.42253521,,,,,,,,,,,,,,,i,1,0.4164,,,,,,他,i,,,1,12,92,75,1,,,,,,,,,,,,,,,,,,,,,,,,,,,,,,,,,,
,,,,,,,,,,,,,,1,001,2025-02-14_20h11.33.675,IAT(Formal),2021.2.3,Win32,70.42253521,,,,,,,,,,,,,,,i,1,0.4809,,,,,,鲁莽,i,,,1,13,93,38,1,,,,,,,,,,,,,,,,,,,,,,,,,,,,,,,,,,
,,,,,,,,,,,,,,1,001,2025-02-14_20h11.33.675,IAT(Formal),2021.2.3,Win32,70.42253521,,,,,,,,,,,,,,,i,1,0.4883,,,,,,他人,i,,,1,14,94,58,1,,,,,,,,,,,,,,,,,,,,,,,,,,,,,,,,,,
,,,,,,,,,,,,,,1,001,2025-02-14_20h11.33.675,IAT(Formal),2021.2.3,Win32,70.42253521,,,,,,,,,,,,,,,e,1,0.4998,,,,,,正直,e,,,1,15,95,16,1,,,,,,,,,,,,,,,,,,,,,,,,,,,,,,,,,,
,,,,,,,,,,,,,,1,001,2025-02-14_20h11.33.675,IAT(Formal),2021.2.3,Win32,70.42253521,,,,,,,,,,,,,,,e,1,0.6222,,,,,,俺,e,,,1,16,96,4,1,,,,,,,,,,,,,,,,,,,,,,,,,,,,,,,,,,
,,,,,,,,,,,,,,1,001,2025-02-14_20h11.33.675,IAT(Formal),2021.2.3,Win32,70.42253521,,,,,,,,,,,,,,,e,1,0.4699,,,,,,俺,e,,,1,17,97,74,1,,,,,,,,,,,,,,,,,,,,,,,,,,,,,,,,,,
,,,,,,,,,,,,,,1,001,2025-02-14_20h11.33.675,IAT(Formal),2021.2.3,Win32,70.42253521,,,,,,,,,,,,,,,e,1,0.4408,,,,,,机智,e,,,1,18,98,19,1,,,,,,,,,,,,,,,,,,,,,,,,,,,,,,,,,,
,,,,,,,,,,,,,,1,001,2025-02-14_20h11.33.675,IAT(Formal),2021.2.3,Win32,70.42253521,,,,,,,,,,,,,,,i,1,0.5338,,,,,,消极,i,,,1,19,99,35,1,,,,,,,,,,,,,,,,,,,,,,,,,,,,,,,,,,
,,,,,,,,,,,,,,1,001,2025-02-14_20h11.33.675,IAT(Formal),2021.2.3,Win32,70.42253521,,,,,,,,,,,,,,,e,1,0.5949,,,,,,稳重,e,,,1,20,100,21,1,,,,,,,,,,,,,,,,,,,,,,,,,,,,,,,,,,
,,,,,,,,,,,,,,1,001,2025-02-14_20h11.33.675,IAT(Formal),2021.2.3,Win32,70.42253521,,,,,,,,,,,,,,,e,1,0.5477,,,,,,自己,e,,,1,21,101,73,1,,,,,,,,,,,,,,,,,,,,,,,,,,,,,,,,,,
,,,,,,,,,,,,,,1,001,2025-02-14_20h11.33.675,IAT(Formal),2021.2.3,Win32,70.42253521,,,,,,,,,,,,,,,e,1,0.5579,,,,,,认真,e,,,1,22,102,20,1,,,,,,,,,,,,,,,,,,,,,,,,,,,,,,,,,,
,,,,,,,,,,,,,,1,001,2025-02-14_20h11.33.675,IAT(Formal),2021.2.3,Win32,70.42253521,,,,,,,,,,,,,,,e,1,0.4163,,,,,,自己,e,,,1,23,103,63,1,,,,,,,,,,,,,,,,,,,,,,,,,,,,,,,,,,
,,,,,,,,,,,,,,1,001,2025-02-14_20h11.33.675,IAT(Formal),2021.2.3,Win32,70.42253521,,,,,,,,,,,,,,,i,1,0.7494,,,,,,自卑,i,,,1,24,104,36,1,,,,,,,,,,,,,,,,,,,,,,,,,,,,,,,,,,
,,,,,,,,,,,,,,1,001,2025-02-14_20h11.33.675,IAT(Formal),2021.2.3,Win32,70.42253521,,,,,,,,,,,,,,,e,1,0.549,,,,,,聪明,e,,,1,25,105,12,1,,,,,,,,,,,,,,,,,,,,,,,,,,,,,,,,,,
,,,,,,,,,,,,,,1,001,2025-02-14_20h11.33.675,IAT(Formal),2021.2.3,Win32,70.42253521,,,,,,,,,,,,,,,i,1,0.6562,,,,,,他的,i,,,1,26,106,77,1,,,,,,,,,,,,,,,,,,,,,,,,,,,,,,,,,,
,,,,,,,,,,,,,,1,001,2025-02-14_20h11.33.675,IAT(Formal),2021.2.3,Win32,70.42253521,,,,,,,,,,,,,,,e,1,0.4718,,,,,,我,e,,,1,27,107,60,1,,,,,,,,,,,,,,,,,,,,,,,,,,,,,,,,,,
,,,,,,,,,,,,,,1,001,2025-02-14_20h11.33.675,IAT(Formal),2021.2.3,Win32,70.42253521,,,,,,,,,,,,,,,i,1,0.6643,,,,,,他,i,,,1,28,108,5,1,,,,,,,,,,,,,,,,,,,,,,,,,,,,,,,,,,
,,,,,,,,,,,,,,1,001,2025-02-14_20h11.33.675,IAT(Formal),2021.2.3,Win32,70.42253521,,,,,,,,,,,,,,,i,1,0.6125,,,,,,悲观,i,,,1,29,109,34,1,,,,,,,,,,,,,,,,,,,,,,,,,,,,,,,,,,
,,,,,,,,,,,,,,1,001,2025-02-14_20h11.33.675,IAT(Formal),2021.2.3,Win32,70.42253521,,,,,,,,,,,,,,,e,1,0.4839,,,,,,我们,e,,,1,30,110,2,1,,,,,,,,,,,,,,,,,,,,,,,,,,,,,,,,,,
,,,,,,,,,,,,,,1,001,2025-02-14_20h11.33.675,IAT(Formal),2021.2.3,Win32,70.42253521,,,,,,,,,,,,,,,e,0,0.4045,,,,,,他人,i,,,1,31,111,78,1,,,,,,,,,,,,,,,,,,,,,,,,,,,,,,,,,,
,,,,,,,,,,,,,,1,001,2025-02-14_20h11.33.675,IAT(Formal),2021.2.3,Win32,70.42253521,,,,,,,,,,,,,,,i,1,0.4789,,,,,,其他,i,,,1,32,112,9,1,,,,,,,,,,,,,,,,,,,,,,,,,,,,,,,,,,
,,,,,,,,,,,,,,1,001,2025-02-14_20h11.33.675,IAT(Formal),2021.2.3,Win32,70.42253521,,,,,,,,,,,,,,,e,1,0.4877,,,,,,公正,e,,,1,33,113,23,1,,,,,,,,,,,,,,,,,,,,,,,,,,,,,,,,,,
,,,,,,,,,,,,,,1,001,2025-02-14_20h11.33.675,IAT(Formal),2021.2.3,Win32,70.42253521,,,,,,,,,,,,,,,e,1,0.64,,,,,,活泼,e,,,1,34,114,28,1,,,,,,,,,,,,,,,,,,,,,,,,,,,,,,,,,,
,,,,,,,,,,,,,,1,001,2025-02-14_20h11.33.675,IAT(Formal),2021.2.3,Win32,70.42253521,,,,,,,,,,,,,,,e,1,0.5564,,,,,,勇敢,e,,,1,35,115,17,1,,,,,,,,,,,,,,,,,,,,,,,,,,,,,,,,,,
,,,,,,,,,,,,,,1,001,2025-02-14_20h11.33.675,IAT(Formal),2021.2.3,Win32,70.42253521,,,,,,,,,,,,,,,i,0,0.4798,,,,,,冷静,e,,,1,36,116,26,1,,,,,,,,,,,,,,,,,,,,,,,,,,,,,,,,,,
,,,,,,,,,,,,,,1,001,2025-02-14_20h11.33.675,IAT(Formal),2021.2.3,Win32,70.42253521,,,,,,,,,,,,,,,i,1,0.5508,,,,,,他们,i,,,1,37,117,6,1,,,,,,,,,,,,,,,,,,,,,,,,,,,,,,,,,,
,,,,,,,,,,,,,,1,001,2025-02-14_20h11.33.675,IAT(Formal),2021.2.3,Win32,70.42253521,,,,,,,,,,,,,,,i,1,0.3555,,,,,,他们,i,,,1,38,118,76,1,,,,,,,,,,,,,,,,,,,,,,,,,,,,,,,,,,
,,,,,,,,,,,,,,1,001,2025-02-14_20h11.33.675,IAT(Formal),2021.2.3,Win32,70.42253521,,,,,,,,,,,,,,,i,1,0.3633,,,,,,他,i,,,1,39,119,55,1,,,,,,,,,,,,,,,,,,,,,,,,,,,,,,,,,,
,,,,,,,,,,,,,,1,001,2025-02-14_20h11.33.675,IAT(Formal),2021.2.3,Win32,70.42253521,,,,,,,,,,,,,,,e,1,0.5427,,,,,,俺,e,,,1,40,120,54,1,,,,,,,,,,,,,,,,,,,,,,,,,,,,,,,,,,
,,,,,,,,,,,,,,1,001,2025-02-14_20h11.33.675,IAT(Formal),2021.2.3,Win32,70.42253521,,,,,,,,,,,,,,,e,1,0.6266,,,,,,杰出,e,,,1,41,121,13,1,,,,,,,,,,,,,,,,,,,,,,,,,,,,,,,,,,
,,,,,,,,,,,,,,1,001,2025-02-14_20h11.33.675,IAT(Formal),2021.2.3,Win32,70.42253521,,,,,,,,,,,,,,,e,1,0.4117,,,,,,热情,e,,,1,42,122,27,1,,,,,,,,,,,,,,,,,,,,,,,,,,,,,,,,,,
,,,,,,,,,,,,,,1,001,2025-02-14_20h11.33.675,IAT(Formal),2021.2.3,Win32,70.42253521,,,,,,,,,,,,,,,e,1,0.5259,,,,,,无私,e,,,1,43,123,22,1,,,,,,,,,,,,,,,,,,,,,,,,,,,,,,,,,,
,,,,,,,,,,,,,,1,001,2025-02-14_20h11.33.675,IAT(Formal),2021.2.3,Win32,70.42253521,,,,,,,,,,,,,,,i,1,0.5303,,,,,,其他,i,,,1,44,124,69,1,,,,,,,,,,,,,,,,,,,,,,,,,,,,,,,,,,
,,,,,,,,,,,,,,1,001,2025-02-14_20h11.33.675,IAT(Formal),2021.2.3,Win32,70.42253521,,,,,,,,,,,,,,,e,0,0.6683,,,,,,执拗,i,,,1,45,125,40,1,,,,,,,,,,,,,,,,,,,,,,,,,,,,,,,,,,
,,,,,,,,,,,,,,1,001,2025-02-14_20h11.33.675,IAT(Formal),2021.2.3,Win32,70.42253521,,,,,,,,,,,,,,,i,1,0.6629,,,,,,固执,i,,,1,46,126,47,1,,,,,,,,,,,,,,,,,,,,,,,,,,,,,,,,,,
,,,,,,,,,,,,,,1,001,2025-02-14_20h11.33.675,IAT(Formal),2021.2.3,Win32,70.42253521,,,,,,,,,,,,,,,i,1,0.6168,,,,,,自私,i,,,1,47,127,43,1,,,,,,,,,,,,,,,,,,,,,,,,,,,,,,,,,,
,,,,,,,,,,,,,,1,001,2025-02-14_20h11.33.675,IAT(Formal),2021.2.3,Win32,70.42253521,,,,,,,,,,,,,,,i,1,0.6083,,,,,,凶狠,i,,,1,48,128,42,1,,,,,,,,,,,,,,,,,,,,,,,,,,,,,,,,,,
,,,,,,,,,,,,,,1,001,2025-02-14_20h11.33.675,IAT(Formal),2021.2.3,Win32,70.42253521,,,,,,,,,,,,,,,e,0,0.4952,,,,,,他的,i,,,1,49,129,7,1,,,,,,,,,,,,,,,,,,,,,,,,,,,,,,,,,,
,,,,,,,,,,,,,,1,001,2025-02-14_20h11.33.675,IAT(Formal),2021.2.3,Win32,70.42253521,,,,,,,,,,,,,,,i,1,0.6412,,,,,,野蛮,i,,,1,50,130,46,1,,,,,,,,,,,,,,,,,,,,,,,,,,,,,,,,,,
,,,,,,,,,,,,,,1,001,2025-02-14_20h11.33.675,IAT(Formal),2021.2.3,Win32,70.42253521,,,,,,,,,,,,,,,e,1,1.092,,,,,,自己,e,,,1,51,131,53,1,,,,,,,,,,,,,,,,,,,,,,,,,,,,,,,,,,
,,,,,,,,,,,,,,1,001,2025-02-14_20h11.33.675,IAT(Formal),2021.2.3,Win32,70.42253521,,,,,,,,,,,,,,,e,1,0.43,,,,,,我的,e,,,1,52,132,71,1,,,,,,,,,,,,,,,,,,,,,,,,,,,,,,,,,,
,,,,,,,,,,,,,,1,001,2025-02-14_20h11.33.675,IAT(Formal),2021.2.3,Win32,70.42253521,,,,,,,,,,,,,,,i,1,0.5359,,,,,,他的,i,,,1,53,133,57,1,,,,,,,,,,,,,,,,,,,,,,,,,,,,,,,,,,
,,,,,,,,,,,,,,1,001,2025-02-14_20h11.33.675,IAT(Formal),2021.2.3,Win32,70.42253521,,,,,,,,,,,,,,,e,1,0.6823,,,,,,朴实,e,,,1,54,134,24,1,,,,,,,,,,,,,,,,,,,,,,,,,,,,,,,,,,
,,,,,,,,,,,,,,1,001,2025-02-14_20h11.33.675,IAT(Formal),2021.2.3,Win32,70.42253521,,,,,,,,,,,,,,,i,1,0.5956,,,,,,虚伪,i,,,1,55,135,31,1,,,,,,,,,,,,,,,,,,,,,,,,,,,,,,,,,,
,,,,,,,,,,,,,,1,001,2025-02-14_20h11.33.675,IAT(Formal),2021.2.3,Win32,70.42253521,,,,,,,,,,,,,,,e,1,0.5685,,,,,,俺,e,,,1,56,136,64,1,,,,,,,,,,,,,,,,,,,,,,,,,,,,,,,,,,
,,,,,,,,,,,,,,1,001,2025-02-14_20h11.33.675,IAT(Formal),2021.2.3,Win32,70.42253521,,,,,,,,,,,,,,,i,1,0.6121,,,,,,卑鄙,i,,,1,57,137,30,1,,,,,,,,,,,,,,,,,,,,,,,,,,,,,,,,,,
,,,,,,,,,,,,,,1,001,2025-02-14_20h11.33.675,IAT(Formal),2021.2.3,Win32,70.42253521,,,,,,,,,,,,,,,e,1,0.6353,,,,,,细腻,e,,,1,58,138,25,1,,,,,,,,,,,,,,,,,,,,,,,,,,,,,,,,,,
,,,,,,,,,,,,,,1,001,2025-02-14_20h11.33.675,IAT(Formal),2021.2.3,Win32,70.42253521,,,,,,,,,,,,,,,i,1,0.5353,,,,,,暴躁,i,,,1,59,139,44,1,,,,,,,,,,,,,,,,,,,,,,,,,,,,,,,,,,
,,,,,,,,,,,,,,1,001,2025-02-14_20h11.33.675,IAT(Formal),2021.2.3,Win32,70.42253521,,,,,,,,,,,,,,,e,1,0.5656,,,,,,优秀,e,,,1,60,140,10,1,,,,,,,,,,,,,,,,,,,,,,,,,,,,,,,,,,
,,,,,,,,,,,,,,1,001,2025-02-14_20h11.33.675,IAT(Formal),2021.2.3,Win32,70.42253521,,,,,,,,,,,,,,,e,1,0.5465,,,,,,崇高,e,,,1,61,141,11,1,,,,,,,,,,,,,,,,,,,,,,,,,,,,,,,,,,
,,,,,,,,,,,,,,1,001,2025-02-14_20h11.33.675,IAT(Formal),2021.2.3,Win32,70.42253521,,,,,,,,,,,,,,,i,1,0.6232,,,,,,傲慢,i,,,1,62,142,37,1,,,,,,,,,,,,,,,,,,,,,,,,,,,,,,,,,,
,,,,,,,,,,,,,,1,001,2025-02-14_20h11.33.675,IAT(Formal),2021.2.3,Win32,70.42253521,,,,,,,,,,,,,,,e,1,0.4773,,,,,,我的,e,,,1,63,143,51,1,,,,,,,,,,,,,,,,,,,,,,,,,,,,,,,,,,
,,,,,,,,,,,,,,1,001,2025-02-14_20h11.33.675,IAT(Formal),2021.2.3,Win32,70.42253521,,,,,,,,,,,,,,,e,1,0.4402,,,,,,我的,e,,,1,64,144,1,1,,,,,,,,,,,,,,,,,,,,,,,,,,,,,,,,,,
,,,,,,,,,,,,,,1,001,2025-02-14_20h11.33.675,IAT(Formal),2021.2.3,Win32,70.42253521,,,,,,,,,,,,,,,i,1,0.6955,,,,,,他们,i,,,1,65,145,56,1,,,,,,,,,,,,,,,,,,,,,,,,,,,,,,,,,,
,,,,,,,,,,,,,,1,001,2025-02-14_20h11.33.675,IAT(Formal),2021.2.3,Win32,70.42253521,,,,,,,,,,,,,,,e,1,0.4115,,,,,,我,e,,,1,66,146,70,1,,,,,,,,,,,,,,,,,,,,,,,,,,,,,,,,,,
,,,,,,,,,,,,,,1,001,2025-02-14_20h11.33.675,IAT(Formal),2021.2.3,Win32,70.42253521,,,,,,,,,,,,,,,i,1,0.726,,,,,,散漫,i,,,1,67,147,41,1,,,,,,,,,,,,,,,,,,,,,,,,,,,,,,,,,,
,,,,,,,,,,,,,,1,001,2025-02-14_20h11.33.675,IAT(Formal),2021.2.3,Win32,70.42253521,,,,,,,,,,,,,,,i,1,0.6756,,,,,,他人,i,,,1,68,148,8,1,,,,,,,,,,,,,,,,,,,,,,,,,,,,,,,,,,
,,,,,,,,,,,,,,1,001,2025-02-14_20h11.33.675,IAT(Formal),2021.2.3,Win32,70.42253521,,,,,,,,,,,,,,,e,1,0.6822,,,,,,勤奋,e,,,1,69,149,18,1,,,,,,,,,,,,,,,,,,,,,,,,,,,,,,,,,,
,,,,,,,,,,,,,,1,001,2025-02-14_20h11.33.675,IAT(Formal),2021.2.3,Win32,70.42253521,,,,,,,,,,,,,,,i,1,0.7023,,,,,,下贱,i,,,1,70,150,49,1,,,,,,,,,,,,,,,,,,,,,,,,,,,,,,,,,,
,,,,,,,,,,,,,,1,001,2025-02-14_20h11.33.675,IAT(Formal),2021.2.3,Win32,70.42253521,,,,,,,,,,,,,,,i,1,0.5306,,,,,,猖狂,i,,,1,71,151,45,1,,,,,,,,,,,,,,,,,,,,,,,,,,,,,,,,,,
,,,,,,,,,,,,,,1,001,2025-02-14_20h11.33.675,IAT(Formal),2021.2.3,Win32,70.42253521,,,,,,,,,,,,,,,i,1,0.6798,,,,,,轻率,i,,,1,72,152,48,1,,,,,,,,,,,,,,,,,,,,,,,,,,,,,,,,,,
,,,,,,,,,,,,,,1,001,2025-02-14_20h11.33.675,IAT(Formal),2021.2.3,Win32,70.42253521,,,,,,,,,,,,,,,e,1,0.6738,,,,,,诚实,e,,,1,73,153,15,1,,,,,,,,,,,,,,,,,,,,,,,,,,,,,,,,,,
,,,,,,,,,,,,,,1,001,2025-02-14_20h11.33.675,IAT(Formal),2021.2.3,Win32,70.42253521,,,,,,,,,,,,,,,i,1,0.7107,,,,,,他们,i,,,1,74,154,66,1,,,,,,,,,,,,,,,,,,,,,,,,,,,,,,,,,,
,,,,,,,,,,,,,,1,001,2025-02-14_20h11.33.675,IAT(Formal),2021.2.3,Win32,70.42253521,,,,,,,,,,,,,,,i,1,0.5468,,,,,,其他,i,,,1,75,155,59,1,,,,,,,,,,,,,,,,,,,,,,,,,,,,,,,,,,
,,,,,,,,,,,,,,1,001,2025-02-14_20h11.33.675,IAT(Formal),2021.2.3,Win32,70.42253521,,,,,,,,,,,,,,,i,1,0.7927,,,,,,愚蠢,i,,,1,76,156,32,1,,,,,,,,,,,,,,,,,,,,,,,,,,,,,,,,,,
,,,,,,,,,,,,,,1,001,2025-02-14_20h11.33.675,IAT(Formal),2021.2.3,Win32,70.42253521,,,,,,,,,,,,,,,i,1,0.515,,,,,,他的,i,,,1,77,157,67,1,,,,,,,,,,,,,,,,,,,,,,,,,,,,,,,,,,
,,,,,,,,,,,,,,1,001,2025-02-14_20h11.33.675,IAT(Formal),2021.2.3,Win32,70.42253521,,,,,,,,,,,,,,,i,1,0.668,,,,,,冒失,i,,,1,78,158,39,1,,,,,,,,,,,,,,,,,,,,,,,,,,,,,,,,,,
,,,,,,,,,,,,,,1,001,2025-02-14_20h11.33.675,IAT(Formal),2021.2.3,Win32,70.42253521,,,,,,,,,,,,,,,e,1,0.4872,,,,,,我,e,,,1,79,159,0,1,,,,,,,,,,,,,,,,,,,,,,,,,,,,,,,,,,
,,,,,,,,,,,,我,i,1,001,2025-02-14_20h11.33.675,IAT(Formal),2021.2.3,Win32,70.42253521,,,,,,,,,,,,,,,,,,,,,,,,,,,,,,,,space,10.7153,i,1,1.0233,0,0,0,0,1,,,,,,,,,,,,,,,,,,,,,,,,
,,,,,,,,,,,,我们,i,1,001,2025-02-14_20h11.33.675,IAT(Formal),2021.2.3,Win32,70.42253521,,,,,,,,,,,,,,,,,,,,,,,,,,,,,,,,,,i,1,0.4262,0,1,1,2,1,,,,,,,,,,,,,,,,,,,,,,,,
,,,,,,,,,,,,他们,e,1,001,2025-02-14_20h11.33.675,IAT(Formal),2021.2.3,Win32,70.42253521,,,,,,,,,,,,,,,,,,,,,,,,,,,,,,,,,,e,1,0.6287,0,2,2,6,1,,,,,,,,,,,,,,,,,,,,,,,,
,,,,,,,,,,,,其他,e,1,001,2025-02-14_20h11.33.675,IAT(Formal),2021.2.3,Win32,70.42253521,,,,,,,,,,,,,,,,,,,,,,,,,,,,,,,,,,e,1,0.5894,0,3,3,9,1,,,,,,,,,,,,,,,,,,,,,,,,
,,,,,,,,,,,,自己,i,1,001,2025-02-14_20h11.33.675,IAT(Formal),2021.2.3,Win32,70.42253521,,,,,,,,,,,,,,,,,,,,,,,,,,,,,,,,,,i,1,0.6269,0,4,4,3,1,,,,,,,,,,,,,,,,,,,,,,,,
,,,,,,,,,,,,他人,e,1,001,2025-02-14_20h11.33.675,IAT(Formal),2021.2.3,Win32,70.42253521,,,,,,,,,,,,,,,,,,,,,,,,,,,,,,,,,,e,1,0.6456,0,5,5,8,1,,,,,,,,,,,,,,,,,,,,,,,,
,,,,,,,,,,,,他,e,1,001,2025-02-14_20h11.33.675,IAT(Formal),2021.2.3,Win32,70.42253521,,,,,,,,,,,,,,,,,,,,,,,,,,,,,,,,,,e,1,0.3904,0,6,6,5,1,,,,,,,,,,,,,,,,,,,,,,,,
,,,,,,,,,,,,他的,e,1,001,2025-02-14_20h11.33.675,IAT(Formal),2021.2.3,Win32,70.42253521,,,,,,,,,,,,,,,,,,,,,,,,,,,,,,,,,,e,1,0.3464,0,7,7,7,1,,,,,,,,,,,,,,,,,,,,,,,,
,,,,,,,,,,,,俺,i,1,001,2025-02-14_20h11.33.675,IAT(Formal),2021.2.3,Win32,70.42253521,,,,,,,,,,,,,,,,,,,,,,,,,,,,,,,,,,i,1,0.6016,0,8,8,4,1,,,,,,,,,,,,,,,,,,,,,,,,
,,,,,,,,,,,,我的,i,1,001,2025-02-14_20h11.33.675,IAT(Formal),2021.2.3,Win32,70.42253521,,,,,,,,,,,,,,,,,,,,,,,,,,,,,,,,,,i,1,0.4229,0,9,9,1,1,,,,,,,,,,,,,,,,,,,,,,,,
,,,,,,,,,,,,,,1,001,2025-02-14_20h11.33.675,IAT(Formal),2021.2.3,Win32,70.42253521,,,,,,,,,,,,,,,,,,,,,,,,,,,,,,,,,,,,,,,,,,space,2.6952,e,1,0.9815,0,0,0,65,1,他,e,,,,,,,,,,,,
,,,,,,,,,,,,,,1,001,2025-02-14_20h11.33.675,IAT(Formal),2021.2.3,Win32,70.42253521,,,,,,,,,,,,,,,,,,,,,,,,,,,,,,,,,,,,,,,,,,,,e,1,0.4041,0,1,1,6,1,他们,e,,,,,,,,,,,,
,,,,,,,,,,,,,,1,001,2025-02-14_20h11.33.675,IAT(Formal),2021.2.3,Win32,70.42253521,,,,,,,,,,,,,,,,,,,,,,,,,,,,,,,,,,,,,,,,,,,,e,1,0.3597,0,2,2,5,1,他,e,,,,,,,,,,,,
,,,,,,,,,,,,,,1,001,2025-02-14_20h11.33.675,IAT(Formal),2021.2.3,Win32,70.42253521,,,,,,,,,,,,,,,,,,,,,,,,,,,,,,,,,,,,,,,,,,,,e,0,0.3572,0,3,3,60,1,我,i,,,,,,,,,,,,
,,,,,,,,,,,,,,1,001,2025-02-14_20h11.33.675,IAT(Formal),2021.2.3,Win32,70.42253521,,,,,,,,,,,,,,,,,,,,,,,,,,,,,,,,,,,,,,,,,,,,i,1,0.4114,0,4,4,52,1,我们,i,,,,,,,,,,,,
,,,,,,,,,,,,,,1,001,2025-02-14_20h11.33.675,IAT(Formal),2021.2.3,Win32,70.42253521,,,,,,,,,,,,,,,,,,,,,,,,,,,,,,,,,,,,,,,,,,,,i,1,0.5118,0,5,5,73,1,自己,i,,,,,,,,,,,,
,,,,,,,,,,,,,,1,001,2025-02-14_20h11.33.675,IAT(Formal),2021.2.3,Win32,70.42253521,,,,,,,,,,,,,,,,,,,,,,,,,,,,,,,,,,,,,,,,,,,,i,0,0.5432,0,6,6,19,1,机智,e,,,,,,,,,,,,
,,,,,,,,,,,,,,1,001,2025-02-14_20h11.33.675,IAT(Formal),2021.2.3,Win32,70.42253521,,,,,,,,,,,,,,,,,,,,,,,,,,,,,,,,,,,,,,,,,,,,i,1,1.2459,0,7,7,0,1,我,i,,,,,,,,,,,,
,,,,,,,,,,,,,,1,001,2025-02-14_20h11.33.675,IAT(Formal),2021.2.3,Win32,70.42253521,,,,,,,,,,,,,,,,,,,,,,,,,,,,,,,,,,,,,,,,,,,,e,1,1.0008,0,8,8,14,1,乐观,e,,,,,,,,,,,,
,,,,,,,,,,,,,,1,001,2025-02-14_20h11.33.675,IAT(Formal),2021.2.3,Win32,70.42253521,,,,,,,,,,,,,,,,,,,,,,,,,,,,,,,,,,,,,,,,,,,,i,1,0.9697,0,9,9,44,1,暴躁,i,,,,,,,,,,,,
,,,,,,,,,,,,,,1,001,2025-02-14_20h11.33.675,IAT(Formal),2021.2.3,Win32,70.42253521,,,,,,,,,,,,,,,,,,,,,,,,,,,,,,,,,,,,,,,,,,,,e,1,1.1824,0,10,10,58,1,他人,e,,,,,,,,,,,,
,,,,,,,,,,,,,,1,001,2025-02-14_20h11.33.675,IAT(Formal),2021.2.3,Win32,70.42253521,,,,,,,,,,,,,,,,,,,,,,,,,,,,,,,,,,,,,,,,,,,,e,1,1.3331,0,11,11,10,1,优秀,e,,,,,,,,,,,,
,,,,,,,,,,,,,,1,001,2025-02-14_20h11.33.675,IAT(Formal),2021.2.3,Win32,70.42253521,,,,,,,,,,,,,,,,,,,,,,,,,,,,,,,,,,,,,,,,,,,,e,1,0.9507,0,12,12,21,1,稳重,e,,,,,,,,,,,,
,,,,,,,,,,,,,,1,001,2025-02-14_20h11.33.675,IAT(Formal),2021.2.3,Win32,70.42253521,,,,,,,,,,,,,,,,,,,,,,,,,,,,,,,,,,,,,,,,,,,,i,1,0.6855,0,13,13,4,1,俺,i,,,,,,,,,,,,
,,,,,,,,,,,,,,1,001,2025-02-14_20h11.33.675,IAT(Formal),2021.2.3,Win32,70.42253521,,,,,,,,,,,,,,,,,,,,,,,,,,,,,,,,,,,,,,,,,,,,e,1,0.8786,0,14,14,55,1,他,e,,,,,,,,,,,,
,,,,,,,,,,,,,,1,001,2025-02-14_20h11.33.675,IAT(Formal),2021.2.3,Win32,70.42253521,,,,,,,,,,,,,,,,,,,,,,,,,,,,,,,,,,,,,,,,,,,,i,1,0.5023,0,15,15,50,1,我,i,,,,,,,,,,,,
,,,,,,,,,,,,,,1,001,2025-02-14_20h11.33.675,IAT(Formal),2021.2.3,Win32,70.42253521,,,,,,,,,,,,,,,,,,,,,,,,,,,,,,,,,,,,,,,,,,,,e,1,0.6967,0,16,16,66,1,他们,e,,,,,,,,,,,,
,,,,,,,,,,,,,,1,001,2025-02-14_20h11.33.675,IAT(Formal),2021.2.3,Win32,70.42253521,,,,,,,,,,,,,,,,,,,,,,,,,,,,,,,,,,,,,,,,,,,,i,1,0.44,0,17,17,72,1,我们,i,,,,,,,,,,,,
,,,,,,,,,,,,,,1,001,2025-02-14_20h11.33.675,IAT(Formal),2021.2.3,Win32,70.42253521,,,,,,,,,,,,,,,,,,,,,,,,,,,,,,,,,,,,,,,,,,,,i,1,0.5022,0,18,18,61,1,我的,i,,,,,,,,,,,,
,,,,,,,,,,,,,,1,001,2025-02-14_20h11.33.675,IAT(Formal),2021.2.3,Win32,70.42253521,,,,,,,,,,,,,,,,,,,,,,,,,,,,,,,,,,,,,,,,,,,,i,1,0.6505,0,19,19,48,1,轻率,i,,,,,,,,,,,,
,,,,,,,,,,,,,,1,001,2025-02-14_20h11.33.675,IAT(Formal),2021.2.3,Win32,70.42253521,,,,,,,,,,,,,,,,,,,,,,,,,,,,,,,,,,,,,,,,,,,,e,1,0.7093,0,20,20,75,1,他,e,,,,,,,,,,,,
,,,,,,,,,,,,,,1,001,2025-02-14_20h11.33.675,IAT(Formal),2021.2.3,Win32,70.42253521,,,,,,,,,,,,,,,,,,,,,,,,,,,,,,,,,,,,,,,,,,,,i,1,0.6356,0,21,21,39,1,冒失,i,,,,,,,,,,,,
,,,,,,,,,,,,,,1,001,2025-02-14_20h11.33.675,IAT(Formal),2021.2.3,Win32,70.42253521,,,,,,,,,,,,,,,,,,,,,,,,,,,,,,,,,,,,,,,,,,,,,0,,0,22,22,57,1,他的,e,,,,,,,,,,,,
,,,,,,,,,,,,,,1,001,2025-02-14_20h11.33.675,IAT(Formal),2021.2.3,Win32,70.42253521,,,,,,,,,,,,,,,,,,,,,,,,,,,,,,,,,,,,,,,,,,,,,0,,0,23,23,18,1,勤奋,e,,,,,,,,,,,,
,,,,,,,,,,,,,,1,001,2025-02-14_20h11.33.675,IAT(Formal),2021.2.3,Win32,70.42253521,,,,,,,,,,,,,,,,,,,,,,,,,,,,,,,,,,,,,,,,,,,,e,0,0.8709,0,24,24,71,1,我的,i,,,,,,,,,,,,
,,,,,,,,,,,,,,1,001,2025-02-14_20h11.33.675,IAT(Formal),2021.2.3,Win32,70.42253521,,,,,,,,,,,,,,,,,,,,,,,,,,,,,,,,,,,,,,,,,,,,i,0,0.7013,0,25,25,24,1,朴实,e,,,,,,,,,,,,
,,,,,,,,,,,,,,1,001,2025-02-14_20h11.33.675,IAT(Formal),2021.2.3,Win32,70.42253521,,,,,,,,,,,,,,,,,,,,,,,,,,,,,,,,,,,,,,,,,,,,e,0,1.0232,0,26,26,34,1,悲观,i,,,,,,,,,,,,
,,,,,,,,,,,,,,1,001,2025-02-14_20h11.33.675,IAT(Formal),2021.2.3,Win32,70.42253521,,,,,,,,,,,,,,,,,,,,,,,,,,,,,,,,,,,,,,,,,,,,e,0,1.099,0,27,27,63,1,自己,i,,,,,,,,,,,,
,,,,,,,,,,,,,,1,001,2025-02-14_20h11.33.675,IAT(Formal),2021.2.3,Win32,70.42253521,,,,,,,,,,,,,,,,,,,,,,,,,,,,,,,,,,,,,,,,,,,,i,1,0.4602,0,28,28,2,1,我们,i,,,,,,,,,,,,
,,,,,,,,,,,,,,1,001,2025-02-14_20h11.33.675,IAT(Formal),2021.2.3,Win32,70.42253521,,,,,,,,,,,,,,,,,,,,,,,,,,,,,,,,,,,,,,,,,,,,i,1,0.8129,0,29,29,41,1,散漫,i,,,,,,,,,,,,
,,,,,,,,,,,,,,1,001,2025-02-14_20h11.33.675,IAT(Formal),2021.2.3,Win32,70.42253521,,,,,,,,,,,,,,,,,,,,,,,,,,,,,,,,,,,,,,,,,,,,e,1,0.4627,0,30,30,77,1,他的,e,,,,,,,,,,,,
,,,,,,,,,,,,,,1,001,2025-02-14_20h11.33.675,IAT(Formal),2021.2.3,Win32,70.42253521,,,,,,,,,,,,,,,,,,,,,,,,,,,,,,,,,,,,,,,,,,,,i,0,0.8141,0,31,31,16,1,正直,e,,,,,,,,,,,,
,,,,,,,,,,,,,,1,001,2025-02-14_20h11.33.675,IAT(Formal),2021.2.3,Win32,70.42253521,,,,,,,,,,,,,,,,,,,,,,,,,,,,,,,,,,,,,,,,,,,,e,0,0.8072,0,32,32,38,1,鲁莽,i,,,,,,,,,,,,
,,,,,,,,,,,,,,1,001,2025-02-14_20h11.33.675,IAT(Formal),2021.2.3,Win32,70.42253521,,,,,,,,,,,,,,,,,,,,,,,,,,,,,,,,,,,,,,,,,,,,i,1,0.5918,0,33,33,62,1,我们,i,,,,,,,,,,,,
,,,,,,,,,,,,,,1,001,2025-02-14_20h11.33.675,IAT(Formal),2021.2.3,Win32,70.42253521,,,,,,,,,,,,,,,,,,,,,,,,,,,,,,,,,,,,,,,,,,,,e,1,0.6426,0,34,34,12,1,聪明,e,,,,,,,,,,,,
,,,,,,,,,,,,,,1,001,2025-02-14_20h11.33.675,IAT(Formal),2021.2.3,Win32,70.42253521,,,,,,,,,,,,,,,,,,,,,,,,,,,,,,,,,,,,,,,,,,,,e,0,1.1369,0,35,35,36,1,自卑,i,,,,,,,,,,,,
,,,,,,,,,,,,,,1,001,2025-02-14_20h11.33.675,IAT(Formal),2021.2.3,Win32,70.42253521,,,,,,,,,,,,,,,,,,,,,,,,,,,,,,,,,,,,,,,,,,,,i,0,0.8087,0,36,36,23,1,公正,e,,,,,,,,,,,,
,,,,,,,,,,,,,,1,001,2025-02-14_20h11.33.675,IAT(Formal),2021.2.3,Win32,70.42253521,,,,,,,,,,,,,,,,,,,,,,,,,,,,,,,,,,,,,,,,,,,,e,1,0.9932,0,37,37,76,1,他们,e,,,,,,,,,,,,
,,,,,,,,,,,,,,1,001,2025-02-14_20h11.33.675,IAT(Formal),2021.2.3,Win32,70.42253521,,,,,,,,,,,,,,,,,,,,,,,,,,,,,,,,,,,,,,,,,,,,i,1,0.7577,0,38,38,40,1,执拗,i,,,,,,,,,,,,
,,,,,,,,,,,,,,1,001,2025-02-14_20h11.33.675,IAT(Formal),2021.2.3,Win32,70.42253521,,,,,,,,,,,,,,,,,,,,,,,,,,,,,,,,,,,,,,,,,,,,e,1,1.0035,0,39,39,15,1,诚实,e,,,,,,,,,,,,
,,,,,,,,,,,,,,1,001,2025-02-14_20h11.33.675,IAT(Formal),2021.2.3,Win32,70.42253521,,,,,,,,,,,,,,,,,,,,,,,,,,,,,,,,,,,,,,,,,,,,i,1,0.8479,0,40,40,37,1,傲慢,i,,,,,,,,,,,,
,,,,,,,,,,,,,,1,001,2025-02-14_20h11.33.675,IAT(Formal),2021.2.3,Win32,70.42253521,,,,,,,,,,,,,,,,,,,,,,,,,,,,,,,,,,,,,,,,,,,,e,0,0.7451,0,41,41,43,1,自私,i,,,,,,,,,,,,
,,,,,,,,,,,,,,1,001,2025-02-14_20h11.33.675,IAT(Formal),2021.2.3,Win32,70.42253521,,,,,,,,,,,,,,,,,,,,,,,,,,,,,,,,,,,,,,,,,,,,i,1,0.7012,0,42,42,30,1,卑鄙,i,,,,,,,,,,,,
,,,,,,,,,,,,,,1,001,2025-02-14_20h11.33.675,IAT(Formal),2021.2.3,Win32,70.42253521,,,,,,,,,,,,,,,,,,,,,,,,,,,,,,,,,,,,,,,,,,,,i,1,0.5355,0,43,43,33,1,刻薄,i,,,,,,,,,,,,
,,,,,,,,,,,,,,1,001,2025-02-14_20h11.33.675,IAT(Formal),2021.2.3,Win32,70.42253521,,,,,,,,,,,,,,,,,,,,,,,,,,,,,,,,,,,,,,,,,,,,e,1,1.2079,0,44,44,9,1,其他,e,,,,,,,,,,,,
,,,,,,,,,,,,,,1,001,2025-02-14_20h11.33.675,IAT(Formal),2021.2.3,Win32,70.42253521,,,,,,,,,,,,,,,,,,,,,,,,,,,,,,,,,,,,,,,,,,,,e,1,0.5639,0,45,45,69,1,其他,e,,,,,,,,,,,,
,,,,,,,,,,,,,,1,001,2025-02-14_20h11.33.675,IAT(Formal),2021.2.3,Win32,70.42253521,,,,,,,,,,,,,,,,,,,,,,,,,,,,,,,,,,,,,,,,,,,,e,1,0.6062,0,46,46,68,1,他人,e,,,,,,,,,,,,
,,,,,,,,,,,,,,1,001,2025-02-14_20h11.33.675,IAT(Formal),2021.2.3,Win32,70.42253521,,,,,,,,,,,,,,,,,,,,,,,,,,,,,,,,,,,,,,,,,,,,i,1,0.8911,0,47,47,47,1,固执,i,,,,,,,,,,,,
,,,,,,,,,,,,,,1,001,2025-02-14_20h11.33.675,IAT(Formal),2021.2.3,Win32,70.42253521,,,,,,,,,,,,,,,,,,,,,,,,,,,,,,,,,,,,,,,,,,,,e,1,0.6317,0,48,48,13,1,杰出,e,,,,,,,,,,,,
,,,,,,,,,,,,,,1,001,2025-02-14_20h11.33.675,IAT(Formal),2021.2.3,Win32,70.42253521,,,,,,,,,,,,,,,,,,,,,,,,,,,,,,,,,,,,,,,,,,,,e,1,0.508,0,49,49,67,1,他的,e,,,,,,,,,,,,
,,,,,,,,,,,,,,1,001,2025-02-14_20h11.33.675,IAT(Formal),2021.2.3,Win32,70.42253521,,,,,,,,,,,,,,,,,,,,,,,,,,,,,,,,,,,,,,,,,,,,i,1,0.7365,0,50,50,54,1,俺,i,,,,,,,,,,,,
,,,,,,,,,,,,,,1,001,2025-02-14_20h11.33.675,IAT(Formal),2021.2.3,Win32,70.42253521,,,,,,,,,,,,,,,,,,,,,,,,,,,,,,,,,,,,,,,,,,,,i,1,0.4387,0,51,51,64,1,俺,i,,,,,,,,,,,,
,,,,,,,,,,,,,,1,001,2025-02-14_20h11.33.675,IAT(Formal),2021.2.3,Win32,70.42253521,,,,,,,,,,,,,,,,,,,,,,,,,,,,,,,,,,,,,,,,,,,,e,1,0.5655,0,52,52,8,1,他人,e,,,,,,,,,,,,
,,,,,,,,,,,,,,1,001,2025-02-14_20h11.33.675,IAT(Formal),2021.2.3,Win32,70.42253521,,,,,,,,,,,,,,,,,,,,,,,,,,,,,,,,,,,,,,,,,,,,i,1,0.6339,0,53,53,3,1,自己,i,,,,,,,,,,,,
,,,,,,,,,,,,,,1,001,2025-02-14_20h11.33.675,IAT(Formal),2021.2.3,Win32,70.42253521,,,,,,,,,,,,,,,,,,,,,,,,,,,,,,,,,,,,,,,,,,,,i,1,0.9015,0,54,54,32,1,愚蠢,i,,,,,,,,,,,,
,,,,,,,,,,,,,,1,001,2025-02-14_20h11.33.675,IAT(Formal),2021.2.3,Win32,70.42253521,,,,,,,,,,,,,,,,,,,,,,,,,,,,,,,,,,,,,,,,,,,,e,1,0.9676,0,55,55,22,1,无私,e,,,,,,,,,,,,
,,,,,,,,,,,,,,1,001,2025-02-14_20h11.33.675,IAT(Formal),2021.2.3,Win32,70.42253521,,,,,,,,,,,,,,,,,,,,,,,,,,,,,,,,,,,,,,,,,,,,e,1,1.0479,0,56,56,28,1,活泼,e,,,,,,,,,,,,
,,,,,,,,,,,,,,1,001,2025-02-14_20h11.33.675,IAT(Formal),2021.2.3,Win32,70.42253521,,,,,,,,,,,,,,,,,,,,,,,,,,,,,,,,,,,,,,,,,,,,i,1,0.8395,0,57,57,45,1,猖狂,i,,,,,,,,,,,,
,,,,,,,,,,,,,,1,001,2025-02-14_20h11.33.675,IAT(Formal),2021.2.3,Win32,70.42253521,,,,,,,,,,,,,,,,,,,,,,,,,,,,,,,,,,,,,,,,,,,,e,1,0.8826,0,58,58,27,1,热情,e,,,,,,,,,,,,
,,,,,,,,,,,,,,1,001,2025-02-14_20h11.33.675,IAT(Formal),2021.2.3,Win32,70.42253521,,,,,,,,,,,,,,,,,,,,,,,,,,,,,,,,,,,,,,,,,,,,e,1,0.8263,0,59,59,26,1,冷静,e,,,,,,,,,,,,
,,,,,,,,,,,,,,1,001,2025-02-14_20h11.33.675,IAT(Formal),2021.2.3,Win32,70.42253521,,,,,,,,,,,,,,,,,,,,,,,,,,,,,,,,,,,,,,,,,,,,i,1,0.7016,0,60,60,1,1,我的,i,,,,,,,,,,,,
,,,,,,,,,,,,,,1,001,2025-02-14_20h11.33.675,IAT(Formal),2021.2.3,Win32,70.42253521,,,,,,,,,,,,,,,,,,,,,,,,,,,,,,,,,,,,,,,,,,,,i,1,0.6829,0,61,61,35,1,消极,i,,,,,,,,,,,,
,,,,,,,,,,,,,,1,001,2025-02-14_20h11.33.675,IAT(Formal),2021.2.3,Win32,70.42253521,,,,,,,,,,,,,,,,,,,,,,,,,,,,,,,,,,,,,,,,,,,,e,1,0.7824,0,62,62,17,1,勇敢,e,,,,,,,,,,,,
,,,,,,,,,,,,,,1,001,2025-02-14_20h11.33.675,IAT(Formal),2021.2.3,Win32,70.42253521,,,,,,,,,,,,,,,,,,,,,,,,,,,,,,,,,,,,,,,,,,,,e,1,0.6217,0,63,63,78,1,他人,e,,,,,,,,,,,,
,,,,,,,,,,,,,,1,001,2025-02-14_20h11.33.675,IAT(Formal),2021.2.3,Win32,70.42253521,,,,,,,,,,,,,,,,,,,,,,,,,,,,,,,,,,,,,,,,,,,,e,0,0.6204,0,64,64,42,1,凶狠,i,,,,,,,,,,,,
,,,,,,,,,,,,,,1,001,2025-02-14_20h11.33.675,IAT(Formal),2021.2.3,Win32,70.42253521,,,,,,,,,,,,,,,,,,,,,,,,,,,,,,,,,,,,,,,,,,,,e,1,0.6312,0,65,65,25,1,细腻,e,,,,,,,,,,,,
,,,,,,,,,,,,,,1,001,2025-02-14_20h11.33.675,IAT(Formal),2021.2.3,Win32,70.42253521,,,,,,,,,,,,,,,,,,,,,,,,,,,,,,,,,,,,,,,,,,,,i,1,0.7217,0,66,66,70,1,我,i,,,,,,,,,,,,
,,,,,,,,,,,,,,1,001,2025-02-14_20h11.33.675,IAT(Formal),2021.2.3,Win32,70.42253521,,,,,,,,,,,,,,,,,,,,,,,,,,,,,,,,,,,,,,,,,,,,i,1,0.5553,0,67,67,51,1,我的,i,,,,,,,,,,,,
,,,,,,,,,,,,,,1,001,2025-02-14_20h11.33.675,IAT(Formal),2021.2.3,Win32,70.42253521,,,,,,,,,,,,,,,,,,,,,,,,,,,,,,,,,,,,,,,,,,,,e,1,0.658,0,68,68,79,1,其他,e,,,,,,,,,,,,
,,,,,,,,,,,,,,1,001,2025-02-14_20h11.33.675,IAT(Formal),2021.2.3,Win32,70.42253521,,,,,,,,,,,,,,,,,,,,,,,,,,,,,,,,,,,,,,,,,,,,e,1,0.991,0,69,69,20,1,认真,e,,,,,,,,,,,,
,,,,,,,,,,,,,,1,001,2025-02-14_20h11.33.675,IAT(Formal),2021.2.3,Win32,70.42253521,,,,,,,,,,,,,,,,,,,,,,,,,,,,,,,,,,,,,,,,,,,,e,1,0.5782,0,70,70,56,1,他们,e,,,,,,,,,,,,
,,,,,,,,,,,,,,1,001,2025-02-14_20h11.33.675,IAT(Formal),2021.2.3,Win32,70.42253521,,,,,,,,,,,,,,,,,,,,,,,,,,,,,,,,,,,,,,,,,,,,e,1,0.9541,0,71,71,11,1,崇高,e,,,,,,,,,,,,
,,,,,,,,,,,,,,1,001,2025-02-14_20h11.33.675,IAT(Formal),2021.2.3,Win32,70.42253521,,,,,,,,,,,,,,,,,,,,,,,,,,,,,,,,,,,,,,,,,,,,i,1,0.8607,0,72,72,46,1,野蛮,i,,,,,,,,,,,,
,,,,,,,,,,,,,,1,001,2025-02-14_20h11.33.675,IAT(Formal),2021.2.3,Win32,70.42253521,,,,,,,,,,,,,,,,,,,,,,,,,,,,,,,,,,,,,,,,,,,,i,1,0.5598,0,73,73,49,1,下贱,i,,,,,,,,,,,,
,,,,,,,,,,,,,,1,001,2025-02-14_20h11.33.675,IAT(Formal),2021.2.3,Win32,70.42253521,,,,,,,,,,,,,,,,,,,,,,,,,,,,,,,,,,,,,,,,,,,,e,1,0.5855,0,74,74,7,1,他的,e,,,,,,,,,,,,
,,,,,,,,,,,,,,1,001,2025-02-14_20h11.33.675,IAT(Formal),2021.2.3,Win32,70.42253521,,,,,,,,,,,,,,,,,,,,,,,,,,,,,,,,,,,,,,,,,,,,i,1,0.6253,0,75,75,53,1,自己,i,,,,,,,,,,,,
,,,,,,,,,,,,,,1,001,2025-02-14_20h11.33.675,IAT(Formal),2021.2.3,Win32,70.42253521,,,,,,,,,,,,,,,,,,,,,,,,,,,,,,,,,,,,,,,,,,,,i,1,1.0081,0,76,76,31,1,虚伪,i,,,,,,,,,,,,
,,,,,,,,,,,,,,1,001,2025-02-14_20h11.33.675,IAT(Formal),2021.2.3,Win32,70.42253521,,,,,,,,,,,,,,,,,,,,,,,,,,,,,,,,,,,,,,,,,,,,i,1,0.6693,0,77,77,74,1,俺,i,,,,,,,,,,,,
,,,,,,,,,,,,,,1,001,2025-02-14_20h11.33.675,IAT(Formal),2021.2.3,Win32,70.42253521,,,,,,,,,,,,,,,,,,,,,,,,,,,,,,,,,,,,,,,,,,,,e,1,0.7912,0,78,78,29,1,诚恳,e,,,,,,,,,,,,
,,,,,,,,,,,,,,1,001,2025-02-14_20h11.33.675,IAT(Formal),2021.2.3,Win32,70.42253521,,,,,,,,,,,,,,,,,,,,,,,,,,,,,,,,,,,,,,,,,,,,e,1,0.6542,0,79,79,59,1,其他,e,,,,,,,,,,,,
,,,,,,,,,,,,,,1,001,2025-02-14_20h11.33.675,IAT(Formal),2021.2.3,Win32,70.42253521,,,,,,,,,,,,,,,,,,,,,,,,,,,,,,,,,,,,,,,,,,,,,,,,,,,,他,e,space,4.3592,e,1,0.5772,0,0,0,5,1,,
,,,,,,,,,,,,,,1,001,2025-02-14_20h11.33.675,IAT(Formal),2021.2.3,Win32,70.42253521,,,,,,,,,,,,,,,,,,,,,,,,,,,,,,,,,,,,,,,,,,,,,,,,,,,,自己,i,,,i,1,0.592,0,1,1,73,1,,
,,,,,,,,,,,,,,1,001,2025-02-14_20h11.33.675,IAT(Formal),2021.2.3,Win32,70.42253521,,,,,,,,,,,,,,,,,,,,,,,,,,,,,,,,,,,,,,,,,,,,,,,,,,,,无私,e,,,e,1,0.8804,0,2,2,22,1,,
,,,,,,,,,,,,,,1,001,2025-02-14_20h11.33.675,IAT(Formal),2021.2.3,Win32,70.42253521,,,,,,,,,,,,,,,,,,,,,,,,,,,,,,,,,,,,,,,,,,,,,,,,,,,,我,i,,,i,1,0.5933,0,3,3,0,1,,
,,,,,,,,,,,,,,1,001,2025-02-14_20h11.33.675,IAT(Formal),2021.2.3,Win32,70.42253521,,,,,,,,,,,,,,,,,,,,,,,,,,,,,,,,,,,,,,,,,,,,,,,,,,,,暴躁,i,,,i,1,0.47,0,4,4,44,1,,
,,,,,,,,,,,,,,1,001,2025-02-14_20h11.33.675,IAT(Formal),2021.2.3,Win32,70.42253521,,,,,,,,,,,,,,,,,,,,,,,,,,,,,,,,,,,,,,,,,,,,,,,,,,,,卑鄙,i,,,i,1,0.5918,0,5,5,30,1,,
,,,,,,,,,,,,,,1,001,2025-02-14_20h11.33.675,IAT(Formal),2021.2.3,Win32,70.42253521,,,,,,,,,,,,,,,,,,,,,,,,,,,,,,,,,,,,,,,,,,,,,,,,,,,,杰出,e,,,e,1,0.7243,0,6,6,13,1,,
,,,,,,,,,,,,,,1,001,2025-02-14_20h11.33.675,IAT(Formal),2021.2.3,Win32,70.42253521,,,,,,,,,,,,,,,,,,,,,,,,,,,,,,,,,,,,,,,,,,,,,,,,,,,,凶狠,i,,,i,1,0.9104,0,7,7,42,1,,
,,,,,,,,,,,,,,1,001,2025-02-14_20h11.33.675,IAT(Formal),2021.2.3,Win32,70.42253521,,,,,,,,,,,,,,,,,,,,,,,,,,,,,,,,,,,,,,,,,,,,,,,,,,,,俺,i,,,i,1,0.654,0,8,8,4,1,,
,,,,,,,,,,,,,,1,001,2025-02-14_20h11.33.675,IAT(Formal),2021.2.3,Win32,70.42253521,,,,,,,,,,,,,,,,,,,,,,,,,,,,,,,,,,,,,,,,,,,,,,,,,,,,他,e,,,e,1,0.6137,0,9,9,75,1,,
,,,,,,,,,,,,,,1,001,2025-02-14_20h11.33.675,IAT(Formal),2021.2.3,Win32,70.42253521,,,,,,,,,,,,,,,,,,,,,,,,,,,,,,,,,,,,,,,,,,,,,,,,,,,,悲观,i,,,i,1,0.8623,0,10,10,34,1,,
,,,,,,,,,,,,,,1,001,2025-02-14_20h11.33.675,IAT(Formal),2021.2.3,Win32,70.42253521,,,,,,,,,,,,,,,,,,,,,,,,,,,,,,,,,,,,,,,,,,,,,,,,,,,,我们,i,,,i,1,0.5905,0,11,11,2,1,,
,,,,,,,,,,,,,,1,001,2025-02-14_20h11.33.675,IAT(Formal),2021.2.3,Win32,70.42253521,,,,,,,,,,,,,,,,,,,,,,,,,,,,,,,,,,,,,,,,,,,,,,,,,,,,他,e,,,e,1,0.4936,0,12,12,65,1,,
,,,,,,,,,,,,,,1,001,2025-02-14_20h11.33.675,IAT(Formal),2021.2.3,Win32,70.42253521,,,,,,,,,,,,,,,,,,,,,,,,,,,,,,,,,,,,,,,,,,,,,,,,,,,,他们,e,,,e,1,0.4531,0,13,13,76,1,,
,,,,,,,,,,,,,,1,001,2025-02-14_20h11.33.675,IAT(Formal),2021.2.3,Win32,70.42253521,,,,,,,,,,,,,,,,,,,,,,,,,,,,,,,,,,,,,,,,,,,,,,,,,,,,我的,i,,,i,1,0.5437,0,14,14,1,1,,
,,,,,,,,,,,,,,1,001,2025-02-14_20h11.33.675,IAT(Formal),2021.2.3,Win32,70.42253521,,,,,,,,,,,,,,,,,,,,,,,,,,,,,,,,,,,,,,,,,,,,,,,,,,,,我,i,,,i,1,0.5175,0,15,15,70,1,,
,,,,,,,,,,,,,,1,001,2025-02-14_20h11.33.675,IAT(Formal),2021.2.3,Win32,70.42253521,,,,,,,,,,,,,,,,,,,,,,,,,,,,,,,,,,,,,,,,,,,,,,,,,,,,我的,i,,,i,1,0.4923,0,16,16,61,1,,
,,,,,,,,,,,,,,1,001,2025-02-14_20h11.33.675,IAT(Formal),2021.2.3,Win32,70.42253521,,,,,,,,,,,,,,,,,,,,,,,,,,,,,,,,,,,,,,,,,,,,,,,,,,,,他们,e,,,e,1,0.7792,0,17,17,6,1,,
,,,,,,,,,,,,,,1,001,2025-02-14_20h11.33.675,IAT(Formal),2021.2.3,Win32,70.42253521,,,,,,,,,,,,,,,,,,,,,,,,,,,,,,,,,,,,,,,,,,,,,,,,,,,,傲慢,i,,,i,1,0.7426,0,18,18,37,1,,
,,,,,,,,,,,,,,1,001,2025-02-14_20h11.33.675,IAT(Formal),2021.2.3,Win32,70.42253521,,,,,,,,,,,,,,,,,,,,,,,,,,,,,,,,,,,,,,,,,,,,,,,,,,,,我们,i,,,i,1,0.567,0,19,19,72,1,,
,,,,,,,,,,,,,,1,001,2025-02-14_20h11.33.675,IAT(Formal),2021.2.3,Win32,70.42253521,,,,,,,,,,,,,,,,,,,,,,,,,,,,,,,,,,,,,,,,,,,,,,,,,,,,活泼,e,,,e,1,0.7234,0,20,20,28,1,,
,,,,,,,,,,,,,,1,001,2025-02-14_20h11.33.675,IAT(Formal),2021.2.3,Win32,70.42253521,,,,,,,,,,,,,,,,,,,,,,,,,,,,,,,,,,,,,,,,,,,,,,,,,,,,我,i,,,i,1,0.6431,0,21,21,50,1,,
,,,,,,,,,,,,,,1,001,2025-02-14_20h11.33.675,IAT(Formal),2021.2.3,Win32,70.42253521,,,,,,,,,,,,,,,,,,,,,,,,,,,,,,,,,,,,,,,,,,,,,,,,,,,,公正,e,,,e,1,0.9002,0,22,22,23,1,,
,,,,,,,,,,,,,,1,001,2025-02-14_20h11.33.675,IAT(Formal),2021.2.3,Win32,70.42253521,,,,,,,,,,,,,,,,,,,,,,,,,,,,,,,,,,,,,,,,,,,,,,,,,,,,野蛮,i,,,i,1,0.6403,0,23,23,46,1,,
,,,,,,,,,,,,,,1,001,2025-02-14_20h11.33.675,IAT(Formal),2021.2.3,Win32,70.42253521,,,,,,,,,,,,,,,,,,,,,,,,,,,,,,,,,,,,,,,,,,,,,,,,,,,,他们,e,,,e,1,0.5544,0,24,24,56,1,,
,,,,,,,,,,,,,,1,001,2025-02-14_20h11.33.675,IAT(Formal),2021.2.3,Win32,70.42253521,,,,,,,,,,,,,,,,,,,,,,,,,,,,,,,,,,,,,,,,,,,,,,,,,,,,其他,e,,,e,1,0.5755,0,25,25,59,1,,
,,,,,,,,,,,,,,1,001,2025-02-14_20h11.33.675,IAT(Formal),2021.2.3,Win32,70.42253521,,,,,,,,,,,,,,,,,,,,,,,,,,,,,,,,,,,,,,,,,,,,,,,,,,,,自己,i,,,i,1,0.6529,0,26,26,53,1,,
,,,,,,,,,,,,,,1,001,2025-02-14_20h11.33.675,IAT(Formal),2021.2.3,Win32,70.42253521,,,,,,,,,,,,,,,,,,,,,,,,,,,,,,,,,,,,,,,,,,,,,,,,,,,,自己,i,,,i,1,0.51,0,27,27,3,1,,
,,,,,,,,,,,,,,1,001,2025-02-14_20h11.33.675,IAT(Formal),2021.2.3,Win32,70.42253521,,,,,,,,,,,,,,,,,,,,,,,,,,,,,,,,,,,,,,,,,,,,,,,,,,,,诚实,e,,,e,1,1.2459,0,28,28,15,1,,
,,,,,,,,,,,,,,1,001,2025-02-14_20h11.33.675,IAT(Formal),2021.2.3,Win32,70.42253521,,,,,,,,,,,,,,,,,,,,,,,,,,,,,,,,,,,,,,,,,,,,,,,,,,,,他人,e,,,e,1,0.5225,0,29,29,68,1,,
,,,,,,,,,,,,,,1,001,2025-02-14_20h11.33.675,IAT(Formal),2021.2.3,Win32,70.42253521,,,,,,,,,,,,,,,,,,,,,,,,,,,,,,,,,,,,,,,,,,,,,,,,,,,,朴实,e,,,e,1,1.1061,0,30,30,24,1,,
,,,,,,,,,,,,,,1,001,2025-02-14_20h11.33.675,IAT(Formal),2021.2.3,Win32,70.42253521,,,,,,,,,,,,,,,,,,,,,,,,,,,,,,,,,,,,,,,,,,,,,,,,,,,,俺,i,,,i,1,0.6767,0,31,31,54,1,,
,,,,,,,,,,,,,,1,001,2025-02-14_20h11.33.675,IAT(Formal),2021.2.3,Win32,70.42253521,,,,,,,,,,,,,,,,,,,,,,,,,,,,,,,,,,,,,,,,,,,,,,,,,,,,猖狂,i,,,i,1,0.5995,0,32,32,45,1,,
,,,,,,,,,,,,,,1,001,2025-02-14_20h11.33.675,IAT(Formal),2021.2.3,Win32,70.42253521,,,,,,,,,,,,,,,,,,,,,,,,,,,,,,,,,,,,,,,,,,,,,,,,,,,,我,i,,,i,1,0.4402,0,33,33,60,1,,
,,,,,,,,,,,,,,1,001,2025-02-14_20h11.33.675,IAT(Formal),2021.2.3,Win32,70.42253521,,,,,,,,,,,,,,,,,,,,,,,,,,,,,,,,,,,,,,,,,,,,,,,,,,,,他人,e,,,e,1,0.522,0,34,34,8,1,,
,,,,,,,,,,,,,,1,001,2025-02-14_20h11.33.675,IAT(Formal),2021.2.3,Win32,70.42253521,,,,,,,,,,,,,,,,,,,,,,,,,,,,,,,,,,,,,,,,,,,,,,,,,,,,其他,e,,,e,1,0.5298,0,35,35,69,1,,
,,,,,,,,,,,,,,1,001,2025-02-14_20h11.33.675,IAT(Formal),2021.2.3,Win32,70.42253521,,,,,,,,,,,,,,,,,,,,,,,,,,,,,,,,,,,,,,,,,,,,,,,,,,,,执拗,i,,,i,1,0.8699,0,36,36,40,1,,
,,,,,,,,,,,,,,1,001,2025-02-14_20h11.33.675,IAT(Formal),2021.2.3,Win32,70.42253521,,,,,,,,,,,,,,,,,,,,,,,,,,,,,,,,,,,,,,,,,,,,,,,,,,,,自己,i,,,i,1,0.6928,0,37,37,63,1,,
,,,,,,,,,,,,,,1,001,2025-02-14_20h11.33.675,IAT(Formal),2021.2.3,Win32,70.42253521,,,,,,,,,,,,,,,,,,,,,,,,,,,,,,,,,,,,,,,,,,,,,,,,,,,,我们,i,,,i,1,0.6482,0,38,38,62,1,,
,,,,,,,,,,,,,,1,001,2025-02-14_20h11.33.675,IAT(Formal),2021.2.3,Win32,70.42253521,,,,,,,,,,,,,,,,,,,,,,,,,,,,,,,,,,,,,,,,,,,,,,,,,,,,虚伪,i,,,i,1,0.7405,0,39,39,31,1,,
,,,,,,,,,,,,,,1,001,2025-02-14_20h11.33.675,IAT(Formal),2021.2.3,Win32,70.42253521,,,,,,,,,,,,,,,,,,,,,,,,,,,,,,,,,,,,,,,,,,,,,,,,,,,,消极,i,,,i,1,0.5838,0,40,40,35,1,,
,,,,,,,,,,,,,,1,001,2025-02-14_20h11.33.675,IAT(Formal),2021.2.3,Win32,70.42253521,,,,,,,,,,,,,,,,,,,,,,,,,,,,,,,,,,,,,,,,,,,,,,,,,,,,他人,e,,,e,1,0.4983,0,41,41,78,1,,
,,,,,,,,,,,,,,1,001,2025-02-14_20h11.33.675,IAT(Formal),2021.2.3,Win32,70.42253521,,,,,,,,,,,,,,,,,,,,,,,,,,,,,,,,,,,,,,,,,,,,,,,,,,,,其他,e,,,e,1,0.5363,0,42,42,79,1,,
,,,,,,,,,,,,,,1,001,2025-02-14_20h11.33.675,IAT(Formal),2021.2.3,Win32,70.42253521,,,,,,,,,,,,,,,,,,,,,,,,,,,,,,,,,,,,,,,,,,,,,,,,,,,,诚恳,e,,,e,1,0.922,0,43,43,29,1,,
,,,,,,,,,,,,,,1,001,2025-02-14_20h11.33.675,IAT(Formal),2021.2.3,Win32,70.42253521,,,,,,,,,,,,,,,,,,,,,,,,,,,,,,,,,,,,,,,,,,,,,,,,,,,,认真,e,,,i,0,0.8535,0,44,44,20,1,,
,,,,,,,,,,,,,,1,001,2025-02-14_20h11.33.675,IAT(Formal),2021.2.3,Win32,70.42253521,,,,,,,,,,,,,,,,,,,,,,,,,,,,,,,,,,,,,,,,,,,,,,,,,,,,乐观,e,,,e,1,1.1316,0,45,45,14,1,,
,,,,,,,,,,,,,,1,001,2025-02-14_20h11.33.675,IAT(Formal),2021.2.3,Win32,70.42253521,,,,,,,,,,,,,,,,,,,,,,,,,,,,,,,,,,,,,,,,,,,,,,,,,,,,他的,e,,,e,1,0.5441,0,46,46,57,1,,
,,,,,,,,,,,,,,1,001,2025-02-14_20h11.33.675,IAT(Formal),2021.2.3,Win32,70.42253521,,,,,,,,,,,,,,,,,,,,,,,,,,,,,,,,,,,,,,,,,,,,,,,,,,,,俺,i,,,i,1,0.7651,0,47,47,64,1,,
,,,,,,,,,,,,,,1,001,2025-02-14_20h11.33.675,IAT(Formal),2021.2.3,Win32,70.42253521,,,,,,,,,,,,,,,,,,,,,,,,,,,,,,,,,,,,,,,,,,,,,,,,,,,,自私,i,,,i,1,1.0359,0,48,48,43,1,,
,,,,,,,,,,,,,,1,001,2025-02-14_20h11.33.675,IAT(Formal),2021.2.3,Win32,70.42253521,,,,,,,,,,,,,,,,,,,,,,,,,,,,,,,,,,,,,,,,,,,,,,,,,,,,他,e,,,e,1,0.509,0,49,49,55,1,,
,,,,,,,,,,,,,,1,001,2025-02-14_20h11.33.675,IAT(Formal),2021.2.3,Win32,70.42253521,,,,,,,,,,,,,,,,,,,,,,,,,,,,,,,,,,,,,,,,,,,,,,,,,,,,他的,e,,,e,1,0.53,0,50,50,67,1,,
,,,,,,,,,,,,,,1,001,2025-02-14_20h11.33.675,IAT(Formal),2021.2.3,Win32,70.42253521,,,,,,,,,,,,,,,,,,,,,,,,,,,,,,,,,,,,,,,,,,,,,,,,,,,,勇敢,e,,,e,1,1.0434,0,51,51,17,1,,
,,,,,,,,,,,,,,1,001,2025-02-14_20h11.33.675,IAT(Formal),2021.2.3,Win32,70.42253521,,,,,,,,,,,,,,,,,,,,,,,,,,,,,,,,,,,,,,,,,,,,,,,,,,,,稳重,e,,,e,1,0.7035,0,52,52,21,1,,
,,,,,,,,,,,,,,1,001,2025-02-14_20h11.33.675,IAT(Formal),2021.2.3,Win32,70.42253521,,,,,,,,,,,,,,,,,,,,,,,,,,,,,,,,,,,,,,,,,,,,,,,,,,,,冷静,e,,,e,1,0.521,0,53,53,26,1,,
,,,,,,,,,,,,,,1,001,2025-02-14_20h11.33.675,IAT(Formal),2021.2.3,Win32,70.42253521,,,,,,,,,,,,,,,,,,,,,,,,,,,,,,,,,,,,,,,,,,,,,,,,,,,,我的,i,,,i,1,0.5985,0,54,54,71,1,,
,,,,,,,,,,,,,,1,001,2025-02-14_20h11.33.675,IAT(Formal),2021.2.3,Win32,70.42253521,,,,,,,,,,,,,,,,,,,,,,,,,,,,,,,,,,,,,,,,,,,,,,,,,,,,他人,e,,,e,1,0.5423,0,55,55,58,1,,
,,,,,,,,,,,,,,1,001,2025-02-14_20h11.33.675,IAT(Formal),2021.2.3,Win32,70.42253521,,,,,,,,,,,,,,,,,,,,,,,,,,,,,,,,,,,,,,,,,,,,,,,,,,,,刻薄,i,,,i,1,0.8465,0,56,56,33,1,,
,,,,,,,,,,,,,,1,001,2025-02-14_20h11.33.675,IAT(Formal),2021.2.3,Win32,70.42253521,,,,,,,,,,,,,,,,,,,,,,,,,,,,,,,,,,,,,,,,,,,,,,,,,,,,他们,e,,,e,1,0.5089,0,57,57,66,1,,
,,,,,,,,,,,,,,1,001,2025-02-14_20h11.33.675,IAT(Formal),2021.2.3,Win32,70.42253521,,,,,,,,,,,,,,,,,,,,,,,,,,,,,,,,,,,,,,,,,,,,,,,,,,,,聪明,e,,,e,1,0.7831,0,58,58,12,1,,
,,,,,,,,,,,,,,1,001,2025-02-14_20h11.33.675,IAT(Formal),2021.2.3,Win32,70.42253521,,,,,,,,,,,,,,,,,,,,,,,,,,,,,,,,,,,,,,,,,,,,,,,,,,,,鲁莽,i,,,i,1,0.7173,0,59,59,38,1,,
,,,,,,,,,,,,,,1,001,2025-02-14_20h11.33.675,IAT(Formal),2021.2.3,Win32,70.42253521,,,,,,,,,,,,,,,,,,,,,,,,,,,,,,,,,,,,,,,,,,,,,,,,,,,,其他,e,,,e,1,0.7149,0,60,60,9,1,,
,,,,,,,,,,,,,,1,001,2025-02-14_20h11.33.675,IAT(Formal),2021.2.3,Win32,70.42253521,,,,,,,,,,,,,,,,,,,,,,,,,,,,,,,,,,,,,,,,,,,,,,,,,,,,冒失,i,,,i,1,1.1454,0,61,61,39,1,,
,,,,,,,,,,,,,,1,001,2025-02-14_20h11.33.675,IAT(Formal),2021.2.3,Win32,70.42253521,,,,,,,,,,,,,,,,,,,,,,,,,,,,,,,,,,,,,,,,,,,,,,,,,,,,下贱,i,,,i,1,0.722,0,62,62,49,1,,
,,,,,,,,,,,,,,1,001,2025-02-14_20h11.33.675,IAT(Formal),2021.2.3,Win32,70.42253521,,,,,,,,,,,,,,,,,,,,,,,,,,,,,,,,,,,,,,,,,,,,,,,,,,,,我的,i,,,i,1,0.5359,0,63,63,51,1,,
,,,,,,,,,,,,,,1,001,2025-02-14_20h11.33.675,IAT(Formal),2021.2.3,Win32,70.42253521,,,,,,,,,,,,,,,,,,,,,,,,,,,,,,,,,,,,,,,,,,,,,,,,,,,,固执,i,,,i,1,0.8331,0,64,64,47,1,,
,,,,,,,,,,,,,,1,001,2025-02-14_20h11.33.675,IAT(Formal),2021.2.3,Win32,70.42253521,,,,,,,,,,,,,,,,,,,,,,,,,,,,,,,,,,,,,,,,,,,,,,,,,,,,勤奋,e,,,e,1,0.6539,0,65,65,18,1,,
,,,,,,,,,,,,,,1,001,2025-02-14_20h11.33.675,IAT(Formal),2021.2.3,Win32,70.42253521,,,,,,,,,,,,,,,,,,,,,,,,,,,,,,,,,,,,,,,,,,,,,,,,,,,,我们,i,,,i,1,0.5693,0,66,66,52,1,,
,,,,,,,,,,,,,,1,001,2025-02-14_20h11.33.675,IAT(Formal),2021.2.3,Win32,70.42253521,,,,,,,,,,,,,,,,,,,,,,,,,,,,,,,,,,,,,,,,,,,,,,,,,,,,轻率,i,,,i,1,0.7032,0,67,67,48,1,,
,,,,,,,,,,,,,,1,001,2025-02-14_20h11.33.675,IAT(Formal),2021.2.3,Win32,70.42253521,,,,,,,,,,,,,,,,,,,,,,,,,,,,,,,,,,,,,,,,,,,,,,,,,,,,崇高,e,,,e,1,1.034,0,68,68,11,1,,
,,,,,,,,,,,,,,1,001,2025-02-14_20h11.33.675,IAT(Formal),2021.2.3,Win32,70.42253521,,,,,,,,,,,,,,,,,,,,,,,,,,,,,,,,,,,,,,,,,,,,,,,,,,,,散漫,i,,,i,1,0.9046,0,69,69,41,1,,
,,,,,,,,,,,,,,1,001,2025-02-14_20h11.33.675,IAT(Formal),2021.2.3,Win32,70.42253521,,,,,,,,,,,,,,,,,,,,,,,,,,,,,,,,,,,,,,,,,,,,,,,,,,,,细腻,e,,,i,0,0.8015,0,70,70,25,1,,
,,,,,,,,,,,,,,1,001,2025-02-14_20h11.33.675,IAT(Formal),2021.2.3,Win32,70.42253521,,,,,,,,,,,,,,,,,,,,,,,,,,,,,,,,,,,,,,,,,,,,,,,,,,,,机智,e,,,e,1,0.5765,0,71,71,19,1,,
,,,,,,,,,,,,,,1,001,2025-02-14_20h11.33.675,IAT(Formal),2021.2.3,Win32,70.42253521,,,,,,,,,,,,,,,,,,,,,,,,,,,,,,,,,,,,,,,,,,,,,,,,,,,,他的,e,,,e,1,0.5064,0,72,72,77,1,,
,,,,,,,,,,,,,,1,001,2025-02-14_20h11.33.675,IAT(Formal),2021.2.3,Win32,70.42253521,,,,,,,,,,,,,,,,,,,,,,,,,,,,,,,,,,,,,,,,,,,,,,,,,,,,热情,e,,,e,1,1.3666,0,73,73,27,1,,
,,,,,,,,,,,,,,1,001,2025-02-14_20h11.33.675,IAT(Formal),2021.2.3,Win32,70.42253521,,,,,,,,,,,,,,,,,,,,,,,,,,,,,,,,,,,,,,,,,,,,,,,,,,,,他的,e,,,e,1,0.5994,0,74,74,7,1,,
,,,,,,,,,,,,,,1,001,2025-02-14_20h11.33.675,IAT(Formal),2021.2.3,Win32,70.42253521,,,,,,,,,,,,,,,,,,,,,,,,,,,,,,,,,,,,,,,,,,,,,,,,,,,,优秀,e,,,e,1,0.4583,0,75,75,10,1,,
,,,,,,,,,,,,,,1,001,2025-02-14_20h11.33.675,IAT(Formal),2021.2.3,Win32,70.42253521,,,,,,,,,,,,,,,,,,,,,,,,,,,,,,,,,,,,,,,,,,,,,,,,,,,,俺,i,,,i,1,0.5355,0,76,76,74,1,,
,,,,,,,,,,,,,,1,001,2025-02-14_20h11.33.675,IAT(Formal),2021.2.3,Win32,70.42253521,,,,,,,,,,,,,,,,,,,,,,,,,,,,,,,,,,,,,,,,,,,,,,,,,,,,正直,e,,,e,1,0.6195,0,77,77,16,1,,
,,,,,,,,,,,,,,1,001,2025-02-14_20h11.33.675,IAT(Formal),2021.2.3,Win32,70.42253521,,,,,,,,,,,,,,,,,,,,,,,,,,,,,,,,,,,,,,,,,,,,,,,,,,,,愚蠢,i,,,i,1,0.571,0,78,78,32,1,,
,,,,,,,,,,,,,,1,001,2025-02-14_20h11.33.675,IAT(Formal),2021.2.3,Win32,70.42253521,,,,,,,,,,,,,,,,,,,,,,,,,,,,,,,,,,,,,,,,,,,,,,,,,,,,自卑,i,,,i,1,0.7061,0,79,79,36,1,,
,,,,,,,,,,,,,,1,001,2025-02-14_20h11.33.675,IAT(Formal),2021.2.3,Win32,70.42253521,,,,,,,,,,,,,,,,,,,,,,,,,,,,,,,,,,,,,,,,,,,,,,,,,,,,我们,i,,,i,1,0.6914,1,0,80,2,1,,
,,,,,,,,,,,,,,1,001,2025-02-14_20h11.33.675,IAT(Formal),2021.2.3,Win32,70.42253521,,,,,,,,,,,,,,,,,,,,,,,,,,,,,,,,,,,,,,,,,,,,,,,,,,,,他人,e,,,e,1,0.543,1,1,81,78,1,,
,,,,,,,,,,,,,,1,001,2025-02-14_20h11.33.675,IAT(Formal),2021.2.3,Win32,70.42253521,,,,,,,,,,,,,,,,,,,,,,,,,,,,,,,,,,,,,,,,,,,,,,,,,,,,我的,i,,,i,1,0.6659,1,2,82,71,1,,
,,,,,,,,,,,,,,1,001,2025-02-14_20h11.33.675,IAT(Formal),2021.2.3,Win32,70.42253521,,,,,,,,,,,,,,,,,,,,,,,,,,,,,,,,,,,,,,,,,,,,,,,,,,,,下贱,i,,,i,1,0.5945,1,3,83,49,1,,
,,,,,,,,,,,,,,1,001,2025-02-14_20h11.33.675,IAT(Formal),2021.2.3,Win32,70.42253521,,,,,,,,,,,,,,,,,,,,,,,,,,,,,,,,,,,,,,,,,,,,,,,,,,,,其他,e,,,e,1,0.572,1,4,84,9,1,,
,,,,,,,,,,,,,,1,001,2025-02-14_20h11.33.675,IAT(Formal),2021.2.3,Win32,70.42253521,,,,,,,,,,,,,,,,,,,,,,,,,,,,,,,,,,,,,,,,,,,,,,,,,,,,诚实,e,,,e,1,0.7909,1,5,85,15,1,,
,,,,,,,,,,,,,,1,001,2025-02-14_20h11.33.675,IAT(Formal),2021.2.3,Win32,70.42253521,,,,,,,,,,,,,,,,,,,,,,,,,,,,,,,,,,,,,,,,,,,,,,,,,,,,冒失,i,,,i,1,0.6914,1,6,86,39,1,,
,,,,,,,,,,,,,,1,001,2025-02-14_20h11.33.675,IAT(Formal),2021.2.3,Win32,70.42253521,,,,,,,,,,,,,,,,,,,,,,,,,,,,,,,,,,,,,,,,,,,,,,,,,,,,暴躁,i,,,i,1,0.6398,1,7,87,44,1,,
,,,,,,,,,,,,,,1,001,2025-02-14_20h11.33.675,IAT(Formal),2021.2.3,Win32,70.42253521,,,,,,,,,,,,,,,,,,,,,,,,,,,,,,,,,,,,,,,,,,,,,,,,,,,,我们,i,,,i,1,0.7726,1,8,88,52,1,,
,,,,,,,,,,,,,,1,001,2025-02-14_20h11.33.675,IAT(Formal),2021.2.3,Win32,70.42253521,,,,,,,,,,,,,,,,,,,,,,,,,,,,,,,,,,,,,,,,,,,,,,,,,,,,自己,i,,,i,1,0.6889,1,9,89,3,1,,
,,,,,,,,,,,,,,1,001,2025-02-14_20h11.33.675,IAT(Formal),2021.2.3,Win32,70.42253521,,,,,,,,,,,,,,,,,,,,,,,,,,,,,,,,,,,,,,,,,,,,,,,,,,,,轻率,i,,,e,0,0.6871,1,10,90,48,1,,
,,,,,,,,,,,,,,1,001,2025-02-14_20h11.33.675,IAT(Formal),2021.2.3,Win32,70.42253521,,,,,,,,,,,,,,,,,,,,,,,,,,,,,,,,,,,,,,,,,,,,,,,,,,,,鲁莽,i,,,i,1,0.8268,1,11,91,38,1,,
,,,,,,,,,,,,,,1,001,2025-02-14_20h11.33.675,IAT(Formal),2021.2.3,Win32,70.42253521,,,,,,,,,,,,,,,,,,,,,,,,,,,,,,,,,,,,,,,,,,,,,,,,,,,,聪明,e,,,e,1,0.632,1,12,92,12,1,,
,,,,,,,,,,,,,,1,001,2025-02-14_20h11.33.675,IAT(Formal),2021.2.3,Win32,70.42253521,,,,,,,,,,,,,,,,,,,,,,,,,,,,,,,,,,,,,,,,,,,,,,,,,,,,我的,i,,,i,1,0.6403,1,13,93,51,1,,
,,,,,,,,,,,,,,1,001,2025-02-14_20h11.33.675,IAT(Formal),2021.2.3,Win32,70.42253521,,,,,,,,,,,,,,,,,,,,,,,,,,,,,,,,,,,,,,,,,,,,,,,,,,,,我的,i,,,i,1,0.55,1,14,94,1,1,,
,,,,,,,,,,,,,,1,001,2025-02-14_20h11.33.675,IAT(Formal),2021.2.3,Win32,70.42253521,,,,,,,,,,,,,,,,,,,,,,,,,,,,,,,,,,,,,,,,,,,,,,,,,,,,俺,i,,,i,1,0.5561,1,15,95,4,1,,
,,,,,,,,,,,,,,1,001,2025-02-14_20h11.33.675,IAT(Formal),2021.2.3,Win32,70.42253521,,,,,,,,,,,,,,,,,,,,,,,,,,,,,,,,,,,,,,,,,,,,,,,,,,,,他,e,,,e,1,0.6137,1,16,96,75,1,,
,,,,,,,,,,,,,,1,001,2025-02-14_20h11.33.675,IAT(Formal),2021.2.3,Win32,70.42253521,,,,,,,,,,,,,,,,,,,,,,,,,,,,,,,,,,,,,,,,,,,,,,,,,,,,他们,e,,,e,1,0.5305,1,17,97,66,1,,
,,,,,,,,,,,,,,1,001,2025-02-14_20h11.33.675,IAT(Formal),2021.2.3,Win32,70.42253521,,,,,,,,,,,,,,,,,,,,,,,,,,,,,,,,,,,,,,,,,,,,,,,,,,,,热情,e,,,e,1,0.4605,1,18,98,27,1,,
,,,,,,,,,,,,,,1,001,2025-02-14_20h11.33.675,IAT(Formal),2021.2.3,Win32,70.42253521,,,,,,,,,,,,,,,,,,,,,,,,,,,,,,,,,,,,,,,,,,,,,,,,,,,,他的,e,,,e,1,0.4598,1,19,99,57,1,,
,,,,,,,,,,,,,,1,001,2025-02-14_20h11.33.675,IAT(Formal),2021.2.3,Win32,70.42253521,,,,,,,,,,,,,,,,,,,,,,,,,,,,,,,,,,,,,,,,,,,,,,,,,,,,俺,i,,,i,1,0.6413,1,20,100,54,1,,
,,,,,,,,,,,,,,1,001,2025-02-14_20h11.33.675,IAT(Formal),2021.2.3,Win32,70.42253521,,,,,,,,,,,,,,,,,,,,,,,,,,,,,,,,,,,,,,,,,,,,,,,,,,,,傲慢,i,,,i,1,0.987,1,21,101,37,1,,
,,,,,,,,,,,,,,1,001,2025-02-14_20h11.33.675,IAT(Formal),2021.2.3,Win32,70.42253521,,,,,,,,,,,,,,,,,,,,,,,,,,,,,,,,,,,,,,,,,,,,,,,,,,,,愚蠢,i,,,i,1,0.572,1,22,102,32,1,,
,,,,,,,,,,,,,,1,001,2025-02-14_20h11.33.675,IAT(Formal),2021.2.3,Win32,70.42253521,,,,,,,,,,,,,,,,,,,,,,,,,,,,,,,,,,,,,,,,,,,,,,,,,,,,无私,e,,,e,1,0.7132,1,23,103,22,1,,
,,,,,,,,,,,,,,1,001,2025-02-14_20h11.33.675,IAT(Formal),2021.2.3,Win32,70.42253521,,,,,,,,,,,,,,,,,,,,,,,,,,,,,,,,,,,,,,,,,,,,,,,,,,,,他人,e,,,e,1,0.5091,1,24,104,58,1,,
,,,,,,,,,,,,,,1,001,2025-02-14_20h11.33.675,IAT(Formal),2021.2.3,Win32,70.42253521,,,,,,,,,,,,,,,,,,,,,,,,,,,,,,,,,,,,,,,,,,,,,,,,,,,,我,i,,,i,1,0.5303,1,25,105,70,1,,
,,,,,,,,,,,,,,1,001,2025-02-14_20h11.33.675,IAT(Formal),2021.2.3,Win32,70.42253521,,,,,,,,,,,,,,,,,,,,,,,,,,,,,,,,,,,,,,,,,,,,,,,,,,,,他,e,,,e,1,0.4958,1,26,106,65,1,,
,,,,,,,,,,,,,,1,001,2025-02-14_20h11.33.675,IAT(Formal),2021.2.3,Win32,70.42253521,,,,,,,,,,,,,,,,,,,,,,,,,,,,,,,,,,,,,,,,,,,,,,,,,,,,冷静,e,,,e,1,1.0294,1,27,107,26,1,,
,,,,,,,,,,,,,,1,001,2025-02-14_20h11.33.675,IAT(Formal),2021.2.3,Win32,70.42253521,,,,,,,,,,,,,,,,,,,,,,,,,,,,,,,,,,,,,,,,,,,,,,,,,,,,细腻,e,,,e,1,0.6434,1,28,108,25,1,,
,,,,,,,,,,,,,,1,001,2025-02-14_20h11.33.675,IAT(Formal),2021.2.3,Win32,70.42253521,,,,,,,,,,,,,,,,,,,,,,,,,,,,,,,,,,,,,,,,,,,,,,,,,,,,自卑,i,,,i,1,0.5761,1,29,109,36,1,,
,,,,,,,,,,,,,,1,001,2025-02-14_20h11.33.675,IAT(Formal),2021.2.3,Win32,70.42253521,,,,,,,,,,,,,,,,,,,,,,,,,,,,,,,,,,,,,,,,,,,,,,,,,,,,他们,e,,,e,1,0.4801,1,30,110,76,1,,
,,,,,,,,,,,,,,1,001,2025-02-14_20h11.33.675,IAT(Formal),2021.2.3,Win32,70.42253521,,,,,,,,,,,,,,,,,,,,,,,,,,,,,,,,,,,,,,,,,,,,,,,,,,,,他人,e,,,e,1,0.6171,1,31,111,68,1,,
,,,,,,,,,,,,,,1,001,2025-02-14_20h11.33.675,IAT(Formal),2021.2.3,Win32,70.42253521,,,,,,,,,,,,,,,,,,,,,,,,,,,,,,,,,,,,,,,,,,,,,,,,,,,,他的,e,,,e,1,0.4393,1,32,112,77,1,,
,,,,,,,,,,,,,,1,001,2025-02-14_20h11.33.675,IAT(Formal),2021.2.3,Win32,70.42253521,,,,,,,,,,,,,,,,,,,,,,,,,,,,,,,,,,,,,,,,,,,,,,,,,,,,猖狂,i,,,i,1,0.5918,1,33,113,45,1,,
,,,,,,,,,,,,,,1,001,2025-02-14_20h11.33.675,IAT(Formal),2021.2.3,Win32,70.42253521,,,,,,,,,,,,,,,,,,,,,,,,,,,,,,,,,,,,,,,,,,,,,,,,,,,,勇敢,e,,,e,1,0.598,1,34,114,17,1,,
,,,,,,,,,,,,,,1,001,2025-02-14_20h11.33.675,IAT(Formal),2021.2.3,Win32,70.42253521,,,,,,,,,,,,,,,,,,,,,,,,,,,,,,,,,,,,,,,,,,,,,,,,,,,,我,i,,,i,1,0.4867,1,35,115,50,1,,
,,,,,,,,,,,,,,1,001,2025-02-14_20h11.33.675,IAT(Formal),2021.2.3,Win32,70.42253521,,,,,,,,,,,,,,,,,,,,,,,,,,,,,,,,,,,,,,,,,,,,,,,,,,,,他人,e,,,e,1,0.4587,1,36,116,8,1,,
,,,,,,,,,,,,,,1,001,2025-02-14_20h11.33.675,IAT(Formal),2021.2.3,Win32,70.42253521,,,,,,,,,,,,,,,,,,,,,,,,,,,,,,,,,,,,,,,,,,,,,,,,,,,,野蛮,i,,,i,1,0.9111,1,37,117,46,1,,
,,,,,,,,,,,,,,1,001,2025-02-14_20h11.33.675,IAT(Formal),2021.2.3,Win32,70.42253521,,,,,,,,,,,,,,,,,,,,,,,,,,,,,,,,,,,,,,,,,,,,,,,,,,,,他的,e,,,e,1,0.5282,1,38,118,67,1,,
,,,,,,,,,,,,,,1,001,2025-02-14_20h11.33.675,IAT(Formal),2021.2.3,Win32,70.42253521,,,,,,,,,,,,,,,,,,,,,,,,,,,,,,,,,,,,,,,,,,,,,,,,,,,,朴实,e,,,e,1,0.5613,1,39,119,24,1,,
,,,,,,,,,,,,,,1,001,2025-02-14_20h11.33.675,IAT(Formal),2021.2.3,Win32,70.42253521,,,,,,,,,,,,,,,,,,,,,,,,,,,,,,,,,,,,,,,,,,,,,,,,,,,,消极,i,,,e,0,0.6933,1,40,120,35,1,,
,,,,,,,,,,,,,,1,001,2025-02-14_20h11.33.675,IAT(Formal),2021.2.3,Win32,70.42253521,,,,,,,,,,,,,,,,,,,,,,,,,,,,,,,,,,,,,,,,,,,,,,,,,,,,其他,e,,,e,1,0.5606,1,41,121,59,1,,
,,,,,,,,,,,,,,1,001,2025-02-14_20h11.33.675,IAT(Formal),2021.2.3,Win32,70.42253521,,,,,,,,,,,,,,,,,,,,,,,,,,,,,,,,,,,,,,,,,,,,,,,,,,,,活泼,e,,,e,1,1.2494,1,42,122,28,1,,
,,,,,,,,,,,,,,1,001,2025-02-14_20h11.33.675,IAT(Formal),2021.2.3,Win32,70.42253521,,,,,,,,,,,,,,,,,,,,,,,,,,,,,,,,,,,,,,,,,,,,,,,,,,,,诚恳,e,,,e,1,0.7353,1,43,123,29,1,,
,,,,,,,,,,,,,,1,001,2025-02-14_20h11.33.675,IAT(Formal),2021.2.3,Win32,70.42253521,,,,,,,,,,,,,,,,,,,,,,,,,,,,,,,,,,,,,,,,,,,,,,,,,,,,杰出,e,,,e,1,0.5024,1,44,124,13,1,,
,,,,,,,,,,,,,,1,001,2025-02-14_20h11.33.675,IAT(Formal),2021.2.3,Win32,70.42253521,,,,,,,,,,,,,,,,,,,,,,,,,,,,,,,,,,,,,,,,,,,,,,,,,,,,稳重,e,,,e,1,0.7099,1,45,125,21,1,,
,,,,,,,,,,,,,,1,001,2025-02-14_20h11.33.675,IAT(Formal),2021.2.3,Win32,70.42253521,,,,,,,,,,,,,,,,,,,,,,,,,,,,,,,,,,,,,,,,,,,,,,,,,,,,认真,e,,,e,1,0.9271,1,46,126,20,1,,
,,,,,,,,,,,,,,1,001,2025-02-14_20h11.33.675,IAT(Formal),2021.2.3,Win32,70.42253521,,,,,,,,,,,,,,,,,,,,,,,,,,,,,,,,,,,,,,,,,,,,,,,,,,,,凶狠,i,,,i,1,0.8117,1,47,127,42,1,,
,,,,,,,,,,,,,,1,001,2025-02-14_20h11.33.675,IAT(Formal),2021.2.3,Win32,70.42253521,,,,,,,,,,,,,,,,,,,,,,,,,,,,,,,,,,,,,,,,,,,,,,,,,,,,乐观,e,,,e,1,0.4988,1,48,128,14,1,,
,,,,,,,,,,,,,,1,001,2025-02-14_20h11.33.675,IAT(Formal),2021.2.3,Win32,70.42253521,,,,,,,,,,,,,,,,,,,,,,,,,,,,,,,,,,,,,,,,,,,,,,,,,,,,我,i,,,i,1,0.6336,1,49,129,0,1,,
,,,,,,,,,,,,,,1,001,2025-02-14_20h11.33.675,IAT(Formal),2021.2.3,Win32,70.42253521,,,,,,,,,,,,,,,,,,,,,,,,,,,,,,,,,,,,,,,,,,,,,,,,,,,,我的,i,,,i,1,0.494,1,50,130,61,1,,
,,,,,,,,,,,,,,1,001,2025-02-14_20h11.33.675,IAT(Formal),2021.2.3,Win32,70.42253521,,,,,,,,,,,,,,,,,,,,,,,,,,,,,,,,,,,,,,,,,,,,,,,,,,,,崇高,e,,,e,1,0.7995,1,51,131,11,1,,
,,,,,,,,,,,,,,1,001,2025-02-14_20h11.33.675,IAT(Formal),2021.2.3,Win32,70.42253521,,,,,,,,,,,,,,,,,,,,,,,,,,,,,,,,,,,,,,,,,,,,,,,,,,,,虚伪,i,,,i,1,0.7754,1,52,132,31,1,,
,,,,,,,,,,,,,,1,001,2025-02-14_20h11.33.675,IAT(Formal),2021.2.3,Win32,70.42253521,,,,,,,,,,,,,,,,,,,,,,,,,,,,,,,,,,,,,,,,,,,,,,,,,,,,优秀,e,,,e,1,0.5951,1,53,133,10,1,,
,,,,,,,,,,,,,,1,001,2025-02-14_20h11.33.675,IAT(Formal),2021.2.3,Win32,70.42253521,,,,,,,,,,,,,,,,,,,,,,,,,,,,,,,,,,,,,,,,,,,,,,,,,,,,散漫,i,,,i,1,0.8948,1,54,134,41,1,,
,,,,,,,,,,,,,,1,001,2025-02-14_20h11.33.675,IAT(Formal),2021.2.3,Win32,70.42253521,,,,,,,,,,,,,,,,,,,,,,,,,,,,,,,,,,,,,,,,,,,,,,,,,,,,自己,i,,,i,1,0.6142,1,55,135,53,1,,
,,,,,,,,,,,,,,1,001,2025-02-14_20h11.33.675,IAT(Formal),2021.2.3,Win32,70.42253521,,,,,,,,,,,,,,,,,,,,,,,,,,,,,,,,,,,,,,,,,,,,,,,,,,,,其他,e,,,e,1,0.6212,1,56,136,69,1,,
,,,,,,,,,,,,,,1,001,2025-02-14_20h11.33.675,IAT(Formal),2021.2.3,Win32,70.42253521,,,,,,,,,,,,,,,,,,,,,,,,,,,,,,,,,,,,,,,,,,,,,,,,,,,,我们,i,,,i,1,0.5568,1,57,137,72,1,,
,,,,,,,,,,,,,,1,001,2025-02-14_20h11.33.675,IAT(Formal),2021.2.3,Win32,70.42253521,,,,,,,,,,,,,,,,,,,,,,,,,,,,,,,,,,,,,,,,,,,,,,,,,,,,他们,e,,,e,1,0.6526,1,58,138,6,1,,
,,,,,,,,,,,,,,1,001,2025-02-14_20h11.33.675,IAT(Formal),2021.2.3,Win32,70.42253521,,,,,,,,,,,,,,,,,,,,,,,,,,,,,,,,,,,,,,,,,,,,,,,,,,,,我们,i,,,i,1,0.5945,1,59,139,62,1,,
,,,,,,,,,,,,,,1,001,2025-02-14_20h11.33.675,IAT(Formal),2021.2.3,Win32,70.42253521,,,,,,,,,,,,,,,,,,,,,,,,,,,,,,,,,,,,,,,,,,,,,,,,,,,,俺,i,,,i,1,0.6299,1,60,140,64,1,,
,,,,,,,,,,,,,,1,001,2025-02-14_20h11.33.675,IAT(Formal),2021.2.3,Win32,70.42253521,,,,,,,,,,,,,,,,,,,,,,,,,,,,,,,,,,,,,,,,,,,,,,,,,,,,自己,i,,,i,1,0.5402,1,61,141,73,1,,
,,,,,,,,,,,,,,1,001,2025-02-14_20h11.33.675,IAT(Formal),2021.2.3,Win32,70.42253521,,,,,,,,,,,,,,,,,,,,,,,,,,,,,,,,,,,,,,,,,,,,,,,,,,,,悲观,i,,,i,1,0.8413,1,62,142,34,1,,
,,,,,,,,,,,,,,1,001,2025-02-14_20h11.33.675,IAT(Formal),2021.2.3,Win32,70.42253521,,,,,,,,,,,,,,,,,,,,,,,,,,,,,,,,,,,,,,,,,,,,,,,,,,,,刻薄,i,,,i,1,0.527,1,63,143,33,1,,
,,,,,,,,,,,,,,1,001,2025-02-14_20h11.33.675,IAT(Formal),2021.2.3,Win32,70.42253521,,,,,,,,,,,,,,,,,,,,,,,,,,,,,,,,,,,,,,,,,,,,,,,,,,,,其他,e,,,e,1,0.5618,1,64,144,79,1,,
,,,,,,,,,,,,,,1,001,2025-02-14_20h11.33.675,IAT(Formal),2021.2.3,Win32,70.42253521,,,,,,,,,,,,,,,,,,,,,,,,,,,,,,,,,,,,,,,,,,,,,,,,,,,,他,e,,,e,1,0.4539,1,65,145,55,1,,
,,,,,,,,,,,,,,1,001,2025-02-14_20h11.33.675,IAT(Formal),2021.2.3,Win32,70.42253521,,,,,,,,,,,,,,,,,,,,,,,,,,,,,,,,,,,,,,,,,,,,,,,,,,,,俺,i,,,i,1,0.7039,1,66,146,74,1,,
,,,,,,,,,,,,,,1,001,2025-02-14_20h11.33.675,IAT(Formal),2021.2.3,Win32,70.42253521,,,,,,,,,,,,,,,,,,,,,,,,,,,,,,,,,,,,,,,,,,,,,,,,,,,,正直,e,,,,0,,1,67,147,16,1,,
,,,,,,,,,,,,,,1,001,2025-02-14_20h11.33.675,IAT(Formal),2021.2.3,Win32,70.42253521,,,,,,,,,,,,,,,,,,,,,,,,,,,,,,,,,,,,,,,,,,,,,,,,,,,,他,e,,,e,1,0.635,1,68,148,5,1,,
,,,,,,,,,,,,,,1,001,2025-02-14_20h11.33.675,IAT(Formal),2021.2.3,Win32,70.42253521,,,,,,,,,,,,,,,,,,,,,,,,,,,,,,,,,,,,,,,,,,,,,,,,,,,,卑鄙,i,,,i,1,0.5777,1,69,149,30,1,,
,,,,,,,,,,,,,,1,001,2025-02-14_20h11.33.675,IAT(Formal),2021.2.3,Win32,70.42253521,,,,,,,,,,,,,,,,,,,,,,,,,,,,,,,,,,,,,,,,,,,,,,,,,,,,执拗,i,,,i,1,0.6439,1,70,150,40,1,,
,,,,,,,,,,,,,,1,001,2025-02-14_20h11.33.675,IAT(Formal),2021.2.3,Win32,70.42253521,,,,,,,,,,,,,,,,,,,,,,,,,,,,,,,,,,,,,,,,,,,,,,,,,,,,自己,i,,,e,0,0.5421,1,71,151,63,1,,
,,,,,,,,,,,,,,1,001,2025-02-14_20h11.33.675,IAT(Formal),2021.2.3,Win32,70.42253521,,,,,,,,,,,,,,,,,,,,,,,,,,,,,,,,,,,,,,,,,,,,,,,,,,,,固执,i,,,e,0,0.8017,1,72,152,47,1,,
,,,,,,,,,,,,,,1,001,2025-02-14_20h11.33.675,IAT(Formal),2021.2.3,Win32,70.42253521,,,,,,,,,,,,,,,,,,,,,,,,,,,,,,,,,,,,,,,,,,,,,,,,,,,,他的,e,,,e,1,1.296,1,73,153,7,1,,
,,,,,,,,,,,,,,1,001,2025-02-14_20h11.33.675,IAT(Formal),2021.2.3,Win32,70.42253521,,,,,,,,,,,,,,,,,,,,,,,,,,,,,,,,,,,,,,,,,,,,,,,,,,,,公正,e,,,e,1,0.8673,1,74,154,23,1,,
,,,,,,,,,,,,,,1,001,2025-02-14_20h11.33.675,IAT(Formal),2021.2.3,Win32,70.42253521,,,,,,,,,,,,,,,,,,,,,,,,,,,,,,,,,,,,,,,,,,,,,,,,,,,,自私,i,,,i,1,0.7706,1,75,155,43,1,,
,,,,,,,,,,,,,,1,001,2025-02-14_20h11.33.675,IAT(Formal),2021.2.3,Win32,70.42253521,,,,,,,,,,,,,,,,,,,,,,,,,,,,,,,,,,,,,,,,,,,,,,,,,,,,机智,e,,,i,0,0.7137,1,76,156,19,1,,
,,,,,,,,,,,,,,1,001,2025-02-14_20h11.33.675,IAT(Formal),2021.2.3,Win32,70.42253521,,,,,,,,,,,,,,,,,,,,,,,,,,,,,,,,,,,,,,,,,,,,,,,,,,,,我,i,,,i,1,0.6245,1,77,157,60,1,,
,,,,,,,,,,,,,,1,001,2025-02-14_20h11.33.675,IAT(Formal),2021.2.3,Win32,70.42253521,,,,,,,,,,,,,,,,,,,,,,,,,,,,,,,,,,,,,,,,,,,,,,,,,,,,勤奋,e,,,e,1,0.6993,1,78,158,18,1,,
,,,,,,,,,,,,,,1,001,2025-02-14_20h11.33.675,IAT(Formal),2021.2.3,Win32,70.42253521,,,,,,,,,,,,,,,,,,,,,,,,,,,,,,,,,,,,,,,,,,,,,,,,,,,,他们,e,,,e,1,0.471,1,79,159,56,1,,
,,,,,,,,,,,,,,1,001,2025-02-14_20h11.33.675,IAT(Formal),2021.2.3,Win32,70.42253521,,,,,,,,,,,,,,,,,,,,,,,,,,,,,,,,,,,,,,,,,,,,,,,,,,,,,,,,,,,,,,,,space,1.3886