"X.Instruction1.keys","Instruction1.rt","Instruction2.keys","Instruction2.rt","key_resp_iso.keys","key_resp_iso.corr","key_resp_iso.rt","Practice_01.thisRepN","Practice_01.thisTrialN","Practice_01.thisN","Practice_01.thisIndex","Practice_01.ran","Words","ans","participant","session","date","expName","psychopyVersion","OS","frameRate","key_resp_3.keys","key_resp_3.rt","key_resp_ipn.keys","key_resp_ipn.corr","key_resp_ipn.rt","Practice_02.thisRepN","Practice_02.thisTrialN","Practice_02.thisN","Practice_02.thisIndex","Practice_02.ran","Words_ipn","ans_ipn","key_resp_4.keys","key_resp_4.rt","key_resp_t1.keys","key_resp_t1.corr","key_resp_t1.rt","Practice_T1.thisRepN","Practice_T1.thisTrialN","Practice_T1.thisN","Practice_T1.thisIndex","Practice_T1.ran","Words_t1","ans_t1","key_resp_5.keys","key_resp_5.rt","Formal_T1.thisRepN","Formal_T1.thisTrialN","Formal_T1.thisN","Formal_T1.thisIndex","Formal_T1.ran","key_resp_6.keys","key_resp_6.rt","key_resp_iso_reverse.keys","key_resp_iso_reverse.corr","key_resp_iso_reverse.rt","Practice_iso_Reverse.thisRepN","Practice_iso_Reverse.thisTrialN","Practice_iso_Reverse.thisN","Practice_iso_Reverse.thisIndex","Practice_iso_Reverse.ran","key_resp_7.keys","key_resp_7.rt","key_resp_t2_Practice.keys","key_resp_t2_Practice.corr","key_resp_t2_Practice.rt","Practice_t2_Reverse.thisRepN","Practice_t2_Reverse.thisTrialN","Practice_t2_Reverse.thisN","Practice_t2_Reverse.thisIndex","Practice_t2_Reverse.ran","Words_t2","ans_t2","key_resp_8.keys","key_resp_8.rt","key_resp_t2.keys","key_resp_t2.corr","key_resp_t2.rt","Formal_t2_reverse.thisRepN","Formal_t2_reverse.thisTrialN","Formal_t2_reverse.thisN","Formal_t2_reverse.thisIndex","Formal_t2_reverse.ran","key_instruct.keys","key_instruct.rt","Subject"
"space",7.9827,"space",12.3179,"e",1,0.9808,0,0,0,2,1,"我们","e",1,1,"2024-08-23_15h31.13.642","IAT(Formal)","2021.2.3","Win32",60.60606061,"",NA,"",NA,NA,NA,NA,NA,NA,NA,"","","",NA,"",NA,NA,NA,NA,NA,NA,NA,"","","",NA,NA,NA,NA,NA,NA,"",NA,"",NA,NA,NA,NA,NA,NA,NA,"",NA,"",NA,NA,NA,NA,NA,NA,NA,"","","",NA,"",NA,NA,NA,NA,NA,NA,NA,"",NA,"9"
"",NA,"",NA,"i",1,0.4914,0,1,1,8,1,"他人","i",1,1,"2024-08-23_15h31.13.642","IAT(Formal)","2021.2.3","Win32",60.60606061,"",NA,"",NA,NA,NA,NA,NA,NA,NA,"","","",NA,"",NA,NA,NA,NA,NA,NA,NA,"","","",NA,NA,NA,NA,NA,NA,"",NA,"",NA,NA,NA,NA,NA,NA,NA,"",NA,"",NA,NA,NA,NA,NA,NA,NA,"","","",NA,"",NA,NA,NA,NA,NA,NA,NA,"",NA,"9"
"",NA,"",NA,"i",1,0.7218,0,2,2,9,1,"其他","i",1,1,"2024-08-23_15h31.13.642","IAT(Formal)","2021.2.3","Win32",60.60606061,"",NA,"",NA,NA,NA,NA,NA,NA,NA,"","","",NA,"",NA,NA,NA,NA,NA,NA,NA,"","","",NA,NA,NA,NA,NA,NA,"",NA,"",NA,NA,NA,NA,NA,NA,NA,"",NA,"",NA,NA,NA,NA,NA,NA,NA,"","","",NA,"",NA,NA,NA,NA,NA,NA,NA,"",NA,"9"
"",NA,"",NA,"e",1,0.4419,0,3,3,1,1,"我的","e",1,1,"2024-08-23_15h31.13.642","IAT(Formal)","2021.2.3","Win32",60.60606061,"",NA,"",NA,NA,NA,NA,NA,NA,NA,"","","",NA,"",NA,NA,NA,NA,NA,NA,NA,"","","",NA,NA,NA,NA,NA,NA,"",NA,"",NA,NA,NA,NA,NA,NA,NA,"",NA,"",NA,NA,NA,NA,NA,NA,NA,"","","",NA,"",NA,NA,NA,NA,NA,NA,NA,"",NA,"9"
"",NA,"",NA,"e",1,0.5339,0,4,4,0,1,"我","e",1,1,"2024-08-23_15h31.13.642","IAT(Formal)","2021.2.3","Win32",60.60606061,"",NA,"",NA,NA,NA,NA,NA,NA,NA,"","","",NA,"",NA,NA,NA,NA,NA,NA,NA,"","","",NA,NA,NA,NA,NA,NA,"",NA,"",NA,NA,NA,NA,NA,NA,NA,"",NA,"",NA,NA,NA,NA,NA,NA,NA,"","","",NA,"",NA,NA,NA,NA,NA,NA,NA,"",NA,"9"
"",NA,"",NA,"i",1,0.7907,0,5,5,7,1,"他的","i",1,1,"2024-08-23_15h31.13.642","IAT(Formal)","2021.2.3","Win32",60.60606061,"",NA,"",NA,NA,NA,NA,NA,NA,NA,"","","",NA,"",NA,NA,NA,NA,NA,NA,NA,"","","",NA,NA,NA,NA,NA,NA,"",NA,"",NA,NA,NA,NA,NA,NA,NA,"",NA,"",NA,NA,NA,NA,NA,NA,NA,"","","",NA,"",NA,NA,NA,NA,NA,NA,NA,"",NA,"9"
"",NA,"",NA,"i",1,0.5109,0,6,6,6,1,"他们","i",1,1,"2024-08-23_15h31.13.642","IAT(Formal)","2021.2.3","Win32",60.60606061,"",NA,"",NA,NA,NA,NA,NA,NA,NA,"","","",NA,"",NA,NA,NA,NA,NA,NA,NA,"","","",NA,NA,NA,NA,NA,NA,"",NA,"",NA,NA,NA,NA,NA,NA,NA,"",NA,"",NA,NA,NA,NA,NA,NA,NA,"","","",NA,"",NA,NA,NA,NA,NA,NA,NA,"",NA,"9"
"",NA,"",NA,"e",1,0.7569,0,7,7,3,1,"自己","e",1,1,"2024-08-23_15h31.13.642","IAT(Formal)","2021.2.3","Win32",60.60606061,"",NA,"",NA,NA,NA,NA,NA,NA,NA,"","","",NA,"",NA,NA,NA,NA,NA,NA,NA,"","","",NA,NA,NA,NA,NA,NA,"",NA,"",NA,NA,NA,NA,NA,NA,NA,"",NA,"",NA,NA,NA,NA,NA,NA,NA,"","","",NA,"",NA,NA,NA,NA,NA,NA,NA,"",NA,"9"
"",NA,"",NA,"i",1,0.8189,0,8,8,5,1,"他","i",1,1,"2024-08-23_15h31.13.642","IAT(Formal)","2021.2.3","Win32",60.60606061,"",NA,"",NA,NA,NA,NA,NA,NA,NA,"","","",NA,"",NA,NA,NA,NA,NA,NA,NA,"","","",NA,NA,NA,NA,NA,NA,"",NA,"",NA,NA,NA,NA,NA,NA,NA,"",NA,"",NA,NA,NA,NA,NA,NA,NA,"","","",NA,"",NA,NA,NA,NA,NA,NA,NA,"",NA,"9"
"",NA,"",NA,"e",1,1.1349,0,9,9,4,1,"俺","e",1,1,"2024-08-23_15h31.13.642","IAT(Formal)","2021.2.3","Win32",60.60606061,"",NA,"",NA,NA,NA,NA,NA,NA,NA,"","","",NA,"",NA,NA,NA,NA,NA,NA,NA,"","","",NA,NA,NA,NA,NA,NA,"",NA,"",NA,NA,NA,NA,NA,NA,NA,"",NA,"",NA,NA,NA,NA,NA,NA,NA,"","","",NA,"",NA,NA,NA,NA,NA,NA,NA,"",NA,"9"
"",NA,"",NA,"",NA,NA,NA,NA,NA,NA,NA,"","",1,1,"2024-08-23_15h31.13.642","IAT(Formal)","2021.2.3","Win32",60.60606061,"space",1.3969,"e",1,1.1571,0,0,0,18,1,"活泼","e","",NA,"",NA,NA,NA,NA,NA,NA,NA,"","","",NA,NA,NA,NA,NA,NA,"",NA,"",NA,NA,NA,NA,NA,NA,NA,"",NA,"",NA,NA,NA,NA,NA,NA,NA,"","","",NA,"",NA,NA,NA,NA,NA,NA,NA,"",NA,"9"
"",NA,"",NA,"",NA,NA,NA,NA,NA,NA,NA,"","",1,1,"2024-08-23_15h31.13.642","IAT(Formal)","2021.2.3","Win32",60.60606061,"",NA,"e",1,0.7757,0,1,1,5,1,"诚实","e","",NA,"",NA,NA,NA,NA,NA,NA,NA,"","","",NA,NA,NA,NA,NA,NA,"",NA,"",NA,NA,NA,NA,NA,NA,NA,"",NA,"",NA,NA,NA,NA,NA,NA,NA,"","","",NA,"",NA,NA,NA,NA,NA,NA,NA,"",NA,"9"
"",NA,"",NA,"",NA,NA,NA,NA,NA,NA,NA,"","",1,1,"2024-08-23_15h31.13.642","IAT(Formal)","2021.2.3","Win32",60.60606061,"",NA,"i",1,0.7934,0,2,2,20,1,"卑鄙","i","",NA,"",NA,NA,NA,NA,NA,NA,NA,"","","",NA,NA,NA,NA,NA,NA,"",NA,"",NA,NA,NA,NA,NA,NA,NA,"",NA,"",NA,NA,NA,NA,NA,NA,NA,"","","",NA,"",NA,NA,NA,NA,NA,NA,NA,"",NA,"9"
"",NA,"",NA,"",NA,NA,NA,NA,NA,NA,NA,"","",1,1,"2024-08-23_15h31.13.642","IAT(Formal)","2021.2.3","Win32",60.60606061,"",NA,"i",1,0.5228,0,3,3,21,1,"虚伪","i","",NA,"",NA,NA,NA,NA,NA,NA,NA,"","","",NA,NA,NA,NA,NA,NA,"",NA,"",NA,NA,NA,NA,NA,NA,NA,"",NA,"",NA,NA,NA,NA,NA,NA,NA,"","","",NA,"",NA,NA,NA,NA,NA,NA,NA,"",NA,"9"
"",NA,"",NA,"",NA,NA,NA,NA,NA,NA,NA,"","",1,1,"2024-08-23_15h31.13.642","IAT(Formal)","2021.2.3","Win32",60.60606061,"",NA,"e",1,0.6433,0,4,4,0,1,"优秀","e","",NA,"",NA,NA,NA,NA,NA,NA,NA,"","","",NA,NA,NA,NA,NA,NA,"",NA,"",NA,NA,NA,NA,NA,NA,NA,"",NA,"",NA,NA,NA,NA,NA,NA,NA,"","","",NA,"",NA,NA,NA,NA,NA,NA,NA,"",NA,"9"
"",NA,"",NA,"",NA,NA,NA,NA,NA,NA,NA,"","",1,1,"2024-08-23_15h31.13.642","IAT(Formal)","2021.2.3","Win32",60.60606061,"",NA,"i",1,0.7682,0,5,5,33,1,"自私","i","",NA,"",NA,NA,NA,NA,NA,NA,NA,"","","",NA,NA,NA,NA,NA,NA,"",NA,"",NA,NA,NA,NA,NA,NA,NA,"",NA,"",NA,NA,NA,NA,NA,NA,NA,"","","",NA,"",NA,NA,NA,NA,NA,NA,NA,"",NA,"9"
"",NA,"",NA,"",NA,NA,NA,NA,NA,NA,NA,"","",1,1,"2024-08-23_15h31.13.642","IAT(Formal)","2021.2.3","Win32",60.60606061,"",NA,"i",1,0.7245,0,6,6,39,1,"下贱","i","",NA,"",NA,NA,NA,NA,NA,NA,NA,"","","",NA,NA,NA,NA,NA,NA,"",NA,"",NA,NA,NA,NA,NA,NA,NA,"",NA,"",NA,NA,NA,NA,NA,NA,NA,"","","",NA,"",NA,NA,NA,NA,NA,NA,NA,"",NA,"9"
"",NA,"",NA,"",NA,NA,NA,NA,NA,NA,NA,"","",1,1,"2024-08-23_15h31.13.642","IAT(Formal)","2021.2.3","Win32",60.60606061,"",NA,"i",0,0.5613,0,7,7,12,1,"无私","e","",NA,"",NA,NA,NA,NA,NA,NA,NA,"","","",NA,NA,NA,NA,NA,NA,"",NA,"",NA,NA,NA,NA,NA,NA,NA,"",NA,"",NA,NA,NA,NA,NA,NA,NA,"","","",NA,"",NA,NA,NA,NA,NA,NA,NA,"",NA,"9"
"",NA,"",NA,"",NA,NA,NA,NA,NA,NA,NA,"","",1,1,"2024-08-23_15h31.13.642","IAT(Formal)","2021.2.3","Win32",60.60606061,"",NA,"i",1,0.9884,0,8,8,28,1,"鲁莽","i","",NA,"",NA,NA,NA,NA,NA,NA,NA,"","","",NA,NA,NA,NA,NA,NA,"",NA,"",NA,NA,NA,NA,NA,NA,NA,"",NA,"",NA,NA,NA,NA,NA,NA,NA,"","","",NA,"",NA,NA,NA,NA,NA,NA,NA,"",NA,"9"
"",NA,"",NA,"",NA,NA,NA,NA,NA,NA,NA,"","",1,1,"2024-08-23_15h31.13.642","IAT(Formal)","2021.2.3","Win32",60.60606061,"",NA,"e",1,0.826,0,9,9,10,1,"认真","e","",NA,"",NA,NA,NA,NA,NA,NA,NA,"","","",NA,NA,NA,NA,NA,NA,"",NA,"",NA,NA,NA,NA,NA,NA,NA,"",NA,"",NA,NA,NA,NA,NA,NA,NA,"","","",NA,"",NA,NA,NA,NA,NA,NA,NA,"",NA,"9"
"",NA,"",NA,"",NA,NA,NA,NA,NA,NA,NA,"","",1,1,"2024-08-23_15h31.13.642","IAT(Formal)","2021.2.3","Win32",60.60606061,"",NA,"e",1,0.6912,0,10,10,2,1,"聪明","e","",NA,"",NA,NA,NA,NA,NA,NA,NA,"","","",NA,NA,NA,NA,NA,NA,"",NA,"",NA,NA,NA,NA,NA,NA,NA,"",NA,"",NA,NA,NA,NA,NA,NA,NA,"","","",NA,"",NA,NA,NA,NA,NA,NA,NA,"",NA,"9"
"",NA,"",NA,"",NA,NA,NA,NA,NA,NA,NA,"","",1,1,"2024-08-23_15h31.13.642","IAT(Formal)","2021.2.3","Win32",60.60606061,"",NA,"e",1,0.6723,0,11,11,8,1,"勤奋","e","",NA,"",NA,NA,NA,NA,NA,NA,NA,"","","",NA,NA,NA,NA,NA,NA,"",NA,"",NA,NA,NA,NA,NA,NA,NA,"",NA,"",NA,NA,NA,NA,NA,NA,NA,"","","",NA,"",NA,NA,NA,NA,NA,NA,NA,"",NA,"9"
"",NA,"",NA,"",NA,NA,NA,NA,NA,NA,NA,"","",1,1,"2024-08-23_15h31.13.642","IAT(Formal)","2021.2.3","Win32",60.60606061,"",NA,"e",1,0.615,0,12,12,15,1,"细腻","e","",NA,"",NA,NA,NA,NA,NA,NA,NA,"","","",NA,NA,NA,NA,NA,NA,"",NA,"",NA,NA,NA,NA,NA,NA,NA,"",NA,"",NA,NA,NA,NA,NA,NA,NA,"","","",NA,"",NA,NA,NA,NA,NA,NA,NA,"",NA,"9"
"",NA,"",NA,"",NA,NA,NA,NA,NA,NA,NA,"","",1,1,"2024-08-23_15h31.13.642","IAT(Formal)","2021.2.3","Win32",60.60606061,"",NA,"e",1,0.5059,0,13,13,19,1,"诚恳","e","",NA,"",NA,NA,NA,NA,NA,NA,NA,"","","",NA,NA,NA,NA,NA,NA,"",NA,"",NA,NA,NA,NA,NA,NA,NA,"",NA,"",NA,NA,NA,NA,NA,NA,NA,"","","",NA,"",NA,NA,NA,NA,NA,NA,NA,"",NA,"9"
"",NA,"",NA,"",NA,NA,NA,NA,NA,NA,NA,"","",1,1,"2024-08-23_15h31.13.642","IAT(Formal)","2021.2.3","Win32",60.60606061,"",NA,"i",1,0.7757,0,14,14,29,1,"冒失","i","",NA,"",NA,NA,NA,NA,NA,NA,NA,"","","",NA,NA,NA,NA,NA,NA,"",NA,"",NA,NA,NA,NA,NA,NA,NA,"",NA,"",NA,NA,NA,NA,NA,NA,NA,"","","",NA,"",NA,NA,NA,NA,NA,NA,NA,"",NA,"9"
"",NA,"",NA,"",NA,NA,NA,NA,NA,NA,NA,"","",1,1,"2024-08-23_15h31.13.642","IAT(Formal)","2021.2.3","Win32",60.60606061,"",NA,"e",1,0.7004,0,15,15,7,1,"勇敢","e","",NA,"",NA,NA,NA,NA,NA,NA,NA,"","","",NA,NA,NA,NA,NA,NA,"",NA,"",NA,NA,NA,NA,NA,NA,NA,"",NA,"",NA,NA,NA,NA,NA,NA,NA,"","","",NA,"",NA,NA,NA,NA,NA,NA,NA,"",NA,"9"
"",NA,"",NA,"",NA,NA,NA,NA,NA,NA,NA,"","",1,1,"2024-08-23_15h31.13.642","IAT(Formal)","2021.2.3","Win32",60.60606061,"",NA,"i",1,0.6205,0,16,16,25,1,"消极","i","",NA,"",NA,NA,NA,NA,NA,NA,NA,"","","",NA,NA,NA,NA,NA,NA,"",NA,"",NA,NA,NA,NA,NA,NA,NA,"",NA,"",NA,NA,NA,NA,NA,NA,NA,"","","",NA,"",NA,NA,NA,NA,NA,NA,NA,"",NA,"9"
"",NA,"",NA,"",NA,NA,NA,NA,NA,NA,NA,"","",1,1,"2024-08-23_15h31.13.642","IAT(Formal)","2021.2.3","Win32",60.60606061,"",NA,"i",1,1.2405,0,17,17,38,1,"轻率","i","",NA,"",NA,NA,NA,NA,NA,NA,NA,"","","",NA,NA,NA,NA,NA,NA,"",NA,"",NA,NA,NA,NA,NA,NA,NA,"",NA,"",NA,NA,NA,NA,NA,NA,NA,"","","",NA,"",NA,NA,NA,NA,NA,NA,NA,"",NA,"9"
"",NA,"",NA,"",NA,NA,NA,NA,NA,NA,NA,"","",1,1,"2024-08-23_15h31.13.642","IAT(Formal)","2021.2.3","Win32",60.60606061,"",NA,"e",1,0.6797,0,18,18,16,1,"冷静","e","",NA,"",NA,NA,NA,NA,NA,NA,NA,"","","",NA,NA,NA,NA,NA,NA,"",NA,"",NA,NA,NA,NA,NA,NA,NA,"",NA,"",NA,NA,NA,NA,NA,NA,NA,"","","",NA,"",NA,NA,NA,NA,NA,NA,NA,"",NA,"9"
"",NA,"",NA,"",NA,NA,NA,NA,NA,NA,NA,"","",1,1,"2024-08-23_15h31.13.642","IAT(Formal)","2021.2.3","Win32",60.60606061,"",NA,"i",1,1.094,0,19,19,23,1,"刻薄","i","",NA,"",NA,NA,NA,NA,NA,NA,NA,"","","",NA,NA,NA,NA,NA,NA,"",NA,"",NA,NA,NA,NA,NA,NA,NA,"",NA,"",NA,NA,NA,NA,NA,NA,NA,"","","",NA,"",NA,NA,NA,NA,NA,NA,NA,"",NA,"9"
"",NA,"",NA,"",NA,NA,NA,NA,NA,NA,NA,"","",1,1,"2024-08-23_15h31.13.642","IAT(Formal)","2021.2.3","Win32",60.60606061,"",NA,"i",1,1.0064,0,20,20,27,1,"傲慢","i","",NA,"",NA,NA,NA,NA,NA,NA,NA,"","","",NA,NA,NA,NA,NA,NA,"",NA,"",NA,NA,NA,NA,NA,NA,NA,"",NA,"",NA,NA,NA,NA,NA,NA,NA,"","","",NA,"",NA,NA,NA,NA,NA,NA,NA,"",NA,"9"
"",NA,"",NA,"",NA,NA,NA,NA,NA,NA,NA,"","",1,1,"2024-08-23_15h31.13.642","IAT(Formal)","2021.2.3","Win32",60.60606061,"",NA,"i",1,0.8823,0,21,21,34,1,"暴躁","i","",NA,"",NA,NA,NA,NA,NA,NA,NA,"","","",NA,NA,NA,NA,NA,NA,"",NA,"",NA,NA,NA,NA,NA,NA,NA,"",NA,"",NA,NA,NA,NA,NA,NA,NA,"","","",NA,"",NA,NA,NA,NA,NA,NA,NA,"",NA,"9"
"",NA,"",NA,"",NA,NA,NA,NA,NA,NA,NA,"","",1,1,"2024-08-23_15h31.13.642","IAT(Formal)","2021.2.3","Win32",60.60606061,"",NA,"e",1,0.8567,0,22,22,3,1,"杰出","e","",NA,"",NA,NA,NA,NA,NA,NA,NA,"","","",NA,NA,NA,NA,NA,NA,"",NA,"",NA,NA,NA,NA,NA,NA,NA,"",NA,"",NA,NA,NA,NA,NA,NA,NA,"","","",NA,"",NA,NA,NA,NA,NA,NA,NA,"",NA,"9"
"",NA,"",NA,"",NA,NA,NA,NA,NA,NA,NA,"","",1,1,"2024-08-23_15h31.13.642","IAT(Formal)","2021.2.3","Win32",60.60606061,"",NA,"i",1,0.6747,0,23,23,24,1,"悲观","i","",NA,"",NA,NA,NA,NA,NA,NA,NA,"","","",NA,NA,NA,NA,NA,NA,"",NA,"",NA,NA,NA,NA,NA,NA,NA,"",NA,"",NA,NA,NA,NA,NA,NA,NA,"","","",NA,"",NA,NA,NA,NA,NA,NA,NA,"",NA,"9"
"",NA,"",NA,"",NA,NA,NA,NA,NA,NA,NA,"","",1,1,"2024-08-23_15h31.13.642","IAT(Formal)","2021.2.3","Win32",60.60606061,"",NA,"i",1,0.6227,0,24,24,30,1,"执拗","i","",NA,"",NA,NA,NA,NA,NA,NA,NA,"","","",NA,NA,NA,NA,NA,NA,"",NA,"",NA,NA,NA,NA,NA,NA,NA,"",NA,"",NA,NA,NA,NA,NA,NA,NA,"","","",NA,"",NA,NA,NA,NA,NA,NA,NA,"",NA,"9"
"",NA,"",NA,"",NA,NA,NA,NA,NA,NA,NA,"","",1,1,"2024-08-23_15h31.13.642","IAT(Formal)","2021.2.3","Win32",60.60606061,"",NA,"e",1,0.6305,0,25,25,9,1,"机智","e","",NA,"",NA,NA,NA,NA,NA,NA,NA,"","","",NA,NA,NA,NA,NA,NA,"",NA,"",NA,NA,NA,NA,NA,NA,NA,"",NA,"",NA,NA,NA,NA,NA,NA,NA,"","","",NA,"",NA,NA,NA,NA,NA,NA,NA,"",NA,"9"
"",NA,"",NA,"",NA,NA,NA,NA,NA,NA,NA,"","",1,1,"2024-08-23_15h31.13.642","IAT(Formal)","2021.2.3","Win32",60.60606061,"",NA,"e",1,0.9241,0,26,26,1,1,"崇高","e","",NA,"",NA,NA,NA,NA,NA,NA,NA,"","","",NA,NA,NA,NA,NA,NA,"",NA,"",NA,NA,NA,NA,NA,NA,NA,"",NA,"",NA,NA,NA,NA,NA,NA,NA,"","","",NA,"",NA,NA,NA,NA,NA,NA,NA,"",NA,"9"
"",NA,"",NA,"",NA,NA,NA,NA,NA,NA,NA,"","",1,1,"2024-08-23_15h31.13.642","IAT(Formal)","2021.2.3","Win32",60.60606061,"",NA,"e",1,0.7296,0,27,27,4,1,"乐观","e","",NA,"",NA,NA,NA,NA,NA,NA,NA,"","","",NA,NA,NA,NA,NA,NA,"",NA,"",NA,NA,NA,NA,NA,NA,NA,"",NA,"",NA,NA,NA,NA,NA,NA,NA,"","","",NA,"",NA,NA,NA,NA,NA,NA,NA,"",NA,"9"
"",NA,"",NA,"",NA,NA,NA,NA,NA,NA,NA,"","",1,1,"2024-08-23_15h31.13.642","IAT(Formal)","2021.2.3","Win32",60.60606061,"",NA,"e",1,0.6954,0,28,28,6,1,"正直","e","",NA,"",NA,NA,NA,NA,NA,NA,NA,"","","",NA,NA,NA,NA,NA,NA,"",NA,"",NA,NA,NA,NA,NA,NA,NA,"",NA,"",NA,NA,NA,NA,NA,NA,NA,"","","",NA,"",NA,NA,NA,NA,NA,NA,NA,"",NA,"9"
"",NA,"",NA,"",NA,NA,NA,NA,NA,NA,NA,"","",1,1,"2024-08-23_15h31.13.642","IAT(Formal)","2021.2.3","Win32",60.60606061,"",NA,"e",0,0.762,0,29,29,35,1,"猖狂","i","",NA,"",NA,NA,NA,NA,NA,NA,NA,"","","",NA,NA,NA,NA,NA,NA,"",NA,"",NA,NA,NA,NA,NA,NA,NA,"",NA,"",NA,NA,NA,NA,NA,NA,NA,"","","",NA,"",NA,NA,NA,NA,NA,NA,NA,"",NA,"9"
"",NA,"",NA,"",NA,NA,NA,NA,NA,NA,NA,"","",1,1,"2024-08-23_15h31.13.642","IAT(Formal)","2021.2.3","Win32",60.60606061,"",NA,"e",1,0.728,0,30,30,11,1,"稳重","e","",NA,"",NA,NA,NA,NA,NA,NA,NA,"","","",NA,NA,NA,NA,NA,NA,"",NA,"",NA,NA,NA,NA,NA,NA,NA,"",NA,"",NA,NA,NA,NA,NA,NA,NA,"","","",NA,"",NA,NA,NA,NA,NA,NA,NA,"",NA,"9"
"",NA,"",NA,"",NA,NA,NA,NA,NA,NA,NA,"","",1,1,"2024-08-23_15h31.13.642","IAT(Formal)","2021.2.3","Win32",60.60606061,"",NA,"e",1,0.5984,0,31,31,14,1,"朴实","e","",NA,"",NA,NA,NA,NA,NA,NA,NA,"","","",NA,NA,NA,NA,NA,NA,"",NA,"",NA,NA,NA,NA,NA,NA,NA,"",NA,"",NA,NA,NA,NA,NA,NA,NA,"","","",NA,"",NA,NA,NA,NA,NA,NA,NA,"",NA,"9"
"",NA,"",NA,"",NA,NA,NA,NA,NA,NA,NA,"","",1,1,"2024-08-23_15h31.13.642","IAT(Formal)","2021.2.3","Win32",60.60606061,"",NA,"i",1,0.8728,0,32,32,32,1,"凶狠","i","",NA,"",NA,NA,NA,NA,NA,NA,NA,"","","",NA,NA,NA,NA,NA,NA,"",NA,"",NA,NA,NA,NA,NA,NA,NA,"",NA,"",NA,NA,NA,NA,NA,NA,NA,"","","",NA,"",NA,NA,NA,NA,NA,NA,NA,"",NA,"9"
"",NA,"",NA,"",NA,NA,NA,NA,NA,NA,NA,"","",1,1,"2024-08-23_15h31.13.642","IAT(Formal)","2021.2.3","Win32",60.60606061,"",NA,"",0,NA,0,33,33,37,1,"固执","i","",NA,"",NA,NA,NA,NA,NA,NA,NA,"","","",NA,NA,NA,NA,NA,NA,"",NA,"",NA,NA,NA,NA,NA,NA,NA,"",NA,"",NA,NA,NA,NA,NA,NA,NA,"","","",NA,"",NA,NA,NA,NA,NA,NA,NA,"",NA,"9"
"",NA,"",NA,"",NA,NA,NA,NA,NA,NA,NA,"","",1,1,"2024-08-23_15h31.13.642","IAT(Formal)","2021.2.3","Win32",60.60606061,"",NA,"e",1,0.5923,0,34,34,17,1,"热情","e","",NA,"",NA,NA,NA,NA,NA,NA,NA,"","","",NA,NA,NA,NA,NA,NA,"",NA,"",NA,NA,NA,NA,NA,NA,NA,"",NA,"",NA,NA,NA,NA,NA,NA,NA,"","","",NA,"",NA,NA,NA,NA,NA,NA,NA,"",NA,"9"
"",NA,"",NA,"",NA,NA,NA,NA,NA,NA,NA,"","",1,1,"2024-08-23_15h31.13.642","IAT(Formal)","2021.2.3","Win32",60.60606061,"",NA,"i",1,0.5367,0,35,35,22,1,"愚蠢","i","",NA,"",NA,NA,NA,NA,NA,NA,NA,"","","",NA,NA,NA,NA,NA,NA,"",NA,"",NA,NA,NA,NA,NA,NA,NA,"",NA,"",NA,NA,NA,NA,NA,NA,NA,"","","",NA,"",NA,NA,NA,NA,NA,NA,NA,"",NA,"9"
"",NA,"",NA,"",NA,NA,NA,NA,NA,NA,NA,"","",1,1,"2024-08-23_15h31.13.642","IAT(Formal)","2021.2.3","Win32",60.60606061,"",NA,"i",1,0.7243,0,36,36,31,1,"散漫","i","",NA,"",NA,NA,NA,NA,NA,NA,NA,"","","",NA,NA,NA,NA,NA,NA,"",NA,"",NA,NA,NA,NA,NA,NA,NA,"",NA,"",NA,NA,NA,NA,NA,NA,NA,"","","",NA,"",NA,NA,NA,NA,NA,NA,NA,"",NA,"9"
"",NA,"",NA,"",NA,NA,NA,NA,NA,NA,NA,"","",1,1,"2024-08-23_15h31.13.642","IAT(Formal)","2021.2.3","Win32",60.60606061,"",NA,"i",1,0.5756,0,37,37,36,1,"野蛮","i","",NA,"",NA,NA,NA,NA,NA,NA,NA,"","","",NA,NA,NA,NA,NA,NA,"",NA,"",NA,NA,NA,NA,NA,NA,NA,"",NA,"",NA,NA,NA,NA,NA,NA,NA,"","","",NA,"",NA,NA,NA,NA,NA,NA,NA,"",NA,"9"
"",NA,"",NA,"",NA,NA,NA,NA,NA,NA,NA,"","",1,1,"2024-08-23_15h31.13.642","IAT(Formal)","2021.2.3","Win32",60.60606061,"",NA,"i",1,0.714,0,38,38,26,1,"自卑","i","",NA,"",NA,NA,NA,NA,NA,NA,NA,"","","",NA,NA,NA,NA,NA,NA,"",NA,"",NA,NA,NA,NA,NA,NA,NA,"",NA,"",NA,NA,NA,NA,NA,NA,NA,"","","",NA,"",NA,NA,NA,NA,NA,NA,NA,"",NA,"9"
"",NA,"",NA,"",NA,NA,NA,NA,NA,NA,NA,"","",1,1,"2024-08-23_15h31.13.642","IAT(Formal)","2021.2.3","Win32",60.60606061,"",NA,"e",1,0.8587,0,39,39,13,1,"公正","e","",NA,"",NA,NA,NA,NA,NA,NA,NA,"","","",NA,NA,NA,NA,NA,NA,"",NA,"",NA,NA,NA,NA,NA,NA,NA,"",NA,"",NA,NA,NA,NA,NA,NA,NA,"","","",NA,"",NA,NA,NA,NA,NA,NA,NA,"",NA,"9"
"",NA,"",NA,"",NA,NA,NA,NA,NA,NA,NA,"","",1,1,"2024-08-23_15h31.13.642","IAT(Formal)","2021.2.3","Win32",60.60606061,"",NA,"",NA,NA,NA,NA,NA,NA,NA,"","","space",11.8409,"e",1,1.3218,0,0,0,22,1,"无私","e","",NA,NA,NA,NA,NA,NA,"",NA,"",NA,NA,NA,NA,NA,NA,NA,"",NA,"",NA,NA,NA,NA,NA,NA,NA,"","","",NA,"",NA,NA,NA,NA,NA,NA,NA,"",NA,"9"
"",NA,"",NA,"",NA,NA,NA,NA,NA,NA,NA,"","",1,1,"2024-08-23_15h31.13.642","IAT(Formal)","2021.2.3","Win32",60.60606061,"",NA,"",NA,NA,NA,NA,NA,NA,NA,"","","",NA,"i",1,0.6903,0,1,1,79,1,"其他","i","",NA,NA,NA,NA,NA,NA,"",NA,"",NA,NA,NA,NA,NA,NA,NA,"",NA,"",NA,NA,NA,NA,NA,NA,NA,"","","",NA,"",NA,NA,NA,NA,NA,NA,NA,"",NA,"9"
"",NA,"",NA,"",NA,NA,NA,NA,NA,NA,NA,"","",1,1,"2024-08-23_15h31.13.642","IAT(Formal)","2021.2.3","Win32",60.60606061,"",NA,"",NA,NA,NA,NA,NA,NA,NA,"","","",NA,"i",1,0.5635,0,2,2,7,1,"他的","i","",NA,NA,NA,NA,NA,NA,"",NA,"",NA,NA,NA,NA,NA,NA,NA,"",NA,"",NA,NA,NA,NA,NA,NA,NA,"","","",NA,"",NA,NA,NA,NA,NA,NA,NA,"",NA,"9"
"",NA,"",NA,"",NA,NA,NA,NA,NA,NA,NA,"","",1,1,"2024-08-23_15h31.13.642","IAT(Formal)","2021.2.3","Win32",60.60606061,"",NA,"",NA,NA,NA,NA,NA,NA,NA,"","","",NA,"e",1,0.6795,0,3,3,53,1,"自己","e","",NA,NA,NA,NA,NA,NA,"",NA,"",NA,NA,NA,NA,NA,NA,NA,"",NA,"",NA,NA,NA,NA,NA,NA,NA,"","","",NA,"",NA,NA,NA,NA,NA,NA,NA,"",NA,"9"
"",NA,"",NA,"",NA,NA,NA,NA,NA,NA,NA,"","",1,1,"2024-08-23_15h31.13.642","IAT(Formal)","2021.2.3","Win32",60.60606061,"",NA,"",NA,NA,NA,NA,NA,NA,NA,"","","",NA,"i",1,0.6343,0,4,4,35,1,"消极","i","",NA,NA,NA,NA,NA,NA,"",NA,"",NA,NA,NA,NA,NA,NA,NA,"",NA,"",NA,NA,NA,NA,NA,NA,NA,"","","",NA,"",NA,NA,NA,NA,NA,NA,NA,"",NA,"9"
"",NA,"",NA,"",NA,NA,NA,NA,NA,NA,NA,"","",1,1,"2024-08-23_15h31.13.642","IAT(Formal)","2021.2.3","Win32",60.60606061,"",NA,"",NA,NA,NA,NA,NA,NA,NA,"","","",NA,"e",1,0.6641,0,5,5,12,1,"聪明","e","",NA,NA,NA,NA,NA,NA,"",NA,"",NA,NA,NA,NA,NA,NA,NA,"",NA,"",NA,NA,NA,NA,NA,NA,NA,"","","",NA,"",NA,NA,NA,NA,NA,NA,NA,"",NA,"9"
"",NA,"",NA,"",NA,NA,NA,NA,NA,NA,NA,"","",1,1,"2024-08-23_15h31.13.642","IAT(Formal)","2021.2.3","Win32",60.60606061,"",NA,"",NA,NA,NA,NA,NA,NA,NA,"","","",NA,"i",0,0.5187,0,6,6,71,1,"我的","e","",NA,NA,NA,NA,NA,NA,"",NA,"",NA,NA,NA,NA,NA,NA,NA,"",NA,"",NA,NA,NA,NA,NA,NA,NA,"","","",NA,"",NA,NA,NA,NA,NA,NA,NA,"",NA,"9"
"",NA,"",NA,"",NA,NA,NA,NA,NA,NA,NA,"","",1,1,"2024-08-23_15h31.13.642","IAT(Formal)","2021.2.3","Win32",60.60606061,"",NA,"",NA,NA,NA,NA,NA,NA,NA,"","","",NA,"e",1,0.694,0,7,7,4,1,"俺","e","",NA,NA,NA,NA,NA,NA,"",NA,"",NA,NA,NA,NA,NA,NA,NA,"",NA,"",NA,NA,NA,NA,NA,NA,NA,"","","",NA,"",NA,NA,NA,NA,NA,NA,NA,"",NA,"9"
"",NA,"",NA,"",NA,NA,NA,NA,NA,NA,NA,"","",1,1,"2024-08-23_15h31.13.642","IAT(Formal)","2021.2.3","Win32",60.60606061,"",NA,"",NA,NA,NA,NA,NA,NA,NA,"","","",NA,"i",1,0.5601,0,8,8,56,1,"他们","i","",NA,NA,NA,NA,NA,NA,"",NA,"",NA,NA,NA,NA,NA,NA,NA,"",NA,"",NA,NA,NA,NA,NA,NA,NA,"","","",NA,"",NA,NA,NA,NA,NA,NA,NA,"",NA,"9"
"",NA,"",NA,"",NA,NA,NA,NA,NA,NA,NA,"","",1,1,"2024-08-23_15h31.13.642","IAT(Formal)","2021.2.3","Win32",60.60606061,"",NA,"",NA,NA,NA,NA,NA,NA,NA,"","","",NA,"e",1,0.9681,0,9,9,21,1,"稳重","e","",NA,NA,NA,NA,NA,NA,"",NA,"",NA,NA,NA,NA,NA,NA,NA,"",NA,"",NA,NA,NA,NA,NA,NA,NA,"","","",NA,"",NA,NA,NA,NA,NA,NA,NA,"",NA,"9"
"",NA,"",NA,"",NA,NA,NA,NA,NA,NA,NA,"","",1,1,"2024-08-23_15h31.13.642","IAT(Formal)","2021.2.3","Win32",60.60606061,"",NA,"",NA,NA,NA,NA,NA,NA,NA,"","","",NA,"e",1,0.5678,0,10,10,0,1,"我","e","",NA,NA,NA,NA,NA,NA,"",NA,"",NA,NA,NA,NA,NA,NA,NA,"",NA,"",NA,NA,NA,NA,NA,NA,NA,"","","",NA,"",NA,NA,NA,NA,NA,NA,NA,"",NA,"9"
"",NA,"",NA,"",NA,NA,NA,NA,NA,NA,NA,"","",1,1,"2024-08-23_15h31.13.642","IAT(Formal)","2021.2.3","Win32",60.60606061,"",NA,"",NA,NA,NA,NA,NA,NA,NA,"","","",NA,"i",1,0.6742,0,11,11,31,1,"虚伪","i","",NA,NA,NA,NA,NA,NA,"",NA,"",NA,NA,NA,NA,NA,NA,NA,"",NA,"",NA,NA,NA,NA,NA,NA,NA,"","","",NA,"",NA,NA,NA,NA,NA,NA,NA,"",NA,"9"
"",NA,"",NA,"",NA,NA,NA,NA,NA,NA,NA,"","",1,1,"2024-08-23_15h31.13.642","IAT(Formal)","2021.2.3","Win32",60.60606061,"",NA,"",NA,NA,NA,NA,NA,NA,NA,"","","",NA,"i",1,0.6795,0,12,12,33,1,"刻薄","i","",NA,NA,NA,NA,NA,NA,"",NA,"",NA,NA,NA,NA,NA,NA,NA,"",NA,"",NA,NA,NA,NA,NA,NA,NA,"","","",NA,"",NA,NA,NA,NA,NA,NA,NA,"",NA,"9"
"",NA,"",NA,"",NA,NA,NA,NA,NA,NA,NA,"","",1,1,"2024-08-23_15h31.13.642","IAT(Formal)","2021.2.3","Win32",60.60606061,"",NA,"",NA,NA,NA,NA,NA,NA,NA,"","","",NA,"e",1,0.5908,0,13,13,25,1,"细腻","e","",NA,NA,NA,NA,NA,NA,"",NA,"",NA,NA,NA,NA,NA,NA,NA,"",NA,"",NA,NA,NA,NA,NA,NA,NA,"","","",NA,"",NA,NA,NA,NA,NA,NA,NA,"",NA,"9"
"",NA,"",NA,"",NA,NA,NA,NA,NA,NA,NA,"","",1,1,"2024-08-23_15h31.13.642","IAT(Formal)","2021.2.3","Win32",60.60606061,"",NA,"",NA,NA,NA,NA,NA,NA,NA,"","","",NA,"i",1,1.1081,0,14,14,30,1,"卑鄙","i","",NA,NA,NA,NA,NA,NA,"",NA,"",NA,NA,NA,NA,NA,NA,NA,"",NA,"",NA,NA,NA,NA,NA,NA,NA,"","","",NA,"",NA,NA,NA,NA,NA,NA,NA,"",NA,"9"
"",NA,"",NA,"",NA,NA,NA,NA,NA,NA,NA,"","",1,1,"2024-08-23_15h31.13.642","IAT(Formal)","2021.2.3","Win32",60.60606061,"",NA,"",NA,NA,NA,NA,NA,NA,NA,"","","",NA,"e",0,0.6548,0,15,15,55,1,"他","i","",NA,NA,NA,NA,NA,NA,"",NA,"",NA,NA,NA,NA,NA,NA,NA,"",NA,"",NA,NA,NA,NA,NA,NA,NA,"","","",NA,"",NA,NA,NA,NA,NA,NA,NA,"",NA,"9"
"",NA,"",NA,"",NA,NA,NA,NA,NA,NA,NA,"","",1,1,"2024-08-23_15h31.13.642","IAT(Formal)","2021.2.3","Win32",60.60606061,"",NA,"",NA,NA,NA,NA,NA,NA,NA,"","","",NA,"e",0,0.404,0,16,16,67,1,"他的","i","",NA,NA,NA,NA,NA,NA,"",NA,"",NA,NA,NA,NA,NA,NA,NA,"",NA,"",NA,NA,NA,NA,NA,NA,NA,"","","",NA,"",NA,NA,NA,NA,NA,NA,NA,"",NA,"9"
"",NA,"",NA,"",NA,NA,NA,NA,NA,NA,NA,"","",1,1,"2024-08-23_15h31.13.642","IAT(Formal)","2021.2.3","Win32",60.60606061,"",NA,"",NA,NA,NA,NA,NA,NA,NA,"","","",NA,"e",1,0.7062,0,17,17,28,1,"活泼","e","",NA,NA,NA,NA,NA,NA,"",NA,"",NA,NA,NA,NA,NA,NA,NA,"",NA,"",NA,NA,NA,NA,NA,NA,NA,"","","",NA,"",NA,NA,NA,NA,NA,NA,NA,"",NA,"9"
"",NA,"",NA,"",NA,NA,NA,NA,NA,NA,NA,"","",1,1,"2024-08-23_15h31.13.642","IAT(Formal)","2021.2.3","Win32",60.60606061,"",NA,"",NA,NA,NA,NA,NA,NA,NA,"","","",NA,"i",1,0.7508,0,18,18,36,1,"自卑","i","",NA,NA,NA,NA,NA,NA,"",NA,"",NA,NA,NA,NA,NA,NA,NA,"",NA,"",NA,NA,NA,NA,NA,NA,NA,"","","",NA,"",NA,NA,NA,NA,NA,NA,NA,"",NA,"9"
"",NA,"",NA,"",NA,NA,NA,NA,NA,NA,NA,"","",1,1,"2024-08-23_15h31.13.642","IAT(Formal)","2021.2.3","Win32",60.60606061,"",NA,"",NA,NA,NA,NA,NA,NA,NA,"","","",NA,"i",1,0.5684,0,19,19,43,1,"自私","i","",NA,NA,NA,NA,NA,NA,"",NA,"",NA,NA,NA,NA,NA,NA,NA,"",NA,"",NA,NA,NA,NA,NA,NA,NA,"","","",NA,"",NA,NA,NA,NA,NA,NA,NA,"",NA,"9"
"",NA,"",NA,"",NA,NA,NA,NA,NA,NA,NA,"","",1,1,"2024-08-23_15h31.13.642","IAT(Formal)","2021.2.3","Win32",60.60606061,"",NA,"",NA,NA,NA,NA,NA,NA,NA,"","","",NA,"i",1,0.6874,0,20,20,47,1,"固执","i","",NA,NA,NA,NA,NA,NA,"",NA,"",NA,NA,NA,NA,NA,NA,NA,"",NA,"",NA,NA,NA,NA,NA,NA,NA,"","","",NA,"",NA,NA,NA,NA,NA,NA,NA,"",NA,"9"
"",NA,"",NA,"",NA,NA,NA,NA,NA,NA,NA,"","",1,1,"2024-08-23_15h31.13.642","IAT(Formal)","2021.2.3","Win32",60.60606061,"",NA,"",NA,NA,NA,NA,NA,NA,NA,"","","",NA,"i",0,0.5843,0,21,21,26,1,"冷静","e","",NA,NA,NA,NA,NA,NA,"",NA,"",NA,NA,NA,NA,NA,NA,NA,"",NA,"",NA,NA,NA,NA,NA,NA,NA,"","","",NA,"",NA,NA,NA,NA,NA,NA,NA,"",NA,"9"
"",NA,"",NA,"",NA,NA,NA,NA,NA,NA,NA,"","",1,1,"2024-08-23_15h31.13.642","IAT(Formal)","2021.2.3","Win32",60.60606061,"",NA,"",NA,NA,NA,NA,NA,NA,NA,"","","",NA,"e",1,0.4544,0,22,22,63,1,"自己","e","",NA,NA,NA,NA,NA,NA,"",NA,"",NA,NA,NA,NA,NA,NA,NA,"",NA,"",NA,NA,NA,NA,NA,NA,NA,"","","",NA,"",NA,NA,NA,NA,NA,NA,NA,"",NA,"9"
"",NA,"",NA,"",NA,NA,NA,NA,NA,NA,NA,"","",1,1,"2024-08-23_15h31.13.642","IAT(Formal)","2021.2.3","Win32",60.60606061,"",NA,"",NA,NA,NA,NA,NA,NA,NA,"","","",NA,"e",1,1.1731,0,23,23,11,1,"崇高","e","",NA,NA,NA,NA,NA,NA,"",NA,"",NA,NA,NA,NA,NA,NA,NA,"",NA,"",NA,NA,NA,NA,NA,NA,NA,"","","",NA,"",NA,NA,NA,NA,NA,NA,NA,"",NA,"9"
"",NA,"",NA,"",NA,NA,NA,NA,NA,NA,NA,"","",1,1,"2024-08-23_15h31.13.642","IAT(Formal)","2021.2.3","Win32",60.60606061,"",NA,"",NA,NA,NA,NA,NA,NA,NA,"","","",NA,"i",1,0.773,0,24,24,76,1,"他们","i","",NA,NA,NA,NA,NA,NA,"",NA,"",NA,NA,NA,NA,NA,NA,NA,"",NA,"",NA,NA,NA,NA,NA,NA,NA,"","","",NA,"",NA,NA,NA,NA,NA,NA,NA,"",NA,"9"
"",NA,"",NA,"",NA,NA,NA,NA,NA,NA,NA,"","",1,1,"2024-08-23_15h31.13.642","IAT(Formal)","2021.2.3","Win32",60.60606061,"",NA,"",NA,NA,NA,NA,NA,NA,NA,"","","",NA,"e",1,0.5216,0,25,25,70,1,"我","e","",NA,NA,NA,NA,NA,NA,"",NA,"",NA,NA,NA,NA,NA,NA,NA,"",NA,"",NA,NA,NA,NA,NA,NA,NA,"","","",NA,"",NA,NA,NA,NA,NA,NA,NA,"",NA,"9"
"",NA,"",NA,"",NA,NA,NA,NA,NA,NA,NA,"","",1,1,"2024-08-23_15h31.13.642","IAT(Formal)","2021.2.3","Win32",60.60606061,"",NA,"",NA,NA,NA,NA,NA,NA,NA,"","","",NA,"e",1,0.4696,0,26,26,52,1,"我们","e","",NA,NA,NA,NA,NA,NA,"",NA,"",NA,NA,NA,NA,NA,NA,NA,"",NA,"",NA,NA,NA,NA,NA,NA,NA,"","","",NA,"",NA,NA,NA,NA,NA,NA,NA,"",NA,"9"
"",NA,"",NA,"",NA,NA,NA,NA,NA,NA,NA,"","",1,1,"2024-08-23_15h31.13.642","IAT(Formal)","2021.2.3","Win32",60.60606061,"",NA,"",NA,NA,NA,NA,NA,NA,NA,"","","",NA,"e",1,0.836,0,27,27,18,1,"勤奋","e","",NA,NA,NA,NA,NA,NA,"",NA,"",NA,NA,NA,NA,NA,NA,NA,"",NA,"",NA,NA,NA,NA,NA,NA,NA,"","","",NA,"",NA,NA,NA,NA,NA,NA,NA,"",NA,"9"
"",NA,"",NA,"",NA,NA,NA,NA,NA,NA,NA,"","",1,1,"2024-08-23_15h31.13.642","IAT(Formal)","2021.2.3","Win32",60.60606061,"",NA,"",NA,NA,NA,NA,NA,NA,NA,"","","",NA,"i",1,0.6175,0,28,28,57,1,"他的","i","",NA,NA,NA,NA,NA,NA,"",NA,"",NA,NA,NA,NA,NA,NA,NA,"",NA,"",NA,NA,NA,NA,NA,NA,NA,"","","",NA,"",NA,NA,NA,NA,NA,NA,NA,"",NA,"9"
"",NA,"",NA,"",NA,NA,NA,NA,NA,NA,NA,"","",1,1,"2024-08-23_15h31.13.642","IAT(Formal)","2021.2.3","Win32",60.60606061,"",NA,"",NA,NA,NA,NA,NA,NA,NA,"","","",NA,"e",1,0.7082,0,29,29,16,1,"正直","e","",NA,NA,NA,NA,NA,NA,"",NA,"",NA,NA,NA,NA,NA,NA,NA,"",NA,"",NA,NA,NA,NA,NA,NA,NA,"","","",NA,"",NA,NA,NA,NA,NA,NA,NA,"",NA,"9"
"",NA,"",NA,"",NA,NA,NA,NA,NA,NA,NA,"","",1,1,"2024-08-23_15h31.13.642","IAT(Formal)","2021.2.3","Win32",60.60606061,"",NA,"",NA,NA,NA,NA,NA,NA,NA,"","","",NA,"i",1,0.6998,0,30,30,41,1,"散漫","i","",NA,NA,NA,NA,NA,NA,"",NA,"",NA,NA,NA,NA,NA,NA,NA,"",NA,"",NA,NA,NA,NA,NA,NA,NA,"","","",NA,"",NA,NA,NA,NA,NA,NA,NA,"",NA,"9"
"",NA,"",NA,"",NA,NA,NA,NA,NA,NA,NA,"","",1,1,"2024-08-23_15h31.13.642","IAT(Formal)","2021.2.3","Win32",60.60606061,"",NA,"",NA,NA,NA,NA,NA,NA,NA,"","","",NA,"",0,NA,0,31,31,66,1,"他们","i","",NA,NA,NA,NA,NA,NA,"",NA,"",NA,NA,NA,NA,NA,NA,NA,"",NA,"",NA,NA,NA,NA,NA,NA,NA,"","","",NA,"",NA,NA,NA,NA,NA,NA,NA,"",NA,"9"
"",NA,"",NA,"",NA,NA,NA,NA,NA,NA,NA,"","",1,1,"2024-08-23_15h31.13.642","IAT(Formal)","2021.2.3","Win32",60.60606061,"",NA,"",NA,NA,NA,NA,NA,NA,NA,"","","",NA,"e",1,0.5335,0,32,32,73,1,"自己","e","",NA,NA,NA,NA,NA,NA,"",NA,"",NA,NA,NA,NA,NA,NA,NA,"",NA,"",NA,NA,NA,NA,NA,NA,NA,"","","",NA,"",NA,NA,NA,NA,NA,NA,NA,"",NA,"9"
"",NA,"",NA,"",NA,NA,NA,NA,NA,NA,NA,"","",1,1,"2024-08-23_15h31.13.642","IAT(Formal)","2021.2.3","Win32",60.60606061,"",NA,"",NA,NA,NA,NA,NA,NA,NA,"","","",NA,"i",1,0.6432,0,33,33,38,1,"鲁莽","i","",NA,NA,NA,NA,NA,NA,"",NA,"",NA,NA,NA,NA,NA,NA,NA,"",NA,"",NA,NA,NA,NA,NA,NA,NA,"","","",NA,"",NA,NA,NA,NA,NA,NA,NA,"",NA,"9"
"",NA,"",NA,"",NA,NA,NA,NA,NA,NA,NA,"","",1,1,"2024-08-23_15h31.13.642","IAT(Formal)","2021.2.3","Win32",60.60606061,"",NA,"",NA,NA,NA,NA,NA,NA,NA,"","","",NA,"e",1,0.5851,0,34,34,64,1,"俺","e","",NA,NA,NA,NA,NA,NA,"",NA,"",NA,NA,NA,NA,NA,NA,NA,"",NA,"",NA,NA,NA,NA,NA,NA,NA,"","","",NA,"",NA,NA,NA,NA,NA,NA,NA,"",NA,"9"
"",NA,"",NA,"",NA,NA,NA,NA,NA,NA,NA,"","",1,1,"2024-08-23_15h31.13.642","IAT(Formal)","2021.2.3","Win32",60.60606061,"",NA,"",NA,NA,NA,NA,NA,NA,NA,"","","",NA,"e",1,0.6389,0,35,35,50,1,"我","e","",NA,NA,NA,NA,NA,NA,"",NA,"",NA,NA,NA,NA,NA,NA,NA,"",NA,"",NA,NA,NA,NA,NA,NA,NA,"","","",NA,"",NA,NA,NA,NA,NA,NA,NA,"",NA,"9"
"",NA,"",NA,"",NA,NA,NA,NA,NA,NA,NA,"","",1,1,"2024-08-23_15h31.13.642","IAT(Formal)","2021.2.3","Win32",60.60606061,"",NA,"",NA,NA,NA,NA,NA,NA,NA,"","","",NA,"i",1,0.6685,0,36,36,44,1,"暴躁","i","",NA,NA,NA,NA,NA,NA,"",NA,"",NA,NA,NA,NA,NA,NA,NA,"",NA,"",NA,NA,NA,NA,NA,NA,NA,"","","",NA,"",NA,NA,NA,NA,NA,NA,NA,"",NA,"9"
"",NA,"",NA,"",NA,NA,NA,NA,NA,NA,NA,"","",1,1,"2024-08-23_15h31.13.642","IAT(Formal)","2021.2.3","Win32",60.60606061,"",NA,"",NA,NA,NA,NA,NA,NA,NA,"","","",NA,"e",1,0.6537,0,37,37,20,1,"认真","e","",NA,NA,NA,NA,NA,NA,"",NA,"",NA,NA,NA,NA,NA,NA,NA,"",NA,"",NA,NA,NA,NA,NA,NA,NA,"","","",NA,"",NA,NA,NA,NA,NA,NA,NA,"",NA,"9"
"",NA,"",NA,"",NA,NA,NA,NA,NA,NA,NA,"","",1,1,"2024-08-23_15h31.13.642","IAT(Formal)","2021.2.3","Win32",60.60606061,"",NA,"",NA,NA,NA,NA,NA,NA,NA,"","","",NA,"i",1,1.0566,0,38,38,58,1,"他人","i","",NA,NA,NA,NA,NA,NA,"",NA,"",NA,NA,NA,NA,NA,NA,NA,"",NA,"",NA,NA,NA,NA,NA,NA,NA,"","","",NA,"",NA,NA,NA,NA,NA,NA,NA,"",NA,"9"
"",NA,"",NA,"",NA,NA,NA,NA,NA,NA,NA,"","",1,1,"2024-08-23_15h31.13.642","IAT(Formal)","2021.2.3","Win32",60.60606061,"",NA,"",NA,NA,NA,NA,NA,NA,NA,"","","",NA,"i",1,0.6774,0,39,39,46,1,"野蛮","i","",NA,NA,NA,NA,NA,NA,"",NA,"",NA,NA,NA,NA,NA,NA,NA,"",NA,"",NA,NA,NA,NA,NA,NA,NA,"","","",NA,"",NA,NA,NA,NA,NA,NA,NA,"",NA,"9"
"",NA,"",NA,"",NA,NA,NA,NA,NA,NA,NA,"","",1,1,"2024-08-23_15h31.13.642","IAT(Formal)","2021.2.3","Win32",60.60606061,"",NA,"",NA,NA,NA,NA,NA,NA,NA,"","","",NA,"i",1,0.8224,0,40,40,59,1,"其他","i","",NA,NA,NA,NA,NA,NA,"",NA,"",NA,NA,NA,NA,NA,NA,NA,"",NA,"",NA,NA,NA,NA,NA,NA,NA,"","","",NA,"",NA,NA,NA,NA,NA,NA,NA,"",NA,"9"
"",NA,"",NA,"",NA,NA,NA,NA,NA,NA,NA,"","",1,1,"2024-08-23_15h31.13.642","IAT(Formal)","2021.2.3","Win32",60.60606061,"",NA,"",NA,NA,NA,NA,NA,NA,NA,"","","",NA,"e",1,0.6877,0,41,41,10,1,"优秀","e","",NA,NA,NA,NA,NA,NA,"",NA,"",NA,NA,NA,NA,NA,NA,NA,"",NA,"",NA,NA,NA,NA,NA,NA,NA,"","","",NA,"",NA,NA,NA,NA,NA,NA,NA,"",NA,"9"
"",NA,"",NA,"",NA,NA,NA,NA,NA,NA,NA,"","",1,1,"2024-08-23_15h31.13.642","IAT(Formal)","2021.2.3","Win32",60.60606061,"",NA,"",NA,NA,NA,NA,NA,NA,NA,"","","",NA,"e",1,0.8519,0,42,42,14,1,"乐观","e","",NA,NA,NA,NA,NA,NA,"",NA,"",NA,NA,NA,NA,NA,NA,NA,"",NA,"",NA,NA,NA,NA,NA,NA,NA,"","","",NA,"",NA,NA,NA,NA,NA,NA,NA,"",NA,"9"
"",NA,"",NA,"",NA,NA,NA,NA,NA,NA,NA,"","",1,1,"2024-08-23_15h31.13.642","IAT(Formal)","2021.2.3","Win32",60.60606061,"",NA,"",NA,NA,NA,NA,NA,NA,NA,"","","",NA,"e",0,0.8564,0,43,43,5,1,"他","i","",NA,NA,NA,NA,NA,NA,"",NA,"",NA,NA,NA,NA,NA,NA,NA,"",NA,"",NA,NA,NA,NA,NA,NA,NA,"","","",NA,"",NA,NA,NA,NA,NA,NA,NA,"",NA,"9"
"",NA,"",NA,"",NA,NA,NA,NA,NA,NA,NA,"","",1,1,"2024-08-23_15h31.13.642","IAT(Formal)","2021.2.3","Win32",60.60606061,"",NA,"",NA,NA,NA,NA,NA,NA,NA,"","","",NA,"e",1,0.5194,0,44,44,62,1,"我们","e","",NA,NA,NA,NA,NA,NA,"",NA,"",NA,NA,NA,NA,NA,NA,NA,"",NA,"",NA,NA,NA,NA,NA,NA,NA,"","","",NA,"",NA,NA,NA,NA,NA,NA,NA,"",NA,"9"
"",NA,"",NA,"",NA,NA,NA,NA,NA,NA,NA,"","",1,1,"2024-08-23_15h31.13.642","IAT(Formal)","2021.2.3","Win32",60.60606061,"",NA,"",NA,NA,NA,NA,NA,NA,NA,"","","",NA,"e",1,0.5556,0,45,45,23,1,"公正","e","",NA,NA,NA,NA,NA,NA,"",NA,"",NA,NA,NA,NA,NA,NA,NA,"",NA,"",NA,NA,NA,NA,NA,NA,NA,"","","",NA,"",NA,NA,NA,NA,NA,NA,NA,"",NA,"9"
"",NA,"",NA,"",NA,NA,NA,NA,NA,NA,NA,"","",1,1,"2024-08-23_15h31.13.642","IAT(Formal)","2021.2.3","Win32",60.60606061,"",NA,"",NA,NA,NA,NA,NA,NA,NA,"","","",NA,"e",1,0.6675,0,46,46,74,1,"俺","e","",NA,NA,NA,NA,NA,NA,"",NA,"",NA,NA,NA,NA,NA,NA,NA,"",NA,"",NA,NA,NA,NA,NA,NA,NA,"","","",NA,"",NA,NA,NA,NA,NA,NA,NA,"",NA,"9"
"",NA,"",NA,"",NA,NA,NA,NA,NA,NA,NA,"","",1,1,"2024-08-23_15h31.13.642","IAT(Formal)","2021.2.3","Win32",60.60606061,"",NA,"",NA,NA,NA,NA,NA,NA,NA,"","","",NA,"e",1,0.9341,0,47,47,24,1,"朴实","e","",NA,NA,NA,NA,NA,NA,"",NA,"",NA,NA,NA,NA,NA,NA,NA,"",NA,"",NA,NA,NA,NA,NA,NA,NA,"","","",NA,"",NA,NA,NA,NA,NA,NA,NA,"",NA,"9"
"",NA,"",NA,"",NA,NA,NA,NA,NA,NA,NA,"","",1,1,"2024-08-23_15h31.13.642","IAT(Formal)","2021.2.3","Win32",60.60606061,"",NA,"",NA,NA,NA,NA,NA,NA,NA,"","","",NA,"i",1,0.6427,0,48,48,78,1,"他人","i","",NA,NA,NA,NA,NA,NA,"",NA,"",NA,NA,NA,NA,NA,NA,NA,"",NA,"",NA,NA,NA,NA,NA,NA,NA,"","","",NA,"",NA,NA,NA,NA,NA,NA,NA,"",NA,"9"
"",NA,"",NA,"",NA,NA,NA,NA,NA,NA,NA,"","",1,1,"2024-08-23_15h31.13.642","IAT(Formal)","2021.2.3","Win32",60.60606061,"",NA,"",NA,NA,NA,NA,NA,NA,NA,"","","",NA,"e",1,1.4578,0,49,49,29,1,"诚恳","e","",NA,NA,NA,NA,NA,NA,"",NA,"",NA,NA,NA,NA,NA,NA,NA,"",NA,"",NA,NA,NA,NA,NA,NA,NA,"","","",NA,"",NA,NA,NA,NA,NA,NA,NA,"",NA,"9"
"",NA,"",NA,"",NA,NA,NA,NA,NA,NA,NA,"","",1,1,"2024-08-23_15h31.13.642","IAT(Formal)","2021.2.3","Win32",60.60606061,"",NA,"",NA,NA,NA,NA,NA,NA,NA,"","","",NA,"e",0,1.151,0,50,50,8,1,"他人","i","",NA,NA,NA,NA,NA,NA,"",NA,"",NA,NA,NA,NA,NA,NA,NA,"",NA,"",NA,NA,NA,NA,NA,NA,NA,"","","",NA,"",NA,NA,NA,NA,NA,NA,NA,"",NA,"9"
"",NA,"",NA,"",NA,NA,NA,NA,NA,NA,NA,"","",1,1,"2024-08-23_15h31.13.642","IAT(Formal)","2021.2.3","Win32",60.60606061,"",NA,"",NA,NA,NA,NA,NA,NA,NA,"","","",NA,"i",1,0.7075,0,51,51,49,1,"下贱","i","",NA,NA,NA,NA,NA,NA,"",NA,"",NA,NA,NA,NA,NA,NA,NA,"",NA,"",NA,NA,NA,NA,NA,NA,NA,"","","",NA,"",NA,NA,NA,NA,NA,NA,NA,"",NA,"9"
"",NA,"",NA,"",NA,NA,NA,NA,NA,NA,NA,"","",1,1,"2024-08-23_15h31.13.642","IAT(Formal)","2021.2.3","Win32",60.60606061,"",NA,"",NA,NA,NA,NA,NA,NA,NA,"","","",NA,"i",1,0.6373,0,52,52,42,1,"凶狠","i","",NA,NA,NA,NA,NA,NA,"",NA,"",NA,NA,NA,NA,NA,NA,NA,"",NA,"",NA,NA,NA,NA,NA,NA,NA,"","","",NA,"",NA,NA,NA,NA,NA,NA,NA,"",NA,"9"
"",NA,"",NA,"",NA,NA,NA,NA,NA,NA,NA,"","",1,1,"2024-08-23_15h31.13.642","IAT(Formal)","2021.2.3","Win32",60.60606061,"",NA,"",NA,NA,NA,NA,NA,NA,NA,"","","",NA,"e",1,0.9345,0,53,53,61,1,"我的","e","",NA,NA,NA,NA,NA,NA,"",NA,"",NA,NA,NA,NA,NA,NA,NA,"",NA,"",NA,NA,NA,NA,NA,NA,NA,"","","",NA,"",NA,NA,NA,NA,NA,NA,NA,"",NA,"9"
"",NA,"",NA,"",NA,NA,NA,NA,NA,NA,NA,"","",1,1,"2024-08-23_15h31.13.642","IAT(Formal)","2021.2.3","Win32",60.60606061,"",NA,"",NA,NA,NA,NA,NA,NA,NA,"","","",NA,"i",1,1.117,0,54,54,9,1,"其他","i","",NA,NA,NA,NA,NA,NA,"",NA,"",NA,NA,NA,NA,NA,NA,NA,"",NA,"",NA,NA,NA,NA,NA,NA,NA,"","","",NA,"",NA,NA,NA,NA,NA,NA,NA,"",NA,"9"
"",NA,"",NA,"",NA,NA,NA,NA,NA,NA,NA,"","",1,1,"2024-08-23_15h31.13.642","IAT(Formal)","2021.2.3","Win32",60.60606061,"",NA,"",NA,NA,NA,NA,NA,NA,NA,"","","",NA,"e",1,0.6543,0,55,55,51,1,"我的","e","",NA,NA,NA,NA,NA,NA,"",NA,"",NA,NA,NA,NA,NA,NA,NA,"",NA,"",NA,NA,NA,NA,NA,NA,NA,"","","",NA,"",NA,NA,NA,NA,NA,NA,NA,"",NA,"9"
"",NA,"",NA,"",NA,NA,NA,NA,NA,NA,NA,"","",1,1,"2024-08-23_15h31.13.642","IAT(Formal)","2021.2.3","Win32",60.60606061,"",NA,"",NA,NA,NA,NA,NA,NA,NA,"","","",NA,"e",1,0.7172,0,56,56,27,1,"热情","e","",NA,NA,NA,NA,NA,NA,"",NA,"",NA,NA,NA,NA,NA,NA,NA,"",NA,"",NA,NA,NA,NA,NA,NA,NA,"","","",NA,"",NA,NA,NA,NA,NA,NA,NA,"",NA,"9"
"",NA,"",NA,"",NA,NA,NA,NA,NA,NA,NA,"","",1,1,"2024-08-23_15h31.13.642","IAT(Formal)","2021.2.3","Win32",60.60606061,"",NA,"",NA,NA,NA,NA,NA,NA,NA,"","","",NA,"e",1,0.9713,0,57,57,54,1,"俺","e","",NA,NA,NA,NA,NA,NA,"",NA,"",NA,NA,NA,NA,NA,NA,NA,"",NA,"",NA,NA,NA,NA,NA,NA,NA,"","","",NA,"",NA,NA,NA,NA,NA,NA,NA,"",NA,"9"
"",NA,"",NA,"",NA,NA,NA,NA,NA,NA,NA,"","",1,1,"2024-08-23_15h31.13.642","IAT(Formal)","2021.2.3","Win32",60.60606061,"",NA,"",NA,NA,NA,NA,NA,NA,NA,"","","",NA,"i",1,1.0592,0,58,58,77,1,"他的","i","",NA,NA,NA,NA,NA,NA,"",NA,"",NA,NA,NA,NA,NA,NA,NA,"",NA,"",NA,NA,NA,NA,NA,NA,NA,"","","",NA,"",NA,NA,NA,NA,NA,NA,NA,"",NA,"9"
"",NA,"",NA,"",NA,NA,NA,NA,NA,NA,NA,"","",1,1,"2024-08-23_15h31.13.642","IAT(Formal)","2021.2.3","Win32",60.60606061,"",NA,"",NA,NA,NA,NA,NA,NA,NA,"","","",NA,"e",0,1.1384,0,59,59,48,1,"轻率","i","",NA,NA,NA,NA,NA,NA,"",NA,"",NA,NA,NA,NA,NA,NA,NA,"",NA,"",NA,NA,NA,NA,NA,NA,NA,"","","",NA,"",NA,NA,NA,NA,NA,NA,NA,"",NA,"9"
"",NA,"",NA,"",NA,NA,NA,NA,NA,NA,NA,"","",1,1,"2024-08-23_15h31.13.642","IAT(Formal)","2021.2.3","Win32",60.60606061,"",NA,"",NA,NA,NA,NA,NA,NA,NA,"","","",NA,"i",1,0.722,0,60,60,37,1,"傲慢","i","",NA,NA,NA,NA,NA,NA,"",NA,"",NA,NA,NA,NA,NA,NA,NA,"",NA,"",NA,NA,NA,NA,NA,NA,NA,"","","",NA,"",NA,NA,NA,NA,NA,NA,NA,"",NA,"9"
"",NA,"",NA,"",NA,NA,NA,NA,NA,NA,NA,"","",1,1,"2024-08-23_15h31.13.642","IAT(Formal)","2021.2.3","Win32",60.60606061,"",NA,"",NA,NA,NA,NA,NA,NA,NA,"","","",NA,"e",1,0.808,0,61,61,15,1,"诚实","e","",NA,NA,NA,NA,NA,NA,"",NA,"",NA,NA,NA,NA,NA,NA,NA,"",NA,"",NA,NA,NA,NA,NA,NA,NA,"","","",NA,"",NA,NA,NA,NA,NA,NA,NA,"",NA,"9"
"",NA,"",NA,"",NA,NA,NA,NA,NA,NA,NA,"","",1,1,"2024-08-23_15h31.13.642","IAT(Formal)","2021.2.3","Win32",60.60606061,"",NA,"",NA,NA,NA,NA,NA,NA,NA,"","","",NA,"i",1,0.6454,0,62,62,32,1,"愚蠢","i","",NA,NA,NA,NA,NA,NA,"",NA,"",NA,NA,NA,NA,NA,NA,NA,"",NA,"",NA,NA,NA,NA,NA,NA,NA,"","","",NA,"",NA,NA,NA,NA,NA,NA,NA,"",NA,"9"
"",NA,"",NA,"",NA,NA,NA,NA,NA,NA,NA,"","",1,1,"2024-08-23_15h31.13.642","IAT(Formal)","2021.2.3","Win32",60.60606061,"",NA,"",NA,NA,NA,NA,NA,NA,NA,"","","",NA,"i",1,0.6192,0,63,63,40,1,"执拗","i","",NA,NA,NA,NA,NA,NA,"",NA,"",NA,NA,NA,NA,NA,NA,NA,"",NA,"",NA,NA,NA,NA,NA,NA,NA,"","","",NA,"",NA,NA,NA,NA,NA,NA,NA,"",NA,"9"
"",NA,"",NA,"",NA,NA,NA,NA,NA,NA,NA,"","",1,1,"2024-08-23_15h31.13.642","IAT(Formal)","2021.2.3","Win32",60.60606061,"",NA,"",NA,NA,NA,NA,NA,NA,NA,"","","",NA,"i",1,0.6045,0,64,64,34,1,"悲观","i","",NA,NA,NA,NA,NA,NA,"",NA,"",NA,NA,NA,NA,NA,NA,NA,"",NA,"",NA,NA,NA,NA,NA,NA,NA,"","","",NA,"",NA,NA,NA,NA,NA,NA,NA,"",NA,"9"
"",NA,"",NA,"",NA,NA,NA,NA,NA,NA,NA,"","",1,1,"2024-08-23_15h31.13.642","IAT(Formal)","2021.2.3","Win32",60.60606061,"",NA,"",NA,NA,NA,NA,NA,NA,NA,"","","",NA,"i",1,0.5071,0,65,65,45,1,"猖狂","i","",NA,NA,NA,NA,NA,NA,"",NA,"",NA,NA,NA,NA,NA,NA,NA,"",NA,"",NA,NA,NA,NA,NA,NA,NA,"","","",NA,"",NA,NA,NA,NA,NA,NA,NA,"",NA,"9"
"",NA,"",NA,"",NA,NA,NA,NA,NA,NA,NA,"","",1,1,"2024-08-23_15h31.13.642","IAT(Formal)","2021.2.3","Win32",60.60606061,"",NA,"",NA,NA,NA,NA,NA,NA,NA,"","","",NA,"e",1,0.4853,0,66,66,1,1,"我的","e","",NA,NA,NA,NA,NA,NA,"",NA,"",NA,NA,NA,NA,NA,NA,NA,"",NA,"",NA,NA,NA,NA,NA,NA,NA,"","","",NA,"",NA,NA,NA,NA,NA,NA,NA,"",NA,"9"
"",NA,"",NA,"",NA,NA,NA,NA,NA,NA,NA,"","",1,1,"2024-08-23_15h31.13.642","IAT(Formal)","2021.2.3","Win32",60.60606061,"",NA,"",NA,NA,NA,NA,NA,NA,NA,"","","",NA,"i",1,0.678,0,67,67,39,1,"冒失","i","",NA,NA,NA,NA,NA,NA,"",NA,"",NA,NA,NA,NA,NA,NA,NA,"",NA,"",NA,NA,NA,NA,NA,NA,NA,"","","",NA,"",NA,NA,NA,NA,NA,NA,NA,"",NA,"9"
"",NA,"",NA,"",NA,NA,NA,NA,NA,NA,NA,"","",1,1,"2024-08-23_15h31.13.642","IAT(Formal)","2021.2.3","Win32",60.60606061,"",NA,"",NA,NA,NA,NA,NA,NA,NA,"","","",NA,"e",1,0.5241,0,68,68,60,1,"我","e","",NA,NA,NA,NA,NA,NA,"",NA,"",NA,NA,NA,NA,NA,NA,NA,"",NA,"",NA,NA,NA,NA,NA,NA,NA,"","","",NA,"",NA,NA,NA,NA,NA,NA,NA,"",NA,"9"
"",NA,"",NA,"",NA,NA,NA,NA,NA,NA,NA,"","",1,1,"2024-08-23_15h31.13.642","IAT(Formal)","2021.2.3","Win32",60.60606061,"",NA,"",NA,NA,NA,NA,NA,NA,NA,"","","",NA,"i",1,0.4174,0,69,69,75,1,"他","i","",NA,NA,NA,NA,NA,NA,"",NA,"",NA,NA,NA,NA,NA,NA,NA,"",NA,"",NA,NA,NA,NA,NA,NA,NA,"","","",NA,"",NA,NA,NA,NA,NA,NA,NA,"",NA,"9"
"",NA,"",NA,"",NA,NA,NA,NA,NA,NA,NA,"","",1,1,"2024-08-23_15h31.13.642","IAT(Formal)","2021.2.3","Win32",60.60606061,"",NA,"",NA,NA,NA,NA,NA,NA,NA,"","","",NA,"e",1,0.5678,0,70,70,2,1,"我们","e","",NA,NA,NA,NA,NA,NA,"",NA,"",NA,NA,NA,NA,NA,NA,NA,"",NA,"",NA,NA,NA,NA,NA,NA,NA,"","","",NA,"",NA,NA,NA,NA,NA,NA,NA,"",NA,"9"
"",NA,"",NA,"",NA,NA,NA,NA,NA,NA,NA,"","",1,1,"2024-08-23_15h31.13.642","IAT(Formal)","2021.2.3","Win32",60.60606061,"",NA,"",NA,NA,NA,NA,NA,NA,NA,"","","",NA,"i",1,0.6009,0,71,71,65,1,"他","i","",NA,NA,NA,NA,NA,NA,"",NA,"",NA,NA,NA,NA,NA,NA,NA,"",NA,"",NA,NA,NA,NA,NA,NA,NA,"","","",NA,"",NA,NA,NA,NA,NA,NA,NA,"",NA,"9"
"",NA,"",NA,"",NA,NA,NA,NA,NA,NA,NA,"","",1,1,"2024-08-23_15h31.13.642","IAT(Formal)","2021.2.3","Win32",60.60606061,"",NA,"",NA,NA,NA,NA,NA,NA,NA,"","","",NA,"e",1,0.9867,0,72,72,19,1,"机智","e","",NA,NA,NA,NA,NA,NA,"",NA,"",NA,NA,NA,NA,NA,NA,NA,"",NA,"",NA,NA,NA,NA,NA,NA,NA,"","","",NA,"",NA,NA,NA,NA,NA,NA,NA,"",NA,"9"
"",NA,"",NA,"",NA,NA,NA,NA,NA,NA,NA,"","",1,1,"2024-08-23_15h31.13.642","IAT(Formal)","2021.2.3","Win32",60.60606061,"",NA,"",NA,NA,NA,NA,NA,NA,NA,"","","",NA,"e",1,0.9186,0,73,73,72,1,"我们","e","",NA,NA,NA,NA,NA,NA,"",NA,"",NA,NA,NA,NA,NA,NA,NA,"",NA,"",NA,NA,NA,NA,NA,NA,NA,"","","",NA,"",NA,NA,NA,NA,NA,NA,NA,"",NA,"9"
"",NA,"",NA,"",NA,NA,NA,NA,NA,NA,NA,"","",1,1,"2024-08-23_15h31.13.642","IAT(Formal)","2021.2.3","Win32",60.60606061,"",NA,"",NA,NA,NA,NA,NA,NA,NA,"","","",NA,"i",1,0.9675,0,74,74,68,1,"他人","i","",NA,NA,NA,NA,NA,NA,"",NA,"",NA,NA,NA,NA,NA,NA,NA,"",NA,"",NA,NA,NA,NA,NA,NA,NA,"","","",NA,"",NA,NA,NA,NA,NA,NA,NA,"",NA,"9"
"",NA,"",NA,"",NA,NA,NA,NA,NA,NA,NA,"","",1,1,"2024-08-23_15h31.13.642","IAT(Formal)","2021.2.3","Win32",60.60606061,"",NA,"",NA,NA,NA,NA,NA,NA,NA,"","","",NA,"e",1,0.9228,0,75,75,13,1,"杰出","e","",NA,NA,NA,NA,NA,NA,"",NA,"",NA,NA,NA,NA,NA,NA,NA,"",NA,"",NA,NA,NA,NA,NA,NA,NA,"","","",NA,"",NA,NA,NA,NA,NA,NA,NA,"",NA,"9"
"",NA,"",NA,"",NA,NA,NA,NA,NA,NA,NA,"","",1,1,"2024-08-23_15h31.13.642","IAT(Formal)","2021.2.3","Win32",60.60606061,"",NA,"",NA,NA,NA,NA,NA,NA,NA,"","","",NA,"i",1,0.6104,0,76,76,69,1,"其他","i","",NA,NA,NA,NA,NA,NA,"",NA,"",NA,NA,NA,NA,NA,NA,NA,"",NA,"",NA,NA,NA,NA,NA,NA,NA,"","","",NA,"",NA,NA,NA,NA,NA,NA,NA,"",NA,"9"
"",NA,"",NA,"",NA,NA,NA,NA,NA,NA,NA,"","",1,1,"2024-08-23_15h31.13.642","IAT(Formal)","2021.2.3","Win32",60.60606061,"",NA,"",NA,NA,NA,NA,NA,NA,NA,"","","",NA,"i",1,1.1364,0,77,77,6,1,"他们","i","",NA,NA,NA,NA,NA,NA,"",NA,"",NA,NA,NA,NA,NA,NA,NA,"",NA,"",NA,NA,NA,NA,NA,NA,NA,"","","",NA,"",NA,NA,NA,NA,NA,NA,NA,"",NA,"9"
"",NA,"",NA,"",NA,NA,NA,NA,NA,NA,NA,"","",1,1,"2024-08-23_15h31.13.642","IAT(Formal)","2021.2.3","Win32",60.60606061,"",NA,"",NA,NA,NA,NA,NA,NA,NA,"","","",NA,"e",1,0.4292,0,78,78,17,1,"勇敢","e","",NA,NA,NA,NA,NA,NA,"",NA,"",NA,NA,NA,NA,NA,NA,NA,"",NA,"",NA,NA,NA,NA,NA,NA,NA,"","","",NA,"",NA,NA,NA,NA,NA,NA,NA,"",NA,"9"
"",NA,"",NA,"",NA,NA,NA,NA,NA,NA,NA,"","",1,1,"2024-08-23_15h31.13.642","IAT(Formal)","2021.2.3","Win32",60.60606061,"",NA,"",NA,NA,NA,NA,NA,NA,NA,"","","",NA,"e",1,0.455,0,79,79,3,1,"自己","e","",NA,NA,NA,NA,NA,NA,"",NA,"",NA,NA,NA,NA,NA,NA,NA,"",NA,"",NA,NA,NA,NA,NA,NA,NA,"","","",NA,"",NA,NA,NA,NA,NA,NA,NA,"",NA,"9"
"",NA,"",NA,"",NA,NA,NA,NA,NA,NA,NA,"","",1,1,"2024-08-23_15h31.13.642","IAT(Formal)","2021.2.3","Win32",60.60606061,"",NA,"",NA,NA,NA,NA,NA,NA,NA,"","","",NA,"e",1,0.6682,NA,NA,NA,NA,NA,"杰出","e","space",3.6311,0,0,0,13,1,"",NA,"",NA,NA,NA,NA,NA,NA,NA,"",NA,"",NA,NA,NA,NA,NA,NA,NA,"","","",NA,"",NA,NA,NA,NA,NA,NA,NA,"",NA,"9"
"",NA,"",NA,"",NA,NA,NA,NA,NA,NA,NA,"","",1,1,"2024-08-23_15h31.13.642","IAT(Formal)","2021.2.3","Win32",60.60606061,"",NA,"",NA,NA,NA,NA,NA,NA,NA,"","","",NA,"e",1,0.5451,NA,NA,NA,NA,NA,"我的","e","",NA,0,1,1,61,1,"",NA,"",NA,NA,NA,NA,NA,NA,NA,"",NA,"",NA,NA,NA,NA,NA,NA,NA,"","","",NA,"",NA,NA,NA,NA,NA,NA,NA,"",NA,"9"
"",NA,"",NA,"",NA,NA,NA,NA,NA,NA,NA,"","",1,1,"2024-08-23_15h31.13.642","IAT(Formal)","2021.2.3","Win32",60.60606061,"",NA,"",NA,NA,NA,NA,NA,NA,NA,"","","",NA,"i",1,0.6207,NA,NA,NA,NA,NA,"其他","i","",NA,0,2,2,69,1,"",NA,"",NA,NA,NA,NA,NA,NA,NA,"",NA,"",NA,NA,NA,NA,NA,NA,NA,"","","",NA,"",NA,NA,NA,NA,NA,NA,NA,"",NA,"9"
"",NA,"",NA,"",NA,NA,NA,NA,NA,NA,NA,"","",1,1,"2024-08-23_15h31.13.642","IAT(Formal)","2021.2.3","Win32",60.60606061,"",NA,"",NA,NA,NA,NA,NA,NA,NA,"","","",NA,"e",1,0.6133,NA,NA,NA,NA,NA,"机智","e","",NA,0,3,3,19,1,"",NA,"",NA,NA,NA,NA,NA,NA,NA,"",NA,"",NA,NA,NA,NA,NA,NA,NA,"","","",NA,"",NA,NA,NA,NA,NA,NA,NA,"",NA,"9"
"",NA,"",NA,"",NA,NA,NA,NA,NA,NA,NA,"","",1,1,"2024-08-23_15h31.13.642","IAT(Formal)","2021.2.3","Win32",60.60606061,"",NA,"",NA,NA,NA,NA,NA,NA,NA,"","","",NA,"i",1,0.6299,NA,NA,NA,NA,NA,"其他","i","",NA,0,4,4,79,1,"",NA,"",NA,NA,NA,NA,NA,NA,NA,"",NA,"",NA,NA,NA,NA,NA,NA,NA,"","","",NA,"",NA,NA,NA,NA,NA,NA,NA,"",NA,"9"
"",NA,"",NA,"",NA,NA,NA,NA,NA,NA,NA,"","",1,1,"2024-08-23_15h31.13.642","IAT(Formal)","2021.2.3","Win32",60.60606061,"",NA,"",NA,NA,NA,NA,NA,NA,NA,"","","",NA,"e",1,0.6718,NA,NA,NA,NA,NA,"勇敢","e","",NA,0,5,5,17,1,"",NA,"",NA,NA,NA,NA,NA,NA,NA,"",NA,"",NA,NA,NA,NA,NA,NA,NA,"","","",NA,"",NA,NA,NA,NA,NA,NA,NA,"",NA,"9"
"",NA,"",NA,"",NA,NA,NA,NA,NA,NA,NA,"","",1,1,"2024-08-23_15h31.13.642","IAT(Formal)","2021.2.3","Win32",60.60606061,"",NA,"",NA,NA,NA,NA,NA,NA,NA,"","","",NA,"i",1,0.6156,NA,NA,NA,NA,NA,"散漫","i","",NA,0,6,6,41,1,"",NA,"",NA,NA,NA,NA,NA,NA,NA,"",NA,"",NA,NA,NA,NA,NA,NA,NA,"","","",NA,"",NA,NA,NA,NA,NA,NA,NA,"",NA,"9"
"",NA,"",NA,"",NA,NA,NA,NA,NA,NA,NA,"","",1,1,"2024-08-23_15h31.13.642","IAT(Formal)","2021.2.3","Win32",60.60606061,"",NA,"",NA,NA,NA,NA,NA,NA,NA,"","","",NA,"e",0,0.7448,NA,NA,NA,NA,NA,"其他","i","",NA,0,7,7,59,1,"",NA,"",NA,NA,NA,NA,NA,NA,NA,"",NA,"",NA,NA,NA,NA,NA,NA,NA,"","","",NA,"",NA,NA,NA,NA,NA,NA,NA,"",NA,"9"
"",NA,"",NA,"",NA,NA,NA,NA,NA,NA,NA,"","",1,1,"2024-08-23_15h31.13.642","IAT(Formal)","2021.2.3","Win32",60.60606061,"",NA,"",NA,NA,NA,NA,NA,NA,NA,"","","",NA,"e",1,0.4957,NA,NA,NA,NA,NA,"我的","e","",NA,0,8,8,1,1,"",NA,"",NA,NA,NA,NA,NA,NA,NA,"",NA,"",NA,NA,NA,NA,NA,NA,NA,"","","",NA,"",NA,NA,NA,NA,NA,NA,NA,"",NA,"9"
"",NA,"",NA,"",NA,NA,NA,NA,NA,NA,NA,"","",1,1,"2024-08-23_15h31.13.642","IAT(Formal)","2021.2.3","Win32",60.60606061,"",NA,"",NA,NA,NA,NA,NA,NA,NA,"","","",NA,"i",1,0.8763,NA,NA,NA,NA,NA,"执拗","i","",NA,0,9,9,40,1,"",NA,"",NA,NA,NA,NA,NA,NA,NA,"",NA,"",NA,NA,NA,NA,NA,NA,NA,"","","",NA,"",NA,NA,NA,NA,NA,NA,NA,"",NA,"9"
"",NA,"",NA,"",NA,NA,NA,NA,NA,NA,NA,"","",1,1,"2024-08-23_15h31.13.642","IAT(Formal)","2021.2.3","Win32",60.60606061,"",NA,"",NA,NA,NA,NA,NA,NA,NA,"","","",NA,"e",1,1.2788,NA,NA,NA,NA,NA,"优秀","e","",NA,0,10,10,10,1,"",NA,"",NA,NA,NA,NA,NA,NA,NA,"",NA,"",NA,NA,NA,NA,NA,NA,NA,"","","",NA,"",NA,NA,NA,NA,NA,NA,NA,"",NA,"9"
"",NA,"",NA,"",NA,NA,NA,NA,NA,NA,NA,"","",1,1,"2024-08-23_15h31.13.642","IAT(Formal)","2021.2.3","Win32",60.60606061,"",NA,"",NA,NA,NA,NA,NA,NA,NA,"","","",NA,"e",1,0.6152,NA,NA,NA,NA,NA,"冷静","e","",NA,0,11,11,26,1,"",NA,"",NA,NA,NA,NA,NA,NA,NA,"",NA,"",NA,NA,NA,NA,NA,NA,NA,"","","",NA,"",NA,NA,NA,NA,NA,NA,NA,"",NA,"9"
"",NA,"",NA,"",NA,NA,NA,NA,NA,NA,NA,"","",1,1,"2024-08-23_15h31.13.642","IAT(Formal)","2021.2.3","Win32",60.60606061,"",NA,"",NA,NA,NA,NA,NA,NA,NA,"","","",NA,"e",1,0.6952,NA,NA,NA,NA,NA,"自己","e","",NA,0,12,12,73,1,"",NA,"",NA,NA,NA,NA,NA,NA,NA,"",NA,"",NA,NA,NA,NA,NA,NA,NA,"","","",NA,"",NA,NA,NA,NA,NA,NA,NA,"",NA,"9"
"",NA,"",NA,"",NA,NA,NA,NA,NA,NA,NA,"","",1,1,"2024-08-23_15h31.13.642","IAT(Formal)","2021.2.3","Win32",60.60606061,"",NA,"",NA,NA,NA,NA,NA,NA,NA,"","","",NA,"e",1,0.9257,NA,NA,NA,NA,NA,"活泼","e","",NA,0,13,13,28,1,"",NA,"",NA,NA,NA,NA,NA,NA,NA,"",NA,"",NA,NA,NA,NA,NA,NA,NA,"","","",NA,"",NA,NA,NA,NA,NA,NA,NA,"",NA,"9"
"",NA,"",NA,"",NA,NA,NA,NA,NA,NA,NA,"","",1,1,"2024-08-23_15h31.13.642","IAT(Formal)","2021.2.3","Win32",60.60606061,"",NA,"",NA,NA,NA,NA,NA,NA,NA,"","","",NA,"",0,NA,NA,NA,NA,NA,NA,"他","i","",NA,0,14,14,75,1,"",NA,"",NA,NA,NA,NA,NA,NA,NA,"",NA,"",NA,NA,NA,NA,NA,NA,NA,"","","",NA,"",NA,NA,NA,NA,NA,NA,NA,"",NA,"9"
"",NA,"",NA,"",NA,NA,NA,NA,NA,NA,NA,"","",1,1,"2024-08-23_15h31.13.642","IAT(Formal)","2021.2.3","Win32",60.60606061,"",NA,"",NA,NA,NA,NA,NA,NA,NA,"","","",NA,"e",1,0.5735,NA,NA,NA,NA,NA,"我","e","",NA,0,15,15,50,1,"",NA,"",NA,NA,NA,NA,NA,NA,NA,"",NA,"",NA,NA,NA,NA,NA,NA,NA,"","","",NA,"",NA,NA,NA,NA,NA,NA,NA,"",NA,"9"
"",NA,"",NA,"",NA,NA,NA,NA,NA,NA,NA,"","",1,1,"2024-08-23_15h31.13.642","IAT(Formal)","2021.2.3","Win32",60.60606061,"",NA,"",NA,NA,NA,NA,NA,NA,NA,"","","",NA,"e",1,0.4863,NA,NA,NA,NA,NA,"勤奋","e","",NA,0,16,16,18,1,"",NA,"",NA,NA,NA,NA,NA,NA,NA,"",NA,"",NA,NA,NA,NA,NA,NA,NA,"","","",NA,"",NA,NA,NA,NA,NA,NA,NA,"",NA,"9"
"",NA,"",NA,"",NA,NA,NA,NA,NA,NA,NA,"","",1,1,"2024-08-23_15h31.13.642","IAT(Formal)","2021.2.3","Win32",60.60606061,"",NA,"",NA,NA,NA,NA,NA,NA,NA,"","","",NA,"e",1,0.4467,NA,NA,NA,NA,NA,"我们","e","",NA,0,17,17,2,1,"",NA,"",NA,NA,NA,NA,NA,NA,NA,"",NA,"",NA,NA,NA,NA,NA,NA,NA,"","","",NA,"",NA,NA,NA,NA,NA,NA,NA,"",NA,"9"
"",NA,"",NA,"",NA,NA,NA,NA,NA,NA,NA,"","",1,1,"2024-08-23_15h31.13.642","IAT(Formal)","2021.2.3","Win32",60.60606061,"",NA,"",NA,NA,NA,NA,NA,NA,NA,"","","",NA,"i",1,0.5964,NA,NA,NA,NA,NA,"其他","i","",NA,0,18,18,9,1,"",NA,"",NA,NA,NA,NA,NA,NA,NA,"",NA,"",NA,NA,NA,NA,NA,NA,NA,"","","",NA,"",NA,NA,NA,NA,NA,NA,NA,"",NA,"9"
"",NA,"",NA,"",NA,NA,NA,NA,NA,NA,NA,"","",1,1,"2024-08-23_15h31.13.642","IAT(Formal)","2021.2.3","Win32",60.60606061,"",NA,"",NA,NA,NA,NA,NA,NA,NA,"","","",NA,"i",1,0.5947,NA,NA,NA,NA,NA,"自卑","i","",NA,0,19,19,36,1,"",NA,"",NA,NA,NA,NA,NA,NA,NA,"",NA,"",NA,NA,NA,NA,NA,NA,NA,"","","",NA,"",NA,NA,NA,NA,NA,NA,NA,"",NA,"9"
"",NA,"",NA,"",NA,NA,NA,NA,NA,NA,NA,"","",1,1,"2024-08-23_15h31.13.642","IAT(Formal)","2021.2.3","Win32",60.60606061,"",NA,"",NA,NA,NA,NA,NA,NA,NA,"","","",NA,"i",1,0.6099,NA,NA,NA,NA,NA,"悲观","i","",NA,0,20,20,34,1,"",NA,"",NA,NA,NA,NA,NA,NA,NA,"",NA,"",NA,NA,NA,NA,NA,NA,NA,"","","",NA,"",NA,NA,NA,NA,NA,NA,NA,"",NA,"9"
"",NA,"",NA,"",NA,NA,NA,NA,NA,NA,NA,"","",1,1,"2024-08-23_15h31.13.642","IAT(Formal)","2021.2.3","Win32",60.60606061,"",NA,"",NA,NA,NA,NA,NA,NA,NA,"","","",NA,"e",1,1.1231,NA,NA,NA,NA,NA,"稳重","e","",NA,0,21,21,21,1,"",NA,"",NA,NA,NA,NA,NA,NA,NA,"",NA,"",NA,NA,NA,NA,NA,NA,NA,"","","",NA,"",NA,NA,NA,NA,NA,NA,NA,"",NA,"9"
"",NA,"",NA,"",NA,NA,NA,NA,NA,NA,NA,"","",1,1,"2024-08-23_15h31.13.642","IAT(Formal)","2021.2.3","Win32",60.60606061,"",NA,"",NA,NA,NA,NA,NA,NA,NA,"","","",NA,"e",1,0.5612,NA,NA,NA,NA,NA,"俺","e","",NA,0,22,22,54,1,"",NA,"",NA,NA,NA,NA,NA,NA,NA,"",NA,"",NA,NA,NA,NA,NA,NA,NA,"","","",NA,"",NA,NA,NA,NA,NA,NA,NA,"",NA,"9"
"",NA,"",NA,"",NA,NA,NA,NA,NA,NA,NA,"","",1,1,"2024-08-23_15h31.13.642","IAT(Formal)","2021.2.3","Win32",60.60606061,"",NA,"",NA,NA,NA,NA,NA,NA,NA,"","","",NA,"i",1,0.6836,NA,NA,NA,NA,NA,"他的","i","",NA,0,23,23,57,1,"",NA,"",NA,NA,NA,NA,NA,NA,NA,"",NA,"",NA,NA,NA,NA,NA,NA,NA,"","","",NA,"",NA,NA,NA,NA,NA,NA,NA,"",NA,"9"
"",NA,"",NA,"",NA,NA,NA,NA,NA,NA,NA,"","",1,1,"2024-08-23_15h31.13.642","IAT(Formal)","2021.2.3","Win32",60.60606061,"",NA,"",NA,NA,NA,NA,NA,NA,NA,"","","",NA,"i",1,0.858,NA,NA,NA,NA,NA,"暴躁","i","",NA,0,24,24,44,1,"",NA,"",NA,NA,NA,NA,NA,NA,NA,"",NA,"",NA,NA,NA,NA,NA,NA,NA,"","","",NA,"",NA,NA,NA,NA,NA,NA,NA,"",NA,"9"
"",NA,"",NA,"",NA,NA,NA,NA,NA,NA,NA,"","",1,1,"2024-08-23_15h31.13.642","IAT(Formal)","2021.2.3","Win32",60.60606061,"",NA,"",NA,NA,NA,NA,NA,NA,NA,"","","",NA,"",0,NA,NA,NA,NA,NA,NA,"虚伪","i","",NA,0,25,25,31,1,"",NA,"",NA,NA,NA,NA,NA,NA,NA,"",NA,"",NA,NA,NA,NA,NA,NA,NA,"","","",NA,"",NA,NA,NA,NA,NA,NA,NA,"",NA,"9"
"",NA,"",NA,"",NA,NA,NA,NA,NA,NA,NA,"","",1,1,"2024-08-23_15h31.13.642","IAT(Formal)","2021.2.3","Win32",60.60606061,"",NA,"",NA,NA,NA,NA,NA,NA,NA,"","","",NA,"e",1,0.635,NA,NA,NA,NA,NA,"聪明","e","",NA,0,26,26,12,1,"",NA,"",NA,NA,NA,NA,NA,NA,NA,"",NA,"",NA,NA,NA,NA,NA,NA,NA,"","","",NA,"",NA,NA,NA,NA,NA,NA,NA,"",NA,"9"
"",NA,"",NA,"",NA,NA,NA,NA,NA,NA,NA,"","",1,1,"2024-08-23_15h31.13.642","IAT(Formal)","2021.2.3","Win32",60.60606061,"",NA,"",NA,NA,NA,NA,NA,NA,NA,"","","",NA,"e",1,0.472,NA,NA,NA,NA,NA,"我的","e","",NA,0,27,27,71,1,"",NA,"",NA,NA,NA,NA,NA,NA,NA,"",NA,"",NA,NA,NA,NA,NA,NA,NA,"","","",NA,"",NA,NA,NA,NA,NA,NA,NA,"",NA,"9"
"",NA,"",NA,"",NA,NA,NA,NA,NA,NA,NA,"","",1,1,"2024-08-23_15h31.13.642","IAT(Formal)","2021.2.3","Win32",60.60606061,"",NA,"",NA,NA,NA,NA,NA,NA,NA,"","","",NA,"i",1,0.5844,NA,NA,NA,NA,NA,"猖狂","i","",NA,0,28,28,45,1,"",NA,"",NA,NA,NA,NA,NA,NA,NA,"",NA,"",NA,NA,NA,NA,NA,NA,NA,"","","",NA,"",NA,NA,NA,NA,NA,NA,NA,"",NA,"9"
"",NA,"",NA,"",NA,NA,NA,NA,NA,NA,NA,"","",1,1,"2024-08-23_15h31.13.642","IAT(Formal)","2021.2.3","Win32",60.60606061,"",NA,"",NA,NA,NA,NA,NA,NA,NA,"","","",NA,"e",1,0.6619,NA,NA,NA,NA,NA,"崇高","e","",NA,0,29,29,11,1,"",NA,"",NA,NA,NA,NA,NA,NA,NA,"",NA,"",NA,NA,NA,NA,NA,NA,NA,"","","",NA,"",NA,NA,NA,NA,NA,NA,NA,"",NA,"9"
"",NA,"",NA,"",NA,NA,NA,NA,NA,NA,NA,"","",1,1,"2024-08-23_15h31.13.642","IAT(Formal)","2021.2.3","Win32",60.60606061,"",NA,"",NA,NA,NA,NA,NA,NA,NA,"","","",NA,"e",1,0.5179,NA,NA,NA,NA,NA,"我们","e","",NA,0,30,30,62,1,"",NA,"",NA,NA,NA,NA,NA,NA,NA,"",NA,"",NA,NA,NA,NA,NA,NA,NA,"","","",NA,"",NA,NA,NA,NA,NA,NA,NA,"",NA,"9"
"",NA,"",NA,"",NA,NA,NA,NA,NA,NA,NA,"","",1,1,"2024-08-23_15h31.13.642","IAT(Formal)","2021.2.3","Win32",60.60606061,"",NA,"",NA,NA,NA,NA,NA,NA,NA,"","","",NA,"i",1,0.5523,NA,NA,NA,NA,NA,"刻薄","i","",NA,0,31,31,33,1,"",NA,"",NA,NA,NA,NA,NA,NA,NA,"",NA,"",NA,NA,NA,NA,NA,NA,NA,"","","",NA,"",NA,NA,NA,NA,NA,NA,NA,"",NA,"9"
"",NA,"",NA,"",NA,NA,NA,NA,NA,NA,NA,"","",1,1,"2024-08-23_15h31.13.642","IAT(Formal)","2021.2.3","Win32",60.60606061,"",NA,"",NA,NA,NA,NA,NA,NA,NA,"","","",NA,"e",1,0.7099,NA,NA,NA,NA,NA,"朴实","e","",NA,0,32,32,24,1,"",NA,"",NA,NA,NA,NA,NA,NA,NA,"",NA,"",NA,NA,NA,NA,NA,NA,NA,"","","",NA,"",NA,NA,NA,NA,NA,NA,NA,"",NA,"9"
"",NA,"",NA,"",NA,NA,NA,NA,NA,NA,NA,"","",1,1,"2024-08-23_15h31.13.642","IAT(Formal)","2021.2.3","Win32",60.60606061,"",NA,"",NA,NA,NA,NA,NA,NA,NA,"","","",NA,"i",1,0.6965,NA,NA,NA,NA,NA,"下贱","i","",NA,0,33,33,49,1,"",NA,"",NA,NA,NA,NA,NA,NA,NA,"",NA,"",NA,NA,NA,NA,NA,NA,NA,"","","",NA,"",NA,NA,NA,NA,NA,NA,NA,"",NA,"9"
"",NA,"",NA,"",NA,NA,NA,NA,NA,NA,NA,"","",1,1,"2024-08-23_15h31.13.642","IAT(Formal)","2021.2.3","Win32",60.60606061,"",NA,"",NA,NA,NA,NA,NA,NA,NA,"","","",NA,"e",1,0.9714,NA,NA,NA,NA,NA,"诚恳","e","",NA,0,34,34,29,1,"",NA,"",NA,NA,NA,NA,NA,NA,NA,"",NA,"",NA,NA,NA,NA,NA,NA,NA,"","","",NA,"",NA,NA,NA,NA,NA,NA,NA,"",NA,"9"
"",NA,"",NA,"",NA,NA,NA,NA,NA,NA,NA,"","",1,1,"2024-08-23_15h31.13.642","IAT(Formal)","2021.2.3","Win32",60.60606061,"",NA,"",NA,NA,NA,NA,NA,NA,NA,"","","",NA,"i",1,1.3366,NA,NA,NA,NA,NA,"他的","i","",NA,0,35,35,7,1,"",NA,"",NA,NA,NA,NA,NA,NA,NA,"",NA,"",NA,NA,NA,NA,NA,NA,NA,"","","",NA,"",NA,NA,NA,NA,NA,NA,NA,"",NA,"9"
"",NA,"",NA,"",NA,NA,NA,NA,NA,NA,NA,"","",1,1,"2024-08-23_15h31.13.642","IAT(Formal)","2021.2.3","Win32",60.60606061,"",NA,"",NA,NA,NA,NA,NA,NA,NA,"","","",NA,"e",1,0.4388,NA,NA,NA,NA,NA,"我","e","",NA,0,36,36,60,1,"",NA,"",NA,NA,NA,NA,NA,NA,NA,"",NA,"",NA,NA,NA,NA,NA,NA,NA,"","","",NA,"",NA,NA,NA,NA,NA,NA,NA,"",NA,"9"
"",NA,"",NA,"",NA,NA,NA,NA,NA,NA,NA,"","",1,1,"2024-08-23_15h31.13.642","IAT(Formal)","2021.2.3","Win32",60.60606061,"",NA,"",NA,NA,NA,NA,NA,NA,NA,"","","",NA,"e",0,0.3625,NA,NA,NA,NA,NA,"他们","i","",NA,0,37,37,6,1,"",NA,"",NA,NA,NA,NA,NA,NA,NA,"",NA,"",NA,NA,NA,NA,NA,NA,NA,"","","",NA,"",NA,NA,NA,NA,NA,NA,NA,"",NA,"9"
"",NA,"",NA,"",NA,NA,NA,NA,NA,NA,NA,"","",1,1,"2024-08-23_15h31.13.642","IAT(Formal)","2021.2.3","Win32",60.60606061,"",NA,"",NA,NA,NA,NA,NA,NA,NA,"","","",NA,"i",1,0.4848,NA,NA,NA,NA,NA,"他人","i","",NA,0,38,38,78,1,"",NA,"",NA,NA,NA,NA,NA,NA,NA,"",NA,"",NA,NA,NA,NA,NA,NA,NA,"","","",NA,"",NA,NA,NA,NA,NA,NA,NA,"",NA,"9"
"",NA,"",NA,"",NA,NA,NA,NA,NA,NA,NA,"","",1,1,"2024-08-23_15h31.13.642","IAT(Formal)","2021.2.3","Win32",60.60606061,"",NA,"",NA,NA,NA,NA,NA,NA,NA,"","","",NA,"e",1,0.5341,NA,NA,NA,NA,NA,"我们","e","",NA,0,39,39,72,1,"",NA,"",NA,NA,NA,NA,NA,NA,NA,"",NA,"",NA,NA,NA,NA,NA,NA,NA,"","","",NA,"",NA,NA,NA,NA,NA,NA,NA,"",NA,"9"
"",NA,"",NA,"",NA,NA,NA,NA,NA,NA,NA,"","",1,1,"2024-08-23_15h31.13.642","IAT(Formal)","2021.2.3","Win32",60.60606061,"",NA,"",NA,NA,NA,NA,NA,NA,NA,"","","",NA,"e",1,0.9278,NA,NA,NA,NA,NA,"我","e","",NA,0,40,40,0,1,"",NA,"",NA,NA,NA,NA,NA,NA,NA,"",NA,"",NA,NA,NA,NA,NA,NA,NA,"","","",NA,"",NA,NA,NA,NA,NA,NA,NA,"",NA,"9"
"",NA,"",NA,"",NA,NA,NA,NA,NA,NA,NA,"","",1,1,"2024-08-23_15h31.13.642","IAT(Formal)","2021.2.3","Win32",60.60606061,"",NA,"",NA,NA,NA,NA,NA,NA,NA,"","","",NA,"i",1,0.6912,NA,NA,NA,NA,NA,"固执","i","",NA,0,41,41,47,1,"",NA,"",NA,NA,NA,NA,NA,NA,NA,"",NA,"",NA,NA,NA,NA,NA,NA,NA,"","","",NA,"",NA,NA,NA,NA,NA,NA,NA,"",NA,"9"
"",NA,"",NA,"",NA,NA,NA,NA,NA,NA,NA,"","",1,1,"2024-08-23_15h31.13.642","IAT(Formal)","2021.2.3","Win32",60.60606061,"",NA,"",NA,NA,NA,NA,NA,NA,NA,"","","",NA,"e",1,0.6517,NA,NA,NA,NA,NA,"认真","e","",NA,0,42,42,20,1,"",NA,"",NA,NA,NA,NA,NA,NA,NA,"",NA,"",NA,NA,NA,NA,NA,NA,NA,"","","",NA,"",NA,NA,NA,NA,NA,NA,NA,"",NA,"9"
"",NA,"",NA,"",NA,NA,NA,NA,NA,NA,NA,"","",1,1,"2024-08-23_15h31.13.642","IAT(Formal)","2021.2.3","Win32",60.60606061,"",NA,"",NA,NA,NA,NA,NA,NA,NA,"","","",NA,"e",1,0.5853,NA,NA,NA,NA,NA,"自己","e","",NA,0,43,43,3,1,"",NA,"",NA,NA,NA,NA,NA,NA,NA,"",NA,"",NA,NA,NA,NA,NA,NA,NA,"","","",NA,"",NA,NA,NA,NA,NA,NA,NA,"",NA,"9"
"",NA,"",NA,"",NA,NA,NA,NA,NA,NA,NA,"","",1,1,"2024-08-23_15h31.13.642","IAT(Formal)","2021.2.3","Win32",60.60606061,"",NA,"",NA,NA,NA,NA,NA,NA,NA,"","","",NA,"i",1,0.5375,NA,NA,NA,NA,NA,"他","i","",NA,0,44,44,55,1,"",NA,"",NA,NA,NA,NA,NA,NA,NA,"",NA,"",NA,NA,NA,NA,NA,NA,NA,"","","",NA,"",NA,NA,NA,NA,NA,NA,NA,"",NA,"9"
"",NA,"",NA,"",NA,NA,NA,NA,NA,NA,NA,"","",1,1,"2024-08-23_15h31.13.642","IAT(Formal)","2021.2.3","Win32",60.60606061,"",NA,"",NA,NA,NA,NA,NA,NA,NA,"","","",NA,"e",0,1.4027,NA,NA,NA,NA,NA,"鲁莽","i","",NA,0,45,45,38,1,"",NA,"",NA,NA,NA,NA,NA,NA,NA,"",NA,"",NA,NA,NA,NA,NA,NA,NA,"","","",NA,"",NA,NA,NA,NA,NA,NA,NA,"",NA,"9"
"",NA,"",NA,"",NA,NA,NA,NA,NA,NA,NA,"","",1,1,"2024-08-23_15h31.13.642","IAT(Formal)","2021.2.3","Win32",60.60606061,"",NA,"",NA,NA,NA,NA,NA,NA,NA,"","","",NA,"e",0,0.5107,NA,NA,NA,NA,NA,"他们","i","",NA,0,46,46,76,1,"",NA,"",NA,NA,NA,NA,NA,NA,NA,"",NA,"",NA,NA,NA,NA,NA,NA,NA,"","","",NA,"",NA,NA,NA,NA,NA,NA,NA,"",NA,"9"
"",NA,"",NA,"",NA,NA,NA,NA,NA,NA,NA,"","",1,1,"2024-08-23_15h31.13.642","IAT(Formal)","2021.2.3","Win32",60.60606061,"",NA,"",NA,NA,NA,NA,NA,NA,NA,"","","",NA,"i",1,0.4633,NA,NA,NA,NA,NA,"他的","i","",NA,0,47,47,77,1,"",NA,"",NA,NA,NA,NA,NA,NA,NA,"",NA,"",NA,NA,NA,NA,NA,NA,NA,"","","",NA,"",NA,NA,NA,NA,NA,NA,NA,"",NA,"9"
"",NA,"",NA,"",NA,NA,NA,NA,NA,NA,NA,"","",1,1,"2024-08-23_15h31.13.642","IAT(Formal)","2021.2.3","Win32",60.60606061,"",NA,"",NA,NA,NA,NA,NA,NA,NA,"","","",NA,"i",1,0.3854,NA,NA,NA,NA,NA,"凶狠","i","",NA,0,48,48,42,1,"",NA,"",NA,NA,NA,NA,NA,NA,NA,"",NA,"",NA,NA,NA,NA,NA,NA,NA,"","","",NA,"",NA,NA,NA,NA,NA,NA,NA,"",NA,"9"
"",NA,"",NA,"",NA,NA,NA,NA,NA,NA,NA,"","",1,1,"2024-08-23_15h31.13.642","IAT(Formal)","2021.2.3","Win32",60.60606061,"",NA,"",NA,NA,NA,NA,NA,NA,NA,"","","",NA,"i",1,0.4088,NA,NA,NA,NA,NA,"冒失","i","",NA,0,49,49,39,1,"",NA,"",NA,NA,NA,NA,NA,NA,NA,"",NA,"",NA,NA,NA,NA,NA,NA,NA,"","","",NA,"",NA,NA,NA,NA,NA,NA,NA,"",NA,"9"
"",NA,"",NA,"",NA,NA,NA,NA,NA,NA,NA,"","",1,1,"2024-08-23_15h31.13.642","IAT(Formal)","2021.2.3","Win32",60.60606061,"",NA,"",NA,NA,NA,NA,NA,NA,NA,"","","",NA,"i",1,0.472,NA,NA,NA,NA,NA,"他们","i","",NA,0,50,50,66,1,"",NA,"",NA,NA,NA,NA,NA,NA,NA,"",NA,"",NA,NA,NA,NA,NA,NA,NA,"","","",NA,"",NA,NA,NA,NA,NA,NA,NA,"",NA,"9"
"",NA,"",NA,"",NA,NA,NA,NA,NA,NA,NA,"","",1,1,"2024-08-23_15h31.13.642","IAT(Formal)","2021.2.3","Win32",60.60606061,"",NA,"",NA,NA,NA,NA,NA,NA,NA,"","","",NA,"i",1,0.501,NA,NA,NA,NA,NA,"愚蠢","i","",NA,0,51,51,32,1,"",NA,"",NA,NA,NA,NA,NA,NA,NA,"",NA,"",NA,NA,NA,NA,NA,NA,NA,"","","",NA,"",NA,NA,NA,NA,NA,NA,NA,"",NA,"9"
"",NA,"",NA,"",NA,NA,NA,NA,NA,NA,NA,"","",1,1,"2024-08-23_15h31.13.642","IAT(Formal)","2021.2.3","Win32",60.60606061,"",NA,"",NA,NA,NA,NA,NA,NA,NA,"","","",NA,"e",1,0.595,NA,NA,NA,NA,NA,"俺","e","",NA,0,52,52,64,1,"",NA,"",NA,NA,NA,NA,NA,NA,NA,"",NA,"",NA,NA,NA,NA,NA,NA,NA,"","","",NA,"",NA,NA,NA,NA,NA,NA,NA,"",NA,"9"
"",NA,"",NA,"",NA,NA,NA,NA,NA,NA,NA,"","",1,1,"2024-08-23_15h31.13.642","IAT(Formal)","2021.2.3","Win32",60.60606061,"",NA,"",NA,NA,NA,NA,NA,NA,NA,"","","",NA,"i",1,0.5525,NA,NA,NA,NA,NA,"卑鄙","i","",NA,0,53,53,30,1,"",NA,"",NA,NA,NA,NA,NA,NA,NA,"",NA,"",NA,NA,NA,NA,NA,NA,NA,"","","",NA,"",NA,NA,NA,NA,NA,NA,NA,"",NA,"9"
"",NA,"",NA,"",NA,NA,NA,NA,NA,NA,NA,"","",1,1,"2024-08-23_15h31.13.642","IAT(Formal)","2021.2.3","Win32",60.60606061,"",NA,"",NA,NA,NA,NA,NA,NA,NA,"","","",NA,"e",1,0.5397,NA,NA,NA,NA,NA,"自己","e","",NA,0,54,54,53,1,"",NA,"",NA,NA,NA,NA,NA,NA,NA,"",NA,"",NA,NA,NA,NA,NA,NA,NA,"","","",NA,"",NA,NA,NA,NA,NA,NA,NA,"",NA,"9"
"",NA,"",NA,"",NA,NA,NA,NA,NA,NA,NA,"","",1,1,"2024-08-23_15h31.13.642","IAT(Formal)","2021.2.3","Win32",60.60606061,"",NA,"",NA,NA,NA,NA,NA,NA,NA,"","","",NA,"e",1,0.5013,NA,NA,NA,NA,NA,"俺","e","",NA,0,55,55,4,1,"",NA,"",NA,NA,NA,NA,NA,NA,NA,"",NA,"",NA,NA,NA,NA,NA,NA,NA,"","","",NA,"",NA,NA,NA,NA,NA,NA,NA,"",NA,"9"
"",NA,"",NA,"",NA,NA,NA,NA,NA,NA,NA,"","",1,1,"2024-08-23_15h31.13.642","IAT(Formal)","2021.2.3","Win32",60.60606061,"",NA,"",NA,NA,NA,NA,NA,NA,NA,"","","",NA,"i",0,0.5725,NA,NA,NA,NA,NA,"无私","e","",NA,0,56,56,22,1,"",NA,"",NA,NA,NA,NA,NA,NA,NA,"",NA,"",NA,NA,NA,NA,NA,NA,NA,"","","",NA,"",NA,NA,NA,NA,NA,NA,NA,"",NA,"9"
"",NA,"",NA,"",NA,NA,NA,NA,NA,NA,NA,"","",1,1,"2024-08-23_15h31.13.642","IAT(Formal)","2021.2.3","Win32",60.60606061,"",NA,"",NA,NA,NA,NA,NA,NA,NA,"","","",NA,"i",1,0.9531,NA,NA,NA,NA,NA,"他人","i","",NA,0,57,57,8,1,"",NA,"",NA,NA,NA,NA,NA,NA,NA,"",NA,"",NA,NA,NA,NA,NA,NA,NA,"","","",NA,"",NA,NA,NA,NA,NA,NA,NA,"",NA,"9"
"",NA,"",NA,"",NA,NA,NA,NA,NA,NA,NA,"","",1,1,"2024-08-23_15h31.13.642","IAT(Formal)","2021.2.3","Win32",60.60606061,"",NA,"",NA,NA,NA,NA,NA,NA,NA,"","","",NA,"e",1,0.7177,NA,NA,NA,NA,NA,"我的","e","",NA,0,58,58,51,1,"",NA,"",NA,NA,NA,NA,NA,NA,NA,"",NA,"",NA,NA,NA,NA,NA,NA,NA,"","","",NA,"",NA,NA,NA,NA,NA,NA,NA,"",NA,"9"
"",NA,"",NA,"",NA,NA,NA,NA,NA,NA,NA,"","",1,1,"2024-08-23_15h31.13.642","IAT(Formal)","2021.2.3","Win32",60.60606061,"",NA,"",NA,NA,NA,NA,NA,NA,NA,"","","",NA,"",0,NA,NA,NA,NA,NA,NA,"轻率","i","",NA,0,59,59,48,1,"",NA,"",NA,NA,NA,NA,NA,NA,NA,"",NA,"",NA,NA,NA,NA,NA,NA,NA,"","","",NA,"",NA,NA,NA,NA,NA,NA,NA,"",NA,"9"
"",NA,"",NA,"",NA,NA,NA,NA,NA,NA,NA,"","",1,1,"2024-08-23_15h31.13.642","IAT(Formal)","2021.2.3","Win32",60.60606061,"",NA,"",NA,NA,NA,NA,NA,NA,NA,"","","",NA,"i",1,0.5592,NA,NA,NA,NA,NA,"他人","i","",NA,0,60,60,68,1,"",NA,"",NA,NA,NA,NA,NA,NA,NA,"",NA,"",NA,NA,NA,NA,NA,NA,NA,"","","",NA,"",NA,NA,NA,NA,NA,NA,NA,"",NA,"9"
"",NA,"",NA,"",NA,NA,NA,NA,NA,NA,NA,"","",1,1,"2024-08-23_15h31.13.642","IAT(Formal)","2021.2.3","Win32",60.60606061,"",NA,"",NA,NA,NA,NA,NA,NA,NA,"","","",NA,"e",1,0.6701,NA,NA,NA,NA,NA,"乐观","e","",NA,0,61,61,14,1,"",NA,"",NA,NA,NA,NA,NA,NA,NA,"",NA,"",NA,NA,NA,NA,NA,NA,NA,"","","",NA,"",NA,NA,NA,NA,NA,NA,NA,"",NA,"9"
"",NA,"",NA,"",NA,NA,NA,NA,NA,NA,NA,"","",1,1,"2024-08-23_15h31.13.642","IAT(Formal)","2021.2.3","Win32",60.60606061,"",NA,"",NA,NA,NA,NA,NA,NA,NA,"","","",NA,"e",1,0.5839,NA,NA,NA,NA,NA,"正直","e","",NA,0,62,62,16,1,"",NA,"",NA,NA,NA,NA,NA,NA,NA,"",NA,"",NA,NA,NA,NA,NA,NA,NA,"","","",NA,"",NA,NA,NA,NA,NA,NA,NA,"",NA,"9"
"",NA,"",NA,"",NA,NA,NA,NA,NA,NA,NA,"","",1,1,"2024-08-23_15h31.13.642","IAT(Formal)","2021.2.3","Win32",60.60606061,"",NA,"",NA,NA,NA,NA,NA,NA,NA,"","","",NA,"e",1,0.4097,NA,NA,NA,NA,NA,"我们","e","",NA,0,63,63,52,1,"",NA,"",NA,NA,NA,NA,NA,NA,NA,"",NA,"",NA,NA,NA,NA,NA,NA,NA,"","","",NA,"",NA,NA,NA,NA,NA,NA,NA,"",NA,"9"
"",NA,"",NA,"",NA,NA,NA,NA,NA,NA,NA,"","",1,1,"2024-08-23_15h31.13.642","IAT(Formal)","2021.2.3","Win32",60.60606061,"",NA,"",NA,NA,NA,NA,NA,NA,NA,"","","",NA,"i",1,0.8494,NA,NA,NA,NA,NA,"消极","i","",NA,0,64,64,35,1,"",NA,"",NA,NA,NA,NA,NA,NA,NA,"",NA,"",NA,NA,NA,NA,NA,NA,NA,"","","",NA,"",NA,NA,NA,NA,NA,NA,NA,"",NA,"9"
"",NA,"",NA,"",NA,NA,NA,NA,NA,NA,NA,"","",1,1,"2024-08-23_15h31.13.642","IAT(Formal)","2021.2.3","Win32",60.60606061,"",NA,"",NA,NA,NA,NA,NA,NA,NA,"","","",NA,"e",1,0.6246,NA,NA,NA,NA,NA,"热情","e","",NA,0,65,65,27,1,"",NA,"",NA,NA,NA,NA,NA,NA,NA,"",NA,"",NA,NA,NA,NA,NA,NA,NA,"","","",NA,"",NA,NA,NA,NA,NA,NA,NA,"",NA,"9"
"",NA,"",NA,"",NA,NA,NA,NA,NA,NA,NA,"","",1,1,"2024-08-23_15h31.13.642","IAT(Formal)","2021.2.3","Win32",60.60606061,"",NA,"",NA,NA,NA,NA,NA,NA,NA,"","","",NA,"e",1,0.657,NA,NA,NA,NA,NA,"俺","e","",NA,0,66,66,74,1,"",NA,"",NA,NA,NA,NA,NA,NA,NA,"",NA,"",NA,NA,NA,NA,NA,NA,NA,"","","",NA,"",NA,NA,NA,NA,NA,NA,NA,"",NA,"9"
"",NA,"",NA,"",NA,NA,NA,NA,NA,NA,NA,"","",1,1,"2024-08-23_15h31.13.642","IAT(Formal)","2021.2.3","Win32",60.60606061,"",NA,"",NA,NA,NA,NA,NA,NA,NA,"","","",NA,"e",1,0.8851,NA,NA,NA,NA,NA,"诚实","e","",NA,0,67,67,15,1,"",NA,"",NA,NA,NA,NA,NA,NA,NA,"",NA,"",NA,NA,NA,NA,NA,NA,NA,"","","",NA,"",NA,NA,NA,NA,NA,NA,NA,"",NA,"9"
"",NA,"",NA,"",NA,NA,NA,NA,NA,NA,NA,"","",1,1,"2024-08-23_15h31.13.642","IAT(Formal)","2021.2.3","Win32",60.60606061,"",NA,"",NA,NA,NA,NA,NA,NA,NA,"","","",NA,"i",1,0.8289,NA,NA,NA,NA,NA,"他","i","",NA,0,68,68,65,1,"",NA,"",NA,NA,NA,NA,NA,NA,NA,"",NA,"",NA,NA,NA,NA,NA,NA,NA,"","","",NA,"",NA,NA,NA,NA,NA,NA,NA,"",NA,"9"
"",NA,"",NA,"",NA,NA,NA,NA,NA,NA,NA,"","",1,1,"2024-08-23_15h31.13.642","IAT(Formal)","2021.2.3","Win32",60.60606061,"",NA,"",NA,NA,NA,NA,NA,NA,NA,"","","",NA,"i",1,0.5684,NA,NA,NA,NA,NA,"他们","i","",NA,0,69,69,56,1,"",NA,"",NA,NA,NA,NA,NA,NA,NA,"",NA,"",NA,NA,NA,NA,NA,NA,NA,"","","",NA,"",NA,NA,NA,NA,NA,NA,NA,"",NA,"9"
"",NA,"",NA,"",NA,NA,NA,NA,NA,NA,NA,"","",1,1,"2024-08-23_15h31.13.642","IAT(Formal)","2021.2.3","Win32",60.60606061,"",NA,"",NA,NA,NA,NA,NA,NA,NA,"","","",NA,"i",1,0.5139,NA,NA,NA,NA,NA,"他人","i","",NA,0,70,70,58,1,"",NA,"",NA,NA,NA,NA,NA,NA,NA,"",NA,"",NA,NA,NA,NA,NA,NA,NA,"","","",NA,"",NA,NA,NA,NA,NA,NA,NA,"",NA,"9"
"",NA,"",NA,"",NA,NA,NA,NA,NA,NA,NA,"","",1,1,"2024-08-23_15h31.13.642","IAT(Formal)","2021.2.3","Win32",60.60606061,"",NA,"",NA,NA,NA,NA,NA,NA,NA,"","","",NA,"e",1,0.8672,NA,NA,NA,NA,NA,"细腻","e","",NA,0,71,71,25,1,"",NA,"",NA,NA,NA,NA,NA,NA,NA,"",NA,"",NA,NA,NA,NA,NA,NA,NA,"","","",NA,"",NA,NA,NA,NA,NA,NA,NA,"",NA,"9"
"",NA,"",NA,"",NA,NA,NA,NA,NA,NA,NA,"","",1,1,"2024-08-23_15h31.13.642","IAT(Formal)","2021.2.3","Win32",60.60606061,"",NA,"",NA,NA,NA,NA,NA,NA,NA,"","","",NA,"e",1,0.507,NA,NA,NA,NA,NA,"公正","e","",NA,0,72,72,23,1,"",NA,"",NA,NA,NA,NA,NA,NA,NA,"",NA,"",NA,NA,NA,NA,NA,NA,NA,"","","",NA,"",NA,NA,NA,NA,NA,NA,NA,"",NA,"9"
"",NA,"",NA,"",NA,NA,NA,NA,NA,NA,NA,"","",1,1,"2024-08-23_15h31.13.642","IAT(Formal)","2021.2.3","Win32",60.60606061,"",NA,"",NA,NA,NA,NA,NA,NA,NA,"","","",NA,"i",1,0.9349,NA,NA,NA,NA,NA,"傲慢","i","",NA,0,73,73,37,1,"",NA,"",NA,NA,NA,NA,NA,NA,NA,"",NA,"",NA,NA,NA,NA,NA,NA,NA,"","","",NA,"",NA,NA,NA,NA,NA,NA,NA,"",NA,"9"
"",NA,"",NA,"",NA,NA,NA,NA,NA,NA,NA,"","",1,1,"2024-08-23_15h31.13.642","IAT(Formal)","2021.2.3","Win32",60.60606061,"",NA,"",NA,NA,NA,NA,NA,NA,NA,"","","",NA,"e",1,1.0946,NA,NA,NA,NA,NA,"我","e","",NA,0,74,74,70,1,"",NA,"",NA,NA,NA,NA,NA,NA,NA,"",NA,"",NA,NA,NA,NA,NA,NA,NA,"","","",NA,"",NA,NA,NA,NA,NA,NA,NA,"",NA,"9"
"",NA,"",NA,"",NA,NA,NA,NA,NA,NA,NA,"","",1,1,"2024-08-23_15h31.13.642","IAT(Formal)","2021.2.3","Win32",60.60606061,"",NA,"",NA,NA,NA,NA,NA,NA,NA,"","","",NA,"e",1,0.5464,NA,NA,NA,NA,NA,"自己","e","",NA,0,75,75,63,1,"",NA,"",NA,NA,NA,NA,NA,NA,NA,"",NA,"",NA,NA,NA,NA,NA,NA,NA,"","","",NA,"",NA,NA,NA,NA,NA,NA,NA,"",NA,"9"
"",NA,"",NA,"",NA,NA,NA,NA,NA,NA,NA,"","",1,1,"2024-08-23_15h31.13.642","IAT(Formal)","2021.2.3","Win32",60.60606061,"",NA,"",NA,NA,NA,NA,NA,NA,NA,"","","",NA,"",0,NA,NA,NA,NA,NA,NA,"他的","i","",NA,0,76,76,67,1,"",NA,"",NA,NA,NA,NA,NA,NA,NA,"",NA,"",NA,NA,NA,NA,NA,NA,NA,"","","",NA,"",NA,NA,NA,NA,NA,NA,NA,"",NA,"9"
"",NA,"",NA,"",NA,NA,NA,NA,NA,NA,NA,"","",1,1,"2024-08-23_15h31.13.642","IAT(Formal)","2021.2.3","Win32",60.60606061,"",NA,"",NA,NA,NA,NA,NA,NA,NA,"","","",NA,"e",0,0.4507,NA,NA,NA,NA,NA,"他","i","",NA,0,77,77,5,1,"",NA,"",NA,NA,NA,NA,NA,NA,NA,"",NA,"",NA,NA,NA,NA,NA,NA,NA,"","","",NA,"",NA,NA,NA,NA,NA,NA,NA,"",NA,"9"
"",NA,"",NA,"",NA,NA,NA,NA,NA,NA,NA,"","",1,1,"2024-08-23_15h31.13.642","IAT(Formal)","2021.2.3","Win32",60.60606061,"",NA,"",NA,NA,NA,NA,NA,NA,NA,"","","",NA,"i",1,0.5523,NA,NA,NA,NA,NA,"野蛮","i","",NA,0,78,78,46,1,"",NA,"",NA,NA,NA,NA,NA,NA,NA,"",NA,"",NA,NA,NA,NA,NA,NA,NA,"","","",NA,"",NA,NA,NA,NA,NA,NA,NA,"",NA,"9"
"",NA,"",NA,"",NA,NA,NA,NA,NA,NA,NA,"","",1,1,"2024-08-23_15h31.13.642","IAT(Formal)","2021.2.3","Win32",60.60606061,"",NA,"",NA,NA,NA,NA,NA,NA,NA,"","","",NA,"i",1,0.4535,NA,NA,NA,NA,NA,"自私","i","",NA,0,79,79,43,1,"",NA,"",NA,NA,NA,NA,NA,NA,NA,"",NA,"",NA,NA,NA,NA,NA,NA,NA,"","","",NA,"",NA,NA,NA,NA,NA,NA,NA,"",NA,"9"
"",NA,"",NA,"",NA,NA,NA,NA,NA,NA,NA,"","",1,1,"2024-08-23_15h31.13.642","IAT(Formal)","2021.2.3","Win32",60.60606061,"",NA,"",NA,NA,NA,NA,NA,NA,NA,"","","",NA,"i",1,0.7703,NA,NA,NA,NA,NA,"他","i","",NA,1,0,80,75,1,"",NA,"",NA,NA,NA,NA,NA,NA,NA,"",NA,"",NA,NA,NA,NA,NA,NA,NA,"","","",NA,"",NA,NA,NA,NA,NA,NA,NA,"",NA,"9"
"",NA,"",NA,"",NA,NA,NA,NA,NA,NA,NA,"","",1,1,"2024-08-23_15h31.13.642","IAT(Formal)","2021.2.3","Win32",60.60606061,"",NA,"",NA,NA,NA,NA,NA,NA,NA,"","","",NA,"e",1,0.5715,NA,NA,NA,NA,NA,"俺","e","",NA,1,1,81,4,1,"",NA,"",NA,NA,NA,NA,NA,NA,NA,"",NA,"",NA,NA,NA,NA,NA,NA,NA,"","","",NA,"",NA,NA,NA,NA,NA,NA,NA,"",NA,"9"
"",NA,"",NA,"",NA,NA,NA,NA,NA,NA,NA,"","",1,1,"2024-08-23_15h31.13.642","IAT(Formal)","2021.2.3","Win32",60.60606061,"",NA,"",NA,NA,NA,NA,NA,NA,NA,"","","",NA,"e",1,0.4179,NA,NA,NA,NA,NA,"自己","e","",NA,1,2,82,3,1,"",NA,"",NA,NA,NA,NA,NA,NA,NA,"",NA,"",NA,NA,NA,NA,NA,NA,NA,"","","",NA,"",NA,NA,NA,NA,NA,NA,NA,"",NA,"9"
"",NA,"",NA,"",NA,NA,NA,NA,NA,NA,NA,"","",1,1,"2024-08-23_15h31.13.642","IAT(Formal)","2021.2.3","Win32",60.60606061,"",NA,"",NA,NA,NA,NA,NA,NA,NA,"","","",NA,"e",0,0.4174,NA,NA,NA,NA,NA,"自私","i","",NA,1,3,83,43,1,"",NA,"",NA,NA,NA,NA,NA,NA,NA,"",NA,"",NA,NA,NA,NA,NA,NA,NA,"","","",NA,"",NA,NA,NA,NA,NA,NA,NA,"",NA,"9"
"",NA,"",NA,"",NA,NA,NA,NA,NA,NA,NA,"","",1,1,"2024-08-23_15h31.13.642","IAT(Formal)","2021.2.3","Win32",60.60606061,"",NA,"",NA,NA,NA,NA,NA,NA,NA,"","","",NA,"i",1,0.6639,NA,NA,NA,NA,NA,"其他","i","",NA,1,4,84,79,1,"",NA,"",NA,NA,NA,NA,NA,NA,NA,"",NA,"",NA,NA,NA,NA,NA,NA,NA,"","","",NA,"",NA,NA,NA,NA,NA,NA,NA,"",NA,"9"
"",NA,"",NA,"",NA,NA,NA,NA,NA,NA,NA,"","",1,1,"2024-08-23_15h31.13.642","IAT(Formal)","2021.2.3","Win32",60.60606061,"",NA,"",NA,NA,NA,NA,NA,NA,NA,"","","",NA,"e",1,0.6914,NA,NA,NA,NA,NA,"优秀","e","",NA,1,5,85,10,1,"",NA,"",NA,NA,NA,NA,NA,NA,NA,"",NA,"",NA,NA,NA,NA,NA,NA,NA,"","","",NA,"",NA,NA,NA,NA,NA,NA,NA,"",NA,"9"
"",NA,"",NA,"",NA,NA,NA,NA,NA,NA,NA,"","",1,1,"2024-08-23_15h31.13.642","IAT(Formal)","2021.2.3","Win32",60.60606061,"",NA,"",NA,NA,NA,NA,NA,NA,NA,"","","",NA,"i",1,0.6068,NA,NA,NA,NA,NA,"悲观","i","",NA,1,6,86,34,1,"",NA,"",NA,NA,NA,NA,NA,NA,NA,"",NA,"",NA,NA,NA,NA,NA,NA,NA,"","","",NA,"",NA,NA,NA,NA,NA,NA,NA,"",NA,"9"
"",NA,"",NA,"",NA,NA,NA,NA,NA,NA,NA,"","",1,1,"2024-08-23_15h31.13.642","IAT(Formal)","2021.2.3","Win32",60.60606061,"",NA,"",NA,NA,NA,NA,NA,NA,NA,"","","",NA,"e",1,1.0906,NA,NA,NA,NA,NA,"诚实","e","",NA,1,7,87,15,1,"",NA,"",NA,NA,NA,NA,NA,NA,NA,"",NA,"",NA,NA,NA,NA,NA,NA,NA,"","","",NA,"",NA,NA,NA,NA,NA,NA,NA,"",NA,"9"
"",NA,"",NA,"",NA,NA,NA,NA,NA,NA,NA,"","",1,1,"2024-08-23_15h31.13.642","IAT(Formal)","2021.2.3","Win32",60.60606061,"",NA,"",NA,NA,NA,NA,NA,NA,NA,"","","",NA,"i",1,0.9262,NA,NA,NA,NA,NA,"他们","i","",NA,1,8,88,66,1,"",NA,"",NA,NA,NA,NA,NA,NA,NA,"",NA,"",NA,NA,NA,NA,NA,NA,NA,"","","",NA,"",NA,NA,NA,NA,NA,NA,NA,"",NA,"9"
"",NA,"",NA,"",NA,NA,NA,NA,NA,NA,NA,"","",1,1,"2024-08-23_15h31.13.642","IAT(Formal)","2021.2.3","Win32",60.60606061,"",NA,"",NA,NA,NA,NA,NA,NA,NA,"","","",NA,"",0,NA,NA,NA,NA,NA,NA,"稳重","e","",NA,1,9,89,21,1,"",NA,"",NA,NA,NA,NA,NA,NA,NA,"",NA,"",NA,NA,NA,NA,NA,NA,NA,"","","",NA,"",NA,NA,NA,NA,NA,NA,NA,"",NA,"9"
"",NA,"",NA,"",NA,NA,NA,NA,NA,NA,NA,"","",1,1,"2024-08-23_15h31.13.642","IAT(Formal)","2021.2.3","Win32",60.60606061,"",NA,"",NA,NA,NA,NA,NA,NA,NA,"","","",NA,"i",1,1.2833,NA,NA,NA,NA,NA,"鲁莽","i","",NA,1,10,90,38,1,"",NA,"",NA,NA,NA,NA,NA,NA,NA,"",NA,"",NA,NA,NA,NA,NA,NA,NA,"","","",NA,"",NA,NA,NA,NA,NA,NA,NA,"",NA,"9"
"",NA,"",NA,"",NA,NA,NA,NA,NA,NA,NA,"","",1,1,"2024-08-23_15h31.13.642","IAT(Formal)","2021.2.3","Win32",60.60606061,"",NA,"",NA,NA,NA,NA,NA,NA,NA,"","","",NA,"i",1,0.5341,NA,NA,NA,NA,NA,"他的","i","",NA,1,11,91,77,1,"",NA,"",NA,NA,NA,NA,NA,NA,NA,"",NA,"",NA,NA,NA,NA,NA,NA,NA,"","","",NA,"",NA,NA,NA,NA,NA,NA,NA,"",NA,"9"
"",NA,"",NA,"",NA,NA,NA,NA,NA,NA,NA,"","",1,1,"2024-08-23_15h31.13.642","IAT(Formal)","2021.2.3","Win32",60.60606061,"",NA,"",NA,NA,NA,NA,NA,NA,NA,"","","",NA,"i",0,0.4689,NA,NA,NA,NA,NA,"正直","e","",NA,1,12,92,16,1,"",NA,"",NA,NA,NA,NA,NA,NA,NA,"",NA,"",NA,NA,NA,NA,NA,NA,NA,"","","",NA,"",NA,NA,NA,NA,NA,NA,NA,"",NA,"9"
"",NA,"",NA,"",NA,NA,NA,NA,NA,NA,NA,"","",1,1,"2024-08-23_15h31.13.642","IAT(Formal)","2021.2.3","Win32",60.60606061,"",NA,"",NA,NA,NA,NA,NA,NA,NA,"","","",NA,"e",1,0.4351,NA,NA,NA,NA,NA,"自己","e","",NA,1,13,93,73,1,"",NA,"",NA,NA,NA,NA,NA,NA,NA,"",NA,"",NA,NA,NA,NA,NA,NA,NA,"","","",NA,"",NA,NA,NA,NA,NA,NA,NA,"",NA,"9"
"",NA,"",NA,"",NA,NA,NA,NA,NA,NA,NA,"","",1,1,"2024-08-23_15h31.13.642","IAT(Formal)","2021.2.3","Win32",60.60606061,"",NA,"",NA,NA,NA,NA,NA,NA,NA,"","","",NA,"e",0,0.5888,NA,NA,NA,NA,NA,"轻率","i","",NA,1,14,94,48,1,"",NA,"",NA,NA,NA,NA,NA,NA,NA,"",NA,"",NA,NA,NA,NA,NA,NA,NA,"","","",NA,"",NA,NA,NA,NA,NA,NA,NA,"",NA,"9"
"",NA,"",NA,"",NA,NA,NA,NA,NA,NA,NA,"","",1,1,"2024-08-23_15h31.13.642","IAT(Formal)","2021.2.3","Win32",60.60606061,"",NA,"",NA,NA,NA,NA,NA,NA,NA,"","","",NA,"i",1,0.5775,NA,NA,NA,NA,NA,"他的","i","",NA,1,15,95,67,1,"",NA,"",NA,NA,NA,NA,NA,NA,NA,"",NA,"",NA,NA,NA,NA,NA,NA,NA,"","","",NA,"",NA,NA,NA,NA,NA,NA,NA,"",NA,"9"
"",NA,"",NA,"",NA,NA,NA,NA,NA,NA,NA,"","",1,1,"2024-08-23_15h31.13.642","IAT(Formal)","2021.2.3","Win32",60.60606061,"",NA,"",NA,NA,NA,NA,NA,NA,NA,"","","",NA,"i",1,0.5229,NA,NA,NA,NA,NA,"他人","i","",NA,1,16,96,78,1,"",NA,"",NA,NA,NA,NA,NA,NA,NA,"",NA,"",NA,NA,NA,NA,NA,NA,NA,"","","",NA,"",NA,NA,NA,NA,NA,NA,NA,"",NA,"9"
"",NA,"",NA,"",NA,NA,NA,NA,NA,NA,NA,"","",1,1,"2024-08-23_15h31.13.642","IAT(Formal)","2021.2.3","Win32",60.60606061,"",NA,"",NA,NA,NA,NA,NA,NA,NA,"","","",NA,"i",1,0.4675,NA,NA,NA,NA,NA,"其他","i","",NA,1,17,97,59,1,"",NA,"",NA,NA,NA,NA,NA,NA,NA,"",NA,"",NA,NA,NA,NA,NA,NA,NA,"","","",NA,"",NA,NA,NA,NA,NA,NA,NA,"",NA,"9"
"",NA,"",NA,"",NA,NA,NA,NA,NA,NA,NA,"","",1,1,"2024-08-23_15h31.13.642","IAT(Formal)","2021.2.3","Win32",60.60606061,"",NA,"",NA,NA,NA,NA,NA,NA,NA,"","","",NA,"e",1,0.6723,NA,NA,NA,NA,NA,"机智","e","",NA,1,18,98,19,1,"",NA,"",NA,NA,NA,NA,NA,NA,NA,"",NA,"",NA,NA,NA,NA,NA,NA,NA,"","","",NA,"",NA,NA,NA,NA,NA,NA,NA,"",NA,"9"
"",NA,"",NA,"",NA,NA,NA,NA,NA,NA,NA,"","",1,1,"2024-08-23_15h31.13.642","IAT(Formal)","2021.2.3","Win32",60.60606061,"",NA,"",NA,NA,NA,NA,NA,NA,NA,"","","",NA,"i",1,0.6503,NA,NA,NA,NA,NA,"刻薄","i","",NA,1,19,99,33,1,"",NA,"",NA,NA,NA,NA,NA,NA,NA,"",NA,"",NA,NA,NA,NA,NA,NA,NA,"","","",NA,"",NA,NA,NA,NA,NA,NA,NA,"",NA,"9"
"",NA,"",NA,"",NA,NA,NA,NA,NA,NA,NA,"","",1,1,"2024-08-23_15h31.13.642","IAT(Formal)","2021.2.3","Win32",60.60606061,"",NA,"",NA,NA,NA,NA,NA,NA,NA,"","","",NA,"e",0,0.8239,NA,NA,NA,NA,NA,"他们","i","",NA,1,20,100,56,1,"",NA,"",NA,NA,NA,NA,NA,NA,NA,"",NA,"",NA,NA,NA,NA,NA,NA,NA,"","","",NA,"",NA,NA,NA,NA,NA,NA,NA,"",NA,"9"
"",NA,"",NA,"",NA,NA,NA,NA,NA,NA,NA,"","",1,1,"2024-08-23_15h31.13.642","IAT(Formal)","2021.2.3","Win32",60.60606061,"",NA,"",NA,NA,NA,NA,NA,NA,NA,"","","",NA,"i",0,1.1859,NA,NA,NA,NA,NA,"冷静","e","",NA,1,21,101,26,1,"",NA,"",NA,NA,NA,NA,NA,NA,NA,"",NA,"",NA,NA,NA,NA,NA,NA,NA,"","","",NA,"",NA,NA,NA,NA,NA,NA,NA,"",NA,"9"
"",NA,"",NA,"",NA,NA,NA,NA,NA,NA,NA,"","",1,1,"2024-08-23_15h31.13.642","IAT(Formal)","2021.2.3","Win32",60.60606061,"",NA,"",NA,NA,NA,NA,NA,NA,NA,"","","",NA,"e",1,0.4218,NA,NA,NA,NA,NA,"聪明","e","",NA,1,22,102,12,1,"",NA,"",NA,NA,NA,NA,NA,NA,NA,"",NA,"",NA,NA,NA,NA,NA,NA,NA,"","","",NA,"",NA,NA,NA,NA,NA,NA,NA,"",NA,"9"
"",NA,"",NA,"",NA,NA,NA,NA,NA,NA,NA,"","",1,1,"2024-08-23_15h31.13.642","IAT(Formal)","2021.2.3","Win32",60.60606061,"",NA,"",NA,NA,NA,NA,NA,NA,NA,"","","",NA,"e",1,0.5674,NA,NA,NA,NA,NA,"我们","e","",NA,1,23,103,2,1,"",NA,"",NA,NA,NA,NA,NA,NA,NA,"",NA,"",NA,NA,NA,NA,NA,NA,NA,"","","",NA,"",NA,NA,NA,NA,NA,NA,NA,"",NA,"9"
"",NA,"",NA,"",NA,NA,NA,NA,NA,NA,NA,"","",1,1,"2024-08-23_15h31.13.642","IAT(Formal)","2021.2.3","Win32",60.60606061,"",NA,"",NA,NA,NA,NA,NA,NA,NA,"","","",NA,"i",1,0.5934,NA,NA,NA,NA,NA,"他","i","",NA,1,24,104,55,1,"",NA,"",NA,NA,NA,NA,NA,NA,NA,"",NA,"",NA,NA,NA,NA,NA,NA,NA,"","","",NA,"",NA,NA,NA,NA,NA,NA,NA,"",NA,"9"
"",NA,"",NA,"",NA,NA,NA,NA,NA,NA,NA,"","",1,1,"2024-08-23_15h31.13.642","IAT(Formal)","2021.2.3","Win32",60.60606061,"",NA,"",NA,NA,NA,NA,NA,NA,NA,"","","",NA,"e",1,0.5172,NA,NA,NA,NA,NA,"自己","e","",NA,1,25,105,53,1,"",NA,"",NA,NA,NA,NA,NA,NA,NA,"",NA,"",NA,NA,NA,NA,NA,NA,NA,"","","",NA,"",NA,NA,NA,NA,NA,NA,NA,"",NA,"9"
"",NA,"",NA,"",NA,NA,NA,NA,NA,NA,NA,"","",1,1,"2024-08-23_15h31.13.642","IAT(Formal)","2021.2.3","Win32",60.60606061,"",NA,"",NA,NA,NA,NA,NA,NA,NA,"","","",NA,"e",0,0.3975,NA,NA,NA,NA,NA,"他","i","",NA,1,26,106,65,1,"",NA,"",NA,NA,NA,NA,NA,NA,NA,"",NA,"",NA,NA,NA,NA,NA,NA,NA,"","","",NA,"",NA,NA,NA,NA,NA,NA,NA,"",NA,"9"
"",NA,"",NA,"",NA,NA,NA,NA,NA,NA,NA,"","",1,1,"2024-08-23_15h31.13.642","IAT(Formal)","2021.2.3","Win32",60.60606061,"",NA,"",NA,NA,NA,NA,NA,NA,NA,"","","",NA,"i",0,0.5095,NA,NA,NA,NA,NA,"热情","e","",NA,1,27,107,27,1,"",NA,"",NA,NA,NA,NA,NA,NA,NA,"",NA,"",NA,NA,NA,NA,NA,NA,NA,"","","",NA,"",NA,NA,NA,NA,NA,NA,NA,"",NA,"9"
"",NA,"",NA,"",NA,NA,NA,NA,NA,NA,NA,"","",1,1,"2024-08-23_15h31.13.642","IAT(Formal)","2021.2.3","Win32",60.60606061,"",NA,"",NA,NA,NA,NA,NA,NA,NA,"","","",NA,"e",1,0.6251,NA,NA,NA,NA,NA,"崇高","e","",NA,1,28,108,11,1,"",NA,"",NA,NA,NA,NA,NA,NA,NA,"",NA,"",NA,NA,NA,NA,NA,NA,NA,"","","",NA,"",NA,NA,NA,NA,NA,NA,NA,"",NA,"9"
"",NA,"",NA,"",NA,NA,NA,NA,NA,NA,NA,"","",1,1,"2024-08-23_15h31.13.642","IAT(Formal)","2021.2.3","Win32",60.60606061,"",NA,"",NA,NA,NA,NA,NA,NA,NA,"","","",NA,"i",1,0.8518,NA,NA,NA,NA,NA,"固执","i","",NA,1,29,109,47,1,"",NA,"",NA,NA,NA,NA,NA,NA,NA,"",NA,"",NA,NA,NA,NA,NA,NA,NA,"","","",NA,"",NA,NA,NA,NA,NA,NA,NA,"",NA,"9"
"",NA,"",NA,"",NA,NA,NA,NA,NA,NA,NA,"","",1,1,"2024-08-23_15h31.13.642","IAT(Formal)","2021.2.3","Win32",60.60606061,"",NA,"",NA,NA,NA,NA,NA,NA,NA,"","","",NA,"e",1,0.7617,NA,NA,NA,NA,NA,"细腻","e","",NA,1,30,110,25,1,"",NA,"",NA,NA,NA,NA,NA,NA,NA,"",NA,"",NA,NA,NA,NA,NA,NA,NA,"","","",NA,"",NA,NA,NA,NA,NA,NA,NA,"",NA,"9"
"",NA,"",NA,"",NA,NA,NA,NA,NA,NA,NA,"","",1,1,"2024-08-23_15h31.13.642","IAT(Formal)","2021.2.3","Win32",60.60606061,"",NA,"",NA,NA,NA,NA,NA,NA,NA,"","","",NA,"e",1,0.4527,NA,NA,NA,NA,NA,"我的","e","",NA,1,31,111,1,1,"",NA,"",NA,NA,NA,NA,NA,NA,NA,"",NA,"",NA,NA,NA,NA,NA,NA,NA,"","","",NA,"",NA,NA,NA,NA,NA,NA,NA,"",NA,"9"
"",NA,"",NA,"",NA,NA,NA,NA,NA,NA,NA,"","",1,1,"2024-08-23_15h31.13.642","IAT(Formal)","2021.2.3","Win32",60.60606061,"",NA,"",NA,NA,NA,NA,NA,NA,NA,"","","",NA,"e",1,0.6609,NA,NA,NA,NA,NA,"诚恳","e","",NA,1,32,112,29,1,"",NA,"",NA,NA,NA,NA,NA,NA,NA,"",NA,"",NA,NA,NA,NA,NA,NA,NA,"","","",NA,"",NA,NA,NA,NA,NA,NA,NA,"",NA,"9"
"",NA,"",NA,"",NA,NA,NA,NA,NA,NA,NA,"","",1,1,"2024-08-23_15h31.13.642","IAT(Formal)","2021.2.3","Win32",60.60606061,"",NA,"",NA,NA,NA,NA,NA,NA,NA,"","","",NA,"i",1,0.5681,NA,NA,NA,NA,NA,"自卑","i","",NA,1,33,113,36,1,"",NA,"",NA,NA,NA,NA,NA,NA,NA,"",NA,"",NA,NA,NA,NA,NA,NA,NA,"","","",NA,"",NA,NA,NA,NA,NA,NA,NA,"",NA,"9"
"",NA,"",NA,"",NA,NA,NA,NA,NA,NA,NA,"","",1,1,"2024-08-23_15h31.13.642","IAT(Formal)","2021.2.3","Win32",60.60606061,"",NA,"",NA,NA,NA,NA,NA,NA,NA,"","","",NA,"i",1,0.4532,NA,NA,NA,NA,NA,"他的","i","",NA,1,34,114,7,1,"",NA,"",NA,NA,NA,NA,NA,NA,NA,"",NA,"",NA,NA,NA,NA,NA,NA,NA,"","","",NA,"",NA,NA,NA,NA,NA,NA,NA,"",NA,"9"
"",NA,"",NA,"",NA,NA,NA,NA,NA,NA,NA,"","",1,1,"2024-08-23_15h31.13.642","IAT(Formal)","2021.2.3","Win32",60.60606061,"",NA,"",NA,NA,NA,NA,NA,NA,NA,"","","",NA,"i",1,0.7207,NA,NA,NA,NA,NA,"猖狂","i","",NA,1,35,115,45,1,"",NA,"",NA,NA,NA,NA,NA,NA,NA,"",NA,"",NA,NA,NA,NA,NA,NA,NA,"","","",NA,"",NA,NA,NA,NA,NA,NA,NA,"",NA,"9"
"",NA,"",NA,"",NA,NA,NA,NA,NA,NA,NA,"","",1,1,"2024-08-23_15h31.13.642","IAT(Formal)","2021.2.3","Win32",60.60606061,"",NA,"",NA,NA,NA,NA,NA,NA,NA,"","","",NA,"e",1,0.5959,NA,NA,NA,NA,NA,"我们","e","",NA,1,36,116,52,1,"",NA,"",NA,NA,NA,NA,NA,NA,NA,"",NA,"",NA,NA,NA,NA,NA,NA,NA,"","","",NA,"",NA,NA,NA,NA,NA,NA,NA,"",NA,"9"
"",NA,"",NA,"",NA,NA,NA,NA,NA,NA,NA,"","",1,1,"2024-08-23_15h31.13.642","IAT(Formal)","2021.2.3","Win32",60.60606061,"",NA,"",NA,NA,NA,NA,NA,NA,NA,"","","",NA,"i",1,0.5194,NA,NA,NA,NA,NA,"野蛮","i","",NA,1,37,117,46,1,"",NA,"",NA,NA,NA,NA,NA,NA,NA,"",NA,"",NA,NA,NA,NA,NA,NA,NA,"","","",NA,"",NA,NA,NA,NA,NA,NA,NA,"",NA,"9"
"",NA,"",NA,"",NA,NA,NA,NA,NA,NA,NA,"","",1,1,"2024-08-23_15h31.13.642","IAT(Formal)","2021.2.3","Win32",60.60606061,"",NA,"",NA,NA,NA,NA,NA,NA,NA,"","","",NA,"e",1,0.5609,NA,NA,NA,NA,NA,"我","e","",NA,1,38,118,50,1,"",NA,"",NA,NA,NA,NA,NA,NA,NA,"",NA,"",NA,NA,NA,NA,NA,NA,NA,"","","",NA,"",NA,NA,NA,NA,NA,NA,NA,"",NA,"9"
"",NA,"",NA,"",NA,NA,NA,NA,NA,NA,NA,"","",1,1,"2024-08-23_15h31.13.642","IAT(Formal)","2021.2.3","Win32",60.60606061,"",NA,"",NA,NA,NA,NA,NA,NA,NA,"","","",NA,"i",1,0.5334,NA,NA,NA,NA,NA,"他们","i","",NA,1,39,119,6,1,"",NA,"",NA,NA,NA,NA,NA,NA,NA,"",NA,"",NA,NA,NA,NA,NA,NA,NA,"","","",NA,"",NA,NA,NA,NA,NA,NA,NA,"",NA,"9"
"",NA,"",NA,"",NA,NA,NA,NA,NA,NA,NA,"","",1,1,"2024-08-23_15h31.13.642","IAT(Formal)","2021.2.3","Win32",60.60606061,"",NA,"",NA,NA,NA,NA,NA,NA,NA,"","","",NA,"i",1,0.7859,NA,NA,NA,NA,NA,"冒失","i","",NA,1,40,120,39,1,"",NA,"",NA,NA,NA,NA,NA,NA,NA,"",NA,"",NA,NA,NA,NA,NA,NA,NA,"","","",NA,"",NA,NA,NA,NA,NA,NA,NA,"",NA,"9"
"",NA,"",NA,"",NA,NA,NA,NA,NA,NA,NA,"","",1,1,"2024-08-23_15h31.13.642","IAT(Formal)","2021.2.3","Win32",60.60606061,"",NA,"",NA,NA,NA,NA,NA,NA,NA,"","","",NA,"e",1,0.5689,NA,NA,NA,NA,NA,"俺","e","",NA,1,41,121,64,1,"",NA,"",NA,NA,NA,NA,NA,NA,NA,"",NA,"",NA,NA,NA,NA,NA,NA,NA,"","","",NA,"",NA,NA,NA,NA,NA,NA,NA,"",NA,"9"
"",NA,"",NA,"",NA,NA,NA,NA,NA,NA,NA,"","",1,1,"2024-08-23_15h31.13.642","IAT(Formal)","2021.2.3","Win32",60.60606061,"",NA,"",NA,NA,NA,NA,NA,NA,NA,"","","",NA,"i",1,0.4998,NA,NA,NA,NA,NA,"虚伪","i","",NA,1,42,122,31,1,"",NA,"",NA,NA,NA,NA,NA,NA,NA,"",NA,"",NA,NA,NA,NA,NA,NA,NA,"","","",NA,"",NA,NA,NA,NA,NA,NA,NA,"",NA,"9"
"",NA,"",NA,"",NA,NA,NA,NA,NA,NA,NA,"","",1,1,"2024-08-23_15h31.13.642","IAT(Formal)","2021.2.3","Win32",60.60606061,"",NA,"",NA,NA,NA,NA,NA,NA,NA,"","","",NA,"i",1,0.5994,NA,NA,NA,NA,NA,"他的","i","",NA,1,43,123,57,1,"",NA,"",NA,NA,NA,NA,NA,NA,NA,"",NA,"",NA,NA,NA,NA,NA,NA,NA,"","","",NA,"",NA,NA,NA,NA,NA,NA,NA,"",NA,"9"
"",NA,"",NA,"",NA,NA,NA,NA,NA,NA,NA,"","",1,1,"2024-08-23_15h31.13.642","IAT(Formal)","2021.2.3","Win32",60.60606061,"",NA,"",NA,NA,NA,NA,NA,NA,NA,"","","",NA,"i",1,0.6064,NA,NA,NA,NA,NA,"愚蠢","i","",NA,1,44,124,32,1,"",NA,"",NA,NA,NA,NA,NA,NA,NA,"",NA,"",NA,NA,NA,NA,NA,NA,NA,"","","",NA,"",NA,NA,NA,NA,NA,NA,NA,"",NA,"9"
"",NA,"",NA,"",NA,NA,NA,NA,NA,NA,NA,"","",1,1,"2024-08-23_15h31.13.642","IAT(Formal)","2021.2.3","Win32",60.60606061,"",NA,"",NA,NA,NA,NA,NA,NA,NA,"","","",NA,"i",1,0.4162,NA,NA,NA,NA,NA,"下贱","i","",NA,1,45,125,49,1,"",NA,"",NA,NA,NA,NA,NA,NA,NA,"",NA,"",NA,NA,NA,NA,NA,NA,NA,"","","",NA,"",NA,NA,NA,NA,NA,NA,NA,"",NA,"9"
"",NA,"",NA,"",NA,NA,NA,NA,NA,NA,NA,"","",1,1,"2024-08-23_15h31.13.642","IAT(Formal)","2021.2.3","Win32",60.60606061,"",NA,"",NA,NA,NA,NA,NA,NA,NA,"","","",NA,"i",0,0.426,NA,NA,NA,NA,NA,"我的","e","",NA,1,46,126,61,1,"",NA,"",NA,NA,NA,NA,NA,NA,NA,"",NA,"",NA,NA,NA,NA,NA,NA,NA,"","","",NA,"",NA,NA,NA,NA,NA,NA,NA,"",NA,"9"
"",NA,"",NA,"",NA,NA,NA,NA,NA,NA,NA,"","",1,1,"2024-08-23_15h31.13.642","IAT(Formal)","2021.2.3","Win32",60.60606061,"",NA,"",NA,NA,NA,NA,NA,NA,NA,"","","",NA,"i",0,0.4951,NA,NA,NA,NA,NA,"朴实","e","",NA,1,47,127,24,1,"",NA,"",NA,NA,NA,NA,NA,NA,NA,"",NA,"",NA,NA,NA,NA,NA,NA,NA,"","","",NA,"",NA,NA,NA,NA,NA,NA,NA,"",NA,"9"
"",NA,"",NA,"",NA,NA,NA,NA,NA,NA,NA,"","",1,1,"2024-08-23_15h31.13.642","IAT(Formal)","2021.2.3","Win32",60.60606061,"",NA,"",NA,NA,NA,NA,NA,NA,NA,"","","",NA,"i",1,0.6042,NA,NA,NA,NA,NA,"他们","i","",NA,1,48,128,76,1,"",NA,"",NA,NA,NA,NA,NA,NA,NA,"",NA,"",NA,NA,NA,NA,NA,NA,NA,"","","",NA,"",NA,NA,NA,NA,NA,NA,NA,"",NA,"9"
"",NA,"",NA,"",NA,NA,NA,NA,NA,NA,NA,"","",1,1,"2024-08-23_15h31.13.642","IAT(Formal)","2021.2.3","Win32",60.60606061,"",NA,"",NA,NA,NA,NA,NA,NA,NA,"","","",NA,"i",1,0.5683,NA,NA,NA,NA,NA,"执拗","i","",NA,1,49,129,40,1,"",NA,"",NA,NA,NA,NA,NA,NA,NA,"",NA,"",NA,NA,NA,NA,NA,NA,NA,"","","",NA,"",NA,NA,NA,NA,NA,NA,NA,"",NA,"9"
"",NA,"",NA,"",NA,NA,NA,NA,NA,NA,NA,"","",1,1,"2024-08-23_15h31.13.642","IAT(Formal)","2021.2.3","Win32",60.60606061,"",NA,"",NA,NA,NA,NA,NA,NA,NA,"","","",NA,"e",1,0.5543,NA,NA,NA,NA,NA,"我们","e","",NA,1,50,130,72,1,"",NA,"",NA,NA,NA,NA,NA,NA,NA,"",NA,"",NA,NA,NA,NA,NA,NA,NA,"","","",NA,"",NA,NA,NA,NA,NA,NA,NA,"",NA,"9"
"",NA,"",NA,"",NA,NA,NA,NA,NA,NA,NA,"","",1,1,"2024-08-23_15h31.13.642","IAT(Formal)","2021.2.3","Win32",60.60606061,"",NA,"",NA,NA,NA,NA,NA,NA,NA,"","","",NA,"i",1,0.5483,NA,NA,NA,NA,NA,"他人","i","",NA,1,51,131,68,1,"",NA,"",NA,NA,NA,NA,NA,NA,NA,"",NA,"",NA,NA,NA,NA,NA,NA,NA,"","","",NA,"",NA,NA,NA,NA,NA,NA,NA,"",NA,"9"
"",NA,"",NA,"",NA,NA,NA,NA,NA,NA,NA,"","",1,1,"2024-08-23_15h31.13.642","IAT(Formal)","2021.2.3","Win32",60.60606061,"",NA,"",NA,NA,NA,NA,NA,NA,NA,"","","",NA,"e",1,0.5854,NA,NA,NA,NA,NA,"勤奋","e","",NA,1,52,132,18,1,"",NA,"",NA,NA,NA,NA,NA,NA,NA,"",NA,"",NA,NA,NA,NA,NA,NA,NA,"","","",NA,"",NA,NA,NA,NA,NA,NA,NA,"",NA,"9"
"",NA,"",NA,"",NA,NA,NA,NA,NA,NA,NA,"","",1,1,"2024-08-23_15h31.13.642","IAT(Formal)","2021.2.3","Win32",60.60606061,"",NA,"",NA,NA,NA,NA,NA,NA,NA,"","","",NA,"e",1,0.6912,NA,NA,NA,NA,NA,"认真","e","",NA,1,53,133,20,1,"",NA,"",NA,NA,NA,NA,NA,NA,NA,"",NA,"",NA,NA,NA,NA,NA,NA,NA,"","","",NA,"",NA,NA,NA,NA,NA,NA,NA,"",NA,"9"
"",NA,"",NA,"",NA,NA,NA,NA,NA,NA,NA,"","",1,1,"2024-08-23_15h31.13.642","IAT(Formal)","2021.2.3","Win32",60.60606061,"",NA,"",NA,NA,NA,NA,NA,NA,NA,"","","",NA,"i",1,0.5736,NA,NA,NA,NA,NA,"其他","i","",NA,1,54,134,9,1,"",NA,"",NA,NA,NA,NA,NA,NA,NA,"",NA,"",NA,NA,NA,NA,NA,NA,NA,"","","",NA,"",NA,NA,NA,NA,NA,NA,NA,"",NA,"9"
"",NA,"",NA,"",NA,NA,NA,NA,NA,NA,NA,"","",1,1,"2024-08-23_15h31.13.642","IAT(Formal)","2021.2.3","Win32",60.60606061,"",NA,"",NA,NA,NA,NA,NA,NA,NA,"","","",NA,"e",1,0.6009,NA,NA,NA,NA,NA,"俺","e","",NA,1,55,135,54,1,"",NA,"",NA,NA,NA,NA,NA,NA,NA,"",NA,"",NA,NA,NA,NA,NA,NA,NA,"","","",NA,"",NA,NA,NA,NA,NA,NA,NA,"",NA,"9"
"",NA,"",NA,"",NA,NA,NA,NA,NA,NA,NA,"","",1,1,"2024-08-23_15h31.13.642","IAT(Formal)","2021.2.3","Win32",60.60606061,"",NA,"",NA,NA,NA,NA,NA,NA,NA,"","","",NA,"e",1,0.9214,NA,NA,NA,NA,NA,"我的","e","",NA,1,56,136,51,1,"",NA,"",NA,NA,NA,NA,NA,NA,NA,"",NA,"",NA,NA,NA,NA,NA,NA,NA,"","","",NA,"",NA,NA,NA,NA,NA,NA,NA,"",NA,"9"
"",NA,"",NA,"",NA,NA,NA,NA,NA,NA,NA,"","",1,1,"2024-08-23_15h31.13.642","IAT(Formal)","2021.2.3","Win32",60.60606061,"",NA,"",NA,NA,NA,NA,NA,NA,NA,"","","",NA,"e",1,0.4213,NA,NA,NA,NA,NA,"无私","e","",NA,1,57,137,22,1,"",NA,"",NA,NA,NA,NA,NA,NA,NA,"",NA,"",NA,NA,NA,NA,NA,NA,NA,"","","",NA,"",NA,NA,NA,NA,NA,NA,NA,"",NA,"9"
"",NA,"",NA,"",NA,NA,NA,NA,NA,NA,NA,"","",1,1,"2024-08-23_15h31.13.642","IAT(Formal)","2021.2.3","Win32",60.60606061,"",NA,"",NA,NA,NA,NA,NA,NA,NA,"","","",NA,"e",0,0.5683,NA,NA,NA,NA,NA,"散漫","i","",NA,1,58,138,41,1,"",NA,"",NA,NA,NA,NA,NA,NA,NA,"",NA,"",NA,NA,NA,NA,NA,NA,NA,"","","",NA,"",NA,NA,NA,NA,NA,NA,NA,"",NA,"9"
"",NA,"",NA,"",NA,NA,NA,NA,NA,NA,NA,"","",1,1,"2024-08-23_15h31.13.642","IAT(Formal)","2021.2.3","Win32",60.60606061,"",NA,"",NA,NA,NA,NA,NA,NA,NA,"","","",NA,"i",1,0.6589,NA,NA,NA,NA,NA,"傲慢","i","",NA,1,59,139,37,1,"",NA,"",NA,NA,NA,NA,NA,NA,NA,"",NA,"",NA,NA,NA,NA,NA,NA,NA,"","","",NA,"",NA,NA,NA,NA,NA,NA,NA,"",NA,"9"
"",NA,"",NA,"",NA,NA,NA,NA,NA,NA,NA,"","",1,1,"2024-08-23_15h31.13.642","IAT(Formal)","2021.2.3","Win32",60.60606061,"",NA,"",NA,NA,NA,NA,NA,NA,NA,"","","",NA,"e",1,0.6393,NA,NA,NA,NA,NA,"活泼","e","",NA,1,60,140,28,1,"",NA,"",NA,NA,NA,NA,NA,NA,NA,"",NA,"",NA,NA,NA,NA,NA,NA,NA,"","","",NA,"",NA,NA,NA,NA,NA,NA,NA,"",NA,"9"
"",NA,"",NA,"",NA,NA,NA,NA,NA,NA,NA,"","",1,1,"2024-08-23_15h31.13.642","IAT(Formal)","2021.2.3","Win32",60.60606061,"",NA,"",NA,NA,NA,NA,NA,NA,NA,"","","",NA,"e",1,0.6571,NA,NA,NA,NA,NA,"我","e","",NA,1,61,141,0,1,"",NA,"",NA,NA,NA,NA,NA,NA,NA,"",NA,"",NA,NA,NA,NA,NA,NA,NA,"","","",NA,"",NA,NA,NA,NA,NA,NA,NA,"",NA,"9"
"",NA,"",NA,"",NA,NA,NA,NA,NA,NA,NA,"","",1,1,"2024-08-23_15h31.13.642","IAT(Formal)","2021.2.3","Win32",60.60606061,"",NA,"",NA,NA,NA,NA,NA,NA,NA,"","","",NA,"e",1,0.8678,NA,NA,NA,NA,NA,"乐观","e","",NA,1,62,142,14,1,"",NA,"",NA,NA,NA,NA,NA,NA,NA,"",NA,"",NA,NA,NA,NA,NA,NA,NA,"","","",NA,"",NA,NA,NA,NA,NA,NA,NA,"",NA,"9"
"",NA,"",NA,"",NA,NA,NA,NA,NA,NA,NA,"","",1,1,"2024-08-23_15h31.13.642","IAT(Formal)","2021.2.3","Win32",60.60606061,"",NA,"",NA,NA,NA,NA,NA,NA,NA,"","","",NA,"i",1,0.6463,NA,NA,NA,NA,NA,"他","i","",NA,1,63,143,5,1,"",NA,"",NA,NA,NA,NA,NA,NA,NA,"",NA,"",NA,NA,NA,NA,NA,NA,NA,"","","",NA,"",NA,NA,NA,NA,NA,NA,NA,"",NA,"9"
"",NA,"",NA,"",NA,NA,NA,NA,NA,NA,NA,"","",1,1,"2024-08-23_15h31.13.642","IAT(Formal)","2021.2.3","Win32",60.60606061,"",NA,"",NA,NA,NA,NA,NA,NA,NA,"","","",NA,"e",1,0.7428,NA,NA,NA,NA,NA,"公正","e","",NA,1,64,144,23,1,"",NA,"",NA,NA,NA,NA,NA,NA,NA,"",NA,"",NA,NA,NA,NA,NA,NA,NA,"","","",NA,"",NA,NA,NA,NA,NA,NA,NA,"",NA,"9"
"",NA,"",NA,"",NA,NA,NA,NA,NA,NA,NA,"","",1,1,"2024-08-23_15h31.13.642","IAT(Formal)","2021.2.3","Win32",60.60606061,"",NA,"",NA,NA,NA,NA,NA,NA,NA,"","","",NA,"e",1,0.5285,NA,NA,NA,NA,NA,"我们","e","",NA,1,65,145,62,1,"",NA,"",NA,NA,NA,NA,NA,NA,NA,"",NA,"",NA,NA,NA,NA,NA,NA,NA,"","","",NA,"",NA,NA,NA,NA,NA,NA,NA,"",NA,"9"
"",NA,"",NA,"",NA,NA,NA,NA,NA,NA,NA,"","",1,1,"2024-08-23_15h31.13.642","IAT(Formal)","2021.2.3","Win32",60.60606061,"",NA,"",NA,NA,NA,NA,NA,NA,NA,"","","",NA,"i",1,0.4191,NA,NA,NA,NA,NA,"他人","i","",NA,1,66,146,8,1,"",NA,"",NA,NA,NA,NA,NA,NA,NA,"",NA,"",NA,NA,NA,NA,NA,NA,NA,"","","",NA,"",NA,NA,NA,NA,NA,NA,NA,"",NA,"9"
"",NA,"",NA,"",NA,NA,NA,NA,NA,NA,NA,"","",1,1,"2024-08-23_15h31.13.642","IAT(Formal)","2021.2.3","Win32",60.60606061,"",NA,"",NA,NA,NA,NA,NA,NA,NA,"","","",NA,"e",1,0.5688,NA,NA,NA,NA,NA,"俺","e","",NA,1,67,147,74,1,"",NA,"",NA,NA,NA,NA,NA,NA,NA,"",NA,"",NA,NA,NA,NA,NA,NA,NA,"","","",NA,"",NA,NA,NA,NA,NA,NA,NA,"",NA,"9"
"",NA,"",NA,"",NA,NA,NA,NA,NA,NA,NA,"","",1,1,"2024-08-23_15h31.13.642","IAT(Formal)","2021.2.3","Win32",60.60606061,"",NA,"",NA,NA,NA,NA,NA,NA,NA,"","","",NA,"e",1,0.4753,NA,NA,NA,NA,NA,"自己","e","",NA,1,68,148,63,1,"",NA,"",NA,NA,NA,NA,NA,NA,NA,"",NA,"",NA,NA,NA,NA,NA,NA,NA,"","","",NA,"",NA,NA,NA,NA,NA,NA,NA,"",NA,"9"
"",NA,"",NA,"",NA,NA,NA,NA,NA,NA,NA,"","",1,1,"2024-08-23_15h31.13.642","IAT(Formal)","2021.2.3","Win32",60.60606061,"",NA,"",NA,NA,NA,NA,NA,NA,NA,"","","",NA,"i",1,0.5674,NA,NA,NA,NA,NA,"卑鄙","i","",NA,1,69,149,30,1,"",NA,"",NA,NA,NA,NA,NA,NA,NA,"",NA,"",NA,NA,NA,NA,NA,NA,NA,"","","",NA,"",NA,NA,NA,NA,NA,NA,NA,"",NA,"9"
"",NA,"",NA,"",NA,NA,NA,NA,NA,NA,NA,"","",1,1,"2024-08-23_15h31.13.642","IAT(Formal)","2021.2.3","Win32",60.60606061,"",NA,"",NA,NA,NA,NA,NA,NA,NA,"","","",NA,"i",1,0.5292,NA,NA,NA,NA,NA,"消极","i","",NA,1,70,150,35,1,"",NA,"",NA,NA,NA,NA,NA,NA,NA,"",NA,"",NA,NA,NA,NA,NA,NA,NA,"","","",NA,"",NA,NA,NA,NA,NA,NA,NA,"",NA,"9"
"",NA,"",NA,"",NA,NA,NA,NA,NA,NA,NA,"","",1,1,"2024-08-23_15h31.13.642","IAT(Formal)","2021.2.3","Win32",60.60606061,"",NA,"",NA,NA,NA,NA,NA,NA,NA,"","","",NA,"i",1,0.4819,NA,NA,NA,NA,NA,"凶狠","i","",NA,1,71,151,42,1,"",NA,"",NA,NA,NA,NA,NA,NA,NA,"",NA,"",NA,NA,NA,NA,NA,NA,NA,"","","",NA,"",NA,NA,NA,NA,NA,NA,NA,"",NA,"9"
"",NA,"",NA,"",NA,NA,NA,NA,NA,NA,NA,"","",1,1,"2024-08-23_15h31.13.642","IAT(Formal)","2021.2.3","Win32",60.60606061,"",NA,"",NA,NA,NA,NA,NA,NA,NA,"","","",NA,"i",1,0.59,NA,NA,NA,NA,NA,"暴躁","i","",NA,1,72,152,44,1,"",NA,"",NA,NA,NA,NA,NA,NA,NA,"",NA,"",NA,NA,NA,NA,NA,NA,NA,"","","",NA,"",NA,NA,NA,NA,NA,NA,NA,"",NA,"9"
"",NA,"",NA,"",NA,NA,NA,NA,NA,NA,NA,"","",1,1,"2024-08-23_15h31.13.642","IAT(Formal)","2021.2.3","Win32",60.60606061,"",NA,"",NA,NA,NA,NA,NA,NA,NA,"","","",NA,"i",0,0.7567,NA,NA,NA,NA,NA,"我","e","",NA,1,73,153,70,1,"",NA,"",NA,NA,NA,NA,NA,NA,NA,"",NA,"",NA,NA,NA,NA,NA,NA,NA,"","","",NA,"",NA,NA,NA,NA,NA,NA,NA,"",NA,"9"
"",NA,"",NA,"",NA,NA,NA,NA,NA,NA,NA,"","",1,1,"2024-08-23_15h31.13.642","IAT(Formal)","2021.2.3","Win32",60.60606061,"",NA,"",NA,NA,NA,NA,NA,NA,NA,"","","",NA,"i",1,0.481,NA,NA,NA,NA,NA,"他人","i","",NA,1,74,154,58,1,"",NA,"",NA,NA,NA,NA,NA,NA,NA,"",NA,"",NA,NA,NA,NA,NA,NA,NA,"","","",NA,"",NA,NA,NA,NA,NA,NA,NA,"",NA,"9"
"",NA,"",NA,"",NA,NA,NA,NA,NA,NA,NA,"","",1,1,"2024-08-23_15h31.13.642","IAT(Formal)","2021.2.3","Win32",60.60606061,"",NA,"",NA,NA,NA,NA,NA,NA,NA,"","","",NA,"e",1,0.5324,NA,NA,NA,NA,NA,"我","e","",NA,1,75,155,60,1,"",NA,"",NA,NA,NA,NA,NA,NA,NA,"",NA,"",NA,NA,NA,NA,NA,NA,NA,"","","",NA,"",NA,NA,NA,NA,NA,NA,NA,"",NA,"9"
"",NA,"",NA,"",NA,NA,NA,NA,NA,NA,NA,"","",1,1,"2024-08-23_15h31.13.642","IAT(Formal)","2021.2.3","Win32",60.60606061,"",NA,"",NA,NA,NA,NA,NA,NA,NA,"","","",NA,"e",1,0.5247,NA,NA,NA,NA,NA,"我的","e","",NA,1,76,156,71,1,"",NA,"",NA,NA,NA,NA,NA,NA,NA,"",NA,"",NA,NA,NA,NA,NA,NA,NA,"","","",NA,"",NA,NA,NA,NA,NA,NA,NA,"",NA,"9"
"",NA,"",NA,"",NA,NA,NA,NA,NA,NA,NA,"","",1,1,"2024-08-23_15h31.13.642","IAT(Formal)","2021.2.3","Win32",60.60606061,"",NA,"",NA,NA,NA,NA,NA,NA,NA,"","","",NA,"i",1,0.6711,NA,NA,NA,NA,NA,"其他","i","",NA,1,77,157,69,1,"",NA,"",NA,NA,NA,NA,NA,NA,NA,"",NA,"",NA,NA,NA,NA,NA,NA,NA,"","","",NA,"",NA,NA,NA,NA,NA,NA,NA,"",NA,"9"
"",NA,"",NA,"",NA,NA,NA,NA,NA,NA,NA,"","",1,1,"2024-08-23_15h31.13.642","IAT(Formal)","2021.2.3","Win32",60.60606061,"",NA,"",NA,NA,NA,NA,NA,NA,NA,"","","",NA,"",0,NA,NA,NA,NA,NA,NA,"勇敢","e","",NA,1,78,158,17,1,"",NA,"",NA,NA,NA,NA,NA,NA,NA,"",NA,"",NA,NA,NA,NA,NA,NA,NA,"","","",NA,"",NA,NA,NA,NA,NA,NA,NA,"",NA,"9"
"",NA,"",NA,"",NA,NA,NA,NA,NA,NA,NA,"","",1,1,"2024-08-23_15h31.13.642","IAT(Formal)","2021.2.3","Win32",60.60606061,"",NA,"",NA,NA,NA,NA,NA,NA,NA,"","","",NA,"e",1,1.2819,NA,NA,NA,NA,NA,"杰出","e","",NA,1,79,159,13,1,"",NA,"",NA,NA,NA,NA,NA,NA,NA,"",NA,"",NA,NA,NA,NA,NA,NA,NA,"","","",NA,"",NA,NA,NA,NA,NA,NA,NA,"",NA,"9"
"",NA,"",NA,"",NA,NA,NA,NA,NA,NA,NA,"我","i",1,1,"2024-08-23_15h31.13.642","IAT(Formal)","2021.2.3","Win32",60.60606061,"",NA,"",NA,NA,NA,NA,NA,NA,NA,"","","",NA,"",NA,NA,NA,NA,NA,NA,NA,"","","",NA,NA,NA,NA,NA,NA,"space",26.6502,"i",1,0.8022,0,0,0,0,1,"",NA,"",NA,NA,NA,NA,NA,NA,NA,"","","",NA,"",NA,NA,NA,NA,NA,NA,NA,"",NA,"9"
"",NA,"",NA,"",NA,NA,NA,NA,NA,NA,NA,"他","e",1,1,"2024-08-23_15h31.13.642","IAT(Formal)","2021.2.3","Win32",60.60606061,"",NA,"",NA,NA,NA,NA,NA,NA,NA,"","","",NA,"",NA,NA,NA,NA,NA,NA,NA,"","","",NA,NA,NA,NA,NA,NA,"",NA,"e",1,0.5789,0,1,1,5,1,"",NA,"",NA,NA,NA,NA,NA,NA,NA,"","","",NA,"",NA,NA,NA,NA,NA,NA,NA,"",NA,"9"
"",NA,"",NA,"",NA,NA,NA,NA,NA,NA,NA,"俺","i",1,1,"2024-08-23_15h31.13.642","IAT(Formal)","2021.2.3","Win32",60.60606061,"",NA,"",NA,NA,NA,NA,NA,NA,NA,"","","",NA,"",NA,NA,NA,NA,NA,NA,NA,"","","",NA,NA,NA,NA,NA,NA,"",NA,"i",1,0.5002,0,2,2,4,1,"",NA,"",NA,NA,NA,NA,NA,NA,NA,"","","",NA,"",NA,NA,NA,NA,NA,NA,NA,"",NA,"9"
"",NA,"",NA,"",NA,NA,NA,NA,NA,NA,NA,"他们","e",1,1,"2024-08-23_15h31.13.642","IAT(Formal)","2021.2.3","Win32",60.60606061,"",NA,"",NA,NA,NA,NA,NA,NA,NA,"","","",NA,"",NA,NA,NA,NA,NA,NA,NA,"","","",NA,NA,NA,NA,NA,NA,"",NA,"e",1,0.7173,0,3,3,6,1,"",NA,"",NA,NA,NA,NA,NA,NA,NA,"","","",NA,"",NA,NA,NA,NA,NA,NA,NA,"",NA,"9"
"",NA,"",NA,"",NA,NA,NA,NA,NA,NA,NA,"他的","e",1,1,"2024-08-23_15h31.13.642","IAT(Formal)","2021.2.3","Win32",60.60606061,"",NA,"",NA,NA,NA,NA,NA,NA,NA,"","","",NA,"",NA,NA,NA,NA,NA,NA,NA,"","","",NA,NA,NA,NA,NA,NA,"",NA,"e",1,0.4505,0,4,4,7,1,"",NA,"",NA,NA,NA,NA,NA,NA,NA,"","","",NA,"",NA,NA,NA,NA,NA,NA,NA,"",NA,"9"
"",NA,"",NA,"",NA,NA,NA,NA,NA,NA,NA,"我的","i",1,1,"2024-08-23_15h31.13.642","IAT(Formal)","2021.2.3","Win32",60.60606061,"",NA,"",NA,NA,NA,NA,NA,NA,NA,"","","",NA,"",NA,NA,NA,NA,NA,NA,NA,"","","",NA,NA,NA,NA,NA,NA,"",NA,"i",1,0.5092,0,5,5,1,1,"",NA,"",NA,NA,NA,NA,NA,NA,NA,"","","",NA,"",NA,NA,NA,NA,NA,NA,NA,"",NA,"9"
"",NA,"",NA,"",NA,NA,NA,NA,NA,NA,NA,"他人","e",1,1,"2024-08-23_15h31.13.642","IAT(Formal)","2021.2.3","Win32",60.60606061,"",NA,"",NA,NA,NA,NA,NA,NA,NA,"","","",NA,"",NA,NA,NA,NA,NA,NA,NA,"","","",NA,NA,NA,NA,NA,NA,"",NA,"i",0,0.6176,0,6,6,8,1,"",NA,"",NA,NA,NA,NA,NA,NA,NA,"","","",NA,"",NA,NA,NA,NA,NA,NA,NA,"",NA,"9"
"",NA,"",NA,"",NA,NA,NA,NA,NA,NA,NA,"我们","i",1,1,"2024-08-23_15h31.13.642","IAT(Formal)","2021.2.3","Win32",60.60606061,"",NA,"",NA,NA,NA,NA,NA,NA,NA,"","","",NA,"",NA,NA,NA,NA,NA,NA,NA,"","","",NA,NA,NA,NA,NA,NA,"",NA,"i",1,0.8889,0,7,7,2,1,"",NA,"",NA,NA,NA,NA,NA,NA,NA,"","","",NA,"",NA,NA,NA,NA,NA,NA,NA,"",NA,"9"
"",NA,"",NA,"",NA,NA,NA,NA,NA,NA,NA,"自己","i",1,1,"2024-08-23_15h31.13.642","IAT(Formal)","2021.2.3","Win32",60.60606061,"",NA,"",NA,NA,NA,NA,NA,NA,NA,"","","",NA,"",NA,NA,NA,NA,NA,NA,NA,"","","",NA,NA,NA,NA,NA,NA,"",NA,"i",1,0.6791,0,8,8,3,1,"",NA,"",NA,NA,NA,NA,NA,NA,NA,"","","",NA,"",NA,NA,NA,NA,NA,NA,NA,"",NA,"9"
"",NA,"",NA,"",NA,NA,NA,NA,NA,NA,NA,"其他","e",1,1,"2024-08-23_15h31.13.642","IAT(Formal)","2021.2.3","Win32",60.60606061,"",NA,"",NA,NA,NA,NA,NA,NA,NA,"","","",NA,"",NA,NA,NA,NA,NA,NA,NA,"","","",NA,NA,NA,NA,NA,NA,"",NA,"e",1,0.577,0,9,9,9,1,"",NA,"",NA,NA,NA,NA,NA,NA,NA,"","","",NA,"",NA,NA,NA,NA,NA,NA,NA,"",NA,"9"
"",NA,"",NA,"",NA,NA,NA,NA,NA,NA,NA,"","",1,1,"2024-08-23_15h31.13.642","IAT(Formal)","2021.2.3","Win32",60.60606061,"",NA,"",NA,NA,NA,NA,NA,NA,NA,"","","",NA,"",NA,NA,NA,NA,NA,NA,NA,"","","",NA,NA,NA,NA,NA,NA,"",NA,"",NA,NA,NA,NA,NA,NA,NA,"space",9.0763,"e",0,1.0671,0,0,0,63,1,"自己","i","",NA,"",NA,NA,NA,NA,NA,NA,NA,"",NA,"9"
"",NA,"",NA,"",NA,NA,NA,NA,NA,NA,NA,"","",1,1,"2024-08-23_15h31.13.642","IAT(Formal)","2021.2.3","Win32",60.60606061,"",NA,"",NA,NA,NA,NA,NA,NA,NA,"","","",NA,"",NA,NA,NA,NA,NA,NA,NA,"","","",NA,NA,NA,NA,NA,NA,"",NA,"",NA,NA,NA,NA,NA,NA,NA,"",NA,"e",1,1.0315,0,1,1,9,1,"其他","e","",NA,"",NA,NA,NA,NA,NA,NA,NA,"",NA,"9"
"",NA,"",NA,"",NA,NA,NA,NA,NA,NA,NA,"","",1,1,"2024-08-23_15h31.13.642","IAT(Formal)","2021.2.3","Win32",60.60606061,"",NA,"",NA,NA,NA,NA,NA,NA,NA,"","","",NA,"",NA,NA,NA,NA,NA,NA,NA,"","","",NA,NA,NA,NA,NA,NA,"",NA,"",NA,NA,NA,NA,NA,NA,NA,"",NA,"e",1,1.0673,0,2,2,55,1,"他","e","",NA,"",NA,NA,NA,NA,NA,NA,NA,"",NA,"9"
"",NA,"",NA,"",NA,NA,NA,NA,NA,NA,NA,"","",1,1,"2024-08-23_15h31.13.642","IAT(Formal)","2021.2.3","Win32",60.60606061,"",NA,"",NA,NA,NA,NA,NA,NA,NA,"","","",NA,"",NA,NA,NA,NA,NA,NA,NA,"","","",NA,NA,NA,NA,NA,NA,"",NA,"",NA,NA,NA,NA,NA,NA,NA,"",NA,"i",1,0.5573,0,3,3,3,1,"自己","i","",NA,"",NA,NA,NA,NA,NA,NA,NA,"",NA,"9"
"",NA,"",NA,"",NA,NA,NA,NA,NA,NA,NA,"","",1,1,"2024-08-23_15h31.13.642","IAT(Formal)","2021.2.3","Win32",60.60606061,"",NA,"",NA,NA,NA,NA,NA,NA,NA,"","","",NA,"",NA,NA,NA,NA,NA,NA,NA,"","","",NA,NA,NA,NA,NA,NA,"",NA,"",NA,NA,NA,NA,NA,NA,NA,"",NA,"e",0,0.9949,0,4,4,39,1,"冒失","i","",NA,"",NA,NA,NA,NA,NA,NA,NA,"",NA,"9"
"",NA,"",NA,"",NA,NA,NA,NA,NA,NA,NA,"","",1,1,"2024-08-23_15h31.13.642","IAT(Formal)","2021.2.3","Win32",60.60606061,"",NA,"",NA,NA,NA,NA,NA,NA,NA,"","","",NA,"",NA,NA,NA,NA,NA,NA,NA,"","","",NA,NA,NA,NA,NA,NA,"",NA,"",NA,NA,NA,NA,NA,NA,NA,"",NA,"i",0,1.2211,0,5,5,77,1,"他的","e","",NA,"",NA,NA,NA,NA,NA,NA,NA,"",NA,"9"
