﻿Instruction1.keys,Instruction1.rt,Instruction2.keys,Instruction2.rt,key_resp_iso.keys,key_resp_iso.corr,key_resp_iso.rt,Practice_01.thisRepN,Practice_01.thisTrialN,Practice_01.thisN,Practice_01.thisIndex,Practice_01.ran,Words,ans,participant,session,date,expName,psychopyVersion,OS,frameRate,key_resp_3.keys,key_resp_3.rt,key_resp_ipn.keys,key_resp_ipn.corr,key_resp_ipn.rt,Practice_02.thisRepN,Practice_02.thisTrialN,Practice_02.thisN,Practice_02.thisIndex,Practice_02.ran,Words_ipn,ans_ipn,key_resp_4.keys,key_resp_4.rt,key_resp_t1.keys,key_resp_t1.corr,key_resp_t1.rt,Practice_T1.thisRepN,Practice_T1.thisTrialN,Practice_T1.thisN,Practice_T1.thisIndex,Practice_T1.ran,Words_t1,ans_t1,key_resp_5.keys,key_resp_5.rt,Formal_T1.thisRepN,Formal_T1.thisTrialN,Formal_T1.thisN,Formal_T1.thisIndex,Formal_T1.ran,key_resp_6.keys,key_resp_6.rt,key_resp_iso_reverse.keys,key_resp_iso_reverse.corr,key_resp_iso_reverse.rt,Practice_iso_Reverse.thisRepN,Practice_iso_Reverse.thisTrialN,Practice_iso_Reverse.thisN,Practice_iso_Reverse.thisIndex,Practice_iso_Reverse.ran,key_resp_7.keys,key_resp_7.rt,key_resp_t2_Practice.keys,key_resp_t2_Practice.corr,key_resp_t2_Practice.rt,Practice_t2_Reverse.thisRepN,Practice_t2_Reverse.thisTrialN,Practice_t2_Reverse.thisN,Practice_t2_Reverse.thisIndex,Practice_t2_Reverse.ran,Words_t2,ans_t2,key_resp_8.keys,key_resp_8.rt,key_resp_t2.keys,key_resp_t2.corr,key_resp_t2.rt,Formal_t2_reverse.thisRepN,Formal_t2_reverse.thisTrialN,Formal_t2_reverse.thisN,Formal_t2_reverse.thisIndex,Formal_t2_reverse.ran,key_instruct.keys,key_instruct.rt
space,7.9827,space,12.3179,e,1,0.9808,0,0,0,2,1,我们,e,1,001,2024-08-23_15h31.13.642,IAT(Formal),2021.2.3,Win32,60.60606061,,,,,,,,,,,,,,,,,,,,,,,,,,,,,,,,,,,,,,,,,,,,,,,,,,,,,,,,,,,,,,,,,
,,,,i,1,0.4914,0,1,1,8,1,他人,i,1,001,2024-08-23_15h31.13.642,IAT(Formal),2021.2.3,Win32,60.60606061,,,,,,,,,,,,,,,,,,,,,,,,,,,,,,,,,,,,,,,,,,,,,,,,,,,,,,,,,,,,,,,,,
,,,,i,1,0.7218,0,2,2,9,1,其他,i,1,001,2024-08-23_15h31.13.642,IAT(Formal),2021.2.3,Win32,60.60606061,,,,,,,,,,,,,,,,,,,,,,,,,,,,,,,,,,,,,,,,,,,,,,,,,,,,,,,,,,,,,,,,,
,,,,e,1,0.4419,0,3,3,1,1,我的,e,1,001,2024-08-23_15h31.13.642,IAT(Formal),2021.2.3,Win32,60.60606061,,,,,,,,,,,,,,,,,,,,,,,,,,,,,,,,,,,,,,,,,,,,,,,,,,,,,,,,,,,,,,,,,
,,,,e,1,0.5339,0,4,4,0,1,我,e,1,001,2024-08-23_15h31.13.642,IAT(Formal),2021.2.3,Win32,60.60606061,,,,,,,,,,,,,,,,,,,,,,,,,,,,,,,,,,,,,,,,,,,,,,,,,,,,,,,,,,,,,,,,,
,,,,i,1,0.7907,0,5,5,7,1,他的,i,1,001,2024-08-23_15h31.13.642,IAT(Formal),2021.2.3,Win32,60.60606061,,,,,,,,,,,,,,,,,,,,,,,,,,,,,,,,,,,,,,,,,,,,,,,,,,,,,,,,,,,,,,,,,
,,,,i,1,0.5109,0,6,6,6,1,他们,i,1,001,2024-08-23_15h31.13.642,IAT(Formal),2021.2.3,Win32,60.60606061,,,,,,,,,,,,,,,,,,,,,,,,,,,,,,,,,,,,,,,,,,,,,,,,,,,,,,,,,,,,,,,,,
,,,,e,1,0.7569,0,7,7,3,1,自己,e,1,001,2024-08-23_15h31.13.642,IAT(Formal),2021.2.3,Win32,60.60606061,,,,,,,,,,,,,,,,,,,,,,,,,,,,,,,,,,,,,,,,,,,,,,,,,,,,,,,,,,,,,,,,,
,,,,i,1,0.8189,0,8,8,5,1,他,i,1,001,2024-08-23_15h31.13.642,IAT(Formal),2021.2.3,Win32,60.60606061,,,,,,,,,,,,,,,,,,,,,,,,,,,,,,,,,,,,,,,,,,,,,,,,,,,,,,,,,,,,,,,,,
,,,,e,1,1.1349,0,9,9,4,1,俺,e,1,001,2024-08-23_15h31.13.642,IAT(Formal),2021.2.3,Win32,60.60606061,,,,,,,,,,,,,,,,,,,,,,,,,,,,,,,,,,,,,,,,,,,,,,,,,,,,,,,,,,,,,,,,,
,,,,,,,,,,,,,,1,001,2024-08-23_15h31.13.642,IAT(Formal),2021.2.3,Win32,60.60606061,space,1.3969,e,1,1.1571,0,0,0,18,1,活泼,e,,,,,,,,,,,,,,,,,,,,,,,,,,,,,,,,,,,,,,,,,,,,,,,,,,,,,
,,,,,,,,,,,,,,1,001,2024-08-23_15h31.13.642,IAT(Formal),2021.2.3,Win32,60.60606061,,,e,1,0.7757,0,1,1,5,1,诚实,e,,,,,,,,,,,,,,,,,,,,,,,,,,,,,,,,,,,,,,,,,,,,,,,,,,,,,
,,,,,,,,,,,,,,1,001,2024-08-23_15h31.13.642,IAT(Formal),2021.2.3,Win32,60.60606061,,,i,1,0.7934,0,2,2,20,1,卑鄙,i,,,,,,,,,,,,,,,,,,,,,,,,,,,,,,,,,,,,,,,,,,,,,,,,,,,,,
,,,,,,,,,,,,,,1,001,2024-08-23_15h31.13.642,IAT(Formal),2021.2.3,Win32,60.60606061,,,i,1,0.5228,0,3,3,21,1,虚伪,i,,,,,,,,,,,,,,,,,,,,,,,,,,,,,,,,,,,,,,,,,,,,,,,,,,,,,
,,,,,,,,,,,,,,1,001,2024-08-23_15h31.13.642,IAT(Formal),2021.2.3,Win32,60.60606061,,,e,1,0.6433,0,4,4,0,1,优秀,e,,,,,,,,,,,,,,,,,,,,,,,,,,,,,,,,,,,,,,,,,,,,,,,,,,,,,
,,,,,,,,,,,,,,1,001,2024-08-23_15h31.13.642,IAT(Formal),2021.2.3,Win32,60.60606061,,,i,1,0.7682,0,5,5,33,1,自私,i,,,,,,,,,,,,,,,,,,,,,,,,,,,,,,,,,,,,,,,,,,,,,,,,,,,,,
,,,,,,,,,,,,,,1,001,2024-08-23_15h31.13.642,IAT(Formal),2021.2.3,Win32,60.60606061,,,i,1,0.7245,0,6,6,39,1,下贱,i,,,,,,,,,,,,,,,,,,,,,,,,,,,,,,,,,,,,,,,,,,,,,,,,,,,,,
,,,,,,,,,,,,,,1,001,2024-08-23_15h31.13.642,IAT(Formal),2021.2.3,Win32,60.60606061,,,i,0,0.5613,0,7,7,12,1,无私,e,,,,,,,,,,,,,,,,,,,,,,,,,,,,,,,,,,,,,,,,,,,,,,,,,,,,,
,,,,,,,,,,,,,,1,001,2024-08-23_15h31.13.642,IAT(Formal),2021.2.3,Win32,60.60606061,,,i,1,0.9884,0,8,8,28,1,鲁莽,i,,,,,,,,,,,,,,,,,,,,,,,,,,,,,,,,,,,,,,,,,,,,,,,,,,,,,
,,,,,,,,,,,,,,1,001,2024-08-23_15h31.13.642,IAT(Formal),2021.2.3,Win32,60.60606061,,,e,1,0.826,0,9,9,10,1,认真,e,,,,,,,,,,,,,,,,,,,,,,,,,,,,,,,,,,,,,,,,,,,,,,,,,,,,,
,,,,,,,,,,,,,,1,001,2024-08-23_15h31.13.642,IAT(Formal),2021.2.3,Win32,60.60606061,,,e,1,0.6912,0,10,10,2,1,聪明,e,,,,,,,,,,,,,,,,,,,,,,,,,,,,,,,,,,,,,,,,,,,,,,,,,,,,,
,,,,,,,,,,,,,,1,001,2024-08-23_15h31.13.642,IAT(Formal),2021.2.3,Win32,60.60606061,,,e,1,0.6723,0,11,11,8,1,勤奋,e,,,,,,,,,,,,,,,,,,,,,,,,,,,,,,,,,,,,,,,,,,,,,,,,,,,,,
,,,,,,,,,,,,,,1,001,2024-08-23_15h31.13.642,IAT(Formal),2021.2.3,Win32,60.60606061,,,e,1,0.615,0,12,12,15,1,细腻,e,,,,,,,,,,,,,,,,,,,,,,,,,,,,,,,,,,,,,,,,,,,,,,,,,,,,,
,,,,,,,,,,,,,,1,001,2024-08-23_15h31.13.642,IAT(Formal),2021.2.3,Win32,60.60606061,,,e,1,0.5059,0,13,13,19,1,诚恳,e,,,,,,,,,,,,,,,,,,,,,,,,,,,,,,,,,,,,,,,,,,,,,,,,,,,,,
,,,,,,,,,,,,,,1,001,2024-08-23_15h31.13.642,IAT(Formal),2021.2.3,Win32,60.60606061,,,i,1,0.7757,0,14,14,29,1,冒失,i,,,,,,,,,,,,,,,,,,,,,,,,,,,,,,,,,,,,,,,,,,,,,,,,,,,,,
,,,,,,,,,,,,,,1,001,2024-08-23_15h31.13.642,IAT(Formal),2021.2.3,Win32,60.60606061,,,e,1,0.7004,0,15,15,7,1,勇敢,e,,,,,,,,,,,,,,,,,,,,,,,,,,,,,,,,,,,,,,,,,,,,,,,,,,,,,
,,,,,,,,,,,,,,1,001,2024-08-23_15h31.13.642,IAT(Formal),2021.2.3,Win32,60.60606061,,,i,1,0.6205,0,16,16,25,1,消极,i,,,,,,,,,,,,,,,,,,,,,,,,,,,,,,,,,,,,,,,,,,,,,,,,,,,,,
,,,,,,,,,,,,,,1,001,2024-08-23_15h31.13.642,IAT(Formal),2021.2.3,Win32,60.60606061,,,i,1,1.2405,0,17,17,38,1,轻率,i,,,,,,,,,,,,,,,,,,,,,,,,,,,,,,,,,,,,,,,,,,,,,,,,,,,,,
,,,,,,,,,,,,,,1,001,2024-08-23_15h31.13.642,IAT(Formal),2021.2.3,Win32,60.60606061,,,e,1,0.6797,0,18,18,16,1,冷静,e,,,,,,,,,,,,,,,,,,,,,,,,,,,,,,,,,,,,,,,,,,,,,,,,,,,,,
,,,,,,,,,,,,,,1,001,2024-08-23_15h31.13.642,IAT(Formal),2021.2.3,Win32,60.60606061,,,i,1,1.094,0,19,19,23,1,刻薄,i,,,,,,,,,,,,,,,,,,,,,,,,,,,,,,,,,,,,,,,,,,,,,,,,,,,,,
,,,,,,,,,,,,,,1,001,2024-08-23_15h31.13.642,IAT(Formal),2021.2.3,Win32,60.60606061,,,i,1,1.0064,0,20,20,27,1,傲慢,i,,,,,,,,,,,,,,,,,,,,,,,,,,,,,,,,,,,,,,,,,,,,,,,,,,,,,
,,,,,,,,,,,,,,1,001,2024-08-23_15h31.13.642,IAT(Formal),2021.2.3,Win32,60.60606061,,,i,1,0.8823,0,21,21,34,1,暴躁,i,,,,,,,,,,,,,,,,,,,,,,,,,,,,,,,,,,,,,,,,,,,,,,,,,,,,,
,,,,,,,,,,,,,,1,001,2024-08-23_15h31.13.642,IAT(Formal),2021.2.3,Win32,60.60606061,,,e,1,0.8567,0,22,22,3,1,杰出,e,,,,,,,,,,,,,,,,,,,,,,,,,,,,,,,,,,,,,,,,,,,,,,,,,,,,,
,,,,,,,,,,,,,,1,001,2024-08-23_15h31.13.642,IAT(Formal),2021.2.3,Win32,60.60606061,,,i,1,0.6747,0,23,23,24,1,悲观,i,,,,,,,,,,,,,,,,,,,,,,,,,,,,,,,,,,,,,,,,,,,,,,,,,,,,,
,,,,,,,,,,,,,,1,001,2024-08-23_15h31.13.642,IAT(Formal),2021.2.3,Win32,60.60606061,,,i,1,0.6227,0,24,24,30,1,执拗,i,,,,,,,,,,,,,,,,,,,,,,,,,,,,,,,,,,,,,,,,,,,,,,,,,,,,,
,,,,,,,,,,,,,,1,001,2024-08-23_15h31.13.642,IAT(Formal),2021.2.3,Win32,60.60606061,,,e,1,0.6305,0,25,25,9,1,机智,e,,,,,,,,,,,,,,,,,,,,,,,,,,,,,,,,,,,,,,,,,,,,,,,,,,,,,
,,,,,,,,,,,,,,1,001,2024-08-23_15h31.13.642,IAT(Formal),2021.2.3,Win32,60.60606061,,,e,1,0.9241,0,26,26,1,1,崇高,e,,,,,,,,,,,,,,,,,,,,,,,,,,,,,,,,,,,,,,,,,,,,,,,,,,,,,
,,,,,,,,,,,,,,1,001,2024-08-23_15h31.13.642,IAT(Formal),2021.2.3,Win32,60.60606061,,,e,1,0.7296,0,27,27,4,1,乐观,e,,,,,,,,,,,,,,,,,,,,,,,,,,,,,,,,,,,,,,,,,,,,,,,,,,,,,
,,,,,,,,,,,,,,1,001,2024-08-23_15h31.13.642,IAT(Formal),2021.2.3,Win32,60.60606061,,,e,1,0.6954,0,28,28,6,1,正直,e,,,,,,,,,,,,,,,,,,,,,,,,,,,,,,,,,,,,,,,,,,,,,,,,,,,,,
,,,,,,,,,,,,,,1,001,2024-08-23_15h31.13.642,IAT(Formal),2021.2.3,Win32,60.60606061,,,e,0,0.762,0,29,29,35,1,猖狂,i,,,,,,,,,,,,,,,,,,,,,,,,,,,,,,,,,,,,,,,,,,,,,,,,,,,,,
,,,,,,,,,,,,,,1,001,2024-08-23_15h31.13.642,IAT(Formal),2021.2.3,Win32,60.60606061,,,e,1,0.728,0,30,30,11,1,稳重,e,,,,,,,,,,,,,,,,,,,,,,,,,,,,,,,,,,,,,,,,,,,,,,,,,,,,,
,,,,,,,,,,,,,,1,001,2024-08-23_15h31.13.642,IAT(Formal),2021.2.3,Win32,60.60606061,,,e,1,0.5984,0,31,31,14,1,朴实,e,,,,,,,,,,,,,,,,,,,,,,,,,,,,,,,,,,,,,,,,,,,,,,,,,,,,,
,,,,,,,,,,,,,,1,001,2024-08-23_15h31.13.642,IAT(Formal),2021.2.3,Win32,60.60606061,,,i,1,0.8728,0,32,32,32,1,凶狠,i,,,,,,,,,,,,,,,,,,,,,,,,,,,,,,,,,,,,,,,,,,,,,,,,,,,,,
,,,,,,,,,,,,,,1,001,2024-08-23_15h31.13.642,IAT(Formal),2021.2.3,Win32,60.60606061,,,,0,,0,33,33,37,1,固执,i,,,,,,,,,,,,,,,,,,,,,,,,,,,,,,,,,,,,,,,,,,,,,,,,,,,,,
,,,,,,,,,,,,,,1,001,2024-08-23_15h31.13.642,IAT(Formal),2021.2.3,Win32,60.60606061,,,e,1,0.5923,0,34,34,17,1,热情,e,,,,,,,,,,,,,,,,,,,,,,,,,,,,,,,,,,,,,,,,,,,,,,,,,,,,,
,,,,,,,,,,,,,,1,001,2024-08-23_15h31.13.642,IAT(Formal),2021.2.3,Win32,60.60606061,,,i,1,0.5367,0,35,35,22,1,愚蠢,i,,,,,,,,,,,,,,,,,,,,,,,,,,,,,,,,,,,,,,,,,,,,,,,,,,,,,
,,,,,,,,,,,,,,1,001,2024-08-23_15h31.13.642,IAT(Formal),2021.2.3,Win32,60.60606061,,,i,1,0.7243,0,36,36,31,1,散漫,i,,,,,,,,,,,,,,,,,,,,,,,,,,,,,,,,,,,,,,,,,,,,,,,,,,,,,
,,,,,,,,,,,,,,1,001,2024-08-23_15h31.13.642,IAT(Formal),2021.2.3,Win32,60.60606061,,,i,1,0.5756,0,37,37,36,1,野蛮,i,,,,,,,,,,,,,,,,,,,,,,,,,,,,,,,,,,,,,,,,,,,,,,,,,,,,,
,,,,,,,,,,,,,,1,001,2024-08-23_15h31.13.642,IAT(Formal),2021.2.3,Win32,60.60606061,,,i,1,0.714,0,38,38,26,1,自卑,i,,,,,,,,,,,,,,,,,,,,,,,,,,,,,,,,,,,,,,,,,,,,,,,,,,,,,
,,,,,,,,,,,,,,1,001,2024-08-23_15h31.13.642,IAT(Formal),2021.2.3,Win32,60.60606061,,,e,1,0.8587,0,39,39,13,1,公正,e,,,,,,,,,,,,,,,,,,,,,,,,,,,,,,,,,,,,,,,,,,,,,,,,,,,,,
,,,,,,,,,,,,,,1,001,2024-08-23_15h31.13.642,IAT(Formal),2021.2.3,Win32,60.60606061,,,,,,,,,,,,,space,11.8409,e,1,1.3218,0,0,0,22,1,无私,e,,,,,,,,,,,,,,,,,,,,,,,,,,,,,,,,,,,,,,,,,
,,,,,,,,,,,,,,1,001,2024-08-23_15h31.13.642,IAT(Formal),2021.2.3,Win32,60.60606061,,,,,,,,,,,,,,,i,1,0.6903,0,1,1,79,1,其他,i,,,,,,,,,,,,,,,,,,,,,,,,,,,,,,,,,,,,,,,,,
,,,,,,,,,,,,,,1,001,2024-08-23_15h31.13.642,IAT(Formal),2021.2.3,Win32,60.60606061,,,,,,,,,,,,,,,i,1,0.5635,0,2,2,7,1,他的,i,,,,,,,,,,,,,,,,,,,,,,,,,,,,,,,,,,,,,,,,,
,,,,,,,,,,,,,,1,001,2024-08-23_15h31.13.642,IAT(Formal),2021.2.3,Win32,60.60606061,,,,,,,,,,,,,,,e,1,0.6795,0,3,3,53,1,自己,e,,,,,,,,,,,,,,,,,,,,,,,,,,,,,,,,,,,,,,,,,
,,,,,,,,,,,,,,1,001,2024-08-23_15h31.13.642,IAT(Formal),2021.2.3,Win32,60.60606061,,,,,,,,,,,,,,,i,1,0.6343,0,4,4,35,1,消极,i,,,,,,,,,,,,,,,,,,,,,,,,,,,,,,,,,,,,,,,,,
,,,,,,,,,,,,,,1,001,2024-08-23_15h31.13.642,IAT(Formal),2021.2.3,Win32,60.60606061,,,,,,,,,,,,,,,e,1,0.6641,0,5,5,12,1,聪明,e,,,,,,,,,,,,,,,,,,,,,,,,,,,,,,,,,,,,,,,,,
,,,,,,,,,,,,,,1,001,2024-08-23_15h31.13.642,IAT(Formal),2021.2.3,Win32,60.60606061,,,,,,,,,,,,,,,i,0,0.5187,0,6,6,71,1,我的,e,,,,,,,,,,,,,,,,,,,,,,,,,,,,,,,,,,,,,,,,,
,,,,,,,,,,,,,,1,001,2024-08-23_15h31.13.642,IAT(Formal),2021.2.3,Win32,60.60606061,,,,,,,,,,,,,,,e,1,0.694,0,7,7,4,1,俺,e,,,,,,,,,,,,,,,,,,,,,,,,,,,,,,,,,,,,,,,,,
,,,,,,,,,,,,,,1,001,2024-08-23_15h31.13.642,IAT(Formal),2021.2.3,Win32,60.60606061,,,,,,,,,,,,,,,i,1,0.5601,0,8,8,56,1,他们,i,,,,,,,,,,,,,,,,,,,,,,,,,,,,,,,,,,,,,,,,,
,,,,,,,,,,,,,,1,001,2024-08-23_15h31.13.642,IAT(Formal),2021.2.3,Win32,60.60606061,,,,,,,,,,,,,,,e,1,0.9681,0,9,9,21,1,稳重,e,,,,,,,,,,,,,,,,,,,,,,,,,,,,,,,,,,,,,,,,,
,,,,,,,,,,,,,,1,001,2024-08-23_15h31.13.642,IAT(Formal),2021.2.3,Win32,60.60606061,,,,,,,,,,,,,,,e,1,0.5678,0,10,10,0,1,我,e,,,,,,,,,,,,,,,,,,,,,,,,,,,,,,,,,,,,,,,,,
,,,,,,,,,,,,,,1,001,2024-08-23_15h31.13.642,IAT(Formal),2021.2.3,Win32,60.60606061,,,,,,,,,,,,,,,i,1,0.6742,0,11,11,31,1,虚伪,i,,,,,,,,,,,,,,,,,,,,,,,,,,,,,,,,,,,,,,,,,
,,,,,,,,,,,,,,1,001,2024-08-23_15h31.13.642,IAT(Formal),2021.2.3,Win32,60.60606061,,,,,,,,,,,,,,,i,1,0.6795,0,12,12,33,1,刻薄,i,,,,,,,,,,,,,,,,,,,,,,,,,,,,,,,,,,,,,,,,,
,,,,,,,,,,,,,,1,001,2024-08-23_15h31.13.642,IAT(Formal),2021.2.3,Win32,60.60606061,,,,,,,,,,,,,,,e,1,0.5908,0,13,13,25,1,细腻,e,,,,,,,,,,,,,,,,,,,,,,,,,,,,,,,,,,,,,,,,,
,,,,,,,,,,,,,,1,001,2024-08-23_15h31.13.642,IAT(Formal),2021.2.3,Win32,60.60606061,,,,,,,,,,,,,,,i,1,1.1081,0,14,14,30,1,卑鄙,i,,,,,,,,,,,,,,,,,,,,,,,,,,,,,,,,,,,,,,,,,
,,,,,,,,,,,,,,1,001,2024-08-23_15h31.13.642,IAT(Formal),2021.2.3,Win32,60.60606061,,,,,,,,,,,,,,,e,0,0.6548,0,15,15,55,1,他,i,,,,,,,,,,,,,,,,,,,,,,,,,,,,,,,,,,,,,,,,,
,,,,,,,,,,,,,,1,001,2024-08-23_15h31.13.642,IAT(Formal),2021.2.3,Win32,60.60606061,,,,,,,,,,,,,,,e,0,0.404,0,16,16,67,1,他的,i,,,,,,,,,,,,,,,,,,,,,,,,,,,,,,,,,,,,,,,,,
,,,,,,,,,,,,,,1,001,2024-08-23_15h31.13.642,IAT(Formal),2021.2.3,Win32,60.60606061,,,,,,,,,,,,,,,e,1,0.7062,0,17,17,28,1,活泼,e,,,,,,,,,,,,,,,,,,,,,,,,,,,,,,,,,,,,,,,,,
,,,,,,,,,,,,,,1,001,2024-08-23_15h31.13.642,IAT(Formal),2021.2.3,Win32,60.60606061,,,,,,,,,,,,,,,i,1,0.7508,0,18,18,36,1,自卑,i,,,,,,,,,,,,,,,,,,,,,,,,,,,,,,,,,,,,,,,,,
,,,,,,,,,,,,,,1,001,2024-08-23_15h31.13.642,IAT(Formal),2021.2.3,Win32,60.60606061,,,,,,,,,,,,,,,i,1,0.5684,0,19,19,43,1,自私,i,,,,,,,,,,,,,,,,,,,,,,,,,,,,,,,,,,,,,,,,,
,,,,,,,,,,,,,,1,001,2024-08-23_15h31.13.642,IAT(Formal),2021.2.3,Win32,60.60606061,,,,,,,,,,,,,,,i,1,0.6874,0,20,20,47,1,固执,i,,,,,,,,,,,,,,,,,,,,,,,,,,,,,,,,,,,,,,,,,
,,,,,,,,,,,,,,1,001,2024-08-23_15h31.13.642,IAT(Formal),2021.2.3,Win32,60.60606061,,,,,,,,,,,,,,,i,0,0.5843,0,21,21,26,1,冷静,e,,,,,,,,,,,,,,,,,,,,,,,,,,,,,,,,,,,,,,,,,
,,,,,,,,,,,,,,1,001,2024-08-23_15h31.13.642,IAT(Formal),2021.2.3,Win32,60.60606061,,,,,,,,,,,,,,,e,1,0.4544,0,22,22,63,1,自己,e,,,,,,,,,,,,,,,,,,,,,,,,,,,,,,,,,,,,,,,,,
,,,,,,,,,,,,,,1,001,2024-08-23_15h31.13.642,IAT(Formal),2021.2.3,Win32,60.60606061,,,,,,,,,,,,,,,e,1,1.1731,0,23,23,11,1,崇高,e,,,,,,,,,,,,,,,,,,,,,,,,,,,,,,,,,,,,,,,,,
,,,,,,,,,,,,,,1,001,2024-08-23_15h31.13.642,IAT(Formal),2021.2.3,Win32,60.60606061,,,,,,,,,,,,,,,i,1,0.773,0,24,24,76,1,他们,i,,,,,,,,,,,,,,,,,,,,,,,,,,,,,,,,,,,,,,,,,
,,,,,,,,,,,,,,1,001,2024-08-23_15h31.13.642,IAT(Formal),2021.2.3,Win32,60.60606061,,,,,,,,,,,,,,,e,1,0.5216,0,25,25,70,1,我,e,,,,,,,,,,,,,,,,,,,,,,,,,,,,,,,,,,,,,,,,,
,,,,,,,,,,,,,,1,001,2024-08-23_15h31.13.642,IAT(Formal),2021.2.3,Win32,60.60606061,,,,,,,,,,,,,,,e,1,0.4696,0,26,26,52,1,我们,e,,,,,,,,,,,,,,,,,,,,,,,,,,,,,,,,,,,,,,,,,
,,,,,,,,,,,,,,1,001,2024-08-23_15h31.13.642,IAT(Formal),2021.2.3,Win32,60.60606061,,,,,,,,,,,,,,,e,1,0.836,0,27,27,18,1,勤奋,e,,,,,,,,,,,,,,,,,,,,,,,,,,,,,,,,,,,,,,,,,
,,,,,,,,,,,,,,1,001,2024-08-23_15h31.13.642,IAT(Formal),2021.2.3,Win32,60.60606061,,,,,,,,,,,,,,,i,1,0.6175,0,28,28,57,1,他的,i,,,,,,,,,,,,,,,,,,,,,,,,,,,,,,,,,,,,,,,,,
,,,,,,,,,,,,,,1,001,2024-08-23_15h31.13.642,IAT(Formal),2021.2.3,Win32,60.60606061,,,,,,,,,,,,,,,e,1,0.7082,0,29,29,16,1,正直,e,,,,,,,,,,,,,,,,,,,,,,,,,,,,,,,,,,,,,,,,,
,,,,,,,,,,,,,,1,001,2024-08-23_15h31.13.642,IAT(Formal),2021.2.3,Win32,60.60606061,,,,,,,,,,,,,,,i,1,0.6998,0,30,30,41,1,散漫,i,,,,,,,,,,,,,,,,,,,,,,,,,,,,,,,,,,,,,,,,,
,,,,,,,,,,,,,,1,001,2024-08-23_15h31.13.642,IAT(Formal),2021.2.3,Win32,60.60606061,,,,,,,,,,,,,,,,0,,0,31,31,66,1,他们,i,,,,,,,,,,,,,,,,,,,,,,,,,,,,,,,,,,,,,,,,,
,,,,,,,,,,,,,,1,001,2024-08-23_15h31.13.642,IAT(Formal),2021.2.3,Win32,60.60606061,,,,,,,,,,,,,,,e,1,0.5335,0,32,32,73,1,自己,e,,,,,,,,,,,,,,,,,,,,,,,,,,,,,,,,,,,,,,,,,
,,,,,,,,,,,,,,1,001,2024-08-23_15h31.13.642,IAT(Formal),2021.2.3,Win32,60.60606061,,,,,,,,,,,,,,,i,1,0.6432,0,33,33,38,1,鲁莽,i,,,,,,,,,,,,,,,,,,,,,,,,,,,,,,,,,,,,,,,,,
,,,,,,,,,,,,,,1,001,2024-08-23_15h31.13.642,IAT(Formal),2021.2.3,Win32,60.60606061,,,,,,,,,,,,,,,e,1,0.5851,0,34,34,64,1,俺,e,,,,,,,,,,,,,,,,,,,,,,,,,,,,,,,,,,,,,,,,,
,,,,,,,,,,,,,,1,001,2024-08-23_15h31.13.642,IAT(Formal),2021.2.3,Win32,60.60606061,,,,,,,,,,,,,,,e,1,0.6389,0,35,35,50,1,我,e,,,,,,,,,,,,,,,,,,,,,,,,,,,,,,,,,,,,,,,,,
,,,,,,,,,,,,,,1,001,2024-08-23_15h31.13.642,IAT(Formal),2021.2.3,Win32,60.60606061,,,,,,,,,,,,,,,i,1,0.6685,0,36,36,44,1,暴躁,i,,,,,,,,,,,,,,,,,,,,,,,,,,,,,,,,,,,,,,,,,
,,,,,,,,,,,,,,1,001,2024-08-23_15h31.13.642,IAT(Formal),2021.2.3,Win32,60.60606061,,,,,,,,,,,,,,,e,1,0.6537,0,37,37,20,1,认真,e,,,,,,,,,,,,,,,,,,,,,,,,,,,,,,,,,,,,,,,,,
,,,,,,,,,,,,,,1,001,2024-08-23_15h31.13.642,IAT(Formal),2021.2.3,Win32,60.60606061,,,,,,,,,,,,,,,i,1,1.0566,0,38,38,58,1,他人,i,,,,,,,,,,,,,,,,,,,,,,,,,,,,,,,,,,,,,,,,,
,,,,,,,,,,,,,,1,001,2024-08-23_15h31.13.642,IAT(Formal),2021.2.3,Win32,60.60606061,,,,,,,,,,,,,,,i,1,0.6774,0,39,39,46,1,野蛮,i,,,,,,,,,,,,,,,,,,,,,,,,,,,,,,,,,,,,,,,,,
,,,,,,,,,,,,,,1,001,2024-08-23_15h31.13.642,IAT(Formal),2021.2.3,Win32,60.60606061,,,,,,,,,,,,,,,i,1,0.8224,0,40,40,59,1,其他,i,,,,,,,,,,,,,,,,,,,,,,,,,,,,,,,,,,,,,,,,,
,,,,,,,,,,,,,,1,001,2024-08-23_15h31.13.642,IAT(Formal),2021.2.3,Win32,60.60606061,,,,,,,,,,,,,,,e,1,0.6877,0,41,41,10,1,优秀,e,,,,,,,,,,,,,,,,,,,,,,,,,,,,,,,,,,,,,,,,,
,,,,,,,,,,,,,,1,001,2024-08-23_15h31.13.642,IAT(Formal),2021.2.3,Win32,60.60606061,,,,,,,,,,,,,,,e,1,0.8519,0,42,42,14,1,乐观,e,,,,,,,,,,,,,,,,,,,,,,,,,,,,,,,,,,,,,,,,,
,,,,,,,,,,,,,,1,001,2024-08-23_15h31.13.642,IAT(Formal),2021.2.3,Win32,60.60606061,,,,,,,,,,,,,,,e,0,0.8564,0,43,43,5,1,他,i,,,,,,,,,,,,,,,,,,,,,,,,,,,,,,,,,,,,,,,,,
,,,,,,,,,,,,,,1,001,2024-08-23_15h31.13.642,IAT(Formal),2021.2.3,Win32,60.60606061,,,,,,,,,,,,,,,e,1,0.5194,0,44,44,62,1,我们,e,,,,,,,,,,,,,,,,,,,,,,,,,,,,,,,,,,,,,,,,,
,,,,,,,,,,,,,,1,001,2024-08-23_15h31.13.642,IAT(Formal),2021.2.3,Win32,60.60606061,,,,,,,,,,,,,,,e,1,0.5556,0,45,45,23,1,公正,e,,,,,,,,,,,,,,,,,,,,,,,,,,,,,,,,,,,,,,,,,
,,,,,,,,,,,,,,1,001,2024-08-23_15h31.13.642,IAT(Formal),2021.2.3,Win32,60.60606061,,,,,,,,,,,,,,,e,1,0.6675,0,46,46,74,1,俺,e,,,,,,,,,,,,,,,,,,,,,,,,,,,,,,,,,,,,,,,,,
,,,,,,,,,,,,,,1,001,2024-08-23_15h31.13.642,IAT(Formal),2021.2.3,Win32,60.60606061,,,,,,,,,,,,,,,e,1,0.9341,0,47,47,24,1,朴实,e,,,,,,,,,,,,,,,,,,,,,,,,,,,,,,,,,,,,,,,,,
,,,,,,,,,,,,,,1,001,2024-08-23_15h31.13.642,IAT(Formal),2021.2.3,Win32,60.60606061,,,,,,,,,,,,,,,i,1,0.6427,0,48,48,78,1,他人,i,,,,,,,,,,,,,,,,,,,,,,,,,,,,,,,,,,,,,,,,,
,,,,,,,,,,,,,,1,001,2024-08-23_15h31.13.642,IAT(Formal),2021.2.3,Win32,60.60606061,,,,,,,,,,,,,,,e,1,1.4578,0,49,49,29,1,诚恳,e,,,,,,,,,,,,,,,,,,,,,,,,,,,,,,,,,,,,,,,,,
,,,,,,,,,,,,,,1,001,2024-08-23_15h31.13.642,IAT(Formal),2021.2.3,Win32,60.60606061,,,,,,,,,,,,,,,e,0,1.151,0,50,50,8,1,他人,i,,,,,,,,,,,,,,,,,,,,,,,,,,,,,,,,,,,,,,,,,
,,,,,,,,,,,,,,1,001,2024-08-23_15h31.13.642,IAT(Formal),2021.2.3,Win32,60.60606061,,,,,,,,,,,,,,,i,1,0.7075,0,51,51,49,1,下贱,i,,,,,,,,,,,,,,,,,,,,,,,,,,,,,,,,,,,,,,,,,
,,,,,,,,,,,,,,1,001,2024-08-23_15h31.13.642,IAT(Formal),2021.2.3,Win32,60.60606061,,,,,,,,,,,,,,,i,1,0.6373,0,52,52,42,1,凶狠,i,,,,,,,,,,,,,,,,,,,,,,,,,,,,,,,,,,,,,,,,,
,,,,,,,,,,,,,,1,001,2024-08-23_15h31.13.642,IAT(Formal),2021.2.3,Win32,60.60606061,,,,,,,,,,,,,,,e,1,0.9345,0,53,53,61,1,我的,e,,,,,,,,,,,,,,,,,,,,,,,,,,,,,,,,,,,,,,,,,
,,,,,,,,,,,,,,1,001,2024-08-23_15h31.13.642,IAT(Formal),2021.2.3,Win32,60.60606061,,,,,,,,,,,,,,,i,1,1.117,0,54,54,9,1,其他,i,,,,,,,,,,,,,,,,,,,,,,,,,,,,,,,,,,,,,,,,,
,,,,,,,,,,,,,,1,001,2024-08-23_15h31.13.642,IAT(Formal),2021.2.3,Win32,60.60606061,,,,,,,,,,,,,,,e,1,0.6543,0,55,55,51,1,我的,e,,,,,,,,,,,,,,,,,,,,,,,,,,,,,,,,,,,,,,,,,
,,,,,,,,,,,,,,1,001,2024-08-23_15h31.13.642,IAT(Formal),2021.2.3,Win32,60.60606061,,,,,,,,,,,,,,,e,1,0.7172,0,56,56,27,1,热情,e,,,,,,,,,,,,,,,,,,,,,,,,,,,,,,,,,,,,,,,,,
,,,,,,,,,,,,,,1,001,2024-08-23_15h31.13.642,IAT(Formal),2021.2.3,Win32,60.60606061,,,,,,,,,,,,,,,e,1,0.9713,0,57,57,54,1,俺,e,,,,,,,,,,,,,,,,,,,,,,,,,,,,,,,,,,,,,,,,,
,,,,,,,,,,,,,,1,001,2024-08-23_15h31.13.642,IAT(Formal),2021.2.3,Win32,60.60606061,,,,,,,,,,,,,,,i,1,1.0592,0,58,58,77,1,他的,i,,,,,,,,,,,,,,,,,,,,,,,,,,,,,,,,,,,,,,,,,
,,,,,,,,,,,,,,1,001,2024-08-23_15h31.13.642,IAT(Formal),2021.2.3,Win32,60.60606061,,,,,,,,,,,,,,,e,0,1.1384,0,59,59,48,1,轻率,i,,,,,,,,,,,,,,,,,,,,,,,,,,,,,,,,,,,,,,,,,
,,,,,,,,,,,,,,1,001,2024-08-23_15h31.13.642,IAT(Formal),2021.2.3,Win32,60.60606061,,,,,,,,,,,,,,,i,1,0.722,0,60,60,37,1,傲慢,i,,,,,,,,,,,,,,,,,,,,,,,,,,,,,,,,,,,,,,,,,
,,,,,,,,,,,,,,1,001,2024-08-23_15h31.13.642,IAT(Formal),2021.2.3,Win32,60.60606061,,,,,,,,,,,,,,,e,1,0.808,0,61,61,15,1,诚实,e,,,,,,,,,,,,,,,,,,,,,,,,,,,,,,,,,,,,,,,,,
,,,,,,,,,,,,,,1,001,2024-08-23_15h31.13.642,IAT(Formal),2021.2.3,Win32,60.60606061,,,,,,,,,,,,,,,i,1,0.6454,0,62,62,32,1,愚蠢,i,,,,,,,,,,,,,,,,,,,,,,,,,,,,,,,,,,,,,,,,,
,,,,,,,,,,,,,,1,001,2024-08-23_15h31.13.642,IAT(Formal),2021.2.3,Win32,60.60606061,,,,,,,,,,,,,,,i,1,0.6192,0,63,63,40,1,执拗,i,,,,,,,,,,,,,,,,,,,,,,,,,,,,,,,,,,,,,,,,,
,,,,,,,,,,,,,,1,001,2024-08-23_15h31.13.642,IAT(Formal),2021.2.3,Win32,60.60606061,,,,,,,,,,,,,,,i,1,0.6045,0,64,64,34,1,悲观,i,,,,,,,,,,,,,,,,,,,,,,,,,,,,,,,,,,,,,,,,,
,,,,,,,,,,,,,,1,001,2024-08-23_15h31.13.642,IAT(Formal),2021.2.3,Win32,60.60606061,,,,,,,,,,,,,,,i,1,0.5071,0,65,65,45,1,猖狂,i,,,,,,,,,,,,,,,,,,,,,,,,,,,,,,,,,,,,,,,,,
,,,,,,,,,,,,,,1,001,2024-08-23_15h31.13.642,IAT(Formal),2021.2.3,Win32,60.60606061,,,,,,,,,,,,,,,e,1,0.4853,0,66,66,1,1,我的,e,,,,,,,,,,,,,,,,,,,,,,,,,,,,,,,,,,,,,,,,,
,,,,,,,,,,,,,,1,001,2024-08-23_15h31.13.642,IAT(Formal),2021.2.3,Win32,60.60606061,,,,,,,,,,,,,,,i,1,0.678,0,67,67,39,1,冒失,i,,,,,,,,,,,,,,,,,,,,,,,,,,,,,,,,,,,,,,,,,
,,,,,,,,,,,,,,1,001,2024-08-23_15h31.13.642,IAT(Formal),2021.2.3,Win32,60.60606061,,,,,,,,,,,,,,,e,1,0.5241,0,68,68,60,1,我,e,,,,,,,,,,,,,,,,,,,,,,,,,,,,,,,,,,,,,,,,,
,,,,,,,,,,,,,,1,001,2024-08-23_15h31.13.642,IAT(Formal),2021.2.3,Win32,60.60606061,,,,,,,,,,,,,,,i,1,0.4174,0,69,69,75,1,他,i,,,,,,,,,,,,,,,,,,,,,,,,,,,,,,,,,,,,,,,,,
,,,,,,,,,,,,,,1,001,2024-08-23_15h31.13.642,IAT(Formal),2021.2.3,Win32,60.60606061,,,,,,,,,,,,,,,e,1,0.5678,0,70,70,2,1,我们,e,,,,,,,,,,,,,,,,,,,,,,,,,,,,,,,,,,,,,,,,,
,,,,,,,,,,,,,,1,001,2024-08-23_15h31.13.642,IAT(Formal),2021.2.3,Win32,60.60606061,,,,,,,,,,,,,,,i,1,0.6009,0,71,71,65,1,他,i,,,,,,,,,,,,,,,,,,,,,,,,,,,,,,,,,,,,,,,,,
,,,,,,,,,,,,,,1,001,2024-08-23_15h31.13.642,IAT(Formal),2021.2.3,Win32,60.60606061,,,,,,,,,,,,,,,e,1,0.9867,0,72,72,19,1,机智,e,,,,,,,,,,,,,,,,,,,,,,,,,,,,,,,,,,,,,,,,,
,,,,,,,,,,,,,,1,001,2024-08-23_15h31.13.642,IAT(Formal),2021.2.3,Win32,60.60606061,,,,,,,,,,,,,,,e,1,0.9186,0,73,73,72,1,我们,e,,,,,,,,,,,,,,,,,,,,,,,,,,,,,,,,,,,,,,,,,
,,,,,,,,,,,,,,1,001,2024-08-23_15h31.13.642,IAT(Formal),2021.2.3,Win32,60.60606061,,,,,,,,,,,,,,,i,1,0.9675,0,74,74,68,1,他人,i,,,,,,,,,,,,,,,,,,,,,,,,,,,,,,,,,,,,,,,,,
,,,,,,,,,,,,,,1,001,2024-08-23_15h31.13.642,IAT(Formal),2021.2.3,Win32,60.60606061,,,,,,,,,,,,,,,e,1,0.9228,0,75,75,13,1,杰出,e,,,,,,,,,,,,,,,,,,,,,,,,,,,,,,,,,,,,,,,,,
,,,,,,,,,,,,,,1,001,2024-08-23_15h31.13.642,IAT(Formal),2021.2.3,Win32,60.60606061,,,,,,,,,,,,,,,i,1,0.6104,0,76,76,69,1,其他,i,,,,,,,,,,,,,,,,,,,,,,,,,,,,,,,,,,,,,,,,,
,,,,,,,,,,,,,,1,001,2024-08-23_15h31.13.642,IAT(Formal),2021.2.3,Win32,60.60606061,,,,,,,,,,,,,,,i,1,1.1364,0,77,77,6,1,他们,i,,,,,,,,,,,,,,,,,,,,,,,,,,,,,,,,,,,,,,,,,
,,,,,,,,,,,,,,1,001,2024-08-23_15h31.13.642,IAT(Formal),2021.2.3,Win32,60.60606061,,,,,,,,,,,,,,,e,1,0.4292,0,78,78,17,1,勇敢,e,,,,,,,,,,,,,,,,,,,,,,,,,,,,,,,,,,,,,,,,,
,,,,,,,,,,,,,,1,001,2024-08-23_15h31.13.642,IAT(Formal),2021.2.3,Win32,60.60606061,,,,,,,,,,,,,,,e,1,0.455,0,79,79,3,1,自己,e,,,,,,,,,,,,,,,,,,,,,,,,,,,,,,,,,,,,,,,,,
,,,,,,,,,,,,,,1,001,2024-08-23_15h31.13.642,IAT(Formal),2021.2.3,Win32,60.60606061,,,,,,,,,,,,,,,e,1,0.6682,,,,,,杰出,e,space,3.6311,0,0,0,13,1,,,,,,,,,,,,,,,,,,,,,,,,,,,,,,,,,,
,,,,,,,,,,,,,,1,001,2024-08-23_15h31.13.642,IAT(Formal),2021.2.3,Win32,60.60606061,,,,,,,,,,,,,,,e,1,0.5451,,,,,,我的,e,,,0,1,1,61,1,,,,,,,,,,,,,,,,,,,,,,,,,,,,,,,,,,
,,,,,,,,,,,,,,1,001,2024-08-23_15h31.13.642,IAT(Formal),2021.2.3,Win32,60.60606061,,,,,,,,,,,,,,,i,1,0.6207,,,,,,其他,i,,,0,2,2,69,1,,,,,,,,,,,,,,,,,,,,,,,,,,,,,,,,,,
,,,,,,,,,,,,,,1,001,2024-08-23_15h31.13.642,IAT(Formal),2021.2.3,Win32,60.60606061,,,,,,,,,,,,,,,e,1,0.6133,,,,,,机智,e,,,0,3,3,19,1,,,,,,,,,,,,,,,,,,,,,,,,,,,,,,,,,,
,,,,,,,,,,,,,,1,001,2024-08-23_15h31.13.642,IAT(Formal),2021.2.3,Win32,60.60606061,,,,,,,,,,,,,,,i,1,0.6299,,,,,,其他,i,,,0,4,4,79,1,,,,,,,,,,,,,,,,,,,,,,,,,,,,,,,,,,
,,,,,,,,,,,,,,1,001,2024-08-23_15h31.13.642,IAT(Formal),2021.2.3,Win32,60.60606061,,,,,,,,,,,,,,,e,1,0.6718,,,,,,勇敢,e,,,0,5,5,17,1,,,,,,,,,,,,,,,,,,,,,,,,,,,,,,,,,,
,,,,,,,,,,,,,,1,001,2024-08-23_15h31.13.642,IAT(Formal),2021.2.3,Win32,60.60606061,,,,,,,,,,,,,,,i,1,0.6156,,,,,,散漫,i,,,0,6,6,41,1,,,,,,,,,,,,,,,,,,,,,,,,,,,,,,,,,,
,,,,,,,,,,,,,,1,001,2024-08-23_15h31.13.642,IAT(Formal),2021.2.3,Win32,60.60606061,,,,,,,,,,,,,,,e,0,0.7448,,,,,,其他,i,,,0,7,7,59,1,,,,,,,,,,,,,,,,,,,,,,,,,,,,,,,,,,
,,,,,,,,,,,,,,1,001,2024-08-23_15h31.13.642,IAT(Formal),2021.2.3,Win32,60.60606061,,,,,,,,,,,,,,,e,1,0.4957,,,,,,我的,e,,,0,8,8,1,1,,,,,,,,,,,,,,,,,,,,,,,,,,,,,,,,,,
,,,,,,,,,,,,,,1,001,2024-08-23_15h31.13.642,IAT(Formal),2021.2.3,Win32,60.60606061,,,,,,,,,,,,,,,i,1,0.8763,,,,,,执拗,i,,,0,9,9,40,1,,,,,,,,,,,,,,,,,,,,,,,,,,,,,,,,,,
,,,,,,,,,,,,,,1,001,2024-08-23_15h31.13.642,IAT(Formal),2021.2.3,Win32,60.60606061,,,,,,,,,,,,,,,e,1,1.2788,,,,,,优秀,e,,,0,10,10,10,1,,,,,,,,,,,,,,,,,,,,,,,,,,,,,,,,,,
,,,,,,,,,,,,,,1,001,2024-08-23_15h31.13.642,IAT(Formal),2021.2.3,Win32,60.60606061,,,,,,,,,,,,,,,e,1,0.6152,,,,,,冷静,e,,,0,11,11,26,1,,,,,,,,,,,,,,,,,,,,,,,,,,,,,,,,,,
,,,,,,,,,,,,,,1,001,2024-08-23_15h31.13.642,IAT(Formal),2021.2.3,Win32,60.60606061,,,,,,,,,,,,,,,e,1,0.6952,,,,,,自己,e,,,0,12,12,73,1,,,,,,,,,,,,,,,,,,,,,,,,,,,,,,,,,,
,,,,,,,,,,,,,,1,001,2024-08-23_15h31.13.642,IAT(Formal),2021.2.3,Win32,60.60606061,,,,,,,,,,,,,,,e,1,0.9257,,,,,,活泼,e,,,0,13,13,28,1,,,,,,,,,,,,,,,,,,,,,,,,,,,,,,,,,,
,,,,,,,,,,,,,,1,001,2024-08-23_15h31.13.642,IAT(Formal),2021.2.3,Win32,60.60606061,,,,,,,,,,,,,,,,0,,,,,,,他,i,,,0,14,14,75,1,,,,,,,,,,,,,,,,,,,,,,,,,,,,,,,,,,
,,,,,,,,,,,,,,1,001,2024-08-23_15h31.13.642,IAT(Formal),2021.2.3,Win32,60.60606061,,,,,,,,,,,,,,,e,1,0.5735,,,,,,我,e,,,0,15,15,50,1,,,,,,,,,,,,,,,,,,,,,,,,,,,,,,,,,,
,,,,,,,,,,,,,,1,001,2024-08-23_15h31.13.642,IAT(Formal),2021.2.3,Win32,60.60606061,,,,,,,,,,,,,,,e,1,0.4863,,,,,,勤奋,e,,,0,16,16,18,1,,,,,,,,,,,,,,,,,,,,,,,,,,,,,,,,,,
,,,,,,,,,,,,,,1,001,2024-08-23_15h31.13.642,IAT(Formal),2021.2.3,Win32,60.60606061,,,,,,,,,,,,,,,e,1,0.4467,,,,,,我们,e,,,0,17,17,2,1,,,,,,,,,,,,,,,,,,,,,,,,,,,,,,,,,,
,,,,,,,,,,,,,,1,001,2024-08-23_15h31.13.642,IAT(Formal),2021.2.3,Win32,60.60606061,,,,,,,,,,,,,,,i,1,0.5964,,,,,,其他,i,,,0,18,18,9,1,,,,,,,,,,,,,,,,,,,,,,,,,,,,,,,,,,
,,,,,,,,,,,,,,1,001,2024-08-23_15h31.13.642,IAT(Formal),2021.2.3,Win32,60.60606061,,,,,,,,,,,,,,,i,1,0.5947,,,,,,自卑,i,,,0,19,19,36,1,,,,,,,,,,,,,,,,,,,,,,,,,,,,,,,,,,
,,,,,,,,,,,,,,1,001,2024-08-23_15h31.13.642,IAT(Formal),2021.2.3,Win32,60.60606061,,,,,,,,,,,,,,,i,1,0.6099,,,,,,悲观,i,,,0,20,20,34,1,,,,,,,,,,,,,,,,,,,,,,,,,,,,,,,,,,
,,,,,,,,,,,,,,1,001,2024-08-23_15h31.13.642,IAT(Formal),2021.2.3,Win32,60.60606061,,,,,,,,,,,,,,,e,1,1.1231,,,,,,稳重,e,,,0,21,21,21,1,,,,,,,,,,,,,,,,,,,,,,,,,,,,,,,,,,
,,,,,,,,,,,,,,1,001,2024-08-23_15h31.13.642,IAT(Formal),2021.2.3,Win32,60.60606061,,,,,,,,,,,,,,,e,1,0.5612,,,,,,俺,e,,,0,22,22,54,1,,,,,,,,,,,,,,,,,,,,,,,,,,,,,,,,,,
,,,,,,,,,,,,,,1,001,2024-08-23_15h31.13.642,IAT(Formal),2021.2.3,Win32,60.60606061,,,,,,,,,,,,,,,i,1,0.6836,,,,,,他的,i,,,0,23,23,57,1,,,,,,,,,,,,,,,,,,,,,,,,,,,,,,,,,,
,,,,,,,,,,,,,,1,001,2024-08-23_15h31.13.642,IAT(Formal),2021.2.3,Win32,60.60606061,,,,,,,,,,,,,,,i,1,0.858,,,,,,暴躁,i,,,0,24,24,44,1,,,,,,,,,,,,,,,,,,,,,,,,,,,,,,,,,,
,,,,,,,,,,,,,,1,001,2024-08-23_15h31.13.642,IAT(Formal),2021.2.3,Win32,60.60606061,,,,,,,,,,,,,,,,0,,,,,,,虚伪,i,,,0,25,25,31,1,,,,,,,,,,,,,,,,,,,,,,,,,,,,,,,,,,
,,,,,,,,,,,,,,1,001,2024-08-23_15h31.13.642,IAT(Formal),2021.2.3,Win32,60.60606061,,,,,,,,,,,,,,,e,1,0.635,,,,,,聪明,e,,,0,26,26,12,1,,,,,,,,,,,,,,,,,,,,,,,,,,,,,,,,,,
,,,,,,,,,,,,,,1,001,2024-08-23_15h31.13.642,IAT(Formal),2021.2.3,Win32,60.60606061,,,,,,,,,,,,,,,e,1,0.472,,,,,,我的,e,,,0,27,27,71,1,,,,,,,,,,,,,,,,,,,,,,,,,,,,,,,,,,
,,,,,,,,,,,,,,1,001,2024-08-23_15h31.13.642,IAT(Formal),2021.2.3,Win32,60.60606061,,,,,,,,,,,,,,,i,1,0.5844,,,,,,猖狂,i,,,0,28,28,45,1,,,,,,,,,,,,,,,,,,,,,,,,,,,,,,,,,,
,,,,,,,,,,,,,,1,001,2024-08-23_15h31.13.642,IAT(Formal),2021.2.3,Win32,60.60606061,,,,,,,,,,,,,,,e,1,0.6619,,,,,,崇高,e,,,0,29,29,11,1,,,,,,,,,,,,,,,,,,,,,,,,,,,,,,,,,,
,,,,,,,,,,,,,,1,001,2024-08-23_15h31.13.642,IAT(Formal),2021.2.3,Win32,60.60606061,,,,,,,,,,,,,,,e,1,0.5179,,,,,,我们,e,,,0,30,30,62,1,,,,,,,,,,,,,,,,,,,,,,,,,,,,,,,,,,
,,,,,,,,,,,,,,1,001,2024-08-23_15h31.13.642,IAT(Formal),2021.2.3,Win32,60.60606061,,,,,,,,,,,,,,,i,1,0.5523,,,,,,刻薄,i,,,0,31,31,33,1,,,,,,,,,,,,,,,,,,,,,,,,,,,,,,,,,,
,,,,,,,,,,,,,,1,001,2024-08-23_15h31.13.642,IAT(Formal),2021.2.3,Win32,60.60606061,,,,,,,,,,,,,,,e,1,0.7099,,,,,,朴实,e,,,0,32,32,24,1,,,,,,,,,,,,,,,,,,,,,,,,,,,,,,,,,,
,,,,,,,,,,,,,,1,001,2024-08-23_15h31.13.642,IAT(Formal),2021.2.3,Win32,60.60606061,,,,,,,,,,,,,,,i,1,0.6965,,,,,,下贱,i,,,0,33,33,49,1,,,,,,,,,,,,,,,,,,,,,,,,,,,,,,,,,,
,,,,,,,,,,,,,,1,001,2024-08-23_15h31.13.642,IAT(Formal),2021.2.3,Win32,60.60606061,,,,,,,,,,,,,,,e,1,0.9714,,,,,,诚恳,e,,,0,34,34,29,1,,,,,,,,,,,,,,,,,,,,,,,,,,,,,,,,,,
,,,,,,,,,,,,,,1,001,2024-08-23_15h31.13.642,IAT(Formal),2021.2.3,Win32,60.60606061,,,,,,,,,,,,,,,i,1,1.3366,,,,,,他的,i,,,0,35,35,7,1,,,,,,,,,,,,,,,,,,,,,,,,,,,,,,,,,,
,,,,,,,,,,,,,,1,001,2024-08-23_15h31.13.642,IAT(Formal),2021.2.3,Win32,60.60606061,,,,,,,,,,,,,,,e,1,0.4388,,,,,,我,e,,,0,36,36,60,1,,,,,,,,,,,,,,,,,,,,,,,,,,,,,,,,,,
,,,,,,,,,,,,,,1,001,2024-08-23_15h31.13.642,IAT(Formal),2021.2.3,Win32,60.60606061,,,,,,,,,,,,,,,e,0,0.3625,,,,,,他们,i,,,0,37,37,6,1,,,,,,,,,,,,,,,,,,,,,,,,,,,,,,,,,,
,,,,,,,,,,,,,,1,001,2024-08-23_15h31.13.642,IAT(Formal),2021.2.3,Win32,60.60606061,,,,,,,,,,,,,,,i,1,0.4848,,,,,,他人,i,,,0,38,38,78,1,,,,,,,,,,,,,,,,,,,,,,,,,,,,,,,,,,
,,,,,,,,,,,,,,1,001,2024-08-23_15h31.13.642,IAT(Formal),2021.2.3,Win32,60.60606061,,,,,,,,,,,,,,,e,1,0.5341,,,,,,我们,e,,,0,39,39,72,1,,,,,,,,,,,,,,,,,,,,,,,,,,,,,,,,,,
,,,,,,,,,,,,,,1,001,2024-08-23_15h31.13.642,IAT(Formal),2021.2.3,Win32,60.60606061,,,,,,,,,,,,,,,e,1,0.9278,,,,,,我,e,,,0,40,40,0,1,,,,,,,,,,,,,,,,,,,,,,,,,,,,,,,,,,
,,,,,,,,,,,,,,1,001,2024-08-23_15h31.13.642,IAT(Formal),2021.2.3,Win32,60.60606061,,,,,,,,,,,,,,,i,1,0.6912,,,,,,固执,i,,,0,41,41,47,1,,,,,,,,,,,,,,,,,,,,,,,,,,,,,,,,,,
,,,,,,,,,,,,,,1,001,2024-08-23_15h31.13.642,IAT(Formal),2021.2.3,Win32,60.60606061,,,,,,,,,,,,,,,e,1,0.6517,,,,,,认真,e,,,0,42,42,20,1,,,,,,,,,,,,,,,,,,,,,,,,,,,,,,,,,,
,,,,,,,,,,,,,,1,001,2024-08-23_15h31.13.642,IAT(Formal),2021.2.3,Win32,60.60606061,,,,,,,,,,,,,,,e,1,0.5853,,,,,,自己,e,,,0,43,43,3,1,,,,,,,,,,,,,,,,,,,,,,,,,,,,,,,,,,
,,,,,,,,,,,,,,1,001,2024-08-23_15h31.13.642,IAT(Formal),2021.2.3,Win32,60.60606061,,,,,,,,,,,,,,,i,1,0.5375,,,,,,他,i,,,0,44,44,55,1,,,,,,,,,,,,,,,,,,,,,,,,,,,,,,,,,,
,,,,,,,,,,,,,,1,001,2024-08-23_15h31.13.642,IAT(Formal),2021.2.3,Win32,60.60606061,,,,,,,,,,,,,,,e,0,1.4027,,,,,,鲁莽,i,,,0,45,45,38,1,,,,,,,,,,,,,,,,,,,,,,,,,,,,,,,,,,
,,,,,,,,,,,,,,1,001,2024-08-23_15h31.13.642,IAT(Formal),2021.2.3,Win32,60.60606061,,,,,,,,,,,,,,,e,0,0.5107,,,,,,他们,i,,,0,46,46,76,1,,,,,,,,,,,,,,,,,,,,,,,,,,,,,,,,,,
,,,,,,,,,,,,,,1,001,2024-08-23_15h31.13.642,IAT(Formal),2021.2.3,Win32,60.60606061,,,,,,,,,,,,,,,i,1,0.4633,,,,,,他的,i,,,0,47,47,77,1,,,,,,,,,,,,,,,,,,,,,,,,,,,,,,,,,,
,,,,,,,,,,,,,,1,001,2024-08-23_15h31.13.642,IAT(Formal),2021.2.3,Win32,60.60606061,,,,,,,,,,,,,,,i,1,0.3854,,,,,,凶狠,i,,,0,48,48,42,1,,,,,,,,,,,,,,,,,,,,,,,,,,,,,,,,,,
,,,,,,,,,,,,,,1,001,2024-08-23_15h31.13.642,IAT(Formal),2021.2.3,Win32,60.60606061,,,,,,,,,,,,,,,i,1,0.4088,,,,,,冒失,i,,,0,49,49,39,1,,,,,,,,,,,,,,,,,,,,,,,,,,,,,,,,,,
,,,,,,,,,,,,,,1,001,2024-08-23_15h31.13.642,IAT(Formal),2021.2.3,Win32,60.60606061,,,,,,,,,,,,,,,i,1,0.472,,,,,,他们,i,,,0,50,50,66,1,,,,,,,,,,,,,,,,,,,,,,,,,,,,,,,,,,
,,,,,,,,,,,,,,1,001,2024-08-23_15h31.13.642,IAT(Formal),2021.2.3,Win32,60.60606061,,,,,,,,,,,,,,,i,1,0.501,,,,,,愚蠢,i,,,0,51,51,32,1,,,,,,,,,,,,,,,,,,,,,,,,,,,,,,,,,,
,,,,,,,,,,,,,,1,001,2024-08-23_15h31.13.642,IAT(Formal),2021.2.3,Win32,60.60606061,,,,,,,,,,,,,,,e,1,0.595,,,,,,俺,e,,,0,52,52,64,1,,,,,,,,,,,,,,,,,,,,,,,,,,,,,,,,,,
,,,,,,,,,,,,,,1,001,2024-08-23_15h31.13.642,IAT(Formal),2021.2.3,Win32,60.60606061,,,,,,,,,,,,,,,i,1,0.5525,,,,,,卑鄙,i,,,0,53,53,30,1,,,,,,,,,,,,,,,,,,,,,,,,,,,,,,,,,,
,,,,,,,,,,,,,,1,001,2024-08-23_15h31.13.642,IAT(Formal),2021.2.3,Win32,60.60606061,,,,,,,,,,,,,,,e,1,0.5397,,,,,,自己,e,,,0,54,54,53,1,,,,,,,,,,,,,,,,,,,,,,,,,,,,,,,,,,
,,,,,,,,,,,,,,1,001,2024-08-23_15h31.13.642,IAT(Formal),2021.2.3,Win32,60.60606061,,,,,,,,,,,,,,,e,1,0.5013,,,,,,俺,e,,,0,55,55,4,1,,,,,,,,,,,,,,,,,,,,,,,,,,,,,,,,,,
,,,,,,,,,,,,,,1,001,2024-08-23_15h31.13.642,IAT(Formal),2021.2.3,Win32,60.60606061,,,,,,,,,,,,,,,i,0,0.5725,,,,,,无私,e,,,0,56,56,22,1,,,,,,,,,,,,,,,,,,,,,,,,,,,,,,,,,,
,,,,,,,,,,,,,,1,001,2024-08-23_15h31.13.642,IAT(Formal),2021.2.3,Win32,60.60606061,,,,,,,,,,,,,,,i,1,0.9531,,,,,,他人,i,,,0,57,57,8,1,,,,,,,,,,,,,,,,,,,,,,,,,,,,,,,,,,
,,,,,,,,,,,,,,1,001,2024-08-23_15h31.13.642,IAT(Formal),2021.2.3,Win32,60.60606061,,,,,,,,,,,,,,,e,1,0.7177,,,,,,我的,e,,,0,58,58,51,1,,,,,,,,,,,,,,,,,,,,,,,,,,,,,,,,,,
,,,,,,,,,,,,,,1,001,2024-08-23_15h31.13.642,IAT(Formal),2021.2.3,Win32,60.60606061,,,,,,,,,,,,,,,,0,,,,,,,轻率,i,,,0,59,59,48,1,,,,,,,,,,,,,,,,,,,,,,,,,,,,,,,,,,
,,,,,,,,,,,,,,1,001,2024-08-23_15h31.13.642,IAT(Formal),2021.2.3,Win32,60.60606061,,,,,,,,,,,,,,,i,1,0.5592,,,,,,他人,i,,,0,60,60,68,1,,,,,,,,,,,,,,,,,,,,,,,,,,,,,,,,,,
,,,,,,,,,,,,,,1,001,2024-08-23_15h31.13.642,IAT(Formal),2021.2.3,Win32,60.60606061,,,,,,,,,,,,,,,e,1,0.6701,,,,,,乐观,e,,,0,61,61,14,1,,,,,,,,,,,,,,,,,,,,,,,,,,,,,,,,,,
,,,,,,,,,,,,,,1,001,2024-08-23_15h31.13.642,IAT(Formal),2021.2.3,Win32,60.60606061,,,,,,,,,,,,,,,e,1,0.5839,,,,,,正直,e,,,0,62,62,16,1,,,,,,,,,,,,,,,,,,,,,,,,,,,,,,,,,,
,,,,,,,,,,,,,,1,001,2024-08-23_15h31.13.642,IAT(Formal),2021.2.3,Win32,60.60606061,,,,,,,,,,,,,,,e,1,0.4097,,,,,,我们,e,,,0,63,63,52,1,,,,,,,,,,,,,,,,,,,,,,,,,,,,,,,,,,
,,,,,,,,,,,,,,1,001,2024-08-23_15h31.13.642,IAT(Formal),2021.2.3,Win32,60.60606061,,,,,,,,,,,,,,,i,1,0.8494,,,,,,消极,i,,,0,64,64,35,1,,,,,,,,,,,,,,,,,,,,,,,,,,,,,,,,,,
,,,,,,,,,,,,,,1,001,2024-08-23_15h31.13.642,IAT(Formal),2021.2.3,Win32,60.60606061,,,,,,,,,,,,,,,e,1,0.6246,,,,,,热情,e,,,0,65,65,27,1,,,,,,,,,,,,,,,,,,,,,,,,,,,,,,,,,,
,,,,,,,,,,,,,,1,001,2024-08-23_15h31.13.642,IAT(Formal),2021.2.3,Win32,60.60606061,,,,,,,,,,,,,,,e,1,0.657,,,,,,俺,e,,,0,66,66,74,1,,,,,,,,,,,,,,,,,,,,,,,,,,,,,,,,,,
,,,,,,,,,,,,,,1,001,2024-08-23_15h31.13.642,IAT(Formal),2021.2.3,Win32,60.60606061,,,,,,,,,,,,,,,e,1,0.8851,,,,,,诚实,e,,,0,67,67,15,1,,,,,,,,,,,,,,,,,,,,,,,,,,,,,,,,,,
,,,,,,,,,,,,,,1,001,2024-08-23_15h31.13.642,IAT(Formal),2021.2.3,Win32,60.60606061,,,,,,,,,,,,,,,i,1,0.8289,,,,,,他,i,,,0,68,68,65,1,,,,,,,,,,,,,,,,,,,,,,,,,,,,,,,,,,
,,,,,,,,,,,,,,1,001,2024-08-23_15h31.13.642,IAT(Formal),2021.2.3,Win32,60.60606061,,,,,,,,,,,,,,,i,1,0.5684,,,,,,他们,i,,,0,69,69,56,1,,,,,,,,,,,,,,,,,,,,,,,,,,,,,,,,,,
,,,,,,,,,,,,,,1,001,2024-08-23_15h31.13.642,IAT(Formal),2021.2.3,Win32,60.60606061,,,,,,,,,,,,,,,i,1,0.5139,,,,,,他人,i,,,0,70,70,58,1,,,,,,,,,,,,,,,,,,,,,,,,,,,,,,,,,,
,,,,,,,,,,,,,,1,001,2024-08-23_15h31.13.642,IAT(Formal),2021.2.3,Win32,60.60606061,,,,,,,,,,,,,,,e,1,0.8672,,,,,,细腻,e,,,0,71,71,25,1,,,,,,,,,,,,,,,,,,,,,,,,,,,,,,,,,,
,,,,,,,,,,,,,,1,001,2024-08-23_15h31.13.642,IAT(Formal),2021.2.3,Win32,60.60606061,,,,,,,,,,,,,,,e,1,0.507,,,,,,公正,e,,,0,72,72,23,1,,,,,,,,,,,,,,,,,,,,,,,,,,,,,,,,,,
,,,,,,,,,,,,,,1,001,2024-08-23_15h31.13.642,IAT(Formal),2021.2.3,Win32,60.60606061,,,,,,,,,,,,,,,i,1,0.9349,,,,,,傲慢,i,,,0,73,73,37,1,,,,,,,,,,,,,,,,,,,,,,,,,,,,,,,,,,
,,,,,,,,,,,,,,1,001,2024-08-23_15h31.13.642,IAT(Formal),2021.2.3,Win32,60.60606061,,,,,,,,,,,,,,,e,1,1.0946,,,,,,我,e,,,0,74,74,70,1,,,,,,,,,,,,,,,,,,,,,,,,,,,,,,,,,,
,,,,,,,,,,,,,,1,001,2024-08-23_15h31.13.642,IAT(Formal),2021.2.3,Win32,60.60606061,,,,,,,,,,,,,,,e,1,0.5464,,,,,,自己,e,,,0,75,75,63,1,,,,,,,,,,,,,,,,,,,,,,,,,,,,,,,,,,
,,,,,,,,,,,,,,1,001,2024-08-23_15h31.13.642,IAT(Formal),2021.2.3,Win32,60.60606061,,,,,,,,,,,,,,,,0,,,,,,,他的,i,,,0,76,76,67,1,,,,,,,,,,,,,,,,,,,,,,,,,,,,,,,,,,
,,,,,,,,,,,,,,1,001,2024-08-23_15h31.13.642,IAT(Formal),2021.2.3,Win32,60.60606061,,,,,,,,,,,,,,,e,0,0.4507,,,,,,他,i,,,0,77,77,5,1,,,,,,,,,,,,,,,,,,,,,,,,,,,,,,,,,,
,,,,,,,,,,,,,,1,001,2024-08-23_15h31.13.642,IAT(Formal),2021.2.3,Win32,60.60606061,,,,,,,,,,,,,,,i,1,0.5523,,,,,,野蛮,i,,,0,78,78,46,1,,,,,,,,,,,,,,,,,,,,,,,,,,,,,,,,,,
,,,,,,,,,,,,,,1,001,2024-08-23_15h31.13.642,IAT(Formal),2021.2.3,Win32,60.60606061,,,,,,,,,,,,,,,i,1,0.4535,,,,,,自私,i,,,0,79,79,43,1,,,,,,,,,,,,,,,,,,,,,,,,,,,,,,,,,,
,,,,,,,,,,,,,,1,001,2024-08-23_15h31.13.642,IAT(Formal),2021.2.3,Win32,60.60606061,,,,,,,,,,,,,,,i,1,0.7703,,,,,,他,i,,,1,0,80,75,1,,,,,,,,,,,,,,,,,,,,,,,,,,,,,,,,,,
,,,,,,,,,,,,,,1,001,2024-08-23_15h31.13.642,IAT(Formal),2021.2.3,Win32,60.60606061,,,,,,,,,,,,,,,e,1,0.5715,,,,,,俺,e,,,1,1,81,4,1,,,,,,,,,,,,,,,,,,,,,,,,,,,,,,,,,,
,,,,,,,,,,,,,,1,001,2024-08-23_15h31.13.642,IAT(Formal),2021.2.3,Win32,60.60606061,,,,,,,,,,,,,,,e,1,0.4179,,,,,,自己,e,,,1,2,82,3,1,,,,,,,,,,,,,,,,,,,,,,,,,,,,,,,,,,
,,,,,,,,,,,,,,1,001,2024-08-23_15h31.13.642,IAT(Formal),2021.2.3,Win32,60.60606061,,,,,,,,,,,,,,,e,0,0.4174,,,,,,自私,i,,,1,3,83,43,1,,,,,,,,,,,,,,,,,,,,,,,,,,,,,,,,,,
,,,,,,,,,,,,,,1,001,2024-08-23_15h31.13.642,IAT(Formal),2021.2.3,Win32,60.60606061,,,,,,,,,,,,,,,i,1,0.6639,,,,,,其他,i,,,1,4,84,79,1,,,,,,,,,,,,,,,,,,,,,,,,,,,,,,,,,,
,,,,,,,,,,,,,,1,001,2024-08-23_15h31.13.642,IAT(Formal),2021.2.3,Win32,60.60606061,,,,,,,,,,,,,,,e,1,0.6914,,,,,,优秀,e,,,1,5,85,10,1,,,,,,,,,,,,,,,,,,,,,,,,,,,,,,,,,,
,,,,,,,,,,,,,,1,001,2024-08-23_15h31.13.642,IAT(Formal),2021.2.3,Win32,60.60606061,,,,,,,,,,,,,,,i,1,0.6068,,,,,,悲观,i,,,1,6,86,34,1,,,,,,,,,,,,,,,,,,,,,,,,,,,,,,,,,,
,,,,,,,,,,,,,,1,001,2024-08-23_15h31.13.642,IAT(Formal),2021.2.3,Win32,60.60606061,,,,,,,,,,,,,,,e,1,1.0906,,,,,,诚实,e,,,1,7,87,15,1,,,,,,,,,,,,,,,,,,,,,,,,,,,,,,,,,,
,,,,,,,,,,,,,,1,001,2024-08-23_15h31.13.642,IAT(Formal),2021.2.3,Win32,60.60606061,,,,,,,,,,,,,,,i,1,0.9262,,,,,,他们,i,,,1,8,88,66,1,,,,,,,,,,,,,,,,,,,,,,,,,,,,,,,,,,
,,,,,,,,,,,,,,1,001,2024-08-23_15h31.13.642,IAT(Formal),2021.2.3,Win32,60.60606061,,,,,,,,,,,,,,,,0,,,,,,,稳重,e,,,1,9,89,21,1,,,,,,,,,,,,,,,,,,,,,,,,,,,,,,,,,,
,,,,,,,,,,,,,,1,001,2024-08-23_15h31.13.642,IAT(Formal),2021.2.3,Win32,60.60606061,,,,,,,,,,,,,,,i,1,1.2833,,,,,,鲁莽,i,,,1,10,90,38,1,,,,,,,,,,,,,,,,,,,,,,,,,,,,,,,,,,
,,,,,,,,,,,,,,1,001,2024-08-23_15h31.13.642,IAT(Formal),2021.2.3,Win32,60.60606061,,,,,,,,,,,,,,,i,1,0.5341,,,,,,他的,i,,,1,11,91,77,1,,,,,,,,,,,,,,,,,,,,,,,,,,,,,,,,,,
,,,,,,,,,,,,,,1,001,2024-08-23_15h31.13.642,IAT(Formal),2021.2.3,Win32,60.60606061,,,,,,,,,,,,,,,i,0,0.4689,,,,,,正直,e,,,1,12,92,16,1,,,,,,,,,,,,,,,,,,,,,,,,,,,,,,,,,,
,,,,,,,,,,,,,,1,001,2024-08-23_15h31.13.642,IAT(Formal),2021.2.3,Win32,60.60606061,,,,,,,,,,,,,,,e,1,0.4351,,,,,,自己,e,,,1,13,93,73,1,,,,,,,,,,,,,,,,,,,,,,,,,,,,,,,,,,
,,,,,,,,,,,,,,1,001,2024-08-23_15h31.13.642,IAT(Formal),2021.2.3,Win32,60.60606061,,,,,,,,,,,,,,,e,0,0.5888,,,,,,轻率,i,,,1,14,94,48,1,,,,,,,,,,,,,,,,,,,,,,,,,,,,,,,,,,
,,,,,,,,,,,,,,1,001,2024-08-23_15h31.13.642,IAT(Formal),2021.2.3,Win32,60.60606061,,,,,,,,,,,,,,,i,1,0.5775,,,,,,他的,i,,,1,15,95,67,1,,,,,,,,,,,,,,,,,,,,,,,,,,,,,,,,,,
,,,,,,,,,,,,,,1,001,2024-08-23_15h31.13.642,IAT(Formal),2021.2.3,Win32,60.60606061,,,,,,,,,,,,,,,i,1,0.5229,,,,,,他人,i,,,1,16,96,78,1,,,,,,,,,,,,,,,,,,,,,,,,,,,,,,,,,,
,,,,,,,,,,,,,,1,001,2024-08-23_15h31.13.642,IAT(Formal),2021.2.3,Win32,60.60606061,,,,,,,,,,,,,,,i,1,0.4675,,,,,,其他,i,,,1,17,97,59,1,,,,,,,,,,,,,,,,,,,,,,,,,,,,,,,,,,
,,,,,,,,,,,,,,1,001,2024-08-23_15h31.13.642,IAT(Formal),2021.2.3,Win32,60.60606061,,,,,,,,,,,,,,,e,1,0.6723,,,,,,机智,e,,,1,18,98,19,1,,,,,,,,,,,,,,,,,,,,,,,,,,,,,,,,,,
,,,,,,,,,,,,,,1,001,2024-08-23_15h31.13.642,IAT(Formal),2021.2.3,Win32,60.60606061,,,,,,,,,,,,,,,i,1,0.6503,,,,,,刻薄,i,,,1,19,99,33,1,,,,,,,,,,,,,,,,,,,,,,,,,,,,,,,,,,
,,,,,,,,,,,,,,1,001,2024-08-23_15h31.13.642,IAT(Formal),2021.2.3,Win32,60.60606061,,,,,,,,,,,,,,,e,0,0.8239,,,,,,他们,i,,,1,20,100,56,1,,,,,,,,,,,,,,,,,,,,,,,,,,,,,,,,,,
,,,,,,,,,,,,,,1,001,2024-08-23_15h31.13.642,IAT(Formal),2021.2.3,Win32,60.60606061,,,,,,,,,,,,,,,i,0,1.1859,,,,,,冷静,e,,,1,21,101,26,1,,,,,,,,,,,,,,,,,,,,,,,,,,,,,,,,,,
,,,,,,,,,,,,,,1,001,2024-08-23_15h31.13.642,IAT(Formal),2021.2.3,Win32,60.60606061,,,,,,,,,,,,,,,e,1,0.4218,,,,,,聪明,e,,,1,22,102,12,1,,,,,,,,,,,,,,,,,,,,,,,,,,,,,,,,,,
,,,,,,,,,,,,,,1,001,2024-08-23_15h31.13.642,IAT(Formal),2021.2.3,Win32,60.60606061,,,,,,,,,,,,,,,e,1,0.5674,,,,,,我们,e,,,1,23,103,2,1,,,,,,,,,,,,,,,,,,,,,,,,,,,,,,,,,,
,,,,,,,,,,,,,,1,001,2024-08-23_15h31.13.642,IAT(Formal),2021.2.3,Win32,60.60606061,,,,,,,,,,,,,,,i,1,0.5934,,,,,,他,i,,,1,24,104,55,1,,,,,,,,,,,,,,,,,,,,,,,,,,,,,,,,,,
,,,,,,,,,,,,,,1,001,2024-08-23_15h31.13.642,IAT(Formal),2021.2.3,Win32,60.60606061,,,,,,,,,,,,,,,e,1,0.5172,,,,,,自己,e,,,1,25,105,53,1,,,,,,,,,,,,,,,,,,,,,,,,,,,,,,,,,,
,,,,,,,,,,,,,,1,001,2024-08-23_15h31.13.642,IAT(Formal),2021.2.3,Win32,60.60606061,,,,,,,,,,,,,,,e,0,0.3975,,,,,,他,i,,,1,26,106,65,1,,,,,,,,,,,,,,,,,,,,,,,,,,,,,,,,,,
,,,,,,,,,,,,,,1,001,2024-08-23_15h31.13.642,IAT(Formal),2021.2.3,Win32,60.60606061,,,,,,,,,,,,,,,i,0,0.5095,,,,,,热情,e,,,1,27,107,27,1,,,,,,,,,,,,,,,,,,,,,,,,,,,,,,,,,,
,,,,,,,,,,,,,,1,001,2024-08-23_15h31.13.642,IAT(Formal),2021.2.3,Win32,60.60606061,,,,,,,,,,,,,,,e,1,0.6251,,,,,,崇高,e,,,1,28,108,11,1,,,,,,,,,,,,,,,,,,,,,,,,,,,,,,,,,,
,,,,,,,,,,,,,,1,001,2024-08-23_15h31.13.642,IAT(Formal),2021.2.3,Win32,60.60606061,,,,,,,,,,,,,,,i,1,0.8518,,,,,,固执,i,,,1,29,109,47,1,,,,,,,,,,,,,,,,,,,,,,,,,,,,,,,,,,
,,,,,,,,,,,,,,1,001,2024-08-23_15h31.13.642,IAT(Formal),2021.2.3,Win32,60.60606061,,,,,,,,,,,,,,,e,1,0.7617,,,,,,细腻,e,,,1,30,110,25,1,,,,,,,,,,,,,,,,,,,,,,,,,,,,,,,,,,
,,,,,,,,,,,,,,1,001,2024-08-23_15h31.13.642,IAT(Formal),2021.2.3,Win32,60.60606061,,,,,,,,,,,,,,,e,1,0.4527,,,,,,我的,e,,,1,31,111,1,1,,,,,,,,,,,,,,,,,,,,,,,,,,,,,,,,,,
,,,,,,,,,,,,,,1,001,2024-08-23_15h31.13.642,IAT(Formal),2021.2.3,Win32,60.60606061,,,,,,,,,,,,,,,e,1,0.6609,,,,,,诚恳,e,,,1,32,112,29,1,,,,,,,,,,,,,,,,,,,,,,,,,,,,,,,,,,
,,,,,,,,,,,,,,1,001,2024-08-23_15h31.13.642,IAT(Formal),2021.2.3,Win32,60.60606061,,,,,,,,,,,,,,,i,1,0.5681,,,,,,自卑,i,,,1,33,113,36,1,,,,,,,,,,,,,,,,,,,,,,,,,,,,,,,,,,
,,,,,,,,,,,,,,1,001,2024-08-23_15h31.13.642,IAT(Formal),2021.2.3,Win32,60.60606061,,,,,,,,,,,,,,,i,1,0.4532,,,,,,他的,i,,,1,34,114,7,1,,,,,,,,,,,,,,,,,,,,,,,,,,,,,,,,,,
,,,,,,,,,,,,,,1,001,2024-08-23_15h31.13.642,IAT(Formal),2021.2.3,Win32,60.60606061,,,,,,,,,,,,,,,i,1,0.7207,,,,,,猖狂,i,,,1,35,115,45,1,,,,,,,,,,,,,,,,,,,,,,,,,,,,,,,,,,
,,,,,,,,,,,,,,1,001,2024-08-23_15h31.13.642,IAT(Formal),2021.2.3,Win32,60.60606061,,,,,,,,,,,,,,,e,1,0.5959,,,,,,我们,e,,,1,36,116,52,1,,,,,,,,,,,,,,,,,,,,,,,,,,,,,,,,,,
,,,,,,,,,,,,,,1,001,2024-08-23_15h31.13.642,IAT(Formal),2021.2.3,Win32,60.60606061,,,,,,,,,,,,,,,i,1,0.5194,,,,,,野蛮,i,,,1,37,117,46,1,,,,,,,,,,,,,,,,,,,,,,,,,,,,,,,,,,
,,,,,,,,,,,,,,1,001,2024-08-23_15h31.13.642,IAT(Formal),2021.2.3,Win32,60.60606061,,,,,,,,,,,,,,,e,1,0.5609,,,,,,我,e,,,1,38,118,50,1,,,,,,,,,,,,,,,,,,,,,,,,,,,,,,,,,,
,,,,,,,,,,,,,,1,001,2024-08-23_15h31.13.642,IAT(Formal),2021.2.3,Win32,60.60606061,,,,,,,,,,,,,,,i,1,0.5334,,,,,,他们,i,,,1,39,119,6,1,,,,,,,,,,,,,,,,,,,,,,,,,,,,,,,,,,
,,,,,,,,,,,,,,1,001,2024-08-23_15h31.13.642,IAT(Formal),2021.2.3,Win32,60.60606061,,,,,,,,,,,,,,,i,1,0.7859,,,,,,冒失,i,,,1,40,120,39,1,,,,,,,,,,,,,,,,,,,,,,,,,,,,,,,,,,
,,,,,,,,,,,,,,1,001,2024-08-23_15h31.13.642,IAT(Formal),2021.2.3,Win32,60.60606061,,,,,,,,,,,,,,,e,1,0.5689,,,,,,俺,e,,,1,41,121,64,1,,,,,,,,,,,,,,,,,,,,,,,,,,,,,,,,,,
,,,,,,,,,,,,,,1,001,2024-08-23_15h31.13.642,IAT(Formal),2021.2.3,Win32,60.60606061,,,,,,,,,,,,,,,i,1,0.4998,,,,,,虚伪,i,,,1,42,122,31,1,,,,,,,,,,,,,,,,,,,,,,,,,,,,,,,,,,
,,,,,,,,,,,,,,1,001,2024-08-23_15h31.13.642,IAT(Formal),2021.2.3,Win32,60.60606061,,,,,,,,,,,,,,,i,1,0.5994,,,,,,他的,i,,,1,43,123,57,1,,,,,,,,,,,,,,,,,,,,,,,,,,,,,,,,,,
,,,,,,,,,,,,,,1,001,2024-08-23_15h31.13.642,IAT(Formal),2021.2.3,Win32,60.60606061,,,,,,,,,,,,,,,i,1,0.6064,,,,,,愚蠢,i,,,1,44,124,32,1,,,,,,,,,,,,,,,,,,,,,,,,,,,,,,,,,,
,,,,,,,,,,,,,,1,001,2024-08-23_15h31.13.642,IAT(Formal),2021.2.3,Win32,60.60606061,,,,,,,,,,,,,,,i,1,0.4162,,,,,,下贱,i,,,1,45,125,49,1,,,,,,,,,,,,,,,,,,,,,,,,,,,,,,,,,,
,,,,,,,,,,,,,,1,001,2024-08-23_15h31.13.642,IAT(Formal),2021.2.3,Win32,60.60606061,,,,,,,,,,,,,,,i,0,0.426,,,,,,我的,e,,,1,46,126,61,1,,,,,,,,,,,,,,,,,,,,,,,,,,,,,,,,,,
,,,,,,,,,,,,,,1,001,2024-08-23_15h31.13.642,IAT(Formal),2021.2.3,Win32,60.60606061,,,,,,,,,,,,,,,i,0,0.4951,,,,,,朴实,e,,,1,47,127,24,1,,,,,,,,,,,,,,,,,,,,,,,,,,,,,,,,,,
,,,,,,,,,,,,,,1,001,2024-08-23_15h31.13.642,IAT(Formal),2021.2.3,Win32,60.60606061,,,,,,,,,,,,,,,i,1,0.6042,,,,,,他们,i,,,1,48,128,76,1,,,,,,,,,,,,,,,,,,,,,,,,,,,,,,,,,,
,,,,,,,,,,,,,,1,001,2024-08-23_15h31.13.642,IAT(Formal),2021.2.3,Win32,60.60606061,,,,,,,,,,,,,,,i,1,0.5683,,,,,,执拗,i,,,1,49,129,40,1,,,,,,,,,,,,,,,,,,,,,,,,,,,,,,,,,,
,,,,,,,,,,,,,,1,001,2024-08-23_15h31.13.642,IAT(Formal),2021.2.3,Win32,60.60606061,,,,,,,,,,,,,,,e,1,0.5543,,,,,,我们,e,,,1,50,130,72,1,,,,,,,,,,,,,,,,,,,,,,,,,,,,,,,,,,
,,,,,,,,,,,,,,1,001,2024-08-23_15h31.13.642,IAT(Formal),2021.2.3,Win32,60.60606061,,,,,,,,,,,,,,,i,1,0.5483,,,,,,他人,i,,,1,51,131,68,1,,,,,,,,,,,,,,,,,,,,,,,,,,,,,,,,,,
,,,,,,,,,,,,,,1,001,2024-08-23_15h31.13.642,IAT(Formal),2021.2.3,Win32,60.60606061,,,,,,,,,,,,,,,e,1,0.5854,,,,,,勤奋,e,,,1,52,132,18,1,,,,,,,,,,,,,,,,,,,,,,,,,,,,,,,,,,
,,,,,,,,,,,,,,1,001,2024-08-23_15h31.13.642,IAT(Formal),2021.2.3,Win32,60.60606061,,,,,,,,,,,,,,,e,1,0.6912,,,,,,认真,e,,,1,53,133,20,1,,,,,,,,,,,,,,,,,,,,,,,,,,,,,,,,,,
,,,,,,,,,,,,,,1,001,2024-08-23_15h31.13.642,IAT(Formal),2021.2.3,Win32,60.60606061,,,,,,,,,,,,,,,i,1,0.5736,,,,,,其他,i,,,1,54,134,9,1,,,,,,,,,,,,,,,,,,,,,,,,,,,,,,,,,,
,,,,,,,,,,,,,,1,001,2024-08-23_15h31.13.642,IAT(Formal),2021.2.3,Win32,60.60606061,,,,,,,,,,,,,,,e,1,0.6009,,,,,,俺,e,,,1,55,135,54,1,,,,,,,,,,,,,,,,,,,,,,,,,,,,,,,,,,
,,,,,,,,,,,,,,1,001,2024-08-23_15h31.13.642,IAT(Formal),2021.2.3,Win32,60.60606061,,,,,,,,,,,,,,,e,1,0.9214,,,,,,我的,e,,,1,56,136,51,1,,,,,,,,,,,,,,,,,,,,,,,,,,,,,,,,,,
,,,,,,,,,,,,,,1,001,2024-08-23_15h31.13.642,IAT(Formal),2021.2.3,Win32,60.60606061,,,,,,,,,,,,,,,e,1,0.4213,,,,,,无私,e,,,1,57,137,22,1,,,,,,,,,,,,,,,,,,,,,,,,,,,,,,,,,,
,,,,,,,,,,,,,,1,001,2024-08-23_15h31.13.642,IAT(Formal),2021.2.3,Win32,60.60606061,,,,,,,,,,,,,,,e,0,0.5683,,,,,,散漫,i,,,1,58,138,41,1,,,,,,,,,,,,,,,,,,,,,,,,,,,,,,,,,,
,,,,,,,,,,,,,,1,001,2024-08-23_15h31.13.642,IAT(Formal),2021.2.3,Win32,60.60606061,,,,,,,,,,,,,,,i,1,0.6589,,,,,,傲慢,i,,,1,59,139,37,1,,,,,,,,,,,,,,,,,,,,,,,,,,,,,,,,,,
,,,,,,,,,,,,,,1,001,2024-08-23_15h31.13.642,IAT(Formal),2021.2.3,Win32,60.60606061,,,,,,,,,,,,,,,e,1,0.6393,,,,,,活泼,e,,,1,60,140,28,1,,,,,,,,,,,,,,,,,,,,,,,,,,,,,,,,,,
,,,,,,,,,,,,,,1,001,2024-08-23_15h31.13.642,IAT(Formal),2021.2.3,Win32,60.60606061,,,,,,,,,,,,,,,e,1,0.6571,,,,,,我,e,,,1,61,141,0,1,,,,,,,,,,,,,,,,,,,,,,,,,,,,,,,,,,
,,,,,,,,,,,,,,1,001,2024-08-23_15h31.13.642,IAT(Formal),2021.2.3,Win32,60.60606061,,,,,,,,,,,,,,,e,1,0.8678,,,,,,乐观,e,,,1,62,142,14,1,,,,,,,,,,,,,,,,,,,,,,,,,,,,,,,,,,
,,,,,,,,,,,,,,1,001,2024-08-23_15h31.13.642,IAT(Formal),2021.2.3,Win32,60.60606061,,,,,,,,,,,,,,,i,1,0.6463,,,,,,他,i,,,1,63,143,5,1,,,,,,,,,,,,,,,,,,,,,,,,,,,,,,,,,,
,,,,,,,,,,,,,,1,001,2024-08-23_15h31.13.642,IAT(Formal),2021.2.3,Win32,60.60606061,,,,,,,,,,,,,,,e,1,0.7428,,,,,,公正,e,,,1,64,144,23,1,,,,,,,,,,,,,,,,,,,,,,,,,,,,,,,,,,
,,,,,,,,,,,,,,1,001,2024-08-23_15h31.13.642,IAT(Formal),2021.2.3,Win32,60.60606061,,,,,,,,,,,,,,,e,1,0.5285,,,,,,我们,e,,,1,65,145,62,1,,,,,,,,,,,,,,,,,,,,,,,,,,,,,,,,,,
,,,,,,,,,,,,,,1,001,2024-08-23_15h31.13.642,IAT(Formal),2021.2.3,Win32,60.60606061,,,,,,,,,,,,,,,i,1,0.4191,,,,,,他人,i,,,1,66,146,8,1,,,,,,,,,,,,,,,,,,,,,,,,,,,,,,,,,,
,,,,,,,,,,,,,,1,001,2024-08-23_15h31.13.642,IAT(Formal),2021.2.3,Win32,60.60606061,,,,,,,,,,,,,,,e,1,0.5688,,,,,,俺,e,,,1,67,147,74,1,,,,,,,,,,,,,,,,,,,,,,,,,,,,,,,,,,
,,,,,,,,,,,,,,1,001,2024-08-23_15h31.13.642,IAT(Formal),2021.2.3,Win32,60.60606061,,,,,,,,,,,,,,,e,1,0.4753,,,,,,自己,e,,,1,68,148,63,1,,,,,,,,,,,,,,,,,,,,,,,,,,,,,,,,,,
,,,,,,,,,,,,,,1,001,2024-08-23_15h31.13.642,IAT(Formal),2021.2.3,Win32,60.60606061,,,,,,,,,,,,,,,i,1,0.5674,,,,,,卑鄙,i,,,1,69,149,30,1,,,,,,,,,,,,,,,,,,,,,,,,,,,,,,,,,,
,,,,,,,,,,,,,,1,001,2024-08-23_15h31.13.642,IAT(Formal),2021.2.3,Win32,60.60606061,,,,,,,,,,,,,,,i,1,0.5292,,,,,,消极,i,,,1,70,150,35,1,,,,,,,,,,,,,,,,,,,,,,,,,,,,,,,,,,
,,,,,,,,,,,,,,1,001,2024-08-23_15h31.13.642,IAT(Formal),2021.2.3,Win32,60.60606061,,,,,,,,,,,,,,,i,1,0.4819,,,,,,凶狠,i,,,1,71,151,42,1,,,,,,,,,,,,,,,,,,,,,,,,,,,,,,,,,,
,,,,,,,,,,,,,,1,001,2024-08-23_15h31.13.642,IAT(Formal),2021.2.3,Win32,60.60606061,,,,,,,,,,,,,,,i,1,0.59,,,,,,暴躁,i,,,1,72,152,44,1,,,,,,,,,,,,,,,,,,,,,,,,,,,,,,,,,,
,,,,,,,,,,,,,,1,001,2024-08-23_15h31.13.642,IAT(Formal),2021.2.3,Win32,60.60606061,,,,,,,,,,,,,,,i,0,0.7567,,,,,,我,e,,,1,73,153,70,1,,,,,,,,,,,,,,,,,,,,,,,,,,,,,,,,,,
,,,,,,,,,,,,,,1,001,2024-08-23_15h31.13.642,IAT(Formal),2021.2.3,Win32,60.60606061,,,,,,,,,,,,,,,i,1,0.481,,,,,,他人,i,,,1,74,154,58,1,,,,,,,,,,,,,,,,,,,,,,,,,,,,,,,,,,
,,,,,,,,,,,,,,1,001,2024-08-23_15h31.13.642,IAT(Formal),2021.2.3,Win32,60.60606061,,,,,,,,,,,,,,,e,1,0.5324,,,,,,我,e,,,1,75,155,60,1,,,,,,,,,,,,,,,,,,,,,,,,,,,,,,,,,,
,,,,,,,,,,,,,,1,001,2024-08-23_15h31.13.642,IAT(Formal),2021.2.3,Win32,60.60606061,,,,,,,,,,,,,,,e,1,0.5247,,,,,,我的,e,,,1,76,156,71,1,,,,,,,,,,,,,,,,,,,,,,,,,,,,,,,,,,
,,,,,,,,,,,,,,1,001,2024-08-23_15h31.13.642,IAT(Formal),2021.2.3,Win32,60.60606061,,,,,,,,,,,,,,,i,1,0.6711,,,,,,其他,i,,,1,77,157,69,1,,,,,,,,,,,,,,,,,,,,,,,,,,,,,,,,,,
,,,,,,,,,,,,,,1,001,2024-08-23_15h31.13.642,IAT(Formal),2021.2.3,Win32,60.60606061,,,,,,,,,,,,,,,,0,,,,,,,勇敢,e,,,1,78,158,17,1,,,,,,,,,,,,,,,,,,,,,,,,,,,,,,,,,,
,,,,,,,,,,,,,,1,001,2024-08-23_15h31.13.642,IAT(Formal),2021.2.3,Win32,60.60606061,,,,,,,,,,,,,,,e,1,1.2819,,,,,,杰出,e,,,1,79,159,13,1,,,,,,,,,,,,,,,,,,,,,,,,,,,,,,,,,,
,,,,,,,,,,,,我,i,1,001,2024-08-23_15h31.13.642,IAT(Formal),2021.2.3,Win32,60.60606061,,,,,,,,,,,,,,,,,,,,,,,,,,,,,,,,space,26.6502,i,1,0.8022,0,0,0,0,1,,,,,,,,,,,,,,,,,,,,,,,,
,,,,,,,,,,,,他,e,1,001,2024-08-23_15h31.13.642,IAT(Formal),2021.2.3,Win32,60.60606061,,,,,,,,,,,,,,,,,,,,,,,,,,,,,,,,,,e,1,0.5789,0,1,1,5,1,,,,,,,,,,,,,,,,,,,,,,,,
,,,,,,,,,,,,俺,i,1,001,2024-08-23_15h31.13.642,IAT(Formal),2021.2.3,Win32,60.60606061,,,,,,,,,,,,,,,,,,,,,,,,,,,,,,,,,,i,1,0.5002,0,2,2,4,1,,,,,,,,,,,,,,,,,,,,,,,,
,,,,,,,,,,,,他们,e,1,001,2024-08-23_15h31.13.642,IAT(Formal),2021.2.3,Win32,60.60606061,,,,,,,,,,,,,,,,,,,,,,,,,,,,,,,,,,e,1,0.7173,0,3,3,6,1,,,,,,,,,,,,,,,,,,,,,,,,
,,,,,,,,,,,,他的,e,1,001,2024-08-23_15h31.13.642,IAT(Formal),2021.2.3,Win32,60.60606061,,,,,,,,,,,,,,,,,,,,,,,,,,,,,,,,,,e,1,0.4505,0,4,4,7,1,,,,,,,,,,,,,,,,,,,,,,,,
,,,,,,,,,,,,我的,i,1,001,2024-08-23_15h31.13.642,IAT(Formal),2021.2.3,Win32,60.60606061,,,,,,,,,,,,,,,,,,,,,,,,,,,,,,,,,,i,1,0.5092,0,5,5,1,1,,,,,,,,,,,,,,,,,,,,,,,,
,,,,,,,,,,,,他人,e,1,001,2024-08-23_15h31.13.642,IAT(Formal),2021.2.3,Win32,60.60606061,,,,,,,,,,,,,,,,,,,,,,,,,,,,,,,,,,i,0,0.6176,0,6,6,8,1,,,,,,,,,,,,,,,,,,,,,,,,
,,,,,,,,,,,,我们,i,1,001,2024-08-23_15h31.13.642,IAT(Formal),2021.2.3,Win32,60.60606061,,,,,,,,,,,,,,,,,,,,,,,,,,,,,,,,,,i,1,0.8889,0,7,7,2,1,,,,,,,,,,,,,,,,,,,,,,,,
,,,,,,,,,,,,自己,i,1,001,2024-08-23_15h31.13.642,IAT(Formal),2021.2.3,Win32,60.60606061,,,,,,,,,,,,,,,,,,,,,,,,,,,,,,,,,,i,1,0.6791,0,8,8,3,1,,,,,,,,,,,,,,,,,,,,,,,,
,,,,,,,,,,,,其他,e,1,001,2024-08-23_15h31.13.642,IAT(Formal),2021.2.3,Win32,60.60606061,,,,,,,,,,,,,,,,,,,,,,,,,,,,,,,,,,e,1,0.577,0,9,9,9,1,,,,,,,,,,,,,,,,,,,,,,,,
,,,,,,,,,,,,,,1,001,2024-08-23_15h31.13.642,IAT(Formal),2021.2.3,Win32,60.60606061,,,,,,,,,,,,,,,,,,,,,,,,,,,,,,,,,,,,,,,,,,space,9.0763,e,0,1.0671,0,0,0,63,1,自己,i,,,,,,,,,,,,
,,,,,,,,,,,,,,1,001,2024-08-23_15h31.13.642,IAT(Formal),2021.2.3,Win32,60.60606061,,,,,,,,,,,,,,,,,,,,,,,,,,,,,,,,,,,,,,,,,,,,e,1,1.0315,0,1,1,9,1,其他,e,,,,,,,,,,,,
,,,,,,,,,,,,,,1,001,2024-08-23_15h31.13.642,IAT(Formal),2021.2.3,Win32,60.60606061,,,,,,,,,,,,,,,,,,,,,,,,,,,,,,,,,,,,,,,,,,,,e,1,1.0673,0,2,2,55,1,他,e,,,,,,,,,,,,
,,,,,,,,,,,,,,1,001,2024-08-23_15h31.13.642,IAT(Formal),2021.2.3,Win32,60.60606061,,,,,,,,,,,,,,,,,,,,,,,,,,,,,,,,,,,,,,,,,,,,i,1,0.5573,0,3,3,3,1,自己,i,,,,,,,,,,,,
,,,,,,,,,,,,,,1,001,2024-08-23_15h31.13.642,IAT(Formal),2021.2.3,Win32,60.60606061,,,,,,,,,,,,,,,,,,,,,,,,,,,,,,,,,,,,,,,,,,,,e,0,0.9949,0,4,4,39,1,冒失,i,,,,,,,,,,,,
,,,,,,,,,,,,,,1,001,2024-08-23_15h31.13.642,IAT(Formal),2021.2.3,Win32,60.60606061,,,,,,,,,,,,,,,,,,,,,,,,,,,,,,,,,,,,,,,,,,,,i,0,1.2211,0,5,5,77,1,他的,e,,,,,,,,,,,,
,,,,,,,,,,,,,,1,001,2024-08-23_15h31.13.642,IAT(Formal),2021.2.3,Win32,60.60606061,,,,,,,,,,,,,,,,,,,,,,,,,,,,,,,,,,,,,,,,,,,,i,1,1.0048,0,6,6,61,1,我的,i,,,,,,,,,,,,
,,,,,,,,,,,,,,1,001,2024-08-23_15h31.13.642,IAT(Formal),2021.2.3,Win32,60.60606061,,,,,,,,,,,,,,,,,,,,,,,,,,,,,,,,,,,,,,,,,,,,e,1,0.7711,0,7,7,19,1,机智,e,,,,,,,,,,,,
,,,,,,,,,,,,,,1,001,2024-08-23_15h31.13.642,IAT(Formal),2021.2.3,Win32,60.60606061,,,,,,,,,,,,,,,,,,,,,,,,,,,,,,,,,,,,,,,,,,,,i,1,1.0067,0,8,8,64,1,俺,i,,,,,,,,,,,,
,,,,,,,,,,,,,,1,001,2024-08-23_15h31.13.642,IAT(Formal),2021.2.3,Win32,60.60606061,,,,,,,,,,,,,,,,,,,,,,,,,,,,,,,,,,,,,,,,,,,,i,0,0.948,0,9,9,79,1,其他,e,,,,,,,,,,,,
,,,,,,,,,,,,,,1,001,2024-08-23_15h31.13.642,IAT(Formal),2021.2.3,Win32,60.60606061,,,,,,,,,,,,,,,,,,,,,,,,,,,,,,,,,,,,,,,,,,,,e,1,0.8866,0,10,10,28,1,活泼,e,,,,,,,,,,,,
,,,,,,,,,,,,,,1,001,2024-08-23_15h31.13.642,IAT(Formal),2021.2.3,Win32,60.60606061,,,,,,,,,,,,,,,,,,,,,,,,,,,,,,,,,,,,,,,,,,,,i,1,0.8266,0,11,11,1,1,我的,i,,,,,,,,,,,,
,,,,,,,,,,,,,,1,001,2024-08-23_15h31.13.642,IAT(Formal),2021.2.3,Win32,60.60606061,,,,,,,,,,,,,,,,,,,,,,,,,,,,,,,,,,,,,,,,,,,,e,1,0.4234,0,12,12,56,1,他们,e,,,,,,,,,,,,
,,,,,,,,,,,,,,1,001,2024-08-23_15h31.13.642,IAT(Formal),2021.2.3,Win32,60.60606061,,,,,,,,,,,,,,,,,,,,,,,,,,,,,,,,,,,,,,,,,,,,i,1,0.7069,0,13,13,54,1,俺,i,,,,,,,,,,,,
,,,,,,,,,,,,,,1,001,2024-08-23_15h31.13.642,IAT(Formal),2021.2.3,Win32,60.60606061,,,,,,,,,,,,,,,,,,,,,,,,,,,,,,,,,,,,,,,,,,,,i,0,1.1337,0,14,14,18,1,勤奋,e,,,,,,,,,,,,
,,,,,,,,,,,,,,1,001,2024-08-23_15h31.13.642,IAT(Formal),2021.2.3,Win32,60.60606061,,,,,,,,,,,,,,,,,,,,,,,,,,,,,,,,,,,,,,,,,,,,e,1,0.701,0,15,15,20,1,认真,e,,,,,,,,,,,,
,,,,,,,,,,,,,,1,001,2024-08-23_15h31.13.642,IAT(Formal),2021.2.3,Win32,60.60606061,,,,,,,,,,,,,,,,,,,,,,,,,,,,,,,,,,,,,,,,,,,,e,1,0.4174,0,16,16,6,1,他们,e,,,,,,,,,,,,
,,,,,,,,,,,,,,1,001,2024-08-23_15h31.13.642,IAT(Formal),2021.2.3,Win32,60.60606061,,,,,,,,,,,,,,,,,,,,,,,,,,,,,,,,,,,,,,,,,,,,i,1,0.6878,0,17,17,60,1,我,i,,,,,,,,,,,,
,,,,,,,,,,,,,,1,001,2024-08-23_15h31.13.642,IAT(Formal),2021.2.3,Win32,60.60606061,,,,,,,,,,,,,,,,,,,,,,,,,,,,,,,,,,,,,,,,,,,,e,1,0.7009,0,18,18,75,1,他,e,,,,,,,,,,,,
,,,,,,,,,,,,,,1,001,2024-08-23_15h31.13.642,IAT(Formal),2021.2.3,Win32,60.60606061,,,,,,,,,,,,,,,,,,,,,,,,,,,,,,,,,,,,,,,,,,,,i,1,0.6591,0,19,19,70,1,我,i,,,,,,,,,,,,
,,,,,,,,,,,,,,1,001,2024-08-23_15h31.13.642,IAT(Formal),2021.2.3,Win32,60.60606061,,,,,,,,,,,,,,,,,,,,,,,,,,,,,,,,,,,,,,,,,,,,e,1,0.6171,0,20,20,7,1,他的,e,,,,,,,,,,,,
,,,,,,,,,,,,,,1,001,2024-08-23_15h31.13.642,IAT(Formal),2021.2.3,Win32,60.60606061,,,,,,,,,,,,,,,,,,,,,,,,,,,,,,,,,,,,,,,,,,,,e,1,1.0843,0,21,21,26,1,冷静,e,,,,,,,,,,,,
,,,,,,,,,,,,,,1,001,2024-08-23_15h31.13.642,IAT(Formal),2021.2.3,Win32,60.60606061,,,,,,,,,,,,,,,,,,,,,,,,,,,,,,,,,,,,,,,,,,,,i,1,0.5793,0,22,22,73,1,自己,i,,,,,,,,,,,,
,,,,,,,,,,,,,,1,001,2024-08-23_15h31.13.642,IAT(Formal),2021.2.3,Win32,60.60606061,,,,,,,,,,,,,,,,,,,,,,,,,,,,,,,,,,,,,,,,,,,,e,1,0.7756,0,23,23,5,1,他,e,,,,,,,,,,,,
,,,,,,,,,,,,,,1,001,2024-08-23_15h31.13.642,IAT(Formal),2021.2.3,Win32,60.60606061,,,,,,,,,,,,,,,,,,,,,,,,,,,,,,,,,,,,,,,,,,,,e,1,0.791,0,24,24,57,1,他的,e,,,,,,,,,,,,
,,,,,,,,,,,,,,1,001,2024-08-23_15h31.13.642,IAT(Formal),2021.2.3,Win32,60.60606061,,,,,,,,,,,,,,,,,,,,,,,,,,,,,,,,,,,,,,,,,,,,e,0,0.6348,0,25,25,35,1,消极,i,,,,,,,,,,,,
,,,,,,,,,,,,,,1,001,2024-08-23_15h31.13.642,IAT(Formal),2021.2.3,Win32,60.60606061,,,,,,,,,,,,,,,,,,,,,,,,,,,,,,,,,,,,,,,,,,,,i,1,0.9569,0,26,26,71,1,我的,i,,,,,,,,,,,,
,,,,,,,,,,,,,,1,001,2024-08-23_15h31.13.642,IAT(Formal),2021.2.3,Win32,60.60606061,,,,,,,,,,,,,,,,,,,,,,,,,,,,,,,,,,,,,,,,,,,,e,1,1.1495,0,27,27,27,1,热情,e,,,,,,,,,,,,
,,,,,,,,,,,,,,1,001,2024-08-23_15h31.13.642,IAT(Formal),2021.2.3,Win32,60.60606061,,,,,,,,,,,,,,,,,,,,,,,,,,,,,,,,,,,,,,,,,,,,e,1,0.6012,0,28,28,25,1,细腻,e,,,,,,,,,,,,
,,,,,,,,,,,,,,1,001,2024-08-23_15h31.13.642,IAT(Formal),2021.2.3,Win32,60.60606061,,,,,,,,,,,,,,,,,,,,,,,,,,,,,,,,,,,,,,,,,,,,i,1,0.4858,0,29,29,36,1,自卑,i,,,,,,,,,,,,
,,,,,,,,,,,,,,1,001,2024-08-23_15h31.13.642,IAT(Formal),2021.2.3,Win32,60.60606061,,,,,,,,,,,,,,,,,,,,,,,,,,,,,,,,,,,,,,,,,,,,i,1,0.6068,0,30,30,41,1,散漫,i,,,,,,,,,,,,
,,,,,,,,,,,,,,1,001,2024-08-23_15h31.13.642,IAT(Formal),2021.2.3,Win32,60.60606061,,,,,,,,,,,,,,,,,,,,,,,,,,,,,,,,,,,,,,,,,,,,i,0,0.8025,0,31,31,16,1,正直,e,,,,,,,,,,,,
,,,,,,,,,,,,,,1,001,2024-08-23_15h31.13.642,IAT(Formal),2021.2.3,Win32,60.60606061,,,,,,,,,,,,,,,,,,,,,,,,,,,,,,,,,,,,,,,,,,,,i,1,0.7447,0,32,32,74,1,俺,i,,,,,,,,,,,,
,,,,,,,,,,,,,,1,001,2024-08-23_15h31.13.642,IAT(Formal),2021.2.3,Win32,60.60606061,,,,,,,,,,,,,,,,,,,,,,,,,,,,,,,,,,,,,,,,,,,,e,1,0.6192,0,33,33,58,1,他人,e,,,,,,,,,,,,
,,,,,,,,,,,,,,1,001,2024-08-23_15h31.13.642,IAT(Formal),2021.2.3,Win32,60.60606061,,,,,,,,,,,,,,,,,,,,,,,,,,,,,,,,,,,,,,,,,,,,i,1,0.8876,0,34,34,46,1,野蛮,i,,,,,,,,,,,,
,,,,,,,,,,,,,,1,001,2024-08-23_15h31.13.642,IAT(Formal),2021.2.3,Win32,60.60606061,,,,,,,,,,,,,,,,,,,,,,,,,,,,,,,,,,,,,,,,,,,,i,1,0.6773,0,35,35,45,1,猖狂,i,,,,,,,,,,,,
,,,,,,,,,,,,,,1,001,2024-08-23_15h31.13.642,IAT(Formal),2021.2.3,Win32,60.60606061,,,,,,,,,,,,,,,,,,,,,,,,,,,,,,,,,,,,,,,,,,,,e,0,1.0405,0,36,36,62,1,我们,i,,,,,,,,,,,,
,,,,,,,,,,,,,,1,001,2024-08-23_15h31.13.642,IAT(Formal),2021.2.3,Win32,60.60606061,,,,,,,,,,,,,,,,,,,,,,,,,,,,,,,,,,,,,,,,,,,,e,0,0.8878,0,37,37,34,1,悲观,i,,,,,,,,,,,,
,,,,,,,,,,,,,,1,001,2024-08-23_15h31.13.642,IAT(Formal),2021.2.3,Win32,60.60606061,,,,,,,,,,,,,,,,,,,,,,,,,,,,,,,,,,,,,,,,,,,,e,1,0.7214,0,38,38,10,1,优秀,e,,,,,,,,,,,,
,,,,,,,,,,,,,,1,001,2024-08-23_15h31.13.642,IAT(Formal),2021.2.3,Win32,60.60606061,,,,,,,,,,,,,,,,,,,,,,,,,,,,,,,,,,,,,,,,,,,,e,1,0.5696,0,39,39,23,1,公正,e,,,,,,,,,,,,
,,,,,,,,,,,,,,1,001,2024-08-23_15h31.13.642,IAT(Formal),2021.2.3,Win32,60.60606061,,,,,,,,,,,,,,,,,,,,,,,,,,,,,,,,,,,,,,,,,,,,i,1,0.7232,0,40,40,32,1,愚蠢,i,,,,,,,,,,,,
,,,,,,,,,,,,,,1,001,2024-08-23_15h31.13.642,IAT(Formal),2021.2.3,Win32,60.60606061,,,,,,,,,,,,,,,,,,,,,,,,,,,,,,,,,,,,,,,,,,,,e,1,0.8071,0,41,41,67,1,他的,e,,,,,,,,,,,,
,,,,,,,,,,,,,,1,001,2024-08-23_15h31.13.642,IAT(Formal),2021.2.3,Win32,60.60606061,,,,,,,,,,,,,,,,,,,,,,,,,,,,,,,,,,,,,,,,,,,,e,1,0.9237,0,42,42,14,1,乐观,e,,,,,,,,,,,,
,,,,,,,,,,,,,,1,001,2024-08-23_15h31.13.642,IAT(Formal),2021.2.3,Win32,60.60606061,,,,,,,,,,,,,,,,,,,,,,,,,,,,,,,,,,,,,,,,,,,,i,1,0.6559,0,43,43,4,1,俺,i,,,,,,,,,,,,
,,,,,,,,,,,,,,1,001,2024-08-23_15h31.13.642,IAT(Formal),2021.2.3,Win32,60.60606061,,,,,,,,,,,,,,,,,,,,,,,,,,,,,,,,,,,,,,,,,,,,e,1,0.6423,0,44,44,11,1,崇高,e,,,,,,,,,,,,
,,,,,,,,,,,,,,1,001,2024-08-23_15h31.13.642,IAT(Formal),2021.2.3,Win32,60.60606061,,,,,,,,,,,,,,,,,,,,,,,,,,,,,,,,,,,,,,,,,,,,i,1,0.9447,0,45,45,37,1,傲慢,i,,,,,,,,,,,,
,,,,,,,,,,,,,,1,001,2024-08-23_15h31.13.642,IAT(Formal),2021.2.3,Win32,60.60606061,,,,,,,,,,,,,,,,,,,,,,,,,,,,,,,,,,,,,,,,,,,,e,1,0.9446,0,46,46,15,1,诚实,e,,,,,,,,,,,,
,,,,,,,,,,,,,,1,001,2024-08-23_15h31.13.642,IAT(Formal),2021.2.3,Win32,60.60606061,,,,,,,,,,,,,,,,,,,,,,,,,,,,,,,,,,,,,,,,,,,,e,1,1.0405,0,47,47,59,1,其他,e,,,,,,,,,,,,
,,,,,,,,,,,,,,1,001,2024-08-23_15h31.13.642,IAT(Formal),2021.2.3,Win32,60.60606061,,,,,,,,,,,,,,,,,,,,,,,,,,,,,,,,,,,,,,,,,,,,i,1,0.6927,0,48,48,2,1,我们,i,,,,,,,,,,,,
,,,,,,,,,,,,,,1,001,2024-08-23_15h31.13.642,IAT(Formal),2021.2.3,Win32,60.60606061,,,,,,,,,,,,,,,,,,,,,,,,,,,,,,,,,,,,,,,,,,,,e,1,0.7842,0,49,49,8,1,他人,e,,,,,,,,,,,,
,,,,,,,,,,,,,,1,001,2024-08-23_15h31.13.642,IAT(Formal),2021.2.3,Win32,60.60606061,,,,,,,,,,,,,,,,,,,,,,,,,,,,,,,,,,,,,,,,,,,,e,1,0.7871,0,50,50,21,1,稳重,e,,,,,,,,,,,,
,,,,,,,,,,,,,,1,001,2024-08-23_15h31.13.642,IAT(Formal),2021.2.3,Win32,60.60606061,,,,,,,,,,,,,,,,,,,,,,,,,,,,,,,,,,,,,,,,,,,,i,1,0.6551,0,51,51,31,1,虚伪,i,,,,,,,,,,,,
,,,,,,,,,,,,,,1,001,2024-08-23_15h31.13.642,IAT(Formal),2021.2.3,Win32,60.60606061,,,,,,,,,,,,,,,,,,,,,,,,,,,,,,,,,,,,,,,,,,,,i,1,0.9536,0,52,52,53,1,自己,i,,,,,,,,,,,,
,,,,,,,,,,,,,,1,001,2024-08-23_15h31.13.642,IAT(Formal),2021.2.3,Win32,60.60606061,,,,,,,,,,,,,,,,,,,,,,,,,,,,,,,,,,,,,,,,,,,,e,1,0.6884,0,53,53,68,1,他人,e,,,,,,,,,,,,
,,,,,,,,,,,,,,1,001,2024-08-23_15h31.13.642,IAT(Formal),2021.2.3,Win32,60.60606061,,,,,,,,,,,,,,,,,,,,,,,,,,,,,,,,,,,,,,,,,,,,e,0,1.2184,0,54,54,30,1,卑鄙,i,,,,,,,,,,,,
,,,,,,,,,,,,,,1,001,2024-08-23_15h31.13.642,IAT(Formal),2021.2.3,Win32,60.60606061,,,,,,,,,,,,,,,,,,,,,,,,,,,,,,,,,,,,,,,,,,,,i,1,0.5734,0,55,55,42,1,凶狠,i,,,,,,,,,,,,
,,,,,,,,,,,,,,1,001,2024-08-23_15h31.13.642,IAT(Formal),2021.2.3,Win32,60.60606061,,,,,,,,,,,,,,,,,,,,,,,,,,,,,,,,,,,,,,,,,,,,e,1,0.8008,0,56,56,13,1,杰出,e,,,,,,,,,,,,
,,,,,,,,,,,,,,1,001,2024-08-23_15h31.13.642,IAT(Formal),2021.2.3,Win32,60.60606061,,,,,,,,,,,,,,,,,,,,,,,,,,,,,,,,,,,,,,,,,,,,i,1,0.69,0,57,57,40,1,执拗,i,,,,,,,,,,,,
,,,,,,,,,,,,,,1,001,2024-08-23_15h31.13.642,IAT(Formal),2021.2.3,Win32,60.60606061,,,,,,,,,,,,,,,,,,,,,,,,,,,,,,,,,,,,,,,,,,,,i,1,0.4205,0,58,58,51,1,我的,i,,,,,,,,,,,,
,,,,,,,,,,,,,,1,001,2024-08-23_15h31.13.642,IAT(Formal),2021.2.3,Win32,60.60606061,,,,,,,,,,,,,,,,,,,,,,,,,,,,,,,,,,,,,,,,,,,,i,1,0.7512,0,59,59,49,1,下贱,i,,,,,,,,,,,,
,,,,,,,,,,,,,,1,001,2024-08-23_15h31.13.642,IAT(Formal),2021.2.3,Win32,60.60606061,,,,,,,,,,,,,,,,,,,,,,,,,,,,,,,,,,,,,,,,,,,,e,0,0.7628,0,60,60,48,1,轻率,i,,,,,,,,,,,,
,,,,,,,,,,,,,,1,001,2024-08-23_15h31.13.642,IAT(Formal),2021.2.3,Win32,60.60606061,,,,,,,,,,,,,,,,,,,,,,,,,,,,,,,,,,,,,,,,,,,,e,1,0.8348,0,61,61,65,1,他,e,,,,,,,,,,,,
,,,,,,,,,,,,,,1,001,2024-08-23_15h31.13.642,IAT(Formal),2021.2.3,Win32,60.60606061,,,,,,,,,,,,,,,,,,,,,,,,,,,,,,,,,,,,,,,,,,,,i,1,0.651,0,62,62,52,1,我们,i,,,,,,,,,,,,
,,,,,,,,,,,,,,1,001,2024-08-23_15h31.13.642,IAT(Formal),2021.2.3,Win32,60.60606061,,,,,,,,,,,,,,,,,,,,,,,,,,,,,,,,,,,,,,,,,,,,i,1,1.0108,0,63,63,47,1,固执,i,,,,,,,,,,,,
,,,,,,,,,,,,,,1,001,2024-08-23_15h31.13.642,IAT(Formal),2021.2.3,Win32,60.60606061,,,,,,,,,,,,,,,,,,,,,,,,,,,,,,,,,,,,,,,,,,,,e,1,0.6244,0,64,64,76,1,他们,e,,,,,,,,,,,,
,,,,,,,,,,,,,,1,001,2024-08-23_15h31.13.642,IAT(Formal),2021.2.3,Win32,60.60606061,,,,,,,,,,,,,,,,,,,,,,,,,,,,,,,,,,,,,,,,,,,,e,1,0.7512,0,65,65,24,1,朴实,e,,,,,,,,,,,,
,,,,,,,,,,,,,,1,001,2024-08-23_15h31.13.642,IAT(Formal),2021.2.3,Win32,60.60606061,,,,,,,,,,,,,,,,,,,,,,,,,,,,,,,,,,,,,,,,,,,,i,1,1.0845,0,66,66,72,1,我们,i,,,,,,,,,,,,
,,,,,,,,,,,,,,1,001,2024-08-23_15h31.13.642,IAT(Formal),2021.2.3,Win32,60.60606061,,,,,,,,,,,,,,,,,,,,,,,,,,,,,,,,,,,,,,,,,,,,i,1,0.5029,0,67,67,50,1,我,i,,,,,,,,,,,,
,,,,,,,,,,,,,,1,001,2024-08-23_15h31.13.642,IAT(Formal),2021.2.3,Win32,60.60606061,,,,,,,,,,,,,,,,,,,,,,,,,,,,,,,,,,,,,,,,,,,,e,1,0.664,0,68,68,78,1,他人,e,,,,,,,,,,,,
,,,,,,,,,,,,,,1,001,2024-08-23_15h31.13.642,IAT(Formal),2021.2.3,Win32,60.60606061,,,,,,,,,,,,,,,,,,,,,,,,,,,,,,,,,,,,,,,,,,,,i,0,1.0853,0,69,69,22,1,无私,e,,,,,,,,,,,,
,,,,,,,,,,,,,,1,001,2024-08-23_15h31.13.642,IAT(Formal),2021.2.3,Win32,60.60606061,,,,,,,,,,,,,,,,,,,,,,,,,,,,,,,,,,,,,,,,,,,,e,1,1.3171,0,70,70,12,1,聪明,e,,,,,,,,,,,,
,,,,,,,,,,,,,,1,001,2024-08-23_15h31.13.642,IAT(Formal),2021.2.3,Win32,60.60606061,,,,,,,,,,,,,,,,,,,,,,,,,,,,,,,,,,,,,,,,,,,,i,0,1.0594,0,71,71,66,1,他们,e,,,,,,,,,,,,
,,,,,,,,,,,,,,1,001,2024-08-23_15h31.13.642,IAT(Formal),2021.2.3,Win32,60.60606061,,,,,,,,,,,,,,,,,,,,,,,,,,,,,,,,,,,,,,,,,,,,i,1,1.2253,0,72,72,38,1,鲁莽,i,,,,,,,,,,,,
,,,,,,,,,,,,,,1,001,2024-08-23_15h31.13.642,IAT(Formal),2021.2.3,Win32,60.60606061,,,,,,,,,,,,,,,,,,,,,,,,,,,,,,,,,,,,,,,,,,,,i,1,0.5203,0,73,73,43,1,自私,i,,,,,,,,,,,,
,,,,,,,,,,,,,,1,001,2024-08-23_15h31.13.642,IAT(Formal),2021.2.3,Win32,60.60606061,,,,,,,,,,,,,,,,,,,,,,,,,,,,,,,,,,,,,,,,,,,,e,1,0.6177,0,74,74,29,1,诚恳,e,,,,,,,,,,,,
,,,,,,,,,,,,,,1,001,2024-08-23_15h31.13.642,IAT(Formal),2021.2.3,Win32,60.60606061,,,,,,,,,,,,,,,,,,,,,,,,,,,,,,,,,,,,,,,,,,,,i,1,0.6606,0,75,75,33,1,刻薄,i,,,,,,,,,,,,
,,,,,,,,,,,,,,1,001,2024-08-23_15h31.13.642,IAT(Formal),2021.2.3,Win32,60.60606061,,,,,,,,,,,,,,,,,,,,,,,,,,,,,,,,,,,,,,,,,,,,i,1,0.7322,0,76,76,44,1,暴躁,i,,,,,,,,,,,,
,,,,,,,,,,,,,,1,001,2024-08-23_15h31.13.642,IAT(Formal),2021.2.3,Win32,60.60606061,,,,,,,,,,,,,,,,,,,,,,,,,,,,,,,,,,,,,,,,,,,,e,1,0.7598,0,77,77,17,1,勇敢,e,,,,,,,,,,,,
,,,,,,,,,,,,,,1,001,2024-08-23_15h31.13.642,IAT(Formal),2021.2.3,Win32,60.60606061,,,,,,,,,,,,,,,,,,,,,,,,,,,,,,,,,,,,,,,,,,,,e,1,0.4901,0,78,78,69,1,其他,e,,,,,,,,,,,,
,,,,,,,,,,,,,,1,001,2024-08-23_15h31.13.642,IAT(Formal),2021.2.3,Win32,60.60606061,,,,,,,,,,,,,,,,,,,,,,,,,,,,,,,,,,,,,,,,,,,,i,1,0.4343,0,79,79,0,1,我,i,,,,,,,,,,,,
,,,,,,,,,,,,,,1,001,2024-08-23_15h31.13.642,IAT(Formal),2021.2.3,Win32,60.60606061,,,,,,,,,,,,,,,,,,,,,,,,,,,,,,,,,,,,,,,,,,,,,,,,,,,,其他,e,space,5.3748,e,1,1.2138,0,0,0,69,1,,
,,,,,,,,,,,,,,1,001,2024-08-23_15h31.13.642,IAT(Formal),2021.2.3,Win32,60.60606061,,,,,,,,,,,,,,,,,,,,,,,,,,,,,,,,,,,,,,,,,,,,,,,,,,,,他,e,,,e,1,0.6617,0,1,1,65,1,,
,,,,,,,,,,,,,,1,001,2024-08-23_15h31.13.642,IAT(Formal),2021.2.3,Win32,60.60606061,,,,,,,,,,,,,,,,,,,,,,,,,,,,,,,,,,,,,,,,,,,,,,,,,,,,我的,i,,,i,1,0.5522,0,2,2,61,1,,
,,,,,,,,,,,,,,1,001,2024-08-23_15h31.13.642,IAT(Formal),2021.2.3,Win32,60.60606061,,,,,,,,,,,,,,,,,,,,,,,,,,,,,,,,,,,,,,,,,,,,,,,,,,,,他的,e,,,i,0,0.3672,0,3,3,77,1,,
,,,,,,,,,,,,,,1,001,2024-08-23_15h31.13.642,IAT(Formal),2021.2.3,Win32,60.60606061,,,,,,,,,,,,,,,,,,,,,,,,,,,,,,,,,,,,,,,,,,,,,,,,,,,,我们,i,,,i,1,0.715,0,4,4,62,1,,
,,,,,,,,,,,,,,1,001,2024-08-23_15h31.13.642,IAT(Formal),2021.2.3,Win32,60.60606061,,,,,,,,,,,,,,,,,,,,,,,,,,,,,,,,,,,,,,,,,,,,,,,,,,,,他人,e,,,e,1,0.5978,0,5,5,58,1,,
,,,,,,,,,,,,,,1,001,2024-08-23_15h31.13.642,IAT(Formal),2021.2.3,Win32,60.60606061,,,,,,,,,,,,,,,,,,,,,,,,,,,,,,,,,,,,,,,,,,,,,,,,,,,,稳重,e,,,e,1,0.8755,0,6,6,21,1,,
,,,,,,,,,,,,,,1,001,2024-08-23_15h31.13.642,IAT(Formal),2021.2.3,Win32,60.60606061,,,,,,,,,,,,,,,,,,,,,,,,,,,,,,,,,,,,,,,,,,,,,,,,,,,,我的,i,,,e,0,0.6619,0,7,7,51,1,,
,,,,,,,,,,,,,,1,001,2024-08-23_15h31.13.642,IAT(Formal),2021.2.3,Win32,60.60606061,,,,,,,,,,,,,,,,,,,,,,,,,,,,,,,,,,,,,,,,,,,,,,,,,,,,朴实,e,,,e,1,0.6068,0,8,8,24,1,,
,,,,,,,,,,,,,,1,001,2024-08-23_15h31.13.642,IAT(Formal),2021.2.3,Win32,60.60606061,,,,,,,,,,,,,,,,,,,,,,,,,,,,,,,,,,,,,,,,,,,,,,,,,,,,他们,e,,,e,1,0.6183,0,9,9,56,1,,
,,,,,,,,,,,,,,1,001,2024-08-23_15h31.13.642,IAT(Formal),2021.2.3,Win32,60.60606061,,,,,,,,,,,,,,,,,,,,,,,,,,,,,,,,,,,,,,,,,,,,,,,,,,,,俺,i,,,i,1,0.6743,0,10,10,4,1,,
,,,,,,,,,,,,,,1,001,2024-08-23_15h31.13.642,IAT(Formal),2021.2.3,Win32,60.60606061,,,,,,,,,,,,,,,,,,,,,,,,,,,,,,,,,,,,,,,,,,,,,,,,,,,,我,i,,,i,1,0.5686,0,11,11,70,1,,
,,,,,,,,,,,,,,1,001,2024-08-23_15h31.13.642,IAT(Formal),2021.2.3,Win32,60.60606061,,,,,,,,,,,,,,,,,,,,,,,,,,,,,,,,,,,,,,,,,,,,,,,,,,,,我们,i,,,i,1,0.5347,0,12,12,72,1,,
,,,,,,,,,,,,,,1,001,2024-08-23_15h31.13.642,IAT(Formal),2021.2.3,Win32,60.60606061,,,,,,,,,,,,,,,,,,,,,,,,,,,,,,,,,,,,,,,,,,,,,,,,,,,,热情,e,,,i,0,1.312,0,13,13,27,1,,
,,,,,,,,,,,,,,1,001,2024-08-23_15h31.13.642,IAT(Formal),2021.2.3,Win32,60.60606061,,,,,,,,,,,,,,,,,,,,,,,,,,,,,,,,,,,,,,,,,,,,,,,,,,,,刻薄,i,,,i,1,0.5435,0,14,14,33,1,,
,,,,,,,,,,,,,,1,001,2024-08-23_15h31.13.642,IAT(Formal),2021.2.3,Win32,60.60606061,,,,,,,,,,,,,,,,,,,,,,,,,,,,,,,,,,,,,,,,,,,,,,,,,,,,野蛮,i,,,i,1,0.7355,0,15,15,46,1,,
,,,,,,,,,,,,,,1,001,2024-08-23_15h31.13.642,IAT(Formal),2021.2.3,Win32,60.60606061,,,,,,,,,,,,,,,,,,,,,,,,,,,,,,,,,,,,,,,,,,,,,,,,,,,,诚实,e,,,e,1,0.6506,0,16,16,15,1,,
,,,,,,,,,,,,,,1,001,2024-08-23_15h31.13.642,IAT(Formal),2021.2.3,Win32,60.60606061,,,,,,,,,,,,,,,,,,,,,,,,,,,,,,,,,,,,,,,,,,,,,,,,,,,,愚蠢,i,,,i,1,0.5621,0,17,17,32,1,,
,,,,,,,,,,,,,,1,001,2024-08-23_15h31.13.642,IAT(Formal),2021.2.3,Win32,60.60606061,,,,,,,,,,,,,,,,,,,,,,,,,,,,,,,,,,,,,,,,,,,,,,,,,,,,轻率,i,,,i,1,0.9341,0,18,18,48,1,,
,,,,,,,,,,,,,,1,001,2024-08-23_15h31.13.642,IAT(Formal),2021.2.3,Win32,60.60606061,,,,,,,,,,,,,,,,,,,,,,,,,,,,,,,,,,,,,,,,,,,,,,,,,,,,其他,e,,,e,1,0.8175,0,19,19,9,1,,
,,,,,,,,,,,,,,1,001,2024-08-23_15h31.13.642,IAT(Formal),2021.2.3,Win32,60.60606061,,,,,,,,,,,,,,,,,,,,,,,,,,,,,,,,,,,,,,,,,,,,,,,,,,,,他,e,,,e,1,0.4511,0,20,20,5,1,,
,,,,,,,,,,,,,,1,001,2024-08-23_15h31.13.642,IAT(Formal),2021.2.3,Win32,60.60606061,,,,,,,,,,,,,,,,,,,,,,,,,,,,,,,,,,,,,,,,,,,,,,,,,,,,正直,e,,,i,0,0.5333,0,21,21,16,1,,
,,,,,,,,,,,,,,1,001,2024-08-23_15h31.13.642,IAT(Formal),2021.2.3,Win32,60.60606061,,,,,,,,,,,,,,,,,,,,,,,,,,,,,,,,,,,,,,,,,,,,,,,,,,,,他,e,,,e,1,0.6259,0,22,22,55,1,,
,,,,,,,,,,,,,,1,001,2024-08-23_15h31.13.642,IAT(Formal),2021.2.3,Win32,60.60606061,,,,,,,,,,,,,,,,,,,,,,,,,,,,,,,,,,,,,,,,,,,,,,,,,,,,消极,i,,,e,0,1.3589,0,23,23,35,1,,
,,,,,,,,,,,,,,1,001,2024-08-23_15h31.13.642,IAT(Formal),2021.2.3,Win32,60.60606061,,,,,,,,,,,,,,,,,,,,,,,,,,,,,,,,,,,,,,,,,,,,,,,,,,,,我们,i,,,i,1,0.6432,0,24,24,52,1,,
,,,,,,,,,,,,,,1,001,2024-08-23_15h31.13.642,IAT(Formal),2021.2.3,Win32,60.60606061,,,,,,,,,,,,,,,,,,,,,,,,,,,,,,,,,,,,,,,,,,,,,,,,,,,,我的,i,,,e,0,0.518,0,25,25,71,1,,
,,,,,,,,,,,,,,1,001,2024-08-23_15h31.13.642,IAT(Formal),2021.2.3,Win32,60.60606061,,,,,,,,,,,,,,,,,,,,,,,,,,,,,,,,,,,,,,,,,,,,,,,,,,,,公正,e,,,e,1,0.9847,0,26,26,23,1,,
,,,,,,,,,,,,,,1,001,2024-08-23_15h31.13.642,IAT(Formal),2021.2.3,Win32,60.60606061,,,,,,,,,,,,,,,,,,,,,,,,,,,,,,,,,,,,,,,,,,,,,,,,,,,,我的,i,,,i,1,0.4907,0,27,27,1,1,,
,,,,,,,,,,,,,,1,001,2024-08-23_15h31.13.642,IAT(Formal),2021.2.3,Win32,60.60606061,,,,,,,,,,,,,,,,,,,,,,,,,,,,,,,,,,,,,,,,,,,,,,,,,,,,固执,i,,,e,0,1.0068,0,28,28,47,1,,
,,,,,,,,,,,,,,1,001,2024-08-23_15h31.13.642,IAT(Formal),2021.2.3,Win32,60.60606061,,,,,,,,,,,,,,,,,,,,,,,,,,,,,,,,,,,,,,,,,,,,,,,,,,,,傲慢,i,,,i,1,0.7339,0,29,29,37,1,,
,,,,,,,,,,,,,,1,001,2024-08-23_15h31.13.642,IAT(Formal),2021.2.3,Win32,60.60606061,,,,,,,,,,,,,,,,,,,,,,,,,,,,,,,,,,,,,,,,,,,,,,,,,,,,他们,e,,,,0,,0,30,30,6,1,,
,,,,,,,,,,,,,,1,001,2024-08-23_15h31.13.642,IAT(Formal),2021.2.3,Win32,60.60606061,,,,,,,,,,,,,,,,,,,,,,,,,,,,,,,,,,,,,,,,,,,,,,,,,,,,勇敢,e,,,e,1,0.7018,0,31,31,17,1,,
,,,,,,,,,,,,,,1,001,2024-08-23_15h31.13.642,IAT(Formal),2021.2.3,Win32,60.60606061,,,,,,,,,,,,,,,,,,,,,,,,,,,,,,,,,,,,,,,,,,,,,,,,,,,,他们,e,,,e,1,0.6384,0,32,32,66,1,,
,,,,,,,,,,,,,,1,001,2024-08-23_15h31.13.642,IAT(Formal),2021.2.3,Win32,60.60606061,,,,,,,,,,,,,,,,,,,,,,,,,,,,,,,,,,,,,,,,,,,,,,,,,,,,自己,i,,,i,1,0.7184,0,33,33,3,1,,
,,,,,,,,,,,,,,1,001,2024-08-23_15h31.13.642,IAT(Formal),2021.2.3,Win32,60.60606061,,,,,,,,,,,,,,,,,,,,,,,,,,,,,,,,,,,,,,,,,,,,,,,,,,,,自己,i,,,i,1,0.4637,0,34,34,73,1,,
,,,,,,,,,,,,,,1,001,2024-08-23_15h31.13.642,IAT(Formal),2021.2.3,Win32,60.60606061,,,,,,,,,,,,,,,,,,,,,,,,,,,,,,,,,,,,,,,,,,,,,,,,,,,,自己,i,,,i,1,0.7188,0,35,35,63,1,,
,,,,,,,,,,,,,,1,001,2024-08-23_15h31.13.642,IAT(Formal),2021.2.3,Win32,60.60606061,,,,,,,,,,,,,,,,,,,,,,,,,,,,,,,,,,,,,,,,,,,,,,,,,,,,他人,e,,,e,1,0.4981,0,36,36,78,1,,
,,,,,,,,,,,,,,1,001,2024-08-23_15h31.13.642,IAT(Formal),2021.2.3,Win32,60.60606061,,,,,,,,,,,,,,,,,,,,,,,,,,,,,,,,,,,,,,,,,,,,,,,,,,,,俺,i,,,i,1,0.6513,0,37,37,54,1,,
,,,,,,,,,,,,,,1,001,2024-08-23_15h31.13.642,IAT(Formal),2021.2.3,Win32,60.60606061,,,,,,,,,,,,,,,,,,,,,,,,,,,,,,,,,,,,,,,,,,,,,,,,,,,,勤奋,e,,,i,0,1.0224,0,38,38,18,1,,
,,,,,,,,,,,,,,1,001,2024-08-23_15h31.13.642,IAT(Formal),2021.2.3,Win32,60.60606061,,,,,,,,,,,,,,,,,,,,,,,,,,,,,,,,,,,,,,,,,,,,,,,,,,,,俺,i,,,i,1,0.6097,0,39,39,64,1,,
,,,,,,,,,,,,,,1,001,2024-08-23_15h31.13.642,IAT(Formal),2021.2.3,Win32,60.60606061,,,,,,,,,,,,,,,,,,,,,,,,,,,,,,,,,,,,,,,,,,,,,,,,,,,,机智,e,,,e,1,0.5669,0,40,40,19,1,,
,,,,,,,,,,,,,,1,001,2024-08-23_15h31.13.642,IAT(Formal),2021.2.3,Win32,60.60606061,,,,,,,,,,,,,,,,,,,,,,,,,,,,,,,,,,,,,,,,,,,,,,,,,,,,自己,i,,,e,0,0.4037,0,41,41,53,1,,
,,,,,,,,,,,,,,1,001,2024-08-23_15h31.13.642,IAT(Formal),2021.2.3,Win32,60.60606061,,,,,,,,,,,,,,,,,,,,,,,,,,,,,,,,,,,,,,,,,,,,,,,,,,,,悲观,i,,,i,1,1.1553,0,42,42,34,1,,
,,,,,,,,,,,,,,1,001,2024-08-23_15h31.13.642,IAT(Formal),2021.2.3,Win32,60.60606061,,,,,,,,,,,,,,,,,,,,,,,,,,,,,,,,,,,,,,,,,,,,,,,,,,,,冒失,i,,,i,1,0.7509,0,43,43,39,1,,
,,,,,,,,,,,,,,1,001,2024-08-23_15h31.13.642,IAT(Formal),2021.2.3,Win32,60.60606061,,,,,,,,,,,,,,,,,,,,,,,,,,,,,,,,,,,,,,,,,,,,,,,,,,,,他,e,,,e,1,0.5676,0,44,44,75,1,,
,,,,,,,,,,,,,,1,001,2024-08-23_15h31.13.642,IAT(Formal),2021.2.3,Win32,60.60606061,,,,,,,,,,,,,,,,,,,,,,,,,,,,,,,,,,,,,,,,,,,,,,,,,,,,乐观,e,,,e,1,0.4693,0,45,45,14,1,,
,,,,,,,,,,,,,,1,001,2024-08-23_15h31.13.642,IAT(Formal),2021.2.3,Win32,60.60606061,,,,,,,,,,,,,,,,,,,,,,,,,,,,,,,,,,,,,,,,,,,,,,,,,,,,我,i,,,i,1,0.5677,0,46,46,0,1,,
,,,,,,,,,,,,,,1,001,2024-08-23_15h31.13.642,IAT(Formal),2021.2.3,Win32,60.60606061,,,,,,,,,,,,,,,,,,,,,,,,,,,,,,,,,,,,,,,,,,,,,,,,,,,,暴躁,i,,,i,1,0.5511,0,47,47,44,1,,
,,,,,,,,,,,,,,1,001,2024-08-23_15h31.13.642,IAT(Formal),2021.2.3,Win32,60.60606061,,,,,,,,,,,,,,,,,,,,,,,,,,,,,,,,,,,,,,,,,,,,,,,,,,,,冷静,e,,,e,1,0.734,0,48,48,26,1,,
,,,,,,,,,,,,,,1,001,2024-08-23_15h31.13.642,IAT(Formal),2021.2.3,Win32,60.60606061,,,,,,,,,,,,,,,,,,,,,,,,,,,,,,,,,,,,,,,,,,,,,,,,,,,,鲁莽,i,,,i,1,0.5095,0,49,49,38,1,,
,,,,,,,,,,,,,,1,001,2024-08-23_15h31.13.642,IAT(Formal),2021.2.3,Win32,60.60606061,,,,,,,,,,,,,,,,,,,,,,,,,,,,,,,,,,,,,,,,,,,,,,,,,,,,认真,e,,,e,1,0.4727,0,50,50,20,1,,
,,,,,,,,,,,,,,1,001,2024-08-23_15h31.13.642,IAT(Formal),2021.2.3,Win32,60.60606061,,,,,,,,,,,,,,,,,,,,,,,,,,,,,,,,,,,,,,,,,,,,,,,,,,,,活泼,e,,,e,1,0.5223,0,51,51,28,1,,
,,,,,,,,,,,,,,1,001,2024-08-23_15h31.13.642,IAT(Formal),2021.2.3,Win32,60.60606061,,,,,,,,,,,,,,,,,,,,,,,,,,,,,,,,,,,,,,,,,,,,,,,,,,,,卑鄙,i,,,i,1,0.7763,0,52,52,30,1,,
,,,,,,,,,,,,,,1,001,2024-08-23_15h31.13.642,IAT(Formal),2021.2.3,Win32,60.60606061,,,,,,,,,,,,,,,,,,,,,,,,,,,,,,,,,,,,,,,,,,,,,,,,,,,,我们,i,,,e,0,0.6337,0,53,53,2,1,,
,,,,,,,,,,,,,,1,001,2024-08-23_15h31.13.642,IAT(Formal),2021.2.3,Win32,60.60606061,,,,,,,,,,,,,,,,,,,,,,,,,,,,,,,,,,,,,,,,,,,,,,,,,,,,其他,e,,,e,1,0.7888,0,54,54,59,1,,
,,,,,,,,,,,,,,1,001,2024-08-23_15h31.13.642,IAT(Formal),2021.2.3,Win32,60.60606061,,,,,,,,,,,,,,,,,,,,,,,,,,,,,,,,,,,,,,,,,,,,,,,,,,,,诚恳,e,,,e,1,0.7253,0,55,55,29,1,,
,,,,,,,,,,,,,,1,001,2024-08-23_15h31.13.642,IAT(Formal),2021.2.3,Win32,60.60606061,,,,,,,,,,,,,,,,,,,,,,,,,,,,,,,,,,,,,,,,,,,,,,,,,,,,崇高,e,,,e,1,0.7012,0,56,56,11,1,,
,,,,,,,,,,,,,,1,001,2024-08-23_15h31.13.642,IAT(Formal),2021.2.3,Win32,60.60606061,,,,,,,,,,,,,,,,,,,,,,,,,,,,,,,,,,,,,,,,,,,,,,,,,,,,虚伪,i,,,i,1,0.7013,0,57,57,31,1,,
,,,,,,,,,,,,,,1,001,2024-08-23_15h31.13.642,IAT(Formal),2021.2.3,Win32,60.60606061,,,,,,,,,,,,,,,,,,,,,,,,,,,,,,,,,,,,,,,,,,,,,,,,,,,,执拗,i,,,e,0,0.8341,0,58,58,40,1,,
,,,,,,,,,,,,,,1,001,2024-08-23_15h31.13.642,IAT(Formal),2021.2.3,Win32,60.60606061,,,,,,,,,,,,,,,,,,,,,,,,,,,,,,,,,,,,,,,,,,,,,,,,,,,,无私,e,,,e,1,0.7378,0,59,59,22,1,,
,,,,,,,,,,,,,,1,001,2024-08-23_15h31.13.642,IAT(Formal),2021.2.3,Win32,60.60606061,,,,,,,,,,,,,,,,,,,,,,,,,,,,,,,,,,,,,,,,,,,,,,,,,,,,我,i,,,i,1,0.6556,0,60,60,60,1,,
,,,,,,,,,,,,,,1,001,2024-08-23_15h31.13.642,IAT(Formal),2021.2.3,Win32,60.60606061,,,,,,,,,,,,,,,,,,,,,,,,,,,,,,,,,,,,,,,,,,,,,,,,,,,,凶狠,i,,,i,1,0.4443,0,61,61,42,1,,
,,,,,,,,,,,,,,1,001,2024-08-23_15h31.13.642,IAT(Formal),2021.2.3,Win32,60.60606061,,,,,,,,,,,,,,,,,,,,,,,,,,,,,,,,,,,,,,,,,,,,,,,,,,,,他们,e,,,e,1,0.6132,0,62,62,76,1,,
,,,,,,,,,,,,,,1,001,2024-08-23_15h31.13.642,IAT(Formal),2021.2.3,Win32,60.60606061,,,,,,,,,,,,,,,,,,,,,,,,,,,,,,,,,,,,,,,,,,,,,,,,,,,,猖狂,i,,,i,1,0.6685,0,63,63,45,1,,
,,,,,,,,,,,,,,1,001,2024-08-23_15h31.13.642,IAT(Formal),2021.2.3,Win32,60.60606061,,,,,,,,,,,,,,,,,,,,,,,,,,,,,,,,,,,,,,,,,,,,,,,,,,,,下贱,i,,,i,1,0.7337,0,64,64,49,1,,
,,,,,,,,,,,,,,1,001,2024-08-23_15h31.13.642,IAT(Formal),2021.2.3,Win32,60.60606061,,,,,,,,,,,,,,,,,,,,,,,,,,,,,,,,,,,,,,,,,,,,,,,,,,,,俺,i,,,i,1,0.5364,0,65,65,74,1,,
,,,,,,,,,,,,,,1,001,2024-08-23_15h31.13.642,IAT(Formal),2021.2.3,Win32,60.60606061,,,,,,,,,,,,,,,,,,,,,,,,,,,,,,,,,,,,,,,,,,,,,,,,,,,,他人,e,,,e,1,0.5047,0,66,66,68,1,,
,,,,,,,,,,,,,,1,001,2024-08-23_15h31.13.642,IAT(Formal),2021.2.3,Win32,60.60606061,,,,,,,,,,,,,,,,,,,,,,,,,,,,,,,,,,,,,,,,,,,,,,,,,,,,聪明,e,,,e,1,0.7544,0,67,67,12,1,,
,,,,,,,,,,,,,,1,001,2024-08-23_15h31.13.642,IAT(Formal),2021.2.3,Win32,60.60606061,,,,,,,,,,,,,,,,,,,,,,,,,,,,,,,,,,,,,,,,,,,,,,,,,,,,自卑,i,,,i,1,0.6345,0,68,68,36,1,,
,,,,,,,,,,,,,,1,001,2024-08-23_15h31.13.642,IAT(Formal),2021.2.3,Win32,60.60606061,,,,,,,,,,,,,,,,,,,,,,,,,,,,,,,,,,,,,,,,,,,,,,,,,,,,杰出,e,,,e,1,0.6833,0,69,69,13,1,,
,,,,,,,,,,,,,,1,001,2024-08-23_15h31.13.642,IAT(Formal),2021.2.3,Win32,60.60606061,,,,,,,,,,,,,,,,,,,,,,,,,,,,,,,,,,,,,,,,,,,,,,,,,,,,他人,e,,,e,1,1.0235,0,70,70,8,1,,
,,,,,,,,,,,,,,1,001,2024-08-23_15h31.13.642,IAT(Formal),2021.2.3,Win32,60.60606061,,,,,,,,,,,,,,,,,,,,,,,,,,,,,,,,,,,,,,,,,,,,,,,,,,,,我,i,,,i,1,0.5838,0,71,71,50,1,,
,,,,,,,,,,,,,,1,001,2024-08-23_15h31.13.642,IAT(Formal),2021.2.3,Win32,60.60606061,,,,,,,,,,,,,,,,,,,,,,,,,,,,,,,,,,,,,,,,,,,,,,,,,,,,散漫,i,,,i,1,0.8541,0,72,72,41,1,,
,,,,,,,,,,,,,,1,001,2024-08-23_15h31.13.642,IAT(Formal),2021.2.3,Win32,60.60606061,,,,,,,,,,,,,,,,,,,,,,,,,,,,,,,,,,,,,,,,,,,,,,,,,,,,优秀,e,,,e,1,0.835,0,73,73,10,1,,
,,,,,,,,,,,,,,1,001,2024-08-23_15h31.13.642,IAT(Formal),2021.2.3,Win32,60.60606061,,,,,,,,,,,,,,,,,,,,,,,,,,,,,,,,,,,,,,,,,,,,,,,,,,,,他的,e,,,i,0,0.8342,0,74,74,67,1,,
,,,,,,,,,,,,,,1,001,2024-08-23_15h31.13.642,IAT(Formal),2021.2.3,Win32,60.60606061,,,,,,,,,,,,,,,,,,,,,,,,,,,,,,,,,,,,,,,,,,,,,,,,,,,,自私,i,,,e,0,0.8237,0,75,75,43,1,,
,,,,,,,,,,,,,,1,001,2024-08-23_15h31.13.642,IAT(Formal),2021.2.3,Win32,60.60606061,,,,,,,,,,,,,,,,,,,,,,,,,,,,,,,,,,,,,,,,,,,,,,,,,,,,他的,e,,,e,1,0.8176,0,76,76,7,1,,
,,,,,,,,,,,,,,1,001,2024-08-23_15h31.13.642,IAT(Formal),2021.2.3,Win32,60.60606061,,,,,,,,,,,,,,,,,,,,,,,,,,,,,,,,,,,,,,,,,,,,,,,,,,,,其他,e,,,e,1,0.812,0,77,77,79,1,,
,,,,,,,,,,,,,,1,001,2024-08-23_15h31.13.642,IAT(Formal),2021.2.3,Win32,60.60606061,,,,,,,,,,,,,,,,,,,,,,,,,,,,,,,,,,,,,,,,,,,,,,,,,,,,细腻,e,,,e,1,0.9584,0,78,78,25,1,,
,,,,,,,,,,,,,,1,001,2024-08-23_15h31.13.642,IAT(Formal),2021.2.3,Win32,60.60606061,,,,,,,,,,,,,,,,,,,,,,,,,,,,,,,,,,,,,,,,,,,,,,,,,,,,他的,e,,,e,1,1.0842,0,79,79,57,1,,
,,,,,,,,,,,,,,1,001,2024-08-23_15h31.13.642,IAT(Formal),2021.2.3,Win32,60.60606061,,,,,,,,,,,,,,,,,,,,,,,,,,,,,,,,,,,,,,,,,,,,,,,,,,,,他人,e,,,e,1,0.5118,1,0,80,68,1,,
,,,,,,,,,,,,,,1,001,2024-08-23_15h31.13.642,IAT(Formal),2021.2.3,Win32,60.60606061,,,,,,,,,,,,,,,,,,,,,,,,,,,,,,,,,,,,,,,,,,,,,,,,,,,,自己,i,,,i,1,0.5716,1,1,81,3,1,,
,,,,,,,,,,,,,,1,001,2024-08-23_15h31.13.642,IAT(Formal),2021.2.3,Win32,60.60606061,,,,,,,,,,,,,,,,,,,,,,,,,,,,,,,,,,,,,,,,,,,,,,,,,,,,其他,e,,,e,1,0.701,1,2,82,79,1,,
,,,,,,,,,,,,,,1,001,2024-08-23_15h31.13.642,IAT(Formal),2021.2.3,Win32,60.60606061,,,,,,,,,,,,,,,,,,,,,,,,,,,,,,,,,,,,,,,,,,,,,,,,,,,,我的,i,,,e,0,0.4893,1,3,83,51,1,,
,,,,,,,,,,,,,,1,001,2024-08-23_15h31.13.642,IAT(Formal),2021.2.3,Win32,60.60606061,,,,,,,,,,,,,,,,,,,,,,,,,,,,,,,,,,,,,,,,,,,,,,,,,,,,冒失,i,,,e,0,0.9177,1,4,84,39,1,,
,,,,,,,,,,,,,,1,001,2024-08-23_15h31.13.642,IAT(Formal),2021.2.3,Win32,60.60606061,,,,,,,,,,,,,,,,,,,,,,,,,,,,,,,,,,,,,,,,,,,,,,,,,,,,自卑,i,,,i,1,0.5909,1,5,85,36,1,,
,,,,,,,,,,,,,,1,001,2024-08-23_15h31.13.642,IAT(Formal),2021.2.3,Win32,60.60606061,,,,,,,,,,,,,,,,,,,,,,,,,,,,,,,,,,,,,,,,,,,,,,,,,,,,我,i,,,e,0,0.6845,1,6,86,0,1,,
,,,,,,,,,,,,,,1,001,2024-08-23_15h31.13.642,IAT(Formal),2021.2.3,Win32,60.60606061,,,,,,,,,,,,,,,,,,,,,,,,,,,,,,,,,,,,,,,,,,,,,,,,,,,,他人,e,,,e,1,0.7287,1,7,87,58,1,,
,,,,,,,,,,,,,,1,001,2024-08-23_15h31.13.642,IAT(Formal),2021.2.3,Win32,60.60606061,,,,,,,,,,,,,,,,,,,,,,,,,,,,,,,,,,,,,,,,,,,,,,,,,,,,其他,e,,,e,1,0.6478,1,8,88,59,1,,
,,,,,,,,,,,,,,1,001,2024-08-23_15h31.13.642,IAT(Formal),2021.2.3,Win32,60.60606061,,,,,,,,,,,,,,,,,,,,,,,,,,,,,,,,,,,,,,,,,,,,,,,,,,,,他们,e,,,e,1,0.4561,1,9,89,76,1,,
,,,,,,,,,,,,,,1,001,2024-08-23_15h31.13.642,IAT(Formal),2021.2.3,Win32,60.60606061,,,,,,,,,,,,,,,,,,,,,,,,,,,,,,,,,,,,,,,,,,,,,,,,,,,,虚伪,i,,,i,1,0.6674,1,10,90,31,1,,
,,,,,,,,,,,,,,1,001,2024-08-23_15h31.13.642,IAT(Formal),2021.2.3,Win32,60.60606061,,,,,,,,,,,,,,,,,,,,,,,,,,,,,,,,,,,,,,,,,,,,,,,,,,,,散漫,i,,,e,0,0.7005,1,11,91,41,1,,
,,,,,,,,,,,,,,1,001,2024-08-23_15h31.13.642,IAT(Formal),2021.2.3,Win32,60.60606061,,,,,,,,,,,,,,,,,,,,,,,,,,,,,,,,,,,,,,,,,,,,,,,,,,,,愚蠢,i,,,i,1,1.1847,1,12,92,32,1,,
,,,,,,,,,,,,,,1,001,2024-08-23_15h31.13.642,IAT(Formal),2021.2.3,Win32,60.60606061,,,,,,,,,,,,,,,,,,,,,,,,,,,,,,,,,,,,,,,,,,,,,,,,,,,,我的,i,,,i,1,0.7103,1,13,93,71,1,,
,,,,,,,,,,,,,,1,001,2024-08-23_15h31.13.642,IAT(Formal),2021.2.3,Win32,60.60606061,,,,,,,,,,,,,,,,,,,,,,,,,,,,,,,,,,,,,,,,,,,,,,,,,,,,勇敢,e,,,e,1,0.988,1,14,94,17,1,,
,,,,,,,,,,,,,,1,001,2024-08-23_15h31.13.642,IAT(Formal),2021.2.3,Win32,60.60606061,,,,,,,,,,,,,,,,,,,,,,,,,,,,,,,,,,,,,,,,,,,,,,,,,,,,凶狠,i,,,i,1,0.5443,1,15,95,42,1,,
,,,,,,,,,,,,,,1,001,2024-08-23_15h31.13.642,IAT(Formal),2021.2.3,Win32,60.60606061,,,,,,,,,,,,,,,,,,,,,,,,,,,,,,,,,,,,,,,,,,,,,,,,,,,,自私,i,,,i,1,1.2378,1,16,96,43,1,,
,,,,,,,,,,,,,,1,001,2024-08-23_15h31.13.642,IAT(Formal),2021.2.3,Win32,60.60606061,,,,,,,,,,,,,,,,,,,,,,,,,,,,,,,,,,,,,,,,,,,,,,,,,,,,俺,i,,,i,1,0.5774,1,17,97,4,1,,
,,,,,,,,,,,,,,1,001,2024-08-23_15h31.13.642,IAT(Formal),2021.2.3,Win32,60.60606061,,,,,,,,,,,,,,,,,,,,,,,,,,,,,,,,,,,,,,,,,,,,,,,,,,,,俺,i,,,i,1,0.4382,1,18,98,64,1,,
,,,,,,,,,,,,,,1,001,2024-08-23_15h31.13.642,IAT(Formal),2021.2.3,Win32,60.60606061,,,,,,,,,,,,,,,,,,,,,,,,,,,,,,,,,,,,,,,,,,,,,,,,,,,,卑鄙,i,,,i,1,0.9519,1,19,99,30,1,,
,,,,,,,,,,,,,,1,001,2024-08-23_15h31.13.642,IAT(Formal),2021.2.3,Win32,60.60606061,,,,,,,,,,,,,,,,,,,,,,,,,,,,,,,,,,,,,,,,,,,,,,,,,,,,我,i,,,i,1,0.4909,1,20,100,50,1,,
,,,,,,,,,,,,,,1,001,2024-08-23_15h31.13.642,IAT(Formal),2021.2.3,Win32,60.60606061,,,,,,,,,,,,,,,,,,,,,,,,,,,,,,,,,,,,,,,,,,,,,,,,,,,,我的,i,,,i,1,0.4464,1,21,101,61,1,,
,,,,,,,,,,,,,,1,001,2024-08-23_15h31.13.642,IAT(Formal),2021.2.3,Win32,60.60606061,,,,,,,,,,,,,,,,,,,,,,,,,,,,,,,,,,,,,,,,,,,,,,,,,,,,我们,i,,,i,1,0.3858,1,22,102,2,1,,
,,,,,,,,,,,,,,1,001,2024-08-23_15h31.13.642,IAT(Formal),2021.2.3,Win32,60.60606061,,,,,,,,,,,,,,,,,,,,,,,,,,,,,,,,,,,,,,,,,,,,,,,,,,,,聪明,e,,,i,0,0.5777,1,23,103,12,1,,
,,,,,,,,,,,,,,1,001,2024-08-23_15h31.13.642,IAT(Formal),2021.2.3,Win32,60.60606061,,,,,,,,,,,,,,,,,,,,,,,,,,,,,,,,,,,,,,,,,,,,,,,,,,,,他,e,,,e,1,0.7343,1,24,104,75,1,,
,,,,,,,,,,,,,,1,001,2024-08-23_15h31.13.642,IAT(Formal),2021.2.3,Win32,60.60606061,,,,,,,,,,,,,,,,,,,,,,,,,,,,,,,,,,,,,,,,,,,,,,,,,,,,他,e,,,e,1,0.4839,1,25,105,5,1,,
,,,,,,,,,,,,,,1,001,2024-08-23_15h31.13.642,IAT(Formal),2021.2.3,Win32,60.60606061,,,,,,,,,,,,,,,,,,,,,,,,,,,,,,,,,,,,,,,,,,,,,,,,,,,,俺,i,,,e,0,0.4007,1,26,106,54,1,,
,,,,,,,,,,,,,,1,001,2024-08-23_15h31.13.642,IAT(Formal),2021.2.3,Win32,60.60606061,,,,,,,,,,,,,,,,,,,,,,,,,,,,,,,,,,,,,,,,,,,,,,,,,,,,无私,e,,,i,0,1.0215,1,27,107,22,1,,
,,,,,,,,,,,,,,1,001,2024-08-23_15h31.13.642,IAT(Formal),2021.2.3,Win32,60.60606061,,,,,,,,,,,,,,,,,,,,,,,,,,,,,,,,,,,,,,,,,,,,,,,,,,,,自己,i,,,i,1,0.5777,1,28,108,53,1,,
,,,,,,,,,,,,,,1,001,2024-08-23_15h31.13.642,IAT(Formal),2021.2.3,Win32,60.60606061,,,,,,,,,,,,,,,,,,,,,,,,,,,,,,,,,,,,,,,,,,,,,,,,,,,,冷静,e,,,e,1,1.2572,1,29,109,26,1,,
,,,,,,,,,,,,,,1,001,2024-08-23_15h31.13.642,IAT(Formal),2021.2.3,Win32,60.60606061,,,,,,,,,,,,,,,,,,,,,,,,,,,,,,,,,,,,,,,,,,,,,,,,,,,,自己,i,,,i,1,0.6508,1,30,110,73,1,,
,,,,,,,,,,,,,,1,001,2024-08-23_15h31.13.642,IAT(Formal),2021.2.3,Win32,60.60606061,,,,,,,,,,,,,,,,,,,,,,,,,,,,,,,,,,,,,,,,,,,,,,,,,,,,其他,e,,,e,1,0.4901,1,31,111,69,1,,
,,,,,,,,,,,,,,1,001,2024-08-23_15h31.13.642,IAT(Formal),2021.2.3,Win32,60.60606061,,,,,,,,,,,,,,,,,,,,,,,,,,,,,,,,,,,,,,,,,,,,,,,,,,,,他们,e,,,e,1,0.5119,1,32,112,6,1,,
,,,,,,,,,,,,,,1,001,2024-08-23_15h31.13.642,IAT(Formal),2021.2.3,Win32,60.60606061,,,,,,,,,,,,,,,,,,,,,,,,,,,,,,,,,,,,,,,,,,,,,,,,,,,,刻薄,i,,,i,1,0.6227,1,33,113,33,1,,
,,,,,,,,,,,,,,1,001,2024-08-23_15h31.13.642,IAT(Formal),2021.2.3,Win32,60.60606061,,,,,,,,,,,,,,,,,,,,,,,,,,,,,,,,,,,,,,,,,,,,,,,,,,,,他,e,,,e,1,0.7909,1,34,114,55,1,,
,,,,,,,,,,,,,,1,001,2024-08-23_15h31.13.642,IAT(Formal),2021.2.3,Win32,60.60606061,,,,,,,,,,,,,,,,,,,,,,,,,,,,,,,,,,,,,,,,,,,,,,,,,,,,我,i,,,i,1,0.7054,1,35,115,70,1,,
,,,,,,,,,,,,,,1,001,2024-08-23_15h31.13.642,IAT(Formal),2021.2.3,Win32,60.60606061,,,,,,,,,,,,,,,,,,,,,,,,,,,,,,,,,,,,,,,,,,,,,,,,,,,,我,i,,,i,1,0.7332,1,36,116,60,1,,
,,,,,,,,,,,,,,1,001,2024-08-23_15h31.13.642,IAT(Formal),2021.2.3,Win32,60.60606061,,,,,,,,,,,,,,,,,,,,,,,,,,,,,,,,,,,,,,,,,,,,,,,,,,,,他的,e,,,e,1,0.6347,1,37,117,7,1,,
,,,,,,,,,,,,,,1,001,2024-08-23_15h31.13.642,IAT(Formal),2021.2.3,Win32,60.60606061,,,,,,,,,,,,,,,,,,,,,,,,,,,,,,,,,,,,,,,,,,,,,,,,,,,,活泼,e,,,e,1,0.8676,1,38,118,28,1,,
,,,,,,,,,,,,,,1,001,2024-08-23_15h31.13.642,IAT(Formal),2021.2.3,Win32,60.60606061,,,,,,,,,,,,,,,,,,,,,,,,,,,,,,,,,,,,,,,,,,,,,,,,,,,,勤奋,e,,,e,1,0.6511,1,39,119,18,1,,
,,,,,,,,,,,,,,1,001,2024-08-23_15h31.13.642,IAT(Formal),2021.2.3,Win32,60.60606061,,,,,,,,,,,,,,,,,,,,,,,,,,,,,,,,,,,,,,,,,,,,,,,,,,,,猖狂,i,,,i,1,0.8576,1,40,120,45,1,,
,,,,,,,,,,,,,,1,001,2024-08-23_15h31.13.642,IAT(Formal),2021.2.3,Win32,60.60606061,,,,,,,,,,,,,,,,,,,,,,,,,,,,,,,,,,,,,,,,,,,,,,,,,,,,自己,i,,,i,1,0.6254,1,41,121,63,1,,
,,,,,,,,,,,,,,1,001,2024-08-23_15h31.13.642,IAT(Formal),2021.2.3,Win32,60.60606061,,,,,,,,,,,,,,,,,,,,,,,,,,,,,,,,,,,,,,,,,,,,,,,,,,,,杰出,e,,,i,0,0.5899,1,42,122,13,1,,
,,,,,,,,,,,,,,1,001,2024-08-23_15h31.13.642,IAT(Formal),2021.2.3,Win32,60.60606061,,,,,,,,,,,,,,,,,,,,,,,,,,,,,,,,,,,,,,,,,,,,,,,,,,,,消极,i,,,i,1,0.8899,1,43,123,35,1,,
,,,,,,,,,,,,,,1,001,2024-08-23_15h31.13.642,IAT(Formal),2021.2.3,Win32,60.60606061,,,,,,,,,,,,,,,,,,,,,,,,,,,,,,,,,,,,,,,,,,,,,,,,,,,,暴躁,i,,,i,1,0.5557,1,44,124,44,1,,
,,,,,,,,,,,,,,1,001,2024-08-23_15h31.13.642,IAT(Formal),2021.2.3,Win32,60.60606061,,,,,,,,,,,,,,,,,,,,,,,,,,,,,,,,,,,,,,,,,,,,,,,,,,,,悲观,i,,,e,0,0.801,1,45,125,34,1,,
,,,,,,,,,,,,,,1,001,2024-08-23_15h31.13.642,IAT(Formal),2021.2.3,Win32,60.60606061,,,,,,,,,,,,,,,,,,,,,,,,,,,,,,,,,,,,,,,,,,,,,,,,,,,,崇高,e,,,e,1,1.0892,1,46,126,11,1,,
,,,,,,,,,,,,,,1,001,2024-08-23_15h31.13.642,IAT(Formal),2021.2.3,Win32,60.60606061,,,,,,,,,,,,,,,,,,,,,,,,,,,,,,,,,,,,,,,,,,,,,,,,,,,,我们,i,,,i,1,0.5278,1,47,127,62,1,,
,,,,,,,,,,,,,,1,001,2024-08-23_15h31.13.642,IAT(Formal),2021.2.3,Win32,60.60606061,,,,,,,,,,,,,,,,,,,,,,,,,,,,,,,,,,,,,,,,,,,,,,,,,,,,他,e,,,e,1,0.7847,1,48,128,65,1,,
,,,,,,,,,,,,,,1,001,2024-08-23_15h31.13.642,IAT(Formal),2021.2.3,Win32,60.60606061,,,,,,,,,,,,,,,,,,,,,,,,,,,,,,,,,,,,,,,,,,,,,,,,,,,,优秀,e,,,i,0,1.1428,1,49,129,10,1,,
,,,,,,,,,,,,,,1,001,2024-08-23_15h31.13.642,IAT(Formal),2021.2.3,Win32,60.60606061,,,,,,,,,,,,,,,,,,,,,,,,,,,,,,,,,,,,,,,,,,,,,,,,,,,,公正,e,,,e,1,1.0253,1,50,130,23,1,,
,,,,,,,,,,,,,,1,001,2024-08-23_15h31.13.642,IAT(Formal),2021.2.3,Win32,60.60606061,,,,,,,,,,,,,,,,,,,,,,,,,,,,,,,,,,,,,,,,,,,,,,,,,,,,朴实,e,,,e,1,0.7092,1,51,131,24,1,,
,,,,,,,,,,,,,,1,001,2024-08-23_15h31.13.642,IAT(Formal),2021.2.3,Win32,60.60606061,,,,,,,,,,,,,,,,,,,,,,,,,,,,,,,,,,,,,,,,,,,,,,,,,,,,我们,i,,,i,1,0.7526,1,52,132,52,1,,
,,,,,,,,,,,,,,1,001,2024-08-23_15h31.13.642,IAT(Formal),2021.2.3,Win32,60.60606061,,,,,,,,,,,,,,,,,,,,,,,,,,,,,,,,,,,,,,,,,,,,,,,,,,,,他们,e,,,e,1,0.6736,1,53,133,56,1,,
,,,,,,,,,,,,,,1,001,2024-08-23_15h31.13.642,IAT(Formal),2021.2.3,Win32,60.60606061,,,,,,,,,,,,,,,,,,,,,,,,,,,,,,,,,,,,,,,,,,,,,,,,,,,,野蛮,i,,,i,1,0.8918,1,54,134,46,1,,
,,,,,,,,,,,,,,1,001,2024-08-23_15h31.13.642,IAT(Formal),2021.2.3,Win32,60.60606061,,,,,,,,,,,,,,,,,,,,,,,,,,,,,,,,,,,,,,,,,,,,,,,,,,,,乐观,e,,,e,1,0.7757,1,55,135,14,1,,
,,,,,,,,,,,,,,1,001,2024-08-23_15h31.13.642,IAT(Formal),2021.2.3,Win32,60.60606061,,,,,,,,,,,,,,,,,,,,,,,,,,,,,,,,,,,,,,,,,,,,,,,,,,,,轻率,i,,,e,0,0.8343,1,56,136,48,1,,
,,,,,,,,,,,,,,1,001,2024-08-23_15h31.13.642,IAT(Formal),2021.2.3,Win32,60.60606061,,,,,,,,,,,,,,,,,,,,,,,,,,,,,,,,,,,,,,,,,,,,,,,,,,,,细腻,e,,,e,1,0.4464,1,57,137,25,1,,
,,,,,,,,,,,,,,1,001,2024-08-23_15h31.13.642,IAT(Formal),2021.2.3,Win32,60.60606061,,,,,,,,,,,,,,,,,,,,,,,,,,,,,,,,,,,,,,,,,,,,,,,,,,,,稳重,e,,,i,0,0.8511,1,58,138,21,1,,
,,,,,,,,,,,,,,1,001,2024-08-23_15h31.13.642,IAT(Formal),2021.2.3,Win32,60.60606061,,,,,,,,,,,,,,,,,,,,,,,,,,,,,,,,,,,,,,,,,,,,,,,,,,,,鲁莽,i,,,e,0,1.0178,1,59,139,38,1,,
,,,,,,,,,,,,,,1,001,2024-08-23_15h31.13.642,IAT(Formal),2021.2.3,Win32,60.60606061,,,,,,,,,,,,,,,,,,,,,,,,,,,,,,,,,,,,,,,,,,,,,,,,,,,,执拗,i,,,i,1,0.7679,1,60,140,40,1,,
,,,,,,,,,,,,,,1,001,2024-08-23_15h31.13.642,IAT(Formal),2021.2.3,Win32,60.60606061,,,,,,,,,,,,,,,,,,,,,,,,,,,,,,,,,,,,,,,,,,,,,,,,,,,,诚恳,e,,,e,1,0.7841,1,61,141,29,1,,
,,,,,,,,,,,,,,1,001,2024-08-23_15h31.13.642,IAT(Formal),2021.2.3,Win32,60.60606061,,,,,,,,,,,,,,,,,,,,,,,,,,,,,,,,,,,,,,,,,,,,,,,,,,,,他人,e,,,e,1,0.9337,1,62,142,8,1,,
,,,,,,,,,,,,,,1,001,2024-08-23_15h31.13.642,IAT(Formal),2021.2.3,Win32,60.60606061,,,,,,,,,,,,,,,,,,,,,,,,,,,,,,,,,,,,,,,,,,,,,,,,,,,,机智,e,,,e,1,0.751,1,63,143,19,1,,
,,,,,,,,,,,,,,1,001,2024-08-23_15h31.13.642,IAT(Formal),2021.2.3,Win32,60.60606061,,,,,,,,,,,,,,,,,,,,,,,,,,,,,,,,,,,,,,,,,,,,,,,,,,,,我的,i,,,i,1,0.5507,1,64,144,1,1,,
,,,,,,,,,,,,,,1,001,2024-08-23_15h31.13.642,IAT(Formal),2021.2.3,Win32,60.60606061,,,,,,,,,,,,,,,,,,,,,,,,,,,,,,,,,,,,,,,,,,,,,,,,,,,,他的,e,,,e,1,0.4513,1,65,145,67,1,,
,,,,,,,,,,,,,,1,001,2024-08-23_15h31.13.642,IAT(Formal),2021.2.3,Win32,60.60606061,,,,,,,,,,,,,,,,,,,,,,,,,,,,,,,,,,,,,,,,,,,,,,,,,,,,俺,i,,,i,1,0.6005,1,66,146,74,1,,
,,,,,,,,,,,,,,1,001,2024-08-23_15h31.13.642,IAT(Formal),2021.2.3,Win32,60.60606061,,,,,,,,,,,,,,,,,,,,,,,,,,,,,,,,,,,,,,,,,,,,,,,,,,,,下贱,i,,,i,1,0.6515,1,67,147,49,1,,
,,,,,,,,,,,,,,1,001,2024-08-23_15h31.13.642,IAT(Formal),2021.2.3,Win32,60.60606061,,,,,,,,,,,,,,,,,,,,,,,,,,,,,,,,,,,,,,,,,,,,,,,,,,,,他的,e,,,e,1,0.5179,1,68,148,57,1,,
,,,,,,,,,,,,,,1,001,2024-08-23_15h31.13.642,IAT(Formal),2021.2.3,Win32,60.60606061,,,,,,,,,,,,,,,,,,,,,,,,,,,,,,,,,,,,,,,,,,,,,,,,,,,,他的,e,,,e,1,0.5838,1,69,149,77,1,,
,,,,,,,,,,,,,,1,001,2024-08-23_15h31.13.642,IAT(Formal),2021.2.3,Win32,60.60606061,,,,,,,,,,,,,,,,,,,,,,,,,,,,,,,,,,,,,,,,,,,,,,,,,,,,他人,e,,,e,1,0.4676,1,70,150,78,1,,
,,,,,,,,,,,,,,1,001,2024-08-23_15h31.13.642,IAT(Formal),2021.2.3,Win32,60.60606061,,,,,,,,,,,,,,,,,,,,,,,,,,,,,,,,,,,,,,,,,,,,,,,,,,,,其他,e,,,e,1,0.6013,1,71,151,9,1,,
,,,,,,,,,,,,,,1,001,2024-08-23_15h31.13.642,IAT(Formal),2021.2.3,Win32,60.60606061,,,,,,,,,,,,,,,,,,,,,,,,,,,,,,,,,,,,,,,,,,,,,,,,,,,,我们,i,,,i,1,0.6847,1,72,152,72,1,,
,,,,,,,,,,,,,,1,001,2024-08-23_15h31.13.642,IAT(Formal),2021.2.3,Win32,60.60606061,,,,,,,,,,,,,,,,,,,,,,,,,,,,,,,,,,,,,,,,,,,,,,,,,,,,热情,e,,,,0,,1,73,153,27,1,,
,,,,,,,,,,,,,,1,001,2024-08-23_15h31.13.642,IAT(Formal),2021.2.3,Win32,60.60606061,,,,,,,,,,,,,,,,,,,,,,,,,,,,,,,,,,,,,,,,,,,,,,,,,,,,诚实,e,,,e,1,1.167,1,74,154,15,1,,
,,,,,,,,,,,,,,1,001,2024-08-23_15h31.13.642,IAT(Formal),2021.2.3,Win32,60.60606061,,,,,,,,,,,,,,,,,,,,,,,,,,,,,,,,,,,,,,,,,,,,,,,,,,,,认真,e,,,e,1,1.2176,1,75,155,20,1,,
,,,,,,,,,,,,,,1,001,2024-08-23_15h31.13.642,IAT(Formal),2021.2.3,Win32,60.60606061,,,,,,,,,,,,,,,,,,,,,,,,,,,,,,,,,,,,,,,,,,,,,,,,,,,,他们,e,,,i,0,0.9509,1,76,156,66,1,,
,,,,,,,,,,,,,,1,001,2024-08-23_15h31.13.642,IAT(Formal),2021.2.3,Win32,60.60606061,,,,,,,,,,,,,,,,,,,,,,,,,,,,,,,,,,,,,,,,,,,,,,,,,,,,正直,e,,,e,1,1.133,1,77,157,16,1,,
,,,,,,,,,,,,,,1,001,2024-08-23_15h31.13.642,IAT(Formal),2021.2.3,Win32,60.60606061,,,,,,,,,,,,,,,,,,,,,,,,,,,,,,,,,,,,,,,,,,,,,,,,,,,,固执,i,,,,0,,1,78,158,47,1,,
,,,,,,,,,,,,,,1,001,2024-08-23_15h31.13.642,IAT(Formal),2021.2.3,Win32,60.60606061,,,,,,,,,,,,,,,,,,,,,,,,,,,,,,,,,,,,,,,,,,,,,,,,,,,,傲慢,i,,,i,1,0.5671,1,79,159,37,1,,
,,,,,,,,,,,,,,1,001,2024-08-23_15h31.13.642,IAT(Formal),2021.2.3,Win32,60.60606061,,,,,,,,,,,,,,,,,,,,,,,,,,,,,,,,,,,,,,,,,,,,,,,,,,,,,,,,,,,,,,,,space,1.5568