﻿Instruction1.keys,Instruction1.rt,Instruction2.keys,Instruction2.rt,key_resp_iso.keys,key_resp_iso.corr,key_resp_iso.rt,Practice_01.thisRepN,Practice_01.thisTrialN,Practice_01.thisN,Practice_01.thisIndex,Practice_01.ran,Words,ans,participant,session,date,expName,psychopyVersion,OS,frameRate,key_resp_3.keys,key_resp_3.rt,key_resp_ipn.keys,key_resp_ipn.corr,key_resp_ipn.rt,Practice_02.thisRepN,Practice_02.thisTrialN,Practice_02.thisN,Practice_02.thisIndex,Practice_02.ran,Words_ipn,ans_ipn,key_resp_4.keys,key_resp_4.rt,key_resp_t1.keys,key_resp_t1.corr,key_resp_t1.rt,Practice_T1.thisRepN,Practice_T1.thisTrialN,Practice_T1.thisN,Practice_T1.thisIndex,Practice_T1.ran,Words_t1,ans_t1,key_resp_5.keys,key_resp_5.rt,Formal_T1.thisRepN,Formal_T1.thisTrialN,Formal_T1.thisN,Formal_T1.thisIndex,Formal_T1.ran,key_resp_6.keys,key_resp_6.rt,key_resp_iso_reverse.keys,key_resp_iso_reverse.corr,key_resp_iso_reverse.rt,Practice_iso_Reverse.thisRepN,Practice_iso_Reverse.thisTrialN,Practice_iso_Reverse.thisN,Practice_iso_Reverse.thisIndex,Practice_iso_Reverse.ran,key_resp_7.keys,key_resp_7.rt,key_resp_t2_Practice.keys,key_resp_t2_Practice.corr,key_resp_t2_Practice.rt,Practice_t2_Reverse.thisRepN,Practice_t2_Reverse.thisTrialN,Practice_t2_Reverse.thisN,Practice_t2_Reverse.thisIndex,Practice_t2_Reverse.ran,Words_t2,ans_t2,key_resp_8.keys,key_resp_8.rt,key_resp_t2.keys,key_resp_t2.corr,key_resp_t2.rt,Formal_t2_reverse.thisRepN,Formal_t2_reverse.thisTrialN,Formal_t2_reverse.thisN,Formal_t2_reverse.thisIndex,Formal_t2_reverse.ran,key_instruct.keys,key_instruct.rt
space,2.8454,space,2.469,i,1,1.0843,0,0,0,5,1,他,i,1,001,2025-02-17_15h07.52.783,IAT(Formal),2021.2.3,Win32,169.4915254,,,,,,,,,,,,,,,,,,,,,,,,,,,,,,,,,,,,,,,,,,,,,,,,,,,,,,,,,,,,,,,,,
,,,,i,1,0.4017,0,1,1,8,1,他人,i,1,001,2025-02-17_15h07.52.783,IAT(Formal),2021.2.3,Win32,169.4915254,,,,,,,,,,,,,,,,,,,,,,,,,,,,,,,,,,,,,,,,,,,,,,,,,,,,,,,,,,,,,,,,,
,,,,i,1,0.4732,0,2,2,6,1,他们,i,1,001,2025-02-17_15h07.52.783,IAT(Formal),2021.2.3,Win32,169.4915254,,,,,,,,,,,,,,,,,,,,,,,,,,,,,,,,,,,,,,,,,,,,,,,,,,,,,,,,,,,,,,,,,
,,,,i,1,0.3852,0,3,3,7,1,他的,i,1,001,2025-02-17_15h07.52.783,IAT(Formal),2021.2.3,Win32,169.4915254,,,,,,,,,,,,,,,,,,,,,,,,,,,,,,,,,,,,,,,,,,,,,,,,,,,,,,,,,,,,,,,,,
,,,,e,1,0.5433,0,4,4,1,1,我的,e,1,001,2025-02-17_15h07.52.783,IAT(Formal),2021.2.3,Win32,169.4915254,,,,,,,,,,,,,,,,,,,,,,,,,,,,,,,,,,,,,,,,,,,,,,,,,,,,,,,,,,,,,,,,,
,,,,e,1,0.5035,0,5,5,0,1,我,e,1,001,2025-02-17_15h07.52.783,IAT(Formal),2021.2.3,Win32,169.4915254,,,,,,,,,,,,,,,,,,,,,,,,,,,,,,,,,,,,,,,,,,,,,,,,,,,,,,,,,,,,,,,,,
,,,,e,1,0.5788,0,6,6,4,1,俺,e,1,001,2025-02-17_15h07.52.783,IAT(Formal),2021.2.3,Win32,169.4915254,,,,,,,,,,,,,,,,,,,,,,,,,,,,,,,,,,,,,,,,,,,,,,,,,,,,,,,,,,,,,,,,,
,,,,i,1,0.54,0,7,7,9,1,其他,i,1,001,2025-02-17_15h07.52.783,IAT(Formal),2021.2.3,Win32,169.4915254,,,,,,,,,,,,,,,,,,,,,,,,,,,,,,,,,,,,,,,,,,,,,,,,,,,,,,,,,,,,,,,,,
,,,,,0,,0,8,8,2,1,我们,e,1,001,2025-02-17_15h07.52.783,IAT(Formal),2021.2.3,Win32,169.4915254,,,,,,,,,,,,,,,,,,,,,,,,,,,,,,,,,,,,,,,,,,,,,,,,,,,,,,,,,,,,,,,,,
,,,,e,1,0.4937,0,9,9,3,1,自己,e,1,001,2025-02-17_15h07.52.783,IAT(Formal),2021.2.3,Win32,169.4915254,,,,,,,,,,,,,,,,,,,,,,,,,,,,,,,,,,,,,,,,,,,,,,,,,,,,,,,,,,,,,,,,,
,,,,,,,,,,,,,,1,001,2025-02-17_15h07.52.783,IAT(Formal),2021.2.3,Win32,169.4915254,space,2.8575,i,1,0.6552,0,0,0,34,1,暴躁,i,,,,,,,,,,,,,,,,,,,,,,,,,,,,,,,,,,,,,,,,,,,,,,,,,,,,,
,,,,,,,,,,,,,,1,001,2025-02-17_15h07.52.783,IAT(Formal),2021.2.3,Win32,169.4915254,,,e,1,0.8001,0,1,1,1,1,崇高,e,,,,,,,,,,,,,,,,,,,,,,,,,,,,,,,,,,,,,,,,,,,,,,,,,,,,,
,,,,,,,,,,,,,,1,001,2025-02-17_15h07.52.783,IAT(Formal),2021.2.3,Win32,169.4915254,,,i,1,0.4794,0,2,2,27,1,傲慢,i,,,,,,,,,,,,,,,,,,,,,,,,,,,,,,,,,,,,,,,,,,,,,,,,,,,,,
,,,,,,,,,,,,,,1,001,2025-02-17_15h07.52.783,IAT(Formal),2021.2.3,Win32,169.4915254,,,i,1,0.4755,0,3,3,35,1,猖狂,i,,,,,,,,,,,,,,,,,,,,,,,,,,,,,,,,,,,,,,,,,,,,,,,,,,,,,
,,,,,,,,,,,,,,1,001,2025-02-17_15h07.52.783,IAT(Formal),2021.2.3,Win32,169.4915254,,,e,1,0.8544,0,4,4,11,1,稳重,e,,,,,,,,,,,,,,,,,,,,,,,,,,,,,,,,,,,,,,,,,,,,,,,,,,,,,
,,,,,,,,,,,,,,1,001,2025-02-17_15h07.52.783,IAT(Formal),2021.2.3,Win32,169.4915254,,,e,1,0.6989,0,5,5,4,1,乐观,e,,,,,,,,,,,,,,,,,,,,,,,,,,,,,,,,,,,,,,,,,,,,,,,,,,,,,
,,,,,,,,,,,,,,1,001,2025-02-17_15h07.52.783,IAT(Formal),2021.2.3,Win32,169.4915254,,,i,1,0.5035,0,6,6,28,1,鲁莽,i,,,,,,,,,,,,,,,,,,,,,,,,,,,,,,,,,,,,,,,,,,,,,,,,,,,,,
,,,,,,,,,,,,,,1,001,2025-02-17_15h07.52.783,IAT(Formal),2021.2.3,Win32,169.4915254,,,i,1,0.4867,0,7,7,36,1,野蛮,i,,,,,,,,,,,,,,,,,,,,,,,,,,,,,,,,,,,,,,,,,,,,,,,,,,,,,
,,,,,,,,,,,,,,1,001,2025-02-17_15h07.52.783,IAT(Formal),2021.2.3,Win32,169.4915254,,,e,1,0.4677,0,8,8,0,1,优秀,e,,,,,,,,,,,,,,,,,,,,,,,,,,,,,,,,,,,,,,,,,,,,,,,,,,,,,
,,,,,,,,,,,,,,1,001,2025-02-17_15h07.52.783,IAT(Formal),2021.2.3,Win32,169.4915254,,,i,1,0.4201,0,9,9,31,1,散漫,i,,,,,,,,,,,,,,,,,,,,,,,,,,,,,,,,,,,,,,,,,,,,,,,,,,,,,
,,,,,,,,,,,,,,1,001,2025-02-17_15h07.52.783,IAT(Formal),2021.2.3,Win32,169.4915254,,,i,0,0.4443,0,10,10,15,1,细腻,e,,,,,,,,,,,,,,,,,,,,,,,,,,,,,,,,,,,,,,,,,,,,,,,,,,,,,
,,,,,,,,,,,,,,1,001,2025-02-17_15h07.52.783,IAT(Formal),2021.2.3,Win32,169.4915254,,,i,0,0.6242,0,11,11,12,1,无私,e,,,,,,,,,,,,,,,,,,,,,,,,,,,,,,,,,,,,,,,,,,,,,,,,,,,,,
,,,,,,,,,,,,,,1,001,2025-02-17_15h07.52.783,IAT(Formal),2021.2.3,Win32,169.4915254,,,i,1,0.4687,0,12,12,24,1,悲观,i,,,,,,,,,,,,,,,,,,,,,,,,,,,,,,,,,,,,,,,,,,,,,,,,,,,,,
,,,,,,,,,,,,,,1,001,2025-02-17_15h07.52.783,IAT(Formal),2021.2.3,Win32,169.4915254,,,e,1,0.4106,0,13,13,6,1,正直,e,,,,,,,,,,,,,,,,,,,,,,,,,,,,,,,,,,,,,,,,,,,,,,,,,,,,,
,,,,,,,,,,,,,,1,001,2025-02-17_15h07.52.783,IAT(Formal),2021.2.3,Win32,169.4915254,,,e,1,0.4675,0,14,14,7,1,勇敢,e,,,,,,,,,,,,,,,,,,,,,,,,,,,,,,,,,,,,,,,,,,,,,,,,,,,,,
,,,,,,,,,,,,,,1,001,2025-02-17_15h07.52.783,IAT(Formal),2021.2.3,Win32,169.4915254,,,i,1,0.6126,0,15,15,26,1,自卑,i,,,,,,,,,,,,,,,,,,,,,,,,,,,,,,,,,,,,,,,,,,,,,,,,,,,,,
,,,,,,,,,,,,,,1,001,2025-02-17_15h07.52.783,IAT(Formal),2021.2.3,Win32,169.4915254,,,i,1,0.8608,0,16,16,25,1,消极,i,,,,,,,,,,,,,,,,,,,,,,,,,,,,,,,,,,,,,,,,,,,,,,,,,,,,,
,,,,,,,,,,,,,,1,001,2025-02-17_15h07.52.783,IAT(Formal),2021.2.3,Win32,169.4915254,,,i,1,1.0287,0,17,17,38,1,轻率,i,,,,,,,,,,,,,,,,,,,,,,,,,,,,,,,,,,,,,,,,,,,,,,,,,,,,,
,,,,,,,,,,,,,,1,001,2025-02-17_15h07.52.783,IAT(Formal),2021.2.3,Win32,169.4915254,,,i,1,0.4395,0,18,18,21,1,虚伪,i,,,,,,,,,,,,,,,,,,,,,,,,,,,,,,,,,,,,,,,,,,,,,,,,,,,,,
,,,,,,,,,,,,,,1,001,2025-02-17_15h07.52.783,IAT(Formal),2021.2.3,Win32,169.4915254,,,e,1,1.0849,0,19,19,16,1,冷静,e,,,,,,,,,,,,,,,,,,,,,,,,,,,,,,,,,,,,,,,,,,,,,,,,,,,,,
,,,,,,,,,,,,,,1,001,2025-02-17_15h07.52.783,IAT(Formal),2021.2.3,Win32,169.4915254,,,e,1,0.5646,0,20,20,19,1,诚恳,e,,,,,,,,,,,,,,,,,,,,,,,,,,,,,,,,,,,,,,,,,,,,,,,,,,,,,
,,,,,,,,,,,,,,1,001,2025-02-17_15h07.52.783,IAT(Formal),2021.2.3,Win32,169.4915254,,,e,0,0.5221,0,21,21,37,1,固执,i,,,,,,,,,,,,,,,,,,,,,,,,,,,,,,,,,,,,,,,,,,,,,,,,,,,,,
,,,,,,,,,,,,,,1,001,2025-02-17_15h07.52.783,IAT(Formal),2021.2.3,Win32,169.4915254,,,e,1,0.6857,0,22,22,13,1,公正,e,,,,,,,,,,,,,,,,,,,,,,,,,,,,,,,,,,,,,,,,,,,,,,,,,,,,,
,,,,,,,,,,,,,,1,001,2025-02-17_15h07.52.783,IAT(Formal),2021.2.3,Win32,169.4915254,,,i,1,1.193,0,23,23,29,1,冒失,i,,,,,,,,,,,,,,,,,,,,,,,,,,,,,,,,,,,,,,,,,,,,,,,,,,,,,
,,,,,,,,,,,,,,1,001,2025-02-17_15h07.52.783,IAT(Formal),2021.2.3,Win32,169.4915254,,,,0,,0,24,24,9,1,机智,e,,,,,,,,,,,,,,,,,,,,,,,,,,,,,,,,,,,,,,,,,,,,,,,,,,,,,
,,,,,,,,,,,,,,1,001,2025-02-17_15h07.52.783,IAT(Formal),2021.2.3,Win32,169.4915254,,,e,1,0.7588,0,25,25,18,1,活泼,e,,,,,,,,,,,,,,,,,,,,,,,,,,,,,,,,,,,,,,,,,,,,,,,,,,,,,
,,,,,,,,,,,,,,1,001,2025-02-17_15h07.52.783,IAT(Formal),2021.2.3,Win32,169.4915254,,,i,1,0.5029,0,26,26,39,1,下贱,i,,,,,,,,,,,,,,,,,,,,,,,,,,,,,,,,,,,,,,,,,,,,,,,,,,,,,
,,,,,,,,,,,,,,1,001,2025-02-17_15h07.52.783,IAT(Formal),2021.2.3,Win32,169.4915254,,,i,1,0.4665,0,27,27,22,1,愚蠢,i,,,,,,,,,,,,,,,,,,,,,,,,,,,,,,,,,,,,,,,,,,,,,,,,,,,,,
,,,,,,,,,,,,,,1,001,2025-02-17_15h07.52.783,IAT(Formal),2021.2.3,Win32,169.4915254,,,e,1,0.4678,0,28,28,5,1,诚实,e,,,,,,,,,,,,,,,,,,,,,,,,,,,,,,,,,,,,,,,,,,,,,,,,,,,,,
,,,,,,,,,,,,,,1,001,2025-02-17_15h07.52.783,IAT(Formal),2021.2.3,Win32,169.4915254,,,e,0,1.3816,0,29,29,33,1,自私,i,,,,,,,,,,,,,,,,,,,,,,,,,,,,,,,,,,,,,,,,,,,,,,,,,,,,,
,,,,,,,,,,,,,,1,001,2025-02-17_15h07.52.783,IAT(Formal),2021.2.3,Win32,169.4915254,,,e,1,0.449,0,30,30,2,1,聪明,e,,,,,,,,,,,,,,,,,,,,,,,,,,,,,,,,,,,,,,,,,,,,,,,,,,,,,
,,,,,,,,,,,,,,1,001,2025-02-17_15h07.52.783,IAT(Formal),2021.2.3,Win32,169.4915254,,,e,1,0.4941,0,31,31,3,1,杰出,e,,,,,,,,,,,,,,,,,,,,,,,,,,,,,,,,,,,,,,,,,,,,,,,,,,,,,
,,,,,,,,,,,,,,1,001,2025-02-17_15h07.52.783,IAT(Formal),2021.2.3,Win32,169.4915254,,,e,1,0.4364,0,32,32,8,1,勤奋,e,,,,,,,,,,,,,,,,,,,,,,,,,,,,,,,,,,,,,,,,,,,,,,,,,,,,,
,,,,,,,,,,,,,,1,001,2025-02-17_15h07.52.783,IAT(Formal),2021.2.3,Win32,169.4915254,,,i,1,0.4934,0,33,33,23,1,刻薄,i,,,,,,,,,,,,,,,,,,,,,,,,,,,,,,,,,,,,,,,,,,,,,,,,,,,,,
,,,,,,,,,,,,,,1,001,2025-02-17_15h07.52.783,IAT(Formal),2021.2.3,Win32,169.4915254,,,i,0,0.6182,0,34,34,10,1,认真,e,,,,,,,,,,,,,,,,,,,,,,,,,,,,,,,,,,,,,,,,,,,,,,,,,,,,,
,,,,,,,,,,,,,,1,001,2025-02-17_15h07.52.783,IAT(Formal),2021.2.3,Win32,169.4915254,,,e,1,0.7307,0,35,35,17,1,热情,e,,,,,,,,,,,,,,,,,,,,,,,,,,,,,,,,,,,,,,,,,,,,,,,,,,,,,
,,,,,,,,,,,,,,1,001,2025-02-17_15h07.52.783,IAT(Formal),2021.2.3,Win32,169.4915254,,,i,1,0.559,0,36,36,20,1,卑鄙,i,,,,,,,,,,,,,,,,,,,,,,,,,,,,,,,,,,,,,,,,,,,,,,,,,,,,,
,,,,,,,,,,,,,,1,001,2025-02-17_15h07.52.783,IAT(Formal),2021.2.3,Win32,169.4915254,,,i,1,0.9027,0,37,37,32,1,凶狠,i,,,,,,,,,,,,,,,,,,,,,,,,,,,,,,,,,,,,,,,,,,,,,,,,,,,,,
,,,,,,,,,,,,,,1,001,2025-02-17_15h07.52.783,IAT(Formal),2021.2.3,Win32,169.4915254,,,,0,,0,38,38,30,1,执拗,i,,,,,,,,,,,,,,,,,,,,,,,,,,,,,,,,,,,,,,,,,,,,,,,,,,,,,
,,,,,,,,,,,,,,1,001,2025-02-17_15h07.52.783,IAT(Formal),2021.2.3,Win32,169.4915254,,,e,1,0.6366,0,39,39,14,1,朴实,e,,,,,,,,,,,,,,,,,,,,,,,,,,,,,,,,,,,,,,,,,,,,,,,,,,,,,
,,,,,,,,,,,,,,1,001,2025-02-17_15h07.52.783,IAT(Formal),2021.2.3,Win32,169.4915254,,,,,,,,,,,,,space,3.2144,e,1,0.697,0,0,0,15,1,诚实,e,,,,,,,,,,,,,,,,,,,,,,,,,,,,,,,,,,,,,,,,,
,,,,,,,,,,,,,,1,001,2025-02-17_15h07.52.783,IAT(Formal),2021.2.3,Win32,169.4915254,,,,,,,,,,,,,,,e,0,0.4265,0,1,1,7,1,他的,i,,,,,,,,,,,,,,,,,,,,,,,,,,,,,,,,,,,,,,,,,
,,,,,,,,,,,,,,1,001,2025-02-17_15h07.52.783,IAT(Formal),2021.2.3,Win32,169.4915254,,,,,,,,,,,,,,,e,1,0.5049,0,2,2,1,1,我的,e,,,,,,,,,,,,,,,,,,,,,,,,,,,,,,,,,,,,,,,,,
,,,,,,,,,,,,,,1,001,2025-02-17_15h07.52.783,IAT(Formal),2021.2.3,Win32,169.4915254,,,,,,,,,,,,,,,i,1,0.594,0,3,3,46,1,野蛮,i,,,,,,,,,,,,,,,,,,,,,,,,,,,,,,,,,,,,,,,,,
,,,,,,,,,,,,,,1,001,2025-02-17_15h07.52.783,IAT(Formal),2021.2.3,Win32,169.4915254,,,,,,,,,,,,,,,i,1,0.4863,0,4,4,58,1,他人,i,,,,,,,,,,,,,,,,,,,,,,,,,,,,,,,,,,,,,,,,,
,,,,,,,,,,,,,,1,001,2025-02-17_15h07.52.783,IAT(Formal),2021.2.3,Win32,169.4915254,,,,,,,,,,,,,,,e,1,0.6791,0,5,5,25,1,细腻,e,,,,,,,,,,,,,,,,,,,,,,,,,,,,,,,,,,,,,,,,,
,,,,,,,,,,,,,,1,001,2025-02-17_15h07.52.783,IAT(Formal),2021.2.3,Win32,169.4915254,,,,,,,,,,,,,,,i,1,0.8251,0,6,6,59,1,其他,i,,,,,,,,,,,,,,,,,,,,,,,,,,,,,,,,,,,,,,,,,
,,,,,,,,,,,,,,1,001,2025-02-17_15h07.52.783,IAT(Formal),2021.2.3,Win32,169.4915254,,,,,,,,,,,,,,,e,1,0.4725,0,7,7,54,1,俺,e,,,,,,,,,,,,,,,,,,,,,,,,,,,,,,,,,,,,,,,,,
,,,,,,,,,,,,,,1,001,2025-02-17_15h07.52.783,IAT(Formal),2021.2.3,Win32,169.4915254,,,,,,,,,,,,,,,e,1,0.4787,0,8,8,73,1,自己,e,,,,,,,,,,,,,,,,,,,,,,,,,,,,,,,,,,,,,,,,,
,,,,,,,,,,,,,,1,001,2025-02-17_15h07.52.783,IAT(Formal),2021.2.3,Win32,169.4915254,,,,,,,,,,,,,,,e,1,0.5238,0,9,9,10,1,优秀,e,,,,,,,,,,,,,,,,,,,,,,,,,,,,,,,,,,,,,,,,,
,,,,,,,,,,,,,,1,001,2025-02-17_15h07.52.783,IAT(Formal),2021.2.3,Win32,169.4915254,,,,,,,,,,,,,,,e,1,0.7093,0,10,10,11,1,崇高,e,,,,,,,,,,,,,,,,,,,,,,,,,,,,,,,,,,,,,,,,,
,,,,,,,,,,,,,,1,001,2025-02-17_15h07.52.783,IAT(Formal),2021.2.3,Win32,169.4915254,,,,,,,,,,,,,,,e,1,0.71,0,11,11,24,1,朴实,e,,,,,,,,,,,,,,,,,,,,,,,,,,,,,,,,,,,,,,,,,
,,,,,,,,,,,,,,1,001,2025-02-17_15h07.52.783,IAT(Formal),2021.2.3,Win32,169.4915254,,,,,,,,,,,,,,,i,1,0.4617,0,12,12,76,1,他们,i,,,,,,,,,,,,,,,,,,,,,,,,,,,,,,,,,,,,,,,,,
,,,,,,,,,,,,,,1,001,2025-02-17_15h07.52.783,IAT(Formal),2021.2.3,Win32,169.4915254,,,,,,,,,,,,,,,e,1,1.2124,0,13,13,70,1,我,e,,,,,,,,,,,,,,,,,,,,,,,,,,,,,,,,,,,,,,,,,
,,,,,,,,,,,,,,1,001,2025-02-17_15h07.52.783,IAT(Formal),2021.2.3,Win32,169.4915254,,,,,,,,,,,,,,,i,1,0.5569,0,14,14,43,1,自私,i,,,,,,,,,,,,,,,,,,,,,,,,,,,,,,,,,,,,,,,,,
,,,,,,,,,,,,,,1,001,2025-02-17_15h07.52.783,IAT(Formal),2021.2.3,Win32,169.4915254,,,,,,,,,,,,,,,i,0,0.5224,0,15,15,71,1,我的,e,,,,,,,,,,,,,,,,,,,,,,,,,,,,,,,,,,,,,,,,,
,,,,,,,,,,,,,,1,001,2025-02-17_15h07.52.783,IAT(Formal),2021.2.3,Win32,169.4915254,,,,,,,,,,,,,,,i,1,0.4974,0,16,16,33,1,刻薄,i,,,,,,,,,,,,,,,,,,,,,,,,,,,,,,,,,,,,,,,,,
,,,,,,,,,,,,,,1,001,2025-02-17_15h07.52.783,IAT(Formal),2021.2.3,Win32,169.4915254,,,,,,,,,,,,,,,i,1,0.4614,0,17,17,5,1,他,i,,,,,,,,,,,,,,,,,,,,,,,,,,,,,,,,,,,,,,,,,
,,,,,,,,,,,,,,1,001,2025-02-17_15h07.52.783,IAT(Formal),2021.2.3,Win32,169.4915254,,,,,,,,,,,,,,,e,1,0.5585,0,18,18,2,1,我们,e,,,,,,,,,,,,,,,,,,,,,,,,,,,,,,,,,,,,,,,,,
,,,,,,,,,,,,,,1,001,2025-02-17_15h07.52.783,IAT(Formal),2021.2.3,Win32,169.4915254,,,,,,,,,,,,,,,e,1,0.3909,0,19,19,53,1,自己,e,,,,,,,,,,,,,,,,,,,,,,,,,,,,,,,,,,,,,,,,,
,,,,,,,,,,,,,,1,001,2025-02-17_15h07.52.783,IAT(Formal),2021.2.3,Win32,169.4915254,,,,,,,,,,,,,,,i,1,1.0428,0,20,20,47,1,固执,i,,,,,,,,,,,,,,,,,,,,,,,,,,,,,,,,,,,,,,,,,
,,,,,,,,,,,,,,1,001,2025-02-17_15h07.52.783,IAT(Formal),2021.2.3,Win32,169.4915254,,,,,,,,,,,,,,,e,1,0.6301,0,21,21,26,1,冷静,e,,,,,,,,,,,,,,,,,,,,,,,,,,,,,,,,,,,,,,,,,
,,,,,,,,,,,,,,1,001,2025-02-17_15h07.52.783,IAT(Formal),2021.2.3,Win32,169.4915254,,,,,,,,,,,,,,,e,1,0.6005,0,22,22,60,1,我,e,,,,,,,,,,,,,,,,,,,,,,,,,,,,,,,,,,,,,,,,,
,,,,,,,,,,,,,,1,001,2025-02-17_15h07.52.783,IAT(Formal),2021.2.3,Win32,169.4915254,,,,,,,,,,,,,,,e,1,0.7295,0,23,23,62,1,我们,e,,,,,,,,,,,,,,,,,,,,,,,,,,,,,,,,,,,,,,,,,
,,,,,,,,,,,,,,1,001,2025-02-17_15h07.52.783,IAT(Formal),2021.2.3,Win32,169.4915254,,,,,,,,,,,,,,,i,1,0.4914,0,24,24,56,1,他们,i,,,,,,,,,,,,,,,,,,,,,,,,,,,,,,,,,,,,,,,,,
,,,,,,,,,,,,,,1,001,2025-02-17_15h07.52.783,IAT(Formal),2021.2.3,Win32,169.4915254,,,,,,,,,,,,,,,e,1,0.4433,0,25,25,4,1,俺,e,,,,,,,,,,,,,,,,,,,,,,,,,,,,,,,,,,,,,,,,,
,,,,,,,,,,,,,,1,001,2025-02-17_15h07.52.783,IAT(Formal),2021.2.3,Win32,169.4915254,,,,,,,,,,,,,,,e,1,0.583,0,26,26,22,1,无私,e,,,,,,,,,,,,,,,,,,,,,,,,,,,,,,,,,,,,,,,,,
,,,,,,,,,,,,,,1,001,2025-02-17_15h07.52.783,IAT(Formal),2021.2.3,Win32,169.4915254,,,,,,,,,,,,,,,i,1,0.5093,0,27,27,65,1,他,i,,,,,,,,,,,,,,,,,,,,,,,,,,,,,,,,,,,,,,,,,
,,,,,,,,,,,,,,1,001,2025-02-17_15h07.52.783,IAT(Formal),2021.2.3,Win32,169.4915254,,,,,,,,,,,,,,,i,1,0.4973,0,28,28,77,1,他的,i,,,,,,,,,,,,,,,,,,,,,,,,,,,,,,,,,,,,,,,,,
,,,,,,,,,,,,,,1,001,2025-02-17_15h07.52.783,IAT(Formal),2021.2.3,Win32,169.4915254,,,,,,,,,,,,,,,i,1,0.5303,0,29,29,45,1,猖狂,i,,,,,,,,,,,,,,,,,,,,,,,,,,,,,,,,,,,,,,,,,
,,,,,,,,,,,,,,1,001,2025-02-17_15h07.52.783,IAT(Formal),2021.2.3,Win32,169.4915254,,,,,,,,,,,,,,,i,1,0.5215,0,30,30,41,1,散漫,i,,,,,,,,,,,,,,,,,,,,,,,,,,,,,,,,,,,,,,,,,
,,,,,,,,,,,,,,1,001,2025-02-17_15h07.52.783,IAT(Formal),2021.2.3,Win32,169.4915254,,,,,,,,,,,,,,,i,1,0.5074,0,31,31,38,1,鲁莽,i,,,,,,,,,,,,,,,,,,,,,,,,,,,,,,,,,,,,,,,,,
,,,,,,,,,,,,,,1,001,2025-02-17_15h07.52.783,IAT(Formal),2021.2.3,Win32,169.4915254,,,,,,,,,,,,,,,i,1,0.3877,0,32,32,31,1,虚伪,i,,,,,,,,,,,,,,,,,,,,,,,,,,,,,,,,,,,,,,,,,
,,,,,,,,,,,,,,1,001,2025-02-17_15h07.52.783,IAT(Formal),2021.2.3,Win32,169.4915254,,,,,,,,,,,,,,,i,1,0.5052,0,33,33,35,1,消极,i,,,,,,,,,,,,,,,,,,,,,,,,,,,,,,,,,,,,,,,,,
,,,,,,,,,,,,,,1,001,2025-02-17_15h07.52.783,IAT(Formal),2021.2.3,Win32,169.4915254,,,,,,,,,,,,,,,i,1,0.5756,0,34,34,66,1,他们,i,,,,,,,,,,,,,,,,,,,,,,,,,,,,,,,,,,,,,,,,,
,,,,,,,,,,,,,,1,001,2025-02-17_15h07.52.783,IAT(Formal),2021.2.3,Win32,169.4915254,,,,,,,,,,,,,,,e,1,0.4672,0,35,35,52,1,我们,e,,,,,,,,,,,,,,,,,,,,,,,,,,,,,,,,,,,,,,,,,
,,,,,,,,,,,,,,1,001,2025-02-17_15h07.52.783,IAT(Formal),2021.2.3,Win32,169.4915254,,,,,,,,,,,,,,,e,1,0.4671,0,36,36,72,1,我们,e,,,,,,,,,,,,,,,,,,,,,,,,,,,,,,,,,,,,,,,,,
,,,,,,,,,,,,,,1,001,2025-02-17_15h07.52.783,IAT(Formal),2021.2.3,Win32,169.4915254,,,,,,,,,,,,,,,i,1,0.4855,0,37,37,48,1,轻率,i,,,,,,,,,,,,,,,,,,,,,,,,,,,,,,,,,,,,,,,,,
,,,,,,,,,,,,,,1,001,2025-02-17_15h07.52.783,IAT(Formal),2021.2.3,Win32,169.4915254,,,,,,,,,,,,,,,e,1,0.4974,0,38,38,18,1,勤奋,e,,,,,,,,,,,,,,,,,,,,,,,,,,,,,,,,,,,,,,,,,
,,,,,,,,,,,,,,1,001,2025-02-17_15h07.52.783,IAT(Formal),2021.2.3,Win32,169.4915254,,,,,,,,,,,,,,,e,1,0.479,0,39,39,12,1,聪明,e,,,,,,,,,,,,,,,,,,,,,,,,,,,,,,,,,,,,,,,,,
,,,,,,,,,,,,,,1,001,2025-02-17_15h07.52.783,IAT(Formal),2021.2.3,Win32,169.4915254,,,,,,,,,,,,,,,i,1,0.4614,0,40,40,75,1,他,i,,,,,,,,,,,,,,,,,,,,,,,,,,,,,,,,,,,,,,,,,
,,,,,,,,,,,,,,1,001,2025-02-17_15h07.52.783,IAT(Formal),2021.2.3,Win32,169.4915254,,,,,,,,,,,,,,,i,1,0.4854,0,41,41,79,1,其他,i,,,,,,,,,,,,,,,,,,,,,,,,,,,,,,,,,,,,,,,,,
,,,,,,,,,,,,,,1,001,2025-02-17_15h07.52.783,IAT(Formal),2021.2.3,Win32,169.4915254,,,,,,,,,,,,,,,e,1,0.4573,0,42,42,23,1,公正,e,,,,,,,,,,,,,,,,,,,,,,,,,,,,,,,,,,,,,,,,,
,,,,,,,,,,,,,,1,001,2025-02-17_15h07.52.783,IAT(Formal),2021.2.3,Win32,169.4915254,,,,,,,,,,,,,,,i,1,0.4819,0,43,43,78,1,他人,i,,,,,,,,,,,,,,,,,,,,,,,,,,,,,,,,,,,,,,,,,
,,,,,,,,,,,,,,1,001,2025-02-17_15h07.52.783,IAT(Formal),2021.2.3,Win32,169.4915254,,,,,,,,,,,,,,,e,1,0.4549,0,44,44,3,1,自己,e,,,,,,,,,,,,,,,,,,,,,,,,,,,,,,,,,,,,,,,,,
,,,,,,,,,,,,,,1,001,2025-02-17_15h07.52.783,IAT(Formal),2021.2.3,Win32,169.4915254,,,,,,,,,,,,,,,i,0,0.4273,0,45,45,21,1,稳重,e,,,,,,,,,,,,,,,,,,,,,,,,,,,,,,,,,,,,,,,,,
,,,,,,,,,,,,,,1,001,2025-02-17_15h07.52.783,IAT(Formal),2021.2.3,Win32,169.4915254,,,,,,,,,,,,,,,e,1,0.4552,0,46,46,51,1,我的,e,,,,,,,,,,,,,,,,,,,,,,,,,,,,,,,,,,,,,,,,,
,,,,,,,,,,,,,,1,001,2025-02-17_15h07.52.783,IAT(Formal),2021.2.3,Win32,169.4915254,,,,,,,,,,,,,,,i,1,0.4264,0,47,47,8,1,他人,i,,,,,,,,,,,,,,,,,,,,,,,,,,,,,,,,,,,,,,,,,
,,,,,,,,,,,,,,1,001,2025-02-17_15h07.52.783,IAT(Formal),2021.2.3,Win32,169.4915254,,,,,,,,,,,,,,,i,1,0.4091,0,48,48,9,1,其他,i,,,,,,,,,,,,,,,,,,,,,,,,,,,,,,,,,,,,,,,,,
,,,,,,,,,,,,,,1,001,2025-02-17_15h07.52.783,IAT(Formal),2021.2.3,Win32,169.4915254,,,,,,,,,,,,,,,i,1,0.4432,0,49,49,30,1,卑鄙,i,,,,,,,,,,,,,,,,,,,,,,,,,,,,,,,,,,,,,,,,,
,,,,,,,,,,,,,,1,001,2025-02-17_15h07.52.783,IAT(Formal),2021.2.3,Win32,169.4915254,,,,,,,,,,,,,,,e,1,0.504,0,50,50,17,1,勇敢,e,,,,,,,,,,,,,,,,,,,,,,,,,,,,,,,,,,,,,,,,,
,,,,,,,,,,,,,,1,001,2025-02-17_15h07.52.783,IAT(Formal),2021.2.3,Win32,169.4915254,,,,,,,,,,,,,,,e,1,0.4731,0,51,51,20,1,认真,e,,,,,,,,,,,,,,,,,,,,,,,,,,,,,,,,,,,,,,,,,
,,,,,,,,,,,,,,1,001,2025-02-17_15h07.52.783,IAT(Formal),2021.2.3,Win32,169.4915254,,,,,,,,,,,,,,,i,1,0.4945,0,52,52,49,1,下贱,i,,,,,,,,,,,,,,,,,,,,,,,,,,,,,,,,,,,,,,,,,
,,,,,,,,,,,,,,1,001,2025-02-17_15h07.52.783,IAT(Formal),2021.2.3,Win32,169.4915254,,,,,,,,,,,,,,,e,1,0.4424,0,53,53,0,1,我,e,,,,,,,,,,,,,,,,,,,,,,,,,,,,,,,,,,,,,,,,,
,,,,,,,,,,,,,,1,001,2025-02-17_15h07.52.783,IAT(Formal),2021.2.3,Win32,169.4915254,,,,,,,,,,,,,,,i,1,0.4417,0,54,54,32,1,愚蠢,i,,,,,,,,,,,,,,,,,,,,,,,,,,,,,,,,,,,,,,,,,
,,,,,,,,,,,,,,1,001,2025-02-17_15h07.52.783,IAT(Formal),2021.2.3,Win32,169.4915254,,,,,,,,,,,,,,,i,1,0.4547,0,55,55,44,1,暴躁,i,,,,,,,,,,,,,,,,,,,,,,,,,,,,,,,,,,,,,,,,,
,,,,,,,,,,,,,,1,001,2025-02-17_15h07.52.783,IAT(Formal),2021.2.3,Win32,169.4915254,,,,,,,,,,,,,,,i,1,0.5403,0,56,56,69,1,其他,i,,,,,,,,,,,,,,,,,,,,,,,,,,,,,,,,,,,,,,,,,
,,,,,,,,,,,,,,1,001,2025-02-17_15h07.52.783,IAT(Formal),2021.2.3,Win32,169.4915254,,,,,,,,,,,,,,,e,1,0.4675,0,57,57,16,1,正直,e,,,,,,,,,,,,,,,,,,,,,,,,,,,,,,,,,,,,,,,,,
,,,,,,,,,,,,,,1,001,2025-02-17_15h07.52.783,IAT(Formal),2021.2.3,Win32,169.4915254,,,,,,,,,,,,,,,i,1,0.4665,0,58,58,55,1,他,i,,,,,,,,,,,,,,,,,,,,,,,,,,,,,,,,,,,,,,,,,
,,,,,,,,,,,,,,1,001,2025-02-17_15h07.52.783,IAT(Formal),2021.2.3,Win32,169.4915254,,,,,,,,,,,,,,,e,1,0.5116,0,59,59,13,1,杰出,e,,,,,,,,,,,,,,,,,,,,,,,,,,,,,,,,,,,,,,,,,
,,,,,,,,,,,,,,1,001,2025-02-17_15h07.52.783,IAT(Formal),2021.2.3,Win32,169.4915254,,,,,,,,,,,,,,,e,1,0.5153,0,60,60,29,1,诚恳,e,,,,,,,,,,,,,,,,,,,,,,,,,,,,,,,,,,,,,,,,,
,,,,,,,,,,,,,,1,001,2025-02-17_15h07.52.783,IAT(Formal),2021.2.3,Win32,169.4915254,,,,,,,,,,,,,,,i,1,0.4488,0,61,61,42,1,凶狠,i,,,,,,,,,,,,,,,,,,,,,,,,,,,,,,,,,,,,,,,,,
,,,,,,,,,,,,,,1,001,2025-02-17_15h07.52.783,IAT(Formal),2021.2.3,Win32,169.4915254,,,,,,,,,,,,,,,i,1,0.5039,0,62,62,67,1,他的,i,,,,,,,,,,,,,,,,,,,,,,,,,,,,,,,,,,,,,,,,,
,,,,,,,,,,,,,,1,001,2025-02-17_15h07.52.783,IAT(Formal),2021.2.3,Win32,169.4915254,,,,,,,,,,,,,,,i,1,0.4936,0,63,63,68,1,他人,i,,,,,,,,,,,,,,,,,,,,,,,,,,,,,,,,,,,,,,,,,
,,,,,,,,,,,,,,1,001,2025-02-17_15h07.52.783,IAT(Formal),2021.2.3,Win32,169.4915254,,,,,,,,,,,,,,,i,1,0.4818,0,64,64,6,1,他们,i,,,,,,,,,,,,,,,,,,,,,,,,,,,,,,,,,,,,,,,,,
,,,,,,,,,,,,,,1,001,2025-02-17_15h07.52.783,IAT(Formal),2021.2.3,Win32,169.4915254,,,,,,,,,,,,,,,i,1,0.4757,0,65,65,37,1,傲慢,i,,,,,,,,,,,,,,,,,,,,,,,,,,,,,,,,,,,,,,,,,
,,,,,,,,,,,,,,1,001,2025-02-17_15h07.52.783,IAT(Formal),2021.2.3,Win32,169.4915254,,,,,,,,,,,,,,,e,1,0.5518,0,66,66,74,1,俺,e,,,,,,,,,,,,,,,,,,,,,,,,,,,,,,,,,,,,,,,,,
,,,,,,,,,,,,,,1,001,2025-02-17_15h07.52.783,IAT(Formal),2021.2.3,Win32,169.4915254,,,,,,,,,,,,,,,i,1,0.5519,0,67,67,36,1,自卑,i,,,,,,,,,,,,,,,,,,,,,,,,,,,,,,,,,,,,,,,,,
,,,,,,,,,,,,,,1,001,2025-02-17_15h07.52.783,IAT(Formal),2021.2.3,Win32,169.4915254,,,,,,,,,,,,,,,e,1,0.838,0,68,68,28,1,活泼,e,,,,,,,,,,,,,,,,,,,,,,,,,,,,,,,,,,,,,,,,,
,,,,,,,,,,,,,,1,001,2025-02-17_15h07.52.783,IAT(Formal),2021.2.3,Win32,169.4915254,,,,,,,,,,,,,,,i,0,0.7046,0,69,69,27,1,热情,e,,,,,,,,,,,,,,,,,,,,,,,,,,,,,,,,,,,,,,,,,
,,,,,,,,,,,,,,1,001,2025-02-17_15h07.52.783,IAT(Formal),2021.2.3,Win32,169.4915254,,,,,,,,,,,,,,,e,1,0.5173,0,70,70,64,1,俺,e,,,,,,,,,,,,,,,,,,,,,,,,,,,,,,,,,,,,,,,,,
,,,,,,,,,,,,,,1,001,2025-02-17_15h07.52.783,IAT(Formal),2021.2.3,Win32,169.4915254,,,,,,,,,,,,,,,e,1,0.6777,0,71,71,63,1,自己,e,,,,,,,,,,,,,,,,,,,,,,,,,,,,,,,,,,,,,,,,,
,,,,,,,,,,,,,,1,001,2025-02-17_15h07.52.783,IAT(Formal),2021.2.3,Win32,169.4915254,,,,,,,,,,,,,,,e,1,0.9756,0,72,72,50,1,我,e,,,,,,,,,,,,,,,,,,,,,,,,,,,,,,,,,,,,,,,,,
,,,,,,,,,,,,,,1,001,2025-02-17_15h07.52.783,IAT(Formal),2021.2.3,Win32,169.4915254,,,,,,,,,,,,,,,e,1,1.1937,0,73,73,19,1,机智,e,,,,,,,,,,,,,,,,,,,,,,,,,,,,,,,,,,,,,,,,,
,,,,,,,,,,,,,,1,001,2025-02-17_15h07.52.783,IAT(Formal),2021.2.3,Win32,169.4915254,,,,,,,,,,,,,,,e,1,0.655,0,74,74,14,1,乐观,e,,,,,,,,,,,,,,,,,,,,,,,,,,,,,,,,,,,,,,,,,
,,,,,,,,,,,,,,1,001,2025-02-17_15h07.52.783,IAT(Formal),2021.2.3,Win32,169.4915254,,,,,,,,,,,,,,,e,1,0.4731,0,75,75,61,1,我的,e,,,,,,,,,,,,,,,,,,,,,,,,,,,,,,,,,,,,,,,,,
,,,,,,,,,,,,,,1,001,2025-02-17_15h07.52.783,IAT(Formal),2021.2.3,Win32,169.4915254,,,,,,,,,,,,,,,i,1,0.4673,0,76,76,39,1,冒失,i,,,,,,,,,,,,,,,,,,,,,,,,,,,,,,,,,,,,,,,,,
,,,,,,,,,,,,,,1,001,2025-02-17_15h07.52.783,IAT(Formal),2021.2.3,Win32,169.4915254,,,,,,,,,,,,,,,e,0,0.4536,0,77,77,34,1,悲观,i,,,,,,,,,,,,,,,,,,,,,,,,,,,,,,,,,,,,,,,,,
,,,,,,,,,,,,,,1,001,2025-02-17_15h07.52.783,IAT(Formal),2021.2.3,Win32,169.4915254,,,,,,,,,,,,,,,i,1,0.559,0,78,78,57,1,他的,i,,,,,,,,,,,,,,,,,,,,,,,,,,,,,,,,,,,,,,,,,
,,,,,,,,,,,,,,1,001,2025-02-17_15h07.52.783,IAT(Formal),2021.2.3,Win32,169.4915254,,,,,,,,,,,,,,,i,1,0.6433,0,79,79,40,1,执拗,i,,,,,,,,,,,,,,,,,,,,,,,,,,,,,,,,,,,,,,,,,
,,,,,,,,,,,,,,1,001,2025-02-17_15h07.52.783,IAT(Formal),2021.2.3,Win32,169.4915254,,,,,,,,,,,,,,,i,1,0.9641,,,,,,悲观,i,space,4.7944,0,0,0,34,1,,,,,,,,,,,,,,,,,,,,,,,,,,,,,,,,,,
,,,,,,,,,,,,,,1,001,2025-02-17_15h07.52.783,IAT(Formal),2021.2.3,Win32,169.4915254,,,,,,,,,,,,,,,e,1,1.2596,,,,,,朴实,e,,,0,1,1,24,1,,,,,,,,,,,,,,,,,,,,,,,,,,,,,,,,,,
,,,,,,,,,,,,,,1,001,2025-02-17_15h07.52.783,IAT(Formal),2021.2.3,Win32,169.4915254,,,,,,,,,,,,,,,e,1,1.3535,,,,,,我的,e,,,0,2,2,61,1,,,,,,,,,,,,,,,,,,,,,,,,,,,,,,,,,,
,,,,,,,,,,,,,,1,001,2025-02-17_15h07.52.783,IAT(Formal),2021.2.3,Win32,169.4915254,,,,,,,,,,,,,,,i,1,0.5171,,,,,,他,i,,,0,3,3,55,1,,,,,,,,,,,,,,,,,,,,,,,,,,,,,,,,,,
,,,,,,,,,,,,,,1,001,2025-02-17_15h07.52.783,IAT(Formal),2021.2.3,Win32,169.4915254,,,,,,,,,,,,,,,e,1,0.51,,,,,,我们,e,,,0,4,4,72,1,,,,,,,,,,,,,,,,,,,,,,,,,,,,,,,,,,
,,,,,,,,,,,,,,1,001,2025-02-17_15h07.52.783,IAT(Formal),2021.2.3,Win32,169.4915254,,,,,,,,,,,,,,,i,1,0.5636,,,,,,卑鄙,i,,,0,5,5,30,1,,,,,,,,,,,,,,,,,,,,,,,,,,,,,,,,,,
,,,,,,,,,,,,,,1,001,2025-02-17_15h07.52.783,IAT(Formal),2021.2.3,Win32,169.4915254,,,,,,,,,,,,,,,e,1,0.5768,,,,,,优秀,e,,,0,6,6,10,1,,,,,,,,,,,,,,,,,,,,,,,,,,,,,,,,,,
,,,,,,,,,,,,,,1,001,2025-02-17_15h07.52.783,IAT(Formal),2021.2.3,Win32,169.4915254,,,,,,,,,,,,,,,i,1,0.4405,,,,,,冒失,i,,,0,7,7,39,1,,,,,,,,,,,,,,,,,,,,,,,,,,,,,,,,,,
,,,,,,,,,,,,,,1,001,2025-02-17_15h07.52.783,IAT(Formal),2021.2.3,Win32,169.4915254,,,,,,,,,,,,,,,i,1,0.667,,,,,,消极,i,,,0,8,8,35,1,,,,,,,,,,,,,,,,,,,,,,,,,,,,,,,,,,
,,,,,,,,,,,,,,1,001,2025-02-17_15h07.52.783,IAT(Formal),2021.2.3,Win32,169.4915254,,,,,,,,,,,,,,,e,1,0.5152,,,,,,诚恳,e,,,0,9,9,29,1,,,,,,,,,,,,,,,,,,,,,,,,,,,,,,,,,,
,,,,,,,,,,,,,,1,001,2025-02-17_15h07.52.783,IAT(Formal),2021.2.3,Win32,169.4915254,,,,,,,,,,,,,,,e,1,0.5094,,,,,,我,e,,,0,10,10,0,1,,,,,,,,,,,,,,,,,,,,,,,,,,,,,,,,,,
,,,,,,,,,,,,,,1,001,2025-02-17_15h07.52.783,IAT(Formal),2021.2.3,Win32,169.4915254,,,,,,,,,,,,,,,e,1,0.454,,,,,,杰出,e,,,0,11,11,13,1,,,,,,,,,,,,,,,,,,,,,,,,,,,,,,,,,,
,,,,,,,,,,,,,,1,001,2025-02-17_15h07.52.783,IAT(Formal),2021.2.3,Win32,169.4915254,,,,,,,,,,,,,,,e,1,0.5158,,,,,,冷静,e,,,0,12,12,26,1,,,,,,,,,,,,,,,,,,,,,,,,,,,,,,,,,,
,,,,,,,,,,,,,,1,001,2025-02-17_15h07.52.783,IAT(Formal),2021.2.3,Win32,169.4915254,,,,,,,,,,,,,,,e,1,0.5062,,,,,,细腻,e,,,0,13,13,25,1,,,,,,,,,,,,,,,,,,,,,,,,,,,,,,,,,,
,,,,,,,,,,,,,,1,001,2025-02-17_15h07.52.783,IAT(Formal),2021.2.3,Win32,169.4915254,,,,,,,,,,,,,,,e,1,0.6187,,,,,,我,e,,,0,14,14,70,1,,,,,,,,,,,,,,,,,,,,,,,,,,,,,,,,,,
,,,,,,,,,,,,,,1,001,2025-02-17_15h07.52.783,IAT(Formal),2021.2.3,Win32,169.4915254,,,,,,,,,,,,,,,e,1,0.8303,,,,,,自己,e,,,0,15,15,53,1,,,,,,,,,,,,,,,,,,,,,,,,,,,,,,,,,,
,,,,,,,,,,,,,,1,001,2025-02-17_15h07.52.783,IAT(Formal),2021.2.3,Win32,169.4915254,,,,,,,,,,,,,,,e,0,0.473,,,,,,他的,i,,,0,16,16,7,1,,,,,,,,,,,,,,,,,,,,,,,,,,,,,,,,,,
,,,,,,,,,,,,,,1,001,2025-02-17_15h07.52.783,IAT(Formal),2021.2.3,Win32,169.4915254,,,,,,,,,,,,,,,i,1,0.4365,,,,,,他们,i,,,0,17,17,6,1,,,,,,,,,,,,,,,,,,,,,,,,,,,,,,,,,,
,,,,,,,,,,,,,,1,001,2025-02-17_15h07.52.783,IAT(Formal),2021.2.3,Win32,169.4915254,,,,,,,,,,,,,,,i,1,0.4483,,,,,,他人,i,,,0,18,18,78,1,,,,,,,,,,,,,,,,,,,,,,,,,,,,,,,,,,
,,,,,,,,,,,,,,1,001,2025-02-17_15h07.52.783,IAT(Formal),2021.2.3,Win32,169.4915254,,,,,,,,,,,,,,,i,1,0.4918,,,,,,其他,i,,,0,19,19,69,1,,,,,,,,,,,,,,,,,,,,,,,,,,,,,,,,,,
,,,,,,,,,,,,,,1,001,2025-02-17_15h07.52.783,IAT(Formal),2021.2.3,Win32,169.4915254,,,,,,,,,,,,,,,e,1,1.2475,,,,,,乐观,e,,,0,20,20,14,1,,,,,,,,,,,,,,,,,,,,,,,,,,,,,,,,,,
,,,,,,,,,,,,,,1,001,2025-02-17_15h07.52.783,IAT(Formal),2021.2.3,Win32,169.4915254,,,,,,,,,,,,,,,i,1,0.461,,,,,,他们,i,,,0,21,21,76,1,,,,,,,,,,,,,,,,,,,,,,,,,,,,,,,,,,
,,,,,,,,,,,,,,1,001,2025-02-17_15h07.52.783,IAT(Formal),2021.2.3,Win32,169.4915254,,,,,,,,,,,,,,,i,1,0.6748,,,,,,自卑,i,,,0,22,22,36,1,,,,,,,,,,,,,,,,,,,,,,,,,,,,,,,,,,
,,,,,,,,,,,,,,1,001,2025-02-17_15h07.52.783,IAT(Formal),2021.2.3,Win32,169.4915254,,,,,,,,,,,,,,,i,1,0.5883,,,,,,散漫,i,,,0,23,23,41,1,,,,,,,,,,,,,,,,,,,,,,,,,,,,,,,,,,
,,,,,,,,,,,,,,1,001,2025-02-17_15h07.52.783,IAT(Formal),2021.2.3,Win32,169.4915254,,,,,,,,,,,,,,,i,1,0.6381,,,,,,轻率,i,,,0,24,24,48,1,,,,,,,,,,,,,,,,,,,,,,,,,,,,,,,,,,
,,,,,,,,,,,,,,1,001,2025-02-17_15h07.52.783,IAT(Formal),2021.2.3,Win32,169.4915254,,,,,,,,,,,,,,,i,1,0.4832,,,,,,他的,i,,,0,25,25,67,1,,,,,,,,,,,,,,,,,,,,,,,,,,,,,,,,,,
,,,,,,,,,,,,,,1,001,2025-02-17_15h07.52.783,IAT(Formal),2021.2.3,Win32,169.4915254,,,,,,,,,,,,,,,i,1,0.5219,,,,,,他,i,,,0,26,26,65,1,,,,,,,,,,,,,,,,,,,,,,,,,,,,,,,,,,
,,,,,,,,,,,,,,1,001,2025-02-17_15h07.52.783,IAT(Formal),2021.2.3,Win32,169.4915254,,,,,,,,,,,,,,,e,1,0.5762,,,,,,认真,e,,,0,27,27,20,1,,,,,,,,,,,,,,,,,,,,,,,,,,,,,,,,,,
,,,,,,,,,,,,,,1,001,2025-02-17_15h07.52.783,IAT(Formal),2021.2.3,Win32,169.4915254,,,,,,,,,,,,,,,e,1,0.4855,,,,,,活泼,e,,,0,28,28,28,1,,,,,,,,,,,,,,,,,,,,,,,,,,,,,,,,,,
,,,,,,,,,,,,,,1,001,2025-02-17_15h07.52.783,IAT(Formal),2021.2.3,Win32,169.4915254,,,,,,,,,,,,,,,e,1,0.3639,,,,,,我的,e,,,0,29,29,71,1,,,,,,,,,,,,,,,,,,,,,,,,,,,,,,,,,,
,,,,,,,,,,,,,,1,001,2025-02-17_15h07.52.783,IAT(Formal),2021.2.3,Win32,169.4915254,,,,,,,,,,,,,,,e,0,0.5607,,,,,,他人,i,,,0,30,30,68,1,,,,,,,,,,,,,,,,,,,,,,,,,,,,,,,,,,
,,,,,,,,,,,,,,1,001,2025-02-17_15h07.52.783,IAT(Formal),2021.2.3,Win32,169.4915254,,,,,,,,,,,,,,,i,1,0.4916,,,,,,下贱,i,,,0,31,31,49,1,,,,,,,,,,,,,,,,,,,,,,,,,,,,,,,,,,
,,,,,,,,,,,,,,1,001,2025-02-17_15h07.52.783,IAT(Formal),2021.2.3,Win32,169.4915254,,,,,,,,,,,,,,,i,1,0.4553,,,,,,其他,i,,,0,32,32,59,1,,,,,,,,,,,,,,,,,,,,,,,,,,,,,,,,,,
,,,,,,,,,,,,,,1,001,2025-02-17_15h07.52.783,IAT(Formal),2021.2.3,Win32,169.4915254,,,,,,,,,,,,,,,i,1,0.4554,,,,,,他们,i,,,0,33,33,66,1,,,,,,,,,,,,,,,,,,,,,,,,,,,,,,,,,,
,,,,,,,,,,,,,,1,001,2025-02-17_15h07.52.783,IAT(Formal),2021.2.3,Win32,169.4915254,,,,,,,,,,,,,,,i,1,0.4693,,,,,,野蛮,i,,,0,34,34,46,1,,,,,,,,,,,,,,,,,,,,,,,,,,,,,,,,,,
,,,,,,,,,,,,,,1,001,2025-02-17_15h07.52.783,IAT(Formal),2021.2.3,Win32,169.4915254,,,,,,,,,,,,,,,i,1,0.3832,,,,,,刻薄,i,,,0,35,35,33,1,,,,,,,,,,,,,,,,,,,,,,,,,,,,,,,,,,
,,,,,,,,,,,,,,1,001,2025-02-17_15h07.52.783,IAT(Formal),2021.2.3,Win32,169.4915254,,,,,,,,,,,,,,,i,1,0.4732,,,,,,其他,i,,,0,36,36,9,1,,,,,,,,,,,,,,,,,,,,,,,,,,,,,,,,,,
,,,,,,,,,,,,,,1,001,2025-02-17_15h07.52.783,IAT(Formal),2021.2.3,Win32,169.4915254,,,,,,,,,,,,,,,e,1,0.7705,,,,,,俺,e,,,0,37,37,4,1,,,,,,,,,,,,,,,,,,,,,,,,,,,,,,,,,,
,,,,,,,,,,,,,,1,001,2025-02-17_15h07.52.783,IAT(Formal),2021.2.3,Win32,169.4915254,,,,,,,,,,,,,,,i,1,1.4428,,,,,,鲁莽,i,,,0,38,38,38,1,,,,,,,,,,,,,,,,,,,,,,,,,,,,,,,,,,
,,,,,,,,,,,,,,1,001,2025-02-17_15h07.52.783,IAT(Formal),2021.2.3,Win32,169.4915254,,,,,,,,,,,,,,,e,1,0.6426,,,,,,崇高,e,,,0,39,39,11,1,,,,,,,,,,,,,,,,,,,,,,,,,,,,,,,,,,
,,,,,,,,,,,,,,1,001,2025-02-17_15h07.52.783,IAT(Formal),2021.2.3,Win32,169.4915254,,,,,,,,,,,,,,,i,0,0.5766,,,,,,我们,e,,,0,40,40,62,1,,,,,,,,,,,,,,,,,,,,,,,,,,,,,,,,,,
,,,,,,,,,,,,,,1,001,2025-02-17_15h07.52.783,IAT(Formal),2021.2.3,Win32,169.4915254,,,,,,,,,,,,,,,e,1,0.5125,,,,,,勇敢,e,,,0,41,41,17,1,,,,,,,,,,,,,,,,,,,,,,,,,,,,,,,,,,
,,,,,,,,,,,,,,1,001,2025-02-17_15h07.52.783,IAT(Formal),2021.2.3,Win32,169.4915254,,,,,,,,,,,,,,,e,1,0.473,,,,,,俺,e,,,0,42,42,64,1,,,,,,,,,,,,,,,,,,,,,,,,,,,,,,,,,,
,,,,,,,,,,,,,,1,001,2025-02-17_15h07.52.783,IAT(Formal),2021.2.3,Win32,169.4915254,,,,,,,,,,,,,,,e,1,0.4561,,,,,,聪明,e,,,0,43,43,12,1,,,,,,,,,,,,,,,,,,,,,,,,,,,,,,,,,,
,,,,,,,,,,,,,,1,001,2025-02-17_15h07.52.783,IAT(Formal),2021.2.3,Win32,169.4915254,,,,,,,,,,,,,,,e,1,0.3633,,,,,,自己,e,,,0,44,44,3,1,,,,,,,,,,,,,,,,,,,,,,,,,,,,,,,,,,
,,,,,,,,,,,,,,1,001,2025-02-17_15h07.52.783,IAT(Formal),2021.2.3,Win32,169.4915254,,,,,,,,,,,,,,,i,1,1.2004,,,,,,猖狂,i,,,0,45,45,45,1,,,,,,,,,,,,,,,,,,,,,,,,,,,,,,,,,,
,,,,,,,,,,,,,,1,001,2025-02-17_15h07.52.783,IAT(Formal),2021.2.3,Win32,169.4915254,,,,,,,,,,,,,,,e,1,0.68,,,,,,我们,e,,,0,46,46,52,1,,,,,,,,,,,,,,,,,,,,,,,,,,,,,,,,,,
,,,,,,,,,,,,,,1,001,2025-02-17_15h07.52.783,IAT(Formal),2021.2.3,Win32,169.4915254,,,,,,,,,,,,,,,i,1,0.8246,,,,,,他人,i,,,0,47,47,8,1,,,,,,,,,,,,,,,,,,,,,,,,,,,,,,,,,,
,,,,,,,,,,,,,,1,001,2025-02-17_15h07.52.783,IAT(Formal),2021.2.3,Win32,169.4915254,,,,,,,,,,,,,,,e,1,0.5643,,,,,,俺,e,,,0,48,48,74,1,,,,,,,,,,,,,,,,,,,,,,,,,,,,,,,,,,
,,,,,,,,,,,,,,1,001,2025-02-17_15h07.52.783,IAT(Formal),2021.2.3,Win32,169.4915254,,,,,,,,,,,,,,,i,1,0.5171,,,,,,他,i,,,0,49,49,5,1,,,,,,,,,,,,,,,,,,,,,,,,,,,,,,,,,,
,,,,,,,,,,,,,,1,001,2025-02-17_15h07.52.783,IAT(Formal),2021.2.3,Win32,169.4915254,,,,,,,,,,,,,,,i,1,0.5445,,,,,,固执,i,,,0,50,50,47,1,,,,,,,,,,,,,,,,,,,,,,,,,,,,,,,,,,
,,,,,,,,,,,,,,1,001,2025-02-17_15h07.52.783,IAT(Formal),2021.2.3,Win32,169.4915254,,,,,,,,,,,,,,,i,1,0.6307,,,,,,他的,i,,,0,51,51,77,1,,,,,,,,,,,,,,,,,,,,,,,,,,,,,,,,,,
,,,,,,,,,,,,,,1,001,2025-02-17_15h07.52.783,IAT(Formal),2021.2.3,Win32,169.4915254,,,,,,,,,,,,,,,e,1,0.5058,,,,,,稳重,e,,,0,52,52,21,1,,,,,,,,,,,,,,,,,,,,,,,,,,,,,,,,,,
,,,,,,,,,,,,,,1,001,2025-02-17_15h07.52.783,IAT(Formal),2021.2.3,Win32,169.4915254,,,,,,,,,,,,,,,e,1,0.5941,,,,,,公正,e,,,0,53,53,23,1,,,,,,,,,,,,,,,,,,,,,,,,,,,,,,,,,,
,,,,,,,,,,,,,,1,001,2025-02-17_15h07.52.783,IAT(Formal),2021.2.3,Win32,169.4915254,,,,,,,,,,,,,,,e,1,0.4605,,,,,,勤奋,e,,,0,54,54,18,1,,,,,,,,,,,,,,,,,,,,,,,,,,,,,,,,,,
,,,,,,,,,,,,,,1,001,2025-02-17_15h07.52.783,IAT(Formal),2021.2.3,Win32,169.4915254,,,,,,,,,,,,,,,e,1,0.4551,,,,,,我的,e,,,0,55,55,1,1,,,,,,,,,,,,,,,,,,,,,,,,,,,,,,,,,,
,,,,,,,,,,,,,,1,001,2025-02-17_15h07.52.783,IAT(Formal),2021.2.3,Win32,169.4915254,,,,,,,,,,,,,,,i,1,0.6969,,,,,,凶狠,i,,,0,56,56,42,1,,,,,,,,,,,,,,,,,,,,,,,,,,,,,,,,,,
,,,,,,,,,,,,,,1,001,2025-02-17_15h07.52.783,IAT(Formal),2021.2.3,Win32,169.4915254,,,,,,,,,,,,,,,e,1,0.5422,,,,,,热情,e,,,0,57,57,27,1,,,,,,,,,,,,,,,,,,,,,,,,,,,,,,,,,,
,,,,,,,,,,,,,,1,001,2025-02-17_15h07.52.783,IAT(Formal),2021.2.3,Win32,169.4915254,,,,,,,,,,,,,,,e,1,0.5279,,,,,,自己,e,,,0,58,58,63,1,,,,,,,,,,,,,,,,,,,,,,,,,,,,,,,,,,
,,,,,,,,,,,,,,1,001,2025-02-17_15h07.52.783,IAT(Formal),2021.2.3,Win32,169.4915254,,,,,,,,,,,,,,,e,1,0.4636,,,,,,我,e,,,0,59,59,50,1,,,,,,,,,,,,,,,,,,,,,,,,,,,,,,,,,,
,,,,,,,,,,,,,,1,001,2025-02-17_15h07.52.783,IAT(Formal),2021.2.3,Win32,169.4915254,,,,,,,,,,,,,,,e,0,0.6884,,,,,,他们,i,,,0,60,60,56,1,,,,,,,,,,,,,,,,,,,,,,,,,,,,,,,,,,
,,,,,,,,,,,,,,1,001,2025-02-17_15h07.52.783,IAT(Formal),2021.2.3,Win32,169.4915254,,,,,,,,,,,,,,,e,1,0.4362,,,,,,我,e,,,0,61,61,60,1,,,,,,,,,,,,,,,,,,,,,,,,,,,,,,,,,,
,,,,,,,,,,,,,,1,001,2025-02-17_15h07.52.783,IAT(Formal),2021.2.3,Win32,169.4915254,,,,,,,,,,,,,,,i,1,0.5765,,,,,,傲慢,i,,,0,62,62,37,1,,,,,,,,,,,,,,,,,,,,,,,,,,,,,,,,,,
,,,,,,,,,,,,,,1,001,2025-02-17_15h07.52.783,IAT(Formal),2021.2.3,Win32,169.4915254,,,,,,,,,,,,,,,e,1,0.5224,,,,,,俺,e,,,0,63,63,54,1,,,,,,,,,,,,,,,,,,,,,,,,,,,,,,,,,,
,,,,,,,,,,,,,,1,001,2025-02-17_15h07.52.783,IAT(Formal),2021.2.3,Win32,169.4915254,,,,,,,,,,,,,,,e,1,0.576,,,,,,无私,e,,,0,64,64,22,1,,,,,,,,,,,,,,,,,,,,,,,,,,,,,,,,,,
,,,,,,,,,,,,,,1,001,2025-02-17_15h07.52.783,IAT(Formal),2021.2.3,Win32,169.4915254,,,,,,,,,,,,,,,e,1,0.4911,,,,,,正直,e,,,0,65,65,16,1,,,,,,,,,,,,,,,,,,,,,,,,,,,,,,,,,,
,,,,,,,,,,,,,,1,001,2025-02-17_15h07.52.783,IAT(Formal),2021.2.3,Win32,169.4915254,,,,,,,,,,,,,,,e,1,0.4245,,,,,,我们,e,,,0,66,66,2,1,,,,,,,,,,,,,,,,,,,,,,,,,,,,,,,,,,
,,,,,,,,,,,,,,1,001,2025-02-17_15h07.52.783,IAT(Formal),2021.2.3,Win32,169.4915254,,,,,,,,,,,,,,,e,1,0.4853,,,,,,自己,e,,,0,67,67,73,1,,,,,,,,,,,,,,,,,,,,,,,,,,,,,,,,,,
,,,,,,,,,,,,,,1,001,2025-02-17_15h07.52.783,IAT(Formal),2021.2.3,Win32,169.4915254,,,,,,,,,,,,,,,e,1,0.7778,,,,,,机智,e,,,0,68,68,19,1,,,,,,,,,,,,,,,,,,,,,,,,,,,,,,,,,,
,,,,,,,,,,,,,,1,001,2025-02-17_15h07.52.783,IAT(Formal),2021.2.3,Win32,169.4915254,,,,,,,,,,,,,,,e,0,0.7645,,,,,,他人,i,,,0,69,69,58,1,,,,,,,,,,,,,,,,,,,,,,,,,,,,,,,,,,
,,,,,,,,,,,,,,1,001,2025-02-17_15h07.52.783,IAT(Formal),2021.2.3,Win32,169.4915254,,,,,,,,,,,,,,,i,1,0.8305,,,,,,自私,i,,,0,70,70,43,1,,,,,,,,,,,,,,,,,,,,,,,,,,,,,,,,,,
,,,,,,,,,,,,,,1,001,2025-02-17_15h07.52.783,IAT(Formal),2021.2.3,Win32,169.4915254,,,,,,,,,,,,,,,i,1,0.5729,,,,,,虚伪,i,,,0,71,71,31,1,,,,,,,,,,,,,,,,,,,,,,,,,,,,,,,,,,
,,,,,,,,,,,,,,1,001,2025-02-17_15h07.52.783,IAT(Formal),2021.2.3,Win32,169.4915254,,,,,,,,,,,,,,,i,1,0.4793,,,,,,其他,i,,,0,72,72,79,1,,,,,,,,,,,,,,,,,,,,,,,,,,,,,,,,,,
,,,,,,,,,,,,,,1,001,2025-02-17_15h07.52.783,IAT(Formal),2021.2.3,Win32,169.4915254,,,,,,,,,,,,,,,i,1,0.6181,,,,,,他,i,,,0,73,73,75,1,,,,,,,,,,,,,,,,,,,,,,,,,,,,,,,,,,
,,,,,,,,,,,,,,1,001,2025-02-17_15h07.52.783,IAT(Formal),2021.2.3,Win32,169.4915254,,,,,,,,,,,,,,,e,1,0.7822,,,,,,诚实,e,,,0,74,74,15,1,,,,,,,,,,,,,,,,,,,,,,,,,,,,,,,,,,
,,,,,,,,,,,,,,1,001,2025-02-17_15h07.52.783,IAT(Formal),2021.2.3,Win32,169.4915254,,,,,,,,,,,,,,,i,1,0.5821,,,,,,他的,i,,,0,75,75,57,1,,,,,,,,,,,,,,,,,,,,,,,,,,,,,,,,,,
,,,,,,,,,,,,,,1,001,2025-02-17_15h07.52.783,IAT(Formal),2021.2.3,Win32,169.4915254,,,,,,,,,,,,,,,i,1,0.5807,,,,,,暴躁,i,,,0,76,76,44,1,,,,,,,,,,,,,,,,,,,,,,,,,,,,,,,,,,
,,,,,,,,,,,,,,1,001,2025-02-17_15h07.52.783,IAT(Formal),2021.2.3,Win32,169.4915254,,,,,,,,,,,,,,,i,1,0.5964,,,,,,执拗,i,,,0,77,77,40,1,,,,,,,,,,,,,,,,,,,,,,,,,,,,,,,,,,
,,,,,,,,,,,,,,1,001,2025-02-17_15h07.52.783,IAT(Formal),2021.2.3,Win32,169.4915254,,,,,,,,,,,,,,,i,1,0.5703,,,,,,愚蠢,i,,,0,78,78,32,1,,,,,,,,,,,,,,,,,,,,,,,,,,,,,,,,,,
,,,,,,,,,,,,,,1,001,2025-02-17_15h07.52.783,IAT(Formal),2021.2.3,Win32,169.4915254,,,,,,,,,,,,,,,e,1,0.885,,,,,,我的,e,,,0,79,79,51,1,,,,,,,,,,,,,,,,,,,,,,,,,,,,,,,,,,
,,,,,,,,,,,,,,1,001,2025-02-17_15h07.52.783,IAT(Formal),2021.2.3,Win32,169.4915254,,,,,,,,,,,,,,,i,1,0.6731,,,,,,轻率,i,,,1,0,80,48,1,,,,,,,,,,,,,,,,,,,,,,,,,,,,,,,,,,
,,,,,,,,,,,,,,1,001,2025-02-17_15h07.52.783,IAT(Formal),2021.2.3,Win32,169.4915254,,,,,,,,,,,,,,,i,1,1.0729,,,,,,他人,i,,,1,1,81,58,1,,,,,,,,,,,,,,,,,,,,,,,,,,,,,,,,,,
,,,,,,,,,,,,,,1,001,2025-02-17_15h07.52.783,IAT(Formal),2021.2.3,Win32,169.4915254,,,,,,,,,,,,,,,i,1,0.6546,,,,,,他人,i,,,1,2,82,8,1,,,,,,,,,,,,,,,,,,,,,,,,,,,,,,,,,,
,,,,,,,,,,,,,,1,001,2025-02-17_15h07.52.783,IAT(Formal),2021.2.3,Win32,169.4915254,,,,,,,,,,,,,,,e,1,0.9579,,,,,,我的,e,,,1,3,83,1,1,,,,,,,,,,,,,,,,,,,,,,,,,,,,,,,,,,
,,,,,,,,,,,,,,1,001,2025-02-17_15h07.52.783,IAT(Formal),2021.2.3,Win32,169.4915254,,,,,,,,,,,,,,,,0,,,,,,,下贱,i,,,1,4,84,49,1,,,,,,,,,,,,,,,,,,,,,,,,,,,,,,,,,,
,,,,,,,,,,,,,,1,001,2025-02-17_15h07.52.783,IAT(Formal),2021.2.3,Win32,169.4915254,,,,,,,,,,,,,,,i,1,0.5458,,,,,,虚伪,i,,,1,5,85,31,1,,,,,,,,,,,,,,,,,,,,,,,,,,,,,,,,,,
,,,,,,,,,,,,,,1,001,2025-02-17_15h07.52.783,IAT(Formal),2021.2.3,Win32,169.4915254,,,,,,,,,,,,,,,i,1,0.8414,,,,,,野蛮,i,,,1,6,86,46,1,,,,,,,,,,,,,,,,,,,,,,,,,,,,,,,,,,
,,,,,,,,,,,,,,1,001,2025-02-17_15h07.52.783,IAT(Formal),2021.2.3,Win32,169.4915254,,,,,,,,,,,,,,,i,1,0.5163,,,,,,冒失,i,,,1,7,87,39,1,,,,,,,,,,,,,,,,,,,,,,,,,,,,,,,,,,
,,,,,,,,,,,,,,1,001,2025-02-17_15h07.52.783,IAT(Formal),2021.2.3,Win32,169.4915254,,,,,,,,,,,,,,,e,0,0.7099,,,,,,他的,i,,,1,8,88,67,1,,,,,,,,,,,,,,,,,,,,,,,,,,,,,,,,,,
,,,,,,,,,,,,,,1,001,2025-02-17_15h07.52.783,IAT(Formal),2021.2.3,Win32,169.4915254,,,,,,,,,,,,,,,e,0,0.5731,,,,,,他们,i,,,1,9,89,56,1,,,,,,,,,,,,,,,,,,,,,,,,,,,,,,,,,,
,,,,,,,,,,,,,,1,001,2025-02-17_15h07.52.783,IAT(Formal),2021.2.3,Win32,169.4915254,,,,,,,,,,,,,,,i,1,0.6669,,,,,,刻薄,i,,,1,10,90,33,1,,,,,,,,,,,,,,,,,,,,,,,,,,,,,,,,,,
,,,,,,,,,,,,,,1,001,2025-02-17_15h07.52.783,IAT(Formal),2021.2.3,Win32,169.4915254,,,,,,,,,,,,,,,i,1,0.6619,,,,,,他,i,,,1,11,91,55,1,,,,,,,,,,,,,,,,,,,,,,,,,,,,,,,,,,
,,,,,,,,,,,,,,1,001,2025-02-17_15h07.52.783,IAT(Formal),2021.2.3,Win32,169.4915254,,,,,,,,,,,,,,,i,1,0.7428,,,,,,其他,i,,,1,12,92,59,1,,,,,,,,,,,,,,,,,,,,,,,,,,,,,,,,,,
,,,,,,,,,,,,,,1,001,2025-02-17_15h07.52.783,IAT(Formal),2021.2.3,Win32,169.4915254,,,,,,,,,,,,,,,i,1,0.5903,,,,,,卑鄙,i,,,1,13,93,30,1,,,,,,,,,,,,,,,,,,,,,,,,,,,,,,,,,,
,,,,,,,,,,,,,,1,001,2025-02-17_15h07.52.783,IAT(Formal),2021.2.3,Win32,169.4915254,,,,,,,,,,,,,,,i,1,0.4592,,,,,,其他,i,,,1,14,94,69,1,,,,,,,,,,,,,,,,,,,,,,,,,,,,,,,,,,
,,,,,,,,,,,,,,1,001,2025-02-17_15h07.52.783,IAT(Formal),2021.2.3,Win32,169.4915254,,,,,,,,,,,,,,,e,1,0.7512,,,,,,自己,e,,,1,15,95,3,1,,,,,,,,,,,,,,,,,,,,,,,,,,,,,,,,,,
,,,,,,,,,,,,,,1,001,2025-02-17_15h07.52.783,IAT(Formal),2021.2.3,Win32,169.4915254,,,,,,,,,,,,,,,e,1,0.5336,,,,,,正直,e,,,1,16,96,16,1,,,,,,,,,,,,,,,,,,,,,,,,,,,,,,,,,,
,,,,,,,,,,,,,,1,001,2025-02-17_15h07.52.783,IAT(Formal),2021.2.3,Win32,169.4915254,,,,,,,,,,,,,,,e,1,1.3035,,,,,,俺,e,,,1,17,97,64,1,,,,,,,,,,,,,,,,,,,,,,,,,,,,,,,,,,
,,,,,,,,,,,,,,1,001,2025-02-17_15h07.52.783,IAT(Formal),2021.2.3,Win32,169.4915254,,,,,,,,,,,,,,,e,1,0.5216,,,,,,诚恳,e,,,1,18,98,29,1,,,,,,,,,,,,,,,,,,,,,,,,,,,,,,,,,,
,,,,,,,,,,,,,,1,001,2025-02-17_15h07.52.783,IAT(Formal),2021.2.3,Win32,169.4915254,,,,,,,,,,,,,,,e,1,0.6908,,,,,,崇高,e,,,1,19,99,11,1,,,,,,,,,,,,,,,,,,,,,,,,,,,,,,,,,,
,,,,,,,,,,,,,,1,001,2025-02-17_15h07.52.783,IAT(Formal),2021.2.3,Win32,169.4915254,,,,,,,,,,,,,,,e,0,0.684,,,,,,固执,i,,,1,20,100,47,1,,,,,,,,,,,,,,,,,,,,,,,,,,,,,,,,,,
,,,,,,,,,,,,,,1,001,2025-02-17_15h07.52.783,IAT(Formal),2021.2.3,Win32,169.4915254,,,,,,,,,,,,,,,i,1,0.7581,,,,,,消极,i,,,1,21,101,35,1,,,,,,,,,,,,,,,,,,,,,,,,,,,,,,,,,,
,,,,,,,,,,,,,,1,001,2025-02-17_15h07.52.783,IAT(Formal),2021.2.3,Win32,169.4915254,,,,,,,,,,,,,,,i,1,1.0733,,,,,,他的,i,,,1,22,102,77,1,,,,,,,,,,,,,,,,,,,,,,,,,,,,,,,,,,
,,,,,,,,,,,,,,1,001,2025-02-17_15h07.52.783,IAT(Formal),2021.2.3,Win32,169.4915254,,,,,,,,,,,,,,,,0,,,,,,,他,i,,,1,23,103,65,1,,,,,,,,,,,,,,,,,,,,,,,,,,,,,,,,,,
,,,,,,,,,,,,,,1,001,2025-02-17_15h07.52.783,IAT(Formal),2021.2.3,Win32,169.4915254,,,,,,,,,,,,,,,e,1,1.2305,,,,,,俺,e,,,1,24,104,4,1,,,,,,,,,,,,,,,,,,,,,,,,,,,,,,,,,,
,,,,,,,,,,,,,,1,001,2025-02-17_15h07.52.783,IAT(Formal),2021.2.3,Win32,169.4915254,,,,,,,,,,,,,,,i,1,0.4574,,,,,,散漫,i,,,1,25,105,41,1,,,,,,,,,,,,,,,,,,,,,,,,,,,,,,,,,,
,,,,,,,,,,,,,,1,001,2025-02-17_15h07.52.783,IAT(Formal),2021.2.3,Win32,169.4915254,,,,,,,,,,,,,,,i,0,0.546,,,,,,我的,e,,,1,26,106,61,1,,,,,,,,,,,,,,,,,,,,,,,,,,,,,,,,,,
,,,,,,,,,,,,,,1,001,2025-02-17_15h07.52.783,IAT(Formal),2021.2.3,Win32,169.4915254,,,,,,,,,,,,,,,,0,,,,,,,勇敢,e,,,1,27,107,17,1,,,,,,,,,,,,,,,,,,,,,,,,,,,,,,,,,,
,,,,,,,,,,,,,,1,001,2025-02-17_15h07.52.783,IAT(Formal),2021.2.3,Win32,169.4915254,,,,,,,,,,,,,,,e,1,0.3583,,,,,,自己,e,,,1,28,108,63,1,,,,,,,,,,,,,,,,,,,,,,,,,,,,,,,,,,
,,,,,,,,,,,,,,1,001,2025-02-17_15h07.52.783,IAT(Formal),2021.2.3,Win32,169.4915254,,,,,,,,,,,,,,,e,1,0.5234,,,,,,活泼,e,,,1,29,109,28,1,,,,,,,,,,,,,,,,,,,,,,,,,,,,,,,,,,
,,,,,,,,,,,,,,1,001,2025-02-17_15h07.52.783,IAT(Formal),2021.2.3,Win32,169.4915254,,,,,,,,,,,,,,,e,1,0.6417,,,,,,稳重,e,,,1,30,110,21,1,,,,,,,,,,,,,,,,,,,,,,,,,,,,,,,,,,
,,,,,,,,,,,,,,1,001,2025-02-17_15h07.52.783,IAT(Formal),2021.2.3,Win32,169.4915254,,,,,,,,,,,,,,,e,1,0.4813,,,,,,我的,e,,,1,31,111,51,1,,,,,,,,,,,,,,,,,,,,,,,,,,,,,,,,,,
,,,,,,,,,,,,,,1,001,2025-02-17_15h07.52.783,IAT(Formal),2021.2.3,Win32,169.4915254,,,,,,,,,,,,,,,e,1,0.9885,,,,,,朴实,e,,,1,32,112,24,1,,,,,,,,,,,,,,,,,,,,,,,,,,,,,,,,,,
,,,,,,,,,,,,,,1,001,2025-02-17_15h07.52.783,IAT(Formal),2021.2.3,Win32,169.4915254,,,,,,,,,,,,,,,e,1,0.3519,,,,,,优秀,e,,,1,33,113,10,1,,,,,,,,,,,,,,,,,,,,,,,,,,,,,,,,,,
,,,,,,,,,,,,,,1,001,2025-02-17_15h07.52.783,IAT(Formal),2021.2.3,Win32,169.4915254,,,,,,,,,,,,,,,e,1,0.4485,,,,,,俺,e,,,1,34,114,54,1,,,,,,,,,,,,,,,,,,,,,,,,,,,,,,,,,,
,,,,,,,,,,,,,,1,001,2025-02-17_15h07.52.783,IAT(Formal),2021.2.3,Win32,169.4915254,,,,,,,,,,,,,,,e,1,1.0709,,,,,,自己,e,,,1,35,115,53,1,,,,,,,,,,,,,,,,,,,,,,,,,,,,,,,,,,
,,,,,,,,,,,,,,1,001,2025-02-17_15h07.52.783,IAT(Formal),2021.2.3,Win32,169.4915254,,,,,,,,,,,,,,,,0,,,,,,,聪明,e,,,1,36,116,12,1,,,,,,,,,,,,,,,,,,,,,,,,,,,,,,,,,,
,,,,,,,,,,,,,,1,001,2025-02-17_15h07.52.783,IAT(Formal),2021.2.3,Win32,169.4915254,,,,,,,,,,,,,,,e,0,0.4875,,,,,,他们,i,,,1,37,117,76,1,,,,,,,,,,,,,,,,,,,,,,,,,,,,,,,,,,
,,,,,,,,,,,,,,1,001,2025-02-17_15h07.52.783,IAT(Formal),2021.2.3,Win32,169.4915254,,,,,,,,,,,,,,,e,1,0.4664,,,,,,机智,e,,,1,38,118,19,1,,,,,,,,,,,,,,,,,,,,,,,,,,,,,,,,,,
,,,,,,,,,,,,,,1,001,2025-02-17_15h07.52.783,IAT(Formal),2021.2.3,Win32,169.4915254,,,,,,,,,,,,,,,i,1,1.0428,,,,,,执拗,i,,,1,39,119,40,1,,,,,,,,,,,,,,,,,,,,,,,,,,,,,,,,,,
,,,,,,,,,,,,,,1,001,2025-02-17_15h07.52.783,IAT(Formal),2021.2.3,Win32,169.4915254,,,,,,,,,,,,,,,e,1,0.6732,,,,,,无私,e,,,1,40,120,22,1,,,,,,,,,,,,,,,,,,,,,,,,,,,,,,,,,,
,,,,,,,,,,,,,,1,001,2025-02-17_15h07.52.783,IAT(Formal),2021.2.3,Win32,169.4915254,,,,,,,,,,,,,,,i,1,0.6243,,,,,,他人,i,,,1,41,121,78,1,,,,,,,,,,,,,,,,,,,,,,,,,,,,,,,,,,
,,,,,,,,,,,,,,1,001,2025-02-17_15h07.52.783,IAT(Formal),2021.2.3,Win32,169.4915254,,,,,,,,,,,,,,,e,1,0.6481,,,,,,我,e,,,1,42,122,50,1,,,,,,,,,,,,,,,,,,,,,,,,,,,,,,,,,,
,,,,,,,,,,,,,,1,001,2025-02-17_15h07.52.783,IAT(Formal),2021.2.3,Win32,169.4915254,,,,,,,,,,,,,,,e,1,0.5762,,,,,,乐观,e,,,1,43,123,14,1,,,,,,,,,,,,,,,,,,,,,,,,,,,,,,,,,,
,,,,,,,,,,,,,,1,001,2025-02-17_15h07.52.783,IAT(Formal),2021.2.3,Win32,169.4915254,,,,,,,,,,,,,,,i,1,1.072,,,,,,其他,i,,,1,44,124,9,1,,,,,,,,,,,,,,,,,,,,,,,,,,,,,,,,,,
,,,,,,,,,,,,,,1,001,2025-02-17_15h07.52.783,IAT(Formal),2021.2.3,Win32,169.4915254,,,,,,,,,,,,,,,e,1,0.6847,,,,,,细腻,e,,,1,45,125,25,1,,,,,,,,,,,,,,,,,,,,,,,,,,,,,,,,,,
,,,,,,,,,,,,,,1,001,2025-02-17_15h07.52.783,IAT(Formal),2021.2.3,Win32,169.4915254,,,,,,,,,,,,,,,,0,,,,,,,暴躁,i,,,1,46,126,44,1,,,,,,,,,,,,,,,,,,,,,,,,,,,,,,,,,,
,,,,,,,,,,,,,,1,001,2025-02-17_15h07.52.783,IAT(Formal),2021.2.3,Win32,169.4915254,,,,,,,,,,,,,,,i,1,0.5471,,,,,,他,i,,,1,47,127,5,1,,,,,,,,,,,,,,,,,,,,,,,,,,,,,,,,,,
,,,,,,,,,,,,,,1,001,2025-02-17_15h07.52.783,IAT(Formal),2021.2.3,Win32,169.4915254,,,,,,,,,,,,,,,e,1,0.5268,,,,,,自己,e,,,1,48,128,73,1,,,,,,,,,,,,,,,,,,,,,,,,,,,,,,,,,,
,,,,,,,,,,,,,,1,001,2025-02-17_15h07.52.783,IAT(Formal),2021.2.3,Win32,169.4915254,,,,,,,,,,,,,,,i,1,0.8154,,,,,,他,i,,,1,49,129,75,1,,,,,,,,,,,,,,,,,,,,,,,,,,,,,,,,,,
,,,,,,,,,,,,,,1,001,2025-02-17_15h07.52.783,IAT(Formal),2021.2.3,Win32,169.4915254,,,,,,,,,,,,,,,e,1,0.8974,,,,,,我们,e,,,1,50,130,62,1,,,,,,,,,,,,,,,,,,,,,,,,,,,,,,,,,,
,,,,,,,,,,,,,,1,001,2025-02-17_15h07.52.783,IAT(Formal),2021.2.3,Win32,169.4915254,,,,,,,,,,,,,,,e,1,0.7368,,,,,,我,e,,,1,51,131,0,1,,,,,,,,,,,,,,,,,,,,,,,,,,,,,,,,,,
,,,,,,,,,,,,,,1,001,2025-02-17_15h07.52.783,IAT(Formal),2021.2.3,Win32,169.4915254,,,,,,,,,,,,,,,i,1,0.6805,,,,,,悲观,i,,,1,52,132,34,1,,,,,,,,,,,,,,,,,,,,,,,,,,,,,,,,,,
,,,,,,,,,,,,,,1,001,2025-02-17_15h07.52.783,IAT(Formal),2021.2.3,Win32,169.4915254,,,,,,,,,,,,,,,e,1,0.5038,,,,,,我们,e,,,1,53,133,2,1,,,,,,,,,,,,,,,,,,,,,,,,,,,,,,,,,,
,,,,,,,,,,,,,,1,001,2025-02-17_15h07.52.783,IAT(Formal),2021.2.3,Win32,169.4915254,,,,,,,,,,,,,,,i,1,0.6266,,,,,,自卑,i,,,1,54,134,36,1,,,,,,,,,,,,,,,,,,,,,,,,,,,,,,,,,,
,,,,,,,,,,,,,,1,001,2025-02-17_15h07.52.783,IAT(Formal),2021.2.3,Win32,169.4915254,,,,,,,,,,,,,,,i,1,0.564,,,,,,傲慢,i,,,1,55,135,37,1,,,,,,,,,,,,,,,,,,,,,,,,,,,,,,,,,,
,,,,,,,,,,,,,,1,001,2025-02-17_15h07.52.783,IAT(Formal),2021.2.3,Win32,169.4915254,,,,,,,,,,,,,,,e,1,0.4973,,,,,,杰出,e,,,1,56,136,13,1,,,,,,,,,,,,,,,,,,,,,,,,,,,,,,,,,,
,,,,,,,,,,,,,,1,001,2025-02-17_15h07.52.783,IAT(Formal),2021.2.3,Win32,169.4915254,,,,,,,,,,,,,,,i,1,0.7818,,,,,,凶狠,i,,,1,57,137,42,1,,,,,,,,,,,,,,,,,,,,,,,,,,,,,,,,,,
,,,,,,,,,,,,,,1,001,2025-02-17_15h07.52.783,IAT(Formal),2021.2.3,Win32,169.4915254,,,,,,,,,,,,,,,e,1,0.4975,,,,,,我,e,,,1,58,138,60,1,,,,,,,,,,,,,,,,,,,,,,,,,,,,,,,,,,
,,,,,,,,,,,,,,1,001,2025-02-17_15h07.52.783,IAT(Formal),2021.2.3,Win32,169.4915254,,,,,,,,,,,,,,,e,1,0.5033,,,,,,我的,e,,,1,59,139,71,1,,,,,,,,,,,,,,,,,,,,,,,,,,,,,,,,,,
,,,,,,,,,,,,,,1,001,2025-02-17_15h07.52.783,IAT(Formal),2021.2.3,Win32,169.4915254,,,,,,,,,,,,,,,e,0,0.3516,,,,,,他们,i,,,1,60,140,66,1,,,,,,,,,,,,,,,,,,,,,,,,,,,,,,,,,,
,,,,,,,,,,,,,,1,001,2025-02-17_15h07.52.783,IAT(Formal),2021.2.3,Win32,169.4915254,,,,,,,,,,,,,,,i,1,0.6564,,,,,,他人,i,,,1,61,141,68,1,,,,,,,,,,,,,,,,,,,,,,,,,,,,,,,,,,
,,,,,,,,,,,,,,1,001,2025-02-17_15h07.52.783,IAT(Formal),2021.2.3,Win32,169.4915254,,,,,,,,,,,,,,,e,1,0.6065,,,,,,认真,e,,,1,62,142,20,1,,,,,,,,,,,,,,,,,,,,,,,,,,,,,,,,,,
,,,,,,,,,,,,,,1,001,2025-02-17_15h07.52.783,IAT(Formal),2021.2.3,Win32,169.4915254,,,,,,,,,,,,,,,i,1,0.7538,,,,,,自私,i,,,1,63,143,43,1,,,,,,,,,,,,,,,,,,,,,,,,,,,,,,,,,,
,,,,,,,,,,,,,,1,001,2025-02-17_15h07.52.783,IAT(Formal),2021.2.3,Win32,169.4915254,,,,,,,,,,,,,,,e,1,0.5722,,,,,,冷静,e,,,1,64,144,26,1,,,,,,,,,,,,,,,,,,,,,,,,,,,,,,,,,,
,,,,,,,,,,,,,,1,001,2025-02-17_15h07.52.783,IAT(Formal),2021.2.3,Win32,169.4915254,,,,,,,,,,,,,,,i,1,0.4067,,,,,,他们,i,,,1,65,145,6,1,,,,,,,,,,,,,,,,,,,,,,,,,,,,,,,,,,
,,,,,,,,,,,,,,1,001,2025-02-17_15h07.52.783,IAT(Formal),2021.2.3,Win32,169.4915254,,,,,,,,,,,,,,,i,1,0.521,,,,,,愚蠢,i,,,1,66,146,32,1,,,,,,,,,,,,,,,,,,,,,,,,,,,,,,,,,,
,,,,,,,,,,,,,,1,001,2025-02-17_15h07.52.783,IAT(Formal),2021.2.3,Win32,169.4915254,,,,,,,,,,,,,,,i,1,0.5155,,,,,,鲁莽,i,,,1,67,147,38,1,,,,,,,,,,,,,,,,,,,,,,,,,,,,,,,,,,
,,,,,,,,,,,,,,1,001,2025-02-17_15h07.52.783,IAT(Formal),2021.2.3,Win32,169.4915254,,,,,,,,,,,,,,,i,1,0.5702,,,,,,其他,i,,,1,68,148,79,1,,,,,,,,,,,,,,,,,,,,,,,,,,,,,,,,,,
,,,,,,,,,,,,,,1,001,2025-02-17_15h07.52.783,IAT(Formal),2021.2.3,Win32,169.4915254,,,,,,,,,,,,,,,i,0,0.3942,,,,,,我们,e,,,1,69,149,52,1,,,,,,,,,,,,,,,,,,,,,,,,,,,,,,,,,,
,,,,,,,,,,,,,,1,001,2025-02-17_15h07.52.783,IAT(Formal),2021.2.3,Win32,169.4915254,,,,,,,,,,,,,,,i,1,0.4852,,,,,,猖狂,i,,,1,70,150,45,1,,,,,,,,,,,,,,,,,,,,,,,,,,,,,,,,,,
,,,,,,,,,,,,,,1,001,2025-02-17_15h07.52.783,IAT(Formal),2021.2.3,Win32,169.4915254,,,,,,,,,,,,,,,e,1,0.481,,,,,,我们,e,,,1,71,151,72,1,,,,,,,,,,,,,,,,,,,,,,,,,,,,,,,,,,
,,,,,,,,,,,,,,1,001,2025-02-17_15h07.52.783,IAT(Formal),2021.2.3,Win32,169.4915254,,,,,,,,,,,,,,,e,1,0.5644,,,,,,俺,e,,,1,72,152,74,1,,,,,,,,,,,,,,,,,,,,,,,,,,,,,,,,,,
,,,,,,,,,,,,,,1,001,2025-02-17_15h07.52.783,IAT(Formal),2021.2.3,Win32,169.4915254,,,,,,,,,,,,,,,e,0,1.043,,,,,,他的,i,,,1,73,153,57,1,,,,,,,,,,,,,,,,,,,,,,,,,,,,,,,,,,
,,,,,,,,,,,,,,1,001,2025-02-17_15h07.52.783,IAT(Formal),2021.2.3,Win32,169.4915254,,,,,,,,,,,,,,,,0,,,,,,,我,e,,,1,74,154,70,1,,,,,,,,,,,,,,,,,,,,,,,,,,,,,,,,,,
,,,,,,,,,,,,,,1,001,2025-02-17_15h07.52.783,IAT(Formal),2021.2.3,Win32,169.4915254,,,,,,,,,,,,,,,e,1,0.5031,,,,,,勤奋,e,,,1,75,155,18,1,,,,,,,,,,,,,,,,,,,,,,,,,,,,,,,,,,
,,,,,,,,,,,,,,1,001,2025-02-17_15h07.52.783,IAT(Formal),2021.2.3,Win32,169.4915254,,,,,,,,,,,,,,,e,1,0.6682,,,,,,公正,e,,,1,76,156,23,1,,,,,,,,,,,,,,,,,,,,,,,,,,,,,,,,,,
,,,,,,,,,,,,,,1,001,2025-02-17_15h07.52.783,IAT(Formal),2021.2.3,Win32,169.4915254,,,,,,,,,,,,,,,e,0,0.3607,,,,,,他的,i,,,1,77,157,7,1,,,,,,,,,,,,,,,,,,,,,,,,,,,,,,,,,,
,,,,,,,,,,,,,,1,001,2025-02-17_15h07.52.783,IAT(Formal),2021.2.3,Win32,169.4915254,,,,,,,,,,,,,,,e,1,0.5242,,,,,,热情,e,,,1,78,158,27,1,,,,,,,,,,,,,,,,,,,,,,,,,,,,,,,,,,
,,,,,,,,,,,,,,1,001,2025-02-17_15h07.52.783,IAT(Formal),2021.2.3,Win32,169.4915254,,,,,,,,,,,,,,,e,1,0.4548,,,,,,诚实,e,,,1,79,159,15,1,,,,,,,,,,,,,,,,,,,,,,,,,,,,,,,,,,
,,,,,,,,,,,,自己,i,1,001,2025-02-17_15h07.52.783,IAT(Formal),2021.2.3,Win32,169.4915254,,,,,,,,,,,,,,,,,,,,,,,,,,,,,,,,space,10.7637,i,1,0.8064,0,0,0,3,1,,,,,,,,,,,,,,,,,,,,,,,,
,,,,,,,,,,,,我们,i,1,001,2025-02-17_15h07.52.783,IAT(Formal),2021.2.3,Win32,169.4915254,,,,,,,,,,,,,,,,,,,,,,,,,,,,,,,,,,i,1,0.7121,0,1,1,2,1,,,,,,,,,,,,,,,,,,,,,,,,
,,,,,,,,,,,,他的,e,1,001,2025-02-17_15h07.52.783,IAT(Formal),2021.2.3,Win32,169.4915254,,,,,,,,,,,,,,,,,,,,,,,,,,,,,,,,,,e,1,0.4443,0,2,2,7,1,,,,,,,,,,,,,,,,,,,,,,,,
,,,,,,,,,,,,他们,e,1,001,2025-02-17_15h07.52.783,IAT(Formal),2021.2.3,Win32,169.4915254,,,,,,,,,,,,,,,,,,,,,,,,,,,,,,,,,,e,1,0.8151,0,3,3,6,1,,,,,,,,,,,,,,,,,,,,,,,,
,,,,,,,,,,,,我的,i,1,001,2025-02-17_15h07.52.783,IAT(Formal),2021.2.3,Win32,169.4915254,,,,,,,,,,,,,,,,,,,,,,,,,,,,,,,,,,i,1,0.4819,0,4,4,1,1,,,,,,,,,,,,,,,,,,,,,,,,
,,,,,,,,,,,,俺,i,1,001,2025-02-17_15h07.52.783,IAT(Formal),2021.2.3,Win32,169.4915254,,,,,,,,,,,,,,,,,,,,,,,,,,,,,,,,,,i,1,0.6935,0,5,5,4,1,,,,,,,,,,,,,,,,,,,,,,,,
,,,,,,,,,,,,我,i,1,001,2025-02-17_15h07.52.783,IAT(Formal),2021.2.3,Win32,169.4915254,,,,,,,,,,,,,,,,,,,,,,,,,,,,,,,,,,i,1,0.4494,0,6,6,0,1,,,,,,,,,,,,,,,,,,,,,,,,
,,,,,,,,,,,,他,e,1,001,2025-02-17_15h07.52.783,IAT(Formal),2021.2.3,Win32,169.4915254,,,,,,,,,,,,,,,,,,,,,,,,,,,,,,,,,,e,1,0.6915,0,7,7,5,1,,,,,,,,,,,,,,,,,,,,,,,,
,,,,,,,,,,,,其他,e,1,001,2025-02-17_15h07.52.783,IAT(Formal),2021.2.3,Win32,169.4915254,,,,,,,,,,,,,,,,,,,,,,,,,,,,,,,,,,i,0,0.7577,0,8,8,9,1,,,,,,,,,,,,,,,,,,,,,,,,
,,,,,,,,,,,,他人,e,1,001,2025-02-17_15h07.52.783,IAT(Formal),2021.2.3,Win32,169.4915254,,,,,,,,,,,,,,,,,,,,,,,,,,,,,,,,,,e,1,0.6548,0,9,9,8,1,,,,,,,,,,,,,,,,,,,,,,,,
,,,,,,,,,,,,,,1,001,2025-02-17_15h07.52.783,IAT(Formal),2021.2.3,Win32,169.4915254,,,,,,,,,,,,,,,,,,,,,,,,,,,,,,,,,,,,,,,,,,space,3.8258,i,1,1.0671,0,0,0,74,1,俺,i,,,,,,,,,,,,
,,,,,,,,,,,,,,1,001,2025-02-17_15h07.52.783,IAT(Formal),2021.2.3,Win32,169.4915254,,,,,,,,,,,,,,,,,,,,,,,,,,,,,,,,,,,,,,,,,,,,i,1,0.6067,0,1,1,31,1,虚伪,i,,,,,,,,,,,,
,,,,,,,,,,,,,,1,001,2025-02-17_15h07.52.783,IAT(Formal),2021.2.3,Win32,169.4915254,,,,,,,,,,,,,,,,,,,,,,,,,,,,,,,,,,,,,,,,,,,,i,1,0.5653,0,2,2,54,1,俺,i,,,,,,,,,,,,
,,,,,,,,,,,,,,1,001,2025-02-17_15h07.52.783,IAT(Formal),2021.2.3,Win32,169.4915254,,,,,,,,,,,,,,,,,,,,,,,,,,,,,,,,,,,,,,,,,,,,e,0,0.8306,0,3,3,38,1,鲁莽,i,,,,,,,,,,,,
,,,,,,,,,,,,,,1,001,2025-02-17_15h07.52.783,IAT(Formal),2021.2.3,Win32,169.4915254,,,,,,,,,,,,,,,,,,,,,,,,,,,,,,,,,,,,,,,,,,,,e,1,1.1578,0,4,4,20,1,认真,e,,,,,,,,,,,,
,,,,,,,,,,,,,,1,001,2025-02-17_15h07.52.783,IAT(Formal),2021.2.3,Win32,169.4915254,,,,,,,,,,,,,,,,,,,,,,,,,,,,,,,,,,,,,,,,,,,,i,1,0.9242,0,5,5,35,1,消极,i,,,,,,,,,,,,
,,,,,,,,,,,,,,1,001,2025-02-17_15h07.52.783,IAT(Formal),2021.2.3,Win32,169.4915254,,,,,,,,,,,,,,,,,,,,,,,,,,,,,,,,,,,,,,,,,,,,,0,,0,6,6,7,1,他的,e,,,,,,,,,,,,
,,,,,,,,,,,,,,1,001,2025-02-17_15h07.52.783,IAT(Formal),2021.2.3,Win32,169.4915254,,,,,,,,,,,,,,,,,,,,,,,,,,,,,,,,,,,,,,,,,,,,e,1,0.6728,0,7,7,24,1,朴实,e,,,,,,,,,,,,
,,,,,,,,,,,,,,1,001,2025-02-17_15h07.52.783,IAT(Formal),2021.2.3,Win32,169.4915254,,,,,,,,,,,,,,,,,,,,,,,,,,,,,,,,,,,,,,,,,,,,e,1,0.7228,0,8,8,65,1,他,e,,,,,,,,,,,,
,,,,,,,,,,,,,,1,001,2025-02-17_15h07.52.783,IAT(Formal),2021.2.3,Win32,169.4915254,,,,,,,,,,,,,,,,,,,,,,,,,,,,,,,,,,,,,,,,,,,,i,1,0.5589,0,9,9,51,1,我的,i,,,,,,,,,,,,
,,,,,,,,,,,,,,1,001,2025-02-17_15h07.52.783,IAT(Formal),2021.2.3,Win32,169.4915254,,,,,,,,,,,,,,,,,,,,,,,,,,,,,,,,,,,,,,,,,,,,e,1,0.6245,0,10,10,76,1,他们,e,,,,,,,,,,,,
,,,,,,,,,,,,,,1,001,2025-02-17_15h07.52.783,IAT(Formal),2021.2.3,Win32,169.4915254,,,,,,,,,,,,,,,,,,,,,,,,,,,,,,,,,,,,,,,,,,,,e,1,0.6256,0,11,11,11,1,崇高,e,,,,,,,,,,,,
,,,,,,,,,,,,,,1,001,2025-02-17_15h07.52.783,IAT(Formal),2021.2.3,Win32,169.4915254,,,,,,,,,,,,,,,,,,,,,,,,,,,,,,,,,,,,,,,,,,,,e,1,0.5967,0,12,12,26,1,冷静,e,,,,,,,,,,,,
,,,,,,,,,,,,,,1,001,2025-02-17_15h07.52.783,IAT(Formal),2021.2.3,Win32,169.4915254,,,,,,,,,,,,,,,,,,,,,,,,,,,,,,,,,,,,,,,,,,,,i,1,0.4905,0,13,13,48,1,轻率,i,,,,,,,,,,,,
,,,,,,,,,,,,,,1,001,2025-02-17_15h07.52.783,IAT(Formal),2021.2.3,Win32,169.4915254,,,,,,,,,,,,,,,,,,,,,,,,,,,,,,,,,,,,,,,,,,,,i,1,0.4427,0,14,14,63,1,自己,i,,,,,,,,,,,,
,,,,,,,,,,,,,,1,001,2025-02-17_15h07.52.783,IAT(Formal),2021.2.3,Win32,169.4915254,,,,,,,,,,,,,,,,,,,,,,,,,,,,,,,,,,,,,,,,,,,,e,1,0.6848,0,15,15,25,1,细腻,e,,,,,,,,,,,,
,,,,,,,,,,,,,,1,001,2025-02-17_15h07.52.783,IAT(Formal),2021.2.3,Win32,169.4915254,,,,,,,,,,,,,,,,,,,,,,,,,,,,,,,,,,,,,,,,,,,,i,1,1.0722,0,16,16,44,1,暴躁,i,,,,,,,,,,,,
,,,,,,,,,,,,,,1,001,2025-02-17_15h07.52.783,IAT(Formal),2021.2.3,Win32,169.4915254,,,,,,,,,,,,,,,,,,,,,,,,,,,,,,,,,,,,,,,,,,,,e,0,0.6211,0,17,17,45,1,猖狂,i,,,,,,,,,,,,
,,,,,,,,,,,,,,1,001,2025-02-17_15h07.52.783,IAT(Formal),2021.2.3,Win32,169.4915254,,,,,,,,,,,,,,,,,,,,,,,,,,,,,,,,,,,,,,,,,,,,e,1,0.6546,0,18,18,69,1,其他,e,,,,,,,,,,,,
,,,,,,,,,,,,,,1,001,2025-02-17_15h07.52.783,IAT(Formal),2021.2.3,Win32,169.4915254,,,,,,,,,,,,,,,,,,,,,,,,,,,,,,,,,,,,,,,,,,,,i,1,0.9941,0,19,19,39,1,冒失,i,,,,,,,,,,,,
,,,,,,,,,,,,,,1,001,2025-02-17_15h07.52.783,IAT(Formal),2021.2.3,Win32,169.4915254,,,,,,,,,,,,,,,,,,,,,,,,,,,,,,,,,,,,,,,,,,,,i,1,0.5436,0,20,20,64,1,俺,i,,,,,,,,,,,,
,,,,,,,,,,,,,,1,001,2025-02-17_15h07.52.783,IAT(Formal),2021.2.3,Win32,169.4915254,,,,,,,,,,,,,,,,,,,,,,,,,,,,,,,,,,,,,,,,,,,,i,0,0.563,0,21,21,16,1,正直,e,,,,,,,,,,,,
,,,,,,,,,,,,,,1,001,2025-02-17_15h07.52.783,IAT(Formal),2021.2.3,Win32,169.4915254,,,,,,,,,,,,,,,,,,,,,,,,,,,,,,,,,,,,,,,,,,,,e,1,1.0613,0,22,22,67,1,他的,e,,,,,,,,,,,,
,,,,,,,,,,,,,,1,001,2025-02-17_15h07.52.783,IAT(Formal),2021.2.3,Win32,169.4915254,,,,,,,,,,,,,,,,,,,,,,,,,,,,,,,,,,,,,,,,,,,,e,1,0.7155,0,23,23,59,1,其他,e,,,,,,,,,,,,
,,,,,,,,,,,,,,1,001,2025-02-17_15h07.52.783,IAT(Formal),2021.2.3,Win32,169.4915254,,,,,,,,,,,,,,,,,,,,,,,,,,,,,,,,,,,,,,,,,,,,i,1,0.3815,0,24,24,0,1,我,i,,,,,,,,,,,,
,,,,,,,,,,,,,,1,001,2025-02-17_15h07.52.783,IAT(Formal),2021.2.3,Win32,169.4915254,,,,,,,,,,,,,,,,,,,,,,,,,,,,,,,,,,,,,,,,,,,,i,1,0.8009,0,25,25,30,1,卑鄙,i,,,,,,,,,,,,
,,,,,,,,,,,,,,1,001,2025-02-17_15h07.52.783,IAT(Formal),2021.2.3,Win32,169.4915254,,,,,,,,,,,,,,,,,,,,,,,,,,,,,,,,,,,,,,,,,,,,i,1,0.7277,0,26,26,43,1,自私,i,,,,,,,,,,,,
,,,,,,,,,,,,,,1,001,2025-02-17_15h07.52.783,IAT(Formal),2021.2.3,Win32,169.4915254,,,,,,,,,,,,,,,,,,,,,,,,,,,,,,,,,,,,,,,,,,,,e,1,1.3293,0,27,27,66,1,他们,e,,,,,,,,,,,,
,,,,,,,,,,,,,,1,001,2025-02-17_15h07.52.783,IAT(Formal),2021.2.3,Win32,169.4915254,,,,,,,,,,,,,,,,,,,,,,,,,,,,,,,,,,,,,,,,,,,,e,1,0.5157,0,28,28,56,1,他们,e,,,,,,,,,,,,
,,,,,,,,,,,,,,1,001,2025-02-17_15h07.52.783,IAT(Formal),2021.2.3,Win32,169.4915254,,,,,,,,,,,,,,,,,,,,,,,,,,,,,,,,,,,,,,,,,,,,e,1,0.4819,0,29,29,57,1,他的,e,,,,,,,,,,,,
,,,,,,,,,,,,,,1,001,2025-02-17_15h07.52.783,IAT(Formal),2021.2.3,Win32,169.4915254,,,,,,,,,,,,,,,,,,,,,,,,,,,,,,,,,,,,,,,,,,,,e,1,0.4331,0,30,30,5,1,他,e,,,,,,,,,,,,
,,,,,,,,,,,,,,1,001,2025-02-17_15h07.52.783,IAT(Formal),2021.2.3,Win32,169.4915254,,,,,,,,,,,,,,,,,,,,,,,,,,,,,,,,,,,,,,,,,,,,e,1,0.7701,0,31,31,19,1,机智,e,,,,,,,,,,,,
,,,,,,,,,,,,,,1,001,2025-02-17_15h07.52.783,IAT(Formal),2021.2.3,Win32,169.4915254,,,,,,,,,,,,,,,,,,,,,,,,,,,,,,,,,,,,,,,,,,,,i,1,0.7885,0,32,32,47,1,固执,i,,,,,,,,,,,,
,,,,,,,,,,,,,,1,001,2025-02-17_15h07.52.783,IAT(Formal),2021.2.3,Win32,169.4915254,,,,,,,,,,,,,,,,,,,,,,,,,,,,,,,,,,,,,,,,,,,,e,1,0.8249,0,33,33,13,1,杰出,e,,,,,,,,,,,,
,,,,,,,,,,,,,,1,001,2025-02-17_15h07.52.783,IAT(Formal),2021.2.3,Win32,169.4915254,,,,,,,,,,,,,,,,,,,,,,,,,,,,,,,,,,,,,,,,,,,,i,0,0.7593,0,34,34,6,1,他们,e,,,,,,,,,,,,
,,,,,,,,,,,,,,1,001,2025-02-17_15h07.52.783,IAT(Formal),2021.2.3,Win32,169.4915254,,,,,,,,,,,,,,,,,,,,,,,,,,,,,,,,,,,,,,,,,,,,i,1,0.8246,0,35,35,71,1,我的,i,,,,,,,,,,,,
,,,,,,,,,,,,,,1,001,2025-02-17_15h07.52.783,IAT(Formal),2021.2.3,Win32,169.4915254,,,,,,,,,,,,,,,,,,,,,,,,,,,,,,,,,,,,,,,,,,,,e,1,1.0245,0,36,36,9,1,其他,e,,,,,,,,,,,,
,,,,,,,,,,,,,,1,001,2025-02-17_15h07.52.783,IAT(Formal),2021.2.3,Win32,169.4915254,,,,,,,,,,,,,,,,,,,,,,,,,,,,,,,,,,,,,,,,,,,,e,1,0.7462,0,37,37,58,1,他人,e,,,,,,,,,,,,
,,,,,,,,,,,,,,1,001,2025-02-17_15h07.52.783,IAT(Formal),2021.2.3,Win32,169.4915254,,,,,,,,,,,,,,,,,,,,,,,,,,,,,,,,,,,,,,,,,,,,e,0,0.9311,0,38,38,46,1,野蛮,i,,,,,,,,,,,,
,,,,,,,,,,,,,,1,001,2025-02-17_15h07.52.783,IAT(Formal),2021.2.3,Win32,169.4915254,,,,,,,,,,,,,,,,,,,,,,,,,,,,,,,,,,,,,,,,,,,,e,1,1.2515,0,39,39,29,1,诚恳,e,,,,,,,,,,,,
,,,,,,,,,,,,,,1,001,2025-02-17_15h07.52.783,IAT(Formal),2021.2.3,Win32,169.4915254,,,,,,,,,,,,,,,,,,,,,,,,,,,,,,,,,,,,,,,,,,,,e,1,0.5822,0,40,40,8,1,他人,e,,,,,,,,,,,,
,,,,,,,,,,,,,,1,001,2025-02-17_15h07.52.783,IAT(Formal),2021.2.3,Win32,169.4915254,,,,,,,,,,,,,,,,,,,,,,,,,,,,,,,,,,,,,,,,,,,,i,1,0.8912,0,41,41,61,1,我的,i,,,,,,,,,,,,
,,,,,,,,,,,,,,1,001,2025-02-17_15h07.52.783,IAT(Formal),2021.2.3,Win32,169.4915254,,,,,,,,,,,,,,,,,,,,,,,,,,,,,,,,,,,,,,,,,,,,e,1,1.3457,0,42,42,15,1,诚实,e,,,,,,,,,,,,
,,,,,,,,,,,,,,1,001,2025-02-17_15h07.52.783,IAT(Formal),2021.2.3,Win32,169.4915254,,,,,,,,,,,,,,,,,,,,,,,,,,,,,,,,,,,,,,,,,,,,e,1,0.8795,0,43,43,79,1,其他,e,,,,,,,,,,,,
,,,,,,,,,,,,,,1,001,2025-02-17_15h07.52.783,IAT(Formal),2021.2.3,Win32,169.4915254,,,,,,,,,,,,,,,,,,,,,,,,,,,,,,,,,,,,,,,,,,,,i,1,0.7017,0,44,44,4,1,俺,i,,,,,,,,,,,,
,,,,,,,,,,,,,,1,001,2025-02-17_15h07.52.783,IAT(Formal),2021.2.3,Win32,169.4915254,,,,,,,,,,,,,,,,,,,,,,,,,,,,,,,,,,,,,,,,,,,,i,1,0.6788,0,45,45,2,1,我们,i,,,,,,,,,,,,
,,,,,,,,,,,,,,1,001,2025-02-17_15h07.52.783,IAT(Formal),2021.2.3,Win32,169.4915254,,,,,,,,,,,,,,,,,,,,,,,,,,,,,,,,,,,,,,,,,,,,i,1,0.5338,0,46,46,52,1,我们,i,,,,,,,,,,,,
,,,,,,,,,,,,,,1,001,2025-02-17_15h07.52.783,IAT(Formal),2021.2.3,Win32,169.4915254,,,,,,,,,,,,,,,,,,,,,,,,,,,,,,,,,,,,,,,,,,,,e,1,0.765,0,47,47,12,1,聪明,e,,,,,,,,,,,,
,,,,,,,,,,,,,,1,001,2025-02-17_15h07.52.783,IAT(Formal),2021.2.3,Win32,169.4915254,,,,,,,,,,,,,,,,,,,,,,,,,,,,,,,,,,,,,,,,,,,,e,1,1.0428,0,48,48,27,1,热情,e,,,,,,,,,,,,
,,,,,,,,,,,,,,1,001,2025-02-17_15h07.52.783,IAT(Formal),2021.2.3,Win32,169.4915254,,,,,,,,,,,,,,,,,,,,,,,,,,,,,,,,,,,,,,,,,,,,e,1,0.7216,0,49,49,68,1,他人,e,,,,,,,,,,,,
,,,,,,,,,,,,,,1,001,2025-02-17_15h07.52.783,IAT(Formal),2021.2.3,Win32,169.4915254,,,,,,,,,,,,,,,,,,,,,,,,,,,,,,,,,,,,,,,,,,,,i,1,0.5402,0,50,50,49,1,下贱,i,,,,,,,,,,,,
,,,,,,,,,,,,,,1,001,2025-02-17_15h07.52.783,IAT(Formal),2021.2.3,Win32,169.4915254,,,,,,,,,,,,,,,,,,,,,,,,,,,,,,,,,,,,,,,,,,,,i,1,0.4306,0,51,51,50,1,我,i,,,,,,,,,,,,
,,,,,,,,,,,,,,1,001,2025-02-17_15h07.52.783,IAT(Formal),2021.2.3,Win32,169.4915254,,,,,,,,,,,,,,,,,,,,,,,,,,,,,,,,,,,,,,,,,,,,e,1,0.6007,0,52,52,22,1,无私,e,,,,,,,,,,,,
,,,,,,,,,,,,,,1,001,2025-02-17_15h07.52.783,IAT(Formal),2021.2.3,Win32,169.4915254,,,,,,,,,,,,,,,,,,,,,,,,,,,,,,,,,,,,,,,,,,,,i,0,0.7279,0,53,53,18,1,勤奋,e,,,,,,,,,,,,
,,,,,,,,,,,,,,1,001,2025-02-17_15h07.52.783,IAT(Formal),2021.2.3,Win32,169.4915254,,,,,,,,,,,,,,,,,,,,,,,,,,,,,,,,,,,,,,,,,,,,i,1,0.4796,0,54,54,53,1,自己,i,,,,,,,,,,,,
,,,,,,,,,,,,,,1,001,2025-02-17_15h07.52.783,IAT(Formal),2021.2.3,Win32,169.4915254,,,,,,,,,,,,,,,,,,,,,,,,,,,,,,,,,,,,,,,,,,,,i,1,0.6988,0,55,55,62,1,我们,i,,,,,,,,,,,,
,,,,,,,,,,,,,,1,001,2025-02-17_15h07.52.783,IAT(Formal),2021.2.3,Win32,169.4915254,,,,,,,,,,,,,,,,,,,,,,,,,,,,,,,,,,,,,,,,,,,,e,0,0.4783,0,56,56,37,1,傲慢,i,,,,,,,,,,,,
,,,,,,,,,,,,,,1,001,2025-02-17_15h07.52.783,IAT(Formal),2021.2.3,Win32,169.4915254,,,,,,,,,,,,,,,,,,,,,,,,,,,,,,,,,,,,,,,,,,,,i,1,0.4433,0,57,57,3,1,自己,i,,,,,,,,,,,,
,,,,,,,,,,,,,,1,001,2025-02-17_15h07.52.783,IAT(Formal),2021.2.3,Win32,169.4915254,,,,,,,,,,,,,,,,,,,,,,,,,,,,,,,,,,,,,,,,,,,,e,0,0.5282,0,58,58,42,1,凶狠,i,,,,,,,,,,,,
,,,,,,,,,,,,,,1,001,2025-02-17_15h07.52.783,IAT(Formal),2021.2.3,Win32,169.4915254,,,,,,,,,,,,,,,,,,,,,,,,,,,,,,,,,,,,,,,,,,,,i,1,0.6067,0,59,59,41,1,散漫,i,,,,,,,,,,,,
,,,,,,,,,,,,,,1,001,2025-02-17_15h07.52.783,IAT(Formal),2021.2.3,Win32,169.4915254,,,,,,,,,,,,,,,,,,,,,,,,,,,,,,,,,,,,,,,,,,,,i,1,0.457,0,60,60,73,1,自己,i,,,,,,,,,,,,
,,,,,,,,,,,,,,1,001,2025-02-17_15h07.52.783,IAT(Formal),2021.2.3,Win32,169.4915254,,,,,,,,,,,,,,,,,,,,,,,,,,,,,,,,,,,,,,,,,,,,i,1,0.5638,0,61,61,33,1,刻薄,i,,,,,,,,,,,,
,,,,,,,,,,,,,,1,001,2025-02-17_15h07.52.783,IAT(Formal),2021.2.3,Win32,169.4915254,,,,,,,,,,,,,,,,,,,,,,,,,,,,,,,,,,,,,,,,,,,,i,1,0.9154,0,62,62,36,1,自卑,i,,,,,,,,,,,,
,,,,,,,,,,,,,,1,001,2025-02-17_15h07.52.783,IAT(Formal),2021.2.3,Win32,169.4915254,,,,,,,,,,,,,,,,,,,,,,,,,,,,,,,,,,,,,,,,,,,,i,1,0.4187,0,63,63,60,1,我,i,,,,,,,,,,,,
,,,,,,,,,,,,,,1,001,2025-02-17_15h07.52.783,IAT(Formal),2021.2.3,Win32,169.4915254,,,,,,,,,,,,,,,,,,,,,,,,,,,,,,,,,,,,,,,,,,,,e,1,0.6547,0,64,64,23,1,公正,e,,,,,,,,,,,,
,,,,,,,,,,,,,,1,001,2025-02-17_15h07.52.783,IAT(Formal),2021.2.3,Win32,169.4915254,,,,,,,,,,,,,,,,,,,,,,,,,,,,,,,,,,,,,,,,,,,,e,1,0.6817,0,65,65,17,1,勇敢,e,,,,,,,,,,,,
,,,,,,,,,,,,,,1,001,2025-02-17_15h07.52.783,IAT(Formal),2021.2.3,Win32,169.4915254,,,,,,,,,,,,,,,,,,,,,,,,,,,,,,,,,,,,,,,,,,,,i,0,0.716,0,66,66,14,1,乐观,e,,,,,,,,,,,,
,,,,,,,,,,,,,,1,001,2025-02-17_15h07.52.783,IAT(Formal),2021.2.3,Win32,169.4915254,,,,,,,,,,,,,,,,,,,,,,,,,,,,,,,,,,,,,,,,,,,,i,0,0.7396,0,67,67,10,1,优秀,e,,,,,,,,,,,,
,,,,,,,,,,,,,,1,001,2025-02-17_15h07.52.783,IAT(Formal),2021.2.3,Win32,169.4915254,,,,,,,,,,,,,,,,,,,,,,,,,,,,,,,,,,,,,,,,,,,,e,1,0.7516,0,68,68,55,1,他,e,,,,,,,,,,,,
,,,,,,,,,,,,,,1,001,2025-02-17_15h07.52.783,IAT(Formal),2021.2.3,Win32,169.4915254,,,,,,,,,,,,,,,,,,,,,,,,,,,,,,,,,,,,,,,,,,,,i,1,0.5821,0,69,69,72,1,我们,i,,,,,,,,,,,,
,,,,,,,,,,,,,,1,001,2025-02-17_15h07.52.783,IAT(Formal),2021.2.3,Win32,169.4915254,,,,,,,,,,,,,,,,,,,,,,,,,,,,,,,,,,,,,,,,,,,,e,1,0.4698,0,70,70,75,1,他,e,,,,,,,,,,,,
,,,,,,,,,,,,,,1,001,2025-02-17_15h07.52.783,IAT(Formal),2021.2.3,Win32,169.4915254,,,,,,,,,,,,,,,,,,,,,,,,,,,,,,,,,,,,,,,,,,,,e,1,0.7277,0,71,71,21,1,稳重,e,,,,,,,,,,,,
,,,,,,,,,,,,,,1,001,2025-02-17_15h07.52.783,IAT(Formal),2021.2.3,Win32,169.4915254,,,,,,,,,,,,,,,,,,,,,,,,,,,,,,,,,,,,,,,,,,,,i,1,0.5767,0,72,72,34,1,悲观,i,,,,,,,,,,,,
,,,,,,,,,,,,,,1,001,2025-02-17_15h07.52.783,IAT(Formal),2021.2.3,Win32,169.4915254,,,,,,,,,,,,,,,,,,,,,,,,,,,,,,,,,,,,,,,,,,,,,0,,0,73,73,32,1,愚蠢,i,,,,,,,,,,,,
,,,,,,,,,,,,,,1,001,2025-02-17_15h07.52.783,IAT(Formal),2021.2.3,Win32,169.4915254,,,,,,,,,,,,,,,,,,,,,,,,,,,,,,,,,,,,,,,,,,,,i,1,0.4612,0,74,74,40,1,执拗,i,,,,,,,,,,,,
,,,,,,,,,,,,,,1,001,2025-02-17_15h07.52.783,IAT(Formal),2021.2.3,Win32,169.4915254,,,,,,,,,,,,,,,,,,,,,,,,,,,,,,,,,,,,,,,,,,,,i,1,0.7945,0,75,75,70,1,我,i,,,,,,,,,,,,
,,,,,,,,,,,,,,1,001,2025-02-17_15h07.52.783,IAT(Formal),2021.2.3,Win32,169.4915254,,,,,,,,,,,,,,,,,,,,,,,,,,,,,,,,,,,,,,,,,,,,e,1,0.7458,0,76,76,28,1,活泼,e,,,,,,,,,,,,
,,,,,,,,,,,,,,1,001,2025-02-17_15h07.52.783,IAT(Formal),2021.2.3,Win32,169.4915254,,,,,,,,,,,,,,,,,,,,,,,,,,,,,,,,,,,,,,,,,,,,e,1,0.684,0,77,77,77,1,他的,e,,,,,,,,,,,,
,,,,,,,,,,,,,,1,001,2025-02-17_15h07.52.783,IAT(Formal),2021.2.3,Win32,169.4915254,,,,,,,,,,,,,,,,,,,,,,,,,,,,,,,,,,,,,,,,,,,,i,1,0.4973,0,78,78,1,1,我的,i,,,,,,,,,,,,
,,,,,,,,,,,,,,1,001,2025-02-17_15h07.52.783,IAT(Formal),2021.2.3,Win32,169.4915254,,,,,,,,,,,,,,,,,,,,,,,,,,,,,,,,,,,,,,,,,,,,e,1,0.5579,0,79,79,78,1,他人,e,,,,,,,,,,,,
,,,,,,,,,,,,,,1,001,2025-02-17_15h07.52.783,IAT(Formal),2021.2.3,Win32,169.4915254,,,,,,,,,,,,,,,,,,,,,,,,,,,,,,,,,,,,,,,,,,,,,,,,,,,,聪明,e,space,13.8569,i,0,0.5888,0,0,0,12,1,,
,,,,,,,,,,,,,,1,001,2025-02-17_15h07.52.783,IAT(Formal),2021.2.3,Win32,169.4915254,,,,,,,,,,,,,,,,,,,,,,,,,,,,,,,,,,,,,,,,,,,,,,,,,,,,虚伪,i,,,i,1,0.6774,0,1,1,31,1,,
,,,,,,,,,,,,,,1,001,2025-02-17_15h07.52.783,IAT(Formal),2021.2.3,Win32,169.4915254,,,,,,,,,,,,,,,,,,,,,,,,,,,,,,,,,,,,,,,,,,,,,,,,,,,,他人,e,,,e,1,1.0429,0,2,2,58,1,,
,,,,,,,,,,,,,,1,001,2025-02-17_15h07.52.783,IAT(Formal),2021.2.3,Win32,169.4915254,,,,,,,,,,,,,,,,,,,,,,,,,,,,,,,,,,,,,,,,,,,,,,,,,,,,我,i,,,i,1,0.8912,0,3,3,0,1,,
,,,,,,,,,,,,,,1,001,2025-02-17_15h07.52.783,IAT(Formal),2021.2.3,Win32,169.4915254,,,,,,,,,,,,,,,,,,,,,,,,,,,,,,,,,,,,,,,,,,,,,,,,,,,,执拗,i,,,i,1,1.103,0,4,4,40,1,,
,,,,,,,,,,,,,,1,001,2025-02-17_15h07.52.783,IAT(Formal),2021.2.3,Win32,169.4915254,,,,,,,,,,,,,,,,,,,,,,,,,,,,,,,,,,,,,,,,,,,,,,,,,,,,俺,i,,,i,1,0.593,0,5,5,64,1,,
,,,,,,,,,,,,,,1,001,2025-02-17_15h07.52.783,IAT(Formal),2021.2.3,Win32,169.4915254,,,,,,,,,,,,,,,,,,,,,,,,,,,,,,,,,,,,,,,,,,,,,,,,,,,,他们,e,,,e,1,0.7157,0,6,6,66,1,,
,,,,,,,,,,,,,,1,001,2025-02-17_15h07.52.783,IAT(Formal),2021.2.3,Win32,169.4915254,,,,,,,,,,,,,,,,,,,,,,,,,,,,,,,,,,,,,,,,,,,,,,,,,,,,我们,i,,,i,1,0.7049,0,7,7,52,1,,
,,,,,,,,,,,,,,1,001,2025-02-17_15h07.52.783,IAT(Formal),2021.2.3,Win32,169.4915254,,,,,,,,,,,,,,,,,,,,,,,,,,,,,,,,,,,,,,,,,,,,,,,,,,,,他们,e,,,e,1,0.9108,0,8,8,76,1,,
,,,,,,,,,,,,,,1,001,2025-02-17_15h07.52.783,IAT(Formal),2021.2.3,Win32,169.4915254,,,,,,,,,,,,,,,,,,,,,,,,,,,,,,,,,,,,,,,,,,,,,,,,,,,,冷静,e,,,i,0,0.8733,0,9,9,26,1,,
,,,,,,,,,,,,,,1,001,2025-02-17_15h07.52.783,IAT(Formal),2021.2.3,Win32,169.4915254,,,,,,,,,,,,,,,,,,,,,,,,,,,,,,,,,,,,,,,,,,,,,,,,,,,,我的,i,,,i,1,0.5746,0,10,10,1,1,,
,,,,,,,,,,,,,,1,001,2025-02-17_15h07.52.783,IAT(Formal),2021.2.3,Win32,169.4915254,,,,,,,,,,,,,,,,,,,,,,,,,,,,,,,,,,,,,,,,,,,,,,,,,,,,我的,i,,,i,1,0.5279,0,11,11,71,1,,
,,,,,,,,,,,,,,1,001,2025-02-17_15h07.52.783,IAT(Formal),2021.2.3,Win32,169.4915254,,,,,,,,,,,,,,,,,,,,,,,,,,,,,,,,,,,,,,,,,,,,,,,,,,,,我,i,,,i,1,0.4186,0,12,12,70,1,,
,,,,,,,,,,,,,,1,001,2025-02-17_15h07.52.783,IAT(Formal),2021.2.3,Win32,169.4915254,,,,,,,,,,,,,,,,,,,,,,,,,,,,,,,,,,,,,,,,,,,,,,,,,,,,崇高,e,,,e,1,0.6793,0,13,13,11,1,,
,,,,,,,,,,,,,,1,001,2025-02-17_15h07.52.783,IAT(Formal),2021.2.3,Win32,169.4915254,,,,,,,,,,,,,,,,,,,,,,,,,,,,,,,,,,,,,,,,,,,,,,,,,,,,细腻,e,,,i,0,0.6729,0,14,14,25,1,,
,,,,,,,,,,,,,,1,001,2025-02-17_15h07.52.783,IAT(Formal),2021.2.3,Win32,169.4915254,,,,,,,,,,,,,,,,,,,,,,,,,,,,,,,,,,,,,,,,,,,,,,,,,,,,他,e,,,e,1,0.6041,0,15,15,75,1,,
,,,,,,,,,,,,,,1,001,2025-02-17_15h07.52.783,IAT(Formal),2021.2.3,Win32,169.4915254,,,,,,,,,,,,,,,,,,,,,,,,,,,,,,,,,,,,,,,,,,,,,,,,,,,,其他,e,,,e,1,0.7156,0,16,16,79,1,,
,,,,,,,,,,,,,,1,001,2025-02-17_15h07.52.783,IAT(Formal),2021.2.3,Win32,169.4915254,,,,,,,,,,,,,,,,,,,,,,,,,,,,,,,,,,,,,,,,,,,,,,,,,,,,自己,i,,,i,1,0.6408,0,17,17,73,1,,
,,,,,,,,,,,,,,1,001,2025-02-17_15h07.52.783,IAT(Formal),2021.2.3,Win32,169.4915254,,,,,,,,,,,,,,,,,,,,,,,,,,,,,,,,,,,,,,,,,,,,,,,,,,,,固执,i,,,i,1,0.6369,0,18,18,47,1,,
,,,,,,,,,,,,,,1,001,2025-02-17_15h07.52.783,IAT(Formal),2021.2.3,Win32,169.4915254,,,,,,,,,,,,,,,,,,,,,,,,,,,,,,,,,,,,,,,,,,,,,,,,,,,,消极,i,,,i,1,0.9928,0,19,19,35,1,,
,,,,,,,,,,,,,,1,001,2025-02-17_15h07.52.783,IAT(Formal),2021.2.3,Win32,169.4915254,,,,,,,,,,,,,,,,,,,,,,,,,,,,,,,,,,,,,,,,,,,,,,,,,,,,傲慢,i,,,i,1,1.0246,0,20,20,37,1,,
,,,,,,,,,,,,,,1,001,2025-02-17_15h07.52.783,IAT(Formal),2021.2.3,Win32,169.4915254,,,,,,,,,,,,,,,,,,,,,,,,,,,,,,,,,,,,,,,,,,,,,,,,,,,,热情,e,,,e,1,0.4961,0,21,21,27,1,,
,,,,,,,,,,,,,,1,001,2025-02-17_15h07.52.783,IAT(Formal),2021.2.3,Win32,169.4915254,,,,,,,,,,,,,,,,,,,,,,,,,,,,,,,,,,,,,,,,,,,,,,,,,,,,机智,e,,,i,0,0.5761,0,22,22,19,1,,
,,,,,,,,,,,,,,1,001,2025-02-17_15h07.52.783,IAT(Formal),2021.2.3,Win32,169.4915254,,,,,,,,,,,,,,,,,,,,,,,,,,,,,,,,,,,,,,,,,,,,,,,,,,,,自己,i,,,i,1,0.5466,0,23,23,3,1,,
,,,,,,,,,,,,,,1,001,2025-02-17_15h07.52.783,IAT(Formal),2021.2.3,Win32,169.4915254,,,,,,,,,,,,,,,,,,,,,,,,,,,,,,,,,,,,,,,,,,,,,,,,,,,,认真,e,,,i,0,0.6436,0,24,24,20,1,,
,,,,,,,,,,,,,,1,001,2025-02-17_15h07.52.783,IAT(Formal),2021.2.3,Win32,169.4915254,,,,,,,,,,,,,,,,,,,,,,,,,,,,,,,,,,,,,,,,,,,,,,,,,,,,我的,i,,,i,1,0.5149,0,25,25,51,1,,
,,,,,,,,,,,,,,1,001,2025-02-17_15h07.52.783,IAT(Formal),2021.2.3,Win32,169.4915254,,,,,,,,,,,,,,,,,,,,,,,,,,,,,,,,,,,,,,,,,,,,,,,,,,,,卑鄙,i,,,i,1,0.768,0,26,26,30,1,,
,,,,,,,,,,,,,,1,001,2025-02-17_15h07.52.783,IAT(Formal),2021.2.3,Win32,169.4915254,,,,,,,,,,,,,,,,,,,,,,,,,,,,,,,,,,,,,,,,,,,,,,,,,,,,我们,i,,,i,1,0.788,0,27,27,72,1,,
,,,,,,,,,,,,,,1,001,2025-02-17_15h07.52.783,IAT(Formal),2021.2.3,Win32,169.4915254,,,,,,,,,,,,,,,,,,,,,,,,,,,,,,,,,,,,,,,,,,,,,,,,,,,,杰出,e,,,e,1,0.9152,0,28,28,13,1,,
,,,,,,,,,,,,,,1,001,2025-02-17_15h07.52.783,IAT(Formal),2021.2.3,Win32,169.4915254,,,,,,,,,,,,,,,,,,,,,,,,,,,,,,,,,,,,,,,,,,,,,,,,,,,,我们,i,,,i,1,0.7512,0,29,29,62,1,,
,,,,,,,,,,,,,,1,001,2025-02-17_15h07.52.783,IAT(Formal),2021.2.3,Win32,169.4915254,,,,,,,,,,,,,,,,,,,,,,,,,,,,,,,,,,,,,,,,,,,,,,,,,,,,悲观,i,,,e,0,0.873,0,30,30,34,1,,
,,,,,,,,,,,,,,1,001,2025-02-17_15h07.52.783,IAT(Formal),2021.2.3,Win32,169.4915254,,,,,,,,,,,,,,,,,,,,,,,,,,,,,,,,,,,,,,,,,,,,,,,,,,,,公正,e,,,e,1,0.8849,0,31,31,23,1,,
,,,,,,,,,,,,,,1,001,2025-02-17_15h07.52.783,IAT(Formal),2021.2.3,Win32,169.4915254,,,,,,,,,,,,,,,,,,,,,,,,,,,,,,,,,,,,,,,,,,,,,,,,,,,,他人,e,,,e,1,0.8429,0,32,32,8,1,,
,,,,,,,,,,,,,,1,001,2025-02-17_15h07.52.783,IAT(Formal),2021.2.3,Win32,169.4915254,,,,,,,,,,,,,,,,,,,,,,,,,,,,,,,,,,,,,,,,,,,,,,,,,,,,其他,e,,,e,1,1.3219,0,33,33,9,1,,
,,,,,,,,,,,,,,1,001,2025-02-17_15h07.52.783,IAT(Formal),2021.2.3,Win32,169.4915254,,,,,,,,,,,,,,,,,,,,,,,,,,,,,,,,,,,,,,,,,,,,,,,,,,,,我,i,,,i,1,0.5092,0,34,34,50,1,,
,,,,,,,,,,,,,,1,001,2025-02-17_15h07.52.783,IAT(Formal),2021.2.3,Win32,169.4915254,,,,,,,,,,,,,,,,,,,,,,,,,,,,,,,,,,,,,,,,,,,,,,,,,,,,我,i,,,i,1,0.4854,0,35,35,60,1,,
,,,,,,,,,,,,,,1,001,2025-02-17_15h07.52.783,IAT(Formal),2021.2.3,Win32,169.4915254,,,,,,,,,,,,,,,,,,,,,,,,,,,,,,,,,,,,,,,,,,,,,,,,,,,,其他,e,,,e,1,0.5818,0,36,36,69,1,,
,,,,,,,,,,,,,,1,001,2025-02-17_15h07.52.783,IAT(Formal),2021.2.3,Win32,169.4915254,,,,,,,,,,,,,,,,,,,,,,,,,,,,,,,,,,,,,,,,,,,,,,,,,,,,正直,e,,,e,1,1.0875,0,37,37,16,1,,
,,,,,,,,,,,,,,1,001,2025-02-17_15h07.52.783,IAT(Formal),2021.2.3,Win32,169.4915254,,,,,,,,,,,,,,,,,,,,,,,,,,,,,,,,,,,,,,,,,,,,,,,,,,,,我的,i,,,i,1,0.7406,0,38,38,61,1,,
,,,,,,,,,,,,,,1,001,2025-02-17_15h07.52.783,IAT(Formal),2021.2.3,Win32,169.4915254,,,,,,,,,,,,,,,,,,,,,,,,,,,,,,,,,,,,,,,,,,,,,,,,,,,,他的,e,,,e,1,0.7816,0,39,39,77,1,,
,,,,,,,,,,,,,,1,001,2025-02-17_15h07.52.783,IAT(Formal),2021.2.3,Win32,169.4915254,,,,,,,,,,,,,,,,,,,,,,,,,,,,,,,,,,,,,,,,,,,,,,,,,,,,俺,i,,,i,1,0.6066,0,40,40,54,1,,
,,,,,,,,,,,,,,1,001,2025-02-17_15h07.52.783,IAT(Formal),2021.2.3,Win32,169.4915254,,,,,,,,,,,,,,,,,,,,,,,,,,,,,,,,,,,,,,,,,,,,,,,,,,,,自私,i,,,e,0,0.7923,0,41,41,43,1,,
,,,,,,,,,,,,,,1,001,2025-02-17_15h07.52.783,IAT(Formal),2021.2.3,Win32,169.4915254,,,,,,,,,,,,,,,,,,,,,,,,,,,,,,,,,,,,,,,,,,,,,,,,,,,,其他,e,,,e,1,0.7389,0,42,42,59,1,,
,,,,,,,,,,,,,,1,001,2025-02-17_15h07.52.783,IAT(Formal),2021.2.3,Win32,169.4915254,,,,,,,,,,,,,,,,,,,,,,,,,,,,,,,,,,,,,,,,,,,,,,,,,,,,勤奋,e,,,e,1,0.6902,0,43,43,18,1,,
,,,,,,,,,,,,,,1,001,2025-02-17_15h07.52.783,IAT(Formal),2021.2.3,Win32,169.4915254,,,,,,,,,,,,,,,,,,,,,,,,,,,,,,,,,,,,,,,,,,,,,,,,,,,,凶狠,i,,,i,1,0.5643,0,44,44,42,1,,
,,,,,,,,,,,,,,1,001,2025-02-17_15h07.52.783,IAT(Formal),2021.2.3,Win32,169.4915254,,,,,,,,,,,,,,,,,,,,,,,,,,,,,,,,,,,,,,,,,,,,,,,,,,,,轻率,i,,,i,1,0.5696,0,45,45,48,1,,
,,,,,,,,,,,,,,1,001,2025-02-17_15h07.52.783,IAT(Formal),2021.2.3,Win32,169.4915254,,,,,,,,,,,,,,,,,,,,,,,,,,,,,,,,,,,,,,,,,,,,,,,,,,,,他人,e,,,e,1,0.5404,0,46,46,78,1,,
,,,,,,,,,,,,,,1,001,2025-02-17_15h07.52.783,IAT(Formal),2021.2.3,Win32,169.4915254,,,,,,,,,,,,,,,,,,,,,,,,,,,,,,,,,,,,,,,,,,,,,,,,,,,,自己,i,,,i,1,0.5957,0,47,47,63,1,,
,,,,,,,,,,,,,,1,001,2025-02-17_15h07.52.783,IAT(Formal),2021.2.3,Win32,169.4915254,,,,,,,,,,,,,,,,,,,,,,,,,,,,,,,,,,,,,,,,,,,,,,,,,,,,愚蠢,i,,,i,1,0.74,0,48,48,32,1,,
,,,,,,,,,,,,,,1,001,2025-02-17_15h07.52.783,IAT(Formal),2021.2.3,Win32,169.4915254,,,,,,,,,,,,,,,,,,,,,,,,,,,,,,,,,,,,,,,,,,,,,,,,,,,,自己,i,,,i,1,0.663,0,49,49,53,1,,
,,,,,,,,,,,,,,1,001,2025-02-17_15h07.52.783,IAT(Formal),2021.2.3,Win32,169.4915254,,,,,,,,,,,,,,,,,,,,,,,,,,,,,,,,,,,,,,,,,,,,,,,,,,,,无私,e,,,i,0,0.8224,0,50,50,22,1,,
,,,,,,,,,,,,,,1,001,2025-02-17_15h07.52.783,IAT(Formal),2021.2.3,Win32,169.4915254,,,,,,,,,,,,,,,,,,,,,,,,,,,,,,,,,,,,,,,,,,,,,,,,,,,,乐观,e,,,e,1,0.7123,0,51,51,14,1,,
,,,,,,,,,,,,,,1,001,2025-02-17_15h07.52.783,IAT(Formal),2021.2.3,Win32,169.4915254,,,,,,,,,,,,,,,,,,,,,,,,,,,,,,,,,,,,,,,,,,,,,,,,,,,,稳重,e,,,e,1,1.1759,0,52,52,21,1,,
,,,,,,,,,,,,,,1,001,2025-02-17_15h07.52.783,IAT(Formal),2021.2.3,Win32,169.4915254,,,,,,,,,,,,,,,,,,,,,,,,,,,,,,,,,,,,,,,,,,,,,,,,,,,,冒失,i,,,i,1,0.6124,0,53,53,39,1,,
,,,,,,,,,,,,,,1,001,2025-02-17_15h07.52.783,IAT(Formal),2021.2.3,Win32,169.4915254,,,,,,,,,,,,,,,,,,,,,,,,,,,,,,,,,,,,,,,,,,,,,,,,,,,,暴躁,i,,,i,1,0.697,0,54,54,44,1,,
,,,,,,,,,,,,,,1,001,2025-02-17_15h07.52.783,IAT(Formal),2021.2.3,Win32,169.4915254,,,,,,,,,,,,,,,,,,,,,,,,,,,,,,,,,,,,,,,,,,,,,,,,,,,,下贱,i,,,i,1,0.5088,0,55,55,49,1,,
,,,,,,,,,,,,,,1,001,2025-02-17_15h07.52.783,IAT(Formal),2021.2.3,Win32,169.4915254,,,,,,,,,,,,,,,,,,,,,,,,,,,,,,,,,,,,,,,,,,,,,,,,,,,,我们,i,,,i,1,0.7688,0,56,56,2,1,,
,,,,,,,,,,,,,,1,001,2025-02-17_15h07.52.783,IAT(Formal),2021.2.3,Win32,169.4915254,,,,,,,,,,,,,,,,,,,,,,,,,,,,,,,,,,,,,,,,,,,,,,,,,,,,朴实,e,,,e,1,0.7777,0,57,57,24,1,,
,,,,,,,,,,,,,,1,001,2025-02-17_15h07.52.783,IAT(Formal),2021.2.3,Win32,169.4915254,,,,,,,,,,,,,,,,,,,,,,,,,,,,,,,,,,,,,,,,,,,,,,,,,,,,诚实,e,,,,0,,0,58,58,15,1,,
,,,,,,,,,,,,,,1,001,2025-02-17_15h07.52.783,IAT(Formal),2021.2.3,Win32,169.4915254,,,,,,,,,,,,,,,,,,,,,,,,,,,,,,,,,,,,,,,,,,,,,,,,,,,,他,e,,,i,0,0.5454,0,59,59,55,1,,
,,,,,,,,,,,,,,1,001,2025-02-17_15h07.52.783,IAT(Formal),2021.2.3,Win32,169.4915254,,,,,,,,,,,,,,,,,,,,,,,,,,,,,,,,,,,,,,,,,,,,,,,,,,,,活泼,e,,,e,1,0.7729,0,60,60,28,1,,
,,,,,,,,,,,,,,1,001,2025-02-17_15h07.52.783,IAT(Formal),2021.2.3,Win32,169.4915254,,,,,,,,,,,,,,,,,,,,,,,,,,,,,,,,,,,,,,,,,,,,,,,,,,,,散漫,i,,,i,1,0.5824,0,61,61,41,1,,
,,,,,,,,,,,,,,1,001,2025-02-17_15h07.52.783,IAT(Formal),2021.2.3,Win32,169.4915254,,,,,,,,,,,,,,,,,,,,,,,,,,,,,,,,,,,,,,,,,,,,,,,,,,,,猖狂,i,,,i,1,0.9334,0,62,62,45,1,,
,,,,,,,,,,,,,,1,001,2025-02-17_15h07.52.783,IAT(Formal),2021.2.3,Win32,169.4915254,,,,,,,,,,,,,,,,,,,,,,,,,,,,,,,,,,,,,,,,,,,,,,,,,,,,他,e,,,i,0,0.6,0,63,63,5,1,,
,,,,,,,,,,,,,,1,001,2025-02-17_15h07.52.783,IAT(Formal),2021.2.3,Win32,169.4915254,,,,,,,,,,,,,,,,,,,,,,,,,,,,,,,,,,,,,,,,,,,,,,,,,,,,刻薄,i,,,i,1,0.5971,0,64,64,33,1,,
,,,,,,,,,,,,,,1,001,2025-02-17_15h07.52.783,IAT(Formal),2021.2.3,Win32,169.4915254,,,,,,,,,,,,,,,,,,,,,,,,,,,,,,,,,,,,,,,,,,,,,,,,,,,,勇敢,e,,,e,1,0.742,0,65,65,17,1,,
,,,,,,,,,,,,,,1,001,2025-02-17_15h07.52.783,IAT(Formal),2021.2.3,Win32,169.4915254,,,,,,,,,,,,,,,,,,,,,,,,,,,,,,,,,,,,,,,,,,,,,,,,,,,,优秀,e,,,e,1,0.7332,0,66,66,10,1,,
,,,,,,,,,,,,,,1,001,2025-02-17_15h07.52.783,IAT(Formal),2021.2.3,Win32,169.4915254,,,,,,,,,,,,,,,,,,,,,,,,,,,,,,,,,,,,,,,,,,,,,,,,,,,,他的,e,,,e,1,0.8852,0,67,67,67,1,,
,,,,,,,,,,,,,,1,001,2025-02-17_15h07.52.783,IAT(Formal),2021.2.3,Win32,169.4915254,,,,,,,,,,,,,,,,,,,,,,,,,,,,,,,,,,,,,,,,,,,,,,,,,,,,他人,e,,,e,1,0.5629,0,68,68,68,1,,
,,,,,,,,,,,,,,1,001,2025-02-17_15h07.52.783,IAT(Formal),2021.2.3,Win32,169.4915254,,,,,,,,,,,,,,,,,,,,,,,,,,,,,,,,,,,,,,,,,,,,,,,,,,,,自卑,i,,,e,0,0.9943,0,69,69,36,1,,
,,,,,,,,,,,,,,1,001,2025-02-17_15h07.52.783,IAT(Formal),2021.2.3,Win32,169.4915254,,,,,,,,,,,,,,,,,,,,,,,,,,,,,,,,,,,,,,,,,,,,,,,,,,,,他的,e,,,e,1,0.7533,0,70,70,57,1,,
,,,,,,,,,,,,,,1,001,2025-02-17_15h07.52.783,IAT(Formal),2021.2.3,Win32,169.4915254,,,,,,,,,,,,,,,,,,,,,,,,,,,,,,,,,,,,,,,,,,,,,,,,,,,,俺,i,,,i,1,0.5274,0,71,71,4,1,,
,,,,,,,,,,,,,,1,001,2025-02-17_15h07.52.783,IAT(Formal),2021.2.3,Win32,169.4915254,,,,,,,,,,,,,,,,,,,,,,,,,,,,,,,,,,,,,,,,,,,,,,,,,,,,他们,e,,,e,1,0.6731,0,72,72,6,1,,
,,,,,,,,,,,,,,1,001,2025-02-17_15h07.52.783,IAT(Formal),2021.2.3,Win32,169.4915254,,,,,,,,,,,,,,,,,,,,,,,,,,,,,,,,,,,,,,,,,,,,,,,,,,,,俺,i,,,i,1,0.6121,0,73,73,74,1,,
,,,,,,,,,,,,,,1,001,2025-02-17_15h07.52.783,IAT(Formal),2021.2.3,Win32,169.4915254,,,,,,,,,,,,,,,,,,,,,,,,,,,,,,,,,,,,,,,,,,,,,,,,,,,,他的,e,,,e,1,0.576,0,74,74,7,1,,
,,,,,,,,,,,,,,1,001,2025-02-17_15h07.52.783,IAT(Formal),2021.2.3,Win32,169.4915254,,,,,,,,,,,,,,,,,,,,,,,,,,,,,,,,,,,,,,,,,,,,,,,,,,,,他,e,,,e,1,0.6425,0,75,75,65,1,,
,,,,,,,,,,,,,,1,001,2025-02-17_15h07.52.783,IAT(Formal),2021.2.3,Win32,169.4915254,,,,,,,,,,,,,,,,,,,,,,,,,,,,,,,,,,,,,,,,,,,,,,,,,,,,他们,e,,,e,1,0.5214,0,76,76,56,1,,
,,,,,,,,,,,,,,1,001,2025-02-17_15h07.52.783,IAT(Formal),2021.2.3,Win32,169.4915254,,,,,,,,,,,,,,,,,,,,,,,,,,,,,,,,,,,,,,,,,,,,,,,,,,,,鲁莽,i,,,i,1,1.0796,0,77,77,38,1,,
,,,,,,,,,,,,,,1,001,2025-02-17_15h07.52.783,IAT(Formal),2021.2.3,Win32,169.4915254,,,,,,,,,,,,,,,,,,,,,,,,,,,,,,,,,,,,,,,,,,,,,,,,,,,,野蛮,i,,,i,1,0.8189,0,78,78,46,1,,
,,,,,,,,,,,,,,1,001,2025-02-17_15h07.52.783,IAT(Formal),2021.2.3,Win32,169.4915254,,,,,,,,,,,,,,,,,,,,,,,,,,,,,,,,,,,,,,,,,,,,,,,,,,,,诚恳,e,,,e,1,1.1944,0,79,79,29,1,,
,,,,,,,,,,,,,,1,001,2025-02-17_15h07.52.783,IAT(Formal),2021.2.3,Win32,169.4915254,,,,,,,,,,,,,,,,,,,,,,,,,,,,,,,,,,,,,,,,,,,,,,,,,,,,愚蠢,i,,,i,1,0.5732,1,0,80,32,1,,
,,,,,,,,,,,,,,1,001,2025-02-17_15h07.52.783,IAT(Formal),2021.2.3,Win32,169.4915254,,,,,,,,,,,,,,,,,,,,,,,,,,,,,,,,,,,,,,,,,,,,,,,,,,,,我们,i,,,e,0,0.7562,1,1,81,72,1,,
,,,,,,,,,,,,,,1,001,2025-02-17_15h07.52.783,IAT(Formal),2021.2.3,Win32,169.4915254,,,,,,,,,,,,,,,,,,,,,,,,,,,,,,,,,,,,,,,,,,,,,,,,,,,,我的,i,,,i,1,0.4485,1,2,82,1,1,,
,,,,,,,,,,,,,,1,001,2025-02-17_15h07.52.783,IAT(Formal),2021.2.3,Win32,169.4915254,,,,,,,,,,,,,,,,,,,,,,,,,,,,,,,,,,,,,,,,,,,,,,,,,,,,他的,e,,,e,1,0.5092,1,3,83,77,1,,
,,,,,,,,,,,,,,1,001,2025-02-17_15h07.52.783,IAT(Formal),2021.2.3,Win32,169.4915254,,,,,,,,,,,,,,,,,,,,,,,,,,,,,,,,,,,,,,,,,,,,,,,,,,,,其他,e,,,e,1,1.0395,1,4,84,9,1,,
,,,,,,,,,,,,,,1,001,2025-02-17_15h07.52.783,IAT(Formal),2021.2.3,Win32,169.4915254,,,,,,,,,,,,,,,,,,,,,,,,,,,,,,,,,,,,,,,,,,,,,,,,,,,,稳重,e,,,,0,,1,5,85,21,1,,
,,,,,,,,,,,,,,1,001,2025-02-17_15h07.52.783,IAT(Formal),2021.2.3,Win32,169.4915254,,,,,,,,,,,,,,,,,,,,,,,,,,,,,,,,,,,,,,,,,,,,,,,,,,,,自己,i,,,i,1,0.5444,1,6,86,53,1,,
,,,,,,,,,,,,,,1,001,2025-02-17_15h07.52.783,IAT(Formal),2021.2.3,Win32,169.4915254,,,,,,,,,,,,,,,,,,,,,,,,,,,,,,,,,,,,,,,,,,,,,,,,,,,,虚伪,i,,,i,1,0.6065,1,7,87,31,1,,
,,,,,,,,,,,,,,1,001,2025-02-17_15h07.52.783,IAT(Formal),2021.2.3,Win32,169.4915254,,,,,,,,,,,,,,,,,,,,,,,,,,,,,,,,,,,,,,,,,,,,,,,,,,,,乐观,e,,,e,1,0.5667,1,8,88,14,1,,
,,,,,,,,,,,,,,1,001,2025-02-17_15h07.52.783,IAT(Formal),2021.2.3,Win32,169.4915254,,,,,,,,,,,,,,,,,,,,,,,,,,,,,,,,,,,,,,,,,,,,,,,,,,,,暴躁,i,,,,0,,1,9,89,44,1,,
,,,,,,,,,,,,,,1,001,2025-02-17_15h07.52.783,IAT(Formal),2021.2.3,Win32,169.4915254,,,,,,,,,,,,,,,,,,,,,,,,,,,,,,,,,,,,,,,,,,,,,,,,,,,,其他,e,,,e,1,0.5522,1,10,90,69,1,,
,,,,,,,,,,,,,,1,001,2025-02-17_15h07.52.783,IAT(Formal),2021.2.3,Win32,169.4915254,,,,,,,,,,,,,,,,,,,,,,,,,,,,,,,,,,,,,,,,,,,,,,,,,,,,鲁莽,i,,,i,1,1.1997,1,11,91,38,1,,
,,,,,,,,,,,,,,1,001,2025-02-17_15h07.52.783,IAT(Formal),2021.2.3,Win32,169.4915254,,,,,,,,,,,,,,,,,,,,,,,,,,,,,,,,,,,,,,,,,,,,,,,,,,,,朴实,e,,,e,1,1.2211,1,12,92,24,1,,
,,,,,,,,,,,,,,1,001,2025-02-17_15h07.52.783,IAT(Formal),2021.2.3,Win32,169.4915254,,,,,,,,,,,,,,,,,,,,,,,,,,,,,,,,,,,,,,,,,,,,,,,,,,,,执拗,i,,,i,1,0.631,1,13,93,40,1,,
,,,,,,,,,,,,,,1,001,2025-02-17_15h07.52.783,IAT(Formal),2021.2.3,Win32,169.4915254,,,,,,,,,,,,,,,,,,,,,,,,,,,,,,,,,,,,,,,,,,,,,,,,,,,,他人,e,,,e,1,0.7154,1,14,94,8,1,,
,,,,,,,,,,,,,,1,001,2025-02-17_15h07.52.783,IAT(Formal),2021.2.3,Win32,169.4915254,,,,,,,,,,,,,,,,,,,,,,,,,,,,,,,,,,,,,,,,,,,,,,,,,,,,他,e,,,e,1,0.7033,1,15,95,75,1,,
,,,,,,,,,,,,,,1,001,2025-02-17_15h07.52.783,IAT(Formal),2021.2.3,Win32,169.4915254,,,,,,,,,,,,,,,,,,,,,,,,,,,,,,,,,,,,,,,,,,,,,,,,,,,,刻薄,i,,,i,1,0.5696,1,16,96,33,1,,
,,,,,,,,,,,,,,1,001,2025-02-17_15h07.52.783,IAT(Formal),2021.2.3,Win32,169.4915254,,,,,,,,,,,,,,,,,,,,,,,,,,,,,,,,,,,,,,,,,,,,,,,,,,,,轻率,i,,,i,1,1.0346,1,17,97,48,1,,
,,,,,,,,,,,,,,1,001,2025-02-17_15h07.52.783,IAT(Formal),2021.2.3,Win32,169.4915254,,,,,,,,,,,,,,,,,,,,,,,,,,,,,,,,,,,,,,,,,,,,,,,,,,,,他们,e,,,e,1,1.2984,1,18,98,56,1,,
,,,,,,,,,,,,,,1,001,2025-02-17_15h07.52.783,IAT(Formal),2021.2.3,Win32,169.4915254,,,,,,,,,,,,,,,,,,,,,,,,,,,,,,,,,,,,,,,,,,,,,,,,,,,,机智,e,,,,0,,1,19,99,19,1,,
,,,,,,,,,,,,,,1,001,2025-02-17_15h07.52.783,IAT(Formal),2021.2.3,Win32,169.4915254,,,,,,,,,,,,,,,,,,,,,,,,,,,,,,,,,,,,,,,,,,,,,,,,,,,,我,i,,,i,1,1.1941,1,20,100,60,1,,
,,,,,,,,,,,,,,1,001,2025-02-17_15h07.52.783,IAT(Formal),2021.2.3,Win32,169.4915254,,,,,,,,,,,,,,,,,,,,,,,,,,,,,,,,,,,,,,,,,,,,,,,,,,,,猖狂,i,,,i,1,0.8316,1,21,101,45,1,,
,,,,,,,,,,,,,,1,001,2025-02-17_15h07.52.783,IAT(Formal),2021.2.3,Win32,169.4915254,,,,,,,,,,,,,,,,,,,,,,,,,,,,,,,,,,,,,,,,,,,,,,,,,,,,活泼,e,,,e,1,0.6716,1,22,102,28,1,,
,,,,,,,,,,,,,,1,001,2025-02-17_15h07.52.783,IAT(Formal),2021.2.3,Win32,169.4915254,,,,,,,,,,,,,,,,,,,,,,,,,,,,,,,,,,,,,,,,,,,,,,,,,,,,自私,i,,,e,0,0.6308,1,23,103,43,1,,
,,,,,,,,,,,,,,1,001,2025-02-17_15h07.52.783,IAT(Formal),2021.2.3,Win32,169.4915254,,,,,,,,,,,,,,,,,,,,,,,,,,,,,,,,,,,,,,,,,,,,,,,,,,,,傲慢,i,,,i,1,0.55,1,24,104,37,1,,
,,,,,,,,,,,,,,1,001,2025-02-17_15h07.52.783,IAT(Formal),2021.2.3,Win32,169.4915254,,,,,,,,,,,,,,,,,,,,,,,,,,,,,,,,,,,,,,,,,,,,,,,,,,,,他们,e,,,e,1,1.3963,1,25,105,66,1,,
,,,,,,,,,,,,,,1,001,2025-02-17_15h07.52.783,IAT(Formal),2021.2.3,Win32,169.4915254,,,,,,,,,,,,,,,,,,,,,,,,,,,,,,,,,,,,,,,,,,,,,,,,,,,,我的,i,,,,0,,1,26,106,61,1,,
,,,,,,,,,,,,,,1,001,2025-02-17_15h07.52.783,IAT(Formal),2021.2.3,Win32,169.4915254,,,,,,,,,,,,,,,,,,,,,,,,,,,,,,,,,,,,,,,,,,,,,,,,,,,,自己,i,,,i,1,0.4701,1,27,107,3,1,,
,,,,,,,,,,,,,,1,001,2025-02-17_15h07.52.783,IAT(Formal),2021.2.3,Win32,169.4915254,,,,,,,,,,,,,,,,,,,,,,,,,,,,,,,,,,,,,,,,,,,,,,,,,,,,勇敢,e,,,,0,,1,28,108,17,1,,
,,,,,,,,,,,,,,1,001,2025-02-17_15h07.52.783,IAT(Formal),2021.2.3,Win32,169.4915254,,,,,,,,,,,,,,,,,,,,,,,,,,,,,,,,,,,,,,,,,,,,,,,,,,,,俺,i,,,i,1,0.4844,1,29,109,54,1,,
,,,,,,,,,,,,,,1,001,2025-02-17_15h07.52.783,IAT(Formal),2021.2.3,Win32,169.4915254,,,,,,,,,,,,,,,,,,,,,,,,,,,,,,,,,,,,,,,,,,,,,,,,,,,,他,e,,,,0,,1,30,110,55,1,,
,,,,,,,,,,,,,,1,001,2025-02-17_15h07.52.783,IAT(Formal),2021.2.3,Win32,169.4915254,,,,,,,,,,,,,,,,,,,,,,,,,,,,,,,,,,,,,,,,,,,,,,,,,,,,野蛮,i,,,e,0,0.5034,1,31,111,46,1,,
,,,,,,,,,,,,,,1,001,2025-02-17_15h07.52.783,IAT(Formal),2021.2.3,Win32,169.4915254,,,,,,,,,,,,,,,,,,,,,,,,,,,,,,,,,,,,,,,,,,,,,,,,,,,,公正,e,,,e,1,0.8112,1,32,112,23,1,,
,,,,,,,,,,,,,,1,001,2025-02-17_15h07.52.783,IAT(Formal),2021.2.3,Win32,169.4915254,,,,,,,,,,,,,,,,,,,,,,,,,,,,,,,,,,,,,,,,,,,,,,,,,,,,他的,e,,,e,1,0.6787,1,33,113,67,1,,
,,,,,,,,,,,,,,1,001,2025-02-17_15h07.52.783,IAT(Formal),2021.2.3,Win32,169.4915254,,,,,,,,,,,,,,,,,,,,,,,,,,,,,,,,,,,,,,,,,,,,,,,,,,,,消极,i,,,i,1,0.5701,1,34,114,35,1,,
,,,,,,,,,,,,,,1,001,2025-02-17_15h07.52.783,IAT(Formal),2021.2.3,Win32,169.4915254,,,,,,,,,,,,,,,,,,,,,,,,,,,,,,,,,,,,,,,,,,,,,,,,,,,,散漫,i,,,i,1,0.8299,1,35,115,41,1,,
,,,,,,,,,,,,,,1,001,2025-02-17_15h07.52.783,IAT(Formal),2021.2.3,Win32,169.4915254,,,,,,,,,,,,,,,,,,,,,,,,,,,,,,,,,,,,,,,,,,,,,,,,,,,,他人,e,,,e,1,0.637,1,36,116,68,1,,
,,,,,,,,,,,,,,1,001,2025-02-17_15h07.52.783,IAT(Formal),2021.2.3,Win32,169.4915254,,,,,,,,,,,,,,,,,,,,,,,,,,,,,,,,,,,,,,,,,,,,,,,,,,,,我,i,,,i,1,0.5093,1,37,117,0,1,,
,,,,,,,,,,,,,,1,001,2025-02-17_15h07.52.783,IAT(Formal),2021.2.3,Win32,169.4915254,,,,,,,,,,,,,,,,,,,,,,,,,,,,,,,,,,,,,,,,,,,,,,,,,,,,俺,i,,,e,0,0.5009,1,38,118,4,1,,
,,,,,,,,,,,,,,1,001,2025-02-17_15h07.52.783,IAT(Formal),2021.2.3,Win32,169.4915254,,,,,,,,,,,,,,,,,,,,,,,,,,,,,,,,,,,,,,,,,,,,,,,,,,,,优秀,e,,,i,0,0.5276,1,39,119,10,1,,
,,,,,,,,,,,,,,1,001,2025-02-17_15h07.52.783,IAT(Formal),2021.2.3,Win32,169.4915254,,,,,,,,,,,,,,,,,,,,,,,,,,,,,,,,,,,,,,,,,,,,,,,,,,,,他人,e,,,e,1,0.8126,1,40,120,58,1,,
,,,,,,,,,,,,,,1,001,2025-02-17_15h07.52.783,IAT(Formal),2021.2.3,Win32,169.4915254,,,,,,,,,,,,,,,,,,,,,,,,,,,,,,,,,,,,,,,,,,,,,,,,,,,,他们,e,,,e,1,0.7765,1,41,121,6,1,,
,,,,,,,,,,,,,,1,001,2025-02-17_15h07.52.783,IAT(Formal),2021.2.3,Win32,169.4915254,,,,,,,,,,,,,,,,,,,,,,,,,,,,,,,,,,,,,,,,,,,,,,,,,,,,崇高,e,,,i,0,0.8666,1,42,122,11,1,,
,,,,,,,,,,,,,,1,001,2025-02-17_15h07.52.783,IAT(Formal),2021.2.3,Win32,169.4915254,,,,,,,,,,,,,,,,,,,,,,,,,,,,,,,,,,,,,,,,,,,,,,,,,,,,认真,e,,,,0,,1,43,123,20,1,,
,,,,,,,,,,,,,,1,001,2025-02-17_15h07.52.783,IAT(Formal),2021.2.3,Win32,169.4915254,,,,,,,,,,,,,,,,,,,,,,,,,,,,,,,,,,,,,,,,,,,,,,,,,,,,自卑,i,,,i,1,0.6396,1,44,124,36,1,,
,,,,,,,,,,,,,,1,001,2025-02-17_15h07.52.783,IAT(Formal),2021.2.3,Win32,169.4915254,,,,,,,,,,,,,,,,,,,,,,,,,,,,,,,,,,,,,,,,,,,,,,,,,,,,自己,i,,,i,1,0.5478,1,45,125,73,1,,
,,,,,,,,,,,,,,1,001,2025-02-17_15h07.52.783,IAT(Formal),2021.2.3,Win32,169.4915254,,,,,,,,,,,,,,,,,,,,,,,,,,,,,,,,,,,,,,,,,,,,,,,,,,,,他的,e,,,e,1,0.5215,1,46,126,57,1,,
,,,,,,,,,,,,,,1,001,2025-02-17_15h07.52.783,IAT(Formal),2021.2.3,Win32,169.4915254,,,,,,,,,,,,,,,,,,,,,,,,,,,,,,,,,,,,,,,,,,,,,,,,,,,,我,i,,,i,1,0.5169,1,47,127,50,1,,
,,,,,,,,,,,,,,1,001,2025-02-17_15h07.52.783,IAT(Formal),2021.2.3,Win32,169.4915254,,,,,,,,,,,,,,,,,,,,,,,,,,,,,,,,,,,,,,,,,,,,,,,,,,,,自己,i,,,i,1,0.6765,1,48,128,63,1,,
,,,,,,,,,,,,,,1,001,2025-02-17_15h07.52.783,IAT(Formal),2021.2.3,Win32,169.4915254,,,,,,,,,,,,,,,,,,,,,,,,,,,,,,,,,,,,,,,,,,,,,,,,,,,,他们,e,,,e,1,0.5147,1,49,129,76,1,,
,,,,,,,,,,,,,,1,001,2025-02-17_15h07.52.783,IAT(Formal),2021.2.3,Win32,169.4915254,,,,,,,,,,,,,,,,,,,,,,,,,,,,,,,,,,,,,,,,,,,,,,,,,,,,诚恳,e,,,e,1,0.7218,1,50,130,29,1,,
,,,,,,,,,,,,,,1,001,2025-02-17_15h07.52.783,IAT(Formal),2021.2.3,Win32,169.4915254,,,,,,,,,,,,,,,,,,,,,,,,,,,,,,,,,,,,,,,,,,,,,,,,,,,,俺,i,,,i,1,0.5697,1,51,131,74,1,,
,,,,,,,,,,,,,,1,001,2025-02-17_15h07.52.783,IAT(Formal),2021.2.3,Win32,169.4915254,,,,,,,,,,,,,,,,,,,,,,,,,,,,,,,,,,,,,,,,,,,,,,,,,,,,下贱,i,,,i,1,0.8598,1,52,132,49,1,,
,,,,,,,,,,,,,,1,001,2025-02-17_15h07.52.783,IAT(Formal),2021.2.3,Win32,169.4915254,,,,,,,,,,,,,,,,,,,,,,,,,,,,,,,,,,,,,,,,,,,,,,,,,,,,悲观,i,,,e,0,0.6248,1,53,133,34,1,,
,,,,,,,,,,,,,,1,001,2025-02-17_15h07.52.783,IAT(Formal),2021.2.3,Win32,169.4915254,,,,,,,,,,,,,,,,,,,,,,,,,,,,,,,,,,,,,,,,,,,,,,,,,,,,俺,i,,,i,1,1.2789,1,54,134,64,1,,
,,,,,,,,,,,,,,1,001,2025-02-17_15h07.52.783,IAT(Formal),2021.2.3,Win32,169.4915254,,,,,,,,,,,,,,,,,,,,,,,,,,,,,,,,,,,,,,,,,,,,,,,,,,,,我们,i,,,,0,,1,55,135,2,1,,
,,,,,,,,,,,,,,1,001,2025-02-17_15h07.52.783,IAT(Formal),2021.2.3,Win32,169.4915254,,,,,,,,,,,,,,,,,,,,,,,,,,,,,,,,,,,,,,,,,,,,,,,,,,,,热情,e,,,i,0,0.6021,1,56,136,27,1,,
,,,,,,,,,,,,,,1,001,2025-02-17_15h07.52.783,IAT(Formal),2021.2.3,Win32,169.4915254,,,,,,,,,,,,,,,,,,,,,,,,,,,,,,,,,,,,,,,,,,,,,,,,,,,,他的,e,,,e,1,0.5579,1,57,137,7,1,,
,,,,,,,,,,,,,,1,001,2025-02-17_15h07.52.783,IAT(Formal),2021.2.3,Win32,169.4915254,,,,,,,,,,,,,,,,,,,,,,,,,,,,,,,,,,,,,,,,,,,,,,,,,,,,冷静,e,,,e,1,0.9276,1,58,138,26,1,,
,,,,,,,,,,,,,,1,001,2025-02-17_15h07.52.783,IAT(Formal),2021.2.3,Win32,169.4915254,,,,,,,,,,,,,,,,,,,,,,,,,,,,,,,,,,,,,,,,,,,,,,,,,,,,我的,i,,,i,1,0.506,1,59,139,51,1,,
,,,,,,,,,,,,,,1,001,2025-02-17_15h07.52.783,IAT(Formal),2021.2.3,Win32,169.4915254,,,,,,,,,,,,,,,,,,,,,,,,,,,,,,,,,,,,,,,,,,,,,,,,,,,,诚实,e,,,e,1,0.5639,1,60,140,15,1,,
,,,,,,,,,,,,,,1,001,2025-02-17_15h07.52.783,IAT(Formal),2021.2.3,Win32,169.4915254,,,,,,,,,,,,,,,,,,,,,,,,,,,,,,,,,,,,,,,,,,,,,,,,,,,,勤奋,e,,,e,1,0.7089,1,61,141,18,1,,
,,,,,,,,,,,,,,1,001,2025-02-17_15h07.52.783,IAT(Formal),2021.2.3,Win32,169.4915254,,,,,,,,,,,,,,,,,,,,,,,,,,,,,,,,,,,,,,,,,,,,,,,,,,,,他,e,,,e,1,0.5578,1,62,142,5,1,,
,,,,,,,,,,,,,,1,001,2025-02-17_15h07.52.783,IAT(Formal),2021.2.3,Win32,169.4915254,,,,,,,,,,,,,,,,,,,,,,,,,,,,,,,,,,,,,,,,,,,,,,,,,,,,我们,i,,,i,1,0.7883,1,63,143,62,1,,
,,,,,,,,,,,,,,1,001,2025-02-17_15h07.52.783,IAT(Formal),2021.2.3,Win32,169.4915254,,,,,,,,,,,,,,,,,,,,,,,,,,,,,,,,,,,,,,,,,,,,,,,,,,,,正直,e,,,e,1,0.6063,1,64,144,16,1,,
,,,,,,,,,,,,,,1,001,2025-02-17_15h07.52.783,IAT(Formal),2021.2.3,Win32,169.4915254,,,,,,,,,,,,,,,,,,,,,,,,,,,,,,,,,,,,,,,,,,,,,,,,,,,,聪明,e,,,e,1,0.5275,1,65,145,12,1,,
,,,,,,,,,,,,,,1,001,2025-02-17_15h07.52.783,IAT(Formal),2021.2.3,Win32,169.4915254,,,,,,,,,,,,,,,,,,,,,,,,,,,,,,,,,,,,,,,,,,,,,,,,,,,,无私,e,,,e,1,1.0549,1,66,146,22,1,,
,,,,,,,,,,,,,,1,001,2025-02-17_15h07.52.783,IAT(Formal),2021.2.3,Win32,169.4915254,,,,,,,,,,,,,,,,,,,,,,,,,,,,,,,,,,,,,,,,,,,,,,,,,,,,我们,i,,,i,1,0.7536,1,67,147,52,1,,
,,,,,,,,,,,,,,1,001,2025-02-17_15h07.52.783,IAT(Formal),2021.2.3,Win32,169.4915254,,,,,,,,,,,,,,,,,,,,,,,,,,,,,,,,,,,,,,,,,,,,,,,,,,,,他人,e,,,e,1,0.6104,1,68,148,78,1,,
,,,,,,,,,,,,,,1,001,2025-02-17_15h07.52.783,IAT(Formal),2021.2.3,Win32,169.4915254,,,,,,,,,,,,,,,,,,,,,,,,,,,,,,,,,,,,,,,,,,,,,,,,,,,,我,i,,,i,1,0.449,1,69,149,70,1,,
,,,,,,,,,,,,,,1,001,2025-02-17_15h07.52.783,IAT(Formal),2021.2.3,Win32,169.4915254,,,,,,,,,,,,,,,,,,,,,,,,,,,,,,,,,,,,,,,,,,,,,,,,,,,,杰出,e,,,e,1,0.649,1,70,150,13,1,,
,,,,,,,,,,,,,,1,001,2025-02-17_15h07.52.783,IAT(Formal),2021.2.3,Win32,169.4915254,,,,,,,,,,,,,,,,,,,,,,,,,,,,,,,,,,,,,,,,,,,,,,,,,,,,固执,i,,,i,1,0.4979,1,71,151,47,1,,
,,,,,,,,,,,,,,1,001,2025-02-17_15h07.52.783,IAT(Formal),2021.2.3,Win32,169.4915254,,,,,,,,,,,,,,,,,,,,,,,,,,,,,,,,,,,,,,,,,,,,,,,,,,,,细腻,e,,,e,1,0.9702,1,72,152,25,1,,
,,,,,,,,,,,,,,1,001,2025-02-17_15h07.52.783,IAT(Formal),2021.2.3,Win32,169.4915254,,,,,,,,,,,,,,,,,,,,,,,,,,,,,,,,,,,,,,,,,,,,,,,,,,,,其他,e,,,i,0,0.8048,1,73,153,59,1,,
,,,,,,,,,,,,,,1,001,2025-02-17_15h07.52.783,IAT(Formal),2021.2.3,Win32,169.4915254,,,,,,,,,,,,,,,,,,,,,,,,,,,,,,,,,,,,,,,,,,,,,,,,,,,,我的,i,,,i,1,0.4795,1,74,154,71,1,,
,,,,,,,,,,,,,,1,001,2025-02-17_15h07.52.783,IAT(Formal),2021.2.3,Win32,169.4915254,,,,,,,,,,,,,,,,,,,,,,,,,,,,,,,,,,,,,,,,,,,,,,,,,,,,冒失,i,,,e,0,1.3039,1,75,155,39,1,,
,,,,,,,,,,,,,,1,001,2025-02-17_15h07.52.783,IAT(Formal),2021.2.3,Win32,169.4915254,,,,,,,,,,,,,,,,,,,,,,,,,,,,,,,,,,,,,,,,,,,,,,,,,,,,他,e,,,e,1,0.5944,1,76,156,65,1,,
,,,,,,,,,,,,,,1,001,2025-02-17_15h07.52.783,IAT(Formal),2021.2.3,Win32,169.4915254,,,,,,,,,,,,,,,,,,,,,,,,,,,,,,,,,,,,,,,,,,,,,,,,,,,,凶狠,i,,,,0,,1,77,157,42,1,,
,,,,,,,,,,,,,,1,001,2025-02-17_15h07.52.783,IAT(Formal),2021.2.3,Win32,169.4915254,,,,,,,,,,,,,,,,,,,,,,,,,,,,,,,,,,,,,,,,,,,,,,,,,,,,其他,e,,,e,1,0.6925,1,78,158,79,1,,
,,,,,,,,,,,,,,1,001,2025-02-17_15h07.52.783,IAT(Formal),2021.2.3,Win32,169.4915254,,,,,,,,,,,,,,,,,,,,,,,,,,,,,,,,,,,,,,,,,,,,,,,,,,,,卑鄙,i,,,e,0,0.6061,1,79,159,30,1,,
,,,,,,,,,,,,,,1,001,2025-02-17_15h07.52.783,IAT(Formal),2021.2.3,Win32,169.4915254,,,,,,,,,,,,,,,,,,,,,,,,,,,,,,,,,,,,,,,,,,,,,,,,,,,,,,,,,,,,,,,,space,1.1364