﻿Instruction1.keys,Instruction1.rt,Instruction2.keys,Instruction2.rt,key_resp_iso.keys,key_resp_iso.corr,key_resp_iso.rt,Practice_01.thisRepN,Practice_01.thisTrialN,Practice_01.thisN,Practice_01.thisIndex,Practice_01.ran,Words,ans,participant,session,date,expName,psychopyVersion,OS,frameRate,key_resp_3.keys,key_resp_3.rt,key_resp_ipn.keys,key_resp_ipn.corr,key_resp_ipn.rt,Practice_02.thisRepN,Practice_02.thisTrialN,Practice_02.thisN,Practice_02.thisIndex,Practice_02.ran,Words_ipn,ans_ipn,key_resp_4.keys,key_resp_4.rt,key_resp_t1.keys,key_resp_t1.corr,key_resp_t1.rt,Practice_T1.thisRepN,Practice_T1.thisTrialN,Practice_T1.thisN,Practice_T1.thisIndex,Practice_T1.ran,Words_t1,ans_t1,key_resp_5.keys,key_resp_5.rt,Formal_T1.thisRepN,Formal_T1.thisTrialN,Formal_T1.thisN,Formal_T1.thisIndex,Formal_T1.ran,key_resp_6.keys,key_resp_6.rt,key_resp_iso_reverse.keys,key_resp_iso_reverse.corr,key_resp_iso_reverse.rt,Practice_iso_Reverse.thisRepN,Practice_iso_Reverse.thisTrialN,Practice_iso_Reverse.thisN,Practice_iso_Reverse.thisIndex,Practice_iso_Reverse.ran,key_resp_7.keys,key_resp_7.rt,key_resp_t2_Practice.keys,key_resp_t2_Practice.corr,key_resp_t2_Practice.rt,Practice_t2_Reverse.thisRepN,Practice_t2_Reverse.thisTrialN,Practice_t2_Reverse.thisN,Practice_t2_Reverse.thisIndex,Practice_t2_Reverse.ran,Words_t2,ans_t2,key_resp_8.keys,key_resp_8.rt,key_resp_t2.keys,key_resp_t2.corr,key_resp_t2.rt,Formal_t2_reverse.thisRepN,Formal_t2_reverse.thisTrialN,Formal_t2_reverse.thisN,Formal_t2_reverse.thisIndex,Formal_t2_reverse.ran,key_instruct.keys,key_instruct.rt
space,6.5451,space,5.7306,e,1,0.5614,0,0,0,3,1,自己,e,1,001,2025-02-17_15h12.25.692,IAT(Formal),2021.2.3,Win32,59.88023952,,,,,,,,,,,,,,,,,,,,,,,,,,,,,,,,,,,,,,,,,,,,,,,,,,,,,,,,,,,,,,,,,
,,,,i,1,0.5209,0,1,1,8,1,他人,i,1,001,2025-02-17_15h12.25.692,IAT(Formal),2021.2.3,Win32,59.88023952,,,,,,,,,,,,,,,,,,,,,,,,,,,,,,,,,,,,,,,,,,,,,,,,,,,,,,,,,,,,,,,,,
,,,,e,1,0.617,0,2,2,4,1,俺,e,1,001,2025-02-17_15h12.25.692,IAT(Formal),2021.2.3,Win32,59.88023952,,,,,,,,,,,,,,,,,,,,,,,,,,,,,,,,,,,,,,,,,,,,,,,,,,,,,,,,,,,,,,,,,
,,,,e,1,0.513,0,3,3,0,1,我,e,1,001,2025-02-17_15h12.25.692,IAT(Formal),2021.2.3,Win32,59.88023952,,,,,,,,,,,,,,,,,,,,,,,,,,,,,,,,,,,,,,,,,,,,,,,,,,,,,,,,,,,,,,,,,
,,,,i,1,0.5299,0,4,4,7,1,他的,i,1,001,2025-02-17_15h12.25.692,IAT(Formal),2021.2.3,Win32,59.88023952,,,,,,,,,,,,,,,,,,,,,,,,,,,,,,,,,,,,,,,,,,,,,,,,,,,,,,,,,,,,,,,,,
,,,,e,1,0.4656,0,5,5,1,1,我的,e,1,001,2025-02-17_15h12.25.692,IAT(Formal),2021.2.3,Win32,59.88023952,,,,,,,,,,,,,,,,,,,,,,,,,,,,,,,,,,,,,,,,,,,,,,,,,,,,,,,,,,,,,,,,,
,,,,i,1,0.5529,0,6,6,5,1,他,i,1,001,2025-02-17_15h12.25.692,IAT(Formal),2021.2.3,Win32,59.88023952,,,,,,,,,,,,,,,,,,,,,,,,,,,,,,,,,,,,,,,,,,,,,,,,,,,,,,,,,,,,,,,,,
,,,,e,1,0.5741,0,7,7,2,1,我们,e,1,001,2025-02-17_15h12.25.692,IAT(Formal),2021.2.3,Win32,59.88023952,,,,,,,,,,,,,,,,,,,,,,,,,,,,,,,,,,,,,,,,,,,,,,,,,,,,,,,,,,,,,,,,,
,,,,i,1,0.5414,0,8,8,6,1,他们,i,1,001,2025-02-17_15h12.25.692,IAT(Formal),2021.2.3,Win32,59.88023952,,,,,,,,,,,,,,,,,,,,,,,,,,,,,,,,,,,,,,,,,,,,,,,,,,,,,,,,,,,,,,,,,
,,,,i,1,0.8827,0,9,9,9,1,其他,i,1,001,2025-02-17_15h12.25.692,IAT(Formal),2021.2.3,Win32,59.88023952,,,,,,,,,,,,,,,,,,,,,,,,,,,,,,,,,,,,,,,,,,,,,,,,,,,,,,,,,,,,,,,,,
,,,,,,,,,,,,,,1,001,2025-02-17_15h12.25.692,IAT(Formal),2021.2.3,Win32,59.88023952,space,4.6854,i,1,0.5563,0,0,0,36,1,野蛮,i,,,,,,,,,,,,,,,,,,,,,,,,,,,,,,,,,,,,,,,,,,,,,,,,,,,,,
,,,,,,,,,,,,,,1,001,2025-02-17_15h12.25.692,IAT(Formal),2021.2.3,Win32,59.88023952,,,e,1,0.4654,0,1,1,2,1,聪明,e,,,,,,,,,,,,,,,,,,,,,,,,,,,,,,,,,,,,,,,,,,,,,,,,,,,,,
,,,,,,,,,,,,,,1,001,2025-02-17_15h12.25.692,IAT(Formal),2021.2.3,Win32,59.88023952,,,e,1,0.483,0,2,2,5,1,诚实,e,,,,,,,,,,,,,,,,,,,,,,,,,,,,,,,,,,,,,,,,,,,,,,,,,,,,,
,,,,,,,,,,,,,,1,001,2025-02-17_15h12.25.692,IAT(Formal),2021.2.3,Win32,59.88023952,,,e,1,0.6137,0,3,3,16,1,冷静,e,,,,,,,,,,,,,,,,,,,,,,,,,,,,,,,,,,,,,,,,,,,,,,,,,,,,,
,,,,,,,,,,,,,,1,001,2025-02-17_15h12.25.692,IAT(Formal),2021.2.3,Win32,59.88023952,,,e,1,0.4824,0,4,4,4,1,乐观,e,,,,,,,,,,,,,,,,,,,,,,,,,,,,,,,,,,,,,,,,,,,,,,,,,,,,,
,,,,,,,,,,,,,,1,001,2025-02-17_15h12.25.692,IAT(Formal),2021.2.3,Win32,59.88023952,,,e,1,0.6075,0,5,5,3,1,杰出,e,,,,,,,,,,,,,,,,,,,,,,,,,,,,,,,,,,,,,,,,,,,,,,,,,,,,,
,,,,,,,,,,,,,,1,001,2025-02-17_15h12.25.692,IAT(Formal),2021.2.3,Win32,59.88023952,,,e,1,0.5684,0,6,6,1,1,崇高,e,,,,,,,,,,,,,,,,,,,,,,,,,,,,,,,,,,,,,,,,,,,,,,,,,,,,,
,,,,,,,,,,,,,,1,001,2025-02-17_15h12.25.692,IAT(Formal),2021.2.3,Win32,59.88023952,,,i,1,0.6371,0,7,7,38,1,轻率,i,,,,,,,,,,,,,,,,,,,,,,,,,,,,,,,,,,,,,,,,,,,,,,,,,,,,,
,,,,,,,,,,,,,,1,001,2025-02-17_15h12.25.692,IAT(Formal),2021.2.3,Win32,59.88023952,,,i,1,0.491,0,8,8,30,1,执拗,i,,,,,,,,,,,,,,,,,,,,,,,,,,,,,,,,,,,,,,,,,,,,,,,,,,,,,
,,,,,,,,,,,,,,1,001,2025-02-17_15h12.25.692,IAT(Formal),2021.2.3,Win32,59.88023952,,,i,1,0.4939,0,9,9,28,1,鲁莽,i,,,,,,,,,,,,,,,,,,,,,,,,,,,,,,,,,,,,,,,,,,,,,,,,,,,,,
,,,,,,,,,,,,,,1,001,2025-02-17_15h12.25.692,IAT(Formal),2021.2.3,Win32,59.88023952,,,e,1,0.5295,0,10,10,17,1,热情,e,,,,,,,,,,,,,,,,,,,,,,,,,,,,,,,,,,,,,,,,,,,,,,,,,,,,,
,,,,,,,,,,,,,,1,001,2025-02-17_15h12.25.692,IAT(Formal),2021.2.3,Win32,59.88023952,,,e,1,0.5249,0,11,11,10,1,认真,e,,,,,,,,,,,,,,,,,,,,,,,,,,,,,,,,,,,,,,,,,,,,,,,,,,,,,
,,,,,,,,,,,,,,1,001,2025-02-17_15h12.25.692,IAT(Formal),2021.2.3,Win32,59.88023952,,,i,1,0.5598,0,12,12,32,1,凶狠,i,,,,,,,,,,,,,,,,,,,,,,,,,,,,,,,,,,,,,,,,,,,,,,,,,,,,,
,,,,,,,,,,,,,,1,001,2025-02-17_15h12.25.692,IAT(Formal),2021.2.3,Win32,59.88023952,,,i,1,0.578,0,13,13,27,1,傲慢,i,,,,,,,,,,,,,,,,,,,,,,,,,,,,,,,,,,,,,,,,,,,,,,,,,,,,,
,,,,,,,,,,,,,,1,001,2025-02-17_15h12.25.692,IAT(Formal),2021.2.3,Win32,59.88023952,,,e,0,0.5523,0,14,14,34,1,暴躁,i,,,,,,,,,,,,,,,,,,,,,,,,,,,,,,,,,,,,,,,,,,,,,,,,,,,,,
,,,,,,,,,,,,,,1,001,2025-02-17_15h12.25.692,IAT(Formal),2021.2.3,Win32,59.88023952,,,i,1,0.7714,0,15,15,35,1,猖狂,i,,,,,,,,,,,,,,,,,,,,,,,,,,,,,,,,,,,,,,,,,,,,,,,,,,,,,
,,,,,,,,,,,,,,1,001,2025-02-17_15h12.25.692,IAT(Formal),2021.2.3,Win32,59.88023952,,,e,1,0.6083,0,16,16,19,1,诚恳,e,,,,,,,,,,,,,,,,,,,,,,,,,,,,,,,,,,,,,,,,,,,,,,,,,,,,,
,,,,,,,,,,,,,,1,001,2025-02-17_15h12.25.692,IAT(Formal),2021.2.3,Win32,59.88023952,,,i,1,0.7013,0,17,17,22,1,愚蠢,i,,,,,,,,,,,,,,,,,,,,,,,,,,,,,,,,,,,,,,,,,,,,,,,,,,,,,
,,,,,,,,,,,,,,1,001,2025-02-17_15h12.25.692,IAT(Formal),2021.2.3,Win32,59.88023952,,,i,1,0.4855,0,18,18,26,1,自卑,i,,,,,,,,,,,,,,,,,,,,,,,,,,,,,,,,,,,,,,,,,,,,,,,,,,,,,
,,,,,,,,,,,,,,1,001,2025-02-17_15h12.25.692,IAT(Formal),2021.2.3,Win32,59.88023952,,,e,1,1.0551,0,19,19,18,1,活泼,e,,,,,,,,,,,,,,,,,,,,,,,,,,,,,,,,,,,,,,,,,,,,,,,,,,,,,
,,,,,,,,,,,,,,1,001,2025-02-17_15h12.25.692,IAT(Formal),2021.2.3,Win32,59.88023952,,,e,1,0.5715,0,20,20,0,1,优秀,e,,,,,,,,,,,,,,,,,,,,,,,,,,,,,,,,,,,,,,,,,,,,,,,,,,,,,
,,,,,,,,,,,,,,1,001,2025-02-17_15h12.25.692,IAT(Formal),2021.2.3,Win32,59.88023952,,,i,1,0.5665,0,21,21,20,1,卑鄙,i,,,,,,,,,,,,,,,,,,,,,,,,,,,,,,,,,,,,,,,,,,,,,,,,,,,,,
,,,,,,,,,,,,,,1,001,2025-02-17_15h12.25.692,IAT(Formal),2021.2.3,Win32,59.88023952,,,i,1,1.0699,0,22,22,29,1,冒失,i,,,,,,,,,,,,,,,,,,,,,,,,,,,,,,,,,,,,,,,,,,,,,,,,,,,,,
,,,,,,,,,,,,,,1,001,2025-02-17_15h12.25.692,IAT(Formal),2021.2.3,Win32,59.88023952,,,i,1,0.5212,0,23,23,37,1,固执,i,,,,,,,,,,,,,,,,,,,,,,,,,,,,,,,,,,,,,,,,,,,,,,,,,,,,,
,,,,,,,,,,,,,,1,001,2025-02-17_15h12.25.692,IAT(Formal),2021.2.3,Win32,59.88023952,,,i,1,0.6878,0,24,24,31,1,散漫,i,,,,,,,,,,,,,,,,,,,,,,,,,,,,,,,,,,,,,,,,,,,,,,,,,,,,,
,,,,,,,,,,,,,,1,001,2025-02-17_15h12.25.692,IAT(Formal),2021.2.3,Win32,59.88023952,,,e,1,0.7396,0,25,25,12,1,无私,e,,,,,,,,,,,,,,,,,,,,,,,,,,,,,,,,,,,,,,,,,,,,,,,,,,,,,
,,,,,,,,,,,,,,1,001,2025-02-17_15h12.25.692,IAT(Formal),2021.2.3,Win32,59.88023952,,,i,1,0.6184,0,26,26,23,1,刻薄,i,,,,,,,,,,,,,,,,,,,,,,,,,,,,,,,,,,,,,,,,,,,,,,,,,,,,,
,,,,,,,,,,,,,,1,001,2025-02-17_15h12.25.692,IAT(Formal),2021.2.3,Win32,59.88023952,,,e,1,0.5888,0,27,27,9,1,机智,e,,,,,,,,,,,,,,,,,,,,,,,,,,,,,,,,,,,,,,,,,,,,,,,,,,,,,
,,,,,,,,,,,,,,1,001,2025-02-17_15h12.25.692,IAT(Formal),2021.2.3,Win32,59.88023952,,,e,1,0.5688,0,28,28,8,1,勤奋,e,,,,,,,,,,,,,,,,,,,,,,,,,,,,,,,,,,,,,,,,,,,,,,,,,,,,,
,,,,,,,,,,,,,,1,001,2025-02-17_15h12.25.692,IAT(Formal),2021.2.3,Win32,59.88023952,,,i,1,0.5504,0,29,29,21,1,虚伪,i,,,,,,,,,,,,,,,,,,,,,,,,,,,,,,,,,,,,,,,,,,,,,,,,,,,,,
,,,,,,,,,,,,,,1,001,2025-02-17_15h12.25.692,IAT(Formal),2021.2.3,Win32,59.88023952,,,e,1,0.6344,0,30,30,11,1,稳重,e,,,,,,,,,,,,,,,,,,,,,,,,,,,,,,,,,,,,,,,,,,,,,,,,,,,,,
,,,,,,,,,,,,,,1,001,2025-02-17_15h12.25.692,IAT(Formal),2021.2.3,Win32,59.88023952,,,e,1,0.5375,0,31,31,6,1,正直,e,,,,,,,,,,,,,,,,,,,,,,,,,,,,,,,,,,,,,,,,,,,,,,,,,,,,,
,,,,,,,,,,,,,,1,001,2025-02-17_15h12.25.692,IAT(Formal),2021.2.3,Win32,59.88023952,,,i,1,0.667,0,32,32,33,1,自私,i,,,,,,,,,,,,,,,,,,,,,,,,,,,,,,,,,,,,,,,,,,,,,,,,,,,,,
,,,,,,,,,,,,,,1,001,2025-02-17_15h12.25.692,IAT(Formal),2021.2.3,Win32,59.88023952,,,i,1,0.495,0,33,33,39,1,下贱,i,,,,,,,,,,,,,,,,,,,,,,,,,,,,,,,,,,,,,,,,,,,,,,,,,,,,,
,,,,,,,,,,,,,,1,001,2025-02-17_15h12.25.692,IAT(Formal),2021.2.3,Win32,59.88023952,,,e,1,0.4787,0,34,34,15,1,细腻,e,,,,,,,,,,,,,,,,,,,,,,,,,,,,,,,,,,,,,,,,,,,,,,,,,,,,,
,,,,,,,,,,,,,,1,001,2025-02-17_15h12.25.692,IAT(Formal),2021.2.3,Win32,59.88023952,,,i,1,0.9223,0,35,35,25,1,消极,i,,,,,,,,,,,,,,,,,,,,,,,,,,,,,,,,,,,,,,,,,,,,,,,,,,,,,
,,,,,,,,,,,,,,1,001,2025-02-17_15h12.25.692,IAT(Formal),2021.2.3,Win32,59.88023952,,,e,1,0.5386,0,36,36,13,1,公正,e,,,,,,,,,,,,,,,,,,,,,,,,,,,,,,,,,,,,,,,,,,,,,,,,,,,,,
,,,,,,,,,,,,,,1,001,2025-02-17_15h12.25.692,IAT(Formal),2021.2.3,Win32,59.88023952,,,i,1,0.5264,0,37,37,24,1,悲观,i,,,,,,,,,,,,,,,,,,,,,,,,,,,,,,,,,,,,,,,,,,,,,,,,,,,,,
,,,,,,,,,,,,,,1,001,2025-02-17_15h12.25.692,IAT(Formal),2021.2.3,Win32,59.88023952,,,e,1,0.6742,0,38,38,7,1,勇敢,e,,,,,,,,,,,,,,,,,,,,,,,,,,,,,,,,,,,,,,,,,,,,,,,,,,,,,
,,,,,,,,,,,,,,1,001,2025-02-17_15h12.25.692,IAT(Formal),2021.2.3,Win32,59.88023952,,,e,1,0.7676,0,39,39,14,1,朴实,e,,,,,,,,,,,,,,,,,,,,,,,,,,,,,,,,,,,,,,,,,,,,,,,,,,,,,
,,,,,,,,,,,,,,1,001,2025-02-17_15h12.25.692,IAT(Formal),2021.2.3,Win32,59.88023952,,,,,,,,,,,,,space,5.7815,e,1,0.5166,0,0,0,63,1,自己,e,,,,,,,,,,,,,,,,,,,,,,,,,,,,,,,,,,,,,,,,,
,,,,,,,,,,,,,,1,001,2025-02-17_15h12.25.692,IAT(Formal),2021.2.3,Win32,59.88023952,,,,,,,,,,,,,,,e,1,0.5,0,1,1,54,1,俺,e,,,,,,,,,,,,,,,,,,,,,,,,,,,,,,,,,,,,,,,,,
,,,,,,,,,,,,,,1,001,2025-02-17_15h12.25.692,IAT(Formal),2021.2.3,Win32,59.88023952,,,,,,,,,,,,,,,i,1,0.5987,0,2,2,68,1,他人,i,,,,,,,,,,,,,,,,,,,,,,,,,,,,,,,,,,,,,,,,,
,,,,,,,,,,,,,,1,001,2025-02-17_15h12.25.692,IAT(Formal),2021.2.3,Win32,59.88023952,,,,,,,,,,,,,,,e,1,0.5595,0,3,3,25,1,细腻,e,,,,,,,,,,,,,,,,,,,,,,,,,,,,,,,,,,,,,,,,,
,,,,,,,,,,,,,,1,001,2025-02-17_15h12.25.692,IAT(Formal),2021.2.3,Win32,59.88023952,,,,,,,,,,,,,,,e,1,0.4909,0,4,4,11,1,崇高,e,,,,,,,,,,,,,,,,,,,,,,,,,,,,,,,,,,,,,,,,,
,,,,,,,,,,,,,,1,001,2025-02-17_15h12.25.692,IAT(Formal),2021.2.3,Win32,59.88023952,,,,,,,,,,,,,,,e,1,0.4878,0,5,5,70,1,我,e,,,,,,,,,,,,,,,,,,,,,,,,,,,,,,,,,,,,,,,,,
,,,,,,,,,,,,,,1,001,2025-02-17_15h12.25.692,IAT(Formal),2021.2.3,Win32,59.88023952,,,,,,,,,,,,,,,i,0,0.6349,0,6,6,21,1,稳重,e,,,,,,,,,,,,,,,,,,,,,,,,,,,,,,,,,,,,,,,,,
,,,,,,,,,,,,,,1,001,2025-02-17_15h12.25.692,IAT(Formal),2021.2.3,Win32,59.88023952,,,,,,,,,,,,,,,i,1,0.6035,0,7,7,34,1,悲观,i,,,,,,,,,,,,,,,,,,,,,,,,,,,,,,,,,,,,,,,,,
,,,,,,,,,,,,,,1,001,2025-02-17_15h12.25.692,IAT(Formal),2021.2.3,Win32,59.88023952,,,,,,,,,,,,,,,e,1,0.5009,0,8,8,62,1,我们,e,,,,,,,,,,,,,,,,,,,,,,,,,,,,,,,,,,,,,,,,,
,,,,,,,,,,,,,,1,001,2025-02-17_15h12.25.692,IAT(Formal),2021.2.3,Win32,59.88023952,,,,,,,,,,,,,,,i,1,0.4674,0,9,9,56,1,他们,i,,,,,,,,,,,,,,,,,,,,,,,,,,,,,,,,,,,,,,,,,
,,,,,,,,,,,,,,1,001,2025-02-17_15h12.25.692,IAT(Formal),2021.2.3,Win32,59.88023952,,,,,,,,,,,,,,,e,1,1.0711,0,10,10,23,1,公正,e,,,,,,,,,,,,,,,,,,,,,,,,,,,,,,,,,,,,,,,,,
,,,,,,,,,,,,,,1,001,2025-02-17_15h12.25.692,IAT(Formal),2021.2.3,Win32,59.88023952,,,,,,,,,,,,,,,i,1,0.5102,0,11,11,65,1,他,i,,,,,,,,,,,,,,,,,,,,,,,,,,,,,,,,,,,,,,,,,
,,,,,,,,,,,,,,1,001,2025-02-17_15h12.25.692,IAT(Formal),2021.2.3,Win32,59.88023952,,,,,,,,,,,,,,,e,1,0.4845,0,12,12,50,1,我,e,,,,,,,,,,,,,,,,,,,,,,,,,,,,,,,,,,,,,,,,,
,,,,,,,,,,,,,,1,001,2025-02-17_15h12.25.692,IAT(Formal),2021.2.3,Win32,59.88023952,,,,,,,,,,,,,,,e,1,0.603,0,13,13,29,1,诚恳,e,,,,,,,,,,,,,,,,,,,,,,,,,,,,,,,,,,,,,,,,,
,,,,,,,,,,,,,,1,001,2025-02-17_15h12.25.692,IAT(Formal),2021.2.3,Win32,59.88023952,,,,,,,,,,,,,,,i,1,0.5753,0,14,14,38,1,鲁莽,i,,,,,,,,,,,,,,,,,,,,,,,,,,,,,,,,,,,,,,,,,
,,,,,,,,,,,,,,1,001,2025-02-17_15h12.25.692,IAT(Formal),2021.2.3,Win32,59.88023952,,,,,,,,,,,,,,,i,1,0.4789,0,15,15,47,1,固执,i,,,,,,,,,,,,,,,,,,,,,,,,,,,,,,,,,,,,,,,,,
,,,,,,,,,,,,,,1,001,2025-02-17_15h12.25.692,IAT(Formal),2021.2.3,Win32,59.88023952,,,,,,,,,,,,,,,e,1,0.5898,0,16,16,17,1,勇敢,e,,,,,,,,,,,,,,,,,,,,,,,,,,,,,,,,,,,,,,,,,
,,,,,,,,,,,,,,1,001,2025-02-17_15h12.25.692,IAT(Formal),2021.2.3,Win32,59.88023952,,,,,,,,,,,,,,,e,1,0.5938,0,17,17,22,1,无私,e,,,,,,,,,,,,,,,,,,,,,,,,,,,,,,,,,,,,,,,,,
,,,,,,,,,,,,,,1,001,2025-02-17_15h12.25.692,IAT(Formal),2021.2.3,Win32,59.88023952,,,,,,,,,,,,,,,e,1,0.545,0,18,18,27,1,热情,e,,,,,,,,,,,,,,,,,,,,,,,,,,,,,,,,,,,,,,,,,
,,,,,,,,,,,,,,1,001,2025-02-17_15h12.25.692,IAT(Formal),2021.2.3,Win32,59.88023952,,,,,,,,,,,,,,,e,1,0.3621,0,19,19,1,1,我的,e,,,,,,,,,,,,,,,,,,,,,,,,,,,,,,,,,,,,,,,,,
,,,,,,,,,,,,,,1,001,2025-02-17_15h12.25.692,IAT(Formal),2021.2.3,Win32,59.88023952,,,,,,,,,,,,,,,i,1,0.5766,0,20,20,59,1,其他,i,,,,,,,,,,,,,,,,,,,,,,,,,,,,,,,,,,,,,,,,,
,,,,,,,,,,,,,,1,001,2025-02-17_15h12.25.692,IAT(Formal),2021.2.3,Win32,59.88023952,,,,,,,,,,,,,,,e,1,0.4914,0,21,21,52,1,我们,e,,,,,,,,,,,,,,,,,,,,,,,,,,,,,,,,,,,,,,,,,
,,,,,,,,,,,,,,1,001,2025-02-17_15h12.25.692,IAT(Formal),2021.2.3,Win32,59.88023952,,,,,,,,,,,,,,,e,1,0.5517,0,22,22,15,1,诚实,e,,,,,,,,,,,,,,,,,,,,,,,,,,,,,,,,,,,,,,,,,
,,,,,,,,,,,,,,1,001,2025-02-17_15h12.25.692,IAT(Formal),2021.2.3,Win32,59.88023952,,,,,,,,,,,,,,,e,1,0.5365,0,23,23,12,1,聪明,e,,,,,,,,,,,,,,,,,,,,,,,,,,,,,,,,,,,,,,,,,
,,,,,,,,,,,,,,1,001,2025-02-17_15h12.25.692,IAT(Formal),2021.2.3,Win32,59.88023952,,,,,,,,,,,,,,,i,1,0.4866,0,24,24,42,1,凶狠,i,,,,,,,,,,,,,,,,,,,,,,,,,,,,,,,,,,,,,,,,,
,,,,,,,,,,,,,,1,001,2025-02-17_15h12.25.692,IAT(Formal),2021.2.3,Win32,59.88023952,,,,,,,,,,,,,,,e,1,0.6076,0,25,25,13,1,杰出,e,,,,,,,,,,,,,,,,,,,,,,,,,,,,,,,,,,,,,,,,,
,,,,,,,,,,,,,,1,001,2025-02-17_15h12.25.692,IAT(Formal),2021.2.3,Win32,59.88023952,,,,,,,,,,,,,,,e,1,0.4778,0,26,26,14,1,乐观,e,,,,,,,,,,,,,,,,,,,,,,,,,,,,,,,,,,,,,,,,,
,,,,,,,,,,,,,,1,001,2025-02-17_15h12.25.692,IAT(Formal),2021.2.3,Win32,59.88023952,,,,,,,,,,,,,,,i,1,0.6005,0,27,27,9,1,其他,i,,,,,,,,,,,,,,,,,,,,,,,,,,,,,,,,,,,,,,,,,
,,,,,,,,,,,,,,1,001,2025-02-17_15h12.25.692,IAT(Formal),2021.2.3,Win32,59.88023952,,,,,,,,,,,,,,,e,1,0.6212,0,28,28,19,1,机智,e,,,,,,,,,,,,,,,,,,,,,,,,,,,,,,,,,,,,,,,,,
,,,,,,,,,,,,,,1,001,2025-02-17_15h12.25.692,IAT(Formal),2021.2.3,Win32,59.88023952,,,,,,,,,,,,,,,e,1,0.5122,0,29,29,24,1,朴实,e,,,,,,,,,,,,,,,,,,,,,,,,,,,,,,,,,,,,,,,,,
,,,,,,,,,,,,,,1,001,2025-02-17_15h12.25.692,IAT(Formal),2021.2.3,Win32,59.88023952,,,,,,,,,,,,,,,i,1,0.502,0,30,30,7,1,他的,i,,,,,,,,,,,,,,,,,,,,,,,,,,,,,,,,,,,,,,,,,
,,,,,,,,,,,,,,1,001,2025-02-17_15h12.25.692,IAT(Formal),2021.2.3,Win32,59.88023952,,,,,,,,,,,,,,,i,1,0.3928,0,31,31,57,1,他的,i,,,,,,,,,,,,,,,,,,,,,,,,,,,,,,,,,,,,,,,,,
,,,,,,,,,,,,,,1,001,2025-02-17_15h12.25.692,IAT(Formal),2021.2.3,Win32,59.88023952,,,,,,,,,,,,,,,e,1,0.6861,0,32,32,2,1,我们,e,,,,,,,,,,,,,,,,,,,,,,,,,,,,,,,,,,,,,,,,,
,,,,,,,,,,,,,,1,001,2025-02-17_15h12.25.692,IAT(Formal),2021.2.3,Win32,59.88023952,,,,,,,,,,,,,,,e,1,0.4313,0,33,33,60,1,我,e,,,,,,,,,,,,,,,,,,,,,,,,,,,,,,,,,,,,,,,,,
,,,,,,,,,,,,,,1,001,2025-02-17_15h12.25.692,IAT(Formal),2021.2.3,Win32,59.88023952,,,,,,,,,,,,,,,i,0,0.5834,0,34,34,26,1,冷静,e,,,,,,,,,,,,,,,,,,,,,,,,,,,,,,,,,,,,,,,,,
,,,,,,,,,,,,,,1,001,2025-02-17_15h12.25.692,IAT(Formal),2021.2.3,Win32,59.88023952,,,,,,,,,,,,,,,i,1,0.6073,0,35,35,75,1,他,i,,,,,,,,,,,,,,,,,,,,,,,,,,,,,,,,,,,,,,,,,
,,,,,,,,,,,,,,1,001,2025-02-17_15h12.25.692,IAT(Formal),2021.2.3,Win32,59.88023952,,,,,,,,,,,,,,,i,1,0.4519,0,36,36,8,1,他人,i,,,,,,,,,,,,,,,,,,,,,,,,,,,,,,,,,,,,,,,,,
,,,,,,,,,,,,,,1,001,2025-02-17_15h12.25.692,IAT(Formal),2021.2.3,Win32,59.88023952,,,,,,,,,,,,,,,i,1,0.6186,0,37,37,39,1,冒失,i,,,,,,,,,,,,,,,,,,,,,,,,,,,,,,,,,,,,,,,,,
,,,,,,,,,,,,,,1,001,2025-02-17_15h12.25.692,IAT(Formal),2021.2.3,Win32,59.88023952,,,,,,,,,,,,,,,i,1,0.441,0,38,38,5,1,他,i,,,,,,,,,,,,,,,,,,,,,,,,,,,,,,,,,,,,,,,,,
,,,,,,,,,,,,,,1,001,2025-02-17_15h12.25.692,IAT(Formal),2021.2.3,Win32,59.88023952,,,,,,,,,,,,,,,e,1,0.5605,0,39,39,20,1,认真,e,,,,,,,,,,,,,,,,,,,,,,,,,,,,,,,,,,,,,,,,,
,,,,,,,,,,,,,,1,001,2025-02-17_15h12.25.692,IAT(Formal),2021.2.3,Win32,59.88023952,,,,,,,,,,,,,,,e,1,0.4285,0,40,40,74,1,俺,e,,,,,,,,,,,,,,,,,,,,,,,,,,,,,,,,,,,,,,,,,
,,,,,,,,,,,,,,1,001,2025-02-17_15h12.25.692,IAT(Formal),2021.2.3,Win32,59.88023952,,,,,,,,,,,,,,,i,1,0.4843,0,41,41,37,1,傲慢,i,,,,,,,,,,,,,,,,,,,,,,,,,,,,,,,,,,,,,,,,,
,,,,,,,,,,,,,,1,001,2025-02-17_15h12.25.692,IAT(Formal),2021.2.3,Win32,59.88023952,,,,,,,,,,,,,,,i,1,0.5198,0,42,42,66,1,他们,i,,,,,,,,,,,,,,,,,,,,,,,,,,,,,,,,,,,,,,,,,
,,,,,,,,,,,,,,1,001,2025-02-17_15h12.25.692,IAT(Formal),2021.2.3,Win32,59.88023952,,,,,,,,,,,,,,,e,1,0.5377,0,43,43,18,1,勤奋,e,,,,,,,,,,,,,,,,,,,,,,,,,,,,,,,,,,,,,,,,,
,,,,,,,,,,,,,,1,001,2025-02-17_15h12.25.692,IAT(Formal),2021.2.3,Win32,59.88023952,,,,,,,,,,,,,,,e,1,0.4195,0,44,44,71,1,我的,e,,,,,,,,,,,,,,,,,,,,,,,,,,,,,,,,,,,,,,,,,
,,,,,,,,,,,,,,1,001,2025-02-17_15h12.25.692,IAT(Formal),2021.2.3,Win32,59.88023952,,,,,,,,,,,,,,,i,1,0.5874,0,45,45,58,1,他人,i,,,,,,,,,,,,,,,,,,,,,,,,,,,,,,,,,,,,,,,,,
,,,,,,,,,,,,,,1,001,2025-02-17_15h12.25.692,IAT(Formal),2021.2.3,Win32,59.88023952,,,,,,,,,,,,,,,e,1,0.54,0,46,46,0,1,我,e,,,,,,,,,,,,,,,,,,,,,,,,,,,,,,,,,,,,,,,,,
,,,,,,,,,,,,,,1,001,2025-02-17_15h12.25.692,IAT(Formal),2021.2.3,Win32,59.88023952,,,,,,,,,,,,,,,i,1,0.6494,0,47,47,45,1,猖狂,i,,,,,,,,,,,,,,,,,,,,,,,,,,,,,,,,,,,,,,,,,
,,,,,,,,,,,,,,1,001,2025-02-17_15h12.25.692,IAT(Formal),2021.2.3,Win32,59.88023952,,,,,,,,,,,,,,,e,1,0.5346,0,48,48,72,1,我们,e,,,,,,,,,,,,,,,,,,,,,,,,,,,,,,,,,,,,,,,,,
,,,,,,,,,,,,,,1,001,2025-02-17_15h12.25.692,IAT(Formal),2021.2.3,Win32,59.88023952,,,,,,,,,,,,,,,i,1,1.4077,0,49,49,49,1,下贱,i,,,,,,,,,,,,,,,,,,,,,,,,,,,,,,,,,,,,,,,,,
,,,,,,,,,,,,,,1,001,2025-02-17_15h12.25.692,IAT(Formal),2021.2.3,Win32,59.88023952,,,,,,,,,,,,,,,i,1,0.6052,0,50,50,43,1,自私,i,,,,,,,,,,,,,,,,,,,,,,,,,,,,,,,,,,,,,,,,,
,,,,,,,,,,,,,,1,001,2025-02-17_15h12.25.692,IAT(Formal),2021.2.3,Win32,59.88023952,,,,,,,,,,,,,,,e,1,0.4382,0,51,51,51,1,我的,e,,,,,,,,,,,,,,,,,,,,,,,,,,,,,,,,,,,,,,,,,
,,,,,,,,,,,,,,1,001,2025-02-17_15h12.25.692,IAT(Formal),2021.2.3,Win32,59.88023952,,,,,,,,,,,,,,,i,1,0.5207,0,52,52,36,1,自卑,i,,,,,,,,,,,,,,,,,,,,,,,,,,,,,,,,,,,,,,,,,
,,,,,,,,,,,,,,1,001,2025-02-17_15h12.25.692,IAT(Formal),2021.2.3,Win32,59.88023952,,,,,,,,,,,,,,,i,1,0.798,0,53,53,69,1,其他,i,,,,,,,,,,,,,,,,,,,,,,,,,,,,,,,,,,,,,,,,,
,,,,,,,,,,,,,,1,001,2025-02-17_15h12.25.692,IAT(Formal),2021.2.3,Win32,59.88023952,,,,,,,,,,,,,,,i,1,0.5343,0,54,54,30,1,卑鄙,i,,,,,,,,,,,,,,,,,,,,,,,,,,,,,,,,,,,,,,,,,
,,,,,,,,,,,,,,1,001,2025-02-17_15h12.25.692,IAT(Formal),2021.2.3,Win32,59.88023952,,,,,,,,,,,,,,,i,1,0.4204,0,55,55,55,1,他,i,,,,,,,,,,,,,,,,,,,,,,,,,,,,,,,,,,,,,,,,,
,,,,,,,,,,,,,,1,001,2025-02-17_15h12.25.692,IAT(Formal),2021.2.3,Win32,59.88023952,,,,,,,,,,,,,,,e,1,0.5508,0,56,56,73,1,自己,e,,,,,,,,,,,,,,,,,,,,,,,,,,,,,,,,,,,,,,,,,
,,,,,,,,,,,,,,1,001,2025-02-17_15h12.25.692,IAT(Formal),2021.2.3,Win32,59.88023952,,,,,,,,,,,,,,,i,1,0.574,0,57,57,32,1,愚蠢,i,,,,,,,,,,,,,,,,,,,,,,,,,,,,,,,,,,,,,,,,,
,,,,,,,,,,,,,,1,001,2025-02-17_15h12.25.692,IAT(Formal),2021.2.3,Win32,59.88023952,,,,,,,,,,,,,,,i,1,0.9422,0,58,58,41,1,散漫,i,,,,,,,,,,,,,,,,,,,,,,,,,,,,,,,,,,,,,,,,,
,,,,,,,,,,,,,,1,001,2025-02-17_15h12.25.692,IAT(Formal),2021.2.3,Win32,59.88023952,,,,,,,,,,,,,,,i,1,0.568,0,59,59,78,1,他人,i,,,,,,,,,,,,,,,,,,,,,,,,,,,,,,,,,,,,,,,,,
,,,,,,,,,,,,,,1,001,2025-02-17_15h12.25.692,IAT(Formal),2021.2.3,Win32,59.88023952,,,,,,,,,,,,,,,e,1,1.1533,0,60,60,61,1,我的,e,,,,,,,,,,,,,,,,,,,,,,,,,,,,,,,,,,,,,,,,,
,,,,,,,,,,,,,,1,001,2025-02-17_15h12.25.692,IAT(Formal),2021.2.3,Win32,59.88023952,,,,,,,,,,,,,,,i,1,0.5856,0,61,61,77,1,他的,i,,,,,,,,,,,,,,,,,,,,,,,,,,,,,,,,,,,,,,,,,
,,,,,,,,,,,,,,1,001,2025-02-17_15h12.25.692,IAT(Formal),2021.2.3,Win32,59.88023952,,,,,,,,,,,,,,,i,1,0.533,0,62,62,46,1,野蛮,i,,,,,,,,,,,,,,,,,,,,,,,,,,,,,,,,,,,,,,,,,
,,,,,,,,,,,,,,1,001,2025-02-17_15h12.25.692,IAT(Formal),2021.2.3,Win32,59.88023952,,,,,,,,,,,,,,,i,1,0.4591,0,63,63,44,1,暴躁,i,,,,,,,,,,,,,,,,,,,,,,,,,,,,,,,,,,,,,,,,,
,,,,,,,,,,,,,,1,001,2025-02-17_15h12.25.692,IAT(Formal),2021.2.3,Win32,59.88023952,,,,,,,,,,,,,,,i,1,0.4451,0,64,64,35,1,消极,i,,,,,,,,,,,,,,,,,,,,,,,,,,,,,,,,,,,,,,,,,
,,,,,,,,,,,,,,1,001,2025-02-17_15h12.25.692,IAT(Formal),2021.2.3,Win32,59.88023952,,,,,,,,,,,,,,,e,1,0.5857,0,65,65,53,1,自己,e,,,,,,,,,,,,,,,,,,,,,,,,,,,,,,,,,,,,,,,,,
,,,,,,,,,,,,,,1,001,2025-02-17_15h12.25.692,IAT(Formal),2021.2.3,Win32,59.88023952,,,,,,,,,,,,,,,i,1,0.7409,0,66,66,31,1,虚伪,i,,,,,,,,,,,,,,,,,,,,,,,,,,,,,,,,,,,,,,,,,
,,,,,,,,,,,,,,1,001,2025-02-17_15h12.25.692,IAT(Formal),2021.2.3,Win32,59.88023952,,,,,,,,,,,,,,,e,1,0.5246,0,67,67,16,1,正直,e,,,,,,,,,,,,,,,,,,,,,,,,,,,,,,,,,,,,,,,,,
,,,,,,,,,,,,,,1,001,2025-02-17_15h12.25.692,IAT(Formal),2021.2.3,Win32,59.88023952,,,,,,,,,,,,,,,e,1,0.4946,0,68,68,64,1,俺,e,,,,,,,,,,,,,,,,,,,,,,,,,,,,,,,,,,,,,,,,,
,,,,,,,,,,,,,,1,001,2025-02-17_15h12.25.692,IAT(Formal),2021.2.3,Win32,59.88023952,,,,,,,,,,,,,,,e,1,0.3793,0,69,69,3,1,自己,e,,,,,,,,,,,,,,,,,,,,,,,,,,,,,,,,,,,,,,,,,
,,,,,,,,,,,,,,1,001,2025-02-17_15h12.25.692,IAT(Formal),2021.2.3,Win32,59.88023952,,,,,,,,,,,,,,,i,1,0.605,0,70,70,48,1,轻率,i,,,,,,,,,,,,,,,,,,,,,,,,,,,,,,,,,,,,,,,,,
,,,,,,,,,,,,,,1,001,2025-02-17_15h12.25.692,IAT(Formal),2021.2.3,Win32,59.88023952,,,,,,,,,,,,,,,i,1,0.5334,0,71,71,76,1,他们,i,,,,,,,,,,,,,,,,,,,,,,,,,,,,,,,,,,,,,,,,,
,,,,,,,,,,,,,,1,001,2025-02-17_15h12.25.692,IAT(Formal),2021.2.3,Win32,59.88023952,,,,,,,,,,,,,,,i,1,0.5177,0,72,72,33,1,刻薄,i,,,,,,,,,,,,,,,,,,,,,,,,,,,,,,,,,,,,,,,,,
,,,,,,,,,,,,,,1,001,2025-02-17_15h12.25.692,IAT(Formal),2021.2.3,Win32,59.88023952,,,,,,,,,,,,,,,e,1,0.6063,0,73,73,4,1,俺,e,,,,,,,,,,,,,,,,,,,,,,,,,,,,,,,,,,,,,,,,,
,,,,,,,,,,,,,,1,001,2025-02-17_15h12.25.692,IAT(Formal),2021.2.3,Win32,59.88023952,,,,,,,,,,,,,,,i,1,0.5448,0,74,74,67,1,他的,i,,,,,,,,,,,,,,,,,,,,,,,,,,,,,,,,,,,,,,,,,
,,,,,,,,,,,,,,1,001,2025-02-17_15h12.25.692,IAT(Formal),2021.2.3,Win32,59.88023952,,,,,,,,,,,,,,,i,1,0.534,0,75,75,6,1,他们,i,,,,,,,,,,,,,,,,,,,,,,,,,,,,,,,,,,,,,,,,,
,,,,,,,,,,,,,,1,001,2025-02-17_15h12.25.692,IAT(Formal),2021.2.3,Win32,59.88023952,,,,,,,,,,,,,,,e,1,0.6689,0,76,76,28,1,活泼,e,,,,,,,,,,,,,,,,,,,,,,,,,,,,,,,,,,,,,,,,,
,,,,,,,,,,,,,,1,001,2025-02-17_15h12.25.692,IAT(Formal),2021.2.3,Win32,59.88023952,,,,,,,,,,,,,,,i,1,0.5527,0,77,77,40,1,执拗,i,,,,,,,,,,,,,,,,,,,,,,,,,,,,,,,,,,,,,,,,,
,,,,,,,,,,,,,,1,001,2025-02-17_15h12.25.692,IAT(Formal),2021.2.3,Win32,59.88023952,,,,,,,,,,,,,,,i,1,0.6343,0,78,78,79,1,其他,i,,,,,,,,,,,,,,,,,,,,,,,,,,,,,,,,,,,,,,,,,
,,,,,,,,,,,,,,1,001,2025-02-17_15h12.25.692,IAT(Formal),2021.2.3,Win32,59.88023952,,,,,,,,,,,,,,,e,1,0.5871,0,79,79,10,1,优秀,e,,,,,,,,,,,,,,,,,,,,,,,,,,,,,,,,,,,,,,,,,
,,,,,,,,,,,,,,1,001,2025-02-17_15h12.25.692,IAT(Formal),2021.2.3,Win32,59.88023952,,,,,,,,,,,,,,,e,1,0.8573,,,,,,细腻,e,space,6.1843,0,0,0,25,1,,,,,,,,,,,,,,,,,,,,,,,,,,,,,,,,,,
,,,,,,,,,,,,,,1,001,2025-02-17_15h12.25.692,IAT(Formal),2021.2.3,Win32,59.88023952,,,,,,,,,,,,,,,e,1,0.403,,,,,,我的,e,,,0,1,1,1,1,,,,,,,,,,,,,,,,,,,,,,,,,,,,,,,,,,
,,,,,,,,,,,,,,1,001,2025-02-17_15h12.25.692,IAT(Formal),2021.2.3,Win32,59.88023952,,,,,,,,,,,,,,,i,1,0.8816,,,,,,冒失,i,,,0,2,2,39,1,,,,,,,,,,,,,,,,,,,,,,,,,,,,,,,,,,
,,,,,,,,,,,,,,1,001,2025-02-17_15h12.25.692,IAT(Formal),2021.2.3,Win32,59.88023952,,,,,,,,,,,,,,,i,1,0.5909,,,,,,他们,i,,,0,3,3,6,1,,,,,,,,,,,,,,,,,,,,,,,,,,,,,,,,,,
,,,,,,,,,,,,,,1,001,2025-02-17_15h12.25.692,IAT(Formal),2021.2.3,Win32,59.88023952,,,,,,,,,,,,,,,e,1,0.5509,,,,,,乐观,e,,,0,4,4,14,1,,,,,,,,,,,,,,,,,,,,,,,,,,,,,,,,,,
,,,,,,,,,,,,,,1,001,2025-02-17_15h12.25.692,IAT(Formal),2021.2.3,Win32,59.88023952,,,,,,,,,,,,,,,e,1,0.6672,,,,,,勤奋,e,,,0,5,5,18,1,,,,,,,,,,,,,,,,,,,,,,,,,,,,,,,,,,
,,,,,,,,,,,,,,1,001,2025-02-17_15h12.25.692,IAT(Formal),2021.2.3,Win32,59.88023952,,,,,,,,,,,,,,,e,1,0.417,,,,,,优秀,e,,,0,6,6,10,1,,,,,,,,,,,,,,,,,,,,,,,,,,,,,,,,,,
,,,,,,,,,,,,,,1,001,2025-02-17_15h12.25.692,IAT(Formal),2021.2.3,Win32,59.88023952,,,,,,,,,,,,,,,i,1,0.5027,,,,,,他人,i,,,0,7,7,8,1,,,,,,,,,,,,,,,,,,,,,,,,,,,,,,,,,,
,,,,,,,,,,,,,,1,001,2025-02-17_15h12.25.692,IAT(Formal),2021.2.3,Win32,59.88023952,,,,,,,,,,,,,,,i,1,0.6346,,,,,,固执,i,,,0,8,8,47,1,,,,,,,,,,,,,,,,,,,,,,,,,,,,,,,,,,
,,,,,,,,,,,,,,1,001,2025-02-17_15h12.25.692,IAT(Formal),2021.2.3,Win32,59.88023952,,,,,,,,,,,,,,,i,1,0.5845,,,,,,他,i,,,0,9,9,5,1,,,,,,,,,,,,,,,,,,,,,,,,,,,,,,,,,,
,,,,,,,,,,,,,,1,001,2025-02-17_15h12.25.692,IAT(Formal),2021.2.3,Win32,59.88023952,,,,,,,,,,,,,,,e,1,0.5461,,,,,,俺,e,,,0,10,10,54,1,,,,,,,,,,,,,,,,,,,,,,,,,,,,,,,,,,
,,,,,,,,,,,,,,1,001,2025-02-17_15h12.25.692,IAT(Formal),2021.2.3,Win32,59.88023952,,,,,,,,,,,,,,,i,1,0.6101,,,,,,他们,i,,,0,11,11,76,1,,,,,,,,,,,,,,,,,,,,,,,,,,,,,,,,,,
,,,,,,,,,,,,,,1,001,2025-02-17_15h12.25.692,IAT(Formal),2021.2.3,Win32,59.88023952,,,,,,,,,,,,,,,i,1,0.5294,,,,,,他人,i,,,0,12,12,68,1,,,,,,,,,,,,,,,,,,,,,,,,,,,,,,,,,,
,,,,,,,,,,,,,,1,001,2025-02-17_15h12.25.692,IAT(Formal),2021.2.3,Win32,59.88023952,,,,,,,,,,,,,,,,0,,,,,,,机智,e,,,0,13,13,19,1,,,,,,,,,,,,,,,,,,,,,,,,,,,,,,,,,,
,,,,,,,,,,,,,,1,001,2025-02-17_15h12.25.692,IAT(Formal),2021.2.3,Win32,59.88023952,,,,,,,,,,,,,,,i,1,0.6838,,,,,,他,i,,,0,14,14,55,1,,,,,,,,,,,,,,,,,,,,,,,,,,,,,,,,,,
,,,,,,,,,,,,,,1,001,2025-02-17_15h12.25.692,IAT(Formal),2021.2.3,Win32,59.88023952,,,,,,,,,,,,,,,e,1,0.5562,,,,,,俺,e,,,0,15,15,4,1,,,,,,,,,,,,,,,,,,,,,,,,,,,,,,,,,,
,,,,,,,,,,,,,,1,001,2025-02-17_15h12.25.692,IAT(Formal),2021.2.3,Win32,59.88023952,,,,,,,,,,,,,,,i,1,0.5004,,,,,,他的,i,,,0,16,16,57,1,,,,,,,,,,,,,,,,,,,,,,,,,,,,,,,,,,
,,,,,,,,,,,,,,1,001,2025-02-17_15h12.25.692,IAT(Formal),2021.2.3,Win32,59.88023952,,,,,,,,,,,,,,,i,1,0.5012,,,,,,他人,i,,,0,17,17,58,1,,,,,,,,,,,,,,,,,,,,,,,,,,,,,,,,,,
,,,,,,,,,,,,,,1,001,2025-02-17_15h12.25.692,IAT(Formal),2021.2.3,Win32,59.88023952,,,,,,,,,,,,,,,i,1,0.4465,,,,,,自卑,i,,,0,18,18,36,1,,,,,,,,,,,,,,,,,,,,,,,,,,,,,,,,,,
,,,,,,,,,,,,,,1,001,2025-02-17_15h12.25.692,IAT(Formal),2021.2.3,Win32,59.88023952,,,,,,,,,,,,,,,e,1,0.5244,,,,,,我的,e,,,0,19,19,51,1,,,,,,,,,,,,,,,,,,,,,,,,,,,,,,,,,,
,,,,,,,,,,,,,,1,001,2025-02-17_15h12.25.692,IAT(Formal),2021.2.3,Win32,59.88023952,,,,,,,,,,,,,,,e,1,0.6372,,,,,,认真,e,,,0,20,20,20,1,,,,,,,,,,,,,,,,,,,,,,,,,,,,,,,,,,
,,,,,,,,,,,,,,1,001,2025-02-17_15h12.25.692,IAT(Formal),2021.2.3,Win32,59.88023952,,,,,,,,,,,,,,,e,1,0.3823,,,,,,我们,e,,,0,21,21,2,1,,,,,,,,,,,,,,,,,,,,,,,,,,,,,,,,,,
,,,,,,,,,,,,,,1,001,2025-02-17_15h12.25.692,IAT(Formal),2021.2.3,Win32,59.88023952,,,,,,,,,,,,,,,e,1,0.3455,,,,,,我们,e,,,0,22,22,52,1,,,,,,,,,,,,,,,,,,,,,,,,,,,,,,,,,,
,,,,,,,,,,,,,,1,001,2025-02-17_15h12.25.692,IAT(Formal),2021.2.3,Win32,59.88023952,,,,,,,,,,,,,,,e,1,0.4529,,,,,,自己,e,,,0,23,23,73,1,,,,,,,,,,,,,,,,,,,,,,,,,,,,,,,,,,
,,,,,,,,,,,,,,1,001,2025-02-17_15h12.25.692,IAT(Formal),2021.2.3,Win32,59.88023952,,,,,,,,,,,,,,,i,1,0.4408,,,,,,消极,i,,,0,24,24,35,1,,,,,,,,,,,,,,,,,,,,,,,,,,,,,,,,,,
,,,,,,,,,,,,,,1,001,2025-02-17_15h12.25.692,IAT(Formal),2021.2.3,Win32,59.88023952,,,,,,,,,,,,,,,i,1,0.3367,,,,,,他人,i,,,0,25,25,78,1,,,,,,,,,,,,,,,,,,,,,,,,,,,,,,,,,,
,,,,,,,,,,,,,,1,001,2025-02-17_15h12.25.692,IAT(Formal),2021.2.3,Win32,59.88023952,,,,,,,,,,,,,,,i,0,0.3373,,,,,,俺,e,,,0,26,26,64,1,,,,,,,,,,,,,,,,,,,,,,,,,,,,,,,,,,
,,,,,,,,,,,,,,1,001,2025-02-17_15h12.25.692,IAT(Formal),2021.2.3,Win32,59.88023952,,,,,,,,,,,,,,,i,1,0.5542,,,,,,执拗,i,,,0,27,27,40,1,,,,,,,,,,,,,,,,,,,,,,,,,,,,,,,,,,
,,,,,,,,,,,,,,1,001,2025-02-17_15h12.25.692,IAT(Formal),2021.2.3,Win32,59.88023952,,,,,,,,,,,,,,,e,1,0.5941,,,,,,诚实,e,,,0,28,28,15,1,,,,,,,,,,,,,,,,,,,,,,,,,,,,,,,,,,
,,,,,,,,,,,,,,1,001,2025-02-17_15h12.25.692,IAT(Formal),2021.2.3,Win32,59.88023952,,,,,,,,,,,,,,,i,1,0.6515,,,,,,愚蠢,i,,,0,29,29,32,1,,,,,,,,,,,,,,,,,,,,,,,,,,,,,,,,,,
,,,,,,,,,,,,,,1,001,2025-02-17_15h12.25.692,IAT(Formal),2021.2.3,Win32,59.88023952,,,,,,,,,,,,,,,i,1,0.555,,,,,,其他,i,,,0,30,30,9,1,,,,,,,,,,,,,,,,,,,,,,,,,,,,,,,,,,
,,,,,,,,,,,,,,1,001,2025-02-17_15h12.25.692,IAT(Formal),2021.2.3,Win32,59.88023952,,,,,,,,,,,,,,,i,1,0.5029,,,,,,悲观,i,,,0,31,31,34,1,,,,,,,,,,,,,,,,,,,,,,,,,,,,,,,,,,
,,,,,,,,,,,,,,1,001,2025-02-17_15h12.25.692,IAT(Formal),2021.2.3,Win32,59.88023952,,,,,,,,,,,,,,,e,1,0.5813,,,,,,公正,e,,,0,32,32,23,1,,,,,,,,,,,,,,,,,,,,,,,,,,,,,,,,,,
,,,,,,,,,,,,,,1,001,2025-02-17_15h12.25.692,IAT(Formal),2021.2.3,Win32,59.88023952,,,,,,,,,,,,,,,e,1,0.4047,,,,,,我的,e,,,0,33,33,71,1,,,,,,,,,,,,,,,,,,,,,,,,,,,,,,,,,,
,,,,,,,,,,,,,,1,001,2025-02-17_15h12.25.692,IAT(Formal),2021.2.3,Win32,59.88023952,,,,,,,,,,,,,,,i,1,0.4742,,,,,,下贱,i,,,0,34,34,49,1,,,,,,,,,,,,,,,,,,,,,,,,,,,,,,,,,,
,,,,,,,,,,,,,,1,001,2025-02-17_15h12.25.692,IAT(Formal),2021.2.3,Win32,59.88023952,,,,,,,,,,,,,,,i,1,0.5054,,,,,,其他,i,,,0,35,35,59,1,,,,,,,,,,,,,,,,,,,,,,,,,,,,,,,,,,
,,,,,,,,,,,,,,1,001,2025-02-17_15h12.25.692,IAT(Formal),2021.2.3,Win32,59.88023952,,,,,,,,,,,,,,,i,1,0.6084,,,,,,他的,i,,,0,36,36,7,1,,,,,,,,,,,,,,,,,,,,,,,,,,,,,,,,,,
,,,,,,,,,,,,,,1,001,2025-02-17_15h12.25.692,IAT(Formal),2021.2.3,Win32,59.88023952,,,,,,,,,,,,,,,e,1,0.5028,,,,,,朴实,e,,,0,37,37,24,1,,,,,,,,,,,,,,,,,,,,,,,,,,,,,,,,,,
,,,,,,,,,,,,,,1,001,2025-02-17_15h12.25.692,IAT(Formal),2021.2.3,Win32,59.88023952,,,,,,,,,,,,,,,i,1,0.5684,,,,,,刻薄,i,,,0,38,38,33,1,,,,,,,,,,,,,,,,,,,,,,,,,,,,,,,,,,
,,,,,,,,,,,,,,1,001,2025-02-17_15h12.25.692,IAT(Formal),2021.2.3,Win32,59.88023952,,,,,,,,,,,,,,,i,1,0.5543,,,,,,他,i,,,0,39,39,65,1,,,,,,,,,,,,,,,,,,,,,,,,,,,,,,,,,,
,,,,,,,,,,,,,,1,001,2025-02-17_15h12.25.692,IAT(Formal),2021.2.3,Win32,59.88023952,,,,,,,,,,,,,,,i,1,0.8023,,,,,,凶狠,i,,,0,40,40,42,1,,,,,,,,,,,,,,,,,,,,,,,,,,,,,,,,,,
,,,,,,,,,,,,,,1,001,2025-02-17_15h12.25.692,IAT(Formal),2021.2.3,Win32,59.88023952,,,,,,,,,,,,,,,e,1,0.5046,,,,,,我的,e,,,0,41,41,61,1,,,,,,,,,,,,,,,,,,,,,,,,,,,,,,,,,,
,,,,,,,,,,,,,,1,001,2025-02-17_15h12.25.692,IAT(Formal),2021.2.3,Win32,59.88023952,,,,,,,,,,,,,,,e,1,0.5189,,,,,,自己,e,,,0,42,42,63,1,,,,,,,,,,,,,,,,,,,,,,,,,,,,,,,,,,
,,,,,,,,,,,,,,1,001,2025-02-17_15h12.25.692,IAT(Formal),2021.2.3,Win32,59.88023952,,,,,,,,,,,,,,,i,1,0.7508,,,,,,自私,i,,,0,43,43,43,1,,,,,,,,,,,,,,,,,,,,,,,,,,,,,,,,,,
,,,,,,,,,,,,,,1,001,2025-02-17_15h12.25.692,IAT(Formal),2021.2.3,Win32,59.88023952,,,,,,,,,,,,,,,e,1,0.5583,,,,,,我,e,,,0,44,44,50,1,,,,,,,,,,,,,,,,,,,,,,,,,,,,,,,,,,
,,,,,,,,,,,,,,1,001,2025-02-17_15h12.25.692,IAT(Formal),2021.2.3,Win32,59.88023952,,,,,,,,,,,,,,,e,1,1.0022,,,,,,聪明,e,,,0,45,45,12,1,,,,,,,,,,,,,,,,,,,,,,,,,,,,,,,,,,
,,,,,,,,,,,,,,1,001,2025-02-17_15h12.25.692,IAT(Formal),2021.2.3,Win32,59.88023952,,,,,,,,,,,,,,,i,1,0.5668,,,,,,鲁莽,i,,,0,46,46,38,1,,,,,,,,,,,,,,,,,,,,,,,,,,,,,,,,,,
,,,,,,,,,,,,,,1,001,2025-02-17_15h12.25.692,IAT(Formal),2021.2.3,Win32,59.88023952,,,,,,,,,,,,,,,e,1,0.5898,,,,,,热情,e,,,0,47,47,27,1,,,,,,,,,,,,,,,,,,,,,,,,,,,,,,,,,,
,,,,,,,,,,,,,,1,001,2025-02-17_15h12.25.692,IAT(Formal),2021.2.3,Win32,59.88023952,,,,,,,,,,,,,,,e,1,0.5023,,,,,,正直,e,,,0,48,48,16,1,,,,,,,,,,,,,,,,,,,,,,,,,,,,,,,,,,
,,,,,,,,,,,,,,1,001,2025-02-17_15h12.25.692,IAT(Formal),2021.2.3,Win32,59.88023952,,,,,,,,,,,,,,,e,1,0.496,,,,,,我,e,,,0,49,49,60,1,,,,,,,,,,,,,,,,,,,,,,,,,,,,,,,,,,
,,,,,,,,,,,,,,1,001,2025-02-17_15h12.25.692,IAT(Formal),2021.2.3,Win32,59.88023952,,,,,,,,,,,,,,,i,0,0.3873,,,,,,自己,e,,,0,50,50,53,1,,,,,,,,,,,,,,,,,,,,,,,,,,,,,,,,,,
,,,,,,,,,,,,,,1,001,2025-02-17_15h12.25.692,IAT(Formal),2021.2.3,Win32,59.88023952,,,,,,,,,,,,,,,e,1,0.5597,,,,,,杰出,e,,,0,51,51,13,1,,,,,,,,,,,,,,,,,,,,,,,,,,,,,,,,,,
,,,,,,,,,,,,,,1,001,2025-02-17_15h12.25.692,IAT(Formal),2021.2.3,Win32,59.88023952,,,,,,,,,,,,,,,e,1,0.4348,,,,,,我,e,,,0,52,52,0,1,,,,,,,,,,,,,,,,,,,,,,,,,,,,,,,,,,
,,,,,,,,,,,,,,1,001,2025-02-17_15h12.25.692,IAT(Formal),2021.2.3,Win32,59.88023952,,,,,,,,,,,,,,,e,1,0.5591,,,,,,勇敢,e,,,0,53,53,17,1,,,,,,,,,,,,,,,,,,,,,,,,,,,,,,,,,,
,,,,,,,,,,,,,,1,001,2025-02-17_15h12.25.692,IAT(Formal),2021.2.3,Win32,59.88023952,,,,,,,,,,,,,,,i,1,0.6016,,,,,,他的,i,,,0,54,54,77,1,,,,,,,,,,,,,,,,,,,,,,,,,,,,,,,,,,
,,,,,,,,,,,,,,1,001,2025-02-17_15h12.25.692,IAT(Formal),2021.2.3,Win32,59.88023952,,,,,,,,,,,,,,,e,1,0.5664,,,,,,崇高,e,,,0,55,55,11,1,,,,,,,,,,,,,,,,,,,,,,,,,,,,,,,,,,
,,,,,,,,,,,,,,1,001,2025-02-17_15h12.25.692,IAT(Formal),2021.2.3,Win32,59.88023952,,,,,,,,,,,,,,,i,1,0.533,,,,,,他们,i,,,0,56,56,66,1,,,,,,,,,,,,,,,,,,,,,,,,,,,,,,,,,,
,,,,,,,,,,,,,,1,001,2025-02-17_15h12.25.692,IAT(Formal),2021.2.3,Win32,59.88023952,,,,,,,,,,,,,,,e,1,0.6026,,,,,,冷静,e,,,0,57,57,26,1,,,,,,,,,,,,,,,,,,,,,,,,,,,,,,,,,,
,,,,,,,,,,,,,,1,001,2025-02-17_15h12.25.692,IAT(Formal),2021.2.3,Win32,59.88023952,,,,,,,,,,,,,,,i,1,0.5192,,,,,,暴躁,i,,,0,58,58,44,1,,,,,,,,,,,,,,,,,,,,,,,,,,,,,,,,,,
,,,,,,,,,,,,,,1,001,2025-02-17_15h12.25.692,IAT(Formal),2021.2.3,Win32,59.88023952,,,,,,,,,,,,,,,i,1,0.5063,,,,,,其他,i,,,0,59,59,79,1,,,,,,,,,,,,,,,,,,,,,,,,,,,,,,,,,,
,,,,,,,,,,,,,,1,001,2025-02-17_15h12.25.692,IAT(Formal),2021.2.3,Win32,59.88023952,,,,,,,,,,,,,,,e,1,0.6872,,,,,,活泼,e,,,0,60,60,28,1,,,,,,,,,,,,,,,,,,,,,,,,,,,,,,,,,,
,,,,,,,,,,,,,,1,001,2025-02-17_15h12.25.692,IAT(Formal),2021.2.3,Win32,59.88023952,,,,,,,,,,,,,,,i,1,0.6609,,,,,,轻率,i,,,0,61,61,48,1,,,,,,,,,,,,,,,,,,,,,,,,,,,,,,,,,,
,,,,,,,,,,,,,,1,001,2025-02-17_15h12.25.692,IAT(Formal),2021.2.3,Win32,59.88023952,,,,,,,,,,,,,,,i,1,0.5249,,,,,,虚伪,i,,,0,62,62,31,1,,,,,,,,,,,,,,,,,,,,,,,,,,,,,,,,,,
,,,,,,,,,,,,,,1,001,2025-02-17_15h12.25.692,IAT(Formal),2021.2.3,Win32,59.88023952,,,,,,,,,,,,,,,i,1,0.4866,,,,,,野蛮,i,,,0,63,63,46,1,,,,,,,,,,,,,,,,,,,,,,,,,,,,,,,,,,
,,,,,,,,,,,,,,1,001,2025-02-17_15h12.25.692,IAT(Formal),2021.2.3,Win32,59.88023952,,,,,,,,,,,,,,,e,1,0.5161,,,,,,我们,e,,,0,64,64,72,1,,,,,,,,,,,,,,,,,,,,,,,,,,,,,,,,,,
,,,,,,,,,,,,,,1,001,2025-02-17_15h12.25.692,IAT(Formal),2021.2.3,Win32,59.88023952,,,,,,,,,,,,,,,e,1,0.405,,,,,,我,e,,,0,65,65,70,1,,,,,,,,,,,,,,,,,,,,,,,,,,,,,,,,,,
,,,,,,,,,,,,,,1,001,2025-02-17_15h12.25.692,IAT(Formal),2021.2.3,Win32,59.88023952,,,,,,,,,,,,,,,i,1,0.5452,,,,,,猖狂,i,,,0,66,66,45,1,,,,,,,,,,,,,,,,,,,,,,,,,,,,,,,,,,
,,,,,,,,,,,,,,1,001,2025-02-17_15h12.25.692,IAT(Formal),2021.2.3,Win32,59.88023952,,,,,,,,,,,,,,,i,1,0.5201,,,,,,其他,i,,,0,67,67,69,1,,,,,,,,,,,,,,,,,,,,,,,,,,,,,,,,,,
,,,,,,,,,,,,,,1,001,2025-02-17_15h12.25.692,IAT(Formal),2021.2.3,Win32,59.88023952,,,,,,,,,,,,,,,i,0,0.5373,,,,,,无私,e,,,0,68,68,22,1,,,,,,,,,,,,,,,,,,,,,,,,,,,,,,,,,,
,,,,,,,,,,,,,,1,001,2025-02-17_15h12.25.692,IAT(Formal),2021.2.3,Win32,59.88023952,,,,,,,,,,,,,,,e,1,0.7254,,,,,,稳重,e,,,0,69,69,21,1,,,,,,,,,,,,,,,,,,,,,,,,,,,,,,,,,,
,,,,,,,,,,,,,,1,001,2025-02-17_15h12.25.692,IAT(Formal),2021.2.3,Win32,59.88023952,,,,,,,,,,,,,,,i,1,0.5656,,,,,,他们,i,,,0,70,70,56,1,,,,,,,,,,,,,,,,,,,,,,,,,,,,,,,,,,
,,,,,,,,,,,,,,1,001,2025-02-17_15h12.25.692,IAT(Formal),2021.2.3,Win32,59.88023952,,,,,,,,,,,,,,,i,1,0.5951,,,,,,卑鄙,i,,,0,71,71,30,1,,,,,,,,,,,,,,,,,,,,,,,,,,,,,,,,,,
,,,,,,,,,,,,,,1,001,2025-02-17_15h12.25.692,IAT(Formal),2021.2.3,Win32,59.88023952,,,,,,,,,,,,,,,i,1,1.1012,,,,,,傲慢,i,,,0,72,72,37,1,,,,,,,,,,,,,,,,,,,,,,,,,,,,,,,,,,
,,,,,,,,,,,,,,1,001,2025-02-17_15h12.25.692,IAT(Formal),2021.2.3,Win32,59.88023952,,,,,,,,,,,,,,,i,1,0.6052,,,,,,他,i,,,0,73,73,75,1,,,,,,,,,,,,,,,,,,,,,,,,,,,,,,,,,,
,,,,,,,,,,,,,,1,001,2025-02-17_15h12.25.692,IAT(Formal),2021.2.3,Win32,59.88023952,,,,,,,,,,,,,,,e,1,0.6541,,,,,,诚恳,e,,,0,74,74,29,1,,,,,,,,,,,,,,,,,,,,,,,,,,,,,,,,,,
,,,,,,,,,,,,,,1,001,2025-02-17_15h12.25.692,IAT(Formal),2021.2.3,Win32,59.88023952,,,,,,,,,,,,,,,e,1,0.4677,,,,,,我们,e,,,0,75,75,62,1,,,,,,,,,,,,,,,,,,,,,,,,,,,,,,,,,,
,,,,,,,,,,,,,,1,001,2025-02-17_15h12.25.692,IAT(Formal),2021.2.3,Win32,59.88023952,,,,,,,,,,,,,,,e,1,0.5502,,,,,,俺,e,,,0,76,76,74,1,,,,,,,,,,,,,,,,,,,,,,,,,,,,,,,,,,
,,,,,,,,,,,,,,1,001,2025-02-17_15h12.25.692,IAT(Formal),2021.2.3,Win32,59.88023952,,,,,,,,,,,,,,,e,1,0.4761,,,,,,自己,e,,,0,77,77,3,1,,,,,,,,,,,,,,,,,,,,,,,,,,,,,,,,,,
,,,,,,,,,,,,,,1,001,2025-02-17_15h12.25.692,IAT(Formal),2021.2.3,Win32,59.88023952,,,,,,,,,,,,,,,i,1,0.5783,,,,,,他的,i,,,0,78,78,67,1,,,,,,,,,,,,,,,,,,,,,,,,,,,,,,,,,,
,,,,,,,,,,,,,,1,001,2025-02-17_15h12.25.692,IAT(Formal),2021.2.3,Win32,59.88023952,,,,,,,,,,,,,,,i,1,0.5331,,,,,,散漫,i,,,0,79,79,41,1,,,,,,,,,,,,,,,,,,,,,,,,,,,,,,,,,,
,,,,,,,,,,,,,,1,001,2025-02-17_15h12.25.692,IAT(Formal),2021.2.3,Win32,59.88023952,,,,,,,,,,,,,,,i,1,0.6417,,,,,,他们,i,,,1,0,80,6,1,,,,,,,,,,,,,,,,,,,,,,,,,,,,,,,,,,
,,,,,,,,,,,,,,1,001,2025-02-17_15h12.25.692,IAT(Formal),2021.2.3,Win32,59.88023952,,,,,,,,,,,,,,,i,1,0.4133,,,,,,他的,i,,,1,1,81,77,1,,,,,,,,,,,,,,,,,,,,,,,,,,,,,,,,,,
,,,,,,,,,,,,,,1,001,2025-02-17_15h12.25.692,IAT(Formal),2021.2.3,Win32,59.88023952,,,,,,,,,,,,,,,i,1,0.4881,,,,,,下贱,i,,,1,2,82,49,1,,,,,,,,,,,,,,,,,,,,,,,,,,,,,,,,,,
,,,,,,,,,,,,,,1,001,2025-02-17_15h12.25.692,IAT(Formal),2021.2.3,Win32,59.88023952,,,,,,,,,,,,,,,i,1,0.5764,,,,,,其他,i,,,1,3,83,69,1,,,,,,,,,,,,,,,,,,,,,,,,,,,,,,,,,,
,,,,,,,,,,,,,,1,001,2025-02-17_15h12.25.692,IAT(Formal),2021.2.3,Win32,59.88023952,,,,,,,,,,,,,,,e,1,0.5858,,,,,,乐观,e,,,1,4,84,14,1,,,,,,,,,,,,,,,,,,,,,,,,,,,,,,,,,,
,,,,,,,,,,,,,,1,001,2025-02-17_15h12.25.692,IAT(Formal),2021.2.3,Win32,59.88023952,,,,,,,,,,,,,,,i,1,0.6099,,,,,,其他,i,,,1,5,85,59,1,,,,,,,,,,,,,,,,,,,,,,,,,,,,,,,,,,
,,,,,,,,,,,,,,1,001,2025-02-17_15h12.25.692,IAT(Formal),2021.2.3,Win32,59.88023952,,,,,,,,,,,,,,,i,1,0.6169,,,,,,他们,i,,,1,6,86,76,1,,,,,,,,,,,,,,,,,,,,,,,,,,,,,,,,,,
,,,,,,,,,,,,,,1,001,2025-02-17_15h12.25.692,IAT(Formal),2021.2.3,Win32,59.88023952,,,,,,,,,,,,,,,e,1,0.6182,,,,,,朴实,e,,,1,7,87,24,1,,,,,,,,,,,,,,,,,,,,,,,,,,,,,,,,,,
,,,,,,,,,,,,,,1,001,2025-02-17_15h12.25.692,IAT(Formal),2021.2.3,Win32,59.88023952,,,,,,,,,,,,,,,e,1,0.4676,,,,,,我,e,,,1,8,88,50,1,,,,,,,,,,,,,,,,,,,,,,,,,,,,,,,,,,
,,,,,,,,,,,,,,1,001,2025-02-17_15h12.25.692,IAT(Formal),2021.2.3,Win32,59.88023952,,,,,,,,,,,,,,,e,1,0.8196,,,,,,勤奋,e,,,1,9,89,18,1,,,,,,,,,,,,,,,,,,,,,,,,,,,,,,,,,,
,,,,,,,,,,,,,,1,001,2025-02-17_15h12.25.692,IAT(Formal),2021.2.3,Win32,59.88023952,,,,,,,,,,,,,,,i,1,0.4894,,,,,,他的,i,,,1,10,90,7,1,,,,,,,,,,,,,,,,,,,,,,,,,,,,,,,,,,
,,,,,,,,,,,,,,1,001,2025-02-17_15h12.25.692,IAT(Formal),2021.2.3,Win32,59.88023952,,,,,,,,,,,,,,,e,1,0.7111,,,,,,我,e,,,1,11,91,0,1,,,,,,,,,,,,,,,,,,,,,,,,,,,,,,,,,,
,,,,,,,,,,,,,,1,001,2025-02-17_15h12.25.692,IAT(Formal),2021.2.3,Win32,59.88023952,,,,,,,,,,,,,,,e,1,0.5722,,,,,,勇敢,e,,,1,12,92,17,1,,,,,,,,,,,,,,,,,,,,,,,,,,,,,,,,,,
,,,,,,,,,,,,,,1,001,2025-02-17_15h12.25.692,IAT(Formal),2021.2.3,Win32,59.88023952,,,,,,,,,,,,,,,i,1,0.7789,,,,,,他人,i,,,1,13,93,8,1,,,,,,,,,,,,,,,,,,,,,,,,,,,,,,,,,,
,,,,,,,,,,,,,,1,001,2025-02-17_15h12.25.692,IAT(Formal),2021.2.3,Win32,59.88023952,,,,,,,,,,,,,,,i,1,0.6375,,,,,,冒失,i,,,1,14,94,39,1,,,,,,,,,,,,,,,,,,,,,,,,,,,,,,,,,,
,,,,,,,,,,,,,,1,001,2025-02-17_15h12.25.692,IAT(Formal),2021.2.3,Win32,59.88023952,,,,,,,,,,,,,,,e,1,0.688,,,,,,我,e,,,1,15,95,70,1,,,,,,,,,,,,,,,,,,,,,,,,,,,,,,,,,,
,,,,,,,,,,,,,,1,001,2025-02-17_15h12.25.692,IAT(Formal),2021.2.3,Win32,59.88023952,,,,,,,,,,,,,,,i,1,0.8348,,,,,,其他,i,,,1,16,96,9,1,,,,,,,,,,,,,,,,,,,,,,,,,,,,,,,,,,
,,,,,,,,,,,,,,1,001,2025-02-17_15h12.25.692,IAT(Formal),2021.2.3,Win32,59.88023952,,,,,,,,,,,,,,,e,1,0.7675,,,,,,我的,e,,,1,17,97,1,1,,,,,,,,,,,,,,,,,,,,,,,,,,,,,,,,,,
,,,,,,,,,,,,,,1,001,2025-02-17_15h12.25.692,IAT(Formal),2021.2.3,Win32,59.88023952,,,,,,,,,,,,,,,e,1,0.5008,,,,,,我们,e,,,1,18,98,62,1,,,,,,,,,,,,,,,,,,,,,,,,,,,,,,,,,,
,,,,,,,,,,,,,,1,001,2025-02-17_15h12.25.692,IAT(Formal),2021.2.3,Win32,59.88023952,,,,,,,,,,,,,,,e,1,0.787,,,,,,无私,e,,,1,19,99,22,1,,,,,,,,,,,,,,,,,,,,,,,,,,,,,,,,,,
,,,,,,,,,,,,,,1,001,2025-02-17_15h12.25.692,IAT(Formal),2021.2.3,Win32,59.88023952,,,,,,,,,,,,,,,e,1,0.5673,,,,,,认真,e,,,1,20,100,20,1,,,,,,,,,,,,,,,,,,,,,,,,,,,,,,,,,,
,,,,,,,,,,,,,,1,001,2025-02-17_15h12.25.692,IAT(Formal),2021.2.3,Win32,59.88023952,,,,,,,,,,,,,,,e,1,0.4929,,,,,,细腻,e,,,1,21,101,25,1,,,,,,,,,,,,,,,,,,,,,,,,,,,,,,,,,,
,,,,,,,,,,,,,,1,001,2025-02-17_15h12.25.692,IAT(Formal),2021.2.3,Win32,59.88023952,,,,,,,,,,,,,,,e,0,0.4897,,,,,,他们,i,,,1,22,102,66,1,,,,,,,,,,,,,,,,,,,,,,,,,,,,,,,,,,
,,,,,,,,,,,,,,1,001,2025-02-17_15h12.25.692,IAT(Formal),2021.2.3,Win32,59.88023952,,,,,,,,,,,,,,,i,1,0.4335,,,,,,他,i,,,1,23,103,5,1,,,,,,,,,,,,,,,,,,,,,,,,,,,,,,,,,,
,,,,,,,,,,,,,,1,001,2025-02-17_15h12.25.692,IAT(Formal),2021.2.3,Win32,59.88023952,,,,,,,,,,,,,,,i,1,0.3858,,,,,,他,i,,,1,24,104,75,1,,,,,,,,,,,,,,,,,,,,,,,,,,,,,,,,,,
,,,,,,,,,,,,,,1,001,2025-02-17_15h12.25.692,IAT(Formal),2021.2.3,Win32,59.88023952,,,,,,,,,,,,,,,i,1,0.4695,,,,,,他人,i,,,1,25,105,68,1,,,,,,,,,,,,,,,,,,,,,,,,,,,,,,,,,,
,,,,,,,,,,,,,,1,001,2025-02-17_15h12.25.692,IAT(Formal),2021.2.3,Win32,59.88023952,,,,,,,,,,,,,,,i,1,0.4609,,,,,,他的,i,,,1,26,106,57,1,,,,,,,,,,,,,,,,,,,,,,,,,,,,,,,,,,
,,,,,,,,,,,,,,1,001,2025-02-17_15h12.25.692,IAT(Formal),2021.2.3,Win32,59.88023952,,,,,,,,,,,,,,,i,1,0.5365,,,,,,凶狠,i,,,1,27,107,42,1,,,,,,,,,,,,,,,,,,,,,,,,,,,,,,,,,,
,,,,,,,,,,,,,,1,001,2025-02-17_15h12.25.692,IAT(Formal),2021.2.3,Win32,59.88023952,,,,,,,,,,,,,,,e,1,0.6075,,,,,,诚实,e,,,1,28,108,15,1,,,,,,,,,,,,,,,,,,,,,,,,,,,,,,,,,,
,,,,,,,,,,,,,,1,001,2025-02-17_15h12.25.692,IAT(Formal),2021.2.3,Win32,59.88023952,,,,,,,,,,,,,,,i,1,0.5926,,,,,,傲慢,i,,,1,29,109,37,1,,,,,,,,,,,,,,,,,,,,,,,,,,,,,,,,,,
,,,,,,,,,,,,,,1,001,2025-02-17_15h12.25.692,IAT(Formal),2021.2.3,Win32,59.88023952,,,,,,,,,,,,,,,e,1,0.7321,,,,,,俺,e,,,1,30,110,54,1,,,,,,,,,,,,,,,,,,,,,,,,,,,,,,,,,,
,,,,,,,,,,,,,,1,001,2025-02-17_15h12.25.692,IAT(Formal),2021.2.3,Win32,59.88023952,,,,,,,,,,,,,,,e,1,0.4996,,,,,,正直,e,,,1,31,111,16,1,,,,,,,,,,,,,,,,,,,,,,,,,,,,,,,,,,
,,,,,,,,,,,,,,1,001,2025-02-17_15h12.25.692,IAT(Formal),2021.2.3,Win32,59.88023952,,,,,,,,,,,,,,,i,1,0.5365,,,,,,暴躁,i,,,1,32,112,44,1,,,,,,,,,,,,,,,,,,,,,,,,,,,,,,,,,,
,,,,,,,,,,,,,,1,001,2025-02-17_15h12.25.692,IAT(Formal),2021.2.3,Win32,59.88023952,,,,,,,,,,,,,,,i,1,0.5014,,,,,,他,i,,,1,33,113,65,1,,,,,,,,,,,,,,,,,,,,,,,,,,,,,,,,,,
,,,,,,,,,,,,,,1,001,2025-02-17_15h12.25.692,IAT(Formal),2021.2.3,Win32,59.88023952,,,,,,,,,,,,,,,i,1,0.4422,,,,,,他,i,,,1,34,114,55,1,,,,,,,,,,,,,,,,,,,,,,,,,,,,,,,,,,
,,,,,,,,,,,,,,1,001,2025-02-17_15h12.25.692,IAT(Formal),2021.2.3,Win32,59.88023952,,,,,,,,,,,,,,,e,1,0.5863,,,,,,公正,e,,,1,35,115,23,1,,,,,,,,,,,,,,,,,,,,,,,,,,,,,,,,,,
,,,,,,,,,,,,,,1,001,2025-02-17_15h12.25.692,IAT(Formal),2021.2.3,Win32,59.88023952,,,,,,,,,,,,,,,i,1,0.5687,,,,,,愚蠢,i,,,1,36,116,32,1,,,,,,,,,,,,,,,,,,,,,,,,,,,,,,,,,,
,,,,,,,,,,,,,,1,001,2025-02-17_15h12.25.692,IAT(Formal),2021.2.3,Win32,59.88023952,,,,,,,,,,,,,,,i,1,0.6026,,,,,,其他,i,,,1,37,117,79,1,,,,,,,,,,,,,,,,,,,,,,,,,,,,,,,,,,
,,,,,,,,,,,,,,1,001,2025-02-17_15h12.25.692,IAT(Formal),2021.2.3,Win32,59.88023952,,,,,,,,,,,,,,,e,1,0.6161,,,,,,自己,e,,,1,38,118,3,1,,,,,,,,,,,,,,,,,,,,,,,,,,,,,,,,,,
,,,,,,,,,,,,,,1,001,2025-02-17_15h12.25.692,IAT(Formal),2021.2.3,Win32,59.88023952,,,,,,,,,,,,,,,i,1,0.5847,,,,,,他们,i,,,1,39,119,56,1,,,,,,,,,,,,,,,,,,,,,,,,,,,,,,,,,,
,,,,,,,,,,,,,,1,001,2025-02-17_15h12.25.692,IAT(Formal),2021.2.3,Win32,59.88023952,,,,,,,,,,,,,,,e,1,0.7465,,,,,,自己,e,,,1,40,120,73,1,,,,,,,,,,,,,,,,,,,,,,,,,,,,,,,,,,
,,,,,,,,,,,,,,1,001,2025-02-17_15h12.25.692,IAT(Formal),2021.2.3,Win32,59.88023952,,,,,,,,,,,,,,,e,1,0.4562,,,,,,我,e,,,1,41,121,60,1,,,,,,,,,,,,,,,,,,,,,,,,,,,,,,,,,,
,,,,,,,,,,,,,,1,001,2025-02-17_15h12.25.692,IAT(Formal),2021.2.3,Win32,59.88023952,,,,,,,,,,,,,,,e,1,0.485,,,,,,我们,e,,,1,42,122,52,1,,,,,,,,,,,,,,,,,,,,,,,,,,,,,,,,,,
,,,,,,,,,,,,,,1,001,2025-02-17_15h12.25.692,IAT(Formal),2021.2.3,Win32,59.88023952,,,,,,,,,,,,,,,e,1,0.4532,,,,,,优秀,e,,,1,43,123,10,1,,,,,,,,,,,,,,,,,,,,,,,,,,,,,,,,,,
,,,,,,,,,,,,,,1,001,2025-02-17_15h12.25.692,IAT(Formal),2021.2.3,Win32,59.88023952,,,,,,,,,,,,,,,e,1,0.4829,,,,,,自己,e,,,1,44,124,53,1,,,,,,,,,,,,,,,,,,,,,,,,,,,,,,,,,,
,,,,,,,,,,,,,,1,001,2025-02-17_15h12.25.692,IAT(Formal),2021.2.3,Win32,59.88023952,,,,,,,,,,,,,,,e,1,0.4735,,,,,,杰出,e,,,1,45,125,13,1,,,,,,,,,,,,,,,,,,,,,,,,,,,,,,,,,,
,,,,,,,,,,,,,,1,001,2025-02-17_15h12.25.692,IAT(Formal),2021.2.3,Win32,59.88023952,,,,,,,,,,,,,,,e,1,0.4731,,,,,,俺,e,,,1,46,126,64,1,,,,,,,,,,,,,,,,,,,,,,,,,,,,,,,,,,
,,,,,,,,,,,,,,1,001,2025-02-17_15h12.25.692,IAT(Formal),2021.2.3,Win32,59.88023952,,,,,,,,,,,,,,,i,1,0.5874,,,,,,执拗,i,,,1,47,127,40,1,,,,,,,,,,,,,,,,,,,,,,,,,,,,,,,,,,
,,,,,,,,,,,,,,1,001,2025-02-17_15h12.25.692,IAT(Formal),2021.2.3,Win32,59.88023952,,,,,,,,,,,,,,,i,1,0.4677,,,,,,他人,i,,,1,48,128,58,1,,,,,,,,,,,,,,,,,,,,,,,,,,,,,,,,,,
,,,,,,,,,,,,,,1,001,2025-02-17_15h12.25.692,IAT(Formal),2021.2.3,Win32,59.88023952,,,,,,,,,,,,,,,i,1,0.5248,,,,,,他的,i,,,1,49,129,67,1,,,,,,,,,,,,,,,,,,,,,,,,,,,,,,,,,,
,,,,,,,,,,,,,,1,001,2025-02-17_15h12.25.692,IAT(Formal),2021.2.3,Win32,59.88023952,,,,,,,,,,,,,,,i,1,0.569,,,,,,野蛮,i,,,1,50,130,46,1,,,,,,,,,,,,,,,,,,,,,,,,,,,,,,,,,,
,,,,,,,,,,,,,,1,001,2025-02-17_15h12.25.692,IAT(Formal),2021.2.3,Win32,59.88023952,,,,,,,,,,,,,,,e,1,0.5755,,,,,,机智,e,,,1,51,131,19,1,,,,,,,,,,,,,,,,,,,,,,,,,,,,,,,,,,
,,,,,,,,,,,,,,1,001,2025-02-17_15h12.25.692,IAT(Formal),2021.2.3,Win32,59.88023952,,,,,,,,,,,,,,,i,1,0.6705,,,,,,轻率,i,,,1,52,132,48,1,,,,,,,,,,,,,,,,,,,,,,,,,,,,,,,,,,
,,,,,,,,,,,,,,1,001,2025-02-17_15h12.25.692,IAT(Formal),2021.2.3,Win32,59.88023952,,,,,,,,,,,,,,,i,1,0.5431,,,,,,虚伪,i,,,1,53,133,31,1,,,,,,,,,,,,,,,,,,,,,,,,,,,,,,,,,,
,,,,,,,,,,,,,,1,001,2025-02-17_15h12.25.692,IAT(Formal),2021.2.3,Win32,59.88023952,,,,,,,,,,,,,,,e,1,0.6216,,,,,,我的,e,,,1,54,134,61,1,,,,,,,,,,,,,,,,,,,,,,,,,,,,,,,,,,
,,,,,,,,,,,,,,1,001,2025-02-17_15h12.25.692,IAT(Formal),2021.2.3,Win32,59.88023952,,,,,,,,,,,,,,,i,1,0.5026,,,,,,刻薄,i,,,1,55,135,33,1,,,,,,,,,,,,,,,,,,,,,,,,,,,,,,,,,,
,,,,,,,,,,,,,,1,001,2025-02-17_15h12.25.692,IAT(Formal),2021.2.3,Win32,59.88023952,,,,,,,,,,,,,,,i,1,0.5998,,,,,,悲观,i,,,1,56,136,34,1,,,,,,,,,,,,,,,,,,,,,,,,,,,,,,,,,,
,,,,,,,,,,,,,,1,001,2025-02-17_15h12.25.692,IAT(Formal),2021.2.3,Win32,59.88023952,,,,,,,,,,,,,,,e,1,0.585,,,,,,稳重,e,,,1,57,137,21,1,,,,,,,,,,,,,,,,,,,,,,,,,,,,,,,,,,
,,,,,,,,,,,,,,1,001,2025-02-17_15h12.25.692,IAT(Formal),2021.2.3,Win32,59.88023952,,,,,,,,,,,,,,,e,1,0.7042,,,,,,冷静,e,,,1,58,138,26,1,,,,,,,,,,,,,,,,,,,,,,,,,,,,,,,,,,
,,,,,,,,,,,,,,1,001,2025-02-17_15h12.25.692,IAT(Formal),2021.2.3,Win32,59.88023952,,,,,,,,,,,,,,,e,1,0.4499,,,,,,我们,e,,,1,59,139,72,1,,,,,,,,,,,,,,,,,,,,,,,,,,,,,,,,,,
,,,,,,,,,,,,,,1,001,2025-02-17_15h12.25.692,IAT(Formal),2021.2.3,Win32,59.88023952,,,,,,,,,,,,,,,e,1,0.5259,,,,,,热情,e,,,1,60,140,27,1,,,,,,,,,,,,,,,,,,,,,,,,,,,,,,,,,,
,,,,,,,,,,,,,,1,001,2025-02-17_15h12.25.692,IAT(Formal),2021.2.3,Win32,59.88023952,,,,,,,,,,,,,,,i,1,0.5927,,,,,,自卑,i,,,1,61,141,36,1,,,,,,,,,,,,,,,,,,,,,,,,,,,,,,,,,,
,,,,,,,,,,,,,,1,001,2025-02-17_15h12.25.692,IAT(Formal),2021.2.3,Win32,59.88023952,,,,,,,,,,,,,,,e,1,0.6053,,,,,,活泼,e,,,1,62,142,28,1,,,,,,,,,,,,,,,,,,,,,,,,,,,,,,,,,,
,,,,,,,,,,,,,,1,001,2025-02-17_15h12.25.692,IAT(Formal),2021.2.3,Win32,59.88023952,,,,,,,,,,,,,,,e,1,0.5591,,,,,,俺,e,,,1,63,143,4,1,,,,,,,,,,,,,,,,,,,,,,,,,,,,,,,,,,
,,,,,,,,,,,,,,1,001,2025-02-17_15h12.25.692,IAT(Formal),2021.2.3,Win32,59.88023952,,,,,,,,,,,,,,,e,1,0.541,,,,,,崇高,e,,,1,64,144,11,1,,,,,,,,,,,,,,,,,,,,,,,,,,,,,,,,,,
,,,,,,,,,,,,,,1,001,2025-02-17_15h12.25.692,IAT(Formal),2021.2.3,Win32,59.88023952,,,,,,,,,,,,,,,i,1,0.5667,,,,,,卑鄙,i,,,1,65,145,30,1,,,,,,,,,,,,,,,,,,,,,,,,,,,,,,,,,,
,,,,,,,,,,,,,,1,001,2025-02-17_15h12.25.692,IAT(Formal),2021.2.3,Win32,59.88023952,,,,,,,,,,,,,,,e,1,0.5483,,,,,,俺,e,,,1,66,146,74,1,,,,,,,,,,,,,,,,,,,,,,,,,,,,,,,,,,
,,,,,,,,,,,,,,1,001,2025-02-17_15h12.25.692,IAT(Formal),2021.2.3,Win32,59.88023952,,,,,,,,,,,,,,,i,1,0.5685,,,,,,猖狂,i,,,1,67,147,45,1,,,,,,,,,,,,,,,,,,,,,,,,,,,,,,,,,,
,,,,,,,,,,,,,,1,001,2025-02-17_15h12.25.692,IAT(Formal),2021.2.3,Win32,59.88023952,,,,,,,,,,,,,,,e,1,0.6329,,,,,,自己,e,,,1,68,148,63,1,,,,,,,,,,,,,,,,,,,,,,,,,,,,,,,,,,
,,,,,,,,,,,,,,1,001,2025-02-17_15h12.25.692,IAT(Formal),2021.2.3,Win32,59.88023952,,,,,,,,,,,,,,,e,0,0.9866,,,,,,自私,i,,,1,69,149,43,1,,,,,,,,,,,,,,,,,,,,,,,,,,,,,,,,,,
,,,,,,,,,,,,,,1,001,2025-02-17_15h12.25.692,IAT(Formal),2021.2.3,Win32,59.88023952,,,,,,,,,,,,,,,e,1,0.5677,,,,,,我的,e,,,1,70,150,51,1,,,,,,,,,,,,,,,,,,,,,,,,,,,,,,,,,,
,,,,,,,,,,,,,,1,001,2025-02-17_15h12.25.692,IAT(Formal),2021.2.3,Win32,59.88023952,,,,,,,,,,,,,,,i,1,0.6693,,,,,,散漫,i,,,1,71,151,41,1,,,,,,,,,,,,,,,,,,,,,,,,,,,,,,,,,,
,,,,,,,,,,,,,,1,001,2025-02-17_15h12.25.692,IAT(Formal),2021.2.3,Win32,59.88023952,,,,,,,,,,,,,,,i,1,0.5842,,,,,,鲁莽,i,,,1,72,152,38,1,,,,,,,,,,,,,,,,,,,,,,,,,,,,,,,,,,
,,,,,,,,,,,,,,1,001,2025-02-17_15h12.25.692,IAT(Formal),2021.2.3,Win32,59.88023952,,,,,,,,,,,,,,,i,1,0.5181,,,,,,固执,i,,,1,73,153,47,1,,,,,,,,,,,,,,,,,,,,,,,,,,,,,,,,,,
,,,,,,,,,,,,,,1,001,2025-02-17_15h12.25.692,IAT(Formal),2021.2.3,Win32,59.88023952,,,,,,,,,,,,,,,e,1,0.5759,,,,,,诚恳,e,,,1,74,154,29,1,,,,,,,,,,,,,,,,,,,,,,,,,,,,,,,,,,
,,,,,,,,,,,,,,1,001,2025-02-17_15h12.25.692,IAT(Formal),2021.2.3,Win32,59.88023952,,,,,,,,,,,,,,,e,1,0.6685,,,,,,我的,e,,,1,75,155,71,1,,,,,,,,,,,,,,,,,,,,,,,,,,,,,,,,,,
,,,,,,,,,,,,,,1,001,2025-02-17_15h12.25.692,IAT(Formal),2021.2.3,Win32,59.88023952,,,,,,,,,,,,,,,i,1,0.8687,,,,,,消极,i,,,1,76,156,35,1,,,,,,,,,,,,,,,,,,,,,,,,,,,,,,,,,,
,,,,,,,,,,,,,,1,001,2025-02-17_15h12.25.692,IAT(Formal),2021.2.3,Win32,59.88023952,,,,,,,,,,,,,,,e,1,0.7869,,,,,,我们,e,,,1,77,157,2,1,,,,,,,,,,,,,,,,,,,,,,,,,,,,,,,,,,
,,,,,,,,,,,,,,1,001,2025-02-17_15h12.25.692,IAT(Formal),2021.2.3,Win32,59.88023952,,,,,,,,,,,,,,,e,1,0.891,,,,,,聪明,e,,,1,78,158,12,1,,,,,,,,,,,,,,,,,,,,,,,,,,,,,,,,,,
,,,,,,,,,,,,,,1,001,2025-02-17_15h12.25.692,IAT(Formal),2021.2.3,Win32,59.88023952,,,,,,,,,,,,,,,i,1,0.5554,,,,,,他人,i,,,1,79,159,78,1,,,,,,,,,,,,,,,,,,,,,,,,,,,,,,,,,,
,,,,,,,,,,,,他人,e,1,001,2025-02-17_15h12.25.692,IAT(Formal),2021.2.3,Win32,59.88023952,,,,,,,,,,,,,,,,,,,,,,,,,,,,,,,,space,5.6141,e,1,0.4767,0,0,0,8,1,,,,,,,,,,,,,,,,,,,,,,,,
,,,,,,,,,,,,自己,i,1,001,2025-02-17_15h12.25.692,IAT(Formal),2021.2.3,Win32,59.88023952,,,,,,,,,,,,,,,,,,,,,,,,,,,,,,,,,,i,1,0.4362,0,1,1,3,1,,,,,,,,,,,,,,,,,,,,,,,,
,,,,,,,,,,,,我,i,1,001,2025-02-17_15h12.25.692,IAT(Formal),2021.2.3,Win32,59.88023952,,,,,,,,,,,,,,,,,,,,,,,,,,,,,,,,,,i,1,0.4545,0,2,2,0,1,,,,,,,,,,,,,,,,,,,,,,,,
,,,,,,,,,,,,俺,i,1,001,2025-02-17_15h12.25.692,IAT(Formal),2021.2.3,Win32,59.88023952,,,,,,,,,,,,,,,,,,,,,,,,,,,,,,,,,,i,1,0.4679,0,3,3,4,1,,,,,,,,,,,,,,,,,,,,,,,,
,,,,,,,,,,,,我们,i,1,001,2025-02-17_15h12.25.692,IAT(Formal),2021.2.3,Win32,59.88023952,,,,,,,,,,,,,,,,,,,,,,,,,,,,,,,,,,i,1,0.4656,0,4,4,2,1,,,,,,,,,,,,,,,,,,,,,,,,
,,,,,,,,,,,,他们,e,1,001,2025-02-17_15h12.25.692,IAT(Formal),2021.2.3,Win32,59.88023952,,,,,,,,,,,,,,,,,,,,,,,,,,,,,,,,,,e,1,0.535,0,5,5,6,1,,,,,,,,,,,,,,,,,,,,,,,,
,,,,,,,,,,,,他的,e,1,001,2025-02-17_15h12.25.692,IAT(Formal),2021.2.3,Win32,59.88023952,,,,,,,,,,,,,,,,,,,,,,,,,,,,,,,,,,i,0,0.6042,0,6,6,7,1,,,,,,,,,,,,,,,,,,,,,,,,
,,,,,,,,,,,,他,e,1,001,2025-02-17_15h12.25.692,IAT(Formal),2021.2.3,Win32,59.88023952,,,,,,,,,,,,,,,,,,,,,,,,,,,,,,,,,,e,1,0.4374,0,7,7,5,1,,,,,,,,,,,,,,,,,,,,,,,,
,,,,,,,,,,,,我的,i,1,001,2025-02-17_15h12.25.692,IAT(Formal),2021.2.3,Win32,59.88023952,,,,,,,,,,,,,,,,,,,,,,,,,,,,,,,,,,i,1,0.5244,0,8,8,1,1,,,,,,,,,,,,,,,,,,,,,,,,
,,,,,,,,,,,,其他,e,1,001,2025-02-17_15h12.25.692,IAT(Formal),2021.2.3,Win32,59.88023952,,,,,,,,,,,,,,,,,,,,,,,,,,,,,,,,,,e,1,0.5541,0,9,9,9,1,,,,,,,,,,,,,,,,,,,,,,,,
,,,,,,,,,,,,,,1,001,2025-02-17_15h12.25.692,IAT(Formal),2021.2.3,Win32,59.88023952,,,,,,,,,,,,,,,,,,,,,,,,,,,,,,,,,,,,,,,,,,space,3.5637,i,1,1.072,0,0,0,37,1,傲慢,i,,,,,,,,,,,,
,,,,,,,,,,,,,,1,001,2025-02-17_15h12.25.692,IAT(Formal),2021.2.3,Win32,59.88023952,,,,,,,,,,,,,,,,,,,,,,,,,,,,,,,,,,,,,,,,,,,,i,0,0.5348,0,1,1,25,1,细腻,e,,,,,,,,,,,,
,,,,,,,,,,,,,,1,001,2025-02-17_15h12.25.692,IAT(Formal),2021.2.3,Win32,59.88023952,,,,,,,,,,,,,,,,,,,,,,,,,,,,,,,,,,,,,,,,,,,,e,1,1.2186,0,2,2,10,1,优秀,e,,,,,,,,,,,,
,,,,,,,,,,,,,,1,001,2025-02-17_15h12.25.692,IAT(Formal),2021.2.3,Win32,59.88023952,,,,,,,,,,,,,,,,,,,,,,,,,,,,,,,,,,,,,,,,,,,,e,1,0.4863,0,3,3,27,1,热情,e,,,,,,,,,,,,
,,,,,,,,,,,,,,1,001,2025-02-17_15h12.25.692,IAT(Formal),2021.2.3,Win32,59.88023952,,,,,,,,,,,,,,,,,,,,,,,,,,,,,,,,,,,,,,,,,,,,i,1,0.872,0,4,4,54,1,俺,i,,,,,,,,,,,,
,,,,,,,,,,,,,,1,001,2025-02-17_15h12.25.692,IAT(Formal),2021.2.3,Win32,59.88023952,,,,,,,,,,,,,,,,,,,,,,,,,,,,,,,,,,,,,,,,,,,,e,1,0.735,0,5,5,75,1,他,e,,,,,,,,,,,,
,,,,,,,,,,,,,,1,001,2025-02-17_15h12.25.692,IAT(Formal),2021.2.3,Win32,59.88023952,,,,,,,,,,,,,,,,,,,,,,,,,,,,,,,,,,,,,,,,,,,,e,1,0.589,0,6,6,17,1,勇敢,e,,,,,,,,,,,,
,,,,,,,,,,,,,,1,001,2025-02-17_15h12.25.692,IAT(Formal),2021.2.3,Win32,59.88023952,,,,,,,,,,,,,,,,,,,,,,,,,,,,,,,,,,,,,,,,,,,,e,1,0.4927,0,7,7,19,1,机智,e,,,,,,,,,,,,
,,,,,,,,,,,,,,1,001,2025-02-17_15h12.25.692,IAT(Formal),2021.2.3,Win32,59.88023952,,,,,,,,,,,,,,,,,,,,,,,,,,,,,,,,,,,,,,,,,,,,e,1,0.7752,0,8,8,68,1,他人,e,,,,,,,,,,,,
,,,,,,,,,,,,,,1,001,2025-02-17_15h12.25.692,IAT(Formal),2021.2.3,Win32,59.88023952,,,,,,,,,,,,,,,,,,,,,,,,,,,,,,,,,,,,,,,,,,,,e,1,0.6036,0,9,9,69,1,其他,e,,,,,,,,,,,,
,,,,,,,,,,,,,,1,001,2025-02-17_15h12.25.692,IAT(Formal),2021.2.3,Win32,59.88023952,,,,,,,,,,,,,,,,,,,,,,,,,,,,,,,,,,,,,,,,,,,,e,1,0.6901,0,10,10,58,1,他人,e,,,,,,,,,,,,
,,,,,,,,,,,,,,1,001,2025-02-17_15h12.25.692,IAT(Formal),2021.2.3,Win32,59.88023952,,,,,,,,,,,,,,,,,,,,,,,,,,,,,,,,,,,,,,,,,,,,e,1,0.6213,0,11,11,15,1,诚实,e,,,,,,,,,,,,
,,,,,,,,,,,,,,1,001,2025-02-17_15h12.25.692,IAT(Formal),2021.2.3,Win32,59.88023952,,,,,,,,,,,,,,,,,,,,,,,,,,,,,,,,,,,,,,,,,,,,i,1,0.6593,0,12,12,41,1,散漫,i,,,,,,,,,,,,
,,,,,,,,,,,,,,1,001,2025-02-17_15h12.25.692,IAT(Formal),2021.2.3,Win32,59.88023952,,,,,,,,,,,,,,,,,,,,,,,,,,,,,,,,,,,,,,,,,,,,i,1,1.3991,0,13,13,30,1,卑鄙,i,,,,,,,,,,,,
,,,,,,,,,,,,,,1,001,2025-02-17_15h12.25.692,IAT(Formal),2021.2.3,Win32,59.88023952,,,,,,,,,,,,,,,,,,,,,,,,,,,,,,,,,,,,,,,,,,,,e,0,0.8198,0,14,14,70,1,我,i,,,,,,,,,,,,
,,,,,,,,,,,,,,1,001,2025-02-17_15h12.25.692,IAT(Formal),2021.2.3,Win32,59.88023952,,,,,,,,,,,,,,,,,,,,,,,,,,,,,,,,,,,,,,,,,,,,i,1,0.6384,0,15,15,0,1,我,i,,,,,,,,,,,,
,,,,,,,,,,,,,,1,001,2025-02-17_15h12.25.692,IAT(Formal),2021.2.3,Win32,59.88023952,,,,,,,,,,,,,,,,,,,,,,,,,,,,,,,,,,,,,,,,,,,,e,0,0.888,0,16,16,33,1,刻薄,i,,,,,,,,,,,,
,,,,,,,,,,,,,,1,001,2025-02-17_15h12.25.692,IAT(Formal),2021.2.3,Win32,59.88023952,,,,,,,,,,,,,,,,,,,,,,,,,,,,,,,,,,,,,,,,,,,,i,1,1.2093,0,17,17,62,1,我们,i,,,,,,,,,,,,
,,,,,,,,,,,,,,1,001,2025-02-17_15h12.25.692,IAT(Formal),2021.2.3,Win32,59.88023952,,,,,,,,,,,,,,,,,,,,,,,,,,,,,,,,,,,,,,,,,,,,e,1,0.6971,0,18,18,16,1,正直,e,,,,,,,,,,,,
,,,,,,,,,,,,,,1,001,2025-02-17_15h12.25.692,IAT(Formal),2021.2.3,Win32,59.88023952,,,,,,,,,,,,,,,,,,,,,,,,,,,,,,,,,,,,,,,,,,,,i,1,1.2603,0,19,19,61,1,我的,i,,,,,,,,,,,,
,,,,,,,,,,,,,,1,001,2025-02-17_15h12.25.692,IAT(Formal),2021.2.3,Win32,59.88023952,,,,,,,,,,,,,,,,,,,,,,,,,,,,,,,,,,,,,,,,,,,,e,1,0.5217,0,20,20,76,1,他们,e,,,,,,,,,,,,
,,,,,,,,,,,,,,1,001,2025-02-17_15h12.25.692,IAT(Formal),2021.2.3,Win32,59.88023952,,,,,,,,,,,,,,,,,,,,,,,,,,,,,,,,,,,,,,,,,,,,i,1,0.675,0,21,21,32,1,愚蠢,i,,,,,,,,,,,,
,,,,,,,,,,,,,,1,001,2025-02-17_15h12.25.692,IAT(Formal),2021.2.3,Win32,59.88023952,,,,,,,,,,,,,,,,,,,,,,,,,,,,,,,,,,,,,,,,,,,,e,1,1.1874,0,22,22,20,1,认真,e,,,,,,,,,,,,
,,,,,,,,,,,,,,1,001,2025-02-17_15h12.25.692,IAT(Formal),2021.2.3,Win32,59.88023952,,,,,,,,,,,,,,,,,,,,,,,,,,,,,,,,,,,,,,,,,,,,i,1,0.6874,0,23,23,40,1,执拗,i,,,,,,,,,,,,
,,,,,,,,,,,,,,1,001,2025-02-17_15h12.25.692,IAT(Formal),2021.2.3,Win32,59.88023952,,,,,,,,,,,,,,,,,,,,,,,,,,,,,,,,,,,,,,,,,,,,i,1,1.209,0,24,24,52,1,我们,i,,,,,,,,,,,,
,,,,,,,,,,,,,,1,001,2025-02-17_15h12.25.692,IAT(Formal),2021.2.3,Win32,59.88023952,,,,,,,,,,,,,,,,,,,,,,,,,,,,,,,,,,,,,,,,,,,,e,0,1.137,0,25,25,44,1,暴躁,i,,,,,,,,,,,,
,,,,,,,,,,,,,,1,001,2025-02-17_15h12.25.692,IAT(Formal),2021.2.3,Win32,59.88023952,,,,,,,,,,,,,,,,,,,,,,,,,,,,,,,,,,,,,,,,,,,,i,1,1.3169,0,26,26,36,1,自卑,i,,,,,,,,,,,,
,,,,,,,,,,,,,,1,001,2025-02-17_15h12.25.692,IAT(Formal),2021.2.3,Win32,59.88023952,,,,,,,,,,,,,,,,,,,,,,,,,,,,,,,,,,,,,,,,,,,,e,1,0.7236,0,27,27,12,1,聪明,e,,,,,,,,,,,,
,,,,,,,,,,,,,,1,001,2025-02-17_15h12.25.692,IAT(Formal),2021.2.3,Win32,59.88023952,,,,,,,,,,,,,,,,,,,,,,,,,,,,,,,,,,,,,,,,,,,,i,1,0.8609,0,28,28,71,1,我的,i,,,,,,,,,,,,
,,,,,,,,,,,,,,1,001,2025-02-17_15h12.25.692,IAT(Formal),2021.2.3,Win32,59.88023952,,,,,,,,,,,,,,,,,,,,,,,,,,,,,,,,,,,,,,,,,,,,e,0,1.0189,0,29,29,46,1,野蛮,i,,,,,,,,,,,,
,,,,,,,,,,,,,,1,001,2025-02-17_15h12.25.692,IAT(Formal),2021.2.3,Win32,59.88023952,,,,,,,,,,,,,,,,,,,,,,,,,,,,,,,,,,,,,,,,,,,,e,1,0.9559,0,30,30,55,1,他,e,,,,,,,,,,,,
,,,,,,,,,,,,,,1,001,2025-02-17_15h12.25.692,IAT(Formal),2021.2.3,Win32,59.88023952,,,,,,,,,,,,,,,,,,,,,,,,,,,,,,,,,,,,,,,,,,,,i,0,0.6916,0,31,31,66,1,他们,e,,,,,,,,,,,,
,,,,,,,,,,,,,,1,001,2025-02-17_15h12.25.692,IAT(Formal),2021.2.3,Win32,59.88023952,,,,,,,,,,,,,,,,,,,,,,,,,,,,,,,,,,,,,,,,,,,,e,1,1.0009,0,32,32,23,1,公正,e,,,,,,,,,,,,
,,,,,,,,,,,,,,1,001,2025-02-17_15h12.25.692,IAT(Formal),2021.2.3,Win32,59.88023952,,,,,,,,,,,,,,,,,,,,,,,,,,,,,,,,,,,,,,,,,,,,i,1,0.8044,0,33,33,3,1,自己,i,,,,,,,,,,,,
,,,,,,,,,,,,,,1,001,2025-02-17_15h12.25.692,IAT(Formal),2021.2.3,Win32,59.88023952,,,,,,,,,,,,,,,,,,,,,,,,,,,,,,,,,,,,,,,,,,,,e,1,0.7591,0,34,34,11,1,崇高,e,,,,,,,,,,,,
,,,,,,,,,,,,,,1,001,2025-02-17_15h12.25.692,IAT(Formal),2021.2.3,Win32,59.88023952,,,,,,,,,,,,,,,,,,,,,,,,,,,,,,,,,,,,,,,,,,,,i,1,0.6784,0,35,35,31,1,虚伪,i,,,,,,,,,,,,
,,,,,,,,,,,,,,1,001,2025-02-17_15h12.25.692,IAT(Formal),2021.2.3,Win32,59.88023952,,,,,,,,,,,,,,,,,,,,,,,,,,,,,,,,,,,,,,,,,,,,e,0,1.2014,0,36,36,47,1,固执,i,,,,,,,,,,,,
,,,,,,,,,,,,,,1,001,2025-02-17_15h12.25.692,IAT(Formal),2021.2.3,Win32,59.88023952,,,,,,,,,,,,,,,,,,,,,,,,,,,,,,,,,,,,,,,,,,,,e,1,0.6633,0,37,37,13,1,杰出,e,,,,,,,,,,,,
,,,,,,,,,,,,,,1,001,2025-02-17_15h12.25.692,IAT(Formal),2021.2.3,Win32,59.88023952,,,,,,,,,,,,,,,,,,,,,,,,,,,,,,,,,,,,,,,,,,,,i,1,0.6408,0,38,38,50,1,我,i,,,,,,,,,,,,
,,,,,,,,,,,,,,1,001,2025-02-17_15h12.25.692,IAT(Formal),2021.2.3,Win32,59.88023952,,,,,,,,,,,,,,,,,,,,,,,,,,,,,,,,,,,,,,,,,,,,i,1,0.7531,0,39,39,74,1,俺,i,,,,,,,,,,,,
,,,,,,,,,,,,,,1,001,2025-02-17_15h12.25.692,IAT(Formal),2021.2.3,Win32,59.88023952,,,,,,,,,,,,,,,,,,,,,,,,,,,,,,,,,,,,,,,,,,,,e,0,1.0737,0,40,40,38,1,鲁莽,i,,,,,,,,,,,,
,,,,,,,,,,,,,,1,001,2025-02-17_15h12.25.692,IAT(Formal),2021.2.3,Win32,59.88023952,,,,,,,,,,,,,,,,,,,,,,,,,,,,,,,,,,,,,,,,,,,,i,1,0.8709,0,41,41,63,1,自己,i,,,,,,,,,,,,
,,,,,,,,,,,,,,1,001,2025-02-17_15h12.25.692,IAT(Formal),2021.2.3,Win32,59.88023952,,,,,,,,,,,,,,,,,,,,,,,,,,,,,,,,,,,,,,,,,,,,i,1,0.984,0,42,42,4,1,俺,i,,,,,,,,,,,,
,,,,,,,,,,,,,,1,001,2025-02-17_15h12.25.692,IAT(Formal),2021.2.3,Win32,59.88023952,,,,,,,,,,,,,,,,,,,,,,,,,,,,,,,,,,,,,,,,,,,,i,1,1.3519,0,43,43,48,1,轻率,i,,,,,,,,,,,,
,,,,,,,,,,,,,,1,001,2025-02-17_15h12.25.692,IAT(Formal),2021.2.3,Win32,59.88023952,,,,,,,,,,,,,,,,,,,,,,,,,,,,,,,,,,,,,,,,,,,,e,1,1.0028,0,44,44,59,1,其他,e,,,,,,,,,,,,
,,,,,,,,,,,,,,1,001,2025-02-17_15h12.25.692,IAT(Formal),2021.2.3,Win32,59.88023952,,,,,,,,,,,,,,,,,,,,,,,,,,,,,,,,,,,,,,,,,,,,e,1,0.769,0,45,45,29,1,诚恳,e,,,,,,,,,,,,
,,,,,,,,,,,,,,1,001,2025-02-17_15h12.25.692,IAT(Formal),2021.2.3,Win32,59.88023952,,,,,,,,,,,,,,,,,,,,,,,,,,,,,,,,,,,,,,,,,,,,i,0,0.6018,0,46,46,77,1,他的,e,,,,,,,,,,,,
,,,,,,,,,,,,,,1,001,2025-02-17_15h12.25.692,IAT(Formal),2021.2.3,Win32,59.88023952,,,,,,,,,,,,,,,,,,,,,,,,,,,,,,,,,,,,,,,,,,,,i,1,0.7017,0,47,47,51,1,我的,i,,,,,,,,,,,,
,,,,,,,,,,,,,,1,001,2025-02-17_15h12.25.692,IAT(Formal),2021.2.3,Win32,59.88023952,,,,,,,,,,,,,,,,,,,,,,,,,,,,,,,,,,,,,,,,,,,,i,1,1.0433,0,48,48,42,1,凶狠,i,,,,,,,,,,,,
,,,,,,,,,,,,,,1,001,2025-02-17_15h12.25.692,IAT(Formal),2021.2.3,Win32,59.88023952,,,,,,,,,,,,,,,,,,,,,,,,,,,,,,,,,,,,,,,,,,,,i,1,0.5028,0,49,49,39,1,冒失,i,,,,,,,,,,,,
,,,,,,,,,,,,,,1,001,2025-02-17_15h12.25.692,IAT(Formal),2021.2.3,Win32,59.88023952,,,,,,,,,,,,,,,,,,,,,,,,,,,,,,,,,,,,,,,,,,,,e,0,0.538,0,50,50,73,1,自己,i,,,,,,,,,,,,
,,,,,,,,,,,,,,1,001,2025-02-17_15h12.25.692,IAT(Formal),2021.2.3,Win32,59.88023952,,,,,,,,,,,,,,,,,,,,,,,,,,,,,,,,,,,,,,,,,,,,e,1,1.144,0,51,51,28,1,活泼,e,,,,,,,,,,,,
,,,,,,,,,,,,,,1,001,2025-02-17_15h12.25.692,IAT(Formal),2021.2.3,Win32,59.88023952,,,,,,,,,,,,,,,,,,,,,,,,,,,,,,,,,,,,,,,,,,,,i,0,0.789,0,52,52,7,1,他的,e,,,,,,,,,,,,
,,,,,,,,,,,,,,1,001,2025-02-17_15h12.25.692,IAT(Formal),2021.2.3,Win32,59.88023952,,,,,,,,,,,,,,,,,,,,,,,,,,,,,,,,,,,,,,,,,,,,i,1,1.1247,0,53,53,60,1,我,i,,,,,,,,,,,,
,,,,,,,,,,,,,,1,001,2025-02-17_15h12.25.692,IAT(Formal),2021.2.3,Win32,59.88023952,,,,,,,,,,,,,,,,,,,,,,,,,,,,,,,,,,,,,,,,,,,,i,1,1.2167,0,54,54,43,1,自私,i,,,,,,,,,,,,
,,,,,,,,,,,,,,1,001,2025-02-17_15h12.25.692,IAT(Formal),2021.2.3,Win32,59.88023952,,,,,,,,,,,,,,,,,,,,,,,,,,,,,,,,,,,,,,,,,,,,e,1,0.7498,0,55,55,24,1,朴实,e,,,,,,,,,,,,
,,,,,,,,,,,,,,1,001,2025-02-17_15h12.25.692,IAT(Formal),2021.2.3,Win32,59.88023952,,,,,,,,,,,,,,,,,,,,,,,,,,,,,,,,,,,,,,,,,,,,i,0,0.7327,0,56,56,57,1,他的,e,,,,,,,,,,,,
,,,,,,,,,,,,,,1,001,2025-02-17_15h12.25.692,IAT(Formal),2021.2.3,Win32,59.88023952,,,,,,,,,,,,,,,,,,,,,,,,,,,,,,,,,,,,,,,,,,,,i,1,0.9424,0,57,57,45,1,猖狂,i,,,,,,,,,,,,
,,,,,,,,,,,,,,1,001,2025-02-17_15h12.25.692,IAT(Formal),2021.2.3,Win32,59.88023952,,,,,,,,,,,,,,,,,,,,,,,,,,,,,,,,,,,,,,,,,,,,i,0,1.3231,0,58,58,26,1,冷静,e,,,,,,,,,,,,
,,,,,,,,,,,,,,1,001,2025-02-17_15h12.25.692,IAT(Formal),2021.2.3,Win32,59.88023952,,,,,,,,,,,,,,,,,,,,,,,,,,,,,,,,,,,,,,,,,,,,,0,,0,59,59,2,1,我们,i,,,,,,,,,,,,
,,,,,,,,,,,,,,1,001,2025-02-17_15h12.25.692,IAT(Formal),2021.2.3,Win32,59.88023952,,,,,,,,,,,,,,,,,,,,,,,,,,,,,,,,,,,,,,,,,,,,i,1,1.0939,0,60,60,34,1,悲观,i,,,,,,,,,,,,
,,,,,,,,,,,,,,1,001,2025-02-17_15h12.25.692,IAT(Formal),2021.2.3,Win32,59.88023952,,,,,,,,,,,,,,,,,,,,,,,,,,,,,,,,,,,,,,,,,,,,i,1,0.6186,0,61,61,35,1,消极,i,,,,,,,,,,,,
,,,,,,,,,,,,,,1,001,2025-02-17_15h12.25.692,IAT(Formal),2021.2.3,Win32,59.88023952,,,,,,,,,,,,,,,,,,,,,,,,,,,,,,,,,,,,,,,,,,,,e,1,0.583,0,62,62,5,1,他,e,,,,,,,,,,,,
,,,,,,,,,,,,,,1,001,2025-02-17_15h12.25.692,IAT(Formal),2021.2.3,Win32,59.88023952,,,,,,,,,,,,,,,,,,,,,,,,,,,,,,,,,,,,,,,,,,,,e,1,0.4352,0,63,63,78,1,他人,e,,,,,,,,,,,,
,,,,,,,,,,,,,,1,001,2025-02-17_15h12.25.692,IAT(Formal),2021.2.3,Win32,59.88023952,,,,,,,,,,,,,,,,,,,,,,,,,,,,,,,,,,,,,,,,,,,,i,1,0.9215,0,64,64,49,1,下贱,i,,,,,,,,,,,,
,,,,,,,,,,,,,,1,001,2025-02-17_15h12.25.692,IAT(Formal),2021.2.3,Win32,59.88023952,,,,,,,,,,,,,,,,,,,,,,,,,,,,,,,,,,,,,,,,,,,,e,1,0.7355,0,65,65,67,1,他的,e,,,,,,,,,,,,
,,,,,,,,,,,,,,1,001,2025-02-17_15h12.25.692,IAT(Formal),2021.2.3,Win32,59.88023952,,,,,,,,,,,,,,,,,,,,,,,,,,,,,,,,,,,,,,,,,,,,e,1,0.6664,0,66,66,9,1,其他,e,,,,,,,,,,,,
,,,,,,,,,,,,,,1,001,2025-02-17_15h12.25.692,IAT(Formal),2021.2.3,Win32,59.88023952,,,,,,,,,,,,,,,,,,,,,,,,,,,,,,,,,,,,,,,,,,,,e,1,0.4374,0,67,67,8,1,他人,e,,,,,,,,,,,,
,,,,,,,,,,,,,,1,001,2025-02-17_15h12.25.692,IAT(Formal),2021.2.3,Win32,59.88023952,,,,,,,,,,,,,,,,,,,,,,,,,,,,,,,,,,,,,,,,,,,,i,1,0.6048,0,68,68,1,1,我的,i,,,,,,,,,,,,
,,,,,,,,,,,,,,1,001,2025-02-17_15h12.25.692,IAT(Formal),2021.2.3,Win32,59.88023952,,,,,,,,,,,,,,,,,,,,,,,,,,,,,,,,,,,,,,,,,,,,e,1,0.7054,0,69,69,22,1,无私,e,,,,,,,,,,,,
,,,,,,,,,,,,,,1,001,2025-02-17_15h12.25.692,IAT(Formal),2021.2.3,Win32,59.88023952,,,,,,,,,,,,,,,,,,,,,,,,,,,,,,,,,,,,,,,,,,,,i,1,0.9682,0,70,70,72,1,我们,i,,,,,,,,,,,,
,,,,,,,,,,,,,,1,001,2025-02-17_15h12.25.692,IAT(Formal),2021.2.3,Win32,59.88023952,,,,,,,,,,,,,,,,,,,,,,,,,,,,,,,,,,,,,,,,,,,,e,1,0.7052,0,71,71,65,1,他,e,,,,,,,,,,,,
,,,,,,,,,,,,,,1,001,2025-02-17_15h12.25.692,IAT(Formal),2021.2.3,Win32,59.88023952,,,,,,,,,,,,,,,,,,,,,,,,,,,,,,,,,,,,,,,,,,,,e,1,0.7499,0,72,72,18,1,勤奋,e,,,,,,,,,,,,
,,,,,,,,,,,,,,1,001,2025-02-17_15h12.25.692,IAT(Formal),2021.2.3,Win32,59.88023952,,,,,,,,,,,,,,,,,,,,,,,,,,,,,,,,,,,,,,,,,,,,e,1,0.5011,0,73,73,21,1,稳重,e,,,,,,,,,,,,
,,,,,,,,,,,,,,1,001,2025-02-17_15h12.25.692,IAT(Formal),2021.2.3,Win32,59.88023952,,,,,,,,,,,,,,,,,,,,,,,,,,,,,,,,,,,,,,,,,,,,i,1,0.6453,0,74,74,53,1,自己,i,,,,,,,,,,,,
,,,,,,,,,,,,,,1,001,2025-02-17_15h12.25.692,IAT(Formal),2021.2.3,Win32,59.88023952,,,,,,,,,,,,,,,,,,,,,,,,,,,,,,,,,,,,,,,,,,,,e,1,0.5717,0,75,75,56,1,他们,e,,,,,,,,,,,,
,,,,,,,,,,,,,,1,001,2025-02-17_15h12.25.692,IAT(Formal),2021.2.3,Win32,59.88023952,,,,,,,,,,,,,,,,,,,,,,,,,,,,,,,,,,,,,,,,,,,,e,1,0.4935,0,76,76,79,1,其他,e,,,,,,,,,,,,
,,,,,,,,,,,,,,1,001,2025-02-17_15h12.25.692,IAT(Formal),2021.2.3,Win32,59.88023952,,,,,,,,,,,,,,,,,,,,,,,,,,,,,,,,,,,,,,,,,,,,i,0,0.676,0,77,77,14,1,乐观,e,,,,,,,,,,,,
,,,,,,,,,,,,,,1,001,2025-02-17_15h12.25.692,IAT(Formal),2021.2.3,Win32,59.88023952,,,,,,,,,,,,,,,,,,,,,,,,,,,,,,,,,,,,,,,,,,,,e,1,0.7623,0,78,78,6,1,他们,e,,,,,,,,,,,,
,,,,,,,,,,,,,,1,001,2025-02-17_15h12.25.692,IAT(Formal),2021.2.3,Win32,59.88023952,,,,,,,,,,,,,,,,,,,,,,,,,,,,,,,,,,,,,,,,,,,,i,1,0.6756,0,79,79,64,1,俺,i,,,,,,,,,,,,
,,,,,,,,,,,,,,1,001,2025-02-17_15h12.25.692,IAT(Formal),2021.2.3,Win32,59.88023952,,,,,,,,,,,,,,,,,,,,,,,,,,,,,,,,,,,,,,,,,,,,,,,,,,,,他的,e,space,3.7723,e,1,0.6661,0,0,0,57,1,,
,,,,,,,,,,,,,,1,001,2025-02-17_15h12.25.692,IAT(Formal),2021.2.3,Win32,59.88023952,,,,,,,,,,,,,,,,,,,,,,,,,,,,,,,,,,,,,,,,,,,,,,,,,,,,他的,e,,,e,1,0.4295,0,1,1,7,1,,
,,,,,,,,,,,,,,1,001,2025-02-17_15h12.25.692,IAT(Formal),2021.2.3,Win32,59.88023952,,,,,,,,,,,,,,,,,,,,,,,,,,,,,,,,,,,,,,,,,,,,,,,,,,,,虚伪,i,,,e,0,0.5327,0,2,2,31,1,,
,,,,,,,,,,,,,,1,001,2025-02-17_15h12.25.692,IAT(Formal),2021.2.3,Win32,59.88023952,,,,,,,,,,,,,,,,,,,,,,,,,,,,,,,,,,,,,,,,,,,,,,,,,,,,卑鄙,i,,,i,1,0.6437,0,3,3,30,1,,
,,,,,,,,,,,,,,1,001,2025-02-17_15h12.25.692,IAT(Formal),2021.2.3,Win32,59.88023952,,,,,,,,,,,,,,,,,,,,,,,,,,,,,,,,,,,,,,,,,,,,,,,,,,,,鲁莽,i,,,i,1,0.4844,0,4,4,38,1,,
,,,,,,,,,,,,,,1,001,2025-02-17_15h12.25.692,IAT(Formal),2021.2.3,Win32,59.88023952,,,,,,,,,,,,,,,,,,,,,,,,,,,,,,,,,,,,,,,,,,,,,,,,,,,,我的,i,,,e,0,0.6377,0,5,5,61,1,,
,,,,,,,,,,,,,,1,001,2025-02-17_15h12.25.692,IAT(Formal),2021.2.3,Win32,59.88023952,,,,,,,,,,,,,,,,,,,,,,,,,,,,,,,,,,,,,,,,,,,,,,,,,,,,勤奋,e,,,e,1,1.1117,0,6,6,18,1,,
,,,,,,,,,,,,,,1,001,2025-02-17_15h12.25.692,IAT(Formal),2021.2.3,Win32,59.88023952,,,,,,,,,,,,,,,,,,,,,,,,,,,,,,,,,,,,,,,,,,,,,,,,,,,,自己,i,,,i,1,0.6016,0,7,7,73,1,,
,,,,,,,,,,,,,,1,001,2025-02-17_15h12.25.692,IAT(Formal),2021.2.3,Win32,59.88023952,,,,,,,,,,,,,,,,,,,,,,,,,,,,,,,,,,,,,,,,,,,,,,,,,,,,冷静,e,,,i,0,0.9434,0,8,8,26,1,,
,,,,,,,,,,,,,,1,001,2025-02-17_15h12.25.692,IAT(Formal),2021.2.3,Win32,59.88023952,,,,,,,,,,,,,,,,,,,,,,,,,,,,,,,,,,,,,,,,,,,,,,,,,,,,我,i,,,i,1,0.9588,0,9,9,70,1,,
,,,,,,,,,,,,,,1,001,2025-02-17_15h12.25.692,IAT(Formal),2021.2.3,Win32,59.88023952,,,,,,,,,,,,,,,,,,,,,,,,,,,,,,,,,,,,,,,,,,,,,,,,,,,,我的,i,,,i,1,0.6455,0,10,10,71,1,,
,,,,,,,,,,,,,,1,001,2025-02-17_15h12.25.692,IAT(Formal),2021.2.3,Win32,59.88023952,,,,,,,,,,,,,,,,,,,,,,,,,,,,,,,,,,,,,,,,,,,,,,,,,,,,他,e,,,e,1,0.7865,0,11,11,65,1,,
,,,,,,,,,,,,,,1,001,2025-02-17_15h12.25.692,IAT(Formal),2021.2.3,Win32,59.88023952,,,,,,,,,,,,,,,,,,,,,,,,,,,,,,,,,,,,,,,,,,,,,,,,,,,,杰出,e,,,e,1,0.8537,0,12,12,13,1,,
,,,,,,,,,,,,,,1,001,2025-02-17_15h12.25.692,IAT(Formal),2021.2.3,Win32,59.88023952,,,,,,,,,,,,,,,,,,,,,,,,,,,,,,,,,,,,,,,,,,,,,,,,,,,,他们,e,,,i,0,1.1085,0,13,13,76,1,,
,,,,,,,,,,,,,,1,001,2025-02-17_15h12.25.692,IAT(Formal),2021.2.3,Win32,59.88023952,,,,,,,,,,,,,,,,,,,,,,,,,,,,,,,,,,,,,,,,,,,,,,,,,,,,无私,e,,,e,1,1.2072,0,14,14,22,1,,
,,,,,,,,,,,,,,1,001,2025-02-17_15h12.25.692,IAT(Formal),2021.2.3,Win32,59.88023952,,,,,,,,,,,,,,,,,,,,,,,,,,,,,,,,,,,,,,,,,,,,,,,,,,,,自私,i,,,i,1,0.6385,0,15,15,43,1,,
,,,,,,,,,,,,,,1,001,2025-02-17_15h12.25.692,IAT(Formal),2021.2.3,Win32,59.88023952,,,,,,,,,,,,,,,,,,,,,,,,,,,,,,,,,,,,,,,,,,,,,,,,,,,,自己,i,,,i,1,0.8168,0,16,16,53,1,,
,,,,,,,,,,,,,,1,001,2025-02-17_15h12.25.692,IAT(Formal),2021.2.3,Win32,59.88023952,,,,,,,,,,,,,,,,,,,,,,,,,,,,,,,,,,,,,,,,,,,,,,,,,,,,俺,i,,,i,1,0.5096,0,17,17,74,1,,
,,,,,,,,,,,,,,1,001,2025-02-17_15h12.25.692,IAT(Formal),2021.2.3,Win32,59.88023952,,,,,,,,,,,,,,,,,,,,,,,,,,,,,,,,,,,,,,,,,,,,,,,,,,,,我们,i,,,i,1,0.4395,0,18,18,62,1,,
,,,,,,,,,,,,,,1,001,2025-02-17_15h12.25.692,IAT(Formal),2021.2.3,Win32,59.88023952,,,,,,,,,,,,,,,,,,,,,,,,,,,,,,,,,,,,,,,,,,,,,,,,,,,,正直,e,,,e,1,0.7775,0,19,19,16,1,,
,,,,,,,,,,,,,,1,001,2025-02-17_15h12.25.692,IAT(Formal),2021.2.3,Win32,59.88023952,,,,,,,,,,,,,,,,,,,,,,,,,,,,,,,,,,,,,,,,,,,,,,,,,,,,机智,e,,,e,1,0.5555,0,20,20,19,1,,
,,,,,,,,,,,,,,1,001,2025-02-17_15h12.25.692,IAT(Formal),2021.2.3,Win32,59.88023952,,,,,,,,,,,,,,,,,,,,,,,,,,,,,,,,,,,,,,,,,,,,,,,,,,,,暴躁,i,,,i,1,0.6139,0,21,21,44,1,,
,,,,,,,,,,,,,,1,001,2025-02-17_15h12.25.692,IAT(Formal),2021.2.3,Win32,59.88023952,,,,,,,,,,,,,,,,,,,,,,,,,,,,,,,,,,,,,,,,,,,,,,,,,,,,我的,i,,,i,1,0.7002,0,22,22,51,1,,
,,,,,,,,,,,,,,1,001,2025-02-17_15h12.25.692,IAT(Formal),2021.2.3,Win32,59.88023952,,,,,,,,,,,,,,,,,,,,,,,,,,,,,,,,,,,,,,,,,,,,,,,,,,,,诚恳,e,,,i,0,0.6211,0,23,23,29,1,,
,,,,,,,,,,,,,,1,001,2025-02-17_15h12.25.692,IAT(Formal),2021.2.3,Win32,59.88023952,,,,,,,,,,,,,,,,,,,,,,,,,,,,,,,,,,,,,,,,,,,,,,,,,,,,他,e,,,e,1,0.745,0,24,24,5,1,,
,,,,,,,,,,,,,,1,001,2025-02-17_15h12.25.692,IAT(Formal),2021.2.3,Win32,59.88023952,,,,,,,,,,,,,,,,,,,,,,,,,,,,,,,,,,,,,,,,,,,,,,,,,,,,冒失,i,,,i,1,1.1276,0,25,25,39,1,,
,,,,,,,,,,,,,,1,001,2025-02-17_15h12.25.692,IAT(Formal),2021.2.3,Win32,59.88023952,,,,,,,,,,,,,,,,,,,,,,,,,,,,,,,,,,,,,,,,,,,,,,,,,,,,俺,i,,,i,1,0.6051,0,26,26,4,1,,
,,,,,,,,,,,,,,1,001,2025-02-17_15h12.25.692,IAT(Formal),2021.2.3,Win32,59.88023952,,,,,,,,,,,,,,,,,,,,,,,,,,,,,,,,,,,,,,,,,,,,,,,,,,,,我,i,,,i,1,0.3898,0,27,27,60,1,,
,,,,,,,,,,,,,,1,001,2025-02-17_15h12.25.692,IAT(Formal),2021.2.3,Win32,59.88023952,,,,,,,,,,,,,,,,,,,,,,,,,,,,,,,,,,,,,,,,,,,,,,,,,,,,优秀,e,,,e,1,0.8021,0,28,28,10,1,,
,,,,,,,,,,,,,,1,001,2025-02-17_15h12.25.692,IAT(Formal),2021.2.3,Win32,59.88023952,,,,,,,,,,,,,,,,,,,,,,,,,,,,,,,,,,,,,,,,,,,,,,,,,,,,俺,i,,,i,1,1.2688,0,29,29,54,1,,
,,,,,,,,,,,,,,1,001,2025-02-17_15h12.25.692,IAT(Formal),2021.2.3,Win32,59.88023952,,,,,,,,,,,,,,,,,,,,,,,,,,,,,,,,,,,,,,,,,,,,,,,,,,,,热情,e,,,e,1,0.8219,0,30,30,27,1,,
,,,,,,,,,,,,,,1,001,2025-02-17_15h12.25.692,IAT(Formal),2021.2.3,Win32,59.88023952,,,,,,,,,,,,,,,,,,,,,,,,,,,,,,,,,,,,,,,,,,,,,,,,,,,,愚蠢,i,,,i,1,0.8878,0,31,31,32,1,,
,,,,,,,,,,,,,,1,001,2025-02-17_15h12.25.692,IAT(Formal),2021.2.3,Win32,59.88023952,,,,,,,,,,,,,,,,,,,,,,,,,,,,,,,,,,,,,,,,,,,,,,,,,,,,自卑,i,,,i,1,0.4677,0,32,32,36,1,,
,,,,,,,,,,,,,,1,001,2025-02-17_15h12.25.692,IAT(Formal),2021.2.3,Win32,59.88023952,,,,,,,,,,,,,,,,,,,,,,,,,,,,,,,,,,,,,,,,,,,,,,,,,,,,我,i,,,i,1,0.5193,0,33,33,50,1,,
,,,,,,,,,,,,,,1,001,2025-02-17_15h12.25.692,IAT(Formal),2021.2.3,Win32,59.88023952,,,,,,,,,,,,,,,,,,,,,,,,,,,,,,,,,,,,,,,,,,,,,,,,,,,,傲慢,i,,,i,1,0.7694,0,34,34,37,1,,
,,,,,,,,,,,,,,1,001,2025-02-17_15h12.25.692,IAT(Formal),2021.2.3,Win32,59.88023952,,,,,,,,,,,,,,,,,,,,,,,,,,,,,,,,,,,,,,,,,,,,,,,,,,,,崇高,e,,,e,1,0.5327,0,35,35,11,1,,
,,,,,,,,,,,,,,1,001,2025-02-17_15h12.25.692,IAT(Formal),2021.2.3,Win32,59.88023952,,,,,,,,,,,,,,,,,,,,,,,,,,,,,,,,,,,,,,,,,,,,,,,,,,,,猖狂,i,,,i,1,0.5365,0,36,36,45,1,,
,,,,,,,,,,,,,,1,001,2025-02-17_15h12.25.692,IAT(Formal),2021.2.3,Win32,59.88023952,,,,,,,,,,,,,,,,,,,,,,,,,,,,,,,,,,,,,,,,,,,,,,,,,,,,悲观,i,,,i,1,0.5748,0,37,37,34,1,,
,,,,,,,,,,,,,,1,001,2025-02-17_15h12.25.692,IAT(Formal),2021.2.3,Win32,59.88023952,,,,,,,,,,,,,,,,,,,,,,,,,,,,,,,,,,,,,,,,,,,,,,,,,,,,他的,e,,,e,1,0.7406,0,38,38,77,1,,
,,,,,,,,,,,,,,1,001,2025-02-17_15h12.25.692,IAT(Formal),2021.2.3,Win32,59.88023952,,,,,,,,,,,,,,,,,,,,,,,,,,,,,,,,,,,,,,,,,,,,,,,,,,,,我的,i,,,i,1,0.6892,0,39,39,1,1,,
,,,,,,,,,,,,,,1,001,2025-02-17_15h12.25.692,IAT(Formal),2021.2.3,Win32,59.88023952,,,,,,,,,,,,,,,,,,,,,,,,,,,,,,,,,,,,,,,,,,,,,,,,,,,,野蛮,i,,,i,1,0.5682,0,40,40,46,1,,
,,,,,,,,,,,,,,1,001,2025-02-17_15h12.25.692,IAT(Formal),2021.2.3,Win32,59.88023952,,,,,,,,,,,,,,,,,,,,,,,,,,,,,,,,,,,,,,,,,,,,,,,,,,,,消极,i,,,i,1,0.6178,0,41,41,35,1,,
,,,,,,,,,,,,,,1,001,2025-02-17_15h12.25.692,IAT(Formal),2021.2.3,Win32,59.88023952,,,,,,,,,,,,,,,,,,,,,,,,,,,,,,,,,,,,,,,,,,,,,,,,,,,,他,e,,,e,1,0.6716,0,42,42,75,1,,
,,,,,,,,,,,,,,1,001,2025-02-17_15h12.25.692,IAT(Formal),2021.2.3,Win32,59.88023952,,,,,,,,,,,,,,,,,,,,,,,,,,,,,,,,,,,,,,,,,,,,,,,,,,,,他们,e,,,e,1,0.6884,0,43,43,66,1,,
,,,,,,,,,,,,,,1,001,2025-02-17_15h12.25.692,IAT(Formal),2021.2.3,Win32,59.88023952,,,,,,,,,,,,,,,,,,,,,,,,,,,,,,,,,,,,,,,,,,,,,,,,,,,,散漫,i,,,i,1,0.6316,0,44,44,41,1,,
,,,,,,,,,,,,,,1,001,2025-02-17_15h12.25.692,IAT(Formal),2021.2.3,Win32,59.88023952,,,,,,,,,,,,,,,,,,,,,,,,,,,,,,,,,,,,,,,,,,,,,,,,,,,,固执,i,,,i,1,1.0562,0,45,45,47,1,,
,,,,,,,,,,,,,,1,001,2025-02-17_15h12.25.692,IAT(Formal),2021.2.3,Win32,59.88023952,,,,,,,,,,,,,,,,,,,,,,,,,,,,,,,,,,,,,,,,,,,,,,,,,,,,我们,i,,,i,1,0.9561,0,46,46,52,1,,
,,,,,,,,,,,,,,1,001,2025-02-17_15h12.25.692,IAT(Formal),2021.2.3,Win32,59.88023952,,,,,,,,,,,,,,,,,,,,,,,,,,,,,,,,,,,,,,,,,,,,,,,,,,,,聪明,e,,,e,1,0.8016,0,47,47,12,1,,
,,,,,,,,,,,,,,1,001,2025-02-17_15h12.25.692,IAT(Formal),2021.2.3,Win32,59.88023952,,,,,,,,,,,,,,,,,,,,,,,,,,,,,,,,,,,,,,,,,,,,,,,,,,,,我们,i,,,i,1,0.5847,0,48,48,72,1,,
,,,,,,,,,,,,,,1,001,2025-02-17_15h12.25.692,IAT(Formal),2021.2.3,Win32,59.88023952,,,,,,,,,,,,,,,,,,,,,,,,,,,,,,,,,,,,,,,,,,,,,,,,,,,,他,e,,,e,1,0.7525,0,49,49,55,1,,
,,,,,,,,,,,,,,1,001,2025-02-17_15h12.25.692,IAT(Formal),2021.2.3,Win32,59.88023952,,,,,,,,,,,,,,,,,,,,,,,,,,,,,,,,,,,,,,,,,,,,,,,,,,,,他人,e,,,e,1,0.4171,0,50,50,78,1,,
,,,,,,,,,,,,,,1,001,2025-02-17_15h12.25.692,IAT(Formal),2021.2.3,Win32,59.88023952,,,,,,,,,,,,,,,,,,,,,,,,,,,,,,,,,,,,,,,,,,,,,,,,,,,,刻薄,i,,,i,1,0.483,0,51,51,33,1,,
,,,,,,,,,,,,,,1,001,2025-02-17_15h12.25.692,IAT(Formal),2021.2.3,Win32,59.88023952,,,,,,,,,,,,,,,,,,,,,,,,,,,,,,,,,,,,,,,,,,,,,,,,,,,,活泼,e,,,e,1,0.7715,0,52,52,28,1,,
,,,,,,,,,,,,,,1,001,2025-02-17_15h12.25.692,IAT(Formal),2021.2.3,Win32,59.88023952,,,,,,,,,,,,,,,,,,,,,,,,,,,,,,,,,,,,,,,,,,,,,,,,,,,,稳重,e,,,e,1,0.5779,0,53,53,21,1,,
,,,,,,,,,,,,,,1,001,2025-02-17_15h12.25.692,IAT(Formal),2021.2.3,Win32,59.88023952,,,,,,,,,,,,,,,,,,,,,,,,,,,,,,,,,,,,,,,,,,,,,,,,,,,,下贱,i,,,i,1,0.6408,0,54,54,49,1,,
,,,,,,,,,,,,,,1,001,2025-02-17_15h12.25.692,IAT(Formal),2021.2.3,Win32,59.88023952,,,,,,,,,,,,,,,,,,,,,,,,,,,,,,,,,,,,,,,,,,,,,,,,,,,,自己,i,,,i,1,0.8648,0,55,55,63,1,,
,,,,,,,,,,,,,,1,001,2025-02-17_15h12.25.692,IAT(Formal),2021.2.3,Win32,59.88023952,,,,,,,,,,,,,,,,,,,,,,,,,,,,,,,,,,,,,,,,,,,,,,,,,,,,乐观,e,,,e,1,0.6687,0,56,56,14,1,,
,,,,,,,,,,,,,,1,001,2025-02-17_15h12.25.692,IAT(Formal),2021.2.3,Win32,59.88023952,,,,,,,,,,,,,,,,,,,,,,,,,,,,,,,,,,,,,,,,,,,,,,,,,,,,其他,e,,,e,1,0.9377,0,57,57,69,1,,
,,,,,,,,,,,,,,1,001,2025-02-17_15h12.25.692,IAT(Formal),2021.2.3,Win32,59.88023952,,,,,,,,,,,,,,,,,,,,,,,,,,,,,,,,,,,,,,,,,,,,,,,,,,,,其他,e,,,e,1,0.4325,0,58,58,79,1,,
,,,,,,,,,,,,,,1,001,2025-02-17_15h12.25.692,IAT(Formal),2021.2.3,Win32,59.88023952,,,,,,,,,,,,,,,,,,,,,,,,,,,,,,,,,,,,,,,,,,,,,,,,,,,,诚实,e,,,e,1,0.6999,0,59,59,15,1,,
,,,,,,,,,,,,,,1,001,2025-02-17_15h12.25.692,IAT(Formal),2021.2.3,Win32,59.88023952,,,,,,,,,,,,,,,,,,,,,,,,,,,,,,,,,,,,,,,,,,,,,,,,,,,,俺,i,,,i,1,0.6978,0,60,60,64,1,,
,,,,,,,,,,,,,,1,001,2025-02-17_15h12.25.692,IAT(Formal),2021.2.3,Win32,59.88023952,,,,,,,,,,,,,,,,,,,,,,,,,,,,,,,,,,,,,,,,,,,,,,,,,,,,轻率,i,,,i,1,0.9886,0,61,61,48,1,,
,,,,,,,,,,,,,,1,001,2025-02-17_15h12.25.692,IAT(Formal),2021.2.3,Win32,59.88023952,,,,,,,,,,,,,,,,,,,,,,,,,,,,,,,,,,,,,,,,,,,,,,,,,,,,认真,e,,,e,1,0.6849,0,62,62,20,1,,
,,,,,,,,,,,,,,1,001,2025-02-17_15h12.25.692,IAT(Formal),2021.2.3,Win32,59.88023952,,,,,,,,,,,,,,,,,,,,,,,,,,,,,,,,,,,,,,,,,,,,,,,,,,,,公正,e,,,e,1,0.5033,0,63,63,23,1,,
,,,,,,,,,,,,,,1,001,2025-02-17_15h12.25.692,IAT(Formal),2021.2.3,Win32,59.88023952,,,,,,,,,,,,,,,,,,,,,,,,,,,,,,,,,,,,,,,,,,,,,,,,,,,,他人,e,,,e,1,0.7046,0,64,64,8,1,,
,,,,,,,,,,,,,,1,001,2025-02-17_15h12.25.692,IAT(Formal),2021.2.3,Win32,59.88023952,,,,,,,,,,,,,,,,,,,,,,,,,,,,,,,,,,,,,,,,,,,,,,,,,,,,朴实,e,,,e,1,0.6871,0,65,65,24,1,,
,,,,,,,,,,,,,,1,001,2025-02-17_15h12.25.692,IAT(Formal),2021.2.3,Win32,59.88023952,,,,,,,,,,,,,,,,,,,,,,,,,,,,,,,,,,,,,,,,,,,,,,,,,,,,他们,e,,,e,1,0.6844,0,66,66,6,1,,
,,,,,,,,,,,,,,1,001,2025-02-17_15h12.25.692,IAT(Formal),2021.2.3,Win32,59.88023952,,,,,,,,,,,,,,,,,,,,,,,,,,,,,,,,,,,,,,,,,,,,,,,,,,,,凶狠,i,,,i,1,1.3271,0,67,67,42,1,,
,,,,,,,,,,,,,,1,001,2025-02-17_15h12.25.692,IAT(Formal),2021.2.3,Win32,59.88023952,,,,,,,,,,,,,,,,,,,,,,,,,,,,,,,,,,,,,,,,,,,,,,,,,,,,他的,e,,,e,1,0.5676,0,68,68,67,1,,
,,,,,,,,,,,,,,1,001,2025-02-17_15h12.25.692,IAT(Formal),2021.2.3,Win32,59.88023952,,,,,,,,,,,,,,,,,,,,,,,,,,,,,,,,,,,,,,,,,,,,,,,,,,,,他人,e,,,e,1,0.6685,0,69,69,58,1,,
,,,,,,,,,,,,,,1,001,2025-02-17_15h12.25.692,IAT(Formal),2021.2.3,Win32,59.88023952,,,,,,,,,,,,,,,,,,,,,,,,,,,,,,,,,,,,,,,,,,,,,,,,,,,,执拗,i,,,e,0,0.8714,0,70,70,40,1,,
,,,,,,,,,,,,,,1,001,2025-02-17_15h12.25.692,IAT(Formal),2021.2.3,Win32,59.88023952,,,,,,,,,,,,,,,,,,,,,,,,,,,,,,,,,,,,,,,,,,,,,,,,,,,,其他,e,,,e,1,0.6234,0,71,71,59,1,,
,,,,,,,,,,,,,,1,001,2025-02-17_15h12.25.692,IAT(Formal),2021.2.3,Win32,59.88023952,,,,,,,,,,,,,,,,,,,,,,,,,,,,,,,,,,,,,,,,,,,,,,,,,,,,其他,e,,,e,1,0.4689,0,72,72,9,1,,
,,,,,,,,,,,,,,1,001,2025-02-17_15h12.25.692,IAT(Formal),2021.2.3,Win32,59.88023952,,,,,,,,,,,,,,,,,,,,,,,,,,,,,,,,,,,,,,,,,,,,,,,,,,,,他们,e,,,e,1,0.5428,0,73,73,56,1,,
,,,,,,,,,,,,,,1,001,2025-02-17_15h12.25.692,IAT(Formal),2021.2.3,Win32,59.88023952,,,,,,,,,,,,,,,,,,,,,,,,,,,,,,,,,,,,,,,,,,,,,,,,,,,,自己,i,,,i,1,0.571,0,74,74,3,1,,
,,,,,,,,,,,,,,1,001,2025-02-17_15h12.25.692,IAT(Formal),2021.2.3,Win32,59.88023952,,,,,,,,,,,,,,,,,,,,,,,,,,,,,,,,,,,,,,,,,,,,,,,,,,,,细腻,e,,,e,1,0.7514,0,75,75,25,1,,
,,,,,,,,,,,,,,1,001,2025-02-17_15h12.25.692,IAT(Formal),2021.2.3,Win32,59.88023952,,,,,,,,,,,,,,,,,,,,,,,,,,,,,,,,,,,,,,,,,,,,,,,,,,,,我,i,,,i,1,0.8028,0,76,76,0,1,,
,,,,,,,,,,,,,,1,001,2025-02-17_15h12.25.692,IAT(Formal),2021.2.3,Win32,59.88023952,,,,,,,,,,,,,,,,,,,,,,,,,,,,,,,,,,,,,,,,,,,,,,,,,,,,他人,e,,,e,1,0.6328,0,77,77,68,1,,
,,,,,,,,,,,,,,1,001,2025-02-17_15h12.25.692,IAT(Formal),2021.2.3,Win32,59.88023952,,,,,,,,,,,,,,,,,,,,,,,,,,,,,,,,,,,,,,,,,,,,,,,,,,,,我们,i,,,i,1,0.6743,0,78,78,2,1,,
,,,,,,,,,,,,,,1,001,2025-02-17_15h12.25.692,IAT(Formal),2021.2.3,Win32,59.88023952,,,,,,,,,,,,,,,,,,,,,,,,,,,,,,,,,,,,,,,,,,,,,,,,,,,,勇敢,e,,,e,1,0.7989,0,79,79,17,1,,
,,,,,,,,,,,,,,1,001,2025-02-17_15h12.25.692,IAT(Formal),2021.2.3,Win32,59.88023952,,,,,,,,,,,,,,,,,,,,,,,,,,,,,,,,,,,,,,,,,,,,,,,,,,,,杰出,e,,,e,1,0.5702,1,0,80,13,1,,
,,,,,,,,,,,,,,1,001,2025-02-17_15h12.25.692,IAT(Formal),2021.2.3,Win32,59.88023952,,,,,,,,,,,,,,,,,,,,,,,,,,,,,,,,,,,,,,,,,,,,,,,,,,,,我们,i,,,i,1,1.1101,1,1,81,72,1,,
,,,,,,,,,,,,,,1,001,2025-02-17_15h12.25.692,IAT(Formal),2021.2.3,Win32,59.88023952,,,,,,,,,,,,,,,,,,,,,,,,,,,,,,,,,,,,,,,,,,,,,,,,,,,,他人,e,,,e,1,0.5794,1,2,82,58,1,,
,,,,,,,,,,,,,,1,001,2025-02-17_15h12.25.692,IAT(Formal),2021.2.3,Win32,59.88023952,,,,,,,,,,,,,,,,,,,,,,,,,,,,,,,,,,,,,,,,,,,,,,,,,,,,散漫,i,,,i,1,0.7161,1,3,83,41,1,,
,,,,,,,,,,,,,,1,001,2025-02-17_15h12.25.692,IAT(Formal),2021.2.3,Win32,59.88023952,,,,,,,,,,,,,,,,,,,,,,,,,,,,,,,,,,,,,,,,,,,,,,,,,,,,虚伪,i,,,i,1,0.554,1,4,84,31,1,,
,,,,,,,,,,,,,,1,001,2025-02-17_15h12.25.692,IAT(Formal),2021.2.3,Win32,59.88023952,,,,,,,,,,,,,,,,,,,,,,,,,,,,,,,,,,,,,,,,,,,,,,,,,,,,其他,e,,,e,1,0.6509,1,5,85,69,1,,
,,,,,,,,,,,,,,1,001,2025-02-17_15h12.25.692,IAT(Formal),2021.2.3,Win32,59.88023952,,,,,,,,,,,,,,,,,,,,,,,,,,,,,,,,,,,,,,,,,,,,,,,,,,,,活泼,e,,,e,1,0.6484,1,6,86,28,1,,
,,,,,,,,,,,,,,1,001,2025-02-17_15h12.25.692,IAT(Formal),2021.2.3,Win32,59.88023952,,,,,,,,,,,,,,,,,,,,,,,,,,,,,,,,,,,,,,,,,,,,,,,,,,,,野蛮,i,,,i,1,0.77,1,7,87,46,1,,
,,,,,,,,,,,,,,1,001,2025-02-17_15h12.25.692,IAT(Formal),2021.2.3,Win32,59.88023952,,,,,,,,,,,,,,,,,,,,,,,,,,,,,,,,,,,,,,,,,,,,,,,,,,,,他的,e,,,e,1,0.7826,1,8,88,77,1,,
,,,,,,,,,,,,,,1,001,2025-02-17_15h12.25.692,IAT(Formal),2021.2.3,Win32,59.88023952,,,,,,,,,,,,,,,,,,,,,,,,,,,,,,,,,,,,,,,,,,,,,,,,,,,,固执,i,,,i,1,0.7695,1,9,89,47,1,,
,,,,,,,,,,,,,,1,001,2025-02-17_15h12.25.692,IAT(Formal),2021.2.3,Win32,59.88023952,,,,,,,,,,,,,,,,,,,,,,,,,,,,,,,,,,,,,,,,,,,,,,,,,,,,他的,e,,,e,1,0.5834,1,10,90,67,1,,
,,,,,,,,,,,,,,1,001,2025-02-17_15h12.25.692,IAT(Formal),2021.2.3,Win32,59.88023952,,,,,,,,,,,,,,,,,,,,,,,,,,,,,,,,,,,,,,,,,,,,,,,,,,,,我,i,,,i,1,0.5492,1,11,91,0,1,,
,,,,,,,,,,,,,,1,001,2025-02-17_15h12.25.692,IAT(Formal),2021.2.3,Win32,59.88023952,,,,,,,,,,,,,,,,,,,,,,,,,,,,,,,,,,,,,,,,,,,,,,,,,,,,他人,e,,,e,1,0.5886,1,12,92,78,1,,
,,,,,,,,,,,,,,1,001,2025-02-17_15h12.25.692,IAT(Formal),2021.2.3,Win32,59.88023952,,,,,,,,,,,,,,,,,,,,,,,,,,,,,,,,,,,,,,,,,,,,,,,,,,,,他们,e,,,e,1,0.6043,1,13,93,56,1,,
,,,,,,,,,,,,,,1,001,2025-02-17_15h12.25.692,IAT(Formal),2021.2.3,Win32,59.88023952,,,,,,,,,,,,,,,,,,,,,,,,,,,,,,,,,,,,,,,,,,,,,,,,,,,,冒失,i,,,i,1,0.8002,1,14,94,39,1,,
,,,,,,,,,,,,,,1,001,2025-02-17_15h12.25.692,IAT(Formal),2021.2.3,Win32,59.88023952,,,,,,,,,,,,,,,,,,,,,,,,,,,,,,,,,,,,,,,,,,,,,,,,,,,,凶狠,i,,,i,1,0.5866,1,15,95,42,1,,
,,,,,,,,,,,,,,1,001,2025-02-17_15h12.25.692,IAT(Formal),2021.2.3,Win32,59.88023952,,,,,,,,,,,,,,,,,,,,,,,,,,,,,,,,,,,,,,,,,,,,,,,,,,,,鲁莽,i,,,i,1,0.605,1,16,96,38,1,,
,,,,,,,,,,,,,,1,001,2025-02-17_15h12.25.692,IAT(Formal),2021.2.3,Win32,59.88023952,,,,,,,,,,,,,,,,,,,,,,,,,,,,,,,,,,,,,,,,,,,,,,,,,,,,公正,e,,,i,0,0.4703,1,17,97,23,1,,
,,,,,,,,,,,,,,1,001,2025-02-17_15h12.25.692,IAT(Formal),2021.2.3,Win32,59.88023952,,,,,,,,,,,,,,,,,,,,,,,,,,,,,,,,,,,,,,,,,,,,,,,,,,,,自己,i,,,i,1,0.6024,1,18,98,63,1,,
,,,,,,,,,,,,,,1,001,2025-02-17_15h12.25.692,IAT(Formal),2021.2.3,Win32,59.88023952,,,,,,,,,,,,,,,,,,,,,,,,,,,,,,,,,,,,,,,,,,,,,,,,,,,,自己,i,,,i,1,0.5226,1,19,99,73,1,,
,,,,,,,,,,,,,,1,001,2025-02-17_15h12.25.692,IAT(Formal),2021.2.3,Win32,59.88023952,,,,,,,,,,,,,,,,,,,,,,,,,,,,,,,,,,,,,,,,,,,,,,,,,,,,悲观,i,,,i,1,0.706,1,20,100,34,1,,
,,,,,,,,,,,,,,1,001,2025-02-17_15h12.25.692,IAT(Formal),2021.2.3,Win32,59.88023952,,,,,,,,,,,,,,,,,,,,,,,,,,,,,,,,,,,,,,,,,,,,,,,,,,,,我们,i,,,e,0,0.7574,1,21,101,2,1,,
,,,,,,,,,,,,,,1,001,2025-02-17_15h12.25.692,IAT(Formal),2021.2.3,Win32,59.88023952,,,,,,,,,,,,,,,,,,,,,,,,,,,,,,,,,,,,,,,,,,,,,,,,,,,,热情,e,,,e,1,0.7173,1,22,102,27,1,,
,,,,,,,,,,,,,,1,001,2025-02-17_15h12.25.692,IAT(Formal),2021.2.3,Win32,59.88023952,,,,,,,,,,,,,,,,,,,,,,,,,,,,,,,,,,,,,,,,,,,,,,,,,,,,俺,i,,,e,0,0.5367,1,23,103,4,1,,
,,,,,,,,,,,,,,1,001,2025-02-17_15h12.25.692,IAT(Formal),2021.2.3,Win32,59.88023952,,,,,,,,,,,,,,,,,,,,,,,,,,,,,,,,,,,,,,,,,,,,,,,,,,,,其他,e,,,e,1,0.8995,1,24,104,79,1,,
,,,,,,,,,,,,,,1,001,2025-02-17_15h12.25.692,IAT(Formal),2021.2.3,Win32,59.88023952,,,,,,,,,,,,,,,,,,,,,,,,,,,,,,,,,,,,,,,,,,,,,,,,,,,,自卑,i,,,i,1,0.6531,1,25,105,36,1,,
,,,,,,,,,,,,,,1,001,2025-02-17_15h12.25.692,IAT(Formal),2021.2.3,Win32,59.88023952,,,,,,,,,,,,,,,,,,,,,,,,,,,,,,,,,,,,,,,,,,,,,,,,,,,,他,e,,,e,1,1.3835,1,26,106,65,1,,
,,,,,,,,,,,,,,1,001,2025-02-17_15h12.25.692,IAT(Formal),2021.2.3,Win32,59.88023952,,,,,,,,,,,,,,,,,,,,,,,,,,,,,,,,,,,,,,,,,,,,,,,,,,,,诚实,e,,,e,1,0.9881,1,27,107,15,1,,
,,,,,,,,,,,,,,1,001,2025-02-17_15h12.25.692,IAT(Formal),2021.2.3,Win32,59.88023952,,,,,,,,,,,,,,,,,,,,,,,,,,,,,,,,,,,,,,,,,,,,,,,,,,,,我的,i,,,i,1,0.6064,1,28,108,61,1,,
,,,,,,,,,,,,,,1,001,2025-02-17_15h12.25.692,IAT(Formal),2021.2.3,Win32,59.88023952,,,,,,,,,,,,,,,,,,,,,,,,,,,,,,,,,,,,,,,,,,,,,,,,,,,,愚蠢,i,,,i,1,0.6345,1,29,109,32,1,,
,,,,,,,,,,,,,,1,001,2025-02-17_15h12.25.692,IAT(Formal),2021.2.3,Win32,59.88023952,,,,,,,,,,,,,,,,,,,,,,,,,,,,,,,,,,,,,,,,,,,,,,,,,,,,执拗,i,,,i,1,0.5545,1,30,110,40,1,,
,,,,,,,,,,,,,,1,001,2025-02-17_15h12.25.692,IAT(Formal),2021.2.3,Win32,59.88023952,,,,,,,,,,,,,,,,,,,,,,,,,,,,,,,,,,,,,,,,,,,,,,,,,,,,消极,i,,,i,1,0.4784,1,31,111,35,1,,
,,,,,,,,,,,,,,1,001,2025-02-17_15h12.25.692,IAT(Formal),2021.2.3,Win32,59.88023952,,,,,,,,,,,,,,,,,,,,,,,,,,,,,,,,,,,,,,,,,,,,,,,,,,,,自己,i,,,i,1,0.6506,1,32,112,53,1,,
,,,,,,,,,,,,,,1,001,2025-02-17_15h12.25.692,IAT(Formal),2021.2.3,Win32,59.88023952,,,,,,,,,,,,,,,,,,,,,,,,,,,,,,,,,,,,,,,,,,,,,,,,,,,,傲慢,i,,,i,1,0.5491,1,33,113,37,1,,
,,,,,,,,,,,,,,1,001,2025-02-17_15h12.25.692,IAT(Formal),2021.2.3,Win32,59.88023952,,,,,,,,,,,,,,,,,,,,,,,,,,,,,,,,,,,,,,,,,,,,,,,,,,,,暴躁,i,,,i,1,0.5507,1,34,114,44,1,,
,,,,,,,,,,,,,,1,001,2025-02-17_15h12.25.692,IAT(Formal),2021.2.3,Win32,59.88023952,,,,,,,,,,,,,,,,,,,,,,,,,,,,,,,,,,,,,,,,,,,,,,,,,,,,他人,e,,,e,1,0.7163,1,35,115,8,1,,
,,,,,,,,,,,,,,1,001,2025-02-17_15h12.25.692,IAT(Formal),2021.2.3,Win32,59.88023952,,,,,,,,,,,,,,,,,,,,,,,,,,,,,,,,,,,,,,,,,,,,,,,,,,,,他人,e,,,e,1,0.6404,1,36,116,68,1,,
,,,,,,,,,,,,,,1,001,2025-02-17_15h12.25.692,IAT(Formal),2021.2.3,Win32,59.88023952,,,,,,,,,,,,,,,,,,,,,,,,,,,,,,,,,,,,,,,,,,,,,,,,,,,,崇高,e,,,i,0,0.8376,1,37,117,11,1,,
,,,,,,,,,,,,,,1,001,2025-02-17_15h12.25.692,IAT(Formal),2021.2.3,Win32,59.88023952,,,,,,,,,,,,,,,,,,,,,,,,,,,,,,,,,,,,,,,,,,,,,,,,,,,,卑鄙,i,,,i,1,0.5488,1,38,118,30,1,,
,,,,,,,,,,,,,,1,001,2025-02-17_15h12.25.692,IAT(Formal),2021.2.3,Win32,59.88023952,,,,,,,,,,,,,,,,,,,,,,,,,,,,,,,,,,,,,,,,,,,,,,,,,,,,其他,e,,,i,0,0.5102,1,39,119,59,1,,
,,,,,,,,,,,,,,1,001,2025-02-17_15h12.25.692,IAT(Formal),2021.2.3,Win32,59.88023952,,,,,,,,,,,,,,,,,,,,,,,,,,,,,,,,,,,,,,,,,,,,,,,,,,,,我,i,,,i,1,0.619,1,40,120,70,1,,
,,,,,,,,,,,,,,1,001,2025-02-17_15h12.25.692,IAT(Formal),2021.2.3,Win32,59.88023952,,,,,,,,,,,,,,,,,,,,,,,,,,,,,,,,,,,,,,,,,,,,,,,,,,,,其他,e,,,e,1,0.7176,1,41,121,9,1,,
,,,,,,,,,,,,,,1,001,2025-02-17_15h12.25.692,IAT(Formal),2021.2.3,Win32,59.88023952,,,,,,,,,,,,,,,,,,,,,,,,,,,,,,,,,,,,,,,,,,,,,,,,,,,,俺,i,,,i,1,0.8308,1,42,122,74,1,,
,,,,,,,,,,,,,,1,001,2025-02-17_15h12.25.692,IAT(Formal),2021.2.3,Win32,59.88023952,,,,,,,,,,,,,,,,,,,,,,,,,,,,,,,,,,,,,,,,,,,,,,,,,,,,诚恳,e,,,i,0,1.2122,1,43,123,29,1,,
,,,,,,,,,,,,,,1,001,2025-02-17_15h12.25.692,IAT(Formal),2021.2.3,Win32,59.88023952,,,,,,,,,,,,,,,,,,,,,,,,,,,,,,,,,,,,,,,,,,,,,,,,,,,,认真,e,,,e,1,0.5872,1,44,124,20,1,,
,,,,,,,,,,,,,,1,001,2025-02-17_15h12.25.692,IAT(Formal),2021.2.3,Win32,59.88023952,,,,,,,,,,,,,,,,,,,,,,,,,,,,,,,,,,,,,,,,,,,,,,,,,,,,他的,e,,,e,1,0.7561,1,45,125,7,1,,
,,,,,,,,,,,,,,1,001,2025-02-17_15h12.25.692,IAT(Formal),2021.2.3,Win32,59.88023952,,,,,,,,,,,,,,,,,,,,,,,,,,,,,,,,,,,,,,,,,,,,,,,,,,,,我,i,,,i,1,1.4388,1,46,126,60,1,,
,,,,,,,,,,,,,,1,001,2025-02-17_15h12.25.692,IAT(Formal),2021.2.3,Win32,59.88023952,,,,,,,,,,,,,,,,,,,,,,,,,,,,,,,,,,,,,,,,,,,,,,,,,,,,细腻,e,,,e,1,0.8004,1,47,127,25,1,,
,,,,,,,,,,,,,,1,001,2025-02-17_15h12.25.692,IAT(Formal),2021.2.3,Win32,59.88023952,,,,,,,,,,,,,,,,,,,,,,,,,,,,,,,,,,,,,,,,,,,,,,,,,,,,他们,e,,,e,1,0.8345,1,48,128,6,1,,
,,,,,,,,,,,,,,1,001,2025-02-17_15h12.25.692,IAT(Formal),2021.2.3,Win32,59.88023952,,,,,,,,,,,,,,,,,,,,,,,,,,,,,,,,,,,,,,,,,,,,,,,,,,,,我们,i,,,e,0,0.5645,1,49,129,62,1,,
,,,,,,,,,,,,,,1,001,2025-02-17_15h12.25.692,IAT(Formal),2021.2.3,Win32,59.88023952,,,,,,,,,,,,,,,,,,,,,,,,,,,,,,,,,,,,,,,,,,,,,,,,,,,,正直,e,,,e,1,0.6748,1,50,130,16,1,,
,,,,,,,,,,,,,,1,001,2025-02-17_15h12.25.692,IAT(Formal),2021.2.3,Win32,59.88023952,,,,,,,,,,,,,,,,,,,,,,,,,,,,,,,,,,,,,,,,,,,,,,,,,,,,自私,i,,,i,1,1.0381,1,51,131,43,1,,
,,,,,,,,,,,,,,1,001,2025-02-17_15h12.25.692,IAT(Formal),2021.2.3,Win32,59.88023952,,,,,,,,,,,,,,,,,,,,,,,,,,,,,,,,,,,,,,,,,,,,,,,,,,,,猖狂,i,,,i,1,0.5237,1,52,132,45,1,,
,,,,,,,,,,,,,,1,001,2025-02-17_15h12.25.692,IAT(Formal),2021.2.3,Win32,59.88023952,,,,,,,,,,,,,,,,,,,,,,,,,,,,,,,,,,,,,,,,,,,,,,,,,,,,乐观,e,,,e,1,0.8278,1,53,133,14,1,,
,,,,,,,,,,,,,,1,001,2025-02-17_15h12.25.692,IAT(Formal),2021.2.3,Win32,59.88023952,,,,,,,,,,,,,,,,,,,,,,,,,,,,,,,,,,,,,,,,,,,,,,,,,,,,冷静,e,,,e,1,0.9182,1,54,134,26,1,,
,,,,,,,,,,,,,,1,001,2025-02-17_15h12.25.692,IAT(Formal),2021.2.3,Win32,59.88023952,,,,,,,,,,,,,,,,,,,,,,,,,,,,,,,,,,,,,,,,,,,,,,,,,,,,他,e,,,e,1,0.7988,1,55,135,55,1,,
,,,,,,,,,,,,,,1,001,2025-02-17_15h12.25.692,IAT(Formal),2021.2.3,Win32,59.88023952,,,,,,,,,,,,,,,,,,,,,,,,,,,,,,,,,,,,,,,,,,,,,,,,,,,,他们,e,,,e,1,0.8056,1,56,136,66,1,,
,,,,,,,,,,,,,,1,001,2025-02-17_15h12.25.692,IAT(Formal),2021.2.3,Win32,59.88023952,,,,,,,,,,,,,,,,,,,,,,,,,,,,,,,,,,,,,,,,,,,,,,,,,,,,稳重,e,,,e,1,0.6349,1,57,137,21,1,,
,,,,,,,,,,,,,,1,001,2025-02-17_15h12.25.692,IAT(Formal),2021.2.3,Win32,59.88023952,,,,,,,,,,,,,,,,,,,,,,,,,,,,,,,,,,,,,,,,,,,,,,,,,,,,我的,i,,,i,1,0.6244,1,58,138,1,1,,
,,,,,,,,,,,,,,1,001,2025-02-17_15h12.25.692,IAT(Formal),2021.2.3,Win32,59.88023952,,,,,,,,,,,,,,,,,,,,,,,,,,,,,,,,,,,,,,,,,,,,,,,,,,,,下贱,i,,,i,1,0.6527,1,59,139,49,1,,
,,,,,,,,,,,,,,1,001,2025-02-17_15h12.25.692,IAT(Formal),2021.2.3,Win32,59.88023952,,,,,,,,,,,,,,,,,,,,,,,,,,,,,,,,,,,,,,,,,,,,,,,,,,,,我的,i,,,i,1,0.6167,1,60,140,71,1,,
,,,,,,,,,,,,,,1,001,2025-02-17_15h12.25.692,IAT(Formal),2021.2.3,Win32,59.88023952,,,,,,,,,,,,,,,,,,,,,,,,,,,,,,,,,,,,,,,,,,,,,,,,,,,,勇敢,e,,,i,0,1.0515,1,61,141,17,1,,
,,,,,,,,,,,,,,1,001,2025-02-17_15h12.25.692,IAT(Formal),2021.2.3,Win32,59.88023952,,,,,,,,,,,,,,,,,,,,,,,,,,,,,,,,,,,,,,,,,,,,,,,,,,,,无私,e,,,e,1,1.0873,1,62,142,22,1,,
,,,,,,,,,,,,,,1,001,2025-02-17_15h12.25.692,IAT(Formal),2021.2.3,Win32,59.88023952,,,,,,,,,,,,,,,,,,,,,,,,,,,,,,,,,,,,,,,,,,,,,,,,,,,,俺,i,,,i,1,1.0677,1,63,143,54,1,,
,,,,,,,,,,,,,,1,001,2025-02-17_15h12.25.692,IAT(Formal),2021.2.3,Win32,59.88023952,,,,,,,,,,,,,,,,,,,,,,,,,,,,,,,,,,,,,,,,,,,,,,,,,,,,机智,e,,,e,1,0.6715,1,64,144,19,1,,
,,,,,,,,,,,,,,1,001,2025-02-17_15h12.25.692,IAT(Formal),2021.2.3,Win32,59.88023952,,,,,,,,,,,,,,,,,,,,,,,,,,,,,,,,,,,,,,,,,,,,,,,,,,,,朴实,e,,,e,1,0.6892,1,65,145,24,1,,
,,,,,,,,,,,,,,1,001,2025-02-17_15h12.25.692,IAT(Formal),2021.2.3,Win32,59.88023952,,,,,,,,,,,,,,,,,,,,,,,,,,,,,,,,,,,,,,,,,,,,,,,,,,,,他的,e,,,e,1,1.0344,1,66,146,57,1,,
,,,,,,,,,,,,,,1,001,2025-02-17_15h12.25.692,IAT(Formal),2021.2.3,Win32,59.88023952,,,,,,,,,,,,,,,,,,,,,,,,,,,,,,,,,,,,,,,,,,,,,,,,,,,,他们,e,,,e,1,0.4713,1,67,147,76,1,,
,,,,,,,,,,,,,,1,001,2025-02-17_15h12.25.692,IAT(Formal),2021.2.3,Win32,59.88023952,,,,,,,,,,,,,,,,,,,,,,,,,,,,,,,,,,,,,,,,,,,,,,,,,,,,俺,i,,,e,0,0.5626,1,68,148,64,1,,
,,,,,,,,,,,,,,1,001,2025-02-17_15h12.25.692,IAT(Formal),2021.2.3,Win32,59.88023952,,,,,,,,,,,,,,,,,,,,,,,,,,,,,,,,,,,,,,,,,,,,,,,,,,,,聪明,e,,,e,1,0.6168,1,69,149,12,1,,
,,,,,,,,,,,,,,1,001,2025-02-17_15h12.25.692,IAT(Formal),2021.2.3,Win32,59.88023952,,,,,,,,,,,,,,,,,,,,,,,,,,,,,,,,,,,,,,,,,,,,,,,,,,,,他,e,,,e,1,0.9035,1,70,150,5,1,,
,,,,,,,,,,,,,,1,001,2025-02-17_15h12.25.692,IAT(Formal),2021.2.3,Win32,59.88023952,,,,,,,,,,,,,,,,,,,,,,,,,,,,,,,,,,,,,,,,,,,,,,,,,,,,优秀,e,,,e,1,0.6507,1,71,151,10,1,,
,,,,,,,,,,,,,,1,001,2025-02-17_15h12.25.692,IAT(Formal),2021.2.3,Win32,59.88023952,,,,,,,,,,,,,,,,,,,,,,,,,,,,,,,,,,,,,,,,,,,,,,,,,,,,他,e,,,e,1,0.573,1,72,152,75,1,,
,,,,,,,,,,,,,,1,001,2025-02-17_15h12.25.692,IAT(Formal),2021.2.3,Win32,59.88023952,,,,,,,,,,,,,,,,,,,,,,,,,,,,,,,,,,,,,,,,,,,,,,,,,,,,刻薄,i,,,i,1,0.8458,1,73,153,33,1,,
,,,,,,,,,,,,,,1,001,2025-02-17_15h12.25.692,IAT(Formal),2021.2.3,Win32,59.88023952,,,,,,,,,,,,,,,,,,,,,,,,,,,,,,,,,,,,,,,,,,,,,,,,,,,,我,i,,,e,0,1.2675,1,74,154,50,1,,
,,,,,,,,,,,,,,1,001,2025-02-17_15h12.25.692,IAT(Formal),2021.2.3,Win32,59.88023952,,,,,,,,,,,,,,,,,,,,,,,,,,,,,,,,,,,,,,,,,,,,,,,,,,,,我的,i,,,i,1,0.7654,1,75,155,51,1,,
,,,,,,,,,,,,,,1,001,2025-02-17_15h12.25.692,IAT(Formal),2021.2.3,Win32,59.88023952,,,,,,,,,,,,,,,,,,,,,,,,,,,,,,,,,,,,,,,,,,,,,,,,,,,,我们,i,,,i,1,0.4506,1,76,156,52,1,,
,,,,,,,,,,,,,,1,001,2025-02-17_15h12.25.692,IAT(Formal),2021.2.3,Win32,59.88023952,,,,,,,,,,,,,,,,,,,,,,,,,,,,,,,,,,,,,,,,,,,,,,,,,,,,轻率,i,,,i,1,0.6746,1,77,157,48,1,,
,,,,,,,,,,,,,,1,001,2025-02-17_15h12.25.692,IAT(Formal),2021.2.3,Win32,59.88023952,,,,,,,,,,,,,,,,,,,,,,,,,,,,,,,,,,,,,,,,,,,,,,,,,,,,自己,i,,,i,1,0.7242,1,78,158,3,1,,
,,,,,,,,,,,,,,1,001,2025-02-17_15h12.25.692,IAT(Formal),2021.2.3,Win32,59.88023952,,,,,,,,,,,,,,,,,,,,,,,,,,,,,,,,,,,,,,,,,,,,,,,,,,,,勤奋,e,,,e,1,0.9914,1,79,159,18,1,,
,,,,,,,,,,,,,,1,001,2025-02-17_15h12.25.692,IAT(Formal),2021.2.3,Win32,59.88023952,,,,,,,,,,,,,,,,,,,,,,,,,,,,,,,,,,,,,,,,,,,,,,,,,,,,,,,,,,,,,,,,space,1.4014