﻿Instruction1.keys,Instruction1.rt,Instruction2.keys,Instruction2.rt,key_resp_iso.keys,key_resp_iso.corr,key_resp_iso.rt,Practice_01.thisRepN,Practice_01.thisTrialN,Practice_01.thisN,Practice_01.thisIndex,Practice_01.ran,Words,ans,participant,session,date,expName,psychopyVersion,OS,frameRate,key_resp_3.keys,key_resp_3.rt,key_resp_ipn.keys,key_resp_ipn.corr,key_resp_ipn.rt,Practice_02.thisRepN,Practice_02.thisTrialN,Practice_02.thisN,Practice_02.thisIndex,Practice_02.ran,Words_ipn,ans_ipn,key_resp_4.keys,key_resp_4.rt,key_resp_t1.keys,key_resp_t1.corr,key_resp_t1.rt,Practice_T1.thisRepN,Practice_T1.thisTrialN,Practice_T1.thisN,Practice_T1.thisIndex,Practice_T1.ran,Words_t1,ans_t1,key_resp_5.keys,key_resp_5.rt,Formal_T1.thisRepN,Formal_T1.thisTrialN,Formal_T1.thisN,Formal_T1.thisIndex,Formal_T1.ran,key_resp_6.keys,key_resp_6.rt,key_resp_iso_reverse.keys,key_resp_iso_reverse.corr,key_resp_iso_reverse.rt,Practice_iso_Reverse.thisRepN,Practice_iso_Reverse.thisTrialN,Practice_iso_Reverse.thisN,Practice_iso_Reverse.thisIndex,Practice_iso_Reverse.ran,key_resp_7.keys,key_resp_7.rt,key_resp_t2_Practice.keys,key_resp_t2_Practice.corr,key_resp_t2_Practice.rt,Practice_t2_Reverse.thisRepN,Practice_t2_Reverse.thisTrialN,Practice_t2_Reverse.thisN,Practice_t2_Reverse.thisIndex,Practice_t2_Reverse.ran,Words_t2,ans_t2,key_resp_8.keys,key_resp_8.rt,key_resp_t2.keys,key_resp_t2.corr,key_resp_t2.rt,Formal_t2_reverse.thisRepN,Formal_t2_reverse.thisTrialN,Formal_t2_reverse.thisN,Formal_t2_reverse.thisIndex,Formal_t2_reverse.ran,key_instruct.keys,key_instruct.rt
space,36.9542,space,3.1895,e,1,1.1388,0,0,0,3,1,自己,e,1,001,2025-02-17_15h30.58.163,IAT(Formal),2021.2.3,Win32,60.24096386,,,,,,,,,,,,,,,,,,,,,,,,,,,,,,,,,,,,,,,,,,,,,,,,,,,,,,,,,,,,,,,,,
,,,,i,0,1.2077,0,1,1,2,1,我们,e,1,001,2025-02-17_15h30.58.163,IAT(Formal),2021.2.3,Win32,60.24096386,,,,,,,,,,,,,,,,,,,,,,,,,,,,,,,,,,,,,,,,,,,,,,,,,,,,,,,,,,,,,,,,,
,,,,e,1,0.4832,0,2,2,1,1,我的,e,1,001,2025-02-17_15h30.58.163,IAT(Formal),2021.2.3,Win32,60.24096386,,,,,,,,,,,,,,,,,,,,,,,,,,,,,,,,,,,,,,,,,,,,,,,,,,,,,,,,,,,,,,,,,
,,,,i,1,0.6714,0,3,3,7,1,他的,i,1,001,2025-02-17_15h30.58.163,IAT(Formal),2021.2.3,Win32,60.24096386,,,,,,,,,,,,,,,,,,,,,,,,,,,,,,,,,,,,,,,,,,,,,,,,,,,,,,,,,,,,,,,,,
,,,,i,1,0.9053,0,4,4,9,1,其他,i,1,001,2025-02-17_15h30.58.163,IAT(Formal),2021.2.3,Win32,60.24096386,,,,,,,,,,,,,,,,,,,,,,,,,,,,,,,,,,,,,,,,,,,,,,,,,,,,,,,,,,,,,,,,,
,,,,e,1,0.4575,0,5,5,0,1,我,e,1,001,2025-02-17_15h30.58.163,IAT(Formal),2021.2.3,Win32,60.24096386,,,,,,,,,,,,,,,,,,,,,,,,,,,,,,,,,,,,,,,,,,,,,,,,,,,,,,,,,,,,,,,,,
,,,,i,1,0.7924,0,6,6,8,1,他人,i,1,001,2025-02-17_15h30.58.163,IAT(Formal),2021.2.3,Win32,60.24096386,,,,,,,,,,,,,,,,,,,,,,,,,,,,,,,,,,,,,,,,,,,,,,,,,,,,,,,,,,,,,,,,,
,,,,i,1,0.4619,0,7,7,5,1,他,i,1,001,2025-02-17_15h30.58.163,IAT(Formal),2021.2.3,Win32,60.24096386,,,,,,,,,,,,,,,,,,,,,,,,,,,,,,,,,,,,,,,,,,,,,,,,,,,,,,,,,,,,,,,,,
,,,,e,1,0.7223,0,8,8,4,1,俺,e,1,001,2025-02-17_15h30.58.163,IAT(Formal),2021.2.3,Win32,60.24096386,,,,,,,,,,,,,,,,,,,,,,,,,,,,,,,,,,,,,,,,,,,,,,,,,,,,,,,,,,,,,,,,,
,,,,i,1,0.6644,0,9,9,6,1,他们,i,1,001,2025-02-17_15h30.58.163,IAT(Formal),2021.2.3,Win32,60.24096386,,,,,,,,,,,,,,,,,,,,,,,,,,,,,,,,,,,,,,,,,,,,,,,,,,,,,,,,,,,,,,,,,
,,,,,,,,,,,,,,1,001,2025-02-17_15h30.58.163,IAT(Formal),2021.2.3,Win32,60.24096386,space,1.2997,e,1,0.9788,0,0,0,0,1,优秀,e,,,,,,,,,,,,,,,,,,,,,,,,,,,,,,,,,,,,,,,,,,,,,,,,,,,,,
,,,,,,,,,,,,,,1,001,2025-02-17_15h30.58.163,IAT(Formal),2021.2.3,Win32,60.24096386,,,e,1,0.7112,0,1,1,4,1,乐观,e,,,,,,,,,,,,,,,,,,,,,,,,,,,,,,,,,,,,,,,,,,,,,,,,,,,,,
,,,,,,,,,,,,,,1,001,2025-02-17_15h30.58.163,IAT(Formal),2021.2.3,Win32,60.24096386,,,e,1,0.9727,0,2,2,11,1,稳重,e,,,,,,,,,,,,,,,,,,,,,,,,,,,,,,,,,,,,,,,,,,,,,,,,,,,,,
,,,,,,,,,,,,,,1,001,2025-02-17_15h30.58.163,IAT(Formal),2021.2.3,Win32,60.24096386,,,i,1,0.5671,0,3,3,39,1,下贱,i,,,,,,,,,,,,,,,,,,,,,,,,,,,,,,,,,,,,,,,,,,,,,,,,,,,,,
,,,,,,,,,,,,,,1,001,2025-02-17_15h30.58.163,IAT(Formal),2021.2.3,Win32,60.24096386,,,i,1,0.5678,0,4,4,33,1,自私,i,,,,,,,,,,,,,,,,,,,,,,,,,,,,,,,,,,,,,,,,,,,,,,,,,,,,,
,,,,,,,,,,,,,,1,001,2025-02-17_15h30.58.163,IAT(Formal),2021.2.3,Win32,60.24096386,,,e,1,0.643,0,5,5,5,1,诚实,e,,,,,,,,,,,,,,,,,,,,,,,,,,,,,,,,,,,,,,,,,,,,,,,,,,,,,
,,,,,,,,,,,,,,1,001,2025-02-17_15h30.58.163,IAT(Formal),2021.2.3,Win32,60.24096386,,,e,1,0.6222,0,6,6,9,1,机智,e,,,,,,,,,,,,,,,,,,,,,,,,,,,,,,,,,,,,,,,,,,,,,,,,,,,,,
,,,,,,,,,,,,,,1,001,2025-02-17_15h30.58.163,IAT(Formal),2021.2.3,Win32,60.24096386,,,e,1,0.5541,0,7,7,8,1,勤奋,e,,,,,,,,,,,,,,,,,,,,,,,,,,,,,,,,,,,,,,,,,,,,,,,,,,,,,
,,,,,,,,,,,,,,1,001,2025-02-17_15h30.58.163,IAT(Formal),2021.2.3,Win32,60.24096386,,,e,1,0.5087,0,8,8,2,1,聪明,e,,,,,,,,,,,,,,,,,,,,,,,,,,,,,,,,,,,,,,,,,,,,,,,,,,,,,
,,,,,,,,,,,,,,1,001,2025-02-17_15h30.58.163,IAT(Formal),2021.2.3,Win32,60.24096386,,,e,0,0.4778,0,9,9,22,1,愚蠢,i,,,,,,,,,,,,,,,,,,,,,,,,,,,,,,,,,,,,,,,,,,,,,,,,,,,,,
,,,,,,,,,,,,,,1,001,2025-02-17_15h30.58.163,IAT(Formal),2021.2.3,Win32,60.24096386,,,e,1,0.6197,0,10,10,3,1,杰出,e,,,,,,,,,,,,,,,,,,,,,,,,,,,,,,,,,,,,,,,,,,,,,,,,,,,,,
,,,,,,,,,,,,,,1,001,2025-02-17_15h30.58.163,IAT(Formal),2021.2.3,Win32,60.24096386,,,e,1,0.5599,0,11,11,17,1,热情,e,,,,,,,,,,,,,,,,,,,,,,,,,,,,,,,,,,,,,,,,,,,,,,,,,,,,,
,,,,,,,,,,,,,,1,001,2025-02-17_15h30.58.163,IAT(Formal),2021.2.3,Win32,60.24096386,,,e,1,0.6315,0,12,12,1,1,崇高,e,,,,,,,,,,,,,,,,,,,,,,,,,,,,,,,,,,,,,,,,,,,,,,,,,,,,,
,,,,,,,,,,,,,,1,001,2025-02-17_15h30.58.163,IAT(Formal),2021.2.3,Win32,60.24096386,,,e,1,0.5152,0,13,13,10,1,认真,e,,,,,,,,,,,,,,,,,,,,,,,,,,,,,,,,,,,,,,,,,,,,,,,,,,,,,
,,,,,,,,,,,,,,1,001,2025-02-17_15h30.58.163,IAT(Formal),2021.2.3,Win32,60.24096386,,,e,1,0.5339,0,14,14,7,1,勇敢,e,,,,,,,,,,,,,,,,,,,,,,,,,,,,,,,,,,,,,,,,,,,,,,,,,,,,,
,,,,,,,,,,,,,,1,001,2025-02-17_15h30.58.163,IAT(Formal),2021.2.3,Win32,60.24096386,,,i,1,0.7226,0,15,15,27,1,傲慢,i,,,,,,,,,,,,,,,,,,,,,,,,,,,,,,,,,,,,,,,,,,,,,,,,,,,,,
,,,,,,,,,,,,,,1,001,2025-02-17_15h30.58.163,IAT(Formal),2021.2.3,Win32,60.24096386,,,i,1,0.7833,0,16,16,35,1,猖狂,i,,,,,,,,,,,,,,,,,,,,,,,,,,,,,,,,,,,,,,,,,,,,,,,,,,,,,
,,,,,,,,,,,,,,1,001,2025-02-17_15h30.58.163,IAT(Formal),2021.2.3,Win32,60.24096386,,,i,1,1.0337,0,17,17,37,1,固执,i,,,,,,,,,,,,,,,,,,,,,,,,,,,,,,,,,,,,,,,,,,,,,,,,,,,,,
,,,,,,,,,,,,,,1,001,2025-02-17_15h30.58.163,IAT(Formal),2021.2.3,Win32,60.24096386,,,e,1,0.6864,0,18,18,6,1,正直,e,,,,,,,,,,,,,,,,,,,,,,,,,,,,,,,,,,,,,,,,,,,,,,,,,,,,,
,,,,,,,,,,,,,,1,001,2025-02-17_15h30.58.163,IAT(Formal),2021.2.3,Win32,60.24096386,,,e,1,0.682,0,19,19,14,1,朴实,e,,,,,,,,,,,,,,,,,,,,,,,,,,,,,,,,,,,,,,,,,,,,,,,,,,,,,
,,,,,,,,,,,,,,1,001,2025-02-17_15h30.58.163,IAT(Formal),2021.2.3,Win32,60.24096386,,,i,1,0.7577,0,20,20,36,1,野蛮,i,,,,,,,,,,,,,,,,,,,,,,,,,,,,,,,,,,,,,,,,,,,,,,,,,,,,,
,,,,,,,,,,,,,,1,001,2025-02-17_15h30.58.163,IAT(Formal),2021.2.3,Win32,60.24096386,,,i,1,0.7602,0,21,21,30,1,执拗,i,,,,,,,,,,,,,,,,,,,,,,,,,,,,,,,,,,,,,,,,,,,,,,,,,,,,,
,,,,,,,,,,,,,,1,001,2025-02-17_15h30.58.163,IAT(Formal),2021.2.3,Win32,60.24096386,,,e,1,0.9149,0,22,22,12,1,无私,e,,,,,,,,,,,,,,,,,,,,,,,,,,,,,,,,,,,,,,,,,,,,,,,,,,,,,
,,,,,,,,,,,,,,1,001,2025-02-17_15h30.58.163,IAT(Formal),2021.2.3,Win32,60.24096386,,,i,1,0.7181,0,23,23,29,1,冒失,i,,,,,,,,,,,,,,,,,,,,,,,,,,,,,,,,,,,,,,,,,,,,,,,,,,,,,
,,,,,,,,,,,,,,1,001,2025-02-17_15h30.58.163,IAT(Formal),2021.2.3,Win32,60.24096386,,,i,1,0.6259,0,24,24,28,1,鲁莽,i,,,,,,,,,,,,,,,,,,,,,,,,,,,,,,,,,,,,,,,,,,,,,,,,,,,,,
,,,,,,,,,,,,,,1,001,2025-02-17_15h30.58.163,IAT(Formal),2021.2.3,Win32,60.24096386,,,e,1,0.6695,0,25,25,16,1,冷静,e,,,,,,,,,,,,,,,,,,,,,,,,,,,,,,,,,,,,,,,,,,,,,,,,,,,,,
,,,,,,,,,,,,,,1,001,2025-02-17_15h30.58.163,IAT(Formal),2021.2.3,Win32,60.24096386,,,i,1,1.0775,0,26,26,26,1,自卑,i,,,,,,,,,,,,,,,,,,,,,,,,,,,,,,,,,,,,,,,,,,,,,,,,,,,,,
,,,,,,,,,,,,,,1,001,2025-02-17_15h30.58.163,IAT(Formal),2021.2.3,Win32,60.24096386,,,i,1,0.7718,0,27,27,23,1,刻薄,i,,,,,,,,,,,,,,,,,,,,,,,,,,,,,,,,,,,,,,,,,,,,,,,,,,,,,
,,,,,,,,,,,,,,1,001,2025-02-17_15h30.58.163,IAT(Formal),2021.2.3,Win32,60.24096386,,,i,1,0.7556,0,28,28,20,1,卑鄙,i,,,,,,,,,,,,,,,,,,,,,,,,,,,,,,,,,,,,,,,,,,,,,,,,,,,,,
,,,,,,,,,,,,,,1,001,2025-02-17_15h30.58.163,IAT(Formal),2021.2.3,Win32,60.24096386,,,e,1,0.6229,0,29,29,15,1,细腻,e,,,,,,,,,,,,,,,,,,,,,,,,,,,,,,,,,,,,,,,,,,,,,,,,,,,,,
,,,,,,,,,,,,,,1,001,2025-02-17_15h30.58.163,IAT(Formal),2021.2.3,Win32,60.24096386,,,e,1,0.6669,0,30,30,19,1,诚恳,e,,,,,,,,,,,,,,,,,,,,,,,,,,,,,,,,,,,,,,,,,,,,,,,,,,,,,
,,,,,,,,,,,,,,1,001,2025-02-17_15h30.58.163,IAT(Formal),2021.2.3,Win32,60.24096386,,,e,1,0.6312,0,31,31,13,1,公正,e,,,,,,,,,,,,,,,,,,,,,,,,,,,,,,,,,,,,,,,,,,,,,,,,,,,,,
,,,,,,,,,,,,,,1,001,2025-02-17_15h30.58.163,IAT(Formal),2021.2.3,Win32,60.24096386,,,e,1,0.6005,0,32,32,18,1,活泼,e,,,,,,,,,,,,,,,,,,,,,,,,,,,,,,,,,,,,,,,,,,,,,,,,,,,,,
,,,,,,,,,,,,,,1,001,2025-02-17_15h30.58.163,IAT(Formal),2021.2.3,Win32,60.24096386,,,i,1,0.6174,0,33,33,24,1,悲观,i,,,,,,,,,,,,,,,,,,,,,,,,,,,,,,,,,,,,,,,,,,,,,,,,,,,,,
,,,,,,,,,,,,,,1,001,2025-02-17_15h30.58.163,IAT(Formal),2021.2.3,Win32,60.24096386,,,i,1,0.6344,0,34,34,34,1,暴躁,i,,,,,,,,,,,,,,,,,,,,,,,,,,,,,,,,,,,,,,,,,,,,,,,,,,,,,
,,,,,,,,,,,,,,1,001,2025-02-17_15h30.58.163,IAT(Formal),2021.2.3,Win32,60.24096386,,,i,1,0.739,0,35,35,32,1,凶狠,i,,,,,,,,,,,,,,,,,,,,,,,,,,,,,,,,,,,,,,,,,,,,,,,,,,,,,
,,,,,,,,,,,,,,1,001,2025-02-17_15h30.58.163,IAT(Formal),2021.2.3,Win32,60.24096386,,,i,1,0.73,0,36,36,25,1,消极,i,,,,,,,,,,,,,,,,,,,,,,,,,,,,,,,,,,,,,,,,,,,,,,,,,,,,,
,,,,,,,,,,,,,,1,001,2025-02-17_15h30.58.163,IAT(Formal),2021.2.3,Win32,60.24096386,,,i,1,0.9249,0,37,37,31,1,散漫,i,,,,,,,,,,,,,,,,,,,,,,,,,,,,,,,,,,,,,,,,,,,,,,,,,,,,,
,,,,,,,,,,,,,,1,001,2025-02-17_15h30.58.163,IAT(Formal),2021.2.3,Win32,60.24096386,,,i,1,0.6878,0,38,38,38,1,轻率,i,,,,,,,,,,,,,,,,,,,,,,,,,,,,,,,,,,,,,,,,,,,,,,,,,,,,,
,,,,,,,,,,,,,,1,001,2025-02-17_15h30.58.163,IAT(Formal),2021.2.3,Win32,60.24096386,,,i,1,0.6448,0,39,39,21,1,虚伪,i,,,,,,,,,,,,,,,,,,,,,,,,,,,,,,,,,,,,,,,,,,,,,,,,,,,,,
,,,,,,,,,,,,,,1,001,2025-02-17_15h30.58.163,IAT(Formal),2021.2.3,Win32,60.24096386,,,,,,,,,,,,,space,94.6452,e,1,1.1901,0,0,0,51,1,我的,e,,,,,,,,,,,,,,,,,,,,,,,,,,,,,,,,,,,,,,,,,
,,,,,,,,,,,,,,1,001,2025-02-17_15h30.58.163,IAT(Formal),2021.2.3,Win32,60.24096386,,,,,,,,,,,,,,,e,1,0.6957,0,1,1,73,1,自己,e,,,,,,,,,,,,,,,,,,,,,,,,,,,,,,,,,,,,,,,,,
,,,,,,,,,,,,,,1,001,2025-02-17_15h30.58.163,IAT(Formal),2021.2.3,Win32,60.24096386,,,,,,,,,,,,,,,e,1,0.6295,0,2,2,62,1,我们,e,,,,,,,,,,,,,,,,,,,,,,,,,,,,,,,,,,,,,,,,,
,,,,,,,,,,,,,,1,001,2025-02-17_15h30.58.163,IAT(Formal),2021.2.3,Win32,60.24096386,,,,,,,,,,,,,,,i,1,0.7461,0,3,3,46,1,野蛮,i,,,,,,,,,,,,,,,,,,,,,,,,,,,,,,,,,,,,,,,,,
,,,,,,,,,,,,,,1,001,2025-02-17_15h30.58.163,IAT(Formal),2021.2.3,Win32,60.24096386,,,,,,,,,,,,,,,i,1,0.7517,0,4,4,56,1,他们,i,,,,,,,,,,,,,,,,,,,,,,,,,,,,,,,,,,,,,,,,,
,,,,,,,,,,,,,,1,001,2025-02-17_15h30.58.163,IAT(Formal),2021.2.3,Win32,60.24096386,,,,,,,,,,,,,,,i,1,1.2662,0,5,5,42,1,凶狠,i,,,,,,,,,,,,,,,,,,,,,,,,,,,,,,,,,,,,,,,,,
,,,,,,,,,,,,,,1,001,2025-02-17_15h30.58.163,IAT(Formal),2021.2.3,Win32,60.24096386,,,,,,,,,,,,,,,i,1,0.7002,0,6,6,43,1,自私,i,,,,,,,,,,,,,,,,,,,,,,,,,,,,,,,,,,,,,,,,,
,,,,,,,,,,,,,,1,001,2025-02-17_15h30.58.163,IAT(Formal),2021.2.3,Win32,60.24096386,,,,,,,,,,,,,,,e,1,0.6966,0,7,7,71,1,我的,e,,,,,,,,,,,,,,,,,,,,,,,,,,,,,,,,,,,,,,,,,
,,,,,,,,,,,,,,1,001,2025-02-17_15h30.58.163,IAT(Formal),2021.2.3,Win32,60.24096386,,,,,,,,,,,,,,,e,1,0.701,0,8,8,3,1,自己,e,,,,,,,,,,,,,,,,,,,,,,,,,,,,,,,,,,,,,,,,,
,,,,,,,,,,,,,,1,001,2025-02-17_15h30.58.163,IAT(Formal),2021.2.3,Win32,60.24096386,,,,,,,,,,,,,,,e,1,0.4783,0,9,9,53,1,自己,e,,,,,,,,,,,,,,,,,,,,,,,,,,,,,,,,,,,,,,,,,
,,,,,,,,,,,,,,1,001,2025-02-17_15h30.58.163,IAT(Formal),2021.2.3,Win32,60.24096386,,,,,,,,,,,,,,,,0,,0,10,10,40,1,执拗,i,,,,,,,,,,,,,,,,,,,,,,,,,,,,,,,,,,,,,,,,,
,,,,,,,,,,,,,,1,001,2025-02-17_15h30.58.163,IAT(Formal),2021.2.3,Win32,60.24096386,,,,,,,,,,,,,,,i,1,0.8011,0,11,11,66,1,他们,i,,,,,,,,,,,,,,,,,,,,,,,,,,,,,,,,,,,,,,,,,
,,,,,,,,,,,,,,1,001,2025-02-17_15h30.58.163,IAT(Formal),2021.2.3,Win32,60.24096386,,,,,,,,,,,,,,,e,1,0.9051,0,12,12,70,1,我,e,,,,,,,,,,,,,,,,,,,,,,,,,,,,,,,,,,,,,,,,,
,,,,,,,,,,,,,,1,001,2025-02-17_15h30.58.163,IAT(Formal),2021.2.3,Win32,60.24096386,,,,,,,,,,,,,,,i,1,0.702,0,13,13,39,1,冒失,i,,,,,,,,,,,,,,,,,,,,,,,,,,,,,,,,,,,,,,,,,
,,,,,,,,,,,,,,1,001,2025-02-17_15h30.58.163,IAT(Formal),2021.2.3,Win32,60.24096386,,,,,,,,,,,,,,,e,1,0.8865,0,14,14,50,1,我,e,,,,,,,,,,,,,,,,,,,,,,,,,,,,,,,,,,,,,,,,,
,,,,,,,,,,,,,,1,001,2025-02-17_15h30.58.163,IAT(Formal),2021.2.3,Win32,60.24096386,,,,,,,,,,,,,,,i,1,0.6287,0,15,15,47,1,固执,i,,,,,,,,,,,,,,,,,,,,,,,,,,,,,,,,,,,,,,,,,
,,,,,,,,,,,,,,1,001,2025-02-17_15h30.58.163,IAT(Formal),2021.2.3,Win32,60.24096386,,,,,,,,,,,,,,,,0,,0,16,16,24,1,朴实,e,,,,,,,,,,,,,,,,,,,,,,,,,,,,,,,,,,,,,,,,,
,,,,,,,,,,,,,,1,001,2025-02-17_15h30.58.163,IAT(Formal),2021.2.3,Win32,60.24096386,,,,,,,,,,,,,,,e,1,1.1255,0,17,17,26,1,冷静,e,,,,,,,,,,,,,,,,,,,,,,,,,,,,,,,,,,,,,,,,,
,,,,,,,,,,,,,,1,001,2025-02-17_15h30.58.163,IAT(Formal),2021.2.3,Win32,60.24096386,,,,,,,,,,,,,,,,0,,0,18,18,34,1,悲观,i,,,,,,,,,,,,,,,,,,,,,,,,,,,,,,,,,,,,,,,,,
,,,,,,,,,,,,,,1,001,2025-02-17_15h30.58.163,IAT(Formal),2021.2.3,Win32,60.24096386,,,,,,,,,,,,,,,i,1,0.5775,0,19,19,33,1,刻薄,i,,,,,,,,,,,,,,,,,,,,,,,,,,,,,,,,,,,,,,,,,
,,,,,,,,,,,,,,1,001,2025-02-17_15h30.58.163,IAT(Formal),2021.2.3,Win32,60.24096386,,,,,,,,,,,,,,,i,1,0.8015,0,20,20,77,1,他的,i,,,,,,,,,,,,,,,,,,,,,,,,,,,,,,,,,,,,,,,,,
,,,,,,,,,,,,,,1,001,2025-02-17_15h30.58.163,IAT(Formal),2021.2.3,Win32,60.24096386,,,,,,,,,,,,,,,e,1,0.5781,0,21,21,18,1,勤奋,e,,,,,,,,,,,,,,,,,,,,,,,,,,,,,,,,,,,,,,,,,
,,,,,,,,,,,,,,1,001,2025-02-17_15h30.58.163,IAT(Formal),2021.2.3,Win32,60.24096386,,,,,,,,,,,,,,,e,1,0.5268,0,22,22,16,1,正直,e,,,,,,,,,,,,,,,,,,,,,,,,,,,,,,,,,,,,,,,,,
,,,,,,,,,,,,,,1,001,2025-02-17_15h30.58.163,IAT(Formal),2021.2.3,Win32,60.24096386,,,,,,,,,,,,,,,e,1,0.4523,0,23,23,10,1,优秀,e,,,,,,,,,,,,,,,,,,,,,,,,,,,,,,,,,,,,,,,,,
,,,,,,,,,,,,,,1,001,2025-02-17_15h30.58.163,IAT(Formal),2021.2.3,Win32,60.24096386,,,,,,,,,,,,,,,i,1,0.615,0,24,24,6,1,他们,i,,,,,,,,,,,,,,,,,,,,,,,,,,,,,,,,,,,,,,,,,
,,,,,,,,,,,,,,1,001,2025-02-17_15h30.58.163,IAT(Formal),2021.2.3,Win32,60.24096386,,,,,,,,,,,,,,,e,1,0.6068,0,25,25,74,1,俺,e,,,,,,,,,,,,,,,,,,,,,,,,,,,,,,,,,,,,,,,,,
,,,,,,,,,,,,,,1,001,2025-02-17_15h30.58.163,IAT(Formal),2021.2.3,Win32,60.24096386,,,,,,,,,,,,,,,e,1,0.535,0,26,26,27,1,热情,e,,,,,,,,,,,,,,,,,,,,,,,,,,,,,,,,,,,,,,,,,
,,,,,,,,,,,,,,1,001,2025-02-17_15h30.58.163,IAT(Formal),2021.2.3,Win32,60.24096386,,,,,,,,,,,,,,,e,1,0.9541,0,27,27,54,1,俺,e,,,,,,,,,,,,,,,,,,,,,,,,,,,,,,,,,,,,,,,,,
,,,,,,,,,,,,,,1,001,2025-02-17_15h30.58.163,IAT(Formal),2021.2.3,Win32,60.24096386,,,,,,,,,,,,,,,e,1,0.4755,0,28,28,52,1,我们,e,,,,,,,,,,,,,,,,,,,,,,,,,,,,,,,,,,,,,,,,,
,,,,,,,,,,,,,,1,001,2025-02-17_15h30.58.163,IAT(Formal),2021.2.3,Win32,60.24096386,,,,,,,,,,,,,,,i,1,0.6865,0,29,29,69,1,其他,i,,,,,,,,,,,,,,,,,,,,,,,,,,,,,,,,,,,,,,,,,
,,,,,,,,,,,,,,1,001,2025-02-17_15h30.58.163,IAT(Formal),2021.2.3,Win32,60.24096386,,,,,,,,,,,,,,,i,1,0.6684,0,30,30,44,1,暴躁,i,,,,,,,,,,,,,,,,,,,,,,,,,,,,,,,,,,,,,,,,,
,,,,,,,,,,,,,,1,001,2025-02-17_15h30.58.163,IAT(Formal),2021.2.3,Win32,60.24096386,,,,,,,,,,,,,,,e,1,0.446,0,31,31,2,1,我们,e,,,,,,,,,,,,,,,,,,,,,,,,,,,,,,,,,,,,,,,,,
,,,,,,,,,,,,,,1,001,2025-02-17_15h30.58.163,IAT(Formal),2021.2.3,Win32,60.24096386,,,,,,,,,,,,,,,e,1,0.4735,0,32,32,0,1,我,e,,,,,,,,,,,,,,,,,,,,,,,,,,,,,,,,,,,,,,,,,
,,,,,,,,,,,,,,1,001,2025-02-17_15h30.58.163,IAT(Formal),2021.2.3,Win32,60.24096386,,,,,,,,,,,,,,,e,1,0.5644,0,33,33,13,1,杰出,e,,,,,,,,,,,,,,,,,,,,,,,,,,,,,,,,,,,,,,,,,
,,,,,,,,,,,,,,1,001,2025-02-17_15h30.58.163,IAT(Formal),2021.2.3,Win32,60.24096386,,,,,,,,,,,,,,,i,1,0.6206,0,34,34,68,1,他人,i,,,,,,,,,,,,,,,,,,,,,,,,,,,,,,,,,,,,,,,,,
,,,,,,,,,,,,,,1,001,2025-02-17_15h30.58.163,IAT(Formal),2021.2.3,Win32,60.24096386,,,,,,,,,,,,,,,e,1,0.4249,0,35,35,1,1,我的,e,,,,,,,,,,,,,,,,,,,,,,,,,,,,,,,,,,,,,,,,,
,,,,,,,,,,,,,,1,001,2025-02-17_15h30.58.163,IAT(Formal),2021.2.3,Win32,60.24096386,,,,,,,,,,,,,,,e,1,0.6099,0,36,36,63,1,自己,e,,,,,,,,,,,,,,,,,,,,,,,,,,,,,,,,,,,,,,,,,
,,,,,,,,,,,,,,1,001,2025-02-17_15h30.58.163,IAT(Formal),2021.2.3,Win32,60.24096386,,,,,,,,,,,,,,,i,1,0.6105,0,37,37,59,1,其他,i,,,,,,,,,,,,,,,,,,,,,,,,,,,,,,,,,,,,,,,,,
,,,,,,,,,,,,,,1,001,2025-02-17_15h30.58.163,IAT(Formal),2021.2.3,Win32,60.24096386,,,,,,,,,,,,,,,i,1,0.7693,0,38,38,76,1,他们,i,,,,,,,,,,,,,,,,,,,,,,,,,,,,,,,,,,,,,,,,,
,,,,,,,,,,,,,,1,001,2025-02-17_15h30.58.163,IAT(Formal),2021.2.3,Win32,60.24096386,,,,,,,,,,,,,,,i,1,0.5974,0,39,39,49,1,下贱,i,,,,,,,,,,,,,,,,,,,,,,,,,,,,,,,,,,,,,,,,,
,,,,,,,,,,,,,,1,001,2025-02-17_15h30.58.163,IAT(Formal),2021.2.3,Win32,60.24096386,,,,,,,,,,,,,,,i,1,0.7323,0,40,40,55,1,他,i,,,,,,,,,,,,,,,,,,,,,,,,,,,,,,,,,,,,,,,,,
,,,,,,,,,,,,,,1,001,2025-02-17_15h30.58.163,IAT(Formal),2021.2.3,Win32,60.24096386,,,,,,,,,,,,,,,i,1,0.5433,0,41,41,8,1,他人,i,,,,,,,,,,,,,,,,,,,,,,,,,,,,,,,,,,,,,,,,,
,,,,,,,,,,,,,,1,001,2025-02-17_15h30.58.163,IAT(Formal),2021.2.3,Win32,60.24096386,,,,,,,,,,,,,,,e,1,0.7684,0,42,42,14,1,乐观,e,,,,,,,,,,,,,,,,,,,,,,,,,,,,,,,,,,,,,,,,,
,,,,,,,,,,,,,,1,001,2025-02-17_15h30.58.163,IAT(Formal),2021.2.3,Win32,60.24096386,,,,,,,,,,,,,,,i,1,0.5619,0,43,43,45,1,猖狂,i,,,,,,,,,,,,,,,,,,,,,,,,,,,,,,,,,,,,,,,,,
,,,,,,,,,,,,,,1,001,2025-02-17_15h30.58.163,IAT(Formal),2021.2.3,Win32,60.24096386,,,,,,,,,,,,,,,i,1,0.5154,0,44,44,7,1,他的,i,,,,,,,,,,,,,,,,,,,,,,,,,,,,,,,,,,,,,,,,,
,,,,,,,,,,,,,,1,001,2025-02-17_15h30.58.163,IAT(Formal),2021.2.3,Win32,60.24096386,,,,,,,,,,,,,,,i,1,0.5623,0,45,45,5,1,他,i,,,,,,,,,,,,,,,,,,,,,,,,,,,,,,,,,,,,,,,,,
,,,,,,,,,,,,,,1,001,2025-02-17_15h30.58.163,IAT(Formal),2021.2.3,Win32,60.24096386,,,,,,,,,,,,,,,i,1,0.59,0,46,46,31,1,虚伪,i,,,,,,,,,,,,,,,,,,,,,,,,,,,,,,,,,,,,,,,,,
,,,,,,,,,,,,,,1,001,2025-02-17_15h30.58.163,IAT(Formal),2021.2.3,Win32,60.24096386,,,,,,,,,,,,,,,e,1,0.4951,0,47,47,60,1,我,e,,,,,,,,,,,,,,,,,,,,,,,,,,,,,,,,,,,,,,,,,
,,,,,,,,,,,,,,1,001,2025-02-17_15h30.58.163,IAT(Formal),2021.2.3,Win32,60.24096386,,,,,,,,,,,,,,,e,1,0.5146,0,48,48,17,1,勇敢,e,,,,,,,,,,,,,,,,,,,,,,,,,,,,,,,,,,,,,,,,,
,,,,,,,,,,,,,,1,001,2025-02-17_15h30.58.163,IAT(Formal),2021.2.3,Win32,60.24096386,,,,,,,,,,,,,,,e,1,0.6082,0,49,49,64,1,俺,e,,,,,,,,,,,,,,,,,,,,,,,,,,,,,,,,,,,,,,,,,
,,,,,,,,,,,,,,1,001,2025-02-17_15h30.58.163,IAT(Formal),2021.2.3,Win32,60.24096386,,,,,,,,,,,,,,,i,1,0.7328,0,50,50,57,1,他的,i,,,,,,,,,,,,,,,,,,,,,,,,,,,,,,,,,,,,,,,,,
,,,,,,,,,,,,,,1,001,2025-02-17_15h30.58.163,IAT(Formal),2021.2.3,Win32,60.24096386,,,,,,,,,,,,,,,e,1,0.5265,0,51,51,15,1,诚实,e,,,,,,,,,,,,,,,,,,,,,,,,,,,,,,,,,,,,,,,,,
,,,,,,,,,,,,,,1,001,2025-02-17_15h30.58.163,IAT(Formal),2021.2.3,Win32,60.24096386,,,,,,,,,,,,,,,i,1,0.5444,0,52,52,30,1,卑鄙,i,,,,,,,,,,,,,,,,,,,,,,,,,,,,,,,,,,,,,,,,,
,,,,,,,,,,,,,,1,001,2025-02-17_15h30.58.163,IAT(Formal),2021.2.3,Win32,60.24096386,,,,,,,,,,,,,,,i,1,0.636,0,53,53,48,1,轻率,i,,,,,,,,,,,,,,,,,,,,,,,,,,,,,,,,,,,,,,,,,
,,,,,,,,,,,,,,1,001,2025-02-17_15h30.58.163,IAT(Formal),2021.2.3,Win32,60.24096386,,,,,,,,,,,,,,,i,1,0.5778,0,54,54,9,1,其他,i,,,,,,,,,,,,,,,,,,,,,,,,,,,,,,,,,,,,,,,,,
,,,,,,,,,,,,,,1,001,2025-02-17_15h30.58.163,IAT(Formal),2021.2.3,Win32,60.24096386,,,,,,,,,,,,,,,i,1,0.5312,0,55,55,78,1,他人,i,,,,,,,,,,,,,,,,,,,,,,,,,,,,,,,,,,,,,,,,,
,,,,,,,,,,,,,,1,001,2025-02-17_15h30.58.163,IAT(Formal),2021.2.3,Win32,60.24096386,,,,,,,,,,,,,,,i,1,0.5145,0,56,56,58,1,他人,i,,,,,,,,,,,,,,,,,,,,,,,,,,,,,,,,,,,,,,,,,
,,,,,,,,,,,,,,1,001,2025-02-17_15h30.58.163,IAT(Formal),2021.2.3,Win32,60.24096386,,,,,,,,,,,,,,,e,1,0.9022,0,57,57,11,1,崇高,e,,,,,,,,,,,,,,,,,,,,,,,,,,,,,,,,,,,,,,,,,
,,,,,,,,,,,,,,1,001,2025-02-17_15h30.58.163,IAT(Formal),2021.2.3,Win32,60.24096386,,,,,,,,,,,,,,,i,1,0.597,0,58,58,36,1,自卑,i,,,,,,,,,,,,,,,,,,,,,,,,,,,,,,,,,,,,,,,,,
,,,,,,,,,,,,,,1,001,2025-02-17_15h30.58.163,IAT(Formal),2021.2.3,Win32,60.24096386,,,,,,,,,,,,,,,i,1,0.6314,0,59,59,35,1,消极,i,,,,,,,,,,,,,,,,,,,,,,,,,,,,,,,,,,,,,,,,,
,,,,,,,,,,,,,,1,001,2025-02-17_15h30.58.163,IAT(Formal),2021.2.3,Win32,60.24096386,,,,,,,,,,,,,,,i,1,0.555,0,60,60,67,1,他的,i,,,,,,,,,,,,,,,,,,,,,,,,,,,,,,,,,,,,,,,,,
,,,,,,,,,,,,,,1,001,2025-02-17_15h30.58.163,IAT(Formal),2021.2.3,Win32,60.24096386,,,,,,,,,,,,,,,e,1,0.6109,0,61,61,20,1,认真,e,,,,,,,,,,,,,,,,,,,,,,,,,,,,,,,,,,,,,,,,,
,,,,,,,,,,,,,,1,001,2025-02-17_15h30.58.163,IAT(Formal),2021.2.3,Win32,60.24096386,,,,,,,,,,,,,,,e,1,0.6348,0,62,62,4,1,俺,e,,,,,,,,,,,,,,,,,,,,,,,,,,,,,,,,,,,,,,,,,
,,,,,,,,,,,,,,1,001,2025-02-17_15h30.58.163,IAT(Formal),2021.2.3,Win32,60.24096386,,,,,,,,,,,,,,,e,1,0.5285,0,63,63,12,1,聪明,e,,,,,,,,,,,,,,,,,,,,,,,,,,,,,,,,,,,,,,,,,
,,,,,,,,,,,,,,1,001,2025-02-17_15h30.58.163,IAT(Formal),2021.2.3,Win32,60.24096386,,,,,,,,,,,,,,,e,1,0.563,0,64,64,21,1,稳重,e,,,,,,,,,,,,,,,,,,,,,,,,,,,,,,,,,,,,,,,,,
,,,,,,,,,,,,,,1,001,2025-02-17_15h30.58.163,IAT(Formal),2021.2.3,Win32,60.24096386,,,,,,,,,,,,,,,e,1,0.4589,0,65,65,72,1,我们,e,,,,,,,,,,,,,,,,,,,,,,,,,,,,,,,,,,,,,,,,,
,,,,,,,,,,,,,,1,001,2025-02-17_15h30.58.163,IAT(Formal),2021.2.3,Win32,60.24096386,,,,,,,,,,,,,,,e,1,0.5146,0,66,66,23,1,公正,e,,,,,,,,,,,,,,,,,,,,,,,,,,,,,,,,,,,,,,,,,
,,,,,,,,,,,,,,1,001,2025-02-17_15h30.58.163,IAT(Formal),2021.2.3,Win32,60.24096386,,,,,,,,,,,,,,,e,1,0.4295,0,67,67,29,1,诚恳,e,,,,,,,,,,,,,,,,,,,,,,,,,,,,,,,,,,,,,,,,,
,,,,,,,,,,,,,,1,001,2025-02-17_15h30.58.163,IAT(Formal),2021.2.3,Win32,60.24096386,,,,,,,,,,,,,,,i,1,0.6982,0,68,68,75,1,他,i,,,,,,,,,,,,,,,,,,,,,,,,,,,,,,,,,,,,,,,,,
,,,,,,,,,,,,,,1,001,2025-02-17_15h30.58.163,IAT(Formal),2021.2.3,Win32,60.24096386,,,,,,,,,,,,,,,e,1,0.5423,0,69,69,25,1,细腻,e,,,,,,,,,,,,,,,,,,,,,,,,,,,,,,,,,,,,,,,,,
,,,,,,,,,,,,,,1,001,2025-02-17_15h30.58.163,IAT(Formal),2021.2.3,Win32,60.24096386,,,,,,,,,,,,,,,i,1,0.7029,0,70,70,32,1,愚蠢,i,,,,,,,,,,,,,,,,,,,,,,,,,,,,,,,,,,,,,,,,,
,,,,,,,,,,,,,,1,001,2025-02-17_15h30.58.163,IAT(Formal),2021.2.3,Win32,60.24096386,,,,,,,,,,,,,,,i,1,0.5653,0,71,71,37,1,傲慢,i,,,,,,,,,,,,,,,,,,,,,,,,,,,,,,,,,,,,,,,,,
,,,,,,,,,,,,,,1,001,2025-02-17_15h30.58.163,IAT(Formal),2021.2.3,Win32,60.24096386,,,,,,,,,,,,,,,e,1,0.5749,0,72,72,61,1,我的,e,,,,,,,,,,,,,,,,,,,,,,,,,,,,,,,,,,,,,,,,,
,,,,,,,,,,,,,,1,001,2025-02-17_15h30.58.163,IAT(Formal),2021.2.3,Win32,60.24096386,,,,,,,,,,,,,,,i,1,0.7554,0,73,73,79,1,其他,i,,,,,,,,,,,,,,,,,,,,,,,,,,,,,,,,,,,,,,,,,
,,,,,,,,,,,,,,1,001,2025-02-17_15h30.58.163,IAT(Formal),2021.2.3,Win32,60.24096386,,,,,,,,,,,,,,,i,1,0.603,0,74,74,38,1,鲁莽,i,,,,,,,,,,,,,,,,,,,,,,,,,,,,,,,,,,,,,,,,,
,,,,,,,,,,,,,,1,001,2025-02-17_15h30.58.163,IAT(Formal),2021.2.3,Win32,60.24096386,,,,,,,,,,,,,,,i,1,1.2476,0,75,75,41,1,散漫,i,,,,,,,,,,,,,,,,,,,,,,,,,,,,,,,,,,,,,,,,,
,,,,,,,,,,,,,,1,001,2025-02-17_15h30.58.163,IAT(Formal),2021.2.3,Win32,60.24096386,,,,,,,,,,,,,,,e,1,0.7449,0,76,76,22,1,无私,e,,,,,,,,,,,,,,,,,,,,,,,,,,,,,,,,,,,,,,,,,
,,,,,,,,,,,,,,1,001,2025-02-17_15h30.58.163,IAT(Formal),2021.2.3,Win32,60.24096386,,,,,,,,,,,,,,,e,1,0.5288,0,77,77,19,1,机智,e,,,,,,,,,,,,,,,,,,,,,,,,,,,,,,,,,,,,,,,,,
,,,,,,,,,,,,,,1,001,2025-02-17_15h30.58.163,IAT(Formal),2021.2.3,Win32,60.24096386,,,,,,,,,,,,,,,e,1,0.5537,0,78,78,28,1,活泼,e,,,,,,,,,,,,,,,,,,,,,,,,,,,,,,,,,,,,,,,,,
,,,,,,,,,,,,,,1,001,2025-02-17_15h30.58.163,IAT(Formal),2021.2.3,Win32,60.24096386,,,,,,,,,,,,,,,i,1,0.6153,0,79,79,65,1,他,i,,,,,,,,,,,,,,,,,,,,,,,,,,,,,,,,,,,,,,,,,
,,,,,,,,,,,,,,1,001,2025-02-17_15h30.58.163,IAT(Formal),2021.2.3,Win32,60.24096386,,,,,,,,,,,,,,,e,1,0.5191,,,,,,聪明,e,space,38.6949,0,0,0,12,1,,,,,,,,,,,,,,,,,,,,,,,,,,,,,,,,,,
,,,,,,,,,,,,,,1,001,2025-02-17_15h30.58.163,IAT(Formal),2021.2.3,Win32,60.24096386,,,,,,,,,,,,,,,e,1,0.4666,,,,,,勇敢,e,,,0,1,1,17,1,,,,,,,,,,,,,,,,,,,,,,,,,,,,,,,,,,
,,,,,,,,,,,,,,1,001,2025-02-17_15h30.58.163,IAT(Formal),2021.2.3,Win32,60.24096386,,,,,,,,,,,,,,,i,1,0.5856,,,,,,自卑,i,,,0,2,2,36,1,,,,,,,,,,,,,,,,,,,,,,,,,,,,,,,,,,
,,,,,,,,,,,,,,1,001,2025-02-17_15h30.58.163,IAT(Formal),2021.2.3,Win32,60.24096386,,,,,,,,,,,,,,,i,1,0.6596,,,,,,他的,i,,,0,3,3,77,1,,,,,,,,,,,,,,,,,,,,,,,,,,,,,,,,,,
,,,,,,,,,,,,,,1,001,2025-02-17_15h30.58.163,IAT(Formal),2021.2.3,Win32,60.24096386,,,,,,,,,,,,,,,e,1,0.6175,,,,,,俺,e,,,0,4,4,74,1,,,,,,,,,,,,,,,,,,,,,,,,,,,,,,,,,,
,,,,,,,,,,,,,,1,001,2025-02-17_15h30.58.163,IAT(Formal),2021.2.3,Win32,60.24096386,,,,,,,,,,,,,,,e,1,0.5711,,,,,,稳重,e,,,0,5,5,21,1,,,,,,,,,,,,,,,,,,,,,,,,,,,,,,,,,,
,,,,,,,,,,,,,,1,001,2025-02-17_15h30.58.163,IAT(Formal),2021.2.3,Win32,60.24096386,,,,,,,,,,,,,,,i,1,0.5746,,,,,,凶狠,i,,,0,6,6,42,1,,,,,,,,,,,,,,,,,,,,,,,,,,,,,,,,,,
,,,,,,,,,,,,,,1,001,2025-02-17_15h30.58.163,IAT(Formal),2021.2.3,Win32,60.24096386,,,,,,,,,,,,,,,e,1,0.6983,,,,,,自己,e,,,0,7,7,53,1,,,,,,,,,,,,,,,,,,,,,,,,,,,,,,,,,,
,,,,,,,,,,,,,,1,001,2025-02-17_15h30.58.163,IAT(Formal),2021.2.3,Win32,60.24096386,,,,,,,,,,,,,,,i,1,0.5715,,,,,,他人,i,,,0,8,8,8,1,,,,,,,,,,,,,,,,,,,,,,,,,,,,,,,,,,
,,,,,,,,,,,,,,1,001,2025-02-17_15h30.58.163,IAT(Formal),2021.2.3,Win32,60.24096386,,,,,,,,,,,,,,,i,1,0.7721,,,,,,暴躁,i,,,0,9,9,44,1,,,,,,,,,,,,,,,,,,,,,,,,,,,,,,,,,,
,,,,,,,,,,,,,,1,001,2025-02-17_15h30.58.163,IAT(Formal),2021.2.3,Win32,60.24096386,,,,,,,,,,,,,,,e,1,0.505,,,,,,我,e,,,0,10,10,50,1,,,,,,,,,,,,,,,,,,,,,,,,,,,,,,,,,,
,,,,,,,,,,,,,,1,001,2025-02-17_15h30.58.163,IAT(Formal),2021.2.3,Win32,60.24096386,,,,,,,,,,,,,,,i,1,0.5177,,,,,,他,i,,,0,11,11,5,1,,,,,,,,,,,,,,,,,,,,,,,,,,,,,,,,,,
,,,,,,,,,,,,,,1,001,2025-02-17_15h30.58.163,IAT(Formal),2021.2.3,Win32,60.24096386,,,,,,,,,,,,,,,e,1,0.4334,,,,,,我的,e,,,0,12,12,71,1,,,,,,,,,,,,,,,,,,,,,,,,,,,,,,,,,,
,,,,,,,,,,,,,,1,001,2025-02-17_15h30.58.163,IAT(Formal),2021.2.3,Win32,60.24096386,,,,,,,,,,,,,,,e,1,0.7094,,,,,,我们,e,,,0,13,13,72,1,,,,,,,,,,,,,,,,,,,,,,,,,,,,,,,,,,
,,,,,,,,,,,,,,1,001,2025-02-17_15h30.58.163,IAT(Formal),2021.2.3,Win32,60.24096386,,,,,,,,,,,,,,,i,1,0.834,,,,,,轻率,i,,,0,14,14,48,1,,,,,,,,,,,,,,,,,,,,,,,,,,,,,,,,,,
,,,,,,,,,,,,,,1,001,2025-02-17_15h30.58.163,IAT(Formal),2021.2.3,Win32,60.24096386,,,,,,,,,,,,,,,i,1,0.5694,,,,,,他的,i,,,0,15,15,7,1,,,,,,,,,,,,,,,,,,,,,,,,,,,,,,,,,,
,,,,,,,,,,,,,,1,001,2025-02-17_15h30.58.163,IAT(Formal),2021.2.3,Win32,60.24096386,,,,,,,,,,,,,,,i,1,0.641,,,,,,下贱,i,,,0,16,16,49,1,,,,,,,,,,,,,,,,,,,,,,,,,,,,,,,,,,
,,,,,,,,,,,,,,1,001,2025-02-17_15h30.58.163,IAT(Formal),2021.2.3,Win32,60.24096386,,,,,,,,,,,,,,,e,1,0.6366,,,,,,我的,e,,,0,17,17,51,1,,,,,,,,,,,,,,,,,,,,,,,,,,,,,,,,,,
,,,,,,,,,,,,,,1,001,2025-02-17_15h30.58.163,IAT(Formal),2021.2.3,Win32,60.24096386,,,,,,,,,,,,,,,i,1,0.5852,,,,,,他们,i,,,0,18,18,66,1,,,,,,,,,,,,,,,,,,,,,,,,,,,,,,,,,,
,,,,,,,,,,,,,,1,001,2025-02-17_15h30.58.163,IAT(Formal),2021.2.3,Win32,60.24096386,,,,,,,,,,,,,,,i,1,0.5362,,,,,,其他,i,,,0,19,19,79,1,,,,,,,,,,,,,,,,,,,,,,,,,,,,,,,,,,
,,,,,,,,,,,,,,1,001,2025-02-17_15h30.58.163,IAT(Formal),2021.2.3,Win32,60.24096386,,,,,,,,,,,,,,,i,1,0.6183,,,,,,愚蠢,i,,,0,20,20,32,1,,,,,,,,,,,,,,,,,,,,,,,,,,,,,,,,,,
,,,,,,,,,,,,,,1,001,2025-02-17_15h30.58.163,IAT(Formal),2021.2.3,Win32,60.24096386,,,,,,,,,,,,,,,e,1,0.6946,,,,,,俺,e,,,0,21,21,54,1,,,,,,,,,,,,,,,,,,,,,,,,,,,,,,,,,,
,,,,,,,,,,,,,,1,001,2025-02-17_15h30.58.163,IAT(Formal),2021.2.3,Win32,60.24096386,,,,,,,,,,,,,,,i,1,0.5172,,,,,,消极,i,,,0,22,22,35,1,,,,,,,,,,,,,,,,,,,,,,,,,,,,,,,,,,
,,,,,,,,,,,,,,1,001,2025-02-17_15h30.58.163,IAT(Formal),2021.2.3,Win32,60.24096386,,,,,,,,,,,,,,,e,1,0.5114,,,,,,自己,e,,,0,23,23,63,1,,,,,,,,,,,,,,,,,,,,,,,,,,,,,,,,,,
,,,,,,,,,,,,,,1,001,2025-02-17_15h30.58.163,IAT(Formal),2021.2.3,Win32,60.24096386,,,,,,,,,,,,,,,i,1,0.6296,,,,,,执拗,i,,,0,24,24,40,1,,,,,,,,,,,,,,,,,,,,,,,,,,,,,,,,,,
,,,,,,,,,,,,,,1,001,2025-02-17_15h30.58.163,IAT(Formal),2021.2.3,Win32,60.24096386,,,,,,,,,,,,,,,i,1,0.535,,,,,,其他,i,,,0,25,25,9,1,,,,,,,,,,,,,,,,,,,,,,,,,,,,,,,,,,
,,,,,,,,,,,,,,1,001,2025-02-17_15h30.58.163,IAT(Formal),2021.2.3,Win32,60.24096386,,,,,,,,,,,,,,,i,1,0.5137,,,,,,其他,i,,,0,26,26,59,1,,,,,,,,,,,,,,,,,,,,,,,,,,,,,,,,,,
,,,,,,,,,,,,,,1,001,2025-02-17_15h30.58.163,IAT(Formal),2021.2.3,Win32,60.24096386,,,,,,,,,,,,,,,i,1,0.7916,,,,,,固执,i,,,0,27,27,47,1,,,,,,,,,,,,,,,,,,,,,,,,,,,,,,,,,,
,,,,,,,,,,,,,,1,001,2025-02-17_15h30.58.163,IAT(Formal),2021.2.3,Win32,60.24096386,,,,,,,,,,,,,,,i,1,0.5705,,,,,,悲观,i,,,0,28,28,34,1,,,,,,,,,,,,,,,,,,,,,,,,,,,,,,,,,,
,,,,,,,,,,,,,,1,001,2025-02-17_15h30.58.163,IAT(Formal),2021.2.3,Win32,60.24096386,,,,,,,,,,,,,,,i,0,0.4834,,,,,,杰出,e,,,0,29,29,13,1,,,,,,,,,,,,,,,,,,,,,,,,,,,,,,,,,,
,,,,,,,,,,,,,,1,001,2025-02-17_15h30.58.163,IAT(Formal),2021.2.3,Win32,60.24096386,,,,,,,,,,,,,,,i,1,0.5532,,,,,,鲁莽,i,,,0,30,30,38,1,,,,,,,,,,,,,,,,,,,,,,,,,,,,,,,,,,
,,,,,,,,,,,,,,1,001,2025-02-17_15h30.58.163,IAT(Formal),2021.2.3,Win32,60.24096386,,,,,,,,,,,,,,,e,1,0.6921,,,,,,勤奋,e,,,0,31,31,18,1,,,,,,,,,,,,,,,,,,,,,,,,,,,,,,,,,,
,,,,,,,,,,,,,,1,001,2025-02-17_15h30.58.163,IAT(Formal),2021.2.3,Win32,60.24096386,,,,,,,,,,,,,,,i,1,0.635,,,,,,他们,i,,,0,32,32,76,1,,,,,,,,,,,,,,,,,,,,,,,,,,,,,,,,,,
,,,,,,,,,,,,,,1,001,2025-02-17_15h30.58.163,IAT(Formal),2021.2.3,Win32,60.24096386,,,,,,,,,,,,,,,i,1,0.6371,,,,,,冒失,i,,,0,33,33,39,1,,,,,,,,,,,,,,,,,,,,,,,,,,,,,,,,,,
,,,,,,,,,,,,,,1,001,2025-02-17_15h30.58.163,IAT(Formal),2021.2.3,Win32,60.24096386,,,,,,,,,,,,,,,e,1,1.3401,,,,,,无私,e,,,0,34,34,22,1,,,,,,,,,,,,,,,,,,,,,,,,,,,,,,,,,,
,,,,,,,,,,,,,,1,001,2025-02-17_15h30.58.163,IAT(Formal),2021.2.3,Win32,60.24096386,,,,,,,,,,,,,,,i,1,0.9481,,,,,,他的,i,,,0,35,35,67,1,,,,,,,,,,,,,,,,,,,,,,,,,,,,,,,,,,
,,,,,,,,,,,,,,1,001,2025-02-17_15h30.58.163,IAT(Formal),2021.2.3,Win32,60.24096386,,,,,,,,,,,,,,,e,1,0.667,,,,,,细腻,e,,,0,36,36,25,1,,,,,,,,,,,,,,,,,,,,,,,,,,,,,,,,,,
,,,,,,,,,,,,,,1,001,2025-02-17_15h30.58.163,IAT(Formal),2021.2.3,Win32,60.24096386,,,,,,,,,,,,,,,e,1,0.7381,,,,,,活泼,e,,,0,37,37,28,1,,,,,,,,,,,,,,,,,,,,,,,,,,,,,,,,,,
,,,,,,,,,,,,,,1,001,2025-02-17_15h30.58.163,IAT(Formal),2021.2.3,Win32,60.24096386,,,,,,,,,,,,,,,i,1,0.6558,,,,,,他人,i,,,0,38,38,68,1,,,,,,,,,,,,,,,,,,,,,,,,,,,,,,,,,,
,,,,,,,,,,,,,,1,001,2025-02-17_15h30.58.163,IAT(Formal),2021.2.3,Win32,60.24096386,,,,,,,,,,,,,,,i,1,0.6123,,,,,,傲慢,i,,,0,39,39,37,1,,,,,,,,,,,,,,,,,,,,,,,,,,,,,,,,,,
,,,,,,,,,,,,,,1,001,2025-02-17_15h30.58.163,IAT(Formal),2021.2.3,Win32,60.24096386,,,,,,,,,,,,,,,e,1,0.6276,,,,,,我,e,,,0,40,40,0,1,,,,,,,,,,,,,,,,,,,,,,,,,,,,,,,,,,
,,,,,,,,,,,,,,1,001,2025-02-17_15h30.58.163,IAT(Formal),2021.2.3,Win32,60.24096386,,,,,,,,,,,,,,,e,1,0.6655,,,,,,正直,e,,,0,41,41,16,1,,,,,,,,,,,,,,,,,,,,,,,,,,,,,,,,,,
,,,,,,,,,,,,,,1,001,2025-02-17_15h30.58.163,IAT(Formal),2021.2.3,Win32,60.24096386,,,,,,,,,,,,,,,e,1,0.5898,,,,,,乐观,e,,,0,42,42,14,1,,,,,,,,,,,,,,,,,,,,,,,,,,,,,,,,,,
,,,,,,,,,,,,,,1,001,2025-02-17_15h30.58.163,IAT(Formal),2021.2.3,Win32,60.24096386,,,,,,,,,,,,,,,e,1,0.8171,,,,,,公正,e,,,0,43,43,23,1,,,,,,,,,,,,,,,,,,,,,,,,,,,,,,,,,,
,,,,,,,,,,,,,,1,001,2025-02-17_15h30.58.163,IAT(Formal),2021.2.3,Win32,60.24096386,,,,,,,,,,,,,,,e,1,0.6102,,,,,,俺,e,,,0,44,44,64,1,,,,,,,,,,,,,,,,,,,,,,,,,,,,,,,,,,
,,,,,,,,,,,,,,1,001,2025-02-17_15h30.58.163,IAT(Formal),2021.2.3,Win32,60.24096386,,,,,,,,,,,,,,,e,1,0.5475,,,,,,朴实,e,,,0,45,45,24,1,,,,,,,,,,,,,,,,,,,,,,,,,,,,,,,,,,
,,,,,,,,,,,,,,1,001,2025-02-17_15h30.58.163,IAT(Formal),2021.2.3,Win32,60.24096386,,,,,,,,,,,,,,,e,1,0.4769,,,,,,自己,e,,,0,46,46,73,1,,,,,,,,,,,,,,,,,,,,,,,,,,,,,,,,,,
,,,,,,,,,,,,,,1,001,2025-02-17_15h30.58.163,IAT(Formal),2021.2.3,Win32,60.24096386,,,,,,,,,,,,,,,e,0,0.6319,,,,,,他人,i,,,0,47,47,58,1,,,,,,,,,,,,,,,,,,,,,,,,,,,,,,,,,,
,,,,,,,,,,,,,,1,001,2025-02-17_15h30.58.163,IAT(Formal),2021.2.3,Win32,60.24096386,,,,,,,,,,,,,,,e,1,0.511,,,,,,我们,e,,,0,48,48,2,1,,,,,,,,,,,,,,,,,,,,,,,,,,,,,,,,,,
,,,,,,,,,,,,,,1,001,2025-02-17_15h30.58.163,IAT(Formal),2021.2.3,Win32,60.24096386,,,,,,,,,,,,,,,e,1,0.6428,,,,,,俺,e,,,0,49,49,4,1,,,,,,,,,,,,,,,,,,,,,,,,,,,,,,,,,,
,,,,,,,,,,,,,,1,001,2025-02-17_15h30.58.163,IAT(Formal),2021.2.3,Win32,60.24096386,,,,,,,,,,,,,,,i,1,1.0843,,,,,,自私,i,,,0,50,50,43,1,,,,,,,,,,,,,,,,,,,,,,,,,,,,,,,,,,
,,,,,,,,,,,,,,1,001,2025-02-17_15h30.58.163,IAT(Formal),2021.2.3,Win32,60.24096386,,,,,,,,,,,,,,,i,1,0.9023,,,,,,他们,i,,,0,51,51,56,1,,,,,,,,,,,,,,,,,,,,,,,,,,,,,,,,,,
,,,,,,,,,,,,,,1,001,2025-02-17_15h30.58.163,IAT(Formal),2021.2.3,Win32,60.24096386,,,,,,,,,,,,,,,i,1,1.1535,,,,,,猖狂,i,,,0,52,52,45,1,,,,,,,,,,,,,,,,,,,,,,,,,,,,,,,,,,
,,,,,,,,,,,,,,1,001,2025-02-17_15h30.58.163,IAT(Formal),2021.2.3,Win32,60.24096386,,,,,,,,,,,,,,,e,1,0.5765,,,,,,自己,e,,,0,53,53,3,1,,,,,,,,,,,,,,,,,,,,,,,,,,,,,,,,,,
,,,,,,,,,,,,,,1,001,2025-02-17_15h30.58.163,IAT(Formal),2021.2.3,Win32,60.24096386,,,,,,,,,,,,,,,i,1,0.5975,,,,,,野蛮,i,,,0,54,54,46,1,,,,,,,,,,,,,,,,,,,,,,,,,,,,,,,,,,
,,,,,,,,,,,,,,1,001,2025-02-17_15h30.58.163,IAT(Formal),2021.2.3,Win32,60.24096386,,,,,,,,,,,,,,,e,1,0.7866,,,,,,崇高,e,,,0,55,55,11,1,,,,,,,,,,,,,,,,,,,,,,,,,,,,,,,,,,
,,,,,,,,,,,,,,1,001,2025-02-17_15h30.58.163,IAT(Formal),2021.2.3,Win32,60.24096386,,,,,,,,,,,,,,,i,1,0.6269,,,,,,散漫,i,,,0,56,56,41,1,,,,,,,,,,,,,,,,,,,,,,,,,,,,,,,,,,
,,,,,,,,,,,,,,1,001,2025-02-17_15h30.58.163,IAT(Formal),2021.2.3,Win32,60.24096386,,,,,,,,,,,,,,,e,1,0.4742,,,,,,优秀,e,,,0,57,57,10,1,,,,,,,,,,,,,,,,,,,,,,,,,,,,,,,,,,
,,,,,,,,,,,,,,1,001,2025-02-17_15h30.58.163,IAT(Formal),2021.2.3,Win32,60.24096386,,,,,,,,,,,,,,,i,1,0.6581,,,,,,他,i,,,0,58,58,55,1,,,,,,,,,,,,,,,,,,,,,,,,,,,,,,,,,,
,,,,,,,,,,,,,,1,001,2025-02-17_15h30.58.163,IAT(Formal),2021.2.3,Win32,60.24096386,,,,,,,,,,,,,,,e,1,0.4409,,,,,,我们,e,,,0,59,59,52,1,,,,,,,,,,,,,,,,,,,,,,,,,,,,,,,,,,
,,,,,,,,,,,,,,1,001,2025-02-17_15h30.58.163,IAT(Formal),2021.2.3,Win32,60.24096386,,,,,,,,,,,,,,,e,1,0.431,,,,,,我的,e,,,0,60,60,61,1,,,,,,,,,,,,,,,,,,,,,,,,,,,,,,,,,,
,,,,,,,,,,,,,,1,001,2025-02-17_15h30.58.163,IAT(Formal),2021.2.3,Win32,60.24096386,,,,,,,,,,,,,,,e,1,0.5442,,,,,,诚实,e,,,0,61,61,15,1,,,,,,,,,,,,,,,,,,,,,,,,,,,,,,,,,,
,,,,,,,,,,,,,,1,001,2025-02-17_15h30.58.163,IAT(Formal),2021.2.3,Win32,60.24096386,,,,,,,,,,,,,,,e,1,0.562,,,,,,诚恳,e,,,0,62,62,29,1,,,,,,,,,,,,,,,,,,,,,,,,,,,,,,,,,,
,,,,,,,,,,,,,,1,001,2025-02-17_15h30.58.163,IAT(Formal),2021.2.3,Win32,60.24096386,,,,,,,,,,,,,,,e,1,0.6115,,,,,,我们,e,,,0,63,63,62,1,,,,,,,,,,,,,,,,,,,,,,,,,,,,,,,,,,
,,,,,,,,,,,,,,1,001,2025-02-17_15h30.58.163,IAT(Formal),2021.2.3,Win32,60.24096386,,,,,,,,,,,,,,,e,1,0.459,,,,,,热情,e,,,0,64,64,27,1,,,,,,,,,,,,,,,,,,,,,,,,,,,,,,,,,,
,,,,,,,,,,,,,,1,001,2025-02-17_15h30.58.163,IAT(Formal),2021.2.3,Win32,60.24096386,,,,,,,,,,,,,,,e,1,0.4788,,,,,,我的,e,,,0,65,65,1,1,,,,,,,,,,,,,,,,,,,,,,,,,,,,,,,,,,
,,,,,,,,,,,,,,1,001,2025-02-17_15h30.58.163,IAT(Formal),2021.2.3,Win32,60.24096386,,,,,,,,,,,,,,,e,1,0.6677,,,,,,冷静,e,,,0,66,66,26,1,,,,,,,,,,,,,,,,,,,,,,,,,,,,,,,,,,
,,,,,,,,,,,,,,1,001,2025-02-17_15h30.58.163,IAT(Formal),2021.2.3,Win32,60.24096386,,,,,,,,,,,,,,,e,1,0.5323,,,,,,认真,e,,,0,67,67,20,1,,,,,,,,,,,,,,,,,,,,,,,,,,,,,,,,,,
,,,,,,,,,,,,,,1,001,2025-02-17_15h30.58.163,IAT(Formal),2021.2.3,Win32,60.24096386,,,,,,,,,,,,,,,i,1,0.7207,,,,,,虚伪,i,,,0,68,68,31,1,,,,,,,,,,,,,,,,,,,,,,,,,,,,,,,,,,
,,,,,,,,,,,,,,1,001,2025-02-17_15h30.58.163,IAT(Formal),2021.2.3,Win32,60.24096386,,,,,,,,,,,,,,,e,0,0.4931,,,,,,他,i,,,0,69,69,75,1,,,,,,,,,,,,,,,,,,,,,,,,,,,,,,,,,,
,,,,,,,,,,,,,,1,001,2025-02-17_15h30.58.163,IAT(Formal),2021.2.3,Win32,60.24096386,,,,,,,,,,,,,,,i,1,0.6698,,,,,,刻薄,i,,,0,70,70,33,1,,,,,,,,,,,,,,,,,,,,,,,,,,,,,,,,,,
,,,,,,,,,,,,,,1,001,2025-02-17_15h30.58.163,IAT(Formal),2021.2.3,Win32,60.24096386,,,,,,,,,,,,,,,i,1,0.6321,,,,,,其他,i,,,0,71,71,69,1,,,,,,,,,,,,,,,,,,,,,,,,,,,,,,,,,,
,,,,,,,,,,,,,,1,001,2025-02-17_15h30.58.163,IAT(Formal),2021.2.3,Win32,60.24096386,,,,,,,,,,,,,,,i,1,0.5634,,,,,,他的,i,,,0,72,72,57,1,,,,,,,,,,,,,,,,,,,,,,,,,,,,,,,,,,
,,,,,,,,,,,,,,1,001,2025-02-17_15h30.58.163,IAT(Formal),2021.2.3,Win32,60.24096386,,,,,,,,,,,,,,,e,1,0.5695,,,,,,我,e,,,0,73,73,60,1,,,,,,,,,,,,,,,,,,,,,,,,,,,,,,,,,,
,,,,,,,,,,,,,,1,001,2025-02-17_15h30.58.163,IAT(Formal),2021.2.3,Win32,60.24096386,,,,,,,,,,,,,,,i,1,0.6484,,,,,,卑鄙,i,,,0,74,74,30,1,,,,,,,,,,,,,,,,,,,,,,,,,,,,,,,,,,
,,,,,,,,,,,,,,1,001,2025-02-17_15h30.58.163,IAT(Formal),2021.2.3,Win32,60.24096386,,,,,,,,,,,,,,,e,1,0.5924,,,,,,我,e,,,0,75,75,70,1,,,,,,,,,,,,,,,,,,,,,,,,,,,,,,,,,,
,,,,,,,,,,,,,,1,001,2025-02-17_15h30.58.163,IAT(Formal),2021.2.3,Win32,60.24096386,,,,,,,,,,,,,,,e,1,0.6567,,,,,,机智,e,,,0,76,76,19,1,,,,,,,,,,,,,,,,,,,,,,,,,,,,,,,,,,
,,,,,,,,,,,,,,1,001,2025-02-17_15h30.58.163,IAT(Formal),2021.2.3,Win32,60.24096386,,,,,,,,,,,,,,,i,1,0.5872,,,,,,他人,i,,,0,77,77,78,1,,,,,,,,,,,,,,,,,,,,,,,,,,,,,,,,,,
,,,,,,,,,,,,,,1,001,2025-02-17_15h30.58.163,IAT(Formal),2021.2.3,Win32,60.24096386,,,,,,,,,,,,,,,i,1,0.9633,,,,,,他,i,,,0,78,78,65,1,,,,,,,,,,,,,,,,,,,,,,,,,,,,,,,,,,
,,,,,,,,,,,,,,1,001,2025-02-17_15h30.58.163,IAT(Formal),2021.2.3,Win32,60.24096386,,,,,,,,,,,,,,,i,1,0.6181,,,,,,他们,i,,,0,79,79,6,1,,,,,,,,,,,,,,,,,,,,,,,,,,,,,,,,,,
,,,,,,,,,,,,,,1,001,2025-02-17_15h30.58.163,IAT(Formal),2021.2.3,Win32,60.24096386,,,,,,,,,,,,,,,e,1,0.5974,,,,,,俺,e,,,1,0,80,74,1,,,,,,,,,,,,,,,,,,,,,,,,,,,,,,,,,,
,,,,,,,,,,,,,,1,001,2025-02-17_15h30.58.163,IAT(Formal),2021.2.3,Win32,60.24096386,,,,,,,,,,,,,,,i,1,0.5822,,,,,,悲观,i,,,1,1,81,34,1,,,,,,,,,,,,,,,,,,,,,,,,,,,,,,,,,,
,,,,,,,,,,,,,,1,001,2025-02-17_15h30.58.163,IAT(Formal),2021.2.3,Win32,60.24096386,,,,,,,,,,,,,,,i,1,0.5348,,,,,,消极,i,,,1,2,82,35,1,,,,,,,,,,,,,,,,,,,,,,,,,,,,,,,,,,
,,,,,,,,,,,,,,1,001,2025-02-17_15h30.58.163,IAT(Formal),2021.2.3,Win32,60.24096386,,,,,,,,,,,,,,,e,1,0.6922,,,,,,自己,e,,,1,3,83,63,1,,,,,,,,,,,,,,,,,,,,,,,,,,,,,,,,,,
,,,,,,,,,,,,,,1,001,2025-02-17_15h30.58.163,IAT(Formal),2021.2.3,Win32,60.24096386,,,,,,,,,,,,,,,e,1,0.6354,,,,,,诚实,e,,,1,4,84,15,1,,,,,,,,,,,,,,,,,,,,,,,,,,,,,,,,,,
,,,,,,,,,,,,,,1,001,2025-02-17_15h30.58.163,IAT(Formal),2021.2.3,Win32,60.24096386,,,,,,,,,,,,,,,i,1,0.6805,,,,,,自卑,i,,,1,5,85,36,1,,,,,,,,,,,,,,,,,,,,,,,,,,,,,,,,,,
,,,,,,,,,,,,,,1,001,2025-02-17_15h30.58.163,IAT(Formal),2021.2.3,Win32,60.24096386,,,,,,,,,,,,,,,e,1,0.7033,,,,,,朴实,e,,,1,6,86,24,1,,,,,,,,,,,,,,,,,,,,,,,,,,,,,,,,,,
,,,,,,,,,,,,,,1,001,2025-02-17_15h30.58.163,IAT(Formal),2021.2.3,Win32,60.24096386,,,,,,,,,,,,,,,e,1,0.5272,,,,,,我,e,,,1,7,87,60,1,,,,,,,,,,,,,,,,,,,,,,,,,,,,,,,,,,
,,,,,,,,,,,,,,1,001,2025-02-17_15h30.58.163,IAT(Formal),2021.2.3,Win32,60.24096386,,,,,,,,,,,,,,,i,1,0.5774,,,,,,他人,i,,,1,8,88,8,1,,,,,,,,,,,,,,,,,,,,,,,,,,,,,,,,,,
,,,,,,,,,,,,,,1,001,2025-02-17_15h30.58.163,IAT(Formal),2021.2.3,Win32,60.24096386,,,,,,,,,,,,,,,e,1,0.7065,,,,,,我的,e,,,1,9,89,51,1,,,,,,,,,,,,,,,,,,,,,,,,,,,,,,,,,,
,,,,,,,,,,,,,,1,001,2025-02-17_15h30.58.163,IAT(Formal),2021.2.3,Win32,60.24096386,,,,,,,,,,,,,,,,0,,,,,,,轻率,i,,,1,10,90,48,1,,,,,,,,,,,,,,,,,,,,,,,,,,,,,,,,,,
,,,,,,,,,,,,,,1,001,2025-02-17_15h30.58.163,IAT(Formal),2021.2.3,Win32,60.24096386,,,,,,,,,,,,,,,i,1,0.7193,,,,,,其他,i,,,1,11,91,69,1,,,,,,,,,,,,,,,,,,,,,,,,,,,,,,,,,,
,,,,,,,,,,,,,,1,001,2025-02-17_15h30.58.163,IAT(Formal),2021.2.3,Win32,60.24096386,,,,,,,,,,,,,,,i,1,0.6302,,,,,,他的,i,,,1,12,92,57,1,,,,,,,,,,,,,,,,,,,,,,,,,,,,,,,,,,
,,,,,,,,,,,,,,1,001,2025-02-17_15h30.58.163,IAT(Formal),2021.2.3,Win32,60.24096386,,,,,,,,,,,,,,,e,1,0.5969,,,,,,诚恳,e,,,1,13,93,29,1,,,,,,,,,,,,,,,,,,,,,,,,,,,,,,,,,,
,,,,,,,,,,,,,,1,001,2025-02-17_15h30.58.163,IAT(Formal),2021.2.3,Win32,60.24096386,,,,,,,,,,,,,,,e,1,0.6936,,,,,,我们,e,,,1,14,94,72,1,,,,,,,,,,,,,,,,,,,,,,,,,,,,,,,,,,
,,,,,,,,,,,,,,1,001,2025-02-17_15h30.58.163,IAT(Formal),2021.2.3,Win32,60.24096386,,,,,,,,,,,,,,,e,1,0.6358,,,,,,俺,e,,,1,15,95,64,1,,,,,,,,,,,,,,,,,,,,,,,,,,,,,,,,,,
,,,,,,,,,,,,,,1,001,2025-02-17_15h30.58.163,IAT(Formal),2021.2.3,Win32,60.24096386,,,,,,,,,,,,,,,i,1,1.0717,,,,,,虚伪,i,,,1,16,96,31,1,,,,,,,,,,,,,,,,,,,,,,,,,,,,,,,,,,
,,,,,,,,,,,,,,1,001,2025-02-17_15h30.58.163,IAT(Formal),2021.2.3,Win32,60.24096386,,,,,,,,,,,,,,,e,1,0.6501,,,,,,俺,e,,,1,17,97,4,1,,,,,,,,,,,,,,,,,,,,,,,,,,,,,,,,,,
,,,,,,,,,,,,,,1,001,2025-02-17_15h30.58.163,IAT(Formal),2021.2.3,Win32,60.24096386,,,,,,,,,,,,,,,i,1,0.6421,,,,,,冒失,i,,,1,18,98,39,1,,,,,,,,,,,,,,,,,,,,,,,,,,,,,,,,,,
,,,,,,,,,,,,,,1,001,2025-02-17_15h30.58.163,IAT(Formal),2021.2.3,Win32,60.24096386,,,,,,,,,,,,,,,e,1,0.5308,,,,,,优秀,e,,,1,19,99,10,1,,,,,,,,,,,,,,,,,,,,,,,,,,,,,,,,,,
,,,,,,,,,,,,,,1,001,2025-02-17_15h30.58.163,IAT(Formal),2021.2.3,Win32,60.24096386,,,,,,,,,,,,,,,e,1,0.6794,,,,,,自己,e,,,1,20,100,73,1,,,,,,,,,,,,,,,,,,,,,,,,,,,,,,,,,,
,,,,,,,,,,,,,,1,001,2025-02-17_15h30.58.163,IAT(Formal),2021.2.3,Win32,60.24096386,,,,,,,,,,,,,,,i,1,1.0535,,,,,,他的,i,,,1,21,101,67,1,,,,,,,,,,,,,,,,,,,,,,,,,,,,,,,,,,
,,,,,,,,,,,,,,1,001,2025-02-17_15h30.58.163,IAT(Formal),2021.2.3,Win32,60.24096386,,,,,,,,,,,,,,,i,1,0.7582,,,,,,鲁莽,i,,,1,22,102,38,1,,,,,,,,,,,,,,,,,,,,,,,,,,,,,,,,,,
,,,,,,,,,,,,,,1,001,2025-02-17_15h30.58.163,IAT(Formal),2021.2.3,Win32,60.24096386,,,,,,,,,,,,,,,e,1,0.6375,,,,,,我,e,,,1,23,103,70,1,,,,,,,,,,,,,,,,,,,,,,,,,,,,,,,,,,
,,,,,,,,,,,,,,1,001,2025-02-17_15h30.58.163,IAT(Formal),2021.2.3,Win32,60.24096386,,,,,,,,,,,,,,,i,1,0.6101,,,,,,执拗,i,,,1,24,104,40,1,,,,,,,,,,,,,,,,,,,,,,,,,,,,,,,,,,
,,,,,,,,,,,,,,1,001,2025-02-17_15h30.58.163,IAT(Formal),2021.2.3,Win32,60.24096386,,,,,,,,,,,,,,,i,1,0.8634,,,,,,愚蠢,i,,,1,25,105,32,1,,,,,,,,,,,,,,,,,,,,,,,,,,,,,,,,,,
,,,,,,,,,,,,,,1,001,2025-02-17_15h30.58.163,IAT(Formal),2021.2.3,Win32,60.24096386,,,,,,,,,,,,,,,e,1,0.7224,,,,,,乐观,e,,,1,26,106,14,1,,,,,,,,,,,,,,,,,,,,,,,,,,,,,,,,,,
,,,,,,,,,,,,,,1,001,2025-02-17_15h30.58.163,IAT(Formal),2021.2.3,Win32,60.24096386,,,,,,,,,,,,,,,e,1,0.5488,,,,,,认真,e,,,1,27,107,20,1,,,,,,,,,,,,,,,,,,,,,,,,,,,,,,,,,,
,,,,,,,,,,,,,,1,001,2025-02-17_15h30.58.163,IAT(Formal),2021.2.3,Win32,60.24096386,,,,,,,,,,,,,,,i,0,0.6365,,,,,,无私,e,,,1,28,108,22,1,,,,,,,,,,,,,,,,,,,,,,,,,,,,,,,,,,
,,,,,,,,,,,,,,1,001,2025-02-17_15h30.58.163,IAT(Formal),2021.2.3,Win32,60.24096386,,,,,,,,,,,,,,,e,1,0.5339,,,,,,机智,e,,,1,29,109,19,1,,,,,,,,,,,,,,,,,,,,,,,,,,,,,,,,,,
,,,,,,,,,,,,,,1,001,2025-02-17_15h30.58.163,IAT(Formal),2021.2.3,Win32,60.24096386,,,,,,,,,,,,,,,e,1,0.481,,,,,,我们,e,,,1,30,110,2,1,,,,,,,,,,,,,,,,,,,,,,,,,,,,,,,,,,
,,,,,,,,,,,,,,1,001,2025-02-17_15h30.58.163,IAT(Formal),2021.2.3,Win32,60.24096386,,,,,,,,,,,,,,,e,1,0.5648,,,,,,公正,e,,,1,31,111,23,1,,,,,,,,,,,,,,,,,,,,,,,,,,,,,,,,,,
,,,,,,,,,,,,,,1,001,2025-02-17_15h30.58.163,IAT(Formal),2021.2.3,Win32,60.24096386,,,,,,,,,,,,,,,e,1,0.4612,,,,,,聪明,e,,,1,32,112,12,1,,,,,,,,,,,,,,,,,,,,,,,,,,,,,,,,,,
,,,,,,,,,,,,,,1,001,2025-02-17_15h30.58.163,IAT(Formal),2021.2.3,Win32,60.24096386,,,,,,,,,,,,,,,e,1,0.429,,,,,,正直,e,,,1,33,113,16,1,,,,,,,,,,,,,,,,,,,,,,,,,,,,,,,,,,
,,,,,,,,,,,,,,1,001,2025-02-17_15h30.58.163,IAT(Formal),2021.2.3,Win32,60.24096386,,,,,,,,,,,,,,,e,1,0.6327,,,,,,细腻,e,,,1,34,114,25,1,,,,,,,,,,,,,,,,,,,,,,,,,,,,,,,,,,
,,,,,,,,,,,,,,1,001,2025-02-17_15h30.58.163,IAT(Formal),2021.2.3,Win32,60.24096386,,,,,,,,,,,,,,,i,1,0.8503,,,,,,散漫,i,,,1,35,115,41,1,,,,,,,,,,,,,,,,,,,,,,,,,,,,,,,,,,
,,,,,,,,,,,,,,1,001,2025-02-17_15h30.58.163,IAT(Formal),2021.2.3,Win32,60.24096386,,,,,,,,,,,,,,,e,1,0.5995,,,,,,我们,e,,,1,36,116,62,1,,,,,,,,,,,,,,,,,,,,,,,,,,,,,,,,,,
,,,,,,,,,,,,,,1,001,2025-02-17_15h30.58.163,IAT(Formal),2021.2.3,Win32,60.24096386,,,,,,,,,,,,,,,e,1,0.5329,,,,,,崇高,e,,,1,37,117,11,1,,,,,,,,,,,,,,,,,,,,,,,,,,,,,,,,,,
,,,,,,,,,,,,,,1,001,2025-02-17_15h30.58.163,IAT(Formal),2021.2.3,Win32,60.24096386,,,,,,,,,,,,,,,i,1,0.6866,,,,,,其他,i,,,1,38,118,79,1,,,,,,,,,,,,,,,,,,,,,,,,,,,,,,,,,,
,,,,,,,,,,,,,,1,001,2025-02-17_15h30.58.163,IAT(Formal),2021.2.3,Win32,60.24096386,,,,,,,,,,,,,,,e,1,0.5633,,,,,,我们,e,,,1,39,119,52,1,,,,,,,,,,,,,,,,,,,,,,,,,,,,,,,,,,
,,,,,,,,,,,,,,1,001,2025-02-17_15h30.58.163,IAT(Formal),2021.2.3,Win32,60.24096386,,,,,,,,,,,,,,,i,1,0.7741,,,,,,野蛮,i,,,1,40,120,46,1,,,,,,,,,,,,,,,,,,,,,,,,,,,,,,,,,,
,,,,,,,,,,,,,,1,001,2025-02-17_15h30.58.163,IAT(Formal),2021.2.3,Win32,60.24096386,,,,,,,,,,,,,,,i,1,0.5775,,,,,,他,i,,,1,41,121,75,1,,,,,,,,,,,,,,,,,,,,,,,,,,,,,,,,,,
,,,,,,,,,,,,,,1,001,2025-02-17_15h30.58.163,IAT(Formal),2021.2.3,Win32,60.24096386,,,,,,,,,,,,,,,i,1,0.7843,,,,,,他,i,,,1,42,122,65,1,,,,,,,,,,,,,,,,,,,,,,,,,,,,,,,,,,
,,,,,,,,,,,,,,1,001,2025-02-17_15h30.58.163,IAT(Formal),2021.2.3,Win32,60.24096386,,,,,,,,,,,,,,,e,1,0.6058,,,,,,自己,e,,,1,43,123,53,1,,,,,,,,,,,,,,,,,,,,,,,,,,,,,,,,,,
,,,,,,,,,,,,,,1,001,2025-02-17_15h30.58.163,IAT(Formal),2021.2.3,Win32,60.24096386,,,,,,,,,,,,,,,e,1,0.5303,,,,,,热情,e,,,1,44,124,27,1,,,,,,,,,,,,,,,,,,,,,,,,,,,,,,,,,,
,,,,,,,,,,,,,,1,001,2025-02-17_15h30.58.163,IAT(Formal),2021.2.3,Win32,60.24096386,,,,,,,,,,,,,,,i,1,0.5975,,,,,,他们,i,,,1,45,125,56,1,,,,,,,,,,,,,,,,,,,,,,,,,,,,,,,,,,
,,,,,,,,,,,,,,1,001,2025-02-17_15h30.58.163,IAT(Formal),2021.2.3,Win32,60.24096386,,,,,,,,,,,,,,,i,1,0.6495,,,,,,下贱,i,,,1,46,126,49,1,,,,,,,,,,,,,,,,,,,,,,,,,,,,,,,,,,
,,,,,,,,,,,,,,1,001,2025-02-17_15h30.58.163,IAT(Formal),2021.2.3,Win32,60.24096386,,,,,,,,,,,,,,,e,1,0.5998,,,,,,勇敢,e,,,1,47,127,17,1,,,,,,,,,,,,,,,,,,,,,,,,,,,,,,,,,,
,,,,,,,,,,,,,,1,001,2025-02-17_15h30.58.163,IAT(Formal),2021.2.3,Win32,60.24096386,,,,,,,,,,,,,,,i,1,0.6132,,,,,,他们,i,,,1,48,128,66,1,,,,,,,,,,,,,,,,,,,,,,,,,,,,,,,,,,
,,,,,,,,,,,,,,1,001,2025-02-17_15h30.58.163,IAT(Formal),2021.2.3,Win32,60.24096386,,,,,,,,,,,,,,,i,1,0.6503,,,,,,他人,i,,,1,49,129,68,1,,,,,,,,,,,,,,,,,,,,,,,,,,,,,,,,,,
,,,,,,,,,,,,,,1,001,2025-02-17_15h30.58.163,IAT(Formal),2021.2.3,Win32,60.24096386,,,,,,,,,,,,,,,i,1,0.5999,,,,,,其他,i,,,1,50,130,59,1,,,,,,,,,,,,,,,,,,,,,,,,,,,,,,,,,,
,,,,,,,,,,,,,,1,001,2025-02-17_15h30.58.163,IAT(Formal),2021.2.3,Win32,60.24096386,,,,,,,,,,,,,,,i,1,0.5505,,,,,,其他,i,,,1,51,131,9,1,,,,,,,,,,,,,,,,,,,,,,,,,,,,,,,,,,
,,,,,,,,,,,,,,1,001,2025-02-17_15h30.58.163,IAT(Formal),2021.2.3,Win32,60.24096386,,,,,,,,,,,,,,,i,1,0.8606,,,,,,他的,i,,,1,52,132,77,1,,,,,,,,,,,,,,,,,,,,,,,,,,,,,,,,,,
,,,,,,,,,,,,,,1,001,2025-02-17_15h30.58.163,IAT(Formal),2021.2.3,Win32,60.24096386,,,,,,,,,,,,,,,e,1,0.5732,,,,,,我,e,,,1,53,133,0,1,,,,,,,,,,,,,,,,,,,,,,,,,,,,,,,,,,
,,,,,,,,,,,,,,1,001,2025-02-17_15h30.58.163,IAT(Formal),2021.2.3,Win32,60.24096386,,,,,,,,,,,,,,,i,1,0.5972,,,,,,傲慢,i,,,1,54,134,37,1,,,,,,,,,,,,,,,,,,,,,,,,,,,,,,,,,,
,,,,,,,,,,,,,,1,001,2025-02-17_15h30.58.163,IAT(Formal),2021.2.3,Win32,60.24096386,,,,,,,,,,,,,,,i,1,0.545,,,,,,他们,i,,,1,55,135,6,1,,,,,,,,,,,,,,,,,,,,,,,,,,,,,,,,,,
,,,,,,,,,,,,,,1,001,2025-02-17_15h30.58.163,IAT(Formal),2021.2.3,Win32,60.24096386,,,,,,,,,,,,,,,i,1,0.5597,,,,,,他,i,,,1,56,136,5,1,,,,,,,,,,,,,,,,,,,,,,,,,,,,,,,,,,
,,,,,,,,,,,,,,1,001,2025-02-17_15h30.58.163,IAT(Formal),2021.2.3,Win32,60.24096386,,,,,,,,,,,,,,,i,1,0.6327,,,,,,猖狂,i,,,1,57,137,45,1,,,,,,,,,,,,,,,,,,,,,,,,,,,,,,,,,,
,,,,,,,,,,,,,,1,001,2025-02-17_15h30.58.163,IAT(Formal),2021.2.3,Win32,60.24096386,,,,,,,,,,,,,,,e,0,1.0064,,,,,,自私,i,,,1,58,138,43,1,,,,,,,,,,,,,,,,,,,,,,,,,,,,,,,,,,
,,,,,,,,,,,,,,1,001,2025-02-17_15h30.58.163,IAT(Formal),2021.2.3,Win32,60.24096386,,,,,,,,,,,,,,,i,1,0.595,,,,,,暴躁,i,,,1,59,139,44,1,,,,,,,,,,,,,,,,,,,,,,,,,,,,,,,,,,
,,,,,,,,,,,,,,1,001,2025-02-17_15h30.58.163,IAT(Formal),2021.2.3,Win32,60.24096386,,,,,,,,,,,,,,,e,1,0.875,,,,,,勤奋,e,,,1,60,140,18,1,,,,,,,,,,,,,,,,,,,,,,,,,,,,,,,,,,
,,,,,,,,,,,,,,1,001,2025-02-17_15h30.58.163,IAT(Formal),2021.2.3,Win32,60.24096386,,,,,,,,,,,,,,,e,1,0.4758,,,,,,我的,e,,,1,61,141,1,1,,,,,,,,,,,,,,,,,,,,,,,,,,,,,,,,,,
,,,,,,,,,,,,,,1,001,2025-02-17_15h30.58.163,IAT(Formal),2021.2.3,Win32,60.24096386,,,,,,,,,,,,,,,i,1,1.2296,,,,,,固执,i,,,1,62,142,47,1,,,,,,,,,,,,,,,,,,,,,,,,,,,,,,,,,,
,,,,,,,,,,,,,,1,001,2025-02-17_15h30.58.163,IAT(Formal),2021.2.3,Win32,60.24096386,,,,,,,,,,,,,,,e,1,0.4833,,,,,,自己,e,,,1,63,143,3,1,,,,,,,,,,,,,,,,,,,,,,,,,,,,,,,,,,
,,,,,,,,,,,,,,1,001,2025-02-17_15h30.58.163,IAT(Formal),2021.2.3,Win32,60.24096386,,,,,,,,,,,,,,,i,1,0.6276,,,,,,他,i,,,1,64,144,55,1,,,,,,,,,,,,,,,,,,,,,,,,,,,,,,,,,,
,,,,,,,,,,,,,,1,001,2025-02-17_15h30.58.163,IAT(Formal),2021.2.3,Win32,60.24096386,,,,,,,,,,,,,,,i,1,0.7266,,,,,,刻薄,i,,,1,65,145,33,1,,,,,,,,,,,,,,,,,,,,,,,,,,,,,,,,,,
,,,,,,,,,,,,,,1,001,2025-02-17_15h30.58.163,IAT(Formal),2021.2.3,Win32,60.24096386,,,,,,,,,,,,,,,e,1,0.7274,,,,,,冷静,e,,,1,66,146,26,1,,,,,,,,,,,,,,,,,,,,,,,,,,,,,,,,,,
,,,,,,,,,,,,,,1,001,2025-02-17_15h30.58.163,IAT(Formal),2021.2.3,Win32,60.24096386,,,,,,,,,,,,,,,i,1,0.6597,,,,,,凶狠,i,,,1,67,147,42,1,,,,,,,,,,,,,,,,,,,,,,,,,,,,,,,,,,
,,,,,,,,,,,,,,1,001,2025-02-17_15h30.58.163,IAT(Formal),2021.2.3,Win32,60.24096386,,,,,,,,,,,,,,,e,1,0.5541,,,,,,活泼,e,,,1,68,148,28,1,,,,,,,,,,,,,,,,,,,,,,,,,,,,,,,,,,
,,,,,,,,,,,,,,1,001,2025-02-17_15h30.58.163,IAT(Formal),2021.2.3,Win32,60.24096386,,,,,,,,,,,,,,,i,1,0.6391,,,,,,卑鄙,i,,,1,69,149,30,1,,,,,,,,,,,,,,,,,,,,,,,,,,,,,,,,,,
,,,,,,,,,,,,,,1,001,2025-02-17_15h30.58.163,IAT(Formal),2021.2.3,Win32,60.24096386,,,,,,,,,,,,,,,i,1,0.8814,,,,,,他人,i,,,1,70,150,78,1,,,,,,,,,,,,,,,,,,,,,,,,,,,,,,,,,,
,,,,,,,,,,,,,,1,001,2025-02-17_15h30.58.163,IAT(Formal),2021.2.3,Win32,60.24096386,,,,,,,,,,,,,,,e,1,0.8445,,,,,,稳重,e,,,1,71,151,21,1,,,,,,,,,,,,,,,,,,,,,,,,,,,,,,,,,,
,,,,,,,,,,,,,,1,001,2025-02-17_15h30.58.163,IAT(Formal),2021.2.3,Win32,60.24096386,,,,,,,,,,,,,,,e,1,0.7044,,,,,,俺,e,,,1,72,152,54,1,,,,,,,,,,,,,,,,,,,,,,,,,,,,,,,,,,
,,,,,,,,,,,,,,1,001,2025-02-17_15h30.58.163,IAT(Formal),2021.2.3,Win32,60.24096386,,,,,,,,,,,,,,,e,1,0.5505,,,,,,我的,e,,,1,73,153,61,1,,,,,,,,,,,,,,,,,,,,,,,,,,,,,,,,,,
,,,,,,,,,,,,,,1,001,2025-02-17_15h30.58.163,IAT(Formal),2021.2.3,Win32,60.24096386,,,,,,,,,,,,,,,e,1,0.5397,,,,,,杰出,e,,,1,74,154,13,1,,,,,,,,,,,,,,,,,,,,,,,,,,,,,,,,,,
,,,,,,,,,,,,,,1,001,2025-02-17_15h30.58.163,IAT(Formal),2021.2.3,Win32,60.24096386,,,,,,,,,,,,,,,e,1,0.4452,,,,,,我,e,,,1,75,155,50,1,,,,,,,,,,,,,,,,,,,,,,,,,,,,,,,,,,
,,,,,,,,,,,,,,1,001,2025-02-17_15h30.58.163,IAT(Formal),2021.2.3,Win32,60.24096386,,,,,,,,,,,,,,,i,1,0.6835,,,,,,他的,i,,,1,76,156,7,1,,,,,,,,,,,,,,,,,,,,,,,,,,,,,,,,,,
,,,,,,,,,,,,,,1,001,2025-02-17_15h30.58.163,IAT(Formal),2021.2.3,Win32,60.24096386,,,,,,,,,,,,,,,i,1,0.5832,,,,,,他们,i,,,1,77,157,76,1,,,,,,,,,,,,,,,,,,,,,,,,,,,,,,,,,,
,,,,,,,,,,,,,,1,001,2025-02-17_15h30.58.163,IAT(Formal),2021.2.3,Win32,60.24096386,,,,,,,,,,,,,,,i,1,0.5671,,,,,,他人,i,,,1,78,158,58,1,,,,,,,,,,,,,,,,,,,,,,,,,,,,,,,,,,
,,,,,,,,,,,,,,1,001,2025-02-17_15h30.58.163,IAT(Formal),2021.2.3,Win32,60.24096386,,,,,,,,,,,,,,,e,1,0.5292,,,,,,我的,e,,,1,79,159,71,1,,,,,,,,,,,,,,,,,,,,,,,,,,,,,,,,,,
,,,,,,,,,,,,他们,e,1,001,2025-02-17_15h30.58.163,IAT(Formal),2021.2.3,Win32,60.24096386,,,,,,,,,,,,,,,,,,,,,,,,,,,,,,,,space,23.1259,e,1,1.0179,0,0,0,6,1,,,,,,,,,,,,,,,,,,,,,,,,
,,,,,,,,,,,,他的,e,1,001,2025-02-17_15h30.58.163,IAT(Formal),2021.2.3,Win32,60.24096386,,,,,,,,,,,,,,,,,,,,,,,,,,,,,,,,,,e,1,0.5859,0,1,1,7,1,,,,,,,,,,,,,,,,,,,,,,,,
,,,,,,,,,,,,他,e,1,001,2025-02-17_15h30.58.163,IAT(Formal),2021.2.3,Win32,60.24096386,,,,,,,,,,,,,,,,,,,,,,,,,,,,,,,,,,e,1,0.6526,0,2,2,5,1,,,,,,,,,,,,,,,,,,,,,,,,
,,,,,,,,,,,,我的,i,1,001,2025-02-17_15h30.58.163,IAT(Formal),2021.2.3,Win32,60.24096386,,,,,,,,,,,,,,,,,,,,,,,,,,,,,,,,,,i,1,0.8841,0,3,3,1,1,,,,,,,,,,,,,,,,,,,,,,,,
,,,,,,,,,,,,我,i,1,001,2025-02-17_15h30.58.163,IAT(Formal),2021.2.3,Win32,60.24096386,,,,,,,,,,,,,,,,,,,,,,,,,,,,,,,,,,i,1,1.0639,0,4,4,0,1,,,,,,,,,,,,,,,,,,,,,,,,
,,,,,,,,,,,,其他,e,1,001,2025-02-17_15h30.58.163,IAT(Formal),2021.2.3,Win32,60.24096386,,,,,,,,,,,,,,,,,,,,,,,,,,,,,,,,,,e,1,0.7901,0,5,5,9,1,,,,,,,,,,,,,,,,,,,,,,,,
,,,,,,,,,,,,俺,i,1,001,2025-02-17_15h30.58.163,IAT(Formal),2021.2.3,Win32,60.24096386,,,,,,,,,,,,,,,,,,,,,,,,,,,,,,,,,,i,1,0.839,0,6,6,4,1,,,,,,,,,,,,,,,,,,,,,,,,
,,,,,,,,,,,,他人,e,1,001,2025-02-17_15h30.58.163,IAT(Formal),2021.2.3,Win32,60.24096386,,,,,,,,,,,,,,,,,,,,,,,,,,,,,,,,,,e,1,0.6024,0,7,7,8,1,,,,,,,,,,,,,,,,,,,,,,,,
,,,,,,,,,,,,我们,i,1,001,2025-02-17_15h30.58.163,IAT(Formal),2021.2.3,Win32,60.24096386,,,,,,,,,,,,,,,,,,,,,,,,,,,,,,,,,,i,1,0.9597,0,8,8,2,1,,,,,,,,,,,,,,,,,,,,,,,,
,,,,,,,,,,,,自己,i,1,001,2025-02-17_15h30.58.163,IAT(Formal),2021.2.3,Win32,60.24096386,,,,,,,,,,,,,,,,,,,,,,,,,,,,,,,,,,i,1,0.9869,0,9,9,3,1,,,,,,,,,,,,,,,,,,,,,,,,
,,,,,,,,,,,,,,1,001,2025-02-17_15h30.58.163,IAT(Formal),2021.2.3,Win32,60.24096386,,,,,,,,,,,,,,,,,,,,,,,,,,,,,,,,,,,,,,,,,,space,6.0024,e,1,0.6743,0,0,0,66,1,他们,e,,,,,,,,,,,,
,,,,,,,,,,,,,,1,001,2025-02-17_15h30.58.163,IAT(Formal),2021.2.3,Win32,60.24096386,,,,,,,,,,,,,,,,,,,,,,,,,,,,,,,,,,,,,,,,,,,,e,1,0.7109,0,1,1,67,1,他的,e,,,,,,,,,,,,
,,,,,,,,,,,,,,1,001,2025-02-17_15h30.58.163,IAT(Formal),2021.2.3,Win32,60.24096386,,,,,,,,,,,,,,,,,,,,,,,,,,,,,,,,,,,,,,,,,,,,i,1,1.1868,0,2,2,47,1,固执,i,,,,,,,,,,,,
,,,,,,,,,,,,,,1,001,2025-02-17_15h30.58.163,IAT(Formal),2021.2.3,Win32,60.24096386,,,,,,,,,,,,,,,,,,,,,,,,,,,,,,,,,,,,,,,,,,,,e,1,1.1591,0,3,3,16,1,正直,e,,,,,,,,,,,,
,,,,,,,,,,,,,,1,001,2025-02-17_15h30.58.163,IAT(Formal),2021.2.3,Win32,60.24096386,,,,,,,,,,,,,,,,,,,,,,,,,,,,,,,,,,,,,,,,,,,,i,1,0.9403,0,4,4,33,1,刻薄,i,,,,,,,,,,,,
,,,,,,,,,,,,,,1,001,2025-02-17_15h30.58.163,IAT(Formal),2021.2.3,Win32,60.24096386,,,,,,,,,,,,,,,,,,,,,,,,,,,,,,,,,,,,,,,,,,,,i,1,0.6903,0,5,5,35,1,消极,i,,,,,,,,,,,,
,,,,,,,,,,,,,,1,001,2025-02-17_15h30.58.163,IAT(Formal),2021.2.3,Win32,60.24096386,,,,,,,,,,,,,,,,,,,,,,,,,,,,,,,,,,,,,,,,,,,,e,1,1.2571,0,6,6,9,1,其他,e,,,,,,,,,,,,
,,,,,,,,,,,,,,1,001,2025-02-17_15h30.58.163,IAT(Formal),2021.2.3,Win32,60.24096386,,,,,,,,,,,,,,,,,,,,,,,,,,,,,,,,,,,,,,,,,,,,i,0,0.9903,0,7,7,58,1,他人,e,,,,,,,,,,,,
,,,,,,,,,,,,,,1,001,2025-02-17_15h30.58.163,IAT(Formal),2021.2.3,Win32,60.24096386,,,,,,,,,,,,,,,,,,,,,,,,,,,,,,,,,,,,,,,,,,,,e,1,0.8765,0,8,8,5,1,他,e,,,,,,,,,,,,
,,,,,,,,,,,,,,1,001,2025-02-17_15h30.58.163,IAT(Formal),2021.2.3,Win32,60.24096386,,,,,,,,,,,,,,,,,,,,,,,,,,,,,,,,,,,,,,,,,,,,e,1,1.1627,0,9,9,17,1,勇敢,e,,,,,,,,,,,,
,,,,,,,,,,,,,,1,001,2025-02-17_15h30.58.163,IAT(Formal),2021.2.3,Win32,60.24096386,,,,,,,,,,,,,,,,,,,,,,,,,,,,,,,,,,,,,,,,,,,,,0,,0,10,10,76,1,他们,e,,,,,,,,,,,,
,,,,,,,,,,,,,,1,001,2025-02-17_15h30.58.163,IAT(Formal),2021.2.3,Win32,60.24096386,,,,,,,,,,,,,,,,,,,,,,,,,,,,,,,,,,,,,,,,,,,,e,1,1.0023,0,11,11,12,1,聪明,e,,,,,,,,,,,,
,,,,,,,,,,,,,,1,001,2025-02-17_15h30.58.163,IAT(Formal),2021.2.3,Win32,60.24096386,,,,,,,,,,,,,,,,,,,,,,,,,,,,,,,,,,,,,,,,,,,,i,1,0.8492,0,12,12,52,1,我们,i,,,,,,,,,,,,
,,,,,,,,,,,,,,1,001,2025-02-17_15h30.58.163,IAT(Formal),2021.2.3,Win32,60.24096386,,,,,,,,,,,,,,,,,,,,,,,,,,,,,,,,,,,,,,,,,,,,e,1,0.8792,0,13,13,28,1,活泼,e,,,,,,,,,,,,
,,,,,,,,,,,,,,1,001,2025-02-17_15h30.58.163,IAT(Formal),2021.2.3,Win32,60.24096386,,,,,,,,,,,,,,,,,,,,,,,,,,,,,,,,,,,,,,,,,,,,e,1,0.6349,0,14,14,13,1,杰出,e,,,,,,,,,,,,
,,,,,,,,,,,,,,1,001,2025-02-17_15h30.58.163,IAT(Formal),2021.2.3,Win32,60.24096386,,,,,,,,,,,,,,,,,,,,,,,,,,,,,,,,,,,,,,,,,,,,i,1,0.9143,0,15,15,41,1,散漫,i,,,,,,,,,,,,
,,,,,,,,,,,,,,1,001,2025-02-17_15h30.58.163,IAT(Formal),2021.2.3,Win32,60.24096386,,,,,,,,,,,,,,,,,,,,,,,,,,,,,,,,,,,,,,,,,,,,e,0,0.7132,0,16,16,2,1,我们,i,,,,,,,,,,,,
,,,,,,,,,,,,,,1,001,2025-02-17_15h30.58.163,IAT(Formal),2021.2.3,Win32,60.24096386,,,,,,,,,,,,,,,,,,,,,,,,,,,,,,,,,,,,,,,,,,,,e,1,0.8378,0,17,17,68,1,他人,e,,,,,,,,,,,,
,,,,,,,,,,,,,,1,001,2025-02-17_15h30.58.163,IAT(Formal),2021.2.3,Win32,60.24096386,,,,,,,,,,,,,,,,,,,,,,,,,,,,,,,,,,,,,,,,,,,,e,1,0.7009,0,18,18,27,1,热情,e,,,,,,,,,,,,
,,,,,,,,,,,,,,1,001,2025-02-17_15h30.58.163,IAT(Formal),2021.2.3,Win32,60.24096386,,,,,,,,,,,,,,,,,,,,,,,,,,,,,,,,,,,,,,,,,,,,e,1,0.5824,0,19,19,23,1,公正,e,,,,,,,,,,,,
,,,,,,,,,,,,,,1,001,2025-02-17_15h30.58.163,IAT(Formal),2021.2.3,Win32,60.24096386,,,,,,,,,,,,,,,,,,,,,,,,,,,,,,,,,,,,,,,,,,,,i,1,0.8078,0,20,20,3,1,自己,i,,,,,,,,,,,,
,,,,,,,,,,,,,,1,001,2025-02-17_15h30.58.163,IAT(Formal),2021.2.3,Win32,60.24096386,,,,,,,,,,,,,,,,,,,,,,,,,,,,,,,,,,,,,,,,,,,,e,1,0.839,0,21,21,11,1,崇高,e,,,,,,,,,,,,
,,,,,,,,,,,,,,1,001,2025-02-17_15h30.58.163,IAT(Formal),2021.2.3,Win32,60.24096386,,,,,,,,,,,,,,,,,,,,,,,,,,,,,,,,,,,,,,,,,,,,,0,,0,22,22,31,1,虚伪,i,,,,,,,,,,,,
,,,,,,,,,,,,,,1,001,2025-02-17_15h30.58.163,IAT(Formal),2021.2.3,Win32,60.24096386,,,,,,,,,,,,,,,,,,,,,,,,,,,,,,,,,,,,,,,,,,,,i,1,0.2562,0,23,23,0,1,我,i,,,,,,,,,,,,
,,,,,,,,,,,,,,1,001,2025-02-17_15h30.58.163,IAT(Formal),2021.2.3,Win32,60.24096386,,,,,,,,,,,,,,,,,,,,,,,,,,,,,,,,,,,,,,,,,,,,e,1,0.5683,0,24,24,29,1,诚恳,e,,,,,,,,,,,,
,,,,,,,,,,,,,,1,001,2025-02-17_15h30.58.163,IAT(Formal),2021.2.3,Win32,60.24096386,,,,,,,,,,,,,,,,,,,,,,,,,,,,,,,,,,,,,,,,,,,,e,0,0.5765,0,25,25,60,1,我,i,,,,,,,,,,,,
,,,,,,,,,,,,,,1,001,2025-02-17_15h30.58.163,IAT(Formal),2021.2.3,Win32,60.24096386,,,,,,,,,,,,,,,,,,,,,,,,,,,,,,,,,,,,,,,,,,,,i,0,0.6153,0,26,26,7,1,他的,e,,,,,,,,,,,,
,,,,,,,,,,,,,,1,001,2025-02-17_15h30.58.163,IAT(Formal),2021.2.3,Win32,60.24096386,,,,,,,,,,,,,,,,,,,,,,,,,,,,,,,,,,,,,,,,,,,,i,0,1.4538,0,27,27,56,1,他们,e,,,,,,,,,,,,
,,,,,,,,,,,,,,1,001,2025-02-17_15h30.58.163,IAT(Formal),2021.2.3,Win32,60.24096386,,,,,,,,,,,,,,,,,,,,,,,,,,,,,,,,,,,,,,,,,,,,,0,,0,28,28,77,1,他的,e,,,,,,,,,,,,
,,,,,,,,,,,,,,1,001,2025-02-17_15h30.58.163,IAT(Formal),2021.2.3,Win32,60.24096386,,,,,,,,,,,,,,,,,,,,,,,,,,,,,,,,,,,,,,,,,,,,,0,,0,29,29,26,1,冷静,e,,,,,,,,,,,,
,,,,,,,,,,,,,,1,001,2025-02-17_15h30.58.163,IAT(Formal),2021.2.3,Win32,60.24096386,,,,,,,,,,,,,,,,,,,,,,,,,,,,,,,,,,,,,,,,,,,,,0,,0,30,30,42,1,凶狠,i,,,,,,,,,,,,
,,,,,,,,,,,,,,1,001,2025-02-17_15h30.58.163,IAT(Formal),2021.2.3,Win32,60.24096386,,,,,,,,,,,,,,,,,,,,,,,,,,,,,,,,,,,,,,,,,,,,i,1,1.2692,0,31,31,72,1,我们,i,,,,,,,,,,,,
,,,,,,,,,,,,,,1,001,2025-02-17_15h30.58.163,IAT(Formal),2021.2.3,Win32,60.24096386,,,,,,,,,,,,,,,,,,,,,,,,,,,,,,,,,,,,,,,,,,,,i,0,1.1047,0,32,32,78,1,他人,e,,,,,,,,,,,,
,,,,,,,,,,,,,,1,001,2025-02-17_15h30.58.163,IAT(Formal),2021.2.3,Win32,60.24096386,,,,,,,,,,,,,,,,,,,,,,,,,,,,,,,,,,,,,,,,,,,,i,1,0.8843,0,33,33,4,1,俺,i,,,,,,,,,,,,
,,,,,,,,,,,,,,1,001,2025-02-17_15h30.58.163,IAT(Formal),2021.2.3,Win32,60.24096386,,,,,,,,,,,,,,,,,,,,,,,,,,,,,,,,,,,,,,,,,,,,i,1,1.0096,0,34,34,36,1,自卑,i,,,,,,,,,,,,
,,,,,,,,,,,,,,1,001,2025-02-17_15h30.58.163,IAT(Formal),2021.2.3,Win32,60.24096386,,,,,,,,,,,,,,,,,,,,,,,,,,,,,,,,,,,,,,,,,,,,i,1,1.1572,0,35,35,63,1,自己,i,,,,,,,,,,,,
,,,,,,,,,,,,,,1,001,2025-02-17_15h30.58.163,IAT(Formal),2021.2.3,Win32,60.24096386,,,,,,,,,,,,,,,,,,,,,,,,,,,,,,,,,,,,,,,,,,,,e,1,0.9101,0,36,36,10,1,优秀,e,,,,,,,,,,,,
,,,,,,,,,,,,,,1,001,2025-02-17_15h30.58.163,IAT(Formal),2021.2.3,Win32,60.24096386,,,,,,,,,,,,,,,,,,,,,,,,,,,,,,,,,,,,,,,,,,,,e,1,0.6467,0,37,37,14,1,乐观,e,,,,,,,,,,,,
,,,,,,,,,,,,,,1,001,2025-02-17_15h30.58.163,IAT(Formal),2021.2.3,Win32,60.24096386,,,,,,,,,,,,,,,,,,,,,,,,,,,,,,,,,,,,,,,,,,,,i,1,0.6924,0,38,38,51,1,我的,i,,,,,,,,,,,,
,,,,,,,,,,,,,,1,001,2025-02-17_15h30.58.163,IAT(Formal),2021.2.3,Win32,60.24096386,,,,,,,,,,,,,,,,,,,,,,,,,,,,,,,,,,,,,,,,,,,,e,1,0.8597,0,39,39,6,1,他们,e,,,,,,,,,,,,
,,,,,,,,,,,,,,1,001,2025-02-17_15h30.58.163,IAT(Formal),2021.2.3,Win32,60.24096386,,,,,,,,,,,,,,,,,,,,,,,,,,,,,,,,,,,,,,,,,,,,i,1,0.9084,0,40,40,74,1,俺,i,,,,,,,,,,,,
,,,,,,,,,,,,,,1,001,2025-02-17_15h30.58.163,IAT(Formal),2021.2.3,Win32,60.24096386,,,,,,,,,,,,,,,,,,,,,,,,,,,,,,,,,,,,,,,,,,,,i,1,1.1945,0,41,41,34,1,悲观,i,,,,,,,,,,,,
,,,,,,,,,,,,,,1,001,2025-02-17_15h30.58.163,IAT(Formal),2021.2.3,Win32,60.24096386,,,,,,,,,,,,,,,,,,,,,,,,,,,,,,,,,,,,,,,,,,,,i,1,0.8706,0,42,42,50,1,我,i,,,,,,,,,,,,
,,,,,,,,,,,,,,1,001,2025-02-17_15h30.58.163,IAT(Formal),2021.2.3,Win32,60.24096386,,,,,,,,,,,,,,,,,,,,,,,,,,,,,,,,,,,,,,,,,,,,i,1,1.0564,0,43,43,30,1,卑鄙,i,,,,,,,,,,,,
,,,,,,,,,,,,,,1,001,2025-02-17_15h30.58.163,IAT(Formal),2021.2.3,Win32,60.24096386,,,,,,,,,,,,,,,,,,,,,,,,,,,,,,,,,,,,,,,,,,,,i,0,1.3985,0,44,44,8,1,他人,e,,,,,,,,,,,,
,,,,,,,,,,,,,,1,001,2025-02-17_15h30.58.163,IAT(Formal),2021.2.3,Win32,60.24096386,,,,,,,,,,,,,,,,,,,,,,,,,,,,,,,,,,,,,,,,,,,,e,1,1.3241,0,45,45,24,1,朴实,e,,,,,,,,,,,,
,,,,,,,,,,,,,,1,001,2025-02-17_15h30.58.163,IAT(Formal),2021.2.3,Win32,60.24096386,,,,,,,,,,,,,,,,,,,,,,,,,,,,,,,,,,,,,,,,,,,,i,1,0.6762,0,46,46,71,1,我的,i,,,,,,,,,,,,
,,,,,,,,,,,,,,1,001,2025-02-17_15h30.58.163,IAT(Formal),2021.2.3,Win32,60.24096386,,,,,,,,,,,,,,,,,,,,,,,,,,,,,,,,,,,,,,,,,,,,e,1,0.6042,0,47,47,79,1,其他,e,,,,,,,,,,,,
,,,,,,,,,,,,,,1,001,2025-02-17_15h30.58.163,IAT(Formal),2021.2.3,Win32,60.24096386,,,,,,,,,,,,,,,,,,,,,,,,,,,,,,,,,,,,,,,,,,,,e,1,0.9839,0,48,48,22,1,无私,e,,,,,,,,,,,,
,,,,,,,,,,,,,,1,001,2025-02-17_15h30.58.163,IAT(Formal),2021.2.3,Win32,60.24096386,,,,,,,,,,,,,,,,,,,,,,,,,,,,,,,,,,,,,,,,,,,,i,0,0.8226,0,49,49,69,1,其他,e,,,,,,,,,,,,
,,,,,,,,,,,,,,1,001,2025-02-17_15h30.58.163,IAT(Formal),2021.2.3,Win32,60.24096386,,,,,,,,,,,,,,,,,,,,,,,,,,,,,,,,,,,,,,,,,,,,e,1,0.7302,0,50,50,19,1,机智,e,,,,,,,,,,,,
,,,,,,,,,,,,,,1,001,2025-02-17_15h30.58.163,IAT(Formal),2021.2.3,Win32,60.24096386,,,,,,,,,,,,,,,,,,,,,,,,,,,,,,,,,,,,,,,,,,,,i,1,1.0716,0,51,51,62,1,我们,i,,,,,,,,,,,,
,,,,,,,,,,,,,,1,001,2025-02-17_15h30.58.163,IAT(Formal),2021.2.3,Win32,60.24096386,,,,,,,,,,,,,,,,,,,,,,,,,,,,,,,,,,,,,,,,,,,,e,1,0.6434,0,52,52,59,1,其他,e,,,,,,,,,,,,
,,,,,,,,,,,,,,1,001,2025-02-17_15h30.58.163,IAT(Formal),2021.2.3,Win32,60.24096386,,,,,,,,,,,,,,,,,,,,,,,,,,,,,,,,,,,,,,,,,,,,e,1,0.5237,0,53,53,55,1,他,e,,,,,,,,,,,,
,,,,,,,,,,,,,,1,001,2025-02-17_15h30.58.163,IAT(Formal),2021.2.3,Win32,60.24096386,,,,,,,,,,,,,,,,,,,,,,,,,,,,,,,,,,,,,,,,,,,,i,1,0.9716,0,54,54,1,1,我的,i,,,,,,,,,,,,
,,,,,,,,,,,,,,1,001,2025-02-17_15h30.58.163,IAT(Formal),2021.2.3,Win32,60.24096386,,,,,,,,,,,,,,,,,,,,,,,,,,,,,,,,,,,,,,,,,,,,i,1,0.9477,0,55,55,73,1,自己,i,,,,,,,,,,,,
,,,,,,,,,,,,,,1,001,2025-02-17_15h30.58.163,IAT(Formal),2021.2.3,Win32,60.24096386,,,,,,,,,,,,,,,,,,,,,,,,,,,,,,,,,,,,,,,,,,,,e,1,1.1237,0,56,56,65,1,他,e,,,,,,,,,,,,
,,,,,,,,,,,,,,1,001,2025-02-17_15h30.58.163,IAT(Formal),2021.2.3,Win32,60.24096386,,,,,,,,,,,,,,,,,,,,,,,,,,,,,,,,,,,,,,,,,,,,e,1,0.7482,0,57,57,21,1,稳重,e,,,,,,,,,,,,
,,,,,,,,,,,,,,1,001,2025-02-17_15h30.58.163,IAT(Formal),2021.2.3,Win32,60.24096386,,,,,,,,,,,,,,,,,,,,,,,,,,,,,,,,,,,,,,,,,,,,i,1,1.4708,0,58,58,32,1,愚蠢,i,,,,,,,,,,,,
,,,,,,,,,,,,,,1,001,2025-02-17_15h30.58.163,IAT(Formal),2021.2.3,Win32,60.24096386,,,,,,,,,,,,,,,,,,,,,,,,,,,,,,,,,,,,,,,,,,,,i,0,0.5829,0,59,59,75,1,他,e,,,,,,,,,,,,
,,,,,,,,,,,,,,1,001,2025-02-17_15h30.58.163,IAT(Formal),2021.2.3,Win32,60.24096386,,,,,,,,,,,,,,,,,,,,,,,,,,,,,,,,,,,,,,,,,,,,e,0,0.659,0,60,60,48,1,轻率,i,,,,,,,,,,,,
,,,,,,,,,,,,,,1,001,2025-02-17_15h30.58.163,IAT(Formal),2021.2.3,Win32,60.24096386,,,,,,,,,,,,,,,,,,,,,,,,,,,,,,,,,,,,,,,,,,,,i,1,0.842,0,61,61,43,1,自私,i,,,,,,,,,,,,
,,,,,,,,,,,,,,1,001,2025-02-17_15h30.58.163,IAT(Formal),2021.2.3,Win32,60.24096386,,,,,,,,,,,,,,,,,,,,,,,,,,,,,,,,,,,,,,,,,,,,i,1,1.2708,0,62,62,40,1,执拗,i,,,,,,,,,,,,
,,,,,,,,,,,,,,1,001,2025-02-17_15h30.58.163,IAT(Formal),2021.2.3,Win32,60.24096386,,,,,,,,,,,,,,,,,,,,,,,,,,,,,,,,,,,,,,,,,,,,e,1,0.6417,0,63,63,18,1,勤奋,e,,,,,,,,,,,,
,,,,,,,,,,,,,,1,001,2025-02-17_15h30.58.163,IAT(Formal),2021.2.3,Win32,60.24096386,,,,,,,,,,,,,,,,,,,,,,,,,,,,,,,,,,,,,,,,,,,,i,1,1.1172,0,64,64,49,1,下贱,i,,,,,,,,,,,,
,,,,,,,,,,,,,,1,001,2025-02-17_15h30.58.163,IAT(Formal),2021.2.3,Win32,60.24096386,,,,,,,,,,,,,,,,,,,,,,,,,,,,,,,,,,,,,,,,,,,,i,1,1.432,0,65,65,53,1,自己,i,,,,,,,,,,,,
,,,,,,,,,,,,,,1,001,2025-02-17_15h30.58.163,IAT(Formal),2021.2.3,Win32,60.24096386,,,,,,,,,,,,,,,,,,,,,,,,,,,,,,,,,,,,,,,,,,,,,0,,0,66,66,25,1,细腻,e,,,,,,,,,,,,
,,,,,,,,,,,,,,1,001,2025-02-17_15h30.58.163,IAT(Formal),2021.2.3,Win32,60.24096386,,,,,,,,,,,,,,,,,,,,,,,,,,,,,,,,,,,,,,,,,,,,,0,,0,67,67,61,1,我的,i,,,,,,,,,,,,
,,,,,,,,,,,,,,1,001,2025-02-17_15h30.58.163,IAT(Formal),2021.2.3,Win32,60.24096386,,,,,,,,,,,,,,,,,,,,,,,,,,,,,,,,,,,,,,,,,,,,,0,,0,68,68,70,1,我,i,,,,,,,,,,,,
,,,,,,,,,,,,,,1,001,2025-02-17_15h30.58.163,IAT(Formal),2021.2.3,Win32,60.24096386,,,,,,,,,,,,,,,,,,,,,,,,,,,,,,,,,,,,,,,,,,,,e,0,1.0885,0,69,69,37,1,傲慢,i,,,,,,,,,,,,
,,,,,,,,,,,,,,1,001,2025-02-17_15h30.58.163,IAT(Formal),2021.2.3,Win32,60.24096386,,,,,,,,,,,,,,,,,,,,,,,,,,,,,,,,,,,,,,,,,,,,i,1,1.0642,0,70,70,39,1,冒失,i,,,,,,,,,,,,
,,,,,,,,,,,,,,1,001,2025-02-17_15h30.58.163,IAT(Formal),2021.2.3,Win32,60.24096386,,,,,,,,,,,,,,,,,,,,,,,,,,,,,,,,,,,,,,,,,,,,i,1,1.4036,0,71,71,54,1,俺,i,,,,,,,,,,,,
,,,,,,,,,,,,,,1,001,2025-02-17_15h30.58.163,IAT(Formal),2021.2.3,Win32,60.24096386,,,,,,,,,,,,,,,,,,,,,,,,,,,,,,,,,,,,,,,,,,,,i,1,0.7863,0,72,72,64,1,俺,i,,,,,,,,,,,,
,,,,,,,,,,,,,,1,001,2025-02-17_15h30.58.163,IAT(Formal),2021.2.3,Win32,60.24096386,,,,,,,,,,,,,,,,,,,,,,,,,,,,,,,,,,,,,,,,,,,,e,1,0.8251,0,73,73,20,1,认真,e,,,,,,,,,,,,
,,,,,,,,,,,,,,1,001,2025-02-17_15h30.58.163,IAT(Formal),2021.2.3,Win32,60.24096386,,,,,,,,,,,,,,,,,,,,,,,,,,,,,,,,,,,,,,,,,,,,i,0,0.8658,0,74,74,57,1,他的,e,,,,,,,,,,,,
,,,,,,,,,,,,,,1,001,2025-02-17_15h30.58.163,IAT(Formal),2021.2.3,Win32,60.24096386,,,,,,,,,,,,,,,,,,,,,,,,,,,,,,,,,,,,,,,,,,,,i,1,0.9195,0,75,75,46,1,野蛮,i,,,,,,,,,,,,
,,,,,,,,,,,,,,1,001,2025-02-17_15h30.58.163,IAT(Formal),2021.2.3,Win32,60.24096386,,,,,,,,,,,,,,,,,,,,,,,,,,,,,,,,,,,,,,,,,,,,i,1,0.7982,0,76,76,38,1,鲁莽,i,,,,,,,,,,,,
,,,,,,,,,,,,,,1,001,2025-02-17_15h30.58.163,IAT(Formal),2021.2.3,Win32,60.24096386,,,,,,,,,,,,,,,,,,,,,,,,,,,,,,,,,,,,,,,,,,,,i,1,0.5926,0,77,77,45,1,猖狂,i,,,,,,,,,,,,
,,,,,,,,,,,,,,1,001,2025-02-17_15h30.58.163,IAT(Formal),2021.2.3,Win32,60.24096386,,,,,,,,,,,,,,,,,,,,,,,,,,,,,,,,,,,,,,,,,,,,e,1,0.7821,0,78,78,15,1,诚实,e,,,,,,,,,,,,
,,,,,,,,,,,,,,1,001,2025-02-17_15h30.58.163,IAT(Formal),2021.2.3,Win32,60.24096386,,,,,,,,,,,,,,,,,,,,,,,,,,,,,,,,,,,,,,,,,,,,i,1,0.754,0,79,79,44,1,暴躁,i,,,,,,,,,,,,
,,,,,,,,,,,,,,1,001,2025-02-17_15h30.58.163,IAT(Formal),2021.2.3,Win32,60.24096386,,,,,,,,,,,,,,,,,,,,,,,,,,,,,,,,,,,,,,,,,,,,,,,,,,,,诚恳,e,space,22.6994,e,1,0.8624,0,0,0,29,1,,
,,,,,,,,,,,,,,1,001,2025-02-17_15h30.58.163,IAT(Formal),2021.2.3,Win32,60.24096386,,,,,,,,,,,,,,,,,,,,,,,,,,,,,,,,,,,,,,,,,,,,,,,,,,,,朴实,e,,,e,1,0.6009,0,1,1,24,1,,
,,,,,,,,,,,,,,1,001,2025-02-17_15h30.58.163,IAT(Formal),2021.2.3,Win32,60.24096386,,,,,,,,,,,,,,,,,,,,,,,,,,,,,,,,,,,,,,,,,,,,,,,,,,,,活泼,e,,,e,1,0.5676,0,2,2,28,1,,
,,,,,,,,,,,,,,1,001,2025-02-17_15h30.58.163,IAT(Formal),2021.2.3,Win32,60.24096386,,,,,,,,,,,,,,,,,,,,,,,,,,,,,,,,,,,,,,,,,,,,,,,,,,,,我们,i,,,i,1,0.795,0,3,3,72,1,,
,,,,,,,,,,,,,,1,001,2025-02-17_15h30.58.163,IAT(Formal),2021.2.3,Win32,60.24096386,,,,,,,,,,,,,,,,,,,,,,,,,,,,,,,,,,,,,,,,,,,,,,,,,,,,机智,e,,,e,1,0.6563,0,4,4,19,1,,
,,,,,,,,,,,,,,1,001,2025-02-17_15h30.58.163,IAT(Formal),2021.2.3,Win32,60.24096386,,,,,,,,,,,,,,,,,,,,,,,,,,,,,,,,,,,,,,,,,,,,,,,,,,,,我,i,,,i,1,0.9175,0,5,5,0,1,,
,,,,,,,,,,,,,,1,001,2025-02-17_15h30.58.163,IAT(Formal),2021.2.3,Win32,60.24096386,,,,,,,,,,,,,,,,,,,,,,,,,,,,,,,,,,,,,,,,,,,,,,,,,,,,执拗,i,,,i,1,0.6232,0,6,6,40,1,,
,,,,,,,,,,,,,,1,001,2025-02-17_15h30.58.163,IAT(Formal),2021.2.3,Win32,60.24096386,,,,,,,,,,,,,,,,,,,,,,,,,,,,,,,,,,,,,,,,,,,,,,,,,,,,下贱,i,,,e,0,0.904,0,7,7,49,1,,
,,,,,,,,,,,,,,1,001,2025-02-17_15h30.58.163,IAT(Formal),2021.2.3,Win32,60.24096386,,,,,,,,,,,,,,,,,,,,,,,,,,,,,,,,,,,,,,,,,,,,,,,,,,,,他的,e,,,,0,,0,8,8,57,1,,
,,,,,,,,,,,,,,1,001,2025-02-17_15h30.58.163,IAT(Formal),2021.2.3,Win32,60.24096386,,,,,,,,,,,,,,,,,,,,,,,,,,,,,,,,,,,,,,,,,,,,,,,,,,,,卑鄙,i,,,,0,,0,9,9,30,1,,
,,,,,,,,,,,,,,1,001,2025-02-17_15h30.58.163,IAT(Formal),2021.2.3,Win32,60.24096386,,,,,,,,,,,,,,,,,,,,,,,,,,,,,,,,,,,,,,,,,,,,,,,,,,,,自己,i,,,i,1,1.026,0,10,10,63,1,,
,,,,,,,,,,,,,,1,001,2025-02-17_15h30.58.163,IAT(Formal),2021.2.3,Win32,60.24096386,,,,,,,,,,,,,,,,,,,,,,,,,,,,,,,,,,,,,,,,,,,,,,,,,,,,俺,i,,,i,1,0.8909,0,11,11,74,1,,
,,,,,,,,,,,,,,1,001,2025-02-17_15h30.58.163,IAT(Formal),2021.2.3,Win32,60.24096386,,,,,,,,,,,,,,,,,,,,,,,,,,,,,,,,,,,,,,,,,,,,,,,,,,,,乐观,e,,,i,0,0.9965,0,12,12,14,1,,
,,,,,,,,,,,,,,1,001,2025-02-17_15h30.58.163,IAT(Formal),2021.2.3,Win32,60.24096386,,,,,,,,,,,,,,,,,,,,,,,,,,,,,,,,,,,,,,,,,,,,,,,,,,,,自己,i,,,e,0,1.1039,0,13,13,3,1,,
,,,,,,,,,,,,,,1,001,2025-02-17_15h30.58.163,IAT(Formal),2021.2.3,Win32,60.24096386,,,,,,,,,,,,,,,,,,,,,,,,,,,,,,,,,,,,,,,,,,,,,,,,,,,,我的,i,,,i,1,1.0306,0,14,14,51,1,,
,,,,,,,,,,,,,,1,001,2025-02-17_15h30.58.163,IAT(Formal),2021.2.3,Win32,60.24096386,,,,,,,,,,,,,,,,,,,,,,,,,,,,,,,,,,,,,,,,,,,,,,,,,,,,他们,e,,,e,1,0.8688,0,15,15,76,1,,
,,,,,,,,,,,,,,1,001,2025-02-17_15h30.58.163,IAT(Formal),2021.2.3,Win32,60.24096386,,,,,,,,,,,,,,,,,,,,,,,,,,,,,,,,,,,,,,,,,,,,,,,,,,,,他人,e,,,e,1,0.6657,0,16,16,58,1,,
,,,,,,,,,,,,,,1,001,2025-02-17_15h30.58.163,IAT(Formal),2021.2.3,Win32,60.24096386,,,,,,,,,,,,,,,,,,,,,,,,,,,,,,,,,,,,,,,,,,,,,,,,,,,,散漫,i,,,i,1,1.1444,0,17,17,41,1,,
,,,,,,,,,,,,,,1,001,2025-02-17_15h30.58.163,IAT(Formal),2021.2.3,Win32,60.24096386,,,,,,,,,,,,,,,,,,,,,,,,,,,,,,,,,,,,,,,,,,,,,,,,,,,,细腻,e,,,e,1,0.9018,0,18,18,25,1,,
,,,,,,,,,,,,,,1,001,2025-02-17_15h30.58.163,IAT(Formal),2021.2.3,Win32,60.24096386,,,,,,,,,,,,,,,,,,,,,,,,,,,,,,,,,,,,,,,,,,,,,,,,,,,,他的,e,,,e,1,1.0694,0,19,19,7,1,,
,,,,,,,,,,,,,,1,001,2025-02-17_15h30.58.163,IAT(Formal),2021.2.3,Win32,60.24096386,,,,,,,,,,,,,,,,,,,,,,,,,,,,,,,,,,,,,,,,,,,,,,,,,,,,轻率,i,,,e,0,1.0155,0,20,20,48,1,,
,,,,,,,,,,,,,,1,001,2025-02-17_15h30.58.163,IAT(Formal),2021.2.3,Win32,60.24096386,,,,,,,,,,,,,,,,,,,,,,,,,,,,,,,,,,,,,,,,,,,,,,,,,,,,自卑,i,,,i,1,1.4026,0,21,21,36,1,,
,,,,,,,,,,,,,,1,001,2025-02-17_15h30.58.163,IAT(Formal),2021.2.3,Win32,60.24096386,,,,,,,,,,,,,,,,,,,,,,,,,,,,,,,,,,,,,,,,,,,,,,,,,,,,我的,i,,,i,1,1.0132,0,22,22,1,1,,
,,,,,,,,,,,,,,1,001,2025-02-17_15h30.58.163,IAT(Formal),2021.2.3,Win32,60.24096386,,,,,,,,,,,,,,,,,,,,,,,,,,,,,,,,,,,,,,,,,,,,,,,,,,,,正直,e,,,i,0,0.8713,0,23,23,16,1,,
,,,,,,,,,,,,,,1,001,2025-02-17_15h30.58.163,IAT(Formal),2021.2.3,Win32,60.24096386,,,,,,,,,,,,,,,,,,,,,,,,,,,,,,,,,,,,,,,,,,,,,,,,,,,,他们,e,,,,0,,0,24,24,6,1,,
,,,,,,,,,,,,,,1,001,2025-02-17_15h30.58.163,IAT(Formal),2021.2.3,Win32,60.24096386,,,,,,,,,,,,,,,,,,,,,,,,,,,,,,,,,,,,,,,,,,,,,,,,,,,,他人,e,,,e,1,0.8325,0,25,25,68,1,,
,,,,,,,,,,,,,,1,001,2025-02-17_15h30.58.163,IAT(Formal),2021.2.3,Win32,60.24096386,,,,,,,,,,,,,,,,,,,,,,,,,,,,,,,,,,,,,,,,,,,,,,,,,,,,我,i,,,i,1,0.665,0,26,26,60,1,,
,,,,,,,,,,,,,,1,001,2025-02-17_15h30.58.163,IAT(Formal),2021.2.3,Win32,60.24096386,,,,,,,,,,,,,,,,,,,,,,,,,,,,,,,,,,,,,,,,,,,,,,,,,,,,其他,e,,,e,1,1.0083,0,27,27,79,1,,
,,,,,,,,,,,,,,1,001,2025-02-17_15h30.58.163,IAT(Formal),2021.2.3,Win32,60.24096386,,,,,,,,,,,,,,,,,,,,,,,,,,,,,,,,,,,,,,,,,,,,,,,,,,,,他,e,,,e,1,0.6725,0,28,28,65,1,,
,,,,,,,,,,,,,,1,001,2025-02-17_15h30.58.163,IAT(Formal),2021.2.3,Win32,60.24096386,,,,,,,,,,,,,,,,,,,,,,,,,,,,,,,,,,,,,,,,,,,,,,,,,,,,勤奋,e,,,e,1,0.9722,0,29,29,18,1,,
,,,,,,,,,,,,,,1,001,2025-02-17_15h30.58.163,IAT(Formal),2021.2.3,Win32,60.24096386,,,,,,,,,,,,,,,,,,,,,,,,,,,,,,,,,,,,,,,,,,,,,,,,,,,,自己,i,,,i,1,0.862,0,30,30,53,1,,
,,,,,,,,,,,,,,1,001,2025-02-17_15h30.58.163,IAT(Formal),2021.2.3,Win32,60.24096386,,,,,,,,,,,,,,,,,,,,,,,,,,,,,,,,,,,,,,,,,,,,,,,,,,,,俺,i,,,i,1,1.1112,0,31,31,64,1,,
,,,,,,,,,,,,,,1,001,2025-02-17_15h30.58.163,IAT(Formal),2021.2.3,Win32,60.24096386,,,,,,,,,,,,,,,,,,,,,,,,,,,,,,,,,,,,,,,,,,,,,,,,,,,,他,e,,,e,1,0.9199,0,32,32,55,1,,
,,,,,,,,,,,,,,1,001,2025-02-17_15h30.58.163,IAT(Formal),2021.2.3,Win32,60.24096386,,,,,,,,,,,,,,,,,,,,,,,,,,,,,,,,,,,,,,,,,,,,,,,,,,,,我们,i,,,i,1,0.9022,0,33,33,62,1,,
,,,,,,,,,,,,,,1,001,2025-02-17_15h30.58.163,IAT(Formal),2021.2.3,Win32,60.24096386,,,,,,,,,,,,,,,,,,,,,,,,,,,,,,,,,,,,,,,,,,,,,,,,,,,,我的,i,,,i,1,0.9302,0,34,34,61,1,,
,,,,,,,,,,,,,,1,001,2025-02-17_15h30.58.163,IAT(Formal),2021.2.3,Win32,60.24096386,,,,,,,,,,,,,,,,,,,,,,,,,,,,,,,,,,,,,,,,,,,,,,,,,,,,无私,e,,,e,1,1.2284,0,35,35,22,1,,
,,,,,,,,,,,,,,1,001,2025-02-17_15h30.58.163,IAT(Formal),2021.2.3,Win32,60.24096386,,,,,,,,,,,,,,,,,,,,,,,,,,,,,,,,,,,,,,,,,,,,,,,,,,,,其他,e,,,e,1,1.1009,0,36,36,59,1,,
,,,,,,,,,,,,,,1,001,2025-02-17_15h30.58.163,IAT(Formal),2021.2.3,Win32,60.24096386,,,,,,,,,,,,,,,,,,,,,,,,,,,,,,,,,,,,,,,,,,,,,,,,,,,,我的,i,,,i,1,0.6693,0,37,37,71,1,,
,,,,,,,,,,,,,,1,001,2025-02-17_15h30.58.163,IAT(Formal),2021.2.3,Win32,60.24096386,,,,,,,,,,,,,,,,,,,,,,,,,,,,,,,,,,,,,,,,,,,,,,,,,,,,崇高,e,,,e,1,0.7762,0,38,38,11,1,,
,,,,,,,,,,,,,,1,001,2025-02-17_15h30.58.163,IAT(Formal),2021.2.3,Win32,60.24096386,,,,,,,,,,,,,,,,,,,,,,,,,,,,,,,,,,,,,,,,,,,,,,,,,,,,野蛮,i,,,i,1,0.9405,0,39,39,46,1,,
,,,,,,,,,,,,,,1,001,2025-02-17_15h30.58.163,IAT(Formal),2021.2.3,Win32,60.24096386,,,,,,,,,,,,,,,,,,,,,,,,,,,,,,,,,,,,,,,,,,,,,,,,,,,,傲慢,i,,,i,1,0.6698,0,40,40,37,1,,
,,,,,,,,,,,,,,1,001,2025-02-17_15h30.58.163,IAT(Formal),2021.2.3,Win32,60.24096386,,,,,,,,,,,,,,,,,,,,,,,,,,,,,,,,,,,,,,,,,,,,,,,,,,,,杰出,e,,,e,1,0.6545,0,41,41,13,1,,
,,,,,,,,,,,,,,1,001,2025-02-17_15h30.58.163,IAT(Formal),2021.2.3,Win32,60.24096386,,,,,,,,,,,,,,,,,,,,,,,,,,,,,,,,,,,,,,,,,,,,,,,,,,,,冷静,e,,,e,1,0.8934,0,42,42,26,1,,
,,,,,,,,,,,,,,1,001,2025-02-17_15h30.58.163,IAT(Formal),2021.2.3,Win32,60.24096386,,,,,,,,,,,,,,,,,,,,,,,,,,,,,,,,,,,,,,,,,,,,,,,,,,,,自私,i,,,,0,,0,43,43,43,1,,
,,,,,,,,,,,,,,1,001,2025-02-17_15h30.58.163,IAT(Formal),2021.2.3,Win32,60.24096386,,,,,,,,,,,,,,,,,,,,,,,,,,,,,,,,,,,,,,,,,,,,,,,,,,,,冒失,i,,,i,1,0.9999,0,44,44,39,1,,
,,,,,,,,,,,,,,1,001,2025-02-17_15h30.58.163,IAT(Formal),2021.2.3,Win32,60.24096386,,,,,,,,,,,,,,,,,,,,,,,,,,,,,,,,,,,,,,,,,,,,,,,,,,,,固执,i,,,i,1,0.8293,0,45,45,47,1,,
,,,,,,,,,,,,,,1,001,2025-02-17_15h30.58.163,IAT(Formal),2021.2.3,Win32,60.24096386,,,,,,,,,,,,,,,,,,,,,,,,,,,,,,,,,,,,,,,,,,,,,,,,,,,,他人,e,,,e,1,1.1455,0,46,46,8,1,,
,,,,,,,,,,,,,,1,001,2025-02-17_15h30.58.163,IAT(Formal),2021.2.3,Win32,60.24096386,,,,,,,,,,,,,,,,,,,,,,,,,,,,,,,,,,,,,,,,,,,,,,,,,,,,我,i,,,i,1,0.5084,0,47,47,70,1,,
,,,,,,,,,,,,,,1,001,2025-02-17_15h30.58.163,IAT(Formal),2021.2.3,Win32,60.24096386,,,,,,,,,,,,,,,,,,,,,,,,,,,,,,,,,,,,,,,,,,,,,,,,,,,,他,e,,,e,1,0.5981,0,48,48,5,1,,
,,,,,,,,,,,,,,1,001,2025-02-17_15h30.58.163,IAT(Formal),2021.2.3,Win32,60.24096386,,,,,,,,,,,,,,,,,,,,,,,,,,,,,,,,,,,,,,,,,,,,,,,,,,,,我们,i,,,i,1,1.0174,0,49,49,2,1,,
,,,,,,,,,,,,,,1,001,2025-02-17_15h30.58.163,IAT(Formal),2021.2.3,Win32,60.24096386,,,,,,,,,,,,,,,,,,,,,,,,,,,,,,,,,,,,,,,,,,,,,,,,,,,,公正,e,,,e,1,0.728,0,50,50,23,1,,
,,,,,,,,,,,,,,1,001,2025-02-17_15h30.58.163,IAT(Formal),2021.2.3,Win32,60.24096386,,,,,,,,,,,,,,,,,,,,,,,,,,,,,,,,,,,,,,,,,,,,,,,,,,,,其他,e,,,e,1,0.7311,0,51,51,9,1,,
,,,,,,,,,,,,,,1,001,2025-02-17_15h30.58.163,IAT(Formal),2021.2.3,Win32,60.24096386,,,,,,,,,,,,,,,,,,,,,,,,,,,,,,,,,,,,,,,,,,,,,,,,,,,,愚蠢,i,,,i,1,0.7843,0,52,52,32,1,,
,,,,,,,,,,,,,,1,001,2025-02-17_15h30.58.163,IAT(Formal),2021.2.3,Win32,60.24096386,,,,,,,,,,,,,,,,,,,,,,,,,,,,,,,,,,,,,,,,,,,,,,,,,,,,优秀,e,,,e,1,0.9146,0,53,53,10,1,,
,,,,,,,,,,,,,,1,001,2025-02-17_15h30.58.163,IAT(Formal),2021.2.3,Win32,60.24096386,,,,,,,,,,,,,,,,,,,,,,,,,,,,,,,,,,,,,,,,,,,,,,,,,,,,他的,e,,,e,1,1.0937,0,54,54,77,1,,
,,,,,,,,,,,,,,1,001,2025-02-17_15h30.58.163,IAT(Formal),2021.2.3,Win32,60.24096386,,,,,,,,,,,,,,,,,,,,,,,,,,,,,,,,,,,,,,,,,,,,,,,,,,,,他的,e,,,e,1,0.4764,0,55,55,67,1,,
,,,,,,,,,,,,,,1,001,2025-02-17_15h30.58.163,IAT(Formal),2021.2.3,Win32,60.24096386,,,,,,,,,,,,,,,,,,,,,,,,,,,,,,,,,,,,,,,,,,,,,,,,,,,,我,i,,,i,1,0.8495,0,56,56,50,1,,
,,,,,,,,,,,,,,1,001,2025-02-17_15h30.58.163,IAT(Formal),2021.2.3,Win32,60.24096386,,,,,,,,,,,,,,,,,,,,,,,,,,,,,,,,,,,,,,,,,,,,,,,,,,,,俺,i,,,i,1,0.9607,0,57,57,54,1,,
,,,,,,,,,,,,,,1,001,2025-02-17_15h30.58.163,IAT(Formal),2021.2.3,Win32,60.24096386,,,,,,,,,,,,,,,,,,,,,,,,,,,,,,,,,,,,,,,,,,,,,,,,,,,,他人,e,,,e,1,0.6502,0,58,58,78,1,,
,,,,,,,,,,,,,,1,001,2025-02-17_15h30.58.163,IAT(Formal),2021.2.3,Win32,60.24096386,,,,,,,,,,,,,,,,,,,,,,,,,,,,,,,,,,,,,,,,,,,,,,,,,,,,我们,i,,,i,1,1.1244,0,59,59,52,1,,
,,,,,,,,,,,,,,1,001,2025-02-17_15h30.58.163,IAT(Formal),2021.2.3,Win32,60.24096386,,,,,,,,,,,,,,,,,,,,,,,,,,,,,,,,,,,,,,,,,,,,,,,,,,,,鲁莽,i,,,,0,,0,60,60,38,1,,
,,,,,,,,,,,,,,1,001,2025-02-17_15h30.58.163,IAT(Formal),2021.2.3,Win32,60.24096386,,,,,,,,,,,,,,,,,,,,,,,,,,,,,,,,,,,,,,,,,,,,,,,,,,,,他,e,,,e,1,0.8384,0,61,61,75,1,,
,,,,,,,,,,,,,,1,001,2025-02-17_15h30.58.163,IAT(Formal),2021.2.3,Win32,60.24096386,,,,,,,,,,,,,,,,,,,,,,,,,,,,,,,,,,,,,,,,,,,,,,,,,,,,他们,e,,,e,1,0.6992,0,62,62,56,1,,
,,,,,,,,,,,,,,1,001,2025-02-17_15h30.58.163,IAT(Formal),2021.2.3,Win32,60.24096386,,,,,,,,,,,,,,,,,,,,,,,,,,,,,,,,,,,,,,,,,,,,,,,,,,,,消极,i,,,e,0,0.6082,0,63,63,35,1,,
,,,,,,,,,,,,,,1,001,2025-02-17_15h30.58.163,IAT(Formal),2021.2.3,Win32,60.24096386,,,,,,,,,,,,,,,,,,,,,,,,,,,,,,,,,,,,,,,,,,,,,,,,,,,,认真,e,,,e,1,0.733,0,64,64,20,1,,
,,,,,,,,,,,,,,1,001,2025-02-17_15h30.58.163,IAT(Formal),2021.2.3,Win32,60.24096386,,,,,,,,,,,,,,,,,,,,,,,,,,,,,,,,,,,,,,,,,,,,,,,,,,,,聪明,e,,,e,1,1.3049,0,65,65,12,1,,
,,,,,,,,,,,,,,1,001,2025-02-17_15h30.58.163,IAT(Formal),2021.2.3,Win32,60.24096386,,,,,,,,,,,,,,,,,,,,,,,,,,,,,,,,,,,,,,,,,,,,,,,,,,,,诚实,e,,,e,1,0.6564,0,66,66,15,1,,
,,,,,,,,,,,,,,1,001,2025-02-17_15h30.58.163,IAT(Formal),2021.2.3,Win32,60.24096386,,,,,,,,,,,,,,,,,,,,,,,,,,,,,,,,,,,,,,,,,,,,,,,,,,,,刻薄,i,,,i,1,0.7025,0,67,67,33,1,,
,,,,,,,,,,,,,,1,001,2025-02-17_15h30.58.163,IAT(Formal),2021.2.3,Win32,60.24096386,,,,,,,,,,,,,,,,,,,,,,,,,,,,,,,,,,,,,,,,,,,,,,,,,,,,猖狂,i,,,i,1,1.1921,0,68,68,45,1,,
,,,,,,,,,,,,,,1,001,2025-02-17_15h30.58.163,IAT(Formal),2021.2.3,Win32,60.24096386,,,,,,,,,,,,,,,,,,,,,,,,,,,,,,,,,,,,,,,,,,,,,,,,,,,,热情,e,,,e,1,0.6657,0,69,69,27,1,,
,,,,,,,,,,,,,,1,001,2025-02-17_15h30.58.163,IAT(Formal),2021.2.3,Win32,60.24096386,,,,,,,,,,,,,,,,,,,,,,,,,,,,,,,,,,,,,,,,,,,,,,,,,,,,悲观,i,,,,0,,0,70,70,34,1,,
,,,,,,,,,,,,,,1,001,2025-02-17_15h30.58.163,IAT(Formal),2021.2.3,Win32,60.24096386,,,,,,,,,,,,,,,,,,,,,,,,,,,,,,,,,,,,,,,,,,,,,,,,,,,,其他,e,,,i,0,1.2289,0,71,71,69,1,,
,,,,,,,,,,,,,,1,001,2025-02-17_15h30.58.163,IAT(Formal),2021.2.3,Win32,60.24096386,,,,,,,,,,,,,,,,,,,,,,,,,,,,,,,,,,,,,,,,,,,,,,,,,,,,凶狠,i,,,i,1,0.957,0,72,72,42,1,,
,,,,,,,,,,,,,,1,001,2025-02-17_15h30.58.163,IAT(Formal),2021.2.3,Win32,60.24096386,,,,,,,,,,,,,,,,,,,,,,,,,,,,,,,,,,,,,,,,,,,,,,,,,,,,稳重,e,,,,0,,0,73,73,21,1,,
,,,,,,,,,,,,,,1,001,2025-02-17_15h30.58.163,IAT(Formal),2021.2.3,Win32,60.24096386,,,,,,,,,,,,,,,,,,,,,,,,,,,,,,,,,,,,,,,,,,,,,,,,,,,,暴躁,i,,,i,1,0.7319,0,74,74,44,1,,
,,,,,,,,,,,,,,1,001,2025-02-17_15h30.58.163,IAT(Formal),2021.2.3,Win32,60.24096386,,,,,,,,,,,,,,,,,,,,,,,,,,,,,,,,,,,,,,,,,,,,,,,,,,,,自己,i,,,i,1,0.7873,0,75,75,73,1,,
,,,,,,,,,,,,,,1,001,2025-02-17_15h30.58.163,IAT(Formal),2021.2.3,Win32,60.24096386,,,,,,,,,,,,,,,,,,,,,,,,,,,,,,,,,,,,,,,,,,,,,,,,,,,,他们,e,,,e,1,0.7954,0,76,76,66,1,,
,,,,,,,,,,,,,,1,001,2025-02-17_15h30.58.163,IAT(Formal),2021.2.3,Win32,60.24096386,,,,,,,,,,,,,,,,,,,,,,,,,,,,,,,,,,,,,,,,,,,,,,,,,,,,虚伪,i,,,i,1,0.5527,0,77,77,31,1,,
,,,,,,,,,,,,,,1,001,2025-02-17_15h30.58.163,IAT(Formal),2021.2.3,Win32,60.24096386,,,,,,,,,,,,,,,,,,,,,,,,,,,,,,,,,,,,,,,,,,,,,,,,,,,,勇敢,e,,,e,1,0.6442,0,78,78,17,1,,
,,,,,,,,,,,,,,1,001,2025-02-17_15h30.58.163,IAT(Formal),2021.2.3,Win32,60.24096386,,,,,,,,,,,,,,,,,,,,,,,,,,,,,,,,,,,,,,,,,,,,,,,,,,,,俺,i,,,i,1,0.6171,0,79,79,4,1,,
,,,,,,,,,,,,,,1,001,2025-02-17_15h30.58.163,IAT(Formal),2021.2.3,Win32,60.24096386,,,,,,,,,,,,,,,,,,,,,,,,,,,,,,,,,,,,,,,,,,,,,,,,,,,,他,e,,,e,1,0.654,1,0,80,55,1,,
,,,,,,,,,,,,,,1,001,2025-02-17_15h30.58.163,IAT(Formal),2021.2.3,Win32,60.24096386,,,,,,,,,,,,,,,,,,,,,,,,,,,,,,,,,,,,,,,,,,,,,,,,,,,,我,i,,,i,1,0.529,1,1,81,60,1,,
,,,,,,,,,,,,,,1,001,2025-02-17_15h30.58.163,IAT(Formal),2021.2.3,Win32,60.24096386,,,,,,,,,,,,,,,,,,,,,,,,,,,,,,,,,,,,,,,,,,,,,,,,,,,,他人,e,,,e,1,0.7265,1,2,82,58,1,,
,,,,,,,,,,,,,,1,001,2025-02-17_15h30.58.163,IAT(Formal),2021.2.3,Win32,60.24096386,,,,,,,,,,,,,,,,,,,,,,,,,,,,,,,,,,,,,,,,,,,,,,,,,,,,自己,i,,,i,1,0.924,1,3,83,63,1,,
,,,,,,,,,,,,,,1,001,2025-02-17_15h30.58.163,IAT(Formal),2021.2.3,Win32,60.24096386,,,,,,,,,,,,,,,,,,,,,,,,,,,,,,,,,,,,,,,,,,,,,,,,,,,,自卑,i,,,i,1,0.9209,1,4,84,36,1,,
,,,,,,,,,,,,,,1,001,2025-02-17_15h30.58.163,IAT(Formal),2021.2.3,Win32,60.24096386,,,,,,,,,,,,,,,,,,,,,,,,,,,,,,,,,,,,,,,,,,,,,,,,,,,,活泼,e,,,e,1,0.6583,1,5,85,28,1,,
,,,,,,,,,,,,,,1,001,2025-02-17_15h30.58.163,IAT(Formal),2021.2.3,Win32,60.24096386,,,,,,,,,,,,,,,,,,,,,,,,,,,,,,,,,,,,,,,,,,,,,,,,,,,,轻率,i,,,i,1,0.67,1,6,86,48,1,,
,,,,,,,,,,,,,,1,001,2025-02-17_15h30.58.163,IAT(Formal),2021.2.3,Win32,60.24096386,,,,,,,,,,,,,,,,,,,,,,,,,,,,,,,,,,,,,,,,,,,,,,,,,,,,野蛮,i,,,i,1,0.5544,1,7,87,46,1,,
,,,,,,,,,,,,,,1,001,2025-02-17_15h30.58.163,IAT(Formal),2021.2.3,Win32,60.24096386,,,,,,,,,,,,,,,,,,,,,,,,,,,,,,,,,,,,,,,,,,,,,,,,,,,,勤奋,e,,,e,1,0.6113,1,8,88,18,1,,
,,,,,,,,,,,,,,1,001,2025-02-17_15h30.58.163,IAT(Formal),2021.2.3,Win32,60.24096386,,,,,,,,,,,,,,,,,,,,,,,,,,,,,,,,,,,,,,,,,,,,,,,,,,,,朴实,e,,,e,1,1.3821,1,9,89,24,1,,
,,,,,,,,,,,,,,1,001,2025-02-17_15h30.58.163,IAT(Formal),2021.2.3,Win32,60.24096386,,,,,,,,,,,,,,,,,,,,,,,,,,,,,,,,,,,,,,,,,,,,,,,,,,,,愚蠢,i,,,i,1,0.5531,1,10,90,32,1,,
,,,,,,,,,,,,,,1,001,2025-02-17_15h30.58.163,IAT(Formal),2021.2.3,Win32,60.24096386,,,,,,,,,,,,,,,,,,,,,,,,,,,,,,,,,,,,,,,,,,,,,,,,,,,,其他,e,,,i,0,0.9695,1,11,91,9,1,,
,,,,,,,,,,,,,,1,001,2025-02-17_15h30.58.163,IAT(Formal),2021.2.3,Win32,60.24096386,,,,,,,,,,,,,,,,,,,,,,,,,,,,,,,,,,,,,,,,,,,,,,,,,,,,冒失,i,,,i,1,0.9002,1,12,92,39,1,,
,,,,,,,,,,,,,,1,001,2025-02-17_15h30.58.163,IAT(Formal),2021.2.3,Win32,60.24096386,,,,,,,,,,,,,,,,,,,,,,,,,,,,,,,,,,,,,,,,,,,,,,,,,,,,他的,e,,,e,1,0.8036,1,13,93,67,1,,
,,,,,,,,,,,,,,1,001,2025-02-17_15h30.58.163,IAT(Formal),2021.2.3,Win32,60.24096386,,,,,,,,,,,,,,,,,,,,,,,,,,,,,,,,,,,,,,,,,,,,,,,,,,,,杰出,e,,,i,0,0.8965,1,14,94,13,1,,
,,,,,,,,,,,,,,1,001,2025-02-17_15h30.58.163,IAT(Formal),2021.2.3,Win32,60.24096386,,,,,,,,,,,,,,,,,,,,,,,,,,,,,,,,,,,,,,,,,,,,,,,,,,,,自己,i,,,i,1,0.6953,1,15,95,73,1,,
,,,,,,,,,,,,,,1,001,2025-02-17_15h30.58.163,IAT(Formal),2021.2.3,Win32,60.24096386,,,,,,,,,,,,,,,,,,,,,,,,,,,,,,,,,,,,,,,,,,,,,,,,,,,,他人,e,,,e,1,0.9051,1,16,96,68,1,,
,,,,,,,,,,,,,,1,001,2025-02-17_15h30.58.163,IAT(Formal),2021.2.3,Win32,60.24096386,,,,,,,,,,,,,,,,,,,,,,,,,,,,,,,,,,,,,,,,,,,,,,,,,,,,我的,i,,,i,1,0.6883,1,17,97,61,1,,
,,,,,,,,,,,,,,1,001,2025-02-17_15h30.58.163,IAT(Formal),2021.2.3,Win32,60.24096386,,,,,,,,,,,,,,,,,,,,,,,,,,,,,,,,,,,,,,,,,,,,,,,,,,,,我们,i,,,i,1,1.3655,1,18,98,62,1,,
,,,,,,,,,,,,,,1,001,2025-02-17_15h30.58.163,IAT(Formal),2021.2.3,Win32,60.24096386,,,,,,,,,,,,,,,,,,,,,,,,,,,,,,,,,,,,,,,,,,,,,,,,,,,,我的,i,,,i,1,0.5535,1,19,99,71,1,,
,,,,,,,,,,,,,,1,001,2025-02-17_15h30.58.163,IAT(Formal),2021.2.3,Win32,60.24096386,,,,,,,,,,,,,,,,,,,,,,,,,,,,,,,,,,,,,,,,,,,,,,,,,,,,刻薄,i,,,i,1,0.85,1,20,100,33,1,,
,,,,,,,,,,,,,,1,001,2025-02-17_15h30.58.163,IAT(Formal),2021.2.3,Win32,60.24096386,,,,,,,,,,,,,,,,,,,,,,,,,,,,,,,,,,,,,,,,,,,,,,,,,,,,他,e,,,e,1,0.6909,1,21,101,65,1,,
,,,,,,,,,,,,,,1,001,2025-02-17_15h30.58.163,IAT(Formal),2021.2.3,Win32,60.24096386,,,,,,,,,,,,,,,,,,,,,,,,,,,,,,,,,,,,,,,,,,,,,,,,,,,,诚实,e,,,i,0,1.1282,1,22,102,15,1,,
,,,,,,,,,,,,,,1,001,2025-02-17_15h30.58.163,IAT(Formal),2021.2.3,Win32,60.24096386,,,,,,,,,,,,,,,,,,,,,,,,,,,,,,,,,,,,,,,,,,,,,,,,,,,,自己,i,,,i,1,1.0731,1,23,103,53,1,,
,,,,,,,,,,,,,,1,001,2025-02-17_15h30.58.163,IAT(Formal),2021.2.3,Win32,60.24096386,,,,,,,,,,,,,,,,,,,,,,,,,,,,,,,,,,,,,,,,,,,,,,,,,,,,俺,i,,,i,1,1.199,1,24,104,54,1,,
,,,,,,,,,,,,,,1,001,2025-02-17_15h30.58.163,IAT(Formal),2021.2.3,Win32,60.24096386,,,,,,,,,,,,,,,,,,,,,,,,,,,,,,,,,,,,,,,,,,,,,,,,,,,,鲁莽,i,,,i,1,0.6402,1,25,105,38,1,,
,,,,,,,,,,,,,,1,001,2025-02-17_15h30.58.163,IAT(Formal),2021.2.3,Win32,60.24096386,,,,,,,,,,,,,,,,,,,,,,,,,,,,,,,,,,,,,,,,,,,,,,,,,,,,崇高,e,,,e,1,0.8579,1,26,106,11,1,,
,,,,,,,,,,,,,,1,001,2025-02-17_15h30.58.163,IAT(Formal),2021.2.3,Win32,60.24096386,,,,,,,,,,,,,,,,,,,,,,,,,,,,,,,,,,,,,,,,,,,,,,,,,,,,他人,e,,,e,1,0.856,1,27,107,8,1,,
,,,,,,,,,,,,,,1,001,2025-02-17_15h30.58.163,IAT(Formal),2021.2.3,Win32,60.24096386,,,,,,,,,,,,,,,,,,,,,,,,,,,,,,,,,,,,,,,,,,,,,,,,,,,,我,i,,,i,1,0.5686,1,28,108,70,1,,
,,,,,,,,,,,,,,1,001,2025-02-17_15h30.58.163,IAT(Formal),2021.2.3,Win32,60.24096386,,,,,,,,,,,,,,,,,,,,,,,,,,,,,,,,,,,,,,,,,,,,,,,,,,,,俺,i,,,i,1,0.7058,1,29,109,64,1,,
,,,,,,,,,,,,,,1,001,2025-02-17_15h30.58.163,IAT(Formal),2021.2.3,Win32,60.24096386,,,,,,,,,,,,,,,,,,,,,,,,,,,,,,,,,,,,,,,,,,,,,,,,,,,,细腻,e,,,e,1,0.8221,1,30,110,25,1,,
,,,,,,,,,,,,,,1,001,2025-02-17_15h30.58.163,IAT(Formal),2021.2.3,Win32,60.24096386,,,,,,,,,,,,,,,,,,,,,,,,,,,,,,,,,,,,,,,,,,,,,,,,,,,,他们,e,,,e,1,0.6842,1,31,111,76,1,,
,,,,,,,,,,,,,,1,001,2025-02-17_15h30.58.163,IAT(Formal),2021.2.3,Win32,60.24096386,,,,,,,,,,,,,,,,,,,,,,,,,,,,,,,,,,,,,,,,,,,,,,,,,,,,其他,e,,,e,1,0.8231,1,32,112,79,1,,
,,,,,,,,,,,,,,1,001,2025-02-17_15h30.58.163,IAT(Formal),2021.2.3,Win32,60.24096386,,,,,,,,,,,,,,,,,,,,,,,,,,,,,,,,,,,,,,,,,,,,,,,,,,,,傲慢,i,,,i,1,0.7638,1,33,113,37,1,,
,,,,,,,,,,,,,,1,001,2025-02-17_15h30.58.163,IAT(Formal),2021.2.3,Win32,60.24096386,,,,,,,,,,,,,,,,,,,,,,,,,,,,,,,,,,,,,,,,,,,,,,,,,,,,他人,e,,,e,1,0.9962,1,34,114,78,1,,
,,,,,,,,,,,,,,1,001,2025-02-17_15h30.58.163,IAT(Formal),2021.2.3,Win32,60.24096386,,,,,,,,,,,,,,,,,,,,,,,,,,,,,,,,,,,,,,,,,,,,,,,,,,,,公正,e,,,i,0,0.7279,1,35,115,23,1,,
,,,,,,,,,,,,,,1,001,2025-02-17_15h30.58.163,IAT(Formal),2021.2.3,Win32,60.24096386,,,,,,,,,,,,,,,,,,,,,,,,,,,,,,,,,,,,,,,,,,,,,,,,,,,,他们,e,,,e,1,0.7164,1,36,116,6,1,,
,,,,,,,,,,,,,,1,001,2025-02-17_15h30.58.163,IAT(Formal),2021.2.3,Win32,60.24096386,,,,,,,,,,,,,,,,,,,,,,,,,,,,,,,,,,,,,,,,,,,,,,,,,,,,散漫,i,,,i,1,0.8891,1,37,117,41,1,,
,,,,,,,,,,,,,,1,001,2025-02-17_15h30.58.163,IAT(Formal),2021.2.3,Win32,60.24096386,,,,,,,,,,,,,,,,,,,,,,,,,,,,,,,,,,,,,,,,,,,,,,,,,,,,勇敢,e,,,e,1,0.8191,1,38,118,17,1,,
,,,,,,,,,,,,,,1,001,2025-02-17_15h30.58.163,IAT(Formal),2021.2.3,Win32,60.24096386,,,,,,,,,,,,,,,,,,,,,,,,,,,,,,,,,,,,,,,,,,,,,,,,,,,,他的,e,,,e,1,1.0948,1,39,119,7,1,,
,,,,,,,,,,,,,,1,001,2025-02-17_15h30.58.163,IAT(Formal),2021.2.3,Win32,60.24096386,,,,,,,,,,,,,,,,,,,,,,,,,,,,,,,,,,,,,,,,,,,,,,,,,,,,其他,e,,,e,1,0.8331,1,40,120,69,1,,
,,,,,,,,,,,,,,1,001,2025-02-17_15h30.58.163,IAT(Formal),2021.2.3,Win32,60.24096386,,,,,,,,,,,,,,,,,,,,,,,,,,,,,,,,,,,,,,,,,,,,,,,,,,,,消极,i,,,i,1,0.6768,1,41,121,35,1,,
,,,,,,,,,,,,,,1,001,2025-02-17_15h30.58.163,IAT(Formal),2021.2.3,Win32,60.24096386,,,,,,,,,,,,,,,,,,,,,,,,,,,,,,,,,,,,,,,,,,,,,,,,,,,,凶狠,i,,,e,0,1.0685,1,42,122,42,1,,
,,,,,,,,,,,,,,1,001,2025-02-17_15h30.58.163,IAT(Formal),2021.2.3,Win32,60.24096386,,,,,,,,,,,,,,,,,,,,,,,,,,,,,,,,,,,,,,,,,,,,,,,,,,,,我们,i,,,i,1,1.2205,1,43,123,2,1,,
,,,,,,,,,,,,,,1,001,2025-02-17_15h30.58.163,IAT(Formal),2021.2.3,Win32,60.24096386,,,,,,,,,,,,,,,,,,,,,,,,,,,,,,,,,,,,,,,,,,,,,,,,,,,,正直,e,,,e,1,1.0663,1,44,124,16,1,,
,,,,,,,,,,,,,,1,001,2025-02-17_15h30.58.163,IAT(Formal),2021.2.3,Win32,60.24096386,,,,,,,,,,,,,,,,,,,,,,,,,,,,,,,,,,,,,,,,,,,,,,,,,,,,下贱,i,,,i,1,1.118,1,45,125,49,1,,
,,,,,,,,,,,,,,1,001,2025-02-17_15h30.58.163,IAT(Formal),2021.2.3,Win32,60.24096386,,,,,,,,,,,,,,,,,,,,,,,,,,,,,,,,,,,,,,,,,,,,,,,,,,,,固执,i,,,i,1,1.2513,1,46,126,47,1,,
,,,,,,,,,,,,,,1,001,2025-02-17_15h30.58.163,IAT(Formal),2021.2.3,Win32,60.24096386,,,,,,,,,,,,,,,,,,,,,,,,,,,,,,,,,,,,,,,,,,,,,,,,,,,,我的,i,,,i,1,0.8399,1,47,127,1,1,,
,,,,,,,,,,,,,,1,001,2025-02-17_15h30.58.163,IAT(Formal),2021.2.3,Win32,60.24096386,,,,,,,,,,,,,,,,,,,,,,,,,,,,,,,,,,,,,,,,,,,,,,,,,,,,执拗,i,,,i,1,0.56,1,48,128,40,1,,
,,,,,,,,,,,,,,1,001,2025-02-17_15h30.58.163,IAT(Formal),2021.2.3,Win32,60.24096386,,,,,,,,,,,,,,,,,,,,,,,,,,,,,,,,,,,,,,,,,,,,,,,,,,,,他的,e,,,e,1,0.7424,1,49,129,57,1,,
,,,,,,,,,,,,,,1,001,2025-02-17_15h30.58.163,IAT(Formal),2021.2.3,Win32,60.24096386,,,,,,,,,,,,,,,,,,,,,,,,,,,,,,,,,,,,,,,,,,,,,,,,,,,,猖狂,i,,,i,1,0.7887,1,50,130,45,1,,
,,,,,,,,,,,,,,1,001,2025-02-17_15h30.58.163,IAT(Formal),2021.2.3,Win32,60.24096386,,,,,,,,,,,,,,,,,,,,,,,,,,,,,,,,,,,,,,,,,,,,,,,,,,,,自己,i,,,e,0,0.8206,1,51,131,3,1,,
,,,,,,,,,,,,,,1,001,2025-02-17_15h30.58.163,IAT(Formal),2021.2.3,Win32,60.24096386,,,,,,,,,,,,,,,,,,,,,,,,,,,,,,,,,,,,,,,,,,,,,,,,,,,,其他,e,,,i,0,1.3777,1,52,132,59,1,,
,,,,,,,,,,,,,,1,001,2025-02-17_15h30.58.163,IAT(Formal),2021.2.3,Win32,60.24096386,,,,,,,,,,,,,,,,,,,,,,,,,,,,,,,,,,,,,,,,,,,,,,,,,,,,我,i,,,i,1,0.9168,1,53,133,0,1,,
,,,,,,,,,,,,,,1,001,2025-02-17_15h30.58.163,IAT(Formal),2021.2.3,Win32,60.24096386,,,,,,,,,,,,,,,,,,,,,,,,,,,,,,,,,,,,,,,,,,,,,,,,,,,,我,i,,,i,1,1.1888,1,54,134,50,1,,
,,,,,,,,,,,,,,1,001,2025-02-17_15h30.58.163,IAT(Formal),2021.2.3,Win32,60.24096386,,,,,,,,,,,,,,,,,,,,,,,,,,,,,,,,,,,,,,,,,,,,,,,,,,,,热情,e,,,e,1,0.6942,1,55,135,27,1,,
,,,,,,,,,,,,,,1,001,2025-02-17_15h30.58.163,IAT(Formal),2021.2.3,Win32,60.24096386,,,,,,,,,,,,,,,,,,,,,,,,,,,,,,,,,,,,,,,,,,,,,,,,,,,,他们,e,,,i,0,1.2214,1,56,136,56,1,,
,,,,,,,,,,,,,,1,001,2025-02-17_15h30.58.163,IAT(Formal),2021.2.3,Win32,60.24096386,,,,,,,,,,,,,,,,,,,,,,,,,,,,,,,,,,,,,,,,,,,,,,,,,,,,优秀,e,,,i,0,1.3437,1,57,137,10,1,,
,,,,,,,,,,,,,,1,001,2025-02-17_15h30.58.163,IAT(Formal),2021.2.3,Win32,60.24096386,,,,,,,,,,,,,,,,,,,,,,,,,,,,,,,,,,,,,,,,,,,,,,,,,,,,自私,i,,,i,1,1.1344,1,58,138,43,1,,
,,,,,,,,,,,,,,1,001,2025-02-17_15h30.58.163,IAT(Formal),2021.2.3,Win32,60.24096386,,,,,,,,,,,,,,,,,,,,,,,,,,,,,,,,,,,,,,,,,,,,,,,,,,,,俺,i,,,i,1,0.8998,1,59,139,4,1,,
,,,,,,,,,,,,,,1,001,2025-02-17_15h30.58.163,IAT(Formal),2021.2.3,Win32,60.24096386,,,,,,,,,,,,,,,,,,,,,,,,,,,,,,,,,,,,,,,,,,,,,,,,,,,,虚伪,i,,,e,0,1.1268,1,60,140,31,1,,
,,,,,,,,,,,,,,1,001,2025-02-17_15h30.58.163,IAT(Formal),2021.2.3,Win32,60.24096386,,,,,,,,,,,,,,,,,,,,,,,,,,,,,,,,,,,,,,,,,,,,,,,,,,,,卑鄙,i,,,i,1,0.6423,1,61,141,30,1,,
,,,,,,,,,,,,,,1,001,2025-02-17_15h30.58.163,IAT(Formal),2021.2.3,Win32,60.24096386,,,,,,,,,,,,,,,,,,,,,,,,,,,,,,,,,,,,,,,,,,,,,,,,,,,,稳重,e,,,e,1,0.8037,1,62,142,21,1,,
,,,,,,,,,,,,,,1,001,2025-02-17_15h30.58.163,IAT(Formal),2021.2.3,Win32,60.24096386,,,,,,,,,,,,,,,,,,,,,,,,,,,,,,,,,,,,,,,,,,,,,,,,,,,,聪明,e,,,e,1,1.1724,1,63,143,12,1,,
,,,,,,,,,,,,,,1,001,2025-02-17_15h30.58.163,IAT(Formal),2021.2.3,Win32,60.24096386,,,,,,,,,,,,,,,,,,,,,,,,,,,,,,,,,,,,,,,,,,,,,,,,,,,,乐观,e,,,e,1,0.8583,1,64,144,14,1,,
,,,,,,,,,,,,,,1,001,2025-02-17_15h30.58.163,IAT(Formal),2021.2.3,Win32,60.24096386,,,,,,,,,,,,,,,,,,,,,,,,,,,,,,,,,,,,,,,,,,,,,,,,,,,,无私,e,,,e,1,0.6219,1,65,145,22,1,,
,,,,,,,,,,,,,,1,001,2025-02-17_15h30.58.163,IAT(Formal),2021.2.3,Win32,60.24096386,,,,,,,,,,,,,,,,,,,,,,,,,,,,,,,,,,,,,,,,,,,,,,,,,,,,他们,e,,,i,0,0.7233,1,66,146,66,1,,
,,,,,,,,,,,,,,1,001,2025-02-17_15h30.58.163,IAT(Formal),2021.2.3,Win32,60.24096386,,,,,,,,,,,,,,,,,,,,,,,,,,,,,,,,,,,,,,,,,,,,,,,,,,,,我们,i,,,i,1,0.983,1,67,147,52,1,,
,,,,,,,,,,,,,,1,001,2025-02-17_15h30.58.163,IAT(Formal),2021.2.3,Win32,60.24096386,,,,,,,,,,,,,,,,,,,,,,,,,,,,,,,,,,,,,,,,,,,,,,,,,,,,他的,e,,,e,1,0.7886,1,68,148,77,1,,
,,,,,,,,,,,,,,1,001,2025-02-17_15h30.58.163,IAT(Formal),2021.2.3,Win32,60.24096386,,,,,,,,,,,,,,,,,,,,,,,,,,,,,,,,,,,,,,,,,,,,,,,,,,,,他,e,,,e,1,1.2337,1,69,149,75,1,,
,,,,,,,,,,,,,,1,001,2025-02-17_15h30.58.163,IAT(Formal),2021.2.3,Win32,60.24096386,,,,,,,,,,,,,,,,,,,,,,,,,,,,,,,,,,,,,,,,,,,,,,,,,,,,认真,e,,,i,0,0.7351,1,70,150,20,1,,
,,,,,,,,,,,,,,1,001,2025-02-17_15h30.58.163,IAT(Formal),2021.2.3,Win32,60.24096386,,,,,,,,,,,,,,,,,,,,,,,,,,,,,,,,,,,,,,,,,,,,,,,,,,,,他,e,,,,0,,1,71,151,5,1,,
,,,,,,,,,,,,,,1,001,2025-02-17_15h30.58.163,IAT(Formal),2021.2.3,Win32,60.24096386,,,,,,,,,,,,,,,,,,,,,,,,,,,,,,,,,,,,,,,,,,,,,,,,,,,,悲观,i,,,,0,,1,72,152,34,1,,
,,,,,,,,,,,,,,1,001,2025-02-17_15h30.58.163,IAT(Formal),2021.2.3,Win32,60.24096386,,,,,,,,,,,,,,,,,,,,,,,,,,,,,,,,,,,,,,,,,,,,,,,,,,,,诚恳,e,,,i,0,1.3499,1,73,153,29,1,,
,,,,,,,,,,,,,,1,001,2025-02-17_15h30.58.163,IAT(Formal),2021.2.3,Win32,60.24096386,,,,,,,,,,,,,,,,,,,,,,,,,,,,,,,,,,,,,,,,,,,,,,,,,,,,俺,i,,,e,0,1.0715,1,74,154,74,1,,
,,,,,,,,,,,,,,1,001,2025-02-17_15h30.58.163,IAT(Formal),2021.2.3,Win32,60.24096386,,,,,,,,,,,,,,,,,,,,,,,,,,,,,,,,,,,,,,,,,,,,,,,,,,,,暴躁,i,,,i,1,0.8776,1,75,155,44,1,,
,,,,,,,,,,,,,,1,001,2025-02-17_15h30.58.163,IAT(Formal),2021.2.3,Win32,60.24096386,,,,,,,,,,,,,,,,,,,,,,,,,,,,,,,,,,,,,,,,,,,,,,,,,,,,我的,i,,,i,1,1.3416,1,76,156,51,1,,
,,,,,,,,,,,,,,1,001,2025-02-17_15h30.58.163,IAT(Formal),2021.2.3,Win32,60.24096386,,,,,,,,,,,,,,,,,,,,,,,,,,,,,,,,,,,,,,,,,,,,,,,,,,,,冷静,e,,,i,0,1.1328,1,77,157,26,1,,
,,,,,,,,,,,,,,1,001,2025-02-17_15h30.58.163,IAT(Formal),2021.2.3,Win32,60.24096386,,,,,,,,,,,,,,,,,,,,,,,,,,,,,,,,,,,,,,,,,,,,,,,,,,,,机智,e,,,e,1,0.8625,1,78,158,19,1,,
,,,,,,,,,,,,,,1,001,2025-02-17_15h30.58.163,IAT(Formal),2021.2.3,Win32,60.24096386,,,,,,,,,,,,,,,,,,,,,,,,,,,,,,,,,,,,,,,,,,,,,,,,,,,,我们,i,,,i,1,0.9549,1,79,159,72,1,,
,,,,,,,,,,,,,,1,001,2025-02-17_15h30.58.163,IAT(Formal),2021.2.3,Win32,60.24096386,,,,,,,,,,,,,,,,,,,,,,,,,,,,,,,,,,,,,,,,,,,,,,,,,,,,,,,,,,,,,,,,space,1.2389