﻿Instruction1.keys,Instruction1.rt,Instruction2.keys,Instruction2.rt,key_resp_iso.keys,key_resp_iso.corr,key_resp_iso.rt,Practice_01.thisRepN,Practice_01.thisTrialN,Practice_01.thisN,Practice_01.thisIndex,Practice_01.ran,Words,ans,participant,session,date,expName,psychopyVersion,OS,frameRate,key_resp_3.keys,key_resp_3.rt,key_resp_ipn.keys,key_resp_ipn.corr,key_resp_ipn.rt,Practice_02.thisRepN,Practice_02.thisTrialN,Practice_02.thisN,Practice_02.thisIndex,Practice_02.ran,Words_ipn,ans_ipn,key_resp_4.keys,key_resp_4.rt,key_resp_t1.keys,key_resp_t1.corr,key_resp_t1.rt,Practice_T1.thisRepN,Practice_T1.thisTrialN,Practice_T1.thisN,Practice_T1.thisIndex,Practice_T1.ran,Words_t1,ans_t1,key_resp_5.keys,key_resp_5.rt,Formal_T1.thisRepN,Formal_T1.thisTrialN,Formal_T1.thisN,Formal_T1.thisIndex,Formal_T1.ran,key_resp_6.keys,key_resp_6.rt,key_resp_iso_reverse.keys,key_resp_iso_reverse.corr,key_resp_iso_reverse.rt,Practice_iso_Reverse.thisRepN,Practice_iso_Reverse.thisTrialN,Practice_iso_Reverse.thisN,Practice_iso_Reverse.thisIndex,Practice_iso_Reverse.ran,key_resp_7.keys,key_resp_7.rt,key_resp_t2_Practice.keys,key_resp_t2_Practice.corr,key_resp_t2_Practice.rt,Practice_t2_Reverse.thisRepN,Practice_t2_Reverse.thisTrialN,Practice_t2_Reverse.thisN,Practice_t2_Reverse.thisIndex,Practice_t2_Reverse.ran,Words_t2,ans_t2,key_resp_8.keys,key_resp_8.rt,key_resp_t2.keys,key_resp_t2.corr,key_resp_t2.rt,Formal_t2_reverse.thisRepN,Formal_t2_reverse.thisTrialN,Formal_t2_reverse.thisN,Formal_t2_reverse.thisIndex,Formal_t2_reverse.ran,key_instruct.keys,key_instruct.rt
space,2.1602,space,9.3681,e,1,0.6762,0,0,0,3,1,自己,e,1,001,2025-02-17_17h28.36.303,IAT(Formal),2021.2.3,Win32,58.82352941,,,,,,,,,,,,,,,,,,,,,,,,,,,,,,,,,,,,,,,,,,,,,,,,,,,,,,,,,,,,,,,,,
,,,,i,1,0.3928,0,1,1,7,1,他的,i,1,001,2025-02-17_17h28.36.303,IAT(Formal),2021.2.3,Win32,58.82352941,,,,,,,,,,,,,,,,,,,,,,,,,,,,,,,,,,,,,,,,,,,,,,,,,,,,,,,,,,,,,,,,,
,,,,e,1,0.6026,0,2,2,4,1,俺,e,1,001,2025-02-17_17h28.36.303,IAT(Formal),2021.2.3,Win32,58.82352941,,,,,,,,,,,,,,,,,,,,,,,,,,,,,,,,,,,,,,,,,,,,,,,,,,,,,,,,,,,,,,,,,
,,,,i,1,0.4273,0,3,3,9,1,其他,i,1,001,2025-02-17_17h28.36.303,IAT(Formal),2021.2.3,Win32,58.82352941,,,,,,,,,,,,,,,,,,,,,,,,,,,,,,,,,,,,,,,,,,,,,,,,,,,,,,,,,,,,,,,,,
,,,,e,1,0.4983,0,4,4,0,1,我,e,1,001,2025-02-17_17h28.36.303,IAT(Formal),2021.2.3,Win32,58.82352941,,,,,,,,,,,,,,,,,,,,,,,,,,,,,,,,,,,,,,,,,,,,,,,,,,,,,,,,,,,,,,,,,
,,,,e,1,0.4731,0,5,5,1,1,我的,e,1,001,2025-02-17_17h28.36.303,IAT(Formal),2021.2.3,Win32,58.82352941,,,,,,,,,,,,,,,,,,,,,,,,,,,,,,,,,,,,,,,,,,,,,,,,,,,,,,,,,,,,,,,,,
,,,,i,1,0.5243,0,6,6,6,1,他们,i,1,001,2025-02-17_17h28.36.303,IAT(Formal),2021.2.3,Win32,58.82352941,,,,,,,,,,,,,,,,,,,,,,,,,,,,,,,,,,,,,,,,,,,,,,,,,,,,,,,,,,,,,,,,,
,,,,i,1,0.4502,0,7,7,5,1,他,i,1,001,2025-02-17_17h28.36.303,IAT(Formal),2021.2.3,Win32,58.82352941,,,,,,,,,,,,,,,,,,,,,,,,,,,,,,,,,,,,,,,,,,,,,,,,,,,,,,,,,,,,,,,,,
,,,,i,1,0.5276,0,8,8,8,1,他人,i,1,001,2025-02-17_17h28.36.303,IAT(Formal),2021.2.3,Win32,58.82352941,,,,,,,,,,,,,,,,,,,,,,,,,,,,,,,,,,,,,,,,,,,,,,,,,,,,,,,,,,,,,,,,,
,,,,e,1,0.5241,0,9,9,2,1,我们,e,1,001,2025-02-17_17h28.36.303,IAT(Formal),2021.2.3,Win32,58.82352941,,,,,,,,,,,,,,,,,,,,,,,,,,,,,,,,,,,,,,,,,,,,,,,,,,,,,,,,,,,,,,,,,
,,,,,,,,,,,,,,1,001,2025-02-17_17h28.36.303,IAT(Formal),2021.2.3,Win32,58.82352941,space,9.6308,e,1,0.6727,0,0,0,15,1,细腻,e,,,,,,,,,,,,,,,,,,,,,,,,,,,,,,,,,,,,,,,,,,,,,,,,,,,,,
,,,,,,,,,,,,,,1,001,2025-02-17_17h28.36.303,IAT(Formal),2021.2.3,Win32,58.82352941,,,e,1,0.4425,0,1,1,19,1,诚恳,e,,,,,,,,,,,,,,,,,,,,,,,,,,,,,,,,,,,,,,,,,,,,,,,,,,,,,
,,,,,,,,,,,,,,1,001,2025-02-17_17h28.36.303,IAT(Formal),2021.2.3,Win32,58.82352941,,,i,1,0.4977,0,2,2,34,1,暴躁,i,,,,,,,,,,,,,,,,,,,,,,,,,,,,,,,,,,,,,,,,,,,,,,,,,,,,,
,,,,,,,,,,,,,,1,001,2025-02-17_17h28.36.303,IAT(Formal),2021.2.3,Win32,58.82352941,,,i,1,0.4797,0,3,3,25,1,消极,i,,,,,,,,,,,,,,,,,,,,,,,,,,,,,,,,,,,,,,,,,,,,,,,,,,,,,
,,,,,,,,,,,,,,1,001,2025-02-17_17h28.36.303,IAT(Formal),2021.2.3,Win32,58.82352941,,,i,1,0.7144,0,4,4,26,1,自卑,i,,,,,,,,,,,,,,,,,,,,,,,,,,,,,,,,,,,,,,,,,,,,,,,,,,,,,
,,,,,,,,,,,,,,1,001,2025-02-17_17h28.36.303,IAT(Formal),2021.2.3,Win32,58.82352941,,,i,1,0.5305,0,5,5,23,1,刻薄,i,,,,,,,,,,,,,,,,,,,,,,,,,,,,,,,,,,,,,,,,,,,,,,,,,,,,,
,,,,,,,,,,,,,,1,001,2025-02-17_17h28.36.303,IAT(Formal),2021.2.3,Win32,58.82352941,,,e,1,0.5904,0,6,6,14,1,朴实,e,,,,,,,,,,,,,,,,,,,,,,,,,,,,,,,,,,,,,,,,,,,,,,,,,,,,,
,,,,,,,,,,,,,,1,001,2025-02-17_17h28.36.303,IAT(Formal),2021.2.3,Win32,58.82352941,,,i,1,0.5798,0,7,7,24,1,悲观,i,,,,,,,,,,,,,,,,,,,,,,,,,,,,,,,,,,,,,,,,,,,,,,,,,,,,,
,,,,,,,,,,,,,,1,001,2025-02-17_17h28.36.303,IAT(Formal),2021.2.3,Win32,58.82352941,,,i,1,0.9531,0,8,8,33,1,自私,i,,,,,,,,,,,,,,,,,,,,,,,,,,,,,,,,,,,,,,,,,,,,,,,,,,,,,
,,,,,,,,,,,,,,1,001,2025-02-17_17h28.36.303,IAT(Formal),2021.2.3,Win32,58.82352941,,,i,1,0.6977,0,9,9,30,1,执拗,i,,,,,,,,,,,,,,,,,,,,,,,,,,,,,,,,,,,,,,,,,,,,,,,,,,,,,
,,,,,,,,,,,,,,1,001,2025-02-17_17h28.36.303,IAT(Formal),2021.2.3,Win32,58.82352941,,,e,1,0.4548,0,10,10,10,1,认真,e,,,,,,,,,,,,,,,,,,,,,,,,,,,,,,,,,,,,,,,,,,,,,,,,,,,,,
,,,,,,,,,,,,,,1,001,2025-02-17_17h28.36.303,IAT(Formal),2021.2.3,Win32,58.82352941,,,i,1,0.574,0,11,11,36,1,野蛮,i,,,,,,,,,,,,,,,,,,,,,,,,,,,,,,,,,,,,,,,,,,,,,,,,,,,,,
,,,,,,,,,,,,,,1,001,2025-02-17_17h28.36.303,IAT(Formal),2021.2.3,Win32,58.82352941,,,i,1,0.5177,0,12,12,21,1,虚伪,i,,,,,,,,,,,,,,,,,,,,,,,,,,,,,,,,,,,,,,,,,,,,,,,,,,,,,
,,,,,,,,,,,,,,1,001,2025-02-17_17h28.36.303,IAT(Formal),2021.2.3,Win32,58.82352941,,,e,1,0.4994,0,13,13,13,1,公正,e,,,,,,,,,,,,,,,,,,,,,,,,,,,,,,,,,,,,,,,,,,,,,,,,,,,,,
,,,,,,,,,,,,,,1,001,2025-02-17_17h28.36.303,IAT(Formal),2021.2.3,Win32,58.82352941,,,e,1,0.5628,0,14,14,1,1,崇高,e,,,,,,,,,,,,,,,,,,,,,,,,,,,,,,,,,,,,,,,,,,,,,,,,,,,,,
,,,,,,,,,,,,,,1,001,2025-02-17_17h28.36.303,IAT(Formal),2021.2.3,Win32,58.82352941,,,e,1,0.5634,0,15,15,11,1,稳重,e,,,,,,,,,,,,,,,,,,,,,,,,,,,,,,,,,,,,,,,,,,,,,,,,,,,,,
,,,,,,,,,,,,,,1,001,2025-02-17_17h28.36.303,IAT(Formal),2021.2.3,Win32,58.82352941,,,i,1,0.7669,0,16,16,38,1,轻率,i,,,,,,,,,,,,,,,,,,,,,,,,,,,,,,,,,,,,,,,,,,,,,,,,,,,,,
,,,,,,,,,,,,,,1,001,2025-02-17_17h28.36.303,IAT(Formal),2021.2.3,Win32,58.82352941,,,e,1,0.661,0,17,17,0,1,优秀,e,,,,,,,,,,,,,,,,,,,,,,,,,,,,,,,,,,,,,,,,,,,,,,,,,,,,,
,,,,,,,,,,,,,,1,001,2025-02-17_17h28.36.303,IAT(Formal),2021.2.3,Win32,58.82352941,,,e,1,0.3931,0,18,18,9,1,机智,e,,,,,,,,,,,,,,,,,,,,,,,,,,,,,,,,,,,,,,,,,,,,,,,,,,,,,
,,,,,,,,,,,,,,1,001,2025-02-17_17h28.36.303,IAT(Formal),2021.2.3,Win32,58.82352941,,,e,1,0.4189,0,19,19,18,1,活泼,e,,,,,,,,,,,,,,,,,,,,,,,,,,,,,,,,,,,,,,,,,,,,,,,,,,,,,
,,,,,,,,,,,,,,1,001,2025-02-17_17h28.36.303,IAT(Formal),2021.2.3,Win32,58.82352941,,,i,1,0.6793,0,20,20,29,1,冒失,i,,,,,,,,,,,,,,,,,,,,,,,,,,,,,,,,,,,,,,,,,,,,,,,,,,,,,
,,,,,,,,,,,,,,1,001,2025-02-17_17h28.36.303,IAT(Formal),2021.2.3,Win32,58.82352941,,,e,1,0.9212,0,21,21,7,1,勇敢,e,,,,,,,,,,,,,,,,,,,,,,,,,,,,,,,,,,,,,,,,,,,,,,,,,,,,,
,,,,,,,,,,,,,,1,001,2025-02-17_17h28.36.303,IAT(Formal),2021.2.3,Win32,58.82352941,,,e,1,0.4803,0,22,22,2,1,聪明,e,,,,,,,,,,,,,,,,,,,,,,,,,,,,,,,,,,,,,,,,,,,,,,,,,,,,,
,,,,,,,,,,,,,,1,001,2025-02-17_17h28.36.303,IAT(Formal),2021.2.3,Win32,58.82352941,,,e,1,0.5179,0,23,23,8,1,勤奋,e,,,,,,,,,,,,,,,,,,,,,,,,,,,,,,,,,,,,,,,,,,,,,,,,,,,,,
,,,,,,,,,,,,,,1,001,2025-02-17_17h28.36.303,IAT(Formal),2021.2.3,Win32,58.82352941,,,i,1,0.6042,0,24,24,31,1,散漫,i,,,,,,,,,,,,,,,,,,,,,,,,,,,,,,,,,,,,,,,,,,,,,,,,,,,,,
,,,,,,,,,,,,,,1,001,2025-02-17_17h28.36.303,IAT(Formal),2021.2.3,Win32,58.82352941,,,i,1,0.5258,0,25,25,27,1,傲慢,i,,,,,,,,,,,,,,,,,,,,,,,,,,,,,,,,,,,,,,,,,,,,,,,,,,,,,
,,,,,,,,,,,,,,1,001,2025-02-17_17h28.36.303,IAT(Formal),2021.2.3,Win32,58.82352941,,,i,1,0.4304,0,26,26,20,1,卑鄙,i,,,,,,,,,,,,,,,,,,,,,,,,,,,,,,,,,,,,,,,,,,,,,,,,,,,,,
,,,,,,,,,,,,,,1,001,2025-02-17_17h28.36.303,IAT(Formal),2021.2.3,Win32,58.82352941,,,i,1,0.5355,0,27,27,28,1,鲁莽,i,,,,,,,,,,,,,,,,,,,,,,,,,,,,,,,,,,,,,,,,,,,,,,,,,,,,,
,,,,,,,,,,,,,,1,001,2025-02-17_17h28.36.303,IAT(Formal),2021.2.3,Win32,58.82352941,,,i,1,0.4181,0,28,28,37,1,固执,i,,,,,,,,,,,,,,,,,,,,,,,,,,,,,,,,,,,,,,,,,,,,,,,,,,,,,
,,,,,,,,,,,,,,1,001,2025-02-17_17h28.36.303,IAT(Formal),2021.2.3,Win32,58.82352941,,,i,1,0.7039,0,29,29,35,1,猖狂,i,,,,,,,,,,,,,,,,,,,,,,,,,,,,,,,,,,,,,,,,,,,,,,,,,,,,,
,,,,,,,,,,,,,,1,001,2025-02-17_17h28.36.303,IAT(Formal),2021.2.3,Win32,58.82352941,,,i,1,0.4455,0,30,30,32,1,凶狠,i,,,,,,,,,,,,,,,,,,,,,,,,,,,,,,,,,,,,,,,,,,,,,,,,,,,,,
,,,,,,,,,,,,,,1,001,2025-02-17_17h28.36.303,IAT(Formal),2021.2.3,Win32,58.82352941,,,e,1,0.5666,0,31,31,3,1,杰出,e,,,,,,,,,,,,,,,,,,,,,,,,,,,,,,,,,,,,,,,,,,,,,,,,,,,,,
,,,,,,,,,,,,,,1,001,2025-02-17_17h28.36.303,IAT(Formal),2021.2.3,Win32,58.82352941,,,e,1,0.739,0,32,32,12,1,无私,e,,,,,,,,,,,,,,,,,,,,,,,,,,,,,,,,,,,,,,,,,,,,,,,,,,,,,
,,,,,,,,,,,,,,1,001,2025-02-17_17h28.36.303,IAT(Formal),2021.2.3,Win32,58.82352941,,,e,1,0.4784,0,33,33,17,1,热情,e,,,,,,,,,,,,,,,,,,,,,,,,,,,,,,,,,,,,,,,,,,,,,,,,,,,,,
,,,,,,,,,,,,,,1,001,2025-02-17_17h28.36.303,IAT(Formal),2021.2.3,Win32,58.82352941,,,i,1,0.5056,0,34,34,22,1,愚蠢,i,,,,,,,,,,,,,,,,,,,,,,,,,,,,,,,,,,,,,,,,,,,,,,,,,,,,,
,,,,,,,,,,,,,,1,001,2025-02-17_17h28.36.303,IAT(Formal),2021.2.3,Win32,58.82352941,,,e,1,0.4617,0,35,35,5,1,诚实,e,,,,,,,,,,,,,,,,,,,,,,,,,,,,,,,,,,,,,,,,,,,,,,,,,,,,,
,,,,,,,,,,,,,,1,001,2025-02-17_17h28.36.303,IAT(Formal),2021.2.3,Win32,58.82352941,,,e,1,0.5517,0,36,36,16,1,冷静,e,,,,,,,,,,,,,,,,,,,,,,,,,,,,,,,,,,,,,,,,,,,,,,,,,,,,,
,,,,,,,,,,,,,,1,001,2025-02-17_17h28.36.303,IAT(Formal),2021.2.3,Win32,58.82352941,,,e,1,0.4831,0,37,37,4,1,乐观,e,,,,,,,,,,,,,,,,,,,,,,,,,,,,,,,,,,,,,,,,,,,,,,,,,,,,,
,,,,,,,,,,,,,,1,001,2025-02-17_17h28.36.303,IAT(Formal),2021.2.3,Win32,58.82352941,,,i,0,0.3752,0,38,38,6,1,正直,e,,,,,,,,,,,,,,,,,,,,,,,,,,,,,,,,,,,,,,,,,,,,,,,,,,,,,
,,,,,,,,,,,,,,1,001,2025-02-17_17h28.36.303,IAT(Formal),2021.2.3,Win32,58.82352941,,,i,1,0.5,0,39,39,39,1,下贱,i,,,,,,,,,,,,,,,,,,,,,,,,,,,,,,,,,,,,,,,,,,,,,,,,,,,,,
,,,,,,,,,,,,,,1,001,2025-02-17_17h28.36.303,IAT(Formal),2021.2.3,Win32,58.82352941,,,,,,,,,,,,,space,5.6044,i,1,0.6454,0,0,0,7,1,他的,i,,,,,,,,,,,,,,,,,,,,,,,,,,,,,,,,,,,,,,,,,
,,,,,,,,,,,,,,1,001,2025-02-17_17h28.36.303,IAT(Formal),2021.2.3,Win32,58.82352941,,,,,,,,,,,,,,,e,1,0.7956,0,1,1,24,1,朴实,e,,,,,,,,,,,,,,,,,,,,,,,,,,,,,,,,,,,,,,,,,
,,,,,,,,,,,,,,1,001,2025-02-17_17h28.36.303,IAT(Formal),2021.2.3,Win32,58.82352941,,,,,,,,,,,,,,,i,1,0.5084,0,2,2,79,1,其他,i,,,,,,,,,,,,,,,,,,,,,,,,,,,,,,,,,,,,,,,,,
,,,,,,,,,,,,,,1,001,2025-02-17_17h28.36.303,IAT(Formal),2021.2.3,Win32,58.82352941,,,,,,,,,,,,,,,e,1,0.6071,0,3,3,23,1,公正,e,,,,,,,,,,,,,,,,,,,,,,,,,,,,,,,,,,,,,,,,,
,,,,,,,,,,,,,,1,001,2025-02-17_17h28.36.303,IAT(Formal),2021.2.3,Win32,58.82352941,,,,,,,,,,,,,,,i,1,0.5969,0,4,4,56,1,他们,i,,,,,,,,,,,,,,,,,,,,,,,,,,,,,,,,,,,,,,,,,
,,,,,,,,,,,,,,1,001,2025-02-17_17h28.36.303,IAT(Formal),2021.2.3,Win32,58.82352941,,,,,,,,,,,,,,,,0,,0,5,5,8,1,他人,i,,,,,,,,,,,,,,,,,,,,,,,,,,,,,,,,,,,,,,,,,
,,,,,,,,,,,,,,1,001,2025-02-17_17h28.36.303,IAT(Formal),2021.2.3,Win32,58.82352941,,,,,,,,,,,,,,,e,1,0.4711,0,6,6,15,1,诚实,e,,,,,,,,,,,,,,,,,,,,,,,,,,,,,,,,,,,,,,,,,
,,,,,,,,,,,,,,1,001,2025-02-17_17h28.36.303,IAT(Formal),2021.2.3,Win32,58.82352941,,,,,,,,,,,,,,,e,1,0.3883,0,7,7,3,1,自己,e,,,,,,,,,,,,,,,,,,,,,,,,,,,,,,,,,,,,,,,,,
,,,,,,,,,,,,,,1,001,2025-02-17_17h28.36.303,IAT(Formal),2021.2.3,Win32,58.82352941,,,,,,,,,,,,,,,e,1,0.5004,0,8,8,20,1,认真,e,,,,,,,,,,,,,,,,,,,,,,,,,,,,,,,,,,,,,,,,,
,,,,,,,,,,,,,,1,001,2025-02-17_17h28.36.303,IAT(Formal),2021.2.3,Win32,58.82352941,,,,,,,,,,,,,,,i,1,0.4663,0,9,9,68,1,他人,i,,,,,,,,,,,,,,,,,,,,,,,,,,,,,,,,,,,,,,,,,
,,,,,,,,,,,,,,1,001,2025-02-17_17h28.36.303,IAT(Formal),2021.2.3,Win32,58.82352941,,,,,,,,,,,,,,,i,1,0.5104,0,10,10,40,1,执拗,i,,,,,,,,,,,,,,,,,,,,,,,,,,,,,,,,,,,,,,,,,
,,,,,,,,,,,,,,1,001,2025-02-17_17h28.36.303,IAT(Formal),2021.2.3,Win32,58.82352941,,,,,,,,,,,,,,,i,1,0.5424,0,11,11,43,1,自私,i,,,,,,,,,,,,,,,,,,,,,,,,,,,,,,,,,,,,,,,,,
,,,,,,,,,,,,,,1,001,2025-02-17_17h28.36.303,IAT(Formal),2021.2.3,Win32,58.82352941,,,,,,,,,,,,,,,i,1,0.4918,0,12,12,77,1,他的,i,,,,,,,,,,,,,,,,,,,,,,,,,,,,,,,,,,,,,,,,,
,,,,,,,,,,,,,,1,001,2025-02-17_17h28.36.303,IAT(Formal),2021.2.3,Win32,58.82352941,,,,,,,,,,,,,,,i,1,0.4917,0,13,13,5,1,他,i,,,,,,,,,,,,,,,,,,,,,,,,,,,,,,,,,,,,,,,,,
,,,,,,,,,,,,,,1,001,2025-02-17_17h28.36.303,IAT(Formal),2021.2.3,Win32,58.82352941,,,,,,,,,,,,,,,i,1,0.512,0,14,14,48,1,轻率,i,,,,,,,,,,,,,,,,,,,,,,,,,,,,,,,,,,,,,,,,,
,,,,,,,,,,,,,,1,001,2025-02-17_17h28.36.303,IAT(Formal),2021.2.3,Win32,58.82352941,,,,,,,,,,,,,,,i,0,1.0324,0,15,15,22,1,无私,e,,,,,,,,,,,,,,,,,,,,,,,,,,,,,,,,,,,,,,,,,
,,,,,,,,,,,,,,1,001,2025-02-17_17h28.36.303,IAT(Formal),2021.2.3,Win32,58.82352941,,,,,,,,,,,,,,,i,1,0.7019,0,16,16,37,1,傲慢,i,,,,,,,,,,,,,,,,,,,,,,,,,,,,,,,,,,,,,,,,,
,,,,,,,,,,,,,,1,001,2025-02-17_17h28.36.303,IAT(Formal),2021.2.3,Win32,58.82352941,,,,,,,,,,,,,,,i,1,0.6235,0,17,17,9,1,其他,i,,,,,,,,,,,,,,,,,,,,,,,,,,,,,,,,,,,,,,,,,
,,,,,,,,,,,,,,1,001,2025-02-17_17h28.36.303,IAT(Formal),2021.2.3,Win32,58.82352941,,,,,,,,,,,,,,,e,1,0.4934,0,18,18,53,1,自己,e,,,,,,,,,,,,,,,,,,,,,,,,,,,,,,,,,,,,,,,,,
,,,,,,,,,,,,,,1,001,2025-02-17_17h28.36.303,IAT(Formal),2021.2.3,Win32,58.82352941,,,,,,,,,,,,,,,e,0,0.4723,0,19,19,6,1,他们,i,,,,,,,,,,,,,,,,,,,,,,,,,,,,,,,,,,,,,,,,,
,,,,,,,,,,,,,,1,001,2025-02-17_17h28.36.303,IAT(Formal),2021.2.3,Win32,58.82352941,,,,,,,,,,,,,,,i,1,0.528,0,20,20,65,1,他,i,,,,,,,,,,,,,,,,,,,,,,,,,,,,,,,,,,,,,,,,,
,,,,,,,,,,,,,,1,001,2025-02-17_17h28.36.303,IAT(Formal),2021.2.3,Win32,58.82352941,,,,,,,,,,,,,,,i,1,0.4288,0,21,21,66,1,他们,i,,,,,,,,,,,,,,,,,,,,,,,,,,,,,,,,,,,,,,,,,
,,,,,,,,,,,,,,1,001,2025-02-17_17h28.36.303,IAT(Formal),2021.2.3,Win32,58.82352941,,,,,,,,,,,,,,,i,1,0.6536,0,22,22,36,1,自卑,i,,,,,,,,,,,,,,,,,,,,,,,,,,,,,,,,,,,,,,,,,
,,,,,,,,,,,,,,1,001,2025-02-17_17h28.36.303,IAT(Formal),2021.2.3,Win32,58.82352941,,,,,,,,,,,,,,,e,1,0.5389,0,23,23,25,1,细腻,e,,,,,,,,,,,,,,,,,,,,,,,,,,,,,,,,,,,,,,,,,
,,,,,,,,,,,,,,1,001,2025-02-17_17h28.36.303,IAT(Formal),2021.2.3,Win32,58.82352941,,,,,,,,,,,,,,,e,1,0.3667,0,24,24,10,1,优秀,e,,,,,,,,,,,,,,,,,,,,,,,,,,,,,,,,,,,,,,,,,
,,,,,,,,,,,,,,1,001,2025-02-17_17h28.36.303,IAT(Formal),2021.2.3,Win32,58.82352941,,,,,,,,,,,,,,,e,1,0.4851,0,25,25,63,1,自己,e,,,,,,,,,,,,,,,,,,,,,,,,,,,,,,,,,,,,,,,,,
,,,,,,,,,,,,,,1,001,2025-02-17_17h28.36.303,IAT(Formal),2021.2.3,Win32,58.82352941,,,,,,,,,,,,,,,i,1,0.6264,0,26,26,45,1,猖狂,i,,,,,,,,,,,,,,,,,,,,,,,,,,,,,,,,,,,,,,,,,
,,,,,,,,,,,,,,1,001,2025-02-17_17h28.36.303,IAT(Formal),2021.2.3,Win32,58.82352941,,,,,,,,,,,,,,,e,1,0.6329,0,27,27,29,1,诚恳,e,,,,,,,,,,,,,,,,,,,,,,,,,,,,,,,,,,,,,,,,,
,,,,,,,,,,,,,,1,001,2025-02-17_17h28.36.303,IAT(Formal),2021.2.3,Win32,58.82352941,,,,,,,,,,,,,,,i,1,0.6022,0,28,28,31,1,虚伪,i,,,,,,,,,,,,,,,,,,,,,,,,,,,,,,,,,,,,,,,,,
,,,,,,,,,,,,,,1,001,2025-02-17_17h28.36.303,IAT(Formal),2021.2.3,Win32,58.82352941,,,,,,,,,,,,,,,e,1,0.4913,0,29,29,2,1,我们,e,,,,,,,,,,,,,,,,,,,,,,,,,,,,,,,,,,,,,,,,,
,,,,,,,,,,,,,,1,001,2025-02-17_17h28.36.303,IAT(Formal),2021.2.3,Win32,58.82352941,,,,,,,,,,,,,,,i,1,0.6344,0,30,30,76,1,他们,i,,,,,,,,,,,,,,,,,,,,,,,,,,,,,,,,,,,,,,,,,
,,,,,,,,,,,,,,1,001,2025-02-17_17h28.36.303,IAT(Formal),2021.2.3,Win32,58.82352941,,,,,,,,,,,,,,,e,1,0.5361,0,31,31,70,1,我,e,,,,,,,,,,,,,,,,,,,,,,,,,,,,,,,,,,,,,,,,,
,,,,,,,,,,,,,,1,001,2025-02-17_17h28.36.303,IAT(Formal),2021.2.3,Win32,58.82352941,,,,,,,,,,,,,,,e,1,0.5047,0,32,32,12,1,聪明,e,,,,,,,,,,,,,,,,,,,,,,,,,,,,,,,,,,,,,,,,,
,,,,,,,,,,,,,,1,001,2025-02-17_17h28.36.303,IAT(Formal),2021.2.3,Win32,58.82352941,,,,,,,,,,,,,,,i,1,0.6333,0,33,33,75,1,他,i,,,,,,,,,,,,,,,,,,,,,,,,,,,,,,,,,,,,,,,,,
,,,,,,,,,,,,,,1,001,2025-02-17_17h28.36.303,IAT(Formal),2021.2.3,Win32,58.82352941,,,,,,,,,,,,,,,,0,,0,34,34,33,1,刻薄,i,,,,,,,,,,,,,,,,,,,,,,,,,,,,,,,,,,,,,,,,,
,,,,,,,,,,,,,,1,001,2025-02-17_17h28.36.303,IAT(Formal),2021.2.3,Win32,58.82352941,,,,,,,,,,,,,,,e,1,0.5333,0,35,35,11,1,崇高,e,,,,,,,,,,,,,,,,,,,,,,,,,,,,,,,,,,,,,,,,,
,,,,,,,,,,,,,,1,001,2025-02-17_17h28.36.303,IAT(Formal),2021.2.3,Win32,58.82352941,,,,,,,,,,,,,,,i,1,0.9677,0,36,36,34,1,悲观,i,,,,,,,,,,,,,,,,,,,,,,,,,,,,,,,,,,,,,,,,,
,,,,,,,,,,,,,,1,001,2025-02-17_17h28.36.303,IAT(Formal),2021.2.3,Win32,58.82352941,,,,,,,,,,,,,,,i,1,0.6957,0,37,37,35,1,消极,i,,,,,,,,,,,,,,,,,,,,,,,,,,,,,,,,,,,,,,,,,
,,,,,,,,,,,,,,1,001,2025-02-17_17h28.36.303,IAT(Formal),2021.2.3,Win32,58.82352941,,,,,,,,,,,,,,,i,1,0.5119,0,38,38,58,1,他人,i,,,,,,,,,,,,,,,,,,,,,,,,,,,,,,,,,,,,,,,,,
,,,,,,,,,,,,,,1,001,2025-02-17_17h28.36.303,IAT(Formal),2021.2.3,Win32,58.82352941,,,,,,,,,,,,,,,e,1,0.4398,0,39,39,54,1,俺,e,,,,,,,,,,,,,,,,,,,,,,,,,,,,,,,,,,,,,,,,,
,,,,,,,,,,,,,,1,001,2025-02-17_17h28.36.303,IAT(Formal),2021.2.3,Win32,58.82352941,,,,,,,,,,,,,,,e,1,0.4774,0,40,40,17,1,勇敢,e,,,,,,,,,,,,,,,,,,,,,,,,,,,,,,,,,,,,,,,,,
,,,,,,,,,,,,,,1,001,2025-02-17_17h28.36.303,IAT(Formal),2021.2.3,Win32,58.82352941,,,,,,,,,,,,,,,e,1,0.5927,0,41,41,18,1,勤奋,e,,,,,,,,,,,,,,,,,,,,,,,,,,,,,,,,,,,,,,,,,
,,,,,,,,,,,,,,1,001,2025-02-17_17h28.36.303,IAT(Formal),2021.2.3,Win32,58.82352941,,,,,,,,,,,,,,,i,1,0.5186,0,42,42,38,1,鲁莽,i,,,,,,,,,,,,,,,,,,,,,,,,,,,,,,,,,,,,,,,,,
,,,,,,,,,,,,,,1,001,2025-02-17_17h28.36.303,IAT(Formal),2021.2.3,Win32,58.82352941,,,,,,,,,,,,,,,e,1,0.542,0,43,43,27,1,热情,e,,,,,,,,,,,,,,,,,,,,,,,,,,,,,,,,,,,,,,,,,
,,,,,,,,,,,,,,1,001,2025-02-17_17h28.36.303,IAT(Formal),2021.2.3,Win32,58.82352941,,,,,,,,,,,,,,,e,1,0.4402,0,44,44,14,1,乐观,e,,,,,,,,,,,,,,,,,,,,,,,,,,,,,,,,,,,,,,,,,
,,,,,,,,,,,,,,1,001,2025-02-17_17h28.36.303,IAT(Formal),2021.2.3,Win32,58.82352941,,,,,,,,,,,,,,,e,1,0.6234,0,45,45,19,1,机智,e,,,,,,,,,,,,,,,,,,,,,,,,,,,,,,,,,,,,,,,,,
,,,,,,,,,,,,,,1,001,2025-02-17_17h28.36.303,IAT(Formal),2021.2.3,Win32,58.82352941,,,,,,,,,,,,,,,i,1,0.5258,0,46,46,59,1,其他,i,,,,,,,,,,,,,,,,,,,,,,,,,,,,,,,,,,,,,,,,,
,,,,,,,,,,,,,,1,001,2025-02-17_17h28.36.303,IAT(Formal),2021.2.3,Win32,58.82352941,,,,,,,,,,,,,,,i,1,0.592,0,47,47,39,1,冒失,i,,,,,,,,,,,,,,,,,,,,,,,,,,,,,,,,,,,,,,,,,
,,,,,,,,,,,,,,1,001,2025-02-17_17h28.36.303,IAT(Formal),2021.2.3,Win32,58.82352941,,,,,,,,,,,,,,,e,1,0.5493,0,48,48,13,1,杰出,e,,,,,,,,,,,,,,,,,,,,,,,,,,,,,,,,,,,,,,,,,
,,,,,,,,,,,,,,1,001,2025-02-17_17h28.36.303,IAT(Formal),2021.2.3,Win32,58.82352941,,,,,,,,,,,,,,,i,1,0.5069,0,49,49,30,1,卑鄙,i,,,,,,,,,,,,,,,,,,,,,,,,,,,,,,,,,,,,,,,,,
,,,,,,,,,,,,,,1,001,2025-02-17_17h28.36.303,IAT(Formal),2021.2.3,Win32,58.82352941,,,,,,,,,,,,,,,e,1,0.484,0,50,50,0,1,我,e,,,,,,,,,,,,,,,,,,,,,,,,,,,,,,,,,,,,,,,,,
,,,,,,,,,,,,,,1,001,2025-02-17_17h28.36.303,IAT(Formal),2021.2.3,Win32,58.82352941,,,,,,,,,,,,,,,i,1,0.533,0,51,51,41,1,散漫,i,,,,,,,,,,,,,,,,,,,,,,,,,,,,,,,,,,,,,,,,,
,,,,,,,,,,,,,,1,001,2025-02-17_17h28.36.303,IAT(Formal),2021.2.3,Win32,58.82352941,,,,,,,,,,,,,,,e,1,0.4133,0,52,52,50,1,我,e,,,,,,,,,,,,,,,,,,,,,,,,,,,,,,,,,,,,,,,,,
,,,,,,,,,,,,,,1,001,2025-02-17_17h28.36.303,IAT(Formal),2021.2.3,Win32,58.82352941,,,,,,,,,,,,,,,i,1,0.5181,0,53,53,67,1,他的,i,,,,,,,,,,,,,,,,,,,,,,,,,,,,,,,,,,,,,,,,,
,,,,,,,,,,,,,,1,001,2025-02-17_17h28.36.303,IAT(Formal),2021.2.3,Win32,58.82352941,,,,,,,,,,,,,,,i,1,0.539,0,54,54,42,1,凶狠,i,,,,,,,,,,,,,,,,,,,,,,,,,,,,,,,,,,,,,,,,,
,,,,,,,,,,,,,,1,001,2025-02-17_17h28.36.303,IAT(Formal),2021.2.3,Win32,58.82352941,,,,,,,,,,,,,,,i,1,0.4425,0,55,55,46,1,野蛮,i,,,,,,,,,,,,,,,,,,,,,,,,,,,,,,,,,,,,,,,,,
,,,,,,,,,,,,,,1,001,2025-02-17_17h28.36.303,IAT(Formal),2021.2.3,Win32,58.82352941,,,,,,,,,,,,,,,e,1,0.4597,0,56,56,73,1,自己,e,,,,,,,,,,,,,,,,,,,,,,,,,,,,,,,,,,,,,,,,,
,,,,,,,,,,,,,,1,001,2025-02-17_17h28.36.303,IAT(Formal),2021.2.3,Win32,58.82352941,,,,,,,,,,,,,,,i,1,0.4186,0,57,57,32,1,愚蠢,i,,,,,,,,,,,,,,,,,,,,,,,,,,,,,,,,,,,,,,,,,
,,,,,,,,,,,,,,1,001,2025-02-17_17h28.36.303,IAT(Formal),2021.2.3,Win32,58.82352941,,,,,,,,,,,,,,,i,1,0.5719,0,58,58,78,1,他人,i,,,,,,,,,,,,,,,,,,,,,,,,,,,,,,,,,,,,,,,,,
,,,,,,,,,,,,,,1,001,2025-02-17_17h28.36.303,IAT(Formal),2021.2.3,Win32,58.82352941,,,,,,,,,,,,,,,e,1,0.5006,0,59,59,21,1,稳重,e,,,,,,,,,,,,,,,,,,,,,,,,,,,,,,,,,,,,,,,,,
,,,,,,,,,,,,,,1,001,2025-02-17_17h28.36.303,IAT(Formal),2021.2.3,Win32,58.82352941,,,,,,,,,,,,,,,e,1,0.4087,0,60,60,52,1,我们,e,,,,,,,,,,,,,,,,,,,,,,,,,,,,,,,,,,,,,,,,,
,,,,,,,,,,,,,,1,001,2025-02-17_17h28.36.303,IAT(Formal),2021.2.3,Win32,58.82352941,,,,,,,,,,,,,,,i,1,0.4542,0,61,61,69,1,其他,i,,,,,,,,,,,,,,,,,,,,,,,,,,,,,,,,,,,,,,,,,
,,,,,,,,,,,,,,1,001,2025-02-17_17h28.36.303,IAT(Formal),2021.2.3,Win32,58.82352941,,,,,,,,,,,,,,,e,1,0.4549,0,62,62,28,1,活泼,e,,,,,,,,,,,,,,,,,,,,,,,,,,,,,,,,,,,,,,,,,
,,,,,,,,,,,,,,1,001,2025-02-17_17h28.36.303,IAT(Formal),2021.2.3,Win32,58.82352941,,,,,,,,,,,,,,,e,1,0.4535,0,63,63,64,1,俺,e,,,,,,,,,,,,,,,,,,,,,,,,,,,,,,,,,,,,,,,,,
,,,,,,,,,,,,,,1,001,2025-02-17_17h28.36.303,IAT(Formal),2021.2.3,Win32,58.82352941,,,,,,,,,,,,,,,e,1,0.4162,0,64,64,51,1,我的,e,,,,,,,,,,,,,,,,,,,,,,,,,,,,,,,,,,,,,,,,,
,,,,,,,,,,,,,,1,001,2025-02-17_17h28.36.303,IAT(Formal),2021.2.3,Win32,58.82352941,,,,,,,,,,,,,,,i,1,0.5379,0,65,65,55,1,他,i,,,,,,,,,,,,,,,,,,,,,,,,,,,,,,,,,,,,,,,,,
,,,,,,,,,,,,,,1,001,2025-02-17_17h28.36.303,IAT(Formal),2021.2.3,Win32,58.82352941,,,,,,,,,,,,,,,i,1,0.4675,0,66,66,57,1,他的,i,,,,,,,,,,,,,,,,,,,,,,,,,,,,,,,,,,,,,,,,,
,,,,,,,,,,,,,,1,001,2025-02-17_17h28.36.303,IAT(Formal),2021.2.3,Win32,58.82352941,,,,,,,,,,,,,,,e,1,0.4744,0,67,67,72,1,我们,e,,,,,,,,,,,,,,,,,,,,,,,,,,,,,,,,,,,,,,,,,
,,,,,,,,,,,,,,1,001,2025-02-17_17h28.36.303,IAT(Formal),2021.2.3,Win32,58.82352941,,,,,,,,,,,,,,,e,1,0.5338,0,68,68,71,1,我的,e,,,,,,,,,,,,,,,,,,,,,,,,,,,,,,,,,,,,,,,,,
,,,,,,,,,,,,,,1,001,2025-02-17_17h28.36.303,IAT(Formal),2021.2.3,Win32,58.82352941,,,,,,,,,,,,,,,e,1,0.4703,0,69,69,1,1,我的,e,,,,,,,,,,,,,,,,,,,,,,,,,,,,,,,,,,,,,,,,,
,,,,,,,,,,,,,,1,001,2025-02-17_17h28.36.303,IAT(Formal),2021.2.3,Win32,58.82352941,,,,,,,,,,,,,,,e,1,0.467,0,70,70,4,1,俺,e,,,,,,,,,,,,,,,,,,,,,,,,,,,,,,,,,,,,,,,,,
,,,,,,,,,,,,,,1,001,2025-02-17_17h28.36.303,IAT(Formal),2021.2.3,Win32,58.82352941,,,,,,,,,,,,,,,i,0,0.5671,0,71,71,26,1,冷静,e,,,,,,,,,,,,,,,,,,,,,,,,,,,,,,,,,,,,,,,,,
,,,,,,,,,,,,,,1,001,2025-02-17_17h28.36.303,IAT(Formal),2021.2.3,Win32,58.82352941,,,,,,,,,,,,,,,e,1,0.4206,0,72,72,74,1,俺,e,,,,,,,,,,,,,,,,,,,,,,,,,,,,,,,,,,,,,,,,,
,,,,,,,,,,,,,,1,001,2025-02-17_17h28.36.303,IAT(Formal),2021.2.3,Win32,58.82352941,,,,,,,,,,,,,,,e,1,0.3839,0,73,73,60,1,我,e,,,,,,,,,,,,,,,,,,,,,,,,,,,,,,,,,,,,,,,,,
,,,,,,,,,,,,,,1,001,2025-02-17_17h28.36.303,IAT(Formal),2021.2.3,Win32,58.82352941,,,,,,,,,,,,,,,e,1,0.3841,0,74,74,62,1,我们,e,,,,,,,,,,,,,,,,,,,,,,,,,,,,,,,,,,,,,,,,,
,,,,,,,,,,,,,,1,001,2025-02-17_17h28.36.303,IAT(Formal),2021.2.3,Win32,58.82352941,,,,,,,,,,,,,,,i,1,0.686,0,75,75,47,1,固执,i,,,,,,,,,,,,,,,,,,,,,,,,,,,,,,,,,,,,,,,,,
,,,,,,,,,,,,,,1,001,2025-02-17_17h28.36.303,IAT(Formal),2021.2.3,Win32,58.82352941,,,,,,,,,,,,,,,e,1,0.512,0,76,76,61,1,我的,e,,,,,,,,,,,,,,,,,,,,,,,,,,,,,,,,,,,,,,,,,
,,,,,,,,,,,,,,1,001,2025-02-17_17h28.36.303,IAT(Formal),2021.2.3,Win32,58.82352941,,,,,,,,,,,,,,,i,1,0.4544,0,77,77,44,1,暴躁,i,,,,,,,,,,,,,,,,,,,,,,,,,,,,,,,,,,,,,,,,,
,,,,,,,,,,,,,,1,001,2025-02-17_17h28.36.303,IAT(Formal),2021.2.3,Win32,58.82352941,,,,,,,,,,,,,,,i,1,0.5712,0,78,78,49,1,下贱,i,,,,,,,,,,,,,,,,,,,,,,,,,,,,,,,,,,,,,,,,,
,,,,,,,,,,,,,,1,001,2025-02-17_17h28.36.303,IAT(Formal),2021.2.3,Win32,58.82352941,,,,,,,,,,,,,,,e,1,0.6484,0,79,79,16,1,正直,e,,,,,,,,,,,,,,,,,,,,,,,,,,,,,,,,,,,,,,,,,
,,,,,,,,,,,,,,1,001,2025-02-17_17h28.36.303,IAT(Formal),2021.2.3,Win32,58.82352941,,,,,,,,,,,,,,,e,1,0.4662,,,,,,我们,e,space,9.169,0,0,0,72,1,,,,,,,,,,,,,,,,,,,,,,,,,,,,,,,,,,
,,,,,,,,,,,,,,1,001,2025-02-17_17h28.36.303,IAT(Formal),2021.2.3,Win32,58.82352941,,,,,,,,,,,,,,,i,1,0.6042,,,,,,他的,i,,,0,1,1,7,1,,,,,,,,,,,,,,,,,,,,,,,,,,,,,,,,,,
,,,,,,,,,,,,,,1,001,2025-02-17_17h28.36.303,IAT(Formal),2021.2.3,Win32,58.82352941,,,,,,,,,,,,,,,e,1,0.5327,,,,,,聪明,e,,,0,2,2,12,1,,,,,,,,,,,,,,,,,,,,,,,,,,,,,,,,,,
,,,,,,,,,,,,,,1,001,2025-02-17_17h28.36.303,IAT(Formal),2021.2.3,Win32,58.82352941,,,,,,,,,,,,,,,e,1,0.3192,,,,,,我们,e,,,0,3,3,2,1,,,,,,,,,,,,,,,,,,,,,,,,,,,,,,,,,,
,,,,,,,,,,,,,,1,001,2025-02-17_17h28.36.303,IAT(Formal),2021.2.3,Win32,58.82352941,,,,,,,,,,,,,,,i,0,0.3825,,,,,,俺,e,,,0,4,4,74,1,,,,,,,,,,,,,,,,,,,,,,,,,,,,,,,,,,
,,,,,,,,,,,,,,1,001,2025-02-17_17h28.36.303,IAT(Formal),2021.2.3,Win32,58.82352941,,,,,,,,,,,,,,,i,1,0.5321,,,,,,下贱,i,,,0,5,5,49,1,,,,,,,,,,,,,,,,,,,,,,,,,,,,,,,,,,
,,,,,,,,,,,,,,1,001,2025-02-17_17h28.36.303,IAT(Formal),2021.2.3,Win32,58.82352941,,,,,,,,,,,,,,,e,1,0.3991,,,,,,我,e,,,0,6,6,0,1,,,,,,,,,,,,,,,,,,,,,,,,,,,,,,,,,,
,,,,,,,,,,,,,,1,001,2025-02-17_17h28.36.303,IAT(Formal),2021.2.3,Win32,58.82352941,,,,,,,,,,,,,,,i,1,0.5514,,,,,,暴躁,i,,,0,7,7,44,1,,,,,,,,,,,,,,,,,,,,,,,,,,,,,,,,,,
,,,,,,,,,,,,,,1,001,2025-02-17_17h28.36.303,IAT(Formal),2021.2.3,Win32,58.82352941,,,,,,,,,,,,,,,e,1,0.4999,,,,,,我的,e,,,0,8,8,1,1,,,,,,,,,,,,,,,,,,,,,,,,,,,,,,,,,,
,,,,,,,,,,,,,,1,001,2025-02-17_17h28.36.303,IAT(Formal),2021.2.3,Win32,58.82352941,,,,,,,,,,,,,,,,0,,,,,,,俺,e,,,0,9,9,4,1,,,,,,,,,,,,,,,,,,,,,,,,,,,,,,,,,,
,,,,,,,,,,,,,,1,001,2025-02-17_17h28.36.303,IAT(Formal),2021.2.3,Win32,58.82352941,,,,,,,,,,,,,,,,0,,,,,,,冒失,i,,,0,10,10,39,1,,,,,,,,,,,,,,,,,,,,,,,,,,,,,,,,,,
,,,,,,,,,,,,,,1,001,2025-02-17_17h28.36.303,IAT(Formal),2021.2.3,Win32,58.82352941,,,,,,,,,,,,,,,i,0,0.868,,,,,,机智,e,,,0,11,11,19,1,,,,,,,,,,,,,,,,,,,,,,,,,,,,,,,,,,
,,,,,,,,,,,,,,1,001,2025-02-17_17h28.36.303,IAT(Formal),2021.2.3,Win32,58.82352941,,,,,,,,,,,,,,,e,1,0.4419,,,,,,我,e,,,0,12,12,60,1,,,,,,,,,,,,,,,,,,,,,,,,,,,,,,,,,,
,,,,,,,,,,,,,,1,001,2025-02-17_17h28.36.303,IAT(Formal),2021.2.3,Win32,58.82352941,,,,,,,,,,,,,,,i,1,0.4878,,,,,,他,i,,,0,13,13,65,1,,,,,,,,,,,,,,,,,,,,,,,,,,,,,,,,,,
,,,,,,,,,,,,,,1,001,2025-02-17_17h28.36.303,IAT(Formal),2021.2.3,Win32,58.82352941,,,,,,,,,,,,,,,i,1,0.584,,,,,,刻薄,i,,,0,14,14,33,1,,,,,,,,,,,,,,,,,,,,,,,,,,,,,,,,,,
,,,,,,,,,,,,,,1,001,2025-02-17_17h28.36.303,IAT(Formal),2021.2.3,Win32,58.82352941,,,,,,,,,,,,,,,e,1,0.4087,,,,,,自己,e,,,0,15,15,63,1,,,,,,,,,,,,,,,,,,,,,,,,,,,,,,,,,,
,,,,,,,,,,,,,,1,001,2025-02-17_17h28.36.303,IAT(Formal),2021.2.3,Win32,58.82352941,,,,,,,,,,,,,,,i,1,0.537,,,,,,他们,i,,,0,16,16,6,1,,,,,,,,,,,,,,,,,,,,,,,,,,,,,,,,,,
,,,,,,,,,,,,,,1,001,2025-02-17_17h28.36.303,IAT(Formal),2021.2.3,Win32,58.82352941,,,,,,,,,,,,,,,i,1,0.4715,,,,,,他们,i,,,0,17,17,76,1,,,,,,,,,,,,,,,,,,,,,,,,,,,,,,,,,,
,,,,,,,,,,,,,,1,001,2025-02-17_17h28.36.303,IAT(Formal),2021.2.3,Win32,58.82352941,,,,,,,,,,,,,,,e,1,0.4443,,,,,,自己,e,,,0,18,18,73,1,,,,,,,,,,,,,,,,,,,,,,,,,,,,,,,,,,
,,,,,,,,,,,,,,1,001,2025-02-17_17h28.36.303,IAT(Formal),2021.2.3,Win32,58.82352941,,,,,,,,,,,,,,,e,1,0.5254,,,,,,我的,e,,,0,19,19,51,1,,,,,,,,,,,,,,,,,,,,,,,,,,,,,,,,,,
,,,,,,,,,,,,,,1,001,2025-02-17_17h28.36.303,IAT(Formal),2021.2.3,Win32,58.82352941,,,,,,,,,,,,,,,e,1,0.5437,,,,,,认真,e,,,0,20,20,20,1,,,,,,,,,,,,,,,,,,,,,,,,,,,,,,,,,,
,,,,,,,,,,,,,,1,001,2025-02-17_17h28.36.303,IAT(Formal),2021.2.3,Win32,58.82352941,,,,,,,,,,,,,,,i,1,0.4736,,,,,,他,i,,,0,21,21,75,1,,,,,,,,,,,,,,,,,,,,,,,,,,,,,,,,,,
,,,,,,,,,,,,,,1,001,2025-02-17_17h28.36.303,IAT(Formal),2021.2.3,Win32,58.82352941,,,,,,,,,,,,,,,e,1,0.459,,,,,,我们,e,,,0,22,22,52,1,,,,,,,,,,,,,,,,,,,,,,,,,,,,,,,,,,
,,,,,,,,,,,,,,1,001,2025-02-17_17h28.36.303,IAT(Formal),2021.2.3,Win32,58.82352941,,,,,,,,,,,,,,,e,1,0.6254,,,,,,无私,e,,,0,23,23,22,1,,,,,,,,,,,,,,,,,,,,,,,,,,,,,,,,,,
,,,,,,,,,,,,,,1,001,2025-02-17_17h28.36.303,IAT(Formal),2021.2.3,Win32,58.82352941,,,,,,,,,,,,,,,e,1,0.3749,,,,,,俺,e,,,0,24,24,54,1,,,,,,,,,,,,,,,,,,,,,,,,,,,,,,,,,,
,,,,,,,,,,,,,,1,001,2025-02-17_17h28.36.303,IAT(Formal),2021.2.3,Win32,58.82352941,,,,,,,,,,,,,,,i,1,0.5223,,,,,,他人,i,,,0,25,25,58,1,,,,,,,,,,,,,,,,,,,,,,,,,,,,,,,,,,
,,,,,,,,,,,,,,1,001,2025-02-17_17h28.36.303,IAT(Formal),2021.2.3,Win32,58.82352941,,,,,,,,,,,,,,,i,1,0.5414,,,,,,鲁莽,i,,,0,26,26,38,1,,,,,,,,,,,,,,,,,,,,,,,,,,,,,,,,,,
,,,,,,,,,,,,,,1,001,2025-02-17_17h28.36.303,IAT(Formal),2021.2.3,Win32,58.82352941,,,,,,,,,,,,,,,i,1,0.5033,,,,,,他的,i,,,0,27,27,57,1,,,,,,,,,,,,,,,,,,,,,,,,,,,,,,,,,,
,,,,,,,,,,,,,,1,001,2025-02-17_17h28.36.303,IAT(Formal),2021.2.3,Win32,58.82352941,,,,,,,,,,,,,,,e,1,0.4973,,,,,,诚恳,e,,,0,28,28,29,1,,,,,,,,,,,,,,,,,,,,,,,,,,,,,,,,,,
,,,,,,,,,,,,,,1,001,2025-02-17_17h28.36.303,IAT(Formal),2021.2.3,Win32,58.82352941,,,,,,,,,,,,,,,i,1,0.5235,,,,,,卑鄙,i,,,0,29,29,30,1,,,,,,,,,,,,,,,,,,,,,,,,,,,,,,,,,,
,,,,,,,,,,,,,,1,001,2025-02-17_17h28.36.303,IAT(Formal),2021.2.3,Win32,58.82352941,,,,,,,,,,,,,,,i,1,0.9212,,,,,,其他,i,,,0,30,30,59,1,,,,,,,,,,,,,,,,,,,,,,,,,,,,,,,,,,
,,,,,,,,,,,,,,1,001,2025-02-17_17h28.36.303,IAT(Formal),2021.2.3,Win32,58.82352941,,,,,,,,,,,,,,,e,1,0.4847,,,,,,我,e,,,0,31,31,50,1,,,,,,,,,,,,,,,,,,,,,,,,,,,,,,,,,,
,,,,,,,,,,,,,,1,001,2025-02-17_17h28.36.303,IAT(Formal),2021.2.3,Win32,58.82352941,,,,,,,,,,,,,,,e,1,0.5179,,,,,,自己,e,,,0,32,32,3,1,,,,,,,,,,,,,,,,,,,,,,,,,,,,,,,,,,
,,,,,,,,,,,,,,1,001,2025-02-17_17h28.36.303,IAT(Formal),2021.2.3,Win32,58.82352941,,,,,,,,,,,,,,,i,1,0.5257,,,,,,他的,i,,,0,33,33,77,1,,,,,,,,,,,,,,,,,,,,,,,,,,,,,,,,,,
,,,,,,,,,,,,,,1,001,2025-02-17_17h28.36.303,IAT(Formal),2021.2.3,Win32,58.82352941,,,,,,,,,,,,,,,e,1,0.4503,,,,,,我的,e,,,0,34,34,61,1,,,,,,,,,,,,,,,,,,,,,,,,,,,,,,,,,,
,,,,,,,,,,,,,,1,001,2025-02-17_17h28.36.303,IAT(Formal),2021.2.3,Win32,58.82352941,,,,,,,,,,,,,,,e,1,0.404,,,,,,我,e,,,0,35,35,70,1,,,,,,,,,,,,,,,,,,,,,,,,,,,,,,,,,,
,,,,,,,,,,,,,,1,001,2025-02-17_17h28.36.303,IAT(Formal),2021.2.3,Win32,58.82352941,,,,,,,,,,,,,,,i,1,0.5685,,,,,,自卑,i,,,0,36,36,36,1,,,,,,,,,,,,,,,,,,,,,,,,,,,,,,,,,,
,,,,,,,,,,,,,,1,001,2025-02-17_17h28.36.303,IAT(Formal),2021.2.3,Win32,58.82352941,,,,,,,,,,,,,,,i,1,0.8838,,,,,,轻率,i,,,0,37,37,48,1,,,,,,,,,,,,,,,,,,,,,,,,,,,,,,,,,,
,,,,,,,,,,,,,,1,001,2025-02-17_17h28.36.303,IAT(Formal),2021.2.3,Win32,58.82352941,,,,,,,,,,,,,,,e,1,0.6511,,,,,,勇敢,e,,,0,38,38,17,1,,,,,,,,,,,,,,,,,,,,,,,,,,,,,,,,,,
,,,,,,,,,,,,,,1,001,2025-02-17_17h28.36.303,IAT(Formal),2021.2.3,Win32,58.82352941,,,,,,,,,,,,,,,e,1,0.4331,,,,,,活泼,e,,,0,39,39,28,1,,,,,,,,,,,,,,,,,,,,,,,,,,,,,,,,,,
,,,,,,,,,,,,,,1,001,2025-02-17_17h28.36.303,IAT(Formal),2021.2.3,Win32,58.82352941,,,,,,,,,,,,,,,i,1,0.7682,,,,,,固执,i,,,0,40,40,47,1,,,,,,,,,,,,,,,,,,,,,,,,,,,,,,,,,,
,,,,,,,,,,,,,,1,001,2025-02-17_17h28.36.303,IAT(Formal),2021.2.3,Win32,58.82352941,,,,,,,,,,,,,,,e,1,0.5393,,,,,,诚实,e,,,0,41,41,15,1,,,,,,,,,,,,,,,,,,,,,,,,,,,,,,,,,,
,,,,,,,,,,,,,,1,001,2025-02-17_17h28.36.303,IAT(Formal),2021.2.3,Win32,58.82352941,,,,,,,,,,,,,,,e,1,0.477,,,,,,细腻,e,,,0,42,42,25,1,,,,,,,,,,,,,,,,,,,,,,,,,,,,,,,,,,
,,,,,,,,,,,,,,1,001,2025-02-17_17h28.36.303,IAT(Formal),2021.2.3,Win32,58.82352941,,,,,,,,,,,,,,,i,1,0.688,,,,,,执拗,i,,,0,43,43,40,1,,,,,,,,,,,,,,,,,,,,,,,,,,,,,,,,,,
,,,,,,,,,,,,,,1,001,2025-02-17_17h28.36.303,IAT(Formal),2021.2.3,Win32,58.82352941,,,,,,,,,,,,,,,i,1,0.7078,,,,,,野蛮,i,,,0,44,44,46,1,,,,,,,,,,,,,,,,,,,,,,,,,,,,,,,,,,
,,,,,,,,,,,,,,1,001,2025-02-17_17h28.36.303,IAT(Formal),2021.2.3,Win32,58.82352941,,,,,,,,,,,,,,,e,1,0.6455,,,,,,杰出,e,,,0,45,45,13,1,,,,,,,,,,,,,,,,,,,,,,,,,,,,,,,,,,
,,,,,,,,,,,,,,1,001,2025-02-17_17h28.36.303,IAT(Formal),2021.2.3,Win32,58.82352941,,,,,,,,,,,,,,,i,1,0.5248,,,,,,傲慢,i,,,0,46,46,37,1,,,,,,,,,,,,,,,,,,,,,,,,,,,,,,,,,,
,,,,,,,,,,,,,,1,001,2025-02-17_17h28.36.303,IAT(Formal),2021.2.3,Win32,58.82352941,,,,,,,,,,,,,,,i,1,0.663,,,,,,消极,i,,,0,47,47,35,1,,,,,,,,,,,,,,,,,,,,,,,,,,,,,,,,,,
,,,,,,,,,,,,,,1,001,2025-02-17_17h28.36.303,IAT(Formal),2021.2.3,Win32,58.82352941,,,,,,,,,,,,,,,e,1,0.5336,,,,,,自己,e,,,0,48,48,53,1,,,,,,,,,,,,,,,,,,,,,,,,,,,,,,,,,,
,,,,,,,,,,,,,,1,001,2025-02-17_17h28.36.303,IAT(Formal),2021.2.3,Win32,58.82352941,,,,,,,,,,,,,,,i,1,0.5836,,,,,,愚蠢,i,,,0,49,49,32,1,,,,,,,,,,,,,,,,,,,,,,,,,,,,,,,,,,
,,,,,,,,,,,,,,1,001,2025-02-17_17h28.36.303,IAT(Formal),2021.2.3,Win32,58.82352941,,,,,,,,,,,,,,,i,1,0.5511,,,,,,他人,i,,,0,50,50,8,1,,,,,,,,,,,,,,,,,,,,,,,,,,,,,,,,,,
,,,,,,,,,,,,,,1,001,2025-02-17_17h28.36.303,IAT(Formal),2021.2.3,Win32,58.82352941,,,,,,,,,,,,,,,e,1,0.6173,,,,,,正直,e,,,0,51,51,16,1,,,,,,,,,,,,,,,,,,,,,,,,,,,,,,,,,,
,,,,,,,,,,,,,,1,001,2025-02-17_17h28.36.303,IAT(Formal),2021.2.3,Win32,58.82352941,,,,,,,,,,,,,,,e,1,0.5239,,,,,,冷静,e,,,0,52,52,26,1,,,,,,,,,,,,,,,,,,,,,,,,,,,,,,,,,,
,,,,,,,,,,,,,,1,001,2025-02-17_17h28.36.303,IAT(Formal),2021.2.3,Win32,58.82352941,,,,,,,,,,,,,,,e,1,0.4814,,,,,,乐观,e,,,0,53,53,14,1,,,,,,,,,,,,,,,,,,,,,,,,,,,,,,,,,,
,,,,,,,,,,,,,,1,001,2025-02-17_17h28.36.303,IAT(Formal),2021.2.3,Win32,58.82352941,,,,,,,,,,,,,,,e,1,0.5172,,,,,,我们,e,,,0,54,54,62,1,,,,,,,,,,,,,,,,,,,,,,,,,,,,,,,,,,
,,,,,,,,,,,,,,1,001,2025-02-17_17h28.36.303,IAT(Formal),2021.2.3,Win32,58.82352941,,,,,,,,,,,,,,,e,1,0.4073,,,,,,我的,e,,,0,55,55,71,1,,,,,,,,,,,,,,,,,,,,,,,,,,,,,,,,,,
,,,,,,,,,,,,,,1,001,2025-02-17_17h28.36.303,IAT(Formal),2021.2.3,Win32,58.82352941,,,,,,,,,,,,,,,e,1,0.4991,,,,,,公正,e,,,0,56,56,23,1,,,,,,,,,,,,,,,,,,,,,,,,,,,,,,,,,,
,,,,,,,,,,,,,,1,001,2025-02-17_17h28.36.303,IAT(Formal),2021.2.3,Win32,58.82352941,,,,,,,,,,,,,,,e,1,0.4179,,,,,,朴实,e,,,0,57,57,24,1,,,,,,,,,,,,,,,,,,,,,,,,,,,,,,,,,,
,,,,,,,,,,,,,,1,001,2025-02-17_17h28.36.303,IAT(Formal),2021.2.3,Win32,58.82352941,,,,,,,,,,,,,,,i,1,0.6042,,,,,,他的,i,,,0,58,58,67,1,,,,,,,,,,,,,,,,,,,,,,,,,,,,,,,,,,
,,,,,,,,,,,,,,1,001,2025-02-17_17h28.36.303,IAT(Formal),2021.2.3,Win32,58.82352941,,,,,,,,,,,,,,,i,1,0.5005,,,,,,凶狠,i,,,0,59,59,42,1,,,,,,,,,,,,,,,,,,,,,,,,,,,,,,,,,,
,,,,,,,,,,,,,,1,001,2025-02-17_17h28.36.303,IAT(Formal),2021.2.3,Win32,58.82352941,,,,,,,,,,,,,,,i,1,0.4885,,,,,,他,i,,,0,60,60,55,1,,,,,,,,,,,,,,,,,,,,,,,,,,,,,,,,,,
,,,,,,,,,,,,,,1,001,2025-02-17_17h28.36.303,IAT(Formal),2021.2.3,Win32,58.82352941,,,,,,,,,,,,,,,i,1,0.4899,,,,,,其他,i,,,0,61,61,9,1,,,,,,,,,,,,,,,,,,,,,,,,,,,,,,,,,,
,,,,,,,,,,,,,,1,001,2025-02-17_17h28.36.303,IAT(Formal),2021.2.3,Win32,58.82352941,,,,,,,,,,,,,,,i,1,0.517,,,,,,其他,i,,,0,62,62,79,1,,,,,,,,,,,,,,,,,,,,,,,,,,,,,,,,,,
,,,,,,,,,,,,,,1,001,2025-02-17_17h28.36.303,IAT(Formal),2021.2.3,Win32,58.82352941,,,,,,,,,,,,,,,i,1,0.4336,,,,,,其他,i,,,0,63,63,69,1,,,,,,,,,,,,,,,,,,,,,,,,,,,,,,,,,,
,,,,,,,,,,,,,,1,001,2025-02-17_17h28.36.303,IAT(Formal),2021.2.3,Win32,58.82352941,,,,,,,,,,,,,,,e,1,0.5331,,,,,,稳重,e,,,0,64,64,21,1,,,,,,,,,,,,,,,,,,,,,,,,,,,,,,,,,,
,,,,,,,,,,,,,,1,001,2025-02-17_17h28.36.303,IAT(Formal),2021.2.3,Win32,58.82352941,,,,,,,,,,,,,,,e,0,0.4039,,,,,,悲观,i,,,0,65,65,34,1,,,,,,,,,,,,,,,,,,,,,,,,,,,,,,,,,,
,,,,,,,,,,,,,,1,001,2025-02-17_17h28.36.303,IAT(Formal),2021.2.3,Win32,58.82352941,,,,,,,,,,,,,,,e,1,0.5089,,,,,,勤奋,e,,,0,66,66,18,1,,,,,,,,,,,,,,,,,,,,,,,,,,,,,,,,,,
,,,,,,,,,,,,,,1,001,2025-02-17_17h28.36.303,IAT(Formal),2021.2.3,Win32,58.82352941,,,,,,,,,,,,,,,i,1,0.4697,,,,,,他人,i,,,0,67,67,78,1,,,,,,,,,,,,,,,,,,,,,,,,,,,,,,,,,,
,,,,,,,,,,,,,,1,001,2025-02-17_17h28.36.303,IAT(Formal),2021.2.3,Win32,58.82352941,,,,,,,,,,,,,,,e,1,0.6357,,,,,,热情,e,,,0,68,68,27,1,,,,,,,,,,,,,,,,,,,,,,,,,,,,,,,,,,
,,,,,,,,,,,,,,1,001,2025-02-17_17h28.36.303,IAT(Formal),2021.2.3,Win32,58.82352941,,,,,,,,,,,,,,,i,1,0.5852,,,,,,他人,i,,,0,69,69,68,1,,,,,,,,,,,,,,,,,,,,,,,,,,,,,,,,,,
,,,,,,,,,,,,,,1,001,2025-02-17_17h28.36.303,IAT(Formal),2021.2.3,Win32,58.82352941,,,,,,,,,,,,,,,e,1,0.6007,,,,,,优秀,e,,,0,70,70,10,1,,,,,,,,,,,,,,,,,,,,,,,,,,,,,,,,,,
,,,,,,,,,,,,,,1,001,2025-02-17_17h28.36.303,IAT(Formal),2021.2.3,Win32,58.82352941,,,,,,,,,,,,,,,i,1,0.4272,,,,,,他们,i,,,0,71,71,66,1,,,,,,,,,,,,,,,,,,,,,,,,,,,,,,,,,,
,,,,,,,,,,,,,,1,001,2025-02-17_17h28.36.303,IAT(Formal),2021.2.3,Win32,58.82352941,,,,,,,,,,,,,,,i,1,0.475,,,,,,他,i,,,0,72,72,5,1,,,,,,,,,,,,,,,,,,,,,,,,,,,,,,,,,,
,,,,,,,,,,,,,,1,001,2025-02-17_17h28.36.303,IAT(Formal),2021.2.3,Win32,58.82352941,,,,,,,,,,,,,,,i,1,0.5563,,,,,,虚伪,i,,,0,73,73,31,1,,,,,,,,,,,,,,,,,,,,,,,,,,,,,,,,,,
,,,,,,,,,,,,,,1,001,2025-02-17_17h28.36.303,IAT(Formal),2021.2.3,Win32,58.82352941,,,,,,,,,,,,,,,i,1,0.9573,,,,,,猖狂,i,,,0,74,74,45,1,,,,,,,,,,,,,,,,,,,,,,,,,,,,,,,,,,
,,,,,,,,,,,,,,1,001,2025-02-17_17h28.36.303,IAT(Formal),2021.2.3,Win32,58.82352941,,,,,,,,,,,,,,,e,1,0.5845,,,,,,俺,e,,,0,75,75,64,1,,,,,,,,,,,,,,,,,,,,,,,,,,,,,,,,,,
,,,,,,,,,,,,,,1,001,2025-02-17_17h28.36.303,IAT(Formal),2021.2.3,Win32,58.82352941,,,,,,,,,,,,,,,,0,,,,,,,崇高,e,,,0,76,76,11,1,,,,,,,,,,,,,,,,,,,,,,,,,,,,,,,,,,
,,,,,,,,,,,,,,1,001,2025-02-17_17h28.36.303,IAT(Formal),2021.2.3,Win32,58.82352941,,,,,,,,,,,,,,,i,1,0.4607,,,,,,他们,i,,,0,77,77,56,1,,,,,,,,,,,,,,,,,,,,,,,,,,,,,,,,,,
,,,,,,,,,,,,,,1,001,2025-02-17_17h28.36.303,IAT(Formal),2021.2.3,Win32,58.82352941,,,,,,,,,,,,,,,i,1,0.5507,,,,,,自私,i,,,0,78,78,43,1,,,,,,,,,,,,,,,,,,,,,,,,,,,,,,,,,,
,,,,,,,,,,,,,,1,001,2025-02-17_17h28.36.303,IAT(Formal),2021.2.3,Win32,58.82352941,,,,,,,,,,,,,,,i,1,0.5629,,,,,,散漫,i,,,0,79,79,41,1,,,,,,,,,,,,,,,,,,,,,,,,,,,,,,,,,,
,,,,,,,,,,,,,,1,001,2025-02-17_17h28.36.303,IAT(Formal),2021.2.3,Win32,58.82352941,,,,,,,,,,,,,,,e,1,0.5669,,,,,,诚恳,e,,,1,0,80,29,1,,,,,,,,,,,,,,,,,,,,,,,,,,,,,,,,,,
,,,,,,,,,,,,,,1,001,2025-02-17_17h28.36.303,IAT(Formal),2021.2.3,Win32,58.82352941,,,,,,,,,,,,,,,e,1,0.5677,,,,,,诚实,e,,,1,1,81,15,1,,,,,,,,,,,,,,,,,,,,,,,,,,,,,,,,,,
,,,,,,,,,,,,,,1,001,2025-02-17_17h28.36.303,IAT(Formal),2021.2.3,Win32,58.82352941,,,,,,,,,,,,,,,e,1,0.5011,,,,,,公正,e,,,1,2,82,23,1,,,,,,,,,,,,,,,,,,,,,,,,,,,,,,,,,,
,,,,,,,,,,,,,,1,001,2025-02-17_17h28.36.303,IAT(Formal),2021.2.3,Win32,58.82352941,,,,,,,,,,,,,,,e,0,0.4407,,,,,,他,i,,,1,3,83,5,1,,,,,,,,,,,,,,,,,,,,,,,,,,,,,,,,,,
,,,,,,,,,,,,,,1,001,2025-02-17_17h28.36.303,IAT(Formal),2021.2.3,Win32,58.82352941,,,,,,,,,,,,,,,e,1,0.4627,,,,,,细腻,e,,,1,4,84,25,1,,,,,,,,,,,,,,,,,,,,,,,,,,,,,,,,,,
,,,,,,,,,,,,,,1,001,2025-02-17_17h28.36.303,IAT(Formal),2021.2.3,Win32,58.82352941,,,,,,,,,,,,,,,e,1,0.4192,,,,,,聪明,e,,,1,5,85,12,1,,,,,,,,,,,,,,,,,,,,,,,,,,,,,,,,,,
,,,,,,,,,,,,,,1,001,2025-02-17_17h28.36.303,IAT(Formal),2021.2.3,Win32,58.82352941,,,,,,,,,,,,,,,e,1,0.4828,,,,,,勇敢,e,,,1,6,86,17,1,,,,,,,,,,,,,,,,,,,,,,,,,,,,,,,,,,
,,,,,,,,,,,,,,1,001,2025-02-17_17h28.36.303,IAT(Formal),2021.2.3,Win32,58.82352941,,,,,,,,,,,,,,,i,1,0.5668,,,,,,暴躁,i,,,1,7,87,44,1,,,,,,,,,,,,,,,,,,,,,,,,,,,,,,,,,,
,,,,,,,,,,,,,,1,001,2025-02-17_17h28.36.303,IAT(Formal),2021.2.3,Win32,58.82352941,,,,,,,,,,,,,,,e,1,0.7558,,,,,,朴实,e,,,1,8,88,24,1,,,,,,,,,,,,,,,,,,,,,,,,,,,,,,,,,,
,,,,,,,,,,,,,,1,001,2025-02-17_17h28.36.303,IAT(Formal),2021.2.3,Win32,58.82352941,,,,,,,,,,,,,,,e,1,0.4953,,,,,,我,e,,,1,9,89,70,1,,,,,,,,,,,,,,,,,,,,,,,,,,,,,,,,,,
,,,,,,,,,,,,,,1,001,2025-02-17_17h28.36.303,IAT(Formal),2021.2.3,Win32,58.82352941,,,,,,,,,,,,,,,i,1,0.5601,,,,,,他们,i,,,1,10,90,76,1,,,,,,,,,,,,,,,,,,,,,,,,,,,,,,,,,,
,,,,,,,,,,,,,,1,001,2025-02-17_17h28.36.303,IAT(Formal),2021.2.3,Win32,58.82352941,,,,,,,,,,,,,,,i,1,0.5073,,,,,,他们,i,,,1,11,91,56,1,,,,,,,,,,,,,,,,,,,,,,,,,,,,,,,,,,
,,,,,,,,,,,,,,1,001,2025-02-17_17h28.36.303,IAT(Formal),2021.2.3,Win32,58.82352941,,,,,,,,,,,,,,,i,1,0.6336,,,,,,鲁莽,i,,,1,12,92,38,1,,,,,,,,,,,,,,,,,,,,,,,,,,,,,,,,,,
,,,,,,,,,,,,,,1,001,2025-02-17_17h28.36.303,IAT(Formal),2021.2.3,Win32,58.82352941,,,,,,,,,,,,,,,i,1,0.4501,,,,,,猖狂,i,,,1,13,93,45,1,,,,,,,,,,,,,,,,,,,,,,,,,,,,,,,,,,
,,,,,,,,,,,,,,1,001,2025-02-17_17h28.36.303,IAT(Formal),2021.2.3,Win32,58.82352941,,,,,,,,,,,,,,,e,1,0.5191,,,,,,我们,e,,,1,14,94,2,1,,,,,,,,,,,,,,,,,,,,,,,,,,,,,,,,,,
,,,,,,,,,,,,,,1,001,2025-02-17_17h28.36.303,IAT(Formal),2021.2.3,Win32,58.82352941,,,,,,,,,,,,,,,i,1,0.4426,,,,,,其他,i,,,1,15,95,79,1,,,,,,,,,,,,,,,,,,,,,,,,,,,,,,,,,,
,,,,,,,,,,,,,,1,001,2025-02-17_17h28.36.303,IAT(Formal),2021.2.3,Win32,58.82352941,,,,,,,,,,,,,,,i,1,0.5123,,,,,,凶狠,i,,,1,16,96,42,1,,,,,,,,,,,,,,,,,,,,,,,,,,,,,,,,,,
,,,,,,,,,,,,,,1,001,2025-02-17_17h28.36.303,IAT(Formal),2021.2.3,Win32,58.82352941,,,,,,,,,,,,,,,e,1,0.9713,,,,,,勤奋,e,,,1,17,97,18,1,,,,,,,,,,,,,,,,,,,,,,,,,,,,,,,,,,
,,,,,,,,,,,,,,1,001,2025-02-17_17h28.36.303,IAT(Formal),2021.2.3,Win32,58.82352941,,,,,,,,,,,,,,,i,1,0.6009,,,,,,散漫,i,,,1,18,98,41,1,,,,,,,,,,,,,,,,,,,,,,,,,,,,,,,,,,
,,,,,,,,,,,,,,1,001,2025-02-17_17h28.36.303,IAT(Formal),2021.2.3,Win32,58.82352941,,,,,,,,,,,,,,,e,1,0.4912,,,,,,机智,e,,,1,19,99,19,1,,,,,,,,,,,,,,,,,,,,,,,,,,,,,,,,,,
,,,,,,,,,,,,,,1,001,2025-02-17_17h28.36.303,IAT(Formal),2021.2.3,Win32,58.82352941,,,,,,,,,,,,,,,i,1,0.5363,,,,,,消极,i,,,1,20,100,35,1,,,,,,,,,,,,,,,,,,,,,,,,,,,,,,,,,,
,,,,,,,,,,,,,,1,001,2025-02-17_17h28.36.303,IAT(Formal),2021.2.3,Win32,58.82352941,,,,,,,,,,,,,,,i,1,0.5279,,,,,,他人,i,,,1,21,101,78,1,,,,,,,,,,,,,,,,,,,,,,,,,,,,,,,,,,
,,,,,,,,,,,,,,1,001,2025-02-17_17h28.36.303,IAT(Formal),2021.2.3,Win32,58.82352941,,,,,,,,,,,,,,,i,0,0.4675,,,,,,热情,e,,,1,22,102,27,1,,,,,,,,,,,,,,,,,,,,,,,,,,,,,,,,,,
,,,,,,,,,,,,,,1,001,2025-02-17_17h28.36.303,IAT(Formal),2021.2.3,Win32,58.82352941,,,,,,,,,,,,,,,e,1,0.3843,,,,,,自己,e,,,1,23,103,63,1,,,,,,,,,,,,,,,,,,,,,,,,,,,,,,,,,,
,,,,,,,,,,,,,,1,001,2025-02-17_17h28.36.303,IAT(Formal),2021.2.3,Win32,58.82352941,,,,,,,,,,,,,,,i,1,0.488,,,,,,固执,i,,,1,24,104,47,1,,,,,,,,,,,,,,,,,,,,,,,,,,,,,,,,,,
,,,,,,,,,,,,,,1,001,2025-02-17_17h28.36.303,IAT(Formal),2021.2.3,Win32,58.82352941,,,,,,,,,,,,,,,e,1,0.4712,,,,,,俺,e,,,1,25,105,64,1,,,,,,,,,,,,,,,,,,,,,,,,,,,,,,,,,,
,,,,,,,,,,,,,,1,001,2025-02-17_17h28.36.303,IAT(Formal),2021.2.3,Win32,58.82352941,,,,,,,,,,,,,,,e,1,0.391,,,,,,乐观,e,,,1,26,106,14,1,,,,,,,,,,,,,,,,,,,,,,,,,,,,,,,,,,
,,,,,,,,,,,,,,1,001,2025-02-17_17h28.36.303,IAT(Formal),2021.2.3,Win32,58.82352941,,,,,,,,,,,,,,,e,1,0.4932,,,,,,杰出,e,,,1,27,107,13,1,,,,,,,,,,,,,,,,,,,,,,,,,,,,,,,,,,
,,,,,,,,,,,,,,1,001,2025-02-17_17h28.36.303,IAT(Formal),2021.2.3,Win32,58.82352941,,,,,,,,,,,,,,,i,1,0.529,,,,,,野蛮,i,,,1,28,108,46,1,,,,,,,,,,,,,,,,,,,,,,,,,,,,,,,,,,
,,,,,,,,,,,,,,1,001,2025-02-17_17h28.36.303,IAT(Formal),2021.2.3,Win32,58.82352941,,,,,,,,,,,,,,,e,1,0.3683,,,,,,自己,e,,,1,29,109,53,1,,,,,,,,,,,,,,,,,,,,,,,,,,,,,,,,,,
,,,,,,,,,,,,,,1,001,2025-02-17_17h28.36.303,IAT(Formal),2021.2.3,Win32,58.82352941,,,,,,,,,,,,,,,i,1,0.5304,,,,,,他,i,,,1,30,110,65,1,,,,,,,,,,,,,,,,,,,,,,,,,,,,,,,,,,
,,,,,,,,,,,,,,1,001,2025-02-17_17h28.36.303,IAT(Formal),2021.2.3,Win32,58.82352941,,,,,,,,,,,,,,,e,1,0.5532,,,,,,活泼,e,,,1,31,111,28,1,,,,,,,,,,,,,,,,,,,,,,,,,,,,,,,,,,
,,,,,,,,,,,,,,1,001,2025-02-17_17h28.36.303,IAT(Formal),2021.2.3,Win32,58.82352941,,,,,,,,,,,,,,,e,1,0.5222,,,,,,优秀,e,,,1,32,112,10,1,,,,,,,,,,,,,,,,,,,,,,,,,,,,,,,,,,
,,,,,,,,,,,,,,1,001,2025-02-17_17h28.36.303,IAT(Formal),2021.2.3,Win32,58.82352941,,,,,,,,,,,,,,,i,1,0.7287,,,,,,愚蠢,i,,,1,33,113,32,1,,,,,,,,,,,,,,,,,,,,,,,,,,,,,,,,,,
,,,,,,,,,,,,,,1,001,2025-02-17_17h28.36.303,IAT(Formal),2021.2.3,Win32,58.82352941,,,,,,,,,,,,,,,e,1,0.9668,,,,,,我的,e,,,1,34,114,61,1,,,,,,,,,,,,,,,,,,,,,,,,,,,,,,,,,,
,,,,,,,,,,,,,,1,001,2025-02-17_17h28.36.303,IAT(Formal),2021.2.3,Win32,58.82352941,,,,,,,,,,,,,,,i,1,0.5027,,,,,,他,i,,,1,35,115,55,1,,,,,,,,,,,,,,,,,,,,,,,,,,,,,,,,,,
,,,,,,,,,,,,,,1,001,2025-02-17_17h28.36.303,IAT(Formal),2021.2.3,Win32,58.82352941,,,,,,,,,,,,,,,e,1,0.4022,,,,,,稳重,e,,,1,36,116,21,1,,,,,,,,,,,,,,,,,,,,,,,,,,,,,,,,,,
,,,,,,,,,,,,,,1,001,2025-02-17_17h28.36.303,IAT(Formal),2021.2.3,Win32,58.82352941,,,,,,,,,,,,,,,i,1,0.4564,,,,,,下贱,i,,,1,37,117,49,1,,,,,,,,,,,,,,,,,,,,,,,,,,,,,,,,,,
,,,,,,,,,,,,,,1,001,2025-02-17_17h28.36.303,IAT(Formal),2021.2.3,Win32,58.82352941,,,,,,,,,,,,,,,i,1,0.4345,,,,,,冒失,i,,,1,38,118,39,1,,,,,,,,,,,,,,,,,,,,,,,,,,,,,,,,,,
,,,,,,,,,,,,,,1,001,2025-02-17_17h28.36.303,IAT(Formal),2021.2.3,Win32,58.82352941,,,,,,,,,,,,,,,e,1,0.3843,,,,,,自己,e,,,1,39,119,3,1,,,,,,,,,,,,,,,,,,,,,,,,,,,,,,,,,,
,,,,,,,,,,,,,,1,001,2025-02-17_17h28.36.303,IAT(Formal),2021.2.3,Win32,58.82352941,,,,,,,,,,,,,,,i,1,0.5063,,,,,,自私,i,,,1,40,120,43,1,,,,,,,,,,,,,,,,,,,,,,,,,,,,,,,,,,
,,,,,,,,,,,,,,1,001,2025-02-17_17h28.36.303,IAT(Formal),2021.2.3,Win32,58.82352941,,,,,,,,,,,,,,,i,1,0.5748,,,,,,轻率,i,,,1,41,121,48,1,,,,,,,,,,,,,,,,,,,,,,,,,,,,,,,,,,
,,,,,,,,,,,,,,1,001,2025-02-17_17h28.36.303,IAT(Formal),2021.2.3,Win32,58.82352941,,,,,,,,,,,,,,,e,1,0.4509,,,,,,我,e,,,1,42,122,0,1,,,,,,,,,,,,,,,,,,,,,,,,,,,,,,,,,,
,,,,,,,,,,,,,,1,001,2025-02-17_17h28.36.303,IAT(Formal),2021.2.3,Win32,58.82352941,,,,,,,,,,,,,,,e,1,0.4093,,,,,,我们,e,,,1,43,123,52,1,,,,,,,,,,,,,,,,,,,,,,,,,,,,,,,,,,
,,,,,,,,,,,,,,1,001,2025-02-17_17h28.36.303,IAT(Formal),2021.2.3,Win32,58.82352941,,,,,,,,,,,,,,,i,1,0.4607,,,,,,他的,i,,,1,44,124,67,1,,,,,,,,,,,,,,,,,,,,,,,,,,,,,,,,,,
,,,,,,,,,,,,,,1,001,2025-02-17_17h28.36.303,IAT(Formal),2021.2.3,Win32,58.82352941,,,,,,,,,,,,,,,i,1,0.5281,,,,,,虚伪,i,,,1,45,125,31,1,,,,,,,,,,,,,,,,,,,,,,,,,,,,,,,,,,
,,,,,,,,,,,,,,1,001,2025-02-17_17h28.36.303,IAT(Formal),2021.2.3,Win32,58.82352941,,,,,,,,,,,,,,,e,1,0.5439,,,,,,正直,e,,,1,46,126,16,1,,,,,,,,,,,,,,,,,,,,,,,,,,,,,,,,,,
,,,,,,,,,,,,,,1,001,2025-02-17_17h28.36.303,IAT(Formal),2021.2.3,Win32,58.82352941,,,,,,,,,,,,,,,e,1,0.539,,,,,,我的,e,,,1,47,127,71,1,,,,,,,,,,,,,,,,,,,,,,,,,,,,,,,,,,
,,,,,,,,,,,,,,1,001,2025-02-17_17h28.36.303,IAT(Formal),2021.2.3,Win32,58.82352941,,,,,,,,,,,,,,,i,1,0.3852,,,,,,其他,i,,,1,48,128,69,1,,,,,,,,,,,,,,,,,,,,,,,,,,,,,,,,,,
,,,,,,,,,,,,,,1,001,2025-02-17_17h28.36.303,IAT(Formal),2021.2.3,Win32,58.82352941,,,,,,,,,,,,,,,i,1,0.4295,,,,,,他们,i,,,1,49,129,6,1,,,,,,,,,,,,,,,,,,,,,,,,,,,,,,,,,,
,,,,,,,,,,,,,,1,001,2025-02-17_17h28.36.303,IAT(Formal),2021.2.3,Win32,58.82352941,,,,,,,,,,,,,,,i,1,0.4607,,,,,,卑鄙,i,,,1,50,130,30,1,,,,,,,,,,,,,,,,,,,,,,,,,,,,,,,,,,
,,,,,,,,,,,,,,1,001,2025-02-17_17h28.36.303,IAT(Formal),2021.2.3,Win32,58.82352941,,,,,,,,,,,,,,,i,1,0.4239,,,,,,傲慢,i,,,1,51,131,37,1,,,,,,,,,,,,,,,,,,,,,,,,,,,,,,,,,,
,,,,,,,,,,,,,,1,001,2025-02-17_17h28.36.303,IAT(Formal),2021.2.3,Win32,58.82352941,,,,,,,,,,,,,,,i,1,0.5262,,,,,,执拗,i,,,1,52,132,40,1,,,,,,,,,,,,,,,,,,,,,,,,,,,,,,,,,,
,,,,,,,,,,,,,,1,001,2025-02-17_17h28.36.303,IAT(Formal),2021.2.3,Win32,58.82352941,,,,,,,,,,,,,,,e,1,0.5346,,,,,,崇高,e,,,1,53,133,11,1,,,,,,,,,,,,,,,,,,,,,,,,,,,,,,,,,,
,,,,,,,,,,,,,,1,001,2025-02-17_17h28.36.303,IAT(Formal),2021.2.3,Win32,58.82352941,,,,,,,,,,,,,,,i,1,0.5506,,,,,,其他,i,,,1,54,134,9,1,,,,,,,,,,,,,,,,,,,,,,,,,,,,,,,,,,
,,,,,,,,,,,,,,1,001,2025-02-17_17h28.36.303,IAT(Formal),2021.2.3,Win32,58.82352941,,,,,,,,,,,,,,,e,1,0.4436,,,,,,自己,e,,,1,55,135,73,1,,,,,,,,,,,,,,,,,,,,,,,,,,,,,,,,,,
,,,,,,,,,,,,,,1,001,2025-02-17_17h28.36.303,IAT(Formal),2021.2.3,Win32,58.82352941,,,,,,,,,,,,,,,i,0,0.5742,,,,,,无私,e,,,1,56,136,22,1,,,,,,,,,,,,,,,,,,,,,,,,,,,,,,,,,,
,,,,,,,,,,,,,,1,001,2025-02-17_17h28.36.303,IAT(Formal),2021.2.3,Win32,58.82352941,,,,,,,,,,,,,,,e,1,0.5399,,,,,,俺,e,,,1,57,137,4,1,,,,,,,,,,,,,,,,,,,,,,,,,,,,,,,,,,
,,,,,,,,,,,,,,1,001,2025-02-17_17h28.36.303,IAT(Formal),2021.2.3,Win32,58.82352941,,,,,,,,,,,,,,,i,1,0.5924,,,,,,他人,i,,,1,58,138,8,1,,,,,,,,,,,,,,,,,,,,,,,,,,,,,,,,,,
,,,,,,,,,,,,,,1,001,2025-02-17_17h28.36.303,IAT(Formal),2021.2.3,Win32,58.82352941,,,,,,,,,,,,,,,e,1,0.4912,,,,,,我们,e,,,1,59,139,62,1,,,,,,,,,,,,,,,,,,,,,,,,,,,,,,,,,,
,,,,,,,,,,,,,,1,001,2025-02-17_17h28.36.303,IAT(Formal),2021.2.3,Win32,58.82352941,,,,,,,,,,,,,,,i,1,0.5435,,,,,,自卑,i,,,1,60,140,36,1,,,,,,,,,,,,,,,,,,,,,,,,,,,,,,,,,,
,,,,,,,,,,,,,,1,001,2025-02-17_17h28.36.303,IAT(Formal),2021.2.3,Win32,58.82352941,,,,,,,,,,,,,,,,0,,,,,,,他的,i,,,1,61,141,57,1,,,,,,,,,,,,,,,,,,,,,,,,,,,,,,,,,,
,,,,,,,,,,,,,,1,001,2025-02-17_17h28.36.303,IAT(Formal),2021.2.3,Win32,58.82352941,,,,,,,,,,,,,,,e,1,0.5107,,,,,,俺,e,,,1,62,142,54,1,,,,,,,,,,,,,,,,,,,,,,,,,,,,,,,,,,
,,,,,,,,,,,,,,1,001,2025-02-17_17h28.36.303,IAT(Formal),2021.2.3,Win32,58.82352941,,,,,,,,,,,,,,,i,1,0.3498,,,,,,刻薄,i,,,1,63,143,33,1,,,,,,,,,,,,,,,,,,,,,,,,,,,,,,,,,,
,,,,,,,,,,,,,,1,001,2025-02-17_17h28.36.303,IAT(Formal),2021.2.3,Win32,58.82352941,,,,,,,,,,,,,,,e,1,0.6627,,,,,,俺,e,,,1,64,144,74,1,,,,,,,,,,,,,,,,,,,,,,,,,,,,,,,,,,
,,,,,,,,,,,,,,1,001,2025-02-17_17h28.36.303,IAT(Formal),2021.2.3,Win32,58.82352941,,,,,,,,,,,,,,,i,0,0.5257,,,,,,我的,e,,,1,65,145,51,1,,,,,,,,,,,,,,,,,,,,,,,,,,,,,,,,,,
,,,,,,,,,,,,,,1,001,2025-02-17_17h28.36.303,IAT(Formal),2021.2.3,Win32,58.82352941,,,,,,,,,,,,,,,e,1,0.4518,,,,,,我,e,,,1,66,146,60,1,,,,,,,,,,,,,,,,,,,,,,,,,,,,,,,,,,
,,,,,,,,,,,,,,1,001,2025-02-17_17h28.36.303,IAT(Formal),2021.2.3,Win32,58.82352941,,,,,,,,,,,,,,,e,1,0.5566,,,,,,我的,e,,,1,67,147,1,1,,,,,,,,,,,,,,,,,,,,,,,,,,,,,,,,,,
,,,,,,,,,,,,,,1,001,2025-02-17_17h28.36.303,IAT(Formal),2021.2.3,Win32,58.82352941,,,,,,,,,,,,,,,e,1,0.4282,,,,,,认真,e,,,1,68,148,20,1,,,,,,,,,,,,,,,,,,,,,,,,,,,,,,,,,,
,,,,,,,,,,,,,,1,001,2025-02-17_17h28.36.303,IAT(Formal),2021.2.3,Win32,58.82352941,,,,,,,,,,,,,,,e,0,0.6675,,,,,,其他,i,,,1,69,149,59,1,,,,,,,,,,,,,,,,,,,,,,,,,,,,,,,,,,
,,,,,,,,,,,,,,1,001,2025-02-17_17h28.36.303,IAT(Formal),2021.2.3,Win32,58.82352941,,,,,,,,,,,,,,,e,1,0.4504,,,,,,我,e,,,1,70,150,50,1,,,,,,,,,,,,,,,,,,,,,,,,,,,,,,,,,,
,,,,,,,,,,,,,,1,001,2025-02-17_17h28.36.303,IAT(Formal),2021.2.3,Win32,58.82352941,,,,,,,,,,,,,,,e,0,0.6384,,,,,,他的,i,,,1,71,151,77,1,,,,,,,,,,,,,,,,,,,,,,,,,,,,,,,,,,
,,,,,,,,,,,,,,1,001,2025-02-17_17h28.36.303,IAT(Formal),2021.2.3,Win32,58.82352941,,,,,,,,,,,,,,,i,1,0.5663,,,,,,他的,i,,,1,72,152,7,1,,,,,,,,,,,,,,,,,,,,,,,,,,,,,,,,,,
,,,,,,,,,,,,,,1,001,2025-02-17_17h28.36.303,IAT(Formal),2021.2.3,Win32,58.82352941,,,,,,,,,,,,,,,i,1,0.7173,,,,,,他人,i,,,1,73,153,58,1,,,,,,,,,,,,,,,,,,,,,,,,,,,,,,,,,,
,,,,,,,,,,,,,,1,001,2025-02-17_17h28.36.303,IAT(Formal),2021.2.3,Win32,58.82352941,,,,,,,,,,,,,,,e,1,0.8666,,,,,,冷静,e,,,1,74,154,26,1,,,,,,,,,,,,,,,,,,,,,,,,,,,,,,,,,,
,,,,,,,,,,,,,,1,001,2025-02-17_17h28.36.303,IAT(Formal),2021.2.3,Win32,58.82352941,,,,,,,,,,,,,,,i,1,0.6181,,,,,,他人,i,,,1,75,155,68,1,,,,,,,,,,,,,,,,,,,,,,,,,,,,,,,,,,
,,,,,,,,,,,,,,1,001,2025-02-17_17h28.36.303,IAT(Formal),2021.2.3,Win32,58.82352941,,,,,,,,,,,,,,,i,1,0.7508,,,,,,他们,i,,,1,76,156,66,1,,,,,,,,,,,,,,,,,,,,,,,,,,,,,,,,,,
,,,,,,,,,,,,,,1,001,2025-02-17_17h28.36.303,IAT(Formal),2021.2.3,Win32,58.82352941,,,,,,,,,,,,,,,i,1,0.784,,,,,,悲观,i,,,1,77,157,34,1,,,,,,,,,,,,,,,,,,,,,,,,,,,,,,,,,,
,,,,,,,,,,,,,,1,001,2025-02-17_17h28.36.303,IAT(Formal),2021.2.3,Win32,58.82352941,,,,,,,,,,,,,,,i,1,0.8003,,,,,,他,i,,,1,78,158,75,1,,,,,,,,,,,,,,,,,,,,,,,,,,,,,,,,,,
,,,,,,,,,,,,,,1,001,2025-02-17_17h28.36.303,IAT(Formal),2021.2.3,Win32,58.82352941,,,,,,,,,,,,,,,e,1,0.5509,,,,,,我们,e,,,1,79,159,72,1,,,,,,,,,,,,,,,,,,,,,,,,,,,,,,,,,,
,,,,,,,,,,,,其他,e,1,001,2025-02-17_17h28.36.303,IAT(Formal),2021.2.3,Win32,58.82352941,,,,,,,,,,,,,,,,,,,,,,,,,,,,,,,,space,19.3422,e,1,0.8184,0,0,0,9,1,,,,,,,,,,,,,,,,,,,,,,,,
,,,,,,,,,,,,他,e,1,001,2025-02-17_17h28.36.303,IAT(Formal),2021.2.3,Win32,58.82352941,,,,,,,,,,,,,,,,,,,,,,,,,,,,,,,,,,e,1,0.8743,0,1,1,5,1,,,,,,,,,,,,,,,,,,,,,,,,
,,,,,,,,,,,,他们,e,1,001,2025-02-17_17h28.36.303,IAT(Formal),2021.2.3,Win32,58.82352941,,,,,,,,,,,,,,,,,,,,,,,,,,,,,,,,,,e,1,0.5507,0,2,2,6,1,,,,,,,,,,,,,,,,,,,,,,,,
,,,,,,,,,,,,他的,e,1,001,2025-02-17_17h28.36.303,IAT(Formal),2021.2.3,Win32,58.82352941,,,,,,,,,,,,,,,,,,,,,,,,,,,,,,,,,,e,1,0.4392,0,3,3,7,1,,,,,,,,,,,,,,,,,,,,,,,,
,,,,,,,,,,,,我们,i,1,001,2025-02-17_17h28.36.303,IAT(Formal),2021.2.3,Win32,58.82352941,,,,,,,,,,,,,,,,,,,,,,,,,,,,,,,,,,i,1,0.5733,0,4,4,2,1,,,,,,,,,,,,,,,,,,,,,,,,
,,,,,,,,,,,,俺,i,1,001,2025-02-17_17h28.36.303,IAT(Formal),2021.2.3,Win32,58.82352941,,,,,,,,,,,,,,,,,,,,,,,,,,,,,,,,,,i,1,0.5029,0,5,5,4,1,,,,,,,,,,,,,,,,,,,,,,,,
,,,,,,,,,,,,他人,e,1,001,2025-02-17_17h28.36.303,IAT(Formal),2021.2.3,Win32,58.82352941,,,,,,,,,,,,,,,,,,,,,,,,,,,,,,,,,,e,1,0.5704,0,6,6,8,1,,,,,,,,,,,,,,,,,,,,,,,,
,,,,,,,,,,,,自己,i,1,001,2025-02-17_17h28.36.303,IAT(Formal),2021.2.3,Win32,58.82352941,,,,,,,,,,,,,,,,,,,,,,,,,,,,,,,,,,i,1,0.4951,0,7,7,3,1,,,,,,,,,,,,,,,,,,,,,,,,
,,,,,,,,,,,,我,i,1,001,2025-02-17_17h28.36.303,IAT(Formal),2021.2.3,Win32,58.82352941,,,,,,,,,,,,,,,,,,,,,,,,,,,,,,,,,,i,1,0.4874,0,8,8,0,1,,,,,,,,,,,,,,,,,,,,,,,,
,,,,,,,,,,,,我的,i,1,001,2025-02-17_17h28.36.303,IAT(Formal),2021.2.3,Win32,58.82352941,,,,,,,,,,,,,,,,,,,,,,,,,,,,,,,,,,i,1,0.5423,0,9,9,1,1,,,,,,,,,,,,,,,,,,,,,,,,
,,,,,,,,,,,,,,1,001,2025-02-17_17h28.36.303,IAT(Formal),2021.2.3,Win32,58.82352941,,,,,,,,,,,,,,,,,,,,,,,,,,,,,,,,,,,,,,,,,,space,5.0366,i,1,0.6565,0,0,0,37,1,傲慢,i,,,,,,,,,,,,
,,,,,,,,,,,,,,1,001,2025-02-17_17h28.36.303,IAT(Formal),2021.2.3,Win32,58.82352941,,,,,,,,,,,,,,,,,,,,,,,,,,,,,,,,,,,,,,,,,,,,e,1,0.6366,0,1,1,6,1,他们,e,,,,,,,,,,,,
,,,,,,,,,,,,,,1,001,2025-02-17_17h28.36.303,IAT(Formal),2021.2.3,Win32,58.82352941,,,,,,,,,,,,,,,,,,,,,,,,,,,,,,,,,,,,,,,,,,,,i,1,0.7609,0,2,2,41,1,散漫,i,,,,,,,,,,,,
,,,,,,,,,,,,,,1,001,2025-02-17_17h28.36.303,IAT(Formal),2021.2.3,Win32,58.82352941,,,,,,,,,,,,,,,,,,,,,,,,,,,,,,,,,,,,,,,,,,,,,0,,0,3,3,40,1,执拗,i,,,,,,,,,,,,
,,,,,,,,,,,,,,1,001,2025-02-17_17h28.36.303,IAT(Formal),2021.2.3,Win32,58.82352941,,,,,,,,,,,,,,,,,,,,,,,,,,,,,,,,,,,,,,,,,,,,,0,,0,4,4,32,1,愚蠢,i,,,,,,,,,,,,
,,,,,,,,,,,,,,1,001,2025-02-17_17h28.36.303,IAT(Formal),2021.2.3,Win32,58.82352941,,,,,,,,,,,,,,,,,,,,,,,,,,,,,,,,,,,,,,,,,,,,e,1,0.9349,0,5,5,7,1,他的,e,,,,,,,,,,,,
,,,,,,,,,,,,,,1,001,2025-02-17_17h28.36.303,IAT(Formal),2021.2.3,Win32,58.82352941,,,,,,,,,,,,,,,,,,,,,,,,,,,,,,,,,,,,,,,,,,,,e,1,0.8742,0,6,6,18,1,勤奋,e,,,,,,,,,,,,
,,,,,,,,,,,,,,1,001,2025-02-17_17h28.36.303,IAT(Formal),2021.2.3,Win32,58.82352941,,,,,,,,,,,,,,,,,,,,,,,,,,,,,,,,,,,,,,,,,,,,e,1,0.4184,0,7,7,76,1,他们,e,,,,,,,,,,,,
,,,,,,,,,,,,,,1,001,2025-02-17_17h28.36.303,IAT(Formal),2021.2.3,Win32,58.82352941,,,,,,,,,,,,,,,,,,,,,,,,,,,,,,,,,,,,,,,,,,,,e,1,0.5058,0,8,8,69,1,其他,e,,,,,,,,,,,,
,,,,,,,,,,,,,,1,001,2025-02-17_17h28.36.303,IAT(Formal),2021.2.3,Win32,58.82352941,,,,,,,,,,,,,,,,,,,,,,,,,,,,,,,,,,,,,,,,,,,,e,1,0.4348,0,9,9,75,1,他,e,,,,,,,,,,,,
,,,,,,,,,,,,,,1,001,2025-02-17_17h28.36.303,IAT(Formal),2021.2.3,Win32,58.82352941,,,,,,,,,,,,,,,,,,,,,,,,,,,,,,,,,,,,,,,,,,,,e,0,0.4678,0,10,10,38,1,鲁莽,i,,,,,,,,,,,,
,,,,,,,,,,,,,,1,001,2025-02-17_17h28.36.303,IAT(Formal),2021.2.3,Win32,58.82352941,,,,,,,,,,,,,,,,,,,,,,,,,,,,,,,,,,,,,,,,,,,,e,1,0.6195,0,11,11,21,1,稳重,e,,,,,,,,,,,,
,,,,,,,,,,,,,,1,001,2025-02-17_17h28.36.303,IAT(Formal),2021.2.3,Win32,58.82352941,,,,,,,,,,,,,,,,,,,,,,,,,,,,,,,,,,,,,,,,,,,,i,1,0.5358,0,12,12,60,1,我,i,,,,,,,,,,,,
,,,,,,,,,,,,,,1,001,2025-02-17_17h28.36.303,IAT(Formal),2021.2.3,Win32,58.82352941,,,,,,,,,,,,,,,,,,,,,,,,,,,,,,,,,,,,,,,,,,,,i,0,0.7518,0,13,13,26,1,冷静,e,,,,,,,,,,,,
,,,,,,,,,,,,,,1,001,2025-02-17_17h28.36.303,IAT(Formal),2021.2.3,Win32,58.82352941,,,,,,,,,,,,,,,,,,,,,,,,,,,,,,,,,,,,,,,,,,,,e,1,0.5497,0,14,14,67,1,他的,e,,,,,,,,,,,,
,,,,,,,,,,,,,,1,001,2025-02-17_17h28.36.303,IAT(Formal),2021.2.3,Win32,58.82352941,,,,,,,,,,,,,,,,,,,,,,,,,,,,,,,,,,,,,,,,,,,,e,1,0.5416,0,15,15,22,1,无私,e,,,,,,,,,,,,
,,,,,,,,,,,,,,1,001,2025-02-17_17h28.36.303,IAT(Formal),2021.2.3,Win32,58.82352941,,,,,,,,,,,,,,,,,,,,,,,,,,,,,,,,,,,,,,,,,,,,i,1,0.6681,0,16,16,36,1,自卑,i,,,,,,,,,,,,
,,,,,,,,,,,,,,1,001,2025-02-17_17h28.36.303,IAT(Formal),2021.2.3,Win32,58.82352941,,,,,,,,,,,,,,,,,,,,,,,,,,,,,,,,,,,,,,,,,,,,i,1,0.4612,0,17,17,1,1,我的,i,,,,,,,,,,,,
,,,,,,,,,,,,,,1,001,2025-02-17_17h28.36.303,IAT(Formal),2021.2.3,Win32,58.82352941,,,,,,,,,,,,,,,,,,,,,,,,,,,,,,,,,,,,,,,,,,,,i,0,0.5841,0,18,18,19,1,机智,e,,,,,,,,,,,,
,,,,,,,,,,,,,,1,001,2025-02-17_17h28.36.303,IAT(Formal),2021.2.3,Win32,58.82352941,,,,,,,,,,,,,,,,,,,,,,,,,,,,,,,,,,,,,,,,,,,,i,1,1.2543,0,19,19,42,1,凶狠,i,,,,,,,,,,,,
,,,,,,,,,,,,,,1,001,2025-02-17_17h28.36.303,IAT(Formal),2021.2.3,Win32,58.82352941,,,,,,,,,,,,,,,,,,,,,,,,,,,,,,,,,,,,,,,,,,,,e,1,0.5796,0,20,20,15,1,诚实,e,,,,,,,,,,,,
,,,,,,,,,,,,,,1,001,2025-02-17_17h28.36.303,IAT(Formal),2021.2.3,Win32,58.82352941,,,,,,,,,,,,,,,,,,,,,,,,,,,,,,,,,,,,,,,,,,,,i,1,0.7915,0,21,21,39,1,冒失,i,,,,,,,,,,,,
,,,,,,,,,,,,,,1,001,2025-02-17_17h28.36.303,IAT(Formal),2021.2.3,Win32,58.82352941,,,,,,,,,,,,,,,,,,,,,,,,,,,,,,,,,,,,,,,,,,,,e,1,0.873,0,22,22,58,1,他人,e,,,,,,,,,,,,
,,,,,,,,,,,,,,1,001,2025-02-17_17h28.36.303,IAT(Formal),2021.2.3,Win32,58.82352941,,,,,,,,,,,,,,,,,,,,,,,,,,,,,,,,,,,,,,,,,,,,i,1,0.6336,0,23,23,54,1,俺,i,,,,,,,,,,,,
,,,,,,,,,,,,,,1,001,2025-02-17_17h28.36.303,IAT(Formal),2021.2.3,Win32,58.82352941,,,,,,,,,,,,,,,,,,,,,,,,,,,,,,,,,,,,,,,,,,,,e,1,0.542,0,24,24,79,1,其他,e,,,,,,,,,,,,
,,,,,,,,,,,,,,1,001,2025-02-17_17h28.36.303,IAT(Formal),2021.2.3,Win32,58.82352941,,,,,,,,,,,,,,,,,,,,,,,,,,,,,,,,,,,,,,,,,,,,i,0,0.7181,0,25,25,29,1,诚恳,e,,,,,,,,,,,,
,,,,,,,,,,,,,,1,001,2025-02-17_17h28.36.303,IAT(Formal),2021.2.3,Win32,58.82352941,,,,,,,,,,,,,,,,,,,,,,,,,,,,,,,,,,,,,,,,,,,,e,1,0.7623,0,26,26,13,1,杰出,e,,,,,,,,,,,,
,,,,,,,,,,,,,,1,001,2025-02-17_17h28.36.303,IAT(Formal),2021.2.3,Win32,58.82352941,,,,,,,,,,,,,,,,,,,,,,,,,,,,,,,,,,,,,,,,,,,,e,1,0.9517,0,27,27,68,1,他人,e,,,,,,,,,,,,
,,,,,,,,,,,,,,1,001,2025-02-17_17h28.36.303,IAT(Formal),2021.2.3,Win32,58.82352941,,,,,,,,,,,,,,,,,,,,,,,,,,,,,,,,,,,,,,,,,,,,e,1,0.5593,0,28,28,57,1,他的,e,,,,,,,,,,,,
,,,,,,,,,,,,,,1,001,2025-02-17_17h28.36.303,IAT(Formal),2021.2.3,Win32,58.82352941,,,,,,,,,,,,,,,,,,,,,,,,,,,,,,,,,,,,,,,,,,,,i,1,0.6348,0,29,29,53,1,自己,i,,,,,,,,,,,,
,,,,,,,,,,,,,,1,001,2025-02-17_17h28.36.303,IAT(Formal),2021.2.3,Win32,58.82352941,,,,,,,,,,,,,,,,,,,,,,,,,,,,,,,,,,,,,,,,,,,,i,1,1.1845,0,30,30,43,1,自私,i,,,,,,,,,,,,
,,,,,,,,,,,,,,1,001,2025-02-17_17h28.36.303,IAT(Formal),2021.2.3,Win32,58.82352941,,,,,,,,,,,,,,,,,,,,,,,,,,,,,,,,,,,,,,,,,,,,i,1,0.7701,0,31,31,73,1,自己,i,,,,,,,,,,,,
,,,,,,,,,,,,,,1,001,2025-02-17_17h28.36.303,IAT(Formal),2021.2.3,Win32,58.82352941,,,,,,,,,,,,,,,,,,,,,,,,,,,,,,,,,,,,,,,,,,,,e,1,0.6729,0,32,32,14,1,乐观,e,,,,,,,,,,,,
,,,,,,,,,,,,,,1,001,2025-02-17_17h28.36.303,IAT(Formal),2021.2.3,Win32,58.82352941,,,,,,,,,,,,,,,,,,,,,,,,,,,,,,,,,,,,,,,,,,,,e,1,0.4524,0,33,33,77,1,他的,e,,,,,,,,,,,,
,,,,,,,,,,,,,,1,001,2025-02-17_17h28.36.303,IAT(Formal),2021.2.3,Win32,58.82352941,,,,,,,,,,,,,,,,,,,,,,,,,,,,,,,,,,,,,,,,,,,,e,1,0.8361,0,34,34,23,1,公正,e,,,,,,,,,,,,
,,,,,,,,,,,,,,1,001,2025-02-17_17h28.36.303,IAT(Formal),2021.2.3,Win32,58.82352941,,,,,,,,,,,,,,,,,,,,,,,,,,,,,,,,,,,,,,,,,,,,i,1,0.6617,0,35,35,30,1,卑鄙,i,,,,,,,,,,,,
,,,,,,,,,,,,,,1,001,2025-02-17_17h28.36.303,IAT(Formal),2021.2.3,Win32,58.82352941,,,,,,,,,,,,,,,,,,,,,,,,,,,,,,,,,,,,,,,,,,,,i,1,0.671,0,36,36,0,1,我,i,,,,,,,,,,,,
,,,,,,,,,,,,,,1,001,2025-02-17_17h28.36.303,IAT(Formal),2021.2.3,Win32,58.82352941,,,,,,,,,,,,,,,,,,,,,,,,,,,,,,,,,,,,,,,,,,,,i,1,0.569,0,37,37,4,1,俺,i,,,,,,,,,,,,
,,,,,,,,,,,,,,1,001,2025-02-17_17h28.36.303,IAT(Formal),2021.2.3,Win32,58.82352941,,,,,,,,,,,,,,,,,,,,,,,,,,,,,,,,,,,,,,,,,,,,i,1,0.5682,0,38,38,71,1,我的,i,,,,,,,,,,,,
,,,,,,,,,,,,,,1,001,2025-02-17_17h28.36.303,IAT(Formal),2021.2.3,Win32,58.82352941,,,,,,,,,,,,,,,,,,,,,,,,,,,,,,,,,,,,,,,,,,,,e,1,0.5205,0,39,39,78,1,他人,e,,,,,,,,,,,,
,,,,,,,,,,,,,,1,001,2025-02-17_17h28.36.303,IAT(Formal),2021.2.3,Win32,58.82352941,,,,,,,,,,,,,,,,,,,,,,,,,,,,,,,,,,,,,,,,,,,,i,1,0.7232,0,40,40,49,1,下贱,i,,,,,,,,,,,,
,,,,,,,,,,,,,,1,001,2025-02-17_17h28.36.303,IAT(Formal),2021.2.3,Win32,58.82352941,,,,,,,,,,,,,,,,,,,,,,,,,,,,,,,,,,,,,,,,,,,,e,1,0.4499,0,41,41,20,1,认真,e,,,,,,,,,,,,
,,,,,,,,,,,,,,1,001,2025-02-17_17h28.36.303,IAT(Formal),2021.2.3,Win32,58.82352941,,,,,,,,,,,,,,,,,,,,,,,,,,,,,,,,,,,,,,,,,,,,i,1,0.5906,0,42,42,2,1,我们,i,,,,,,,,,,,,
,,,,,,,,,,,,,,1,001,2025-02-17_17h28.36.303,IAT(Formal),2021.2.3,Win32,58.82352941,,,,,,,,,,,,,,,,,,,,,,,,,,,,,,,,,,,,,,,,,,,,e,0,0.7175,0,43,43,33,1,刻薄,i,,,,,,,,,,,,
,,,,,,,,,,,,,,1,001,2025-02-17_17h28.36.303,IAT(Formal),2021.2.3,Win32,58.82352941,,,,,,,,,,,,,,,,,,,,,,,,,,,,,,,,,,,,,,,,,,,,i,1,0.5232,0,44,44,46,1,野蛮,i,,,,,,,,,,,,
,,,,,,,,,,,,,,1,001,2025-02-17_17h28.36.303,IAT(Formal),2021.2.3,Win32,58.82352941,,,,,,,,,,,,,,,,,,,,,,,,,,,,,,,,,,,,,,,,,,,,i,1,0.5116,0,45,45,45,1,猖狂,i,,,,,,,,,,,,
,,,,,,,,,,,,,,1,001,2025-02-17_17h28.36.303,IAT(Formal),2021.2.3,Win32,58.82352941,,,,,,,,,,,,,,,,,,,,,,,,,,,,,,,,,,,,,,,,,,,,i,1,0.5428,0,46,46,74,1,俺,i,,,,,,,,,,,,
,,,,,,,,,,,,,,1,001,2025-02-17_17h28.36.303,IAT(Formal),2021.2.3,Win32,58.82352941,,,,,,,,,,,,,,,,,,,,,,,,,,,,,,,,,,,,,,,,,,,,i,1,0.5056,0,47,47,52,1,我们,i,,,,,,,,,,,,
,,,,,,,,,,,,,,1,001,2025-02-17_17h28.36.303,IAT(Formal),2021.2.3,Win32,58.82352941,,,,,,,,,,,,,,,,,,,,,,,,,,,,,,,,,,,,,,,,,,,,e,1,0.4591,0,48,48,65,1,他,e,,,,,,,,,,,,
,,,,,,,,,,,,,,1,001,2025-02-17_17h28.36.303,IAT(Formal),2021.2.3,Win32,58.82352941,,,,,,,,,,,,,,,,,,,,,,,,,,,,,,,,,,,,,,,,,,,,i,1,0.6669,0,49,49,44,1,暴躁,i,,,,,,,,,,,,
,,,,,,,,,,,,,,1,001,2025-02-17_17h28.36.303,IAT(Formal),2021.2.3,Win32,58.82352941,,,,,,,,,,,,,,,,,,,,,,,,,,,,,,,,,,,,,,,,,,,,i,1,0.7291,0,50,50,35,1,消极,i,,,,,,,,,,,,
,,,,,,,,,,,,,,1,001,2025-02-17_17h28.36.303,IAT(Formal),2021.2.3,Win32,58.82352941,,,,,,,,,,,,,,,,,,,,,,,,,,,,,,,,,,,,,,,,,,,,i,1,0.5423,0,51,51,70,1,我,i,,,,,,,,,,,,
,,,,,,,,,,,,,,1,001,2025-02-17_17h28.36.303,IAT(Formal),2021.2.3,Win32,58.82352941,,,,,,,,,,,,,,,,,,,,,,,,,,,,,,,,,,,,,,,,,,,,i,1,0.7738,0,52,52,47,1,固执,i,,,,,,,,,,,,
,,,,,,,,,,,,,,1,001,2025-02-17_17h28.36.303,IAT(Formal),2021.2.3,Win32,58.82352941,,,,,,,,,,,,,,,,,,,,,,,,,,,,,,,,,,,,,,,,,,,,e,1,0.6502,0,53,53,28,1,活泼,e,,,,,,,,,,,,
,,,,,,,,,,,,,,1,001,2025-02-17_17h28.36.303,IAT(Formal),2021.2.3,Win32,58.82352941,,,,,,,,,,,,,,,,,,,,,,,,,,,,,,,,,,,,,,,,,,,,e,1,0.5998,0,54,54,55,1,他,e,,,,,,,,,,,,
,,,,,,,,,,,,,,1,001,2025-02-17_17h28.36.303,IAT(Formal),2021.2.3,Win32,58.82352941,,,,,,,,,,,,,,,,,,,,,,,,,,,,,,,,,,,,,,,,,,,,e,1,0.6847,0,55,55,56,1,他们,e,,,,,,,,,,,,
,,,,,,,,,,,,,,1,001,2025-02-17_17h28.36.303,IAT(Formal),2021.2.3,Win32,58.82352941,,,,,,,,,,,,,,,,,,,,,,,,,,,,,,,,,,,,,,,,,,,,i,1,0.4123,0,56,56,50,1,我,i,,,,,,,,,,,,
,,,,,,,,,,,,,,1,001,2025-02-17_17h28.36.303,IAT(Formal),2021.2.3,Win32,58.82352941,,,,,,,,,,,,,,,,,,,,,,,,,,,,,,,,,,,,,,,,,,,,e,1,0.7844,0,57,57,12,1,聪明,e,,,,,,,,,,,,
,,,,,,,,,,,,,,1,001,2025-02-17_17h28.36.303,IAT(Formal),2021.2.3,Win32,58.82352941,,,,,,,,,,,,,,,,,,,,,,,,,,,,,,,,,,,,,,,,,,,,e,1,0.5097,0,58,58,8,1,他人,e,,,,,,,,,,,,
,,,,,,,,,,,,,,1,001,2025-02-17_17h28.36.303,IAT(Formal),2021.2.3,Win32,58.82352941,,,,,,,,,,,,,,,,,,,,,,,,,,,,,,,,,,,,,,,,,,,,e,1,0.4502,0,59,59,24,1,朴实,e,,,,,,,,,,,,
,,,,,,,,,,,,,,1,001,2025-02-17_17h28.36.303,IAT(Formal),2021.2.3,Win32,58.82352941,,,,,,,,,,,,,,,,,,,,,,,,,,,,,,,,,,,,,,,,,,,,e,1,0.5842,0,60,60,27,1,热情,e,,,,,,,,,,,,
,,,,,,,,,,,,,,1,001,2025-02-17_17h28.36.303,IAT(Formal),2021.2.3,Win32,58.82352941,,,,,,,,,,,,,,,,,,,,,,,,,,,,,,,,,,,,,,,,,,,,i,1,0.6581,0,61,61,64,1,俺,i,,,,,,,,,,,,
,,,,,,,,,,,,,,1,001,2025-02-17_17h28.36.303,IAT(Formal),2021.2.3,Win32,58.82352941,,,,,,,,,,,,,,,,,,,,,,,,,,,,,,,,,,,,,,,,,,,,i,0,0.0433,0,62,62,5,1,他,e,,,,,,,,,,,,
,,,,,,,,,,,,,,1,001,2025-02-17_17h28.36.303,IAT(Formal),2021.2.3,Win32,58.82352941,,,,,,,,,,,,,,,,,,,,,,,,,,,,,,,,,,,,,,,,,,,,e,1,0.7242,0,63,63,11,1,崇高,e,,,,,,,,,,,,
,,,,,,,,,,,,,,1,001,2025-02-17_17h28.36.303,IAT(Formal),2021.2.3,Win32,58.82352941,,,,,,,,,,,,,,,,,,,,,,,,,,,,,,,,,,,,,,,,,,,,e,1,0.7607,0,64,64,25,1,细腻,e,,,,,,,,,,,,
,,,,,,,,,,,,,,1,001,2025-02-17_17h28.36.303,IAT(Formal),2021.2.3,Win32,58.82352941,,,,,,,,,,,,,,,,,,,,,,,,,,,,,,,,,,,,,,,,,,,,e,1,0.4674,0,65,65,17,1,勇敢,e,,,,,,,,,,,,
,,,,,,,,,,,,,,1,001,2025-02-17_17h28.36.303,IAT(Formal),2021.2.3,Win32,58.82352941,,,,,,,,,,,,,,,,,,,,,,,,,,,,,,,,,,,,,,,,,,,,e,1,0.5072,0,66,66,66,1,他们,e,,,,,,,,,,,,
,,,,,,,,,,,,,,1,001,2025-02-17_17h28.36.303,IAT(Formal),2021.2.3,Win32,58.82352941,,,,,,,,,,,,,,,,,,,,,,,,,,,,,,,,,,,,,,,,,,,,i,1,0.7135,0,67,67,3,1,自己,i,,,,,,,,,,,,
,,,,,,,,,,,,,,1,001,2025-02-17_17h28.36.303,IAT(Formal),2021.2.3,Win32,58.82352941,,,,,,,,,,,,,,,,,,,,,,,,,,,,,,,,,,,,,,,,,,,,e,0,0.7173,0,68,68,34,1,悲观,i,,,,,,,,,,,,
,,,,,,,,,,,,,,1,001,2025-02-17_17h28.36.303,IAT(Formal),2021.2.3,Win32,58.82352941,,,,,,,,,,,,,,,,,,,,,,,,,,,,,,,,,,,,,,,,,,,,i,1,0.6342,0,69,69,62,1,我们,i,,,,,,,,,,,,
,,,,,,,,,,,,,,1,001,2025-02-17_17h28.36.303,IAT(Formal),2021.2.3,Win32,58.82352941,,,,,,,,,,,,,,,,,,,,,,,,,,,,,,,,,,,,,,,,,,,,i,1,1.1835,0,70,70,48,1,轻率,i,,,,,,,,,,,,
,,,,,,,,,,,,,,1,001,2025-02-17_17h28.36.303,IAT(Formal),2021.2.3,Win32,58.82352941,,,,,,,,,,,,,,,,,,,,,,,,,,,,,,,,,,,,,,,,,,,,,0,,0,71,71,9,1,其他,e,,,,,,,,,,,,
,,,,,,,,,,,,,,1,001,2025-02-17_17h28.36.303,IAT(Formal),2021.2.3,Win32,58.82352941,,,,,,,,,,,,,,,,,,,,,,,,,,,,,,,,,,,,,,,,,,,,e,1,0.5451,0,72,72,59,1,其他,e,,,,,,,,,,,,
,,,,,,,,,,,,,,1,001,2025-02-17_17h28.36.303,IAT(Formal),2021.2.3,Win32,58.82352941,,,,,,,,,,,,,,,,,,,,,,,,,,,,,,,,,,,,,,,,,,,,e,1,0.5697,0,73,73,10,1,优秀,e,,,,,,,,,,,,
,,,,,,,,,,,,,,1,001,2025-02-17_17h28.36.303,IAT(Formal),2021.2.3,Win32,58.82352941,,,,,,,,,,,,,,,,,,,,,,,,,,,,,,,,,,,,,,,,,,,,i,1,0.489,0,74,74,61,1,我的,i,,,,,,,,,,,,
,,,,,,,,,,,,,,1,001,2025-02-17_17h28.36.303,IAT(Formal),2021.2.3,Win32,58.82352941,,,,,,,,,,,,,,,,,,,,,,,,,,,,,,,,,,,,,,,,,,,,i,1,0.628,0,75,75,63,1,自己,i,,,,,,,,,,,,
,,,,,,,,,,,,,,1,001,2025-02-17_17h28.36.303,IAT(Formal),2021.2.3,Win32,58.82352941,,,,,,,,,,,,,,,,,,,,,,,,,,,,,,,,,,,,,,,,,,,,i,1,1.319,0,76,76,72,1,我们,i,,,,,,,,,,,,
,,,,,,,,,,,,,,1,001,2025-02-17_17h28.36.303,IAT(Formal),2021.2.3,Win32,58.82352941,,,,,,,,,,,,,,,,,,,,,,,,,,,,,,,,,,,,,,,,,,,,i,1,0.5525,0,77,77,51,1,我的,i,,,,,,,,,,,,
,,,,,,,,,,,,,,1,001,2025-02-17_17h28.36.303,IAT(Formal),2021.2.3,Win32,58.82352941,,,,,,,,,,,,,,,,,,,,,,,,,,,,,,,,,,,,,,,,,,,,e,0,0.7787,0,78,78,31,1,虚伪,i,,,,,,,,,,,,
,,,,,,,,,,,,,,1,001,2025-02-17_17h28.36.303,IAT(Formal),2021.2.3,Win32,58.82352941,,,,,,,,,,,,,,,,,,,,,,,,,,,,,,,,,,,,,,,,,,,,e,1,0.5338,0,79,79,16,1,正直,e,,,,,,,,,,,,
,,,,,,,,,,,,,,1,001,2025-02-17_17h28.36.303,IAT(Formal),2021.2.3,Win32,58.82352941,,,,,,,,,,,,,,,,,,,,,,,,,,,,,,,,,,,,,,,,,,,,,,,,,,,,我,i,space,64.5904,i,1,0.5665,0,0,0,60,1,,
,,,,,,,,,,,,,,1,001,2025-02-17_17h28.36.303,IAT(Formal),2021.2.3,Win32,58.82352941,,,,,,,,,,,,,,,,,,,,,,,,,,,,,,,,,,,,,,,,,,,,,,,,,,,,他的,e,,,e,1,0.5194,0,1,1,57,1,,
,,,,,,,,,,,,,,1,001,2025-02-17_17h28.36.303,IAT(Formal),2021.2.3,Win32,58.82352941,,,,,,,,,,,,,,,,,,,,,,,,,,,,,,,,,,,,,,,,,,,,,,,,,,,,俺,i,,,i,1,0.5702,0,2,2,74,1,,
,,,,,,,,,,,,,,1,001,2025-02-17_17h28.36.303,IAT(Formal),2021.2.3,Win32,58.82352941,,,,,,,,,,,,,,,,,,,,,,,,,,,,,,,,,,,,,,,,,,,,,,,,,,,,执拗,i,,,i,1,0.6625,0,3,3,40,1,,
,,,,,,,,,,,,,,1,001,2025-02-17_17h28.36.303,IAT(Formal),2021.2.3,Win32,58.82352941,,,,,,,,,,,,,,,,,,,,,,,,,,,,,,,,,,,,,,,,,,,,,,,,,,,,我,i,,,i,1,0.4831,0,4,4,50,1,,
,,,,,,,,,,,,,,1,001,2025-02-17_17h28.36.303,IAT(Formal),2021.2.3,Win32,58.82352941,,,,,,,,,,,,,,,,,,,,,,,,,,,,,,,,,,,,,,,,,,,,,,,,,,,,散漫,i,,,i,1,0.7023,0,5,5,41,1,,
,,,,,,,,,,,,,,1,001,2025-02-17_17h28.36.303,IAT(Formal),2021.2.3,Win32,58.82352941,,,,,,,,,,,,,,,,,,,,,,,,,,,,,,,,,,,,,,,,,,,,,,,,,,,,自卑,i,,,i,1,0.4607,0,6,6,36,1,,
,,,,,,,,,,,,,,1,001,2025-02-17_17h28.36.303,IAT(Formal),2021.2.3,Win32,58.82352941,,,,,,,,,,,,,,,,,,,,,,,,,,,,,,,,,,,,,,,,,,,,,,,,,,,,自己,i,,,i,1,0.5011,0,7,7,73,1,,
,,,,,,,,,,,,,,1,001,2025-02-17_17h28.36.303,IAT(Formal),2021.2.3,Win32,58.82352941,,,,,,,,,,,,,,,,,,,,,,,,,,,,,,,,,,,,,,,,,,,,,,,,,,,,活泼,e,,,e,1,1.0237,0,8,8,28,1,,
,,,,,,,,,,,,,,1,001,2025-02-17_17h28.36.303,IAT(Formal),2021.2.3,Win32,58.82352941,,,,,,,,,,,,,,,,,,,,,,,,,,,,,,,,,,,,,,,,,,,,,,,,,,,,我,i,,,i,1,0.741,0,9,9,70,1,,
,,,,,,,,,,,,,,1,001,2025-02-17_17h28.36.303,IAT(Formal),2021.2.3,Win32,58.82352941,,,,,,,,,,,,,,,,,,,,,,,,,,,,,,,,,,,,,,,,,,,,,,,,,,,,其他,e,,,e,1,0.5948,0,10,10,59,1,,
,,,,,,,,,,,,,,1,001,2025-02-17_17h28.36.303,IAT(Formal),2021.2.3,Win32,58.82352941,,,,,,,,,,,,,,,,,,,,,,,,,,,,,,,,,,,,,,,,,,,,,,,,,,,,消极,i,,,,0,,0,11,11,35,1,,
,,,,,,,,,,,,,,1,001,2025-02-17_17h28.36.303,IAT(Formal),2021.2.3,Win32,58.82352941,,,,,,,,,,,,,,,,,,,,,,,,,,,,,,,,,,,,,,,,,,,,,,,,,,,,诚恳,e,,,e,1,0.5673,0,12,12,29,1,,
,,,,,,,,,,,,,,1,001,2025-02-17_17h28.36.303,IAT(Formal),2021.2.3,Win32,58.82352941,,,,,,,,,,,,,,,,,,,,,,,,,,,,,,,,,,,,,,,,,,,,,,,,,,,,卑鄙,i,,,i,1,0.551,0,13,13,30,1,,
,,,,,,,,,,,,,,1,001,2025-02-17_17h28.36.303,IAT(Formal),2021.2.3,Win32,58.82352941,,,,,,,,,,,,,,,,,,,,,,,,,,,,,,,,,,,,,,,,,,,,,,,,,,,,我的,i,,,i,1,1.1882,0,14,14,51,1,,
,,,,,,,,,,,,,,1,001,2025-02-17_17h28.36.303,IAT(Formal),2021.2.3,Win32,58.82352941,,,,,,,,,,,,,,,,,,,,,,,,,,,,,,,,,,,,,,,,,,,,,,,,,,,,虚伪,i,,,i,1,0.6624,0,15,15,31,1,,
,,,,,,,,,,,,,,1,001,2025-02-17_17h28.36.303,IAT(Formal),2021.2.3,Win32,58.82352941,,,,,,,,,,,,,,,,,,,,,,,,,,,,,,,,,,,,,,,,,,,,,,,,,,,,崇高,e,,,i,0,0.4245,0,16,16,11,1,,
,,,,,,,,,,,,,,1,001,2025-02-17_17h28.36.303,IAT(Formal),2021.2.3,Win32,58.82352941,,,,,,,,,,,,,,,,,,,,,,,,,,,,,,,,,,,,,,,,,,,,,,,,,,,,俺,i,,,i,1,0.6666,0,17,17,64,1,,
,,,,,,,,,,,,,,1,001,2025-02-17_17h28.36.303,IAT(Formal),2021.2.3,Win32,58.82352941,,,,,,,,,,,,,,,,,,,,,,,,,,,,,,,,,,,,,,,,,,,,,,,,,,,,愚蠢,i,,,i,1,0.6851,0,18,18,32,1,,
,,,,,,,,,,,,,,1,001,2025-02-17_17h28.36.303,IAT(Formal),2021.2.3,Win32,58.82352941,,,,,,,,,,,,,,,,,,,,,,,,,,,,,,,,,,,,,,,,,,,,,,,,,,,,自己,i,,,i,1,0.501,0,19,19,3,1,,
,,,,,,,,,,,,,,1,001,2025-02-17_17h28.36.303,IAT(Formal),2021.2.3,Win32,58.82352941,,,,,,,,,,,,,,,,,,,,,,,,,,,,,,,,,,,,,,,,,,,,,,,,,,,,其他,e,,,e,1,0.8068,0,20,20,79,1,,
,,,,,,,,,,,,,,1,001,2025-02-17_17h28.36.303,IAT(Formal),2021.2.3,Win32,58.82352941,,,,,,,,,,,,,,,,,,,,,,,,,,,,,,,,,,,,,,,,,,,,,,,,,,,,冷静,e,,,e,1,0.6342,0,21,21,26,1,,
,,,,,,,,,,,,,,1,001,2025-02-17_17h28.36.303,IAT(Formal),2021.2.3,Win32,58.82352941,,,,,,,,,,,,,,,,,,,,,,,,,,,,,,,,,,,,,,,,,,,,,,,,,,,,热情,e,,,e,1,0.7203,0,22,22,27,1,,
,,,,,,,,,,,,,,1,001,2025-02-17_17h28.36.303,IAT(Formal),2021.2.3,Win32,58.82352941,,,,,,,,,,,,,,,,,,,,,,,,,,,,,,,,,,,,,,,,,,,,,,,,,,,,正直,e,,,e,1,0.5081,0,23,23,16,1,,
,,,,,,,,,,,,,,1,001,2025-02-17_17h28.36.303,IAT(Formal),2021.2.3,Win32,58.82352941,,,,,,,,,,,,,,,,,,,,,,,,,,,,,,,,,,,,,,,,,,,,,,,,,,,,固执,i,,,i,1,1.083,0,24,24,47,1,,
,,,,,,,,,,,,,,1,001,2025-02-17_17h28.36.303,IAT(Formal),2021.2.3,Win32,58.82352941,,,,,,,,,,,,,,,,,,,,,,,,,,,,,,,,,,,,,,,,,,,,,,,,,,,,他的,e,,,e,1,0.7561,0,25,25,67,1,,
,,,,,,,,,,,,,,1,001,2025-02-17_17h28.36.303,IAT(Formal),2021.2.3,Win32,58.82352941,,,,,,,,,,,,,,,,,,,,,,,,,,,,,,,,,,,,,,,,,,,,,,,,,,,,凶狠,i,,,i,1,0.6896,0,26,26,42,1,,
,,,,,,,,,,,,,,1,001,2025-02-17_17h28.36.303,IAT(Formal),2021.2.3,Win32,58.82352941,,,,,,,,,,,,,,,,,,,,,,,,,,,,,,,,,,,,,,,,,,,,,,,,,,,,他们,e,,,e,1,0.5007,0,27,27,76,1,,
,,,,,,,,,,,,,,1,001,2025-02-17_17h28.36.303,IAT(Formal),2021.2.3,Win32,58.82352941,,,,,,,,,,,,,,,,,,,,,,,,,,,,,,,,,,,,,,,,,,,,,,,,,,,,我们,i,,,i,1,0.5041,0,28,28,2,1,,
,,,,,,,,,,,,,,1,001,2025-02-17_17h28.36.303,IAT(Formal),2021.2.3,Win32,58.82352941,,,,,,,,,,,,,,,,,,,,,,,,,,,,,,,,,,,,,,,,,,,,,,,,,,,,朴实,e,,,e,1,0.8406,0,29,29,24,1,,
,,,,,,,,,,,,,,1,001,2025-02-17_17h28.36.303,IAT(Formal),2021.2.3,Win32,58.82352941,,,,,,,,,,,,,,,,,,,,,,,,,,,,,,,,,,,,,,,,,,,,,,,,,,,,稳重,e,,,i,0,0.9775,0,30,30,21,1,,
,,,,,,,,,,,,,,1,001,2025-02-17_17h28.36.303,IAT(Formal),2021.2.3,Win32,58.82352941,,,,,,,,,,,,,,,,,,,,,,,,,,,,,,,,,,,,,,,,,,,,,,,,,,,,自己,i,,,i,1,0.534,0,31,31,53,1,,
,,,,,,,,,,,,,,1,001,2025-02-17_17h28.36.303,IAT(Formal),2021.2.3,Win32,58.82352941,,,,,,,,,,,,,,,,,,,,,,,,,,,,,,,,,,,,,,,,,,,,,,,,,,,,勤奋,e,,,e,1,0.6108,0,32,32,18,1,,
,,,,,,,,,,,,,,1,001,2025-02-17_17h28.36.303,IAT(Formal),2021.2.3,Win32,58.82352941,,,,,,,,,,,,,,,,,,,,,,,,,,,,,,,,,,,,,,,,,,,,,,,,,,,,我们,i,,,i,1,0.5496,0,33,33,72,1,,
,,,,,,,,,,,,,,1,001,2025-02-17_17h28.36.303,IAT(Formal),2021.2.3,Win32,58.82352941,,,,,,,,,,,,,,,,,,,,,,,,,,,,,,,,,,,,,,,,,,,,,,,,,,,,勇敢,e,,,e,1,0.896,0,34,34,17,1,,
,,,,,,,,,,,,,,1,001,2025-02-17_17h28.36.303,IAT(Formal),2021.2.3,Win32,58.82352941,,,,,,,,,,,,,,,,,,,,,,,,,,,,,,,,,,,,,,,,,,,,,,,,,,,,俺,i,,,i,1,0.7533,0,35,35,4,1,,
,,,,,,,,,,,,,,1,001,2025-02-17_17h28.36.303,IAT(Formal),2021.2.3,Win32,58.82352941,,,,,,,,,,,,,,,,,,,,,,,,,,,,,,,,,,,,,,,,,,,,,,,,,,,,我,i,,,i,1,0.6583,0,36,36,0,1,,
,,,,,,,,,,,,,,1,001,2025-02-17_17h28.36.303,IAT(Formal),2021.2.3,Win32,58.82352941,,,,,,,,,,,,,,,,,,,,,,,,,,,,,,,,,,,,,,,,,,,,,,,,,,,,诚实,e,,,e,1,0.8919,0,37,37,15,1,,
,,,,,,,,,,,,,,1,001,2025-02-17_17h28.36.303,IAT(Formal),2021.2.3,Win32,58.82352941,,,,,,,,,,,,,,,,,,,,,,,,,,,,,,,,,,,,,,,,,,,,,,,,,,,,我的,i,,,i,1,0.584,0,38,38,71,1,,
,,,,,,,,,,,,,,1,001,2025-02-17_17h28.36.303,IAT(Formal),2021.2.3,Win32,58.82352941,,,,,,,,,,,,,,,,,,,,,,,,,,,,,,,,,,,,,,,,,,,,,,,,,,,,野蛮,i,,,e,0,0.5503,0,39,39,46,1,,
,,,,,,,,,,,,,,1,001,2025-02-17_17h28.36.303,IAT(Formal),2021.2.3,Win32,58.82352941,,,,,,,,,,,,,,,,,,,,,,,,,,,,,,,,,,,,,,,,,,,,,,,,,,,,我们,i,,,i,1,0.613,0,40,40,62,1,,
,,,,,,,,,,,,,,1,001,2025-02-17_17h28.36.303,IAT(Formal),2021.2.3,Win32,58.82352941,,,,,,,,,,,,,,,,,,,,,,,,,,,,,,,,,,,,,,,,,,,,,,,,,,,,他人,e,,,e,1,0.5418,0,41,41,78,1,,
,,,,,,,,,,,,,,1,001,2025-02-17_17h28.36.303,IAT(Formal),2021.2.3,Win32,58.82352941,,,,,,,,,,,,,,,,,,,,,,,,,,,,,,,,,,,,,,,,,,,,,,,,,,,,暴躁,i,,,i,1,0.7967,0,42,42,44,1,,
,,,,,,,,,,,,,,1,001,2025-02-17_17h28.36.303,IAT(Formal),2021.2.3,Win32,58.82352941,,,,,,,,,,,,,,,,,,,,,,,,,,,,,,,,,,,,,,,,,,,,,,,,,,,,公正,e,,,e,1,0.8501,0,43,43,23,1,,
,,,,,,,,,,,,,,1,001,2025-02-17_17h28.36.303,IAT(Formal),2021.2.3,Win32,58.82352941,,,,,,,,,,,,,,,,,,,,,,,,,,,,,,,,,,,,,,,,,,,,,,,,,,,,他,e,,,e,1,0.5081,0,44,44,55,1,,
,,,,,,,,,,,,,,1,001,2025-02-17_17h28.36.303,IAT(Formal),2021.2.3,Win32,58.82352941,,,,,,,,,,,,,,,,,,,,,,,,,,,,,,,,,,,,,,,,,,,,,,,,,,,,他,e,,,e,1,0.4715,0,45,45,65,1,,
,,,,,,,,,,,,,,1,001,2025-02-17_17h28.36.303,IAT(Formal),2021.2.3,Win32,58.82352941,,,,,,,,,,,,,,,,,,,,,,,,,,,,,,,,,,,,,,,,,,,,,,,,,,,,轻率,i,,,i,1,1.121,0,46,46,48,1,,
,,,,,,,,,,,,,,1,001,2025-02-17_17h28.36.303,IAT(Formal),2021.2.3,Win32,58.82352941,,,,,,,,,,,,,,,,,,,,,,,,,,,,,,,,,,,,,,,,,,,,,,,,,,,,刻薄,i,,,i,1,0.6007,0,47,47,33,1,,
,,,,,,,,,,,,,,1,001,2025-02-17_17h28.36.303,IAT(Formal),2021.2.3,Win32,58.82352941,,,,,,,,,,,,,,,,,,,,,,,,,,,,,,,,,,,,,,,,,,,,,,,,,,,,我的,i,,,i,1,0.5455,0,48,48,1,1,,
,,,,,,,,,,,,,,1,001,2025-02-17_17h28.36.303,IAT(Formal),2021.2.3,Win32,58.82352941,,,,,,,,,,,,,,,,,,,,,,,,,,,,,,,,,,,,,,,,,,,,,,,,,,,,下贱,i,,,i,1,0.7344,0,49,49,49,1,,
,,,,,,,,,,,,,,1,001,2025-02-17_17h28.36.303,IAT(Formal),2021.2.3,Win32,58.82352941,,,,,,,,,,,,,,,,,,,,,,,,,,,,,,,,,,,,,,,,,,,,,,,,,,,,自己,i,,,i,1,0.6004,0,50,50,63,1,,
,,,,,,,,,,,,,,1,001,2025-02-17_17h28.36.303,IAT(Formal),2021.2.3,Win32,58.82352941,,,,,,,,,,,,,,,,,,,,,,,,,,,,,,,,,,,,,,,,,,,,,,,,,,,,悲观,i,,,i,1,0.507,0,51,51,34,1,,
,,,,,,,,,,,,,,1,001,2025-02-17_17h28.36.303,IAT(Formal),2021.2.3,Win32,58.82352941,,,,,,,,,,,,,,,,,,,,,,,,,,,,,,,,,,,,,,,,,,,,,,,,,,,,聪明,e,,,e,1,0.9089,0,52,52,12,1,,
,,,,,,,,,,,,,,1,001,2025-02-17_17h28.36.303,IAT(Formal),2021.2.3,Win32,58.82352941,,,,,,,,,,,,,,,,,,,,,,,,,,,,,,,,,,,,,,,,,,,,,,,,,,,,他的,e,,,e,1,0.651,0,53,53,77,1,,
,,,,,,,,,,,,,,1,001,2025-02-17_17h28.36.303,IAT(Formal),2021.2.3,Win32,58.82352941,,,,,,,,,,,,,,,,,,,,,,,,,,,,,,,,,,,,,,,,,,,,,,,,,,,,他们,e,,,e,1,0.5229,0,54,54,56,1,,
,,,,,,,,,,,,,,1,001,2025-02-17_17h28.36.303,IAT(Formal),2021.2.3,Win32,58.82352941,,,,,,,,,,,,,,,,,,,,,,,,,,,,,,,,,,,,,,,,,,,,,,,,,,,,他们,e,,,e,1,0.7331,0,55,55,66,1,,
,,,,,,,,,,,,,,1,001,2025-02-17_17h28.36.303,IAT(Formal),2021.2.3,Win32,58.82352941,,,,,,,,,,,,,,,,,,,,,,,,,,,,,,,,,,,,,,,,,,,,,,,,,,,,猖狂,i,,,i,1,0.902,0,56,56,45,1,,
,,,,,,,,,,,,,,1,001,2025-02-17_17h28.36.303,IAT(Formal),2021.2.3,Win32,58.82352941,,,,,,,,,,,,,,,,,,,,,,,,,,,,,,,,,,,,,,,,,,,,,,,,,,,,其他,e,,,e,1,0.5602,0,57,57,9,1,,
,,,,,,,,,,,,,,1,001,2025-02-17_17h28.36.303,IAT(Formal),2021.2.3,Win32,58.82352941,,,,,,,,,,,,,,,,,,,,,,,,,,,,,,,,,,,,,,,,,,,,,,,,,,,,我们,i,,,i,1,0.7033,0,58,58,52,1,,
,,,,,,,,,,,,,,1,001,2025-02-17_17h28.36.303,IAT(Formal),2021.2.3,Win32,58.82352941,,,,,,,,,,,,,,,,,,,,,,,,,,,,,,,,,,,,,,,,,,,,,,,,,,,,他,e,,,e,1,0.7837,0,59,59,75,1,,
,,,,,,,,,,,,,,1,001,2025-02-17_17h28.36.303,IAT(Formal),2021.2.3,Win32,58.82352941,,,,,,,,,,,,,,,,,,,,,,,,,,,,,,,,,,,,,,,,,,,,,,,,,,,,细腻,e,,,e,1,1.1369,0,60,60,25,1,,
,,,,,,,,,,,,,,1,001,2025-02-17_17h28.36.303,IAT(Formal),2021.2.3,Win32,58.82352941,,,,,,,,,,,,,,,,,,,,,,,,,,,,,,,,,,,,,,,,,,,,,,,,,,,,优秀,e,,,,0,,0,61,61,10,1,,
,,,,,,,,,,,,,,1,001,2025-02-17_17h28.36.303,IAT(Formal),2021.2.3,Win32,58.82352941,,,,,,,,,,,,,,,,,,,,,,,,,,,,,,,,,,,,,,,,,,,,,,,,,,,,无私,e,,,e,1,0.4394,0,62,62,22,1,,
,,,,,,,,,,,,,,1,001,2025-02-17_17h28.36.303,IAT(Formal),2021.2.3,Win32,58.82352941,,,,,,,,,,,,,,,,,,,,,,,,,,,,,,,,,,,,,,,,,,,,,,,,,,,,冒失,i,,,i,1,0.5258,0,63,63,39,1,,
,,,,,,,,,,,,,,1,001,2025-02-17_17h28.36.303,IAT(Formal),2021.2.3,Win32,58.82352941,,,,,,,,,,,,,,,,,,,,,,,,,,,,,,,,,,,,,,,,,,,,,,,,,,,,认真,e,,,e,1,0.4889,0,64,64,20,1,,
,,,,,,,,,,,,,,1,001,2025-02-17_17h28.36.303,IAT(Formal),2021.2.3,Win32,58.82352941,,,,,,,,,,,,,,,,,,,,,,,,,,,,,,,,,,,,,,,,,,,,,,,,,,,,他人,e,,,e,1,0.5408,0,65,65,68,1,,
,,,,,,,,,,,,,,1,001,2025-02-17_17h28.36.303,IAT(Formal),2021.2.3,Win32,58.82352941,,,,,,,,,,,,,,,,,,,,,,,,,,,,,,,,,,,,,,,,,,,,,,,,,,,,俺,i,,,i,1,0.6079,0,66,66,54,1,,
,,,,,,,,,,,,,,1,001,2025-02-17_17h28.36.303,IAT(Formal),2021.2.3,Win32,58.82352941,,,,,,,,,,,,,,,,,,,,,,,,,,,,,,,,,,,,,,,,,,,,,,,,,,,,傲慢,i,,,i,1,1.2297,0,67,67,37,1,,
,,,,,,,,,,,,,,1,001,2025-02-17_17h28.36.303,IAT(Formal),2021.2.3,Win32,58.82352941,,,,,,,,,,,,,,,,,,,,,,,,,,,,,,,,,,,,,,,,,,,,,,,,,,,,机智,e,,,e,1,0.6012,0,68,68,19,1,,
,,,,,,,,,,,,,,1,001,2025-02-17_17h28.36.303,IAT(Formal),2021.2.3,Win32,58.82352941,,,,,,,,,,,,,,,,,,,,,,,,,,,,,,,,,,,,,,,,,,,,,,,,,,,,鲁莽,i,,,i,1,0.7254,0,69,69,38,1,,
,,,,,,,,,,,,,,1,001,2025-02-17_17h28.36.303,IAT(Formal),2021.2.3,Win32,58.82352941,,,,,,,,,,,,,,,,,,,,,,,,,,,,,,,,,,,,,,,,,,,,,,,,,,,,他人,e,,,e,1,0.4579,0,70,70,8,1,,
,,,,,,,,,,,,,,1,001,2025-02-17_17h28.36.303,IAT(Formal),2021.2.3,Win32,58.82352941,,,,,,,,,,,,,,,,,,,,,,,,,,,,,,,,,,,,,,,,,,,,,,,,,,,,其他,e,,,e,1,0.4908,0,71,71,69,1,,
,,,,,,,,,,,,,,1,001,2025-02-17_17h28.36.303,IAT(Formal),2021.2.3,Win32,58.82352941,,,,,,,,,,,,,,,,,,,,,,,,,,,,,,,,,,,,,,,,,,,,,,,,,,,,自私,i,,,i,1,0.8002,0,72,72,43,1,,
,,,,,,,,,,,,,,1,001,2025-02-17_17h28.36.303,IAT(Formal),2021.2.3,Win32,58.82352941,,,,,,,,,,,,,,,,,,,,,,,,,,,,,,,,,,,,,,,,,,,,,,,,,,,,乐观,e,,,e,1,0.6005,0,73,73,14,1,,
,,,,,,,,,,,,,,1,001,2025-02-17_17h28.36.303,IAT(Formal),2021.2.3,Win32,58.82352941,,,,,,,,,,,,,,,,,,,,,,,,,,,,,,,,,,,,,,,,,,,,,,,,,,,,他,e,,,e,1,0.6842,0,74,74,5,1,,
,,,,,,,,,,,,,,1,001,2025-02-17_17h28.36.303,IAT(Formal),2021.2.3,Win32,58.82352941,,,,,,,,,,,,,,,,,,,,,,,,,,,,,,,,,,,,,,,,,,,,,,,,,,,,我的,i,,,i,1,0.501,0,75,75,61,1,,
,,,,,,,,,,,,,,1,001,2025-02-17_17h28.36.303,IAT(Formal),2021.2.3,Win32,58.82352941,,,,,,,,,,,,,,,,,,,,,,,,,,,,,,,,,,,,,,,,,,,,,,,,,,,,他的,e,,,e,1,0.5177,0,76,76,7,1,,
,,,,,,,,,,,,,,1,001,2025-02-17_17h28.36.303,IAT(Formal),2021.2.3,Win32,58.82352941,,,,,,,,,,,,,,,,,,,,,,,,,,,,,,,,,,,,,,,,,,,,,,,,,,,,杰出,e,,,i,0,1.0087,0,77,77,13,1,,
,,,,,,,,,,,,,,1,001,2025-02-17_17h28.36.303,IAT(Formal),2021.2.3,Win32,58.82352941,,,,,,,,,,,,,,,,,,,,,,,,,,,,,,,,,,,,,,,,,,,,,,,,,,,,他们,e,,,e,1,0.488,0,78,78,6,1,,
,,,,,,,,,,,,,,1,001,2025-02-17_17h28.36.303,IAT(Formal),2021.2.3,Win32,58.82352941,,,,,,,,,,,,,,,,,,,,,,,,,,,,,,,,,,,,,,,,,,,,,,,,,,,,他人,e,,,e,1,0.4703,0,79,79,58,1,,
,,,,,,,,,,,,,,1,001,2025-02-17_17h28.36.303,IAT(Formal),2021.2.3,Win32,58.82352941,,,,,,,,,,,,,,,,,,,,,,,,,,,,,,,,,,,,,,,,,,,,,,,,,,,,勇敢,e,,,e,1,0.7169,1,0,80,17,1,,
,,,,,,,,,,,,,,1,001,2025-02-17_17h28.36.303,IAT(Formal),2021.2.3,Win32,58.82352941,,,,,,,,,,,,,,,,,,,,,,,,,,,,,,,,,,,,,,,,,,,,,,,,,,,,猖狂,i,,,i,1,0.9339,1,1,81,45,1,,
,,,,,,,,,,,,,,1,001,2025-02-17_17h28.36.303,IAT(Formal),2021.2.3,Win32,58.82352941,,,,,,,,,,,,,,,,,,,,,,,,,,,,,,,,,,,,,,,,,,,,,,,,,,,,聪明,e,,,e,1,0.994,1,2,82,12,1,,
,,,,,,,,,,,,,,1,001,2025-02-17_17h28.36.303,IAT(Formal),2021.2.3,Win32,58.82352941,,,,,,,,,,,,,,,,,,,,,,,,,,,,,,,,,,,,,,,,,,,,,,,,,,,,刻薄,i,,,i,1,0.7758,1,3,83,33,1,,
,,,,,,,,,,,,,,1,001,2025-02-17_17h28.36.303,IAT(Formal),2021.2.3,Win32,58.82352941,,,,,,,,,,,,,,,,,,,,,,,,,,,,,,,,,,,,,,,,,,,,,,,,,,,,他人,e,,,e,1,0.4924,1,4,84,8,1,,
,,,,,,,,,,,,,,1,001,2025-02-17_17h28.36.303,IAT(Formal),2021.2.3,Win32,58.82352941,,,,,,,,,,,,,,,,,,,,,,,,,,,,,,,,,,,,,,,,,,,,,,,,,,,,俺,i,,,i,1,0.7903,1,5,85,54,1,,
,,,,,,,,,,,,,,1,001,2025-02-17_17h28.36.303,IAT(Formal),2021.2.3,Win32,58.82352941,,,,,,,,,,,,,,,,,,,,,,,,,,,,,,,,,,,,,,,,,,,,,,,,,,,,自己,i,,,i,1,0.6355,1,6,86,3,1,,
,,,,,,,,,,,,,,1,001,2025-02-17_17h28.36.303,IAT(Formal),2021.2.3,Win32,58.82352941,,,,,,,,,,,,,,,,,,,,,,,,,,,,,,,,,,,,,,,,,,,,,,,,,,,,认真,e,,,e,1,0.7921,1,7,87,20,1,,
,,,,,,,,,,,,,,1,001,2025-02-17_17h28.36.303,IAT(Formal),2021.2.3,Win32,58.82352941,,,,,,,,,,,,,,,,,,,,,,,,,,,,,,,,,,,,,,,,,,,,,,,,,,,,热情,e,,,e,1,0.669,1,8,88,27,1,,
,,,,,,,,,,,,,,1,001,2025-02-17_17h28.36.303,IAT(Formal),2021.2.3,Win32,58.82352941,,,,,,,,,,,,,,,,,,,,,,,,,,,,,,,,,,,,,,,,,,,,,,,,,,,,散漫,i,,,e,0,1.2449,1,9,89,41,1,,
,,,,,,,,,,,,,,1,001,2025-02-17_17h28.36.303,IAT(Formal),2021.2.3,Win32,58.82352941,,,,,,,,,,,,,,,,,,,,,,,,,,,,,,,,,,,,,,,,,,,,,,,,,,,,他们,e,,,e,1,0.4836,1,10,90,6,1,,
,,,,,,,,,,,,,,1,001,2025-02-17_17h28.36.303,IAT(Formal),2021.2.3,Win32,58.82352941,,,,,,,,,,,,,,,,,,,,,,,,,,,,,,,,,,,,,,,,,,,,,,,,,,,,傲慢,i,,,e,0,1.1693,1,11,91,37,1,,
,,,,,,,,,,,,,,1,001,2025-02-17_17h28.36.303,IAT(Formal),2021.2.3,Win32,58.82352941,,,,,,,,,,,,,,,,,,,,,,,,,,,,,,,,,,,,,,,,,,,,,,,,,,,,我的,i,,,i,1,0.518,1,12,92,71,1,,
,,,,,,,,,,,,,,1,001,2025-02-17_17h28.36.303,IAT(Formal),2021.2.3,Win32,58.82352941,,,,,,,,,,,,,,,,,,,,,,,,,,,,,,,,,,,,,,,,,,,,,,,,,,,,诚恳,e,,,e,1,0.6251,1,13,93,29,1,,
,,,,,,,,,,,,,,1,001,2025-02-17_17h28.36.303,IAT(Formal),2021.2.3,Win32,58.82352941,,,,,,,,,,,,,,,,,,,,,,,,,,,,,,,,,,,,,,,,,,,,,,,,,,,,他,e,,,e,1,0.4729,1,14,94,65,1,,
,,,,,,,,,,,,,,1,001,2025-02-17_17h28.36.303,IAT(Formal),2021.2.3,Win32,58.82352941,,,,,,,,,,,,,,,,,,,,,,,,,,,,,,,,,,,,,,,,,,,,,,,,,,,,其他,e,,,e,1,0.8512,1,15,95,69,1,,
,,,,,,,,,,,,,,1,001,2025-02-17_17h28.36.303,IAT(Formal),2021.2.3,Win32,58.82352941,,,,,,,,,,,,,,,,,,,,,,,,,,,,,,,,,,,,,,,,,,,,,,,,,,,,稳重,e,,,e,1,0.8337,1,16,96,21,1,,
,,,,,,,,,,,,,,1,001,2025-02-17_17h28.36.303,IAT(Formal),2021.2.3,Win32,58.82352941,,,,,,,,,,,,,,,,,,,,,,,,,,,,,,,,,,,,,,,,,,,,,,,,,,,,我的,i,,,i,1,0.595,1,17,97,1,1,,
,,,,,,,,,,,,,,1,001,2025-02-17_17h28.36.303,IAT(Formal),2021.2.3,Win32,58.82352941,,,,,,,,,,,,,,,,,,,,,,,,,,,,,,,,,,,,,,,,,,,,,,,,,,,,自己,i,,,i,1,1.0595,1,18,98,53,1,,
,,,,,,,,,,,,,,1,001,2025-02-17_17h28.36.303,IAT(Formal),2021.2.3,Win32,58.82352941,,,,,,,,,,,,,,,,,,,,,,,,,,,,,,,,,,,,,,,,,,,,,,,,,,,,执拗,i,,,e,0,0.6855,1,19,99,40,1,,
,,,,,,,,,,,,,,1,001,2025-02-17_17h28.36.303,IAT(Formal),2021.2.3,Win32,58.82352941,,,,,,,,,,,,,,,,,,,,,,,,,,,,,,,,,,,,,,,,,,,,,,,,,,,,优秀,e,,,,0,,1,20,100,10,1,,
,,,,,,,,,,,,,,1,001,2025-02-17_17h28.36.303,IAT(Formal),2021.2.3,Win32,58.82352941,,,,,,,,,,,,,,,,,,,,,,,,,,,,,,,,,,,,,,,,,,,,,,,,,,,,他人,e,,,e,1,0.6007,1,21,101,68,1,,
,,,,,,,,,,,,,,1,001,2025-02-17_17h28.36.303,IAT(Formal),2021.2.3,Win32,58.82352941,,,,,,,,,,,,,,,,,,,,,,,,,,,,,,,,,,,,,,,,,,,,,,,,,,,,他的,e,,,e,1,0.7907,1,22,102,67,1,,
,,,,,,,,,,,,,,1,001,2025-02-17_17h28.36.303,IAT(Formal),2021.2.3,Win32,58.82352941,,,,,,,,,,,,,,,,,,,,,,,,,,,,,,,,,,,,,,,,,,,,,,,,,,,,他,e,,,e,1,0.6049,1,23,103,5,1,,
,,,,,,,,,,,,,,1,001,2025-02-17_17h28.36.303,IAT(Formal),2021.2.3,Win32,58.82352941,,,,,,,,,,,,,,,,,,,,,,,,,,,,,,,,,,,,,,,,,,,,,,,,,,,,我的,i,,,i,1,0.7521,1,24,104,61,1,,
,,,,,,,,,,,,,,1,001,2025-02-17_17h28.36.303,IAT(Formal),2021.2.3,Win32,58.82352941,,,,,,,,,,,,,,,,,,,,,,,,,,,,,,,,,,,,,,,,,,,,,,,,,,,,俺,i,,,i,1,0.5848,1,25,105,74,1,,
,,,,,,,,,,,,,,1,001,2025-02-17_17h28.36.303,IAT(Formal),2021.2.3,Win32,58.82352941,,,,,,,,,,,,,,,,,,,,,,,,,,,,,,,,,,,,,,,,,,,,,,,,,,,,固执,i,,,e,0,0.7205,1,26,106,47,1,,
,,,,,,,,,,,,,,1,001,2025-02-17_17h28.36.303,IAT(Formal),2021.2.3,Win32,58.82352941,,,,,,,,,,,,,,,,,,,,,,,,,,,,,,,,,,,,,,,,,,,,,,,,,,,,他,e,,,e,1,0.5179,1,27,107,75,1,,
,,,,,,,,,,,,,,1,001,2025-02-17_17h28.36.303,IAT(Formal),2021.2.3,Win32,58.82352941,,,,,,,,,,,,,,,,,,,,,,,,,,,,,,,,,,,,,,,,,,,,,,,,,,,,他,e,,,e,1,0.518,1,28,108,55,1,,
,,,,,,,,,,,,,,1,001,2025-02-17_17h28.36.303,IAT(Formal),2021.2.3,Win32,58.82352941,,,,,,,,,,,,,,,,,,,,,,,,,,,,,,,,,,,,,,,,,,,,,,,,,,,,卑鄙,i,,,i,1,0.6091,1,29,109,30,1,,
,,,,,,,,,,,,,,1,001,2025-02-17_17h28.36.303,IAT(Formal),2021.2.3,Win32,58.82352941,,,,,,,,,,,,,,,,,,,,,,,,,,,,,,,,,,,,,,,,,,,,,,,,,,,,正直,e,,,e,1,0.6517,1,30,110,16,1,,
,,,,,,,,,,,,,,1,001,2025-02-17_17h28.36.303,IAT(Formal),2021.2.3,Win32,58.82352941,,,,,,,,,,,,,,,,,,,,,,,,,,,,,,,,,,,,,,,,,,,,,,,,,,,,我们,i,,,i,1,0.6397,1,31,111,72,1,,
,,,,,,,,,,,,,,1,001,2025-02-17_17h28.36.303,IAT(Formal),2021.2.3,Win32,58.82352941,,,,,,,,,,,,,,,,,,,,,,,,,,,,,,,,,,,,,,,,,,,,,,,,,,,,我,i,,,i,1,0.8497,1,32,112,60,1,,
,,,,,,,,,,,,,,1,001,2025-02-17_17h28.36.303,IAT(Formal),2021.2.3,Win32,58.82352941,,,,,,,,,,,,,,,,,,,,,,,,,,,,,,,,,,,,,,,,,,,,,,,,,,,,我,i,,,i,1,0.5541,1,33,113,0,1,,
,,,,,,,,,,,,,,1,001,2025-02-17_17h28.36.303,IAT(Formal),2021.2.3,Win32,58.82352941,,,,,,,,,,,,,,,,,,,,,,,,,,,,,,,,,,,,,,,,,,,,,,,,,,,,野蛮,i,,,e,0,0.6164,1,34,114,46,1,,
,,,,,,,,,,,,,,1,001,2025-02-17_17h28.36.303,IAT(Formal),2021.2.3,Win32,58.82352941,,,,,,,,,,,,,,,,,,,,,,,,,,,,,,,,,,,,,,,,,,,,,,,,,,,,我,i,,,i,1,0.7386,1,35,115,50,1,,
,,,,,,,,,,,,,,1,001,2025-02-17_17h28.36.303,IAT(Formal),2021.2.3,Win32,58.82352941,,,,,,,,,,,,,,,,,,,,,,,,,,,,,,,,,,,,,,,,,,,,,,,,,,,,公正,e,,,e,1,0.9394,1,36,116,23,1,,
,,,,,,,,,,,,,,1,001,2025-02-17_17h28.36.303,IAT(Formal),2021.2.3,Win32,58.82352941,,,,,,,,,,,,,,,,,,,,,,,,,,,,,,,,,,,,,,,,,,,,,,,,,,,,其他,e,,,e,1,0.8841,1,37,117,79,1,,
,,,,,,,,,,,,,,1,001,2025-02-17_17h28.36.303,IAT(Formal),2021.2.3,Win32,58.82352941,,,,,,,,,,,,,,,,,,,,,,,,,,,,,,,,,,,,,,,,,,,,,,,,,,,,我们,i,,,i,1,1.2682,1,38,118,2,1,,
,,,,,,,,,,,,,,1,001,2025-02-17_17h28.36.303,IAT(Formal),2021.2.3,Win32,58.82352941,,,,,,,,,,,,,,,,,,,,,,,,,,,,,,,,,,,,,,,,,,,,,,,,,,,,消极,i,,,,0,,1,39,119,35,1,,
,,,,,,,,,,,,,,1,001,2025-02-17_17h28.36.303,IAT(Formal),2021.2.3,Win32,58.82352941,,,,,,,,,,,,,,,,,,,,,,,,,,,,,,,,,,,,,,,,,,,,,,,,,,,,轻率,i,,,i,1,0.8272,1,40,120,48,1,,
,,,,,,,,,,,,,,1,001,2025-02-17_17h28.36.303,IAT(Formal),2021.2.3,Win32,58.82352941,,,,,,,,,,,,,,,,,,,,,,,,,,,,,,,,,,,,,,,,,,,,,,,,,,,,冒失,i,,,i,1,0.7101,1,41,121,39,1,,
,,,,,,,,,,,,,,1,001,2025-02-17_17h28.36.303,IAT(Formal),2021.2.3,Win32,58.82352941,,,,,,,,,,,,,,,,,,,,,,,,,,,,,,,,,,,,,,,,,,,,,,,,,,,,他的,e,,,e,1,0.5047,1,42,122,57,1,,
,,,,,,,,,,,,,,1,001,2025-02-17_17h28.36.303,IAT(Formal),2021.2.3,Win32,58.82352941,,,,,,,,,,,,,,,,,,,,,,,,,,,,,,,,,,,,,,,,,,,,,,,,,,,,机智,e,,,e,1,0.5847,1,43,123,19,1,,
,,,,,,,,,,,,,,1,001,2025-02-17_17h28.36.303,IAT(Formal),2021.2.3,Win32,58.82352941,,,,,,,,,,,,,,,,,,,,,,,,,,,,,,,,,,,,,,,,,,,,,,,,,,,,暴躁,i,,,i,1,0.8589,1,44,124,44,1,,
,,,,,,,,,,,,,,1,001,2025-02-17_17h28.36.303,IAT(Formal),2021.2.3,Win32,58.82352941,,,,,,,,,,,,,,,,,,,,,,,,,,,,,,,,,,,,,,,,,,,,,,,,,,,,我们,i,,,i,1,0.5205,1,45,125,52,1,,
,,,,,,,,,,,,,,1,001,2025-02-17_17h28.36.303,IAT(Formal),2021.2.3,Win32,58.82352941,,,,,,,,,,,,,,,,,,,,,,,,,,,,,,,,,,,,,,,,,,,,,,,,,,,,他人,e,,,e,1,0.54,1,46,126,78,1,,
,,,,,,,,,,,,,,1,001,2025-02-17_17h28.36.303,IAT(Formal),2021.2.3,Win32,58.82352941,,,,,,,,,,,,,,,,,,,,,,,,,,,,,,,,,,,,,,,,,,,,,,,,,,,,自卑,i,,,e,0,0.7682,1,47,127,36,1,,
,,,,,,,,,,,,,,1,001,2025-02-17_17h28.36.303,IAT(Formal),2021.2.3,Win32,58.82352941,,,,,,,,,,,,,,,,,,,,,,,,,,,,,,,,,,,,,,,,,,,,,,,,,,,,其他,e,,,e,1,0.502,1,48,128,9,1,,
,,,,,,,,,,,,,,1,001,2025-02-17_17h28.36.303,IAT(Formal),2021.2.3,Win32,58.82352941,,,,,,,,,,,,,,,,,,,,,,,,,,,,,,,,,,,,,,,,,,,,,,,,,,,,杰出,e,,,e,1,0.4934,1,49,129,13,1,,
,,,,,,,,,,,,,,1,001,2025-02-17_17h28.36.303,IAT(Formal),2021.2.3,Win32,58.82352941,,,,,,,,,,,,,,,,,,,,,,,,,,,,,,,,,,,,,,,,,,,,,,,,,,,,冷静,e,,,e,1,0.5502,1,50,130,26,1,,
,,,,,,,,,,,,,,1,001,2025-02-17_17h28.36.303,IAT(Formal),2021.2.3,Win32,58.82352941,,,,,,,,,,,,,,,,,,,,,,,,,,,,,,,,,,,,,,,,,,,,,,,,,,,,他们,e,,,e,1,0.7188,1,51,131,76,1,,
,,,,,,,,,,,,,,1,001,2025-02-17_17h28.36.303,IAT(Formal),2021.2.3,Win32,58.82352941,,,,,,,,,,,,,,,,,,,,,,,,,,,,,,,,,,,,,,,,,,,,,,,,,,,,崇高,e,,,e,1,0.5516,1,52,132,11,1,,
,,,,,,,,,,,,,,1,001,2025-02-17_17h28.36.303,IAT(Formal),2021.2.3,Win32,58.82352941,,,,,,,,,,,,,,,,,,,,,,,,,,,,,,,,,,,,,,,,,,,,,,,,,,,,悲观,i,,,i,1,0.6675,1,53,133,34,1,,
,,,,,,,,,,,,,,1,001,2025-02-17_17h28.36.303,IAT(Formal),2021.2.3,Win32,58.82352941,,,,,,,,,,,,,,,,,,,,,,,,,,,,,,,,,,,,,,,,,,,,,,,,,,,,其他,e,,,e,1,0.668,1,54,134,59,1,,
,,,,,,,,,,,,,,1,001,2025-02-17_17h28.36.303,IAT(Formal),2021.2.3,Win32,58.82352941,,,,,,,,,,,,,,,,,,,,,,,,,,,,,,,,,,,,,,,,,,,,,,,,,,,,俺,i,,,i,1,0.8508,1,55,135,64,1,,
,,,,,,,,,,,,,,1,001,2025-02-17_17h28.36.303,IAT(Formal),2021.2.3,Win32,58.82352941,,,,,,,,,,,,,,,,,,,,,,,,,,,,,,,,,,,,,,,,,,,,,,,,,,,,我们,i,,,i,1,0.6903,1,56,136,62,1,,
,,,,,,,,,,,,,,1,001,2025-02-17_17h28.36.303,IAT(Formal),2021.2.3,Win32,58.82352941,,,,,,,,,,,,,,,,,,,,,,,,,,,,,,,,,,,,,,,,,,,,,,,,,,,,乐观,e,,,e,1,0.9346,1,57,137,14,1,,
,,,,,,,,,,,,,,1,001,2025-02-17_17h28.36.303,IAT(Formal),2021.2.3,Win32,58.82352941,,,,,,,,,,,,,,,,,,,,,,,,,,,,,,,,,,,,,,,,,,,,,,,,,,,,鲁莽,i,,,i,1,0.7831,1,58,138,38,1,,
,,,,,,,,,,,,,,1,001,2025-02-17_17h28.36.303,IAT(Formal),2021.2.3,Win32,58.82352941,,,,,,,,,,,,,,,,,,,,,,,,,,,,,,,,,,,,,,,,,,,,,,,,,,,,活泼,e,,,e,1,0.5561,1,59,139,28,1,,
,,,,,,,,,,,,,,1,001,2025-02-17_17h28.36.303,IAT(Formal),2021.2.3,Win32,58.82352941,,,,,,,,,,,,,,,,,,,,,,,,,,,,,,,,,,,,,,,,,,,,,,,,,,,,细腻,e,,,e,1,0.767,1,60,140,25,1,,
,,,,,,,,,,,,,,1,001,2025-02-17_17h28.36.303,IAT(Formal),2021.2.3,Win32,58.82352941,,,,,,,,,,,,,,,,,,,,,,,,,,,,,,,,,,,,,,,,,,,,,,,,,,,,自己,i,,,i,1,0.5582,1,61,141,63,1,,
,,,,,,,,,,,,,,1,001,2025-02-17_17h28.36.303,IAT(Formal),2021.2.3,Win32,58.82352941,,,,,,,,,,,,,,,,,,,,,,,,,,,,,,,,,,,,,,,,,,,,,,,,,,,,愚蠢,i,,,e,0,0.9686,1,62,142,32,1,,
,,,,,,,,,,,,,,1,001,2025-02-17_17h28.36.303,IAT(Formal),2021.2.3,Win32,58.82352941,,,,,,,,,,,,,,,,,,,,,,,,,,,,,,,,,,,,,,,,,,,,,,,,,,,,他们,e,,,,0,,1,63,143,66,1,,
,,,,,,,,,,,,,,1,001,2025-02-17_17h28.36.303,IAT(Formal),2021.2.3,Win32,58.82352941,,,,,,,,,,,,,,,,,,,,,,,,,,,,,,,,,,,,,,,,,,,,,,,,,,,,诚实,e,,,e,1,0.9038,1,64,144,15,1,,
,,,,,,,,,,,,,,1,001,2025-02-17_17h28.36.303,IAT(Formal),2021.2.3,Win32,58.82352941,,,,,,,,,,,,,,,,,,,,,,,,,,,,,,,,,,,,,,,,,,,,,,,,,,,,勤奋,e,,,e,1,0.5509,1,65,145,18,1,,
,,,,,,,,,,,,,,1,001,2025-02-17_17h28.36.303,IAT(Formal),2021.2.3,Win32,58.82352941,,,,,,,,,,,,,,,,,,,,,,,,,,,,,,,,,,,,,,,,,,,,,,,,,,,,自私,i,,,i,1,0.8406,1,66,146,43,1,,
,,,,,,,,,,,,,,1,001,2025-02-17_17h28.36.303,IAT(Formal),2021.2.3,Win32,58.82352941,,,,,,,,,,,,,,,,,,,,,,,,,,,,,,,,,,,,,,,,,,,,,,,,,,,,他的,e,,,e,1,0.5096,1,67,147,7,1,,
,,,,,,,,,,,,,,1,001,2025-02-17_17h28.36.303,IAT(Formal),2021.2.3,Win32,58.82352941,,,,,,,,,,,,,,,,,,,,,,,,,,,,,,,,,,,,,,,,,,,,,,,,,,,,他们,e,,,e,1,0.4516,1,68,148,56,1,,
,,,,,,,,,,,,,,1,001,2025-02-17_17h28.36.303,IAT(Formal),2021.2.3,Win32,58.82352941,,,,,,,,,,,,,,,,,,,,,,,,,,,,,,,,,,,,,,,,,,,,,,,,,,,,他人,e,,,e,1,0.4514,1,69,149,58,1,,
,,,,,,,,,,,,,,1,001,2025-02-17_17h28.36.303,IAT(Formal),2021.2.3,Win32,58.82352941,,,,,,,,,,,,,,,,,,,,,,,,,,,,,,,,,,,,,,,,,,,,,,,,,,,,下贱,i,,,i,1,0.6415,1,70,150,49,1,,
,,,,,,,,,,,,,,1,001,2025-02-17_17h28.36.303,IAT(Formal),2021.2.3,Win32,58.82352941,,,,,,,,,,,,,,,,,,,,,,,,,,,,,,,,,,,,,,,,,,,,,,,,,,,,他的,e,,,e,1,0.6456,1,71,151,77,1,,
,,,,,,,,,,,,,,1,001,2025-02-17_17h28.36.303,IAT(Formal),2021.2.3,Win32,58.82352941,,,,,,,,,,,,,,,,,,,,,,,,,,,,,,,,,,,,,,,,,,,,,,,,,,,,无私,e,,,e,1,1.1696,1,72,152,22,1,,
,,,,,,,,,,,,,,1,001,2025-02-17_17h28.36.303,IAT(Formal),2021.2.3,Win32,58.82352941,,,,,,,,,,,,,,,,,,,,,,,,,,,,,,,,,,,,,,,,,,,,,,,,,,,,俺,i,,,i,1,0.9015,1,73,153,4,1,,
,,,,,,,,,,,,,,1,001,2025-02-17_17h28.36.303,IAT(Formal),2021.2.3,Win32,58.82352941,,,,,,,,,,,,,,,,,,,,,,,,,,,,,,,,,,,,,,,,,,,,,,,,,,,,我的,i,,,,0,,1,74,154,51,1,,
,,,,,,,,,,,,,,1,001,2025-02-17_17h28.36.303,IAT(Formal),2021.2.3,Win32,58.82352941,,,,,,,,,,,,,,,,,,,,,,,,,,,,,,,,,,,,,,,,,,,,,,,,,,,,凶狠,i,,,e,0,1.053,1,75,155,42,1,,
,,,,,,,,,,,,,,1,001,2025-02-17_17h28.36.303,IAT(Formal),2021.2.3,Win32,58.82352941,,,,,,,,,,,,,,,,,,,,,,,,,,,,,,,,,,,,,,,,,,,,,,,,,,,,我,i,,,i,1,0.6115,1,76,156,70,1,,
,,,,,,,,,,,,,,1,001,2025-02-17_17h28.36.303,IAT(Formal),2021.2.3,Win32,58.82352941,,,,,,,,,,,,,,,,,,,,,,,,,,,,,,,,,,,,,,,,,,,,,,,,,,,,虚伪,i,,,e,0,0.6349,1,77,157,31,1,,
,,,,,,,,,,,,,,1,001,2025-02-17_17h28.36.303,IAT(Formal),2021.2.3,Win32,58.82352941,,,,,,,,,,,,,,,,,,,,,,,,,,,,,,,,,,,,,,,,,,,,,,,,,,,,自己,i,,,i,1,0.7181,1,78,158,73,1,,
,,,,,,,,,,,,,,1,001,2025-02-17_17h28.36.303,IAT(Formal),2021.2.3,Win32,58.82352941,,,,,,,,,,,,,,,,,,,,,,,,,,,,,,,,,,,,,,,,,,,,,,,,,,,,朴实,e,,,e,1,0.9595,1,79,159,24,1,,
,,,,,,,,,,,,,,1,001,2025-02-17_17h28.36.303,IAT(Formal),2021.2.3,Win32,58.82352941,,,,,,,,,,,,,,,,,,,,,,,,,,,,,,,,,,,,,,,,,,,,,,,,,,,,,,,,,,,,,,,,space,3.0171