﻿Instruction1.keys,Instruction1.rt,Instruction2.keys,Instruction2.rt,key_resp_iso.keys,key_resp_iso.corr,key_resp_iso.rt,Practice_01.thisRepN,Practice_01.thisTrialN,Practice_01.thisN,Practice_01.thisIndex,Practice_01.ran,Words,ans,participant,session,date,expName,psychopyVersion,OS,frameRate,key_resp_3.keys,key_resp_3.rt,key_resp_ipn.keys,key_resp_ipn.corr,key_resp_ipn.rt,Practice_02.thisRepN,Practice_02.thisTrialN,Practice_02.thisN,Practice_02.thisIndex,Practice_02.ran,Words_ipn,ans_ipn,key_resp_4.keys,key_resp_4.rt,key_resp_t1.keys,key_resp_t1.corr,key_resp_t1.rt,Practice_T1.thisRepN,Practice_T1.thisTrialN,Practice_T1.thisN,Practice_T1.thisIndex,Practice_T1.ran,Words_t1,ans_t1,key_resp_5.keys,key_resp_5.rt,Formal_T1.thisRepN,Formal_T1.thisTrialN,Formal_T1.thisN,Formal_T1.thisIndex,Formal_T1.ran,key_resp_6.keys,key_resp_6.rt,key_resp_iso_reverse.keys,key_resp_iso_reverse.corr,key_resp_iso_reverse.rt,Practice_iso_Reverse.thisRepN,Practice_iso_Reverse.thisTrialN,Practice_iso_Reverse.thisN,Practice_iso_Reverse.thisIndex,Practice_iso_Reverse.ran,key_resp_7.keys,key_resp_7.rt,key_resp_t2_Practice.keys,key_resp_t2_Practice.corr,key_resp_t2_Practice.rt,Practice_t2_Reverse.thisRepN,Practice_t2_Reverse.thisTrialN,Practice_t2_Reverse.thisN,Practice_t2_Reverse.thisIndex,Practice_t2_Reverse.ran,Words_t2,ans_t2,key_resp_8.keys,key_resp_8.rt,key_resp_t2.keys,key_resp_t2.corr,key_resp_t2.rt,Formal_t2_reverse.thisRepN,Formal_t2_reverse.thisTrialN,Formal_t2_reverse.thisN,Formal_t2_reverse.thisIndex,Formal_t2_reverse.ran,key_instruct.keys,key_instruct.rt
space,1.2955,space,5.7903,i,1,0.612,0,0,0,6,1,他们,i,1 程凯盈,001,2025-02-17_19h33.04.899,IAT(Formal),2021.2.3,Win32,60.24096386,,,,,,,,,,,,,,,,,,,,,,,,,,,,,,,,,,,,,,,,,,,,,,,,,,,,,,,,,,,,,,,,,
,,,,i,1,0.5105,0,1,1,9,1,其他,i,1 程凯盈,001,2025-02-17_19h33.04.899,IAT(Formal),2021.2.3,Win32,60.24096386,,,,,,,,,,,,,,,,,,,,,,,,,,,,,,,,,,,,,,,,,,,,,,,,,,,,,,,,,,,,,,,,,
,,,,e,1,0.8957,0,2,2,2,1,我们,e,1 程凯盈,001,2025-02-17_19h33.04.899,IAT(Formal),2021.2.3,Win32,60.24096386,,,,,,,,,,,,,,,,,,,,,,,,,,,,,,,,,,,,,,,,,,,,,,,,,,,,,,,,,,,,,,,,,
,,,,i,1,0.5368,0,3,3,7,1,他的,i,1 程凯盈,001,2025-02-17_19h33.04.899,IAT(Formal),2021.2.3,Win32,60.24096386,,,,,,,,,,,,,,,,,,,,,,,,,,,,,,,,,,,,,,,,,,,,,,,,,,,,,,,,,,,,,,,,,
,,,,i,1,0.5408,0,4,4,8,1,他人,i,1 程凯盈,001,2025-02-17_19h33.04.899,IAT(Formal),2021.2.3,Win32,60.24096386,,,,,,,,,,,,,,,,,,,,,,,,,,,,,,,,,,,,,,,,,,,,,,,,,,,,,,,,,,,,,,,,,
,,,,e,1,0.6561,0,5,5,0,1,我,e,1 程凯盈,001,2025-02-17_19h33.04.899,IAT(Formal),2021.2.3,Win32,60.24096386,,,,,,,,,,,,,,,,,,,,,,,,,,,,,,,,,,,,,,,,,,,,,,,,,,,,,,,,,,,,,,,,,
,,,,i,1,0.5337,0,6,6,5,1,他,i,1 程凯盈,001,2025-02-17_19h33.04.899,IAT(Formal),2021.2.3,Win32,60.24096386,,,,,,,,,,,,,,,,,,,,,,,,,,,,,,,,,,,,,,,,,,,,,,,,,,,,,,,,,,,,,,,,,
,,,,e,1,0.6349,0,7,7,4,1,俺,e,1 程凯盈,001,2025-02-17_19h33.04.899,IAT(Formal),2021.2.3,Win32,60.24096386,,,,,,,,,,,,,,,,,,,,,,,,,,,,,,,,,,,,,,,,,,,,,,,,,,,,,,,,,,,,,,,,,
,,,,e,1,0.4271,0,8,8,3,1,自己,e,1 程凯盈,001,2025-02-17_19h33.04.899,IAT(Formal),2021.2.3,Win32,60.24096386,,,,,,,,,,,,,,,,,,,,,,,,,,,,,,,,,,,,,,,,,,,,,,,,,,,,,,,,,,,,,,,,,
,,,,e,1,0.4926,0,9,9,1,1,我的,e,1 程凯盈,001,2025-02-17_19h33.04.899,IAT(Formal),2021.2.3,Win32,60.24096386,,,,,,,,,,,,,,,,,,,,,,,,,,,,,,,,,,,,,,,,,,,,,,,,,,,,,,,,,,,,,,,,,
,,,,,,,,,,,,,,1 程凯盈,001,2025-02-17_19h33.04.899,IAT(Formal),2021.2.3,Win32,60.24096386,space,2.8515,e,1,0.4208,0,0,0,4,1,乐观,e,,,,,,,,,,,,,,,,,,,,,,,,,,,,,,,,,,,,,,,,,,,,,,,,,,,,,
,,,,,,,,,,,,,,1 程凯盈,001,2025-02-17_19h33.04.899,IAT(Formal),2021.2.3,Win32,60.24096386,,,e,1,0.5048,0,1,1,19,1,诚恳,e,,,,,,,,,,,,,,,,,,,,,,,,,,,,,,,,,,,,,,,,,,,,,,,,,,,,,
,,,,,,,,,,,,,,1 程凯盈,001,2025-02-17_19h33.04.899,IAT(Formal),2021.2.3,Win32,60.24096386,,,i,1,0.6133,0,2,2,34,1,暴躁,i,,,,,,,,,,,,,,,,,,,,,,,,,,,,,,,,,,,,,,,,,,,,,,,,,,,,,
,,,,,,,,,,,,,,1 程凯盈,001,2025-02-17_19h33.04.899,IAT(Formal),2021.2.3,Win32,60.24096386,,,i,1,0.4357,0,3,3,24,1,悲观,i,,,,,,,,,,,,,,,,,,,,,,,,,,,,,,,,,,,,,,,,,,,,,,,,,,,,,
,,,,,,,,,,,,,,1 程凯盈,001,2025-02-17_19h33.04.899,IAT(Formal),2021.2.3,Win32,60.24096386,,,i,1,0.4507,0,4,4,25,1,消极,i,,,,,,,,,,,,,,,,,,,,,,,,,,,,,,,,,,,,,,,,,,,,,,,,,,,,,
,,,,,,,,,,,,,,1 程凯盈,001,2025-02-17_19h33.04.899,IAT(Formal),2021.2.3,Win32,60.24096386,,,i,1,0.4433,0,5,5,23,1,刻薄,i,,,,,,,,,,,,,,,,,,,,,,,,,,,,,,,,,,,,,,,,,,,,,,,,,,,,,
,,,,,,,,,,,,,,1 程凯盈,001,2025-02-17_19h33.04.899,IAT(Formal),2021.2.3,Win32,60.24096386,,,i,1,0.4424,0,6,6,36,1,野蛮,i,,,,,,,,,,,,,,,,,,,,,,,,,,,,,,,,,,,,,,,,,,,,,,,,,,,,,
,,,,,,,,,,,,,,1 程凯盈,001,2025-02-17_19h33.04.899,IAT(Formal),2021.2.3,Win32,60.24096386,,,i,1,0.4667,0,7,7,32,1,凶狠,i,,,,,,,,,,,,,,,,,,,,,,,,,,,,,,,,,,,,,,,,,,,,,,,,,,,,,
,,,,,,,,,,,,,,1 程凯盈,001,2025-02-17_19h33.04.899,IAT(Formal),2021.2.3,Win32,60.24096386,,,i,0,0.4958,0,8,8,17,1,热情,e,,,,,,,,,,,,,,,,,,,,,,,,,,,,,,,,,,,,,,,,,,,,,,,,,,,,,
,,,,,,,,,,,,,,1 程凯盈,001,2025-02-17_19h33.04.899,IAT(Formal),2021.2.3,Win32,60.24096386,,,e,1,0.4579,0,9,9,13,1,公正,e,,,,,,,,,,,,,,,,,,,,,,,,,,,,,,,,,,,,,,,,,,,,,,,,,,,,,
,,,,,,,,,,,,,,1 程凯盈,001,2025-02-17_19h33.04.899,IAT(Formal),2021.2.3,Win32,60.24096386,,,e,1,0.5505,0,10,10,16,1,冷静,e,,,,,,,,,,,,,,,,,,,,,,,,,,,,,,,,,,,,,,,,,,,,,,,,,,,,,
,,,,,,,,,,,,,,1 程凯盈,001,2025-02-17_19h33.04.899,IAT(Formal),2021.2.3,Win32,60.24096386,,,i,1,0.5158,0,11,11,39,1,下贱,i,,,,,,,,,,,,,,,,,,,,,,,,,,,,,,,,,,,,,,,,,,,,,,,,,,,,,
,,,,,,,,,,,,,,1 程凯盈,001,2025-02-17_19h33.04.899,IAT(Formal),2021.2.3,Win32,60.24096386,,,i,1,0.9592,0,12,12,26,1,自卑,i,,,,,,,,,,,,,,,,,,,,,,,,,,,,,,,,,,,,,,,,,,,,,,,,,,,,,
,,,,,,,,,,,,,,1 程凯盈,001,2025-02-17_19h33.04.899,IAT(Formal),2021.2.3,Win32,60.24096386,,,i,1,0.939,0,13,13,29,1,冒失,i,,,,,,,,,,,,,,,,,,,,,,,,,,,,,,,,,,,,,,,,,,,,,,,,,,,,,
,,,,,,,,,,,,,,1 程凯盈,001,2025-02-17_19h33.04.899,IAT(Formal),2021.2.3,Win32,60.24096386,,,e,1,0.5353,0,14,14,3,1,杰出,e,,,,,,,,,,,,,,,,,,,,,,,,,,,,,,,,,,,,,,,,,,,,,,,,,,,,,
,,,,,,,,,,,,,,1 程凯盈,001,2025-02-17_19h33.04.899,IAT(Formal),2021.2.3,Win32,60.24096386,,,i,1,0.5136,0,15,15,33,1,自私,i,,,,,,,,,,,,,,,,,,,,,,,,,,,,,,,,,,,,,,,,,,,,,,,,,,,,,
,,,,,,,,,,,,,,1 程凯盈,001,2025-02-17_19h33.04.899,IAT(Formal),2021.2.3,Win32,60.24096386,,,i,1,0.5925,0,16,16,31,1,散漫,i,,,,,,,,,,,,,,,,,,,,,,,,,,,,,,,,,,,,,,,,,,,,,,,,,,,,,
,,,,,,,,,,,,,,1 程凯盈,001,2025-02-17_19h33.04.899,IAT(Formal),2021.2.3,Win32,60.24096386,,,e,1,0.6281,0,17,17,18,1,活泼,e,,,,,,,,,,,,,,,,,,,,,,,,,,,,,,,,,,,,,,,,,,,,,,,,,,,,,
,,,,,,,,,,,,,,1 程凯盈,001,2025-02-17_19h33.04.899,IAT(Formal),2021.2.3,Win32,60.24096386,,,i,1,0.5451,0,18,18,22,1,愚蠢,i,,,,,,,,,,,,,,,,,,,,,,,,,,,,,,,,,,,,,,,,,,,,,,,,,,,,,
,,,,,,,,,,,,,,1 程凯盈,001,2025-02-17_19h33.04.899,IAT(Formal),2021.2.3,Win32,60.24096386,,,i,1,0.5114,0,19,19,21,1,虚伪,i,,,,,,,,,,,,,,,,,,,,,,,,,,,,,,,,,,,,,,,,,,,,,,,,,,,,,
,,,,,,,,,,,,,,1 程凯盈,001,2025-02-17_19h33.04.899,IAT(Formal),2021.2.3,Win32,60.24096386,,,i,1,0.8517,0,20,20,30,1,执拗,i,,,,,,,,,,,,,,,,,,,,,,,,,,,,,,,,,,,,,,,,,,,,,,,,,,,,,
,,,,,,,,,,,,,,1 程凯盈,001,2025-02-17_19h33.04.899,IAT(Formal),2021.2.3,Win32,60.24096386,,,e,1,0.6922,0,21,21,14,1,朴实,e,,,,,,,,,,,,,,,,,,,,,,,,,,,,,,,,,,,,,,,,,,,,,,,,,,,,,
,,,,,,,,,,,,,,1 程凯盈,001,2025-02-17_19h33.04.899,IAT(Formal),2021.2.3,Win32,60.24096386,,,i,1,0.5994,0,22,22,20,1,卑鄙,i,,,,,,,,,,,,,,,,,,,,,,,,,,,,,,,,,,,,,,,,,,,,,,,,,,,,,
,,,,,,,,,,,,,,1 程凯盈,001,2025-02-17_19h33.04.899,IAT(Formal),2021.2.3,Win32,60.24096386,,,e,1,0.6003,0,23,23,9,1,机智,e,,,,,,,,,,,,,,,,,,,,,,,,,,,,,,,,,,,,,,,,,,,,,,,,,,,,,
,,,,,,,,,,,,,,1 程凯盈,001,2025-02-17_19h33.04.899,IAT(Formal),2021.2.3,Win32,60.24096386,,,e,1,0.4976,0,24,24,1,1,崇高,e,,,,,,,,,,,,,,,,,,,,,,,,,,,,,,,,,,,,,,,,,,,,,,,,,,,,,
,,,,,,,,,,,,,,1 程凯盈,001,2025-02-17_19h33.04.899,IAT(Formal),2021.2.3,Win32,60.24096386,,,i,1,0.5284,0,25,25,38,1,轻率,i,,,,,,,,,,,,,,,,,,,,,,,,,,,,,,,,,,,,,,,,,,,,,,,,,,,,,
,,,,,,,,,,,,,,1 程凯盈,001,2025-02-17_19h33.04.899,IAT(Formal),2021.2.3,Win32,60.24096386,,,i,1,0.9152,0,26,26,37,1,固执,i,,,,,,,,,,,,,,,,,,,,,,,,,,,,,,,,,,,,,,,,,,,,,,,,,,,,,
,,,,,,,,,,,,,,1 程凯盈,001,2025-02-17_19h33.04.899,IAT(Formal),2021.2.3,Win32,60.24096386,,,e,1,1.2406,0,27,27,12,1,无私,e,,,,,,,,,,,,,,,,,,,,,,,,,,,,,,,,,,,,,,,,,,,,,,,,,,,,,
,,,,,,,,,,,,,,1 程凯盈,001,2025-02-17_19h33.04.899,IAT(Formal),2021.2.3,Win32,60.24096386,,,e,1,0.5188,0,28,28,0,1,优秀,e,,,,,,,,,,,,,,,,,,,,,,,,,,,,,,,,,,,,,,,,,,,,,,,,,,,,,
,,,,,,,,,,,,,,1 程凯盈,001,2025-02-17_19h33.04.899,IAT(Formal),2021.2.3,Win32,60.24096386,,,e,1,0.4994,0,29,29,11,1,稳重,e,,,,,,,,,,,,,,,,,,,,,,,,,,,,,,,,,,,,,,,,,,,,,,,,,,,,,
,,,,,,,,,,,,,,1 程凯盈,001,2025-02-17_19h33.04.899,IAT(Formal),2021.2.3,Win32,60.24096386,,,i,1,0.5247,0,30,30,35,1,猖狂,i,,,,,,,,,,,,,,,,,,,,,,,,,,,,,,,,,,,,,,,,,,,,,,,,,,,,,
,,,,,,,,,,,,,,1 程凯盈,001,2025-02-17_19h33.04.899,IAT(Formal),2021.2.3,Win32,60.24096386,,,e,1,0.5495,0,31,31,8,1,勤奋,e,,,,,,,,,,,,,,,,,,,,,,,,,,,,,,,,,,,,,,,,,,,,,,,,,,,,,
,,,,,,,,,,,,,,1 程凯盈,001,2025-02-17_19h33.04.899,IAT(Formal),2021.2.3,Win32,60.24096386,,,e,1,0.4165,0,32,32,6,1,正直,e,,,,,,,,,,,,,,,,,,,,,,,,,,,,,,,,,,,,,,,,,,,,,,,,,,,,,
,,,,,,,,,,,,,,1 程凯盈,001,2025-02-17_19h33.04.899,IAT(Formal),2021.2.3,Win32,60.24096386,,,e,1,0.4036,0,33,33,7,1,勇敢,e,,,,,,,,,,,,,,,,,,,,,,,,,,,,,,,,,,,,,,,,,,,,,,,,,,,,,
,,,,,,,,,,,,,,1 程凯盈,001,2025-02-17_19h33.04.899,IAT(Formal),2021.2.3,Win32,60.24096386,,,i,1,0.4389,0,34,34,27,1,傲慢,i,,,,,,,,,,,,,,,,,,,,,,,,,,,,,,,,,,,,,,,,,,,,,,,,,,,,,
,,,,,,,,,,,,,,1 程凯盈,001,2025-02-17_19h33.04.899,IAT(Formal),2021.2.3,Win32,60.24096386,,,e,1,0.4793,0,35,35,10,1,认真,e,,,,,,,,,,,,,,,,,,,,,,,,,,,,,,,,,,,,,,,,,,,,,,,,,,,,,
,,,,,,,,,,,,,,1 程凯盈,001,2025-02-17_19h33.04.899,IAT(Formal),2021.2.3,Win32,60.24096386,,,i,1,0.5406,0,36,36,28,1,鲁莽,i,,,,,,,,,,,,,,,,,,,,,,,,,,,,,,,,,,,,,,,,,,,,,,,,,,,,,
,,,,,,,,,,,,,,1 程凯盈,001,2025-02-17_19h33.04.899,IAT(Formal),2021.2.3,Win32,60.24096386,,,e,1,0.5656,0,37,37,5,1,诚实,e,,,,,,,,,,,,,,,,,,,,,,,,,,,,,,,,,,,,,,,,,,,,,,,,,,,,,
,,,,,,,,,,,,,,1 程凯盈,001,2025-02-17_19h33.04.899,IAT(Formal),2021.2.3,Win32,60.24096386,,,e,1,0.4235,0,38,38,2,1,聪明,e,,,,,,,,,,,,,,,,,,,,,,,,,,,,,,,,,,,,,,,,,,,,,,,,,,,,,
,,,,,,,,,,,,,,1 程凯盈,001,2025-02-17_19h33.04.899,IAT(Formal),2021.2.3,Win32,60.24096386,,,e,1,0.4964,0,39,39,15,1,细腻,e,,,,,,,,,,,,,,,,,,,,,,,,,,,,,,,,,,,,,,,,,,,,,,,,,,,,,
,,,,,,,,,,,,,,1 程凯盈,001,2025-02-17_19h33.04.899,IAT(Formal),2021.2.3,Win32,60.24096386,,,,,,,,,,,,,space,3.9665,e,1,0.5049,0,0,0,74,1,俺,e,,,,,,,,,,,,,,,,,,,,,,,,,,,,,,,,,,,,,,,,,
,,,,,,,,,,,,,,1 程凯盈,001,2025-02-17_19h33.04.899,IAT(Formal),2021.2.3,Win32,60.24096386,,,,,,,,,,,,,,,e,1,0.5507,0,1,1,22,1,无私,e,,,,,,,,,,,,,,,,,,,,,,,,,,,,,,,,,,,,,,,,,
,,,,,,,,,,,,,,1 程凯盈,001,2025-02-17_19h33.04.899,IAT(Formal),2021.2.3,Win32,60.24096386,,,,,,,,,,,,,,,i,1,0.5114,0,2,2,76,1,他们,i,,,,,,,,,,,,,,,,,,,,,,,,,,,,,,,,,,,,,,,,,
,,,,,,,,,,,,,,1 程凯盈,001,2025-02-17_19h33.04.899,IAT(Formal),2021.2.3,Win32,60.24096386,,,,,,,,,,,,,,,e,1,0.5574,0,3,3,28,1,活泼,e,,,,,,,,,,,,,,,,,,,,,,,,,,,,,,,,,,,,,,,,,
,,,,,,,,,,,,,,1 程凯盈,001,2025-02-17_19h33.04.899,IAT(Formal),2021.2.3,Win32,60.24096386,,,,,,,,,,,,,,,e,1,0.4325,0,4,4,54,1,俺,e,,,,,,,,,,,,,,,,,,,,,,,,,,,,,,,,,,,,,,,,,
,,,,,,,,,,,,,,1 程凯盈,001,2025-02-17_19h33.04.899,IAT(Formal),2021.2.3,Win32,60.24096386,,,,,,,,,,,,,,,i,1,0.5398,0,5,5,30,1,卑鄙,i,,,,,,,,,,,,,,,,,,,,,,,,,,,,,,,,,,,,,,,,,
,,,,,,,,,,,,,,1 程凯盈,001,2025-02-17_19h33.04.899,IAT(Formal),2021.2.3,Win32,60.24096386,,,,,,,,,,,,,,,e,1,0.554,0,6,6,62,1,我们,e,,,,,,,,,,,,,,,,,,,,,,,,,,,,,,,,,,,,,,,,,
,,,,,,,,,,,,,,1 程凯盈,001,2025-02-17_19h33.04.899,IAT(Formal),2021.2.3,Win32,60.24096386,,,,,,,,,,,,,,,i,1,0.9843,0,7,7,39,1,冒失,i,,,,,,,,,,,,,,,,,,,,,,,,,,,,,,,,,,,,,,,,,
,,,,,,,,,,,,,,1 程凯盈,001,2025-02-17_19h33.04.899,IAT(Formal),2021.2.3,Win32,60.24096386,,,,,,,,,,,,,,,e,1,0.7152,0,8,8,12,1,聪明,e,,,,,,,,,,,,,,,,,,,,,,,,,,,,,,,,,,,,,,,,,
,,,,,,,,,,,,,,1 程凯盈,001,2025-02-17_19h33.04.899,IAT(Formal),2021.2.3,Win32,60.24096386,,,,,,,,,,,,,,,e,0,0.4188,0,9,9,65,1,他,i,,,,,,,,,,,,,,,,,,,,,,,,,,,,,,,,,,,,,,,,,
,,,,,,,,,,,,,,1 程凯盈,001,2025-02-17_19h33.04.899,IAT(Formal),2021.2.3,Win32,60.24096386,,,,,,,,,,,,,,,i,1,0.5506,0,10,10,57,1,他的,i,,,,,,,,,,,,,,,,,,,,,,,,,,,,,,,,,,,,,,,,,
,,,,,,,,,,,,,,1 程凯盈,001,2025-02-17_19h33.04.899,IAT(Formal),2021.2.3,Win32,60.24096386,,,,,,,,,,,,,,,i,1,0.4034,0,11,11,5,1,他,i,,,,,,,,,,,,,,,,,,,,,,,,,,,,,,,,,,,,,,,,,
,,,,,,,,,,,,,,1 程凯盈,001,2025-02-17_19h33.04.899,IAT(Formal),2021.2.3,Win32,60.24096386,,,,,,,,,,,,,,,i,1,0.5755,0,12,12,32,1,愚蠢,i,,,,,,,,,,,,,,,,,,,,,,,,,,,,,,,,,,,,,,,,,
,,,,,,,,,,,,,,1 程凯盈,001,2025-02-17_19h33.04.899,IAT(Formal),2021.2.3,Win32,60.24096386,,,,,,,,,,,,,,,e,1,0.4495,0,13,13,61,1,我的,e,,,,,,,,,,,,,,,,,,,,,,,,,,,,,,,,,,,,,,,,,
,,,,,,,,,,,,,,1 程凯盈,001,2025-02-17_19h33.04.899,IAT(Formal),2021.2.3,Win32,60.24096386,,,,,,,,,,,,,,,i,1,0.5216,0,14,14,7,1,他的,i,,,,,,,,,,,,,,,,,,,,,,,,,,,,,,,,,,,,,,,,,
,,,,,,,,,,,,,,1 程凯盈,001,2025-02-17_19h33.04.899,IAT(Formal),2021.2.3,Win32,60.24096386,,,,,,,,,,,,,,,e,1,0.5536,0,15,15,15,1,诚实,e,,,,,,,,,,,,,,,,,,,,,,,,,,,,,,,,,,,,,,,,,
,,,,,,,,,,,,,,1 程凯盈,001,2025-02-17_19h33.04.899,IAT(Formal),2021.2.3,Win32,60.24096386,,,,,,,,,,,,,,,i,1,0.5442,0,16,16,75,1,他,i,,,,,,,,,,,,,,,,,,,,,,,,,,,,,,,,,,,,,,,,,
,,,,,,,,,,,,,,1 程凯盈,001,2025-02-17_19h33.04.899,IAT(Formal),2021.2.3,Win32,60.24096386,,,,,,,,,,,,,,,e,1,0.4727,0,17,17,72,1,我们,e,,,,,,,,,,,,,,,,,,,,,,,,,,,,,,,,,,,,,,,,,
,,,,,,,,,,,,,,1 程凯盈,001,2025-02-17_19h33.04.899,IAT(Formal),2021.2.3,Win32,60.24096386,,,,,,,,,,,,,,,e,1,0.6106,0,18,18,25,1,细腻,e,,,,,,,,,,,,,,,,,,,,,,,,,,,,,,,,,,,,,,,,,
,,,,,,,,,,,,,,1 程凯盈,001,2025-02-17_19h33.04.899,IAT(Formal),2021.2.3,Win32,60.24096386,,,,,,,,,,,,,,,e,1,0.4197,0,19,19,73,1,自己,e,,,,,,,,,,,,,,,,,,,,,,,,,,,,,,,,,,,,,,,,,
,,,,,,,,,,,,,,1 程凯盈,001,2025-02-17_19h33.04.899,IAT(Formal),2021.2.3,Win32,60.24096386,,,,,,,,,,,,,,,i,1,0.5504,0,20,20,47,1,固执,i,,,,,,,,,,,,,,,,,,,,,,,,,,,,,,,,,,,,,,,,,
,,,,,,,,,,,,,,1 程凯盈,001,2025-02-17_19h33.04.899,IAT(Formal),2021.2.3,Win32,60.24096386,,,,,,,,,,,,,,,e,1,0.6006,0,21,21,14,1,乐观,e,,,,,,,,,,,,,,,,,,,,,,,,,,,,,,,,,,,,,,,,,
,,,,,,,,,,,,,,1 程凯盈,001,2025-02-17_19h33.04.899,IAT(Formal),2021.2.3,Win32,60.24096386,,,,,,,,,,,,,,,e,1,0.4471,0,22,22,51,1,我的,e,,,,,,,,,,,,,,,,,,,,,,,,,,,,,,,,,,,,,,,,,
,,,,,,,,,,,,,,1 程凯盈,001,2025-02-17_19h33.04.899,IAT(Formal),2021.2.3,Win32,60.24096386,,,,,,,,,,,,,,,i,1,0.5633,0,23,23,42,1,凶狠,i,,,,,,,,,,,,,,,,,,,,,,,,,,,,,,,,,,,,,,,,,
,,,,,,,,,,,,,,1 程凯盈,001,2025-02-17_19h33.04.899,IAT(Formal),2021.2.3,Win32,60.24096386,,,,,,,,,,,,,,,e,1,0.5634,0,24,24,0,1,我,e,,,,,,,,,,,,,,,,,,,,,,,,,,,,,,,,,,,,,,,,,
,,,,,,,,,,,,,,1 程凯盈,001,2025-02-17_19h33.04.899,IAT(Formal),2021.2.3,Win32,60.24096386,,,,,,,,,,,,,,,i,1,0.6302,0,25,25,34,1,悲观,i,,,,,,,,,,,,,,,,,,,,,,,,,,,,,,,,,,,,,,,,,
,,,,,,,,,,,,,,1 程凯盈,001,2025-02-17_19h33.04.899,IAT(Formal),2021.2.3,Win32,60.24096386,,,,,,,,,,,,,,,i,1,0.4987,0,26,26,56,1,他们,i,,,,,,,,,,,,,,,,,,,,,,,,,,,,,,,,,,,,,,,,,
,,,,,,,,,,,,,,1 程凯盈,001,2025-02-17_19h33.04.899,IAT(Formal),2021.2.3,Win32,60.24096386,,,,,,,,,,,,,,,e,1,0.8537,0,27,27,29,1,诚恳,e,,,,,,,,,,,,,,,,,,,,,,,,,,,,,,,,,,,,,,,,,
,,,,,,,,,,,,,,1 程凯盈,001,2025-02-17_19h33.04.899,IAT(Formal),2021.2.3,Win32,60.24096386,,,,,,,,,,,,,,,i,1,0.6288,0,28,28,33,1,刻薄,i,,,,,,,,,,,,,,,,,,,,,,,,,,,,,,,,,,,,,,,,,
,,,,,,,,,,,,,,1 程凯盈,001,2025-02-17_19h33.04.899,IAT(Formal),2021.2.3,Win32,60.24096386,,,,,,,,,,,,,,,i,1,1.2263,0,29,29,58,1,他人,i,,,,,,,,,,,,,,,,,,,,,,,,,,,,,,,,,,,,,,,,,
,,,,,,,,,,,,,,1 程凯盈,001,2025-02-17_19h33.04.899,IAT(Formal),2021.2.3,Win32,60.24096386,,,,,,,,,,,,,,,i,1,0.818,0,30,30,8,1,他人,i,,,,,,,,,,,,,,,,,,,,,,,,,,,,,,,,,,,,,,,,,
,,,,,,,,,,,,,,1 程凯盈,001,2025-02-17_19h33.04.899,IAT(Formal),2021.2.3,Win32,60.24096386,,,,,,,,,,,,,,,e,1,0.5822,0,31,31,13,1,杰出,e,,,,,,,,,,,,,,,,,,,,,,,,,,,,,,,,,,,,,,,,,
,,,,,,,,,,,,,,1 程凯盈,001,2025-02-17_19h33.04.899,IAT(Formal),2021.2.3,Win32,60.24096386,,,,,,,,,,,,,,,e,1,0.5169,0,32,32,20,1,认真,e,,,,,,,,,,,,,,,,,,,,,,,,,,,,,,,,,,,,,,,,,
,,,,,,,,,,,,,,1 程凯盈,001,2025-02-17_19h33.04.899,IAT(Formal),2021.2.3,Win32,60.24096386,,,,,,,,,,,,,,,i,0,0.5392,0,33,33,26,1,冷静,e,,,,,,,,,,,,,,,,,,,,,,,,,,,,,,,,,,,,,,,,,
,,,,,,,,,,,,,,1 程凯盈,001,2025-02-17_19h33.04.899,IAT(Formal),2021.2.3,Win32,60.24096386,,,,,,,,,,,,,,,i,1,0.6158,0,34,34,35,1,消极,i,,,,,,,,,,,,,,,,,,,,,,,,,,,,,,,,,,,,,,,,,
,,,,,,,,,,,,,,1 程凯盈,001,2025-02-17_19h33.04.899,IAT(Formal),2021.2.3,Win32,60.24096386,,,,,,,,,,,,,,,i,1,0.494,0,35,35,59,1,其他,i,,,,,,,,,,,,,,,,,,,,,,,,,,,,,,,,,,,,,,,,,
,,,,,,,,,,,,,,1 程凯盈,001,2025-02-17_19h33.04.899,IAT(Formal),2021.2.3,Win32,60.24096386,,,,,,,,,,,,,,,i,1,0.5241,0,36,36,43,1,自私,i,,,,,,,,,,,,,,,,,,,,,,,,,,,,,,,,,,,,,,,,,
,,,,,,,,,,,,,,1 程凯盈,001,2025-02-17_19h33.04.899,IAT(Formal),2021.2.3,Win32,60.24096386,,,,,,,,,,,,,,,e,1,0.6185,0,37,37,50,1,我,e,,,,,,,,,,,,,,,,,,,,,,,,,,,,,,,,,,,,,,,,,
,,,,,,,,,,,,,,1 程凯盈,001,2025-02-17_19h33.04.899,IAT(Formal),2021.2.3,Win32,60.24096386,,,,,,,,,,,,,,,e,1,0.4974,0,38,38,1,1,我的,e,,,,,,,,,,,,,,,,,,,,,,,,,,,,,,,,,,,,,,,,,
,,,,,,,,,,,,,,1 程凯盈,001,2025-02-17_19h33.04.899,IAT(Formal),2021.2.3,Win32,60.24096386,,,,,,,,,,,,,,,i,1,0.6821,0,39,39,48,1,轻率,i,,,,,,,,,,,,,,,,,,,,,,,,,,,,,,,,,,,,,,,,,
,,,,,,,,,,,,,,1 程凯盈,001,2025-02-17_19h33.04.899,IAT(Formal),2021.2.3,Win32,60.24096386,,,,,,,,,,,,,,,i,1,0.6567,0,40,40,44,1,暴躁,i,,,,,,,,,,,,,,,,,,,,,,,,,,,,,,,,,,,,,,,,,
,,,,,,,,,,,,,,1 程凯盈,001,2025-02-17_19h33.04.899,IAT(Formal),2021.2.3,Win32,60.24096386,,,,,,,,,,,,,,,i,1,0.5642,0,41,41,69,1,其他,i,,,,,,,,,,,,,,,,,,,,,,,,,,,,,,,,,,,,,,,,,
,,,,,,,,,,,,,,1 程凯盈,001,2025-02-17_19h33.04.899,IAT(Formal),2021.2.3,Win32,60.24096386,,,,,,,,,,,,,,,e,1,0.4603,0,42,42,60,1,我,e,,,,,,,,,,,,,,,,,,,,,,,,,,,,,,,,,,,,,,,,,
,,,,,,,,,,,,,,1 程凯盈,001,2025-02-17_19h33.04.899,IAT(Formal),2021.2.3,Win32,60.24096386,,,,,,,,,,,,,,,i,1,0.8369,0,43,43,6,1,他们,i,,,,,,,,,,,,,,,,,,,,,,,,,,,,,,,,,,,,,,,,,
,,,,,,,,,,,,,,1 程凯盈,001,2025-02-17_19h33.04.899,IAT(Formal),2021.2.3,Win32,60.24096386,,,,,,,,,,,,,,,e,1,0.4389,0,44,44,70,1,我,e,,,,,,,,,,,,,,,,,,,,,,,,,,,,,,,,,,,,,,,,,
,,,,,,,,,,,,,,1 程凯盈,001,2025-02-17_19h33.04.899,IAT(Formal),2021.2.3,Win32,60.24096386,,,,,,,,,,,,,,,i,1,0.6163,0,45,45,67,1,他的,i,,,,,,,,,,,,,,,,,,,,,,,,,,,,,,,,,,,,,,,,,
,,,,,,,,,,,,,,1 程凯盈,001,2025-02-17_19h33.04.899,IAT(Formal),2021.2.3,Win32,60.24096386,,,,,,,,,,,,,,,e,1,0.534,0,46,46,3,1,自己,e,,,,,,,,,,,,,,,,,,,,,,,,,,,,,,,,,,,,,,,,,
,,,,,,,,,,,,,,1 程凯盈,001,2025-02-17_19h33.04.899,IAT(Formal),2021.2.3,Win32,60.24096386,,,,,,,,,,,,,,,i,1,0.5493,0,47,47,49,1,下贱,i,,,,,,,,,,,,,,,,,,,,,,,,,,,,,,,,,,,,,,,,,
,,,,,,,,,,,,,,1 程凯盈,001,2025-02-17_19h33.04.899,IAT(Formal),2021.2.3,Win32,60.24096386,,,,,,,,,,,,,,,i,1,0.5611,0,48,48,37,1,傲慢,i,,,,,,,,,,,,,,,,,,,,,,,,,,,,,,,,,,,,,,,,,
,,,,,,,,,,,,,,1 程凯盈,001,2025-02-17_19h33.04.899,IAT(Formal),2021.2.3,Win32,60.24096386,,,,,,,,,,,,,,,i,1,0.5958,0,49,49,38,1,鲁莽,i,,,,,,,,,,,,,,,,,,,,,,,,,,,,,,,,,,,,,,,,,
,,,,,,,,,,,,,,1 程凯盈,001,2025-02-17_19h33.04.899,IAT(Formal),2021.2.3,Win32,60.24096386,,,,,,,,,,,,,,,i,1,0.7166,0,50,50,41,1,散漫,i,,,,,,,,,,,,,,,,,,,,,,,,,,,,,,,,,,,,,,,,,
,,,,,,,,,,,,,,1 程凯盈,001,2025-02-17_19h33.04.899,IAT(Formal),2021.2.3,Win32,60.24096386,,,,,,,,,,,,,,,e,1,0.5219,0,51,51,27,1,热情,e,,,,,,,,,,,,,,,,,,,,,,,,,,,,,,,,,,,,,,,,,
,,,,,,,,,,,,,,1 程凯盈,001,2025-02-17_19h33.04.899,IAT(Formal),2021.2.3,Win32,60.24096386,,,,,,,,,,,,,,,i,1,0.734,0,52,52,77,1,他的,i,,,,,,,,,,,,,,,,,,,,,,,,,,,,,,,,,,,,,,,,,
,,,,,,,,,,,,,,1 程凯盈,001,2025-02-17_19h33.04.899,IAT(Formal),2021.2.3,Win32,60.24096386,,,,,,,,,,,,,,,e,1,0.5315,0,53,53,23,1,公正,e,,,,,,,,,,,,,,,,,,,,,,,,,,,,,,,,,,,,,,,,,
,,,,,,,,,,,,,,1 程凯盈,001,2025-02-17_19h33.04.899,IAT(Formal),2021.2.3,Win32,60.24096386,,,,,,,,,,,,,,,i,1,0.5351,0,54,54,68,1,他人,i,,,,,,,,,,,,,,,,,,,,,,,,,,,,,,,,,,,,,,,,,
,,,,,,,,,,,,,,1 程凯盈,001,2025-02-17_19h33.04.899,IAT(Formal),2021.2.3,Win32,60.24096386,,,,,,,,,,,,,,,i,1,0.5197,0,55,55,9,1,其他,i,,,,,,,,,,,,,,,,,,,,,,,,,,,,,,,,,,,,,,,,,
,,,,,,,,,,,,,,1 程凯盈,001,2025-02-17_19h33.04.899,IAT(Formal),2021.2.3,Win32,60.24096386,,,,,,,,,,,,,,,e,1,0.6068,0,56,56,2,1,我们,e,,,,,,,,,,,,,,,,,,,,,,,,,,,,,,,,,,,,,,,,,
,,,,,,,,,,,,,,1 程凯盈,001,2025-02-17_19h33.04.899,IAT(Formal),2021.2.3,Win32,60.24096386,,,,,,,,,,,,,,,e,1,0.6011,0,57,57,24,1,朴实,e,,,,,,,,,,,,,,,,,,,,,,,,,,,,,,,,,,,,,,,,,
,,,,,,,,,,,,,,1 程凯盈,001,2025-02-17_19h33.04.899,IAT(Formal),2021.2.3,Win32,60.24096386,,,,,,,,,,,,,,,e,1,0.5045,0,58,58,11,1,崇高,e,,,,,,,,,,,,,,,,,,,,,,,,,,,,,,,,,,,,,,,,,
,,,,,,,,,,,,,,1 程凯盈,001,2025-02-17_19h33.04.899,IAT(Formal),2021.2.3,Win32,60.24096386,,,,,,,,,,,,,,,e,1,0.4057,0,59,59,63,1,自己,e,,,,,,,,,,,,,,,,,,,,,,,,,,,,,,,,,,,,,,,,,
,,,,,,,,,,,,,,1 程凯盈,001,2025-02-17_19h33.04.899,IAT(Formal),2021.2.3,Win32,60.24096386,,,,,,,,,,,,,,,e,1,0.4974,0,60,60,17,1,勇敢,e,,,,,,,,,,,,,,,,,,,,,,,,,,,,,,,,,,,,,,,,,
,,,,,,,,,,,,,,1 程凯盈,001,2025-02-17_19h33.04.899,IAT(Formal),2021.2.3,Win32,60.24096386,,,,,,,,,,,,,,,e,1,0.4321,0,61,61,71,1,我的,e,,,,,,,,,,,,,,,,,,,,,,,,,,,,,,,,,,,,,,,,,
,,,,,,,,,,,,,,1 程凯盈,001,2025-02-17_19h33.04.899,IAT(Formal),2021.2.3,Win32,60.24096386,,,,,,,,,,,,,,,e,0,0.4384,0,62,62,79,1,其他,i,,,,,,,,,,,,,,,,,,,,,,,,,,,,,,,,,,,,,,,,,
,,,,,,,,,,,,,,1 程凯盈,001,2025-02-17_19h33.04.899,IAT(Formal),2021.2.3,Win32,60.24096386,,,,,,,,,,,,,,,i,1,0.7934,0,63,63,45,1,猖狂,i,,,,,,,,,,,,,,,,,,,,,,,,,,,,,,,,,,,,,,,,,
,,,,,,,,,,,,,,1 程凯盈,001,2025-02-17_19h33.04.899,IAT(Formal),2021.2.3,Win32,60.24096386,,,,,,,,,,,,,,,i,1,0.74,0,64,64,31,1,虚伪,i,,,,,,,,,,,,,,,,,,,,,,,,,,,,,,,,,,,,,,,,,
,,,,,,,,,,,,,,1 程凯盈,001,2025-02-17_19h33.04.899,IAT(Formal),2021.2.3,Win32,60.24096386,,,,,,,,,,,,,,,i,1,0.7278,0,65,65,36,1,自卑,i,,,,,,,,,,,,,,,,,,,,,,,,,,,,,,,,,,,,,,,,,
,,,,,,,,,,,,,,1 程凯盈,001,2025-02-17_19h33.04.899,IAT(Formal),2021.2.3,Win32,60.24096386,,,,,,,,,,,,,,,e,1,0.4878,0,66,66,53,1,自己,e,,,,,,,,,,,,,,,,,,,,,,,,,,,,,,,,,,,,,,,,,
,,,,,,,,,,,,,,1 程凯盈,001,2025-02-17_19h33.04.899,IAT(Formal),2021.2.3,Win32,60.24096386,,,,,,,,,,,,,,,e,1,0.5342,0,67,67,10,1,优秀,e,,,,,,,,,,,,,,,,,,,,,,,,,,,,,,,,,,,,,,,,,
,,,,,,,,,,,,,,1 程凯盈,001,2025-02-17_19h33.04.899,IAT(Formal),2021.2.3,Win32,60.24096386,,,,,,,,,,,,,,,e,1,0.4837,0,68,68,19,1,机智,e,,,,,,,,,,,,,,,,,,,,,,,,,,,,,,,,,,,,,,,,,
,,,,,,,,,,,,,,1 程凯盈,001,2025-02-17_19h33.04.899,IAT(Formal),2021.2.3,Win32,60.24096386,,,,,,,,,,,,,,,i,1,0.5284,0,69,69,55,1,他,i,,,,,,,,,,,,,,,,,,,,,,,,,,,,,,,,,,,,,,,,,
,,,,,,,,,,,,,,1 程凯盈,001,2025-02-17_19h33.04.899,IAT(Formal),2021.2.3,Win32,60.24096386,,,,,,,,,,,,,,,i,0,0.5662,0,70,70,21,1,稳重,e,,,,,,,,,,,,,,,,,,,,,,,,,,,,,,,,,,,,,,,,,
,,,,,,,,,,,,,,1 程凯盈,001,2025-02-17_19h33.04.899,IAT(Formal),2021.2.3,Win32,60.24096386,,,,,,,,,,,,,,,e,1,0.5909,0,71,71,52,1,我们,e,,,,,,,,,,,,,,,,,,,,,,,,,,,,,,,,,,,,,,,,,
,,,,,,,,,,,,,,1 程凯盈,001,2025-02-17_19h33.04.899,IAT(Formal),2021.2.3,Win32,60.24096386,,,,,,,,,,,,,,,e,1,0.6638,0,72,72,4,1,俺,e,,,,,,,,,,,,,,,,,,,,,,,,,,,,,,,,,,,,,,,,,
,,,,,,,,,,,,,,1 程凯盈,001,2025-02-17_19h33.04.899,IAT(Formal),2021.2.3,Win32,60.24096386,,,,,,,,,,,,,,,i,1,0.6661,0,73,73,40,1,执拗,i,,,,,,,,,,,,,,,,,,,,,,,,,,,,,,,,,,,,,,,,,
,,,,,,,,,,,,,,1 程凯盈,001,2025-02-17_19h33.04.899,IAT(Formal),2021.2.3,Win32,60.24096386,,,,,,,,,,,,,,,e,1,0.5354,0,74,74,64,1,俺,e,,,,,,,,,,,,,,,,,,,,,,,,,,,,,,,,,,,,,,,,,
,,,,,,,,,,,,,,1 程凯盈,001,2025-02-17_19h33.04.899,IAT(Formal),2021.2.3,Win32,60.24096386,,,,,,,,,,,,,,,e,1,0.6348,0,75,75,16,1,正直,e,,,,,,,,,,,,,,,,,,,,,,,,,,,,,,,,,,,,,,,,,
,,,,,,,,,,,,,,1 程凯盈,001,2025-02-17_19h33.04.899,IAT(Formal),2021.2.3,Win32,60.24096386,,,,,,,,,,,,,,,i,1,0.9397,0,76,76,66,1,他们,i,,,,,,,,,,,,,,,,,,,,,,,,,,,,,,,,,,,,,,,,,
,,,,,,,,,,,,,,1 程凯盈,001,2025-02-17_19h33.04.899,IAT(Formal),2021.2.3,Win32,60.24096386,,,,,,,,,,,,,,,e,1,0.5619,0,77,77,18,1,勤奋,e,,,,,,,,,,,,,,,,,,,,,,,,,,,,,,,,,,,,,,,,,
,,,,,,,,,,,,,,1 程凯盈,001,2025-02-17_19h33.04.899,IAT(Formal),2021.2.3,Win32,60.24096386,,,,,,,,,,,,,,,i,1,0.6387,0,78,78,78,1,他人,i,,,,,,,,,,,,,,,,,,,,,,,,,,,,,,,,,,,,,,,,,
,,,,,,,,,,,,,,1 程凯盈,001,2025-02-17_19h33.04.899,IAT(Formal),2021.2.3,Win32,60.24096386,,,,,,,,,,,,,,,i,1,0.5403,0,79,79,46,1,野蛮,i,,,,,,,,,,,,,,,,,,,,,,,,,,,,,,,,,,,,,,,,,
,,,,,,,,,,,,,,1 程凯盈,001,2025-02-17_19h33.04.899,IAT(Formal),2021.2.3,Win32,60.24096386,,,,,,,,,,,,,,,i,1,0.6207,,,,,,轻率,i,space,62.4657,0,0,0,48,1,,,,,,,,,,,,,,,,,,,,,,,,,,,,,,,,,,
,,,,,,,,,,,,,,1 程凯盈,001,2025-02-17_19h33.04.899,IAT(Formal),2021.2.3,Win32,60.24096386,,,,,,,,,,,,,,,e,1,0.582,,,,,,细腻,e,,,0,1,1,25,1,,,,,,,,,,,,,,,,,,,,,,,,,,,,,,,,,,
,,,,,,,,,,,,,,1 程凯盈,001,2025-02-17_19h33.04.899,IAT(Formal),2021.2.3,Win32,60.24096386,,,,,,,,,,,,,,,e,1,0.5931,,,,,,乐观,e,,,0,2,2,14,1,,,,,,,,,,,,,,,,,,,,,,,,,,,,,,,,,,
,,,,,,,,,,,,,,1 程凯盈,001,2025-02-17_19h33.04.899,IAT(Formal),2021.2.3,Win32,60.24096386,,,,,,,,,,,,,,,e,1,0.6014,,,,,,俺,e,,,0,3,3,64,1,,,,,,,,,,,,,,,,,,,,,,,,,,,,,,,,,,
,,,,,,,,,,,,,,1 程凯盈,001,2025-02-17_19h33.04.899,IAT(Formal),2021.2.3,Win32,60.24096386,,,,,,,,,,,,,,,e,1,0.5539,,,,,,崇高,e,,,0,4,4,11,1,,,,,,,,,,,,,,,,,,,,,,,,,,,,,,,,,,
,,,,,,,,,,,,,,1 程凯盈,001,2025-02-17_19h33.04.899,IAT(Formal),2021.2.3,Win32,60.24096386,,,,,,,,,,,,,,,i,1,0.5786,,,,,,他,i,,,0,5,5,65,1,,,,,,,,,,,,,,,,,,,,,,,,,,,,,,,,,,
,,,,,,,,,,,,,,1 程凯盈,001,2025-02-17_19h33.04.899,IAT(Formal),2021.2.3,Win32,60.24096386,,,,,,,,,,,,,,,e,1,0.5239,,,,,,我们,e,,,0,6,6,52,1,,,,,,,,,,,,,,,,,,,,,,,,,,,,,,,,,,
,,,,,,,,,,,,,,1 程凯盈,001,2025-02-17_19h33.04.899,IAT(Formal),2021.2.3,Win32,60.24096386,,,,,,,,,,,,,,,e,1,0.4053,,,,,,我,e,,,0,7,7,60,1,,,,,,,,,,,,,,,,,,,,,,,,,,,,,,,,,,
,,,,,,,,,,,,,,1 程凯盈,001,2025-02-17_19h33.04.899,IAT(Formal),2021.2.3,Win32,60.24096386,,,,,,,,,,,,,,,e,1,0.4093,,,,,,自己,e,,,0,8,8,73,1,,,,,,,,,,,,,,,,,,,,,,,,,,,,,,,,,,
,,,,,,,,,,,,,,1 程凯盈,001,2025-02-17_19h33.04.899,IAT(Formal),2021.2.3,Win32,60.24096386,,,,,,,,,,,,,,,e,1,0.4066,,,,,,我的,e,,,0,9,9,71,1,,,,,,,,,,,,,,,,,,,,,,,,,,,,,,,,,,
,,,,,,,,,,,,,,1 程凯盈,001,2025-02-17_19h33.04.899,IAT(Formal),2021.2.3,Win32,60.24096386,,,,,,,,,,,,,,,i,1,0.5276,,,,,,其他,i,,,0,10,10,9,1,,,,,,,,,,,,,,,,,,,,,,,,,,,,,,,,,,
,,,,,,,,,,,,,,1 程凯盈,001,2025-02-17_19h33.04.899,IAT(Formal),2021.2.3,Win32,60.24096386,,,,,,,,,,,,,,,i,1,0.6744,,,,,,他,i,,,0,11,11,5,1,,,,,,,,,,,,,,,,,,,,,,,,,,,,,,,,,,
,,,,,,,,,,,,,,1 程凯盈,001,2025-02-17_19h33.04.899,IAT(Formal),2021.2.3,Win32,60.24096386,,,,,,,,,,,,,,,e,1,0.5518,,,,,,公正,e,,,0,12,12,23,1,,,,,,,,,,,,,,,,,,,,,,,,,,,,,,,,,,
,,,,,,,,,,,,,,1 程凯盈,001,2025-02-17_19h33.04.899,IAT(Formal),2021.2.3,Win32,60.24096386,,,,,,,,,,,,,,,e,1,0.5279,,,,,,勤奋,e,,,0,13,13,18,1,,,,,,,,,,,,,,,,,,,,,,,,,,,,,,,,,,
,,,,,,,,,,,,,,1 程凯盈,001,2025-02-17_19h33.04.899,IAT(Formal),2021.2.3,Win32,60.24096386,,,,,,,,,,,,,,,e,1,0.4675,,,,,,我们,e,,,0,14,14,2,1,,,,,,,,,,,,,,,,,,,,,,,,,,,,,,,,,,
,,,,,,,,,,,,,,1 程凯盈,001,2025-02-17_19h33.04.899,IAT(Formal),2021.2.3,Win32,60.24096386,,,,,,,,,,,,,,,i,1,0.4734,,,,,,他,i,,,0,15,15,55,1,,,,,,,,,,,,,,,,,,,,,,,,,,,,,,,,,,
,,,,,,,,,,,,,,1 程凯盈,001,2025-02-17_19h33.04.899,IAT(Formal),2021.2.3,Win32,60.24096386,,,,,,,,,,,,,,,i,1,0.5307,,,,,,鲁莽,i,,,0,16,16,38,1,,,,,,,,,,,,,,,,,,,,,,,,,,,,,,,,,,
,,,,,,,,,,,,,,1 程凯盈,001,2025-02-17_19h33.04.899,IAT(Formal),2021.2.3,Win32,60.24096386,,,,,,,,,,,,,,,e,1,0.5772,,,,,,诚实,e,,,0,17,17,15,1,,,,,,,,,,,,,,,,,,,,,,,,,,,,,,,,,,
,,,,,,,,,,,,,,1 程凯盈,001,2025-02-17_19h33.04.899,IAT(Formal),2021.2.3,Win32,60.24096386,,,,,,,,,,,,,,,e,1,0.5378,,,,,,热情,e,,,0,18,18,27,1,,,,,,,,,,,,,,,,,,,,,,,,,,,,,,,,,,
,,,,,,,,,,,,,,1 程凯盈,001,2025-02-17_19h33.04.899,IAT(Formal),2021.2.3,Win32,60.24096386,,,,,,,,,,,,,,,e,1,0.4693,,,,,,机智,e,,,0,19,19,19,1,,,,,,,,,,,,,,,,,,,,,,,,,,,,,,,,,,
,,,,,,,,,,,,,,1 程凯盈,001,2025-02-17_19h33.04.899,IAT(Formal),2021.2.3,Win32,60.24096386,,,,,,,,,,,,,,,e,1,0.4395,,,,,,冷静,e,,,0,20,20,26,1,,,,,,,,,,,,,,,,,,,,,,,,,,,,,,,,,,
,,,,,,,,,,,,,,1 程凯盈,001,2025-02-17_19h33.04.899,IAT(Formal),2021.2.3,Win32,60.24096386,,,,,,,,,,,,,,,i,1,0.5912,,,,,,他的,i,,,0,21,21,67,1,,,,,,,,,,,,,,,,,,,,,,,,,,,,,,,,,,
,,,,,,,,,,,,,,1 程凯盈,001,2025-02-17_19h33.04.899,IAT(Formal),2021.2.3,Win32,60.24096386,,,,,,,,,,,,,,,e,1,0.532,,,,,,俺,e,,,0,22,22,4,1,,,,,,,,,,,,,,,,,,,,,,,,,,,,,,,,,,
,,,,,,,,,,,,,,1 程凯盈,001,2025-02-17_19h33.04.899,IAT(Formal),2021.2.3,Win32,60.24096386,,,,,,,,,,,,,,,i,1,0.5503,,,,,,暴躁,i,,,0,23,23,44,1,,,,,,,,,,,,,,,,,,,,,,,,,,,,,,,,,,
,,,,,,,,,,,,,,1 程凯盈,001,2025-02-17_19h33.04.899,IAT(Formal),2021.2.3,Win32,60.24096386,,,,,,,,,,,,,,,i,1,0.5255,,,,,,固执,i,,,0,24,24,47,1,,,,,,,,,,,,,,,,,,,,,,,,,,,,,,,,,,
,,,,,,,,,,,,,,1 程凯盈,001,2025-02-17_19h33.04.899,IAT(Formal),2021.2.3,Win32,60.24096386,,,,,,,,,,,,,,,e,1,0.4758,,,,,,我的,e,,,0,25,25,1,1,,,,,,,,,,,,,,,,,,,,,,,,,,,,,,,,,,
,,,,,,,,,,,,,,1 程凯盈,001,2025-02-17_19h33.04.899,IAT(Formal),2021.2.3,Win32,60.24096386,,,,,,,,,,,,,,,i,1,0.4906,,,,,,他的,i,,,0,26,26,77,1,,,,,,,,,,,,,,,,,,,,,,,,,,,,,,,,,,
,,,,,,,,,,,,,,1 程凯盈,001,2025-02-17_19h33.04.899,IAT(Formal),2021.2.3,Win32,60.24096386,,,,,,,,,,,,,,,i,1,0.367,,,,,,他的,i,,,0,27,27,57,1,,,,,,,,,,,,,,,,,,,,,,,,,,,,,,,,,,
,,,,,,,,,,,,,,1 程凯盈,001,2025-02-17_19h33.04.899,IAT(Formal),2021.2.3,Win32,60.24096386,,,,,,,,,,,,,,,i,1,0.3679,,,,,,他人,i,,,0,28,28,58,1,,,,,,,,,,,,,,,,,,,,,,,,,,,,,,,,,,
,,,,,,,,,,,,,,1 程凯盈,001,2025-02-17_19h33.04.899,IAT(Formal),2021.2.3,Win32,60.24096386,,,,,,,,,,,,,,,i,1,0.4194,,,,,,他的,i,,,0,29,29,7,1,,,,,,,,,,,,,,,,,,,,,,,,,,,,,,,,,,
,,,,,,,,,,,,,,1 程凯盈,001,2025-02-17_19h33.04.899,IAT(Formal),2021.2.3,Win32,60.24096386,,,,,,,,,,,,,,,e,1,0.5345,,,,,,我,e,,,0,30,30,50,1,,,,,,,,,,,,,,,,,,,,,,,,,,,,,,,,,,
,,,,,,,,,,,,,,1 程凯盈,001,2025-02-17_19h33.04.899,IAT(Formal),2021.2.3,Win32,60.24096386,,,,,,,,,,,,,,,i,1,0.4992,,,,,,他人,i,,,0,31,31,68,1,,,,,,,,,,,,,,,,,,,,,,,,,,,,,,,,,,
,,,,,,,,,,,,,,1 程凯盈,001,2025-02-17_19h33.04.899,IAT(Formal),2021.2.3,Win32,60.24096386,,,,,,,,,,,,,,,e,1,0.553,,,,,,优秀,e,,,0,32,32,10,1,,,,,,,,,,,,,,,,,,,,,,,,,,,,,,,,,,
,,,,,,,,,,,,,,1 程凯盈,001,2025-02-17_19h33.04.899,IAT(Formal),2021.2.3,Win32,60.24096386,,,,,,,,,,,,,,,i,0,0.5118,,,,,,俺,e,,,0,33,33,54,1,,,,,,,,,,,,,,,,,,,,,,,,,,,,,,,,,,
,,,,,,,,,,,,,,1 程凯盈,001,2025-02-17_19h33.04.899,IAT(Formal),2021.2.3,Win32,60.24096386,,,,,,,,,,,,,,,e,1,0.4575,,,,,,我,e,,,0,34,34,0,1,,,,,,,,,,,,,,,,,,,,,,,,,,,,,,,,,,
,,,,,,,,,,,,,,1 程凯盈,001,2025-02-17_19h33.04.899,IAT(Formal),2021.2.3,Win32,60.24096386,,,,,,,,,,,,,,,i,1,1.0474,,,,,,自私,i,,,0,35,35,43,1,,,,,,,,,,,,,,,,,,,,,,,,,,,,,,,,,,
,,,,,,,,,,,,,,1 程凯盈,001,2025-02-17_19h33.04.899,IAT(Formal),2021.2.3,Win32,60.24096386,,,,,,,,,,,,,,,i,1,0.4643,,,,,,散漫,i,,,0,36,36,41,1,,,,,,,,,,,,,,,,,,,,,,,,,,,,,,,,,,
,,,,,,,,,,,,,,1 程凯盈,001,2025-02-17_19h33.04.899,IAT(Formal),2021.2.3,Win32,60.24096386,,,,,,,,,,,,,,,e,1,0.5233,,,,,,朴实,e,,,0,37,37,24,1,,,,,,,,,,,,,,,,,,,,,,,,,,,,,,,,,,
,,,,,,,,,,,,,,1 程凯盈,001,2025-02-17_19h33.04.899,IAT(Formal),2021.2.3,Win32,60.24096386,,,,,,,,,,,,,,,i,1,0.5296,,,,,,冒失,i,,,0,38,38,39,1,,,,,,,,,,,,,,,,,,,,,,,,,,,,,,,,,,
,,,,,,,,,,,,,,1 程凯盈,001,2025-02-17_19h33.04.899,IAT(Formal),2021.2.3,Win32,60.24096386,,,,,,,,,,,,,,,i,1,0.5238,,,,,,他们,i,,,0,39,39,6,1,,,,,,,,,,,,,,,,,,,,,,,,,,,,,,,,,,
,,,,,,,,,,,,,,1 程凯盈,001,2025-02-17_19h33.04.899,IAT(Formal),2021.2.3,Win32,60.24096386,,,,,,,,,,,,,,,e,1,0.4586,,,,,,我,e,,,0,40,40,70,1,,,,,,,,,,,,,,,,,,,,,,,,,,,,,,,,,,
,,,,,,,,,,,,,,1 程凯盈,001,2025-02-17_19h33.04.899,IAT(Formal),2021.2.3,Win32,60.24096386,,,,,,,,,,,,,,,i,1,0.4984,,,,,,他人,i,,,0,41,41,78,1,,,,,,,,,,,,,,,,,,,,,,,,,,,,,,,,,,
,,,,,,,,,,,,,,1 程凯盈,001,2025-02-17_19h33.04.899,IAT(Formal),2021.2.3,Win32,60.24096386,,,,,,,,,,,,,,,i,1,0.5098,,,,,,其他,i,,,0,42,42,59,1,,,,,,,,,,,,,,,,,,,,,,,,,,,,,,,,,,
,,,,,,,,,,,,,,1 程凯盈,001,2025-02-17_19h33.04.899,IAT(Formal),2021.2.3,Win32,60.24096386,,,,,,,,,,,,,,,e,1,0.6009,,,,,,我的,e,,,0,43,43,61,1,,,,,,,,,,,,,,,,,,,,,,,,,,,,,,,,,,
,,,,,,,,,,,,,,1 程凯盈,001,2025-02-17_19h33.04.899,IAT(Formal),2021.2.3,Win32,60.24096386,,,,,,,,,,,,,,,e,1,0.5992,,,,,,我的,e,,,0,44,44,51,1,,,,,,,,,,,,,,,,,,,,,,,,,,,,,,,,,,
,,,,,,,,,,,,,,1 程凯盈,001,2025-02-17_19h33.04.899,IAT(Formal),2021.2.3,Win32,60.24096386,,,,,,,,,,,,,,,i,1,0.8519,,,,,,刻薄,i,,,0,45,45,33,1,,,,,,,,,,,,,,,,,,,,,,,,,,,,,,,,,,
,,,,,,,,,,,,,,1 程凯盈,001,2025-02-17_19h33.04.899,IAT(Formal),2021.2.3,Win32,60.24096386,,,,,,,,,,,,,,,i,1,0.5366,,,,,,他,i,,,0,46,46,75,1,,,,,,,,,,,,,,,,,,,,,,,,,,,,,,,,,,
,,,,,,,,,,,,,,1 程凯盈,001,2025-02-17_19h33.04.899,IAT(Formal),2021.2.3,Win32,60.24096386,,,,,,,,,,,,,,,i,1,0.5186,,,,,,他们,i,,,0,47,47,56,1,,,,,,,,,,,,,,,,,,,,,,,,,,,,,,,,,,
,,,,,,,,,,,,,,1 程凯盈,001,2025-02-17_19h33.04.899,IAT(Formal),2021.2.3,Win32,60.24096386,,,,,,,,,,,,,,,i,1,0.4741,,,,,,卑鄙,i,,,0,48,48,30,1,,,,,,,,,,,,,,,,,,,,,,,,,,,,,,,,,,
,,,,,,,,,,,,,,1 程凯盈,001,2025-02-17_19h33.04.899,IAT(Formal),2021.2.3,Win32,60.24096386,,,,,,,,,,,,,,,i,1,0.531,,,,,,执拗,i,,,0,49,49,40,1,,,,,,,,,,,,,,,,,,,,,,,,,,,,,,,,,,
,,,,,,,,,,,,,,1 程凯盈,001,2025-02-17_19h33.04.899,IAT(Formal),2021.2.3,Win32,60.24096386,,,,,,,,,,,,,,,i,1,0.5073,,,,,,下贱,i,,,0,50,50,49,1,,,,,,,,,,,,,,,,,,,,,,,,,,,,,,,,,,
,,,,,,,,,,,,,,1 程凯盈,001,2025-02-17_19h33.04.899,IAT(Formal),2021.2.3,Win32,60.24096386,,,,,,,,,,,,,,,e,1,0.6309,,,,,,活泼,e,,,0,51,51,28,1,,,,,,,,,,,,,,,,,,,,,,,,,,,,,,,,,,
,,,,,,,,,,,,,,1 程凯盈,001,2025-02-17_19h33.04.899,IAT(Formal),2021.2.3,Win32,60.24096386,,,,,,,,,,,,,,,i,1,0.5799,,,,,,他们,i,,,0,52,52,66,1,,,,,,,,,,,,,,,,,,,,,,,,,,,,,,,,,,
,,,,,,,,,,,,,,1 程凯盈,001,2025-02-17_19h33.04.899,IAT(Formal),2021.2.3,Win32,60.24096386,,,,,,,,,,,,,,,e,1,0.5882,,,,,,自己,e,,,0,53,53,53,1,,,,,,,,,,,,,,,,,,,,,,,,,,,,,,,,,,
,,,,,,,,,,,,,,1 程凯盈,001,2025-02-17_19h33.04.899,IAT(Formal),2021.2.3,Win32,60.24096386,,,,,,,,,,,,,,,e,1,0.5317,,,,,,杰出,e,,,0,54,54,13,1,,,,,,,,,,,,,,,,,,,,,,,,,,,,,,,,,,
,,,,,,,,,,,,,,1 程凯盈,001,2025-02-17_19h33.04.899,IAT(Formal),2021.2.3,Win32,60.24096386,,,,,,,,,,,,,,,e,1,0.5098,,,,,,俺,e,,,0,55,55,74,1,,,,,,,,,,,,,,,,,,,,,,,,,,,,,,,,,,
,,,,,,,,,,,,,,1 程凯盈,001,2025-02-17_19h33.04.899,IAT(Formal),2021.2.3,Win32,60.24096386,,,,,,,,,,,,,,,i,1,0.8427,,,,,,他们,i,,,0,56,56,76,1,,,,,,,,,,,,,,,,,,,,,,,,,,,,,,,,,,
,,,,,,,,,,,,,,1 程凯盈,001,2025-02-17_19h33.04.899,IAT(Formal),2021.2.3,Win32,60.24096386,,,,,,,,,,,,,,,i,1,0.5148,,,,,,野蛮,i,,,0,57,57,46,1,,,,,,,,,,,,,,,,,,,,,,,,,,,,,,,,,,
,,,,,,,,,,,,,,1 程凯盈,001,2025-02-17_19h33.04.899,IAT(Formal),2021.2.3,Win32,60.24096386,,,,,,,,,,,,,,,e,1,0.5506,,,,,,勇敢,e,,,0,58,58,17,1,,,,,,,,,,,,,,,,,,,,,,,,,,,,,,,,,,
,,,,,,,,,,,,,,1 程凯盈,001,2025-02-17_19h33.04.899,IAT(Formal),2021.2.3,Win32,60.24096386,,,,,,,,,,,,,,,e,0,0.5374,,,,,,悲观,i,,,0,59,59,34,1,,,,,,,,,,,,,,,,,,,,,,,,,,,,,,,,,,
,,,,,,,,,,,,,,1 程凯盈,001,2025-02-17_19h33.04.899,IAT(Formal),2021.2.3,Win32,60.24096386,,,,,,,,,,,,,,,e,1,0.5511,,,,,,自己,e,,,0,60,60,63,1,,,,,,,,,,,,,,,,,,,,,,,,,,,,,,,,,,
,,,,,,,,,,,,,,1 程凯盈,001,2025-02-17_19h33.04.899,IAT(Formal),2021.2.3,Win32,60.24096386,,,,,,,,,,,,,,,i,1,0.5698,,,,,,自卑,i,,,0,61,61,36,1,,,,,,,,,,,,,,,,,,,,,,,,,,,,,,,,,,
,,,,,,,,,,,,,,1 程凯盈,001,2025-02-17_19h33.04.899,IAT(Formal),2021.2.3,Win32,60.24096386,,,,,,,,,,,,,,,e,1,0.5868,,,,,,认真,e,,,0,62,62,20,1,,,,,,,,,,,,,,,,,,,,,,,,,,,,,,,,,,
,,,,,,,,,,,,,,1 程凯盈,001,2025-02-17_19h33.04.899,IAT(Formal),2021.2.3,Win32,60.24096386,,,,,,,,,,,,,,,e,1,0.9525,,,,,,无私,e,,,0,63,63,22,1,,,,,,,,,,,,,,,,,,,,,,,,,,,,,,,,,,
,,,,,,,,,,,,,,1 程凯盈,001,2025-02-17_19h33.04.899,IAT(Formal),2021.2.3,Win32,60.24096386,,,,,,,,,,,,,,,e,1,0.5132,,,,,,我们,e,,,0,64,64,62,1,,,,,,,,,,,,,,,,,,,,,,,,,,,,,,,,,,
,,,,,,,,,,,,,,1 程凯盈,001,2025-02-17_19h33.04.899,IAT(Formal),2021.2.3,Win32,60.24096386,,,,,,,,,,,,,,,i,1,0.5382,,,,,,其他,i,,,0,65,65,79,1,,,,,,,,,,,,,,,,,,,,,,,,,,,,,,,,,,
,,,,,,,,,,,,,,1 程凯盈,001,2025-02-17_19h33.04.899,IAT(Formal),2021.2.3,Win32,60.24096386,,,,,,,,,,,,,,,i,1,0.402,,,,,,其他,i,,,0,66,66,69,1,,,,,,,,,,,,,,,,,,,,,,,,,,,,,,,,,,
,,,,,,,,,,,,,,1 程凯盈,001,2025-02-17_19h33.04.899,IAT(Formal),2021.2.3,Win32,60.24096386,,,,,,,,,,,,,,,i,1,0.5633,,,,,,愚蠢,i,,,0,67,67,32,1,,,,,,,,,,,,,,,,,,,,,,,,,,,,,,,,,,
,,,,,,,,,,,,,,1 程凯盈,001,2025-02-17_19h33.04.899,IAT(Formal),2021.2.3,Win32,60.24096386,,,,,,,,,,,,,,,e,1,0.5349,,,,,,聪明,e,,,0,68,68,12,1,,,,,,,,,,,,,,,,,,,,,,,,,,,,,,,,,,
,,,,,,,,,,,,,,1 程凯盈,001,2025-02-17_19h33.04.899,IAT(Formal),2021.2.3,Win32,60.24096386,,,,,,,,,,,,,,,e,1,0.4788,,,,,,正直,e,,,0,69,69,16,1,,,,,,,,,,,,,,,,,,,,,,,,,,,,,,,,,,
,,,,,,,,,,,,,,1 程凯盈,001,2025-02-17_19h33.04.899,IAT(Formal),2021.2.3,Win32,60.24096386,,,,,,,,,,,,,,,e,1,0.6686,,,,,,我们,e,,,0,70,70,72,1,,,,,,,,,,,,,,,,,,,,,,,,,,,,,,,,,,
,,,,,,,,,,,,,,1 程凯盈,001,2025-02-17_19h33.04.899,IAT(Formal),2021.2.3,Win32,60.24096386,,,,,,,,,,,,,,,i,1,0.5835,,,,,,虚伪,i,,,0,71,71,31,1,,,,,,,,,,,,,,,,,,,,,,,,,,,,,,,,,,
,,,,,,,,,,,,,,1 程凯盈,001,2025-02-17_19h33.04.899,IAT(Formal),2021.2.3,Win32,60.24096386,,,,,,,,,,,,,,,i,1,0.5869,,,,,,猖狂,i,,,0,72,72,45,1,,,,,,,,,,,,,,,,,,,,,,,,,,,,,,,,,,
,,,,,,,,,,,,,,1 程凯盈,001,2025-02-17_19h33.04.899,IAT(Formal),2021.2.3,Win32,60.24096386,,,,,,,,,,,,,,,i,1,0.958,,,,,,凶狠,i,,,0,73,73,42,1,,,,,,,,,,,,,,,,,,,,,,,,,,,,,,,,,,
,,,,,,,,,,,,,,1 程凯盈,001,2025-02-17_19h33.04.899,IAT(Formal),2021.2.3,Win32,60.24096386,,,,,,,,,,,,,,,e,1,0.8067,,,,,,自己,e,,,0,74,74,3,1,,,,,,,,,,,,,,,,,,,,,,,,,,,,,,,,,,
,,,,,,,,,,,,,,1 程凯盈,001,2025-02-17_19h33.04.899,IAT(Formal),2021.2.3,Win32,60.24096386,,,,,,,,,,,,,,,e,1,0.5314,,,,,,稳重,e,,,0,75,75,21,1,,,,,,,,,,,,,,,,,,,,,,,,,,,,,,,,,,
,,,,,,,,,,,,,,1 程凯盈,001,2025-02-17_19h33.04.899,IAT(Formal),2021.2.3,Win32,60.24096386,,,,,,,,,,,,,,,i,1,0.5557,,,,,,他人,i,,,0,76,76,8,1,,,,,,,,,,,,,,,,,,,,,,,,,,,,,,,,,,
,,,,,,,,,,,,,,1 程凯盈,001,2025-02-17_19h33.04.899,IAT(Formal),2021.2.3,Win32,60.24096386,,,,,,,,,,,,,,,i,1,0.6053,,,,,,傲慢,i,,,0,77,77,37,1,,,,,,,,,,,,,,,,,,,,,,,,,,,,,,,,,,
,,,,,,,,,,,,,,1 程凯盈,001,2025-02-17_19h33.04.899,IAT(Formal),2021.2.3,Win32,60.24096386,,,,,,,,,,,,,,,i,1,0.922,,,,,,消极,i,,,0,78,78,35,1,,,,,,,,,,,,,,,,,,,,,,,,,,,,,,,,,,
,,,,,,,,,,,,,,1 程凯盈,001,2025-02-17_19h33.04.899,IAT(Formal),2021.2.3,Win32,60.24096386,,,,,,,,,,,,,,,e,1,0.7306,,,,,,诚恳,e,,,0,79,79,29,1,,,,,,,,,,,,,,,,,,,,,,,,,,,,,,,,,,
,,,,,,,,,,,,,,1 程凯盈,001,2025-02-17_19h33.04.899,IAT(Formal),2021.2.3,Win32,60.24096386,,,,,,,,,,,,,,,e,1,0.5885,,,,,,细腻,e,,,1,0,80,25,1,,,,,,,,,,,,,,,,,,,,,,,,,,,,,,,,,,
,,,,,,,,,,,,,,1 程凯盈,001,2025-02-17_19h33.04.899,IAT(Formal),2021.2.3,Win32,60.24096386,,,,,,,,,,,,,,,i,1,0.5245,,,,,,他的,i,,,1,1,81,57,1,,,,,,,,,,,,,,,,,,,,,,,,,,,,,,,,,,
,,,,,,,,,,,,,,1 程凯盈,001,2025-02-17_19h33.04.899,IAT(Formal),2021.2.3,Win32,60.24096386,,,,,,,,,,,,,,,i,1,0.514,,,,,,其他,i,,,1,2,82,79,1,,,,,,,,,,,,,,,,,,,,,,,,,,,,,,,,,,
,,,,,,,,,,,,,,1 程凯盈,001,2025-02-17_19h33.04.899,IAT(Formal),2021.2.3,Win32,60.24096386,,,,,,,,,,,,,,,e,1,0.5924,,,,,,乐观,e,,,1,3,83,14,1,,,,,,,,,,,,,,,,,,,,,,,,,,,,,,,,,,
,,,,,,,,,,,,,,1 程凯盈,001,2025-02-17_19h33.04.899,IAT(Formal),2021.2.3,Win32,60.24096386,,,,,,,,,,,,,,,e,1,0.5013,,,,,,我,e,,,1,4,84,0,1,,,,,,,,,,,,,,,,,,,,,,,,,,,,,,,,,,
,,,,,,,,,,,,,,1 程凯盈,001,2025-02-17_19h33.04.899,IAT(Formal),2021.2.3,Win32,60.24096386,,,,,,,,,,,,,,,e,1,0.54,,,,,,机智,e,,,1,5,85,19,1,,,,,,,,,,,,,,,,,,,,,,,,,,,,,,,,,,
,,,,,,,,,,,,,,1 程凯盈,001,2025-02-17_19h33.04.899,IAT(Formal),2021.2.3,Win32,60.24096386,,,,,,,,,,,,,,,e,1,0.4725,,,,,,我的,e,,,1,6,86,51,1,,,,,,,,,,,,,,,,,,,,,,,,,,,,,,,,,,
,,,,,,,,,,,,,,1 程凯盈,001,2025-02-17_19h33.04.899,IAT(Formal),2021.2.3,Win32,60.24096386,,,,,,,,,,,,,,,i,1,0.5829,,,,,,自私,i,,,1,7,87,43,1,,,,,,,,,,,,,,,,,,,,,,,,,,,,,,,,,,
,,,,,,,,,,,,,,1 程凯盈,001,2025-02-17_19h33.04.899,IAT(Formal),2021.2.3,Win32,60.24096386,,,,,,,,,,,,,,,e,1,0.4381,,,,,,我们,e,,,1,8,88,2,1,,,,,,,,,,,,,,,,,,,,,,,,,,,,,,,,,,
,,,,,,,,,,,,,,1 程凯盈,001,2025-02-17_19h33.04.899,IAT(Formal),2021.2.3,Win32,60.24096386,,,,,,,,,,,,,,,e,1,0.4154,,,,,,我的,e,,,1,9,89,61,1,,,,,,,,,,,,,,,,,,,,,,,,,,,,,,,,,,
,,,,,,,,,,,,,,1 程凯盈,001,2025-02-17_19h33.04.899,IAT(Formal),2021.2.3,Win32,60.24096386,,,,,,,,,,,,,,,i,1,0.5662,,,,,,他,i,,,1,10,90,55,1,,,,,,,,,,,,,,,,,,,,,,,,,,,,,,,,,,
,,,,,,,,,,,,,,1 程凯盈,001,2025-02-17_19h33.04.899,IAT(Formal),2021.2.3,Win32,60.24096386,,,,,,,,,,,,,,,i,1,0.5003,,,,,,傲慢,i,,,1,11,91,37,1,,,,,,,,,,,,,,,,,,,,,,,,,,,,,,,,,,
,,,,,,,,,,,,,,1 程凯盈,001,2025-02-17_19h33.04.899,IAT(Formal),2021.2.3,Win32,60.24096386,,,,,,,,,,,,,,,e,1,0.5316,,,,,,我的,e,,,1,12,92,1,1,,,,,,,,,,,,,,,,,,,,,,,,,,,,,,,,,,
,,,,,,,,,,,,,,1 程凯盈,001,2025-02-17_19h33.04.899,IAT(Formal),2021.2.3,Win32,60.24096386,,,,,,,,,,,,,,,e,1,0.7014,,,,,,公正,e,,,1,13,93,23,1,,,,,,,,,,,,,,,,,,,,,,,,,,,,,,,,,,
,,,,,,,,,,,,,,1 程凯盈,001,2025-02-17_19h33.04.899,IAT(Formal),2021.2.3,Win32,60.24096386,,,,,,,,,,,,,,,i,1,0.5014,,,,,,他们,i,,,1,14,94,6,1,,,,,,,,,,,,,,,,,,,,,,,,,,,,,,,,,,
,,,,,,,,,,,,,,1 程凯盈,001,2025-02-17_19h33.04.899,IAT(Formal),2021.2.3,Win32,60.24096386,,,,,,,,,,,,,,,i,1,0.6168,,,,,,虚伪,i,,,1,15,95,31,1,,,,,,,,,,,,,,,,,,,,,,,,,,,,,,,,,,
,,,,,,,,,,,,,,1 程凯盈,001,2025-02-17_19h33.04.899,IAT(Formal),2021.2.3,Win32,60.24096386,,,,,,,,,,,,,,,e,1,0.6649,,,,,,俺,e,,,1,16,96,54,1,,,,,,,,,,,,,,,,,,,,,,,,,,,,,,,,,,
,,,,,,,,,,,,,,1 程凯盈,001,2025-02-17_19h33.04.899,IAT(Formal),2021.2.3,Win32,60.24096386,,,,,,,,,,,,,,,i,0,0.7319,,,,,,自己,e,,,1,17,97,3,1,,,,,,,,,,,,,,,,,,,,,,,,,,,,,,,,,,
,,,,,,,,,,,,,,1 程凯盈,001,2025-02-17_19h33.04.899,IAT(Formal),2021.2.3,Win32,60.24096386,,,,,,,,,,,,,,,i,1,0.5249,,,,,,消极,i,,,1,18,98,35,1,,,,,,,,,,,,,,,,,,,,,,,,,,,,,,,,,,
,,,,,,,,,,,,,,1 程凯盈,001,2025-02-17_19h33.04.899,IAT(Formal),2021.2.3,Win32,60.24096386,,,,,,,,,,,,,,,e,1,0.5088,,,,,,自己,e,,,1,19,99,63,1,,,,,,,,,,,,,,,,,,,,,,,,,,,,,,,,,,
,,,,,,,,,,,,,,1 程凯盈,001,2025-02-17_19h33.04.899,IAT(Formal),2021.2.3,Win32,60.24096386,,,,,,,,,,,,,,,i,1,0.5403,,,,,,他,i,,,1,20,100,75,1,,,,,,,,,,,,,,,,,,,,,,,,,,,,,,,,,,
,,,,,,,,,,,,,,1 程凯盈,001,2025-02-17_19h33.04.899,IAT(Formal),2021.2.3,Win32,60.24096386,,,,,,,,,,,,,,,e,1,0.4552,,,,,,认真,e,,,1,21,101,20,1,,,,,,,,,,,,,,,,,,,,,,,,,,,,,,,,,,
,,,,,,,,,,,,,,1 程凯盈,001,2025-02-17_19h33.04.899,IAT(Formal),2021.2.3,Win32,60.24096386,,,,,,,,,,,,,,,i,1,0.5489,,,,,,轻率,i,,,1,22,102,48,1,,,,,,,,,,,,,,,,,,,,,,,,,,,,,,,,,,
,,,,,,,,,,,,,,1 程凯盈,001,2025-02-17_19h33.04.899,IAT(Formal),2021.2.3,Win32,60.24096386,,,,,,,,,,,,,,,i,1,0.5082,,,,,,卑鄙,i,,,1,23,103,30,1,,,,,,,,,,,,,,,,,,,,,,,,,,,,,,,,,,
,,,,,,,,,,,,,,1 程凯盈,001,2025-02-17_19h33.04.899,IAT(Formal),2021.2.3,Win32,60.24096386,,,,,,,,,,,,,,,e,1,0.5319,,,,,,我,e,,,1,24,104,70,1,,,,,,,,,,,,,,,,,,,,,,,,,,,,,,,,,,
,,,,,,,,,,,,,,1 程凯盈,001,2025-02-17_19h33.04.899,IAT(Formal),2021.2.3,Win32,60.24096386,,,,,,,,,,,,,,,e,1,0.4234,,,,,,自己,e,,,1,25,105,53,1,,,,,,,,,,,,,,,,,,,,,,,,,,,,,,,,,,
,,,,,,,,,,,,,,1 程凯盈,001,2025-02-17_19h33.04.899,IAT(Formal),2021.2.3,Win32,60.24096386,,,,,,,,,,,,,,,i,1,0.4559,,,,,,他,i,,,1,26,106,65,1,,,,,,,,,,,,,,,,,,,,,,,,,,,,,,,,,,
,,,,,,,,,,,,,,1 程凯盈,001,2025-02-17_19h33.04.899,IAT(Formal),2021.2.3,Win32,60.24096386,,,,,,,,,,,,,,,e,1,0.6195,,,,,,朴实,e,,,1,27,107,24,1,,,,,,,,,,,,,,,,,,,,,,,,,,,,,,,,,,
,,,,,,,,,,,,,,1 程凯盈,001,2025-02-17_19h33.04.899,IAT(Formal),2021.2.3,Win32,60.24096386,,,,,,,,,,,,,,,i,1,0.5622,,,,,,其他,i,,,1,28,108,69,1,,,,,,,,,,,,,,,,,,,,,,,,,,,,,,,,,,
,,,,,,,,,,,,,,1 程凯盈,001,2025-02-17_19h33.04.899,IAT(Formal),2021.2.3,Win32,60.24096386,,,,,,,,,,,,,,,i,1,0.5613,,,,,,执拗,i,,,1,29,109,40,1,,,,,,,,,,,,,,,,,,,,,,,,,,,,,,,,,,
,,,,,,,,,,,,,,1 程凯盈,001,2025-02-17_19h33.04.899,IAT(Formal),2021.2.3,Win32,60.24096386,,,,,,,,,,,,,,,i,1,0.5261,,,,,,下贱,i,,,1,30,110,49,1,,,,,,,,,,,,,,,,,,,,,,,,,,,,,,,,,,
,,,,,,,,,,,,,,1 程凯盈,001,2025-02-17_19h33.04.899,IAT(Formal),2021.2.3,Win32,60.24096386,,,,,,,,,,,,,,,e,1,0.5286,,,,,,稳重,e,,,1,31,111,21,1,,,,,,,,,,,,,,,,,,,,,,,,,,,,,,,,,,
,,,,,,,,,,,,,,1 程凯盈,001,2025-02-17_19h33.04.899,IAT(Formal),2021.2.3,Win32,60.24096386,,,,,,,,,,,,,,,e,1,0.4005,,,,,,自己,e,,,1,32,112,73,1,,,,,,,,,,,,,,,,,,,,,,,,,,,,,,,,,,
,,,,,,,,,,,,,,1 程凯盈,001,2025-02-17_19h33.04.899,IAT(Formal),2021.2.3,Win32,60.24096386,,,,,,,,,,,,,,,e,1,0.5807,,,,,,勤奋,e,,,1,33,113,18,1,,,,,,,,,,,,,,,,,,,,,,,,,,,,,,,,,,
,,,,,,,,,,,,,,1 程凯盈,001,2025-02-17_19h33.04.899,IAT(Formal),2021.2.3,Win32,60.24096386,,,,,,,,,,,,,,,e,1,0.714,,,,,,我的,e,,,1,34,114,71,1,,,,,,,,,,,,,,,,,,,,,,,,,,,,,,,,,,
,,,,,,,,,,,,,,1 程凯盈,001,2025-02-17_19h33.04.899,IAT(Formal),2021.2.3,Win32,60.24096386,,,,,,,,,,,,,,,e,1,0.4797,,,,,,杰出,e,,,1,35,115,13,1,,,,,,,,,,,,,,,,,,,,,,,,,,,,,,,,,,
,,,,,,,,,,,,,,1 程凯盈,001,2025-02-17_19h33.04.899,IAT(Formal),2021.2.3,Win32,60.24096386,,,,,,,,,,,,,,,e,1,0.5348,,,,,,勇敢,e,,,1,36,116,17,1,,,,,,,,,,,,,,,,,,,,,,,,,,,,,,,,,,
,,,,,,,,,,,,,,1 程凯盈,001,2025-02-17_19h33.04.899,IAT(Formal),2021.2.3,Win32,60.24096386,,,,,,,,,,,,,,,e,1,0.5191,,,,,,冷静,e,,,1,37,117,26,1,,,,,,,,,,,,,,,,,,,,,,,,,,,,,,,,,,
,,,,,,,,,,,,,,1 程凯盈,001,2025-02-17_19h33.04.899,IAT(Formal),2021.2.3,Win32,60.24096386,,,,,,,,,,,,,,,i,1,0.5485,,,,,,固执,i,,,1,38,118,47,1,,,,,,,,,,,,,,,,,,,,,,,,,,,,,,,,,,
,,,,,,,,,,,,,,1 程凯盈,001,2025-02-17_19h33.04.899,IAT(Formal),2021.2.3,Win32,60.24096386,,,,,,,,,,,,,,,e,1,0.5181,,,,,,我们,e,,,1,39,119,52,1,,,,,,,,,,,,,,,,,,,,,,,,,,,,,,,,,,
,,,,,,,,,,,,,,1 程凯盈,001,2025-02-17_19h33.04.899,IAT(Formal),2021.2.3,Win32,60.24096386,,,,,,,,,,,,,,,i,1,0.627,,,,,,散漫,i,,,1,40,120,41,1,,,,,,,,,,,,,,,,,,,,,,,,,,,,,,,,,,
,,,,,,,,,,,,,,1 程凯盈,001,2025-02-17_19h33.04.899,IAT(Formal),2021.2.3,Win32,60.24096386,,,,,,,,,,,,,,,i,1,0.6678,,,,,,他人,i,,,1,41,121,68,1,,,,,,,,,,,,,,,,,,,,,,,,,,,,,,,,,,
,,,,,,,,,,,,,,1 程凯盈,001,2025-02-17_19h33.04.899,IAT(Formal),2021.2.3,Win32,60.24096386,,,,,,,,,,,,,,,e,1,0.6983,,,,,,我们,e,,,1,42,122,62,1,,,,,,,,,,,,,,,,,,,,,,,,,,,,,,,,,,
,,,,,,,,,,,,,,1 程凯盈,001,2025-02-17_19h33.04.899,IAT(Formal),2021.2.3,Win32,60.24096386,,,,,,,,,,,,,,,i,1,0.6924,,,,,,他们,i,,,1,43,123,76,1,,,,,,,,,,,,,,,,,,,,,,,,,,,,,,,,,,
,,,,,,,,,,,,,,1 程凯盈,001,2025-02-17_19h33.04.899,IAT(Formal),2021.2.3,Win32,60.24096386,,,,,,,,,,,,,,,i,1,0.6026,,,,,,其他,i,,,1,44,124,59,1,,,,,,,,,,,,,,,,,,,,,,,,,,,,,,,,,,
,,,,,,,,,,,,,,1 程凯盈,001,2025-02-17_19h33.04.899,IAT(Formal),2021.2.3,Win32,60.24096386,,,,,,,,,,,,,,,i,1,0.7379,,,,,,他的,i,,,1,45,125,67,1,,,,,,,,,,,,,,,,,,,,,,,,,,,,,,,,,,
,,,,,,,,,,,,,,1 程凯盈,001,2025-02-17_19h33.04.899,IAT(Formal),2021.2.3,Win32,60.24096386,,,,,,,,,,,,,,,e,1,0.7658,,,,,,我们,e,,,1,46,126,72,1,,,,,,,,,,,,,,,,,,,,,,,,,,,,,,,,,,
,,,,,,,,,,,,,,1 程凯盈,001,2025-02-17_19h33.04.899,IAT(Formal),2021.2.3,Win32,60.24096386,,,,,,,,,,,,,,,e,1,0.57,,,,,,俺,e,,,1,47,127,64,1,,,,,,,,,,,,,,,,,,,,,,,,,,,,,,,,,,
,,,,,,,,,,,,,,1 程凯盈,001,2025-02-17_19h33.04.899,IAT(Formal),2021.2.3,Win32,60.24096386,,,,,,,,,,,,,,,i,1,0.5886,,,,,,他人,i,,,1,48,128,8,1,,,,,,,,,,,,,,,,,,,,,,,,,,,,,,,,,,
,,,,,,,,,,,,,,1 程凯盈,001,2025-02-17_19h33.04.899,IAT(Formal),2021.2.3,Win32,60.24096386,,,,,,,,,,,,,,,e,1,1.2056,,,,,,俺,e,,,1,49,129,74,1,,,,,,,,,,,,,,,,,,,,,,,,,,,,,,,,,,
,,,,,,,,,,,,,,1 程凯盈,001,2025-02-17_19h33.04.899,IAT(Formal),2021.2.3,Win32,60.24096386,,,,,,,,,,,,,,,e,1,0.5329,,,,,,优秀,e,,,1,50,130,10,1,,,,,,,,,,,,,,,,,,,,,,,,,,,,,,,,,,
,,,,,,,,,,,,,,1 程凯盈,001,2025-02-17_19h33.04.899,IAT(Formal),2021.2.3,Win32,60.24096386,,,,,,,,,,,,,,,i,1,0.592,,,,,,凶狠,i,,,1,51,131,42,1,,,,,,,,,,,,,,,,,,,,,,,,,,,,,,,,,,
,,,,,,,,,,,,,,1 程凯盈,001,2025-02-17_19h33.04.899,IAT(Formal),2021.2.3,Win32,60.24096386,,,,,,,,,,,,,,,i,1,0.5558,,,,,,他们,i,,,1,52,132,56,1,,,,,,,,,,,,,,,,,,,,,,,,,,,,,,,,,,
,,,,,,,,,,,,,,1 程凯盈,001,2025-02-17_19h33.04.899,IAT(Formal),2021.2.3,Win32,60.24096386,,,,,,,,,,,,,,,i,1,0.576,,,,,,自卑,i,,,1,53,133,36,1,,,,,,,,,,,,,,,,,,,,,,,,,,,,,,,,,,
,,,,,,,,,,,,,,1 程凯盈,001,2025-02-17_19h33.04.899,IAT(Formal),2021.2.3,Win32,60.24096386,,,,,,,,,,,,,,,i,1,0.5242,,,,,,其他,i,,,1,54,134,9,1,,,,,,,,,,,,,,,,,,,,,,,,,,,,,,,,,,
,,,,,,,,,,,,,,1 程凯盈,001,2025-02-17_19h33.04.899,IAT(Formal),2021.2.3,Win32,60.24096386,,,,,,,,,,,,,,,e,0,0.5503,,,,,,悲观,i,,,1,55,135,34,1,,,,,,,,,,,,,,,,,,,,,,,,,,,,,,,,,,
,,,,,,,,,,,,,,1 程凯盈,001,2025-02-17_19h33.04.899,IAT(Formal),2021.2.3,Win32,60.24096386,,,,,,,,,,,,,,,i,1,0.5304,,,,,,刻薄,i,,,1,56,136,33,1,,,,,,,,,,,,,,,,,,,,,,,,,,,,,,,,,,
,,,,,,,,,,,,,,1 程凯盈,001,2025-02-17_19h33.04.899,IAT(Formal),2021.2.3,Win32,60.24096386,,,,,,,,,,,,,,,i,1,0.5503,,,,,,鲁莽,i,,,1,57,137,38,1,,,,,,,,,,,,,,,,,,,,,,,,,,,,,,,,,,
,,,,,,,,,,,,,,1 程凯盈,001,2025-02-17_19h33.04.899,IAT(Formal),2021.2.3,Win32,60.24096386,,,,,,,,,,,,,,,i,1,0.5245,,,,,,暴躁,i,,,1,58,138,44,1,,,,,,,,,,,,,,,,,,,,,,,,,,,,,,,,,,
,,,,,,,,,,,,,,1 程凯盈,001,2025-02-17_19h33.04.899,IAT(Formal),2021.2.3,Win32,60.24096386,,,,,,,,,,,,,,,i,1,0.783,,,,,,他,i,,,1,59,139,5,1,,,,,,,,,,,,,,,,,,,,,,,,,,,,,,,,,,
,,,,,,,,,,,,,,1 程凯盈,001,2025-02-17_19h33.04.899,IAT(Formal),2021.2.3,Win32,60.24096386,,,,,,,,,,,,,,,e,1,0.6013,,,,,,正直,e,,,1,60,140,16,1,,,,,,,,,,,,,,,,,,,,,,,,,,,,,,,,,,
,,,,,,,,,,,,,,1 程凯盈,001,2025-02-17_19h33.04.899,IAT(Formal),2021.2.3,Win32,60.24096386,,,,,,,,,,,,,,,e,1,0.5671,,,,,,我,e,,,1,61,141,50,1,,,,,,,,,,,,,,,,,,,,,,,,,,,,,,,,,,
,,,,,,,,,,,,,,1 程凯盈,001,2025-02-17_19h33.04.899,IAT(Formal),2021.2.3,Win32,60.24096386,,,,,,,,,,,,,,,i,1,0.6065,,,,,,冒失,i,,,1,62,142,39,1,,,,,,,,,,,,,,,,,,,,,,,,,,,,,,,,,,
,,,,,,,,,,,,,,1 程凯盈,001,2025-02-17_19h33.04.899,IAT(Formal),2021.2.3,Win32,60.24096386,,,,,,,,,,,,,,,i,1,0.4937,,,,,,他的,i,,,1,63,143,77,1,,,,,,,,,,,,,,,,,,,,,,,,,,,,,,,,,,
,,,,,,,,,,,,,,1 程凯盈,001,2025-02-17_19h33.04.899,IAT(Formal),2021.2.3,Win32,60.24096386,,,,,,,,,,,,,,,i,1,0.5365,,,,,,愚蠢,i,,,1,64,144,32,1,,,,,,,,,,,,,,,,,,,,,,,,,,,,,,,,,,
,,,,,,,,,,,,,,1 程凯盈,001,2025-02-17_19h33.04.899,IAT(Formal),2021.2.3,Win32,60.24096386,,,,,,,,,,,,,,,i,1,0.5059,,,,,,他人,i,,,1,65,145,58,1,,,,,,,,,,,,,,,,,,,,,,,,,,,,,,,,,,
,,,,,,,,,,,,,,1 程凯盈,001,2025-02-17_19h33.04.899,IAT(Formal),2021.2.3,Win32,60.24096386,,,,,,,,,,,,,,,i,1,0.5566,,,,,,猖狂,i,,,1,66,146,45,1,,,,,,,,,,,,,,,,,,,,,,,,,,,,,,,,,,
,,,,,,,,,,,,,,1 程凯盈,001,2025-02-17_19h33.04.899,IAT(Formal),2021.2.3,Win32,60.24096386,,,,,,,,,,,,,,,i,1,0.4519,,,,,,他人,i,,,1,67,147,78,1,,,,,,,,,,,,,,,,,,,,,,,,,,,,,,,,,,
,,,,,,,,,,,,,,1 程凯盈,001,2025-02-17_19h33.04.899,IAT(Formal),2021.2.3,Win32,60.24096386,,,,,,,,,,,,,,,e,1,0.8271,,,,,,我,e,,,1,68,148,60,1,,,,,,,,,,,,,,,,,,,,,,,,,,,,,,,,,,
,,,,,,,,,,,,,,1 程凯盈,001,2025-02-17_19h33.04.899,IAT(Formal),2021.2.3,Win32,60.24096386,,,,,,,,,,,,,,,e,1,0.4969,,,,,,诚恳,e,,,1,69,149,29,1,,,,,,,,,,,,,,,,,,,,,,,,,,,,,,,,,,
,,,,,,,,,,,,,,1 程凯盈,001,2025-02-17_19h33.04.899,IAT(Formal),2021.2.3,Win32,60.24096386,,,,,,,,,,,,,,,e,1,0.9682,,,,,,无私,e,,,1,70,150,22,1,,,,,,,,,,,,,,,,,,,,,,,,,,,,,,,,,,
,,,,,,,,,,,,,,1 程凯盈,001,2025-02-17_19h33.04.899,IAT(Formal),2021.2.3,Win32,60.24096386,,,,,,,,,,,,,,,e,1,0.5357,,,,,,崇高,e,,,1,71,151,11,1,,,,,,,,,,,,,,,,,,,,,,,,,,,,,,,,,,
,,,,,,,,,,,,,,1 程凯盈,001,2025-02-17_19h33.04.899,IAT(Formal),2021.2.3,Win32,60.24096386,,,,,,,,,,,,,,,i,1,0.5904,,,,,,野蛮,i,,,1,72,152,46,1,,,,,,,,,,,,,,,,,,,,,,,,,,,,,,,,,,
,,,,,,,,,,,,,,1 程凯盈,001,2025-02-17_19h33.04.899,IAT(Formal),2021.2.3,Win32,60.24096386,,,,,,,,,,,,,,,e,1,0.5544,,,,,,聪明,e,,,1,73,153,12,1,,,,,,,,,,,,,,,,,,,,,,,,,,,,,,,,,,
,,,,,,,,,,,,,,1 程凯盈,001,2025-02-17_19h33.04.899,IAT(Formal),2021.2.3,Win32,60.24096386,,,,,,,,,,,,,,,e,1,0.7051,,,,,,活泼,e,,,1,74,154,28,1,,,,,,,,,,,,,,,,,,,,,,,,,,,,,,,,,,
,,,,,,,,,,,,,,1 程凯盈,001,2025-02-17_19h33.04.899,IAT(Formal),2021.2.3,Win32,60.24096386,,,,,,,,,,,,,,,i,1,0.5693,,,,,,他们,i,,,1,75,155,66,1,,,,,,,,,,,,,,,,,,,,,,,,,,,,,,,,,,
,,,,,,,,,,,,,,1 程凯盈,001,2025-02-17_19h33.04.899,IAT(Formal),2021.2.3,Win32,60.24096386,,,,,,,,,,,,,,,e,1,0.7193,,,,,,诚实,e,,,1,76,156,15,1,,,,,,,,,,,,,,,,,,,,,,,,,,,,,,,,,,
,,,,,,,,,,,,,,1 程凯盈,001,2025-02-17_19h33.04.899,IAT(Formal),2021.2.3,Win32,60.24096386,,,,,,,,,,,,,,,i,1,0.5347,,,,,,他的,i,,,1,77,157,7,1,,,,,,,,,,,,,,,,,,,,,,,,,,,,,,,,,,
,,,,,,,,,,,,,,1 程凯盈,001,2025-02-17_19h33.04.899,IAT(Formal),2021.2.3,Win32,60.24096386,,,,,,,,,,,,,,,e,1,0.547,,,,,,俺,e,,,1,78,158,4,1,,,,,,,,,,,,,,,,,,,,,,,,,,,,,,,,,,
,,,,,,,,,,,,,,1 程凯盈,001,2025-02-17_19h33.04.899,IAT(Formal),2021.2.3,Win32,60.24096386,,,,,,,,,,,,,,,e,1,0.6161,,,,,,热情,e,,,1,79,159,27,1,,,,,,,,,,,,,,,,,,,,,,,,,,,,,,,,,,
,,,,,,,,,,,,我的,i,1 程凯盈,001,2025-02-17_19h33.04.899,IAT(Formal),2021.2.3,Win32,60.24096386,,,,,,,,,,,,,,,,,,,,,,,,,,,,,,,,space,12.9652,i,1,0.6779,0,0,0,1,1,,,,,,,,,,,,,,,,,,,,,,,,
,,,,,,,,,,,,俺,i,1 程凯盈,001,2025-02-17_19h33.04.899,IAT(Formal),2021.2.3,Win32,60.24096386,,,,,,,,,,,,,,,,,,,,,,,,,,,,,,,,,,i,1,0.6194,0,1,1,4,1,,,,,,,,,,,,,,,,,,,,,,,,
,,,,,,,,,,,,我们,i,1 程凯盈,001,2025-02-17_19h33.04.899,IAT(Formal),2021.2.3,Win32,60.24096386,,,,,,,,,,,,,,,,,,,,,,,,,,,,,,,,,,i,1,0.4845,0,2,2,2,1,,,,,,,,,,,,,,,,,,,,,,,,
,,,,,,,,,,,,他的,e,1 程凯盈,001,2025-02-17_19h33.04.899,IAT(Formal),2021.2.3,Win32,60.24096386,,,,,,,,,,,,,,,,,,,,,,,,,,,,,,,,,,e,1,0.5,0,3,3,7,1,,,,,,,,,,,,,,,,,,,,,,,,
,,,,,,,,,,,,我,i,1 程凯盈,001,2025-02-17_19h33.04.899,IAT(Formal),2021.2.3,Win32,60.24096386,,,,,,,,,,,,,,,,,,,,,,,,,,,,,,,,,,i,1,0.5216,0,4,4,0,1,,,,,,,,,,,,,,,,,,,,,,,,
,,,,,,,,,,,,其他,e,1 程凯盈,001,2025-02-17_19h33.04.899,IAT(Formal),2021.2.3,Win32,60.24096386,,,,,,,,,,,,,,,,,,,,,,,,,,,,,,,,,,e,1,0.565,0,5,5,9,1,,,,,,,,,,,,,,,,,,,,,,,,
,,,,,,,,,,,,他们,e,1 程凯盈,001,2025-02-17_19h33.04.899,IAT(Formal),2021.2.3,Win32,60.24096386,,,,,,,,,,,,,,,,,,,,,,,,,,,,,,,,,,e,1,0.417,0,6,6,6,1,,,,,,,,,,,,,,,,,,,,,,,,
,,,,,,,,,,,,他,e,1 程凯盈,001,2025-02-17_19h33.04.899,IAT(Formal),2021.2.3,Win32,60.24096386,,,,,,,,,,,,,,,,,,,,,,,,,,,,,,,,,,e,1,0.5031,0,7,7,5,1,,,,,,,,,,,,,,,,,,,,,,,,
,,,,,,,,,,,,自己,i,1 程凯盈,001,2025-02-17_19h33.04.899,IAT(Formal),2021.2.3,Win32,60.24096386,,,,,,,,,,,,,,,,,,,,,,,,,,,,,,,,,,i,1,0.691,0,8,8,3,1,,,,,,,,,,,,,,,,,,,,,,,,
,,,,,,,,,,,,他人,e,1 程凯盈,001,2025-02-17_19h33.04.899,IAT(Formal),2021.2.3,Win32,60.24096386,,,,,,,,,,,,,,,,,,,,,,,,,,,,,,,,,,e,1,0.6519,0,9,9,8,1,,,,,,,,,,,,,,,,,,,,,,,,
,,,,,,,,,,,,,,1 程凯盈,001,2025-02-17_19h33.04.899,IAT(Formal),2021.2.3,Win32,60.24096386,,,,,,,,,,,,,,,,,,,,,,,,,,,,,,,,,,,,,,,,,,space,6.7726,e,1,0.4005,0,0,0,55,1,他,e,,,,,,,,,,,,
,,,,,,,,,,,,,,1 程凯盈,001,2025-02-17_19h33.04.899,IAT(Formal),2021.2.3,Win32,60.24096386,,,,,,,,,,,,,,,,,,,,,,,,,,,,,,,,,,,,,,,,,,,,e,1,0.619,0,1,1,57,1,他的,e,,,,,,,,,,,,
,,,,,,,,,,,,,,1 程凯盈,001,2025-02-17_19h33.04.899,IAT(Formal),2021.2.3,Win32,60.24096386,,,,,,,,,,,,,,,,,,,,,,,,,,,,,,,,,,,,,,,,,,,,e,1,0.5444,0,2,2,67,1,他的,e,,,,,,,,,,,,
,,,,,,,,,,,,,,1 程凯盈,001,2025-02-17_19h33.04.899,IAT(Formal),2021.2.3,Win32,60.24096386,,,,,,,,,,,,,,,,,,,,,,,,,,,,,,,,,,,,,,,,,,,,e,1,0.4093,0,3,3,65,1,他,e,,,,,,,,,,,,
,,,,,,,,,,,,,,1 程凯盈,001,2025-02-17_19h33.04.899,IAT(Formal),2021.2.3,Win32,60.24096386,,,,,,,,,,,,,,,,,,,,,,,,,,,,,,,,,,,,,,,,,,,,e,1,0.494,0,4,4,6,1,他们,e,,,,,,,,,,,,
,,,,,,,,,,,,,,1 程凯盈,001,2025-02-17_19h33.04.899,IAT(Formal),2021.2.3,Win32,60.24096386,,,,,,,,,,,,,,,,,,,,,,,,,,,,,,,,,,,,,,,,,,,,i,1,0.5841,0,5,5,33,1,刻薄,i,,,,,,,,,,,,
,,,,,,,,,,,,,,1 程凯盈,001,2025-02-17_19h33.04.899,IAT(Formal),2021.2.3,Win32,60.24096386,,,,,,,,,,,,,,,,,,,,,,,,,,,,,,,,,,,,,,,,,,,,e,1,0.5233,0,6,6,75,1,他,e,,,,,,,,,,,,
,,,,,,,,,,,,,,1 程凯盈,001,2025-02-17_19h33.04.899,IAT(Formal),2021.2.3,Win32,60.24096386,,,,,,,,,,,,,,,,,,,,,,,,,,,,,,,,,,,,,,,,,,,,e,1,0.8023,0,7,7,13,1,杰出,e,,,,,,,,,,,,
,,,,,,,,,,,,,,1 程凯盈,001,2025-02-17_19h33.04.899,IAT(Formal),2021.2.3,Win32,60.24096386,,,,,,,,,,,,,,,,,,,,,,,,,,,,,,,,,,,,,,,,,,,,i,1,0.5296,0,8,8,42,1,凶狠,i,,,,,,,,,,,,
,,,,,,,,,,,,,,1 程凯盈,001,2025-02-17_19h33.04.899,IAT(Formal),2021.2.3,Win32,60.24096386,,,,,,,,,,,,,,,,,,,,,,,,,,,,,,,,,,,,,,,,,,,,i,1,0.6023,0,9,9,31,1,虚伪,i,,,,,,,,,,,,
,,,,,,,,,,,,,,1 程凯盈,001,2025-02-17_19h33.04.899,IAT(Formal),2021.2.3,Win32,60.24096386,,,,,,,,,,,,,,,,,,,,,,,,,,,,,,,,,,,,,,,,,,,,i,1,0.5439,0,10,10,35,1,消极,i,,,,,,,,,,,,
,,,,,,,,,,,,,,1 程凯盈,001,2025-02-17_19h33.04.899,IAT(Formal),2021.2.3,Win32,60.24096386,,,,,,,,,,,,,,,,,,,,,,,,,,,,,,,,,,,,,,,,,,,,i,1,0.6164,0,11,11,2,1,我们,i,,,,,,,,,,,,
,,,,,,,,,,,,,,1 程凯盈,001,2025-02-17_19h33.04.899,IAT(Formal),2021.2.3,Win32,60.24096386,,,,,,,,,,,,,,,,,,,,,,,,,,,,,,,,,,,,,,,,,,,,i,1,0.5575,0,12,12,64,1,俺,i,,,,,,,,,,,,
,,,,,,,,,,,,,,1 程凯盈,001,2025-02-17_19h33.04.899,IAT(Formal),2021.2.3,Win32,60.24096386,,,,,,,,,,,,,,,,,,,,,,,,,,,,,,,,,,,,,,,,,,,,e,1,0.485,0,13,13,17,1,勇敢,e,,,,,,,,,,,,
,,,,,,,,,,,,,,1 程凯盈,001,2025-02-17_19h33.04.899,IAT(Formal),2021.2.3,Win32,60.24096386,,,,,,,,,,,,,,,,,,,,,,,,,,,,,,,,,,,,,,,,,,,,i,1,0.5678,0,14,14,61,1,我的,i,,,,,,,,,,,,
,,,,,,,,,,,,,,1 程凯盈,001,2025-02-17_19h33.04.899,IAT(Formal),2021.2.3,Win32,60.24096386,,,,,,,,,,,,,,,,,,,,,,,,,,,,,,,,,,,,,,,,,,,,i,0,0.7668,0,15,15,25,1,细腻,e,,,,,,,,,,,,
,,,,,,,,,,,,,,1 程凯盈,001,2025-02-17_19h33.04.899,IAT(Formal),2021.2.3,Win32,60.24096386,,,,,,,,,,,,,,,,,,,,,,,,,,,,,,,,,,,,,,,,,,,,i,1,0.9828,0,16,16,41,1,散漫,i,,,,,,,,,,,,
,,,,,,,,,,,,,,1 程凯盈,001,2025-02-17_19h33.04.899,IAT(Formal),2021.2.3,Win32,60.24096386,,,,,,,,,,,,,,,,,,,,,,,,,,,,,,,,,,,,,,,,,,,,e,1,0.5699,0,17,17,10,1,优秀,e,,,,,,,,,,,,
,,,,,,,,,,,,,,1 程凯盈,001,2025-02-17_19h33.04.899,IAT(Formal),2021.2.3,Win32,60.24096386,,,,,,,,,,,,,,,,,,,,,,,,,,,,,,,,,,,,,,,,,,,,i,1,0.6112,0,18,18,48,1,轻率,i,,,,,,,,,,,,
,,,,,,,,,,,,,,1 程凯盈,001,2025-02-17_19h33.04.899,IAT(Formal),2021.2.3,Win32,60.24096386,,,,,,,,,,,,,,,,,,,,,,,,,,,,,,,,,,,,,,,,,,,,i,1,0.657,0,19,19,73,1,自己,i,,,,,,,,,,,,
,,,,,,,,,,,,,,1 程凯盈,001,2025-02-17_19h33.04.899,IAT(Formal),2021.2.3,Win32,60.24096386,,,,,,,,,,,,,,,,,,,,,,,,,,,,,,,,,,,,,,,,,,,,i,1,0.4997,0,20,20,62,1,我们,i,,,,,,,,,,,,
,,,,,,,,,,,,,,1 程凯盈,001,2025-02-17_19h33.04.899,IAT(Formal),2021.2.3,Win32,60.24096386,,,,,,,,,,,,,,,,,,,,,,,,,,,,,,,,,,,,,,,,,,,,e,1,0.701,0,21,21,12,1,聪明,e,,,,,,,,,,,,
,,,,,,,,,,,,,,1 程凯盈,001,2025-02-17_19h33.04.899,IAT(Formal),2021.2.3,Win32,60.24096386,,,,,,,,,,,,,,,,,,,,,,,,,,,,,,,,,,,,,,,,,,,,e,1,0.6939,0,22,22,7,1,他的,e,,,,,,,,,,,,
,,,,,,,,,,,,,,1 程凯盈,001,2025-02-17_19h33.04.899,IAT(Formal),2021.2.3,Win32,60.24096386,,,,,,,,,,,,,,,,,,,,,,,,,,,,,,,,,,,,,,,,,,,,e,1,0.5663,0,23,23,11,1,崇高,e,,,,,,,,,,,,
,,,,,,,,,,,,,,1 程凯盈,001,2025-02-17_19h33.04.899,IAT(Formal),2021.2.3,Win32,60.24096386,,,,,,,,,,,,,,,,,,,,,,,,,,,,,,,,,,,,,,,,,,,,i,1,0.8105,0,24,24,38,1,鲁莽,i,,,,,,,,,,,,
,,,,,,,,,,,,,,1 程凯盈,001,2025-02-17_19h33.04.899,IAT(Formal),2021.2.3,Win32,60.24096386,,,,,,,,,,,,,,,,,,,,,,,,,,,,,,,,,,,,,,,,,,,,e,0,0.8121,0,25,25,3,1,自己,i,,,,,,,,,,,,
,,,,,,,,,,,,,,1 程凯盈,001,2025-02-17_19h33.04.899,IAT(Formal),2021.2.3,Win32,60.24096386,,,,,,,,,,,,,,,,,,,,,,,,,,,,,,,,,,,,,,,,,,,,i,1,0.5673,0,26,26,51,1,我的,i,,,,,,,,,,,,
,,,,,,,,,,,,,,1 程凯盈,001,2025-02-17_19h33.04.899,IAT(Formal),2021.2.3,Win32,60.24096386,,,,,,,,,,,,,,,,,,,,,,,,,,,,,,,,,,,,,,,,,,,,i,1,0.4417,0,27,27,0,1,我,i,,,,,,,,,,,,
,,,,,,,,,,,,,,1 程凯盈,001,2025-02-17_19h33.04.899,IAT(Formal),2021.2.3,Win32,60.24096386,,,,,,,,,,,,,,,,,,,,,,,,,,,,,,,,,,,,,,,,,,,,e,1,0.5287,0,28,28,56,1,他们,e,,,,,,,,,,,,
,,,,,,,,,,,,,,1 程凯盈,001,2025-02-17_19h33.04.899,IAT(Formal),2021.2.3,Win32,60.24096386,,,,,,,,,,,,,,,,,,,,,,,,,,,,,,,,,,,,,,,,,,,,e,1,0.4022,0,29,29,66,1,他们,e,,,,,,,,,,,,
,,,,,,,,,,,,,,1 程凯盈,001,2025-02-17_19h33.04.899,IAT(Formal),2021.2.3,Win32,60.24096386,,,,,,,,,,,,,,,,,,,,,,,,,,,,,,,,,,,,,,,,,,,,e,1,0.4551,0,30,30,76,1,他们,e,,,,,,,,,,,,
,,,,,,,,,,,,,,1 程凯盈,001,2025-02-17_19h33.04.899,IAT(Formal),2021.2.3,Win32,60.24096386,,,,,,,,,,,,,,,,,,,,,,,,,,,,,,,,,,,,,,,,,,,,i,1,0.6838,0,31,31,53,1,自己,i,,,,,,,,,,,,
,,,,,,,,,,,,,,1 程凯盈,001,2025-02-17_19h33.04.899,IAT(Formal),2021.2.3,Win32,60.24096386,,,,,,,,,,,,,,,,,,,,,,,,,,,,,,,,,,,,,,,,,,,,e,1,0.8999,0,32,32,18,1,勤奋,e,,,,,,,,,,,,
,,,,,,,,,,,,,,1 程凯盈,001,2025-02-17_19h33.04.899,IAT(Formal),2021.2.3,Win32,60.24096386,,,,,,,,,,,,,,,,,,,,,,,,,,,,,,,,,,,,,,,,,,,,e,1,1.0499,0,33,33,9,1,其他,e,,,,,,,,,,,,
,,,,,,,,,,,,,,1 程凯盈,001,2025-02-17_19h33.04.899,IAT(Formal),2021.2.3,Win32,60.24096386,,,,,,,,,,,,,,,,,,,,,,,,,,,,,,,,,,,,,,,,,,,,i,1,0.7582,0,34,34,37,1,傲慢,i,,,,,,,,,,,,
,,,,,,,,,,,,,,1 程凯盈,001,2025-02-17_19h33.04.899,IAT(Formal),2021.2.3,Win32,60.24096386,,,,,,,,,,,,,,,,,,,,,,,,,,,,,,,,,,,,,,,,,,,,e,1,0.6277,0,35,35,23,1,公正,e,,,,,,,,,,,,
,,,,,,,,,,,,,,1 程凯盈,001,2025-02-17_19h33.04.899,IAT(Formal),2021.2.3,Win32,60.24096386,,,,,,,,,,,,,,,,,,,,,,,,,,,,,,,,,,,,,,,,,,,,i,1,1.3003,0,36,36,39,1,冒失,i,,,,,,,,,,,,
,,,,,,,,,,,,,,1 程凯盈,001,2025-02-17_19h33.04.899,IAT(Formal),2021.2.3,Win32,60.24096386,,,,,,,,,,,,,,,,,,,,,,,,,,,,,,,,,,,,,,,,,,,,i,1,0.7166,0,37,37,54,1,俺,i,,,,,,,,,,,,
,,,,,,,,,,,,,,1 程凯盈,001,2025-02-17_19h33.04.899,IAT(Formal),2021.2.3,Win32,60.24096386,,,,,,,,,,,,,,,,,,,,,,,,,,,,,,,,,,,,,,,,,,,,i,1,0.5476,0,38,38,4,1,俺,i,,,,,,,,,,,,
,,,,,,,,,,,,,,1 程凯盈,001,2025-02-17_19h33.04.899,IAT(Formal),2021.2.3,Win32,60.24096386,,,,,,,,,,,,,,,,,,,,,,,,,,,,,,,,,,,,,,,,,,,,i,1,0.4847,0,39,39,50,1,我,i,,,,,,,,,,,,
,,,,,,,,,,,,,,1 程凯盈,001,2025-02-17_19h33.04.899,IAT(Formal),2021.2.3,Win32,60.24096386,,,,,,,,,,,,,,,,,,,,,,,,,,,,,,,,,,,,,,,,,,,,e,1,0.9016,0,40,40,29,1,诚恳,e,,,,,,,,,,,,
,,,,,,,,,,,,,,1 程凯盈,001,2025-02-17_19h33.04.899,IAT(Formal),2021.2.3,Win32,60.24096386,,,,,,,,,,,,,,,,,,,,,,,,,,,,,,,,,,,,,,,,,,,,i,1,0.6116,0,41,41,45,1,猖狂,i,,,,,,,,,,,,
,,,,,,,,,,,,,,1 程凯盈,001,2025-02-17_19h33.04.899,IAT(Formal),2021.2.3,Win32,60.24096386,,,,,,,,,,,,,,,,,,,,,,,,,,,,,,,,,,,,,,,,,,,,i,1,0.5841,0,42,42,40,1,执拗,i,,,,,,,,,,,,
,,,,,,,,,,,,,,1 程凯盈,001,2025-02-17_19h33.04.899,IAT(Formal),2021.2.3,Win32,60.24096386,,,,,,,,,,,,,,,,,,,,,,,,,,,,,,,,,,,,,,,,,,,,e,1,0.75,0,43,43,14,1,乐观,e,,,,,,,,,,,,
,,,,,,,,,,,,,,1 程凯盈,001,2025-02-17_19h33.04.899,IAT(Formal),2021.2.3,Win32,60.24096386,,,,,,,,,,,,,,,,,,,,,,,,,,,,,,,,,,,,,,,,,,,,e,1,0.7333,0,44,44,58,1,他人,e,,,,,,,,,,,,
,,,,,,,,,,,,,,1 程凯盈,001,2025-02-17_19h33.04.899,IAT(Formal),2021.2.3,Win32,60.24096386,,,,,,,,,,,,,,,,,,,,,,,,,,,,,,,,,,,,,,,,,,,,e,1,0.8846,0,45,45,79,1,其他,e,,,,,,,,,,,,
,,,,,,,,,,,,,,1 程凯盈,001,2025-02-17_19h33.04.899,IAT(Formal),2021.2.3,Win32,60.24096386,,,,,,,,,,,,,,,,,,,,,,,,,,,,,,,,,,,,,,,,,,,,i,1,0.7278,0,46,46,72,1,我们,i,,,,,,,,,,,,
,,,,,,,,,,,,,,1 程凯盈,001,2025-02-17_19h33.04.899,IAT(Formal),2021.2.3,Win32,60.24096386,,,,,,,,,,,,,,,,,,,,,,,,,,,,,,,,,,,,,,,,,,,,e,1,1.0334,0,47,47,19,1,机智,e,,,,,,,,,,,,
,,,,,,,,,,,,,,1 程凯盈,001,2025-02-17_19h33.04.899,IAT(Formal),2021.2.3,Win32,60.24096386,,,,,,,,,,,,,,,,,,,,,,,,,,,,,,,,,,,,,,,,,,,,e,1,0.6668,0,48,48,26,1,冷静,e,,,,,,,,,,,,
,,,,,,,,,,,,,,1 程凯盈,001,2025-02-17_19h33.04.899,IAT(Formal),2021.2.3,Win32,60.24096386,,,,,,,,,,,,,,,,,,,,,,,,,,,,,,,,,,,,,,,,,,,,i,1,0.65,0,49,49,32,1,愚蠢,i,,,,,,,,,,,,
,,,,,,,,,,,,,,1 程凯盈,001,2025-02-17_19h33.04.899,IAT(Formal),2021.2.3,Win32,60.24096386,,,,,,,,,,,,,,,,,,,,,,,,,,,,,,,,,,,,,,,,,,,,i,1,1.1032,0,50,50,1,1,我的,i,,,,,,,,,,,,
,,,,,,,,,,,,,,1 程凯盈,001,2025-02-17_19h33.04.899,IAT(Formal),2021.2.3,Win32,60.24096386,,,,,,,,,,,,,,,,,,,,,,,,,,,,,,,,,,,,,,,,,,,,i,1,0.5673,0,51,51,74,1,俺,i,,,,,,,,,,,,
,,,,,,,,,,,,,,1 程凯盈,001,2025-02-17_19h33.04.899,IAT(Formal),2021.2.3,Win32,60.24096386,,,,,,,,,,,,,,,,,,,,,,,,,,,,,,,,,,,,,,,,,,,,e,1,0.6343,0,52,52,15,1,诚实,e,,,,,,,,,,,,
,,,,,,,,,,,,,,1 程凯盈,001,2025-02-17_19h33.04.899,IAT(Formal),2021.2.3,Win32,60.24096386,,,,,,,,,,,,,,,,,,,,,,,,,,,,,,,,,,,,,,,,,,,,,0,,0,53,53,68,1,他人,e,,,,,,,,,,,,
,,,,,,,,,,,,,,1 程凯盈,001,2025-02-17_19h33.04.899,IAT(Formal),2021.2.3,Win32,60.24096386,,,,,,,,,,,,,,,,,,,,,,,,,,,,,,,,,,,,,,,,,,,,i,1,1.1688,0,54,54,36,1,自卑,i,,,,,,,,,,,,
,,,,,,,,,,,,,,1 程凯盈,001,2025-02-17_19h33.04.899,IAT(Formal),2021.2.3,Win32,60.24096386,,,,,,,,,,,,,,,,,,,,,,,,,,,,,,,,,,,,,,,,,,,,i,1,0.5799,0,55,55,46,1,野蛮,i,,,,,,,,,,,,
,,,,,,,,,,,,,,1 程凯盈,001,2025-02-17_19h33.04.899,IAT(Formal),2021.2.3,Win32,60.24096386,,,,,,,,,,,,,,,,,,,,,,,,,,,,,,,,,,,,,,,,,,,,i,1,0.6237,0,56,56,49,1,下贱,i,,,,,,,,,,,,
,,,,,,,,,,,,,,1 程凯盈,001,2025-02-17_19h33.04.899,IAT(Formal),2021.2.3,Win32,60.24096386,,,,,,,,,,,,,,,,,,,,,,,,,,,,,,,,,,,,,,,,,,,,e,1,0.7074,0,57,57,77,1,他的,e,,,,,,,,,,,,
,,,,,,,,,,,,,,1 程凯盈,001,2025-02-17_19h33.04.899,IAT(Formal),2021.2.3,Win32,60.24096386,,,,,,,,,,,,,,,,,,,,,,,,,,,,,,,,,,,,,,,,,,,,e,1,0.4736,0,58,58,8,1,他人,e,,,,,,,,,,,,
,,,,,,,,,,,,,,1 程凯盈,001,2025-02-17_19h33.04.899,IAT(Formal),2021.2.3,Win32,60.24096386,,,,,,,,,,,,,,,,,,,,,,,,,,,,,,,,,,,,,,,,,,,,i,1,0.6673,0,59,59,44,1,暴躁,i,,,,,,,,,,,,
,,,,,,,,,,,,,,1 程凯盈,001,2025-02-17_19h33.04.899,IAT(Formal),2021.2.3,Win32,60.24096386,,,,,,,,,,,,,,,,,,,,,,,,,,,,,,,,,,,,,,,,,,,,i,1,1.1164,0,60,60,43,1,自私,i,,,,,,,,,,,,
,,,,,,,,,,,,,,1 程凯盈,001,2025-02-17_19h33.04.899,IAT(Formal),2021.2.3,Win32,60.24096386,,,,,,,,,,,,,,,,,,,,,,,,,,,,,,,,,,,,,,,,,,,,e,1,1.0855,0,61,61,22,1,无私,e,,,,,,,,,,,,
,,,,,,,,,,,,,,1 程凯盈,001,2025-02-17_19h33.04.899,IAT(Formal),2021.2.3,Win32,60.24096386,,,,,,,,,,,,,,,,,,,,,,,,,,,,,,,,,,,,,,,,,,,,e,1,0.6052,0,62,62,69,1,其他,e,,,,,,,,,,,,
,,,,,,,,,,,,,,1 程凯盈,001,2025-02-17_19h33.04.899,IAT(Formal),2021.2.3,Win32,60.24096386,,,,,,,,,,,,,,,,,,,,,,,,,,,,,,,,,,,,,,,,,,,,,0,,0,63,63,52,1,我们,i,,,,,,,,,,,,
,,,,,,,,,,,,,,1 程凯盈,001,2025-02-17_19h33.04.899,IAT(Formal),2021.2.3,Win32,60.24096386,,,,,,,,,,,,,,,,,,,,,,,,,,,,,,,,,,,,,,,,,,,,i,1,1.3842,0,64,64,60,1,我,i,,,,,,,,,,,,
,,,,,,,,,,,,,,1 程凯盈,001,2025-02-17_19h33.04.899,IAT(Formal),2021.2.3,Win32,60.24096386,,,,,,,,,,,,,,,,,,,,,,,,,,,,,,,,,,,,,,,,,,,,e,1,1.2349,0,65,65,27,1,热情,e,,,,,,,,,,,,
,,,,,,,,,,,,,,1 程凯盈,001,2025-02-17_19h33.04.899,IAT(Formal),2021.2.3,Win32,60.24096386,,,,,,,,,,,,,,,,,,,,,,,,,,,,,,,,,,,,,,,,,,,,,0,,0,66,66,34,1,悲观,i,,,,,,,,,,,,
,,,,,,,,,,,,,,1 程凯盈,001,2025-02-17_19h33.04.899,IAT(Formal),2021.2.3,Win32,60.24096386,,,,,,,,,,,,,,,,,,,,,,,,,,,,,,,,,,,,,,,,,,,,e,1,0.622,0,67,67,24,1,朴实,e,,,,,,,,,,,,
,,,,,,,,,,,,,,1 程凯盈,001,2025-02-17_19h33.04.899,IAT(Formal),2021.2.3,Win32,60.24096386,,,,,,,,,,,,,,,,,,,,,,,,,,,,,,,,,,,,,,,,,,,,i,1,1.1437,0,68,68,30,1,卑鄙,i,,,,,,,,,,,,
,,,,,,,,,,,,,,1 程凯盈,001,2025-02-17_19h33.04.899,IAT(Formal),2021.2.3,Win32,60.24096386,,,,,,,,,,,,,,,,,,,,,,,,,,,,,,,,,,,,,,,,,,,,e,1,0.6,0,69,69,59,1,其他,e,,,,,,,,,,,,
,,,,,,,,,,,,,,1 程凯盈,001,2025-02-17_19h33.04.899,IAT(Formal),2021.2.3,Win32,60.24096386,,,,,,,,,,,,,,,,,,,,,,,,,,,,,,,,,,,,,,,,,,,,e,1,0.6121,0,70,70,16,1,正直,e,,,,,,,,,,,,
,,,,,,,,,,,,,,1 程凯盈,001,2025-02-17_19h33.04.899,IAT(Formal),2021.2.3,Win32,60.24096386,,,,,,,,,,,,,,,,,,,,,,,,,,,,,,,,,,,,,,,,,,,,e,1,0.5934,0,71,71,28,1,活泼,e,,,,,,,,,,,,
,,,,,,,,,,,,,,1 程凯盈,001,2025-02-17_19h33.04.899,IAT(Formal),2021.2.3,Win32,60.24096386,,,,,,,,,,,,,,,,,,,,,,,,,,,,,,,,,,,,,,,,,,,,e,0,0.5193,0,72,72,70,1,我,i,,,,,,,,,,,,
,,,,,,,,,,,,,,1 程凯盈,001,2025-02-17_19h33.04.899,IAT(Formal),2021.2.3,Win32,60.24096386,,,,,,,,,,,,,,,,,,,,,,,,,,,,,,,,,,,,,,,,,,,,e,1,0.6662,0,73,73,20,1,认真,e,,,,,,,,,,,,
,,,,,,,,,,,,,,1 程凯盈,001,2025-02-17_19h33.04.899,IAT(Formal),2021.2.3,Win32,60.24096386,,,,,,,,,,,,,,,,,,,,,,,,,,,,,,,,,,,,,,,,,,,,e,1,0.6219,0,74,74,78,1,他人,e,,,,,,,,,,,,
,,,,,,,,,,,,,,1 程凯盈,001,2025-02-17_19h33.04.899,IAT(Formal),2021.2.3,Win32,60.24096386,,,,,,,,,,,,,,,,,,,,,,,,,,,,,,,,,,,,,,,,,,,,e,1,1.0073,0,75,75,5,1,他,e,,,,,,,,,,,,
,,,,,,,,,,,,,,1 程凯盈,001,2025-02-17_19h33.04.899,IAT(Formal),2021.2.3,Win32,60.24096386,,,,,,,,,,,,,,,,,,,,,,,,,,,,,,,,,,,,,,,,,,,,i,1,0.5904,0,76,76,47,1,固执,i,,,,,,,,,,,,
,,,,,,,,,,,,,,1 程凯盈,001,2025-02-17_19h33.04.899,IAT(Formal),2021.2.3,Win32,60.24096386,,,,,,,,,,,,,,,,,,,,,,,,,,,,,,,,,,,,,,,,,,,,e,1,0.5654,0,77,77,21,1,稳重,e,,,,,,,,,,,,
,,,,,,,,,,,,,,1 程凯盈,001,2025-02-17_19h33.04.899,IAT(Formal),2021.2.3,Win32,60.24096386,,,,,,,,,,,,,,,,,,,,,,,,,,,,,,,,,,,,,,,,,,,,e,0,0.553,0,78,78,71,1,我的,i,,,,,,,,,,,,
,,,,,,,,,,,,,,1 程凯盈,001,2025-02-17_19h33.04.899,IAT(Formal),2021.2.3,Win32,60.24096386,,,,,,,,,,,,,,,,,,,,,,,,,,,,,,,,,,,,,,,,,,,,i,1,0.484,0,79,79,63,1,自己,i,,,,,,,,,,,,
,,,,,,,,,,,,,,1 程凯盈,001,2025-02-17_19h33.04.899,IAT(Formal),2021.2.3,Win32,60.24096386,,,,,,,,,,,,,,,,,,,,,,,,,,,,,,,,,,,,,,,,,,,,,,,,,,,,悲观,i,space,65.2507,i,1,0.7286,0,0,0,34,1,,
,,,,,,,,,,,,,,1 程凯盈,001,2025-02-17_19h33.04.899,IAT(Formal),2021.2.3,Win32,60.24096386,,,,,,,,,,,,,,,,,,,,,,,,,,,,,,,,,,,,,,,,,,,,,,,,,,,,朴实,e,,,e,1,0.5052,0,1,1,24,1,,
,,,,,,,,,,,,,,1 程凯盈,001,2025-02-17_19h33.04.899,IAT(Formal),2021.2.3,Win32,60.24096386,,,,,,,,,,,,,,,,,,,,,,,,,,,,,,,,,,,,,,,,,,,,,,,,,,,,虚伪,i,,,i,1,0.6011,0,2,2,31,1,,
,,,,,,,,,,,,,,1 程凯盈,001,2025-02-17_19h33.04.899,IAT(Formal),2021.2.3,Win32,60.24096386,,,,,,,,,,,,,,,,,,,,,,,,,,,,,,,,,,,,,,,,,,,,,,,,,,,,冷静,e,,,e,1,0.5502,0,3,3,26,1,,
,,,,,,,,,,,,,,1 程凯盈,001,2025-02-17_19h33.04.899,IAT(Formal),2021.2.3,Win32,60.24096386,,,,,,,,,,,,,,,,,,,,,,,,,,,,,,,,,,,,,,,,,,,,,,,,,,,,我的,i,,,i,1,0.6183,0,4,4,51,1,,
,,,,,,,,,,,,,,1 程凯盈,001,2025-02-17_19h33.04.899,IAT(Formal),2021.2.3,Win32,60.24096386,,,,,,,,,,,,,,,,,,,,,,,,,,,,,,,,,,,,,,,,,,,,,,,,,,,,其他,e,,,e,1,0.6555,0,5,5,79,1,,
,,,,,,,,,,,,,,1 程凯盈,001,2025-02-17_19h33.04.899,IAT(Formal),2021.2.3,Win32,60.24096386,,,,,,,,,,,,,,,,,,,,,,,,,,,,,,,,,,,,,,,,,,,,,,,,,,,,无私,e,,,e,1,0.7169,0,6,6,22,1,,
,,,,,,,,,,,,,,1 程凯盈,001,2025-02-17_19h33.04.899,IAT(Formal),2021.2.3,Win32,60.24096386,,,,,,,,,,,,,,,,,,,,,,,,,,,,,,,,,,,,,,,,,,,,,,,,,,,,杰出,e,,,e,1,0.5175,0,7,7,13,1,,
,,,,,,,,,,,,,,1 程凯盈,001,2025-02-17_19h33.04.899,IAT(Formal),2021.2.3,Win32,60.24096386,,,,,,,,,,,,,,,,,,,,,,,,,,,,,,,,,,,,,,,,,,,,,,,,,,,,其他,e,,,e,1,0.5862,0,8,8,59,1,,
,,,,,,,,,,,,,,1 程凯盈,001,2025-02-17_19h33.04.899,IAT(Formal),2021.2.3,Win32,60.24096386,,,,,,,,,,,,,,,,,,,,,,,,,,,,,,,,,,,,,,,,,,,,,,,,,,,,他人,e,,,e,1,0.5174,0,9,9,8,1,,
,,,,,,,,,,,,,,1 程凯盈,001,2025-02-17_19h33.04.899,IAT(Formal),2021.2.3,Win32,60.24096386,,,,,,,,,,,,,,,,,,,,,,,,,,,,,,,,,,,,,,,,,,,,,,,,,,,,乐观,e,,,e,1,0.6211,0,10,10,14,1,,
,,,,,,,,,,,,,,1 程凯盈,001,2025-02-17_19h33.04.899,IAT(Formal),2021.2.3,Win32,60.24096386,,,,,,,,,,,,,,,,,,,,,,,,,,,,,,,,,,,,,,,,,,,,,,,,,,,,他们,e,,,e,1,0.4424,0,11,11,76,1,,
,,,,,,,,,,,,,,1 程凯盈,001,2025-02-17_19h33.04.899,IAT(Formal),2021.2.3,Win32,60.24096386,,,,,,,,,,,,,,,,,,,,,,,,,,,,,,,,,,,,,,,,,,,,,,,,,,,,俺,i,,,i,1,0.6341,0,12,12,54,1,,
,,,,,,,,,,,,,,1 程凯盈,001,2025-02-17_19h33.04.899,IAT(Formal),2021.2.3,Win32,60.24096386,,,,,,,,,,,,,,,,,,,,,,,,,,,,,,,,,,,,,,,,,,,,,,,,,,,,他的,e,,,i,0,0.5286,0,13,13,77,1,,
,,,,,,,,,,,,,,1 程凯盈,001,2025-02-17_19h33.04.899,IAT(Formal),2021.2.3,Win32,60.24096386,,,,,,,,,,,,,,,,,,,,,,,,,,,,,,,,,,,,,,,,,,,,,,,,,,,,他的,e,,,e,1,0.3969,0,14,14,57,1,,
,,,,,,,,,,,,,,1 程凯盈,001,2025-02-17_19h33.04.899,IAT(Formal),2021.2.3,Win32,60.24096386,,,,,,,,,,,,,,,,,,,,,,,,,,,,,,,,,,,,,,,,,,,,,,,,,,,,卑鄙,i,,,i,1,0.6279,0,15,15,30,1,,
,,,,,,,,,,,,,,1 程凯盈,001,2025-02-17_19h33.04.899,IAT(Formal),2021.2.3,Win32,60.24096386,,,,,,,,,,,,,,,,,,,,,,,,,,,,,,,,,,,,,,,,,,,,,,,,,,,,他人,e,,,e,1,0.5581,0,16,16,78,1,,
,,,,,,,,,,,,,,1 程凯盈,001,2025-02-17_19h33.04.899,IAT(Formal),2021.2.3,Win32,60.24096386,,,,,,,,,,,,,,,,,,,,,,,,,,,,,,,,,,,,,,,,,,,,,,,,,,,,我们,i,,,i,1,0.616,0,17,17,2,1,,
,,,,,,,,,,,,,,1 程凯盈,001,2025-02-17_19h33.04.899,IAT(Formal),2021.2.3,Win32,60.24096386,,,,,,,,,,,,,,,,,,,,,,,,,,,,,,,,,,,,,,,,,,,,,,,,,,,,他们,e,,,e,1,0.6043,0,18,18,56,1,,
,,,,,,,,,,,,,,1 程凯盈,001,2025-02-17_19h33.04.899,IAT(Formal),2021.2.3,Win32,60.24096386,,,,,,,,,,,,,,,,,,,,,,,,,,,,,,,,,,,,,,,,,,,,,,,,,,,,俺,i,,,i,1,0.535,0,19,19,74,1,,
,,,,,,,,,,,,,,1 程凯盈,001,2025-02-17_19h33.04.899,IAT(Formal),2021.2.3,Win32,60.24096386,,,,,,,,,,,,,,,,,,,,,,,,,,,,,,,,,,,,,,,,,,,,,,,,,,,,冒失,i,,,i,1,0.555,0,20,20,39,1,,
,,,,,,,,,,,,,,1 程凯盈,001,2025-02-17_19h33.04.899,IAT(Formal),2021.2.3,Win32,60.24096386,,,,,,,,,,,,,,,,,,,,,,,,,,,,,,,,,,,,,,,,,,,,,,,,,,,,俺,i,,,i,1,0.5827,0,21,21,64,1,,
,,,,,,,,,,,,,,1 程凯盈,001,2025-02-17_19h33.04.899,IAT(Formal),2021.2.3,Win32,60.24096386,,,,,,,,,,,,,,,,,,,,,,,,,,,,,,,,,,,,,,,,,,,,,,,,,,,,自私,i,,,i,1,0.9004,0,22,22,43,1,,
,,,,,,,,,,,,,,1 程凯盈,001,2025-02-17_19h33.04.899,IAT(Formal),2021.2.3,Win32,60.24096386,,,,,,,,,,,,,,,,,,,,,,,,,,,,,,,,,,,,,,,,,,,,,,,,,,,,执拗,i,,,i,1,0.5358,0,23,23,40,1,,
,,,,,,,,,,,,,,1 程凯盈,001,2025-02-17_19h33.04.899,IAT(Formal),2021.2.3,Win32,60.24096386,,,,,,,,,,,,,,,,,,,,,,,,,,,,,,,,,,,,,,,,,,,,,,,,,,,,稳重,e,,,e,1,0.5669,0,24,24,21,1,,
,,,,,,,,,,,,,,1 程凯盈,001,2025-02-17_19h33.04.899,IAT(Formal),2021.2.3,Win32,60.24096386,,,,,,,,,,,,,,,,,,,,,,,,,,,,,,,,,,,,,,,,,,,,,,,,,,,,他,e,,,e,1,0.6835,0,25,25,5,1,,
,,,,,,,,,,,,,,1 程凯盈,001,2025-02-17_19h33.04.899,IAT(Formal),2021.2.3,Win32,60.24096386,,,,,,,,,,,,,,,,,,,,,,,,,,,,,,,,,,,,,,,,,,,,,,,,,,,,细腻,e,,,e,1,1.0839,0,26,26,25,1,,
,,,,,,,,,,,,,,1 程凯盈,001,2025-02-17_19h33.04.899,IAT(Formal),2021.2.3,Win32,60.24096386,,,,,,,,,,,,,,,,,,,,,,,,,,,,,,,,,,,,,,,,,,,,,,,,,,,,猖狂,i,,,i,1,0.6336,0,27,27,45,1,,
,,,,,,,,,,,,,,1 程凯盈,001,2025-02-17_19h33.04.899,IAT(Formal),2021.2.3,Win32,60.24096386,,,,,,,,,,,,,,,,,,,,,,,,,,,,,,,,,,,,,,,,,,,,,,,,,,,,傲慢,i,,,i,1,0.5418,0,28,28,37,1,,
,,,,,,,,,,,,,,1 程凯盈,001,2025-02-17_19h33.04.899,IAT(Formal),2021.2.3,Win32,60.24096386,,,,,,,,,,,,,,,,,,,,,,,,,,,,,,,,,,,,,,,,,,,,,,,,,,,,其他,e,,,e,1,0.518,0,29,29,9,1,,
,,,,,,,,,,,,,,1 程凯盈,001,2025-02-17_19h33.04.899,IAT(Formal),2021.2.3,Win32,60.24096386,,,,,,,,,,,,,,,,,,,,,,,,,,,,,,,,,,,,,,,,,,,,,,,,,,,,我,i,,,i,1,0.6173,0,30,30,70,1,,
,,,,,,,,,,,,,,1 程凯盈,001,2025-02-17_19h33.04.899,IAT(Formal),2021.2.3,Win32,60.24096386,,,,,,,,,,,,,,,,,,,,,,,,,,,,,,,,,,,,,,,,,,,,,,,,,,,,认真,e,,,e,1,0.6169,0,31,31,20,1,,
,,,,,,,,,,,,,,1 程凯盈,001,2025-02-17_19h33.04.899,IAT(Formal),2021.2.3,Win32,60.24096386,,,,,,,,,,,,,,,,,,,,,,,,,,,,,,,,,,,,,,,,,,,,,,,,,,,,他,e,,,e,1,1.1077,0,32,32,75,1,,
,,,,,,,,,,,,,,1 程凯盈,001,2025-02-17_19h33.04.899,IAT(Formal),2021.2.3,Win32,60.24096386,,,,,,,,,,,,,,,,,,,,,,,,,,,,,,,,,,,,,,,,,,,,,,,,,,,,热情,e,,,e,1,0.7558,0,33,33,27,1,,
,,,,,,,,,,,,,,1 程凯盈,001,2025-02-17_19h33.04.899,IAT(Formal),2021.2.3,Win32,60.24096386,,,,,,,,,,,,,,,,,,,,,,,,,,,,,,,,,,,,,,,,,,,,,,,,,,,,凶狠,i,,,i,1,0.5837,0,34,34,42,1,,
,,,,,,,,,,,,,,1 程凯盈,001,2025-02-17_19h33.04.899,IAT(Formal),2021.2.3,Win32,60.24096386,,,,,,,,,,,,,,,,,,,,,,,,,,,,,,,,,,,,,,,,,,,,,,,,,,,,轻率,i,,,i,1,0.6569,0,35,35,48,1,,
,,,,,,,,,,,,,,1 程凯盈,001,2025-02-17_19h33.04.899,IAT(Formal),2021.2.3,Win32,60.24096386,,,,,,,,,,,,,,,,,,,,,,,,,,,,,,,,,,,,,,,,,,,,,,,,,,,,消极,i,,,i,1,0.6044,0,36,36,35,1,,
,,,,,,,,,,,,,,1 程凯盈,001,2025-02-17_19h33.04.899,IAT(Formal),2021.2.3,Win32,60.24096386,,,,,,,,,,,,,,,,,,,,,,,,,,,,,,,,,,,,,,,,,,,,,,,,,,,,勇敢,e,,,e,1,0.6021,0,37,37,17,1,,
,,,,,,,,,,,,,,1 程凯盈,001,2025-02-17_19h33.04.899,IAT(Formal),2021.2.3,Win32,60.24096386,,,,,,,,,,,,,,,,,,,,,,,,,,,,,,,,,,,,,,,,,,,,,,,,,,,,鲁莽,i,,,i,1,0.6564,0,38,38,38,1,,
,,,,,,,,,,,,,,1 程凯盈,001,2025-02-17_19h33.04.899,IAT(Formal),2021.2.3,Win32,60.24096386,,,,,,,,,,,,,,,,,,,,,,,,,,,,,,,,,,,,,,,,,,,,,,,,,,,,诚恳,e,,,e,1,0.5846,0,39,39,29,1,,
,,,,,,,,,,,,,,1 程凯盈,001,2025-02-17_19h33.04.899,IAT(Formal),2021.2.3,Win32,60.24096386,,,,,,,,,,,,,,,,,,,,,,,,,,,,,,,,,,,,,,,,,,,,,,,,,,,,活泼,e,,,e,1,0.5405,0,40,40,28,1,,
,,,,,,,,,,,,,,1 程凯盈,001,2025-02-17_19h33.04.899,IAT(Formal),2021.2.3,Win32,60.24096386,,,,,,,,,,,,,,,,,,,,,,,,,,,,,,,,,,,,,,,,,,,,,,,,,,,,我的,i,,,e,0,0.4895,0,41,41,1,1,,
,,,,,,,,,,,,,,1 程凯盈,001,2025-02-17_19h33.04.899,IAT(Formal),2021.2.3,Win32,60.24096386,,,,,,,,,,,,,,,,,,,,,,,,,,,,,,,,,,,,,,,,,,,,,,,,,,,,他人,e,,,e,1,0.5511,0,42,42,58,1,,
,,,,,,,,,,,,,,1 程凯盈,001,2025-02-17_19h33.04.899,IAT(Formal),2021.2.3,Win32,60.24096386,,,,,,,,,,,,,,,,,,,,,,,,,,,,,,,,,,,,,,,,,,,,,,,,,,,,我的,i,,,i,1,0.6494,0,43,43,61,1,,
,,,,,,,,,,,,,,1 程凯盈,001,2025-02-17_19h33.04.899,IAT(Formal),2021.2.3,Win32,60.24096386,,,,,,,,,,,,,,,,,,,,,,,,,,,,,,,,,,,,,,,,,,,,,,,,,,,,自卑,i,,,i,1,0.8508,0,44,44,36,1,,
,,,,,,,,,,,,,,1 程凯盈,001,2025-02-17_19h33.04.899,IAT(Formal),2021.2.3,Win32,60.24096386,,,,,,,,,,,,,,,,,,,,,,,,,,,,,,,,,,,,,,,,,,,,,,,,,,,,其他,e,,,e,1,0.5362,0,45,45,69,1,,
,,,,,,,,,,,,,,1 程凯盈,001,2025-02-17_19h33.04.899,IAT(Formal),2021.2.3,Win32,60.24096386,,,,,,,,,,,,,,,,,,,,,,,,,,,,,,,,,,,,,,,,,,,,,,,,,,,,自己,i,,,i,1,0.5628,0,46,46,73,1,,
,,,,,,,,,,,,,,1 程凯盈,001,2025-02-17_19h33.04.899,IAT(Formal),2021.2.3,Win32,60.24096386,,,,,,,,,,,,,,,,,,,,,,,,,,,,,,,,,,,,,,,,,,,,,,,,,,,,公正,e,,,e,1,0.8748,0,47,47,23,1,,
,,,,,,,,,,,,,,1 程凯盈,001,2025-02-17_19h33.04.899,IAT(Formal),2021.2.3,Win32,60.24096386,,,,,,,,,,,,,,,,,,,,,,,,,,,,,,,,,,,,,,,,,,,,,,,,,,,,散漫,i,,,i,1,0.5458,0,48,48,41,1,,
,,,,,,,,,,,,,,1 程凯盈,001,2025-02-17_19h33.04.899,IAT(Formal),2021.2.3,Win32,60.24096386,,,,,,,,,,,,,,,,,,,,,,,,,,,,,,,,,,,,,,,,,,,,,,,,,,,,我,i,,,e,0,0.8022,0,49,49,0,1,,
,,,,,,,,,,,,,,1 程凯盈,001,2025-02-17_19h33.04.899,IAT(Formal),2021.2.3,Win32,60.24096386,,,,,,,,,,,,,,,,,,,,,,,,,,,,,,,,,,,,,,,,,,,,,,,,,,,,野蛮,i,,,i,1,1.1338,0,50,50,46,1,,
,,,,,,,,,,,,,,1 程凯盈,001,2025-02-17_19h33.04.899,IAT(Formal),2021.2.3,Win32,60.24096386,,,,,,,,,,,,,,,,,,,,,,,,,,,,,,,,,,,,,,,,,,,,,,,,,,,,暴躁,i,,,i,1,0.5545,0,51,51,44,1,,
,,,,,,,,,,,,,,1 程凯盈,001,2025-02-17_19h33.04.899,IAT(Formal),2021.2.3,Win32,60.24096386,,,,,,,,,,,,,,,,,,,,,,,,,,,,,,,,,,,,,,,,,,,,,,,,,,,,我的,i,,,i,1,0.5388,0,52,52,71,1,,
,,,,,,,,,,,,,,1 程凯盈,001,2025-02-17_19h33.04.899,IAT(Formal),2021.2.3,Win32,60.24096386,,,,,,,,,,,,,,,,,,,,,,,,,,,,,,,,,,,,,,,,,,,,,,,,,,,,他人,e,,,e,1,0.5697,0,53,53,68,1,,
,,,,,,,,,,,,,,1 程凯盈,001,2025-02-17_19h33.04.899,IAT(Formal),2021.2.3,Win32,60.24096386,,,,,,,,,,,,,,,,,,,,,,,,,,,,,,,,,,,,,,,,,,,,,,,,,,,,优秀,e,,,e,1,0.6176,0,54,54,10,1,,
,,,,,,,,,,,,,,1 程凯盈,001,2025-02-17_19h33.04.899,IAT(Formal),2021.2.3,Win32,60.24096386,,,,,,,,,,,,,,,,,,,,,,,,,,,,,,,,,,,,,,,,,,,,,,,,,,,,我,i,,,i,1,0.5619,0,55,55,60,1,,
,,,,,,,,,,,,,,1 程凯盈,001,2025-02-17_19h33.04.899,IAT(Formal),2021.2.3,Win32,60.24096386,,,,,,,,,,,,,,,,,,,,,,,,,,,,,,,,,,,,,,,,,,,,,,,,,,,,我们,i,,,i,1,0.4672,0,56,56,72,1,,
,,,,,,,,,,,,,,1 程凯盈,001,2025-02-17_19h33.04.899,IAT(Formal),2021.2.3,Win32,60.24096386,,,,,,,,,,,,,,,,,,,,,,,,,,,,,,,,,,,,,,,,,,,,,,,,,,,,正直,e,,,e,1,0.9055,0,57,57,16,1,,
,,,,,,,,,,,,,,1 程凯盈,001,2025-02-17_19h33.04.899,IAT(Formal),2021.2.3,Win32,60.24096386,,,,,,,,,,,,,,,,,,,,,,,,,,,,,,,,,,,,,,,,,,,,,,,,,,,,崇高,e,,,e,1,1.116,0,58,58,11,1,,
,,,,,,,,,,,,,,1 程凯盈,001,2025-02-17_19h33.04.899,IAT(Formal),2021.2.3,Win32,60.24096386,,,,,,,,,,,,,,,,,,,,,,,,,,,,,,,,,,,,,,,,,,,,,,,,,,,,我,i,,,i,1,0.9527,0,59,59,50,1,,
,,,,,,,,,,,,,,1 程凯盈,001,2025-02-17_19h33.04.899,IAT(Formal),2021.2.3,Win32,60.24096386,,,,,,,,,,,,,,,,,,,,,,,,,,,,,,,,,,,,,,,,,,,,,,,,,,,,俺,i,,,i,1,0.6069,0,60,60,4,1,,
,,,,,,,,,,,,,,1 程凯盈,001,2025-02-17_19h33.04.899,IAT(Formal),2021.2.3,Win32,60.24096386,,,,,,,,,,,,,,,,,,,,,,,,,,,,,,,,,,,,,,,,,,,,,,,,,,,,自己,i,,,i,1,0.5193,0,61,61,53,1,,
,,,,,,,,,,,,,,1 程凯盈,001,2025-02-17_19h33.04.899,IAT(Formal),2021.2.3,Win32,60.24096386,,,,,,,,,,,,,,,,,,,,,,,,,,,,,,,,,,,,,,,,,,,,,,,,,,,,刻薄,i,,,i,1,0.8118,0,62,62,33,1,,
,,,,,,,,,,,,,,1 程凯盈,001,2025-02-17_19h33.04.899,IAT(Formal),2021.2.3,Win32,60.24096386,,,,,,,,,,,,,,,,,,,,,,,,,,,,,,,,,,,,,,,,,,,,,,,,,,,,固执,i,,,i,1,0.7889,0,63,63,47,1,,
,,,,,,,,,,,,,,1 程凯盈,001,2025-02-17_19h33.04.899,IAT(Formal),2021.2.3,Win32,60.24096386,,,,,,,,,,,,,,,,,,,,,,,,,,,,,,,,,,,,,,,,,,,,,,,,,,,,他们,e,,,e,1,0.9133,0,64,64,66,1,,
,,,,,,,,,,,,,,1 程凯盈,001,2025-02-17_19h33.04.899,IAT(Formal),2021.2.3,Win32,60.24096386,,,,,,,,,,,,,,,,,,,,,,,,,,,,,,,,,,,,,,,,,,,,,,,,,,,,自己,i,,,i,1,0.7265,0,65,65,63,1,,
,,,,,,,,,,,,,,1 程凯盈,001,2025-02-17_19h33.04.899,IAT(Formal),2021.2.3,Win32,60.24096386,,,,,,,,,,,,,,,,,,,,,,,,,,,,,,,,,,,,,,,,,,,,,,,,,,,,我们,i,,,i,1,0.5411,0,66,66,62,1,,
,,,,,,,,,,,,,,1 程凯盈,001,2025-02-17_19h33.04.899,IAT(Formal),2021.2.3,Win32,60.24096386,,,,,,,,,,,,,,,,,,,,,,,,,,,,,,,,,,,,,,,,,,,,,,,,,,,,自己,i,,,i,1,0.567,0,67,67,3,1,,
,,,,,,,,,,,,,,1 程凯盈,001,2025-02-17_19h33.04.899,IAT(Formal),2021.2.3,Win32,60.24096386,,,,,,,,,,,,,,,,,,,,,,,,,,,,,,,,,,,,,,,,,,,,,,,,,,,,他的,e,,,e,1,1.3911,0,68,68,67,1,,
,,,,,,,,,,,,,,1 程凯盈,001,2025-02-17_19h33.04.899,IAT(Formal),2021.2.3,Win32,60.24096386,,,,,,,,,,,,,,,,,,,,,,,,,,,,,,,,,,,,,,,,,,,,,,,,,,,,他的,e,,,e,1,0.4227,0,69,69,7,1,,
,,,,,,,,,,,,,,1 程凯盈,001,2025-02-17_19h33.04.899,IAT(Formal),2021.2.3,Win32,60.24096386,,,,,,,,,,,,,,,,,,,,,,,,,,,,,,,,,,,,,,,,,,,,,,,,,,,,下贱,i,,,i,1,0.6001,0,70,70,49,1,,
,,,,,,,,,,,,,,1 程凯盈,001,2025-02-17_19h33.04.899,IAT(Formal),2021.2.3,Win32,60.24096386,,,,,,,,,,,,,,,,,,,,,,,,,,,,,,,,,,,,,,,,,,,,,,,,,,,,他,e,,,e,1,0.7009,0,71,71,65,1,,
,,,,,,,,,,,,,,1 程凯盈,001,2025-02-17_19h33.04.899,IAT(Formal),2021.2.3,Win32,60.24096386,,,,,,,,,,,,,,,,,,,,,,,,,,,,,,,,,,,,,,,,,,,,,,,,,,,,聪明,e,,,e,1,0.5701,0,72,72,12,1,,
,,,,,,,,,,,,,,1 程凯盈,001,2025-02-17_19h33.04.899,IAT(Formal),2021.2.3,Win32,60.24096386,,,,,,,,,,,,,,,,,,,,,,,,,,,,,,,,,,,,,,,,,,,,,,,,,,,,他们,e,,,e,1,1.1447,0,73,73,6,1,,
,,,,,,,,,,,,,,1 程凯盈,001,2025-02-17_19h33.04.899,IAT(Formal),2021.2.3,Win32,60.24096386,,,,,,,,,,,,,,,,,,,,,,,,,,,,,,,,,,,,,,,,,,,,,,,,,,,,勤奋,e,,,e,1,0.5734,0,74,74,18,1,,
,,,,,,,,,,,,,,1 程凯盈,001,2025-02-17_19h33.04.899,IAT(Formal),2021.2.3,Win32,60.24096386,,,,,,,,,,,,,,,,,,,,,,,,,,,,,,,,,,,,,,,,,,,,,,,,,,,,愚蠢,i,,,i,1,0.7208,0,75,75,32,1,,
,,,,,,,,,,,,,,1 程凯盈,001,2025-02-17_19h33.04.899,IAT(Formal),2021.2.3,Win32,60.24096386,,,,,,,,,,,,,,,,,,,,,,,,,,,,,,,,,,,,,,,,,,,,,,,,,,,,我们,i,,,e,0,0.5868,0,76,76,52,1,,
,,,,,,,,,,,,,,1 程凯盈,001,2025-02-17_19h33.04.899,IAT(Formal),2021.2.3,Win32,60.24096386,,,,,,,,,,,,,,,,,,,,,,,,,,,,,,,,,,,,,,,,,,,,,,,,,,,,机智,e,,,e,1,0.9,0,77,77,19,1,,
,,,,,,,,,,,,,,1 程凯盈,001,2025-02-17_19h33.04.899,IAT(Formal),2021.2.3,Win32,60.24096386,,,,,,,,,,,,,,,,,,,,,,,,,,,,,,,,,,,,,,,,,,,,,,,,,,,,诚实,e,,,e,1,0.5769,0,78,78,15,1,,
,,,,,,,,,,,,,,1 程凯盈,001,2025-02-17_19h33.04.899,IAT(Formal),2021.2.3,Win32,60.24096386,,,,,,,,,,,,,,,,,,,,,,,,,,,,,,,,,,,,,,,,,,,,,,,,,,,,他,e,,,e,1,0.656,0,79,79,55,1,,
,,,,,,,,,,,,,,1 程凯盈,001,2025-02-17_19h33.04.899,IAT(Formal),2021.2.3,Win32,60.24096386,,,,,,,,,,,,,,,,,,,,,,,,,,,,,,,,,,,,,,,,,,,,,,,,,,,,卑鄙,i,,,i,1,0.6182,1,0,80,30,1,,
,,,,,,,,,,,,,,1 程凯盈,001,2025-02-17_19h33.04.899,IAT(Formal),2021.2.3,Win32,60.24096386,,,,,,,,,,,,,,,,,,,,,,,,,,,,,,,,,,,,,,,,,,,,,,,,,,,,我,i,,,i,1,1.0854,1,1,81,50,1,,
,,,,,,,,,,,,,,1 程凯盈,001,2025-02-17_19h33.04.899,IAT(Formal),2021.2.3,Win32,60.24096386,,,,,,,,,,,,,,,,,,,,,,,,,,,,,,,,,,,,,,,,,,,,,,,,,,,,俺,i,,,i,1,0.6518,1,2,82,4,1,,
,,,,,,,,,,,,,,1 程凯盈,001,2025-02-17_19h33.04.899,IAT(Formal),2021.2.3,Win32,60.24096386,,,,,,,,,,,,,,,,,,,,,,,,,,,,,,,,,,,,,,,,,,,,,,,,,,,,消极,i,,,e,0,0.7855,1,3,83,35,1,,
,,,,,,,,,,,,,,1 程凯盈,001,2025-02-17_19h33.04.899,IAT(Formal),2021.2.3,Win32,60.24096386,,,,,,,,,,,,,,,,,,,,,,,,,,,,,,,,,,,,,,,,,,,,,,,,,,,,朴实,e,,,e,1,0.7842,1,4,84,24,1,,
,,,,,,,,,,,,,,1 程凯盈,001,2025-02-17_19h33.04.899,IAT(Formal),2021.2.3,Win32,60.24096386,,,,,,,,,,,,,,,,,,,,,,,,,,,,,,,,,,,,,,,,,,,,,,,,,,,,其他,e,,,e,1,0.6119,1,5,85,9,1,,
,,,,,,,,,,,,,,1 程凯盈,001,2025-02-17_19h33.04.899,IAT(Formal),2021.2.3,Win32,60.24096386,,,,,,,,,,,,,,,,,,,,,,,,,,,,,,,,,,,,,,,,,,,,,,,,,,,,崇高,e,,,e,1,0.568,1,6,86,11,1,,
,,,,,,,,,,,,,,1 程凯盈,001,2025-02-17_19h33.04.899,IAT(Formal),2021.2.3,Win32,60.24096386,,,,,,,,,,,,,,,,,,,,,,,,,,,,,,,,,,,,,,,,,,,,,,,,,,,,虚伪,i,,,i,1,0.6369,1,7,87,31,1,,
,,,,,,,,,,,,,,1 程凯盈,001,2025-02-17_19h33.04.899,IAT(Formal),2021.2.3,Win32,60.24096386,,,,,,,,,,,,,,,,,,,,,,,,,,,,,,,,,,,,,,,,,,,,,,,,,,,,公正,e,,,e,1,0.6697,1,8,88,23,1,,
,,,,,,,,,,,,,,1 程凯盈,001,2025-02-17_19h33.04.899,IAT(Formal),2021.2.3,Win32,60.24096386,,,,,,,,,,,,,,,,,,,,,,,,,,,,,,,,,,,,,,,,,,,,,,,,,,,,他人,e,,,e,1,0.5558,1,9,89,78,1,,
,,,,,,,,,,,,,,1 程凯盈,001,2025-02-17_19h33.04.899,IAT(Formal),2021.2.3,Win32,60.24096386,,,,,,,,,,,,,,,,,,,,,,,,,,,,,,,,,,,,,,,,,,,,,,,,,,,,他的,e,,,e,1,0.8675,1,10,90,57,1,,
,,,,,,,,,,,,,,1 程凯盈,001,2025-02-17_19h33.04.899,IAT(Formal),2021.2.3,Win32,60.24096386,,,,,,,,,,,,,,,,,,,,,,,,,,,,,,,,,,,,,,,,,,,,,,,,,,,,勇敢,e,,,e,1,0.5877,1,11,91,17,1,,
,,,,,,,,,,,,,,1 程凯盈,001,2025-02-17_19h33.04.899,IAT(Formal),2021.2.3,Win32,60.24096386,,,,,,,,,,,,,,,,,,,,,,,,,,,,,,,,,,,,,,,,,,,,,,,,,,,,固执,i,,,i,1,0.718,1,12,92,47,1,,
,,,,,,,,,,,,,,1 程凯盈,001,2025-02-17_19h33.04.899,IAT(Formal),2021.2.3,Win32,60.24096386,,,,,,,,,,,,,,,,,,,,,,,,,,,,,,,,,,,,,,,,,,,,,,,,,,,,野蛮,i,,,i,1,0.6237,1,13,93,46,1,,
,,,,,,,,,,,,,,1 程凯盈,001,2025-02-17_19h33.04.899,IAT(Formal),2021.2.3,Win32,60.24096386,,,,,,,,,,,,,,,,,,,,,,,,,,,,,,,,,,,,,,,,,,,,,,,,,,,,自私,i,,,i,1,1.0463,1,14,94,43,1,,
,,,,,,,,,,,,,,1 程凯盈,001,2025-02-17_19h33.04.899,IAT(Formal),2021.2.3,Win32,60.24096386,,,,,,,,,,,,,,,,,,,,,,,,,,,,,,,,,,,,,,,,,,,,,,,,,,,,自卑,i,,,i,1,0.5513,1,15,95,36,1,,
,,,,,,,,,,,,,,1 程凯盈,001,2025-02-17_19h33.04.899,IAT(Formal),2021.2.3,Win32,60.24096386,,,,,,,,,,,,,,,,,,,,,,,,,,,,,,,,,,,,,,,,,,,,,,,,,,,,优秀,e,,,e,1,0.5374,1,16,96,10,1,,
,,,,,,,,,,,,,,1 程凯盈,001,2025-02-17_19h33.04.899,IAT(Formal),2021.2.3,Win32,60.24096386,,,,,,,,,,,,,,,,,,,,,,,,,,,,,,,,,,,,,,,,,,,,,,,,,,,,凶狠,i,,,i,1,0.5384,1,17,97,42,1,,
,,,,,,,,,,,,,,1 程凯盈,001,2025-02-17_19h33.04.899,IAT(Formal),2021.2.3,Win32,60.24096386,,,,,,,,,,,,,,,,,,,,,,,,,,,,,,,,,,,,,,,,,,,,,,,,,,,,俺,i,,,i,1,0.6064,1,18,98,74,1,,
,,,,,,,,,,,,,,1 程凯盈,001,2025-02-17_19h33.04.899,IAT(Formal),2021.2.3,Win32,60.24096386,,,,,,,,,,,,,,,,,,,,,,,,,,,,,,,,,,,,,,,,,,,,,,,,,,,,自己,i,,,i,1,0.5167,1,19,99,63,1,,
,,,,,,,,,,,,,,1 程凯盈,001,2025-02-17_19h33.04.899,IAT(Formal),2021.2.3,Win32,60.24096386,,,,,,,,,,,,,,,,,,,,,,,,,,,,,,,,,,,,,,,,,,,,,,,,,,,,我,i,,,i,1,0.5161,1,20,100,60,1,,
,,,,,,,,,,,,,,1 程凯盈,001,2025-02-17_19h33.04.899,IAT(Formal),2021.2.3,Win32,60.24096386,,,,,,,,,,,,,,,,,,,,,,,,,,,,,,,,,,,,,,,,,,,,,,,,,,,,鲁莽,i,,,i,1,0.5608,1,21,101,38,1,,
,,,,,,,,,,,,,,1 程凯盈,001,2025-02-17_19h33.04.899,IAT(Formal),2021.2.3,Win32,60.24096386,,,,,,,,,,,,,,,,,,,,,,,,,,,,,,,,,,,,,,,,,,,,,,,,,,,,我,i,,,i,1,0.6495,1,22,102,0,1,,
,,,,,,,,,,,,,,1 程凯盈,001,2025-02-17_19h33.04.899,IAT(Formal),2021.2.3,Win32,60.24096386,,,,,,,,,,,,,,,,,,,,,,,,,,,,,,,,,,,,,,,,,,,,,,,,,,,,诚恳,e,,,e,1,1.2669,1,23,103,29,1,,
,,,,,,,,,,,,,,1 程凯盈,001,2025-02-17_19h33.04.899,IAT(Formal),2021.2.3,Win32,60.24096386,,,,,,,,,,,,,,,,,,,,,,,,,,,,,,,,,,,,,,,,,,,,,,,,,,,,他们,e,,,e,1,0.5013,1,24,104,6,1,,
,,,,,,,,,,,,,,1 程凯盈,001,2025-02-17_19h33.04.899,IAT(Formal),2021.2.3,Win32,60.24096386,,,,,,,,,,,,,,,,,,,,,,,,,,,,,,,,,,,,,,,,,,,,,,,,,,,,他人,e,,,e,1,0.8069,1,25,105,8,1,,
,,,,,,,,,,,,,,1 程凯盈,001,2025-02-17_19h33.04.899,IAT(Formal),2021.2.3,Win32,60.24096386,,,,,,,,,,,,,,,,,,,,,,,,,,,,,,,,,,,,,,,,,,,,,,,,,,,,他,e,,,e,1,0.6955,1,26,106,5,1,,
,,,,,,,,,,,,,,1 程凯盈,001,2025-02-17_19h33.04.899,IAT(Formal),2021.2.3,Win32,60.24096386,,,,,,,,,,,,,,,,,,,,,,,,,,,,,,,,,,,,,,,,,,,,,,,,,,,,傲慢,i,,,i,1,0.6028,1,27,107,37,1,,
,,,,,,,,,,,,,,1 程凯盈,001,2025-02-17_19h33.04.899,IAT(Formal),2021.2.3,Win32,60.24096386,,,,,,,,,,,,,,,,,,,,,,,,,,,,,,,,,,,,,,,,,,,,,,,,,,,,活泼,e,,,e,1,0.6671,1,28,108,28,1,,
,,,,,,,,,,,,,,1 程凯盈,001,2025-02-17_19h33.04.899,IAT(Formal),2021.2.3,Win32,60.24096386,,,,,,,,,,,,,,,,,,,,,,,,,,,,,,,,,,,,,,,,,,,,,,,,,,,,勤奋,e,,,e,1,0.4766,1,29,109,18,1,,
,,,,,,,,,,,,,,1 程凯盈,001,2025-02-17_19h33.04.899,IAT(Formal),2021.2.3,Win32,60.24096386,,,,,,,,,,,,,,,,,,,,,,,,,,,,,,,,,,,,,,,,,,,,,,,,,,,,执拗,i,,,i,1,0.6571,1,30,110,40,1,,
,,,,,,,,,,,,,,1 程凯盈,001,2025-02-17_19h33.04.899,IAT(Formal),2021.2.3,Win32,60.24096386,,,,,,,,,,,,,,,,,,,,,,,,,,,,,,,,,,,,,,,,,,,,,,,,,,,,自己,i,,,i,1,0.9699,1,31,111,53,1,,
,,,,,,,,,,,,,,1 程凯盈,001,2025-02-17_19h33.04.899,IAT(Formal),2021.2.3,Win32,60.24096386,,,,,,,,,,,,,,,,,,,,,,,,,,,,,,,,,,,,,,,,,,,,,,,,,,,,俺,i,,,i,1,0.5503,1,32,112,64,1,,
,,,,,,,,,,,,,,1 程凯盈,001,2025-02-17_19h33.04.899,IAT(Formal),2021.2.3,Win32,60.24096386,,,,,,,,,,,,,,,,,,,,,,,,,,,,,,,,,,,,,,,,,,,,,,,,,,,,我的,i,,,i,1,0.4911,1,33,113,71,1,,
,,,,,,,,,,,,,,1 程凯盈,001,2025-02-17_19h33.04.899,IAT(Formal),2021.2.3,Win32,60.24096386,,,,,,,,,,,,,,,,,,,,,,,,,,,,,,,,,,,,,,,,,,,,,,,,,,,,乐观,e,,,i,0,0.7077,1,34,114,14,1,,
,,,,,,,,,,,,,,1 程凯盈,001,2025-02-17_19h33.04.899,IAT(Formal),2021.2.3,Win32,60.24096386,,,,,,,,,,,,,,,,,,,,,,,,,,,,,,,,,,,,,,,,,,,,,,,,,,,,愚蠢,i,,,i,1,0.5686,1,35,115,32,1,,
,,,,,,,,,,,,,,1 程凯盈,001,2025-02-17_19h33.04.899,IAT(Formal),2021.2.3,Win32,60.24096386,,,,,,,,,,,,,,,,,,,,,,,,,,,,,,,,,,,,,,,,,,,,,,,,,,,,轻率,i,,,i,1,0.5786,1,36,116,48,1,,
,,,,,,,,,,,,,,1 程凯盈,001,2025-02-17_19h33.04.899,IAT(Formal),2021.2.3,Win32,60.24096386,,,,,,,,,,,,,,,,,,,,,,,,,,,,,,,,,,,,,,,,,,,,,,,,,,,,自己,i,,,i,1,0.6664,1,37,117,73,1,,
,,,,,,,,,,,,,,1 程凯盈,001,2025-02-17_19h33.04.899,IAT(Formal),2021.2.3,Win32,60.24096386,,,,,,,,,,,,,,,,,,,,,,,,,,,,,,,,,,,,,,,,,,,,,,,,,,,,我的,i,,,i,1,0.5041,1,38,118,1,1,,
,,,,,,,,,,,,,,1 程凯盈,001,2025-02-17_19h33.04.899,IAT(Formal),2021.2.3,Win32,60.24096386,,,,,,,,,,,,,,,,,,,,,,,,,,,,,,,,,,,,,,,,,,,,,,,,,,,,暴躁,i,,,i,1,0.5633,1,39,119,44,1,,
,,,,,,,,,,,,,,1 程凯盈,001,2025-02-17_19h33.04.899,IAT(Formal),2021.2.3,Win32,60.24096386,,,,,,,,,,,,,,,,,,,,,,,,,,,,,,,,,,,,,,,,,,,,,,,,,,,,悲观,i,,,i,1,0.6408,1,40,120,34,1,,
,,,,,,,,,,,,,,1 程凯盈,001,2025-02-17_19h33.04.899,IAT(Formal),2021.2.3,Win32,60.24096386,,,,,,,,,,,,,,,,,,,,,,,,,,,,,,,,,,,,,,,,,,,,,,,,,,,,冷静,e,,,i,0,0.6224,1,41,121,26,1,,
,,,,,,,,,,,,,,1 程凯盈,001,2025-02-17_19h33.04.899,IAT(Formal),2021.2.3,Win32,60.24096386,,,,,,,,,,,,,,,,,,,,,,,,,,,,,,,,,,,,,,,,,,,,,,,,,,,,细腻,e,,,e,1,0.55,1,42,122,25,1,,
,,,,,,,,,,,,,,1 程凯盈,001,2025-02-17_19h33.04.899,IAT(Formal),2021.2.3,Win32,60.24096386,,,,,,,,,,,,,,,,,,,,,,,,,,,,,,,,,,,,,,,,,,,,,,,,,,,,我的,i,,,i,1,0.5681,1,43,123,61,1,,
,,,,,,,,,,,,,,1 程凯盈,001,2025-02-17_19h33.04.899,IAT(Formal),2021.2.3,Win32,60.24096386,,,,,,,,,,,,,,,,,,,,,,,,,,,,,,,,,,,,,,,,,,,,,,,,,,,,我们,i,,,i,1,0.6166,1,44,124,62,1,,
,,,,,,,,,,,,,,1 程凯盈,001,2025-02-17_19h33.04.899,IAT(Formal),2021.2.3,Win32,60.24096386,,,,,,,,,,,,,,,,,,,,,,,,,,,,,,,,,,,,,,,,,,,,,,,,,,,,他的,e,,,e,1,0.5606,1,45,125,7,1,,
,,,,,,,,,,,,,,1 程凯盈,001,2025-02-17_19h33.04.899,IAT(Formal),2021.2.3,Win32,60.24096386,,,,,,,,,,,,,,,,,,,,,,,,,,,,,,,,,,,,,,,,,,,,,,,,,,,,他们,e,,,e,1,0.4103,1,46,126,66,1,,
,,,,,,,,,,,,,,1 程凯盈,001,2025-02-17_19h33.04.899,IAT(Formal),2021.2.3,Win32,60.24096386,,,,,,,,,,,,,,,,,,,,,,,,,,,,,,,,,,,,,,,,,,,,,,,,,,,,其他,e,,,e,1,0.4723,1,47,127,59,1,,
,,,,,,,,,,,,,,1 程凯盈,001,2025-02-17_19h33.04.899,IAT(Formal),2021.2.3,Win32,60.24096386,,,,,,,,,,,,,,,,,,,,,,,,,,,,,,,,,,,,,,,,,,,,,,,,,,,,他,e,,,e,1,0.5568,1,48,128,65,1,,
,,,,,,,,,,,,,,1 程凯盈,001,2025-02-17_19h33.04.899,IAT(Formal),2021.2.3,Win32,60.24096386,,,,,,,,,,,,,,,,,,,,,,,,,,,,,,,,,,,,,,,,,,,,,,,,,,,,机智,e,,,e,1,1.0024,1,49,129,19,1,,
,,,,,,,,,,,,,,1 程凯盈,001,2025-02-17_19h33.04.899,IAT(Formal),2021.2.3,Win32,60.24096386,,,,,,,,,,,,,,,,,,,,,,,,,,,,,,,,,,,,,,,,,,,,,,,,,,,,自己,i,,,i,1,0.792,1,50,130,3,1,,
,,,,,,,,,,,,,,1 程凯盈,001,2025-02-17_19h33.04.899,IAT(Formal),2021.2.3,Win32,60.24096386,,,,,,,,,,,,,,,,,,,,,,,,,,,,,,,,,,,,,,,,,,,,,,,,,,,,他人,e,,,e,1,0.6373,1,51,131,58,1,,
,,,,,,,,,,,,,,1 程凯盈,001,2025-02-17_19h33.04.899,IAT(Formal),2021.2.3,Win32,60.24096386,,,,,,,,,,,,,,,,,,,,,,,,,,,,,,,,,,,,,,,,,,,,,,,,,,,,他们,e,,,e,1,1.3341,1,52,132,76,1,,
,,,,,,,,,,,,,,1 程凯盈,001,2025-02-17_19h33.04.899,IAT(Formal),2021.2.3,Win32,60.24096386,,,,,,,,,,,,,,,,,,,,,,,,,,,,,,,,,,,,,,,,,,,,,,,,,,,,我们,i,,,i,1,0.5835,1,53,133,2,1,,
,,,,,,,,,,,,,,1 程凯盈,001,2025-02-17_19h33.04.899,IAT(Formal),2021.2.3,Win32,60.24096386,,,,,,,,,,,,,,,,,,,,,,,,,,,,,,,,,,,,,,,,,,,,,,,,,,,,俺,i,,,i,1,0.5836,1,54,134,54,1,,
,,,,,,,,,,,,,,1 程凯盈,001,2025-02-17_19h33.04.899,IAT(Formal),2021.2.3,Win32,60.24096386,,,,,,,,,,,,,,,,,,,,,,,,,,,,,,,,,,,,,,,,,,,,,,,,,,,,他的,e,,,e,1,0.568,1,55,135,77,1,,
,,,,,,,,,,,,,,1 程凯盈,001,2025-02-17_19h33.04.899,IAT(Formal),2021.2.3,Win32,60.24096386,,,,,,,,,,,,,,,,,,,,,,,,,,,,,,,,,,,,,,,,,,,,,,,,,,,,热情,e,,,e,1,0.7496,1,56,136,27,1,,
,,,,,,,,,,,,,,1 程凯盈,001,2025-02-17_19h33.04.899,IAT(Formal),2021.2.3,Win32,60.24096386,,,,,,,,,,,,,,,,,,,,,,,,,,,,,,,,,,,,,,,,,,,,,,,,,,,,他,e,,,e,1,1.1582,1,57,137,55,1,,
,,,,,,,,,,,,,,1 程凯盈,001,2025-02-17_19h33.04.899,IAT(Formal),2021.2.3,Win32,60.24096386,,,,,,,,,,,,,,,,,,,,,,,,,,,,,,,,,,,,,,,,,,,,,,,,,,,,其他,e,,,e,1,1.3454,1,58,138,69,1,,
,,,,,,,,,,,,,,1 程凯盈,001,2025-02-17_19h33.04.899,IAT(Formal),2021.2.3,Win32,60.24096386,,,,,,,,,,,,,,,,,,,,,,,,,,,,,,,,,,,,,,,,,,,,,,,,,,,,他的,e,,,e,1,1.0509,1,59,139,67,1,,
,,,,,,,,,,,,,,1 程凯盈,001,2025-02-17_19h33.04.899,IAT(Formal),2021.2.3,Win32,60.24096386,,,,,,,,,,,,,,,,,,,,,,,,,,,,,,,,,,,,,,,,,,,,,,,,,,,,我们,i,,,i,1,0.5912,1,60,140,52,1,,
,,,,,,,,,,,,,,1 程凯盈,001,2025-02-17_19h33.04.899,IAT(Formal),2021.2.3,Win32,60.24096386,,,,,,,,,,,,,,,,,,,,,,,,,,,,,,,,,,,,,,,,,,,,,,,,,,,,猖狂,i,,,i,1,0.6005,1,61,141,45,1,,
,,,,,,,,,,,,,,1 程凯盈,001,2025-02-17_19h33.04.899,IAT(Formal),2021.2.3,Win32,60.24096386,,,,,,,,,,,,,,,,,,,,,,,,,,,,,,,,,,,,,,,,,,,,,,,,,,,,刻薄,i,,,i,1,0.5873,1,62,142,33,1,,
,,,,,,,,,,,,,,1 程凯盈,001,2025-02-17_19h33.04.899,IAT(Formal),2021.2.3,Win32,60.24096386,,,,,,,,,,,,,,,,,,,,,,,,,,,,,,,,,,,,,,,,,,,,,,,,,,,,诚实,e,,,i,0,0.5123,1,63,143,15,1,,
,,,,,,,,,,,,,,1 程凯盈,001,2025-02-17_19h33.04.899,IAT(Formal),2021.2.3,Win32,60.24096386,,,,,,,,,,,,,,,,,,,,,,,,,,,,,,,,,,,,,,,,,,,,,,,,,,,,他人,e,,,e,1,0.6594,1,64,144,68,1,,
,,,,,,,,,,,,,,1 程凯盈,001,2025-02-17_19h33.04.899,IAT(Formal),2021.2.3,Win32,60.24096386,,,,,,,,,,,,,,,,,,,,,,,,,,,,,,,,,,,,,,,,,,,,,,,,,,,,稳重,e,,,e,1,0.5682,1,65,145,21,1,,
,,,,,,,,,,,,,,1 程凯盈,001,2025-02-17_19h33.04.899,IAT(Formal),2021.2.3,Win32,60.24096386,,,,,,,,,,,,,,,,,,,,,,,,,,,,,,,,,,,,,,,,,,,,,,,,,,,,他们,e,,,e,1,0.5409,1,66,146,56,1,,
,,,,,,,,,,,,,,1 程凯盈,001,2025-02-17_19h33.04.899,IAT(Formal),2021.2.3,Win32,60.24096386,,,,,,,,,,,,,,,,,,,,,,,,,,,,,,,,,,,,,,,,,,,,,,,,,,,,杰出,e,,,e,1,0.9338,1,67,147,13,1,,
,,,,,,,,,,,,,,1 程凯盈,001,2025-02-17_19h33.04.899,IAT(Formal),2021.2.3,Win32,60.24096386,,,,,,,,,,,,,,,,,,,,,,,,,,,,,,,,,,,,,,,,,,,,,,,,,,,,他,e,,,e,1,0.9409,1,68,148,75,1,,
,,,,,,,,,,,,,,1 程凯盈,001,2025-02-17_19h33.04.899,IAT(Formal),2021.2.3,Win32,60.24096386,,,,,,,,,,,,,,,,,,,,,,,,,,,,,,,,,,,,,,,,,,,,,,,,,,,,我的,i,,,i,1,0.6503,1,69,149,51,1,,
,,,,,,,,,,,,,,1 程凯盈,001,2025-02-17_19h33.04.899,IAT(Formal),2021.2.3,Win32,60.24096386,,,,,,,,,,,,,,,,,,,,,,,,,,,,,,,,,,,,,,,,,,,,,,,,,,,,聪明,e,,,e,1,0.5105,1,70,150,12,1,,
,,,,,,,,,,,,,,1 程凯盈,001,2025-02-17_19h33.04.899,IAT(Formal),2021.2.3,Win32,60.24096386,,,,,,,,,,,,,,,,,,,,,,,,,,,,,,,,,,,,,,,,,,,,,,,,,,,,下贱,i,,,i,1,0.5919,1,71,151,49,1,,
,,,,,,,,,,,,,,1 程凯盈,001,2025-02-17_19h33.04.899,IAT(Formal),2021.2.3,Win32,60.24096386,,,,,,,,,,,,,,,,,,,,,,,,,,,,,,,,,,,,,,,,,,,,,,,,,,,,我,i,,,e,0,0.6893,1,72,152,70,1,,
,,,,,,,,,,,,,,1 程凯盈,001,2025-02-17_19h33.04.899,IAT(Formal),2021.2.3,Win32,60.24096386,,,,,,,,,,,,,,,,,,,,,,,,,,,,,,,,,,,,,,,,,,,,,,,,,,,,无私,e,,,e,1,0.9708,1,73,153,22,1,,
,,,,,,,,,,,,,,1 程凯盈,001,2025-02-17_19h33.04.899,IAT(Formal),2021.2.3,Win32,60.24096386,,,,,,,,,,,,,,,,,,,,,,,,,,,,,,,,,,,,,,,,,,,,,,,,,,,,散漫,i,,,i,1,0.6188,1,74,154,41,1,,
,,,,,,,,,,,,,,1 程凯盈,001,2025-02-17_19h33.04.899,IAT(Formal),2021.2.3,Win32,60.24096386,,,,,,,,,,,,,,,,,,,,,,,,,,,,,,,,,,,,,,,,,,,,,,,,,,,,正直,e,,,e,1,1.0227,1,75,155,16,1,,
,,,,,,,,,,,,,,1 程凯盈,001,2025-02-17_19h33.04.899,IAT(Formal),2021.2.3,Win32,60.24096386,,,,,,,,,,,,,,,,,,,,,,,,,,,,,,,,,,,,,,,,,,,,,,,,,,,,我们,i,,,i,1,1.1012,1,76,156,72,1,,
,,,,,,,,,,,,,,1 程凯盈,001,2025-02-17_19h33.04.899,IAT(Formal),2021.2.3,Win32,60.24096386,,,,,,,,,,,,,,,,,,,,,,,,,,,,,,,,,,,,,,,,,,,,,,,,,,,,冒失,i,,,i,1,0.6242,1,77,157,39,1,,
,,,,,,,,,,,,,,1 程凯盈,001,2025-02-17_19h33.04.899,IAT(Formal),2021.2.3,Win32,60.24096386,,,,,,,,,,,,,,,,,,,,,,,,,,,,,,,,,,,,,,,,,,,,,,,,,,,,其他,e,,,e,1,0.5937,1,78,158,79,1,,
,,,,,,,,,,,,,,1 程凯盈,001,2025-02-17_19h33.04.899,IAT(Formal),2021.2.3,Win32,60.24096386,,,,,,,,,,,,,,,,,,,,,,,,,,,,,,,,,,,,,,,,,,,,,,,,,,,,认真,e,,,i,0,0.9013,1,79,159,20,1,,
,,,,,,,,,,,,,,1 程凯盈,001,2025-02-17_19h33.04.899,IAT(Formal),2021.2.3,Win32,60.24096386,,,,,,,,,,,,,,,,,,,,,,,,,,,,,,,,,,,,,,,,,,,,,,,,,,,,,,,,,,,,,,,,space,1.0341