﻿Instruction1.keys,Instruction1.rt,Instruction2.keys,Instruction2.rt,key_resp_iso.keys,key_resp_iso.corr,key_resp_iso.rt,Practice_01.thisRepN,Practice_01.thisTrialN,Practice_01.thisN,Practice_01.thisIndex,Practice_01.ran,Words,ans,participant,session,date,expName,psychopyVersion,OS,frameRate,key_resp_3.keys,key_resp_3.rt,key_resp_ipn.keys,key_resp_ipn.corr,key_resp_ipn.rt,Practice_02.thisRepN,Practice_02.thisTrialN,Practice_02.thisN,Practice_02.thisIndex,Practice_02.ran,Words_ipn,ans_ipn,key_resp_4.keys,key_resp_4.rt,key_resp_t1.keys,key_resp_t1.corr,key_resp_t1.rt,Practice_T1.thisRepN,Practice_T1.thisTrialN,Practice_T1.thisN,Practice_T1.thisIndex,Practice_T1.ran,Words_t1,ans_t1,key_resp_5.keys,key_resp_5.rt,Formal_T1.thisRepN,Formal_T1.thisTrialN,Formal_T1.thisN,Formal_T1.thisIndex,Formal_T1.ran,key_resp_6.keys,key_resp_6.rt,key_resp_iso_reverse.keys,key_resp_iso_reverse.corr,key_resp_iso_reverse.rt,Practice_iso_Reverse.thisRepN,Practice_iso_Reverse.thisTrialN,Practice_iso_Reverse.thisN,Practice_iso_Reverse.thisIndex,Practice_iso_Reverse.ran,key_resp_7.keys,key_resp_7.rt,key_resp_t2_Practice.keys,key_resp_t2_Practice.corr,key_resp_t2_Practice.rt,Practice_t2_Reverse.thisRepN,Practice_t2_Reverse.thisTrialN,Practice_t2_Reverse.thisN,Practice_t2_Reverse.thisIndex,Practice_t2_Reverse.ran,Words_t2,ans_t2,key_resp_8.keys,key_resp_8.rt,key_resp_t2.keys,key_resp_t2.corr,Formal_t2_reverse.thisRepN,Formal_t2_reverse.thisTrialN,Formal_t2_reverse.thisN,Formal_t2_reverse.thisIndex,Formal_t2_reverse.ran,key_resp_t2.rt,key_instruct.keys,key_instruct.rt
space,1.9509,space,4.546,i,1,0.8282,0,0,0,7,1,他的,i,1,001,2025-02-17_22h08.08.114,IAT(Formal),2021.2.3,Win32,59.88023952,,,,,,,,,,,,,,,,,,,,,,,,,,,,,,,,,,,,,,,,,,,,,,,,,,,,,,,,,,,,,,,,,
,,,,e,1,0.466,0,1,1,2,1,我们,e,1,001,2025-02-17_22h08.08.114,IAT(Formal),2021.2.3,Win32,59.88023952,,,,,,,,,,,,,,,,,,,,,,,,,,,,,,,,,,,,,,,,,,,,,,,,,,,,,,,,,,,,,,,,,
,,,,e,1,0.6652,0,2,2,3,1,自己,e,1,001,2025-02-17_22h08.08.114,IAT(Formal),2021.2.3,Win32,59.88023952,,,,,,,,,,,,,,,,,,,,,,,,,,,,,,,,,,,,,,,,,,,,,,,,,,,,,,,,,,,,,,,,,
,,,,i,1,0.7116,0,3,3,9,1,其他,i,1,001,2025-02-17_22h08.08.114,IAT(Formal),2021.2.3,Win32,59.88023952,,,,,,,,,,,,,,,,,,,,,,,,,,,,,,,,,,,,,,,,,,,,,,,,,,,,,,,,,,,,,,,,,
,,,,i,1,0.6626,0,4,4,6,1,他们,i,1,001,2025-02-17_22h08.08.114,IAT(Formal),2021.2.3,Win32,59.88023952,,,,,,,,,,,,,,,,,,,,,,,,,,,,,,,,,,,,,,,,,,,,,,,,,,,,,,,,,,,,,,,,,
,,,,e,1,0.6041,0,5,5,4,1,俺,e,1,001,2025-02-17_22h08.08.114,IAT(Formal),2021.2.3,Win32,59.88023952,,,,,,,,,,,,,,,,,,,,,,,,,,,,,,,,,,,,,,,,,,,,,,,,,,,,,,,,,,,,,,,,,
,,,,e,1,0.4962,0,6,6,1,1,我的,e,1,001,2025-02-17_22h08.08.114,IAT(Formal),2021.2.3,Win32,59.88023952,,,,,,,,,,,,,,,,,,,,,,,,,,,,,,,,,,,,,,,,,,,,,,,,,,,,,,,,,,,,,,,,,
,,,,i,1,0.6289,0,7,7,8,1,他人,i,1,001,2025-02-17_22h08.08.114,IAT(Formal),2021.2.3,Win32,59.88023952,,,,,,,,,,,,,,,,,,,,,,,,,,,,,,,,,,,,,,,,,,,,,,,,,,,,,,,,,,,,,,,,,
,,,,e,1,0.5375,0,8,8,0,1,我,e,1,001,2025-02-17_22h08.08.114,IAT(Formal),2021.2.3,Win32,59.88023952,,,,,,,,,,,,,,,,,,,,,,,,,,,,,,,,,,,,,,,,,,,,,,,,,,,,,,,,,,,,,,,,,
,,,,i,1,0.6164,0,9,9,5,1,他,i,1,001,2025-02-17_22h08.08.114,IAT(Formal),2021.2.3,Win32,59.88023952,,,,,,,,,,,,,,,,,,,,,,,,,,,,,,,,,,,,,,,,,,,,,,,,,,,,,,,,,,,,,,,,,
,,,,,,,,,,,,,,1,001,2025-02-17_22h08.08.114,IAT(Formal),2021.2.3,Win32,59.88023952,space,2.0717,i,1,0.6586,0,0,0,28,1,鲁莽,i,,,,,,,,,,,,,,,,,,,,,,,,,,,,,,,,,,,,,,,,,,,,,,,,,,,,,
,,,,,,,,,,,,,,1,001,2025-02-17_22h08.08.114,IAT(Formal),2021.2.3,Win32,59.88023952,,,i,1,0.5153,0,1,1,27,1,傲慢,i,,,,,,,,,,,,,,,,,,,,,,,,,,,,,,,,,,,,,,,,,,,,,,,,,,,,,
,,,,,,,,,,,,,,1,001,2025-02-17_22h08.08.114,IAT(Formal),2021.2.3,Win32,59.88023952,,,i,1,0.5449,0,2,2,38,1,轻率,i,,,,,,,,,,,,,,,,,,,,,,,,,,,,,,,,,,,,,,,,,,,,,,,,,,,,,
,,,,,,,,,,,,,,1,001,2025-02-17_22h08.08.114,IAT(Formal),2021.2.3,Win32,59.88023952,,,e,1,0.5363,0,3,3,13,1,公正,e,,,,,,,,,,,,,,,,,,,,,,,,,,,,,,,,,,,,,,,,,,,,,,,,,,,,,
,,,,,,,,,,,,,,1,001,2025-02-17_22h08.08.114,IAT(Formal),2021.2.3,Win32,59.88023952,,,i,1,0.5201,0,4,4,33,1,自私,i,,,,,,,,,,,,,,,,,,,,,,,,,,,,,,,,,,,,,,,,,,,,,,,,,,,,,
,,,,,,,,,,,,,,1,001,2025-02-17_22h08.08.114,IAT(Formal),2021.2.3,Win32,59.88023952,,,e,1,0.5614,0,5,5,10,1,认真,e,,,,,,,,,,,,,,,,,,,,,,,,,,,,,,,,,,,,,,,,,,,,,,,,,,,,,
,,,,,,,,,,,,,,1,001,2025-02-17_22h08.08.114,IAT(Formal),2021.2.3,Win32,59.88023952,,,e,1,0.7016,0,6,6,9,1,机智,e,,,,,,,,,,,,,,,,,,,,,,,,,,,,,,,,,,,,,,,,,,,,,,,,,,,,,
,,,,,,,,,,,,,,1,001,2025-02-17_22h08.08.114,IAT(Formal),2021.2.3,Win32,59.88023952,,,i,1,0.5809,0,7,7,35,1,猖狂,i,,,,,,,,,,,,,,,,,,,,,,,,,,,,,,,,,,,,,,,,,,,,,,,,,,,,,
,,,,,,,,,,,,,,1,001,2025-02-17_22h08.08.114,IAT(Formal),2021.2.3,Win32,59.88023952,,,i,1,1.0656,0,8,8,37,1,固执,i,,,,,,,,,,,,,,,,,,,,,,,,,,,,,,,,,,,,,,,,,,,,,,,,,,,,,
,,,,,,,,,,,,,,1,001,2025-02-17_22h08.08.114,IAT(Formal),2021.2.3,Win32,59.88023952,,,i,1,0.5804,0,9,9,32,1,凶狠,i,,,,,,,,,,,,,,,,,,,,,,,,,,,,,,,,,,,,,,,,,,,,,,,,,,,,,
,,,,,,,,,,,,,,1,001,2025-02-17_22h08.08.114,IAT(Formal),2021.2.3,Win32,59.88023952,,,e,1,0.5007,0,10,10,7,1,勇敢,e,,,,,,,,,,,,,,,,,,,,,,,,,,,,,,,,,,,,,,,,,,,,,,,,,,,,,
,,,,,,,,,,,,,,1,001,2025-02-17_22h08.08.114,IAT(Formal),2021.2.3,Win32,59.88023952,,,i,0,0.6511,0,11,11,5,1,诚实,e,,,,,,,,,,,,,,,,,,,,,,,,,,,,,,,,,,,,,,,,,,,,,,,,,,,,,
,,,,,,,,,,,,,,1,001,2025-02-17_22h08.08.114,IAT(Formal),2021.2.3,Win32,59.88023952,,,e,1,0.7828,0,12,12,8,1,勤奋,e,,,,,,,,,,,,,,,,,,,,,,,,,,,,,,,,,,,,,,,,,,,,,,,,,,,,,
,,,,,,,,,,,,,,1,001,2025-02-17_22h08.08.114,IAT(Formal),2021.2.3,Win32,59.88023952,,,i,1,0.6826,0,13,13,29,1,冒失,i,,,,,,,,,,,,,,,,,,,,,,,,,,,,,,,,,,,,,,,,,,,,,,,,,,,,,
,,,,,,,,,,,,,,1,001,2025-02-17_22h08.08.114,IAT(Formal),2021.2.3,Win32,59.88023952,,,i,1,0.6149,0,14,14,23,1,刻薄,i,,,,,,,,,,,,,,,,,,,,,,,,,,,,,,,,,,,,,,,,,,,,,,,,,,,,,
,,,,,,,,,,,,,,1,001,2025-02-17_22h08.08.114,IAT(Formal),2021.2.3,Win32,59.88023952,,,i,1,0.5544,0,15,15,24,1,悲观,i,,,,,,,,,,,,,,,,,,,,,,,,,,,,,,,,,,,,,,,,,,,,,,,,,,,,,
,,,,,,,,,,,,,,1,001,2025-02-17_22h08.08.114,IAT(Formal),2021.2.3,Win32,59.88023952,,,i,1,0.572,0,16,16,34,1,暴躁,i,,,,,,,,,,,,,,,,,,,,,,,,,,,,,,,,,,,,,,,,,,,,,,,,,,,,,
,,,,,,,,,,,,,,1,001,2025-02-17_22h08.08.114,IAT(Formal),2021.2.3,Win32,59.88023952,,,e,1,0.551,0,17,17,17,1,热情,e,,,,,,,,,,,,,,,,,,,,,,,,,,,,,,,,,,,,,,,,,,,,,,,,,,,,,
,,,,,,,,,,,,,,1,001,2025-02-17_22h08.08.114,IAT(Formal),2021.2.3,Win32,59.88023952,,,i,1,0.5379,0,18,18,25,1,消极,i,,,,,,,,,,,,,,,,,,,,,,,,,,,,,,,,,,,,,,,,,,,,,,,,,,,,,
,,,,,,,,,,,,,,1,001,2025-02-17_22h08.08.114,IAT(Formal),2021.2.3,Win32,59.88023952,,,e,1,0.8376,0,19,19,4,1,乐观,e,,,,,,,,,,,,,,,,,,,,,,,,,,,,,,,,,,,,,,,,,,,,,,,,,,,,,
,,,,,,,,,,,,,,1,001,2025-02-17_22h08.08.114,IAT(Formal),2021.2.3,Win32,59.88023952,,,e,1,1.0326,0,20,20,2,1,聪明,e,,,,,,,,,,,,,,,,,,,,,,,,,,,,,,,,,,,,,,,,,,,,,,,,,,,,,
,,,,,,,,,,,,,,1,001,2025-02-17_22h08.08.114,IAT(Formal),2021.2.3,Win32,59.88023952,,,e,1,0.8957,0,21,21,18,1,活泼,e,,,,,,,,,,,,,,,,,,,,,,,,,,,,,,,,,,,,,,,,,,,,,,,,,,,,,
,,,,,,,,,,,,,,1,001,2025-02-17_22h08.08.114,IAT(Formal),2021.2.3,Win32,59.88023952,,,e,1,0.7338,0,22,22,19,1,诚恳,e,,,,,,,,,,,,,,,,,,,,,,,,,,,,,,,,,,,,,,,,,,,,,,,,,,,,,
,,,,,,,,,,,,,,1,001,2025-02-17_22h08.08.114,IAT(Formal),2021.2.3,Win32,59.88023952,,,e,1,0.5217,0,23,23,14,1,朴实,e,,,,,,,,,,,,,,,,,,,,,,,,,,,,,,,,,,,,,,,,,,,,,,,,,,,,,
,,,,,,,,,,,,,,1,001,2025-02-17_22h08.08.114,IAT(Formal),2021.2.3,Win32,59.88023952,,,e,1,0.5494,0,24,24,3,1,杰出,e,,,,,,,,,,,,,,,,,,,,,,,,,,,,,,,,,,,,,,,,,,,,,,,,,,,,,
,,,,,,,,,,,,,,1,001,2025-02-17_22h08.08.114,IAT(Formal),2021.2.3,Win32,59.88023952,,,i,1,0.5938,0,25,25,26,1,自卑,i,,,,,,,,,,,,,,,,,,,,,,,,,,,,,,,,,,,,,,,,,,,,,,,,,,,,,
,,,,,,,,,,,,,,1,001,2025-02-17_22h08.08.114,IAT(Formal),2021.2.3,Win32,59.88023952,,,i,1,0.7255,0,26,26,36,1,野蛮,i,,,,,,,,,,,,,,,,,,,,,,,,,,,,,,,,,,,,,,,,,,,,,,,,,,,,,
,,,,,,,,,,,,,,1,001,2025-02-17_22h08.08.114,IAT(Formal),2021.2.3,Win32,59.88023952,,,i,1,0.7664,0,27,27,31,1,散漫,i,,,,,,,,,,,,,,,,,,,,,,,,,,,,,,,,,,,,,,,,,,,,,,,,,,,,,
,,,,,,,,,,,,,,1,001,2025-02-17_22h08.08.114,IAT(Formal),2021.2.3,Win32,59.88023952,,,i,1,0.5179,0,28,28,21,1,虚伪,i,,,,,,,,,,,,,,,,,,,,,,,,,,,,,,,,,,,,,,,,,,,,,,,,,,,,,
,,,,,,,,,,,,,,1,001,2025-02-17_22h08.08.114,IAT(Formal),2021.2.3,Win32,59.88023952,,,e,1,0.8322,0,29,29,6,1,正直,e,,,,,,,,,,,,,,,,,,,,,,,,,,,,,,,,,,,,,,,,,,,,,,,,,,,,,
,,,,,,,,,,,,,,1,001,2025-02-17_22h08.08.114,IAT(Formal),2021.2.3,Win32,59.88023952,,,e,1,0.8119,0,30,30,16,1,冷静,e,,,,,,,,,,,,,,,,,,,,,,,,,,,,,,,,,,,,,,,,,,,,,,,,,,,,,
,,,,,,,,,,,,,,1,001,2025-02-17_22h08.08.114,IAT(Formal),2021.2.3,Win32,59.88023952,,,i,1,0.7453,0,31,31,39,1,下贱,i,,,,,,,,,,,,,,,,,,,,,,,,,,,,,,,,,,,,,,,,,,,,,,,,,,,,,
,,,,,,,,,,,,,,1,001,2025-02-17_22h08.08.114,IAT(Formal),2021.2.3,Win32,59.88023952,,,e,1,0.6044,0,32,32,0,1,优秀,e,,,,,,,,,,,,,,,,,,,,,,,,,,,,,,,,,,,,,,,,,,,,,,,,,,,,,
,,,,,,,,,,,,,,1,001,2025-02-17_22h08.08.114,IAT(Formal),2021.2.3,Win32,59.88023952,,,e,1,0.8034,0,33,33,1,1,崇高,e,,,,,,,,,,,,,,,,,,,,,,,,,,,,,,,,,,,,,,,,,,,,,,,,,,,,,
,,,,,,,,,,,,,,1,001,2025-02-17_22h08.08.114,IAT(Formal),2021.2.3,Win32,59.88023952,,,i,1,0.6819,0,34,34,30,1,执拗,i,,,,,,,,,,,,,,,,,,,,,,,,,,,,,,,,,,,,,,,,,,,,,,,,,,,,,
,,,,,,,,,,,,,,1,001,2025-02-17_22h08.08.114,IAT(Formal),2021.2.3,Win32,59.88023952,,,e,1,1.0145,0,35,35,15,1,细腻,e,,,,,,,,,,,,,,,,,,,,,,,,,,,,,,,,,,,,,,,,,,,,,,,,,,,,,
,,,,,,,,,,,,,,1,001,2025-02-17_22h08.08.114,IAT(Formal),2021.2.3,Win32,59.88023952,,,i,1,0.6442,0,36,36,20,1,卑鄙,i,,,,,,,,,,,,,,,,,,,,,,,,,,,,,,,,,,,,,,,,,,,,,,,,,,,,,
,,,,,,,,,,,,,,1,001,2025-02-17_22h08.08.114,IAT(Formal),2021.2.3,Win32,59.88023952,,,e,1,0.9227,0,37,37,11,1,稳重,e,,,,,,,,,,,,,,,,,,,,,,,,,,,,,,,,,,,,,,,,,,,,,,,,,,,,,
,,,,,,,,,,,,,,1,001,2025-02-17_22h08.08.114,IAT(Formal),2021.2.3,Win32,59.88023952,,,i,0,0.8678,0,38,38,12,1,无私,e,,,,,,,,,,,,,,,,,,,,,,,,,,,,,,,,,,,,,,,,,,,,,,,,,,,,,
,,,,,,,,,,,,,,1,001,2025-02-17_22h08.08.114,IAT(Formal),2021.2.3,Win32,59.88023952,,,i,1,0.6649,0,39,39,22,1,愚蠢,i,,,,,,,,,,,,,,,,,,,,,,,,,,,,,,,,,,,,,,,,,,,,,,,,,,,,,
,,,,,,,,,,,,,,1,001,2025-02-17_22h08.08.114,IAT(Formal),2021.2.3,Win32,59.88023952,,,,,,,,,,,,,space,2.1593,e,1,0.7172,0,0,0,27,1,热情,e,,,,,,,,,,,,,,,,,,,,,,,,,,,,,,,,,,,,,,,,,
,,,,,,,,,,,,,,1,001,2025-02-17_22h08.08.114,IAT(Formal),2021.2.3,Win32,59.88023952,,,,,,,,,,,,,,,e,1,0.5708,0,1,1,71,1,我的,e,,,,,,,,,,,,,,,,,,,,,,,,,,,,,,,,,,,,,,,,,
,,,,,,,,,,,,,,1,001,2025-02-17_22h08.08.114,IAT(Formal),2021.2.3,Win32,59.88023952,,,,,,,,,,,,,,,e,1,0.6023,0,2,2,3,1,自己,e,,,,,,,,,,,,,,,,,,,,,,,,,,,,,,,,,,,,,,,,,
,,,,,,,,,,,,,,1,001,2025-02-17_22h08.08.114,IAT(Formal),2021.2.3,Win32,59.88023952,,,,,,,,,,,,,,,i,1,0.6174,0,3,3,66,1,他们,i,,,,,,,,,,,,,,,,,,,,,,,,,,,,,,,,,,,,,,,,,
,,,,,,,,,,,,,,1,001,2025-02-17_22h08.08.114,IAT(Formal),2021.2.3,Win32,59.88023952,,,,,,,,,,,,,,,i,1,0.4894,0,4,4,68,1,他人,i,,,,,,,,,,,,,,,,,,,,,,,,,,,,,,,,,,,,,,,,,
,,,,,,,,,,,,,,1,001,2025-02-17_22h08.08.114,IAT(Formal),2021.2.3,Win32,59.88023952,,,,,,,,,,,,,,,i,1,0.5846,0,5,5,77,1,他的,i,,,,,,,,,,,,,,,,,,,,,,,,,,,,,,,,,,,,,,,,,
,,,,,,,,,,,,,,1,001,2025-02-17_22h08.08.114,IAT(Formal),2021.2.3,Win32,59.88023952,,,,,,,,,,,,,,,i,1,0.4513,0,6,6,46,1,野蛮,i,,,,,,,,,,,,,,,,,,,,,,,,,,,,,,,,,,,,,,,,,
,,,,,,,,,,,,,,1,001,2025-02-17_22h08.08.114,IAT(Formal),2021.2.3,Win32,59.88023952,,,,,,,,,,,,,,,i,1,0.6877,0,7,7,7,1,他的,i,,,,,,,,,,,,,,,,,,,,,,,,,,,,,,,,,,,,,,,,,
,,,,,,,,,,,,,,1,001,2025-02-17_22h08.08.114,IAT(Formal),2021.2.3,Win32,59.88023952,,,,,,,,,,,,,,,e,1,0.6008,0,8,8,50,1,我,e,,,,,,,,,,,,,,,,,,,,,,,,,,,,,,,,,,,,,,,,,
,,,,,,,,,,,,,,1,001,2025-02-17_22h08.08.114,IAT(Formal),2021.2.3,Win32,59.88023952,,,,,,,,,,,,,,,i,1,0.5171,0,9,9,69,1,其他,i,,,,,,,,,,,,,,,,,,,,,,,,,,,,,,,,,,,,,,,,,
,,,,,,,,,,,,,,1,001,2025-02-17_22h08.08.114,IAT(Formal),2021.2.3,Win32,59.88023952,,,,,,,,,,,,,,,e,1,0.543,0,10,10,16,1,正直,e,,,,,,,,,,,,,,,,,,,,,,,,,,,,,,,,,,,,,,,,,
,,,,,,,,,,,,,,1,001,2025-02-17_22h08.08.114,IAT(Formal),2021.2.3,Win32,59.88023952,,,,,,,,,,,,,,,e,1,0.5181,0,11,11,15,1,诚实,e,,,,,,,,,,,,,,,,,,,,,,,,,,,,,,,,,,,,,,,,,
,,,,,,,,,,,,,,1,001,2025-02-17_22h08.08.114,IAT(Formal),2021.2.3,Win32,59.88023952,,,,,,,,,,,,,,,i,1,0.7005,0,12,12,34,1,悲观,i,,,,,,,,,,,,,,,,,,,,,,,,,,,,,,,,,,,,,,,,,
,,,,,,,,,,,,,,1,001,2025-02-17_22h08.08.114,IAT(Formal),2021.2.3,Win32,59.88023952,,,,,,,,,,,,,,,e,1,0.8833,0,13,13,28,1,活泼,e,,,,,,,,,,,,,,,,,,,,,,,,,,,,,,,,,,,,,,,,,
,,,,,,,,,,,,,,1,001,2025-02-17_22h08.08.114,IAT(Formal),2021.2.3,Win32,59.88023952,,,,,,,,,,,,,,,i,1,0.5839,0,14,14,75,1,他,i,,,,,,,,,,,,,,,,,,,,,,,,,,,,,,,,,,,,,,,,,
,,,,,,,,,,,,,,1,001,2025-02-17_22h08.08.114,IAT(Formal),2021.2.3,Win32,59.88023952,,,,,,,,,,,,,,,e,1,0.5511,0,15,15,53,1,自己,e,,,,,,,,,,,,,,,,,,,,,,,,,,,,,,,,,,,,,,,,,
,,,,,,,,,,,,,,1,001,2025-02-17_22h08.08.114,IAT(Formal),2021.2.3,Win32,59.88023952,,,,,,,,,,,,,,,i,1,0.6554,0,16,16,57,1,他的,i,,,,,,,,,,,,,,,,,,,,,,,,,,,,,,,,,,,,,,,,,
,,,,,,,,,,,,,,1,001,2025-02-17_22h08.08.114,IAT(Formal),2021.2.3,Win32,59.88023952,,,,,,,,,,,,,,,e,1,0.5521,0,17,17,12,1,聪明,e,,,,,,,,,,,,,,,,,,,,,,,,,,,,,,,,,,,,,,,,,
,,,,,,,,,,,,,,1,001,2025-02-17_22h08.08.114,IAT(Formal),2021.2.3,Win32,59.88023952,,,,,,,,,,,,,,,i,1,0.5551,0,18,18,42,1,凶狠,i,,,,,,,,,,,,,,,,,,,,,,,,,,,,,,,,,,,,,,,,,
,,,,,,,,,,,,,,1,001,2025-02-17_22h08.08.114,IAT(Formal),2021.2.3,Win32,59.88023952,,,,,,,,,,,,,,,e,1,0.518,0,19,19,60,1,我,e,,,,,,,,,,,,,,,,,,,,,,,,,,,,,,,,,,,,,,,,,
,,,,,,,,,,,,,,1,001,2025-02-17_22h08.08.114,IAT(Formal),2021.2.3,Win32,59.88023952,,,,,,,,,,,,,,,i,1,0.4756,0,20,20,65,1,他,i,,,,,,,,,,,,,,,,,,,,,,,,,,,,,,,,,,,,,,,,,
,,,,,,,,,,,,,,1,001,2025-02-17_22h08.08.114,IAT(Formal),2021.2.3,Win32,59.88023952,,,,,,,,,,,,,,,i,1,0.5183,0,21,21,9,1,其他,i,,,,,,,,,,,,,,,,,,,,,,,,,,,,,,,,,,,,,,,,,
,,,,,,,,,,,,,,1,001,2025-02-17_22h08.08.114,IAT(Formal),2021.2.3,Win32,59.88023952,,,,,,,,,,,,,,,e,1,0.476,0,22,22,61,1,我的,e,,,,,,,,,,,,,,,,,,,,,,,,,,,,,,,,,,,,,,,,,
,,,,,,,,,,,,,,1,001,2025-02-17_22h08.08.114,IAT(Formal),2021.2.3,Win32,59.88023952,,,,,,,,,,,,,,,e,1,0.5851,0,23,23,23,1,公正,e,,,,,,,,,,,,,,,,,,,,,,,,,,,,,,,,,,,,,,,,,
,,,,,,,,,,,,,,1,001,2025-02-17_22h08.08.114,IAT(Formal),2021.2.3,Win32,59.88023952,,,,,,,,,,,,,,,i,1,0.4848,0,24,24,44,1,暴躁,i,,,,,,,,,,,,,,,,,,,,,,,,,,,,,,,,,,,,,,,,,
,,,,,,,,,,,,,,1,001,2025-02-17_22h08.08.114,IAT(Formal),2021.2.3,Win32,59.88023952,,,,,,,,,,,,,,,i,1,0.7192,0,25,25,49,1,下贱,i,,,,,,,,,,,,,,,,,,,,,,,,,,,,,,,,,,,,,,,,,
,,,,,,,,,,,,,,1,001,2025-02-17_22h08.08.114,IAT(Formal),2021.2.3,Win32,59.88023952,,,,,,,,,,,,,,,i,1,0.5346,0,26,26,76,1,他们,i,,,,,,,,,,,,,,,,,,,,,,,,,,,,,,,,,,,,,,,,,
,,,,,,,,,,,,,,1,001,2025-02-17_22h08.08.114,IAT(Formal),2021.2.3,Win32,59.88023952,,,,,,,,,,,,,,,e,1,0.7175,0,27,27,2,1,我们,e,,,,,,,,,,,,,,,,,,,,,,,,,,,,,,,,,,,,,,,,,
,,,,,,,,,,,,,,1,001,2025-02-17_22h08.08.114,IAT(Formal),2021.2.3,Win32,59.88023952,,,,,,,,,,,,,,,i,0,0.5363,0,28,28,0,1,我,e,,,,,,,,,,,,,,,,,,,,,,,,,,,,,,,,,,,,,,,,,
,,,,,,,,,,,,,,1,001,2025-02-17_22h08.08.114,IAT(Formal),2021.2.3,Win32,59.88023952,,,,,,,,,,,,,,,i,1,0.5512,0,29,29,33,1,刻薄,i,,,,,,,,,,,,,,,,,,,,,,,,,,,,,,,,,,,,,,,,,
,,,,,,,,,,,,,,1,001,2025-02-17_22h08.08.114,IAT(Formal),2021.2.3,Win32,59.88023952,,,,,,,,,,,,,,,i,1,0.5495,0,30,30,59,1,其他,i,,,,,,,,,,,,,,,,,,,,,,,,,,,,,,,,,,,,,,,,,
,,,,,,,,,,,,,,1,001,2025-02-17_22h08.08.114,IAT(Formal),2021.2.3,Win32,59.88023952,,,,,,,,,,,,,,,e,1,0.7266,0,31,31,19,1,机智,e,,,,,,,,,,,,,,,,,,,,,,,,,,,,,,,,,,,,,,,,,
,,,,,,,,,,,,,,1,001,2025-02-17_22h08.08.114,IAT(Formal),2021.2.3,Win32,59.88023952,,,,,,,,,,,,,,,e,1,0.5007,0,32,32,20,1,认真,e,,,,,,,,,,,,,,,,,,,,,,,,,,,,,,,,,,,,,,,,,
,,,,,,,,,,,,,,1,001,2025-02-17_22h08.08.114,IAT(Formal),2021.2.3,Win32,59.88023952,,,,,,,,,,,,,,,e,1,0.6191,0,33,33,54,1,俺,e,,,,,,,,,,,,,,,,,,,,,,,,,,,,,,,,,,,,,,,,,
,,,,,,,,,,,,,,1,001,2025-02-17_22h08.08.114,IAT(Formal),2021.2.3,Win32,59.88023952,,,,,,,,,,,,,,,i,1,0.5947,0,34,34,78,1,他人,i,,,,,,,,,,,,,,,,,,,,,,,,,,,,,,,,,,,,,,,,,
,,,,,,,,,,,,,,1,001,2025-02-17_22h08.08.114,IAT(Formal),2021.2.3,Win32,59.88023952,,,,,,,,,,,,,,,e,1,0.9238,0,35,35,11,1,崇高,e,,,,,,,,,,,,,,,,,,,,,,,,,,,,,,,,,,,,,,,,,
,,,,,,,,,,,,,,1,001,2025-02-17_22h08.08.114,IAT(Formal),2021.2.3,Win32,59.88023952,,,,,,,,,,,,,,,e,1,1.067,0,36,36,52,1,我们,e,,,,,,,,,,,,,,,,,,,,,,,,,,,,,,,,,,,,,,,,,
,,,,,,,,,,,,,,1,001,2025-02-17_22h08.08.114,IAT(Formal),2021.2.3,Win32,59.88023952,,,,,,,,,,,,,,,e,1,0.7358,0,37,37,73,1,自己,e,,,,,,,,,,,,,,,,,,,,,,,,,,,,,,,,,,,,,,,,,
,,,,,,,,,,,,,,1,001,2025-02-17_22h08.08.114,IAT(Formal),2021.2.3,Win32,59.88023952,,,,,,,,,,,,,,,e,1,0.5025,0,38,38,1,1,我的,e,,,,,,,,,,,,,,,,,,,,,,,,,,,,,,,,,,,,,,,,,
,,,,,,,,,,,,,,1,001,2025-02-17_22h08.08.114,IAT(Formal),2021.2.3,Win32,59.88023952,,,,,,,,,,,,,,,e,1,0.5017,0,39,39,17,1,勇敢,e,,,,,,,,,,,,,,,,,,,,,,,,,,,,,,,,,,,,,,,,,
,,,,,,,,,,,,,,1,001,2025-02-17_22h08.08.114,IAT(Formal),2021.2.3,Win32,59.88023952,,,,,,,,,,,,,,,e,0,0.8899,0,40,40,41,1,散漫,i,,,,,,,,,,,,,,,,,,,,,,,,,,,,,,,,,,,,,,,,,
,,,,,,,,,,,,,,1,001,2025-02-17_22h08.08.114,IAT(Formal),2021.2.3,Win32,59.88023952,,,,,,,,,,,,,,,e,1,0.5525,0,41,41,29,1,诚恳,e,,,,,,,,,,,,,,,,,,,,,,,,,,,,,,,,,,,,,,,,,
,,,,,,,,,,,,,,1,001,2025-02-17_22h08.08.114,IAT(Formal),2021.2.3,Win32,59.88023952,,,,,,,,,,,,,,,i,1,0.6435,0,42,42,8,1,他人,i,,,,,,,,,,,,,,,,,,,,,,,,,,,,,,,,,,,,,,,,,
,,,,,,,,,,,,,,1,001,2025-02-17_22h08.08.114,IAT(Formal),2021.2.3,Win32,59.88023952,,,,,,,,,,,,,,,e,1,0.5353,0,43,43,74,1,俺,e,,,,,,,,,,,,,,,,,,,,,,,,,,,,,,,,,,,,,,,,,
,,,,,,,,,,,,,,1,001,2025-02-17_22h08.08.114,IAT(Formal),2021.2.3,Win32,59.88023952,,,,,,,,,,,,,,,i,1,0.6012,0,44,44,5,1,他,i,,,,,,,,,,,,,,,,,,,,,,,,,,,,,,,,,,,,,,,,,
,,,,,,,,,,,,,,1,001,2025-02-17_22h08.08.114,IAT(Formal),2021.2.3,Win32,59.88023952,,,,,,,,,,,,,,,e,1,0.6403,0,45,45,24,1,朴实,e,,,,,,,,,,,,,,,,,,,,,,,,,,,,,,,,,,,,,,,,,
,,,,,,,,,,,,,,1,001,2025-02-17_22h08.08.114,IAT(Formal),2021.2.3,Win32,59.88023952,,,,,,,,,,,,,,,i,1,0.5881,0,46,46,56,1,他们,i,,,,,,,,,,,,,,,,,,,,,,,,,,,,,,,,,,,,,,,,,
,,,,,,,,,,,,,,1,001,2025-02-17_22h08.08.114,IAT(Formal),2021.2.3,Win32,59.88023952,,,,,,,,,,,,,,,e,1,0.7235,0,47,47,51,1,我的,e,,,,,,,,,,,,,,,,,,,,,,,,,,,,,,,,,,,,,,,,,
,,,,,,,,,,,,,,1,001,2025-02-17_22h08.08.114,IAT(Formal),2021.2.3,Win32,59.88023952,,,,,,,,,,,,,,,i,1,0.818,0,48,48,38,1,鲁莽,i,,,,,,,,,,,,,,,,,,,,,,,,,,,,,,,,,,,,,,,,,
,,,,,,,,,,,,,,1,001,2025-02-17_22h08.08.114,IAT(Formal),2021.2.3,Win32,59.88023952,,,,,,,,,,,,,,,i,1,0.8517,0,49,49,6,1,他们,i,,,,,,,,,,,,,,,,,,,,,,,,,,,,,,,,,,,,,,,,,
,,,,,,,,,,,,,,1,001,2025-02-17_22h08.08.114,IAT(Formal),2021.2.3,Win32,59.88023952,,,,,,,,,,,,,,,i,1,0.8352,0,50,50,32,1,愚蠢,i,,,,,,,,,,,,,,,,,,,,,,,,,,,,,,,,,,,,,,,,,
,,,,,,,,,,,,,,1,001,2025-02-17_22h08.08.114,IAT(Formal),2021.2.3,Win32,59.88023952,,,,,,,,,,,,,,,i,1,0.8345,0,51,51,37,1,傲慢,i,,,,,,,,,,,,,,,,,,,,,,,,,,,,,,,,,,,,,,,,,
,,,,,,,,,,,,,,1,001,2025-02-17_22h08.08.114,IAT(Formal),2021.2.3,Win32,59.88023952,,,,,,,,,,,,,,,i,1,0.517,0,52,52,55,1,他,i,,,,,,,,,,,,,,,,,,,,,,,,,,,,,,,,,,,,,,,,,
,,,,,,,,,,,,,,1,001,2025-02-17_22h08.08.114,IAT(Formal),2021.2.3,Win32,59.88023952,,,,,,,,,,,,,,,i,1,0.5076,0,53,53,47,1,固执,i,,,,,,,,,,,,,,,,,,,,,,,,,,,,,,,,,,,,,,,,,
,,,,,,,,,,,,,,1,001,2025-02-17_22h08.08.114,IAT(Formal),2021.2.3,Win32,59.88023952,,,,,,,,,,,,,,,e,1,0.6921,0,54,54,14,1,乐观,e,,,,,,,,,,,,,,,,,,,,,,,,,,,,,,,,,,,,,,,,,
,,,,,,,,,,,,,,1,001,2025-02-17_22h08.08.114,IAT(Formal),2021.2.3,Win32,59.88023952,,,,,,,,,,,,,,,e,1,0.5831,0,55,55,21,1,稳重,e,,,,,,,,,,,,,,,,,,,,,,,,,,,,,,,,,,,,,,,,,
,,,,,,,,,,,,,,1,001,2025-02-17_22h08.08.114,IAT(Formal),2021.2.3,Win32,59.88023952,,,,,,,,,,,,,,,i,1,0.5835,0,56,56,36,1,自卑,i,,,,,,,,,,,,,,,,,,,,,,,,,,,,,,,,,,,,,,,,,
,,,,,,,,,,,,,,1,001,2025-02-17_22h08.08.114,IAT(Formal),2021.2.3,Win32,59.88023952,,,,,,,,,,,,,,,e,1,0.9905,0,57,57,26,1,冷静,e,,,,,,,,,,,,,,,,,,,,,,,,,,,,,,,,,,,,,,,,,
,,,,,,,,,,,,,,1,001,2025-02-17_22h08.08.114,IAT(Formal),2021.2.3,Win32,59.88023952,,,,,,,,,,,,,,,i,1,0.4995,0,58,58,30,1,卑鄙,i,,,,,,,,,,,,,,,,,,,,,,,,,,,,,,,,,,,,,,,,,
,,,,,,,,,,,,,,1,001,2025-02-17_22h08.08.114,IAT(Formal),2021.2.3,Win32,59.88023952,,,,,,,,,,,,,,,i,1,0.9932,0,59,59,40,1,执拗,i,,,,,,,,,,,,,,,,,,,,,,,,,,,,,,,,,,,,,,,,,
,,,,,,,,,,,,,,1,001,2025-02-17_22h08.08.114,IAT(Formal),2021.2.3,Win32,59.88023952,,,,,,,,,,,,,,,e,1,0.558,0,60,60,18,1,勤奋,e,,,,,,,,,,,,,,,,,,,,,,,,,,,,,,,,,,,,,,,,,
,,,,,,,,,,,,,,1,001,2025-02-17_22h08.08.114,IAT(Formal),2021.2.3,Win32,59.88023952,,,,,,,,,,,,,,,i,1,0.4921,0,61,61,67,1,他的,i,,,,,,,,,,,,,,,,,,,,,,,,,,,,,,,,,,,,,,,,,
,,,,,,,,,,,,,,1,001,2025-02-17_22h08.08.114,IAT(Formal),2021.2.3,Win32,59.88023952,,,,,,,,,,,,,,,i,1,0.8677,0,62,62,43,1,自私,i,,,,,,,,,,,,,,,,,,,,,,,,,,,,,,,,,,,,,,,,,
,,,,,,,,,,,,,,1,001,2025-02-17_22h08.08.114,IAT(Formal),2021.2.3,Win32,59.88023952,,,,,,,,,,,,,,,e,1,0.6742,0,63,63,25,1,细腻,e,,,,,,,,,,,,,,,,,,,,,,,,,,,,,,,,,,,,,,,,,
,,,,,,,,,,,,,,1,001,2025-02-17_22h08.08.114,IAT(Formal),2021.2.3,Win32,59.88023952,,,,,,,,,,,,,,,i,0,0.509,0,64,64,62,1,我们,e,,,,,,,,,,,,,,,,,,,,,,,,,,,,,,,,,,,,,,,,,
,,,,,,,,,,,,,,1,001,2025-02-17_22h08.08.114,IAT(Formal),2021.2.3,Win32,59.88023952,,,,,,,,,,,,,,,e,1,1.321,0,65,65,22,1,无私,e,,,,,,,,,,,,,,,,,,,,,,,,,,,,,,,,,,,,,,,,,
,,,,,,,,,,,,,,1,001,2025-02-17_22h08.08.114,IAT(Formal),2021.2.3,Win32,59.88023952,,,,,,,,,,,,,,,e,1,0.5386,0,66,66,4,1,俺,e,,,,,,,,,,,,,,,,,,,,,,,,,,,,,,,,,,,,,,,,,
,,,,,,,,,,,,,,1,001,2025-02-17_22h08.08.114,IAT(Formal),2021.2.3,Win32,59.88023952,,,,,,,,,,,,,,,e,1,0.5056,0,67,67,64,1,俺,e,,,,,,,,,,,,,,,,,,,,,,,,,,,,,,,,,,,,,,,,,
,,,,,,,,,,,,,,1,001,2025-02-17_22h08.08.114,IAT(Formal),2021.2.3,Win32,59.88023952,,,,,,,,,,,,,,,e,1,0.4178,0,68,68,63,1,自己,e,,,,,,,,,,,,,,,,,,,,,,,,,,,,,,,,,,,,,,,,,
,,,,,,,,,,,,,,1,001,2025-02-17_22h08.08.114,IAT(Formal),2021.2.3,Win32,59.88023952,,,,,,,,,,,,,,,e,1,0.4502,0,69,69,70,1,我,e,,,,,,,,,,,,,,,,,,,,,,,,,,,,,,,,,,,,,,,,,
,,,,,,,,,,,,,,1,001,2025-02-17_22h08.08.114,IAT(Formal),2021.2.3,Win32,59.88023952,,,,,,,,,,,,,,,e,1,0.5752,0,70,70,72,1,我们,e,,,,,,,,,,,,,,,,,,,,,,,,,,,,,,,,,,,,,,,,,
,,,,,,,,,,,,,,1,001,2025-02-17_22h08.08.114,IAT(Formal),2021.2.3,Win32,59.88023952,,,,,,,,,,,,,,,e,1,0.7007,0,71,71,10,1,优秀,e,,,,,,,,,,,,,,,,,,,,,,,,,,,,,,,,,,,,,,,,,
,,,,,,,,,,,,,,1,001,2025-02-17_22h08.08.114,IAT(Formal),2021.2.3,Win32,59.88023952,,,,,,,,,,,,,,,e,0,0.6075,0,72,72,58,1,他人,i,,,,,,,,,,,,,,,,,,,,,,,,,,,,,,,,,,,,,,,,,
,,,,,,,,,,,,,,1,001,2025-02-17_22h08.08.114,IAT(Formal),2021.2.3,Win32,59.88023952,,,,,,,,,,,,,,,i,1,0.5839,0,73,73,79,1,其他,i,,,,,,,,,,,,,,,,,,,,,,,,,,,,,,,,,,,,,,,,,
,,,,,,,,,,,,,,1,001,2025-02-17_22h08.08.114,IAT(Formal),2021.2.3,Win32,59.88023952,,,,,,,,,,,,,,,i,1,0.4925,0,74,74,45,1,猖狂,i,,,,,,,,,,,,,,,,,,,,,,,,,,,,,,,,,,,,,,,,,
,,,,,,,,,,,,,,1,001,2025-02-17_22h08.08.114,IAT(Formal),2021.2.3,Win32,59.88023952,,,,,,,,,,,,,,,i,1,1.0176,0,75,75,31,1,虚伪,i,,,,,,,,,,,,,,,,,,,,,,,,,,,,,,,,,,,,,,,,,
,,,,,,,,,,,,,,1,001,2025-02-17_22h08.08.114,IAT(Formal),2021.2.3,Win32,59.88023952,,,,,,,,,,,,,,,i,1,0.4848,0,76,76,48,1,轻率,i,,,,,,,,,,,,,,,,,,,,,,,,,,,,,,,,,,,,,,,,,
,,,,,,,,,,,,,,1,001,2025-02-17_22h08.08.114,IAT(Formal),2021.2.3,Win32,59.88023952,,,,,,,,,,,,,,,i,0,0.4678,0,77,77,13,1,杰出,e,,,,,,,,,,,,,,,,,,,,,,,,,,,,,,,,,,,,,,,,,
,,,,,,,,,,,,,,1,001,2025-02-17_22h08.08.114,IAT(Formal),2021.2.3,Win32,59.88023952,,,,,,,,,,,,,,,i,1,0.575,0,78,78,39,1,冒失,i,,,,,,,,,,,,,,,,,,,,,,,,,,,,,,,,,,,,,,,,,
,,,,,,,,,,,,,,1,001,2025-02-17_22h08.08.114,IAT(Formal),2021.2.3,Win32,59.88023952,,,,,,,,,,,,,,,i,1,0.5037,0,79,79,35,1,消极,i,,,,,,,,,,,,,,,,,,,,,,,,,,,,,,,,,,,,,,,,,
,,,,,,,,,,,,,,1,001,2025-02-17_22h08.08.114,IAT(Formal),2021.2.3,Win32,59.88023952,,,,,,,,,,,,,,,i,1,0.7671,,,,,,他的,i,space,5.819,0,0,0,67,1,,,,,,,,,,,,,,,,,,,,,,,,,,,,,,,,,,
,,,,,,,,,,,,,,1,001,2025-02-17_22h08.08.114,IAT(Formal),2021.2.3,Win32,59.88023952,,,,,,,,,,,,,,,e,1,0.8619,,,,,,机智,e,,,0,1,1,19,1,,,,,,,,,,,,,,,,,,,,,,,,,,,,,,,,,,
,,,,,,,,,,,,,,1,001,2025-02-17_22h08.08.114,IAT(Formal),2021.2.3,Win32,59.88023952,,,,,,,,,,,,,,,e,1,0.8566,,,,,,杰出,e,,,0,2,2,13,1,,,,,,,,,,,,,,,,,,,,,,,,,,,,,,,,,,
,,,,,,,,,,,,,,1,001,2025-02-17_22h08.08.114,IAT(Formal),2021.2.3,Win32,59.88023952,,,,,,,,,,,,,,,i,0,0.6301,,,,,,我,e,,,0,3,3,70,1,,,,,,,,,,,,,,,,,,,,,,,,,,,,,,,,,,
,,,,,,,,,,,,,,1,001,2025-02-17_22h08.08.114,IAT(Formal),2021.2.3,Win32,59.88023952,,,,,,,,,,,,,,,e,1,0.5831,,,,,,乐观,e,,,0,4,4,14,1,,,,,,,,,,,,,,,,,,,,,,,,,,,,,,,,,,
,,,,,,,,,,,,,,1,001,2025-02-17_22h08.08.114,IAT(Formal),2021.2.3,Win32,59.88023952,,,,,,,,,,,,,,,i,1,0.6673,,,,,,他人,i,,,0,5,5,78,1,,,,,,,,,,,,,,,,,,,,,,,,,,,,,,,,,,
,,,,,,,,,,,,,,1,001,2025-02-17_22h08.08.114,IAT(Formal),2021.2.3,Win32,59.88023952,,,,,,,,,,,,,,,e,1,0.9073,,,,,,无私,e,,,0,6,6,22,1,,,,,,,,,,,,,,,,,,,,,,,,,,,,,,,,,,
,,,,,,,,,,,,,,1,001,2025-02-17_22h08.08.114,IAT(Formal),2021.2.3,Win32,59.88023952,,,,,,,,,,,,,,,e,1,0.9786,,,,,,诚实,e,,,0,7,7,15,1,,,,,,,,,,,,,,,,,,,,,,,,,,,,,,,,,,
,,,,,,,,,,,,,,1,001,2025-02-17_22h08.08.114,IAT(Formal),2021.2.3,Win32,59.88023952,,,,,,,,,,,,,,,e,1,0.8265,,,,,,我,e,,,0,8,8,50,1,,,,,,,,,,,,,,,,,,,,,,,,,,,,,,,,,,
,,,,,,,,,,,,,,1,001,2025-02-17_22h08.08.114,IAT(Formal),2021.2.3,Win32,59.88023952,,,,,,,,,,,,,,,e,1,0.6389,,,,,,公正,e,,,0,9,9,23,1,,,,,,,,,,,,,,,,,,,,,,,,,,,,,,,,,,
,,,,,,,,,,,,,,1,001,2025-02-17_22h08.08.114,IAT(Formal),2021.2.3,Win32,59.88023952,,,,,,,,,,,,,,,e,1,0.6218,,,,,,勤奋,e,,,0,10,10,18,1,,,,,,,,,,,,,,,,,,,,,,,,,,,,,,,,,,
,,,,,,,,,,,,,,1,001,2025-02-17_22h08.08.114,IAT(Formal),2021.2.3,Win32,59.88023952,,,,,,,,,,,,,,,e,0,0.6855,,,,,,他的,i,,,0,11,11,57,1,,,,,,,,,,,,,,,,,,,,,,,,,,,,,,,,,,
,,,,,,,,,,,,,,1,001,2025-02-17_22h08.08.114,IAT(Formal),2021.2.3,Win32,59.88023952,,,,,,,,,,,,,,,i,1,0.4557,,,,,,他们,i,,,0,12,12,56,1,,,,,,,,,,,,,,,,,,,,,,,,,,,,,,,,,,
,,,,,,,,,,,,,,1,001,2025-02-17_22h08.08.114,IAT(Formal),2021.2.3,Win32,59.88023952,,,,,,,,,,,,,,,i,1,0.5465,,,,,,野蛮,i,,,0,13,13,46,1,,,,,,,,,,,,,,,,,,,,,,,,,,,,,,,,,,
,,,,,,,,,,,,,,1,001,2025-02-17_22h08.08.114,IAT(Formal),2021.2.3,Win32,59.88023952,,,,,,,,,,,,,,,e,1,0.6908,,,,,,朴实,e,,,0,14,14,24,1,,,,,,,,,,,,,,,,,,,,,,,,,,,,,,,,,,
,,,,,,,,,,,,,,1,001,2025-02-17_22h08.08.114,IAT(Formal),2021.2.3,Win32,59.88023952,,,,,,,,,,,,,,,e,1,0.6118,,,,,,优秀,e,,,0,15,15,10,1,,,,,,,,,,,,,,,,,,,,,,,,,,,,,,,,,,
,,,,,,,,,,,,,,1,001,2025-02-17_22h08.08.114,IAT(Formal),2021.2.3,Win32,59.88023952,,,,,,,,,,,,,,,e,1,0.9322,,,,,,我的,e,,,0,16,16,51,1,,,,,,,,,,,,,,,,,,,,,,,,,,,,,,,,,,
,,,,,,,,,,,,,,1,001,2025-02-17_22h08.08.114,IAT(Formal),2021.2.3,Win32,59.88023952,,,,,,,,,,,,,,,e,1,0.6408,,,,,,诚恳,e,,,0,17,17,29,1,,,,,,,,,,,,,,,,,,,,,,,,,,,,,,,,,,
,,,,,,,,,,,,,,1,001,2025-02-17_22h08.08.114,IAT(Formal),2021.2.3,Win32,59.88023952,,,,,,,,,,,,,,,e,1,0.6047,,,,,,俺,e,,,0,18,18,64,1,,,,,,,,,,,,,,,,,,,,,,,,,,,,,,,,,,
,,,,,,,,,,,,,,1,001,2025-02-17_22h08.08.114,IAT(Formal),2021.2.3,Win32,59.88023952,,,,,,,,,,,,,,,e,1,0.4361,,,,,,我们,e,,,0,19,19,52,1,,,,,,,,,,,,,,,,,,,,,,,,,,,,,,,,,,
,,,,,,,,,,,,,,1,001,2025-02-17_22h08.08.114,IAT(Formal),2021.2.3,Win32,59.88023952,,,,,,,,,,,,,,,i,1,0.5433,,,,,,他人,i,,,0,20,20,58,1,,,,,,,,,,,,,,,,,,,,,,,,,,,,,,,,,,
,,,,,,,,,,,,,,1,001,2025-02-17_22h08.08.114,IAT(Formal),2021.2.3,Win32,59.88023952,,,,,,,,,,,,,,,e,0,1.0305,,,,,,他,i,,,0,21,21,5,1,,,,,,,,,,,,,,,,,,,,,,,,,,,,,,,,,,
,,,,,,,,,,,,,,1,001,2025-02-17_22h08.08.114,IAT(Formal),2021.2.3,Win32,59.88023952,,,,,,,,,,,,,,,i,1,0.5476,,,,,,其他,i,,,0,22,22,69,1,,,,,,,,,,,,,,,,,,,,,,,,,,,,,,,,,,
,,,,,,,,,,,,,,1,001,2025-02-17_22h08.08.114,IAT(Formal),2021.2.3,Win32,59.88023952,,,,,,,,,,,,,,,i,1,0.7884,,,,,,他,i,,,0,23,23,55,1,,,,,,,,,,,,,,,,,,,,,,,,,,,,,,,,,,
,,,,,,,,,,,,,,1,001,2025-02-17_22h08.08.114,IAT(Formal),2021.2.3,Win32,59.88023952,,,,,,,,,,,,,,,e,1,0.7342,,,,,,我,e,,,0,24,24,0,1,,,,,,,,,,,,,,,,,,,,,,,,,,,,,,,,,,
,,,,,,,,,,,,,,1,001,2025-02-17_22h08.08.114,IAT(Formal),2021.2.3,Win32,59.88023952,,,,,,,,,,,,,,,i,1,1.3388,,,,,,他人,i,,,0,25,25,68,1,,,,,,,,,,,,,,,,,,,,,,,,,,,,,,,,,,
,,,,,,,,,,,,,,1,001,2025-02-17_22h08.08.114,IAT(Formal),2021.2.3,Win32,59.88023952,,,,,,,,,,,,,,,i,1,0.6719,,,,,,冒失,i,,,0,26,26,39,1,,,,,,,,,,,,,,,,,,,,,,,,,,,,,,,,,,
,,,,,,,,,,,,,,1,001,2025-02-17_22h08.08.114,IAT(Formal),2021.2.3,Win32,59.88023952,,,,,,,,,,,,,,,i,1,0.5519,,,,,,凶狠,i,,,0,27,27,42,1,,,,,,,,,,,,,,,,,,,,,,,,,,,,,,,,,,
,,,,,,,,,,,,,,1,001,2025-02-17_22h08.08.114,IAT(Formal),2021.2.3,Win32,59.88023952,,,,,,,,,,,,,,,i,0,0.5233,,,,,,自己,e,,,0,28,28,53,1,,,,,,,,,,,,,,,,,,,,,,,,,,,,,,,,,,
,,,,,,,,,,,,,,1,001,2025-02-17_22h08.08.114,IAT(Formal),2021.2.3,Win32,59.88023952,,,,,,,,,,,,,,,e,1,0.5154,,,,,,我的,e,,,0,29,29,1,1,,,,,,,,,,,,,,,,,,,,,,,,,,,,,,,,,,
,,,,,,,,,,,,,,1,001,2025-02-17_22h08.08.114,IAT(Formal),2021.2.3,Win32,59.88023952,,,,,,,,,,,,,,,i,1,0.5391,,,,,,虚伪,i,,,0,30,30,31,1,,,,,,,,,,,,,,,,,,,,,,,,,,,,,,,,,,
,,,,,,,,,,,,,,1,001,2025-02-17_22h08.08.114,IAT(Formal),2021.2.3,Win32,59.88023952,,,,,,,,,,,,,,,e,1,0.6128,,,,,,聪明,e,,,0,31,31,12,1,,,,,,,,,,,,,,,,,,,,,,,,,,,,,,,,,,
,,,,,,,,,,,,,,1,001,2025-02-17_22h08.08.114,IAT(Formal),2021.2.3,Win32,59.88023952,,,,,,,,,,,,,,,i,1,1.175,,,,,,下贱,i,,,0,32,32,49,1,,,,,,,,,,,,,,,,,,,,,,,,,,,,,,,,,,
,,,,,,,,,,,,,,1,001,2025-02-17_22h08.08.114,IAT(Formal),2021.2.3,Win32,59.88023952,,,,,,,,,,,,,,,i,1,0.5476,,,,,,鲁莽,i,,,0,33,33,38,1,,,,,,,,,,,,,,,,,,,,,,,,,,,,,,,,,,
,,,,,,,,,,,,,,1,001,2025-02-17_22h08.08.114,IAT(Formal),2021.2.3,Win32,59.88023952,,,,,,,,,,,,,,,i,1,0.8896,,,,,,他们,i,,,0,34,34,66,1,,,,,,,,,,,,,,,,,,,,,,,,,,,,,,,,,,
,,,,,,,,,,,,,,1,001,2025-02-17_22h08.08.114,IAT(Formal),2021.2.3,Win32,59.88023952,,,,,,,,,,,,,,,i,1,0.5909,,,,,,他们,i,,,0,35,35,6,1,,,,,,,,,,,,,,,,,,,,,,,,,,,,,,,,,,
,,,,,,,,,,,,,,1,001,2025-02-17_22h08.08.114,IAT(Formal),2021.2.3,Win32,59.88023952,,,,,,,,,,,,,,,e,1,0.9007,,,,,,崇高,e,,,0,36,36,11,1,,,,,,,,,,,,,,,,,,,,,,,,,,,,,,,,,,
,,,,,,,,,,,,,,1,001,2025-02-17_22h08.08.114,IAT(Formal),2021.2.3,Win32,59.88023952,,,,,,,,,,,,,,,e,1,0.8601,,,,,,活泼,e,,,0,37,37,28,1,,,,,,,,,,,,,,,,,,,,,,,,,,,,,,,,,,
,,,,,,,,,,,,,,1,001,2025-02-17_22h08.08.114,IAT(Formal),2021.2.3,Win32,59.88023952,,,,,,,,,,,,,,,i,1,0.8023,,,,,,他们,i,,,0,38,38,76,1,,,,,,,,,,,,,,,,,,,,,,,,,,,,,,,,,,
,,,,,,,,,,,,,,1,001,2025-02-17_22h08.08.114,IAT(Formal),2021.2.3,Win32,59.88023952,,,,,,,,,,,,,,,e,1,0.6218,,,,,,俺,e,,,0,39,39,74,1,,,,,,,,,,,,,,,,,,,,,,,,,,,,,,,,,,
,,,,,,,,,,,,,,1,001,2025-02-17_22h08.08.114,IAT(Formal),2021.2.3,Win32,59.88023952,,,,,,,,,,,,,,,i,1,0.4344,,,,,,其他,i,,,0,40,40,59,1,,,,,,,,,,,,,,,,,,,,,,,,,,,,,,,,,,
,,,,,,,,,,,,,,1,001,2025-02-17_22h08.08.114,IAT(Formal),2021.2.3,Win32,59.88023952,,,,,,,,,,,,,,,e,1,0.4757,,,,,,热情,e,,,0,41,41,27,1,,,,,,,,,,,,,,,,,,,,,,,,,,,,,,,,,,
,,,,,,,,,,,,,,1,001,2025-02-17_22h08.08.114,IAT(Formal),2021.2.3,Win32,59.88023952,,,,,,,,,,,,,,,i,1,0.5303,,,,,,他,i,,,0,42,42,75,1,,,,,,,,,,,,,,,,,,,,,,,,,,,,,,,,,,
,,,,,,,,,,,,,,1,001,2025-02-17_22h08.08.114,IAT(Formal),2021.2.3,Win32,59.88023952,,,,,,,,,,,,,,,i,1,1.1091,,,,,,散漫,i,,,0,43,43,41,1,,,,,,,,,,,,,,,,,,,,,,,,,,,,,,,,,,
,,,,,,,,,,,,,,1,001,2025-02-17_22h08.08.114,IAT(Formal),2021.2.3,Win32,59.88023952,,,,,,,,,,,,,,,i,1,0.5631,,,,,,自卑,i,,,0,44,44,36,1,,,,,,,,,,,,,,,,,,,,,,,,,,,,,,,,,,
,,,,,,,,,,,,,,1,001,2025-02-17_22h08.08.114,IAT(Formal),2021.2.3,Win32,59.88023952,,,,,,,,,,,,,,,i,1,0.5679,,,,,,他,i,,,0,45,45,65,1,,,,,,,,,,,,,,,,,,,,,,,,,,,,,,,,,,
,,,,,,,,,,,,,,1,001,2025-02-17_22h08.08.114,IAT(Formal),2021.2.3,Win32,59.88023952,,,,,,,,,,,,,,,e,1,0.8059,,,,,,俺,e,,,0,46,46,54,1,,,,,,,,,,,,,,,,,,,,,,,,,,,,,,,,,,
,,,,,,,,,,,,,,1,001,2025-02-17_22h08.08.114,IAT(Formal),2021.2.3,Win32,59.88023952,,,,,,,,,,,,,,,i,1,0.5865,,,,,,轻率,i,,,0,47,47,48,1,,,,,,,,,,,,,,,,,,,,,,,,,,,,,,,,,,
,,,,,,,,,,,,,,1,001,2025-02-17_22h08.08.114,IAT(Formal),2021.2.3,Win32,59.88023952,,,,,,,,,,,,,,,i,1,0.5834,,,,,,傲慢,i,,,0,48,48,37,1,,,,,,,,,,,,,,,,,,,,,,,,,,,,,,,,,,
,,,,,,,,,,,,,,1,001,2025-02-17_22h08.08.114,IAT(Formal),2021.2.3,Win32,59.88023952,,,,,,,,,,,,,,,e,1,0.5907,,,,,,正直,e,,,0,49,49,16,1,,,,,,,,,,,,,,,,,,,,,,,,,,,,,,,,,,
,,,,,,,,,,,,,,1,001,2025-02-17_22h08.08.114,IAT(Formal),2021.2.3,Win32,59.88023952,,,,,,,,,,,,,,,i,1,0.5835,,,,,,固执,i,,,0,50,50,47,1,,,,,,,,,,,,,,,,,,,,,,,,,,,,,,,,,,
,,,,,,,,,,,,,,1,001,2025-02-17_22h08.08.114,IAT(Formal),2021.2.3,Win32,59.88023952,,,,,,,,,,,,,,,e,1,0.7009,,,,,,细腻,e,,,0,51,51,25,1,,,,,,,,,,,,,,,,,,,,,,,,,,,,,,,,,,
,,,,,,,,,,,,,,1,001,2025-02-17_22h08.08.114,IAT(Formal),2021.2.3,Win32,59.88023952,,,,,,,,,,,,,,,e,1,0.5249,,,,,,我们,e,,,0,52,52,2,1,,,,,,,,,,,,,,,,,,,,,,,,,,,,,,,,,,
,,,,,,,,,,,,,,1,001,2025-02-17_22h08.08.114,IAT(Formal),2021.2.3,Win32,59.88023952,,,,,,,,,,,,,,,i,1,0.6355,,,,,,他的,i,,,0,53,53,77,1,,,,,,,,,,,,,,,,,,,,,,,,,,,,,,,,,,
,,,,,,,,,,,,,,1,001,2025-02-17_22h08.08.114,IAT(Formal),2021.2.3,Win32,59.88023952,,,,,,,,,,,,,,,i,1,0.6133,,,,,,其他,i,,,0,54,54,9,1,,,,,,,,,,,,,,,,,,,,,,,,,,,,,,,,,,
,,,,,,,,,,,,,,1,001,2025-02-17_22h08.08.114,IAT(Formal),2021.2.3,Win32,59.88023952,,,,,,,,,,,,,,,i,1,1.2163,,,,,,愚蠢,i,,,0,55,55,32,1,,,,,,,,,,,,,,,,,,,,,,,,,,,,,,,,,,
,,,,,,,,,,,,,,1,001,2025-02-17_22h08.08.114,IAT(Formal),2021.2.3,Win32,59.88023952,,,,,,,,,,,,,,,i,1,0.6967,,,,,,消极,i,,,0,56,56,35,1,,,,,,,,,,,,,,,,,,,,,,,,,,,,,,,,,,
,,,,,,,,,,,,,,1,001,2025-02-17_22h08.08.114,IAT(Formal),2021.2.3,Win32,59.88023952,,,,,,,,,,,,,,,i,1,0.4055,,,,,,他人,i,,,0,57,57,8,1,,,,,,,,,,,,,,,,,,,,,,,,,,,,,,,,,,
,,,,,,,,,,,,,,1,001,2025-02-17_22h08.08.114,IAT(Formal),2021.2.3,Win32,59.88023952,,,,,,,,,,,,,,,i,0,0.3818,,,,,,我的,e,,,0,58,58,61,1,,,,,,,,,,,,,,,,,,,,,,,,,,,,,,,,,,
,,,,,,,,,,,,,,1,001,2025-02-17_22h08.08.114,IAT(Formal),2021.2.3,Win32,59.88023952,,,,,,,,,,,,,,,e,1,0.5589,,,,,,俺,e,,,0,59,59,4,1,,,,,,,,,,,,,,,,,,,,,,,,,,,,,,,,,,
,,,,,,,,,,,,,,1,001,2025-02-17_22h08.08.114,IAT(Formal),2021.2.3,Win32,59.88023952,,,,,,,,,,,,,,,e,1,1.1346,,,,,,我的,e,,,0,60,60,71,1,,,,,,,,,,,,,,,,,,,,,,,,,,,,,,,,,,
,,,,,,,,,,,,,,1,001,2025-02-17_22h08.08.114,IAT(Formal),2021.2.3,Win32,59.88023952,,,,,,,,,,,,,,,,0,,,,,,,认真,e,,,0,61,61,20,1,,,,,,,,,,,,,,,,,,,,,,,,,,,,,,,,,,
,,,,,,,,,,,,,,1,001,2025-02-17_22h08.08.114,IAT(Formal),2021.2.3,Win32,59.88023952,,,,,,,,,,,,,,,e,1,0.5564,,,,,,自己,e,,,0,62,62,3,1,,,,,,,,,,,,,,,,,,,,,,,,,,,,,,,,,,
,,,,,,,,,,,,,,1,001,2025-02-17_22h08.08.114,IAT(Formal),2021.2.3,Win32,59.88023952,,,,,,,,,,,,,,,i,1,0.4474,,,,,,暴躁,i,,,0,63,63,44,1,,,,,,,,,,,,,,,,,,,,,,,,,,,,,,,,,,
,,,,,,,,,,,,,,1,001,2025-02-17_22h08.08.114,IAT(Formal),2021.2.3,Win32,59.88023952,,,,,,,,,,,,,,,e,1,0.4605,,,,,,自己,e,,,0,64,64,73,1,,,,,,,,,,,,,,,,,,,,,,,,,,,,,,,,,,
,,,,,,,,,,,,,,1,001,2025-02-17_22h08.08.114,IAT(Formal),2021.2.3,Win32,59.88023952,,,,,,,,,,,,,,,e,1,0.4052,,,,,,自己,e,,,0,65,65,63,1,,,,,,,,,,,,,,,,,,,,,,,,,,,,,,,,,,
,,,,,,,,,,,,,,1,001,2025-02-17_22h08.08.114,IAT(Formal),2021.2.3,Win32,59.88023952,,,,,,,,,,,,,,,e,1,0.5959,,,,,,勇敢,e,,,0,66,66,17,1,,,,,,,,,,,,,,,,,,,,,,,,,,,,,,,,,,
,,,,,,,,,,,,,,1,001,2025-02-17_22h08.08.114,IAT(Formal),2021.2.3,Win32,59.88023952,,,,,,,,,,,,,,,e,1,0.8185,,,,,,我们,e,,,0,67,67,72,1,,,,,,,,,,,,,,,,,,,,,,,,,,,,,,,,,,
,,,,,,,,,,,,,,1,001,2025-02-17_22h08.08.114,IAT(Formal),2021.2.3,Win32,59.88023952,,,,,,,,,,,,,,,i,1,0.5509,,,,,,执拗,i,,,0,68,68,40,1,,,,,,,,,,,,,,,,,,,,,,,,,,,,,,,,,,
,,,,,,,,,,,,,,1,001,2025-02-17_22h08.08.114,IAT(Formal),2021.2.3,Win32,59.88023952,,,,,,,,,,,,,,,i,1,0.6342,,,,,,悲观,i,,,0,69,69,34,1,,,,,,,,,,,,,,,,,,,,,,,,,,,,,,,,,,
,,,,,,,,,,,,,,1,001,2025-02-17_22h08.08.114,IAT(Formal),2021.2.3,Win32,59.88023952,,,,,,,,,,,,,,,i,1,0.802,,,,,,卑鄙,i,,,0,70,70,30,1,,,,,,,,,,,,,,,,,,,,,,,,,,,,,,,,,,
,,,,,,,,,,,,,,1,001,2025-02-17_22h08.08.114,IAT(Formal),2021.2.3,Win32,59.88023952,,,,,,,,,,,,,,,i,1,0.5167,,,,,,猖狂,i,,,0,71,71,45,1,,,,,,,,,,,,,,,,,,,,,,,,,,,,,,,,,,
,,,,,,,,,,,,,,1,001,2025-02-17_22h08.08.114,IAT(Formal),2021.2.3,Win32,59.88023952,,,,,,,,,,,,,,,e,1,0.6621,,,,,,稳重,e,,,0,72,72,21,1,,,,,,,,,,,,,,,,,,,,,,,,,,,,,,,,,,
,,,,,,,,,,,,,,1,001,2025-02-17_22h08.08.114,IAT(Formal),2021.2.3,Win32,59.88023952,,,,,,,,,,,,,,,e,1,0.4627,,,,,,我们,e,,,0,73,73,62,1,,,,,,,,,,,,,,,,,,,,,,,,,,,,,,,,,,
,,,,,,,,,,,,,,1,001,2025-02-17_22h08.08.114,IAT(Formal),2021.2.3,Win32,59.88023952,,,,,,,,,,,,,,,e,1,0.5363,,,,,,冷静,e,,,0,74,74,26,1,,,,,,,,,,,,,,,,,,,,,,,,,,,,,,,,,,
,,,,,,,,,,,,,,1,001,2025-02-17_22h08.08.114,IAT(Formal),2021.2.3,Win32,59.88023952,,,,,,,,,,,,,,,i,1,0.569,,,,,,刻薄,i,,,0,75,75,33,1,,,,,,,,,,,,,,,,,,,,,,,,,,,,,,,,,,
,,,,,,,,,,,,,,1,001,2025-02-17_22h08.08.114,IAT(Formal),2021.2.3,Win32,59.88023952,,,,,,,,,,,,,,,e,1,0.4914,,,,,,我,e,,,0,76,76,60,1,,,,,,,,,,,,,,,,,,,,,,,,,,,,,,,,,,
,,,,,,,,,,,,,,1,001,2025-02-17_22h08.08.114,IAT(Formal),2021.2.3,Win32,59.88023952,,,,,,,,,,,,,,,i,1,0.4968,,,,,,其他,i,,,0,77,77,79,1,,,,,,,,,,,,,,,,,,,,,,,,,,,,,,,,,,
,,,,,,,,,,,,,,1,001,2025-02-17_22h08.08.114,IAT(Formal),2021.2.3,Win32,59.88023952,,,,,,,,,,,,,,,i,1,0.4897,,,,,,他的,i,,,0,78,78,7,1,,,,,,,,,,,,,,,,,,,,,,,,,,,,,,,,,,
,,,,,,,,,,,,,,1,001,2025-02-17_22h08.08.114,IAT(Formal),2021.2.3,Win32,59.88023952,,,,,,,,,,,,,,,i,1,0.601,,,,,,自私,i,,,0,79,79,43,1,,,,,,,,,,,,,,,,,,,,,,,,,,,,,,,,,,
,,,,,,,,,,,,,,1,001,2025-02-17_22h08.08.114,IAT(Formal),2021.2.3,Win32,59.88023952,,,,,,,,,,,,,,,e,1,0.3541,,,,,,我们,e,,,1,0,80,62,1,,,,,,,,,,,,,,,,,,,,,,,,,,,,,,,,,,
,,,,,,,,,,,,,,1,001,2025-02-17_22h08.08.114,IAT(Formal),2021.2.3,Win32,59.88023952,,,,,,,,,,,,,,,i,0,0.3514,,,,,,我,e,,,1,1,81,50,1,,,,,,,,,,,,,,,,,,,,,,,,,,,,,,,,,,
,,,,,,,,,,,,,,1,001,2025-02-17_22h08.08.114,IAT(Formal),2021.2.3,Win32,59.88023952,,,,,,,,,,,,,,,e,1,0.5014,,,,,,朴实,e,,,1,2,82,24,1,,,,,,,,,,,,,,,,,,,,,,,,,,,,,,,,,,
,,,,,,,,,,,,,,1,001,2025-02-17_22h08.08.114,IAT(Formal),2021.2.3,Win32,59.88023952,,,,,,,,,,,,,,,i,1,1.1622,,,,,,他人,i,,,1,3,83,78,1,,,,,,,,,,,,,,,,,,,,,,,,,,,,,,,,,,
,,,,,,,,,,,,,,1,001,2025-02-17_22h08.08.114,IAT(Formal),2021.2.3,Win32,59.88023952,,,,,,,,,,,,,,,,0,,,,,,,聪明,e,,,1,4,84,12,1,,,,,,,,,,,,,,,,,,,,,,,,,,,,,,,,,,
,,,,,,,,,,,,,,1,001,2025-02-17_22h08.08.114,IAT(Formal),2021.2.3,Win32,59.88023952,,,,,,,,,,,,,,,e,1,1.1088,,,,,,自己,e,,,1,5,85,73,1,,,,,,,,,,,,,,,,,,,,,,,,,,,,,,,,,,
,,,,,,,,,,,,,,1,001,2025-02-17_22h08.08.114,IAT(Formal),2021.2.3,Win32,59.88023952,,,,,,,,,,,,,,,e,1,1.0056,,,,,,优秀,e,,,1,6,86,10,1,,,,,,,,,,,,,,,,,,,,,,,,,,,,,,,,,,
,,,,,,,,,,,,,,1,001,2025-02-17_22h08.08.114,IAT(Formal),2021.2.3,Win32,59.88023952,,,,,,,,,,,,,,,i,1,0.9127,,,,,,他们,i,,,1,7,87,6,1,,,,,,,,,,,,,,,,,,,,,,,,,,,,,,,,,,
,,,,,,,,,,,,,,1,001,2025-02-17_22h08.08.114,IAT(Formal),2021.2.3,Win32,59.88023952,,,,,,,,,,,,,,,,0,,,,,,,勇敢,e,,,1,8,88,17,1,,,,,,,,,,,,,,,,,,,,,,,,,,,,,,,,,,
,,,,,,,,,,,,,,1,001,2025-02-17_22h08.08.114,IAT(Formal),2021.2.3,Win32,59.88023952,,,,,,,,,,,,,,,e,1,0.8053,,,,,,自己,e,,,1,9,89,53,1,,,,,,,,,,,,,,,,,,,,,,,,,,,,,,,,,,
,,,,,,,,,,,,,,1,001,2025-02-17_22h08.08.114,IAT(Formal),2021.2.3,Win32,59.88023952,,,,,,,,,,,,,,,e,1,0.669,,,,,,我的,e,,,1,10,90,71,1,,,,,,,,,,,,,,,,,,,,,,,,,,,,,,,,,,
,,,,,,,,,,,,,,1,001,2025-02-17_22h08.08.114,IAT(Formal),2021.2.3,Win32,59.88023952,,,,,,,,,,,,,,,i,0,1.1235,,,,,,自己,e,,,1,11,91,3,1,,,,,,,,,,,,,,,,,,,,,,,,,,,,,,,,,,
,,,,,,,,,,,,,,1,001,2025-02-17_22h08.08.114,IAT(Formal),2021.2.3,Win32,59.88023952,,,,,,,,,,,,,,,e,0,0.6802,,,,,,他的,i,,,1,12,92,67,1,,,,,,,,,,,,,,,,,,,,,,,,,,,,,,,,,,
,,,,,,,,,,,,,,1,001,2025-02-17_22h08.08.114,IAT(Formal),2021.2.3,Win32,59.88023952,,,,,,,,,,,,,,,i,1,0.6839,,,,,,他,i,,,1,13,93,5,1,,,,,,,,,,,,,,,,,,,,,,,,,,,,,,,,,,
,,,,,,,,,,,,,,1,001,2025-02-17_22h08.08.114,IAT(Formal),2021.2.3,Win32,59.88023952,,,,,,,,,,,,,,,e,1,0.725,,,,,,我,e,,,1,14,94,60,1,,,,,,,,,,,,,,,,,,,,,,,,,,,,,,,,,,
,,,,,,,,,,,,,,1,001,2025-02-17_22h08.08.114,IAT(Formal),2021.2.3,Win32,59.88023952,,,,,,,,,,,,,,,e,1,1.2003,,,,,,勤奋,e,,,1,15,95,18,1,,,,,,,,,,,,,,,,,,,,,,,,,,,,,,,,,,
,,,,,,,,,,,,,,1,001,2025-02-17_22h08.08.114,IAT(Formal),2021.2.3,Win32,59.88023952,,,,,,,,,,,,,,,,0,,,,,,,我的,e,,,1,16,96,1,1,,,,,,,,,,,,,,,,,,,,,,,,,,,,,,,,,,
,,,,,,,,,,,,,,1,001,2025-02-17_22h08.08.114,IAT(Formal),2021.2.3,Win32,59.88023952,,,,,,,,,,,,,,,i,1,0.5204,,,,,,他们,i,,,1,17,97,66,1,,,,,,,,,,,,,,,,,,,,,,,,,,,,,,,,,,
,,,,,,,,,,,,,,1,001,2025-02-17_22h08.08.114,IAT(Formal),2021.2.3,Win32,59.88023952,,,,,,,,,,,,,,,e,1,0.6042,,,,,,杰出,e,,,1,18,98,13,1,,,,,,,,,,,,,,,,,,,,,,,,,,,,,,,,,,
,,,,,,,,,,,,,,1,001,2025-02-17_22h08.08.114,IAT(Formal),2021.2.3,Win32,59.88023952,,,,,,,,,,,,,,,e,1,1.3908,,,,,,我的,e,,,1,19,99,51,1,,,,,,,,,,,,,,,,,,,,,,,,,,,,,,,,,,
,,,,,,,,,,,,,,1,001,2025-02-17_22h08.08.114,IAT(Formal),2021.2.3,Win32,59.88023952,,,,,,,,,,,,,,,,0,,,,,,,刻薄,i,,,1,20,100,33,1,,,,,,,,,,,,,,,,,,,,,,,,,,,,,,,,,,
,,,,,,,,,,,,,,1,001,2025-02-17_22h08.08.114,IAT(Formal),2021.2.3,Win32,59.88023952,,,,,,,,,,,,,,,,0,,,,,,,无私,e,,,1,21,101,22,1,,,,,,,,,,,,,,,,,,,,,,,,,,,,,,,,,,
,,,,,,,,,,,,,,1,001,2025-02-17_22h08.08.114,IAT(Formal),2021.2.3,Win32,59.88023952,,,,,,,,,,,,,,,i,1,0.5525,,,,,,暴躁,i,,,1,22,102,44,1,,,,,,,,,,,,,,,,,,,,,,,,,,,,,,,,,,
,,,,,,,,,,,,,,1,001,2025-02-17_22h08.08.114,IAT(Formal),2021.2.3,Win32,59.88023952,,,,,,,,,,,,,,,e,1,0.7497,,,,,,公正,e,,,1,23,103,23,1,,,,,,,,,,,,,,,,,,,,,,,,,,,,,,,,,,
,,,,,,,,,,,,,,1,001,2025-02-17_22h08.08.114,IAT(Formal),2021.2.3,Win32,59.88023952,,,,,,,,,,,,,,,i,1,0.6173,,,,,,固执,i,,,1,24,104,47,1,,,,,,,,,,,,,,,,,,,,,,,,,,,,,,,,,,
,,,,,,,,,,,,,,1,001,2025-02-17_22h08.08.114,IAT(Formal),2021.2.3,Win32,59.88023952,,,,,,,,,,,,,,,,0,,,,,,,他人,i,,,1,25,105,58,1,,,,,,,,,,,,,,,,,,,,,,,,,,,,,,,,,,
,,,,,,,,,,,,,,1,001,2025-02-17_22h08.08.114,IAT(Formal),2021.2.3,Win32,59.88023952,,,,,,,,,,,,,,,,0,,,,,,,愚蠢,i,,,1,26,106,32,1,,,,,,,,,,,,,,,,,,,,,,,,,,,,,,,,,,
,,,,,,,,,,,,,,1,001,2025-02-17_22h08.08.114,IAT(Formal),2021.2.3,Win32,59.88023952,,,,,,,,,,,,,,,i,1,0.9265,,,,,,他人,i,,,1,27,107,68,1,,,,,,,,,,,,,,,,,,,,,,,,,,,,,,,,,,
,,,,,,,,,,,,,,1,001,2025-02-17_22h08.08.114,IAT(Formal),2021.2.3,Win32,59.88023952,,,,,,,,,,,,,,,e,1,0.8019,,,,,,细腻,e,,,1,28,108,25,1,,,,,,,,,,,,,,,,,,,,,,,,,,,,,,,,,,
,,,,,,,,,,,,,,1,001,2025-02-17_22h08.08.114,IAT(Formal),2021.2.3,Win32,59.88023952,,,,,,,,,,,,,,,i,1,0.7362,,,,,,冒失,i,,,1,29,109,39,1,,,,,,,,,,,,,,,,,,,,,,,,,,,,,,,,,,
,,,,,,,,,,,,,,1,001,2025-02-17_22h08.08.114,IAT(Formal),2021.2.3,Win32,59.88023952,,,,,,,,,,,,,,,e,0,1.2324,,,,,,轻率,i,,,1,30,110,48,1,,,,,,,,,,,,,,,,,,,,,,,,,,,,,,,,,,
,,,,,,,,,,,,,,1,001,2025-02-17_22h08.08.114,IAT(Formal),2021.2.3,Win32,59.88023952,,,,,,,,,,,,,,,e,1,0.8803,,,,,,俺,e,,,1,31,111,4,1,,,,,,,,,,,,,,,,,,,,,,,,,,,,,,,,,,
,,,,,,,,,,,,,,1,001,2025-02-17_22h08.08.114,IAT(Formal),2021.2.3,Win32,59.88023952,,,,,,,,,,,,,,,e,1,1.0217,,,,,,俺,e,,,1,32,112,74,1,,,,,,,,,,,,,,,,,,,,,,,,,,,,,,,,,,
,,,,,,,,,,,,,,1,001,2025-02-17_22h08.08.114,IAT(Formal),2021.2.3,Win32,59.88023952,,,,,,,,,,,,,,,i,0,0.5551,,,,,,冷静,e,,,1,33,113,26,1,,,,,,,,,,,,,,,,,,,,,,,,,,,,,,,,,,
,,,,,,,,,,,,,,1,001,2025-02-17_22h08.08.114,IAT(Formal),2021.2.3,Win32,59.88023952,,,,,,,,,,,,,,,e,0,1.1227,,,,,,他人,i,,,1,34,114,8,1,,,,,,,,,,,,,,,,,,,,,,,,,,,,,,,,,,
,,,,,,,,,,,,,,1,001,2025-02-17_22h08.08.114,IAT(Formal),2021.2.3,Win32,59.88023952,,,,,,,,,,,,,,,i,1,0.2627,,,,,,虚伪,i,,,1,35,115,31,1,,,,,,,,,,,,,,,,,,,,,,,,,,,,,,,,,,
,,,,,,,,,,,,,,1,001,2025-02-17_22h08.08.114,IAT(Formal),2021.2.3,Win32,59.88023952,,,,,,,,,,,,,,,i,1,0.5393,,,,,,其他,i,,,1,36,116,59,1,,,,,,,,,,,,,,,,,,,,,,,,,,,,,,,,,,
,,,,,,,,,,,,,,1,001,2025-02-17_22h08.08.114,IAT(Formal),2021.2.3,Win32,59.88023952,,,,,,,,,,,,,,,e,0,0.8378,,,,,,自私,i,,,1,37,117,43,1,,,,,,,,,,,,,,,,,,,,,,,,,,,,,,,,,,
,,,,,,,,,,,,,,1,001,2025-02-17_22h08.08.114,IAT(Formal),2021.2.3,Win32,59.88023952,,,,,,,,,,,,,,,i,0,1.0185,,,,,,我们,e,,,1,38,118,72,1,,,,,,,,,,,,,,,,,,,,,,,,,,,,,,,,,,
,,,,,,,,,,,,,,1,001,2025-02-17_22h08.08.114,IAT(Formal),2021.2.3,Win32,59.88023952,,,,,,,,,,,,,,,i,1,0.6388,,,,,,悲观,i,,,1,39,119,34,1,,,,,,,,,,,,,,,,,,,,,,,,,,,,,,,,,,
,,,,,,,,,,,,,,1,001,2025-02-17_22h08.08.114,IAT(Formal),2021.2.3,Win32,59.88023952,,,,,,,,,,,,,,,i,1,0.7634,,,,,,执拗,i,,,1,40,120,40,1,,,,,,,,,,,,,,,,,,,,,,,,,,,,,,,,,,
,,,,,,,,,,,,,,1,001,2025-02-17_22h08.08.114,IAT(Formal),2021.2.3,Win32,59.88023952,,,,,,,,,,,,,,,e,1,0.9158,,,,,,机智,e,,,1,41,121,19,1,,,,,,,,,,,,,,,,,,,,,,,,,,,,,,,,,,
,,,,,,,,,,,,,,1,001,2025-02-17_22h08.08.114,IAT(Formal),2021.2.3,Win32,59.88023952,,,,,,,,,,,,,,,i,1,1.216,,,,,,下贱,i,,,1,42,122,49,1,,,,,,,,,,,,,,,,,,,,,,,,,,,,,,,,,,
,,,,,,,,,,,,,,1,001,2025-02-17_22h08.08.114,IAT(Formal),2021.2.3,Win32,59.88023952,,,,,,,,,,,,,,,i,1,0.6362,,,,,,他的,i,,,1,43,123,57,1,,,,,,,,,,,,,,,,,,,,,,,,,,,,,,,,,,
,,,,,,,,,,,,,,1,001,2025-02-17_22h08.08.114,IAT(Formal),2021.2.3,Win32,59.88023952,,,,,,,,,,,,,,,i,1,0.0248,,,,,,他的,i,,,1,44,124,77,1,,,,,,,,,,,,,,,,,,,,,,,,,,,,,,,,,,
,,,,,,,,,,,,,,1,001,2025-02-17_22h08.08.114,IAT(Formal),2021.2.3,Win32,59.88023952,,,,,,,,,,,,,,,i,1,0.6855,,,,,,野蛮,i,,,1,45,125,46,1,,,,,,,,,,,,,,,,,,,,,,,,,,,,,,,,,,
,,,,,,,,,,,,,,1,001,2025-02-17_22h08.08.114,IAT(Formal),2021.2.3,Win32,59.88023952,,,,,,,,,,,,,,,i,1,0.6347,,,,,,鲁莽,i,,,1,46,126,38,1,,,,,,,,,,,,,,,,,,,,,,,,,,,,,,,,,,
,,,,,,,,,,,,,,1,001,2025-02-17_22h08.08.114,IAT(Formal),2021.2.3,Win32,59.88023952,,,,,,,,,,,,,,,e,1,0.7781,,,,,,我,e,,,1,47,127,0,1,,,,,,,,,,,,,,,,,,,,,,,,,,,,,,,,,,
,,,,,,,,,,,,,,1,001,2025-02-17_22h08.08.114,IAT(Formal),2021.2.3,Win32,59.88023952,,,,,,,,,,,,,,,e,1,0.8429,,,,,,我们,e,,,1,48,128,52,1,,,,,,,,,,,,,,,,,,,,,,,,,,,,,,,,,,
,,,,,,,,,,,,,,1,001,2025-02-17_22h08.08.114,IAT(Formal),2021.2.3,Win32,59.88023952,,,,,,,,,,,,,,,i,1,1.098,,,,,,他,i,,,1,49,129,75,1,,,,,,,,,,,,,,,,,,,,,,,,,,,,,,,,,,
,,,,,,,,,,,,,,1,001,2025-02-17_22h08.08.114,IAT(Formal),2021.2.3,Win32,59.88023952,,,,,,,,,,,,,,,e,1,0.7126,,,,,,稳重,e,,,1,50,130,21,1,,,,,,,,,,,,,,,,,,,,,,,,,,,,,,,,,,
,,,,,,,,,,,,,,1,001,2025-02-17_22h08.08.114,IAT(Formal),2021.2.3,Win32,59.88023952,,,,,,,,,,,,,,,,0,,,,,,,崇高,e,,,1,51,131,11,1,,,,,,,,,,,,,,,,,,,,,,,,,,,,,,,,,,
,,,,,,,,,,,,,,1,001,2025-02-17_22h08.08.114,IAT(Formal),2021.2.3,Win32,59.88023952,,,,,,,,,,,,,,,i,1,1.212,,,,,,他,i,,,1,52,132,65,1,,,,,,,,,,,,,,,,,,,,,,,,,,,,,,,,,,
,,,,,,,,,,,,,,1,001,2025-02-17_22h08.08.114,IAT(Formal),2021.2.3,Win32,59.88023952,,,,,,,,,,,,,,,i,1,0.691,,,,,,傲慢,i,,,1,53,133,37,1,,,,,,,,,,,,,,,,,,,,,,,,,,,,,,,,,,
,,,,,,,,,,,,,,1,001,2025-02-17_22h08.08.114,IAT(Formal),2021.2.3,Win32,59.88023952,,,,,,,,,,,,,,,i,1,1.4588,,,,,,猖狂,i,,,1,54,134,45,1,,,,,,,,,,,,,,,,,,,,,,,,,,,,,,,,,,
,,,,,,,,,,,,,,1,001,2025-02-17_22h08.08.114,IAT(Formal),2021.2.3,Win32,59.88023952,,,,,,,,,,,,,,,i,1,0.8849,,,,,,他,i,,,1,55,135,55,1,,,,,,,,,,,,,,,,,,,,,,,,,,,,,,,,,,
,,,,,,,,,,,,,,1,001,2025-02-17_22h08.08.114,IAT(Formal),2021.2.3,Win32,59.88023952,,,,,,,,,,,,,,,e,1,0.5887,,,,,,俺,e,,,1,56,136,64,1,,,,,,,,,,,,,,,,,,,,,,,,,,,,,,,,,,
,,,,,,,,,,,,,,1,001,2025-02-17_22h08.08.114,IAT(Formal),2021.2.3,Win32,59.88023952,,,,,,,,,,,,,,,i,1,0.7225,,,,,,散漫,i,,,1,57,137,41,1,,,,,,,,,,,,,,,,,,,,,,,,,,,,,,,,,,
,,,,,,,,,,,,,,1,001,2025-02-17_22h08.08.114,IAT(Formal),2021.2.3,Win32,59.88023952,,,,,,,,,,,,,,,i,1,0.5787,,,,,,其他,i,,,1,58,138,9,1,,,,,,,,,,,,,,,,,,,,,,,,,,,,,,,,,,
,,,,,,,,,,,,,,1,001,2025-02-17_22h08.08.114,IAT(Formal),2021.2.3,Win32,59.88023952,,,,,,,,,,,,,,,e,1,0.6475,,,,,,俺,e,,,1,59,139,54,1,,,,,,,,,,,,,,,,,,,,,,,,,,,,,,,,,,
,,,,,,,,,,,,,,1,001,2025-02-17_22h08.08.114,IAT(Formal),2021.2.3,Win32,59.88023952,,,,,,,,,,,,,,,i,1,0.8198,,,,,,他们,i,,,1,60,140,56,1,,,,,,,,,,,,,,,,,,,,,,,,,,,,,,,,,,
,,,,,,,,,,,,,,1,001,2025-02-17_22h08.08.114,IAT(Formal),2021.2.3,Win32,59.88023952,,,,,,,,,,,,,,,i,1,0.8676,,,,,,卑鄙,i,,,1,61,141,30,1,,,,,,,,,,,,,,,,,,,,,,,,,,,,,,,,,,
,,,,,,,,,,,,,,1,001,2025-02-17_22h08.08.114,IAT(Formal),2021.2.3,Win32,59.88023952,,,,,,,,,,,,,,,i,1,0.6514,,,,,,自卑,i,,,1,62,142,36,1,,,,,,,,,,,,,,,,,,,,,,,,,,,,,,,,,,
,,,,,,,,,,,,,,1,001,2025-02-17_22h08.08.114,IAT(Formal),2021.2.3,Win32,59.88023952,,,,,,,,,,,,,,,e,1,0.8458,,,,,,热情,e,,,1,63,143,27,1,,,,,,,,,,,,,,,,,,,,,,,,,,,,,,,,,,
,,,,,,,,,,,,,,1,001,2025-02-17_22h08.08.114,IAT(Formal),2021.2.3,Win32,59.88023952,,,,,,,,,,,,,,,e,1,0.5716,,,,,,正直,e,,,1,64,144,16,1,,,,,,,,,,,,,,,,,,,,,,,,,,,,,,,,,,
,,,,,,,,,,,,,,1,001,2025-02-17_22h08.08.114,IAT(Formal),2021.2.3,Win32,59.88023952,,,,,,,,,,,,,,,,0,,,,,,,他们,i,,,1,65,145,76,1,,,,,,,,,,,,,,,,,,,,,,,,,,,,,,,,,,
,,,,,,,,,,,,,,1,001,2025-02-17_22h08.08.114,IAT(Formal),2021.2.3,Win32,59.88023952,,,,,,,,,,,,,,,i,1,0.7338,,,,,,凶狠,i,,,1,66,146,42,1,,,,,,,,,,,,,,,,,,,,,,,,,,,,,,,,,,
,,,,,,,,,,,,,,1,001,2025-02-17_22h08.08.114,IAT(Formal),2021.2.3,Win32,59.88023952,,,,,,,,,,,,,,,e,1,1.3414,,,,,,我的,e,,,1,67,147,61,1,,,,,,,,,,,,,,,,,,,,,,,,,,,,,,,,,,
,,,,,,,,,,,,,,1,001,2025-02-17_22h08.08.114,IAT(Formal),2021.2.3,Win32,59.88023952,,,,,,,,,,,,,,,i,1,0.6171,,,,,,消极,i,,,1,68,148,35,1,,,,,,,,,,,,,,,,,,,,,,,,,,,,,,,,,,
,,,,,,,,,,,,,,1,001,2025-02-17_22h08.08.114,IAT(Formal),2021.2.3,Win32,59.88023952,,,,,,,,,,,,,,,e,1,0.5879,,,,,,认真,e,,,1,69,149,20,1,,,,,,,,,,,,,,,,,,,,,,,,,,,,,,,,,,
,,,,,,,,,,,,,,1,001,2025-02-17_22h08.08.114,IAT(Formal),2021.2.3,Win32,59.88023952,,,,,,,,,,,,,,,i,1,1.275,,,,,,他的,i,,,1,70,150,7,1,,,,,,,,,,,,,,,,,,,,,,,,,,,,,,,,,,
,,,,,,,,,,,,,,1,001,2025-02-17_22h08.08.114,IAT(Formal),2021.2.3,Win32,59.88023952,,,,,,,,,,,,,,,,0,,,,,,,活泼,e,,,1,71,151,28,1,,,,,,,,,,,,,,,,,,,,,,,,,,,,,,,,,,
,,,,,,,,,,,,,,1,001,2025-02-17_22h08.08.114,IAT(Formal),2021.2.3,Win32,59.88023952,,,,,,,,,,,,,,,e,1,1.2362,,,,,,诚实,e,,,1,72,152,15,1,,,,,,,,,,,,,,,,,,,,,,,,,,,,,,,,,,
,,,,,,,,,,,,,,1,001,2025-02-17_22h08.08.114,IAT(Formal),2021.2.3,Win32,59.88023952,,,,,,,,,,,,,,,,0,,,,,,,乐观,e,,,1,73,153,14,1,,,,,,,,,,,,,,,,,,,,,,,,,,,,,,,,,,
,,,,,,,,,,,,,,1,001,2025-02-17_22h08.08.114,IAT(Formal),2021.2.3,Win32,59.88023952,,,,,,,,,,,,,,,,0,,,,,,,诚恳,e,,,1,74,154,29,1,,,,,,,,,,,,,,,,,,,,,,,,,,,,,,,,,,
,,,,,,,,,,,,,,1,001,2025-02-17_22h08.08.114,IAT(Formal),2021.2.3,Win32,59.88023952,,,,,,,,,,,,,,,e,1,1.0342,,,,,,自己,e,,,1,75,155,63,1,,,,,,,,,,,,,,,,,,,,,,,,,,,,,,,,,,
,,,,,,,,,,,,,,1,001,2025-02-17_22h08.08.114,IAT(Formal),2021.2.3,Win32,59.88023952,,,,,,,,,,,,,,,i,1,1.151,,,,,,其他,i,,,1,76,156,69,1,,,,,,,,,,,,,,,,,,,,,,,,,,,,,,,,,,
,,,,,,,,,,,,,,1,001,2025-02-17_22h08.08.114,IAT(Formal),2021.2.3,Win32,59.88023952,,,,,,,,,,,,,,,e,1,0.2354,,,,,,我,e,,,1,77,157,70,1,,,,,,,,,,,,,,,,,,,,,,,,,,,,,,,,,,
,,,,,,,,,,,,,,1,001,2025-02-17_22h08.08.114,IAT(Formal),2021.2.3,Win32,59.88023952,,,,,,,,,,,,,,,i,1,1.3703,,,,,,其他,i,,,1,78,158,79,1,,,,,,,,,,,,,,,,,,,,,,,,,,,,,,,,,,
,,,,,,,,,,,,,,1,001,2025-02-17_22h08.08.114,IAT(Formal),2021.2.3,Win32,59.88023952,,,,,,,,,,,,,,,e,1,0.5301,,,,,,我们,e,,,1,79,159,2,1,,,,,,,,,,,,,,,,,,,,,,,,,,,,,,,,,,
,,,,,,,,,,,,俺,i,1,001,2025-02-17_22h08.08.114,IAT(Formal),2021.2.3,Win32,59.88023952,,,,,,,,,,,,,,,,,,,,,,,,,,,,,,,,space,18.272,e,0,0.7676,0,0,0,4,1,,,,,,,,,,,,,,,,,,,,,,,,
,,,,,,,,,,,,其他,e,1,001,2025-02-17_22h08.08.114,IAT(Formal),2021.2.3,Win32,59.88023952,,,,,,,,,,,,,,,,,,,,,,,,,,,,,,,,,,e,1,0.8243,0,1,1,9,1,,,,,,,,,,,,,,,,,,,,,,,,
,,,,,,,,,,,,他,e,1,001,2025-02-17_22h08.08.114,IAT(Formal),2021.2.3,Win32,59.88023952,,,,,,,,,,,,,,,,,,,,,,,,,,,,,,,,,,i,0,1.0107,0,2,2,5,1,,,,,,,,,,,,,,,,,,,,,,,,
,,,,,,,,,,,,我的,i,1,001,2025-02-17_22h08.08.114,IAT(Formal),2021.2.3,Win32,59.88023952,,,,,,,,,,,,,,,,,,,,,,,,,,,,,,,,,,,0,,0,3,3,1,1,,,,,,,,,,,,,,,,,,,,,,,,
,,,,,,,,,,,,他人,e,1,001,2025-02-17_22h08.08.114,IAT(Formal),2021.2.3,Win32,59.88023952,,,,,,,,,,,,,,,,,,,,,,,,,,,,,,,,,,,0,,0,4,4,8,1,,,,,,,,,,,,,,,,,,,,,,,,
,,,,,,,,,,,,他们,e,1,001,2025-02-17_22h08.08.114,IAT(Formal),2021.2.3,Win32,59.88023952,,,,,,,,,,,,,,,,,,,,,,,,,,,,,,,,,,,0,,0,5,5,6,1,,,,,,,,,,,,,,,,,,,,,,,,
,,,,,,,,,,,,他的,e,1,001,2025-02-17_22h08.08.114,IAT(Formal),2021.2.3,Win32,59.88023952,,,,,,,,,,,,,,,,,,,,,,,,,,,,,,,,,,,0,,0,6,6,7,1,,,,,,,,,,,,,,,,,,,,,,,,
,,,,,,,,,,,,自己,i,1,001,2025-02-17_22h08.08.114,IAT(Formal),2021.2.3,Win32,59.88023952,,,,,,,,,,,,,,,,,,,,,,,,,,,,,,,,,,,0,,0,7,7,3,1,,,,,,,,,,,,,,,,,,,,,,,,
,,,,,,,,,,,,我,i,1,001,2025-02-17_22h08.08.114,IAT(Formal),2021.2.3,Win32,59.88023952,,,,,,,,,,,,,,,,,,,,,,,,,,,,,,,,,,,0,,0,8,8,0,1,,,,,,,,,,,,,,,,,,,,,,,,
,,,,,,,,,,,,我们,i,1,001,2025-02-17_22h08.08.114,IAT(Formal),2021.2.3,Win32,59.88023952,,,,,,,,,,,,,,,,,,,,,,,,,,,,,,,,,,,0,,0,9,9,2,1,,,,,,,,,,,,,,,,,,,,,,,,
,,,,,,,,,,,,,,1,001,2025-02-17_22h08.08.114,IAT(Formal),2021.2.3,Win32,59.88023952,,,,,,,,,,,,,,,,,,,,,,,,,,,,,,,,,,,,,,,,,,space,2.8798,i,1,1.183,0,0,0,42,1,凶狠,i,,,,,,,,,,,,
,,,,,,,,,,,,,,1,001,2025-02-17_22h08.08.114,IAT(Formal),2021.2.3,Win32,59.88023952,,,,,,,,,,,,,,,,,,,,,,,,,,,,,,,,,,,,,,,,,,,,i,0,0.5198,0,1,1,17,1,勇敢,e,,,,,,,,,,,,
,,,,,,,,,,,,,,1,001,2025-02-17_22h08.08.114,IAT(Formal),2021.2.3,Win32,59.88023952,,,,,,,,,,,,,,,,,,,,,,,,,,,,,,,,,,,,,,,,,,,,,0,,0,2,2,78,1,他人,e,,,,,,,,,,,,
,,,,,,,,,,,,,,1,001,2025-02-17_22h08.08.114,IAT(Formal),2021.2.3,Win32,59.88023952,,,,,,,,,,,,,,,,,,,,,,,,,,,,,,,,,,,,,,,,,,,,i,0,0.1213,0,3,3,18,1,勤奋,e,,,,,,,,,,,,
,,,,,,,,,,,,,,1,001,2025-02-17_22h08.08.114,IAT(Formal),2021.2.3,Win32,59.88023952,,,,,,,,,,,,,,,,,,,,,,,,,,,,,,,,,,,,,,,,,,,,e,1,1.0053,0,4,4,7,1,他的,e,,,,,,,,,,,,
,,,,,,,,,,,,,,1,001,2025-02-17_22h08.08.114,IAT(Formal),2021.2.3,Win32,59.88023952,,,,,,,,,,,,,,,,,,,,,,,,,,,,,,,,,,,,,,,,,,,,i,1,0.5969,0,5,5,35,1,消极,i,,,,,,,,,,,,
,,,,,,,,,,,,,,1,001,2025-02-17_22h08.08.114,IAT(Formal),2021.2.3,Win32,59.88023952,,,,,,,,,,,,,,,,,,,,,,,,,,,,,,,,,,,,,,,,,,,,e,1,1.268,0,6,6,24,1,朴实,e,,,,,,,,,,,,
,,,,,,,,,,,,,,1,001,2025-02-17_22h08.08.114,IAT(Formal),2021.2.3,Win32,59.88023952,,,,,,,,,,,,,,,,,,,,,,,,,,,,,,,,,,,,,,,,,,,,i,0,0.358,0,7,7,29,1,诚恳,e,,,,,,,,,,,,
,,,,,,,,,,,,,,1,001,2025-02-17_22h08.08.114,IAT(Formal),2021.2.3,Win32,59.88023952,,,,,,,,,,,,,,,,,,,,,,,,,,,,,,,,,,,,,,,,,,,,e,1,0.6469,0,8,8,14,1,乐观,e,,,,,,,,,,,,
,,,,,,,,,,,,,,1,001,2025-02-17_22h08.08.114,IAT(Formal),2021.2.3,Win32,59.88023952,,,,,,,,,,,,,,,,,,,,,,,,,,,,,,,,,,,,,,,,,,,,i,1,0.8477,0,9,9,62,1,我们,i,,,,,,,,,,,,
,,,,,,,,,,,,,,1,001,2025-02-17_22h08.08.114,IAT(Formal),2021.2.3,Win32,59.88023952,,,,,,,,,,,,,,,,,,,,,,,,,,,,,,,,,,,,,,,,,,,,e,0,0.5994,0,10,10,44,1,暴躁,i,,,,,,,,,,,,
,,,,,,,,,,,,,,1,001,2025-02-17_22h08.08.114,IAT(Formal),2021.2.3,Win32,59.88023952,,,,,,,,,,,,,,,,,,,,,,,,,,,,,,,,,,,,,,,,,,,,e,1,0.7965,0,11,11,76,1,他们,e,,,,,,,,,,,,
,,,,,,,,,,,,,,1,001,2025-02-17_22h08.08.114,IAT(Formal),2021.2.3,Win32,59.88023952,,,,,,,,,,,,,,,,,,,,,,,,,,,,,,,,,,,,,,,,,,,,i,1,0.1499,0,12,12,33,1,刻薄,i,,,,,,,,,,,,
,,,,,,,,,,,,,,1,001,2025-02-17_22h08.08.114,IAT(Formal),2021.2.3,Win32,59.88023952,,,,,,,,,,,,,,,,,,,,,,,,,,,,,,,,,,,,,,,,,,,,e,1,0.9844,0,13,13,10,1,优秀,e,,,,,,,,,,,,
,,,,,,,,,,,,,,1,001,2025-02-17_22h08.08.114,IAT(Formal),2021.2.3,Win32,59.88023952,,,,,,,,,,,,,,,,,,,,,,,,,,,,,,,,,,,,,,,,,,,,i,0,0.7348,0,14,14,69,1,其他,e,,,,,,,,,,,,
,,,,,,,,,,,,,,1,001,2025-02-17_22h08.08.114,IAT(Formal),2021.2.3,Win32,59.88023952,,,,,,,,,,,,,,,,,,,,,,,,,,,,,,,,,,,,,,,,,,,,e,1,0.0345,0,15,15,22,1,无私,e,,,,,,,,,,,,
,,,,,,,,,,,,,,1,001,2025-02-17_22h08.08.114,IAT(Formal),2021.2.3,Win32,59.88023952,,,,,,,,,,,,,,,,,,,,,,,,,,,,,,,,,,,,,,,,,,,,i,1,0.6181,0,16,16,46,1,野蛮,i,,,,,,,,,,,,
,,,,,,,,,,,,,,1,001,2025-02-17_22h08.08.114,IAT(Formal),2021.2.3,Win32,59.88023952,,,,,,,,,,,,,,,,,,,,,,,,,,,,,,,,,,,,,,,,,,,,e,0,0.5831,0,17,17,64,1,俺,i,,,,,,,,,,,,
,,,,,,,,,,,,,,1,001,2025-02-17_22h08.08.114,IAT(Formal),2021.2.3,Win32,59.88023952,,,,,,,,,,,,,,,,,,,,,,,,,,,,,,,,,,,,,,,,,,,,i,1,0.4512,0,18,18,48,1,轻率,i,,,,,,,,,,,,
,,,,,,,,,,,,,,1,001,2025-02-17_22h08.08.114,IAT(Formal),2021.2.3,Win32,59.88023952,,,,,,,,,,,,,,,,,,,,,,,,,,,,,,,,,,,,,,,,,,,,e,0,1.271,0,19,19,49,1,下贱,i,,,,,,,,,,,,
,,,,,,,,,,,,,,1,001,2025-02-17_22h08.08.114,IAT(Formal),2021.2.3,Win32,59.88023952,,,,,,,,,,,,,,,,,,,,,,,,,,,,,,,,,,,,,,,,,,,,,0,,0,20,20,15,1,诚实,e,,,,,,,,,,,,
,,,,,,,,,,,,,,1,001,2025-02-17_22h08.08.114,IAT(Formal),2021.2.3,Win32,59.88023952,,,,,,,,,,,,,,,,,,,,,,,,,,,,,,,,,,,,,,,,,,,,,0,,0,21,21,3,1,自己,i,,,,,,,,,,,,
,,,,,,,,,,,,,,1,001,2025-02-17_22h08.08.114,IAT(Formal),2021.2.3,Win32,59.88023952,,,,,,,,,,,,,,,,,,,,,,,,,,,,,,,,,,,,,,,,,,,,,0,,0,22,22,38,1,鲁莽,i,,,,,,,,,,,,
,,,,,,,,,,,,,,1,001,2025-02-17_22h08.08.114,IAT(Formal),2021.2.3,Win32,59.88023952,,,,,,,,,,,,,,,,,,,,,,,,,,,,,,,,,,,,,,,,,,,,,0,,0,23,23,79,1,其他,e,,,,,,,,,,,,
,,,,,,,,,,,,,,1,001,2025-02-17_22h08.08.114,IAT(Formal),2021.2.3,Win32,59.88023952,,,,,,,,,,,,,,,,,,,,,,,,,,,,,,,,,,,,,,,,,,,,e,0,1.0703,0,24,24,51,1,我的,i,,,,,,,,,,,,
,,,,,,,,,,,,,,1,001,2025-02-17_22h08.08.114,IAT(Formal),2021.2.3,Win32,59.88023952,,,,,,,,,,,,,,,,,,,,,,,,,,,,,,,,,,,,,,,,,,,,,0,,0,25,25,52,1,我们,i,,,,,,,,,,,,
,,,,,,,,,,,,,,1,001,2025-02-17_22h08.08.114,IAT(Formal),2021.2.3,Win32,59.88023952,,,,,,,,,,,,,,,,,,,,,,,,,,,,,,,,,,,,,,,,,,,,i,0,1.1179,0,26,26,65,1,他,e,,,,,,,,,,,,
,,,,,,,,,,,,,,1,001,2025-02-17_22h08.08.114,IAT(Formal),2021.2.3,Win32,59.88023952,,,,,,,,,,,,,,,,,,,,,,,,,,,,,,,,,,,,,,,,,,,,e,0,0.4918,0,27,27,45,1,猖狂,i,,,,,,,,,,,,
,,,,,,,,,,,,,,1,001,2025-02-17_22h08.08.114,IAT(Formal),2021.2.3,Win32,59.88023952,,,,,,,,,,,,,,,,,,,,,,,,,,,,,,,,,,,,,,,,,,,,e,1,0.3194,0,28,28,23,1,公正,e,,,,,,,,,,,,
,,,,,,,,,,,,,,1,001,2025-02-17_22h08.08.114,IAT(Formal),2021.2.3,Win32,59.88023952,,,,,,,,,,,,,,,,,,,,,,,,,,,,,,,,,,,,,,,,,,,,i,1,0.0077,0,29,29,1,1,我的,i,,,,,,,,,,,,
,,,,,,,,,,,,,,1,001,2025-02-17_22h08.08.114,IAT(Formal),2021.2.3,Win32,59.88023952,,,,,,,,,,,,,,,,,,,,,,,,,,,,,,,,,,,,,,,,,,,,e,1,0.4296,0,30,30,6,1,他们,e,,,,,,,,,,,,
,,,,,,,,,,,,,,1,001,2025-02-17_22h08.08.114,IAT(Formal),2021.2.3,Win32,59.88023952,,,,,,,,,,,,,,,,,,,,,,,,,,,,,,,,,,,,,,,,,,,,i,0,0.6523,0,31,31,55,1,他,e,,,,,,,,,,,,
,,,,,,,,,,,,,,1,001,2025-02-17_22h08.08.114,IAT(Formal),2021.2.3,Win32,59.88023952,,,,,,,,,,,,,,,,,,,,,,,,,,,,,,,,,,,,,,,,,,,,i,1,0.902,0,32,32,63,1,自己,i,,,,,,,,,,,,
,,,,,,,,,,,,,,1,001,2025-02-17_22h08.08.114,IAT(Formal),2021.2.3,Win32,59.88023952,,,,,,,,,,,,,,,,,,,,,,,,,,,,,,,,,,,,,,,,,,,,,0,,0,33,33,47,1,固执,i,,,,,,,,,,,,
,,,,,,,,,,,,,,1,001,2025-02-17_22h08.08.114,IAT(Formal),2021.2.3,Win32,59.88023952,,,,,,,,,,,,,,,,,,,,,,,,,,,,,,,,,,,,,,,,,,,,i,0,0.6845,0,34,34,21,1,稳重,e,,,,,,,,,,,,
,,,,,,,,,,,,,,1,001,2025-02-17_22h08.08.114,IAT(Formal),2021.2.3,Win32,59.88023952,,,,,,,,,,,,,,,,,,,,,,,,,,,,,,,,,,,,,,,,,,,,,0,,0,35,35,40,1,执拗,i,,,,,,,,,,,,
,,,,,,,,,,,,,,1,001,2025-02-17_22h08.08.114,IAT(Formal),2021.2.3,Win32,59.88023952,,,,,,,,,,,,,,,,,,,,,,,,,,,,,,,,,,,,,,,,,,,,e,1,1.1334,0,36,36,77,1,他的,e,,,,,,,,,,,,
,,,,,,,,,,,,,,1,001,2025-02-17_22h08.08.114,IAT(Formal),2021.2.3,Win32,59.88023952,,,,,,,,,,,,,,,,,,,,,,,,,,,,,,,,,,,,,,,,,,,,i,1,1.3477,0,37,37,72,1,我们,i,,,,,,,,,,,,
,,,,,,,,,,,,,,1,001,2025-02-17_22h08.08.114,IAT(Formal),2021.2.3,Win32,59.88023952,,,,,,,,,,,,,,,,,,,,,,,,,,,,,,,,,,,,,,,,,,,,,0,,0,38,38,16,1,正直,e,,,,,,,,,,,,
,,,,,,,,,,,,,,1,001,2025-02-17_22h08.08.114,IAT(Formal),2021.2.3,Win32,59.88023952,,,,,,,,,,,,,,,,,,,,,,,,,,,,,,,,,,,,,,,,,,,,e,0,0.0053,0,39,39,31,1,虚伪,i,,,,,,,,,,,,
,,,,,,,,,,,,,,1,001,2025-02-17_22h08.08.114,IAT(Formal),2021.2.3,Win32,59.88023952,,,,,,,,,,,,,,,,,,,,,,,,,,,,,,,,,,,,,,,,,,,,i,1,0.5648,0,40,40,2,1,我们,i,,,,,,,,,,,,
,,,,,,,,,,,,,,1,001,2025-02-17_22h08.08.114,IAT(Formal),2021.2.3,Win32,59.88023952,,,,,,,,,,,,,,,,,,,,,,,,,,,,,,,,,,,,,,,,,,,,i,0,0.0634,0,41,41,56,1,他们,e,,,,,,,,,,,,
,,,,,,,,,,,,,,1,001,2025-02-17_22h08.08.114,IAT(Formal),2021.2.3,Win32,59.88023952,,,,,,,,,,,,,,,,,,,,,,,,,,,,,,,,,,,,,,,,,,,,e,0,0.3629,0,42,42,43,1,自私,i,,,,,,,,,,,,
,,,,,,,,,,,,,,1,001,2025-02-17_22h08.08.114,IAT(Formal),2021.2.3,Win32,59.88023952,,,,,,,,,,,,,,,,,,,,,,,,,,,,,,,,,,,,,,,,,,,,,0,,0,43,43,39,1,冒失,i,,,,,,,,,,,,
,,,,,,,,,,,,,,1,001,2025-02-17_22h08.08.114,IAT(Formal),2021.2.3,Win32,59.88023952,,,,,,,,,,,,,,,,,,,,,,,,,,,,,,,,,,,,,,,,,,,,,0,,0,44,44,13,1,杰出,e,,,,,,,,,,,,
,,,,,,,,,,,,,,1,001,2025-02-17_22h08.08.114,IAT(Formal),2021.2.3,Win32,59.88023952,,,,,,,,,,,,,,,,,,,,,,,,,,,,,,,,,,,,,,,,,,,,e,1,1.3686,0,45,45,57,1,他的,e,,,,,,,,,,,,
,,,,,,,,,,,,,,1,001,2025-02-17_22h08.08.114,IAT(Formal),2021.2.3,Win32,59.88023952,,,,,,,,,,,,,,,,,,,,,,,,,,,,,,,,,,,,,,,,,,,,i,0,0.5473,0,46,46,26,1,冷静,e,,,,,,,,,,,,
,,,,,,,,,,,,,,1,001,2025-02-17_22h08.08.114,IAT(Formal),2021.2.3,Win32,59.88023952,,,,,,,,,,,,,,,,,,,,,,,,,,,,,,,,,,,,,,,,,,,,e,1,0.6641,0,47,47,5,1,他,e,,,,,,,,,,,,
,,,,,,,,,,,,,,1,001,2025-02-17_22h08.08.114,IAT(Formal),2021.2.3,Win32,59.88023952,,,,,,,,,,,,,,,,,,,,,,,,,,,,,,,,,,,,,,,,,,,,,0,,0,48,48,20,1,认真,e,,,,,,,,,,,,
,,,,,,,,,,,,,,1,001,2025-02-17_22h08.08.114,IAT(Formal),2021.2.3,Win32,59.88023952,,,,,,,,,,,,,,,,,,,,,,,,,,,,,,,,,,,,,,,,,,,,i,1,1.0957,0,49,49,32,1,愚蠢,i,,,,,,,,,,,,
,,,,,,,,,,,,,,1,001,2025-02-17_22h08.08.114,IAT(Formal),2021.2.3,Win32,59.88023952,,,,,,,,,,,,,,,,,,,,,,,,,,,,,,,,,,,,,,,,,,,,e,0,1.4085,0,50,50,4,1,俺,i,,,,,,,,,,,,
,,,,,,,,,,,,,,1,001,2025-02-17_22h08.08.114,IAT(Formal),2021.2.3,Win32,59.88023952,,,,,,,,,,,,,,,,,,,,,,,,,,,,,,,,,,,,,,,,,,,,,0,,0,51,51,74,1,俺,i,,,,,,,,,,,,
,,,,,,,,,,,,,,1,001,2025-02-17_22h08.08.114,IAT(Formal),2021.2.3,Win32,59.88023952,,,,,,,,,,,,,,,,,,,,,,,,,,,,,,,,,,,,,,,,,,,,i,1,0.2066,0,52,52,41,1,散漫,i,,,,,,,,,,,,
,,,,,,,,,,,,,,1,001,2025-02-17_22h08.08.114,IAT(Formal),2021.2.3,Win32,59.88023952,,,,,,,,,,,,,,,,,,,,,,,,,,,,,,,,,,,,,,,,,,,,e,1,0.4077,0,53,53,66,1,他们,e,,,,,,,,,,,,
,,,,,,,,,,,,,,1,001,2025-02-17_22h08.08.114,IAT(Formal),2021.2.3,Win32,59.88023952,,,,,,,,,,,,,,,,,,,,,,,,,,,,,,,,,,,,,,,,,,,,,0,,0,54,54,67,1,他的,e,,,,,,,,,,,,
,,,,,,,,,,,,,,1,001,2025-02-17_22h08.08.114,IAT(Formal),2021.2.3,Win32,59.88023952,,,,,,,,,,,,,,,,,,,,,,,,,,,,,,,,,,,,,,,,,,,,,0,,0,55,55,50,1,我,i,,,,,,,,,,,,
,,,,,,,,,,,,,,1,001,2025-02-17_22h08.08.114,IAT(Formal),2021.2.3,Win32,59.88023952,,,,,,,,,,,,,,,,,,,,,,,,,,,,,,,,,,,,,,,,,,,,e,0,0.3027,0,56,56,53,1,自己,i,,,,,,,,,,,,
,,,,,,,,,,,,,,1,001,2025-02-17_22h08.08.114,IAT(Formal),2021.2.3,Win32,59.88023952,,,,,,,,,,,,,,,,,,,,,,,,,,,,,,,,,,,,,,,,,,,,e,1,0.0695,0,57,57,9,1,其他,e,,,,,,,,,,,,
,,,,,,,,,,,,,,1,001,2025-02-17_22h08.08.114,IAT(Formal),2021.2.3,Win32,59.88023952,,,,,,,,,,,,,,,,,,,,,,,,,,,,,,,,,,,,,,,,,,,,i,1,0.1515,0,58,58,73,1,自己,i,,,,,,,,,,,,
,,,,,,,,,,,,,,1,001,2025-02-17_22h08.08.114,IAT(Formal),2021.2.3,Win32,59.88023952,,,,,,,,,,,,,,,,,,,,,,,,,,,,,,,,,,,,,,,,,,,,e,1,0.3512,0,59,59,75,1,他,e,,,,,,,,,,,,
,,,,,,,,,,,,,,1,001,2025-02-17_22h08.08.114,IAT(Formal),2021.2.3,Win32,59.88023952,,,,,,,,,,,,,,,,,,,,,,,,,,,,,,,,,,,,,,,,,,,,,0,,0,60,60,70,1,我,i,,,,,,,,,,,,
,,,,,,,,,,,,,,1,001,2025-02-17_22h08.08.114,IAT(Formal),2021.2.3,Win32,59.88023952,,,,,,,,,,,,,,,,,,,,,,,,,,,,,,,,,,,,,,,,,,,,i,1,0.3834,0,61,61,61,1,我的,i,,,,,,,,,,,,
,,,,,,,,,,,,,,1,001,2025-02-17_22h08.08.114,IAT(Formal),2021.2.3,Win32,59.88023952,,,,,,,,,,,,,,,,,,,,,,,,,,,,,,,,,,,,,,,,,,,,i,0,1.4704,0,62,62,58,1,他人,e,,,,,,,,,,,,
,,,,,,,,,,,,,,1,001,2025-02-17_22h08.08.114,IAT(Formal),2021.2.3,Win32,59.88023952,,,,,,,,,,,,,,,,,,,,,,,,,,,,,,,,,,,,,,,,,,,,,0,,0,63,63,12,1,聪明,e,,,,,,,,,,,,
,,,,,,,,,,,,,,1,001,2025-02-17_22h08.08.114,IAT(Formal),2021.2.3,Win32,59.88023952,,,,,,,,,,,,,,,,,,,,,,,,,,,,,,,,,,,,,,,,,,,,i,0,0.6356,0,64,64,68,1,他人,e,,,,,,,,,,,,
,,,,,,,,,,,,,,1,001,2025-02-17_22h08.08.114,IAT(Formal),2021.2.3,Win32,59.88023952,,,,,,,,,,,,,,,,,,,,,,,,,,,,,,,,,,,,,,,,,,,,i,1,0.6721,0,65,65,36,1,自卑,i,,,,,,,,,,,,
,,,,,,,,,,,,,,1,001,2025-02-17_22h08.08.114,IAT(Formal),2021.2.3,Win32,59.88023952,,,,,,,,,,,,,,,,,,,,,,,,,,,,,,,,,,,,,,,,,,,,e,0,0.6508,0,66,66,30,1,卑鄙,i,,,,,,,,,,,,
,,,,,,,,,,,,,,1,001,2025-02-17_22h08.08.114,IAT(Formal),2021.2.3,Win32,59.88023952,,,,,,,,,,,,,,,,,,,,,,,,,,,,,,,,,,,,,,,,,,,,i,1,0.78,0,67,67,37,1,傲慢,i,,,,,,,,,,,,
,,,,,,,,,,,,,,1,001,2025-02-17_22h08.08.114,IAT(Formal),2021.2.3,Win32,59.88023952,,,,,,,,,,,,,,,,,,,,,,,,,,,,,,,,,,,,,,,,,,,,,0,,0,68,68,27,1,热情,e,,,,,,,,,,,,
,,,,,,,,,,,,,,1,001,2025-02-17_22h08.08.114,IAT(Formal),2021.2.3,Win32,59.88023952,,,,,,,,,,,,,,,,,,,,,,,,,,,,,,,,,,,,,,,,,,,,,0,,0,69,69,8,1,他人,e,,,,,,,,,,,,
,,,,,,,,,,,,,,1,001,2025-02-17_22h08.08.114,IAT(Formal),2021.2.3,Win32,59.88023952,,,,,,,,,,,,,,,,,,,,,,,,,,,,,,,,,,,,,,,,,,,,e,1,0.6184,0,70,70,25,1,细腻,e,,,,,,,,,,,,
,,,,,,,,,,,,,,1,001,2025-02-17_22h08.08.114,IAT(Formal),2021.2.3,Win32,59.88023952,,,,,,,,,,,,,,,,,,,,,,,,,,,,,,,,,,,,,,,,,,,,,0,,0,71,71,0,1,我,i,,,,,,,,,,,,
,,,,,,,,,,,,,,1,001,2025-02-17_22h08.08.114,IAT(Formal),2021.2.3,Win32,59.88023952,,,,,,,,,,,,,,,,,,,,,,,,,,,,,,,,,,,,,,,,,,,,i,0,0.8993,0,72,72,19,1,机智,e,,,,,,,,,,,,
,,,,,,,,,,,,,,1,001,2025-02-17_22h08.08.114,IAT(Formal),2021.2.3,Win32,59.88023952,,,,,,,,,,,,,,,,,,,,,,,,,,,,,,,,,,,,,,,,,,,,i,0,0.6895,0,73,73,28,1,活泼,e,,,,,,,,,,,,
,,,,,,,,,,,,,,1,001,2025-02-17_22h08.08.114,IAT(Formal),2021.2.3,Win32,59.88023952,,,,,,,,,,,,,,,,,,,,,,,,,,,,,,,,,,,,,,,,,,,,,0,,0,74,74,54,1,俺,i,,,,,,,,,,,,
,,,,,,,,,,,,,,1,001,2025-02-17_22h08.08.114,IAT(Formal),2021.2.3,Win32,59.88023952,,,,,,,,,,,,,,,,,,,,,,,,,,,,,,,,,,,,,,,,,,,,,0,,0,75,75,11,1,崇高,e,,,,,,,,,,,,
,,,,,,,,,,,,,,1,001,2025-02-17_22h08.08.114,IAT(Formal),2021.2.3,Win32,59.88023952,,,,,,,,,,,,,,,,,,,,,,,,,,,,,,,,,,,,,,,,,,,,,0,,0,76,76,71,1,我的,i,,,,,,,,,,,,
,,,,,,,,,,,,,,1,001,2025-02-17_22h08.08.114,IAT(Formal),2021.2.3,Win32,59.88023952,,,,,,,,,,,,,,,,,,,,,,,,,,,,,,,,,,,,,,,,,,,,e,1,0.3229,0,77,77,59,1,其他,e,,,,,,,,,,,,
,,,,,,,,,,,,,,1,001,2025-02-17_22h08.08.114,IAT(Formal),2021.2.3,Win32,59.88023952,,,,,,,,,,,,,,,,,,,,,,,,,,,,,,,,,,,,,,,,,,,,,0,,0,78,78,60,1,我,i,,,,,,,,,,,,
,,,,,,,,,,,,,,1,001,2025-02-17_22h08.08.114,IAT(Formal),2021.2.3,Win32,59.88023952,,,,,,,,,,,,,,,,,,,,,,,,,,,,,,,,,,,,,,,,,,,,,0,,0,79,79,34,1,悲观,i,,,,,,,,,,,,
,,,,,,,,,,,,,,1,001,2025-02-17_22h08.08.114,IAT(Formal),2021.2.3,Win32,59.88023952,,,,,,,,,,,,,,,,,,,,,,,,,,,,,,,,,,,,,,,,,,,,,,,,,,,,他人,e,space,13.2669,,0,0,0,0,78,1,,,
,,,,,,,,,,,,,,1,001,2025-02-17_22h08.08.114,IAT(Formal),2021.2.3,Win32,59.88023952,,,,,,,,,,,,,,,,,,,,,,,,,,,,,,,,,,,,,,,,,,,,,,,,,,,,诚实,e,,,i,0,0,1,1,15,1,0.4011,,
,,,,,,,,,,,,,,1,001,2025-02-17_22h08.08.114,IAT(Formal),2021.2.3,Win32,59.88023952,,,,,,,,,,,,,,,,,,,,,,,,,,,,,,,,,,,,,,,,,,,,,,,,,,,,执拗,i,,,,0,0,2,2,40,1,,,
,,,,,,,,,,,,,,1,001,2025-02-17_22h08.08.114,IAT(Formal),2021.2.3,Win32,59.88023952,,,,,,,,,,,,,,,,,,,,,,,,,,,,,,,,,,,,,,,,,,,,,,,,,,,,我们,i,,,i,1,0,3,3,72,1,0.597,,
,,,,,,,,,,,,,,1,001,2025-02-17_22h08.08.114,IAT(Formal),2021.2.3,Win32,59.88023952,,,,,,,,,,,,,,,,,,,,,,,,,,,,,,,,,,,,,,,,,,,,,,,,,,,,我的,i,,,,0,0,4,4,61,1,,,
,,,,,,,,,,,,,,1,001,2025-02-17_22h08.08.114,IAT(Formal),2021.2.3,Win32,59.88023952,,,,,,,,,,,,,,,,,,,,,,,,,,,,,,,,,,,,,,,,,,,,,,,,,,,,冒失,i,,,,0,0,5,5,39,1,,,
,,,,,,,,,,,,,,1,001,2025-02-17_22h08.08.114,IAT(Formal),2021.2.3,Win32,59.88023952,,,,,,,,,,,,,,,,,,,,,,,,,,,,,,,,,,,,,,,,,,,,,,,,,,,,公正,e,,,e,1,0,6,6,23,1,0.289,,
,,,,,,,,,,,,,,1,001,2025-02-17_22h08.08.114,IAT(Formal),2021.2.3,Win32,59.88023952,,,,,,,,,,,,,,,,,,,,,,,,,,,,,,,,,,,,,,,,,,,,,,,,,,,,认真,e,,,,0,0,7,7,20,1,,,
,,,,,,,,,,,,,,1,001,2025-02-17_22h08.08.114,IAT(Formal),2021.2.3,Win32,59.88023952,,,,,,,,,,,,,,,,,,,,,,,,,,,,,,,,,,,,,,,,,,,,,,,,,,,,下贱,i,,,,0,0,8,8,49,1,,,
,,,,,,,,,,,,,,1,001,2025-02-17_22h08.08.114,IAT(Formal),2021.2.3,Win32,59.88023952,,,,,,,,,,,,,,,,,,,,,,,,,,,,,,,,,,,,,,,,,,,,,,,,,,,,他们,e,,,,0,0,9,9,56,1,,,
,,,,,,,,,,,,,,1,001,2025-02-17_22h08.08.114,IAT(Formal),2021.2.3,Win32,59.88023952,,,,,,,,,,,,,,,,,,,,,,,,,,,,,,,,,,,,,,,,,,,,,,,,,,,,机智,e,,,i,0,0,10,10,19,1,0.3029,,
,,,,,,,,,,,,,,1,001,2025-02-17_22h08.08.114,IAT(Formal),2021.2.3,Win32,59.88023952,,,,,,,,,,,,,,,,,,,,,,,,,,,,,,,,,,,,,,,,,,,,,,,,,,,,轻率,i,,,,0,0,11,11,48,1,,,
,,,,,,,,,,,,,,1,001,2025-02-17_22h08.08.114,IAT(Formal),2021.2.3,Win32,59.88023952,,,,,,,,,,,,,,,,,,,,,,,,,,,,,,,,,,,,,,,,,,,,,,,,,,,,我,i,,,,0,0,12,12,50,1,,,
,,,,,,,,,,,,,,1,001,2025-02-17_22h08.08.114,IAT(Formal),2021.2.3,Win32,59.88023952,,,,,,,,,,,,,,,,,,,,,,,,,,,,,,,,,,,,,,,,,,,,,,,,,,,,杰出,e,,,e,1,0,13,13,13,1,0.8552,,
,,,,,,,,,,,,,,1,001,2025-02-17_22h08.08.114,IAT(Formal),2021.2.3,Win32,59.88023952,,,,,,,,,,,,,,,,,,,,,,,,,,,,,,,,,,,,,,,,,,,,,,,,,,,,俺,i,,,i,1,0,14,14,74,1,0.1337,,
,,,,,,,,,,,,,,1,001,2025-02-17_22h08.08.114,IAT(Formal),2021.2.3,Win32,59.88023952,,,,,,,,,,,,,,,,,,,,,,,,,,,,,,,,,,,,,,,,,,,,,,,,,,,,我,i,,,e,0,0,15,15,70,1,0.7853,,
,,,,,,,,,,,,,,1,001,2025-02-17_22h08.08.114,IAT(Formal),2021.2.3,Win32,59.88023952,,,,,,,,,,,,,,,,,,,,,,,,,,,,,,,,,,,,,,,,,,,,,,,,,,,,凶狠,i,,,e,0,0,16,16,42,1,0.4767,,
,,,,,,,,,,,,,,1,001,2025-02-17_22h08.08.114,IAT(Formal),2021.2.3,Win32,59.88023952,,,,,,,,,,,,,,,,,,,,,,,,,,,,,,,,,,,,,,,,,,,,,,,,,,,,乐观,e,,,e,1,0,17,17,14,1,0.3343,,
,,,,,,,,,,,,,,1,001,2025-02-17_22h08.08.114,IAT(Formal),2021.2.3,Win32,59.88023952,,,,,,,,,,,,,,,,,,,,,,,,,,,,,,,,,,,,,,,,,,,,,,,,,,,,自己,i,,,e,0,0,18,18,73,1,0.1654,,
,,,,,,,,,,,,,,1,001,2025-02-17_22h08.08.114,IAT(Formal),2021.2.3,Win32,59.88023952,,,,,,,,,,,,,,,,,,,,,,,,,,,,,,,,,,,,,,,,,,,,,,,,,,,,细腻,e,,,e,1,0,19,19,25,1,0.9406,,
,,,,,,,,,,,,,,1,001,2025-02-17_22h08.08.114,IAT(Formal),2021.2.3,Win32,59.88023952,,,,,,,,,,,,,,,,,,,,,,,,,,,,,,,,,,,,,,,,,,,,,,,,,,,,他们,e,,,i,0,0,20,20,76,1,0.3683,,
,,,,,,,,,,,,,,1,001,2025-02-17_22h08.08.114,IAT(Formal),2021.2.3,Win32,59.88023952,,,,,,,,,,,,,,,,,,,,,,,,,,,,,,,,,,,,,,,,,,,,,,,,,,,,热情,e,,,e,1,0,21,21,27,1,0.2006,,
,,,,,,,,,,,,,,1,001,2025-02-17_22h08.08.114,IAT(Formal),2021.2.3,Win32,59.88023952,,,,,,,,,,,,,,,,,,,,,,,,,,,,,,,,,,,,,,,,,,,,,,,,,,,,勤奋,e,,,e,1,0,22,22,18,1,0.7139,,
,,,,,,,,,,,,,,1,001,2025-02-17_22h08.08.114,IAT(Formal),2021.2.3,Win32,59.88023952,,,,,,,,,,,,,,,,,,,,,,,,,,,,,,,,,,,,,,,,,,,,,,,,,,,,他的,e,,,,0,0,23,23,57,1,,,
,,,,,,,,,,,,,,1,001,2025-02-17_22h08.08.114,IAT(Formal),2021.2.3,Win32,59.88023952,,,,,,,,,,,,,,,,,,,,,,,,,,,,,,,,,,,,,,,,,,,,,,,,,,,,我的,i,,,,0,0,24,24,1,1,,,
,,,,,,,,,,,,,,1,001,2025-02-17_22h08.08.114,IAT(Formal),2021.2.3,Win32,59.88023952,,,,,,,,,,,,,,,,,,,,,,,,,,,,,,,,,,,,,,,,,,,,,,,,,,,,他,e,,,,0,0,25,25,5,1,,,
,,,,,,,,,,,,,,1,001,2025-02-17_22h08.08.114,IAT(Formal),2021.2.3,Win32,59.88023952,,,,,,,,,,,,,,,,,,,,,,,,,,,,,,,,,,,,,,,,,,,,,,,,,,,,正直,e,,,,0,0,26,26,16,1,,,
,,,,,,,,,,,,,,1,001,2025-02-17_22h08.08.114,IAT(Formal),2021.2.3,Win32,59.88023952,,,,,,,,,,,,,,,,,,,,,,,,,,,,,,,,,,,,,,,,,,,,,,,,,,,,刻薄,i,,,,0,0,27,27,33,1,,,
,,,,,,,,,,,,,,1,001,2025-02-17_22h08.08.114,IAT(Formal),2021.2.3,Win32,59.88023952,,,,,,,,,,,,,,,,,,,,,,,,,,,,,,,,,,,,,,,,,,,,,,,,,,,,活泼,e,,,,0,0,28,28,28,1,,,
,,,,,,,,,,,,,,1,001,2025-02-17_22h08.08.114,IAT(Formal),2021.2.3,Win32,59.88023952,,,,,,,,,,,,,,,,,,,,,,,,,,,,,,,,,,,,,,,,,,,,,,,,,,,,其他,e,,,,0,0,29,29,9,1,,,
,,,,,,,,,,,,,,1,001,2025-02-17_22h08.08.114,IAT(Formal),2021.2.3,Win32,59.88023952,,,,,,,,,,,,,,,,,,,,,,,,,,,,,,,,,,,,,,,,,,,,,,,,,,,,我们,i,,,i,1,0,30,30,62,1,1.3357,,
,,,,,,,,,,,,,,1,001,2025-02-17_22h08.08.114,IAT(Formal),2021.2.3,Win32,59.88023952,,,,,,,,,,,,,,,,,,,,,,,,,,,,,,,,,,,,,,,,,,,,,,,,,,,,我,i,,,,0,0,31,31,0,1,,,
,,,,,,,,,,,,,,1,001,2025-02-17_22h08.08.114,IAT(Formal),2021.2.3,Win32,59.88023952,,,,,,,,,,,,,,,,,,,,,,,,,,,,,,,,,,,,,,,,,,,,,,,,,,,,虚伪,i,,,i,1,0,32,32,31,1,0.8801,,
,,,,,,,,,,,,,,1,001,2025-02-17_22h08.08.114,IAT(Formal),2021.2.3,Win32,59.88023952,,,,,,,,,,,,,,,,,,,,,,,,,,,,,,,,,,,,,,,,,,,,,,,,,,,,自己,i,,,e,0,0,33,33,63,1,1.0514,,
,,,,,,,,,,,,,,1,001,2025-02-17_22h08.08.114,IAT(Formal),2021.2.3,Win32,59.88023952,,,,,,,,,,,,,,,,,,,,,,,,,,,,,,,,,,,,,,,,,,,,,,,,,,,,俺,i,,,,0,0,34,34,54,1,,,
,,,,,,,,,,,,,,1,001,2025-02-17_22h08.08.114,IAT(Formal),2021.2.3,Win32,59.88023952,,,,,,,,,,,,,,,,,,,,,,,,,,,,,,,,,,,,,,,,,,,,,,,,,,,,无私,e,,,i,0,0,35,35,22,1,0.8528,,
,,,,,,,,,,,,,,1,001,2025-02-17_22h08.08.114,IAT(Formal),2021.2.3,Win32,59.88023952,,,,,,,,,,,,,,,,,,,,,,,,,,,,,,,,,,,,,,,,,,,,,,,,,,,,我的,i,,,,0,0,36,36,51,1,,,
,,,,,,,,,,,,,,1,001,2025-02-17_22h08.08.114,IAT(Formal),2021.2.3,Win32,59.88023952,,,,,,,,,,,,,,,,,,,,,,,,,,,,,,,,,,,,,,,,,,,,,,,,,,,,他们,e,,,,0,0,37,37,66,1,,,
,,,,,,,,,,,,,,1,001,2025-02-17_22h08.08.114,IAT(Formal),2021.2.3,Win32,59.88023952,,,,,,,,,,,,,,,,,,,,,,,,,,,,,,,,,,,,,,,,,,,,,,,,,,,,傲慢,i,,,i,1,0,38,38,37,1,0.0296,,
,,,,,,,,,,,,,,1,001,2025-02-17_22h08.08.114,IAT(Formal),2021.2.3,Win32,59.88023952,,,,,,,,,,,,,,,,,,,,,,,,,,,,,,,,,,,,,,,,,,,,,,,,,,,,鲁莽,i,,,,0,0,39,39,38,1,,,
,,,,,,,,,,,,,,1,001,2025-02-17_22h08.08.114,IAT(Formal),2021.2.3,Win32,59.88023952,,,,,,,,,,,,,,,,,,,,,,,,,,,,,,,,,,,,,,,,,,,,,,,,,,,,卑鄙,i,,,e,0,0,40,40,30,1,0.7967,,
,,,,,,,,,,,,,,1,001,2025-02-17_22h08.08.114,IAT(Formal),2021.2.3,Win32,59.88023952,,,,,,,,,,,,,,,,,,,,,,,,,,,,,,,,,,,,,,,,,,,,,,,,,,,,散漫,i,,,i,1,0,41,41,41,1,0.9179,,
,,,,,,,,,,,,,,1,001,2025-02-17_22h08.08.114,IAT(Formal),2021.2.3,Win32,59.88023952,,,,,,,,,,,,,,,,,,,,,,,,,,,,,,,,,,,,,,,,,,,,,,,,,,,,暴躁,i,,,,0,0,42,42,44,1,,,
,,,,,,,,,,,,,,1,001,2025-02-17_22h08.08.114,IAT(Formal),2021.2.3,Win32,59.88023952,,,,,,,,,,,,,,,,,,,,,,,,,,,,,,,,,,,,,,,,,,,,,,,,,,,,野蛮,i,,,,0,0,43,43,46,1,,,
,,,,,,,,,,,,,,1,001,2025-02-17_22h08.08.114,IAT(Formal),2021.2.3,Win32,59.88023952,,,,,,,,,,,,,,,,,,,,,,,,,,,,,,,,,,,,,,,,,,,,,,,,,,,,俺,i,,,i,1,0,44,44,4,1,0.3091,,
,,,,,,,,,,,,,,1,001,2025-02-17_22h08.08.114,IAT(Formal),2021.2.3,Win32,59.88023952,,,,,,,,,,,,,,,,,,,,,,,,,,,,,,,,,,,,,,,,,,,,,,,,,,,,我们,i,,,,0,0,45,45,52,1,,,
,,,,,,,,,,,,,,1,001,2025-02-17_22h08.08.114,IAT(Formal),2021.2.3,Win32,59.88023952,,,,,,,,,,,,,,,,,,,,,,,,,,,,,,,,,,,,,,,,,,,,,,,,,,,,悲观,i,,,,0,0,46,46,34,1,,,
,,,,,,,,,,,,,,1,001,2025-02-17_22h08.08.114,IAT(Formal),2021.2.3,Win32,59.88023952,,,,,,,,,,,,,,,,,,,,,,,,,,,,,,,,,,,,,,,,,,,,,,,,,,,,他的,e,,,i,0,0,47,47,7,1,1.1897,,
,,,,,,,,,,,,,,1,001,2025-02-17_22h08.08.114,IAT(Formal),2021.2.3,Win32,59.88023952,,,,,,,,,,,,,,,,,,,,,,,,,,,,,,,,,,,,,,,,,,,,,,,,,,,,其他,e,,,e,1,0,48,48,59,1,0.1506,,
,,,,,,,,,,,,,,1,001,2025-02-17_22h08.08.114,IAT(Formal),2021.2.3,Win32,59.88023952,,,,,,,,,,,,,,,,,,,,,,,,,,,,,,,,,,,,,,,,,,,,,,,,,,,,固执,i,,,i,1,0,49,49,47,1,0.2056,,
,,,,,,,,,,,,,,1,001,2025-02-17_22h08.08.114,IAT(Formal),2021.2.3,Win32,59.88023952,,,,,,,,,,,,,,,,,,,,,,,,,,,,,,,,,,,,,,,,,,,,,,,,,,,,猖狂,i,,,i,1,0,50,50,45,1,1.3292,,
,,,,,,,,,,,,,,1,001,2025-02-17_22h08.08.114,IAT(Formal),2021.2.3,Win32,59.88023952,,,,,,,,,,,,,,,,,,,,,,,,,,,,,,,,,,,,,,,,,,,,,,,,,,,,他的,e,,,,0,0,51,51,67,1,,,
,,,,,,,,,,,,,,1,001,2025-02-17_22h08.08.114,IAT(Formal),2021.2.3,Win32,59.88023952,,,,,,,,,,,,,,,,,,,,,,,,,,,,,,,,,,,,,,,,,,,,,,,,,,,,自己,i,,,,0,0,52,52,3,1,,,
,,,,,,,,,,,,,,1,001,2025-02-17_22h08.08.114,IAT(Formal),2021.2.3,Win32,59.88023952,,,,,,,,,,,,,,,,,,,,,,,,,,,,,,,,,,,,,,,,,,,,,,,,,,,,崇高,e,,,e,1,0,53,53,11,1,0.0671,,
,,,,,,,,,,,,,,1,001,2025-02-17_22h08.08.114,IAT(Formal),2021.2.3,Win32,59.88023952,,,,,,,,,,,,,,,,,,,,,,,,,,,,,,,,,,,,,,,,,,,,,,,,,,,,其他,e,,,,0,0,54,54,79,1,,,
,,,,,,,,,,,,,,1,001,2025-02-17_22h08.08.114,IAT(Formal),2021.2.3,Win32,59.88023952,,,,,,,,,,,,,,,,,,,,,,,,,,,,,,,,,,,,,,,,,,,,,,,,,,,,他人,e,,,e,1,0,55,55,68,1,0.4797,,
,,,,,,,,,,,,,,1,001,2025-02-17_22h08.08.114,IAT(Formal),2021.2.3,Win32,59.88023952,,,,,,,,,,,,,,,,,,,,,,,,,,,,,,,,,,,,,,,,,,,,,,,,,,,,稳重,e,,,i,0,0,56,56,21,1,0.5669,,
,,,,,,,,,,,,,,1,001,2025-02-17_22h08.08.114,IAT(Formal),2021.2.3,Win32,59.88023952,,,,,,,,,,,,,,,,,,,,,,,,,,,,,,,,,,,,,,,,,,,,,,,,,,,,我,i,,,,0,0,57,57,60,1,,,
,,,,,,,,,,,,,,1,001,2025-02-17_22h08.08.114,IAT(Formal),2021.2.3,Win32,59.88023952,,,,,,,,,,,,,,,,,,,,,,,,,,,,,,,,,,,,,,,,,,,,,,,,,,,,消极,i,,,,0,0,58,58,35,1,,,
,,,,,,,,,,,,,,1,001,2025-02-17_22h08.08.114,IAT(Formal),2021.2.3,Win32,59.88023952,,,,,,,,,,,,,,,,,,,,,,,,,,,,,,,,,,,,,,,,,,,,,,,,,,,,聪明,e,,,i,0,0,59,59,12,1,0.2218,,
,,,,,,,,,,,,,,1,001,2025-02-17_22h08.08.114,IAT(Formal),2021.2.3,Win32,59.88023952,,,,,,,,,,,,,,,,,,,,,,,,,,,,,,,,,,,,,,,,,,,,,,,,,,,,他,e,,,,0,0,60,60,55,1,,,
,,,,,,,,,,,,,,1,001,2025-02-17_22h08.08.114,IAT(Formal),2021.2.3,Win32,59.88023952,,,,,,,,,,,,,,,,,,,,,,,,,,,,,,,,,,,,,,,,,,,,,,,,,,,,自私,i,,,,0,0,61,61,43,1,,,
,,,,,,,,,,,,,,1,001,2025-02-17_22h08.08.114,IAT(Formal),2021.2.3,Win32,59.88023952,,,,,,,,,,,,,,,,,,,,,,,,,,,,,,,,,,,,,,,,,,,,,,,,,,,,俺,i,,,,0,0,62,62,64,1,,,
,,,,,,,,,,,,,,1,001,2025-02-17_22h08.08.114,IAT(Formal),2021.2.3,Win32,59.88023952,,,,,,,,,,,,,,,,,,,,,,,,,,,,,,,,,,,,,,,,,,,,,,,,,,,,他的,e,,,,0,0,63,63,77,1,,,
,,,,,,,,,,,,,,1,001,2025-02-17_22h08.08.114,IAT(Formal),2021.2.3,Win32,59.88023952,,,,,,,,,,,,,,,,,,,,,,,,,,,,,,,,,,,,,,,,,,,,,,,,,,,,朴实,e,,,i,0,0,64,64,24,1,0.5383,,
,,,,,,,,,,,,,,1,001,2025-02-17_22h08.08.114,IAT(Formal),2021.2.3,Win32,59.88023952,,,,,,,,,,,,,,,,,,,,,,,,,,,,,,,,,,,,,,,,,,,,,,,,,,,,他人,e,,,,0,0,65,65,58,1,,,
,,,,,,,,,,,,,,1,001,2025-02-17_22h08.08.114,IAT(Formal),2021.2.3,Win32,59.88023952,,,,,,,,,,,,,,,,,,,,,,,,,,,,,,,,,,,,,,,,,,,,,,,,,,,,他,e,,,i,0,0,66,66,75,1,0.4699,,
,,,,,,,,,,,,,,1,001,2025-02-17_22h08.08.114,IAT(Formal),2021.2.3,Win32,59.88023952,,,,,,,,,,,,,,,,,,,,,,,,,,,,,,,,,,,,,,,,,,,,,,,,,,,,自卑,i,,,i,1,0,67,67,36,1,0.6512,,
,,,,,,,,,,,,,,1,001,2025-02-17_22h08.08.114,IAT(Formal),2021.2.3,Win32,59.88023952,,,,,,,,,,,,,,,,,,,,,,,,,,,,,,,,,,,,,,,,,,,,,,,,,,,,他们,e,,,e,1,0,68,68,6,1,1.1157,,
,,,,,,,,,,,,,,1,001,2025-02-17_22h08.08.114,IAT(Formal),2021.2.3,Win32,59.88023952,,,,,,,,,,,,,,,,,,,,,,,,,,,,,,,,,,,,,,,,,,,,,,,,,,,,我的,i,,,,0,0,69,69,71,1,,,
,,,,,,,,,,,,,,1,001,2025-02-17_22h08.08.114,IAT(Formal),2021.2.3,Win32,59.88023952,,,,,,,,,,,,,,,,,,,,,,,,,,,,,,,,,,,,,,,,,,,,,,,,,,,,他,e,,,i,0,0,70,70,65,1,0.5285,,
,,,,,,,,,,,,,,1,001,2025-02-17_22h08.08.114,IAT(Formal),2021.2.3,Win32,59.88023952,,,,,,,,,,,,,,,,,,,,,,,,,,,,,,,,,,,,,,,,,,,,,,,,,,,,自己,i,,,,0,0,71,71,53,1,,,
,,,,,,,,,,,,,,1,001,2025-02-17_22h08.08.114,IAT(Formal),2021.2.3,Win32,59.88023952,,,,,,,,,,,,,,,,,,,,,,,,,,,,,,,,,,,,,,,,,,,,,,,,,,,,优秀,e,,,,0,0,72,72,10,1,,,
,,,,,,,,,,,,,,1,001,2025-02-17_22h08.08.114,IAT(Formal),2021.2.3,Win32,59.88023952,,,,,,,,,,,,,,,,,,,,,,,,,,,,,,,,,,,,,,,,,,,,,,,,,,,,我们,i,,,,0,0,73,73,2,1,,,
,,,,,,,,,,,,,,1,001,2025-02-17_22h08.08.114,IAT(Formal),2021.2.3,Win32,59.88023952,,,,,,,,,,,,,,,,,,,,,,,,,,,,,,,,,,,,,,,,,,,,,,,,,,,,他人,e,,,i,0,0,74,74,8,1,0.4965,,
,,,,,,,,,,,,,,1,001,2025-02-17_22h08.08.114,IAT(Formal),2021.2.3,Win32,59.88023952,,,,,,,,,,,,,,,,,,,,,,,,,,,,,,,,,,,,,,,,,,,,,,,,,,,,其他,e,,,,0,0,75,75,69,1,,,
,,,,,,,,,,,,,,1,001,2025-02-17_22h08.08.114,IAT(Formal),2021.2.3,Win32,59.88023952,,,,,,,,,,,,,,,,,,,,,,,,,,,,,,,,,,,,,,,,,,,,,,,,,,,,愚蠢,i,,,,0,0,76,76,32,1,,,
,,,,,,,,,,,,,,1,001,2025-02-17_22h08.08.114,IAT(Formal),2021.2.3,Win32,59.88023952,,,,,,,,,,,,,,,,,,,,,,,,,,,,,,,,,,,,,,,,,,,,,,,,,,,,冷静,e,,,,0,0,77,77,26,1,,,
,,,,,,,,,,,,,,1,001,2025-02-17_22h08.08.114,IAT(Formal),2021.2.3,Win32,59.88023952,,,,,,,,,,,,,,,,,,,,,,,,,,,,,,,,,,,,,,,,,,,,,,,,,,,,诚恳,e,,,,0,0,78,78,29,1,,,
,,,,,,,,,,,,,,1,001,2025-02-17_22h08.08.114,IAT(Formal),2021.2.3,Win32,59.88023952,,,,,,,,,,,,,,,,,,,,,,,,,,,,,,,,,,,,,,,,,,,,,,,,,,,,勇敢,e,,,i,0,0,79,79,17,1,0.2727,,
,,,,,,,,,,,,,,1,001,2025-02-17_22h08.08.114,IAT(Formal),2021.2.3,Win32,59.88023952,,,,,,,,,,,,,,,,,,,,,,,,,,,,,,,,,,,,,,,,,,,,,,,,,,,,他人,e,,,e,1,1,0,80,78,1,1.065,,
,,,,,,,,,,,,,,1,001,2025-02-17_22h08.08.114,IAT(Formal),2021.2.3,Win32,59.88023952,,,,,,,,,,,,,,,,,,,,,,,,,,,,,,,,,,,,,,,,,,,,,,,,,,,,我们,i,,,,0,1,1,81,62,1,,,
,,,,,,,,,,,,,,1,001,2025-02-17_22h08.08.114,IAT(Formal),2021.2.3,Win32,59.88023952,,,,,,,,,,,,,,,,,,,,,,,,,,,,,,,,,,,,,,,,,,,,,,,,,,,,傲慢,i,,,,0,1,2,82,37,1,,,
,,,,,,,,,,,,,,1,001,2025-02-17_22h08.08.114,IAT(Formal),2021.2.3,Win32,59.88023952,,,,,,,,,,,,,,,,,,,,,,,,,,,,,,,,,,,,,,,,,,,,,,,,,,,,虚伪,i,,,,0,1,3,83,31,1,,,
,,,,,,,,,,,,,,1,001,2025-02-17_22h08.08.114,IAT(Formal),2021.2.3,Win32,59.88023952,,,,,,,,,,,,,,,,,,,,,,,,,,,,,,,,,,,,,,,,,,,,,,,,,,,,鲁莽,i,,,,0,1,4,84,38,1,,,
,,,,,,,,,,,,,,1,001,2025-02-17_22h08.08.114,IAT(Formal),2021.2.3,Win32,59.88023952,,,,,,,,,,,,,,,,,,,,,,,,,,,,,,,,,,,,,,,,,,,,,,,,,,,,固执,i,,,,0,1,5,85,47,1,,,
,,,,,,,,,,,,,,1,001,2025-02-17_22h08.08.114,IAT(Formal),2021.2.3,Win32,59.88023952,,,,,,,,,,,,,,,,,,,,,,,,,,,,,,,,,,,,,,,,,,,,,,,,,,,,诚实,e,,,i,0,1,6,86,15,1,0.8494,,
,,,,,,,,,,,,,,1,001,2025-02-17_22h08.08.114,IAT(Formal),2021.2.3,Win32,59.88023952,,,,,,,,,,,,,,,,,,,,,,,,,,,,,,,,,,,,,,,,,,,,,,,,,,,,优秀,e,,,e,1,1,7,87,10,1,0.0374,,
,,,,,,,,,,,,,,1,001,2025-02-17_22h08.08.114,IAT(Formal),2021.2.3,Win32,59.88023952,,,,,,,,,,,,,,,,,,,,,,,,,,,,,,,,,,,,,,,,,,,,,,,,,,,,他人,e,,,,0,1,8,88,8,1,,,
,,,,,,,,,,,,,,1,001,2025-02-17_22h08.08.114,IAT(Formal),2021.2.3,Win32,59.88023952,,,,,,,,,,,,,,,,,,,,,,,,,,,,,,,,,,,,,,,,,,,,,,,,,,,,无私,e,,,,0,1,9,89,22,1,,,
,,,,,,,,,,,,,,1,001,2025-02-17_22h08.08.114,IAT(Formal),2021.2.3,Win32,59.88023952,,,,,,,,,,,,,,,,,,,,,,,,,,,,,,,,,,,,,,,,,,,,,,,,,,,,聪明,e,,,,0,1,10,90,12,1,,,
,,,,,,,,,,,,,,1,001,2025-02-17_22h08.08.114,IAT(Formal),2021.2.3,Win32,59.88023952,,,,,,,,,,,,,,,,,,,,,,,,,,,,,,,,,,,,,,,,,,,,,,,,,,,,自私,i,,,,0,1,11,91,43,1,,,
,,,,,,,,,,,,,,1,001,2025-02-17_22h08.08.114,IAT(Formal),2021.2.3,Win32,59.88023952,,,,,,,,,,,,,,,,,,,,,,,,,,,,,,,,,,,,,,,,,,,,,,,,,,,,他们,e,,,,0,1,12,92,76,1,,,
,,,,,,,,,,,,,,1,001,2025-02-17_22h08.08.114,IAT(Formal),2021.2.3,Win32,59.88023952,,,,,,,,,,,,,,,,,,,,,,,,,,,,,,,,,,,,,,,,,,,,,,,,,,,,他的,e,,,i,0,1,13,93,67,1,1.0492,,
,,,,,,,,,,,,,,1,001,2025-02-17_22h08.08.114,IAT(Formal),2021.2.3,Win32,59.88023952,,,,,,,,,,,,,,,,,,,,,,,,,,,,,,,,,,,,,,,,,,,,,,,,,,,,自己,i,,,,0,1,14,94,63,1,,,
,,,,,,,,,,,,,,1,001,2025-02-17_22h08.08.114,IAT(Formal),2021.2.3,Win32,59.88023952,,,,,,,,,,,,,,,,,,,,,,,,,,,,,,,,,,,,,,,,,,,,,,,,,,,,乐观,e,,,,0,1,15,95,14,1,,,
,,,,,,,,,,,,,,1,001,2025-02-17_22h08.08.114,IAT(Formal),2021.2.3,Win32,59.88023952,,,,,,,,,,,,,,,,,,,,,,,,,,,,,,,,,,,,,,,,,,,,,,,,,,,,他人,e,,,,0,1,16,96,58,1,,,
,,,,,,,,,,,,,,1,001,2025-02-17_22h08.08.114,IAT(Formal),2021.2.3,Win32,59.88023952,,,,,,,,,,,,,,,,,,,,,,,,,,,,,,,,,,,,,,,,,,,,,,,,,,,,俺,i,,,,0,1,17,97,54,1,,,
,,,,,,,,,,,,,,1,001,2025-02-17_22h08.08.114,IAT(Formal),2021.2.3,Win32,59.88023952,,,,,,,,,,,,,,,,,,,,,,,,,,,,,,,,,,,,,,,,,,,,,,,,,,,,朴实,e,,,,0,1,18,98,24,1,,,
,,,,,,,,,,,,,,1,001,2025-02-17_22h08.08.114,IAT(Formal),2021.2.3,Win32,59.88023952,,,,,,,,,,,,,,,,,,,,,,,,,,,,,,,,,,,,,,,,,,,,,,,,,,,,勇敢,e,,,,0,1,19,99,17,1,,,
,,,,,,,,,,,,,,1,001,2025-02-17_22h08.08.114,IAT(Formal),2021.2.3,Win32,59.88023952,,,,,,,,,,,,,,,,,,,,,,,,,,,,,,,,,,,,,,,,,,,,,,,,,,,,轻率,i,,,i,1,1,20,100,48,1,0.4002,,
,,,,,,,,,,,,,,1,001,2025-02-17_22h08.08.114,IAT(Formal),2021.2.3,Win32,59.88023952,,,,,,,,,,,,,,,,,,,,,,,,,,,,,,,,,,,,,,,,,,,,,,,,,,,,他人,e,,,,0,1,21,101,68,1,,,
,,,,,,,,,,,,,,1,001,2025-02-17_22h08.08.114,IAT(Formal),2021.2.3,Win32,59.88023952,,,,,,,,,,,,,,,,,,,,,,,,,,,,,,,,,,,,,,,,,,,,,,,,,,,,公正,e,,,,0,1,22,102,23,1,,,
,,,,,,,,,,,,,,1,001,2025-02-17_22h08.08.114,IAT(Formal),2021.2.3,Win32,59.88023952,,,,,,,,,,,,,,,,,,,,,,,,,,,,,,,,,,,,,,,,,,,,,,,,,,,,其他,e,,,e,1,1,23,103,79,1,0.0367,,
,,,,,,,,,,,,,,1,001,2025-02-17_22h08.08.114,IAT(Formal),2021.2.3,Win32,59.88023952,,,,,,,,,,,,,,,,,,,,,,,,,,,,,,,,,,,,,,,,,,,,,,,,,,,,悲观,i,,,,0,1,24,104,34,1,,,
,,,,,,,,,,,,,,1,001,2025-02-17_22h08.08.114,IAT(Formal),2021.2.3,Win32,59.88023952,,,,,,,,,,,,,,,,,,,,,,,,,,,,,,,,,,,,,,,,,,,,,,,,,,,,暴躁,i,,,i,1,1,25,105,44,1,0.1002,,
,,,,,,,,,,,,,,1,001,2025-02-17_22h08.08.114,IAT(Formal),2021.2.3,Win32,59.88023952,,,,,,,,,,,,,,,,,,,,,,,,,,,,,,,,,,,,,,,,,,,,,,,,,,,,他们,e,,,e,1,1,26,106,66,1,0.5665,,
,,,,,,,,,,,,,,1,001,2025-02-17_22h08.08.114,IAT(Formal),2021.2.3,Win32,59.88023952,,,,,,,,,,,,,,,,,,,,,,,,,,,,,,,,,,,,,,,,,,,,,,,,,,,,正直,e,,,i,0,1,27,107,16,1,0.6163,,
,,,,,,,,,,,,,,1,001,2025-02-17_22h08.08.114,IAT(Formal),2021.2.3,Win32,59.88023952,,,,,,,,,,,,,,,,,,,,,,,,,,,,,,,,,,,,,,,,,,,,,,,,,,,,机智,e,,,e,1,1,28,108,19,1,0.5833,,
,,,,,,,,,,,,,,1,001,2025-02-17_22h08.08.114,IAT(Formal),2021.2.3,Win32,59.88023952,,,,,,,,,,,,,,,,,,,,,,,,,,,,,,,,,,,,,,,,,,,,,,,,,,,,活泼,e,,,,0,1,29,109,28,1,,,
,,,,,,,,,,,,,,1,001,2025-02-17_22h08.08.114,IAT(Formal),2021.2.3,Win32,59.88023952,,,,,,,,,,,,,,,,,,,,,,,,,,,,,,,,,,,,,,,,,,,,,,,,,,,,勤奋,e,,,,0,1,30,110,18,1,,,
,,,,,,,,,,,,,,1,001,2025-02-17_22h08.08.114,IAT(Formal),2021.2.3,Win32,59.88023952,,,,,,,,,,,,,,,,,,,,,,,,,,,,,,,,,,,,,,,,,,,,,,,,,,,,其他,e,,,i,0,1,31,111,9,1,0.439,,
,,,,,,,,,,,,,,1,001,2025-02-17_22h08.08.114,IAT(Formal),2021.2.3,Win32,59.88023952,,,,,,,,,,,,,,,,,,,,,,,,,,,,,,,,,,,,,,,,,,,,,,,,,,,,其他,e,,,,0,1,32,112,69,1,,,
,,,,,,,,,,,,,,1,001,2025-02-17_22h08.08.114,IAT(Formal),2021.2.3,Win32,59.88023952,,,,,,,,,,,,,,,,,,,,,,,,,,,,,,,,,,,,,,,,,,,,,,,,,,,,其他,e,,,,0,1,33,113,59,1,,,
,,,,,,,,,,,,,,1,001,2025-02-17_22h08.08.114,IAT(Formal),2021.2.3,Win32,59.88023952,,,,,,,,,,,,,,,,,,,,,,,,,,,,,,,,,,,,,,,,,,,,,,,,,,,,他的,e,,,,0,1,34,114,57,1,,,
,,,,,,,,,,,,,,1,001,2025-02-17_22h08.08.114,IAT(Formal),2021.2.3,Win32,59.88023952,,,,,,,,,,,,,,,,,,,,,,,,,,,,,,,,,,,,,,,,,,,,,,,,,,,,他们,e,,,i,0,1,35,115,6,1,1.0326,,
,,,,,,,,,,,,,,1,001,2025-02-17_22h08.08.114,IAT(Formal),2021.2.3,Win32,59.88023952,,,,,,,,,,,,,,,,,,,,,,,,,,,,,,,,,,,,,,,,,,,,,,,,,,,,卑鄙,i,,,,0,1,36,116,30,1,,,
,,,,,,,,,,,,,,1,001,2025-02-17_22h08.08.114,IAT(Formal),2021.2.3,Win32,59.88023952,,,,,,,,,,,,,,,,,,,,,,,,,,,,,,,,,,,,,,,,,,,,,,,,,,,,我,i,,,,0,1,37,117,0,1,,,
,,,,,,,,,,,,,,1,001,2025-02-17_22h08.08.114,IAT(Formal),2021.2.3,Win32,59.88023952,,,,,,,,,,,,,,,,,,,,,,,,,,,,,,,,,,,,,,,,,,,,,,,,,,,,我们,i,,,i,1,1,38,118,72,1,0.0003,,
,,,,,,,,,,,,,,1,001,2025-02-17_22h08.08.114,IAT(Formal),2021.2.3,Win32,59.88023952,,,,,,,,,,,,,,,,,,,,,,,,,,,,,,,,,,,,,,,,,,,,,,,,,,,,我们,i,,,,0,1,39,119,2,1,,,
,,,,,,,,,,,,,,1,001,2025-02-17_22h08.08.114,IAT(Formal),2021.2.3,Win32,59.88023952,,,,,,,,,,,,,,,,,,,,,,,,,,,,,,,,,,,,,,,,,,,,,,,,,,,,消极,i,,,,0,1,40,120,35,1,,,
,,,,,,,,,,,,,,1,001,2025-02-17_22h08.08.114,IAT(Formal),2021.2.3,Win32,59.88023952,,,,,,,,,,,,,,,,,,,,,,,,,,,,,,,,,,,,,,,,,,,,,,,,,,,,我们,i,,,,0,1,41,121,52,1,,,
,,,,,,,,,,,,,,1,001,2025-02-17_22h08.08.114,IAT(Formal),2021.2.3,Win32,59.88023952,,,,,,,,,,,,,,,,,,,,,,,,,,,,,,,,,,,,,,,,,,,,,,,,,,,,细腻,e,,,e,1,1,42,122,25,1,1.1198,,
,,,,,,,,,,,,,,1,001,2025-02-17_22h08.08.114,IAT(Formal),2021.2.3,Win32,59.88023952,,,,,,,,,,,,,,,,,,,,,,,,,,,,,,,,,,,,,,,,,,,,,,,,,,,,他,e,,,,0,1,43,123,55,1,,,
,,,,,,,,,,,,,,1,001,2025-02-17_22h08.08.114,IAT(Formal),2021.2.3,Win32,59.88023952,,,,,,,,,,,,,,,,,,,,,,,,,,,,,,,,,,,,,,,,,,,,,,,,,,,,他的,e,,,,0,1,44,124,7,1,,,
,,,,,,,,,,,,,,1,001,2025-02-17_22h08.08.114,IAT(Formal),2021.2.3,Win32,59.88023952,,,,,,,,,,,,,,,,,,,,,,,,,,,,,,,,,,,,,,,,,,,,,,,,,,,,他的,e,,,,0,1,45,125,77,1,,,
,,,,,,,,,,,,,,1,001,2025-02-17_22h08.08.114,IAT(Formal),2021.2.3,Win32,59.88023952,,,,,,,,,,,,,,,,,,,,,,,,,,,,,,,,,,,,,,,,,,,,,,,,,,,,自己,i,,,,0,1,46,126,53,1,,,
,,,,,,,,,,,,,,1,001,2025-02-17_22h08.08.114,IAT(Formal),2021.2.3,Win32,59.88023952,,,,,,,,,,,,,,,,,,,,,,,,,,,,,,,,,,,,,,,,,,,,,,,,,,,,冷静,e,,,i,0,1,47,127,26,1,0.1332,,
,,,,,,,,,,,,,,1,001,2025-02-17_22h08.08.114,IAT(Formal),2021.2.3,Win32,59.88023952,,,,,,,,,,,,,,,,,,,,,,,,,,,,,,,,,,,,,,,,,,,,,,,,,,,,野蛮,i,,,,0,1,48,128,46,1,,,
,,,,,,,,,,,,,,1,001,2025-02-17_22h08.08.114,IAT(Formal),2021.2.3,Win32,59.88023952,,,,,,,,,,,,,,,,,,,,,,,,,,,,,,,,,,,,,,,,,,,,,,,,,,,,我的,i,,,,0,1,49,129,51,1,,,
,,,,,,,,,,,,,,1,001,2025-02-17_22h08.08.114,IAT(Formal),2021.2.3,Win32,59.88023952,,,,,,,,,,,,,,,,,,,,,,,,,,,,,,,,,,,,,,,,,,,,,,,,,,,,散漫,i,,,,0,1,50,130,41,1,,,
,,,,,,,,,,,,,,1,001,2025-02-17_22h08.08.114,IAT(Formal),2021.2.3,Win32,59.88023952,,,,,,,,,,,,,,,,,,,,,,,,,,,,,,,,,,,,,,,,,,,,,,,,,,,,猖狂,i,,,,0,1,51,131,45,1,,,
,,,,,,,,,,,,,,1,001,2025-02-17_22h08.08.114,IAT(Formal),2021.2.3,Win32,59.88023952,,,,,,,,,,,,,,,,,,,,,,,,,,,,,,,,,,,,,,,,,,,,,,,,,,,,热情,e,,,,0,1,52,132,27,1,,,
,,,,,,,,,,,,,,1,001,2025-02-17_22h08.08.114,IAT(Formal),2021.2.3,Win32,59.88023952,,,,,,,,,,,,,,,,,,,,,,,,,,,,,,,,,,,,,,,,,,,,,,,,,,,,稳重,e,,,,0,1,53,133,21,1,,,
,,,,,,,,,,,,,,1,001,2025-02-17_22h08.08.114,IAT(Formal),2021.2.3,Win32,59.88023952,,,,,,,,,,,,,,,,,,,,,,,,,,,,,,,,,,,,,,,,,,,,,,,,,,,,下贱,i,,,,0,1,54,134,49,1,,,
,,,,,,,,,,,,,,1,001,2025-02-17_22h08.08.114,IAT(Formal),2021.2.3,Win32,59.88023952,,,,,,,,,,,,,,,,,,,,,,,,,,,,,,,,,,,,,,,,,,,,,,,,,,,,俺,i,,,,0,1,55,135,4,1,,,
,,,,,,,,,,,,,,1,001,2025-02-17_22h08.08.114,IAT(Formal),2021.2.3,Win32,59.88023952,,,,,,,,,,,,,,,,,,,,,,,,,,,,,,,,,,,,,,,,,,,,,,,,,,,,凶狠,i,,,,0,1,56,136,42,1,,,
,,,,,,,,,,,,,,1,001,2025-02-17_22h08.08.114,IAT(Formal),2021.2.3,Win32,59.88023952,,,,,,,,,,,,,,,,,,,,,,,,,,,,,,,,,,,,,,,,,,,,,,,,,,,,杰出,e,,,,0,1,57,137,13,1,,,
,,,,,,,,,,,,,,1,001,2025-02-17_22h08.08.114,IAT(Formal),2021.2.3,Win32,59.88023952,,,,,,,,,,,,,,,,,,,,,,,,,,,,,,,,,,,,,,,,,,,,,,,,,,,,自己,i,,,,0,1,58,138,3,1,,,
,,,,,,,,,,,,,,1,001,2025-02-17_22h08.08.114,IAT(Formal),2021.2.3,Win32,59.88023952,,,,,,,,,,,,,,,,,,,,,,,,,,,,,,,,,,,,,,,,,,,,,,,,,,,,愚蠢,i,,,,0,1,59,139,32,1,,,
,,,,,,,,,,,,,,1,001,2025-02-17_22h08.08.114,IAT(Formal),2021.2.3,Win32,59.88023952,,,,,,,,,,,,,,,,,,,,,,,,,,,,,,,,,,,,,,,,,,,,,,,,,,,,他,e,,,,0,1,60,140,65,1,,,
,,,,,,,,,,,,,,1,001,2025-02-17_22h08.08.114,IAT(Formal),2021.2.3,Win32,59.88023952,,,,,,,,,,,,,,,,,,,,,,,,,,,,,,,,,,,,,,,,,,,,,,,,,,,,俺,i,,,,0,1,61,141,74,1,,,
,,,,,,,,,,,,,,1,001,2025-02-17_22h08.08.114,IAT(Formal),2021.2.3,Win32,59.88023952,,,,,,,,,,,,,,,,,,,,,,,,,,,,,,,,,,,,,,,,,,,,,,,,,,,,我,i,,,,0,1,62,142,70,1,,,
,,,,,,,,,,,,,,1,001,2025-02-17_22h08.08.114,IAT(Formal),2021.2.3,Win32,59.88023952,,,,,,,,,,,,,,,,,,,,,,,,,,,,,,,,,,,,,,,,,,,,,,,,,,,,我的,i,,,,0,1,63,143,61,1,,,
,,,,,,,,,,,,,,1,001,2025-02-17_22h08.08.114,IAT(Formal),2021.2.3,Win32,59.88023952,,,,,,,,,,,,,,,,,,,,,,,,,,,,,,,,,,,,,,,,,,,,,,,,,,,,我的,i,,,,0,1,64,144,71,1,,,
,,,,,,,,,,,,,,1,001,2025-02-17_22h08.08.114,IAT(Formal),2021.2.3,Win32,59.88023952,,,,,,,,,,,,,,,,,,,,,,,,,,,,,,,,,,,,,,,,,,,,,,,,,,,,认真,e,,,,0,1,65,145,20,1,,,
,,,,,,,,,,,,,,1,001,2025-02-17_22h08.08.114,IAT(Formal),2021.2.3,Win32,59.88023952,,,,,,,,,,,,,,,,,,,,,,,,,,,,,,,,,,,,,,,,,,,,,,,,,,,,自卑,i,,,,0,1,66,146,36,1,,,
,,,,,,,,,,,,,,1,001,2025-02-17_22h08.08.114,IAT(Formal),2021.2.3,Win32,59.88023952,,,,,,,,,,,,,,,,,,,,,,,,,,,,,,,,,,,,,,,,,,,,,,,,,,,,他们,e,,,,0,1,67,147,56,1,,,
,,,,,,,,,,,,,,1,001,2025-02-17_22h08.08.114,IAT(Formal),2021.2.3,Win32,59.88023952,,,,,,,,,,,,,,,,,,,,,,,,,,,,,,,,,,,,,,,,,,,,,,,,,,,,自己,i,,,,0,1,68,148,73,1,,,
,,,,,,,,,,,,,,1,001,2025-02-17_22h08.08.114,IAT(Formal),2021.2.3,Win32,59.88023952,,,,,,,,,,,,,,,,,,,,,,,,,,,,,,,,,,,,,,,,,,,,,,,,,,,,他,e,,,,0,1,69,149,5,1,,,
,,,,,,,,,,,,,,1,001,2025-02-17_22h08.08.114,IAT(Formal),2021.2.3,Win32,59.88023952,,,,,,,,,,,,,,,,,,,,,,,,,,,,,,,,,,,,,,,,,,,,,,,,,,,,执拗,i,,,,0,1,70,150,40,1,,,
,,,,,,,,,,,,,,1,001,2025-02-17_22h08.08.114,IAT(Formal),2021.2.3,Win32,59.88023952,,,,,,,,,,,,,,,,,,,,,,,,,,,,,,,,,,,,,,,,,,,,,,,,,,,,我的,i,,,,0,1,71,151,1,1,,,
,,,,,,,,,,,,,,1,001,2025-02-17_22h08.08.114,IAT(Formal),2021.2.3,Win32,59.88023952,,,,,,,,,,,,,,,,,,,,,,,,,,,,,,,,,,,,,,,,,,,,,,,,,,,,我,i,,,,0,1,72,152,50,1,,,
,,,,,,,,,,,,,,1,001,2025-02-17_22h08.08.114,IAT(Formal),2021.2.3,Win32,59.88023952,,,,,,,,,,,,,,,,,,,,,,,,,,,,,,,,,,,,,,,,,,,,,,,,,,,,崇高,e,,,,0,1,73,153,11,1,,,
,,,,,,,,,,,,,,1,001,2025-02-17_22h08.08.114,IAT(Formal),2021.2.3,Win32,59.88023952,,,,,,,,,,,,,,,,,,,,,,,,,,,,,,,,,,,,,,,,,,,,,,,,,,,,俺,i,,,,0,1,74,154,64,1,,,
,,,,,,,,,,,,,,1,001,2025-02-17_22h08.08.114,IAT(Formal),2021.2.3,Win32,59.88023952,,,,,,,,,,,,,,,,,,,,,,,,,,,,,,,,,,,,,,,,,,,,,,,,,,,,我,i,,,,0,1,75,155,60,1,,,
,,,,,,,,,,,,,,1,001,2025-02-17_22h08.08.114,IAT(Formal),2021.2.3,Win32,59.88023952,,,,,,,,,,,,,,,,,,,,,,,,,,,,,,,,,,,,,,,,,,,,,,,,,,,,他,e,,,,0,1,76,156,75,1,,,
,,,,,,,,,,,,,,1,001,2025-02-17_22h08.08.114,IAT(Formal),2021.2.3,Win32,59.88023952,,,,,,,,,,,,,,,,,,,,,,,,,,,,,,,,,,,,,,,,,,,,,,,,,,,,冒失,i,,,,0,1,77,157,39,1,,,
,,,,,,,,,,,,,,1,001,2025-02-17_22h08.08.114,IAT(Formal),2021.2.3,Win32,59.88023952,,,,,,,,,,,,,,,,,,,,,,,,,,,,,,,,,,,,,,,,,,,,,,,,,,,,刻薄,i,,,,0,1,78,158,33,1,,,
,,,,,,,,,,,,,,1,001,2025-02-17_22h08.08.114,IAT(Formal),2021.2.3,Win32,59.88023952,,,,,,,,,,,,,,,,,,,,,,,,,,,,,,,,,,,,,,,,,,,,,,,,,,,,诚恳,e,,,,0,1,79,159,29,1,,,
,,,,,,,,,,,,,,1,001,2025-02-17_22h08.08.114,IAT(Formal),2021.2.3,Win32,59.88023952,,,,,,,,,,,,,,,,,,,,,,,,,,,,,,,,,,,,,,,,,,,,,,,,,,,,,,,,,,,,,,,,space,31.9156